onset	duration	sample	trial_type	response_time	stim_file	serialpos	probepos	probe_word	resp_word	study_1	study_2	list	test	answer	experiment	session	subject
0.0	85.028	121476	SESS_START	n/a	n/a	-999	-999	n/a	n/a	n/a	n/a	-999	[0, 0, 0]	-999	PAL1	0	R1100D
85.028	1.017	257514	START	n/a	n/a	-999	-999	n/a	n/a	n/a	n/a	-1	[-999, -999, -999]	-999	PAL1	0	R1100D
86.045	6.351	259142	PROB	6330.0	n/a	-999	-999	n/a	n/a	n/a	n/a	-1	[3, 8, 9]	20	PAL1	0	R1100D
92.396	4.017	269303	PROB	3987.0	n/a	-999	-999	n/a	n/a	n/a	n/a	-1	[7, 6, 2]	15	PAL1	0	R1100D
96.413	3.284	275730	PROB	3258.0	n/a	-999	-999	n/a	n/a	n/a	n/a	-1	[3, 2, 3]	8	PAL1	0	R1100D
99.697	3.168	280984	PROB	3142.0	n/a	-999	-999	n/a	n/a	n/a	n/a	-1	[5, 5, 5]	15	PAL1	0	R1100D
102.865	3.669	286052	PROB	3669.0	n/a	-999	-999	n/a	n/a	n/a	n/a	-1	[5, 2, 6]	13	PAL1	0	R1100D
106.534	52.889	291922	STOP	n/a	n/a	-999	-999	n/a	n/a	n/a	n/a	-1	[-999, -999, -999]	-999	PAL1	0	R1100D
159.423	10.437	376541	ENCODING_START	n/a	n/a	0	-999	n/a	n/a	n/a	n/a	1	[0, 0, 0]	-999	PAL1	0	R1100D
169.86	0.275	393239	STUDY_ORIENT	n/a	n/a	1	5	RIB	CAVE	RIB	CAVE	1	[0, 0, 0]	-999	PAL1	0	R1100D
170.661	4.0	394521	STUDY_PAIR	n/a	wordpools/wordpool_EN.txt	1	5	RIB	CAVE	RIB	CAVE	1	[0, 0, 0]	-999	PAL1	0	R1100D
175.695	0.275	402575	STUDY_ORIENT	n/a	n/a	2	2	SALT	PASS	STEAM	SALT	1	[0, 0, 0]	-999	PAL1	0	R1100D
176.662	4.0	404122	STUDY_PAIR	n/a	wordpools/wordpool_EN.txt	2	2	SALT	PASS	STEAM	SALT	1	[0, 0, 0]	-999	PAL1	0	R1100D
181.696	0.275	412176	STUDY_ORIENT	n/a	n/a	3	1	SEAT	PASS	SEAT	DOOR	1	[0, 0, 0]	-999	PAL1	0	R1100D
182.495	4.0	413454	STUDY_PAIR	n/a	wordpools/wordpool_EN.txt	3	1	SEAT	PASS	SEAT	DOOR	1	[0, 0, 0]	-999	PAL1	0	R1100D
187.53	0.275	421510	STUDY_ORIENT	n/a	n/a	4	6	SPARK	SPEAR	SPEAR	SPARK	1	[0, 0, 0]	-999	PAL1	0	R1100D
188.431	4.0	422951	STUDY_PAIR	n/a	wordpools/wordpool_EN.txt	4	6	SPARK	SPEAR	SPEAR	SPARK	1	[0, 0, 0]	-999	PAL1	0	R1100D
193.464	0.275	431004	STUDY_ORIENT	n/a	n/a	5	3	OAK	PASS	OAK	PEAR	1	[0, 0, 0]	-999	PAL1	0	R1100D
194.464	4.0	432604	STUDY_PAIR	n/a	wordpools/wordpool_EN.txt	5	3	OAK	PASS	OAK	PEAR	1	[0, 0, 0]	-999	PAL1	0	R1100D
199.498	0.275	440658	STUDY_ORIENT	n/a	n/a	6	4	BOOK	WORM	WORM	BOOK	1	[0, 0, 0]	-999	PAL1	0	R1100D
200.333	4.0	441994	STUDY_PAIR	n/a	wordpools/wordpool_EN.txt	6	4	BOOK	WORM	WORM	BOOK	1	[0, 0, 0]	-999	PAL1	0	R1100D
204.351	0.999	448422	START	n/a	n/a	-999	-999	n/a	n/a	n/a	n/a	1	[-999, -999, -999]	-999	PAL1	0	R1100D
205.35	0.017	450020	MATH_START	n/a	n/a	-999	-999	n/a	n/a	n/a	n/a	1	[0, 0, 0]	-999	PAL1	0	R1100D
205.367	3.651	450048	PROB	3616.0	n/a	-999	-999	n/a	n/a	n/a	n/a	1	[6, 1, 3]	10	PAL1	0	R1100D
209.018	6.368	455889	PROB	6333.0	n/a	-999	-999	n/a	n/a	n/a	n/a	1	[6, 5, 7]	18	PAL1	0	R1100D
215.386	3.166	466077	PROB	3132.0	n/a	-999	-999	n/a	n/a	n/a	n/a	1	[3, 2, 4]	9	PAL1	0	R1100D
218.552	3.385	471143	PROB	3359.0	n/a	-999	-999	n/a	n/a	n/a	n/a	1	[2, 3, 9]	14	PAL1	0	R1100D
221.937	4.286	476558	PROB	4286.0	n/a	-999	-999	n/a	n/a	n/a	n/a	1	[8, 3, 6]	18	PAL1	0	R1100D
226.223	0.015	483416	STOP	n/a	n/a	-999	-999	n/a	n/a	n/a	n/a	1	[-999, -999, -999]	-999	PAL1	0	R1100D
226.238	0.0	483440	MATH_END	n/a	n/a	-999	-999	n/a	n/a	n/a	n/a	1	[0, 0, 0]	-999	PAL1	0	R1100D
226.238	0.016	483440	TEST_START	n/a	n/a	-999	-999	n/a	n/a	n/a	n/a	1	[0, 0, 0]	-999	PAL1	0	R1100D
226.254	0.275	483465	TEST_ORIENT	n/a	n/a	3	1	SEAT	PASS	SEAT	DOOR	1	[0, 0, 0]	-999	PAL1	0	R1100D
227.121	4.0	484852	TEST_PROBE	n/a	wordpools/wordpool_EN.txt	3	1	SEAT	PASS	SEAT	DOOR	1	[0, 0, 0]	-999	PAL1	0	R1100D
227.122	2.582	484854	REC_START	n/a	n/a	3	-999	n/a	PASS	n/a	n/a	1	[0, 0, 0]	-999	PAL1	0	R1100D
229.704	2.434	488985	REC_EVENT	2582.0	n/a	3	1	SEAT	PASS	SEAT	DOOR	1	[0, 0, 0]	-999	PAL1	0	R1100D
232.138	0.017	492879	REC_END	n/a	n/a	3	-999	n/a	n/a	n/a	n/a	1	[0, 0, 0]	-999	PAL1	0	R1100D
232.155	0.275	492906	TEST_ORIENT	n/a	n/a	2	2	SALT	PASS	STEAM	SALT	1	[0, 0, 0]	-999	PAL1	0	R1100D
233.106	4.0	494428	TEST_PROBE	n/a	wordpools/wordpool_EN.txt	2	2	SALT	PASS	STEAM	SALT	1	[0, 0, 0]	-999	PAL1	0	R1100D
233.106	2.319	494428	REC_START	n/a	n/a	2	-999	n/a	PASS	n/a	n/a	1	[0, 0, 0]	-999	PAL1	0	R1100D
235.425	2.698	498138	REC_EVENT	2319.0	n/a	2	2	SALT	PASS	STEAM	SALT	1	[0, 0, 0]	-999	PAL1	0	R1100D
238.123	0.017	502455	REC_END	n/a	n/a	2	-999	n/a	n/a	n/a	n/a	1	[0, 0, 0]	-999	PAL1	0	R1100D
238.14	0.275	502482	TEST_ORIENT	n/a	n/a	5	3	OAK	PASS	OAK	PEAR	1	[0, 0, 0]	-999	PAL1	0	R1100D
239.057	4.0	503949	TEST_PROBE	n/a	wordpools/wordpool_EN.txt	5	3	OAK	PASS	OAK	PEAR	1	[0, 0, 0]	-999	PAL1	0	R1100D
239.057	4.131	503949	REC_START	n/a	n/a	5	-999	n/a	PASS	n/a	n/a	1	[0, 0, 0]	-999	PAL1	0	R1100D
243.188	0.886	510558	REC_EVENT	4131.0	n/a	5	3	OAK	PASS	OAK	PEAR	1	[0, 0, 0]	-999	PAL1	0	R1100D
244.074	0.017	511976	REC_END	n/a	n/a	5	-999	n/a	n/a	n/a	n/a	1	[0, 0, 0]	-999	PAL1	0	R1100D
244.091	0.275	512003	TEST_ORIENT	n/a	n/a	6	4	BOOK	WORM	WORM	BOOK	1	[0, 0, 0]	-999	PAL1	0	R1100D
245.058	4.0	513550	TEST_PROBE	n/a	wordpools/wordpool_EN.txt	6	4	BOOK	WORM	WORM	BOOK	1	[0, 0, 0]	-999	PAL1	0	R1100D
245.058	1.045	513550	REC_START	n/a	n/a	6	-999	n/a	WORM	n/a	n/a	1	[0, 0, 0]	-999	PAL1	0	R1100D
246.103	3.972	515222	REC_EVENT	1045.0	n/a	6	4	BOOK	WORM	WORM	BOOK	1	[0, 0, 0]	-999	PAL1	0	R1100D
250.075	0.017	521577	REC_END	n/a	n/a	6	-999	n/a	n/a	n/a	n/a	1	[0, 0, 0]	-999	PAL1	0	R1100D
250.092	0.275	521604	TEST_ORIENT	n/a	n/a	1	5	RIB	CAVE	RIB	CAVE	1	[0, 0, 0]	-999	PAL1	0	R1100D
251.126	4.0	523258	TEST_PROBE	n/a	wordpools/wordpool_EN.txt	1	5	RIB	CAVE	RIB	CAVE	1	[0, 0, 0]	-999	PAL1	0	R1100D
251.126	1.141	523258	REC_START	n/a	n/a	1	-999	n/a	CAVE	n/a	n/a	1	[0, 0, 0]	-999	PAL1	0	R1100D
252.267	3.884	525084	REC_EVENT	1141.0	n/a	1	5	RIB	CAVE	RIB	CAVE	1	[0, 0, 0]	-999	PAL1	0	R1100D
256.151	0.009	531298	REC_END	n/a	n/a	1	-999	n/a	n/a	n/a	n/a	1	[0, 0, 0]	-999	PAL1	0	R1100D
256.16	0.275	531312	TEST_ORIENT	n/a	n/a	4	6	SPARK	SPEAR	SPEAR	SPARK	1	[0, 0, 0]	-999	PAL1	0	R1100D
257.143	4.0	532885	TEST_PROBE	n/a	wordpools/wordpool_EN.txt	4	6	SPARK	SPEAR	SPEAR	SPARK	1	[0, 0, 0]	-999	PAL1	0	R1100D
257.144	3.406	532887	REC_START	n/a	n/a	4	-999	n/a	SPEAR	n/a	n/a	1	[0, 0, 0]	-999	PAL1	0	R1100D
260.55	1.603	538336	REC_EVENT	3406.0	n/a	4	6	SPARK	SPEAR	SPEAR	SPARK	1	[0, 0, 0]	-999	PAL1	0	R1100D
262.153	15.726	540901	REC_END	n/a	n/a	4	-999	n/a	n/a	n/a	n/a	1	[0, 0, 0]	-999	PAL1	0	R1100D
277.879	10.453	566061	ENCODING_START	n/a	n/a	0	-999	n/a	n/a	n/a	n/a	2	[0, 0, 0]	-999	PAL1	0	R1100D
288.332	0.275	582785	STUDY_ORIENT	n/a	n/a	1	3	ROCK	FACE	ROCK	SMILE	2	[0, 0, 0]	-999	PAL1	0	R1100D
289.283	4.0	584307	STUDY_PAIR	n/a	wordpools/wordpool_EN.txt	1	3	ROCK	FACE	ROCK	SMILE	2	[0, 0, 0]	-999	PAL1	0	R1100D
294.317	0.275	592361	STUDY_ORIENT	n/a	n/a	2	2	PALM	PASS	PALM	PRINCE	2	[0, 0, 0]	-999	PAL1	0	R1100D
295.284	4.0	593908	STUDY_PAIR	n/a	wordpools/wordpool_EN.txt	2	2	PALM	PASS	PALM	PRINCE	2	[0, 0, 0]	-999	PAL1	0	R1100D
300.318	0.275	601962	STUDY_ORIENT	n/a	n/a	3	1	CHALK	n/a	CART	CHALK	2	[0, 0, 0]	-999	PAL1	0	R1100D
301.218	4.0	603402	STUDY_PAIR	n/a	wordpools/wordpool_EN.txt	3	1	CHALK	n/a	CART	CHALK	2	[0, 0, 0]	-999	PAL1	0	R1100D
306.236	0.275	611430	STUDY_ORIENT	n/a	n/a	4	4	CRANE	MUD	CRANE	MUD	2	[0, 0, 0]	-999	PAL1	0	R1100D
307.153	4.0	612897	STUDY_PAIR	n/a	wordpools/wordpool_EN.txt	4	4	CRANE	MUD	CRANE	MUD	2	[0, 0, 0]	-999	PAL1	0	R1100D
312.187	0.275	620951	STUDY_ORIENT	n/a	n/a	5	5	SLUSH	PASS	SLUSH	TOAST	2	[0, 0, 0]	-999	PAL1	0	R1100D
313.087	4.0	622391	STUDY_PAIR	n/a	wordpools/wordpool_EN.txt	5	5	SLUSH	PASS	SLUSH	TOAST	2	[0, 0, 0]	-999	PAL1	0	R1100D
318.121	0.275	630445	STUDY_ORIENT	n/a	n/a	6	6	BOAT	PASS	BOAT	SQUARE	2	[0, 0, 0]	-999	PAL1	0	R1100D
319.088	4.0	631992	STUDY_PAIR	n/a	wordpools/wordpool_EN.txt	6	6	BOAT	PASS	BOAT	SQUARE	2	[0, 0, 0]	-999	PAL1	0	R1100D
323.09	0.999	638395	START	n/a	n/a	-999	-999	n/a	n/a	n/a	n/a	2	[-999, -999, -999]	-999	PAL1	0	R1100D
324.089	0.017	639994	MATH_START	n/a	n/a	-999	-999	n/a	n/a	n/a	n/a	2	[0, 0, 0]	-999	PAL1	0	R1100D
324.106	3.767	640021	PROB	3741.0	n/a	-999	-999	n/a	n/a	n/a	n/a	2	[2, 8, 8]	18	PAL1	0	R1100D
327.873	3.067	646048	PROB	3046.0	n/a	-999	-999	n/a	n/a	n/a	n/a	2	[6, 3, 3]	12	PAL1	0	R1100D
330.94	4.118	650955	PROB	4099.0	n/a	-999	-999	n/a	n/a	n/a	n/a	2	[8, 4, 4]	16	PAL1	0	R1100D
335.058	4.767	657543	PROB	4733.0	n/a	-999	-999	n/a	n/a	n/a	n/a	2	[7, 5, 4]	16	PAL1	0	R1100D
339.825	3.001	665170	PROB	2974.0	n/a	-999	-999	n/a	n/a	n/a	n/a	2	[3, 4, 3]	10	PAL1	0	R1100D
342.826	4.469	669971	PROB	4469.0	n/a	-999	-999	n/a	n/a	n/a	n/a	2	[6, 2, 2]	10	PAL1	0	R1100D
347.295	0.015	677121	STOP	n/a	n/a	-999	-999	n/a	n/a	n/a	n/a	2	[-999, -999, -999]	-999	PAL1	0	R1100D
347.31	0.0	677145	TEST_START	n/a	n/a	-999	-999	n/a	n/a	n/a	n/a	2	[0, 0, 0]	-999	PAL1	0	R1100D
347.31	0.017	677145	MATH_END	n/a	n/a	-999	-999	n/a	n/a	n/a	n/a	2	[0, 0, 0]	-999	PAL1	0	R1100D
347.327	0.275	677173	TEST_ORIENT	n/a	n/a	3	1	CHALK	n/a	CART	CHALK	2	[0, 0, 0]	-999	PAL1	0	R1100D
348.244	4.0	678640	TEST_PROBE	n/a	wordpools/wordpool_EN.txt	3	1	CHALK	n/a	CART	CHALK	2	[0, 0, 0]	-999	PAL1	0	R1100D
348.244	4.835	678640	REC_START	n/a	n/a	3	-999	n/a	n/a	n/a	n/a	2	[0, 0, 0]	-999	PAL1	0	R1100D
353.079	0.182	686375	REC_EVENT	4835.0	n/a	3	1	CHALK	<>	CART	CHALK	2	[0, 0, 0]	-999	PAL1	0	R1100D
353.261	0.017	686667	REC_END	n/a	n/a	3	-999	n/a	n/a	n/a	n/a	2	[0, 0, 0]	-999	PAL1	0	R1100D
353.278	0.275	686694	TEST_ORIENT	n/a	n/a	2	2	PALM	PASS	PALM	PRINCE	2	[0, 0, 0]	-999	PAL1	0	R1100D
354.145	4.0	688081	TEST_PROBE	n/a	wordpools/wordpool_EN.txt	2	2	PALM	PASS	PALM	PRINCE	2	[0, 0, 0]	-999	PAL1	0	R1100D
354.145	2.718	688081	REC_START	n/a	n/a	2	-999	n/a	PASS	n/a	n/a	2	[0, 0, 0]	-999	PAL1	0	R1100D
356.863	2.299	692429	REC_EVENT	2718.0	n/a	2	2	PALM	PASS	PALM	PRINCE	2	[0, 0, 0]	-999	PAL1	0	R1100D
359.162	0.017	696108	REC_END	n/a	n/a	2	-999	n/a	n/a	n/a	n/a	2	[0, 0, 0]	-999	PAL1	0	R1100D
359.179	0.275	696135	TEST_ORIENT	n/a	n/a	1	3	ROCK	FACE	ROCK	SMILE	2	[0, 0, 0]	-999	PAL1	0	R1100D
360.112	4.0	697628	TEST_PROBE	n/a	wordpools/wordpool_EN.txt	1	3	ROCK	FACE	ROCK	SMILE	2	[0, 0, 0]	-999	PAL1	0	R1100D
360.113	1.783	697629	REC_START	n/a	n/a	1	-999	n/a	FACE	n/a	n/a	2	[0, 0, 0]	-999	PAL1	0	R1100D
361.896	3.217	700482	REC_EVENT	1783.0	n/a	1	3	ROCK	FACE	ROCK	SMILE	2	[0, 0, 0]	-999	PAL1	0	R1100D
365.113	0.017	705629	REC_END	n/a	n/a	1	-999	n/a	n/a	n/a	n/a	2	[0, 0, 0]	-999	PAL1	0	R1100D
365.13	0.275	705656	TEST_ORIENT	n/a	n/a	4	4	CRANE	MUD	CRANE	MUD	2	[0, 0, 0]	-999	PAL1	0	R1100D
366.014	0.0	707070	REC_START	n/a	n/a	4	-999	n/a	MUD	n/a	n/a	2	[0, 0, 0]	-999	PAL1	0	R1100D
366.014	4.0	707070	TEST_PROBE	n/a	wordpools/wordpool_EN.txt	4	4	CRANE	MUD	CRANE	MUD	2	[0, 0, 0]	-999	PAL1	0	R1100D
367.445	3.586	709360	REC_EVENT	1431.0	n/a	4	4	CRANE	MUD	CRANE	MUD	2	[0, 0, 0]	-999	PAL1	0	R1100D
371.031	0.017	715097	REC_END	n/a	n/a	4	-999	n/a	n/a	n/a	n/a	2	[0, 0, 0]	-999	PAL1	0	R1100D
371.048	0.275	715124	TEST_ORIENT	n/a	n/a	5	5	SLUSH	PASS	SLUSH	TOAST	2	[0, 0, 0]	-999	PAL1	0	R1100D
372.031	4.0	716697	TEST_PROBE	n/a	wordpools/wordpool_EN.txt	5	5	SLUSH	PASS	SLUSH	TOAST	2	[0, 0, 0]	-999	PAL1	0	R1100D
372.032	3.326	716699	REC_START	n/a	n/a	5	-999	n/a	PASS	n/a	n/a	2	[0, 0, 0]	-999	PAL1	0	R1100D
375.358	1.708	722020	REC_EVENT	3326.0	n/a	5	5	SLUSH	PASS	SLUSH	TOAST	2	[0, 0, 0]	-999	PAL1	0	R1100D
377.066	0.016	724753	REC_END	n/a	n/a	5	-999	n/a	n/a	n/a	n/a	2	[0, 0, 0]	-999	PAL1	0	R1100D
377.082	0.275	724778	TEST_ORIENT	n/a	n/a	6	6	BOAT	PASS	BOAT	SQUARE	2	[0, 0, 0]	-999	PAL1	0	R1100D
377.966	0.0	726193	REC_START	n/a	n/a	6	-999	n/a	PASS	n/a	n/a	2	[0, 0, 0]	-999	PAL1	0	R1100D
377.966	4.0	726193	TEST_PROBE	n/a	wordpools/wordpool_EN.txt	6	6	BOAT	PASS	BOAT	SQUARE	2	[0, 0, 0]	-999	PAL1	0	R1100D
380.946	2.043	730960	REC_EVENT	2980.0	n/a	6	6	BOAT	PASS	BOAT	SQUARE	2	[0, 0, 0]	-999	PAL1	0	R1100D
382.989	9.138	734229	REC_END	n/a	n/a	6	-999	n/a	n/a	n/a	n/a	2	[0, 0, 0]	-999	PAL1	0	R1100D
392.127	10.442	748849	ENCODING_START	n/a	n/a	0	-999	n/a	n/a	n/a	n/a	3	[0, 0, 0]	-999	PAL1	0	R1100D
402.569	0.275	765556	STUDY_ORIENT	n/a	n/a	1	5	BENCH	PASS	BENCH	VASE	3	[0, 0, 0]	-999	PAL1	0	R1100D
403.354	4.0	766811	STUDY_PAIR	n/a	wordpools/wordpool_EN.txt	1	5	BENCH	PASS	BENCH	VASE	3	[0, 0, 0]	-999	PAL1	0	R1100D
408.388	0.275	774865	STUDY_ORIENT	n/a	n/a	2	4	MOUSE	WALL	MOUSE	WALL	3	[0, 0, 0]	-999	PAL1	0	R1100D
409.205	4.0	776173	STUDY_PAIR	n/a	wordpools/wordpool_EN.txt	2	4	MOUSE	WALL	MOUSE	WALL	3	[0, 0, 0]	-999	PAL1	0	R1100D
414.239	0.275	784227	STUDY_ORIENT	n/a	n/a	3	1	BAND	PASS	PLATE	BAND	3	[0, 0, 0]	-999	PAL1	0	R1100D
415.023	4.0	785481	STUDY_PAIR	n/a	wordpools/wordpool_EN.txt	3	1	BAND	PASS	PLATE	BAND	3	[0, 0, 0]	-999	PAL1	0	R1100D
420.057	0.275	793535	STUDY_ORIENT	n/a	n/a	4	2	ROOT	HORSE	HORSE	ROOT	3	[0, 0, 0]	-999	PAL1	0	R1100D
420.924	4.0	794922	STUDY_PAIR	n/a	wordpools/wordpool_EN.txt	4	2	ROOT	HORSE	HORSE	ROOT	3	[0, 0, 0]	-999	PAL1	0	R1100D
425.958	0.275	802976	STUDY_ORIENT	n/a	n/a	5	3	PIT	PASS	MOUTH	PIT	3	[0, 0, 0]	-999	PAL1	0	R1100D
426.958	4.0	804576	STUDY_PAIR	n/a	wordpools/wordpool_EN.txt	5	3	PIT	PASS	MOUTH	PIT	3	[0, 0, 0]	-999	PAL1	0	R1100D
431.976	0.275	812604	STUDY_ORIENT	n/a	n/a	6	6	ZOO	PASS	ZOO	LEAF	3	[0, 0, 0]	-999	PAL1	0	R1100D
432.843	4.0	813992	STUDY_PAIR	n/a	wordpools/wordpool_EN.txt	6	6	ZOO	PASS	ZOO	LEAF	3	[0, 0, 0]	-999	PAL1	0	R1100D
436.861	0.999	820420	START	n/a	n/a	-999	-999	n/a	n/a	n/a	n/a	3	[-999, -999, -999]	-999	PAL1	0	R1100D
437.86	0.017	822018	MATH_START	n/a	n/a	-999	-999	n/a	n/a	n/a	n/a	3	[0, 0, 0]	-999	PAL1	0	R1100D
437.877	4.167	822046	PROB	4138.0	n/a	-999	-999	n/a	n/a	n/a	n/a	3	[2, 9, 7]	18	PAL1	0	R1100D
442.044	6.501	828712	PROB	6466.0	n/a	-999	-999	n/a	n/a	n/a	n/a	3	[1, 6, 8]	15	PAL1	0	R1100D
448.545	2.634	839114	PROB	2614.0	n/a	-999	-999	n/a	n/a	n/a	n/a	3	[6, 6, 6]	18	PAL1	0	R1100D
451.179	3.101	843328	PROB	3076.0	n/a	-999	-999	n/a	n/a	n/a	n/a	3	[5, 5, 3]	13	PAL1	0	R1100D
454.28	3.463	848289	PROB	3463.0	n/a	-999	-999	n/a	n/a	n/a	n/a	3	[9, 2, 5]	16	PAL1	0	R1100D
457.743	0.004	853830	STOP	n/a	n/a	-999	-999	n/a	n/a	n/a	n/a	3	[-999, -999, -999]	-999	PAL1	0	R1100D
457.747	0.0	853836	TEST_START	n/a	n/a	-999	-999	n/a	n/a	n/a	n/a	3	[0, 0, 0]	-999	PAL1	0	R1100D
457.747	0.017	853836	MATH_END	n/a	n/a	-999	-999	n/a	n/a	n/a	n/a	3	[0, 0, 0]	-999	PAL1	0	R1100D
457.764	0.275	853863	TEST_ORIENT	n/a	n/a	3	1	BAND	PASS	PLATE	BAND	3	[0, 0, 0]	-999	PAL1	0	R1100D
458.698	4.0	855358	TEST_PROBE	n/a	wordpools/wordpool_EN.txt	3	1	BAND	PASS	PLATE	BAND	3	[0, 0, 0]	-999	PAL1	0	R1100D
458.699	3.997	855359	REC_START	n/a	n/a	3	-999	n/a	PASS	n/a	n/a	3	[0, 0, 0]	-999	PAL1	0	R1100D
462.696	1.027	861754	REC_EVENT	3997.0	n/a	3	1	BAND	PASS	PLATE	BAND	3	[0, 0, 0]	-999	PAL1	0	R1100D
463.723	0.009	863397	REC_END	n/a	n/a	3	-999	n/a	n/a	n/a	n/a	3	[0, 0, 0]	-999	PAL1	0	R1100D
463.732	0.275	863412	TEST_ORIENT	n/a	n/a	4	2	ROOT	HORSE	HORSE	ROOT	3	[0, 0, 0]	-999	PAL1	0	R1100D
464.597	4.0	864796	TEST_PROBE	n/a	wordpools/wordpool_EN.txt	4	2	ROOT	HORSE	HORSE	ROOT	3	[0, 0, 0]	-999	PAL1	0	R1100D
464.598	2.901	864797	REC_START	n/a	n/a	4	-999	n/a	HORSE	n/a	n/a	3	[0, 0, 0]	-999	PAL1	0	R1100D
467.499	2.107	869439	REC_EVENT	2901.0	n/a	4	2	ROOT	HORSE	HORSE	ROOT	3	[0, 0, 0]	-999	PAL1	0	R1100D
469.606	0.009	872810	REC_END	n/a	n/a	4	-999	n/a	n/a	n/a	n/a	3	[0, 0, 0]	-999	PAL1	0	R1100D
469.615	0.275	872824	TEST_ORIENT	n/a	n/a	5	3	PIT	PASS	MOUTH	PIT	3	[0, 0, 0]	-999	PAL1	0	R1100D
470.599	4.0	874398	TEST_PROBE	n/a	wordpools/wordpool_EN.txt	5	3	PIT	PASS	MOUTH	PIT	3	[0, 0, 0]	-999	PAL1	0	R1100D
470.6	3.32	874400	REC_START	n/a	n/a	5	-999	n/a	PASS	n/a	n/a	3	[0, 0, 0]	-999	PAL1	0	R1100D
473.92	1.704	879712	REC_EVENT	3320.0	n/a	5	3	PIT	PASS	MOUTH	PIT	3	[0, 0, 0]	-999	PAL1	0	R1100D
475.624	0.009	882438	REC_END	n/a	n/a	5	-999	n/a	n/a	n/a	n/a	3	[0, 0, 0]	-999	PAL1	0	R1100D
475.633	0.275	882452	TEST_ORIENT	n/a	n/a	2	4	MOUSE	WALL	MOUSE	WALL	3	[0, 0, 0]	-999	PAL1	0	R1100D
476.583	4.0	883972	TEST_PROBE	n/a	wordpools/wordpool_EN.txt	2	4	MOUSE	WALL	MOUSE	WALL	3	[0, 0, 0]	-999	PAL1	0	R1100D
476.584	1.918	883974	REC_START	n/a	n/a	2	-999	n/a	WALL	n/a	n/a	3	[0, 0, 0]	-999	PAL1	0	R1100D
478.502	3.09	887042	REC_EVENT	1918.0	n/a	2	4	MOUSE	WALL	MOUSE	WALL	3	[0, 0, 0]	-999	PAL1	0	R1100D
481.592	0.009	891986	REC_END	n/a	n/a	2	-999	n/a	n/a	n/a	n/a	3	[0, 0, 0]	-999	PAL1	0	R1100D
481.601	0.275	892001	TEST_ORIENT	n/a	n/a	1	5	BENCH	PASS	BENCH	VASE	3	[0, 0, 0]	-999	PAL1	0	R1100D
482.484	4.0	893413	TEST_PROBE	n/a	wordpools/wordpool_EN.txt	1	5	BENCH	PASS	BENCH	VASE	3	[0, 0, 0]	-999	PAL1	0	R1100D
482.485	3.657	893415	REC_START	n/a	n/a	1	-999	n/a	PASS	n/a	n/a	3	[0, 0, 0]	-999	PAL1	0	R1100D
486.142	1.351	899266	REC_EVENT	3657.0	n/a	1	5	BENCH	PASS	BENCH	VASE	3	[0, 0, 0]	-999	PAL1	0	R1100D
487.493	0.009	901427	REC_END	n/a	n/a	1	-999	n/a	n/a	n/a	n/a	3	[0, 0, 0]	-999	PAL1	0	R1100D
487.502	0.275	901442	TEST_ORIENT	n/a	n/a	6	6	ZOO	PASS	ZOO	LEAF	3	[0, 0, 0]	-999	PAL1	0	R1100D
488.469	4.0	902989	TEST_PROBE	n/a	wordpools/wordpool_EN.txt	6	6	ZOO	PASS	ZOO	LEAF	3	[0, 0, 0]	-999	PAL1	0	R1100D
488.469	2.449	902989	REC_START	n/a	n/a	6	-999	n/a	PASS	n/a	n/a	3	[0, 0, 0]	-999	PAL1	0	R1100D
490.918	2.568	906907	REC_EVENT	2449.0	n/a	6	6	ZOO	PASS	ZOO	LEAF	3	[0, 0, 0]	-999	PAL1	0	R1100D
493.486	4.553	911016	REC_END	n/a	n/a	6	-999	n/a	n/a	n/a	n/a	3	[0, 0, 0]	-999	PAL1	0	R1100D
498.039	10.45	918300	ENCODING_START	n/a	n/a	0	-999	n/a	n/a	n/a	n/a	4	[0, 0, 0]	-999	PAL1	0	R1100D
508.489	0.275	935019	STUDY_ORIENT	n/a	n/a	1	1	SWORD	CAGE	CAGE	SWORD	4	[0, 0, 0]	-999	PAL1	0	R1100D
509.34	4.0	936381	STUDY_PAIR	n/a	wordpools/wordpool_EN.txt	1	1	SWORD	CAGE	CAGE	SWORD	4	[0, 0, 0]	-999	PAL1	0	R1100D
514.358	0.275	944409	STUDY_ORIENT	n/a	n/a	2	6	BRANCH	CHIN	BRANCH	CHIN	4	[0, 0, 0]	-999	PAL1	0	R1100D
515.291	4.0	945902	STUDY_PAIR	n/a	wordpools/wordpool_EN.txt	2	6	BRANCH	CHIN	BRANCH	CHIN	4	[0, 0, 0]	-999	PAL1	0	R1100D
520.309	0.275	953930	STUDY_ORIENT	n/a	n/a	3	3	GEESE	n/a	ROOM	GEESE	4	[0, 0, 0]	-999	PAL1	0	R1100D
521.309	4.0	955530	STUDY_PAIR	n/a	wordpools/wordpool_EN.txt	3	3	GEESE	n/a	ROOM	GEESE	4	[0, 0, 0]	-999	PAL1	0	R1100D
526.327	0.275	963559	STUDY_ORIENT	n/a	n/a	4	2	TEETH	CROWN	CROWN	TEETH	4	[0, 0, 0]	-999	PAL1	0	R1100D
527.327	4.0	965159	STUDY_PAIR	n/a	wordpools/wordpool_EN.txt	4	2	TEETH	CROWN	CROWN	TEETH	4	[0, 0, 0]	-999	PAL1	0	R1100D
532.361	0.275	973213	STUDY_ORIENT	n/a	n/a	5	5	BED	PASS	MILK	BED	4	[0, 0, 0]	-999	PAL1	0	R1100D
533.378	4.0	974840	STUDY_PAIR	n/a	wordpools/wordpool_EN.txt	5	5	BED	PASS	MILK	BED	4	[0, 0, 0]	-999	PAL1	0	R1100D
538.396	0.275	982868	STUDY_ORIENT	n/a	n/a	6	4	HEN	PASS	ROSE	HEN	4	[0, 0, 0]	-999	PAL1	0	R1100D
539.179	4.0	984121	STUDY_PAIR	n/a	wordpools/wordpool_EN.txt	6	4	HEN	PASS	ROSE	HEN	4	[0, 0, 0]	-999	PAL1	0	R1100D
543.18	1.0	990522	START	n/a	n/a	-999	-999	n/a	n/a	n/a	n/a	4	[-999, -999, -999]	-999	PAL1	0	R1100D
544.18	0.017	992122	MATH_START	n/a	n/a	-999	-999	n/a	n/a	n/a	n/a	4	[0, 0, 0]	-999	PAL1	0	R1100D
544.197	3.316	992149	PROB	3281.0	n/a	-999	-999	n/a	n/a	n/a	n/a	4	[2, 8, 2]	12	PAL1	0	R1100D
547.513	3.852	997455	PROB	3822.0	n/a	-999	-999	n/a	n/a	n/a	n/a	4	[5, 9, 5]	19	PAL1	0	R1100D
551.365	4.25	1003618	PROB	4217.0	n/a	-999	-999	n/a	n/a	n/a	n/a	4	[8, 6, 3]	17	PAL1	0	R1100D
555.615	2.501	1010417	PROB	2472.0	n/a	-999	-999	n/a	n/a	n/a	n/a	4	[9, 1, 1]	11	PAL1	0	R1100D
558.116	6.187	1014419	PROB	6187.0	n/a	-999	-999	n/a	n/a	n/a	n/a	4	[9, 1, 5]	15	PAL1	0	R1100D
564.303	0.014	1024317	STOP	n/a	n/a	-999	-999	n/a	n/a	n/a	n/a	4	[-999, -999, -999]	-999	PAL1	0	R1100D
564.317	0.0	1024340	MATH_END	n/a	n/a	-999	-999	n/a	n/a	n/a	n/a	4	[0, 0, 0]	-999	PAL1	0	R1100D
564.317	0.017	1024340	TEST_START	n/a	n/a	-999	-999	n/a	n/a	n/a	n/a	4	[0, 0, 0]	-999	PAL1	0	R1100D
564.334	0.275	1024367	TEST_ORIENT	n/a	n/a	1	1	SWORD	CAGE	CAGE	SWORD	4	[0, 0, 0]	-999	PAL1	0	R1100D
565.151	4.0	1025674	TEST_PROBE	n/a	wordpools/wordpool_EN.txt	1	1	SWORD	CAGE	CAGE	SWORD	4	[0, 0, 0]	-999	PAL1	0	R1100D
565.152	1.647	1025676	REC_START	n/a	n/a	1	-999	n/a	CAGE	n/a	n/a	4	[0, 0, 0]	-999	PAL1	0	R1100D
566.799	3.378	1028311	REC_EVENT	1647.0	n/a	1	1	SWORD	CAGE	CAGE	SWORD	4	[0, 0, 0]	-999	PAL1	0	R1100D
570.177	0.008	1033715	REC_END	n/a	n/a	1	-999	n/a	n/a	n/a	n/a	4	[0, 0, 0]	-999	PAL1	0	R1100D
570.185	0.275	1033728	TEST_ORIENT	n/a	n/a	4	2	TEETH	CROWN	CROWN	TEETH	4	[0, 0, 0]	-999	PAL1	0	R1100D
571.169	0.0	1035303	REC_START	n/a	n/a	4	-999	n/a	CROWN	n/a	n/a	4	[0, 0, 0]	-999	PAL1	0	R1100D
571.169	4.0	1035303	TEST_PROBE	n/a	wordpools/wordpool_EN.txt	4	2	TEETH	CROWN	CROWN	TEETH	4	[0, 0, 0]	-999	PAL1	0	R1100D
572.578	3.608	1037557	REC_EVENT	1409.0	n/a	4	2	TEETH	CROWN	CROWN	TEETH	4	[0, 0, 0]	-999	PAL1	0	R1100D
576.186	0.017	1043329	REC_END	n/a	n/a	4	-999	n/a	n/a	n/a	n/a	4	[0, 0, 0]	-999	PAL1	0	R1100D
576.203	0.275	1043357	TEST_ORIENT	n/a	n/a	3	3	GEESE	n/a	ROOM	GEESE	4	[0, 0, 0]	-999	PAL1	0	R1100D
577.203	4.0	1044956	TEST_PROBE	n/a	wordpools/wordpool_EN.txt	3	3	GEESE	n/a	ROOM	GEESE	4	[0, 0, 0]	-999	PAL1	0	R1100D
577.203	5.015	1044956	REC_START	n/a	n/a	3	-999	n/a	n/a	n/a	n/a	4	[0, 0, 0]	-999	PAL1	0	R1100D
582.218	0.002	1052980	REC_EVENT	5015.0	n/a	3	3	GEESE	<>	ROOM	GEESE	4	[0, 0, 0]	-999	PAL1	0	R1100D
582.22	0.017	1052983	REC_END	n/a	n/a	3	-999	n/a	n/a	n/a	n/a	4	[0, 0, 0]	-999	PAL1	0	R1100D
582.237	0.275	1053010	TEST_ORIENT	n/a	n/a	6	4	HEN	PASS	ROSE	HEN	4	[0, 0, 0]	-999	PAL1	0	R1100D
583.171	4.0	1054505	TEST_PROBE	n/a	wordpools/wordpool_EN.txt	6	4	HEN	PASS	ROSE	HEN	4	[0, 0, 0]	-999	PAL1	0	R1100D
583.171	3.471	1054505	REC_START	n/a	n/a	6	-999	n/a	PASS	n/a	n/a	4	[0, 0, 0]	-999	PAL1	0	R1100D
586.642	1.546	1060058	REC_EVENT	3471.0	n/a	6	4	HEN	PASS	ROSE	HEN	4	[0, 0, 0]	-999	PAL1	0	R1100D
588.188	0.017	1062532	REC_END	n/a	n/a	6	-999	n/a	n/a	n/a	n/a	4	[0, 0, 0]	-999	PAL1	0	R1100D
588.205	0.275	1062559	TEST_ORIENT	n/a	n/a	5	5	BED	PASS	MILK	BED	4	[0, 0, 0]	-999	PAL1	0	R1100D
589.189	4.0	1064133	TEST_PROBE	n/a	wordpools/wordpool_EN.txt	5	5	BED	PASS	MILK	BED	4	[0, 0, 0]	-999	PAL1	0	R1100D
589.189	4.054	1064133	REC_START	n/a	n/a	5	-999	n/a	PASS	n/a	n/a	4	[0, 0, 0]	-999	PAL1	0	R1100D
593.243	0.963	1070619	REC_EVENT	4054.0	n/a	5	5	BED	PASS	MILK	BED	4	[0, 0, 0]	-999	PAL1	0	R1100D
594.206	0.017	1072160	REC_END	n/a	n/a	5	-999	n/a	n/a	n/a	n/a	4	[0, 0, 0]	-999	PAL1	0	R1100D
594.223	0.275	1072187	TEST_ORIENT	n/a	n/a	2	6	BRANCH	CHIN	BRANCH	CHIN	4	[0, 0, 0]	-999	PAL1	0	R1100D
595.19	4.0	1073734	TEST_PROBE	n/a	wordpools/wordpool_EN.txt	2	6	BRANCH	CHIN	BRANCH	CHIN	4	[0, 0, 0]	-999	PAL1	0	R1100D
595.19	1.562	1073734	REC_START	n/a	n/a	2	-999	n/a	CHIN	n/a	n/a	4	[0, 0, 0]	-999	PAL1	0	R1100D
596.752	3.455	1076233	REC_EVENT	1562.0	n/a	2	6	BRANCH	CHIN	BRANCH	CHIN	4	[0, 0, 0]	-999	PAL1	0	R1100D
600.207	4.216	1081761	REC_END	n/a	n/a	2	-999	n/a	n/a	n/a	n/a	4	[0, 0, 0]	-999	PAL1	0	R1100D
604.423	10.454	1088506	ENCODING_START	n/a	n/a	0	-999	n/a	n/a	n/a	n/a	5	[0, 0, 0]	-999	PAL1	0	R1100D
614.877	0.275	1105232	STUDY_ORIENT	n/a	n/a	1	5	ROPE	n/a	COW	ROPE	5	[0, 0, 0]	-999	PAL1	0	R1100D
615.81	4.0	1106725	STUDY_PAIR	n/a	wordpools/wordpool_EN.txt	1	5	ROPE	n/a	COW	ROPE	5	[0, 0, 0]	-999	PAL1	0	R1100D
620.828	0.275	1114753	STUDY_ORIENT	n/a	n/a	2	2	SINK	n/a	SINK	HILL	5	[0, 0, 0]	-999	PAL1	0	R1100D
621.61	4.0	1116004	STUDY_PAIR	n/a	wordpools/wordpool_EN.txt	2	2	SINK	n/a	SINK	HILL	5	[0, 0, 0]	-999	PAL1	0	R1100D
626.628	0.275	1124033	STUDY_ORIENT	n/a	n/a	3	1	WING	PASS	WING	JAR	5	[0, 0, 0]	-999	PAL1	0	R1100D
627.495	4.0	1125420	STUDY_PAIR	n/a	wordpools/wordpool_EN.txt	3	1	WING	PASS	WING	JAR	5	[0, 0, 0]	-999	PAL1	0	R1100D
632.529	0.275	1133474	STUDY_ORIENT	n/a	n/a	4	4	KITE	n/a	KITE	DRUM	5	[0, 0, 0]	-999	PAL1	0	R1100D
633.363	4.0	1134808	STUDY_PAIR	n/a	wordpools/wordpool_EN.txt	4	4	KITE	n/a	KITE	DRUM	5	[0, 0, 0]	-999	PAL1	0	R1100D
638.381	0.275	1142837	STUDY_ORIENT	n/a	n/a	5	3	JET	n/a	JET	SHARK	5	[0, 0, 0]	-999	PAL1	0	R1100D
639.348	4.0	1144384	STUDY_PAIR	n/a	wordpools/wordpool_EN.txt	5	3	JET	n/a	JET	SHARK	5	[0, 0, 0]	-999	PAL1	0	R1100D
644.382	0.275	1152438	STUDY_ORIENT	n/a	n/a	6	6	SKY	PEARL	PEARL	SKY	5	[0, 0, 0]	-999	PAL1	0	R1100D
645.199	4.0	1153745	STUDY_PAIR	n/a	wordpools/wordpool_EN.txt	6	6	SKY	PEARL	PEARL	SKY	5	[0, 0, 0]	-999	PAL1	0	R1100D
649.217	0.999	1160173	START	n/a	n/a	-999	-999	n/a	n/a	n/a	n/a	5	[-999, -999, -999]	-999	PAL1	0	R1100D
650.216	0.017	1161772	MATH_START	n/a	n/a	-999	-999	n/a	n/a	n/a	n/a	5	[0, 0, 0]	-999	PAL1	0	R1100D
650.233	3.768	1161799	PROB	3734.0	n/a	-999	-999	n/a	n/a	n/a	n/a	5	[2, 3, 7]	12	PAL1	0	R1100D
654.001	4.067	1167827	PROB	4046.0	n/a	-999	-999	n/a	n/a	n/a	n/a	5	[7, 5, 2]	14	PAL1	0	R1100D
658.068	4.184	1174334	PROB	4155.0	n/a	-999	-999	n/a	n/a	n/a	n/a	5	[6, 8, 6]	20	PAL1	0	R1100D
662.252	3.534	1181028	PROB	3507.0	n/a	-999	-999	n/a	n/a	n/a	n/a	5	[4, 5, 4]	13	PAL1	0	R1100D
665.786	3.301	1186682	PROB	3277.0	n/a	-999	-999	n/a	n/a	n/a	n/a	5	[3, 6, 4]	13	PAL1	0	R1100D
669.087	3.8	1191964	PROB	3800.0	n/a	-999	-999	n/a	n/a	n/a	n/a	5	[6, 8, 4]	18	PAL1	0	R1100D
672.887	0.017	1198043	STOP	n/a	n/a	-999	-999	n/a	n/a	n/a	n/a	5	[-999, -999, -999]	-999	PAL1	0	R1100D
672.904	0.0	1198071	MATH_END	n/a	n/a	-999	-999	n/a	n/a	n/a	n/a	5	[0, 0, 0]	-999	PAL1	0	R1100D
672.904	0.017	1198071	TEST_START	n/a	n/a	-999	-999	n/a	n/a	n/a	n/a	5	[0, 0, 0]	-999	PAL1	0	R1100D
672.921	0.275	1198098	TEST_ORIENT	n/a	n/a	3	1	WING	PASS	WING	JAR	5	[0, 0, 0]	-999	PAL1	0	R1100D
673.954	4.0	1199751	TEST_PROBE	n/a	wordpools/wordpool_EN.txt	3	1	WING	PASS	WING	JAR	5	[0, 0, 0]	-999	PAL1	0	R1100D
673.955	3.176	1199752	REC_START	n/a	n/a	3	-999	n/a	PASS	n/a	n/a	5	[0, 0, 0]	-999	PAL1	0	R1100D
677.131	1.824	1204834	REC_EVENT	3176.0	n/a	3	1	WING	PASS	WING	JAR	5	[0, 0, 0]	-999	PAL1	0	R1100D
678.955	0.017	1207752	REC_END	n/a	n/a	3	-999	n/a	n/a	n/a	n/a	5	[0, 0, 0]	-999	PAL1	0	R1100D
678.972	0.275	1207779	TEST_ORIENT	n/a	n/a	2	2	SINK	n/a	SINK	HILL	5	[0, 0, 0]	-999	PAL1	0	R1100D
679.939	4.0	1209326	TEST_PROBE	n/a	wordpools/wordpool_EN.txt	2	2	SINK	n/a	SINK	HILL	5	[0, 0, 0]	-999	PAL1	0	R1100D
679.939	5.015	1209326	REC_START	n/a	n/a	2	-999	n/a	n/a	n/a	n/a	5	[0, 0, 0]	-999	PAL1	0	R1100D
684.954	0.002	1217350	REC_EVENT	5015.0	n/a	2	2	SINK	<>	SINK	HILL	5	[0, 0, 0]	-999	PAL1	0	R1100D
684.956	0.017	1217353	REC_END	n/a	n/a	2	-999	n/a	n/a	n/a	n/a	5	[0, 0, 0]	-999	PAL1	0	R1100D
684.973	0.275	1217380	TEST_ORIENT	n/a	n/a	5	3	JET	n/a	JET	SHARK	5	[0, 0, 0]	-999	PAL1	0	R1100D
685.807	4.0	1218714	TEST_PROBE	n/a	wordpools/wordpool_EN.txt	5	3	JET	n/a	JET	SHARK	5	[0, 0, 0]	-999	PAL1	0	R1100D
685.807	0.79	1218714	REC_START	n/a	n/a	5	-999	n/a	n/a	n/a	n/a	5	[0, 0, 0]	-999	PAL1	0	R1100D
686.597	4.236	1219978	REC_EVENT	790.0	n/a	5	3	JET	<>	JET	SHARK	5	[0, 0, 0]	-999	PAL1	0	R1100D
690.833	0.008	1226756	REC_END	n/a	n/a	5	-999	n/a	n/a	n/a	n/a	5	[0, 0, 0]	-999	PAL1	0	R1100D
690.841	0.275	1226768	TEST_ORIENT	n/a	n/a	4	4	KITE	n/a	KITE	DRUM	5	[0, 0, 0]	-999	PAL1	0	R1100D
691.708	4.0	1228156	TEST_PROBE	n/a	wordpools/wordpool_EN.txt	4	4	KITE	n/a	KITE	DRUM	5	[0, 0, 0]	-999	PAL1	0	R1100D
691.708	5.015	1228156	REC_START	n/a	n/a	4	-999	n/a	n/a	n/a	n/a	5	[0, 0, 0]	-999	PAL1	0	R1100D
696.723	0.002	1236179	REC_EVENT	5015.0	n/a	4	4	KITE	<>	KITE	DRUM	5	[0, 0, 0]	-999	PAL1	0	R1100D
696.725	0.017	1236182	REC_END	n/a	n/a	4	-999	n/a	n/a	n/a	n/a	5	[0, 0, 0]	-999	PAL1	0	R1100D
696.742	0.275	1236210	TEST_ORIENT	n/a	n/a	1	5	ROPE	n/a	COW	ROPE	5	[0, 0, 0]	-999	PAL1	0	R1100D
697.709	4.0	1237757	TEST_PROBE	n/a	wordpools/wordpool_EN.txt	1	5	ROPE	n/a	COW	ROPE	5	[0, 0, 0]	-999	PAL1	0	R1100D
697.709	0.004	1237757	REC_START	n/a	n/a	1	-999	n/a	n/a	n/a	n/a	5	[0, 0, 0]	-999	PAL1	0	R1100D
697.713	5.013	1237763	REC_EVENT	4.0	n/a	1	5	ROPE	<>	COW	ROPE	5	[0, 0, 0]	-999	PAL1	0	R1100D
702.726	0.017	1245784	REC_END	n/a	n/a	1	-999	n/a	n/a	n/a	n/a	5	[0, 0, 0]	-999	PAL1	0	R1100D
702.743	0.275	1245811	TEST_ORIENT	n/a	n/a	6	6	SKY	PEARL	PEARL	SKY	5	[0, 0, 0]	-999	PAL1	0	R1100D
703.609	4.0	1247196	TEST_PROBE	n/a	wordpools/wordpool_EN.txt	6	6	SKY	PEARL	PEARL	SKY	5	[0, 0, 0]	-999	PAL1	0	R1100D
703.609	4.27	1247196	REC_START	n/a	n/a	6	-999	n/a	PEARL	n/a	n/a	5	[0, 0, 0]	-999	PAL1	0	R1100D
707.879	0.747	1254028	REC_EVENT	4270.0	n/a	6	6	SKY	PEARL	PEARL	SKY	5	[0, 0, 0]	-999	PAL1	0	R1100D
708.626	31.477	1255223	REC_END	n/a	n/a	6	-999	n/a	n/a	n/a	n/a	5	[0, 0, 0]	-999	PAL1	0	R1100D
740.103	10.448	1305584	ENCODING_START	n/a	n/a	0	-999	n/a	n/a	n/a	n/a	6	[0, 0, 0]	-999	PAL1	0	R1100D
750.551	0.275	1322300	STUDY_ORIENT	n/a	n/a	1	1	HOOF	HALL	HOOF	HAT	6	[0, 0, 0]	-999	PAL1	0	R1100D
751.319	4.0	1323529	STUDY_PAIR	n/a	wordpools/wordpool_EN.txt	1	1	HOOF	HALL	HOOF	HAT	6	[0, 0, 0]	-999	PAL1	0	R1100D
756.353	0.275	1331583	STUDY_ORIENT	n/a	n/a	2	2	BLOOM	GLASS	GLASS	BLOOM	6	[0, 0, 0]	-999	PAL1	0	R1100D
757.153	4.0	1332863	STUDY_PAIR	n/a	wordpools/wordpool_EN.txt	2	2	BLOOM	GLASS	GLASS	BLOOM	6	[0, 0, 0]	-999	PAL1	0	R1100D
762.171	0.275	1340891	STUDY_ORIENT	n/a	n/a	3	3	OAR	PASS	DOLL	OAR	6	[0, 0, 0]	-999	PAL1	0	R1100D
762.988	4.0	1342198	STUDY_PAIR	n/a	wordpools/wordpool_EN.txt	3	3	OAR	PASS	DOLL	OAR	6	[0, 0, 0]	-999	PAL1	0	R1100D
768.022	0.275	1350252	STUDY_ORIENT	n/a	n/a	4	6	TOAD	n/a	BRIDGE	TOAD	6	[0, 0, 0]	-999	PAL1	0	R1100D
768.922	4.0	1351692	STUDY_PAIR	n/a	wordpools/wordpool_EN.txt	4	6	TOAD	n/a	BRIDGE	TOAD	6	[0, 0, 0]	-999	PAL1	0	R1100D
773.956	0.275	1359746	STUDY_ORIENT	n/a	n/a	5	5	TAIL	PASS	TREE	TAIL	6	[0, 0, 0]	-999	PAL1	0	R1100D
774.823	4.0	1361133	STUDY_PAIR	n/a	wordpools/wordpool_EN.txt	5	5	TAIL	PASS	TREE	TAIL	6	[0, 0, 0]	-999	PAL1	0	R1100D
779.841	0.275	1369162	STUDY_ORIENT	n/a	n/a	6	4	FLAG	PASS	BALL	FLAG	6	[0, 0, 0]	-999	PAL1	0	R1100D
780.791	4.0	1370682	STUDY_PAIR	n/a	wordpools/wordpool_EN.txt	6	4	FLAG	PASS	BALL	FLAG	6	[0, 0, 0]	-999	PAL1	0	R1100D
784.809	0.999	1377110	START	n/a	n/a	-999	-999	n/a	n/a	n/a	n/a	6	[-999, -999, -999]	-999	PAL1	0	R1100D
785.808	0.017	1378708	MATH_START	n/a	n/a	-999	-999	n/a	n/a	n/a	n/a	6	[0, 0, 0]	-999	PAL1	0	R1100D
785.825	4.101	1378736	PROB	4078.0	n/a	-999	-999	n/a	n/a	n/a	n/a	6	[6, 1, 9]	16	PAL1	0	R1100D
789.926	4.017	1385297	PROB	3993.0	n/a	-999	-999	n/a	n/a	n/a	n/a	6	[1, 2, 3]	5	PAL1	0	R1100D
793.943	7.152	1391724	PROB	7128.0	n/a	-999	-999	n/a	n/a	n/a	n/a	6	[5, 9, 8]	22	PAL1	0	R1100D
801.095	3.717	1403166	PROB	3688.0	n/a	-999	-999	n/a	n/a	n/a	n/a	6	[4, 4, 9]	17	PAL1	0	R1100D
804.812	3.291	1409113	PROB	3291.0	n/a	-999	-999	n/a	n/a	n/a	n/a	6	[7, 3, 7]	17	PAL1	0	R1100D
808.103	0.01	1414379	STOP	n/a	n/a	-999	-999	n/a	n/a	n/a	n/a	6	[-999, -999, -999]	-999	PAL1	0	R1100D
808.113	0.0	1414395	MATH_END	n/a	n/a	-999	-999	n/a	n/a	n/a	n/a	6	[0, 0, 0]	-999	PAL1	0	R1100D
808.113	0.016	1414395	TEST_START	n/a	n/a	-999	-999	n/a	n/a	n/a	n/a	6	[0, 0, 0]	-999	PAL1	0	R1100D
808.129	0.275	1414420	TEST_ORIENT	n/a	n/a	1	1	HOOF	HALL	HOOF	HAT	6	[0, 0, 0]	-999	PAL1	0	R1100D
809.146	4.0	1416047	TEST_PROBE	n/a	wordpools/wordpool_EN.txt	1	1	HOOF	HALL	HOOF	HAT	6	[0, 0, 0]	-999	PAL1	0	R1100D
809.147	2.209	1416049	REC_START	n/a	n/a	1	-999	n/a	HALL	n/a	n/a	6	[0, 0, 0]	-999	PAL1	0	R1100D
811.356	2.791	1419583	REC_EVENT	2209.0	n/a	1	1	HOOF	HALL	HOOF	HAT	6	[0, 0, 0]	-999	PAL1	0	R1100D
814.147	0.017	1424049	REC_END	n/a	n/a	1	-999	n/a	n/a	n/a	n/a	6	[0, 0, 0]	-999	PAL1	0	R1100D
814.164	0.275	1424076	TEST_ORIENT	n/a	n/a	2	2	BLOOM	GLASS	GLASS	BLOOM	6	[0, 0, 0]	-999	PAL1	0	R1100D
815.164	4.0	1425676	TEST_PROBE	n/a	wordpools/wordpool_EN.txt	2	2	BLOOM	GLASS	GLASS	BLOOM	6	[0, 0, 0]	-999	PAL1	0	R1100D
815.164	2.243	1425676	REC_START	n/a	n/a	2	-999	n/a	GLASS	n/a	n/a	6	[0, 0, 0]	-999	PAL1	0	R1100D
817.407	2.774	1429264	REC_EVENT	2243.0	n/a	2	2	BLOOM	GLASS	GLASS	BLOOM	6	[0, 0, 0]	-999	PAL1	0	R1100D
820.181	0.017	1433703	REC_END	n/a	n/a	2	-999	n/a	n/a	n/a	n/a	6	[0, 0, 0]	-999	PAL1	0	R1100D
820.198	0.275	1433730	TEST_ORIENT	n/a	n/a	3	3	OAR	PASS	DOLL	OAR	6	[0, 0, 0]	-999	PAL1	0	R1100D
821.165	4.0	1435277	TEST_PROBE	n/a	wordpools/wordpool_EN.txt	3	3	OAR	PASS	DOLL	OAR	6	[0, 0, 0]	-999	PAL1	0	R1100D
821.166	2.581	1435278	REC_START	n/a	n/a	3	-999	n/a	PASS	n/a	n/a	6	[0, 0, 0]	-999	PAL1	0	R1100D
823.747	2.445	1439408	REC_EVENT	2581.0	n/a	3	3	OAR	PASS	DOLL	OAR	6	[0, 0, 0]	-999	PAL1	0	R1100D
826.192	0.007	1443320	REC_END	n/a	n/a	3	-999	n/a	n/a	n/a	n/a	6	[0, 0, 0]	-999	PAL1	0	R1100D
826.199	0.275	1443331	TEST_ORIENT	n/a	n/a	6	4	FLAG	PASS	BALL	FLAG	6	[0, 0, 0]	-999	PAL1	0	R1100D
827.083	4.0	1444745	TEST_PROBE	n/a	wordpools/wordpool_EN.txt	6	4	FLAG	PASS	BALL	FLAG	6	[0, 0, 0]	-999	PAL1	0	R1100D
827.083	3.151	1444745	REC_START	n/a	n/a	6	-999	n/a	PASS	n/a	n/a	6	[0, 0, 0]	-999	PAL1	0	R1100D
830.234	1.866	1449787	REC_EVENT	3151.0	n/a	6	4	FLAG	PASS	BALL	FLAG	6	[0, 0, 0]	-999	PAL1	0	R1100D
832.1	0.017	1452772	REC_END	n/a	n/a	6	-999	n/a	n/a	n/a	n/a	6	[0, 0, 0]	-999	PAL1	0	R1100D
832.117	0.275	1452799	TEST_ORIENT	n/a	n/a	5	5	TAIL	PASS	TREE	TAIL	6	[0, 0, 0]	-999	PAL1	0	R1100D
833.001	0.0	1454214	REC_START	n/a	n/a	5	-999	n/a	PASS	n/a	n/a	6	[0, 0, 0]	-999	PAL1	0	R1100D
833.001	4.0	1454214	TEST_PROBE	n/a	wordpools/wordpool_EN.txt	5	5	TAIL	PASS	TREE	TAIL	6	[0, 0, 0]	-999	PAL1	0	R1100D
837.431	0.587	1461301	REC_EVENT	4430.0	n/a	5	5	TAIL	PASS	TREE	TAIL	6	[0, 0, 0]	-999	PAL1	0	R1100D
838.018	0.017	1462240	REC_END	n/a	n/a	5	-999	n/a	n/a	n/a	n/a	6	[0, 0, 0]	-999	PAL1	0	R1100D
838.035	0.275	1462268	TEST_ORIENT	n/a	n/a	4	6	TOAD	n/a	BRIDGE	TOAD	6	[0, 0, 0]	-999	PAL1	0	R1100D
838.885	4.0	1463627	TEST_PROBE	n/a	wordpools/wordpool_EN.txt	4	6	TOAD	n/a	BRIDGE	TOAD	6	[0, 0, 0]	-999	PAL1	0	R1100D
838.885	5.015	1463627	REC_START	n/a	n/a	4	-999	n/a	n/a	n/a	n/a	6	[0, 0, 0]	-999	PAL1	0	R1100D
843.9	0.003	1471651	REC_EVENT	5015.0	n/a	4	6	TOAD	<>	BRIDGE	TOAD	6	[0, 0, 0]	-999	PAL1	0	R1100D
843.903	23.872	1471656	REC_END	n/a	n/a	4	-999	n/a	n/a	n/a	n/a	6	[0, 0, 0]	-999	PAL1	0	R1100D
867.775	10.451	1509849	ENCODING_START	n/a	n/a	0	-999	n/a	n/a	n/a	n/a	7	[0, 0, 0]	-999	PAL1	0	R1100D
878.226	0.275	1526570	STUDY_ORIENT	n/a	n/a	1	3	MAP	n/a	MAP	PURSE	7	[0, 0, 0]	-999	PAL1	0	R1100D
879.176	4.0	1528090	STUDY_PAIR	n/a	wordpools/wordpool_EN.txt	1	3	MAP	n/a	MAP	PURSE	7	[0, 0, 0]	-999	PAL1	0	R1100D
884.21	0.275	1536144	STUDY_ORIENT	n/a	n/a	2	6	DART	SWEEP	DART	SHEEP	7	[0, 0, 0]	-999	PAL1	0	R1100D
885.144	4.0	1537638	STUDY_PAIR	n/a	wordpools/wordpool_EN.txt	2	6	DART	SWEEP	DART	SHEEP	7	[0, 0, 0]	-999	PAL1	0	R1100D
890.178	0.275	1545692	STUDY_ORIENT	n/a	n/a	3	1	STEAK	n/a	RUG	STEAK	7	[0, 0, 0]	-999	PAL1	0	R1100D
891.195	4.0	1547319	STUDY_PAIR	n/a	wordpools/wordpool_EN.txt	3	1	STEAK	n/a	RUG	STEAK	7	[0, 0, 0]	-999	PAL1	0	R1100D
896.229	0.275	1555373	STUDY_ORIENT	n/a	n/a	4	2	BOARD	GUARD	BOARD	GUARD	7	[0, 0, 0]	-999	PAL1	0	R1100D
897.046	4.0	1556681	STUDY_PAIR	n/a	wordpools/wordpool_EN.txt	4	2	BOARD	GUARD	BOARD	GUARD	7	[0, 0, 0]	-999	PAL1	0	R1100D
902.08	0.275	1564735	STUDY_ORIENT	n/a	n/a	5	5	DESK	n/a	DESK	ANT	7	[0, 0, 0]	-999	PAL1	0	R1100D
903.08	4.0	1566335	STUDY_PAIR	n/a	wordpools/wordpool_EN.txt	5	5	DESK	n/a	DESK	ANT	7	[0, 0, 0]	-999	PAL1	0	R1100D
908.098	0.275	1574363	STUDY_ORIENT	n/a	n/a	6	4	SWAMP	n/a	SWAMP	SNOW	7	[0, 0, 0]	-999	PAL1	0	R1100D
908.948	4.0	1575723	STUDY_PAIR	n/a	wordpools/wordpool_EN.txt	6	4	SWAMP	n/a	SWAMP	SNOW	7	[0, 0, 0]	-999	PAL1	0	R1100D
912.949	1.0	1582124	START	n/a	n/a	-999	-999	n/a	n/a	n/a	n/a	7	[-999, -999, -999]	-999	PAL1	0	R1100D
913.949	0.017	1583724	MATH_START	n/a	n/a	-999	-999	n/a	n/a	n/a	n/a	7	[0, 0, 0]	-999	PAL1	0	R1100D
913.966	4.5	1583751	PROB	4472.0	n/a	-999	-999	n/a	n/a	n/a	n/a	7	[4, 2, 4]	10	PAL1	0	R1100D
918.466	3.868	1590951	PROB	3837.0	n/a	-999	-999	n/a	n/a	n/a	n/a	7	[8, 1, 9]	18	PAL1	0	R1100D
922.334	4.501	1597139	PROB	4481.0	n/a	-999	-999	n/a	n/a	n/a	n/a	7	[4, 2, 2]	8	PAL1	0	R1100D
926.835	3.567	1604341	PROB	3548.0	n/a	-999	-999	n/a	n/a	n/a	n/a	7	[5, 7, 8]	20	PAL1	0	R1100D
930.402	3.325	1610048	PROB	3325.0	n/a	-999	-999	n/a	n/a	n/a	n/a	7	[9, 2, 7]	18	PAL1	0	R1100D
933.727	0.009	1615367	STOP	n/a	n/a	-999	-999	n/a	n/a	n/a	n/a	7	[-999, -999, -999]	-999	PAL1	0	R1100D
933.736	0.0	1615382	MATH_END	n/a	n/a	-999	-999	n/a	n/a	n/a	n/a	7	[0, 0, 0]	-999	PAL1	0	R1100D
933.736	0.017	1615382	TEST_START	n/a	n/a	-999	-999	n/a	n/a	n/a	n/a	7	[0, 0, 0]	-999	PAL1	0	R1100D
933.753	0.275	1615409	TEST_ORIENT	n/a	n/a	3	1	STEAK	n/a	RUG	STEAK	7	[0, 0, 0]	-999	PAL1	0	R1100D
934.602	4.0	1616767	TEST_PROBE	n/a	wordpools/wordpool_EN.txt	3	1	STEAK	n/a	RUG	STEAK	7	[0, 0, 0]	-999	PAL1	0	R1100D
934.603	5.032	1616769	REC_START	n/a	n/a	3	-999	n/a	n/a	n/a	n/a	7	[0, 0, 0]	-999	PAL1	0	R1100D
939.635	0.001	1624820	REC_EVENT	5032.0	n/a	3	1	STEAK	<>	RUG	STEAK	7	[0, 0, 0]	-999	PAL1	0	R1100D
939.636	0.018	1624821	REC_END	n/a	n/a	3	-999	n/a	n/a	n/a	n/a	7	[0, 0, 0]	-999	PAL1	0	R1100D
939.654	0.275	1624850	TEST_ORIENT	n/a	n/a	4	2	BOARD	GUARD	BOARD	GUARD	7	[0, 0, 0]	-999	PAL1	0	R1100D
940.503	4.0	1626208	TEST_PROBE	n/a	wordpools/wordpool_EN.txt	4	2	BOARD	GUARD	BOARD	GUARD	7	[0, 0, 0]	-999	PAL1	0	R1100D
940.503	1.39	1626208	REC_START	n/a	n/a	4	-999	n/a	GUARD	n/a	n/a	7	[0, 0, 0]	-999	PAL1	0	R1100D
941.893	3.627	1628432	REC_EVENT	1390.0	n/a	4	2	BOARD	GUARD	BOARD	GUARD	7	[0, 0, 0]	-999	PAL1	0	R1100D
945.52	0.017	1634235	REC_END	n/a	n/a	4	-999	n/a	n/a	n/a	n/a	7	[0, 0, 0]	-999	PAL1	0	R1100D
945.537	0.275	1634262	TEST_ORIENT	n/a	n/a	1	3	MAP	n/a	MAP	PURSE	7	[0, 0, 0]	-999	PAL1	0	R1100D
946.554	4.0	1635890	TEST_PROBE	n/a	wordpools/wordpool_EN.txt	1	3	MAP	n/a	MAP	PURSE	7	[0, 0, 0]	-999	PAL1	0	R1100D
946.555	5.016	1635891	REC_START	n/a	n/a	1	-999	n/a	n/a	n/a	n/a	7	[0, 0, 0]	-999	PAL1	0	R1100D
951.571	0.005	1643916	REC_END	n/a	n/a	1	-999	n/a	n/a	n/a	n/a	7	[0, 0, 0]	-999	PAL1	0	R1100D
951.576	0.013	1643924	REC_EVENT	5021.0	n/a	1	3	MAP	<>	MAP	PURSE	7	[0, 0, 0]	-999	PAL1	0	R1100D
951.589	0.275	1643945	TEST_ORIENT	n/a	n/a	6	4	SWAMP	n/a	SWAMP	SNOW	7	[0, 0, 0]	-999	PAL1	0	R1100D
952.406	4.0	1645252	TEST_PROBE	n/a	wordpools/wordpool_EN.txt	6	4	SWAMP	n/a	SWAMP	SNOW	7	[0, 0, 0]	-999	PAL1	0	R1100D
952.407	5.011	1645254	REC_START	n/a	n/a	6	-999	n/a	n/a	n/a	n/a	7	[0, 0, 0]	-999	PAL1	0	R1100D
957.418	0.004	1653271	REC_END	n/a	n/a	6	-999	n/a	n/a	n/a	n/a	7	[0, 0, 0]	-999	PAL1	0	R1100D
957.422	0.018	1653278	REC_EVENT	5015.0	n/a	6	4	SWAMP	<>	SWAMP	SNOW	7	[0, 0, 0]	-999	PAL1	0	R1100D
957.44	0.275	1653306	TEST_ORIENT	n/a	n/a	5	5	DESK	n/a	DESK	ANT	7	[0, 0, 0]	-999	PAL1	0	R1100D
958.357	4.0	1654773	TEST_PROBE	n/a	wordpools/wordpool_EN.txt	5	5	DESK	n/a	DESK	ANT	7	[0, 0, 0]	-999	PAL1	0	R1100D
958.358	4.998	1654775	REC_START	n/a	n/a	5	-999	n/a	n/a	n/a	n/a	7	[0, 0, 0]	-999	PAL1	0	R1100D
963.356	0.002	1662771	REC_EVENT	4998.0	n/a	5	5	DESK	<>	DESK	ANT	7	[0, 0, 0]	-999	PAL1	0	R1100D
963.358	0.017	1662775	REC_END	n/a	n/a	5	-999	n/a	n/a	n/a	n/a	7	[0, 0, 0]	-999	PAL1	0	R1100D
963.375	0.275	1662802	TEST_ORIENT	n/a	n/a	2	6	DART	SWEEP	DART	SHEEP	7	[0, 0, 0]	-999	PAL1	0	R1100D
964.275	4.0	1664242	TEST_PROBE	n/a	wordpools/wordpool_EN.txt	2	6	DART	SWEEP	DART	SHEEP	7	[0, 0, 0]	-999	PAL1	0	R1100D
964.276	2.254	1664243	REC_START	n/a	n/a	2	-999	n/a	SWEEP	n/a	n/a	7	[0, 0, 0]	-999	PAL1	0	R1100D
966.53	2.772	1667850	REC_EVENT	2254.0	n/a	2	6	DART	SWEEP	DART	SHEEP	7	[0, 0, 0]	-999	PAL1	0	R1100D
969.302	8.425	1672285	REC_END	n/a	n/a	2	-999	n/a	n/a	n/a	n/a	7	[0, 0, 0]	-999	PAL1	0	R1100D
977.727	10.453	1685764	ENCODING_START	n/a	n/a	0	-999	n/a	n/a	n/a	n/a	8	[0, 0, 0]	-999	PAL1	0	R1100D
988.18	0.275	1702488	STUDY_ORIENT	n/a	n/a	1	5	CUP	n/a	CUP	GRASS	8	[0, 0, 0]	-999	PAL1	0	R1100D
989.13	4.0	1704008	STUDY_PAIR	n/a	wordpools/wordpool_EN.txt	1	5	CUP	n/a	CUP	GRASS	8	[0, 0, 0]	-999	PAL1	0	R1100D
994.164	0.275	1712062	STUDY_ORIENT	n/a	n/a	2	2	FOX	TIE	TIE	FOX	8	[0, 0, 0]	-999	PAL1	0	R1100D
994.998	4.0	1713396	STUDY_PAIR	n/a	wordpools/wordpool_EN.txt	2	2	FOX	TIE	TIE	FOX	8	[0, 0, 0]	-999	PAL1	0	R1100D
1000.032	0.275	1721450	STUDY_ORIENT	n/a	n/a	3	3	CUBE	PASS	SOUP	CUBE	8	[0, 0, 0]	-999	PAL1	0	R1100D
1000.965	4.0	1722943	STUDY_PAIR	n/a	wordpools/wordpool_EN.txt	3	3	CUBE	PASS	SOUP	CUBE	8	[0, 0, 0]	-999	PAL1	0	R1100D
1005.983	0.275	1730971	STUDY_ORIENT	n/a	n/a	4	4	STREET	TRUCK	TRUCK	STREET	8	[0, 0, 0]	-999	PAL1	0	R1100D
1006.833	4.0	1732331	STUDY_PAIR	n/a	wordpools/wordpool_EN.txt	4	4	STREET	TRUCK	TRUCK	STREET	8	[0, 0, 0]	-999	PAL1	0	R1100D
1011.867	0.275	1740385	STUDY_ORIENT	n/a	n/a	5	1	CLAY	SPOON	CLAY	SPOON	8	[0, 0, 0]	-999	PAL1	0	R1100D
1012.734	4.0	1741772	STUDY_PAIR	n/a	wordpools/wordpool_EN.txt	5	1	CLAY	SPOON	CLAY	SPOON	8	[0, 0, 0]	-999	PAL1	0	R1100D
1017.752	0.275	1749801	STUDY_ORIENT	n/a	n/a	6	6	POND	PASS	POND	CASH	8	[0, 0, 0]	-999	PAL1	0	R1100D
1018.601	4.0	1751159	STUDY_PAIR	n/a	wordpools/wordpool_EN.txt	6	6	POND	PASS	POND	CASH	8	[0, 0, 0]	-999	PAL1	0	R1100D
1022.619	0.999	1757588	START	n/a	n/a	-999	-999	n/a	n/a	n/a	n/a	8	[-999, -999, -999]	-999	PAL1	0	R1100D
1023.618	0.017	1759186	MATH_START	n/a	n/a	-999	-999	n/a	n/a	n/a	n/a	8	[0, 0, 0]	-999	PAL1	0	R1100D
1023.635	4.052	1759213	PROB	4028.0	n/a	-999	-999	n/a	n/a	n/a	n/a	8	[4, 8, 6]	18	PAL1	0	R1100D
1027.687	2.734	1765696	PROB	2704.0	n/a	-999	-999	n/a	n/a	n/a	n/a	8	[4, 1, 3]	8	PAL1	0	R1100D
1030.421	4.1	1770070	PROB	4081.0	n/a	-999	-999	n/a	n/a	n/a	n/a	8	[7, 2, 7]	16	PAL1	0	R1100D
1034.521	3.168	1776630	PROB	3142.0	n/a	-999	-999	n/a	n/a	n/a	n/a	8	[9, 6, 5]	16	PAL1	0	R1100D
1037.689	4.667	1781699	PROB	4646.0	n/a	-999	-999	n/a	n/a	n/a	n/a	8	[8, 6, 2]	16	PAL1	0	R1100D
1042.356	5.266	1789165	PROB	5266.0	n/a	-999	-999	n/a	n/a	n/a	n/a	8	[4, 2, 9]	15	PAL1	0	R1100D
1047.622	0.018	1797591	STOP	n/a	n/a	-999	-999	n/a	n/a	n/a	n/a	8	[-999, -999, -999]	-999	PAL1	0	R1100D
1047.64	0.0	1797619	MATH_END	n/a	n/a	-999	-999	n/a	n/a	n/a	n/a	8	[0, 0, 0]	-999	PAL1	0	R1100D
1047.64	0.017	1797619	TEST_START	n/a	n/a	-999	-999	n/a	n/a	n/a	n/a	8	[0, 0, 0]	-999	PAL1	0	R1100D
1047.657	0.275	1797647	TEST_ORIENT	n/a	n/a	5	1	CLAY	SPOON	CLAY	SPOON	8	[0, 0, 0]	-999	PAL1	0	R1100D
1048.59	4.0	1799139	TEST_PROBE	n/a	wordpools/wordpool_EN.txt	5	1	CLAY	SPOON	CLAY	SPOON	8	[0, 0, 0]	-999	PAL1	0	R1100D
1048.591	4.094	1799141	REC_START	n/a	n/a	5	-999	n/a	SPOON	n/a	n/a	8	[0, 0, 0]	-999	PAL1	0	R1100D
1052.685	0.931	1805691	REC_EVENT	4094.0	n/a	5	1	CLAY	SPOON	CLAY	SPOON	8	[0, 0, 0]	-999	PAL1	0	R1100D
1053.616	0.008	1807180	REC_END	n/a	n/a	5	-999	n/a	n/a	n/a	n/a	8	[0, 0, 0]	-999	PAL1	0	R1100D
1053.624	0.275	1807193	TEST_ORIENT	n/a	n/a	2	2	FOX	TIE	TIE	FOX	8	[0, 0, 0]	-999	PAL1	0	R1100D
1054.642	4.0	1808822	TEST_PROBE	n/a	wordpools/wordpool_EN.txt	2	2	FOX	TIE	TIE	FOX	8	[0, 0, 0]	-999	PAL1	0	R1100D
1054.643	1.335	1808824	REC_START	n/a	n/a	2	-999	n/a	TIE	n/a	n/a	8	[0, 0, 0]	-999	PAL1	0	R1100D
1055.978	3.681	1810960	REC_EVENT	1335.0	n/a	2	2	FOX	TIE	TIE	FOX	8	[0, 0, 0]	-999	PAL1	0	R1100D
1059.659	0.017	1816849	REC_END	n/a	n/a	2	-999	n/a	n/a	n/a	n/a	8	[0, 0, 0]	-999	PAL1	0	R1100D
1059.676	0.275	1816876	TEST_ORIENT	n/a	n/a	3	3	CUBE	PASS	SOUP	CUBE	8	[0, 0, 0]	-999	PAL1	0	R1100D
1060.559	0.0	1818289	REC_START	n/a	n/a	3	-999	n/a	PASS	n/a	n/a	8	[0, 0, 0]	-999	PAL1	0	R1100D
1060.559	4.0	1818289	TEST_PROBE	n/a	wordpools/wordpool_EN.txt	3	3	CUBE	PASS	SOUP	CUBE	8	[0, 0, 0]	-999	PAL1	0	R1100D
1063.744	1.832	1823385	REC_EVENT	3185.0	n/a	3	3	CUBE	PASS	SOUP	CUBE	8	[0, 0, 0]	-999	PAL1	0	R1100D
1065.576	0.017	1826316	REC_END	n/a	n/a	3	-999	n/a	n/a	n/a	n/a	8	[0, 0, 0]	-999	PAL1	0	R1100D
1065.593	0.275	1826343	TEST_ORIENT	n/a	n/a	4	4	STREET	TRUCK	TRUCK	STREET	8	[0, 0, 0]	-999	PAL1	0	R1100D
1066.394	4.0	1827624	TEST_PROBE	n/a	wordpools/wordpool_EN.txt	4	4	STREET	TRUCK	TRUCK	STREET	8	[0, 0, 0]	-999	PAL1	0	R1100D
1066.395	2.273	1827626	REC_START	n/a	n/a	4	-999	n/a	TRUCK	n/a	n/a	8	[0, 0, 0]	-999	PAL1	0	R1100D
1068.668	2.737	1831263	REC_EVENT	2273.0	n/a	4	4	STREET	TRUCK	TRUCK	STREET	8	[0, 0, 0]	-999	PAL1	0	R1100D
1071.405	0.006	1835642	REC_END	n/a	n/a	4	-999	n/a	n/a	n/a	n/a	8	[0, 0, 0]	-999	PAL1	0	R1100D
1071.411	0.275	1835651	TEST_ORIENT	n/a	n/a	1	5	CUP	n/a	CUP	GRASS	8	[0, 0, 0]	-999	PAL1	0	R1100D
1072.345	4.0	1837145	TEST_PROBE	n/a	wordpools/wordpool_EN.txt	1	5	CUP	n/a	CUP	GRASS	8	[0, 0, 0]	-999	PAL1	0	R1100D
1072.346	5.009	1837147	REC_START	n/a	n/a	1	-999	n/a	n/a	n/a	n/a	8	[0, 0, 0]	-999	PAL1	0	R1100D
1077.355	0.001	1845161	REC_EVENT	5009.0	n/a	1	5	CUP	<>	CUP	GRASS	8	[0, 0, 0]	-999	PAL1	0	R1100D
1077.356	0.007	1845163	REC_END	n/a	n/a	1	-999	n/a	n/a	n/a	n/a	8	[0, 0, 0]	-999	PAL1	0	R1100D
1077.363	0.275	1845174	TEST_ORIENT	n/a	n/a	6	6	POND	PASS	POND	CASH	8	[0, 0, 0]	-999	PAL1	0	R1100D
1078.33	4.0	1846721	TEST_PROBE	n/a	wordpools/wordpool_EN.txt	6	6	POND	PASS	POND	CASH	8	[0, 0, 0]	-999	PAL1	0	R1100D
1078.33	4.032	1846721	REC_START	n/a	n/a	6	-999	n/a	PASS	n/a	n/a	8	[0, 0, 0]	-999	PAL1	0	R1100D
1082.362	0.994	1853172	REC_EVENT	4032.0	n/a	6	6	POND	PASS	POND	CASH	8	[0, 0, 0]	-999	PAL1	0	R1100D
1083.356	72.226	1854762	REC_END	n/a	n/a	6	-999	n/a	n/a	n/a	n/a	8	[0, 0, 0]	-999	PAL1	0	R1100D
1155.582	10.447	1970318	ENCODING_START	n/a	n/a	0	-999	n/a	n/a	n/a	n/a	9	[0, 0, 0]	-999	PAL1	0	R1100D
1166.029	0.275	1987033	STUDY_ORIENT	n/a	n/a	1	1	BLUSH	PASS	CLOCK	BLUSH	9	[0, 0, 0]	-999	PAL1	0	R1100D
1167.03	4.0	1988634	STUDY_PAIR	n/a	wordpools/wordpool_EN.txt	1	1	BLUSH	PASS	CLOCK	BLUSH	9	[0, 0, 0]	-999	PAL1	0	R1100D
1172.064	0.275	1996688	STUDY_ORIENT	n/a	n/a	2	2	TEA	PASS	GOAT	TEA	9	[0, 0, 0]	-999	PAL1	0	R1100D
1172.864	4.0	1997968	STUDY_PAIR	n/a	wordpools/wordpool_EN.txt	2	2	TEA	PASS	GOAT	TEA	9	[0, 0, 0]	-999	PAL1	0	R1100D
1177.898	0.275	2006022	STUDY_ORIENT	n/a	n/a	3	5	TRAY	PASS	TRAY	BANK	9	[0, 0, 0]	-999	PAL1	0	R1100D
1178.915	4.0	2007649	STUDY_PAIR	n/a	wordpools/wordpool_EN.txt	3	5	TRAY	PASS	TRAY	BANK	9	[0, 0, 0]	-999	PAL1	0	R1100D
1183.949	0.275	2015703	STUDY_ORIENT	n/a	n/a	4	6	FRUIT	PASS	BEACH	FRUIT	9	[0, 0, 0]	-999	PAL1	0	R1100D
1184.766	4.0	2017010	STUDY_PAIR	n/a	wordpools/wordpool_EN.txt	4	6	FRUIT	PASS	BEACH	FRUIT	9	[0, 0, 0]	-999	PAL1	0	R1100D
1189.784	0.275	2025039	STUDY_ORIENT	n/a	n/a	5	3	SMOKE	PASS	APE	SMOKE	9	[0, 0, 0]	-999	PAL1	0	R1100D
1190.684	4.0	2026479	STUDY_PAIR	n/a	wordpools/wordpool_EN.txt	5	3	SMOKE	PASS	APE	SMOKE	9	[0, 0, 0]	-999	PAL1	0	R1100D
1195.718	0.275	2034533	STUDY_ORIENT	n/a	n/a	6	4	YARD	PASS	MULE	YARD	9	[0, 0, 0]	-999	PAL1	0	R1100D
1196.551	4.0	2035865	STUDY_PAIR	n/a	wordpools/wordpool_EN.txt	6	4	YARD	PASS	MULE	YARD	9	[0, 0, 0]	-999	PAL1	0	R1100D
1200.569	0.999	2042294	START	n/a	n/a	-999	-999	n/a	n/a	n/a	n/a	9	[-999, -999, -999]	-999	PAL1	0	R1100D
1201.568	0.017	2043892	MATH_START	n/a	n/a	-999	-999	n/a	n/a	n/a	n/a	9	[0, 0, 0]	-999	PAL1	0	R1100D
1201.585	3.802	2043919	PROB	3782.0	n/a	-999	-999	n/a	n/a	n/a	n/a	9	[1, 3, 5]	9	PAL1	0	R1100D
1205.387	3.934	2050002	PROB	3900.0	n/a	-999	-999	n/a	n/a	n/a	n/a	9	[2, 9, 7]	16	PAL1	0	R1100D
1209.321	4.25	2056296	PROB	4229.0	n/a	-999	-999	n/a	n/a	n/a	n/a	9	[1, 4, 3]	8	PAL1	0	R1100D
1213.571	4.485	2063096	PROB	4460.0	n/a	-999	-999	n/a	n/a	n/a	n/a	9	[6, 1, 3]	10	PAL1	0	R1100D
1218.056	3.207	2070272	PROB	3207.0	n/a	-999	-999	n/a	n/a	n/a	n/a	9	[7, 7, 3]	17	PAL1	0	R1100D
1221.263	0.01	2075403	STOP	n/a	n/a	-999	-999	n/a	n/a	n/a	n/a	9	[-999, -999, -999]	-999	PAL1	0	R1100D
1221.273	0.0	2075419	MATH_END	n/a	n/a	-999	-999	n/a	n/a	n/a	n/a	9	[0, 0, 0]	-999	PAL1	0	R1100D
1221.273	0.017	2075419	TEST_START	n/a	n/a	-999	-999	n/a	n/a	n/a	n/a	9	[0, 0, 0]	-999	PAL1	0	R1100D
1221.29	0.275	2075446	TEST_ORIENT	n/a	n/a	1	1	BLUSH	PASS	CLOCK	BLUSH	9	[0, 0, 0]	-999	PAL1	0	R1100D
1222.307	0.0	2077073	REC_START	n/a	n/a	1	-999	n/a	PASS	n/a	n/a	9	[0, 0, 0]	-999	PAL1	0	R1100D
1222.307	4.0	2077073	TEST_PROBE	n/a	wordpools/wordpool_EN.txt	1	1	BLUSH	PASS	CLOCK	BLUSH	9	[0, 0, 0]	-999	PAL1	0	R1100D
1224.587	2.746	2080721	REC_EVENT	2280.0	n/a	1	1	BLUSH	PASS	CLOCK	BLUSH	9	[0, 0, 0]	-999	PAL1	0	R1100D
1227.333	0.008	2085114	REC_END	n/a	n/a	1	-999	n/a	n/a	n/a	n/a	9	[0, 0, 0]	-999	PAL1	0	R1100D
1227.341	0.275	2085127	TEST_ORIENT	n/a	n/a	2	2	TEA	PASS	GOAT	TEA	9	[0, 0, 0]	-999	PAL1	0	R1100D
1228.174	4.0	2086460	TEST_PROBE	n/a	wordpools/wordpool_EN.txt	2	2	TEA	PASS	GOAT	TEA	9	[0, 0, 0]	-999	PAL1	0	R1100D
1228.175	3.422	2086461	REC_START	n/a	n/a	2	-999	n/a	PASS	n/a	n/a	9	[0, 0, 0]	-999	PAL1	0	R1100D
1231.597	1.587	2091936	REC_EVENT	3422.0	n/a	2	2	TEA	PASS	GOAT	TEA	9	[0, 0, 0]	-999	PAL1	0	R1100D
1233.184	0.008	2094475	REC_END	n/a	n/a	2	-999	n/a	n/a	n/a	n/a	9	[0, 0, 0]	-999	PAL1	0	R1100D
1233.192	0.275	2094488	TEST_ORIENT	n/a	n/a	5	3	SMOKE	PASS	APE	SMOKE	9	[0, 0, 0]	-999	PAL1	0	R1100D
1234.125	4.0	2095981	TEST_PROBE	n/a	wordpools/wordpool_EN.txt	5	3	SMOKE	PASS	APE	SMOKE	9	[0, 0, 0]	-999	PAL1	0	R1100D
1234.126	2.846	2095983	REC_START	n/a	n/a	5	-999	n/a	PASS	n/a	n/a	9	[0, 0, 0]	-999	PAL1	0	R1100D
1236.972	2.154	2100536	REC_EVENT	2846.0	n/a	5	3	SMOKE	PASS	APE	SMOKE	9	[0, 0, 0]	-999	PAL1	0	R1100D
1239.126	0.017	2103982	REC_END	n/a	n/a	5	-999	n/a	n/a	n/a	n/a	9	[0, 0, 0]	-999	PAL1	0	R1100D
1239.143	0.275	2104009	TEST_ORIENT	n/a	n/a	6	4	YARD	PASS	MULE	YARD	9	[0, 0, 0]	-999	PAL1	0	R1100D
1240.177	4.0	2105664	TEST_PROBE	n/a	wordpools/wordpool_EN.txt	6	4	YARD	PASS	MULE	YARD	9	[0, 0, 0]	-999	PAL1	0	R1100D
1240.177	2.596	2105664	REC_START	n/a	n/a	6	-999	n/a	PASS	n/a	n/a	9	[0, 0, 0]	-999	PAL1	0	R1100D
1242.773	2.421	2109817	REC_EVENT	2596.0	n/a	6	4	YARD	PASS	MULE	YARD	9	[0, 0, 0]	-999	PAL1	0	R1100D
1245.194	0.017	2113691	REC_END	n/a	n/a	6	-999	n/a	n/a	n/a	n/a	9	[0, 0, 0]	-999	PAL1	0	R1100D
1245.211	0.275	2113718	TEST_ORIENT	n/a	n/a	3	5	TRAY	PASS	TRAY	BANK	9	[0, 0, 0]	-999	PAL1	0	R1100D
1246.194	4.0	2115290	TEST_PROBE	n/a	wordpools/wordpool_EN.txt	3	5	TRAY	PASS	TRAY	BANK	9	[0, 0, 0]	-999	PAL1	0	R1100D
1246.195	3.165	2115292	REC_START	n/a	n/a	3	-999	n/a	PASS	n/a	n/a	9	[0, 0, 0]	-999	PAL1	0	R1100D
1249.36	1.844	2120356	REC_EVENT	3165.0	n/a	3	5	TRAY	PASS	TRAY	BANK	9	[0, 0, 0]	-999	PAL1	0	R1100D
1251.204	0.008	2123306	REC_END	n/a	n/a	3	-999	n/a	n/a	n/a	n/a	9	[0, 0, 0]	-999	PAL1	0	R1100D
1251.212	0.275	2123319	TEST_ORIENT	n/a	n/a	4	6	FRUIT	PASS	BEACH	FRUIT	9	[0, 0, 0]	-999	PAL1	0	R1100D
1252.129	4.0	2124786	TEST_PROBE	n/a	wordpools/wordpool_EN.txt	4	6	FRUIT	PASS	BEACH	FRUIT	9	[0, 0, 0]	-999	PAL1	0	R1100D
1252.129	2.233	2124786	REC_START	n/a	n/a	4	-999	n/a	PASS	n/a	n/a	9	[0, 0, 0]	-999	PAL1	0	R1100D
1254.362	2.784	2128359	REC_EVENT	2233.0	n/a	4	6	FRUIT	PASS	BEACH	FRUIT	9	[0, 0, 0]	-999	PAL1	0	R1100D
1257.146	59.133	2132813	REC_END	n/a	n/a	4	-999	n/a	n/a	n/a	n/a	9	[0, 0, 0]	-999	PAL1	0	R1100D
1316.279	10.447	2227421	ENCODING_START	n/a	n/a	0	-999	n/a	n/a	n/a	n/a	10	[0, 0, 0]	-999	PAL1	0	R1100D
1326.726	0.275	2244135	STUDY_ORIENT	n/a	n/a	1	1	LOCK	COIN	LOCK	COIN	10	[0, 0, 0]	-999	PAL1	0	R1100D
1327.625	4.0	2245574	STUDY_PAIR	n/a	wordpools/wordpool_EN.txt	1	1	LOCK	COIN	LOCK	COIN	10	[0, 0, 0]	-999	PAL1	0	R1100D
1332.644	0.275	2253604	STUDY_ORIENT	n/a	n/a	2	4	ROOF	n/a	ROOF	MOOSE	10	[0, 0, 0]	-999	PAL1	0	R1100D
1333.644	4.0	2255204	STUDY_PAIR	n/a	wordpools/wordpool_EN.txt	2	4	ROOF	n/a	ROOF	MOOSE	10	[0, 0, 0]	-999	PAL1	0	R1100D
1338.678	0.275	2263258	STUDY_ORIENT	n/a	n/a	3	3	LAWN	PASS	LAWN	MUG	10	[0, 0, 0]	-999	PAL1	0	R1100D
1339.561	4.0	2264670	STUDY_PAIR	n/a	wordpools/wordpool_EN.txt	3	3	LAWN	PASS	LAWN	MUG	10	[0, 0, 0]	-999	PAL1	0	R1100D
1344.595	0.275	2272724	STUDY_ORIENT	n/a	n/a	4	2	STEM	n/a	SHELL	STEM	10	[0, 0, 0]	-999	PAL1	0	R1100D
1345.413	4.0	2274033	STUDY_PAIR	n/a	wordpools/wordpool_EN.txt	4	2	STEM	n/a	SHELL	STEM	10	[0, 0, 0]	-999	PAL1	0	R1100D
1350.446	0.275	2282086	STUDY_ORIENT	n/a	n/a	5	5	HOSE	PASS	HAND	HOSE	10	[0, 0, 0]	-999	PAL1	0	R1100D
1351.247	4.0	2283367	STUDY_PAIR	n/a	wordpools/wordpool_EN.txt	5	5	HOSE	PASS	HAND	HOSE	10	[0, 0, 0]	-999	PAL1	0	R1100D
1356.265	0.275	2291396	STUDY_ORIENT	n/a	n/a	6	6	TRASH	PASS	TRASH	OWL	10	[0, 0, 0]	-999	PAL1	0	R1100D
1357.182	4.0	2292863	STUDY_PAIR	n/a	wordpools/wordpool_EN.txt	6	6	TRASH	PASS	TRASH	OWL	10	[0, 0, 0]	-999	PAL1	0	R1100D
1361.199	1.0	2299290	START	n/a	n/a	-999	-999	n/a	n/a	n/a	n/a	10	[-999, -999, -999]	-999	PAL1	0	R1100D
1362.199	0.017	2300889	MATH_START	n/a	n/a	-999	-999	n/a	n/a	n/a	n/a	10	[0, 0, 0]	-999	PAL1	0	R1100D
1362.216	4.801	2300917	PROB	4767.0	n/a	-999	-999	n/a	n/a	n/a	n/a	10	[3, 4, 1]	8	PAL1	0	R1100D
1367.017	3.951	2308598	PROB	3926.0	n/a	-999	-999	n/a	n/a	n/a	n/a	10	[7, 1, 4]	13	PAL1	0	R1100D
1370.968	3.549	2314919	PROB	3526.0	n/a	-999	-999	n/a	n/a	n/a	n/a	10	[5, 2, 1]	8	PAL1	0	R1100D
1374.517	3.885	2320597	PROB	3866.0	n/a	-999	-999	n/a	n/a	n/a	n/a	10	[8, 8, 8]	24	PAL1	0	R1100D
1378.402	4.076	2326813	PROB	4076.0	n/a	-999	-999	n/a	n/a	n/a	n/a	10	[8, 7, 9]	24	PAL1	0	R1100D
1382.478	0.007	2333334	STOP	n/a	n/a	-999	-999	n/a	n/a	n/a	n/a	10	[-999, -999, -999]	-999	PAL1	0	R1100D
1382.485	0.0	2333346	MATH_END	n/a	n/a	-999	-999	n/a	n/a	n/a	n/a	10	[0, 0, 0]	-999	PAL1	0	R1100D
1382.485	0.017	2333346	TEST_START	n/a	n/a	-999	-999	n/a	n/a	n/a	n/a	10	[0, 0, 0]	-999	PAL1	0	R1100D
1382.502	0.275	2333373	TEST_ORIENT	n/a	n/a	1	1	LOCK	COIN	LOCK	COIN	10	[0, 0, 0]	-999	PAL1	0	R1100D
1383.486	4.0	2334947	TEST_PROBE	n/a	wordpools/wordpool_EN.txt	1	1	LOCK	COIN	LOCK	COIN	10	[0, 0, 0]	-999	PAL1	0	R1100D
1383.486	2.057	2334947	REC_START	n/a	n/a	1	-999	n/a	COIN	n/a	n/a	10	[0, 0, 0]	-999	PAL1	0	R1100D
1385.543	2.969	2338238	REC_EVENT	2057.0	n/a	1	1	LOCK	COIN	LOCK	COIN	10	[0, 0, 0]	-999	PAL1	0	R1100D
1388.512	0.008	2342988	REC_END	n/a	n/a	1	-999	n/a	n/a	n/a	n/a	10	[0, 0, 0]	-999	PAL1	0	R1100D
1388.52	0.275	2343001	TEST_ORIENT	n/a	n/a	4	2	STEM	n/a	SHELL	STEM	10	[0, 0, 0]	-999	PAL1	0	R1100D
1389.47	4.0	2344521	TEST_PROBE	n/a	wordpools/wordpool_EN.txt	4	2	STEM	n/a	SHELL	STEM	10	[0, 0, 0]	-999	PAL1	0	R1100D
1389.471	5.015	2344523	REC_START	n/a	n/a	4	-999	n/a	n/a	n/a	n/a	10	[0, 0, 0]	-999	PAL1	0	R1100D
1394.486	0.001	2352546	REC_EVENT	5015.0	n/a	4	2	STEM	<>	SHELL	STEM	10	[0, 0, 0]	-999	PAL1	0	R1100D
1394.487	0.017	2352548	REC_END	n/a	n/a	4	-999	n/a	n/a	n/a	n/a	10	[0, 0, 0]	-999	PAL1	0	R1100D
1394.504	0.275	2352575	TEST_ORIENT	n/a	n/a	3	3	LAWN	PASS	LAWN	MUG	10	[0, 0, 0]	-999	PAL1	0	R1100D
1395.422	4.0	2354044	TEST_PROBE	n/a	wordpools/wordpool_EN.txt	3	3	LAWN	PASS	LAWN	MUG	10	[0, 0, 0]	-999	PAL1	0	R1100D
1395.423	4.785	2354045	REC_START	n/a	n/a	3	-999	n/a	PASS	n/a	n/a	10	[0, 0, 0]	-999	PAL1	0	R1100D
1400.208	0.23	2361701	REC_EVENT	4785.0	n/a	3	3	LAWN	PASS	LAWN	MUG	10	[0, 0, 0]	-999	PAL1	0	R1100D
1400.438	0.017	2362069	REC_END	n/a	n/a	3	-999	n/a	n/a	n/a	n/a	10	[0, 0, 0]	-999	PAL1	0	R1100D
1400.455	0.275	2362096	TEST_ORIENT	n/a	n/a	2	4	ROOF	n/a	ROOF	MOOSE	10	[0, 0, 0]	-999	PAL1	0	R1100D
1401.323	4.0	2363485	TEST_PROBE	n/a	wordpools/wordpool_EN.txt	2	4	ROOF	n/a	ROOF	MOOSE	10	[0, 0, 0]	-999	PAL1	0	R1100D
1401.324	5.009	2363486	REC_START	n/a	n/a	2	-999	n/a	n/a	n/a	n/a	10	[0, 0, 0]	-999	PAL1	0	R1100D
1406.333	0.0	2371500	REC_END	n/a	n/a	2	-999	n/a	n/a	n/a	n/a	10	[0, 0, 0]	-999	PAL1	0	R1100D
1406.333	0.008	2371500	REC_EVENT	5009.0	n/a	2	4	ROOF	<>	ROOF	MOOSE	10	[0, 0, 0]	-999	PAL1	0	R1100D
1406.341	0.275	2371513	TEST_ORIENT	n/a	n/a	5	5	HOSE	PASS	HAND	HOSE	10	[0, 0, 0]	-999	PAL1	0	R1100D
1407.341	4.0	2373113	TEST_PROBE	n/a	wordpools/wordpool_EN.txt	5	5	HOSE	PASS	HAND	HOSE	10	[0, 0, 0]	-999	PAL1	0	R1100D
1407.341	3.541	2373113	REC_START	n/a	n/a	5	-999	n/a	PASS	n/a	n/a	10	[0, 0, 0]	-999	PAL1	0	R1100D
1410.882	1.476	2378779	REC_EVENT	3541.0	n/a	5	5	HOSE	PASS	HAND	HOSE	10	[0, 0, 0]	-999	PAL1	0	R1100D
1412.358	0.017	2381140	REC_END	n/a	n/a	5	-999	n/a	n/a	n/a	n/a	10	[0, 0, 0]	-999	PAL1	0	R1100D
1412.375	0.275	2381167	TEST_ORIENT	n/a	n/a	6	6	TRASH	PASS	TRASH	OWL	10	[0, 0, 0]	-999	PAL1	0	R1100D
1413.192	4.0	2382474	TEST_PROBE	n/a	wordpools/wordpool_EN.txt	6	6	TRASH	PASS	TRASH	OWL	10	[0, 0, 0]	-999	PAL1	0	R1100D
1413.192	3.068	2382474	REC_START	n/a	n/a	6	-999	n/a	PASS	n/a	n/a	10	[0, 0, 0]	-999	PAL1	0	R1100D
1416.26	1.949	2387383	REC_EVENT	3068.0	n/a	6	6	TRASH	PASS	TRASH	OWL	10	[0, 0, 0]	-999	PAL1	0	R1100D
1418.209	8.373	2390501	REC_END	n/a	n/a	6	-999	n/a	n/a	n/a	n/a	10	[0, 0, 0]	-999	PAL1	0	R1100D
1426.582	10.448	2403897	ENCODING_START	n/a	n/a	0	-999	n/a	n/a	n/a	n/a	11	[0, 0, 0]	-999	PAL1	0	R1100D
1437.03	0.275	2420613	STUDY_ORIENT	n/a	n/a	1	3	BUSH	n/a	BUSH	CHIEF	11	[0, 0, 0]	-999	PAL1	0	R1100D
1437.88	4.0	2421973	STUDY_PAIR	n/a	wordpools/wordpool_EN.txt	1	3	BUSH	n/a	BUSH	CHIEF	11	[0, 0, 0]	-999	PAL1	0	R1100D
1442.914	0.275	2430027	STUDY_ORIENT	n/a	n/a	2	4	TOOL	n/a	FUDGE	TOOL	11	[0, 0, 0]	-999	PAL1	0	R1100D
1443.915	4.0	2431629	STUDY_PAIR	n/a	wordpools/wordpool_EN.txt	2	4	TOOL	n/a	FUDGE	TOOL	11	[0, 0, 0]	-999	PAL1	0	R1100D
1448.949	0.275	2439683	STUDY_ORIENT	n/a	n/a	3	5	BROOM	PASS	BROOM	BOY	11	[0, 0, 0]	-999	PAL1	0	R1100D
1449.932	4.0	2441256	STUDY_PAIR	n/a	wordpools/wordpool_EN.txt	3	5	BROOM	PASS	BROOM	BOY	11	[0, 0, 0]	-999	PAL1	0	R1100D
1454.95	0.275	2449284	STUDY_ORIENT	n/a	n/a	4	6	STOOL	BOY	CAT	STOOL	11	[0, 0, 0]	-999	PAL1	0	R1100D
1455.8	4.0	2450644	STUDY_PAIR	n/a	wordpools/wordpool_EN.txt	4	6	STOOL	BOY	CAT	STOOL	11	[0, 0, 0]	-999	PAL1	0	R1100D
1460.834	0.275	2458698	STUDY_ORIENT	n/a	n/a	5	1	POLE	PASS	STAIR	POLE	11	[0, 0, 0]	-999	PAL1	0	R1100D
1461.818	4.0	2460272	STUDY_PAIR	n/a	wordpools/wordpool_EN.txt	5	1	POLE	PASS	STAIR	POLE	11	[0, 0, 0]	-999	PAL1	0	R1100D
1466.852	0.275	2468326	STUDY_ORIENT	n/a	n/a	6	2	POOL	n/a	POOL	WEB	11	[0, 0, 0]	-999	PAL1	0	R1100D
1467.869	4.0	2469953	STUDY_PAIR	n/a	wordpools/wordpool_EN.txt	6	2	POOL	n/a	POOL	WEB	11	[0, 0, 0]	-999	PAL1	0	R1100D
1471.887	0.999	2476382	START	n/a	n/a	-999	-999	n/a	n/a	n/a	n/a	11	[-999, -999, -999]	-999	PAL1	0	R1100D
1472.886	0.017	2477980	MATH_START	n/a	n/a	-999	-999	n/a	n/a	n/a	n/a	11	[0, 0, 0]	-999	PAL1	0	R1100D
1472.903	4.617	2478007	PROB	4591.0	n/a	-999	-999	n/a	n/a	n/a	n/a	11	[6, 8, 7]	21	PAL1	0	R1100D
1477.52	3.468	2485394	PROB	3439.0	n/a	-999	-999	n/a	n/a	n/a	n/a	11	[2, 7, 2]	11	PAL1	0	R1100D
1480.988	2.117	2490943	PROB	2091.0	n/a	-999	-999	n/a	n/a	n/a	n/a	11	[1, 3, 1]	5	PAL1	0	R1100D
1483.105	4.901	2494330	PROB	4870.0	n/a	-999	-999	n/a	n/a	n/a	n/a	11	[3, 8, 6]	17	PAL1	0	R1100D
1488.006	3.566	2502171	PROB	3544.0	n/a	-999	-999	n/a	n/a	n/a	n/a	11	[2, 6, 9]	17	PAL1	0	R1100D
1491.572	3.954	2507876	PROB	3954.0	n/a	-999	-999	n/a	n/a	n/a	n/a	11	[1, 3, 3]	7	PAL1	0	R1100D
1495.526	0.014	2514202	STOP	n/a	n/a	-999	-999	n/a	n/a	n/a	n/a	11	[-999, -999, -999]	-999	PAL1	0	R1100D
1495.54	0.0	2514225	TEST_START	n/a	n/a	-999	-999	n/a	n/a	n/a	n/a	11	[0, 0, 0]	-999	PAL1	0	R1100D
1495.54	0.016	2514225	MATH_END	n/a	n/a	-999	-999	n/a	n/a	n/a	n/a	11	[0, 0, 0]	-999	PAL1	0	R1100D
1495.556	0.275	2514250	TEST_ORIENT	n/a	n/a	5	1	POLE	PASS	STAIR	POLE	11	[0, 0, 0]	-999	PAL1	0	R1100D
1496.473	4.0	2515718	TEST_PROBE	n/a	wordpools/wordpool_EN.txt	5	1	POLE	PASS	STAIR	POLE	11	[0, 0, 0]	-999	PAL1	0	R1100D
1496.474	3.403	2515719	REC_START	n/a	n/a	5	-999	n/a	PASS	n/a	n/a	11	[0, 0, 0]	-999	PAL1	0	R1100D
1499.877	1.606	2521164	REC_EVENT	3403.0	n/a	5	1	POLE	PASS	STAIR	POLE	11	[0, 0, 0]	-999	PAL1	0	R1100D
1501.483	0.008	2523733	REC_END	n/a	n/a	5	-999	n/a	n/a	n/a	n/a	11	[0, 0, 0]	-999	PAL1	0	R1100D
1501.491	0.275	2523746	TEST_ORIENT	n/a	n/a	6	2	POOL	n/a	POOL	WEB	11	[0, 0, 0]	-999	PAL1	0	R1100D
1502.524	4.0	2525399	TEST_PROBE	n/a	wordpools/wordpool_EN.txt	6	2	POOL	n/a	POOL	WEB	11	[0, 0, 0]	-999	PAL1	0	R1100D
1502.525	5.009	2525400	REC_START	n/a	n/a	6	-999	n/a	n/a	n/a	n/a	11	[0, 0, 0]	-999	PAL1	0	R1100D
1507.534	0.0	2533414	REC_END	n/a	n/a	6	-999	n/a	n/a	n/a	n/a	11	[0, 0, 0]	-999	PAL1	0	R1100D
1507.534	0.008	2533414	REC_EVENT	5009.0	n/a	6	2	POOL	<>	POOL	WEB	11	[0, 0, 0]	-999	PAL1	0	R1100D
1507.542	0.275	2533427	TEST_ORIENT	n/a	n/a	1	3	BUSH	n/a	BUSH	CHIEF	11	[0, 0, 0]	-999	PAL1	0	R1100D
1508.343	4.0	2534709	TEST_PROBE	n/a	wordpools/wordpool_EN.txt	1	3	BUSH	n/a	BUSH	CHIEF	11	[0, 0, 0]	-999	PAL1	0	R1100D
1508.343	5.015	2534709	REC_START	n/a	n/a	1	-999	n/a	n/a	n/a	n/a	11	[0, 0, 0]	-999	PAL1	0	R1100D
1513.358	0.003	2542732	REC_EVENT	5015.0	n/a	1	3	BUSH	<>	BUSH	CHIEF	11	[0, 0, 0]	-999	PAL1	0	R1100D
1513.361	0.016	2542737	REC_END	n/a	n/a	1	-999	n/a	n/a	n/a	n/a	11	[0, 0, 0]	-999	PAL1	0	R1100D
1513.377	0.275	2542763	TEST_ORIENT	n/a	n/a	2	4	TOOL	n/a	FUDGE	TOOL	11	[0, 0, 0]	-999	PAL1	0	R1100D
1514.361	4.0	2544337	TEST_PROBE	n/a	wordpools/wordpool_EN.txt	2	4	TOOL	n/a	FUDGE	TOOL	11	[0, 0, 0]	-999	PAL1	0	R1100D
1514.361	5.015	2544337	REC_START	n/a	n/a	2	-999	n/a	n/a	n/a	n/a	11	[0, 0, 0]	-999	PAL1	0	R1100D
1519.376	0.002	2552361	REC_EVENT	5015.0	n/a	2	4	TOOL	<>	FUDGE	TOOL	11	[0, 0, 0]	-999	PAL1	0	R1100D
1519.378	0.017	2552364	REC_END	n/a	n/a	2	-999	n/a	n/a	n/a	n/a	11	[0, 0, 0]	-999	PAL1	0	R1100D
1519.395	0.275	2552391	TEST_ORIENT	n/a	n/a	3	5	BROOM	PASS	BROOM	BOY	11	[0, 0, 0]	-999	PAL1	0	R1100D
1520.412	4.0	2554018	TEST_PROBE	n/a	wordpools/wordpool_EN.txt	3	5	BROOM	PASS	BROOM	BOY	11	[0, 0, 0]	-999	PAL1	0	R1100D
1520.413	2.883	2554020	REC_START	n/a	n/a	3	-999	n/a	PASS	n/a	n/a	11	[0, 0, 0]	-999	PAL1	0	R1100D
1523.296	2.133	2558632	REC_EVENT	2883.0	n/a	3	5	BROOM	PASS	BROOM	BOY	11	[0, 0, 0]	-999	PAL1	0	R1100D
1525.429	0.016	2562045	REC_END	n/a	n/a	3	-999	n/a	n/a	n/a	n/a	11	[0, 0, 0]	-999	PAL1	0	R1100D
1525.445	0.275	2562070	TEST_ORIENT	n/a	n/a	4	6	STOOL	BOY	CAT	STOOL	11	[0, 0, 0]	-999	PAL1	0	R1100D
1526.43	4.0	2563646	TEST_PROBE	n/a	wordpools/wordpool_EN.txt	4	6	STOOL	BOY	CAT	STOOL	11	[0, 0, 0]	-999	PAL1	0	R1100D
1526.431	2.652	2563648	REC_START	n/a	n/a	4	-999	n/a	BOY	n/a	n/a	11	[0, 0, 0]	-999	PAL1	0	R1100D
1529.083	2.371	2567891	REC_EVENT	2652.0	n/a	4	6	STOOL	BOY	CAT	STOOL	11	[0, 0, 0]	-999	PAL1	0	R1100D
1531.454	9.529	2571684	REC_END	n/a	n/a	4	-999	n/a	n/a	n/a	n/a	11	[0, 0, 0]	-999	PAL1	0	R1100D
1540.983	10.451	2586930	ENCODING_START	n/a	n/a	0	-999	n/a	n/a	n/a	n/a	12	[0, 0, 0]	-999	PAL1	0	R1100D
1551.434	0.275	2603651	STUDY_ORIENT	n/a	n/a	1	5	ROAD	PASS	DIME	ROAD	12	[0, 0, 0]	-999	PAL1	0	R1100D
1552.384	4.0	2605171	STUDY_PAIR	n/a	wordpools/wordpool_EN.txt	1	5	ROAD	PASS	DIME	ROAD	12	[0, 0, 0]	-999	PAL1	0	R1100D
1557.402	0.275	2613199	STUDY_ORIENT	n/a	n/a	2	4	CORD	PASS	CORD	BOX	12	[0, 0, 0]	-999	PAL1	0	R1100D
1558.336	4.0	2614694	STUDY_PAIR	n/a	wordpools/wordpool_EN.txt	2	4	CORD	PASS	CORD	BOX	12	[0, 0, 0]	-999	PAL1	0	R1100D
1563.37	0.275	2622748	STUDY_ORIENT	n/a	n/a	3	1	RAKE	SEED	RAKE	SEED	12	[0, 0, 0]	-999	PAL1	0	R1100D
1564.187	4.0	2624055	STUDY_PAIR	n/a	wordpools/wordpool_EN.txt	3	1	RAKE	SEED	RAKE	SEED	12	[0, 0, 0]	-999	PAL1	0	R1100D
1569.221	0.275	2632109	STUDY_ORIENT	n/a	n/a	4	2	JUICE	PASS	JUICE	SHIELD	12	[0, 0, 0]	-999	PAL1	0	R1100D
1570.138	4.0	2633576	STUDY_PAIR	n/a	wordpools/wordpool_EN.txt	4	2	JUICE	PASS	JUICE	SHIELD	12	[0, 0, 0]	-999	PAL1	0	R1100D
1575.172	0.275	2641630	STUDY_ORIENT	n/a	n/a	5	3	FOAM	SNAKE	FOAM	CROW	12	[0, 0, 0]	-999	PAL1	0	R1100D
1576.022	4.0	2642990	STUDY_PAIR	n/a	wordpools/wordpool_EN.txt	5	3	FOAM	SNAKE	FOAM	CROW	12	[0, 0, 0]	-999	PAL1	0	R1100D
1581.04	0.275	2651018	STUDY_ORIENT	n/a	n/a	6	6	BARN	WOLF	BARN	WOLF	12	[0, 0, 0]	-999	PAL1	0	R1100D
1581.94	4.0	2652458	STUDY_PAIR	n/a	wordpools/wordpool_EN.txt	6	6	BARN	WOLF	BARN	WOLF	12	[0, 0, 0]	-999	PAL1	0	R1100D
1585.941	1.0	2658859	START	n/a	n/a	-999	-999	n/a	n/a	n/a	n/a	12	[-999, -999, -999]	-999	PAL1	0	R1100D
1586.941	0.017	2660459	MATH_START	n/a	n/a	-999	-999	n/a	n/a	n/a	n/a	12	[0, 0, 0]	-999	PAL1	0	R1100D
1586.958	6.901	2660487	PROB	6873.0	n/a	-999	-999	n/a	n/a	n/a	n/a	12	[7, 9, 5]	18	PAL1	0	R1100D
1593.859	5.65	2671528	PROB	5627.0	n/a	-999	-999	n/a	n/a	n/a	n/a	12	[6, 7, 2]	15	PAL1	0	R1100D
1599.509	3.368	2680567	PROB	3338.0	n/a	-999	-999	n/a	n/a	n/a	n/a	12	[3, 5, 1]	9	PAL1	0	R1100D
1602.877	4.37	2685956	PROB	4370.0	n/a	-999	-999	n/a	n/a	n/a	n/a	12	[6, 7, 4]	17	PAL1	0	R1100D
1607.247	0.014	2692947	STOP	n/a	n/a	-999	-999	n/a	n/a	n/a	n/a	12	[-999, -999, -999]	-999	PAL1	0	R1100D
1607.261	0.0	2692970	TEST_START	n/a	n/a	-999	-999	n/a	n/a	n/a	n/a	12	[0, 0, 0]	-999	PAL1	0	R1100D
1607.261	0.017	2692970	MATH_END	n/a	n/a	-999	-999	n/a	n/a	n/a	n/a	12	[0, 0, 0]	-999	PAL1	0	R1100D
1607.278	0.275	2692997	TEST_ORIENT	n/a	n/a	3	1	RAKE	SEED	RAKE	SEED	12	[0, 0, 0]	-999	PAL1	0	R1100D
1608.195	4.0	2694464	TEST_PROBE	n/a	wordpools/wordpool_EN.txt	3	1	RAKE	SEED	RAKE	SEED	12	[0, 0, 0]	-999	PAL1	0	R1100D
1608.195	1.507	2694464	REC_START	n/a	n/a	3	-999	n/a	SEED	n/a	n/a	12	[0, 0, 0]	-999	PAL1	0	R1100D
1609.702	3.51	2696875	REC_EVENT	1507.0	n/a	3	1	RAKE	SEED	RAKE	SEED	12	[0, 0, 0]	-999	PAL1	0	R1100D
1613.212	0.017	2702491	REC_END	n/a	n/a	3	-999	n/a	n/a	n/a	n/a	12	[0, 0, 0]	-999	PAL1	0	R1100D
1613.229	0.275	2702518	TEST_ORIENT	n/a	n/a	4	2	JUICE	PASS	JUICE	SHIELD	12	[0, 0, 0]	-999	PAL1	0	R1100D
1614.213	4.0	2704092	TEST_PROBE	n/a	wordpools/wordpool_EN.txt	4	2	JUICE	PASS	JUICE	SHIELD	12	[0, 0, 0]	-999	PAL1	0	R1100D
1614.213	3.006	2704092	REC_START	n/a	n/a	4	-999	n/a	PASS	n/a	n/a	12	[0, 0, 0]	-999	PAL1	0	R1100D
1617.219	2.011	2708902	REC_EVENT	3006.0	n/a	4	2	JUICE	PASS	JUICE	SHIELD	12	[0, 0, 0]	-999	PAL1	0	R1100D
1619.23	0.017	2712119	REC_END	n/a	n/a	4	-999	n/a	n/a	n/a	n/a	12	[0, 0, 0]	-999	PAL1	0	R1100D
1619.247	0.275	2712146	TEST_ORIENT	n/a	n/a	5	3	FOAM	SNAKE	FOAM	CROW	12	[0, 0, 0]	-999	PAL1	0	R1100D
1620.114	4.0	2713534	TEST_PROBE	n/a	wordpools/wordpool_EN.txt	5	3	FOAM	SNAKE	FOAM	CROW	12	[0, 0, 0]	-999	PAL1	0	R1100D
1620.114	1.494	2713534	REC_START	n/a	n/a	5	-999	n/a	SNAKE	n/a	n/a	12	[0, 0, 0]	-999	PAL1	0	R1100D
1621.608	3.523	2715924	REC_EVENT	1494.0	n/a	5	3	FOAM	SNAKE	FOAM	CROW	12	[0, 0, 0]	-999	PAL1	0	R1100D
1625.131	0.017	2721560	REC_END	n/a	n/a	5	-999	n/a	n/a	n/a	n/a	12	[0, 0, 0]	-999	PAL1	0	R1100D
1625.148	0.275	2721588	TEST_ORIENT	n/a	n/a	2	4	CORD	PASS	CORD	BOX	12	[0, 0, 0]	-999	PAL1	0	R1100D
1626.165	4.0	2723215	TEST_PROBE	n/a	wordpools/wordpool_EN.txt	2	4	CORD	PASS	CORD	BOX	12	[0, 0, 0]	-999	PAL1	0	R1100D
1626.166	2.901	2723216	REC_START	n/a	n/a	2	-999	n/a	PASS	n/a	n/a	12	[0, 0, 0]	-999	PAL1	0	R1100D
1629.067	2.115	2727858	REC_EVENT	2901.0	n/a	2	4	CORD	PASS	CORD	BOX	12	[0, 0, 0]	-999	PAL1	0	R1100D
1631.182	0.017	2731242	REC_END	n/a	n/a	2	-999	n/a	n/a	n/a	n/a	12	[0, 0, 0]	-999	PAL1	0	R1100D
1631.199	0.275	2731269	TEST_ORIENT	n/a	n/a	1	5	ROAD	PASS	DIME	ROAD	12	[0, 0, 0]	-999	PAL1	0	R1100D
1632.083	4.0	2732683	TEST_PROBE	n/a	wordpools/wordpool_EN.txt	1	5	ROAD	PASS	DIME	ROAD	12	[0, 0, 0]	-999	PAL1	0	R1100D
1632.083	3.695	2732683	REC_START	n/a	n/a	1	-999	n/a	PASS	n/a	n/a	12	[0, 0, 0]	-999	PAL1	0	R1100D
1635.778	1.322	2738595	REC_EVENT	3695.0	n/a	1	5	ROAD	PASS	DIME	ROAD	12	[0, 0, 0]	-999	PAL1	0	R1100D
1637.1	0.017	2740710	REC_END	n/a	n/a	1	-999	n/a	n/a	n/a	n/a	12	[0, 0, 0]	-999	PAL1	0	R1100D
1637.117	0.275	2740737	TEST_ORIENT	n/a	n/a	6	6	BARN	WOLF	BARN	WOLF	12	[0, 0, 0]	-999	PAL1	0	R1100D
1638.017	4.0	2742177	TEST_PROBE	n/a	wordpools/wordpool_EN.txt	6	6	BARN	WOLF	BARN	WOLF	12	[0, 0, 0]	-999	PAL1	0	R1100D
1638.018	3.31	2742179	REC_START	n/a	n/a	6	-999	n/a	WOLF	n/a	n/a	12	[0, 0, 0]	-999	PAL1	0	R1100D
1641.328	1.699	2747474	REC_EVENT	3310.0	n/a	6	6	BARN	WOLF	BARN	WOLF	12	[0, 0, 0]	-999	PAL1	0	R1100D
1643.027	5.676	2750193	REC_END	n/a	n/a	6	-999	n/a	n/a	n/a	n/a	12	[0, 0, 0]	-999	PAL1	0	R1100D
1648.703	10.451	2759274	ENCODING_START	n/a	n/a	0	-999	n/a	n/a	n/a	n/a	13	[0, 0, 0]	-999	PAL1	0	R1100D
1659.154	0.275	2775995	STUDY_ORIENT	n/a	n/a	1	5	ICE	BRIDGE	ICE	PARK	13	[0, 0, 0]	-999	PAL1	0	R1100D
1660.038	4.0	2777409	STUDY_PAIR	n/a	wordpools/wordpool_EN.txt	1	5	ICE	BRIDGE	ICE	PARK	13	[0, 0, 0]	-999	PAL1	0	R1100D
1665.072	0.275	2785463	STUDY_ORIENT	n/a	n/a	2	2	BADGE	n/a	RAIN	BADGE	13	[0, 0, 0]	-999	PAL1	0	R1100D
1666.022	4.0	2786983	STUDY_PAIR	n/a	wordpools/wordpool_EN.txt	2	2	BADGE	n/a	RAIN	BADGE	13	[0, 0, 0]	-999	PAL1	0	R1100D
1671.04	0.275	2795011	STUDY_ORIENT	n/a	n/a	3	3	HOOK	n/a	DOCK	HOOK	13	[0, 0, 0]	-999	PAL1	0	R1100D
1671.84	4.0	2796291	STUDY_PAIR	n/a	wordpools/wordpool_EN.txt	3	3	HOOK	n/a	DOCK	HOOK	13	[0, 0, 0]	-999	PAL1	0	R1100D
1676.858	0.275	2804320	STUDY_ORIENT	n/a	n/a	4	4	FLAME	PASS	FLAME	LAND	13	[0, 0, 0]	-999	PAL1	0	R1100D
1677.64	4.0	2805571	STUDY_PAIR	n/a	wordpools/wordpool_EN.txt	4	4	FLAME	PASS	FLAME	LAND	13	[0, 0, 0]	-999	PAL1	0	R1100D
1682.659	0.275	2813601	STUDY_ORIENT	n/a	n/a	5	1	ARK	PASS	DOG	ARK	13	[0, 0, 0]	-999	PAL1	0	R1100D
1683.475	4.0	2814906	STUDY_PAIR	n/a	wordpools/wordpool_EN.txt	5	1	ARK	PASS	DOG	ARK	13	[0, 0, 0]	-999	PAL1	0	R1100D
1688.509	0.275	2822960	STUDY_ORIENT	n/a	n/a	6	6	BOMB	PASS	BOMB	BEE	13	[0, 0, 0]	-999	PAL1	0	R1100D
1689.31	4.0	2824242	STUDY_PAIR	n/a	wordpools/wordpool_EN.txt	6	6	BOMB	PASS	BOMB	BEE	13	[0, 0, 0]	-999	PAL1	0	R1100D
1693.328	0.999	2830670	START	n/a	n/a	-999	-999	n/a	n/a	n/a	n/a	13	[-999, -999, -999]	-999	PAL1	0	R1100D
1694.327	0.017	2832269	MATH_START	n/a	n/a	-999	-999	n/a	n/a	n/a	n/a	13	[0, 0, 0]	-999	PAL1	0	R1100D
1694.344	4.318	2832296	PROB	4286.0	n/a	-999	-999	n/a	n/a	n/a	n/a	13	[8, 3, 8]	19	PAL1	0	R1100D
1698.662	4.001	2839204	PROB	3968.0	n/a	-999	-999	n/a	n/a	n/a	n/a	13	[2, 4, 4]	10	PAL1	0	R1100D
1702.663	3.984	2845606	PROB	3959.0	n/a	-999	-999	n/a	n/a	n/a	n/a	13	[2, 4, 8]	14	PAL1	0	R1100D
1706.647	3.833	2851980	PROB	3799.0	n/a	-999	-999	n/a	n/a	n/a	n/a	13	[9, 2, 7]	18	PAL1	0	R1100D
1710.48	4.263	2858112	PROB	4263.0	n/a	-999	-999	n/a	n/a	n/a	n/a	13	[8, 3, 7]	18	PAL1	0	R1100D
1714.743	0.005	2864933	STOP	n/a	n/a	-999	-999	n/a	n/a	n/a	n/a	13	[-999, -999, -999]	-999	PAL1	0	R1100D
1714.748	0.0	2864941	MATH_END	n/a	n/a	-999	-999	n/a	n/a	n/a	n/a	13	[0, 0, 0]	-999	PAL1	0	R1100D
1714.748	0.017	2864941	TEST_START	n/a	n/a	-999	-999	n/a	n/a	n/a	n/a	13	[0, 0, 0]	-999	PAL1	0	R1100D
1714.765	0.275	2864968	TEST_ORIENT	n/a	n/a	5	1	ARK	PASS	DOG	ARK	13	[0, 0, 0]	-999	PAL1	0	R1100D
1715.798	4.0	2866621	TEST_PROBE	n/a	wordpools/wordpool_EN.txt	5	1	ARK	PASS	DOG	ARK	13	[0, 0, 0]	-999	PAL1	0	R1100D
1715.799	3.842	2866622	REC_START	n/a	n/a	5	-999	n/a	PASS	n/a	n/a	13	[0, 0, 0]	-999	PAL1	0	R1100D
1719.641	1.167	2872769	REC_EVENT	3842.0	n/a	5	1	ARK	PASS	DOG	ARK	13	[0, 0, 0]	-999	PAL1	0	R1100D
1720.808	0.008	2874636	REC_END	n/a	n/a	5	-999	n/a	n/a	n/a	n/a	13	[0, 0, 0]	-999	PAL1	0	R1100D
1720.816	0.275	2874649	TEST_ORIENT	n/a	n/a	2	2	BADGE	n/a	RAIN	BADGE	13	[0, 0, 0]	-999	PAL1	0	R1100D
1721.699	4.0	2876062	TEST_PROBE	n/a	wordpools/wordpool_EN.txt	2	2	BADGE	n/a	RAIN	BADGE	13	[0, 0, 0]	-999	PAL1	0	R1100D
1721.7	5.009	2876063	REC_START	n/a	n/a	2	-999	n/a	n/a	n/a	n/a	13	[0, 0, 0]	-999	PAL1	0	R1100D
1726.709	0.0	2884077	REC_EVENT	5009.0	n/a	2	2	BADGE	<>	RAIN	BADGE	13	[0, 0, 0]	-999	PAL1	0	R1100D
1726.709	0.008	2884077	REC_END	n/a	n/a	2	-999	n/a	n/a	n/a	n/a	13	[0, 0, 0]	-999	PAL1	0	R1100D
1726.717	0.275	2884090	TEST_ORIENT	n/a	n/a	3	3	HOOK	n/a	DOCK	HOOK	13	[0, 0, 0]	-999	PAL1	0	R1100D
1727.6	4.0	2885503	TEST_PROBE	n/a	wordpools/wordpool_EN.txt	3	3	HOOK	n/a	DOCK	HOOK	13	[0, 0, 0]	-999	PAL1	0	R1100D
1727.6	5.027	2885503	REC_START	n/a	n/a	3	-999	n/a	n/a	n/a	n/a	13	[0, 0, 0]	-999	PAL1	0	R1100D
1732.627	0.0	2893546	REC_EVENT	5027.0	n/a	3	3	HOOK	<>	DOCK	HOOK	13	[0, 0, 0]	-999	PAL1	0	R1100D
1732.627	0.025	2893546	REC_END	n/a	n/a	3	-999	n/a	n/a	n/a	n/a	13	[0, 0, 0]	-999	PAL1	0	R1100D
1732.652	0.275	2893586	TEST_ORIENT	n/a	n/a	4	4	FLAME	PASS	FLAME	LAND	13	[0, 0, 0]	-999	PAL1	0	R1100D
1733.501	4.0	2894944	TEST_PROBE	n/a	wordpools/wordpool_EN.txt	4	4	FLAME	PASS	FLAME	LAND	13	[0, 0, 0]	-999	PAL1	0	R1100D
1733.501	3.119	2894944	REC_START	n/a	n/a	4	-999	n/a	PASS	n/a	n/a	13	[0, 0, 0]	-999	PAL1	0	R1100D
1736.62	1.898	2899934	REC_EVENT	3119.0	n/a	4	4	FLAME	PASS	FLAME	LAND	13	[0, 0, 0]	-999	PAL1	0	R1100D
1738.518	0.017	2902971	REC_END	n/a	n/a	4	-999	n/a	n/a	n/a	n/a	13	[0, 0, 0]	-999	PAL1	0	R1100D
1738.535	0.275	2902998	TEST_ORIENT	n/a	n/a	1	5	ICE	BRIDGE	ICE	PARK	13	[0, 0, 0]	-999	PAL1	0	R1100D
1739.452	4.0	2904465	TEST_PROBE	n/a	wordpools/wordpool_EN.txt	1	5	ICE	BRIDGE	ICE	PARK	13	[0, 0, 0]	-999	PAL1	0	R1100D
1739.452	2.886	2904465	REC_START	n/a	n/a	1	-999	n/a	BRIDGE	n/a	n/a	13	[0, 0, 0]	-999	PAL1	0	R1100D
1742.338	2.131	2909083	REC_EVENT	2886.0	n/a	1	5	ICE	BRIDGE	ICE	PARK	13	[0, 0, 0]	-999	PAL1	0	R1100D
1744.469	0.017	2912492	REC_END	n/a	n/a	1	-999	n/a	n/a	n/a	n/a	13	[0, 0, 0]	-999	PAL1	0	R1100D
1744.486	0.275	2912519	TEST_ORIENT	n/a	n/a	6	6	BOMB	PASS	BOMB	BEE	13	[0, 0, 0]	-999	PAL1	0	R1100D
1745.321	4.0	2913855	TEST_PROBE	n/a	wordpools/wordpool_EN.txt	6	6	BOMB	PASS	BOMB	BEE	13	[0, 0, 0]	-999	PAL1	0	R1100D
1745.321	4.28	2913855	REC_START	n/a	n/a	6	-999	n/a	PASS	n/a	n/a	13	[0, 0, 0]	-999	PAL1	0	R1100D
1749.601	0.737	2920703	REC_EVENT	4280.0	n/a	6	6	BOMB	PASS	BOMB	BEE	13	[0, 0, 0]	-999	PAL1	0	R1100D
1750.338	243.164	2921882	REC_END	n/a	n/a	6	-999	n/a	n/a	n/a	n/a	13	[0, 0, 0]	-999	PAL1	0	R1100D
1993.502	10.45	3310926	ENCODING_START	n/a	n/a	0	-999	n/a	n/a	n/a	n/a	14	[0, 0, 0]	-999	PAL1	0	R1100D
2003.952	0.275	3327645	STUDY_ORIENT	n/a	n/a	1	5	CLOTH	n/a	FLUTE	CLOTH	14	[0, 0, 0]	-999	PAL1	0	R1100D
2004.869	4.0	3329112	STUDY_PAIR	n/a	wordpools/wordpool_EN.txt	1	5	CLOTH	n/a	FLUTE	CLOTH	14	[0, 0, 0]	-999	PAL1	0	R1100D
2009.903	0.275	3337166	STUDY_ORIENT	n/a	n/a	2	4	MAT	n/a	BOOT	MAT	14	[0, 0, 0]	-999	PAL1	0	R1100D
2010.92	4.0	3338793	STUDY_PAIR	n/a	wordpools/wordpool_EN.txt	2	4	MAT	n/a	BOOT	MAT	14	[0, 0, 0]	-999	PAL1	0	R1100D
2015.954	0.275	3346847	STUDY_ORIENT	n/a	n/a	3	1	PHONE	PASS	VEST	PHONE	14	[0, 0, 0]	-999	PAL1	0	R1100D
2016.871	4.0	3348314	STUDY_PAIR	n/a	wordpools/wordpool_EN.txt	3	1	PHONE	PASS	VEST	PHONE	14	[0, 0, 0]	-999	PAL1	0	R1100D
2021.905	0.275	3356368	STUDY_ORIENT	n/a	n/a	4	2	BEAK	PASS	CAKE	BEAK	14	[0, 0, 0]	-999	PAL1	0	R1100D
2022.722	4.0	3357675	STUDY_PAIR	n/a	wordpools/wordpool_EN.txt	4	2	BEAK	PASS	CAKE	BEAK	14	[0, 0, 0]	-999	PAL1	0	R1100D
2027.756	0.275	3365729	STUDY_ORIENT	n/a	n/a	5	3	EAR	n/a	EAR	STORE	14	[0, 0, 0]	-999	PAL1	0	R1100D
2028.656	4.0	3367169	STUDY_PAIR	n/a	wordpools/wordpool_EN.txt	5	3	EAR	n/a	EAR	STORE	14	[0, 0, 0]	-999	PAL1	0	R1100D
2033.674	0.275	3375198	STUDY_ORIENT	n/a	n/a	6	6	SCHOOL	PASS	SCHOOL	SLEEVE	14	[0, 0, 0]	-999	PAL1	0	R1100D
2034.607	4.0	3376690	STUDY_PAIR	n/a	wordpools/wordpool_EN.txt	6	6	SCHOOL	PASS	SCHOOL	SLEEVE	14	[0, 0, 0]	-999	PAL1	0	R1100D
2038.625	0.999	3383119	START	n/a	n/a	-999	-999	n/a	n/a	n/a	n/a	14	[-999, -999, -999]	-999	PAL1	0	R1100D
2039.624	0.017	3384717	MATH_START	n/a	n/a	-999	-999	n/a	n/a	n/a	n/a	14	[0, 0, 0]	-999	PAL1	0	R1100D
2039.641	5.335	3384744	PROB	5310.0	n/a	-999	-999	n/a	n/a	n/a	n/a	14	[3, 7, 4]	14	PAL1	0	R1100D
2044.976	3.801	3393280	PROB	3767.0	n/a	-999	-999	n/a	n/a	n/a	n/a	14	[5, 2, 9]	16	PAL1	0	R1100D
2048.777	2.884	3399361	PROB	2853.0	n/a	-999	-999	n/a	n/a	n/a	n/a	14	[8, 1, 1]	10	PAL1	0	R1100D
2051.661	3.866	3403975	PROB	3833.0	n/a	-999	-999	n/a	n/a	n/a	n/a	14	[5, 6, 1]	12	PAL1	0	R1100D
2055.527	3.001	3410161	PROB	2967.0	n/a	-999	-999	n/a	n/a	n/a	n/a	14	[1, 8, 1]	10	PAL1	0	R1100D
2058.528	4.247	3414962	PROB	4247.0	n/a	-999	-999	n/a	n/a	n/a	n/a	14	[7, 2, 4]	15	PAL1	0	R1100D
2062.775	0.004	3421757	STOP	n/a	n/a	-999	-999	n/a	n/a	n/a	n/a	14	[-999, -999, -999]	-999	PAL1	0	R1100D
2062.779	0.0	3421763	MATH_END	n/a	n/a	-999	-999	n/a	n/a	n/a	n/a	14	[0, 0, 0]	-999	PAL1	0	R1100D
2062.779	0.017	3421763	TEST_START	n/a	n/a	-999	-999	n/a	n/a	n/a	n/a	14	[0, 0, 0]	-999	PAL1	0	R1100D
2062.796	0.275	3421791	TEST_ORIENT	n/a	n/a	3	1	PHONE	PASS	VEST	PHONE	14	[0, 0, 0]	-999	PAL1	0	R1100D
2063.713	4.0	3423258	TEST_PROBE	n/a	wordpools/wordpool_EN.txt	3	1	PHONE	PASS	VEST	PHONE	14	[0, 0, 0]	-999	PAL1	0	R1100D
2063.713	3.395	3423258	REC_START	n/a	n/a	3	-999	n/a	PASS	n/a	n/a	14	[0, 0, 0]	-999	PAL1	0	R1100D
2067.108	1.622	3428689	REC_EVENT	3395.0	n/a	3	1	PHONE	PASS	VEST	PHONE	14	[0, 0, 0]	-999	PAL1	0	R1100D
2068.73	0.017	3431285	REC_END	n/a	n/a	3	-999	n/a	n/a	n/a	n/a	14	[0, 0, 0]	-999	PAL1	0	R1100D
2068.747	0.275	3431312	TEST_ORIENT	n/a	n/a	4	2	BEAK	PASS	CAKE	BEAK	14	[0, 0, 0]	-999	PAL1	0	R1100D
2069.647	4.0	3432752	TEST_PROBE	n/a	wordpools/wordpool_EN.txt	4	2	BEAK	PASS	CAKE	BEAK	14	[0, 0, 0]	-999	PAL1	0	R1100D
2069.648	3.12	3432753	REC_START	n/a	n/a	4	-999	n/a	PASS	n/a	n/a	14	[0, 0, 0]	-999	PAL1	0	R1100D
2072.768	1.888	3437745	REC_EVENT	3120.0	n/a	4	2	BEAK	PASS	CAKE	BEAK	14	[0, 0, 0]	-999	PAL1	0	R1100D
2074.656	0.009	3440766	REC_END	n/a	n/a	4	-999	n/a	n/a	n/a	n/a	14	[0, 0, 0]	-999	PAL1	0	R1100D
2074.665	0.275	3440780	TEST_ORIENT	n/a	n/a	5	3	EAR	n/a	EAR	STORE	14	[0, 0, 0]	-999	PAL1	0	R1100D
2075.481	4.0	3442086	TEST_PROBE	n/a	wordpools/wordpool_EN.txt	5	3	EAR	n/a	EAR	STORE	14	[0, 0, 0]	-999	PAL1	0	R1100D
2075.481	5.015	3442086	REC_START	n/a	n/a	5	-999	n/a	n/a	n/a	n/a	14	[0, 0, 0]	-999	PAL1	0	R1100D
2080.496	0.002	3450109	REC_EVENT	5015.0	n/a	5	3	EAR	<>	EAR	STORE	14	[0, 0, 0]	-999	PAL1	0	R1100D
2080.498	0.017	3450112	REC_END	n/a	n/a	5	-999	n/a	n/a	n/a	n/a	14	[0, 0, 0]	-999	PAL1	0	R1100D
2080.515	0.275	3450140	TEST_ORIENT	n/a	n/a	2	4	MAT	n/a	BOOT	MAT	14	[0, 0, 0]	-999	PAL1	0	R1100D
2081.4	4.0	3451556	TEST_PROBE	n/a	wordpools/wordpool_EN.txt	2	4	MAT	n/a	BOOT	MAT	14	[0, 0, 0]	-999	PAL1	0	R1100D
2081.4	4.103	3451556	REC_START	n/a	n/a	2	-999	n/a	n/a	n/a	n/a	14	[0, 0, 0]	-999	PAL1	0	R1100D
2085.503	0.914	3458120	REC_EVENT	4103.0	n/a	2	4	MAT	<>	BOOT	MAT	14	[0, 0, 0]	-999	PAL1	0	R1100D
2086.417	0.017	3459582	REC_END	n/a	n/a	2	-999	n/a	n/a	n/a	n/a	14	[0, 0, 0]	-999	PAL1	0	R1100D
2086.434	0.275	3459610	TEST_ORIENT	n/a	n/a	1	5	CLOTH	n/a	FLUTE	CLOTH	14	[0, 0, 0]	-999	PAL1	0	R1100D
2087.466	4.0	3461261	TEST_PROBE	n/a	wordpools/wordpool_EN.txt	1	5	CLOTH	n/a	FLUTE	CLOTH	14	[0, 0, 0]	-999	PAL1	0	R1100D
2087.467	5.009	3461262	REC_START	n/a	n/a	1	-999	n/a	n/a	n/a	n/a	14	[0, 0, 0]	-999	PAL1	0	R1100D
2092.476	0.0	3469276	REC_EVENT	5009.0	n/a	1	5	CLOTH	<>	FLUTE	CLOTH	14	[0, 0, 0]	-999	PAL1	0	R1100D
2092.476	0.008	3469276	REC_END	n/a	n/a	1	-999	n/a	n/a	n/a	n/a	14	[0, 0, 0]	-999	PAL1	0	R1100D
2092.484	0.275	3469289	TEST_ORIENT	n/a	n/a	6	6	SCHOOL	PASS	SCHOOL	SLEEVE	14	[0, 0, 0]	-999	PAL1	0	R1100D
2093.435	4.0	3470811	TEST_PROBE	n/a	wordpools/wordpool_EN.txt	6	6	SCHOOL	PASS	SCHOOL	SLEEVE	14	[0, 0, 0]	-999	PAL1	0	R1100D
2093.436	2.114	3470812	REC_START	n/a	n/a	6	-999	n/a	PASS	n/a	n/a	14	[0, 0, 0]	-999	PAL1	0	R1100D
2095.55	2.893	3474194	REC_EVENT	2114.0	n/a	6	6	SCHOOL	PASS	SCHOOL	SLEEVE	14	[0, 0, 0]	-999	PAL1	0	R1100D
2098.443	10.436	3478823	REC_END	n/a	n/a	6	-999	n/a	n/a	n/a	n/a	14	[0, 0, 0]	-999	PAL1	0	R1100D
2108.879	10.444	3495520	ENCODING_START	n/a	n/a	0	-999	n/a	n/a	n/a	n/a	15	[0, 0, 0]	-999	PAL1	0	R1100D
2119.323	0.275	3512229	STUDY_ORIENT	n/a	n/a	1	1	FENCE	PASS	FENCE	SEAL	15	[0, 0, 0]	-999	PAL1	0	R1100D
2120.24	4.0	3513697	STUDY_PAIR	n/a	wordpools/wordpool_EN.txt	1	1	FENCE	PASS	FENCE	SEAL	15	[0, 0, 0]	-999	PAL1	0	R1100D
2125.258	0.275	3521725	STUDY_ORIENT	n/a	n/a	2	2	SHIRT	n/a	MAIL	SHIRT	15	[0, 0, 0]	-999	PAL1	0	R1100D
2126.275	4.0	3523352	STUDY_PAIR	n/a	wordpools/wordpool_EN.txt	2	2	SHIRT	n/a	MAIL	SHIRT	15	[0, 0, 0]	-999	PAL1	0	R1100D
2131.309	0.275	3531406	STUDY_ORIENT	n/a	n/a	3	5	RAT	n/a	WORLD	RAT	15	[0, 0, 0]	-999	PAL1	0	R1100D
2132.209	4.0	3532846	STUDY_PAIR	n/a	wordpools/wordpool_EN.txt	3	5	RAT	n/a	WORLD	RAT	15	[0, 0, 0]	-999	PAL1	0	R1100D
2137.243	0.275	3540900	STUDY_ORIENT	n/a	n/a	4	4	PLANE	n/a	BIRD	PLANE	15	[0, 0, 0]	-999	PAL1	0	R1100D
2138.21	4.0	3542447	STUDY_PAIR	n/a	wordpools/wordpool_EN.txt	4	4	PLANE	n/a	BIRD	PLANE	15	[0, 0, 0]	-999	PAL1	0	R1100D
2143.228	0.275	3550476	STUDY_ORIENT	n/a	n/a	5	3	MOTH	GUARD	HORN	MOTH	15	[0, 0, 0]	-999	PAL1	0	R1100D
2144.045	4.0	3551783	STUDY_PAIR	n/a	wordpools/wordpool_EN.txt	5	3	MOTH	GUARD	HORN	MOTH	15	[0, 0, 0]	-999	PAL1	0	R1100D
2149.079	0.275	3559837	STUDY_ORIENT	n/a	n/a	6	6	SNAIL	PASS	LAMP	SNAIL	15	[0, 0, 0]	-999	PAL1	0	R1100D
2149.896	4.0	3561144	STUDY_PAIR	n/a	wordpools/wordpool_EN.txt	6	6	SNAIL	PASS	LAMP	SNAIL	15	[0, 0, 0]	-999	PAL1	0	R1100D
2153.914	0.999	3567572	START	n/a	n/a	-999	-999	n/a	n/a	n/a	n/a	15	[-999, -999, -999]	-999	PAL1	0	R1100D
2154.913	0.017	3569171	MATH_START	n/a	n/a	-999	-999	n/a	n/a	n/a	n/a	15	[0, 0, 0]	-999	PAL1	0	R1100D
2154.93	7.567	3569198	PROB	7540.0	n/a	-999	-999	n/a	n/a	n/a	n/a	15	[8, 6, 8]	22	PAL1	0	R1100D
2162.497	6.719	3581305	PROB	6686.0	n/a	-999	-999	n/a	n/a	n/a	n/a	15	[8, 8, 4]	18	PAL1	0	R1100D
2169.216	5.575	3592054	PROB	5575.0	n/a	-999	-999	n/a	n/a	n/a	n/a	15	[1, 4, 8]	13	PAL1	0	R1100D
2174.791	0.009	3600974	STOP	n/a	n/a	-999	-999	n/a	n/a	n/a	n/a	15	[-999, -999, -999]	-999	PAL1	0	R1100D
2174.8	0.0	3600988	MATH_END	n/a	n/a	-999	-999	n/a	n/a	n/a	n/a	15	[0, 0, 0]	-999	PAL1	0	R1100D
2174.8	0.017	3600988	TEST_START	n/a	n/a	-999	-999	n/a	n/a	n/a	n/a	15	[0, 0, 0]	-999	PAL1	0	R1100D
2174.817	0.275	3601016	TEST_ORIENT	n/a	n/a	1	1	FENCE	PASS	FENCE	SEAL	15	[0, 0, 0]	-999	PAL1	0	R1100D
2175.867	4.0	3602696	TEST_PROBE	n/a	wordpools/wordpool_EN.txt	1	1	FENCE	PASS	FENCE	SEAL	15	[0, 0, 0]	-999	PAL1	0	R1100D
2175.868	4.425	3602697	REC_START	n/a	n/a	1	-999	n/a	PASS	n/a	n/a	15	[0, 0, 0]	-999	PAL1	0	R1100D
2180.293	0.585	3609777	REC_EVENT	4425.0	n/a	1	1	FENCE	PASS	FENCE	SEAL	15	[0, 0, 0]	-999	PAL1	0	R1100D
2180.878	0.007	3610713	REC_END	n/a	n/a	1	-999	n/a	n/a	n/a	n/a	15	[0, 0, 0]	-999	PAL1	0	R1100D
2180.885	0.275	3610724	TEST_ORIENT	n/a	n/a	2	2	SHIRT	n/a	MAIL	SHIRT	15	[0, 0, 0]	-999	PAL1	0	R1100D
2181.885	4.0	3612324	TEST_PROBE	n/a	wordpools/wordpool_EN.txt	2	2	SHIRT	n/a	MAIL	SHIRT	15	[0, 0, 0]	-999	PAL1	0	R1100D
2181.885	5.015	3612324	REC_START	n/a	n/a	2	-999	n/a	n/a	n/a	n/a	15	[0, 0, 0]	-999	PAL1	0	R1100D
2186.9	0.002	3620347	REC_EVENT	5015.0	n/a	2	2	SHIRT	<>	MAIL	SHIRT	15	[0, 0, 0]	-999	PAL1	0	R1100D
2186.902	0.017	3620351	REC_END	n/a	n/a	2	-999	n/a	n/a	n/a	n/a	15	[0, 0, 0]	-999	PAL1	0	R1100D
2186.919	0.275	3620378	TEST_ORIENT	n/a	n/a	5	3	MOTH	GUARD	HORN	MOTH	15	[0, 0, 0]	-999	PAL1	0	R1100D
2187.903	0.0	3621952	REC_START	n/a	n/a	5	-999	n/a	GUARD	n/a	n/a	15	[0, 0, 0]	-999	PAL1	0	R1100D
2187.903	4.0	3621952	TEST_PROBE	n/a	wordpools/wordpool_EN.txt	5	3	MOTH	GUARD	HORN	MOTH	15	[0, 0, 0]	-999	PAL1	0	R1100D
2192.288	0.632	3628968	REC_EVENT	4385.0	n/a	5	3	MOTH	GUARD	HORN	MOTH	15	[0, 0, 0]	-999	PAL1	0	R1100D
2192.92	0.017	3629979	REC_END	n/a	n/a	5	-999	n/a	n/a	n/a	n/a	15	[0, 0, 0]	-999	PAL1	0	R1100D
2192.937	0.275	3630006	TEST_ORIENT	n/a	n/a	4	4	PLANE	n/a	BIRD	PLANE	15	[0, 0, 0]	-999	PAL1	0	R1100D
2193.754	4.0	3631313	TEST_PROBE	n/a	wordpools/wordpool_EN.txt	4	4	PLANE	n/a	BIRD	PLANE	15	[0, 0, 0]	-999	PAL1	0	R1100D
2193.754	5.015	3631313	REC_START	n/a	n/a	4	-999	n/a	n/a	n/a	n/a	15	[0, 0, 0]	-999	PAL1	0	R1100D
2198.769	0.002	3639337	REC_EVENT	5015.0	n/a	4	4	PLANE	<>	BIRD	PLANE	15	[0, 0, 0]	-999	PAL1	0	R1100D
2198.771	0.017	3639340	REC_END	n/a	n/a	4	-999	n/a	n/a	n/a	n/a	15	[0, 0, 0]	-999	PAL1	0	R1100D
2198.788	0.275	3639367	TEST_ORIENT	n/a	n/a	3	5	RAT	n/a	WORLD	RAT	15	[0, 0, 0]	-999	PAL1	0	R1100D
2199.771	4.0	3640940	TEST_PROBE	n/a	wordpools/wordpool_EN.txt	3	5	RAT	n/a	WORLD	RAT	15	[0, 0, 0]	-999	PAL1	0	R1100D
2199.772	5.003	3640942	REC_START	n/a	n/a	3	-999	n/a	n/a	n/a	n/a	15	[0, 0, 0]	-999	PAL1	0	R1100D
2204.775	0.006	3648946	REC_EVENT	5003.0	n/a	3	5	RAT	<>	WORLD	RAT	15	[0, 0, 0]	-999	PAL1	0	R1100D
2204.781	0.008	3648956	REC_END	n/a	n/a	3	-999	n/a	n/a	n/a	n/a	15	[0, 0, 0]	-999	PAL1	0	R1100D
2204.789	0.275	3648968	TEST_ORIENT	n/a	n/a	6	6	SNAIL	PASS	LAMP	SNAIL	15	[0, 0, 0]	-999	PAL1	0	R1100D
2205.656	4.0	3650356	TEST_PROBE	n/a	wordpools/wordpool_EN.txt	6	6	SNAIL	PASS	LAMP	SNAIL	15	[0, 0, 0]	-999	PAL1	0	R1100D
2205.657	3.403	3650357	REC_START	n/a	n/a	6	-999	n/a	PASS	n/a	n/a	15	[0, 0, 0]	-999	PAL1	0	R1100D
2209.06	1.613	3655802	REC_EVENT	3403.0	n/a	6	6	SNAIL	PASS	LAMP	SNAIL	15	[0, 0, 0]	-999	PAL1	0	R1100D
2210.673	6.414	3658382	REC_END	n/a	n/a	6	-999	n/a	n/a	n/a	n/a	15	[0, 0, 0]	-999	PAL1	0	R1100D
2217.087	10.439	3668644	ENCODING_START	n/a	n/a	0	-999	n/a	n/a	n/a	n/a	16	[0, 0, 0]	-999	PAL1	0	R1100D
2227.526	0.275	3685346	STUDY_ORIENT	n/a	n/a	1	1	FISH	NOSE	FISH	NOSE	16	[0, 0, 0]	-999	PAL1	0	R1100D
2228.36	4.0	3686680	STUDY_PAIR	n/a	wordpools/wordpool_EN.txt	1	1	FISH	NOSE	FISH	NOSE	16	[0, 0, 0]	-999	PAL1	0	R1100D
2233.378	0.275	3694709	STUDY_ORIENT	n/a	n/a	2	4	PEACH	FUR	FUR	PEACH	16	[0, 0, 0]	-999	PAL1	0	R1100D
2234.361	4.0	3696281	STUDY_PAIR	n/a	wordpools/wordpool_EN.txt	2	4	PEACH	FUR	FUR	PEACH	16	[0, 0, 0]	-999	PAL1	0	R1100D
2239.379	0.275	3704310	STUDY_ORIENT	n/a	n/a	3	3	VINE	n/a	WAVE	VINE	16	[0, 0, 0]	-999	PAL1	0	R1100D
2240.396	4.0	3705937	STUDY_PAIR	n/a	wordpools/wordpool_EN.txt	3	3	VINE	n/a	WAVE	VINE	16	[0, 0, 0]	-999	PAL1	0	R1100D
2245.43	0.275	3713991	STUDY_ORIENT	n/a	n/a	4	2	CLOUD	PASS	SPRING	CLOUD	16	[0, 0, 0]	-999	PAL1	0	R1100D
2246.38	4.0	3715511	STUDY_PAIR	n/a	wordpools/wordpool_EN.txt	4	2	CLOUD	PASS	SPRING	CLOUD	16	[0, 0, 0]	-999	PAL1	0	R1100D
2251.398	0.275	3723539	STUDY_ORIENT	n/a	n/a	5	5	PANTS	JEEP	PANTS	JEEP	16	[0, 0, 0]	-999	PAL1	0	R1100D
2252.315	4.0	3725006	STUDY_PAIR	n/a	wordpools/wordpool_EN.txt	5	5	PANTS	JEEP	PANTS	JEEP	16	[0, 0, 0]	-999	PAL1	0	R1100D
2257.349	0.275	3733060	STUDY_ORIENT	n/a	n/a	6	6	STONE	n/a	LEG	STONE	16	[0, 0, 0]	-999	PAL1	0	R1100D
2258.266	4.0	3734528	STUDY_PAIR	n/a	wordpools/wordpool_EN.txt	6	6	STONE	n/a	LEG	STONE	16	[0, 0, 0]	-999	PAL1	0	R1100D
2262.284	0.999	3740956	START	n/a	n/a	-999	-999	n/a	n/a	n/a	n/a	16	[-999, -999, -999]	-999	PAL1	0	R1100D
2263.283	0.017	3742554	MATH_START	n/a	n/a	-999	-999	n/a	n/a	n/a	n/a	16	[0, 0, 0]	-999	PAL1	0	R1100D
2263.3	4.118	3742582	PROB	4099.0	n/a	-999	-999	n/a	n/a	n/a	n/a	16	[8, 4, 3]	15	PAL1	0	R1100D
2267.418	3.216	3749170	PROB	3188.0	n/a	-999	-999	n/a	n/a	n/a	n/a	16	[2, 7, 7]	16	PAL1	0	R1100D
2270.634	3.501	3754315	PROB	3477.0	n/a	-999	-999	n/a	n/a	n/a	n/a	16	[7, 7, 8]	22	PAL1	0	R1100D
2274.135	3.818	3759917	PROB	3792.0	n/a	-999	-999	n/a	n/a	n/a	n/a	16	[5, 9, 4]	18	PAL1	0	R1100D
2277.953	4.134	3766025	PROB	4102.0	n/a	-999	-999	n/a	n/a	n/a	n/a	16	[8, 7, 7]	22	PAL1	0	R1100D
2282.087	3.928	3772639	PROB	3928.0	n/a	-999	-999	n/a	n/a	n/a	n/a	16	[1, 6, 9]	16	PAL1	0	R1100D
2286.015	0.006	3778924	STOP	n/a	n/a	-999	-999	n/a	n/a	n/a	n/a	16	[-999, -999, -999]	-999	PAL1	0	R1100D
2286.021	0.0	3778933	MATH_END	n/a	n/a	-999	-999	n/a	n/a	n/a	n/a	16	[0, 0, 0]	-999	PAL1	0	R1100D
2286.021	0.017	3778933	TEST_START	n/a	n/a	-999	-999	n/a	n/a	n/a	n/a	16	[0, 0, 0]	-999	PAL1	0	R1100D
2286.038	0.275	3778961	TEST_ORIENT	n/a	n/a	1	1	FISH	NOSE	FISH	NOSE	16	[0, 0, 0]	-999	PAL1	0	R1100D
2286.904	4.0	3780346	TEST_PROBE	n/a	wordpools/wordpool_EN.txt	1	1	FISH	NOSE	FISH	NOSE	16	[0, 0, 0]	-999	PAL1	0	R1100D
2286.905	1.498	3780348	REC_START	n/a	n/a	1	-999	n/a	NOSE	n/a	n/a	16	[0, 0, 0]	-999	PAL1	0	R1100D
2288.403	3.512	3782744	REC_EVENT	1498.0	n/a	1	1	FISH	NOSE	FISH	NOSE	16	[0, 0, 0]	-999	PAL1	0	R1100D
2291.915	0.007	3788363	REC_END	n/a	n/a	1	-999	n/a	n/a	n/a	n/a	16	[0, 0, 0]	-999	PAL1	0	R1100D
2291.922	0.275	3788375	TEST_ORIENT	n/a	n/a	4	2	CLOUD	PASS	SPRING	CLOUD	16	[0, 0, 0]	-999	PAL1	0	R1100D
2292.872	4.0	3789894	TEST_PROBE	n/a	wordpools/wordpool_EN.txt	4	2	CLOUD	PASS	SPRING	CLOUD	16	[0, 0, 0]	-999	PAL1	0	R1100D
2292.873	2.262	3789896	REC_START	n/a	n/a	4	-999	n/a	PASS	n/a	n/a	16	[0, 0, 0]	-999	PAL1	0	R1100D
2295.135	2.747	3793515	REC_EVENT	2262.0	n/a	4	2	CLOUD	PASS	SPRING	CLOUD	16	[0, 0, 0]	-999	PAL1	0	R1100D
2297.882	0.008	3797910	REC_END	n/a	n/a	4	-999	n/a	n/a	n/a	n/a	16	[0, 0, 0]	-999	PAL1	0	R1100D
2297.89	0.275	3797923	TEST_ORIENT	n/a	n/a	3	3	VINE	n/a	WAVE	VINE	16	[0, 0, 0]	-999	PAL1	0	R1100D
2298.757	0.0	3799310	REC_START	n/a	n/a	3	-999	n/a	n/a	n/a	n/a	16	[0, 0, 0]	-999	PAL1	0	R1100D
2298.757	4.0	3799310	TEST_PROBE	n/a	wordpools/wordpool_EN.txt	3	3	VINE	n/a	WAVE	VINE	16	[0, 0, 0]	-999	PAL1	0	R1100D
2302.756	1.018	3805708	REC_EVENT	3999.0	n/a	3	3	VINE	<>	WAVE	VINE	16	[0, 0, 0]	-999	PAL1	0	R1100D
2303.774	0.017	3807337	REC_END	n/a	n/a	3	-999	n/a	n/a	n/a	n/a	16	[0, 0, 0]	-999	PAL1	0	R1100D
2303.791	0.275	3807364	TEST_ORIENT	n/a	n/a	2	4	PEACH	FUR	FUR	PEACH	16	[0, 0, 0]	-999	PAL1	0	R1100D
2304.774	4.0	3808937	TEST_PROBE	n/a	wordpools/wordpool_EN.txt	2	4	PEACH	FUR	FUR	PEACH	16	[0, 0, 0]	-999	PAL1	0	R1100D
2304.775	0.978	3808938	REC_START	n/a	n/a	2	-999	n/a	FUR	n/a	n/a	16	[0, 0, 0]	-999	PAL1	0	R1100D
2305.753	4.032	3810503	REC_EVENT	978.0	n/a	2	4	PEACH	FUR	FUR	PEACH	16	[0, 0, 0]	-999	PAL1	0	R1100D
2309.785	0.007	3816954	REC_END	n/a	n/a	2	-999	n/a	n/a	n/a	n/a	16	[0, 0, 0]	-999	PAL1	0	R1100D
2309.792	0.275	3816965	TEST_ORIENT	n/a	n/a	5	5	PANTS	JEEP	PANTS	JEEP	16	[0, 0, 0]	-999	PAL1	0	R1100D
2310.642	4.0	3818325	TEST_PROBE	n/a	wordpools/wordpool_EN.txt	5	5	PANTS	JEEP	PANTS	JEEP	16	[0, 0, 0]	-999	PAL1	0	R1100D
2310.643	1.902	3818327	REC_START	n/a	n/a	5	-999	n/a	JEEP	n/a	n/a	16	[0, 0, 0]	-999	PAL1	0	R1100D
2312.545	3.125	3821370	REC_EVENT	1902.0	n/a	5	5	PANTS	JEEP	PANTS	JEEP	16	[0, 0, 0]	-999	PAL1	0	R1100D
2315.67	0.006	3826370	REC_END	n/a	n/a	5	-999	n/a	n/a	n/a	n/a	16	[0, 0, 0]	-999	PAL1	0	R1100D
2315.676	0.275	3826379	TEST_ORIENT	n/a	n/a	6	6	STONE	n/a	LEG	STONE	16	[0, 0, 0]	-999	PAL1	0	R1100D
2316.492	4.0	3827685	TEST_PROBE	n/a	wordpools/wordpool_EN.txt	6	6	STONE	n/a	LEG	STONE	16	[0, 0, 0]	-999	PAL1	0	R1100D
2316.493	5.009	3827686	REC_START	n/a	n/a	6	-999	n/a	n/a	n/a	n/a	16	[0, 0, 0]	-999	PAL1	0	R1100D
2321.502	0.001	3835700	REC_EVENT	5009.0	n/a	6	6	STONE	<>	LEG	STONE	16	[0, 0, 0]	-999	PAL1	0	R1100D
2321.503	9.248	3835702	REC_END	n/a	n/a	6	-999	n/a	n/a	n/a	n/a	16	[0, 0, 0]	-999	PAL1	0	R1100D
2330.751	10.447	3850498	ENCODING_START	n/a	n/a	0	-999	n/a	n/a	n/a	n/a	17	[0, 0, 0]	-999	PAL1	0	R1100D
2341.198	0.275	3867212	STUDY_ORIENT	n/a	n/a	1	1	JUDGE	n/a	INK	JUDGE	17	[0, 0, 0]	-999	PAL1	0	R1100D
2342.081	4.0	3868625	STUDY_PAIR	n/a	wordpools/wordpool_EN.txt	1	1	JUDGE	n/a	INK	JUDGE	17	[0, 0, 0]	-999	PAL1	0	R1100D
2347.099	0.275	3876653	STUDY_ORIENT	n/a	n/a	2	4	SNAKE	n/a	SNAKE	CAR	17	[0, 0, 0]	-999	PAL1	0	R1100D
2347.949	4.0	3878013	STUDY_PAIR	n/a	wordpools/wordpool_EN.txt	2	4	SNAKE	n/a	SNAKE	CAR	17	[0, 0, 0]	-999	PAL1	0	R1100D
2352.967	0.275	3886042	STUDY_ORIENT	n/a	n/a	3	3	FORT	n/a	FORT	GLOVE	17	[0, 0, 0]	-999	PAL1	0	R1100D
2353.884	4.0	3887509	STUDY_PAIR	n/a	wordpools/wordpool_EN.txt	3	3	FORT	n/a	FORT	GLOVE	17	[0, 0, 0]	-999	PAL1	0	R1100D
2358.918	0.275	3895563	STUDY_ORIENT	n/a	n/a	4	2	CORN	PASS	CORN	STRAW	17	[0, 0, 0]	-999	PAL1	0	R1100D
2359.734	4.0	3896869	STUDY_PAIR	n/a	wordpools/wordpool_EN.txt	4	2	CORN	PASS	CORN	STRAW	17	[0, 0, 0]	-999	PAL1	0	R1100D
2364.752	0.275	3904897	STUDY_ORIENT	n/a	n/a	5	5	STOVE	n/a	STOVE	FOOD	17	[0, 0, 0]	-999	PAL1	0	R1100D
2365.551	4.0	3906175	STUDY_PAIR	n/a	wordpools/wordpool_EN.txt	5	5	STOVE	n/a	STOVE	FOOD	17	[0, 0, 0]	-999	PAL1	0	R1100D
2370.569	0.275	3914204	STUDY_ORIENT	n/a	n/a	6	6	WOOD	n/a	STICK	WOOD	17	[0, 0, 0]	-999	PAL1	0	R1100D
2371.403	4.0	3915538	STUDY_PAIR	n/a	wordpools/wordpool_EN.txt	6	6	WOOD	n/a	STICK	WOOD	17	[0, 0, 0]	-999	PAL1	0	R1100D
2375.404	1.0	3921939	START	n/a	n/a	-999	-999	n/a	n/a	n/a	n/a	17	[-999, -999, -999]	-999	PAL1	0	R1100D
2376.404	0.017	3923539	MATH_START	n/a	n/a	-999	-999	n/a	n/a	n/a	n/a	17	[0, 0, 0]	-999	PAL1	0	R1100D
2376.421	4.868	3923566	PROB	4834.0	n/a	-999	-999	n/a	n/a	n/a	n/a	17	[5, 6, 6]	17	PAL1	0	R1100D
2381.289	6.233	3931355	PROB	6213.0	n/a	-999	-999	n/a	n/a	n/a	n/a	17	[2, 6, 1]	9	PAL1	0	R1100D
2387.522	4.951	3941327	PROB	4932.0	n/a	-999	-999	n/a	n/a	n/a	n/a	17	[9, 2, 6]	17	PAL1	0	R1100D
2392.473	4.214	3949248	PROB	4214.0	n/a	-999	-999	n/a	n/a	n/a	n/a	17	[4, 5, 6]	15	PAL1	0	R1100D
2396.687	0.005	3955990	STOP	n/a	n/a	-999	-999	n/a	n/a	n/a	n/a	17	[-999, -999, -999]	-999	PAL1	0	R1100D
2396.692	0.0	3955998	MATH_END	n/a	n/a	-999	-999	n/a	n/a	n/a	n/a	17	[0, 0, 0]	-999	PAL1	0	R1100D
2396.692	0.016	3955998	TEST_START	n/a	n/a	-999	-999	n/a	n/a	n/a	n/a	17	[0, 0, 0]	-999	PAL1	0	R1100D
2396.708	0.275	3956024	TEST_ORIENT	n/a	n/a	1	1	JUDGE	n/a	INK	JUDGE	17	[0, 0, 0]	-999	PAL1	0	R1100D
2397.557	4.0	3957382	TEST_PROBE	n/a	wordpools/wordpool_EN.txt	1	1	JUDGE	n/a	INK	JUDGE	17	[0, 0, 0]	-999	PAL1	0	R1100D
2397.558	5.02	3957384	REC_START	n/a	n/a	1	-999	n/a	n/a	n/a	n/a	17	[0, 0, 0]	-999	PAL1	0	R1100D
2402.578	0.001	3965416	REC_END	n/a	n/a	1	-999	n/a	n/a	n/a	n/a	17	[0, 0, 0]	-999	PAL1	0	R1100D
2402.579	0.013	3965417	REC_EVENT	5021.0	n/a	1	1	JUDGE	<>	INK	JUDGE	17	[0, 0, 0]	-999	PAL1	0	R1100D
2402.592	0.275	3965438	TEST_ORIENT	n/a	n/a	4	2	CORN	PASS	CORN	STRAW	17	[0, 0, 0]	-999	PAL1	0	R1100D
2403.442	4.0	3966798	TEST_PROBE	n/a	wordpools/wordpool_EN.txt	4	2	CORN	PASS	CORN	STRAW	17	[0, 0, 0]	-999	PAL1	0	R1100D
2403.442	4.62	3966798	REC_START	n/a	n/a	4	-999	n/a	PASS	n/a	n/a	17	[0, 0, 0]	-999	PAL1	0	R1100D
2408.062	0.397	3974190	REC_EVENT	4620.0	n/a	4	2	CORN	PASS	CORN	STRAW	17	[0, 0, 0]	-999	PAL1	0	R1100D
2408.459	0.017	3974825	REC_END	n/a	n/a	4	-999	n/a	n/a	n/a	n/a	17	[0, 0, 0]	-999	PAL1	0	R1100D
2408.476	0.275	3974852	TEST_ORIENT	n/a	n/a	3	3	FORT	n/a	FORT	GLOVE	17	[0, 0, 0]	-999	PAL1	0	R1100D
2409.493	4.0	3976479	TEST_PROBE	n/a	wordpools/wordpool_EN.txt	3	3	FORT	n/a	FORT	GLOVE	17	[0, 0, 0]	-999	PAL1	0	R1100D
2409.493	5.015	3976479	REC_START	n/a	n/a	3	-999	n/a	n/a	n/a	n/a	17	[0, 0, 0]	-999	PAL1	0	R1100D
2414.508	0.002	3984503	REC_EVENT	5015.0	n/a	3	3	FORT	<>	FORT	GLOVE	17	[0, 0, 0]	-999	PAL1	0	R1100D
2414.51	0.017	3984506	REC_END	n/a	n/a	3	-999	n/a	n/a	n/a	n/a	17	[0, 0, 0]	-999	PAL1	0	R1100D
2414.527	0.275	3984533	TEST_ORIENT	n/a	n/a	2	4	SNAKE	n/a	SNAKE	CAR	17	[0, 0, 0]	-999	PAL1	0	R1100D
2415.511	4.0	3986107	TEST_PROBE	n/a	wordpools/wordpool_EN.txt	2	4	SNAKE	n/a	SNAKE	CAR	17	[0, 0, 0]	-999	PAL1	0	R1100D
2415.511	4.73	3986107	REC_START	n/a	n/a	2	-999	n/a	n/a	n/a	n/a	17	[0, 0, 0]	-999	PAL1	0	R1100D
2420.241	0.287	3993675	REC_EVENT	4730.0	n/a	2	4	SNAKE	<>	SNAKE	CAR	17	[0, 0, 0]	-999	PAL1	0	R1100D
2420.528	0.017	3994134	REC_END	n/a	n/a	2	-999	n/a	n/a	n/a	n/a	17	[0, 0, 0]	-999	PAL1	0	R1100D
2420.545	0.275	3994161	TEST_ORIENT	n/a	n/a	5	5	STOVE	n/a	STOVE	FOOD	17	[0, 0, 0]	-999	PAL1	0	R1100D
2421.329	4.0	3995416	TEST_PROBE	n/a	wordpools/wordpool_EN.txt	5	5	STOVE	n/a	STOVE	FOOD	17	[0, 0, 0]	-999	PAL1	0	R1100D
2421.33	5.009	3995417	REC_START	n/a	n/a	5	-999	n/a	n/a	n/a	n/a	17	[0, 0, 0]	-999	PAL1	0	R1100D
2426.339	0.0	4003431	REC_EVENT	5009.0	n/a	5	5	STOVE	<>	STOVE	FOOD	17	[0, 0, 0]	-999	PAL1	0	R1100D
2426.339	0.008	4003431	REC_END	n/a	n/a	5	-999	n/a	n/a	n/a	n/a	17	[0, 0, 0]	-999	PAL1	0	R1100D
2426.347	0.275	4003444	TEST_ORIENT	n/a	n/a	6	6	WOOD	n/a	STICK	WOOD	17	[0, 0, 0]	-999	PAL1	0	R1100D
2427.364	4.0	4005071	TEST_PROBE	n/a	wordpools/wordpool_EN.txt	6	6	WOOD	n/a	STICK	WOOD	17	[0, 0, 0]	-999	PAL1	0	R1100D
2427.365	5.025	4005073	REC_START	n/a	n/a	6	-999	n/a	n/a	n/a	n/a	17	[0, 0, 0]	-999	PAL1	0	R1100D
2432.39	0.002	4013113	REC_END	n/a	n/a	6	-999	n/a	n/a	n/a	n/a	17	[0, 0, 0]	-999	PAL1	0	R1100D
2432.392	7.463	4013116	REC_EVENT	5027.0	n/a	6	6	WOOD	<>	STICK	WOOD	17	[0, 0, 0]	-999	PAL1	0	R1100D
2439.855	10.446	4025056	ENCODING_START	n/a	n/a	0	-999	n/a	n/a	n/a	n/a	18	[0, 0, 0]	-999	PAL1	0	R1100D
2450.301	0.275	4041769	STUDY_ORIENT	n/a	n/a	1	1	CALF	SUN	CALF	SUN	18	[0, 0, 0]	-999	PAL1	0	R1100D
2451.152	4.0	4043130	STUDY_PAIR	n/a	wordpools/wordpool_EN.txt	1	1	CALF	SUN	CALF	SUN	18	[0, 0, 0]	-999	PAL1	0	R1100D
2456.186	0.275	4051184	STUDY_ORIENT	n/a	n/a	2	4	FILM	PASS	FILM	MOON	18	[0, 0, 0]	-999	PAL1	0	R1100D
2457.103	4.0	4052651	STUDY_PAIR	n/a	wordpools/wordpool_EN.txt	2	4	FILM	PASS	FILM	MOON	18	[0, 0, 0]	-999	PAL1	0	R1100D
2462.137	0.275	4060705	STUDY_ORIENT	n/a	n/a	3	3	SEA	PASS	VAN	SEA	18	[0, 0, 0]	-999	PAL1	0	R1100D
2463.07	4.0	4062198	STUDY_PAIR	n/a	wordpools/wordpool_EN.txt	3	3	SEA	PASS	VAN	SEA	18	[0, 0, 0]	-999	PAL1	0	R1100D
2468.088	0.275	4070227	STUDY_ORIENT	n/a	n/a	4	6	SHRIMP	n/a	KEY	SHRIMP	18	[0, 0, 0]	-999	PAL1	0	R1100D
2469.038	4.0	4071746	STUDY_PAIR	n/a	wordpools/wordpool_EN.txt	4	6	SHRIMP	n/a	KEY	SHRIMP	18	[0, 0, 0]	-999	PAL1	0	R1100D
2474.056	0.275	4079775	STUDY_ORIENT	n/a	n/a	5	5	STAR	n/a	TOOTH	STAR	18	[0, 0, 0]	-999	PAL1	0	R1100D
2474.956	4.0	4081215	STUDY_PAIR	n/a	wordpools/wordpool_EN.txt	5	5	STAR	n/a	TOOTH	STAR	18	[0, 0, 0]	-999	PAL1	0	R1100D
2479.99	0.275	4089269	STUDY_ORIENT	n/a	n/a	6	2	FORK	PASS	CANE	FORK	18	[0, 0, 0]	-999	PAL1	0	R1100D
2480.891	4.0	4090710	STUDY_PAIR	n/a	wordpools/wordpool_EN.txt	6	2	FORK	PASS	CANE	FORK	18	[0, 0, 0]	-999	PAL1	0	R1100D
2484.908	1.0	4097137	START	n/a	n/a	-999	-999	n/a	n/a	n/a	n/a	18	[-999, -999, -999]	-999	PAL1	0	R1100D
2485.908	0.017	4098737	MATH_START	n/a	n/a	-999	-999	n/a	n/a	n/a	n/a	18	[0, 0, 0]	-999	PAL1	0	R1100D
2485.925	7.101	4098764	PROB	7082.0	n/a	-999	-999	n/a	n/a	n/a	n/a	18	[4, 4, 9]	17	PAL1	0	R1100D
2493.026	3.634	4110125	PROB	3612.0	n/a	-999	-999	n/a	n/a	n/a	n/a	18	[2, 1, 7]	10	PAL1	0	R1100D
2496.66	4.618	4115940	PROB	4587.0	n/a	-999	-999	n/a	n/a	n/a	n/a	18	[4, 1, 2]	7	PAL1	0	R1100D
2501.278	2.133	4123328	PROB	2113.0	n/a	-999	-999	n/a	n/a	n/a	n/a	18	[5, 1, 1]	7	PAL1	0	R1100D
2503.411	4.86	4126741	PROB	4860.0	n/a	-999	-999	n/a	n/a	n/a	n/a	18	[8, 9, 6]	23	PAL1	0	R1100D
2508.271	0.008	4134516	STOP	n/a	n/a	-999	-999	n/a	n/a	n/a	n/a	18	[-999, -999, -999]	-999	PAL1	0	R1100D
2508.279	0.0	4134529	MATH_END	n/a	n/a	-999	-999	n/a	n/a	n/a	n/a	18	[0, 0, 0]	-999	PAL1	0	R1100D
2508.279	0.017	4134529	TEST_START	n/a	n/a	-999	-999	n/a	n/a	n/a	n/a	18	[0, 0, 0]	-999	PAL1	0	R1100D
2508.296	0.275	4134556	TEST_ORIENT	n/a	n/a	1	1	CALF	SUN	CALF	SUN	18	[0, 0, 0]	-999	PAL1	0	R1100D
2509.262	4.0	4136102	TEST_PROBE	n/a	wordpools/wordpool_EN.txt	1	1	CALF	SUN	CALF	SUN	18	[0, 0, 0]	-999	PAL1	0	R1100D
2509.262	1.978	4136102	REC_START	n/a	n/a	1	-999	n/a	SUN	n/a	n/a	18	[0, 0, 0]	-999	PAL1	0	R1100D
2511.24	3.04	4139266	REC_EVENT	1978.0	n/a	1	1	CALF	SUN	CALF	SUN	18	[0, 0, 0]	-999	PAL1	0	R1100D
2514.28	0.017	4144130	REC_END	n/a	n/a	1	-999	n/a	n/a	n/a	n/a	18	[0, 0, 0]	-999	PAL1	0	R1100D
2514.297	0.275	4144157	TEST_ORIENT	n/a	n/a	6	2	FORK	PASS	CANE	FORK	18	[0, 0, 0]	-999	PAL1	0	R1100D
2515.197	4.0	4145597	TEST_PROBE	n/a	wordpools/wordpool_EN.txt	6	2	FORK	PASS	CANE	FORK	18	[0, 0, 0]	-999	PAL1	0	R1100D
2515.198	2.71	4145599	REC_START	n/a	n/a	6	-999	n/a	PASS	n/a	n/a	18	[0, 0, 0]	-999	PAL1	0	R1100D
2517.908	2.306	4149935	REC_EVENT	2710.0	n/a	6	2	FORK	PASS	CANE	FORK	18	[0, 0, 0]	-999	PAL1	0	R1100D
2520.214	0.017	4153624	REC_END	n/a	n/a	6	-999	n/a	n/a	n/a	n/a	18	[0, 0, 0]	-999	PAL1	0	R1100D
2520.231	0.275	4153651	TEST_ORIENT	n/a	n/a	3	3	SEA	PASS	VAN	SEA	18	[0, 0, 0]	-999	PAL1	0	R1100D
2521.081	4.0	4155011	TEST_PROBE	n/a	wordpools/wordpool_EN.txt	3	3	SEA	PASS	VAN	SEA	18	[0, 0, 0]	-999	PAL1	0	R1100D
2521.082	4.046	4155013	REC_START	n/a	n/a	3	-999	n/a	PASS	n/a	n/a	18	[0, 0, 0]	-999	PAL1	0	R1100D
2525.128	0.964	4161486	REC_EVENT	4046.0	n/a	3	3	SEA	PASS	VAN	SEA	18	[0, 0, 0]	-999	PAL1	0	R1100D
2526.092	0.007	4163028	REC_END	n/a	n/a	3	-999	n/a	n/a	n/a	n/a	18	[0, 0, 0]	-999	PAL1	0	R1100D
2526.099	0.275	4163040	TEST_ORIENT	n/a	n/a	2	4	FILM	PASS	FILM	MOON	18	[0, 0, 0]	-999	PAL1	0	R1100D
2527.099	4.0	4164640	TEST_PROBE	n/a	wordpools/wordpool_EN.txt	2	4	FILM	PASS	FILM	MOON	18	[0, 0, 0]	-999	PAL1	0	R1100D
2527.1	4.166	4164641	REC_START	n/a	n/a	2	-999	n/a	PASS	n/a	n/a	18	[0, 0, 0]	-999	PAL1	0	R1100D
2531.266	0.861	4171306	REC_EVENT	4166.0	n/a	2	4	FILM	PASS	FILM	MOON	18	[0, 0, 0]	-999	PAL1	0	R1100D
2532.127	0.023	4172684	REC_END	n/a	n/a	2	-999	n/a	n/a	n/a	n/a	18	[0, 0, 0]	-999	PAL1	0	R1100D
2532.15	0.275	4172721	TEST_ORIENT	n/a	n/a	5	5	STAR	n/a	TOOTH	STAR	18	[0, 0, 0]	-999	PAL1	0	R1100D
2533.1	4.0	4174241	TEST_PROBE	n/a	wordpools/wordpool_EN.txt	5	5	STAR	n/a	TOOTH	STAR	18	[0, 0, 0]	-999	PAL1	0	R1100D
2533.101	5.009	4174242	REC_START	n/a	n/a	5	-999	n/a	n/a	n/a	n/a	18	[0, 0, 0]	-999	PAL1	0	R1100D
2538.11	0.001	4182256	REC_EVENT	5009.0	n/a	5	5	STAR	<>	TOOTH	STAR	18	[0, 0, 0]	-999	PAL1	0	R1100D
2538.111	0.006	4182258	REC_END	n/a	n/a	5	-999	n/a	n/a	n/a	n/a	18	[0, 0, 0]	-999	PAL1	0	R1100D
2538.117	0.275	4182268	TEST_ORIENT	n/a	n/a	4	6	SHRIMP	n/a	KEY	SHRIMP	18	[0, 0, 0]	-999	PAL1	0	R1100D
2539.084	4.0	4183815	TEST_PROBE	n/a	wordpools/wordpool_EN.txt	4	6	SHRIMP	n/a	KEY	SHRIMP	18	[0, 0, 0]	-999	PAL1	0	R1100D
2539.085	5.009	4183816	REC_START	n/a	n/a	4	-999	n/a	n/a	n/a	n/a	18	[0, 0, 0]	-999	PAL1	0	R1100D
2544.094	0.001	4191830	REC_EVENT	5009.0	n/a	4	6	SHRIMP	<>	KEY	SHRIMP	18	[0, 0, 0]	-999	PAL1	0	R1100D
2544.095	6.152	4191832	REC_END	n/a	n/a	4	-999	n/a	n/a	n/a	n/a	18	[0, 0, 0]	-999	PAL1	0	R1100D
2550.247	10.442	4201675	ENCODING_START	n/a	n/a	0	-999	n/a	n/a	n/a	n/a	19	[0, 0, 0]	-999	PAL1	0	R1100D
2560.689	0.275	4218381	STUDY_ORIENT	n/a	n/a	1	5	CLIFF	n/a	BATH	CLIFF	19	[0, 0, 0]	-999	PAL1	0	R1100D
2561.504	4.0	4219685	STUDY_PAIR	n/a	wordpools/wordpool_EN.txt	1	5	CLIFF	n/a	BATH	CLIFF	19	[0, 0, 0]	-999	PAL1	0	R1100D
2566.522	0.275	4227713	STUDY_ORIENT	n/a	n/a	2	6	HAWK	PASS	HAWK	PIE	19	[0, 0, 0]	-999	PAL1	0	R1100D
2567.456	4.0	4229208	STUDY_PAIR	n/a	wordpools/wordpool_EN.txt	2	6	HAWK	PASS	HAWK	PIE	19	[0, 0, 0]	-999	PAL1	0	R1100D
2572.49	0.275	4237262	STUDY_ORIENT	n/a	n/a	3	3	PEA	PASS	CAPE	PEA	19	[0, 0, 0]	-999	PAL1	0	R1100D
2573.473	4.0	4238834	STUDY_PAIR	n/a	wordpools/wordpool_EN.txt	3	3	PEA	PASS	CAPE	PEA	19	[0, 0, 0]	-999	PAL1	0	R1100D
2578.491	0.275	4246863	STUDY_ORIENT	n/a	n/a	4	2	WEED	n/a	WEED	BRUSH	19	[0, 0, 0]	-999	PAL1	0	R1100D
2579.342	4.0	4248224	STUDY_PAIR	n/a	wordpools/wordpool_EN.txt	4	2	WEED	n/a	WEED	BRUSH	19	[0, 0, 0]	-999	PAL1	0	R1100D
2584.36	0.275	4256253	STUDY_ORIENT	n/a	n/a	5	1	FOG	PASS	TANK	FOG	19	[0, 0, 0]	-999	PAL1	0	R1100D
2585.21	4.0	4257613	STUDY_PAIR	n/a	wordpools/wordpool_EN.txt	5	1	FOG	PASS	TANK	FOG	19	[0, 0, 0]	-999	PAL1	0	R1100D
2590.244	0.275	4265667	STUDY_ORIENT	n/a	n/a	6	4	HOUSE	n/a	ELF	HOUSE	19	[0, 0, 0]	-999	PAL1	0	R1100D
2591.044	4.0	4266947	STUDY_PAIR	n/a	wordpools/wordpool_EN.txt	6	4	HOUSE	n/a	ELF	HOUSE	19	[0, 0, 0]	-999	PAL1	0	R1100D
2595.045	1.0	4273348	START	n/a	n/a	-999	-999	n/a	n/a	n/a	n/a	19	[-999, -999, -999]	-999	PAL1	0	R1100D
2596.045	0.017	4274948	MATH_START	n/a	n/a	-999	-999	n/a	n/a	n/a	n/a	19	[0, 0, 0]	-999	PAL1	0	R1100D
2596.062	3.967	4274975	PROB	3945.0	n/a	-999	-999	n/a	n/a	n/a	n/a	19	[9, 7, 1]	17	PAL1	0	R1100D
2600.029	3.401	4281322	PROB	3378.0	n/a	-999	-999	n/a	n/a	n/a	n/a	19	[5, 3, 5]	13	PAL1	0	R1100D
2603.43	4.551	4286763	PROB	4529.0	n/a	-999	-999	n/a	n/a	n/a	n/a	19	[3, 8, 1]	12	PAL1	0	R1100D
2607.981	2.917	4294045	PROB	2890.0	n/a	-999	-999	n/a	n/a	n/a	n/a	19	[3, 7, 2]	12	PAL1	0	R1100D
2610.898	4.7	4298712	PROB	4700.0	n/a	-999	-999	n/a	n/a	n/a	n/a	19	[6, 5, 6]	17	PAL1	0	R1100D
