onset	duration	sample	trial_type	response_time	serialpos	probepos	probe_word	resp_word	study_1	study_2	list	test	answer	experiment	session	subject
0.0	0.0	8296	INSTRUCT_VIDEO_ON	n/a	-999	-999	n/a	n/a	n/a	n/a	-999	[0, 0, 0]	-999	PAL1	2	R1297T
0.0	5.454	8296	INSTRUCT_VIDEO_OFF	n/a	-999	-999	n/a	n/a	n/a	n/a	-999	[0, 0, 0]	-999	PAL1	2	R1297T
5.454	0.0	13750	SESS_START	n/a	-999	-999	n/a	n/a	n/a	n/a	-999	[0, 0, 0]	-999	PAL1	2	R1297T
5.454	21.5	13750	MIC_TEST	n/a	-999	-999	n/a	n/a	n/a	n/a	-999	[0, 0, 0]	-999	PAL1	2	R1297T
26.954	17.1	35248	PRACTICE_TRIAL	n/a	-999	-999	n/a	n/a	n/a	n/a	-1	[0, 0, 0]	-999	PAL1	2	R1297T
44.054	0.004	52347	ENCODING_START	n/a	-999	-999	n/a	n/a	n/a	n/a	-1	[0, 0, 0]	-999	PAL1	2	R1297T
44.058	0.268	52351	PRACTICE_ORIENT	n/a	1	5	IRON	PASS	FLOOD	IRON	-1	[0, 0, 0]	-999	PAL1	2	R1297T
44.326	0.549	52619	PRACTICE_ORIENT_OFF	n/a	1	5	IRON	PASS	FLOOD	IRON	-1	[0, 0, 0]	-999	PAL1	2	R1297T
44.875	4.017	53168	PRACTICE_PAIR	n/a	1	5	IRON	PASS	FLOOD	IRON	-1	[0, 0, 0]	-999	PAL1	2	R1297T
48.892	1.017	57185	PRACTICE_PAIR_OFF	n/a	1	5	IRON	PASS	FLOOD	IRON	-1	[0, 0, 0]	-999	PAL1	2	R1297T
49.909	0.268	58202	PRACTICE_ORIENT	n/a	2	6	CHEST	PASS	CAMEL	CHEST	-1	[0, 0, 0]	-999	PAL1	2	R1297T
50.177	0.582	58470	PRACTICE_ORIENT_OFF	n/a	2	6	CHEST	PASS	CAMEL	CHEST	-1	[0, 0, 0]	-999	PAL1	2	R1297T
50.759	4.018	59052	PRACTICE_PAIR	n/a	2	6	CHEST	PASS	CAMEL	CHEST	-1	[0, 0, 0]	-999	PAL1	2	R1297T
54.777	1.017	63070	PRACTICE_PAIR_OFF	n/a	2	6	CHEST	PASS	CAMEL	CHEST	-1	[0, 0, 0]	-999	PAL1	2	R1297T
55.794	0.266	64087	PRACTICE_ORIENT	n/a	3	1	RING	n/a	RING	COTTON	-1	[0, 0, 0]	-999	PAL1	2	R1297T
56.06	0.55	64353	PRACTICE_ORIENT_OFF	n/a	3	1	RING	n/a	RING	COTTON	-1	[0, 0, 0]	-999	PAL1	2	R1297T
56.61	4.018	64903	PRACTICE_PAIR	n/a	3	1	RING	n/a	RING	COTTON	-1	[0, 0, 0]	-999	PAL1	2	R1297T
60.628	1.017	68920	PRACTICE_PAIR_OFF	n/a	3	1	RING	n/a	RING	COTTON	-1	[0, 0, 0]	-999	PAL1	2	R1297T
61.645	0.266	69937	PRACTICE_ORIENT	n/a	4	4	ATTIC	PASS	ATTIC	RHINO	-1	[0, 0, 0]	-999	PAL1	2	R1297T
61.911	0.701	70203	PRACTICE_ORIENT_OFF	n/a	4	4	ATTIC	PASS	ATTIC	RHINO	-1	[0, 0, 0]	-999	PAL1	2	R1297T
62.612	4.017	70904	PRACTICE_PAIR	n/a	4	4	ATTIC	PASS	ATTIC	RHINO	-1	[0, 0, 0]	-999	PAL1	2	R1297T
66.629	1.017	74921	PRACTICE_PAIR_OFF	n/a	4	4	ATTIC	PASS	ATTIC	RHINO	-1	[0, 0, 0]	-999	PAL1	2	R1297T
67.646	0.266	75938	PRACTICE_ORIENT	n/a	5	3	BEAM	PASS	WATCH	BEAM	-1	[0, 0, 0]	-999	PAL1	2	R1297T
67.912	0.717	76204	PRACTICE_ORIENT_OFF	n/a	5	3	BEAM	PASS	WATCH	BEAM	-1	[0, 0, 0]	-999	PAL1	2	R1297T
68.629	4.018	76921	PRACTICE_PAIR	n/a	5	3	BEAM	PASS	WATCH	BEAM	-1	[0, 0, 0]	-999	PAL1	2	R1297T
72.647	1.017	80939	PRACTICE_PAIR_OFF	n/a	5	3	BEAM	PASS	WATCH	BEAM	-1	[0, 0, 0]	-999	PAL1	2	R1297T
73.664	0.266	81956	PRACTICE_ORIENT	n/a	6	2	WAGON	PASS	WAGON	TONGUE	-1	[0, 0, 0]	-999	PAL1	2	R1297T
73.93	0.633	82222	PRACTICE_ORIENT_OFF	n/a	6	2	WAGON	PASS	WAGON	TONGUE	-1	[0, 0, 0]	-999	PAL1	2	R1297T
74.563	4.001	82855	PRACTICE_PAIR	n/a	6	2	WAGON	PASS	WAGON	TONGUE	-1	[0, 0, 0]	-999	PAL1	2	R1297T
78.564	1.0	86855	PRACTICE_PAIR_OFF	n/a	6	2	WAGON	PASS	WAGON	TONGUE	-1	[0, 0, 0]	-999	PAL1	2	R1297T
79.564	0.0	87855	ENCODING_END	n/a	-999	-999	n/a	n/a	n/a	n/a	-1	[0, 0, 0]	-999	PAL1	2	R1297T
79.564	0.0	87855	MATH_START	n/a	-999	-999	n/a	n/a	n/a	n/a	-1	[0, 0, 0]	-999	PAL1	2	R1297T
79.564	0.017	87855	START	n/a	-999	-999	n/a	n/a	n/a	n/a	-1	[-999, -999, -999]	-999	PAL1	2	R1297T
79.581	4.719	87872	PROB	4687	-999	-999	n/a	n/a	n/a	n/a	-1	[9, 6, 1]	16	PAL1	2	R1297T
84.3	6.25	92591	PROB	6223	-999	-999	n/a	n/a	n/a	n/a	-1	[8, 3, 3]	14	PAL1	2	R1297T
90.55	13.501	98841	PROB	13501	-999	-999	n/a	n/a	n/a	n/a	-1	[1, 7, 5]	13	PAL1	2	R1297T
104.051	0.018	112341	STOP	n/a	-999	-999	n/a	n/a	n/a	n/a	-1	[-999, -999, -999]	-999	PAL1	2	R1297T
104.069	0.001	112359	MATH_END	n/a	-999	-999	n/a	n/a	n/a	n/a	-1	[0, 0, 0]	-999	PAL1	2	R1297T
104.07	0.016	112360	RECALL_START	n/a	-999	-999	n/a	n/a	n/a	n/a	-1	[0, 0, 0]	-999	PAL1	2	R1297T
104.086	0.267	112376	PRACTICE_RETRIEVAL_ORIENT	n/a	3	1	RING	n/a	RING	COTTON	-1	[0, 0, 0]	-999	PAL1	2	R1297T
104.353	0.733	112643	PRACTICE_RETRIEVAL_ORIENT_OFF	n/a	3	1	RING	n/a	RING	COTTON	-1	[0, 0, 0]	-999	PAL1	2	R1297T
105.086	0.0	113376	PRACTICE_PROBE	n/a	3	1	RING	n/a	RING	COTTON	-1	[0, 0, 0]	-999	PAL1	2	R1297T
105.086	4.017	113376	REC_START	n/a	3	-999	n/a	n/a	n/a	n/a	-1	[0, 0, 0]	-999	PAL1	2	R1297T
109.103	0.948	117392	PROBE_OFF	n/a	3	-999	n/a	n/a	n/a	n/a	-1	[0, 0, 0]	-999	PAL1	2	R1297T
110.051	0.052	118340	REC_EVENT	4965	3	1	RING	<>	RING	COTTON	-1	[0, 0, 0]	-999	PAL1	2	R1297T
110.103	0.017	118392	REC_END	n/a	3	-999	n/a	n/a	n/a	n/a	-1	[0, 0, 0]	-999	PAL1	2	R1297T
110.12	0.268	118409	PRACTICE_RETRIEVAL_ORIENT	n/a	6	2	WAGON	PASS	WAGON	TONGUE	-1	[0, 0, 0]	-999	PAL1	2	R1297T
110.388	0.716	118677	PRACTICE_RETRIEVAL_ORIENT_OFF	n/a	6	2	WAGON	PASS	WAGON	TONGUE	-1	[0, 0, 0]	-999	PAL1	2	R1297T
111.104	0.0	119393	REC_EVENT	0	6	2	WAGON	<>	WAGON	TONGUE	-1	[0, 0, 0]	-999	PAL1	2	R1297T
111.104	0.0	119393	REC_START	n/a	6	-999	n/a	PASS	n/a	n/a	-1	[0, 0, 0]	-999	PAL1	2	R1297T
111.104	1.169	119393	PRACTICE_PROBE	n/a	6	2	WAGON	PASS	WAGON	TONGUE	-1	[0, 0, 0]	-999	PAL1	2	R1297T
112.273	1.478	120562	REC_EVENT	1169	6	2	WAGON	<>	WAGON	TONGUE	-1	[0, 0, 0]	-999	PAL1	2	R1297T
113.751	1.37	122040	REC_EVENT	2647	6	2	WAGON	PASS	WAGON	TONGUE	-1	[0, 0, 0]	-999	PAL1	2	R1297T
115.121	1.0	123410	PROBE_OFF	n/a	6	-999	n/a	n/a	n/a	n/a	-1	[0, 0, 0]	-999	PAL1	2	R1297T
116.121	0.017	124410	REC_END	n/a	6	-999	n/a	n/a	n/a	n/a	-1	[0, 0, 0]	-999	PAL1	2	R1297T
116.138	0.268	124427	PRACTICE_RETRIEVAL_ORIENT	n/a	5	3	BEAM	PASS	WATCH	BEAM	-1	[0, 0, 0]	-999	PAL1	2	R1297T
116.406	0.682	124695	PRACTICE_RETRIEVAL_ORIENT_OFF	n/a	5	3	BEAM	PASS	WATCH	BEAM	-1	[0, 0, 0]	-999	PAL1	2	R1297T
117.088	0.001	125377	PRACTICE_PROBE	n/a	5	3	BEAM	PASS	WATCH	BEAM	-1	[0, 0, 0]	-999	PAL1	2	R1297T
117.089	1.773	125378	REC_START	n/a	5	-999	n/a	PASS	n/a	n/a	-1	[0, 0, 0]	-999	PAL1	2	R1297T
118.862	2.243	127151	REC_EVENT	1773	5	3	BEAM	PASS	WATCH	BEAM	-1	[0, 0, 0]	-999	PAL1	2	R1297T
121.105	1.0	129394	PROBE_OFF	n/a	5	-999	n/a	n/a	n/a	n/a	-1	[0, 0, 0]	-999	PAL1	2	R1297T
122.105	0.017	130394	REC_END	n/a	5	-999	n/a	n/a	n/a	n/a	-1	[0, 0, 0]	-999	PAL1	2	R1297T
122.122	0.268	130411	PRACTICE_RETRIEVAL_ORIENT	n/a	4	4	ATTIC	PASS	ATTIC	RHINO	-1	[0, 0, 0]	-999	PAL1	2	R1297T
122.39	0.549	130679	PRACTICE_RETRIEVAL_ORIENT_OFF	n/a	4	4	ATTIC	PASS	ATTIC	RHINO	-1	[0, 0, 0]	-999	PAL1	2	R1297T
122.939	0.001	131228	PRACTICE_PROBE	n/a	4	4	ATTIC	PASS	ATTIC	RHINO	-1	[0, 0, 0]	-999	PAL1	2	R1297T
122.94	1.031	131229	REC_START	n/a	4	-999	n/a	PASS	n/a	n/a	-1	[0, 0, 0]	-999	PAL1	2	R1297T
123.971	2.985	132260	REC_EVENT	1031	4	4	ATTIC	PASS	ATTIC	RHINO	-1	[0, 0, 0]	-999	PAL1	2	R1297T
126.956	1.0	135244	PROBE_OFF	n/a	4	-999	n/a	n/a	n/a	n/a	-1	[0, 0, 0]	-999	PAL1	2	R1297T
127.956	0.017	136244	REC_END	n/a	4	-999	n/a	n/a	n/a	n/a	-1	[0, 0, 0]	-999	PAL1	2	R1297T
127.973	0.251	136261	PRACTICE_RETRIEVAL_ORIENT	n/a	1	5	IRON	PASS	FLOOD	IRON	-1	[0, 0, 0]	-999	PAL1	2	R1297T
128.224	0.666	136512	PRACTICE_RETRIEVAL_ORIENT_OFF	n/a	1	5	IRON	PASS	FLOOD	IRON	-1	[0, 0, 0]	-999	PAL1	2	R1297T
128.89	0.001	137178	PRACTICE_PROBE	n/a	1	5	IRON	PASS	FLOOD	IRON	-1	[0, 0, 0]	-999	PAL1	2	R1297T
128.891	2.901	137179	REC_START	n/a	1	-999	n/a	PASS	n/a	n/a	-1	[0, 0, 0]	-999	PAL1	2	R1297T
131.792	1.116	140080	REC_EVENT	2901	1	5	IRON	PASS	FLOOD	IRON	-1	[0, 0, 0]	-999	PAL1	2	R1297T
132.908	1.0	141196	PROBE_OFF	n/a	1	-999	n/a	n/a	n/a	n/a	-1	[0, 0, 0]	-999	PAL1	2	R1297T
133.908	0.016	142196	REC_END	n/a	1	-999	n/a	n/a	n/a	n/a	-1	[0, 0, 0]	-999	PAL1	2	R1297T
133.924	0.268	142212	PRACTICE_RETRIEVAL_ORIENT	n/a	2	6	CHEST	PASS	CAMEL	CHEST	-1	[0, 0, 0]	-999	PAL1	2	R1297T
134.192	0.649	142480	PRACTICE_RETRIEVAL_ORIENT_OFF	n/a	4	6	CHEST	PASS	CAMEL	CHEST	-1	[0, 0, 0]	-999	PAL1	2	R1297T
134.841	0.001	143129	PRACTICE_PROBE	n/a	2	6	CHEST	PASS	CAMEL	CHEST	-1	[0, 0, 0]	-999	PAL1	2	R1297T
134.842	4.017	143130	REC_START	n/a	2	-999	n/a	PASS	n/a	n/a	-1	[0, 0, 0]	-999	PAL1	2	R1297T
138.859	0.157	147147	PROBE_OFF	n/a	2	-999	n/a	n/a	n/a	n/a	-1	[0, 0, 0]	-999	PAL1	2	R1297T
139.016	0.843	147304	REC_EVENT	4174	2	6	CHEST	PASS	CAMEL	CHEST	-1	[0, 0, 0]	-999	PAL1	2	R1297T
139.859	0.011	148147	REC_END	n/a	2	-999	n/a	n/a	n/a	n/a	-1	[0, 0, 0]	-999	PAL1	2	R1297T
139.87	19.443	148158	RECALL_END	n/a	-999	-999	n/a	n/a	n/a	n/a	-1	[0, 0, 0]	-999	PAL1	2	R1297T
159.313	10.928	167599	TRIAL	n/a	-999	-999	n/a	n/a	n/a	n/a	1	[0, 0, 0]	-999	PAL1	2	R1297T
170.241	0.008	178527	ENCODING_START	n/a	-999	-999	n/a	n/a	n/a	n/a	1	[0, 0, 0]	-999	PAL1	2	R1297T
170.249	0.265	178535	STUDY_ORIENT	n/a	1	3	MAIL	SEAL	MAIL	SEAL	1	[0, 0, 0]	-999	PAL1	2	R1297T
170.514	0.55	178800	STUDY_ORIENT_OFF	n/a	1	3	MAIL	SEAL	MAIL	SEAL	1	[0, 0, 0]	-999	PAL1	2	R1297T
171.064	4.018	179350	STUDY_PAIR	n/a	1	3	MAIL	SEAL	MAIL	SEAL	1	[0, 0, 0]	-999	PAL1	2	R1297T
175.082	1.017	183367	PAIR_OFF	n/a	1	3	MAIL	SEAL	MAIL	SEAL	1	[0, 0, 0]	-999	PAL1	2	R1297T
176.099	0.267	184384	STUDY_ORIENT	n/a	2	6	TRUCK	PASS	LEAF	TRUCK	1	[0, 0, 0]	-999	PAL1	2	R1297T
176.366	0.583	184651	STUDY_ORIENT_OFF	n/a	2	6	TRUCK	PASS	LEAF	TRUCK	1	[0, 0, 0]	-999	PAL1	2	R1297T
176.949	4.017	185234	STUDY_PAIR	n/a	2	6	TRUCK	PASS	LEAF	TRUCK	1	[0, 0, 0]	-999	PAL1	2	R1297T
180.966	1.017	189251	PAIR_OFF	n/a	2	6	TRUCK	PASS	LEAF	TRUCK	1	[0, 0, 0]	-999	PAL1	2	R1297T
181.983	0.268	190268	STUDY_ORIENT	n/a	3	1	FLOOR	DRUM	DRUM	FLOOR	1	[0, 0, 0]	-999	PAL1	2	R1297T
182.251	0.766	190536	STUDY_ORIENT_OFF	n/a	3	1	FLOOR	DRUM	DRUM	FLOOR	1	[0, 0, 0]	-999	PAL1	2	R1297T
183.017	4.017	191302	STUDY_PAIR	n/a	3	1	FLOOR	DRUM	DRUM	FLOOR	1	[0, 0, 0]	-999	PAL1	2	R1297T
187.034	1.017	195319	PAIR_OFF	n/a	3	1	FLOOR	DRUM	DRUM	FLOOR	1	[0, 0, 0]	-999	PAL1	2	R1297T
188.051	0.267	196336	STUDY_ORIENT	n/a	4	4	BAT	JEEP	JEEP	BAT	1	[0, 0, 0]	-999	PAL1	2	R1297T
188.318	0.733	196603	STUDY_ORIENT_OFF	n/a	4	4	BAT	JEEP	JEEP	BAT	1	[0, 0, 0]	-999	PAL1	2	R1297T
189.051	4.017	197336	STUDY_PAIR	n/a	4	4	BAT	JEEP	JEEP	BAT	1	[0, 0, 0]	-999	PAL1	2	R1297T
193.068	1.017	201352	PAIR_OFF	n/a	4	4	BAT	JEEP	JEEP	BAT	1	[0, 0, 0]	-999	PAL1	2	R1297T
194.085	0.268	202369	STUDY_ORIENT	n/a	5	5	LIP	SLUSH	SLUSH	LIP	1	[0, 0, 0]	-999	PAL1	2	R1297T
194.353	0.682	202637	STUDY_ORIENT_OFF	n/a	5	5	LIP	SLUSH	SLUSH	LIP	1	[0, 0, 0]	-999	PAL1	2	R1297T
195.035	4.001	203319	STUDY_PAIR	n/a	5	5	LIP	SLUSH	SLUSH	LIP	1	[0, 0, 0]	-999	PAL1	2	R1297T
199.036	1.017	207320	PAIR_OFF	n/a	5	5	LIP	SLUSH	SLUSH	LIP	1	[0, 0, 0]	-999	PAL1	2	R1297T
200.053	0.268	208337	STUDY_ORIENT	n/a	6	2	SPEAR	PASS	CORD	SPEAR	1	[0, 0, 0]	-999	PAL1	2	R1297T
200.321	0.549	208605	STUDY_ORIENT_OFF	n/a	6	2	SPEAR	PASS	CORD	SPEAR	1	[0, 0, 0]	-999	PAL1	2	R1297T
200.87	4.017	209154	STUDY_PAIR	n/a	6	2	SPEAR	PASS	CORD	SPEAR	1	[0, 0, 0]	-999	PAL1	2	R1297T
204.887	1.0	213171	PAIR_OFF	n/a	6	2	SPEAR	PASS	CORD	SPEAR	1	[0, 0, 0]	-999	PAL1	2	R1297T
205.887	0.0	214171	ENCODING_END	n/a	-999	-999	n/a	n/a	n/a	n/a	1	[0, 0, 0]	-999	PAL1	2	R1297T
205.887	0.0	214171	MATH_START	n/a	-999	-999	n/a	n/a	n/a	n/a	1	[0, 0, 0]	-999	PAL1	2	R1297T
205.887	0.017	214171	START	n/a	-999	-999	n/a	n/a	n/a	n/a	1	[-999, -999, -999]	-999	PAL1	2	R1297T
205.904	11.185	214188	PROB	11155	-999	-999	n/a	n/a	n/a	n/a	1	[9, 6, 8]	23	PAL1	2	R1297T
217.089	3.135	225372	PROB	3099	-999	-999	n/a	n/a	n/a	n/a	1	[4, 6, 6]	14	PAL1	2	R1297T
220.224	5.051	228507	PROB	5020	-999	-999	n/a	n/a	n/a	n/a	1	[9, 3, 6]	18	PAL1	2	R1297T
225.275	3.456	233557	PROB	3456	-999	-999	n/a	n/a	n/a	n/a	1	[3, 1, 5]	9	PAL1	2	R1297T
228.731	0.011	237013	STOP	n/a	-999	-999	n/a	n/a	n/a	n/a	1	[-999, -999, -999]	-999	PAL1	2	R1297T
228.742	0.0	237024	MATH_END	n/a	-999	-999	n/a	n/a	n/a	n/a	1	[0, 0, 0]	-999	PAL1	2	R1297T
228.742	0.016	237024	RECALL_START	n/a	-999	-999	n/a	n/a	n/a	n/a	1	[0, 0, 0]	-999	PAL1	2	R1297T
228.758	0.267	237040	TEST_ORIENT	n/a	3	1	FLOOR	DRUM	DRUM	FLOOR	1	[0, 0, 0]	-999	PAL1	2	R1297T
229.025	0.583	237307	RETRIEVAL_ORIENT_OFF	n/a	-999	-999	n/a	n/a	n/a	n/a	1	[0, 0, 0]	-999	PAL1	2	R1297T
229.608	0.002	237890	TEST_PROBE	n/a	3	1	FLOOR	DRUM	DRUM	FLOOR	1	[0, 0, 0]	-999	PAL1	2	R1297T
229.61	1.483	237892	REC_START	n/a	3	-999	n/a	DRUM	n/a	n/a	1	[0, 0, 0]	-999	PAL1	2	R1297T
231.093	2.533	239375	REC_EVENT	1483	3	1	FLOOR	DRUM	DRUM	FLOOR	1	[0, 0, 0]	-999	PAL1	2	R1297T
233.626	1.0	241908	PROBE_OFF	n/a	3	-999	n/a	n/a	n/a	n/a	1	[0, 0, 0]	-999	PAL1	2	R1297T
234.626	0.017	242908	REC_END	n/a	3	-999	n/a	n/a	n/a	n/a	1	[0, 0, 0]	-999	PAL1	2	R1297T
234.643	0.266	242925	TEST_ORIENT	n/a	6	2	SPEAR	PASS	CORD	SPEAR	1	[0, 0, 0]	-999	PAL1	2	R1297T
234.909	0.535	243191	RETRIEVAL_ORIENT_OFF	n/a	3	-999	n/a	n/a	n/a	n/a	1	[0, 0, 0]	-999	PAL1	2	R1297T
235.444	0.0	243726	REC_START	n/a	6	-999	n/a	PASS	n/a	n/a	1	[0, 0, 0]	-999	PAL1	2	R1297T
235.444	4.017	243726	TEST_PROBE	n/a	6	2	SPEAR	PASS	CORD	SPEAR	1	[0, 0, 0]	-999	PAL1	2	R1297T
239.461	0.808	247743	PROBE_OFF	n/a	6	-999	n/a	n/a	n/a	n/a	1	[0, 0, 0]	-999	PAL1	2	R1297T
240.269	0.192	248551	REC_EVENT	4825	6	2	SPEAR	PASS	CORD	SPEAR	1	[0, 0, 0]	-999	PAL1	2	R1297T
240.461	0.017	248742	REC_END	n/a	6	-999	n/a	n/a	n/a	n/a	1	[0, 0, 0]	-999	PAL1	2	R1297T
240.478	0.266	248759	TEST_ORIENT	n/a	1	3	MAIL	SEAL	MAIL	SEAL	1	[0, 0, 0]	-999	PAL1	2	R1297T
240.744	0.651	249025	RETRIEVAL_ORIENT_OFF	n/a	6	-999	n/a	n/a	n/a	n/a	1	[0, 0, 0]	-999	PAL1	2	R1297T
241.395	0.0	249676	TEST_PROBE	n/a	1	3	MAIL	SEAL	MAIL	SEAL	1	[0, 0, 0]	-999	PAL1	2	R1297T
241.395	1.585	249676	REC_START	n/a	1	-999	n/a	SEAL	n/a	n/a	1	[0, 0, 0]	-999	PAL1	2	R1297T
242.98	2.432	251261	REC_EVENT	1585	1	3	MAIL	SEAL	MAIL	SEAL	1	[0, 0, 0]	-999	PAL1	2	R1297T
245.412	1.0	253693	PROBE_OFF	n/a	1	-999	n/a	n/a	n/a	n/a	1	[0, 0, 0]	-999	PAL1	2	R1297T
246.412	0.017	254693	REC_END	n/a	1	-999	n/a	n/a	n/a	n/a	1	[0, 0, 0]	-999	PAL1	2	R1297T
246.429	0.266	254710	TEST_ORIENT	n/a	4	4	BAT	JEEP	JEEP	BAT	1	[0, 0, 0]	-999	PAL1	2	R1297T
246.695	0.534	254976	RETRIEVAL_ORIENT_OFF	n/a	1	-999	n/a	n/a	n/a	n/a	1	[0, 0, 0]	-999	PAL1	2	R1297T
247.229	0.001	255510	TEST_PROBE	n/a	4	4	BAT	JEEP	JEEP	BAT	1	[0, 0, 0]	-999	PAL1	2	R1297T
247.23	2.843	255511	REC_START	n/a	4	-999	n/a	JEEP	n/a	n/a	1	[0, 0, 0]	-999	PAL1	2	R1297T
250.073	1.174	258354	REC_EVENT	2843	4	4	BAT	JEEP	JEEP	BAT	1	[0, 0, 0]	-999	PAL1	2	R1297T
251.247	1.0	259528	PROBE_OFF	n/a	4	-999	n/a	n/a	n/a	n/a	1	[0, 0, 0]	-999	PAL1	2	R1297T
252.247	0.017	260528	REC_END	n/a	4	-999	n/a	n/a	n/a	n/a	1	[0, 0, 0]	-999	PAL1	2	R1297T
252.264	0.265	260545	TEST_ORIENT	n/a	5	5	LIP	SLUSH	SLUSH	LIP	1	[0, 0, 0]	-999	PAL1	2	R1297T
252.529	0.651	260810	RETRIEVAL_ORIENT_OFF	n/a	4	-999	n/a	n/a	n/a	n/a	1	[0, 0, 0]	-999	PAL1	2	R1297T
253.18	0.001	261461	TEST_PROBE	n/a	5	5	LIP	SLUSH	SLUSH	LIP	1	[0, 0, 0]	-999	PAL1	2	R1297T
253.181	1.005	261462	REC_START	n/a	5	-999	n/a	SLUSH	n/a	n/a	1	[0, 0, 0]	-999	PAL1	2	R1297T
254.186	3.012	262467	REC_EVENT	1005	5	5	LIP	SLUSH	SLUSH	LIP	1	[0, 0, 0]	-999	PAL1	2	R1297T
257.198	1.0	265478	PROBE_OFF	n/a	5	-999	n/a	n/a	n/a	n/a	1	[0, 0, 0]	-999	PAL1	2	R1297T
258.198	0.016	266478	REC_END	n/a	5	-999	n/a	n/a	n/a	n/a	1	[0, 0, 0]	-999	PAL1	2	R1297T
258.214	0.267	266494	TEST_ORIENT	n/a	2	6	TRUCK	PASS	LEAF	TRUCK	1	[0, 0, 0]	-999	PAL1	2	R1297T
258.481	0.734	266761	RETRIEVAL_ORIENT_OFF	n/a	5	-999	n/a	n/a	n/a	n/a	1	[0, 0, 0]	-999	PAL1	2	R1297T
259.215	0.0	267495	TEST_PROBE	n/a	2	6	TRUCK	PASS	LEAF	TRUCK	1	[0, 0, 0]	-999	PAL1	2	R1297T
259.215	4.017	267495	REC_START	n/a	2	-999	n/a	PASS	n/a	n/a	1	[0, 0, 0]	-999	PAL1	2	R1297T
263.232	0.197	271512	PROBE_OFF	n/a	2	-999	n/a	n/a	n/a	n/a	1	[0, 0, 0]	-999	PAL1	2	R1297T
263.429	0.803	271709	REC_EVENT	4214	2	6	TRUCK	PASS	LEAF	TRUCK	1	[0, 0, 0]	-999	PAL1	2	R1297T
264.232	0.003	272512	REC_END	n/a	2	-999	n/a	n/a	n/a	n/a	1	[0, 0, 0]	-999	PAL1	2	R1297T
264.235	4.814	272515	RECALL_END	n/a	-999	-999	n/a	n/a	n/a	n/a	1	[0, 0, 0]	-999	PAL1	2	R1297T
269.049	10.928	277329	TRIAL	n/a	-999	-999	n/a	n/a	n/a	n/a	2	[0, 0, 0]	-999	PAL1	2	R1297T
279.977	0.007	288256	ENCODING_START	n/a	-999	-999	n/a	n/a	n/a	n/a	2	[0, 0, 0]	-999	PAL1	2	R1297T
279.984	0.268	288263	STUDY_ORIENT	n/a	1	5	SHIELD	GLASS	GLASS	SHIELD	2	[0, 0, 0]	-999	PAL1	2	R1297T
280.252	0.599	288531	STUDY_ORIENT_OFF	n/a	1	5	SHIELD	GLASS	GLASS	SHIELD	2	[0, 0, 0]	-999	PAL1	2	R1297T
280.851	4.017	289130	STUDY_PAIR	n/a	1	5	SHIELD	GLASS	GLASS	SHIELD	2	[0, 0, 0]	-999	PAL1	2	R1297T
284.868	1.017	293147	PAIR_OFF	n/a	1	5	SHIELD	GLASS	GLASS	SHIELD	2	[0, 0, 0]	-999	PAL1	2	R1297T
285.885	0.267	294164	STUDY_ORIENT	n/a	2	2	SHARK	GEESE	SHARK	GEESE	2	[0, 0, 0]	-999	PAL1	2	R1297T
286.152	0.617	294431	STUDY_ORIENT_OFF	n/a	2	2	SHARK	GEESE	SHARK	GEESE	2	[0, 0, 0]	-999	PAL1	2	R1297T
286.769	4.017	295048	STUDY_PAIR	n/a	2	2	SHARK	GEESE	SHARK	GEESE	2	[0, 0, 0]	-999	PAL1	2	R1297T
290.786	1.017	299064	PAIR_OFF	n/a	2	2	SHARK	GEESE	SHARK	GEESE	2	[0, 0, 0]	-999	PAL1	2	R1297T
291.803	0.267	300081	STUDY_ORIENT	n/a	3	1	VAN	RAIN	RAIN	VAN	2	[0, 0, 0]	-999	PAL1	2	R1297T
292.07	0.6	300348	STUDY_ORIENT_OFF	n/a	3	1	VAN	RAIN	RAIN	VAN	2	[0, 0, 0]	-999	PAL1	2	R1297T
292.67	4.017	300948	STUDY_PAIR	n/a	3	1	VAN	RAIN	RAIN	VAN	2	[0, 0, 0]	-999	PAL1	2	R1297T
296.687	1.017	304965	PAIR_OFF	n/a	3	1	VAN	RAIN	RAIN	VAN	2	[0, 0, 0]	-999	PAL1	2	R1297T
297.704	0.267	305982	STUDY_ORIENT	n/a	4	6	JET	HOOF	HOOF	JET	2	[0, 0, 0]	-999	PAL1	2	R1297T
297.971	0.667	306249	STUDY_ORIENT_OFF	n/a	4	6	JET	HOOF	HOOF	JET	2	[0, 0, 0]	-999	PAL1	2	R1297T
298.638	4.017	306916	STUDY_PAIR	n/a	4	6	JET	HOOF	HOOF	JET	2	[0, 0, 0]	-999	PAL1	2	R1297T
302.655	1.017	310933	PAIR_OFF	n/a	4	6	JET	HOOF	HOOF	JET	2	[0, 0, 0]	-999	PAL1	2	R1297T
303.672	0.266	311950	STUDY_ORIENT	n/a	5	3	FARM	LAWN	FARM	LAWN	2	[0, 0, 0]	-999	PAL1	2	R1297T
303.938	0.634	312216	STUDY_ORIENT_OFF	n/a	5	3	FARM	LAWN	FARM	LAWN	2	[0, 0, 0]	-999	PAL1	2	R1297T
304.572	4.017	312850	STUDY_PAIR	n/a	5	3	FARM	LAWN	FARM	LAWN	2	[0, 0, 0]	-999	PAL1	2	R1297T
308.589	1.017	316866	PAIR_OFF	n/a	5	3	FARM	LAWN	FARM	LAWN	2	[0, 0, 0]	-999	PAL1	2	R1297T
309.606	0.267	317883	STUDY_ORIENT	n/a	6	4	FENCE	HAWK	HAWK	FENCE	2	[0, 0, 0]	-999	PAL1	2	R1297T
309.873	0.717	318150	STUDY_ORIENT_OFF	n/a	6	4	FENCE	HAWK	HAWK	FENCE	2	[0, 0, 0]	-999	PAL1	2	R1297T
310.59	4.017	318867	STUDY_PAIR	n/a	6	4	FENCE	HAWK	HAWK	FENCE	2	[0, 0, 0]	-999	PAL1	2	R1297T
314.607	1.0	322884	PAIR_OFF	n/a	6	4	FENCE	HAWK	HAWK	FENCE	2	[0, 0, 0]	-999	PAL1	2	R1297T
315.607	0.0	323884	MATH_START	n/a	-999	-999	n/a	n/a	n/a	n/a	2	[0, 0, 0]	-999	PAL1	2	R1297T
315.607	0.001	323884	ENCODING_END	n/a	-999	-999	n/a	n/a	n/a	n/a	2	[0, 0, 0]	-999	PAL1	2	R1297T
315.608	0.016	323885	START	n/a	-999	-999	n/a	n/a	n/a	n/a	2	[-999, -999, -999]	-999	PAL1	2	R1297T
315.624	3.517	323901	PROB	3483	-999	-999	n/a	n/a	n/a	n/a	2	[5, 1, 9]	15	PAL1	2	R1297T
319.141	3.451	327418	PROB	3423	-999	-999	n/a	n/a	n/a	n/a	2	[3, 2, 7]	12	PAL1	2	R1297T
322.592	5.001	330868	PROB	4964	-999	-999	n/a	n/a	n/a	n/a	2	[7, 2, 4]	13	PAL1	2	R1297T
327.593	4.284	335869	PROB	4250	-999	-999	n/a	n/a	n/a	n/a	2	[9, 3, 8]	20	PAL1	2	R1297T
331.877	3.234	340153	PROB	3206	-999	-999	n/a	n/a	n/a	n/a	2	[8, 8, 2]	18	PAL1	2	R1297T
335.111	3.269	343387	PROB	3269	-999	-999	n/a	n/a	n/a	n/a	2	[1, 4, 2]	7	PAL1	2	R1297T
338.38	0.016	346656	STOP	n/a	-999	-999	n/a	n/a	n/a	n/a	2	[-999, -999, -999]	-999	PAL1	2	R1297T
338.396	0.0	346672	MATH_END	n/a	-999	-999	n/a	n/a	n/a	n/a	2	[0, 0, 0]	-999	PAL1	2	R1297T
338.396	0.016	346672	RECALL_START	n/a	-999	-999	n/a	n/a	n/a	n/a	2	[0, 0, 0]	-999	PAL1	2	R1297T
338.412	0.266	346688	TEST_ORIENT	n/a	3	1	VAN	RAIN	RAIN	VAN	2	[0, 0, 0]	-999	PAL1	2	R1297T
338.678	0.535	346954	RETRIEVAL_ORIENT_OFF	n/a	-999	-999	n/a	n/a	n/a	n/a	2	[0, 0, 0]	-999	PAL1	2	R1297T
339.213	0.001	347488	TEST_PROBE	n/a	3	1	VAN	RAIN	RAIN	VAN	2	[0, 0, 0]	-999	PAL1	2	R1297T
339.214	2.117	347489	REC_START	n/a	3	-999	n/a	RAIN	n/a	n/a	2	[0, 0, 0]	-999	PAL1	2	R1297T
341.331	1.899	349606	REC_EVENT	2117	3	1	VAN	RAIN	RAIN	VAN	2	[0, 0, 0]	-999	PAL1	2	R1297T
343.23	1.0	351505	PROBE_OFF	n/a	3	-999	n/a	n/a	n/a	n/a	2	[0, 0, 0]	-999	PAL1	2	R1297T
344.23	0.017	352505	REC_END	n/a	3	-999	n/a	n/a	n/a	n/a	2	[0, 0, 0]	-999	PAL1	2	R1297T
344.247	0.266	352522	TEST_ORIENT	n/a	2	2	SHARK	GEESE	SHARK	GEESE	2	[0, 0, 0]	-999	PAL1	2	R1297T
344.513	0.751	352788	RETRIEVAL_ORIENT_OFF	n/a	3	-999	n/a	n/a	n/a	n/a	2	[0, 0, 0]	-999	PAL1	2	R1297T
345.264	0.0	353539	TEST_PROBE	n/a	2	2	SHARK	GEESE	SHARK	GEESE	2	[0, 0, 0]	-999	PAL1	2	R1297T
345.264	2.995	353539	REC_START	n/a	2	-999	n/a	GEESE	n/a	n/a	2	[0, 0, 0]	-999	PAL1	2	R1297T
348.259	1.022	356534	REC_EVENT	2995	2	2	SHARK	GEESE	SHARK	GEESE	2	[0, 0, 0]	-999	PAL1	2	R1297T
349.281	1.0	357556	PROBE_OFF	n/a	2	-999	n/a	n/a	n/a	n/a	2	[0, 0, 0]	-999	PAL1	2	R1297T
350.281	0.017	358556	REC_END	n/a	2	-999	n/a	n/a	n/a	n/a	2	[0, 0, 0]	-999	PAL1	2	R1297T
350.298	0.266	358573	TEST_ORIENT	n/a	5	3	FARM	LAWN	FARM	LAWN	2	[0, 0, 0]	-999	PAL1	2	R1297T
350.564	0.533	358839	RETRIEVAL_ORIENT_OFF	n/a	2	-999	n/a	n/a	n/a	n/a	2	[0, 0, 0]	-999	PAL1	2	R1297T
351.097	0.001	359372	TEST_PROBE	n/a	5	3	FARM	LAWN	FARM	LAWN	2	[0, 0, 0]	-999	PAL1	2	R1297T
351.098	1.573	359373	REC_START	n/a	5	-999	n/a	LAWN	n/a	n/a	2	[0, 0, 0]	-999	PAL1	2	R1297T
352.671	2.443	360946	REC_EVENT	1573	5	3	FARM	LAWN	FARM	LAWN	2	[0, 0, 0]	-999	PAL1	2	R1297T
355.114	1.0	363389	PROBE_OFF	n/a	5	-999	n/a	n/a	n/a	n/a	2	[0, 0, 0]	-999	PAL1	2	R1297T
356.114	0.017	364388	REC_END	n/a	5	-999	n/a	n/a	n/a	n/a	2	[0, 0, 0]	-999	PAL1	2	R1297T
356.131	0.268	364405	TEST_ORIENT	n/a	6	4	FENCE	HAWK	HAWK	FENCE	2	[0, 0, 0]	-999	PAL1	2	R1297T
356.399	0.649	364673	RETRIEVAL_ORIENT_OFF	n/a	5	-999	n/a	n/a	n/a	n/a	2	[0, 0, 0]	-999	PAL1	2	R1297T
357.048	0.001	365322	TEST_PROBE	n/a	6	4	FENCE	HAWK	HAWK	FENCE	2	[0, 0, 0]	-999	PAL1	2	R1297T
357.049	1.745	365323	REC_START	n/a	6	-999	n/a	HAWK	n/a	n/a	2	[0, 0, 0]	-999	PAL1	2	R1297T
358.794	2.271	367068	REC_EVENT	1745	6	4	FENCE	HAWK	HAWK	FENCE	2	[0, 0, 0]	-999	PAL1	2	R1297T
361.065	1.0	369339	PROBE_OFF	n/a	6	-999	n/a	n/a	n/a	n/a	2	[0, 0, 0]	-999	PAL1	2	R1297T
362.065	0.017	370339	REC_END	n/a	6	-999	n/a	n/a	n/a	n/a	2	[0, 0, 0]	-999	PAL1	2	R1297T
362.082	0.268	370356	TEST_ORIENT	n/a	1	5	SHIELD	GLASS	GLASS	SHIELD	2	[0, 0, 0]	-999	PAL1	2	R1297T
362.35	0.666	370624	RETRIEVAL_ORIENT_OFF	n/a	6	-999	n/a	n/a	n/a	n/a	2	[0, 0, 0]	-999	PAL1	2	R1297T
363.016	0.0	371290	TEST_PROBE	n/a	1	5	SHIELD	GLASS	GLASS	SHIELD	2	[0, 0, 0]	-999	PAL1	2	R1297T
363.016	1.472	371290	REC_START	n/a	1	-999	n/a	GLASS	n/a	n/a	2	[0, 0, 0]	-999	PAL1	2	R1297T
364.488	2.545	372762	REC_EVENT	1472	1	5	SHIELD	GLASS	GLASS	SHIELD	2	[0, 0, 0]	-999	PAL1	2	R1297T
367.033	1.001	375307	PROBE_OFF	n/a	1	-999	n/a	n/a	n/a	n/a	2	[0, 0, 0]	-999	PAL1	2	R1297T
368.034	0.016	376308	REC_END	n/a	1	-999	n/a	n/a	n/a	n/a	2	[0, 0, 0]	-999	PAL1	2	R1297T
368.05	0.251	376324	TEST_ORIENT	n/a	4	6	JET	HOOF	HOOF	JET	2	[0, 0, 0]	-999	PAL1	2	R1297T
368.301	0.649	376575	RETRIEVAL_ORIENT_OFF	n/a	1	-999	n/a	n/a	n/a	n/a	2	[0, 0, 0]	-999	PAL1	2	R1297T
368.95	0.001	377224	TEST_PROBE	n/a	4	6	JET	HOOF	HOOF	JET	2	[0, 0, 0]	-999	PAL1	2	R1297T
368.951	1.244	377225	REC_START	n/a	4	-999	n/a	HOOF	n/a	n/a	2	[0, 0, 0]	-999	PAL1	2	R1297T
370.195	2.773	378469	REC_EVENT	1244	4	6	JET	HOOF	HOOF	JET	2	[0, 0, 0]	-999	PAL1	2	R1297T
372.968	1.01	381241	PROBE_OFF	n/a	4	-999	n/a	n/a	n/a	n/a	2	[0, 0, 0]	-999	PAL1	2	R1297T
373.978	0.003	382251	REC_END	n/a	4	-999	n/a	n/a	n/a	n/a	2	[0, 0, 0]	-999	PAL1	2	R1297T
373.981	4.954	382254	RECALL_END	n/a	-999	-999	n/a	n/a	n/a	n/a	2	[0, 0, 0]	-999	PAL1	2	R1297T
378.935	10.929	387208	TRIAL	n/a	-999	-999	n/a	n/a	n/a	n/a	3	[0, 0, 0]	-999	PAL1	2	R1297T
389.864	0.007	398136	ENCODING_START	n/a	-999	-999	n/a	n/a	n/a	n/a	3	[0, 0, 0]	-999	PAL1	2	R1297T
389.871	0.266	398143	STUDY_ORIENT	n/a	1	1	FOAM	BEAN	FOAM	BEAN	3	[0, 0, 0]	-999	PAL1	2	R1297T
390.137	0.601	398409	STUDY_ORIENT_OFF	n/a	1	1	FOAM	BEAN	FOAM	BEAN	3	[0, 0, 0]	-999	PAL1	2	R1297T
390.738	4.017	399010	STUDY_PAIR	n/a	1	1	FOAM	BEAN	FOAM	BEAN	3	[0, 0, 0]	-999	PAL1	2	R1297T
394.755	1.017	403027	PAIR_OFF	n/a	1	1	FOAM	BEAN	FOAM	BEAN	3	[0, 0, 0]	-999	PAL1	2	R1297T
395.772	0.267	404044	STUDY_ORIENT	n/a	2	4	PLANT	PASS	CHIN	PLANT	3	[0, 0, 0]	-999	PAL1	2	R1297T
396.039	0.666	404311	STUDY_ORIENT_OFF	n/a	2	4	PLANT	PASS	CHIN	PLANT	3	[0, 0, 0]	-999	PAL1	2	R1297T
396.705	4.001	404977	STUDY_PAIR	n/a	2	4	PLANT	PASS	CHIN	PLANT	3	[0, 0, 0]	-999	PAL1	2	R1297T
400.706	1.017	408978	PAIR_OFF	n/a	2	4	PLANT	PASS	CHIN	PLANT	3	[0, 0, 0]	-999	PAL1	2	R1297T
401.723	0.267	409995	STUDY_ORIENT	n/a	3	3	GRASS	SUN	GRASS	SUN	3	[0, 0, 0]	-999	PAL1	2	R1297T
401.99	0.566	410262	STUDY_ORIENT_OFF	n/a	3	3	GRASS	SUN	GRASS	SUN	3	[0, 0, 0]	-999	PAL1	2	R1297T
402.556	4.018	410828	STUDY_PAIR	n/a	3	3	GRASS	SUN	GRASS	SUN	3	[0, 0, 0]	-999	PAL1	2	R1297T
406.574	1.017	414845	PAIR_OFF	n/a	3	3	GRASS	SUN	GRASS	SUN	3	[0, 0, 0]	-999	PAL1	2	R1297T
407.591	0.266	415862	STUDY_ORIENT	n/a	4	2	BOAT	WAVE	WAVE	BOAT	3	[0, 0, 0]	-999	PAL1	2	R1297T
407.857	0.552	416128	STUDY_ORIENT_OFF	n/a	4	2	BOAT	WAVE	WAVE	BOAT	3	[0, 0, 0]	-999	PAL1	2	R1297T
408.409	4.017	416680	STUDY_PAIR	n/a	4	2	BOAT	WAVE	WAVE	BOAT	3	[0, 0, 0]	-999	PAL1	2	R1297T
412.426	1.017	420697	PAIR_OFF	n/a	4	2	BOAT	WAVE	WAVE	BOAT	3	[0, 0, 0]	-999	PAL1	2	R1297T
413.443	0.265	421714	STUDY_ORIENT	n/a	5	5	SPRING	PASS	SINK	SPRING	3	[0, 0, 0]	-999	PAL1	2	R1297T
413.708	0.668	421979	STUDY_ORIENT_OFF	n/a	5	5	SPRING	PASS	SINK	SPRING	3	[0, 0, 0]	-999	PAL1	2	R1297T
414.376	4.018	422647	STUDY_PAIR	n/a	5	5	SPRING	PASS	SINK	SPRING	3	[0, 0, 0]	-999	PAL1	2	R1297T
418.394	1.016	426665	PAIR_OFF	n/a	5	5	SPRING	PASS	SINK	SPRING	3	[0, 0, 0]	-999	PAL1	2	R1297T
419.41	0.266	427681	STUDY_ORIENT	n/a	6	6	INK	CROWN	CROWN	INK	3	[0, 0, 0]	-999	PAL1	2	R1297T
419.676	0.685	427947	STUDY_ORIENT_OFF	n/a	6	6	INK	CROWN	CROWN	INK	3	[0, 0, 0]	-999	PAL1	2	R1297T
420.361	4.017	428632	STUDY_PAIR	n/a	6	6	INK	CROWN	CROWN	INK	3	[0, 0, 0]	-999	PAL1	2	R1297T
424.378	1.001	432648	PAIR_OFF	n/a	6	6	INK	CROWN	CROWN	INK	3	[0, 0, 0]	-999	PAL1	2	R1297T
425.379	0.0	433649	MATH_START	n/a	-999	-999	n/a	n/a	n/a	n/a	3	[0, 0, 0]	-999	PAL1	2	R1297T
425.379	0.0	433649	ENCODING_END	n/a	-999	-999	n/a	n/a	n/a	n/a	3	[0, 0, 0]	-999	PAL1	2	R1297T
425.379	0.016	433649	START	n/a	-999	-999	n/a	n/a	n/a	n/a	3	[-999, -999, -999]	-999	PAL1	2	R1297T
425.395	3.666	433665	PROB	3632	-999	-999	n/a	n/a	n/a	n/a	3	[9, 5, 2]	16	PAL1	2	R1297T
429.061	4.235	437331	PROB	4207	-999	-999	n/a	n/a	n/a	n/a	3	[8, 5, 8]	21	PAL1	2	R1297T
433.296	8.568	441566	PROB	8532	-999	-999	n/a	n/a	n/a	n/a	3	[9, 6, 7]	22	PAL1	2	R1297T
441.864	3.996	450133	PROB	3996	-999	-999	n/a	n/a	n/a	n/a	3	[8, 3, 5]	16	PAL1	2	R1297T
445.86	0.021	454129	STOP	n/a	-999	-999	n/a	n/a	n/a	n/a	3	[-999, -999, -999]	-999	PAL1	2	R1297T
445.881	0.0	454150	MATH_END	n/a	-999	-999	n/a	n/a	n/a	n/a	3	[0, 0, 0]	-999	PAL1	2	R1297T
445.881	0.016	454150	RECALL_START	n/a	-999	-999	n/a	n/a	n/a	n/a	3	[0, 0, 0]	-999	PAL1	2	R1297T
445.897	0.268	454166	TEST_ORIENT	n/a	1	1	FOAM	BEAN	FOAM	BEAN	3	[0, 0, 0]	-999	PAL1	2	R1297T
446.165	0.533	454434	RETRIEVAL_ORIENT_OFF	n/a	-999	-999	n/a	n/a	n/a	n/a	3	[0, 0, 0]	-999	PAL1	2	R1297T
446.698	0.001	454967	TEST_PROBE	n/a	1	1	FOAM	BEAN	FOAM	BEAN	3	[0, 0, 0]	-999	PAL1	2	R1297T
446.699	2.022	454968	REC_START	n/a	1	-999	n/a	BEAN	n/a	n/a	3	[0, 0, 0]	-999	PAL1	2	R1297T
448.721	1.994	456990	REC_EVENT	2022	1	1	FOAM	BEAN	FOAM	BEAN	3	[0, 0, 0]	-999	PAL1	2	R1297T
450.715	1.0	458984	PROBE_OFF	n/a	1	-999	n/a	n/a	n/a	n/a	3	[0, 0, 0]	-999	PAL1	2	R1297T
451.715	0.017	459984	REC_END	n/a	1	-999	n/a	n/a	n/a	n/a	3	[0, 0, 0]	-999	PAL1	2	R1297T
451.732	0.267	460001	TEST_ORIENT	n/a	4	2	BOAT	WAVE	WAVE	BOAT	3	[0, 0, 0]	-999	PAL1	2	R1297T
451.999	0.75	460268	RETRIEVAL_ORIENT_OFF	n/a	1	-999	n/a	n/a	n/a	n/a	3	[0, 0, 0]	-999	PAL1	2	R1297T
452.749	0.0	461018	REC_START	n/a	4	-999	n/a	WAVE	n/a	n/a	3	[0, 0, 0]	-999	PAL1	2	R1297T
452.749	0.97	461018	TEST_PROBE	n/a	4	2	BOAT	WAVE	WAVE	BOAT	3	[0, 0, 0]	-999	PAL1	2	R1297T
453.719	3.047	461988	REC_EVENT	970	4	2	BOAT	WAVE	WAVE	BOAT	3	[0, 0, 0]	-999	PAL1	2	R1297T
456.766	1.0	465034	PROBE_OFF	n/a	4	-999	n/a	n/a	n/a	n/a	3	[0, 0, 0]	-999	PAL1	2	R1297T
457.766	0.017	466034	REC_END	n/a	4	-999	n/a	n/a	n/a	n/a	3	[0, 0, 0]	-999	PAL1	2	R1297T
457.783	0.267	466051	TEST_ORIENT	n/a	3	3	GRASS	SUN	GRASS	SUN	3	[0, 0, 0]	-999	PAL1	2	R1297T
458.05	0.583	466318	RETRIEVAL_ORIENT_OFF	n/a	4	-999	n/a	n/a	n/a	n/a	3	[0, 0, 0]	-999	PAL1	2	R1297T
458.633	0.001	466901	TEST_PROBE	n/a	3	3	GRASS	SUN	GRASS	SUN	3	[0, 0, 0]	-999	PAL1	2	R1297T
458.634	1.838	466902	REC_START	n/a	3	-999	n/a	SUN	n/a	n/a	3	[0, 0, 0]	-999	PAL1	2	R1297T
460.472	2.179	468740	REC_EVENT	1838	3	3	GRASS	SUN	GRASS	SUN	3	[0, 0, 0]	-999	PAL1	2	R1297T
462.651	1.0	470919	PROBE_OFF	n/a	3	-999	n/a	n/a	n/a	n/a	3	[0, 0, 0]	-999	PAL1	2	R1297T
463.651	0.016	471919	REC_END	n/a	3	-999	n/a	n/a	n/a	n/a	3	[0, 0, 0]	-999	PAL1	2	R1297T
463.667	0.267	471935	TEST_ORIENT	n/a	2	4	PLANT	PASS	CHIN	PLANT	3	[0, 0, 0]	-999	PAL1	2	R1297T
463.934	0.535	472202	RETRIEVAL_ORIENT_OFF	n/a	3	-999	n/a	n/a	n/a	n/a	3	[0, 0, 0]	-999	PAL1	2	R1297T
464.469	0.001	472737	TEST_PROBE	n/a	2	4	PLANT	PASS	CHIN	PLANT	3	[0, 0, 0]	-999	PAL1	2	R1297T
464.47	4.016	472738	REC_START	n/a	2	-999	n/a	PASS	n/a	n/a	3	[0, 0, 0]	-999	PAL1	2	R1297T
468.486	0.424	476754	PROBE_OFF	n/a	2	-999	n/a	n/a	n/a	n/a	3	[0, 0, 0]	-999	PAL1	2	R1297T
468.91	0.576	477178	REC_EVENT	4440	2	4	PLANT	PASS	CHIN	PLANT	3	[0, 0, 0]	-999	PAL1	2	R1297T
469.486	0.017	477754	REC_END	n/a	2	-999	n/a	n/a	n/a	n/a	3	[0, 0, 0]	-999	PAL1	2	R1297T
469.503	0.266	477771	TEST_ORIENT	n/a	5	5	SPRING	PASS	SINK	SPRING	3	[0, 0, 0]	-999	PAL1	2	R1297T
469.769	0.634	478037	RETRIEVAL_ORIENT_OFF	n/a	2	-999	n/a	n/a	n/a	n/a	3	[0, 0, 0]	-999	PAL1	2	R1297T
470.403	0.001	478670	TEST_PROBE	n/a	5	5	SPRING	PASS	SINK	SPRING	3	[0, 0, 0]	-999	PAL1	2	R1297T
470.404	4.016	478671	REC_START	n/a	5	-999	n/a	PASS	n/a	n/a	3	[0, 0, 0]	-999	PAL1	2	R1297T
474.42	0.444	482687	PROBE_OFF	n/a	5	-999	n/a	n/a	n/a	n/a	3	[0, 0, 0]	-999	PAL1	2	R1297T
474.864	0.557	483131	REC_EVENT	4460	5	5	SPRING	PASS	SINK	SPRING	3	[0, 0, 0]	-999	PAL1	2	R1297T
475.421	0.016	483688	REC_END	n/a	5	-999	n/a	n/a	n/a	n/a	3	[0, 0, 0]	-999	PAL1	2	R1297T
475.437	0.266	483704	TEST_ORIENT	n/a	6	6	INK	CROWN	CROWN	INK	3	[0, 0, 0]	-999	PAL1	2	R1297T
475.703	0.534	483970	RETRIEVAL_ORIENT_OFF	n/a	5	-999	n/a	n/a	n/a	n/a	3	[0, 0, 0]	-999	PAL1	2	R1297T
476.237	0.001	484504	TEST_PROBE	n/a	6	6	INK	CROWN	CROWN	INK	3	[0, 0, 0]	-999	PAL1	2	R1297T
476.238	2.365	484505	REC_START	n/a	6	-999	n/a	CROWN	n/a	n/a	3	[0, 0, 0]	-999	PAL1	2	R1297T
478.603	1.635	486870	REC_EVENT	2365	6	6	INK	CROWN	CROWN	INK	3	[0, 0, 0]	-999	PAL1	2	R1297T
480.238	1.0	488505	PROBE_OFF	n/a	6	-999	n/a	n/a	n/a	n/a	3	[0, 0, 0]	-999	PAL1	2	R1297T
481.238	0.01	489505	REC_END	n/a	6	-999	n/a	n/a	n/a	n/a	3	[0, 0, 0]	-999	PAL1	2	R1297T
481.248	6.041	489515	RECALL_END	n/a	-999	-999	n/a	n/a	n/a	n/a	3	[0, 0, 0]	-999	PAL1	2	R1297T
487.289	10.928	495555	TRIAL	n/a	-999	-999	n/a	n/a	n/a	n/a	4	[0, 0, 0]	-999	PAL1	2	R1297T
498.217	0.008	506483	ENCODING_START	n/a	-999	-999	n/a	n/a	n/a	n/a	4	[0, 0, 0]	-999	PAL1	2	R1297T
498.225	0.266	506491	STUDY_ORIENT	n/a	1	1	RICE	SUIT	SOUP	RICE	4	[0, 0, 0]	-999	PAL1	2	R1297T
498.491	0.616	506757	STUDY_ORIENT_OFF	n/a	1	1	RICE	SUIT	SOUP	RICE	4	[0, 0, 0]	-999	PAL1	2	R1297T
499.107	4.018	507373	STUDY_PAIR	n/a	1	1	RICE	SUIT	SOUP	RICE	4	[0, 0, 0]	-999	PAL1	2	R1297T
503.125	1.016	511391	PAIR_OFF	n/a	1	1	RICE	SUIT	SOUP	RICE	4	[0, 0, 0]	-999	PAL1	2	R1297T
504.141	0.268	512406	STUDY_ORIENT	n/a	2	4	JUICE	PEARL	JUICE	PEARL	4	[0, 0, 0]	-999	PAL1	2	R1297T
504.409	0.533	512674	STUDY_ORIENT_OFF	n/a	2	4	JUICE	PEARL	JUICE	PEARL	4	[0, 0, 0]	-999	PAL1	2	R1297T
504.942	4.017	513207	STUDY_PAIR	n/a	2	4	JUICE	PEARL	JUICE	PEARL	4	[0, 0, 0]	-999	PAL1	2	R1297T
508.959	1.017	517224	PAIR_OFF	n/a	2	4	JUICE	PEARL	JUICE	PEARL	4	[0, 0, 0]	-999	PAL1	2	R1297T
509.976	0.268	518241	STUDY_ORIENT	n/a	3	5	SHRIMP	MOUSE	SHRIMP	MOUSE	4	[0, 0, 0]	-999	PAL1	2	R1297T
510.244	0.532	518509	STUDY_ORIENT_OFF	n/a	3	5	SHRIMP	MOUSE	SHRIMP	MOUSE	4	[0, 0, 0]	-999	PAL1	2	R1297T
510.776	4.017	519041	STUDY_PAIR	n/a	3	5	SHRIMP	MOUSE	SHRIMP	MOUSE	4	[0, 0, 0]	-999	PAL1	2	R1297T
514.793	1.017	523058	PAIR_OFF	n/a	3	5	SHRIMP	MOUSE	SHRIMP	MOUSE	4	[0, 0, 0]	-999	PAL1	2	R1297T
515.81	0.267	524075	STUDY_ORIENT	n/a	4	6	DOLL	COIN	COIN	DOLL	4	[0, 0, 0]	-999	PAL1	2	R1297T
516.077	0.583	524342	STUDY_ORIENT_OFF	n/a	4	6	DOLL	COIN	COIN	DOLL	4	[0, 0, 0]	-999	PAL1	2	R1297T
516.66	4.018	524925	STUDY_PAIR	n/a	4	6	DOLL	COIN	COIN	DOLL	4	[0, 0, 0]	-999	PAL1	2	R1297T
520.678	1.017	528942	PAIR_OFF	n/a	4	6	DOLL	COIN	COIN	DOLL	4	[0, 0, 0]	-999	PAL1	2	R1297T
521.695	0.266	529959	STUDY_ORIENT	n/a	5	3	PHONE	POLE	PHONE	POLE	4	[0, 0, 0]	-999	PAL1	2	R1297T
521.961	0.684	530225	STUDY_ORIENT_OFF	n/a	5	3	PHONE	POLE	PHONE	POLE	4	[0, 0, 0]	-999	PAL1	2	R1297T
522.645	4.017	530909	STUDY_PAIR	n/a	5	3	PHONE	POLE	PHONE	POLE	4	[0, 0, 0]	-999	PAL1	2	R1297T
526.662	1.017	534926	PAIR_OFF	n/a	5	3	PHONE	POLE	PHONE	POLE	4	[0, 0, 0]	-999	PAL1	2	R1297T
527.679	0.267	535943	STUDY_ORIENT	n/a	6	2	DRESS	COW	DRESS	COW	4	[0, 0, 0]	-999	PAL1	2	R1297T
527.946	0.667	536210	STUDY_ORIENT_OFF	n/a	6	2	DRESS	COW	DRESS	COW	4	[0, 0, 0]	-999	PAL1	2	R1297T
528.613	4.017	536877	STUDY_PAIR	n/a	6	2	DRESS	COW	DRESS	COW	4	[0, 0, 0]	-999	PAL1	2	R1297T
532.63	1.0	540894	PAIR_OFF	n/a	6	2	DRESS	COW	DRESS	COW	4	[0, 0, 0]	-999	PAL1	2	R1297T
533.63	0.0	541894	ENCODING_END	n/a	-999	-999	n/a	n/a	n/a	n/a	4	[0, 0, 0]	-999	PAL1	2	R1297T
533.63	0.001	541894	MATH_START	n/a	-999	-999	n/a	n/a	n/a	n/a	4	[0, 0, 0]	-999	PAL1	2	R1297T
533.631	0.016	541895	START	n/a	-999	-999	n/a	n/a	n/a	n/a	4	[-999, -999, -999]	-999	PAL1	2	R1297T
533.647	5.802	541911	PROB	5765	-999	-999	n/a	n/a	n/a	n/a	4	[9, 8, 9]	26	PAL1	2	R1297T
539.449	4.333	547712	PROB	4299	-999	-999	n/a	n/a	n/a	n/a	4	[7, 1, 8]	16	PAL1	2	R1297T
543.782	3.618	552045	PROB	3582	-999	-999	n/a	n/a	n/a	n/a	4	[8, 8, 1]	17	PAL1	2	R1297T
547.4	3.7	555663	PROB	3668	-999	-999	n/a	n/a	n/a	n/a	4	[1, 2, 1]	4	PAL1	2	R1297T
551.1	5.328	559363	PROB	5328	-999	-999	n/a	n/a	n/a	n/a	4	[6, 8, 8]	22	PAL1	2	R1297T
556.428	0.007	564690	STOP	n/a	-999	-999	n/a	n/a	n/a	n/a	4	[-999, -999, -999]	-999	PAL1	2	R1297T
556.435	0.001	564697	MATH_END	n/a	-999	-999	n/a	n/a	n/a	n/a	4	[0, 0, 0]	-999	PAL1	2	R1297T
556.436	0.016	564698	RECALL_START	n/a	-999	-999	n/a	n/a	n/a	n/a	4	[0, 0, 0]	-999	PAL1	2	R1297T
556.452	0.266	564714	TEST_ORIENT	n/a	1	1	RICE	SUIT	SOUP	RICE	4	[0, 0, 0]	-999	PAL1	2	R1297T
556.718	0.568	564980	RETRIEVAL_ORIENT_OFF	n/a	-999	-999	n/a	n/a	n/a	n/a	4	[0, 0, 0]	-999	PAL1	2	R1297T
557.286	0.001	565548	TEST_PROBE	n/a	1	1	RICE	SUIT	SOUP	RICE	4	[0, 0, 0]	-999	PAL1	2	R1297T
557.287	1.538	565549	REC_START	n/a	1	-999	n/a	SUIT	n/a	n/a	4	[0, 0, 0]	-999	PAL1	2	R1297T
558.825	2.478	567087	REC_EVENT	1538	1	1	RICE	SUIT	SOUP	RICE	4	[0, 0, 0]	-999	PAL1	2	R1297T
561.303	1.0	569565	PROBE_OFF	n/a	1	-999	n/a	n/a	n/a	n/a	4	[0, 0, 0]	-999	PAL1	2	R1297T
562.303	0.017	570565	REC_END	n/a	1	-999	n/a	n/a	n/a	n/a	4	[0, 0, 0]	-999	PAL1	2	R1297T
562.32	0.265	570582	TEST_ORIENT	n/a	6	2	DRESS	COW	DRESS	COW	4	[0, 0, 0]	-999	PAL1	2	R1297T
562.585	0.768	570847	RETRIEVAL_ORIENT_OFF	n/a	1	-999	n/a	n/a	n/a	n/a	4	[0, 0, 0]	-999	PAL1	2	R1297T
563.353	0.002	571615	TEST_PROBE	n/a	6	2	DRESS	COW	DRESS	COW	4	[0, 0, 0]	-999	PAL1	2	R1297T
563.355	1.219	571617	REC_START	n/a	6	-999	n/a	COW	n/a	n/a	4	[0, 0, 0]	-999	PAL1	2	R1297T
564.574	2.797	572836	REC_EVENT	1219	6	2	DRESS	COW	DRESS	COW	4	[0, 0, 0]	-999	PAL1	2	R1297T
567.371	1.009	575633	PROBE_OFF	n/a	6	-999	n/a	n/a	n/a	n/a	4	[0, 0, 0]	-999	PAL1	2	R1297T
568.38	0.008	576642	REC_END	n/a	6	-999	n/a	n/a	n/a	n/a	4	[0, 0, 0]	-999	PAL1	2	R1297T
568.388	0.265	576650	TEST_ORIENT	n/a	5	3	PHONE	POLE	PHONE	POLE	4	[0, 0, 0]	-999	PAL1	2	R1297T
568.653	0.668	576915	RETRIEVAL_ORIENT_OFF	n/a	6	-999	n/a	n/a	n/a	n/a	4	[0, 0, 0]	-999	PAL1	2	R1297T
569.321	0.001	577582	TEST_PROBE	n/a	5	3	PHONE	POLE	PHONE	POLE	4	[0, 0, 0]	-999	PAL1	2	R1297T
569.322	1.09	577583	REC_START	n/a	5	-999	n/a	POLE	n/a	n/a	4	[0, 0, 0]	-999	PAL1	2	R1297T
570.412	2.926	578673	REC_EVENT	1090	5	3	PHONE	POLE	PHONE	POLE	4	[0, 0, 0]	-999	PAL1	2	R1297T
573.338	1.001	581599	PROBE_OFF	n/a	5	-999	n/a	n/a	n/a	n/a	4	[0, 0, 0]	-999	PAL1	2	R1297T
574.339	0.016	582600	REC_END	n/a	5	-999	n/a	n/a	n/a	n/a	4	[0, 0, 0]	-999	PAL1	2	R1297T
574.355	0.266	582616	TEST_ORIENT	n/a	2	4	JUICE	PEARL	JUICE	PEARL	4	[0, 0, 0]	-999	PAL1	2	R1297T
574.621	0.634	582882	RETRIEVAL_ORIENT_OFF	n/a	5	-999	n/a	n/a	n/a	n/a	4	[0, 0, 0]	-999	PAL1	2	R1297T
575.255	0.001	583516	TEST_PROBE	n/a	2	4	JUICE	PEARL	JUICE	PEARL	4	[0, 0, 0]	-999	PAL1	2	R1297T
575.256	1.667	583517	REC_START	n/a	2	-999	n/a	PEARL	n/a	n/a	4	[0, 0, 0]	-999	PAL1	2	R1297T
576.923	2.35	585184	REC_EVENT	1667	2	4	JUICE	PEARL	JUICE	PEARL	4	[0, 0, 0]	-999	PAL1	2	R1297T
579.273	1.0	587534	PROBE_OFF	n/a	2	-999	n/a	n/a	n/a	n/a	4	[0, 0, 0]	-999	PAL1	2	R1297T
580.273	0.017	588534	REC_END	n/a	2	-999	n/a	n/a	n/a	n/a	4	[0, 0, 0]	-999	PAL1	2	R1297T
580.29	0.265	588551	TEST_ORIENT	n/a	3	5	SHRIMP	MOUSE	SHRIMP	MOUSE	4	[0, 0, 0]	-999	PAL1	2	R1297T
580.555	0.551	588816	RETRIEVAL_ORIENT_OFF	n/a	2	-999	n/a	n/a	n/a	n/a	4	[0, 0, 0]	-999	PAL1	2	R1297T
581.106	0.0	589367	TEST_PROBE	n/a	3	5	SHRIMP	MOUSE	SHRIMP	MOUSE	4	[0, 0, 0]	-999	PAL1	2	R1297T
581.106	1.485	589367	REC_START	n/a	3	-999	n/a	MOUSE	n/a	n/a	4	[0, 0, 0]	-999	PAL1	2	R1297T
582.591	2.532	590852	REC_EVENT	1485	3	5	SHRIMP	MOUSE	SHRIMP	MOUSE	4	[0, 0, 0]	-999	PAL1	2	R1297T
585.123	1.012	593384	PROBE_OFF	n/a	3	-999	n/a	n/a	n/a	n/a	4	[0, 0, 0]	-999	PAL1	2	R1297T
586.135	0.021	594395	REC_END	n/a	3	-999	n/a	n/a	n/a	n/a	4	[0, 0, 0]	-999	PAL1	2	R1297T
586.156	0.268	594416	TEST_ORIENT	n/a	4	6	DOLL	COIN	COIN	DOLL	4	[0, 0, 0]	-999	PAL1	2	R1297T
586.424	0.683	594684	RETRIEVAL_ORIENT_OFF	n/a	3	-999	n/a	n/a	n/a	n/a	4	[0, 0, 0]	-999	PAL1	2	R1297T
587.107	0.0	595367	TEST_PROBE	n/a	4	6	DOLL	COIN	COIN	DOLL	4	[0, 0, 0]	-999	PAL1	2	R1297T
587.107	1.883	595367	REC_START	n/a	4	-999	n/a	COIN	n/a	n/a	4	[0, 0, 0]	-999	PAL1	2	R1297T
588.99	2.134	597250	REC_EVENT	1883	4	6	DOLL	COIN	COIN	DOLL	4	[0, 0, 0]	-999	PAL1	2	R1297T
591.124	1.0	599384	PROBE_OFF	n/a	4	-999	n/a	n/a	n/a	n/a	4	[0, 0, 0]	-999	PAL1	2	R1297T
592.124	0.004	600384	REC_END	n/a	4	-999	n/a	n/a	n/a	n/a	4	[0, 0, 0]	-999	PAL1	2	R1297T
592.128	4.764	600388	RECALL_END	n/a	-999	-999	n/a	n/a	n/a	n/a	4	[0, 0, 0]	-999	PAL1	2	R1297T
596.892	10.929	605152	TRIAL	n/a	-999	-999	n/a	n/a	n/a	n/a	5	[0, 0, 0]	-999	PAL1	2	R1297T
607.821	0.006	616080	ENCODING_START	n/a	-999	-999	n/a	n/a	n/a	n/a	5	[0, 0, 0]	-999	PAL1	2	R1297T
607.827	0.267	616086	STUDY_ORIENT	n/a	1	5	VASE	SHIELD	SHELL	VASE	5	[0, 0, 0]	-999	PAL1	2	R1297T
608.094	0.683	616353	STUDY_ORIENT_OFF	n/a	1	5	VASE	SHIELD	SHELL	VASE	5	[0, 0, 0]	-999	PAL1	2	R1297T
608.777	4.018	617036	STUDY_PAIR	n/a	1	5	VASE	SHIELD	SHELL	VASE	5	[0, 0, 0]	-999	PAL1	2	R1297T
612.795	1.016	621054	PAIR_OFF	n/a	1	5	VASE	SHIELD	SHELL	VASE	5	[0, 0, 0]	-999	PAL1	2	R1297T
613.811	0.267	622070	STUDY_ORIENT	n/a	2	4	OWL	ROOF	OWL	ROOF	5	[0, 0, 0]	-999	PAL1	2	R1297T
614.078	0.6	622337	STUDY_ORIENT_OFF	n/a	2	4	OWL	ROOF	OWL	ROOF	5	[0, 0, 0]	-999	PAL1	2	R1297T
614.678	4.018	622937	STUDY_PAIR	n/a	2	4	OWL	ROOF	OWL	ROOF	5	[0, 0, 0]	-999	PAL1	2	R1297T
618.696	1.016	626954	PAIR_OFF	n/a	2	4	OWL	ROOF	OWL	ROOF	5	[0, 0, 0]	-999	PAL1	2	R1297T
619.712	0.267	627970	STUDY_ORIENT	n/a	3	3	STEAK	CAVE	CAVE	STEAK	5	[0, 0, 0]	-999	PAL1	2	R1297T
619.979	0.717	628237	STUDY_ORIENT_OFF	n/a	3	3	STEAK	CAVE	CAVE	STEAK	5	[0, 0, 0]	-999	PAL1	2	R1297T
620.696	4.017	628954	STUDY_PAIR	n/a	3	3	STEAK	CAVE	CAVE	STEAK	5	[0, 0, 0]	-999	PAL1	2	R1297T
624.713	1.017	632971	PAIR_OFF	n/a	3	3	STEAK	CAVE	CAVE	STEAK	5	[0, 0, 0]	-999	PAL1	2	R1297T
625.73	0.267	633988	STUDY_ORIENT	n/a	4	6	STEM	PASS	STOVE	STEM	5	[0, 0, 0]	-999	PAL1	2	R1297T
625.997	0.683	634255	STUDY_ORIENT_OFF	n/a	4	6	STEM	PASS	STOVE	STEM	5	[0, 0, 0]	-999	PAL1	2	R1297T
626.68	4.018	634938	STUDY_PAIR	n/a	4	6	STEM	PASS	STOVE	STEM	5	[0, 0, 0]	-999	PAL1	2	R1297T
630.698	1.017	638956	PAIR_OFF	n/a	4	6	STEM	PASS	STOVE	STEM	5	[0, 0, 0]	-999	PAL1	2	R1297T
631.715	0.266	639973	STUDY_ORIENT	n/a	5	1	PEN	PLANE	PEN	PLANE	5	[0, 0, 0]	-999	PAL1	2	R1297T
631.981	0.567	640239	STUDY_ORIENT_OFF	n/a	5	1	PEN	PLANE	PEN	PLANE	5	[0, 0, 0]	-999	PAL1	2	R1297T
632.548	4.018	640806	STUDY_PAIR	n/a	5	1	PEN	PLANE	PEN	PLANE	5	[0, 0, 0]	-999	PAL1	2	R1297T
636.566	1.016	644823	PAIR_OFF	n/a	5	1	PEN	PLANE	PEN	PLANE	5	[0, 0, 0]	-999	PAL1	2	R1297T
637.582	0.267	645839	STUDY_ORIENT	n/a	6	2	HAT	SCHOOL	HAT	SCHOOL	5	[0, 0, 0]	-999	PAL1	2	R1297T
637.849	0.635	646106	STUDY_ORIENT_OFF	n/a	6	2	HAT	SCHOOL	HAT	SCHOOL	5	[0, 0, 0]	-999	PAL1	2	R1297T
638.484	4.017	646741	STUDY_PAIR	n/a	6	2	HAT	SCHOOL	HAT	SCHOOL	5	[0, 0, 0]	-999	PAL1	2	R1297T
642.501	1.0	650758	PAIR_OFF	n/a	6	2	HAT	SCHOOL	HAT	SCHOOL	5	[0, 0, 0]	-999	PAL1	2	R1297T
643.501	0.0	651758	ENCODING_END	n/a	-999	-999	n/a	n/a	n/a	n/a	5	[0, 0, 0]	-999	PAL1	2	R1297T
643.501	0.0	651758	MATH_START	n/a	-999	-999	n/a	n/a	n/a	n/a	5	[0, 0, 0]	-999	PAL1	2	R1297T
643.501	0.016	651758	START	n/a	-999	-999	n/a	n/a	n/a	n/a	5	[-999, -999, -999]	-999	PAL1	2	R1297T
643.517	3.685	651774	PROB	3656	-999	-999	n/a	n/a	n/a	n/a	5	[2, 9, 2]	13	PAL1	2	R1297T
647.202	3.9	655459	PROB	3874	-999	-999	n/a	n/a	n/a	n/a	5	[9, 8, 2]	19	PAL1	2	R1297T
651.102	3.483	659359	PROB	3461	-999	-999	n/a	n/a	n/a	n/a	5	[1, 8, 4]	13	PAL1	2	R1297T
654.585	3.068	662841	PROB	3042	-999	-999	n/a	n/a	n/a	n/a	5	[4, 1, 9]	14	PAL1	2	R1297T
657.653	10.704	665909	PROB	10704	-999	-999	n/a	n/a	n/a	n/a	5	[8, 6, 7]	21	PAL1	2	R1297T
668.357	0.015	676612	STOP	n/a	-999	-999	n/a	n/a	n/a	n/a	5	[-999, -999, -999]	-999	PAL1	2	R1297T
668.372	0.001	676627	MATH_END	n/a	-999	-999	n/a	n/a	n/a	n/a	5	[0, 0, 0]	-999	PAL1	2	R1297T
668.373	0.016	676628	RECALL_START	n/a	-999	-999	n/a	n/a	n/a	n/a	5	[0, 0, 0]	-999	PAL1	2	R1297T
668.389	0.266	676644	TEST_ORIENT	n/a	5	1	PEN	PLANE	PEN	PLANE	5	[0, 0, 0]	-999	PAL1	2	R1297T
668.655	0.667	676910	RETRIEVAL_ORIENT_OFF	n/a	-999	-999	n/a	n/a	n/a	n/a	5	[0, 0, 0]	-999	PAL1	2	R1297T
669.322	0.001	677577	TEST_PROBE	n/a	5	1	PEN	PLANE	PEN	PLANE	5	[0, 0, 0]	-999	PAL1	2	R1297T
669.323	1.026	677578	REC_START	n/a	5	-999	n/a	PLANE	n/a	n/a	5	[0, 0, 0]	-999	PAL1	2	R1297T
670.349	2.991	678604	REC_EVENT	1026	5	1	PEN	PLANE	PEN	PLANE	5	[0, 0, 0]	-999	PAL1	2	R1297T
673.34	1.0	681595	PROBE_OFF	n/a	5	-999	n/a	n/a	n/a	n/a	5	[0, 0, 0]	-999	PAL1	2	R1297T
674.34	0.017	682595	REC_END	n/a	5	-999	n/a	n/a	n/a	n/a	5	[0, 0, 0]	-999	PAL1	2	R1297T
674.357	0.265	682612	TEST_ORIENT	n/a	6	2	HAT	SCHOOL	HAT	SCHOOL	5	[0, 0, 0]	-999	PAL1	2	R1297T
674.622	0.668	682877	RETRIEVAL_ORIENT_OFF	n/a	5	-999	n/a	n/a	n/a	n/a	5	[0, 0, 0]	-999	PAL1	2	R1297T
675.29	0.001	683545	TEST_PROBE	n/a	6	2	HAT	SCHOOL	HAT	SCHOOL	5	[0, 0, 0]	-999	PAL1	2	R1297T
675.291	0.855	683546	REC_START	n/a	6	-999	n/a	SCHOOL	n/a	n/a	5	[0, 0, 0]	-999	PAL1	2	R1297T
676.146	3.162	684401	REC_EVENT	855	6	2	HAT	SCHOOL	HAT	SCHOOL	5	[0, 0, 0]	-999	PAL1	2	R1297T
679.308	1.0	687563	PROBE_OFF	n/a	6	-999	n/a	n/a	n/a	n/a	5	[0, 0, 0]	-999	PAL1	2	R1297T
680.308	0.017	688563	REC_END	n/a	6	-999	n/a	n/a	n/a	n/a	5	[0, 0, 0]	-999	PAL1	2	R1297T
680.325	0.265	688580	TEST_ORIENT	n/a	3	3	STEAK	CAVE	CAVE	STEAK	5	[0, 0, 0]	-999	PAL1	2	R1297T
680.59	0.718	688845	RETRIEVAL_ORIENT_OFF	n/a	6	-999	n/a	n/a	n/a	n/a	5	[0, 0, 0]	-999	PAL1	2	R1297T
681.308	0.001	689563	TEST_PROBE	n/a	3	3	STEAK	CAVE	CAVE	STEAK	5	[0, 0, 0]	-999	PAL1	2	R1297T
681.309	1.361	689564	REC_START	n/a	3	-999	n/a	CAVE	n/a	n/a	5	[0, 0, 0]	-999	PAL1	2	R1297T
682.67	2.655	690925	REC_EVENT	1361	3	3	STEAK	CAVE	CAVE	STEAK	5	[0, 0, 0]	-999	PAL1	2	R1297T
685.325	1.001	693579	PROBE_OFF	n/a	3	-999	n/a	n/a	n/a	n/a	5	[0, 0, 0]	-999	PAL1	2	R1297T
686.326	0.016	694580	REC_END	n/a	3	-999	n/a	n/a	n/a	n/a	5	[0, 0, 0]	-999	PAL1	2	R1297T
686.342	0.266	694596	TEST_ORIENT	n/a	2	4	OWL	ROOF	OWL	ROOF	5	[0, 0, 0]	-999	PAL1	2	R1297T
686.608	0.651	694862	RETRIEVAL_ORIENT_OFF	n/a	3	-999	n/a	n/a	n/a	n/a	5	[0, 0, 0]	-999	PAL1	2	R1297T
687.259	0.001	695513	TEST_PROBE	n/a	2	4	OWL	ROOF	OWL	ROOF	5	[0, 0, 0]	-999	PAL1	2	R1297T
687.26	1.229	695514	REC_START	n/a	2	-999	n/a	ROOF	n/a	n/a	5	[0, 0, 0]	-999	PAL1	2	R1297T
688.489	2.787	696743	REC_EVENT	1229	2	4	OWL	ROOF	OWL	ROOF	5	[0, 0, 0]	-999	PAL1	2	R1297T
691.276	1.001	699530	PROBE_OFF	n/a	2	-999	n/a	n/a	n/a	n/a	5	[0, 0, 0]	-999	PAL1	2	R1297T
692.277	0.016	700531	REC_END	n/a	2	-999	n/a	n/a	n/a	n/a	5	[0, 0, 0]	-999	PAL1	2	R1297T
692.293	0.266	700547	TEST_ORIENT	n/a	1	5	VASE	SHIELD	SHELL	VASE	5	[0, 0, 0]	-999	PAL1	2	R1297T
692.559	0.751	700813	RETRIEVAL_ORIENT_OFF	n/a	2	-999	n/a	n/a	n/a	n/a	5	[0, 0, 0]	-999	PAL1	2	R1297T
693.31	0.001	701564	TEST_PROBE	n/a	1	5	VASE	SHIELD	SHELL	VASE	5	[0, 0, 0]	-999	PAL1	2	R1297T
693.311	4.017	701565	REC_START	n/a	1	-999	n/a	SHIELD	n/a	n/a	5	[0, 0, 0]	-999	PAL1	2	R1297T
697.328	0.303	705582	PROBE_OFF	n/a	1	-999	n/a	n/a	n/a	n/a	5	[0, 0, 0]	-999	PAL1	2	R1297T
697.631	0.697	705885	REC_EVENT	4320	1	5	VASE	SHIELD	SHELL	VASE	5	[0, 0, 0]	-999	PAL1	2	R1297T
698.328	0.016	706582	REC_END	n/a	1	-999	n/a	n/a	n/a	n/a	5	[0, 0, 0]	-999	PAL1	2	R1297T
698.344	0.266	706598	TEST_ORIENT	n/a	4	6	STEM	PASS	STOVE	STEM	5	[0, 0, 0]	-999	PAL1	2	R1297T
698.61	0.618	706864	RETRIEVAL_ORIENT_OFF	n/a	1	-999	n/a	n/a	n/a	n/a	5	[0, 0, 0]	-999	PAL1	2	R1297T
699.228	0.001	707482	TEST_PROBE	n/a	4	6	STEM	PASS	STOVE	STEM	5	[0, 0, 0]	-999	PAL1	2	R1297T
699.229	4.016	707483	REC_START	n/a	4	-999	n/a	PASS	n/a	n/a	5	[0, 0, 0]	-999	PAL1	2	R1297T
703.245	0.069	711498	PROBE_OFF	n/a	4	-999	n/a	n/a	n/a	n/a	5	[0, 0, 0]	-999	PAL1	2	R1297T
703.314	0.931	711567	REC_EVENT	4085	4	6	STEM	PASS	STOVE	STEM	5	[0, 0, 0]	-999	PAL1	2	R1297T
704.245	0.01	712498	REC_END	n/a	4	-999	n/a	n/a	n/a	n/a	5	[0, 0, 0]	-999	PAL1	2	R1297T
704.255	5.274	712508	RECALL_END	n/a	-999	-999	n/a	n/a	n/a	n/a	5	[0, 0, 0]	-999	PAL1	2	R1297T
709.529	10.929	717782	TRIAL	n/a	-999	-999	n/a	n/a	n/a	n/a	6	[0, 0, 0]	-999	PAL1	2	R1297T
720.458	0.007	728710	ENCODING_START	n/a	-999	-999	n/a	n/a	n/a	n/a	6	[0, 0, 0]	-999	PAL1	2	R1297T
720.465	0.266	728717	STUDY_ORIENT	n/a	1	1	CROW	PASS	TRASH	CROW	6	[0, 0, 0]	-999	PAL1	2	R1297T
720.731	0.651	728983	STUDY_ORIENT_OFF	n/a	1	1	CROW	PASS	TRASH	CROW	6	[0, 0, 0]	-999	PAL1	2	R1297T
721.382	4.017	729634	STUDY_PAIR	n/a	1	1	CROW	PASS	TRASH	CROW	6	[0, 0, 0]	-999	PAL1	2	R1297T
725.399	1.017	733651	PAIR_OFF	n/a	1	1	CROW	PASS	TRASH	CROW	6	[0, 0, 0]	-999	PAL1	2	R1297T
726.416	0.266	734668	STUDY_ORIENT	n/a	2	2	MUD	PASS	PIPE	MUD	6	[0, 0, 0]	-999	PAL1	2	R1297T
726.682	0.518	734934	STUDY_ORIENT_OFF	n/a	2	2	MUD	PASS	PIPE	MUD	6	[0, 0, 0]	-999	PAL1	2	R1297T
727.2	4.017	735452	STUDY_PAIR	n/a	2	2	MUD	PASS	PIPE	MUD	6	[0, 0, 0]	-999	PAL1	2	R1297T
731.217	1.017	739469	PAIR_OFF	n/a	2	2	MUD	PASS	PIPE	MUD	6	[0, 0, 0]	-999	PAL1	2	R1297T
732.234	0.267	740486	STUDY_ORIENT	n/a	3	3	DITCH	PASS	TOE	DITCH	6	[0, 0, 0]	-999	PAL1	2	R1297T
732.501	0.532	740753	STUDY_ORIENT_OFF	n/a	3	3	DITCH	PASS	TOE	DITCH	6	[0, 0, 0]	-999	PAL1	2	R1297T
733.033	4.017	741285	STUDY_PAIR	n/a	3	3	DITCH	PASS	TOE	DITCH	6	[0, 0, 0]	-999	PAL1	2	R1297T
737.05	1.017	745301	PAIR_OFF	n/a	3	3	DITCH	PASS	TOE	DITCH	6	[0, 0, 0]	-999	PAL1	2	R1297T
738.067	0.251	746318	STUDY_ORIENT	n/a	4	4	BAG	TOOL	BAG	TOOL	6	[0, 0, 0]	-999	PAL1	2	R1297T
738.318	0.716	746569	STUDY_ORIENT_OFF	n/a	4	4	BAG	TOOL	BAG	TOOL	6	[0, 0, 0]	-999	PAL1	2	R1297T
739.034	4.018	747285	STUDY_PAIR	n/a	4	4	BAG	TOOL	BAG	TOOL	6	[0, 0, 0]	-999	PAL1	2	R1297T
743.052	1.016	751303	PAIR_OFF	n/a	4	4	BAG	TOOL	BAG	TOOL	6	[0, 0, 0]	-999	PAL1	2	R1297T
744.068	0.268	752319	STUDY_ORIENT	n/a	5	5	ZOO	MAP	ZOO	MAP	6	[0, 0, 0]	-999	PAL1	2	R1297T
744.336	0.633	752587	STUDY_ORIENT_OFF	n/a	5	5	ZOO	MAP	ZOO	MAP	6	[0, 0, 0]	-999	PAL1	2	R1297T
744.969	4.017	753220	STUDY_PAIR	n/a	5	5	ZOO	MAP	ZOO	MAP	6	[0, 0, 0]	-999	PAL1	2	R1297T
748.986	1.017	757237	PAIR_OFF	n/a	5	5	ZOO	MAP	ZOO	MAP	6	[0, 0, 0]	-999	PAL1	2	R1297T
750.003	0.267	758253	STUDY_ORIENT	n/a	6	6	FORK	POOL	POOL	FORK	6	[0, 0, 0]	-999	PAL1	2	R1297T
750.27	0.666	758520	STUDY_ORIENT_OFF	n/a	6	6	FORK	POOL	POOL	FORK	6	[0, 0, 0]	-999	PAL1	2	R1297T
750.936	4.018	759186	STUDY_PAIR	n/a	6	6	FORK	POOL	POOL	FORK	6	[0, 0, 0]	-999	PAL1	2	R1297T
754.954	1.001	763204	PAIR_OFF	n/a	6	6	FORK	POOL	POOL	FORK	6	[0, 0, 0]	-999	PAL1	2	R1297T
755.955	0.0	764205	ENCODING_END	n/a	-999	-999	n/a	n/a	n/a	n/a	6	[0, 0, 0]	-999	PAL1	2	R1297T
755.955	0.0	764205	MATH_START	n/a	-999	-999	n/a	n/a	n/a	n/a	6	[0, 0, 0]	-999	PAL1	2	R1297T
755.955	0.016	764205	START	n/a	-999	-999	n/a	n/a	n/a	n/a	6	[-999, -999, -999]	-999	PAL1	2	R1297T
755.971	8.718	764221	PROB	8681	-999	-999	n/a	n/a	n/a	n/a	6	[6, 5, 3]	14	PAL1	2	R1297T
764.689	2.867	772939	PROB	2834	-999	-999	n/a	n/a	n/a	n/a	6	[5, 8, 5]	18	PAL1	2	R1297T
767.556	3.084	775805	PROB	3048	-999	-999	n/a	n/a	n/a	n/a	6	[2, 7, 1]	10	PAL1	2	R1297T
770.64	2.484	778889	PROB	2451	-999	-999	n/a	n/a	n/a	n/a	6	[5, 5, 3]	13	PAL1	2	R1297T
773.124	3.872	781373	PROB	3872	-999	-999	n/a	n/a	n/a	n/a	6	[6, 6, 5]	17	PAL1	2	R1297T
776.996	0.012	785245	STOP	n/a	-999	-999	n/a	n/a	n/a	n/a	6	[-999, -999, -999]	-999	PAL1	2	R1297T
777.008	0.0	785257	MATH_END	n/a	-999	-999	n/a	n/a	n/a	n/a	6	[0, 0, 0]	-999	PAL1	2	R1297T
777.008	0.016	785257	RECALL_START	n/a	-999	-999	n/a	n/a	n/a	n/a	6	[0, 0, 0]	-999	PAL1	2	R1297T
777.024	0.268	785273	TEST_ORIENT	n/a	1	1	CROW	PASS	TRASH	CROW	6	[0, 0, 0]	-999	PAL1	2	R1297T
777.292	0.699	785541	RETRIEVAL_ORIENT_OFF	n/a	-999	-999	n/a	n/a	n/a	n/a	6	[0, 0, 0]	-999	PAL1	2	R1297T
777.991	0.001	786240	TEST_PROBE	n/a	1	1	CROW	PASS	TRASH	CROW	6	[0, 0, 0]	-999	PAL1	2	R1297T
777.992	2.309	786241	REC_START	n/a	1	-999	n/a	PASS	n/a	n/a	6	[0, 0, 0]	-999	PAL1	2	R1297T
780.301	1.708	788550	REC_EVENT	2309	1	1	CROW	PASS	TRASH	CROW	6	[0, 0, 0]	-999	PAL1	2	R1297T
782.009	1.009	790258	PROBE_OFF	n/a	1	-999	n/a	n/a	n/a	n/a	6	[0, 0, 0]	-999	PAL1	2	R1297T
783.018	0.007	791266	REC_END	n/a	1	-999	n/a	n/a	n/a	n/a	6	[0, 0, 0]	-999	PAL1	2	R1297T
783.025	0.268	791273	TEST_ORIENT	n/a	2	2	MUD	PASS	PIPE	MUD	6	[0, 0, 0]	-999	PAL1	2	R1297T
783.293	0.699	791541	RETRIEVAL_ORIENT_OFF	n/a	1	-999	n/a	n/a	n/a	n/a	6	[0, 0, 0]	-999	PAL1	2	R1297T
783.992	0.001	792240	TEST_PROBE	n/a	2	2	MUD	PASS	PIPE	MUD	6	[0, 0, 0]	-999	PAL1	2	R1297T
783.993	2.627	792241	REC_START	n/a	2	-999	n/a	PASS	n/a	n/a	6	[0, 0, 0]	-999	PAL1	2	R1297T
786.62	1.373	794868	REC_EVENT	2627	2	2	MUD	PASS	PIPE	MUD	6	[0, 0, 0]	-999	PAL1	2	R1297T
787.993	1.0	796241	PROBE_OFF	n/a	2	-999	n/a	n/a	n/a	n/a	6	[0, 0, 0]	-999	PAL1	2	R1297T
788.993	0.017	797241	REC_END	n/a	2	-999	n/a	n/a	n/a	n/a	6	[0, 0, 0]	-999	PAL1	2	R1297T
789.01	0.268	797258	TEST_ORIENT	n/a	3	3	DITCH	PASS	TOE	DITCH	6	[0, 0, 0]	-999	PAL1	2	R1297T
789.278	0.749	797526	RETRIEVAL_ORIENT_OFF	n/a	2	-999	n/a	n/a	n/a	n/a	6	[0, 0, 0]	-999	PAL1	2	R1297T
790.027	0.0	798275	REC_START	n/a	3	-999	n/a	PASS	n/a	n/a	6	[0, 0, 0]	-999	PAL1	2	R1297T
790.027	0.892	798275	TEST_PROBE	n/a	3	3	DITCH	PASS	TOE	DITCH	6	[0, 0, 0]	-999	PAL1	2	R1297T
790.919	1.876	799167	REC_EVENT	892	3	3	DITCH	<>	TOE	DITCH	6	[0, 0, 0]	-999	PAL1	2	R1297T
792.795	1.249	801043	REC_EVENT	2768	3	3	DITCH	PASS	TOE	DITCH	6	[0, 0, 0]	-999	PAL1	2	R1297T
794.044	1.0	802292	PROBE_OFF	n/a	3	-999	n/a	n/a	n/a	n/a	6	[0, 0, 0]	-999	PAL1	2	R1297T
795.044	0.017	803292	REC_END	n/a	3	-999	n/a	n/a	n/a	n/a	6	[0, 0, 0]	-999	PAL1	2	R1297T
795.061	0.268	803309	TEST_ORIENT	n/a	4	4	BAG	TOOL	BAG	TOOL	6	[0, 0, 0]	-999	PAL1	2	R1297T
795.329	0.565	803577	RETRIEVAL_ORIENT_OFF	n/a	3	-999	n/a	n/a	n/a	n/a	6	[0, 0, 0]	-999	PAL1	2	R1297T
795.894	0.001	804142	TEST_PROBE	n/a	4	4	BAG	TOOL	BAG	TOOL	6	[0, 0, 0]	-999	PAL1	2	R1297T
795.895	1.284	804143	REC_START	n/a	4	-999	n/a	TOOL	n/a	n/a	6	[0, 0, 0]	-999	PAL1	2	R1297T
797.179	2.733	805427	REC_EVENT	1284	4	4	BAG	TOOL	BAG	TOOL	6	[0, 0, 0]	-999	PAL1	2	R1297T
799.912	1.0	808159	PROBE_OFF	n/a	4	-999	n/a	n/a	n/a	n/a	6	[0, 0, 0]	-999	PAL1	2	R1297T
800.912	0.017	809159	REC_END	n/a	4	-999	n/a	n/a	n/a	n/a	6	[0, 0, 0]	-999	PAL1	2	R1297T
800.929	0.267	809176	TEST_ORIENT	n/a	5	5	ZOO	MAP	ZOO	MAP	6	[0, 0, 0]	-999	PAL1	2	R1297T
801.196	0.75	809443	RETRIEVAL_ORIENT_OFF	n/a	4	-999	n/a	n/a	n/a	n/a	6	[0, 0, 0]	-999	PAL1	2	R1297T
801.946	0.0	810193	REC_START	n/a	5	-999	n/a	MAP	n/a	n/a	6	[0, 0, 0]	-999	PAL1	2	R1297T
801.946	0.885	810193	TEST_PROBE	n/a	5	5	ZOO	MAP	ZOO	MAP	6	[0, 0, 0]	-999	PAL1	2	R1297T
802.831	3.132	811078	REC_EVENT	885	5	5	ZOO	MAP	ZOO	MAP	6	[0, 0, 0]	-999	PAL1	2	R1297T
805.963	1.0	814210	PROBE_OFF	n/a	5	-999	n/a	n/a	n/a	n/a	6	[0, 0, 0]	-999	PAL1	2	R1297T
806.963	0.017	815210	REC_END	n/a	5	-999	n/a	n/a	n/a	n/a	6	[0, 0, 0]	-999	PAL1	2	R1297T
806.98	0.268	815227	TEST_ORIENT	n/a	6	6	FORK	POOL	POOL	FORK	6	[0, 0, 0]	-999	PAL1	2	R1297T
807.248	0.549	815495	RETRIEVAL_ORIENT_OFF	n/a	5	-999	n/a	n/a	n/a	n/a	6	[0, 0, 0]	-999	PAL1	2	R1297T
807.797	0.0	816044	TEST_PROBE	n/a	6	6	FORK	POOL	POOL	FORK	6	[0, 0, 0]	-999	PAL1	2	R1297T
807.797	2.311	816044	REC_START	n/a	6	-999	n/a	POOL	n/a	n/a	6	[0, 0, 0]	-999	PAL1	2	R1297T
810.108	1.706	818355	REC_EVENT	2311	6	6	FORK	POOL	POOL	FORK	6	[0, 0, 0]	-999	PAL1	2	R1297T
811.814	1.01	820061	PROBE_OFF	n/a	6	-999	n/a	n/a	n/a	n/a	6	[0, 0, 0]	-999	PAL1	2	R1297T
812.824	0.003	821071	REC_END	n/a	6	-999	n/a	n/a	n/a	n/a	6	[0, 0, 0]	-999	PAL1	2	R1297T
812.827	4.639	821074	RECALL_END	n/a	-999	-999	n/a	n/a	n/a	n/a	6	[0, 0, 0]	-999	PAL1	2	R1297T
817.466	10.929	825712	TRIAL	n/a	-999	-999	n/a	n/a	n/a	n/a	7	[0, 0, 0]	-999	PAL1	2	R1297T
828.395	0.006	836641	ENCODING_START	n/a	-999	-999	n/a	n/a	n/a	n/a	7	[0, 0, 0]	-999	PAL1	2	R1297T
828.401	0.266	836647	STUDY_ORIENT	n/a	1	5	SHEET	TRAY	SHEET	TRAY	7	[0, 0, 0]	-999	PAL1	2	R1297T
828.667	0.585	836913	STUDY_ORIENT_OFF	n/a	1	5	SHEET	TRAY	SHEET	TRAY	7	[0, 0, 0]	-999	PAL1	2	R1297T
829.252	4.017	837498	STUDY_PAIR	n/a	1	5	SHEET	TRAY	SHEET	TRAY	7	[0, 0, 0]	-999	PAL1	2	R1297T
833.269	1.017	841514	PAIR_OFF	n/a	1	5	SHEET	TRAY	SHEET	TRAY	7	[0, 0, 0]	-999	PAL1	2	R1297T
834.286	0.266	842531	STUDY_ORIENT	n/a	2	2	BARN	KEY	BARN	KEY	7	[0, 0, 0]	-999	PAL1	2	R1297T
834.552	0.667	842797	STUDY_ORIENT_OFF	n/a	2	2	BARN	KEY	BARN	KEY	7	[0, 0, 0]	-999	PAL1	2	R1297T
835.219	4.018	843464	STUDY_PAIR	n/a	2	2	BARN	KEY	BARN	KEY	7	[0, 0, 0]	-999	PAL1	2	R1297T
839.237	1.017	847482	PAIR_OFF	n/a	2	2	BARN	KEY	BARN	KEY	7	[0, 0, 0]	-999	PAL1	2	R1297T
840.254	0.265	848499	STUDY_ORIENT	n/a	3	3	SALT	TAIL	TAIL	SALT	7	[0, 0, 0]	-999	PAL1	2	R1297T
840.519	0.735	848764	STUDY_ORIENT_OFF	n/a	3	3	SALT	TAIL	TAIL	SALT	7	[0, 0, 0]	-999	PAL1	2	R1297T
841.254	4.017	849499	STUDY_PAIR	n/a	3	3	SALT	TAIL	TAIL	SALT	7	[0, 0, 0]	-999	PAL1	2	R1297T
845.271	1.017	853516	PAIR_OFF	n/a	3	3	SALT	TAIL	TAIL	SALT	7	[0, 0, 0]	-999	PAL1	2	R1297T
846.288	0.266	854533	STUDY_ORIENT	n/a	4	6	DOG	SPOON	SPOON	DOG	7	[0, 0, 0]	-999	PAL1	2	R1297T
846.554	0.684	854799	STUDY_ORIENT_OFF	n/a	4	6	DOG	SPOON	SPOON	DOG	7	[0, 0, 0]	-999	PAL1	2	R1297T
847.238	4.018	855483	STUDY_PAIR	n/a	4	6	DOG	SPOON	SPOON	DOG	7	[0, 0, 0]	-999	PAL1	2	R1297T
851.256	1.016	859500	PAIR_OFF	n/a	4	6	DOG	SPOON	SPOON	DOG	7	[0, 0, 0]	-999	PAL1	2	R1297T
852.272	0.266	860516	STUDY_ORIENT	n/a	5	1	STRING	PASS	STRING	SEED	7	[0, 0, 0]	-999	PAL1	2	R1297T
852.538	0.567	860782	STUDY_ORIENT_OFF	n/a	5	1	STRING	PASS	STRING	SEED	7	[0, 0, 0]	-999	PAL1	2	R1297T
853.105	4.017	861349	STUDY_PAIR	n/a	5	1	STRING	PASS	STRING	SEED	7	[0, 0, 0]	-999	PAL1	2	R1297T
857.122	1.017	865366	PAIR_OFF	n/a	5	1	STRING	PASS	STRING	SEED	7	[0, 0, 0]	-999	PAL1	2	R1297T
858.139	0.251	866383	STUDY_ORIENT	n/a	6	4	BLOOM	TEA	BLOOM	TEA	7	[0, 0, 0]	-999	PAL1	2	R1297T
858.39	0.583	866634	STUDY_ORIENT_OFF	n/a	6	4	BLOOM	TEA	BLOOM	TEA	7	[0, 0, 0]	-999	PAL1	2	R1297T
858.973	4.017	867217	STUDY_PAIR	n/a	6	4	BLOOM	TEA	BLOOM	TEA	7	[0, 0, 0]	-999	PAL1	2	R1297T
862.99	1.001	871234	PAIR_OFF	n/a	6	4	BLOOM	TEA	BLOOM	TEA	7	[0, 0, 0]	-999	PAL1	2	R1297T
863.991	0.0	872235	ENCODING_END	n/a	-999	-999	n/a	n/a	n/a	n/a	7	[0, 0, 0]	-999	PAL1	2	R1297T
863.991	0.0	872235	MATH_START	n/a	-999	-999	n/a	n/a	n/a	n/a	7	[0, 0, 0]	-999	PAL1	2	R1297T
863.991	0.016	872235	START	n/a	-999	-999	n/a	n/a	n/a	n/a	7	[-999, -999, -999]	-999	PAL1	2	R1297T
864.007	3.617	872251	PROB	3588	-999	-999	n/a	n/a	n/a	n/a	7	[6, 9, 4]	19	PAL1	2	R1297T
867.624	3.618	875867	PROB	3588	-999	-999	n/a	n/a	n/a	n/a	7	[3, 7, 5]	15	PAL1	2	R1297T
871.242	3.75	879485	PROB	3713	-999	-999	n/a	n/a	n/a	n/a	7	[2, 3, 9]	14	PAL1	2	R1297T
874.992	3.784	883235	PROB	3747	-999	-999	n/a	n/a	n/a	n/a	7	[6, 6, 7]	19	PAL1	2	R1297T
878.776	3.084	887019	PROB	3051	-999	-999	n/a	n/a	n/a	n/a	7	[9, 1, 2]	12	PAL1	2	R1297T
881.86	3.576	890102	PROB	3576	-999	-999	n/a	n/a	n/a	n/a	7	[1, 4, 9]	14	PAL1	2	R1297T
885.436	0.009	893678	STOP	n/a	-999	-999	n/a	n/a	n/a	n/a	7	[-999, -999, -999]	-999	PAL1	2	R1297T
885.445	0.0	893687	MATH_END	n/a	-999	-999	n/a	n/a	n/a	n/a	7	[0, 0, 0]	-999	PAL1	2	R1297T
885.445	0.017	893687	RECALL_START	n/a	-999	-999	n/a	n/a	n/a	n/a	7	[0, 0, 0]	-999	PAL1	2	R1297T
885.462	0.265	893704	TEST_ORIENT	n/a	5	1	STRING	PASS	STRING	SEED	7	[0, 0, 0]	-999	PAL1	2	R1297T
885.727	0.735	893969	RETRIEVAL_ORIENT_OFF	n/a	-999	-999	n/a	n/a	n/a	n/a	7	[0, 0, 0]	-999	PAL1	2	R1297T
886.462	0.001	894704	TEST_PROBE	n/a	5	1	STRING	PASS	STRING	SEED	7	[0, 0, 0]	-999	PAL1	2	R1297T
886.463	1.745	894705	REC_START	n/a	5	-999	n/a	PASS	n/a	n/a	7	[0, 0, 0]	-999	PAL1	2	R1297T
888.208	1.575	896450	REC_EVENT	1745	5	1	STRING	STRING	STRING	SEED	7	[0, 0, 0]	-999	PAL1	2	R1297T
889.783	0.696	898025	REC_EVENT	3320	5	1	STRING	PASS	STRING	SEED	7	[0, 0, 0]	-999	PAL1	2	R1297T
890.479	1.0	898721	PROBE_OFF	n/a	5	-999	n/a	n/a	n/a	n/a	7	[0, 0, 0]	-999	PAL1	2	R1297T
891.479	0.017	899721	REC_END	n/a	5	-999	n/a	n/a	n/a	n/a	7	[0, 0, 0]	-999	PAL1	2	R1297T
891.496	0.266	899738	TEST_ORIENT	n/a	2	2	BARN	KEY	BARN	KEY	7	[0, 0, 0]	-999	PAL1	2	R1297T
891.762	0.684	900004	RETRIEVAL_ORIENT_OFF	n/a	5	-999	n/a	n/a	n/a	n/a	7	[0, 0, 0]	-999	PAL1	2	R1297T
892.446	0.001	900688	TEST_PROBE	n/a	2	2	BARN	KEY	BARN	KEY	7	[0, 0, 0]	-999	PAL1	2	R1297T
892.447	1.279	900689	REC_START	n/a	2	-999	n/a	KEY	n/a	n/a	7	[0, 0, 0]	-999	PAL1	2	R1297T
893.726	2.721	901968	REC_EVENT	1279	2	2	BARN	KEY	BARN	KEY	7	[0, 0, 0]	-999	PAL1	2	R1297T
896.447	1.009	904689	PROBE_OFF	n/a	2	-999	n/a	n/a	n/a	n/a	7	[0, 0, 0]	-999	PAL1	2	R1297T
897.456	0.008	905698	REC_END	n/a	2	-999	n/a	n/a	n/a	n/a	7	[0, 0, 0]	-999	PAL1	2	R1297T
897.464	0.266	905706	TEST_ORIENT	n/a	3	3	SALT	TAIL	TAIL	SALT	7	[0, 0, 0]	-999	PAL1	2	R1297T
897.73	0.651	905971	RETRIEVAL_ORIENT_OFF	n/a	2	-999	n/a	n/a	n/a	n/a	7	[0, 0, 0]	-999	PAL1	2	R1297T
898.381	0.0	906622	REC_START	n/a	3	-999	n/a	TAIL	n/a	n/a	7	[0, 0, 0]	-999	PAL1	2	R1297T
898.381	2.659	906622	TEST_PROBE	n/a	3	3	SALT	TAIL	TAIL	SALT	7	[0, 0, 0]	-999	PAL1	2	R1297T
901.04	1.358	909281	REC_EVENT	2659	3	3	SALT	TAIL	TAIL	SALT	7	[0, 0, 0]	-999	PAL1	2	R1297T
902.398	1.0	910639	PROBE_OFF	n/a	3	-999	n/a	n/a	n/a	n/a	7	[0, 0, 0]	-999	PAL1	2	R1297T
903.398	0.017	911639	REC_END	n/a	3	-999	n/a	n/a	n/a	n/a	7	[0, 0, 0]	-999	PAL1	2	R1297T
903.415	0.266	911656	TEST_ORIENT	n/a	6	4	BLOOM	TEA	BLOOM	TEA	7	[0, 0, 0]	-999	PAL1	2	R1297T
903.681	0.634	911922	RETRIEVAL_ORIENT_OFF	n/a	3	-999	n/a	n/a	n/a	n/a	7	[0, 0, 0]	-999	PAL1	2	R1297T
904.315	0.001	912556	TEST_PROBE	n/a	6	4	BLOOM	TEA	BLOOM	TEA	7	[0, 0, 0]	-999	PAL1	2	R1297T
904.316	2.51	912557	REC_START	n/a	6	-999	n/a	TEA	n/a	n/a	7	[0, 0, 0]	-999	PAL1	2	R1297T
906.826	1.507	915067	REC_EVENT	2510	6	4	BLOOM	TEA	BLOOM	TEA	7	[0, 0, 0]	-999	PAL1	2	R1297T
908.333	1.0	916574	PROBE_OFF	n/a	6	-999	n/a	n/a	n/a	n/a	7	[0, 0, 0]	-999	PAL1	2	R1297T
909.333	0.016	917574	REC_END	n/a	6	-999	n/a	n/a	n/a	n/a	7	[0, 0, 0]	-999	PAL1	2	R1297T
909.349	0.266	917590	TEST_ORIENT	n/a	1	5	SHEET	TRAY	SHEET	TRAY	7	[0, 0, 0]	-999	PAL1	2	R1297T
909.615	0.651	917856	RETRIEVAL_ORIENT_OFF	n/a	6	-999	n/a	n/a	n/a	n/a	7	[0, 0, 0]	-999	PAL1	2	R1297T
910.266	0.001	918507	TEST_PROBE	n/a	1	5	SHEET	TRAY	SHEET	TRAY	7	[0, 0, 0]	-999	PAL1	2	R1297T
910.267	1.718	918508	REC_START	n/a	1	-999	n/a	TRAY	n/a	n/a	7	[0, 0, 0]	-999	PAL1	2	R1297T
911.985	2.282	920226	REC_EVENT	1718	1	5	SHEET	TRAY	SHEET	TRAY	7	[0, 0, 0]	-999	PAL1	2	R1297T
914.267	1.0	922507	PROBE_OFF	n/a	1	-999	n/a	n/a	n/a	n/a	7	[0, 0, 0]	-999	PAL1	2	R1297T
915.267	0.017	923507	REC_END	n/a	1	-999	n/a	n/a	n/a	n/a	7	[0, 0, 0]	-999	PAL1	2	R1297T
915.284	0.266	923524	TEST_ORIENT	n/a	4	6	DOG	SPOON	SPOON	DOG	7	[0, 0, 0]	-999	PAL1	2	R1297T
915.55	0.6	923790	RETRIEVAL_ORIENT_OFF	n/a	1	-999	n/a	n/a	n/a	n/a	7	[0, 0, 0]	-999	PAL1	2	R1297T
916.15	0.0	924390	TEST_PROBE	n/a	4	6	DOG	SPOON	SPOON	DOG	7	[0, 0, 0]	-999	PAL1	2	R1297T
916.15	1.567	924390	REC_START	n/a	4	-999	n/a	SPOON	n/a	n/a	7	[0, 0, 0]	-999	PAL1	2	R1297T
917.717	2.451	925957	REC_EVENT	1567	4	6	DOG	SPOON	SPOON	DOG	7	[0, 0, 0]	-999	PAL1	2	R1297T
920.168	1.0	928408	PROBE_OFF	n/a	4	-999	n/a	n/a	n/a	n/a	7	[0, 0, 0]	-999	PAL1	2	R1297T
921.168	0.005	929408	REC_END	n/a	4	-999	n/a	n/a	n/a	n/a	7	[0, 0, 0]	-999	PAL1	2	R1297T
921.173	6.895	929413	RECALL_END	n/a	-999	-999	n/a	n/a	n/a	n/a	7	[0, 0, 0]	-999	PAL1	2	R1297T
928.068	10.928	936308	TRIAL	n/a	-999	-999	n/a	n/a	n/a	n/a	8	[0, 0, 0]	-999	PAL1	2	R1297T
938.996	0.008	947235	ENCODING_START	n/a	-999	-999	n/a	n/a	n/a	n/a	8	[0, 0, 0]	-999	PAL1	2	R1297T
939.004	0.268	947243	STUDY_ORIENT	n/a	1	5	DART	PASS	SKI	DART	8	[0, 0, 0]	-999	PAL1	2	R1297T
939.272	0.715	947511	STUDY_ORIENT_OFF	n/a	1	5	DART	PASS	SKI	DART	8	[0, 0, 0]	-999	PAL1	2	R1297T
939.987	4.001	948226	STUDY_PAIR	n/a	1	5	DART	PASS	SKI	DART	8	[0, 0, 0]	-999	PAL1	2	R1297T
943.988	1.017	952227	PAIR_OFF	n/a	1	5	DART	PASS	SKI	DART	8	[0, 0, 0]	-999	PAL1	2	R1297T
945.005	0.268	953244	STUDY_ORIENT	n/a	2	6	STONE	PASS	STONE	MAT	8	[0, 0, 0]	-999	PAL1	2	R1297T
945.273	0.665	953512	STUDY_ORIENT_OFF	n/a	2	6	STONE	PASS	STONE	MAT	8	[0, 0, 0]	-999	PAL1	2	R1297T
945.938	4.018	954177	STUDY_PAIR	n/a	2	6	STONE	PASS	STONE	MAT	8	[0, 0, 0]	-999	PAL1	2	R1297T
949.956	1.017	958194	PAIR_OFF	n/a	2	6	STONE	PASS	STONE	MAT	8	[0, 0, 0]	-999	PAL1	2	R1297T
950.973	0.267	959211	STUDY_ORIENT	n/a	3	1	BUSH	PASS	BUSH	ROOT	8	[0, 0, 0]	-999	PAL1	2	R1297T
951.24	0.633	959478	STUDY_ORIENT_OFF	n/a	3	1	BUSH	PASS	BUSH	ROOT	8	[0, 0, 0]	-999	PAL1	2	R1297T
951.873	4.017	960111	STUDY_PAIR	n/a	3	1	BUSH	PASS	BUSH	ROOT	8	[0, 0, 0]	-999	PAL1	2	R1297T
955.89	1.017	964128	PAIR_OFF	n/a	3	1	BUSH	PASS	BUSH	ROOT	8	[0, 0, 0]	-999	PAL1	2	R1297T
956.907	0.268	965145	STUDY_ORIENT	n/a	4	2	FLUTE	PASTE	FLUTE	PASTE	8	[0, 0, 0]	-999	PAL1	2	R1297T
957.175	0.666	965413	STUDY_ORIENT_OFF	n/a	4	2	FLUTE	PASTE	FLUTE	PASTE	8	[0, 0, 0]	-999	PAL1	2	R1297T
957.841	4.017	966079	STUDY_PAIR	n/a	4	2	FLUTE	PASTE	FLUTE	PASTE	8	[0, 0, 0]	-999	PAL1	2	R1297T
961.858	1.017	970096	PAIR_OFF	n/a	4	2	FLUTE	PASTE	FLUTE	PASTE	8	[0, 0, 0]	-999	PAL1	2	R1297T
962.875	0.267	971113	STUDY_ORIENT	n/a	5	3	CHAIR	YARD	YARD	CHAIR	8	[0, 0, 0]	-999	PAL1	2	R1297T
963.142	0.716	971380	STUDY_ORIENT_OFF	n/a	5	3	CHAIR	YARD	YARD	CHAIR	8	[0, 0, 0]	-999	PAL1	2	R1297T
963.858	4.018	972095	STUDY_PAIR	n/a	5	3	CHAIR	YARD	YARD	CHAIR	8	[0, 0, 0]	-999	PAL1	2	R1297T
967.876	1.017	976113	PAIR_OFF	n/a	5	3	CHAIR	YARD	YARD	CHAIR	8	[0, 0, 0]	-999	PAL1	2	R1297T
968.893	0.266	977130	STUDY_ORIENT	n/a	6	4	CAPE	SOCK	SOCK	CAPE	8	[0, 0, 0]	-999	PAL1	2	R1297T
969.159	0.55	977396	STUDY_ORIENT_OFF	n/a	6	4	CAPE	SOCK	SOCK	CAPE	8	[0, 0, 0]	-999	PAL1	2	R1297T
969.709	4.018	977946	STUDY_PAIR	n/a	6	4	CAPE	SOCK	SOCK	CAPE	8	[0, 0, 0]	-999	PAL1	2	R1297T
973.727	1.001	981964	PAIR_OFF	n/a	6	4	CAPE	SOCK	SOCK	CAPE	8	[0, 0, 0]	-999	PAL1	2	R1297T
974.728	0.0	982965	ENCODING_END	n/a	-999	-999	n/a	n/a	n/a	n/a	8	[0, 0, 0]	-999	PAL1	2	R1297T
974.728	0.0	982965	MATH_START	n/a	-999	-999	n/a	n/a	n/a	n/a	8	[0, 0, 0]	-999	PAL1	2	R1297T
974.728	0.016	982965	START	n/a	-999	-999	n/a	n/a	n/a	n/a	8	[-999, -999, -999]	-999	PAL1	2	R1297T
974.744	4.017	982981	PROB	3988	-999	-999	n/a	n/a	n/a	n/a	8	[2, 8, 6]	16	PAL1	2	R1297T
978.761	3.518	986998	PROB	3492	-999	-999	n/a	n/a	n/a	n/a	8	[4, 5, 1]	10	PAL1	2	R1297T
982.279	2.333	990515	PROB	2308	-999	-999	n/a	n/a	n/a	n/a	8	[8, 2, 2]	12	PAL1	2	R1297T
984.612	8.385	992848	PROB	8360	-999	-999	n/a	n/a	n/a	n/a	8	[8, 6, 9]	23	PAL1	2	R1297T
992.997	2.943	1001233	PROB	2943	-999	-999	n/a	n/a	n/a	n/a	8	[7, 6, 3]	16	PAL1	2	R1297T
995.94	0.008	1004176	STOP	n/a	-999	-999	n/a	n/a	n/a	n/a	8	[-999, -999, -999]	-999	PAL1	2	R1297T
995.948	0.0	1004184	MATH_END	n/a	-999	-999	n/a	n/a	n/a	n/a	8	[0, 0, 0]	-999	PAL1	2	R1297T
995.948	0.016	1004184	RECALL_START	n/a	-999	-999	n/a	n/a	n/a	n/a	8	[0, 0, 0]	-999	PAL1	2	R1297T
995.964	0.268	1004200	TEST_ORIENT	n/a	3	1	BUSH	PASS	BUSH	ROOT	8	[0, 0, 0]	-999	PAL1	2	R1297T
996.232	0.716	1004468	RETRIEVAL_ORIENT_OFF	n/a	-999	-999	n/a	n/a	n/a	n/a	8	[0, 0, 0]	-999	PAL1	2	R1297T
996.948	0.0	1005183	TEST_PROBE	n/a	3	1	BUSH	PASS	BUSH	ROOT	8	[0, 0, 0]	-999	PAL1	2	R1297T
996.948	1.221	1005183	REC_START	n/a	3	-999	n/a	PASS	n/a	n/a	8	[0, 0, 0]	-999	PAL1	2	R1297T
998.169	1.59	1006404	REC_EVENT	1221	3	1	BUSH	<>	BUSH	ROOT	8	[0, 0, 0]	-999	PAL1	2	R1297T
999.759	1.206	1007994	REC_EVENT	2811	3	1	BUSH	PASS	BUSH	ROOT	8	[0, 0, 0]	-999	PAL1	2	R1297T
1000.965	1.0	1009200	PROBE_OFF	n/a	3	-999	n/a	n/a	n/a	n/a	8	[0, 0, 0]	-999	PAL1	2	R1297T
1001.965	0.017	1010200	REC_END	n/a	3	-999	n/a	n/a	n/a	n/a	8	[0, 0, 0]	-999	PAL1	2	R1297T
1001.982	0.268	1010217	TEST_ORIENT	n/a	4	2	FLUTE	PASTE	FLUTE	PASTE	8	[0, 0, 0]	-999	PAL1	2	R1297T
1002.25	0.632	1010485	RETRIEVAL_ORIENT_OFF	n/a	3	-999	n/a	n/a	n/a	n/a	8	[0, 0, 0]	-999	PAL1	2	R1297T
1002.882	0.001	1011117	TEST_PROBE	n/a	4	2	FLUTE	PASTE	FLUTE	PASTE	8	[0, 0, 0]	-999	PAL1	2	R1297T
1002.883	1.217	1011118	REC_START	n/a	4	-999	n/a	PASTE	n/a	n/a	8	[0, 0, 0]	-999	PAL1	2	R1297T
1004.1	2.8	1012335	REC_EVENT	1217	4	2	FLUTE	PASTE	FLUTE	PASTE	8	[0, 0, 0]	-999	PAL1	2	R1297T
1006.9	1.0	1015135	PROBE_OFF	n/a	4	-999	n/a	n/a	n/a	n/a	8	[0, 0, 0]	-999	PAL1	2	R1297T
1007.9	0.016	1016135	REC_END	n/a	4	-999	n/a	n/a	n/a	n/a	8	[0, 0, 0]	-999	PAL1	2	R1297T
1007.916	0.251	1016151	TEST_ORIENT	n/a	5	3	CHAIR	YARD	YARD	CHAIR	8	[0, 0, 0]	-999	PAL1	2	R1297T
1008.167	0.616	1016402	RETRIEVAL_ORIENT_OFF	n/a	4	-999	n/a	n/a	n/a	n/a	8	[0, 0, 0]	-999	PAL1	2	R1297T
1008.783	0.001	1017018	TEST_PROBE	n/a	5	3	CHAIR	YARD	YARD	CHAIR	8	[0, 0, 0]	-999	PAL1	2	R1297T
1008.784	1.244	1017019	REC_START	n/a	5	-999	n/a	YARD	n/a	n/a	8	[0, 0, 0]	-999	PAL1	2	R1297T
1010.028	2.773	1018263	REC_EVENT	1244	5	3	CHAIR	YARD	YARD	CHAIR	8	[0, 0, 0]	-999	PAL1	2	R1297T
1012.801	1.012	1021035	PROBE_OFF	n/a	5	-999	n/a	n/a	n/a	n/a	8	[0, 0, 0]	-999	PAL1	2	R1297T
1013.813	0.021	1022047	REC_END	n/a	5	-999	n/a	n/a	n/a	n/a	8	[0, 0, 0]	-999	PAL1	2	R1297T
1013.834	0.267	1022068	TEST_ORIENT	n/a	6	4	CAPE	SOCK	SOCK	CAPE	8	[0, 0, 0]	-999	PAL1	2	R1297T
1014.101	0.667	1022335	RETRIEVAL_ORIENT_OFF	n/a	5	-999	n/a	n/a	n/a	n/a	8	[0, 0, 0]	-999	PAL1	2	R1297T
1014.768	0.0	1023002	TEST_PROBE	n/a	6	4	CAPE	SOCK	SOCK	CAPE	8	[0, 0, 0]	-999	PAL1	2	R1297T
1014.768	1.269	1023002	REC_START	n/a	6	-999	n/a	SOCK	n/a	n/a	8	[0, 0, 0]	-999	PAL1	2	R1297T
1016.037	2.748	1024271	REC_EVENT	1269	6	4	CAPE	SOCK	SOCK	CAPE	8	[0, 0, 0]	-999	PAL1	2	R1297T
1018.785	1.001	1027019	PROBE_OFF	n/a	6	-999	n/a	n/a	n/a	n/a	8	[0, 0, 0]	-999	PAL1	2	R1297T
1019.786	0.016	1028020	REC_END	n/a	6	-999	n/a	n/a	n/a	n/a	8	[0, 0, 0]	-999	PAL1	2	R1297T
1019.802	0.267	1028036	TEST_ORIENT	n/a	1	5	DART	PASS	SKI	DART	8	[0, 0, 0]	-999	PAL1	2	R1297T
1020.069	0.566	1028303	RETRIEVAL_ORIENT_OFF	n/a	6	-999	n/a	n/a	n/a	n/a	8	[0, 0, 0]	-999	PAL1	2	R1297T
1020.635	0.001	1028869	TEST_PROBE	n/a	1	5	DART	PASS	SKI	DART	8	[0, 0, 0]	-999	PAL1	2	R1297T
1020.636	1.723	1028870	REC_START	n/a	1	-999	n/a	PASS	n/a	n/a	8	[0, 0, 0]	-999	PAL1	2	R1297T
1022.359	2.294	1030593	REC_EVENT	1723	1	5	DART	PASS	SKI	DART	8	[0, 0, 0]	-999	PAL1	2	R1297T
1024.653	1.0	1032887	PROBE_OFF	n/a	1	-999	n/a	n/a	n/a	n/a	8	[0, 0, 0]	-999	PAL1	2	R1297T
1025.653	0.017	1033887	REC_END	n/a	1	-999	n/a	n/a	n/a	n/a	8	[0, 0, 0]	-999	PAL1	2	R1297T
1025.67	0.266	1033904	TEST_ORIENT	n/a	2	6	STONE	PASS	STONE	MAT	8	[0, 0, 0]	-999	PAL1	2	R1297T
1025.936	0.535	1034170	RETRIEVAL_ORIENT_OFF	n/a	1	-999	n/a	n/a	n/a	n/a	8	[0, 0, 0]	-999	PAL1	2	R1297T
1026.471	0.0	1034705	TEST_PROBE	n/a	2	6	STONE	PASS	STONE	MAT	8	[0, 0, 0]	-999	PAL1	2	R1297T
1026.471	0.567	1034705	REC_START	n/a	2	-999	n/a	PASS	n/a	n/a	8	[0, 0, 0]	-999	PAL1	2	R1297T
1027.038	1.26	1035272	REC_EVENT	567	2	6	STONE	<>	STONE	MAT	8	[0, 0, 0]	-999	PAL1	2	R1297T
1028.298	2.19	1036532	REC_EVENT	1827	2	6	STONE	PASS	STONE	MAT	8	[0, 0, 0]	-999	PAL1	2	R1297T
1030.488	1.0	1038721	PROBE_OFF	n/a	2	-999	n/a	n/a	n/a	n/a	8	[0, 0, 0]	-999	PAL1	2	R1297T
1031.488	0.005	1039721	REC_END	n/a	2	-999	n/a	n/a	n/a	n/a	8	[0, 0, 0]	-999	PAL1	2	R1297T
1031.493	4.362	1039726	RECALL_END	n/a	-999	-999	n/a	n/a	n/a	n/a	8	[0, 0, 0]	-999	PAL1	2	R1297T
1035.855	10.929	1044088	TRIAL	n/a	-999	-999	n/a	n/a	n/a	n/a	9	[0, 0, 0]	-999	PAL1	2	R1297T
1046.784	0.006	1055016	ENCODING_START	n/a	-999	-999	n/a	n/a	n/a	n/a	9	[0, 0, 0]	-999	PAL1	2	R1297T
1046.79	0.267	1055022	STUDY_ORIENT	n/a	1	3	BIRD	WORM	WORM	BIRD	9	[0, 0, 0]	-999	PAL1	2	R1297T
1047.057	0.617	1055289	STUDY_ORIENT_OFF	n/a	1	3	BIRD	WORM	WORM	BIRD	9	[0, 0, 0]	-999	PAL1	2	R1297T
1047.674	4.017	1055906	STUDY_PAIR	n/a	1	3	BIRD	WORM	WORM	BIRD	9	[0, 0, 0]	-999	PAL1	2	R1297T
1051.691	1.017	1059923	PAIR_OFF	n/a	1	3	BIRD	WORM	WORM	BIRD	9	[0, 0, 0]	-999	PAL1	2	R1297T
1052.708	0.267	1060940	STUDY_ORIENT	n/a	2	2	GRAPE	CUBE	GRAPE	CUBE	9	[0, 0, 0]	-999	PAL1	2	R1297T
1052.975	0.766	1061207	STUDY_ORIENT_OFF	n/a	2	2	GRAPE	CUBE	GRAPE	CUBE	9	[0, 0, 0]	-999	PAL1	2	R1297T
1053.741	4.001	1061973	STUDY_PAIR	n/a	2	2	GRAPE	CUBE	GRAPE	CUBE	9	[0, 0, 0]	-999	PAL1	2	R1297T
1057.742	1.017	1065974	PAIR_OFF	n/a	2	2	GRAPE	CUBE	GRAPE	CUBE	9	[0, 0, 0]	-999	PAL1	2	R1297T
1058.759	0.267	1066991	STUDY_ORIENT	n/a	3	5	CART	BATH	CART	BATH	9	[0, 0, 0]	-999	PAL1	2	R1297T
1059.026	0.733	1067258	STUDY_ORIENT_OFF	n/a	3	5	CART	BATH	CART	BATH	9	[0, 0, 0]	-999	PAL1	2	R1297T
1059.759	4.018	1067991	STUDY_PAIR	n/a	3	5	CART	BATH	CART	BATH	9	[0, 0, 0]	-999	PAL1	2	R1297T
1063.777	1.016	1072008	PAIR_OFF	n/a	3	5	CART	BATH	CART	BATH	9	[0, 0, 0]	-999	PAL1	2	R1297T
1064.793	0.267	1073024	STUDY_ORIENT	n/a	4	6	FOX	RUG	FOX	RUG	9	[0, 0, 0]	-999	PAL1	2	R1297T
1065.06	0.634	1073291	STUDY_ORIENT_OFF	n/a	4	6	FOX	RUG	FOX	RUG	9	[0, 0, 0]	-999	PAL1	2	R1297T
1065.694	4.017	1073925	STUDY_PAIR	n/a	4	6	FOX	RUG	FOX	RUG	9	[0, 0, 0]	-999	PAL1	2	R1297T
1069.711	1.017	1077942	PAIR_OFF	n/a	4	6	FOX	RUG	FOX	RUG	9	[0, 0, 0]	-999	PAL1	2	R1297T
1070.728	0.266	1078959	STUDY_ORIENT	n/a	5	1	STRAW	HOOK	HOOK	STRAW	9	[0, 0, 0]	-999	PAL1	2	R1297T
1070.994	0.684	1079225	STUDY_ORIENT_OFF	n/a	5	1	STRAW	HOOK	HOOK	STRAW	9	[0, 0, 0]	-999	PAL1	2	R1297T
1071.678	4.017	1079909	STUDY_PAIR	n/a	5	1	STRAW	HOOK	HOOK	STRAW	9	[0, 0, 0]	-999	PAL1	2	R1297T
1075.695	1.017	1083926	PAIR_OFF	n/a	5	1	STRAW	HOOK	HOOK	STRAW	9	[0, 0, 0]	-999	PAL1	2	R1297T
1076.712	0.267	1084943	STUDY_ORIENT	n/a	6	4	BALL	WING	BALL	WING	9	[0, 0, 0]	-999	PAL1	2	R1297T
1076.979	0.583	1085210	STUDY_ORIENT_OFF	n/a	6	4	BALL	WING	BALL	WING	9	[0, 0, 0]	-999	PAL1	2	R1297T
1077.562	4.018	1085793	STUDY_PAIR	n/a	6	4	BALL	WING	BALL	WING	9	[0, 0, 0]	-999	PAL1	2	R1297T
1081.58	1.001	1089810	PAIR_OFF	n/a	6	4	BALL	WING	BALL	WING	9	[0, 0, 0]	-999	PAL1	2	R1297T
1082.581	0.0	1090811	ENCODING_END	n/a	-999	-999	n/a	n/a	n/a	n/a	9	[0, 0, 0]	-999	PAL1	2	R1297T
1082.581	0.0	1090811	MATH_START	n/a	-999	-999	n/a	n/a	n/a	n/a	9	[0, 0, 0]	-999	PAL1	2	R1297T
1082.581	0.016	1090811	START	n/a	-999	-999	n/a	n/a	n/a	n/a	9	[-999, -999, -999]	-999	PAL1	2	R1297T
1082.597	3.1	1090827	PROB	3070	-999	-999	n/a	n/a	n/a	n/a	9	[6, 4, 4]	14	PAL1	2	R1297T
1085.697	2.702	1093927	PROB	2668	-999	-999	n/a	n/a	n/a	n/a	9	[6, 9, 1]	16	PAL1	2	R1297T
1088.399	7.934	1096629	PROB	7902	-999	-999	n/a	n/a	n/a	n/a	9	[8, 9, 9]	20	PAL1	2	R1297T
1096.333	11.127	1104562	PROB	11127	-999	-999	n/a	n/a	n/a	n/a	9	[7, 5, 8]	20	PAL1	2	R1297T
1107.46	0.009	1115689	STOP	n/a	-999	-999	n/a	n/a	n/a	n/a	9	[-999, -999, -999]	-999	PAL1	2	R1297T
1107.469	0.0	1115698	MATH_END	n/a	-999	-999	n/a	n/a	n/a	n/a	9	[0, 0, 0]	-999	PAL1	2	R1297T
1107.469	0.016	1115698	RECALL_START	n/a	-999	-999	n/a	n/a	n/a	n/a	9	[0, 0, 0]	-999	PAL1	2	R1297T
1107.485	0.266	1115714	TEST_ORIENT	n/a	5	1	STRAW	HOOK	HOOK	STRAW	9	[0, 0, 0]	-999	PAL1	2	R1297T
1107.751	0.535	1115980	RETRIEVAL_ORIENT_OFF	n/a	-999	-999	n/a	n/a	n/a	n/a	9	[0, 0, 0]	-999	PAL1	2	R1297T
1108.286	0.001	1116515	TEST_PROBE	n/a	5	1	STRAW	HOOK	HOOK	STRAW	9	[0, 0, 0]	-999	PAL1	2	R1297T
1108.287	2.253	1116516	REC_START	n/a	5	-999	n/a	HOOK	n/a	n/a	9	[0, 0, 0]	-999	PAL1	2	R1297T
1110.54	1.763	1118769	REC_EVENT	2253	5	1	STRAW	HOOK	HOOK	STRAW	9	[0, 0, 0]	-999	PAL1	2	R1297T
1112.303	1.0	1120531	PROBE_OFF	n/a	5	-999	n/a	n/a	n/a	n/a	9	[0, 0, 0]	-999	PAL1	2	R1297T
1113.303	0.017	1121531	REC_END	n/a	5	-999	n/a	n/a	n/a	n/a	9	[0, 0, 0]	-999	PAL1	2	R1297T
1113.32	0.266	1121548	TEST_ORIENT	n/a	2	2	GRAPE	CUBE	GRAPE	CUBE	9	[0, 0, 0]	-999	PAL1	2	R1297T
1113.586	0.684	1121814	RETRIEVAL_ORIENT_OFF	n/a	5	-999	n/a	n/a	n/a	n/a	9	[0, 0, 0]	-999	PAL1	2	R1297T
1114.27	0.001	1122498	TEST_PROBE	n/a	2	2	GRAPE	CUBE	GRAPE	CUBE	9	[0, 0, 0]	-999	PAL1	2	R1297T
1114.271	1.356	1122499	REC_START	n/a	2	-999	n/a	CUBE	n/a	n/a	9	[0, 0, 0]	-999	PAL1	2	R1297T
1115.627	2.66	1123855	REC_EVENT	1356	2	2	GRAPE	CUBE	GRAPE	CUBE	9	[0, 0, 0]	-999	PAL1	2	R1297T
1118.287	1.0	1126515	PROBE_OFF	n/a	2	-999	n/a	n/a	n/a	n/a	9	[0, 0, 0]	-999	PAL1	2	R1297T
1119.287	0.017	1127515	REC_END	n/a	2	-999	n/a	n/a	n/a	n/a	9	[0, 0, 0]	-999	PAL1	2	R1297T
1119.304	0.266	1127532	TEST_ORIENT	n/a	1	3	BIRD	WORM	WORM	BIRD	9	[0, 0, 0]	-999	PAL1	2	R1297T
1119.57	0.601	1127798	RETRIEVAL_ORIENT_OFF	n/a	2	-999	n/a	n/a	n/a	n/a	9	[0, 0, 0]	-999	PAL1	2	R1297T
1120.171	0.001	1128399	TEST_PROBE	n/a	1	3	BIRD	WORM	WORM	BIRD	9	[0, 0, 0]	-999	PAL1	2	R1297T
1120.172	1.539	1128400	REC_START	n/a	1	-999	n/a	WORM	n/a	n/a	9	[0, 0, 0]	-999	PAL1	2	R1297T
1121.711	2.478	1129939	REC_EVENT	1539	1	3	BIRD	WORM	WORM	BIRD	9	[0, 0, 0]	-999	PAL1	2	R1297T
1124.189	1.0	1132417	PROBE_OFF	n/a	1	-999	n/a	n/a	n/a	n/a	9	[0, 0, 0]	-999	PAL1	2	R1297T
1125.189	0.016	1133417	REC_END	n/a	1	-999	n/a	n/a	n/a	n/a	9	[0, 0, 0]	-999	PAL1	2	R1297T
1125.205	0.267	1133433	TEST_ORIENT	n/a	6	4	BALL	WING	BALL	WING	9	[0, 0, 0]	-999	PAL1	2	R1297T
1125.472	0.583	1133700	RETRIEVAL_ORIENT_OFF	n/a	1	-999	n/a	n/a	n/a	n/a	9	[0, 0, 0]	-999	PAL1	2	R1297T
1126.055	0.0	1134283	TEST_PROBE	n/a	6	4	BALL	WING	BALL	WING	9	[0, 0, 0]	-999	PAL1	2	R1297T
1126.055	1.245	1134283	REC_START	n/a	6	-999	n/a	WING	n/a	n/a	9	[0, 0, 0]	-999	PAL1	2	R1297T
1127.3	2.772	1135528	REC_EVENT	1245	6	4	BALL	WING	BALL	WING	9	[0, 0, 0]	-999	PAL1	2	R1297T
1130.072	1.0	1138299	PROBE_OFF	n/a	6	-999	n/a	n/a	n/a	n/a	9	[0, 0, 0]	-999	PAL1	2	R1297T
1131.072	0.017	1139299	REC_END	n/a	6	-999	n/a	n/a	n/a	n/a	9	[0, 0, 0]	-999	PAL1	2	R1297T
1131.089	0.267	1139316	TEST_ORIENT	n/a	3	5	CART	BATH	CART	BATH	9	[0, 0, 0]	-999	PAL1	2	R1297T
1131.356	0.733	1139583	RETRIEVAL_ORIENT_OFF	n/a	6	-999	n/a	n/a	n/a	n/a	9	[0, 0, 0]	-999	PAL1	2	R1297T
1132.089	0.0	1140316	TEST_PROBE	n/a	3	5	CART	BATH	CART	BATH	9	[0, 0, 0]	-999	PAL1	2	R1297T
1132.089	3.414	1140316	REC_START	n/a	3	-999	n/a	BATH	n/a	n/a	9	[0, 0, 0]	-999	PAL1	2	R1297T
1135.503	0.603	1143730	REC_EVENT	3414	3	5	CART	BATH	CART	BATH	9	[0, 0, 0]	-999	PAL1	2	R1297T
1136.106	1.0	1144333	PROBE_OFF	n/a	3	-999	n/a	n/a	n/a	n/a	9	[0, 0, 0]	-999	PAL1	2	R1297T
1137.106	0.017	1145333	REC_END	n/a	3	-999	n/a	n/a	n/a	n/a	9	[0, 0, 0]	-999	PAL1	2	R1297T
1137.123	0.251	1145350	TEST_ORIENT	n/a	4	6	FOX	RUG	FOX	RUG	9	[0, 0, 0]	-999	PAL1	2	R1297T
1137.374	0.633	1145601	RETRIEVAL_ORIENT_OFF	n/a	3	-999	n/a	n/a	n/a	n/a	9	[0, 0, 0]	-999	PAL1	2	R1297T
1138.007	0.0	1146234	TEST_PROBE	n/a	4	6	FOX	RUG	FOX	RUG	9	[0, 0, 0]	-999	PAL1	2	R1297T
1138.007	1.33	1146234	REC_START	n/a	4	-999	n/a	RUG	n/a	n/a	9	[0, 0, 0]	-999	PAL1	2	R1297T
1139.337	2.687	1147564	REC_EVENT	1330	4	6	FOX	RUG	FOX	RUG	9	[0, 0, 0]	-999	PAL1	2	R1297T
1142.024	1.0	1150251	PROBE_OFF	n/a	4	-999	n/a	n/a	n/a	n/a	9	[0, 0, 0]	-999	PAL1	2	R1297T
1143.024	0.008	1151251	REC_END	n/a	4	-999	n/a	n/a	n/a	n/a	9	[0, 0, 0]	-999	PAL1	2	R1297T
1143.032	4.643	1151259	RECALL_END	n/a	-999	-999	n/a	n/a	n/a	n/a	9	[0, 0, 0]	-999	PAL1	2	R1297T
1147.675	10.929	1155901	TRIAL	n/a	-999	-999	n/a	n/a	n/a	n/a	10	[0, 0, 0]	-999	PAL1	2	R1297T
1158.604	0.006	1166830	ENCODING_START	n/a	-999	-999	n/a	n/a	n/a	n/a	10	[0, 0, 0]	-999	PAL1	2	R1297T
1158.61	0.267	1166836	STUDY_ORIENT	n/a	1	5	SLEEVE	GOLD	GOLD	SLEEVE	10	[0, 0, 0]	-999	PAL1	2	R1297T
1158.877	0.585	1167103	STUDY_ORIENT_OFF	n/a	1	5	SLEEVE	GOLD	GOLD	SLEEVE	10	[0, 0, 0]	-999	PAL1	2	R1297T
1159.462	4.017	1167688	STUDY_PAIR	n/a	1	5	SLEEVE	GOLD	GOLD	SLEEVE	10	[0, 0, 0]	-999	PAL1	2	R1297T
1163.479	1.017	1171704	PAIR_OFF	n/a	1	5	SLEEVE	GOLD	GOLD	SLEEVE	10	[0, 0, 0]	-999	PAL1	2	R1297T
1164.496	0.265	1172721	STUDY_ORIENT	n/a	2	6	SNAIL	SEA	SNAIL	SEA	10	[0, 0, 0]	-999	PAL1	2	R1297T
1164.761	0.652	1172986	STUDY_ORIENT_OFF	n/a	2	6	SNAIL	SEA	SNAIL	SEA	10	[0, 0, 0]	-999	PAL1	2	R1297T
1165.413	4.017	1173638	STUDY_PAIR	n/a	2	6	SNAIL	SEA	SNAIL	SEA	10	[0, 0, 0]	-999	PAL1	2	R1297T
1169.43	1.017	1177655	PAIR_OFF	n/a	2	6	SNAIL	SEA	SNAIL	SEA	10	[0, 0, 0]	-999	PAL1	2	R1297T
1170.447	0.266	1178672	STUDY_ORIENT	n/a	3	1	ANT	WALL	ANT	WALL	10	[0, 0, 0]	-999	PAL1	2	R1297T
1170.713	0.734	1178938	STUDY_ORIENT_OFF	n/a	3	1	ANT	WALL	ANT	WALL	10	[0, 0, 0]	-999	PAL1	2	R1297T
1171.447	4.018	1179672	STUDY_PAIR	n/a	3	1	ANT	WALL	ANT	WALL	10	[0, 0, 0]	-999	PAL1	2	R1297T
1175.465	1.016	1183690	PAIR_OFF	n/a	3	1	ANT	WALL	ANT	WALL	10	[0, 0, 0]	-999	PAL1	2	R1297T
1176.481	0.266	1184706	STUDY_ORIENT	n/a	4	2	NAIL	BED	BED	NAIL	10	[0, 0, 0]	-999	PAL1	2	R1297T
1176.747	0.535	1184972	STUDY_ORIENT_OFF	n/a	4	2	NAIL	BED	BED	NAIL	10	[0, 0, 0]	-999	PAL1	2	R1297T
1177.282	4.017	1185506	STUDY_PAIR	n/a	4	2	NAIL	BED	BED	NAIL	10	[0, 0, 0]	-999	PAL1	2	R1297T
1181.299	1.017	1189523	PAIR_OFF	n/a	4	2	NAIL	BED	BED	NAIL	10	[0, 0, 0]	-999	PAL1	2	R1297T
1182.316	0.266	1190540	STUDY_ORIENT	n/a	5	3	SNAKE	JUDGE	SNAKE	JUDGE	10	[0, 0, 0]	-999	PAL1	2	R1297T
1182.582	0.617	1190806	STUDY_ORIENT_OFF	n/a	5	3	SNAKE	JUDGE	SNAKE	JUDGE	10	[0, 0, 0]	-999	PAL1	2	R1297T
1183.199	4.018	1191423	STUDY_PAIR	n/a	5	3	SNAKE	JUDGE	SNAKE	JUDGE	10	[0, 0, 0]	-999	PAL1	2	R1297T
1187.217	1.017	1195441	PAIR_OFF	n/a	5	3	SNAKE	JUDGE	SNAKE	JUDGE	10	[0, 0, 0]	-999	PAL1	2	R1297T
1188.234	0.266	1196458	STUDY_ORIENT	n/a	6	4	NET	PASS	NET	PIE	10	[0, 0, 0]	-999	PAL1	2	R1297T
1188.5	0.75	1196724	STUDY_ORIENT_OFF	n/a	6	4	NET	PASS	NET	PIE	10	[0, 0, 0]	-999	PAL1	2	R1297T
1189.25	4.018	1197474	STUDY_PAIR	n/a	6	4	NET	PASS	NET	PIE	10	[0, 0, 0]	-999	PAL1	2	R1297T
1193.268	1.001	1201492	PAIR_OFF	n/a	6	4	NET	PASS	NET	PIE	10	[0, 0, 0]	-999	PAL1	2	R1297T
1194.269	0.0	1202492	ENCODING_END	n/a	-999	-999	n/a	n/a	n/a	n/a	10	[0, 0, 0]	-999	PAL1	2	R1297T
1194.269	0.0	1202492	MATH_START	n/a	-999	-999	n/a	n/a	n/a	n/a	10	[0, 0, 0]	-999	PAL1	2	R1297T
1194.269	0.016	1202492	START	n/a	-999	-999	n/a	n/a	n/a	n/a	10	[-999, -999, -999]	-999	PAL1	2	R1297T
1194.285	4.583	1202508	PROB	4558	-999	-999	n/a	n/a	n/a	n/a	10	[2, 7, 9]	18	PAL1	2	R1297T
1198.868	3.134	1207091	PROB	3096	-999	-999	n/a	n/a	n/a	n/a	10	[1, 1, 7]	9	PAL1	2	R1297T
1202.002	5.034	1210225	PROB	5001	-999	-999	n/a	n/a	n/a	n/a	10	[5, 4, 3]	12	PAL1	2	R1297T
1207.036	4.817	1215259	PROB	4791	-999	-999	n/a	n/a	n/a	n/a	10	[6, 3, 8]	17	PAL1	2	R1297T
1211.853	2.91	1220075	PROB	2910	-999	-999	n/a	n/a	n/a	n/a	10	[6, 1, 2]	9	PAL1	2	R1297T
1214.763	0.008	1222985	STOP	n/a	-999	-999	n/a	n/a	n/a	n/a	10	[-999, -999, -999]	-999	PAL1	2	R1297T
1214.771	0.0	1222993	MATH_END	n/a	-999	-999	n/a	n/a	n/a	n/a	10	[0, 0, 0]	-999	PAL1	2	R1297T
1214.771	0.016	1222993	RECALL_START	n/a	-999	-999	n/a	n/a	n/a	n/a	10	[0, 0, 0]	-999	PAL1	2	R1297T
1214.787	0.267	1223009	TEST_ORIENT	n/a	3	1	ANT	WALL	ANT	WALL	10	[0, 0, 0]	-999	PAL1	2	R1297T
1215.054	0.567	1223276	RETRIEVAL_ORIENT_OFF	n/a	-999	-999	n/a	n/a	n/a	n/a	10	[0, 0, 0]	-999	PAL1	2	R1297T
1215.621	0.0	1223843	TEST_PROBE	n/a	3	1	ANT	WALL	ANT	WALL	10	[0, 0, 0]	-999	PAL1	2	R1297T
1215.621	1.657	1223843	REC_START	n/a	3	-999	n/a	WALL	n/a	n/a	10	[0, 0, 0]	-999	PAL1	2	R1297T
1217.278	2.36	1225500	REC_EVENT	1657	3	1	ANT	WALL	ANT	WALL	10	[0, 0, 0]	-999	PAL1	2	R1297T
1219.638	1.0	1227860	PROBE_OFF	n/a	3	-999	n/a	n/a	n/a	n/a	10	[0, 0, 0]	-999	PAL1	2	R1297T
1220.638	0.017	1228860	REC_END	n/a	3	-999	n/a	n/a	n/a	n/a	10	[0, 0, 0]	-999	PAL1	2	R1297T
1220.655	0.267	1228877	TEST_ORIENT	n/a	4	2	NAIL	BED	BED	NAIL	10	[0, 0, 0]	-999	PAL1	2	R1297T
1220.922	0.75	1229144	RETRIEVAL_ORIENT_OFF	n/a	3	-999	n/a	n/a	n/a	n/a	10	[0, 0, 0]	-999	PAL1	2	R1297T
1221.672	0.001	1229894	TEST_PROBE	n/a	4	2	NAIL	BED	BED	NAIL	10	[0, 0, 0]	-999	PAL1	2	R1297T
1221.673	1.243	1229895	REC_START	n/a	4	-999	n/a	BED	n/a	n/a	10	[0, 0, 0]	-999	PAL1	2	R1297T
1222.916	2.773	1231138	REC_EVENT	1243	4	2	NAIL	BED	BED	NAIL	10	[0, 0, 0]	-999	PAL1	2	R1297T
1225.689	1.001	1233911	PROBE_OFF	n/a	4	-999	n/a	n/a	n/a	n/a	10	[0, 0, 0]	-999	PAL1	2	R1297T
1226.69	0.016	1234911	REC_END	n/a	4	-999	n/a	n/a	n/a	n/a	10	[0, 0, 0]	-999	PAL1	2	R1297T
1226.706	0.267	1234927	TEST_ORIENT	n/a	5	3	SNAKE	JUDGE	SNAKE	JUDGE	10	[0, 0, 0]	-999	PAL1	2	R1297T
1226.973	0.717	1235194	RETRIEVAL_ORIENT_OFF	n/a	4	-999	n/a	n/a	n/a	n/a	10	[0, 0, 0]	-999	PAL1	2	R1297T
1227.69	0.0	1235911	TEST_PROBE	n/a	5	3	SNAKE	JUDGE	SNAKE	JUDGE	10	[0, 0, 0]	-999	PAL1	2	R1297T
1227.69	1.667	1235911	REC_START	n/a	5	-999	n/a	JUDGE	n/a	n/a	10	[0, 0, 0]	-999	PAL1	2	R1297T
1229.357	2.35	1237578	REC_EVENT	1667	5	3	SNAKE	JUDGE	SNAKE	JUDGE	10	[0, 0, 0]	-999	PAL1	2	R1297T
1231.707	1.0	1239928	PROBE_OFF	n/a	5	-999	n/a	n/a	n/a	n/a	10	[0, 0, 0]	-999	PAL1	2	R1297T
1232.707	0.017	1240928	REC_END	n/a	5	-999	n/a	n/a	n/a	n/a	10	[0, 0, 0]	-999	PAL1	2	R1297T
1232.724	0.267	1240945	TEST_ORIENT	n/a	6	4	NET	PASS	NET	PIE	10	[0, 0, 0]	-999	PAL1	2	R1297T
1232.991	0.583	1241212	RETRIEVAL_ORIENT_OFF	n/a	5	-999	n/a	n/a	n/a	n/a	10	[0, 0, 0]	-999	PAL1	2	R1297T
1233.574	0.001	1241795	TEST_PROBE	n/a	6	4	NET	PASS	NET	PIE	10	[0, 0, 0]	-999	PAL1	2	R1297T
1233.575	2.834	1241796	REC_START	n/a	6	-999	n/a	PASS	n/a	n/a	10	[0, 0, 0]	-999	PAL1	2	R1297T
1236.409	1.182	1244630	REC_EVENT	2834	6	4	NET	PASS	NET	PIE	10	[0, 0, 0]	-999	PAL1	2	R1297T
1237.591	1.0	1245812	PROBE_OFF	n/a	6	-999	n/a	n/a	n/a	n/a	10	[0, 0, 0]	-999	PAL1	2	R1297T
1238.591	0.017	1246812	REC_END	n/a	6	-999	n/a	n/a	n/a	n/a	10	[0, 0, 0]	-999	PAL1	2	R1297T
1238.608	0.267	1246829	TEST_ORIENT	n/a	1	5	SLEEVE	GOLD	GOLD	SLEEVE	10	[0, 0, 0]	-999	PAL1	2	R1297T
1238.875	0.65	1247096	RETRIEVAL_ORIENT_OFF	n/a	6	-999	n/a	n/a	n/a	n/a	10	[0, 0, 0]	-999	PAL1	2	R1297T
1239.525	0.001	1247746	TEST_PROBE	n/a	1	5	SLEEVE	GOLD	GOLD	SLEEVE	10	[0, 0, 0]	-999	PAL1	2	R1297T
1239.526	1.312	1247747	REC_START	n/a	1	-999	n/a	GOLD	n/a	n/a	10	[0, 0, 0]	-999	PAL1	2	R1297T
1240.838	2.705	1249059	REC_EVENT	1312	1	5	SLEEVE	GOLD	GOLD	SLEEVE	10	[0, 0, 0]	-999	PAL1	2	R1297T
1243.543	1.0	1251763	PROBE_OFF	n/a	1	-999	n/a	n/a	n/a	n/a	10	[0, 0, 0]	-999	PAL1	2	R1297T
1244.543	0.016	1252763	REC_END	n/a	1	-999	n/a	n/a	n/a	n/a	10	[0, 0, 0]	-999	PAL1	2	R1297T
1244.559	0.267	1252779	TEST_ORIENT	n/a	2	6	SNAIL	SEA	SNAIL	SEA	10	[0, 0, 0]	-999	PAL1	2	R1297T
1244.826	0.635	1253046	RETRIEVAL_ORIENT_OFF	n/a	1	-999	n/a	n/a	n/a	n/a	10	[0, 0, 0]	-999	PAL1	2	R1297T
1245.461	0.0	1253681	TEST_PROBE	n/a	2	6	SNAIL	SEA	SNAIL	SEA	10	[0, 0, 0]	-999	PAL1	2	R1297T
1245.461	1.645	1253681	REC_START	n/a	2	-999	n/a	SEA	n/a	n/a	10	[0, 0, 0]	-999	PAL1	2	R1297T
1247.106	2.372	1255326	REC_EVENT	1645	2	6	SNAIL	SEA	SNAIL	SEA	10	[0, 0, 0]	-999	PAL1	2	R1297T
1249.478	1.001	1257698	PROBE_OFF	n/a	2	-999	n/a	n/a	n/a	n/a	10	[0, 0, 0]	-999	PAL1	2	R1297T
1250.479	0.004	1258699	REC_END	n/a	2	-999	n/a	n/a	n/a	n/a	10	[0, 0, 0]	-999	PAL1	2	R1297T
1250.483	10.646	1258703	RECALL_END	n/a	-999	-999	n/a	n/a	n/a	n/a	10	[0, 0, 0]	-999	PAL1	2	R1297T
1261.129	10.929	1269348	TRIAL	n/a	-999	-999	n/a	n/a	n/a	n/a	11	[0, 0, 0]	-999	PAL1	2	R1297T
1272.058	0.006	1280277	ENCODING_START	n/a	-999	-999	n/a	n/a	n/a	n/a	11	[0, 0, 0]	-999	PAL1	2	R1297T
1272.064	0.268	1280283	STUDY_ORIENT	n/a	1	3	CLOCK	TOAST	CLOCK	TOAST	11	[0, 0, 0]	-999	PAL1	2	R1297T
1272.332	0.566	1280551	STUDY_ORIENT_OFF	n/a	1	3	CLOCK	TOAST	CLOCK	TOAST	11	[0, 0, 0]	-999	PAL1	2	R1297T
1272.898	4.017	1281117	STUDY_PAIR	n/a	1	3	CLOCK	TOAST	CLOCK	TOAST	11	[0, 0, 0]	-999	PAL1	2	R1297T
1276.915	1.017	1285133	PAIR_OFF	n/a	1	3	CLOCK	TOAST	CLOCK	TOAST	11	[0, 0, 0]	-999	PAL1	2	R1297T
1277.932	0.268	1286150	STUDY_ORIENT	n/a	2	6	FUR	PASS	FAN	FUR	11	[0, 0, 0]	-999	PAL1	2	R1297T
1278.2	0.549	1286418	STUDY_ORIENT_OFF	n/a	2	6	FUR	PASS	FAN	FUR	11	[0, 0, 0]	-999	PAL1	2	R1297T
1278.749	4.017	1286967	STUDY_PAIR	n/a	2	6	FUR	PASS	FAN	FUR	11	[0, 0, 0]	-999	PAL1	2	R1297T
1282.766	1.017	1290984	PAIR_OFF	n/a	2	6	FUR	PASS	FAN	FUR	11	[0, 0, 0]	-999	PAL1	2	R1297T
1283.783	0.267	1292001	STUDY_ORIENT	n/a	3	1	WORLD	PASS	ELF	WORLD	11	[0, 0, 0]	-999	PAL1	2	R1297T
1284.05	0.6	1292268	STUDY_ORIENT_OFF	n/a	3	1	WORLD	PASS	ELF	WORLD	11	[0, 0, 0]	-999	PAL1	2	R1297T
1284.65	4.017	1292868	STUDY_PAIR	n/a	3	1	WORLD	PASS	ELF	WORLD	11	[0, 0, 0]	-999	PAL1	2	R1297T
1288.667	1.017	1296885	PAIR_OFF	n/a	3	1	WORLD	PASS	ELF	WORLD	11	[0, 0, 0]	-999	PAL1	2	R1297T
1289.684	0.267	1297902	STUDY_ORIENT	n/a	4	4	CHIEF	WEED	WEED	CHIEF	11	[0, 0, 0]	-999	PAL1	2	R1297T
1289.951	0.683	1298169	STUDY_ORIENT_OFF	n/a	4	4	CHIEF	WEED	WEED	CHIEF	11	[0, 0, 0]	-999	PAL1	2	R1297T
1290.634	4.018	1298852	STUDY_PAIR	n/a	4	4	CHIEF	WEED	WEED	CHIEF	11	[0, 0, 0]	-999	PAL1	2	R1297T
1294.652	1.017	1302869	PAIR_OFF	n/a	4	4	CHIEF	WEED	WEED	CHIEF	11	[0, 0, 0]	-999	PAL1	2	R1297T
1295.669	0.266	1303886	STUDY_ORIENT	n/a	5	5	SHEEP	GATE	SHEEP	GATE	11	[0, 0, 0]	-999	PAL1	2	R1297T
1295.935	0.568	1304152	STUDY_ORIENT_OFF	n/a	5	5	SHEEP	GATE	SHEEP	GATE	11	[0, 0, 0]	-999	PAL1	2	R1297T
1296.503	4.017	1304720	STUDY_PAIR	n/a	5	5	SHEEP	GATE	SHEEP	GATE	11	[0, 0, 0]	-999	PAL1	2	R1297T
1300.52	1.016	1308737	PAIR_OFF	n/a	5	5	SHEEP	GATE	SHEEP	GATE	11	[0, 0, 0]	-999	PAL1	2	R1297T
1301.536	0.267	1309753	STUDY_ORIENT	n/a	6	2	CAGE	TEETH	TEETH	CAGE	11	[0, 0, 0]	-999	PAL1	2	R1297T
1301.803	0.668	1310020	STUDY_ORIENT_OFF	n/a	6	2	CAGE	TEETH	TEETH	CAGE	11	[0, 0, 0]	-999	PAL1	2	R1297T
1302.471	4.017	1310688	STUDY_PAIR	n/a	6	2	CAGE	TEETH	TEETH	CAGE	11	[0, 0, 0]	-999	PAL1	2	R1297T
1306.488	1.001	1314705	PAIR_OFF	n/a	6	2	CAGE	TEETH	TEETH	CAGE	11	[0, 0, 0]	-999	PAL1	2	R1297T
1307.489	0.0	1315706	ENCODING_END	n/a	-999	-999	n/a	n/a	n/a	n/a	11	[0, 0, 0]	-999	PAL1	2	R1297T
1307.489	0.0	1315706	MATH_START	n/a	-999	-999	n/a	n/a	n/a	n/a	11	[0, 0, 0]	-999	PAL1	2	R1297T
1307.489	0.016	1315706	START	n/a	-999	-999	n/a	n/a	n/a	n/a	11	[-999, -999, -999]	-999	PAL1	2	R1297T
1307.505	4.267	1315722	PROB	4243	-999	-999	n/a	n/a	n/a	n/a	11	[9, 4, 2]	15	PAL1	2	R1297T
1311.772	4.334	1319988	PROB	4312	-999	-999	n/a	n/a	n/a	n/a	11	[9, 5, 2]	16	PAL1	2	R1297T
1316.106	4.068	1324322	PROB	4034	-999	-999	n/a	n/a	n/a	n/a	11	[9, 9, 2]	20	PAL1	2	R1297T
1320.174	9.278	1328390	PROB	9278	-999	-999	n/a	n/a	n/a	n/a	11	[9, 9, 6]	24	PAL1	2	R1297T
1329.452	0.007	1337667	STOP	n/a	-999	-999	n/a	n/a	n/a	n/a	11	[-999, -999, -999]	-999	PAL1	2	R1297T
1329.459	0.0	1337674	MATH_END	n/a	-999	-999	n/a	n/a	n/a	n/a	11	[0, 0, 0]	-999	PAL1	2	R1297T
1329.459	0.017	1337674	RECALL_START	n/a	-999	-999	n/a	n/a	n/a	n/a	11	[0, 0, 0]	-999	PAL1	2	R1297T
1329.476	0.266	1337691	TEST_ORIENT	n/a	3	1	WORLD	PASS	ELF	WORLD	11	[0, 0, 0]	-999	PAL1	2	R1297T
1329.742	0.601	1337957	RETRIEVAL_ORIENT_OFF	n/a	-999	-999	n/a	n/a	n/a	n/a	11	[0, 0, 0]	-999	PAL1	2	R1297T
1330.343	0.0	1338558	TEST_PROBE	n/a	3	1	WORLD	PASS	ELF	WORLD	11	[0, 0, 0]	-999	PAL1	2	R1297T
1330.343	3.11	1338558	REC_START	n/a	3	-999	n/a	PASS	n/a	n/a	11	[0, 0, 0]	-999	PAL1	2	R1297T
1333.453	0.907	1341668	REC_EVENT	3110	3	1	WORLD	PASS	ELF	WORLD	11	[0, 0, 0]	-999	PAL1	2	R1297T
1334.36	1.0	1342575	PROBE_OFF	n/a	3	-999	n/a	n/a	n/a	n/a	11	[0, 0, 0]	-999	PAL1	2	R1297T
1335.36	0.017	1343575	REC_END	n/a	3	-999	n/a	n/a	n/a	n/a	11	[0, 0, 0]	-999	PAL1	2	R1297T
1335.377	0.266	1343592	TEST_ORIENT	n/a	6	2	CAGE	TEETH	TEETH	CAGE	11	[0, 0, 0]	-999	PAL1	2	R1297T
1335.643	0.584	1343858	RETRIEVAL_ORIENT_OFF	n/a	3	-999	n/a	n/a	n/a	n/a	11	[0, 0, 0]	-999	PAL1	2	R1297T
1336.227	0.001	1344442	TEST_PROBE	n/a	6	2	CAGE	TEETH	TEETH	CAGE	11	[0, 0, 0]	-999	PAL1	2	R1297T
1336.228	1.265	1344443	REC_START	n/a	6	-999	n/a	TEETH	n/a	n/a	11	[0, 0, 0]	-999	PAL1	2	R1297T
1337.493	2.751	1345708	REC_EVENT	1265	6	2	CAGE	TEETH	TEETH	CAGE	11	[0, 0, 0]	-999	PAL1	2	R1297T
1340.244	1.0	1348459	PROBE_OFF	n/a	6	-999	n/a	n/a	n/a	n/a	11	[0, 0, 0]	-999	PAL1	2	R1297T
1341.244	0.017	1349459	REC_END	n/a	6	-999	n/a	n/a	n/a	n/a	11	[0, 0, 0]	-999	PAL1	2	R1297T
1341.261	0.266	1349476	TEST_ORIENT	n/a	1	3	CLOCK	TOAST	CLOCK	TOAST	11	[0, 0, 0]	-999	PAL1	2	R1297T
1341.527	0.55	1349741	RETRIEVAL_ORIENT_OFF	n/a	6	-999	n/a	n/a	n/a	n/a	11	[0, 0, 0]	-999	PAL1	2	R1297T
1342.077	0.001	1350291	TEST_PROBE	n/a	1	3	CLOCK	TOAST	CLOCK	TOAST	11	[0, 0, 0]	-999	PAL1	2	R1297T
1342.078	4.017	1350292	REC_START	n/a	1	-999	n/a	TOAST	n/a	n/a	11	[0, 0, 0]	-999	PAL1	2	R1297T
1346.095	0.078	1354309	PROBE_OFF	n/a	1	-999	n/a	n/a	n/a	n/a	11	[0, 0, 0]	-999	PAL1	2	R1297T
1346.173	0.922	1354387	REC_EVENT	4095	1	3	CLOCK	TOAST	CLOCK	TOAST	11	[0, 0, 0]	-999	PAL1	2	R1297T
1347.095	0.016	1355309	REC_END	n/a	1	-999	n/a	n/a	n/a	n/a	11	[0, 0, 0]	-999	PAL1	2	R1297T
1347.111	0.251	1355325	TEST_ORIENT	n/a	4	4	CHIEF	WEED	WEED	CHIEF	11	[0, 0, 0]	-999	PAL1	2	R1297T
1347.362	0.533	1355576	RETRIEVAL_ORIENT_OFF	n/a	1	-999	n/a	n/a	n/a	n/a	11	[0, 0, 0]	-999	PAL1	2	R1297T
1347.895	0.0	1356109	TEST_PROBE	n/a	4	4	CHIEF	WEED	WEED	CHIEF	11	[0, 0, 0]	-999	PAL1	2	R1297T
1347.895	1.325	1356109	REC_START	n/a	4	-999	n/a	WEED	n/a	n/a	11	[0, 0, 0]	-999	PAL1	2	R1297T
1349.22	2.692	1357434	REC_EVENT	1325	4	4	CHIEF	WEED	WEED	CHIEF	11	[0, 0, 0]	-999	PAL1	2	R1297T
1351.912	1.0	1360126	PROBE_OFF	n/a	4	-999	n/a	n/a	n/a	n/a	11	[0, 0, 0]	-999	PAL1	2	R1297T
1352.912	0.017	1361126	REC_END	n/a	4	-999	n/a	n/a	n/a	n/a	11	[0, 0, 0]	-999	PAL1	2	R1297T
1352.929	0.268	1361143	TEST_ORIENT	n/a	5	5	SHEEP	GATE	SHEEP	GATE	11	[0, 0, 0]	-999	PAL1	2	R1297T
1353.197	0.699	1361411	RETRIEVAL_ORIENT_OFF	n/a	4	-999	n/a	n/a	n/a	n/a	11	[0, 0, 0]	-999	PAL1	2	R1297T
1353.896	0.001	1362110	TEST_PROBE	n/a	5	5	SHEEP	GATE	SHEEP	GATE	11	[0, 0, 0]	-999	PAL1	2	R1297T
1353.897	1.238	1362111	REC_START	n/a	5	-999	n/a	GATE	n/a	n/a	11	[0, 0, 0]	-999	PAL1	2	R1297T
1355.135	2.778	1363349	REC_EVENT	1238	5	5	SHEEP	GATE	SHEEP	GATE	11	[0, 0, 0]	-999	PAL1	2	R1297T
1357.913	1.001	1366126	PROBE_OFF	n/a	5	-999	n/a	n/a	n/a	n/a	11	[0, 0, 0]	-999	PAL1	2	R1297T
1358.914	0.016	1367127	REC_END	n/a	5	-999	n/a	n/a	n/a	n/a	11	[0, 0, 0]	-999	PAL1	2	R1297T
1358.93	0.268	1367143	TEST_ORIENT	n/a	2	6	FUR	PASS	FAN	FUR	11	[0, 0, 0]	-999	PAL1	2	R1297T
1359.198	0.516	1367411	RETRIEVAL_ORIENT_OFF	n/a	5	-999	n/a	n/a	n/a	n/a	11	[0, 0, 0]	-999	PAL1	2	R1297T
1359.714	0.0	1367927	REC_START	n/a	2	-999	n/a	PASS	n/a	n/a	11	[0, 0, 0]	-999	PAL1	2	R1297T
1359.714	3.237	1367927	TEST_PROBE	n/a	2	6	FUR	PASS	FAN	FUR	11	[0, 0, 0]	-999	PAL1	2	R1297T
1362.951	0.78	1371164	REC_EVENT	3237	2	6	FUR	PASS	FAN	FUR	11	[0, 0, 0]	-999	PAL1	2	R1297T
1363.731	1.0	1371944	PROBE_OFF	n/a	2	-999	n/a	n/a	n/a	n/a	11	[0, 0, 0]	-999	PAL1	2	R1297T
1364.731	0.004	1372944	REC_END	n/a	2	-999	n/a	n/a	n/a	n/a	11	[0, 0, 0]	-999	PAL1	2	R1297T
1364.735	7.331	1372948	RECALL_END	n/a	-999	-999	n/a	n/a	n/a	n/a	11	[0, 0, 0]	-999	PAL1	2	R1297T
1372.066	10.928	1380279	TRIAL	n/a	-999	-999	n/a	n/a	n/a	n/a	12	[0, 0, 0]	-999	PAL1	2	R1297T
1382.994	0.007	1391206	ENCODING_START	n/a	-999	-999	n/a	n/a	n/a	n/a	12	[0, 0, 0]	-999	PAL1	2	R1297T
1383.001	0.251	1391213	STUDY_ORIENT	n/a	1	1	SKUNK	n/a	HORSE	SKUNK	12	[0, 0, 0]	-999	PAL1	2	R1297T
1383.252	0.516	1391464	STUDY_ORIENT_OFF	n/a	1	1	SKUNK	n/a	HORSE	SKUNK	12	[0, 0, 0]	-999	PAL1	2	R1297T
1383.768	4.017	1391980	STUDY_PAIR	n/a	1	1	SKUNK	n/a	HORSE	SKUNK	12	[0, 0, 0]	-999	PAL1	2	R1297T
1387.785	1.017	1395997	PAIR_OFF	n/a	1	1	SKUNK	n/a	HORSE	SKUNK	12	[0, 0, 0]	-999	PAL1	2	R1297T
1388.802	0.267	1397014	STUDY_ORIENT	n/a	2	2	CLOUD	TOAD	CLOUD	TOAD	12	[0, 0, 0]	-999	PAL1	2	R1297T
1389.069	0.617	1397281	STUDY_ORIENT_OFF	n/a	2	2	CLOUD	TOAD	CLOUD	TOAD	12	[0, 0, 0]	-999	PAL1	2	R1297T
1389.686	4.017	1397898	STUDY_PAIR	n/a	2	2	CLOUD	TOAD	CLOUD	TOAD	12	[0, 0, 0]	-999	PAL1	2	R1297T
1393.703	1.017	1401914	PAIR_OFF	n/a	2	2	CLOUD	TOAD	CLOUD	TOAD	12	[0, 0, 0]	-999	PAL1	2	R1297T
1394.72	0.267	1402931	STUDY_ORIENT	n/a	3	3	CASH	POND	CASH	POND	12	[0, 0, 0]	-999	PAL1	2	R1297T
1394.987	0.7	1403198	STUDY_ORIENT_OFF	n/a	3	3	CASH	POND	CASH	POND	12	[0, 0, 0]	-999	PAL1	2	R1297T
1395.687	4.017	1403898	STUDY_PAIR	n/a	3	3	CASH	POND	CASH	POND	12	[0, 0, 0]	-999	PAL1	2	R1297T
1399.704	1.017	1407915	PAIR_OFF	n/a	3	3	CASH	POND	CASH	POND	12	[0, 0, 0]	-999	PAL1	2	R1297T
1400.721	0.267	1408932	STUDY_ORIENT	n/a	4	4	BAND	NOSE	BAND	NOSE	12	[0, 0, 0]	-999	PAL1	2	R1297T
1400.988	0.567	1409199	STUDY_ORIENT_OFF	n/a	4	4	BAND	NOSE	BAND	NOSE	12	[0, 0, 0]	-999	PAL1	2	R1297T
1401.555	4.017	1409766	STUDY_PAIR	n/a	4	4	BAND	NOSE	BAND	NOSE	12	[0, 0, 0]	-999	PAL1	2	R1297T
1405.572	1.017	1413783	PAIR_OFF	n/a	4	4	BAND	NOSE	BAND	NOSE	12	[0, 0, 0]	-999	PAL1	2	R1297T
1406.589	0.267	1414800	STUDY_ORIENT	n/a	5	5	MOOSE	SNOW	SNOW	MOOSE	12	[0, 0, 0]	-999	PAL1	2	R1297T
1406.856	0.517	1415067	STUDY_ORIENT_OFF	n/a	5	5	MOOSE	SNOW	SNOW	MOOSE	12	[0, 0, 0]	-999	PAL1	2	R1297T
1407.373	4.018	1415583	STUDY_PAIR	n/a	5	5	MOOSE	SNOW	SNOW	MOOSE	12	[0, 0, 0]	-999	PAL1	2	R1297T
1411.391	1.017	1419601	PAIR_OFF	n/a	5	5	MOOSE	SNOW	SNOW	MOOSE	12	[0, 0, 0]	-999	PAL1	2	R1297T
1412.408	0.265	1420618	STUDY_ORIENT	n/a	6	6	ICE	PASS	ICE	BOOK	12	[0, 0, 0]	-999	PAL1	2	R1297T
1412.673	0.735	1420883	STUDY_ORIENT_OFF	n/a	6	6	ICE	PASS	ICE	BOOK	12	[0, 0, 0]	-999	PAL1	2	R1297T
1413.408	4.017	1421618	STUDY_PAIR	n/a	6	6	ICE	PASS	ICE	BOOK	12	[0, 0, 0]	-999	PAL1	2	R1297T
1417.425	1.001	1425635	PAIR_OFF	n/a	6	6	ICE	PASS	ICE	BOOK	12	[0, 0, 0]	-999	PAL1	2	R1297T
1418.426	0.0	1426636	ENCODING_END	n/a	-999	-999	n/a	n/a	n/a	n/a	12	[0, 0, 0]	-999	PAL1	2	R1297T
1418.426	0.0	1426636	MATH_START	n/a	-999	-999	n/a	n/a	n/a	n/a	12	[0, 0, 0]	-999	PAL1	2	R1297T
1418.426	0.016	1426636	START	n/a	-999	-999	n/a	n/a	n/a	n/a	12	[-999, -999, -999]	-999	PAL1	2	R1297T
1418.442	4.734	1426652	PROB	4705	-999	-999	n/a	n/a	n/a	n/a	12	[8, 3, 6]	17	PAL1	2	R1297T
1423.176	4.617	1431386	PROB	4580	-999	-999	n/a	n/a	n/a	n/a	12	[6, 6, 5]	17	PAL1	2	R1297T
1427.793	3.635	1436002	PROB	3611	-999	-999	n/a	n/a	n/a	n/a	12	[3, 2, 4]	9	PAL1	2	R1297T
1431.428	3.433	1439637	PROB	3399	-999	-999	n/a	n/a	n/a	n/a	12	[4, 6, 7]	17	PAL1	2	R1297T
1434.861	4.56	1443070	PROB	4560	-999	-999	n/a	n/a	n/a	n/a	12	[1, 8, 5]	14	PAL1	2	R1297T
1439.421	0.008	1447630	STOP	n/a	-999	-999	n/a	n/a	n/a	n/a	12	[-999, -999, -999]	-999	PAL1	2	R1297T
1439.429	0.0	1447638	MATH_END	n/a	-999	-999	n/a	n/a	n/a	n/a	12	[0, 0, 0]	-999	PAL1	2	R1297T
1439.429	0.017	1447638	RECALL_START	n/a	-999	-999	n/a	n/a	n/a	n/a	12	[0, 0, 0]	-999	PAL1	2	R1297T
1439.446	0.266	1447655	TEST_ORIENT	n/a	1	1	SKUNK	n/a	HORSE	SKUNK	12	[0, 0, 0]	-999	PAL1	2	R1297T
1439.712	0.601	1447921	RETRIEVAL_ORIENT_OFF	n/a	-999	-999	n/a	n/a	n/a	n/a	12	[0, 0, 0]	-999	PAL1	2	R1297T
1440.313	0.001	1448521	TEST_PROBE	n/a	1	1	SKUNK	n/a	HORSE	SKUNK	12	[0, 0, 0]	-999	PAL1	2	R1297T
1440.314	4.016	1448522	REC_START	n/a	1	-999	n/a	n/a	n/a	n/a	12	[0, 0, 0]	-999	PAL1	2	R1297T
1444.33	0.834	1452538	PROBE_OFF	n/a	1	-999	n/a	n/a	n/a	n/a	12	[0, 0, 0]	-999	PAL1	2	R1297T
1445.164	0.166	1453372	REC_EVENT	4850	1	1	SKUNK	<>	HORSE	SKUNK	12	[0, 0, 0]	-999	PAL1	2	R1297T
1445.33	0.017	1453538	REC_END	n/a	1	-999	n/a	n/a	n/a	n/a	12	[0, 0, 0]	-999	PAL1	2	R1297T
1445.347	0.266	1453555	TEST_ORIENT	n/a	2	2	CLOUD	TOAD	CLOUD	TOAD	12	[0, 0, 0]	-999	PAL1	2	R1297T
1445.613	0.701	1453821	RETRIEVAL_ORIENT_OFF	n/a	1	-999	n/a	n/a	n/a	n/a	12	[0, 0, 0]	-999	PAL1	2	R1297T
1446.314	0.0	1454522	REC_START	n/a	2	-999	n/a	TOAD	n/a	n/a	12	[0, 0, 0]	-999	PAL1	2	R1297T
1446.314	1.613	1454522	TEST_PROBE	n/a	2	2	CLOUD	TOAD	CLOUD	TOAD	12	[0, 0, 0]	-999	PAL1	2	R1297T
1447.927	2.404	1456135	REC_EVENT	1613	2	2	CLOUD	TOAD	CLOUD	TOAD	12	[0, 0, 0]	-999	PAL1	2	R1297T
1450.331	1.0	1458539	PROBE_OFF	n/a	2	-999	n/a	n/a	n/a	n/a	12	[0, 0, 0]	-999	PAL1	2	R1297T
1451.331	0.017	1459539	REC_END	n/a	2	-999	n/a	n/a	n/a	n/a	12	[0, 0, 0]	-999	PAL1	2	R1297T
1451.348	0.266	1459556	TEST_ORIENT	n/a	3	3	CASH	POND	CASH	POND	12	[0, 0, 0]	-999	PAL1	2	R1297T
1451.614	0.701	1459822	RETRIEVAL_ORIENT_OFF	n/a	2	-999	n/a	n/a	n/a	n/a	12	[0, 0, 0]	-999	PAL1	2	R1297T
1452.315	0.0	1460523	TEST_PROBE	n/a	3	3	CASH	POND	CASH	POND	12	[0, 0, 0]	-999	PAL1	2	R1297T
1452.315	1.393	1460523	REC_START	n/a	3	-999	n/a	POND	n/a	n/a	12	[0, 0, 0]	-999	PAL1	2	R1297T
1453.708	2.624	1461916	REC_EVENT	1393	3	3	CASH	POND	CASH	POND	12	[0, 0, 0]	-999	PAL1	2	R1297T
1456.332	1.0	1464540	PROBE_OFF	n/a	3	-999	n/a	n/a	n/a	n/a	12	[0, 0, 0]	-999	PAL1	2	R1297T
1457.332	0.017	1465539	REC_END	n/a	3	-999	n/a	n/a	n/a	n/a	12	[0, 0, 0]	-999	PAL1	2	R1297T
1457.349	0.266	1465556	TEST_ORIENT	n/a	4	4	BAND	NOSE	BAND	NOSE	12	[0, 0, 0]	-999	PAL1	2	R1297T
1457.615	0.718	1465822	RETRIEVAL_ORIENT_OFF	n/a	3	-999	n/a	n/a	n/a	n/a	12	[0, 0, 0]	-999	PAL1	2	R1297T
1458.333	0.0	1466540	REC_START	n/a	4	-999	n/a	NOSE	n/a	n/a	12	[0, 0, 0]	-999	PAL1	2	R1297T
1458.333	1.291	1466540	TEST_PROBE	n/a	4	4	BAND	NOSE	BAND	NOSE	12	[0, 0, 0]	-999	PAL1	2	R1297T
1459.624	2.726	1467831	REC_EVENT	1291	4	4	BAND	NOSE	BAND	NOSE	12	[0, 0, 0]	-999	PAL1	2	R1297T
1462.35	1.001	1470557	PROBE_OFF	n/a	4	-999	n/a	n/a	n/a	n/a	12	[0, 0, 0]	-999	PAL1	2	R1297T
1463.351	0.016	1471558	REC_END	n/a	4	-999	n/a	n/a	n/a	n/a	12	[0, 0, 0]	-999	PAL1	2	R1297T
1463.367	0.266	1471574	TEST_ORIENT	n/a	5	5	MOOSE	SNOW	SNOW	MOOSE	12	[0, 0, 0]	-999	PAL1	2	R1297T
1463.633	0.534	1471840	RETRIEVAL_ORIENT_OFF	n/a	4	-999	n/a	n/a	n/a	n/a	12	[0, 0, 0]	-999	PAL1	2	R1297T
1464.167	0.001	1472374	TEST_PROBE	n/a	5	5	MOOSE	SNOW	SNOW	MOOSE	12	[0, 0, 0]	-999	PAL1	2	R1297T
1464.168	1.806	1472375	REC_START	n/a	5	-999	n/a	SNOW	n/a	n/a	12	[0, 0, 0]	-999	PAL1	2	R1297T
1465.974	2.21	1474181	REC_EVENT	1806	5	5	MOOSE	SNOW	SNOW	MOOSE	12	[0, 0, 0]	-999	PAL1	2	R1297T
1468.184	1.0	1476391	PROBE_OFF	n/a	5	-999	n/a	n/a	n/a	n/a	12	[0, 0, 0]	-999	PAL1	2	R1297T
1469.184	0.017	1477391	REC_END	n/a	5	-999	n/a	n/a	n/a	n/a	12	[0, 0, 0]	-999	PAL1	2	R1297T
1469.201	0.267	1477408	TEST_ORIENT	n/a	6	6	ICE	PASS	ICE	BOOK	12	[0, 0, 0]	-999	PAL1	2	R1297T
1469.468	0.516	1477675	RETRIEVAL_ORIENT_OFF	n/a	5	-999	n/a	n/a	n/a	n/a	12	[0, 0, 0]	-999	PAL1	2	R1297T
1469.984	0.0	1478191	TEST_PROBE	n/a	6	6	ICE	PASS	ICE	BOOK	12	[0, 0, 0]	-999	PAL1	2	R1297T
1469.984	2.743	1478191	REC_START	n/a	6	-999	n/a	PASS	n/a	n/a	12	[0, 0, 0]	-999	PAL1	2	R1297T
1472.727	1.274	1480934	REC_EVENT	2743	6	6	ICE	PASS	ICE	BOOK	12	[0, 0, 0]	-999	PAL1	2	R1297T
1474.001	1.0	1482207	PROBE_OFF	n/a	6	-999	n/a	n/a	n/a	n/a	12	[0, 0, 0]	-999	PAL1	2	R1297T
1475.001	0.004	1483207	REC_END	n/a	6	-999	n/a	n/a	n/a	n/a	12	[0, 0, 0]	-999	PAL1	2	R1297T
1475.005	5.298	1483211	RECALL_END	n/a	-999	-999	n/a	n/a	n/a	n/a	12	[0, 0, 0]	-999	PAL1	2	R1297T
1480.303	10.929	1488509	TRIAL	n/a	-999	-999	n/a	n/a	n/a	n/a	13	[0, 0, 0]	-999	PAL1	2	R1297T
1491.232	0.007	1499437	ENCODING_START	n/a	-999	-999	n/a	n/a	n/a	n/a	13	[0, 0, 0]	-999	PAL1	2	R1297T
1491.239	0.266	1499444	STUDY_ORIENT	n/a	1	3	LAMB	PASS	BADGE	LAMB	13	[0, 0, 0]	-999	PAL1	2	R1297T
1491.505	0.649	1499710	STUDY_ORIENT_OFF	n/a	1	3	LAMB	PASS	BADGE	LAMB	13	[0, 0, 0]	-999	PAL1	2	R1297T
1492.154	4.001	1500359	STUDY_PAIR	n/a	1	3	LAMB	PASS	BADGE	LAMB	13	[0, 0, 0]	-999	PAL1	2	R1297T
1496.155	1.018	1504360	PAIR_OFF	n/a	1	3	LAMB	PASS	BADGE	LAMB	13	[0, 0, 0]	-999	PAL1	2	R1297T
1497.173	0.267	1505378	STUDY_ORIENT	n/a	2	2	TIE	LEG	TIE	LEG	13	[0, 0, 0]	-999	PAL1	2	R1297T
1497.44	0.616	1505645	STUDY_ORIENT_OFF	n/a	2	2	TIE	LEG	TIE	LEG	13	[0, 0, 0]	-999	PAL1	2	R1297T
1498.056	4.017	1506261	STUDY_PAIR	n/a	2	2	TIE	LEG	TIE	LEG	13	[0, 0, 0]	-999	PAL1	2	R1297T
1502.073	1.017	1510278	PAIR_OFF	n/a	2	2	TIE	LEG	TIE	LEG	13	[0, 0, 0]	-999	PAL1	2	R1297T
1503.09	0.267	1511295	STUDY_ORIENT	n/a	3	5	FLEA	MUG	FLEA	MUG	13	[0, 0, 0]	-999	PAL1	2	R1297T
1503.357	0.716	1511562	STUDY_ORIENT_OFF	n/a	3	5	FLEA	MUG	FLEA	MUG	13	[0, 0, 0]	-999	PAL1	2	R1297T
1504.073	4.018	1512278	STUDY_PAIR	n/a	3	5	FLEA	MUG	FLEA	MUG	13	[0, 0, 0]	-999	PAL1	2	R1297T
1508.091	1.017	1516295	PAIR_OFF	n/a	3	5	FLEA	MUG	FLEA	MUG	13	[0, 0, 0]	-999	PAL1	2	R1297T
1509.108	0.267	1517312	STUDY_ORIENT	n/a	4	6	FROG	BROOM	FROG	BROOM	13	[0, 0, 0]	-999	PAL1	2	R1297T
1509.375	0.766	1517579	STUDY_ORIENT_OFF	n/a	4	6	FROG	BROOM	FROG	BROOM	13	[0, 0, 0]	-999	PAL1	2	R1297T
1510.141	4.018	1518345	STUDY_PAIR	n/a	4	6	FROG	BROOM	FROG	BROOM	13	[0, 0, 0]	-999	PAL1	2	R1297T
1514.159	1.017	1522363	PAIR_OFF	n/a	4	6	FROG	BROOM	FROG	BROOM	13	[0, 0, 0]	-999	PAL1	2	R1297T
1515.176	0.267	1523380	STUDY_ORIENT	n/a	5	1	PIG	n/a	PIG	MAZE	13	[0, 0, 0]	-999	PAL1	2	R1297T
1515.443	0.582	1523647	STUDY_ORIENT_OFF	n/a	5	1	PIG	n/a	PIG	MAZE	13	[0, 0, 0]	-999	PAL1	2	R1297T
1516.025	4.018	1524229	STUDY_PAIR	n/a	5	1	PIG	n/a	PIG	MAZE	13	[0, 0, 0]	-999	PAL1	2	R1297T
1520.043	1.017	1528247	PAIR_OFF	n/a	5	1	PIG	n/a	PIG	MAZE	13	[0, 0, 0]	-999	PAL1	2	R1297T
1521.06	0.267	1529264	STUDY_ORIENT	n/a	6	4	APE	THUMB	THUMB	APE	13	[0, 0, 0]	-999	PAL1	2	R1297T
1521.327	0.75	1529531	STUDY_ORIENT_OFF	n/a	6	4	APE	THUMB	THUMB	APE	13	[0, 0, 0]	-999	PAL1	2	R1297T
1522.077	4.017	1530281	STUDY_PAIR	n/a	6	4	APE	THUMB	THUMB	APE	13	[0, 0, 0]	-999	PAL1	2	R1297T
1526.094	1.0	1534297	PAIR_OFF	n/a	6	4	APE	THUMB	THUMB	APE	13	[0, 0, 0]	-999	PAL1	2	R1297T
