onset	duration	sample	trial_type	response_time	serialpos	probepos	probe_word	resp_word	study_1	study_2	list	test	answer	experiment	session	subject
0.0	140.857	-1	SESS_START	n/a	-999	-999	n/a	n/a	n/a	n/a	-999	[0, 0, 0]	-999	PAL1	0	R1074M
140.857	1.017	46134	START	n/a	-999	-999	n/a	n/a	n/a	n/a	-1	[-999, -999, -999]	-999	PAL1	0	R1074M
141.874	10.402	46642	PROB	10381	-999	-999	n/a	n/a	n/a	n/a	-1	[1, 8, 1]	10	PAL1	0	R1074M
152.276	7.552	51843	PROB	7531	-999	-999	n/a	n/a	n/a	n/a	-1	[1, 4, 9]	14	PAL1	0	R1074M
159.828	18.971	55619	PROB	18971	-999	-999	n/a	n/a	n/a	n/a	-1	[7, 8, 9]	25	PAL1	0	R1074M
178.799	69.184	65104	STOP	n/a	-999	-999	n/a	n/a	n/a	n/a	-1	[-999, -999, -999]	-999	PAL1	0	R1074M
247.983	10.447	99694	ENCODING_START	n/a	0	-999	n/a	n/a	n/a	n/a	1	[0, 0, 0]	-999	PAL1	0	R1074M
258.43	0.817	104917	STUDY_ORIENT	n/a	1	3	GEESE	n/a	POND	GEESE	1	[0, 0, 0]	-999	PAL1	0	R1074M
259.247	5.018	105325	STUDY_PAIR	n/a	1	3	GEESE	n/a	POND	GEESE	1	[0, 0, 0]	-999	PAL1	0	R1074M
264.265	1.017	107834	STUDY_ORIENT	n/a	2	4	DOG	n/a	DOLL	DOG	1	[0, 0, 0]	-999	PAL1	0	R1074M
265.282	5.034	108343	STUDY_PAIR	n/a	2	4	DOG	n/a	DOLL	DOG	1	[0, 0, 0]	-999	PAL1	0	R1074M
270.316	0.817	110860	STUDY_ORIENT	n/a	3	5	TOAD	n/a	PANTS	TOAD	1	[0, 0, 0]	-999	PAL1	0	R1074M
271.133	5.034	111268	STUDY_PAIR	n/a	3	5	TOAD	n/a	PANTS	TOAD	1	[0, 0, 0]	-999	PAL1	0	R1074M
276.167	1.0	113785	STUDY_ORIENT	n/a	4	6	CAT	n/a	TENT	CAT	1	[0, 0, 0]	-999	PAL1	0	R1074M
277.167	5.018	114285	STUDY_PAIR	n/a	4	6	CAT	n/a	TENT	CAT	1	[0, 0, 0]	-999	PAL1	0	R1074M
282.185	0.934	116794	STUDY_ORIENT	n/a	5	1	BLUSH	n/a	BLUSH	ZOO	1	[0, 0, 0]	-999	PAL1	0	R1074M
283.119	5.034	117261	STUDY_PAIR	n/a	5	1	BLUSH	n/a	BLUSH	ZOO	1	[0, 0, 0]	-999	PAL1	0	R1074M
288.153	0.767	119778	STUDY_ORIENT	n/a	6	2	CHAIR	CAT	CHAIR	BADGE	1	[0, 0, 0]	-999	PAL1	0	R1074M
288.92	4.018	120161	STUDY_PAIR	n/a	6	2	CHAIR	CAT	CHAIR	BADGE	1	[0, 0, 0]	-999	PAL1	0	R1074M
292.938	0.999	122170	START	n/a	-999	-999	n/a	n/a	n/a	n/a	1	[-999, -999, -999]	-999	PAL1	0	R1074M
293.937	0.017	122669	MATH_START	n/a	-999	-999	n/a	n/a	n/a	n/a	1	[0, 0, 0]	-999	PAL1	0	R1074M
293.954	5.268	122678	PROB	5245	-999	-999	n/a	n/a	n/a	n/a	1	[3, 1, 4]	8	PAL1	0	R1074M
299.222	5.735	125312	PROB	5713	-999	-999	n/a	n/a	n/a	n/a	1	[2, 5, 2]	12	PAL1	0	R1074M
304.957	24.394	128179	PROB	24394	-999	-999	n/a	n/a	n/a	n/a	1	[5, 8, 2]	13	PAL1	0	R1074M
329.351	0.01	140375	STOP	n/a	-999	-999	n/a	n/a	n/a	n/a	1	[-999, -999, -999]	-999	PAL1	0	R1074M
329.361	0.0	140380	MATH_END	n/a	-999	-999	n/a	n/a	n/a	n/a	1	[0, 0, 0]	-999	PAL1	0	R1074M
329.361	0.017	140380	TEST_START	n/a	-999	-999	n/a	n/a	n/a	n/a	1	[0, 0, 0]	-999	PAL1	0	R1074M
329.378	0.833	140389	TEST_ORIENT	n/a	5	1	BLUSH	n/a	BLUSH	ZOO	1	[0, 0, 0]	-999	PAL1	0	R1074M
330.211	0.002	140805	TEST_PROBE	n/a	5	1	BLUSH	n/a	BLUSH	ZOO	1	[0, 0, 0]	-999	PAL1	0	R1074M
330.213	4.481	140806	REC_START	n/a	5	-999	n/a	n/a	n/a	n/a	1	[0, 0, 0]	-999	PAL1	0	R1074M
334.694	0.518	143047	REC_EVENT	4481	5	1	BLUSH	<>	BLUSH	ZOO	1	[0, 0, 0]	-999	PAL1	0	R1074M
335.212	0.017	143306	REC_END	n/a	5	-999	n/a	n/a	n/a	n/a	1	[0, 0, 0]	-999	PAL1	0	R1074M
335.229	1.034	143314	TEST_ORIENT	n/a	6	2	CHAIR	CAT	CHAIR	BADGE	1	[0, 0, 0]	-999	PAL1	0	R1074M
336.263	0.0	143831	TEST_PROBE	n/a	6	2	CHAIR	CAT	CHAIR	BADGE	1	[0, 0, 0]	-999	PAL1	0	R1074M
336.263	2.147	143831	REC_START	n/a	6	-999	n/a	CAT	n/a	n/a	1	[0, 0, 0]	-999	PAL1	0	R1074M
338.41	2.87	144905	REC_EVENT	2147	6	2	CHAIR	CAT	CHAIR	BADGE	1	[0, 0, 0]	-999	PAL1	0	R1074M
341.28	0.017	146340	REC_END	n/a	6	-999	n/a	n/a	n/a	n/a	1	[0, 0, 0]	-999	PAL1	0	R1074M
341.297	0.967	146348	TEST_ORIENT	n/a	1	3	GEESE	n/a	POND	GEESE	1	[0, 0, 0]	-999	PAL1	0	R1074M
342.264	0.0	146832	TEST_PROBE	n/a	1	3	GEESE	n/a	POND	GEESE	1	[0, 0, 0]	-999	PAL1	0	R1074M
342.264	2.02	146832	REC_START	n/a	1	-999	n/a	n/a	n/a	n/a	1	[0, 0, 0]	-999	PAL1	0	R1074M
344.284	2.997	147841	REC_EVENT	2020	1	3	GEESE	<>	POND	GEESE	1	[0, 0, 0]	-999	PAL1	0	R1074M
347.281	0.017	149340	REC_END	n/a	1	-999	n/a	n/a	n/a	n/a	1	[0, 0, 0]	-999	PAL1	0	R1074M
347.298	0.817	149348	TEST_ORIENT	n/a	2	4	DOG	n/a	DOLL	DOG	1	[0, 0, 0]	-999	PAL1	0	R1074M
348.115	0.0	149757	TEST_PROBE	n/a	2	4	DOG	n/a	DOLL	DOG	1	[0, 0, 0]	-999	PAL1	0	R1074M
348.115	0.766	149757	REC_START	n/a	2	-999	n/a	n/a	n/a	n/a	1	[0, 0, 0]	-999	PAL1	0	R1074M
348.881	4.251	150140	REC_EVENT	766	2	4	DOG	<>	DOLL	DOG	1	[0, 0, 0]	-999	PAL1	0	R1074M
353.132	0.017	152265	REC_END	n/a	2	-999	n/a	n/a	n/a	n/a	1	[0, 0, 0]	-999	PAL1	0	R1074M
353.149	0.834	152274	TEST_ORIENT	n/a	3	5	TOAD	n/a	PANTS	TOAD	1	[0, 0, 0]	-999	PAL1	0	R1074M
353.983	0.0	152691	REC_START	n/a	3	-999	n/a	n/a	n/a	n/a	1	[0, 0, 0]	-999	PAL1	0	R1074M
353.983	0.464	152691	TEST_PROBE	n/a	3	5	TOAD	n/a	PANTS	TOAD	1	[0, 0, 0]	-999	PAL1	0	R1074M
354.447	4.553	152923	REC_EVENT	464	3	5	TOAD	<>	PANTS	TOAD	1	[0, 0, 0]	-999	PAL1	0	R1074M
359.0	0.017	155199	REC_END	n/a	3	-999	n/a	n/a	n/a	n/a	1	[0, 0, 0]	-999	PAL1	0	R1074M
359.017	0.834	155208	TEST_ORIENT	n/a	4	6	CAT	n/a	TENT	CAT	1	[0, 0, 0]	-999	PAL1	0	R1074M
359.851	0.0	155625	TEST_PROBE	n/a	4	6	CAT	n/a	TENT	CAT	1	[0, 0, 0]	-999	PAL1	0	R1074M
359.851	1.021	155625	REC_START	n/a	4	-999	n/a	n/a	n/a	n/a	1	[0, 0, 0]	-999	PAL1	0	R1074M
360.872	3.996	156135	REC_EVENT	1021	4	6	CAT	<>	TENT	CAT	1	[0, 0, 0]	-999	PAL1	0	R1074M
364.868	2.619	158133	REC_END	n/a	4	-999	n/a	n/a	n/a	n/a	1	[0, 0, 0]	-999	PAL1	0	R1074M
367.487	10.451	159442	ENCODING_START	n/a	0	-999	n/a	n/a	n/a	n/a	2	[0, 0, 0]	-999	PAL1	0	R1074M
377.938	0.8	164668	STUDY_ORIENT	n/a	1	1	TOY	n/a	MAP	TOY	2	[0, 0, 0]	-999	PAL1	0	R1074M
378.738	5.034	165068	STUDY_PAIR	n/a	1	1	TOY	n/a	MAP	TOY	2	[0, 0, 0]	-999	PAL1	0	R1074M
383.772	1.0	167584	STUDY_ORIENT	n/a	2	6	HORN	n/a	HORN	MOON	2	[0, 0, 0]	-999	PAL1	0	R1074M
384.772	5.018	168084	STUDY_PAIR	n/a	2	6	HORN	n/a	HORN	MOON	2	[0, 0, 0]	-999	PAL1	0	R1074M
389.79	0.95	170593	STUDY_ORIENT	n/a	3	3	DESK	n/a	BEAR	DESK	2	[0, 0, 0]	-999	PAL1	0	R1074M
390.74	5.018	171068	STUDY_PAIR	n/a	3	3	DESK	n/a	BEAR	DESK	2	[0, 0, 0]	-999	PAL1	0	R1074M
395.758	1.017	173577	STUDY_ORIENT	n/a	4	4	ROCK	n/a	CONE	ROCK	2	[0, 0, 0]	-999	PAL1	0	R1074M
396.775	5.034	174086	STUDY_PAIR	n/a	4	4	ROCK	n/a	CONE	ROCK	2	[0, 0, 0]	-999	PAL1	0	R1074M
401.809	0.867	176602	STUDY_ORIENT	n/a	5	5	NEST	n/a	NEST	HEART	2	[0, 0, 0]	-999	PAL1	0	R1074M
402.676	5.034	177036	STUDY_PAIR	n/a	5	5	NEST	n/a	NEST	HEART	2	[0, 0, 0]	-999	PAL1	0	R1074M
407.71	0.9	179553	STUDY_ORIENT	n/a	6	2	COW	n/a	HOSE	COW	2	[0, 0, 0]	-999	PAL1	0	R1074M
408.61	4.001	180003	STUDY_PAIR	n/a	6	2	COW	n/a	HOSE	COW	2	[0, 0, 0]	-999	PAL1	0	R1074M
412.611	1.0	182003	START	n/a	-999	-999	n/a	n/a	n/a	n/a	2	[-999, -999, -999]	-999	PAL1	0	R1074M
413.611	0.017	182503	MATH_START	n/a	-999	-999	n/a	n/a	n/a	n/a	2	[0, 0, 0]	-999	PAL1	0	R1074M
413.628	15.269	182512	PROB	15234	-999	-999	n/a	n/a	n/a	n/a	2	[4, 9, 9]	22	PAL1	0	R1074M
428.897	8.622	190146	PROB	8622	-999	-999	n/a	n/a	n/a	n/a	2	[4, 8, 7]	19	PAL1	0	R1074M
437.519	0.014	194456	STOP	n/a	-999	-999	n/a	n/a	n/a	n/a	2	[-999, -999, -999]	-999	PAL1	0	R1074M
437.533	0.0	194463	MATH_END	n/a	-999	-999	n/a	n/a	n/a	n/a	2	[0, 0, 0]	-999	PAL1	0	R1074M
437.533	0.016	194463	TEST_START	n/a	-999	-999	n/a	n/a	n/a	n/a	2	[0, 0, 0]	-999	PAL1	0	R1074M
437.549	0.852	194471	TEST_ORIENT	n/a	1	1	TOY	n/a	MAP	TOY	2	[0, 0, 0]	-999	PAL1	0	R1074M
438.401	0.0	194897	TEST_PROBE	n/a	1	1	TOY	n/a	MAP	TOY	2	[0, 0, 0]	-999	PAL1	0	R1074M
438.401	3.715	194897	REC_START	n/a	1	-999	n/a	n/a	n/a	n/a	2	[0, 0, 0]	-999	PAL1	0	R1074M
442.116	1.301	196755	REC_EVENT	3715	1	1	TOY	<>	MAP	TOY	2	[0, 0, 0]	-999	PAL1	0	R1074M
443.417	0.017	197405	REC_END	n/a	1	-999	n/a	n/a	n/a	n/a	2	[0, 0, 0]	-999	PAL1	0	R1074M
443.434	0.917	197414	TEST_ORIENT	n/a	6	2	COW	n/a	HOSE	COW	2	[0, 0, 0]	-999	PAL1	0	R1074M
444.351	0.0	197872	TEST_PROBE	n/a	6	2	COW	n/a	HOSE	COW	2	[0, 0, 0]	-999	PAL1	0	R1074M
444.351	3.343	197872	REC_START	n/a	6	-999	n/a	n/a	n/a	n/a	2	[0, 0, 0]	-999	PAL1	0	R1074M
447.694	1.674	199544	REC_EVENT	3343	6	2	COW	<>	HOSE	COW	2	[0, 0, 0]	-999	PAL1	0	R1074M
449.368	0.017	200381	REC_END	n/a	6	-999	n/a	n/a	n/a	n/a	2	[0, 0, 0]	-999	PAL1	0	R1074M
449.385	0.884	200389	TEST_ORIENT	n/a	3	3	DESK	n/a	BEAR	DESK	2	[0, 0, 0]	-999	PAL1	0	R1074M
450.269	0.0	200831	TEST_PROBE	n/a	3	3	DESK	n/a	BEAR	DESK	2	[0, 0, 0]	-999	PAL1	0	R1074M
450.269	3.738	200831	REC_START	n/a	3	-999	n/a	n/a	n/a	n/a	2	[0, 0, 0]	-999	PAL1	0	R1074M
454.007	1.28	202700	REC_EVENT	3738	3	3	DESK	<>	BEAR	DESK	2	[0, 0, 0]	-999	PAL1	0	R1074M
455.287	0.016	203340	REC_END	n/a	3	-999	n/a	n/a	n/a	n/a	2	[0, 0, 0]	-999	PAL1	0	R1074M
455.303	0.95	203348	TEST_ORIENT	n/a	4	4	ROCK	n/a	CONE	ROCK	2	[0, 0, 0]	-999	PAL1	0	R1074M
456.253	0.001	203823	TEST_PROBE	n/a	4	4	ROCK	n/a	CONE	ROCK	2	[0, 0, 0]	-999	PAL1	0	R1074M
456.254	2.066	203823	REC_START	n/a	4	-999	n/a	n/a	n/a	n/a	2	[0, 0, 0]	-999	PAL1	0	R1074M
458.32	2.942	204856	REC_EVENT	2066	4	4	ROCK	<>	CONE	ROCK	2	[0, 0, 0]	-999	PAL1	0	R1074M
461.262	0.009	206327	REC_END	n/a	4	-999	n/a	n/a	n/a	n/a	2	[0, 0, 0]	-999	PAL1	0	R1074M
461.271	0.833	206332	TEST_ORIENT	n/a	5	5	NEST	n/a	NEST	HEART	2	[0, 0, 0]	-999	PAL1	0	R1074M
462.104	0.0	206748	TEST_PROBE	n/a	5	5	NEST	n/a	NEST	HEART	2	[0, 0, 0]	-999	PAL1	0	R1074M
462.104	1.648	206748	REC_START	n/a	5	-999	n/a	n/a	n/a	n/a	2	[0, 0, 0]	-999	PAL1	0	R1074M
463.752	3.361	207572	REC_EVENT	1648	5	5	NEST	<>	NEST	HEART	2	[0, 0, 0]	-999	PAL1	0	R1074M
467.113	0.009	209253	REC_END	n/a	5	-999	n/a	n/a	n/a	n/a	2	[0, 0, 0]	-999	PAL1	0	R1074M
467.122	0.95	209257	TEST_ORIENT	n/a	2	6	HORN	n/a	HORN	MOON	2	[0, 0, 0]	-999	PAL1	0	R1074M
468.072	0.001	209732	TEST_PROBE	n/a	2	6	HORN	n/a	HORN	MOON	2	[0, 0, 0]	-999	PAL1	0	R1074M
468.073	4.876	209733	REC_START	n/a	2	-999	n/a	n/a	n/a	n/a	2	[0, 0, 0]	-999	PAL1	0	R1074M
472.949	0.132	212170	REC_EVENT	4876	2	6	HORN	<>	HORN	MOON	2	[0, 0, 0]	-999	PAL1	0	R1074M
473.081	19.87	212236	REC_END	n/a	2	-999	n/a	n/a	n/a	n/a	2	[0, 0, 0]	-999	PAL1	0	R1074M
492.951	10.446	222171	ENCODING_START	n/a	0	-999	n/a	n/a	n/a	n/a	3	[0, 0, 0]	-999	PAL1	0	R1074M
503.397	0.982	227394	STUDY_ORIENT	n/a	1	3	CANE	n/a	KEY	CANE	3	[0, 0, 0]	-999	PAL1	0	R1074M
504.379	5.019	227885	STUDY_PAIR	n/a	1	3	CANE	n/a	KEY	CANE	3	[0, 0, 0]	-999	PAL1	0	R1074M
509.398	0.916	230394	STUDY_ORIENT	n/a	2	4	WHALE	BEAK	WHALE	BEAK	3	[0, 0, 0]	-999	PAL1	0	R1074M
510.314	5.034	230852	STUDY_PAIR	n/a	2	4	WHALE	BEAK	WHALE	BEAK	3	[0, 0, 0]	-999	PAL1	0	R1074M
515.348	0.917	233369	STUDY_ORIENT	n/a	3	1	FLAG	BEAK	FLAG	NOSE	3	[0, 0, 0]	-999	PAL1	0	R1074M
516.265	5.034	233827	STUDY_PAIR	n/a	3	1	FLAG	BEAK	FLAG	NOSE	3	[0, 0, 0]	-999	PAL1	0	R1074M
521.299	0.817	236344	STUDY_ORIENT	n/a	4	2	PIG	n/a	PIG	STOOL	3	[0, 0, 0]	-999	PAL1	0	R1074M
522.116	5.018	236753	STUDY_PAIR	n/a	4	2	PIG	n/a	PIG	STOOL	3	[0, 0, 0]	-999	PAL1	0	R1074M
527.134	0.917	239261	STUDY_ORIENT	n/a	5	5	SKY	n/a	SKY	BED	3	[0, 0, 0]	-999	PAL1	0	R1074M
528.051	5.034	239720	STUDY_PAIR	n/a	5	5	SKY	n/a	SKY	BED	3	[0, 0, 0]	-999	PAL1	0	R1074M
533.085	0.884	242237	STUDY_ORIENT	n/a	6	6	PLANE	n/a	PLANE	VINE	3	[0, 0, 0]	-999	PAL1	0	R1074M
533.969	4.018	242679	STUDY_PAIR	n/a	6	6	PLANE	n/a	PLANE	VINE	3	[0, 0, 0]	-999	PAL1	0	R1074M
537.987	0.999	244688	START	n/a	-999	-999	n/a	n/a	n/a	n/a	3	[-999, -999, -999]	-999	PAL1	0	R1074M
538.986	0.017	245187	MATH_START	n/a	-999	-999	n/a	n/a	n/a	n/a	3	[0, 0, 0]	-999	PAL1	0	R1074M
539.003	7.435	245196	PROB	7405	-999	-999	n/a	n/a	n/a	n/a	3	[8, 9, 2]	19	PAL1	0	R1074M
546.438	8.501	248913	PROB	8481	-999	-999	n/a	n/a	n/a	n/a	3	[6, 7, 3]	16	PAL1	0	R1074M
554.939	4.62	253163	PROB	4620	-999	-999	n/a	n/a	n/a	n/a	3	[4, 2, 3]	9	PAL1	0	R1074M
559.559	0.015	255473	STOP	n/a	-999	-999	n/a	n/a	n/a	n/a	3	[-999, -999, -999]	-999	PAL1	0	R1074M
559.574	0.0	255481	TEST_START	n/a	-999	-999	n/a	n/a	n/a	n/a	3	[0, 0, 0]	-999	PAL1	0	R1074M
559.574	0.016	255481	MATH_END	n/a	-999	-999	n/a	n/a	n/a	n/a	3	[0, 0, 0]	-999	PAL1	0	R1074M
559.59	0.867	255489	TEST_ORIENT	n/a	3	1	FLAG	BEAK	FLAG	NOSE	3	[0, 0, 0]	-999	PAL1	0	R1074M
560.457	0.001	255922	TEST_PROBE	n/a	3	1	FLAG	BEAK	FLAG	NOSE	3	[0, 0, 0]	-999	PAL1	0	R1074M
560.458	4.046	255923	REC_START	n/a	3	-999	n/a	BEAK	n/a	n/a	3	[0, 0, 0]	-999	PAL1	0	R1074M
564.504	0.963	257945	REC_EVENT	4046	3	1	FLAG	BEAK	FLAG	NOSE	3	[0, 0, 0]	-999	PAL1	0	R1074M
565.467	0.008	258427	REC_END	n/a	3	-999	n/a	n/a	n/a	n/a	3	[0, 0, 0]	-999	PAL1	0	R1074M
565.475	0.833	258431	TEST_ORIENT	n/a	4	2	PIG	n/a	PIG	STOOL	3	[0, 0, 0]	-999	PAL1	0	R1074M
566.308	0.001	258847	TEST_PROBE	n/a	4	2	PIG	n/a	PIG	STOOL	3	[0, 0, 0]	-999	PAL1	0	R1074M
566.309	3.413	258848	REC_START	n/a	4	-999	n/a	n/a	n/a	n/a	3	[0, 0, 0]	-999	PAL1	0	R1074M
569.722	1.594	260554	REC_EVENT	3413	4	2	PIG	<>	PIG	STOOL	3	[0, 0, 0]	-999	PAL1	0	R1074M
571.316	0.01	261351	REC_END	n/a	4	-999	n/a	n/a	n/a	n/a	3	[0, 0, 0]	-999	PAL1	0	R1074M
571.326	0.95	261356	TEST_ORIENT	n/a	1	3	CANE	n/a	KEY	CANE	3	[0, 0, 0]	-999	PAL1	0	R1074M
572.276	0.001	261831	TEST_PROBE	n/a	1	3	CANE	n/a	KEY	CANE	3	[0, 0, 0]	-999	PAL1	0	R1074M
572.277	0.696	261832	REC_START	n/a	1	-999	n/a	n/a	n/a	n/a	3	[0, 0, 0]	-999	PAL1	0	R1074M
572.973	4.312	262180	REC_EVENT	696	1	3	CANE	<>	KEY	CANE	3	[0, 0, 0]	-999	PAL1	0	R1074M
577.285	0.009	264336	REC_END	n/a	1	-999	n/a	n/a	n/a	n/a	3	[0, 0, 0]	-999	PAL1	0	R1074M
577.294	0.9	264340	TEST_ORIENT	n/a	2	4	WHALE	BEAK	WHALE	BEAK	3	[0, 0, 0]	-999	PAL1	0	R1074M
578.194	0.0	264790	TEST_PROBE	n/a	2	4	WHALE	BEAK	WHALE	BEAK	3	[0, 0, 0]	-999	PAL1	0	R1074M
578.194	2.298	264790	REC_START	n/a	2	-999	n/a	BEAK	n/a	n/a	3	[0, 0, 0]	-999	PAL1	0	R1074M
580.492	2.719	265939	REC_EVENT	2298	2	4	WHALE	BEAK	WHALE	BEAK	3	[0, 0, 0]	-999	PAL1	0	R1074M
583.211	0.017	267298	REC_END	n/a	2	-999	n/a	n/a	n/a	n/a	3	[0, 0, 0]	-999	PAL1	0	R1074M
583.228	0.951	267307	TEST_ORIENT	n/a	5	5	SKY	n/a	SKY	BED	3	[0, 0, 0]	-999	PAL1	0	R1074M
584.179	0.0	267782	TEST_PROBE	n/a	5	5	SKY	n/a	SKY	BED	3	[0, 0, 0]	-999	PAL1	0	R1074M
584.179	0.719	267782	REC_START	n/a	5	-999	n/a	n/a	n/a	n/a	3	[0, 0, 0]	-999	PAL1	0	R1074M
584.898	4.298	268142	REC_EVENT	719	5	5	SKY	<>	SKY	BED	3	[0, 0, 0]	-999	PAL1	0	R1074M
589.196	0.017	270291	REC_END	n/a	5	-999	n/a	n/a	n/a	n/a	3	[0, 0, 0]	-999	PAL1	0	R1074M
589.213	0.8	270299	TEST_ORIENT	n/a	6	6	PLANE	n/a	PLANE	VINE	3	[0, 0, 0]	-999	PAL1	0	R1074M
590.013	0.001	270699	TEST_PROBE	n/a	6	6	PLANE	n/a	PLANE	VINE	3	[0, 0, 0]	-999	PAL1	0	R1074M
590.014	2.089	270700	REC_START	n/a	6	-999	n/a	n/a	n/a	n/a	3	[0, 0, 0]	-999	PAL1	0	R1074M
592.103	2.936	271744	REC_EVENT	2089	6	6	PLANE	<>	PLANE	VINE	3	[0, 0, 0]	-999	PAL1	0	R1074M
595.039	15.656	273212	REC_END	n/a	6	-999	n/a	n/a	n/a	n/a	3	[0, 0, 0]	-999	PAL1	0	R1074M
610.695	10.441	281040	ENCODING_START	n/a	0	-999	n/a	n/a	n/a	n/a	4	[0, 0, 0]	-999	PAL1	0	R1074M
621.136	0.933	286260	STUDY_ORIENT	n/a	1	1	TOOTH	SWAMP	SWAMP	TOOTH	4	[0, 0, 0]	-999	PAL1	0	R1074M
622.069	5.018	286726	STUDY_PAIR	n/a	1	1	TOOTH	SWAMP	SWAMP	TOOTH	4	[0, 0, 0]	-999	PAL1	0	R1074M
627.087	0.8	289235	STUDY_ORIENT	n/a	2	4	ROOM	n/a	SCHOOL	ROOM	4	[0, 0, 0]	-999	PAL1	0	R1074M
627.887	5.018	289635	STUDY_PAIR	n/a	2	4	ROOM	n/a	SCHOOL	ROOM	4	[0, 0, 0]	-999	PAL1	0	R1074M
632.905	0.783	292144	STUDY_ORIENT	n/a	3	3	PIPE	n/a	JAIL	PIPE	4	[0, 0, 0]	-999	PAL1	0	R1074M
633.688	5.018	292536	STUDY_PAIR	n/a	3	3	PIPE	n/a	JAIL	PIPE	4	[0, 0, 0]	-999	PAL1	0	R1074M
638.706	0.867	295044	STUDY_ORIENT	n/a	4	2	WEB	n/a	WEB	SPEAR	4	[0, 0, 0]	-999	PAL1	0	R1074M
639.573	5.034	295478	STUDY_PAIR	n/a	4	2	WEB	n/a	WEB	SPEAR	4	[0, 0, 0]	-999	PAL1	0	R1074M
644.607	1.0	297995	STUDY_ORIENT	n/a	5	5	CHIN	n/a	YARD	CHIN	4	[0, 0, 0]	-999	PAL1	0	R1074M
645.607	5.018	298495	STUDY_PAIR	n/a	5	5	CHIN	n/a	YARD	CHIN	4	[0, 0, 0]	-999	PAL1	0	R1074M
650.625	0.95	301004	STUDY_ORIENT	n/a	6	6	STICK	PEN	PEN	STICK	4	[0, 0, 0]	-999	PAL1	0	R1074M
651.575	4.001	301479	STUDY_PAIR	n/a	6	6	STICK	PEN	PEN	STICK	4	[0, 0, 0]	-999	PAL1	0	R1074M
655.576	1.0	303479	START	n/a	-999	-999	n/a	n/a	n/a	n/a	4	[-999, -999, -999]	-999	PAL1	0	R1074M
656.576	0.017	303979	MATH_START	n/a	-999	-999	n/a	n/a	n/a	n/a	4	[0, 0, 0]	-999	PAL1	0	R1074M
656.593	8.768	303987	PROB	8734	-999	-999	n/a	n/a	n/a	n/a	4	[4, 7, 2]	13	PAL1	0	R1074M
665.361	3.501	308371	PROB	3478	-999	-999	n/a	n/a	n/a	n/a	4	[6, 4, 1]	11	PAL1	0	R1074M
668.862	7.449	310122	PROB	7449	-999	-999	n/a	n/a	n/a	n/a	4	[2, 7, 9]	18	PAL1	0	R1074M
676.311	0.002	313846	STOP	n/a	-999	-999	n/a	n/a	n/a	n/a	4	[-999, -999, -999]	-999	PAL1	0	R1074M
676.313	0.0	313847	MATH_END	n/a	-999	-999	n/a	n/a	n/a	n/a	4	[0, 0, 0]	-999	PAL1	0	R1074M
676.313	0.017	313847	TEST_START	n/a	-999	-999	n/a	n/a	n/a	n/a	4	[0, 0, 0]	-999	PAL1	0	R1074M
676.33	0.834	313855	TEST_ORIENT	n/a	1	1	TOOTH	SWAMP	SWAMP	TOOTH	4	[0, 0, 0]	-999	PAL1	0	R1074M
677.164	0.0	314272	TEST_PROBE	n/a	1	1	TOOTH	SWAMP	SWAMP	TOOTH	4	[0, 0, 0]	-999	PAL1	0	R1074M
677.164	2.167	314272	REC_START	n/a	1	-999	n/a	SWAMP	n/a	n/a	4	[0, 0, 0]	-999	PAL1	0	R1074M
679.331	2.85	315356	REC_EVENT	2167	1	1	TOOTH	SWAMP	SWAMP	TOOTH	4	[0, 0, 0]	-999	PAL1	0	R1074M
682.181	0.017	316781	REC_END	n/a	1	-999	n/a	n/a	n/a	n/a	4	[0, 0, 0]	-999	PAL1	0	R1074M
682.198	0.934	316789	TEST_ORIENT	n/a	4	2	WEB	n/a	WEB	SPEAR	4	[0, 0, 0]	-999	PAL1	0	R1074M
683.132	0.0	317256	REC_START	n/a	4	-999	n/a	n/a	n/a	n/a	4	[0, 0, 0]	-999	PAL1	0	R1074M
683.132	1.462	317256	TEST_PROBE	n/a	4	2	WEB	n/a	WEB	SPEAR	4	[0, 0, 0]	-999	PAL1	0	R1074M
684.594	3.555	317987	REC_EVENT	1462	4	2	WEB	<>	WEB	SPEAR	4	[0, 0, 0]	-999	PAL1	0	R1074M
688.149	0.017	319765	REC_END	n/a	4	-999	n/a	n/a	n/a	n/a	4	[0, 0, 0]	-999	PAL1	0	R1074M
688.166	0.867	319773	TEST_ORIENT	n/a	3	3	PIPE	n/a	JAIL	PIPE	4	[0, 0, 0]	-999	PAL1	0	R1074M
689.033	0.0	320206	TEST_PROBE	n/a	3	3	PIPE	n/a	JAIL	PIPE	4	[0, 0, 0]	-999	PAL1	0	R1074M
689.033	2.391	320206	REC_START	n/a	3	-999	n/a	n/a	n/a	n/a	4	[0, 0, 0]	-999	PAL1	0	R1074M
691.424	2.626	321402	REC_EVENT	2391	3	3	PIPE	<>	JAIL	PIPE	4	[0, 0, 0]	-999	PAL1	0	R1074M
694.05	0.017	322715	REC_END	n/a	3	-999	n/a	n/a	n/a	n/a	4	[0, 0, 0]	-999	PAL1	0	R1074M
694.067	1.034	322723	TEST_ORIENT	n/a	2	4	ROOM	n/a	SCHOOL	ROOM	4	[0, 0, 0]	-999	PAL1	0	R1074M
695.101	0.0	323240	TEST_PROBE	n/a	2	4	ROOM	n/a	SCHOOL	ROOM	4	[0, 0, 0]	-999	PAL1	0	R1074M
695.101	1.137	323240	REC_START	n/a	2	-999	n/a	n/a	n/a	n/a	4	[0, 0, 0]	-999	PAL1	0	R1074M
696.238	3.88	323809	REC_EVENT	1137	2	4	ROOM	<>	SCHOOL	ROOM	4	[0, 0, 0]	-999	PAL1	0	R1074M
700.118	0.017	325749	REC_END	n/a	2	-999	n/a	n/a	n/a	n/a	4	[0, 0, 0]	-999	PAL1	0	R1074M
700.135	0.867	325757	TEST_ORIENT	n/a	5	5	CHIN	n/a	YARD	CHIN	4	[0, 0, 0]	-999	PAL1	0	R1074M
701.002	0.0	326191	TEST_PROBE	n/a	5	5	CHIN	n/a	YARD	CHIN	4	[0, 0, 0]	-999	PAL1	0	R1074M
701.002	0.882	326191	REC_START	n/a	5	-999	n/a	n/a	n/a	n/a	4	[0, 0, 0]	-999	PAL1	0	R1074M
701.884	4.142	326632	REC_EVENT	882	5	5	CHIN	<>	YARD	CHIN	4	[0, 0, 0]	-999	PAL1	0	R1074M
706.026	0.01	328703	REC_END	n/a	5	-999	n/a	n/a	n/a	n/a	4	[0, 0, 0]	-999	PAL1	0	R1074M
706.036	1.0	328708	TEST_ORIENT	n/a	6	6	STICK	PEN	PEN	STICK	4	[0, 0, 0]	-999	PAL1	0	R1074M
707.036	0.001	329207	TEST_PROBE	n/a	6	6	STICK	PEN	PEN	STICK	4	[0, 0, 0]	-999	PAL1	0	R1074M
707.037	1.552	329208	REC_START	n/a	6	-999	n/a	PEN	n/a	n/a	4	[0, 0, 0]	-999	PAL1	0	R1074M
708.589	3.448	329984	REC_EVENT	1552	6	6	STICK	PEN	PEN	STICK	4	[0, 0, 0]	-999	PAL1	0	R1074M
712.037	8.714	331708	REC_END	n/a	6	-999	n/a	n/a	n/a	n/a	4	[0, 0, 0]	-999	PAL1	0	R1074M
720.751	10.44	336065	ENCODING_START	n/a	0	-999	n/a	n/a	n/a	n/a	5	[0, 0, 0]	-999	PAL1	0	R1074M
731.191	0.884	341284	STUDY_ORIENT	n/a	1	1	HORSE	n/a	EGG	HORSE	5	[0, 0, 0]	-999	PAL1	0	R1074M
732.075	5.034	341726	STUDY_PAIR	n/a	1	1	HORSE	n/a	EGG	HORSE	5	[0, 0, 0]	-999	PAL1	0	R1074M
737.109	0.817	344243	STUDY_ORIENT	n/a	2	6	SEED	n/a	STRAW	SEED	5	[0, 0, 0]	-999	PAL1	0	R1074M
737.926	5.034	344652	STUDY_PAIR	n/a	2	6	SEED	n/a	STRAW	SEED	5	[0, 0, 0]	-999	PAL1	0	R1074M
742.96	0.784	347169	STUDY_ORIENT	n/a	3	3	FUR	n/a	BANK	FUR	5	[0, 0, 0]	-999	PAL1	0	R1074M
743.744	5.034	347560	STUDY_PAIR	n/a	3	3	FUR	n/a	BANK	FUR	5	[0, 0, 0]	-999	PAL1	0	R1074M
748.778	0.967	350077	STUDY_ORIENT	n/a	4	2	JUICE	n/a	BUSH	JUICE	5	[0, 0, 0]	-999	PAL1	0	R1074M
749.745	5.034	350561	STUDY_PAIR	n/a	4	2	JUICE	n/a	BUSH	JUICE	5	[0, 0, 0]	-999	PAL1	0	R1074M
754.779	0.867	353078	STUDY_ORIENT	n/a	5	5	BOOT	n/a	BOOT	BATH	5	[0, 0, 0]	-999	PAL1	0	R1074M
755.646	5.034	353511	STUDY_PAIR	n/a	5	5	BOOT	n/a	BOOT	BATH	5	[0, 0, 0]	-999	PAL1	0	R1074M
760.68	0.817	356028	STUDY_ORIENT	n/a	6	4	FOOD	CHIEF	CHIEF	FOOD	5	[0, 0, 0]	-999	PAL1	0	R1074M
761.497	4.001	356436	STUDY_PAIR	n/a	6	4	FOOD	CHIEF	CHIEF	FOOD	5	[0, 0, 0]	-999	PAL1	0	R1074M
765.498	1.0	358437	START	n/a	-999	-999	n/a	n/a	n/a	n/a	5	[-999, -999, -999]	-999	PAL1	0	R1074M
766.498	0.017	358937	MATH_START	n/a	-999	-999	n/a	n/a	n/a	n/a	5	[0, 0, 0]	-999	PAL1	0	R1074M
766.515	5.834	358945	PROB	5804	-999	-999	n/a	n/a	n/a	n/a	5	[5, 2, 1]	8	PAL1	0	R1074M
772.349	3.334	361862	PROB	3314	-999	-999	n/a	n/a	n/a	n/a	5	[3, 4, 1]	8	PAL1	0	R1074M
775.683	9.752	363529	PROB	9725	-999	-999	n/a	n/a	n/a	n/a	5	[3, 8, 7]	18	PAL1	0	R1074M
785.435	11.572	368405	PROB	11572	-999	-999	n/a	n/a	n/a	n/a	5	[6, 3, 5]	14	PAL1	0	R1074M
797.007	0.014	374191	STOP	n/a	-999	-999	n/a	n/a	n/a	n/a	5	[-999, -999, -999]	-999	PAL1	0	R1074M
797.021	0.0	374198	MATH_END	n/a	-999	-999	n/a	n/a	n/a	n/a	5	[0, 0, 0]	-999	PAL1	0	R1074M
797.021	0.017	374198	TEST_START	n/a	-999	-999	n/a	n/a	n/a	n/a	5	[0, 0, 0]	-999	PAL1	0	R1074M
797.038	0.883	374206	TEST_ORIENT	n/a	1	1	HORSE	n/a	EGG	HORSE	5	[0, 0, 0]	-999	PAL1	0	R1074M
797.921	0.0	374647	REC_START	n/a	1	-999	n/a	n/a	n/a	n/a	5	[0, 0, 0]	-999	PAL1	0	R1074M
797.921	3.97	374647	TEST_PROBE	n/a	1	1	HORSE	n/a	EGG	HORSE	5	[0, 0, 0]	-999	PAL1	0	R1074M
801.891	1.048	376632	REC_EVENT	3970	1	1	HORSE	<>	EGG	HORSE	5	[0, 0, 0]	-999	PAL1	0	R1074M
802.939	0.016	377156	REC_END	n/a	1	-999	n/a	n/a	n/a	n/a	5	[0, 0, 0]	-999	PAL1	0	R1074M
802.955	0.934	377164	TEST_ORIENT	n/a	4	2	JUICE	n/a	BUSH	JUICE	5	[0, 0, 0]	-999	PAL1	0	R1074M
803.889	0.001	377631	TEST_PROBE	n/a	4	2	JUICE	n/a	BUSH	JUICE	5	[0, 0, 0]	-999	PAL1	0	R1074M
803.89	3.436	377632	REC_START	n/a	4	-999	n/a	n/a	n/a	n/a	5	[0, 0, 0]	-999	PAL1	0	R1074M
807.326	1.58	379350	REC_EVENT	3436	4	2	JUICE	<>	BUSH	JUICE	5	[0, 0, 0]	-999	PAL1	0	R1074M
808.906	0.017	380140	REC_END	n/a	4	-999	n/a	n/a	n/a	n/a	5	[0, 0, 0]	-999	PAL1	0	R1074M
808.923	0.867	380148	TEST_ORIENT	n/a	3	3	FUR	n/a	BANK	FUR	5	[0, 0, 0]	-999	PAL1	0	R1074M
809.79	0.001	380582	TEST_PROBE	n/a	3	3	FUR	n/a	BANK	FUR	5	[0, 0, 0]	-999	PAL1	0	R1074M
809.791	4.551	380582	REC_START	n/a	3	-999	n/a	n/a	n/a	n/a	5	[0, 0, 0]	-999	PAL1	0	R1074M
814.342	0.466	382858	REC_EVENT	4551	3	3	FUR	<>	BANK	FUR	5	[0, 0, 0]	-999	PAL1	0	R1074M
814.808	0.016	383091	REC_END	n/a	3	-999	n/a	n/a	n/a	n/a	5	[0, 0, 0]	-999	PAL1	0	R1074M
814.824	0.917	383099	TEST_ORIENT	n/a	6	4	FOOD	CHIEF	CHIEF	FOOD	5	[0, 0, 0]	-999	PAL1	0	R1074M
815.741	0.001	383557	TEST_PROBE	n/a	6	4	FOOD	CHIEF	CHIEF	FOOD	5	[0, 0, 0]	-999	PAL1	0	R1074M
815.742	2.354	383558	REC_START	n/a	6	-999	n/a	CHIEF	n/a	n/a	5	[0, 0, 0]	-999	PAL1	0	R1074M
818.096	2.654	384734	REC_EVENT	2354	6	4	FOOD	CHIEF	CHIEF	FOOD	5	[0, 0, 0]	-999	PAL1	0	R1074M
820.75	0.009	386061	REC_END	n/a	6	-999	n/a	n/a	n/a	n/a	5	[0, 0, 0]	-999	PAL1	0	R1074M
820.759	0.983	386066	TEST_ORIENT	n/a	5	5	BOOT	n/a	BOOT	BATH	5	[0, 0, 0]	-999	PAL1	0	R1074M
821.742	0.001	386557	TEST_PROBE	n/a	5	5	BOOT	n/a	BOOT	BATH	5	[0, 0, 0]	-999	PAL1	0	R1074M
821.743	4.829	386558	REC_START	n/a	5	-999	n/a	n/a	n/a	n/a	5	[0, 0, 0]	-999	PAL1	0	R1074M
826.572	0.171	388972	REC_EVENT	4829	5	5	BOOT	<>	BOOT	BATH	5	[0, 0, 0]	-999	PAL1	0	R1074M
826.743	0.017	389058	REC_END	n/a	5	-999	n/a	n/a	n/a	n/a	5	[0, 0, 0]	-999	PAL1	0	R1074M
826.76	0.85	389066	TEST_ORIENT	n/a	2	6	SEED	n/a	STRAW	SEED	5	[0, 0, 0]	-999	PAL1	0	R1074M
827.61	0.0	389491	TEST_PROBE	n/a	2	6	SEED	n/a	STRAW	SEED	5	[0, 0, 0]	-999	PAL1	0	R1074M
827.61	0.743	389491	REC_START	n/a	2	-999	n/a	n/a	n/a	n/a	5	[0, 0, 0]	-999	PAL1	0	R1074M
828.353	4.275	389863	REC_EVENT	743	2	6	SEED	<>	STRAW	SEED	5	[0, 0, 0]	-999	PAL1	0	R1074M
832.628	10.603	392000	REC_END	n/a	2	-999	n/a	n/a	n/a	n/a	5	[0, 0, 0]	-999	PAL1	0	R1074M
843.231	10.451	397301	ENCODING_START	n/a	0	-999	n/a	n/a	n/a	n/a	6	[0, 0, 0]	-999	PAL1	0	R1074M
853.682	1.034	402526	STUDY_ORIENT	n/a	1	1	BARN	n/a	SLUSH	BARN	6	[0, 0, 0]	-999	PAL1	0	R1074M
854.716	5.034	403043	STUDY_PAIR	n/a	1	1	BARN	n/a	SLUSH	BARN	6	[0, 0, 0]	-999	PAL1	0	R1074M
859.75	0.984	405560	STUDY_ORIENT	n/a	2	6	CLOCK	n/a	CLOCK	TAIL	6	[0, 0, 0]	-999	PAL1	0	R1074M
860.734	5.034	406052	STUDY_PAIR	n/a	2	6	CLOCK	n/a	CLOCK	TAIL	6	[0, 0, 0]	-999	PAL1	0	R1074M
865.768	0.883	408569	STUDY_ORIENT	n/a	3	3	TRAIN	n/a	TRAIN	SMOKE	6	[0, 0, 0]	-999	PAL1	0	R1074M
866.651	5.018	409011	STUDY_PAIR	n/a	3	3	TRAIN	n/a	TRAIN	SMOKE	6	[0, 0, 0]	-999	PAL1	0	R1074M
871.669	0.884	411519	STUDY_ORIENT	n/a	4	2	PEA	n/a	PEA	LAND	6	[0, 0, 0]	-999	PAL1	0	R1074M
872.553	5.034	411961	STUDY_PAIR	n/a	4	2	PEA	n/a	PEA	LAND	6	[0, 0, 0]	-999	PAL1	0	R1074M
877.587	1.0	414478	STUDY_ORIENT	n/a	5	5	STORE	STORM	STORM	STORE	6	[0, 0, 0]	-999	PAL1	0	R1074M
878.587	5.018	414978	STUDY_PAIR	n/a	5	5	STORE	STORM	STORM	STORE	6	[0, 0, 0]	-999	PAL1	0	R1074M
883.605	0.933	417487	STUDY_ORIENT	n/a	6	4	FUDGE	n/a	STRING	FUDGE	6	[0, 0, 0]	-999	PAL1	0	R1074M
884.538	4.001	417954	STUDY_PAIR	n/a	6	4	FUDGE	n/a	STRING	FUDGE	6	[0, 0, 0]	-999	PAL1	0	R1074M
888.539	1.0	419954	START	n/a	-999	-999	n/a	n/a	n/a	n/a	6	[-999, -999, -999]	-999	PAL1	0	R1074M
889.539	0.017	420454	MATH_START	n/a	-999	-999	n/a	n/a	n/a	n/a	6	[0, 0, 0]	-999	PAL1	0	R1074M
889.556	12.219	420462	PROB	12187	-999	-999	n/a	n/a	n/a	n/a	6	[5, 7, 8]	19	PAL1	0	R1074M
901.775	16.072	426572	PROB	16072	-999	-999	n/a	n/a	n/a	n/a	6	[6, 2, 8]	16	PAL1	0	R1074M
917.847	0.015	434607	STOP	n/a	-999	-999	n/a	n/a	n/a	n/a	6	[-999, -999, -999]	-999	PAL1	0	R1074M
917.862	0.0	434615	TEST_START	n/a	-999	-999	n/a	n/a	n/a	n/a	6	[0, 0, 0]	-999	PAL1	0	R1074M
917.862	0.016	434615	MATH_END	n/a	-999	-999	n/a	n/a	n/a	n/a	6	[0, 0, 0]	-999	PAL1	0	R1074M
917.878	0.834	434623	TEST_ORIENT	n/a	1	1	BARN	n/a	SLUSH	BARN	6	[0, 0, 0]	-999	PAL1	0	R1074M
918.712	0.0	435040	TEST_PROBE	n/a	1	1	BARN	n/a	SLUSH	BARN	6	[0, 0, 0]	-999	PAL1	0	R1074M
918.712	3.111	435040	REC_START	n/a	1	-999	n/a	n/a	n/a	n/a	6	[0, 0, 0]	-999	PAL1	0	R1074M
921.823	1.906	436595	REC_EVENT	3111	1	1	BARN	<>	SLUSH	BARN	6	[0, 0, 0]	-999	PAL1	0	R1074M
923.729	0.017	437548	REC_END	n/a	1	-999	n/a	n/a	n/a	n/a	6	[0, 0, 0]	-999	PAL1	0	R1074M
923.746	1.034	437557	TEST_ORIENT	n/a	4	2	PEA	n/a	PEA	LAND	6	[0, 0, 0]	-999	PAL1	0	R1074M
924.78	0.0	438074	TEST_PROBE	n/a	4	2	PEA	n/a	PEA	LAND	6	[0, 0, 0]	-999	PAL1	0	R1074M
924.78	1.555	438074	REC_START	n/a	4	-999	n/a	n/a	n/a	n/a	6	[0, 0, 0]	-999	PAL1	0	R1074M
926.335	3.462	438851	REC_EVENT	1555	4	2	PEA	<>	PEA	LAND	6	[0, 0, 0]	-999	PAL1	0	R1074M
929.797	0.017	440582	REC_END	n/a	4	-999	n/a	n/a	n/a	n/a	6	[0, 0, 0]	-999	PAL1	0	R1074M
929.814	0.85	440590	TEST_ORIENT	n/a	3	3	TRAIN	n/a	TRAIN	SMOKE	6	[0, 0, 0]	-999	PAL1	0	R1074M
930.664	0.001	441015	TEST_PROBE	n/a	3	3	TRAIN	n/a	TRAIN	SMOKE	6	[0, 0, 0]	-999	PAL1	0	R1074M
930.665	4.063	441016	REC_START	n/a	3	-999	n/a	n/a	n/a	n/a	6	[0, 0, 0]	-999	PAL1	0	R1074M
934.728	0.937	443047	REC_EVENT	4063	3	3	TRAIN	<>	TRAIN	SMOKE	6	[0, 0, 0]	-999	PAL1	0	R1074M
935.665	0.017	443516	REC_END	n/a	3	-999	n/a	n/a	n/a	n/a	6	[0, 0, 0]	-999	PAL1	0	R1074M
935.682	0.85	443524	TEST_ORIENT	n/a	6	4	FUDGE	n/a	STRING	FUDGE	6	[0, 0, 0]	-999	PAL1	0	R1074M
936.532	0.0	443949	TEST_PROBE	n/a	6	4	FUDGE	n/a	STRING	FUDGE	6	[0, 0, 0]	-999	PAL1	0	R1074M
936.532	0.626	443949	REC_START	n/a	6	-999	n/a	n/a	n/a	n/a	6	[0, 0, 0]	-999	PAL1	0	R1074M
937.158	4.391	444262	REC_EVENT	626	6	4	FUDGE	<>	STRING	FUDGE	6	[0, 0, 0]	-999	PAL1	0	R1074M
941.549	0.017	446458	REC_END	n/a	6	-999	n/a	n/a	n/a	n/a	6	[0, 0, 0]	-999	PAL1	0	R1074M
941.566	0.934	446466	TEST_ORIENT	n/a	5	5	STORE	STORM	STORM	STORE	6	[0, 0, 0]	-999	PAL1	0	R1074M
942.5	0.0	446933	TEST_PROBE	n/a	5	5	STORE	STORM	STORM	STORE	6	[0, 0, 0]	-999	PAL1	0	R1074M
942.5	0.837	446933	REC_START	n/a	5	-999	n/a	STORM	n/a	n/a	6	[0, 0, 0]	-999	PAL1	0	R1074M
943.337	4.18	447351	REC_EVENT	837	5	5	STORE	STORM	STORM	STORE	6	[0, 0, 0]	-999	PAL1	0	R1074M
947.517	0.017	449441	REC_END	n/a	5	-999	n/a	n/a	n/a	n/a	6	[0, 0, 0]	-999	PAL1	0	R1074M
947.534	0.884	449450	TEST_ORIENT	n/a	2	6	CLOCK	n/a	CLOCK	TAIL	6	[0, 0, 0]	-999	PAL1	0	R1074M
948.418	0.0	449892	TEST_PROBE	n/a	2	6	CLOCK	n/a	CLOCK	TAIL	6	[0, 0, 0]	-999	PAL1	0	R1074M
948.418	1.439	449892	REC_START	n/a	2	-999	n/a	n/a	n/a	n/a	6	[0, 0, 0]	-999	PAL1	0	R1074M
949.857	3.578	450611	REC_EVENT	1439	2	6	CLOCK	<>	CLOCK	TAIL	6	[0, 0, 0]	-999	PAL1	0	R1074M
953.435	4.364	452400	REC_END	n/a	2	-999	n/a	n/a	n/a	n/a	6	[0, 0, 0]	-999	PAL1	0	R1074M
957.799	10.439	454582	ENCODING_START	n/a	0	-999	n/a	n/a	n/a	n/a	7	[0, 0, 0]	-999	PAL1	0	R1074M
968.238	0.9	459801	STUDY_ORIENT	n/a	1	1	ROOT	n/a	ROOT	PIT	7	[0, 0, 0]	-999	PAL1	0	R1074M
969.138	5.018	460251	STUDY_PAIR	n/a	1	1	ROOT	n/a	ROOT	PIT	7	[0, 0, 0]	-999	PAL1	0	R1074M
974.156	0.85	462760	STUDY_ORIENT	n/a	2	4	MULE	n/a	ROPE	MULE	7	[0, 0, 0]	-999	PAL1	0	R1074M
975.006	5.018	463185	STUDY_PAIR	n/a	2	4	MULE	n/a	ROPE	MULE	7	[0, 0, 0]	-999	PAL1	0	R1074M
980.024	0.817	465694	STUDY_ORIENT	n/a	3	5	CROW	n/a	SPRING	CROW	7	[0, 0, 0]	-999	PAL1	0	R1074M
980.841	5.034	466102	STUDY_PAIR	n/a	3	5	CROW	n/a	SPRING	CROW	7	[0, 0, 0]	-999	PAL1	0	R1074M
985.875	0.967	468619	STUDY_ORIENT	n/a	4	6	APE	n/a	APE	CLIFF	7	[0, 0, 0]	-999	PAL1	0	R1074M
986.842	5.034	469103	STUDY_PAIR	n/a	4	6	APE	n/a	APE	CLIFF	7	[0, 0, 0]	-999	PAL1	0	R1074M
991.876	0.851	471620	STUDY_ORIENT	n/a	5	3	BOARD	n/a	BOARD	STEAK	7	[0, 0, 0]	-999	PAL1	0	R1074M
992.727	5.034	472045	STUDY_PAIR	n/a	5	3	BOARD	n/a	BOARD	STEAK	7	[0, 0, 0]	-999	PAL1	0	R1074M
997.761	0.883	474562	STUDY_ORIENT	n/a	6	2	GRASS	n/a	WORM	GRASS	7	[0, 0, 0]	-999	PAL1	0	R1074M
998.644	4.002	475003	STUDY_PAIR	n/a	6	2	GRASS	n/a	WORM	GRASS	7	[0, 0, 0]	-999	PAL1	0	R1074M
1002.646	0.999	477004	START	n/a	-999	-999	n/a	n/a	n/a	n/a	7	[-999, -999, -999]	-999	PAL1	0	R1074M
1003.645	0.017	477504	MATH_START	n/a	-999	-999	n/a	n/a	n/a	n/a	7	[0, 0, 0]	-999	PAL1	0	R1074M
1003.662	7.585	477512	PROB	7561	-999	-999	n/a	n/a	n/a	n/a	7	[2, 5, 6]	13	PAL1	0	R1074M
1011.247	7.718	481305	PROB	7696	-999	-999	n/a	n/a	n/a	n/a	7	[8, 9, 1]	18	PAL1	0	R1074M
1018.965	6.443	485163	PROB	6443	-999	-999	n/a	n/a	n/a	n/a	7	[6, 3, 4]	13	PAL1	0	R1074M
1025.408	0.008	488385	STOP	n/a	-999	-999	n/a	n/a	n/a	n/a	7	[-999, -999, -999]	-999	PAL1	0	R1074M
1025.416	0.0	488389	MATH_END	n/a	-999	-999	n/a	n/a	n/a	n/a	7	[0, 0, 0]	-999	PAL1	0	R1074M
1025.416	0.017	488389	TEST_START	n/a	-999	-999	n/a	n/a	n/a	n/a	7	[0, 0, 0]	-999	PAL1	0	R1074M
1025.433	0.85	488397	TEST_ORIENT	n/a	1	1	ROOT	n/a	ROOT	PIT	7	[0, 0, 0]	-999	PAL1	0	R1074M
1026.283	0.001	488822	TEST_PROBE	n/a	1	1	ROOT	n/a	ROOT	PIT	7	[0, 0, 0]	-999	PAL1	0	R1074M
1026.284	1.021	488823	REC_START	n/a	1	-999	n/a	n/a	n/a	n/a	7	[0, 0, 0]	-999	PAL1	0	R1074M
1027.305	3.987	489333	REC_EVENT	1021	1	1	ROOT	<>	ROOT	PIT	7	[0, 0, 0]	-999	PAL1	0	R1074M
1031.292	0.009	491327	REC_END	n/a	1	-999	n/a	n/a	n/a	n/a	7	[0, 0, 0]	-999	PAL1	0	R1074M
1031.301	0.883	491331	TEST_ORIENT	n/a	6	2	GRASS	n/a	WORM	GRASS	7	[0, 0, 0]	-999	PAL1	0	R1074M
1032.184	0.001	491773	TEST_PROBE	n/a	6	2	GRASS	n/a	WORM	GRASS	7	[0, 0, 0]	-999	PAL1	0	R1074M
1032.185	4.809	491773	REC_START	n/a	6	-999	n/a	n/a	n/a	n/a	7	[0, 0, 0]	-999	PAL1	0	R1074M
1036.994	0.199	494177	REC_EVENT	4809	6	2	GRASS	<>	WORM	GRASS	7	[0, 0, 0]	-999	PAL1	0	R1074M
1037.193	0.009	494277	REC_END	n/a	6	-999	n/a	n/a	n/a	n/a	7	[0, 0, 0]	-999	PAL1	0	R1074M
1037.202	0.85	494281	TEST_ORIENT	n/a	5	3	BOARD	n/a	BOARD	STEAK	7	[0, 0, 0]	-999	PAL1	0	R1074M
1038.052	0.001	494706	TEST_PROBE	n/a	5	3	BOARD	n/a	BOARD	STEAK	7	[0, 0, 0]	-999	PAL1	0	R1074M
1038.053	4.179	494707	REC_START	n/a	5	-999	n/a	n/a	n/a	n/a	7	[0, 0, 0]	-999	PAL1	0	R1074M
1042.232	0.829	496796	REC_EVENT	4179	5	3	BOARD	<>	BOARD	STEAK	7	[0, 0, 0]	-999	PAL1	0	R1074M
1043.061	0.009	497211	REC_END	n/a	5	-999	n/a	n/a	n/a	n/a	7	[0, 0, 0]	-999	PAL1	0	R1074M
1043.07	0.9	497215	TEST_ORIENT	n/a	2	4	MULE	n/a	ROPE	MULE	7	[0, 0, 0]	-999	PAL1	0	R1074M
1043.97	0.001	497665	TEST_PROBE	n/a	2	4	MULE	n/a	ROPE	MULE	7	[0, 0, 0]	-999	PAL1	0	R1074M
1043.971	3.39	497666	REC_START	n/a	2	-999	n/a	n/a	n/a	n/a	7	[0, 0, 0]	-999	PAL1	0	R1074M
1047.361	1.635	499361	REC_EVENT	3390	2	4	MULE	<>	ROPE	MULE	7	[0, 0, 0]	-999	PAL1	0	R1074M
1048.996	0.008	500178	REC_END	n/a	2	-999	n/a	n/a	n/a	n/a	7	[0, 0, 0]	-999	PAL1	0	R1074M
1049.004	0.817	500182	TEST_ORIENT	n/a	3	5	CROW	n/a	SPRING	CROW	7	[0, 0, 0]	-999	PAL1	0	R1074M
1049.821	0.001	500591	TEST_PROBE	n/a	3	5	CROW	n/a	SPRING	CROW	7	[0, 0, 0]	-999	PAL1	0	R1074M
1049.822	2.345	500591	REC_START	n/a	3	-999	n/a	n/a	n/a	n/a	7	[0, 0, 0]	-999	PAL1	0	R1074M
1052.167	2.663	501763	REC_EVENT	2345	3	5	CROW	<>	SPRING	CROW	7	[0, 0, 0]	-999	PAL1	0	R1074M
1054.83	0.009	503095	REC_END	n/a	3	-999	n/a	n/a	n/a	n/a	7	[0, 0, 0]	-999	PAL1	0	R1074M
1054.839	0.883	503099	TEST_ORIENT	n/a	4	6	APE	n/a	APE	CLIFF	7	[0, 0, 0]	-999	PAL1	0	R1074M
1055.722	0.001	503541	TEST_PROBE	n/a	4	6	APE	n/a	APE	CLIFF	7	[0, 0, 0]	-999	PAL1	0	R1074M
1055.723	0.952	503541	REC_START	n/a	4	-999	n/a	n/a	n/a	n/a	7	[0, 0, 0]	-999	PAL1	0	R1074M
1056.675	4.048	504017	REC_EVENT	952	4	6	APE	<>	APE	CLIFF	7	[0, 0, 0]	-999	PAL1	0	R1074M
1060.723	5.044	506041	REC_END	n/a	4	-999	n/a	n/a	n/a	n/a	7	[0, 0, 0]	-999	PAL1	0	R1074M
1065.767	10.443	508563	ENCODING_START	n/a	0	-999	n/a	n/a	n/a	n/a	8	[0, 0, 0]	-999	PAL1	0	R1074M
1076.21	0.967	513784	STUDY_ORIENT	n/a	1	5	SLEEVE	n/a	DUCK	SLEEVE	8	[0, 0, 0]	-999	PAL1	0	R1074M
1077.177	5.034	514268	STUDY_PAIR	n/a	1	5	SLEEVE	n/a	DUCK	SLEEVE	8	[0, 0, 0]	-999	PAL1	0	R1074M
1082.211	0.917	516785	STUDY_ORIENT	n/a	2	6	CAGE	n/a	CAGE	CLAY	8	[0, 0, 0]	-999	PAL1	0	R1074M
1083.128	5.034	517243	STUDY_PAIR	n/a	2	6	CAGE	n/a	CAGE	CLAY	8	[0, 0, 0]	-999	PAL1	0	R1074M
1088.162	0.9	519760	STUDY_ORIENT	n/a	3	3	BEE	n/a	PRINCE	BEE	8	[0, 0, 0]	-999	PAL1	0	R1074M
1089.062	5.018	520210	STUDY_PAIR	n/a	3	3	BEE	n/a	PRINCE	BEE	8	[0, 0, 0]	-999	PAL1	0	R1074M
1094.08	0.784	522719	STUDY_ORIENT	n/a	4	2	BOX	n/a	FISH	BOX	8	[0, 0, 0]	-999	PAL1	0	R1074M
1094.864	5.034	523111	STUDY_PAIR	n/a	4	2	BOX	n/a	FISH	BOX	8	[0, 0, 0]	-999	PAL1	0	R1074M
1099.898	0.817	525628	STUDY_ORIENT	n/a	5	1	FLAME	n/a	MAZE	FLAME	8	[0, 0, 0]	-999	PAL1	0	R1074M
1100.715	5.034	526036	STUDY_PAIR	n/a	5	1	FLAME	n/a	MAZE	FLAME	8	[0, 0, 0]	-999	PAL1	0	R1074M
1105.749	0.85	528553	STUDY_ORIENT	n/a	6	4	SPARK	n/a	SPARK	SOAP	8	[0, 0, 0]	-999	PAL1	0	R1074M
1106.599	4.001	528978	STUDY_PAIR	n/a	6	4	SPARK	n/a	SPARK	SOAP	8	[0, 0, 0]	-999	PAL1	0	R1074M
1110.6	1.0	530978	START	n/a	-999	-999	n/a	n/a	n/a	n/a	8	[-999, -999, -999]	-999	PAL1	0	R1074M
1111.6	0.017	531478	MATH_START	n/a	-999	-999	n/a	n/a	n/a	n/a	8	[0, 0, 0]	-999	PAL1	0	R1074M
1111.617	14.787	531487	PROB	14766	-999	-999	n/a	n/a	n/a	n/a	8	[4, 6, 9]	21	PAL1	0	R1074M
1126.404	9.267	538880	PROB	9267	-999	-999	n/a	n/a	n/a	n/a	8	[6, 3, 1]	10	PAL1	0	R1074M
1135.671	0.017	543513	STOP	n/a	-999	-999	n/a	n/a	n/a	n/a	8	[-999, -999, -999]	-999	PAL1	0	R1074M
1135.688	0.0	543522	MATH_END	n/a	-999	-999	n/a	n/a	n/a	n/a	8	[0, 0, 0]	-999	PAL1	0	R1074M
1135.688	0.017	543522	TEST_START	n/a	-999	-999	n/a	n/a	n/a	n/a	8	[0, 0, 0]	-999	PAL1	0	R1074M
1135.705	0.95	543530	TEST_ORIENT	n/a	5	1	FLAME	n/a	MAZE	FLAME	8	[0, 0, 0]	-999	PAL1	0	R1074M
1136.655	0.0	544005	REC_START	n/a	5	-999	n/a	n/a	n/a	n/a	8	[0, 0, 0]	-999	PAL1	0	R1074M
1136.655	4.876	544005	TEST_PROBE	n/a	5	1	FLAME	n/a	MAZE	FLAME	8	[0, 0, 0]	-999	PAL1	0	R1074M
1141.531	0.142	546443	REC_EVENT	4876	5	1	FLAME	<>	MAZE	FLAME	8	[0, 0, 0]	-999	PAL1	0	R1074M
1141.673	0.016	546514	REC_END	n/a	5	-999	n/a	n/a	n/a	n/a	8	[0, 0, 0]	-999	PAL1	0	R1074M
1141.689	0.917	546522	TEST_ORIENT	n/a	4	2	BOX	n/a	FISH	BOX	8	[0, 0, 0]	-999	PAL1	0	R1074M
1142.606	0.001	546981	TEST_PROBE	n/a	4	2	BOX	n/a	FISH	BOX	8	[0, 0, 0]	-999	PAL1	0	R1074M
1142.607	4.342	546981	REC_START	n/a	4	-999	n/a	n/a	n/a	n/a	8	[0, 0, 0]	-999	PAL1	0	R1074M
1146.949	0.665	549152	REC_EVENT	4342	4	2	BOX	<>	FISH	BOX	8	[0, 0, 0]	-999	PAL1	0	R1074M
1147.614	0.01	549484	REC_END	n/a	4	-999	n/a	n/a	n/a	n/a	8	[0, 0, 0]	-999	PAL1	0	R1074M
1147.624	1.0	549489	TEST_ORIENT	n/a	3	3	BEE	n/a	PRINCE	BEE	8	[0, 0, 0]	-999	PAL1	0	R1074M
1148.624	0.001	549989	TEST_PROBE	n/a	3	3	BEE	n/a	PRINCE	BEE	8	[0, 0, 0]	-999	PAL1	0	R1074M
1148.625	4.504	549990	REC_START	n/a	3	-999	n/a	n/a	n/a	n/a	8	[0, 0, 0]	-999	PAL1	0	R1074M
1153.129	0.504	552242	REC_EVENT	4504	3	3	BEE	<>	PRINCE	BEE	8	[0, 0, 0]	-999	PAL1	0	R1074M
1153.633	0.009	552494	REC_END	n/a	3	-999	n/a	n/a	n/a	n/a	8	[0, 0, 0]	-999	PAL1	0	R1074M
1153.642	0.883	552498	TEST_ORIENT	n/a	6	4	SPARK	n/a	SPARK	SOAP	8	[0, 0, 0]	-999	PAL1	0	R1074M
1154.525	0.001	552940	TEST_PROBE	n/a	6	4	SPARK	n/a	SPARK	SOAP	8	[0, 0, 0]	-999	PAL1	0	R1074M
1154.526	2.832	552940	REC_START	n/a	6	-999	n/a	n/a	n/a	n/a	8	[0, 0, 0]	-999	PAL1	0	R1074M
1157.358	2.175	554356	REC_EVENT	2832	6	4	SPARK	<>	SPARK	SOAP	8	[0, 0, 0]	-999	PAL1	0	R1074M
1159.533	0.01	555444	REC_END	n/a	6	-999	n/a	n/a	n/a	n/a	8	[0, 0, 0]	-999	PAL1	0	R1074M
1159.543	0.934	555449	TEST_ORIENT	n/a	1	5	SLEEVE	n/a	DUCK	SLEEVE	8	[0, 0, 0]	-999	PAL1	0	R1074M
1160.477	0.0	555916	TEST_PROBE	n/a	1	5	SLEEVE	n/a	DUCK	SLEEVE	8	[0, 0, 0]	-999	PAL1	0	R1074M
1160.477	2.972	555916	REC_START	n/a	1	-999	n/a	n/a	n/a	n/a	8	[0, 0, 0]	-999	PAL1	0	R1074M
1163.449	2.045	557401	REC_EVENT	2972	1	5	SLEEVE	<>	DUCK	SLEEVE	8	[0, 0, 0]	-999	PAL1	0	R1074M
1165.494	0.017	558424	REC_END	n/a	1	-999	n/a	n/a	n/a	n/a	8	[0, 0, 0]	-999	PAL1	0	R1074M
1165.511	0.983	558432	TEST_ORIENT	n/a	2	6	CAGE	n/a	CAGE	CLAY	8	[0, 0, 0]	-999	PAL1	0	R1074M
1166.494	0.001	558924	TEST_PROBE	n/a	2	6	CAGE	n/a	CAGE	CLAY	8	[0, 0, 0]	-999	PAL1	0	R1074M
1166.495	4.086	558924	REC_START	n/a	2	-999	n/a	n/a	n/a	n/a	8	[0, 0, 0]	-999	PAL1	0	R1074M
1170.581	0.922	560967	REC_EVENT	4086	2	6	CAGE	<>	CAGE	CLAY	8	[0, 0, 0]	-999	PAL1	0	R1074M
1171.503	8.208	561428	REC_END	n/a	2	-999	n/a	n/a	n/a	n/a	8	[0, 0, 0]	-999	PAL1	0	R1074M
1179.711	10.438	565532	ENCODING_START	n/a	0	-999	n/a	n/a	n/a	n/a	9	[0, 0, 0]	-999	PAL1	0	R1074M
1190.149	1.0	570751	STUDY_ORIENT	n/a	1	1	SNOW	n/a	JUDGE	SNOW	9	[0, 0, 0]	-999	PAL1	0	R1074M
1191.149	5.018	571251	STUDY_PAIR	n/a	1	1	SNOW	n/a	JUDGE	SNOW	9	[0, 0, 0]	-999	PAL1	0	R1074M
1196.167	0.817	573760	STUDY_ORIENT	n/a	2	4	CORN	n/a	CORN	PEACH	9	[0, 0, 0]	-999	PAL1	0	R1074M
1196.984	5.034	574168	STUDY_PAIR	n/a	2	4	CORN	n/a	CORN	PEACH	9	[0, 0, 0]	-999	PAL1	0	R1074M
1202.018	0.784	576685	STUDY_ORIENT	n/a	3	3	BAND	n/a	BAND	DOCK	9	[0, 0, 0]	-999	PAL1	0	R1074M
1202.802	5.034	577077	STUDY_PAIR	n/a	3	3	BAND	n/a	BAND	DOCK	9	[0, 0, 0]	-999	PAL1	0	R1074M
1207.836	0.95	579594	STUDY_ORIENT	n/a	4	6	BAT	n/a	CASH	BAT	9	[0, 0, 0]	-999	PAL1	0	R1074M
1208.786	5.018	580069	STUDY_PAIR	n/a	4	6	BAT	n/a	CASH	BAT	9	[0, 0, 0]	-999	PAL1	0	R1074M
1213.804	0.833	582578	STUDY_ORIENT	n/a	5	5	CAR	n/a	CAR	SKUNK	9	[0, 0, 0]	-999	PAL1	0	R1074M
1214.637	5.018	582994	STUDY_PAIR	n/a	5	5	CAR	n/a	CAR	SKUNK	9	[0, 0, 0]	-999	PAL1	0	R1074M
1219.655	1.0	585503	STUDY_ORIENT	n/a	6	2	INK	n/a	INK	SLIME	9	[0, 0, 0]	-999	PAL1	0	R1074M
1220.655	4.001	586003	STUDY_PAIR	n/a	6	2	INK	n/a	INK	SLIME	9	[0, 0, 0]	-999	PAL1	0	R1074M
1224.656	1.0	588003	START	n/a	-999	-999	n/a	n/a	n/a	n/a	9	[-999, -999, -999]	-999	PAL1	0	R1074M
1225.656	0.017	588503	MATH_START	n/a	-999	-999	n/a	n/a	n/a	n/a	9	[0, 0, 0]	-999	PAL1	0	R1074M
1225.673	6.785	588512	PROB	6758	-999	-999	n/a	n/a	n/a	n/a	9	[4, 4, 5]	13	PAL1	0	R1074M
1232.458	6.868	591904	PROB	6837	-999	-999	n/a	n/a	n/a	n/a	9	[9, 5, 2]	16	PAL1	0	R1074M
1239.326	8.633	595338	PROB	8633	-999	-999	n/a	n/a	n/a	n/a	9	[4, 7, 4]	15	PAL1	0	R1074M
1247.959	0.018	599654	STOP	n/a	-999	-999	n/a	n/a	n/a	n/a	9	[-999, -999, -999]	-999	PAL1	0	R1074M
1247.977	0.0	599663	MATH_END	n/a	-999	-999	n/a	n/a	n/a	n/a	9	[0, 0, 0]	-999	PAL1	0	R1074M
1247.977	0.017	599663	TEST_START	n/a	-999	-999	n/a	n/a	n/a	n/a	9	[0, 0, 0]	-999	PAL1	0	R1074M
1247.994	0.933	599672	TEST_ORIENT	n/a	1	1	SNOW	n/a	JUDGE	SNOW	9	[0, 0, 0]	-999	PAL1	0	R1074M
1248.927	0.001	600138	TEST_PROBE	n/a	1	1	SNOW	n/a	JUDGE	SNOW	9	[0, 0, 0]	-999	PAL1	0	R1074M
1248.928	3.947	600139	REC_START	n/a	1	-999	n/a	n/a	n/a	n/a	9	[0, 0, 0]	-999	PAL1	0	R1074M
1252.875	1.061	602112	REC_EVENT	3947	1	1	SNOW	<>	JUDGE	SNOW	9	[0, 0, 0]	-999	PAL1	0	R1074M
1253.936	0.009	602642	REC_END	n/a	1	-999	n/a	n/a	n/a	n/a	9	[0, 0, 0]	-999	PAL1	0	R1074M
1253.945	0.8	602647	TEST_ORIENT	n/a	6	2	INK	n/a	INK	SLIME	9	[0, 0, 0]	-999	PAL1	0	R1074M
1254.745	0.001	603047	TEST_PROBE	n/a	6	2	INK	n/a	INK	SLIME	9	[0, 0, 0]	-999	PAL1	0	R1074M
1254.746	3.343	603047	REC_START	n/a	6	-999	n/a	n/a	n/a	n/a	9	[0, 0, 0]	-999	PAL1	0	R1074M
1258.089	1.657	604719	REC_EVENT	3343	6	2	INK	<>	INK	SLIME	9	[0, 0, 0]	-999	PAL1	0	R1074M
1259.746	0.017	605547	REC_END	n/a	6	-999	n/a	n/a	n/a	n/a	9	[0, 0, 0]	-999	PAL1	0	R1074M
1259.763	0.85	605556	TEST_ORIENT	n/a	3	3	BAND	n/a	BAND	DOCK	9	[0, 0, 0]	-999	PAL1	0	R1074M
1260.613	0.001	605981	TEST_PROBE	n/a	3	3	BAND	n/a	BAND	DOCK	9	[0, 0, 0]	-999	PAL1	0	R1074M
1260.614	1.323	605981	REC_START	n/a	3	-999	n/a	n/a	n/a	n/a	9	[0, 0, 0]	-999	PAL1	0	R1074M
1261.937	3.685	606643	REC_EVENT	1323	3	3	BAND	<>	BAND	DOCK	9	[0, 0, 0]	-999	PAL1	0	R1074M
1265.622	0.009	608485	REC_END	n/a	3	-999	n/a	n/a	n/a	n/a	9	[0, 0, 0]	-999	PAL1	0	R1074M
1265.631	0.817	608490	TEST_ORIENT	n/a	2	4	CORN	n/a	CORN	PEACH	9	[0, 0, 0]	-999	PAL1	0	R1074M
1266.448	0.0	608898	TEST_PROBE	n/a	2	4	CORN	n/a	CORN	PEACH	9	[0, 0, 0]	-999	PAL1	0	R1074M
1266.448	0.626	608898	REC_START	n/a	2	-999	n/a	n/a	n/a	n/a	9	[0, 0, 0]	-999	PAL1	0	R1074M
1267.074	4.391	609211	REC_EVENT	626	2	4	CORN	<>	CORN	PEACH	9	[0, 0, 0]	-999	PAL1	0	R1074M
1271.465	0.017	611406	REC_END	n/a	2	-999	n/a	n/a	n/a	n/a	9	[0, 0, 0]	-999	PAL1	0	R1074M
1271.482	0.95	611415	TEST_ORIENT	n/a	5	5	CAR	n/a	CAR	SKUNK	9	[0, 0, 0]	-999	PAL1	0	R1074M
1272.432	0.001	611890	TEST_PROBE	n/a	5	5	CAR	n/a	CAR	SKUNK	9	[0, 0, 0]	-999	PAL1	0	R1074M
1272.433	1.602	611890	REC_START	n/a	5	-999	n/a	n/a	n/a	n/a	9	[0, 0, 0]	-999	PAL1	0	R1074M
1274.035	3.406	612691	REC_EVENT	1602	5	5	CAR	<>	CAR	SKUNK	9	[0, 0, 0]	-999	PAL1	0	R1074M
1277.441	0.009	614394	REC_END	n/a	5	-999	n/a	n/a	n/a	n/a	9	[0, 0, 0]	-999	PAL1	0	R1074M
1277.45	0.951	614399	TEST_ORIENT	n/a	4	6	BAT	n/a	CASH	BAT	9	[0, 0, 0]	-999	PAL1	0	R1074M
1278.401	0.001	614874	TEST_PROBE	n/a	4	6	BAT	n/a	CASH	BAT	9	[0, 0, 0]	-999	PAL1	0	R1074M
1278.402	4.309	614875	REC_START	n/a	4	-999	n/a	n/a	n/a	n/a	9	[0, 0, 0]	-999	PAL1	0	R1074M
1282.711	0.699	617029	REC_EVENT	4309	4	6	BAT	<>	CASH	BAT	9	[0, 0, 0]	-999	PAL1	0	R1074M
1283.41	11.381	617379	REC_END	n/a	4	-999	n/a	n/a	n/a	n/a	9	[0, 0, 0]	-999	PAL1	0	R1074M
1294.791	10.448	623069	ENCODING_START	n/a	0	-999	n/a	n/a	n/a	n/a	10	[0, 0, 0]	-999	PAL1	0	R1074M
1305.239	0.967	628293	STUDY_ORIENT	n/a	1	1	OAR	n/a	SQUARE	OAR	10	[0, 0, 0]	-999	PAL1	0	R1074M
1306.206	5.034	628776	STUDY_PAIR	n/a	1	1	OAR	n/a	SQUARE	OAR	10	[0, 0, 0]	-999	PAL1	0	R1074M
1311.24	0.883	631293	STUDY_ORIENT	n/a	2	4	MUD	n/a	MUD	COIN	10	[0, 0, 0]	-999	PAL1	0	R1074M
1312.123	5.018	631734	STUDY_PAIR	n/a	2	4	MUD	n/a	MUD	COIN	10	[0, 0, 0]	-999	PAL1	0	R1074M
1317.141	0.85	634243	STUDY_ORIENT	n/a	3	3	SHIELD	n/a	ARK	SHIELD	10	[0, 0, 0]	-999	PAL1	0	R1074M
1317.991	5.018	634668	STUDY_PAIR	n/a	3	3	SHIELD	n/a	ARK	SHIELD	10	[0, 0, 0]	-999	PAL1	0	R1074M
1323.009	0.85	637177	STUDY_ORIENT	n/a	4	2	ELF	n/a	ELF	SOCK	10	[0, 0, 0]	-999	PAL1	0	R1074M
1323.859	5.018	637602	STUDY_PAIR	n/a	4	2	ELF	n/a	ELF	SOCK	10	[0, 0, 0]	-999	PAL1	0	R1074M
1328.877	0.833	640111	STUDY_ORIENT	n/a	5	5	DRESS	n/a	DRESS	FLEA	10	[0, 0, 0]	-999	PAL1	0	R1074M
1329.71	5.018	640527	STUDY_PAIR	n/a	5	5	DRESS	n/a	DRESS	FLEA	10	[0, 0, 0]	-999	PAL1	0	R1074M
1334.728	0.834	643036	STUDY_ORIENT	n/a	6	6	COUCH	n/a	LIP	COUCH	10	[0, 0, 0]	-999	PAL1	0	R1074M
1335.562	4.018	643453	STUDY_PAIR	n/a	6	6	COUCH	n/a	LIP	COUCH	10	[0, 0, 0]	-999	PAL1	0	R1074M
1339.58	0.999	645462	START	n/a	-999	-999	n/a	n/a	n/a	n/a	10	[-999, -999, -999]	-999	PAL1	0	R1074M
1340.579	0.017	645962	MATH_START	n/a	-999	-999	n/a	n/a	n/a	n/a	10	[0, 0, 0]	-999	PAL1	0	R1074M
1340.596	6.018	645970	PROB	5995	-999	-999	n/a	n/a	n/a	n/a	10	[2, 4, 3]	9	PAL1	0	R1074M
1346.614	7.268	648979	PROB	7233	-999	-999	n/a	n/a	n/a	n/a	10	[3, 8, 3]	14	PAL1	0	R1074M
1353.882	4.167	652613	PROB	4133	-999	-999	n/a	n/a	n/a	n/a	10	[1, 5, 4]	1	PAL1	0	R1074M
1358.049	8.398	654696	PROB	8398	-999	-999	n/a	n/a	n/a	n/a	10	[2, 3, 2]	7	PAL1	0	R1074M
1366.447	0.004	658895	STOP	n/a	-999	-999	n/a	n/a	n/a	n/a	10	[-999, -999, -999]	-999	PAL1	0	R1074M
1366.451	0.0	658897	MATH_END	n/a	-999	-999	n/a	n/a	n/a	n/a	10	[0, 0, 0]	-999	PAL1	0	R1074M
1366.451	0.017	658897	TEST_START	n/a	-999	-999	n/a	n/a	n/a	n/a	10	[0, 0, 0]	-999	PAL1	0	R1074M
1366.468	1.017	658905	TEST_ORIENT	n/a	1	1	OAR	n/a	SQUARE	OAR	10	[0, 0, 0]	-999	PAL1	0	R1074M
1367.485	0.0	659414	TEST_PROBE	n/a	1	1	OAR	n/a	SQUARE	OAR	10	[0, 0, 0]	-999	PAL1	0	R1074M
1367.485	1.091	659414	REC_START	n/a	1	-999	n/a	n/a	n/a	n/a	10	[0, 0, 0]	-999	PAL1	0	R1074M
1368.576	3.926	659959	REC_EVENT	1091	1	1	OAR	<>	SQUARE	OAR	10	[0, 0, 0]	-999	PAL1	0	R1074M
1372.502	0.017	661922	REC_END	n/a	1	-999	n/a	n/a	n/a	n/a	10	[0, 0, 0]	-999	PAL1	0	R1074M
1372.519	0.884	661931	TEST_ORIENT	n/a	4	2	ELF	n/a	ELF	SOCK	10	[0, 0, 0]	-999	PAL1	0	R1074M
1373.403	0.001	662373	TEST_PROBE	n/a	4	2	ELF	n/a	ELF	SOCK	10	[0, 0, 0]	-999	PAL1	0	R1074M
1373.404	0.789	662373	REC_START	n/a	4	-999	n/a	n/a	n/a	n/a	10	[0, 0, 0]	-999	PAL1	0	R1074M
1374.193	4.219	662768	REC_EVENT	789	4	2	ELF	<>	ELF	SOCK	10	[0, 0, 0]	-999	PAL1	0	R1074M
1378.412	0.008	664877	REC_END	n/a	4	-999	n/a	n/a	n/a	n/a	10	[0, 0, 0]	-999	PAL1	0	R1074M
1378.42	0.8	664881	TEST_ORIENT	n/a	3	3	SHIELD	n/a	ARK	SHIELD	10	[0, 0, 0]	-999	PAL1	0	R1074M
1379.22	0.001	665281	TEST_PROBE	n/a	3	3	SHIELD	n/a	ARK	SHIELD	10	[0, 0, 0]	-999	PAL1	0	R1074M
1379.221	0.835	665281	REC_START	n/a	3	-999	n/a	n/a	n/a	n/a	10	[0, 0, 0]	-999	PAL1	0	R1074M
1380.056	4.172	665699	REC_EVENT	835	3	3	SHIELD	<>	ARK	SHIELD	10	[0, 0, 0]	-999	PAL1	0	R1074M
1384.228	0.01	667785	REC_END	n/a	3	-999	n/a	n/a	n/a	n/a	10	[0, 0, 0]	-999	PAL1	0	R1074M
1384.238	0.933	667790	TEST_ORIENT	n/a	2	4	MUD	n/a	MUD	COIN	10	[0, 0, 0]	-999	PAL1	0	R1074M
1385.171	0.001	668256	TEST_PROBE	n/a	2	4	MUD	n/a	MUD	COIN	10	[0, 0, 0]	-999	PAL1	0	R1074M
1385.172	2.205	668257	REC_START	n/a	2	-999	n/a	n/a	n/a	n/a	10	[0, 0, 0]	-999	PAL1	0	R1074M
1387.377	2.802	669359	REC_EVENT	2205	2	4	MUD	<>	MUD	COIN	10	[0, 0, 0]	-999	PAL1	0	R1074M
1390.179	0.01	670760	REC_END	n/a	2	-999	n/a	n/a	n/a	n/a	10	[0, 0, 0]	-999	PAL1	0	R1074M
1390.189	1.034	670765	TEST_ORIENT	n/a	5	5	DRESS	n/a	DRESS	FLEA	10	[0, 0, 0]	-999	PAL1	0	R1074M
1391.223	0.0	671282	TEST_PROBE	n/a	5	5	DRESS	n/a	DRESS	FLEA	10	[0, 0, 0]	-999	PAL1	0	R1074M
1391.223	3.877	671282	REC_START	n/a	5	-999	n/a	n/a	n/a	n/a	10	[0, 0, 0]	-999	PAL1	0	R1074M
1395.1	1.14	673221	REC_EVENT	3877	5	5	DRESS	<>	DRESS	FLEA	10	[0, 0, 0]	-999	PAL1	0	R1074M
1396.24	0.017	673791	REC_END	n/a	5	-999	n/a	n/a	n/a	n/a	10	[0, 0, 0]	-999	PAL1	0	R1074M
1396.257	0.917	673799	TEST_ORIENT	n/a	6	6	COUCH	n/a	LIP	COUCH	10	[0, 0, 0]	-999	PAL1	0	R1074M
1397.174	0.001	674257	TEST_PROBE	n/a	6	6	COUCH	n/a	LIP	COUCH	10	[0, 0, 0]	-999	PAL1	0	R1074M
1397.175	3.088	674258	REC_START	n/a	6	-999	n/a	n/a	n/a	n/a	10	[0, 0, 0]	-999	PAL1	0	R1074M
1400.263	1.936	675802	REC_EVENT	3088	6	6	COUCH	<>	LIP	COUCH	10	[0, 0, 0]	-999	PAL1	0	R1074M
1402.199	12.728	676770	REC_END	n/a	6	-999	n/a	n/a	n/a	n/a	10	[0, 0, 0]	-999	PAL1	0	R1074M
1414.927	10.452	683133	ENCODING_START	n/a	0	-999	n/a	n/a	n/a	n/a	11	[0, 0, 0]	-999	PAL1	0	R1074M
1425.379	0.967	688359	STUDY_ORIENT	n/a	1	1	THUMB	n/a	CUBE	THUMB	11	[0, 0, 0]	-999	PAL1	0	R1074M
1426.346	5.018	688843	STUDY_PAIR	n/a	1	1	THUMB	n/a	CUBE	THUMB	11	[0, 0, 0]	-999	PAL1	0	R1074M
1431.364	0.933	691352	STUDY_ORIENT	n/a	2	4	GUARD	n/a	GUARD	SHRIMP	11	[0, 0, 0]	-999	PAL1	0	R1074M
1432.297	5.018	691818	STUDY_PAIR	n/a	2	4	GUARD	n/a	GUARD	SHRIMP	11	[0, 0, 0]	-999	PAL1	0	R1074M
1437.315	0.934	694327	STUDY_ORIENT	n/a	3	3	CHALK	n/a	BOAT	CHALK	11	[0, 0, 0]	-999	PAL1	0	R1074M
1438.249	5.034	694794	STUDY_PAIR	n/a	3	3	CHALK	n/a	BOAT	CHALK	11	[0, 0, 0]	-999	PAL1	0	R1074M
1443.283	0.933	697311	STUDY_ORIENT	n/a	4	2	PIE	n/a	PIE	BREAD	11	[0, 0, 0]	-999	PAL1	0	R1074M
1444.216	5.018	697777	STUDY_PAIR	n/a	4	2	PIE	n/a	PIE	BREAD	11	[0, 0, 0]	-999	PAL1	0	R1074M
1449.234	0.867	700286	STUDY_ORIENT	n/a	5	5	MAT	n/a	MAT	HOOF	11	[0, 0, 0]	-999	PAL1	0	R1074M
1450.101	5.034	700720	STUDY_PAIR	n/a	5	5	MAT	n/a	MAT	HOOF	11	[0, 0, 0]	-999	PAL1	0	R1074M
1455.135	0.951	703236	STUDY_ORIENT	n/a	6	6	WING	n/a	WING	WOLF	11	[0, 0, 0]	-999	PAL1	0	R1074M
1456.086	4.017	703712	STUDY_PAIR	n/a	6	6	WING	n/a	WING	WOLF	11	[0, 0, 0]	-999	PAL1	0	R1074M
1460.103	1.0	705720	START	n/a	-999	-999	n/a	n/a	n/a	n/a	11	[-999, -999, -999]	-999	PAL1	0	R1074M
1461.103	0.017	706220	MATH_START	n/a	-999	-999	n/a	n/a	n/a	n/a	11	[0, 0, 0]	-999	PAL1	0	R1074M
1461.12	8.518	706229	PROB	8487	-999	-999	n/a	n/a	n/a	n/a	11	[2, 7, 3]	12	PAL1	0	R1074M
1469.638	4.201	710487	PROB	4169	-999	-999	n/a	n/a	n/a	n/a	11	[2, 3, 4]	9	PAL1	0	R1074M
1473.839	7.8	712588	PROB	7800	-999	-999	n/a	n/a	n/a	n/a	11	[8, 8, 5]	21	PAL1	0	R1074M
1481.639	0.018	716488	STOP	n/a	-999	-999	n/a	n/a	n/a	n/a	11	[-999, -999, -999]	-999	PAL1	0	R1074M
1481.657	0.0	716497	MATH_END	n/a	-999	-999	n/a	n/a	n/a	n/a	11	[0, 0, 0]	-999	PAL1	0	R1074M
1481.657	0.017	716497	TEST_START	n/a	-999	-999	n/a	n/a	n/a	n/a	11	[0, 0, 0]	-999	PAL1	0	R1074M
1481.674	1.017	716505	TEST_ORIENT	n/a	1	1	THUMB	n/a	CUBE	THUMB	11	[0, 0, 0]	-999	PAL1	0	R1074M
1482.691	0.001	717014	TEST_PROBE	n/a	1	1	THUMB	n/a	CUBE	THUMB	11	[0, 0, 0]	-999	PAL1	0	R1074M
1482.692	2.961	717014	REC_START	n/a	1	-999	n/a	n/a	n/a	n/a	11	[0, 0, 0]	-999	PAL1	0	R1074M
1485.653	2.055	718495	REC_EVENT	2961	1	1	THUMB	<>	CUBE	THUMB	11	[0, 0, 0]	-999	PAL1	0	R1074M
1487.708	0.017	719522	REC_END	n/a	1	-999	n/a	n/a	n/a	n/a	11	[0, 0, 0]	-999	PAL1	0	R1074M
1487.725	0.934	719530	TEST_ORIENT	n/a	4	2	PIE	n/a	PIE	BREAD	11	[0, 0, 0]	-999	PAL1	0	R1074M
1488.659	0.0	719997	TEST_PROBE	n/a	4	2	PIE	n/a	PIE	BREAD	11	[0, 0, 0]	-999	PAL1	0	R1074M
1488.659	1.95	719997	REC_START	n/a	4	-999	n/a	n/a	n/a	n/a	11	[0, 0, 0]	-999	PAL1	0	R1074M
1490.609	3.067	720972	REC_EVENT	1950	4	2	PIE	<>	PIE	BREAD	11	[0, 0, 0]	-999	PAL1	0	R1074M
1493.676	0.017	722506	REC_END	n/a	4	-999	n/a	n/a	n/a	n/a	11	[0, 0, 0]	-999	PAL1	0	R1074M
1493.693	0.934	722514	TEST_ORIENT	n/a	3	3	CHALK	n/a	BOAT	CHALK	11	[0, 0, 0]	-999	PAL1	0	R1074M
1494.627	0.0	722981	TEST_PROBE	n/a	3	3	CHALK	n/a	BOAT	CHALK	11	[0, 0, 0]	-999	PAL1	0	R1074M
1494.627	0.905	722981	REC_START	n/a	3	-999	n/a	n/a	n/a	n/a	11	[0, 0, 0]	-999	PAL1	0	R1074M
1495.532	4.112	723434	REC_EVENT	905	3	3	CHALK	<>	BOAT	CHALK	11	[0, 0, 0]	-999	PAL1	0	R1074M
1499.644	0.017	725490	REC_END	n/a	3	-999	n/a	n/a	n/a	n/a	11	[0, 0, 0]	-999	PAL1	0	R1074M
1499.661	0.967	725498	TEST_ORIENT	n/a	2	4	GUARD	n/a	GUARD	SHRIMP	11	[0, 0, 0]	-999	PAL1	0	R1074M
1500.628	0.001	725982	TEST_PROBE	n/a	2	4	GUARD	n/a	GUARD	SHRIMP	11	[0, 0, 0]	-999	PAL1	0	R1074M
1500.629	1.486	725982	REC_START	n/a	2	-999	n/a	n/a	n/a	n/a	11	[0, 0, 0]	-999	PAL1	0	R1074M
1502.115	3.53	726725	REC_EVENT	1486	2	4	GUARD	<>	GUARD	SHRIMP	11	[0, 0, 0]	-999	PAL1	0	R1074M
1505.645	0.017	728490	REC_END	n/a	2	-999	n/a	n/a	n/a	n/a	11	[0, 0, 0]	-999	PAL1	0	R1074M
1505.662	0.95	728498	TEST_ORIENT	n/a	5	5	MAT	n/a	MAT	HOOF	11	[0, 0, 0]	-999	PAL1	0	R1074M
1506.612	0.001	728973	TEST_PROBE	n/a	5	5	MAT	n/a	MAT	HOOF	11	[0, 0, 0]	-999	PAL1	0	R1074M
1506.613	1.88	728974	REC_START	n/a	5	-999	n/a	n/a	n/a	n/a	11	[0, 0, 0]	-999	PAL1	0	R1074M
1508.493	3.12	729914	REC_EVENT	1880	5	5	MAT	<>	MAT	HOOF	11	[0, 0, 0]	-999	PAL1	0	R1074M
1511.613	0.017	731474	REC_END	n/a	5	-999	n/a	n/a	n/a	n/a	11	[0, 0, 0]	-999	PAL1	0	R1074M
1511.63	0.8	731482	TEST_ORIENT	n/a	6	6	WING	n/a	WING	WOLF	11	[0, 0, 0]	-999	PAL1	0	R1074M
1512.43	0.001	731882	TEST_PROBE	n/a	6	6	WING	n/a	WING	WOLF	11	[0, 0, 0]	-999	PAL1	0	R1074M
1512.431	1.834	731883	REC_START	n/a	6	-999	n/a	n/a	n/a	n/a	11	[0, 0, 0]	-999	PAL1	0	R1074M
1514.265	3.19	732800	REC_EVENT	1834	6	6	WING	<>	WING	WOLF	11	[0, 0, 0]	-999	PAL1	0	R1074M
1517.455	7.88	734395	REC_END	n/a	6	-999	n/a	n/a	n/a	n/a	11	[0, 0, 0]	-999	PAL1	0	R1074M
1525.335	10.45	738334	ENCODING_START	n/a	0	-999	n/a	n/a	n/a	n/a	12	[0, 0, 0]	-999	PAL1	0	R1074M
1535.785	0.933	743559	STUDY_ORIENT	n/a	1	5	SHEEP	LAMB	SHEEP	CLOUD	12	[0, 0, 0]	-999	PAL1	0	R1074M
1536.718	5.018	744026	STUDY_PAIR	n/a	1	5	SHEEP	LAMB	SHEEP	CLOUD	12	[0, 0, 0]	-999	PAL1	0	R1074M
1541.736	0.817	746535	STUDY_ORIENT	n/a	2	2	SPOON	n/a	TEETH	SPOON	12	[0, 0, 0]	-999	PAL1	0	R1074M
1542.553	5.034	746943	STUDY_PAIR	n/a	2	2	SPOON	n/a	TEETH	SPOON	12	[0, 0, 0]	-999	PAL1	0	R1074M
1547.587	0.967	749460	STUDY_ORIENT	n/a	3	3	GOLD	n/a	GOLD	MILK	12	[0, 0, 0]	-999	PAL1	0	R1074M
1548.554	5.034	749943	STUDY_PAIR	n/a	3	3	GOLD	n/a	GOLD	MILK	12	[0, 0, 0]	-999	PAL1	0	R1074M
1553.588	0.901	752460	STUDY_ORIENT	n/a	4	4	MOLE	n/a	HEN	MOLE	12	[0, 0, 0]	-999	PAL1	0	R1074M
1554.489	5.034	752911	STUDY_PAIR	n/a	4	4	MOLE	n/a	HEN	MOLE	12	[0, 0, 0]	-999	PAL1	0	R1074M
1559.523	0.95	755428	STUDY_ORIENT	n/a	5	1	CAPE	n/a	CAPE	ANT	12	[0, 0, 0]	-999	PAL1	0	R1074M
1560.473	5.034	755902	STUDY_PAIR	n/a	5	1	CAPE	n/a	CAPE	ANT	12	[0, 0, 0]	-999	PAL1	0	R1074M
1565.507	1.017	758419	STUDY_ORIENT	n/a	6	6	LAMB	n/a	LAMB	WHEEL	12	[0, 0, 0]	-999	PAL1	0	R1074M
1566.524	4.001	758928	STUDY_PAIR	n/a	6	6	LAMB	n/a	LAMB	WHEEL	12	[0, 0, 0]	-999	PAL1	0	R1074M
1570.525	1.0	760928	START	n/a	-999	-999	n/a	n/a	n/a	n/a	12	[-999, -999, -999]	-999	PAL1	0	R1074M
1571.525	0.017	761428	MATH_START	n/a	-999	-999	n/a	n/a	n/a	n/a	12	[0, 0, 0]	-999	PAL1	0	R1074M
1571.542	6.485	761437	PROB	6465	-999	-999	n/a	n/a	n/a	n/a	12	[9, 2, 9]	20	PAL1	0	R1074M
1578.027	11.885	764679	PROB	11852	-999	-999	n/a	n/a	n/a	n/a	12	[8, 2, 6]	16	PAL1	0	R1074M
1589.912	7.919	770621	PROB	7919	-999	-999	n/a	n/a	n/a	n/a	12	[2, 3, 5]	10	PAL1	0	R1074M
1597.831	0.016	774580	STOP	n/a	-999	-999	n/a	n/a	n/a	n/a	12	[-999, -999, -999]	-999	PAL1	0	R1074M
1597.847	0.0	774588	MATH_END	n/a	-999	-999	n/a	n/a	n/a	n/a	12	[0, 0, 0]	-999	PAL1	0	R1074M
1597.847	0.017	774588	TEST_START	n/a	-999	-999	n/a	n/a	n/a	n/a	12	[0, 0, 0]	-999	PAL1	0	R1074M
1597.864	0.933	774597	TEST_ORIENT	n/a	5	1	CAPE	n/a	CAPE	ANT	12	[0, 0, 0]	-999	PAL1	0	R1074M
1598.797	0.001	775063	TEST_PROBE	n/a	5	1	CAPE	n/a	CAPE	ANT	12	[0, 0, 0]	-999	PAL1	0	R1074M
1598.798	1.88	775064	REC_START	n/a	5	-999	n/a	n/a	n/a	n/a	12	[0, 0, 0]	-999	PAL1	0	R1074M
1600.678	3.128	776004	REC_EVENT	1880	5	1	CAPE	<>	CAPE	ANT	12	[0, 0, 0]	-999	PAL1	0	R1074M
1603.806	0.009	777568	REC_END	n/a	5	-999	n/a	n/a	n/a	n/a	12	[0, 0, 0]	-999	PAL1	0	R1074M
1603.815	0.95	777572	TEST_ORIENT	n/a	2	2	SPOON	n/a	TEETH	SPOON	12	[0, 0, 0]	-999	PAL1	0	R1074M
1604.765	0.001	778047	TEST_PROBE	n/a	2	2	SPOON	n/a	TEETH	SPOON	12	[0, 0, 0]	-999	PAL1	0	R1074M
1604.766	1.904	778048	REC_START	n/a	2	-999	n/a	n/a	n/a	n/a	12	[0, 0, 0]	-999	PAL1	0	R1074M
1606.67	3.096	779000	REC_EVENT	1904	2	2	SPOON	<>	TEETH	SPOON	12	[0, 0, 0]	-999	PAL1	0	R1074M
1609.766	0.017	780548	REC_END	n/a	2	-999	n/a	n/a	n/a	n/a	12	[0, 0, 0]	-999	PAL1	0	R1074M
1609.783	1.0	780556	TEST_ORIENT	n/a	3	3	GOLD	n/a	GOLD	MILK	12	[0, 0, 0]	-999	PAL1	0	R1074M
1610.783	0.001	781056	TEST_PROBE	n/a	3	3	GOLD	n/a	GOLD	MILK	12	[0, 0, 0]	-999	PAL1	0	R1074M
1610.784	2.275	781057	REC_START	n/a	3	-999	n/a	n/a	n/a	n/a	12	[0, 0, 0]	-999	PAL1	0	R1074M
1613.059	2.741	782194	REC_EVENT	2275	3	3	GOLD	<>	GOLD	MILK	12	[0, 0, 0]	-999	PAL1	0	R1074M
1615.8	0.017	783564	REC_END	n/a	3	-999	n/a	n/a	n/a	n/a	12	[0, 0, 0]	-999	PAL1	0	R1074M
1615.817	1.034	783573	TEST_ORIENT	n/a	4	4	MOLE	n/a	HEN	MOLE	12	[0, 0, 0]	-999	PAL1	0	R1074M
1616.851	0.0	784090	TEST_PROBE	n/a	4	4	MOLE	n/a	HEN	MOLE	12	[0, 0, 0]	-999	PAL1	0	R1074M
1616.851	3.274	784090	REC_START	n/a	4	-999	n/a	n/a	n/a	n/a	12	[0, 0, 0]	-999	PAL1	0	R1074M
1620.125	1.743	785727	REC_EVENT	3274	4	4	MOLE	<>	HEN	MOLE	12	[0, 0, 0]	-999	PAL1	0	R1074M
1621.868	0.017	786598	REC_END	n/a	4	-999	n/a	n/a	n/a	n/a	12	[0, 0, 0]	-999	PAL1	0	R1074M
1621.885	0.967	786607	TEST_ORIENT	n/a	1	5	SHEEP	LAMB	SHEEP	CLOUD	12	[0, 0, 0]	-999	PAL1	0	R1074M
1622.852	0.0	787090	TEST_PROBE	n/a	1	5	SHEEP	LAMB	SHEEP	CLOUD	12	[0, 0, 0]	-999	PAL1	0	R1074M
1622.852	2.636	787090	REC_START	n/a	1	-999	n/a	LAMB	n/a	n/a	12	[0, 0, 0]	-999	PAL1	0	R1074M
1625.488	2.382	788408	REC_EVENT	2636	1	5	SHEEP	LAMB	SHEEP	CLOUD	12	[0, 0, 0]	-999	PAL1	0	R1074M
1627.87	0.016	789599	REC_END	n/a	1	-999	n/a	n/a	n/a	n/a	12	[0, 0, 0]	-999	PAL1	0	R1074M
1627.886	0.817	789607	TEST_ORIENT	n/a	6	6	LAMB	n/a	LAMB	WHEEL	12	[0, 0, 0]	-999	PAL1	0	R1074M
1628.703	0.001	790016	TEST_PROBE	n/a	6	6	LAMB	n/a	LAMB	WHEEL	12	[0, 0, 0]	-999	PAL1	0	R1074M
1628.704	1.671	790016	REC_START	n/a	6	-999	n/a	n/a	n/a	n/a	12	[0, 0, 0]	-999	PAL1	0	R1074M
1630.375	3.337	790852	REC_EVENT	1671	6	6	LAMB	<>	LAMB	WHEEL	12	[0, 0, 0]	-999	PAL1	0	R1074M
1633.712	7.575	792520	REC_END	n/a	6	-999	n/a	n/a	n/a	n/a	12	[0, 0, 0]	-999	PAL1	0	R1074M
1641.287	10.454	796307	ENCODING_START	n/a	0	-999	n/a	n/a	n/a	n/a	13	[0, 0, 0]	-999	PAL1	0	R1074M
1651.741	0.967	801534	STUDY_ORIENT	n/a	1	5	STAIR	n/a	LAMP	STAIR	13	[0, 0, 0]	-999	PAL1	0	R1074M
1652.708	5.018	802017	STUDY_PAIR	n/a	1	5	STAIR	n/a	LAMP	STAIR	13	[0, 0, 0]	-999	PAL1	0	R1074M
1657.726	0.983	804526	STUDY_ORIENT	n/a	2	2	SHARK	n/a	SHARK	THREAD	13	[0, 0, 0]	-999	PAL1	0	R1074M
1658.709	5.018	805018	STUDY_PAIR	n/a	2	2	SHARK	n/a	SHARK	THREAD	13	[0, 0, 0]	-999	PAL1	0	R1074M
1663.727	0.867	807527	STUDY_ORIENT	n/a	3	3	DART	n/a	DART	TOOL	13	[0, 0, 0]	-999	PAL1	0	R1074M
1664.594	5.034	807960	STUDY_PAIR	n/a	3	3	DART	n/a	DART	TOOL	13	[0, 0, 0]	-999	PAL1	0	R1074M
1669.628	0.834	810477	STUDY_ORIENT	n/a	4	6	DRUM	n/a	DRUM	SMILE	13	[0, 0, 0]	-999	PAL1	0	R1074M
1670.462	5.034	810894	STUDY_PAIR	n/a	4	6	DRUM	n/a	DRUM	SMILE	13	[0, 0, 0]	-999	PAL1	0	R1074M
1675.496	0.833	813411	STUDY_ORIENT	n/a	5	1	HAT	n/a	HAT	STEM	13	[0, 0, 0]	-999	PAL1	0	R1074M
1676.329	5.018	813827	STUDY_PAIR	n/a	5	1	HAT	n/a	HAT	STEM	13	[0, 0, 0]	-999	PAL1	0	R1074M
1681.347	0.834	816336	STUDY_ORIENT	n/a	6	4	WALL	n/a	CLOTH	WALL	13	[0, 0, 0]	-999	PAL1	0	R1074M
1682.181	4.018	816753	STUDY_PAIR	n/a	6	4	WALL	n/a	CLOTH	WALL	13	[0, 0, 0]	-999	PAL1	0	R1074M
1686.199	0.999	818762	START	n/a	-999	-999	n/a	n/a	n/a	n/a	13	[-999, -999, -999]	-999	PAL1	0	R1074M
1687.198	0.017	819261	MATH_START	n/a	-999	-999	n/a	n/a	n/a	n/a	13	[0, 0, 0]	-999	PAL1	0	R1074M
1687.215	10.685	819270	PROB	10664	-999	-999	n/a	n/a	n/a	n/a	13	[5, 6, 7]	18	PAL1	0	R1074M
1697.9	4.451	824612	PROB	4419	-999	-999	n/a	n/a	n/a	n/a	13	[1, 3, 6]	10	PAL1	0	R1074M
1702.351	6.464	826838	PROB	6464	-999	-999	n/a	n/a	n/a	n/a	13	[2, 8, 4]	14	PAL1	0	R1074M
1708.815	0.004	830069	STOP	n/a	-999	-999	n/a	n/a	n/a	n/a	13	[-999, -999, -999]	-999	PAL1	0	R1074M
1708.819	0.0	830071	MATH_END	n/a	-999	-999	n/a	n/a	n/a	n/a	13	[0, 0, 0]	-999	PAL1	0	R1074M
1708.819	0.017	830071	TEST_START	n/a	-999	-999	n/a	n/a	n/a	n/a	13	[0, 0, 0]	-999	PAL1	0	R1074M
1708.836	0.833	830080	TEST_ORIENT	n/a	5	1	HAT	n/a	HAT	STEM	13	[0, 0, 0]	-999	PAL1	0	R1074M
1709.669	0.001	830496	TEST_PROBE	n/a	5	1	HAT	n/a	HAT	STEM	13	[0, 0, 0]	-999	PAL1	0	R1074M
1709.67	4.969	830497	REC_START	n/a	5	-999	n/a	n/a	n/a	n/a	13	[0, 0, 0]	-999	PAL1	0	R1074M
1714.639	0.039	832981	REC_EVENT	4969	5	1	HAT	<>	HAT	STEM	13	[0, 0, 0]	-999	PAL1	0	R1074M
1714.678	0.009	833001	REC_END	n/a	5	-999	n/a	n/a	n/a	n/a	13	[0, 0, 0]	-999	PAL1	0	R1074M
1714.687	0.834	833005	TEST_ORIENT	n/a	2	2	SHARK	n/a	SHARK	THREAD	13	[0, 0, 0]	-999	PAL1	0	R1074M
1715.521	0.0	833422	TEST_PROBE	n/a	2	2	SHARK	n/a	SHARK	THREAD	13	[0, 0, 0]	-999	PAL1	0	R1074M
1715.521	2.089	833422	REC_START	n/a	2	-999	n/a	n/a	n/a	n/a	13	[0, 0, 0]	-999	PAL1	0	R1074M
1717.61	2.928	834467	REC_EVENT	2089	2	2	SHARK	<>	SHARK	THREAD	13	[0, 0, 0]	-999	PAL1	0	R1074M
1720.538	0.017	835931	REC_END	n/a	2	-999	n/a	n/a	n/a	n/a	13	[0, 0, 0]	-999	PAL1	0	R1074M
1720.555	0.9	835939	TEST_ORIENT	n/a	3	3	DART	n/a	DART	TOOL	13	[0, 0, 0]	-999	PAL1	0	R1074M
1721.455	0.001	836389	TEST_PROBE	n/a	3	3	DART	n/a	DART	TOOL	13	[0, 0, 0]	-999	PAL1	0	R1074M
1721.456	3.366	836390	REC_START	n/a	3	-999	n/a	n/a	n/a	n/a	13	[0, 0, 0]	-999	PAL1	0	R1074M
1724.822	1.642	838072	REC_EVENT	3366	3	3	DART	<>	DART	TOOL	13	[0, 0, 0]	-999	PAL1	0	R1074M
1726.464	0.009	838893	REC_END	n/a	3	-999	n/a	n/a	n/a	n/a	13	[0, 0, 0]	-999	PAL1	0	R1074M
1726.473	0.85	838898	TEST_ORIENT	n/a	6	4	WALL	n/a	CLOTH	WALL	13	[0, 0, 0]	-999	PAL1	0	R1074M
1727.323	0.001	839323	TEST_PROBE	n/a	6	4	WALL	n/a	CLOTH	WALL	13	[0, 0, 0]	-999	PAL1	0	R1074M
1727.324	0.766	839323	REC_START	n/a	6	-999	n/a	n/a	n/a	n/a	13	[0, 0, 0]	-999	PAL1	0	R1074M
1728.09	4.25	839706	REC_EVENT	766	6	4	WALL	<>	CLOTH	WALL	13	[0, 0, 0]	-999	PAL1	0	R1074M
1732.34	0.017	841831	REC_END	n/a	6	-999	n/a	n/a	n/a	n/a	13	[0, 0, 0]	-999	PAL1	0	R1074M
1732.357	0.851	841840	TEST_ORIENT	n/a	1	5	STAIR	n/a	LAMP	STAIR	13	[0, 0, 0]	-999	PAL1	0	R1074M
1733.208	0.0	842265	TEST_PROBE	n/a	1	5	STAIR	n/a	LAMP	STAIR	13	[0, 0, 0]	-999	PAL1	0	R1074M
1733.208	1.718	842265	REC_START	n/a	1	-999	n/a	n/a	n/a	n/a	13	[0, 0, 0]	-999	PAL1	0	R1074M
1734.926	3.299	843124	REC_EVENT	1718	1	5	STAIR	<>	LAMP	STAIR	13	[0, 0, 0]	-999	PAL1	0	R1074M
1738.225	0.017	844774	REC_END	n/a	1	-999	n/a	n/a	n/a	n/a	13	[0, 0, 0]	-999	PAL1	0	R1074M
1738.242	0.883	844782	TEST_ORIENT	n/a	4	6	DRUM	n/a	DRUM	SMILE	13	[0, 0, 0]	-999	PAL1	0	R1074M
1739.125	0.001	845224	TEST_PROBE	n/a	4	6	DRUM	n/a	DRUM	SMILE	13	[0, 0, 0]	-999	PAL1	0	R1074M
1739.126	1.741	845224	REC_START	n/a	4	-999	n/a	n/a	n/a	n/a	13	[0, 0, 0]	-999	PAL1	0	R1074M
1740.867	3.267	846095	REC_EVENT	1741	4	6	DRUM	<>	DRUM	SMILE	13	[0, 0, 0]	-999	PAL1	0	R1074M
1744.134	12.849	847728	REC_END	n/a	4	-999	n/a	n/a	n/a	n/a	13	[0, 0, 0]	-999	PAL1	0	R1074M
1756.983	10.448	854152	ENCODING_START	n/a	0	-999	n/a	n/a	n/a	n/a	14	[0, 0, 0]	-999	PAL1	0	R1074M
1767.431	1.033	859376	STUDY_ORIENT	n/a	1	3	PLANT	n/a	PLANT	LAWN	14	[0, 0, 0]	-999	PAL1	0	R1074M
1768.464	5.018	859892	STUDY_PAIR	n/a	1	3	PLANT	n/a	PLANT	LAWN	14	[0, 0, 0]	-999	PAL1	0	R1074M
1773.482	1.0	862401	STUDY_ORIENT	n/a	2	6	HOOK	n/a	HOOK	SHOE	14	[0, 0, 0]	-999	PAL1	0	R1074M
1774.482	5.035	862901	STUDY_PAIR	n/a	2	6	HOOK	n/a	HOOK	SHOE	14	[0, 0, 0]	-999	PAL1	0	R1074M
1779.517	0.917	865418	STUDY_ORIENT	n/a	3	1	SINK	n/a	SINK	MOUTH	14	[0, 0, 0]	-999	PAL1	0	R1074M
1780.434	5.034	865877	STUDY_PAIR	n/a	3	1	SINK	n/a	SINK	MOUTH	14	[0, 0, 0]	-999	PAL1	0	R1074M
1785.468	0.85	868394	STUDY_ORIENT	n/a	4	4	BRUSH	n/a	BRUSH	ARM	14	[0, 0, 0]	-999	PAL1	0	R1074M
1786.318	5.018	868819	STUDY_PAIR	n/a	4	4	BRUSH	n/a	BRUSH	ARM	14	[0, 0, 0]	-999	PAL1	0	R1074M
1791.336	0.883	871328	STUDY_ORIENT	n/a	5	5	PEARL	n/a	BOOK	PEARL	14	[0, 0, 0]	-999	PAL1	0	R1074M
1792.219	5.018	871769	STUDY_PAIR	n/a	5	5	PEARL	n/a	BOOK	PEARL	14	[0, 0, 0]	-999	PAL1	0	R1074M
1797.237	0.833	874278	STUDY_ORIENT	n/a	6	2	HAND	n/a	MUG	HAND	14	[0, 0, 0]	-999	PAL1	0	R1074M
1798.07	4.002	874694	STUDY_PAIR	n/a	6	2	HAND	n/a	MUG	HAND	14	[0, 0, 0]	-999	PAL1	0	R1074M
1802.072	0.999	876695	START	n/a	-999	-999	n/a	n/a	n/a	n/a	14	[-999, -999, -999]	-999	PAL1	0	R1074M
1803.071	0.017	877195	MATH_START	n/a	-999	-999	n/a	n/a	n/a	n/a	14	[0, 0, 0]	-999	PAL1	0	R1074M
1803.088	4.651	877203	PROB	4631	-999	-999	n/a	n/a	n/a	n/a	14	[4, 2, 6]	12	PAL1	0	R1074M
1807.739	4.501	879529	PROB	4476	-999	-999	n/a	n/a	n/a	n/a	14	[9, 2, 9]	20	PAL1	0	R1074M
1812.24	7.518	881779	PROB	7495	-999	-999	n/a	n/a	n/a	n/a	14	[9, 3, 8]	20	PAL1	0	R1074M
1819.758	2.945	885538	PROB	2945	-999	-999	n/a	n/a	n/a	n/a	14	[1, 1, 3]	5	PAL1	0	R1074M
1822.703	0.006	887010	STOP	n/a	-999	-999	n/a	n/a	n/a	n/a	14	[-999, -999, -999]	-999	PAL1	0	R1074M
1822.709	0.0	887013	TEST_START	n/a	-999	-999	n/a	n/a	n/a	n/a	14	[0, 0, 0]	-999	PAL1	0	R1074M
1822.709	0.016	887013	MATH_END	n/a	-999	-999	n/a	n/a	n/a	n/a	14	[0, 0, 0]	-999	PAL1	0	R1074M
1822.725	0.917	887021	TEST_ORIENT	n/a	3	1	SINK	n/a	SINK	MOUTH	14	[0, 0, 0]	-999	PAL1	0	R1074M
1823.642	0.001	887480	TEST_PROBE	n/a	3	1	SINK	n/a	SINK	MOUTH	14	[0, 0, 0]	-999	PAL1	0	R1074M
1823.643	1.904	887480	REC_START	n/a	3	-999	n/a	n/a	n/a	n/a	14	[0, 0, 0]	-999	PAL1	0	R1074M
1825.547	3.104	888432	REC_EVENT	1904	3	1	SINK	<>	SINK	MOUTH	14	[0, 0, 0]	-999	PAL1	0	R1074M
1828.651	0.009	889984	REC_END	n/a	3	-999	n/a	n/a	n/a	n/a	14	[0, 0, 0]	-999	PAL1	0	R1074M
1828.66	0.883	889989	TEST_ORIENT	n/a	6	2	HAND	n/a	MUG	HAND	14	[0, 0, 0]	-999	PAL1	0	R1074M
1829.543	0.001	890430	TEST_PROBE	n/a	6	2	HAND	n/a	MUG	HAND	14	[0, 0, 0]	-999	PAL1	0	R1074M
1829.544	4.876	890431	REC_START	n/a	6	-999	n/a	n/a	n/a	n/a	14	[0, 0, 0]	-999	PAL1	0	R1074M
1834.42	0.132	892868	REC_EVENT	4876	6	2	HAND	<>	MUG	HAND	14	[0, 0, 0]	-999	PAL1	0	R1074M
1834.552	0.009	892934	REC_END	n/a	6	-999	n/a	n/a	n/a	n/a	14	[0, 0, 0]	-999	PAL1	0	R1074M
1834.561	0.9	892939	TEST_ORIENT	n/a	1	3	PLANT	n/a	PLANT	LAWN	14	[0, 0, 0]	-999	PAL1	0	R1074M
1835.461	0.001	893389	TEST_PROBE	n/a	1	3	PLANT	n/a	PLANT	LAWN	14	[0, 0, 0]	-999	PAL1	0	R1074M
1835.462	2.461	893389	REC_START	n/a	1	-999	n/a	n/a	n/a	n/a	14	[0, 0, 0]	-999	PAL1	0	R1074M
1837.923	2.547	894620	REC_EVENT	2461	1	3	PLANT	<>	PLANT	LAWN	14	[0, 0, 0]	-999	PAL1	0	R1074M
1840.47	0.009	895893	REC_END	n/a	1	-999	n/a	n/a	n/a	n/a	14	[0, 0, 0]	-999	PAL1	0	R1074M
1840.479	0.817	895898	TEST_ORIENT	n/a	4	4	BRUSH	n/a	BRUSH	ARM	14	[0, 0, 0]	-999	PAL1	0	R1074M
1841.296	0.0	896306	TEST_PROBE	n/a	4	4	BRUSH	n/a	BRUSH	ARM	14	[0, 0, 0]	-999	PAL1	0	R1074M
1841.296	2.461	896306	REC_START	n/a	4	-999	n/a	n/a	n/a	n/a	14	[0, 0, 0]	-999	PAL1	0	R1074M
1843.757	2.556	897537	REC_EVENT	2461	4	4	BRUSH	<>	BRUSH	ARM	14	[0, 0, 0]	-999	PAL1	0	R1074M
1846.313	0.017	898815	REC_END	n/a	4	-999	n/a	n/a	n/a	n/a	14	[0, 0, 0]	-999	PAL1	0	R1074M
1846.33	1.034	898823	TEST_ORIENT	n/a	5	5	PEARL	n/a	BOOK	PEARL	14	[0, 0, 0]	-999	PAL1	0	R1074M
1847.364	0.0	899340	TEST_PROBE	n/a	5	5	PEARL	n/a	BOOK	PEARL	14	[0, 0, 0]	-999	PAL1	0	R1074M
1847.364	2.345	899340	REC_START	n/a	5	-999	n/a	n/a	n/a	n/a	14	[0, 0, 0]	-999	PAL1	0	R1074M
1849.709	2.672	900513	REC_EVENT	2345	5	5	PEARL	<>	BOOK	PEARL	14	[0, 0, 0]	-999	PAL1	0	R1074M
1852.381	0.018	901848	REC_END	n/a	5	-999	n/a	n/a	n/a	n/a	14	[0, 0, 0]	-999	PAL1	0	R1074M
1852.399	0.899	901857	TEST_ORIENT	n/a	2	6	HOOK	n/a	HOOK	SHOE	14	[0, 0, 0]	-999	PAL1	0	R1074M
1853.298	0.001	902307	TEST_PROBE	n/a	2	6	HOOK	n/a	HOOK	SHOE	14	[0, 0, 0]	-999	PAL1	0	R1074M
1853.299	2.554	902307	REC_START	n/a	2	-999	n/a	n/a	n/a	n/a	14	[0, 0, 0]	-999	PAL1	0	R1074M
1855.853	2.446	903584	REC_EVENT	2554	2	6	HOOK	<>	HOOK	SHOE	14	[0, 0, 0]	-999	PAL1	0	R1074M
1858.299	4.356	904807	REC_END	n/a	2	-999	n/a	n/a	n/a	n/a	14	[0, 0, 0]	-999	PAL1	0	R1074M
1862.655	10.447	906985	ENCODING_START	n/a	0	-999	n/a	n/a	n/a	n/a	15	[0, 0, 0]	-999	PAL1	0	R1074M
1873.102	0.8	912208	STUDY_ORIENT	n/a	1	1	JEEP	PLATE	JEEP	PLATE	15	[0, 0, 0]	-999	PAL1	0	R1074M
1873.902	5.018	912608	STUDY_PAIR	n/a	1	1	JEEP	PLATE	JEEP	PLATE	15	[0, 0, 0]	-999	PAL1	0	R1074M
1878.92	0.916	915117	STUDY_ORIENT	n/a	2	4	SKI	MOOSE	MOOSE	SKI	15	[0, 0, 0]	-999	PAL1	0	R1074M
1879.836	5.002	915575	STUDY_PAIR	n/a	2	4	SKI	MOOSE	MOOSE	SKI	15	[0, 0, 0]	-999	PAL1	0	R1074M
1884.838	0.8	918076	STUDY_ORIENT	n/a	3	3	PALM	n/a	PALM	SPONGE	15	[0, 0, 0]	-999	PAL1	0	R1074M
1885.638	5.034	918476	STUDY_PAIR	n/a	3	3	PALM	n/a	PALM	SPONGE	15	[0, 0, 0]	-999	PAL1	0	R1074M
1890.672	0.8	920993	STUDY_ORIENT	n/a	4	2	BENCH	n/a	BENCH	TEA	15	[0, 0, 0]	-999	PAL1	0	R1074M
1891.472	5.018	921393	STUDY_PAIR	n/a	4	2	BENCH	n/a	BENCH	TEA	15	[0, 0, 0]	-999	PAL1	0	R1074M
1896.49	0.817	923902	STUDY_ORIENT	n/a	5	5	FOOT	n/a	FOOT	FILM	15	[0, 0, 0]	-999	PAL1	0	R1074M
1897.307	5.034	924310	STUDY_PAIR	n/a	5	5	FOOT	n/a	FOOT	FILM	15	[0, 0, 0]	-999	PAL1	0	R1074M
1902.341	0.884	926827	STUDY_ORIENT	n/a	6	6	DITCH	n/a	DITCH	POLE	15	[0, 0, 0]	-999	PAL1	0	R1074M
1903.225	4.018	927269	STUDY_PAIR	n/a	6	6	DITCH	n/a	DITCH	POLE	15	[0, 0, 0]	-999	PAL1	0	R1074M
1907.243	0.999	929278	START	n/a	-999	-999	n/a	n/a	n/a	n/a	15	[-999, -999, -999]	-999	PAL1	0	R1074M
1908.242	0.017	929777	MATH_START	n/a	-999	-999	n/a	n/a	n/a	n/a	15	[0, 0, 0]	-999	PAL1	0	R1074M
1908.259	9.718	929786	PROB	9684	-999	-999	n/a	n/a	n/a	n/a	15	[3, 7, 6]	16	PAL1	0	R1074M
1917.977	7.769	934645	PROB	7742	-999	-999	n/a	n/a	n/a	n/a	15	[6, 6, 5]	17	PAL1	0	R1074M
1925.746	12.565	938529	PROB	12565	-999	-999	n/a	n/a	n/a	n/a	15	[2, 6, 7]	15	PAL1	0	R1074M
1938.311	0.004	944811	STOP	n/a	-999	-999	n/a	n/a	n/a	n/a	15	[-999, -999, -999]	-999	PAL1	0	R1074M
1938.315	0.0	944813	MATH_END	n/a	-999	-999	n/a	n/a	n/a	n/a	15	[0, 0, 0]	-999	PAL1	0	R1074M
1938.315	0.017	944813	TEST_START	n/a	-999	-999	n/a	n/a	n/a	n/a	15	[0, 0, 0]	-999	PAL1	0	R1074M
1938.332	0.816	944822	TEST_ORIENT	n/a	1	1	JEEP	PLATE	JEEP	PLATE	15	[0, 0, 0]	-999	PAL1	0	R1074M
1939.148	0.001	945230	TEST_PROBE	n/a	1	1	JEEP	PLATE	JEEP	PLATE	15	[0, 0, 0]	-999	PAL1	0	R1074M
1939.149	2.041	945230	REC_START	n/a	1	-999	n/a	PLATE	n/a	n/a	15	[0, 0, 0]	-999	PAL1	0	R1074M
1941.19	2.968	946251	REC_EVENT	2041	1	1	JEEP	PLATE	JEEP	PLATE	15	[0, 0, 0]	-999	PAL1	0	R1074M
1944.158	0.008	947734	REC_END	n/a	1	-999	n/a	n/a	n/a	n/a	15	[0, 0, 0]	-999	PAL1	0	R1074M
1944.166	0.934	947738	TEST_ORIENT	n/a	4	2	BENCH	n/a	BENCH	TEA	15	[0, 0, 0]	-999	PAL1	0	R1074M
1945.1	0.0	948205	TEST_PROBE	n/a	4	2	BENCH	n/a	BENCH	TEA	15	[0, 0, 0]	-999	PAL1	0	R1074M
1945.1	0.812	948205	REC_START	n/a	4	-999	n/a	n/a	n/a	n/a	15	[0, 0, 0]	-999	PAL1	0	R1074M
1945.912	4.205	948611	REC_EVENT	812	4	2	BENCH	<>	BENCH	TEA	15	[0, 0, 0]	-999	PAL1	0	R1074M
1950.117	0.017	950714	REC_END	n/a	4	-999	n/a	n/a	n/a	n/a	15	[0, 0, 0]	-999	PAL1	0	R1074M
1950.134	1.017	950722	TEST_ORIENT	n/a	3	3	PALM	n/a	PALM	SPONGE	15	[0, 0, 0]	-999	PAL1	0	R1074M
1951.151	0.0	951231	TEST_PROBE	n/a	3	3	PALM	n/a	PALM	SPONGE	15	[0, 0, 0]	-999	PAL1	0	R1074M
1951.151	3.761	951231	REC_START	n/a	3	-999	n/a	n/a	n/a	n/a	15	[0, 0, 0]	-999	PAL1	0	R1074M
1954.912	1.256	953111	REC_EVENT	3761	3	3	PALM	<>	PALM	SPONGE	15	[0, 0, 0]	-999	PAL1	0	R1074M
1956.168	0.017	953739	REC_END	n/a	3	-999	n/a	n/a	n/a	n/a	15	[0, 0, 0]	-999	PAL1	0	R1074M
1956.185	0.85	953748	TEST_ORIENT	n/a	2	4	SKI	MOOSE	MOOSE	SKI	15	[0, 0, 0]	-999	PAL1	0	R1074M
1957.035	0.001	954173	TEST_PROBE	n/a	2	4	SKI	MOOSE	MOOSE	SKI	15	[0, 0, 0]	-999	PAL1	0	R1074M
1957.036	1.205	954173	REC_START	n/a	2	-999	n/a	MOOSE	n/a	n/a	15	[0, 0, 0]	-999	PAL1	0	R1074M
1958.241	3.803	954776	REC_EVENT	1205	2	4	SKI	MOOSE	MOOSE	SKI	15	[0, 0, 0]	-999	PAL1	0	R1074M
1962.044	0.009	956677	REC_END	n/a	2	-999	n/a	n/a	n/a	n/a	15	[0, 0, 0]	-999	PAL1	0	R1074M
1962.053	0.817	956681	TEST_ORIENT	n/a	5	5	FOOT	n/a	FOOT	FILM	15	[0, 0, 0]	-999	PAL1	0	R1074M
1962.87	0.0	957090	REC_START	n/a	5	-999	n/a	n/a	n/a	n/a	15	[0, 0, 0]	-999	PAL1	0	R1074M
1962.87	2.252	957090	TEST_PROBE	n/a	5	5	FOOT	n/a	FOOT	FILM	15	[0, 0, 0]	-999	PAL1	0	R1074M
1965.122	2.765	958216	REC_EVENT	2252	5	5	FOOT	<>	FOOT	FILM	15	[0, 0, 0]	-999	PAL1	0	R1074M
1967.887	0.017	959598	REC_END	n/a	5	-999	n/a	n/a	n/a	n/a	15	[0, 0, 0]	-999	PAL1	0	R1074M
1967.904	1.034	959607	TEST_ORIENT	n/a	6	6	DITCH	n/a	DITCH	POLE	15	[0, 0, 0]	-999	PAL1	0	R1074M
1968.938	0.001	960124	TEST_PROBE	n/a	6	6	DITCH	n/a	DITCH	POLE	15	[0, 0, 0]	-999	PAL1	0	R1074M
1968.939	2.53	960124	REC_START	n/a	6	-999	n/a	n/a	n/a	n/a	15	[0, 0, 0]	-999	PAL1	0	R1074M
1971.469	2.486	961389	REC_EVENT	2530	6	6	DITCH	<>	DITCH	POLE	15	[0, 0, 0]	-999	PAL1	0	R1074M
1973.955	52.3	962632	REC_END	n/a	6	-999	n/a	n/a	n/a	n/a	15	[0, 0, 0]	-999	PAL1	0	R1074M
2026.255	10.446	988781	ENCODING_START	n/a	0	-999	n/a	n/a	n/a	n/a	16	[0, 0, 0]	-999	PAL1	0	R1074M
2036.701	0.967	994003	STUDY_ORIENT	n/a	1	5	ROSE	RIB	RIB	ROSE	16	[0, 0, 0]	-999	PAL1	0	R1074M
2037.668	5.018	994487	STUDY_PAIR	n/a	1	5	ROSE	RIB	RIB	ROSE	16	[0, 0, 0]	-999	PAL1	0	R1074M
2042.686	0.883	996996	STUDY_ORIENT	n/a	2	2	KITE	SNAKE	KITE	SNAKE	16	[0, 0, 0]	-999	PAL1	0	R1074M
2043.569	5.018	997437	STUDY_PAIR	n/a	2	2	KITE	SNAKE	KITE	SNAKE	16	[0, 0, 0]	-999	PAL1	0	R1074M
2048.587	0.783	999946	STUDY_ORIENT	n/a	3	3	OWL	STREET	OWL	STREET	16	[0, 0, 0]	-999	PAL1	0	R1074M
2049.37	5.018	1000338	STUDY_PAIR	n/a	3	3	OWL	STREET	OWL	STREET	16	[0, 0, 0]	-999	PAL1	0	R1074M
2054.388	0.9	1002846	STUDY_ORIENT	n/a	4	4	BOWL	n/a	DOOR	BOWL	16	[0, 0, 0]	-999	PAL1	0	R1074M
2055.288	5.018	1003296	STUDY_PAIR	n/a	4	4	BOWL	n/a	DOOR	BOWL	16	[0, 0, 0]	-999	PAL1	0	R1074M
2060.306	0.934	1005805	STUDY_ORIENT	n/a	5	1	GOAT	n/a	GOAT	BIRD	16	[0, 0, 0]	-999	PAL1	0	R1074M
2061.24	5.034	1006272	STUDY_PAIR	n/a	5	1	GOAT	n/a	GOAT	BIRD	16	[0, 0, 0]	-999	PAL1	0	R1074M
2066.274	1.017	1008789	STUDY_ORIENT	n/a	6	6	TREE	n/a	TREE	WEED	16	[0, 0, 0]	-999	PAL1	0	R1074M
2067.291	4.018	1009298	STUDY_PAIR	n/a	6	6	TREE	n/a	TREE	WEED	16	[0, 0, 0]	-999	PAL1	0	R1074M
2071.309	0.999	1011306	START	n/a	-999	-999	n/a	n/a	n/a	n/a	16	[-999, -999, -999]	-999	PAL1	0	R1074M
2072.308	0.017	1011806	MATH_START	n/a	-999	-999	n/a	n/a	n/a	n/a	16	[0, 0, 0]	-999	PAL1	0	R1074M
2072.325	12.069	1011814	PROB	12042	-999	-999	n/a	n/a	n/a	n/a	16	[8, 5, 8]	21	PAL1	0	R1074M
2084.394	8.037	1017849	PROB	8037	-999	-999	n/a	n/a	n/a	n/a	16	[5, 7, 2]	14	PAL1	0	R1074M
2092.431	0.015	1021867	STOP	n/a	-999	-999	n/a	n/a	n/a	n/a	16	[-999, -999, -999]	-999	PAL1	0	R1074M
2092.446	0.0	1021874	MATH_END	n/a	-999	-999	n/a	n/a	n/a	n/a	16	[0, 0, 0]	-999	PAL1	0	R1074M
2092.446	0.016	1021874	TEST_START	n/a	-999	-999	n/a	n/a	n/a	n/a	16	[0, 0, 0]	-999	PAL1	0	R1074M
2092.462	0.834	1021882	TEST_ORIENT	n/a	5	1	GOAT	n/a	GOAT	BIRD	16	[0, 0, 0]	-999	PAL1	0	R1074M
2093.296	0.0	1022299	TEST_PROBE	n/a	5	1	GOAT	n/a	GOAT	BIRD	16	[0, 0, 0]	-999	PAL1	0	R1074M
2093.296	4.388	1022299	REC_START	n/a	5	-999	n/a	n/a	n/a	n/a	16	[0, 0, 0]	-999	PAL1	0	R1074M
2097.684	0.629	1024493	REC_EVENT	4388	5	1	GOAT	<>	GOAT	BIRD	16	[0, 0, 0]	-999	PAL1	0	R1074M
2098.313	0.017	1024808	REC_END	n/a	5	-999	n/a	n/a	n/a	n/a	16	[0, 0, 0]	-999	PAL1	0	R1074M
2098.33	0.934	1024816	TEST_ORIENT	n/a	2	2	KITE	SNAKE	KITE	SNAKE	16	[0, 0, 0]	-999	PAL1	0	R1074M
2099.264	0.001	1025283	TEST_PROBE	n/a	2	2	KITE	SNAKE	KITE	SNAKE	16	[0, 0, 0]	-999	PAL1	0	R1074M
2099.265	1.131	1025284	REC_START	n/a	2	-999	n/a	SNAKE	n/a	n/a	16	[0, 0, 0]	-999	PAL1	0	R1074M
2100.396	3.885	1025849	REC_EVENT	1131	2	2	KITE	SNAKE	KITE	SNAKE	16	[0, 0, 0]	-999	PAL1	0	R1074M
2104.281	0.017	1027792	REC_END	n/a	2	-999	n/a	n/a	n/a	n/a	16	[0, 0, 0]	-999	PAL1	0	R1074M
2104.298	0.917	1027800	TEST_ORIENT	n/a	3	3	OWL	STREET	OWL	STREET	16	[0, 0, 0]	-999	PAL1	0	R1074M
2105.215	0.001	1028258	TEST_PROBE	n/a	3	3	OWL	STREET	OWL	STREET	16	[0, 0, 0]	-999	PAL1	0	R1074M
2105.216	1.728	1028259	REC_START	n/a	3	-999	n/a	STREET	n/a	n/a	16	[0, 0, 0]	-999	PAL1	0	R1074M
2106.944	3.288	1029123	REC_EVENT	1728	3	3	OWL	STREET	OWL	STREET	16	[0, 0, 0]	-999	PAL1	0	R1074M
2110.232	0.017	1030767	REC_END	n/a	3	-999	n/a	n/a	n/a	n/a	16	[0, 0, 0]	-999	PAL1	0	R1074M
2110.249	0.967	1030775	TEST_ORIENT	n/a	4	4	BOWL	n/a	DOOR	BOWL	16	[0, 0, 0]	-999	PAL1	0	R1074M
2111.216	0.001	1031259	TEST_PROBE	n/a	4	4	BOWL	n/a	DOOR	BOWL	16	[0, 0, 0]	-999	PAL1	0	R1074M
2111.217	2.321	1031259	REC_START	n/a	4	-999	n/a	n/a	n/a	n/a	16	[0, 0, 0]	-999	PAL1	0	R1074M
2113.538	2.687	1032420	REC_EVENT	2321	4	4	BOWL	<>	DOOR	BOWL	16	[0, 0, 0]	-999	PAL1	0	R1074M
2116.225	0.009	1033763	REC_END	n/a	4	-999	n/a	n/a	n/a	n/a	16	[0, 0, 0]	-999	PAL1	0	R1074M
2116.234	0.817	1033768	TEST_ORIENT	n/a	1	5	ROSE	RIB	RIB	ROSE	16	[0, 0, 0]	-999	PAL1	0	R1074M
2117.051	0.0	1034176	TEST_PROBE	n/a	1	5	ROSE	RIB	RIB	ROSE	16	[0, 0, 0]	-999	PAL1	0	R1074M
2117.051	3.902	1034176	REC_START	n/a	1	-999	n/a	RIB	n/a	n/a	16	[0, 0, 0]	-999	PAL1	0	R1074M
2120.953	1.115	1036127	REC_EVENT	3902	1	5	ROSE	RIB	RIB	ROSE	16	[0, 0, 0]	-999	PAL1	0	R1074M
2122.068	0.017	1036685	REC_END	n/a	1	-999	n/a	n/a	n/a	n/a	16	[0, 0, 0]	-999	PAL1	0	R1074M
2122.085	0.834	1036693	TEST_ORIENT	n/a	6	6	TREE	n/a	TREE	WEED	16	[0, 0, 0]	-999	PAL1	0	R1074M
2122.919	0.0	1037110	TEST_PROBE	n/a	6	6	TREE	n/a	TREE	WEED	16	[0, 0, 0]	-999	PAL1	0	R1074M
2122.919	4.945	1037110	REC_START	n/a	6	-999	n/a	n/a	n/a	n/a	16	[0, 0, 0]	-999	PAL1	0	R1074M
2127.864	0.072	1039582	REC_EVENT	4945	6	6	TREE	<>	TREE	WEED	16	[0, 0, 0]	-999	PAL1	0	R1074M
2127.936	24.287	1039618	REC_END	n/a	6	-999	n/a	n/a	n/a	n/a	16	[0, 0, 0]	-999	PAL1	0	R1074M
2152.223	10.454	1051761	ENCODING_START	n/a	0	-999	n/a	n/a	n/a	n/a	17	[0, 0, 0]	-999	PAL1	0	R1074M
2162.677	0.883	1056988	STUDY_ORIENT	n/a	1	5	FOG	n/a	FAN	FOG	17	[0, 0, 0]	-999	PAL1	0	R1074M
2163.56	5.034	1057429	STUDY_PAIR	n/a	1	5	FOG	n/a	FAN	FOG	17	[0, 0, 0]	-999	PAL1	0	R1074M
2168.594	0.95	1059946	STUDY_ORIENT	n/a	2	4	SALT	SHEET	SALT	SHEET	17	[0, 0, 0]	-999	PAL1	0	R1074M
2169.544	5.018	1060421	STUDY_PAIR	n/a	2	4	SALT	SHEET	SALT	SHEET	17	[0, 0, 0]	-999	PAL1	0	R1074M
2174.562	0.95	1062930	STUDY_ORIENT	n/a	3	3	LEG	JET	JET	LEG	17	[0, 0, 0]	-999	PAL1	0	R1074M
2175.512	5.018	1063405	STUDY_PAIR	n/a	3	3	LEG	JET	JET	LEG	17	[0, 0, 0]	-999	PAL1	0	R1074M
2180.53	0.85	1065914	STUDY_ORIENT	n/a	4	2	GRAPE	RAIN	GRAPE	RAIN	17	[0, 0, 0]	-999	PAL1	0	R1074M
2181.38	5.019	1066339	STUDY_PAIR	n/a	4	2	GRAPE	RAIN	GRAPE	RAIN	17	[0, 0, 0]	-999	PAL1	0	R1074M
2186.399	0.832	1068848	STUDY_ORIENT	n/a	5	1	AXE	n/a	AXE	PASTE	17	[0, 0, 0]	-999	PAL1	0	R1074M
2187.231	5.018	1069264	STUDY_PAIR	n/a	5	1	AXE	n/a	AXE	PASTE	17	[0, 0, 0]	-999	PAL1	0	R1074M
2192.249	1.0	1071773	STUDY_ORIENT	n/a	6	6	RUG	n/a	RUG	SAIL	17	[0, 0, 0]	-999	PAL1	0	R1074M
2193.249	4.001	1072273	STUDY_PAIR	n/a	6	6	RUG	n/a	RUG	SAIL	17	[0, 0, 0]	-999	PAL1	0	R1074M
2197.25	1.0	1074273	START	n/a	-999	-999	n/a	n/a	n/a	n/a	17	[-999, -999, -999]	-999	PAL1	0	R1074M
2198.25	0.017	1074773	MATH_START	n/a	-999	-999	n/a	n/a	n/a	n/a	17	[0, 0, 0]	-999	PAL1	0	R1074M
2198.267	8.985	1074782	PROB	8956	-999	-999	n/a	n/a	n/a	n/a	17	[8, 2, 9]	19	PAL1	0	R1074M
2207.252	4.134	1079274	PROB	4115	-999	-999	n/a	n/a	n/a	n/a	17	[6, 2, 6]	14	PAL1	0	R1074M
2211.386	4.268	1081341	PROB	4237	-999	-999	n/a	n/a	n/a	n/a	17	[2, 4, 1]	7	PAL1	0	R1074M
2215.654	6.377	1083475	PROB	6377	-999	-999	n/a	n/a	n/a	n/a	17	[6, 2, 3]	11	PAL1	0	R1074M
2222.031	0.007	1086663	STOP	n/a	-999	-999	n/a	n/a	n/a	n/a	17	[-999, -999, -999]	-999	PAL1	0	R1074M
2222.038	0.0	1086667	TEST_START	n/a	-999	-999	n/a	n/a	n/a	n/a	17	[0, 0, 0]	-999	PAL1	0	R1074M
2222.038	0.017	1086667	MATH_END	n/a	-999	-999	n/a	n/a	n/a	n/a	17	[0, 0, 0]	-999	PAL1	0	R1074M
2222.055	0.934	1086675	TEST_ORIENT	n/a	5	1	AXE	n/a	AXE	PASTE	17	[0, 0, 0]	-999	PAL1	0	R1074M
2222.989	0.0	1087142	TEST_PROBE	n/a	5	1	AXE	n/a	AXE	PASTE	17	[0, 0, 0]	-999	PAL1	0	R1074M
2222.989	2.995	1087142	REC_START	n/a	5	-999	n/a	n/a	n/a	n/a	17	[0, 0, 0]	-999	PAL1	0	R1074M
2225.984	2.029	1088640	REC_EVENT	2995	5	1	AXE	<>	AXE	PASTE	17	[0, 0, 0]	-999	PAL1	0	R1074M
2228.013	0.01	1089654	REC_END	n/a	5	-999	n/a	n/a	n/a	n/a	17	[0, 0, 0]	-999	PAL1	0	R1074M
2228.023	0.817	1089659	TEST_ORIENT	n/a	4	2	GRAPE	RAIN	GRAPE	RAIN	17	[0, 0, 0]	-999	PAL1	0	R1074M
2228.84	0.0	1090068	TEST_PROBE	n/a	4	2	GRAPE	RAIN	GRAPE	RAIN	17	[0, 0, 0]	-999	PAL1	0	R1074M
2228.84	2.492	1090068	REC_START	n/a	4	-999	n/a	RAIN	n/a	n/a	17	[0, 0, 0]	-999	PAL1	0	R1074M
2231.332	2.525	1091314	REC_EVENT	2492	4	2	GRAPE	RAIN	GRAPE	RAIN	17	[0, 0, 0]	-999	PAL1	0	R1074M
2233.857	0.017	1092576	REC_END	n/a	4	-999	n/a	n/a	n/a	n/a	17	[0, 0, 0]	-999	PAL1	0	R1074M
2233.874	1.017	1092584	TEST_ORIENT	n/a	3	3	LEG	JET	JET	LEG	17	[0, 0, 0]	-999	PAL1	0	R1074M
2234.891	0.001	1093093	TEST_PROBE	n/a	3	3	LEG	JET	JET	LEG	17	[0, 0, 0]	-999	PAL1	0	R1074M
2234.892	1.594	1093093	REC_START	n/a	3	-999	n/a	JET	n/a	n/a	17	[0, 0, 0]	-999	PAL1	0	R1074M
2236.486	3.422	1093890	REC_EVENT	1594	3	3	LEG	JET	JET	LEG	17	[0, 0, 0]	-999	PAL1	0	R1074M
2239.908	0.017	1095601	REC_END	n/a	3	-999	n/a	n/a	n/a	n/a	17	[0, 0, 0]	-999	PAL1	0	R1074M
2239.925	1.034	1095610	TEST_ORIENT	n/a	2	4	SALT	SHEET	SALT	SHEET	17	[0, 0, 0]	-999	PAL1	0	R1074M
2240.959	0.001	1096127	TEST_PROBE	n/a	2	4	SALT	SHEET	SALT	SHEET	17	[0, 0, 0]	-999	PAL1	0	R1074M
2240.96	0.706	1096127	REC_START	n/a	2	-999	n/a	SHEET	n/a	n/a	17	[0, 0, 0]	-999	PAL1	0	R1074M
2241.666	4.318	1096480	REC_EVENT	706	2	4	SALT	SHEET	SALT	SHEET	17	[0, 0, 0]	-999	PAL1	0	R1074M
2245.984	0.009	1098639	REC_END	n/a	2	-999	n/a	n/a	n/a	n/a	17	[0, 0, 0]	-999	PAL1	0	R1074M
2245.993	0.95	1098644	TEST_ORIENT	n/a	1	5	FOG	n/a	FAN	FOG	17	[0, 0, 0]	-999	PAL1	0	R1074M
2246.943	0.001	1099119	TEST_PROBE	n/a	1	5	FOG	n/a	FAN	FOG	17	[0, 0, 0]	-999	PAL1	0	R1074M
2246.944	1.648	1099119	REC_START	n/a	1	-999	n/a	n/a	n/a	n/a	17	[0, 0, 0]	-999	PAL1	0	R1074M
2248.592	3.36	1099943	REC_EVENT	1648	1	5	FOG	<>	FAN	FOG	17	[0, 0, 0]	-999	PAL1	0	R1074M
2251.952	0.009	1101623	REC_END	n/a	1	-999	n/a	n/a	n/a	n/a	17	[0, 0, 0]	-999	PAL1	0	R1074M
2251.961	0.817	1101627	TEST_ORIENT	n/a	6	6	RUG	n/a	RUG	SAIL	17	[0, 0, 0]	-999	PAL1	0	R1074M
2252.778	0.0	1102036	TEST_PROBE	n/a	6	6	RUG	n/a	RUG	SAIL	17	[0, 0, 0]	-999	PAL1	0	R1074M
2252.778	4.829	1102036	REC_START	n/a	6	-999	n/a	n/a	n/a	n/a	17	[0, 0, 0]	-999	PAL1	0	R1074M
2257.607	0.188	1104450	REC_EVENT	4829	6	6	RUG	<>	RUG	SAIL	17	[0, 0, 0]	-999	PAL1	0	R1074M
2257.795	12.964	1104544	REC_END	n/a	6	-999	n/a	n/a	n/a	n/a	17	[0, 0, 0]	-999	PAL1	0	R1074M
2270.759	10.441	1111026	ENCODING_START	n/a	0	-999	n/a	n/a	n/a	n/a	18	[0, 0, 0]	-999	PAL1	0	R1074M
2281.2	0.817	1116246	STUDY_ORIENT	n/a	1	1	BEAN	n/a	BEAN	CHEEK	18	[0, 0, 0]	-999	PAL1	0	R1074M
2282.017	5.034	1116655	STUDY_PAIR	n/a	1	1	BEAN	n/a	BEAN	CHEEK	18	[0, 0, 0]	-999	PAL1	0	R1074M
2287.051	0.984	1119171	STUDY_ORIENT	n/a	2	6	HILL	n/a	HILL	BRICK	18	[0, 0, 0]	-999	PAL1	0	R1074M
2288.035	5.034	1119663	STUDY_PAIR	n/a	2	6	HILL	n/a	HILL	BRICK	18	[0, 0, 0]	-999	PAL1	0	R1074M
2293.069	1.017	1122180	STUDY_ORIENT	n/a	3	3	HAWK	n/a	RAKE	HAWK	18	[0, 0, 0]	-999	PAL1	0	R1074M
2294.086	5.034	1122689	STUDY_PAIR	n/a	3	3	HAWK	n/a	RAKE	HAWK	18	[0, 0, 0]	-999	PAL1	0	R1074M
2299.12	0.801	1125206	STUDY_ORIENT	n/a	4	2	CORD	SNAIL	SNAIL	CORD	18	[0, 0, 0]	-999	PAL1	0	R1074M
2299.921	5.034	1125606	STUDY_PAIR	n/a	4	2	CORD	SNAIL	SNAIL	CORD	18	[0, 0, 0]	-999	PAL1	0	R1074M
2304.955	0.9	1128123	STUDY_ORIENT	n/a	5	5	GLOVE	TRUCK	TRUCK	GLOVE	18	[0, 0, 0]	-999	PAL1	0	R1074M
2305.855	5.034	1128573	STUDY_PAIR	n/a	5	5	GLOVE	TRUCK	TRUCK	GLOVE	18	[0, 0, 0]	-999	PAL1	0	R1074M
2310.889	0.851	1131090	STUDY_ORIENT	n/a	6	4	TANK	n/a	TANK	CART	18	[0, 0, 0]	-999	PAL1	0	R1074M
2311.74	4.017	1131515	STUDY_PAIR	n/a	6	4	TANK	n/a	TANK	CART	18	[0, 0, 0]	-999	PAL1	0	R1074M
2315.757	1.0	1133524	START	n/a	-999	-999	n/a	n/a	n/a	n/a	18	[-999, -999, -999]	-999	PAL1	0	R1074M
2316.757	0.017	1134024	MATH_START	n/a	-999	-999	n/a	n/a	n/a	n/a	18	[0, 0, 0]	-999	PAL1	0	R1074M
2316.774	9.769	1134032	PROB	9737	-999	-999	n/a	n/a	n/a	n/a	18	[6, 1, 9]	18	PAL1	0	R1074M
2326.543	8.851	1138916	PROB	8824	-999	-999	n/a	n/a	n/a	n/a	18	[5, 2, 8]	15	PAL1	0	R1074M
2335.394	9.069	1143342	PROB	9069	-999	-999	n/a	n/a	n/a	n/a	18	[5, 6, 3]	14	PAL1	0	R1074M
2344.463	0.016	1147876	STOP	n/a	-999	-999	n/a	n/a	n/a	n/a	18	[-999, -999, -999]	-999	PAL1	0	R1074M
2344.479	0.0	1147884	MATH_END	n/a	-999	-999	n/a	n/a	n/a	n/a	18	[0, 0, 0]	-999	PAL1	0	R1074M
2344.479	0.017	1147884	TEST_START	n/a	-999	-999	n/a	n/a	n/a	n/a	18	[0, 0, 0]	-999	PAL1	0	R1074M
2344.496	0.95	1147892	TEST_ORIENT	n/a	1	1	BEAN	n/a	BEAN	CHEEK	18	[0, 0, 0]	-999	PAL1	0	R1074M
2345.446	0.001	1148367	TEST_PROBE	n/a	1	1	BEAN	n/a	BEAN	CHEEK	18	[0, 0, 0]	-999	PAL1	0	R1074M
2345.447	1.369	1148368	REC_START	n/a	1	-999	n/a	n/a	n/a	n/a	18	[0, 0, 0]	-999	PAL1	0	R1074M
2346.816	3.639	1149052	REC_EVENT	1369	1	1	BEAN	<>	BEAN	CHEEK	18	[0, 0, 0]	-999	PAL1	0	R1074M
2350.455	0.009	1150872	REC_END	n/a	1	-999	n/a	n/a	n/a	n/a	18	[0, 0, 0]	-999	PAL1	0	R1074M
2350.464	0.967	1150876	TEST_ORIENT	n/a	4	2	CORD	SNAIL	SNAIL	CORD	18	[0, 0, 0]	-999	PAL1	0	R1074M
2351.431	0.0	1151360	REC_START	n/a	4	-999	n/a	SNAIL	n/a	n/a	18	[0, 0, 0]	-999	PAL1	0	R1074M
2351.431	1.747	1151360	TEST_PROBE	n/a	4	2	CORD	SNAIL	SNAIL	CORD	18	[0, 0, 0]	-999	PAL1	0	R1074M
2353.178	3.27	1152233	REC_EVENT	1747	4	2	CORD	SNAIL	SNAIL	CORD	18	[0, 0, 0]	-999	PAL1	0	R1074M
2356.448	0.017	1153868	REC_END	n/a	4	-999	n/a	n/a	n/a	n/a	18	[0, 0, 0]	-999	PAL1	0	R1074M
2356.465	1.017	1153877	TEST_ORIENT	n/a	3	3	HAWK	n/a	RAKE	HAWK	18	[0, 0, 0]	-999	PAL1	0	R1074M
2357.482	0.0	1154385	TEST_PROBE	n/a	3	3	HAWK	n/a	RAKE	HAWK	18	[0, 0, 0]	-999	PAL1	0	R1074M
2357.482	0.719	1154385	REC_START	n/a	3	-999	n/a	n/a	n/a	n/a	18	[0, 0, 0]	-999	PAL1	0	R1074M
2358.201	4.299	1154745	REC_EVENT	719	3	3	HAWK	<>	RAKE	HAWK	18	[0, 0, 0]	-999	PAL1	0	R1074M
2362.5	0.016	1156894	REC_END	n/a	3	-999	n/a	n/a	n/a	n/a	18	[0, 0, 0]	-999	PAL1	0	R1074M
2362.516	0.917	1156902	TEST_ORIENT	n/a	6	4	TANK	n/a	TANK	CART	18	[0, 0, 0]	-999	PAL1	0	R1074M
2363.433	0.001	1157360	TEST_PROBE	n/a	6	4	TANK	n/a	TANK	CART	18	[0, 0, 0]	-999	PAL1	0	R1074M
2363.434	4.017	1157361	REC_START	n/a	6	-999	n/a	n/a	n/a	n/a	18	[0, 0, 0]	-999	PAL1	0	R1074M
2367.451	0.983	1159369	REC_EVENT	4017	6	4	TANK	<>	TANK	CART	18	[0, 0, 0]	-999	PAL1	0	R1074M
2368.434	0.017	1159861	REC_END	n/a	6	-999	n/a	n/a	n/a	n/a	18	[0, 0, 0]	-999	PAL1	0	R1074M
2368.451	0.951	1159869	TEST_ORIENT	n/a	5	5	GLOVE	TRUCK	TRUCK	GLOVE	18	[0, 0, 0]	-999	PAL1	0	R1074M
2369.402	0.001	1160345	TEST_PROBE	n/a	5	5	GLOVE	TRUCK	TRUCK	GLOVE	18	[0, 0, 0]	-999	PAL1	0	R1074M
2369.403	1.413	1160345	REC_START	n/a	5	-999	n/a	TRUCK	n/a	n/a	18	[0, 0, 0]	-999	PAL1	0	R1074M
2370.816	3.594	1161052	REC_EVENT	1413	5	5	GLOVE	TRUCK	TRUCK	GLOVE	18	[0, 0, 0]	-999	PAL1	0	R1074M
2374.41	0.009	1162849	REC_END	n/a	5	-999	n/a	n/a	n/a	n/a	18	[0, 0, 0]	-999	PAL1	0	R1074M
2374.419	0.967	1162853	TEST_ORIENT	n/a	2	6	HILL	n/a	HILL	BRICK	18	[0, 0, 0]	-999	PAL1	0	R1074M
2375.386	0.0	1163337	TEST_PROBE	n/a	2	6	HILL	n/a	HILL	BRICK	18	[0, 0, 0]	-999	PAL1	0	R1074M
2375.386	3.065	1163337	REC_START	n/a	2	-999	n/a	n/a	n/a	n/a	18	[0, 0, 0]	-999	PAL1	0	R1074M
2378.451	1.953	1164869	REC_EVENT	3065	2	6	HILL	<>	HILL	BRICK	18	[0, 0, 0]	-999	PAL1	0	R1074M
2380.404	4.283	1165845	REC_END	n/a	2	-999	n/a	n/a	n/a	n/a	18	[0, 0, 0]	-999	PAL1	0	R1074M
2384.687	10.453	1167987	ENCODING_START	n/a	0	-999	n/a	n/a	n/a	n/a	19	[0, 0, 0]	-999	PAL1	0	R1074M
2395.14	0.8	1173213	STUDY_ORIENT	n/a	1	3	NAIL	n/a	FLOOR	NAIL	19	[0, 0, 0]	-999	PAL1	0	R1074M
2395.94	5.034	1173613	STUDY_PAIR	n/a	1	3	NAIL	n/a	FLOOR	NAIL	19	[0, 0, 0]	-999	PAL1	0	R1074M
2400.974	0.934	1176130	STUDY_ORIENT	n/a	2	6	SOUP	BOY	BOY	SOUP	19	[0, 0, 0]	-999	PAL1	0	R1074M
2401.908	5.034	1176597	STUDY_PAIR	n/a	2	6	SOUP	BOY	BOY	SOUP	19	[0, 0, 0]	-999	PAL1	0	R1074M
2406.942	0.883	1179114	STUDY_ORIENT	n/a	3	5	JAR	n/a	TIE	JAR	19	[0, 0, 0]	-999	PAL1	0	R1074M
2407.825	5.018	1179555	STUDY_PAIR	n/a	3	5	JAR	n/a	TIE	JAR	19	[0, 0, 0]	-999	PAL1	0	R1074M
2412.843	0.917	1182064	STUDY_ORIENT	n/a	4	2	MOUSE	n/a	TOE	MOUSE	19	[0, 0, 0]	-999	PAL1	0	R1074M
2413.76	5.034	1182522	STUDY_PAIR	n/a	4	2	MOUSE	n/a	TOE	MOUSE	19	[0, 0, 0]	-999	PAL1	0	R1074M
2418.794	1.001	1185039	STUDY_ORIENT	n/a	5	1	TOAST	n/a	TOAST	SWORD	19	[0, 0, 0]	-999	PAL1	0	R1074M
2419.795	5.034	1185540	STUDY_PAIR	n/a	5	1	TOAST	n/a	TOAST	SWORD	19	[0, 0, 0]	-999	PAL1	0	R1074M
2424.829	0.85	1188057	STUDY_ORIENT	n/a	6	4	DEER	GATE	DEER	GATE	19	[0, 0, 0]	-999	PAL1	0	R1074M
2425.679	4.018	1188482	STUDY_PAIR	n/a	6	4	DEER	GATE	DEER	GATE	19	[0, 0, 0]	-999	PAL1	0	R1074M
2429.697	0.999	1190491	START	n/a	-999	-999	n/a	n/a	n/a	n/a	19	[-999, -999, -999]	-999	PAL1	0	R1074M
2430.696	0.017	1190990	MATH_START	n/a	-999	-999	n/a	n/a	n/a	n/a	19	[0, 0, 0]	-999	PAL1	0	R1074M
2430.713	8.002	1190999	PROB	7982	-999	-999	n/a	n/a	n/a	n/a	19	[5, 7, 8]	19	PAL1	0	R1074M
2438.715	11.276	1194999	PROB	11276	-999	-999	n/a	n/a	n/a	n/a	19	[8, 9, 7]	24	PAL1	0	R1074M
2449.991	0.01	1200637	STOP	n/a	-999	-999	n/a	n/a	n/a	n/a	19	[-999, -999, -999]	-999	PAL1	0	R1074M
2450.001	0.0	1200642	MATH_END	n/a	-999	-999	n/a	n/a	n/a	n/a	19	[0, 0, 0]	-999	PAL1	0	R1074M
2450.001	0.016	1200642	TEST_START	n/a	-999	-999	n/a	n/a	n/a	n/a	19	[0, 0, 0]	-999	PAL1	0	R1074M
2450.017	0.917	1200650	TEST_ORIENT	n/a	5	1	TOAST	n/a	TOAST	SWORD	19	[0, 0, 0]	-999	PAL1	0	R1074M
2450.934	0.0	1201108	REC_START	n/a	5	-999	n/a	n/a	n/a	n/a	19	[0, 0, 0]	-999	PAL1	0	R1074M
2450.934	0.719	1201108	TEST_PROBE	n/a	5	1	TOAST	n/a	TOAST	SWORD	19	[0, 0, 0]	-999	PAL1	0	R1074M
2451.653	4.298	1201468	REC_EVENT	719	5	1	TOAST	<>	TOAST	SWORD	19	[0, 0, 0]	-999	PAL1	0	R1074M
2455.951	0.017	1203617	REC_END	n/a	5	-999	n/a	n/a	n/a	n/a	19	[0, 0, 0]	-999	PAL1	0	R1074M
2455.968	0.951	1203625	TEST_ORIENT	n/a	4	2	MOUSE	n/a	TOE	MOUSE	19	[0, 0, 0]	-999	PAL1	0	R1074M
2456.919	0.0	1204101	TEST_PROBE	n/a	4	2	MOUSE	n/a	TOE	MOUSE	19	[0, 0, 0]	-999	PAL1	0	R1074M
2456.919	2.275	1204101	REC_START	n/a	4	-999	n/a	n/a	n/a	n/a	19	[0, 0, 0]	-999	PAL1	0	R1074M
2459.194	2.742	1205238	REC_EVENT	2275	4	2	MOUSE	<>	TOE	MOUSE	19	[0, 0, 0]	-999	PAL1	0	R1074M
2461.936	0.017	1206609	REC_END	n/a	4	-999	n/a	n/a	n/a	n/a	19	[0, 0, 0]	-999	PAL1	0	R1074M
2461.953	0.9	1206618	TEST_ORIENT	n/a	1	3	NAIL	n/a	FLOOR	NAIL	19	[0, 0, 0]	-999	PAL1	0	R1074M
2462.853	0.0	1207068	TEST_PROBE	n/a	1	3	NAIL	n/a	FLOOR	NAIL	19	[0, 0, 0]	-999	PAL1	0	R1074M
2462.853	0.696	1207068	REC_START	n/a	1	-999	n/a	n/a	n/a	n/a	19	[0, 0, 0]	-999	PAL1	0	R1074M
2463.549	4.322	1207416	REC_EVENT	696	1	3	NAIL	<>	FLOOR	NAIL	19	[0, 0, 0]	-999	PAL1	0	R1074M
2467.871	0.016	1209576	REC_END	n/a	1	-999	n/a	n/a	n/a	n/a	19	[0, 0, 0]	-999	PAL1	0	R1074M
2467.887	0.801	1209584	TEST_ORIENT	n/a	6	4	DEER	GATE	DEER	GATE	19	[0, 0, 0]	-999	PAL1	0	R1074M
2468.688	0.0	1209985	TEST_PROBE	n/a	6	4	DEER	GATE	DEER	GATE	19	[0, 0, 0]	-999	PAL1	0	R1074M
2468.688	0.728	1209985	REC_START	n/a	6	-999	n/a	GATE	n/a	n/a	19	[0, 0, 0]	-999	PAL1	0	R1074M
2469.416	4.289	1210349	REC_EVENT	728	6	4	DEER	GATE	DEER	GATE	19	[0, 0, 0]	-999	PAL1	0	R1074M
2473.705	0.017	1212493	REC_END	n/a	6	-999	n/a	n/a	n/a	n/a	19	[0, 0, 0]	-999	PAL1	0	R1074M
2473.722	0.867	1212502	TEST_ORIENT	n/a	3	5	JAR	n/a	TIE	JAR	19	[0, 0, 0]	-999	PAL1	0	R1074M
2474.589	0.0	1212935	TEST_PROBE	n/a	3	5	JAR	n/a	TIE	JAR	19	[0, 0, 0]	-999	PAL1	0	R1074M
2474.589	1.88	1212935	REC_START	n/a	3	-999	n/a	n/a	n/a	n/a	19	[0, 0, 0]	-999	PAL1	0	R1074M
2476.469	3.139	1213875	REC_EVENT	1880	3	5	JAR	<>	TIE	JAR	19	[0, 0, 0]	-999	PAL1	0	R1074M
2479.608	0.015	1215445	REC_END	n/a	3	-999	n/a	n/a	n/a	n/a	19	[0, 0, 0]	-999	PAL1	0	R1074M
2479.623	1.034	1215452	TEST_ORIENT	n/a	2	6	SOUP	BOY	BOY	SOUP	19	[0, 0, 0]	-999	PAL1	0	R1074M
2480.657	0.0	1215969	TEST_PROBE	n/a	2	6	SOUP	BOY	BOY	SOUP	19	[0, 0, 0]	-999	PAL1	0	R1074M
2480.657	2.366	1215969	REC_START	n/a	2	-999	n/a	BOY	n/a	n/a	19	[0, 0, 0]	-999	PAL1	0	R1074M
2483.023	2.651	1217152	REC_EVENT	2366	2	6	SOUP	BOY	BOY	SOUP	19	[0, 0, 0]	-999	PAL1	0	R1074M
2485.674	0.0	1218478	REC_END	n/a	2	-999	n/a	n/a	n/a	n/a	19	[0, 0, 0]	-999	PAL1	0	R1074M
