onset	duration	sample	trial_type	response_time	stim_file	serialpos	probepos	probe_word	resp_word	study_1	study_2	list	test	answer	experiment	session	subject
0.0	0.0	431225	INSTRUCT_VIDEO_ON	n/a	n/a	-999	-999	n/a	n/a	n/a	n/a	-999	[0, 0, 0]	-999	PAL1	0	R1230J
0.0	5.487	431225	INSTRUCT_VIDEO_OFF	n/a	n/a	-999	-999	n/a	n/a	n/a	n/a	-999	[0, 0, 0]	-999	PAL1	0	R1230J
5.487	0.0	436712	SESS_START	n/a	n/a	-999	-999	n/a	n/a	n/a	n/a	-999	[0, 0, 0]	-999	PAL1	0	R1230J
5.487	896.764	436712	MIC_TEST	n/a	n/a	-999	-999	n/a	n/a	n/a	n/a	-999	[0, 0, 0]	-999	PAL1	0	R1230J
902.251	17.699	1333473	PRACTICE_TRIAL	n/a	n/a	-999	-999	n/a	n/a	n/a	n/a	-1	[0, 0, 0]	-999	PAL1	0	R1230J
919.95	0.006	1351172	ENCODING_START	n/a	n/a	-999	-999	n/a	n/a	n/a	n/a	-1	[0, 0, 0]	-999	PAL1	0	R1230J
919.956	0.266	1351178	PRACTICE_ORIENT	n/a	n/a	1	1	WATCH	n/a	WATCH	WAGON	-1	[0, 0, 0]	-999	PAL1	0	R1230J
920.222	0.55	1351444	PRACTICE_ORIENT_OFF	n/a	n/a	1	1	WATCH	n/a	WATCH	WAGON	-1	[0, 0, 0]	-999	PAL1	0	R1230J
920.772	4.017	1351994	PRACTICE_PAIR	n/a	n/a	1	1	WATCH	n/a	WATCH	WAGON	-1	[0, 0, 0]	-999	PAL1	0	R1230J
924.789	1.017	1356011	PRACTICE_PAIR_OFF	n/a	n/a	1	1	WATCH	n/a	WATCH	WAGON	-1	[0, 0, 0]	-999	PAL1	0	R1230J
925.806	0.267	1357028	PRACTICE_ORIENT	n/a	n/a	2	2	IRON	n/a	RING	IRON	-1	[0, 0, 0]	-999	PAL1	0	R1230J
926.073	0.717	1357295	PRACTICE_ORIENT_OFF	n/a	n/a	2	2	IRON	n/a	RING	IRON	-1	[0, 0, 0]	-999	PAL1	0	R1230J
926.79	4.017	1358012	PRACTICE_PAIR	n/a	n/a	2	2	IRON	n/a	RING	IRON	-1	[0, 0, 0]	-999	PAL1	0	R1230J
930.807	1.016	1362029	PRACTICE_PAIR_OFF	n/a	n/a	2	2	IRON	n/a	RING	IRON	-1	[0, 0, 0]	-999	PAL1	0	R1230J
931.823	0.267	1363045	PRACTICE_ORIENT	n/a	n/a	3	5	TONGUE	n/a	CHEST	TONGUE	-1	[0, 0, 0]	-999	PAL1	0	R1230J
932.09	0.568	1363312	PRACTICE_ORIENT_OFF	n/a	n/a	3	5	TONGUE	n/a	CHEST	TONGUE	-1	[0, 0, 0]	-999	PAL1	0	R1230J
932.658	4.017	1363880	PRACTICE_PAIR	n/a	n/a	3	5	TONGUE	n/a	CHEST	TONGUE	-1	[0, 0, 0]	-999	PAL1	0	R1230J
936.675	1.016	1367897	PRACTICE_PAIR_OFF	n/a	n/a	3	5	TONGUE	n/a	CHEST	TONGUE	-1	[0, 0, 0]	-999	PAL1	0	R1230J
937.691	0.267	1368913	PRACTICE_ORIENT	n/a	n/a	4	4	COTTON	ATTIC	COTTON	ATTIC	-1	[0, 0, 0]	-999	PAL1	0	R1230J
937.958	0.601	1369180	PRACTICE_ORIENT_OFF	n/a	n/a	4	4	COTTON	ATTIC	COTTON	ATTIC	-1	[0, 0, 0]	-999	PAL1	0	R1230J
938.559	4.017	1369781	PRACTICE_PAIR	n/a	n/a	4	4	COTTON	ATTIC	COTTON	ATTIC	-1	[0, 0, 0]	-999	PAL1	0	R1230J
942.576	1.017	1373798	PRACTICE_PAIR_OFF	n/a	n/a	4	4	COTTON	ATTIC	COTTON	ATTIC	-1	[0, 0, 0]	-999	PAL1	0	R1230J
943.593	0.266	1374815	PRACTICE_ORIENT	n/a	n/a	5	3	FLOOD	WOODER	FLOOD	CAMEL	-1	[0, 0, 0]	-999	PAL1	0	R1230J
943.859	0.617	1375081	PRACTICE_ORIENT_OFF	n/a	n/a	5	3	FLOOD	WOODER	FLOOD	CAMEL	-1	[0, 0, 0]	-999	PAL1	0	R1230J
944.476	4.018	1375698	PRACTICE_PAIR	n/a	n/a	5	3	FLOOD	WOODER	FLOOD	CAMEL	-1	[0, 0, 0]	-999	PAL1	0	R1230J
948.494	1.017	1379716	PRACTICE_PAIR_OFF	n/a	n/a	5	3	FLOOD	WOODER	FLOOD	CAMEL	-1	[0, 0, 0]	-999	PAL1	0	R1230J
949.511	0.265	1380733	PRACTICE_ORIENT	n/a	n/a	6	6	BEAM	n/a	RHINO	BEAM	-1	[0, 0, 0]	-999	PAL1	0	R1230J
949.776	0.702	1380998	PRACTICE_ORIENT_OFF	n/a	n/a	6	6	BEAM	n/a	RHINO	BEAM	-1	[0, 0, 0]	-999	PAL1	0	R1230J
950.478	4.016	1381700	PRACTICE_PAIR	n/a	n/a	6	6	BEAM	n/a	RHINO	BEAM	-1	[0, 0, 0]	-999	PAL1	0	R1230J
954.494	1.0	1385716	PRACTICE_PAIR_OFF	n/a	n/a	6	6	BEAM	n/a	RHINO	BEAM	-1	[0, 0, 0]	-999	PAL1	0	R1230J
955.494	0.0	1386716	ENCODING_END	n/a	n/a	-999	-999	n/a	n/a	n/a	n/a	-1	[0, 0, 0]	-999	PAL1	0	R1230J
955.494	0.001	1386716	MATH_START	n/a	n/a	-999	-999	n/a	n/a	n/a	n/a	-1	[0, 0, 0]	-999	PAL1	0	R1230J
955.495	0.016	1386717	START	n/a	n/a	-999	-999	n/a	n/a	n/a	n/a	-1	[-999, -999, -999]	-999	PAL1	0	R1230J
955.511	3.2	1386733	PROB	3167	n/a	-999	-999	n/a	n/a	n/a	n/a	-1	[8, 4, 6]	18	PAL1	0	R1230J
958.711	2.951	1389933	PROB	2918	n/a	-999	-999	n/a	n/a	n/a	n/a	-1	[7, 7, 8]	22	PAL1	0	R1230J
961.662	2.249	1392884	PROB	2222	n/a	-999	-999	n/a	n/a	n/a	n/a	-1	[8, 8, 8]	24	PAL1	0	R1230J
963.911	5.351	1395133	PROB	5325	n/a	-999	-999	n/a	n/a	n/a	n/a	-1	[8, 7, 6]	21	PAL1	0	R1230J
969.262	3.684	1400484	PROB	3646	n/a	-999	-999	n/a	n/a	n/a	n/a	-1	[3, 8, 8]	19	PAL1	0	R1230J
972.946	2.551	1404168	PROB	2515	n/a	-999	-999	n/a	n/a	n/a	n/a	-1	[3, 6, 2]	11	PAL1	0	R1230J
975.497	2.307	1406719	PROB	2307	n/a	-999	-999	n/a	n/a	n/a	n/a	-1	[6, 5, 2]	13	PAL1	0	R1230J
977.804	0.009	1409026	STOP	n/a	n/a	-999	-999	n/a	n/a	n/a	n/a	-1	[-999, -999, -999]	-999	PAL1	0	R1230J
977.813	0.001	1409035	MATH_END	n/a	n/a	-999	-999	n/a	n/a	n/a	n/a	-1	[0, 0, 0]	-999	PAL1	0	R1230J
977.814	0.016	1409036	RECALL_START	n/a	n/a	-999	-999	n/a	n/a	n/a	n/a	-1	[0, 0, 0]	-999	PAL1	0	R1230J
977.83	0.267	1409052	PRACTICE_RETRIEVAL_ORIENT	n/a	n/a	1	1	WATCH	n/a	WATCH	WAGON	-1	[0, 0, 0]	-999	PAL1	0	R1230J
978.097	0.616	1409319	PRACTICE_RETRIEVAL_ORIENT_OFF	n/a	n/a	1	1	WATCH	n/a	WATCH	WAGON	-1	[0, 0, 0]	-999	PAL1	0	R1230J
978.713	0.001	1409935	PRACTICE_PROBE	n/a	n/a	1	1	WATCH	n/a	WATCH	WAGON	-1	[0, 0, 0]	-999	PAL1	0	R1230J
978.714	4.016	1409936	REC_START	n/a	n/a	1	-999	n/a	n/a	n/a	n/a	-1	[0, 0, 0]	-999	PAL1	0	R1230J
982.73	0.999	1413952	PROBE_OFF	n/a	n/a	1	-999	n/a	n/a	n/a	n/a	-1	[0, 0, 0]	-999	PAL1	0	R1230J
983.729	0.001	1414951	REC_EVENT	5015	n/a	1	1	WATCH	<>	WATCH	WAGON	-1	[0, 0, 0]	-999	PAL1	0	R1230J
983.73	0.017	1414952	REC_END	n/a	n/a	1	-999	n/a	n/a	n/a	n/a	-1	[0, 0, 0]	-999	PAL1	0	R1230J
983.747	0.267	1414969	PRACTICE_RETRIEVAL_ORIENT	n/a	n/a	2	2	IRON	n/a	RING	IRON	-1	[0, 0, 0]	-999	PAL1	0	R1230J
984.014	0.618	1415236	PRACTICE_RETRIEVAL_ORIENT_OFF	n/a	n/a	2	2	IRON	n/a	RING	IRON	-1	[0, 0, 0]	-999	PAL1	0	R1230J
984.632	0.0	1415854	PRACTICE_PROBE	n/a	n/a	2	2	IRON	n/a	RING	IRON	-1	[0, 0, 0]	-999	PAL1	0	R1230J
984.632	4.017	1415854	REC_START	n/a	n/a	2	-999	n/a	n/a	n/a	n/a	-1	[0, 0, 0]	-999	PAL1	0	R1230J
988.649	0.998	1419871	PROBE_OFF	n/a	n/a	2	-999	n/a	n/a	n/a	n/a	-1	[0, 0, 0]	-999	PAL1	0	R1230J
989.647	0.002	1420869	REC_EVENT	5015	n/a	2	2	IRON	<>	RING	IRON	-1	[0, 0, 0]	-999	PAL1	0	R1230J
989.649	0.017	1420871	REC_END	n/a	n/a	2	-999	n/a	n/a	n/a	n/a	-1	[0, 0, 0]	-999	PAL1	0	R1230J
989.666	0.266	1420888	PRACTICE_RETRIEVAL_ORIENT	n/a	n/a	5	3	FLOOD	WOODER	FLOOD	CAMEL	-1	[0, 0, 0]	-999	PAL1	0	R1230J
989.932	0.717	1421154	PRACTICE_RETRIEVAL_ORIENT_OFF	n/a	n/a	5	3	FLOOD	WOODER	FLOOD	CAMEL	-1	[0, 0, 0]	-999	PAL1	0	R1230J
990.649	0.001	1421871	PRACTICE_PROBE	n/a	n/a	5	3	FLOOD	WOODER	FLOOD	CAMEL	-1	[0, 0, 0]	-999	PAL1	0	R1230J
990.65	2.443	1421872	REC_START	n/a	n/a	5	-999	n/a	WOODER	n/a	n/a	-1	[0, 0, 0]	-999	PAL1	0	R1230J
993.093	1.573	1424315	REC_EVENT	2443	n/a	5	3	FLOOD	WOODER	FLOOD	CAMEL	-1	[0, 0, 0]	-999	PAL1	0	R1230J
994.666	1.0	1425888	PROBE_OFF	n/a	n/a	5	-999	n/a	n/a	n/a	n/a	-1	[0, 0, 0]	-999	PAL1	0	R1230J
995.666	0.016	1426888	REC_END	n/a	n/a	5	-999	n/a	n/a	n/a	n/a	-1	[0, 0, 0]	-999	PAL1	0	R1230J
995.682	0.267	1426904	PRACTICE_RETRIEVAL_ORIENT	n/a	n/a	4	4	COTTON	ATTIC	COTTON	ATTIC	-1	[0, 0, 0]	-999	PAL1	0	R1230J
995.949	0.618	1427171	PRACTICE_RETRIEVAL_ORIENT_OFF	n/a	n/a	4	4	COTTON	ATTIC	COTTON	ATTIC	-1	[0, 0, 0]	-999	PAL1	0	R1230J
996.567	0.0	1427789	REC_START	n/a	n/a	4	-999	n/a	ATTIC	n/a	n/a	-1	[0, 0, 0]	-999	PAL1	0	R1230J
996.567	1.174	1427789	PRACTICE_PROBE	n/a	n/a	4	4	COTTON	ATTIC	COTTON	ATTIC	-1	[0, 0, 0]	-999	PAL1	0	R1230J
997.741	2.843	1428963	REC_EVENT	1174	n/a	4	4	COTTON	ATTIC	COTTON	ATTIC	-1	[0, 0, 0]	-999	PAL1	0	R1230J
1000.584	1.0	1431806	PROBE_OFF	n/a	n/a	4	-999	n/a	n/a	n/a	n/a	-1	[0, 0, 0]	-999	PAL1	0	R1230J
1001.584	0.016	1432806	REC_END	n/a	n/a	4	-999	n/a	n/a	n/a	n/a	-1	[0, 0, 0]	-999	PAL1	0	R1230J
1001.6	0.266	1432822	PRACTICE_RETRIEVAL_ORIENT	n/a	n/a	3	5	TONGUE	n/a	CHEST	TONGUE	-1	[0, 0, 0]	-999	PAL1	0	R1230J
1001.866	0.585	1433088	PRACTICE_RETRIEVAL_ORIENT_OFF	n/a	n/a	3	5	TONGUE	n/a	CHEST	TONGUE	-1	[0, 0, 0]	-999	PAL1	0	R1230J
1002.451	0.0	1433673	PRACTICE_PROBE	n/a	n/a	3	5	TONGUE	n/a	CHEST	TONGUE	-1	[0, 0, 0]	-999	PAL1	0	R1230J
1002.451	4.017	1433673	REC_START	n/a	n/a	3	-999	n/a	n/a	n/a	n/a	-1	[0, 0, 0]	-999	PAL1	0	R1230J
1006.468	0.998	1437690	PROBE_OFF	n/a	n/a	3	-999	n/a	n/a	n/a	n/a	-1	[0, 0, 0]	-999	PAL1	0	R1230J
1007.466	0.002	1438688	REC_EVENT	5015	n/a	3	5	TONGUE	<>	CHEST	TONGUE	-1	[0, 0, 0]	-999	PAL1	0	R1230J
1007.468	0.017	1438690	REC_END	n/a	n/a	3	-999	n/a	n/a	n/a	n/a	-1	[0, 0, 0]	-999	PAL1	0	R1230J
1007.485	0.266	1438707	PRACTICE_RETRIEVAL_ORIENT	n/a	n/a	6	6	BEAM	n/a	RHINO	BEAM	-1	[0, 0, 0]	-999	PAL1	0	R1230J
1007.751	0.583	1438973	PRACTICE_RETRIEVAL_ORIENT_OFF	n/a	n/a	6	6	BEAM	n/a	RHINO	BEAM	-1	[0, 0, 0]	-999	PAL1	0	R1230J
1008.334	0.0	1439556	REC_START	n/a	n/a	6	-999	n/a	n/a	n/a	n/a	-1	[0, 0, 0]	-999	PAL1	0	R1230J
1008.334	4.018	1439556	PRACTICE_PROBE	n/a	n/a	6	6	BEAM	n/a	RHINO	BEAM	-1	[0, 0, 0]	-999	PAL1	0	R1230J
1012.352	0.997	1443574	PROBE_OFF	n/a	n/a	6	-999	n/a	n/a	n/a	n/a	-1	[0, 0, 0]	-999	PAL1	0	R1230J
1013.349	0.003	1444571	REC_EVENT	5015	n/a	6	6	BEAM	<>	RHINO	BEAM	-1	[0, 0, 0]	-999	PAL1	0	R1230J
1013.352	0.004	1444574	REC_END	n/a	n/a	6	-999	n/a	n/a	n/a	n/a	-1	[0, 0, 0]	-999	PAL1	0	R1230J
1013.356	4.963	1444578	RECALL_END	n/a	n/a	-999	-999	n/a	n/a	n/a	n/a	-1	[0, 0, 0]	-999	PAL1	0	R1230J
1018.319	10.928	1449541	TRIAL	n/a	n/a	-999	-999	n/a	n/a	n/a	n/a	1	[0, 0, 0]	-999	PAL1	0	R1230J
1029.247	0.006	1460469	ENCODING_START	n/a	n/a	-999	-999	n/a	n/a	n/a	n/a	1	[0, 0, 0]	-999	PAL1	0	R1230J
1029.253	0.251	1460475	STUDY_ORIENT	n/a	n/a	1	5	SHIELD	n/a	SHIELD	TOE	1	[0, 0, 0]	-999	PAL1	0	R1230J
1029.504	0.533	1460726	STUDY_ORIENT_OFF	n/a	n/a	1	5	SHIELD	n/a	SHIELD	TOE	1	[0, 0, 0]	-999	PAL1	0	R1230J
1030.037	4.017	1461259	STUDY_PAIR	n/a	wordpools/wordpool_EN.txt	1	5	SHIELD	n/a	SHIELD	TOE	1	[0, 0, 0]	-999	PAL1	0	R1230J
1034.054	1.016	1465276	PAIR_OFF	n/a	n/a	1	5	SHIELD	n/a	SHIELD	TOE	1	[0, 0, 0]	-999	PAL1	0	R1230J
1035.07	0.267	1466292	STUDY_ORIENT	n/a	n/a	2	6	SOCK	n/a	SOCK	INK	1	[0, 0, 0]	-999	PAL1	0	R1230J
1035.337	0.7	1466559	STUDY_ORIENT_OFF	n/a	n/a	2	6	SOCK	n/a	SOCK	INK	1	[0, 0, 0]	-999	PAL1	0	R1230J
1036.037	4.018	1467259	STUDY_PAIR	n/a	wordpools/wordpool_EN.txt	2	6	SOCK	n/a	SOCK	INK	1	[0, 0, 0]	-999	PAL1	0	R1230J
1040.055	1.016	1471277	PAIR_OFF	n/a	n/a	2	6	SOCK	n/a	SOCK	INK	1	[0, 0, 0]	-999	PAL1	0	R1230J
1041.071	0.267	1472293	STUDY_ORIENT	n/a	n/a	3	1	TAIL	COTTON	TAIL	EEL	1	[0, 0, 0]	-999	PAL1	0	R1230J
1041.338	0.767	1472560	STUDY_ORIENT_OFF	n/a	n/a	3	1	TAIL	COTTON	TAIL	EEL	1	[0, 0, 0]	-999	PAL1	0	R1230J
1042.105	4.017	1473327	STUDY_PAIR	n/a	wordpools/wordpool_EN.txt	3	1	TAIL	COTTON	TAIL	EEL	1	[0, 0, 0]	-999	PAL1	0	R1230J
1046.122	1.017	1477344	PAIR_OFF	n/a	n/a	3	1	TAIL	COTTON	TAIL	EEL	1	[0, 0, 0]	-999	PAL1	0	R1230J
1047.139	0.268	1478361	STUDY_ORIENT	n/a	n/a	4	4	FACE	THUMB	FACE	THUMB	1	[0, 0, 0]	-999	PAL1	0	R1230J
1047.407	0.765	1478629	STUDY_ORIENT_OFF	n/a	n/a	4	4	FACE	THUMB	FACE	THUMB	1	[0, 0, 0]	-999	PAL1	0	R1230J
1048.172	4.017	1479394	STUDY_PAIR	n/a	wordpools/wordpool_EN.txt	4	4	FACE	THUMB	FACE	THUMB	1	[0, 0, 0]	-999	PAL1	0	R1230J
1052.189	1.017	1483411	PAIR_OFF	n/a	n/a	4	4	FACE	THUMB	FACE	THUMB	1	[0, 0, 0]	-999	PAL1	0	R1230J
1053.206	0.251	1484428	STUDY_ORIENT	n/a	n/a	5	3	MAIL	PIT	PIT	MAIL	1	[0, 0, 0]	-999	PAL1	0	R1230J
1053.457	0.549	1484679	STUDY_ORIENT_OFF	n/a	n/a	5	3	MAIL	PIT	PIT	MAIL	1	[0, 0, 0]	-999	PAL1	0	R1230J
1054.006	4.018	1485228	STUDY_PAIR	n/a	wordpools/wordpool_EN.txt	5	3	MAIL	PIT	PIT	MAIL	1	[0, 0, 0]	-999	PAL1	0	R1230J
1058.024	1.016	1489246	PAIR_OFF	n/a	n/a	5	3	MAIL	PIT	PIT	MAIL	1	[0, 0, 0]	-999	PAL1	0	R1230J
1059.04	0.267	1490262	STUDY_ORIENT	n/a	n/a	6	2	HOSE	PANTS	HOSE	PASTE	1	[0, 0, 0]	-999	PAL1	0	R1230J
1059.307	0.6	1490529	STUDY_ORIENT_OFF	n/a	n/a	6	2	HOSE	PANTS	HOSE	PASTE	1	[0, 0, 0]	-999	PAL1	0	R1230J
1059.907	4.018	1491129	STUDY_PAIR	n/a	wordpools/wordpool_EN.txt	6	2	HOSE	PANTS	HOSE	PASTE	1	[0, 0, 0]	-999	PAL1	0	R1230J
1063.925	1.0	1495147	PAIR_OFF	n/a	n/a	6	2	HOSE	PANTS	HOSE	PASTE	1	[0, 0, 0]	-999	PAL1	0	R1230J
1064.925	0.0	1496147	ENCODING_END	n/a	n/a	-999	-999	n/a	n/a	n/a	n/a	1	[0, 0, 0]	-999	PAL1	0	R1230J
1064.925	0.001	1496147	MATH_START	n/a	n/a	-999	-999	n/a	n/a	n/a	n/a	1	[0, 0, 0]	-999	PAL1	0	R1230J
1064.926	0.015	1496148	START	n/a	n/a	-999	-999	n/a	n/a	n/a	n/a	1	[-999, -999, -999]	-999	PAL1	0	R1230J
1064.941	3.934	1496163	PROB	3908	n/a	-999	-999	n/a	n/a	n/a	n/a	1	[5, 6, 7]	18	PAL1	0	R1230J
1068.875	1.802	1500097	PROB	1775	n/a	-999	-999	n/a	n/a	n/a	n/a	1	[1, 9, 2]	12	PAL1	0	R1230J
1070.677	2.115	1501899	PROB	2083	n/a	-999	-999	n/a	n/a	n/a	n/a	1	[1, 2, 1]	4	PAL1	0	R1230J
1072.792	1.618	1504014	PROB	1594	n/a	-999	-999	n/a	n/a	n/a	n/a	1	[7, 3, 3]	13	PAL1	0	R1230J
1074.41	1.816	1505631	PROB	1790	n/a	-999	-999	n/a	n/a	n/a	n/a	1	[3, 3, 7]	13	PAL1	0	R1230J
1076.226	2.285	1507447	PROB	2248	n/a	-999	-999	n/a	n/a	n/a	n/a	1	[4, 1, 3]	8	PAL1	0	R1230J
1078.511	2.599	1509732	PROB	2576	n/a	-999	-999	n/a	n/a	n/a	n/a	1	[6, 6, 2]	14	PAL1	0	R1230J
1081.11	2.117	1512331	PROB	2090	n/a	-999	-999	n/a	n/a	n/a	n/a	1	[9, 5, 1]	1	PAL1	0	R1230J
1083.227	3.028	1514448	PROB	3028	n/a	-999	-999	n/a	n/a	n/a	n/a	1	[2, 3, 6]	11	PAL1	0	R1230J
1086.255	0.006	1517476	STOP	n/a	n/a	-999	-999	n/a	n/a	n/a	n/a	1	[-999, -999, -999]	-999	PAL1	0	R1230J
1086.261	0.0	1517482	MATH_END	n/a	n/a	-999	-999	n/a	n/a	n/a	n/a	1	[0, 0, 0]	-999	PAL1	0	R1230J
1086.261	0.016	1517482	RECALL_START	n/a	n/a	-999	-999	n/a	n/a	n/a	n/a	1	[0, 0, 0]	-999	PAL1	0	R1230J
1086.277	0.268	1517498	TEST_ORIENT	n/a	n/a	3	1	TAIL	COTTON	TAIL	EEL	1	[0, 0, 0]	-999	PAL1	0	R1230J
1086.545	0.599	1517766	RETRIEVAL_ORIENT_OFF	n/a	n/a	-999	-999	n/a	n/a	n/a	n/a	1	[0, 0, 0]	-999	PAL1	0	R1230J
1087.144	0.001	1518365	TEST_PROBE	n/a	wordpools/wordpool_EN.txt	3	1	TAIL	COTTON	TAIL	EEL	1	[0, 0, 0]	-999	PAL1	0	R1230J
1087.145	1.188	1518366	REC_START	n/a	n/a	3	-999	n/a	COTTON	n/a	n/a	1	[0, 0, 0]	-999	PAL1	0	R1230J
1088.333	2.828	1519554	REC_EVENT	1188	n/a	3	1	TAIL	COTTON	TAIL	EEL	1	[0, 0, 0]	-999	PAL1	0	R1230J
1091.161	1.0	1522382	PROBE_OFF	n/a	n/a	3	-999	n/a	n/a	n/a	n/a	1	[0, 0, 0]	-999	PAL1	0	R1230J
1092.161	0.017	1523382	REC_END	n/a	n/a	3	-999	n/a	n/a	n/a	n/a	1	[0, 0, 0]	-999	PAL1	0	R1230J
1092.178	0.268	1523399	TEST_ORIENT	n/a	n/a	6	2	HOSE	PANTS	HOSE	PASTE	1	[0, 0, 0]	-999	PAL1	0	R1230J
1092.446	0.566	1523667	RETRIEVAL_ORIENT_OFF	n/a	n/a	3	-999	n/a	n/a	n/a	n/a	1	[0, 0, 0]	-999	PAL1	0	R1230J
1093.012	0.0	1524233	TEST_PROBE	n/a	wordpools/wordpool_EN.txt	6	2	HOSE	PANTS	HOSE	PASTE	1	[0, 0, 0]	-999	PAL1	0	R1230J
1093.012	1.318	1524233	REC_START	n/a	n/a	6	-999	n/a	PANTS	n/a	n/a	1	[0, 0, 0]	-999	PAL1	0	R1230J
1094.33	2.699	1525551	REC_EVENT	1318	n/a	6	2	HOSE	PANTS	HOSE	PASTE	1	[0, 0, 0]	-999	PAL1	0	R1230J
1097.029	1.011	1528250	PROBE_OFF	n/a	n/a	6	-999	n/a	n/a	n/a	n/a	1	[0, 0, 0]	-999	PAL1	0	R1230J
1098.04	0.022	1529261	REC_END	n/a	n/a	6	-999	n/a	n/a	n/a	n/a	1	[0, 0, 0]	-999	PAL1	0	R1230J
1098.062	0.267	1529283	TEST_ORIENT	n/a	n/a	5	3	MAIL	PIT	PIT	MAIL	1	[0, 0, 0]	-999	PAL1	0	R1230J
1098.329	0.7	1529550	RETRIEVAL_ORIENT_OFF	n/a	n/a	6	-999	n/a	n/a	n/a	n/a	1	[0, 0, 0]	-999	PAL1	0	R1230J
1099.029	0.001	1530250	TEST_PROBE	n/a	wordpools/wordpool_EN.txt	5	3	MAIL	PIT	PIT	MAIL	1	[0, 0, 0]	-999	PAL1	0	R1230J
1099.03	1.236	1530251	REC_START	n/a	n/a	5	-999	n/a	PIT	n/a	n/a	1	[0, 0, 0]	-999	PAL1	0	R1230J
1100.266	2.78	1531487	REC_EVENT	1236	n/a	5	3	MAIL	PIT	PIT	MAIL	1	[0, 0, 0]	-999	PAL1	0	R1230J
1103.046	1.0	1534267	PROBE_OFF	n/a	n/a	5	-999	n/a	n/a	n/a	n/a	1	[0, 0, 0]	-999	PAL1	0	R1230J
1104.046	0.017	1535267	REC_END	n/a	n/a	5	-999	n/a	n/a	n/a	n/a	1	[0, 0, 0]	-999	PAL1	0	R1230J
1104.063	0.267	1535284	TEST_ORIENT	n/a	n/a	4	4	FACE	THUMB	FACE	THUMB	1	[0, 0, 0]	-999	PAL1	0	R1230J
1104.33	0.617	1535551	RETRIEVAL_ORIENT_OFF	n/a	n/a	5	-999	n/a	n/a	n/a	n/a	1	[0, 0, 0]	-999	PAL1	0	R1230J
1104.947	0.0	1536168	TEST_PROBE	n/a	wordpools/wordpool_EN.txt	4	4	FACE	THUMB	FACE	THUMB	1	[0, 0, 0]	-999	PAL1	0	R1230J
1104.947	1.114	1536168	REC_START	n/a	n/a	4	-999	n/a	THUMB	n/a	n/a	1	[0, 0, 0]	-999	PAL1	0	R1230J
1106.061	2.903	1537282	REC_EVENT	1114	n/a	4	4	FACE	THUMB	FACE	THUMB	1	[0, 0, 0]	-999	PAL1	0	R1230J
1108.964	1.001	1540185	PROBE_OFF	n/a	n/a	4	-999	n/a	n/a	n/a	n/a	1	[0, 0, 0]	-999	PAL1	0	R1230J
1109.965	0.016	1541186	REC_END	n/a	n/a	4	-999	n/a	n/a	n/a	n/a	1	[0, 0, 0]	-999	PAL1	0	R1230J
1109.981	0.266	1541202	TEST_ORIENT	n/a	n/a	1	5	SHIELD	n/a	SHIELD	TOE	1	[0, 0, 0]	-999	PAL1	0	R1230J
1110.247	0.75	1541468	RETRIEVAL_ORIENT_OFF	n/a	n/a	4	-999	n/a	n/a	n/a	n/a	1	[0, 0, 0]	-999	PAL1	0	R1230J
1110.997	0.001	1542218	TEST_PROBE	n/a	wordpools/wordpool_EN.txt	1	5	SHIELD	n/a	SHIELD	TOE	1	[0, 0, 0]	-999	PAL1	0	R1230J
1110.998	4.017	1542219	REC_START	n/a	n/a	1	-999	n/a	n/a	n/a	n/a	1	[0, 0, 0]	-999	PAL1	0	R1230J
1115.015	0.998	1546236	PROBE_OFF	n/a	n/a	1	-999	n/a	n/a	n/a	n/a	1	[0, 0, 0]	-999	PAL1	0	R1230J
1116.013	0.003	1547234	REC_EVENT	5015	n/a	1	5	SHIELD	<>	SHIELD	TOE	1	[0, 0, 0]	-999	PAL1	0	R1230J
1116.016	0.015	1547237	REC_END	n/a	n/a	1	-999	n/a	n/a	n/a	n/a	1	[0, 0, 0]	-999	PAL1	0	R1230J
1116.031	0.267	1547252	TEST_ORIENT	n/a	n/a	2	6	SOCK	n/a	SOCK	INK	1	[0, 0, 0]	-999	PAL1	0	R1230J
1116.298	0.717	1547519	RETRIEVAL_ORIENT_OFF	n/a	n/a	1	-999	n/a	n/a	n/a	n/a	1	[0, 0, 0]	-999	PAL1	0	R1230J
1117.015	0.001	1548236	TEST_PROBE	n/a	wordpools/wordpool_EN.txt	2	6	SOCK	n/a	SOCK	INK	1	[0, 0, 0]	-999	PAL1	0	R1230J
1117.016	4.016	1548237	REC_START	n/a	n/a	2	-999	n/a	n/a	n/a	n/a	1	[0, 0, 0]	-999	PAL1	0	R1230J
1121.032	0.999	1552253	PROBE_OFF	n/a	n/a	2	-999	n/a	n/a	n/a	n/a	1	[0, 0, 0]	-999	PAL1	0	R1230J
1122.031	0.002	1553252	REC_EVENT	5015	n/a	2	6	SOCK	<>	SOCK	INK	1	[0, 0, 0]	-999	PAL1	0	R1230J
1122.033	0.01	1553254	REC_END	n/a	n/a	2	-999	n/a	n/a	n/a	n/a	1	[0, 0, 0]	-999	PAL1	0	R1230J
1122.043	4.257	1553264	RECALL_END	n/a	n/a	-999	-999	n/a	n/a	n/a	n/a	1	[0, 0, 0]	-999	PAL1	0	R1230J
1126.3	10.929	1557521	TRIAL	n/a	n/a	-999	-999	n/a	n/a	n/a	n/a	2	[0, 0, 0]	-999	PAL1	0	R1230J
1137.229	0.005	1568450	ENCODING_START	n/a	n/a	-999	-999	n/a	n/a	n/a	n/a	2	[0, 0, 0]	-999	PAL1	0	R1230J
1137.234	0.251	1568455	STUDY_ORIENT	n/a	n/a	1	3	FORK	BEE	BEE	FORK	2	[0, 0, 0]	-999	PAL1	0	R1230J
1137.485	0.633	1568706	STUDY_ORIENT_OFF	n/a	n/a	1	3	FORK	BEE	BEE	FORK	2	[0, 0, 0]	-999	PAL1	0	R1230J
1138.118	4.017	1569339	STUDY_PAIR	n/a	wordpools/wordpool_EN.txt	1	3	FORK	BEE	BEE	FORK	2	[0, 0, 0]	-999	PAL1	0	R1230J
1142.135	1.017	1573356	PAIR_OFF	n/a	n/a	1	3	FORK	BEE	BEE	FORK	2	[0, 0, 0]	-999	PAL1	0	R1230J
1143.152	0.267	1574373	STUDY_ORIENT	n/a	n/a	2	6	SHIP	GARDEN	SHIP	WALL	2	[0, 0, 0]	-999	PAL1	0	R1230J
1143.419	0.666	1574640	STUDY_ORIENT_OFF	n/a	n/a	2	6	SHIP	GARDEN	SHIP	WALL	2	[0, 0, 0]	-999	PAL1	0	R1230J
1144.085	4.018	1575306	STUDY_PAIR	n/a	wordpools/wordpool_EN.txt	2	6	SHIP	GARDEN	SHIP	WALL	2	[0, 0, 0]	-999	PAL1	0	R1230J
1148.103	1.016	1579324	PAIR_OFF	n/a	n/a	2	6	SHIP	GARDEN	SHIP	WALL	2	[0, 0, 0]	-999	PAL1	0	R1230J
1149.119	0.268	1580340	STUDY_ORIENT	n/a	n/a	3	1	CAVE	TEA	TEA	CAVE	2	[0, 0, 0]	-999	PAL1	0	R1230J
1149.387	0.599	1580608	STUDY_ORIENT_OFF	n/a	n/a	3	1	CAVE	TEA	TEA	CAVE	2	[0, 0, 0]	-999	PAL1	0	R1230J
1149.986	4.017	1581207	STUDY_PAIR	n/a	wordpools/wordpool_EN.txt	3	1	CAVE	TEA	TEA	CAVE	2	[0, 0, 0]	-999	PAL1	0	R1230J
1154.003	1.017	1585224	PAIR_OFF	n/a	n/a	3	1	CAVE	TEA	TEA	CAVE	2	[0, 0, 0]	-999	PAL1	0	R1230J
1155.02	0.267	1586241	STUDY_ORIENT	n/a	n/a	4	4	MOLE	n/a	MOLE	FOG	2	[0, 0, 0]	-999	PAL1	0	R1230J
1155.287	0.767	1586508	STUDY_ORIENT_OFF	n/a	n/a	4	4	MOLE	n/a	MOLE	FOG	2	[0, 0, 0]	-999	PAL1	0	R1230J
1156.054	4.017	1587275	STUDY_PAIR	n/a	wordpools/wordpool_EN.txt	4	4	MOLE	n/a	MOLE	FOG	2	[0, 0, 0]	-999	PAL1	0	R1230J
1160.071	1.016	1591292	PAIR_OFF	n/a	n/a	4	4	MOLE	n/a	MOLE	FOG	2	[0, 0, 0]	-999	PAL1	0	R1230J
1161.087	0.268	1592308	STUDY_ORIENT	n/a	n/a	5	5	FUR	n/a	FUR	VASE	2	[0, 0, 0]	-999	PAL1	0	R1230J
1161.355	0.532	1592576	STUDY_ORIENT_OFF	n/a	n/a	5	5	FUR	n/a	FUR	VASE	2	[0, 0, 0]	-999	PAL1	0	R1230J
1161.887	4.018	1593108	STUDY_PAIR	n/a	wordpools/wordpool_EN.txt	5	5	FUR	n/a	FUR	VASE	2	[0, 0, 0]	-999	PAL1	0	R1230J
1165.905	1.017	1597126	PAIR_OFF	n/a	n/a	5	5	FUR	n/a	FUR	VASE	2	[0, 0, 0]	-999	PAL1	0	R1230J
1166.922	0.266	1598143	STUDY_ORIENT	n/a	n/a	6	2	PLANT	n/a	PLANT	RAT	2	[0, 0, 0]	-999	PAL1	0	R1230J
1167.188	0.567	1598409	STUDY_ORIENT_OFF	n/a	n/a	6	2	PLANT	n/a	PLANT	RAT	2	[0, 0, 0]	-999	PAL1	0	R1230J
1167.755	4.017	1598976	STUDY_PAIR	n/a	wordpools/wordpool_EN.txt	6	2	PLANT	n/a	PLANT	RAT	2	[0, 0, 0]	-999	PAL1	0	R1230J
1171.772	1.001	1602993	PAIR_OFF	n/a	n/a	6	2	PLANT	n/a	PLANT	RAT	2	[0, 0, 0]	-999	PAL1	0	R1230J
1172.773	0.0	1603994	ENCODING_END	n/a	n/a	-999	-999	n/a	n/a	n/a	n/a	2	[0, 0, 0]	-999	PAL1	0	R1230J
1172.773	0.0	1603994	MATH_START	n/a	n/a	-999	-999	n/a	n/a	n/a	n/a	2	[0, 0, 0]	-999	PAL1	0	R1230J
1172.773	0.016	1603994	START	n/a	n/a	-999	-999	n/a	n/a	n/a	n/a	2	[-999, -999, -999]	-999	PAL1	0	R1230J
1172.789	4.201	1604010	PROB	4167	n/a	-999	-999	n/a	n/a	n/a	n/a	2	[9, 7, 5]	21	PAL1	0	R1230J
1176.99	1.651	1608211	PROB	1624	n/a	-999	-999	n/a	n/a	n/a	n/a	2	[3, 7, 3]	13	PAL1	0	R1230J
1178.641	3.116	1609862	PROB	3084	n/a	-999	-999	n/a	n/a	n/a	n/a	2	[3, 5, 9]	17	PAL1	0	R1230J
1181.757	2.868	1612978	PROB	2841	n/a	-999	-999	n/a	n/a	n/a	n/a	2	[5, 8, 7]	20	PAL1	0	R1230J
1184.625	3.683	1615846	PROB	3652	n/a	-999	-999	n/a	n/a	n/a	n/a	2	[2, 6, 9]	17	PAL1	0	R1230J
1188.308	3.135	1619529	PROB	3113	n/a	-999	-999	n/a	n/a	n/a	n/a	2	[4, 8, 3]	15	PAL1	0	R1230J
1191.443	3.098	1622664	PROB	3098	n/a	-999	-999	n/a	n/a	n/a	n/a	2	[8, 7, 8]	23	PAL1	0	R1230J
1194.541	0.019	1625762	STOP	n/a	n/a	-999	-999	n/a	n/a	n/a	n/a	2	[-999, -999, -999]	-999	PAL1	0	R1230J
1194.56	0.0	1625781	RECALL_START	n/a	n/a	-999	-999	n/a	n/a	n/a	n/a	2	[0, 0, 0]	-999	PAL1	0	R1230J
1194.56	0.016	1625781	MATH_END	n/a	n/a	-999	-999	n/a	n/a	n/a	n/a	2	[0, 0, 0]	-999	PAL1	0	R1230J
1194.576	0.266	1625797	TEST_ORIENT	n/a	n/a	3	1	CAVE	TEA	TEA	CAVE	2	[0, 0, 0]	-999	PAL1	0	R1230J
1194.842	0.684	1626063	RETRIEVAL_ORIENT_OFF	n/a	n/a	-999	-999	n/a	n/a	n/a	n/a	2	[0, 0, 0]	-999	PAL1	0	R1230J
1195.526	0.001	1626747	TEST_PROBE	n/a	wordpools/wordpool_EN.txt	3	1	CAVE	TEA	TEA	CAVE	2	[0, 0, 0]	-999	PAL1	0	R1230J
1195.527	3.745	1626748	REC_START	n/a	n/a	3	-999	n/a	TEA	n/a	n/a	2	[0, 0, 0]	-999	PAL1	0	R1230J
1199.272	0.255	1630493	REC_EVENT	3745	n/a	3	1	CAVE	TEA	TEA	CAVE	2	[0, 0, 0]	-999	PAL1	0	R1230J
1199.527	1.0	1630748	PROBE_OFF	n/a	n/a	3	-999	n/a	n/a	n/a	n/a	2	[0, 0, 0]	-999	PAL1	0	R1230J
1200.527	0.017	1631748	REC_END	n/a	n/a	3	-999	n/a	n/a	n/a	n/a	2	[0, 0, 0]	-999	PAL1	0	R1230J
1200.544	0.265	1631765	TEST_ORIENT	n/a	n/a	6	2	PLANT	n/a	PLANT	RAT	2	[0, 0, 0]	-999	PAL1	0	R1230J
1200.809	0.702	1632030	RETRIEVAL_ORIENT_OFF	n/a	n/a	3	-999	n/a	n/a	n/a	n/a	2	[0, 0, 0]	-999	PAL1	0	R1230J
1201.511	0.0	1632732	TEST_PROBE	n/a	wordpools/wordpool_EN.txt	6	2	PLANT	n/a	PLANT	RAT	2	[0, 0, 0]	-999	PAL1	0	R1230J
1201.511	4.017	1632732	REC_START	n/a	n/a	6	-999	n/a	n/a	n/a	n/a	2	[0, 0, 0]	-999	PAL1	0	R1230J
1205.528	0.428	1636749	PROBE_OFF	n/a	n/a	6	-999	n/a	n/a	n/a	n/a	2	[0, 0, 0]	-999	PAL1	0	R1230J
1205.956	0.572	1637177	REC_EVENT	4445	n/a	6	2	PLANT	<>	PLANT	RAT	2	[0, 0, 0]	-999	PAL1	0	R1230J
1206.528	0.017	1637749	REC_END	n/a	n/a	6	-999	n/a	n/a	n/a	n/a	2	[0, 0, 0]	-999	PAL1	0	R1230J
1206.545	0.265	1637766	TEST_ORIENT	n/a	n/a	1	3	FORK	BEE	BEE	FORK	2	[0, 0, 0]	-999	PAL1	0	R1230J
1206.81	0.685	1638031	RETRIEVAL_ORIENT_OFF	n/a	n/a	6	-999	n/a	n/a	n/a	n/a	2	[0, 0, 0]	-999	PAL1	0	R1230J
1207.495	0.0	1638716	TEST_PROBE	n/a	wordpools/wordpool_EN.txt	1	3	FORK	BEE	BEE	FORK	2	[0, 0, 0]	-999	PAL1	0	R1230J
1207.495	2.127	1638716	REC_START	n/a	n/a	1	-999	n/a	BEE	n/a	n/a	2	[0, 0, 0]	-999	PAL1	0	R1230J
1209.622	1.89	1640843	REC_EVENT	2127	n/a	1	3	FORK	BEE	BEE	FORK	2	[0, 0, 0]	-999	PAL1	0	R1230J
1211.512	1.0	1642733	PROBE_OFF	n/a	n/a	1	-999	n/a	n/a	n/a	n/a	2	[0, 0, 0]	-999	PAL1	0	R1230J
1212.512	0.017	1643733	REC_END	n/a	n/a	1	-999	n/a	n/a	n/a	n/a	2	[0, 0, 0]	-999	PAL1	0	R1230J
1212.529	0.265	1643750	TEST_ORIENT	n/a	n/a	4	4	MOLE	n/a	MOLE	FOG	2	[0, 0, 0]	-999	PAL1	0	R1230J
1212.794	0.55	1644015	RETRIEVAL_ORIENT_OFF	n/a	n/a	1	-999	n/a	n/a	n/a	n/a	2	[0, 0, 0]	-999	PAL1	0	R1230J
1213.344	0.001	1644565	TEST_PROBE	n/a	wordpools/wordpool_EN.txt	4	4	MOLE	n/a	MOLE	FOG	2	[0, 0, 0]	-999	PAL1	0	R1230J
1213.345	4.018	1644566	REC_START	n/a	n/a	4	-999	n/a	n/a	n/a	n/a	2	[0, 0, 0]	-999	PAL1	0	R1230J
1217.363	1.0	1648584	PROBE_OFF	n/a	n/a	4	-999	n/a	n/a	n/a	n/a	2	[0, 0, 0]	-999	PAL1	0	R1230J
1218.363	0.003	1649584	REC_END	n/a	n/a	4	-999	n/a	n/a	n/a	n/a	2	[0, 0, 0]	-999	PAL1	0	R1230J
1218.366	0.014	1649587	REC_EVENT	5021	n/a	4	4	MOLE	<>	MOLE	FOG	2	[0, 0, 0]	-999	PAL1	0	R1230J
1218.38	0.266	1649601	TEST_ORIENT	n/a	n/a	5	5	FUR	n/a	FUR	VASE	2	[0, 0, 0]	-999	PAL1	0	R1230J
1218.646	0.616	1649867	RETRIEVAL_ORIENT_OFF	n/a	n/a	4	-999	n/a	n/a	n/a	n/a	2	[0, 0, 0]	-999	PAL1	0	R1230J
1219.262	0.005	1650483	TEST_PROBE	n/a	wordpools/wordpool_EN.txt	5	5	FUR	n/a	FUR	VASE	2	[0, 0, 0]	-999	PAL1	0	R1230J
1219.267	4.012	1650488	REC_START	n/a	n/a	5	-999	n/a	n/a	n/a	n/a	2	[0, 0, 0]	-999	PAL1	0	R1230J
1223.279	0.997	1654500	PROBE_OFF	n/a	n/a	5	-999	n/a	n/a	n/a	n/a	2	[0, 0, 0]	-999	PAL1	0	R1230J
1224.276	0.003	1655497	REC_EVENT	5009	n/a	5	5	FUR	<>	FUR	VASE	2	[0, 0, 0]	-999	PAL1	0	R1230J
1224.279	0.017	1655500	REC_END	n/a	n/a	5	-999	n/a	n/a	n/a	n/a	2	[0, 0, 0]	-999	PAL1	0	R1230J
1224.296	0.268	1655517	TEST_ORIENT	n/a	n/a	2	6	SHIP	GARDEN	SHIP	WALL	2	[0, 0, 0]	-999	PAL1	0	R1230J
1224.564	0.582	1655785	RETRIEVAL_ORIENT_OFF	n/a	n/a	5	-999	n/a	n/a	n/a	n/a	2	[0, 0, 0]	-999	PAL1	0	R1230J
1225.146	0.001	1656367	TEST_PROBE	n/a	wordpools/wordpool_EN.txt	2	6	SHIP	GARDEN	SHIP	WALL	2	[0, 0, 0]	-999	PAL1	0	R1230J
1225.147	2.725	1656368	REC_START	n/a	n/a	2	-999	n/a	GARDEN	n/a	n/a	2	[0, 0, 0]	-999	PAL1	0	R1230J
1227.872	1.291	1659093	REC_EVENT	2725	n/a	2	6	SHIP	GARDEN	SHIP	WALL	2	[0, 0, 0]	-999	PAL1	0	R1230J
1229.163	1.001	1660384	PROBE_OFF	n/a	n/a	2	-999	n/a	n/a	n/a	n/a	2	[0, 0, 0]	-999	PAL1	0	R1230J
1230.164	0.01	1661385	REC_END	n/a	n/a	2	-999	n/a	n/a	n/a	n/a	2	[0, 0, 0]	-999	PAL1	0	R1230J
1230.174	3.906	1661395	RECALL_END	n/a	n/a	-999	-999	n/a	n/a	n/a	n/a	2	[0, 0, 0]	-999	PAL1	0	R1230J
1234.08	10.929	1665301	TRIAL	n/a	n/a	-999	-999	n/a	n/a	n/a	n/a	3	[0, 0, 0]	-999	PAL1	0	R1230J
1245.009	0.007	1676230	ENCODING_START	n/a	n/a	-999	-999	n/a	n/a	n/a	n/a	3	[0, 0, 0]	-999	PAL1	0	R1230J
1245.016	0.266	1676237	STUDY_ORIENT	n/a	n/a	1	3	CONE	n/a	CONE	BOOK	3	[0, 0, 0]	-999	PAL1	0	R1230J
1245.282	0.751	1676503	STUDY_ORIENT_OFF	n/a	n/a	1	3	CONE	n/a	CONE	BOOK	3	[0, 0, 0]	-999	PAL1	0	R1230J
1246.033	4.017	1677254	STUDY_PAIR	n/a	wordpools/wordpool_EN.txt	1	3	CONE	n/a	CONE	BOOK	3	[0, 0, 0]	-999	PAL1	0	R1230J
1250.05	1.016	1681271	PAIR_OFF	n/a	n/a	1	3	CONE	n/a	CONE	BOOK	3	[0, 0, 0]	-999	PAL1	0	R1230J
1251.066	0.267	1682287	STUDY_ORIENT	n/a	n/a	2	6	SLUSH	n/a	SUN	SLUSH	3	[0, 0, 0]	-999	PAL1	0	R1230J
1251.333	0.75	1682554	STUDY_ORIENT_OFF	n/a	n/a	2	6	SLUSH	n/a	SUN	SLUSH	3	[0, 0, 0]	-999	PAL1	0	R1230J
1252.083	4.017	1683304	STUDY_PAIR	n/a	wordpools/wordpool_EN.txt	2	6	SLUSH	n/a	SUN	SLUSH	3	[0, 0, 0]	-999	PAL1	0	R1230J
1256.1	1.017	1687321	PAIR_OFF	n/a	n/a	2	6	SLUSH	n/a	SUN	SLUSH	3	[0, 0, 0]	-999	PAL1	0	R1230J
1257.117	0.268	1688338	STUDY_ORIENT	n/a	n/a	3	1	MILK	BREAD	BREAD	MILK	3	[0, 0, 0]	-999	PAL1	0	R1230J
1257.385	0.699	1688606	STUDY_ORIENT_OFF	n/a	n/a	3	1	MILK	BREAD	BREAD	MILK	3	[0, 0, 0]	-999	PAL1	0	R1230J
1258.084	4.017	1689305	STUDY_PAIR	n/a	wordpools/wordpool_EN.txt	3	1	MILK	BREAD	BREAD	MILK	3	[0, 0, 0]	-999	PAL1	0	R1230J
1262.101	1.017	1693322	PAIR_OFF	n/a	n/a	3	1	MILK	BREAD	BREAD	MILK	3	[0, 0, 0]	-999	PAL1	0	R1230J
1263.118	0.268	1694339	STUDY_ORIENT	n/a	n/a	4	4	MAT	SEAT	MAT	SEAT	3	[0, 0, 0]	-999	PAL1	0	R1230J
1263.386	0.682	1694607	STUDY_ORIENT_OFF	n/a	n/a	4	4	MAT	SEAT	MAT	SEAT	3	[0, 0, 0]	-999	PAL1	0	R1230J
1264.068	4.017	1695289	STUDY_PAIR	n/a	wordpools/wordpool_EN.txt	4	4	MAT	SEAT	MAT	SEAT	3	[0, 0, 0]	-999	PAL1	0	R1230J
1268.085	1.017	1699306	PAIR_OFF	n/a	n/a	4	4	MAT	SEAT	MAT	SEAT	3	[0, 0, 0]	-999	PAL1	0	R1230J
1269.102	0.268	1700323	STUDY_ORIENT	n/a	n/a	5	5	FOOT	n/a	RICE	FOOT	3	[0, 0, 0]	-999	PAL1	0	R1230J
1269.37	0.532	1700591	STUDY_ORIENT_OFF	n/a	n/a	5	5	FOOT	n/a	RICE	FOOT	3	[0, 0, 0]	-999	PAL1	0	R1230J
1269.902	4.017	1701123	STUDY_PAIR	n/a	wordpools/wordpool_EN.txt	5	5	FOOT	n/a	RICE	FOOT	3	[0, 0, 0]	-999	PAL1	0	R1230J
1273.919	1.017	1705140	PAIR_OFF	n/a	n/a	5	5	FOOT	n/a	RICE	FOOT	3	[0, 0, 0]	-999	PAL1	0	R1230J
1274.936	0.267	1706157	STUDY_ORIENT	n/a	n/a	6	2	BEAR	n/a	GLASS	BEAR	3	[0, 0, 0]	-999	PAL1	0	R1230J
1275.203	0.683	1706424	STUDY_ORIENT_OFF	n/a	n/a	6	2	BEAR	n/a	GLASS	BEAR	3	[0, 0, 0]	-999	PAL1	0	R1230J
1275.886	4.018	1707107	STUDY_PAIR	n/a	wordpools/wordpool_EN.txt	6	2	BEAR	n/a	GLASS	BEAR	3	[0, 0, 0]	-999	PAL1	0	R1230J
1279.904	1.001	1711125	PAIR_OFF	n/a	n/a	6	2	BEAR	n/a	GLASS	BEAR	3	[0, 0, 0]	-999	PAL1	0	R1230J
1280.905	0.0	1712126	ENCODING_END	n/a	n/a	-999	-999	n/a	n/a	n/a	n/a	3	[0, 0, 0]	-999	PAL1	0	R1230J
1280.905	0.0	1712126	MATH_START	n/a	n/a	-999	-999	n/a	n/a	n/a	n/a	3	[0, 0, 0]	-999	PAL1	0	R1230J
1280.905	0.015	1712126	START	n/a	n/a	-999	-999	n/a	n/a	n/a	n/a	3	[-999, -999, -999]	-999	PAL1	0	R1230J
1280.92	3.735	1712141	PROB	3698	n/a	-999	-999	n/a	n/a	n/a	n/a	3	[6, 8, 5]	19	PAL1	0	R1230J
1284.655	3.5	1715876	PROB	3474	n/a	-999	-999	n/a	n/a	n/a	n/a	3	[3, 6, 6]	15	PAL1	0	R1230J
1288.155	2.833	1719376	PROB	2805	n/a	-999	-999	n/a	n/a	n/a	n/a	3	[8, 5, 6]	19	PAL1	0	R1230J
1290.988	3.251	1722209	PROB	3220	n/a	-999	-999	n/a	n/a	n/a	n/a	3	[7, 9, 8]	24	PAL1	0	R1230J
1294.239	2.434	1725460	PROB	2410	n/a	-999	-999	n/a	n/a	n/a	n/a	3	[6, 5, 2]	13	PAL1	0	R1230J
1296.673	4.2	1727894	PROB	4168	n/a	-999	-999	n/a	n/a	n/a	n/a	3	[4, 7, 5]	16	PAL1	0	R1230J
1300.873	2.176	1732094	PROB	2176	n/a	-999	-999	n/a	n/a	n/a	n/a	3	[1, 1, 9]	11	PAL1	0	R1230J
1303.049	0.008	1734270	STOP	n/a	n/a	-999	-999	n/a	n/a	n/a	n/a	3	[-999, -999, -999]	-999	PAL1	0	R1230J
1303.057	0.0	1734278	RECALL_START	n/a	n/a	-999	-999	n/a	n/a	n/a	n/a	3	[0, 0, 0]	-999	PAL1	0	R1230J
1303.057	0.016	1734278	MATH_END	n/a	n/a	-999	-999	n/a	n/a	n/a	n/a	3	[0, 0, 0]	-999	PAL1	0	R1230J
1303.073	0.267	1734294	TEST_ORIENT	n/a	n/a	3	1	MILK	BREAD	BREAD	MILK	3	[0, 0, 0]	-999	PAL1	0	R1230J
1303.34	0.567	1734561	RETRIEVAL_ORIENT_OFF	n/a	n/a	-999	-999	n/a	n/a	n/a	n/a	3	[0, 0, 0]	-999	PAL1	0	R1230J
1303.907	0.001	1735128	TEST_PROBE	n/a	wordpools/wordpool_EN.txt	3	1	MILK	BREAD	BREAD	MILK	3	[0, 0, 0]	-999	PAL1	0	R1230J
1303.908	2.204	1735129	REC_START	n/a	n/a	3	-999	n/a	BREAD	n/a	n/a	3	[0, 0, 0]	-999	PAL1	0	R1230J
1306.112	1.812	1737333	REC_EVENT	2204	n/a	3	1	MILK	BREAD	BREAD	MILK	3	[0, 0, 0]	-999	PAL1	0	R1230J
1307.924	1.0	1739145	PROBE_OFF	n/a	n/a	3	-999	n/a	n/a	n/a	n/a	3	[0, 0, 0]	-999	PAL1	0	R1230J
1308.924	0.017	1740145	REC_END	n/a	n/a	3	-999	n/a	n/a	n/a	n/a	3	[0, 0, 0]	-999	PAL1	0	R1230J
1308.941	0.267	1740162	TEST_ORIENT	n/a	n/a	6	2	BEAR	n/a	GLASS	BEAR	3	[0, 0, 0]	-999	PAL1	0	R1230J
1309.208	0.7	1740429	RETRIEVAL_ORIENT_OFF	n/a	n/a	3	-999	n/a	n/a	n/a	n/a	3	[0, 0, 0]	-999	PAL1	0	R1230J
1309.908	0.001	1741129	TEST_PROBE	n/a	wordpools/wordpool_EN.txt	6	2	BEAR	n/a	GLASS	BEAR	3	[0, 0, 0]	-999	PAL1	0	R1230J
1309.909	4.016	1741130	REC_START	n/a	n/a	6	-999	n/a	n/a	n/a	n/a	3	[0, 0, 0]	-999	PAL1	0	R1230J
1313.925	0.999	1745146	PROBE_OFF	n/a	n/a	6	-999	n/a	n/a	n/a	n/a	3	[0, 0, 0]	-999	PAL1	0	R1230J
1314.924	0.001	1746145	REC_EVENT	5015	n/a	6	2	BEAR	<>	GLASS	BEAR	3	[0, 0, 0]	-999	PAL1	0	R1230J
1314.925	0.017	1746146	REC_END	n/a	n/a	6	-999	n/a	n/a	n/a	n/a	3	[0, 0, 0]	-999	PAL1	0	R1230J
1314.942	0.266	1746163	TEST_ORIENT	n/a	n/a	1	3	CONE	n/a	CONE	BOOK	3	[0, 0, 0]	-999	PAL1	0	R1230J
1315.208	0.717	1746429	RETRIEVAL_ORIENT_OFF	n/a	n/a	6	-999	n/a	n/a	n/a	n/a	3	[0, 0, 0]	-999	PAL1	0	R1230J
1315.925	0.001	1747146	TEST_PROBE	n/a	wordpools/wordpool_EN.txt	1	3	CONE	n/a	CONE	BOOK	3	[0, 0, 0]	-999	PAL1	0	R1230J
1315.926	4.016	1747147	REC_START	n/a	n/a	1	-999	n/a	n/a	n/a	n/a	3	[0, 0, 0]	-999	PAL1	0	R1230J
1319.942	0.999	1751163	PROBE_OFF	n/a	n/a	1	-999	n/a	n/a	n/a	n/a	3	[0, 0, 0]	-999	PAL1	0	R1230J
1320.941	0.001	1752162	REC_EVENT	5015	n/a	1	3	CONE	<>	CONE	BOOK	3	[0, 0, 0]	-999	PAL1	0	R1230J
1320.942	0.017	1752163	REC_END	n/a	n/a	1	-999	n/a	n/a	n/a	n/a	3	[0, 0, 0]	-999	PAL1	0	R1230J
1320.959	0.267	1752180	TEST_ORIENT	n/a	n/a	4	4	MAT	SEAT	MAT	SEAT	3	[0, 0, 0]	-999	PAL1	0	R1230J
1321.226	0.733	1752447	RETRIEVAL_ORIENT_OFF	n/a	n/a	1	-999	n/a	n/a	n/a	n/a	3	[0, 0, 0]	-999	PAL1	0	R1230J
1321.959	0.001	1753180	TEST_PROBE	n/a	wordpools/wordpool_EN.txt	4	4	MAT	SEAT	MAT	SEAT	3	[0, 0, 0]	-999	PAL1	0	R1230J
1321.96	1.791	1753181	REC_START	n/a	n/a	4	-999	n/a	SEAT	n/a	n/a	3	[0, 0, 0]	-999	PAL1	0	R1230J
1323.751	2.225	1754972	REC_EVENT	1791	n/a	4	4	MAT	SEAT	MAT	SEAT	3	[0, 0, 0]	-999	PAL1	0	R1230J
1325.976	1.0	1757197	PROBE_OFF	n/a	n/a	4	-999	n/a	n/a	n/a	n/a	3	[0, 0, 0]	-999	PAL1	0	R1230J
1326.976	0.017	1758197	REC_END	n/a	n/a	4	-999	n/a	n/a	n/a	n/a	3	[0, 0, 0]	-999	PAL1	0	R1230J
1326.993	0.267	1758214	TEST_ORIENT	n/a	n/a	5	5	FOOT	n/a	RICE	FOOT	3	[0, 0, 0]	-999	PAL1	0	R1230J
1327.26	0.7	1758481	RETRIEVAL_ORIENT_OFF	n/a	n/a	4	-999	n/a	n/a	n/a	n/a	3	[0, 0, 0]	-999	PAL1	0	R1230J
1327.96	0.001	1759181	TEST_PROBE	n/a	wordpools/wordpool_EN.txt	5	5	FOOT	n/a	RICE	FOOT	3	[0, 0, 0]	-999	PAL1	0	R1230J
1327.961	4.016	1759182	REC_START	n/a	n/a	5	-999	n/a	n/a	n/a	n/a	3	[0, 0, 0]	-999	PAL1	0	R1230J
1331.977	1.001	1763198	PROBE_OFF	n/a	n/a	5	-999	n/a	n/a	n/a	n/a	3	[0, 0, 0]	-999	PAL1	0	R1230J
1332.978	0.004	1764199	REC_END	n/a	n/a	5	-999	n/a	n/a	n/a	n/a	3	[0, 0, 0]	-999	PAL1	0	R1230J
1332.982	0.012	1764203	REC_EVENT	5021	n/a	5	5	FOOT	<>	RICE	FOOT	3	[0, 0, 0]	-999	PAL1	0	R1230J
1332.994	0.267	1764215	TEST_ORIENT	n/a	n/a	2	6	SLUSH	n/a	SUN	SLUSH	3	[0, 0, 0]	-999	PAL1	0	R1230J
1333.261	0.6	1764482	RETRIEVAL_ORIENT_OFF	n/a	n/a	5	-999	n/a	n/a	n/a	n/a	3	[0, 0, 0]	-999	PAL1	0	R1230J
1333.861	0.0	1765082	TEST_PROBE	n/a	wordpools/wordpool_EN.txt	2	6	SLUSH	n/a	SUN	SLUSH	3	[0, 0, 0]	-999	PAL1	0	R1230J
1333.861	4.017	1765082	REC_START	n/a	n/a	2	-999	n/a	n/a	n/a	n/a	3	[0, 0, 0]	-999	PAL1	0	R1230J
1337.878	0.998	1769099	PROBE_OFF	n/a	n/a	2	-999	n/a	n/a	n/a	n/a	3	[0, 0, 0]	-999	PAL1	0	R1230J
1338.876	0.002	1770097	REC_EVENT	5015	n/a	2	6	SLUSH	<>	SUN	SLUSH	3	[0, 0, 0]	-999	PAL1	0	R1230J
1338.878	0.011	1770099	REC_END	n/a	n/a	2	-999	n/a	n/a	n/a	n/a	3	[0, 0, 0]	-999	PAL1	0	R1230J
1338.889	4.09	1770110	RECALL_END	n/a	n/a	-999	-999	n/a	n/a	n/a	n/a	3	[0, 0, 0]	-999	PAL1	0	R1230J
1342.979	10.929	1774200	TRIAL	n/a	n/a	-999	-999	n/a	n/a	n/a	n/a	4	[0, 0, 0]	-999	PAL1	0	R1230J
1353.908	0.005	1785129	ENCODING_START	n/a	n/a	-999	-999	n/a	n/a	n/a	n/a	4	[0, 0, 0]	-999	PAL1	0	R1230J
1353.913	0.267	1785134	STUDY_ORIENT	n/a	n/a	1	3	BAG	LOOSE	BARN	BAG	4	[0, 0, 0]	-999	PAL1	0	R1230J
1354.18	0.667	1785401	STUDY_ORIENT_OFF	n/a	n/a	1	3	BAG	LOOSE	BARN	BAG	4	[0, 0, 0]	-999	PAL1	0	R1230J
1354.847	4.017	1786068	STUDY_PAIR	n/a	wordpools/wordpool_EN.txt	1	3	BAG	LOOSE	BARN	BAG	4	[0, 0, 0]	-999	PAL1	0	R1230J
1358.864	1.017	1790085	PAIR_OFF	n/a	n/a	1	3	BAG	LOOSE	BARN	BAG	4	[0, 0, 0]	-999	PAL1	0	R1230J
1359.881	0.267	1791102	STUDY_ORIENT	n/a	n/a	2	2	HOOF	n/a	HOOF	FLAG	4	[0, 0, 0]	-999	PAL1	0	R1230J
1360.148	0.65	1791369	STUDY_ORIENT_OFF	n/a	n/a	2	2	HOOF	n/a	HOOF	FLAG	4	[0, 0, 0]	-999	PAL1	0	R1230J
1360.798	4.017	1792019	STUDY_PAIR	n/a	wordpools/wordpool_EN.txt	2	2	HOOF	n/a	HOOF	FLAG	4	[0, 0, 0]	-999	PAL1	0	R1230J
1364.815	1.017	1796035	PAIR_OFF	n/a	n/a	2	2	HOOF	n/a	HOOF	FLAG	4	[0, 0, 0]	-999	PAL1	0	R1230J
1365.832	0.267	1797052	STUDY_ORIENT	n/a	n/a	3	5	AXE	n/a	AXE	SPOON	4	[0, 0, 0]	-999	PAL1	0	R1230J
1366.099	0.633	1797319	STUDY_ORIENT_OFF	n/a	n/a	3	5	AXE	n/a	AXE	SPOON	4	[0, 0, 0]	-999	PAL1	0	R1230J
1366.732	4.017	1797952	STUDY_PAIR	n/a	wordpools/wordpool_EN.txt	3	5	AXE	n/a	AXE	SPOON	4	[0, 0, 0]	-999	PAL1	0	R1230J
1370.749	1.017	1801969	PAIR_OFF	n/a	n/a	3	5	AXE	n/a	AXE	SPOON	4	[0, 0, 0]	-999	PAL1	0	R1230J
1371.766	0.267	1802986	STUDY_ORIENT	n/a	n/a	4	6	BOAT	SHIP	COIN	BOAT	4	[0, 0, 0]	-999	PAL1	0	R1230J
1372.033	0.534	1803253	STUDY_ORIENT_OFF	n/a	n/a	4	6	BOAT	SHIP	COIN	BOAT	4	[0, 0, 0]	-999	PAL1	0	R1230J
1372.567	4.017	1803787	STUDY_PAIR	n/a	wordpools/wordpool_EN.txt	4	6	BOAT	SHIP	COIN	BOAT	4	[0, 0, 0]	-999	PAL1	0	R1230J
1376.584	1.017	1807804	PAIR_OFF	n/a	n/a	4	6	BOAT	SHIP	COIN	BOAT	4	[0, 0, 0]	-999	PAL1	0	R1230J
1377.601	0.266	1808821	STUDY_ORIENT	n/a	n/a	5	1	BAND	n/a	BAND	SWORD	4	[0, 0, 0]	-999	PAL1	0	R1230J
1377.867	0.534	1809087	STUDY_ORIENT_OFF	n/a	n/a	5	1	BAND	n/a	BAND	SWORD	4	[0, 0, 0]	-999	PAL1	0	R1230J
1378.401	4.017	1809621	STUDY_PAIR	n/a	wordpools/wordpool_EN.txt	5	1	BAND	n/a	BAND	SWORD	4	[0, 0, 0]	-999	PAL1	0	R1230J
1382.418	1.017	1813638	PAIR_OFF	n/a	n/a	5	1	BAND	n/a	BAND	SWORD	4	[0, 0, 0]	-999	PAL1	0	R1230J
1383.435	0.266	1814655	STUDY_ORIENT	n/a	n/a	6	4	VINE	ROSE	VINE	ROSE	4	[0, 0, 0]	-999	PAL1	0	R1230J
1383.701	0.734	1814921	STUDY_ORIENT_OFF	n/a	n/a	6	4	VINE	ROSE	VINE	ROSE	4	[0, 0, 0]	-999	PAL1	0	R1230J
1384.435	4.018	1815655	STUDY_PAIR	n/a	wordpools/wordpool_EN.txt	6	4	VINE	ROSE	VINE	ROSE	4	[0, 0, 0]	-999	PAL1	0	R1230J
1388.453	1.001	1819673	PAIR_OFF	n/a	n/a	6	4	VINE	ROSE	VINE	ROSE	4	[0, 0, 0]	-999	PAL1	0	R1230J
1389.454	0.0	1820674	ENCODING_END	n/a	n/a	-999	-999	n/a	n/a	n/a	n/a	4	[0, 0, 0]	-999	PAL1	0	R1230J
1389.454	0.0	1820674	MATH_START	n/a	n/a	-999	-999	n/a	n/a	n/a	n/a	4	[0, 0, 0]	-999	PAL1	0	R1230J
1389.454	0.015	1820674	START	n/a	n/a	-999	-999	n/a	n/a	n/a	n/a	4	[-999, -999, -999]	-999	PAL1	0	R1230J
1389.469	3.184	1820689	PROB	3153	n/a	-999	-999	n/a	n/a	n/a	n/a	4	[7, 7, 4]	18	PAL1	0	R1230J
1392.653	2.917	1823873	PROB	2889	n/a	-999	-999	n/a	n/a	n/a	n/a	4	[9, 3, 9]	21	PAL1	0	R1230J
1395.57	2.216	1826790	PROB	2179	n/a	-999	-999	n/a	n/a	n/a	n/a	4	[9, 4, 4]	17	PAL1	0	R1230J
1397.786	2.818	1829006	PROB	2788	n/a	-999	-999	n/a	n/a	n/a	n/a	4	[3, 5, 9]	17	PAL1	0	R1230J
1400.604	3.399	1831824	PROB	3368	n/a	-999	-999	n/a	n/a	n/a	n/a	4	[8, 3, 8]	19	PAL1	0	R1230J
1404.003	2.619	1835223	PROB	2587	n/a	-999	-999	n/a	n/a	n/a	n/a	4	[5, 1, 8]	14	PAL1	0	R1230J
1406.622	2.482	1837842	PROB	2454	n/a	-999	-999	n/a	n/a	n/a	n/a	4	[6, 2, 8]	16	PAL1	0	R1230J
1409.104	2.509	1840324	PROB	2509	n/a	-999	-999	n/a	n/a	n/a	n/a	4	[2, 4, 3]	9	PAL1	0	R1230J
1411.613	0.009	1842833	STOP	n/a	n/a	-999	-999	n/a	n/a	n/a	n/a	4	[-999, -999, -999]	-999	PAL1	0	R1230J
1411.622	0.0	1842842	MATH_END	n/a	n/a	-999	-999	n/a	n/a	n/a	n/a	4	[0, 0, 0]	-999	PAL1	0	R1230J
1411.622	0.017	1842842	RECALL_START	n/a	n/a	-999	-999	n/a	n/a	n/a	n/a	4	[0, 0, 0]	-999	PAL1	0	R1230J
1411.639	0.265	1842859	TEST_ORIENT	n/a	n/a	5	1	BAND	n/a	BAND	SWORD	4	[0, 0, 0]	-999	PAL1	0	R1230J
1411.904	0.635	1843124	RETRIEVAL_ORIENT_OFF	n/a	n/a	-999	-999	n/a	n/a	n/a	n/a	4	[0, 0, 0]	-999	PAL1	0	R1230J
1412.539	0.0	1843759	TEST_PROBE	n/a	wordpools/wordpool_EN.txt	5	1	BAND	n/a	BAND	SWORD	4	[0, 0, 0]	-999	PAL1	0	R1230J
1412.539	4.017	1843759	REC_START	n/a	n/a	5	-999	n/a	n/a	n/a	n/a	4	[0, 0, 0]	-999	PAL1	0	R1230J
1416.556	0.998	1847776	PROBE_OFF	n/a	n/a	5	-999	n/a	n/a	n/a	n/a	4	[0, 0, 0]	-999	PAL1	0	R1230J
1417.554	0.002	1848774	REC_EVENT	5015	n/a	5	1	BAND	<>	BAND	SWORD	4	[0, 0, 0]	-999	PAL1	0	R1230J
1417.556	0.017	1848776	REC_END	n/a	n/a	5	-999	n/a	n/a	n/a	n/a	4	[0, 0, 0]	-999	PAL1	0	R1230J
1417.573	0.266	1848793	TEST_ORIENT	n/a	n/a	2	2	HOOF	n/a	HOOF	FLAG	4	[0, 0, 0]	-999	PAL1	0	R1230J
1417.839	0.517	1849059	RETRIEVAL_ORIENT_OFF	n/a	n/a	5	-999	n/a	n/a	n/a	n/a	4	[0, 0, 0]	-999	PAL1	0	R1230J
1418.356	0.001	1849576	TEST_PROBE	n/a	wordpools/wordpool_EN.txt	2	2	HOOF	n/a	HOOF	FLAG	4	[0, 0, 0]	-999	PAL1	0	R1230J
1418.357	4.017	1849577	REC_START	n/a	n/a	2	-999	n/a	n/a	n/a	n/a	4	[0, 0, 0]	-999	PAL1	0	R1230J
1422.374	0.998	1853594	PROBE_OFF	n/a	n/a	2	-999	n/a	n/a	n/a	n/a	4	[0, 0, 0]	-999	PAL1	0	R1230J
1423.372	0.002	1854592	REC_EVENT	5015	n/a	2	2	HOOF	<>	HOOF	FLAG	4	[0, 0, 0]	-999	PAL1	0	R1230J
1423.374	0.017	1854594	REC_END	n/a	n/a	2	-999	n/a	n/a	n/a	n/a	4	[0, 0, 0]	-999	PAL1	0	R1230J
1423.391	0.266	1854611	TEST_ORIENT	n/a	n/a	1	3	BAG	LOOSE	BARN	BAG	4	[0, 0, 0]	-999	PAL1	0	R1230J
1423.657	0.516	1854877	RETRIEVAL_ORIENT_OFF	n/a	n/a	2	-999	n/a	n/a	n/a	n/a	4	[0, 0, 0]	-999	PAL1	0	R1230J
1424.173	0.001	1855393	TEST_PROBE	n/a	wordpools/wordpool_EN.txt	1	3	BAG	LOOSE	BARN	BAG	4	[0, 0, 0]	-999	PAL1	0	R1230J
1424.174	2.655	1855394	REC_START	n/a	n/a	1	-999	n/a	LOOSE	n/a	n/a	4	[0, 0, 0]	-999	PAL1	0	R1230J
1426.829	1.361	1858049	REC_EVENT	2655	n/a	1	3	BAG	LOOSE	BARN	BAG	4	[0, 0, 0]	-999	PAL1	0	R1230J
1428.19	1.0	1859410	PROBE_OFF	n/a	n/a	1	-999	n/a	n/a	n/a	n/a	4	[0, 0, 0]	-999	PAL1	0	R1230J
1429.19	0.017	1860410	REC_END	n/a	n/a	1	-999	n/a	n/a	n/a	n/a	4	[0, 0, 0]	-999	PAL1	0	R1230J
1429.207	0.268	1860427	TEST_ORIENT	n/a	n/a	6	4	VINE	ROSE	VINE	ROSE	4	[0, 0, 0]	-999	PAL1	0	R1230J
1429.475	0.616	1860695	RETRIEVAL_ORIENT_OFF	n/a	n/a	1	-999	n/a	n/a	n/a	n/a	4	[0, 0, 0]	-999	PAL1	0	R1230J
1430.091	0.0	1861311	TEST_PROBE	n/a	wordpools/wordpool_EN.txt	6	4	VINE	ROSE	VINE	ROSE	4	[0, 0, 0]	-999	PAL1	0	R1230J
1430.091	1.742	1861311	REC_START	n/a	n/a	6	-999	n/a	ROSE	n/a	n/a	4	[0, 0, 0]	-999	PAL1	0	R1230J
1431.833	2.275	1863053	REC_EVENT	1742	n/a	6	4	VINE	ROSE	VINE	ROSE	4	[0, 0, 0]	-999	PAL1	0	R1230J
1434.108	1.0	1865328	PROBE_OFF	n/a	n/a	6	-999	n/a	n/a	n/a	n/a	4	[0, 0, 0]	-999	PAL1	0	R1230J
1435.108	0.016	1866328	REC_END	n/a	n/a	6	-999	n/a	n/a	n/a	n/a	4	[0, 0, 0]	-999	PAL1	0	R1230J
1435.124	0.251	1866344	TEST_ORIENT	n/a	n/a	3	5	AXE	n/a	AXE	SPOON	4	[0, 0, 0]	-999	PAL1	0	R1230J
1435.375	0.683	1866595	RETRIEVAL_ORIENT_OFF	n/a	n/a	6	-999	n/a	n/a	n/a	n/a	4	[0, 0, 0]	-999	PAL1	0	R1230J
1436.058	0.0	1867278	REC_START	n/a	n/a	3	-999	n/a	n/a	n/a	n/a	4	[0, 0, 0]	-999	PAL1	0	R1230J
1436.058	4.017	1867278	TEST_PROBE	n/a	wordpools/wordpool_EN.txt	3	5	AXE	n/a	AXE	SPOON	4	[0, 0, 0]	-999	PAL1	0	R1230J
1440.075	0.998	1871295	PROBE_OFF	n/a	n/a	3	-999	n/a	n/a	n/a	n/a	4	[0, 0, 0]	-999	PAL1	0	R1230J
1441.073	0.002	1872293	REC_EVENT	5015	n/a	3	5	AXE	<>	AXE	SPOON	4	[0, 0, 0]	-999	PAL1	0	R1230J
1441.075	0.017	1872295	REC_END	n/a	n/a	3	-999	n/a	n/a	n/a	n/a	4	[0, 0, 0]	-999	PAL1	0	R1230J
1441.092	0.268	1872312	TEST_ORIENT	n/a	n/a	4	6	BOAT	SHIP	COIN	BOAT	4	[0, 0, 0]	-999	PAL1	0	R1230J
1441.36	0.515	1872580	RETRIEVAL_ORIENT_OFF	n/a	n/a	3	-999	n/a	n/a	n/a	n/a	4	[0, 0, 0]	-999	PAL1	0	R1230J
1441.875	0.001	1873095	TEST_PROBE	n/a	wordpools/wordpool_EN.txt	4	6	BOAT	SHIP	COIN	BOAT	4	[0, 0, 0]	-999	PAL1	0	R1230J
1441.876	3.179	1873096	REC_START	n/a	n/a	4	-999	n/a	SHIP	n/a	n/a	4	[0, 0, 0]	-999	PAL1	0	R1230J
1445.055	0.838	1876275	REC_EVENT	3179	n/a	4	6	BOAT	SHIP	COIN	BOAT	4	[0, 0, 0]	-999	PAL1	0	R1230J
1445.893	1.0	1877113	PROBE_OFF	n/a	n/a	4	-999	n/a	n/a	n/a	n/a	4	[0, 0, 0]	-999	PAL1	0	R1230J
1446.893	0.011	1878113	REC_END	n/a	n/a	4	-999	n/a	n/a	n/a	n/a	4	[0, 0, 0]	-999	PAL1	0	R1230J
1446.904	3.822	1878124	RECALL_END	n/a	n/a	-999	-999	n/a	n/a	n/a	n/a	4	[0, 0, 0]	-999	PAL1	0	R1230J
1450.726	10.929	1881946	TRIAL	n/a	n/a	-999	-999	n/a	n/a	n/a	n/a	5	[0, 0, 0]	-999	PAL1	0	R1230J
1461.655	0.007	1892875	ENCODING_START	n/a	n/a	-999	-999	n/a	n/a	n/a	n/a	5	[0, 0, 0]	-999	PAL1	0	R1230J
1461.662	0.266	1892882	STUDY_ORIENT	n/a	n/a	1	3	SOUP	n/a	PURSE	SOUP	5	[0, 0, 0]	-999	PAL1	0	R1230J
1461.928	0.718	1893148	STUDY_ORIENT_OFF	n/a	n/a	1	3	SOUP	n/a	PURSE	SOUP	5	[0, 0, 0]	-999	PAL1	0	R1230J
1462.646	4.017	1893866	STUDY_PAIR	n/a	wordpools/wordpool_EN.txt	1	3	SOUP	n/a	PURSE	SOUP	5	[0, 0, 0]	-999	PAL1	0	R1230J
1466.663	1.017	1897883	PAIR_OFF	n/a	n/a	1	3	SOUP	n/a	PURSE	SOUP	5	[0, 0, 0]	-999	PAL1	0	R1230J
1467.68	0.266	1898900	STUDY_ORIENT	n/a	n/a	2	4	DOLL	n/a	DOLL	BENCH	5	[0, 0, 0]	-999	PAL1	0	R1230J
1467.946	0.534	1899166	STUDY_ORIENT_OFF	n/a	n/a	2	4	DOLL	n/a	DOLL	BENCH	5	[0, 0, 0]	-999	PAL1	0	R1230J
1468.48	4.017	1899700	STUDY_PAIR	n/a	wordpools/wordpool_EN.txt	2	4	DOLL	n/a	DOLL	BENCH	5	[0, 0, 0]	-999	PAL1	0	R1230J
1472.497	1.017	1903717	PAIR_OFF	n/a	n/a	2	4	DOLL	n/a	DOLL	BENCH	5	[0, 0, 0]	-999	PAL1	0	R1230J
1473.514	0.265	1904734	STUDY_ORIENT	n/a	n/a	3	1	WING	n/a	WING	STORE	5	[0, 0, 0]	-999	PAL1	0	R1230J
1473.779	0.618	1904999	STUDY_ORIENT_OFF	n/a	n/a	3	1	WING	n/a	WING	STORE	5	[0, 0, 0]	-999	PAL1	0	R1230J
1474.397	4.018	1905617	STUDY_PAIR	n/a	wordpools/wordpool_EN.txt	3	1	WING	n/a	WING	STORE	5	[0, 0, 0]	-999	PAL1	0	R1230J
1478.415	1.016	1909635	PAIR_OFF	n/a	n/a	3	1	WING	n/a	WING	STORE	5	[0, 0, 0]	-999	PAL1	0	R1230J
1479.431	0.266	1910651	STUDY_ORIENT	n/a	n/a	4	2	ROCK	n/a	ROCK	LAND	5	[0, 0, 0]	-999	PAL1	0	R1230J
1479.697	0.685	1910917	STUDY_ORIENT_OFF	n/a	n/a	4	2	ROCK	n/a	ROCK	LAND	5	[0, 0, 0]	-999	PAL1	0	R1230J
1480.382	4.017	1911602	STUDY_PAIR	n/a	wordpools/wordpool_EN.txt	4	2	ROCK	n/a	ROCK	LAND	5	[0, 0, 0]	-999	PAL1	0	R1230J
1484.399	1.017	1915619	PAIR_OFF	n/a	n/a	4	2	ROCK	n/a	ROCK	LAND	5	[0, 0, 0]	-999	PAL1	0	R1230J
1485.416	0.266	1916636	STUDY_ORIENT	n/a	n/a	5	5	CANE	n/a	CANE	NAIL	5	[0, 0, 0]	-999	PAL1	0	R1230J
1485.682	0.583	1916902	STUDY_ORIENT_OFF	n/a	n/a	5	5	CANE	n/a	CANE	NAIL	5	[0, 0, 0]	-999	PAL1	0	R1230J
1486.265	4.017	1917485	STUDY_PAIR	n/a	wordpools/wordpool_EN.txt	5	5	CANE	n/a	CANE	NAIL	5	[0, 0, 0]	-999	PAL1	0	R1230J
1490.282	1.017	1921502	PAIR_OFF	n/a	n/a	5	5	CANE	n/a	CANE	NAIL	5	[0, 0, 0]	-999	PAL1	0	R1230J
1491.299	0.267	1922519	STUDY_ORIENT	n/a	n/a	6	6	CALF	INK	KITE	CALF	5	[0, 0, 0]	-999	PAL1	0	R1230J
1491.566	0.566	1922786	STUDY_ORIENT_OFF	n/a	n/a	6	6	CALF	INK	KITE	CALF	5	[0, 0, 0]	-999	PAL1	0	R1230J
1492.132	4.017	1923352	STUDY_PAIR	n/a	wordpools/wordpool_EN.txt	6	6	CALF	INK	KITE	CALF	5	[0, 0, 0]	-999	PAL1	0	R1230J
1496.149	1.001	1927369	PAIR_OFF	n/a	n/a	6	6	CALF	INK	KITE	CALF	5	[0, 0, 0]	-999	PAL1	0	R1230J
1497.15	0.0	1928370	ENCODING_END	n/a	n/a	-999	-999	n/a	n/a	n/a	n/a	5	[0, 0, 0]	-999	PAL1	0	R1230J
1497.15	0.0	1928370	MATH_START	n/a	n/a	-999	-999	n/a	n/a	n/a	n/a	5	[0, 0, 0]	-999	PAL1	0	R1230J
1497.15	0.016	1928370	START	n/a	n/a	-999	-999	n/a	n/a	n/a	n/a	5	[-999, -999, -999]	-999	PAL1	0	R1230J
1497.166	3.867	1928386	PROB	3843	n/a	-999	-999	n/a	n/a	n/a	n/a	5	[4, 4, 7]	15	PAL1	0	R1230J
1501.033	3.801	1932253	PROB	3768	n/a	-999	-999	n/a	n/a	n/a	n/a	5	[6, 6, 4]	14	PAL1	0	R1230J
1504.834	3.867	1936054	PROB	3841	n/a	-999	-999	n/a	n/a	n/a	n/a	5	[4, 3, 7]	14	PAL1	0	R1230J
1508.701	4.835	1939921	PROB	4805	n/a	-999	-999	n/a	n/a	n/a	n/a	5	[7, 6, 6]	19	PAL1	0	R1230J
1513.536	2.599	1944756	PROB	2561	n/a	-999	-999	n/a	n/a	n/a	n/a	5	[2, 7, 2]	11	PAL1	0	R1230J
1516.135	3.002	1947355	PROB	3002	n/a	-999	-999	n/a	n/a	n/a	n/a	5	[8, 4, 3]	15	PAL1	0	R1230J
1519.137	0.015	1950357	STOP	n/a	n/a	-999	-999	n/a	n/a	n/a	n/a	5	[-999, -999, -999]	-999	PAL1	0	R1230J
1519.152	0.001	1950372	MATH_END	n/a	n/a	-999	-999	n/a	n/a	n/a	n/a	5	[0, 0, 0]	-999	PAL1	0	R1230J
1519.153	0.016	1950373	RECALL_START	n/a	n/a	-999	-999	n/a	n/a	n/a	n/a	5	[0, 0, 0]	-999	PAL1	0	R1230J
1519.169	0.268	1950389	TEST_ORIENT	n/a	n/a	3	1	WING	n/a	WING	STORE	5	[0, 0, 0]	-999	PAL1	0	R1230J
1519.437	0.732	1950657	RETRIEVAL_ORIENT_OFF	n/a	n/a	-999	-999	n/a	n/a	n/a	n/a	5	[0, 0, 0]	-999	PAL1	0	R1230J
1520.169	0.001	1951389	TEST_PROBE	n/a	wordpools/wordpool_EN.txt	3	1	WING	n/a	WING	STORE	5	[0, 0, 0]	-999	PAL1	0	R1230J
1520.17	4.016	1951390	REC_START	n/a	n/a	3	-999	n/a	n/a	n/a	n/a	5	[0, 0, 0]	-999	PAL1	0	R1230J
1524.186	0.999	1955406	PROBE_OFF	n/a	n/a	3	-999	n/a	n/a	n/a	n/a	5	[0, 0, 0]	-999	PAL1	0	R1230J
1525.185	0.001	1956405	REC_EVENT	5015	n/a	3	1	WING	<>	WING	STORE	5	[0, 0, 0]	-999	PAL1	0	R1230J
1525.186	0.017	1956406	REC_END	n/a	n/a	3	-999	n/a	n/a	n/a	n/a	5	[0, 0, 0]	-999	PAL1	0	R1230J
1525.203	0.268	1956423	TEST_ORIENT	n/a	n/a	4	2	ROCK	n/a	ROCK	LAND	5	[0, 0, 0]	-999	PAL1	0	R1230J
1525.471	0.632	1956691	RETRIEVAL_ORIENT_OFF	n/a	n/a	3	-999	n/a	n/a	n/a	n/a	5	[0, 0, 0]	-999	PAL1	0	R1230J
1526.103	0.001	1957323	TEST_PROBE	n/a	wordpools/wordpool_EN.txt	4	2	ROCK	n/a	ROCK	LAND	5	[0, 0, 0]	-999	PAL1	0	R1230J
1526.104	4.017	1957324	REC_START	n/a	n/a	4	-999	n/a	n/a	n/a	n/a	5	[0, 0, 0]	-999	PAL1	0	R1230J
1530.121	0.998	1961341	PROBE_OFF	n/a	n/a	4	-999	n/a	n/a	n/a	n/a	5	[0, 0, 0]	-999	PAL1	0	R1230J
1531.119	0.002	1962339	REC_EVENT	5015	n/a	4	2	ROCK	<>	ROCK	LAND	5	[0, 0, 0]	-999	PAL1	0	R1230J
1531.121	0.016	1962341	REC_END	n/a	n/a	4	-999	n/a	n/a	n/a	n/a	5	[0, 0, 0]	-999	PAL1	0	R1230J
1531.137	0.251	1962357	TEST_ORIENT	n/a	n/a	1	3	SOUP	n/a	PURSE	SOUP	5	[0, 0, 0]	-999	PAL1	0	R1230J
1531.388	0.599	1962608	RETRIEVAL_ORIENT_OFF	n/a	n/a	4	-999	n/a	n/a	n/a	n/a	5	[0, 0, 0]	-999	PAL1	0	R1230J
1531.987	0.001	1963207	TEST_PROBE	n/a	wordpools/wordpool_EN.txt	1	3	SOUP	n/a	PURSE	SOUP	5	[0, 0, 0]	-999	PAL1	0	R1230J
1531.988	4.017	1963208	REC_START	n/a	n/a	1	-999	n/a	n/a	n/a	n/a	5	[0, 0, 0]	-999	PAL1	0	R1230J
1536.005	0.998	1967225	PROBE_OFF	n/a	n/a	1	-999	n/a	n/a	n/a	n/a	5	[0, 0, 0]	-999	PAL1	0	R1230J
1537.003	0.002	1968223	REC_EVENT	5015	n/a	1	3	SOUP	<>	PURSE	SOUP	5	[0, 0, 0]	-999	PAL1	0	R1230J
1537.005	0.016	1968225	REC_END	n/a	n/a	1	-999	n/a	n/a	n/a	n/a	5	[0, 0, 0]	-999	PAL1	0	R1230J
1537.021	0.267	1968241	TEST_ORIENT	n/a	n/a	2	4	DOLL	n/a	DOLL	BENCH	5	[0, 0, 0]	-999	PAL1	0	R1230J
1537.288	0.734	1968508	RETRIEVAL_ORIENT_OFF	n/a	n/a	1	-999	n/a	n/a	n/a	n/a	5	[0, 0, 0]	-999	PAL1	0	R1230J
1538.022	0.0	1969242	TEST_PROBE	n/a	wordpools/wordpool_EN.txt	2	4	DOLL	n/a	DOLL	BENCH	5	[0, 0, 0]	-999	PAL1	0	R1230J
1538.022	4.017	1969242	REC_START	n/a	n/a	2	-999	n/a	n/a	n/a	n/a	5	[0, 0, 0]	-999	PAL1	0	R1230J
1542.039	0.998	1973259	PROBE_OFF	n/a	n/a	2	-999	n/a	n/a	n/a	n/a	5	[0, 0, 0]	-999	PAL1	0	R1230J
1543.037	0.003	1974257	REC_EVENT	5015	n/a	2	4	DOLL	<>	DOLL	BENCH	5	[0, 0, 0]	-999	PAL1	0	R1230J
1543.04	0.016	1974260	REC_END	n/a	n/a	2	-999	n/a	n/a	n/a	n/a	5	[0, 0, 0]	-999	PAL1	0	R1230J
1543.056	0.266	1974276	TEST_ORIENT	n/a	n/a	5	5	CANE	n/a	CANE	NAIL	5	[0, 0, 0]	-999	PAL1	0	R1230J
1543.322	0.567	1974542	RETRIEVAL_ORIENT_OFF	n/a	n/a	2	-999	n/a	n/a	n/a	n/a	5	[0, 0, 0]	-999	PAL1	0	R1230J
1543.889	0.001	1975109	TEST_PROBE	n/a	wordpools/wordpool_EN.txt	5	5	CANE	n/a	CANE	NAIL	5	[0, 0, 0]	-999	PAL1	0	R1230J
1543.89	4.017	1975110	REC_START	n/a	n/a	5	-999	n/a	n/a	n/a	n/a	5	[0, 0, 0]	-999	PAL1	0	R1230J
1547.907	0.998	1979127	PROBE_OFF	n/a	n/a	5	-999	n/a	n/a	n/a	n/a	5	[0, 0, 0]	-999	PAL1	0	R1230J
1548.905	0.002	1980125	REC_EVENT	5015	n/a	5	5	CANE	<>	CANE	NAIL	5	[0, 0, 0]	-999	PAL1	0	R1230J
1548.907	0.016	1980127	REC_END	n/a	n/a	5	-999	n/a	n/a	n/a	n/a	5	[0, 0, 0]	-999	PAL1	0	R1230J
1548.923	0.267	1980143	TEST_ORIENT	n/a	n/a	6	6	CALF	INK	KITE	CALF	5	[0, 0, 0]	-999	PAL1	0	R1230J
1549.19	0.7	1980410	RETRIEVAL_ORIENT_OFF	n/a	n/a	5	-999	n/a	n/a	n/a	n/a	5	[0, 0, 0]	-999	PAL1	0	R1230J
1549.89	0.001	1981110	TEST_PROBE	n/a	wordpools/wordpool_EN.txt	6	6	CALF	INK	KITE	CALF	5	[0, 0, 0]	-999	PAL1	0	R1230J
1549.891	2.382	1981111	REC_START	n/a	n/a	6	-999	n/a	INK	n/a	n/a	5	[0, 0, 0]	-999	PAL1	0	R1230J
1552.273	1.634	1983493	REC_EVENT	2382	n/a	6	6	CALF	INK	KITE	CALF	5	[0, 0, 0]	-999	PAL1	0	R1230J
1553.907	1.0	1985127	PROBE_OFF	n/a	n/a	6	-999	n/a	n/a	n/a	n/a	5	[0, 0, 0]	-999	PAL1	0	R1230J
1554.907	0.009	1986127	REC_END	n/a	n/a	6	-999	n/a	n/a	n/a	n/a	5	[0, 0, 0]	-999	PAL1	0	R1230J
1554.916	4.76	1986136	RECALL_END	n/a	n/a	-999	-999	n/a	n/a	n/a	n/a	5	[0, 0, 0]	-999	PAL1	0	R1230J
1559.676	10.929	1990896	TRIAL	n/a	n/a	-999	-999	n/a	n/a	n/a	n/a	6	[0, 0, 0]	-999	PAL1	0	R1230J
1570.605	0.006	2001825	ENCODING_START	n/a	n/a	-999	-999	n/a	n/a	n/a	n/a	6	[0, 0, 0]	-999	PAL1	0	R1230J
1570.611	0.265	2001831	STUDY_ORIENT	n/a	n/a	1	5	ELF	n/a	ELF	FILM	6	[0, 0, 0]	-999	PAL1	0	R1230J
1570.876	0.601	2002096	STUDY_ORIENT_OFF	n/a	n/a	1	5	ELF	n/a	ELF	FILM	6	[0, 0, 0]	-999	PAL1	0	R1230J
1571.477	4.017	2002697	STUDY_PAIR	n/a	wordpools/wordpool_EN.txt	1	5	ELF	n/a	ELF	FILM	6	[0, 0, 0]	-999	PAL1	0	R1230J
1575.494	1.017	2006714	PAIR_OFF	n/a	n/a	1	5	ELF	n/a	ELF	FILM	6	[0, 0, 0]	-999	PAL1	0	R1230J
1576.511	0.266	2007731	STUDY_ORIENT	n/a	n/a	2	2	CHIEF	n/a	SHARK	CHIEF	6	[0, 0, 0]	-999	PAL1	0	R1230J
1576.777	0.668	2007997	STUDY_ORIENT_OFF	n/a	n/a	2	2	CHIEF	n/a	SHARK	CHIEF	6	[0, 0, 0]	-999	PAL1	0	R1230J
1577.445	4.017	2008665	STUDY_PAIR	n/a	wordpools/wordpool_EN.txt	2	2	CHIEF	n/a	SHARK	CHIEF	6	[0, 0, 0]	-999	PAL1	0	R1230J
1581.462	1.016	2012682	PAIR_OFF	n/a	n/a	2	2	CHIEF	n/a	SHARK	CHIEF	6	[0, 0, 0]	-999	PAL1	0	R1230J
1582.478	0.266	2013698	STUDY_ORIENT	n/a	n/a	3	1	TOOTH	n/a	HAT	TOOTH	6	[0, 0, 0]	-999	PAL1	0	R1230J
1582.744	0.751	2013964	STUDY_ORIENT_OFF	n/a	n/a	3	1	TOOTH	n/a	HAT	TOOTH	6	[0, 0, 0]	-999	PAL1	0	R1230J
1583.495	4.018	2014715	STUDY_PAIR	n/a	wordpools/wordpool_EN.txt	3	1	TOOTH	n/a	HAT	TOOTH	6	[0, 0, 0]	-999	PAL1	0	R1230J
1587.513	1.016	2018733	PAIR_OFF	n/a	n/a	3	1	TOOTH	n/a	HAT	TOOTH	6	[0, 0, 0]	-999	PAL1	0	R1230J
1588.529	0.266	2019749	STUDY_ORIENT	n/a	n/a	4	4	CORN	TOOTH	MOUSE	CORN	6	[0, 0, 0]	-999	PAL1	0	R1230J
1588.795	0.585	2020015	STUDY_ORIENT_OFF	n/a	n/a	4	4	CORN	TOOTH	MOUSE	CORN	6	[0, 0, 0]	-999	PAL1	0	R1230J
1589.38	4.016	2020600	STUDY_PAIR	n/a	wordpools/wordpool_EN.txt	4	4	CORN	TOOTH	MOUSE	CORN	6	[0, 0, 0]	-999	PAL1	0	R1230J
1593.396	1.017	2024616	PAIR_OFF	n/a	n/a	4	4	CORN	TOOTH	MOUSE	CORN	6	[0, 0, 0]	-999	PAL1	0	R1230J
1594.413	0.267	2025633	STUDY_ORIENT	n/a	n/a	5	3	TEETH	n/a	DART	TEETH	6	[0, 0, 0]	-999	PAL1	0	R1230J
1594.68	0.632	2025900	STUDY_ORIENT_OFF	n/a	n/a	5	3	TEETH	n/a	DART	TEETH	6	[0, 0, 0]	-999	PAL1	0	R1230J
1595.312	4.001	2026532	STUDY_PAIR	n/a	wordpools/wordpool_EN.txt	5	3	TEETH	n/a	DART	TEETH	6	[0, 0, 0]	-999	PAL1	0	R1230J
1599.313	1.017	2030533	PAIR_OFF	n/a	n/a	5	3	TEETH	n/a	DART	TEETH	6	[0, 0, 0]	-999	PAL1	0	R1230J
1600.33	0.268	2031550	STUDY_ORIENT	n/a	n/a	6	6	BOARD	n/a	BOARD	ARM	6	[0, 0, 0]	-999	PAL1	0	R1230J
1600.598	0.582	2031818	STUDY_ORIENT_OFF	n/a	n/a	6	6	BOARD	n/a	BOARD	ARM	6	[0, 0, 0]	-999	PAL1	0	R1230J
1601.18	4.017	2032400	STUDY_PAIR	n/a	wordpools/wordpool_EN.txt	6	6	BOARD	n/a	BOARD	ARM	6	[0, 0, 0]	-999	PAL1	0	R1230J
1605.197	1.001	2036417	PAIR_OFF	n/a	n/a	6	6	BOARD	n/a	BOARD	ARM	6	[0, 0, 0]	-999	PAL1	0	R1230J
1606.198	0.0	2037418	ENCODING_END	n/a	n/a	-999	-999	n/a	n/a	n/a	n/a	6	[0, 0, 0]	-999	PAL1	0	R1230J
1606.198	0.001	2037418	MATH_START	n/a	n/a	-999	-999	n/a	n/a	n/a	n/a	6	[0, 0, 0]	-999	PAL1	0	R1230J
1606.199	0.015	2037419	START	n/a	n/a	-999	-999	n/a	n/a	n/a	n/a	6	[-999, -999, -999]	-999	PAL1	0	R1230J
1606.214	3.235	2037434	PROB	3200	n/a	-999	-999	n/a	n/a	n/a	n/a	6	[3, 8, 2]	13	PAL1	0	R1230J
1609.449	1.799	2040669	PROB	1764	n/a	-999	-999	n/a	n/a	n/a	n/a	6	[2, 8, 2]	12	PAL1	0	R1230J
1611.248	3.6	2042468	PROB	3573	n/a	-999	-999	n/a	n/a	n/a	n/a	6	[8, 2, 8]	18	PAL1	0	R1230J
1614.848	4.468	2046068	PROB	4437	n/a	-999	-999	n/a	n/a	n/a	n/a	6	[3, 9, 2]	14	PAL1	0	R1230J
1619.316	2.683	2050536	PROB	2649	n/a	-999	-999	n/a	n/a	n/a	n/a	6	[8, 7, 8]	23	PAL1	0	R1230J
1621.999	2.3	2053219	PROB	2270	n/a	-999	-999	n/a	n/a	n/a	n/a	6	[5, 4, 4]	13	PAL1	0	R1230J
1624.299	3.29	2055519	PROB	3290	n/a	-999	-999	n/a	n/a	n/a	n/a	6	[4, 7, 9]	20	PAL1	0	R1230J
1627.589	0.012	2058809	STOP	n/a	n/a	-999	-999	n/a	n/a	n/a	n/a	6	[-999, -999, -999]	-999	PAL1	0	R1230J
1627.601	0.0	2058821	MATH_END	n/a	n/a	-999	-999	n/a	n/a	n/a	n/a	6	[0, 0, 0]	-999	PAL1	0	R1230J
1627.601	0.017	2058821	RECALL_START	n/a	n/a	-999	-999	n/a	n/a	n/a	n/a	6	[0, 0, 0]	-999	PAL1	0	R1230J
1627.618	0.265	2058838	TEST_ORIENT	n/a	n/a	3	1	TOOTH	n/a	HAT	TOOTH	6	[0, 0, 0]	-999	PAL1	0	R1230J
1627.883	0.652	2059103	RETRIEVAL_ORIENT_OFF	n/a	n/a	-999	-999	n/a	n/a	n/a	n/a	6	[0, 0, 0]	-999	PAL1	0	R1230J
1628.535	0.0	2059755	REC_START	n/a	n/a	3	-999	n/a	n/a	n/a	n/a	6	[0, 0, 0]	-999	PAL1	0	R1230J
1628.535	4.016	2059755	TEST_PROBE	n/a	wordpools/wordpool_EN.txt	3	1	TOOTH	n/a	HAT	TOOTH	6	[0, 0, 0]	-999	PAL1	0	R1230J
1632.551	0.999	2063771	PROBE_OFF	n/a	n/a	3	-999	n/a	n/a	n/a	n/a	6	[0, 0, 0]	-999	PAL1	0	R1230J
1633.55	0.001	2064770	REC_EVENT	5015	n/a	3	1	TOOTH	<>	HAT	TOOTH	6	[0, 0, 0]	-999	PAL1	0	R1230J
1633.551	0.017	2064771	REC_END	n/a	n/a	3	-999	n/a	n/a	n/a	n/a	6	[0, 0, 0]	-999	PAL1	0	R1230J
1633.568	0.266	2064788	TEST_ORIENT	n/a	n/a	2	2	CHIEF	n/a	SHARK	CHIEF	6	[0, 0, 0]	-999	PAL1	0	R1230J
1633.834	0.601	2065054	RETRIEVAL_ORIENT_OFF	n/a	n/a	3	-999	n/a	n/a	n/a	n/a	6	[0, 0, 0]	-999	PAL1	0	R1230J
1634.435	0.001	2065655	TEST_PROBE	n/a	wordpools/wordpool_EN.txt	2	2	CHIEF	n/a	SHARK	CHIEF	6	[0, 0, 0]	-999	PAL1	0	R1230J
1634.436	4.016	2065656	REC_START	n/a	n/a	2	-999	n/a	n/a	n/a	n/a	6	[0, 0, 0]	-999	PAL1	0	R1230J
1638.452	0.999	2069672	PROBE_OFF	n/a	n/a	2	-999	n/a	n/a	n/a	n/a	6	[0, 0, 0]	-999	PAL1	0	R1230J
1639.451	0.001	2070671	REC_EVENT	5015	n/a	2	2	CHIEF	<>	SHARK	CHIEF	6	[0, 0, 0]	-999	PAL1	0	R1230J
1639.452	0.017	2070672	REC_END	n/a	n/a	2	-999	n/a	n/a	n/a	n/a	6	[0, 0, 0]	-999	PAL1	0	R1230J
1639.469	0.266	2070689	TEST_ORIENT	n/a	n/a	5	3	TEETH	n/a	DART	TEETH	6	[0, 0, 0]	-999	PAL1	0	R1230J
1639.735	0.668	2070955	RETRIEVAL_ORIENT_OFF	n/a	n/a	2	-999	n/a	n/a	n/a	n/a	6	[0, 0, 0]	-999	PAL1	0	R1230J
1640.403	0.0	2071623	TEST_PROBE	n/a	wordpools/wordpool_EN.txt	5	3	TEETH	n/a	DART	TEETH	6	[0, 0, 0]	-999	PAL1	0	R1230J
1640.403	4.017	2071623	REC_START	n/a	n/a	5	-999	n/a	n/a	n/a	n/a	6	[0, 0, 0]	-999	PAL1	0	R1230J
1644.42	1.012	2075640	PROBE_OFF	n/a	n/a	5	-999	n/a	n/a	n/a	n/a	6	[0, 0, 0]	-999	PAL1	0	R1230J
1645.432	0.003	2076652	REC_END	n/a	n/a	5	-999	n/a	n/a	n/a	n/a	6	[0, 0, 0]	-999	PAL1	0	R1230J
1645.435	0.018	2076655	REC_EVENT	5032	n/a	5	3	TEETH	<>	DART	TEETH	6	[0, 0, 0]	-999	PAL1	0	R1230J
1645.453	0.266	2076673	TEST_ORIENT	n/a	n/a	4	4	CORN	TOOTH	MOUSE	CORN	6	[0, 0, 0]	-999	PAL1	0	R1230J
1645.719	0.768	2076939	RETRIEVAL_ORIENT_OFF	n/a	n/a	5	-999	n/a	n/a	n/a	n/a	6	[0, 0, 0]	-999	PAL1	0	R1230J
1646.487	0.0	2077707	TEST_PROBE	n/a	wordpools/wordpool_EN.txt	4	4	CORN	TOOTH	MOUSE	CORN	6	[0, 0, 0]	-999	PAL1	0	R1230J
1646.487	3.07	2077707	REC_START	n/a	n/a	4	-999	n/a	TOOTH	n/a	n/a	6	[0, 0, 0]	-999	PAL1	0	R1230J
1649.557	0.947	2080777	REC_EVENT	3070	n/a	4	4	CORN	TOOTH	MOUSE	CORN	6	[0, 0, 0]	-999	PAL1	0	R1230J
1650.504	1.0	2081724	PROBE_OFF	n/a	n/a	4	-999	n/a	n/a	n/a	n/a	6	[0, 0, 0]	-999	PAL1	0	R1230J
1651.504	0.016	2082724	REC_END	n/a	n/a	4	-999	n/a	n/a	n/a	n/a	6	[0, 0, 0]	-999	PAL1	0	R1230J
1651.52	0.266	2082740	TEST_ORIENT	n/a	n/a	1	5	ELF	n/a	ELF	FILM	6	[0, 0, 0]	-999	PAL1	0	R1230J
1651.786	0.517	2083005	RETRIEVAL_ORIENT_OFF	n/a	n/a	4	-999	n/a	n/a	n/a	n/a	6	[0, 0, 0]	-999	PAL1	0	R1230J
1652.303	0.001	2083522	TEST_PROBE	n/a	wordpools/wordpool_EN.txt	1	5	ELF	n/a	ELF	FILM	6	[0, 0, 0]	-999	PAL1	0	R1230J
1652.304	4.016	2083523	REC_START	n/a	n/a	1	-999	n/a	n/a	n/a	n/a	6	[0, 0, 0]	-999	PAL1	0	R1230J
1656.32	0.999	2087539	PROBE_OFF	n/a	n/a	1	-999	n/a	n/a	n/a	n/a	6	[0, 0, 0]	-999	PAL1	0	R1230J
1657.319	0.001	2088538	REC_EVENT	5015	n/a	1	5	ELF	<>	ELF	FILM	6	[0, 0, 0]	-999	PAL1	0	R1230J
1657.32	0.017	2088539	REC_END	n/a	n/a	1	-999	n/a	n/a	n/a	n/a	6	[0, 0, 0]	-999	PAL1	0	R1230J
1657.337	0.268	2088556	TEST_ORIENT	n/a	n/a	6	6	BOARD	n/a	BOARD	ARM	6	[0, 0, 0]	-999	PAL1	0	R1230J
1657.605	0.699	2088824	RETRIEVAL_ORIENT_OFF	n/a	n/a	1	-999	n/a	n/a	n/a	n/a	6	[0, 0, 0]	-999	PAL1	0	R1230J
1658.304	0.001	2089523	TEST_PROBE	n/a	wordpools/wordpool_EN.txt	6	6	BOARD	n/a	BOARD	ARM	6	[0, 0, 0]	-999	PAL1	0	R1230J
1658.305	4.016	2089524	REC_START	n/a	n/a	6	-999	n/a	n/a	n/a	n/a	6	[0, 0, 0]	-999	PAL1	0	R1230J
1662.321	1.0	2093540	PROBE_OFF	n/a	n/a	6	-999	n/a	n/a	n/a	n/a	6	[0, 0, 0]	-999	PAL1	0	R1230J
1663.321	0.005	2094540	REC_END	n/a	n/a	6	-999	n/a	n/a	n/a	n/a	6	[0, 0, 0]	-999	PAL1	0	R1230J
1663.326	0.005	2094545	REC_EVENT	5021	n/a	6	6	BOARD	<>	BOARD	ARM	6	[0, 0, 0]	-999	PAL1	0	R1230J
1663.331	3.858	2094550	RECALL_END	n/a	n/a	-999	-999	n/a	n/a	n/a	n/a	6	[0, 0, 0]	-999	PAL1	0	R1230J
1667.189	10.929	2098408	TRIAL	n/a	n/a	-999	-999	n/a	n/a	n/a	n/a	7	[0, 0, 0]	-999	PAL1	0	R1230J
1678.118	0.006	2109337	ENCODING_START	n/a	n/a	-999	-999	n/a	n/a	n/a	n/a	7	[0, 0, 0]	-999	PAL1	0	R1230J
1678.124	0.267	2109343	STUDY_ORIENT	n/a	n/a	1	5	FROG	n/a	CORD	FROG	7	[0, 0, 0]	-999	PAL1	0	R1230J
1678.391	0.716	2109610	STUDY_ORIENT_OFF	n/a	n/a	1	5	FROG	n/a	CORD	FROG	7	[0, 0, 0]	-999	PAL1	0	R1230J
1679.107	4.017	2110326	STUDY_PAIR	n/a	wordpools/wordpool_EN.txt	1	5	FROG	n/a	CORD	FROG	7	[0, 0, 0]	-999	PAL1	0	R1230J
1683.124	1.017	2114343	PAIR_OFF	n/a	n/a	1	5	FROG	n/a	CORD	FROG	7	[0, 0, 0]	-999	PAL1	0	R1230J
1684.141	0.268	2115360	STUDY_ORIENT	n/a	n/a	2	6	PALM	n/a	PALM	MOON	7	[0, 0, 0]	-999	PAL1	0	R1230J
1684.409	0.549	2115628	STUDY_ORIENT_OFF	n/a	n/a	2	6	PALM	n/a	PALM	MOON	7	[0, 0, 0]	-999	PAL1	0	R1230J
1684.958	4.017	2116177	STUDY_PAIR	n/a	wordpools/wordpool_EN.txt	2	6	PALM	n/a	PALM	MOON	7	[0, 0, 0]	-999	PAL1	0	R1230J
1688.975	1.017	2120194	PAIR_OFF	n/a	n/a	2	6	PALM	n/a	PALM	MOON	7	[0, 0, 0]	-999	PAL1	0	R1230J
1689.992	0.267	2121211	STUDY_ORIENT	n/a	n/a	3	3	STAR	n/a	STAR	SKUNK	7	[0, 0, 0]	-999	PAL1	0	R1230J
1690.259	0.716	2121478	STUDY_ORIENT_OFF	n/a	n/a	3	3	STAR	n/a	STAR	SKUNK	7	[0, 0, 0]	-999	PAL1	0	R1230J
1690.975	4.017	2122194	STUDY_PAIR	n/a	wordpools/wordpool_EN.txt	3	3	STAR	n/a	STAR	SKUNK	7	[0, 0, 0]	-999	PAL1	0	R1230J
1694.992	1.017	2126211	PAIR_OFF	n/a	n/a	3	3	STAR	n/a	STAR	SKUNK	7	[0, 0, 0]	-999	PAL1	0	R1230J
1696.009	0.267	2127228	STUDY_ORIENT	n/a	n/a	4	4	SPRING	n/a	SPRING	STAIR	7	[0, 0, 0]	-999	PAL1	0	R1230J
1696.276	0.583	2127495	STUDY_ORIENT_OFF	n/a	n/a	4	4	SPRING	n/a	SPRING	STAIR	7	[0, 0, 0]	-999	PAL1	0	R1230J
1696.859	4.017	2128078	STUDY_PAIR	n/a	wordpools/wordpool_EN.txt	4	4	SPRING	n/a	SPRING	STAIR	7	[0, 0, 0]	-999	PAL1	0	R1230J
1700.876	1.017	2132095	PAIR_OFF	n/a	n/a	4	4	SPRING	n/a	SPRING	STAIR	7	[0, 0, 0]	-999	PAL1	0	R1230J
1701.893	0.267	2133112	STUDY_ORIENT	n/a	n/a	5	1	FLUTE	n/a	FLUTE	LEAF	7	[0, 0, 0]	-999	PAL1	0	R1230J
1702.16	0.7	2133379	STUDY_ORIENT_OFF	n/a	n/a	5	1	FLUTE	n/a	FLUTE	LEAF	7	[0, 0, 0]	-999	PAL1	0	R1230J
1702.86	4.017	2134079	STUDY_PAIR	n/a	wordpools/wordpool_EN.txt	5	1	FLUTE	n/a	FLUTE	LEAF	7	[0, 0, 0]	-999	PAL1	0	R1230J
1706.877	1.017	2138096	PAIR_OFF	n/a	n/a	5	1	FLUTE	n/a	FLUTE	LEAF	7	[0, 0, 0]	-999	PAL1	0	R1230J
1707.894	0.267	2139113	STUDY_ORIENT	n/a	n/a	6	2	ANT	n/a	CLAY	ANT	7	[0, 0, 0]	-999	PAL1	0	R1230J
1708.161	0.75	2139380	STUDY_ORIENT_OFF	n/a	n/a	6	2	ANT	n/a	CLAY	ANT	7	[0, 0, 0]	-999	PAL1	0	R1230J
1708.911	4.017	2140130	STUDY_PAIR	n/a	wordpools/wordpool_EN.txt	6	2	ANT	n/a	CLAY	ANT	7	[0, 0, 0]	-999	PAL1	0	R1230J
1712.928	1.0	2144147	PAIR_OFF	n/a	n/a	6	2	ANT	n/a	CLAY	ANT	7	[0, 0, 0]	-999	PAL1	0	R1230J
1713.928	0.0	2145147	ENCODING_END	n/a	n/a	-999	-999	n/a	n/a	n/a	n/a	7	[0, 0, 0]	-999	PAL1	0	R1230J
1713.928	0.0	2145147	MATH_START	n/a	n/a	-999	-999	n/a	n/a	n/a	n/a	7	[0, 0, 0]	-999	PAL1	0	R1230J
1713.928	0.017	2145147	START	n/a	n/a	-999	-999	n/a	n/a	n/a	n/a	7	[-999, -999, -999]	-999	PAL1	0	R1230J
1713.945	3.501	2145164	PROB	3465	n/a	-999	-999	n/a	n/a	n/a	n/a	7	[1, 5, 1]	7	PAL1	0	R1230J
1717.446	3.051	2148665	PROB	3021	n/a	-999	-999	n/a	n/a	n/a	n/a	7	[9, 2, 2]	13	PAL1	0	R1230J
1720.497	3.9	2151716	PROB	3873	n/a	-999	-999	n/a	n/a	n/a	n/a	7	[7, 6, 2]	15	PAL1	0	R1230J
1724.397	2.3	2155616	PROB	2278	n/a	-999	-999	n/a	n/a	n/a	n/a	7	[9, 4, 6]	19	PAL1	0	R1230J
1726.697	2.901	2157916	PROB	2874	n/a	-999	-999	n/a	n/a	n/a	n/a	7	[1, 2, 6]	9	PAL1	0	R1230J
1729.598	3.433	2160817	PROB	3395	n/a	-999	-999	n/a	n/a	n/a	n/a	7	[3, 3, 3]	12	PAL1	0	R1230J
1733.031	4.21	2164250	PROB	4210	n/a	-999	-999	n/a	n/a	n/a	n/a	7	[6, 9, 2]	17	PAL1	0	R1230J
1737.241	0.007	2168460	STOP	n/a	n/a	-999	-999	n/a	n/a	n/a	n/a	7	[-999, -999, -999]	-999	PAL1	0	R1230J
1737.248	0.0	2168467	MATH_END	n/a	n/a	-999	-999	n/a	n/a	n/a	n/a	7	[0, 0, 0]	-999	PAL1	0	R1230J
1737.248	0.017	2168467	RECALL_START	n/a	n/a	-999	-999	n/a	n/a	n/a	n/a	7	[0, 0, 0]	-999	PAL1	0	R1230J
1737.265	0.268	2168484	TEST_ORIENT	n/a	n/a	5	1	FLUTE	n/a	FLUTE	LEAF	7	[0, 0, 0]	-999	PAL1	0	R1230J
1737.533	0.565	2168752	RETRIEVAL_ORIENT_OFF	n/a	n/a	-999	-999	n/a	n/a	n/a	n/a	7	[0, 0, 0]	-999	PAL1	0	R1230J
1738.098	0.001	2169317	TEST_PROBE	n/a	wordpools/wordpool_EN.txt	5	1	FLUTE	n/a	FLUTE	LEAF	7	[0, 0, 0]	-999	PAL1	0	R1230J
1738.099	4.016	2169318	REC_START	n/a	n/a	5	-999	n/a	n/a	n/a	n/a	7	[0, 0, 0]	-999	PAL1	0	R1230J
1742.115	0.999	2173334	PROBE_OFF	n/a	n/a	5	-999	n/a	n/a	n/a	n/a	7	[0, 0, 0]	-999	PAL1	0	R1230J
1743.114	0.001	2174333	REC_EVENT	5015	n/a	5	1	FLUTE	<>	FLUTE	LEAF	7	[0, 0, 0]	-999	PAL1	0	R1230J
1743.115	0.017	2174334	REC_END	n/a	n/a	5	-999	n/a	n/a	n/a	n/a	7	[0, 0, 0]	-999	PAL1	0	R1230J
1743.132	0.268	2174351	TEST_ORIENT	n/a	n/a	6	2	ANT	n/a	CLAY	ANT	7	[0, 0, 0]	-999	PAL1	0	R1230J
1743.4	0.632	2174619	RETRIEVAL_ORIENT_OFF	n/a	n/a	5	-999	n/a	n/a	n/a	n/a	7	[0, 0, 0]	-999	PAL1	0	R1230J
1744.032	0.001	2175251	TEST_PROBE	n/a	wordpools/wordpool_EN.txt	6	2	ANT	n/a	CLAY	ANT	7	[0, 0, 0]	-999	PAL1	0	R1230J
1744.033	4.017	2175252	REC_START	n/a	n/a	6	-999	n/a	n/a	n/a	n/a	7	[0, 0, 0]	-999	PAL1	0	R1230J
1748.05	0.998	2179269	PROBE_OFF	n/a	n/a	6	-999	n/a	n/a	n/a	n/a	7	[0, 0, 0]	-999	PAL1	0	R1230J
1749.048	0.002	2180267	REC_EVENT	5015	n/a	6	2	ANT	<>	CLAY	ANT	7	[0, 0, 0]	-999	PAL1	0	R1230J
1749.05	0.016	2180269	REC_END	n/a	n/a	6	-999	n/a	n/a	n/a	n/a	7	[0, 0, 0]	-999	PAL1	0	R1230J
1749.066	0.267	2180285	TEST_ORIENT	n/a	n/a	3	3	STAR	n/a	STAR	SKUNK	7	[0, 0, 0]	-999	PAL1	0	R1230J
1749.333	0.717	2180552	RETRIEVAL_ORIENT_OFF	n/a	n/a	6	-999	n/a	n/a	n/a	n/a	7	[0, 0, 0]	-999	PAL1	0	R1230J
1750.05	0.0	2181269	TEST_PROBE	n/a	wordpools/wordpool_EN.txt	3	3	STAR	n/a	STAR	SKUNK	7	[0, 0, 0]	-999	PAL1	0	R1230J
1750.05	4.017	2181269	REC_START	n/a	n/a	3	-999	n/a	n/a	n/a	n/a	7	[0, 0, 0]	-999	PAL1	0	R1230J
1754.067	0.998	2185286	PROBE_OFF	n/a	n/a	3	-999	n/a	n/a	n/a	n/a	7	[0, 0, 0]	-999	PAL1	0	R1230J
1755.065	0.003	2186284	REC_EVENT	5015	n/a	3	3	STAR	<>	STAR	SKUNK	7	[0, 0, 0]	-999	PAL1	0	R1230J
1755.068	0.016	2186287	REC_END	n/a	n/a	3	-999	n/a	n/a	n/a	n/a	7	[0, 0, 0]	-999	PAL1	0	R1230J
1755.084	0.267	2186303	TEST_ORIENT	n/a	n/a	4	4	SPRING	n/a	SPRING	STAIR	7	[0, 0, 0]	-999	PAL1	0	R1230J
1755.351	0.649	2186570	RETRIEVAL_ORIENT_OFF	n/a	n/a	3	-999	n/a	n/a	n/a	n/a	7	[0, 0, 0]	-999	PAL1	0	R1230J
1756.0	0.001	2187219	TEST_PROBE	n/a	wordpools/wordpool_EN.txt	4	4	SPRING	n/a	SPRING	STAIR	7	[0, 0, 0]	-999	PAL1	0	R1230J
1756.001	4.017	2187220	REC_START	n/a	n/a	4	-999	n/a	n/a	n/a	n/a	7	[0, 0, 0]	-999	PAL1	0	R1230J
1760.018	1.01	2191237	PROBE_OFF	n/a	n/a	4	-999	n/a	n/a	n/a	n/a	7	[0, 0, 0]	-999	PAL1	0	R1230J
1761.028	0.001	2192247	REC_EVENT	5027	n/a	4	4	SPRING	<>	SPRING	STAIR	7	[0, 0, 0]	-999	PAL1	0	R1230J
1761.029	0.022	2192248	REC_END	n/a	n/a	4	-999	n/a	n/a	n/a	n/a	7	[0, 0, 0]	-999	PAL1	0	R1230J
1761.051	0.267	2192270	TEST_ORIENT	n/a	n/a	1	5	FROG	n/a	CORD	FROG	7	[0, 0, 0]	-999	PAL1	0	R1230J
1761.318	0.65	2192537	RETRIEVAL_ORIENT_OFF	n/a	n/a	4	-999	n/a	n/a	n/a	n/a	7	[0, 0, 0]	-999	PAL1	0	R1230J
1761.968	0.0	2193187	TEST_PROBE	n/a	wordpools/wordpool_EN.txt	1	5	FROG	n/a	CORD	FROG	7	[0, 0, 0]	-999	PAL1	0	R1230J
1761.968	4.017	2193187	REC_START	n/a	n/a	1	-999	n/a	n/a	n/a	n/a	7	[0, 0, 0]	-999	PAL1	0	R1230J
1765.985	0.998	2197204	PROBE_OFF	n/a	n/a	1	-999	n/a	n/a	n/a	n/a	7	[0, 0, 0]	-999	PAL1	0	R1230J
1766.983	0.003	2198202	REC_EVENT	5015	n/a	1	5	FROG	<>	CORD	FROG	7	[0, 0, 0]	-999	PAL1	0	R1230J
1766.986	0.016	2198205	REC_END	n/a	n/a	1	-999	n/a	n/a	n/a	n/a	7	[0, 0, 0]	-999	PAL1	0	R1230J
1767.002	0.267	2198221	TEST_ORIENT	n/a	n/a	2	6	PALM	n/a	PALM	MOON	7	[0, 0, 0]	-999	PAL1	0	R1230J
1767.269	0.55	2198488	RETRIEVAL_ORIENT_OFF	n/a	n/a	1	-999	n/a	n/a	n/a	n/a	7	[0, 0, 0]	-999	PAL1	0	R1230J
1767.819	0.0	2199038	TEST_PROBE	n/a	wordpools/wordpool_EN.txt	2	6	PALM	n/a	PALM	MOON	7	[0, 0, 0]	-999	PAL1	0	R1230J
1767.819	4.017	2199038	REC_START	n/a	n/a	2	-999	n/a	n/a	n/a	n/a	7	[0, 0, 0]	-999	PAL1	0	R1230J
1771.836	0.998	2203055	PROBE_OFF	n/a	n/a	2	-999	n/a	n/a	n/a	n/a	7	[0, 0, 0]	-999	PAL1	0	R1230J
1772.834	0.002	2204053	REC_EVENT	5015	n/a	2	6	PALM	<>	PALM	MOON	7	[0, 0, 0]	-999	PAL1	0	R1230J
1772.836	0.005	2204055	REC_END	n/a	n/a	2	-999	n/a	n/a	n/a	n/a	7	[0, 0, 0]	-999	PAL1	0	R1230J
1772.841	3.78	2204060	RECALL_END	n/a	n/a	-999	-999	n/a	n/a	n/a	n/a	7	[0, 0, 0]	-999	PAL1	0	R1230J
1776.621	10.929	2207840	TRIAL	n/a	n/a	-999	-999	n/a	n/a	n/a	n/a	8	[0, 0, 0]	-999	PAL1	0	R1230J
1787.55	0.006	2218769	ENCODING_START	n/a	n/a	-999	-999	n/a	n/a	n/a	n/a	8	[0, 0, 0]	-999	PAL1	0	R1230J
1787.556	0.266	2218775	STUDY_ORIENT	n/a	n/a	1	3	HOOK	SEED	HOOK	BOWL	8	[0, 0, 0]	-999	PAL1	0	R1230J
1787.822	0.717	2219041	STUDY_ORIENT_OFF	n/a	n/a	1	3	HOOK	SEED	HOOK	BOWL	8	[0, 0, 0]	-999	PAL1	0	R1230J
1788.539	4.017	2219758	STUDY_PAIR	n/a	wordpools/wordpool_EN.txt	1	3	HOOK	SEED	HOOK	BOWL	8	[0, 0, 0]	-999	PAL1	0	R1230J
1792.556	1.017	2223775	PAIR_OFF	n/a	n/a	1	3	HOOK	SEED	HOOK	BOWL	8	[0, 0, 0]	-999	PAL1	0	R1230J
1793.573	0.266	2224792	STUDY_ORIENT	n/a	n/a	2	6	SPARK	n/a	SPARK	FARM	8	[0, 0, 0]	-999	PAL1	0	R1230J
1793.839	0.584	2225058	STUDY_ORIENT_OFF	n/a	n/a	2	6	SPARK	n/a	SPARK	FARM	8	[0, 0, 0]	-999	PAL1	0	R1230J
1794.423	4.018	2225642	STUDY_PAIR	n/a	wordpools/wordpool_EN.txt	2	6	SPARK	n/a	SPARK	FARM	8	[0, 0, 0]	-999	PAL1	0	R1230J
1798.441	1.017	2229660	PAIR_OFF	n/a	n/a	2	6	SPARK	n/a	SPARK	FARM	8	[0, 0, 0]	-999	PAL1	0	R1230J
1799.458	0.265	2230677	STUDY_ORIENT	n/a	n/a	3	5	ROPE	n/a	SEED	ROPE	8	[0, 0, 0]	-999	PAL1	0	R1230J
1799.723	0.635	2230942	STUDY_ORIENT_OFF	n/a	n/a	3	5	ROPE	n/a	SEED	ROPE	8	[0, 0, 0]	-999	PAL1	0	R1230J
1800.358	4.017	2231577	STUDY_PAIR	n/a	wordpools/wordpool_EN.txt	3	5	ROPE	n/a	SEED	ROPE	8	[0, 0, 0]	-999	PAL1	0	R1230J
1804.375	1.017	2235594	PAIR_OFF	n/a	n/a	3	5	ROPE	n/a	SEED	ROPE	8	[0, 0, 0]	-999	PAL1	0	R1230J
1805.392	0.266	2236611	STUDY_ORIENT	n/a	n/a	4	2	FOOD	GENTLE	CLOTH	FOOD	8	[0, 0, 0]	-999	PAL1	0	R1230J
1805.658	0.75	2236877	STUDY_ORIENT_OFF	n/a	n/a	4	2	FOOD	GENTLE	CLOTH	FOOD	8	[0, 0, 0]	-999	PAL1	0	R1230J
1806.408	4.018	2237627	STUDY_PAIR	n/a	wordpools/wordpool_EN.txt	4	2	FOOD	GENTLE	CLOTH	FOOD	8	[0, 0, 0]	-999	PAL1	0	R1230J
1810.426	1.016	2241645	PAIR_OFF	n/a	n/a	4	2	FOOD	GENTLE	CLOTH	FOOD	8	[0, 0, 0]	-999	PAL1	0	R1230J
1811.442	0.266	2242661	STUDY_ORIENT	n/a	n/a	5	1	SIGN	n/a	SIGN	JAR	8	[0, 0, 0]	-999	PAL1	0	R1230J
1811.708	0.684	2242927	STUDY_ORIENT_OFF	n/a	n/a	5	1	SIGN	n/a	SIGN	JAR	8	[0, 0, 0]	-999	PAL1	0	R1230J
1812.392	4.018	2243611	STUDY_PAIR	n/a	wordpools/wordpool_EN.txt	5	1	SIGN	n/a	SIGN	JAR	8	[0, 0, 0]	-999	PAL1	0	R1230J
1816.41	1.016	2247629	PAIR_OFF	n/a	n/a	5	1	SIGN	n/a	SIGN	JAR	8	[0, 0, 0]	-999	PAL1	0	R1230J
1817.426	0.266	2248645	STUDY_ORIENT	n/a	n/a	6	4	OAK	n/a	YARD	OAK	8	[0, 0, 0]	-999	PAL1	0	R1230J
1817.692	0.685	2248911	STUDY_ORIENT_OFF	n/a	n/a	6	4	OAK	n/a	YARD	OAK	8	[0, 0, 0]	-999	PAL1	0	R1230J
1818.377	4.017	2249596	STUDY_PAIR	n/a	wordpools/wordpool_EN.txt	6	4	OAK	n/a	YARD	OAK	8	[0, 0, 0]	-999	PAL1	0	R1230J
1822.394	1.0	2253613	PAIR_OFF	n/a	n/a	6	4	OAK	n/a	YARD	OAK	8	[0, 0, 0]	-999	PAL1	0	R1230J
1823.394	0.0	2254613	ENCODING_END	n/a	n/a	-999	-999	n/a	n/a	n/a	n/a	8	[0, 0, 0]	-999	PAL1	0	R1230J
1823.394	0.0	2254613	MATH_START	n/a	n/a	-999	-999	n/a	n/a	n/a	n/a	8	[0, 0, 0]	-999	PAL1	0	R1230J
1823.394	0.017	2254613	START	n/a	n/a	-999	-999	n/a	n/a	n/a	n/a	8	[-999, -999, -999]	-999	PAL1	0	R1230J
1823.411	4.133	2254630	PROB	4099	n/a	-999	-999	n/a	n/a	n/a	n/a	8	[7, 7, 8]	22	PAL1	0	R1230J
1827.544	3.55	2258763	PROB	3526	n/a	-999	-999	n/a	n/a	n/a	n/a	8	[7, 4, 2]	14	PAL1	0	R1230J
1831.094	2.984	2262313	PROB	2951	n/a	-999	-999	n/a	n/a	n/a	n/a	8	[5, 3, 4]	13	PAL1	0	R1230J
1834.078	3.15	2265297	PROB	3120	n/a	-999	-999	n/a	n/a	n/a	n/a	8	[9, 4, 9]	21	PAL1	0	R1230J
1837.228	3.917	2268447	PROB	3881	n/a	-999	-999	n/a	n/a	n/a	n/a	8	[9, 4, 3]	16	PAL1	0	R1230J
1841.145	2.852	2272364	PROB	2852	n/a	-999	-999	n/a	n/a	n/a	n/a	8	[1, 1, 4]	6	PAL1	0	R1230J
1843.997	0.016	2275216	STOP	n/a	n/a	-999	-999	n/a	n/a	n/a	n/a	8	[-999, -999, -999]	-999	PAL1	0	R1230J
1844.013	0.0	2275232	MATH_END	n/a	n/a	-999	-999	n/a	n/a	n/a	n/a	8	[0, 0, 0]	-999	PAL1	0	R1230J
1844.013	0.016	2275232	RECALL_START	n/a	n/a	-999	-999	n/a	n/a	n/a	n/a	8	[0, 0, 0]	-999	PAL1	0	R1230J
1844.029	0.267	2275248	TEST_ORIENT	n/a	n/a	5	1	SIGN	n/a	SIGN	JAR	8	[0, 0, 0]	-999	PAL1	0	R1230J
1844.296	0.75	2275515	RETRIEVAL_ORIENT_OFF	n/a	n/a	-999	-999	n/a	n/a	n/a	n/a	8	[0, 0, 0]	-999	PAL1	0	R1230J
1845.046	0.001	2276265	TEST_PROBE	n/a	wordpools/wordpool_EN.txt	5	1	SIGN	n/a	SIGN	JAR	8	[0, 0, 0]	-999	PAL1	0	R1230J
1845.047	4.016	2276266	REC_START	n/a	n/a	5	-999	n/a	n/a	n/a	n/a	8	[0, 0, 0]	-999	PAL1	0	R1230J
1849.063	0.999	2280282	PROBE_OFF	n/a	n/a	5	-999	n/a	n/a	n/a	n/a	8	[0, 0, 0]	-999	PAL1	0	R1230J
1850.062	0.001	2281281	REC_EVENT	5015	n/a	5	1	SIGN	<>	SIGN	JAR	8	[0, 0, 0]	-999	PAL1	0	R1230J
1850.063	0.017	2281282	REC_END	n/a	n/a	5	-999	n/a	n/a	n/a	n/a	8	[0, 0, 0]	-999	PAL1	0	R1230J
1850.08	0.267	2281299	TEST_ORIENT	n/a	n/a	4	2	FOOD	GENTLE	CLOTH	FOOD	8	[0, 0, 0]	-999	PAL1	0	R1230J
1850.347	0.55	2281566	RETRIEVAL_ORIENT_OFF	n/a	n/a	5	-999	n/a	n/a	n/a	n/a	8	[0, 0, 0]	-999	PAL1	0	R1230J
1850.897	0.0	2282116	TEST_PROBE	n/a	wordpools/wordpool_EN.txt	4	2	FOOD	GENTLE	CLOTH	FOOD	8	[0, 0, 0]	-999	PAL1	0	R1230J
1850.897	1.966	2282116	REC_START	n/a	n/a	4	-999	n/a	GENTLE	n/a	n/a	8	[0, 0, 0]	-999	PAL1	0	R1230J
1852.863	2.051	2284082	REC_EVENT	1966	n/a	4	2	FOOD	GENTLE	CLOTH	FOOD	8	[0, 0, 0]	-999	PAL1	0	R1230J
1854.914	1.011	2286133	PROBE_OFF	n/a	n/a	4	-999	n/a	n/a	n/a	n/a	8	[0, 0, 0]	-999	PAL1	0	R1230J
1855.925	0.022	2287144	REC_END	n/a	n/a	4	-999	n/a	n/a	n/a	n/a	8	[0, 0, 0]	-999	PAL1	0	R1230J
1855.947	0.267	2287166	TEST_ORIENT	n/a	n/a	1	3	HOOK	SEED	HOOK	BOWL	8	[0, 0, 0]	-999	PAL1	0	R1230J
1856.214	0.7	2287433	RETRIEVAL_ORIENT_OFF	n/a	n/a	4	-999	n/a	n/a	n/a	n/a	8	[0, 0, 0]	-999	PAL1	0	R1230J
1856.914	0.001	2288133	TEST_PROBE	n/a	wordpools/wordpool_EN.txt	1	3	HOOK	SEED	HOOK	BOWL	8	[0, 0, 0]	-999	PAL1	0	R1230J
1856.915	3.234	2288134	REC_START	n/a	n/a	1	-999	n/a	SEED	n/a	n/a	8	[0, 0, 0]	-999	PAL1	0	R1230J
1860.149	0.782	2291368	REC_EVENT	3234	n/a	1	3	HOOK	SEED	HOOK	BOWL	8	[0, 0, 0]	-999	PAL1	0	R1230J
1860.931	1.001	2292150	PROBE_OFF	n/a	n/a	1	-999	n/a	n/a	n/a	n/a	8	[0, 0, 0]	-999	PAL1	0	R1230J
1861.932	0.016	2293151	REC_END	n/a	n/a	1	-999	n/a	n/a	n/a	n/a	8	[0, 0, 0]	-999	PAL1	0	R1230J
1861.948	0.267	2293167	TEST_ORIENT	n/a	n/a	6	4	OAK	n/a	YARD	OAK	8	[0, 0, 0]	-999	PAL1	0	R1230J
1862.215	0.75	2293434	RETRIEVAL_ORIENT_OFF	n/a	n/a	1	-999	n/a	n/a	n/a	n/a	8	[0, 0, 0]	-999	PAL1	0	R1230J
1862.965	0.0	2294184	TEST_PROBE	n/a	wordpools/wordpool_EN.txt	6	4	OAK	n/a	YARD	OAK	8	[0, 0, 0]	-999	PAL1	0	R1230J
1862.965	4.017	2294184	REC_START	n/a	n/a	6	-999	n/a	n/a	n/a	n/a	8	[0, 0, 0]	-999	PAL1	0	R1230J
1866.982	0.998	2298201	PROBE_OFF	n/a	n/a	6	-999	n/a	n/a	n/a	n/a	8	[0, 0, 0]	-999	PAL1	0	R1230J
1867.98	0.002	2299199	REC_EVENT	5015	n/a	6	4	OAK	<>	YARD	OAK	8	[0, 0, 0]	-999	PAL1	0	R1230J
1867.982	0.017	2299201	REC_END	n/a	n/a	6	-999	n/a	n/a	n/a	n/a	8	[0, 0, 0]	-999	PAL1	0	R1230J
1867.999	0.267	2299218	TEST_ORIENT	n/a	n/a	3	5	ROPE	n/a	SEED	ROPE	8	[0, 0, 0]	-999	PAL1	0	R1230J
1868.266	0.517	2299485	RETRIEVAL_ORIENT_OFF	n/a	n/a	6	-999	n/a	n/a	n/a	n/a	8	[0, 0, 0]	-999	PAL1	0	R1230J
1868.783	0.0	2300002	TEST_PROBE	n/a	wordpools/wordpool_EN.txt	3	5	ROPE	n/a	SEED	ROPE	8	[0, 0, 0]	-999	PAL1	0	R1230J
1868.783	4.016	2300002	REC_START	n/a	n/a	3	-999	n/a	n/a	n/a	n/a	8	[0, 0, 0]	-999	PAL1	0	R1230J
1872.799	0.999	2304018	PROBE_OFF	n/a	n/a	3	-999	n/a	n/a	n/a	n/a	8	[0, 0, 0]	-999	PAL1	0	R1230J
1873.798	0.001	2305017	REC_EVENT	5015	n/a	3	5	ROPE	<>	SEED	ROPE	8	[0, 0, 0]	-999	PAL1	0	R1230J
1873.799	0.017	2305018	REC_END	n/a	n/a	3	-999	n/a	n/a	n/a	n/a	8	[0, 0, 0]	-999	PAL1	0	R1230J
1873.816	0.267	2305035	TEST_ORIENT	n/a	n/a	2	6	SPARK	n/a	SPARK	FARM	8	[0, 0, 0]	-999	PAL1	0	R1230J
1874.083	0.584	2305302	RETRIEVAL_ORIENT_OFF	n/a	n/a	3	-999	n/a	n/a	n/a	n/a	8	[0, 0, 0]	-999	PAL1	0	R1230J
1874.667	0.001	2305886	TEST_PROBE	n/a	wordpools/wordpool_EN.txt	2	6	SPARK	n/a	SPARK	FARM	8	[0, 0, 0]	-999	PAL1	0	R1230J
1874.668	4.016	2305887	REC_START	n/a	n/a	2	-999	n/a	n/a	n/a	n/a	8	[0, 0, 0]	-999	PAL1	0	R1230J
1878.684	1.0	2309903	PROBE_OFF	n/a	n/a	2	-999	n/a	n/a	n/a	n/a	8	[0, 0, 0]	-999	PAL1	0	R1230J
1879.684	0.005	2310903	REC_END	n/a	n/a	2	-999	n/a	n/a	n/a	n/a	8	[0, 0, 0]	-999	PAL1	0	R1230J
1879.689	0.005	2310908	REC_EVENT	5021	n/a	2	6	SPARK	<>	SPARK	FARM	8	[0, 0, 0]	-999	PAL1	0	R1230J
1879.694	4.024	2310913	RECALL_END	n/a	n/a	-999	-999	n/a	n/a	n/a	n/a	8	[0, 0, 0]	-999	PAL1	0	R1230J
1883.718	10.929	2314937	TRIAL	n/a	n/a	-999	-999	n/a	n/a	n/a	n/a	9	[0, 0, 0]	-999	PAL1	0	R1230J
1894.647	0.006	2325866	ENCODING_START	n/a	n/a	-999	-999	n/a	n/a	n/a	n/a	9	[0, 0, 0]	-999	PAL1	0	R1230J
1894.653	0.266	2325872	STUDY_ORIENT	n/a	n/a	1	3	WEED	n/a	SQUARE	WEED	9	[0, 0, 0]	-999	PAL1	0	R1230J
1894.919	0.735	2326138	STUDY_ORIENT_OFF	n/a	n/a	1	3	WEED	n/a	SQUARE	WEED	9	[0, 0, 0]	-999	PAL1	0	R1230J
1895.654	4.017	2326873	STUDY_PAIR	n/a	wordpools/wordpool_EN.txt	1	3	WEED	n/a	SQUARE	WEED	9	[0, 0, 0]	-999	PAL1	0	R1230J
1899.671	1.016	2330890	PAIR_OFF	n/a	n/a	1	3	WEED	n/a	SQUARE	WEED	9	[0, 0, 0]	-999	PAL1	0	R1230J
1900.687	0.266	2331906	STUDY_ORIENT	n/a	n/a	2	4	STORM	n/a	STORM	MAP	9	[0, 0, 0]	-999	PAL1	0	R1230J
1900.953	0.518	2332172	STUDY_ORIENT_OFF	n/a	n/a	2	4	STORM	n/a	STORM	MAP	9	[0, 0, 0]	-999	PAL1	0	R1230J
1901.471	4.017	2332690	STUDY_PAIR	n/a	wordpools/wordpool_EN.txt	2	4	STORM	n/a	STORM	MAP	9	[0, 0, 0]	-999	PAL1	0	R1230J
1905.488	1.017	2336707	PAIR_OFF	n/a	n/a	2	4	STORM	n/a	STORM	MAP	9	[0, 0, 0]	-999	PAL1	0	R1230J
1906.505	0.266	2337724	STUDY_ORIENT	n/a	n/a	3	1	POOL	n/a	POOL	APE	9	[0, 0, 0]	-999	PAL1	0	R1230J
1906.771	0.517	2337990	STUDY_ORIENT_OFF	n/a	n/a	3	1	POOL	n/a	POOL	APE	9	[0, 0, 0]	-999	PAL1	0	R1230J
1907.288	4.017	2338507	STUDY_PAIR	n/a	wordpools/wordpool_EN.txt	3	1	POOL	n/a	POOL	APE	9	[0, 0, 0]	-999	PAL1	0	R1230J
1911.305	1.017	2342524	PAIR_OFF	n/a	n/a	3	1	POOL	n/a	POOL	APE	9	[0, 0, 0]	-999	PAL1	0	R1230J
1912.322	0.267	2343541	STUDY_ORIENT	n/a	n/a	4	6	SNOW	n/a	BIRD	SNOW	9	[0, 0, 0]	-999	PAL1	0	R1230J
1912.589	0.566	2343808	STUDY_ORIENT_OFF	n/a	n/a	4	6	SNOW	n/a	BIRD	SNOW	9	[0, 0, 0]	-999	PAL1	0	R1230J
1913.155	4.017	2344374	STUDY_PAIR	n/a	wordpools/wordpool_EN.txt	4	6	SNOW	n/a	BIRD	SNOW	9	[0, 0, 0]	-999	PAL1	0	R1230J
1917.172	1.017	2348391	PAIR_OFF	n/a	n/a	4	6	SNOW	n/a	BIRD	SNOW	9	[0, 0, 0]	-999	PAL1	0	R1230J
1918.189	0.251	2349408	STUDY_ORIENT	n/a	n/a	5	5	SMOKE	n/a	SMOKE	BOMB	9	[0, 0, 0]	-999	PAL1	0	R1230J
1918.44	0.666	2349659	STUDY_ORIENT_OFF	n/a	n/a	5	5	SMOKE	n/a	SMOKE	BOMB	9	[0, 0, 0]	-999	PAL1	0	R1230J
1919.106	4.017	2350325	STUDY_PAIR	n/a	wordpools/wordpool_EN.txt	5	5	SMOKE	n/a	SMOKE	BOMB	9	[0, 0, 0]	-999	PAL1	0	R1230J
1923.123	1.017	2354342	PAIR_OFF	n/a	n/a	5	5	SMOKE	n/a	SMOKE	BOMB	9	[0, 0, 0]	-999	PAL1	0	R1230J
1924.14	0.268	2355359	STUDY_ORIENT	n/a	n/a	6	2	BOX	n/a	BOX	GRASS	9	[0, 0, 0]	-999	PAL1	0	R1230J
1924.408	0.749	2355627	STUDY_ORIENT_OFF	n/a	n/a	6	2	BOX	n/a	BOX	GRASS	9	[0, 0, 0]	-999	PAL1	0	R1230J
1925.157	4.017	2356376	STUDY_PAIR	n/a	wordpools/wordpool_EN.txt	6	2	BOX	n/a	BOX	GRASS	9	[0, 0, 0]	-999	PAL1	0	R1230J
1929.174	1.0	2360393	PAIR_OFF	n/a	n/a	6	2	BOX	n/a	BOX	GRASS	9	[0, 0, 0]	-999	PAL1	0	R1230J
1930.174	0.0	2361393	ENCODING_END	n/a	n/a	-999	-999	n/a	n/a	n/a	n/a	9	[0, 0, 0]	-999	PAL1	0	R1230J
1930.174	0.0	2361393	MATH_START	n/a	n/a	-999	-999	n/a	n/a	n/a	n/a	9	[0, 0, 0]	-999	PAL1	0	R1230J
1930.174	0.017	2361393	START	n/a	n/a	-999	-999	n/a	n/a	n/a	n/a	9	[-999, -999, -999]	-999	PAL1	0	R1230J
1930.191	4.401	2361410	PROB	4380	n/a	-999	-999	n/a	n/a	n/a	n/a	9	[8, 9, 9]	26	PAL1	0	R1230J
1934.592	4.051	2365811	PROB	4027	n/a	-999	-999	n/a	n/a	n/a	n/a	9	[8, 8, 7]	23	PAL1	0	R1230J
1938.643	3.232	2369862	PROB	3199	n/a	-999	-999	n/a	n/a	n/a	n/a	9	[2, 8, 8]	18	PAL1	0	R1230J
1941.875	2.951	2373093	PROB	2926	n/a	-999	-999	n/a	n/a	n/a	n/a	9	[1, 2, 4]	7	PAL1	0	R1230J
1944.826	5.301	2376044	PROB	5272	n/a	-999	-999	n/a	n/a	n/a	n/a	9	[5, 4, 1]	10	PAL1	0	R1230J
1950.127	4.738	2381345	PROB	4738	n/a	-999	-999	n/a	n/a	n/a	n/a	9	[5, 7, 7]	19	PAL1	0	R1230J
1954.865	0.012	2386083	STOP	n/a	n/a	-999	-999	n/a	n/a	n/a	n/a	9	[-999, -999, -999]	-999	PAL1	0	R1230J
1954.877	0.0	2386095	MATH_END	n/a	n/a	-999	-999	n/a	n/a	n/a	n/a	9	[0, 0, 0]	-999	PAL1	0	R1230J
1954.877	0.017	2386095	RECALL_START	n/a	n/a	-999	-999	n/a	n/a	n/a	n/a	9	[0, 0, 0]	-999	PAL1	0	R1230J
1954.894	0.267	2386112	TEST_ORIENT	n/a	n/a	3	1	POOL	n/a	POOL	APE	9	[0, 0, 0]	-999	PAL1	0	R1230J
1955.161	0.583	2386379	RETRIEVAL_ORIENT_OFF	n/a	n/a	-999	-999	n/a	n/a	n/a	n/a	9	[0, 0, 0]	-999	PAL1	0	R1230J
1955.744	0.0	2386962	TEST_PROBE	n/a	wordpools/wordpool_EN.txt	3	1	POOL	n/a	POOL	APE	9	[0, 0, 0]	-999	PAL1	0	R1230J
1955.744	4.017	2386962	REC_START	n/a	n/a	3	-999	n/a	n/a	n/a	n/a	9	[0, 0, 0]	-999	PAL1	0	R1230J
1959.761	0.998	2390979	PROBE_OFF	n/a	n/a	3	-999	n/a	n/a	n/a	n/a	9	[0, 0, 0]	-999	PAL1	0	R1230J
1960.759	0.002	2391977	REC_EVENT	5015	n/a	3	1	POOL	<>	POOL	APE	9	[0, 0, 0]	-999	PAL1	0	R1230J
1960.761	0.017	2391979	REC_END	n/a	n/a	3	-999	n/a	n/a	n/a	n/a	9	[0, 0, 0]	-999	PAL1	0	R1230J
1960.778	0.267	2391996	TEST_ORIENT	n/a	n/a	6	2	BOX	n/a	BOX	GRASS	9	[0, 0, 0]	-999	PAL1	0	R1230J
1961.045	0.65	2392263	RETRIEVAL_ORIENT_OFF	n/a	n/a	3	-999	n/a	n/a	n/a	n/a	9	[0, 0, 0]	-999	PAL1	0	R1230J
1961.695	0.001	2392913	TEST_PROBE	n/a	wordpools/wordpool_EN.txt	6	2	BOX	n/a	BOX	GRASS	9	[0, 0, 0]	-999	PAL1	0	R1230J
1961.696	4.016	2392914	REC_START	n/a	n/a	6	-999	n/a	n/a	n/a	n/a	9	[0, 0, 0]	-999	PAL1	0	R1230J
1965.712	0.999	2396930	PROBE_OFF	n/a	n/a	6	-999	n/a	n/a	n/a	n/a	9	[0, 0, 0]	-999	PAL1	0	R1230J
1966.711	0.001	2397929	REC_EVENT	5015	n/a	6	2	BOX	<>	BOX	GRASS	9	[0, 0, 0]	-999	PAL1	0	R1230J
1966.712	0.017	2397930	REC_END	n/a	n/a	6	-999	n/a	n/a	n/a	n/a	9	[0, 0, 0]	-999	PAL1	0	R1230J
1966.729	0.267	2397947	TEST_ORIENT	n/a	n/a	1	3	WEED	n/a	SQUARE	WEED	9	[0, 0, 0]	-999	PAL1	0	R1230J
1966.996	0.634	2398214	RETRIEVAL_ORIENT_OFF	n/a	n/a	6	-999	n/a	n/a	n/a	n/a	9	[0, 0, 0]	-999	PAL1	0	R1230J
1967.63	0.001	2398848	TEST_PROBE	n/a	wordpools/wordpool_EN.txt	1	3	WEED	n/a	SQUARE	WEED	9	[0, 0, 0]	-999	PAL1	0	R1230J
1967.631	4.016	2398849	REC_START	n/a	n/a	1	-999	n/a	n/a	n/a	n/a	9	[0, 0, 0]	-999	PAL1	0	R1230J
1971.647	1.001	2402865	PROBE_OFF	n/a	n/a	1	-999	n/a	n/a	n/a	n/a	9	[0, 0, 0]	-999	PAL1	0	R1230J
1972.648	0.004	2403866	REC_END	n/a	n/a	1	-999	n/a	n/a	n/a	n/a	9	[0, 0, 0]	-999	PAL1	0	R1230J
1972.652	0.012	2403870	REC_EVENT	5021	n/a	1	3	WEED	<>	SQUARE	WEED	9	[0, 0, 0]	-999	PAL1	0	R1230J
1972.664	0.266	2403882	TEST_ORIENT	n/a	n/a	2	4	STORM	n/a	STORM	MAP	9	[0, 0, 0]	-999	PAL1	0	R1230J
1972.93	0.684	2404148	RETRIEVAL_ORIENT_OFF	n/a	n/a	1	-999	n/a	n/a	n/a	n/a	9	[0, 0, 0]	-999	PAL1	0	R1230J
1973.614	0.001	2404832	TEST_PROBE	n/a	wordpools/wordpool_EN.txt	2	4	STORM	n/a	STORM	MAP	9	[0, 0, 0]	-999	PAL1	0	R1230J
1973.615	4.017	2404833	REC_START	n/a	n/a	2	-999	n/a	n/a	n/a	n/a	9	[0, 0, 0]	-999	PAL1	0	R1230J
1977.632	0.998	2408850	PROBE_OFF	n/a	n/a	2	-999	n/a	n/a	n/a	n/a	9	[0, 0, 0]	-999	PAL1	0	R1230J
1978.63	0.002	2409848	REC_EVENT	5015	n/a	2	4	STORM	<>	STORM	MAP	9	[0, 0, 0]	-999	PAL1	0	R1230J
1978.632	0.016	2409850	REC_END	n/a	n/a	2	-999	n/a	n/a	n/a	n/a	9	[0, 0, 0]	-999	PAL1	0	R1230J
1978.648	0.266	2409866	TEST_ORIENT	n/a	n/a	5	5	SMOKE	n/a	SMOKE	BOMB	9	[0, 0, 0]	-999	PAL1	0	R1230J
1978.914	0.751	2410132	RETRIEVAL_ORIENT_OFF	n/a	n/a	2	-999	n/a	n/a	n/a	n/a	9	[0, 0, 0]	-999	PAL1	0	R1230J
1979.665	0.001	2410883	TEST_PROBE	n/a	wordpools/wordpool_EN.txt	5	5	SMOKE	n/a	SMOKE	BOMB	9	[0, 0, 0]	-999	PAL1	0	R1230J
1979.666	4.016	2410884	REC_START	n/a	n/a	5	-999	n/a	n/a	n/a	n/a	9	[0, 0, 0]	-999	PAL1	0	R1230J
1983.682	0.999	2414900	PROBE_OFF	n/a	n/a	5	-999	n/a	n/a	n/a	n/a	9	[0, 0, 0]	-999	PAL1	0	R1230J
1984.681	0.001	2415899	REC_EVENT	5015	n/a	5	5	SMOKE	<>	SMOKE	BOMB	9	[0, 0, 0]	-999	PAL1	0	R1230J
1984.682	0.016	2415900	REC_END	n/a	n/a	5	-999	n/a	n/a	n/a	n/a	9	[0, 0, 0]	-999	PAL1	0	R1230J
1984.698	0.267	2415916	TEST_ORIENT	n/a	n/a	4	6	SNOW	n/a	BIRD	SNOW	9	[0, 0, 0]	-999	PAL1	0	R1230J
1984.965	0.617	2416183	RETRIEVAL_ORIENT_OFF	n/a	n/a	5	-999	n/a	n/a	n/a	n/a	9	[0, 0, 0]	-999	PAL1	0	R1230J
1985.582	0.001	2416800	TEST_PROBE	n/a	wordpools/wordpool_EN.txt	4	6	SNOW	n/a	BIRD	SNOW	9	[0, 0, 0]	-999	PAL1	0	R1230J
1985.583	4.017	2416801	REC_START	n/a	n/a	4	-999	n/a	n/a	n/a	n/a	9	[0, 0, 0]	-999	PAL1	0	R1230J
1989.6	0.998	2420818	PROBE_OFF	n/a	n/a	4	-999	n/a	n/a	n/a	n/a	9	[0, 0, 0]	-999	PAL1	0	R1230J
1990.598	0.002	2421816	REC_EVENT	5015	n/a	4	6	SNOW	<>	BIRD	SNOW	9	[0, 0, 0]	-999	PAL1	0	R1230J
1990.6	0.009	2421818	REC_END	n/a	n/a	4	-999	n/a	n/a	n/a	n/a	9	[0, 0, 0]	-999	PAL1	0	R1230J
1990.609	4.207	2421827	RECALL_END	n/a	n/a	-999	-999	n/a	n/a	n/a	n/a	9	[0, 0, 0]	-999	PAL1	0	R1230J
1994.816	10.928	2426034	TRIAL	n/a	n/a	-999	-999	n/a	n/a	n/a	n/a	10	[0, 0, 0]	-999	PAL1	0	R1230J
2005.744	0.007	2436962	ENCODING_START	n/a	n/a	-999	-999	n/a	n/a	n/a	n/a	10	[0, 0, 0]	-999	PAL1	0	R1230J
2005.751	0.266	2436969	STUDY_ORIENT	n/a	n/a	1	1	SHIRT	n/a	SHIRT	TREE	10	[0, 0, 0]	-999	PAL1	0	R1230J
2006.017	0.751	2437235	STUDY_ORIENT_OFF	n/a	n/a	1	1	SHIRT	n/a	SHIRT	TREE	10	[0, 0, 0]	-999	PAL1	0	R1230J
2006.768	4.016	2437986	STUDY_PAIR	n/a	wordpools/wordpool_EN.txt	1	1	SHIRT	n/a	SHIRT	TREE	10	[0, 0, 0]	-999	PAL1	0	R1230J
2010.784	1.017	2442002	PAIR_OFF	n/a	n/a	1	1	SHIRT	n/a	SHIRT	TREE	10	[0, 0, 0]	-999	PAL1	0	R1230J
2011.801	0.267	2443019	STUDY_ORIENT	n/a	n/a	2	2	BALL	n/a	STRAW	BALL	10	[0, 0, 0]	-999	PAL1	0	R1230J
2012.068	0.667	2443286	STUDY_ORIENT_OFF	n/a	n/a	2	2	BALL	n/a	STRAW	BALL	10	[0, 0, 0]	-999	PAL1	0	R1230J
2012.735	4.017	2443953	STUDY_PAIR	n/a	wordpools/wordpool_EN.txt	2	2	BALL	n/a	STRAW	BALL	10	[0, 0, 0]	-999	PAL1	0	R1230J
2016.752	1.017	2447970	PAIR_OFF	n/a	n/a	2	2	BALL	n/a	STRAW	BALL	10	[0, 0, 0]	-999	PAL1	0	R1230J
2017.769	0.267	2448987	STUDY_ORIENT	n/a	n/a	3	5	DRUM	n/a	HOUSE	DRUM	10	[0, 0, 0]	-999	PAL1	0	R1230J
2018.036	0.667	2449254	STUDY_ORIENT_OFF	n/a	n/a	3	5	DRUM	n/a	HOUSE	DRUM	10	[0, 0, 0]	-999	PAL1	0	R1230J
2018.703	4.017	2449921	STUDY_PAIR	n/a	wordpools/wordpool_EN.txt	3	5	DRUM	n/a	HOUSE	DRUM	10	[0, 0, 0]	-999	PAL1	0	R1230J
2022.72	1.017	2453938	PAIR_OFF	n/a	n/a	3	5	DRUM	n/a	HOUSE	DRUM	10	[0, 0, 0]	-999	PAL1	0	R1230J
2023.737	0.266	2454955	STUDY_ORIENT	n/a	n/a	4	4	DITCH	n/a	DITCH	BOY	10	[0, 0, 0]	-999	PAL1	0	R1230J
2024.003	0.602	2455221	STUDY_ORIENT_OFF	n/a	n/a	4	4	DITCH	n/a	DITCH	BOY	10	[0, 0, 0]	-999	PAL1	0	R1230J
2024.605	4.017	2455823	STUDY_PAIR	n/a	wordpools/wordpool_EN.txt	4	4	DITCH	n/a	DITCH	BOY	10	[0, 0, 0]	-999	PAL1	0	R1230J
2028.622	1.017	2459840	PAIR_OFF	n/a	n/a	4	4	DITCH	n/a	DITCH	BOY	10	[0, 0, 0]	-999	PAL1	0	R1230J
2029.639	0.265	2460857	STUDY_ORIENT	n/a	n/a	5	3	STEAK	n/a	PRINCE	STEAK	10	[0, 0, 0]	-999	PAL1	0	R1230J
2029.904	0.668	2461122	STUDY_ORIENT_OFF	n/a	n/a	5	3	STEAK	n/a	PRINCE	STEAK	10	[0, 0, 0]	-999	PAL1	0	R1230J
2030.572	4.017	2461790	STUDY_PAIR	n/a	wordpools/wordpool_EN.txt	5	3	STEAK	n/a	PRINCE	STEAK	10	[0, 0, 0]	-999	PAL1	0	R1230J
2034.589	1.017	2465807	PAIR_OFF	n/a	n/a	5	3	STEAK	n/a	PRINCE	STEAK	10	[0, 0, 0]	-999	PAL1	0	R1230J
2035.606	0.266	2466824	STUDY_ORIENT	n/a	n/a	6	6	SKY	n/a	SKY	CAT	10	[0, 0, 0]	-999	PAL1	0	R1230J
2035.872	0.617	2467090	STUDY_ORIENT_OFF	n/a	n/a	6	6	SKY	n/a	SKY	CAT	10	[0, 0, 0]	-999	PAL1	0	R1230J
2036.489	4.018	2467707	STUDY_PAIR	n/a	wordpools/wordpool_EN.txt	6	6	SKY	n/a	SKY	CAT	10	[0, 0, 0]	-999	PAL1	0	R1230J
2040.507	1.001	2471725	PAIR_OFF	n/a	n/a	6	6	SKY	n/a	SKY	CAT	10	[0, 0, 0]	-999	PAL1	0	R1230J
2041.508	0.0	2472726	ENCODING_END	n/a	n/a	-999	-999	n/a	n/a	n/a	n/a	10	[0, 0, 0]	-999	PAL1	0	R1230J
2041.508	0.0	2472726	MATH_START	n/a	n/a	-999	-999	n/a	n/a	n/a	n/a	10	[0, 0, 0]	-999	PAL1	0	R1230J
2041.508	0.015	2472726	START	n/a	n/a	-999	-999	n/a	n/a	n/a	n/a	10	[-999, -999, -999]	-999	PAL1	0	R1230J
2041.523	3.4	2472741	PROB	3371	n/a	-999	-999	n/a	n/a	n/a	n/a	10	[7, 6, 4]	17	PAL1	0	R1230J
2044.923	5.017	2476141	PROB	4995	n/a	-999	-999	n/a	n/a	n/a	n/a	10	[7, 7, 8]	23	PAL1	0	R1230J
2049.94	2.05	2481158	PROB	2018	n/a	-999	-999	n/a	n/a	n/a	n/a	10	[4, 7, 3]	14	PAL1	0	R1230J
2051.99	2.435	2483208	PROB	2409	n/a	-999	-999	n/a	n/a	n/a	n/a	10	[5, 1, 7]	13	PAL1	0	R1230J
2054.425	3.566	2485643	PROB	3541	n/a	-999	-999	n/a	n/a	n/a	n/a	10	[3, 9, 9]	21	PAL1	0	R1230J
2057.991	2.934	2489209	PROB	2903	n/a	-999	-999	n/a	n/a	n/a	n/a	10	[4, 2, 2]	8	PAL1	0	R1230J
2060.925	3.001	2492143	PROB	3001	n/a	-999	-999	n/a	n/a	n/a	n/a	10	[8, 3, 5]	16	PAL1	0	R1230J
2063.926	0.016	2495144	STOP	n/a	n/a	-999	-999	n/a	n/a	n/a	n/a	10	[-999, -999, -999]	-999	PAL1	0	R1230J
2063.942	0.0	2495160	MATH_END	n/a	n/a	-999	-999	n/a	n/a	n/a	n/a	10	[0, 0, 0]	-999	PAL1	0	R1230J
2063.942	0.016	2495160	RECALL_START	n/a	n/a	-999	-999	n/a	n/a	n/a	n/a	10	[0, 0, 0]	-999	PAL1	0	R1230J
2063.958	0.267	2495176	TEST_ORIENT	n/a	n/a	1	1	SHIRT	n/a	SHIRT	TREE	10	[0, 0, 0]	-999	PAL1	0	R1230J
2064.225	0.75	2495443	RETRIEVAL_ORIENT_OFF	n/a	n/a	-999	-999	n/a	n/a	n/a	n/a	10	[0, 0, 0]	-999	PAL1	0	R1230J
2064.975	0.001	2496193	TEST_PROBE	n/a	wordpools/wordpool_EN.txt	1	1	SHIRT	n/a	SHIRT	TREE	10	[0, 0, 0]	-999	PAL1	0	R1230J
2064.976	4.017	2496194	REC_START	n/a	n/a	1	-999	n/a	n/a	n/a	n/a	10	[0, 0, 0]	-999	PAL1	0	R1230J
2068.993	0.998	2500211	PROBE_OFF	n/a	n/a	1	-999	n/a	n/a	n/a	n/a	10	[0, 0, 0]	-999	PAL1	0	R1230J
2069.991	0.002	2501209	REC_EVENT	5015	n/a	1	1	SHIRT	<>	SHIRT	TREE	10	[0, 0, 0]	-999	PAL1	0	R1230J
2069.993	0.017	2501211	REC_END	n/a	n/a	1	-999	n/a	n/a	n/a	n/a	10	[0, 0, 0]	-999	PAL1	0	R1230J
2070.01	0.266	2501228	TEST_ORIENT	n/a	n/a	2	2	BALL	n/a	STRAW	BALL	10	[0, 0, 0]	-999	PAL1	0	R1230J
2070.276	0.633	2501494	RETRIEVAL_ORIENT_OFF	n/a	n/a	1	-999	n/a	n/a	n/a	n/a	10	[0, 0, 0]	-999	PAL1	0	R1230J
2070.909	0.001	2502127	TEST_PROBE	n/a	wordpools/wordpool_EN.txt	2	2	BALL	n/a	STRAW	BALL	10	[0, 0, 0]	-999	PAL1	0	R1230J
2070.91	4.017	2502128	REC_START	n/a	n/a	2	-999	n/a	n/a	n/a	n/a	10	[0, 0, 0]	-999	PAL1	0	R1230J
2074.927	0.998	2506145	PROBE_OFF	n/a	n/a	2	-999	n/a	n/a	n/a	n/a	10	[0, 0, 0]	-999	PAL1	0	R1230J
2075.925	0.002	2507143	REC_EVENT	5015	n/a	2	2	BALL	<>	STRAW	BALL	10	[0, 0, 0]	-999	PAL1	0	R1230J
2075.927	0.017	2507145	REC_END	n/a	n/a	2	-999	n/a	n/a	n/a	n/a	10	[0, 0, 0]	-999	PAL1	0	R1230J
2075.944	0.266	2507162	TEST_ORIENT	n/a	n/a	5	3	STEAK	n/a	PRINCE	STEAK	10	[0, 0, 0]	-999	PAL1	0	R1230J
2076.21	0.75	2507428	RETRIEVAL_ORIENT_OFF	n/a	n/a	2	-999	n/a	n/a	n/a	n/a	10	[0, 0, 0]	-999	PAL1	0	R1230J
2076.96	0.001	2508178	TEST_PROBE	n/a	wordpools/wordpool_EN.txt	5	3	STEAK	n/a	PRINCE	STEAK	10	[0, 0, 0]	-999	PAL1	0	R1230J
2076.961	4.017	2508179	REC_START	n/a	n/a	5	-999	n/a	n/a	n/a	n/a	10	[0, 0, 0]	-999	PAL1	0	R1230J
2080.978	1.01	2512196	PROBE_OFF	n/a	n/a	5	-999	n/a	n/a	n/a	n/a	10	[0, 0, 0]	-999	PAL1	0	R1230J
2081.988	0.001	2513206	REC_EVENT	5027	n/a	5	3	STEAK	<>	PRINCE	STEAK	10	[0, 0, 0]	-999	PAL1	0	R1230J
2081.989	0.022	2513207	REC_END	n/a	n/a	5	-999	n/a	n/a	n/a	n/a	10	[0, 0, 0]	-999	PAL1	0	R1230J
2082.011	0.267	2513229	TEST_ORIENT	n/a	n/a	4	4	DITCH	n/a	DITCH	BOY	10	[0, 0, 0]	-999	PAL1	0	R1230J
2082.278	0.583	2513496	RETRIEVAL_ORIENT_OFF	n/a	n/a	5	-999	n/a	n/a	n/a	n/a	10	[0, 0, 0]	-999	PAL1	0	R1230J
2082.861	0.001	2514079	TEST_PROBE	n/a	wordpools/wordpool_EN.txt	4	4	DITCH	n/a	DITCH	BOY	10	[0, 0, 0]	-999	PAL1	0	R1230J
2082.862	4.017	2514080	REC_START	n/a	n/a	4	-999	n/a	n/a	n/a	n/a	10	[0, 0, 0]	-999	PAL1	0	R1230J
2086.879	1.0	2518097	PROBE_OFF	n/a	n/a	4	-999	n/a	n/a	n/a	n/a	10	[0, 0, 0]	-999	PAL1	0	R1230J
2087.879	0.004	2519097	REC_END	n/a	n/a	4	-999	n/a	n/a	n/a	n/a	10	[0, 0, 0]	-999	PAL1	0	R1230J
2087.883	0.012	2519101	REC_EVENT	5021	n/a	4	4	DITCH	<>	DITCH	BOY	10	[0, 0, 0]	-999	PAL1	0	R1230J
2087.895	0.267	2519113	TEST_ORIENT	n/a	n/a	3	5	DRUM	n/a	HOUSE	DRUM	10	[0, 0, 0]	-999	PAL1	0	R1230J
2088.162	0.75	2519380	RETRIEVAL_ORIENT_OFF	n/a	n/a	4	-999	n/a	n/a	n/a	n/a	10	[0, 0, 0]	-999	PAL1	0	R1230J
2088.912	0.001	2520130	TEST_PROBE	n/a	wordpools/wordpool_EN.txt	3	5	DRUM	n/a	HOUSE	DRUM	10	[0, 0, 0]	-999	PAL1	0	R1230J
2088.913	4.016	2520131	REC_START	n/a	n/a	3	-999	n/a	n/a	n/a	n/a	10	[0, 0, 0]	-999	PAL1	0	R1230J
2092.929	0.999	2524147	PROBE_OFF	n/a	n/a	3	-999	n/a	n/a	n/a	n/a	10	[0, 0, 0]	-999	PAL1	0	R1230J
2093.928	0.001	2525146	REC_EVENT	5015	n/a	3	5	DRUM	<>	HOUSE	DRUM	10	[0, 0, 0]	-999	PAL1	0	R1230J
2093.929	0.017	2525147	REC_END	n/a	n/a	3	-999	n/a	n/a	n/a	n/a	10	[0, 0, 0]	-999	PAL1	0	R1230J
2093.946	0.267	2525164	TEST_ORIENT	n/a	n/a	6	6	SKY	n/a	SKY	CAT	10	[0, 0, 0]	-999	PAL1	0	R1230J
2094.213	0.717	2525431	RETRIEVAL_ORIENT_OFF	n/a	n/a	3	-999	n/a	n/a	n/a	n/a	10	[0, 0, 0]	-999	PAL1	0	R1230J
2094.93	0.0	2526148	TEST_PROBE	n/a	wordpools/wordpool_EN.txt	6	6	SKY	n/a	SKY	CAT	10	[0, 0, 0]	-999	PAL1	0	R1230J
2094.93	4.017	2526148	REC_START	n/a	n/a	6	-999	n/a	n/a	n/a	n/a	10	[0, 0, 0]	-999	PAL1	0	R1230J
2098.947	0.998	2530165	PROBE_OFF	n/a	n/a	6	-999	n/a	n/a	n/a	n/a	10	[0, 0, 0]	-999	PAL1	0	R1230J
2099.945	0.002	2531163	REC_EVENT	5015	n/a	6	6	SKY	<>	SKY	CAT	10	[0, 0, 0]	-999	PAL1	0	R1230J
2099.947	0.01	2531165	REC_END	n/a	n/a	6	-999	n/a	n/a	n/a	n/a	10	[0, 0, 0]	-999	PAL1	0	R1230J
2099.957	4.708	2531175	RECALL_END	n/a	n/a	-999	-999	n/a	n/a	n/a	n/a	10	[0, 0, 0]	-999	PAL1	0	R1230J
2104.665	10.928	2535883	TRIAL	n/a	n/a	-999	-999	n/a	n/a	n/a	n/a	11	[0, 0, 0]	-999	PAL1	0	R1230J
2115.593	0.007	2546811	ENCODING_START	n/a	n/a	-999	-999	n/a	n/a	n/a	n/a	11	[0, 0, 0]	-999	PAL1	0	R1230J
2115.6	0.266	2546818	STUDY_ORIENT	n/a	n/a	1	3	SCHOOL	n/a	SNAIL	SCHOOL	11	[0, 0, 0]	-999	PAL1	0	R1230J
2115.866	0.717	2547084	STUDY_ORIENT_OFF	n/a	n/a	1	3	SCHOOL	n/a	SNAIL	SCHOOL	11	[0, 0, 0]	-999	PAL1	0	R1230J
2116.583	4.018	2547801	STUDY_PAIR	n/a	wordpools/wordpool_EN.txt	1	3	SCHOOL	n/a	SNAIL	SCHOOL	11	[0, 0, 0]	-999	PAL1	0	R1230J
2120.601	1.016	2551819	PAIR_OFF	n/a	n/a	1	3	SCHOOL	n/a	SNAIL	SCHOOL	11	[0, 0, 0]	-999	PAL1	0	R1230J
2121.617	0.266	2552835	STUDY_ORIENT	n/a	n/a	2	6	COUCH	n/a	COUCH	SLIME	11	[0, 0, 0]	-999	PAL1	0	R1230J
2121.883	0.701	2553101	STUDY_ORIENT_OFF	n/a	n/a	2	6	COUCH	n/a	COUCH	SLIME	11	[0, 0, 0]	-999	PAL1	0	R1230J
2122.584	4.017	2553802	STUDY_PAIR	n/a	wordpools/wordpool_EN.txt	2	6	COUCH	n/a	COUCH	SLIME	11	[0, 0, 0]	-999	PAL1	0	R1230J
2126.601	1.017	2557819	PAIR_OFF	n/a	n/a	2	6	COUCH	n/a	COUCH	SLIME	11	[0, 0, 0]	-999	PAL1	0	R1230J
2127.618	0.266	2558836	STUDY_ORIENT	n/a	n/a	3	1	PLATE	HOT	HEN	PLATE	11	[0, 0, 0]	-999	PAL1	0	R1230J
2127.884	0.751	2559102	STUDY_ORIENT_OFF	n/a	n/a	3	1	PLATE	HOT	HEN	PLATE	11	[0, 0, 0]	-999	PAL1	0	R1230J
2128.635	4.017	2559853	STUDY_PAIR	n/a	wordpools/wordpool_EN.txt	3	1	PLATE	HOT	HEN	PLATE	11	[0, 0, 0]	-999	PAL1	0	R1230J
2132.652	1.017	2563870	PAIR_OFF	n/a	n/a	3	1	PLATE	HOT	HEN	PLATE	11	[0, 0, 0]	-999	PAL1	0	R1230J
2133.669	0.266	2564887	STUDY_ORIENT	n/a	n/a	4	4	PANTS	n/a	PANTS	JUDGE	11	[0, 0, 0]	-999	PAL1	0	R1230J
2133.935	0.667	2565153	STUDY_ORIENT_OFF	n/a	n/a	4	4	PANTS	n/a	PANTS	JUDGE	11	[0, 0, 0]	-999	PAL1	0	R1230J
2134.602	4.018	2565820	STUDY_PAIR	n/a	wordpools/wordpool_EN.txt	4	4	PANTS	n/a	PANTS	JUDGE	11	[0, 0, 0]	-999	PAL1	0	R1230J
2138.62	1.017	2569838	PAIR_OFF	n/a	n/a	4	4	PANTS	n/a	PANTS	JUDGE	11	[0, 0, 0]	-999	PAL1	0	R1230J
2139.637	0.265	2570855	STUDY_ORIENT	n/a	n/a	5	5	SMILE	n/a	SMILE	CROW	11	[0, 0, 0]	-999	PAL1	0	R1230J
2139.902	0.601	2571120	STUDY_ORIENT_OFF	n/a	n/a	5	5	SMILE	n/a	SMILE	CROW	11	[0, 0, 0]	-999	PAL1	0	R1230J
2140.503	4.018	2571721	STUDY_PAIR	n/a	wordpools/wordpool_EN.txt	5	5	SMILE	n/a	SMILE	CROW	11	[0, 0, 0]	-999	PAL1	0	R1230J
2144.521	1.017	2575739	PAIR_OFF	n/a	n/a	5	5	SMILE	n/a	SMILE	CROW	11	[0, 0, 0]	-999	PAL1	0	R1230J
2145.538	0.265	2576756	STUDY_ORIENT	n/a	n/a	6	2	WOOD	n/a	WOOD	FLOOR	11	[0, 0, 0]	-999	PAL1	0	R1230J
2145.803	0.685	2577021	STUDY_ORIENT_OFF	n/a	n/a	6	2	WOOD	n/a	WOOD	FLOOR	11	[0, 0, 0]	-999	PAL1	0	R1230J
2146.488	4.017	2577706	STUDY_PAIR	n/a	wordpools/wordpool_EN.txt	6	2	WOOD	n/a	WOOD	FLOOR	11	[0, 0, 0]	-999	PAL1	0	R1230J
2150.505	1.001	2581723	PAIR_OFF	n/a	n/a	6	2	WOOD	n/a	WOOD	FLOOR	11	[0, 0, 0]	-999	PAL1	0	R1230J
2151.506	0.0	2582724	MATH_START	n/a	n/a	-999	-999	n/a	n/a	n/a	n/a	11	[0, 0, 0]	-999	PAL1	0	R1230J
2151.506	0.0	2582724	ENCODING_END	n/a	n/a	-999	-999	n/a	n/a	n/a	n/a	11	[0, 0, 0]	-999	PAL1	0	R1230J
2151.506	0.015	2582724	START	n/a	n/a	-999	-999	n/a	n/a	n/a	n/a	11	[-999, -999, -999]	-999	PAL1	0	R1230J
2151.521	3.417	2582739	PROB	3393	n/a	-999	-999	n/a	n/a	n/a	n/a	11	[7, 9, 8]	24	PAL1	0	R1230J
2154.938	2.15	2586156	PROB	2113	n/a	-999	-999	n/a	n/a	n/a	n/a	11	[1, 9, 5]	15	PAL1	0	R1230J
2157.088	2.401	2588306	PROB	2372	n/a	-999	-999	n/a	n/a	n/a	n/a	11	[5, 1, 7]	12	PAL1	0	R1230J
2159.489	3.184	2590707	PROB	3162	n/a	-999	-999	n/a	n/a	n/a	n/a	11	[4, 5, 9]	18	PAL1	0	R1230J
2162.673	1.967	2593891	PROB	1931	n/a	-999	-999	n/a	n/a	n/a	n/a	11	[7, 5, 5]	17	PAL1	0	R1230J
2164.64	2.533	2595858	PROB	2506	n/a	-999	-999	n/a	n/a	n/a	n/a	11	[6, 2, 2]	10	PAL1	0	R1230J
2167.173	2.883	2598391	PROB	2845	n/a	-999	-999	n/a	n/a	n/a	n/a	11	[4, 7, 1]	12	PAL1	0	R1230J
2170.056	2.225	2601274	PROB	2225	n/a	-999	-999	n/a	n/a	n/a	n/a	11	[7, 2, 4]	13	PAL1	0	R1230J
2172.281	0.009	2603499	STOP	n/a	n/a	-999	-999	n/a	n/a	n/a	n/a	11	[-999, -999, -999]	-999	PAL1	0	R1230J
2172.29	0.0	2603508	MATH_END	n/a	n/a	-999	-999	n/a	n/a	n/a	n/a	11	[0, 0, 0]	-999	PAL1	0	R1230J
2172.29	0.016	2603508	RECALL_START	n/a	n/a	-999	-999	n/a	n/a	n/a	n/a	11	[0, 0, 0]	-999	PAL1	0	R1230J
2172.306	0.268	2603524	TEST_ORIENT	n/a	n/a	3	1	PLATE	HOT	HEN	PLATE	11	[0, 0, 0]	-999	PAL1	0	R1230J
2172.574	0.566	2603792	RETRIEVAL_ORIENT_OFF	n/a	n/a	-999	-999	n/a	n/a	n/a	n/a	11	[0, 0, 0]	-999	PAL1	0	R1230J
2173.14	0.001	2604358	TEST_PROBE	n/a	wordpools/wordpool_EN.txt	3	1	PLATE	HOT	HEN	PLATE	11	[0, 0, 0]	-999	PAL1	0	R1230J
2173.141	1.336	2604359	REC_START	n/a	n/a	3	-999	n/a	HOT	n/a	n/a	11	[0, 0, 0]	-999	PAL1	0	R1230J
2174.477	2.68	2605695	REC_EVENT	1336	n/a	3	1	PLATE	HOT	HEN	PLATE	11	[0, 0, 0]	-999	PAL1	0	R1230J
2177.157	1.0	2608375	PROBE_OFF	n/a	n/a	3	-999	n/a	n/a	n/a	n/a	11	[0, 0, 0]	-999	PAL1	0	R1230J
2178.157	0.017	2609375	REC_END	n/a	n/a	3	-999	n/a	n/a	n/a	n/a	11	[0, 0, 0]	-999	PAL1	0	R1230J
2178.174	0.268	2609392	TEST_ORIENT	n/a	n/a	6	2	WOOD	n/a	WOOD	FLOOR	11	[0, 0, 0]	-999	PAL1	0	R1230J
2178.442	0.682	2609660	RETRIEVAL_ORIENT_OFF	n/a	n/a	3	-999	n/a	n/a	n/a	n/a	11	[0, 0, 0]	-999	PAL1	0	R1230J
2179.124	0.001	2610342	TEST_PROBE	n/a	wordpools/wordpool_EN.txt	6	2	WOOD	n/a	WOOD	FLOOR	11	[0, 0, 0]	-999	PAL1	0	R1230J
2179.125	4.016	2610343	REC_START	n/a	n/a	6	-999	n/a	n/a	n/a	n/a	11	[0, 0, 0]	-999	PAL1	0	R1230J
2183.141	0.999	2614359	PROBE_OFF	n/a	n/a	6	-999	n/a	n/a	n/a	n/a	11	[0, 0, 0]	-999	PAL1	0	R1230J
2184.14	0.001	2615358	REC_EVENT	5015	n/a	6	2	WOOD	<>	WOOD	FLOOR	11	[0, 0, 0]	-999	PAL1	0	R1230J
2184.141	0.017	2615359	REC_END	n/a	n/a	6	-999	n/a	n/a	n/a	n/a	11	[0, 0, 0]	-999	PAL1	0	R1230J
2184.158	0.268	2615376	TEST_ORIENT	n/a	n/a	1	3	SCHOOL	n/a	SNAIL	SCHOOL	11	[0, 0, 0]	-999	PAL1	0	R1230J
2184.426	0.565	2615644	RETRIEVAL_ORIENT_OFF	n/a	n/a	6	-999	n/a	n/a	n/a	n/a	11	[0, 0, 0]	-999	PAL1	0	R1230J
2184.991	0.001	2616209	TEST_PROBE	n/a	wordpools/wordpool_EN.txt	1	3	SCHOOL	n/a	SNAIL	SCHOOL	11	[0, 0, 0]	-999	PAL1	0	R1230J
2184.992	4.017	2616210	REC_START	n/a	n/a	1	-999	n/a	n/a	n/a	n/a	11	[0, 0, 0]	-999	PAL1	0	R1230J
2189.009	0.998	2620227	PROBE_OFF	n/a	n/a	1	-999	n/a	n/a	n/a	n/a	11	[0, 0, 0]	-999	PAL1	0	R1230J
2190.007	0.003	2621225	REC_EVENT	5015	n/a	1	3	SCHOOL	<>	SNAIL	SCHOOL	11	[0, 0, 0]	-999	PAL1	0	R1230J
2190.01	0.016	2621228	REC_END	n/a	n/a	1	-999	n/a	n/a	n/a	n/a	11	[0, 0, 0]	-999	PAL1	0	R1230J
2190.026	0.266	2621244	TEST_ORIENT	n/a	n/a	4	4	PANTS	n/a	PANTS	JUDGE	11	[0, 0, 0]	-999	PAL1	0	R1230J
2190.292	0.617	2621510	RETRIEVAL_ORIENT_OFF	n/a	n/a	1	-999	n/a	n/a	n/a	n/a	11	[0, 0, 0]	-999	PAL1	0	R1230J
2190.909	0.0	2622127	TEST_PROBE	n/a	wordpools/wordpool_EN.txt	4	4	PANTS	n/a	PANTS	JUDGE	11	[0, 0, 0]	-999	PAL1	0	R1230J
2190.909	4.017	2622127	REC_START	n/a	n/a	4	-999	n/a	n/a	n/a	n/a	11	[0, 0, 0]	-999	PAL1	0	R1230J
2194.926	0.998	2626144	PROBE_OFF	n/a	n/a	4	-999	n/a	n/a	n/a	n/a	11	[0, 0, 0]	-999	PAL1	0	R1230J
2195.924	0.002	2627142	REC_EVENT	5015	n/a	4	4	PANTS	<>	PANTS	JUDGE	11	[0, 0, 0]	-999	PAL1	0	R1230J
2195.926	0.017	2627144	REC_END	n/a	n/a	4	-999	n/a	n/a	n/a	n/a	11	[0, 0, 0]	-999	PAL1	0	R1230J
2195.943	0.267	2627161	TEST_ORIENT	n/a	n/a	5	5	SMILE	n/a	SMILE	CROW	11	[0, 0, 0]	-999	PAL1	0	R1230J
2196.21	0.7	2627428	RETRIEVAL_ORIENT_OFF	n/a	n/a	4	-999	n/a	n/a	n/a	n/a	11	[0, 0, 0]	-999	PAL1	0	R1230J
2196.91	0.0	2628128	TEST_PROBE	n/a	wordpools/wordpool_EN.txt	5	5	SMILE	n/a	SMILE	CROW	11	[0, 0, 0]	-999	PAL1	0	R1230J
2196.91	4.017	2628128	REC_START	n/a	n/a	5	-999	n/a	n/a	n/a	n/a	11	[0, 0, 0]	-999	PAL1	0	R1230J
2200.927	0.998	2632145	PROBE_OFF	n/a	n/a	5	-999	n/a	n/a	n/a	n/a	11	[0, 0, 0]	-999	PAL1	0	R1230J
2201.925	0.002	2633143	REC_EVENT	5015	n/a	5	5	SMILE	<>	SMILE	CROW	11	[0, 0, 0]	-999	PAL1	0	R1230J
2201.927	0.017	2633145	REC_END	n/a	n/a	5	-999	n/a	n/a	n/a	n/a	11	[0, 0, 0]	-999	PAL1	0	R1230J
2201.944	0.267	2633162	TEST_ORIENT	n/a	n/a	2	6	COUCH	n/a	COUCH	SLIME	11	[0, 0, 0]	-999	PAL1	0	R1230J
2202.211	0.616	2633429	RETRIEVAL_ORIENT_OFF	n/a	n/a	5	-999	n/a	n/a	n/a	n/a	11	[0, 0, 0]	-999	PAL1	0	R1230J
2202.827	0.001	2634045	TEST_PROBE	n/a	wordpools/wordpool_EN.txt	2	6	COUCH	n/a	COUCH	SLIME	11	[0, 0, 0]	-999	PAL1	0	R1230J
2202.828	4.017	2634046	REC_START	n/a	n/a	2	-999	n/a	n/a	n/a	n/a	11	[0, 0, 0]	-999	PAL1	0	R1230J
2206.845	0.998	2638063	PROBE_OFF	n/a	n/a	2	-999	n/a	n/a	n/a	n/a	11	[0, 0, 0]	-999	PAL1	0	R1230J
2207.843	0.002	2639061	REC_EVENT	5015	n/a	2	6	COUCH	<>	COUCH	SLIME	11	[0, 0, 0]	-999	PAL1	0	R1230J
2207.845	0.01	2639063	REC_END	n/a	n/a	2	-999	n/a	n/a	n/a	n/a	11	[0, 0, 0]	-999	PAL1	0	R1230J
2207.855	5.491	2639073	RECALL_END	n/a	n/a	-999	-999	n/a	n/a	n/a	n/a	11	[0, 0, 0]	-999	PAL1	0	R1230J
2213.346	10.928	2644564	TRIAL	n/a	n/a	-999	-999	n/a	n/a	n/a	n/a	12	[0, 0, 0]	-999	PAL1	0	R1230J
2224.274	0.006	2655492	ENCODING_START	n/a	n/a	-999	-999	n/a	n/a	n/a	n/a	12	[0, 0, 0]	-999	PAL1	0	R1230J
2224.28	0.268	2655498	STUDY_ORIENT	n/a	n/a	1	5	CAKE	n/a	CAKE	SPONGE	12	[0, 0, 0]	-999	PAL1	0	R1230J
