onset	duration	sample	trial_type	response_time	stim_file	serialpos	probepos	probe_word	resp_word	study_1	study_2	list	test	answer	experiment	session	subject
0.0	56.082	313123	SESS_START	n/a	n/a	-999	-999	n/a	n/a	n/a	n/a	-999	[0, 0, 0]	-999	PAL1	0	R1023J
56.082	1.017	369203	START	n/a	n/a	-999	-999	n/a	n/a	n/a	n/a	-1	[-999, -999, -999]	-999	PAL1	0	R1023J
57.099	6.661	370220	PROB	6626.0	n/a	-999	-999	n/a	n/a	n/a	n/a	-1	[4, 9, 5]	18	PAL1	0	R1023J
63.76	11.738	376881	PROB	11710.0	n/a	-999	-999	n/a	n/a	n/a	n/a	-1	[8, 6, 8]	22	PAL1	0	R1023J
75.498	4.116	388619	PROB	4116.0	n/a	-999	-999	n/a	n/a	n/a	n/a	-1	[5, 5, 8]	18	PAL1	0	R1023J
79.614	53.039	392735	STOP	n/a	n/a	-999	-999	n/a	n/a	n/a	n/a	-1	[-999, -999, -999]	-999	PAL1	0	R1023J
132.653	10.441	445772	ENCODING_START	n/a	n/a	0	-999	n/a	n/a	n/a	n/a	1	[0, 0, 0]	-999	PAL1	0	R1023J
143.094	0.275	456212	STUDY_ORIENT	n/a	n/a	1	5	PIE	n/a	PIE	YARD	1	[0, 0, 0]	-999	PAL1	0	R1023J
143.945	4.0	457063	STUDY_PAIR	n/a	wordpools/wordpool_EN.txt	1	5	PIE	n/a	PIE	YARD	1	[0, 0, 0]	-999	PAL1	0	R1023J
148.97	0.275	462088	STUDY_ORIENT	n/a	n/a	2	6	STORM	SOCK	STORM	SOCK	1	[0, 0, 0]	-999	PAL1	0	R1023J
149.822	4.0	462940	STUDY_PAIR	n/a	wordpools/wordpool_EN.txt	2	6	STORM	SOCK	STORM	SOCK	1	[0, 0, 0]	-999	PAL1	0	R1023J
154.847	0.275	467965	STUDY_ORIENT	n/a	n/a	3	1	CAT	POLE	POLE	CAT	1	[0, 0, 0]	-999	PAL1	0	R1023J
155.699	4.0	468817	STUDY_PAIR	n/a	wordpools/wordpool_EN.txt	3	1	CAT	POLE	POLE	CAT	1	[0, 0, 0]	-999	PAL1	0	R1023J
160.723	0.275	473841	STUDY_ORIENT	n/a	n/a	4	4	RUG	ROCK	RUG	ROCK	1	[0, 0, 0]	-999	PAL1	0	R1023J
161.725	4.0	474843	STUDY_PAIR	n/a	wordpools/wordpool_EN.txt	4	4	RUG	ROCK	RUG	ROCK	1	[0, 0, 0]	-999	PAL1	0	R1023J
166.75	0.275	479868	STUDY_ORIENT	n/a	n/a	5	3	ROAD	BARN	ROAD	BARN	1	[0, 0, 0]	-999	PAL1	0	R1023J
167.703	4.0	480820	STUDY_PAIR	n/a	wordpools/wordpool_EN.txt	5	3	ROAD	BARN	ROAD	BARN	1	[0, 0, 0]	-999	PAL1	0	R1023J
172.727	0.275	485844	STUDY_ORIENT	n/a	n/a	6	2	ARM	n/a	SPARK	ARM	1	[0, 0, 0]	-999	PAL1	0	R1023J
173.745	4.0	486862	STUDY_PAIR	n/a	wordpools/wordpool_EN.txt	6	2	ARM	n/a	SPARK	ARM	1	[0, 0, 0]	-999	PAL1	0	R1023J
177.754	0.999	490871	START	n/a	n/a	-999	-999	n/a	n/a	n/a	n/a	1	[-999, -999, -999]	-999	PAL1	0	R1023J
178.753	0.017	491870	MATH_START	n/a	n/a	-999	-999	n/a	n/a	n/a	n/a	1	[0, 0, 0]	-999	PAL1	0	R1023J
178.77	4.926	491887	PROB	4900.0	n/a	-999	-999	n/a	n/a	n/a	n/a	1	[6, 4, 5]	15	PAL1	0	R1023J
183.696	5.425	496813	PROB	5389.0	n/a	-999	-999	n/a	n/a	n/a	n/a	1	[7, 8, 5]	20	PAL1	0	R1023J
189.121	8.298	502238	PROB	8276.0	n/a	-999	-999	n/a	n/a	n/a	n/a	1	[4, 7, 5]	16	PAL1	0	R1023J
197.419	5.938	510535	PROB	5938.0	n/a	-999	-999	n/a	n/a	n/a	n/a	1	[5, 9, 6]	20	PAL1	0	R1023J
203.357	0.006	516473	STOP	n/a	n/a	-999	-999	n/a	n/a	n/a	n/a	1	[-999, -999, -999]	-999	PAL1	0	R1023J
203.363	0.0	516479	MATH_END	n/a	n/a	-999	-999	n/a	n/a	n/a	n/a	1	[0, 0, 0]	-999	PAL1	0	R1023J
203.363	0.017	516479	TEST_START	n/a	n/a	-999	-999	n/a	n/a	n/a	n/a	1	[0, 0, 0]	-999	PAL1	0	R1023J
203.38	0.275	516496	TEST_ORIENT	n/a	n/a	3	1	CAT	POLE	POLE	CAT	1	[0, 0, 0]	-999	PAL1	0	R1023J
204.264	4.0	517380	TEST_PROBE	n/a	wordpools/wordpool_EN.txt	3	1	CAT	POLE	POLE	CAT	1	[0, 0, 0]	-999	PAL1	0	R1023J
204.283	2.104	517399	REC_START	n/a	n/a	3	-999	n/a	POLE	n/a	n/a	1	[0, 0, 0]	-999	PAL1	0	R1023J
206.387	2.885	519503	REC_EVENT	2104.0	n/a	3	1	CAT	POLE	POLE	CAT	1	[0, 0, 0]	-999	PAL1	0	R1023J
209.272	0.034	522388	REC_END	n/a	n/a	3	-999	n/a	n/a	n/a	n/a	1	[0, 0, 0]	-999	PAL1	0	R1023J
209.306	0.275	522422	TEST_ORIENT	n/a	n/a	6	2	ARM	n/a	SPARK	ARM	1	[0, 0, 0]	-999	PAL1	0	R1023J
210.291	4.0	523407	TEST_PROBE	n/a	wordpools/wordpool_EN.txt	6	2	ARM	n/a	SPARK	ARM	1	[0, 0, 0]	-999	PAL1	0	R1023J
210.292	5.021	523408	REC_START	n/a	n/a	6	-999	n/a	n/a	n/a	n/a	1	[0, 0, 0]	-999	PAL1	0	R1023J
215.313	0.001	528429	REC_EVENT	5021.0	n/a	6	2	ARM	<>	SPARK	ARM	1	[0, 0, 0]	-999	PAL1	0	R1023J
215.314	0.019	528430	REC_END	n/a	n/a	6	-999	n/a	n/a	n/a	n/a	1	[0, 0, 0]	-999	PAL1	0	R1023J
215.333	0.275	528449	TEST_ORIENT	n/a	n/a	5	3	ROAD	BARN	ROAD	BARN	1	[0, 0, 0]	-999	PAL1	0	R1023J
216.167	4.0	529283	TEST_PROBE	n/a	wordpools/wordpool_EN.txt	5	3	ROAD	BARN	ROAD	BARN	1	[0, 0, 0]	-999	PAL1	0	R1023J
216.167	1.373	529283	REC_START	n/a	n/a	5	-999	n/a	BARN	n/a	n/a	1	[0, 0, 0]	-999	PAL1	0	R1023J
217.54	3.65	530656	REC_EVENT	1373.0	n/a	5	3	ROAD	BARN	ROAD	BARN	1	[0, 0, 0]	-999	PAL1	0	R1023J
221.19	0.019	534306	REC_END	n/a	n/a	5	-999	n/a	n/a	n/a	n/a	1	[0, 0, 0]	-999	PAL1	0	R1023J
221.209	0.275	534325	TEST_ORIENT	n/a	n/a	4	4	RUG	ROCK	RUG	ROCK	1	[0, 0, 0]	-999	PAL1	0	R1023J
222.127	4.0	535243	TEST_PROBE	n/a	wordpools/wordpool_EN.txt	4	4	RUG	ROCK	RUG	ROCK	1	[0, 0, 0]	-999	PAL1	0	R1023J
222.128	1.121	535244	REC_START	n/a	n/a	4	-999	n/a	ROCK	n/a	n/a	1	[0, 0, 0]	-999	PAL1	0	R1023J
223.249	3.9	536364	REC_EVENT	1121.0	n/a	4	4	RUG	ROCK	RUG	ROCK	1	[0, 0, 0]	-999	PAL1	0	R1023J
227.149	0.02	540264	REC_END	n/a	n/a	4	-999	n/a	n/a	n/a	n/a	1	[0, 0, 0]	-999	PAL1	0	R1023J
227.169	0.275	540284	TEST_ORIENT	n/a	n/a	1	5	PIE	n/a	PIE	YARD	1	[0, 0, 0]	-999	PAL1	0	R1023J
228.037	4.0	541152	TEST_PROBE	n/a	wordpools/wordpool_EN.txt	1	5	PIE	n/a	PIE	YARD	1	[0, 0, 0]	-999	PAL1	0	R1023J
228.037	5.023	541152	REC_START	n/a	n/a	1	-999	n/a	n/a	n/a	n/a	1	[0, 0, 0]	-999	PAL1	0	R1023J
233.06	0.004	546175	REC_END	n/a	n/a	1	-999	n/a	n/a	n/a	n/a	1	[0, 0, 0]	-999	PAL1	0	R1023J
233.064	0.015	546179	REC_EVENT	5027.0	n/a	1	5	PIE	<>	PIE	YARD	1	[0, 0, 0]	-999	PAL1	0	R1023J
233.079	0.275	546194	TEST_ORIENT	n/a	n/a	2	6	STORM	SOCK	STORM	SOCK	1	[0, 0, 0]	-999	PAL1	0	R1023J
234.03	4.0	547145	TEST_PROBE	n/a	wordpools/wordpool_EN.txt	2	6	STORM	SOCK	STORM	SOCK	1	[0, 0, 0]	-999	PAL1	0	R1023J
234.031	1.219	547146	REC_START	n/a	n/a	2	-999	n/a	SOCK	n/a	n/a	1	[0, 0, 0]	-999	PAL1	0	R1023J
235.25	3.787	548365	REC_EVENT	1219.0	n/a	2	6	STORM	SOCK	STORM	SOCK	1	[0, 0, 0]	-999	PAL1	0	R1023J
239.037	4.207	552152	REC_END	n/a	n/a	2	-999	n/a	n/a	n/a	n/a	1	[0, 0, 0]	-999	PAL1	0	R1023J
243.244	10.454	556359	ENCODING_START	n/a	n/a	0	-999	n/a	n/a	n/a	n/a	2	[0, 0, 0]	-999	PAL1	0	R1023J
253.698	0.275	566812	STUDY_ORIENT	n/a	n/a	1	5	STRAW	PALM	STRAW	PALM	2	[0, 0, 0]	-999	PAL1	0	R1023J
254.666	4.0	567780	STUDY_PAIR	n/a	wordpools/wordpool_EN.txt	1	5	STRAW	PALM	STRAW	PALM	2	[0, 0, 0]	-999	PAL1	0	R1023J
259.691	0.275	572805	STUDY_ORIENT	n/a	n/a	2	4	FOG	COUCH	FOG	COUCH	2	[0, 0, 0]	-999	PAL1	0	R1023J
260.576	4.0	573690	STUDY_PAIR	n/a	wordpools/wordpool_EN.txt	2	4	FOG	COUCH	FOG	COUCH	2	[0, 0, 0]	-999	PAL1	0	R1023J
265.601	0.275	578715	STUDY_ORIENT	n/a	n/a	3	1	OWL	CORD	CORD	OWL	2	[0, 0, 0]	-999	PAL1	0	R1023J
266.486	4.0	579600	STUDY_PAIR	n/a	wordpools/wordpool_EN.txt	3	1	OWL	CORD	CORD	OWL	2	[0, 0, 0]	-999	PAL1	0	R1023J
271.511	0.275	584625	STUDY_ORIENT	n/a	n/a	4	2	ROSE	JAIL	ROSE	JAIL	2	[0, 0, 0]	-999	PAL1	0	R1023J
272.396	4.0	585510	STUDY_PAIR	n/a	wordpools/wordpool_EN.txt	4	2	ROSE	JAIL	ROSE	JAIL	2	[0, 0, 0]	-999	PAL1	0	R1023J
277.421	0.275	590535	STUDY_ORIENT	n/a	n/a	5	3	MAZE	n/a	HOSE	MAZE	2	[0, 0, 0]	-999	PAL1	0	R1023J
278.289	4.0	591403	STUDY_PAIR	n/a	wordpools/wordpool_EN.txt	5	3	MAZE	n/a	HOSE	MAZE	2	[0, 0, 0]	-999	PAL1	0	R1023J
283.314	0.275	596427	STUDY_ORIENT	n/a	n/a	6	6	STOVE	PASS	STOVE	WING	2	[0, 0, 0]	-999	PAL1	0	R1023J
284.214	4.0	597327	STUDY_PAIR	n/a	wordpools/wordpool_EN.txt	6	6	STOVE	PASS	STOVE	WING	2	[0, 0, 0]	-999	PAL1	0	R1023J
288.223	0.999	601336	START	n/a	n/a	-999	-999	n/a	n/a	n/a	n/a	2	[-999, -999, -999]	-999	PAL1	0	R1023J
289.222	0.018	602335	MATH_START	n/a	n/a	-999	-999	n/a	n/a	n/a	n/a	2	[0, 0, 0]	-999	PAL1	0	R1023J
289.24	4.624	602353	PROB	4597.0	n/a	-999	-999	n/a	n/a	n/a	n/a	2	[6, 3, 6]	15	PAL1	0	R1023J
293.864	3.873	606977	PROB	3845.0	n/a	-999	-999	n/a	n/a	n/a	n/a	2	[3, 3, 2]	8	PAL1	0	R1023J
297.737	10.351	610850	PROB	10316.0	n/a	-999	-999	n/a	n/a	n/a	n/a	2	[9, 2, 9]	20	PAL1	0	R1023J
308.088	6.805	621200	PROB	6805.0	n/a	-999	-999	n/a	n/a	n/a	n/a	2	[6, 7, 6]	19	PAL1	0	R1023J
314.893	0.007	628005	STOP	n/a	n/a	-999	-999	n/a	n/a	n/a	n/a	2	[-999, -999, -999]	-999	PAL1	0	R1023J
314.9	0.0	628012	TEST_START	n/a	n/a	-999	-999	n/a	n/a	n/a	n/a	2	[0, 0, 0]	-999	PAL1	0	R1023J
314.9	0.016	628012	MATH_END	n/a	n/a	-999	-999	n/a	n/a	n/a	n/a	2	[0, 0, 0]	-999	PAL1	0	R1023J
314.916	0.275	628028	TEST_ORIENT	n/a	n/a	3	1	OWL	CORD	CORD	OWL	2	[0, 0, 0]	-999	PAL1	0	R1023J
315.784	4.0	628896	TEST_PROBE	n/a	wordpools/wordpool_EN.txt	3	1	OWL	CORD	CORD	OWL	2	[0, 0, 0]	-999	PAL1	0	R1023J
315.785	3.069	628897	REC_START	n/a	n/a	3	-999	n/a	CORD	n/a	n/a	2	[0, 0, 0]	-999	PAL1	0	R1023J
318.854	1.952	631966	REC_EVENT	3069.0	n/a	3	1	OWL	CORD	CORD	OWL	2	[0, 0, 0]	-999	PAL1	0	R1023J
320.806	0.02	633918	REC_END	n/a	n/a	3	-999	n/a	n/a	n/a	n/a	2	[0, 0, 0]	-999	PAL1	0	R1023J
320.826	0.275	633938	TEST_ORIENT	n/a	n/a	4	2	ROSE	JAIL	ROSE	JAIL	2	[0, 0, 0]	-999	PAL1	0	R1023J
321.744	4.0	634856	TEST_PROBE	n/a	wordpools/wordpool_EN.txt	4	2	ROSE	JAIL	ROSE	JAIL	2	[0, 0, 0]	-999	PAL1	0	R1023J
321.745	1.231	634857	REC_START	n/a	n/a	4	-999	n/a	JAIL	n/a	n/a	2	[0, 0, 0]	-999	PAL1	0	R1023J
322.976	3.791	636088	REC_EVENT	1231.0	n/a	4	2	ROSE	JAIL	ROSE	JAIL	2	[0, 0, 0]	-999	PAL1	0	R1023J
326.767	0.019	639879	REC_END	n/a	n/a	4	-999	n/a	n/a	n/a	n/a	2	[0, 0, 0]	-999	PAL1	0	R1023J
326.786	0.275	639898	TEST_ORIENT	n/a	n/a	5	3	MAZE	n/a	HOSE	MAZE	2	[0, 0, 0]	-999	PAL1	0	R1023J
327.639	4.0	640751	TEST_PROBE	n/a	wordpools/wordpool_EN.txt	5	3	MAZE	n/a	HOSE	MAZE	2	[0, 0, 0]	-999	PAL1	0	R1023J
327.639	5.021	640751	REC_START	n/a	n/a	5	-999	n/a	n/a	n/a	n/a	2	[0, 0, 0]	-999	PAL1	0	R1023J
332.66	0.002	645772	REC_EVENT	5021.0	n/a	5	3	MAZE	<>	HOSE	MAZE	2	[0, 0, 0]	-999	PAL1	0	R1023J
332.662	0.018	645774	REC_END	n/a	n/a	5	-999	n/a	n/a	n/a	n/a	2	[0, 0, 0]	-999	PAL1	0	R1023J
332.68	0.275	645792	TEST_ORIENT	n/a	n/a	2	4	FOG	COUCH	FOG	COUCH	2	[0, 0, 0]	-999	PAL1	0	R1023J
333.599	0.0	646711	REC_START	n/a	n/a	2	-999	n/a	COUCH	n/a	n/a	2	[0, 0, 0]	-999	PAL1	0	R1023J
333.599	4.0	646711	TEST_PROBE	n/a	wordpools/wordpool_EN.txt	2	4	FOG	COUCH	FOG	COUCH	2	[0, 0, 0]	-999	PAL1	0	R1023J
336.161	2.461	649272	REC_EVENT	2562.0	n/a	2	4	FOG	COUCH	FOG	COUCH	2	[0, 0, 0]	-999	PAL1	0	R1023J
338.622	0.019	651733	REC_END	n/a	n/a	2	-999	n/a	n/a	n/a	n/a	2	[0, 0, 0]	-999	PAL1	0	R1023J
338.641	0.275	651752	TEST_ORIENT	n/a	n/a	1	5	STRAW	PALM	STRAW	PALM	2	[0, 0, 0]	-999	PAL1	0	R1023J
339.492	4.0	652603	TEST_PROBE	n/a	wordpools/wordpool_EN.txt	1	5	STRAW	PALM	STRAW	PALM	2	[0, 0, 0]	-999	PAL1	0	R1023J
339.492	1.436	652603	REC_START	n/a	n/a	1	-999	n/a	PALM	n/a	n/a	2	[0, 0, 0]	-999	PAL1	0	R1023J
340.928	3.571	654039	REC_EVENT	1436.0	n/a	1	5	STRAW	PALM	STRAW	PALM	2	[0, 0, 0]	-999	PAL1	0	R1023J
344.499	0.035	657610	REC_END	n/a	n/a	1	-999	n/a	n/a	n/a	n/a	2	[0, 0, 0]	-999	PAL1	0	R1023J
344.534	0.275	657645	TEST_ORIENT	n/a	n/a	6	6	STOVE	PASS	STOVE	WING	2	[0, 0, 0]	-999	PAL1	0	R1023J
345.502	0.0	658613	REC_START	n/a	n/a	6	-999	n/a	PASS	n/a	n/a	2	[0, 0, 0]	-999	PAL1	0	R1023J
345.502	4.0	658613	TEST_PROBE	n/a	wordpools/wordpool_EN.txt	6	6	STOVE	PASS	STOVE	WING	2	[0, 0, 0]	-999	PAL1	0	R1023J
349.876	0.649	662987	REC_EVENT	4374.0	n/a	6	6	STOVE	PASS	STOVE	WING	2	[0, 0, 0]	-999	PAL1	0	R1023J
350.525	11.536	663636	REC_END	n/a	n/a	6	-999	n/a	n/a	n/a	n/a	2	[0, 0, 0]	-999	PAL1	0	R1023J
362.061	10.47	675172	ENCODING_START	n/a	n/a	0	-999	n/a	n/a	n/a	n/a	3	[0, 0, 0]	-999	PAL1	0	R1023J
372.531	0.275	685641	STUDY_ORIENT	n/a	n/a	1	3	FLAG	LAMP	FLAG	LAMP	3	[0, 0, 0]	-999	PAL1	0	R1023J
373.466	4.0	686576	STUDY_PAIR	n/a	wordpools/wordpool_EN.txt	1	3	FLAG	LAMP	FLAG	LAMP	3	[0, 0, 0]	-999	PAL1	0	R1023J
378.491	0.275	691601	STUDY_ORIENT	n/a	n/a	2	6	SLUSH	BRIDGE	SLUSH	BRIDGE	3	[0, 0, 0]	-999	PAL1	0	R1023J
379.442	4.0	692552	STUDY_PAIR	n/a	wordpools/wordpool_EN.txt	2	6	SLUSH	BRIDGE	SLUSH	BRIDGE	3	[0, 0, 0]	-999	PAL1	0	R1023J
384.468	0.275	697578	STUDY_ORIENT	n/a	n/a	3	1	SUIT	SPRING	SUIT	SPRING	3	[0, 0, 0]	-999	PAL1	0	R1023J
385.336	4.0	698446	STUDY_PAIR	n/a	wordpools/wordpool_EN.txt	3	1	SUIT	SPRING	SUIT	SPRING	3	[0, 0, 0]	-999	PAL1	0	R1023J
390.361	0.275	703471	STUDY_ORIENT	n/a	n/a	4	2	VAN	CHIN	VAN	CHIN	3	[0, 0, 0]	-999	PAL1	0	R1023J
391.245	4.0	704354	STUDY_PAIR	n/a	wordpools/wordpool_EN.txt	4	2	VAN	CHIN	VAN	CHIN	3	[0, 0, 0]	-999	PAL1	0	R1023J
396.271	0.275	709380	STUDY_ORIENT	n/a	n/a	5	5	SAIL	PASS	FLAME	SAIL	3	[0, 0, 0]	-999	PAL1	0	R1023J
397.188	4.0	710297	STUDY_PAIR	n/a	wordpools/wordpool_EN.txt	5	5	SAIL	PASS	FLAME	SAIL	3	[0, 0, 0]	-999	PAL1	0	R1023J
402.213	0.275	715322	STUDY_ORIENT	n/a	n/a	6	4	GRASS	BEACH	GRASS	BEACH	3	[0, 0, 0]	-999	PAL1	0	R1023J
403.215	4.0	716324	STUDY_PAIR	n/a	wordpools/wordpool_EN.txt	6	4	GRASS	BEACH	GRASS	BEACH	3	[0, 0, 0]	-999	PAL1	0	R1023J
407.223	0.999	720332	START	n/a	n/a	-999	-999	n/a	n/a	n/a	n/a	3	[-999, -999, -999]	-999	PAL1	0	R1023J
408.222	0.018	721331	MATH_START	n/a	n/a	-999	-999	n/a	n/a	n/a	n/a	3	[0, 0, 0]	-999	PAL1	0	R1023J
408.24	5.043	721349	PROB	5012.0	n/a	-999	-999	n/a	n/a	n/a	n/a	3	[9, 3, 3]	15	PAL1	0	R1023J
413.283	4.257	726392	PROB	4227.0	n/a	-999	-999	n/a	n/a	n/a	n/a	3	[1, 2, 3]	6	PAL1	0	R1023J
417.54	6.476	730649	PROB	6449.0	n/a	-999	-999	n/a	n/a	n/a	n/a	3	[4, 9, 5]	18	PAL1	0	R1023J
424.016	5.422	737124	PROB	5422.0	n/a	-999	-999	n/a	n/a	n/a	n/a	3	[6, 7, 1]	14	PAL1	0	R1023J
429.438	0.005	742546	STOP	n/a	n/a	-999	-999	n/a	n/a	n/a	n/a	3	[-999, -999, -999]	-999	PAL1	0	R1023J
429.443	0.0	742551	TEST_START	n/a	n/a	-999	-999	n/a	n/a	n/a	n/a	3	[0, 0, 0]	-999	PAL1	0	R1023J
429.443	0.017	742551	MATH_END	n/a	n/a	-999	-999	n/a	n/a	n/a	n/a	3	[0, 0, 0]	-999	PAL1	0	R1023J
429.46	0.275	742568	TEST_ORIENT	n/a	n/a	3	1	SUIT	SPRING	SUIT	SPRING	3	[0, 0, 0]	-999	PAL1	0	R1023J
430.411	4.0	743519	TEST_PROBE	n/a	wordpools/wordpool_EN.txt	3	1	SUIT	SPRING	SUIT	SPRING	3	[0, 0, 0]	-999	PAL1	0	R1023J
430.412	1.702	743520	REC_START	n/a	n/a	3	-999	n/a	SPRING	n/a	n/a	3	[0, 0, 0]	-999	PAL1	0	R1023J
432.114	3.32	745222	REC_EVENT	1702.0	n/a	3	1	SUIT	SPRING	SUIT	SPRING	3	[0, 0, 0]	-999	PAL1	0	R1023J
435.434	0.019	748542	REC_END	n/a	n/a	3	-999	n/a	n/a	n/a	n/a	3	[0, 0, 0]	-999	PAL1	0	R1023J
435.453	0.275	748561	TEST_ORIENT	n/a	n/a	4	2	VAN	CHIN	VAN	CHIN	3	[0, 0, 0]	-999	PAL1	0	R1023J
436.455	4.0	749563	TEST_PROBE	n/a	wordpools/wordpool_EN.txt	4	2	VAN	CHIN	VAN	CHIN	3	[0, 0, 0]	-999	PAL1	0	R1023J
436.455	1.361	749563	REC_START	n/a	n/a	4	-999	n/a	CHIN	n/a	n/a	3	[0, 0, 0]	-999	PAL1	0	R1023J
437.816	3.662	750924	REC_EVENT	1361.0	n/a	4	2	VAN	CHIN	VAN	CHIN	3	[0, 0, 0]	-999	PAL1	0	R1023J
441.478	0.019	754586	REC_END	n/a	n/a	4	-999	n/a	n/a	n/a	n/a	3	[0, 0, 0]	-999	PAL1	0	R1023J
441.497	0.275	754605	TEST_ORIENT	n/a	n/a	1	3	FLAG	LAMP	FLAG	LAMP	3	[0, 0, 0]	-999	PAL1	0	R1023J
442.332	4.0	755440	TEST_PROBE	n/a	wordpools/wordpool_EN.txt	1	3	FLAG	LAMP	FLAG	LAMP	3	[0, 0, 0]	-999	PAL1	0	R1023J
442.332	2.103	755440	REC_START	n/a	n/a	1	-999	n/a	LAMP	n/a	n/a	3	[0, 0, 0]	-999	PAL1	0	R1023J
444.435	2.92	757543	REC_EVENT	2103.0	n/a	1	3	FLAG	LAMP	FLAG	LAMP	3	[0, 0, 0]	-999	PAL1	0	R1023J
447.355	0.018	760462	REC_END	n/a	n/a	1	-999	n/a	n/a	n/a	n/a	3	[0, 0, 0]	-999	PAL1	0	R1023J
447.373	0.275	760480	TEST_ORIENT	n/a	n/a	6	4	GRASS	BEACH	GRASS	BEACH	3	[0, 0, 0]	-999	PAL1	0	R1023J
448.325	0.0	761432	REC_START	n/a	n/a	6	-999	n/a	BEACH	n/a	n/a	3	[0, 0, 0]	-999	PAL1	0	R1023J
448.325	4.0	761432	TEST_PROBE	n/a	wordpools/wordpool_EN.txt	6	4	GRASS	BEACH	GRASS	BEACH	3	[0, 0, 0]	-999	PAL1	0	R1023J
449.63	3.718	762737	REC_EVENT	1305.0	n/a	6	4	GRASS	BEACH	GRASS	BEACH	3	[0, 0, 0]	-999	PAL1	0	R1023J
453.348	0.019	766455	REC_END	n/a	n/a	6	-999	n/a	n/a	n/a	n/a	3	[0, 0, 0]	-999	PAL1	0	R1023J
453.367	0.275	766474	TEST_ORIENT	n/a	n/a	5	5	SAIL	PASS	FLAME	SAIL	3	[0, 0, 0]	-999	PAL1	0	R1023J
454.217	4.0	767324	TEST_PROBE	n/a	wordpools/wordpool_EN.txt	5	5	SAIL	PASS	FLAME	SAIL	3	[0, 0, 0]	-999	PAL1	0	R1023J
454.218	3.104	767325	REC_START	n/a	n/a	5	-999	n/a	PASS	n/a	n/a	3	[0, 0, 0]	-999	PAL1	0	R1023J
457.322	1.917	770429	REC_EVENT	3104.0	n/a	5	5	SAIL	PASS	FLAME	SAIL	3	[0, 0, 0]	-999	PAL1	0	R1023J
459.239	0.021	772346	REC_END	n/a	n/a	5	-999	n/a	n/a	n/a	n/a	3	[0, 0, 0]	-999	PAL1	0	R1023J
459.26	0.275	772367	TEST_ORIENT	n/a	n/a	2	6	SLUSH	BRIDGE	SLUSH	BRIDGE	3	[0, 0, 0]	-999	PAL1	0	R1023J
460.194	4.0	773301	TEST_PROBE	n/a	wordpools/wordpool_EN.txt	2	6	SLUSH	BRIDGE	SLUSH	BRIDGE	3	[0, 0, 0]	-999	PAL1	0	R1023J
460.194	2.579	773301	REC_START	n/a	n/a	2	-999	n/a	BRIDGE	n/a	n/a	3	[0, 0, 0]	-999	PAL1	0	R1023J
462.773	2.444	775880	REC_EVENT	2579.0	n/a	2	6	SLUSH	BRIDGE	SLUSH	BRIDGE	3	[0, 0, 0]	-999	PAL1	0	R1023J
465.217	2.955	778324	REC_END	n/a	n/a	2	-999	n/a	n/a	n/a	n/a	3	[0, 0, 0]	-999	PAL1	0	R1023J
468.172	10.454	781279	ENCODING_START	n/a	n/a	0	-999	n/a	n/a	n/a	n/a	4	[0, 0, 0]	-999	PAL1	0	R1023J
478.626	0.275	791732	STUDY_ORIENT	n/a	n/a	1	5	BLOOM	STAR	BLOOM	STAR	4	[0, 0, 0]	-999	PAL1	0	R1023J
479.561	4.0	792667	STUDY_PAIR	n/a	wordpools/wordpool_EN.txt	1	5	BLOOM	STAR	BLOOM	STAR	4	[0, 0, 0]	-999	PAL1	0	R1023J
484.586	0.275	797692	STUDY_ORIENT	n/a	n/a	2	6	PIT	PASS	CROWN	PIT	4	[0, 0, 0]	-999	PAL1	0	R1023J
485.538	4.0	798644	STUDY_PAIR	n/a	wordpools/wordpool_EN.txt	2	6	PIT	PASS	CROWN	PIT	4	[0, 0, 0]	-999	PAL1	0	R1023J
490.563	0.275	803669	STUDY_ORIENT	n/a	n/a	3	1	HORSE	WEED	HORSE	WEED	4	[0, 0, 0]	-999	PAL1	0	R1023J
491.431	4.0	804537	STUDY_PAIR	n/a	wordpools/wordpool_EN.txt	3	1	HORSE	WEED	HORSE	WEED	4	[0, 0, 0]	-999	PAL1	0	R1023J
496.456	0.275	809562	STUDY_ORIENT	n/a	n/a	4	2	JET	PASS	CAPE	JET	4	[0, 0, 0]	-999	PAL1	0	R1023J
497.324	4.0	810430	STUDY_PAIR	n/a	wordpools/wordpool_EN.txt	4	2	JET	PASS	CAPE	JET	4	[0, 0, 0]	-999	PAL1	0	R1023J
502.349	0.275	815455	STUDY_ORIENT	n/a	n/a	5	3	BEAN	RIB	BEAN	RIB	4	[0, 0, 0]	-999	PAL1	0	R1023J
503.351	4.0	816456	STUDY_PAIR	n/a	wordpools/wordpool_EN.txt	5	3	BEAN	RIB	BEAN	RIB	4	[0, 0, 0]	-999	PAL1	0	R1023J
508.376	0.275	821481	STUDY_ORIENT	n/a	n/a	6	4	CALF	FOAM	CALF	PHONE	4	[0, 0, 0]	-999	PAL1	0	R1023J
509.378	4.0	822483	STUDY_PAIR	n/a	wordpools/wordpool_EN.txt	6	4	CALF	FOAM	CALF	PHONE	4	[0, 0, 0]	-999	PAL1	0	R1023J
513.386	0.999	826491	START	n/a	n/a	-999	-999	n/a	n/a	n/a	n/a	4	[-999, -999, -999]	-999	PAL1	0	R1023J
514.385	0.018	827490	MATH_START	n/a	n/a	-999	-999	n/a	n/a	n/a	n/a	4	[0, 0, 0]	-999	PAL1	0	R1023J
514.403	3.205	827508	PROB	3171.0	n/a	-999	-999	n/a	n/a	n/a	n/a	4	[1, 5, 1]	7	PAL1	0	R1023J
517.608	5.843	830713	PROB	5805.0	n/a	-999	-999	n/a	n/a	n/a	n/a	4	[3, 4, 8]	15	PAL1	0	R1023J
523.451	5.192	836556	PROB	5163.0	n/a	-999	-999	n/a	n/a	n/a	n/a	4	[6, 5, 3]	14	PAL1	0	R1023J
528.643	4.24	841748	PROB	4218.0	n/a	-999	-999	n/a	n/a	n/a	n/a	4	[5, 3, 3]	11	PAL1	0	R1023J
532.883	5.193	845987	PROB	5193.0	n/a	-999	-999	n/a	n/a	n/a	n/a	4	[6, 9, 3]	18	PAL1	0	R1023J
538.076	0.016	851180	STOP	n/a	n/a	-999	-999	n/a	n/a	n/a	n/a	4	[-999, -999, -999]	-999	PAL1	0	R1023J
538.092	0.0	851196	MATH_END	n/a	n/a	-999	-999	n/a	n/a	n/a	n/a	4	[0, 0, 0]	-999	PAL1	0	R1023J
538.092	0.016	851196	TEST_START	n/a	n/a	-999	-999	n/a	n/a	n/a	n/a	4	[0, 0, 0]	-999	PAL1	0	R1023J
538.108	0.275	851212	TEST_ORIENT	n/a	n/a	3	1	HORSE	WEED	HORSE	WEED	4	[0, 0, 0]	-999	PAL1	0	R1023J
539.043	4.0	852147	TEST_PROBE	n/a	wordpools/wordpool_EN.txt	3	1	HORSE	WEED	HORSE	WEED	4	[0, 0, 0]	-999	PAL1	0	R1023J
539.044	1.284	852148	REC_START	n/a	n/a	3	-999	n/a	WEED	n/a	n/a	4	[0, 0, 0]	-999	PAL1	0	R1023J
540.328	3.737	853432	REC_EVENT	1284.0	n/a	3	1	HORSE	WEED	HORSE	WEED	4	[0, 0, 0]	-999	PAL1	0	R1023J
544.065	0.02	857169	REC_END	n/a	n/a	3	-999	n/a	n/a	n/a	n/a	4	[0, 0, 0]	-999	PAL1	0	R1023J
544.085	0.275	857189	TEST_ORIENT	n/a	n/a	4	2	JET	PASS	CAPE	JET	4	[0, 0, 0]	-999	PAL1	0	R1023J
544.903	4.0	858007	TEST_PROBE	n/a	wordpools/wordpool_EN.txt	4	2	JET	PASS	CAPE	JET	4	[0, 0, 0]	-999	PAL1	0	R1023J
544.904	1.939	858008	REC_START	n/a	n/a	4	-999	n/a	PASS	n/a	n/a	4	[0, 0, 0]	-999	PAL1	0	R1023J
546.843	3.082	859947	REC_EVENT	1939.0	n/a	4	2	JET	PASS	CAPE	JET	4	[0, 0, 0]	-999	PAL1	0	R1023J
549.925	0.02	863029	REC_END	n/a	n/a	4	-999	n/a	n/a	n/a	n/a	4	[0, 0, 0]	-999	PAL1	0	R1023J
549.945	0.275	863049	TEST_ORIENT	n/a	n/a	5	3	BEAN	RIB	BEAN	RIB	4	[0, 0, 0]	-999	PAL1	0	R1023J
550.796	4.0	863900	TEST_PROBE	n/a	wordpools/wordpool_EN.txt	5	3	BEAN	RIB	BEAN	RIB	4	[0, 0, 0]	-999	PAL1	0	R1023J
550.797	1.179	863901	REC_START	n/a	n/a	5	-999	n/a	RIB	n/a	n/a	4	[0, 0, 0]	-999	PAL1	0	R1023J
551.976	3.842	865080	REC_EVENT	1179.0	n/a	5	3	BEAN	RIB	BEAN	RIB	4	[0, 0, 0]	-999	PAL1	0	R1023J
555.818	0.02	868922	REC_END	n/a	n/a	5	-999	n/a	n/a	n/a	n/a	4	[0, 0, 0]	-999	PAL1	0	R1023J
555.838	0.275	868942	TEST_ORIENT	n/a	n/a	6	4	CALF	FOAM	CALF	PHONE	4	[0, 0, 0]	-999	PAL1	0	R1023J
556.856	4.0	869960	TEST_PROBE	n/a	wordpools/wordpool_EN.txt	6	4	CALF	FOAM	CALF	PHONE	4	[0, 0, 0]	-999	PAL1	0	R1023J
556.857	1.422	869961	REC_START	n/a	n/a	6	-999	n/a	FOAM	n/a	n/a	4	[0, 0, 0]	-999	PAL1	0	R1023J
558.279	3.599	871383	REC_EVENT	1422.0	n/a	6	4	CALF	FOAM	CALF	PHONE	4	[0, 0, 0]	-999	PAL1	0	R1023J
561.878	0.02	874981	REC_END	n/a	n/a	6	-999	n/a	n/a	n/a	n/a	4	[0, 0, 0]	-999	PAL1	0	R1023J
561.898	0.275	875001	TEST_ORIENT	n/a	n/a	1	5	BLOOM	STAR	BLOOM	STAR	4	[0, 0, 0]	-999	PAL1	0	R1023J
562.917	4.0	876020	TEST_PROBE	n/a	wordpools/wordpool_EN.txt	1	5	BLOOM	STAR	BLOOM	STAR	4	[0, 0, 0]	-999	PAL1	0	R1023J
562.917	2.055	876020	REC_START	n/a	n/a	1	-999	n/a	STAR	n/a	n/a	4	[0, 0, 0]	-999	PAL1	0	R1023J
564.972	2.968	878075	REC_EVENT	2055.0	n/a	1	5	BLOOM	STAR	BLOOM	STAR	4	[0, 0, 0]	-999	PAL1	0	R1023J
567.94	0.019	881043	REC_END	n/a	n/a	1	-999	n/a	n/a	n/a	n/a	4	[0, 0, 0]	-999	PAL1	0	R1023J
567.959	0.275	881062	TEST_ORIENT	n/a	n/a	2	6	PIT	PASS	CROWN	PIT	4	[0, 0, 0]	-999	PAL1	0	R1023J
568.777	4.0	881880	TEST_PROBE	n/a	wordpools/wordpool_EN.txt	2	6	PIT	PASS	CROWN	PIT	4	[0, 0, 0]	-999	PAL1	0	R1023J
568.777	1.853	881880	REC_START	n/a	n/a	2	-999	n/a	PASS	n/a	n/a	4	[0, 0, 0]	-999	PAL1	0	R1023J
570.63	3.17	883733	REC_EVENT	1853.0	n/a	2	6	PIT	PASS	CROWN	PIT	4	[0, 0, 0]	-999	PAL1	0	R1023J
573.8	4.709	886903	REC_END	n/a	n/a	2	-999	n/a	n/a	n/a	n/a	4	[0, 0, 0]	-999	PAL1	0	R1023J
578.509	10.452	891612	ENCODING_START	n/a	n/a	0	-999	n/a	n/a	n/a	n/a	5	[0, 0, 0]	-999	PAL1	0	R1023J
588.961	0.275	902063	STUDY_ORIENT	n/a	n/a	1	3	PIPE	PASS	PIPE	PIN	5	[0, 0, 0]	-999	PAL1	0	R1023J
589.745	4.0	902847	STUDY_PAIR	n/a	wordpools/wordpool_EN.txt	1	3	PIPE	PASS	PIPE	PIN	5	[0, 0, 0]	-999	PAL1	0	R1023J
594.77	0.275	907872	STUDY_ORIENT	n/a	n/a	2	4	EGG	CHEEK	CHEEK	EGG	5	[0, 0, 0]	-999	PAL1	0	R1023J
595.706	4.0	908808	STUDY_PAIR	n/a	wordpools/wordpool_EN.txt	2	4	EGG	CHEEK	CHEEK	EGG	5	[0, 0, 0]	-999	PAL1	0	R1023J
600.73	0.275	913832	STUDY_ORIENT	n/a	n/a	3	5	CONE	PASS	CONE	BUSH	5	[0, 0, 0]	-999	PAL1	0	R1023J
601.6	4.0	914702	STUDY_PAIR	n/a	wordpools/wordpool_EN.txt	3	5	CONE	PASS	CONE	BUSH	5	[0, 0, 0]	-999	PAL1	0	R1023J
606.625	0.275	919727	STUDY_ORIENT	n/a	n/a	4	6	BROOM	PASS	STEM	BROOM	5	[0, 0, 0]	-999	PAL1	0	R1023J
607.56	4.0	920662	STUDY_PAIR	n/a	wordpools/wordpool_EN.txt	4	6	BROOM	PASS	STEM	BROOM	5	[0, 0, 0]	-999	PAL1	0	R1023J
612.585	0.275	925687	STUDY_ORIENT	n/a	n/a	5	1	MUD	PASS	SIGN	MUD	5	[0, 0, 0]	-999	PAL1	0	R1023J
613.603	4.0	926705	STUDY_PAIR	n/a	wordpools/wordpool_EN.txt	5	1	MUD	PASS	SIGN	MUD	5	[0, 0, 0]	-999	PAL1	0	R1023J
618.628	0.275	931729	STUDY_ORIENT	n/a	n/a	6	2	FLUTE	PASS	FACE	FLUTE	5	[0, 0, 0]	-999	PAL1	0	R1023J
619.63	4.0	932731	STUDY_PAIR	n/a	wordpools/wordpool_EN.txt	6	2	FLUTE	PASS	FACE	FLUTE	5	[0, 0, 0]	-999	PAL1	0	R1023J
623.638	0.999	936739	START	n/a	n/a	-999	-999	n/a	n/a	n/a	n/a	5	[-999, -999, -999]	-999	PAL1	0	R1023J
624.637	0.018	937738	MATH_START	n/a	n/a	-999	-999	n/a	n/a	n/a	n/a	5	[0, 0, 0]	-999	PAL1	0	R1023J
624.655	4.356	937756	PROB	4326.0	n/a	-999	-999	n/a	n/a	n/a	n/a	5	[6, 1, 5]	12	PAL1	0	R1023J
629.011	4.124	942112	PROB	4097.0	n/a	-999	-999	n/a	n/a	n/a	n/a	5	[1, 2, 4]	7	PAL1	0	R1023J
633.135	4.658	946236	PROB	4621.0	n/a	-999	-999	n/a	n/a	n/a	n/a	5	[3, 9, 7]	19	PAL1	0	R1023J
637.793	5.971	950894	PROB	5971.0	n/a	-999	-999	n/a	n/a	n/a	n/a	5	[5, 9, 7]	21	PAL1	0	R1023J
643.764	0.006	956864	STOP	n/a	n/a	-999	-999	n/a	n/a	n/a	n/a	5	[-999, -999, -999]	-999	PAL1	0	R1023J
643.77	0.0	956870	MATH_END	n/a	n/a	-999	-999	n/a	n/a	n/a	n/a	5	[0, 0, 0]	-999	PAL1	0	R1023J
643.77	0.016	956870	TEST_START	n/a	n/a	-999	-999	n/a	n/a	n/a	n/a	5	[0, 0, 0]	-999	PAL1	0	R1023J
643.786	0.275	956886	TEST_ORIENT	n/a	n/a	5	1	MUD	PASS	SIGN	MUD	5	[0, 0, 0]	-999	PAL1	0	R1023J
644.639	4.0	957739	TEST_PROBE	n/a	wordpools/wordpool_EN.txt	5	1	MUD	PASS	SIGN	MUD	5	[0, 0, 0]	-999	PAL1	0	R1023J
644.64	2.292	957740	REC_START	n/a	n/a	5	-999	n/a	PASS	n/a	n/a	5	[0, 0, 0]	-999	PAL1	0	R1023J
646.932	2.713	960032	REC_EVENT	2292.0	n/a	5	1	MUD	PASS	SIGN	MUD	5	[0, 0, 0]	-999	PAL1	0	R1023J
649.645	0.035	962745	REC_END	n/a	n/a	5	-999	n/a	n/a	n/a	n/a	5	[0, 0, 0]	-999	PAL1	0	R1023J
649.68	0.275	962780	TEST_ORIENT	n/a	n/a	6	2	FLUTE	PASS	FACE	FLUTE	5	[0, 0, 0]	-999	PAL1	0	R1023J
650.565	4.0	963665	TEST_PROBE	n/a	wordpools/wordpool_EN.txt	6	2	FLUTE	PASS	FACE	FLUTE	5	[0, 0, 0]	-999	PAL1	0	R1023J
650.566	3.045	963666	REC_START	n/a	n/a	6	-999	n/a	PASS	n/a	n/a	5	[0, 0, 0]	-999	PAL1	0	R1023J
653.611	1.961	966711	REC_EVENT	3045.0	n/a	6	2	FLUTE	PASS	FACE	FLUTE	5	[0, 0, 0]	-999	PAL1	0	R1023J
655.572	0.035	968672	REC_END	n/a	n/a	6	-999	n/a	n/a	n/a	n/a	5	[0, 0, 0]	-999	PAL1	0	R1023J
655.607	0.275	968707	TEST_ORIENT	n/a	n/a	1	3	PIPE	PASS	PIPE	PIN	5	[0, 0, 0]	-999	PAL1	0	R1023J
656.542	4.0	969642	TEST_PROBE	n/a	wordpools/wordpool_EN.txt	1	3	PIPE	PASS	PIPE	PIN	5	[0, 0, 0]	-999	PAL1	0	R1023J
656.542	2.917	969642	REC_START	n/a	n/a	1	-999	n/a	PASS	n/a	n/a	5	[0, 0, 0]	-999	PAL1	0	R1023J
659.459	2.106	972559	REC_EVENT	2917.0	n/a	1	3	PIPE	PASS	PIPE	PIN	5	[0, 0, 0]	-999	PAL1	0	R1023J
661.565	0.019	974665	REC_END	n/a	n/a	1	-999	n/a	n/a	n/a	n/a	5	[0, 0, 0]	-999	PAL1	0	R1023J
661.584	0.275	974684	TEST_ORIENT	n/a	n/a	2	4	EGG	CHEEK	CHEEK	EGG	5	[0, 0, 0]	-999	PAL1	0	R1023J
662.569	4.0	975669	TEST_PROBE	n/a	wordpools/wordpool_EN.txt	2	4	EGG	CHEEK	CHEEK	EGG	5	[0, 0, 0]	-999	PAL1	0	R1023J
662.569	0.947	975669	REC_START	n/a	n/a	2	-999	n/a	CHEEK	n/a	n/a	5	[0, 0, 0]	-999	PAL1	0	R1023J
663.516	4.076	976616	REC_EVENT	947.0	n/a	2	4	EGG	CHEEK	CHEEK	EGG	5	[0, 0, 0]	-999	PAL1	0	R1023J
667.592	0.019	980692	REC_END	n/a	n/a	2	-999	n/a	n/a	n/a	n/a	5	[0, 0, 0]	-999	PAL1	0	R1023J
667.611	0.275	980711	TEST_ORIENT	n/a	n/a	3	5	CONE	PASS	CONE	BUSH	5	[0, 0, 0]	-999	PAL1	0	R1023J
668.479	4.0	981579	TEST_PROBE	n/a	wordpools/wordpool_EN.txt	3	5	CONE	PASS	CONE	BUSH	5	[0, 0, 0]	-999	PAL1	0	R1023J
668.479	3.332	981579	REC_START	n/a	n/a	3	-999	n/a	PASS	n/a	n/a	5	[0, 0, 0]	-999	PAL1	0	R1023J
671.811	1.691	984910	REC_EVENT	3332.0	n/a	3	5	CONE	PASS	CONE	BUSH	5	[0, 0, 0]	-999	PAL1	0	R1023J
673.502	0.018	986601	REC_END	n/a	n/a	3	-999	n/a	n/a	n/a	n/a	5	[0, 0, 0]	-999	PAL1	0	R1023J
673.52	0.275	986619	TEST_ORIENT	n/a	n/a	4	6	BROOM	PASS	STEM	BROOM	5	[0, 0, 0]	-999	PAL1	0	R1023J
674.355	4.0	987454	TEST_PROBE	n/a	wordpools/wordpool_EN.txt	4	6	BROOM	PASS	STEM	BROOM	5	[0, 0, 0]	-999	PAL1	0	R1023J
674.356	2.712	987455	REC_START	n/a	n/a	4	-999	n/a	PASS	n/a	n/a	5	[0, 0, 0]	-999	PAL1	0	R1023J
677.068	2.294	990167	REC_EVENT	2712.0	n/a	4	6	BROOM	PASS	STEM	BROOM	5	[0, 0, 0]	-999	PAL1	0	R1023J
679.362	3.307	992461	REC_END	n/a	n/a	4	-999	n/a	n/a	n/a	n/a	5	[0, 0, 0]	-999	PAL1	0	R1023J
682.669	10.45	995768	ENCODING_START	n/a	n/a	0	-999	n/a	n/a	n/a	n/a	6	[0, 0, 0]	-999	PAL1	0	R1023J
693.119	0.275	1006218	STUDY_ORIENT	n/a	n/a	1	3	WORLD	JUDGE	WORLD	JUDGE	6	[0, 0, 0]	-999	PAL1	0	R1023J
694.071	4.0	1007170	STUDY_PAIR	n/a	wordpools/wordpool_EN.txt	1	3	WORLD	JUDGE	WORLD	JUDGE	6	[0, 0, 0]	-999	PAL1	0	R1023J
699.096	0.275	1012194	STUDY_ORIENT	n/a	n/a	2	6	WHALE	PASS	HOOF	WHALE	6	[0, 0, 0]	-999	PAL1	0	R1023J
699.897	4.0	1012995	STUDY_PAIR	n/a	wordpools/wordpool_EN.txt	2	6	WHALE	PASS	HOOF	WHALE	6	[0, 0, 0]	-999	PAL1	0	R1023J
704.922	0.275	1018020	STUDY_ORIENT	n/a	n/a	3	5	COW	PASS	COW	LAMB	6	[0, 0, 0]	-999	PAL1	0	R1023J
705.874	4.0	1018972	STUDY_PAIR	n/a	wordpools/wordpool_EN.txt	3	5	COW	PASS	COW	LAMB	6	[0, 0, 0]	-999	PAL1	0	R1023J
710.899	0.275	1023997	STUDY_ORIENT	n/a	n/a	4	4	HAT	WAND	WAND	HAT	6	[0, 0, 0]	-999	PAL1	0	R1023J
711.867	4.0	1024965	STUDY_PAIR	n/a	wordpools/wordpool_EN.txt	4	4	HAT	WAND	WAND	HAT	6	[0, 0, 0]	-999	PAL1	0	R1023J
716.892	0.275	1029990	STUDY_ORIENT	n/a	n/a	5	1	BOOK	n/a	DESK	BOOK	6	[0, 0, 0]	-999	PAL1	0	R1023J
717.877	4.0	1030975	STUDY_PAIR	n/a	wordpools/wordpool_EN.txt	5	1	BOOK	n/a	DESK	BOOK	6	[0, 0, 0]	-999	PAL1	0	R1023J
722.903	0.275	1036001	STUDY_ORIENT	n/a	n/a	6	2	SEAL	PASS	RAIN	SEAL	6	[0, 0, 0]	-999	PAL1	0	R1023J
723.921	4.0	1037019	STUDY_PAIR	n/a	wordpools/wordpool_EN.txt	6	2	SEAL	PASS	RAIN	SEAL	6	[0, 0, 0]	-999	PAL1	0	R1023J
727.928	1.0	1041025	START	n/a	n/a	-999	-999	n/a	n/a	n/a	n/a	6	[-999, -999, -999]	-999	PAL1	0	R1023J
728.928	0.018	1042025	MATH_START	n/a	n/a	-999	-999	n/a	n/a	n/a	n/a	6	[0, 0, 0]	-999	PAL1	0	R1023J
728.946	3.54	1042043	PROB	3516.0	n/a	-999	-999	n/a	n/a	n/a	n/a	6	[2, 2, 4]	8	PAL1	0	R1023J
732.486	4.34	1045583	PROB	4310.0	n/a	-999	-999	n/a	n/a	n/a	n/a	6	[4, 8, 5]	17	PAL1	0	R1023J
736.826	6.361	1049923	PROB	6338.0	n/a	-999	-999	n/a	n/a	n/a	n/a	6	[6, 9, 6]	21	PAL1	0	R1023J
743.187	5.426	1056284	PROB	5426.0	n/a	-999	-999	n/a	n/a	n/a	n/a	6	[7, 9, 2]	18	PAL1	0	R1023J
748.613	0.017	1061710	STOP	n/a	n/a	-999	-999	n/a	n/a	n/a	n/a	6	[-999, -999, -999]	-999	PAL1	0	R1023J
748.63	0.0	1061727	MATH_END	n/a	n/a	-999	-999	n/a	n/a	n/a	n/a	6	[0, 0, 0]	-999	PAL1	0	R1023J
748.63	0.017	1061727	TEST_START	n/a	n/a	-999	-999	n/a	n/a	n/a	n/a	6	[0, 0, 0]	-999	PAL1	0	R1023J
748.647	0.275	1061744	TEST_ORIENT	n/a	n/a	5	1	BOOK	n/a	DESK	BOOK	6	[0, 0, 0]	-999	PAL1	0	R1023J
749.498	4.0	1062595	TEST_PROBE	n/a	wordpools/wordpool_EN.txt	5	1	BOOK	n/a	DESK	BOOK	6	[0, 0, 0]	-999	PAL1	0	R1023J
749.499	5.021	1062596	REC_START	n/a	n/a	5	-999	n/a	n/a	n/a	n/a	6	[0, 0, 0]	-999	PAL1	0	R1023J
754.52	0.0	1067616	REC_END	n/a	n/a	5	-999	n/a	n/a	n/a	n/a	6	[0, 0, 0]	-999	PAL1	0	R1023J
754.52	0.02	1067616	REC_EVENT	5021.0	n/a	5	1	BOOK	<>	DESK	BOOK	6	[0, 0, 0]	-999	PAL1	0	R1023J
754.54	0.275	1067636	TEST_ORIENT	n/a	n/a	6	2	SEAL	PASS	RAIN	SEAL	6	[0, 0, 0]	-999	PAL1	0	R1023J
755.442	4.0	1068538	TEST_PROBE	n/a	wordpools/wordpool_EN.txt	6	2	SEAL	PASS	RAIN	SEAL	6	[0, 0, 0]	-999	PAL1	0	R1023J
755.442	1.569	1068538	REC_START	n/a	n/a	6	-999	n/a	PASS	n/a	n/a	6	[0, 0, 0]	-999	PAL1	0	R1023J
757.011	3.454	1070107	REC_EVENT	1569.0	n/a	6	2	SEAL	PASS	RAIN	SEAL	6	[0, 0, 0]	-999	PAL1	0	R1023J
760.465	0.018	1073561	REC_END	n/a	n/a	6	-999	n/a	n/a	n/a	n/a	6	[0, 0, 0]	-999	PAL1	0	R1023J
760.483	0.275	1073579	TEST_ORIENT	n/a	n/a	1	3	WORLD	JUDGE	WORLD	JUDGE	6	[0, 0, 0]	-999	PAL1	0	R1023J
761.352	0.0	1074448	REC_START	n/a	n/a	1	-999	n/a	JUDGE	n/a	n/a	6	[0, 0, 0]	-999	PAL1	0	R1023J
761.352	4.0	1074448	TEST_PROBE	n/a	wordpools/wordpool_EN.txt	1	3	WORLD	JUDGE	WORLD	JUDGE	6	[0, 0, 0]	-999	PAL1	0	R1023J
762.701	3.674	1075797	REC_EVENT	1349.0	n/a	1	3	WORLD	JUDGE	WORLD	JUDGE	6	[0, 0, 0]	-999	PAL1	0	R1023J
766.375	0.018	1079471	REC_END	n/a	n/a	1	-999	n/a	n/a	n/a	n/a	6	[0, 0, 0]	-999	PAL1	0	R1023J
766.393	0.275	1079489	TEST_ORIENT	n/a	n/a	4	4	HAT	WAND	WAND	HAT	6	[0, 0, 0]	-999	PAL1	0	R1023J
767.378	4.0	1080474	TEST_PROBE	n/a	wordpools/wordpool_EN.txt	4	4	HAT	WAND	WAND	HAT	6	[0, 0, 0]	-999	PAL1	0	R1023J
767.379	3.43	1080475	REC_START	n/a	n/a	4	-999	n/a	WAND	n/a	n/a	6	[0, 0, 0]	-999	PAL1	0	R1023J
770.809	1.576	1083905	REC_EVENT	3430.0	n/a	4	4	HAT	WAND	WAND	HAT	6	[0, 0, 0]	-999	PAL1	0	R1023J
772.385	0.035	1085481	REC_END	n/a	n/a	4	-999	n/a	n/a	n/a	n/a	6	[0, 0, 0]	-999	PAL1	0	R1023J
772.42	0.275	1085516	TEST_ORIENT	n/a	n/a	3	5	COW	PASS	COW	LAMB	6	[0, 0, 0]	-999	PAL1	0	R1023J
773.221	0.0	1086317	REC_START	n/a	n/a	3	-999	n/a	PASS	n/a	n/a	6	[0, 0, 0]	-999	PAL1	0	R1023J
773.221	4.0	1086317	TEST_PROBE	n/a	wordpools/wordpool_EN.txt	3	5	COW	PASS	COW	LAMB	6	[0, 0, 0]	-999	PAL1	0	R1023J
777.533	0.711	1090629	REC_EVENT	4312.0	n/a	3	5	COW	PASS	COW	LAMB	6	[0, 0, 0]	-999	PAL1	0	R1023J
778.244	0.019	1091340	REC_END	n/a	n/a	3	-999	n/a	n/a	n/a	n/a	6	[0, 0, 0]	-999	PAL1	0	R1023J
778.263	0.275	1091359	TEST_ORIENT	n/a	n/a	2	6	WHALE	PASS	HOOF	WHALE	6	[0, 0, 0]	-999	PAL1	0	R1023J
779.114	4.0	1092210	TEST_PROBE	n/a	wordpools/wordpool_EN.txt	2	6	WHALE	PASS	HOOF	WHALE	6	[0, 0, 0]	-999	PAL1	0	R1023J
779.114	3.619	1092210	REC_START	n/a	n/a	2	-999	n/a	PASS	n/a	n/a	6	[0, 0, 0]	-999	PAL1	0	R1023J
782.733	1.404	1095828	REC_EVENT	3619.0	n/a	2	6	WHALE	PASS	HOOF	WHALE	6	[0, 0, 0]	-999	PAL1	0	R1023J
784.137	2.437	1097232	REC_END	n/a	n/a	2	-999	n/a	n/a	n/a	n/a	6	[0, 0, 0]	-999	PAL1	0	R1023J
786.574	10.453	1099669	ENCODING_START	n/a	n/a	0	-999	n/a	n/a	n/a	n/a	7	[0, 0, 0]	-999	PAL1	0	R1023J
797.027	0.275	1110122	STUDY_ORIENT	n/a	n/a	1	1	MOUTH	BAND	BAND	MOUTH	7	[0, 0, 0]	-999	PAL1	0	R1023J
797.879	4.0	1110974	STUDY_PAIR	n/a	wordpools/wordpool_EN.txt	1	1	MOUTH	BAND	BAND	MOUTH	7	[0, 0, 0]	-999	PAL1	0	R1023J
802.904	0.275	1115999	STUDY_ORIENT	n/a	n/a	2	2	APE	TRUCK	TRUCK	APE	7	[0, 0, 0]	-999	PAL1	0	R1023J
803.789	4.0	1116884	STUDY_PAIR	n/a	wordpools/wordpool_EN.txt	2	2	APE	TRUCK	TRUCK	APE	7	[0, 0, 0]	-999	PAL1	0	R1023J
808.814	0.275	1121909	STUDY_ORIENT	n/a	n/a	3	3	TANK	FUDGE	TANK	FUDGE	7	[0, 0, 0]	-999	PAL1	0	R1023J
809.782	4.0	1122877	STUDY_PAIR	n/a	wordpools/wordpool_EN.txt	3	3	TANK	FUDGE	TANK	FUDGE	7	[0, 0, 0]	-999	PAL1	0	R1023J
814.807	0.275	1127901	STUDY_ORIENT	n/a	n/a	4	6	BOAT	PASS	ICE	BOAT	7	[0, 0, 0]	-999	PAL1	0	R1023J
815.725	4.0	1128819	STUDY_PAIR	n/a	wordpools/wordpool_EN.txt	4	6	BOAT	PASS	ICE	BOAT	7	[0, 0, 0]	-999	PAL1	0	R1023J
820.75	0.275	1133844	STUDY_ORIENT	n/a	n/a	5	5	PLANE	PEA	PLANE	PEA	7	[0, 0, 0]	-999	PAL1	0	R1023J
821.686	4.0	1134780	STUDY_PAIR	n/a	wordpools/wordpool_EN.txt	5	5	PLANE	PEA	PLANE	PEA	7	[0, 0, 0]	-999	PAL1	0	R1023J
826.711	0.275	1139805	STUDY_ORIENT	n/a	n/a	6	4	ZOO	POOL	ZOO	POOL	7	[0, 0, 0]	-999	PAL1	0	R1023J
827.63	4.0	1140724	STUDY_PAIR	n/a	wordpools/wordpool_EN.txt	6	4	ZOO	POOL	ZOO	POOL	7	[0, 0, 0]	-999	PAL1	0	R1023J
831.638	0.999	1144732	START	n/a	n/a	-999	-999	n/a	n/a	n/a	n/a	7	[-999, -999, -999]	-999	PAL1	0	R1023J
832.637	0.018	1145731	MATH_START	n/a	n/a	-999	-999	n/a	n/a	n/a	n/a	7	[0, 0, 0]	-999	PAL1	0	R1023J
832.655	5.609	1145749	PROB	5581.0	n/a	-999	-999	n/a	n/a	n/a	n/a	7	[3, 1, 8]	12	PAL1	0	R1023J
838.264	6.944	1151358	PROB	6908.0	n/a	-999	-999	n/a	n/a	n/a	n/a	7	[8, 2, 9]	19	PAL1	0	R1023J
845.208	4.742	1158301	PROB	4708.0	n/a	-999	-999	n/a	n/a	n/a	n/a	7	[7, 1, 7]	15	PAL1	0	R1023J
849.95	3.775	1163043	PROB	3775.0	n/a	-999	-999	n/a	n/a	n/a	n/a	7	[5, 6, 1]	12	PAL1	0	R1023J
853.725	0.014	1166818	STOP	n/a	n/a	-999	-999	n/a	n/a	n/a	n/a	7	[-999, -999, -999]	-999	PAL1	0	R1023J
853.739	0.0	1166832	MATH_END	n/a	n/a	-999	-999	n/a	n/a	n/a	n/a	7	[0, 0, 0]	-999	PAL1	0	R1023J
853.739	0.017	1166832	TEST_START	n/a	n/a	-999	-999	n/a	n/a	n/a	n/a	7	[0, 0, 0]	-999	PAL1	0	R1023J
853.756	0.275	1166849	TEST_ORIENT	n/a	n/a	1	1	MOUTH	BAND	BAND	MOUTH	7	[0, 0, 0]	-999	PAL1	0	R1023J
854.592	4.0	1167685	TEST_PROBE	n/a	wordpools/wordpool_EN.txt	1	1	MOUTH	BAND	BAND	MOUTH	7	[0, 0, 0]	-999	PAL1	0	R1023J
854.592	1.784	1167685	REC_START	n/a	n/a	1	-999	n/a	BAND	n/a	n/a	7	[0, 0, 0]	-999	PAL1	0	R1023J
856.376	3.239	1169469	REC_EVENT	1784.0	n/a	1	1	MOUTH	BAND	BAND	MOUTH	7	[0, 0, 0]	-999	PAL1	0	R1023J
859.615	0.019	1172708	REC_END	n/a	n/a	1	-999	n/a	n/a	n/a	n/a	7	[0, 0, 0]	-999	PAL1	0	R1023J
859.634	0.275	1172727	TEST_ORIENT	n/a	n/a	2	2	APE	TRUCK	TRUCK	APE	7	[0, 0, 0]	-999	PAL1	0	R1023J
860.568	4.0	1173661	TEST_PROBE	n/a	wordpools/wordpool_EN.txt	2	2	APE	TRUCK	TRUCK	APE	7	[0, 0, 0]	-999	PAL1	0	R1023J
860.569	1.45	1173662	REC_START	n/a	n/a	2	-999	n/a	TRUCK	n/a	n/a	7	[0, 0, 0]	-999	PAL1	0	R1023J
862.019	3.571	1175112	REC_EVENT	1450.0	n/a	2	2	APE	TRUCK	TRUCK	APE	7	[0, 0, 0]	-999	PAL1	0	R1023J
865.59	0.02	1178683	REC_END	n/a	n/a	2	-999	n/a	n/a	n/a	n/a	7	[0, 0, 0]	-999	PAL1	0	R1023J
865.61	0.275	1178703	TEST_ORIENT	n/a	n/a	3	3	TANK	FUDGE	TANK	FUDGE	7	[0, 0, 0]	-999	PAL1	0	R1023J
866.478	4.0	1179570	TEST_PROBE	n/a	wordpools/wordpool_EN.txt	3	3	TANK	FUDGE	TANK	FUDGE	7	[0, 0, 0]	-999	PAL1	0	R1023J
866.479	1.918	1179571	REC_START	n/a	n/a	3	-999	n/a	FUDGE	n/a	n/a	7	[0, 0, 0]	-999	PAL1	0	R1023J
868.397	3.103	1181489	REC_EVENT	1918.0	n/a	3	3	TANK	FUDGE	TANK	FUDGE	7	[0, 0, 0]	-999	PAL1	0	R1023J
871.5	0.02	1184592	REC_END	n/a	n/a	3	-999	n/a	n/a	n/a	n/a	7	[0, 0, 0]	-999	PAL1	0	R1023J
871.52	0.275	1184612	TEST_ORIENT	n/a	n/a	6	4	ZOO	POOL	ZOO	POOL	7	[0, 0, 0]	-999	PAL1	0	R1023J
872.438	4.0	1185530	TEST_PROBE	n/a	wordpools/wordpool_EN.txt	6	4	ZOO	POOL	ZOO	POOL	7	[0, 0, 0]	-999	PAL1	0	R1023J
872.439	1.078	1185531	REC_START	n/a	n/a	6	-999	n/a	POOL	n/a	n/a	7	[0, 0, 0]	-999	PAL1	0	R1023J
873.517	3.943	1186609	REC_EVENT	1078.0	n/a	6	4	ZOO	POOL	ZOO	POOL	7	[0, 0, 0]	-999	PAL1	0	R1023J
877.46	0.02	1190552	REC_END	n/a	n/a	6	-999	n/a	n/a	n/a	n/a	7	[0, 0, 0]	-999	PAL1	0	R1023J
877.48	0.275	1190572	TEST_ORIENT	n/a	n/a	5	5	PLANE	PEA	PLANE	PEA	7	[0, 0, 0]	-999	PAL1	0	R1023J
878.415	4.0	1191507	TEST_PROBE	n/a	wordpools/wordpool_EN.txt	5	5	PLANE	PEA	PLANE	PEA	7	[0, 0, 0]	-999	PAL1	0	R1023J
878.416	2.04	1191508	REC_START	n/a	n/a	5	-999	n/a	PEA	n/a	n/a	7	[0, 0, 0]	-999	PAL1	0	R1023J
880.456	2.982	1193548	REC_EVENT	2040.0	n/a	5	5	PLANE	PEA	PLANE	PEA	7	[0, 0, 0]	-999	PAL1	0	R1023J
883.438	0.019	1196530	REC_END	n/a	n/a	5	-999	n/a	n/a	n/a	n/a	7	[0, 0, 0]	-999	PAL1	0	R1023J
883.457	0.275	1196549	TEST_ORIENT	n/a	n/a	4	6	BOAT	PASS	ICE	BOAT	7	[0, 0, 0]	-999	PAL1	0	R1023J
884.342	4.0	1197434	TEST_PROBE	n/a	wordpools/wordpool_EN.txt	4	6	BOAT	PASS	ICE	BOAT	7	[0, 0, 0]	-999	PAL1	0	R1023J
884.342	3.484	1197434	REC_START	n/a	n/a	4	-999	n/a	PASS	n/a	n/a	7	[0, 0, 0]	-999	PAL1	0	R1023J
887.826	1.539	1200918	REC_EVENT	3484.0	n/a	4	6	BOAT	PASS	ICE	BOAT	7	[0, 0, 0]	-999	PAL1	0	R1023J
889.365	5.304	1202457	REC_END	n/a	n/a	4	-999	n/a	n/a	n/a	n/a	7	[0, 0, 0]	-999	PAL1	0	R1023J
894.669	10.44	1207760	ENCODING_START	n/a	n/a	0	-999	n/a	n/a	n/a	n/a	8	[0, 0, 0]	-999	PAL1	0	R1023J
905.109	0.275	1218200	STUDY_ORIENT	n/a	n/a	1	1	GUARD	SNAIL	SNAIL	GUARD	8	[0, 0, 0]	-999	PAL1	0	R1023J
906.011	4.0	1219102	STUDY_PAIR	n/a	wordpools/wordpool_EN.txt	1	1	GUARD	SNAIL	SNAIL	GUARD	8	[0, 0, 0]	-999	PAL1	0	R1023J
911.036	0.275	1224127	STUDY_ORIENT	n/a	n/a	2	6	CHALK	PASS	CHALK	BALL	8	[0, 0, 0]	-999	PAL1	0	R1023J
911.971	4.0	1225062	STUDY_PAIR	n/a	wordpools/wordpool_EN.txt	2	6	CHALK	PASS	CHALK	BALL	8	[0, 0, 0]	-999	PAL1	0	R1023J
916.996	0.275	1230087	STUDY_ORIENT	n/a	n/a	3	5	PEN	PASS	SHOE	PEN	8	[0, 0, 0]	-999	PAL1	0	R1023J
917.981	4.0	1231072	STUDY_PAIR	n/a	wordpools/wordpool_EN.txt	3	5	PEN	PASS	SHOE	PEN	8	[0, 0, 0]	-999	PAL1	0	R1023J
923.006	0.275	1236096	STUDY_ORIENT	n/a	n/a	4	2	SPEAR	PASS	GOLD	SPEAR	8	[0, 0, 0]	-999	PAL1	0	R1023J
923.874	4.0	1236964	STUDY_PAIR	n/a	wordpools/wordpool_EN.txt	4	2	SPEAR	PASS	GOLD	SPEAR	8	[0, 0, 0]	-999	PAL1	0	R1023J
928.899	0.275	1241989	STUDY_ORIENT	n/a	n/a	5	3	SOUP	WAVE	WAVE	SOUP	8	[0, 0, 0]	-999	PAL1	0	R1023J
929.701	4.0	1242791	STUDY_PAIR	n/a	wordpools/wordpool_EN.txt	5	3	SOUP	WAVE	WAVE	SOUP	8	[0, 0, 0]	-999	PAL1	0	R1023J
934.726	0.275	1247816	STUDY_ORIENT	n/a	n/a	6	4	JUICE	PASS	JUICE	CLAY	8	[0, 0, 0]	-999	PAL1	0	R1023J
935.711	4.0	1248801	STUDY_PAIR	n/a	wordpools/wordpool_EN.txt	6	4	JUICE	PASS	JUICE	CLAY	8	[0, 0, 0]	-999	PAL1	0	R1023J
939.718	0.999	1252808	START	n/a	n/a	-999	-999	n/a	n/a	n/a	n/a	8	[-999, -999, -999]	-999	PAL1	0	R1023J
940.717	0.019	1253807	MATH_START	n/a	n/a	-999	-999	n/a	n/a	n/a	n/a	8	[0, 0, 0]	-999	PAL1	0	R1023J
940.736	6.31	1253826	PROB	6277.0	n/a	-999	-999	n/a	n/a	n/a	n/a	8	[5, 3, 9]	17	PAL1	0	R1023J
947.046	3.657	1260136	PROB	3631.0	n/a	-999	-999	n/a	n/a	n/a	n/a	8	[9, 1, 3]	13	PAL1	0	R1023J
950.703	7.663	1263792	PROB	7622.0	n/a	-999	-999	n/a	n/a	n/a	n/a	8	[4, 6, 7]	17	PAL1	0	R1023J
958.366	5.999	1271455	PROB	5999.0	n/a	-999	-999	n/a	n/a	n/a	n/a	8	[5, 7, 6]	18	PAL1	0	R1023J
964.365	0.011	1277454	STOP	n/a	n/a	-999	-999	n/a	n/a	n/a	n/a	8	[-999, -999, -999]	-999	PAL1	0	R1023J
964.376	0.0	1277465	MATH_END	n/a	n/a	-999	-999	n/a	n/a	n/a	n/a	8	[0, 0, 0]	-999	PAL1	0	R1023J
964.376	0.017	1277465	TEST_START	n/a	n/a	-999	-999	n/a	n/a	n/a	n/a	8	[0, 0, 0]	-999	PAL1	0	R1023J
964.393	0.275	1277482	TEST_ORIENT	n/a	n/a	1	1	GUARD	SNAIL	SNAIL	GUARD	8	[0, 0, 0]	-999	PAL1	0	R1023J
965.345	0.0	1278434	REC_START	n/a	n/a	1	-999	n/a	SNAIL	n/a	n/a	8	[0, 0, 0]	-999	PAL1	0	R1023J
965.345	4.0	1278434	TEST_PROBE	n/a	wordpools/wordpool_EN.txt	1	1	GUARD	SNAIL	SNAIL	GUARD	8	[0, 0, 0]	-999	PAL1	0	R1023J
967.544	2.824	1280633	REC_EVENT	2199.0	n/a	1	1	GUARD	SNAIL	SNAIL	GUARD	8	[0, 0, 0]	-999	PAL1	0	R1023J
970.368	0.019	1283457	REC_END	n/a	n/a	1	-999	n/a	n/a	n/a	n/a	8	[0, 0, 0]	-999	PAL1	0	R1023J
970.387	0.275	1283476	TEST_ORIENT	n/a	n/a	4	2	SPEAR	PASS	GOLD	SPEAR	8	[0, 0, 0]	-999	PAL1	0	R1023J
971.338	4.0	1284427	TEST_PROBE	n/a	wordpools/wordpool_EN.txt	4	2	SPEAR	PASS	GOLD	SPEAR	8	[0, 0, 0]	-999	PAL1	0	R1023J
971.339	1.549	1284428	REC_START	n/a	n/a	4	-999	n/a	PASS	n/a	n/a	8	[0, 0, 0]	-999	PAL1	0	R1023J
972.888	3.457	1285977	REC_EVENT	1549.0	n/a	4	2	SPEAR	PASS	GOLD	SPEAR	8	[0, 0, 0]	-999	PAL1	0	R1023J
976.345	0.035	1289434	REC_END	n/a	n/a	4	-999	n/a	n/a	n/a	n/a	8	[0, 0, 0]	-999	PAL1	0	R1023J
976.38	0.275	1289469	TEST_ORIENT	n/a	n/a	5	3	SOUP	WAVE	WAVE	SOUP	8	[0, 0, 0]	-999	PAL1	0	R1023J
977.18	4.0	1290269	TEST_PROBE	n/a	wordpools/wordpool_EN.txt	5	3	SOUP	WAVE	WAVE	SOUP	8	[0, 0, 0]	-999	PAL1	0	R1023J
977.181	1.822	1290270	REC_START	n/a	n/a	5	-999	n/a	WAVE	n/a	n/a	8	[0, 0, 0]	-999	PAL1	0	R1023J
979.003	3.199	1292091	REC_EVENT	1822.0	n/a	5	3	SOUP	WAVE	WAVE	SOUP	8	[0, 0, 0]	-999	PAL1	0	R1023J
982.202	0.02	1295290	REC_END	n/a	n/a	5	-999	n/a	n/a	n/a	n/a	8	[0, 0, 0]	-999	PAL1	0	R1023J
982.222	0.275	1295310	TEST_ORIENT	n/a	n/a	6	4	JUICE	PASS	JUICE	CLAY	8	[0, 0, 0]	-999	PAL1	0	R1023J
983.023	4.0	1296111	TEST_PROBE	n/a	wordpools/wordpool_EN.txt	6	4	JUICE	PASS	JUICE	CLAY	8	[0, 0, 0]	-999	PAL1	0	R1023J
983.024	1.889	1296112	REC_START	n/a	n/a	6	-999	n/a	PASS	n/a	n/a	8	[0, 0, 0]	-999	PAL1	0	R1023J
984.913	3.132	1298001	REC_EVENT	1889.0	n/a	6	4	JUICE	PASS	JUICE	CLAY	8	[0, 0, 0]	-999	PAL1	0	R1023J
988.045	0.02	1301133	REC_END	n/a	n/a	6	-999	n/a	n/a	n/a	n/a	8	[0, 0, 0]	-999	PAL1	0	R1023J
988.065	0.275	1301153	TEST_ORIENT	n/a	n/a	3	5	PEN	PASS	SHOE	PEN	8	[0, 0, 0]	-999	PAL1	0	R1023J
989.067	4.0	1302155	TEST_PROBE	n/a	wordpools/wordpool_EN.txt	3	5	PEN	PASS	SHOE	PEN	8	[0, 0, 0]	-999	PAL1	0	R1023J
989.067	2.1	1302155	REC_START	n/a	n/a	3	-999	n/a	PASS	n/a	n/a	8	[0, 0, 0]	-999	PAL1	0	R1023J
991.167	2.923	1304255	REC_EVENT	2100.0	n/a	3	5	PEN	PASS	SHOE	PEN	8	[0, 0, 0]	-999	PAL1	0	R1023J
994.09	0.019	1307178	REC_END	n/a	n/a	3	-999	n/a	n/a	n/a	n/a	8	[0, 0, 0]	-999	PAL1	0	R1023J
994.109	0.275	1307197	TEST_ORIENT	n/a	n/a	2	6	CHALK	PASS	CHALK	BALL	8	[0, 0, 0]	-999	PAL1	0	R1023J
995.11	4.0	1308198	TEST_PROBE	n/a	wordpools/wordpool_EN.txt	2	6	CHALK	PASS	CHALK	BALL	8	[0, 0, 0]	-999	PAL1	0	R1023J
995.111	2.985	1308199	REC_START	n/a	n/a	2	-999	n/a	PASS	n/a	n/a	8	[0, 0, 0]	-999	PAL1	0	R1023J
998.096	2.035	1311184	REC_EVENT	2985.0	n/a	2	6	CHALK	PASS	CHALK	BALL	8	[0, 0, 0]	-999	PAL1	0	R1023J
1000.131	2.219	1313219	REC_END	n/a	n/a	2	-999	n/a	n/a	n/a	n/a	8	[0, 0, 0]	-999	PAL1	0	R1023J
1002.35	10.44	1315438	ENCODING_START	n/a	n/a	0	-999	n/a	n/a	n/a	n/a	9	[0, 0, 0]	-999	PAL1	0	R1023J
1012.79	0.275	1325877	STUDY_ORIENT	n/a	n/a	1	1	FOX	MOOSE	FOX	MOOSE	9	[0, 0, 0]	-999	PAL1	0	R1023J
1013.725	4.0	1326812	STUDY_PAIR	n/a	wordpools/wordpool_EN.txt	1	1	FOX	MOOSE	FOX	MOOSE	9	[0, 0, 0]	-999	PAL1	0	R1023J
1018.75	0.275	1331837	STUDY_ORIENT	n/a	n/a	2	6	FLEA	FOOT	FLEA	FOOT	9	[0, 0, 0]	-999	PAL1	0	R1023J
1019.553	4.0	1332640	STUDY_PAIR	n/a	wordpools/wordpool_EN.txt	2	6	FLEA	FOOT	FLEA	FOOT	9	[0, 0, 0]	-999	PAL1	0	R1023J
1024.578	0.275	1337665	STUDY_ORIENT	n/a	n/a	3	5	TRASH	BOY	TRASH	BOY	9	[0, 0, 0]	-999	PAL1	0	R1023J
1025.446	4.0	1338533	STUDY_PAIR	n/a	wordpools/wordpool_EN.txt	3	5	TRASH	BOY	TRASH	BOY	9	[0, 0, 0]	-999	PAL1	0	R1023J
1030.471	0.275	1343558	STUDY_ORIENT	n/a	n/a	4	2	PANTS	PASS	SWORD	PANTS	9	[0, 0, 0]	-999	PAL1	0	R1023J
1031.389	4.0	1344476	STUDY_PAIR	n/a	wordpools/wordpool_EN.txt	4	2	PANTS	PASS	SWORD	PANTS	9	[0, 0, 0]	-999	PAL1	0	R1023J
1036.414	0.275	1349500	STUDY_ORIENT	n/a	n/a	5	3	MAIL	PASS	BOMB	MAIL	9	[0, 0, 0]	-999	PAL1	0	R1023J
1037.282	4.0	1350368	STUDY_PAIR	n/a	wordpools/wordpool_EN.txt	5	3	MAIL	PASS	BOMB	MAIL	9	[0, 0, 0]	-999	PAL1	0	R1023J
1042.308	0.275	1355394	STUDY_ORIENT	n/a	n/a	6	4	HEN	CROW	CROW	HEN	9	[0, 0, 0]	-999	PAL1	0	R1023J
1043.141	4.0	1356227	STUDY_PAIR	n/a	wordpools/wordpool_EN.txt	6	4	HEN	CROW	CROW	HEN	9	[0, 0, 0]	-999	PAL1	0	R1023J
1047.15	0.999	1360236	START	n/a	n/a	-999	-999	n/a	n/a	n/a	n/a	9	[-999, -999, -999]	-999	PAL1	0	R1023J
1048.149	0.017	1361235	MATH_START	n/a	n/a	-999	-999	n/a	n/a	n/a	n/a	9	[0, 0, 0]	-999	PAL1	0	R1023J
1048.166	4.808	1361252	PROB	4775.0	n/a	-999	-999	n/a	n/a	n/a	n/a	9	[8, 2, 3]	13	PAL1	0	R1023J
1052.974	3.29	1366060	PROB	3255.0	n/a	-999	-999	n/a	n/a	n/a	n/a	9	[1, 5, 6]	12	PAL1	0	R1023J
1056.264	3.789	1369350	PROB	3756.0	n/a	-999	-999	n/a	n/a	n/a	n/a	9	[2, 2, 6]	10	PAL1	0	R1023J
1060.053	5.644	1373139	PROB	5609.0	n/a	-999	-999	n/a	n/a	n/a	n/a	9	[9, 4, 3]	16	PAL1	0	R1023J
1065.697	6.972	1378782	PROB	6972.0	n/a	-999	-999	n/a	n/a	n/a	n/a	9	[6, 5, 6]	17	PAL1	0	R1023J
1072.669	0.006	1385754	STOP	n/a	n/a	-999	-999	n/a	n/a	n/a	n/a	9	[-999, -999, -999]	-999	PAL1	0	R1023J
1072.675	0.0	1385760	MATH_END	n/a	n/a	-999	-999	n/a	n/a	n/a	n/a	9	[0, 0, 0]	-999	PAL1	0	R1023J
1072.675	0.017	1385760	TEST_START	n/a	n/a	-999	-999	n/a	n/a	n/a	n/a	9	[0, 0, 0]	-999	PAL1	0	R1023J
1072.692	0.275	1385777	TEST_ORIENT	n/a	n/a	1	1	FOX	MOOSE	FOX	MOOSE	9	[0, 0, 0]	-999	PAL1	0	R1023J
1073.709	4.0	1386794	TEST_PROBE	n/a	wordpools/wordpool_EN.txt	1	1	FOX	MOOSE	FOX	MOOSE	9	[0, 0, 0]	-999	PAL1	0	R1023J
1073.71	1.404	1386795	REC_START	n/a	n/a	1	-999	n/a	MOOSE	n/a	n/a	9	[0, 0, 0]	-999	PAL1	0	R1023J
1075.114	3.635	1388199	REC_EVENT	1404.0	n/a	1	1	FOX	MOOSE	FOX	MOOSE	9	[0, 0, 0]	-999	PAL1	0	R1023J
1078.749	0.019	1391834	REC_END	n/a	n/a	1	-999	n/a	n/a	n/a	n/a	9	[0, 0, 0]	-999	PAL1	0	R1023J
1078.768	0.275	1391853	TEST_ORIENT	n/a	n/a	4	2	PANTS	PASS	SWORD	PANTS	9	[0, 0, 0]	-999	PAL1	0	R1023J
1079.753	4.0	1392838	TEST_PROBE	n/a	wordpools/wordpool_EN.txt	4	2	PANTS	PASS	SWORD	PANTS	9	[0, 0, 0]	-999	PAL1	0	R1023J
1079.753	2.258	1392838	REC_START	n/a	n/a	4	-999	n/a	PASS	n/a	n/a	9	[0, 0, 0]	-999	PAL1	0	R1023J
1082.011	2.765	1395096	REC_EVENT	2258.0	n/a	4	2	PANTS	PASS	SWORD	PANTS	9	[0, 0, 0]	-999	PAL1	0	R1023J
1084.776	0.019	1397861	REC_END	n/a	n/a	4	-999	n/a	n/a	n/a	n/a	9	[0, 0, 0]	-999	PAL1	0	R1023J
1084.795	0.275	1397880	TEST_ORIENT	n/a	n/a	5	3	MAIL	PASS	BOMB	MAIL	9	[0, 0, 0]	-999	PAL1	0	R1023J
1085.647	4.0	1398732	TEST_PROBE	n/a	wordpools/wordpool_EN.txt	5	3	MAIL	PASS	BOMB	MAIL	9	[0, 0, 0]	-999	PAL1	0	R1023J
1085.648	2.059	1398733	REC_START	n/a	n/a	5	-999	n/a	PASS	n/a	n/a	9	[0, 0, 0]	-999	PAL1	0	R1023J
1087.707	2.948	1400792	REC_EVENT	2059.0	n/a	5	3	MAIL	PASS	BOMB	MAIL	9	[0, 0, 0]	-999	PAL1	0	R1023J
1090.655	0.034	1403739	REC_END	n/a	n/a	5	-999	n/a	n/a	n/a	n/a	9	[0, 0, 0]	-999	PAL1	0	R1023J
1090.689	0.275	1403773	TEST_ORIENT	n/a	n/a	6	4	HEN	CROW	CROW	HEN	9	[0, 0, 0]	-999	PAL1	0	R1023J
1091.524	4.0	1404608	TEST_PROBE	n/a	wordpools/wordpool_EN.txt	6	4	HEN	CROW	CROW	HEN	9	[0, 0, 0]	-999	PAL1	0	R1023J
1091.524	1.29	1404608	REC_START	n/a	n/a	6	-999	n/a	CROW	n/a	n/a	9	[0, 0, 0]	-999	PAL1	0	R1023J
1092.814	3.744	1405898	REC_EVENT	1290.0	n/a	6	4	HEN	CROW	CROW	HEN	9	[0, 0, 0]	-999	PAL1	0	R1023J
1096.558	0.041	1409642	REC_END	n/a	n/a	6	-999	n/a	n/a	n/a	n/a	9	[0, 0, 0]	-999	PAL1	0	R1023J
1096.599	0.275	1409683	TEST_ORIENT	n/a	n/a	3	5	TRASH	BOY	TRASH	BOY	9	[0, 0, 0]	-999	PAL1	0	R1023J
1097.534	4.0	1410618	TEST_PROBE	n/a	wordpools/wordpool_EN.txt	3	5	TRASH	BOY	TRASH	BOY	9	[0, 0, 0]	-999	PAL1	0	R1023J
1097.534	1.516	1410618	REC_START	n/a	n/a	3	-999	n/a	BOY	n/a	n/a	9	[0, 0, 0]	-999	PAL1	0	R1023J
1099.05	3.507	1412134	REC_EVENT	1516.0	n/a	3	5	TRASH	BOY	TRASH	BOY	9	[0, 0, 0]	-999	PAL1	0	R1023J
1102.557	0.018	1415641	REC_END	n/a	n/a	3	-999	n/a	n/a	n/a	n/a	9	[0, 0, 0]	-999	PAL1	0	R1023J
1102.575	0.275	1415659	TEST_ORIENT	n/a	n/a	2	6	FLEA	FOOT	FLEA	FOOT	9	[0, 0, 0]	-999	PAL1	0	R1023J
1103.544	4.0	1416628	TEST_PROBE	n/a	wordpools/wordpool_EN.txt	2	6	FLEA	FOOT	FLEA	FOOT	9	[0, 0, 0]	-999	PAL1	0	R1023J
1103.544	1.07	1416628	REC_START	n/a	n/a	2	-999	n/a	FOOT	n/a	n/a	9	[0, 0, 0]	-999	PAL1	0	R1023J
1104.614	3.953	1417698	REC_EVENT	1070.0	n/a	2	6	FLEA	FOOT	FLEA	FOOT	9	[0, 0, 0]	-999	PAL1	0	R1023J
1108.567	3.637	1421651	REC_END	n/a	n/a	2	-999	n/a	n/a	n/a	n/a	9	[0, 0, 0]	-999	PAL1	0	R1023J
1112.204	10.455	1425288	ENCODING_START	n/a	n/a	0	-999	n/a	n/a	n/a	n/a	10	[0, 0, 0]	-999	PAL1	0	R1023J
1122.659	0.275	1435742	STUDY_ORIENT	n/a	n/a	1	5	FOOD	GLOVE	FOOD	GLOVE	10	[0, 0, 0]	-999	PAL1	0	R1023J
1123.477	4.0	1436560	STUDY_PAIR	n/a	wordpools/wordpool_EN.txt	1	5	FOOD	GLOVE	FOOD	GLOVE	10	[0, 0, 0]	-999	PAL1	0	R1023J
1128.502	0.275	1441585	STUDY_ORIENT	n/a	n/a	2	4	DITCH	PASS	DITCH	GLASS	10	[0, 0, 0]	-999	PAL1	0	R1023J
1129.354	4.0	1442437	STUDY_PAIR	n/a	wordpools/wordpool_EN.txt	2	4	DITCH	PASS	DITCH	GLASS	10	[0, 0, 0]	-999	PAL1	0	R1023J
1134.379	0.275	1447462	STUDY_ORIENT	n/a	n/a	3	1	SEAT	PASS	SHEET	SEAT	10	[0, 0, 0]	-999	PAL1	0	R1023J
1135.281	4.0	1448364	STUDY_PAIR	n/a	wordpools/wordpool_EN.txt	3	1	SEAT	PASS	SHEET	SEAT	10	[0, 0, 0]	-999	PAL1	0	R1023J
1140.306	0.275	1453389	STUDY_ORIENT	n/a	n/a	4	6	ROOM	SEED	ROOM	SEED	10	[0, 0, 0]	-999	PAL1	0	R1023J
1141.291	4.0	1454374	STUDY_PAIR	n/a	wordpools/wordpool_EN.txt	4	6	ROOM	SEED	ROOM	SEED	10	[0, 0, 0]	-999	PAL1	0	R1023J
1146.316	0.275	1459399	STUDY_ORIENT	n/a	n/a	5	3	CUBE	PASS	CUBE	DOLL	10	[0, 0, 0]	-999	PAL1	0	R1023J
1147.267	4.0	1460349	STUDY_PAIR	n/a	wordpools/wordpool_EN.txt	5	3	CUBE	PASS	CUBE	DOLL	10	[0, 0, 0]	-999	PAL1	0	R1023J
1152.292	0.275	1465374	STUDY_ORIENT	n/a	n/a	6	2	DIME	PASS	DIME	SNOW	10	[0, 0, 0]	-999	PAL1	0	R1023J
1153.21	4.0	1466292	STUDY_PAIR	n/a	wordpools/wordpool_EN.txt	6	2	DIME	PASS	DIME	SNOW	10	[0, 0, 0]	-999	PAL1	0	R1023J
1157.218	0.999	1470300	START	n/a	n/a	-999	-999	n/a	n/a	n/a	n/a	10	[-999, -999, -999]	-999	PAL1	0	R1023J
1158.217	0.018	1471299	MATH_START	n/a	n/a	-999	-999	n/a	n/a	n/a	n/a	10	[0, 0, 0]	-999	PAL1	0	R1023J
1158.235	8.098	1471317	PROB	8075.0	n/a	-999	-999	n/a	n/a	n/a	n/a	10	[6, 6, 9]	21	PAL1	0	R1023J
1166.333	5.541	1479415	PROB	5520.0	n/a	-999	-999	n/a	n/a	n/a	n/a	10	[3, 5, 8]	16	PAL1	0	R1023J
1171.874	4.593	1484956	PROB	4556.0	n/a	-999	-999	n/a	n/a	n/a	n/a	10	[7, 2, 7]	16	PAL1	0	R1023J
1176.467	5.738	1489548	PROB	5738.0	n/a	-999	-999	n/a	n/a	n/a	n/a	10	[8, 9, 6]	23	PAL1	0	R1023J
1182.205	0.02	1495286	STOP	n/a	n/a	-999	-999	n/a	n/a	n/a	n/a	10	[-999, -999, -999]	-999	PAL1	0	R1023J
1182.225	0.0	1495306	MATH_END	n/a	n/a	-999	-999	n/a	n/a	n/a	n/a	10	[0, 0, 0]	-999	PAL1	0	R1023J
1182.225	0.017	1495306	TEST_START	n/a	n/a	-999	-999	n/a	n/a	n/a	n/a	10	[0, 0, 0]	-999	PAL1	0	R1023J
1182.242	0.275	1495323	TEST_ORIENT	n/a	n/a	3	1	SEAT	PASS	SHEET	SEAT	10	[0, 0, 0]	-999	PAL1	0	R1023J
1183.143	4.0	1496224	TEST_PROBE	n/a	wordpools/wordpool_EN.txt	3	1	SEAT	PASS	SHEET	SEAT	10	[0, 0, 0]	-999	PAL1	0	R1023J
1183.144	3.593	1496225	REC_START	n/a	n/a	3	-999	n/a	PASS	n/a	n/a	10	[0, 0, 0]	-999	PAL1	0	R1023J
1186.737	1.428	1499818	REC_EVENT	3593.0	n/a	3	1	SEAT	PASS	SHEET	SEAT	10	[0, 0, 0]	-999	PAL1	0	R1023J
1188.165	0.02	1501246	REC_END	n/a	n/a	3	-999	n/a	n/a	n/a	n/a	10	[0, 0, 0]	-999	PAL1	0	R1023J
1188.185	0.275	1501266	TEST_ORIENT	n/a	n/a	6	2	DIME	PASS	DIME	SNOW	10	[0, 0, 0]	-999	PAL1	0	R1023J
1189.22	4.0	1502301	TEST_PROBE	n/a	wordpools/wordpool_EN.txt	6	2	DIME	PASS	DIME	SNOW	10	[0, 0, 0]	-999	PAL1	0	R1023J
1189.221	3.998	1502302	REC_START	n/a	n/a	6	-999	n/a	PASS	n/a	n/a	10	[0, 0, 0]	-999	PAL1	0	R1023J
1193.219	1.024	1506300	REC_EVENT	3998.0	n/a	6	2	DIME	PASS	DIME	SNOW	10	[0, 0, 0]	-999	PAL1	0	R1023J
1194.243	0.02	1507324	REC_END	n/a	n/a	6	-999	n/a	n/a	n/a	n/a	10	[0, 0, 0]	-999	PAL1	0	R1023J
1194.263	0.275	1507344	TEST_ORIENT	n/a	n/a	5	3	CUBE	PASS	CUBE	DOLL	10	[0, 0, 0]	-999	PAL1	0	R1023J
1195.08	4.0	1508161	TEST_PROBE	n/a	wordpools/wordpool_EN.txt	5	3	CUBE	PASS	CUBE	DOLL	10	[0, 0, 0]	-999	PAL1	0	R1023J
1195.081	1.875	1508162	REC_START	n/a	n/a	5	-999	n/a	PASS	n/a	n/a	10	[0, 0, 0]	-999	PAL1	0	R1023J
1196.956	3.146	1510037	REC_EVENT	1875.0	n/a	5	3	CUBE	PASS	CUBE	DOLL	10	[0, 0, 0]	-999	PAL1	0	R1023J
1200.102	0.02	1513183	REC_END	n/a	n/a	5	-999	n/a	n/a	n/a	n/a	10	[0, 0, 0]	-999	PAL1	0	R1023J
1200.122	0.275	1513203	TEST_ORIENT	n/a	n/a	2	4	DITCH	PASS	DITCH	GLASS	10	[0, 0, 0]	-999	PAL1	0	R1023J
1201.057	4.0	1514138	TEST_PROBE	n/a	wordpools/wordpool_EN.txt	2	4	DITCH	PASS	DITCH	GLASS	10	[0, 0, 0]	-999	PAL1	0	R1023J
1201.057	1.776	1514138	REC_START	n/a	n/a	2	-999	n/a	PASS	n/a	n/a	10	[0, 0, 0]	-999	PAL1	0	R1023J
1202.833	3.247	1515913	REC_EVENT	1776.0	n/a	2	4	DITCH	PASS	DITCH	GLASS	10	[0, 0, 0]	-999	PAL1	0	R1023J
1206.08	0.019	1519160	REC_END	n/a	n/a	2	-999	n/a	n/a	n/a	n/a	10	[0, 0, 0]	-999	PAL1	0	R1023J
1206.099	0.275	1519179	TEST_ORIENT	n/a	n/a	1	5	FOOD	GLOVE	FOOD	GLOVE	10	[0, 0, 0]	-999	PAL1	0	R1023J
1206.967	4.0	1520047	TEST_PROBE	n/a	wordpools/wordpool_EN.txt	1	5	FOOD	GLOVE	FOOD	GLOVE	10	[0, 0, 0]	-999	PAL1	0	R1023J
1206.967	1.697	1520047	REC_START	n/a	n/a	1	-999	n/a	GLOVE	n/a	n/a	10	[0, 0, 0]	-999	PAL1	0	R1023J
1208.664	3.326	1521744	REC_EVENT	1697.0	n/a	1	5	FOOD	GLOVE	FOOD	GLOVE	10	[0, 0, 0]	-999	PAL1	0	R1023J
1211.99	0.019	1525070	REC_END	n/a	n/a	1	-999	n/a	n/a	n/a	n/a	10	[0, 0, 0]	-999	PAL1	0	R1023J
1212.009	0.275	1525089	TEST_ORIENT	n/a	n/a	4	6	ROOM	SEED	ROOM	SEED	10	[0, 0, 0]	-999	PAL1	0	R1023J
1212.827	0.0	1525907	REC_START	n/a	n/a	4	-999	n/a	SEED	n/a	n/a	10	[0, 0, 0]	-999	PAL1	0	R1023J
1212.827	4.0	1525907	TEST_PROBE	n/a	wordpools/wordpool_EN.txt	4	6	ROOM	SEED	ROOM	SEED	10	[0, 0, 0]	-999	PAL1	0	R1023J
1215.297	2.554	1528377	REC_EVENT	2470.0	n/a	4	6	ROOM	SEED	ROOM	SEED	10	[0, 0, 0]	-999	PAL1	0	R1023J
1217.851	2.642	1530931	REC_END	n/a	n/a	4	-999	n/a	n/a	n/a	n/a	10	[0, 0, 0]	-999	PAL1	0	R1023J
1220.493	10.447	1533573	ENCODING_START	n/a	n/a	0	-999	n/a	n/a	n/a	n/a	11	[0, 0, 0]	-999	PAL1	0	R1023J
1230.94	0.275	1544019	STUDY_ORIENT	n/a	n/a	1	5	GOAT	HILL	HILL	GOAT	11	[0, 0, 0]	-999	PAL1	0	R1023J
1231.942	4.0	1545021	STUDY_PAIR	n/a	wordpools/wordpool_EN.txt	1	5	GOAT	HILL	HILL	GOAT	11	[0, 0, 0]	-999	PAL1	0	R1023J
1236.967	0.275	1550046	STUDY_ORIENT	n/a	n/a	2	6	SUN	EAR	SUN	EAR	11	[0, 0, 0]	-999	PAL1	0	R1023J
1237.869	4.0	1550948	STUDY_PAIR	n/a	wordpools/wordpool_EN.txt	2	6	SUN	EAR	SUN	EAR	11	[0, 0, 0]	-999	PAL1	0	R1023J
1242.894	0.275	1555973	STUDY_ORIENT	n/a	n/a	3	3	TENT	DOCK	TENT	DOCK	11	[0, 0, 0]	-999	PAL1	0	R1023J
1243.813	4.0	1556892	STUDY_PAIR	n/a	wordpools/wordpool_EN.txt	3	3	TENT	DOCK	TENT	DOCK	11	[0, 0, 0]	-999	PAL1	0	R1023J
1248.837	0.275	1561916	STUDY_ORIENT	n/a	n/a	4	2	WALL	STEAK	STEAK	WALL	11	[0, 0, 0]	-999	PAL1	0	R1023J
1249.772	4.0	1562851	STUDY_PAIR	n/a	wordpools/wordpool_EN.txt	4	2	WALL	STEAK	STEAK	WALL	11	[0, 0, 0]	-999	PAL1	0	R1023J
1254.797	0.275	1567876	STUDY_ORIENT	n/a	n/a	5	1	SINK	PASS	WEB	SINK	11	[0, 0, 0]	-999	PAL1	0	R1023J
1255.749	4.0	1568828	STUDY_PAIR	n/a	wordpools/wordpool_EN.txt	5	1	SINK	PASS	WEB	SINK	11	[0, 0, 0]	-999	PAL1	0	R1023J
1260.774	0.275	1573852	STUDY_ORIENT	n/a	n/a	6	4	RAT	BAT	RAT	BAT	11	[0, 0, 0]	-999	PAL1	0	R1023J
1261.61	4.0	1574688	STUDY_PAIR	n/a	wordpools/wordpool_EN.txt	6	4	RAT	BAT	RAT	BAT	11	[0, 0, 0]	-999	PAL1	0	R1023J
1265.618	0.999	1578696	START	n/a	n/a	-999	-999	n/a	n/a	n/a	n/a	11	[-999, -999, -999]	-999	PAL1	0	R1023J
1266.617	0.018	1579695	MATH_START	n/a	n/a	-999	-999	n/a	n/a	n/a	n/a	11	[0, 0, 0]	-999	PAL1	0	R1023J
1266.635	5.86	1579713	PROB	5835.0	n/a	-999	-999	n/a	n/a	n/a	n/a	11	[4, 8, 5]	17	PAL1	0	R1023J
1272.495	4.623	1585573	PROB	4597.0	n/a	-999	-999	n/a	n/a	n/a	n/a	11	[4, 5, 1]	10	PAL1	0	R1023J
1277.118	5.293	1590196	PROB	5263.0	n/a	-999	-999	n/a	n/a	n/a	n/a	11	[7, 2, 2]	11	PAL1	0	R1023J
1282.411	3.866	1595489	PROB	3866.0	n/a	-999	-999	n/a	n/a	n/a	n/a	11	[8, 2, 3]	13	PAL1	0	R1023J
1286.277	0.008	1599354	STOP	n/a	n/a	-999	-999	n/a	n/a	n/a	n/a	11	[-999, -999, -999]	-999	PAL1	0	R1023J
1286.285	0.0	1599362	TEST_START	n/a	n/a	-999	-999	n/a	n/a	n/a	n/a	11	[0, 0, 0]	-999	PAL1	0	R1023J
1286.285	0.016	1599362	MATH_END	n/a	n/a	-999	-999	n/a	n/a	n/a	n/a	11	[0, 0, 0]	-999	PAL1	0	R1023J
1286.301	0.275	1599378	TEST_ORIENT	n/a	n/a	5	1	SINK	PASS	WEB	SINK	11	[0, 0, 0]	-999	PAL1	0	R1023J
1287.118	4.0	1600195	TEST_PROBE	n/a	wordpools/wordpool_EN.txt	5	1	SINK	PASS	WEB	SINK	11	[0, 0, 0]	-999	PAL1	0	R1023J
1287.119	2.087	1600196	REC_START	n/a	n/a	5	-999	n/a	PASS	n/a	n/a	11	[0, 0, 0]	-999	PAL1	0	R1023J
1289.206	2.933	1602283	REC_EVENT	2087.0	n/a	5	1	SINK	PASS	WEB	SINK	11	[0, 0, 0]	-999	PAL1	0	R1023J
1292.139	0.021	1605216	REC_END	n/a	n/a	5	-999	n/a	n/a	n/a	n/a	11	[0, 0, 0]	-999	PAL1	0	R1023J
1292.16	0.275	1605237	TEST_ORIENT	n/a	n/a	4	2	WALL	STEAK	STEAK	WALL	11	[0, 0, 0]	-999	PAL1	0	R1023J
1292.978	4.0	1606055	TEST_PROBE	n/a	wordpools/wordpool_EN.txt	4	2	WALL	STEAK	STEAK	WALL	11	[0, 0, 0]	-999	PAL1	0	R1023J
1292.979	1.291	1606056	REC_START	n/a	n/a	4	-999	n/a	STEAK	n/a	n/a	11	[0, 0, 0]	-999	PAL1	0	R1023J
1294.27	3.729	1607347	REC_EVENT	1291.0	n/a	4	2	WALL	STEAK	STEAK	WALL	11	[0, 0, 0]	-999	PAL1	0	R1023J
1297.999	0.021	1611076	REC_END	n/a	n/a	4	-999	n/a	n/a	n/a	n/a	11	[0, 0, 0]	-999	PAL1	0	R1023J
1298.02	0.275	1611097	TEST_ORIENT	n/a	n/a	3	3	TENT	DOCK	TENT	DOCK	11	[0, 0, 0]	-999	PAL1	0	R1023J
1298.988	4.0	1612065	TEST_PROBE	n/a	wordpools/wordpool_EN.txt	3	3	TENT	DOCK	TENT	DOCK	11	[0, 0, 0]	-999	PAL1	0	R1023J
1298.989	1.492	1612066	REC_START	n/a	n/a	3	-999	n/a	DOCK	n/a	n/a	11	[0, 0, 0]	-999	PAL1	0	R1023J
1300.481	3.528	1613558	REC_EVENT	1492.0	n/a	3	3	TENT	DOCK	TENT	DOCK	11	[0, 0, 0]	-999	PAL1	0	R1023J
1304.009	0.021	1617086	REC_END	n/a	n/a	3	-999	n/a	n/a	n/a	n/a	11	[0, 0, 0]	-999	PAL1	0	R1023J
1304.03	0.275	1617107	TEST_ORIENT	n/a	n/a	6	4	RAT	BAT	RAT	BAT	11	[0, 0, 0]	-999	PAL1	0	R1023J
1304.982	0.0	1618059	REC_START	n/a	n/a	6	-999	n/a	BAT	n/a	n/a	11	[0, 0, 0]	-999	PAL1	0	R1023J
1304.982	4.0	1618059	TEST_PROBE	n/a	wordpools/wordpool_EN.txt	6	4	RAT	BAT	RAT	BAT	11	[0, 0, 0]	-999	PAL1	0	R1023J
1306.395	3.61	1619472	REC_EVENT	1413.0	n/a	6	4	RAT	BAT	RAT	BAT	11	[0, 0, 0]	-999	PAL1	0	R1023J
1310.005	0.018	1623082	REC_END	n/a	n/a	6	-999	n/a	n/a	n/a	n/a	11	[0, 0, 0]	-999	PAL1	0	R1023J
1310.023	0.275	1623100	TEST_ORIENT	n/a	n/a	1	5	GOAT	HILL	HILL	GOAT	11	[0, 0, 0]	-999	PAL1	0	R1023J
1311.059	4.0	1624136	TEST_PROBE	n/a	wordpools/wordpool_EN.txt	1	5	GOAT	HILL	HILL	GOAT	11	[0, 0, 0]	-999	PAL1	0	R1023J
1311.059	1.229	1624136	REC_START	n/a	n/a	1	-999	n/a	HILL	n/a	n/a	11	[0, 0, 0]	-999	PAL1	0	R1023J
1312.288	3.794	1625365	REC_EVENT	1229.0	n/a	1	5	GOAT	HILL	HILL	GOAT	11	[0, 0, 0]	-999	PAL1	0	R1023J
1316.082	0.018	1629158	REC_END	n/a	n/a	1	-999	n/a	n/a	n/a	n/a	11	[0, 0, 0]	-999	PAL1	0	R1023J
1316.1	0.275	1629176	TEST_ORIENT	n/a	n/a	2	6	SUN	EAR	SUN	EAR	11	[0, 0, 0]	-999	PAL1	0	R1023J
1317.119	0.0	1630195	REC_START	n/a	n/a	2	-999	n/a	EAR	n/a	n/a	11	[0, 0, 0]	-999	PAL1	0	R1023J
1317.119	4.0	1630195	TEST_PROBE	n/a	wordpools/wordpool_EN.txt	2	6	SUN	EAR	SUN	EAR	11	[0, 0, 0]	-999	PAL1	0	R1023J
1318.351	3.775	1631427	REC_EVENT	1232.0	n/a	2	6	SUN	EAR	SUN	EAR	11	[0, 0, 0]	-999	PAL1	0	R1023J
1322.126	2.399	1635202	REC_END	n/a	n/a	2	-999	n/a	n/a	n/a	n/a	11	[0, 0, 0]	-999	PAL1	0	R1023J
1324.525	10.44	1637601	ENCODING_START	n/a	n/a	0	-999	n/a	n/a	n/a	n/a	12	[0, 0, 0]	-999	PAL1	0	R1023J
1334.965	0.275	1648041	STUDY_ORIENT	n/a	n/a	1	1	WORM	TREE	TREE	WORM	12	[0, 0, 0]	-999	PAL1	0	R1023J
1335.967	4.0	1649043	STUDY_PAIR	n/a	wordpools/wordpool_EN.txt	1	1	WORM	TREE	TREE	WORM	12	[0, 0, 0]	-999	PAL1	0	R1023J
1340.992	0.275	1654068	STUDY_ORIENT	n/a	n/a	2	4	PET	PASS	PET	SALT	12	[0, 0, 0]	-999	PAL1	0	R1023J
1341.844	4.0	1654920	STUDY_PAIR	n/a	wordpools/wordpool_EN.txt	2	4	PET	PASS	PET	SALT	12	[0, 0, 0]	-999	PAL1	0	R1023J
1346.869	0.275	1659944	STUDY_ORIENT	n/a	n/a	3	3	LOCK	PASS	LOCK	STICK	12	[0, 0, 0]	-999	PAL1	0	R1023J
1347.837	4.0	1660912	STUDY_PAIR	n/a	wordpools/wordpool_EN.txt	3	3	LOCK	PASS	LOCK	STICK	12	[0, 0, 0]	-999	PAL1	0	R1023J
1352.862	0.275	1665937	STUDY_ORIENT	n/a	n/a	4	6	TEA	BEAR	BEAR	TEA	12	[0, 0, 0]	-999	PAL1	0	R1023J
1353.731	4.0	1666806	STUDY_PAIR	n/a	wordpools/wordpool_EN.txt	4	6	TEA	BEAR	BEAR	TEA	12	[0, 0, 0]	-999	PAL1	0	R1023J
1358.755	0.275	1671830	STUDY_ORIENT	n/a	n/a	5	5	CANE	GATE	GATE	CANE	12	[0, 0, 0]	-999	PAL1	0	R1023J
1359.707	4.0	1672782	STUDY_PAIR	n/a	wordpools/wordpool_EN.txt	5	5	CANE	GATE	GATE	CANE	12	[0, 0, 0]	-999	PAL1	0	R1023J
1364.732	0.275	1677807	STUDY_ORIENT	n/a	n/a	6	2	DRESS	LEG	DRESS	LEG	12	[0, 0, 0]	-999	PAL1	0	R1023J
1365.585	4.0	1678660	STUDY_PAIR	n/a	wordpools/wordpool_EN.txt	6	2	DRESS	LEG	DRESS	LEG	12	[0, 0, 0]	-999	PAL1	0	R1023J
1369.592	0.999	1682667	START	n/a	n/a	-999	-999	n/a	n/a	n/a	n/a	12	[-999, -999, -999]	-999	PAL1	0	R1023J
1370.591	0.019	1683665	MATH_START	n/a	n/a	-999	-999	n/a	n/a	n/a	n/a	12	[0, 0, 0]	-999	PAL1	0	R1023J
1370.61	5.86	1683684	PROB	5835.0	n/a	-999	-999	n/a	n/a	n/a	n/a	12	[7, 9, 7]	23	PAL1	0	R1023J
1376.47	6.11	1689544	PROB	6079.0	n/a	-999	-999	n/a	n/a	n/a	n/a	12	[5, 4, 2]	11	PAL1	0	R1023J
1382.58	7.025	1695654	PROB	7025.0	n/a	-999	-999	n/a	n/a	n/a	n/a	12	[9, 8, 5]	22	PAL1	0	R1023J
1389.605	0.02	1702679	STOP	n/a	n/a	-999	-999	n/a	n/a	n/a	n/a	12	[-999, -999, -999]	-999	PAL1	0	R1023J
1389.625	0.0	1702699	TEST_START	n/a	n/a	-999	-999	n/a	n/a	n/a	n/a	12	[0, 0, 0]	-999	PAL1	0	R1023J
1389.625	0.017	1702699	MATH_END	n/a	n/a	-999	-999	n/a	n/a	n/a	n/a	12	[0, 0, 0]	-999	PAL1	0	R1023J
1389.642	0.275	1702716	TEST_ORIENT	n/a	n/a	1	1	WORM	TREE	TREE	WORM	12	[0, 0, 0]	-999	PAL1	0	R1023J
1390.443	4.0	1703517	TEST_PROBE	n/a	wordpools/wordpool_EN.txt	1	1	WORM	TREE	TREE	WORM	12	[0, 0, 0]	-999	PAL1	0	R1023J
1390.443	1.364	1703517	REC_START	n/a	n/a	1	-999	n/a	TREE	n/a	n/a	12	[0, 0, 0]	-999	PAL1	0	R1023J
1391.807	3.66	1704881	REC_EVENT	1364.0	n/a	1	1	WORM	TREE	TREE	WORM	12	[0, 0, 0]	-999	PAL1	0	R1023J
1395.467	0.018	1708541	REC_END	n/a	n/a	1	-999	n/a	n/a	n/a	n/a	12	[0, 0, 0]	-999	PAL1	0	R1023J
1395.485	0.275	1708559	TEST_ORIENT	n/a	n/a	6	2	DRESS	LEG	DRESS	LEG	12	[0, 0, 0]	-999	PAL1	0	R1023J
1396.32	0.0	1709394	REC_START	n/a	n/a	6	-999	n/a	LEG	n/a	n/a	12	[0, 0, 0]	-999	PAL1	0	R1023J
1396.32	4.0	1709394	TEST_PROBE	n/a	wordpools/wordpool_EN.txt	6	2	DRESS	LEG	DRESS	LEG	12	[0, 0, 0]	-999	PAL1	0	R1023J
1397.271	4.072	1710345	REC_EVENT	951.0	n/a	6	2	DRESS	LEG	DRESS	LEG	12	[0, 0, 0]	-999	PAL1	0	R1023J
1401.343	0.018	1714416	REC_END	n/a	n/a	6	-999	n/a	n/a	n/a	n/a	12	[0, 0, 0]	-999	PAL1	0	R1023J
1401.361	0.275	1714434	TEST_ORIENT	n/a	n/a	3	3	LOCK	PASS	LOCK	STICK	12	[0, 0, 0]	-999	PAL1	0	R1023J
1402.162	4.0	1715235	TEST_PROBE	n/a	wordpools/wordpool_EN.txt	3	3	LOCK	PASS	LOCK	STICK	12	[0, 0, 0]	-999	PAL1	0	R1023J
1402.162	2.219	1715235	REC_START	n/a	n/a	3	-999	n/a	PASS	n/a	n/a	12	[0, 0, 0]	-999	PAL1	0	R1023J
1404.381	2.804	1717454	REC_EVENT	2219.0	n/a	3	3	LOCK	PASS	LOCK	STICK	12	[0, 0, 0]	-999	PAL1	0	R1023J
1407.185	0.019	1720258	REC_END	n/a	n/a	3	-999	n/a	n/a	n/a	n/a	12	[0, 0, 0]	-999	PAL1	0	R1023J
1407.204	0.275	1720277	TEST_ORIENT	n/a	n/a	2	4	PET	PASS	PET	SALT	12	[0, 0, 0]	-999	PAL1	0	R1023J
1408.088	4.0	1721161	TEST_PROBE	n/a	wordpools/wordpool_EN.txt	2	4	PET	PASS	PET	SALT	12	[0, 0, 0]	-999	PAL1	0	R1023J
1408.089	2.693	1721162	REC_START	n/a	n/a	2	-999	n/a	PASS	n/a	n/a	12	[0, 0, 0]	-999	PAL1	0	R1023J
1410.782	2.328	1723855	REC_EVENT	2693.0	n/a	2	4	PET	PASS	PET	SALT	12	[0, 0, 0]	-999	PAL1	0	R1023J
1413.11	0.02	1726183	REC_END	n/a	n/a	2	-999	n/a	n/a	n/a	n/a	12	[0, 0, 0]	-999	PAL1	0	R1023J
1413.13	0.275	1726203	TEST_ORIENT	n/a	n/a	5	5	CANE	GATE	GATE	CANE	12	[0, 0, 0]	-999	PAL1	0	R1023J
1414.015	4.0	1727088	TEST_PROBE	n/a	wordpools/wordpool_EN.txt	5	5	CANE	GATE	GATE	CANE	12	[0, 0, 0]	-999	PAL1	0	R1023J
1414.016	1.893	1727089	REC_START	n/a	n/a	5	-999	n/a	GATE	n/a	n/a	12	[0, 0, 0]	-999	PAL1	0	R1023J
1415.909	3.128	1728982	REC_EVENT	1893.0	n/a	5	5	CANE	GATE	GATE	CANE	12	[0, 0, 0]	-999	PAL1	0	R1023J
1419.037	0.02	1732110	REC_END	n/a	n/a	5	-999	n/a	n/a	n/a	n/a	12	[0, 0, 0]	-999	PAL1	0	R1023J
1419.057	0.275	1732130	TEST_ORIENT	n/a	n/a	4	6	TEA	BEAR	BEAR	TEA	12	[0, 0, 0]	-999	PAL1	0	R1023J
1419.908	4.0	1732981	TEST_PROBE	n/a	wordpools/wordpool_EN.txt	4	6	TEA	BEAR	BEAR	TEA	12	[0, 0, 0]	-999	PAL1	0	R1023J
1419.909	1.927	1732982	REC_START	n/a	n/a	4	-999	n/a	BEAR	n/a	n/a	12	[0, 0, 0]	-999	PAL1	0	R1023J
1421.836	3.094	1734909	REC_EVENT	1927.0	n/a	4	6	TEA	BEAR	BEAR	TEA	12	[0, 0, 0]	-999	PAL1	0	R1023J
1424.93	7.786	1738003	REC_END	n/a	n/a	4	-999	n/a	n/a	n/a	n/a	12	[0, 0, 0]	-999	PAL1	0	R1023J
1432.716	10.448	1745788	ENCODING_START	n/a	n/a	0	-999	n/a	n/a	n/a	n/a	13	[0, 0, 0]	-999	PAL1	0	R1023J
1443.164	0.275	1756236	STUDY_ORIENT	n/a	n/a	1	3	LEAF	WOOD	LEAF	WOOD	13	[0, 0, 0]	-999	PAL1	0	R1023J
1444.166	4.0	1757238	STUDY_PAIR	n/a	wordpools/wordpool_EN.txt	1	3	LEAF	WOOD	LEAF	WOOD	13	[0, 0, 0]	-999	PAL1	0	R1023J
1449.191	0.275	1762263	STUDY_ORIENT	n/a	n/a	2	6	TOE	PASS	POND	TOE	13	[0, 0, 0]	-999	PAL1	0	R1023J
1450.092	4.0	1763164	STUDY_PAIR	n/a	wordpools/wordpool_EN.txt	2	6	TOE	PASS	POND	TOE	13	[0, 0, 0]	-999	PAL1	0	R1023J
1455.118	0.275	1768189	STUDY_ORIENT	n/a	n/a	3	1	PEACH	n/a	SHIELD	PEACH	13	[0, 0, 0]	-999	PAL1	0	R1023J
1456.119	4.0	1769190	STUDY_PAIR	n/a	wordpools/wordpool_EN.txt	3	1	PEACH	n/a	SHIELD	PEACH	13	[0, 0, 0]	-999	PAL1	0	R1023J
1461.144	0.275	1774215	STUDY_ORIENT	n/a	n/a	4	2	SHELL	PASS	NEST	SHELL	13	[0, 0, 0]	-999	PAL1	0	R1023J
1461.996	4.0	1775067	STUDY_PAIR	n/a	wordpools/wordpool_EN.txt	4	2	SHELL	PASS	NEST	SHELL	13	[0, 0, 0]	-999	PAL1	0	R1023J
1467.021	0.275	1780092	STUDY_ORIENT	n/a	n/a	5	5	BANK	PLATE	PLATE	BANK	13	[0, 0, 0]	-999	PAL1	0	R1023J
1467.822	4.0	1780893	STUDY_PAIR	n/a	wordpools/wordpool_EN.txt	5	5	BANK	PLATE	PLATE	BANK	13	[0, 0, 0]	-999	PAL1	0	R1023J
1472.847	0.275	1785918	STUDY_ORIENT	n/a	n/a	6	4	MULE	PASS	BOARD	MULE	13	[0, 0, 0]	-999	PAL1	0	R1023J
1473.732	4.0	1786803	STUDY_PAIR	n/a	wordpools/wordpool_EN.txt	6	4	MULE	PASS	BOARD	MULE	13	[0, 0, 0]	-999	PAL1	0	R1023J
1477.741	0.999	1790812	START	n/a	n/a	-999	-999	n/a	n/a	n/a	n/a	13	[-999, -999, -999]	-999	PAL1	0	R1023J
1478.74	0.017	1791811	MATH_START	n/a	n/a	-999	-999	n/a	n/a	n/a	n/a	13	[0, 0, 0]	-999	PAL1	0	R1023J
1478.757	4.743	1791828	PROB	4704.0	n/a	-999	-999	n/a	n/a	n/a	n/a	13	[2, 1, 6]	9	PAL1	0	R1023J
1483.5	6.543	1796570	PROB	6512.0	n/a	-999	-999	n/a	n/a	n/a	n/a	13	[2, 5, 8]	15	PAL1	0	R1023J
1490.043	4.342	1803113	PROB	4314.0	n/a	-999	-999	n/a	n/a	n/a	n/a	13	[2, 8, 3]	13	PAL1	0	R1023J
1494.385	6.803	1807455	PROB	6803.0	n/a	-999	-999	n/a	n/a	n/a	n/a	13	[6, 9, 9]	23	PAL1	0	R1023J
1501.188	0.007	1814258	STOP	n/a	n/a	-999	-999	n/a	n/a	n/a	n/a	13	[-999, -999, -999]	-999	PAL1	0	R1023J
1501.195	0.0	1814265	TEST_START	n/a	n/a	-999	-999	n/a	n/a	n/a	n/a	13	[0, 0, 0]	-999	PAL1	0	R1023J
1501.195	0.017	1814265	MATH_END	n/a	n/a	-999	-999	n/a	n/a	n/a	n/a	13	[0, 0, 0]	-999	PAL1	0	R1023J
1501.212	0.275	1814282	TEST_ORIENT	n/a	n/a	3	1	PEACH	n/a	SHIELD	PEACH	13	[0, 0, 0]	-999	PAL1	0	R1023J
1502.096	4.0	1815166	TEST_PROBE	n/a	wordpools/wordpool_EN.txt	3	1	PEACH	n/a	SHIELD	PEACH	13	[0, 0, 0]	-999	PAL1	0	R1023J
1502.097	5.021	1815167	REC_START	n/a	n/a	3	-999	n/a	n/a	n/a	n/a	13	[0, 0, 0]	-999	PAL1	0	R1023J
1507.118	0.0	1820188	REC_EVENT	5021.0	n/a	3	1	PEACH	<>	SHIELD	PEACH	13	[0, 0, 0]	-999	PAL1	0	R1023J
1507.118	0.02	1820188	REC_END	n/a	n/a	3	-999	n/a	n/a	n/a	n/a	13	[0, 0, 0]	-999	PAL1	0	R1023J
1507.138	0.275	1820208	TEST_ORIENT	n/a	n/a	4	2	SHELL	PASS	NEST	SHELL	13	[0, 0, 0]	-999	PAL1	0	R1023J
1507.956	4.0	1821026	TEST_PROBE	n/a	wordpools/wordpool_EN.txt	4	2	SHELL	PASS	NEST	SHELL	13	[0, 0, 0]	-999	PAL1	0	R1023J
1507.957	2.46	1821027	REC_START	n/a	n/a	4	-999	n/a	PASS	n/a	n/a	13	[0, 0, 0]	-999	PAL1	0	R1023J
1510.417	2.546	1823486	REC_EVENT	2460.0	n/a	4	2	SHELL	PASS	NEST	SHELL	13	[0, 0, 0]	-999	PAL1	0	R1023J
1512.963	0.035	1826032	REC_END	n/a	n/a	4	-999	n/a	n/a	n/a	n/a	13	[0, 0, 0]	-999	PAL1	0	R1023J
1512.998	0.275	1826067	TEST_ORIENT	n/a	n/a	1	3	LEAF	WOOD	LEAF	WOOD	13	[0, 0, 0]	-999	PAL1	0	R1023J
1513.983	4.0	1827052	TEST_PROBE	n/a	wordpools/wordpool_EN.txt	1	3	LEAF	WOOD	LEAF	WOOD	13	[0, 0, 0]	-999	PAL1	0	R1023J
1513.984	0.895	1827053	REC_START	n/a	n/a	1	-999	n/a	WOOD	n/a	n/a	13	[0, 0, 0]	-999	PAL1	0	R1023J
1514.879	4.126	1827948	REC_EVENT	895.0	n/a	1	3	LEAF	WOOD	LEAF	WOOD	13	[0, 0, 0]	-999	PAL1	0	R1023J
1519.005	0.02	1832074	REC_END	n/a	n/a	1	-999	n/a	n/a	n/a	n/a	13	[0, 0, 0]	-999	PAL1	0	R1023J
1519.025	0.275	1832094	TEST_ORIENT	n/a	n/a	6	4	MULE	PASS	BOARD	MULE	13	[0, 0, 0]	-999	PAL1	0	R1023J
1519.977	0.0	1833046	REC_START	n/a	n/a	6	-999	n/a	PASS	n/a	n/a	13	[0, 0, 0]	-999	PAL1	0	R1023J
1519.977	4.0	1833046	TEST_PROBE	n/a	wordpools/wordpool_EN.txt	6	4	MULE	PASS	BOARD	MULE	13	[0, 0, 0]	-999	PAL1	0	R1023J
1522.269	2.731	1835338	REC_EVENT	2292.0	n/a	6	4	MULE	PASS	BOARD	MULE	13	[0, 0, 0]	-999	PAL1	0	R1023J
1525.0	0.018	1838069	REC_END	n/a	n/a	6	-999	n/a	n/a	n/a	n/a	13	[0, 0, 0]	-999	PAL1	0	R1023J
1525.018	0.275	1838087	TEST_ORIENT	n/a	n/a	5	5	BANK	PLATE	PLATE	BANK	13	[0, 0, 0]	-999	PAL1	0	R1023J
1525.937	4.0	1839006	TEST_PROBE	n/a	wordpools/wordpool_EN.txt	5	5	BANK	PLATE	PLATE	BANK	13	[0, 0, 0]	-999	PAL1	0	R1023J
1525.937	1.672	1839006	REC_START	n/a	n/a	5	-999	n/a	PLATE	n/a	n/a	13	[0, 0, 0]	-999	PAL1	0	R1023J
1527.609	3.351	1840678	REC_EVENT	1672.0	n/a	5	5	BANK	PLATE	PLATE	BANK	13	[0, 0, 0]	-999	PAL1	0	R1023J
1530.96	0.018	1844029	REC_END	n/a	n/a	5	-999	n/a	n/a	n/a	n/a	13	[0, 0, 0]	-999	PAL1	0	R1023J
1530.978	0.275	1844047	TEST_ORIENT	n/a	n/a	2	6	TOE	PASS	POND	TOE	13	[0, 0, 0]	-999	PAL1	0	R1023J
1531.863	4.0	1844932	TEST_PROBE	n/a	wordpools/wordpool_EN.txt	2	6	TOE	PASS	POND	TOE	13	[0, 0, 0]	-999	PAL1	0	R1023J
1531.864	2.367	1844933	REC_START	n/a	n/a	2	-999	n/a	PASS	n/a	n/a	13	[0, 0, 0]	-999	PAL1	0	R1023J
1534.231	2.639	1847300	REC_EVENT	2367.0	n/a	2	6	TOE	PASS	POND	TOE	13	[0, 0, 0]	-999	PAL1	0	R1023J
1536.87	2.15	1849939	REC_END	n/a	n/a	2	-999	n/a	n/a	n/a	n/a	13	[0, 0, 0]	-999	PAL1	0	R1023J
1539.02	10.441	1852088	ENCODING_START	n/a	n/a	0	-999	n/a	n/a	n/a	n/a	14	[0, 0, 0]	-999	PAL1	0	R1023J
1549.461	0.275	1862529	STUDY_ORIENT	n/a	n/a	1	3	FAN	PASS	SNAKE	FAN	14	[0, 0, 0]	-999	PAL1	0	R1023J
1550.295	4.0	1863363	STUDY_PAIR	n/a	wordpools/wordpool_EN.txt	1	3	FAN	PASS	SNAKE	FAN	14	[0, 0, 0]	-999	PAL1	0	R1023J
1555.32	0.275	1868388	STUDY_ORIENT	n/a	n/a	2	6	STRING	PASS	STRING	DEER	14	[0, 0, 0]	-999	PAL1	0	R1023J
1556.121	4.0	1869189	STUDY_PAIR	n/a	wordpools/wordpool_EN.txt	2	6	STRING	PASS	STRING	DEER	14	[0, 0, 0]	-999	PAL1	0	R1023J
1561.146	0.275	1874214	STUDY_ORIENT	n/a	n/a	3	5	PURSE	PASS	PURSE	PASTE	14	[0, 0, 0]	-999	PAL1	0	R1023J
1561.964	4.0	1875032	STUDY_PAIR	n/a	wordpools/wordpool_EN.txt	3	5	PURSE	PASS	PURSE	PASTE	14	[0, 0, 0]	-999	PAL1	0	R1023J
1566.989	0.275	1880056	STUDY_ORIENT	n/a	n/a	4	2	FORT	KEY	FORT	KEY	14	[0, 0, 0]	-999	PAL1	0	R1023J
1567.907	4.0	1880974	STUDY_PAIR	n/a	wordpools/wordpool_EN.txt	4	2	FORT	KEY	FORT	KEY	14	[0, 0, 0]	-999	PAL1	0	R1023J
1572.932	0.275	1885999	STUDY_ORIENT	n/a	n/a	5	1	TOOL	PASS	SLEEVE	TOOL	14	[0, 0, 0]	-999	PAL1	0	R1023J
1573.734	4.0	1886801	STUDY_PAIR	n/a	wordpools/wordpool_EN.txt	5	1	TOOL	PASS	SLEEVE	TOOL	14	[0, 0, 0]	-999	PAL1	0	R1023J
1578.759	0.275	1891826	STUDY_ORIENT	n/a	n/a	6	4	ARK	OAK	ARK	OAK	14	[0, 0, 0]	-999	PAL1	0	R1023J
1579.727	4.0	1892794	STUDY_PAIR	n/a	wordpools/wordpool_EN.txt	6	4	ARK	OAK	ARK	OAK	14	[0, 0, 0]	-999	PAL1	0	R1023J
1583.735	1.0	1896802	START	n/a	n/a	-999	-999	n/a	n/a	n/a	n/a	14	[-999, -999, -999]	-999	PAL1	0	R1023J
1584.735	0.017	1897802	MATH_START	n/a	n/a	-999	-999	n/a	n/a	n/a	n/a	14	[0, 0, 0]	-999	PAL1	0	R1023J
1584.752	7.312	1897819	PROB	7284.0	n/a	-999	-999	n/a	n/a	n/a	n/a	14	[2, 7, 5]	14	PAL1	0	R1023J
1592.064	9.384	1905131	PROB	9357.0	n/a	-999	-999	n/a	n/a	n/a	n/a	14	[6, 7, 4]	17	PAL1	0	R1023J
1601.448	4.125	1914514	PROB	4125.0	n/a	-999	-999	n/a	n/a	n/a	n/a	14	[2, 1, 8]	11	PAL1	0	R1023J
1605.573	0.015	1918639	STOP	n/a	n/a	-999	-999	n/a	n/a	n/a	n/a	14	[-999, -999, -999]	-999	PAL1	0	R1023J
1605.588	0.0	1918654	MATH_END	n/a	n/a	-999	-999	n/a	n/a	n/a	n/a	14	[0, 0, 0]	-999	PAL1	0	R1023J
1605.588	0.017	1918654	TEST_START	n/a	n/a	-999	-999	n/a	n/a	n/a	n/a	14	[0, 0, 0]	-999	PAL1	0	R1023J
1605.605	0.275	1918671	TEST_ORIENT	n/a	n/a	5	1	TOOL	PASS	SLEEVE	TOOL	14	[0, 0, 0]	-999	PAL1	0	R1023J
1606.557	4.0	1919623	TEST_PROBE	n/a	wordpools/wordpool_EN.txt	5	1	TOOL	PASS	SLEEVE	TOOL	14	[0, 0, 0]	-999	PAL1	0	R1023J
1606.557	2.199	1919623	REC_START	n/a	n/a	5	-999	n/a	PASS	n/a	n/a	14	[0, 0, 0]	-999	PAL1	0	R1023J
1608.756	2.824	1921822	REC_EVENT	2199.0	n/a	5	1	TOOL	PASS	SLEEVE	TOOL	14	[0, 0, 0]	-999	PAL1	0	R1023J
1611.58	0.018	1924646	REC_END	n/a	n/a	5	-999	n/a	n/a	n/a	n/a	14	[0, 0, 0]	-999	PAL1	0	R1023J
1611.598	0.275	1924664	TEST_ORIENT	n/a	n/a	4	2	FORT	KEY	FORT	KEY	14	[0, 0, 0]	-999	PAL1	0	R1023J
1612.55	4.0	1925616	TEST_PROBE	n/a	wordpools/wordpool_EN.txt	4	2	FORT	KEY	FORT	KEY	14	[0, 0, 0]	-999	PAL1	0	R1023J
1612.551	1.483	1925617	REC_START	n/a	n/a	4	-999	n/a	KEY	n/a	n/a	14	[0, 0, 0]	-999	PAL1	0	R1023J
1614.034	3.523	1927100	REC_EVENT	1483.0	n/a	4	2	FORT	KEY	FORT	KEY	14	[0, 0, 0]	-999	PAL1	0	R1023J
1617.557	0.035	1930623	REC_END	n/a	n/a	4	-999	n/a	n/a	n/a	n/a	14	[0, 0, 0]	-999	PAL1	0	R1023J
1617.592	0.275	1930658	TEST_ORIENT	n/a	n/a	1	3	FAN	PASS	SNAKE	FAN	14	[0, 0, 0]	-999	PAL1	0	R1023J
1618.51	4.0	1931576	TEST_PROBE	n/a	wordpools/wordpool_EN.txt	1	3	FAN	PASS	SNAKE	FAN	14	[0, 0, 0]	-999	PAL1	0	R1023J
1618.51	2.544	1931576	REC_START	n/a	n/a	1	-999	n/a	PASS	n/a	n/a	14	[0, 0, 0]	-999	PAL1	0	R1023J
1621.054	2.479	1934120	REC_EVENT	2544.0	n/a	1	3	FAN	PASS	SNAKE	FAN	14	[0, 0, 0]	-999	PAL1	0	R1023J
1623.533	0.019	1936598	REC_END	n/a	n/a	1	-999	n/a	n/a	n/a	n/a	14	[0, 0, 0]	-999	PAL1	0	R1023J
1623.552	0.275	1936617	TEST_ORIENT	n/a	n/a	6	4	ARK	OAK	ARK	OAK	14	[0, 0, 0]	-999	PAL1	0	R1023J
1624.437	4.0	1937502	TEST_PROBE	n/a	wordpools/wordpool_EN.txt	6	4	ARK	OAK	ARK	OAK	14	[0, 0, 0]	-999	PAL1	0	R1023J
1624.437	1.323	1937502	REC_START	n/a	n/a	6	-999	n/a	OAK	n/a	n/a	14	[0, 0, 0]	-999	PAL1	0	R1023J
1625.76	3.7	1938825	REC_EVENT	1323.0	n/a	6	4	ARK	OAK	ARK	OAK	14	[0, 0, 0]	-999	PAL1	0	R1023J
1629.46	0.018	1942525	REC_END	n/a	n/a	6	-999	n/a	n/a	n/a	n/a	14	[0, 0, 0]	-999	PAL1	0	R1023J
1629.478	0.275	1942543	TEST_ORIENT	n/a	n/a	3	5	PURSE	PASS	PURSE	PASTE	14	[0, 0, 0]	-999	PAL1	0	R1023J
1630.397	4.0	1943462	TEST_PROBE	n/a	wordpools/wordpool_EN.txt	3	5	PURSE	PASS	PURSE	PASTE	14	[0, 0, 0]	-999	PAL1	0	R1023J
1630.397	2.848	1943462	REC_START	n/a	n/a	3	-999	n/a	PASS	n/a	n/a	14	[0, 0, 0]	-999	PAL1	0	R1023J
1633.245	2.175	1946310	REC_EVENT	2848.0	n/a	3	5	PURSE	PASS	PURSE	PASTE	14	[0, 0, 0]	-999	PAL1	0	R1023J
1635.42	0.018	1948485	REC_END	n/a	n/a	3	-999	n/a	n/a	n/a	n/a	14	[0, 0, 0]	-999	PAL1	0	R1023J
1635.438	0.275	1948503	TEST_ORIENT	n/a	n/a	2	6	STRING	PASS	STRING	DEER	14	[0, 0, 0]	-999	PAL1	0	R1023J
1636.44	4.0	1949505	TEST_PROBE	n/a	wordpools/wordpool_EN.txt	2	6	STRING	PASS	STRING	DEER	14	[0, 0, 0]	-999	PAL1	0	R1023J
1636.441	2.122	1949506	REC_START	n/a	n/a	2	-999	n/a	PASS	n/a	n/a	14	[0, 0, 0]	-999	PAL1	0	R1023J
1638.563	2.899	1951628	REC_EVENT	2122.0	n/a	2	6	STRING	PASS	STRING	DEER	14	[0, 0, 0]	-999	PAL1	0	R1023J
1641.462	3.254	1954527	REC_END	n/a	n/a	2	-999	n/a	n/a	n/a	n/a	14	[0, 0, 0]	-999	PAL1	0	R1023J
1644.716	10.455	1957781	ENCODING_START	n/a	n/a	0	-999	n/a	n/a	n/a	n/a	15	[0, 0, 0]	-999	PAL1	0	R1023J
1655.171	0.275	1968235	STUDY_ORIENT	n/a	n/a	1	1	FARM	PASS	FARM	CLIFF	15	[0, 0, 0]	-999	PAL1	0	R1023J
1656.156	4.0	1969220	STUDY_PAIR	n/a	wordpools/wordpool_EN.txt	1	1	FARM	PASS	FARM	CLIFF	15	[0, 0, 0]	-999	PAL1	0	R1023J
1661.181	0.275	1974245	STUDY_ORIENT	n/a	n/a	2	4	BRUSH	SLIME	BRUSH	SLIME	15	[0, 0, 0]	-999	PAL1	0	R1023J
1661.982	4.0	1975046	STUDY_PAIR	n/a	wordpools/wordpool_EN.txt	2	4	BRUSH	SLIME	BRUSH	SLIME	15	[0, 0, 0]	-999	PAL1	0	R1023J
1667.007	0.275	1980071	STUDY_ORIENT	n/a	n/a	3	3	TOAST	DUCK	DUCK	TOAST	15	[0, 0, 0]	-999	PAL1	0	R1023J
1667.809	4.0	1980873	STUDY_PAIR	n/a	wordpools/wordpool_EN.txt	3	3	TOAST	DUCK	DUCK	TOAST	15	[0, 0, 0]	-999	PAL1	0	R1023J
1672.834	0.275	1985898	STUDY_ORIENT	n/a	n/a	4	2	PARK	PASS	CAGE	PARK	15	[0, 0, 0]	-999	PAL1	0	R1023J
1673.819	4.0	1986883	STUDY_PAIR	n/a	wordpools/wordpool_EN.txt	4	2	PARK	PASS	CAGE	PARK	15	[0, 0, 0]	-999	PAL1	0	R1023J
1678.844	0.275	1991907	STUDY_ORIENT	n/a	n/a	5	5	STONE	PASS	VINE	STONE	15	[0, 0, 0]	-999	PAL1	0	R1023J
1679.729	4.0	1992792	STUDY_PAIR	n/a	wordpools/wordpool_EN.txt	5	5	STONE	PASS	VINE	STONE	15	[0, 0, 0]	-999	PAL1	0	R1023J
1684.754	0.275	1997817	STUDY_ORIENT	n/a	n/a	6	6	BATH	PASS	BATH	PEARL	15	[0, 0, 0]	-999	PAL1	0	R1023J
1685.772	4.0	1998835	STUDY_PAIR	n/a	wordpools/wordpool_EN.txt	6	6	BATH	PASS	BATH	PEARL	15	[0, 0, 0]	-999	PAL1	0	R1023J
1689.781	0.999	2002844	START	n/a	n/a	-999	-999	n/a	n/a	n/a	n/a	15	[-999, -999, -999]	-999	PAL1	0	R1023J
1690.78	0.017	2003843	MATH_START	n/a	n/a	-999	-999	n/a	n/a	n/a	n/a	15	[0, 0, 0]	-999	PAL1	0	R1023J
1690.797	4.793	2003860	PROB	4768.0	n/a	-999	-999	n/a	n/a	n/a	n/a	15	[2, 9, 5]	16	PAL1	0	R1023J
1695.59	4.908	2008653	PROB	4880.0	n/a	-999	-999	n/a	n/a	n/a	n/a	15	[1, 6, 9]	16	PAL1	0	R1023J
1700.498	4.657	2013561	PROB	4634.0	n/a	-999	-999	n/a	n/a	n/a	n/a	15	[3, 3, 5]	11	PAL1	0	R1023J
1705.155	6.539	2018218	PROB	6539.0	n/a	-999	-999	n/a	n/a	n/a	n/a	15	[6, 8, 1]	15	PAL1	0	R1023J
1711.694	0.006	2024756	STOP	n/a	n/a	-999	-999	n/a	n/a	n/a	n/a	15	[-999, -999, -999]	-999	PAL1	0	R1023J
1711.7	0.0	2024762	MATH_END	n/a	n/a	-999	-999	n/a	n/a	n/a	n/a	15	[0, 0, 0]	-999	PAL1	0	R1023J
1711.7	0.016	2024762	TEST_START	n/a	n/a	-999	-999	n/a	n/a	n/a	n/a	15	[0, 0, 0]	-999	PAL1	0	R1023J
1711.716	0.275	2024778	TEST_ORIENT	n/a	n/a	1	1	FARM	PASS	FARM	CLIFF	15	[0, 0, 0]	-999	PAL1	0	R1023J
1712.551	4.0	2025613	TEST_PROBE	n/a	wordpools/wordpool_EN.txt	1	1	FARM	PASS	FARM	CLIFF	15	[0, 0, 0]	-999	PAL1	0	R1023J
1712.552	2.247	2025614	REC_START	n/a	n/a	1	-999	n/a	PASS	n/a	n/a	15	[0, 0, 0]	-999	PAL1	0	R1023J
1714.799	2.774	2027861	REC_EVENT	2247.0	n/a	1	1	FARM	PASS	FARM	CLIFF	15	[0, 0, 0]	-999	PAL1	0	R1023J
1717.573	0.02	2030635	REC_END	n/a	n/a	1	-999	n/a	n/a	n/a	n/a	15	[0, 0, 0]	-999	PAL1	0	R1023J
1717.593	0.275	2030655	TEST_ORIENT	n/a	n/a	4	2	PARK	PASS	CAGE	PARK	15	[0, 0, 0]	-999	PAL1	0	R1023J
1718.461	4.0	2031523	TEST_PROBE	n/a	wordpools/wordpool_EN.txt	4	2	PARK	PASS	CAGE	PARK	15	[0, 0, 0]	-999	PAL1	0	R1023J
1718.462	2.298	2031524	REC_START	n/a	n/a	4	-999	n/a	PASS	n/a	n/a	15	[0, 0, 0]	-999	PAL1	0	R1023J
1720.76	2.723	2033822	REC_EVENT	2298.0	n/a	4	2	PARK	PASS	CAGE	PARK	15	[0, 0, 0]	-999	PAL1	0	R1023J
1723.483	0.02	2036545	REC_END	n/a	n/a	4	-999	n/a	n/a	n/a	n/a	15	[0, 0, 0]	-999	PAL1	0	R1023J
1723.503	0.275	2036565	TEST_ORIENT	n/a	n/a	3	3	TOAST	DUCK	DUCK	TOAST	15	[0, 0, 0]	-999	PAL1	0	R1023J
1724.338	4.0	2037400	TEST_PROBE	n/a	wordpools/wordpool_EN.txt	3	3	TOAST	DUCK	DUCK	TOAST	15	[0, 0, 0]	-999	PAL1	0	R1023J
1724.338	1.66	2037400	REC_START	n/a	n/a	3	-999	n/a	DUCK	n/a	n/a	15	[0, 0, 0]	-999	PAL1	0	R1023J
1725.998	3.364	2039060	REC_EVENT	1660.0	n/a	3	3	TOAST	DUCK	DUCK	TOAST	15	[0, 0, 0]	-999	PAL1	0	R1023J
1729.362	0.018	2042424	REC_END	n/a	n/a	3	-999	n/a	n/a	n/a	n/a	15	[0, 0, 0]	-999	PAL1	0	R1023J
1729.38	0.275	2042442	TEST_ORIENT	n/a	n/a	2	4	BRUSH	SLIME	BRUSH	SLIME	15	[0, 0, 0]	-999	PAL1	0	R1023J
1730.331	4.0	2043393	TEST_PROBE	n/a	wordpools/wordpool_EN.txt	2	4	BRUSH	SLIME	BRUSH	SLIME	15	[0, 0, 0]	-999	PAL1	0	R1023J
1730.332	1.554	2043394	REC_START	n/a	n/a	2	-999	n/a	SLIME	n/a	n/a	15	[0, 0, 0]	-999	PAL1	0	R1023J
1731.886	3.468	2044948	REC_EVENT	1554.0	n/a	2	4	BRUSH	SLIME	BRUSH	SLIME	15	[0, 0, 0]	-999	PAL1	0	R1023J
1735.354	0.019	2048415	REC_END	n/a	n/a	2	-999	n/a	n/a	n/a	n/a	15	[0, 0, 0]	-999	PAL1	0	R1023J
1735.373	0.275	2048434	TEST_ORIENT	n/a	n/a	5	5	STONE	PASS	VINE	STONE	15	[0, 0, 0]	-999	PAL1	0	R1023J
1736.358	4.0	2049419	TEST_PROBE	n/a	wordpools/wordpool_EN.txt	5	5	STONE	PASS	VINE	STONE	15	[0, 0, 0]	-999	PAL1	0	R1023J
1736.359	3.003	2049420	REC_START	n/a	n/a	5	-999	n/a	PASS	n/a	n/a	15	[0, 0, 0]	-999	PAL1	0	R1023J
1739.362	2.018	2052423	REC_EVENT	3003.0	n/a	5	5	STONE	PASS	VINE	STONE	15	[0, 0, 0]	-999	PAL1	0	R1023J
1741.38	0.02	2054441	REC_END	n/a	n/a	5	-999	n/a	n/a	n/a	n/a	15	[0, 0, 0]	-999	PAL1	0	R1023J
1741.4	0.275	2054461	TEST_ORIENT	n/a	n/a	6	6	BATH	PASS	BATH	PEARL	15	[0, 0, 0]	-999	PAL1	0	R1023J
1742.352	4.0	2055413	TEST_PROBE	n/a	wordpools/wordpool_EN.txt	6	6	BATH	PASS	BATH	PEARL	15	[0, 0, 0]	-999	PAL1	0	R1023J
1742.352	2.796	2055413	REC_START	n/a	n/a	6	-999	n/a	PASS	n/a	n/a	15	[0, 0, 0]	-999	PAL1	0	R1023J
1745.148	2.227	2058209	REC_EVENT	2796.0	n/a	6	6	BATH	PASS	BATH	PEARL	15	[0, 0, 0]	-999	PAL1	0	R1023J
1747.375	3.934	2060436	REC_END	n/a	n/a	6	-999	n/a	n/a	n/a	n/a	15	[0, 0, 0]	-999	PAL1	0	R1023J
1751.309	10.441	2064370	ENCODING_START	n/a	n/a	0	-999	n/a	n/a	n/a	n/a	16	[0, 0, 0]	-999	PAL1	0	R1023J
1761.75	0.275	2074811	STUDY_ORIENT	n/a	n/a	1	1	AXE	PIG	PIG	AXE	16	[0, 0, 0]	-999	PAL1	0	R1023J
1762.703	4.0	2075763	STUDY_PAIR	n/a	wordpools/wordpool_EN.txt	1	1	AXE	PIG	PIG	AXE	16	[0, 0, 0]	-999	PAL1	0	R1023J
1767.727	0.275	2080787	STUDY_ORIENT	n/a	n/a	2	6	STEAM	PASS	STEAM	MOUSE	16	[0, 0, 0]	-999	PAL1	0	R1023J
1768.663	4.0	2081723	STUDY_PAIR	n/a	wordpools/wordpool_EN.txt	2	6	STEAM	PASS	STEAM	MOUSE	16	[0, 0, 0]	-999	PAL1	0	R1023J
1773.688	0.275	2086748	STUDY_ORIENT	n/a	n/a	3	5	BRICK	PASS	DRUM	BRICK	16	[0, 0, 0]	-999	PAL1	0	R1023J
1774.472	4.0	2087532	STUDY_PAIR	n/a	wordpools/wordpool_EN.txt	3	5	BRICK	PASS	DRUM	BRICK	16	[0, 0, 0]	-999	PAL1	0	R1023J
1779.497	0.275	2092557	STUDY_ORIENT	n/a	n/a	4	4	CASH	n/a	BENCH	CASH	16	[0, 0, 0]	-999	PAL1	0	R1023J
1780.332	4.0	2093392	STUDY_PAIR	n/a	wordpools/wordpool_EN.txt	4	4	CASH	n/a	BENCH	CASH	16	[0, 0, 0]	-999	PAL1	0	R1023J
1785.357	0.275	2098417	STUDY_ORIENT	n/a	n/a	5	3	MOON	PASS	ROOF	MOON	16	[0, 0, 0]	-999	PAL1	0	R1023J
1786.192	4.0	2099252	STUDY_PAIR	n/a	wordpools/wordpool_EN.txt	5	3	MOON	PASS	ROOF	MOON	16	[0, 0, 0]	-999	PAL1	0	R1023J
1791.216	0.275	2104275	STUDY_ORIENT	n/a	n/a	6	2	FILM	PASS	FILM	JAR	16	[0, 0, 0]	-999	PAL1	0	R1023J
1792.201	4.0	2105260	STUDY_PAIR	n/a	wordpools/wordpool_EN.txt	6	2	FILM	PASS	FILM	JAR	16	[0, 0, 0]	-999	PAL1	0	R1023J
1796.21	0.999	2109269	START	n/a	n/a	-999	-999	n/a	n/a	n/a	n/a	16	[-999, -999, -999]	-999	PAL1	0	R1023J
1797.209	0.017	2110268	MATH_START	n/a	n/a	-999	-999	n/a	n/a	n/a	n/a	16	[0, 0, 0]	-999	PAL1	0	R1023J
1797.226	6.595	2110285	PROB	6563.0	n/a	-999	-999	n/a	n/a	n/a	n/a	16	[5, 8, 1]	13	PAL1	0	R1023J
1803.821	6.06	2116880	PROB	6023.0	n/a	-999	-999	n/a	n/a	n/a	n/a	16	[3, 1, 1]	5	PAL1	0	R1023J
1809.881	7.828	2122940	PROB	7828.0	n/a	-999	-999	n/a	n/a	n/a	n/a	16	[5, 3, 7]	15	PAL1	0	R1023J
1817.709	0.018	2130768	STOP	n/a	n/a	-999	-999	n/a	n/a	n/a	n/a	16	[-999, -999, -999]	-999	PAL1	0	R1023J
1817.727	0.0	2130786	MATH_END	n/a	n/a	-999	-999	n/a	n/a	n/a	n/a	16	[0, 0, 0]	-999	PAL1	0	R1023J
1817.727	0.017	2130786	TEST_START	n/a	n/a	-999	-999	n/a	n/a	n/a	n/a	16	[0, 0, 0]	-999	PAL1	0	R1023J
1817.744	0.275	2130803	TEST_ORIENT	n/a	n/a	1	1	AXE	PIG	PIG	AXE	16	[0, 0, 0]	-999	PAL1	0	R1023J
1818.63	4.0	2131688	TEST_PROBE	n/a	wordpools/wordpool_EN.txt	1	1	AXE	PIG	PIG	AXE	16	[0, 0, 0]	-999	PAL1	0	R1023J
1818.63	4.316	2131688	REC_START	n/a	n/a	1	-999	n/a	PIG	n/a	n/a	16	[0, 0, 0]	-999	PAL1	0	R1023J
1822.946	0.707	2136004	REC_EVENT	4316.0	n/a	1	1	AXE	PIG	PIG	AXE	16	[0, 0, 0]	-999	PAL1	0	R1023J
1823.653	0.019	2136711	REC_END	n/a	n/a	1	-999	n/a	n/a	n/a	n/a	16	[0, 0, 0]	-999	PAL1	0	R1023J
1823.672	0.275	2136730	TEST_ORIENT	n/a	n/a	6	2	FILM	PASS	FILM	JAR	16	[0, 0, 0]	-999	PAL1	0	R1023J
1824.573	4.0	2137631	TEST_PROBE	n/a	wordpools/wordpool_EN.txt	6	2	FILM	PASS	FILM	JAR	16	[0, 0, 0]	-999	PAL1	0	R1023J
1824.574	1.348	2137632	REC_START	n/a	n/a	6	-999	n/a	PASS	n/a	n/a	16	[0, 0, 0]	-999	PAL1	0	R1023J
1825.922	3.673	2138980	REC_EVENT	1348.0	n/a	6	2	FILM	PASS	FILM	JAR	16	[0, 0, 0]	-999	PAL1	0	R1023J
1829.595	0.02	2142653	REC_END	n/a	n/a	6	-999	n/a	n/a	n/a	n/a	16	[0, 0, 0]	-999	PAL1	0	R1023J
1829.615	0.275	2142673	TEST_ORIENT	n/a	n/a	5	3	MOON	PASS	ROOF	MOON	16	[0, 0, 0]	-999	PAL1	0	R1023J
1830.583	4.0	2143641	TEST_PROBE	n/a	wordpools/wordpool_EN.txt	5	3	MOON	PASS	ROOF	MOON	16	[0, 0, 0]	-999	PAL1	0	R1023J
1830.584	2.163	2143642	REC_START	n/a	n/a	5	-999	n/a	PASS	n/a	n/a	16	[0, 0, 0]	-999	PAL1	0	R1023J
1832.747	2.858	2145805	REC_EVENT	2163.0	n/a	5	3	MOON	PASS	ROOF	MOON	16	[0, 0, 0]	-999	PAL1	0	R1023J
1835.605	0.02	2148663	REC_END	n/a	n/a	5	-999	n/a	n/a	n/a	n/a	16	[0, 0, 0]	-999	PAL1	0	R1023J
1835.625	0.275	2148683	TEST_ORIENT	n/a	n/a	4	4	CASH	n/a	BENCH	CASH	16	[0, 0, 0]	-999	PAL1	0	R1023J
1836.477	4.0	2149535	TEST_PROBE	n/a	wordpools/wordpool_EN.txt	4	4	CASH	n/a	BENCH	CASH	16	[0, 0, 0]	-999	PAL1	0	R1023J
1836.477	1.159	2149535	REC_START	n/a	n/a	4	-999	n/a	n/a	n/a	n/a	16	[0, 0, 0]	-999	PAL1	0	R1023J
1837.636	3.847	2150694	REC_EVENT	1159.0	n/a	4	4	CASH	<>	BENCH	CASH	16	[0, 0, 0]	-999	PAL1	0	R1023J
1841.483	0.035	2154541	REC_END	n/a	n/a	4	-999	n/a	n/a	n/a	n/a	16	[0, 0, 0]	-999	PAL1	0	R1023J
1841.518	0.275	2154576	TEST_ORIENT	n/a	n/a	3	5	BRICK	PASS	DRUM	BRICK	16	[0, 0, 0]	-999	PAL1	0	R1023J
1842.336	4.0	2155394	TEST_PROBE	n/a	wordpools/wordpool_EN.txt	3	5	BRICK	PASS	DRUM	BRICK	16	[0, 0, 0]	-999	PAL1	0	R1023J
1842.337	3.125	2155395	REC_START	n/a	n/a	3	-999	n/a	PASS	n/a	n/a	16	[0, 0, 0]	-999	PAL1	0	R1023J
1845.462	1.881	2158520	REC_EVENT	3125.0	n/a	3	5	BRICK	PASS	DRUM	BRICK	16	[0, 0, 0]	-999	PAL1	0	R1023J
1847.343	0.035	2160400	REC_END	n/a	n/a	3	-999	n/a	n/a	n/a	n/a	16	[0, 0, 0]	-999	PAL1	0	R1023J
1847.378	0.275	2160435	TEST_ORIENT	n/a	n/a	2	6	STEAM	PASS	STEAM	MOUSE	16	[0, 0, 0]	-999	PAL1	0	R1023J
1848.229	4.0	2161286	TEST_PROBE	n/a	wordpools/wordpool_EN.txt	2	6	STEAM	PASS	STEAM	MOUSE	16	[0, 0, 0]	-999	PAL1	0	R1023J
1848.229	1.338	2161286	REC_START	n/a	n/a	2	-999	n/a	PASS	n/a	n/a	16	[0, 0, 0]	-999	PAL1	0	R1023J
1849.567	3.685	2162624	REC_EVENT	1338.0	n/a	2	6	STEAM	PASS	STEAM	MOUSE	16	[0, 0, 0]	-999	PAL1	0	R1023J
1853.252	2.089	2166309	REC_END	n/a	n/a	2	-999	n/a	n/a	n/a	n/a	16	[0, 0, 0]	-999	PAL1	0	R1023J
1855.341	10.451	2168398	ENCODING_START	n/a	n/a	0	-999	n/a	n/a	n/a	n/a	17	[0, 0, 0]	-999	PAL1	0	R1023J
1865.792	0.275	2178849	STUDY_ORIENT	n/a	n/a	1	3	FOAM	WHEEL	FOAM	WHEEL	17	[0, 0, 0]	-999	PAL1	0	R1023J
1866.726	4.0	2179783	STUDY_PAIR	n/a	wordpools/wordpool_EN.txt	1	3	FOAM	WHEEL	FOAM	WHEEL	17	[0, 0, 0]	-999	PAL1	0	R1023J
1871.752	0.275	2184809	STUDY_ORIENT	n/a	n/a	2	4	PRINCE	SWAMP	PRINCE	SWAMP	17	[0, 0, 0]	-999	PAL1	0	R1023J
1872.537	4.0	2185594	STUDY_PAIR	n/a	wordpools/wordpool_EN.txt	2	4	PRINCE	SWAMP	PRINCE	SWAMP	17	[0, 0, 0]	-999	PAL1	0	R1023J
1877.562	0.275	2190618	STUDY_ORIENT	n/a	n/a	3	1	SEA	PASS	SEA	BOWL	17	[0, 0, 0]	-999	PAL1	0	R1023J
1878.397	4.0	2191453	STUDY_PAIR	n/a	wordpools/wordpool_EN.txt	3	1	SEA	PASS	SEA	BOWL	17	[0, 0, 0]	-999	PAL1	0	R1023J
1883.422	0.275	2196478	STUDY_ORIENT	n/a	n/a	4	6	PEAR	PASS	MAT	PEAR	17	[0, 0, 0]	-999	PAL1	0	R1023J
1884.374	4.0	2197430	STUDY_PAIR	n/a	wordpools/wordpool_EN.txt	4	6	PEAR	PASS	MAT	PEAR	17	[0, 0, 0]	-999	PAL1	0	R1023J
1889.399	0.275	2202455	STUDY_ORIENT	n/a	n/a	5	5	BLUSH	TOOTH	BLUSH	TOOTH	17	[0, 0, 0]	-999	PAL1	0	R1023J
1890.3	4.0	2203356	STUDY_PAIR	n/a	wordpools/wordpool_EN.txt	5	5	BLUSH	TOOTH	BLUSH	TOOTH	17	[0, 0, 0]	-999	PAL1	0	R1023J
1895.326	0.275	2208382	STUDY_ORIENT	n/a	n/a	6	2	SHARK	HAND	SHARK	HAND	17	[0, 0, 0]	-999	PAL1	0	R1023J
1896.159	4.0	2209215	STUDY_PAIR	n/a	wordpools/wordpool_EN.txt	6	2	SHARK	HAND	SHARK	HAND	17	[0, 0, 0]	-999	PAL1	0	R1023J
1900.168	0.999	2213224	START	n/a	n/a	-999	-999	n/a	n/a	n/a	n/a	17	[-999, -999, -999]	-999	PAL1	0	R1023J
1901.167	0.018	2214223	MATH_START	n/a	n/a	-999	-999	n/a	n/a	n/a	n/a	17	[0, 0, 0]	-999	PAL1	0	R1023J
1901.185	5.309	2214241	PROB	5277.0	n/a	-999	-999	n/a	n/a	n/a	n/a	17	[1, 7, 9]	17	PAL1	0	R1023J
1906.494	4.892	2219549	PROB	4856.0	n/a	-999	-999	n/a	n/a	n/a	n/a	17	[8, 1, 9]	18	PAL1	0	R1023J
1911.386	7.712	2224441	PROB	7675.0	n/a	-999	-999	n/a	n/a	n/a	n/a	17	[6, 2, 6]	14	PAL1	0	R1023J
1919.098	7.507	2232153	PROB	7507.0	n/a	-999	-999	n/a	n/a	n/a	n/a	17	[4, 3, 5]	12	PAL1	0	R1023J
1926.605	0.007	2239660	STOP	n/a	n/a	-999	-999	n/a	n/a	n/a	n/a	17	[-999, -999, -999]	-999	PAL1	0	R1023J
1926.612	0.0	2239667	MATH_END	n/a	n/a	-999	-999	n/a	n/a	n/a	n/a	17	[0, 0, 0]	-999	PAL1	0	R1023J
1926.612	0.016	2239667	TEST_START	n/a	n/a	-999	-999	n/a	n/a	n/a	n/a	17	[0, 0, 0]	-999	PAL1	0	R1023J
1926.628	0.275	2239683	TEST_ORIENT	n/a	n/a	3	1	SEA	PASS	SEA	BOWL	17	[0, 0, 0]	-999	PAL1	0	R1023J
1927.546	4.0	2240601	TEST_PROBE	n/a	wordpools/wordpool_EN.txt	3	1	SEA	PASS	SEA	BOWL	17	[0, 0, 0]	-999	PAL1	0	R1023J
1927.547	1.24	2240602	REC_START	n/a	n/a	3	-999	n/a	PASS	n/a	n/a	17	[0, 0, 0]	-999	PAL1	0	R1023J
1928.787	3.767	2241842	REC_EVENT	1240.0	n/a	3	1	SEA	PASS	SEA	BOWL	17	[0, 0, 0]	-999	PAL1	0	R1023J
1932.554	0.034	2245608	REC_END	n/a	n/a	3	-999	n/a	n/a	n/a	n/a	17	[0, 0, 0]	-999	PAL1	0	R1023J
1932.588	0.275	2245642	TEST_ORIENT	n/a	n/a	6	2	SHARK	HAND	SHARK	HAND	17	[0, 0, 0]	-999	PAL1	0	R1023J
1933.607	4.0	2246661	TEST_PROBE	n/a	wordpools/wordpool_EN.txt	6	2	SHARK	HAND	SHARK	HAND	17	[0, 0, 0]	-999	PAL1	0	R1023J
1933.607	1.149	2246661	REC_START	n/a	n/a	6	-999	n/a	HAND	n/a	n/a	17	[0, 0, 0]	-999	PAL1	0	R1023J
1934.756	3.874	2247810	REC_EVENT	1149.0	n/a	6	2	SHARK	HAND	SHARK	HAND	17	[0, 0, 0]	-999	PAL1	0	R1023J
1938.63	0.018	2251684	REC_END	n/a	n/a	6	-999	n/a	n/a	n/a	n/a	17	[0, 0, 0]	-999	PAL1	0	R1023J
1938.648	0.275	2251702	TEST_ORIENT	n/a	n/a	1	3	FOAM	WHEEL	FOAM	WHEEL	17	[0, 0, 0]	-999	PAL1	0	R1023J
1939.583	4.0	2252637	TEST_PROBE	n/a	wordpools/wordpool_EN.txt	1	3	FOAM	WHEEL	FOAM	WHEEL	17	[0, 0, 0]	-999	PAL1	0	R1023J
1939.584	1.9	2252638	REC_START	n/a	n/a	1	-999	n/a	WHEEL	n/a	n/a	17	[0, 0, 0]	-999	PAL1	0	R1023J
1941.484	3.106	2254538	REC_EVENT	1900.0	n/a	1	3	FOAM	WHEEL	FOAM	WHEEL	17	[0, 0, 0]	-999	PAL1	0	R1023J
1944.59	0.035	2257644	REC_END	n/a	n/a	1	-999	n/a	n/a	n/a	n/a	17	[0, 0, 0]	-999	PAL1	0	R1023J
1944.625	0.275	2257679	TEST_ORIENT	n/a	n/a	2	4	PRINCE	SWAMP	PRINCE	SWAMP	17	[0, 0, 0]	-999	PAL1	0	R1023J
1945.543	4.0	2258597	TEST_PROBE	n/a	wordpools/wordpool_EN.txt	2	4	PRINCE	SWAMP	PRINCE	SWAMP	17	[0, 0, 0]	-999	PAL1	0	R1023J
1945.544	2.57	2258598	REC_START	n/a	n/a	2	-999	n/a	SWAMP	n/a	n/a	17	[0, 0, 0]	-999	PAL1	0	R1023J
1948.114	2.451	2261168	REC_EVENT	2570.0	n/a	2	4	PRINCE	SWAMP	PRINCE	SWAMP	17	[0, 0, 0]	-999	PAL1	0	R1023J
1950.565	0.02	2263619	REC_END	n/a	n/a	2	-999	n/a	n/a	n/a	n/a	17	[0, 0, 0]	-999	PAL1	0	R1023J
1950.585	0.275	2263639	TEST_ORIENT	n/a	n/a	5	5	BLUSH	TOOTH	BLUSH	TOOTH	17	[0, 0, 0]	-999	PAL1	0	R1023J
1951.437	0.0	2264491	REC_START	n/a	n/a	5	-999	n/a	TOOTH	n/a	n/a	17	[0, 0, 0]	-999	PAL1	0	R1023J
1951.437	4.0	2264491	TEST_PROBE	n/a	wordpools/wordpool_EN.txt	5	5	BLUSH	TOOTH	BLUSH	TOOTH	17	[0, 0, 0]	-999	PAL1	0	R1023J
1953.663	2.797	2266717	REC_EVENT	2226.0	n/a	5	5	BLUSH	TOOTH	BLUSH	TOOTH	17	[0, 0, 0]	-999	PAL1	0	R1023J
1956.46	0.018	2269514	REC_END	n/a	n/a	5	-999	n/a	n/a	n/a	n/a	17	[0, 0, 0]	-999	PAL1	0	R1023J
1956.478	0.275	2269532	TEST_ORIENT	n/a	n/a	4	6	PEAR	PASS	MAT	PEAR	17	[0, 0, 0]	-999	PAL1	0	R1023J
1957.413	4.0	2270467	TEST_PROBE	n/a	wordpools/wordpool_EN.txt	4	6	PEAR	PASS	MAT	PEAR	17	[0, 0, 0]	-999	PAL1	0	R1023J
1957.414	1.617	2270468	REC_START	n/a	n/a	4	-999	n/a	PASS	n/a	n/a	17	[0, 0, 0]	-999	PAL1	0	R1023J
1959.031	3.389	2272084	REC_EVENT	1617.0	n/a	4	6	PEAR	PASS	MAT	PEAR	17	[0, 0, 0]	-999	PAL1	0	R1023J
1962.42	4.857	2275473	REC_END	n/a	n/a	4	-999	n/a	n/a	n/a	n/a	17	[0, 0, 0]	-999	PAL1	0	R1023J
1967.277	10.453	2280330	ENCODING_START	n/a	n/a	0	-999	n/a	n/a	n/a	n/a	18	[0, 0, 0]	-999	PAL1	0	R1023J
1977.73	0.275	2290783	STUDY_ORIENT	n/a	n/a	1	1	HOUSE	MOTH	HOUSE	MOTH	18	[0, 0, 0]	-999	PAL1	0	R1023J
1978.515	4.0	2291568	STUDY_PAIR	n/a	wordpools/wordpool_EN.txt	1	1	HOUSE	MOTH	HOUSE	MOTH	18	[0, 0, 0]	-999	PAL1	0	R1023J
1983.541	0.275	2296594	STUDY_ORIENT	n/a	n/a	2	4	NET	PASS	RICE	NET	18	[0, 0, 0]	-999	PAL1	0	R1023J
1984.442	4.0	2297495	STUDY_PAIR	n/a	wordpools/wordpool_EN.txt	2	4	NET	PASS	RICE	NET	18	[0, 0, 0]	-999	PAL1	0	R1023J
1989.467	0.275	2302519	STUDY_ORIENT	n/a	n/a	3	3	BOOT	PASS	BOOT	TIE	18	[0, 0, 0]	-999	PAL1	0	R1023J
1990.285	4.0	2303337	STUDY_PAIR	n/a	wordpools/wordpool_EN.txt	3	3	BOOT	PASS	BOOT	TIE	18	[0, 0, 0]	-999	PAL1	0	R1023J
1995.31	0.275	2308362	STUDY_ORIENT	n/a	n/a	4	6	ANT	PASS	ANT	ROPE	18	[0, 0, 0]	-999	PAL1	0	R1023J
1996.094	4.0	2309146	STUDY_PAIR	n/a	wordpools/wordpool_EN.txt	4	6	ANT	PASS	ANT	ROPE	18	[0, 0, 0]	-999	PAL1	0	R1023J
2001.119	0.275	2314171	STUDY_ORIENT	n/a	n/a	5	5	INK	MUG	MUG	INK	18	[0, 0, 0]	-999	PAL1	0	R1023J
2001.937	4.0	2314989	STUDY_PAIR	n/a	wordpools/wordpool_EN.txt	5	5	INK	MUG	MUG	INK	18	[0, 0, 0]	-999	PAL1	0	R1023J
2006.962	0.275	2320014	STUDY_ORIENT	n/a	n/a	6	2	CRANE	WOLF	CRANE	WOLF	18	[0, 0, 0]	-999	PAL1	0	R1023J
2007.764	4.0	2320816	STUDY_PAIR	n/a	wordpools/wordpool_EN.txt	6	2	CRANE	WOLF	CRANE	WOLF	18	[0, 0, 0]	-999	PAL1	0	R1023J
2011.771	1.0	2324823	START	n/a	n/a	-999	-999	n/a	n/a	n/a	n/a	18	[-999, -999, -999]	-999	PAL1	0	R1023J
2012.771	0.018	2325823	MATH_START	n/a	n/a	-999	-999	n/a	n/a	n/a	n/a	18	[0, 0, 0]	-999	PAL1	0	R1023J
2012.789	7.262	2325841	PROB	7232.0	n/a	-999	-999	n/a	n/a	n/a	n/a	18	[8, 9, 5]	22	PAL1	0	R1023J
2020.051	4.758	2333102	PROB	4730.0	n/a	-999	-999	n/a	n/a	n/a	n/a	18	[7, 2, 3]	12	PAL1	0	R1023J
2024.809	8.565	2337860	PROB	8565.0	n/a	-999	-999	n/a	n/a	n/a	n/a	18	[6, 7, 3]	16	PAL1	0	R1023J
2033.374	0.017	2346425	STOP	n/a	n/a	-999	-999	n/a	n/a	n/a	n/a	18	[-999, -999, -999]	-999	PAL1	0	R1023J
2033.391	0.0	2346442	MATH_END	n/a	n/a	-999	-999	n/a	n/a	n/a	n/a	18	[0, 0, 0]	-999	PAL1	0	R1023J
2033.391	0.017	2346442	TEST_START	n/a	n/a	-999	-999	n/a	n/a	n/a	n/a	18	[0, 0, 0]	-999	PAL1	0	R1023J
2033.408	0.275	2346459	TEST_ORIENT	n/a	n/a	1	1	HOUSE	MOTH	HOUSE	MOTH	18	[0, 0, 0]	-999	PAL1	0	R1023J
2034.376	4.0	2347427	TEST_PROBE	n/a	wordpools/wordpool_EN.txt	1	1	HOUSE	MOTH	HOUSE	MOTH	18	[0, 0, 0]	-999	PAL1	0	R1023J
2034.377	1.176	2347428	REC_START	n/a	n/a	1	-999	n/a	MOTH	n/a	n/a	18	[0, 0, 0]	-999	PAL1	0	R1023J
2035.553	3.845	2348604	REC_EVENT	1176.0	n/a	1	1	HOUSE	MOTH	HOUSE	MOTH	18	[0, 0, 0]	-999	PAL1	0	R1023J
2039.398	0.02	2352449	REC_END	n/a	n/a	1	-999	n/a	n/a	n/a	n/a	18	[0, 0, 0]	-999	PAL1	0	R1023J
2039.418	0.275	2352469	TEST_ORIENT	n/a	n/a	6	2	CRANE	WOLF	CRANE	WOLF	18	[0, 0, 0]	-999	PAL1	0	R1023J
2040.369	4.0	2353420	TEST_PROBE	n/a	wordpools/wordpool_EN.txt	6	2	CRANE	WOLF	CRANE	WOLF	18	[0, 0, 0]	-999	PAL1	0	R1023J
2040.37	1.183	2353421	REC_START	n/a	n/a	6	-999	n/a	WOLF	n/a	n/a	18	[0, 0, 0]	-999	PAL1	0	R1023J
2041.553	3.838	2354604	REC_EVENT	1183.0	n/a	6	2	CRANE	WOLF	CRANE	WOLF	18	[0, 0, 0]	-999	PAL1	0	R1023J
2045.391	0.02	2358441	REC_END	n/a	n/a	6	-999	n/a	n/a	n/a	n/a	18	[0, 0, 0]	-999	PAL1	0	R1023J
2045.411	0.275	2358461	TEST_ORIENT	n/a	n/a	3	3	BOOT	PASS	BOOT	TIE	18	[0, 0, 0]	-999	PAL1	0	R1023J
2046.212	0.0	2359262	REC_START	n/a	n/a	3	-999	n/a	PASS	n/a	n/a	18	[0, 0, 0]	-999	PAL1	0	R1023J
2046.212	4.0	2359262	TEST_PROBE	n/a	wordpools/wordpool_EN.txt	3	3	BOOT	PASS	BOOT	TIE	18	[0, 0, 0]	-999	PAL1	0	R1023J
2048.361	2.874	2361411	REC_EVENT	2149.0	n/a	3	3	BOOT	PASS	BOOT	TIE	18	[0, 0, 0]	-999	PAL1	0	R1023J
2051.235	0.02	2364285	REC_END	n/a	n/a	3	-999	n/a	n/a	n/a	n/a	18	[0, 0, 0]	-999	PAL1	0	R1023J
2051.255	0.275	2364305	TEST_ORIENT	n/a	n/a	2	4	NET	PASS	RICE	NET	18	[0, 0, 0]	-999	PAL1	0	R1023J
2052.072	4.0	2365122	TEST_PROBE	n/a	wordpools/wordpool_EN.txt	2	4	NET	PASS	RICE	NET	18	[0, 0, 0]	-999	PAL1	0	R1023J
2052.072	2.255	2365122	REC_START	n/a	n/a	2	-999	n/a	PASS	n/a	n/a	18	[0, 0, 0]	-999	PAL1	0	R1023J
2054.327	2.769	2367377	REC_EVENT	2255.0	n/a	2	4	NET	PASS	RICE	NET	18	[0, 0, 0]	-999	PAL1	0	R1023J
2057.096	0.017	2370146	REC_END	n/a	n/a	2	-999	n/a	n/a	n/a	n/a	18	[0, 0, 0]	-999	PAL1	0	R1023J
2057.113	0.275	2370163	TEST_ORIENT	n/a	n/a	5	5	INK	MUG	MUG	INK	18	[0, 0, 0]	-999	PAL1	0	R1023J
2057.948	4.0	2370998	TEST_PROBE	n/a	wordpools/wordpool_EN.txt	5	5	INK	MUG	MUG	INK	18	[0, 0, 0]	-999	PAL1	0	R1023J
2057.949	2.03	2370999	REC_START	n/a	n/a	5	-999	n/a	MUG	n/a	n/a	18	[0, 0, 0]	-999	PAL1	0	R1023J
2059.979	2.976	2373029	REC_EVENT	2030.0	n/a	5	5	INK	MUG	MUG	INK	18	[0, 0, 0]	-999	PAL1	0	R1023J
2062.955	0.035	2376005	REC_END	n/a	n/a	5	-999	n/a	n/a	n/a	n/a	18	[0, 0, 0]	-999	PAL1	0	R1023J
2062.99	0.275	2376040	TEST_ORIENT	n/a	n/a	4	6	ANT	PASS	ANT	ROPE	18	[0, 0, 0]	-999	PAL1	0	R1023J
2063.875	4.0	2376925	TEST_PROBE	n/a	wordpools/wordpool_EN.txt	4	6	ANT	PASS	ANT	ROPE	18	[0, 0, 0]	-999	PAL1	0	R1023J
2063.875	1.822	2376925	REC_START	n/a	n/a	4	-999	n/a	PASS	n/a	n/a	18	[0, 0, 0]	-999	PAL1	0	R1023J
2065.697	3.201	2378747	REC_EVENT	1822.0	n/a	4	6	ANT	PASS	ANT	ROPE	18	[0, 0, 0]	-999	PAL1	0	R1023J
2068.898	2.987	2381948	REC_END	n/a	n/a	4	-999	n/a	n/a	n/a	n/a	18	[0, 0, 0]	-999	PAL1	0	R1023J
2071.885	10.472	2384934	ENCODING_START	n/a	n/a	0	-999	n/a	n/a	n/a	n/a	19	[0, 0, 0]	-999	PAL1	0	R1023J
2082.357	0.275	2395406	STUDY_ORIENT	n/a	n/a	1	5	CLOWN	PASS	SPOON	CLOWN	19	[0, 0, 0]	-999	PAL1	0	R1023J
2083.157	4.0	2396206	STUDY_PAIR	n/a	wordpools/wordpool_EN.txt	1	5	CLOWN	PASS	SPOON	CLOWN	19	[0, 0, 0]	-999	PAL1	0	R1023J
2088.182	0.275	2401231	STUDY_ORIENT	n/a	n/a	2	2	SMOKE	PASS	SMOKE	BADGE	19	[0, 0, 0]	-999	PAL1	0	R1023J
2089.184	4.0	2402233	STUDY_PAIR	n/a	wordpools/wordpool_EN.txt	2	2	SMOKE	PASS	SMOKE	BADGE	19	[0, 0, 0]	-999	PAL1	0	R1023J
2094.209	0.275	2407258	STUDY_ORIENT	n/a	n/a	3	3	PLANT	PASS	CHAIR	PLANT	19	[0, 0, 0]	-999	PAL1	0	R1023J
2095.211	4.0	2408260	STUDY_PAIR	n/a	wordpools/wordpool_EN.txt	3	3	PLANT	PASS	CHAIR	PLANT	19	[0, 0, 0]	-999	PAL1	0	R1023J
2100.236	0.275	2413284	STUDY_ORIENT	n/a	n/a	4	6	EEL	n/a	MAP	EEL	19	[0, 0, 0]	-999	PAL1	0	R1023J
2101.221	4.0	2414269	STUDY_PAIR	n/a	wordpools/wordpool_EN.txt	4	6	EEL	n/a	MAP	EEL	19	[0, 0, 0]	-999	PAL1	0	R1023J
2106.246	0.275	2419294	STUDY_ORIENT	n/a	n/a	5	1	JEEP	PASS	LAND	JEEP	19	[0, 0, 0]	-999	PAL1	0	R1023J
2107.114	4.0	2420162	STUDY_PAIR	n/a	wordpools/wordpool_EN.txt	5	1	JEEP	PASS	LAND	JEEP	19	[0, 0, 0]	-999	PAL1	0	R1023J
2112.139	0.275	2425187	STUDY_ORIENT	n/a	n/a	6	4	BAG	PASS	BAG	DART	19	[0, 0, 0]	-999	PAL1	0	R1023J
2113.007	4.0	2426055	STUDY_PAIR	n/a	wordpools/wordpool_EN.txt	6	4	BAG	PASS	BAG	DART	19	[0, 0, 0]	-999	PAL1	0	R1023J
2117.016	0.999	2430064	START	n/a	n/a	-999	-999	n/a	n/a	n/a	n/a	19	[-999, -999, -999]	-999	PAL1	0	R1023J
2118.015	0.018	2431063	MATH_START	n/a	n/a	-999	-999	n/a	n/a	n/a	n/a	19	[0, 0, 0]	-999	PAL1	0	R1023J
2118.033	6.778	2431081	PROB	6747.0	n/a	-999	-999	n/a	n/a	n/a	n/a	19	[8, 4, 9]	21	PAL1	0	R1023J
2124.811	3.573	2437859	PROB	3546.0	n/a	-999	-999	n/a	n/a	n/a	n/a	19	[6, 5, 5]	16	PAL1	0	R1023J
2128.384	3.99	2441431	PROB	3965.0	n/a	-999	-999	n/a	n/a	n/a	n/a	19	[5, 6, 6]	17	PAL1	0	R1023J
2132.374	4.991	2445421	PROB	4991.0	n/a	-999	-999	n/a	n/a	n/a	n/a	19	[3, 9, 3]	15	PAL1	0	R1023J
2137.365	0.018	2450412	STOP	n/a	n/a	-999	-999	n/a	n/a	n/a	n/a	19	[-999, -999, -999]	-999	PAL1	0	R1023J
2137.383	0.0	2450430	MATH_END	n/a	n/a	-999	-999	n/a	n/a	n/a	n/a	19	[0, 0, 0]	-999	PAL1	0	R1023J
2137.383	0.016	2450430	TEST_START	n/a	n/a	-999	-999	n/a	n/a	n/a	n/a	19	[0, 0, 0]	-999	PAL1	0	R1023J
2137.399	0.275	2450446	TEST_ORIENT	n/a	n/a	5	1	JEEP	PASS	LAND	JEEP	19	[0, 0, 0]	-999	PAL1	0	R1023J
2138.2	0.0	2451247	REC_START	n/a	n/a	5	-999	n/a	PASS	n/a	n/a	19	[0, 0, 0]	-999	PAL1	0	R1023J
2138.2	4.0	2451247	TEST_PROBE	n/a	wordpools/wordpool_EN.txt	5	1	JEEP	PASS	LAND	JEEP	19	[0, 0, 0]	-999	PAL1	0	R1023J
2139.631	3.592	2452678	REC_EVENT	1431.0	n/a	5	1	JEEP	PASS	LAND	JEEP	19	[0, 0, 0]	-999	PAL1	0	R1023J
2143.223	0.019	2456270	REC_END	n/a	n/a	5	-999	n/a	n/a	n/a	n/a	19	[0, 0, 0]	-999	PAL1	0	R1023J
2143.242	0.275	2456289	TEST_ORIENT	n/a	n/a	2	2	SMOKE	PASS	SMOKE	BADGE	19	[0, 0, 0]	-999	PAL1	0	R1023J
2144.093	4.0	2457140	TEST_PROBE	n/a	wordpools/wordpool_EN.txt	2	2	SMOKE	PASS	SMOKE	BADGE	19	[0, 0, 0]	-999	PAL1	0	R1023J
2144.094	1.614	2457141	REC_START	n/a	n/a	2	-999	n/a	PASS	n/a	n/a	19	[0, 0, 0]	-999	PAL1	0	R1023J
2145.708	3.407	2458755	REC_EVENT	1614.0	n/a	2	2	SMOKE	PASS	SMOKE	BADGE	19	[0, 0, 0]	-999	PAL1	0	R1023J
2149.115	0.02	2462162	REC_END	n/a	n/a	2	-999	n/a	n/a	n/a	n/a	19	[0, 0, 0]	-999	PAL1	0	R1023J
2149.135	0.275	2462182	TEST_ORIENT	n/a	n/a	3	3	PLANT	PASS	CHAIR	PLANT	19	[0, 0, 0]	-999	PAL1	0	R1023J
2150.003	4.0	2463050	TEST_PROBE	n/a	wordpools/wordpool_EN.txt	3	3	PLANT	PASS	CHAIR	PLANT	19	[0, 0, 0]	-999	PAL1	0	R1023J
2150.003	1.272	2463050	REC_START	n/a	n/a	3	-999	n/a	PASS	n/a	n/a	19	[0, 0, 0]	-999	PAL1	0	R1023J
2151.275	3.751	2464322	REC_EVENT	1272.0	n/a	3	3	PLANT	PASS	CHAIR	PLANT	19	[0, 0, 0]	-999	PAL1	0	R1023J
2155.026	0.019	2468072	REC_END	n/a	n/a	3	-999	n/a	n/a	n/a	n/a	19	[0, 0, 0]	-999	PAL1	0	R1023J
2155.045	0.275	2468091	TEST_ORIENT	n/a	n/a	6	4	BAG	PASS	BAG	DART	19	[0, 0, 0]	-999	PAL1	0	R1023J
2155.963	4.0	2469009	TEST_PROBE	n/a	wordpools/wordpool_EN.txt	6	4	BAG	PASS	BAG	DART	19	[0, 0, 0]	-999	PAL1	0	R1023J
2155.963	2.098	2469009	REC_START	n/a	n/a	6	-999	n/a	PASS	n/a	n/a	19	[0, 0, 0]	-999	PAL1	0	R1023J
2158.061	2.925	2471107	REC_EVENT	2098.0	n/a	6	4	BAG	PASS	BAG	DART	19	[0, 0, 0]	-999	PAL1	0	R1023J
2160.986	0.019	2474032	REC_END	n/a	n/a	6	-999	n/a	n/a	n/a	n/a	19	[0, 0, 0]	-999	PAL1	0	R1023J
2161.005	0.275	2474051	TEST_ORIENT	n/a	n/a	1	5	CLOWN	PASS	SPOON	CLOWN	19	[0, 0, 0]	-999	PAL1	0	R1023J
