onset	duration	sample	trial_type	response_time	stim_file	serialpos	probepos	probe_word	resp_word	study_1	study_2	list	test	answer	experiment	session	subject
0.0	0.0	5471	INSTRUCT_VIDEO_ON	n/a	n/a	-999	-999	n/a	n/a	n/a	n/a	-999	[0, 0, 0]	-999	PAL1	0	R1278E
0.0	5.778	5471	INSTRUCT_VIDEO_OFF	n/a	n/a	-999	-999	n/a	n/a	n/a	n/a	-999	[0, 0, 0]	-999	PAL1	0	R1278E
5.778	0.0	11249	SESS_START	n/a	n/a	-999	-999	n/a	n/a	n/a	n/a	-999	[0, 0, 0]	-999	PAL1	0	R1278E
5.778	275.731	11249	MIC_TEST	n/a	n/a	-999	-999	n/a	n/a	n/a	n/a	-999	[0, 0, 0]	-999	PAL1	0	R1278E
281.509	21.736	286968	PRACTICE_TRIAL	n/a	n/a	-999	-999	n/a	n/a	n/a	n/a	-1	[0, 0, 0]	-999	PAL1	0	R1278E
303.245	0.008	308704	ENCODING_START	n/a	n/a	-999	-999	n/a	n/a	n/a	n/a	-1	[0, 0, 0]	-999	PAL1	0	R1278E
303.253	0.265	308712	PRACTICE_ORIENT	n/a	n/a	1	3	RHINO	CAMEL	CAMEL	RHINO	-1	[0, 0, 0]	-999	PAL1	0	R1278E
303.518	0.752	308977	PRACTICE_ORIENT_OFF	n/a	n/a	1	3	RHINO	CAMEL	CAMEL	RHINO	-1	[0, 0, 0]	-999	PAL1	0	R1278E
304.27	4.017	309729	PRACTICE_PAIR	n/a	n/a	1	3	RHINO	CAMEL	CAMEL	RHINO	-1	[0, 0, 0]	-999	PAL1	0	R1278E
308.287	1.017	313745	PRACTICE_PAIR_OFF	n/a	n/a	1	3	RHINO	CAMEL	CAMEL	RHINO	-1	[0, 0, 0]	-999	PAL1	0	R1278E
309.304	0.265	314762	PRACTICE_ORIENT	n/a	n/a	2	6	FLOOD	PASS	FLOOD	COTTON	-1	[0, 0, 0]	-999	PAL1	0	R1278E
309.569	0.635	315027	PRACTICE_ORIENT_OFF	n/a	n/a	2	6	FLOOD	PASS	FLOOD	COTTON	-1	[0, 0, 0]	-999	PAL1	0	R1278E
310.204	4.017	315662	PRACTICE_PAIR	n/a	n/a	2	6	FLOOD	PASS	FLOOD	COTTON	-1	[0, 0, 0]	-999	PAL1	0	R1278E
314.221	1.017	319679	PRACTICE_PAIR_OFF	n/a	n/a	2	6	FLOOD	PASS	FLOOD	COTTON	-1	[0, 0, 0]	-999	PAL1	0	R1278E
315.238	0.266	320696	PRACTICE_ORIENT	n/a	n/a	3	5	WATCH	PASS	ATTIC	WATCH	-1	[0, 0, 0]	-999	PAL1	0	R1278E
315.504	0.568	320962	PRACTICE_ORIENT_OFF	n/a	n/a	3	5	WATCH	PASS	ATTIC	WATCH	-1	[0, 0, 0]	-999	PAL1	0	R1278E
316.072	4.017	321530	PRACTICE_PAIR	n/a	n/a	3	5	WATCH	PASS	ATTIC	WATCH	-1	[0, 0, 0]	-999	PAL1	0	R1278E
320.089	1.017	325547	PRACTICE_PAIR_OFF	n/a	n/a	3	5	WATCH	PASS	ATTIC	WATCH	-1	[0, 0, 0]	-999	PAL1	0	R1278E
321.106	0.266	326564	PRACTICE_ORIENT	n/a	n/a	4	4	BEAM	PASS	RING	BEAM	-1	[0, 0, 0]	-999	PAL1	0	R1278E
321.372	0.634	326830	PRACTICE_ORIENT_OFF	n/a	n/a	4	4	BEAM	PASS	RING	BEAM	-1	[0, 0, 0]	-999	PAL1	0	R1278E
322.006	4.017	327464	PRACTICE_PAIR	n/a	n/a	4	4	BEAM	PASS	RING	BEAM	-1	[0, 0, 0]	-999	PAL1	0	R1278E
326.023	1.017	331481	PRACTICE_PAIR_OFF	n/a	n/a	4	4	BEAM	PASS	RING	BEAM	-1	[0, 0, 0]	-999	PAL1	0	R1278E
327.04	0.267	332498	PRACTICE_ORIENT	n/a	n/a	5	1	CHEST	TONGUE	CHEST	TONGUE	-1	[0, 0, 0]	-999	PAL1	0	R1278E
327.307	0.6	332765	PRACTICE_ORIENT_OFF	n/a	n/a	5	1	CHEST	TONGUE	CHEST	TONGUE	-1	[0, 0, 0]	-999	PAL1	0	R1278E
327.907	4.017	333365	PRACTICE_PAIR	n/a	n/a	5	1	CHEST	TONGUE	CHEST	TONGUE	-1	[0, 0, 0]	-999	PAL1	0	R1278E
331.924	1.017	337381	PRACTICE_PAIR_OFF	n/a	n/a	5	1	CHEST	TONGUE	CHEST	TONGUE	-1	[0, 0, 0]	-999	PAL1	0	R1278E
332.941	0.267	338398	PRACTICE_ORIENT	n/a	n/a	6	2	WAGON	IRON	WAGON	IRON	-1	[0, 0, 0]	-999	PAL1	0	R1278E
333.208	0.65	338665	PRACTICE_ORIENT_OFF	n/a	n/a	6	2	WAGON	IRON	WAGON	IRON	-1	[0, 0, 0]	-999	PAL1	0	R1278E
333.858	4.017	339315	PRACTICE_PAIR	n/a	n/a	6	2	WAGON	IRON	WAGON	IRON	-1	[0, 0, 0]	-999	PAL1	0	R1278E
337.875	1.0	343332	PRACTICE_PAIR_OFF	n/a	n/a	6	2	WAGON	IRON	WAGON	IRON	-1	[0, 0, 0]	-999	PAL1	0	R1278E
338.875	0.0	344332	ENCODING_END	n/a	n/a	-999	-999	n/a	n/a	n/a	n/a	-1	[0, 0, 0]	-999	PAL1	0	R1278E
338.875	0.0	344332	MATH_START	n/a	n/a	-999	-999	n/a	n/a	n/a	n/a	-1	[0, 0, 0]	-999	PAL1	0	R1278E
338.875	0.017	344332	START	n/a	n/a	-999	-999	n/a	n/a	n/a	n/a	-1	[-999, -999, -999]	-999	PAL1	0	R1278E
338.892	7.517	344349	PROB	7490	n/a	-999	-999	n/a	n/a	n/a	n/a	-1	[5, 9, 4]	18	PAL1	0	R1278E
346.409	7.519	351866	PROB	7493	n/a	-999	-999	n/a	n/a	n/a	n/a	-1	[7, 1, 9]	17	PAL1	0	R1278E
353.928	6.018	359385	PROB	6018	n/a	-999	-999	n/a	n/a	n/a	n/a	-1	[6, 9, 3]	18	PAL1	0	R1278E
359.946	0.017	365402	STOP	n/a	n/a	-999	-999	n/a	n/a	n/a	n/a	-1	[-999, -999, -999]	-999	PAL1	0	R1278E
359.963	0.0	365419	MATH_END	n/a	n/a	-999	-999	n/a	n/a	n/a	n/a	-1	[0, 0, 0]	-999	PAL1	0	R1278E
359.963	0.016	365419	RECALL_START	n/a	n/a	-999	-999	n/a	n/a	n/a	n/a	-1	[0, 0, 0]	-999	PAL1	0	R1278E
359.979	0.267	365435	PRACTICE_RETRIEVAL_ORIENT	n/a	n/a	5	1	CHEST	TONGUE	CHEST	TONGUE	-1	[0, 0, 0]	-999	PAL1	0	R1278E
360.246	0.717	365702	PRACTICE_RETRIEVAL_ORIENT_OFF	n/a	n/a	5	1	CHEST	TONGUE	CHEST	TONGUE	-1	[0, 0, 0]	-999	PAL1	0	R1278E
360.963	0.0	366419	PRACTICE_PROBE	n/a	n/a	5	1	CHEST	TONGUE	CHEST	TONGUE	-1	[0, 0, 0]	-999	PAL1	0	R1278E
360.963	1.775	366419	REC_START	n/a	n/a	5	-999	n/a	TONGUE	n/a	n/a	-1	[0, 0, 0]	-999	PAL1	0	R1278E
362.738	2.242	368194	REC_EVENT	1775	n/a	5	1	CHEST	TONGUE	CHEST	TONGUE	-1	[0, 0, 0]	-999	PAL1	0	R1278E
364.98	1.0	370436	PROBE_OFF	n/a	n/a	5	-999	n/a	n/a	n/a	n/a	-1	[0, 0, 0]	-999	PAL1	0	R1278E
365.98	0.017	371436	REC_END	n/a	n/a	5	-999	n/a	n/a	n/a	n/a	-1	[0, 0, 0]	-999	PAL1	0	R1278E
365.997	0.267	371453	PRACTICE_RETRIEVAL_ORIENT	n/a	n/a	6	2	WAGON	IRON	WAGON	IRON	-1	[0, 0, 0]	-999	PAL1	0	R1278E
366.264	0.7	371720	PRACTICE_RETRIEVAL_ORIENT_OFF	n/a	n/a	6	2	WAGON	IRON	WAGON	IRON	-1	[0, 0, 0]	-999	PAL1	0	R1278E
366.964	0.0	372420	REC_START	n/a	n/a	6	-999	n/a	IRON	n/a	n/a	-1	[0, 0, 0]	-999	PAL1	0	R1278E
366.964	1.194	372420	PRACTICE_PROBE	n/a	n/a	6	2	WAGON	IRON	WAGON	IRON	-1	[0, 0, 0]	-999	PAL1	0	R1278E
368.158	2.823	373614	REC_EVENT	1194	n/a	6	2	WAGON	IRON	WAGON	IRON	-1	[0, 0, 0]	-999	PAL1	0	R1278E
370.981	1.0	376437	PROBE_OFF	n/a	n/a	6	-999	n/a	n/a	n/a	n/a	-1	[0, 0, 0]	-999	PAL1	0	R1278E
371.981	0.017	377437	REC_END	n/a	n/a	6	-999	n/a	n/a	n/a	n/a	-1	[0, 0, 0]	-999	PAL1	0	R1278E
371.998	0.267	377454	PRACTICE_RETRIEVAL_ORIENT	n/a	n/a	1	3	RHINO	CAMEL	CAMEL	RHINO	-1	[0, 0, 0]	-999	PAL1	0	R1278E
372.265	0.549	377721	PRACTICE_RETRIEVAL_ORIENT_OFF	n/a	n/a	1	3	RHINO	CAMEL	CAMEL	RHINO	-1	[0, 0, 0]	-999	PAL1	0	R1278E
372.814	0.0	378270	PRACTICE_PROBE	n/a	n/a	1	3	RHINO	CAMEL	CAMEL	RHINO	-1	[0, 0, 0]	-999	PAL1	0	R1278E
372.814	1.444	378270	REC_START	n/a	n/a	1	-999	n/a	CAMEL	n/a	n/a	-1	[0, 0, 0]	-999	PAL1	0	R1278E
374.258	2.574	379714	REC_EVENT	1444	n/a	1	3	RHINO	CAMEL	CAMEL	RHINO	-1	[0, 0, 0]	-999	PAL1	0	R1278E
376.832	1.0	382288	PROBE_OFF	n/a	n/a	1	-999	n/a	n/a	n/a	n/a	-1	[0, 0, 0]	-999	PAL1	0	R1278E
377.832	0.017	383288	REC_END	n/a	n/a	1	-999	n/a	n/a	n/a	n/a	-1	[0, 0, 0]	-999	PAL1	0	R1278E
377.849	0.267	383305	PRACTICE_RETRIEVAL_ORIENT	n/a	n/a	4	4	BEAM	PASS	RING	BEAM	-1	[0, 0, 0]	-999	PAL1	0	R1278E
378.116	0.649	383572	PRACTICE_RETRIEVAL_ORIENT_OFF	n/a	n/a	4	4	BEAM	PASS	RING	BEAM	-1	[0, 0, 0]	-999	PAL1	0	R1278E
378.765	0.0	384221	REC_START	n/a	n/a	4	-999	n/a	PASS	n/a	n/a	-1	[0, 0, 0]	-999	PAL1	0	R1278E
378.765	2.729	384221	PRACTICE_PROBE	n/a	n/a	4	4	BEAM	PASS	RING	BEAM	-1	[0, 0, 0]	-999	PAL1	0	R1278E
381.494	1.288	386949	REC_EVENT	2729	n/a	4	4	BEAM	PASS	RING	BEAM	-1	[0, 0, 0]	-999	PAL1	0	R1278E
382.782	1.0	388237	PROBE_OFF	n/a	n/a	4	-999	n/a	n/a	n/a	n/a	-1	[0, 0, 0]	-999	PAL1	0	R1278E
383.782	0.017	389237	REC_END	n/a	n/a	4	-999	n/a	n/a	n/a	n/a	-1	[0, 0, 0]	-999	PAL1	0	R1278E
383.799	0.268	389254	PRACTICE_RETRIEVAL_ORIENT	n/a	n/a	3	5	WATCH	PASS	ATTIC	WATCH	-1	[0, 0, 0]	-999	PAL1	0	R1278E
384.067	0.682	389522	PRACTICE_RETRIEVAL_ORIENT_OFF	n/a	n/a	3	5	WATCH	PASS	ATTIC	WATCH	-1	[0, 0, 0]	-999	PAL1	0	R1278E
384.749	0.001	390204	PRACTICE_PROBE	n/a	n/a	3	5	WATCH	PASS	ATTIC	WATCH	-1	[0, 0, 0]	-999	PAL1	0	R1278E
384.75	2.755	390205	REC_START	n/a	n/a	3	-999	n/a	PASS	n/a	n/a	-1	[0, 0, 0]	-999	PAL1	0	R1278E
387.505	1.262	392960	REC_EVENT	2755	n/a	3	5	WATCH	PASS	ATTIC	WATCH	-1	[0, 0, 0]	-999	PAL1	0	R1278E
388.767	1.0	394222	PROBE_OFF	n/a	n/a	3	-999	n/a	n/a	n/a	n/a	-1	[0, 0, 0]	-999	PAL1	0	R1278E
389.767	0.016	395222	REC_END	n/a	n/a	3	-999	n/a	n/a	n/a	n/a	-1	[0, 0, 0]	-999	PAL1	0	R1278E
389.783	0.268	395238	PRACTICE_RETRIEVAL_ORIENT	n/a	n/a	2	6	FLOOD	PASS	FLOOD	COTTON	-1	[0, 0, 0]	-999	PAL1	0	R1278E
390.051	0.616	395506	PRACTICE_RETRIEVAL_ORIENT_OFF	n/a	n/a	4	6	FLOOD	PASS	FLOOD	COTTON	-1	[0, 0, 0]	-999	PAL1	0	R1278E
390.667	0.001	396122	PRACTICE_PROBE	n/a	n/a	2	6	FLOOD	PASS	FLOOD	COTTON	-1	[0, 0, 0]	-999	PAL1	0	R1278E
390.668	1.832	396123	REC_START	n/a	n/a	2	-999	n/a	PASS	n/a	n/a	-1	[0, 0, 0]	-999	PAL1	0	R1278E
392.5	2.184	397955	REC_EVENT	1832	n/a	2	6	FLOOD	PASS	FLOOD	COTTON	-1	[0, 0, 0]	-999	PAL1	0	R1278E
394.684	1.0	400139	PROBE_OFF	n/a	n/a	2	-999	n/a	n/a	n/a	n/a	-1	[0, 0, 0]	-999	PAL1	0	R1278E
395.684	0.005	401139	REC_END	n/a	n/a	2	-999	n/a	n/a	n/a	n/a	-1	[0, 0, 0]	-999	PAL1	0	R1278E
395.689	81.659	401144	RECALL_END	n/a	n/a	-999	-999	n/a	n/a	n/a	n/a	-1	[0, 0, 0]	-999	PAL1	0	R1278E
477.348	10.929	482800	TRIAL	n/a	n/a	-999	-999	n/a	n/a	n/a	n/a	1	[0, 0, 0]	-999	PAL1	0	R1278E
488.277	0.008	493728	ENCODING_START	n/a	n/a	-999	-999	n/a	n/a	n/a	n/a	1	[0, 0, 0]	-999	PAL1	0	R1278E
488.285	0.266	493736	STUDY_ORIENT	n/a	n/a	1	5	SPOON	SALT	SALT	SPOON	1	[0, 0, 0]	-999	PAL1	0	R1278E
488.551	0.667	494002	STUDY_ORIENT_OFF	n/a	n/a	1	5	SPOON	SALT	SALT	SPOON	1	[0, 0, 0]	-999	PAL1	0	R1278E
489.218	4.018	494669	STUDY_PAIR	n/a	wordpools/wordpool_EN.txt	1	5	SPOON	SALT	SALT	SPOON	1	[0, 0, 0]	-999	PAL1	0	R1278E
493.236	1.017	498687	PAIR_OFF	n/a	n/a	1	5	SPOON	SALT	SALT	SPOON	1	[0, 0, 0]	-999	PAL1	0	R1278E
494.253	0.265	499704	STUDY_ORIENT	n/a	n/a	2	2	SAIL	n/a	LAMP	SAIL	1	[0, 0, 0]	-999	PAL1	0	R1278E
494.518	0.618	499969	STUDY_ORIENT_OFF	n/a	n/a	2	2	SAIL	n/a	LAMP	SAIL	1	[0, 0, 0]	-999	PAL1	0	R1278E
495.136	4.017	500587	STUDY_PAIR	n/a	wordpools/wordpool_EN.txt	2	2	SAIL	n/a	LAMP	SAIL	1	[0, 0, 0]	-999	PAL1	0	R1278E
499.153	1.017	504604	PAIR_OFF	n/a	n/a	2	2	SAIL	n/a	LAMP	SAIL	1	[0, 0, 0]	-999	PAL1	0	R1278E
500.17	0.266	505621	STUDY_ORIENT	n/a	n/a	3	3	FLUTE	n/a	FLUTE	BEAN	1	[0, 0, 0]	-999	PAL1	0	R1278E
500.436	0.685	505887	STUDY_ORIENT_OFF	n/a	n/a	3	3	FLUTE	n/a	FLUTE	BEAN	1	[0, 0, 0]	-999	PAL1	0	R1278E
501.121	4.017	506572	STUDY_PAIR	n/a	wordpools/wordpool_EN.txt	3	3	FLUTE	n/a	FLUTE	BEAN	1	[0, 0, 0]	-999	PAL1	0	R1278E
505.138	1.017	510588	PAIR_OFF	n/a	n/a	3	3	FLUTE	n/a	FLUTE	BEAN	1	[0, 0, 0]	-999	PAL1	0	R1278E
506.155	0.265	511605	STUDY_ORIENT	n/a	n/a	4	4	FARM	PEACH	PEACH	FARM	1	[0, 0, 0]	-999	PAL1	0	R1278E
506.42	0.518	511870	STUDY_ORIENT_OFF	n/a	n/a	4	4	FARM	PEACH	PEACH	FARM	1	[0, 0, 0]	-999	PAL1	0	R1278E
506.938	4.018	512388	STUDY_PAIR	n/a	wordpools/wordpool_EN.txt	4	4	FARM	PEACH	PEACH	FARM	1	[0, 0, 0]	-999	PAL1	0	R1278E
510.956	1.016	516406	PAIR_OFF	n/a	n/a	4	4	FARM	PEACH	PEACH	FARM	1	[0, 0, 0]	-999	PAL1	0	R1278E
511.972	0.267	517422	STUDY_ORIENT	n/a	n/a	5	1	STRING	n/a	RUG	STRING	1	[0, 0, 0]	-999	PAL1	0	R1278E
512.239	0.583	517689	STUDY_ORIENT_OFF	n/a	n/a	5	1	STRING	n/a	RUG	STRING	1	[0, 0, 0]	-999	PAL1	0	R1278E
512.822	4.018	518272	STUDY_PAIR	n/a	wordpools/wordpool_EN.txt	5	1	STRING	n/a	RUG	STRING	1	[0, 0, 0]	-999	PAL1	0	R1278E
516.84	1.017	522290	PAIR_OFF	n/a	n/a	5	1	STRING	n/a	RUG	STRING	1	[0, 0, 0]	-999	PAL1	0	R1278E
517.857	0.266	523307	STUDY_ORIENT	n/a	n/a	6	6	BAG	BANK	BAG	BANK	1	[0, 0, 0]	-999	PAL1	0	R1278E
518.123	0.683	523573	STUDY_ORIENT_OFF	n/a	n/a	6	6	BAG	BANK	BAG	BANK	1	[0, 0, 0]	-999	PAL1	0	R1278E
518.806	4.017	524256	STUDY_PAIR	n/a	wordpools/wordpool_EN.txt	6	6	BAG	BANK	BAG	BANK	1	[0, 0, 0]	-999	PAL1	0	R1278E
522.823	1.0	528273	PAIR_OFF	n/a	n/a	6	6	BAG	BANK	BAG	BANK	1	[0, 0, 0]	-999	PAL1	0	R1278E
523.823	0.0	529273	ENCODING_END	n/a	n/a	-999	-999	n/a	n/a	n/a	n/a	1	[0, 0, 0]	-999	PAL1	0	R1278E
523.823	0.001	529273	MATH_START	n/a	n/a	-999	-999	n/a	n/a	n/a	n/a	1	[0, 0, 0]	-999	PAL1	0	R1278E
523.824	0.017	529274	START	n/a	n/a	-999	-999	n/a	n/a	n/a	n/a	1	[-999, -999, -999]	-999	PAL1	0	R1278E
523.841	8.168	529291	PROB	8139	n/a	-999	-999	n/a	n/a	n/a	n/a	1	[2, 2, 3]	7	PAL1	0	R1278E
532.009	4.901	537458	PROB	4867	n/a	-999	-999	n/a	n/a	n/a	n/a	1	[9, 1, 3]	13	PAL1	0	R1278E
536.91	7.581	542359	PROB	7581	n/a	-999	-999	n/a	n/a	n/a	n/a	1	[9, 9, 7]	25	PAL1	0	R1278E
544.491	0.019	549940	STOP	n/a	n/a	-999	-999	n/a	n/a	n/a	n/a	1	[-999, -999, -999]	-999	PAL1	0	R1278E
544.51	0.001	549959	MATH_END	n/a	n/a	-999	-999	n/a	n/a	n/a	n/a	1	[0, 0, 0]	-999	PAL1	0	R1278E
544.511	0.016	549960	RECALL_START	n/a	n/a	-999	-999	n/a	n/a	n/a	n/a	1	[0, 0, 0]	-999	PAL1	0	R1278E
544.527	0.267	549976	TEST_ORIENT	n/a	n/a	5	1	STRING	n/a	RUG	STRING	1	[0, 0, 0]	-999	PAL1	0	R1278E
544.794	0.733	550243	RETRIEVAL_ORIENT_OFF	n/a	n/a	-999	-999	n/a	n/a	n/a	n/a	1	[0, 0, 0]	-999	PAL1	0	R1278E
545.527	0.001	550976	TEST_PROBE	n/a	wordpools/wordpool_EN.txt	5	1	STRING	n/a	RUG	STRING	1	[0, 0, 0]	-999	PAL1	0	R1278E
545.528	3.034	550977	REC_START	n/a	n/a	5	-999	n/a	n/a	n/a	n/a	1	[0, 0, 0]	-999	PAL1	0	R1278E
548.562	0.983	554011	REC_EVENT	3034	n/a	5	1	STRING	<>	RUG	STRING	1	[0, 0, 0]	-999	PAL1	0	R1278E
549.545	1.0	554994	PROBE_OFF	n/a	n/a	5	-999	n/a	n/a	n/a	n/a	1	[0, 0, 0]	-999	PAL1	0	R1278E
550.545	0.016	555994	REC_END	n/a	n/a	5	-999	n/a	n/a	n/a	n/a	1	[0, 0, 0]	-999	PAL1	0	R1278E
550.561	0.268	556010	TEST_ORIENT	n/a	n/a	2	2	SAIL	n/a	LAMP	SAIL	1	[0, 0, 0]	-999	PAL1	0	R1278E
550.829	0.549	556278	RETRIEVAL_ORIENT_OFF	n/a	n/a	5	-999	n/a	n/a	n/a	n/a	1	[0, 0, 0]	-999	PAL1	0	R1278E
551.378	0.001	556827	TEST_PROBE	n/a	wordpools/wordpool_EN.txt	2	2	SAIL	n/a	LAMP	SAIL	1	[0, 0, 0]	-999	PAL1	0	R1278E
551.379	4.017	556828	REC_START	n/a	n/a	2	-999	n/a	n/a	n/a	n/a	1	[0, 0, 0]	-999	PAL1	0	R1278E
555.396	0.998	560844	PROBE_OFF	n/a	n/a	2	-999	n/a	n/a	n/a	n/a	1	[0, 0, 0]	-999	PAL1	0	R1278E
556.394	0.002	561842	REC_EVENT	5015	n/a	2	2	SAIL	<>	LAMP	SAIL	1	[0, 0, 0]	-999	PAL1	0	R1278E
556.396	0.016	561844	REC_END	n/a	n/a	2	-999	n/a	n/a	n/a	n/a	1	[0, 0, 0]	-999	PAL1	0	R1278E
556.412	0.267	561860	TEST_ORIENT	n/a	n/a	3	3	FLUTE	n/a	FLUTE	BEAN	1	[0, 0, 0]	-999	PAL1	0	R1278E
556.679	0.551	562127	RETRIEVAL_ORIENT_OFF	n/a	n/a	2	-999	n/a	n/a	n/a	n/a	1	[0, 0, 0]	-999	PAL1	0	R1278E
557.23	0.001	562678	TEST_PROBE	n/a	wordpools/wordpool_EN.txt	3	3	FLUTE	n/a	FLUTE	BEAN	1	[0, 0, 0]	-999	PAL1	0	R1278E
557.231	4.017	562679	REC_START	n/a	n/a	3	-999	n/a	n/a	n/a	n/a	1	[0, 0, 0]	-999	PAL1	0	R1278E
561.248	0.998	566696	PROBE_OFF	n/a	n/a	3	-999	n/a	n/a	n/a	n/a	1	[0, 0, 0]	-999	PAL1	0	R1278E
562.246	0.002	567694	REC_EVENT	5015	n/a	3	3	FLUTE	<>	FLUTE	BEAN	1	[0, 0, 0]	-999	PAL1	0	R1278E
562.248	0.016	567696	REC_END	n/a	n/a	3	-999	n/a	n/a	n/a	n/a	1	[0, 0, 0]	-999	PAL1	0	R1278E
562.264	0.266	567712	TEST_ORIENT	n/a	n/a	4	4	FARM	PEACH	PEACH	FARM	1	[0, 0, 0]	-999	PAL1	0	R1278E
562.53	0.534	567978	RETRIEVAL_ORIENT_OFF	n/a	n/a	3	-999	n/a	n/a	n/a	n/a	1	[0, 0, 0]	-999	PAL1	0	R1278E
563.064	0.001	568512	TEST_PROBE	n/a	wordpools/wordpool_EN.txt	4	4	FARM	PEACH	PEACH	FARM	1	[0, 0, 0]	-999	PAL1	0	R1278E
563.065	2.246	568513	REC_START	n/a	n/a	4	-999	n/a	PEACH	n/a	n/a	1	[0, 0, 0]	-999	PAL1	0	R1278E
565.311	1.754	570759	REC_EVENT	2246	n/a	4	4	FARM	PEACH	PEACH	FARM	1	[0, 0, 0]	-999	PAL1	0	R1278E
567.065	1.0	572513	PROBE_OFF	n/a	n/a	4	-999	n/a	n/a	n/a	n/a	1	[0, 0, 0]	-999	PAL1	0	R1278E
568.065	0.017	573513	REC_END	n/a	n/a	4	-999	n/a	n/a	n/a	n/a	1	[0, 0, 0]	-999	PAL1	0	R1278E
568.082	0.266	573530	TEST_ORIENT	n/a	n/a	1	5	SPOON	SALT	SALT	SPOON	1	[0, 0, 0]	-999	PAL1	0	R1278E
568.348	0.634	573796	RETRIEVAL_ORIENT_OFF	n/a	n/a	4	-999	n/a	n/a	n/a	n/a	1	[0, 0, 0]	-999	PAL1	0	R1278E
568.982	0.001	574430	TEST_PROBE	n/a	wordpools/wordpool_EN.txt	1	5	SPOON	SALT	SALT	SPOON	1	[0, 0, 0]	-999	PAL1	0	R1278E
568.983	1.234	574431	REC_START	n/a	n/a	1	-999	n/a	SALT	n/a	n/a	1	[0, 0, 0]	-999	PAL1	0	R1278E
570.217	2.783	575665	REC_EVENT	1234	n/a	1	5	SPOON	SALT	SALT	SPOON	1	[0, 0, 0]	-999	PAL1	0	R1278E
573.0	1.0	578448	PROBE_OFF	n/a	n/a	1	-999	n/a	n/a	n/a	n/a	1	[0, 0, 0]	-999	PAL1	0	R1278E
574.0	0.017	579448	REC_END	n/a	n/a	1	-999	n/a	n/a	n/a	n/a	1	[0, 0, 0]	-999	PAL1	0	R1278E
574.017	0.266	579465	TEST_ORIENT	n/a	n/a	6	6	BAG	BANK	BAG	BANK	1	[0, 0, 0]	-999	PAL1	0	R1278E
574.283	0.7	579731	RETRIEVAL_ORIENT_OFF	n/a	n/a	1	-999	n/a	n/a	n/a	n/a	1	[0, 0, 0]	-999	PAL1	0	R1278E
574.983	0.001	580431	TEST_PROBE	n/a	wordpools/wordpool_EN.txt	6	6	BAG	BANK	BAG	BANK	1	[0, 0, 0]	-999	PAL1	0	R1278E
574.984	1.249	580432	REC_START	n/a	n/a	6	-999	n/a	BANK	n/a	n/a	1	[0, 0, 0]	-999	PAL1	0	R1278E
576.233	2.768	581681	REC_EVENT	1249	n/a	6	6	BAG	BANK	BAG	BANK	1	[0, 0, 0]	-999	PAL1	0	R1278E
579.001	1.0	584449	PROBE_OFF	n/a	n/a	6	-999	n/a	n/a	n/a	n/a	1	[0, 0, 0]	-999	PAL1	0	R1278E
580.001	0.01	585448	REC_END	n/a	n/a	6	-999	n/a	n/a	n/a	n/a	1	[0, 0, 0]	-999	PAL1	0	R1278E
580.011	7.041	585458	RECALL_END	n/a	n/a	-999	-999	n/a	n/a	n/a	n/a	1	[0, 0, 0]	-999	PAL1	0	R1278E
587.052	10.929	592499	TRIAL	n/a	n/a	-999	-999	n/a	n/a	n/a	n/a	2	[0, 0, 0]	-999	PAL1	0	R1278E
597.981	0.006	603428	ENCODING_START	n/a	n/a	-999	-999	n/a	n/a	n/a	n/a	2	[0, 0, 0]	-999	PAL1	0	R1278E
597.987	0.267	603434	STUDY_ORIENT	n/a	n/a	1	3	HAT	n/a	HAT	STAR	2	[0, 0, 0]	-999	PAL1	0	R1278E
598.254	0.684	603701	STUDY_ORIENT_OFF	n/a	n/a	1	3	HAT	n/a	HAT	STAR	2	[0, 0, 0]	-999	PAL1	0	R1278E
598.938	4.017	604385	STUDY_PAIR	n/a	wordpools/wordpool_EN.txt	1	3	HAT	n/a	HAT	STAR	2	[0, 0, 0]	-999	PAL1	0	R1278E
602.955	1.017	608402	PAIR_OFF	n/a	n/a	1	3	HAT	n/a	HAT	STAR	2	[0, 0, 0]	-999	PAL1	0	R1278E
603.972	0.267	609419	STUDY_ORIENT	n/a	n/a	2	2	WEB	TAIL	WEB	TAIL	2	[0, 0, 0]	-999	PAL1	0	R1278E
604.239	0.683	609686	STUDY_ORIENT_OFF	n/a	n/a	2	2	WEB	TAIL	WEB	TAIL	2	[0, 0, 0]	-999	PAL1	0	R1278E
604.922	4.017	610368	STUDY_PAIR	n/a	wordpools/wordpool_EN.txt	2	2	WEB	TAIL	WEB	TAIL	2	[0, 0, 0]	-999	PAL1	0	R1278E
608.939	1.017	614385	PAIR_OFF	n/a	n/a	2	2	WEB	TAIL	WEB	TAIL	2	[0, 0, 0]	-999	PAL1	0	R1278E
609.956	0.267	615402	STUDY_ORIENT	n/a	n/a	3	1	FISH	n/a	PRINCE	FISH	2	[0, 0, 0]	-999	PAL1	0	R1278E
610.223	0.566	615669	STUDY_ORIENT_OFF	n/a	n/a	3	1	FISH	n/a	PRINCE	FISH	2	[0, 0, 0]	-999	PAL1	0	R1278E
610.789	4.017	616235	STUDY_PAIR	n/a	wordpools/wordpool_EN.txt	3	1	FISH	n/a	PRINCE	FISH	2	[0, 0, 0]	-999	PAL1	0	R1278E
614.806	1.017	620252	PAIR_OFF	n/a	n/a	3	1	FISH	n/a	PRINCE	FISH	2	[0, 0, 0]	-999	PAL1	0	R1278E
615.823	0.268	621269	STUDY_ORIENT	n/a	n/a	4	6	MAT	n/a	MAT	HOSE	2	[0, 0, 0]	-999	PAL1	0	R1278E
616.091	0.649	621537	STUDY_ORIENT_OFF	n/a	n/a	4	6	MAT	n/a	MAT	HOSE	2	[0, 0, 0]	-999	PAL1	0	R1278E
616.74	4.017	622186	STUDY_PAIR	n/a	wordpools/wordpool_EN.txt	4	6	MAT	n/a	MAT	HOSE	2	[0, 0, 0]	-999	PAL1	0	R1278E
620.757	1.017	626203	PAIR_OFF	n/a	n/a	4	6	MAT	n/a	MAT	HOSE	2	[0, 0, 0]	-999	PAL1	0	R1278E
621.774	0.268	627220	STUDY_ORIENT	n/a	n/a	5	5	ROPE	SOAP	ROPE	SOAP	2	[0, 0, 0]	-999	PAL1	0	R1278E
622.042	0.699	627488	STUDY_ORIENT_OFF	n/a	n/a	5	5	ROPE	SOAP	ROPE	SOAP	2	[0, 0, 0]	-999	PAL1	0	R1278E
622.741	4.017	628187	STUDY_PAIR	n/a	wordpools/wordpool_EN.txt	5	5	ROPE	SOAP	ROPE	SOAP	2	[0, 0, 0]	-999	PAL1	0	R1278E
626.758	1.017	632204	PAIR_OFF	n/a	n/a	5	5	ROPE	SOAP	ROPE	SOAP	2	[0, 0, 0]	-999	PAL1	0	R1278E
627.775	0.268	633221	STUDY_ORIENT	n/a	n/a	6	4	LAND	n/a	LAND	CALF	2	[0, 0, 0]	-999	PAL1	0	R1278E
628.043	0.765	633489	STUDY_ORIENT_OFF	n/a	n/a	6	4	LAND	n/a	LAND	CALF	2	[0, 0, 0]	-999	PAL1	0	R1278E
628.808	4.018	634254	STUDY_PAIR	n/a	wordpools/wordpool_EN.txt	6	4	LAND	n/a	LAND	CALF	2	[0, 0, 0]	-999	PAL1	0	R1278E
632.826	1.0	638271	PAIR_OFF	n/a	n/a	6	4	LAND	n/a	LAND	CALF	2	[0, 0, 0]	-999	PAL1	0	R1278E
633.826	0.0	639271	ENCODING_END	n/a	n/a	-999	-999	n/a	n/a	n/a	n/a	2	[0, 0, 0]	-999	PAL1	0	R1278E
633.826	0.001	639271	MATH_START	n/a	n/a	-999	-999	n/a	n/a	n/a	n/a	2	[0, 0, 0]	-999	PAL1	0	R1278E
633.827	0.017	639272	START	n/a	n/a	-999	-999	n/a	n/a	n/a	n/a	2	[-999, -999, -999]	-999	PAL1	0	R1278E
633.844	6.217	639289	PROB	6187	n/a	-999	-999	n/a	n/a	n/a	n/a	2	[4, 9, 7]	20	PAL1	0	R1278E
640.061	6.701	645506	PROB	6673	n/a	-999	-999	n/a	n/a	n/a	n/a	2	[6, 5, 7]	18	PAL1	0	R1278E
646.762	4.767	652207	PROB	4731	n/a	-999	-999	n/a	n/a	n/a	n/a	2	[9, 1, 5]	15	PAL1	0	R1278E
651.529	4.148	656974	PROB	4148	n/a	-999	-999	n/a	n/a	n/a	n/a	2	[4, 6, 6]	16	PAL1	0	R1278E
655.677	0.019	661121	STOP	n/a	n/a	-999	-999	n/a	n/a	n/a	n/a	2	[-999, -999, -999]	-999	PAL1	0	R1278E
655.696	0.001	661140	MATH_END	n/a	n/a	-999	-999	n/a	n/a	n/a	n/a	2	[0, 0, 0]	-999	PAL1	0	R1278E
655.697	0.016	661141	RECALL_START	n/a	n/a	-999	-999	n/a	n/a	n/a	n/a	2	[0, 0, 0]	-999	PAL1	0	R1278E
655.713	0.268	661157	TEST_ORIENT	n/a	n/a	3	1	FISH	n/a	PRINCE	FISH	2	[0, 0, 0]	-999	PAL1	0	R1278E
655.981	0.766	661425	RETRIEVAL_ORIENT_OFF	n/a	n/a	-999	-999	n/a	n/a	n/a	n/a	2	[0, 0, 0]	-999	PAL1	0	R1278E
656.747	0.0	662191	REC_START	n/a	n/a	3	-999	n/a	n/a	n/a	n/a	2	[0, 0, 0]	-999	PAL1	0	R1278E
656.747	4.017	662191	TEST_PROBE	n/a	wordpools/wordpool_EN.txt	3	1	FISH	n/a	PRINCE	FISH	2	[0, 0, 0]	-999	PAL1	0	R1278E
660.764	0.998	666208	PROBE_OFF	n/a	n/a	3	-999	n/a	n/a	n/a	n/a	2	[0, 0, 0]	-999	PAL1	0	R1278E
661.762	0.002	667206	REC_EVENT	5015	n/a	3	1	FISH	<>	PRINCE	FISH	2	[0, 0, 0]	-999	PAL1	0	R1278E
661.764	0.017	667208	REC_END	n/a	n/a	3	-999	n/a	n/a	n/a	n/a	2	[0, 0, 0]	-999	PAL1	0	R1278E
661.781	0.268	667225	TEST_ORIENT	n/a	n/a	2	2	WEB	TAIL	WEB	TAIL	2	[0, 0, 0]	-999	PAL1	0	R1278E
662.049	0.649	667493	RETRIEVAL_ORIENT_OFF	n/a	n/a	3	-999	n/a	n/a	n/a	n/a	2	[0, 0, 0]	-999	PAL1	0	R1278E
662.698	0.0	668142	TEST_PROBE	n/a	wordpools/wordpool_EN.txt	2	2	WEB	TAIL	WEB	TAIL	2	[0, 0, 0]	-999	PAL1	0	R1278E
662.698	3.904	668142	REC_START	n/a	n/a	2	-999	n/a	TAIL	n/a	n/a	2	[0, 0, 0]	-999	PAL1	0	R1278E
666.602	0.113	672046	REC_EVENT	3904	n/a	2	2	WEB	TAIL	WEB	TAIL	2	[0, 0, 0]	-999	PAL1	0	R1278E
666.715	1.0	672159	PROBE_OFF	n/a	n/a	2	-999	n/a	n/a	n/a	n/a	2	[0, 0, 0]	-999	PAL1	0	R1278E
667.715	0.017	673159	REC_END	n/a	n/a	2	-999	n/a	n/a	n/a	n/a	2	[0, 0, 0]	-999	PAL1	0	R1278E
667.732	0.268	673176	TEST_ORIENT	n/a	n/a	1	3	HAT	n/a	HAT	STAR	2	[0, 0, 0]	-999	PAL1	0	R1278E
668.0	0.599	673444	RETRIEVAL_ORIENT_OFF	n/a	n/a	2	-999	n/a	n/a	n/a	n/a	2	[0, 0, 0]	-999	PAL1	0	R1278E
668.599	0.0	674043	TEST_PROBE	n/a	wordpools/wordpool_EN.txt	1	3	HAT	n/a	HAT	STAR	2	[0, 0, 0]	-999	PAL1	0	R1278E
668.599	4.017	674043	REC_START	n/a	n/a	1	-999	n/a	n/a	n/a	n/a	2	[0, 0, 0]	-999	PAL1	0	R1278E
672.616	0.998	678060	PROBE_OFF	n/a	n/a	1	-999	n/a	n/a	n/a	n/a	2	[0, 0, 0]	-999	PAL1	0	R1278E
673.614	0.002	679058	REC_EVENT	5015	n/a	1	3	HAT	<>	HAT	STAR	2	[0, 0, 0]	-999	PAL1	0	R1278E
673.616	0.017	679060	REC_END	n/a	n/a	1	-999	n/a	n/a	n/a	n/a	2	[0, 0, 0]	-999	PAL1	0	R1278E
673.633	0.268	679077	TEST_ORIENT	n/a	n/a	6	4	LAND	n/a	LAND	CALF	2	[0, 0, 0]	-999	PAL1	0	R1278E
673.901	0.565	679345	RETRIEVAL_ORIENT_OFF	n/a	n/a	1	-999	n/a	n/a	n/a	n/a	2	[0, 0, 0]	-999	PAL1	0	R1278E
674.466	0.001	679910	TEST_PROBE	n/a	wordpools/wordpool_EN.txt	6	4	LAND	n/a	LAND	CALF	2	[0, 0, 0]	-999	PAL1	0	R1278E
674.467	1.31	679911	REC_START	n/a	n/a	6	-999	n/a	n/a	n/a	n/a	2	[0, 0, 0]	-999	PAL1	0	R1278E
675.777	1.0	681221	REC_EVENT	1310	n/a	6	4	LAND	<>	LAND	CALF	2	[0, 0, 0]	-999	PAL1	0	R1278E
676.777	1.707	682221	REC_EVENT	2310	n/a	6	4	LAND	<>	LAND	CALF	2	[0, 0, 0]	-999	PAL1	0	R1278E
678.484	1.0	683928	PROBE_OFF	n/a	n/a	6	-999	n/a	n/a	n/a	n/a	2	[0, 0, 0]	-999	PAL1	0	R1278E
679.484	0.017	684927	REC_END	n/a	n/a	6	-999	n/a	n/a	n/a	n/a	2	[0, 0, 0]	-999	PAL1	0	R1278E
679.501	0.266	684944	TEST_ORIENT	n/a	n/a	5	5	ROPE	SOAP	ROPE	SOAP	2	[0, 0, 0]	-999	PAL1	0	R1278E
679.767	0.567	685210	RETRIEVAL_ORIENT_OFF	n/a	n/a	6	-999	n/a	n/a	n/a	n/a	2	[0, 0, 0]	-999	PAL1	0	R1278E
680.334	0.001	685777	TEST_PROBE	n/a	wordpools/wordpool_EN.txt	5	5	ROPE	SOAP	ROPE	SOAP	2	[0, 0, 0]	-999	PAL1	0	R1278E
680.335	1.174	685778	REC_START	n/a	n/a	5	-999	n/a	SOAP	n/a	n/a	2	[0, 0, 0]	-999	PAL1	0	R1278E
681.509	1.0	686952	REC_EVENT	1174	n/a	5	5	ROPE	SOAP	ROPE	SOAP	2	[0, 0, 0]	-999	PAL1	0	R1278E
682.509	1.843	687952	REC_EVENT	2174	n/a	5	5	ROPE	<>	ROPE	SOAP	2	[0, 0, 0]	-999	PAL1	0	R1278E
684.352	1.0	689795	PROBE_OFF	n/a	n/a	5	-999	n/a	n/a	n/a	n/a	2	[0, 0, 0]	-999	PAL1	0	R1278E
685.352	0.016	690795	REC_END	n/a	n/a	5	-999	n/a	n/a	n/a	n/a	2	[0, 0, 0]	-999	PAL1	0	R1278E
685.368	0.267	690811	TEST_ORIENT	n/a	n/a	4	6	MAT	n/a	MAT	HOSE	2	[0, 0, 0]	-999	PAL1	0	R1278E
685.635	0.75	691078	RETRIEVAL_ORIENT_OFF	n/a	n/a	5	-999	n/a	n/a	n/a	n/a	2	[0, 0, 0]	-999	PAL1	0	R1278E
686.385	0.001	691828	TEST_PROBE	n/a	wordpools/wordpool_EN.txt	4	6	MAT	n/a	MAT	HOSE	2	[0, 0, 0]	-999	PAL1	0	R1278E
686.386	4.017	691829	REC_START	n/a	n/a	4	-999	n/a	n/a	n/a	n/a	2	[0, 0, 0]	-999	PAL1	0	R1278E
690.403	0.998	695846	PROBE_OFF	n/a	n/a	4	-999	n/a	n/a	n/a	n/a	2	[0, 0, 0]	-999	PAL1	0	R1278E
691.401	0.002	696844	REC_EVENT	5015	n/a	4	6	MAT	<>	MAT	HOSE	2	[0, 0, 0]	-999	PAL1	0	R1278E
691.403	0.01	696846	REC_END	n/a	n/a	4	-999	n/a	n/a	n/a	n/a	2	[0, 0, 0]	-999	PAL1	0	R1278E
691.413	14.009	696856	RECALL_END	n/a	n/a	-999	-999	n/a	n/a	n/a	n/a	2	[0, 0, 0]	-999	PAL1	0	R1278E
705.422	10.929	710864	TRIAL	n/a	n/a	-999	-999	n/a	n/a	n/a	n/a	3	[0, 0, 0]	-999	PAL1	0	R1278E
716.351	0.006	721793	ENCODING_START	n/a	n/a	-999	-999	n/a	n/a	n/a	n/a	3	[0, 0, 0]	-999	PAL1	0	R1278E
716.357	0.267	721799	STUDY_ORIENT	n/a	n/a	1	1	MOUSE	n/a	CAPE	MOUSE	3	[0, 0, 0]	-999	PAL1	0	R1278E
716.624	0.717	722066	STUDY_ORIENT_OFF	n/a	n/a	1	1	MOUSE	n/a	CAPE	MOUSE	3	[0, 0, 0]	-999	PAL1	0	R1278E
717.341	4.017	722783	STUDY_PAIR	n/a	wordpools/wordpool_EN.txt	1	1	MOUSE	n/a	CAPE	MOUSE	3	[0, 0, 0]	-999	PAL1	0	R1278E
721.358	1.017	726800	PAIR_OFF	n/a	n/a	1	1	MOUSE	n/a	CAPE	MOUSE	3	[0, 0, 0]	-999	PAL1	0	R1278E
722.375	0.266	727817	STUDY_ORIENT	n/a	n/a	2	2	ROOM	PASS	ROOM	GRASS	3	[0, 0, 0]	-999	PAL1	0	R1278E
722.641	0.535	728083	STUDY_ORIENT_OFF	n/a	n/a	2	2	ROOM	PASS	ROOM	GRASS	3	[0, 0, 0]	-999	PAL1	0	R1278E
723.176	4.017	728618	STUDY_PAIR	n/a	wordpools/wordpool_EN.txt	2	2	ROOM	PASS	ROOM	GRASS	3	[0, 0, 0]	-999	PAL1	0	R1278E
727.193	1.017	732635	PAIR_OFF	n/a	n/a	2	2	ROOM	PASS	ROOM	GRASS	3	[0, 0, 0]	-999	PAL1	0	R1278E
728.21	0.266	733652	STUDY_ORIENT	n/a	n/a	3	5	CASH	PASS	CASH	LOCK	3	[0, 0, 0]	-999	PAL1	0	R1278E
728.476	0.518	733918	STUDY_ORIENT_OFF	n/a	n/a	3	5	CASH	PASS	CASH	LOCK	3	[0, 0, 0]	-999	PAL1	0	R1278E
728.994	4.017	734436	STUDY_PAIR	n/a	wordpools/wordpool_EN.txt	3	5	CASH	PASS	CASH	LOCK	3	[0, 0, 0]	-999	PAL1	0	R1278E
733.011	1.017	738452	PAIR_OFF	n/a	n/a	3	5	CASH	PASS	CASH	LOCK	3	[0, 0, 0]	-999	PAL1	0	R1278E
734.028	0.267	739469	STUDY_ORIENT	n/a	n/a	4	6	NET	PANTS	NET	PANTS	3	[0, 0, 0]	-999	PAL1	0	R1278E
734.295	0.65	739736	STUDY_ORIENT_OFF	n/a	n/a	4	6	NET	PANTS	NET	PANTS	3	[0, 0, 0]	-999	PAL1	0	R1278E
734.945	4.017	740386	STUDY_PAIR	n/a	wordpools/wordpool_EN.txt	4	6	NET	PANTS	NET	PANTS	3	[0, 0, 0]	-999	PAL1	0	R1278E
738.962	1.017	744403	PAIR_OFF	n/a	n/a	4	6	NET	PANTS	NET	PANTS	3	[0, 0, 0]	-999	PAL1	0	R1278E
739.979	0.267	745420	STUDY_ORIENT	n/a	n/a	5	3	TIE	PASS	TOOTH	TIE	3	[0, 0, 0]	-999	PAL1	0	R1278E
740.246	0.716	745687	STUDY_ORIENT_OFF	n/a	n/a	5	3	TIE	PASS	TOOTH	TIE	3	[0, 0, 0]	-999	PAL1	0	R1278E
740.962	4.001	746403	STUDY_PAIR	n/a	wordpools/wordpool_EN.txt	5	3	TIE	PASS	TOOTH	TIE	3	[0, 0, 0]	-999	PAL1	0	R1278E
744.963	1.017	750404	PAIR_OFF	n/a	n/a	5	3	TIE	PASS	TOOTH	TIE	3	[0, 0, 0]	-999	PAL1	0	R1278E
745.98	0.267	751421	STUDY_ORIENT	n/a	n/a	6	4	JEEP	STEAM	JEEP	STEAM	3	[0, 0, 0]	-999	PAL1	0	R1278E
746.247	0.633	751688	STUDY_ORIENT_OFF	n/a	n/a	6	4	JEEP	STEAM	JEEP	STEAM	3	[0, 0, 0]	-999	PAL1	0	R1278E
746.88	4.017	752321	STUDY_PAIR	n/a	wordpools/wordpool_EN.txt	6	4	JEEP	STEAM	JEEP	STEAM	3	[0, 0, 0]	-999	PAL1	0	R1278E
750.897	1.0	756338	PAIR_OFF	n/a	n/a	6	4	JEEP	STEAM	JEEP	STEAM	3	[0, 0, 0]	-999	PAL1	0	R1278E
751.897	0.0	757338	ENCODING_END	n/a	n/a	-999	-999	n/a	n/a	n/a	n/a	3	[0, 0, 0]	-999	PAL1	0	R1278E
751.897	0.0	757338	MATH_START	n/a	n/a	-999	-999	n/a	n/a	n/a	n/a	3	[0, 0, 0]	-999	PAL1	0	R1278E
751.897	0.017	757338	START	n/a	n/a	-999	-999	n/a	n/a	n/a	n/a	3	[-999, -999, -999]	-999	PAL1	0	R1278E
751.914	2.75	757355	PROB	2718	n/a	-999	-999	n/a	n/a	n/a	n/a	3	[2, 1, 6]	9	PAL1	0	R1278E
754.664	4.134	760104	PROB	4112	n/a	-999	-999	n/a	n/a	n/a	n/a	3	[6, 6, 4]	16	PAL1	0	R1278E
758.798	5.452	764238	PROB	5429	n/a	-999	-999	n/a	n/a	n/a	n/a	3	[5, 9, 4]	18	PAL1	0	R1278E
764.25	7.567	769690	PROB	7543	n/a	-999	-999	n/a	n/a	n/a	n/a	3	[5, 6, 7]	18	PAL1	0	R1278E
771.817	4.96	777257	PROB	4960	n/a	-999	-999	n/a	n/a	n/a	n/a	3	[2, 5, 4]	11	PAL1	0	R1278E
776.777	0.007	782217	STOP	n/a	n/a	-999	-999	n/a	n/a	n/a	n/a	3	[-999, -999, -999]	-999	PAL1	0	R1278E
776.784	0.0	782224	MATH_END	n/a	n/a	-999	-999	n/a	n/a	n/a	n/a	3	[0, 0, 0]	-999	PAL1	0	R1278E
776.784	0.017	782224	RECALL_START	n/a	n/a	-999	-999	n/a	n/a	n/a	n/a	3	[0, 0, 0]	-999	PAL1	0	R1278E
776.801	0.251	782241	TEST_ORIENT	n/a	n/a	1	1	MOUSE	n/a	CAPE	MOUSE	3	[0, 0, 0]	-999	PAL1	0	R1278E
777.052	0.532	782492	RETRIEVAL_ORIENT_OFF	n/a	n/a	-999	-999	n/a	n/a	n/a	n/a	3	[0, 0, 0]	-999	PAL1	0	R1278E
777.584	0.001	783024	TEST_PROBE	n/a	wordpools/wordpool_EN.txt	1	1	MOUSE	n/a	CAPE	MOUSE	3	[0, 0, 0]	-999	PAL1	0	R1278E
777.585	4.017	783025	REC_START	n/a	n/a	1	-999	n/a	n/a	n/a	n/a	3	[0, 0, 0]	-999	PAL1	0	R1278E
781.602	0.998	787041	PROBE_OFF	n/a	n/a	1	-999	n/a	n/a	n/a	n/a	3	[0, 0, 0]	-999	PAL1	0	R1278E
782.6	0.002	788039	REC_EVENT	5015	n/a	1	1	MOUSE	<>	CAPE	MOUSE	3	[0, 0, 0]	-999	PAL1	0	R1278E
782.602	0.017	788041	REC_END	n/a	n/a	1	-999	n/a	n/a	n/a	n/a	3	[0, 0, 0]	-999	PAL1	0	R1278E
782.619	0.267	788058	TEST_ORIENT	n/a	n/a	2	2	ROOM	PASS	ROOM	GRASS	3	[0, 0, 0]	-999	PAL1	0	R1278E
782.886	0.683	788325	RETRIEVAL_ORIENT_OFF	n/a	n/a	1	-999	n/a	n/a	n/a	n/a	3	[0, 0, 0]	-999	PAL1	0	R1278E
783.569	0.0	789008	TEST_PROBE	n/a	wordpools/wordpool_EN.txt	2	2	ROOM	PASS	ROOM	GRASS	3	[0, 0, 0]	-999	PAL1	0	R1278E
783.569	1.656	789008	REC_START	n/a	n/a	2	-999	n/a	PASS	n/a	n/a	3	[0, 0, 0]	-999	PAL1	0	R1278E
785.225	2.361	790664	REC_EVENT	1656	n/a	2	2	ROOM	PASS	ROOM	GRASS	3	[0, 0, 0]	-999	PAL1	0	R1278E
787.586	1.001	793025	PROBE_OFF	n/a	n/a	2	-999	n/a	n/a	n/a	n/a	3	[0, 0, 0]	-999	PAL1	0	R1278E
788.587	0.016	794026	REC_END	n/a	n/a	2	-999	n/a	n/a	n/a	n/a	3	[0, 0, 0]	-999	PAL1	0	R1278E
788.603	0.268	794042	TEST_ORIENT	n/a	n/a	5	3	TIE	PASS	TOOTH	TIE	3	[0, 0, 0]	-999	PAL1	0	R1278E
788.871	0.599	794310	RETRIEVAL_ORIENT_OFF	n/a	n/a	2	-999	n/a	n/a	n/a	n/a	3	[0, 0, 0]	-999	PAL1	0	R1278E
789.47	0.0	794909	TEST_PROBE	n/a	wordpools/wordpool_EN.txt	5	3	TIE	PASS	TOOTH	TIE	3	[0, 0, 0]	-999	PAL1	0	R1278E
789.47	1.842	794909	REC_START	n/a	n/a	5	-999	n/a	PASS	n/a	n/a	3	[0, 0, 0]	-999	PAL1	0	R1278E
791.312	2.059	796751	REC_EVENT	1842	n/a	5	3	TIE	<>	TOOTH	TIE	3	[0, 0, 0]	-999	PAL1	0	R1278E
793.371	0.116	798810	REC_EVENT	3901	n/a	5	3	TIE	PASS	TOOTH	TIE	3	[0, 0, 0]	-999	PAL1	0	R1278E
793.487	1.001	798926	PROBE_OFF	n/a	n/a	5	-999	n/a	n/a	n/a	n/a	3	[0, 0, 0]	-999	PAL1	0	R1278E
794.488	0.016	799927	REC_END	n/a	n/a	5	-999	n/a	n/a	n/a	n/a	3	[0, 0, 0]	-999	PAL1	0	R1278E
794.504	0.267	799943	TEST_ORIENT	n/a	n/a	6	4	JEEP	STEAM	JEEP	STEAM	3	[0, 0, 0]	-999	PAL1	0	R1278E
794.771	0.75	800210	RETRIEVAL_ORIENT_OFF	n/a	n/a	5	-999	n/a	n/a	n/a	n/a	3	[0, 0, 0]	-999	PAL1	0	R1278E
795.521	0.0	800960	TEST_PROBE	n/a	wordpools/wordpool_EN.txt	6	4	JEEP	STEAM	JEEP	STEAM	3	[0, 0, 0]	-999	PAL1	0	R1278E
795.521	2.5	800960	REC_START	n/a	n/a	6	-999	n/a	STEAM	n/a	n/a	3	[0, 0, 0]	-999	PAL1	0	R1278E
798.021	1.517	803460	REC_EVENT	2500	n/a	6	4	JEEP	STEAM	JEEP	STEAM	3	[0, 0, 0]	-999	PAL1	0	R1278E
799.538	1.0	804977	PROBE_OFF	n/a	n/a	6	-999	n/a	n/a	n/a	n/a	3	[0, 0, 0]	-999	PAL1	0	R1278E
800.538	0.017	805977	REC_END	n/a	n/a	6	-999	n/a	n/a	n/a	n/a	3	[0, 0, 0]	-999	PAL1	0	R1278E
800.555	0.266	805994	TEST_ORIENT	n/a	n/a	3	5	CASH	PASS	CASH	LOCK	3	[0, 0, 0]	-999	PAL1	0	R1278E
800.821	0.551	806260	RETRIEVAL_ORIENT_OFF	n/a	n/a	6	-999	n/a	n/a	n/a	n/a	3	[0, 0, 0]	-999	PAL1	0	R1278E
801.372	0.0	806811	TEST_PROBE	n/a	wordpools/wordpool_EN.txt	3	5	CASH	PASS	CASH	LOCK	3	[0, 0, 0]	-999	PAL1	0	R1278E
801.372	2.579	806811	REC_START	n/a	n/a	3	-999	n/a	PASS	n/a	n/a	3	[0, 0, 0]	-999	PAL1	0	R1278E
803.951	1.438	809389	REC_EVENT	2579	n/a	3	5	CASH	PASS	CASH	LOCK	3	[0, 0, 0]	-999	PAL1	0	R1278E
805.389	1.0	810827	PROBE_OFF	n/a	n/a	3	-999	n/a	n/a	n/a	n/a	3	[0, 0, 0]	-999	PAL1	0	R1278E
806.389	0.017	811827	REC_END	n/a	n/a	3	-999	n/a	n/a	n/a	n/a	3	[0, 0, 0]	-999	PAL1	0	R1278E
806.406	0.267	811844	TEST_ORIENT	n/a	n/a	4	6	NET	PANTS	NET	PANTS	3	[0, 0, 0]	-999	PAL1	0	R1278E
806.673	0.534	812111	RETRIEVAL_ORIENT_OFF	n/a	n/a	3	-999	n/a	n/a	n/a	n/a	3	[0, 0, 0]	-999	PAL1	0	R1278E
807.207	0.001	812645	TEST_PROBE	n/a	wordpools/wordpool_EN.txt	4	6	NET	PANTS	NET	PANTS	3	[0, 0, 0]	-999	PAL1	0	R1278E
807.208	1.594	812646	REC_START	n/a	n/a	4	-999	n/a	PANTS	n/a	n/a	3	[0, 0, 0]	-999	PAL1	0	R1278E
808.802	2.423	814240	REC_EVENT	1594	n/a	4	6	NET	PANTS	NET	PANTS	3	[0, 0, 0]	-999	PAL1	0	R1278E
811.225	1.0	816663	PROBE_OFF	n/a	n/a	4	-999	n/a	n/a	n/a	n/a	3	[0, 0, 0]	-999	PAL1	0	R1278E
812.225	0.011	817663	REC_END	n/a	n/a	4	-999	n/a	n/a	n/a	n/a	3	[0, 0, 0]	-999	PAL1	0	R1278E
812.236	7.272	817674	RECALL_END	n/a	n/a	-999	-999	n/a	n/a	n/a	n/a	3	[0, 0, 0]	-999	PAL1	0	R1278E
819.508	10.929	824946	TRIAL	n/a	n/a	-999	-999	n/a	n/a	n/a	n/a	4	[0, 0, 0]	-999	PAL1	0	R1278E
830.437	0.007	835874	ENCODING_START	n/a	n/a	-999	-999	n/a	n/a	n/a	n/a	4	[0, 0, 0]	-999	PAL1	0	R1278E
830.444	0.266	835881	STUDY_ORIENT	n/a	n/a	1	1	RAIN	n/a	RAIN	MOTH	4	[0, 0, 0]	-999	PAL1	0	R1278E
830.71	0.601	836147	STUDY_ORIENT_OFF	n/a	n/a	1	1	RAIN	n/a	RAIN	MOTH	4	[0, 0, 0]	-999	PAL1	0	R1278E
831.311	4.017	836748	STUDY_PAIR	n/a	wordpools/wordpool_EN.txt	1	1	RAIN	n/a	RAIN	MOTH	4	[0, 0, 0]	-999	PAL1	0	R1278E
835.328	1.017	840765	PAIR_OFF	n/a	n/a	1	1	RAIN	n/a	RAIN	MOTH	4	[0, 0, 0]	-999	PAL1	0	R1278E
836.345	0.266	841782	STUDY_ORIENT	n/a	n/a	2	4	TRAY	n/a	TRAY	HEN	4	[0, 0, 0]	-999	PAL1	0	R1278E
836.611	0.635	842048	STUDY_ORIENT_OFF	n/a	n/a	2	4	TRAY	n/a	TRAY	HEN	4	[0, 0, 0]	-999	PAL1	0	R1278E
837.246	4.017	842683	STUDY_PAIR	n/a	wordpools/wordpool_EN.txt	2	4	TRAY	n/a	TRAY	HEN	4	[0, 0, 0]	-999	PAL1	0	R1278E
841.263	1.017	846700	PAIR_OFF	n/a	n/a	2	4	TRAY	n/a	TRAY	HEN	4	[0, 0, 0]	-999	PAL1	0	R1278E
842.28	0.266	847717	STUDY_ORIENT	n/a	n/a	3	3	COW	n/a	COUCH	COW	4	[0, 0, 0]	-999	PAL1	0	R1278E
842.546	0.651	847983	STUDY_ORIENT_OFF	n/a	n/a	3	3	COW	n/a	COUCH	COW	4	[0, 0, 0]	-999	PAL1	0	R1278E
843.197	4.017	848634	STUDY_PAIR	n/a	wordpools/wordpool_EN.txt	3	3	COW	n/a	COUCH	COW	4	[0, 0, 0]	-999	PAL1	0	R1278E
847.214	1.017	852651	PAIR_OFF	n/a	n/a	3	3	COW	n/a	COUCH	COW	4	[0, 0, 0]	-999	PAL1	0	R1278E
848.231	0.266	853668	STUDY_ORIENT	n/a	n/a	4	6	STONE	n/a	PLANE	STONE	4	[0, 0, 0]	-999	PAL1	0	R1278E
848.497	0.634	853934	STUDY_ORIENT_OFF	n/a	n/a	4	6	STONE	n/a	PLANE	STONE	4	[0, 0, 0]	-999	PAL1	0	R1278E
849.131	4.018	854568	STUDY_PAIR	n/a	wordpools/wordpool_EN.txt	4	6	STONE	n/a	PLANE	STONE	4	[0, 0, 0]	-999	PAL1	0	R1278E
853.149	1.017	858586	PAIR_OFF	n/a	n/a	4	6	STONE	n/a	PLANE	STONE	4	[0, 0, 0]	-999	PAL1	0	R1278E
854.166	0.265	859602	STUDY_ORIENT	n/a	n/a	5	5	CLOWN	n/a	CLOWN	HORN	4	[0, 0, 0]	-999	PAL1	0	R1278E
854.431	0.668	859867	STUDY_ORIENT_OFF	n/a	n/a	5	5	CLOWN	n/a	CLOWN	HORN	4	[0, 0, 0]	-999	PAL1	0	R1278E
855.099	4.017	860535	STUDY_PAIR	n/a	wordpools/wordpool_EN.txt	5	5	CLOWN	n/a	CLOWN	HORN	4	[0, 0, 0]	-999	PAL1	0	R1278E
859.116	1.017	864552	PAIR_OFF	n/a	n/a	5	5	CLOWN	n/a	CLOWN	HORN	4	[0, 0, 0]	-999	PAL1	0	R1278E
860.133	0.266	865569	STUDY_ORIENT	n/a	n/a	6	2	WORLD	n/a	POOL	WORLD	4	[0, 0, 0]	-999	PAL1	0	R1278E
860.399	0.634	865835	STUDY_ORIENT_OFF	n/a	n/a	6	2	WORLD	n/a	POOL	WORLD	4	[0, 0, 0]	-999	PAL1	0	R1278E
861.033	4.018	866469	STUDY_PAIR	n/a	wordpools/wordpool_EN.txt	6	2	WORLD	n/a	POOL	WORLD	4	[0, 0, 0]	-999	PAL1	0	R1278E
865.051	1.001	870487	PAIR_OFF	n/a	n/a	6	2	WORLD	n/a	POOL	WORLD	4	[0, 0, 0]	-999	PAL1	0	R1278E
866.052	0.0	871488	ENCODING_END	n/a	n/a	-999	-999	n/a	n/a	n/a	n/a	4	[0, 0, 0]	-999	PAL1	0	R1278E
866.052	0.001	871488	MATH_START	n/a	n/a	-999	-999	n/a	n/a	n/a	n/a	4	[0, 0, 0]	-999	PAL1	0	R1278E
866.053	0.015	871489	START	n/a	n/a	-999	-999	n/a	n/a	n/a	n/a	4	[-999, -999, -999]	-999	PAL1	0	R1278E
866.068	7.851	871504	PROB	7814	n/a	-999	-999	n/a	n/a	n/a	n/a	4	[2, 8, 7]	17	PAL1	0	R1278E
873.919	2.699	879355	PROB	2667	n/a	-999	-999	n/a	n/a	n/a	n/a	4	[1, 1, 3]	5	PAL1	0	R1278E
876.618	4.818	882054	PROB	4791	n/a	-999	-999	n/a	n/a	n/a	n/a	4	[5, 6, 2]	13	PAL1	0	R1278E
881.436	6.358	886871	PROB	6358	n/a	-999	-999	n/a	n/a	n/a	n/a	4	[5, 7, 6]	18	PAL1	0	R1278E
887.794	0.01	893229	STOP	n/a	n/a	-999	-999	n/a	n/a	n/a	n/a	4	[-999, -999, -999]	-999	PAL1	0	R1278E
887.804	0.0	893239	MATH_END	n/a	n/a	-999	-999	n/a	n/a	n/a	n/a	4	[0, 0, 0]	-999	PAL1	0	R1278E
887.804	0.016	893239	RECALL_START	n/a	n/a	-999	-999	n/a	n/a	n/a	n/a	4	[0, 0, 0]	-999	PAL1	0	R1278E
887.82	0.268	893255	TEST_ORIENT	n/a	n/a	1	1	RAIN	n/a	RAIN	MOTH	4	[0, 0, 0]	-999	PAL1	0	R1278E
888.088	0.682	893523	RETRIEVAL_ORIENT_OFF	n/a	n/a	-999	-999	n/a	n/a	n/a	n/a	4	[0, 0, 0]	-999	PAL1	0	R1278E
888.77	0.001	894205	TEST_PROBE	n/a	wordpools/wordpool_EN.txt	1	1	RAIN	n/a	RAIN	MOTH	4	[0, 0, 0]	-999	PAL1	0	R1278E
888.771	0.0	894206	REC_START	n/a	n/a	1	-999	n/a	n/a	n/a	n/a	4	[0, 0, 0]	-999	PAL1	0	R1278E
888.771	4.017	894206	REC_EVENT	0	n/a	1	1	RAIN	<>	RAIN	MOTH	4	[0, 0, 0]	-999	PAL1	0	R1278E
892.788	1.011	898223	PROBE_OFF	n/a	n/a	1	-999	n/a	n/a	n/a	n/a	4	[0, 0, 0]	-999	PAL1	0	R1278E
893.799	0.022	899234	REC_END	n/a	n/a	1	-999	n/a	n/a	n/a	n/a	4	[0, 0, 0]	-999	PAL1	0	R1278E
893.821	0.268	899256	TEST_ORIENT	n/a	n/a	6	2	WORLD	n/a	POOL	WORLD	4	[0, 0, 0]	-999	PAL1	0	R1278E
894.089	0.632	899524	RETRIEVAL_ORIENT_OFF	n/a	n/a	1	-999	n/a	n/a	n/a	n/a	4	[0, 0, 0]	-999	PAL1	0	R1278E
894.721	0.001	900156	TEST_PROBE	n/a	wordpools/wordpool_EN.txt	6	2	WORLD	n/a	POOL	WORLD	4	[0, 0, 0]	-999	PAL1	0	R1278E
894.722	4.017	900157	REC_START	n/a	n/a	6	-999	n/a	n/a	n/a	n/a	4	[0, 0, 0]	-999	PAL1	0	R1278E
898.739	0.998	904174	PROBE_OFF	n/a	n/a	6	-999	n/a	n/a	n/a	n/a	4	[0, 0, 0]	-999	PAL1	0	R1278E
899.737	0.002	905172	REC_EVENT	5015	n/a	6	2	WORLD	<>	POOL	WORLD	4	[0, 0, 0]	-999	PAL1	0	R1278E
899.739	0.017	905174	REC_END	n/a	n/a	6	-999	n/a	n/a	n/a	n/a	4	[0, 0, 0]	-999	PAL1	0	R1278E
899.756	0.267	905191	TEST_ORIENT	n/a	n/a	3	3	COW	n/a	COUCH	COW	4	[0, 0, 0]	-999	PAL1	0	R1278E
900.023	0.683	905458	RETRIEVAL_ORIENT_OFF	n/a	n/a	6	-999	n/a	n/a	n/a	n/a	4	[0, 0, 0]	-999	PAL1	0	R1278E
900.706	0.0	906141	TEST_PROBE	n/a	wordpools/wordpool_EN.txt	3	3	COW	n/a	COUCH	COW	4	[0, 0, 0]	-999	PAL1	0	R1278E
900.706	4.017	906141	REC_START	n/a	n/a	3	-999	n/a	n/a	n/a	n/a	4	[0, 0, 0]	-999	PAL1	0	R1278E
904.723	0.998	910157	PROBE_OFF	n/a	n/a	3	-999	n/a	n/a	n/a	n/a	4	[0, 0, 0]	-999	PAL1	0	R1278E
905.721	0.002	911155	REC_EVENT	5015	n/a	3	3	COW	<>	COUCH	COW	4	[0, 0, 0]	-999	PAL1	0	R1278E
905.723	0.017	911157	REC_END	n/a	n/a	3	-999	n/a	n/a	n/a	n/a	4	[0, 0, 0]	-999	PAL1	0	R1278E
905.74	0.251	911174	TEST_ORIENT	n/a	n/a	2	4	TRAY	n/a	TRAY	HEN	4	[0, 0, 0]	-999	PAL1	0	R1278E
905.991	0.749	911425	RETRIEVAL_ORIENT_OFF	n/a	n/a	3	-999	n/a	n/a	n/a	n/a	4	[0, 0, 0]	-999	PAL1	0	R1278E
906.74	0.001	912174	TEST_PROBE	n/a	wordpools/wordpool_EN.txt	2	4	TRAY	n/a	TRAY	HEN	4	[0, 0, 0]	-999	PAL1	0	R1278E
906.741	2.492	912175	REC_START	n/a	n/a	2	-999	n/a	n/a	n/a	n/a	4	[0, 0, 0]	-999	PAL1	0	R1278E
909.233	1.525	914667	REC_EVENT	2492	n/a	2	4	TRAY	<>	TRAY	HEN	4	[0, 0, 0]	-999	PAL1	0	R1278E
910.758	1.011	916192	PROBE_OFF	n/a	n/a	2	-999	n/a	n/a	n/a	n/a	4	[0, 0, 0]	-999	PAL1	0	R1278E
911.769	0.022	917203	REC_END	n/a	n/a	2	-999	n/a	n/a	n/a	n/a	4	[0, 0, 0]	-999	PAL1	0	R1278E
911.791	0.268	917225	TEST_ORIENT	n/a	n/a	5	5	CLOWN	n/a	CLOWN	HORN	4	[0, 0, 0]	-999	PAL1	0	R1278E
912.059	0.649	917493	RETRIEVAL_ORIENT_OFF	n/a	n/a	2	-999	n/a	n/a	n/a	n/a	4	[0, 0, 0]	-999	PAL1	0	R1278E
912.708	0.001	918142	TEST_PROBE	n/a	wordpools/wordpool_EN.txt	5	5	CLOWN	n/a	CLOWN	HORN	4	[0, 0, 0]	-999	PAL1	0	R1278E
912.709	4.016	918143	REC_START	n/a	n/a	5	-999	n/a	n/a	n/a	n/a	4	[0, 0, 0]	-999	PAL1	0	R1278E
916.725	0.984	922159	PROBE_OFF	n/a	n/a	5	-999	n/a	n/a	n/a	n/a	4	[0, 0, 0]	-999	PAL1	0	R1278E
917.709	0.016	923143	REC_EVENT	5000	n/a	5	5	CLOWN	<>	CLOWN	HORN	4	[0, 0, 0]	-999	PAL1	0	R1278E
917.725	0.017	923159	REC_END	n/a	n/a	5	-999	n/a	n/a	n/a	n/a	4	[0, 0, 0]	-999	PAL1	0	R1278E
917.742	0.251	923176	TEST_ORIENT	n/a	n/a	4	6	STONE	n/a	PLANE	STONE	4	[0, 0, 0]	-999	PAL1	0	R1278E
917.993	0.633	923427	RETRIEVAL_ORIENT_OFF	n/a	n/a	5	-999	n/a	n/a	n/a	n/a	4	[0, 0, 0]	-999	PAL1	0	R1278E
918.626	0.0	924060	TEST_PROBE	n/a	wordpools/wordpool_EN.txt	4	6	STONE	n/a	PLANE	STONE	4	[0, 0, 0]	-999	PAL1	0	R1278E
918.626	4.017	924060	REC_START	n/a	n/a	4	-999	n/a	n/a	n/a	n/a	4	[0, 0, 0]	-999	PAL1	0	R1278E
922.643	0.998	928077	PROBE_OFF	n/a	n/a	4	-999	n/a	n/a	n/a	n/a	4	[0, 0, 0]	-999	PAL1	0	R1278E
923.641	0.002	929075	REC_EVENT	5015	n/a	4	6	STONE	<>	PLANE	STONE	4	[0, 0, 0]	-999	PAL1	0	R1278E
923.643	0.01	929077	REC_END	n/a	n/a	4	-999	n/a	n/a	n/a	n/a	4	[0, 0, 0]	-999	PAL1	0	R1278E
923.653	291.442	929087	RECALL_END	n/a	n/a	-999	-999	n/a	n/a	n/a	n/a	4	[0, 0, 0]	-999	PAL1	0	R1278E
1215.095	10.928	1220517	TRIAL	n/a	n/a	-999	-999	n/a	n/a	n/a	n/a	5	[0, 0, 0]	-999	PAL1	0	R1278E
1226.023	0.007	1231445	ENCODING_START	n/a	n/a	-999	-999	n/a	n/a	n/a	n/a	5	[0, 0, 0]	-999	PAL1	0	R1278E
1226.03	0.267	1231452	STUDY_ORIENT	n/a	n/a	1	3	SKY	n/a	SKY	PIN	5	[0, 0, 0]	-999	PAL1	0	R1278E
1226.297	0.65	1231719	STUDY_ORIENT_OFF	n/a	n/a	1	3	SKY	n/a	SKY	PIN	5	[0, 0, 0]	-999	PAL1	0	R1278E
1226.947	4.018	1232368	STUDY_PAIR	n/a	wordpools/wordpool_EN.txt	1	3	SKY	n/a	SKY	PIN	5	[0, 0, 0]	-999	PAL1	0	R1278E
1230.965	1.016	1236386	PAIR_OFF	n/a	n/a	1	3	SKY	n/a	SKY	PIN	5	[0, 0, 0]	-999	PAL1	0	R1278E
1231.981	0.267	1237402	STUDY_ORIENT	n/a	n/a	2	6	HORSE	n/a	TOY	HORSE	5	[0, 0, 0]	-999	PAL1	0	R1278E
1232.248	0.584	1237669	STUDY_ORIENT_OFF	n/a	n/a	2	6	HORSE	n/a	TOY	HORSE	5	[0, 0, 0]	-999	PAL1	0	R1278E
1232.832	4.017	1238253	STUDY_PAIR	n/a	wordpools/wordpool_EN.txt	2	6	HORSE	n/a	TOY	HORSE	5	[0, 0, 0]	-999	PAL1	0	R1278E
1236.849	1.017	1242270	PAIR_OFF	n/a	n/a	2	6	HORSE	n/a	TOY	HORSE	5	[0, 0, 0]	-999	PAL1	0	R1278E
1237.866	0.267	1243287	STUDY_ORIENT	n/a	n/a	3	5	STEAK	PIT	STEAK	PIT	5	[0, 0, 0]	-999	PAL1	0	R1278E
1238.133	0.532	1243554	STUDY_ORIENT_OFF	n/a	n/a	3	5	STEAK	PIT	STEAK	PIT	5	[0, 0, 0]	-999	PAL1	0	R1278E
1238.665	4.017	1244086	STUDY_PAIR	n/a	wordpools/wordpool_EN.txt	3	5	STEAK	PIT	STEAK	PIT	5	[0, 0, 0]	-999	PAL1	0	R1278E
1242.682	1.017	1248103	PAIR_OFF	n/a	n/a	3	5	STEAK	PIT	STEAK	PIT	5	[0, 0, 0]	-999	PAL1	0	R1278E
1243.699	0.268	1249120	STUDY_ORIENT	n/a	n/a	4	2	BOARD	CHIN	BOARD	CHIN	5	[0, 0, 0]	-999	PAL1	0	R1278E
1243.967	0.532	1249388	STUDY_ORIENT_OFF	n/a	n/a	4	2	BOARD	CHIN	BOARD	CHIN	5	[0, 0, 0]	-999	PAL1	0	R1278E
1244.499	4.018	1249920	STUDY_PAIR	n/a	wordpools/wordpool_EN.txt	4	2	BOARD	CHIN	BOARD	CHIN	5	[0, 0, 0]	-999	PAL1	0	R1278E
1248.517	1.016	1253938	PAIR_OFF	n/a	n/a	4	2	BOARD	CHIN	BOARD	CHIN	5	[0, 0, 0]	-999	PAL1	0	R1278E
1249.533	0.267	1254954	STUDY_ORIENT	n/a	n/a	5	1	CHEEK	n/a	DOG	CHEEK	5	[0, 0, 0]	-999	PAL1	0	R1278E
1249.8	0.617	1255221	STUDY_ORIENT_OFF	n/a	n/a	5	1	CHEEK	n/a	DOG	CHEEK	5	[0, 0, 0]	-999	PAL1	0	R1278E
1250.417	4.017	1255838	STUDY_PAIR	n/a	wordpools/wordpool_EN.txt	5	1	CHEEK	n/a	DOG	CHEEK	5	[0, 0, 0]	-999	PAL1	0	R1278E
1254.434	1.017	1259854	PAIR_OFF	n/a	n/a	5	1	CHEEK	n/a	DOG	CHEEK	5	[0, 0, 0]	-999	PAL1	0	R1278E
1255.451	0.267	1260871	STUDY_ORIENT	n/a	n/a	6	4	HAWK	PET	HAWK	PET	5	[0, 0, 0]	-999	PAL1	0	R1278E
1255.718	0.683	1261138	STUDY_ORIENT_OFF	n/a	n/a	6	4	HAWK	PET	HAWK	PET	5	[0, 0, 0]	-999	PAL1	0	R1278E
1256.401	4.018	1261821	STUDY_PAIR	n/a	wordpools/wordpool_EN.txt	6	4	HAWK	PET	HAWK	PET	5	[0, 0, 0]	-999	PAL1	0	R1278E
1260.419	1.0	1265839	PAIR_OFF	n/a	n/a	6	4	HAWK	PET	HAWK	PET	5	[0, 0, 0]	-999	PAL1	0	R1278E
1261.419	0.0	1266839	ENCODING_END	n/a	n/a	-999	-999	n/a	n/a	n/a	n/a	5	[0, 0, 0]	-999	PAL1	0	R1278E
1261.419	0.001	1266839	MATH_START	n/a	n/a	-999	-999	n/a	n/a	n/a	n/a	5	[0, 0, 0]	-999	PAL1	0	R1278E
1261.42	0.016	1266840	START	n/a	n/a	-999	-999	n/a	n/a	n/a	n/a	5	[-999, -999, -999]	-999	PAL1	0	R1278E
1261.436	6.868	1266856	PROB	6839	n/a	-999	-999	n/a	n/a	n/a	n/a	5	[4, 5, 8]	17	PAL1	0	R1278E
1268.304	5.384	1273724	PROB	5354	n/a	-999	-999	n/a	n/a	n/a	n/a	5	[5, 6, 3]	14	PAL1	0	R1278E
1273.688	4.168	1279108	PROB	4130	n/a	-999	-999	n/a	n/a	n/a	n/a	5	[9, 3, 9]	21	PAL1	0	R1278E
1277.856	6.5	1283275	PROB	6500	n/a	-999	-999	n/a	n/a	n/a	n/a	5	[6, 8, 5]	19	PAL1	0	R1278E
1284.356	0.017	1289775	STOP	n/a	n/a	-999	-999	n/a	n/a	n/a	n/a	5	[-999, -999, -999]	-999	PAL1	0	R1278E
1284.373	0.0	1289792	MATH_END	n/a	n/a	-999	-999	n/a	n/a	n/a	n/a	5	[0, 0, 0]	-999	PAL1	0	R1278E
1284.373	0.017	1289792	RECALL_START	n/a	n/a	-999	-999	n/a	n/a	n/a	n/a	5	[0, 0, 0]	-999	PAL1	0	R1278E
1284.39	0.266	1289809	TEST_ORIENT	n/a	n/a	5	1	CHEEK	n/a	DOG	CHEEK	5	[0, 0, 0]	-999	PAL1	0	R1278E
1284.656	0.601	1290075	RETRIEVAL_ORIENT_OFF	n/a	n/a	-999	-999	n/a	n/a	n/a	n/a	5	[0, 0, 0]	-999	PAL1	0	R1278E
1285.257	0.001	1290676	TEST_PROBE	n/a	wordpools/wordpool_EN.txt	5	1	CHEEK	n/a	DOG	CHEEK	5	[0, 0, 0]	-999	PAL1	0	R1278E
1285.258	4.017	1290677	REC_START	n/a	n/a	5	-999	n/a	n/a	n/a	n/a	5	[0, 0, 0]	-999	PAL1	0	R1278E
1289.275	0.998	1294694	PROBE_OFF	n/a	n/a	5	-999	n/a	n/a	n/a	n/a	5	[0, 0, 0]	-999	PAL1	0	R1278E
1290.273	0.002	1295692	REC_EVENT	5015	n/a	5	1	CHEEK	<>	DOG	CHEEK	5	[0, 0, 0]	-999	PAL1	0	R1278E
1290.275	0.017	1295694	REC_END	n/a	n/a	5	-999	n/a	n/a	n/a	n/a	5	[0, 0, 0]	-999	PAL1	0	R1278E
1290.292	0.265	1295711	TEST_ORIENT	n/a	n/a	4	2	BOARD	CHIN	BOARD	CHIN	5	[0, 0, 0]	-999	PAL1	0	R1278E
1290.557	0.551	1295976	RETRIEVAL_ORIENT_OFF	n/a	n/a	5	-999	n/a	n/a	n/a	n/a	5	[0, 0, 0]	-999	PAL1	0	R1278E
1291.108	0.001	1296527	TEST_PROBE	n/a	wordpools/wordpool_EN.txt	4	2	BOARD	CHIN	BOARD	CHIN	5	[0, 0, 0]	-999	PAL1	0	R1278E
1291.109	1.794	1296528	REC_START	n/a	n/a	4	-999	n/a	CHIN	n/a	n/a	5	[0, 0, 0]	-999	PAL1	0	R1278E
1292.903	0.727	1298322	REC_EVENT	1794	n/a	4	2	BOARD	CHIN	BOARD	CHIN	5	[0, 0, 0]	-999	PAL1	0	R1278E
1293.63	1.496	1299049	REC_EVENT	2521	n/a	4	2	BOARD	<>	BOARD	CHIN	5	[0, 0, 0]	-999	PAL1	0	R1278E
1295.126	1.011	1300545	PROBE_OFF	n/a	n/a	4	-999	n/a	n/a	n/a	n/a	5	[0, 0, 0]	-999	PAL1	0	R1278E
1296.137	0.022	1301556	REC_END	n/a	n/a	4	-999	n/a	n/a	n/a	n/a	5	[0, 0, 0]	-999	PAL1	0	R1278E
1296.159	0.266	1301578	TEST_ORIENT	n/a	n/a	1	3	SKY	n/a	SKY	PIN	5	[0, 0, 0]	-999	PAL1	0	R1278E
1296.425	0.751	1301844	RETRIEVAL_ORIENT_OFF	n/a	n/a	4	-999	n/a	n/a	n/a	n/a	5	[0, 0, 0]	-999	PAL1	0	R1278E
1297.176	0.001	1302595	TEST_PROBE	n/a	wordpools/wordpool_EN.txt	1	3	SKY	n/a	SKY	PIN	5	[0, 0, 0]	-999	PAL1	0	R1278E
1297.177	1.879	1302596	REC_START	n/a	n/a	1	-999	n/a	n/a	n/a	n/a	5	[0, 0, 0]	-999	PAL1	0	R1278E
1299.056	2.138	1304475	REC_EVENT	1879	n/a	1	3	SKY	<>	SKY	PIN	5	[0, 0, 0]	-999	PAL1	0	R1278E
1301.194	1.0	1306613	PROBE_OFF	n/a	n/a	1	-999	n/a	n/a	n/a	n/a	5	[0, 0, 0]	-999	PAL1	0	R1278E
1302.194	0.016	1307612	REC_END	n/a	n/a	1	-999	n/a	n/a	n/a	n/a	5	[0, 0, 0]	-999	PAL1	0	R1278E
1302.21	0.266	1307628	TEST_ORIENT	n/a	n/a	6	4	HAWK	PET	HAWK	PET	5	[0, 0, 0]	-999	PAL1	0	R1278E
1302.476	0.634	1307894	RETRIEVAL_ORIENT_OFF	n/a	n/a	1	-999	n/a	n/a	n/a	n/a	5	[0, 0, 0]	-999	PAL1	0	R1278E
1303.11	0.001	1308528	TEST_PROBE	n/a	wordpools/wordpool_EN.txt	6	4	HAWK	PET	HAWK	PET	5	[0, 0, 0]	-999	PAL1	0	R1278E
1303.111	3.234	1308529	REC_START	n/a	n/a	6	-999	n/a	PET	n/a	n/a	5	[0, 0, 0]	-999	PAL1	0	R1278E
1306.345	0.783	1311763	REC_EVENT	3234	n/a	6	4	HAWK	PET	HAWK	PET	5	[0, 0, 0]	-999	PAL1	0	R1278E
1307.128	1.0	1312546	PROBE_OFF	n/a	n/a	6	-999	n/a	n/a	n/a	n/a	5	[0, 0, 0]	-999	PAL1	0	R1278E
1308.128	0.017	1313546	REC_END	n/a	n/a	6	-999	n/a	n/a	n/a	n/a	5	[0, 0, 0]	-999	PAL1	0	R1278E
1308.145	0.265	1313563	TEST_ORIENT	n/a	n/a	3	5	STEAK	PIT	STEAK	PIT	5	[0, 0, 0]	-999	PAL1	0	R1278E
1308.41	0.668	1313828	RETRIEVAL_ORIENT_OFF	n/a	n/a	6	-999	n/a	n/a	n/a	n/a	5	[0, 0, 0]	-999	PAL1	0	R1278E
1309.078	0.001	1314496	TEST_PROBE	n/a	wordpools/wordpool_EN.txt	3	5	STEAK	PIT	STEAK	PIT	5	[0, 0, 0]	-999	PAL1	0	R1278E
1309.079	2.939	1314497	REC_START	n/a	n/a	3	-999	n/a	PIT	n/a	n/a	5	[0, 0, 0]	-999	PAL1	0	R1278E
1312.018	1.078	1317436	REC_EVENT	2939	n/a	3	5	STEAK	PIT	STEAK	PIT	5	[0, 0, 0]	-999	PAL1	0	R1278E
1313.096	1.0	1318514	PROBE_OFF	n/a	n/a	3	-999	n/a	n/a	n/a	n/a	5	[0, 0, 0]	-999	PAL1	0	R1278E
1314.096	0.016	1319514	REC_END	n/a	n/a	3	-999	n/a	n/a	n/a	n/a	5	[0, 0, 0]	-999	PAL1	0	R1278E
1314.112	0.266	1319530	TEST_ORIENT	n/a	n/a	2	6	HORSE	n/a	TOY	HORSE	5	[0, 0, 0]	-999	PAL1	0	R1278E
1314.378	0.551	1319796	RETRIEVAL_ORIENT_OFF	n/a	n/a	3	-999	n/a	n/a	n/a	n/a	5	[0, 0, 0]	-999	PAL1	0	R1278E
1314.929	0.008	1320347	TEST_PROBE	n/a	wordpools/wordpool_EN.txt	2	6	HORSE	n/a	TOY	HORSE	5	[0, 0, 0]	-999	PAL1	0	R1278E
1314.937	4.01	1320355	REC_START	n/a	n/a	2	-999	n/a	n/a	n/a	n/a	5	[0, 0, 0]	-999	PAL1	0	R1278E
1318.947	0.999	1324365	PROBE_OFF	n/a	n/a	2	-999	n/a	n/a	n/a	n/a	5	[0, 0, 0]	-999	PAL1	0	R1278E
1319.946	0.001	1325364	REC_EVENT	5009	n/a	2	6	HORSE	<>	TOY	HORSE	5	[0, 0, 0]	-999	PAL1	0	R1278E
1319.947	0.01	1325365	REC_END	n/a	n/a	2	-999	n/a	n/a	n/a	n/a	5	[0, 0, 0]	-999	PAL1	0	R1278E
1319.957	11.674	1325375	RECALL_END	n/a	n/a	-999	-999	n/a	n/a	n/a	n/a	5	[0, 0, 0]	-999	PAL1	0	R1278E
1331.631	10.929	1337048	TRIAL	n/a	n/a	-999	-999	n/a	n/a	n/a	n/a	6	[0, 0, 0]	-999	PAL1	0	R1278E
1342.56	0.006	1347977	ENCODING_START	n/a	n/a	-999	-999	n/a	n/a	n/a	n/a	6	[0, 0, 0]	-999	PAL1	0	R1278E
1342.566	0.268	1347983	STUDY_ORIENT	n/a	n/a	1	5	WAVE	n/a	WAVE	SLEEVE	6	[0, 0, 0]	-999	PAL1	0	R1278E
1342.834	0.749	1348251	STUDY_ORIENT_OFF	n/a	n/a	1	5	WAVE	n/a	WAVE	SLEEVE	6	[0, 0, 0]	-999	PAL1	0	R1278E
1343.583	4.018	1349000	STUDY_PAIR	n/a	wordpools/wordpool_EN.txt	1	5	WAVE	n/a	WAVE	SLEEVE	6	[0, 0, 0]	-999	PAL1	0	R1278E
1347.601	1.016	1353018	PAIR_OFF	n/a	n/a	1	5	WAVE	n/a	WAVE	SLEEVE	6	[0, 0, 0]	-999	PAL1	0	R1278E
1348.617	0.251	1354034	STUDY_ORIENT	n/a	n/a	2	6	AXE	n/a	AXE	KEY	6	[0, 0, 0]	-999	PAL1	0	R1278E
1348.868	0.666	1354285	STUDY_ORIENT_OFF	n/a	n/a	2	6	AXE	n/a	AXE	KEY	6	[0, 0, 0]	-999	PAL1	0	R1278E
1349.534	4.018	1354951	STUDY_PAIR	n/a	wordpools/wordpool_EN.txt	2	6	AXE	n/a	AXE	KEY	6	[0, 0, 0]	-999	PAL1	0	R1278E
1353.552	1.016	1358968	PAIR_OFF	n/a	n/a	2	6	AXE	n/a	AXE	KEY	6	[0, 0, 0]	-999	PAL1	0	R1278E
1354.568	0.268	1359984	STUDY_ORIENT	n/a	n/a	3	1	WEED	GLASS	WEED	GLASS	6	[0, 0, 0]	-999	PAL1	0	R1278E
1354.836	0.533	1360252	STUDY_ORIENT_OFF	n/a	n/a	3	1	WEED	GLASS	WEED	GLASS	6	[0, 0, 0]	-999	PAL1	0	R1278E
1355.369	4.017	1360785	STUDY_PAIR	n/a	wordpools/wordpool_EN.txt	3	1	WEED	GLASS	WEED	GLASS	6	[0, 0, 0]	-999	PAL1	0	R1278E
1359.386	1.017	1364802	PAIR_OFF	n/a	n/a	3	1	WEED	GLASS	WEED	GLASS	6	[0, 0, 0]	-999	PAL1	0	R1278E
1360.403	0.267	1365819	STUDY_ORIENT	n/a	n/a	4	2	EAR	n/a	SHIP	EAR	6	[0, 0, 0]	-999	PAL1	0	R1278E
1360.67	0.75	1366086	STUDY_ORIENT_OFF	n/a	n/a	4	2	EAR	n/a	SHIP	EAR	6	[0, 0, 0]	-999	PAL1	0	R1278E
1361.42	4.017	1366836	STUDY_PAIR	n/a	wordpools/wordpool_EN.txt	4	2	EAR	n/a	SHIP	EAR	6	[0, 0, 0]	-999	PAL1	0	R1278E
1365.437	1.017	1370853	PAIR_OFF	n/a	n/a	4	2	EAR	n/a	SHIP	EAR	6	[0, 0, 0]	-999	PAL1	0	R1278E
1366.454	0.267	1371870	STUDY_ORIENT	n/a	n/a	5	3	SHEET	n/a	TRUCK	SHEET	6	[0, 0, 0]	-999	PAL1	0	R1278E
1366.721	0.683	1372137	STUDY_ORIENT_OFF	n/a	n/a	5	3	SHEET	n/a	TRUCK	SHEET	6	[0, 0, 0]	-999	PAL1	0	R1278E
1367.404	4.017	1372820	STUDY_PAIR	n/a	wordpools/wordpool_EN.txt	5	3	SHEET	n/a	TRUCK	SHEET	6	[0, 0, 0]	-999	PAL1	0	R1278E
1371.421	1.017	1376837	PAIR_OFF	n/a	n/a	5	3	SHEET	n/a	TRUCK	SHEET	6	[0, 0, 0]	-999	PAL1	0	R1278E
1372.438	0.267	1377854	STUDY_ORIENT	n/a	n/a	6	4	GRAPE	RIB	RIB	GRAPE	6	[0, 0, 0]	-999	PAL1	0	R1278E
1372.705	0.584	1378121	STUDY_ORIENT_OFF	n/a	n/a	6	4	GRAPE	RIB	RIB	GRAPE	6	[0, 0, 0]	-999	PAL1	0	R1278E
1373.289	4.018	1378705	STUDY_PAIR	n/a	wordpools/wordpool_EN.txt	6	4	GRAPE	RIB	RIB	GRAPE	6	[0, 0, 0]	-999	PAL1	0	R1278E
1377.307	1.001	1382722	PAIR_OFF	n/a	n/a	6	4	GRAPE	RIB	RIB	GRAPE	6	[0, 0, 0]	-999	PAL1	0	R1278E
1378.308	0.0	1383723	MATH_START	n/a	n/a	-999	-999	n/a	n/a	n/a	n/a	6	[0, 0, 0]	-999	PAL1	0	R1278E
1378.308	0.0	1383723	ENCODING_END	n/a	n/a	-999	-999	n/a	n/a	n/a	n/a	6	[0, 0, 0]	-999	PAL1	0	R1278E
1378.308	0.015	1383723	START	n/a	n/a	-999	-999	n/a	n/a	n/a	n/a	6	[-999, -999, -999]	-999	PAL1	0	R1278E
1378.323	7.168	1383738	PROB	7143	n/a	-999	-999	n/a	n/a	n/a	n/a	6	[7, 4, 8]	19	PAL1	0	R1278E
1385.491	6.718	1390906	PROB	6682	n/a	-999	-999	n/a	n/a	n/a	n/a	6	[5, 7, 4]	16	PAL1	0	R1278E
1392.209	3.383	1397624	PROB	3356	n/a	-999	-999	n/a	n/a	n/a	n/a	6	[8, 8, 1]	17	PAL1	0	R1278E
1395.592	4.374	1401007	PROB	4374	n/a	-999	-999	n/a	n/a	n/a	n/a	6	[5, 2, 3]	10	PAL1	0	R1278E
1399.966	0.011	1405381	STOP	n/a	n/a	-999	-999	n/a	n/a	n/a	n/a	6	[-999, -999, -999]	-999	PAL1	0	R1278E
1399.977	0.001	1405392	MATH_END	n/a	n/a	-999	-999	n/a	n/a	n/a	n/a	6	[0, 0, 0]	-999	PAL1	0	R1278E
1399.978	0.016	1405393	RECALL_START	n/a	n/a	-999	-999	n/a	n/a	n/a	n/a	6	[0, 0, 0]	-999	PAL1	0	R1278E
1399.994	0.267	1405409	TEST_ORIENT	n/a	n/a	3	1	WEED	GLASS	WEED	GLASS	6	[0, 0, 0]	-999	PAL1	0	R1278E
1400.261	0.75	1405676	RETRIEVAL_ORIENT_OFF	n/a	n/a	-999	-999	n/a	n/a	n/a	n/a	6	[0, 0, 0]	-999	PAL1	0	R1278E
1401.011	0.001	1406426	TEST_PROBE	n/a	wordpools/wordpool_EN.txt	3	1	WEED	GLASS	WEED	GLASS	6	[0, 0, 0]	-999	PAL1	0	R1278E
1401.012	1.59	1406427	REC_START	n/a	n/a	3	-999	n/a	GLASS	n/a	n/a	6	[0, 0, 0]	-999	PAL1	0	R1278E
1402.602	2.426	1408016	REC_EVENT	1590	n/a	3	1	WEED	GLASS	WEED	GLASS	6	[0, 0, 0]	-999	PAL1	0	R1278E
1405.028	1.0	1410442	PROBE_OFF	n/a	n/a	3	-999	n/a	n/a	n/a	n/a	6	[0, 0, 0]	-999	PAL1	0	R1278E
1406.028	0.017	1411442	REC_END	n/a	n/a	3	-999	n/a	n/a	n/a	n/a	6	[0, 0, 0]	-999	PAL1	0	R1278E
1406.045	0.267	1411459	TEST_ORIENT	n/a	n/a	4	2	EAR	n/a	SHIP	EAR	6	[0, 0, 0]	-999	PAL1	0	R1278E
1406.312	0.65	1411726	RETRIEVAL_ORIENT_OFF	n/a	n/a	3	-999	n/a	n/a	n/a	n/a	6	[0, 0, 0]	-999	PAL1	0	R1278E
1406.962	0.001	1412376	TEST_PROBE	n/a	wordpools/wordpool_EN.txt	4	2	EAR	n/a	SHIP	EAR	6	[0, 0, 0]	-999	PAL1	0	R1278E
1406.963	4.016	1412377	REC_START	n/a	n/a	4	-999	n/a	n/a	n/a	n/a	6	[0, 0, 0]	-999	PAL1	0	R1278E
1410.979	0.999	1416393	PROBE_OFF	n/a	n/a	4	-999	n/a	n/a	n/a	n/a	6	[0, 0, 0]	-999	PAL1	0	R1278E
1411.978	0.001	1417392	REC_EVENT	5015	n/a	4	2	EAR	<>	SHIP	EAR	6	[0, 0, 0]	-999	PAL1	0	R1278E
1411.979	0.017	1417393	REC_END	n/a	n/a	4	-999	n/a	n/a	n/a	n/a	6	[0, 0, 0]	-999	PAL1	0	R1278E
1411.996	0.267	1417410	TEST_ORIENT	n/a	n/a	5	3	SHEET	n/a	TRUCK	SHEET	6	[0, 0, 0]	-999	PAL1	0	R1278E
1412.263	0.733	1417677	RETRIEVAL_ORIENT_OFF	n/a	n/a	4	-999	n/a	n/a	n/a	n/a	6	[0, 0, 0]	-999	PAL1	0	R1278E
1412.996	0.001	1418410	TEST_PROBE	n/a	wordpools/wordpool_EN.txt	5	3	SHEET	n/a	TRUCK	SHEET	6	[0, 0, 0]	-999	PAL1	0	R1278E
1412.997	4.017	1418411	REC_START	n/a	n/a	5	-999	n/a	n/a	n/a	n/a	6	[0, 0, 0]	-999	PAL1	0	R1278E
1417.014	0.998	1422428	PROBE_OFF	n/a	n/a	5	-999	n/a	n/a	n/a	n/a	6	[0, 0, 0]	-999	PAL1	0	R1278E
1418.012	0.002	1423426	REC_EVENT	5015	n/a	5	3	SHEET	<>	TRUCK	SHEET	6	[0, 0, 0]	-999	PAL1	0	R1278E
1418.014	0.017	1423428	REC_END	n/a	n/a	5	-999	n/a	n/a	n/a	n/a	6	[0, 0, 0]	-999	PAL1	0	R1278E
1418.031	0.266	1423445	TEST_ORIENT	n/a	n/a	6	4	GRAPE	RIB	RIB	GRAPE	6	[0, 0, 0]	-999	PAL1	0	R1278E
1418.297	0.684	1423711	RETRIEVAL_ORIENT_OFF	n/a	n/a	5	-999	n/a	n/a	n/a	n/a	6	[0, 0, 0]	-999	PAL1	0	R1278E
1418.981	0.0	1424395	TEST_PROBE	n/a	wordpools/wordpool_EN.txt	6	4	GRAPE	RIB	RIB	GRAPE	6	[0, 0, 0]	-999	PAL1	0	R1278E
1418.981	1.779	1424395	REC_START	n/a	n/a	6	-999	n/a	RIB	n/a	n/a	6	[0, 0, 0]	-999	PAL1	0	R1278E
1420.76	2.238	1426174	REC_EVENT	1779	n/a	6	4	GRAPE	RIB	RIB	GRAPE	6	[0, 0, 0]	-999	PAL1	0	R1278E
1422.998	1.0	1428412	PROBE_OFF	n/a	n/a	6	-999	n/a	n/a	n/a	n/a	6	[0, 0, 0]	-999	PAL1	0	R1278E
1423.998	0.017	1429412	REC_END	n/a	n/a	6	-999	n/a	n/a	n/a	n/a	6	[0, 0, 0]	-999	PAL1	0	R1278E
1424.015	0.267	1429429	TEST_ORIENT	n/a	n/a	1	5	WAVE	n/a	WAVE	SLEEVE	6	[0, 0, 0]	-999	PAL1	0	R1278E
1424.282	0.683	1429696	RETRIEVAL_ORIENT_OFF	n/a	n/a	6	-999	n/a	n/a	n/a	n/a	6	[0, 0, 0]	-999	PAL1	0	R1278E
1424.965	0.001	1430379	TEST_PROBE	n/a	wordpools/wordpool_EN.txt	1	5	WAVE	n/a	WAVE	SLEEVE	6	[0, 0, 0]	-999	PAL1	0	R1278E
1424.966	4.017	1430380	REC_START	n/a	n/a	1	-999	n/a	n/a	n/a	n/a	6	[0, 0, 0]	-999	PAL1	0	R1278E
1428.983	0.998	1434396	PROBE_OFF	n/a	n/a	1	-999	n/a	n/a	n/a	n/a	6	[0, 0, 0]	-999	PAL1	0	R1278E
1429.981	0.002	1435394	REC_EVENT	5015	n/a	1	5	WAVE	<>	WAVE	SLEEVE	6	[0, 0, 0]	-999	PAL1	0	R1278E
1429.983	0.016	1435396	REC_END	n/a	n/a	1	-999	n/a	n/a	n/a	n/a	6	[0, 0, 0]	-999	PAL1	0	R1278E
1429.999	0.267	1435412	TEST_ORIENT	n/a	n/a	2	6	AXE	n/a	AXE	KEY	6	[0, 0, 0]	-999	PAL1	0	R1278E
1430.266	0.65	1435679	RETRIEVAL_ORIENT_OFF	n/a	n/a	1	-999	n/a	n/a	n/a	n/a	6	[0, 0, 0]	-999	PAL1	0	R1278E
1430.916	0.001	1436329	TEST_PROBE	n/a	wordpools/wordpool_EN.txt	2	6	AXE	n/a	AXE	KEY	6	[0, 0, 0]	-999	PAL1	0	R1278E
1430.917	4.017	1436330	REC_START	n/a	n/a	2	-999	n/a	n/a	n/a	n/a	6	[0, 0, 0]	-999	PAL1	0	R1278E
1434.934	0.998	1440347	PROBE_OFF	n/a	n/a	2	-999	n/a	n/a	n/a	n/a	6	[0, 0, 0]	-999	PAL1	0	R1278E
1435.932	0.002	1441345	REC_EVENT	5015	n/a	2	6	AXE	<>	AXE	KEY	6	[0, 0, 0]	-999	PAL1	0	R1278E
1435.934	0.01	1441347	REC_END	n/a	n/a	2	-999	n/a	n/a	n/a	n/a	6	[0, 0, 0]	-999	PAL1	0	R1278E
1435.944	10.607	1441357	RECALL_END	n/a	n/a	-999	-999	n/a	n/a	n/a	n/a	6	[0, 0, 0]	-999	PAL1	0	R1278E
1446.551	10.929	1451964	TRIAL	n/a	n/a	-999	-999	n/a	n/a	n/a	n/a	7	[0, 0, 0]	-999	PAL1	0	R1278E
1457.48	0.006	1462892	ENCODING_START	n/a	n/a	-999	-999	n/a	n/a	n/a	n/a	7	[0, 0, 0]	-999	PAL1	0	R1278E
1457.486	0.267	1462898	STUDY_ORIENT	n/a	n/a	1	1	LAWN	PASS	LAWN	MAIL	7	[0, 0, 0]	-999	PAL1	0	R1278E
1457.753	0.683	1463165	STUDY_ORIENT_OFF	n/a	n/a	1	1	LAWN	PASS	LAWN	MAIL	7	[0, 0, 0]	-999	PAL1	0	R1278E
1458.436	4.001	1463848	STUDY_PAIR	n/a	wordpools/wordpool_EN.txt	1	1	LAWN	PASS	LAWN	MAIL	7	[0, 0, 0]	-999	PAL1	0	R1278E
1462.437	1.017	1467849	PAIR_OFF	n/a	n/a	1	1	LAWN	PASS	LAWN	MAIL	7	[0, 0, 0]	-999	PAL1	0	R1278E
1463.454	0.267	1468866	STUDY_ORIENT	n/a	n/a	2	6	CHALK	n/a	HEART	CHALK	7	[0, 0, 0]	-999	PAL1	0	R1278E
1463.721	0.683	1469133	STUDY_ORIENT_OFF	n/a	n/a	2	6	CHALK	n/a	HEART	CHALK	7	[0, 0, 0]	-999	PAL1	0	R1278E
1464.404	4.001	1469816	STUDY_PAIR	n/a	wordpools/wordpool_EN.txt	2	6	CHALK	n/a	HEART	CHALK	7	[0, 0, 0]	-999	PAL1	0	R1278E
1468.405	1.017	1473817	PAIR_OFF	n/a	n/a	2	6	CHALK	n/a	HEART	CHALK	7	[0, 0, 0]	-999	PAL1	0	R1278E
1469.422	0.267	1474834	STUDY_ORIENT	n/a	n/a	3	5	DOCK	PASS	ARM	DOCK	7	[0, 0, 0]	-999	PAL1	0	R1278E
1469.689	0.75	1475101	STUDY_ORIENT_OFF	n/a	n/a	3	5	DOCK	PASS	ARM	DOCK	7	[0, 0, 0]	-999	PAL1	0	R1278E
1470.439	4.017	1475851	STUDY_PAIR	n/a	wordpools/wordpool_EN.txt	3	5	DOCK	PASS	ARM	DOCK	7	[0, 0, 0]	-999	PAL1	0	R1278E
1474.456	1.017	1479868	PAIR_OFF	n/a	n/a	3	5	DOCK	PASS	ARM	DOCK	7	[0, 0, 0]	-999	PAL1	0	R1278E
1475.473	0.267	1480885	STUDY_ORIENT	n/a	n/a	4	4	STORM	STEM	STEM	STORM	7	[0, 0, 0]	-999	PAL1	0	R1278E
1475.74	0.534	1481152	STUDY_ORIENT_OFF	n/a	n/a	4	4	STORM	STEM	STEM	STORM	7	[0, 0, 0]	-999	PAL1	0	R1278E
1476.274	4.017	1481685	STUDY_PAIR	n/a	wordpools/wordpool_EN.txt	4	4	STORM	STEM	STEM	STORM	7	[0, 0, 0]	-999	PAL1	0	R1278E
1480.291	1.017	1485702	PAIR_OFF	n/a	n/a	4	4	STORM	STEM	STEM	STORM	7	[0, 0, 0]	-999	PAL1	0	R1278E
1481.308	0.266	1486719	STUDY_ORIENT	n/a	n/a	5	3	FILM	PASS	PEARL	FILM	7	[0, 0, 0]	-999	PAL1	0	R1278E
1481.574	0.601	1486985	STUDY_ORIENT_OFF	n/a	n/a	5	3	FILM	PASS	PEARL	FILM	7	[0, 0, 0]	-999	PAL1	0	R1278E
1482.175	4.018	1487586	STUDY_PAIR	n/a	wordpools/wordpool_EN.txt	5	3	FILM	PASS	PEARL	FILM	7	[0, 0, 0]	-999	PAL1	0	R1278E
1486.193	1.016	1491604	PAIR_OFF	n/a	n/a	5	3	FILM	PASS	PEARL	FILM	7	[0, 0, 0]	-999	PAL1	0	R1278E
1487.209	0.266	1492620	STUDY_ORIENT	n/a	n/a	6	2	FOOD	ROSE	ROSE	FOOD	7	[0, 0, 0]	-999	PAL1	0	R1278E
1487.475	0.651	1492886	STUDY_ORIENT_OFF	n/a	n/a	6	2	FOOD	ROSE	ROSE	FOOD	7	[0, 0, 0]	-999	PAL1	0	R1278E
1488.126	4.018	1493537	STUDY_PAIR	n/a	wordpools/wordpool_EN.txt	6	2	FOOD	ROSE	ROSE	FOOD	7	[0, 0, 0]	-999	PAL1	0	R1278E
1492.144	1.0	1497555	PAIR_OFF	n/a	n/a	6	2	FOOD	ROSE	ROSE	FOOD	7	[0, 0, 0]	-999	PAL1	0	R1278E
1493.144	0.0	1498555	ENCODING_END	n/a	n/a	-999	-999	n/a	n/a	n/a	n/a	7	[0, 0, 0]	-999	PAL1	0	R1278E
1493.144	0.001	1498555	MATH_START	n/a	n/a	-999	-999	n/a	n/a	n/a	n/a	7	[0, 0, 0]	-999	PAL1	0	R1278E
1493.145	0.015	1498556	START	n/a	n/a	-999	-999	n/a	n/a	n/a	n/a	7	[-999, -999, -999]	-999	PAL1	0	R1278E
1493.16	3.834	1498571	PROB	3806	n/a	-999	-999	n/a	n/a	n/a	n/a	7	[7, 4, 1]	12	PAL1	0	R1278E
1496.994	5.868	1502405	PROB	5845	n/a	-999	-999	n/a	n/a	n/a	n/a	7	[3, 7, 9]	19	PAL1	0	R1278E
1502.862	3.9	1508272	PROB	3871	n/a	-999	-999	n/a	n/a	n/a	n/a	7	[4, 1, 9]	14	PAL1	0	R1278E
1506.762	4.734	1512172	PROB	4709	n/a	-999	-999	n/a	n/a	n/a	n/a	7	[2, 7, 5]	14	PAL1	0	R1278E
1511.496	3.784	1516906	PROB	3784	n/a	-999	-999	n/a	n/a	n/a	n/a	7	[2, 4, 3]	9	PAL1	0	R1278E
1515.28	0.018	1520690	STOP	n/a	n/a	-999	-999	n/a	n/a	n/a	n/a	7	[-999, -999, -999]	-999	PAL1	0	R1278E
1515.298	0.0	1520708	MATH_END	n/a	n/a	-999	-999	n/a	n/a	n/a	n/a	7	[0, 0, 0]	-999	PAL1	0	R1278E
1515.298	0.015	1520708	RECALL_START	n/a	n/a	-999	-999	n/a	n/a	n/a	n/a	7	[0, 0, 0]	-999	PAL1	0	R1278E
1515.313	0.267	1520723	TEST_ORIENT	n/a	n/a	1	1	LAWN	PASS	LAWN	MAIL	7	[0, 0, 0]	-999	PAL1	0	R1278E
1515.58	0.684	1520990	RETRIEVAL_ORIENT_OFF	n/a	n/a	-999	-999	n/a	n/a	n/a	n/a	7	[0, 0, 0]	-999	PAL1	0	R1278E
1516.264	0.001	1521674	TEST_PROBE	n/a	wordpools/wordpool_EN.txt	1	1	LAWN	PASS	LAWN	MAIL	7	[0, 0, 0]	-999	PAL1	0	R1278E
1516.265	1.264	1521675	REC_START	n/a	n/a	1	-999	n/a	PASS	n/a	n/a	7	[0, 0, 0]	-999	PAL1	0	R1278E
1517.529	2.736	1522939	REC_EVENT	1264	n/a	1	1	LAWN	PASS	LAWN	MAIL	7	[0, 0, 0]	-999	PAL1	0	R1278E
1520.265	1.0	1525675	PROBE_OFF	n/a	n/a	1	-999	n/a	n/a	n/a	n/a	7	[0, 0, 0]	-999	PAL1	0	R1278E
1521.265	0.017	1526675	REC_END	n/a	n/a	1	-999	n/a	n/a	n/a	n/a	7	[0, 0, 0]	-999	PAL1	0	R1278E
1521.282	0.266	1526692	TEST_ORIENT	n/a	n/a	6	2	FOOD	ROSE	ROSE	FOOD	7	[0, 0, 0]	-999	PAL1	0	R1278E
1521.548	0.584	1526958	RETRIEVAL_ORIENT_OFF	n/a	n/a	1	-999	n/a	n/a	n/a	n/a	7	[0, 0, 0]	-999	PAL1	0	R1278E
1522.132	0.001	1527542	TEST_PROBE	n/a	wordpools/wordpool_EN.txt	6	2	FOOD	ROSE	ROSE	FOOD	7	[0, 0, 0]	-999	PAL1	0	R1278E
1522.133	2.018	1527543	REC_START	n/a	n/a	6	-999	n/a	ROSE	n/a	n/a	7	[0, 0, 0]	-999	PAL1	0	R1278E
1524.151	1.998	1529561	REC_EVENT	2018	n/a	6	2	FOOD	ROSE	ROSE	FOOD	7	[0, 0, 0]	-999	PAL1	0	R1278E
1526.149	1.0	1531558	PROBE_OFF	n/a	n/a	6	-999	n/a	n/a	n/a	n/a	7	[0, 0, 0]	-999	PAL1	0	R1278E
1527.149	0.017	1532558	REC_END	n/a	n/a	6	-999	n/a	n/a	n/a	n/a	7	[0, 0, 0]	-999	PAL1	0	R1278E
1527.166	0.266	1532575	TEST_ORIENT	n/a	n/a	5	3	FILM	PASS	PEARL	FILM	7	[0, 0, 0]	-999	PAL1	0	R1278E
1527.432	0.568	1532841	RETRIEVAL_ORIENT_OFF	n/a	n/a	6	-999	n/a	n/a	n/a	n/a	7	[0, 0, 0]	-999	PAL1	0	R1278E
1528.0	0.0	1533409	TEST_PROBE	n/a	wordpools/wordpool_EN.txt	5	3	FILM	PASS	PEARL	FILM	7	[0, 0, 0]	-999	PAL1	0	R1278E
1528.0	2.669	1533409	REC_START	n/a	n/a	5	-999	n/a	PASS	n/a	n/a	7	[0, 0, 0]	-999	PAL1	0	R1278E
1530.669	1.348	1536078	REC_EVENT	2669	n/a	5	3	FILM	PASS	PEARL	FILM	7	[0, 0, 0]	-999	PAL1	0	R1278E
1532.017	1.0	1537426	PROBE_OFF	n/a	n/a	5	-999	n/a	n/a	n/a	n/a	7	[0, 0, 0]	-999	PAL1	0	R1278E
1533.017	0.017	1538426	REC_END	n/a	n/a	5	-999	n/a	n/a	n/a	n/a	7	[0, 0, 0]	-999	PAL1	0	R1278E
1533.034	0.267	1538443	TEST_ORIENT	n/a	n/a	4	4	STORM	STEM	STEM	STORM	7	[0, 0, 0]	-999	PAL1	0	R1278E
1533.301	0.717	1538710	RETRIEVAL_ORIENT_OFF	n/a	n/a	5	-999	n/a	n/a	n/a	n/a	7	[0, 0, 0]	-999	PAL1	0	R1278E
1534.018	0.0	1539427	TEST_PROBE	n/a	wordpools/wordpool_EN.txt	4	4	STORM	STEM	STEM	STORM	7	[0, 0, 0]	-999	PAL1	0	R1278E
1534.018	1.45	1539427	REC_START	n/a	n/a	4	-999	n/a	STEM	n/a	n/a	7	[0, 0, 0]	-999	PAL1	0	R1278E
1535.468	2.567	1540877	REC_EVENT	1450	n/a	4	4	STORM	STEM	STEM	STORM	7	[0, 0, 0]	-999	PAL1	0	R1278E
1538.035	1.001	1543444	PROBE_OFF	n/a	n/a	4	-999	n/a	n/a	n/a	n/a	7	[0, 0, 0]	-999	PAL1	0	R1278E
1539.036	0.016	1544445	REC_END	n/a	n/a	4	-999	n/a	n/a	n/a	n/a	7	[0, 0, 0]	-999	PAL1	0	R1278E
1539.052	0.266	1544461	TEST_ORIENT	n/a	n/a	3	5	DOCK	PASS	ARM	DOCK	7	[0, 0, 0]	-999	PAL1	0	R1278E
1539.318	0.717	1544727	RETRIEVAL_ORIENT_OFF	n/a	n/a	4	-999	n/a	n/a	n/a	n/a	7	[0, 0, 0]	-999	PAL1	0	R1278E
1540.035	0.001	1545444	TEST_PROBE	n/a	wordpools/wordpool_EN.txt	3	5	DOCK	PASS	ARM	DOCK	7	[0, 0, 0]	-999	PAL1	0	R1278E
1540.036	3.639	1545445	REC_START	n/a	n/a	3	-999	n/a	PASS	n/a	n/a	7	[0, 0, 0]	-999	PAL1	0	R1278E
1543.675	0.378	1549084	REC_EVENT	3639	n/a	3	5	DOCK	PASS	ARM	DOCK	7	[0, 0, 0]	-999	PAL1	0	R1278E
1544.053	1.0	1549462	PROBE_OFF	n/a	n/a	3	-999	n/a	n/a	n/a	n/a	7	[0, 0, 0]	-999	PAL1	0	R1278E
1545.053	0.017	1550462	REC_END	n/a	n/a	3	-999	n/a	n/a	n/a	n/a	7	[0, 0, 0]	-999	PAL1	0	R1278E
1545.07	0.265	1550479	TEST_ORIENT	n/a	n/a	2	6	CHALK	n/a	HEART	CHALK	7	[0, 0, 0]	-999	PAL1	0	R1278E
1545.335	0.618	1550744	RETRIEVAL_ORIENT_OFF	n/a	n/a	3	-999	n/a	n/a	n/a	n/a	7	[0, 0, 0]	-999	PAL1	0	R1278E
1545.953	0.001	1551362	TEST_PROBE	n/a	wordpools/wordpool_EN.txt	2	6	CHALK	n/a	HEART	CHALK	7	[0, 0, 0]	-999	PAL1	0	R1278E
1545.954	3.182	1551363	REC_START	n/a	n/a	2	-999	n/a	n/a	n/a	n/a	7	[0, 0, 0]	-999	PAL1	0	R1278E
1549.136	0.834	1554545	REC_EVENT	3182	n/a	2	6	CHALK	<>	HEART	CHALK	7	[0, 0, 0]	-999	PAL1	0	R1278E
1549.97	1.0	1555379	PROBE_OFF	n/a	n/a	2	-999	n/a	n/a	n/a	n/a	7	[0, 0, 0]	-999	PAL1	0	R1278E
1550.97	0.01	1556378	REC_END	n/a	n/a	2	-999	n/a	n/a	n/a	n/a	7	[0, 0, 0]	-999	PAL1	0	R1278E
1550.98	6.807	1556388	RECALL_END	n/a	n/a	-999	-999	n/a	n/a	n/a	n/a	7	[0, 0, 0]	-999	PAL1	0	R1278E
1557.787	10.929	1563195	TRIAL	n/a	n/a	-999	-999	n/a	n/a	n/a	n/a	8	[0, 0, 0]	-999	PAL1	0	R1278E
1568.716	0.007	1574124	ENCODING_START	n/a	n/a	-999	-999	n/a	n/a	n/a	n/a	8	[0, 0, 0]	-999	PAL1	0	R1278E
1568.723	0.267	1574131	STUDY_ORIENT	n/a	n/a	1	1	NEST	SHEEP	NEST	SHEEP	8	[0, 0, 0]	-999	PAL1	0	R1278E
1568.99	0.599	1574398	STUDY_ORIENT_OFF	n/a	n/a	1	1	NEST	SHEEP	NEST	SHEEP	8	[0, 0, 0]	-999	PAL1	0	R1278E
1569.589	4.018	1574997	STUDY_PAIR	n/a	wordpools/wordpool_EN.txt	1	1	NEST	SHEEP	NEST	SHEEP	8	[0, 0, 0]	-999	PAL1	0	R1278E
1573.607	1.017	1579015	PAIR_OFF	n/a	n/a	1	1	NEST	SHEEP	NEST	SHEEP	8	[0, 0, 0]	-999	PAL1	0	R1278E
1574.624	0.267	1580032	STUDY_ORIENT	n/a	n/a	2	4	BARN	PASS	BARN	FRUIT	8	[0, 0, 0]	-999	PAL1	0	R1278E
1574.891	0.533	1580299	STUDY_ORIENT_OFF	n/a	n/a	2	4	BARN	PASS	BARN	FRUIT	8	[0, 0, 0]	-999	PAL1	0	R1278E
1575.424	4.017	1580831	STUDY_PAIR	n/a	wordpools/wordpool_EN.txt	2	4	BARN	PASS	BARN	FRUIT	8	[0, 0, 0]	-999	PAL1	0	R1278E
1579.441	1.017	1584848	PAIR_OFF	n/a	n/a	2	4	BARN	PASS	BARN	FRUIT	8	[0, 0, 0]	-999	PAL1	0	R1278E
1580.458	0.267	1585865	STUDY_ORIENT	n/a	n/a	3	3	BEAK	PASS	TOAD	BEAK	8	[0, 0, 0]	-999	PAL1	0	R1278E
1580.725	0.616	1586132	STUDY_ORIENT_OFF	n/a	n/a	3	3	BEAK	PASS	TOAD	BEAK	8	[0, 0, 0]	-999	PAL1	0	R1278E
1581.341	4.001	1586748	STUDY_PAIR	n/a	wordpools/wordpool_EN.txt	3	3	BEAK	PASS	TOAD	BEAK	8	[0, 0, 0]	-999	PAL1	0	R1278E
1585.342	1.017	1590749	PAIR_OFF	n/a	n/a	3	3	BEAK	PASS	TOAD	BEAK	8	[0, 0, 0]	-999	PAL1	0	R1278E
1586.359	0.267	1591766	STUDY_ORIENT	n/a	n/a	4	2	CLOTH	PASS	CLOTH	OAR	8	[0, 0, 0]	-999	PAL1	0	R1278E
1586.626	0.567	1592033	STUDY_ORIENT_OFF	n/a	n/a	4	2	CLOTH	PASS	CLOTH	OAR	8	[0, 0, 0]	-999	PAL1	0	R1278E
1587.193	4.018	1592600	STUDY_PAIR	n/a	wordpools/wordpool_EN.txt	4	2	CLOTH	PASS	CLOTH	OAR	8	[0, 0, 0]	-999	PAL1	0	R1278E
1591.211	1.017	1596618	PAIR_OFF	n/a	n/a	4	2	CLOTH	PASS	CLOTH	OAR	8	[0, 0, 0]	-999	PAL1	0	R1278E
1592.228	0.265	1597635	STUDY_ORIENT	n/a	n/a	5	5	SHOE	n/a	FROG	SHOE	8	[0, 0, 0]	-999	PAL1	0	R1278E
1592.493	0.585	1597900	STUDY_ORIENT_OFF	n/a	n/a	5	5	SHOE	n/a	FROG	SHOE	8	[0, 0, 0]	-999	PAL1	0	R1278E
1593.078	4.017	1598485	STUDY_PAIR	n/a	wordpools/wordpool_EN.txt	5	5	SHOE	n/a	FROG	SHOE	8	[0, 0, 0]	-999	PAL1	0	R1278E
1597.095	1.017	1602502	PAIR_OFF	n/a	n/a	5	5	SHOE	n/a	FROG	SHOE	8	[0, 0, 0]	-999	PAL1	0	R1278E
1598.112	0.266	1603519	STUDY_ORIENT	n/a	n/a	6	6	ZOO	PASS	NAIL	ZOO	8	[0, 0, 0]	-999	PAL1	0	R1278E
1598.378	0.551	1603785	STUDY_ORIENT_OFF	n/a	n/a	6	6	ZOO	PASS	NAIL	ZOO	8	[0, 0, 0]	-999	PAL1	0	R1278E
1598.929	4.017	1604336	STUDY_PAIR	n/a	wordpools/wordpool_EN.txt	6	6	ZOO	PASS	NAIL	ZOO	8	[0, 0, 0]	-999	PAL1	0	R1278E
1602.946	1.001	1608352	PAIR_OFF	n/a	n/a	6	6	ZOO	PASS	NAIL	ZOO	8	[0, 0, 0]	-999	PAL1	0	R1278E
1603.947	0.0	1609353	ENCODING_END	n/a	n/a	-999	-999	n/a	n/a	n/a	n/a	8	[0, 0, 0]	-999	PAL1	0	R1278E
1603.947	0.001	1609353	MATH_START	n/a	n/a	-999	-999	n/a	n/a	n/a	n/a	8	[0, 0, 0]	-999	PAL1	0	R1278E
1603.948	0.015	1609354	START	n/a	n/a	-999	-999	n/a	n/a	n/a	n/a	8	[-999, -999, -999]	-999	PAL1	0	R1278E
1603.963	6.5	1609369	PROB	6466	n/a	-999	-999	n/a	n/a	n/a	n/a	8	[4, 7, 8]	19	PAL1	0	R1278E
1610.463	11.952	1615869	PROB	11917	n/a	-999	-999	n/a	n/a	n/a	n/a	8	[1, 8, 9]	18	PAL1	0	R1278E
1622.415	2.869	1627821	PROB	2869	n/a	-999	-999	n/a	n/a	n/a	n/a	8	[1, 3, 8]	12	PAL1	0	R1278E
1625.284	0.016	1630689	STOP	n/a	n/a	-999	-999	n/a	n/a	n/a	n/a	8	[-999, -999, -999]	-999	PAL1	0	R1278E
1625.3	0.001	1630705	MATH_END	n/a	n/a	-999	-999	n/a	n/a	n/a	n/a	8	[0, 0, 0]	-999	PAL1	0	R1278E
1625.301	0.015	1630706	RECALL_START	n/a	n/a	-999	-999	n/a	n/a	n/a	n/a	8	[0, 0, 0]	-999	PAL1	0	R1278E
1625.316	0.267	1630721	TEST_ORIENT	n/a	n/a	1	1	NEST	SHEEP	NEST	SHEEP	8	[0, 0, 0]	-999	PAL1	0	R1278E
1625.583	0.667	1630988	RETRIEVAL_ORIENT_OFF	n/a	n/a	-999	-999	n/a	n/a	n/a	n/a	8	[0, 0, 0]	-999	PAL1	0	R1278E
1626.25	0.001	1631655	TEST_PROBE	n/a	wordpools/wordpool_EN.txt	1	1	NEST	SHEEP	NEST	SHEEP	8	[0, 0, 0]	-999	PAL1	0	R1278E
1626.251	1.479	1631656	REC_START	n/a	n/a	1	-999	n/a	SHEEP	n/a	n/a	8	[0, 0, 0]	-999	PAL1	0	R1278E
1627.73	1.255	1633135	REC_EVENT	1479	n/a	1	1	NEST	SHEEP	NEST	SHEEP	8	[0, 0, 0]	-999	PAL1	0	R1278E
1628.985	1.283	1634390	REC_EVENT	2734	n/a	1	1	NEST	<>	NEST	SHEEP	8	[0, 0, 0]	-999	PAL1	0	R1278E
1630.268	1.0	1635673	PROBE_OFF	n/a	n/a	1	-999	n/a	n/a	n/a	n/a	8	[0, 0, 0]	-999	PAL1	0	R1278E
1631.268	0.016	1636673	REC_END	n/a	n/a	1	-999	n/a	n/a	n/a	n/a	8	[0, 0, 0]	-999	PAL1	0	R1278E
1631.284	0.266	1636689	TEST_ORIENT	n/a	n/a	4	2	CLOTH	PASS	CLOTH	OAR	8	[0, 0, 0]	-999	PAL1	0	R1278E
1631.55	0.684	1636955	RETRIEVAL_ORIENT_OFF	n/a	n/a	1	-999	n/a	n/a	n/a	n/a	8	[0, 0, 0]	-999	PAL1	0	R1278E
1632.234	0.001	1637639	TEST_PROBE	n/a	wordpools/wordpool_EN.txt	4	2	CLOTH	PASS	CLOTH	OAR	8	[0, 0, 0]	-999	PAL1	0	R1278E
1632.235	2.729	1637640	REC_START	n/a	n/a	4	-999	n/a	PASS	n/a	n/a	8	[0, 0, 0]	-999	PAL1	0	R1278E
1634.964	1.288	1640369	REC_EVENT	2729	n/a	4	2	CLOTH	PASS	CLOTH	OAR	8	[0, 0, 0]	-999	PAL1	0	R1278E
1636.252	1.0	1641657	PROBE_OFF	n/a	n/a	4	-999	n/a	n/a	n/a	n/a	8	[0, 0, 0]	-999	PAL1	0	R1278E
1637.252	0.017	1642657	REC_END	n/a	n/a	4	-999	n/a	n/a	n/a	n/a	8	[0, 0, 0]	-999	PAL1	0	R1278E
1637.269	0.266	1642674	TEST_ORIENT	n/a	n/a	3	3	BEAK	PASS	TOAD	BEAK	8	[0, 0, 0]	-999	PAL1	0	R1278E
1637.535	0.617	1642940	RETRIEVAL_ORIENT_OFF	n/a	n/a	4	-999	n/a	n/a	n/a	n/a	8	[0, 0, 0]	-999	PAL1	0	R1278E
1638.152	0.001	1643557	TEST_PROBE	n/a	wordpools/wordpool_EN.txt	3	3	BEAK	PASS	TOAD	BEAK	8	[0, 0, 0]	-999	PAL1	0	R1278E
1638.153	1.174	1643558	REC_START	n/a	n/a	3	-999	n/a	PASS	n/a	n/a	8	[0, 0, 0]	-999	PAL1	0	R1278E
1639.327	2.843	1644732	REC_EVENT	1174	n/a	3	3	BEAK	PASS	TOAD	BEAK	8	[0, 0, 0]	-999	PAL1	0	R1278E
1642.17	1.0	1647575	PROBE_OFF	n/a	n/a	3	-999	n/a	n/a	n/a	n/a	8	[0, 0, 0]	-999	PAL1	0	R1278E
1643.17	0.017	1648575	REC_END	n/a	n/a	3	-999	n/a	n/a	n/a	n/a	8	[0, 0, 0]	-999	PAL1	0	R1278E
1643.187	0.265	1648592	TEST_ORIENT	n/a	n/a	2	4	BARN	PASS	BARN	FRUIT	8	[0, 0, 0]	-999	PAL1	0	R1278E
1643.452	0.651	1648857	RETRIEVAL_ORIENT_OFF	n/a	n/a	3	-999	n/a	n/a	n/a	n/a	8	[0, 0, 0]	-999	PAL1	0	R1278E
1644.103	0.001	1649508	TEST_PROBE	n/a	wordpools/wordpool_EN.txt	2	4	BARN	PASS	BARN	FRUIT	8	[0, 0, 0]	-999	PAL1	0	R1278E
1644.104	3.1	1649509	REC_START	n/a	n/a	2	-999	n/a	PASS	n/a	n/a	8	[0, 0, 0]	-999	PAL1	0	R1278E
1647.204	0.917	1652609	REC_EVENT	3100	n/a	2	4	BARN	PASS	BARN	FRUIT	8	[0, 0, 0]	-999	PAL1	0	R1278E
1648.121	1.0	1653526	PROBE_OFF	n/a	n/a	2	-999	n/a	n/a	n/a	n/a	8	[0, 0, 0]	-999	PAL1	0	R1278E
1649.121	0.017	1654526	REC_END	n/a	n/a	2	-999	n/a	n/a	n/a	n/a	8	[0, 0, 0]	-999	PAL1	0	R1278E
1649.138	0.265	1654543	TEST_ORIENT	n/a	n/a	5	5	SHOE	n/a	FROG	SHOE	8	[0, 0, 0]	-999	PAL1	0	R1278E
1649.403	0.718	1654808	RETRIEVAL_ORIENT_OFF	n/a	n/a	2	-999	n/a	n/a	n/a	n/a	8	[0, 0, 0]	-999	PAL1	0	R1278E
1650.121	0.001	1655525	TEST_PROBE	n/a	wordpools/wordpool_EN.txt	5	5	SHOE	n/a	FROG	SHOE	8	[0, 0, 0]	-999	PAL1	0	R1278E
1650.122	4.017	1655526	REC_START	n/a	n/a	5	-999	n/a	n/a	n/a	n/a	8	[0, 0, 0]	-999	PAL1	0	R1278E
1654.139	0.998	1659543	PROBE_OFF	n/a	n/a	5	-999	n/a	n/a	n/a	n/a	8	[0, 0, 0]	-999	PAL1	0	R1278E
1655.137	0.002	1660541	REC_EVENT	5015	n/a	5	5	SHOE	<>	FROG	SHOE	8	[0, 0, 0]	-999	PAL1	0	R1278E
1655.139	0.016	1660543	REC_END	n/a	n/a	5	-999	n/a	n/a	n/a	n/a	8	[0, 0, 0]	-999	PAL1	0	R1278E
1655.155	0.266	1660559	TEST_ORIENT	n/a	n/a	6	6	ZOO	PASS	NAIL	ZOO	8	[0, 0, 0]	-999	PAL1	0	R1278E
1655.421	0.618	1660825	RETRIEVAL_ORIENT_OFF	n/a	n/a	5	-999	n/a	n/a	n/a	n/a	8	[0, 0, 0]	-999	PAL1	0	R1278E
1656.039	0.001	1661443	TEST_PROBE	n/a	wordpools/wordpool_EN.txt	6	6	ZOO	PASS	NAIL	ZOO	8	[0, 0, 0]	-999	PAL1	0	R1278E
1656.04	1.712	1661444	REC_START	n/a	n/a	6	-999	n/a	PASS	n/a	n/a	8	[0, 0, 0]	-999	PAL1	0	R1278E
1657.752	2.304	1663156	REC_EVENT	1712	n/a	6	6	ZOO	<>	NAIL	ZOO	8	[0, 0, 0]	-999	PAL1	0	R1278E
1660.056	0.189	1665460	PROBE_OFF	n/a	n/a	6	-999	n/a	n/a	n/a	n/a	8	[0, 0, 0]	-999	PAL1	0	R1278E
1660.245	0.811	1665649	REC_EVENT	4205	n/a	6	6	ZOO	PASS	NAIL	ZOO	8	[0, 0, 0]	-999	PAL1	0	R1278E
1661.056	0.01	1666460	REC_END	n/a	n/a	6	-999	n/a	n/a	n/a	n/a	8	[0, 0, 0]	-999	PAL1	0	R1278E
1661.066	8.909	1666470	RECALL_END	n/a	n/a	-999	-999	n/a	n/a	n/a	n/a	8	[0, 0, 0]	-999	PAL1	0	R1278E
1669.975	10.928	1675379	TRIAL	n/a	n/a	-999	-999	n/a	n/a	n/a	n/a	9	[0, 0, 0]	-999	PAL1	0	R1278E
1680.903	0.007	1686306	ENCODING_START	n/a	n/a	-999	-999	n/a	n/a	n/a	n/a	9	[0, 0, 0]	-999	PAL1	0	R1278E
1680.91	0.267	1686313	STUDY_ORIENT	n/a	n/a	1	1	PALM	PASS	STORE	PALM	9	[0, 0, 0]	-999	PAL1	0	R1278E
1681.177	0.733	1686580	STUDY_ORIENT_OFF	n/a	n/a	1	1	PALM	PASS	STORE	PALM	9	[0, 0, 0]	-999	PAL1	0	R1278E
1681.91	4.018	1687313	STUDY_PAIR	n/a	wordpools/wordpool_EN.txt	1	1	PALM	PASS	STORE	PALM	9	[0, 0, 0]	-999	PAL1	0	R1278E
1685.928	1.016	1691331	PAIR_OFF	n/a	n/a	1	1	PALM	PASS	STORE	PALM	9	[0, 0, 0]	-999	PAL1	0	R1278E
1686.944	0.267	1692347	STUDY_ORIENT	n/a	n/a	2	2	DESK	SQUARE	SQUARE	DESK	9	[0, 0, 0]	-999	PAL1	0	R1278E
1687.211	0.767	1692614	STUDY_ORIENT_OFF	n/a	n/a	2	2	DESK	SQUARE	SQUARE	DESK	9	[0, 0, 0]	-999	PAL1	0	R1278E
1687.978	4.017	1693381	STUDY_PAIR	n/a	wordpools/wordpool_EN.txt	2	2	DESK	SQUARE	SQUARE	DESK	9	[0, 0, 0]	-999	PAL1	0	R1278E
1691.995	1.017	1697398	PAIR_OFF	n/a	n/a	2	2	DESK	SQUARE	SQUARE	DESK	9	[0, 0, 0]	-999	PAL1	0	R1278E
1693.012	0.267	1698415	STUDY_ORIENT	n/a	n/a	3	3	CLAY	PASS	CLAY	OWL	9	[0, 0, 0]	-999	PAL1	0	R1278E
1693.279	0.667	1698682	STUDY_ORIENT_OFF	n/a	n/a	3	3	CLAY	PASS	CLAY	OWL	9	[0, 0, 0]	-999	PAL1	0	R1278E
1693.946	4.017	1699349	STUDY_PAIR	n/a	wordpools/wordpool_EN.txt	3	3	CLAY	PASS	CLAY	OWL	9	[0, 0, 0]	-999	PAL1	0	R1278E
1697.963	1.017	1703366	PAIR_OFF	n/a	n/a	3	3	CLAY	PASS	CLAY	OWL	9	[0, 0, 0]	-999	PAL1	0	R1278E
1698.98	0.266	1704383	STUDY_ORIENT	n/a	n/a	4	6	PLATE	BRUSH	PLATE	BRUSH	9	[0, 0, 0]	-999	PAL1	0	R1278E
1699.246	0.734	1704649	STUDY_ORIENT_OFF	n/a	n/a	4	6	PLATE	BRUSH	PLATE	BRUSH	9	[0, 0, 0]	-999	PAL1	0	R1278E
1699.98	4.017	1705382	STUDY_PAIR	n/a	wordpools/wordpool_EN.txt	4	6	PLATE	BRUSH	PLATE	BRUSH	9	[0, 0, 0]	-999	PAL1	0	R1278E
1703.997	1.017	1709399	PAIR_OFF	n/a	n/a	4	6	PLATE	BRUSH	PLATE	BRUSH	9	[0, 0, 0]	-999	PAL1	0	R1278E
1705.014	0.267	1710416	STUDY_ORIENT	n/a	n/a	5	5	ARK	PASS	FLAG	ARK	9	[0, 0, 0]	-999	PAL1	0	R1278E
1705.281	0.6	1710683	STUDY_ORIENT_OFF	n/a	n/a	5	5	ARK	PASS	FLAG	ARK	9	[0, 0, 0]	-999	PAL1	0	R1278E
1705.881	4.017	1711283	STUDY_PAIR	n/a	wordpools/wordpool_EN.txt	5	5	ARK	PASS	FLAG	ARK	9	[0, 0, 0]	-999	PAL1	0	R1278E
1709.898	1.017	1715300	PAIR_OFF	n/a	n/a	5	5	ARK	PASS	FLAG	ARK	9	[0, 0, 0]	-999	PAL1	0	R1278E
1710.915	0.267	1716317	STUDY_ORIENT	n/a	n/a	6	4	GEESE	n/a	GEESE	BEAR	9	[0, 0, 0]	-999	PAL1	0	R1278E
1711.182	0.565	1716584	STUDY_ORIENT_OFF	n/a	n/a	6	4	GEESE	n/a	GEESE	BEAR	9	[0, 0, 0]	-999	PAL1	0	R1278E
1711.747	4.001	1717149	STUDY_PAIR	n/a	wordpools/wordpool_EN.txt	6	4	GEESE	n/a	GEESE	BEAR	9	[0, 0, 0]	-999	PAL1	0	R1278E
1715.748	1.0	1721150	PAIR_OFF	n/a	n/a	6	4	GEESE	n/a	GEESE	BEAR	9	[0, 0, 0]	-999	PAL1	0	R1278E
1716.748	0.0	1722150	ENCODING_END	n/a	n/a	-999	-999	n/a	n/a	n/a	n/a	9	[0, 0, 0]	-999	PAL1	0	R1278E
1716.748	0.001	1722150	MATH_START	n/a	n/a	-999	-999	n/a	n/a	n/a	n/a	9	[0, 0, 0]	-999	PAL1	0	R1278E
1716.749	0.016	1722151	START	n/a	n/a	-999	-999	n/a	n/a	n/a	n/a	9	[-999, -999, -999]	-999	PAL1	0	R1278E
1716.765	4.369	1722167	PROB	4330	n/a	-999	-999	n/a	n/a	n/a	n/a	9	[9, 2, 3]	14	PAL1	0	R1278E
1721.134	4.867	1726536	PROB	4841	n/a	-999	-999	n/a	n/a	n/a	n/a	9	[3, 9, 2]	14	PAL1	0	R1278E
1726.001	2.851	1731402	PROB	2814	n/a	-999	-999	n/a	n/a	n/a	n/a	9	[5, 4, 3]	12	PAL1	0	R1278E
1728.852	4.866	1734253	PROB	4835	n/a	-999	-999	n/a	n/a	n/a	n/a	9	[2, 3, 9]	14	PAL1	0	R1278E
1733.718	2.867	1739119	PROB	2833	n/a	-999	-999	n/a	n/a	n/a	n/a	9	[5, 4, 1]	10	PAL1	0	R1278E
1736.585	3.358	1741986	PROB	3358	n/a	-999	-999	n/a	n/a	n/a	n/a	9	[3, 1, 8]	12	PAL1	0	R1278E
1739.943	0.011	1745344	STOP	n/a	n/a	-999	-999	n/a	n/a	n/a	n/a	9	[-999, -999, -999]	-999	PAL1	0	R1278E
1739.954	0.0	1745355	MATH_END	n/a	n/a	-999	-999	n/a	n/a	n/a	n/a	9	[0, 0, 0]	-999	PAL1	0	R1278E
1739.954	0.016	1745355	RECALL_START	n/a	n/a	-999	-999	n/a	n/a	n/a	n/a	9	[0, 0, 0]	-999	PAL1	0	R1278E
1739.97	0.267	1745371	TEST_ORIENT	n/a	n/a	1	1	PALM	PASS	STORE	PALM	9	[0, 0, 0]	-999	PAL1	0	R1278E
1740.237	0.617	1745638	RETRIEVAL_ORIENT_OFF	n/a	n/a	-999	-999	n/a	n/a	n/a	n/a	9	[0, 0, 0]	-999	PAL1	0	R1278E
1740.854	0.0	1746255	TEST_PROBE	n/a	wordpools/wordpool_EN.txt	1	1	PALM	PASS	STORE	PALM	9	[0, 0, 0]	-999	PAL1	0	R1278E
1740.854	2.821	1746255	REC_START	n/a	n/a	1	-999	n/a	PASS	n/a	n/a	9	[0, 0, 0]	-999	PAL1	0	R1278E
1743.675	1.196	1749076	REC_EVENT	2821	n/a	1	1	PALM	PASS	STORE	PALM	9	[0, 0, 0]	-999	PAL1	0	R1278E
1744.871	1.0	1750272	PROBE_OFF	n/a	n/a	1	-999	n/a	n/a	n/a	n/a	9	[0, 0, 0]	-999	PAL1	0	R1278E
1745.871	0.017	1751272	REC_END	n/a	n/a	1	-999	n/a	n/a	n/a	n/a	9	[0, 0, 0]	-999	PAL1	0	R1278E
1745.888	0.267	1751289	TEST_ORIENT	n/a	n/a	2	2	DESK	SQUARE	SQUARE	DESK	9	[0, 0, 0]	-999	PAL1	0	R1278E
1746.155	0.549	1751556	RETRIEVAL_ORIENT_OFF	n/a	n/a	1	-999	n/a	n/a	n/a	n/a	9	[0, 0, 0]	-999	PAL1	0	R1278E
1746.704	0.0	1752105	TEST_PROBE	n/a	wordpools/wordpool_EN.txt	2	2	DESK	SQUARE	SQUARE	DESK	9	[0, 0, 0]	-999	PAL1	0	R1278E
1746.704	1.989	1752105	REC_START	n/a	n/a	2	-999	n/a	SQUARE	n/a	n/a	9	[0, 0, 0]	-999	PAL1	0	R1278E
1748.693	2.028	1754094	REC_EVENT	1989	n/a	2	2	DESK	SQUARE	SQUARE	DESK	9	[0, 0, 0]	-999	PAL1	0	R1278E
1750.721	1.0	1756121	PROBE_OFF	n/a	n/a	2	-999	n/a	n/a	n/a	n/a	9	[0, 0, 0]	-999	PAL1	0	R1278E
1751.721	0.017	1757121	REC_END	n/a	n/a	2	-999	n/a	n/a	n/a	n/a	9	[0, 0, 0]	-999	PAL1	0	R1278E
1751.738	0.251	1757138	TEST_ORIENT	n/a	n/a	3	3	CLAY	PASS	CLAY	OWL	9	[0, 0, 0]	-999	PAL1	0	R1278E
1751.989	0.532	1757389	RETRIEVAL_ORIENT_OFF	n/a	n/a	2	-999	n/a	n/a	n/a	n/a	9	[0, 0, 0]	-999	PAL1	0	R1278E
1752.521	0.001	1757921	TEST_PROBE	n/a	wordpools/wordpool_EN.txt	3	3	CLAY	PASS	CLAY	OWL	9	[0, 0, 0]	-999	PAL1	0	R1278E
1752.522	1.586	1757922	REC_START	n/a	n/a	3	-999	n/a	PASS	n/a	n/a	9	[0, 0, 0]	-999	PAL1	0	R1278E
1754.108	1.206	1759508	REC_EVENT	1586	n/a	3	3	CLAY	<>	CLAY	OWL	9	[0, 0, 0]	-999	PAL1	0	R1278E
1755.314	1.208	1760714	REC_EVENT	2792	n/a	3	3	CLAY	PASS	CLAY	OWL	9	[0, 0, 0]	-999	PAL1	0	R1278E
1756.522	1.0	1761922	PROBE_OFF	n/a	n/a	3	-999	n/a	n/a	n/a	n/a	9	[0, 0, 0]	-999	PAL1	0	R1278E
1757.522	0.017	1762922	REC_END	n/a	n/a	3	-999	n/a	n/a	n/a	n/a	9	[0, 0, 0]	-999	PAL1	0	R1278E
1757.539	0.267	1762939	TEST_ORIENT	n/a	n/a	6	4	GEESE	n/a	GEESE	BEAR	9	[0, 0, 0]	-999	PAL1	0	R1278E
1757.806	0.516	1763206	RETRIEVAL_ORIENT_OFF	n/a	n/a	3	-999	n/a	n/a	n/a	n/a	9	[0, 0, 0]	-999	PAL1	0	R1278E
1758.322	0.001	1763722	TEST_PROBE	n/a	wordpools/wordpool_EN.txt	6	4	GEESE	n/a	GEESE	BEAR	9	[0, 0, 0]	-999	PAL1	0	R1278E
1758.323	3.709	1763723	REC_START	n/a	n/a	6	-999	n/a	n/a	n/a	n/a	9	[0, 0, 0]	-999	PAL1	0	R1278E
1762.032	0.308	1767432	REC_EVENT	3709	n/a	6	4	GEESE	<>	GEESE	BEAR	9	[0, 0, 0]	-999	PAL1	0	R1278E
1762.34	1.0	1767740	PROBE_OFF	n/a	n/a	6	-999	n/a	n/a	n/a	n/a	9	[0, 0, 0]	-999	PAL1	0	R1278E
1763.34	0.017	1768740	REC_END	n/a	n/a	6	-999	n/a	n/a	n/a	n/a	9	[0, 0, 0]	-999	PAL1	0	R1278E
1763.357	0.266	1768757	TEST_ORIENT	n/a	n/a	5	5	ARK	PASS	FLAG	ARK	9	[0, 0, 0]	-999	PAL1	0	R1278E
1763.623	0.518	1769023	RETRIEVAL_ORIENT_OFF	n/a	n/a	6	-999	n/a	n/a	n/a	n/a	9	[0, 0, 0]	-999	PAL1	0	R1278E
1764.141	0.001	1769541	TEST_PROBE	n/a	wordpools/wordpool_EN.txt	5	5	ARK	PASS	FLAG	ARK	9	[0, 0, 0]	-999	PAL1	0	R1278E
1764.142	3.481	1769542	REC_START	n/a	n/a	5	-999	n/a	PASS	n/a	n/a	9	[0, 0, 0]	-999	PAL1	0	R1278E
1767.623	0.536	1773023	REC_EVENT	3481	n/a	5	5	ARK	PASS	FLAG	ARK	9	[0, 0, 0]	-999	PAL1	0	R1278E
1768.159	1.011	1773559	PROBE_OFF	n/a	n/a	5	-999	n/a	n/a	n/a	n/a	9	[0, 0, 0]	-999	PAL1	0	R1278E
1769.17	0.022	1774570	REC_END	n/a	n/a	5	-999	n/a	n/a	n/a	n/a	9	[0, 0, 0]	-999	PAL1	0	R1278E
1769.192	0.266	1774592	TEST_ORIENT	n/a	n/a	4	6	PLATE	BRUSH	PLATE	BRUSH	9	[0, 0, 0]	-999	PAL1	0	R1278E
1769.458	0.668	1774858	RETRIEVAL_ORIENT_OFF	n/a	n/a	5	-999	n/a	n/a	n/a	n/a	9	[0, 0, 0]	-999	PAL1	0	R1278E
1770.126	0.0	1775526	TEST_PROBE	n/a	wordpools/wordpool_EN.txt	4	6	PLATE	BRUSH	PLATE	BRUSH	9	[0, 0, 0]	-999	PAL1	0	R1278E
1770.126	1.699	1775526	REC_START	n/a	n/a	4	-999	n/a	BRUSH	n/a	n/a	9	[0, 0, 0]	-999	PAL1	0	R1278E
1771.825	2.318	1777225	REC_EVENT	1699	n/a	4	6	PLATE	BRUSH	PLATE	BRUSH	9	[0, 0, 0]	-999	PAL1	0	R1278E
1774.143	1.0	1779543	PROBE_OFF	n/a	n/a	4	-999	n/a	n/a	n/a	n/a	9	[0, 0, 0]	-999	PAL1	0	R1278E
1775.143	0.005	1780542	REC_END	n/a	n/a	4	-999	n/a	n/a	n/a	n/a	9	[0, 0, 0]	-999	PAL1	0	R1278E
1775.148	11.83	1780547	RECALL_END	n/a	n/a	-999	-999	n/a	n/a	n/a	n/a	9	[0, 0, 0]	-999	PAL1	0	R1278E
1786.978	10.928	1792377	TRIAL	n/a	n/a	-999	-999	n/a	n/a	n/a	n/a	10	[0, 0, 0]	-999	PAL1	0	R1278E
1797.906	0.008	1803305	ENCODING_START	n/a	n/a	-999	-999	n/a	n/a	n/a	n/a	10	[0, 0, 0]	-999	PAL1	0	R1278E
1797.914	0.266	1803313	STUDY_ORIENT	n/a	n/a	1	3	SWORD	PASS	LAMB	SWORD	10	[0, 0, 0]	-999	PAL1	0	R1278E
1798.18	0.583	1803579	STUDY_ORIENT_OFF	n/a	n/a	1	3	SWORD	PASS	LAMB	SWORD	10	[0, 0, 0]	-999	PAL1	0	R1278E
1798.763	4.017	1804162	STUDY_PAIR	n/a	wordpools/wordpool_EN.txt	1	3	SWORD	PASS	LAMB	SWORD	10	[0, 0, 0]	-999	PAL1	0	R1278E
1802.78	1.017	1808178	PAIR_OFF	n/a	n/a	1	3	SWORD	PASS	LAMB	SWORD	10	[0, 0, 0]	-999	PAL1	0	R1278E
1803.797	0.268	1809195	STUDY_ORIENT	n/a	n/a	2	2	FOOT	n/a	FOOT	VAN	10	[0, 0, 0]	-999	PAL1	0	R1278E
1804.065	0.632	1809463	STUDY_ORIENT_OFF	n/a	n/a	2	2	FOOT	n/a	FOOT	VAN	10	[0, 0, 0]	-999	PAL1	0	R1278E
1804.697	4.018	1810095	STUDY_PAIR	n/a	wordpools/wordpool_EN.txt	2	2	FOOT	n/a	FOOT	VAN	10	[0, 0, 0]	-999	PAL1	0	R1278E
1808.715	1.016	1814113	PAIR_OFF	n/a	n/a	2	2	FOOT	n/a	FOOT	VAN	10	[0, 0, 0]	-999	PAL1	0	R1278E
1809.731	0.268	1815129	STUDY_ORIENT	n/a	n/a	3	1	GLOVE	PASS	BOAT	GLOVE	10	[0, 0, 0]	-999	PAL1	0	R1278E
1809.999	0.716	1815397	STUDY_ORIENT_OFF	n/a	n/a	3	1	GLOVE	PASS	BOAT	GLOVE	10	[0, 0, 0]	-999	PAL1	0	R1278E
1810.715	4.017	1816113	STUDY_PAIR	n/a	wordpools/wordpool_EN.txt	3	1	GLOVE	PASS	BOAT	GLOVE	10	[0, 0, 0]	-999	PAL1	0	R1278E
1814.732	1.017	1820130	PAIR_OFF	n/a	n/a	3	1	GLOVE	PASS	BOAT	GLOVE	10	[0, 0, 0]	-999	PAL1	0	R1278E
1815.749	0.268	1821147	STUDY_ORIENT	n/a	n/a	4	6	PHONE	n/a	BRIDGE	PHONE	10	[0, 0, 0]	-999	PAL1	0	R1278E
1816.017	0.649	1821415	STUDY_ORIENT_OFF	n/a	n/a	4	6	PHONE	n/a	BRIDGE	PHONE	10	[0, 0, 0]	-999	PAL1	0	R1278E
1816.666	4.017	1822064	STUDY_PAIR	n/a	wordpools/wordpool_EN.txt	4	6	PHONE	n/a	BRIDGE	PHONE	10	[0, 0, 0]	-999	PAL1	0	R1278E
1820.683	1.017	1826081	PAIR_OFF	n/a	n/a	4	6	PHONE	n/a	BRIDGE	PHONE	10	[0, 0, 0]	-999	PAL1	0	R1278E
1821.7	0.268	1827098	STUDY_ORIENT	n/a	n/a	5	5	JUDGE	PASS	CONE	JUDGE	10	[0, 0, 0]	-999	PAL1	0	R1278E
1821.968	0.632	1827366	STUDY_ORIENT_OFF	n/a	n/a	5	5	JUDGE	PASS	CONE	JUDGE	10	[0, 0, 0]	-999	PAL1	0	R1278E
1822.6	4.018	1827998	STUDY_PAIR	n/a	wordpools/wordpool_EN.txt	5	5	JUDGE	PASS	CONE	JUDGE	10	[0, 0, 0]	-999	PAL1	0	R1278E
1826.618	1.017	1832015	PAIR_OFF	n/a	n/a	5	5	JUDGE	PASS	CONE	JUDGE	10	[0, 0, 0]	-999	PAL1	0	R1278E
1827.635	0.267	1833032	STUDY_ORIENT	n/a	n/a	6	4	WORM	n/a	FLAME	WORM	10	[0, 0, 0]	-999	PAL1	0	R1278E
1827.902	0.749	1833299	STUDY_ORIENT_OFF	n/a	n/a	6	4	WORM	n/a	FLAME	WORM	10	[0, 0, 0]	-999	PAL1	0	R1278E
1828.651	4.001	1834048	STUDY_PAIR	n/a	wordpools/wordpool_EN.txt	6	4	WORM	n/a	FLAME	WORM	10	[0, 0, 0]	-999	PAL1	0	R1278E
1832.652	1.001	1838049	PAIR_OFF	n/a	n/a	6	4	WORM	n/a	FLAME	WORM	10	[0, 0, 0]	-999	PAL1	0	R1278E
1833.653	0.0	1839050	ENCODING_END	n/a	n/a	-999	-999	n/a	n/a	n/a	n/a	10	[0, 0, 0]	-999	PAL1	0	R1278E
1833.653	0.0	1839050	MATH_START	n/a	n/a	-999	-999	n/a	n/a	n/a	n/a	10	[0, 0, 0]	-999	PAL1	0	R1278E
1833.653	0.016	1839050	START	n/a	n/a	-999	-999	n/a	n/a	n/a	n/a	10	[-999, -999, -999]	-999	PAL1	0	R1278E
1833.669	6.369	1839066	PROB	6341	n/a	-999	-999	n/a	n/a	n/a	n/a	10	[9, 4, 6]	19	PAL1	0	R1278E
1840.038	4.934	1845435	PROB	4900	n/a	-999	-999	n/a	n/a	n/a	n/a	10	[4, 7, 4]	15	PAL1	0	R1278E
1844.972	6.201	1850369	PROB	6178	n/a	-999	-999	n/a	n/a	n/a	n/a	10	[6, 8, 7]	21	PAL1	0	R1278E
1851.173	5.783	1856569	PROB	5783	n/a	-999	-999	n/a	n/a	n/a	n/a	10	[6, 2, 7]	15	PAL1	0	R1278E
1856.956	0.018	1862352	STOP	n/a	n/a	-999	-999	n/a	n/a	n/a	n/a	10	[-999, -999, -999]	-999	PAL1	0	R1278E
1856.974	0.0	1862370	MATH_END	n/a	n/a	-999	-999	n/a	n/a	n/a	n/a	10	[0, 0, 0]	-999	PAL1	0	R1278E
1856.974	0.017	1862370	RECALL_START	n/a	n/a	-999	-999	n/a	n/a	n/a	n/a	10	[0, 0, 0]	-999	PAL1	0	R1278E
1856.991	0.266	1862387	TEST_ORIENT	n/a	n/a	3	1	GLOVE	PASS	BOAT	GLOVE	10	[0, 0, 0]	-999	PAL1	0	R1278E
1857.257	0.584	1862653	RETRIEVAL_ORIENT_OFF	n/a	n/a	-999	-999	n/a	n/a	n/a	n/a	10	[0, 0, 0]	-999	PAL1	0	R1278E
1857.841	0.0	1863237	TEST_PROBE	n/a	wordpools/wordpool_EN.txt	3	1	GLOVE	PASS	BOAT	GLOVE	10	[0, 0, 0]	-999	PAL1	0	R1278E
1857.841	2.839	1863237	REC_START	n/a	n/a	3	-999	n/a	PASS	n/a	n/a	10	[0, 0, 0]	-999	PAL1	0	R1278E
1860.68	0.495	1866076	REC_EVENT	2839	n/a	3	1	GLOVE	<>	BOAT	GLOVE	10	[0, 0, 0]	-999	PAL1	0	R1278E
1861.175	0.683	1866571	REC_EVENT	3334	n/a	3	1	GLOVE	PASS	BOAT	GLOVE	10	[0, 0, 0]	-999	PAL1	0	R1278E
1861.858	1.001	1867254	PROBE_OFF	n/a	n/a	3	-999	n/a	n/a	n/a	n/a	10	[0, 0, 0]	-999	PAL1	0	R1278E
1862.859	0.016	1868255	REC_END	n/a	n/a	3	-999	n/a	n/a	n/a	n/a	10	[0, 0, 0]	-999	PAL1	0	R1278E
1862.875	0.267	1868271	TEST_ORIENT	n/a	n/a	2	2	FOOT	n/a	FOOT	VAN	10	[0, 0, 0]	-999	PAL1	0	R1278E
1863.142	0.549	1868538	RETRIEVAL_ORIENT_OFF	n/a	n/a	3	-999	n/a	n/a	n/a	n/a	10	[0, 0, 0]	-999	PAL1	0	R1278E
1863.691	0.0	1869087	TEST_PROBE	n/a	wordpools/wordpool_EN.txt	2	2	FOOT	n/a	FOOT	VAN	10	[0, 0, 0]	-999	PAL1	0	R1278E
1863.691	4.017	1869087	REC_START	n/a	n/a	2	-999	n/a	n/a	n/a	n/a	10	[0, 0, 0]	-999	PAL1	0	R1278E
1867.708	0.998	1873104	PROBE_OFF	n/a	n/a	2	-999	n/a	n/a	n/a	n/a	10	[0, 0, 0]	-999	PAL1	0	R1278E
1868.706	0.003	1874102	REC_EVENT	5015	n/a	2	2	FOOT	<>	FOOT	VAN	10	[0, 0, 0]	-999	PAL1	0	R1278E
1868.709	0.016	1874105	REC_END	n/a	n/a	2	-999	n/a	n/a	n/a	n/a	10	[0, 0, 0]	-999	PAL1	0	R1278E
1868.725	0.251	1874121	TEST_ORIENT	n/a	n/a	1	3	SWORD	PASS	LAMB	SWORD	10	[0, 0, 0]	-999	PAL1	0	R1278E
1868.976	0.599	1874372	RETRIEVAL_ORIENT_OFF	n/a	n/a	2	-999	n/a	n/a	n/a	n/a	10	[0, 0, 0]	-999	PAL1	0	R1278E
1869.575	0.001	1874971	TEST_PROBE	n/a	wordpools/wordpool_EN.txt	1	3	SWORD	PASS	LAMB	SWORD	10	[0, 0, 0]	-999	PAL1	0	R1278E
1869.576	2.919	1874972	REC_START	n/a	n/a	1	-999	n/a	PASS	n/a	n/a	10	[0, 0, 0]	-999	PAL1	0	R1278E
1872.495	1.098	1877891	REC_EVENT	2919	n/a	1	3	SWORD	PASS	LAMB	SWORD	10	[0, 0, 0]	-999	PAL1	0	R1278E
1873.593	0.019	1878989	PROBE_OFF	n/a	n/a	1	-999	n/a	n/a	n/a	n/a	10	[0, 0, 0]	-999	PAL1	0	R1278E
1873.612	0.981	1879008	REC_EVENT	4036	n/a	1	3	SWORD	<>	LAMB	SWORD	10	[0, 0, 0]	-999	PAL1	0	R1278E
1874.593	0.016	1879988	REC_END	n/a	n/a	1	-999	n/a	n/a	n/a	n/a	10	[0, 0, 0]	-999	PAL1	0	R1278E
1874.609	0.268	1880004	TEST_ORIENT	n/a	n/a	6	4	WORM	n/a	FLAME	WORM	10	[0, 0, 0]	-999	PAL1	0	R1278E
1874.877	0.616	1880272	RETRIEVAL_ORIENT_OFF	n/a	n/a	1	-999	n/a	n/a	n/a	n/a	10	[0, 0, 0]	-999	PAL1	0	R1278E
1875.493	0.001	1880888	TEST_PROBE	n/a	wordpools/wordpool_EN.txt	6	4	WORM	n/a	FLAME	WORM	10	[0, 0, 0]	-999	PAL1	0	R1278E
1875.494	4.016	1880889	REC_START	n/a	n/a	6	-999	n/a	n/a	n/a	n/a	10	[0, 0, 0]	-999	PAL1	0	R1278E
1879.51	0.374	1884905	PROBE_OFF	n/a	n/a	6	-999	n/a	n/a	n/a	n/a	10	[0, 0, 0]	-999	PAL1	0	R1278E
1879.884	0.626	1885279	REC_EVENT	4390	n/a	6	4	WORM	<>	FLAME	WORM	10	[0, 0, 0]	-999	PAL1	0	R1278E
1880.51	0.017	1885905	REC_END	n/a	n/a	6	-999	n/a	n/a	n/a	n/a	10	[0, 0, 0]	-999	PAL1	0	R1278E
1880.527	0.267	1885922	TEST_ORIENT	n/a	n/a	5	5	JUDGE	PASS	CONE	JUDGE	10	[0, 0, 0]	-999	PAL1	0	R1278E
1880.794	0.75	1886189	RETRIEVAL_ORIENT_OFF	n/a	n/a	6	-999	n/a	n/a	n/a	n/a	10	[0, 0, 0]	-999	PAL1	0	R1278E
1881.544	0.001	1886939	TEST_PROBE	n/a	wordpools/wordpool_EN.txt	5	5	JUDGE	PASS	CONE	JUDGE	10	[0, 0, 0]	-999	PAL1	0	R1278E
1881.545	3.591	1886940	REC_START	n/a	n/a	5	-999	n/a	PASS	n/a	n/a	10	[0, 0, 0]	-999	PAL1	0	R1278E
1885.136	0.425	1890531	REC_EVENT	3591	n/a	5	5	JUDGE	PASS	CONE	JUDGE	10	[0, 0, 0]	-999	PAL1	0	R1278E
1885.561	1.0	1890956	PROBE_OFF	n/a	n/a	5	-999	n/a	n/a	n/a	n/a	10	[0, 0, 0]	-999	PAL1	0	R1278E
1886.561	0.017	1891956	REC_END	n/a	n/a	5	-999	n/a	n/a	n/a	n/a	10	[0, 0, 0]	-999	PAL1	0	R1278E
1886.578	0.268	1891973	TEST_ORIENT	n/a	n/a	4	6	PHONE	n/a	BRIDGE	PHONE	10	[0, 0, 0]	-999	PAL1	0	R1278E
1886.846	0.749	1892241	RETRIEVAL_ORIENT_OFF	n/a	n/a	5	-999	n/a	n/a	n/a	n/a	10	[0, 0, 0]	-999	PAL1	0	R1278E
1887.595	0.001	1892990	TEST_PROBE	n/a	wordpools/wordpool_EN.txt	4	6	PHONE	n/a	BRIDGE	PHONE	10	[0, 0, 0]	-999	PAL1	0	R1278E
1887.596	4.016	1892991	REC_START	n/a	n/a	4	-999	n/a	n/a	n/a	n/a	10	[0, 0, 0]	-999	PAL1	0	R1278E
1891.612	0.999	1897007	PROBE_OFF	n/a	n/a	4	-999	n/a	n/a	n/a	n/a	10	[0, 0, 0]	-999	PAL1	0	R1278E
1892.611	0.001	1898006	REC_EVENT	5015	n/a	4	6	PHONE	<>	BRIDGE	PHONE	10	[0, 0, 0]	-999	PAL1	0	R1278E
1892.612	0.01	1898007	REC_END	n/a	n/a	4	-999	n/a	n/a	n/a	n/a	10	[0, 0, 0]	-999	PAL1	0	R1278E
1892.622	6.992	1898017	RECALL_END	n/a	n/a	-999	-999	n/a	n/a	n/a	n/a	10	[0, 0, 0]	-999	PAL1	0	R1278E
1899.614	10.928	1905008	TRIAL	n/a	n/a	-999	-999	n/a	n/a	n/a	n/a	11	[0, 0, 0]	-999	PAL1	0	R1278E
1910.542	0.007	1915936	ENCODING_START	n/a	n/a	-999	-999	n/a	n/a	n/a	n/a	11	[0, 0, 0]	-999	PAL1	0	R1278E
1910.549	0.267	1915943	STUDY_ORIENT	n/a	n/a	1	1	WHALE	DOLL	WHALE	DOLL	11	[0, 0, 0]	-999	PAL1	0	R1278E
1910.816	0.617	1916210	STUDY_ORIENT_OFF	n/a	n/a	1	1	WHALE	DOLL	WHALE	DOLL	11	[0, 0, 0]	-999	PAL1	0	R1278E
1911.433	4.017	1916827	STUDY_PAIR	n/a	wordpools/wordpool_EN.txt	1	1	WHALE	DOLL	WHALE	DOLL	11	[0, 0, 0]	-999	PAL1	0	R1278E
1915.45	1.017	1920844	PAIR_OFF	n/a	n/a	1	1	WHALE	DOLL	WHALE	DOLL	11	[0, 0, 0]	-999	PAL1	0	R1278E
1916.467	0.267	1921861	STUDY_ORIENT	n/a	n/a	2	4	BUSH	GOLD	BUSH	GOLD	11	[0, 0, 0]	-999	PAL1	0	R1278E
1916.734	0.6	1922128	STUDY_ORIENT_OFF	n/a	n/a	2	4	BUSH	GOLD	BUSH	GOLD	11	[0, 0, 0]	-999	PAL1	0	R1278E
1917.334	4.017	1922728	STUDY_PAIR	n/a	wordpools/wordpool_EN.txt	2	4	BUSH	GOLD	BUSH	GOLD	11	[0, 0, 0]	-999	PAL1	0	R1278E
1921.351	1.017	1926745	PAIR_OFF	n/a	n/a	2	4	BUSH	GOLD	BUSH	GOLD	11	[0, 0, 0]	-999	PAL1	0	R1278E
1922.368	0.267	1927762	STUDY_ORIENT	n/a	n/a	3	5	CROW	PASS	CROW	BIRD	11	[0, 0, 0]	-999	PAL1	0	R1278E
1922.635	0.75	1928029	STUDY_ORIENT_OFF	n/a	n/a	3	5	CROW	PASS	CROW	BIRD	11	[0, 0, 0]	-999	PAL1	0	R1278E
1923.385	4.017	1928779	STUDY_PAIR	n/a	wordpools/wordpool_EN.txt	3	5	CROW	PASS	CROW	BIRD	11	[0, 0, 0]	-999	PAL1	0	R1278E
1927.402	1.017	1932795	PAIR_OFF	n/a	n/a	3	5	CROW	PASS	CROW	BIRD	11	[0, 0, 0]	-999	PAL1	0	R1278E
1928.419	0.267	1933812	STUDY_ORIENT	n/a	n/a	4	2	FUDGE	PASS	CORN	FUDGE	11	[0, 0, 0]	-999	PAL1	0	R1278E
1928.686	0.75	1934079	STUDY_ORIENT_OFF	n/a	n/a	4	2	FUDGE	PASS	CORN	FUDGE	11	[0, 0, 0]	-999	PAL1	0	R1278E
1929.436	4.017	1934829	STUDY_PAIR	n/a	wordpools/wordpool_EN.txt	4	2	FUDGE	PASS	CORN	FUDGE	11	[0, 0, 0]	-999	PAL1	0	R1278E
1933.453	1.017	1938846	PAIR_OFF	n/a	n/a	4	2	FUDGE	PASS	CORN	FUDGE	11	[0, 0, 0]	-999	PAL1	0	R1278E
1934.47	0.267	1939863	STUDY_ORIENT	n/a	n/a	5	3	CLIFF	n/a	DIME	CLIFF	11	[0, 0, 0]	-999	PAL1	0	R1278E
1934.737	0.65	1940130	STUDY_ORIENT_OFF	n/a	n/a	5	3	CLIFF	n/a	DIME	CLIFF	11	[0, 0, 0]	-999	PAL1	0	R1278E
1935.387	4.017	1940780	STUDY_PAIR	n/a	wordpools/wordpool_EN.txt	5	3	CLIFF	n/a	DIME	CLIFF	11	[0, 0, 0]	-999	PAL1	0	R1278E
1939.404	1.017	1944797	PAIR_OFF	n/a	n/a	5	3	CLIFF	n/a	DIME	CLIFF	11	[0, 0, 0]	-999	PAL1	0	R1278E
1940.421	0.267	1945814	STUDY_ORIENT	n/a	n/a	6	6	DITCH	PASS	GUARD	DITCH	11	[0, 0, 0]	-999	PAL1	0	R1278E
1940.688	0.65	1946081	STUDY_ORIENT_OFF	n/a	n/a	6	6	DITCH	PASS	GUARD	DITCH	11	[0, 0, 0]	-999	PAL1	0	R1278E
1941.338	4.017	1946731	STUDY_PAIR	n/a	wordpools/wordpool_EN.txt	6	6	DITCH	PASS	GUARD	DITCH	11	[0, 0, 0]	-999	PAL1	0	R1278E
1945.355	1.001	1950748	PAIR_OFF	n/a	n/a	6	6	DITCH	PASS	GUARD	DITCH	11	[0, 0, 0]	-999	PAL1	0	R1278E
1946.356	0.0	1951749	ENCODING_END	n/a	n/a	-999	-999	n/a	n/a	n/a	n/a	11	[0, 0, 0]	-999	PAL1	0	R1278E
1946.356	0.0	1951749	MATH_START	n/a	n/a	-999	-999	n/a	n/a	n/a	n/a	11	[0, 0, 0]	-999	PAL1	0	R1278E
1946.356	0.016	1951749	START	n/a	n/a	-999	-999	n/a	n/a	n/a	n/a	11	[-999, -999, -999]	-999	PAL1	0	R1278E
1946.372	15.787	1951765	PROB	15750	n/a	-999	-999	n/a	n/a	n/a	n/a	11	[3, 7, 6]	16	PAL1	0	R1278E
1962.159	5.493	1967551	PROB	5493	n/a	-999	-999	n/a	n/a	n/a	n/a	11	[2, 6, 8]	16	PAL1	0	R1278E
1967.652	0.007	1973044	STOP	n/a	n/a	-999	-999	n/a	n/a	n/a	n/a	11	[-999, -999, -999]	-999	PAL1	0	R1278E
1967.659	0.0	1973051	MATH_END	n/a	n/a	-999	-999	n/a	n/a	n/a	n/a	11	[0, 0, 0]	-999	PAL1	0	R1278E
1967.659	0.017	1973051	RECALL_START	n/a	n/a	-999	-999	n/a	n/a	n/a	n/a	11	[0, 0, 0]	-999	PAL1	0	R1278E
1967.676	0.267	1973068	TEST_ORIENT	n/a	n/a	1	1	WHALE	DOLL	WHALE	DOLL	11	[0, 0, 0]	-999	PAL1	0	R1278E
1967.943	0.55	1973335	RETRIEVAL_ORIENT_OFF	n/a	n/a	-999	-999	n/a	n/a	n/a	n/a	11	[0, 0, 0]	-999	PAL1	0	R1278E
1968.493	0.001	1973885	TEST_PROBE	n/a	wordpools/wordpool_EN.txt	1	1	WHALE	DOLL	WHALE	DOLL	11	[0, 0, 0]	-999	PAL1	0	R1278E
1968.494	3.052	1973886	REC_START	n/a	n/a	1	-999	n/a	DOLL	n/a	n/a	11	[0, 0, 0]	-999	PAL1	0	R1278E
1971.546	0.964	1976938	REC_EVENT	3052	n/a	1	1	WHALE	DOLL	WHALE	DOLL	11	[0, 0, 0]	-999	PAL1	0	R1278E
1972.51	1.0	1977902	PROBE_OFF	n/a	n/a	1	-999	n/a	n/a	n/a	n/a	11	[0, 0, 0]	-999	PAL1	0	R1278E
1973.51	0.017	1978902	REC_END	n/a	n/a	1	-999	n/a	n/a	n/a	n/a	11	[0, 0, 0]	-999	PAL1	0	R1278E
1973.527	0.267	1978919	TEST_ORIENT	n/a	n/a	4	2	FUDGE	PASS	CORN	FUDGE	11	[0, 0, 0]	-999	PAL1	0	R1278E
1973.794	0.683	1979185	RETRIEVAL_ORIENT_OFF	n/a	n/a	1	-999	n/a	n/a	n/a	n/a	11	[0, 0, 0]	-999	PAL1	0	R1278E
1974.477	0.001	1979868	TEST_PROBE	n/a	wordpools/wordpool_EN.txt	4	2	FUDGE	PASS	CORN	FUDGE	11	[0, 0, 0]	-999	PAL1	0	R1278E
1974.478	0.614	1979869	REC_START	n/a	n/a	4	-999	n/a	PASS	n/a	n/a	11	[0, 0, 0]	-999	PAL1	0	R1278E
1975.092	0.965	1980483	REC_EVENT	614	n/a	4	2	FUDGE	<>	CORN	FUDGE	11	[0, 0, 0]	-999	PAL1	0	R1278E
1976.057	2.437	1981448	REC_EVENT	1579	n/a	4	2	FUDGE	PASS	CORN	FUDGE	11	[0, 0, 0]	-999	PAL1	0	R1278E
1978.494	1.0	1983885	PROBE_OFF	n/a	n/a	4	-999	n/a	n/a	n/a	n/a	11	[0, 0, 0]	-999	PAL1	0	R1278E
1979.494	0.017	1984885	REC_END	n/a	n/a	4	-999	n/a	n/a	n/a	n/a	11	[0, 0, 0]	-999	PAL1	0	R1278E
1979.511	0.267	1984902	TEST_ORIENT	n/a	n/a	5	3	CLIFF	n/a	DIME	CLIFF	11	[0, 0, 0]	-999	PAL1	0	R1278E
1979.778	0.683	1985169	RETRIEVAL_ORIENT_OFF	n/a	n/a	4	-999	n/a	n/a	n/a	n/a	11	[0, 0, 0]	-999	PAL1	0	R1278E
1980.461	0.001	1985852	TEST_PROBE	n/a	wordpools/wordpool_EN.txt	5	3	CLIFF	n/a	DIME	CLIFF	11	[0, 0, 0]	-999	PAL1	0	R1278E
1980.462	4.017	1985853	REC_START	n/a	n/a	5	-999	n/a	n/a	n/a	n/a	11	[0, 0, 0]	-999	PAL1	0	R1278E
1984.479	0.998	1989870	PROBE_OFF	n/a	n/a	5	-999	n/a	n/a	n/a	n/a	11	[0, 0, 0]	-999	PAL1	0	R1278E
1985.477	0.002	1990868	REC_EVENT	5015	n/a	5	3	CLIFF	<>	DIME	CLIFF	11	[0, 0, 0]	-999	PAL1	0	R1278E
1985.479	0.017	1990870	REC_END	n/a	n/a	5	-999	n/a	n/a	n/a	n/a	11	[0, 0, 0]	-999	PAL1	0	R1278E
1985.496	0.266	1990887	TEST_ORIENT	n/a	n/a	2	4	BUSH	GOLD	BUSH	GOLD	11	[0, 0, 0]	-999	PAL1	0	R1278E
1985.762	0.584	1991153	RETRIEVAL_ORIENT_OFF	n/a	n/a	5	-999	n/a	n/a	n/a	n/a	11	[0, 0, 0]	-999	PAL1	0	R1278E
1986.346	0.0	1991737	TEST_PROBE	n/a	wordpools/wordpool_EN.txt	2	4	BUSH	GOLD	BUSH	GOLD	11	[0, 0, 0]	-999	PAL1	0	R1278E
1986.346	1.664	1991737	REC_START	n/a	n/a	2	-999	n/a	GOLD	n/a	n/a	11	[0, 0, 0]	-999	PAL1	0	R1278E
1988.01	2.353	1993401	REC_EVENT	1664	n/a	2	4	BUSH	GOLD	BUSH	GOLD	11	[0, 0, 0]	-999	PAL1	0	R1278E
1990.363	1.0	1995754	PROBE_OFF	n/a	n/a	2	-999	n/a	n/a	n/a	n/a	11	[0, 0, 0]	-999	PAL1	0	R1278E
1991.363	0.017	1996754	REC_END	n/a	n/a	2	-999	n/a	n/a	n/a	n/a	11	[0, 0, 0]	-999	PAL1	0	R1278E
1991.38	0.267	1996771	TEST_ORIENT	n/a	n/a	3	5	CROW	PASS	CROW	BIRD	11	[0, 0, 0]	-999	PAL1	0	R1278E
1991.647	0.651	1997038	RETRIEVAL_ORIENT_OFF	n/a	n/a	2	-999	n/a	n/a	n/a	n/a	11	[0, 0, 0]	-999	PAL1	0	R1278E
1992.298	0.0	1997689	TEST_PROBE	n/a	wordpools/wordpool_EN.txt	3	5	CROW	PASS	CROW	BIRD	11	[0, 0, 0]	-999	PAL1	0	R1278E
1992.298	2.129	1997689	REC_START	n/a	n/a	3	-999	n/a	PASS	n/a	n/a	11	[0, 0, 0]	-999	PAL1	0	R1278E
1994.427	0.43	1999818	REC_EVENT	2129	n/a	3	5	CROW	<>	CROW	BIRD	11	[0, 0, 0]	-999	PAL1	0	R1278E
1994.857	1.457	2000248	REC_EVENT	2559	n/a	3	5	CROW	PASS	CROW	BIRD	11	[0, 0, 0]	-999	PAL1	0	R1278E
1996.314	1.001	2001705	PROBE_OFF	n/a	n/a	3	-999	n/a	n/a	n/a	n/a	11	[0, 0, 0]	-999	PAL1	0	R1278E
1997.315	0.016	2002706	REC_END	n/a	n/a	3	-999	n/a	n/a	n/a	n/a	11	[0, 0, 0]	-999	PAL1	0	R1278E
1997.331	0.267	2002722	TEST_ORIENT	n/a	n/a	6	6	DITCH	PASS	GUARD	DITCH	11	[0, 0, 0]	-999	PAL1	0	R1278E
1997.598	0.684	2002989	RETRIEVAL_ORIENT_OFF	n/a	n/a	3	-999	n/a	n/a	n/a	n/a	11	[0, 0, 0]	-999	PAL1	0	R1278E
1998.282	0.001	2003673	TEST_PROBE	n/a	wordpools/wordpool_EN.txt	6	6	DITCH	PASS	GUARD	DITCH	11	[0, 0, 0]	-999	PAL1	0	R1278E
1998.283	2.614	2003674	REC_START	n/a	n/a	6	-999	n/a	PASS	n/a	n/a	11	[0, 0, 0]	-999	PAL1	0	R1278E
2000.897	1.403	2006287	REC_EVENT	2614	n/a	6	6	DITCH	PASS	GUARD	DITCH	11	[0, 0, 0]	-999	PAL1	0	R1278E
2002.3	1.0	2007690	PROBE_OFF	n/a	n/a	6	-999	n/a	n/a	n/a	n/a	11	[0, 0, 0]	-999	PAL1	0	R1278E
2003.3	0.01	2008690	REC_END	n/a	n/a	6	-999	n/a	n/a	n/a	n/a	11	[0, 0, 0]	-999	PAL1	0	R1278E
2003.31	26.027	2008700	RECALL_END	n/a	n/a	-999	-999	n/a	n/a	n/a	n/a	11	[0, 0, 0]	-999	PAL1	0	R1278E
2029.337	10.929	2034726	TRIAL	n/a	n/a	-999	-999	n/a	n/a	n/a	n/a	12	[0, 0, 0]	-999	PAL1	0	R1278E
2040.266	0.007	2045655	ENCODING_START	n/a	n/a	-999	-999	n/a	n/a	n/a	n/a	12	[0, 0, 0]	-999	PAL1	0	R1278E
2040.273	0.266	2045662	STUDY_ORIENT	n/a	n/a	1	5	SKUNK	TOAST	TOAST	SKUNK	12	[0, 0, 0]	-999	PAL1	0	R1278E
2040.539	0.601	2045928	STUDY_ORIENT_OFF	n/a	n/a	1	5	SKUNK	TOAST	TOAST	SKUNK	12	[0, 0, 0]	-999	PAL1	0	R1278E
2041.14	4.017	2046529	STUDY_PAIR	n/a	wordpools/wordpool_EN.txt	1	5	SKUNK	TOAST	TOAST	SKUNK	12	[0, 0, 0]	-999	PAL1	0	R1278E
2045.157	1.017	2050546	PAIR_OFF	n/a	n/a	1	5	SKUNK	TOAST	TOAST	SKUNK	12	[0, 0, 0]	-999	PAL1	0	R1278E
2046.174	0.266	2051563	STUDY_ORIENT	n/a	n/a	2	6	BAND	PASS	BAND	CANE	12	[0, 0, 0]	-999	PAL1	0	R1278E
2046.44	0.65	2051829	STUDY_ORIENT_OFF	n/a	n/a	2	6	BAND	PASS	BAND	CANE	12	[0, 0, 0]	-999	PAL1	0	R1278E
2047.09	4.018	2052479	STUDY_PAIR	n/a	wordpools/wordpool_EN.txt	2	6	BAND	PASS	BAND	CANE	12	[0, 0, 0]	-999	PAL1	0	R1278E
2051.108	1.017	2056496	PAIR_OFF	n/a	n/a	2	6	BAND	PASS	BAND	CANE	12	[0, 0, 0]	-999	PAL1	0	R1278E
2052.125	0.266	2057513	STUDY_ORIENT	n/a	n/a	3	1	SLUSH	PASS	SLUSH	SPEAR	12	[0, 0, 0]	-999	PAL1	0	R1278E
2052.391	0.667	2057779	STUDY_ORIENT_OFF	n/a	n/a	3	1	SLUSH	PASS	SLUSH	SPEAR	12	[0, 0, 0]	-999	PAL1	0	R1278E
2053.058	4.018	2058446	STUDY_PAIR	n/a	wordpools/wordpool_EN.txt	3	1	SLUSH	PASS	SLUSH	SPEAR	12	[0, 0, 0]	-999	PAL1	0	R1278E
2057.076	1.017	2062464	PAIR_OFF	n/a	n/a	3	1	SLUSH	PASS	SLUSH	SPEAR	12	[0, 0, 0]	-999	PAL1	0	R1278E
2058.093	0.265	2063481	STUDY_ORIENT	n/a	n/a	4	4	CAKE	n/a	CAKE	STAIR	12	[0, 0, 0]	-999	PAL1	0	R1278E
2058.358	0.651	2063746	STUDY_ORIENT_OFF	n/a	n/a	4	4	CAKE	n/a	CAKE	STAIR	12	[0, 0, 0]	-999	PAL1	0	R1278E
2059.009	4.001	2064397	STUDY_PAIR	n/a	wordpools/wordpool_EN.txt	4	4	CAKE	n/a	CAKE	STAIR	12	[0, 0, 0]	-999	PAL1	0	R1278E
2063.01	1.017	2068398	PAIR_OFF	n/a	n/a	4	4	CAKE	n/a	CAKE	STAIR	12	[0, 0, 0]	-999	PAL1	0	R1278E
2064.027	0.267	2069415	STUDY_ORIENT	n/a	n/a	5	3	TEETH	PASS	CHIEF	TEETH	12	[0, 0, 0]	-999	PAL1	0	R1278E
2064.294	0.633	2069682	STUDY_ORIENT_OFF	n/a	n/a	5	3	TEETH	PASS	CHIEF	TEETH	12	[0, 0, 0]	-999	PAL1	0	R1278E
2064.927	4.017	2070315	STUDY_PAIR	n/a	wordpools/wordpool_EN.txt	5	3	TEETH	PASS	CHIEF	TEETH	12	[0, 0, 0]	-999	PAL1	0	R1278E
2068.944	1.017	2074332	PAIR_OFF	n/a	n/a	5	3	TEETH	PASS	CHIEF	TEETH	12	[0, 0, 0]	-999	PAL1	0	R1278E
2069.961	0.267	2075349	STUDY_ORIENT	n/a	n/a	6	2	BRICK	LIP	LIP	BRICK	12	[0, 0, 0]	-999	PAL1	0	R1278E
2070.228	0.7	2075616	STUDY_ORIENT_OFF	n/a	n/a	6	2	BRICK	LIP	LIP	BRICK	12	[0, 0, 0]	-999	PAL1	0	R1278E
2070.928	4.018	2076316	STUDY_PAIR	n/a	wordpools/wordpool_EN.txt	6	2	BRICK	LIP	LIP	BRICK	12	[0, 0, 0]	-999	PAL1	0	R1278E
2074.946	1.001	2080333	PAIR_OFF	n/a	n/a	6	2	BRICK	LIP	LIP	BRICK	12	[0, 0, 0]	-999	PAL1	0	R1278E
2075.947	0.0	2081334	ENCODING_END	n/a	n/a	-999	-999	n/a	n/a	n/a	n/a	12	[0, 0, 0]	-999	PAL1	0	R1278E
2075.947	0.0	2081334	MATH_START	n/a	n/a	-999	-999	n/a	n/a	n/a	n/a	12	[0, 0, 0]	-999	PAL1	0	R1278E
2075.947	0.015	2081334	START	n/a	n/a	-999	-999	n/a	n/a	n/a	n/a	12	[-999, -999, -999]	-999	PAL1	0	R1278E
2075.962	4.234	2081349	PROB	4209	n/a	-999	-999	n/a	n/a	n/a	n/a	12	[2, 7, 5]	14	PAL1	0	R1278E
2080.196	3.901	2085583	PROB	3870	n/a	-999	-999	n/a	n/a	n/a	n/a	12	[8, 4, 8]	20	PAL1	0	R1278E
