onset	duration	sample	trial_type	response_time	stim_file	serialpos	probepos	probe_word	resp_word	study_1	study_2	list	test	answer	experiment	session	subject
0.0	112.335	458509	SESS_START	n/a	n/a	-999	-999	n/a	n/a	n/a	n/a	-999	[0, 0, 0]	-999	PAL1	0	R1109N
112.335	1.016	570838	START	n/a	n/a	-999	-999	n/a	n/a	n/a	n/a	-1	[-999, -999, -999]	-999	PAL1	0	R1109N
113.351	9.818	571854	PROB	9798.0	n/a	-999	-999	n/a	n/a	n/a	n/a	-1	[7, 2, 3]	12	PAL1	0	R1109N
123.169	5.901	581672	PROB	5868.0	n/a	-999	-999	n/a	n/a	n/a	n/a	-1	[1, 4, 9]	14	PAL1	0	R1109N
129.07	6.375	587572	PROB	6375.0	n/a	-999	-999	n/a	n/a	n/a	n/a	-1	[7, 5, 5]	17	PAL1	0	R1109N
135.445	35.766	593947	STOP	n/a	n/a	-999	-999	n/a	n/a	n/a	n/a	-1	[-999, -999, -999]	-999	PAL1	0	R1109N
171.211	26.834	629711	FEEDBACK_SHOW_ALL_PAIRS	n/a	n/a	-999	-999	n/a	n/a	n/a	n/a	-999	[0, 0, 0]	-999	PAL1	0	R1109N
198.045	10.439	656544	ENCODING_START	n/a	n/a	0	-999	n/a	n/a	n/a	n/a	1	[0, 0, 0]	-999	PAL1	0	R1109N
208.484	0.275	666982	STUDY_ORIENT	n/a	n/a	1	1	SHIP	SHIRT	SHIRT	SHIP	1	[0, 0, 0]	-999	PAL1	0	R1109N
209.384	4.0	667882	STUDY_PAIR	n/a	wordpools/wordpool_EN.txt	1	1	SHIP	SHIRT	SHIRT	SHIP	1	[0, 0, 0]	-999	PAL1	0	R1109N
214.418	0.275	672916	STUDY_ORIENT	n/a	n/a	2	6	MAIL	n/a	TOAD	MAIL	1	[0, 0, 0]	-999	PAL1	0	R1109N
215.418	4.0	673916	STUDY_PAIR	n/a	wordpools/wordpool_EN.txt	2	6	MAIL	n/a	TOAD	MAIL	1	[0, 0, 0]	-999	PAL1	0	R1109N
220.436	0.275	678934	STUDY_ORIENT	n/a	n/a	3	5	STOOL	n/a	STOOL	MILK	1	[0, 0, 0]	-999	PAL1	0	R1109N
221.219	4.0	679717	STUDY_PAIR	n/a	wordpools/wordpool_EN.txt	3	5	STOOL	n/a	STOOL	MILK	1	[0, 0, 0]	-999	PAL1	0	R1109N
226.237	0.275	684734	STUDY_ORIENT	n/a	n/a	4	4	BEAK	n/a	CAGE	BEAK	1	[0, 0, 0]	-999	PAL1	0	R1109N
227.22	4.0	685717	STUDY_PAIR	n/a	wordpools/wordpool_EN.txt	4	4	BEAK	n/a	CAGE	BEAK	1	[0, 0, 0]	-999	PAL1	0	R1109N
232.238	0.275	690735	STUDY_ORIENT	n/a	n/a	5	3	DEER	n/a	POLE	DEER	1	[0, 0, 0]	-999	PAL1	0	R1109N
233.255	4.0	691752	STUDY_PAIR	n/a	wordpools/wordpool_EN.txt	5	3	DEER	n/a	POLE	DEER	1	[0, 0, 0]	-999	PAL1	0	R1109N
238.289	0.275	696786	STUDY_ORIENT	n/a	n/a	6	2	APE	HEART	HEART	APE	1	[0, 0, 0]	-999	PAL1	0	R1109N
239.139	4.0	697636	STUDY_PAIR	n/a	wordpools/wordpool_EN.txt	6	2	APE	HEART	HEART	APE	1	[0, 0, 0]	-999	PAL1	0	R1109N
243.157	0.999	701653	START	n/a	n/a	-999	-999	n/a	n/a	n/a	n/a	1	[-999, -999, -999]	-999	PAL1	0	R1109N
244.156	0.017	702652	MATH_START	n/a	n/a	-999	-999	n/a	n/a	n/a	n/a	1	[0, 0, 0]	-999	PAL1	0	R1109N
244.173	23.0	702669	PROB	23000.0	n/a	-999	-999	n/a	n/a	n/a	n/a	1	[5, 8, 9]	22	PAL1	0	R1109N
267.173	0.004	725668	STOP	n/a	n/a	-999	-999	n/a	n/a	n/a	n/a	1	[-999, -999, -999]	-999	PAL1	0	R1109N
267.177	0.0	725672	TEST_START	n/a	n/a	-999	-999	n/a	n/a	n/a	n/a	1	[0, 0, 0]	-999	PAL1	0	R1109N
267.177	0.017	725672	MATH_END	n/a	n/a	-999	-999	n/a	n/a	n/a	n/a	1	[0, 0, 0]	-999	PAL1	0	R1109N
267.194	0.275	725689	TEST_ORIENT	n/a	n/a	1	1	SHIP	SHIRT	SHIRT	SHIP	1	[0, 0, 0]	-999	PAL1	0	R1109N
268.077	4.0	726572	TEST_PROBE	n/a	wordpools/wordpool_EN.txt	1	1	SHIP	SHIRT	SHIRT	SHIP	1	[0, 0, 0]	-999	PAL1	0	R1109N
268.078	1.921	726573	REC_START	n/a	n/a	1	-999	n/a	SHIRT	n/a	n/a	1	[0, 0, 0]	-999	PAL1	0	R1109N
269.999	3.086	728494	REC_EVENT	1921.0	n/a	1	1	SHIP	SHIRT	SHIRT	SHIP	1	[0, 0, 0]	-999	PAL1	0	R1109N
273.085	0.01	731580	REC_END	n/a	n/a	1	-999	n/a	n/a	n/a	n/a	1	[0, 0, 0]	-999	PAL1	0	R1109N
273.095	0.275	731590	TEST_ORIENT	n/a	n/a	6	2	APE	HEART	HEART	APE	1	[0, 0, 0]	-999	PAL1	0	R1109N
273.962	0.0	732457	REC_START	n/a	n/a	6	-999	n/a	HEART	n/a	n/a	1	[0, 0, 0]	-999	PAL1	0	R1109N
273.962	4.0	732457	TEST_PROBE	n/a	wordpools/wordpool_EN.txt	6	2	APE	HEART	HEART	APE	1	[0, 0, 0]	-999	PAL1	0	R1109N
275.347	3.632	733842	REC_EVENT	1385.0	n/a	6	2	APE	HEART	HEART	APE	1	[0, 0, 0]	-999	PAL1	0	R1109N
278.979	0.017	737474	REC_END	n/a	n/a	6	-999	n/a	n/a	n/a	n/a	1	[0, 0, 0]	-999	PAL1	0	R1109N
278.996	0.275	737491	TEST_ORIENT	n/a	n/a	5	3	DEER	n/a	POLE	DEER	1	[0, 0, 0]	-999	PAL1	0	R1109N
279.996	4.0	738490	TEST_PROBE	n/a	wordpools/wordpool_EN.txt	5	3	DEER	n/a	POLE	DEER	1	[0, 0, 0]	-999	PAL1	0	R1109N
279.996	5.015	738490	REC_START	n/a	n/a	5	-999	n/a	n/a	n/a	n/a	1	[0, 0, 0]	-999	PAL1	0	R1109N
285.011	0.002	743505	REC_EVENT	5015.0	n/a	5	3	DEER	<>	POLE	DEER	1	[0, 0, 0]	-999	PAL1	0	R1109N
285.013	0.017	743507	REC_END	n/a	n/a	5	-999	n/a	n/a	n/a	n/a	1	[0, 0, 0]	-999	PAL1	0	R1109N
285.03	0.275	743524	TEST_ORIENT	n/a	n/a	4	4	BEAK	n/a	CAGE	BEAK	1	[0, 0, 0]	-999	PAL1	0	R1109N
286.014	4.0	744508	TEST_PROBE	n/a	wordpools/wordpool_EN.txt	4	4	BEAK	n/a	CAGE	BEAK	1	[0, 0, 0]	-999	PAL1	0	R1109N
286.014	5.015	744508	REC_START	n/a	n/a	4	-999	n/a	n/a	n/a	n/a	1	[0, 0, 0]	-999	PAL1	0	R1109N
291.029	0.002	749523	REC_EVENT	5015.0	n/a	4	4	BEAK	<>	CAGE	BEAK	1	[0, 0, 0]	-999	PAL1	0	R1109N
291.031	0.017	749525	REC_END	n/a	n/a	4	-999	n/a	n/a	n/a	n/a	1	[0, 0, 0]	-999	PAL1	0	R1109N
291.048	0.275	749542	TEST_ORIENT	n/a	n/a	3	5	STOOL	n/a	STOOL	MILK	1	[0, 0, 0]	-999	PAL1	0	R1109N
292.065	4.0	750559	TEST_PROBE	n/a	wordpools/wordpool_EN.txt	3	5	STOOL	n/a	STOOL	MILK	1	[0, 0, 0]	-999	PAL1	0	R1109N
292.065	5.015	750559	REC_START	n/a	n/a	3	-999	n/a	n/a	n/a	n/a	1	[0, 0, 0]	-999	PAL1	0	R1109N
297.08	0.002	755574	REC_EVENT	5015.0	n/a	3	5	STOOL	<>	STOOL	MILK	1	[0, 0, 0]	-999	PAL1	0	R1109N
297.082	0.017	755576	REC_END	n/a	n/a	3	-999	n/a	n/a	n/a	n/a	1	[0, 0, 0]	-999	PAL1	0	R1109N
297.099	0.275	755593	TEST_ORIENT	n/a	n/a	2	6	MAIL	n/a	TOAD	MAIL	1	[0, 0, 0]	-999	PAL1	0	R1109N
297.966	0.0	756460	REC_START	n/a	n/a	2	-999	n/a	n/a	n/a	n/a	1	[0, 0, 0]	-999	PAL1	0	R1109N
297.966	4.0	756460	TEST_PROBE	n/a	wordpools/wordpool_EN.txt	2	6	MAIL	n/a	TOAD	MAIL	1	[0, 0, 0]	-999	PAL1	0	R1109N
302.981	0.002	761474	REC_EVENT	5015.0	n/a	2	6	MAIL	<>	TOAD	MAIL	1	[0, 0, 0]	-999	PAL1	0	R1109N
302.983	0.033	761476	REC_END	n/a	n/a	2	-999	n/a	n/a	n/a	n/a	1	[0, 0, 0]	-999	PAL1	0	R1109N
303.016	14.477	761509	FEEDBACK_SHOW_ALL_PAIRS	n/a	n/a	2	-999	n/a	n/a	n/a	n/a	1	[0, 0, 0]	-999	PAL1	0	R1109N
317.493	10.445	775986	ENCODING_START	n/a	n/a	0	-999	n/a	n/a	n/a	n/a	2	[0, 0, 0]	-999	PAL1	0	R1109N
327.938	0.275	786430	STUDY_ORIENT	n/a	n/a	1	1	TOY	OAK	OAK	TOY	2	[0, 0, 0]	-999	PAL1	0	R1109N
328.738	4.0	787230	STUDY_PAIR	n/a	wordpools/wordpool_EN.txt	1	1	TOY	OAK	OAK	TOY	2	[0, 0, 0]	-999	PAL1	0	R1109N
333.756	0.275	792248	STUDY_ORIENT	n/a	n/a	2	6	BED	BRANCH	BRANCH	BED	2	[0, 0, 0]	-999	PAL1	0	R1109N
334.723	4.0	793215	STUDY_PAIR	n/a	wordpools/wordpool_EN.txt	2	6	BED	BRANCH	BRANCH	BED	2	[0, 0, 0]	-999	PAL1	0	R1109N
339.757	0.275	798248	STUDY_ORIENT	n/a	n/a	3	3	COUCH	CROW	CROW	COUCH	2	[0, 0, 0]	-999	PAL1	0	R1109N
340.707	4.0	799198	STUDY_PAIR	n/a	wordpools/wordpool_EN.txt	3	3	COUCH	CROW	CROW	COUCH	2	[0, 0, 0]	-999	PAL1	0	R1109N
345.741	0.275	804232	STUDY_ORIENT	n/a	n/a	4	2	BRIDGE	BENCH	TIE	BRIDGE	2	[0, 0, 0]	-999	PAL1	0	R1109N
346.692	4.0	805183	STUDY_PAIR	n/a	wordpools/wordpool_EN.txt	4	2	BRIDGE	BENCH	TIE	BRIDGE	2	[0, 0, 0]	-999	PAL1	0	R1109N
351.726	0.275	810217	STUDY_ORIENT	n/a	n/a	5	5	WHALE	EGG	WHALE	EGG	2	[0, 0, 0]	-999	PAL1	0	R1109N
352.608	4.0	811099	STUDY_PAIR	n/a	wordpools/wordpool_EN.txt	5	5	WHALE	EGG	WHALE	EGG	2	[0, 0, 0]	-999	PAL1	0	R1109N
357.626	0.275	816116	STUDY_ORIENT	n/a	n/a	6	4	CHEEK	PASS	CHEEK	BENCH	2	[0, 0, 0]	-999	PAL1	0	R1109N
358.426	4.0	816916	STUDY_PAIR	n/a	wordpools/wordpool_EN.txt	6	4	CHEEK	PASS	CHEEK	BENCH	2	[0, 0, 0]	-999	PAL1	0	R1109N
362.444	0.999	820934	START	n/a	n/a	-999	-999	n/a	n/a	n/a	n/a	2	[-999, -999, -999]	-999	PAL1	0	R1109N
363.443	0.017	821933	MATH_START	n/a	n/a	-999	-999	n/a	n/a	n/a	n/a	2	[0, 0, 0]	-999	PAL1	0	R1109N
363.46	7.851	821950	PROB	7825.0	n/a	-999	-999	n/a	n/a	n/a	n/a	2	[3, 4, 4]	11	PAL1	0	R1109N
371.311	10.536	829801	PROB	10503.0	n/a	-999	-999	n/a	n/a	n/a	n/a	2	[9, 1, 6]	16	PAL1	0	R1109N
381.847	8.47	840336	PROB	8470.0	n/a	-999	-999	n/a	n/a	n/a	n/a	2	[8, 4, 2]	14	PAL1	0	R1109N
390.317	0.014	848806	STOP	n/a	n/a	-999	-999	n/a	n/a	n/a	n/a	2	[-999, -999, -999]	-999	PAL1	0	R1109N
390.331	0.0	848820	TEST_START	n/a	n/a	-999	-999	n/a	n/a	n/a	n/a	2	[0, 0, 0]	-999	PAL1	0	R1109N
390.331	0.017	848820	MATH_END	n/a	n/a	-999	-999	n/a	n/a	n/a	n/a	2	[0, 0, 0]	-999	PAL1	0	R1109N
390.348	0.275	848837	TEST_ORIENT	n/a	n/a	1	1	TOY	OAK	OAK	TOY	2	[0, 0, 0]	-999	PAL1	0	R1109N
391.181	4.0	849670	TEST_PROBE	n/a	wordpools/wordpool_EN.txt	1	1	TOY	OAK	OAK	TOY	2	[0, 0, 0]	-999	PAL1	0	R1109N
391.182	1.503	849671	REC_START	n/a	n/a	1	-999	n/a	OAK	n/a	n/a	2	[0, 0, 0]	-999	PAL1	0	R1109N
392.685	3.504	851174	REC_EVENT	1503.0	n/a	1	1	TOY	OAK	OAK	TOY	2	[0, 0, 0]	-999	PAL1	0	R1109N
396.189	0.01	854677	REC_END	n/a	n/a	1	-999	n/a	n/a	n/a	n/a	2	[0, 0, 0]	-999	PAL1	0	R1109N
396.199	0.275	854687	TEST_ORIENT	n/a	n/a	4	2	BRIDGE	BENCH	TIE	BRIDGE	2	[0, 0, 0]	-999	PAL1	0	R1109N
397.182	4.0	855670	TEST_PROBE	n/a	wordpools/wordpool_EN.txt	4	2	BRIDGE	BENCH	TIE	BRIDGE	2	[0, 0, 0]	-999	PAL1	0	R1109N
397.183	3.597	855671	REC_START	n/a	n/a	4	-999	n/a	BENCH	n/a	n/a	2	[0, 0, 0]	-999	PAL1	0	R1109N
400.78	1.41	859268	REC_EVENT	3597.0	n/a	4	2	BRIDGE	BENCH	TIE	BRIDGE	2	[0, 0, 0]	-999	PAL1	0	R1109N
402.19	0.01	860678	REC_END	n/a	n/a	4	-999	n/a	n/a	n/a	n/a	2	[0, 0, 0]	-999	PAL1	0	R1109N
402.2	0.275	860688	TEST_ORIENT	n/a	n/a	3	3	COUCH	CROW	CROW	COUCH	2	[0, 0, 0]	-999	PAL1	0	R1109N
403.05	4.0	861538	TEST_PROBE	n/a	wordpools/wordpool_EN.txt	3	3	COUCH	CROW	CROW	COUCH	2	[0, 0, 0]	-999	PAL1	0	R1109N
403.05	3.854	861538	REC_START	n/a	n/a	3	-999	n/a	CROW	n/a	n/a	2	[0, 0, 0]	-999	PAL1	0	R1109N
406.904	1.163	865392	REC_EVENT	3854.0	n/a	3	3	COUCH	CROW	CROW	COUCH	2	[0, 0, 0]	-999	PAL1	0	R1109N
408.067	0.017	866555	REC_END	n/a	n/a	3	-999	n/a	n/a	n/a	n/a	2	[0, 0, 0]	-999	PAL1	0	R1109N
408.084	0.275	866572	TEST_ORIENT	n/a	n/a	6	4	CHEEK	PASS	CHEEK	BENCH	2	[0, 0, 0]	-999	PAL1	0	R1109N
408.902	0.0	867390	REC_START	n/a	n/a	6	-999	n/a	PASS	n/a	n/a	2	[0, 0, 0]	-999	PAL1	0	R1109N
408.902	4.0	867390	TEST_PROBE	n/a	wordpools/wordpool_EN.txt	6	4	CHEEK	PASS	CHEEK	BENCH	2	[0, 0, 0]	-999	PAL1	0	R1109N
412.227	1.692	870715	REC_EVENT	3325.0	n/a	6	4	CHEEK	PASS	CHEEK	BENCH	2	[0, 0, 0]	-999	PAL1	0	R1109N
413.919	0.017	872407	REC_END	n/a	n/a	6	-999	n/a	n/a	n/a	n/a	2	[0, 0, 0]	-999	PAL1	0	R1109N
413.936	0.275	872424	TEST_ORIENT	n/a	n/a	5	5	WHALE	EGG	WHALE	EGG	2	[0, 0, 0]	-999	PAL1	0	R1109N
414.953	4.0	873441	TEST_PROBE	n/a	wordpools/wordpool_EN.txt	5	5	WHALE	EGG	WHALE	EGG	2	[0, 0, 0]	-999	PAL1	0	R1109N
414.954	1.315	873442	REC_START	n/a	n/a	5	-999	n/a	EGG	n/a	n/a	2	[0, 0, 0]	-999	PAL1	0	R1109N
416.269	3.7	874756	REC_EVENT	1315.0	n/a	5	5	WHALE	EGG	WHALE	EGG	2	[0, 0, 0]	-999	PAL1	0	R1109N
419.969	0.017	878456	REC_END	n/a	n/a	5	-999	n/a	n/a	n/a	n/a	2	[0, 0, 0]	-999	PAL1	0	R1109N
419.986	0.275	878473	TEST_ORIENT	n/a	n/a	2	6	BED	BRANCH	BRANCH	BED	2	[0, 0, 0]	-999	PAL1	0	R1109N
421.02	0.0	879507	REC_START	n/a	n/a	2	-999	n/a	BRANCH	n/a	n/a	2	[0, 0, 0]	-999	PAL1	0	R1109N
421.02	4.0	879507	TEST_PROBE	n/a	wordpools/wordpool_EN.txt	2	6	BED	BRANCH	BRANCH	BED	2	[0, 0, 0]	-999	PAL1	0	R1109N
424.461	1.576	882948	REC_EVENT	3441.0	n/a	2	6	BED	BRANCH	BRANCH	BED	2	[0, 0, 0]	-999	PAL1	0	R1109N
426.037	0.034	884524	REC_END	n/a	n/a	2	-999	n/a	n/a	n/a	n/a	2	[0, 0, 0]	-999	PAL1	0	R1109N
426.071	11.582	884558	FEEDBACK_SHOW_ALL_PAIRS	n/a	n/a	2	-999	n/a	n/a	n/a	n/a	2	[0, 0, 0]	-999	PAL1	0	R1109N
437.653	10.438	896139	ENCODING_START	n/a	n/a	0	-999	n/a	n/a	n/a	n/a	3	[0, 0, 0]	-999	PAL1	0	R1109N
448.091	0.275	906577	STUDY_ORIENT	n/a	n/a	1	5	CART	n/a	CART	CRANE	3	[0, 0, 0]	-999	PAL1	0	R1109N
449.091	4.0	907577	STUDY_PAIR	n/a	wordpools/wordpool_EN.txt	1	5	CART	n/a	CART	CRANE	3	[0, 0, 0]	-999	PAL1	0	R1109N
454.109	0.275	912594	STUDY_ORIENT	n/a	n/a	2	2	TENT	COW	TENT	COW	3	[0, 0, 0]	-999	PAL1	0	R1109N
455.092	4.0	913577	STUDY_PAIR	n/a	wordpools/wordpool_EN.txt	2	2	TENT	COW	TENT	COW	3	[0, 0, 0]	-999	PAL1	0	R1109N
460.11	0.275	918595	STUDY_ORIENT	n/a	n/a	3	3	STOVE	FOX	STOVE	FOX	3	[0, 0, 0]	-999	PAL1	0	R1109N
460.927	4.0	919412	STUDY_PAIR	n/a	wordpools/wordpool_EN.txt	3	3	STOVE	FOX	STOVE	FOX	3	[0, 0, 0]	-999	PAL1	0	R1109N
465.945	0.275	924430	STUDY_ORIENT	n/a	n/a	4	4	ROOT	KITE	KITE	ROOT	3	[0, 0, 0]	-999	PAL1	0	R1109N
466.762	4.0	925247	STUDY_PAIR	n/a	wordpools/wordpool_EN.txt	4	4	ROOT	KITE	KITE	ROOT	3	[0, 0, 0]	-999	PAL1	0	R1109N
471.796	0.275	930281	STUDY_ORIENT	n/a	n/a	5	1	PLATE	LIP	LIP	PLATE	3	[0, 0, 0]	-999	PAL1	0	R1109N
472.763	4.0	931248	STUDY_PAIR	n/a	wordpools/wordpool_EN.txt	5	1	PLATE	LIP	LIP	PLATE	3	[0, 0, 0]	-999	PAL1	0	R1109N
477.797	0.275	936281	STUDY_ORIENT	n/a	n/a	6	6	SLUSH	PASS	SLUSH	WOLF	3	[0, 0, 0]	-999	PAL1	0	R1109N
478.58	4.0	937064	STUDY_PAIR	n/a	wordpools/wordpool_EN.txt	6	6	SLUSH	PASS	SLUSH	WOLF	3	[0, 0, 0]	-999	PAL1	0	R1109N
482.598	0.999	941082	START	n/a	n/a	-999	-999	n/a	n/a	n/a	n/a	3	[-999, -999, -999]	-999	PAL1	0	R1109N
483.597	0.017	942081	MATH_START	n/a	n/a	-999	-999	n/a	n/a	n/a	n/a	3	[0, 0, 0]	-999	PAL1	0	R1109N
483.614	12.635	942098	PROB	12615.0	n/a	-999	-999	n/a	n/a	n/a	n/a	3	[3, 7, 8]	18	PAL1	0	R1109N
496.249	8.86	954732	PROB	8860.0	n/a	-999	-999	n/a	n/a	n/a	n/a	3	[7, 4, 2]	13	PAL1	0	R1109N
505.109	0.008	963592	STOP	n/a	n/a	-999	-999	n/a	n/a	n/a	n/a	3	[-999, -999, -999]	-999	PAL1	0	R1109N
505.117	0.0	963600	TEST_START	n/a	n/a	-999	-999	n/a	n/a	n/a	n/a	3	[0, 0, 0]	-999	PAL1	0	R1109N
505.117	0.017	963600	MATH_END	n/a	n/a	-999	-999	n/a	n/a	n/a	n/a	3	[0, 0, 0]	-999	PAL1	0	R1109N
505.134	0.275	963617	TEST_ORIENT	n/a	n/a	5	1	PLATE	LIP	LIP	PLATE	3	[0, 0, 0]	-999	PAL1	0	R1109N
506.101	4.0	964584	TEST_PROBE	n/a	wordpools/wordpool_EN.txt	5	1	PLATE	LIP	LIP	PLATE	3	[0, 0, 0]	-999	PAL1	0	R1109N
506.102	1.461	964585	REC_START	n/a	n/a	5	-999	n/a	LIP	n/a	n/a	3	[0, 0, 0]	-999	PAL1	0	R1109N
507.563	3.563	966046	REC_EVENT	1461.0	n/a	5	1	PLATE	LIP	LIP	PLATE	3	[0, 0, 0]	-999	PAL1	0	R1109N
511.126	0.009	969609	REC_END	n/a	n/a	5	-999	n/a	n/a	n/a	n/a	3	[0, 0, 0]	-999	PAL1	0	R1109N
511.135	0.275	969618	TEST_ORIENT	n/a	n/a	2	2	TENT	COW	TENT	COW	3	[0, 0, 0]	-999	PAL1	0	R1109N
511.969	4.0	970451	TEST_PROBE	n/a	wordpools/wordpool_EN.txt	2	2	TENT	COW	TENT	COW	3	[0, 0, 0]	-999	PAL1	0	R1109N
511.969	2.092	970451	REC_START	n/a	n/a	2	-999	n/a	COW	n/a	n/a	3	[0, 0, 0]	-999	PAL1	0	R1109N
514.061	2.925	972543	REC_EVENT	2092.0	n/a	2	2	TENT	COW	TENT	COW	3	[0, 0, 0]	-999	PAL1	0	R1109N
516.986	0.017	975468	REC_END	n/a	n/a	2	-999	n/a	n/a	n/a	n/a	3	[0, 0, 0]	-999	PAL1	0	R1109N
517.003	0.275	975485	TEST_ORIENT	n/a	n/a	3	3	STOVE	FOX	STOVE	FOX	3	[0, 0, 0]	-999	PAL1	0	R1109N
517.921	4.0	976403	TEST_PROBE	n/a	wordpools/wordpool_EN.txt	3	3	STOVE	FOX	STOVE	FOX	3	[0, 0, 0]	-999	PAL1	0	R1109N
517.921	1.763	976403	REC_START	n/a	n/a	3	-999	n/a	FOX	n/a	n/a	3	[0, 0, 0]	-999	PAL1	0	R1109N
519.684	3.254	978166	REC_EVENT	1763.0	n/a	3	3	STOVE	FOX	STOVE	FOX	3	[0, 0, 0]	-999	PAL1	0	R1109N
522.938	0.017	981420	REC_END	n/a	n/a	3	-999	n/a	n/a	n/a	n/a	3	[0, 0, 0]	-999	PAL1	0	R1109N
522.955	0.275	981437	TEST_ORIENT	n/a	n/a	4	4	ROOT	KITE	KITE	ROOT	3	[0, 0, 0]	-999	PAL1	0	R1109N
523.888	4.0	982370	TEST_PROBE	n/a	wordpools/wordpool_EN.txt	4	4	ROOT	KITE	KITE	ROOT	3	[0, 0, 0]	-999	PAL1	0	R1109N
523.889	2.56	982371	REC_START	n/a	n/a	4	-999	n/a	KITE	n/a	n/a	3	[0, 0, 0]	-999	PAL1	0	R1109N
526.449	2.464	984931	REC_EVENT	2560.0	n/a	4	4	ROOT	KITE	KITE	ROOT	3	[0, 0, 0]	-999	PAL1	0	R1109N
528.913	0.009	987395	REC_END	n/a	n/a	4	-999	n/a	n/a	n/a	n/a	3	[0, 0, 0]	-999	PAL1	0	R1109N
528.922	0.275	987404	TEST_ORIENT	n/a	n/a	1	5	CART	n/a	CART	CRANE	3	[0, 0, 0]	-999	PAL1	0	R1109N
529.756	4.0	988238	TEST_PROBE	n/a	wordpools/wordpool_EN.txt	1	5	CART	n/a	CART	CRANE	3	[0, 0, 0]	-999	PAL1	0	R1109N
529.756	5.015	988238	REC_START	n/a	n/a	1	-999	n/a	n/a	n/a	n/a	3	[0, 0, 0]	-999	PAL1	0	R1109N
534.771	0.002	993252	REC_EVENT	5015.0	n/a	1	5	CART	<>	CART	CRANE	3	[0, 0, 0]	-999	PAL1	0	R1109N
534.773	0.017	993254	REC_END	n/a	n/a	1	-999	n/a	n/a	n/a	n/a	3	[0, 0, 0]	-999	PAL1	0	R1109N
534.79	0.275	993271	TEST_ORIENT	n/a	n/a	6	6	SLUSH	PASS	SLUSH	WOLF	3	[0, 0, 0]	-999	PAL1	0	R1109N
535.656	0.0	994137	REC_START	n/a	n/a	6	-999	n/a	PASS	n/a	n/a	3	[0, 0, 0]	-999	PAL1	0	R1109N
535.656	4.0	994137	TEST_PROBE	n/a	wordpools/wordpool_EN.txt	6	6	SLUSH	PASS	SLUSH	WOLF	3	[0, 0, 0]	-999	PAL1	0	R1109N
538.577	2.097	997058	REC_EVENT	2921.0	n/a	6	6	SLUSH	PASS	SLUSH	WOLF	3	[0, 0, 0]	-999	PAL1	0	R1109N
540.674	0.017	999155	REC_END	n/a	n/a	6	-999	n/a	n/a	n/a	n/a	3	[0, 0, 0]	-999	PAL1	0	R1109N
540.691	12.266	999172	FEEDBACK_SHOW_ALL_PAIRS	n/a	n/a	6	-999	n/a	n/a	n/a	n/a	3	[0, 0, 0]	-999	PAL1	0	R1109N
552.957	10.454	1011437	ENCODING_START	n/a	n/a	0	-999	n/a	n/a	n/a	n/a	4	[0, 0, 0]	-999	PAL1	0	R1109N
563.411	0.275	1021891	STUDY_ORIENT	n/a	n/a	1	3	BALL	HILL	HILL	BALL	4	[0, 0, 0]	-999	PAL1	0	R1109N
564.244	4.0	1022724	STUDY_PAIR	n/a	wordpools/wordpool_EN.txt	1	3	BALL	HILL	HILL	BALL	4	[0, 0, 0]	-999	PAL1	0	R1109N
569.278	0.275	1027758	STUDY_ORIENT	n/a	n/a	2	4	GLOVE	HAWK	HAWK	GLOVE	4	[0, 0, 0]	-999	PAL1	0	R1109N
570.112	4.0	1028591	STUDY_PAIR	n/a	wordpools/wordpool_EN.txt	2	4	GLOVE	HAWK	HAWK	GLOVE	4	[0, 0, 0]	-999	PAL1	0	R1109N
575.146	0.275	1033625	STUDY_ORIENT	n/a	n/a	3	1	VAN	SCHOOL	SCHOOL	VAN	4	[0, 0, 0]	-999	PAL1	0	R1109N
575.962	4.0	1034441	STUDY_PAIR	n/a	wordpools/wordpool_EN.txt	3	1	VAN	SCHOOL	SCHOOL	VAN	4	[0, 0, 0]	-999	PAL1	0	R1109N
580.98	0.275	1039459	STUDY_ORIENT	n/a	n/a	4	2	MAZE	SNAKE	MAZE	SNAKE	4	[0, 0, 0]	-999	PAL1	0	R1109N
582.014	4.0	1040493	STUDY_PAIR	n/a	wordpools/wordpool_EN.txt	4	2	MAZE	SNAKE	MAZE	SNAKE	4	[0, 0, 0]	-999	PAL1	0	R1109N
587.048	0.275	1045527	STUDY_ORIENT	n/a	n/a	5	5	PIT	PASS	HEN	PIT	4	[0, 0, 0]	-999	PAL1	0	R1109N
587.916	4.0	1046395	STUDY_PAIR	n/a	wordpools/wordpool_EN.txt	5	5	PIT	PASS	HEN	PIT	4	[0, 0, 0]	-999	PAL1	0	R1109N
592.95	0.275	1051428	STUDY_ORIENT	n/a	n/a	6	6	GRAPE	PASS	GRAPE	FORT	4	[0, 0, 0]	-999	PAL1	0	R1109N
593.783	4.0	1052261	STUDY_PAIR	n/a	wordpools/wordpool_EN.txt	6	6	GRAPE	PASS	GRAPE	FORT	4	[0, 0, 0]	-999	PAL1	0	R1109N
597.784	1.0	1056262	START	n/a	n/a	-999	-999	n/a	n/a	n/a	n/a	4	[-999, -999, -999]	-999	PAL1	0	R1109N
598.784	0.017	1057262	MATH_START	n/a	n/a	-999	-999	n/a	n/a	n/a	n/a	4	[0, 0, 0]	-999	PAL1	0	R1109N
598.801	8.55	1057279	PROB	8524.0	n/a	-999	-999	n/a	n/a	n/a	n/a	4	[3, 9, 4]	16	PAL1	0	R1109N
607.351	9.785	1065829	PROB	9758.0	n/a	-999	-999	n/a	n/a	n/a	n/a	4	[9, 8, 4]	21	PAL1	0	R1109N
617.136	10.606	1075613	PROB	10606.0	n/a	-999	-999	n/a	n/a	n/a	n/a	4	[6, 5, 9]	20	PAL1	0	R1109N
627.742	0.014	1086219	STOP	n/a	n/a	-999	-999	n/a	n/a	n/a	n/a	4	[-999, -999, -999]	-999	PAL1	0	R1109N
627.756	0.0	1086233	MATH_END	n/a	n/a	-999	-999	n/a	n/a	n/a	n/a	4	[0, 0, 0]	-999	PAL1	0	R1109N
627.756	0.016	1086233	TEST_START	n/a	n/a	-999	-999	n/a	n/a	n/a	n/a	4	[0, 0, 0]	-999	PAL1	0	R1109N
627.772	0.275	1086249	TEST_ORIENT	n/a	n/a	3	1	VAN	SCHOOL	SCHOOL	VAN	4	[0, 0, 0]	-999	PAL1	0	R1109N
628.739	4.0	1087215	TEST_PROBE	n/a	wordpools/wordpool_EN.txt	3	1	VAN	SCHOOL	SCHOOL	VAN	4	[0, 0, 0]	-999	PAL1	0	R1109N
628.74	1.347	1087216	REC_START	n/a	n/a	3	-999	n/a	SCHOOL	n/a	n/a	4	[0, 0, 0]	-999	PAL1	0	R1109N
630.087	3.66	1088563	REC_EVENT	1347.0	n/a	3	1	VAN	SCHOOL	SCHOOL	VAN	4	[0, 0, 0]	-999	PAL1	0	R1109N
633.747	0.01	1092223	REC_END	n/a	n/a	3	-999	n/a	n/a	n/a	n/a	4	[0, 0, 0]	-999	PAL1	0	R1109N
633.757	0.275	1092233	TEST_ORIENT	n/a	n/a	4	2	MAZE	SNAKE	MAZE	SNAKE	4	[0, 0, 0]	-999	PAL1	0	R1109N
634.606	0.0	1093082	REC_START	n/a	n/a	4	-999	n/a	SNAKE	n/a	n/a	4	[0, 0, 0]	-999	PAL1	0	R1109N
634.606	4.0	1093082	TEST_PROBE	n/a	wordpools/wordpool_EN.txt	4	2	MAZE	SNAKE	MAZE	SNAKE	4	[0, 0, 0]	-999	PAL1	0	R1109N
636.262	3.361	1094738	REC_EVENT	1656.0	n/a	4	2	MAZE	SNAKE	MAZE	SNAKE	4	[0, 0, 0]	-999	PAL1	0	R1109N
639.623	0.017	1098099	REC_END	n/a	n/a	4	-999	n/a	n/a	n/a	n/a	4	[0, 0, 0]	-999	PAL1	0	R1109N
639.64	0.275	1098116	TEST_ORIENT	n/a	n/a	1	3	BALL	HILL	HILL	BALL	4	[0, 0, 0]	-999	PAL1	0	R1109N
640.507	4.0	1098983	TEST_PROBE	n/a	wordpools/wordpool_EN.txt	1	3	BALL	HILL	HILL	BALL	4	[0, 0, 0]	-999	PAL1	0	R1109N
640.507	1.07	1098983	REC_START	n/a	n/a	1	-999	n/a	HILL	n/a	n/a	4	[0, 0, 0]	-999	PAL1	0	R1109N
641.577	3.947	1100053	REC_EVENT	1070.0	n/a	1	3	BALL	HILL	HILL	BALL	4	[0, 0, 0]	-999	PAL1	0	R1109N
645.524	0.017	1104000	REC_END	n/a	n/a	1	-999	n/a	n/a	n/a	n/a	4	[0, 0, 0]	-999	PAL1	0	R1109N
645.541	0.275	1104017	TEST_ORIENT	n/a	n/a	2	4	GLOVE	HAWK	HAWK	GLOVE	4	[0, 0, 0]	-999	PAL1	0	R1109N
646.424	4.0	1104900	TEST_PROBE	n/a	wordpools/wordpool_EN.txt	2	4	GLOVE	HAWK	HAWK	GLOVE	4	[0, 0, 0]	-999	PAL1	0	R1109N
646.425	1.279	1104901	REC_START	n/a	n/a	2	-999	n/a	HAWK	n/a	n/a	4	[0, 0, 0]	-999	PAL1	0	R1109N
647.704	3.721	1106179	REC_EVENT	1279.0	n/a	2	4	GLOVE	HAWK	HAWK	GLOVE	4	[0, 0, 0]	-999	PAL1	0	R1109N
651.425	0.017	1109900	REC_END	n/a	n/a	2	-999	n/a	n/a	n/a	n/a	4	[0, 0, 0]	-999	PAL1	0	R1109N
651.442	0.275	1109917	TEST_ORIENT	n/a	n/a	5	5	PIT	PASS	HEN	PIT	4	[0, 0, 0]	-999	PAL1	0	R1109N
652.359	4.0	1110834	TEST_PROBE	n/a	wordpools/wordpool_EN.txt	5	5	PIT	PASS	HEN	PIT	4	[0, 0, 0]	-999	PAL1	0	R1109N
652.359	3.805	1110834	REC_START	n/a	n/a	5	-999	n/a	PASS	n/a	n/a	4	[0, 0, 0]	-999	PAL1	0	R1109N
656.164	1.212	1114639	REC_EVENT	3805.0	n/a	5	5	PIT	PASS	HEN	PIT	4	[0, 0, 0]	-999	PAL1	0	R1109N
657.376	0.017	1115851	REC_END	n/a	n/a	5	-999	n/a	n/a	n/a	n/a	4	[0, 0, 0]	-999	PAL1	0	R1109N
657.393	0.275	1115868	TEST_ORIENT	n/a	n/a	6	6	GRAPE	PASS	GRAPE	FORT	4	[0, 0, 0]	-999	PAL1	0	R1109N
658.36	4.0	1116835	TEST_PROBE	n/a	wordpools/wordpool_EN.txt	6	6	GRAPE	PASS	GRAPE	FORT	4	[0, 0, 0]	-999	PAL1	0	R1109N
658.361	4.288	1116836	REC_START	n/a	n/a	6	-999	n/a	PASS	n/a	n/a	4	[0, 0, 0]	-999	PAL1	0	R1109N
662.649	0.728	1121124	REC_EVENT	4288.0	n/a	6	6	GRAPE	PASS	GRAPE	FORT	4	[0, 0, 0]	-999	PAL1	0	R1109N
663.377	0.034	1121852	REC_END	n/a	n/a	6	-999	n/a	n/a	n/a	n/a	4	[0, 0, 0]	-999	PAL1	0	R1109N
663.411	11.866	1121886	FEEDBACK_SHOW_ALL_PAIRS	n/a	n/a	6	-999	n/a	n/a	n/a	n/a	4	[0, 0, 0]	-999	PAL1	0	R1109N
675.277	10.439	1133751	ENCODING_START	n/a	n/a	0	-999	n/a	n/a	n/a	n/a	5	[0, 0, 0]	-999	PAL1	0	R1109N
685.716	0.275	1144190	STUDY_ORIENT	n/a	n/a	1	1	ANT	STONE	ANT	STONE	5	[0, 0, 0]	-999	PAL1	0	R1109N
686.615	4.0	1145088	STUDY_PAIR	n/a	wordpools/wordpool_EN.txt	1	1	ANT	STONE	ANT	STONE	5	[0, 0, 0]	-999	PAL1	0	R1109N
691.649	0.275	1150122	STUDY_ORIENT	n/a	n/a	2	4	MAT	SMOKE	MAT	SMOKE	5	[0, 0, 0]	-999	PAL1	0	R1109N
692.632	4.0	1151105	STUDY_PAIR	n/a	wordpools/wordpool_EN.txt	2	4	MAT	SMOKE	MAT	SMOKE	5	[0, 0, 0]	-999	PAL1	0	R1109N
697.65	0.275	1156123	STUDY_ORIENT	n/a	n/a	3	3	ROOM	FLUTE	ROOM	FLUTE	5	[0, 0, 0]	-999	PAL1	0	R1109N
698.617	4.0	1157090	STUDY_PAIR	n/a	wordpools/wordpool_EN.txt	3	3	ROOM	FLUTE	ROOM	FLUTE	5	[0, 0, 0]	-999	PAL1	0	R1109N
703.651	0.275	1162124	STUDY_ORIENT	n/a	n/a	4	6	SKY	DART	DART	SKY	5	[0, 0, 0]	-999	PAL1	0	R1109N
704.585	4.0	1163058	STUDY_PAIR	n/a	wordpools/wordpool_EN.txt	4	6	SKY	DART	DART	SKY	5	[0, 0, 0]	-999	PAL1	0	R1109N
709.619	0.275	1168091	STUDY_ORIENT	n/a	n/a	5	5	BOAT	PASS	BOAT	VEST	5	[0, 0, 0]	-999	PAL1	0	R1109N
710.552	4.0	1169024	STUDY_PAIR	n/a	wordpools/wordpool_EN.txt	5	5	BOAT	PASS	BOAT	VEST	5	[0, 0, 0]	-999	PAL1	0	R1109N
715.586	0.275	1174058	STUDY_ORIENT	n/a	n/a	6	2	TEA	PASS	TEA	WING	5	[0, 0, 0]	-999	PAL1	0	R1109N
716.553	4.0	1175025	STUDY_PAIR	n/a	wordpools/wordpool_EN.txt	6	2	TEA	PASS	TEA	WING	5	[0, 0, 0]	-999	PAL1	0	R1109N
720.571	0.999	1179043	START	n/a	n/a	-999	-999	n/a	n/a	n/a	n/a	5	[-999, -999, -999]	-999	PAL1	0	R1109N
721.57	0.017	1180042	MATH_START	n/a	n/a	-999	-999	n/a	n/a	n/a	n/a	5	[0, 0, 0]	-999	PAL1	0	R1109N
721.587	7.102	1180059	PROB	7074.0	n/a	-999	-999	n/a	n/a	n/a	n/a	5	[2, 4, 1]	7	PAL1	0	R1109N
728.689	7.252	1187160	PROB	7229.0	n/a	-999	-999	n/a	n/a	n/a	n/a	5	[4, 7, 3]	14	PAL1	0	R1109N
735.941	5.208	1194412	PROB	5208.0	n/a	-999	-999	n/a	n/a	n/a	n/a	5	[4, 1, 2]	7	PAL1	0	R1109N
741.149	0.008	1199620	STOP	n/a	n/a	-999	-999	n/a	n/a	n/a	n/a	5	[-999, -999, -999]	-999	PAL1	0	R1109N
741.157	0.0	1199628	MATH_END	n/a	n/a	-999	-999	n/a	n/a	n/a	n/a	5	[0, 0, 0]	-999	PAL1	0	R1109N
741.157	0.017	1199628	TEST_START	n/a	n/a	-999	-999	n/a	n/a	n/a	n/a	5	[0, 0, 0]	-999	PAL1	0	R1109N
741.174	0.275	1199645	TEST_ORIENT	n/a	n/a	1	1	ANT	STONE	ANT	STONE	5	[0, 0, 0]	-999	PAL1	0	R1109N
742.057	4.0	1200528	TEST_PROBE	n/a	wordpools/wordpool_EN.txt	1	1	ANT	STONE	ANT	STONE	5	[0, 0, 0]	-999	PAL1	0	R1109N
742.058	0.955	1200529	REC_START	n/a	n/a	1	-999	n/a	STONE	n/a	n/a	5	[0, 0, 0]	-999	PAL1	0	R1109N
743.013	4.045	1201484	REC_EVENT	955.0	n/a	1	1	ANT	STONE	ANT	STONE	5	[0, 0, 0]	-999	PAL1	0	R1109N
747.058	0.017	1205528	REC_END	n/a	n/a	1	-999	n/a	n/a	n/a	n/a	5	[0, 0, 0]	-999	PAL1	0	R1109N
747.075	0.275	1205545	TEST_ORIENT	n/a	n/a	6	2	TEA	PASS	TEA	WING	5	[0, 0, 0]	-999	PAL1	0	R1109N
748.092	4.0	1206562	TEST_PROBE	n/a	wordpools/wordpool_EN.txt	6	2	TEA	PASS	TEA	WING	5	[0, 0, 0]	-999	PAL1	0	R1109N
748.093	4.103	1206563	REC_START	n/a	n/a	6	-999	n/a	PASS	n/a	n/a	5	[0, 0, 0]	-999	PAL1	0	R1109N
752.196	0.921	1210666	REC_EVENT	4103.0	n/a	6	2	TEA	PASS	TEA	WING	5	[0, 0, 0]	-999	PAL1	0	R1109N
753.117	0.009	1211587	REC_END	n/a	n/a	6	-999	n/a	n/a	n/a	n/a	5	[0, 0, 0]	-999	PAL1	0	R1109N
753.126	0.275	1211596	TEST_ORIENT	n/a	n/a	3	3	ROOM	FLUTE	ROOM	FLUTE	5	[0, 0, 0]	-999	PAL1	0	R1109N
753.976	4.0	1212446	TEST_PROBE	n/a	wordpools/wordpool_EN.txt	3	3	ROOM	FLUTE	ROOM	FLUTE	5	[0, 0, 0]	-999	PAL1	0	R1109N
753.977	3.023	1212447	REC_START	n/a	n/a	3	-999	n/a	FLUTE	n/a	n/a	5	[0, 0, 0]	-999	PAL1	0	R1109N
757.0	1.993	1215470	REC_EVENT	3023.0	n/a	3	3	ROOM	FLUTE	ROOM	FLUTE	5	[0, 0, 0]	-999	PAL1	0	R1109N
758.993	0.017	1217463	REC_END	n/a	n/a	3	-999	n/a	n/a	n/a	n/a	5	[0, 0, 0]	-999	PAL1	0	R1109N
759.01	0.275	1217480	TEST_ORIENT	n/a	n/a	2	4	MAT	SMOKE	MAT	SMOKE	5	[0, 0, 0]	-999	PAL1	0	R1109N
759.878	4.0	1218348	TEST_PROBE	n/a	wordpools/wordpool_EN.txt	2	4	MAT	SMOKE	MAT	SMOKE	5	[0, 0, 0]	-999	PAL1	0	R1109N
759.878	1.568	1218348	REC_START	n/a	n/a	2	-999	n/a	SMOKE	n/a	n/a	5	[0, 0, 0]	-999	PAL1	0	R1109N
761.446	3.449	1219916	REC_EVENT	1568.0	n/a	2	4	MAT	SMOKE	MAT	SMOKE	5	[0, 0, 0]	-999	PAL1	0	R1109N
764.895	0.017	1223364	REC_END	n/a	n/a	2	-999	n/a	n/a	n/a	n/a	5	[0, 0, 0]	-999	PAL1	0	R1109N
764.912	0.275	1223381	TEST_ORIENT	n/a	n/a	5	5	BOAT	PASS	BOAT	VEST	5	[0, 0, 0]	-999	PAL1	0	R1109N
765.796	4.0	1224265	TEST_PROBE	n/a	wordpools/wordpool_EN.txt	5	5	BOAT	PASS	BOAT	VEST	5	[0, 0, 0]	-999	PAL1	0	R1109N
765.796	3.087	1224265	REC_START	n/a	n/a	5	-999	n/a	PASS	n/a	n/a	5	[0, 0, 0]	-999	PAL1	0	R1109N
768.883	1.93	1227352	REC_EVENT	3087.0	n/a	5	5	BOAT	PASS	BOAT	VEST	5	[0, 0, 0]	-999	PAL1	0	R1109N
770.813	0.017	1229282	REC_END	n/a	n/a	5	-999	n/a	n/a	n/a	n/a	5	[0, 0, 0]	-999	PAL1	0	R1109N
770.83	0.275	1229299	TEST_ORIENT	n/a	n/a	4	6	SKY	DART	DART	SKY	5	[0, 0, 0]	-999	PAL1	0	R1109N
771.797	4.0	1230266	TEST_PROBE	n/a	wordpools/wordpool_EN.txt	4	6	SKY	DART	DART	SKY	5	[0, 0, 0]	-999	PAL1	0	R1109N
771.797	4.162	1230266	REC_START	n/a	n/a	4	-999	n/a	DART	n/a	n/a	5	[0, 0, 0]	-999	PAL1	0	R1109N
775.959	0.855	1234428	REC_EVENT	4162.0	n/a	4	6	SKY	DART	DART	SKY	5	[0, 0, 0]	-999	PAL1	0	R1109N
776.814	0.034	1235283	REC_END	n/a	n/a	4	-999	n/a	n/a	n/a	n/a	5	[0, 0, 0]	-999	PAL1	0	R1109N
776.848	11.125	1235317	FEEDBACK_SHOW_ALL_PAIRS	n/a	n/a	4	-999	n/a	n/a	n/a	n/a	5	[0, 0, 0]	-999	PAL1	0	R1109N
787.973	10.444	1246441	ENCODING_START	n/a	n/a	0	-999	n/a	n/a	n/a	n/a	6	[0, 0, 0]	-999	PAL1	0	R1109N
798.417	0.275	1256885	STUDY_ORIENT	n/a	n/a	1	1	STICK	ICE	STICK	ICE	6	[0, 0, 0]	-999	PAL1	0	R1109N
799.217	4.0	1257685	STUDY_PAIR	n/a	wordpools/wordpool_EN.txt	1	1	STICK	ICE	STICK	ICE	6	[0, 0, 0]	-999	PAL1	0	R1109N
804.251	0.275	1262718	STUDY_ORIENT	n/a	n/a	2	4	BRICK	PASS	HORSE	BRICK	6	[0, 0, 0]	-999	PAL1	0	R1109N
805.218	4.0	1263685	STUDY_PAIR	n/a	wordpools/wordpool_EN.txt	2	4	BRICK	PASS	HORSE	BRICK	6	[0, 0, 0]	-999	PAL1	0	R1109N
810.252	0.275	1268719	STUDY_ORIENT	n/a	n/a	3	3	PEARL	BAG	BAG	PEARL	6	[0, 0, 0]	-999	PAL1	0	R1109N
811.203	4.0	1269670	STUDY_PAIR	n/a	wordpools/wordpool_EN.txt	3	3	PEARL	BAG	BAG	PEARL	6	[0, 0, 0]	-999	PAL1	0	R1109N
816.237	0.275	1274704	STUDY_ORIENT	n/a	n/a	4	6	RAKE	STRAW	RAKE	STRAW	6	[0, 0, 0]	-999	PAL1	0	R1109N
817.203	4.0	1275670	STUDY_PAIR	n/a	wordpools/wordpool_EN.txt	4	6	RAKE	STRAW	RAKE	STRAW	6	[0, 0, 0]	-999	PAL1	0	R1109N
822.221	0.275	1280687	STUDY_ORIENT	n/a	n/a	5	5	ZOO	STOOL	ZOO	SEAT	6	[0, 0, 0]	-999	PAL1	0	R1109N
823.104	4.0	1281570	STUDY_PAIR	n/a	wordpools/wordpool_EN.txt	5	5	ZOO	STOOL	ZOO	SEAT	6	[0, 0, 0]	-999	PAL1	0	R1109N
828.122	0.275	1286588	STUDY_ORIENT	n/a	n/a	6	2	JAR	POOL	JAR	POOL	6	[0, 0, 0]	-999	PAL1	0	R1109N
829.005	4.0	1287471	STUDY_PAIR	n/a	wordpools/wordpool_EN.txt	6	2	JAR	POOL	JAR	POOL	6	[0, 0, 0]	-999	PAL1	0	R1109N
833.006	1.0	1291472	START	n/a	n/a	-999	-999	n/a	n/a	n/a	n/a	6	[-999, -999, -999]	-999	PAL1	0	R1109N
834.006	0.017	1292472	MATH_START	n/a	n/a	-999	-999	n/a	n/a	n/a	n/a	6	[0, 0, 0]	-999	PAL1	0	R1109N
834.023	8.251	1292489	PROB	8222.0	n/a	-999	-999	n/a	n/a	n/a	n/a	6	[4, 3, 9]	16	PAL1	0	R1109N
842.274	9.285	1300739	PROB	9251.0	n/a	-999	-999	n/a	n/a	n/a	n/a	6	[1, 5, 9]	15	PAL1	0	R1109N
851.559	11.022	1310024	PROB	11022.0	n/a	-999	-999	n/a	n/a	n/a	n/a	6	[6, 1, 8]	15	PAL1	0	R1109N
862.581	0.014	1321045	STOP	n/a	n/a	-999	-999	n/a	n/a	n/a	n/a	6	[-999, -999, -999]	-999	PAL1	0	R1109N
862.595	0.0	1321059	MATH_END	n/a	n/a	-999	-999	n/a	n/a	n/a	n/a	6	[0, 0, 0]	-999	PAL1	0	R1109N
862.595	0.016	1321059	TEST_START	n/a	n/a	-999	-999	n/a	n/a	n/a	n/a	6	[0, 0, 0]	-999	PAL1	0	R1109N
862.611	0.275	1321075	TEST_ORIENT	n/a	n/a	1	1	STICK	ICE	STICK	ICE	6	[0, 0, 0]	-999	PAL1	0	R1109N
863.545	4.0	1322009	TEST_PROBE	n/a	wordpools/wordpool_EN.txt	1	1	STICK	ICE	STICK	ICE	6	[0, 0, 0]	-999	PAL1	0	R1109N
863.545	2.875	1322009	REC_START	n/a	n/a	1	-999	n/a	ICE	n/a	n/a	6	[0, 0, 0]	-999	PAL1	0	R1109N
866.42	2.142	1324884	REC_EVENT	2875.0	n/a	1	1	STICK	ICE	STICK	ICE	6	[0, 0, 0]	-999	PAL1	0	R1109N
868.562	0.017	1327026	REC_END	n/a	n/a	1	-999	n/a	n/a	n/a	n/a	6	[0, 0, 0]	-999	PAL1	0	R1109N
868.579	0.275	1327043	TEST_ORIENT	n/a	n/a	6	2	JAR	POOL	JAR	POOL	6	[0, 0, 0]	-999	PAL1	0	R1109N
869.446	4.0	1327910	TEST_PROBE	n/a	wordpools/wordpool_EN.txt	6	2	JAR	POOL	JAR	POOL	6	[0, 0, 0]	-999	PAL1	0	R1109N
869.446	2.248	1327910	REC_START	n/a	n/a	6	-999	n/a	POOL	n/a	n/a	6	[0, 0, 0]	-999	PAL1	0	R1109N
871.694	2.769	1330158	REC_EVENT	2248.0	n/a	6	2	JAR	POOL	JAR	POOL	6	[0, 0, 0]	-999	PAL1	0	R1109N
874.463	0.017	1332927	REC_END	n/a	n/a	6	-999	n/a	n/a	n/a	n/a	6	[0, 0, 0]	-999	PAL1	0	R1109N
874.48	0.275	1332944	TEST_ORIENT	n/a	n/a	3	3	PEARL	BAG	BAG	PEARL	6	[0, 0, 0]	-999	PAL1	0	R1109N
875.297	4.0	1333761	TEST_PROBE	n/a	wordpools/wordpool_EN.txt	3	3	PEARL	BAG	BAG	PEARL	6	[0, 0, 0]	-999	PAL1	0	R1109N
875.297	0.932	1333761	REC_START	n/a	n/a	3	-999	n/a	BAG	n/a	n/a	6	[0, 0, 0]	-999	PAL1	0	R1109N
876.229	4.085	1334693	REC_EVENT	932.0	n/a	3	3	PEARL	BAG	BAG	PEARL	6	[0, 0, 0]	-999	PAL1	0	R1109N
880.314	0.017	1338777	REC_END	n/a	n/a	3	-999	n/a	n/a	n/a	n/a	6	[0, 0, 0]	-999	PAL1	0	R1109N
880.331	0.275	1338794	TEST_ORIENT	n/a	n/a	2	4	BRICK	PASS	HORSE	BRICK	6	[0, 0, 0]	-999	PAL1	0	R1109N
881.281	4.0	1339744	TEST_PROBE	n/a	wordpools/wordpool_EN.txt	2	4	BRICK	PASS	HORSE	BRICK	6	[0, 0, 0]	-999	PAL1	0	R1109N
881.281	4.055	1339744	REC_START	n/a	n/a	2	-999	n/a	PASS	n/a	n/a	6	[0, 0, 0]	-999	PAL1	0	R1109N
885.336	0.97	1343799	REC_EVENT	4055.0	n/a	2	4	BRICK	PASS	HORSE	BRICK	6	[0, 0, 0]	-999	PAL1	0	R1109N
886.306	0.009	1344769	REC_END	n/a	n/a	2	-999	n/a	n/a	n/a	n/a	6	[0, 0, 0]	-999	PAL1	0	R1109N
886.315	0.275	1344778	TEST_ORIENT	n/a	n/a	5	5	ZOO	STOOL	ZOO	SEAT	6	[0, 0, 0]	-999	PAL1	0	R1109N
887.365	4.0	1345828	TEST_PROBE	n/a	wordpools/wordpool_EN.txt	5	5	ZOO	STOOL	ZOO	SEAT	6	[0, 0, 0]	-999	PAL1	0	R1109N
887.366	2.943	1345829	REC_START	n/a	n/a	5	-999	n/a	STOOL	n/a	n/a	6	[0, 0, 0]	-999	PAL1	0	R1109N
890.309	2.064	1348772	REC_EVENT	2943.0	n/a	5	5	ZOO	STOOL	ZOO	SEAT	6	[0, 0, 0]	-999	PAL1	0	R1109N
892.373	0.01	1350836	REC_END	n/a	n/a	5	-999	n/a	n/a	n/a	n/a	6	[0, 0, 0]	-999	PAL1	0	R1109N
892.383	0.275	1350846	TEST_ORIENT	n/a	n/a	4	6	RAKE	STRAW	RAKE	STRAW	6	[0, 0, 0]	-999	PAL1	0	R1109N
893.383	4.0	1351846	TEST_PROBE	n/a	wordpools/wordpool_EN.txt	4	6	RAKE	STRAW	RAKE	STRAW	6	[0, 0, 0]	-999	PAL1	0	R1109N
893.383	1.274	1351846	REC_START	n/a	n/a	4	-999	n/a	STRAW	n/a	n/a	6	[0, 0, 0]	-999	PAL1	0	R1109N
894.657	3.743	1353120	REC_EVENT	1274.0	n/a	4	6	RAKE	STRAW	RAKE	STRAW	6	[0, 0, 0]	-999	PAL1	0	R1109N
898.4	0.034	1356863	REC_END	n/a	n/a	4	-999	n/a	n/a	n/a	n/a	6	[0, 0, 0]	-999	PAL1	0	R1109N
898.434	13.739	1356897	FEEDBACK_SHOW_ALL_PAIRS	n/a	n/a	4	-999	n/a	n/a	n/a	n/a	6	[0, 0, 0]	-999	PAL1	0	R1109N
912.173	10.448	1370635	ENCODING_START	n/a	n/a	0	-999	n/a	n/a	n/a	n/a	7	[0, 0, 0]	-999	PAL1	0	R1109N
922.621	0.275	1381082	STUDY_ORIENT	n/a	n/a	1	3	SOAP	MOLE	MOLE	SOAP	7	[0, 0, 0]	-999	PAL1	0	R1109N
923.471	4.0	1381932	STUDY_PAIR	n/a	wordpools/wordpool_EN.txt	1	3	SOAP	MOLE	MOLE	SOAP	7	[0, 0, 0]	-999	PAL1	0	R1109N
928.489	0.275	1386950	STUDY_ORIENT	n/a	n/a	2	6	ROCK	PASS	ROCK	CROWN	7	[0, 0, 0]	-999	PAL1	0	R1109N
929.423	4.0	1387884	STUDY_PAIR	n/a	wordpools/wordpool_EN.txt	2	6	ROCK	PASS	ROCK	CROWN	7	[0, 0, 0]	-999	PAL1	0	R1109N
934.457	0.275	1392918	STUDY_ORIENT	n/a	n/a	3	1	DOLL	SMILE	DOLL	SMILE	7	[0, 0, 0]	-999	PAL1	0	R1109N
935.24	4.0	1393701	STUDY_PAIR	n/a	wordpools/wordpool_EN.txt	3	1	DOLL	SMILE	DOLL	SMILE	7	[0, 0, 0]	-999	PAL1	0	R1109N
940.274	0.275	1398734	STUDY_ORIENT	n/a	n/a	4	4	GLASS	PASS	GLASS	CLOWN	7	[0, 0, 0]	-999	PAL1	0	R1109N
941.091	4.0	1399551	STUDY_PAIR	n/a	wordpools/wordpool_EN.txt	4	4	GLASS	PASS	GLASS	CLOWN	7	[0, 0, 0]	-999	PAL1	0	R1109N
946.125	0.275	1404585	STUDY_ORIENT	n/a	n/a	5	5	DITCH	SHARK	DITCH	SHARK	7	[0, 0, 0]	-999	PAL1	0	R1109N
947.075	4.0	1405535	STUDY_PAIR	n/a	wordpools/wordpool_EN.txt	5	5	DITCH	SHARK	DITCH	SHARK	7	[0, 0, 0]	-999	PAL1	0	R1109N
952.093	0.275	1410553	STUDY_ORIENT	n/a	n/a	6	2	DOCK	WAVE	WAVE	DOCK	7	[0, 0, 0]	-999	PAL1	0	R1109N
952.927	4.0	1411387	STUDY_PAIR	n/a	wordpools/wordpool_EN.txt	6	2	DOCK	WAVE	WAVE	DOCK	7	[0, 0, 0]	-999	PAL1	0	R1109N
956.928	1.0	1415388	START	n/a	n/a	-999	-999	n/a	n/a	n/a	n/a	7	[-999, -999, -999]	-999	PAL1	0	R1109N
957.928	0.017	1416387	MATH_START	n/a	n/a	-999	-999	n/a	n/a	n/a	n/a	7	[0, 0, 0]	-999	PAL1	0	R1109N
957.945	5.167	1416404	PROB	5148.0	n/a	-999	-999	n/a	n/a	n/a	n/a	7	[3, 2, 1]	6	PAL1	0	R1109N
963.112	4.835	1421571	PROB	4806.0	n/a	-999	-999	n/a	n/a	n/a	n/a	7	[6, 7, 1]	14	PAL1	0	R1109N
967.947	4.532	1426406	PROB	4514.0	n/a	-999	-999	n/a	n/a	n/a	n/a	7	[5, 1, 5]	11	PAL1	0	R1109N
972.479	10.231	1430938	PROB	10231.0	n/a	-999	-999	n/a	n/a	n/a	n/a	7	[6, 9, 4]	19	PAL1	0	R1109N
982.71	0.006	1441168	STOP	n/a	n/a	-999	-999	n/a	n/a	n/a	n/a	7	[-999, -999, -999]	-999	PAL1	0	R1109N
982.716	0.0	1441174	MATH_END	n/a	n/a	-999	-999	n/a	n/a	n/a	n/a	7	[0, 0, 0]	-999	PAL1	0	R1109N
982.716	0.017	1441174	TEST_START	n/a	n/a	-999	-999	n/a	n/a	n/a	n/a	7	[0, 0, 0]	-999	PAL1	0	R1109N
982.733	0.275	1441191	TEST_ORIENT	n/a	n/a	3	1	DOLL	SMILE	DOLL	SMILE	7	[0, 0, 0]	-999	PAL1	0	R1109N
983.749	4.0	1442207	TEST_PROBE	n/a	wordpools/wordpool_EN.txt	3	1	DOLL	SMILE	DOLL	SMILE	7	[0, 0, 0]	-999	PAL1	0	R1109N
983.75	1.338	1442208	REC_START	n/a	n/a	3	-999	n/a	SMILE	n/a	n/a	7	[0, 0, 0]	-999	PAL1	0	R1109N
985.088	3.662	1443546	REC_EVENT	1338.0	n/a	3	1	DOLL	SMILE	DOLL	SMILE	7	[0, 0, 0]	-999	PAL1	0	R1109N
988.75	0.017	1447208	REC_END	n/a	n/a	3	-999	n/a	n/a	n/a	n/a	7	[0, 0, 0]	-999	PAL1	0	R1109N
988.767	0.275	1447225	TEST_ORIENT	n/a	n/a	6	2	DOCK	WAVE	WAVE	DOCK	7	[0, 0, 0]	-999	PAL1	0	R1109N
989.583	4.0	1448041	TEST_PROBE	n/a	wordpools/wordpool_EN.txt	6	2	DOCK	WAVE	WAVE	DOCK	7	[0, 0, 0]	-999	PAL1	0	R1109N
989.583	3.288	1448041	REC_START	n/a	n/a	6	-999	n/a	WAVE	n/a	n/a	7	[0, 0, 0]	-999	PAL1	0	R1109N
992.871	1.729	1451329	REC_EVENT	3288.0	n/a	6	2	DOCK	WAVE	WAVE	DOCK	7	[0, 0, 0]	-999	PAL1	0	R1109N
994.6	0.017	1453058	REC_END	n/a	n/a	6	-999	n/a	n/a	n/a	n/a	7	[0, 0, 0]	-999	PAL1	0	R1109N
994.617	0.275	1453075	TEST_ORIENT	n/a	n/a	1	3	SOAP	MOLE	MOLE	SOAP	7	[0, 0, 0]	-999	PAL1	0	R1109N
995.567	4.0	1454025	TEST_PROBE	n/a	wordpools/wordpool_EN.txt	1	3	SOAP	MOLE	MOLE	SOAP	7	[0, 0, 0]	-999	PAL1	0	R1109N
995.567	3.845	1454025	REC_START	n/a	n/a	1	-999	n/a	MOLE	n/a	n/a	7	[0, 0, 0]	-999	PAL1	0	R1109N
999.412	1.172	1457869	REC_EVENT	3845.0	n/a	1	3	SOAP	MOLE	MOLE	SOAP	7	[0, 0, 0]	-999	PAL1	0	R1109N
1000.584	0.017	1459041	REC_END	n/a	n/a	1	-999	n/a	n/a	n/a	n/a	7	[0, 0, 0]	-999	PAL1	0	R1109N
1000.601	0.275	1459058	TEST_ORIENT	n/a	n/a	4	4	GLASS	PASS	GLASS	CLOWN	7	[0, 0, 0]	-999	PAL1	0	R1109N
1001.568	4.0	1460025	TEST_PROBE	n/a	wordpools/wordpool_EN.txt	4	4	GLASS	PASS	GLASS	CLOWN	7	[0, 0, 0]	-999	PAL1	0	R1109N
1001.568	2.779	1460025	REC_START	n/a	n/a	4	-999	n/a	PASS	n/a	n/a	7	[0, 0, 0]	-999	PAL1	0	R1109N
1004.347	2.238	1462804	REC_EVENT	2779.0	n/a	4	4	GLASS	PASS	GLASS	CLOWN	7	[0, 0, 0]	-999	PAL1	0	R1109N
1006.585	0.017	1465042	REC_END	n/a	n/a	4	-999	n/a	n/a	n/a	n/a	7	[0, 0, 0]	-999	PAL1	0	R1109N
1006.602	0.275	1465059	TEST_ORIENT	n/a	n/a	5	5	DITCH	SHARK	DITCH	SHARK	7	[0, 0, 0]	-999	PAL1	0	R1109N
1007.569	4.0	1466026	TEST_PROBE	n/a	wordpools/wordpool_EN.txt	5	5	DITCH	SHARK	DITCH	SHARK	7	[0, 0, 0]	-999	PAL1	0	R1109N
1007.57	1.235	1466027	REC_START	n/a	n/a	5	-999	n/a	SHARK	n/a	n/a	7	[0, 0, 0]	-999	PAL1	0	R1109N
1008.805	3.781	1467262	REC_EVENT	1235.0	n/a	5	5	DITCH	SHARK	DITCH	SHARK	7	[0, 0, 0]	-999	PAL1	0	R1109N
1012.586	0.017	1471043	REC_END	n/a	n/a	5	-999	n/a	n/a	n/a	n/a	7	[0, 0, 0]	-999	PAL1	0	R1109N
1012.603	0.275	1471060	TEST_ORIENT	n/a	n/a	2	6	ROCK	PASS	ROCK	CROWN	7	[0, 0, 0]	-999	PAL1	0	R1109N
1013.52	4.0	1471977	TEST_PROBE	n/a	wordpools/wordpool_EN.txt	2	6	ROCK	PASS	ROCK	CROWN	7	[0, 0, 0]	-999	PAL1	0	R1109N
1013.521	4.256	1471978	REC_START	n/a	n/a	2	-999	n/a	PASS	n/a	n/a	7	[0, 0, 0]	-999	PAL1	0	R1109N
1017.777	0.768	1476233	REC_EVENT	4256.0	n/a	2	6	ROCK	PASS	ROCK	CROWN	7	[0, 0, 0]	-999	PAL1	0	R1109N
1018.545	0.026	1477001	REC_END	n/a	n/a	2	-999	n/a	n/a	n/a	n/a	7	[0, 0, 0]	-999	PAL1	0	R1109N
1018.571	10.866	1477027	FEEDBACK_SHOW_ALL_PAIRS	n/a	n/a	2	-999	n/a	n/a	n/a	n/a	7	[0, 0, 0]	-999	PAL1	0	R1109N
1029.437	10.438	1487893	ENCODING_START	n/a	n/a	0	-999	n/a	n/a	n/a	n/a	8	[0, 0, 0]	-999	PAL1	0	R1109N
1039.875	0.275	1498330	STUDY_ORIENT	n/a	n/a	1	1	BOARD	PASS	BOARD	PHONE	8	[0, 0, 0]	-999	PAL1	0	R1109N
1040.809	4.0	1499264	STUDY_PAIR	n/a	wordpools/wordpool_EN.txt	1	1	BOARD	PASS	BOARD	PHONE	8	[0, 0, 0]	-999	PAL1	0	R1109N
1045.843	0.275	1504298	STUDY_ORIENT	n/a	n/a	2	2	DRUM	n/a	DRUM	CANE	8	[0, 0, 0]	-999	PAL1	0	R1109N
1046.626	4.0	1505081	STUDY_PAIR	n/a	wordpools/wordpool_EN.txt	2	2	DRUM	n/a	DRUM	CANE	8	[0, 0, 0]	-999	PAL1	0	R1109N
1051.66	0.275	1510115	STUDY_ORIENT	n/a	n/a	3	5	SPOON	PASS	SPOON	CORN	8	[0, 0, 0]	-999	PAL1	0	R1109N
1052.427	4.0	1510882	STUDY_PAIR	n/a	wordpools/wordpool_EN.txt	3	5	SPOON	PASS	SPOON	CORN	8	[0, 0, 0]	-999	PAL1	0	R1109N
1057.461	0.275	1515915	STUDY_ORIENT	n/a	n/a	4	6	LAMB	n/a	WHEEL	LAMB	8	[0, 0, 0]	-999	PAL1	0	R1109N
1058.361	4.0	1516815	STUDY_PAIR	n/a	wordpools/wordpool_EN.txt	4	6	LAMB	n/a	WHEEL	LAMB	8	[0, 0, 0]	-999	PAL1	0	R1109N
1063.395	0.275	1521849	STUDY_ORIENT	n/a	n/a	5	3	EAR	PASS	ROOF	EAR	8	[0, 0, 0]	-999	PAL1	0	R1109N
1064.329	4.0	1522783	STUDY_PAIR	n/a	wordpools/wordpool_EN.txt	5	3	EAR	PASS	ROOF	EAR	8	[0, 0, 0]	-999	PAL1	0	R1109N
1069.363	0.275	1527817	STUDY_ORIENT	n/a	n/a	6	4	WAND	DOOR	WAND	DOOR	8	[0, 0, 0]	-999	PAL1	0	R1109N
1070.246	4.0	1528700	STUDY_PAIR	n/a	wordpools/wordpool_EN.txt	6	4	WAND	DOOR	WAND	DOOR	8	[0, 0, 0]	-999	PAL1	0	R1109N
1074.247	1.0	1532700	START	n/a	n/a	-999	-999	n/a	n/a	n/a	n/a	8	[-999, -999, -999]	-999	PAL1	0	R1109N
1075.247	0.017	1533700	MATH_START	n/a	n/a	-999	-999	n/a	n/a	n/a	n/a	8	[0, 0, 0]	-999	PAL1	0	R1109N
1075.264	4.884	1533717	PROB	4861.0	n/a	-999	-999	n/a	n/a	n/a	n/a	8	[5, 5, 2]	12	PAL1	0	R1109N
1080.148	6.334	1538601	PROB	6313.0	n/a	-999	-999	n/a	n/a	n/a	n/a	8	[5, 2, 1]	8	PAL1	0	R1109N
1086.482	5.935	1544935	PROB	5907.0	n/a	-999	-999	n/a	n/a	n/a	n/a	8	[6, 1, 7]	14	PAL1	0	R1109N
1092.417	7.124	1550870	PROB	7124.0	n/a	-999	-999	n/a	n/a	n/a	n/a	8	[4, 9, 9]	22	PAL1	0	R1109N
1099.541	0.01	1557993	STOP	n/a	n/a	-999	-999	n/a	n/a	n/a	n/a	8	[-999, -999, -999]	-999	PAL1	0	R1109N
1099.551	0.0	1558003	MATH_END	n/a	n/a	-999	-999	n/a	n/a	n/a	n/a	8	[0, 0, 0]	-999	PAL1	0	R1109N
1099.551	0.017	1558003	TEST_START	n/a	n/a	-999	-999	n/a	n/a	n/a	n/a	8	[0, 0, 0]	-999	PAL1	0	R1109N
1099.568	0.275	1558020	TEST_ORIENT	n/a	n/a	1	1	BOARD	PASS	BOARD	PHONE	8	[0, 0, 0]	-999	PAL1	0	R1109N
1100.568	0.0	1559020	REC_START	n/a	n/a	1	-999	n/a	PASS	n/a	n/a	8	[0, 0, 0]	-999	PAL1	0	R1109N
1100.568	4.0	1559020	TEST_PROBE	n/a	wordpools/wordpool_EN.txt	1	1	BOARD	PASS	BOARD	PHONE	8	[0, 0, 0]	-999	PAL1	0	R1109N
1104.594	0.992	1563046	REC_EVENT	4026.0	n/a	1	1	BOARD	PASS	BOARD	PHONE	8	[0, 0, 0]	-999	PAL1	0	R1109N
1105.586	0.016	1564038	REC_END	n/a	n/a	1	-999	n/a	n/a	n/a	n/a	8	[0, 0, 0]	-999	PAL1	0	R1109N
1105.602	0.275	1564054	TEST_ORIENT	n/a	n/a	2	2	DRUM	n/a	DRUM	CANE	8	[0, 0, 0]	-999	PAL1	0	R1109N
1106.619	4.0	1565071	TEST_PROBE	n/a	wordpools/wordpool_EN.txt	2	2	DRUM	n/a	DRUM	CANE	8	[0, 0, 0]	-999	PAL1	0	R1109N
1106.619	3.723	1565071	REC_START	n/a	n/a	2	-999	n/a	n/a	n/a	n/a	8	[0, 0, 0]	-999	PAL1	0	R1109N
1110.342	1.294	1568794	REC_EVENT	3723.0	n/a	2	2	DRUM	<>	DRUM	CANE	8	[0, 0, 0]	-999	PAL1	0	R1109N
1111.636	0.017	1570088	REC_END	n/a	n/a	2	-999	n/a	n/a	n/a	n/a	8	[0, 0, 0]	-999	PAL1	0	R1109N
1111.653	0.275	1570105	TEST_ORIENT	n/a	n/a	5	3	EAR	PASS	ROOF	EAR	8	[0, 0, 0]	-999	PAL1	0	R1109N
1112.637	0.0	1571088	REC_START	n/a	n/a	5	-999	n/a	PASS	n/a	n/a	8	[0, 0, 0]	-999	PAL1	0	R1109N
1112.637	4.0	1571088	TEST_PROBE	n/a	wordpools/wordpool_EN.txt	5	3	EAR	PASS	ROOF	EAR	8	[0, 0, 0]	-999	PAL1	0	R1109N
1116.352	1.302	1574803	REC_EVENT	3715.0	n/a	5	3	EAR	PASS	ROOF	EAR	8	[0, 0, 0]	-999	PAL1	0	R1109N
1117.654	0.018	1576105	REC_END	n/a	n/a	5	-999	n/a	n/a	n/a	n/a	8	[0, 0, 0]	-999	PAL1	0	R1109N
1117.672	0.275	1576123	TEST_ORIENT	n/a	n/a	6	4	WAND	DOOR	WAND	DOOR	8	[0, 0, 0]	-999	PAL1	0	R1109N
1118.521	4.0	1576972	TEST_PROBE	n/a	wordpools/wordpool_EN.txt	6	4	WAND	DOOR	WAND	DOOR	8	[0, 0, 0]	-999	PAL1	0	R1109N
1118.522	2.198	1576973	REC_START	n/a	n/a	6	-999	n/a	DOOR	n/a	n/a	8	[0, 0, 0]	-999	PAL1	0	R1109N
1120.72	2.818	1579171	REC_EVENT	2198.0	n/a	6	4	WAND	DOOR	WAND	DOOR	8	[0, 0, 0]	-999	PAL1	0	R1109N
1123.538	0.017	1581989	REC_END	n/a	n/a	6	-999	n/a	n/a	n/a	n/a	8	[0, 0, 0]	-999	PAL1	0	R1109N
1123.555	0.275	1582006	TEST_ORIENT	n/a	n/a	3	5	SPOON	PASS	SPOON	CORN	8	[0, 0, 0]	-999	PAL1	0	R1109N
1124.572	4.0	1583023	TEST_PROBE	n/a	wordpools/wordpool_EN.txt	3	5	SPOON	PASS	SPOON	CORN	8	[0, 0, 0]	-999	PAL1	0	R1109N
1124.573	2.827	1583024	REC_START	n/a	n/a	3	-999	n/a	PASS	n/a	n/a	8	[0, 0, 0]	-999	PAL1	0	R1109N
1127.4	2.198	1585851	REC_EVENT	2827.0	n/a	3	5	SPOON	PASS	SPOON	CORN	8	[0, 0, 0]	-999	PAL1	0	R1109N
1129.598	0.008	1588049	REC_END	n/a	n/a	3	-999	n/a	n/a	n/a	n/a	8	[0, 0, 0]	-999	PAL1	0	R1109N
1129.606	0.275	1588057	TEST_ORIENT	n/a	n/a	4	6	LAMB	n/a	WHEEL	LAMB	8	[0, 0, 0]	-999	PAL1	0	R1109N
1130.473	4.0	1588924	TEST_PROBE	n/a	wordpools/wordpool_EN.txt	4	6	LAMB	n/a	WHEEL	LAMB	8	[0, 0, 0]	-999	PAL1	0	R1109N
1130.474	5.025	1588925	REC_START	n/a	n/a	4	-999	n/a	n/a	n/a	n/a	8	[0, 0, 0]	-999	PAL1	0	R1109N
1135.499	0.002	1593949	REC_END	n/a	n/a	4	-999	n/a	n/a	n/a	n/a	8	[0, 0, 0]	-999	PAL1	0	R1109N
1135.501	0.023	1593951	REC_EVENT	5027.0	n/a	4	6	LAMB	<>	WHEEL	LAMB	8	[0, 0, 0]	-999	PAL1	0	R1109N
1135.524	11.033	1593974	FEEDBACK_SHOW_ALL_PAIRS	n/a	n/a	4	-999	n/a	n/a	n/a	n/a	8	[0, 0, 0]	-999	PAL1	0	R1109N
1146.557	10.454	1605007	ENCODING_START	n/a	n/a	0	-999	n/a	n/a	n/a	n/a	9	[0, 0, 0]	-999	PAL1	0	R1109N
1157.011	0.275	1615460	STUDY_ORIENT	n/a	n/a	1	1	CAKE	TOOTH	CAKE	TOOTH	9	[0, 0, 0]	-999	PAL1	0	R1109N
1157.929	4.0	1616378	STUDY_PAIR	n/a	wordpools/wordpool_EN.txt	1	1	CAKE	TOOTH	CAKE	TOOTH	9	[0, 0, 0]	-999	PAL1	0	R1109N
1162.962	0.275	1621411	STUDY_ORIENT	n/a	n/a	2	4	ROAD	BLUSH	ROAD	BLUSH	9	[0, 0, 0]	-999	PAL1	0	R1109N
1163.796	4.0	1622245	STUDY_PAIR	n/a	wordpools/wordpool_EN.txt	2	4	ROAD	BLUSH	ROAD	BLUSH	9	[0, 0, 0]	-999	PAL1	0	R1109N
1168.814	0.275	1627263	STUDY_ORIENT	n/a	n/a	3	3	ARM	n/a	ARM	DESK	9	[0, 0, 0]	-999	PAL1	0	R1109N
1169.681	4.0	1628130	STUDY_PAIR	n/a	wordpools/wordpool_EN.txt	3	3	ARM	n/a	ARM	DESK	9	[0, 0, 0]	-999	PAL1	0	R1109N
1174.715	0.275	1633163	STUDY_ORIENT	n/a	n/a	4	2	INK	COIN	COIN	INK	9	[0, 0, 0]	-999	PAL1	0	R1109N
1175.497	4.0	1633945	STUDY_PAIR	n/a	wordpools/wordpool_EN.txt	4	2	INK	COIN	COIN	INK	9	[0, 0, 0]	-999	PAL1	0	R1109N
1180.515	0.275	1638963	STUDY_ORIENT	n/a	n/a	5	5	CAT	BROOM	CAT	BROOM	9	[0, 0, 0]	-999	PAL1	0	R1109N
1181.298	4.0	1639746	STUDY_PAIR	n/a	wordpools/wordpool_EN.txt	5	5	CAT	BROOM	CAT	BROOM	9	[0, 0, 0]	-999	PAL1	0	R1109N
1186.316	0.275	1644764	STUDY_ORIENT	n/a	n/a	6	6	LOCK	GOAT	GOAT	LOCK	9	[0, 0, 0]	-999	PAL1	0	R1109N
1187.199	4.0	1645647	STUDY_PAIR	n/a	wordpools/wordpool_EN.txt	6	6	LOCK	GOAT	GOAT	LOCK	9	[0, 0, 0]	-999	PAL1	0	R1109N
1191.2	1.0	1649647	START	n/a	n/a	-999	-999	n/a	n/a	n/a	n/a	9	[-999, -999, -999]	-999	PAL1	0	R1109N
1192.2	0.017	1650647	MATH_START	n/a	n/a	-999	-999	n/a	n/a	n/a	n/a	9	[0, 0, 0]	-999	PAL1	0	R1109N
1192.217	9.868	1650664	PROB	9836.0	n/a	-999	-999	n/a	n/a	n/a	n/a	9	[1, 3, 6]	10	PAL1	0	R1109N
1202.085	5.101	1660532	PROB	5080.0	n/a	-999	-999	n/a	n/a	n/a	n/a	9	[9, 9, 3]	21	PAL1	0	R1109N
1207.186	4.724	1665633	PROB	4724.0	n/a	-999	-999	n/a	n/a	n/a	n/a	9	[3, 4, 4]	11	PAL1	0	R1109N
1211.91	0.011	1670356	STOP	n/a	n/a	-999	-999	n/a	n/a	n/a	n/a	9	[-999, -999, -999]	-999	PAL1	0	R1109N
1211.921	0.0	1670367	MATH_END	n/a	n/a	-999	-999	n/a	n/a	n/a	n/a	9	[0, 0, 0]	-999	PAL1	0	R1109N
1211.921	0.017	1670367	TEST_START	n/a	n/a	-999	-999	n/a	n/a	n/a	n/a	9	[0, 0, 0]	-999	PAL1	0	R1109N
1211.938	0.275	1670384	TEST_ORIENT	n/a	n/a	1	1	CAKE	TOOTH	CAKE	TOOTH	9	[0, 0, 0]	-999	PAL1	0	R1109N
1212.905	0.0	1671351	REC_START	n/a	n/a	1	-999	n/a	TOOTH	n/a	n/a	9	[0, 0, 0]	-999	PAL1	0	R1109N
1212.905	4.0	1671351	TEST_PROBE	n/a	wordpools/wordpool_EN.txt	1	1	CAKE	TOOTH	CAKE	TOOTH	9	[0, 0, 0]	-999	PAL1	0	R1109N
1213.768	4.154	1672214	REC_EVENT	863.0	n/a	1	1	CAKE	TOOTH	CAKE	TOOTH	9	[0, 0, 0]	-999	PAL1	0	R1109N
1217.922	0.017	1676368	REC_END	n/a	n/a	1	-999	n/a	n/a	n/a	n/a	9	[0, 0, 0]	-999	PAL1	0	R1109N
1217.939	0.275	1676385	TEST_ORIENT	n/a	n/a	4	2	INK	COIN	COIN	INK	9	[0, 0, 0]	-999	PAL1	0	R1109N
1218.872	4.0	1677318	TEST_PROBE	n/a	wordpools/wordpool_EN.txt	4	2	INK	COIN	COIN	INK	9	[0, 0, 0]	-999	PAL1	0	R1109N
1218.873	2.029	1677319	REC_START	n/a	n/a	4	-999	n/a	COIN	n/a	n/a	9	[0, 0, 0]	-999	PAL1	0	R1109N
1220.902	2.978	1679348	REC_EVENT	2029.0	n/a	4	2	INK	COIN	COIN	INK	9	[0, 0, 0]	-999	PAL1	0	R1109N
1223.88	0.01	1682326	REC_END	n/a	n/a	4	-999	n/a	n/a	n/a	n/a	9	[0, 0, 0]	-999	PAL1	0	R1109N
1223.89	0.275	1682336	TEST_ORIENT	n/a	n/a	3	3	ARM	n/a	ARM	DESK	9	[0, 0, 0]	-999	PAL1	0	R1109N
1224.89	4.0	1683336	TEST_PROBE	n/a	wordpools/wordpool_EN.txt	3	3	ARM	n/a	ARM	DESK	9	[0, 0, 0]	-999	PAL1	0	R1109N
1224.891	5.015	1683337	REC_START	n/a	n/a	3	-999	n/a	n/a	n/a	n/a	9	[0, 0, 0]	-999	PAL1	0	R1109N
1229.906	0.001	1688351	REC_EVENT	5015.0	n/a	3	3	ARM	<>	ARM	DESK	9	[0, 0, 0]	-999	PAL1	0	R1109N
1229.907	0.017	1688352	REC_END	n/a	n/a	3	-999	n/a	n/a	n/a	n/a	9	[0, 0, 0]	-999	PAL1	0	R1109N
1229.924	0.275	1688369	TEST_ORIENT	n/a	n/a	2	4	ROAD	BLUSH	ROAD	BLUSH	9	[0, 0, 0]	-999	PAL1	0	R1109N
1230.724	4.0	1689169	TEST_PROBE	n/a	wordpools/wordpool_EN.txt	2	4	ROAD	BLUSH	ROAD	BLUSH	9	[0, 0, 0]	-999	PAL1	0	R1109N
1230.725	1.57	1689170	REC_START	n/a	n/a	2	-999	n/a	BLUSH	n/a	n/a	9	[0, 0, 0]	-999	PAL1	0	R1109N
1232.295	3.437	1690740	REC_EVENT	1570.0	n/a	2	4	ROAD	BLUSH	ROAD	BLUSH	9	[0, 0, 0]	-999	PAL1	0	R1109N
1235.732	0.01	1694177	REC_END	n/a	n/a	2	-999	n/a	n/a	n/a	n/a	9	[0, 0, 0]	-999	PAL1	0	R1109N
1235.742	0.275	1694187	TEST_ORIENT	n/a	n/a	5	5	CAT	BROOM	CAT	BROOM	9	[0, 0, 0]	-999	PAL1	0	R1109N
1236.641	4.0	1695086	TEST_PROBE	n/a	wordpools/wordpool_EN.txt	5	5	CAT	BROOM	CAT	BROOM	9	[0, 0, 0]	-999	PAL1	0	R1109N
1236.641	2.396	1695086	REC_START	n/a	n/a	5	-999	n/a	BROOM	n/a	n/a	9	[0, 0, 0]	-999	PAL1	0	R1109N
1239.037	2.621	1697482	REC_EVENT	2396.0	n/a	5	5	CAT	BROOM	CAT	BROOM	9	[0, 0, 0]	-999	PAL1	0	R1109N
1241.658	0.018	1700103	REC_END	n/a	n/a	5	-999	n/a	n/a	n/a	n/a	9	[0, 0, 0]	-999	PAL1	0	R1109N
1241.676	0.275	1700121	TEST_ORIENT	n/a	n/a	6	6	LOCK	GOAT	GOAT	LOCK	9	[0, 0, 0]	-999	PAL1	0	R1109N
1242.575	4.0	1701020	TEST_PROBE	n/a	wordpools/wordpool_EN.txt	6	6	LOCK	GOAT	GOAT	LOCK	9	[0, 0, 0]	-999	PAL1	0	R1109N
1242.576	1.607	1701021	REC_START	n/a	n/a	6	-999	n/a	GOAT	n/a	n/a	9	[0, 0, 0]	-999	PAL1	0	R1109N
1244.183	3.4	1702628	REC_EVENT	1607.0	n/a	6	6	LOCK	GOAT	GOAT	LOCK	9	[0, 0, 0]	-999	PAL1	0	R1109N
1247.583	0.027	1706028	REC_END	n/a	n/a	6	-999	n/a	n/a	n/a	n/a	9	[0, 0, 0]	-999	PAL1	0	R1109N
1247.61	10.963	1706055	FEEDBACK_SHOW_ALL_PAIRS	n/a	n/a	6	-999	n/a	n/a	n/a	n/a	9	[0, 0, 0]	-999	PAL1	0	R1109N
1258.573	10.44	1717017	ENCODING_START	n/a	n/a	0	-999	n/a	n/a	n/a	n/a	10	[0, 0, 0]	-999	PAL1	0	R1109N
1269.013	0.275	1727456	STUDY_ORIENT	n/a	n/a	1	1	SOCK	SEA	SOCK	SEA	10	[0, 0, 0]	-999	PAL1	0	R1109N
1269.814	4.0	1728257	STUDY_PAIR	n/a	wordpools/wordpool_EN.txt	1	1	SOCK	SEA	SOCK	SEA	10	[0, 0, 0]	-999	PAL1	0	R1109N
1274.832	0.275	1733275	STUDY_ORIENT	n/a	n/a	2	6	SPONGE	FIRE	SPONGE	FLAME	10	[0, 0, 0]	-999	PAL1	0	R1109N
1275.782	4.0	1734225	STUDY_PAIR	n/a	wordpools/wordpool_EN.txt	2	6	SPONGE	FIRE	SPONGE	FLAME	10	[0, 0, 0]	-999	PAL1	0	R1109N
1280.816	0.275	1739259	STUDY_ORIENT	n/a	n/a	3	5	FLEA	n/a	ROPE	FLEA	10	[0, 0, 0]	-999	PAL1	0	R1109N
1281.599	4.0	1740042	STUDY_PAIR	n/a	wordpools/wordpool_EN.txt	3	5	FLEA	n/a	ROPE	FLEA	10	[0, 0, 0]	-999	PAL1	0	R1109N
1286.633	0.275	1745076	STUDY_ORIENT	n/a	n/a	4	4	DOG	VINE	VINE	DOG	10	[0, 0, 0]	-999	PAL1	0	R1109N
1287.516	4.0	1745958	STUDY_PAIR	n/a	wordpools/wordpool_EN.txt	4	4	DOG	VINE	VINE	DOG	10	[0, 0, 0]	-999	PAL1	0	R1109N
1292.534	0.275	1750976	STUDY_ORIENT	n/a	n/a	5	3	SUN	SHEEP	SUN	SHEEP	10	[0, 0, 0]	-999	PAL1	0	R1109N
1293.317	4.0	1751759	STUDY_PAIR	n/a	wordpools/wordpool_EN.txt	5	3	SUN	SHEEP	SUN	SHEEP	10	[0, 0, 0]	-999	PAL1	0	R1109N
1298.335	0.275	1756777	STUDY_ORIENT	n/a	n/a	6	2	CLOTH	CHIN	CLOTH	CHIN	10	[0, 0, 0]	-999	PAL1	0	R1109N
1299.168	4.0	1757610	STUDY_PAIR	n/a	wordpools/wordpool_EN.txt	6	2	CLOTH	CHIN	CLOTH	CHIN	10	[0, 0, 0]	-999	PAL1	0	R1109N
1303.169	1.0	1761611	START	n/a	n/a	-999	-999	n/a	n/a	n/a	n/a	10	[-999, -999, -999]	-999	PAL1	0	R1109N
1304.169	0.017	1762611	MATH_START	n/a	n/a	-999	-999	n/a	n/a	n/a	n/a	10	[0, 0, 0]	-999	PAL1	0	R1109N
1304.186	13.169	1762628	PROB	13139.0	n/a	-999	-999	n/a	n/a	n/a	n/a	10	[1, 7, 5]	13	PAL1	0	R1109N
1317.355	11.81	1775796	PROB	11810.0	n/a	-999	-999	n/a	n/a	n/a	n/a	10	[4, 2, 3]	9	PAL1	0	R1109N
1329.165	0.008	1787605	STOP	n/a	n/a	-999	-999	n/a	n/a	n/a	n/a	10	[-999, -999, -999]	-999	PAL1	0	R1109N
1329.173	0.0	1787613	MATH_END	n/a	n/a	-999	-999	n/a	n/a	n/a	n/a	10	[0, 0, 0]	-999	PAL1	0	R1109N
1329.173	0.017	1787613	TEST_START	n/a	n/a	-999	-999	n/a	n/a	n/a	n/a	10	[0, 0, 0]	-999	PAL1	0	R1109N
1329.19	0.275	1787630	TEST_ORIENT	n/a	n/a	1	1	SOCK	SEA	SOCK	SEA	10	[0, 0, 0]	-999	PAL1	0	R1109N
1330.174	0.0	1788614	REC_START	n/a	n/a	1	-999	n/a	SEA	n/a	n/a	10	[0, 0, 0]	-999	PAL1	0	R1109N
1330.174	4.0	1788614	TEST_PROBE	n/a	wordpools/wordpool_EN.txt	1	1	SOCK	SEA	SOCK	SEA	10	[0, 0, 0]	-999	PAL1	0	R1109N
1331.863	3.328	1790303	REC_EVENT	1689.0	n/a	1	1	SOCK	SEA	SOCK	SEA	10	[0, 0, 0]	-999	PAL1	0	R1109N
1335.191	0.017	1793631	REC_END	n/a	n/a	1	-999	n/a	n/a	n/a	n/a	10	[0, 0, 0]	-999	PAL1	0	R1109N
1335.208	0.275	1793648	TEST_ORIENT	n/a	n/a	6	2	CLOTH	CHIN	CLOTH	CHIN	10	[0, 0, 0]	-999	PAL1	0	R1109N
1336.208	4.0	1794648	TEST_PROBE	n/a	wordpools/wordpool_EN.txt	6	2	CLOTH	CHIN	CLOTH	CHIN	10	[0, 0, 0]	-999	PAL1	0	R1109N
1336.209	2.223	1794649	REC_START	n/a	n/a	6	-999	n/a	CHIN	n/a	n/a	10	[0, 0, 0]	-999	PAL1	0	R1109N
1338.432	2.8	1796872	REC_EVENT	2223.0	n/a	6	2	CLOTH	CHIN	CLOTH	CHIN	10	[0, 0, 0]	-999	PAL1	0	R1109N
1341.232	0.01	1799672	REC_END	n/a	n/a	6	-999	n/a	n/a	n/a	n/a	10	[0, 0, 0]	-999	PAL1	0	R1109N
1341.242	0.275	1799682	TEST_ORIENT	n/a	n/a	5	3	SUN	SHEEP	SUN	SHEEP	10	[0, 0, 0]	-999	PAL1	0	R1109N
1342.209	4.0	1800649	TEST_PROBE	n/a	wordpools/wordpool_EN.txt	5	3	SUN	SHEEP	SUN	SHEEP	10	[0, 0, 0]	-999	PAL1	0	R1109N
1342.21	1.676	1800650	REC_START	n/a	n/a	5	-999	n/a	SHEEP	n/a	n/a	10	[0, 0, 0]	-999	PAL1	0	R1109N
1343.886	3.347	1802326	REC_EVENT	1676.0	n/a	5	3	SUN	SHEEP	SUN	SHEEP	10	[0, 0, 0]	-999	PAL1	0	R1109N
1347.233	0.01	1805672	REC_END	n/a	n/a	5	-999	n/a	n/a	n/a	n/a	10	[0, 0, 0]	-999	PAL1	0	R1109N
1347.243	0.275	1805682	TEST_ORIENT	n/a	n/a	4	4	DOG	VINE	VINE	DOG	10	[0, 0, 0]	-999	PAL1	0	R1109N
1348.227	4.0	1806666	TEST_PROBE	n/a	wordpools/wordpool_EN.txt	4	4	DOG	VINE	VINE	DOG	10	[0, 0, 0]	-999	PAL1	0	R1109N
1348.227	2.363	1806666	REC_START	n/a	n/a	4	-999	n/a	VINE	n/a	n/a	10	[0, 0, 0]	-999	PAL1	0	R1109N
1350.59	2.654	1809029	REC_EVENT	2363.0	n/a	4	4	DOG	VINE	VINE	DOG	10	[0, 0, 0]	-999	PAL1	0	R1109N
1353.244	0.017	1811683	REC_END	n/a	n/a	4	-999	n/a	n/a	n/a	n/a	10	[0, 0, 0]	-999	PAL1	0	R1109N
1353.261	0.275	1811700	TEST_ORIENT	n/a	n/a	3	5	FLEA	n/a	ROPE	FLEA	10	[0, 0, 0]	-999	PAL1	0	R1109N
1354.077	4.0	1812516	TEST_PROBE	n/a	wordpools/wordpool_EN.txt	3	5	FLEA	n/a	ROPE	FLEA	10	[0, 0, 0]	-999	PAL1	0	R1109N
1354.078	2.78	1812517	REC_START	n/a	n/a	3	-999	n/a	n/a	n/a	n/a	10	[0, 0, 0]	-999	PAL1	0	R1109N
1356.858	2.229	1815297	REC_EVENT	2780.0	n/a	3	5	FLEA	<>	ROPE	FLEA	10	[0, 0, 0]	-999	PAL1	0	R1109N
1359.087	0.008	1817526	REC_END	n/a	n/a	3	-999	n/a	n/a	n/a	n/a	10	[0, 0, 0]	-999	PAL1	0	R1109N
1359.095	0.275	1817534	TEST_ORIENT	n/a	n/a	2	6	SPONGE	FIRE	SPONGE	FLAME	10	[0, 0, 0]	-999	PAL1	0	R1109N
1360.079	4.0	1818518	TEST_PROBE	n/a	wordpools/wordpool_EN.txt	2	6	SPONGE	FIRE	SPONGE	FLAME	10	[0, 0, 0]	-999	PAL1	0	R1109N
1360.079	3.295	1818518	REC_START	n/a	n/a	2	-999	n/a	FIRE	n/a	n/a	10	[0, 0, 0]	-999	PAL1	0	R1109N
1363.374	1.722	1821813	REC_EVENT	3295.0	n/a	2	6	SPONGE	FIRE	SPONGE	FLAME	10	[0, 0, 0]	-999	PAL1	0	R1109N
1365.096	0.033	1823534	REC_END	n/a	n/a	2	-999	n/a	n/a	n/a	n/a	10	[0, 0, 0]	-999	PAL1	0	R1109N
1365.129	11.38	1823567	FEEDBACK_SHOW_ALL_PAIRS	n/a	n/a	2	-999	n/a	n/a	n/a	n/a	10	[0, 0, 0]	-999	PAL1	0	R1109N
1376.509	10.442	1834947	ENCODING_START	n/a	n/a	0	-999	n/a	n/a	n/a	n/a	11	[0, 0, 0]	-999	PAL1	0	R1109N
1386.951	0.275	1845388	STUDY_ORIENT	n/a	n/a	1	5	MOOSE	DUCK	MOOSE	DUCK	11	[0, 0, 0]	-999	PAL1	0	R1109N
1387.834	4.0	1846271	STUDY_PAIR	n/a	wordpools/wordpool_EN.txt	1	5	MOOSE	DUCK	MOOSE	DUCK	11	[0, 0, 0]	-999	PAL1	0	R1109N
1392.852	0.275	1851289	STUDY_ORIENT	n/a	n/a	2	6	SPRING	CLOCK	SPRING	CLOCK	11	[0, 0, 0]	-999	PAL1	0	R1109N
1393.869	4.0	1852306	STUDY_PAIR	n/a	wordpools/wordpool_EN.txt	2	6	SPRING	CLOCK	SPRING	CLOCK	11	[0, 0, 0]	-999	PAL1	0	R1109N
1398.903	0.275	1857340	STUDY_ORIENT	n/a	n/a	3	1	CLOUD	FORK	FORK	CLOUD	11	[0, 0, 0]	-999	PAL1	0	R1109N
1399.736	4.0	1858173	STUDY_PAIR	n/a	wordpools/wordpool_EN.txt	3	1	CLOUD	FORK	FORK	CLOUD	11	[0, 0, 0]	-999	PAL1	0	R1109N
1404.754	0.275	1863190	STUDY_ORIENT	n/a	n/a	4	4	FLAG	STORE	STORE	FLAG	11	[0, 0, 0]	-999	PAL1	0	R1109N
1405.636	4.0	1864072	STUDY_PAIR	n/a	wordpools/wordpool_EN.txt	4	4	FLAG	STORE	STORE	FLAG	11	[0, 0, 0]	-999	PAL1	0	R1109N
1410.654	0.275	1869090	STUDY_ORIENT	n/a	n/a	5	3	PANTS	PASS	PANTS	NET	11	[0, 0, 0]	-999	PAL1	0	R1109N
1411.587	4.0	1870023	STUDY_PAIR	n/a	wordpools/wordpool_EN.txt	5	3	PANTS	PASS	PANTS	NET	11	[0, 0, 0]	-999	PAL1	0	R1109N
1416.605	0.275	1875041	STUDY_ORIENT	n/a	n/a	6	2	STEAK	SHOE	STEAK	SHOE	11	[0, 0, 0]	-999	PAL1	0	R1109N
1417.422	4.0	1875858	STUDY_PAIR	n/a	wordpools/wordpool_EN.txt	6	2	STEAK	SHOE	STEAK	SHOE	11	[0, 0, 0]	-999	PAL1	0	R1109N
1421.44	0.999	1879876	START	n/a	n/a	-999	-999	n/a	n/a	n/a	n/a	11	[-999, -999, -999]	-999	PAL1	0	R1109N
1422.439	0.017	1880875	MATH_START	n/a	n/a	-999	-999	n/a	n/a	n/a	n/a	11	[0, 0, 0]	-999	PAL1	0	R1109N
1422.456	6.252	1880892	PROB	6222.0	n/a	-999	-999	n/a	n/a	n/a	n/a	11	[6, 2, 1]	9	PAL1	0	R1109N
1428.708	6.3	1887143	PROB	6265.0	n/a	-999	-999	n/a	n/a	n/a	n/a	11	[3, 6, 6]	15	PAL1	0	R1109N
1435.008	10.205	1893443	PROB	10205.0	n/a	-999	-999	n/a	n/a	n/a	n/a	11	[4, 6, 4]	14	PAL1	0	R1109N
1445.213	0.013	1903647	STOP	n/a	n/a	-999	-999	n/a	n/a	n/a	n/a	11	[-999, -999, -999]	-999	PAL1	0	R1109N
1445.226	0.0	1903660	MATH_END	n/a	n/a	-999	-999	n/a	n/a	n/a	n/a	11	[0, 0, 0]	-999	PAL1	0	R1109N
1445.226	0.017	1903660	TEST_START	n/a	n/a	-999	-999	n/a	n/a	n/a	n/a	11	[0, 0, 0]	-999	PAL1	0	R1109N
1445.243	0.275	1903677	TEST_ORIENT	n/a	n/a	3	1	CLOUD	FORK	FORK	CLOUD	11	[0, 0, 0]	-999	PAL1	0	R1109N
1446.26	4.0	1904694	TEST_PROBE	n/a	wordpools/wordpool_EN.txt	3	1	CLOUD	FORK	FORK	CLOUD	11	[0, 0, 0]	-999	PAL1	0	R1109N
1446.26	2.187	1904694	REC_START	n/a	n/a	3	-999	n/a	FORK	n/a	n/a	11	[0, 0, 0]	-999	PAL1	0	R1109N
1448.447	2.83	1906881	REC_EVENT	2187.0	n/a	3	1	CLOUD	FORK	FORK	CLOUD	11	[0, 0, 0]	-999	PAL1	0	R1109N
1451.277	0.017	1909711	REC_END	n/a	n/a	3	-999	n/a	n/a	n/a	n/a	11	[0, 0, 0]	-999	PAL1	0	R1109N
1451.294	0.275	1909728	TEST_ORIENT	n/a	n/a	6	2	STEAK	SHOE	STEAK	SHOE	11	[0, 0, 0]	-999	PAL1	0	R1109N
1452.294	4.0	1910728	TEST_PROBE	n/a	wordpools/wordpool_EN.txt	6	2	STEAK	SHOE	STEAK	SHOE	11	[0, 0, 0]	-999	PAL1	0	R1109N
1452.295	1.518	1910729	REC_START	n/a	n/a	6	-999	n/a	SHOE	n/a	n/a	11	[0, 0, 0]	-999	PAL1	0	R1109N
1453.813	3.489	1912247	REC_EVENT	1518.0	n/a	6	2	STEAK	SHOE	STEAK	SHOE	11	[0, 0, 0]	-999	PAL1	0	R1109N
1457.302	0.01	1915736	REC_END	n/a	n/a	6	-999	n/a	n/a	n/a	n/a	11	[0, 0, 0]	-999	PAL1	0	R1109N
1457.312	0.275	1915746	TEST_ORIENT	n/a	n/a	5	3	PANTS	PASS	PANTS	NET	11	[0, 0, 0]	-999	PAL1	0	R1109N
1458.279	4.0	1916713	TEST_PROBE	n/a	wordpools/wordpool_EN.txt	5	3	PANTS	PASS	PANTS	NET	11	[0, 0, 0]	-999	PAL1	0	R1109N
1458.279	3.67	1916713	REC_START	n/a	n/a	5	-999	n/a	PASS	n/a	n/a	11	[0, 0, 0]	-999	PAL1	0	R1109N
1461.949	1.347	1920382	REC_EVENT	3670.0	n/a	5	3	PANTS	PASS	PANTS	NET	11	[0, 0, 0]	-999	PAL1	0	R1109N
1463.296	0.017	1921729	REC_END	n/a	n/a	5	-999	n/a	n/a	n/a	n/a	11	[0, 0, 0]	-999	PAL1	0	R1109N
1463.313	0.275	1921746	TEST_ORIENT	n/a	n/a	4	4	FLAG	STORE	STORE	FLAG	11	[0, 0, 0]	-999	PAL1	0	R1109N
1464.163	4.0	1922596	TEST_PROBE	n/a	wordpools/wordpool_EN.txt	4	4	FLAG	STORE	STORE	FLAG	11	[0, 0, 0]	-999	PAL1	0	R1109N
1464.163	2.343	1922596	REC_START	n/a	n/a	4	-999	n/a	STORE	n/a	n/a	11	[0, 0, 0]	-999	PAL1	0	R1109N
1466.506	2.674	1924939	REC_EVENT	2343.0	n/a	4	4	FLAG	STORE	STORE	FLAG	11	[0, 0, 0]	-999	PAL1	0	R1109N
1469.18	0.017	1927613	REC_END	n/a	n/a	4	-999	n/a	n/a	n/a	n/a	11	[0, 0, 0]	-999	PAL1	0	R1109N
1469.197	0.275	1927630	TEST_ORIENT	n/a	n/a	1	5	MOOSE	DUCK	MOOSE	DUCK	11	[0, 0, 0]	-999	PAL1	0	R1109N
1470.197	4.0	1928630	TEST_PROBE	n/a	wordpools/wordpool_EN.txt	1	5	MOOSE	DUCK	MOOSE	DUCK	11	[0, 0, 0]	-999	PAL1	0	R1109N
1470.198	1.335	1928631	REC_START	n/a	n/a	1	-999	n/a	DUCK	n/a	n/a	11	[0, 0, 0]	-999	PAL1	0	R1109N
1471.533	3.672	1929966	REC_EVENT	1335.0	n/a	1	5	MOOSE	DUCK	MOOSE	DUCK	11	[0, 0, 0]	-999	PAL1	0	R1109N
1475.205	0.01	1933638	REC_END	n/a	n/a	1	-999	n/a	n/a	n/a	n/a	11	[0, 0, 0]	-999	PAL1	0	R1109N
1475.215	0.275	1933648	TEST_ORIENT	n/a	n/a	2	6	SPRING	CLOCK	SPRING	CLOCK	11	[0, 0, 0]	-999	PAL1	0	R1109N
1476.198	4.0	1934631	TEST_PROBE	n/a	wordpools/wordpool_EN.txt	2	6	SPRING	CLOCK	SPRING	CLOCK	11	[0, 0, 0]	-999	PAL1	0	R1109N
1476.199	1.612	1934632	REC_START	n/a	n/a	2	-999	n/a	CLOCK	n/a	n/a	11	[0, 0, 0]	-999	PAL1	0	R1109N
1477.811	0.146	1936244	REC_EVENT	1612.0	n/a	2	6	SPRING	<>	SPRING	CLOCK	11	[0, 0, 0]	-999	PAL1	0	R1109N
1477.957	3.249	1936390	REC_EVENT	1758.0	n/a	2	6	SPRING	CLOCK	SPRING	CLOCK	11	[0, 0, 0]	-999	PAL1	0	R1109N
1481.206	0.026	1939638	REC_END	n/a	n/a	2	-999	n/a	n/a	n/a	n/a	11	[0, 0, 0]	-999	PAL1	0	R1109N
1481.232	12.718	1939664	FEEDBACK_SHOW_ALL_PAIRS	n/a	n/a	2	-999	n/a	n/a	n/a	n/a	11	[0, 0, 0]	-999	PAL1	0	R1109N
1493.95	10.453	1952382	ENCODING_START	n/a	n/a	0	-999	n/a	n/a	n/a	n/a	12	[0, 0, 0]	-999	PAL1	0	R1109N
1504.403	0.275	1962834	STUDY_ORIENT	n/a	n/a	1	1	FACE	SINK	FACE	SINK	12	[0, 0, 0]	-999	PAL1	0	R1109N
1505.253	4.0	1963684	STUDY_PAIR	n/a	wordpools/wordpool_EN.txt	1	1	FACE	SINK	FACE	SINK	12	[0, 0, 0]	-999	PAL1	0	R1109N
1510.287	0.275	1968718	STUDY_ORIENT	n/a	n/a	2	6	BEE	TAIL	TAIL	BEE	12	[0, 0, 0]	-999	PAL1	0	R1109N
1511.238	4.0	1969669	STUDY_PAIR	n/a	wordpools/wordpool_EN.txt	2	6	BEE	TAIL	TAIL	BEE	12	[0, 0, 0]	-999	PAL1	0	R1109N
1516.272	0.275	1974703	STUDY_ORIENT	n/a	n/a	3	3	MUD	CAR	MUD	CAR	12	[0, 0, 0]	-999	PAL1	0	R1109N
1517.255	4.0	1975686	STUDY_PAIR	n/a	wordpools/wordpool_EN.txt	3	3	MUD	CAR	MUD	CAR	12	[0, 0, 0]	-999	PAL1	0	R1109N
1522.273	0.275	1980703	STUDY_ORIENT	n/a	n/a	4	4	CLAY	FILM	FILM	CLAY	12	[0, 0, 0]	-999	PAL1	0	R1109N
1523.206	4.0	1981636	STUDY_PAIR	n/a	wordpools/wordpool_EN.txt	4	4	CLAY	FILM	FILM	CLAY	12	[0, 0, 0]	-999	PAL1	0	R1109N
1528.224	0.275	1986654	STUDY_ORIENT	n/a	n/a	5	5	ELF	PIPE	ELF	PIPE	12	[0, 0, 0]	-999	PAL1	0	R1109N
1529.157	4.0	1987587	STUDY_PAIR	n/a	wordpools/wordpool_EN.txt	5	5	ELF	PIPE	ELF	PIPE	12	[0, 0, 0]	-999	PAL1	0	R1109N
1534.175	0.275	1992605	STUDY_ORIENT	n/a	n/a	6	2	SUIT	FUR	FUR	SUIT	12	[0, 0, 0]	-999	PAL1	0	R1109N
1535.008	4.0	1993438	STUDY_PAIR	n/a	wordpools/wordpool_EN.txt	6	2	SUIT	FUR	FUR	SUIT	12	[0, 0, 0]	-999	PAL1	0	R1109N
1539.009	1.0	1997438	START	n/a	n/a	-999	-999	n/a	n/a	n/a	n/a	12	[-999, -999, -999]	-999	PAL1	0	R1109N
1540.009	0.017	1998438	MATH_START	n/a	n/a	-999	-999	n/a	n/a	n/a	n/a	12	[0, 0, 0]	-999	PAL1	0	R1109N
1540.026	4.702	1998455	PROB	4668.0	n/a	-999	-999	n/a	n/a	n/a	n/a	12	[6, 1, 7]	14	PAL1	0	R1109N
1544.728	9.201	2003157	PROB	9166.0	n/a	-999	-999	n/a	n/a	n/a	n/a	12	[3, 9, 8]	20	PAL1	0	R1109N
1553.929	6.356	2012358	PROB	6356.0	n/a	-999	-999	n/a	n/a	n/a	n/a	12	[5, 8, 8]	2	PAL1	0	R1109N
1560.285	0.011	2018713	STOP	n/a	n/a	-999	-999	n/a	n/a	n/a	n/a	12	[-999, -999, -999]	-999	PAL1	0	R1109N
1560.296	0.0	2018724	TEST_START	n/a	n/a	-999	-999	n/a	n/a	n/a	n/a	12	[0, 0, 0]	-999	PAL1	0	R1109N
1560.296	0.017	2018724	MATH_END	n/a	n/a	-999	-999	n/a	n/a	n/a	n/a	12	[0, 0, 0]	-999	PAL1	0	R1109N
1560.313	0.275	2018741	TEST_ORIENT	n/a	n/a	1	1	FACE	SINK	FACE	SINK	12	[0, 0, 0]	-999	PAL1	0	R1109N
1561.329	4.0	2019757	TEST_PROBE	n/a	wordpools/wordpool_EN.txt	1	1	FACE	SINK	FACE	SINK	12	[0, 0, 0]	-999	PAL1	0	R1109N
1561.33	1.818	2019758	REC_START	n/a	n/a	1	-999	n/a	SINK	n/a	n/a	12	[0, 0, 0]	-999	PAL1	0	R1109N
1563.148	3.189	2021576	REC_EVENT	1818.0	n/a	1	1	FACE	SINK	FACE	SINK	12	[0, 0, 0]	-999	PAL1	0	R1109N
1566.337	0.01	2024765	REC_END	n/a	n/a	1	-999	n/a	n/a	n/a	n/a	12	[0, 0, 0]	-999	PAL1	0	R1109N
1566.347	0.275	2024775	TEST_ORIENT	n/a	n/a	6	2	SUIT	FUR	FUR	SUIT	12	[0, 0, 0]	-999	PAL1	0	R1109N
1567.264	4.0	2025692	TEST_PROBE	n/a	wordpools/wordpool_EN.txt	6	2	SUIT	FUR	FUR	SUIT	12	[0, 0, 0]	-999	PAL1	0	R1109N
1567.264	1.581	2025692	REC_START	n/a	n/a	6	-999	n/a	FUR	n/a	n/a	12	[0, 0, 0]	-999	PAL1	0	R1109N
1568.845	3.436	2027273	REC_EVENT	1581.0	n/a	6	2	SUIT	FUR	FUR	SUIT	12	[0, 0, 0]	-999	PAL1	0	R1109N
1572.281	0.017	2030709	REC_END	n/a	n/a	6	-999	n/a	n/a	n/a	n/a	12	[0, 0, 0]	-999	PAL1	0	R1109N
1572.298	0.275	2030726	TEST_ORIENT	n/a	n/a	3	3	MUD	CAR	MUD	CAR	12	[0, 0, 0]	-999	PAL1	0	R1109N
1573.181	4.0	2031609	TEST_PROBE	n/a	wordpools/wordpool_EN.txt	3	3	MUD	CAR	MUD	CAR	12	[0, 0, 0]	-999	PAL1	0	R1109N
1573.182	1.673	2031610	REC_START	n/a	n/a	3	-999	n/a	CAR	n/a	n/a	12	[0, 0, 0]	-999	PAL1	0	R1109N
1574.855	3.334	2033283	REC_EVENT	1673.0	n/a	3	3	MUD	CAR	MUD	CAR	12	[0, 0, 0]	-999	PAL1	0	R1109N
1578.189	0.01	2036616	REC_END	n/a	n/a	3	-999	n/a	n/a	n/a	n/a	12	[0, 0, 0]	-999	PAL1	0	R1109N
1578.199	0.275	2036626	TEST_ORIENT	n/a	n/a	4	4	CLAY	FILM	FILM	CLAY	12	[0, 0, 0]	-999	PAL1	0	R1109N
1579.049	4.0	2037476	TEST_PROBE	n/a	wordpools/wordpool_EN.txt	4	4	CLAY	FILM	FILM	CLAY	12	[0, 0, 0]	-999	PAL1	0	R1109N
1579.05	2.948	2037477	REC_START	n/a	n/a	4	-999	n/a	FILM	n/a	n/a	12	[0, 0, 0]	-999	PAL1	0	R1109N
1581.998	2.068	2040425	REC_EVENT	2948.0	n/a	4	4	CLAY	FILM	FILM	CLAY	12	[0, 0, 0]	-999	PAL1	0	R1109N
1584.066	0.017	2042493	REC_END	n/a	n/a	4	-999	n/a	n/a	n/a	n/a	12	[0, 0, 0]	-999	PAL1	0	R1109N
1584.083	0.275	2042510	TEST_ORIENT	n/a	n/a	5	5	ELF	PIPE	ELF	PIPE	12	[0, 0, 0]	-999	PAL1	0	R1109N
1585.083	4.0	2043510	TEST_PROBE	n/a	wordpools/wordpool_EN.txt	5	5	ELF	PIPE	ELF	PIPE	12	[0, 0, 0]	-999	PAL1	0	R1109N
1585.084	1.958	2043511	REC_START	n/a	n/a	5	-999	n/a	PIPE	n/a	n/a	12	[0, 0, 0]	-999	PAL1	0	R1109N
1587.042	3.049	2045469	REC_EVENT	1958.0	n/a	5	5	ELF	PIPE	ELF	PIPE	12	[0, 0, 0]	-999	PAL1	0	R1109N
1590.091	0.01	2048518	REC_END	n/a	n/a	5	-999	n/a	n/a	n/a	n/a	12	[0, 0, 0]	-999	PAL1	0	R1109N
1590.101	0.275	2048528	TEST_ORIENT	n/a	n/a	2	6	BEE	TAIL	TAIL	BEE	12	[0, 0, 0]	-999	PAL1	0	R1109N
1590.984	4.0	2049411	TEST_PROBE	n/a	wordpools/wordpool_EN.txt	2	6	BEE	TAIL	TAIL	BEE	12	[0, 0, 0]	-999	PAL1	0	R1109N
1590.985	1.091	2049412	REC_START	n/a	n/a	2	-999	n/a	TAIL	n/a	n/a	12	[0, 0, 0]	-999	PAL1	0	R1109N
1592.076	3.916	2050503	REC_EVENT	1091.0	n/a	2	6	BEE	TAIL	TAIL	BEE	12	[0, 0, 0]	-999	PAL1	0	R1109N
1595.992	0.027	2054419	REC_END	n/a	n/a	2	-999	n/a	n/a	n/a	n/a	12	[0, 0, 0]	-999	PAL1	0	R1109N
1596.019	11.458	2054446	FEEDBACK_SHOW_ALL_PAIRS	n/a	n/a	2	-999	n/a	n/a	n/a	n/a	12	[0, 0, 0]	-999	PAL1	0	R1109N
1607.477	10.446	2065903	ENCODING_START	n/a	n/a	0	-999	n/a	n/a	n/a	n/a	13	[0, 0, 0]	-999	PAL1	0	R1109N
1617.923	0.275	2076348	STUDY_ORIENT	n/a	n/a	1	5	WALL	NEST	NEST	WALL	13	[0, 0, 0]	-999	PAL1	0	R1109N
1618.757	4.0	2077182	STUDY_PAIR	n/a	wordpools/wordpool_EN.txt	1	5	WALL	NEST	NEST	WALL	13	[0, 0, 0]	-999	PAL1	0	R1109N
1623.791	0.275	2082216	STUDY_ORIENT	n/a	n/a	2	2	THREAD	LEG	FOOT	THREAD	13	[0, 0, 0]	-999	PAL1	0	R1109N
1624.808	4.0	2083233	STUDY_PAIR	n/a	wordpools/wordpool_EN.txt	2	2	THREAD	LEG	FOOT	THREAD	13	[0, 0, 0]	-999	PAL1	0	R1109N
1629.842	0.275	2088267	STUDY_ORIENT	n/a	n/a	3	3	PALM	JUICE	JUICE	PALM	13	[0, 0, 0]	-999	PAL1	0	R1109N
1630.809	4.0	2089234	STUDY_PAIR	n/a	wordpools/wordpool_EN.txt	3	3	PALM	JUICE	JUICE	PALM	13	[0, 0, 0]	-999	PAL1	0	R1109N
1635.843	0.275	2094267	STUDY_ORIENT	n/a	n/a	4	4	LEG	PASS	PLANT	LEG	13	[0, 0, 0]	-999	PAL1	0	R1109N
1636.71	4.0	2095134	STUDY_PAIR	n/a	wordpools/wordpool_EN.txt	4	4	LEG	PASS	PLANT	LEG	13	[0, 0, 0]	-999	PAL1	0	R1109N
1641.744	0.275	2100168	STUDY_ORIENT	n/a	n/a	5	1	BLOOM	SPRING	PRINCE	BLOOM	13	[0, 0, 0]	-999	PAL1	0	R1109N
1642.66	4.0	2101084	STUDY_PAIR	n/a	wordpools/wordpool_EN.txt	5	1	BLOOM	SPRING	PRINCE	BLOOM	13	[0, 0, 0]	-999	PAL1	0	R1109N
1647.695	0.275	2106119	STUDY_ORIENT	n/a	n/a	6	6	WORLD	CHIEF	WORLD	CHIEF	13	[0, 0, 0]	-999	PAL1	0	R1109N
1648.695	4.0	2107119	STUDY_PAIR	n/a	wordpools/wordpool_EN.txt	6	6	WORLD	CHIEF	WORLD	CHIEF	13	[0, 0, 0]	-999	PAL1	0	R1109N
1652.713	0.999	2111137	START	n/a	n/a	-999	-999	n/a	n/a	n/a	n/a	13	[-999, -999, -999]	-999	PAL1	0	R1109N
1653.712	0.017	2112136	MATH_START	n/a	n/a	-999	-999	n/a	n/a	n/a	n/a	13	[0, 0, 0]	-999	PAL1	0	R1109N
1653.729	13.735	2112153	PROB	13708.0	n/a	-999	-999	n/a	n/a	n/a	n/a	13	[4, 7, 5]	16	PAL1	0	R1109N
1667.464	6.845	2125887	PROB	6845.0	n/a	-999	-999	n/a	n/a	n/a	n/a	13	[1, 7, 3]	11	PAL1	0	R1109N
1674.309	0.006	2132732	STOP	n/a	n/a	-999	-999	n/a	n/a	n/a	n/a	13	[-999, -999, -999]	-999	PAL1	0	R1109N
1674.315	0.0	2132738	MATH_END	n/a	n/a	-999	-999	n/a	n/a	n/a	n/a	13	[0, 0, 0]	-999	PAL1	0	R1109N
1674.315	0.017	2132738	TEST_START	n/a	n/a	-999	-999	n/a	n/a	n/a	n/a	13	[0, 0, 0]	-999	PAL1	0	R1109N
1674.332	0.275	2132755	TEST_ORIENT	n/a	n/a	5	1	BLOOM	SPRING	PRINCE	BLOOM	13	[0, 0, 0]	-999	PAL1	0	R1109N
1675.265	4.0	2133687	TEST_PROBE	n/a	wordpools/wordpool_EN.txt	5	1	BLOOM	SPRING	PRINCE	BLOOM	13	[0, 0, 0]	-999	PAL1	0	R1109N
1675.266	2.022	2133688	REC_START	n/a	n/a	5	-999	n/a	SPRING	n/a	n/a	13	[0, 0, 0]	-999	PAL1	0	R1109N
1677.288	2.987	2135710	REC_EVENT	2022.0	n/a	5	1	BLOOM	SPRING	PRINCE	BLOOM	13	[0, 0, 0]	-999	PAL1	0	R1109N
1680.275	0.008	2138697	REC_END	n/a	n/a	5	-999	n/a	n/a	n/a	n/a	13	[0, 0, 0]	-999	PAL1	0	R1109N
1680.283	0.275	2138705	TEST_ORIENT	n/a	n/a	2	2	THREAD	LEG	FOOT	THREAD	13	[0, 0, 0]	-999	PAL1	0	R1109N
1681.133	4.0	2139555	TEST_PROBE	n/a	wordpools/wordpool_EN.txt	2	2	THREAD	LEG	FOOT	THREAD	13	[0, 0, 0]	-999	PAL1	0	R1109N
1681.133	4.411	2139555	REC_START	n/a	n/a	2	-999	n/a	LEG	n/a	n/a	13	[0, 0, 0]	-999	PAL1	0	R1109N
1685.544	0.615	2143966	REC_EVENT	4411.0	n/a	2	2	THREAD	LEG	FOOT	THREAD	13	[0, 0, 0]	-999	PAL1	0	R1109N
1686.159	0.008	2144581	REC_END	n/a	n/a	2	-999	n/a	n/a	n/a	n/a	13	[0, 0, 0]	-999	PAL1	0	R1109N
1686.167	0.275	2144589	TEST_ORIENT	n/a	n/a	3	3	PALM	JUICE	JUICE	PALM	13	[0, 0, 0]	-999	PAL1	0	R1109N
1687.084	4.0	2145506	TEST_PROBE	n/a	wordpools/wordpool_EN.txt	3	3	PALM	JUICE	JUICE	PALM	13	[0, 0, 0]	-999	PAL1	0	R1109N
1687.084	1.551	2145506	REC_START	n/a	n/a	3	-999	n/a	JUICE	n/a	n/a	13	[0, 0, 0]	-999	PAL1	0	R1109N
1688.635	3.466	2147057	REC_EVENT	1551.0	n/a	3	3	PALM	JUICE	JUICE	PALM	13	[0, 0, 0]	-999	PAL1	0	R1109N
1692.101	0.017	2150523	REC_END	n/a	n/a	3	-999	n/a	n/a	n/a	n/a	13	[0, 0, 0]	-999	PAL1	0	R1109N
1692.118	0.275	2150540	TEST_ORIENT	n/a	n/a	4	4	LEG	PASS	PLANT	LEG	13	[0, 0, 0]	-999	PAL1	0	R1109N
1692.919	4.0	2151341	TEST_PROBE	n/a	wordpools/wordpool_EN.txt	4	4	LEG	PASS	PLANT	LEG	13	[0, 0, 0]	-999	PAL1	0	R1109N
1692.92	3.124	2151342	REC_START	n/a	n/a	4	-999	n/a	PASS	n/a	n/a	13	[0, 0, 0]	-999	PAL1	0	R1109N
1696.044	1.885	2154465	REC_EVENT	3124.0	n/a	4	4	LEG	PASS	PLANT	LEG	13	[0, 0, 0]	-999	PAL1	0	R1109N
1697.929	0.008	2156350	REC_END	n/a	n/a	4	-999	n/a	n/a	n/a	n/a	13	[0, 0, 0]	-999	PAL1	0	R1109N
1697.937	0.275	2156358	TEST_ORIENT	n/a	n/a	1	5	WALL	NEST	NEST	WALL	13	[0, 0, 0]	-999	PAL1	0	R1109N
1698.754	4.0	2157175	TEST_PROBE	n/a	wordpools/wordpool_EN.txt	1	5	WALL	NEST	NEST	WALL	13	[0, 0, 0]	-999	PAL1	0	R1109N
1698.754	1.522	2157175	REC_START	n/a	n/a	1	-999	n/a	NEST	n/a	n/a	13	[0, 0, 0]	-999	PAL1	0	R1109N
1700.276	3.495	2158697	REC_EVENT	1522.0	n/a	1	5	WALL	NEST	NEST	WALL	13	[0, 0, 0]	-999	PAL1	0	R1109N
1703.771	0.017	2162192	REC_END	n/a	n/a	1	-999	n/a	n/a	n/a	n/a	13	[0, 0, 0]	-999	PAL1	0	R1109N
1703.788	0.275	2162209	TEST_ORIENT	n/a	n/a	6	6	WORLD	CHIEF	WORLD	CHIEF	13	[0, 0, 0]	-999	PAL1	0	R1109N
1704.587	0.0	2163008	REC_START	n/a	n/a	6	-999	n/a	CHIEF	n/a	n/a	13	[0, 0, 0]	-999	PAL1	0	R1109N
1704.587	4.0	2163008	TEST_PROBE	n/a	wordpools/wordpool_EN.txt	6	6	WORLD	CHIEF	WORLD	CHIEF	13	[0, 0, 0]	-999	PAL1	0	R1109N
1706.477	3.136	2164898	REC_EVENT	1890.0	n/a	6	6	WORLD	CHIEF	WORLD	CHIEF	13	[0, 0, 0]	-999	PAL1	0	R1109N
1709.613	0.025	2168034	REC_END	n/a	n/a	6	-999	n/a	n/a	n/a	n/a	13	[0, 0, 0]	-999	PAL1	0	R1109N
1709.638	11.687	2168059	FEEDBACK_SHOW_ALL_PAIRS	n/a	n/a	6	-999	n/a	n/a	n/a	n/a	13	[0, 0, 0]	-999	PAL1	0	R1109N
1721.325	10.451	2179745	ENCODING_START	n/a	n/a	0	-999	n/a	n/a	n/a	n/a	14	[0, 0, 0]	-999	PAL1	0	R1109N
1731.776	0.275	2190196	STUDY_ORIENT	n/a	n/a	1	3	TRAY	FENCE	TRAY	FENCE	14	[0, 0, 0]	-999	PAL1	0	R1109N
1732.709	4.0	2191129	STUDY_PAIR	n/a	wordpools/wordpool_EN.txt	1	3	TRAY	FENCE	TRAY	FENCE	14	[0, 0, 0]	-999	PAL1	0	R1109N
1737.727	0.275	2196146	STUDY_ORIENT	n/a	n/a	2	2	NAIL	PASS	YARD	NAIL	14	[0, 0, 0]	-999	PAL1	0	R1109N
1738.609	4.0	2197028	STUDY_PAIR	n/a	wordpools/wordpool_EN.txt	2	2	NAIL	PASS	YARD	NAIL	14	[0, 0, 0]	-999	PAL1	0	R1109N
1743.627	0.275	2202046	STUDY_ORIENT	n/a	n/a	3	1	GOLD	PASS	GOLD	MOUSE	14	[0, 0, 0]	-999	PAL1	0	R1109N
1744.394	4.0	2202813	STUDY_PAIR	n/a	wordpools/wordpool_EN.txt	3	1	GOLD	PASS	GOLD	MOUSE	14	[0, 0, 0]	-999	PAL1	0	R1109N
1749.428	0.275	2207847	STUDY_ORIENT	n/a	n/a	4	4	STEM	POND	POND	STEM	14	[0, 0, 0]	-999	PAL1	0	R1109N
1750.411	4.0	2208830	STUDY_PAIR	n/a	wordpools/wordpool_EN.txt	4	4	STEM	POND	POND	STEM	14	[0, 0, 0]	-999	PAL1	0	R1109N
1755.429	0.275	2213847	STUDY_ORIENT	n/a	n/a	5	5	WORM	CORD	CORD	WORM	14	[0, 0, 0]	-999	PAL1	0	R1109N
1756.362	4.0	2214780	STUDY_PAIR	n/a	wordpools/wordpool_EN.txt	5	5	WORM	CORD	CORD	WORM	14	[0, 0, 0]	-999	PAL1	0	R1109N
1761.38	0.275	2219798	STUDY_ORIENT	n/a	n/a	6	6	JUDGE	AXE	AXE	JUDGE	14	[0, 0, 0]	-999	PAL1	0	R1109N
1762.363	4.0	2220781	STUDY_PAIR	n/a	wordpools/wordpool_EN.txt	6	6	JUDGE	AXE	AXE	JUDGE	14	[0, 0, 0]	-999	PAL1	0	R1109N
1766.364	1.0	2224782	START	n/a	n/a	-999	-999	n/a	n/a	n/a	n/a	14	[-999, -999, -999]	-999	PAL1	0	R1109N
1767.364	0.017	2225782	MATH_START	n/a	n/a	-999	-999	n/a	n/a	n/a	n/a	14	[0, 0, 0]	-999	PAL1	0	R1109N
1767.381	17.287	2225799	PROB	17256.0	n/a	-999	-999	n/a	n/a	n/a	n/a	14	[3, 2, 7]	12	PAL1	0	R1109N
1784.668	13.465	2243085	PROB	13465.0	n/a	-999	-999	n/a	n/a	n/a	n/a	14	[9, 8, 4]	21	PAL1	0	R1109N
1798.133	0.003	2256549	STOP	n/a	n/a	-999	-999	n/a	n/a	n/a	n/a	14	[-999, -999, -999]	-999	PAL1	0	R1109N
1798.136	0.0	2256552	TEST_START	n/a	n/a	-999	-999	n/a	n/a	n/a	n/a	14	[0, 0, 0]	-999	PAL1	0	R1109N
1798.136	0.017	2256552	MATH_END	n/a	n/a	-999	-999	n/a	n/a	n/a	n/a	14	[0, 0, 0]	-999	PAL1	0	R1109N
1798.153	0.275	2256569	TEST_ORIENT	n/a	n/a	3	1	GOLD	PASS	GOLD	MOUSE	14	[0, 0, 0]	-999	PAL1	0	R1109N
1799.036	4.0	2257452	TEST_PROBE	n/a	wordpools/wordpool_EN.txt	3	1	GOLD	PASS	GOLD	MOUSE	14	[0, 0, 0]	-999	PAL1	0	R1109N
1799.037	2.872	2257453	REC_START	n/a	n/a	3	-999	n/a	PASS	n/a	n/a	14	[0, 0, 0]	-999	PAL1	0	R1109N
1801.909	2.137	2260325	REC_EVENT	2872.0	n/a	3	1	GOLD	PASS	GOLD	MOUSE	14	[0, 0, 0]	-999	PAL1	0	R1109N
1804.046	0.008	2262462	REC_END	n/a	n/a	3	-999	n/a	n/a	n/a	n/a	14	[0, 0, 0]	-999	PAL1	0	R1109N
1804.054	0.275	2262470	TEST_ORIENT	n/a	n/a	2	2	NAIL	PASS	YARD	NAIL	14	[0, 0, 0]	-999	PAL1	0	R1109N
1805.004	4.0	2263420	TEST_PROBE	n/a	wordpools/wordpool_EN.txt	2	2	NAIL	PASS	YARD	NAIL	14	[0, 0, 0]	-999	PAL1	0	R1109N
1805.004	2.826	2263420	REC_START	n/a	n/a	2	-999	n/a	PASS	n/a	n/a	14	[0, 0, 0]	-999	PAL1	0	R1109N
1807.83	2.2	2266246	REC_EVENT	2826.0	n/a	2	2	NAIL	PASS	YARD	NAIL	14	[0, 0, 0]	-999	PAL1	0	R1109N
1810.03	0.008	2268446	REC_END	n/a	n/a	2	-999	n/a	n/a	n/a	n/a	14	[0, 0, 0]	-999	PAL1	0	R1109N
1810.038	0.275	2268454	TEST_ORIENT	n/a	n/a	1	3	TRAY	FENCE	TRAY	FENCE	14	[0, 0, 0]	-999	PAL1	0	R1109N
1810.956	4.0	2269371	TEST_PROBE	n/a	wordpools/wordpool_EN.txt	1	3	TRAY	FENCE	TRAY	FENCE	14	[0, 0, 0]	-999	PAL1	0	R1109N
1810.956	1.694	2269371	REC_START	n/a	n/a	1	-999	n/a	FENCE	n/a	n/a	14	[0, 0, 0]	-999	PAL1	0	R1109N
1812.65	3.322	2271065	REC_EVENT	1694.0	n/a	1	3	TRAY	FENCE	TRAY	FENCE	14	[0, 0, 0]	-999	PAL1	0	R1109N
1815.972	0.017	2274387	REC_END	n/a	n/a	1	-999	n/a	n/a	n/a	n/a	14	[0, 0, 0]	-999	PAL1	0	R1109N
1815.989	0.275	2274404	TEST_ORIENT	n/a	n/a	4	4	STEM	POND	POND	STEM	14	[0, 0, 0]	-999	PAL1	0	R1109N
1816.94	4.0	2275355	TEST_PROBE	n/a	wordpools/wordpool_EN.txt	4	4	STEM	POND	POND	STEM	14	[0, 0, 0]	-999	PAL1	0	R1109N
1816.941	1.458	2275356	REC_START	n/a	n/a	4	-999	n/a	POND	n/a	n/a	14	[0, 0, 0]	-999	PAL1	0	R1109N
1818.399	3.551	2276814	REC_EVENT	1458.0	n/a	4	4	STEM	POND	POND	STEM	14	[0, 0, 0]	-999	PAL1	0	R1109N
1821.95	0.007	2280365	REC_END	n/a	n/a	4	-999	n/a	n/a	n/a	n/a	14	[0, 0, 0]	-999	PAL1	0	R1109N
1821.957	0.275	2280372	TEST_ORIENT	n/a	n/a	5	5	WORM	CORD	CORD	WORM	14	[0, 0, 0]	-999	PAL1	0	R1109N
1822.908	4.0	2281323	TEST_PROBE	n/a	wordpools/wordpool_EN.txt	5	5	WORM	CORD	CORD	WORM	14	[0, 0, 0]	-999	PAL1	0	R1109N
1822.909	2.676	2281324	REC_START	n/a	n/a	5	-999	n/a	CORD	n/a	n/a	14	[0, 0, 0]	-999	PAL1	0	R1109N
1825.585	2.34	2284000	REC_EVENT	2676.0	n/a	5	5	WORM	CORD	CORD	WORM	14	[0, 0, 0]	-999	PAL1	0	R1109N
1827.925	0.017	2286340	REC_END	n/a	n/a	5	-999	n/a	n/a	n/a	n/a	14	[0, 0, 0]	-999	PAL1	0	R1109N
1827.942	0.275	2286357	TEST_ORIENT	n/a	n/a	6	6	JUDGE	AXE	AXE	JUDGE	14	[0, 0, 0]	-999	PAL1	0	R1109N
1828.975	4.0	2287390	TEST_PROBE	n/a	wordpools/wordpool_EN.txt	6	6	JUDGE	AXE	AXE	JUDGE	14	[0, 0, 0]	-999	PAL1	0	R1109N
1828.976	1.061	2287391	REC_START	n/a	n/a	6	-999	n/a	AXE	n/a	n/a	14	[0, 0, 0]	-999	PAL1	0	R1109N
1830.037	3.964	2288451	REC_EVENT	1061.0	n/a	6	6	JUDGE	AXE	AXE	JUDGE	14	[0, 0, 0]	-999	PAL1	0	R1109N
1834.001	0.024	2292415	REC_END	n/a	n/a	6	-999	n/a	n/a	n/a	n/a	14	[0, 0, 0]	-999	PAL1	0	R1109N
1834.025	9.964	2292439	FEEDBACK_SHOW_ALL_PAIRS	n/a	n/a	6	-999	n/a	n/a	n/a	n/a	14	[0, 0, 0]	-999	PAL1	0	R1109N
1843.989	10.44	2302403	ENCODING_START	n/a	n/a	0	-999	n/a	n/a	n/a	n/a	15	[0, 0, 0]	-999	PAL1	0	R1109N
1854.429	0.275	2312842	STUDY_ORIENT	n/a	n/a	1	3	GRASS	SHELL	SHELL	GRASS	15	[0, 0, 0]	-999	PAL1	0	R1109N
1855.246	4.0	2313659	STUDY_PAIR	n/a	wordpools/wordpool_EN.txt	1	3	GRASS	SHELL	SHELL	GRASS	15	[0, 0, 0]	-999	PAL1	0	R1109N
1860.28	0.275	2318693	STUDY_ORIENT	n/a	n/a	2	6	TANK	n/a	BOMB	TANK	15	[0, 0, 0]	-999	PAL1	0	R1109N
1861.063	4.0	2319476	STUDY_PAIR	n/a	wordpools/wordpool_EN.txt	2	6	TANK	n/a	BOMB	TANK	15	[0, 0, 0]	-999	PAL1	0	R1109N
1866.081	0.275	2324494	STUDY_ORIENT	n/a	n/a	3	5	SHRIMP	SHEET	SHRIMP	SHEET	15	[0, 0, 0]	-999	PAL1	0	R1109N
1866.932	4.0	2325345	STUDY_PAIR	n/a	wordpools/wordpool_EN.txt	3	5	SHRIMP	SHEET	SHRIMP	SHEET	15	[0, 0, 0]	-999	PAL1	0	R1109N
1871.965	0.275	2330377	STUDY_ORIENT	n/a	n/a	4	2	BRUSH	PASS	BEACH	BRUSH	15	[0, 0, 0]	-999	PAL1	0	R1109N
1872.783	4.0	2331195	STUDY_PAIR	n/a	wordpools/wordpool_EN.txt	4	2	BRUSH	PASS	BEACH	BRUSH	15	[0, 0, 0]	-999	PAL1	0	R1109N
1877.817	0.275	2336229	STUDY_ORIENT	n/a	n/a	5	1	SLIME	PASS	MOUTH	SLIME	15	[0, 0, 0]	-999	PAL1	0	R1109N
1878.667	4.0	2337079	STUDY_PAIR	n/a	wordpools/wordpool_EN.txt	5	1	SLIME	PASS	MOUTH	SLIME	15	[0, 0, 0]	-999	PAL1	0	R1109N
1883.685	0.275	2342097	STUDY_ORIENT	n/a	n/a	6	4	SOUP	FISH	SOUP	FISH	15	[0, 0, 0]	-999	PAL1	0	R1109N
1884.601	4.0	2343013	STUDY_PAIR	n/a	wordpools/wordpool_EN.txt	6	4	SOUP	FISH	SOUP	FISH	15	[0, 0, 0]	-999	PAL1	0	R1109N
1888.618	1.0	2347029	START	n/a	n/a	-999	-999	n/a	n/a	n/a	n/a	15	[-999, -999, -999]	-999	PAL1	0	R1109N
1889.618	0.017	2348029	MATH_START	n/a	n/a	-999	-999	n/a	n/a	n/a	n/a	15	[0, 0, 0]	-999	PAL1	0	R1109N
1889.635	6.018	2348046	PROB	5986.0	n/a	-999	-999	n/a	n/a	n/a	n/a	15	[2, 7, 7]	16	PAL1	0	R1109N
1895.653	8.884	2354064	PROB	8864.0	n/a	-999	-999	n/a	n/a	n/a	n/a	15	[7, 7, 8]	22	PAL1	0	R1109N
1904.537	33.572	2362948	PROB	33572.0	n/a	-999	-999	n/a	n/a	n/a	n/a	15	[6, 5, 8]	21	PAL1	0	R1109N
1938.109	0.017	2396518	STOP	n/a	n/a	-999	-999	n/a	n/a	n/a	n/a	15	[-999, -999, -999]	-999	PAL1	0	R1109N
1938.126	0.0	2396535	MATH_END	n/a	n/a	-999	-999	n/a	n/a	n/a	n/a	15	[0, 0, 0]	-999	PAL1	0	R1109N
1938.126	0.017	2396535	TEST_START	n/a	n/a	-999	-999	n/a	n/a	n/a	n/a	15	[0, 0, 0]	-999	PAL1	0	R1109N
1938.143	0.275	2396552	TEST_ORIENT	n/a	n/a	5	1	SLIME	PASS	MOUTH	SLIME	15	[0, 0, 0]	-999	PAL1	0	R1109N
1939.143	4.0	2397552	TEST_PROBE	n/a	wordpools/wordpool_EN.txt	5	1	SLIME	PASS	MOUTH	SLIME	15	[0, 0, 0]	-999	PAL1	0	R1109N
1939.144	3.362	2397553	REC_START	n/a	n/a	5	-999	n/a	PASS	n/a	n/a	15	[0, 0, 0]	-999	PAL1	0	R1109N
1942.506	1.664	2400915	REC_EVENT	3362.0	n/a	5	1	SLIME	PASS	MOUTH	SLIME	15	[0, 0, 0]	-999	PAL1	0	R1109N
1944.17	0.007	2402579	REC_END	n/a	n/a	5	-999	n/a	n/a	n/a	n/a	15	[0, 0, 0]	-999	PAL1	0	R1109N
1944.177	0.275	2402586	TEST_ORIENT	n/a	n/a	4	2	BRUSH	PASS	BEACH	BRUSH	15	[0, 0, 0]	-999	PAL1	0	R1109N
1945.111	0.0	2403520	REC_START	n/a	n/a	4	-999	n/a	PASS	n/a	n/a	15	[0, 0, 0]	-999	PAL1	0	R1109N
1945.111	4.0	2403520	TEST_PROBE	n/a	wordpools/wordpool_EN.txt	4	2	BRUSH	PASS	BEACH	BRUSH	15	[0, 0, 0]	-999	PAL1	0	R1109N
1948.559	1.569	2406967	REC_EVENT	3448.0	n/a	4	2	BRUSH	PASS	BEACH	BRUSH	15	[0, 0, 0]	-999	PAL1	0	R1109N
1950.128	0.017	2408536	REC_END	n/a	n/a	4	-999	n/a	n/a	n/a	n/a	15	[0, 0, 0]	-999	PAL1	0	R1109N
1950.145	0.275	2408553	TEST_ORIENT	n/a	n/a	1	3	GRASS	SHELL	SHELL	GRASS	15	[0, 0, 0]	-999	PAL1	0	R1109N
1951.095	4.0	2409503	TEST_PROBE	n/a	wordpools/wordpool_EN.txt	1	3	GRASS	SHELL	SHELL	GRASS	15	[0, 0, 0]	-999	PAL1	0	R1109N
1951.096	1.686	2409504	REC_START	n/a	n/a	1	-999	n/a	SHELL	n/a	n/a	15	[0, 0, 0]	-999	PAL1	0	R1109N
1952.782	3.323	2411190	REC_EVENT	1686.0	n/a	1	3	GRASS	SHELL	SHELL	GRASS	15	[0, 0, 0]	-999	PAL1	0	R1109N
1956.105	0.008	2414513	REC_END	n/a	n/a	1	-999	n/a	n/a	n/a	n/a	15	[0, 0, 0]	-999	PAL1	0	R1109N
1956.113	0.275	2414521	TEST_ORIENT	n/a	n/a	6	4	SOUP	FISH	SOUP	FISH	15	[0, 0, 0]	-999	PAL1	0	R1109N
1957.13	0.0	2415538	REC_START	n/a	n/a	6	-999	n/a	FISH	n/a	n/a	15	[0, 0, 0]	-999	PAL1	0	R1109N
1957.13	4.0	2415538	TEST_PROBE	n/a	wordpools/wordpool_EN.txt	6	4	SOUP	FISH	SOUP	FISH	15	[0, 0, 0]	-999	PAL1	0	R1109N
1958.33	3.826	2416738	REC_EVENT	1200.0	n/a	6	4	SOUP	FISH	SOUP	FISH	15	[0, 0, 0]	-999	PAL1	0	R1109N
1962.156	0.008	2420564	REC_END	n/a	n/a	6	-999	n/a	n/a	n/a	n/a	15	[0, 0, 0]	-999	PAL1	0	R1109N
1962.164	0.275	2420572	TEST_ORIENT	n/a	n/a	3	5	SHRIMP	SHEET	SHRIMP	SHEET	15	[0, 0, 0]	-999	PAL1	0	R1109N
1962.981	4.0	2421389	TEST_PROBE	n/a	wordpools/wordpool_EN.txt	3	5	SHRIMP	SHEET	SHRIMP	SHEET	15	[0, 0, 0]	-999	PAL1	0	R1109N
1962.981	3.617	2421389	REC_START	n/a	n/a	3	-999	n/a	SHEET	n/a	n/a	15	[0, 0, 0]	-999	PAL1	0	R1109N
1966.598	1.405	2425005	REC_EVENT	3617.0	n/a	3	5	SHRIMP	SHEET	SHRIMP	SHEET	15	[0, 0, 0]	-999	PAL1	0	R1109N
1968.003	0.012	2426410	REC_END	n/a	n/a	3	-999	n/a	n/a	n/a	n/a	15	[0, 0, 0]	-999	PAL1	0	R1109N
1968.015	0.275	2426422	TEST_ORIENT	n/a	n/a	2	6	TANK	n/a	BOMB	TANK	15	[0, 0, 0]	-999	PAL1	0	R1109N
1968.916	4.0	2427323	TEST_PROBE	n/a	wordpools/wordpool_EN.txt	2	6	TANK	n/a	BOMB	TANK	15	[0, 0, 0]	-999	PAL1	0	R1109N
1968.916	5.015	2427323	REC_START	n/a	n/a	2	-999	n/a	n/a	n/a	n/a	15	[0, 0, 0]	-999	PAL1	0	R1109N
1973.931	0.002	2432338	REC_EVENT	5015.0	n/a	2	6	TANK	<>	BOMB	TANK	15	[0, 0, 0]	-999	PAL1	0	R1109N
1973.933	0.033	2432340	REC_END	n/a	n/a	2	-999	n/a	n/a	n/a	n/a	15	[0, 0, 0]	-999	PAL1	0	R1109N
1973.966	10.215	2432373	FEEDBACK_SHOW_ALL_PAIRS	n/a	n/a	2	-999	n/a	n/a	n/a	n/a	15	[0, 0, 0]	-999	PAL1	0	R1109N
1984.181	10.438	2442588	ENCODING_START	n/a	n/a	0	-999	n/a	n/a	n/a	n/a	16	[0, 0, 0]	-999	PAL1	0	R1109N
1994.619	0.275	2453025	STUDY_ORIENT	n/a	n/a	1	5	SWAMP	MOTH	SWAMP	HAT	16	[0, 0, 0]	-999	PAL1	0	R1109N
1995.569	4.0	2453975	STUDY_PAIR	n/a	wordpools/wordpool_EN.txt	1	5	SWAMP	MOTH	SWAMP	HAT	16	[0, 0, 0]	-999	PAL1	0	R1109N
2000.587	0.275	2458993	STUDY_ORIENT	n/a	n/a	2	4	BAND	JET	BAND	JET	16	[0, 0, 0]	-999	PAL1	0	R1109N
2001.404	4.0	2459810	STUDY_PAIR	n/a	wordpools/wordpool_EN.txt	2	4	BAND	JET	BAND	JET	16	[0, 0, 0]	-999	PAL1	0	R1109N
2006.438	0.275	2464843	STUDY_ORIENT	n/a	n/a	3	1	MUG	SQUARE	SQUARE	MUG	16	[0, 0, 0]	-999	PAL1	0	R1109N
2007.438	4.0	2465843	STUDY_PAIR	n/a	wordpools/wordpool_EN.txt	3	1	MUG	SQUARE	SQUARE	MUG	16	[0, 0, 0]	-999	PAL1	0	R1109N
2012.472	0.275	2470877	STUDY_ORIENT	n/a	n/a	4	6	CHALK	PASS	CHALK	SEED	16	[0, 0, 0]	-999	PAL1	0	R1109N
2013.239	4.0	2471644	STUDY_PAIR	n/a	wordpools/wordpool_EN.txt	4	6	CHALK	PASS	CHALK	SEED	16	[0, 0, 0]	-999	PAL1	0	R1109N
2018.273	0.275	2476678	STUDY_ORIENT	n/a	n/a	5	3	CALF	FRUIT	FRUIT	CALF	16	[0, 0, 0]	-999	PAL1	0	R1109N
2019.157	4.0	2477562	STUDY_PAIR	n/a	wordpools/wordpool_EN.txt	5	3	CALF	FRUIT	FRUIT	CALF	16	[0, 0, 0]	-999	PAL1	0	R1109N
2024.191	0.275	2482595	STUDY_ORIENT	n/a	n/a	6	2	MOTH	THUMB	THUMB	MOTH	16	[0, 0, 0]	-999	PAL1	0	R1109N
2025.141	4.0	2483545	STUDY_PAIR	n/a	wordpools/wordpool_EN.txt	6	2	MOTH	THUMB	THUMB	MOTH	16	[0, 0, 0]	-999	PAL1	0	R1109N
2029.159	0.999	2487563	START	n/a	n/a	-999	-999	n/a	n/a	n/a	n/a	16	[-999, -999, -999]	-999	PAL1	0	R1109N
2030.158	0.017	2488562	MATH_START	n/a	n/a	-999	-999	n/a	n/a	n/a	n/a	16	[0, 0, 0]	-999	PAL1	0	R1109N
2030.175	6.118	2488579	PROB	6094.0	n/a	-999	-999	n/a	n/a	n/a	n/a	16	[4, 9, 9]	22	PAL1	0	R1109N
2036.293	6.801	2494697	PROB	6776.0	n/a	-999	-999	n/a	n/a	n/a	n/a	16	[5, 5, 8]	18	PAL1	0	R1109N
2043.094	15.063	2501497	PROB	15063.0	n/a	-999	-999	n/a	n/a	n/a	n/a	16	[4, 9, 7]	20	PAL1	0	R1109N
2058.157	0.006	2516560	STOP	n/a	n/a	-999	-999	n/a	n/a	n/a	n/a	16	[-999, -999, -999]	-999	PAL1	0	R1109N
2058.163	0.0	2516566	MATH_END	n/a	n/a	-999	-999	n/a	n/a	n/a	n/a	16	[0, 0, 0]	-999	PAL1	0	R1109N
2058.163	0.017	2516566	TEST_START	n/a	n/a	-999	-999	n/a	n/a	n/a	n/a	16	[0, 0, 0]	-999	PAL1	0	R1109N
2058.18	0.275	2516583	TEST_ORIENT	n/a	n/a	3	1	MUG	SQUARE	SQUARE	MUG	16	[0, 0, 0]	-999	PAL1	0	R1109N
2059.114	4.0	2517517	TEST_PROBE	n/a	wordpools/wordpool_EN.txt	3	1	MUG	SQUARE	SQUARE	MUG	16	[0, 0, 0]	-999	PAL1	0	R1109N
2059.114	1.085	2517517	REC_START	n/a	n/a	3	-999	n/a	SQUARE	n/a	n/a	16	[0, 0, 0]	-999	PAL1	0	R1109N
2060.199	3.932	2518602	REC_EVENT	1085.0	n/a	3	1	MUG	SQUARE	SQUARE	MUG	16	[0, 0, 0]	-999	PAL1	0	R1109N
2064.131	0.017	2522533	REC_END	n/a	n/a	3	-999	n/a	n/a	n/a	n/a	16	[0, 0, 0]	-999	PAL1	0	R1109N
2064.148	0.275	2522550	TEST_ORIENT	n/a	n/a	6	2	MOTH	THUMB	THUMB	MOTH	16	[0, 0, 0]	-999	PAL1	0	R1109N
2065.131	4.0	2523533	TEST_PROBE	n/a	wordpools/wordpool_EN.txt	6	2	MOTH	THUMB	THUMB	MOTH	16	[0, 0, 0]	-999	PAL1	0	R1109N
2065.132	1.525	2523534	REC_START	n/a	n/a	6	-999	n/a	THUMB	n/a	n/a	16	[0, 0, 0]	-999	PAL1	0	R1109N
2066.657	3.484	2525059	REC_EVENT	1525.0	n/a	6	2	MOTH	THUMB	THUMB	MOTH	16	[0, 0, 0]	-999	PAL1	0	R1109N
2070.141	0.008	2528543	REC_END	n/a	n/a	6	-999	n/a	n/a	n/a	n/a	16	[0, 0, 0]	-999	PAL1	0	R1109N
2070.149	0.275	2528551	TEST_ORIENT	n/a	n/a	5	3	CALF	FRUIT	FRUIT	CALF	16	[0, 0, 0]	-999	PAL1	0	R1109N
2070.95	4.0	2529352	TEST_PROBE	n/a	wordpools/wordpool_EN.txt	5	3	CALF	FRUIT	FRUIT	CALF	16	[0, 0, 0]	-999	PAL1	0	R1109N
2070.95	2.023	2529352	REC_START	n/a	n/a	5	-999	n/a	FRUIT	n/a	n/a	16	[0, 0, 0]	-999	PAL1	0	R1109N
2072.973	2.993	2531375	REC_EVENT	2023.0	n/a	5	3	CALF	FRUIT	FRUIT	CALF	16	[0, 0, 0]	-999	PAL1	0	R1109N
2075.966	0.017	2534368	REC_END	n/a	n/a	5	-999	n/a	n/a	n/a	n/a	16	[0, 0, 0]	-999	PAL1	0	R1109N
2075.983	0.275	2534385	TEST_ORIENT	n/a	n/a	2	4	BAND	JET	BAND	JET	16	[0, 0, 0]	-999	PAL1	0	R1109N
2076.983	4.0	2535385	TEST_PROBE	n/a	wordpools/wordpool_EN.txt	2	4	BAND	JET	BAND	JET	16	[0, 0, 0]	-999	PAL1	0	R1109N
2076.984	1.015	2535386	REC_START	n/a	n/a	2	-999	n/a	JET	n/a	n/a	16	[0, 0, 0]	-999	PAL1	0	R1109N
2077.999	3.994	2536401	REC_EVENT	1015.0	n/a	2	4	BAND	JET	BAND	JET	16	[0, 0, 0]	-999	PAL1	0	R1109N
2081.993	0.008	2540394	REC_END	n/a	n/a	2	-999	n/a	n/a	n/a	n/a	16	[0, 0, 0]	-999	PAL1	0	R1109N
2082.001	0.275	2540402	TEST_ORIENT	n/a	n/a	1	5	SWAMP	MOTH	SWAMP	HAT	16	[0, 0, 0]	-999	PAL1	0	R1109N
2082.902	4.0	2541303	TEST_PROBE	n/a	wordpools/wordpool_EN.txt	1	5	SWAMP	MOTH	SWAMP	HAT	16	[0, 0, 0]	-999	PAL1	0	R1109N
2082.902	2.185	2541303	REC_START	n/a	n/a	1	-999	n/a	MOTH	n/a	n/a	16	[0, 0, 0]	-999	PAL1	0	R1109N
2085.087	1.347	2543488	REC_EVENT	2185.0	n/a	1	5	SWAMP	<>	SWAMP	HAT	16	[0, 0, 0]	-999	PAL1	0	R1109N
2086.434	1.485	2544835	REC_EVENT	3532.0	n/a	1	5	SWAMP	MOTH	SWAMP	HAT	16	[0, 0, 0]	-999	PAL1	0	R1109N
2087.919	0.017	2546320	REC_END	n/a	n/a	1	-999	n/a	n/a	n/a	n/a	16	[0, 0, 0]	-999	PAL1	0	R1109N
2087.936	0.275	2546337	TEST_ORIENT	n/a	n/a	4	6	CHALK	PASS	CHALK	SEED	16	[0, 0, 0]	-999	PAL1	0	R1109N
2088.92	4.0	2547321	TEST_PROBE	n/a	wordpools/wordpool_EN.txt	4	6	CHALK	PASS	CHALK	SEED	16	[0, 0, 0]	-999	PAL1	0	R1109N
2088.92	3.244	2547321	REC_START	n/a	n/a	4	-999	n/a	PASS	n/a	n/a	16	[0, 0, 0]	-999	PAL1	0	R1109N
2092.164	1.773	2550565	REC_EVENT	3244.0	n/a	4	6	CHALK	PASS	CHALK	SEED	16	[0, 0, 0]	-999	PAL1	0	R1109N
2093.937	0.032	2552338	REC_END	n/a	n/a	4	-999	n/a	n/a	n/a	n/a	16	[0, 0, 0]	-999	PAL1	0	R1109N
2093.969	10.412	2552370	FEEDBACK_SHOW_ALL_PAIRS	n/a	n/a	4	-999	n/a	n/a	n/a	n/a	16	[0, 0, 0]	-999	PAL1	0	R1109N
2104.381	10.443	2562781	ENCODING_START	n/a	n/a	0	-999	n/a	n/a	n/a	n/a	17	[0, 0, 0]	-999	PAL1	0	R1109N
2114.824	0.275	2573224	STUDY_ORIENT	n/a	n/a	1	5	SPEAR	PASTE	SPEAR	PASTE	17	[0, 0, 0]	-999	PAL1	0	R1109N
2115.707	4.0	2574107	STUDY_PAIR	n/a	wordpools/wordpool_EN.txt	1	5	SPEAR	PASTE	SPEAR	PASTE	17	[0, 0, 0]	-999	PAL1	0	R1109N
2120.725	0.275	2579124	STUDY_ORIENT	n/a	n/a	2	6	PIE	MAP	MAP	PIE	17	[0, 0, 0]	-999	PAL1	0	R1109N
2121.692	4.0	2580091	STUDY_PAIR	n/a	wordpools/wordpool_EN.txt	2	6	PIE	MAP	MAP	PIE	17	[0, 0, 0]	-999	PAL1	0	R1109N
2126.726	0.275	2585125	STUDY_ORIENT	n/a	n/a	3	1	BOY	SALT	BOY	SALT	17	[0, 0, 0]	-999	PAL1	0	R1109N
2127.558	4.0	2585957	STUDY_PAIR	n/a	wordpools/wordpool_EN.txt	3	1	BOY	SALT	BOY	SALT	17	[0, 0, 0]	-999	PAL1	0	R1109N
2132.576	0.275	2590975	STUDY_ORIENT	n/a	n/a	4	4	BUSH	PASS	LAMP	BUSH	17	[0, 0, 0]	-999	PAL1	0	R1109N
2133.343	4.0	2591742	STUDY_PAIR	n/a	wordpools/wordpool_EN.txt	4	4	BUSH	PASS	LAMP	BUSH	17	[0, 0, 0]	-999	PAL1	0	R1109N
2138.377	0.275	2596776	STUDY_ORIENT	n/a	n/a	5	3	PIN	n/a	TRAIN	PIN	17	[0, 0, 0]	-999	PAL1	0	R1109N
2139.277	4.0	2597676	STUDY_PAIR	n/a	wordpools/wordpool_EN.txt	5	3	PIN	n/a	TRAIN	PIN	17	[0, 0, 0]	-999	PAL1	0	R1109N
2144.311	0.275	2602709	STUDY_ORIENT	n/a	n/a	6	2	HORN	n/a	TOAST	HORN	17	[0, 0, 0]	-999	PAL1	0	R1109N
2145.228	4.0	2603626	STUDY_PAIR	n/a	wordpools/wordpool_EN.txt	6	2	HORN	n/a	TOAST	HORN	17	[0, 0, 0]	-999	PAL1	0	R1109N
2149.246	0.999	2607644	START	n/a	n/a	-999	-999	n/a	n/a	n/a	n/a	17	[-999, -999, -999]	-999	PAL1	0	R1109N
2150.245	0.017	2608643	MATH_START	n/a	n/a	-999	-999	n/a	n/a	n/a	n/a	17	[0, 0, 0]	-999	PAL1	0	R1109N
2150.262	4.368	2608660	PROB	4343.0	n/a	-999	-999	n/a	n/a	n/a	n/a	17	[1, 2, 3]	6	PAL1	0	R1109N
2154.63	12.869	2613028	PROB	12839.0	n/a	-999	-999	n/a	n/a	n/a	n/a	17	[7, 6, 6]	19	PAL1	0	R1109N
2167.499	9.922	2625896	PROB	9922.0	n/a	-999	-999	n/a	n/a	n/a	n/a	17	[4, 4, 6]	14	PAL1	0	R1109N
2177.421	0.012	2635818	STOP	n/a	n/a	-999	-999	n/a	n/a	n/a	n/a	17	[-999, -999, -999]	-999	PAL1	0	R1109N
2177.433	0.0	2635830	MATH_END	n/a	n/a	-999	-999	n/a	n/a	n/a	n/a	17	[0, 0, 0]	-999	PAL1	0	R1109N
2177.433	0.017	2635830	TEST_START	n/a	n/a	-999	-999	n/a	n/a	n/a	n/a	17	[0, 0, 0]	-999	PAL1	0	R1109N
2177.45	0.275	2635847	TEST_ORIENT	n/a	n/a	3	1	BOY	SALT	BOY	SALT	17	[0, 0, 0]	-999	PAL1	0	R1109N
2178.3	4.0	2636697	TEST_PROBE	n/a	wordpools/wordpool_EN.txt	3	1	BOY	SALT	BOY	SALT	17	[0, 0, 0]	-999	PAL1	0	R1109N
2178.301	1.527	2636698	REC_START	n/a	n/a	3	-999	n/a	SALT	n/a	n/a	17	[0, 0, 0]	-999	PAL1	0	R1109N
2179.828	3.482	2638224	REC_EVENT	1527.0	n/a	3	1	BOY	SALT	BOY	SALT	17	[0, 0, 0]	-999	PAL1	0	R1109N
2183.31	0.008	2641706	REC_END	n/a	n/a	3	-999	n/a	n/a	n/a	n/a	17	[0, 0, 0]	-999	PAL1	0	R1109N
2183.318	0.275	2641714	TEST_ORIENT	n/a	n/a	6	2	HORN	n/a	TOAST	HORN	17	[0, 0, 0]	-999	PAL1	0	R1109N
2184.301	4.0	2642697	TEST_PROBE	n/a	wordpools/wordpool_EN.txt	6	2	HORN	n/a	TOAST	HORN	17	[0, 0, 0]	-999	PAL1	0	R1109N
2184.302	5.015	2642698	REC_START	n/a	n/a	6	-999	n/a	n/a	n/a	n/a	17	[0, 0, 0]	-999	PAL1	0	R1109N
2189.317	0.002	2647713	REC_EVENT	5015.0	n/a	6	2	HORN	<>	TOAST	HORN	17	[0, 0, 0]	-999	PAL1	0	R1109N
2189.319	0.017	2647715	REC_END	n/a	n/a	6	-999	n/a	n/a	n/a	n/a	17	[0, 0, 0]	-999	PAL1	0	R1109N
2189.336	0.275	2647732	TEST_ORIENT	n/a	n/a	5	3	PIN	n/a	TRAIN	PIN	17	[0, 0, 0]	-999	PAL1	0	R1109N
2190.319	4.0	2648715	TEST_PROBE	n/a	wordpools/wordpool_EN.txt	5	3	PIN	n/a	TRAIN	PIN	17	[0, 0, 0]	-999	PAL1	0	R1109N
2190.32	5.015	2648716	REC_START	n/a	n/a	5	-999	n/a	n/a	n/a	n/a	17	[0, 0, 0]	-999	PAL1	0	R1109N
2195.335	0.001	2653731	REC_EVENT	5015.0	n/a	5	3	PIN	<>	TRAIN	PIN	17	[0, 0, 0]	-999	PAL1	0	R1109N
2195.336	0.017	2653732	REC_END	n/a	n/a	5	-999	n/a	n/a	n/a	n/a	17	[0, 0, 0]	-999	PAL1	0	R1109N
2195.353	0.275	2653749	TEST_ORIENT	n/a	n/a	4	4	BUSH	PASS	LAMP	BUSH	17	[0, 0, 0]	-999	PAL1	0	R1109N
2196.37	4.0	2654766	TEST_PROBE	n/a	wordpools/wordpool_EN.txt	4	4	BUSH	PASS	LAMP	BUSH	17	[0, 0, 0]	-999	PAL1	0	R1109N
2196.371	3.628	2654767	REC_START	n/a	n/a	4	-999	n/a	PASS	n/a	n/a	17	[0, 0, 0]	-999	PAL1	0	R1109N
2199.999	1.388	2658394	REC_EVENT	3628.0	n/a	4	4	BUSH	PASS	LAMP	BUSH	17	[0, 0, 0]	-999	PAL1	0	R1109N
2201.387	0.017	2659782	REC_END	n/a	n/a	4	-999	n/a	n/a	n/a	n/a	17	[0, 0, 0]	-999	PAL1	0	R1109N
2201.404	0.275	2659799	TEST_ORIENT	n/a	n/a	1	5	SPEAR	PASTE	SPEAR	PASTE	17	[0, 0, 0]	-999	PAL1	0	R1109N
2202.371	4.0	2660766	TEST_PROBE	n/a	wordpools/wordpool_EN.txt	1	5	SPEAR	PASTE	SPEAR	PASTE	17	[0, 0, 0]	-999	PAL1	0	R1109N
2202.372	2.839	2660767	REC_START	n/a	n/a	1	-999	n/a	PASTE	n/a	n/a	17	[0, 0, 0]	-999	PAL1	0	R1109N
2205.211	2.177	2663606	REC_EVENT	2839.0	n/a	1	5	SPEAR	PASTE	SPEAR	PASTE	17	[0, 0, 0]	-999	PAL1	0	R1109N
2207.388	0.017	2665783	REC_END	n/a	n/a	1	-999	n/a	n/a	n/a	n/a	17	[0, 0, 0]	-999	PAL1	0	R1109N
2207.405	0.275	2665800	TEST_ORIENT	n/a	n/a	2	6	PIE	MAP	MAP	PIE	17	[0, 0, 0]	-999	PAL1	0	R1109N
2208.322	4.0	2666717	TEST_PROBE	n/a	wordpools/wordpool_EN.txt	2	6	PIE	MAP	MAP	PIE	17	[0, 0, 0]	-999	PAL1	0	R1109N
2208.323	1.628	2666718	REC_START	n/a	n/a	2	-999	n/a	MAP	n/a	n/a	17	[0, 0, 0]	-999	PAL1	0	R1109N
2209.951	3.388	2668346	REC_EVENT	1628.0	n/a	2	6	PIE	MAP	MAP	PIE	17	[0, 0, 0]	-999	PAL1	0	R1109N
2213.339	0.034	2671734	REC_END	n/a	n/a	2	-999	n/a	n/a	n/a	n/a	17	[0, 0, 0]	-999	PAL1	0	R1109N
2213.373	14.377	2671768	FEEDBACK_SHOW_ALL_PAIRS	n/a	n/a	2	-999	n/a	n/a	n/a	n/a	17	[0, 0, 0]	-999	PAL1	0	R1109N
2227.75	10.444	2686144	ENCODING_START	n/a	n/a	0	-999	n/a	n/a	n/a	n/a	18	[0, 0, 0]	-999	PAL1	0	R1109N
2238.194	0.275	2696587	STUDY_ORIENT	n/a	n/a	1	1	WEED	GEESE	GEESE	WEED	18	[0, 0, 0]	-999	PAL1	0	R1109N
2239.094	4.0	2697487	STUDY_PAIR	n/a	wordpools/wordpool_EN.txt	1	1	WEED	GEESE	GEESE	WEED	18	[0, 0, 0]	-999	PAL1	0	R1109N
2244.128	0.275	2702521	STUDY_ORIENT	n/a	n/a	2	2	SLEEVE	BIRD	SLEEVE	BIRD	18	[0, 0, 0]	-999	PAL1	0	R1109N
2245.045	4.0	2703438	STUDY_PAIR	n/a	wordpools/wordpool_EN.txt	2	2	SLEEVE	BIRD	SLEEVE	BIRD	18	[0, 0, 0]	-999	PAL1	0	R1109N
2250.079	0.275	2708472	STUDY_ORIENT	n/a	n/a	3	5	PEACH	n/a	SKI	PEACH	18	[0, 0, 0]	-999	PAL1	0	R1109N
2251.012	4.0	2709405	STUDY_PAIR	n/a	wordpools/wordpool_EN.txt	3	5	PEACH	n/a	SKI	PEACH	18	[0, 0, 0]	-999	PAL1	0	R1109N
2256.03	0.275	2714422	STUDY_ORIENT	n/a	n/a	4	6	DRESS	PASS	FOOD	DRESS	18	[0, 0, 0]	-999	PAL1	0	R1109N
2256.915	4.0	2715307	STUDY_PAIR	n/a	wordpools/wordpool_EN.txt	4	6	DRESS	PASS	FOOD	DRESS	18	[0, 0, 0]	-999	PAL1	0	R1109N
2261.949	0.275	2720341	STUDY_ORIENT	n/a	n/a	5	3	TOE	RICE	TOE	RICE	18	[0, 0, 0]	-999	PAL1	0	R1109N
2262.949	4.0	2721341	STUDY_PAIR	n/a	wordpools/wordpool_EN.txt	5	3	TOE	RICE	TOE	RICE	18	[0, 0, 0]	-999	PAL1	0	R1109N
2267.982	0.275	2726374	STUDY_ORIENT	n/a	n/a	6	4	BEAR	PASS	BEAR	STORM	18	[0, 0, 0]	-999	PAL1	0	R1109N
2268.783	4.0	2727175	STUDY_PAIR	n/a	wordpools/wordpool_EN.txt	6	4	BEAR	PASS	BEAR	STORM	18	[0, 0, 0]	-999	PAL1	0	R1109N
2272.784	1.0	2731176	START	n/a	n/a	-999	-999	n/a	n/a	n/a	n/a	18	[-999, -999, -999]	-999	PAL1	0	R1109N
2273.784	0.017	2732176	MATH_START	n/a	n/a	-999	-999	n/a	n/a	n/a	n/a	18	[0, 0, 0]	-999	PAL1	0	R1109N
2273.801	14.335	2732193	PROB	14308.0	n/a	-999	-999	n/a	n/a	n/a	n/a	18	[5, 8, 7]	20	PAL1	0	R1109N
2288.136	10.053	2746527	PROB	10053.0	n/a	-999	-999	n/a	n/a	n/a	n/a	18	[8, 6, 1]	15	PAL1	0	R1109N
2298.189	0.015	2756579	STOP	n/a	n/a	-999	-999	n/a	n/a	n/a	n/a	18	[-999, -999, -999]	-999	PAL1	0	R1109N
2298.204	0.0	2756594	MATH_END	n/a	n/a	-999	-999	n/a	n/a	n/a	n/a	18	[0, 0, 0]	-999	PAL1	0	R1109N
2298.204	0.017	2756594	TEST_START	n/a	n/a	-999	-999	n/a	n/a	n/a	n/a	18	[0, 0, 0]	-999	PAL1	0	R1109N
2298.221	0.275	2756611	TEST_ORIENT	n/a	n/a	1	1	WEED	GEESE	GEESE	WEED	18	[0, 0, 0]	-999	PAL1	0	R1109N
2299.121	4.0	2757511	TEST_PROBE	n/a	wordpools/wordpool_EN.txt	1	1	WEED	GEESE	GEESE	WEED	18	[0, 0, 0]	-999	PAL1	0	R1109N
2299.121	2.191	2757511	REC_START	n/a	n/a	1	-999	n/a	GEESE	n/a	n/a	18	[0, 0, 0]	-999	PAL1	0	R1109N
2301.312	2.826	2759702	REC_EVENT	2191.0	n/a	1	1	WEED	GEESE	GEESE	WEED	18	[0, 0, 0]	-999	PAL1	0	R1109N
2304.138	0.017	2762528	REC_END	n/a	n/a	1	-999	n/a	n/a	n/a	n/a	18	[0, 0, 0]	-999	PAL1	0	R1109N
2304.155	0.275	2762545	TEST_ORIENT	n/a	n/a	2	2	SLEEVE	BIRD	SLEEVE	BIRD	18	[0, 0, 0]	-999	PAL1	0	R1109N
2305.188	4.0	2763578	TEST_PROBE	n/a	wordpools/wordpool_EN.txt	2	2	SLEEVE	BIRD	SLEEVE	BIRD	18	[0, 0, 0]	-999	PAL1	0	R1109N
2305.189	2.535	2763579	REC_START	n/a	n/a	2	-999	n/a	BIRD	n/a	n/a	18	[0, 0, 0]	-999	PAL1	0	R1109N
2307.724	2.474	2766114	REC_EVENT	2535.0	n/a	2	2	SLEEVE	BIRD	SLEEVE	BIRD	18	[0, 0, 0]	-999	PAL1	0	R1109N
2310.198	0.008	2768588	REC_END	n/a	n/a	2	-999	n/a	n/a	n/a	n/a	18	[0, 0, 0]	-999	PAL1	0	R1109N
2310.206	0.275	2768596	TEST_ORIENT	n/a	n/a	5	3	TOE	RICE	TOE	RICE	18	[0, 0, 0]	-999	PAL1	0	R1109N
2311.239	4.0	2769629	TEST_PROBE	n/a	wordpools/wordpool_EN.txt	5	3	TOE	RICE	TOE	RICE	18	[0, 0, 0]	-999	PAL1	0	R1109N
2311.24	2.861	2769630	REC_START	n/a	n/a	5	-999	n/a	RICE	n/a	n/a	18	[0, 0, 0]	-999	PAL1	0	R1109N
2314.101	2.148	2772490	REC_EVENT	2861.0	n/a	5	3	TOE	RICE	TOE	RICE	18	[0, 0, 0]	-999	PAL1	0	R1109N
2316.249	0.008	2774638	REC_END	n/a	n/a	5	-999	n/a	n/a	n/a	n/a	18	[0, 0, 0]	-999	PAL1	0	R1109N
2316.257	0.275	2774646	TEST_ORIENT	n/a	n/a	6	4	BEAR	PASS	BEAR	STORM	18	[0, 0, 0]	-999	PAL1	0	R1109N
2317.224	4.0	2775613	TEST_PROBE	n/a	wordpools/wordpool_EN.txt	6	4	BEAR	PASS	BEAR	STORM	18	[0, 0, 0]	-999	PAL1	0	R1109N
2317.224	4.134	2775613	REC_START	n/a	n/a	6	-999	n/a	PASS	n/a	n/a	18	[0, 0, 0]	-999	PAL1	0	R1109N
2321.358	0.883	2779747	REC_EVENT	4134.0	n/a	6	4	BEAR	PASS	BEAR	STORM	18	[0, 0, 0]	-999	PAL1	0	R1109N
2322.241	0.017	2780630	REC_END	n/a	n/a	6	-999	n/a	n/a	n/a	n/a	18	[0, 0, 0]	-999	PAL1	0	R1109N
2322.258	0.275	2780647	TEST_ORIENT	n/a	n/a	3	5	PEACH	n/a	SKI	PEACH	18	[0, 0, 0]	-999	PAL1	0	R1109N
2323.225	4.0	2781614	TEST_PROBE	n/a	wordpools/wordpool_EN.txt	3	5	PEACH	n/a	SKI	PEACH	18	[0, 0, 0]	-999	PAL1	0	R1109N
2323.226	5.025	2781615	REC_START	n/a	n/a	3	-999	n/a	n/a	n/a	n/a	18	[0, 0, 0]	-999	PAL1	0	R1109N
2328.251	0.002	2786640	REC_END	n/a	n/a	3	-999	n/a	n/a	n/a	n/a	18	[0, 0, 0]	-999	PAL1	0	R1109N
2328.253	0.006	2786642	REC_EVENT	5027.0	n/a	3	5	PEACH	<>	SKI	PEACH	18	[0, 0, 0]	-999	PAL1	0	R1109N
2328.259	0.275	2786648	TEST_ORIENT	n/a	n/a	4	6	DRESS	PASS	FOOD	DRESS	18	[0, 0, 0]	-999	PAL1	0	R1109N
2329.193	4.0	2787582	TEST_PROBE	n/a	wordpools/wordpool_EN.txt	4	6	DRESS	PASS	FOOD	DRESS	18	[0, 0, 0]	-999	PAL1	0	R1109N
2329.193	2.234	2787582	REC_START	n/a	n/a	4	-999	n/a	PASS	n/a	n/a	18	[0, 0, 0]	-999	PAL1	0	R1109N
2331.427	2.792	2789816	REC_EVENT	2234.0	n/a	4	6	DRESS	PASS	FOOD	DRESS	18	[0, 0, 0]	-999	PAL1	0	R1109N
2334.219	0.024	2792607	REC_END	n/a	n/a	4	-999	n/a	n/a	n/a	n/a	18	[0, 0, 0]	-999	PAL1	0	R1109N
2334.243	13.05	2792631	FEEDBACK_SHOW_ALL_PAIRS	n/a	n/a	4	-999	n/a	n/a	n/a	n/a	18	[0, 0, 0]	-999	PAL1	0	R1109N
2347.293	10.439	2805681	ENCODING_START	n/a	n/a	0	-999	n/a	n/a	n/a	n/a	19	[0, 0, 0]	-999	PAL1	0	R1109N
2357.732	0.275	2816119	STUDY_ORIENT	n/a	n/a	1	5	HOLE	PEN	PEN	HOLE	19	[0, 0, 0]	-999	PAL1	0	R1109N
2358.547	4.0	2816934	STUDY_PAIR	n/a	wordpools/wordpool_EN.txt	1	5	HOLE	PEN	PEN	HOLE	19	[0, 0, 0]	-999	PAL1	0	R1109N
2363.565	0.275	2821952	STUDY_ORIENT	n/a	n/a	2	6	PIG	CAVE	CAVE	PIG	19	[0, 0, 0]	-999	PAL1	0	R1109N
2364.332	4.0	2822719	STUDY_PAIR	n/a	wordpools/wordpool_EN.txt	2	6	PIG	CAVE	CAVE	PIG	19	[0, 0, 0]	-999	PAL1	0	R1109N
2369.366	0.275	2827753	STUDY_ORIENT	n/a	n/a	3	3	NOSE	n/a	BARN	NOSE	19	[0, 0, 0]	-999	PAL1	0	R1109N
2370.333	4.0	2828720	STUDY_PAIR	n/a	wordpools/wordpool_EN.txt	3	3	NOSE	n/a	BARN	NOSE	19	[0, 0, 0]	-999	PAL1	0	R1109N
2375.367	0.275	2833753	STUDY_ORIENT	n/a	n/a	4	2	MULE	TOOL	TOOL	MULE	19	[0, 0, 0]	-999	PAL1	0	R1109N
2376.267	4.0	2834653	STUDY_PAIR	n/a	wordpools/wordpool_EN.txt	4	2	MULE	TOOL	TOOL	MULE	19	[0, 0, 0]	-999	PAL1	0	R1109N
2381.301	0.275	2839687	STUDY_ORIENT	n/a	n/a	5	1	MOON	n/a	BAT	MOON	19	[0, 0, 0]	-999	PAL1	0	R1109N
2382.118	4.0	2840504	STUDY_PAIR	n/a	wordpools/wordpool_EN.txt	5	1	MOON	n/a	BAT	MOON	19	[0, 0, 0]	-999	PAL1	0	R1109N
2387.152	0.275	2845538	STUDY_ORIENT	n/a	n/a	6	4	PEA	n/a	FAN	PEA	19	[0, 0, 0]	-999	PAL1	0	R1109N
2388.136	4.0	2846522	STUDY_PAIR	n/a	wordpools/wordpool_EN.txt	6	4	PEA	n/a	FAN	PEA	19	[0, 0, 0]	-999	PAL1	0	R1109N
2392.154	0.999	2850539	START	n/a	n/a	-999	-999	n/a	n/a	n/a	n/a	19	[-999, -999, -999]	-999	PAL1	0	R1109N
2393.153	0.017	2851538	MATH_START	n/a	n/a	-999	-999	n/a	n/a	n/a	n/a	19	[0, 0, 0]	-999	PAL1	0	R1109N
2393.17	8.368	2851555	PROB	8347.0	n/a	-999	-999	n/a	n/a	n/a	n/a	19	[8, 4, 2]	14	PAL1	0	R1109N
2401.538	10.979	2859923	PROB	10979.0	n/a	-999	-999	n/a	n/a	n/a	n/a	19	[8, 9, 7]	24	PAL1	0	R1109N
2412.517	0.006	2870901	STOP	n/a	n/a	-999	-999	n/a	n/a	n/a	n/a	19	[-999, -999, -999]	-999	PAL1	0	R1109N
2412.523	0.0	2870907	MATH_END	n/a	n/a	-999	-999	n/a	n/a	n/a	n/a	19	[0, 0, 0]	-999	PAL1	0	R1109N
2412.523	0.017	2870907	TEST_START	n/a	n/a	-999	-999	n/a	n/a	n/a	n/a	19	[0, 0, 0]	-999	PAL1	0	R1109N
2412.54	0.275	2870924	TEST_ORIENT	n/a	n/a	5	1	MOON	n/a	BAT	MOON	19	[0, 0, 0]	-999	PAL1	0	R1109N
2413.44	4.0	2871824	TEST_PROBE	n/a	wordpools/wordpool_EN.txt	5	1	MOON	n/a	BAT	MOON	19	[0, 0, 0]	-999	PAL1	0	R1109N
2413.441	5.015	2871825	REC_START	n/a	n/a	5	-999	n/a	n/a	n/a	n/a	19	[0, 0, 0]	-999	PAL1	0	R1109N
2418.456	0.001	2876840	REC_EVENT	5015.0	n/a	5	1	MOON	<>	BAT	MOON	19	[0, 0, 0]	-999	PAL1	0	R1109N
2418.457	0.017	2876841	REC_END	n/a	n/a	5	-999	n/a	n/a	n/a	n/a	19	[0, 0, 0]	-999	PAL1	0	R1109N
2418.474	0.275	2876858	TEST_ORIENT	n/a	n/a	4	2	MULE	TOOL	TOOL	MULE	19	[0, 0, 0]	-999	PAL1	0	R1109N
2419.458	4.0	2877842	TEST_PROBE	n/a	wordpools/wordpool_EN.txt	4	2	MULE	TOOL	TOOL	MULE	19	[0, 0, 0]	-999	PAL1	0	R1109N
2419.458	1.65	2877842	REC_START	n/a	n/a	4	-999	n/a	TOOL	n/a	n/a	19	[0, 0, 0]	-999	PAL1	0	R1109N
2421.108	3.367	2879492	REC_EVENT	1650.0	n/a	4	2	MULE	TOOL	TOOL	MULE	19	[0, 0, 0]	-999	PAL1	0	R1109N
2424.475	0.017	2882859	REC_END	n/a	n/a	4	-999	n/a	n/a	n/a	n/a	19	[0, 0, 0]	-999	PAL1	0	R1109N
2424.492	0.275	2882876	TEST_ORIENT	n/a	n/a	3	3	NOSE	n/a	BARN	NOSE	19	[0, 0, 0]	-999	PAL1	0	R1109N
2425.409	4.0	2883793	TEST_PROBE	n/a	wordpools/wordpool_EN.txt	3	3	NOSE	n/a	BARN	NOSE	19	[0, 0, 0]	-999	PAL1	0	R1109N
2425.41	5.025	2883794	REC_START	n/a	n/a	3	-999	n/a	n/a	n/a	n/a	19	[0, 0, 0]	-999	PAL1	0	R1109N
2430.435	0.002	2888818	REC_END	n/a	n/a	3	-999	n/a	n/a	n/a	n/a	19	[0, 0, 0]	-999	PAL1	0	R1109N
2430.437	0.006	2888820	REC_EVENT	5027.0	n/a	3	3	NOSE	<>	BARN	NOSE	19	[0, 0, 0]	-999	PAL1	0	R1109N
2430.443	0.275	2888826	TEST_ORIENT	n/a	n/a	6	4	PEA	n/a	FAN	PEA	19	[0, 0, 0]	-999	PAL1	0	R1109N
