onset	duration	sample	trial_type	response_time	stim_file	serialpos	probepos	probe_word	resp_word	study_1	study_2	list	test	answer	experiment	session	subject
0.0	71.944	514774	SESS_START	n/a	n/a	-999	-999	n/a	n/a	n/a	n/a	-999	[0, 0, 0]	-999	PAL1	1	R1175N
71.944	1.016	586720	START	n/a	n/a	-999	-999	n/a	n/a	n/a	n/a	-1	[-999, -999, -999]	-999	PAL1	1	R1175N
72.96	12.753	587736	PROB	12720	n/a	-999	-999	n/a	n/a	n/a	n/a	-1	[5, 6, 2]	13	PAL1	1	R1175N
85.713	10.277	600489	PROB	10277	n/a	-999	-999	n/a	n/a	n/a	n/a	-1	[1, 7, 5]	13	PAL1	1	R1175N
95.99	210.557	610766	STOP	n/a	n/a	-999	-999	n/a	n/a	n/a	n/a	-1	[-999, -999, -999]	-999	PAL1	1	R1175N
306.547	10.44	821327	ENCODING_START	n/a	n/a	0	-999	n/a	n/a	n/a	n/a	1	[0, 0, 0]	-999	PAL1	1	R1175N
316.987	0.934	831767	STUDY_ORIENT	n/a	n/a	1	3	FLAME	n/a	FLAME	BOAT	1	[0, 0, 0]	-999	PAL1	1	R1175N
317.921	5.034	832701	STUDY_PAIR	n/a	wordpools/wordpool_EN.txt	1	3	FLAME	n/a	FLAME	BOAT	1	[0, 0, 0]	-999	PAL1	1	R1175N
322.955	0.801	837736	STUDY_ORIENT	n/a	n/a	2	6	MILK	PHONE	SIGN	MILK	1	[0, 0, 0]	-999	PAL1	1	R1175N
323.756	5.033	838537	STUDY_PAIR	n/a	wordpools/wordpool_EN.txt	2	6	MILK	PHONE	SIGN	MILK	1	[0, 0, 0]	-999	PAL1	1	R1175N
328.789	0.851	843570	STUDY_ORIENT	n/a	n/a	3	1	FOAM	FINE	LEAF	FOAM	1	[0, 0, 0]	-999	PAL1	1	R1175N
329.64	5.034	844421	STUDY_PAIR	n/a	wordpools/wordpool_EN.txt	3	1	FOAM	FINE	LEAF	FOAM	1	[0, 0, 0]	-999	PAL1	1	R1175N
334.674	1.016	849455	STUDY_ORIENT	n/a	n/a	4	2	ROAD	n/a	ROAD	SPONGE	1	[0, 0, 0]	-999	PAL1	1	R1175N
335.69	5.034	850471	STUDY_PAIR	n/a	wordpools/wordpool_EN.txt	4	2	ROAD	n/a	ROAD	SPONGE	1	[0, 0, 0]	-999	PAL1	1	R1175N
340.724	0.784	855505	STUDY_ORIENT	n/a	n/a	5	5	SHEET	n/a	STRING	SHEET	1	[0, 0, 0]	-999	PAL1	1	R1175N
341.508	5.033	856289	STUDY_PAIR	n/a	wordpools/wordpool_EN.txt	5	5	SHEET	n/a	STRING	SHEET	1	[0, 0, 0]	-999	PAL1	1	R1175N
346.541	0.917	861322	STUDY_ORIENT	n/a	n/a	6	4	FLAG	FLAG	FLAG	LAWN	1	[0, 0, 0]	-999	PAL1	1	R1175N
347.458	4.018	862239	STUDY_PAIR	n/a	wordpools/wordpool_EN.txt	6	4	FLAG	FLAG	FLAG	LAWN	1	[0, 0, 0]	-999	PAL1	1	R1175N
351.476	0.999	866257	START	n/a	n/a	-999	-999	n/a	n/a	n/a	n/a	1	[-999, -999, -999]	-999	PAL1	1	R1175N
352.475	0.017	867256	MATH_START	n/a	n/a	-999	-999	n/a	n/a	n/a	n/a	1	[0, 0, 0]	-999	PAL1	1	R1175N
352.492	7.984	867273	PROB	7964	n/a	-999	-999	n/a	n/a	n/a	n/a	1	[5, 8, 3]	16	PAL1	1	R1175N
360.476	6.6	875257	PROB	6578	n/a	-999	-999	n/a	n/a	n/a	n/a	1	[1, 7, 8]	16	PAL1	1	R1175N
367.076	6.323	881857	PROB	6323	n/a	-999	-999	n/a	n/a	n/a	n/a	1	[5, 8, 8]	21	PAL1	1	R1175N
373.399	0.012	888181	STOP	n/a	n/a	-999	-999	n/a	n/a	n/a	n/a	1	[-999, -999, -999]	-999	PAL1	1	R1175N
373.411	0.0	888193	MATH_END	n/a	n/a	-999	-999	n/a	n/a	n/a	n/a	1	[0, 0, 0]	-999	PAL1	1	R1175N
373.411	0.017	888193	TEST_START	n/a	n/a	-999	-999	n/a	n/a	n/a	n/a	1	[0, 0, 0]	-999	PAL1	1	R1175N
373.428	1.017	888210	TEST_ORIENT	n/a	n/a	3	1	FOAM	FINE	LEAF	FOAM	1	[0, 0, 0]	-999	PAL1	1	R1175N
374.445	0.0	889227	REC_START	n/a	n/a	3	-999	n/a	FINE	n/a	n/a	1	[0, 0, 0]	-999	PAL1	1	R1175N
374.445	1.013	889227	TEST_PROBE	n/a	wordpools/wordpool_EN.txt	3	1	FOAM	FINE	LEAF	FOAM	1	[0, 0, 0]	-999	PAL1	1	R1175N
375.458	4.004	890240	REC_EVENT	1013	n/a	3	1	FOAM	FINE	LEAF	FOAM	1	[0, 0, 0]	-999	PAL1	1	R1175N
379.462	0.016	894244	REC_END	n/a	n/a	3	-999	n/a	n/a	n/a	n/a	1	[0, 0, 0]	-999	PAL1	1	R1175N
379.478	0.867	894260	TEST_ORIENT	n/a	n/a	4	2	ROAD	n/a	ROAD	SPONGE	1	[0, 0, 0]	-999	PAL1	1	R1175N
380.345	0.0	895127	TEST_PROBE	n/a	wordpools/wordpool_EN.txt	4	2	ROAD	n/a	ROAD	SPONGE	1	[0, 0, 0]	-999	PAL1	1	R1175N
380.345	0.021	895127	REC_START	n/a	n/a	4	-999	n/a	n/a	n/a	n/a	1	[0, 0, 0]	-999	PAL1	1	R1175N
380.366	2.5	895148	REC_EVENT	21	n/a	4	2	ROAD	<>	ROAD	SPONGE	1	[0, 0, 0]	-999	PAL1	1	R1175N
382.866	2.496	897648	REC_EVENT	2521	n/a	4	2	ROAD	<>	ROAD	SPONGE	1	[0, 0, 0]	-999	PAL1	1	R1175N
385.362	0.017	900144	REC_END	n/a	n/a	4	-999	n/a	n/a	n/a	n/a	1	[0, 0, 0]	-999	PAL1	1	R1175N
385.379	0.95	900161	TEST_ORIENT	n/a	n/a	1	3	FLAME	n/a	FLAME	BOAT	1	[0, 0, 0]	-999	PAL1	1	R1175N
386.329	0.002	901111	TEST_PROBE	n/a	wordpools/wordpool_EN.txt	1	3	FLAME	n/a	FLAME	BOAT	1	[0, 0, 0]	-999	PAL1	1	R1175N
386.331	1.361	901113	REC_START	n/a	n/a	1	-999	n/a	n/a	n/a	n/a	1	[0, 0, 0]	-999	PAL1	1	R1175N
387.692	1.0	902474	REC_EVENT	1361	n/a	1	3	FLAME	<>	FLAME	BOAT	1	[0, 0, 0]	-999	PAL1	1	R1175N
388.692	2.654	903474	REC_EVENT	2361	n/a	1	3	FLAME	<>	FLAME	BOAT	1	[0, 0, 0]	-999	PAL1	1	R1175N
391.346	0.017	906128	REC_END	n/a	n/a	1	-999	n/a	n/a	n/a	n/a	1	[0, 0, 0]	-999	PAL1	1	R1175N
391.363	1.017	906145	TEST_ORIENT	n/a	n/a	6	4	FLAG	FLAG	FLAG	LAWN	1	[0, 0, 0]	-999	PAL1	1	R1175N
392.38	0.001	907162	TEST_PROBE	n/a	wordpools/wordpool_EN.txt	6	4	FLAG	FLAG	FLAG	LAWN	1	[0, 0, 0]	-999	PAL1	1	R1175N
392.381	1.098	907163	REC_START	n/a	n/a	6	-999	n/a	FLAG	n/a	n/a	1	[0, 0, 0]	-999	PAL1	1	R1175N
393.479	0.534	908261	REC_EVENT	1098	n/a	6	4	FLAG	FLAG	FLAG	LAWN	1	[0, 0, 0]	-999	PAL1	1	R1175N
394.013	3.392	908795	REC_EVENT	1632	n/a	6	4	FLAG	<>	FLAG	LAWN	1	[0, 0, 0]	-999	PAL1	1	R1175N
397.405	0.009	912187	REC_END	n/a	n/a	6	-999	n/a	n/a	n/a	n/a	1	[0, 0, 0]	-999	PAL1	1	R1175N
397.414	1.033	912196	TEST_ORIENT	n/a	n/a	5	5	SHEET	n/a	STRING	SHEET	1	[0, 0, 0]	-999	PAL1	1	R1175N
398.447	0.001	913229	TEST_PROBE	n/a	wordpools/wordpool_EN.txt	5	5	SHEET	n/a	STRING	SHEET	1	[0, 0, 0]	-999	PAL1	1	R1175N
398.448	1.576	913230	REC_START	n/a	n/a	5	-999	n/a	n/a	n/a	n/a	1	[0, 0, 0]	-999	PAL1	1	R1175N
400.024	3.448	914806	REC_EVENT	1576	n/a	5	5	SHEET	<>	STRING	SHEET	1	[0, 0, 0]	-999	PAL1	1	R1175N
403.472	0.009	918254	REC_END	n/a	n/a	5	-999	n/a	n/a	n/a	n/a	1	[0, 0, 0]	-999	PAL1	1	R1175N
403.481	0.817	918263	TEST_ORIENT	n/a	n/a	2	6	MILK	PHONE	SIGN	MILK	1	[0, 0, 0]	-999	PAL1	1	R1175N
404.298	0.0	919080	TEST_PROBE	n/a	wordpools/wordpool_EN.txt	2	6	MILK	PHONE	SIGN	MILK	1	[0, 0, 0]	-999	PAL1	1	R1175N
404.298	1.628	919080	REC_START	n/a	n/a	2	-999	n/a	PHONE	n/a	n/a	1	[0, 0, 0]	-999	PAL1	1	R1175N
405.926	0.571	920708	REC_EVENT	1628	n/a	2	6	MILK	<>	SIGN	MILK	1	[0, 0, 0]	-999	PAL1	1	R1175N
406.497	2.818	921279	REC_EVENT	2199	n/a	2	6	MILK	PHONE	SIGN	MILK	1	[0, 0, 0]	-999	PAL1	1	R1175N
409.315	3.114	924097	REC_END	n/a	n/a	2	-999	n/a	n/a	n/a	n/a	1	[0, 0, 0]	-999	PAL1	1	R1175N
412.429	10.437	927211	ENCODING_START	n/a	n/a	0	-999	n/a	n/a	n/a	n/a	2	[0, 0, 0]	-999	PAL1	1	R1175N
422.866	0.934	937648	STUDY_ORIENT	n/a	n/a	1	1	SEAT	n/a	FORT	SEAT	2	[0, 0, 0]	-999	PAL1	1	R1175N
423.8	5.034	938582	STUDY_PAIR	n/a	wordpools/wordpool_EN.txt	1	1	SEAT	n/a	FORT	SEAT	2	[0, 0, 0]	-999	PAL1	1	R1175N
428.834	1.0	943617	STUDY_ORIENT	n/a	n/a	2	6	WORM	n/a	WORM	BREAD	2	[0, 0, 0]	-999	PAL1	1	R1175N
429.834	5.033	944617	STUDY_PAIR	n/a	wordpools/wordpool_EN.txt	2	6	WORM	n/a	WORM	BREAD	2	[0, 0, 0]	-999	PAL1	1	R1175N
434.867	0.968	949650	STUDY_ORIENT	n/a	n/a	3	3	STRAW	TREE	SEA	STRAW	2	[0, 0, 0]	-999	PAL1	1	R1175N
435.835	5.033	950618	STUDY_PAIR	n/a	wordpools/wordpool_EN.txt	3	3	STRAW	TREE	SEA	STRAW	2	[0, 0, 0]	-999	PAL1	1	R1175N
440.868	0.817	955651	STUDY_ORIENT	n/a	n/a	4	2	HEART	n/a	PIPE	HEART	2	[0, 0, 0]	-999	PAL1	1	R1175N
441.685	5.034	956468	STUDY_PAIR	n/a	wordpools/wordpool_EN.txt	4	2	HEART	n/a	PIPE	HEART	2	[0, 0, 0]	-999	PAL1	1	R1175N
446.719	0.967	961502	STUDY_ORIENT	n/a	n/a	5	5	TREE	STRAW	TREE	STAR	2	[0, 0, 0]	-999	PAL1	1	R1175N
447.686	5.034	962469	STUDY_PAIR	n/a	wordpools/wordpool_EN.txt	5	5	TREE	STRAW	TREE	STAR	2	[0, 0, 0]	-999	PAL1	1	R1175N
452.72	0.983	967503	STUDY_ORIENT	n/a	n/a	6	4	SPEAR	n/a	CAGE	SPEAR	2	[0, 0, 0]	-999	PAL1	1	R1175N
453.703	4.018	968486	STUDY_PAIR	n/a	wordpools/wordpool_EN.txt	6	4	SPEAR	n/a	CAGE	SPEAR	2	[0, 0, 0]	-999	PAL1	1	R1175N
457.721	1.0	972504	START	n/a	n/a	-999	-999	n/a	n/a	n/a	n/a	2	[-999, -999, -999]	-999	PAL1	1	R1175N
458.721	0.016	973504	MATH_START	n/a	n/a	-999	-999	n/a	n/a	n/a	n/a	2	[0, 0, 0]	-999	PAL1	1	R1175N
458.737	12.835	973520	PROB	12808	n/a	-999	-999	n/a	n/a	n/a	n/a	2	[9, 3, 2]	14	PAL1	1	R1175N
471.572	11.196	986355	PROB	11196	n/a	-999	-999	n/a	n/a	n/a	n/a	2	[3, 8, 6]	17	PAL1	1	R1175N
482.768	0.005	997552	STOP	n/a	n/a	-999	-999	n/a	n/a	n/a	n/a	2	[-999, -999, -999]	-999	PAL1	1	R1175N
482.773	0.0	997557	MATH_END	n/a	n/a	-999	-999	n/a	n/a	n/a	n/a	2	[0, 0, 0]	-999	PAL1	1	R1175N
482.773	0.017	997557	TEST_START	n/a	n/a	-999	-999	n/a	n/a	n/a	n/a	2	[0, 0, 0]	-999	PAL1	1	R1175N
482.79	0.95	997574	TEST_ORIENT	n/a	n/a	1	1	SEAT	n/a	FORT	SEAT	2	[0, 0, 0]	-999	PAL1	1	R1175N
483.74	0.0	998524	REC_START	n/a	n/a	1	-999	n/a	n/a	n/a	n/a	2	[0, 0, 0]	-999	PAL1	1	R1175N
483.74	2.852	998524	TEST_PROBE	n/a	wordpools/wordpool_EN.txt	1	1	SEAT	n/a	FORT	SEAT	2	[0, 0, 0]	-999	PAL1	1	R1175N
486.592	2.165	1001376	REC_EVENT	2852	n/a	1	1	SEAT	<>	FORT	SEAT	2	[0, 0, 0]	-999	PAL1	1	R1175N
488.757	0.017	1003541	REC_END	n/a	n/a	1	-999	n/a	n/a	n/a	n/a	2	[0, 0, 0]	-999	PAL1	1	R1175N
488.774	0.95	1003558	TEST_ORIENT	n/a	n/a	4	2	HEART	n/a	PIPE	HEART	2	[0, 0, 0]	-999	PAL1	1	R1175N
489.724	0.0	1004508	TEST_PROBE	n/a	wordpools/wordpool_EN.txt	4	2	HEART	n/a	PIPE	HEART	2	[0, 0, 0]	-999	PAL1	1	R1175N
489.724	4.829	1004508	REC_START	n/a	n/a	4	-999	n/a	n/a	n/a	n/a	2	[0, 0, 0]	-999	PAL1	1	R1175N
494.553	0.188	1009337	REC_EVENT	4829	n/a	4	2	HEART	<>	PIPE	HEART	2	[0, 0, 0]	-999	PAL1	1	R1175N
494.741	0.017	1009525	REC_END	n/a	n/a	4	-999	n/a	n/a	n/a	n/a	2	[0, 0, 0]	-999	PAL1	1	R1175N
494.758	0.983	1009542	TEST_ORIENT	n/a	n/a	3	3	STRAW	TREE	SEA	STRAW	2	[0, 0, 0]	-999	PAL1	1	R1175N
495.741	0.001	1010525	TEST_PROBE	n/a	wordpools/wordpool_EN.txt	3	3	STRAW	TREE	SEA	STRAW	2	[0, 0, 0]	-999	PAL1	1	R1175N
495.742	1.055	1010526	REC_START	n/a	n/a	3	-999	n/a	TREE	n/a	n/a	2	[0, 0, 0]	-999	PAL1	1	R1175N
496.797	0.55	1011581	REC_EVENT	1055	n/a	3	3	STRAW	<>	SEA	STRAW	2	[0, 0, 0]	-999	PAL1	1	R1175N
497.347	3.411	1012131	REC_EVENT	1605	n/a	3	3	STRAW	TREE	SEA	STRAW	2	[0, 0, 0]	-999	PAL1	1	R1175N
500.758	0.017	1015542	REC_END	n/a	n/a	3	-999	n/a	n/a	n/a	n/a	2	[0, 0, 0]	-999	PAL1	1	R1175N
500.775	0.8	1015559	TEST_ORIENT	n/a	n/a	6	4	SPEAR	n/a	CAGE	SPEAR	2	[0, 0, 0]	-999	PAL1	1	R1175N
501.575	0.001	1016359	TEST_PROBE	n/a	wordpools/wordpool_EN.txt	6	4	SPEAR	n/a	CAGE	SPEAR	2	[0, 0, 0]	-999	PAL1	1	R1175N
501.576	2.722	1016360	REC_START	n/a	n/a	6	-999	n/a	n/a	n/a	n/a	2	[0, 0, 0]	-999	PAL1	1	R1175N
504.298	2.294	1019082	REC_EVENT	2722	n/a	6	4	SPEAR	<>	CAGE	SPEAR	2	[0, 0, 0]	-999	PAL1	1	R1175N
506.592	0.017	1021376	REC_END	n/a	n/a	6	-999	n/a	n/a	n/a	n/a	2	[0, 0, 0]	-999	PAL1	1	R1175N
506.609	0.817	1021393	TEST_ORIENT	n/a	n/a	5	5	TREE	STRAW	TREE	STAR	2	[0, 0, 0]	-999	PAL1	1	R1175N
507.426	0.0	1022210	TEST_PROBE	n/a	wordpools/wordpool_EN.txt	5	5	TREE	STRAW	TREE	STAR	2	[0, 0, 0]	-999	PAL1	1	R1175N
507.426	1.317	1022210	REC_START	n/a	n/a	5	-999	n/a	STRAW	n/a	n/a	2	[0, 0, 0]	-999	PAL1	1	R1175N
508.743	0.504	1023527	REC_EVENT	1317	n/a	5	5	TREE	<>	TREE	STAR	2	[0, 0, 0]	-999	PAL1	1	R1175N
509.247	3.196	1024031	REC_EVENT	1821	n/a	5	5	TREE	STRAW	TREE	STAR	2	[0, 0, 0]	-999	PAL1	1	R1175N
512.443	0.017	1027227	REC_END	n/a	n/a	5	-999	n/a	n/a	n/a	n/a	2	[0, 0, 0]	-999	PAL1	1	R1175N
512.46	0.9	1027244	TEST_ORIENT	n/a	n/a	2	6	WORM	n/a	WORM	BREAD	2	[0, 0, 0]	-999	PAL1	1	R1175N
513.36	0.001	1028144	TEST_PROBE	n/a	wordpools/wordpool_EN.txt	2	6	WORM	n/a	WORM	BREAD	2	[0, 0, 0]	-999	PAL1	1	R1175N
513.361	2.939	1028145	REC_START	n/a	n/a	2	-999	n/a	n/a	n/a	n/a	2	[0, 0, 0]	-999	PAL1	1	R1175N
516.3	2.085	1031084	REC_EVENT	2939	n/a	2	6	WORM	<>	WORM	BREAD	2	[0, 0, 0]	-999	PAL1	1	R1175N
518.385	9.421	1033169	REC_END	n/a	n/a	2	-999	n/a	n/a	n/a	n/a	2	[0, 0, 0]	-999	PAL1	1	R1175N
527.806	10.44	1042590	ENCODING_START	n/a	n/a	0	-999	n/a	n/a	n/a	n/a	3	[0, 0, 0]	-999	PAL1	1	R1175N
538.246	0.832	1053031	STUDY_ORIENT	n/a	n/a	1	3	FACE	FACE	SOCK	FACE	3	[0, 0, 0]	-999	PAL1	1	R1175N
539.078	5.018	1053863	STUDY_PAIR	n/a	wordpools/wordpool_EN.txt	1	3	FACE	FACE	SOCK	FACE	3	[0, 0, 0]	-999	PAL1	1	R1175N
544.096	0.85	1058881	STUDY_ORIENT	n/a	n/a	2	6	WAVE	HAND	WAVE	STEAK	3	[0, 0, 0]	-999	PAL1	1	R1175N
544.946	5.034	1059731	STUDY_PAIR	n/a	wordpools/wordpool_EN.txt	2	6	WAVE	HAND	WAVE	STEAK	3	[0, 0, 0]	-999	PAL1	1	R1175N
549.98	0.933	1064765	STUDY_ORIENT	n/a	n/a	3	1	GOAT	BARN	BARN	GOAT	3	[0, 0, 0]	-999	PAL1	1	R1175N
550.913	5.034	1065698	STUDY_PAIR	n/a	wordpools/wordpool_EN.txt	3	1	GOAT	BARN	BARN	GOAT	3	[0, 0, 0]	-999	PAL1	1	R1175N
555.947	0.884	1070732	STUDY_ORIENT	n/a	n/a	4	2	BEACH	BOWL	BOWL	BEACH	3	[0, 0, 0]	-999	PAL1	1	R1175N
556.831	5.033	1071616	STUDY_PAIR	n/a	wordpools/wordpool_EN.txt	4	2	BEACH	BOWL	BOWL	BEACH	3	[0, 0, 0]	-999	PAL1	1	R1175N
561.864	0.918	1076649	STUDY_ORIENT	n/a	n/a	5	5	CUP	BEACH	HAND	CUP	3	[0, 0, 0]	-999	PAL1	1	R1175N
562.782	5.034	1077567	STUDY_PAIR	n/a	wordpools/wordpool_EN.txt	5	5	CUP	BEACH	HAND	CUP	3	[0, 0, 0]	-999	PAL1	1	R1175N
567.816	0.9	1082601	STUDY_ORIENT	n/a	n/a	6	4	FENCE	YARD	FENCE	POOL	3	[0, 0, 0]	-999	PAL1	1	R1175N
568.716	4.018	1083501	STUDY_PAIR	n/a	wordpools/wordpool_EN.txt	6	4	FENCE	YARD	FENCE	POOL	3	[0, 0, 0]	-999	PAL1	1	R1175N
572.734	0.999	1087519	START	n/a	n/a	-999	-999	n/a	n/a	n/a	n/a	3	[-999, -999, -999]	-999	PAL1	1	R1175N
573.733	0.017	1088518	MATH_START	n/a	n/a	-999	-999	n/a	n/a	n/a	n/a	3	[0, 0, 0]	-999	PAL1	1	R1175N
573.75	12.635	1088535	PROB	12612	n/a	-999	-999	n/a	n/a	n/a	n/a	3	[2, 8, 9]	19	PAL1	1	R1175N
586.385	10.153	1101171	PROB	10153	n/a	-999	-999	n/a	n/a	n/a	n/a	3	[5, 1, 8]	14	PAL1	1	R1175N
596.538	0.014	1111324	STOP	n/a	n/a	-999	-999	n/a	n/a	n/a	n/a	3	[-999, -999, -999]	-999	PAL1	1	R1175N
596.552	0.0	1111338	MATH_END	n/a	n/a	-999	-999	n/a	n/a	n/a	n/a	3	[0, 0, 0]	-999	PAL1	1	R1175N
596.552	0.017	1111338	TEST_START	n/a	n/a	-999	-999	n/a	n/a	n/a	n/a	3	[0, 0, 0]	-999	PAL1	1	R1175N
596.569	0.85	1111355	TEST_ORIENT	n/a	n/a	3	1	GOAT	BARN	BARN	GOAT	3	[0, 0, 0]	-999	PAL1	1	R1175N
597.419	0.001	1112205	TEST_PROBE	n/a	wordpools/wordpool_EN.txt	3	1	GOAT	BARN	BARN	GOAT	3	[0, 0, 0]	-999	PAL1	1	R1175N
597.42	1.641	1112206	REC_START	n/a	n/a	3	-999	n/a	BARN	n/a	n/a	3	[0, 0, 0]	-999	PAL1	1	R1175N
599.061	3.375	1113847	REC_EVENT	1641	n/a	3	1	GOAT	BARN	BARN	GOAT	3	[0, 0, 0]	-999	PAL1	1	R1175N
602.436	0.017	1117222	REC_END	n/a	n/a	3	-999	n/a	n/a	n/a	n/a	3	[0, 0, 0]	-999	PAL1	1	R1175N
602.453	0.8	1117239	TEST_ORIENT	n/a	n/a	4	2	BEACH	BOWL	BOWL	BEACH	3	[0, 0, 0]	-999	PAL1	1	R1175N
603.253	0.001	1118039	TEST_PROBE	n/a	wordpools/wordpool_EN.txt	4	2	BEACH	BOWL	BOWL	BEACH	3	[0, 0, 0]	-999	PAL1	1	R1175N
603.254	0.934	1118040	REC_START	n/a	n/a	4	-999	n/a	BOWL	n/a	n/a	3	[0, 0, 0]	-999	PAL1	1	R1175N
604.188	4.082	1118974	REC_EVENT	934	n/a	4	2	BEACH	BOWL	BOWL	BEACH	3	[0, 0, 0]	-999	PAL1	1	R1175N
608.27	0.017	1123056	REC_END	n/a	n/a	4	-999	n/a	n/a	n/a	n/a	3	[0, 0, 0]	-999	PAL1	1	R1175N
608.287	0.866	1123073	TEST_ORIENT	n/a	n/a	1	3	FACE	FACE	SOCK	FACE	3	[0, 0, 0]	-999	PAL1	1	R1175N
609.153	0.0	1123939	TEST_PROBE	n/a	wordpools/wordpool_EN.txt	1	3	FACE	FACE	SOCK	FACE	3	[0, 0, 0]	-999	PAL1	1	R1175N
609.153	1.537	1123939	REC_START	n/a	n/a	1	-999	n/a	FACE	n/a	n/a	3	[0, 0, 0]	-999	PAL1	1	R1175N
610.69	1.036	1125476	REC_EVENT	1537	n/a	1	3	FACE	FACE	SOCK	FACE	3	[0, 0, 0]	-999	PAL1	1	R1175N
611.726	2.444	1126512	REC_EVENT	2573	n/a	1	3	FACE	<>	SOCK	FACE	3	[0, 0, 0]	-999	PAL1	1	R1175N
614.17	0.018	1128956	REC_END	n/a	n/a	1	-999	n/a	n/a	n/a	n/a	3	[0, 0, 0]	-999	PAL1	1	R1175N
614.188	0.866	1128974	TEST_ORIENT	n/a	n/a	6	4	FENCE	YARD	FENCE	POOL	3	[0, 0, 0]	-999	PAL1	1	R1175N
615.054	0.0	1129840	TEST_PROBE	n/a	wordpools/wordpool_EN.txt	6	4	FENCE	YARD	FENCE	POOL	3	[0, 0, 0]	-999	PAL1	1	R1175N
615.054	1.448	1129840	REC_START	n/a	n/a	6	-999	n/a	YARD	n/a	n/a	3	[0, 0, 0]	-999	PAL1	1	R1175N
616.502	0.648	1131288	REC_EVENT	1448	n/a	6	4	FENCE	FENCE	FENCE	POOL	3	[0, 0, 0]	-999	PAL1	1	R1175N
617.15	2.921	1131936	REC_EVENT	2096	n/a	6	4	FENCE	YARD	FENCE	POOL	3	[0, 0, 0]	-999	PAL1	1	R1175N
620.071	0.016	1134857	REC_END	n/a	n/a	6	-999	n/a	n/a	n/a	n/a	3	[0, 0, 0]	-999	PAL1	1	R1175N
620.087	0.934	1134873	TEST_ORIENT	n/a	n/a	5	5	CUP	BEACH	HAND	CUP	3	[0, 0, 0]	-999	PAL1	1	R1175N
621.021	0.0	1135807	REC_START	n/a	n/a	5	-999	n/a	BEACH	n/a	n/a	3	[0, 0, 0]	-999	PAL1	1	R1175N
621.021	1.505	1135807	TEST_PROBE	n/a	wordpools/wordpool_EN.txt	5	5	CUP	BEACH	HAND	CUP	3	[0, 0, 0]	-999	PAL1	1	R1175N
622.526	0.354	1137312	REC_EVENT	1505	n/a	5	5	CUP	CUP	HAND	CUP	3	[0, 0, 0]	-999	PAL1	1	R1175N
622.88	3.158	1137666	REC_EVENT	1859	n/a	5	5	CUP	BEACH	HAND	CUP	3	[0, 0, 0]	-999	PAL1	1	R1175N
626.038	0.017	1140824	REC_END	n/a	n/a	5	-999	n/a	n/a	n/a	n/a	3	[0, 0, 0]	-999	PAL1	1	R1175N
626.055	0.983	1140841	TEST_ORIENT	n/a	n/a	2	6	WAVE	HAND	WAVE	STEAK	3	[0, 0, 0]	-999	PAL1	1	R1175N
627.038	0.0	1141824	TEST_PROBE	n/a	wordpools/wordpool_EN.txt	2	6	WAVE	HAND	WAVE	STEAK	3	[0, 0, 0]	-999	PAL1	1	R1175N
627.038	1.225	1141824	REC_START	n/a	n/a	2	-999	n/a	HAND	n/a	n/a	3	[0, 0, 0]	-999	PAL1	1	R1175N
628.263	0.163	1143049	REC_EVENT	1225	n/a	2	6	WAVE	<>	WAVE	STEAK	3	[0, 0, 0]	-999	PAL1	1	R1175N
628.426	1.028	1143212	REC_EVENT	1388	n/a	2	6	WAVE	WAVE	WAVE	STEAK	3	[0, 0, 0]	-999	PAL1	1	R1175N
629.454	1.0	1144240	REC_EVENT	2416	n/a	2	6	WAVE	<>	WAVE	STEAK	3	[0, 0, 0]	-999	PAL1	1	R1175N
630.454	1.151	1145240	REC_EVENT	3416	n/a	2	6	WAVE	<>	WAVE	STEAK	3	[0, 0, 0]	-999	PAL1	1	R1175N
631.605	0.45	1146391	REC_EVENT	4567	n/a	2	6	WAVE	HAND	WAVE	STEAK	3	[0, 0, 0]	-999	PAL1	1	R1175N
632.055	10.536	1146841	REC_END	n/a	n/a	2	-999	n/a	n/a	n/a	n/a	3	[0, 0, 0]	-999	PAL1	1	R1175N
642.591	10.45	1157378	ENCODING_START	n/a	n/a	0	-999	n/a	n/a	n/a	n/a	4	[0, 0, 0]	-999	PAL1	1	R1175N
653.041	0.934	1167828	STUDY_ORIENT	n/a	n/a	1	5	ROSE	CLOTHES	ROSE	ARK	4	[0, 0, 0]	-999	PAL1	1	R1175N
653.975	5.033	1168762	STUDY_PAIR	n/a	wordpools/wordpool_EN.txt	1	5	ROSE	CLOTHES	ROSE	ARK	4	[0, 0, 0]	-999	PAL1	1	R1175N
659.008	0.95	1173795	STUDY_ORIENT	n/a	n/a	2	4	DOG	BOWL	SAIL	DOG	4	[0, 0, 0]	-999	PAL1	1	R1175N
659.958	5.018	1174745	STUDY_PAIR	n/a	wordpools/wordpool_EN.txt	2	4	DOG	BOWL	SAIL	DOG	4	[0, 0, 0]	-999	PAL1	1	R1175N
664.976	0.883	1179763	STUDY_ORIENT	n/a	n/a	3	1	BALL	BONE	FRUIT	BALL	4	[0, 0, 0]	-999	PAL1	1	R1175N
665.859	5.0	1180646	STUDY_PAIR	n/a	wordpools/wordpool_EN.txt	3	1	BALL	BONE	FRUIT	BALL	4	[0, 0, 0]	-999	PAL1	1	R1175N
670.859	0.952	1185646	STUDY_ORIENT	n/a	n/a	4	2	THREAD	THREAD	CART	THREAD	4	[0, 0, 0]	-999	PAL1	1	R1175N
671.811	5.034	1186598	STUDY_PAIR	n/a	wordpools/wordpool_EN.txt	4	2	THREAD	THREAD	CART	THREAD	4	[0, 0, 0]	-999	PAL1	1	R1175N
676.845	0.967	1191632	STUDY_ORIENT	n/a	n/a	5	3	BOY	n/a	TEETH	BOY	4	[0, 0, 0]	-999	PAL1	1	R1175N
677.812	5.033	1192599	STUDY_PAIR	n/a	wordpools/wordpool_EN.txt	5	3	BOY	n/a	TEETH	BOY	4	[0, 0, 0]	-999	PAL1	1	R1175N
682.845	1.001	1197632	STUDY_ORIENT	n/a	n/a	6	6	MOOSE	GOOSE	MOOSE	SHARK	4	[0, 0, 0]	-999	PAL1	1	R1175N
683.846	4.016	1198633	STUDY_PAIR	n/a	wordpools/wordpool_EN.txt	6	6	MOOSE	GOOSE	MOOSE	SHARK	4	[0, 0, 0]	-999	PAL1	1	R1175N
687.862	1.0	1202649	START	n/a	n/a	-999	-999	n/a	n/a	n/a	n/a	4	[-999, -999, -999]	-999	PAL1	1	R1175N
688.862	0.016	1203649	MATH_START	n/a	n/a	-999	-999	n/a	n/a	n/a	n/a	4	[0, 0, 0]	-999	PAL1	1	R1175N
688.878	5.935	1203665	PROB	5910	n/a	-999	-999	n/a	n/a	n/a	n/a	4	[7, 2, 7]	16	PAL1	1	R1175N
694.813	3.617	1209601	PROB	3599	n/a	-999	-999	n/a	n/a	n/a	n/a	4	[3, 3, 1]	7	PAL1	1	R1175N
698.43	3.617	1213218	PROB	3597	n/a	-999	-999	n/a	n/a	n/a	n/a	4	[4, 8, 8]	12	PAL1	1	R1175N
702.047	4.801	1216835	PROB	4772	n/a	-999	-999	n/a	n/a	n/a	n/a	4	[2, 6, 6]	14	PAL1	1	R1175N
706.848	4.923	1221636	PROB	4923	n/a	-999	-999	n/a	n/a	n/a	n/a	4	[1, 1, 6]	8	PAL1	1	R1175N
711.771	0.011	1226559	STOP	n/a	n/a	-999	-999	n/a	n/a	n/a	n/a	4	[-999, -999, -999]	-999	PAL1	1	R1175N
711.782	0.0	1226570	TEST_START	n/a	n/a	-999	-999	n/a	n/a	n/a	n/a	4	[0, 0, 0]	-999	PAL1	1	R1175N
711.782	0.017	1226570	MATH_END	n/a	n/a	-999	-999	n/a	n/a	n/a	n/a	4	[0, 0, 0]	-999	PAL1	1	R1175N
711.799	1.033	1226587	TEST_ORIENT	n/a	n/a	3	1	BALL	BONE	FRUIT	BALL	4	[0, 0, 0]	-999	PAL1	1	R1175N
712.832	0.001	1227620	TEST_PROBE	n/a	wordpools/wordpool_EN.txt	3	1	BALL	BONE	FRUIT	BALL	4	[0, 0, 0]	-999	PAL1	1	R1175N
712.833	2.274	1227621	REC_START	n/a	n/a	3	-999	n/a	BONE	n/a	n/a	4	[0, 0, 0]	-999	PAL1	1	R1175N
715.107	0.418	1229895	REC_EVENT	2274	n/a	3	1	BALL	<>	FRUIT	BALL	4	[0, 0, 0]	-999	PAL1	1	R1175N
715.525	2.333	1230313	REC_EVENT	2692	n/a	3	1	BALL	BONE	FRUIT	BALL	4	[0, 0, 0]	-999	PAL1	1	R1175N
717.858	0.007	1232646	REC_END	n/a	n/a	3	-999	n/a	n/a	n/a	n/a	4	[0, 0, 0]	-999	PAL1	1	R1175N
717.865	0.968	1232653	TEST_ORIENT	n/a	n/a	4	2	THREAD	THREAD	CART	THREAD	4	[0, 0, 0]	-999	PAL1	1	R1175N
718.833	0.001	1233621	TEST_PROBE	n/a	wordpools/wordpool_EN.txt	4	2	THREAD	THREAD	CART	THREAD	4	[0, 0, 0]	-999	PAL1	1	R1175N
718.834	1.129	1233622	REC_START	n/a	n/a	4	-999	n/a	THREAD	n/a	n/a	4	[0, 0, 0]	-999	PAL1	1	R1175N
719.963	2.126	1234751	REC_EVENT	1129	n/a	4	2	THREAD	THREAD	CART	THREAD	4	[0, 0, 0]	-999	PAL1	1	R1175N
722.089	1.0	1236877	REC_EVENT	3255	n/a	4	2	THREAD	<>	CART	THREAD	4	[0, 0, 0]	-999	PAL1	1	R1175N
723.089	0.77	1237877	REC_EVENT	4255	n/a	4	2	THREAD	<>	CART	THREAD	4	[0, 0, 0]	-999	PAL1	1	R1175N
723.859	0.007	1238647	REC_END	n/a	n/a	4	-999	n/a	n/a	n/a	n/a	4	[0, 0, 0]	-999	PAL1	1	R1175N
723.866	0.801	1238654	TEST_ORIENT	n/a	n/a	5	3	BOY	n/a	TEETH	BOY	4	[0, 0, 0]	-999	PAL1	1	R1175N
724.667	0.0	1239455	TEST_PROBE	n/a	wordpools/wordpool_EN.txt	5	3	BOY	n/a	TEETH	BOY	4	[0, 0, 0]	-999	PAL1	1	R1175N
724.667	3.585	1239455	REC_START	n/a	n/a	5	-999	n/a	n/a	n/a	n/a	4	[0, 0, 0]	-999	PAL1	1	R1175N
728.252	1.432	1243040	REC_EVENT	3585	n/a	5	3	BOY	<>	TEETH	BOY	4	[0, 0, 0]	-999	PAL1	1	R1175N
729.684	0.017	1244472	REC_END	n/a	n/a	5	-999	n/a	n/a	n/a	n/a	4	[0, 0, 0]	-999	PAL1	1	R1175N
729.701	1.0	1244489	TEST_ORIENT	n/a	n/a	2	4	DOG	BOWL	SAIL	DOG	4	[0, 0, 0]	-999	PAL1	1	R1175N
730.701	0.0	1245489	REC_START	n/a	n/a	2	-999	n/a	BOWL	n/a	n/a	4	[0, 0, 0]	-999	PAL1	1	R1175N
730.701	1.823	1245489	TEST_PROBE	n/a	wordpools/wordpool_EN.txt	2	4	DOG	BOWL	SAIL	DOG	4	[0, 0, 0]	-999	PAL1	1	R1175N
732.524	0.456	1247312	REC_EVENT	1823	n/a	2	4	DOG	DOG	SAIL	DOG	4	[0, 0, 0]	-999	PAL1	1	R1175N
732.98	2.738	1247768	REC_EVENT	2279	n/a	2	4	DOG	BOWL	SAIL	DOG	4	[0, 0, 0]	-999	PAL1	1	R1175N
735.718	0.017	1250506	REC_END	n/a	n/a	2	-999	n/a	n/a	n/a	n/a	4	[0, 0, 0]	-999	PAL1	1	R1175N
735.735	0.8	1250523	TEST_ORIENT	n/a	n/a	1	5	ROSE	CLOTHES	ROSE	ARK	4	[0, 0, 0]	-999	PAL1	1	R1175N
736.535	0.0	1251323	TEST_PROBE	n/a	wordpools/wordpool_EN.txt	1	5	ROSE	CLOTHES	ROSE	ARK	4	[0, 0, 0]	-999	PAL1	1	R1175N
736.535	1.902	1251323	REC_START	n/a	n/a	1	-999	n/a	CLOTHES	n/a	n/a	4	[0, 0, 0]	-999	PAL1	1	R1175N
738.437	3.115	1253225	REC_EVENT	1902	n/a	1	5	ROSE	CLOTHES	ROSE	ARK	4	[0, 0, 0]	-999	PAL1	1	R1175N
741.552	0.017	1256340	REC_END	n/a	n/a	1	-999	n/a	n/a	n/a	n/a	4	[0, 0, 0]	-999	PAL1	1	R1175N
741.569	1.016	1256357	TEST_ORIENT	n/a	n/a	6	6	MOOSE	GOOSE	MOOSE	SHARK	4	[0, 0, 0]	-999	PAL1	1	R1175N
742.585	0.001	1257374	TEST_PROBE	n/a	wordpools/wordpool_EN.txt	6	6	MOOSE	GOOSE	MOOSE	SHARK	4	[0, 0, 0]	-999	PAL1	1	R1175N
742.586	2.448	1257375	REC_START	n/a	n/a	6	-999	n/a	GOOSE	n/a	n/a	4	[0, 0, 0]	-999	PAL1	1	R1175N
745.034	2.568	1259823	REC_EVENT	2448	n/a	6	6	MOOSE	GOOSE	MOOSE	SHARK	4	[0, 0, 0]	-999	PAL1	1	R1175N
747.602	41.307	1262391	REC_END	n/a	n/a	6	-999	n/a	n/a	n/a	n/a	4	[0, 0, 0]	-999	PAL1	1	R1175N
788.909	10.449	1303698	ENCODING_START	n/a	n/a	0	-999	n/a	n/a	n/a	n/a	5	[0, 0, 0]	-999	PAL1	1	R1175N
799.358	1.017	1314148	STUDY_ORIENT	n/a	n/a	1	1	CASH	n/a	CHIN	CASH	5	[0, 0, 0]	-999	PAL1	1	R1175N
800.375	5.034	1315165	STUDY_PAIR	n/a	wordpools/wordpool_EN.txt	1	1	CASH	n/a	CHIN	CASH	5	[0, 0, 0]	-999	PAL1	1	R1175N
805.409	0.8	1320199	STUDY_ORIENT	n/a	n/a	2	6	GLOVE	n/a	GLOVE	TOE	5	[0, 0, 0]	-999	PAL1	1	R1175N
806.209	5.034	1320999	STUDY_PAIR	n/a	wordpools/wordpool_EN.txt	2	6	GLOVE	n/a	GLOVE	TOE	5	[0, 0, 0]	-999	PAL1	1	R1175N
811.243	1.017	1326033	STUDY_ORIENT	n/a	n/a	3	5	VEST	GLOVE	LOCK	VEST	5	[0, 0, 0]	-999	PAL1	1	R1175N
812.26	5.034	1327050	STUDY_PAIR	n/a	wordpools/wordpool_EN.txt	3	5	VEST	GLOVE	LOCK	VEST	5	[0, 0, 0]	-999	PAL1	1	R1175N
817.294	0.966	1332084	STUDY_ORIENT	n/a	n/a	4	4	MUD	BOY	LEG	MUD	5	[0, 0, 0]	-999	PAL1	1	R1175N
818.26	5.018	1333050	STUDY_PAIR	n/a	wordpools/wordpool_EN.txt	4	4	MUD	BOY	LEG	MUD	5	[0, 0, 0]	-999	PAL1	1	R1175N
823.278	0.966	1338068	STUDY_ORIENT	n/a	n/a	5	3	CLIFF	CLIFF	CLIFF	TOOTH	5	[0, 0, 0]	-999	PAL1	1	R1175N
824.244	5.018	1339034	STUDY_PAIR	n/a	wordpools/wordpool_EN.txt	5	3	CLIFF	CLIFF	CLIFF	TOOTH	5	[0, 0, 0]	-999	PAL1	1	R1175N
829.262	0.799	1344052	STUDY_ORIENT	n/a	n/a	6	2	RAKE	FISH	FISH	RAKE	5	[0, 0, 0]	-999	PAL1	1	R1175N
830.061	4.017	1344851	STUDY_PAIR	n/a	wordpools/wordpool_EN.txt	6	2	RAKE	FISH	FISH	RAKE	5	[0, 0, 0]	-999	PAL1	1	R1175N
834.078	1.0	1348868	START	n/a	n/a	-999	-999	n/a	n/a	n/a	n/a	5	[-999, -999, -999]	-999	PAL1	1	R1175N
835.078	0.017	1349868	MATH_START	n/a	n/a	-999	-999	n/a	n/a	n/a	n/a	5	[0, 0, 0]	-999	PAL1	1	R1175N
835.095	7.185	1349885	PROB	7164	n/a	-999	-999	n/a	n/a	n/a	n/a	5	[7, 7, 4]	18	PAL1	1	R1175N
842.28	8.517	1357070	PROB	8483	n/a	-999	-999	n/a	n/a	n/a	n/a	5	[3, 9, 7]	19	PAL1	1	R1175N
850.797	6.132	1365588	PROB	6132	n/a	-999	-999	n/a	n/a	n/a	n/a	5	[9, 4, 6]	19	PAL1	1	R1175N
856.929	0.018	1371720	STOP	n/a	n/a	-999	-999	n/a	n/a	n/a	n/a	5	[-999, -999, -999]	-999	PAL1	1	R1175N
856.947	0.0	1371738	TEST_START	n/a	n/a	-999	-999	n/a	n/a	n/a	n/a	5	[0, 0, 0]	-999	PAL1	1	R1175N
856.947	0.017	1371738	MATH_END	n/a	n/a	-999	-999	n/a	n/a	n/a	n/a	5	[0, 0, 0]	-999	PAL1	1	R1175N
856.964	0.851	1371755	TEST_ORIENT	n/a	n/a	1	1	CASH	n/a	CHIN	CASH	5	[0, 0, 0]	-999	PAL1	1	R1175N
857.815	0.0	1372606	TEST_PROBE	n/a	wordpools/wordpool_EN.txt	1	1	CASH	n/a	CHIN	CASH	5	[0, 0, 0]	-999	PAL1	1	R1175N
857.815	4.713	1372606	REC_START	n/a	n/a	1	-999	n/a	n/a	n/a	n/a	5	[0, 0, 0]	-999	PAL1	1	R1175N
862.528	0.304	1377319	REC_EVENT	4713	n/a	1	1	CASH	<>	CHIN	CASH	5	[0, 0, 0]	-999	PAL1	1	R1175N
862.832	0.017	1377623	REC_END	n/a	n/a	1	-999	n/a	n/a	n/a	n/a	5	[0, 0, 0]	-999	PAL1	1	R1175N
862.849	0.916	1377640	TEST_ORIENT	n/a	n/a	6	2	RAKE	FISH	FISH	RAKE	5	[0, 0, 0]	-999	PAL1	1	R1175N
863.765	0.001	1378556	TEST_PROBE	n/a	wordpools/wordpool_EN.txt	6	2	RAKE	FISH	FISH	RAKE	5	[0, 0, 0]	-999	PAL1	1	R1175N
863.766	1.17	1378557	REC_START	n/a	n/a	6	-999	n/a	FISH	n/a	n/a	5	[0, 0, 0]	-999	PAL1	1	R1175N
864.936	0.554	1379727	REC_EVENT	1170	n/a	6	2	RAKE	<>	FISH	RAKE	5	[0, 0, 0]	-999	PAL1	1	R1175N
865.49	3.286	1380281	REC_EVENT	1724	n/a	6	2	RAKE	FISH	FISH	RAKE	5	[0, 0, 0]	-999	PAL1	1	R1175N
868.776	0.023	1383567	REC_END	n/a	n/a	6	-999	n/a	n/a	n/a	n/a	5	[0, 0, 0]	-999	PAL1	1	R1175N
868.799	1.0	1383590	TEST_ORIENT	n/a	n/a	5	3	CLIFF	CLIFF	CLIFF	TOOTH	5	[0, 0, 0]	-999	PAL1	1	R1175N
869.799	0.001	1384590	TEST_PROBE	n/a	wordpools/wordpool_EN.txt	5	3	CLIFF	CLIFF	CLIFF	TOOTH	5	[0, 0, 0]	-999	PAL1	1	R1175N
869.8	1.221	1384591	REC_START	n/a	n/a	5	-999	n/a	CLIFF	n/a	n/a	5	[0, 0, 0]	-999	PAL1	1	R1175N
871.021	1.056	1385812	REC_EVENT	1221	n/a	5	3	CLIFF	CLIFF	CLIFF	TOOTH	5	[0, 0, 0]	-999	PAL1	1	R1175N
872.077	2.723	1386868	REC_EVENT	2277	n/a	5	3	CLIFF	<>	CLIFF	TOOTH	5	[0, 0, 0]	-999	PAL1	1	R1175N
874.8	0.017	1389591	REC_END	n/a	n/a	5	-999	n/a	n/a	n/a	n/a	5	[0, 0, 0]	-999	PAL1	1	R1175N
874.817	0.966	1389608	TEST_ORIENT	n/a	n/a	4	4	MUD	BOY	LEG	MUD	5	[0, 0, 0]	-999	PAL1	1	R1175N
875.783	0.001	1390574	TEST_PROBE	n/a	wordpools/wordpool_EN.txt	4	4	MUD	BOY	LEG	MUD	5	[0, 0, 0]	-999	PAL1	1	R1175N
875.784	1.237	1390575	REC_START	n/a	n/a	4	-999	n/a	BOY	n/a	n/a	5	[0, 0, 0]	-999	PAL1	1	R1175N
877.021	0.478	1391812	REC_EVENT	1237	n/a	4	4	MUD	MOTHER	LEG	MUD	5	[0, 0, 0]	-999	PAL1	1	R1175N
877.499	3.294	1392290	REC_EVENT	1715	n/a	4	4	MUD	BOY	LEG	MUD	5	[0, 0, 0]	-999	PAL1	1	R1175N
880.793	0.008	1395584	REC_END	n/a	n/a	4	-999	n/a	n/a	n/a	n/a	5	[0, 0, 0]	-999	PAL1	1	R1175N
880.801	0.883	1395592	TEST_ORIENT	n/a	n/a	3	5	VEST	GLOVE	LOCK	VEST	5	[0, 0, 0]	-999	PAL1	1	R1175N
881.684	0.001	1396475	TEST_PROBE	n/a	wordpools/wordpool_EN.txt	3	5	VEST	GLOVE	LOCK	VEST	5	[0, 0, 0]	-999	PAL1	1	R1175N
881.685	1.444	1396476	REC_START	n/a	n/a	3	-999	n/a	GLOVE	n/a	n/a	5	[0, 0, 0]	-999	PAL1	1	R1175N
883.129	2.396	1397920	REC_EVENT	1444	n/a	3	5	VEST	FISH	LOCK	VEST	5	[0, 0, 0]	-999	PAL1	1	R1175N
885.525	0.912	1400316	REC_EVENT	3840	n/a	3	5	VEST	<>	LOCK	VEST	5	[0, 0, 0]	-999	PAL1	1	R1175N
886.437	0.273	1401228	REC_EVENT	4752	n/a	3	5	VEST	GLOVE	LOCK	VEST	5	[0, 0, 0]	-999	PAL1	1	R1175N
886.71	0.008	1401501	REC_END	n/a	n/a	3	-999	n/a	n/a	n/a	n/a	5	[0, 0, 0]	-999	PAL1	1	R1175N
886.718	0.933	1401509	TEST_ORIENT	n/a	n/a	2	6	GLOVE	n/a	GLOVE	TOE	5	[0, 0, 0]	-999	PAL1	1	R1175N
887.651	0.001	1402442	TEST_PROBE	n/a	wordpools/wordpool_EN.txt	2	6	GLOVE	n/a	GLOVE	TOE	5	[0, 0, 0]	-999	PAL1	1	R1175N
887.652	4.736	1402443	REC_START	n/a	n/a	2	-999	n/a	n/a	n/a	n/a	5	[0, 0, 0]	-999	PAL1	1	R1175N
892.388	0.273	1407179	REC_EVENT	4736	n/a	2	6	GLOVE	<>	GLOVE	TOE	5	[0, 0, 0]	-999	PAL1	1	R1175N
892.661	3.747	1407452	REC_END	n/a	n/a	2	-999	n/a	n/a	n/a	n/a	5	[0, 0, 0]	-999	PAL1	1	R1175N
896.408	10.446	1411199	ENCODING_START	n/a	n/a	0	-999	n/a	n/a	n/a	n/a	6	[0, 0, 0]	-999	PAL1	1	R1175N
906.854	0.999	1421646	STUDY_ORIENT	n/a	n/a	1	3	KEY	KEY	KEY	MULE	6	[0, 0, 0]	-999	PAL1	1	R1175N
907.853	5.017	1422645	STUDY_PAIR	n/a	wordpools/wordpool_EN.txt	1	3	KEY	KEY	KEY	MULE	6	[0, 0, 0]	-999	PAL1	1	R1175N
912.87	0.884	1427662	STUDY_ORIENT	n/a	n/a	2	4	SNOW	n/a	ROCK	SNOW	6	[0, 0, 0]	-999	PAL1	1	R1175N
913.754	5.034	1428546	STUDY_PAIR	n/a	wordpools/wordpool_EN.txt	2	4	SNOW	n/a	ROCK	SNOW	6	[0, 0, 0]	-999	PAL1	1	R1175N
918.788	0.834	1433580	STUDY_ORIENT	n/a	n/a	3	5	ANT	ANT	PEN	ANT	6	[0, 0, 0]	-999	PAL1	1	R1175N
919.622	5.034	1434414	STUDY_PAIR	n/a	wordpools/wordpool_EN.txt	3	5	ANT	ANT	PEN	ANT	6	[0, 0, 0]	-999	PAL1	1	R1175N
924.656	0.8	1439448	STUDY_ORIENT	n/a	n/a	4	2	BADGE	n/a	WOLF	BADGE	6	[0, 0, 0]	-999	PAL1	1	R1175N
925.456	5.034	1440248	STUDY_PAIR	n/a	wordpools/wordpool_EN.txt	4	2	BADGE	n/a	WOLF	BADGE	6	[0, 0, 0]	-999	PAL1	1	R1175N
930.49	0.866	1445282	STUDY_ORIENT	n/a	n/a	5	1	HEN	HAND	BATH	HEN	6	[0, 0, 0]	-999	PAL1	1	R1175N
931.356	5.034	1446148	STUDY_PAIR	n/a	wordpools/wordpool_EN.txt	5	1	HEN	HAND	BATH	HEN	6	[0, 0, 0]	-999	PAL1	1	R1175N
936.39	0.784	1451182	STUDY_ORIENT	n/a	n/a	6	6	CLOUD	n/a	TRAIN	CLOUD	6	[0, 0, 0]	-999	PAL1	1	R1175N
937.174	4.017	1451966	STUDY_PAIR	n/a	wordpools/wordpool_EN.txt	6	6	CLOUD	n/a	TRAIN	CLOUD	6	[0, 0, 0]	-999	PAL1	1	R1175N
941.191	1.0	1455983	START	n/a	n/a	-999	-999	n/a	n/a	n/a	n/a	6	[-999, -999, -999]	-999	PAL1	1	R1175N
942.191	0.017	1456983	MATH_START	n/a	n/a	-999	-999	n/a	n/a	n/a	n/a	6	[0, 0, 0]	-999	PAL1	1	R1175N
942.208	16.734	1457000	PROB	16707	n/a	-999	-999	n/a	n/a	n/a	n/a	6	[9, 2, 3]	14	PAL1	1	R1175N
958.942	5.726	1473735	PROB	5726	n/a	-999	-999	n/a	n/a	n/a	n/a	6	[2, 3, 6]	11	PAL1	1	R1175N
964.668	0.009	1479461	STOP	n/a	n/a	-999	-999	n/a	n/a	n/a	n/a	6	[-999, -999, -999]	-999	PAL1	1	R1175N
964.677	0.0	1479470	MATH_END	n/a	n/a	-999	-999	n/a	n/a	n/a	n/a	6	[0, 0, 0]	-999	PAL1	1	R1175N
964.677	0.016	1479470	TEST_START	n/a	n/a	-999	-999	n/a	n/a	n/a	n/a	6	[0, 0, 0]	-999	PAL1	1	R1175N
964.693	1.0	1479486	TEST_ORIENT	n/a	n/a	5	1	HEN	HAND	BATH	HEN	6	[0, 0, 0]	-999	PAL1	1	R1175N
965.693	0.001	1480486	TEST_PROBE	n/a	wordpools/wordpool_EN.txt	5	1	HEN	HAND	BATH	HEN	6	[0, 0, 0]	-999	PAL1	1	R1175N
965.694	1.722	1480487	REC_START	n/a	n/a	5	-999	n/a	HAND	n/a	n/a	6	[0, 0, 0]	-999	PAL1	1	R1175N
967.416	0.45	1482209	REC_EVENT	1722	n/a	5	1	HEN	HAND	BATH	HEN	6	[0, 0, 0]	-999	PAL1	1	R1175N
967.866	2.837	1482659	REC_EVENT	2172	n/a	5	1	HEN	<>	BATH	HEN	6	[0, 0, 0]	-999	PAL1	1	R1175N
970.703	0.007	1485496	REC_END	n/a	n/a	5	-999	n/a	n/a	n/a	n/a	6	[0, 0, 0]	-999	PAL1	1	R1175N
970.71	0.934	1485503	TEST_ORIENT	n/a	n/a	4	2	BADGE	n/a	WOLF	BADGE	6	[0, 0, 0]	-999	PAL1	1	R1175N
971.644	0.0	1486437	REC_START	n/a	n/a	4	-999	n/a	n/a	n/a	n/a	6	[0, 0, 0]	-999	PAL1	1	R1175N
971.644	1.606	1486437	TEST_PROBE	n/a	wordpools/wordpool_EN.txt	4	2	BADGE	n/a	WOLF	BADGE	6	[0, 0, 0]	-999	PAL1	1	R1175N
973.25	3.411	1488043	REC_EVENT	1606	n/a	4	2	BADGE	<>	WOLF	BADGE	6	[0, 0, 0]	-999	PAL1	1	R1175N
976.661	0.017	1491454	REC_END	n/a	n/a	4	-999	n/a	n/a	n/a	n/a	6	[0, 0, 0]	-999	PAL1	1	R1175N
976.678	1.0	1491471	TEST_ORIENT	n/a	n/a	1	3	KEY	KEY	KEY	MULE	6	[0, 0, 0]	-999	PAL1	1	R1175N
977.678	0.001	1492471	TEST_PROBE	n/a	wordpools/wordpool_EN.txt	1	3	KEY	KEY	KEY	MULE	6	[0, 0, 0]	-999	PAL1	1	R1175N
977.679	1.663	1492472	REC_START	n/a	n/a	1	-999	n/a	KEY	n/a	n/a	6	[0, 0, 0]	-999	PAL1	1	R1175N
979.342	3.362	1494135	REC_EVENT	1663	n/a	1	3	KEY	KEY	KEY	MULE	6	[0, 0, 0]	-999	PAL1	1	R1175N
982.704	0.008	1497497	REC_END	n/a	n/a	1	-999	n/a	n/a	n/a	n/a	6	[0, 0, 0]	-999	PAL1	1	R1175N
982.712	0.85	1497505	TEST_ORIENT	n/a	n/a	2	4	SNOW	n/a	ROCK	SNOW	6	[0, 0, 0]	-999	PAL1	1	R1175N
983.562	0.0	1498355	REC_START	n/a	n/a	2	-999	n/a	n/a	n/a	n/a	6	[0, 0, 0]	-999	PAL1	1	R1175N
983.562	2.22	1498355	TEST_PROBE	n/a	wordpools/wordpool_EN.txt	2	4	SNOW	n/a	ROCK	SNOW	6	[0, 0, 0]	-999	PAL1	1	R1175N
985.782	2.797	1500575	REC_EVENT	2220	n/a	2	4	SNOW	<>	ROCK	SNOW	6	[0, 0, 0]	-999	PAL1	1	R1175N
988.579	0.017	1503372	REC_END	n/a	n/a	2	-999	n/a	n/a	n/a	n/a	6	[0, 0, 0]	-999	PAL1	1	R1175N
988.596	0.967	1503389	TEST_ORIENT	n/a	n/a	3	5	ANT	ANT	PEN	ANT	6	[0, 0, 0]	-999	PAL1	1	R1175N
989.563	0.0	1504356	TEST_PROBE	n/a	wordpools/wordpool_EN.txt	3	5	ANT	ANT	PEN	ANT	6	[0, 0, 0]	-999	PAL1	1	R1175N
989.563	1.855	1504356	REC_START	n/a	n/a	3	-999	n/a	ANT	n/a	n/a	6	[0, 0, 0]	-999	PAL1	1	R1175N
991.418	3.162	1506211	REC_EVENT	1855	n/a	3	5	ANT	ANT	PEN	ANT	6	[0, 0, 0]	-999	PAL1	1	R1175N
994.58	0.016	1509373	REC_END	n/a	n/a	3	-999	n/a	n/a	n/a	n/a	6	[0, 0, 0]	-999	PAL1	1	R1175N
994.596	0.934	1509389	TEST_ORIENT	n/a	n/a	6	6	CLOUD	n/a	TRAIN	CLOUD	6	[0, 0, 0]	-999	PAL1	1	R1175N
995.53	0.0	1510323	REC_START	n/a	n/a	6	-999	n/a	n/a	n/a	n/a	6	[0, 0, 0]	-999	PAL1	1	R1175N
995.53	1.686	1510323	TEST_PROBE	n/a	wordpools/wordpool_EN.txt	6	6	CLOUD	n/a	TRAIN	CLOUD	6	[0, 0, 0]	-999	PAL1	1	R1175N
997.216	3.331	1512009	REC_EVENT	1686	n/a	6	6	CLOUD	<>	TRAIN	CLOUD	6	[0, 0, 0]	-999	PAL1	1	R1175N
1000.547	41.908	1515340	REC_END	n/a	n/a	6	-999	n/a	n/a	n/a	n/a	6	[0, 0, 0]	-999	PAL1	1	R1175N
1042.455	10.447	1557249	ENCODING_START	n/a	n/a	0	-999	n/a	n/a	n/a	n/a	7	[0, 0, 0]	-999	PAL1	1	R1175N
1052.902	0.885	1567696	STUDY_ORIENT	n/a	n/a	1	3	JUICE	STOOL	JUICE	STOOL	7	[0, 0, 0]	-999	PAL1	1	R1175N
1053.787	5.034	1568581	STUDY_PAIR	n/a	wordpools/wordpool_EN.txt	1	3	JUICE	STOOL	JUICE	STOOL	7	[0, 0, 0]	-999	PAL1	1	R1175N
1058.821	1.0	1573615	STUDY_ORIENT	n/a	n/a	2	4	TOAD	TOAD	TOAD	GEESE	7	[0, 0, 0]	-999	PAL1	1	R1175N
1059.821	5.033	1574616	STUDY_PAIR	n/a	wordpools/wordpool_EN.txt	2	4	TOAD	TOAD	TOAD	GEESE	7	[0, 0, 0]	-999	PAL1	1	R1175N
1064.854	0.85	1579649	STUDY_ORIENT	n/a	n/a	3	5	VASE	n/a	VASE	FLOOR	7	[0, 0, 0]	-999	PAL1	1	R1175N
1065.704	5.018	1580499	STUDY_PAIR	n/a	wordpools/wordpool_EN.txt	3	5	VASE	n/a	VASE	FLOOR	7	[0, 0, 0]	-999	PAL1	1	R1175N
1070.722	0.95	1585517	STUDY_ORIENT	n/a	n/a	4	6	CROWN	PIG	CROWN	WING	7	[0, 0, 0]	-999	PAL1	1	R1175N
1071.672	5.034	1586467	STUDY_PAIR	n/a	wordpools/wordpool_EN.txt	4	6	CROWN	PIG	CROWN	WING	7	[0, 0, 0]	-999	PAL1	1	R1175N
1076.706	0.85	1591501	STUDY_ORIENT	n/a	n/a	5	1	PIG	n/a	OWL	PIG	7	[0, 0, 0]	-999	PAL1	1	R1175N
1077.556	5.034	1592351	STUDY_PAIR	n/a	wordpools/wordpool_EN.txt	5	1	PIG	n/a	OWL	PIG	7	[0, 0, 0]	-999	PAL1	1	R1175N
1082.59	0.933	1597385	STUDY_ORIENT	n/a	n/a	6	2	WORLD	n/a	STICK	WORLD	7	[0, 0, 0]	-999	PAL1	1	R1175N
1083.523	4.018	1598318	STUDY_PAIR	n/a	wordpools/wordpool_EN.txt	6	2	WORLD	n/a	STICK	WORLD	7	[0, 0, 0]	-999	PAL1	1	R1175N
1087.541	0.999	1602336	START	n/a	n/a	-999	-999	n/a	n/a	n/a	n/a	7	[-999, -999, -999]	-999	PAL1	1	R1175N
1088.54	0.017	1603335	MATH_START	n/a	n/a	-999	-999	n/a	n/a	n/a	n/a	7	[0, 0, 0]	-999	PAL1	1	R1175N
1088.557	8.784	1603352	PROB	8759	n/a	-999	-999	n/a	n/a	n/a	n/a	7	[9, 5, 5]	19	PAL1	1	R1175N
1097.341	8.951	1612136	PROB	8919	n/a	-999	-999	n/a	n/a	n/a	n/a	7	[7, 2, 5]	14	PAL1	1	R1175N
1106.292	5.031	1621087	PROB	5031	n/a	-999	-999	n/a	n/a	n/a	n/a	7	[2, 5, 4]	11	PAL1	1	R1175N
1111.323	0.003	1626118	STOP	n/a	n/a	-999	-999	n/a	n/a	n/a	n/a	7	[-999, -999, -999]	-999	PAL1	1	R1175N
1111.326	0.0	1626121	TEST_START	n/a	n/a	-999	-999	n/a	n/a	n/a	n/a	7	[0, 0, 0]	-999	PAL1	1	R1175N
1111.326	0.017	1626121	MATH_END	n/a	n/a	-999	-999	n/a	n/a	n/a	n/a	7	[0, 0, 0]	-999	PAL1	1	R1175N
1111.343	0.933	1626138	TEST_ORIENT	n/a	n/a	5	1	PIG	n/a	OWL	PIG	7	[0, 0, 0]	-999	PAL1	1	R1175N
1112.276	0.001	1627071	TEST_PROBE	n/a	wordpools/wordpool_EN.txt	5	1	PIG	n/a	OWL	PIG	7	[0, 0, 0]	-999	PAL1	1	R1175N
1112.277	4.806	1627072	REC_START	n/a	n/a	5	-999	n/a	n/a	n/a	n/a	7	[0, 0, 0]	-999	PAL1	1	R1175N
1117.083	0.22	1631879	REC_EVENT	4806	n/a	5	1	PIG	<>	OWL	PIG	7	[0, 0, 0]	-999	PAL1	1	R1175N
1117.303	0.007	1632099	REC_END	n/a	n/a	5	-999	n/a	n/a	n/a	n/a	7	[0, 0, 0]	-999	PAL1	1	R1175N
1117.31	0.967	1632106	TEST_ORIENT	n/a	n/a	6	2	WORLD	n/a	STICK	WORLD	7	[0, 0, 0]	-999	PAL1	1	R1175N
1118.277	0.0	1633073	TEST_PROBE	n/a	wordpools/wordpool_EN.txt	6	2	WORLD	n/a	STICK	WORLD	7	[0, 0, 0]	-999	PAL1	1	R1175N
1118.277	4.69	1633073	REC_START	n/a	n/a	6	-999	n/a	n/a	n/a	n/a	7	[0, 0, 0]	-999	PAL1	1	R1175N
1122.967	0.327	1637763	REC_EVENT	4690	n/a	6	2	WORLD	<>	STICK	WORLD	7	[0, 0, 0]	-999	PAL1	1	R1175N
1123.294	0.017	1638090	REC_END	n/a	n/a	6	-999	n/a	n/a	n/a	n/a	7	[0, 0, 0]	-999	PAL1	1	R1175N
1123.311	0.933	1638107	TEST_ORIENT	n/a	n/a	1	3	JUICE	STOOL	JUICE	STOOL	7	[0, 0, 0]	-999	PAL1	1	R1175N
1124.244	0.001	1639040	TEST_PROBE	n/a	wordpools/wordpool_EN.txt	1	3	JUICE	STOOL	JUICE	STOOL	7	[0, 0, 0]	-999	PAL1	1	R1175N
1124.245	0.974	1639041	REC_START	n/a	n/a	1	-999	n/a	STOOL	n/a	n/a	7	[0, 0, 0]	-999	PAL1	1	R1175N
1125.219	0.573	1640015	REC_EVENT	974	n/a	1	3	JUICE	NOSE	JUICE	STOOL	7	[0, 0, 0]	-999	PAL1	1	R1175N
1125.792	3.469	1640588	REC_EVENT	1547	n/a	1	3	JUICE	STOOL	JUICE	STOOL	7	[0, 0, 0]	-999	PAL1	1	R1175N
1129.261	0.017	1644057	REC_END	n/a	n/a	1	-999	n/a	n/a	n/a	n/a	7	[0, 0, 0]	-999	PAL1	1	R1175N
1129.278	0.9	1644074	TEST_ORIENT	n/a	n/a	2	4	TOAD	TOAD	TOAD	GEESE	7	[0, 0, 0]	-999	PAL1	1	R1175N
1130.178	0.001	1644974	TEST_PROBE	n/a	wordpools/wordpool_EN.txt	2	4	TOAD	TOAD	TOAD	GEESE	7	[0, 0, 0]	-999	PAL1	1	R1175N
1130.179	1.298	1644975	REC_START	n/a	n/a	2	-999	n/a	TOAD	n/a	n/a	7	[0, 0, 0]	-999	PAL1	1	R1175N
1131.477	0.388	1646273	REC_EVENT	1298	n/a	2	4	TOAD	<>	TOAD	GEESE	7	[0, 0, 0]	-999	PAL1	1	R1175N
1131.865	3.33	1646661	REC_EVENT	1686	n/a	2	4	TOAD	TOAD	TOAD	GEESE	7	[0, 0, 0]	-999	PAL1	1	R1175N
1135.195	0.017	1649991	REC_END	n/a	n/a	2	-999	n/a	n/a	n/a	n/a	7	[0, 0, 0]	-999	PAL1	1	R1175N
1135.212	0.933	1650008	TEST_ORIENT	n/a	n/a	3	5	VASE	n/a	VASE	FLOOR	7	[0, 0, 0]	-999	PAL1	1	R1175N
1136.145	0.0	1650941	TEST_PROBE	n/a	wordpools/wordpool_EN.txt	3	5	VASE	n/a	VASE	FLOOR	7	[0, 0, 0]	-999	PAL1	1	R1175N
1136.145	4.369	1650941	REC_START	n/a	n/a	3	-999	n/a	n/a	n/a	n/a	7	[0, 0, 0]	-999	PAL1	1	R1175N
1140.514	0.658	1655310	REC_EVENT	4369	n/a	3	5	VASE	<>	VASE	FLOOR	7	[0, 0, 0]	-999	PAL1	1	R1175N
1141.172	0.007	1655968	REC_END	n/a	n/a	3	-999	n/a	n/a	n/a	n/a	7	[0, 0, 0]	-999	PAL1	1	R1175N
1141.179	0.833	1655975	TEST_ORIENT	n/a	n/a	4	6	CROWN	PIG	CROWN	WING	7	[0, 0, 0]	-999	PAL1	1	R1175N
1142.012	0.0	1656808	TEST_PROBE	n/a	wordpools/wordpool_EN.txt	4	6	CROWN	PIG	CROWN	WING	7	[0, 0, 0]	-999	PAL1	1	R1175N
1142.012	1.721	1656808	REC_START	n/a	n/a	4	-999	n/a	PIG	n/a	n/a	7	[0, 0, 0]	-999	PAL1	1	R1175N
1143.733	1.155	1658529	REC_EVENT	1721	n/a	4	6	CROWN	<>	CROWN	WING	7	[0, 0, 0]	-999	PAL1	1	R1175N
1144.888	2.141	1659684	REC_EVENT	2876	n/a	4	6	CROWN	PIG	CROWN	WING	7	[0, 0, 0]	-999	PAL1	1	R1175N
1147.029	31.889	1661825	REC_END	n/a	n/a	4	-999	n/a	n/a	n/a	n/a	7	[0, 0, 0]	-999	PAL1	1	R1175N
1178.918	10.45	1693715	ENCODING_START	n/a	n/a	0	-999	n/a	n/a	n/a	n/a	8	[0, 0, 0]	-999	PAL1	1	R1175N
1189.368	1.0	1704165	STUDY_ORIENT	n/a	n/a	1	3	TRAY	FUR	FUR	TRAY	8	[0, 0, 0]	-999	PAL1	1	R1175N
1190.368	5.018	1705165	STUDY_PAIR	n/a	wordpools/wordpool_EN.txt	1	3	TRAY	FUR	FUR	TRAY	8	[0, 0, 0]	-999	PAL1	1	R1175N
1195.386	0.883	1710183	STUDY_ORIENT	n/a	n/a	2	2	BLOOM	n/a	BLOOM	BEAK	8	[0, 0, 0]	-999	PAL1	1	R1175N
1196.269	5.034	1711066	STUDY_PAIR	n/a	wordpools/wordpool_EN.txt	2	2	BLOOM	n/a	BLOOM	BEAK	8	[0, 0, 0]	-999	PAL1	1	R1175N
1201.303	0.9	1716100	STUDY_ORIENT	n/a	n/a	3	1	SEED	MOUSE	MOUSE	SEED	8	[0, 0, 0]	-999	PAL1	1	R1175N
1202.203	5.034	1717000	STUDY_PAIR	n/a	wordpools/wordpool_EN.txt	3	1	SEED	MOUSE	MOUSE	SEED	8	[0, 0, 0]	-999	PAL1	1	R1175N
1207.237	1.017	1722034	STUDY_ORIENT	n/a	n/a	4	6	HORN	HORN	CONE	HORN	8	[0, 0, 0]	-999	PAL1	1	R1175N
1208.254	5.034	1723051	STUDY_PAIR	n/a	wordpools/wordpool_EN.txt	4	6	HORN	HORN	CONE	HORN	8	[0, 0, 0]	-999	PAL1	1	R1175N
1213.288	0.983	1728085	STUDY_ORIENT	n/a	n/a	5	5	FORK	FORK	FORK	RUG	8	[0, 0, 0]	-999	PAL1	1	R1175N
1214.271	5.034	1729068	STUDY_PAIR	n/a	wordpools/wordpool_EN.txt	5	5	FORK	FORK	FORK	RUG	8	[0, 0, 0]	-999	PAL1	1	R1175N
1219.305	0.983	1734103	STUDY_ORIENT	n/a	n/a	6	4	CAKE	CAKE	CAKE	DESK	8	[0, 0, 0]	-999	PAL1	1	R1175N
1220.288	4.018	1735086	STUDY_PAIR	n/a	wordpools/wordpool_EN.txt	6	4	CAKE	CAKE	CAKE	DESK	8	[0, 0, 0]	-999	PAL1	1	R1175N
1224.306	0.999	1739104	START	n/a	n/a	-999	-999	n/a	n/a	n/a	n/a	8	[-999, -999, -999]	-999	PAL1	1	R1175N
1225.305	0.017	1740103	MATH_START	n/a	n/a	-999	-999	n/a	n/a	n/a	n/a	8	[0, 0, 0]	-999	PAL1	1	R1175N
1225.322	8.884	1740120	PROB	8866	n/a	-999	-999	n/a	n/a	n/a	n/a	8	[5, 2, 7]	14	PAL1	1	R1175N
1234.206	6.834	1749004	PROB	6805	n/a	-999	-999	n/a	n/a	n/a	n/a	8	[9, 5, 3]	17	PAL1	1	R1175N
1241.04	4.395	1755838	PROB	4395	n/a	-999	-999	n/a	n/a	n/a	n/a	8	[6, 9, 4]	19	PAL1	1	R1175N
1245.435	0.006	1760233	STOP	n/a	n/a	-999	-999	n/a	n/a	n/a	n/a	8	[-999, -999, -999]	-999	PAL1	1	R1175N
1245.441	0.0	1760239	MATH_END	n/a	n/a	-999	-999	n/a	n/a	n/a	n/a	8	[0, 0, 0]	-999	PAL1	1	R1175N
1245.441	0.017	1760239	TEST_START	n/a	n/a	-999	-999	n/a	n/a	n/a	n/a	8	[0, 0, 0]	-999	PAL1	1	R1175N
1245.458	0.85	1760256	TEST_ORIENT	n/a	n/a	3	1	SEED	MOUSE	MOUSE	SEED	8	[0, 0, 0]	-999	PAL1	1	R1175N
1246.308	0.0	1761106	REC_START	n/a	n/a	3	-999	n/a	MOUSE	n/a	n/a	8	[0, 0, 0]	-999	PAL1	1	R1175N
1246.308	1.543	1761106	TEST_PROBE	n/a	wordpools/wordpool_EN.txt	3	1	SEED	MOUSE	MOUSE	SEED	8	[0, 0, 0]	-999	PAL1	1	R1175N
1247.851	3.474	1762649	REC_EVENT	1543	n/a	3	1	SEED	MOUSE	MOUSE	SEED	8	[0, 0, 0]	-999	PAL1	1	R1175N
1251.325	0.017	1766123	REC_END	n/a	n/a	3	-999	n/a	n/a	n/a	n/a	8	[0, 0, 0]	-999	PAL1	1	R1175N
1251.342	0.95	1766140	TEST_ORIENT	n/a	n/a	2	2	BLOOM	n/a	BLOOM	BEAK	8	[0, 0, 0]	-999	PAL1	1	R1175N
1252.292	0.001	1767090	TEST_PROBE	n/a	wordpools/wordpool_EN.txt	2	2	BLOOM	n/a	BLOOM	BEAK	8	[0, 0, 0]	-999	PAL1	1	R1175N
1252.293	1.436	1767091	REC_START	n/a	n/a	2	-999	n/a	n/a	n/a	n/a	8	[0, 0, 0]	-999	PAL1	1	R1175N
1253.729	3.589	1768527	REC_EVENT	1436	n/a	2	2	BLOOM	<>	BLOOM	BEAK	8	[0, 0, 0]	-999	PAL1	1	R1175N
1257.318	0.007	1772116	REC_END	n/a	n/a	2	-999	n/a	n/a	n/a	n/a	8	[0, 0, 0]	-999	PAL1	1	R1175N
1257.325	0.901	1772123	TEST_ORIENT	n/a	n/a	1	3	TRAY	FUR	FUR	TRAY	8	[0, 0, 0]	-999	PAL1	1	R1175N
1258.226	0.0	1773024	REC_START	n/a	n/a	1	-999	n/a	FUR	n/a	n/a	8	[0, 0, 0]	-999	PAL1	1	R1175N
1258.226	0.966	1773024	TEST_PROBE	n/a	wordpools/wordpool_EN.txt	1	3	TRAY	FUR	FUR	TRAY	8	[0, 0, 0]	-999	PAL1	1	R1175N
1259.192	4.051	1773990	REC_EVENT	966	n/a	1	3	TRAY	FUR	FUR	TRAY	8	[0, 0, 0]	-999	PAL1	1	R1175N
1263.243	0.017	1778041	REC_END	n/a	n/a	1	-999	n/a	n/a	n/a	n/a	8	[0, 0, 0]	-999	PAL1	1	R1175N
1263.26	0.832	1778058	TEST_ORIENT	n/a	n/a	6	4	CAKE	CAKE	CAKE	DESK	8	[0, 0, 0]	-999	PAL1	1	R1175N
1264.092	0.001	1778890	TEST_PROBE	n/a	wordpools/wordpool_EN.txt	6	4	CAKE	CAKE	CAKE	DESK	8	[0, 0, 0]	-999	PAL1	1	R1175N
1264.093	1.463	1778891	REC_START	n/a	n/a	6	-999	n/a	CAKE	n/a	n/a	8	[0, 0, 0]	-999	PAL1	1	R1175N
1265.556	1.121	1780354	REC_EVENT	1463	n/a	6	4	CAKE	CAKE	CAKE	DESK	8	[0, 0, 0]	-999	PAL1	1	R1175N
1266.677	2.432	1781475	REC_EVENT	2584	n/a	6	4	CAKE	<>	CAKE	DESK	8	[0, 0, 0]	-999	PAL1	1	R1175N
1269.109	0.017	1783907	REC_END	n/a	n/a	6	-999	n/a	n/a	n/a	n/a	8	[0, 0, 0]	-999	PAL1	1	R1175N
1269.126	1.017	1783924	TEST_ORIENT	n/a	n/a	5	5	FORK	FORK	FORK	RUG	8	[0, 0, 0]	-999	PAL1	1	R1175N
1270.143	0.0	1784941	TEST_PROBE	n/a	wordpools/wordpool_EN.txt	5	5	FORK	FORK	FORK	RUG	8	[0, 0, 0]	-999	PAL1	1	R1175N
1270.143	2.239	1784941	REC_START	n/a	n/a	5	-999	n/a	FORK	n/a	n/a	8	[0, 0, 0]	-999	PAL1	1	R1175N
1272.382	2.778	1787181	REC_EVENT	2239	n/a	5	5	FORK	FORK	FORK	RUG	8	[0, 0, 0]	-999	PAL1	1	R1175N
1275.16	0.018	1789959	REC_END	n/a	n/a	5	-999	n/a	n/a	n/a	n/a	8	[0, 0, 0]	-999	PAL1	1	R1175N
1275.178	0.916	1789977	TEST_ORIENT	n/a	n/a	4	6	HORN	HORN	CONE	HORN	8	[0, 0, 0]	-999	PAL1	1	R1175N
1276.094	0.0	1790893	TEST_PROBE	n/a	wordpools/wordpool_EN.txt	4	6	HORN	HORN	CONE	HORN	8	[0, 0, 0]	-999	PAL1	1	R1175N
1276.094	0.0	1790893	REC_START	n/a	n/a	4	-999	n/a	HORN	n/a	n/a	8	[0, 0, 0]	-999	PAL1	1	R1175N
1276.094	0.489	1790893	REC_EVENT	0	n/a	4	6	HORN	BEAK	CONE	HORN	8	[0, 0, 0]	-999	PAL1	1	R1175N
1276.583	1.296	1791382	REC_EVENT	489	n/a	4	6	HORN	FORK	CONE	HORN	8	[0, 0, 0]	-999	PAL1	1	R1175N
1277.879	3.232	1792678	REC_EVENT	1785	n/a	4	6	HORN	HORN	CONE	HORN	8	[0, 0, 0]	-999	PAL1	1	R1175N
1281.111	4.114	1795910	REC_END	n/a	n/a	4	-999	n/a	n/a	n/a	n/a	8	[0, 0, 0]	-999	PAL1	1	R1175N
1285.225	10.438	1800024	ENCODING_START	n/a	n/a	0	-999	n/a	n/a	n/a	n/a	9	[0, 0, 0]	-999	PAL1	1	R1175N
1295.663	0.884	1810462	STUDY_ORIENT	n/a	n/a	1	5	STORE	STREAK	STORE	MAZE	9	[0, 0, 0]	-999	PAL1	1	R1175N
1296.547	5.034	1811346	STUDY_PAIR	n/a	wordpools/wordpool_EN.txt	1	5	STORE	STREAK	STORE	MAZE	9	[0, 0, 0]	-999	PAL1	1	R1175N
1301.581	1.0	1816380	STUDY_ORIENT	n/a	n/a	2	2	JUDGE	n/a	JUDGE	CHALK	9	[0, 0, 0]	-999	PAL1	1	R1175N
1302.581	5.034	1817380	STUDY_PAIR	n/a	wordpools/wordpool_EN.txt	2	2	JUDGE	n/a	JUDGE	CHALK	9	[0, 0, 0]	-999	PAL1	1	R1175N
1307.615	0.917	1822414	STUDY_ORIENT	n/a	n/a	3	3	MOTH	n/a	MOTH	WAND	9	[0, 0, 0]	-999	PAL1	1	R1175N
1308.532	5.033	1823331	STUDY_PAIR	n/a	wordpools/wordpool_EN.txt	3	3	MOTH	n/a	MOTH	WAND	9	[0, 0, 0]	-999	PAL1	1	R1175N
1313.565	0.85	1828364	STUDY_ORIENT	n/a	n/a	4	4	WOOD	WINE	WOOD	WHALE	9	[0, 0, 0]	-999	PAL1	1	R1175N
1314.415	5.018	1829214	STUDY_PAIR	n/a	wordpools/wordpool_EN.txt	4	4	WOOD	WINE	WOOD	WHALE	9	[0, 0, 0]	-999	PAL1	1	R1175N
1319.433	0.95	1834232	STUDY_ORIENT	n/a	n/a	5	1	SPARK	n/a	SPARK	MAT	9	[0, 0, 0]	-999	PAL1	1	R1175N
1320.383	5.034	1835182	STUDY_PAIR	n/a	wordpools/wordpool_EN.txt	5	1	SPARK	n/a	SPARK	MAT	9	[0, 0, 0]	-999	PAL1	1	R1175N
1325.417	0.816	1840217	STUDY_ORIENT	n/a	n/a	6	6	ROPE	WAND	ROPE	TOY	9	[0, 0, 0]	-999	PAL1	1	R1175N
1326.233	4.001	1841033	STUDY_PAIR	n/a	wordpools/wordpool_EN.txt	6	6	ROPE	WAND	ROPE	TOY	9	[0, 0, 0]	-999	PAL1	1	R1175N
1330.234	1.0	1845034	START	n/a	n/a	-999	-999	n/a	n/a	n/a	n/a	9	[-999, -999, -999]	-999	PAL1	1	R1175N
1331.234	0.017	1846034	MATH_START	n/a	n/a	-999	-999	n/a	n/a	n/a	n/a	9	[0, 0, 0]	-999	PAL1	1	R1175N
1331.251	9.967	1846051	PROB	9939	n/a	-999	-999	n/a	n/a	n/a	n/a	9	[3, 6, 6]	15	PAL1	1	R1175N
1341.218	5.534	1856018	PROB	5516	n/a	-999	-999	n/a	n/a	n/a	n/a	9	[6, 1, 4]	11	PAL1	1	R1175N
1346.752	10.045	1861552	PROB	10045	n/a	-999	-999	n/a	n/a	n/a	n/a	9	[8, 8, 8]	24	PAL1	1	R1175N
1356.797	0.007	1871597	STOP	n/a	n/a	-999	-999	n/a	n/a	n/a	n/a	9	[-999, -999, -999]	-999	PAL1	1	R1175N
1356.804	0.0	1871604	MATH_END	n/a	n/a	-999	-999	n/a	n/a	n/a	n/a	9	[0, 0, 0]	-999	PAL1	1	R1175N
1356.804	0.016	1871604	TEST_START	n/a	n/a	-999	-999	n/a	n/a	n/a	n/a	9	[0, 0, 0]	-999	PAL1	1	R1175N
1356.82	0.834	1871620	TEST_ORIENT	n/a	n/a	5	1	SPARK	n/a	SPARK	MAT	9	[0, 0, 0]	-999	PAL1	1	R1175N
1357.654	0.0	1872454	REC_START	n/a	n/a	5	-999	n/a	n/a	n/a	n/a	9	[0, 0, 0]	-999	PAL1	1	R1175N
1357.654	2.173	1872454	TEST_PROBE	n/a	wordpools/wordpool_EN.txt	5	1	SPARK	n/a	SPARK	MAT	9	[0, 0, 0]	-999	PAL1	1	R1175N
1359.827	2.844	1874627	REC_EVENT	2173	n/a	5	1	SPARK	<>	SPARK	MAT	9	[0, 0, 0]	-999	PAL1	1	R1175N
1362.671	0.016	1877471	REC_END	n/a	n/a	5	-999	n/a	n/a	n/a	n/a	9	[0, 0, 0]	-999	PAL1	1	R1175N
1362.687	1.017	1877487	TEST_ORIENT	n/a	n/a	2	2	JUDGE	n/a	JUDGE	CHALK	9	[0, 0, 0]	-999	PAL1	1	R1175N
1363.704	0.001	1878504	TEST_PROBE	n/a	wordpools/wordpool_EN.txt	2	2	JUDGE	n/a	JUDGE	CHALK	9	[0, 0, 0]	-999	PAL1	1	R1175N
1363.705	1.382	1878505	REC_START	n/a	n/a	2	-999	n/a	n/a	n/a	n/a	9	[0, 0, 0]	-999	PAL1	1	R1175N
1365.087	3.643	1879887	REC_EVENT	1382	n/a	2	2	JUDGE	<>	JUDGE	CHALK	9	[0, 0, 0]	-999	PAL1	1	R1175N
1368.73	0.008	1883530	REC_END	n/a	n/a	2	-999	n/a	n/a	n/a	n/a	9	[0, 0, 0]	-999	PAL1	1	R1175N
1368.738	0.8	1883538	TEST_ORIENT	n/a	n/a	3	3	MOTH	n/a	MOTH	WAND	9	[0, 0, 0]	-999	PAL1	1	R1175N
1369.538	0.001	1884338	TEST_PROBE	n/a	wordpools/wordpool_EN.txt	3	3	MOTH	n/a	MOTH	WAND	9	[0, 0, 0]	-999	PAL1	1	R1175N
1369.539	1.738	1884339	REC_START	n/a	n/a	3	-999	n/a	n/a	n/a	n/a	9	[0, 0, 0]	-999	PAL1	1	R1175N
1371.277	3.287	1886077	REC_EVENT	1738	n/a	3	3	MOTH	<>	MOTH	WAND	9	[0, 0, 0]	-999	PAL1	1	R1175N
1374.564	0.008	1889364	REC_END	n/a	n/a	3	-999	n/a	n/a	n/a	n/a	9	[0, 0, 0]	-999	PAL1	1	R1175N
1374.572	1.0	1889372	TEST_ORIENT	n/a	n/a	4	4	WOOD	WINE	WOOD	WHALE	9	[0, 0, 0]	-999	PAL1	1	R1175N
1375.572	0.001	1890372	TEST_PROBE	n/a	wordpools/wordpool_EN.txt	4	4	WOOD	WINE	WOOD	WHALE	9	[0, 0, 0]	-999	PAL1	1	R1175N
1375.573	0.779	1890373	REC_START	n/a	n/a	4	-999	n/a	WINE	n/a	n/a	9	[0, 0, 0]	-999	PAL1	1	R1175N
1376.352	0.228	1891152	REC_EVENT	779	n/a	4	4	WOOD	<>	WOOD	WHALE	9	[0, 0, 0]	-999	PAL1	1	R1175N
1376.58	0.624	1891380	REC_EVENT	1007	n/a	4	4	WOOD	WOOD	WOOD	WHALE	9	[0, 0, 0]	-999	PAL1	1	R1175N
1377.204	3.394	1892004	REC_EVENT	1631	n/a	4	4	WOOD	WINE	WOOD	WHALE	9	[0, 0, 0]	-999	PAL1	1	R1175N
1380.598	0.008	1895399	REC_END	n/a	n/a	4	-999	n/a	n/a	n/a	n/a	9	[0, 0, 0]	-999	PAL1	1	R1175N
1380.606	0.917	1895407	TEST_ORIENT	n/a	n/a	1	5	STORE	STREAK	STORE	MAZE	9	[0, 0, 0]	-999	PAL1	1	R1175N
1381.523	0.0	1896324	TEST_PROBE	n/a	wordpools/wordpool_EN.txt	1	5	STORE	STREAK	STORE	MAZE	9	[0, 0, 0]	-999	PAL1	1	R1175N
1381.523	1.52	1896324	REC_START	n/a	n/a	1	-999	n/a	STREAK	n/a	n/a	9	[0, 0, 0]	-999	PAL1	1	R1175N
1383.043	0.691	1897844	REC_EVENT	1520	n/a	1	5	STORE	STORE	STORE	MAZE	9	[0, 0, 0]	-999	PAL1	1	R1175N
1383.734	2.815	1898535	REC_EVENT	2211	n/a	1	5	STORE	STREAK	STORE	MAZE	9	[0, 0, 0]	-999	PAL1	1	R1175N
1386.549	0.008	1901350	REC_END	n/a	n/a	1	-999	n/a	n/a	n/a	n/a	9	[0, 0, 0]	-999	PAL1	1	R1175N
1386.557	0.9	1901358	TEST_ORIENT	n/a	n/a	6	6	ROPE	WAND	ROPE	TOY	9	[0, 0, 0]	-999	PAL1	1	R1175N
1387.457	0.0	1902258	TEST_PROBE	n/a	wordpools/wordpool_EN.txt	6	6	ROPE	WAND	ROPE	TOY	9	[0, 0, 0]	-999	PAL1	1	R1175N
1387.457	1.829	1902258	REC_START	n/a	n/a	6	-999	n/a	WAND	n/a	n/a	9	[0, 0, 0]	-999	PAL1	1	R1175N
1389.286	0.58	1904087	REC_EVENT	1829	n/a	6	6	ROPE	WOOD	ROPE	TOY	9	[0, 0, 0]	-999	PAL1	1	R1175N
1389.866	2.608	1904667	REC_EVENT	2409	n/a	6	6	ROPE	WAND	ROPE	TOY	9	[0, 0, 0]	-999	PAL1	1	R1175N
1392.474	11.728	1907275	REC_END	n/a	n/a	6	-999	n/a	n/a	n/a	n/a	9	[0, 0, 0]	-999	PAL1	1	R1175N
1404.202	10.441	1919003	ENCODING_START	n/a	n/a	0	-999	n/a	n/a	n/a	n/a	10	[0, 0, 0]	-999	PAL1	1	R1175N
1414.643	1.0	1929444	STUDY_ORIENT	n/a	n/a	1	3	PEA	SEA	GUARD	PEA	10	[0, 0, 0]	-999	PAL1	1	R1175N
1415.643	5.034	1930444	STUDY_PAIR	n/a	wordpools/wordpool_EN.txt	1	3	PEA	SEA	GUARD	PEA	10	[0, 0, 0]	-999	PAL1	1	R1175N
1420.677	1.0	1935478	STUDY_ORIENT	n/a	n/a	2	2	BAND	ICE	BAND	HAWK	10	[0, 0, 0]	-999	PAL1	1	R1175N
1421.677	5.034	1936478	STUDY_PAIR	n/a	wordpools/wordpool_EN.txt	2	2	BAND	ICE	BAND	HAWK	10	[0, 0, 0]	-999	PAL1	1	R1175N
1426.711	0.984	1941512	STUDY_ORIENT	n/a	n/a	3	1	FOX	TREE	FOX	POLE	10	[0, 0, 0]	-999	PAL1	1	R1175N
1427.695	5.034	1942496	STUDY_PAIR	n/a	wordpools/wordpool_EN.txt	3	1	FOX	TREE	FOX	POLE	10	[0, 0, 0]	-999	PAL1	1	R1175N
1432.729	0.933	1947531	STUDY_ORIENT	n/a	n/a	4	4	SKY	n/a	SKY	PANTS	10	[0, 0, 0]	-999	PAL1	1	R1175N
1433.662	5.034	1948464	STUDY_PAIR	n/a	wordpools/wordpool_EN.txt	4	4	SKY	n/a	SKY	PANTS	10	[0, 0, 0]	-999	PAL1	1	R1175N
1438.696	0.833	1953498	STUDY_ORIENT	n/a	n/a	5	5	PALM	HAND	PALM	TEA	10	[0, 0, 0]	-999	PAL1	1	R1175N
1439.529	5.034	1954331	STUDY_PAIR	n/a	wordpools/wordpool_EN.txt	5	5	PALM	HAND	PALM	TEA	10	[0, 0, 0]	-999	PAL1	1	R1175N
1444.563	0.867	1959365	STUDY_ORIENT	n/a	n/a	6	6	GRASS	GRASS	GRASS	ICE	10	[0, 0, 0]	-999	PAL1	1	R1175N
1445.43	4.018	1960232	STUDY_PAIR	n/a	wordpools/wordpool_EN.txt	6	6	GRASS	GRASS	GRASS	ICE	10	[0, 0, 0]	-999	PAL1	1	R1175N
1449.448	0.999	1964250	START	n/a	n/a	-999	-999	n/a	n/a	n/a	n/a	10	[-999, -999, -999]	-999	PAL1	1	R1175N
1450.447	0.017	1965249	MATH_START	n/a	n/a	-999	-999	n/a	n/a	n/a	n/a	10	[0, 0, 0]	-999	PAL1	1	R1175N
1450.464	13.735	1965266	PROB	13711	n/a	-999	-999	n/a	n/a	n/a	n/a	10	[4, 9, 3]	15	PAL1	1	R1175N
1464.199	5.067	1979001	PROB	5047	n/a	-999	-999	n/a	n/a	n/a	n/a	10	[3, 7, 3]	13	PAL1	1	R1175N
1469.266	6.667	1984068	PROB	6667	n/a	-999	-999	n/a	n/a	n/a	n/a	10	[1, 5, 9]	15	PAL1	1	R1175N
1475.933	0.016	1990735	STOP	n/a	n/a	-999	-999	n/a	n/a	n/a	n/a	10	[-999, -999, -999]	-999	PAL1	1	R1175N
1475.949	0.0	1990751	MATH_END	n/a	n/a	-999	-999	n/a	n/a	n/a	n/a	10	[0, 0, 0]	-999	PAL1	1	R1175N
1475.949	0.017	1990751	TEST_START	n/a	n/a	-999	-999	n/a	n/a	n/a	n/a	10	[0, 0, 0]	-999	PAL1	1	R1175N
1475.966	0.95	1990768	TEST_ORIENT	n/a	n/a	3	1	FOX	TREE	FOX	POLE	10	[0, 0, 0]	-999	PAL1	1	R1175N
1476.916	0.0	1991718	REC_START	n/a	n/a	3	-999	n/a	TREE	n/a	n/a	10	[0, 0, 0]	-999	PAL1	1	R1175N
1476.916	1.665	1991718	TEST_PROBE	n/a	wordpools/wordpool_EN.txt	3	1	FOX	TREE	FOX	POLE	10	[0, 0, 0]	-999	PAL1	1	R1175N
1478.581	0.48	1993383	REC_EVENT	1665	n/a	3	1	FOX	<>	FOX	POLE	10	[0, 0, 0]	-999	PAL1	1	R1175N
1479.061	2.881	1993863	REC_EVENT	2145	n/a	3	1	FOX	TREE	FOX	POLE	10	[0, 0, 0]	-999	PAL1	1	R1175N
1481.942	0.007	1996744	REC_END	n/a	n/a	3	-999	n/a	n/a	n/a	n/a	10	[0, 0, 0]	-999	PAL1	1	R1175N
1481.949	0.868	1996751	TEST_ORIENT	n/a	n/a	2	2	BAND	ICE	BAND	HAWK	10	[0, 0, 0]	-999	PAL1	1	R1175N
1482.817	0.001	1997619	TEST_PROBE	n/a	wordpools/wordpool_EN.txt	2	2	BAND	ICE	BAND	HAWK	10	[0, 0, 0]	-999	PAL1	1	R1175N
1482.818	1.045	1997620	REC_START	n/a	n/a	2	-999	n/a	ICE	n/a	n/a	10	[0, 0, 0]	-999	PAL1	1	R1175N
1483.863	0.539	1998666	REC_EVENT	1045	n/a	2	2	BAND	BAND	BAND	HAWK	10	[0, 0, 0]	-999	PAL1	1	R1175N
1484.402	3.425	1999205	REC_EVENT	1584	n/a	2	2	BAND	ICE	BAND	HAWK	10	[0, 0, 0]	-999	PAL1	1	R1175N
1487.827	0.008	2002630	REC_END	n/a	n/a	2	-999	n/a	n/a	n/a	n/a	10	[0, 0, 0]	-999	PAL1	1	R1175N
1487.835	0.816	2002638	TEST_ORIENT	n/a	n/a	1	3	PEA	SEA	GUARD	PEA	10	[0, 0, 0]	-999	PAL1	1	R1175N
1488.651	0.001	2003454	TEST_PROBE	n/a	wordpools/wordpool_EN.txt	1	3	PEA	SEA	GUARD	PEA	10	[0, 0, 0]	-999	PAL1	1	R1175N
1488.652	1.342	2003455	REC_START	n/a	n/a	1	-999	n/a	SEA	n/a	n/a	10	[0, 0, 0]	-999	PAL1	1	R1175N
1489.994	0.477	2004797	REC_EVENT	1342	n/a	1	3	PEA	PEA	GUARD	PEA	10	[0, 0, 0]	-999	PAL1	1	R1175N
1490.471	3.197	2005274	REC_EVENT	1819	n/a	1	3	PEA	SEA	GUARD	PEA	10	[0, 0, 0]	-999	PAL1	1	R1175N
1493.668	0.017	2008471	REC_END	n/a	n/a	1	-999	n/a	n/a	n/a	n/a	10	[0, 0, 0]	-999	PAL1	1	R1175N
1493.685	0.967	2008488	TEST_ORIENT	n/a	n/a	4	4	SKY	n/a	SKY	PANTS	10	[0, 0, 0]	-999	PAL1	1	R1175N
1494.652	0.001	2009455	TEST_PROBE	n/a	wordpools/wordpool_EN.txt	4	4	SKY	n/a	SKY	PANTS	10	[0, 0, 0]	-999	PAL1	1	R1175N
1494.653	2.627	2009456	REC_START	n/a	n/a	4	-999	n/a	n/a	n/a	n/a	10	[0, 0, 0]	-999	PAL1	1	R1175N
1497.28	2.389	2012083	REC_EVENT	2627	n/a	4	4	SKY	<>	SKY	PANTS	10	[0, 0, 0]	-999	PAL1	1	R1175N
1499.669	0.017	2014472	REC_END	n/a	n/a	4	-999	n/a	n/a	n/a	n/a	10	[0, 0, 0]	-999	PAL1	1	R1175N
1499.686	1.0	2014489	TEST_ORIENT	n/a	n/a	5	5	PALM	HAND	PALM	TEA	10	[0, 0, 0]	-999	PAL1	1	R1175N
1500.686	0.0	2015489	TEST_PROBE	n/a	wordpools/wordpool_EN.txt	5	5	PALM	HAND	PALM	TEA	10	[0, 0, 0]	-999	PAL1	1	R1175N
1500.686	2.079	2015489	REC_START	n/a	n/a	5	-999	n/a	HAND	n/a	n/a	10	[0, 0, 0]	-999	PAL1	1	R1175N
1502.765	1.086	2017568	REC_EVENT	2079	n/a	5	5	PALM	POND	PALM	TEA	10	[0, 0, 0]	-999	PAL1	1	R1175N
1503.851	1.852	2018654	REC_EVENT	3165	n/a	5	5	PALM	HAND	PALM	TEA	10	[0, 0, 0]	-999	PAL1	1	R1175N
1505.703	0.017	2020506	REC_END	n/a	n/a	5	-999	n/a	n/a	n/a	n/a	10	[0, 0, 0]	-999	PAL1	1	R1175N
1505.72	0.883	2020523	TEST_ORIENT	n/a	n/a	6	6	GRASS	GRASS	GRASS	ICE	10	[0, 0, 0]	-999	PAL1	1	R1175N
1506.603	0.001	2021406	TEST_PROBE	n/a	wordpools/wordpool_EN.txt	6	6	GRASS	GRASS	GRASS	ICE	10	[0, 0, 0]	-999	PAL1	1	R1175N
1506.604	1.653	2021407	REC_START	n/a	n/a	6	-999	n/a	GRASS	n/a	n/a	10	[0, 0, 0]	-999	PAL1	1	R1175N
1508.257	3.363	2023060	REC_EVENT	1653	n/a	6	6	GRASS	GRASS	GRASS	ICE	10	[0, 0, 0]	-999	PAL1	1	R1175N
1511.62	3.896	2026423	REC_END	n/a	n/a	6	-999	n/a	n/a	n/a	n/a	10	[0, 0, 0]	-999	PAL1	1	R1175N
1515.516	10.438	2030319	ENCODING_START	n/a	n/a	0	-999	n/a	n/a	n/a	n/a	11	[0, 0, 0]	-999	PAL1	1	R1175N
1525.954	0.917	2040757	STUDY_ORIENT	n/a	n/a	1	5	DART	DART	SHEEP	DART	11	[0, 0, 0]	-999	PAL1	1	R1175N
1526.871	5.034	2041674	STUDY_PAIR	n/a	wordpools/wordpool_EN.txt	1	5	DART	DART	SHEEP	DART	11	[0, 0, 0]	-999	PAL1	1	R1175N
1531.905	0.901	2046708	STUDY_ORIENT	n/a	n/a	2	6	BUSH	BANK	BANK	BUSH	11	[0, 0, 0]	-999	PAL1	1	R1175N
1532.806	5.034	2047609	STUDY_PAIR	n/a	wordpools/wordpool_EN.txt	2	6	BUSH	BANK	BANK	BUSH	11	[0, 0, 0]	-999	PAL1	1	R1175N
1537.84	0.917	2052644	STUDY_ORIENT	n/a	n/a	3	1	PLATE	VINE	DRUM	PLATE	11	[0, 0, 0]	-999	PAL1	1	R1175N
1538.757	5.034	2053561	STUDY_PAIR	n/a	wordpools/wordpool_EN.txt	3	1	PLATE	VINE	DRUM	PLATE	11	[0, 0, 0]	-999	PAL1	1	R1175N
1543.791	0.95	2058595	STUDY_ORIENT	n/a	n/a	4	4	PIE	PLANT	PIE	PLANT	11	[0, 0, 0]	-999	PAL1	1	R1175N
1544.741	5.034	2059545	STUDY_PAIR	n/a	wordpools/wordpool_EN.txt	4	4	PIE	PLANT	PIE	PLANT	11	[0, 0, 0]	-999	PAL1	1	R1175N
1549.775	0.933	2064579	STUDY_ORIENT	n/a	n/a	5	3	NET	SALT	NET	SALT	11	[0, 0, 0]	-999	PAL1	1	R1175N
1550.708	5.034	2065512	STUDY_PAIR	n/a	wordpools/wordpool_EN.txt	5	3	NET	SALT	NET	SALT	11	[0, 0, 0]	-999	PAL1	1	R1175N
1555.742	0.917	2070546	STUDY_ORIENT	n/a	n/a	6	2	OAR	n/a	OAR	BOARD	11	[0, 0, 0]	-999	PAL1	1	R1175N
1556.659	4.018	2071463	STUDY_PAIR	n/a	wordpools/wordpool_EN.txt	6	2	OAR	n/a	OAR	BOARD	11	[0, 0, 0]	-999	PAL1	1	R1175N
1560.677	0.999	2075481	START	n/a	n/a	-999	-999	n/a	n/a	n/a	n/a	11	[-999, -999, -999]	-999	PAL1	1	R1175N
1561.676	0.017	2076480	MATH_START	n/a	n/a	-999	-999	n/a	n/a	n/a	n/a	11	[0, 0, 0]	-999	PAL1	1	R1175N
1561.693	9.968	2076497	PROB	9947	n/a	-999	-999	n/a	n/a	n/a	n/a	11	[4, 6, 2]	12	PAL1	1	R1175N
1571.661	4.8	2086465	PROB	4770	n/a	-999	-999	n/a	n/a	n/a	n/a	11	[6, 1, 3]	10	PAL1	1	R1175N
1576.461	5.251	2091265	PROB	5251	n/a	-999	-999	n/a	n/a	n/a	n/a	11	[6, 5, 3]	12	PAL1	1	R1175N
1581.712	0.016	2096516	STOP	n/a	n/a	-999	-999	n/a	n/a	n/a	n/a	11	[-999, -999, -999]	-999	PAL1	1	R1175N
1581.728	0.0	2096532	MATH_END	n/a	n/a	-999	-999	n/a	n/a	n/a	n/a	11	[0, 0, 0]	-999	PAL1	1	R1175N
1581.728	0.017	2096532	TEST_START	n/a	n/a	-999	-999	n/a	n/a	n/a	n/a	11	[0, 0, 0]	-999	PAL1	1	R1175N
1581.745	0.85	2096549	TEST_ORIENT	n/a	n/a	3	1	PLATE	VINE	DRUM	PLATE	11	[0, 0, 0]	-999	PAL1	1	R1175N
1582.595	0.001	2097399	TEST_PROBE	n/a	wordpools/wordpool_EN.txt	3	1	PLATE	VINE	DRUM	PLATE	11	[0, 0, 0]	-999	PAL1	1	R1175N
1582.596	1.813	2097400	REC_START	n/a	n/a	3	-999	n/a	VINE	n/a	n/a	11	[0, 0, 0]	-999	PAL1	1	R1175N
1584.409	0.408	2099213	REC_EVENT	1813	n/a	3	1	PLATE	GRAPE	DRUM	PLATE	11	[0, 0, 0]	-999	PAL1	1	R1175N
1584.817	2.804	2099621	REC_EVENT	2221	n/a	3	1	PLATE	VINE	DRUM	PLATE	11	[0, 0, 0]	-999	PAL1	1	R1175N
1587.621	0.008	2102425	REC_END	n/a	n/a	3	-999	n/a	n/a	n/a	n/a	11	[0, 0, 0]	-999	PAL1	1	R1175N
1587.629	0.867	2102433	TEST_ORIENT	n/a	n/a	6	2	OAR	n/a	OAR	BOARD	11	[0, 0, 0]	-999	PAL1	1	R1175N
1588.496	0.0	2103300	TEST_PROBE	n/a	wordpools/wordpool_EN.txt	6	2	OAR	n/a	OAR	BOARD	11	[0, 0, 0]	-999	PAL1	1	R1175N
1588.496	1.399	2103300	REC_START	n/a	n/a	6	-999	n/a	n/a	n/a	n/a	11	[0, 0, 0]	-999	PAL1	1	R1175N
1589.895	3.618	2104700	REC_EVENT	1399	n/a	6	2	OAR	<>	OAR	BOARD	11	[0, 0, 0]	-999	PAL1	1	R1175N
1593.513	0.017	2108318	REC_END	n/a	n/a	6	-999	n/a	n/a	n/a	n/a	11	[0, 0, 0]	-999	PAL1	1	R1175N
1593.53	1.0	2108335	TEST_ORIENT	n/a	n/a	5	3	NET	SALT	NET	SALT	11	[0, 0, 0]	-999	PAL1	1	R1175N
1594.53	0.0	2109335	REC_START	n/a	n/a	5	-999	n/a	SALT	n/a	n/a	11	[0, 0, 0]	-999	PAL1	1	R1175N
1594.53	0.783	2109335	TEST_PROBE	n/a	wordpools/wordpool_EN.txt	5	3	NET	SALT	NET	SALT	11	[0, 0, 0]	-999	PAL1	1	R1175N
1595.313	0.551	2110118	REC_EVENT	783	n/a	5	3	NET	MOUSE	NET	SALT	11	[0, 0, 0]	-999	PAL1	1	R1175N
1595.864	3.692	2110669	REC_EVENT	1334	n/a	5	3	NET	SALT	NET	SALT	11	[0, 0, 0]	-999	PAL1	1	R1175N
1599.556	0.008	2114361	REC_END	n/a	n/a	5	-999	n/a	n/a	n/a	n/a	11	[0, 0, 0]	-999	PAL1	1	R1175N
1599.564	1.016	2114369	TEST_ORIENT	n/a	n/a	4	4	PIE	PLANT	PIE	PLANT	11	[0, 0, 0]	-999	PAL1	1	R1175N
1600.58	0.001	2115385	TEST_PROBE	n/a	wordpools/wordpool_EN.txt	4	4	PIE	PLANT	PIE	PLANT	11	[0, 0, 0]	-999	PAL1	1	R1175N
1600.581	1.319	2115386	REC_START	n/a	n/a	4	-999	n/a	PLANT	n/a	n/a	11	[0, 0, 0]	-999	PAL1	1	R1175N
1601.9	1.889	2116705	REC_EVENT	1319	n/a	4	4	PIE	PIE	PIE	PLANT	11	[0, 0, 0]	-999	PAL1	1	R1175N
1603.789	1.802	2118594	REC_EVENT	3208	n/a	4	4	PIE	PLANT	PIE	PLANT	11	[0, 0, 0]	-999	PAL1	1	R1175N
1605.591	0.006	2120396	REC_END	n/a	n/a	4	-999	n/a	n/a	n/a	n/a	11	[0, 0, 0]	-999	PAL1	1	R1175N
1605.597	0.934	2120402	TEST_ORIENT	n/a	n/a	1	5	DART	DART	SHEEP	DART	11	[0, 0, 0]	-999	PAL1	1	R1175N
1606.531	0.0	2121336	TEST_PROBE	n/a	wordpools/wordpool_EN.txt	1	5	DART	DART	SHEEP	DART	11	[0, 0, 0]	-999	PAL1	1	R1175N
1606.531	2.484	2121336	REC_START	n/a	n/a	1	-999	n/a	DART	n/a	n/a	11	[0, 0, 0]	-999	PAL1	1	R1175N
1609.015	0.969	2123820	REC_EVENT	2484	n/a	1	5	DART	DART	SHEEP	DART	11	[0, 0, 0]	-999	PAL1	1	R1175N
1609.984	1.564	2124789	REC_EVENT	3453	n/a	1	5	DART	<>	SHEEP	DART	11	[0, 0, 0]	-999	PAL1	1	R1175N
1611.548	0.017	2126353	REC_END	n/a	n/a	1	-999	n/a	n/a	n/a	n/a	11	[0, 0, 0]	-999	PAL1	1	R1175N
1611.565	0.984	2126370	TEST_ORIENT	n/a	n/a	2	6	BUSH	BANK	BANK	BUSH	11	[0, 0, 0]	-999	PAL1	1	R1175N
1612.549	0.0	2127354	TEST_PROBE	n/a	wordpools/wordpool_EN.txt	2	6	BUSH	BANK	BANK	BUSH	11	[0, 0, 0]	-999	PAL1	1	R1175N
1612.549	1.744	2127354	REC_START	n/a	n/a	2	-999	n/a	BANK	n/a	n/a	11	[0, 0, 0]	-999	PAL1	1	R1175N
1614.293	3.025	2129098	REC_EVENT	1744	n/a	2	6	BUSH	BUSH	BANK	BUSH	11	[0, 0, 0]	-999	PAL1	1	R1175N
1617.318	0.248	2132123	REC_EVENT	4769	n/a	2	6	BUSH	BANK	BANK	BUSH	11	[0, 0, 0]	-999	PAL1	1	R1175N
1617.566	48.957	2132371	REC_END	n/a	n/a	2	-999	n/a	n/a	n/a	n/a	11	[0, 0, 0]	-999	PAL1	1	R1175N
1666.523	10.448	2181329	ENCODING_START	n/a	n/a	0	-999	n/a	n/a	n/a	n/a	12	[0, 0, 0]	-999	PAL1	1	R1175N
1676.971	0.785	2191777	STUDY_ORIENT	n/a	n/a	1	1	COUCH	HOUSE	VAN	COUCH	12	[0, 0, 0]	-999	PAL1	1	R1175N
1677.756	5.034	2192562	STUDY_PAIR	n/a	wordpools/wordpool_EN.txt	1	1	COUCH	HOUSE	VAN	COUCH	12	[0, 0, 0]	-999	PAL1	1	R1175N
1682.79	0.983	2197596	STUDY_ORIENT	n/a	n/a	2	4	EGG	EGG	MAIL	EGG	12	[0, 0, 0]	-999	PAL1	1	R1175N
1683.773	5.034	2198579	STUDY_PAIR	n/a	wordpools/wordpool_EN.txt	2	4	EGG	EGG	MAIL	EGG	12	[0, 0, 0]	-999	PAL1	1	R1175N
1688.807	0.85	2203613	STUDY_ORIENT	n/a	n/a	3	3	PLANE	FARM	RICE	PLANE	12	[0, 0, 0]	-999	PAL1	1	R1175N
1689.657	5.034	2204463	STUDY_PAIR	n/a	wordpools/wordpool_EN.txt	3	3	PLANE	FARM	RICE	PLANE	12	[0, 0, 0]	-999	PAL1	1	R1175N
1694.691	0.967	2209497	STUDY_ORIENT	n/a	n/a	4	6	SWAMP	HORSE	SWAMP	SHIRT	12	[0, 0, 0]	-999	PAL1	1	R1175N
1695.658	5.034	2210465	STUDY_PAIR	n/a	wordpools/wordpool_EN.txt	4	6	SWAMP	HORSE	SWAMP	SHIRT	12	[0, 0, 0]	-999	PAL1	1	R1175N
1700.692	1.016	2215499	STUDY_ORIENT	n/a	n/a	5	5	TANK	FARM	TANK	FARM	12	[0, 0, 0]	-999	PAL1	1	R1175N
1701.708	5.034	2216515	STUDY_PAIR	n/a	wordpools/wordpool_EN.txt	5	5	TANK	FARM	TANK	FARM	12	[0, 0, 0]	-999	PAL1	1	R1175N
1706.742	0.867	2221549	STUDY_ORIENT	n/a	n/a	6	2	FUDGE	POND	THUMB	FUDGE	12	[0, 0, 0]	-999	PAL1	1	R1175N
1707.609	4.018	2222416	STUDY_PAIR	n/a	wordpools/wordpool_EN.txt	6	2	FUDGE	POND	THUMB	FUDGE	12	[0, 0, 0]	-999	PAL1	1	R1175N
1711.627	0.999	2226434	START	n/a	n/a	-999	-999	n/a	n/a	n/a	n/a	12	[-999, -999, -999]	-999	PAL1	1	R1175N
1712.626	0.017	2227433	MATH_START	n/a	n/a	-999	-999	n/a	n/a	n/a	n/a	12	[0, 0, 0]	-999	PAL1	1	R1175N
1712.643	5.617	2227450	PROB	5597	n/a	-999	-999	n/a	n/a	n/a	n/a	12	[2, 8, 4]	14	PAL1	1	R1175N
1718.26	5.351	2233067	PROB	5331	n/a	-999	-999	n/a	n/a	n/a	n/a	12	[3, 2, 5]	10	PAL1	1	R1175N
1723.611	5.217	2238418	PROB	5188	n/a	-999	-999	n/a	n/a	n/a	n/a	12	[7, 5, 7]	19	PAL1	1	R1175N
1728.828	5.579	2243635	PROB	5579	n/a	-999	-999	n/a	n/a	n/a	n/a	12	[8, 5, 2]	15	PAL1	1	R1175N
1734.407	0.005	2249214	STOP	n/a	n/a	-999	-999	n/a	n/a	n/a	n/a	12	[-999, -999, -999]	-999	PAL1	1	R1175N
1734.412	0.0	2249219	MATH_END	n/a	n/a	-999	-999	n/a	n/a	n/a	n/a	12	[0, 0, 0]	-999	PAL1	1	R1175N
1734.412	0.017	2249219	TEST_START	n/a	n/a	-999	-999	n/a	n/a	n/a	n/a	12	[0, 0, 0]	-999	PAL1	1	R1175N
1734.429	1.016	2249236	TEST_ORIENT	n/a	n/a	1	1	COUCH	HOUSE	VAN	COUCH	12	[0, 0, 0]	-999	PAL1	1	R1175N
1735.445	0.001	2250252	TEST_PROBE	n/a	wordpools/wordpool_EN.txt	1	1	COUCH	HOUSE	VAN	COUCH	12	[0, 0, 0]	-999	PAL1	1	R1175N
1735.446	1.807	2250253	REC_START	n/a	n/a	1	-999	n/a	HOUSE	n/a	n/a	12	[0, 0, 0]	-999	PAL1	1	R1175N
1737.253	1.003	2252060	REC_EVENT	1807	n/a	1	1	COUCH	HOUSE	VAN	COUCH	12	[0, 0, 0]	-999	PAL1	1	R1175N
1738.256	1.323	2253063	REC_EVENT	2810	n/a	1	1	COUCH	<>	VAN	COUCH	12	[0, 0, 0]	-999	PAL1	1	R1175N
1739.579	0.876	2254386	REC_EVENT	4133	n/a	1	1	COUCH	<>	VAN	COUCH	12	[0, 0, 0]	-999	PAL1	1	R1175N
1740.455	0.007	2255262	REC_END	n/a	n/a	1	-999	n/a	n/a	n/a	n/a	12	[0, 0, 0]	-999	PAL1	1	R1175N
1740.462	0.834	2255269	TEST_ORIENT	n/a	n/a	6	2	FUDGE	POND	THUMB	FUDGE	12	[0, 0, 0]	-999	PAL1	1	R1175N
1741.296	0.001	2256103	TEST_PROBE	n/a	wordpools/wordpool_EN.txt	6	2	FUDGE	POND	THUMB	FUDGE	12	[0, 0, 0]	-999	PAL1	1	R1175N
1741.297	1.577	2256104	REC_START	n/a	n/a	6	-999	n/a	POND	n/a	n/a	12	[0, 0, 0]	-999	PAL1	1	R1175N
1742.874	3.448	2257681	REC_EVENT	1577	n/a	6	2	FUDGE	POND	THUMB	FUDGE	12	[0, 0, 0]	-999	PAL1	1	R1175N
1746.322	0.008	2261129	REC_END	n/a	n/a	6	-999	n/a	n/a	n/a	n/a	12	[0, 0, 0]	-999	PAL1	1	R1175N
1746.33	0.983	2261137	TEST_ORIENT	n/a	n/a	3	3	PLANE	FARM	RICE	PLANE	12	[0, 0, 0]	-999	PAL1	1	R1175N
1747.313	0.001	2262120	TEST_PROBE	n/a	wordpools/wordpool_EN.txt	3	3	PLANE	FARM	RICE	PLANE	12	[0, 0, 0]	-999	PAL1	1	R1175N
1747.314	1.361	2262121	REC_START	n/a	n/a	3	-999	n/a	FARM	n/a	n/a	12	[0, 0, 0]	-999	PAL1	1	R1175N
1748.675	1.921	2263483	REC_EVENT	1361	n/a	3	3	PLANE	PLANE	RICE	PLANE	12	[0, 0, 0]	-999	PAL1	1	R1175N
1750.596	1.734	2265404	REC_EVENT	3282	n/a	3	3	PLANE	FARM	RICE	PLANE	12	[0, 0, 0]	-999	PAL1	1	R1175N
1752.33	0.017	2267138	REC_END	n/a	n/a	3	-999	n/a	n/a	n/a	n/a	12	[0, 0, 0]	-999	PAL1	1	R1175N
1752.347	0.917	2267155	TEST_ORIENT	n/a	n/a	2	4	EGG	EGG	MAIL	EGG	12	[0, 0, 0]	-999	PAL1	1	R1175N
1753.264	0.0	2268072	TEST_PROBE	n/a	wordpools/wordpool_EN.txt	2	4	EGG	EGG	MAIL	EGG	12	[0, 0, 0]	-999	PAL1	1	R1175N
1753.264	1.635	2268072	REC_START	n/a	n/a	2	-999	n/a	EGG	n/a	n/a	12	[0, 0, 0]	-999	PAL1	1	R1175N
1754.899	1.389	2269707	REC_EVENT	1635	n/a	2	4	EGG	EGG	MAIL	EGG	12	[0, 0, 0]	-999	PAL1	1	R1175N
1756.288	1.993	2271096	REC_EVENT	3024	n/a	2	4	EGG	<>	MAIL	EGG	12	[0, 0, 0]	-999	PAL1	1	R1175N
1758.281	0.017	2273089	REC_END	n/a	n/a	2	-999	n/a	n/a	n/a	n/a	12	[0, 0, 0]	-999	PAL1	1	R1175N
1758.298	0.933	2273106	TEST_ORIENT	n/a	n/a	5	5	TANK	FARM	TANK	FARM	12	[0, 0, 0]	-999	PAL1	1	R1175N
1759.231	0.001	2274039	TEST_PROBE	n/a	wordpools/wordpool_EN.txt	5	5	TANK	FARM	TANK	FARM	12	[0, 0, 0]	-999	PAL1	1	R1175N
1759.232	1.034	2274040	REC_START	n/a	n/a	5	-999	n/a	FARM	n/a	n/a	12	[0, 0, 0]	-999	PAL1	1	R1175N
1760.266	0.359	2275074	REC_EVENT	1034	n/a	5	5	TANK	<>	TANK	FARM	12	[0, 0, 0]	-999	PAL1	1	R1175N
1760.625	0.45	2275433	REC_EVENT	1393	n/a	5	5	TANK	TANK	TANK	FARM	12	[0, 0, 0]	-999	PAL1	1	R1175N
1761.075	3.173	2275883	REC_EVENT	1843	n/a	5	5	TANK	FARM	TANK	FARM	12	[0, 0, 0]	-999	PAL1	1	R1175N
1764.248	0.017	2279056	REC_END	n/a	n/a	5	-999	n/a	n/a	n/a	n/a	12	[0, 0, 0]	-999	PAL1	1	R1175N
1764.265	1.034	2279073	TEST_ORIENT	n/a	n/a	4	6	SWAMP	HORSE	SWAMP	SHIRT	12	[0, 0, 0]	-999	PAL1	1	R1175N
1765.299	0.0	2280107	TEST_PROBE	n/a	wordpools/wordpool_EN.txt	4	6	SWAMP	HORSE	SWAMP	SHIRT	12	[0, 0, 0]	-999	PAL1	1	R1175N
1765.299	1.804	2280107	REC_START	n/a	n/a	4	-999	n/a	HORSE	n/a	n/a	12	[0, 0, 0]	-999	PAL1	1	R1175N
1767.103	2.659	2281911	REC_EVENT	1804	n/a	4	6	SWAMP	SWAMP	SWAMP	SHIRT	12	[0, 0, 0]	-999	PAL1	1	R1175N
1769.762	0.554	2284570	REC_EVENT	4463	n/a	4	6	SWAMP	HORSE	SWAMP	SHIRT	12	[0, 0, 0]	-999	PAL1	1	R1175N
1770.316	16.432	2285124	REC_END	n/a	n/a	4	-999	n/a	n/a	n/a	n/a	12	[0, 0, 0]	-999	PAL1	1	R1175N
1786.748	10.438	2301556	ENCODING_START	n/a	n/a	0	-999	n/a	n/a	n/a	n/a	13	[0, 0, 0]	-999	PAL1	1	R1175N
1797.186	0.949	2311994	STUDY_ORIENT	n/a	n/a	1	3	PRINCE	POND	PRINCE	HOLE	13	[0, 0, 0]	-999	PAL1	1	R1175N
1798.135	5.034	2312943	STUDY_PAIR	n/a	wordpools/wordpool_EN.txt	1	3	PRINCE	POND	PRINCE	HOLE	13	[0, 0, 0]	-999	PAL1	1	R1175N
1803.169	0.933	2317978	STUDY_ORIENT	n/a	n/a	2	6	DUCK	HORSE	HORSE	DUCK	13	[0, 0, 0]	-999	PAL1	1	R1175N
1804.102	5.034	2318911	STUDY_PAIR	n/a	wordpools/wordpool_EN.txt	2	6	DUCK	HORSE	HORSE	DUCK	13	[0, 0, 0]	-999	PAL1	1	R1175N
1809.136	0.817	2323945	STUDY_ORIENT	n/a	n/a	3	1	EEL	EEL	ROOT	EEL	13	[0, 0, 0]	-999	PAL1	1	R1175N
1809.953	5.034	2324762	STUDY_PAIR	n/a	wordpools/wordpool_EN.txt	3	1	EEL	EEL	ROOT	EEL	13	[0, 0, 0]	-999	PAL1	1	R1175N
1814.987	0.916	2329796	STUDY_ORIENT	n/a	n/a	4	2	HOOF	n/a	TENT	HOOF	13	[0, 0, 0]	-999	PAL1	1	R1175N
1815.903	5.034	2330712	STUDY_PAIR	n/a	wordpools/wordpool_EN.txt	4	2	HOOF	n/a	TENT	HOOF	13	[0, 0, 0]	-999	PAL1	1	R1175N
1820.937	0.868	2335746	STUDY_ORIENT	n/a	n/a	5	5	LAKE	LEAF	FOOT	LAKE	13	[0, 0, 0]	-999	PAL1	1	R1175N
1821.805	5.034	2336614	STUDY_PAIR	n/a	wordpools/wordpool_EN.txt	5	5	LAKE	LEAF	FOOT	LAKE	13	[0, 0, 0]	-999	PAL1	1	R1175N
1826.839	0.933	2341648	STUDY_ORIENT	n/a	n/a	6	4	BAT	ELF	BAT	ELF	13	[0, 0, 0]	-999	PAL1	1	R1175N
1827.772	4.018	2342581	STUDY_PAIR	n/a	wordpools/wordpool_EN.txt	6	4	BAT	ELF	BAT	ELF	13	[0, 0, 0]	-999	PAL1	1	R1175N
1831.79	0.999	2346599	START	n/a	n/a	-999	-999	n/a	n/a	n/a	n/a	13	[-999, -999, -999]	-999	PAL1	1	R1175N
1832.789	0.017	2347598	MATH_START	n/a	n/a	-999	-999	n/a	n/a	n/a	n/a	13	[0, 0, 0]	-999	PAL1	1	R1175N
1832.806	7.368	2347615	PROB	7337	n/a	-999	-999	n/a	n/a	n/a	n/a	13	[4, 8, 2]	14	PAL1	1	R1175N
1840.174	4.983	2354983	PROB	4961	n/a	-999	-999	n/a	n/a	n/a	n/a	13	[1, 4, 2]	7	PAL1	1	R1175N
1845.157	3.568	2359966	PROB	3539	n/a	-999	-999	n/a	n/a	n/a	n/a	13	[2, 1, 1]	6	PAL1	1	R1175N
1848.725	7.523	2363534	PROB	7523	n/a	-999	-999	n/a	n/a	n/a	n/a	13	[9, 5, 8]	22	PAL1	1	R1175N
1856.248	0.011	2371058	STOP	n/a	n/a	-999	-999	n/a	n/a	n/a	n/a	13	[-999, -999, -999]	-999	PAL1	1	R1175N
1856.259	0.0	2371069	TEST_START	n/a	n/a	-999	-999	n/a	n/a	n/a	n/a	13	[0, 0, 0]	-999	PAL1	1	R1175N
1856.259	0.016	2371069	MATH_END	n/a	n/a	-999	-999	n/a	n/a	n/a	n/a	13	[0, 0, 0]	-999	PAL1	1	R1175N
1856.275	1.034	2371085	TEST_ORIENT	n/a	n/a	3	1	EEL	EEL	ROOT	EEL	13	[0, 0, 0]	-999	PAL1	1	R1175N
1857.309	0.001	2372119	TEST_PROBE	n/a	wordpools/wordpool_EN.txt	3	1	EEL	EEL	ROOT	EEL	13	[0, 0, 0]	-999	PAL1	1	R1175N
1857.31	1.528	2372120	REC_START	n/a	n/a	3	-999	n/a	EEL	n/a	n/a	13	[0, 0, 0]	-999	PAL1	1	R1175N
1858.838	0.325	2373648	REC_EVENT	1528	n/a	3	1	EEL	<>	ROOT	EEL	13	[0, 0, 0]	-999	PAL1	1	R1175N
1859.163	0.405	2373973	REC_EVENT	1853	n/a	3	1	EEL	HORSE	ROOT	EEL	13	[0, 0, 0]	-999	PAL1	1	R1175N
1859.568	2.767	2374378	REC_EVENT	2258	n/a	3	1	EEL	EEL	ROOT	EEL	13	[0, 0, 0]	-999	PAL1	1	R1175N
1862.335	0.008	2377145	REC_END	n/a	n/a	3	-999	n/a	n/a	n/a	n/a	13	[0, 0, 0]	-999	PAL1	1	R1175N
1862.343	0.933	2377153	TEST_ORIENT	n/a	n/a	4	2	HOOF	n/a	TENT	HOOF	13	[0, 0, 0]	-999	PAL1	1	R1175N
1863.276	0.001	2378086	TEST_PROBE	n/a	wordpools/wordpool_EN.txt	4	2	HOOF	n/a	TENT	HOOF	13	[0, 0, 0]	-999	PAL1	1	R1175N
1863.277	1.695	2378087	REC_START	n/a	n/a	4	-999	n/a	n/a	n/a	n/a	13	[0, 0, 0]	-999	PAL1	1	R1175N
1864.972	3.33	2379782	REC_EVENT	1695	n/a	4	2	HOOF	<>	TENT	HOOF	13	[0, 0, 0]	-999	PAL1	1	R1175N
1868.302	0.008	2383112	REC_END	n/a	n/a	4	-999	n/a	n/a	n/a	n/a	13	[0, 0, 0]	-999	PAL1	1	R1175N
1868.31	0.917	2383120	TEST_ORIENT	n/a	n/a	1	3	PRINCE	POND	PRINCE	HOLE	13	[0, 0, 0]	-999	PAL1	1	R1175N
1869.227	0.0	2384037	TEST_PROBE	n/a	wordpools/wordpool_EN.txt	1	3	PRINCE	POND	PRINCE	HOLE	13	[0, 0, 0]	-999	PAL1	1	R1175N
1869.227	1.46	2384037	REC_START	n/a	n/a	1	-999	n/a	POND	n/a	n/a	13	[0, 0, 0]	-999	PAL1	1	R1175N
1870.687	1.019	2385497	REC_EVENT	1460	n/a	1	3	PRINCE	PRINCE	PRINCE	HOLE	13	[0, 0, 0]	-999	PAL1	1	R1175N
1871.706	2.538	2386516	REC_EVENT	2479	n/a	1	3	PRINCE	POND	PRINCE	HOLE	13	[0, 0, 0]	-999	PAL1	1	R1175N
1874.244	0.017	2389054	REC_END	n/a	n/a	1	-999	n/a	n/a	n/a	n/a	13	[0, 0, 0]	-999	PAL1	1	R1175N
1874.261	0.967	2389071	TEST_ORIENT	n/a	n/a	6	4	BAT	ELF	BAT	ELF	13	[0, 0, 0]	-999	PAL1	1	R1175N
1875.228	0.0	2390038	TEST_PROBE	n/a	wordpools/wordpool_EN.txt	6	4	BAT	ELF	BAT	ELF	13	[0, 0, 0]	-999	PAL1	1	R1175N
1875.228	1.295	2390038	REC_START	n/a	n/a	6	-999	n/a	ELF	n/a	n/a	13	[0, 0, 0]	-999	PAL1	1	R1175N
1876.523	3.722	2391333	REC_EVENT	1295	n/a	6	4	BAT	ELF	BAT	ELF	13	[0, 0, 0]	-999	PAL1	1	R1175N
1880.245	0.016	2395055	REC_END	n/a	n/a	6	-999	n/a	n/a	n/a	n/a	13	[0, 0, 0]	-999	PAL1	1	R1175N
1880.261	1.001	2395071	TEST_ORIENT	n/a	n/a	5	5	LAKE	LEAF	FOOT	LAKE	13	[0, 0, 0]	-999	PAL1	1	R1175N
1881.262	0.0	2396072	TEST_PROBE	n/a	wordpools/wordpool_EN.txt	5	5	LAKE	LEAF	FOOT	LAKE	13	[0, 0, 0]	-999	PAL1	1	R1175N
1881.262	1.306	2396072	REC_START	n/a	n/a	5	-999	n/a	LEAF	n/a	n/a	13	[0, 0, 0]	-999	PAL1	1	R1175N
1882.568	0.46	2397378	REC_EVENT	1306	n/a	5	5	LAKE	LAKE	FOOT	LAKE	13	[0, 0, 0]	-999	PAL1	1	R1175N
1883.028	3.251	2397838	REC_EVENT	1766	n/a	5	5	LAKE	LEAF	FOOT	LAKE	13	[0, 0, 0]	-999	PAL1	1	R1175N
1886.279	0.016	2401089	REC_END	n/a	n/a	5	-999	n/a	n/a	n/a	n/a	13	[0, 0, 0]	-999	PAL1	1	R1175N
1886.295	0.816	2401105	TEST_ORIENT	n/a	n/a	2	6	DUCK	HORSE	HORSE	DUCK	13	[0, 0, 0]	-999	PAL1	1	R1175N
1887.111	0.001	2401921	TEST_PROBE	n/a	wordpools/wordpool_EN.txt	2	6	DUCK	HORSE	HORSE	DUCK	13	[0, 0, 0]	-999	PAL1	1	R1175N
1887.112	1.231	2401922	REC_START	n/a	n/a	2	-999	n/a	HORSE	n/a	n/a	13	[0, 0, 0]	-999	PAL1	1	R1175N
1888.343	0.447	2403153	REC_EVENT	1231	n/a	2	6	DUCK	DUCK	HORSE	DUCK	13	[0, 0, 0]	-999	PAL1	1	R1175N
1888.79	3.338	2403600	REC_EVENT	1678	n/a	2	6	DUCK	HORSE	HORSE	DUCK	13	[0, 0, 0]	-999	PAL1	1	R1175N
1892.128	12.285	2406938	REC_END	n/a	n/a	2	-999	n/a	n/a	n/a	n/a	13	[0, 0, 0]	-999	PAL1	1	R1175N
1904.413	10.451	2419223	ENCODING_START	n/a	n/a	0	-999	n/a	n/a	n/a	n/a	14	[0, 0, 0]	-999	PAL1	1	R1175N
1914.864	0.918	2429675	STUDY_ORIENT	n/a	n/a	1	5	YARD	YARD	YARD	DEER	14	[0, 0, 0]	-999	PAL1	1	R1175N
1915.782	5.034	2430593	STUDY_PAIR	n/a	wordpools/wordpool_EN.txt	1	5	YARD	YARD	YARD	DEER	14	[0, 0, 0]	-999	PAL1	1	R1175N
1920.816	0.85	2435627	STUDY_ORIENT	n/a	n/a	2	2	BLUSH	BLUSH	GRAPE	BLUSH	14	[0, 0, 0]	-999	PAL1	1	R1175N
1921.666	5.034	2436477	STUDY_PAIR	n/a	wordpools/wordpool_EN.txt	2	2	BLUSH	BLUSH	GRAPE	BLUSH	14	[0, 0, 0]	-999	PAL1	1	R1175N
1926.7	1.0	2441511	STUDY_ORIENT	n/a	n/a	3	1	STAIR	STAIR	STAIR	BED	14	[0, 0, 0]	-999	PAL1	1	R1175N
1927.7	5.034	2442511	STUDY_PAIR	n/a	wordpools/wordpool_EN.txt	3	1	STAIR	STAIR	STAIR	BED	14	[0, 0, 0]	-999	PAL1	1	R1175N
1932.734	0.783	2447545	STUDY_ORIENT	n/a	n/a	4	6	CUBE	CUBE	CUBE	DOCK	14	[0, 0, 0]	-999	PAL1	1	R1175N
1933.517	5.034	2448328	STUDY_PAIR	n/a	wordpools/wordpool_EN.txt	4	6	CUBE	CUBE	CUBE	DOCK	14	[0, 0, 0]	-999	PAL1	1	R1175N
1938.551	0.967	2453362	STUDY_ORIENT	n/a	n/a	5	3	WHEEL	INK	PHONE	WHEEL	14	[0, 0, 0]	-999	PAL1	1	R1175N
1939.518	5.034	2454329	STUDY_PAIR	n/a	wordpools/wordpool_EN.txt	5	3	WHEEL	INK	PHONE	WHEEL	14	[0, 0, 0]	-999	PAL1	1	R1175N
1944.552	0.867	2459363	STUDY_ORIENT	n/a	n/a	6	4	WEB	WEB	WEB	INK	14	[0, 0, 0]	-999	PAL1	1	R1175N
1945.419	4.017	2460230	STUDY_PAIR	n/a	wordpools/wordpool_EN.txt	6	4	WEB	WEB	WEB	INK	14	[0, 0, 0]	-999	PAL1	1	R1175N
1949.436	1.0	2464247	START	n/a	n/a	-999	-999	n/a	n/a	n/a	n/a	14	[-999, -999, -999]	-999	PAL1	1	R1175N
1950.436	0.017	2465247	MATH_START	n/a	n/a	-999	-999	n/a	n/a	n/a	n/a	14	[0, 0, 0]	-999	PAL1	1	R1175N
1950.453	12.834	2465264	PROB	12812	n/a	-999	-999	n/a	n/a	n/a	n/a	14	[3, 3, 8]	14	PAL1	1	R1175N
1963.287	5.368	2478099	PROB	5346	n/a	-999	-999	n/a	n/a	n/a	n/a	14	[1, 7, 6]	14	PAL1	1	R1175N
1968.655	3.77	2483467	PROB	3770	n/a	-999	-999	n/a	n/a	n/a	n/a	14	[6, 5, 5]	16	PAL1	1	R1175N
1972.425	0.013	2487237	STOP	n/a	n/a	-999	-999	n/a	n/a	n/a	n/a	14	[-999, -999, -999]	-999	PAL1	1	R1175N
1972.438	0.0	2487250	MATH_END	n/a	n/a	-999	-999	n/a	n/a	n/a	n/a	14	[0, 0, 0]	-999	PAL1	1	R1175N
1972.438	0.017	2487250	TEST_START	n/a	n/a	-999	-999	n/a	n/a	n/a	n/a	14	[0, 0, 0]	-999	PAL1	1	R1175N
1972.455	0.867	2487267	TEST_ORIENT	n/a	n/a	3	1	STAIR	STAIR	STAIR	BED	14	[0, 0, 0]	-999	PAL1	1	R1175N
1973.322	0.0	2488134	TEST_PROBE	n/a	wordpools/wordpool_EN.txt	3	1	STAIR	STAIR	STAIR	BED	14	[0, 0, 0]	-999	PAL1	1	R1175N
1973.322	2.13	2488134	REC_START	n/a	n/a	3	-999	n/a	STAIR	n/a	n/a	14	[0, 0, 0]	-999	PAL1	1	R1175N
1975.452	2.652	2490264	REC_EVENT	2130	n/a	3	1	STAIR	STAIR	STAIR	BED	14	[0, 0, 0]	-999	PAL1	1	R1175N
1978.104	0.235	2492916	REC_EVENT	4782	n/a	3	1	STAIR	<>	STAIR	BED	14	[0, 0, 0]	-999	PAL1	1	R1175N
1978.339	0.017	2493151	REC_END	n/a	n/a	3	-999	n/a	n/a	n/a	n/a	14	[0, 0, 0]	-999	PAL1	1	R1175N
1978.356	0.9	2493168	TEST_ORIENT	n/a	n/a	2	2	BLUSH	BLUSH	GRAPE	BLUSH	14	[0, 0, 0]	-999	PAL1	1	R1175N
1979.256	0.0	2494068	TEST_PROBE	n/a	wordpools/wordpool_EN.txt	2	2	BLUSH	BLUSH	GRAPE	BLUSH	14	[0, 0, 0]	-999	PAL1	1	R1175N
1979.256	2.216	2494068	REC_START	n/a	n/a	2	-999	n/a	BLUSH	n/a	n/a	14	[0, 0, 0]	-999	PAL1	1	R1175N
1981.472	2.801	2496284	REC_EVENT	2216	n/a	2	2	BLUSH	BLUSH	GRAPE	BLUSH	14	[0, 0, 0]	-999	PAL1	1	R1175N
1984.273	0.017	2499085	REC_END	n/a	n/a	2	-999	n/a	n/a	n/a	n/a	14	[0, 0, 0]	-999	PAL1	1	R1175N
1984.29	0.933	2499102	TEST_ORIENT	n/a	n/a	5	3	WHEEL	INK	PHONE	WHEEL	14	[0, 0, 0]	-999	PAL1	1	R1175N
1985.223	0.0	2500035	TEST_PROBE	n/a	wordpools/wordpool_EN.txt	5	3	WHEEL	INK	PHONE	WHEEL	14	[0, 0, 0]	-999	PAL1	1	R1175N
1985.223	1.881	2500035	REC_START	n/a	n/a	5	-999	n/a	INK	n/a	n/a	14	[0, 0, 0]	-999	PAL1	1	R1175N
1987.104	1.881	2501916	REC_EVENT	1881	n/a	5	3	WHEEL	WHEEL	PHONE	WHEEL	14	[0, 0, 0]	-999	PAL1	1	R1175N
1988.985	1.255	2503797	REC_EVENT	3762	n/a	5	3	WHEEL	INK	PHONE	WHEEL	14	[0, 0, 0]	-999	PAL1	1	R1175N
1990.24	0.017	2505052	REC_END	n/a	n/a	5	-999	n/a	n/a	n/a	n/a	14	[0, 0, 0]	-999	PAL1	1	R1175N
1990.257	0.933	2505069	TEST_ORIENT	n/a	n/a	6	4	WEB	WEB	WEB	INK	14	[0, 0, 0]	-999	PAL1	1	R1175N
1991.19	0.001	2506002	TEST_PROBE	n/a	wordpools/wordpool_EN.txt	6	4	WEB	WEB	WEB	INK	14	[0, 0, 0]	-999	PAL1	1	R1175N
1991.191	1.225	2506003	REC_START	n/a	n/a	6	-999	n/a	WEB	n/a	n/a	14	[0, 0, 0]	-999	PAL1	1	R1175N
1992.416	1.952	2507228	REC_EVENT	1225	n/a	6	4	WEB	WEB	WEB	INK	14	[0, 0, 0]	-999	PAL1	1	R1175N
1994.368	1.839	2509180	REC_EVENT	3177	n/a	6	4	WEB	<>	WEB	INK	14	[0, 0, 0]	-999	PAL1	1	R1175N
1996.207	0.017	2511019	REC_END	n/a	n/a	6	-999	n/a	n/a	n/a	n/a	14	[0, 0, 0]	-999	PAL1	1	R1175N
1996.224	0.95	2511036	TEST_ORIENT	n/a	n/a	1	5	YARD	YARD	YARD	DEER	14	[0, 0, 0]	-999	PAL1	1	R1175N
1997.174	0.001	2511986	TEST_PROBE	n/a	wordpools/wordpool_EN.txt	1	5	YARD	YARD	YARD	DEER	14	[0, 0, 0]	-999	PAL1	1	R1175N
1997.175	1.791	2511987	REC_START	n/a	n/a	1	-999	n/a	YARD	n/a	n/a	14	[0, 0, 0]	-999	PAL1	1	R1175N
1998.966	2.127	2513778	REC_EVENT	1791	n/a	1	5	YARD	YARD	YARD	DEER	14	[0, 0, 0]	-999	PAL1	1	R1175N
2001.093	1.099	2515905	REC_EVENT	3918	n/a	1	5	YARD	<>	YARD	DEER	14	[0, 0, 0]	-999	PAL1	1	R1175N
2002.192	0.016	2517004	REC_END	n/a	n/a	1	-999	n/a	n/a	n/a	n/a	14	[0, 0, 0]	-999	PAL1	1	R1175N
2002.208	0.866	2517020	TEST_ORIENT	n/a	n/a	4	6	CUBE	CUBE	CUBE	DOCK	14	[0, 0, 0]	-999	PAL1	1	R1175N
2003.074	0.0	2517886	TEST_PROBE	n/a	wordpools/wordpool_EN.txt	4	6	CUBE	CUBE	CUBE	DOCK	14	[0, 0, 0]	-999	PAL1	1	R1175N
2003.074	3.176	2517886	REC_START	n/a	n/a	4	-999	n/a	CUBE	n/a	n/a	14	[0, 0, 0]	-999	PAL1	1	R1175N
2006.25	1.841	2521062	REC_EVENT	3176	n/a	4	6	CUBE	CUBE	CUBE	DOCK	14	[0, 0, 0]	-999	PAL1	1	R1175N
2008.091	19.985	2522903	REC_END	n/a	n/a	4	-999	n/a	n/a	n/a	n/a	14	[0, 0, 0]	-999	PAL1	1	R1175N
2028.076	10.453	2542889	ENCODING_START	n/a	n/a	0	-999	n/a	n/a	n/a	n/a	15	[0, 0, 0]	-999	PAL1	1	R1175N
2038.529	1.017	2553342	STUDY_ORIENT	n/a	n/a	1	1	HOSE	HORSE	HOSE	DOLL	15	[0, 0, 0]	-999	PAL1	1	R1175N
2039.546	5.034	2554359	STUDY_PAIR	n/a	wordpools/wordpool_EN.txt	1	1	HOSE	HORSE	HOSE	DOLL	15	[0, 0, 0]	-999	PAL1	1	R1175N
2044.58	0.966	2559393	STUDY_ORIENT	n/a	n/a	2	6	ROOM	n/a	SWORD	ROOM	15	[0, 0, 0]	-999	PAL1	1	R1175N
2045.546	5.018	2560359	STUDY_PAIR	n/a	wordpools/wordpool_EN.txt	2	6	ROOM	n/a	SWORD	ROOM	15	[0, 0, 0]	-999	PAL1	1	R1175N
2050.564	0.866	2565377	STUDY_ORIENT	n/a	n/a	3	3	CRANE	CAR	CRANE	CAVE	15	[0, 0, 0]	-999	PAL1	1	R1175N
2051.43	5.034	2566243	STUDY_PAIR	n/a	wordpools/wordpool_EN.txt	3	3	CRANE	CAR	CRANE	CAVE	15	[0, 0, 0]	-999	PAL1	1	R1175N
2056.464	1.017	2571277	STUDY_ORIENT	n/a	n/a	4	2	SMOKE	SMILE	SLIME	SMOKE	15	[0, 0, 0]	-999	PAL1	1	R1175N
2057.481	5.034	2572294	STUDY_PAIR	n/a	wordpools/wordpool_EN.txt	4	2	SMOKE	SMILE	SLIME	SMOKE	15	[0, 0, 0]	-999	PAL1	1	R1175N
2062.515	0.883	2577328	STUDY_ORIENT	n/a	n/a	5	5	SPRING	GLASS	SPRING	BOMB	15	[0, 0, 0]	-999	PAL1	1	R1175N
2063.398	5.034	2578211	STUDY_PAIR	n/a	wordpools/wordpool_EN.txt	5	5	SPRING	GLASS	SPRING	BOMB	15	[0, 0, 0]	-999	PAL1	1	R1175N
2068.432	0.917	2583246	STUDY_ORIENT	n/a	n/a	6	4	HOOK	COAT	MAP	HOOK	15	[0, 0, 0]	-999	PAL1	1	R1175N
2069.349	4.018	2584163	STUDY_PAIR	n/a	wordpools/wordpool_EN.txt	6	4	HOOK	COAT	MAP	HOOK	15	[0, 0, 0]	-999	PAL1	1	R1175N
2073.367	0.999	2588181	START	n/a	n/a	-999	-999	n/a	n/a	n/a	n/a	15	[-999, -999, -999]	-999	PAL1	1	R1175N
2074.366	0.017	2589180	MATH_START	n/a	n/a	-999	-999	n/a	n/a	n/a	n/a	15	[0, 0, 0]	-999	PAL1	1	R1175N
2074.383	6.55	2589197	PROB	6522	n/a	-999	-999	n/a	n/a	n/a	n/a	15	[2, 3, 6]	11	PAL1	1	R1175N
2080.933	8.285	2595747	PROB	8253	n/a	-999	-999	n/a	n/a	n/a	n/a	15	[9, 6, 3]	18	PAL1	1	R1175N
2089.218	10.111	2604032	PROB	10111	n/a	-999	-999	n/a	n/a	n/a	n/a	15	[3, 4, 2]	9	PAL1	1	R1175N
2099.329	0.007	2614143	STOP	n/a	n/a	-999	-999	n/a	n/a	n/a	n/a	15	[-999, -999, -999]	-999	PAL1	1	R1175N
2099.336	0.0	2614150	MATH_END	n/a	n/a	-999	-999	n/a	n/a	n/a	n/a	15	[0, 0, 0]	-999	PAL1	1	R1175N
2099.336	0.016	2614150	TEST_START	n/a	n/a	-999	-999	n/a	n/a	n/a	n/a	15	[0, 0, 0]	-999	PAL1	1	R1175N
2099.352	0.816	2614166	TEST_ORIENT	n/a	n/a	1	1	HOSE	HORSE	HOSE	DOLL	15	[0, 0, 0]	-999	PAL1	1	R1175N
2100.168	0.001	2614982	TEST_PROBE	n/a	wordpools/wordpool_EN.txt	1	1	HOSE	HORSE	HOSE	DOLL	15	[0, 0, 0]	-999	PAL1	1	R1175N
2100.169	1.79	2614983	REC_START	n/a	n/a	1	-999	n/a	HORSE	n/a	n/a	15	[0, 0, 0]	-999	PAL1	1	R1175N
2101.959	1.581	2616773	REC_EVENT	1790	n/a	1	1	HOSE	HORSE	HOSE	DOLL	15	[0, 0, 0]	-999	PAL1	1	R1175N
2103.54	1.667	2618354	REC_EVENT	3371	n/a	1	1	HOSE	<>	HOSE	DOLL	15	[0, 0, 0]	-999	PAL1	1	R1175N
2105.207	0.013	2620021	REC_END	n/a	n/a	1	-999	n/a	n/a	n/a	n/a	15	[0, 0, 0]	-999	PAL1	1	R1175N
2105.22	0.949	2620034	TEST_ORIENT	n/a	n/a	4	2	SMOKE	SMILE	SLIME	SMOKE	15	[0, 0, 0]	-999	PAL1	1	R1175N
2106.169	0.0	2620983	TEST_PROBE	n/a	wordpools/wordpool_EN.txt	4	2	SMOKE	SMILE	SLIME	SMOKE	15	[0, 0, 0]	-999	PAL1	1	R1175N
2106.169	0.876	2620983	REC_START	n/a	n/a	4	-999	n/a	SMILE	n/a	n/a	15	[0, 0, 0]	-999	PAL1	1	R1175N
2107.045	0.463	2621859	REC_EVENT	876	n/a	4	2	SMOKE	SMOKE	SLIME	SMOKE	15	[0, 0, 0]	-999	PAL1	1	R1175N
2107.508	3.679	2622322	REC_EVENT	1339	n/a	4	2	SMOKE	SMILE	SLIME	SMOKE	15	[0, 0, 0]	-999	PAL1	1	R1175N
2111.187	0.017	2626001	REC_END	n/a	n/a	4	-999	n/a	n/a	n/a	n/a	15	[0, 0, 0]	-999	PAL1	1	R1175N
2111.204	0.949	2626018	TEST_ORIENT	n/a	n/a	3	3	CRANE	CAR	CRANE	CAVE	15	[0, 0, 0]	-999	PAL1	1	R1175N
2112.153	0.0	2626967	TEST_PROBE	n/a	wordpools/wordpool_EN.txt	3	3	CRANE	CAR	CRANE	CAVE	15	[0, 0, 0]	-999	PAL1	1	R1175N
2112.153	1.315	2626967	REC_START	n/a	n/a	3	-999	n/a	CAR	n/a	n/a	15	[0, 0, 0]	-999	PAL1	1	R1175N
2113.468	0.595	2628282	REC_EVENT	1315	n/a	3	3	CRANE	CRANE	CRANE	CAVE	15	[0, 0, 0]	-999	PAL1	1	R1175N
2114.063	3.107	2628877	REC_EVENT	1910	n/a	3	3	CRANE	CAR	CRANE	CAVE	15	[0, 0, 0]	-999	PAL1	1	R1175N
2117.17	0.018	2631984	REC_END	n/a	n/a	3	-999	n/a	n/a	n/a	n/a	15	[0, 0, 0]	-999	PAL1	1	R1175N
2117.188	0.882	2632002	TEST_ORIENT	n/a	n/a	6	4	HOOK	COAT	MAP	HOOK	15	[0, 0, 0]	-999	PAL1	1	R1175N
2118.07	0.0	2632884	TEST_PROBE	n/a	wordpools/wordpool_EN.txt	6	4	HOOK	COAT	MAP	HOOK	15	[0, 0, 0]	-999	PAL1	1	R1175N
2118.07	2.047	2632884	REC_START	n/a	n/a	6	-999	n/a	COAT	n/a	n/a	15	[0, 0, 0]	-999	PAL1	1	R1175N
2120.117	0.547	2634932	REC_EVENT	2047	n/a	6	4	HOOK	HOOK	MAP	HOOK	15	[0, 0, 0]	-999	PAL1	1	R1175N
2120.664	2.423	2635479	REC_EVENT	2594	n/a	6	4	HOOK	COAT	MAP	HOOK	15	[0, 0, 0]	-999	PAL1	1	R1175N
2123.087	0.017	2637902	REC_END	n/a	n/a	6	-999	n/a	n/a	n/a	n/a	15	[0, 0, 0]	-999	PAL1	1	R1175N
2123.104	0.85	2637919	TEST_ORIENT	n/a	n/a	5	5	SPRING	GLASS	SPRING	BOMB	15	[0, 0, 0]	-999	PAL1	1	R1175N
2123.954	0.001	2638769	TEST_PROBE	n/a	wordpools/wordpool_EN.txt	5	5	SPRING	GLASS	SPRING	BOMB	15	[0, 0, 0]	-999	PAL1	1	R1175N
2123.955	1.015	2638770	REC_START	n/a	n/a	5	-999	n/a	GLASS	n/a	n/a	15	[0, 0, 0]	-999	PAL1	1	R1175N
2124.97	0.983	2639785	REC_EVENT	1015	n/a	5	5	SPRING	TRAIN	SPRING	BOMB	15	[0, 0, 0]	-999	PAL1	1	R1175N
2125.953	3.027	2640768	REC_EVENT	1998	n/a	5	5	SPRING	GLASS	SPRING	BOMB	15	[0, 0, 0]	-999	PAL1	1	R1175N
2128.98	0.008	2643795	REC_END	n/a	n/a	5	-999	n/a	n/a	n/a	n/a	15	[0, 0, 0]	-999	PAL1	1	R1175N
2128.988	0.801	2643803	TEST_ORIENT	n/a	n/a	2	6	ROOM	n/a	SWORD	ROOM	15	[0, 0, 0]	-999	PAL1	1	R1175N
2129.789	0.0	2644604	TEST_PROBE	n/a	wordpools/wordpool_EN.txt	2	6	ROOM	n/a	SWORD	ROOM	15	[0, 0, 0]	-999	PAL1	1	R1175N
2129.789	1.636	2644604	REC_START	n/a	n/a	2	-999	n/a	n/a	n/a	n/a	15	[0, 0, 0]	-999	PAL1	1	R1175N
2131.425	3.381	2646240	REC_EVENT	1636	n/a	2	6	ROOM	<>	SWORD	ROOM	15	[0, 0, 0]	-999	PAL1	1	R1175N
2134.806	7.569	2649621	REC_END	n/a	n/a	2	-999	n/a	n/a	n/a	n/a	15	[0, 0, 0]	-999	PAL1	1	R1175N
2142.375	10.45	2657190	ENCODING_START	n/a	n/a	0	-999	n/a	n/a	n/a	n/a	16	[0, 0, 0]	-999	PAL1	1	R1175N
2152.825	1.0	2667640	STUDY_ORIENT	n/a	n/a	1	1	PARK	APE	PARK	CLAY	16	[0, 0, 0]	-999	PAL1	1	R1175N
2153.825	5.034	2668640	STUDY_PAIR	n/a	wordpools/wordpool_EN.txt	1	1	PARK	APE	PARK	CLAY	16	[0, 0, 0]	-999	PAL1	1	R1175N
2158.859	0.9	2673674	STUDY_ORIENT	n/a	n/a	2	4	FOOD	HOUSE	FOOD	CLOWN	16	[0, 0, 0]	-999	PAL1	1	R1175N
2159.759	5.034	2674574	STUDY_PAIR	n/a	wordpools/wordpool_EN.txt	2	4	FOOD	HOUSE	FOOD	CLOWN	16	[0, 0, 0]	-999	PAL1	1	R1175N
2164.793	1.0	2679608	STUDY_ORIENT	n/a	n/a	3	5	CORN	CORN	CORN	FOG	16	[0, 0, 0]	-999	PAL1	1	R1175N
2165.793	5.034	2680608	STUDY_PAIR	n/a	wordpools/wordpool_EN.txt	3	5	CORN	CORN	CORN	FOG	16	[0, 0, 0]	-999	PAL1	1	R1175N
2170.827	0.967	2685642	STUDY_ORIENT	n/a	n/a	4	6	WALL	WALL	WALL	PET	16	[0, 0, 0]	-999	PAL1	1	R1175N
2171.794	5.034	2686610	STUDY_PAIR	n/a	wordpools/wordpool_EN.txt	4	6	WALL	WALL	WALL	PET	16	[0, 0, 0]	-999	PAL1	1	R1175N
2176.828	0.816	2691644	STUDY_ORIENT	n/a	n/a	5	3	DOOR	HORSE	APE	DOOR	16	[0, 0, 0]	-999	PAL1	1	R1175N
2177.644	5.034	2692460	STUDY_PAIR	n/a	wordpools/wordpool_EN.txt	5	3	DOOR	HORSE	APE	DOOR	16	[0, 0, 0]	-999	PAL1	1	R1175N
2182.678	1.0	2697494	STUDY_ORIENT	n/a	n/a	6	2	WEED	BEACH	AXE	WEED	16	[0, 0, 0]	-999	PAL1	1	R1175N
2183.678	4.018	2698494	STUDY_PAIR	n/a	wordpools/wordpool_EN.txt	6	2	WEED	BEACH	AXE	WEED	16	[0, 0, 0]	-999	PAL1	1	R1175N
2187.696	0.999	2702512	START	n/a	n/a	-999	-999	n/a	n/a	n/a	n/a	16	[-999, -999, -999]	-999	PAL1	1	R1175N
2188.695	0.017	2703511	MATH_START	n/a	n/a	-999	-999	n/a	n/a	n/a	n/a	16	[0, 0, 0]	-999	PAL1	1	R1175N
2188.712	6.317	2703528	PROB	6291	n/a	-999	-999	n/a	n/a	n/a	n/a	16	[1, 2, 7]	10	PAL1	1	R1175N
2195.029	8.385	2709845	PROB	8350	n/a	-999	-999	n/a	n/a	n/a	n/a	16	[3, 5, 6]	15	PAL1	1	R1175N
2203.414	5.261	2718230	PROB	5261	n/a	-999	-999	n/a	n/a	n/a	n/a	16	[6, 3, 6]	15	PAL1	1	R1175N
2208.675	0.006	2723491	STOP	n/a	n/a	-999	-999	n/a	n/a	n/a	n/a	16	[-999, -999, -999]	-999	PAL1	1	R1175N
2208.681	0.0	2723497	MATH_END	n/a	n/a	-999	-999	n/a	n/a	n/a	n/a	16	[0, 0, 0]	-999	PAL1	1	R1175N
2208.681	0.017	2723497	TEST_START	n/a	n/a	-999	-999	n/a	n/a	n/a	n/a	16	[0, 0, 0]	-999	PAL1	1	R1175N
2208.698	0.933	2723514	TEST_ORIENT	n/a	n/a	1	1	PARK	APE	PARK	CLAY	16	[0, 0, 0]	-999	PAL1	1	R1175N
2209.631	0.001	2724447	TEST_PROBE	n/a	wordpools/wordpool_EN.txt	1	1	PARK	APE	PARK	CLAY	16	[0, 0, 0]	-999	PAL1	1	R1175N
2209.632	1.388	2724448	REC_START	n/a	n/a	1	-999	n/a	APE	n/a	n/a	16	[0, 0, 0]	-999	PAL1	1	R1175N
2211.02	0.486	2725836	REC_EVENT	1388	n/a	1	1	PARK	PARK	PARK	CLAY	16	[0, 0, 0]	-999	PAL1	1	R1175N
2211.506	3.142	2726322	REC_EVENT	1874	n/a	1	1	PARK	APE	PARK	CLAY	16	[0, 0, 0]	-999	PAL1	1	R1175N
2214.648	0.017	2729464	REC_END	n/a	n/a	1	-999	n/a	n/a	n/a	n/a	16	[0, 0, 0]	-999	PAL1	1	R1175N
2214.665	0.967	2729481	TEST_ORIENT	n/a	n/a	6	2	WEED	BEACH	AXE	WEED	16	[0, 0, 0]	-999	PAL1	1	R1175N
2215.632	0.0	2730448	TEST_PROBE	n/a	wordpools/wordpool_EN.txt	6	2	WEED	BEACH	AXE	WEED	16	[0, 0, 0]	-999	PAL1	1	R1175N
2215.632	1.627	2730448	REC_START	n/a	n/a	6	-999	n/a	BEACH	n/a	n/a	16	[0, 0, 0]	-999	PAL1	1	R1175N
2217.259	0.647	2732075	REC_EVENT	1627	n/a	6	2	WEED	BEACH	AXE	WEED	16	[0, 0, 0]	-999	PAL1	1	R1175N
2217.906	2.743	2732722	REC_EVENT	2274	n/a	6	2	WEED	<>	AXE	WEED	16	[0, 0, 0]	-999	PAL1	1	R1175N
2220.649	0.017	2735465	REC_END	n/a	n/a	6	-999	n/a	n/a	n/a	n/a	16	[0, 0, 0]	-999	PAL1	1	R1175N
2220.666	0.95	2735482	TEST_ORIENT	n/a	n/a	5	3	DOOR	HORSE	APE	DOOR	16	[0, 0, 0]	-999	PAL1	1	R1175N
2221.616	0.0	2736432	REC_START	n/a	n/a	5	-999	n/a	HORSE	n/a	n/a	16	[0, 0, 0]	-999	PAL1	1	R1175N
2221.616	2.049	2736432	TEST_PROBE	n/a	wordpools/wordpool_EN.txt	5	3	DOOR	HORSE	APE	DOOR	16	[0, 0, 0]	-999	PAL1	1	R1175N
2223.665	2.968	2738481	REC_EVENT	2049	n/a	5	3	DOOR	HORSE	APE	DOOR	16	[0, 0, 0]	-999	PAL1	1	R1175N
2226.633	0.017	2741450	REC_END	n/a	n/a	5	-999	n/a	n/a	n/a	n/a	16	[0, 0, 0]	-999	PAL1	1	R1175N
2226.65	0.933	2741467	TEST_ORIENT	n/a	n/a	2	4	FOOD	HOUSE	FOOD	CLOWN	16	[0, 0, 0]	-999	PAL1	1	R1175N
2227.583	0.001	2742400	TEST_PROBE	n/a	wordpools/wordpool_EN.txt	2	4	FOOD	HOUSE	FOOD	CLOWN	16	[0, 0, 0]	-999	PAL1	1	R1175N
2227.584	1.545	2742401	REC_START	n/a	n/a	2	-999	n/a	HOUSE	n/a	n/a	16	[0, 0, 0]	-999	PAL1	1	R1175N
2229.129	2.041	2743946	REC_EVENT	1545	n/a	2	4	FOOD	FOOD	FOOD	CLOWN	16	[0, 0, 0]	-999	PAL1	1	R1175N
2231.17	1.43	2745987	REC_EVENT	3586	n/a	2	4	FOOD	HOUSE	FOOD	CLOWN	16	[0, 0, 0]	-999	PAL1	1	R1175N
2232.6	0.017	2747417	REC_END	n/a	n/a	2	-999	n/a	n/a	n/a	n/a	16	[0, 0, 0]	-999	PAL1	1	R1175N
2232.617	0.967	2747434	TEST_ORIENT	n/a	n/a	3	5	CORN	CORN	CORN	FOG	16	[0, 0, 0]	-999	PAL1	1	R1175N
2233.584	0.0	2748401	REC_START	n/a	n/a	3	-999	n/a	CORN	n/a	n/a	16	[0, 0, 0]	-999	PAL1	1	R1175N
2233.584	1.269	2748401	TEST_PROBE	n/a	wordpools/wordpool_EN.txt	3	5	CORN	CORN	CORN	FOG	16	[0, 0, 0]	-999	PAL1	1	R1175N
2234.853	3.748	2749670	REC_EVENT	1269	n/a	3	5	CORN	CORN	CORN	FOG	16	[0, 0, 0]	-999	PAL1	1	R1175N
2238.601	0.017	2753418	REC_END	n/a	n/a	3	-999	n/a	n/a	n/a	n/a	16	[0, 0, 0]	-999	PAL1	1	R1175N
2238.618	0.85	2753435	TEST_ORIENT	n/a	n/a	4	6	WALL	WALL	WALL	PET	16	[0, 0, 0]	-999	PAL1	1	R1175N
2239.468	0.0	2754285	TEST_PROBE	n/a	wordpools/wordpool_EN.txt	4	6	WALL	WALL	WALL	PET	16	[0, 0, 0]	-999	PAL1	1	R1175N
2239.468	0.0	2754285	REC_START	n/a	n/a	4	-999	n/a	WALL	n/a	n/a	16	[0, 0, 0]	-999	PAL1	1	R1175N
2239.468	1.278	2754285	REC_EVENT	0	n/a	4	6	WALL	<>	WALL	PET	16	[0, 0, 0]	-999	PAL1	1	R1175N
2240.746	3.739	2755563	REC_EVENT	1278	n/a	4	6	WALL	WALL	WALL	PET	16	[0, 0, 0]	-999	PAL1	1	R1175N
2244.485	4.482	2759302	REC_END	n/a	n/a	4	-999	n/a	n/a	n/a	n/a	16	[0, 0, 0]	-999	PAL1	1	R1175N
2248.967	10.453	2763784	ENCODING_START	n/a	n/a	0	-999	n/a	n/a	n/a	n/a	17	[0, 0, 0]	-999	PAL1	1	R1175N
2259.42	0.834	2774237	STUDY_ORIENT	n/a	n/a	1	5	STONE	STONE	STONE	MOUTH	17	[0, 0, 0]	-999	PAL1	1	R1175N
2260.254	5.034	2775071	STUDY_PAIR	n/a	wordpools/wordpool_EN.txt	1	5	STONE	STONE	STONE	MOUTH	17	[0, 0, 0]	-999	PAL1	1	R1175N
2265.288	0.916	2780105	STUDY_ORIENT	n/a	n/a	2	2	FROG	FROG	GATE	FROG	17	[0, 0, 0]	-999	PAL1	1	R1175N
2266.204	5.034	2781021	STUDY_PAIR	n/a	wordpools/wordpool_EN.txt	2	2	FROG	FROG	GATE	FROG	17	[0, 0, 0]	-999	PAL1	1	R1175N
2271.238	1.0	2786055	STUDY_ORIENT	n/a	n/a	3	1	SINK	n/a	SINK	BEE	17	[0, 0, 0]	-999	PAL1	1	R1175N
2272.238	5.034	2787055	STUDY_PAIR	n/a	wordpools/wordpool_EN.txt	3	1	SINK	n/a	SINK	BEE	17	[0, 0, 0]	-999	PAL1	1	R1175N
2277.272	1.0	2792090	STUDY_ORIENT	n/a	n/a	4	4	STOVE	STOVE	STOVE	SOUP	17	[0, 0, 0]	-999	PAL1	1	R1175N
2278.272	5.034	2793090	STUDY_PAIR	n/a	wordpools/wordpool_EN.txt	4	4	STOVE	STOVE	STOVE	SOUP	17	[0, 0, 0]	-999	PAL1	1	R1175N
2283.306	0.9	2798124	STUDY_ORIENT	n/a	n/a	5	3	TRASH	n/a	ARM	TRASH	17	[0, 0, 0]	-999	PAL1	1	R1175N
2284.206	5.034	2799024	STUDY_PAIR	n/a	wordpools/wordpool_EN.txt	5	3	TRASH	n/a	ARM	TRASH	17	[0, 0, 0]	-999	PAL1	1	R1175N
2289.24	0.967	2804058	STUDY_ORIENT	n/a	n/a	6	6	PIN	PIN	PIN	BROOM	17	[0, 0, 0]	-999	PAL1	1	R1175N
2290.207	4.018	2805025	STUDY_PAIR	n/a	wordpools/wordpool_EN.txt	6	6	PIN	PIN	PIN	BROOM	17	[0, 0, 0]	-999	PAL1	1	R1175N
2294.225	0.999	2809043	START	n/a	n/a	-999	-999	n/a	n/a	n/a	n/a	17	[-999, -999, -999]	-999	PAL1	1	R1175N
2295.224	0.017	2810042	MATH_START	n/a	n/a	-999	-999	n/a	n/a	n/a	n/a	17	[0, 0, 0]	-999	PAL1	1	R1175N
2295.241	18.285	2810059	PROB	18259	n/a	-999	-999	n/a	n/a	n/a	n/a	17	[2, 2, 9]	13	PAL1	1	R1175N
2313.526	6.461	2828344	PROB	6461	n/a	-999	-999	n/a	n/a	n/a	n/a	17	[8, 6, 1]	15	PAL1	1	R1175N
2319.987	0.006	2834805	STOP	n/a	n/a	-999	-999	n/a	n/a	n/a	n/a	17	[-999, -999, -999]	-999	PAL1	1	R1175N
2319.993	0.0	2834811	MATH_END	n/a	n/a	-999	-999	n/a	n/a	n/a	n/a	17	[0, 0, 0]	-999	PAL1	1	R1175N
2319.993	0.016	2834811	TEST_START	n/a	n/a	-999	-999	n/a	n/a	n/a	n/a	17	[0, 0, 0]	-999	PAL1	1	R1175N
2320.009	0.917	2834827	TEST_ORIENT	n/a	n/a	3	1	SINK	n/a	SINK	BEE	17	[0, 0, 0]	-999	PAL1	1	R1175N
2320.926	0.0	2835744	TEST_PROBE	n/a	wordpools/wordpool_EN.txt	3	1	SINK	n/a	SINK	BEE	17	[0, 0, 0]	-999	PAL1	1	R1175N
2320.926	4.922	2835744	REC_START	n/a	n/a	3	-999	n/a	n/a	n/a	n/a	17	[0, 0, 0]	-999	PAL1	1	R1175N
2325.848	0.095	2840666	REC_EVENT	4922	n/a	3	1	SINK	<>	SINK	BEE	17	[0, 0, 0]	-999	PAL1	1	R1175N
2325.943	0.017	2840761	REC_END	n/a	n/a	3	-999	n/a	n/a	n/a	n/a	17	[0, 0, 0]	-999	PAL1	1	R1175N
2325.96	0.983	2840778	TEST_ORIENT	n/a	n/a	2	2	FROG	FROG	GATE	FROG	17	[0, 0, 0]	-999	PAL1	1	R1175N
2326.943	0.001	2841761	TEST_PROBE	n/a	wordpools/wordpool_EN.txt	2	2	FROG	FROG	GATE	FROG	17	[0, 0, 0]	-999	PAL1	1	R1175N
2326.944	2.307	2841762	REC_START	n/a	n/a	2	-999	n/a	FROG	n/a	n/a	17	[0, 0, 0]	-999	PAL1	1	R1175N
2329.251	0.463	2844069	REC_EVENT	2307	n/a	2	2	FROG	GATE	GATE	FROG	17	[0, 0, 0]	-999	PAL1	1	R1175N
2329.714	2.255	2844532	REC_EVENT	2770	n/a	2	2	FROG	FROG	GATE	FROG	17	[0, 0, 0]	-999	PAL1	1	R1175N
2331.969	0.008	2846788	REC_END	n/a	n/a	2	-999	n/a	n/a	n/a	n/a	17	[0, 0, 0]	-999	PAL1	1	R1175N
2331.977	0.851	2846796	TEST_ORIENT	n/a	n/a	5	3	TRASH	n/a	ARM	TRASH	17	[0, 0, 0]	-999	PAL1	1	R1175N
2332.828	0.001	2847647	TEST_PROBE	n/a	wordpools/wordpool_EN.txt	5	3	TRASH	n/a	ARM	TRASH	17	[0, 0, 0]	-999	PAL1	1	R1175N
2332.829	1.356	2847648	REC_START	n/a	n/a	5	-999	n/a	n/a	n/a	n/a	17	[0, 0, 0]	-999	PAL1	1	R1175N
2334.185	3.669	2849004	REC_EVENT	1356	n/a	5	3	TRASH	<>	ARM	TRASH	17	[0, 0, 0]	-999	PAL1	1	R1175N
2337.854	0.007	2852673	REC_END	n/a	n/a	5	-999	n/a	n/a	n/a	n/a	17	[0, 0, 0]	-999	PAL1	1	R1175N
2337.861	1.033	2852680	TEST_ORIENT	n/a	n/a	4	4	STOVE	STOVE	STOVE	SOUP	17	[0, 0, 0]	-999	PAL1	1	R1175N
2338.894	0.002	2853713	TEST_PROBE	n/a	wordpools/wordpool_EN.txt	4	4	STOVE	STOVE	STOVE	SOUP	17	[0, 0, 0]	-999	PAL1	1	R1175N
2338.896	1.176	2853715	REC_START	n/a	n/a	4	-999	n/a	STOVE	n/a	n/a	17	[0, 0, 0]	-999	PAL1	1	R1175N
2340.072	0.57	2854891	REC_EVENT	1176	n/a	4	4	STOVE	<>	STOVE	SOUP	17	[0, 0, 0]	-999	PAL1	1	R1175N
2340.642	3.204	2855461	REC_EVENT	1746	n/a	4	4	STOVE	STOVE	STOVE	SOUP	17	[0, 0, 0]	-999	PAL1	1	R1175N
2343.846	0.049	2858665	REC_EVENT	4950	n/a	4	4	STOVE	<>	STOVE	SOUP	17	[0, 0, 0]	-999	PAL1	1	R1175N
2343.895	0.017	2858714	REC_END	n/a	n/a	4	-999	n/a	n/a	n/a	n/a	17	[0, 0, 0]	-999	PAL1	1	R1175N
2343.912	0.967	2858731	TEST_ORIENT	n/a	n/a	1	5	STONE	STONE	STONE	MOUTH	17	[0, 0, 0]	-999	PAL1	1	R1175N
2344.879	0.0	2859698	REC_START	n/a	n/a	1	-999	n/a	STONE	n/a	n/a	17	[0, 0, 0]	-999	PAL1	1	R1175N
2344.879	1.367	2859698	TEST_PROBE	n/a	wordpools/wordpool_EN.txt	1	5	STONE	STONE	STONE	MOUTH	17	[0, 0, 0]	-999	PAL1	1	R1175N
2346.246	0.436	2861065	REC_EVENT	1367	n/a	1	5	STONE	MOUTH	STONE	MOUTH	17	[0, 0, 0]	-999	PAL1	1	R1175N
2346.682	3.214	2861501	REC_EVENT	1803	n/a	1	5	STONE	STONE	STONE	MOUTH	17	[0, 0, 0]	-999	PAL1	1	R1175N
2349.896	0.016	2864715	REC_END	n/a	n/a	1	-999	n/a	n/a	n/a	n/a	17	[0, 0, 0]	-999	PAL1	1	R1175N
2349.912	0.802	2864731	TEST_ORIENT	n/a	n/a	6	6	PIN	PIN	PIN	BROOM	17	[0, 0, 0]	-999	PAL1	1	R1175N
2350.714	0.0	2865533	TEST_PROBE	n/a	wordpools/wordpool_EN.txt	6	6	PIN	PIN	PIN	BROOM	17	[0, 0, 0]	-999	PAL1	1	R1175N
2350.714	2.036	2865533	REC_START	n/a	n/a	6	-999	n/a	PIN	n/a	n/a	17	[0, 0, 0]	-999	PAL1	1	R1175N
2352.75	0.986	2867569	REC_EVENT	2036	n/a	6	6	PIN	<>	PIN	BROOM	17	[0, 0, 0]	-999	PAL1	1	R1175N
2353.736	1.994	2868555	REC_EVENT	3022	n/a	6	6	PIN	PIN	PIN	BROOM	17	[0, 0, 0]	-999	PAL1	1	R1175N
2355.73	7.671	2870549	REC_END	n/a	n/a	6	-999	n/a	n/a	n/a	n/a	17	[0, 0, 0]	-999	PAL1	1	R1175N
2363.401	10.448	2878220	ENCODING_START	n/a	n/a	0	-999	n/a	n/a	n/a	n/a	18	[0, 0, 0]	-999	PAL1	1	R1175N
2373.849	1.016	2888668	STUDY_ORIENT	n/a	n/a	1	5	SCHOOL	SCREW	CHEEK	SCHOOL	18	[0, 0, 0]	-999	PAL1	1	R1175N
2374.865	5.034	2889684	STUDY_PAIR	n/a	wordpools/wordpool_EN.txt	1	5	SCHOOL	SCREW	CHEEK	SCHOOL	18	[0, 0, 0]	-999	PAL1	1	R1175N
2379.899	1.017	2894718	STUDY_ORIENT	n/a	n/a	2	4	TRUCK	TRUCK	TRUCK	PURSE	18	[0, 0, 0]	-999	PAL1	1	R1175N
2380.916	5.034	2895735	STUDY_PAIR	n/a	wordpools/wordpool_EN.txt	2	4	TRUCK	TRUCK	TRUCK	PURSE	18	[0, 0, 0]	-999	PAL1	1	R1175N
2385.95	1.0	2900770	STUDY_ORIENT	n/a	n/a	3	1	MUG	n/a	DITCH	MUG	18	[0, 0, 0]	-999	PAL1	1	R1175N
2386.95	5.034	2901770	STUDY_PAIR	n/a	wordpools/wordpool_EN.txt	3	1	MUG	n/a	DITCH	MUG	18	[0, 0, 0]	-999	PAL1	1	R1175N
2391.984	0.933	2906804	STUDY_ORIENT	n/a	n/a	4	6	PIT	PIT	PIT	CHIEF	18	[0, 0, 0]	-999	PAL1	1	R1175N
2392.917	5.034	2907737	STUDY_PAIR	n/a	wordpools/wordpool_EN.txt	4	6	PIT	PIT	PIT	CHIEF	18	[0, 0, 0]	-999	PAL1	1	R1175N
2397.951	0.801	2912771	STUDY_ORIENT	n/a	n/a	5	3	PASTE	PASTE	PASTE	TAIL	18	[0, 0, 0]	-999	PAL1	1	R1175N
2398.752	5.034	2913572	STUDY_PAIR	n/a	wordpools/wordpool_EN.txt	5	3	PASTE	PASTE	PASTE	TAIL	18	[0, 0, 0]	-999	PAL1	1	R1175N
2403.786	0.883	2918606	STUDY_ORIENT	n/a	n/a	6	2	BOX	n/a	LAND	BOX	18	[0, 0, 0]	-999	PAL1	1	R1175N
2404.669	4.001	2919489	STUDY_PAIR	n/a	wordpools/wordpool_EN.txt	6	2	BOX	n/a	LAND	BOX	18	[0, 0, 0]	-999	PAL1	1	R1175N
2408.67	1.0	2923490	START	n/a	n/a	-999	-999	n/a	n/a	n/a	n/a	18	[-999, -999, -999]	-999	PAL1	1	R1175N
2409.67	0.017	2924490	MATH_START	n/a	n/a	-999	-999	n/a	n/a	n/a	n/a	18	[0, 0, 0]	-999	PAL1	1	R1175N
2409.687	8.617	2924507	PROB	8591	n/a	-999	-999	n/a	n/a	n/a	n/a	18	[1, 1, 6]	8	PAL1	1	R1175N
2418.304	10.589	2933124	PROB	10589	n/a	-999	-999	n/a	n/a	n/a	n/a	18	[2, 9, 4]	16	PAL1	1	R1175N
2428.893	0.011	2943713	STOP	n/a	n/a	-999	-999	n/a	n/a	n/a	n/a	18	[-999, -999, -999]	-999	PAL1	1	R1175N
2428.904	0.0	2943724	MATH_END	n/a	n/a	-999	-999	n/a	n/a	n/a	n/a	18	[0, 0, 0]	-999	PAL1	1	R1175N
2428.904	0.017	2943724	TEST_START	n/a	n/a	-999	-999	n/a	n/a	n/a	n/a	18	[0, 0, 0]	-999	PAL1	1	R1175N
2428.921	0.818	2943741	TEST_ORIENT	n/a	n/a	3	1	MUG	n/a	DITCH	MUG	18	[0, 0, 0]	-999	PAL1	1	R1175N
2429.739	0.001	2944559	TEST_PROBE	n/a	wordpools/wordpool_EN.txt	3	1	MUG	n/a	DITCH	MUG	18	[0, 0, 0]	-999	PAL1	1	R1175N
2429.74	4.899	2944560	REC_START	n/a	n/a	3	-999	n/a	n/a	n/a	n/a	18	[0, 0, 0]	-999	PAL1	1	R1175N
2434.639	0.126	2949459	REC_EVENT	4899	n/a	3	1	MUG	<>	DITCH	MUG	18	[0, 0, 0]	-999	PAL1	1	R1175N
2434.765	0.008	2949585	REC_END	n/a	n/a	3	-999	n/a	n/a	n/a	n/a	18	[0, 0, 0]	-999	PAL1	1	R1175N
2434.773	0.933	2949593	TEST_ORIENT	n/a	n/a	6	2	BOX	n/a	LAND	BOX	18	[0, 0, 0]	-999	PAL1	1	R1175N
2435.706	0.001	2950526	TEST_PROBE	n/a	wordpools/wordpool_EN.txt	6	2	BOX	n/a	LAND	BOX	18	[0, 0, 0]	-999	PAL1	1	R1175N
2435.707	4.876	2950527	REC_START	n/a	n/a	6	-999	n/a	n/a	n/a	n/a	18	[0, 0, 0]	-999	PAL1	1	R1175N
2440.583	0.14	2955404	REC_EVENT	4876	n/a	6	2	BOX	<>	LAND	BOX	18	[0, 0, 0]	-999	PAL1	1	R1175N
2440.723	0.017	2955544	REC_END	n/a	n/a	6	-999	n/a	n/a	n/a	n/a	18	[0, 0, 0]	-999	PAL1	1	R1175N
2440.74	0.85	2955561	TEST_ORIENT	n/a	n/a	5	3	PASTE	PASTE	PASTE	TAIL	18	[0, 0, 0]	-999	PAL1	1	R1175N
2441.59	0.001	2956411	TEST_PROBE	n/a	wordpools/wordpool_EN.txt	5	3	PASTE	PASTE	PASTE	TAIL	18	[0, 0, 0]	-999	PAL1	1	R1175N
2441.591	1.411	2956412	REC_START	n/a	n/a	5	-999	n/a	PASTE	n/a	n/a	18	[0, 0, 0]	-999	PAL1	1	R1175N
2443.002	0.812	2957823	REC_EVENT	1411	n/a	5	3	PASTE	PASTE	PASTE	TAIL	18	[0, 0, 0]	-999	PAL1	1	R1175N
2443.814	2.793	2958635	REC_EVENT	2223	n/a	5	3	PASTE	<>	PASTE	TAIL	18	[0, 0, 0]	-999	PAL1	1	R1175N
2446.607	0.017	2961428	REC_END	n/a	n/a	5	-999	n/a	n/a	n/a	n/a	18	[0, 0, 0]	-999	PAL1	1	R1175N
2446.624	0.867	2961445	TEST_ORIENT	n/a	n/a	2	4	TRUCK	TRUCK	TRUCK	PURSE	18	[0, 0, 0]	-999	PAL1	1	R1175N
2447.491	0.0	2962312	TEST_PROBE	n/a	wordpools/wordpool_EN.txt	2	4	TRUCK	TRUCK	TRUCK	PURSE	18	[0, 0, 0]	-999	PAL1	1	R1175N
2447.491	1.03	2962312	REC_START	n/a	n/a	2	-999	n/a	TRUCK	n/a	n/a	18	[0, 0, 0]	-999	PAL1	1	R1175N
