onset	duration	sample	trial_type	response_time	serialpos	probepos	probe_word	resp_word	study_1	study_2	list	test	answer	experiment	session	subject
0.0	59.625	573101	SESS_START	n/a	-999	-999	n/a	n/a	n/a	n/a	-999	[0, 0, 0]	-999	PAL1	3	R1091N
59.625	1.017	632724	START	n/a	-999	-999	n/a	n/a	n/a	n/a	-1	[-999, -999, -999]	-999	PAL1	3	R1091N
60.642	4.717	633741	PROB	4695	-999	-999	n/a	n/a	n/a	n/a	-1	[2, 6, 5]	13	PAL1	3	R1091N
65.359	6.601	638458	PROB	6570	-999	-999	n/a	n/a	n/a	n/a	-1	[6, 9, 6]	21	PAL1	3	R1091N
71.96	3.701	645058	PROB	3673	-999	-999	n/a	n/a	n/a	n/a	-1	[8, 3, 9]	20	PAL1	3	R1091N
75.661	25.316	648759	PROB	25316	-999	-999	n/a	n/a	n/a	n/a	-1	[7, 8, 4]	21	PAL1	3	R1091N
100.977	43.808	674074	STOP	n/a	-999	-999	n/a	n/a	n/a	n/a	-1	[-999, -999, -999]	-999	PAL1	3	R1091N
144.785	10.439	717881	ENCODING_START	n/a	0	-999	n/a	n/a	n/a	n/a	1	[0, 0, 0]	-999	PAL1	3	R1091N
155.224	0.967	728319	STUDY_ORIENT	n/a	1	5	STOOL	PASS	PEAR	STOOL	1	[0, 0, 0]	-999	PAL1	3	R1091N
156.191	5.018	729286	STUDY_PAIR	n/a	1	5	STOOL	PASS	PEAR	STOOL	1	[0, 0, 0]	-999	PAL1	3	R1091N
161.209	0.949	734304	STUDY_ORIENT	n/a	2	6	CAR	PASS	ROAD	CAR	1	[0, 0, 0]	-999	PAL1	3	R1091N
162.158	5.035	735253	STUDY_PAIR	n/a	2	6	CAR	PASS	ROAD	CAR	1	[0, 0, 0]	-999	PAL1	3	R1091N
167.193	1.0	740288	STUDY_ORIENT	n/a	3	3	VASE	VASE	VASE	WEED	1	[0, 0, 0]	-999	PAL1	3	R1091N
168.193	5.018	741288	STUDY_PAIR	n/a	3	3	VASE	VASE	VASE	WEED	1	[0, 0, 0]	-999	PAL1	3	R1091N
173.211	0.916	746306	STUDY_ORIENT	n/a	4	2	SPONGE	PASS	SPONGE	CHIEF	1	[0, 0, 0]	-999	PAL1	3	R1091N
174.127	5.034	747222	STUDY_PAIR	n/a	4	2	SPONGE	PASS	SPONGE	CHIEF	1	[0, 0, 0]	-999	PAL1	3	R1091N
179.161	0.918	752255	STUDY_ORIENT	n/a	5	1	SEED	PASS	BALL	SEED	1	[0, 0, 0]	-999	PAL1	3	R1091N
180.079	5.033	753173	STUDY_PAIR	n/a	5	1	SEED	PASS	BALL	SEED	1	[0, 0, 0]	-999	PAL1	3	R1091N
185.112	0.934	758206	STUDY_ORIENT	n/a	6	4	SNAIL	n/a	SNAIL	PLANT	1	[0, 0, 0]	-999	PAL1	3	R1091N
186.046	4.001	759140	STUDY_PAIR	n/a	6	4	SNAIL	n/a	SNAIL	PLANT	1	[0, 0, 0]	-999	PAL1	3	R1091N
190.047	1.0	763141	START	n/a	-999	-999	n/a	n/a	n/a	n/a	1	[-999, -999, -999]	-999	PAL1	3	R1091N
191.047	0.017	764141	MATH_START	n/a	-999	-999	n/a	n/a	n/a	n/a	1	[0, 0, 0]	-999	PAL1	3	R1091N
191.064	6.484	764158	PROB	6457	-999	-999	n/a	n/a	n/a	n/a	1	[3, 6, 2]	11	PAL1	3	R1091N
197.548	3.984	770642	PROB	3957	-999	-999	n/a	n/a	n/a	n/a	1	[1, 1, 6]	8	PAL1	3	R1091N
201.532	6.235	774626	PROB	6205	-999	-999	n/a	n/a	n/a	n/a	1	[1, 7, 1]	9	PAL1	3	R1091N
207.767	7.538	780860	PROB	7538	-999	-999	n/a	n/a	n/a	n/a	1	[7, 7, 6]	20	PAL1	3	R1091N
215.305	0.013	788398	STOP	n/a	-999	-999	n/a	n/a	n/a	n/a	1	[-999, -999, -999]	-999	PAL1	3	R1091N
215.318	0.0	788411	MATH_END	n/a	-999	-999	n/a	n/a	n/a	n/a	1	[0, 0, 0]	-999	PAL1	3	R1091N
215.318	0.017	788411	TEST_START	n/a	-999	-999	n/a	n/a	n/a	n/a	1	[0, 0, 0]	-999	PAL1	3	R1091N
215.335	0.866	788428	TEST_ORIENT	n/a	5	1	SEED	PASS	BALL	SEED	1	[0, 0, 0]	-999	PAL1	3	R1091N
216.201	0.001	789294	TEST_PROBE	n/a	5	1	SEED	PASS	BALL	SEED	1	[0, 0, 0]	-999	PAL1	3	R1091N
216.202	1.513	789295	REC_START	n/a	5	-999	n/a	PASS	n/a	n/a	1	[0, 0, 0]	-999	PAL1	3	R1091N
217.715	3.495	790808	REC_EVENT	1513	5	1	SEED	PASS	BALL	SEED	1	[0, 0, 0]	-999	PAL1	3	R1091N
221.21	0.009	794303	REC_END	n/a	5	-999	n/a	n/a	n/a	n/a	1	[0, 0, 0]	-999	PAL1	3	R1091N
221.219	0.85	794312	TEST_ORIENT	n/a	4	2	SPONGE	PASS	SPONGE	CHIEF	1	[0, 0, 0]	-999	PAL1	3	R1091N
222.069	0.0	795162	TEST_PROBE	n/a	4	2	SPONGE	PASS	SPONGE	CHIEF	1	[0, 0, 0]	-999	PAL1	3	R1091N
222.069	1.863	795162	REC_START	n/a	4	-999	n/a	PASS	n/a	n/a	1	[0, 0, 0]	-999	PAL1	3	R1091N
223.932	3.153	797025	REC_EVENT	1863	4	2	SPONGE	PASS	SPONGE	CHIEF	1	[0, 0, 0]	-999	PAL1	3	R1091N
227.085	0.017	800178	REC_END	n/a	4	-999	n/a	n/a	n/a	n/a	1	[0, 0, 0]	-999	PAL1	3	R1091N
227.102	0.918	800195	TEST_ORIENT	n/a	3	3	VASE	VASE	VASE	WEED	1	[0, 0, 0]	-999	PAL1	3	R1091N
228.02	0.0	801113	TEST_PROBE	n/a	3	3	VASE	VASE	VASE	WEED	1	[0, 0, 0]	-999	PAL1	3	R1091N
228.02	2.925	801113	REC_START	n/a	3	-999	n/a	VASE	n/a	n/a	1	[0, 0, 0]	-999	PAL1	3	R1091N
230.945	2.092	804037	REC_EVENT	2925	3	3	VASE	VASE	VASE	WEED	1	[0, 0, 0]	-999	PAL1	3	R1091N
233.037	0.017	806129	REC_END	n/a	3	-999	n/a	n/a	n/a	n/a	1	[0, 0, 0]	-999	PAL1	3	R1091N
233.054	0.934	806146	TEST_ORIENT	n/a	6	4	SNAIL	n/a	SNAIL	PLANT	1	[0, 0, 0]	-999	PAL1	3	R1091N
233.988	0.0	807080	TEST_PROBE	n/a	6	4	SNAIL	n/a	SNAIL	PLANT	1	[0, 0, 0]	-999	PAL1	3	R1091N
233.988	5.015	807080	REC_START	n/a	6	-999	n/a	n/a	n/a	n/a	1	[0, 0, 0]	-999	PAL1	3	R1091N
239.003	0.002	812095	REC_EVENT	5015	6	4	SNAIL	<>	SNAIL	PLANT	1	[0, 0, 0]	-999	PAL1	3	R1091N
239.005	0.017	812097	REC_END	n/a	6	-999	n/a	n/a	n/a	n/a	1	[0, 0, 0]	-999	PAL1	3	R1091N
239.022	1.0	812114	TEST_ORIENT	n/a	1	5	STOOL	PASS	PEAR	STOOL	1	[0, 0, 0]	-999	PAL1	3	R1091N
240.022	0.001	813114	TEST_PROBE	n/a	1	5	STOOL	PASS	PEAR	STOOL	1	[0, 0, 0]	-999	PAL1	3	R1091N
240.023	1.824	813115	REC_START	n/a	1	-999	n/a	PASS	n/a	n/a	1	[0, 0, 0]	-999	PAL1	3	R1091N
241.847	3.192	814939	REC_EVENT	1824	1	5	STOOL	PASS	PEAR	STOOL	1	[0, 0, 0]	-999	PAL1	3	R1091N
245.039	0.017	818131	REC_END	n/a	1	-999	n/a	n/a	n/a	n/a	1	[0, 0, 0]	-999	PAL1	3	R1091N
245.056	0.934	818148	TEST_ORIENT	n/a	2	6	CAR	PASS	ROAD	CAR	1	[0, 0, 0]	-999	PAL1	3	R1091N
245.99	0.0	819082	REC_START	n/a	2	-999	n/a	PASS	n/a	n/a	1	[0, 0, 0]	-999	PAL1	3	R1091N
245.99	2.186	819082	TEST_PROBE	n/a	2	6	CAR	PASS	ROAD	CAR	1	[0, 0, 0]	-999	PAL1	3	R1091N
248.176	2.831	821268	REC_EVENT	2186	2	6	CAR	PASS	ROAD	CAR	1	[0, 0, 0]	-999	PAL1	3	R1091N
251.007	126.018	824099	REC_END	n/a	2	-999	n/a	n/a	n/a	n/a	1	[0, 0, 0]	-999	PAL1	3	R1091N
377.025	10.439	950112	ENCODING_START	n/a	0	-999	n/a	n/a	n/a	n/a	2	[0, 0, 0]	-999	PAL1	3	R1091N
387.464	0.783	960551	STUDY_ORIENT	n/a	1	1	CONE	PASS	NOSE	CONE	2	[0, 0, 0]	-999	PAL1	3	R1091N
388.247	5.034	961334	STUDY_PAIR	n/a	1	1	CONE	PASS	NOSE	CONE	2	[0, 0, 0]	-999	PAL1	3	R1091N
393.281	0.799	966368	STUDY_ORIENT	n/a	2	6	VINE	PASS	VINE	MAIL	2	[0, 0, 0]	-999	PAL1	3	R1091N
394.08	5.018	967167	STUDY_PAIR	n/a	2	6	VINE	PASS	VINE	MAIL	2	[0, 0, 0]	-999	PAL1	3	R1091N
399.098	0.884	972184	STUDY_ORIENT	n/a	3	3	BOY	PASS	BANK	BOY	2	[0, 0, 0]	-999	PAL1	3	R1091N
399.982	5.018	973068	STUDY_PAIR	n/a	3	3	BOY	PASS	BANK	BOY	2	[0, 0, 0]	-999	PAL1	3	R1091N
405.0	1.017	978086	STUDY_ORIENT	n/a	4	4	BENCH	n/a	FOOT	BENCH	2	[0, 0, 0]	-999	PAL1	3	R1091N
406.017	5.034	979103	STUDY_PAIR	n/a	4	4	BENCH	n/a	FOOT	BENCH	2	[0, 0, 0]	-999	PAL1	3	R1091N
411.051	0.85	984137	STUDY_ORIENT	n/a	5	5	TENT	n/a	TENT	SKY	2	[0, 0, 0]	-999	PAL1	3	R1091N
411.901	5.034	984987	STUDY_PAIR	n/a	5	5	TENT	n/a	TENT	SKY	2	[0, 0, 0]	-999	PAL1	3	R1091N
416.935	0.917	990021	STUDY_ORIENT	n/a	6	2	STAR	PASS	SPEAR	STAR	2	[0, 0, 0]	-999	PAL1	3	R1091N
417.852	4.018	990938	STUDY_PAIR	n/a	6	2	STAR	PASS	SPEAR	STAR	2	[0, 0, 0]	-999	PAL1	3	R1091N
421.87	1.0	994956	START	n/a	-999	-999	n/a	n/a	n/a	n/a	2	[-999, -999, -999]	-999	PAL1	3	R1091N
422.87	0.016	995956	MATH_START	n/a	-999	-999	n/a	n/a	n/a	n/a	2	[0, 0, 0]	-999	PAL1	3	R1091N
422.886	5.601	995972	PROB	5579	-999	-999	n/a	n/a	n/a	n/a	2	[3, 6, 4]	11	PAL1	3	R1091N
428.487	5.485	1001572	PROB	5466	-999	-999	n/a	n/a	n/a	n/a	2	[6, 7, 4]	17	PAL1	3	R1091N
433.972	6.001	1007057	PROB	5981	-999	-999	n/a	n/a	n/a	n/a	2	[5, 3, 3]	11	PAL1	3	R1091N
439.973	4.028	1013058	PROB	4028	-999	-999	n/a	n/a	n/a	n/a	2	[4, 5, 1]	10	PAL1	3	R1091N
444.001	0.006	1017086	STOP	n/a	-999	-999	n/a	n/a	n/a	n/a	2	[-999, -999, -999]	-999	PAL1	3	R1091N
444.007	0.0	1017092	TEST_START	n/a	-999	-999	n/a	n/a	n/a	n/a	2	[0, 0, 0]	-999	PAL1	3	R1091N
444.007	0.016	1017092	MATH_END	n/a	-999	-999	n/a	n/a	n/a	n/a	2	[0, 0, 0]	-999	PAL1	3	R1091N
444.023	1.034	1017108	TEST_ORIENT	n/a	1	1	CONE	PASS	NOSE	CONE	2	[0, 0, 0]	-999	PAL1	3	R1091N
445.057	0.001	1018142	TEST_PROBE	n/a	1	1	CONE	PASS	NOSE	CONE	2	[0, 0, 0]	-999	PAL1	3	R1091N
445.058	2.605	1018143	REC_START	n/a	1	-999	n/a	PASS	n/a	n/a	2	[0, 0, 0]	-999	PAL1	3	R1091N
447.663	2.411	1020748	REC_EVENT	2605	1	1	CONE	PASS	NOSE	CONE	2	[0, 0, 0]	-999	PAL1	3	R1091N
450.074	0.016	1023159	REC_END	n/a	1	-999	n/a	n/a	n/a	n/a	2	[0, 0, 0]	-999	PAL1	3	R1091N
450.09	1.0	1023175	TEST_ORIENT	n/a	6	2	STAR	PASS	SPEAR	STAR	2	[0, 0, 0]	-999	PAL1	3	R1091N
451.09	0.0	1024174	TEST_PROBE	n/a	6	2	STAR	PASS	SPEAR	STAR	2	[0, 0, 0]	-999	PAL1	3	R1091N
451.09	2.529	1024174	REC_START	n/a	6	-999	n/a	PASS	n/a	n/a	2	[0, 0, 0]	-999	PAL1	3	R1091N
453.619	2.488	1026703	REC_EVENT	2529	6	2	STAR	PASS	SPEAR	STAR	2	[0, 0, 0]	-999	PAL1	3	R1091N
456.107	0.017	1029191	REC_END	n/a	6	-999	n/a	n/a	n/a	n/a	2	[0, 0, 0]	-999	PAL1	3	R1091N
456.124	0.935	1029208	TEST_ORIENT	n/a	3	3	BOY	PASS	BANK	BOY	2	[0, 0, 0]	-999	PAL1	3	R1091N
457.059	0.0	1030143	TEST_PROBE	n/a	3	3	BOY	PASS	BANK	BOY	2	[0, 0, 0]	-999	PAL1	3	R1091N
457.059	1.316	1030143	REC_START	n/a	3	-999	n/a	PASS	n/a	n/a	2	[0, 0, 0]	-999	PAL1	3	R1091N
458.375	3.701	1031459	REC_EVENT	1316	3	3	BOY	PASS	BANK	BOY	2	[0, 0, 0]	-999	PAL1	3	R1091N
462.076	0.016	1035160	REC_END	n/a	3	-999	n/a	n/a	n/a	n/a	2	[0, 0, 0]	-999	PAL1	3	R1091N
462.092	0.784	1035176	TEST_ORIENT	n/a	4	4	BENCH	n/a	FOOT	BENCH	2	[0, 0, 0]	-999	PAL1	3	R1091N
462.876	0.001	1035960	TEST_PROBE	n/a	4	4	BENCH	n/a	FOOT	BENCH	2	[0, 0, 0]	-999	PAL1	3	R1091N
462.877	5.003	1035961	REC_START	n/a	4	-999	n/a	n/a	n/a	n/a	2	[0, 0, 0]	-999	PAL1	3	R1091N
467.88	0.005	1040964	REC_EVENT	5003	4	4	BENCH	<>	FOOT	BENCH	2	[0, 0, 0]	-999	PAL1	3	R1091N
467.885	0.009	1040969	REC_END	n/a	4	-999	n/a	n/a	n/a	n/a	2	[0, 0, 0]	-999	PAL1	3	R1091N
467.894	0.817	1040978	TEST_ORIENT	n/a	5	5	TENT	n/a	TENT	SKY	2	[0, 0, 0]	-999	PAL1	3	R1091N
468.711	0.0	1041795	TEST_PROBE	n/a	5	5	TENT	n/a	TENT	SKY	2	[0, 0, 0]	-999	PAL1	3	R1091N
468.711	5.015	1041795	REC_START	n/a	5	-999	n/a	n/a	n/a	n/a	2	[0, 0, 0]	-999	PAL1	3	R1091N
473.726	0.002	1046810	REC_EVENT	5015	5	5	TENT	<>	TENT	SKY	2	[0, 0, 0]	-999	PAL1	3	R1091N
473.728	0.017	1046812	REC_END	n/a	5	-999	n/a	n/a	n/a	n/a	2	[0, 0, 0]	-999	PAL1	3	R1091N
473.745	0.85	1046829	TEST_ORIENT	n/a	2	6	VINE	PASS	VINE	MAIL	2	[0, 0, 0]	-999	PAL1	3	R1091N
474.595	0.001	1047679	TEST_PROBE	n/a	2	6	VINE	PASS	VINE	MAIL	2	[0, 0, 0]	-999	PAL1	3	R1091N
474.596	3.605	1047680	REC_START	n/a	2	-999	n/a	PASS	n/a	n/a	2	[0, 0, 0]	-999	PAL1	3	R1091N
478.201	1.411	1051284	REC_EVENT	3605	2	6	VINE	PASS	VINE	MAIL	2	[0, 0, 0]	-999	PAL1	3	R1091N
479.612	1.789	1052695	REC_END	n/a	2	-999	n/a	n/a	n/a	n/a	2	[0, 0, 0]	-999	PAL1	3	R1091N
481.401	10.447	1054484	ENCODING_START	n/a	0	-999	n/a	n/a	n/a	n/a	3	[0, 0, 0]	-999	PAL1	3	R1091N
491.848	1.017	1064931	STUDY_ORIENT	n/a	1	5	SOCK	PASS	SOCK	PEN	3	[0, 0, 0]	-999	PAL1	3	R1091N
492.865	5.034	1065948	STUDY_PAIR	n/a	1	5	SOCK	PASS	SOCK	PEN	3	[0, 0, 0]	-999	PAL1	3	R1091N
497.899	0.783	1070982	STUDY_ORIENT	n/a	2	6	SMILE	PASS	BOOT	SMILE	3	[0, 0, 0]	-999	PAL1	3	R1091N
498.682	5.018	1071765	STUDY_PAIR	n/a	2	6	SMILE	PASS	BOOT	SMILE	3	[0, 0, 0]	-999	PAL1	3	R1091N
503.7	1.0	1076783	STUDY_ORIENT	n/a	3	3	FAN	PASS	FAN	GLOVE	3	[0, 0, 0]	-999	PAL1	3	R1091N
504.7	5.018	1077783	STUDY_PAIR	n/a	3	3	FAN	PASS	FAN	GLOVE	3	[0, 0, 0]	-999	PAL1	3	R1091N
509.718	0.85	1082800	STUDY_ORIENT	n/a	4	4	HEART	POND	HEART	FLUTE	3	[0, 0, 0]	-999	PAL1	3	R1091N
510.568	5.034	1083650	STUDY_PAIR	n/a	4	4	HEART	POND	HEART	FLUTE	3	[0, 0, 0]	-999	PAL1	3	R1091N
515.602	0.9	1088684	STUDY_ORIENT	n/a	5	1	POND	PASS	ICE	POND	3	[0, 0, 0]	-999	PAL1	3	R1091N
516.502	5.018	1089584	STUDY_PAIR	n/a	5	1	POND	PASS	ICE	POND	3	[0, 0, 0]	-999	PAL1	3	R1091N
521.52	0.867	1094602	STUDY_ORIENT	n/a	6	2	FILM	PASS	SPRING	FILM	3	[0, 0, 0]	-999	PAL1	3	R1091N
522.387	4.017	1095469	STUDY_PAIR	n/a	6	2	FILM	PASS	SPRING	FILM	3	[0, 0, 0]	-999	PAL1	3	R1091N
526.404	1.0	1099486	START	n/a	-999	-999	n/a	n/a	n/a	n/a	3	[-999, -999, -999]	-999	PAL1	3	R1091N
527.404	0.017	1100486	MATH_START	n/a	-999	-999	n/a	n/a	n/a	n/a	3	[0, 0, 0]	-999	PAL1	3	R1091N
527.421	5.551	1100503	PROB	5524	-999	-999	n/a	n/a	n/a	n/a	3	[1, 6, 6]	13	PAL1	3	R1091N
532.972	13.477	1106053	PROB	13477	-999	-999	n/a	n/a	n/a	n/a	3	[7, 9, 8]	28	PAL1	3	R1091N
546.449	0.008	1119530	STOP	n/a	-999	-999	n/a	n/a	n/a	n/a	3	[-999, -999, -999]	-999	PAL1	3	R1091N
546.457	0.0	1119538	TEST_START	n/a	-999	-999	n/a	n/a	n/a	n/a	3	[0, 0, 0]	-999	PAL1	3	R1091N
546.457	0.017	1119538	MATH_END	n/a	-999	-999	n/a	n/a	n/a	n/a	3	[0, 0, 0]	-999	PAL1	3	R1091N
546.474	0.9	1119555	TEST_ORIENT	n/a	5	1	POND	PASS	ICE	POND	3	[0, 0, 0]	-999	PAL1	3	R1091N
547.374	0.002	1120455	TEST_PROBE	n/a	5	1	POND	PASS	ICE	POND	3	[0, 0, 0]	-999	PAL1	3	R1091N
547.376	3.345	1120457	REC_START	n/a	5	-999	n/a	PASS	n/a	n/a	3	[0, 0, 0]	-999	PAL1	3	R1091N
550.721	1.67	1123802	REC_EVENT	3345	5	1	POND	PASS	ICE	POND	3	[0, 0, 0]	-999	PAL1	3	R1091N
552.391	0.017	1125472	REC_END	n/a	5	-999	n/a	n/a	n/a	n/a	3	[0, 0, 0]	-999	PAL1	3	R1091N
552.408	0.884	1125489	TEST_ORIENT	n/a	6	2	FILM	PASS	SPRING	FILM	3	[0, 0, 0]	-999	PAL1	3	R1091N
553.292	0.0	1126373	TEST_PROBE	n/a	6	2	FILM	PASS	SPRING	FILM	3	[0, 0, 0]	-999	PAL1	3	R1091N
553.292	2.595	1126373	REC_START	n/a	6	-999	n/a	PASS	n/a	n/a	3	[0, 0, 0]	-999	PAL1	3	R1091N
555.887	2.422	1128968	REC_EVENT	2595	6	2	FILM	PASS	SPRING	FILM	3	[0, 0, 0]	-999	PAL1	3	R1091N
558.309	0.017	1131390	REC_END	n/a	6	-999	n/a	n/a	n/a	n/a	3	[0, 0, 0]	-999	PAL1	3	R1091N
558.326	0.816	1131407	TEST_ORIENT	n/a	3	3	FAN	PASS	FAN	GLOVE	3	[0, 0, 0]	-999	PAL1	3	R1091N
559.142	0.0	1132223	TEST_PROBE	n/a	3	3	FAN	PASS	FAN	GLOVE	3	[0, 0, 0]	-999	PAL1	3	R1091N
559.142	3.42	1132223	REC_START	n/a	3	-999	n/a	PASS	n/a	n/a	3	[0, 0, 0]	-999	PAL1	3	R1091N
562.562	1.597	1135642	REC_EVENT	3420	3	3	FAN	PASS	FAN	GLOVE	3	[0, 0, 0]	-999	PAL1	3	R1091N
564.159	0.018	1137239	REC_END	n/a	3	-999	n/a	n/a	n/a	n/a	3	[0, 0, 0]	-999	PAL1	3	R1091N
564.177	0.85	1137257	TEST_ORIENT	n/a	4	4	HEART	POND	HEART	FLUTE	3	[0, 0, 0]	-999	PAL1	3	R1091N
565.027	0.001	1138107	TEST_PROBE	n/a	4	4	HEART	POND	HEART	FLUTE	3	[0, 0, 0]	-999	PAL1	3	R1091N
565.028	1.829	1138108	REC_START	n/a	4	-999	n/a	POND	n/a	n/a	3	[0, 0, 0]	-999	PAL1	3	R1091N
566.857	3.187	1139937	REC_EVENT	1829	4	4	HEART	POND	HEART	FLUTE	3	[0, 0, 0]	-999	PAL1	3	R1091N
570.044	0.017	1143124	REC_END	n/a	4	-999	n/a	n/a	n/a	n/a	3	[0, 0, 0]	-999	PAL1	3	R1091N
570.061	0.967	1143141	TEST_ORIENT	n/a	1	5	SOCK	PASS	SOCK	PEN	3	[0, 0, 0]	-999	PAL1	3	R1091N
571.028	0.0	1144108	TEST_PROBE	n/a	1	5	SOCK	PASS	SOCK	PEN	3	[0, 0, 0]	-999	PAL1	3	R1091N
571.028	2.039	1144108	REC_START	n/a	1	-999	n/a	PASS	n/a	n/a	3	[0, 0, 0]	-999	PAL1	3	R1091N
573.067	2.978	1146147	REC_EVENT	2039	1	5	SOCK	PASS	SOCK	PEN	3	[0, 0, 0]	-999	PAL1	3	R1091N
576.045	0.017	1149125	REC_END	n/a	1	-999	n/a	n/a	n/a	n/a	3	[0, 0, 0]	-999	PAL1	3	R1091N
576.062	0.817	1149142	TEST_ORIENT	n/a	2	6	SMILE	PASS	BOOT	SMILE	3	[0, 0, 0]	-999	PAL1	3	R1091N
576.879	0.0	1149959	TEST_PROBE	n/a	2	6	SMILE	PASS	BOOT	SMILE	3	[0, 0, 0]	-999	PAL1	3	R1091N
576.879	1.545	1149959	REC_START	n/a	2	-999	n/a	PASS	n/a	n/a	3	[0, 0, 0]	-999	PAL1	3	R1091N
578.424	3.472	1151504	REC_EVENT	1545	2	6	SMILE	PASS	BOOT	SMILE	3	[0, 0, 0]	-999	PAL1	3	R1091N
581.896	11.505	1154976	REC_END	n/a	2	-999	n/a	n/a	n/a	n/a	3	[0, 0, 0]	-999	PAL1	3	R1091N
593.401	10.449	1166480	ENCODING_START	n/a	0	-999	n/a	n/a	n/a	n/a	4	[0, 0, 0]	-999	PAL1	3	R1091N
603.85	0.85	1176929	STUDY_ORIENT	n/a	1	1	PEACH	PASS	FOAM	PEACH	4	[0, 0, 0]	-999	PAL1	3	R1091N
604.7	5.018	1177779	STUDY_PAIR	n/a	1	1	PEACH	PASS	FOAM	PEACH	4	[0, 0, 0]	-999	PAL1	3	R1091N
609.718	0.9	1182797	STUDY_ORIENT	n/a	2	2	SPARK	PASS	CALF	SPARK	4	[0, 0, 0]	-999	PAL1	3	R1091N
610.618	5.034	1183697	STUDY_PAIR	n/a	2	2	SPARK	PASS	CALF	SPARK	4	[0, 0, 0]	-999	PAL1	3	R1091N
615.652	0.984	1188730	STUDY_ORIENT	n/a	3	5	RAT	n/a	BLUSH	RAT	4	[0, 0, 0]	-999	PAL1	3	R1091N
616.636	5.034	1189714	STUDY_PAIR	n/a	3	5	RAT	n/a	BLUSH	RAT	4	[0, 0, 0]	-999	PAL1	3	R1091N
621.67	1.017	1194748	STUDY_ORIENT	n/a	4	4	SEAL	PASS	SEAL	JAR	4	[0, 0, 0]	-999	PAL1	3	R1091N
622.687	5.034	1195765	STUDY_PAIR	n/a	4	4	SEAL	PASS	SEAL	JAR	4	[0, 0, 0]	-999	PAL1	3	R1091N
627.721	0.85	1200799	STUDY_ORIENT	n/a	5	3	STORM	PIPE	STORM	PIPE	4	[0, 0, 0]	-999	PAL1	3	R1091N
628.571	5.034	1201649	STUDY_PAIR	n/a	5	3	STORM	PIPE	STORM	PIPE	4	[0, 0, 0]	-999	PAL1	3	R1091N
633.605	0.95	1206683	STUDY_ORIENT	n/a	6	6	GUARD	PRINCE	PRINCE	GUARD	4	[0, 0, 0]	-999	PAL1	3	R1091N
634.555	4.002	1207633	STUDY_PAIR	n/a	6	6	GUARD	PRINCE	PRINCE	GUARD	4	[0, 0, 0]	-999	PAL1	3	R1091N
638.557	0.999	1211635	START	n/a	-999	-999	n/a	n/a	n/a	n/a	4	[-999, -999, -999]	-999	PAL1	3	R1091N
639.556	0.017	1212634	MATH_START	n/a	-999	-999	n/a	n/a	n/a	n/a	4	[0, 0, 0]	-999	PAL1	3	R1091N
639.573	4.001	1212651	PROB	3980	-999	-999	n/a	n/a	n/a	n/a	4	[7, 2, 8]	17	PAL1	3	R1091N
643.574	4.734	1216651	PROB	4715	-999	-999	n/a	n/a	n/a	n/a	4	[6, 8, 3]	17	PAL1	3	R1091N
648.308	5.451	1221385	PROB	5421	-999	-999	n/a	n/a	n/a	n/a	4	[2, 8, 5]	15	PAL1	3	R1091N
653.759	13.282	1226836	PROB	13282	-999	-999	n/a	n/a	n/a	n/a	4	[8, 3, 8]	19	PAL1	3	R1091N
667.041	0.003	1240118	STOP	n/a	-999	-999	n/a	n/a	n/a	n/a	4	[-999, -999, -999]	-999	PAL1	3	R1091N
667.044	0.0	1240121	MATH_END	n/a	-999	-999	n/a	n/a	n/a	n/a	4	[0, 0, 0]	-999	PAL1	3	R1091N
667.044	0.017	1240121	TEST_START	n/a	-999	-999	n/a	n/a	n/a	n/a	4	[0, 0, 0]	-999	PAL1	3	R1091N
667.061	0.85	1240138	TEST_ORIENT	n/a	1	1	PEACH	PASS	FOAM	PEACH	4	[0, 0, 0]	-999	PAL1	3	R1091N
667.911	0.001	1240988	TEST_PROBE	n/a	1	1	PEACH	PASS	FOAM	PEACH	4	[0, 0, 0]	-999	PAL1	3	R1091N
667.912	1.34	1240989	REC_START	n/a	1	-999	n/a	PASS	n/a	n/a	4	[0, 0, 0]	-999	PAL1	3	R1091N
669.252	3.676	1242329	REC_EVENT	1340	1	1	PEACH	PASS	FOAM	PEACH	4	[0, 0, 0]	-999	PAL1	3	R1091N
672.928	0.017	1246004	REC_END	n/a	1	-999	n/a	n/a	n/a	n/a	4	[0, 0, 0]	-999	PAL1	3	R1091N
672.945	0.984	1246021	TEST_ORIENT	n/a	2	2	SPARK	PASS	CALF	SPARK	4	[0, 0, 0]	-999	PAL1	3	R1091N
673.929	0.001	1247005	TEST_PROBE	n/a	2	2	SPARK	PASS	CALF	SPARK	4	[0, 0, 0]	-999	PAL1	3	R1091N
673.93	1.36	1247006	REC_START	n/a	2	-999	n/a	PASS	n/a	n/a	4	[0, 0, 0]	-999	PAL1	3	R1091N
675.29	3.656	1248366	REC_EVENT	1360	2	2	SPARK	PASS	CALF	SPARK	4	[0, 0, 0]	-999	PAL1	3	R1091N
678.946	0.017	1252022	REC_END	n/a	2	-999	n/a	n/a	n/a	n/a	4	[0, 0, 0]	-999	PAL1	3	R1091N
678.963	0.934	1252039	TEST_ORIENT	n/a	5	3	STORM	PIPE	STORM	PIPE	4	[0, 0, 0]	-999	PAL1	3	R1091N
679.897	0.0	1252973	TEST_PROBE	n/a	5	3	STORM	PIPE	STORM	PIPE	4	[0, 0, 0]	-999	PAL1	3	R1091N
679.897	0.945	1252973	REC_START	n/a	5	-999	n/a	PIPE	n/a	n/a	4	[0, 0, 0]	-999	PAL1	3	R1091N
680.842	0.53	1253918	REC_EVENT	945	5	3	STORM	PIPE	STORM	PIPE	4	[0, 0, 0]	-999	PAL1	3	R1091N
681.372	3.542	1254448	REC_EVENT	1475	5	3	STORM	<>	STORM	PIPE	4	[0, 0, 0]	-999	PAL1	3	R1091N
684.914	0.017	1257990	REC_END	n/a	5	-999	n/a	n/a	n/a	n/a	4	[0, 0, 0]	-999	PAL1	3	R1091N
684.931	0.933	1258007	TEST_ORIENT	n/a	4	4	SEAL	PASS	SEAL	JAR	4	[0, 0, 0]	-999	PAL1	3	R1091N
685.864	0.001	1258940	TEST_PROBE	n/a	4	4	SEAL	PASS	SEAL	JAR	4	[0, 0, 0]	-999	PAL1	3	R1091N
685.865	2.773	1258941	REC_START	n/a	4	-999	n/a	PASS	n/a	n/a	4	[0, 0, 0]	-999	PAL1	3	R1091N
688.638	2.237	1261714	REC_EVENT	2773	4	4	SEAL	PASS	SEAL	JAR	4	[0, 0, 0]	-999	PAL1	3	R1091N
690.875	0.006	1263951	REC_END	n/a	4	-999	n/a	n/a	n/a	n/a	4	[0, 0, 0]	-999	PAL1	3	R1091N
690.881	0.967	1263957	TEST_ORIENT	n/a	3	5	RAT	n/a	BLUSH	RAT	4	[0, 0, 0]	-999	PAL1	3	R1091N
691.848	0.001	1264924	TEST_PROBE	n/a	3	5	RAT	n/a	BLUSH	RAT	4	[0, 0, 0]	-999	PAL1	3	R1091N
691.849	5.009	1264925	REC_START	n/a	3	-999	n/a	n/a	n/a	n/a	4	[0, 0, 0]	-999	PAL1	3	R1091N
696.858	0.003	1269934	REC_EVENT	5009	3	5	RAT	<>	BLUSH	RAT	4	[0, 0, 0]	-999	PAL1	3	R1091N
696.861	0.022	1269937	REC_END	n/a	3	-999	n/a	n/a	n/a	n/a	4	[0, 0, 0]	-999	PAL1	3	R1091N
696.883	0.967	1269959	TEST_ORIENT	n/a	6	6	GUARD	PRINCE	PRINCE	GUARD	4	[0, 0, 0]	-999	PAL1	3	R1091N
697.85	0.0	1270925	TEST_PROBE	n/a	6	6	GUARD	PRINCE	PRINCE	GUARD	4	[0, 0, 0]	-999	PAL1	3	R1091N
697.85	1.203	1270925	REC_START	n/a	6	-999	n/a	PRINCE	n/a	n/a	4	[0, 0, 0]	-999	PAL1	3	R1091N
699.053	3.814	1272128	REC_EVENT	1203	6	6	GUARD	PRINCE	PRINCE	GUARD	4	[0, 0, 0]	-999	PAL1	3	R1091N
702.867	1.598	1275942	REC_END	n/a	6	-999	n/a	n/a	n/a	n/a	4	[0, 0, 0]	-999	PAL1	3	R1091N
704.465	10.437	1277540	ENCODING_START	n/a	0	-999	n/a	n/a	n/a	n/a	5	[0, 0, 0]	-999	PAL1	3	R1091N
714.902	0.8	1287977	STUDY_ORIENT	n/a	1	1	BLOOM	n/a	JAIL	BLOOM	5	[0, 0, 0]	-999	PAL1	3	R1091N
715.702	5.018	1288777	STUDY_PAIR	n/a	1	1	BLOOM	n/a	JAIL	BLOOM	5	[0, 0, 0]	-999	PAL1	3	R1091N
720.72	0.867	1293795	STUDY_ORIENT	n/a	2	2	SOAP	n/a	CRANE	SOAP	5	[0, 0, 0]	-999	PAL1	3	R1091N
721.587	5.034	1294662	STUDY_PAIR	n/a	2	2	SOAP	n/a	CRANE	SOAP	5	[0, 0, 0]	-999	PAL1	3	R1091N
726.621	0.9	1299695	STUDY_ORIENT	n/a	3	5	VEST	CLAY	VEST	CLAY	5	[0, 0, 0]	-999	PAL1	3	R1091N
727.521	5.018	1300595	STUDY_PAIR	n/a	3	5	VEST	CLAY	VEST	CLAY	5	[0, 0, 0]	-999	PAL1	3	R1091N
732.539	1.017	1305613	STUDY_ORIENT	n/a	4	6	SCHOOL	PASS	FROG	SCHOOL	5	[0, 0, 0]	-999	PAL1	3	R1091N
733.556	5.034	1306630	STUDY_PAIR	n/a	4	6	SCHOOL	PASS	FROG	SCHOOL	5	[0, 0, 0]	-999	PAL1	3	R1091N
738.59	0.967	1311664	STUDY_ORIENT	n/a	5	3	TRASH	n/a	TRASH	ROSE	5	[0, 0, 0]	-999	PAL1	3	R1091N
739.557	5.034	1312631	STUDY_PAIR	n/a	5	3	TRASH	n/a	TRASH	ROSE	5	[0, 0, 0]	-999	PAL1	3	R1091N
744.591	1.0	1317665	STUDY_ORIENT	n/a	6	4	LOCK	n/a	LOCK	TOAD	5	[0, 0, 0]	-999	PAL1	3	R1091N
745.591	4.018	1318665	STUDY_PAIR	n/a	6	4	LOCK	n/a	LOCK	TOAD	5	[0, 0, 0]	-999	PAL1	3	R1091N
749.609	0.999	1322683	START	n/a	-999	-999	n/a	n/a	n/a	n/a	5	[-999, -999, -999]	-999	PAL1	3	R1091N
750.608	0.017	1323682	MATH_START	n/a	-999	-999	n/a	n/a	n/a	n/a	5	[0, 0, 0]	-999	PAL1	3	R1091N
750.625	8.068	1323699	PROB	8040	-999	-999	n/a	n/a	n/a	n/a	5	[6, 8, 2]	16	PAL1	3	R1091N
758.693	7.335	1331766	PROB	7316	-999	-999	n/a	n/a	n/a	n/a	5	[4, 6, 8]	20	PAL1	3	R1091N
766.028	5.749	1339101	PROB	5749	-999	-999	n/a	n/a	n/a	n/a	5	[5, 2, 9]	16	PAL1	3	R1091N
771.777	0.002	1344850	STOP	n/a	-999	-999	n/a	n/a	n/a	n/a	5	[-999, -999, -999]	-999	PAL1	3	R1091N
771.779	0.0	1344852	MATH_END	n/a	-999	-999	n/a	n/a	n/a	n/a	5	[0, 0, 0]	-999	PAL1	3	R1091N
771.779	0.016	1344852	TEST_START	n/a	-999	-999	n/a	n/a	n/a	n/a	5	[0, 0, 0]	-999	PAL1	3	R1091N
771.795	0.967	1344868	TEST_ORIENT	n/a	1	1	BLOOM	n/a	JAIL	BLOOM	5	[0, 0, 0]	-999	PAL1	3	R1091N
772.762	0.0	1345835	TEST_PROBE	n/a	1	1	BLOOM	n/a	JAIL	BLOOM	5	[0, 0, 0]	-999	PAL1	3	R1091N
772.762	5.001	1345835	REC_START	n/a	1	-999	n/a	n/a	n/a	n/a	5	[0, 0, 0]	-999	PAL1	3	R1091N
777.763	0.002	1350836	REC_END	n/a	1	-999	n/a	n/a	n/a	n/a	5	[0, 0, 0]	-999	PAL1	3	R1091N
777.765	0.015	1350838	REC_EVENT	5003	1	1	BLOOM	<>	JAIL	BLOOM	5	[0, 0, 0]	-999	PAL1	3	R1091N
777.78	0.867	1350853	TEST_ORIENT	n/a	2	2	SOAP	n/a	CRANE	SOAP	5	[0, 0, 0]	-999	PAL1	3	R1091N
778.647	0.0	1351720	TEST_PROBE	n/a	2	2	SOAP	n/a	CRANE	SOAP	5	[0, 0, 0]	-999	PAL1	3	R1091N
778.647	5.015	1351720	REC_START	n/a	2	-999	n/a	n/a	n/a	n/a	5	[0, 0, 0]	-999	PAL1	3	R1091N
783.662	0.002	1356734	REC_EVENT	5015	2	2	SOAP	<>	CRANE	SOAP	5	[0, 0, 0]	-999	PAL1	3	R1091N
783.664	0.017	1356736	REC_END	n/a	2	-999	n/a	n/a	n/a	n/a	5	[0, 0, 0]	-999	PAL1	3	R1091N
783.681	0.8	1356753	TEST_ORIENT	n/a	5	3	TRASH	n/a	TRASH	ROSE	5	[0, 0, 0]	-999	PAL1	3	R1091N
784.481	0.0	1357553	TEST_PROBE	n/a	5	3	TRASH	n/a	TRASH	ROSE	5	[0, 0, 0]	-999	PAL1	3	R1091N
784.481	0.952	1357553	REC_START	n/a	5	-999	n/a	n/a	n/a	n/a	5	[0, 0, 0]	-999	PAL1	3	R1091N
785.433	4.065	1358505	REC_EVENT	952	5	3	TRASH	<>	TRASH	ROSE	5	[0, 0, 0]	-999	PAL1	3	R1091N
789.498	0.017	1362570	REC_END	n/a	5	-999	n/a	n/a	n/a	n/a	5	[0, 0, 0]	-999	PAL1	3	R1091N
789.515	1.034	1362587	TEST_ORIENT	n/a	6	4	LOCK	n/a	LOCK	TOAD	5	[0, 0, 0]	-999	PAL1	3	R1091N
790.549	0.0	1363621	TEST_PROBE	n/a	6	4	LOCK	n/a	LOCK	TOAD	5	[0, 0, 0]	-999	PAL1	3	R1091N
790.549	5.015	1363621	REC_START	n/a	6	-999	n/a	n/a	n/a	n/a	5	[0, 0, 0]	-999	PAL1	3	R1091N
795.564	0.002	1368636	REC_EVENT	5015	6	4	LOCK	<>	LOCK	TOAD	5	[0, 0, 0]	-999	PAL1	3	R1091N
795.566	0.017	1368638	REC_END	n/a	6	-999	n/a	n/a	n/a	n/a	5	[0, 0, 0]	-999	PAL1	3	R1091N
795.583	0.85	1368655	TEST_ORIENT	n/a	3	5	VEST	CLAY	VEST	CLAY	5	[0, 0, 0]	-999	PAL1	3	R1091N
796.433	0.0	1369505	REC_START	n/a	3	-999	n/a	CLAY	n/a	n/a	5	[0, 0, 0]	-999	PAL1	3	R1091N
796.433	1.322	1369505	TEST_PROBE	n/a	3	5	VEST	CLAY	VEST	CLAY	5	[0, 0, 0]	-999	PAL1	3	R1091N
797.755	0.335	1370827	REC_EVENT	1322	3	5	VEST	<>	VEST	CLAY	5	[0, 0, 0]	-999	PAL1	3	R1091N
798.09	3.36	1371162	REC_EVENT	1657	3	5	VEST	CLAY	VEST	CLAY	5	[0, 0, 0]	-999	PAL1	3	R1091N
801.45	0.017	1374522	REC_END	n/a	3	-999	n/a	n/a	n/a	n/a	5	[0, 0, 0]	-999	PAL1	3	R1091N
801.467	0.9	1374539	TEST_ORIENT	n/a	4	6	SCHOOL	PASS	FROG	SCHOOL	5	[0, 0, 0]	-999	PAL1	3	R1091N
802.367	0.001	1375439	TEST_PROBE	n/a	4	6	SCHOOL	PASS	FROG	SCHOOL	5	[0, 0, 0]	-999	PAL1	3	R1091N
802.368	1.082	1375440	REC_START	n/a	4	-999	n/a	PASS	n/a	n/a	5	[0, 0, 0]	-999	PAL1	3	R1091N
803.45	3.928	1376522	REC_EVENT	1082	4	6	SCHOOL	PASS	FROG	SCHOOL	5	[0, 0, 0]	-999	PAL1	3	R1091N
807.378	1.623	1380450	REC_END	n/a	4	-999	n/a	n/a	n/a	n/a	5	[0, 0, 0]	-999	PAL1	3	R1091N
809.001	10.452	1382072	ENCODING_START	n/a	0	-999	n/a	n/a	n/a	n/a	6	[0, 0, 0]	-999	PAL1	3	R1091N
819.453	0.867	1392524	STUDY_ORIENT	n/a	1	5	SWAMP	SWAMP	ROOF	SWAMP	6	[0, 0, 0]	-999	PAL1	3	R1091N
820.32	5.018	1393391	STUDY_PAIR	n/a	1	5	SWAMP	SWAMP	ROOF	SWAMP	6	[0, 0, 0]	-999	PAL1	3	R1091N
825.338	0.933	1398409	STUDY_ORIENT	n/a	2	2	RAIN	PASS	RAIN	SAIL	6	[0, 0, 0]	-999	PAL1	3	R1091N
826.271	5.018	1399342	STUDY_PAIR	n/a	2	2	RAIN	PASS	RAIN	SAIL	6	[0, 0, 0]	-999	PAL1	3	R1091N
831.289	0.866	1404360	STUDY_ORIENT	n/a	3	3	DUCK	PASS	CLOUD	DUCK	6	[0, 0, 0]	-999	PAL1	3	R1091N
832.155	5.035	1405226	STUDY_PAIR	n/a	3	3	DUCK	PASS	CLOUD	DUCK	6	[0, 0, 0]	-999	PAL1	3	R1091N
837.19	0.899	1410260	STUDY_ORIENT	n/a	4	4	ROOT	n/a	ROOT	BEACH	6	[0, 0, 0]	-999	PAL1	3	R1091N
838.089	5.034	1411159	STUDY_PAIR	n/a	4	4	ROOT	n/a	ROOT	BEACH	6	[0, 0, 0]	-999	PAL1	3	R1091N
843.123	0.984	1416193	STUDY_ORIENT	n/a	5	1	BOAT	PASS	BOAT	BEAN	6	[0, 0, 0]	-999	PAL1	3	R1091N
844.107	5.034	1417177	STUDY_PAIR	n/a	5	1	BOAT	PASS	BOAT	BEAN	6	[0, 0, 0]	-999	PAL1	3	R1091N
849.141	0.851	1422211	STUDY_ORIENT	n/a	6	6	CLOTH	PASS	SHELL	CLOTH	6	[0, 0, 0]	-999	PAL1	3	R1091N
849.992	4.018	1423062	STUDY_PAIR	n/a	6	6	CLOTH	PASS	SHELL	CLOTH	6	[0, 0, 0]	-999	PAL1	3	R1091N
854.01	0.999	1427080	START	n/a	-999	-999	n/a	n/a	n/a	n/a	6	[-999, -999, -999]	-999	PAL1	3	R1091N
855.009	0.017	1428079	MATH_START	n/a	-999	-999	n/a	n/a	n/a	n/a	6	[0, 0, 0]	-999	PAL1	3	R1091N
855.026	5.067	1428096	PROB	5039	-999	-999	n/a	n/a	n/a	n/a	6	[6, 2, 9]	17	PAL1	3	R1091N
860.093	7.385	1433163	PROB	7364	-999	-999	n/a	n/a	n/a	n/a	6	[3, 7, 7]	17	PAL1	3	R1091N
867.478	6.915	1440547	PROB	6915	-999	-999	n/a	n/a	n/a	n/a	6	[3, 6, 7]	16	PAL1	3	R1091N
874.393	0.003	1447462	STOP	n/a	-999	-999	n/a	n/a	n/a	n/a	6	[-999, -999, -999]	-999	PAL1	3	R1091N
874.396	0.0	1447465	MATH_END	n/a	-999	-999	n/a	n/a	n/a	n/a	6	[0, 0, 0]	-999	PAL1	3	R1091N
874.396	0.017	1447465	TEST_START	n/a	-999	-999	n/a	n/a	n/a	n/a	6	[0, 0, 0]	-999	PAL1	3	R1091N
874.413	0.9	1447482	TEST_ORIENT	n/a	5	1	BOAT	PASS	BOAT	BEAN	6	[0, 0, 0]	-999	PAL1	3	R1091N
875.313	0.001	1448382	TEST_PROBE	n/a	5	1	BOAT	PASS	BOAT	BEAN	6	[0, 0, 0]	-999	PAL1	3	R1091N
875.314	1.607	1448383	REC_START	n/a	5	-999	n/a	PASS	n/a	n/a	6	[0, 0, 0]	-999	PAL1	3	R1091N
876.921	3.419	1449990	REC_EVENT	1607	5	1	BOAT	PASS	BOAT	BEAN	6	[0, 0, 0]	-999	PAL1	3	R1091N
880.34	0.007	1453409	REC_END	n/a	5	-999	n/a	n/a	n/a	n/a	6	[0, 0, 0]	-999	PAL1	3	R1091N
880.347	0.984	1453416	TEST_ORIENT	n/a	2	2	RAIN	PASS	RAIN	SAIL	6	[0, 0, 0]	-999	PAL1	3	R1091N
881.331	0.0	1454400	TEST_PROBE	n/a	2	2	RAIN	PASS	RAIN	SAIL	6	[0, 0, 0]	-999	PAL1	3	R1091N
881.331	1.837	1454400	REC_START	n/a	2	-999	n/a	PASS	n/a	n/a	6	[0, 0, 0]	-999	PAL1	3	R1091N
883.168	3.18	1456237	REC_EVENT	1837	2	2	RAIN	PASS	RAIN	SAIL	6	[0, 0, 0]	-999	PAL1	3	R1091N
886.348	0.017	1459417	REC_END	n/a	2	-999	n/a	n/a	n/a	n/a	6	[0, 0, 0]	-999	PAL1	3	R1091N
886.365	0.9	1459434	TEST_ORIENT	n/a	3	3	DUCK	PASS	CLOUD	DUCK	6	[0, 0, 0]	-999	PAL1	3	R1091N
887.265	0.0	1460334	REC_START	n/a	3	-999	n/a	PASS	n/a	n/a	6	[0, 0, 0]	-999	PAL1	3	R1091N
887.265	2.918	1460334	TEST_PROBE	n/a	3	3	DUCK	PASS	CLOUD	DUCK	6	[0, 0, 0]	-999	PAL1	3	R1091N
890.183	2.099	1463251	REC_EVENT	2918	3	3	DUCK	PASS	CLOUD	DUCK	6	[0, 0, 0]	-999	PAL1	3	R1091N
892.282	0.017	1465350	REC_END	n/a	3	-999	n/a	n/a	n/a	n/a	6	[0, 0, 0]	-999	PAL1	3	R1091N
892.299	1.017	1465367	TEST_ORIENT	n/a	4	4	ROOT	n/a	ROOT	BEACH	6	[0, 0, 0]	-999	PAL1	3	R1091N
893.316	0.0	1466384	TEST_PROBE	n/a	4	4	ROOT	n/a	ROOT	BEACH	6	[0, 0, 0]	-999	PAL1	3	R1091N
893.316	5.015	1466384	REC_START	n/a	4	-999	n/a	n/a	n/a	n/a	6	[0, 0, 0]	-999	PAL1	3	R1091N
898.331	0.002	1471399	REC_EVENT	5015	4	4	ROOT	<>	ROOT	BEACH	6	[0, 0, 0]	-999	PAL1	3	R1091N
898.333	0.017	1471401	REC_END	n/a	4	-999	n/a	n/a	n/a	n/a	6	[0, 0, 0]	-999	PAL1	3	R1091N
898.35	0.967	1471418	TEST_ORIENT	n/a	1	5	SWAMP	SWAMP	ROOF	SWAMP	6	[0, 0, 0]	-999	PAL1	3	R1091N
899.317	0.001	1472385	TEST_PROBE	n/a	1	5	SWAMP	SWAMP	ROOF	SWAMP	6	[0, 0, 0]	-999	PAL1	3	R1091N
899.318	2.987	1472386	REC_START	n/a	1	-999	n/a	SWAMP	n/a	n/a	6	[0, 0, 0]	-999	PAL1	3	R1091N
902.305	2.039	1475373	REC_EVENT	2987	1	5	SWAMP	SWAMP	ROOF	SWAMP	6	[0, 0, 0]	-999	PAL1	3	R1091N
904.344	0.007	1477412	REC_END	n/a	1	-999	n/a	n/a	n/a	n/a	6	[0, 0, 0]	-999	PAL1	3	R1091N
904.351	0.799	1477419	TEST_ORIENT	n/a	6	6	CLOTH	PASS	SHELL	CLOTH	6	[0, 0, 0]	-999	PAL1	3	R1091N
905.15	0.001	1478218	TEST_PROBE	n/a	6	6	CLOTH	PASS	SHELL	CLOTH	6	[0, 0, 0]	-999	PAL1	3	R1091N
905.151	1.224	1478219	REC_START	n/a	6	-999	n/a	PASS	n/a	n/a	6	[0, 0, 0]	-999	PAL1	3	R1091N
906.375	3.792	1479443	REC_EVENT	1224	6	6	CLOTH	PASS	SHELL	CLOTH	6	[0, 0, 0]	-999	PAL1	3	R1091N
910.167	24.042	1483235	REC_END	n/a	6	-999	n/a	n/a	n/a	n/a	6	[0, 0, 0]	-999	PAL1	3	R1091N
934.209	10.449	1507276	ENCODING_START	n/a	0	-999	n/a	n/a	n/a	n/a	7	[0, 0, 0]	-999	PAL1	3	R1091N
944.658	0.85	1517725	STUDY_ORIENT	n/a	1	3	DITCH	STONE	DITCH	STONE	7	[0, 0, 0]	-999	PAL1	3	R1091N
945.508	5.034	1518574	STUDY_PAIR	n/a	1	3	DITCH	STONE	DITCH	STONE	7	[0, 0, 0]	-999	PAL1	3	R1091N
950.542	0.984	1523608	STUDY_ORIENT	n/a	2	2	PARK	PASS	PARK	SUIT	7	[0, 0, 0]	-999	PAL1	3	R1091N
951.526	5.034	1524592	STUDY_PAIR	n/a	2	2	PARK	PASS	PARK	SUIT	7	[0, 0, 0]	-999	PAL1	3	R1091N
956.56	0.95	1529626	STUDY_ORIENT	n/a	3	5	SEAT	PASS	MOUTH	SEAT	7	[0, 0, 0]	-999	PAL1	3	R1091N
957.51	5.034	1530576	STUDY_PAIR	n/a	3	5	SEAT	PASS	MOUTH	SEAT	7	[0, 0, 0]	-999	PAL1	3	R1091N
962.544	0.95	1535610	STUDY_ORIENT	n/a	4	6	LAND	BAT	BAT	LAND	7	[0, 0, 0]	-999	PAL1	3	R1091N
963.494	5.018	1536560	STUDY_PAIR	n/a	4	6	LAND	BAT	BAT	LAND	7	[0, 0, 0]	-999	PAL1	3	R1091N
968.512	0.933	1541578	STUDY_ORIENT	n/a	5	1	INK	FOOD	INK	FOOD	7	[0, 0, 0]	-999	PAL1	3	R1091N
969.445	5.018	1542511	STUDY_PAIR	n/a	5	1	INK	FOOD	INK	FOOD	7	[0, 0, 0]	-999	PAL1	3	R1091N
974.463	1.017	1547528	STUDY_ORIENT	n/a	6	4	HORN	PASS	HORN	LEG	7	[0, 0, 0]	-999	PAL1	3	R1091N
975.48	4.018	1548545	STUDY_PAIR	n/a	6	4	HORN	PASS	HORN	LEG	7	[0, 0, 0]	-999	PAL1	3	R1091N
979.498	0.999	1552563	START	n/a	-999	-999	n/a	n/a	n/a	n/a	7	[-999, -999, -999]	-999	PAL1	3	R1091N
980.497	0.017	1553562	MATH_START	n/a	-999	-999	n/a	n/a	n/a	n/a	7	[0, 0, 0]	-999	PAL1	3	R1091N
980.514	3.901	1553579	PROB	3871	-999	-999	n/a	n/a	n/a	n/a	7	[1, 2, 2]	5	PAL1	3	R1091N
984.415	13.452	1557480	PROB	13426	-999	-999	n/a	n/a	n/a	n/a	7	[5, 2, 6]	12	PAL1	3	R1091N
997.867	6.766	1570932	PROB	6766	-999	-999	n/a	n/a	n/a	n/a	7	[4, 2, 3]	9	PAL1	3	R1091N
1004.633	0.002	1577697	STOP	n/a	-999	-999	n/a	n/a	n/a	n/a	7	[-999, -999, -999]	-999	PAL1	3	R1091N
1004.635	0.0	1577699	MATH_END	n/a	-999	-999	n/a	n/a	n/a	n/a	7	[0, 0, 0]	-999	PAL1	3	R1091N
1004.635	0.016	1577699	TEST_START	n/a	-999	-999	n/a	n/a	n/a	n/a	7	[0, 0, 0]	-999	PAL1	3	R1091N
1004.651	0.867	1577715	TEST_ORIENT	n/a	5	1	INK	FOOD	INK	FOOD	7	[0, 0, 0]	-999	PAL1	3	R1091N
1005.518	0.001	1578582	TEST_PROBE	n/a	5	1	INK	FOOD	INK	FOOD	7	[0, 0, 0]	-999	PAL1	3	R1091N
1005.519	1.229	1578583	REC_START	n/a	5	-999	n/a	FOOD	n/a	n/a	7	[0, 0, 0]	-999	PAL1	3	R1091N
1006.748	3.781	1579812	REC_EVENT	1229	5	1	INK	FOOD	INK	FOOD	7	[0, 0, 0]	-999	PAL1	3	R1091N
1010.529	0.006	1583593	REC_END	n/a	5	-999	n/a	n/a	n/a	n/a	7	[0, 0, 0]	-999	PAL1	3	R1091N
1010.535	1.034	1583599	TEST_ORIENT	n/a	2	2	PARK	PASS	PARK	SUIT	7	[0, 0, 0]	-999	PAL1	3	R1091N
1011.569	0.001	1584633	TEST_PROBE	n/a	2	2	PARK	PASS	PARK	SUIT	7	[0, 0, 0]	-999	PAL1	3	R1091N
1011.57	1.628	1584634	REC_START	n/a	2	-999	n/a	PASS	n/a	n/a	7	[0, 0, 0]	-999	PAL1	3	R1091N
1013.198	3.381	1586262	REC_EVENT	1628	2	2	PARK	PASS	PARK	SUIT	7	[0, 0, 0]	-999	PAL1	3	R1091N
1016.579	0.008	1589643	REC_END	n/a	2	-999	n/a	n/a	n/a	n/a	7	[0, 0, 0]	-999	PAL1	3	R1091N
1016.587	0.833	1589651	TEST_ORIENT	n/a	1	3	DITCH	STONE	DITCH	STONE	7	[0, 0, 0]	-999	PAL1	3	R1091N
1017.42	0.001	1590484	TEST_PROBE	n/a	1	3	DITCH	STONE	DITCH	STONE	7	[0, 0, 0]	-999	PAL1	3	R1091N
1017.421	1.855	1590485	REC_START	n/a	1	-999	n/a	STONE	n/a	n/a	7	[0, 0, 0]	-999	PAL1	3	R1091N
1019.276	3.154	1592340	REC_EVENT	1855	1	3	DITCH	STONE	DITCH	STONE	7	[0, 0, 0]	-999	PAL1	3	R1091N
1022.43	0.008	1595494	REC_END	n/a	1	-999	n/a	n/a	n/a	n/a	7	[0, 0, 0]	-999	PAL1	3	R1091N
1022.438	0.983	1595502	TEST_ORIENT	n/a	6	4	HORN	PASS	HORN	LEG	7	[0, 0, 0]	-999	PAL1	3	R1091N
1023.421	0.001	1596485	TEST_PROBE	n/a	6	4	HORN	PASS	HORN	LEG	7	[0, 0, 0]	-999	PAL1	3	R1091N
1023.422	1.263	1596486	REC_START	n/a	6	-999	n/a	PASS	n/a	n/a	7	[0, 0, 0]	-999	PAL1	3	R1091N
1024.685	3.747	1597749	REC_EVENT	1263	6	4	HORN	PASS	HORN	LEG	7	[0, 0, 0]	-999	PAL1	3	R1091N
1028.432	0.007	1601495	REC_END	n/a	6	-999	n/a	n/a	n/a	n/a	7	[0, 0, 0]	-999	PAL1	3	R1091N
1028.439	0.883	1601502	TEST_ORIENT	n/a	3	5	SEAT	PASS	MOUTH	SEAT	7	[0, 0, 0]	-999	PAL1	3	R1091N
1029.322	0.001	1602385	TEST_PROBE	n/a	3	5	SEAT	PASS	MOUTH	SEAT	7	[0, 0, 0]	-999	PAL1	3	R1091N
1029.323	1.302	1602386	REC_START	n/a	3	-999	n/a	PASS	n/a	n/a	7	[0, 0, 0]	-999	PAL1	3	R1091N
1030.625	3.708	1603688	REC_EVENT	1302	3	5	SEAT	PASS	MOUTH	SEAT	7	[0, 0, 0]	-999	PAL1	3	R1091N
1034.333	0.007	1607396	REC_END	n/a	3	-999	n/a	n/a	n/a	n/a	7	[0, 0, 0]	-999	PAL1	3	R1091N
1034.34	0.95	1607403	TEST_ORIENT	n/a	4	6	LAND	BAT	BAT	LAND	7	[0, 0, 0]	-999	PAL1	3	R1091N
1035.29	0.0	1608353	TEST_PROBE	n/a	4	6	LAND	BAT	BAT	LAND	7	[0, 0, 0]	-999	PAL1	3	R1091N
1035.29	1.466	1608353	REC_START	n/a	4	-999	n/a	BAT	n/a	n/a	7	[0, 0, 0]	-999	PAL1	3	R1091N
1036.756	3.551	1609819	REC_EVENT	1466	4	6	LAND	BAT	BAT	LAND	7	[0, 0, 0]	-999	PAL1	3	R1091N
1040.307	1.358	1613370	REC_END	n/a	4	-999	n/a	n/a	n/a	n/a	7	[0, 0, 0]	-999	PAL1	3	R1091N
1041.665	10.444	1614728	ENCODING_START	n/a	0	-999	n/a	n/a	n/a	n/a	8	[0, 0, 0]	-999	PAL1	3	R1091N
1052.109	0.901	1625172	STUDY_ORIENT	n/a	1	3	SHIELD	n/a	FRUIT	SHIELD	8	[0, 0, 0]	-999	PAL1	3	R1091N
1053.01	5.034	1626073	STUDY_PAIR	n/a	1	3	SHIELD	n/a	FRUIT	SHIELD	8	[0, 0, 0]	-999	PAL1	3	R1091N
1058.044	0.817	1631106	STUDY_ORIENT	n/a	2	2	SHOE	n/a	SHOE	GOAT	8	[0, 0, 0]	-999	PAL1	3	R1091N
1058.861	5.034	1631923	STUDY_PAIR	n/a	2	2	SHOE	n/a	SHOE	GOAT	8	[0, 0, 0]	-999	PAL1	3	R1091N
1063.895	0.817	1636957	STUDY_ORIENT	n/a	3	1	YARD	BEE	BEE	YARD	8	[0, 0, 0]	-999	PAL1	3	R1091N
1064.712	5.034	1637774	STUDY_PAIR	n/a	3	1	YARD	BEE	BEE	YARD	8	[0, 0, 0]	-999	PAL1	3	R1091N
1069.746	0.967	1642808	STUDY_ORIENT	n/a	4	4	TOE	n/a	TRAIN	TOE	8	[0, 0, 0]	-999	PAL1	3	R1091N
1070.713	5.034	1643775	STUDY_PAIR	n/a	4	4	TOE	n/a	TRAIN	TOE	8	[0, 0, 0]	-999	PAL1	3	R1091N
1075.747	0.967	1648809	STUDY_ORIENT	n/a	5	5	DESK	PASS	DESK	MOTH	8	[0, 0, 0]	-999	PAL1	3	R1091N
1076.714	5.034	1649776	STUDY_PAIR	n/a	5	5	DESK	PASS	DESK	MOTH	8	[0, 0, 0]	-999	PAL1	3	R1091N
1081.748	0.817	1654810	STUDY_ORIENT	n/a	6	6	STEAK	n/a	STEAK	TEETH	8	[0, 0, 0]	-999	PAL1	3	R1091N
1082.565	4.018	1655626	STUDY_PAIR	n/a	6	6	STEAK	n/a	STEAK	TEETH	8	[0, 0, 0]	-999	PAL1	3	R1091N
1086.583	0.999	1659644	START	n/a	-999	-999	n/a	n/a	n/a	n/a	8	[-999, -999, -999]	-999	PAL1	3	R1091N
1087.582	0.017	1660643	MATH_START	n/a	-999	-999	n/a	n/a	n/a	n/a	8	[0, 0, 0]	-999	PAL1	3	R1091N
1087.599	7.268	1660660	PROB	7234	-999	-999	n/a	n/a	n/a	n/a	8	[9, 5, 8]	22	PAL1	3	R1091N
1094.867	4.0	1667928	PROB	3966	-999	-999	n/a	n/a	n/a	n/a	8	[8, 8, 4]	20	PAL1	3	R1091N
1098.867	6.902	1671928	PROB	6870	-999	-999	n/a	n/a	n/a	n/a	8	[7, 7, 1]	15	PAL1	3	R1091N
1105.769	9.568	1678830	PROB	9568	-999	-999	n/a	n/a	n/a	n/a	8	[6, 6, 7]	19	PAL1	3	R1091N
1115.337	0.017	1688397	STOP	n/a	-999	-999	n/a	n/a	n/a	n/a	8	[-999, -999, -999]	-999	PAL1	3	R1091N
1115.354	0.0	1688414	MATH_END	n/a	-999	-999	n/a	n/a	n/a	n/a	8	[0, 0, 0]	-999	PAL1	3	R1091N
1115.354	0.016	1688414	TEST_START	n/a	-999	-999	n/a	n/a	n/a	n/a	8	[0, 0, 0]	-999	PAL1	3	R1091N
1115.37	1.017	1688430	TEST_ORIENT	n/a	3	1	YARD	BEE	BEE	YARD	8	[0, 0, 0]	-999	PAL1	3	R1091N
1116.387	0.0	1689447	TEST_PROBE	n/a	3	1	YARD	BEE	BEE	YARD	8	[0, 0, 0]	-999	PAL1	3	R1091N
1116.387	2.498	1689447	REC_START	n/a	3	-999	n/a	BEE	n/a	n/a	8	[0, 0, 0]	-999	PAL1	3	R1091N
1118.885	2.519	1691945	REC_EVENT	2498	3	1	YARD	BEE	BEE	YARD	8	[0, 0, 0]	-999	PAL1	3	R1091N
1121.404	0.017	1694464	REC_END	n/a	3	-999	n/a	n/a	n/a	n/a	8	[0, 0, 0]	-999	PAL1	3	R1091N
1121.421	1.017	1694481	TEST_ORIENT	n/a	2	2	SHOE	n/a	SHOE	GOAT	8	[0, 0, 0]	-999	PAL1	3	R1091N
1122.438	0.001	1695498	TEST_PROBE	n/a	2	2	SHOE	n/a	SHOE	GOAT	8	[0, 0, 0]	-999	PAL1	3	R1091N
1122.439	3.772	1695499	REC_START	n/a	2	-999	n/a	n/a	n/a	n/a	8	[0, 0, 0]	-999	PAL1	3	R1091N
1126.211	1.244	1699271	REC_EVENT	3772	2	2	SHOE	<>	SHOE	GOAT	8	[0, 0, 0]	-999	PAL1	3	R1091N
1127.455	0.017	1700515	REC_END	n/a	2	-999	n/a	n/a	n/a	n/a	8	[0, 0, 0]	-999	PAL1	3	R1091N
1127.472	1.034	1700532	TEST_ORIENT	n/a	1	3	SHIELD	n/a	FRUIT	SHIELD	8	[0, 0, 0]	-999	PAL1	3	R1091N
1128.506	0.0	1701566	TEST_PROBE	n/a	1	3	SHIELD	n/a	FRUIT	SHIELD	8	[0, 0, 0]	-999	PAL1	3	R1091N
1128.506	0.673	1701566	REC_START	n/a	1	-999	n/a	n/a	n/a	n/a	8	[0, 0, 0]	-999	PAL1	3	R1091N
1129.179	4.344	1702239	REC_EVENT	673	1	3	SHIELD	<>	FRUIT	SHIELD	8	[0, 0, 0]	-999	PAL1	3	R1091N
1133.523	0.017	1706583	REC_END	n/a	1	-999	n/a	n/a	n/a	n/a	8	[0, 0, 0]	-999	PAL1	3	R1091N
1133.54	0.833	1706600	TEST_ORIENT	n/a	4	4	TOE	n/a	TRAIN	TOE	8	[0, 0, 0]	-999	PAL1	3	R1091N
1134.373	0.001	1707433	TEST_PROBE	n/a	4	4	TOE	n/a	TRAIN	TOE	8	[0, 0, 0]	-999	PAL1	3	R1091N
1134.374	2.975	1707434	REC_START	n/a	4	-999	n/a	n/a	n/a	n/a	8	[0, 0, 0]	-999	PAL1	3	R1091N
1137.349	2.035	1710408	REC_EVENT	2975	4	4	TOE	<>	TRAIN	TOE	8	[0, 0, 0]	-999	PAL1	3	R1091N
1139.384	0.007	1712443	REC_END	n/a	4	-999	n/a	n/a	n/a	n/a	8	[0, 0, 0]	-999	PAL1	3	R1091N
1139.391	0.917	1712450	TEST_ORIENT	n/a	5	5	DESK	PASS	DESK	MOTH	8	[0, 0, 0]	-999	PAL1	3	R1091N
1140.308	0.0	1713367	TEST_PROBE	n/a	5	5	DESK	PASS	DESK	MOTH	8	[0, 0, 0]	-999	PAL1	3	R1091N
1140.308	1.983	1713367	REC_START	n/a	5	-999	n/a	PASS	n/a	n/a	8	[0, 0, 0]	-999	PAL1	3	R1091N
1142.291	3.034	1715350	REC_EVENT	1983	5	5	DESK	PASS	DESK	MOTH	8	[0, 0, 0]	-999	PAL1	3	R1091N
1145.325	0.017	1718384	REC_END	n/a	5	-999	n/a	n/a	n/a	n/a	8	[0, 0, 0]	-999	PAL1	3	R1091N
1145.342	0.816	1718401	TEST_ORIENT	n/a	6	6	STEAK	n/a	STEAK	TEETH	8	[0, 0, 0]	-999	PAL1	3	R1091N
1146.158	0.0	1719217	REC_START	n/a	6	-999	n/a	n/a	n/a	n/a	8	[0, 0, 0]	-999	PAL1	3	R1091N
1146.158	1.049	1719217	TEST_PROBE	n/a	6	6	STEAK	n/a	STEAK	TEETH	8	[0, 0, 0]	-999	PAL1	3	R1091N
1147.207	3.969	1720266	REC_EVENT	1049	6	6	STEAK	<>	STEAK	TEETH	8	[0, 0, 0]	-999	PAL1	3	R1091N
1151.176	1.521	1724235	REC_END	n/a	6	-999	n/a	n/a	n/a	n/a	8	[0, 0, 0]	-999	PAL1	3	R1091N
1152.697	10.447	1725756	ENCODING_START	n/a	0	-999	n/a	n/a	n/a	n/a	9	[0, 0, 0]	-999	PAL1	3	R1091N
1163.144	0.767	1736203	STUDY_ORIENT	n/a	1	3	HOUSE	n/a	HOUSE	TANK	9	[0, 0, 0]	-999	PAL1	3	R1091N
1163.911	5.018	1736970	STUDY_PAIR	n/a	1	3	HOUSE	n/a	HOUSE	TANK	9	[0, 0, 0]	-999	PAL1	3	R1091N
1168.929	0.784	1741987	STUDY_ORIENT	n/a	2	6	ARK	LAMP	ARK	LAMP	9	[0, 0, 0]	-999	PAL1	3	R1091N
1169.713	5.034	1742771	STUDY_PAIR	n/a	2	6	ARK	LAMP	ARK	LAMP	9	[0, 0, 0]	-999	PAL1	3	R1091N
1174.747	0.967	1747805	STUDY_ORIENT	n/a	3	1	WORM	n/a	WORM	HOLE	9	[0, 0, 0]	-999	PAL1	3	R1091N
1175.714	5.034	1748772	STUDY_PAIR	n/a	3	1	WORM	n/a	WORM	HOLE	9	[0, 0, 0]	-999	PAL1	3	R1091N
1180.748	0.8	1753806	STUDY_ORIENT	n/a	4	4	FENCE	n/a	ROCK	FENCE	9	[0, 0, 0]	-999	PAL1	3	R1091N
1181.548	5.034	1754606	STUDY_PAIR	n/a	4	4	FENCE	n/a	ROCK	FENCE	9	[0, 0, 0]	-999	PAL1	3	R1091N
1186.582	1.0	1759640	STUDY_ORIENT	n/a	5	5	PIE	HAWK	HAWK	PIE	9	[0, 0, 0]	-999	PAL1	3	R1091N
1187.582	5.018	1760640	STUDY_PAIR	n/a	5	5	PIE	HAWK	HAWK	PIE	9	[0, 0, 0]	-999	PAL1	3	R1091N
1192.6	0.983	1765657	STUDY_ORIENT	n/a	6	2	TREE	n/a	PLANE	TREE	9	[0, 0, 0]	-999	PAL1	3	R1091N
1193.583	4.001	1766640	STUDY_PAIR	n/a	6	2	TREE	n/a	PLANE	TREE	9	[0, 0, 0]	-999	PAL1	3	R1091N
1197.584	1.0	1770641	START	n/a	-999	-999	n/a	n/a	n/a	n/a	9	[-999, -999, -999]	-999	PAL1	3	R1091N
1198.584	0.017	1771641	MATH_START	n/a	-999	-999	n/a	n/a	n/a	n/a	9	[0, 0, 0]	-999	PAL1	3	R1091N
1198.601	3.951	1771658	PROB	3928	-999	-999	n/a	n/a	n/a	n/a	9	[2, 4, 2]	8	PAL1	3	R1091N
1202.552	3.533	1775609	PROB	3505	-999	-999	n/a	n/a	n/a	n/a	9	[5, 5, 7]	17	PAL1	3	R1091N
1206.085	5.635	1779142	PROB	5604	-999	-999	n/a	n/a	n/a	n/a	9	[4, 5, 5]	14	PAL1	3	R1091N
1211.72	12.289	1784777	PROB	12289	-999	-999	n/a	n/a	n/a	n/a	9	[2, 8, 9]	20	PAL1	3	R1091N
1224.009	0.013	1797065	STOP	n/a	-999	-999	n/a	n/a	n/a	n/a	9	[-999, -999, -999]	-999	PAL1	3	R1091N
1224.022	0.0	1797078	TEST_START	n/a	-999	-999	n/a	n/a	n/a	n/a	9	[0, 0, 0]	-999	PAL1	3	R1091N
1224.022	0.017	1797078	MATH_END	n/a	-999	-999	n/a	n/a	n/a	n/a	9	[0, 0, 0]	-999	PAL1	3	R1091N
1224.039	0.866	1797095	TEST_ORIENT	n/a	3	1	WORM	n/a	WORM	HOLE	9	[0, 0, 0]	-999	PAL1	3	R1091N
1224.905	0.001	1797961	TEST_PROBE	n/a	3	1	WORM	n/a	WORM	HOLE	9	[0, 0, 0]	-999	PAL1	3	R1091N
1224.906	5.009	1797962	REC_START	n/a	3	-999	n/a	n/a	n/a	n/a	9	[0, 0, 0]	-999	PAL1	3	R1091N
1229.915	0.001	1802971	REC_EVENT	5009	3	1	WORM	<>	WORM	HOLE	9	[0, 0, 0]	-999	PAL1	3	R1091N
1229.916	0.007	1802972	REC_END	n/a	3	-999	n/a	n/a	n/a	n/a	9	[0, 0, 0]	-999	PAL1	3	R1091N
1229.923	1.033	1802979	TEST_ORIENT	n/a	6	2	TREE	n/a	PLANE	TREE	9	[0, 0, 0]	-999	PAL1	3	R1091N
1230.956	0.001	1804012	TEST_PROBE	n/a	6	2	TREE	n/a	PLANE	TREE	9	[0, 0, 0]	-999	PAL1	3	R1091N
1230.957	5.009	1804013	REC_START	n/a	6	-999	n/a	n/a	n/a	n/a	9	[0, 0, 0]	-999	PAL1	3	R1091N
1235.966	0.0	1809022	REC_END	n/a	6	-999	n/a	n/a	n/a	n/a	9	[0, 0, 0]	-999	PAL1	3	R1091N
1235.966	0.008	1809022	REC_EVENT	5009	6	2	TREE	<>	PLANE	TREE	9	[0, 0, 0]	-999	PAL1	3	R1091N
1235.974	0.967	1809030	TEST_ORIENT	n/a	1	3	HOUSE	n/a	HOUSE	TANK	9	[0, 0, 0]	-999	PAL1	3	R1091N
1236.941	0.0	1809997	TEST_PROBE	n/a	1	3	HOUSE	n/a	HOUSE	TANK	9	[0, 0, 0]	-999	PAL1	3	R1091N
1236.941	2.004	1809997	REC_START	n/a	1	-999	n/a	n/a	n/a	n/a	9	[0, 0, 0]	-999	PAL1	3	R1091N
1238.945	3.013	1812001	REC_EVENT	2004	1	3	HOUSE	<>	HOUSE	TANK	9	[0, 0, 0]	-999	PAL1	3	R1091N
1241.958	0.017	1815014	REC_END	n/a	1	-999	n/a	n/a	n/a	n/a	9	[0, 0, 0]	-999	PAL1	3	R1091N
1241.975	0.817	1815031	TEST_ORIENT	n/a	4	4	FENCE	n/a	ROCK	FENCE	9	[0, 0, 0]	-999	PAL1	3	R1091N
1242.792	0.0	1815848	TEST_PROBE	n/a	4	4	FENCE	n/a	ROCK	FENCE	9	[0, 0, 0]	-999	PAL1	3	R1091N
1242.792	5.027	1815848	REC_START	n/a	4	-999	n/a	n/a	n/a	n/a	9	[0, 0, 0]	-999	PAL1	3	R1091N
1247.819	0.0	1820874	REC_EVENT	5027	4	4	FENCE	<>	ROCK	FENCE	9	[0, 0, 0]	-999	PAL1	3	R1091N
1247.819	0.007	1820874	REC_END	n/a	4	-999	n/a	n/a	n/a	n/a	9	[0, 0, 0]	-999	PAL1	3	R1091N
1247.826	0.817	1820881	TEST_ORIENT	n/a	5	5	PIE	HAWK	HAWK	PIE	9	[0, 0, 0]	-999	PAL1	3	R1091N
1248.643	0.0	1821698	TEST_PROBE	n/a	5	5	PIE	HAWK	HAWK	PIE	9	[0, 0, 0]	-999	PAL1	3	R1091N
1248.643	2.004	1821698	REC_START	n/a	5	-999	n/a	HAWK	n/a	n/a	9	[0, 0, 0]	-999	PAL1	3	R1091N
1250.647	3.016	1823702	REC_EVENT	2004	5	5	PIE	HAWK	HAWK	PIE	9	[0, 0, 0]	-999	PAL1	3	R1091N
1253.663	0.014	1826718	REC_END	n/a	5	-999	n/a	n/a	n/a	n/a	9	[0, 0, 0]	-999	PAL1	3	R1091N
1253.677	1.017	1826732	TEST_ORIENT	n/a	2	6	ARK	LAMP	ARK	LAMP	9	[0, 0, 0]	-999	PAL1	3	R1091N
1254.694	0.0	1827749	REC_START	n/a	2	-999	n/a	LAMP	n/a	n/a	9	[0, 0, 0]	-999	PAL1	3	R1091N
1254.694	1.197	1827749	TEST_PROBE	n/a	2	6	ARK	LAMP	ARK	LAMP	9	[0, 0, 0]	-999	PAL1	3	R1091N
1255.891	3.82	1828946	REC_EVENT	1197	2	6	ARK	LAMP	ARK	LAMP	9	[0, 0, 0]	-999	PAL1	3	R1091N
1259.711	8.082	1832766	REC_END	n/a	2	-999	n/a	n/a	n/a	n/a	9	[0, 0, 0]	-999	PAL1	3	R1091N
1267.793	10.438	1840848	ENCODING_START	n/a	0	-999	n/a	n/a	n/a	n/a	10	[0, 0, 0]	-999	PAL1	3	R1091N
1278.231	0.95	1851285	STUDY_ORIENT	n/a	1	1	BRANCH	PASS	FLAME	BRANCH	10	[0, 0, 0]	-999	PAL1	3	R1091N
1279.181	5.018	1852235	STUDY_PAIR	n/a	1	1	BRANCH	PASS	FLAME	BRANCH	10	[0, 0, 0]	-999	PAL1	3	R1091N
1284.199	0.8	1857253	STUDY_ORIENT	n/a	2	4	NET	PASS	HOSE	NET	10	[0, 0, 0]	-999	PAL1	3	R1091N
1284.999	5.034	1858053	STUDY_PAIR	n/a	2	4	NET	PASS	HOSE	NET	10	[0, 0, 0]	-999	PAL1	3	R1091N
1290.033	0.917	1863087	STUDY_ORIENT	n/a	3	3	FORK	PASS	FORK	ZOO	10	[0, 0, 0]	-999	PAL1	3	R1091N
1290.95	5.034	1864004	STUDY_PAIR	n/a	3	3	FORK	PASS	FORK	ZOO	10	[0, 0, 0]	-999	PAL1	3	R1091N
1295.984	0.833	1869038	STUDY_ORIENT	n/a	4	6	BAG	PASS	BAG	NAIL	10	[0, 0, 0]	-999	PAL1	3	R1091N
1296.817	5.018	1869871	STUDY_PAIR	n/a	4	6	BAG	PASS	BAG	NAIL	10	[0, 0, 0]	-999	PAL1	3	R1091N
1301.835	1.017	1874888	STUDY_ORIENT	n/a	5	5	CAKE	PASS	CAKE	RICE	10	[0, 0, 0]	-999	PAL1	3	R1091N
1302.852	5.034	1875905	STUDY_PAIR	n/a	5	5	CAKE	PASS	CAKE	RICE	10	[0, 0, 0]	-999	PAL1	3	R1091N
1307.886	1.0	1880939	STUDY_ORIENT	n/a	6	2	MULE	PASS	MOUSE	MULE	10	[0, 0, 0]	-999	PAL1	3	R1091N
1308.886	4.001	1881939	STUDY_PAIR	n/a	6	2	MULE	PASS	MOUSE	MULE	10	[0, 0, 0]	-999	PAL1	3	R1091N
1312.887	1.0	1885940	START	n/a	-999	-999	n/a	n/a	n/a	n/a	10	[-999, -999, -999]	-999	PAL1	3	R1091N
1313.887	0.017	1886940	MATH_START	n/a	-999	-999	n/a	n/a	n/a	n/a	10	[0, 0, 0]	-999	PAL1	3	R1091N
1313.904	4.15	1886957	PROB	4121	-999	-999	n/a	n/a	n/a	n/a	10	[2, 1, 2]	5	PAL1	3	R1091N
1318.054	4.335	1891107	PROB	4307	-999	-999	n/a	n/a	n/a	n/a	10	[3, 6, 3]	12	PAL1	3	R1091N
1322.389	7.184	1895442	PROB	7156	-999	-999	n/a	n/a	n/a	n/a	10	[6, 8, 8]	22	PAL1	3	R1091N
1329.573	6.196	1902625	PROB	6196	-999	-999	n/a	n/a	n/a	n/a	10	[4, 5, 8]	17	PAL1	3	R1091N
1335.769	0.005	1908821	STOP	n/a	-999	-999	n/a	n/a	n/a	n/a	10	[-999, -999, -999]	-999	PAL1	3	R1091N
1335.774	0.0	1908826	TEST_START	n/a	-999	-999	n/a	n/a	n/a	n/a	10	[0, 0, 0]	-999	PAL1	3	R1091N
1335.774	0.017	1908826	MATH_END	n/a	-999	-999	n/a	n/a	n/a	n/a	10	[0, 0, 0]	-999	PAL1	3	R1091N
1335.791	0.867	1908843	TEST_ORIENT	n/a	1	1	BRANCH	PASS	FLAME	BRANCH	10	[0, 0, 0]	-999	PAL1	3	R1091N
1336.658	0.0	1909710	TEST_PROBE	n/a	1	1	BRANCH	PASS	FLAME	BRANCH	10	[0, 0, 0]	-999	PAL1	3	R1091N
1336.658	1.991	1909710	REC_START	n/a	1	-999	n/a	PASS	n/a	n/a	10	[0, 0, 0]	-999	PAL1	3	R1091N
1338.649	3.026	1911701	REC_EVENT	1991	1	1	BRANCH	PASS	FLAME	BRANCH	10	[0, 0, 0]	-999	PAL1	3	R1091N
1341.675	0.017	1914727	REC_END	n/a	1	-999	n/a	n/a	n/a	n/a	10	[0, 0, 0]	-999	PAL1	3	R1091N
1341.692	1.0	1914744	TEST_ORIENT	n/a	6	2	MULE	PASS	MOUSE	MULE	10	[0, 0, 0]	-999	PAL1	3	R1091N
1342.692	0.0	1915744	TEST_PROBE	n/a	6	2	MULE	PASS	MOUSE	MULE	10	[0, 0, 0]	-999	PAL1	3	R1091N
1342.692	2.407	1915744	REC_START	n/a	6	-999	n/a	PASS	n/a	n/a	10	[0, 0, 0]	-999	PAL1	3	R1091N
1345.099	2.619	1918151	REC_EVENT	2407	6	2	MULE	PASS	MOUSE	MULE	10	[0, 0, 0]	-999	PAL1	3	R1091N
1347.718	0.008	1920770	REC_END	n/a	6	-999	n/a	n/a	n/a	n/a	10	[0, 0, 0]	-999	PAL1	3	R1091N
1347.726	0.95	1920778	TEST_ORIENT	n/a	3	3	FORK	PASS	FORK	ZOO	10	[0, 0, 0]	-999	PAL1	3	R1091N
1348.676	0.001	1921728	TEST_PROBE	n/a	3	3	FORK	PASS	FORK	ZOO	10	[0, 0, 0]	-999	PAL1	3	R1091N
1348.677	1.928	1921729	REC_START	n/a	3	-999	n/a	PASS	n/a	n/a	10	[0, 0, 0]	-999	PAL1	3	R1091N
1350.605	3.082	1923657	REC_EVENT	1928	3	3	FORK	PASS	FORK	ZOO	10	[0, 0, 0]	-999	PAL1	3	R1091N
1353.687	0.006	1926739	REC_END	n/a	3	-999	n/a	n/a	n/a	n/a	10	[0, 0, 0]	-999	PAL1	3	R1091N
1353.693	0.818	1926745	TEST_ORIENT	n/a	2	4	NET	PASS	HOSE	NET	10	[0, 0, 0]	-999	PAL1	3	R1091N
1354.511	0.0	1927563	REC_START	n/a	2	-999	n/a	PASS	n/a	n/a	10	[0, 0, 0]	-999	PAL1	3	R1091N
1354.511	2.188	1927563	TEST_PROBE	n/a	2	4	NET	PASS	HOSE	NET	10	[0, 0, 0]	-999	PAL1	3	R1091N
1356.699	2.829	1929751	REC_EVENT	2188	2	4	NET	PASS	HOSE	NET	10	[0, 0, 0]	-999	PAL1	3	R1091N
1359.528	0.017	1932579	REC_END	n/a	2	-999	n/a	n/a	n/a	n/a	10	[0, 0, 0]	-999	PAL1	3	R1091N
1359.545	1.0	1932596	TEST_ORIENT	n/a	5	5	CAKE	PASS	CAKE	RICE	10	[0, 0, 0]	-999	PAL1	3	R1091N
1360.545	0.0	1933596	TEST_PROBE	n/a	5	5	CAKE	PASS	CAKE	RICE	10	[0, 0, 0]	-999	PAL1	3	R1091N
1360.545	1.505	1933596	REC_START	n/a	5	-999	n/a	PASS	n/a	n/a	10	[0, 0, 0]	-999	PAL1	3	R1091N
1362.05	3.512	1935101	REC_EVENT	1505	5	5	CAKE	PASS	CAKE	RICE	10	[0, 0, 0]	-999	PAL1	3	R1091N
1365.562	0.017	1938613	REC_END	n/a	5	-999	n/a	n/a	n/a	n/a	10	[0, 0, 0]	-999	PAL1	3	R1091N
1365.579	1.05	1938630	TEST_ORIENT	n/a	4	6	BAG	PASS	BAG	NAIL	10	[0, 0, 0]	-999	PAL1	3	R1091N
1366.629	0.001	1939680	TEST_PROBE	n/a	4	6	BAG	PASS	BAG	NAIL	10	[0, 0, 0]	-999	PAL1	3	R1091N
1366.63	1.404	1939681	REC_START	n/a	4	-999	n/a	PASS	n/a	n/a	10	[0, 0, 0]	-999	PAL1	3	R1091N
1368.034	3.605	1941085	REC_EVENT	1404	4	6	BAG	PASS	BAG	NAIL	10	[0, 0, 0]	-999	PAL1	3	R1091N
1371.639	4.434	1944690	REC_END	n/a	4	-999	n/a	n/a	n/a	n/a	10	[0, 0, 0]	-999	PAL1	3	R1091N
1376.073	10.443	1949124	ENCODING_START	n/a	0	-999	n/a	n/a	n/a	n/a	11	[0, 0, 0]	-999	PAL1	3	R1091N
1386.516	0.8	1959566	STUDY_ORIENT	n/a	1	5	DOLL	n/a	MUG	DOLL	11	[0, 0, 0]	-999	PAL1	3	R1091N
1387.316	5.034	1960366	STUDY_PAIR	n/a	1	5	DOLL	n/a	MUG	DOLL	11	[0, 0, 0]	-999	PAL1	3	R1091N
1392.35	0.917	1965400	STUDY_ORIENT	n/a	2	4	CANE	n/a	CANE	PET	11	[0, 0, 0]	-999	PAL1	3	R1091N
1393.267	5.034	1966317	STUDY_PAIR	n/a	2	4	CANE	n/a	CANE	PET	11	[0, 0, 0]	-999	PAL1	3	R1091N
1398.301	0.9	1971351	STUDY_ORIENT	n/a	3	1	BEAR	n/a	CAT	BEAR	11	[0, 0, 0]	-999	PAL1	3	R1091N
1399.201	5.018	1972251	STUDY_PAIR	n/a	3	1	BEAR	n/a	CAT	BEAR	11	[0, 0, 0]	-999	PAL1	3	R1091N
1404.219	0.8	1977269	STUDY_ORIENT	n/a	4	2	HORSE	n/a	HAND	HORSE	11	[0, 0, 0]	-999	PAL1	3	R1091N
1405.019	5.034	1978069	STUDY_PAIR	n/a	4	2	HORSE	n/a	HAND	HORSE	11	[0, 0, 0]	-999	PAL1	3	R1091N
1410.053	0.934	1983103	STUDY_ORIENT	n/a	5	3	FORT	n/a	FORT	HOOF	11	[0, 0, 0]	-999	PAL1	3	R1091N
1410.987	5.034	1984037	STUDY_PAIR	n/a	5	3	FORT	n/a	FORT	HOOF	11	[0, 0, 0]	-999	PAL1	3	R1091N
1416.021	0.817	1989070	STUDY_ORIENT	n/a	6	6	WOOD	n/a	STAIR	WOOD	11	[0, 0, 0]	-999	PAL1	3	R1091N
1416.838	4.018	1989887	STUDY_PAIR	n/a	6	6	WOOD	n/a	STAIR	WOOD	11	[0, 0, 0]	-999	PAL1	3	R1091N
1420.856	0.999	1993905	START	n/a	-999	-999	n/a	n/a	n/a	n/a	11	[-999, -999, -999]	-999	PAL1	3	R1091N
1421.855	0.017	1994904	MATH_START	n/a	-999	-999	n/a	n/a	n/a	n/a	11	[0, 0, 0]	-999	PAL1	3	R1091N
1421.872	5.118	1994921	PROB	5097	-999	-999	n/a	n/a	n/a	n/a	11	[7, 2, 2]	11	PAL1	3	R1091N
1426.99	6.517	2000039	PROB	6499	-999	-999	n/a	n/a	n/a	n/a	11	[1, 5, 2]	8	PAL1	3	R1091N
1433.507	7.201	2006556	PROB	7174	-999	-999	n/a	n/a	n/a	n/a	11	[5, 3, 8]	16	PAL1	3	R1091N
1440.708	5.589	2013756	PROB	5589	-999	-999	n/a	n/a	n/a	n/a	11	[8, 4, 8]	20	PAL1	3	R1091N
1446.297	0.012	2019345	STOP	n/a	-999	-999	n/a	n/a	n/a	n/a	11	[-999, -999, -999]	-999	PAL1	3	R1091N
1446.309	0.0	2019357	MATH_END	n/a	-999	-999	n/a	n/a	n/a	n/a	11	[0, 0, 0]	-999	PAL1	3	R1091N
1446.309	0.017	2019357	TEST_START	n/a	-999	-999	n/a	n/a	n/a	n/a	11	[0, 0, 0]	-999	PAL1	3	R1091N
1446.326	0.85	2019374	TEST_ORIENT	n/a	3	1	BEAR	n/a	CAT	BEAR	11	[0, 0, 0]	-999	PAL1	3	R1091N
1447.176	0.0	2020224	TEST_PROBE	n/a	3	1	BEAR	n/a	CAT	BEAR	11	[0, 0, 0]	-999	PAL1	3	R1091N
1447.176	5.015	2020224	REC_START	n/a	3	-999	n/a	n/a	n/a	n/a	11	[0, 0, 0]	-999	PAL1	3	R1091N
1452.191	0.003	2025239	REC_EVENT	5015	3	1	BEAR	<>	CAT	BEAR	11	[0, 0, 0]	-999	PAL1	3	R1091N
1452.194	0.016	2025242	REC_END	n/a	3	-999	n/a	n/a	n/a	n/a	11	[0, 0, 0]	-999	PAL1	3	R1091N
1452.21	0.883	2025258	TEST_ORIENT	n/a	4	2	HORSE	n/a	HAND	HORSE	11	[0, 0, 0]	-999	PAL1	3	R1091N
1453.093	0.0	2026141	REC_START	n/a	4	-999	n/a	n/a	n/a	n/a	11	[0, 0, 0]	-999	PAL1	3	R1091N
1453.093	5.015	2026141	TEST_PROBE	n/a	4	2	HORSE	n/a	HAND	HORSE	11	[0, 0, 0]	-999	PAL1	3	R1091N
1458.108	0.002	2031156	REC_EVENT	5015	4	2	HORSE	<>	HAND	HORSE	11	[0, 0, 0]	-999	PAL1	3	R1091N
1458.11	0.017	2031158	REC_END	n/a	4	-999	n/a	n/a	n/a	n/a	11	[0, 0, 0]	-999	PAL1	3	R1091N
1458.127	0.868	2031175	TEST_ORIENT	n/a	5	3	FORT	n/a	FORT	HOOF	11	[0, 0, 0]	-999	PAL1	3	R1091N
1458.995	0.0	2032043	TEST_PROBE	n/a	5	3	FORT	n/a	FORT	HOOF	11	[0, 0, 0]	-999	PAL1	3	R1091N
1458.995	5.015	2032043	REC_START	n/a	5	-999	n/a	n/a	n/a	n/a	11	[0, 0, 0]	-999	PAL1	3	R1091N
1464.01	0.002	2037058	REC_EVENT	5015	5	3	FORT	<>	FORT	HOOF	11	[0, 0, 0]	-999	PAL1	3	R1091N
1464.012	0.017	2037060	REC_END	n/a	5	-999	n/a	n/a	n/a	n/a	11	[0, 0, 0]	-999	PAL1	3	R1091N
1464.029	0.95	2037077	TEST_ORIENT	n/a	2	4	CANE	n/a	CANE	PET	11	[0, 0, 0]	-999	PAL1	3	R1091N
1464.979	0.001	2038027	TEST_PROBE	n/a	2	4	CANE	n/a	CANE	PET	11	[0, 0, 0]	-999	PAL1	3	R1091N
1464.98	5.01	2038028	REC_START	n/a	2	-999	n/a	n/a	n/a	n/a	11	[0, 0, 0]	-999	PAL1	3	R1091N
1469.99	0.005	2043037	REC_END	n/a	2	-999	n/a	n/a	n/a	n/a	11	[0, 0, 0]	-999	PAL1	3	R1091N
1469.995	0.002	2043042	REC_EVENT	5015	2	4	CANE	<>	CANE	PET	11	[0, 0, 0]	-999	PAL1	3	R1091N
1469.997	1.017	2043044	TEST_ORIENT	n/a	1	5	DOLL	n/a	MUG	DOLL	11	[0, 0, 0]	-999	PAL1	3	R1091N
1471.014	0.0	2044061	TEST_PROBE	n/a	1	5	DOLL	n/a	MUG	DOLL	11	[0, 0, 0]	-999	PAL1	3	R1091N
1471.014	5.015	2044061	REC_START	n/a	1	-999	n/a	n/a	n/a	n/a	11	[0, 0, 0]	-999	PAL1	3	R1091N
1476.029	0.002	2049076	REC_EVENT	5015	1	5	DOLL	<>	MUG	DOLL	11	[0, 0, 0]	-999	PAL1	3	R1091N
1476.031	0.017	2049078	REC_END	n/a	1	-999	n/a	n/a	n/a	n/a	11	[0, 0, 0]	-999	PAL1	3	R1091N
1476.048	0.817	2049095	TEST_ORIENT	n/a	6	6	WOOD	n/a	STAIR	WOOD	11	[0, 0, 0]	-999	PAL1	3	R1091N
1476.865	0.0	2049912	TEST_PROBE	n/a	6	6	WOOD	n/a	STAIR	WOOD	11	[0, 0, 0]	-999	PAL1	3	R1091N
1476.865	2.638	2049912	REC_START	n/a	6	-999	n/a	n/a	n/a	n/a	11	[0, 0, 0]	-999	PAL1	3	R1091N
1479.503	2.379	2052550	REC_EVENT	2638	6	6	WOOD	<>	STAIR	WOOD	11	[0, 0, 0]	-999	PAL1	3	R1091N
1481.882	2.655	2054929	REC_END	n/a	6	-999	n/a	n/a	n/a	n/a	11	[0, 0, 0]	-999	PAL1	3	R1091N
1484.537	10.447	2057584	ENCODING_START	n/a	0	-999	n/a	n/a	n/a	n/a	12	[0, 0, 0]	-999	PAL1	3	R1091N
1494.984	0.917	2068030	STUDY_ORIENT	n/a	1	1	BADGE	n/a	BADGE	NEST	12	[0, 0, 0]	-999	PAL1	3	R1091N
1495.901	5.034	2068947	STUDY_PAIR	n/a	1	1	BADGE	n/a	BADGE	NEST	12	[0, 0, 0]	-999	PAL1	3	R1091N
1500.935	0.85	2073981	STUDY_ORIENT	n/a	2	6	SWORD	n/a	EEL	SWORD	12	[0, 0, 0]	-999	PAL1	3	R1091N
1501.785	5.018	2074831	STUDY_PAIR	n/a	2	6	SWORD	n/a	EEL	SWORD	12	[0, 0, 0]	-999	PAL1	3	R1091N
1506.803	0.9	2079849	STUDY_ORIENT	n/a	3	5	THREAD	n/a	WALL	THREAD	12	[0, 0, 0]	-999	PAL1	3	R1091N
1507.703	5.018	2080749	STUDY_PAIR	n/a	3	5	THREAD	n/a	WALL	THREAD	12	[0, 0, 0]	-999	PAL1	3	R1091N
1512.721	0.916	2085767	STUDY_ORIENT	n/a	4	2	HILL	n/a	SHARK	HILL	12	[0, 0, 0]	-999	PAL1	3	R1091N
1513.637	5.018	2086683	STUDY_PAIR	n/a	4	2	HILL	n/a	SHARK	HILL	12	[0, 0, 0]	-999	PAL1	3	R1091N
1518.655	0.884	2091701	STUDY_ORIENT	n/a	5	3	LAWN	n/a	LAWN	FOX	12	[0, 0, 0]	-999	PAL1	3	R1091N
1519.539	5.034	2092585	STUDY_PAIR	n/a	5	3	LAWN	n/a	LAWN	FOX	12	[0, 0, 0]	-999	PAL1	3	R1091N
1524.573	0.883	2097618	STUDY_ORIENT	n/a	6	4	CHIN	n/a	CHIN	BRUSH	12	[0, 0, 0]	-999	PAL1	3	R1091N
1525.456	4.018	2098501	STUDY_PAIR	n/a	6	4	CHIN	n/a	CHIN	BRUSH	12	[0, 0, 0]	-999	PAL1	3	R1091N
1529.474	1.0	2102519	START	n/a	-999	-999	n/a	n/a	n/a	n/a	12	[-999, -999, -999]	-999	PAL1	3	R1091N
1530.474	0.016	2103519	MATH_START	n/a	-999	-999	n/a	n/a	n/a	n/a	12	[0, 0, 0]	-999	PAL1	3	R1091N
1530.49	4.268	2103535	PROB	4247	-999	-999	n/a	n/a	n/a	n/a	12	[5, 4, 5]	14	PAL1	3	R1091N
1534.758	7.684	2107803	PROB	7651	-999	-999	n/a	n/a	n/a	n/a	12	[8, 1, 3]	12	PAL1	3	R1091N
1542.442	4.301	2115487	PROB	4271	-999	-999	n/a	n/a	n/a	n/a	12	[7, 5, 6]	18	PAL1	3	R1091N
1546.743	3.994	2119788	PROB	3994	-999	-999	n/a	n/a	n/a	n/a	12	[4, 6, 9]	19	PAL1	3	R1091N
1550.737	0.007	2123781	STOP	n/a	-999	-999	n/a	n/a	n/a	n/a	12	[-999, -999, -999]	-999	PAL1	3	R1091N
1550.744	0.0	2123788	MATH_END	n/a	-999	-999	n/a	n/a	n/a	n/a	12	[0, 0, 0]	-999	PAL1	3	R1091N
1550.744	0.016	2123788	TEST_START	n/a	-999	-999	n/a	n/a	n/a	n/a	12	[0, 0, 0]	-999	PAL1	3	R1091N
1550.76	0.984	2123804	TEST_ORIENT	n/a	1	1	BADGE	n/a	BADGE	NEST	12	[0, 0, 0]	-999	PAL1	3	R1091N
1551.744	0.001	2124788	TEST_PROBE	n/a	1	1	BADGE	n/a	BADGE	NEST	12	[0, 0, 0]	-999	PAL1	3	R1091N
1551.745	5.025	2124789	REC_START	n/a	1	-999	n/a	n/a	n/a	n/a	12	[0, 0, 0]	-999	PAL1	3	R1091N
1556.77	0.002	2129814	REC_END	n/a	1	-999	n/a	n/a	n/a	n/a	12	[0, 0, 0]	-999	PAL1	3	R1091N
1556.772	0.006	2129816	REC_EVENT	5027	1	1	BADGE	<>	BADGE	NEST	12	[0, 0, 0]	-999	PAL1	3	R1091N
1556.778	0.834	2129822	TEST_ORIENT	n/a	4	2	HILL	n/a	SHARK	HILL	12	[0, 0, 0]	-999	PAL1	3	R1091N
1557.612	0.0	2130656	REC_START	n/a	4	-999	n/a	n/a	n/a	n/a	12	[0, 0, 0]	-999	PAL1	3	R1091N
1557.612	1.443	2130656	TEST_PROBE	n/a	4	2	HILL	n/a	SHARK	HILL	12	[0, 0, 0]	-999	PAL1	3	R1091N
1559.055	3.574	2132099	REC_EVENT	1443	4	2	HILL	<>	SHARK	HILL	12	[0, 0, 0]	-999	PAL1	3	R1091N
1562.629	0.017	2135673	REC_END	n/a	4	-999	n/a	n/a	n/a	n/a	12	[0, 0, 0]	-999	PAL1	3	R1091N
1562.646	0.95	2135690	TEST_ORIENT	n/a	5	3	LAWN	n/a	LAWN	FOX	12	[0, 0, 0]	-999	PAL1	3	R1091N
1563.596	0.001	2136640	TEST_PROBE	n/a	5	3	LAWN	n/a	LAWN	FOX	12	[0, 0, 0]	-999	PAL1	3	R1091N
1563.597	5.025	2136641	REC_START	n/a	5	-999	n/a	n/a	n/a	n/a	12	[0, 0, 0]	-999	PAL1	3	R1091N
1568.622	0.002	2141666	REC_END	n/a	5	-999	n/a	n/a	n/a	n/a	12	[0, 0, 0]	-999	PAL1	3	R1091N
1568.624	0.006	2141668	REC_EVENT	5027	5	3	LAWN	<>	LAWN	FOX	12	[0, 0, 0]	-999	PAL1	3	R1091N
1568.63	0.917	2141674	TEST_ORIENT	n/a	6	4	CHIN	n/a	CHIN	BRUSH	12	[0, 0, 0]	-999	PAL1	3	R1091N
1569.547	0.0	2142591	TEST_PROBE	n/a	6	4	CHIN	n/a	CHIN	BRUSH	12	[0, 0, 0]	-999	PAL1	3	R1091N
1569.547	5.026	2142591	REC_START	n/a	6	-999	n/a	n/a	n/a	n/a	12	[0, 0, 0]	-999	PAL1	3	R1091N
1574.573	0.001	2147617	REC_END	n/a	6	-999	n/a	n/a	n/a	n/a	12	[0, 0, 0]	-999	PAL1	3	R1091N
1574.574	0.007	2147618	REC_EVENT	5027	6	4	CHIN	<>	CHIN	BRUSH	12	[0, 0, 0]	-999	PAL1	3	R1091N
1574.581	0.834	2147625	TEST_ORIENT	n/a	3	5	THREAD	n/a	WALL	THREAD	12	[0, 0, 0]	-999	PAL1	3	R1091N
1575.415	0.0	2148459	TEST_PROBE	n/a	3	5	THREAD	n/a	WALL	THREAD	12	[0, 0, 0]	-999	PAL1	3	R1091N
1575.415	1.165	2148459	REC_START	n/a	3	-999	n/a	n/a	n/a	n/a	12	[0, 0, 0]	-999	PAL1	3	R1091N
1576.58	3.852	2149623	REC_EVENT	1165	3	5	THREAD	<>	WALL	THREAD	12	[0, 0, 0]	-999	PAL1	3	R1091N
1580.432	0.017	2153475	REC_END	n/a	3	-999	n/a	n/a	n/a	n/a	12	[0, 0, 0]	-999	PAL1	3	R1091N
1580.449	0.967	2153492	TEST_ORIENT	n/a	2	6	SWORD	n/a	EEL	SWORD	12	[0, 0, 0]	-999	PAL1	3	R1091N
1581.416	0.0	2154459	TEST_PROBE	n/a	2	6	SWORD	n/a	EEL	SWORD	12	[0, 0, 0]	-999	PAL1	3	R1091N
1581.416	5.017	2154459	REC_START	n/a	2	-999	n/a	n/a	n/a	n/a	12	[0, 0, 0]	-999	PAL1	3	R1091N
1586.433	0.004	2159476	REC_END	n/a	2	-999	n/a	n/a	n/a	n/a	12	[0, 0, 0]	-999	PAL1	3	R1091N
1586.437	1.98	2159480	REC_EVENT	5021	2	6	SWORD	<>	EEL	SWORD	12	[0, 0, 0]	-999	PAL1	3	R1091N
1588.417	10.452	2161460	ENCODING_START	n/a	0	-999	n/a	n/a	n/a	n/a	13	[0, 0, 0]	-999	PAL1	3	R1091N
1598.869	0.8	2171912	STUDY_ORIENT	n/a	1	3	BOMB	n/a	BOMB	OWL	13	[0, 0, 0]	-999	PAL1	3	R1091N
1599.669	5.034	2172712	STUDY_PAIR	n/a	1	3	BOMB	n/a	BOMB	OWL	13	[0, 0, 0]	-999	PAL1	3	R1091N
1604.703	0.866	2177745	STUDY_ORIENT	n/a	2	6	FUDGE	n/a	FUDGE	CROW	13	[0, 0, 0]	-999	PAL1	3	R1091N
1605.569	5.018	2178611	STUDY_PAIR	n/a	2	6	FUDGE	n/a	FUDGE	CROW	13	[0, 0, 0]	-999	PAL1	3	R1091N
1610.587	0.867	2183629	STUDY_ORIENT	n/a	3	1	CORD	n/a	COUCH	CORD	13	[0, 0, 0]	-999	PAL1	3	R1091N
1611.454	5.034	2184496	STUDY_PAIR	n/a	3	1	CORD	n/a	COUCH	CORD	13	[0, 0, 0]	-999	PAL1	3	R1091N
1616.488	0.984	2189530	STUDY_ORIENT	n/a	4	2	STRING	n/a	VAN	STRING	13	[0, 0, 0]	-999	PAL1	3	R1091N
1617.472	5.034	2190514	STUDY_PAIR	n/a	4	2	STRING	n/a	VAN	STRING	13	[0, 0, 0]	-999	PAL1	3	R1091N
1622.506	0.883	2195548	STUDY_ORIENT	n/a	5	5	FOG	n/a	FOG	GRAPE	13	[0, 0, 0]	-999	PAL1	3	R1091N
1623.389	5.018	2196431	STUDY_PAIR	n/a	5	5	FOG	n/a	FOG	GRAPE	13	[0, 0, 0]	-999	PAL1	3	R1091N
1628.407	0.85	2201449	STUDY_ORIENT	n/a	6	4	CUP	n/a	CUP	BAND	13	[0, 0, 0]	-999	PAL1	3	R1091N
1629.257	4.018	2202299	STUDY_PAIR	n/a	6	4	CUP	n/a	CUP	BAND	13	[0, 0, 0]	-999	PAL1	3	R1091N
1633.275	0.999	2206316	START	n/a	-999	-999	n/a	n/a	n/a	n/a	13	[-999, -999, -999]	-999	PAL1	3	R1091N
1634.274	0.017	2207315	MATH_START	n/a	-999	-999	n/a	n/a	n/a	n/a	13	[0, 0, 0]	-999	PAL1	3	R1091N
1634.291	11.552	2207332	PROB	11526	-999	-999	n/a	n/a	n/a	n/a	13	[8, 9, 8]	26	PAL1	3	R1091N
1645.843	5.184	2218884	PROB	5158	-999	-999	n/a	n/a	n/a	n/a	13	[4, 8, 1]	13	PAL1	3	R1091N
1651.027	11.254	2224068	PROB	11254	-999	-999	n/a	n/a	n/a	n/a	13	[8, 9, 2]	19	PAL1	3	R1091N
1662.281	0.015	2235321	STOP	n/a	-999	-999	n/a	n/a	n/a	n/a	13	[-999, -999, -999]	-999	PAL1	3	R1091N
1662.296	0.0	2235336	MATH_END	n/a	-999	-999	n/a	n/a	n/a	n/a	13	[0, 0, 0]	-999	PAL1	3	R1091N
1662.296	0.017	2235336	TEST_START	n/a	-999	-999	n/a	n/a	n/a	n/a	13	[0, 0, 0]	-999	PAL1	3	R1091N
1662.313	1.0	2235353	TEST_ORIENT	n/a	3	1	CORD	n/a	COUCH	CORD	13	[0, 0, 0]	-999	PAL1	3	R1091N
1663.313	0.0	2236353	TEST_PROBE	n/a	3	1	CORD	n/a	COUCH	CORD	13	[0, 0, 0]	-999	PAL1	3	R1091N
1663.313	2.015	2236353	REC_START	n/a	3	-999	n/a	n/a	n/a	n/a	13	[0, 0, 0]	-999	PAL1	3	R1091N
1665.328	3.002	2238368	REC_EVENT	2015	3	1	CORD	<>	COUCH	CORD	13	[0, 0, 0]	-999	PAL1	3	R1091N
1668.33	0.017	2241370	REC_END	n/a	3	-999	n/a	n/a	n/a	n/a	13	[0, 0, 0]	-999	PAL1	3	R1091N
1668.347	0.833	2241387	TEST_ORIENT	n/a	4	2	STRING	n/a	VAN	STRING	13	[0, 0, 0]	-999	PAL1	3	R1091N
1669.18	0.001	2242220	TEST_PROBE	n/a	4	2	STRING	n/a	VAN	STRING	13	[0, 0, 0]	-999	PAL1	3	R1091N
1669.181	5.009	2242221	REC_START	n/a	4	-999	n/a	n/a	n/a	n/a	13	[0, 0, 0]	-999	PAL1	3	R1091N
1674.19	0.001	2247230	REC_EVENT	5009	4	2	STRING	<>	VAN	STRING	13	[0, 0, 0]	-999	PAL1	3	R1091N
1674.191	0.007	2247231	REC_END	n/a	4	-999	n/a	n/a	n/a	n/a	13	[0, 0, 0]	-999	PAL1	3	R1091N
1674.198	1.033	2247238	TEST_ORIENT	n/a	1	3	BOMB	n/a	BOMB	OWL	13	[0, 0, 0]	-999	PAL1	3	R1091N
1675.231	0.001	2248271	TEST_PROBE	n/a	1	3	BOMB	n/a	BOMB	OWL	13	[0, 0, 0]	-999	PAL1	3	R1091N
1675.232	5.009	2248272	REC_START	n/a	1	-999	n/a	n/a	n/a	n/a	13	[0, 0, 0]	-999	PAL1	3	R1091N
1680.241	0.001	2253281	REC_EVENT	5009	1	3	BOMB	<>	BOMB	OWL	13	[0, 0, 0]	-999	PAL1	3	R1091N
1680.242	0.007	2253282	REC_END	n/a	1	-999	n/a	n/a	n/a	n/a	13	[0, 0, 0]	-999	PAL1	3	R1091N
1680.249	0.8	2253289	TEST_ORIENT	n/a	6	4	CUP	n/a	CUP	BAND	13	[0, 0, 0]	-999	PAL1	3	R1091N
1681.049	0.0	2254089	TEST_PROBE	n/a	6	4	CUP	n/a	CUP	BAND	13	[0, 0, 0]	-999	PAL1	3	R1091N
1681.049	5.015	2254089	REC_START	n/a	6	-999	n/a	n/a	n/a	n/a	13	[0, 0, 0]	-999	PAL1	3	R1091N
1686.064	0.002	2259104	REC_EVENT	5015	6	4	CUP	<>	CUP	BAND	13	[0, 0, 0]	-999	PAL1	3	R1091N
1686.066	0.016	2259106	REC_END	n/a	6	-999	n/a	n/a	n/a	n/a	13	[0, 0, 0]	-999	PAL1	3	R1091N
1686.082	0.868	2259122	TEST_ORIENT	n/a	5	5	FOG	n/a	FOG	GRAPE	13	[0, 0, 0]	-999	PAL1	3	R1091N
1686.95	0.0	2259989	TEST_PROBE	n/a	5	5	FOG	n/a	FOG	GRAPE	13	[0, 0, 0]	-999	PAL1	3	R1091N
1686.95	5.017	2259989	REC_START	n/a	5	-999	n/a	n/a	n/a	n/a	13	[0, 0, 0]	-999	PAL1	3	R1091N
1691.967	0.004	2265006	REC_END	n/a	5	-999	n/a	n/a	n/a	n/a	13	[0, 0, 0]	-999	PAL1	3	R1091N
1691.971	0.013	2265010	REC_EVENT	5021	5	5	FOG	<>	FOG	GRAPE	13	[0, 0, 0]	-999	PAL1	3	R1091N
1691.984	0.967	2265023	TEST_ORIENT	n/a	2	6	FUDGE	n/a	FUDGE	CROW	13	[0, 0, 0]	-999	PAL1	3	R1091N
1692.951	0.0	2265990	TEST_PROBE	n/a	2	6	FUDGE	n/a	FUDGE	CROW	13	[0, 0, 0]	-999	PAL1	3	R1091N
1692.951	5.015	2265990	REC_START	n/a	2	-999	n/a	n/a	n/a	n/a	13	[0, 0, 0]	-999	PAL1	3	R1091N
1697.966	0.003	2271005	REC_EVENT	5015	2	6	FUDGE	<>	FUDGE	CROW	13	[0, 0, 0]	-999	PAL1	3	R1091N
1697.969	65.432	2271008	REC_END	n/a	2	-999	n/a	n/a	n/a	n/a	13	[0, 0, 0]	-999	PAL1	3	R1091N
1763.401	10.447	2336438	ENCODING_START	n/a	0	-999	n/a	n/a	n/a	n/a	14	[0, 0, 0]	-999	PAL1	3	R1091N
1773.848	0.95	2346884	STUDY_ORIENT	n/a	1	5	JUICE	n/a	WAVE	JUICE	14	[0, 0, 0]	-999	PAL1	3	R1091N
1774.798	5.018	2347834	STUDY_PAIR	n/a	1	5	JUICE	n/a	WAVE	JUICE	14	[0, 0, 0]	-999	PAL1	3	R1091N
1779.816	0.95	2352852	STUDY_ORIENT	n/a	2	6	BARN	n/a	STREET	BARN	14	[0, 0, 0]	-999	PAL1	3	R1091N
1780.766	5.034	2353802	STUDY_PAIR	n/a	2	6	BARN	n/a	STREET	BARN	14	[0, 0, 0]	-999	PAL1	3	R1091N
1785.8	0.917	2358836	STUDY_ORIENT	n/a	3	3	CHAIR	n/a	CHAIR	CAPE	14	[0, 0, 0]	-999	PAL1	3	R1091N
1786.717	5.034	2359753	STUDY_PAIR	n/a	3	3	CHAIR	n/a	CHAIR	CAPE	14	[0, 0, 0]	-999	PAL1	3	R1091N
1791.751	1.034	2364787	STUDY_ORIENT	n/a	4	4	PLATE	n/a	PLATE	SHEEP	14	[0, 0, 0]	-999	PAL1	3	R1091N
1792.785	5.034	2365821	STUDY_PAIR	n/a	4	4	PLATE	n/a	PLATE	SHEEP	14	[0, 0, 0]	-999	PAL1	3	R1091N
1797.819	0.967	2370854	STUDY_ORIENT	n/a	5	1	FLAG	n/a	FLAG	PEARL	14	[0, 0, 0]	-999	PAL1	3	R1091N
1798.786	5.034	2371821	STUDY_PAIR	n/a	5	1	FLAG	n/a	FLAG	PEARL	14	[0, 0, 0]	-999	PAL1	3	R1091N
1803.82	0.967	2376855	STUDY_ORIENT	n/a	6	2	MAP	n/a	CORN	MAP	14	[0, 0, 0]	-999	PAL1	3	R1091N
1804.787	4.018	2377822	STUDY_PAIR	n/a	6	2	MAP	n/a	CORN	MAP	14	[0, 0, 0]	-999	PAL1	3	R1091N
1808.805	0.999	2381840	START	n/a	-999	-999	n/a	n/a	n/a	n/a	14	[-999, -999, -999]	-999	PAL1	3	R1091N
1809.804	0.017	2382839	MATH_START	n/a	-999	-999	n/a	n/a	n/a	n/a	14	[0, 0, 0]	-999	PAL1	3	R1091N
1809.821	3.084	2382856	PROB	3060	-999	-999	n/a	n/a	n/a	n/a	14	[4, 1, 1]	6	PAL1	3	R1091N
1812.905	10.501	2385940	PROB	10480	-999	-999	n/a	n/a	n/a	n/a	14	[1, 9, 3]	14	PAL1	3	R1091N
1823.406	4.085	2396441	PROB	4051	-999	-999	n/a	n/a	n/a	n/a	14	[7, 6, 5]	18	PAL1	3	R1091N
1827.491	11.03	2400525	PROB	11030	-999	-999	n/a	n/a	n/a	n/a	14	[9, 7, 7]	24	PAL1	3	R1091N
1838.521	0.005	2411555	STOP	n/a	-999	-999	n/a	n/a	n/a	n/a	14	[-999, -999, -999]	-999	PAL1	3	R1091N
1838.526	0.0	2411560	MATH_END	n/a	-999	-999	n/a	n/a	n/a	n/a	14	[0, 0, 0]	-999	PAL1	3	R1091N
1838.526	0.016	2411560	TEST_START	n/a	-999	-999	n/a	n/a	n/a	n/a	14	[0, 0, 0]	-999	PAL1	3	R1091N
1838.542	0.884	2411576	TEST_ORIENT	n/a	5	1	FLAG	n/a	FLAG	PEARL	14	[0, 0, 0]	-999	PAL1	3	R1091N
1839.426	0.001	2412460	TEST_PROBE	n/a	5	1	FLAG	n/a	FLAG	PEARL	14	[0, 0, 0]	-999	PAL1	3	R1091N
1839.427	5.021	2412461	REC_START	n/a	5	-999	n/a	n/a	n/a	n/a	14	[0, 0, 0]	-999	PAL1	3	R1091N
1844.448	0.004	2417482	REC_EVENT	5021	5	1	FLAG	<>	FLAG	PEARL	14	[0, 0, 0]	-999	PAL1	3	R1091N
1844.452	0.008	2417486	REC_END	n/a	5	-999	n/a	n/a	n/a	n/a	14	[0, 0, 0]	-999	PAL1	3	R1091N
1844.46	0.834	2417494	TEST_ORIENT	n/a	6	2	MAP	n/a	CORN	MAP	14	[0, 0, 0]	-999	PAL1	3	R1091N
1845.294	0.0	2418328	TEST_PROBE	n/a	6	2	MAP	n/a	CORN	MAP	14	[0, 0, 0]	-999	PAL1	3	R1091N
1845.294	5.015	2418328	REC_START	n/a	6	-999	n/a	n/a	n/a	n/a	14	[0, 0, 0]	-999	PAL1	3	R1091N
1850.309	0.002	2423343	REC_EVENT	5015	6	2	MAP	<>	CORN	MAP	14	[0, 0, 0]	-999	PAL1	3	R1091N
1850.311	0.017	2423345	REC_END	n/a	6	-999	n/a	n/a	n/a	n/a	14	[0, 0, 0]	-999	PAL1	3	R1091N
1850.328	0.883	2423362	TEST_ORIENT	n/a	3	3	CHAIR	n/a	CHAIR	CAPE	14	[0, 0, 0]	-999	PAL1	3	R1091N
1851.211	0.001	2424244	TEST_PROBE	n/a	3	3	CHAIR	n/a	CHAIR	CAPE	14	[0, 0, 0]	-999	PAL1	3	R1091N
1851.212	5.026	2424245	REC_START	n/a	3	-999	n/a	n/a	n/a	n/a	14	[0, 0, 0]	-999	PAL1	3	R1091N
1856.238	0.001	2429271	REC_END	n/a	3	-999	n/a	n/a	n/a	n/a	14	[0, 0, 0]	-999	PAL1	3	R1091N
1856.239	0.006	2429272	REC_EVENT	5027	3	3	CHAIR	<>	CHAIR	CAPE	14	[0, 0, 0]	-999	PAL1	3	R1091N
1856.245	0.916	2429278	TEST_ORIENT	n/a	4	4	PLATE	n/a	PLATE	SHEEP	14	[0, 0, 0]	-999	PAL1	3	R1091N
1857.161	0.0	2430194	TEST_PROBE	n/a	4	4	PLATE	n/a	PLATE	SHEEP	14	[0, 0, 0]	-999	PAL1	3	R1091N
1857.161	5.009	2430194	REC_START	n/a	4	-999	n/a	n/a	n/a	n/a	14	[0, 0, 0]	-999	PAL1	3	R1091N
1862.17	0.002	2435203	REC_EVENT	5009	4	4	PLATE	<>	PLATE	SHEEP	14	[0, 0, 0]	-999	PAL1	3	R1091N
1862.172	0.008	2435205	REC_END	n/a	4	-999	n/a	n/a	n/a	n/a	14	[0, 0, 0]	-999	PAL1	3	R1091N
1862.18	1.017	2435213	TEST_ORIENT	n/a	1	5	JUICE	n/a	WAVE	JUICE	14	[0, 0, 0]	-999	PAL1	3	R1091N
1863.197	0.0	2436230	TEST_PROBE	n/a	1	5	JUICE	n/a	WAVE	JUICE	14	[0, 0, 0]	-999	PAL1	3	R1091N
1863.197	5.015	2436230	REC_START	n/a	1	-999	n/a	n/a	n/a	n/a	14	[0, 0, 0]	-999	PAL1	3	R1091N
1868.212	0.002	2441245	REC_EVENT	5015	1	5	JUICE	<>	WAVE	JUICE	14	[0, 0, 0]	-999	PAL1	3	R1091N
1868.214	0.017	2441247	REC_END	n/a	1	-999	n/a	n/a	n/a	n/a	14	[0, 0, 0]	-999	PAL1	3	R1091N
1868.231	0.882	2441264	TEST_ORIENT	n/a	2	6	BARN	n/a	STREET	BARN	14	[0, 0, 0]	-999	PAL1	3	R1091N
1869.113	0.001	2442146	TEST_PROBE	n/a	2	6	BARN	n/a	STREET	BARN	14	[0, 0, 0]	-999	PAL1	3	R1091N
1869.114	5.009	2442147	REC_START	n/a	2	-999	n/a	n/a	n/a	n/a	14	[0, 0, 0]	-999	PAL1	3	R1091N
1874.123	0.0	2447156	REC_EVENT	5009	2	6	BARN	<>	STREET	BARN	14	[0, 0, 0]	-999	PAL1	3	R1091N
1874.123	1.718	2447156	REC_END	n/a	2	-999	n/a	n/a	n/a	n/a	14	[0, 0, 0]	-999	PAL1	3	R1091N
1875.841	10.443	2448874	ENCODING_START	n/a	0	-999	n/a	n/a	n/a	n/a	15	[0, 0, 0]	-999	PAL1	3	R1091N
1886.284	0.917	2459316	STUDY_ORIENT	n/a	1	5	DIME	n/a	DEER	DIME	15	[0, 0, 0]	-999	PAL1	3	R1091N
1887.201	5.034	2460233	STUDY_PAIR	n/a	1	5	DIME	n/a	DEER	DIME	15	[0, 0, 0]	-999	PAL1	3	R1091N
1892.235	0.849	2465267	STUDY_ORIENT	n/a	2	6	STOVE	n/a	STOVE	MUD	15	[0, 0, 0]	-999	PAL1	3	R1091N
1893.084	5.034	2466116	STUDY_PAIR	n/a	2	6	STOVE	n/a	STOVE	MUD	15	[0, 0, 0]	-999	PAL1	3	R1091N
1898.118	0.967	2471150	STUDY_ORIENT	n/a	3	1	SKI	n/a	GLASS	SKI	15	[0, 0, 0]	-999	PAL1	3	R1091N
1899.085	5.034	2472117	STUDY_PAIR	n/a	3	1	SKI	n/a	GLASS	SKI	15	[0, 0, 0]	-999	PAL1	3	R1091N
1904.119	0.785	2477151	STUDY_ORIENT	n/a	4	2	HEN	n/a	CLOCK	HEN	15	[0, 0, 0]	-999	PAL1	3	R1091N
1904.904	5.034	2477936	STUDY_PAIR	n/a	4	2	HEN	n/a	CLOCK	HEN	15	[0, 0, 0]	-999	PAL1	3	R1091N
1909.938	0.9	2482969	STUDY_ORIENT	n/a	5	3	GATE	n/a	GATE	GRASS	15	[0, 0, 0]	-999	PAL1	3	R1091N
1910.838	5.034	2483869	STUDY_PAIR	n/a	5	3	GATE	n/a	GATE	GRASS	15	[0, 0, 0]	-999	PAL1	3	R1091N
1915.872	0.817	2488903	STUDY_ORIENT	n/a	6	4	PANTS	SLIME	SLIME	PANTS	15	[0, 0, 0]	-999	PAL1	3	R1091N
1916.689	4.018	2489720	STUDY_PAIR	n/a	6	4	PANTS	SLIME	SLIME	PANTS	15	[0, 0, 0]	-999	PAL1	3	R1091N
1920.707	0.999	2493738	START	n/a	-999	-999	n/a	n/a	n/a	n/a	15	[-999, -999, -999]	-999	PAL1	3	R1091N
1921.706	0.017	2494737	MATH_START	n/a	-999	-999	n/a	n/a	n/a	n/a	15	[0, 0, 0]	-999	PAL1	3	R1091N
1921.723	6.051	2494754	PROB	6030	-999	-999	n/a	n/a	n/a	n/a	15	[6, 6, 3]	15	PAL1	3	R1091N
1927.774	3.316	2500805	PROB	3299	-999	-999	n/a	n/a	n/a	n/a	15	[6, 5, 1]	12	PAL1	3	R1091N
1931.09	3.235	2504121	PROB	3207	-999	-999	n/a	n/a	n/a	n/a	15	[2, 8, 8]	20	PAL1	3	R1091N
1934.325	8.092	2507355	PROB	8092	-999	-999	n/a	n/a	n/a	n/a	15	[2, 3, 6]	11	PAL1	3	R1091N
1942.417	0.01	2515447	STOP	n/a	-999	-999	n/a	n/a	n/a	n/a	15	[-999, -999, -999]	-999	PAL1	3	R1091N
1942.427	0.0	2515457	MATH_END	n/a	-999	-999	n/a	n/a	n/a	n/a	15	[0, 0, 0]	-999	PAL1	3	R1091N
1942.427	0.016	2515457	TEST_START	n/a	-999	-999	n/a	n/a	n/a	n/a	15	[0, 0, 0]	-999	PAL1	3	R1091N
1942.443	0.984	2515473	TEST_ORIENT	n/a	3	1	SKI	n/a	GLASS	SKI	15	[0, 0, 0]	-999	PAL1	3	R1091N
1943.427	0.0	2516457	TEST_PROBE	n/a	3	1	SKI	n/a	GLASS	SKI	15	[0, 0, 0]	-999	PAL1	3	R1091N
1943.427	5.015	2516457	REC_START	n/a	3	-999	n/a	n/a	n/a	n/a	15	[0, 0, 0]	-999	PAL1	3	R1091N
1948.442	0.002	2521472	REC_EVENT	5015	3	1	SKI	<>	GLASS	SKI	15	[0, 0, 0]	-999	PAL1	3	R1091N
1948.444	0.017	2521474	REC_END	n/a	3	-999	n/a	n/a	n/a	n/a	15	[0, 0, 0]	-999	PAL1	3	R1091N
1948.461	0.833	2521491	TEST_ORIENT	n/a	4	2	HEN	n/a	CLOCK	HEN	15	[0, 0, 0]	-999	PAL1	3	R1091N
1949.294	0.001	2522324	TEST_PROBE	n/a	4	2	HEN	n/a	CLOCK	HEN	15	[0, 0, 0]	-999	PAL1	3	R1091N
1949.295	5.009	2522325	REC_START	n/a	4	-999	n/a	n/a	n/a	n/a	15	[0, 0, 0]	-999	PAL1	3	R1091N
1954.304	0.0	2527334	REC_EVENT	5009	4	2	HEN	<>	CLOCK	HEN	15	[0, 0, 0]	-999	PAL1	3	R1091N
1954.304	0.008	2527334	REC_END	n/a	4	-999	n/a	n/a	n/a	n/a	15	[0, 0, 0]	-999	PAL1	3	R1091N
1954.312	1.0	2527342	TEST_ORIENT	n/a	5	3	GATE	n/a	GATE	GRASS	15	[0, 0, 0]	-999	PAL1	3	R1091N
1955.312	0.001	2528342	TEST_PROBE	n/a	5	3	GATE	n/a	GATE	GRASS	15	[0, 0, 0]	-999	PAL1	3	R1091N
1955.313	5.015	2528343	REC_START	n/a	5	-999	n/a	n/a	n/a	n/a	15	[0, 0, 0]	-999	PAL1	3	R1091N
1960.328	0.001	2533358	REC_EVENT	5015	5	3	GATE	<>	GATE	GRASS	15	[0, 0, 0]	-999	PAL1	3	R1091N
1960.329	0.017	2533359	REC_END	n/a	5	-999	n/a	n/a	n/a	n/a	15	[0, 0, 0]	-999	PAL1	3	R1091N
1960.346	1.034	2533376	TEST_ORIENT	n/a	6	4	PANTS	SLIME	SLIME	PANTS	15	[0, 0, 0]	-999	PAL1	3	R1091N
1961.38	0.0	2534409	TEST_PROBE	n/a	6	4	PANTS	SLIME	SLIME	PANTS	15	[0, 0, 0]	-999	PAL1	3	R1091N
1961.38	2.166	2534409	REC_START	n/a	6	-999	n/a	SLIME	n/a	n/a	15	[0, 0, 0]	-999	PAL1	3	R1091N
1963.546	2.851	2536575	REC_EVENT	2166	6	4	PANTS	SLIME	SLIME	PANTS	15	[0, 0, 0]	-999	PAL1	3	R1091N
1966.397	0.017	2539426	REC_END	n/a	6	-999	n/a	n/a	n/a	n/a	15	[0, 0, 0]	-999	PAL1	3	R1091N
1966.414	0.85	2539443	TEST_ORIENT	n/a	1	5	DIME	n/a	DEER	DIME	15	[0, 0, 0]	-999	PAL1	3	R1091N
1967.264	0.001	2540293	TEST_PROBE	n/a	1	5	DIME	n/a	DEER	DIME	15	[0, 0, 0]	-999	PAL1	3	R1091N
1967.265	5.026	2540294	REC_START	n/a	1	-999	n/a	n/a	n/a	n/a	15	[0, 0, 0]	-999	PAL1	3	R1091N
1972.291	0.001	2545320	REC_END	n/a	1	-999	n/a	n/a	n/a	n/a	15	[0, 0, 0]	-999	PAL1	3	R1091N
1972.292	0.006	2545321	REC_EVENT	5027	1	5	DIME	<>	DEER	DIME	15	[0, 0, 0]	-999	PAL1	3	R1091N
1972.298	0.967	2545327	TEST_ORIENT	n/a	2	6	STOVE	n/a	STOVE	MUD	15	[0, 0, 0]	-999	PAL1	3	R1091N
1973.265	0.0	2546294	TEST_PROBE	n/a	2	6	STOVE	n/a	STOVE	MUD	15	[0, 0, 0]	-999	PAL1	3	R1091N
1973.265	1.88	2546294	REC_START	n/a	2	-999	n/a	n/a	n/a	n/a	15	[0, 0, 0]	-999	PAL1	3	R1091N
1975.145	3.137	2548174	REC_EVENT	1880	2	6	STOVE	<>	STOVE	MUD	15	[0, 0, 0]	-999	PAL1	3	R1091N
1978.282	1.919	2551311	REC_END	n/a	2	-999	n/a	n/a	n/a	n/a	15	[0, 0, 0]	-999	PAL1	3	R1091N
1980.201	10.45	2553230	ENCODING_START	n/a	0	-999	n/a	n/a	n/a	n/a	16	[0, 0, 0]	-999	PAL1	3	R1091N
1990.651	0.934	2563679	STUDY_ORIENT	n/a	1	3	PHONE	n/a	PHONE	LAMB	16	[0, 0, 0]	-999	PAL1	3	R1091N
1991.585	5.034	2564613	STUDY_PAIR	n/a	1	3	PHONE	n/a	PHONE	LAMB	16	[0, 0, 0]	-999	PAL1	3	R1091N
1996.619	0.967	2569647	STUDY_ORIENT	n/a	2	6	PALM	n/a	BOX	PALM	16	[0, 0, 0]	-999	PAL1	3	R1091N
1997.586	5.034	2570614	STUDY_PAIR	n/a	2	6	PALM	n/a	BOX	PALM	16	[0, 0, 0]	-999	PAL1	3	R1091N
2002.62	0.9	2575648	STUDY_ORIENT	n/a	3	5	BOWL	n/a	PIN	BOWL	16	[0, 0, 0]	-999	PAL1	3	R1091N
2003.52	5.018	2576548	STUDY_PAIR	n/a	3	5	BOWL	n/a	PIN	BOWL	16	[0, 0, 0]	-999	PAL1	3	R1091N
2008.538	0.833	2581566	STUDY_ORIENT	n/a	4	2	EAR	n/a	EAR	TOOL	16	[0, 0, 0]	-999	PAL1	3	R1091N
2009.371	5.018	2582399	STUDY_PAIR	n/a	4	2	EAR	n/a	EAR	TOOL	16	[0, 0, 0]	-999	PAL1	3	R1091N
2014.389	0.85	2587417	STUDY_ORIENT	n/a	5	1	DOCK	n/a	SNOW	DOCK	16	[0, 0, 0]	-999	PAL1	3	R1091N
2015.239	5.034	2588267	STUDY_PAIR	n/a	5	1	DOCK	n/a	SNOW	DOCK	16	[0, 0, 0]	-999	PAL1	3	R1091N
2020.273	0.832	2593300	STUDY_ORIENT	n/a	6	4	SMOKE	n/a	SMOKE	TOOTH	16	[0, 0, 0]	-999	PAL1	3	R1091N
2021.105	4.002	2594132	STUDY_PAIR	n/a	6	4	SMOKE	n/a	SMOKE	TOOTH	16	[0, 0, 0]	-999	PAL1	3	R1091N
2025.107	0.999	2598134	START	n/a	-999	-999	n/a	n/a	n/a	n/a	16	[-999, -999, -999]	-999	PAL1	3	R1091N
2026.106	0.017	2599133	MATH_START	n/a	-999	-999	n/a	n/a	n/a	n/a	16	[0, 0, 0]	-999	PAL1	3	R1091N
2026.123	12.737	2599150	PROB	12718	-999	-999	n/a	n/a	n/a	n/a	16	[4, 3, 9]	14	PAL1	3	R1091N
2038.86	6.151	2611887	PROB	6117	-999	-999	n/a	n/a	n/a	n/a	16	[1, 8, 7]	16	PAL1	3	R1091N
2045.011	9.71	2618037	PROB	9710	-999	-999	n/a	n/a	n/a	n/a	16	[3, 8, 6]	17	PAL1	3	R1091N
2054.721	0.008	2627747	STOP	n/a	-999	-999	n/a	n/a	n/a	n/a	16	[-999, -999, -999]	-999	PAL1	3	R1091N
2054.729	0.0	2627755	MATH_END	n/a	-999	-999	n/a	n/a	n/a	n/a	16	[0, 0, 0]	-999	PAL1	3	R1091N
2054.729	0.017	2627755	TEST_START	n/a	-999	-999	n/a	n/a	n/a	n/a	16	[0, 0, 0]	-999	PAL1	3	R1091N
2054.746	0.916	2627772	TEST_ORIENT	n/a	5	1	DOCK	n/a	SNOW	DOCK	16	[0, 0, 0]	-999	PAL1	3	R1091N
2055.662	0.001	2628688	TEST_PROBE	n/a	5	1	DOCK	n/a	SNOW	DOCK	16	[0, 0, 0]	-999	PAL1	3	R1091N
2055.663	5.009	2628689	REC_START	n/a	5	-999	n/a	n/a	n/a	n/a	16	[0, 0, 0]	-999	PAL1	3	R1091N
2060.672	0.0	2633698	REC_EVENT	5009	5	1	DOCK	<>	SNOW	DOCK	16	[0, 0, 0]	-999	PAL1	3	R1091N
2060.672	0.008	2633698	REC_END	n/a	5	-999	n/a	n/a	n/a	n/a	16	[0, 0, 0]	-999	PAL1	3	R1091N
2060.68	0.85	2633706	TEST_ORIENT	n/a	4	2	EAR	n/a	EAR	TOOL	16	[0, 0, 0]	-999	PAL1	3	R1091N
2061.53	0.0	2634556	TEST_PROBE	n/a	4	2	EAR	n/a	EAR	TOOL	16	[0, 0, 0]	-999	PAL1	3	R1091N
2061.53	5.015	2634556	REC_START	n/a	4	-999	n/a	n/a	n/a	n/a	16	[0, 0, 0]	-999	PAL1	3	R1091N
2066.545	0.002	2639571	REC_EVENT	5015	4	2	EAR	<>	EAR	TOOL	16	[0, 0, 0]	-999	PAL1	3	R1091N
2066.547	0.017	2639573	REC_END	n/a	4	-999	n/a	n/a	n/a	n/a	16	[0, 0, 0]	-999	PAL1	3	R1091N
2066.564	0.85	2639590	TEST_ORIENT	n/a	1	3	PHONE	n/a	PHONE	LAMB	16	[0, 0, 0]	-999	PAL1	3	R1091N
2067.414	0.001	2640440	TEST_PROBE	n/a	1	3	PHONE	n/a	PHONE	LAMB	16	[0, 0, 0]	-999	PAL1	3	R1091N
2067.415	5.009	2640441	REC_START	n/a	1	-999	n/a	n/a	n/a	n/a	16	[0, 0, 0]	-999	PAL1	3	R1091N
2072.424	0.001	2645449	REC_EVENT	5009	1	3	PHONE	<>	PHONE	LAMB	16	[0, 0, 0]	-999	PAL1	3	R1091N
2072.425	0.007	2645450	REC_END	n/a	1	-999	n/a	n/a	n/a	n/a	16	[0, 0, 0]	-999	PAL1	3	R1091N
2072.432	0.833	2645457	TEST_ORIENT	n/a	6	4	SMOKE	n/a	SMOKE	TOOTH	16	[0, 0, 0]	-999	PAL1	3	R1091N
2073.265	0.001	2646290	TEST_PROBE	n/a	6	4	SMOKE	n/a	SMOKE	TOOTH	16	[0, 0, 0]	-999	PAL1	3	R1091N
2073.266	5.009	2646291	REC_START	n/a	6	-999	n/a	n/a	n/a	n/a	16	[0, 0, 0]	-999	PAL1	3	R1091N
2078.275	0.001	2651300	REC_EVENT	5009	6	4	SMOKE	<>	SMOKE	TOOTH	16	[0, 0, 0]	-999	PAL1	3	R1091N
2078.276	0.007	2651301	REC_END	n/a	6	-999	n/a	n/a	n/a	n/a	16	[0, 0, 0]	-999	PAL1	3	R1091N
2078.283	0.933	2651308	TEST_ORIENT	n/a	3	5	BOWL	n/a	PIN	BOWL	16	[0, 0, 0]	-999	PAL1	3	R1091N
2079.216	0.001	2652241	TEST_PROBE	n/a	3	5	BOWL	n/a	PIN	BOWL	16	[0, 0, 0]	-999	PAL1	3	R1091N
2079.217	5.009	2652242	REC_START	n/a	3	-999	n/a	n/a	n/a	n/a	16	[0, 0, 0]	-999	PAL1	3	R1091N
2084.226	0.0	2657251	REC_EVENT	5009	3	5	BOWL	<>	PIN	BOWL	16	[0, 0, 0]	-999	PAL1	3	R1091N
2084.226	0.008	2657251	REC_END	n/a	3	-999	n/a	n/a	n/a	n/a	16	[0, 0, 0]	-999	PAL1	3	R1091N
2084.234	0.95	2657259	TEST_ORIENT	n/a	2	6	PALM	n/a	BOX	PALM	16	[0, 0, 0]	-999	PAL1	3	R1091N
2085.184	0.0	2658209	TEST_PROBE	n/a	2	6	PALM	n/a	BOX	PALM	16	[0, 0, 0]	-999	PAL1	3	R1091N
2085.184	5.017	2658209	REC_START	n/a	2	-999	n/a	n/a	n/a	n/a	16	[0, 0, 0]	-999	PAL1	3	R1091N
2090.201	0.004	2663226	REC_END	n/a	2	-999	n/a	n/a	n/a	n/a	16	[0, 0, 0]	-999	PAL1	3	R1091N
2090.205	1.676	2663230	REC_EVENT	5021	2	6	PALM	<>	BOX	PALM	16	[0, 0, 0]	-999	PAL1	3	R1091N
2091.881	10.439	2664906	ENCODING_START	n/a	0	-999	n/a	n/a	n/a	n/a	17	[0, 0, 0]	-999	PAL1	3	R1091N
2102.32	0.833	2675344	STUDY_ORIENT	n/a	1	5	FUR	n/a	FUR	RAKE	17	[0, 0, 0]	-999	PAL1	3	R1091N
2103.153	5.035	2676177	STUDY_PAIR	n/a	1	5	FUR	n/a	FUR	RAKE	17	[0, 0, 0]	-999	PAL1	3	R1091N
2108.188	0.949	2681212	STUDY_ORIENT	n/a	2	2	FISH	n/a	BUSH	FISH	17	[0, 0, 0]	-999	PAL1	3	R1091N
2109.137	5.035	2682161	STUDY_PAIR	n/a	2	2	FISH	n/a	BUSH	FISH	17	[0, 0, 0]	-999	PAL1	3	R1091N
2114.172	0.834	2687196	STUDY_ORIENT	n/a	3	1	BEAK	n/a	BEAK	SUN	17	[0, 0, 0]	-999	PAL1	3	R1091N
2115.006	5.034	2688030	STUDY_PAIR	n/a	3	1	BEAK	n/a	BEAK	SUN	17	[0, 0, 0]	-999	PAL1	3	R1091N
2120.04	0.95	2693064	STUDY_ORIENT	n/a	4	4	SKUNK	n/a	ARM	SKUNK	17	[0, 0, 0]	-999	PAL1	3	R1091N
2120.99	5.034	2694014	STUDY_PAIR	n/a	4	4	SKUNK	n/a	ARM	SKUNK	17	[0, 0, 0]	-999	PAL1	3	R1091N
2126.024	0.934	2699047	STUDY_ORIENT	n/a	5	3	TEA	DART	DART	TEA	17	[0, 0, 0]	-999	PAL1	3	R1091N
2126.958	5.034	2699981	STUDY_PAIR	n/a	5	3	TEA	DART	DART	TEA	17	[0, 0, 0]	-999	PAL1	3	R1091N
2131.992	0.967	2705015	STUDY_ORIENT	n/a	6	6	DOG	n/a	ROPE	DOG	17	[0, 0, 0]	-999	PAL1	3	R1091N
2132.959	4.018	2705982	STUDY_PAIR	n/a	6	6	DOG	n/a	ROPE	DOG	17	[0, 0, 0]	-999	PAL1	3	R1091N
2136.977	0.999	2710000	START	n/a	-999	-999	n/a	n/a	n/a	n/a	17	[-999, -999, -999]	-999	PAL1	3	R1091N
2137.976	0.017	2710999	MATH_START	n/a	-999	-999	n/a	n/a	n/a	n/a	17	[0, 0, 0]	-999	PAL1	3	R1091N
2137.993	24.224	2711016	PROB	24224	-999	-999	n/a	n/a	n/a	n/a	17	[5, 9, 7]	19	PAL1	3	R1091N
2162.217	0.013	2735239	STOP	n/a	-999	-999	n/a	n/a	n/a	n/a	17	[-999, -999, -999]	-999	PAL1	3	R1091N
2162.23	0.0	2735252	MATH_END	n/a	-999	-999	n/a	n/a	n/a	n/a	17	[0, 0, 0]	-999	PAL1	3	R1091N
2162.23	0.017	2735252	TEST_START	n/a	-999	-999	n/a	n/a	n/a	n/a	17	[0, 0, 0]	-999	PAL1	3	R1091N
2162.247	1.034	2735269	TEST_ORIENT	n/a	3	1	BEAK	n/a	BEAK	SUN	17	[0, 0, 0]	-999	PAL1	3	R1091N
2163.281	0.0	2736303	REC_START	n/a	3	-999	n/a	n/a	n/a	n/a	17	[0, 0, 0]	-999	PAL1	3	R1091N
2163.281	5.015	2736303	TEST_PROBE	n/a	3	1	BEAK	n/a	BEAK	SUN	17	[0, 0, 0]	-999	PAL1	3	R1091N
2168.296	0.002	2741318	REC_EVENT	5015	3	1	BEAK	<>	BEAK	SUN	17	[0, 0, 0]	-999	PAL1	3	R1091N
2168.298	0.017	2741320	REC_END	n/a	3	-999	n/a	n/a	n/a	n/a	17	[0, 0, 0]	-999	PAL1	3	R1091N
2168.315	0.967	2741337	TEST_ORIENT	n/a	2	2	FISH	n/a	BUSH	FISH	17	[0, 0, 0]	-999	PAL1	3	R1091N
2169.282	0.0	2742304	TEST_PROBE	n/a	2	2	FISH	n/a	BUSH	FISH	17	[0, 0, 0]	-999	PAL1	3	R1091N
2169.282	5.015	2742304	REC_START	n/a	2	-999	n/a	n/a	n/a	n/a	17	[0, 0, 0]	-999	PAL1	3	R1091N
2174.297	0.002	2747319	REC_EVENT	5015	2	2	FISH	<>	BUSH	FISH	17	[0, 0, 0]	-999	PAL1	3	R1091N
2174.299	0.017	2747321	REC_END	n/a	2	-999	n/a	n/a	n/a	n/a	17	[0, 0, 0]	-999	PAL1	3	R1091N
2174.316	0.933	2747338	TEST_ORIENT	n/a	5	3	TEA	DART	DART	TEA	17	[0, 0, 0]	-999	PAL1	3	R1091N
2175.249	0.001	2748271	TEST_PROBE	n/a	5	3	TEA	DART	DART	TEA	17	[0, 0, 0]	-999	PAL1	3	R1091N
2175.25	1.482	2748272	REC_START	n/a	5	-999	n/a	DART	n/a	n/a	17	[0, 0, 0]	-999	PAL1	3	R1091N
2176.732	3.527	2749754	REC_EVENT	1482	5	3	TEA	DART	DART	TEA	17	[0, 0, 0]	-999	PAL1	3	R1091N
2180.259	0.008	2753281	REC_END	n/a	5	-999	n/a	n/a	n/a	n/a	17	[0, 0, 0]	-999	PAL1	3	R1091N
2180.267	0.8	2753289	TEST_ORIENT	n/a	4	4	SKUNK	n/a	ARM	SKUNK	17	[0, 0, 0]	-999	PAL1	3	R1091N
2181.067	0.0	2754088	TEST_PROBE	n/a	4	4	SKUNK	n/a	ARM	SKUNK	17	[0, 0, 0]	-999	PAL1	3	R1091N
2181.067	5.015	2754088	REC_START	n/a	4	-999	n/a	n/a	n/a	n/a	17	[0, 0, 0]	-999	PAL1	3	R1091N
2186.082	0.001	2759103	REC_EVENT	5015	4	4	SKUNK	<>	ARM	SKUNK	17	[0, 0, 0]	-999	PAL1	3	R1091N
2186.083	0.017	2759104	REC_END	n/a	4	-999	n/a	n/a	n/a	n/a	17	[0, 0, 0]	-999	PAL1	3	R1091N
2186.1	0.984	2759121	TEST_ORIENT	n/a	1	5	FUR	n/a	FUR	RAKE	17	[0, 0, 0]	-999	PAL1	3	R1091N
2187.084	0.0	2760105	TEST_PROBE	n/a	1	5	FUR	n/a	FUR	RAKE	17	[0, 0, 0]	-999	PAL1	3	R1091N
2187.084	5.017	2760105	REC_START	n/a	1	-999	n/a	n/a	n/a	n/a	17	[0, 0, 0]	-999	PAL1	3	R1091N
2192.101	0.004	2765122	REC_END	n/a	1	-999	n/a	n/a	n/a	n/a	17	[0, 0, 0]	-999	PAL1	3	R1091N
2192.105	0.013	2765126	REC_EVENT	5021	1	5	FUR	<>	FUR	RAKE	17	[0, 0, 0]	-999	PAL1	3	R1091N
2192.118	0.951	2765139	TEST_ORIENT	n/a	6	6	DOG	n/a	ROPE	DOG	17	[0, 0, 0]	-999	PAL1	3	R1091N
2193.069	0.0	2766090	TEST_PROBE	n/a	6	6	DOG	n/a	ROPE	DOG	17	[0, 0, 0]	-999	PAL1	3	R1091N
2193.069	5.015	2766090	REC_START	n/a	6	-999	n/a	n/a	n/a	n/a	17	[0, 0, 0]	-999	PAL1	3	R1091N
2198.084	0.001	2771105	REC_EVENT	5015	6	6	DOG	<>	ROPE	DOG	17	[0, 0, 0]	-999	PAL1	3	R1091N
2198.085	2.356	2771106	REC_END	n/a	6	-999	n/a	n/a	n/a	n/a	17	[0, 0, 0]	-999	PAL1	3	R1091N
2200.441	10.448	2773462	ENCODING_START	n/a	0	-999	n/a	n/a	n/a	n/a	18	[0, 0, 0]	-999	PAL1	3	R1091N
2210.889	0.9	2783909	STUDY_ORIENT	n/a	1	5	CROWN	n/a	CROWN	CAGE	18	[0, 0, 0]	-999	PAL1	3	R1091N
2211.789	5.034	2784809	STUDY_PAIR	n/a	1	5	CROWN	n/a	CROWN	CAGE	18	[0, 0, 0]	-999	PAL1	3	R1091N
2216.823	1.017	2789843	STUDY_ORIENT	n/a	2	4	BIRD	n/a	SHEET	BIRD	18	[0, 0, 0]	-999	PAL1	3	R1091N
2217.84	5.034	2790860	STUDY_PAIR	n/a	2	4	BIRD	n/a	SHEET	BIRD	18	[0, 0, 0]	-999	PAL1	3	R1091N
2222.874	0.866	2795894	STUDY_ORIENT	n/a	3	1	SIGN	n/a	STEAM	SIGN	18	[0, 0, 0]	-999	PAL1	3	R1091N
2223.74	5.018	2796760	STUDY_PAIR	n/a	3	1	SIGN	n/a	STEAM	SIGN	18	[0, 0, 0]	-999	PAL1	3	R1091N
2228.758	0.934	2801778	STUDY_ORIENT	n/a	4	2	TIE	n/a	TIE	STORE	18	[0, 0, 0]	-999	PAL1	3	R1091N
2229.692	5.034	2802712	STUDY_PAIR	n/a	4	2	TIE	n/a	TIE	STORE	18	[0, 0, 0]	-999	PAL1	3	R1091N
2234.726	1.017	2807746	STUDY_ORIENT	n/a	5	3	CHEEK	n/a	CHEEK	WING	18	[0, 0, 0]	-999	PAL1	3	R1091N
2235.743	5.034	2808762	STUDY_PAIR	n/a	5	3	CHEEK	n/a	CHEEK	WING	18	[0, 0, 0]	-999	PAL1	3	R1091N
2240.777	0.783	2813796	STUDY_ORIENT	n/a	6	6	BED	n/a	BED	APE	18	[0, 0, 0]	-999	PAL1	3	R1091N
2241.56	4.001	2814579	STUDY_PAIR	n/a	6	6	BED	n/a	BED	APE	18	[0, 0, 0]	-999	PAL1	3	R1091N
2245.561	1.0	2818580	START	n/a	-999	-999	n/a	n/a	n/a	n/a	18	[-999, -999, -999]	-999	PAL1	3	R1091N
2246.561	0.017	2819580	MATH_START	n/a	-999	-999	n/a	n/a	n/a	n/a	18	[0, 0, 0]	-999	PAL1	3	R1091N
2246.578	12.285	2819597	PROB	12255	-999	-999	n/a	n/a	n/a	n/a	18	[2, 9, 3]	14	PAL1	3	R1091N
2258.863	4.351	2831882	PROB	4322	-999	-999	n/a	n/a	n/a	n/a	18	[5, 6, 9]	20	PAL1	3	R1091N
2263.214	5.866	2836232	PROB	5866	-999	-999	n/a	n/a	n/a	n/a	18	[6, 1, 4]	11	PAL1	3	R1091N
2269.08	0.017	2842098	STOP	n/a	-999	-999	n/a	n/a	n/a	n/a	18	[-999, -999, -999]	-999	PAL1	3	R1091N
2269.097	0.0	2842115	MATH_END	n/a	-999	-999	n/a	n/a	n/a	n/a	18	[0, 0, 0]	-999	PAL1	3	R1091N
2269.097	0.017	2842115	TEST_START	n/a	-999	-999	n/a	n/a	n/a	n/a	18	[0, 0, 0]	-999	PAL1	3	R1091N
2269.114	0.984	2842132	TEST_ORIENT	n/a	3	1	SIGN	n/a	STEAM	SIGN	18	[0, 0, 0]	-999	PAL1	3	R1091N
2270.098	0.0	2843116	TEST_PROBE	n/a	3	1	SIGN	n/a	STEAM	SIGN	18	[0, 0, 0]	-999	PAL1	3	R1091N
2270.098	5.015	2843116	REC_START	n/a	3	-999	n/a	n/a	n/a	n/a	18	[0, 0, 0]	-999	PAL1	3	R1091N
2275.113	0.002	2848131	REC_EVENT	5015	3	1	SIGN	<>	STEAM	SIGN	18	[0, 0, 0]	-999	PAL1	3	R1091N
2275.115	0.017	2848133	REC_END	n/a	3	-999	n/a	n/a	n/a	n/a	18	[0, 0, 0]	-999	PAL1	3	R1091N
2275.132	0.801	2848150	TEST_ORIENT	n/a	4	2	TIE	n/a	TIE	STORE	18	[0, 0, 0]	-999	PAL1	3	R1091N
2275.933	0.0	2848951	TEST_PROBE	n/a	4	2	TIE	n/a	TIE	STORE	18	[0, 0, 0]	-999	PAL1	3	R1091N
2275.933	5.015	2848951	REC_START	n/a	4	-999	n/a	n/a	n/a	n/a	18	[0, 0, 0]	-999	PAL1	3	R1091N
2280.948	0.002	2853966	REC_EVENT	5015	4	2	TIE	<>	TIE	STORE	18	[0, 0, 0]	-999	PAL1	3	R1091N
2280.95	0.017	2853968	REC_END	n/a	4	-999	n/a	n/a	n/a	n/a	18	[0, 0, 0]	-999	PAL1	3	R1091N
2280.967	0.9	2853985	TEST_ORIENT	n/a	5	3	CHEEK	n/a	CHEEK	WING	18	[0, 0, 0]	-999	PAL1	3	R1091N
2281.867	0.001	2854885	TEST_PROBE	n/a	5	3	CHEEK	n/a	CHEEK	WING	18	[0, 0, 0]	-999	PAL1	3	R1091N
2281.868	5.009	2854886	REC_START	n/a	5	-999	n/a	n/a	n/a	n/a	18	[0, 0, 0]	-999	PAL1	3	R1091N
2286.877	0.001	2859895	REC_EVENT	5009	5	3	CHEEK	<>	CHEEK	WING	18	[0, 0, 0]	-999	PAL1	3	R1091N
2286.878	0.007	2859896	REC_END	n/a	5	-999	n/a	n/a	n/a	n/a	18	[0, 0, 0]	-999	PAL1	3	R1091N
2286.885	1.016	2859903	TEST_ORIENT	n/a	2	4	BIRD	n/a	SHEET	BIRD	18	[0, 0, 0]	-999	PAL1	3	R1091N
2287.901	0.001	2860919	TEST_PROBE	n/a	2	4	BIRD	n/a	SHEET	BIRD	18	[0, 0, 0]	-999	PAL1	3	R1091N
2287.902	4.998	2860920	REC_START	n/a	2	-999	n/a	n/a	n/a	n/a	18	[0, 0, 0]	-999	PAL1	3	R1091N
2292.9	0.002	2865917	REC_EVENT	4998	2	4	BIRD	<>	SHEET	BIRD	18	[0, 0, 0]	-999	PAL1	3	R1091N
2292.902	0.017	2865919	REC_END	n/a	2	-999	n/a	n/a	n/a	n/a	18	[0, 0, 0]	-999	PAL1	3	R1091N
2292.919	0.85	2865936	TEST_ORIENT	n/a	1	5	CROWN	n/a	CROWN	CAGE	18	[0, 0, 0]	-999	PAL1	3	R1091N
2293.769	0.001	2866786	TEST_PROBE	n/a	1	5	CROWN	n/a	CROWN	CAGE	18	[0, 0, 0]	-999	PAL1	3	R1091N
2293.77	5.003	2866787	REC_START	n/a	1	-999	n/a	n/a	n/a	n/a	18	[0, 0, 0]	-999	PAL1	3	R1091N
2298.773	0.006	2871790	REC_EVENT	5003	1	5	CROWN	<>	CROWN	CAGE	18	[0, 0, 0]	-999	PAL1	3	R1091N
2298.779	0.007	2871796	REC_END	n/a	1	-999	n/a	n/a	n/a	n/a	18	[0, 0, 0]	-999	PAL1	3	R1091N
2298.786	0.851	2871803	TEST_ORIENT	n/a	6	6	BED	n/a	BED	APE	18	[0, 0, 0]	-999	PAL1	3	R1091N
2299.637	0.0	2872654	REC_START	n/a	6	-999	n/a	n/a	n/a	n/a	18	[0, 0, 0]	-999	PAL1	3	R1091N
2299.637	5.027	2872654	TEST_PROBE	n/a	6	6	BED	n/a	BED	APE	18	[0, 0, 0]	-999	PAL1	3	R1091N
2304.664	0.0	2877681	REC_EVENT	5027	6	6	BED	<>	BED	APE	18	[0, 0, 0]	-999	PAL1	3	R1091N
2304.664	34.033	2877681	REC_END	n/a	6	-999	n/a	n/a	n/a	n/a	18	[0, 0, 0]	-999	PAL1	3	R1091N
2338.697	10.447	2911713	ENCODING_START	n/a	0	-999	n/a	n/a	n/a	n/a	19	[0, 0, 0]	-999	PAL1	3	R1091N
2349.144	0.967	2922159	STUDY_ORIENT	n/a	1	1	MOON	n/a	LAKE	MOON	19	[0, 0, 0]	-999	PAL1	3	R1091N
2350.111	5.034	2923126	STUDY_PAIR	n/a	1	1	MOON	n/a	LAKE	MOON	19	[0, 0, 0]	-999	PAL1	3	R1091N
2355.145	0.851	2928160	STUDY_ORIENT	n/a	2	2	MAZE	n/a	FLEA	MAZE	19	[0, 0, 0]	-999	PAL1	3	R1091N
2355.996	5.018	2929011	STUDY_PAIR	n/a	2	2	MAZE	n/a	FLEA	MAZE	19	[0, 0, 0]	-999	PAL1	3	R1091N
2361.014	0.95	2934029	STUDY_ORIENT	n/a	3	5	ELF	n/a	WORLD	ELF	19	[0, 0, 0]	-999	PAL1	3	R1091N
2361.964	5.034	2934979	STUDY_PAIR	n/a	3	5	ELF	n/a	WORLD	ELF	19	[0, 0, 0]	-999	PAL1	3	R1091N
2366.998	1.034	2940013	STUDY_ORIENT	n/a	4	4	PASTE	n/a	PASTE	SHIRT	19	[0, 0, 0]	-999	PAL1	3	R1091N
2368.032	5.034	2941047	STUDY_PAIR	n/a	4	4	PASTE	n/a	PASTE	SHIRT	19	[0, 0, 0]	-999	PAL1	3	R1091N
2373.066	0.983	2946080	STUDY_ORIENT	n/a	5	3	MOLE	n/a	RUG	MOLE	19	[0, 0, 0]	-999	PAL1	3	R1091N
2374.049	5.018	2947063	STUDY_PAIR	n/a	5	3	MOLE	n/a	RUG	MOLE	19	[0, 0, 0]	-999	PAL1	3	R1091N
2379.067	0.95	2952081	STUDY_ORIENT	n/a	6	6	PIT	SLUSH	SLUSH	PIT	19	[0, 0, 0]	-999	PAL1	3	R1091N
2380.017	4.001	2953031	STUDY_PAIR	n/a	6	6	PIT	SLUSH	SLUSH	PIT	19	[0, 0, 0]	-999	PAL1	3	R1091N
2384.018	1.0	2957032	START	n/a	-999	-999	n/a	n/a	n/a	n/a	19	[-999, -999, -999]	-999	PAL1	3	R1091N
2385.018	0.017	2958032	MATH_START	n/a	-999	-999	n/a	n/a	n/a	n/a	19	[0, 0, 0]	-999	PAL1	3	R1091N
2385.035	5.167	2958049	PROB	5142	-999	-999	n/a	n/a	n/a	n/a	19	[7, 8, 3]	18	PAL1	3	R1091N
2390.202	13.863	2963216	PROB	13863	-999	-999	n/a	n/a	n/a	n/a	19	[9, 9, 1]	19	PAL1	3	R1091N
2404.065	0.006	2977078	STOP	n/a	-999	-999	n/a	n/a	n/a	n/a	19	[-999, -999, -999]	-999	PAL1	3	R1091N
2404.071	0.0	2977084	TEST_START	n/a	-999	-999	n/a	n/a	n/a	n/a	19	[0, 0, 0]	-999	PAL1	3	R1091N
2404.071	0.016	2977084	MATH_END	n/a	-999	-999	n/a	n/a	n/a	n/a	19	[0, 0, 0]	-999	PAL1	3	R1091N
2404.087	0.884	2977100	TEST_ORIENT	n/a	1	1	MOON	n/a	LAKE	MOON	19	[0, 0, 0]	-999	PAL1	3	R1091N
2404.971	0.001	2977984	TEST_PROBE	n/a	1	1	MOON	n/a	LAKE	MOON	19	[0, 0, 0]	-999	PAL1	3	R1091N
2404.972	5.009	2977985	REC_START	n/a	1	-999	n/a	n/a	n/a	n/a	19	[0, 0, 0]	-999	PAL1	3	R1091N
2409.981	0.001	2982994	REC_EVENT	5009	1	1	MOON	<>	LAKE	MOON	19	[0, 0, 0]	-999	PAL1	3	R1091N
2409.982	0.007	2982995	REC_END	n/a	1	-999	n/a	n/a	n/a	n/a	19	[0, 0, 0]	-999	PAL1	3	R1091N
2409.989	0.983	2983002	TEST_ORIENT	n/a	2	2	MAZE	n/a	FLEA	MAZE	19	[0, 0, 0]	-999	PAL1	3	R1091N
2410.972	0.001	2983985	TEST_PROBE	n/a	2	2	MAZE	n/a	FLEA	MAZE	19	[0, 0, 0]	-999	PAL1	3	R1091N
2410.973	5.009	2983986	REC_START	n/a	2	-999	n/a	n/a	n/a	n/a	19	[0, 0, 0]	-999	PAL1	3	R1091N
2415.982	0.005	2988995	REC_EVENT	5009	2	2	MAZE	<>	FLEA	MAZE	19	[0, 0, 0]	-999	PAL1	3	R1091N
2415.987	0.02	2989000	REC_END	n/a	2	-999	n/a	n/a	n/a	n/a	19	[0, 0, 0]	-999	PAL1	3	R1091N
2416.007	0.983	2989020	TEST_ORIENT	n/a	5	3	MOLE	n/a	RUG	MOLE	19	[0, 0, 0]	-999	PAL1	3	R1091N
2416.99	0.001	2990003	TEST_PROBE	n/a	5	3	MOLE	n/a	RUG	MOLE	19	[0, 0, 0]	-999	PAL1	3	R1091N
2416.991	5.026	2990004	REC_START	n/a	5	-999	n/a	n/a	n/a	n/a	19	[0, 0, 0]	-999	PAL1	3	R1091N
2422.017	0.001	2995030	REC_END	n/a	5	-999	n/a	n/a	n/a	n/a	19	[0, 0, 0]	-999	PAL1	3	R1091N
2422.018	0.006	2995031	REC_EVENT	5027	5	3	MOLE	<>	RUG	MOLE	19	[0, 0, 0]	-999	PAL1	3	R1091N
2422.024	0.817	2995037	TEST_ORIENT	n/a	4	4	PASTE	n/a	PASTE	SHIRT	19	[0, 0, 0]	-999	PAL1	3	R1091N
2422.841	0.0	2995854	TEST_PROBE	n/a	4	4	PASTE	n/a	PASTE	SHIRT	19	[0, 0, 0]	-999	PAL1	3	R1091N
2422.841	5.015	2995854	REC_START	n/a	4	-999	n/a	n/a	n/a	n/a	19	[0, 0, 0]	-999	PAL1	3	R1091N
2427.856	0.002	3000868	REC_EVENT	5015	4	4	PASTE	<>	PASTE	SHIRT	19	[0, 0, 0]	-999	PAL1	3	R1091N
2427.858	0.017	3000870	REC_END	n/a	4	-999	n/a	n/a	n/a	n/a	19	[0, 0, 0]	-999	PAL1	3	R1091N
2427.875	0.95	3000887	TEST_ORIENT	n/a	3	5	ELF	n/a	WORLD	ELF	19	[0, 0, 0]	-999	PAL1	3	R1091N
2428.825	0.001	3001837	TEST_PROBE	n/a	3	5	ELF	n/a	WORLD	ELF	19	[0, 0, 0]	-999	PAL1	3	R1091N
2428.826	4.998	3001838	REC_START	n/a	3	-999	n/a	n/a	n/a	n/a	19	[0, 0, 0]	-999	PAL1	3	R1091N
2433.824	0.002	3006836	REC_EVENT	4998	3	5	ELF	<>	WORLD	ELF	19	[0, 0, 0]	-999	PAL1	3	R1091N
2433.826	0.017	3006838	REC_END	n/a	3	-999	n/a	n/a	n/a	n/a	19	[0, 0, 0]	-999	PAL1	3	R1091N
2433.843	0.85	3006855	TEST_ORIENT	n/a	6	6	PIT	SLUSH	SLUSH	PIT	19	[0, 0, 0]	-999	PAL1	3	R1091N
2434.693	0.0	3007705	REC_START	n/a	6	-999	n/a	SLUSH	n/a	n/a	19	[0, 0, 0]	-999	PAL1	3	R1091N
2434.693	3.04	3007705	TEST_PROBE	n/a	6	6	PIT	SLUSH	SLUSH	PIT	19	[0, 0, 0]	-999	PAL1	3	R1091N
2437.733	1.977	3010745	REC_EVENT	3040	6	6	PIT	SLUSH	SLUSH	PIT	19	[0, 0, 0]	-999	PAL1	3	R1091N
2439.71	2.219	3012722	REC_END	n/a	6	-999	n/a	n/a	n/a	n/a	19	[0, 0, 0]	-999	PAL1	3	R1091N
2441.929	10.45	3014941	ENCODING_START	n/a	0	-999	n/a	n/a	n/a	n/a	20	[0, 0, 0]	-999	PAL1	3	R1091N
2452.379	0.967	3025391	STUDY_ORIENT	n/a	1	5	WHEEL	n/a	WHEEL	THUMB	20	[0, 0, 0]	-999	PAL1	3	R1091N
2453.346	5.018	3026358	STUDY_PAIR	n/a	1	5	WHEEL	n/a	WHEEL	THUMB	20	[0, 0, 0]	-999	PAL1	3	R1091N
2458.364	0.983	3031375	STUDY_ORIENT	n/a	2	4	TRUCK	TRUCK	PEA	TRUCK	20	[0, 0, 0]	-999	PAL1	3	R1091N
2459.347	5.034	3032358	STUDY_PAIR	n/a	2	4	TRUCK	TRUCK	PEA	TRUCK	20	[0, 0, 0]	-999	PAL1	3	R1091N
2464.381	0.967	3037392	STUDY_ORIENT	n/a	3	3	WEB	n/a	EGG	WEB	20	[0, 0, 0]	-999	PAL1	3	R1091N
2465.348	5.018	3038359	STUDY_PAIR	n/a	3	3	WEB	n/a	EGG	WEB	20	[0, 0, 0]	-999	PAL1	3	R1091N
2470.366	0.833	3043377	STUDY_ORIENT	n/a	4	6	BREAD	n/a	BOOK	BREAD	20	[0, 0, 0]	-999	PAL1	3	R1091N
2471.199	5.034	3044210	STUDY_PAIR	n/a	4	6	BREAD	n/a	BOOK	BREAD	20	[0, 0, 0]	-999	PAL1	3	R1091N
2476.233	0.8	3049244	STUDY_ORIENT	n/a	5	1	MOOSE	n/a	MOOSE	TAIL	20	[0, 0, 0]	-999	PAL1	3	R1091N
2477.033	5.018	3050044	STUDY_PAIR	n/a	5	1	MOOSE	n/a	MOOSE	TAIL	20	[0, 0, 0]	-999	PAL1	3	R1091N
2482.051	0.784	3055062	STUDY_ORIENT	n/a	6	2	MILK	n/a	PIG	MILK	20	[0, 0, 0]	-999	PAL1	3	R1091N
2482.835	4.017	3055845	STUDY_PAIR	n/a	6	2	MILK	n/a	PIG	MILK	20	[0, 0, 0]	-999	PAL1	3	R1091N
2486.852	1.0	3059862	START	n/a	-999	-999	n/a	n/a	n/a	n/a	20	[-999, -999, -999]	-999	PAL1	3	R1091N
2487.852	0.017	3060862	MATH_START	n/a	-999	-999	n/a	n/a	n/a	n/a	20	[0, 0, 0]	-999	PAL1	3	R1091N
2487.869	4.3	3060879	PROB	4267	-999	-999	n/a	n/a	n/a	n/a	20	[9, 7, 2]	18	PAL1	3	R1091N
2492.169	5.051	3065179	PROB	5024	-999	-999	n/a	n/a	n/a	n/a	20	[4, 8, 6]	18	PAL1	3	R1091N
2497.22	2.834	3070230	PROB	2805	-999	-999	n/a	n/a	n/a	n/a	20	[2, 7, 3]	12	PAL1	3	R1091N
2500.054	27.315	3073064	PROB	27315	-999	-999	n/a	n/a	n/a	n/a	20	[7, 9, 6]	24	PAL1	3	R1091N
2527.369	0.006	3100378	STOP	n/a	-999	-999	n/a	n/a	n/a	n/a	20	[-999, -999, -999]	-999	PAL1	3	R1091N
2527.375	0.0	3100384	TEST_START	n/a	-999	-999	n/a	n/a	n/a	n/a	20	[0, 0, 0]	-999	PAL1	3	R1091N
2527.375	0.017	3100384	MATH_END	n/a	-999	-999	n/a	n/a	n/a	n/a	20	[0, 0, 0]	-999	PAL1	3	R1091N
2527.392	0.917	3100401	TEST_ORIENT	n/a	5	1	MOOSE	n/a	MOOSE	TAIL	20	[0, 0, 0]	-999	PAL1	3	R1091N
2528.309	0.0	3101318	TEST_PROBE	n/a	5	1	MOOSE	n/a	MOOSE	TAIL	20	[0, 0, 0]	-999	PAL1	3	R1091N
2528.309	5.015	3101318	REC_START	n/a	5	-999	n/a	n/a	n/a	n/a	20	[0, 0, 0]	-999	PAL1	3	R1091N
2533.324	0.002	3106333	REC_EVENT	5015	5	1	MOOSE	<>	MOOSE	TAIL	20	[0, 0, 0]	-999	PAL1	3	R1091N
2533.326	0.017	3106335	REC_END	n/a	5	-999	n/a	n/a	n/a	n/a	20	[0, 0, 0]	-999	PAL1	3	R1091N
2533.343	0.933	3106352	TEST_ORIENT	n/a	6	2	MILK	n/a	PIG	MILK	20	[0, 0, 0]	-999	PAL1	3	R1091N
2534.276	0.001	3107285	TEST_PROBE	n/a	6	2	MILK	n/a	PIG	MILK	20	[0, 0, 0]	-999	PAL1	3	R1091N
2534.277	5.009	3107286	REC_START	n/a	6	-999	n/a	n/a	n/a	n/a	20	[0, 0, 0]	-999	PAL1	3	R1091N
2539.286	0.0	3112294	REC_END	n/a	6	-999	n/a	n/a	n/a	n/a	20	[0, 0, 0]	-999	PAL1	3	R1091N
2539.286	0.008	3112294	REC_EVENT	5009	6	2	MILK	<>	PIG	MILK	20	[0, 0, 0]	-999	PAL1	3	R1091N
2539.294	0.866	3112302	TEST_ORIENT	n/a	3	3	WEB	n/a	EGG	WEB	20	[0, 0, 0]	-999	PAL1	3	R1091N
2540.16	0.0	3113168	TEST_PROBE	n/a	3	3	WEB	n/a	EGG	WEB	20	[0, 0, 0]	-999	PAL1	3	R1091N
2540.16	5.015	3113168	REC_START	n/a	3	-999	n/a	n/a	n/a	n/a	20	[0, 0, 0]	-999	PAL1	3	R1091N
2545.175	0.003	3118183	REC_EVENT	5015	3	3	WEB	<>	EGG	WEB	20	[0, 0, 0]	-999	PAL1	3	R1091N
2545.178	0.017	3118186	REC_END	n/a	3	-999	n/a	n/a	n/a	n/a	20	[0, 0, 0]	-999	PAL1	3	R1091N
2545.195	1.034	3118203	TEST_ORIENT	n/a	2	4	TRUCK	TRUCK	PEA	TRUCK	20	[0, 0, 0]	-999	PAL1	3	R1091N
2546.229	0.0	3119237	TEST_PROBE	n/a	2	4	TRUCK	TRUCK	PEA	TRUCK	20	[0, 0, 0]	-999	PAL1	3	R1091N
2546.229	1.495	3119237	REC_START	n/a	2	-999	n/a	TRUCK	n/a	n/a	20	[0, 0, 0]	-999	PAL1	3	R1091N
2547.724	3.522	3120732	REC_EVENT	1495	2	4	TRUCK	TRUCK	PEA	TRUCK	20	[0, 0, 0]	-999	PAL1	3	R1091N
2551.246	0.017	3124254	REC_END	n/a	2	-999	n/a	n/a	n/a	n/a	20	[0, 0, 0]	-999	PAL1	3	R1091N
2551.263	0.8	3124271	TEST_ORIENT	n/a	1	5	WHEEL	n/a	WHEEL	THUMB	20	[0, 0, 0]	-999	PAL1	3	R1091N
2552.063	0.0	3125071	TEST_PROBE	n/a	1	5	WHEEL	n/a	WHEEL	THUMB	20	[0, 0, 0]	-999	PAL1	3	R1091N
2552.063	5.015	3125071	REC_START	n/a	1	-999	n/a	n/a	n/a	n/a	20	[0, 0, 0]	-999	PAL1	3	R1091N
2557.078	0.001	3130086	REC_EVENT	5015	1	5	WHEEL	<>	WHEEL	THUMB	20	[0, 0, 0]	-999	PAL1	3	R1091N
2557.079	0.017	3130087	REC_END	n/a	1	-999	n/a	n/a	n/a	n/a	20	[0, 0, 0]	-999	PAL1	3	R1091N
2557.096	0.868	3130104	TEST_ORIENT	n/a	4	6	BREAD	n/a	BOOK	BREAD	20	[0, 0, 0]	-999	PAL1	3	R1091N
2557.964	0.0	3130972	REC_START	n/a	4	-999	n/a	n/a	n/a	n/a	20	[0, 0, 0]	-999	PAL1	3	R1091N
2557.964	5.015	3130972	TEST_PROBE	n/a	4	6	BREAD	n/a	BOOK	BREAD	20	[0, 0, 0]	-999	PAL1	3	R1091N
2562.979	0.002	3135987	REC_EVENT	5015	4	6	BREAD	<>	BOOK	BREAD	20	[0, 0, 0]	-999	PAL1	3	R1091N
2562.981	1.996	3135989	REC_END	n/a	4	-999	n/a	n/a	n/a	n/a	20	[0, 0, 0]	-999	PAL1	3	R1091N
2564.977	10.44	3137985	ENCODING_START	n/a	0	-999	n/a	n/a	n/a	n/a	21	[0, 0, 0]	-999	PAL1	3	R1091N
2575.417	0.883	3148424	STUDY_ORIENT	n/a	1	1	SINK	n/a	SLEEVE	SINK	21	[0, 0, 0]	-999	PAL1	3	R1091N
2576.3	5.018	3149307	STUDY_PAIR	n/a	1	1	SINK	n/a	SLEEVE	SINK	21	[0, 0, 0]	-999	PAL1	3	R1091N
2581.318	0.9	3154325	STUDY_ORIENT	n/a	2	2	CASH	n/a	LIP	CASH	21	[0, 0, 0]	-999	PAL1	3	R1091N
2582.218	5.034	3155225	STUDY_PAIR	n/a	2	2	CASH	n/a	LIP	CASH	21	[0, 0, 0]	-999	PAL1	3	R1091N
2587.252	0.899	3160259	STUDY_ORIENT	n/a	3	5	STRAW	n/a	STRAW	BOARD	21	[0, 0, 0]	-999	PAL1	3	R1091N
2588.151	5.019	3161158	STUDY_PAIR	n/a	3	5	STRAW	n/a	STRAW	BOARD	21	[0, 0, 0]	-999	PAL1	3	R1091N
2593.17	0.85	3166176	STUDY_ORIENT	n/a	4	6	FARM	n/a	FARM	LEAF	21	[0, 0, 0]	-999	PAL1	3	R1091N
2594.02	5.034	3167026	STUDY_PAIR	n/a	4	6	FARM	n/a	FARM	LEAF	21	[0, 0, 0]	-999	PAL1	3	R1091N
2599.054	0.817	3172060	STUDY_ORIENT	n/a	5	3	SALT	n/a	SALT	WHALE	21	[0, 0, 0]	-999	PAL1	3	R1091N
2599.871	5.034	3172877	STUDY_PAIR	n/a	5	3	SALT	n/a	SALT	WHALE	21	[0, 0, 0]	-999	PAL1	3	R1091N
2604.905	0.817	3177911	STUDY_ORIENT	n/a	6	4	BROOM	n/a	BROOM	BRICK	21	[0, 0, 0]	-999	PAL1	3	R1091N
2605.722	4.018	3178728	STUDY_PAIR	n/a	6	4	BROOM	n/a	BROOM	BRICK	21	[0, 0, 0]	-999	PAL1	3	R1091N
2609.74	0.999	3182746	START	n/a	-999	-999	n/a	n/a	n/a	n/a	21	[-999, -999, -999]	-999	PAL1	3	R1091N
2610.739	0.017	3183745	MATH_START	n/a	-999	-999	n/a	n/a	n/a	n/a	21	[0, 0, 0]	-999	PAL1	3	R1091N
2610.756	4.568	3183762	PROB	4533	-999	-999	n/a	n/a	n/a	n/a	21	[5, 8, 3]	16	PAL1	3	R1091N
2615.324	4.634	3188330	PROB	4613	-999	-999	n/a	n/a	n/a	n/a	21	[7, 2, 7]	16	PAL1	3	R1091N
2619.958	4.767	3192964	PROB	4747	-999	-999	n/a	n/a	n/a	n/a	21	[4, 7, 2]	13	PAL1	3	R1091N
2624.725	17.18	3197730	PROB	17180	-999	-999	n/a	n/a	n/a	n/a	21	[7, 9, 6]	22	PAL1	3	R1091N
2641.905	0.006	3214910	STOP	n/a	-999	-999	n/a	n/a	n/a	n/a	21	[-999, -999, -999]	-999	PAL1	3	R1091N
2641.911	0.0	3214916	TEST_START	n/a	-999	-999	n/a	n/a	n/a	n/a	21	[0, 0, 0]	-999	PAL1	3	R1091N
2641.911	0.017	3214916	MATH_END	n/a	-999	-999	n/a	n/a	n/a	n/a	21	[0, 0, 0]	-999	PAL1	3	R1091N
2641.928	0.967	3214933	TEST_ORIENT	n/a	1	1	SINK	n/a	SLEEVE	SINK	21	[0, 0, 0]	-999	PAL1	3	R1091N
2642.895	0.0	3215900	TEST_PROBE	n/a	1	1	SINK	n/a	SLEEVE	SINK	21	[0, 0, 0]	-999	PAL1	3	R1091N
2642.895	5.015	3215900	REC_START	n/a	1	-999	n/a	n/a	n/a	n/a	21	[0, 0, 0]	-999	PAL1	3	R1091N
2647.91	0.002	3220914	REC_EVENT	5015	1	1	SINK	<>	SLEEVE	SINK	21	[0, 0, 0]	-999	PAL1	3	R1091N
2647.912	0.017	3220916	REC_END	n/a	1	-999	n/a	n/a	n/a	n/a	21	[0, 0, 0]	-999	PAL1	3	R1091N
2647.929	1.017	3220933	TEST_ORIENT	n/a	2	2	CASH	n/a	LIP	CASH	21	[0, 0, 0]	-999	PAL1	3	R1091N
2648.946	0.0	3221950	TEST_PROBE	n/a	2	2	CASH	n/a	LIP	CASH	21	[0, 0, 0]	-999	PAL1	3	R1091N
2648.946	5.015	3221950	REC_START	n/a	2	-999	n/a	n/a	n/a	n/a	21	[0, 0, 0]	-999	PAL1	3	R1091N
2653.961	0.002	3226965	REC_EVENT	5015	2	2	CASH	<>	LIP	CASH	21	[0, 0, 0]	-999	PAL1	3	R1091N
2653.963	0.017	3226967	REC_END	n/a	2	-999	n/a	n/a	n/a	n/a	21	[0, 0, 0]	-999	PAL1	3	R1091N
2653.98	0.883	3226984	TEST_ORIENT	n/a	5	3	SALT	n/a	SALT	WHALE	21	[0, 0, 0]	-999	PAL1	3	R1091N
2654.863	0.001	3227867	TEST_PROBE	n/a	5	3	SALT	n/a	SALT	WHALE	21	[0, 0, 0]	-999	PAL1	3	R1091N
2654.864	5.009	3227868	REC_START	n/a	5	-999	n/a	n/a	n/a	n/a	21	[0, 0, 0]	-999	PAL1	3	R1091N
2659.873	0.0	3232877	REC_EVENT	5009	5	3	SALT	<>	SALT	WHALE	21	[0, 0, 0]	-999	PAL1	3	R1091N
2659.873	0.008	3232877	REC_END	n/a	5	-999	n/a	n/a	n/a	n/a	21	[0, 0, 0]	-999	PAL1	3	R1091N
2659.881	0.85	3232885	TEST_ORIENT	n/a	6	4	BROOM	n/a	BROOM	BRICK	21	[0, 0, 0]	-999	PAL1	3	R1091N
2660.731	0.001	3233735	TEST_PROBE	n/a	6	4	BROOM	n/a	BROOM	BRICK	21	[0, 0, 0]	-999	PAL1	3	R1091N
2660.732	5.016	3233736	REC_START	n/a	6	-999	n/a	n/a	n/a	n/a	21	[0, 0, 0]	-999	PAL1	3	R1091N
2665.748	0.005	3238752	REC_END	n/a	6	-999	n/a	n/a	n/a	n/a	21	[0, 0, 0]	-999	PAL1	3	R1091N
2665.753	0.012	3238757	REC_EVENT	5021	6	4	BROOM	<>	BROOM	BRICK	21	[0, 0, 0]	-999	PAL1	3	R1091N
2665.765	1.001	3238769	TEST_ORIENT	n/a	3	5	STRAW	n/a	STRAW	BOARD	21	[0, 0, 0]	-999	PAL1	3	R1091N
2666.766	0.0	3239770	TEST_PROBE	n/a	3	5	STRAW	n/a	STRAW	BOARD	21	[0, 0, 0]	-999	PAL1	3	R1091N
