onset	duration	sample	trial_type	response_time	stim_file	serialpos	probepos	probe_word	resp_word	study_1	study_2	list	test	answer	experiment	session	subject
0.0	124.166	9500	SESS_START	n/a	n/a	-999	-999	n/a	n/a	n/a	n/a	-999	[0, 0, 0]	-999	PAL1	3	R1263C
124.166	1.017	71578	START	n/a	n/a	-999	-999	n/a	n/a	n/a	n/a	-1	[-999, -999, -999]	-999	PAL1	3	R1263C
125.183	6.718	72087	PROB	6686.0	n/a	-999	-999	n/a	n/a	n/a	n/a	-1	[9, 3, 8]	20	PAL1	3	R1263C
131.901	5.134	75445	PROB	5104.0	n/a	-999	-999	n/a	n/a	n/a	n/a	-1	[2, 8, 1]	11	PAL1	3	R1263C
137.035	3.717	78012	PROB	3690.0	n/a	-999	-999	n/a	n/a	n/a	n/a	-1	[1, 9, 3]	13	PAL1	3	R1263C
140.752	5.157	79871	PROB	5157.0	n/a	-999	-999	n/a	n/a	n/a	n/a	-1	[9, 7, 3]	19	PAL1	3	R1263C
145.909	39.824	82449	STOP	n/a	n/a	-999	-999	n/a	n/a	n/a	n/a	-1	[-999, -999, -999]	-999	PAL1	3	R1263C
185.733	10.447	102360	ENCODING_START	n/a	n/a	0	-999	n/a	n/a	n/a	n/a	1	[0, 0, 0]	-999	PAL1	3	R1263C
196.18	0.275	107583	STUDY_ORIENT	n/a	n/a	1	3	CLOCK	n/a	TRAIN	CLOCK	1	[0, 0, 0]	-999	PAL1	3	R1263C
197.13	4.0	108058	STUDY_PAIR	n/a	wordpools/wordpool_EN.txt	1	3	CLOCK	n/a	TRAIN	CLOCK	1	[0, 0, 0]	-999	PAL1	3	R1263C
202.164	0.275	110574	STUDY_ORIENT	n/a	n/a	2	2	LAKE	FOOT	LAKE	FOOT	1	[0, 0, 0]	-999	PAL1	3	R1263C
203.098	4.0	111041	STUDY_PAIR	n/a	wordpools/wordpool_EN.txt	2	2	LAKE	FOOT	LAKE	FOOT	1	[0, 0, 0]	-999	PAL1	3	R1263C
208.132	0.275	113558	STUDY_ORIENT	n/a	n/a	3	1	STOOL	STORE	STORE	STOOL	1	[0, 0, 0]	-999	PAL1	3	R1263C
209.082	4.0	114033	STUDY_PAIR	n/a	wordpools/wordpool_EN.txt	3	1	STOOL	STORE	STORE	STOOL	1	[0, 0, 0]	-999	PAL1	3	R1263C
214.1	0.275	116542	STUDY_ORIENT	n/a	n/a	4	6	GOAT	NAIL	GOAT	NAIL	1	[0, 0, 0]	-999	PAL1	3	R1263C
214.9	4.0	116942	STUDY_PAIR	n/a	wordpools/wordpool_EN.txt	4	6	GOAT	NAIL	GOAT	NAIL	1	[0, 0, 0]	-999	PAL1	3	R1263C
219.934	0.275	119459	STUDY_ORIENT	n/a	n/a	5	5	TRASH	FENCE	TRASH	FENCE	1	[0, 0, 0]	-999	PAL1	3	R1263C
220.901	4.0	119942	STUDY_PAIR	n/a	wordpools/wordpool_EN.txt	5	5	TRASH	FENCE	TRASH	FENCE	1	[0, 0, 0]	-999	PAL1	3	R1263C
225.935	0.275	122459	STUDY_ORIENT	n/a	n/a	6	4	TOOL	BEAR	TOOL	BEAR	1	[0, 0, 0]	-999	PAL1	3	R1263C
226.952	4.0	122968	STUDY_PAIR	n/a	wordpools/wordpool_EN.txt	6	4	TOOL	BEAR	TOOL	BEAR	1	[0, 0, 0]	-999	PAL1	3	R1263C
230.954	0.999	124968	START	n/a	n/a	-999	-999	n/a	n/a	n/a	n/a	1	[-999, -999, -999]	-999	PAL1	3	R1263C
231.953	0.017	125468	MATH_START	n/a	n/a	-999	-999	n/a	n/a	n/a	n/a	1	[0, 0, 0]	-999	PAL1	3	R1263C
231.97	3.684	125476	PROB	3659.0	n/a	-999	-999	n/a	n/a	n/a	n/a	1	[3, 2, 1]	6	PAL1	3	R1263C
235.654	9.752	127318	PROB	9727.0	n/a	-999	-999	n/a	n/a	n/a	n/a	1	[8, 2, 3]	13	PAL1	3	R1263C
245.406	7.087	132194	PROB	7087.0	n/a	-999	-999	n/a	n/a	n/a	n/a	1	[6, 3, 5]	14	PAL1	3	R1263C
252.493	0.013	135737	STOP	n/a	n/a	-999	-999	n/a	n/a	n/a	n/a	1	[-999, -999, -999]	-999	PAL1	3	R1263C
252.506	0.0	135744	MATH_END	n/a	n/a	-999	-999	n/a	n/a	n/a	n/a	1	[0, 0, 0]	-999	PAL1	3	R1263C
252.506	0.017	135744	TEST_START	n/a	n/a	-999	-999	n/a	n/a	n/a	n/a	1	[0, 0, 0]	-999	PAL1	3	R1263C
252.523	0.275	135752	TEST_ORIENT	n/a	n/a	3	1	STOOL	STORE	STORE	STOOL	1	[0, 0, 0]	-999	PAL1	3	R1263C
253.457	4.0	136219	TEST_PROBE	n/a	wordpools/wordpool_EN.txt	3	1	STOOL	STORE	STORE	STOOL	1	[0, 0, 0]	-999	PAL1	3	R1263C
253.458	1.942	136220	REC_START	n/a	n/a	3	-999	n/a	STORE	n/a	n/a	1	[0, 0, 0]	-999	PAL1	3	R1263C
255.4	0.325	137191	REC_EVENT	1942.0	n/a	3	1	STOOL	STORE	STORE	STOOL	1	[0, 0, 0]	-999	PAL1	3	R1263C
255.725	2.741	137353	REC_EVENT	2267.0	n/a	3	1	STOOL	<>	STORE	STOOL	1	[0, 0, 0]	-999	PAL1	3	R1263C
258.466	0.009	138724	REC_END	n/a	n/a	3	-999	n/a	n/a	n/a	n/a	1	[0, 0, 0]	-999	PAL1	3	R1263C
258.475	0.275	138728	TEST_ORIENT	n/a	n/a	2	2	LAKE	FOOT	LAKE	FOOT	1	[0, 0, 0]	-999	PAL1	3	R1263C
259.425	4.0	139203	TEST_PROBE	n/a	wordpools/wordpool_EN.txt	2	2	LAKE	FOOT	LAKE	FOOT	1	[0, 0, 0]	-999	PAL1	3	R1263C
259.426	0.969	139203	REC_START	n/a	n/a	2	-999	n/a	FOOT	n/a	n/a	1	[0, 0, 0]	-999	PAL1	3	R1263C
260.395	0.682	139688	REC_EVENT	969.0	n/a	2	2	LAKE	FOOT	LAKE	FOOT	1	[0, 0, 0]	-999	PAL1	3	R1263C
261.077	3.374	140029	REC_EVENT	1651.0	n/a	2	2	LAKE	<>	LAKE	FOOT	1	[0, 0, 0]	-999	PAL1	3	R1263C
264.451	0.008	141716	REC_END	n/a	n/a	2	-999	n/a	n/a	n/a	n/a	1	[0, 0, 0]	-999	PAL1	3	R1263C
264.459	0.275	141720	TEST_ORIENT	n/a	n/a	1	3	CLOCK	n/a	TRAIN	CLOCK	1	[0, 0, 0]	-999	PAL1	3	R1263C
265.343	4.0	142162	TEST_PROBE	n/a	wordpools/wordpool_EN.txt	1	3	CLOCK	n/a	TRAIN	CLOCK	1	[0, 0, 0]	-999	PAL1	3	R1263C
265.343	2.319	142162	REC_START	n/a	n/a	1	-999	n/a	n/a	n/a	n/a	1	[0, 0, 0]	-999	PAL1	3	R1263C
267.662	0.116	143321	REC_EVENT	2319.0	n/a	1	3	CLOCK	<>	TRAIN	CLOCK	1	[0, 0, 0]	-999	PAL1	3	R1263C
267.778	1.084	143379	REC_EVENT	2435.0	n/a	1	3	CLOCK	<>	TRAIN	CLOCK	1	[0, 0, 0]	-999	PAL1	3	R1263C
268.862	1.0	143921	REC_EVENT	3519.0	n/a	1	3	CLOCK	<>	TRAIN	CLOCK	1	[0, 0, 0]	-999	PAL1	3	R1263C
269.862	0.506	144421	REC_EVENT	4519.0	n/a	1	3	CLOCK	<>	TRAIN	CLOCK	1	[0, 0, 0]	-999	PAL1	3	R1263C
270.368	0.009	144674	REC_END	n/a	n/a	1	-999	n/a	n/a	n/a	n/a	1	[0, 0, 0]	-999	PAL1	3	R1263C
270.377	0.275	144679	TEST_ORIENT	n/a	n/a	6	4	TOOL	BEAR	TOOL	BEAR	1	[0, 0, 0]	-999	PAL1	3	R1263C
271.327	4.0	145154	TEST_PROBE	n/a	wordpools/wordpool_EN.txt	6	4	TOOL	BEAR	TOOL	BEAR	1	[0, 0, 0]	-999	PAL1	3	R1263C
271.328	3.895	145154	REC_START	n/a	n/a	6	-999	n/a	BEAR	n/a	n/a	1	[0, 0, 0]	-999	PAL1	3	R1263C
275.223	0.539	147101	REC_EVENT	3895.0	n/a	6	4	TOOL	BEAR	TOOL	BEAR	1	[0, 0, 0]	-999	PAL1	3	R1263C
275.762	0.574	147371	REC_EVENT	4434.0	n/a	6	4	TOOL	<>	TOOL	BEAR	1	[0, 0, 0]	-999	PAL1	3	R1263C
276.336	0.009	147658	REC_END	n/a	n/a	6	-999	n/a	n/a	n/a	n/a	1	[0, 0, 0]	-999	PAL1	3	R1263C
276.345	0.275	147662	TEST_ORIENT	n/a	n/a	5	5	TRASH	FENCE	TRASH	FENCE	1	[0, 0, 0]	-999	PAL1	3	R1263C
277.329	4.0	148154	TEST_PROBE	n/a	wordpools/wordpool_EN.txt	5	5	TRASH	FENCE	TRASH	FENCE	1	[0, 0, 0]	-999	PAL1	3	R1263C
277.329	1.216	148154	REC_START	n/a	n/a	5	-999	n/a	FENCE	n/a	n/a	1	[0, 0, 0]	-999	PAL1	3	R1263C
278.545	0.856	148762	REC_EVENT	1216.0	n/a	5	5	TRASH	FENCE	TRASH	FENCE	1	[0, 0, 0]	-999	PAL1	3	R1263C
279.401	2.945	149190	REC_EVENT	2072.0	n/a	5	5	TRASH	<>	TRASH	FENCE	1	[0, 0, 0]	-999	PAL1	3	R1263C
282.346	0.017	150663	REC_END	n/a	n/a	5	-999	n/a	n/a	n/a	n/a	1	[0, 0, 0]	-999	PAL1	3	R1263C
282.363	0.275	150671	TEST_ORIENT	n/a	n/a	4	6	GOAT	NAIL	GOAT	NAIL	1	[0, 0, 0]	-999	PAL1	3	R1263C
283.313	4.0	151146	TEST_PROBE	n/a	wordpools/wordpool_EN.txt	4	6	GOAT	NAIL	GOAT	NAIL	1	[0, 0, 0]	-999	PAL1	3	R1263C
283.313	1.069	151146	REC_START	n/a	n/a	4	-999	n/a	NAIL	n/a	n/a	1	[0, 0, 0]	-999	PAL1	3	R1263C
284.382	0.646	151681	REC_EVENT	1069.0	n/a	4	6	GOAT	NAIL	GOAT	NAIL	1	[0, 0, 0]	-999	PAL1	3	R1263C
285.028	3.302	152004	REC_EVENT	1715.0	n/a	4	6	GOAT	<>	GOAT	NAIL	1	[0, 0, 0]	-999	PAL1	3	R1263C
288.33	1.563	153654	REC_END	n/a	n/a	4	-999	n/a	n/a	n/a	n/a	1	[0, 0, 0]	-999	PAL1	3	R1263C
289.893	10.44	154436	ENCODING_START	n/a	n/a	0	-999	n/a	n/a	n/a	n/a	2	[0, 0, 0]	-999	PAL1	3	R1263C
300.333	0.275	159656	STUDY_ORIENT	n/a	n/a	1	3	CUBE	ICE	ICE	CUBE	2	[0, 0, 0]	-999	PAL1	3	R1263C
301.249	4.0	160114	STUDY_PAIR	n/a	wordpools/wordpool_EN.txt	1	3	CUBE	ICE	ICE	CUBE	2	[0, 0, 0]	-999	PAL1	3	R1263C
306.267	0.275	162622	STUDY_ORIENT	n/a	n/a	2	6	ROOF	FLAME	FLAME	ROOF	2	[0, 0, 0]	-999	PAL1	3	R1263C
307.268	4.0	163123	STUDY_PAIR	n/a	wordpools/wordpool_EN.txt	2	6	ROOF	FLAME	FLAME	ROOF	2	[0, 0, 0]	-999	PAL1	3	R1263C
312.302	0.275	165640	STUDY_ORIENT	n/a	n/a	3	5	CLOUD	n/a	CLOUD	CASH	2	[0, 0, 0]	-999	PAL1	3	R1263C
313.285	4.0	166131	STUDY_PAIR	n/a	wordpools/wordpool_EN.txt	3	5	CLOUD	n/a	CLOUD	CASH	2	[0, 0, 0]	-999	PAL1	3	R1263C
318.303	0.275	168640	STUDY_ORIENT	n/a	n/a	4	2	KITE	BEAN	BEAN	KITE	2	[0, 0, 0]	-999	PAL1	3	R1263C
319.17	4.0	169073	STUDY_PAIR	n/a	wordpools/wordpool_EN.txt	4	2	KITE	BEAN	BEAN	KITE	2	[0, 0, 0]	-999	PAL1	3	R1263C
324.204	0.275	171590	STUDY_ORIENT	n/a	n/a	5	1	DOCK	n/a	SHEEP	DOCK	2	[0, 0, 0]	-999	PAL1	3	R1263C
325.154	4.0	172065	STUDY_PAIR	n/a	wordpools/wordpool_EN.txt	5	1	DOCK	n/a	SHEEP	DOCK	2	[0, 0, 0]	-999	PAL1	3	R1263C
330.172	0.275	174574	STUDY_ORIENT	n/a	n/a	6	4	SPOON	TOY	SPOON	TOY	2	[0, 0, 0]	-999	PAL1	3	R1263C
330.989	4.0	174982	STUDY_PAIR	n/a	wordpools/wordpool_EN.txt	6	4	SPOON	TOY	SPOON	TOY	2	[0, 0, 0]	-999	PAL1	3	R1263C
335.007	0.999	176991	START	n/a	n/a	-999	-999	n/a	n/a	n/a	n/a	2	[-999, -999, -999]	-999	PAL1	3	R1263C
336.006	0.017	177491	MATH_START	n/a	n/a	-999	-999	n/a	n/a	n/a	n/a	2	[0, 0, 0]	-999	PAL1	3	R1263C
336.023	6.068	177499	PROB	6046.0	n/a	-999	-999	n/a	n/a	n/a	n/a	2	[8, 8, 8]	24	PAL1	3	R1263C
342.091	12.552	180533	PROB	12522.0	n/a	-999	-999	n/a	n/a	n/a	n/a	2	[5, 8, 6]	19	PAL1	3	R1263C
354.643	15.881	186809	PROB	15881.0	n/a	-999	-999	n/a	n/a	n/a	n/a	2	[7, 8, 6]	23	PAL1	3	R1263C
370.524	0.005	194749	STOP	n/a	n/a	-999	-999	n/a	n/a	n/a	n/a	2	[-999, -999, -999]	-999	PAL1	3	R1263C
370.529	0.0	194751	TEST_START	n/a	n/a	-999	-999	n/a	n/a	n/a	n/a	2	[0, 0, 0]	-999	PAL1	3	R1263C
370.529	0.016	194751	MATH_END	n/a	n/a	-999	-999	n/a	n/a	n/a	n/a	2	[0, 0, 0]	-999	PAL1	3	R1263C
370.545	0.275	194759	TEST_ORIENT	n/a	n/a	5	1	DOCK	n/a	SHEEP	DOCK	2	[0, 0, 0]	-999	PAL1	3	R1263C
371.463	4.0	195218	TEST_PROBE	n/a	wordpools/wordpool_EN.txt	5	1	DOCK	n/a	SHEEP	DOCK	2	[0, 0, 0]	-999	PAL1	3	R1263C
371.465	1.219	195219	REC_START	n/a	n/a	5	-999	n/a	n/a	n/a	n/a	2	[0, 0, 0]	-999	PAL1	3	R1263C
372.684	1.0	195828	REC_EVENT	1219.0	n/a	5	1	DOCK	<>	SHEEP	DOCK	2	[0, 0, 0]	-999	PAL1	3	R1263C
373.684	2.78	196328	REC_EVENT	2219.0	n/a	5	1	DOCK	<>	SHEEP	DOCK	2	[0, 0, 0]	-999	PAL1	3	R1263C
376.464	0.017	197718	REC_END	n/a	n/a	5	-999	n/a	n/a	n/a	n/a	2	[0, 0, 0]	-999	PAL1	3	R1263C
376.481	0.275	197727	TEST_ORIENT	n/a	n/a	4	2	KITE	BEAN	BEAN	KITE	2	[0, 0, 0]	-999	PAL1	3	R1263C
377.464	4.0	198218	TEST_PROBE	n/a	wordpools/wordpool_EN.txt	4	2	KITE	BEAN	BEAN	KITE	2	[0, 0, 0]	-999	PAL1	3	R1263C
377.465	2.037	198219	REC_START	n/a	n/a	4	-999	n/a	BEAN	n/a	n/a	2	[0, 0, 0]	-999	PAL1	3	R1263C
379.502	0.589	199237	REC_EVENT	2037.0	n/a	4	2	KITE	BEAN	BEAN	KITE	2	[0, 0, 0]	-999	PAL1	3	R1263C
380.091	2.383	199532	REC_EVENT	2626.0	n/a	4	2	KITE	<>	BEAN	KITE	2	[0, 0, 0]	-999	PAL1	3	R1263C
382.474	0.008	200723	REC_END	n/a	n/a	4	-999	n/a	n/a	n/a	n/a	2	[0, 0, 0]	-999	PAL1	3	R1263C
382.482	0.275	200727	TEST_ORIENT	n/a	n/a	1	3	CUBE	ICE	ICE	CUBE	2	[0, 0, 0]	-999	PAL1	3	R1263C
383.299	4.0	201136	TEST_PROBE	n/a	wordpools/wordpool_EN.txt	1	3	CUBE	ICE	ICE	CUBE	2	[0, 0, 0]	-999	PAL1	3	R1263C
383.299	1.221	201136	REC_START	n/a	n/a	1	-999	n/a	ICE	n/a	n/a	2	[0, 0, 0]	-999	PAL1	3	R1263C
384.52	0.631	201746	REC_EVENT	1221.0	n/a	1	3	CUBE	ICE	ICE	CUBE	2	[0, 0, 0]	-999	PAL1	3	R1263C
385.151	3.165	202062	REC_EVENT	1852.0	n/a	1	3	CUBE	<>	ICE	CUBE	2	[0, 0, 0]	-999	PAL1	3	R1263C
388.316	0.017	203644	REC_END	n/a	n/a	1	-999	n/a	n/a	n/a	n/a	2	[0, 0, 0]	-999	PAL1	3	R1263C
388.333	0.275	203652	TEST_ORIENT	n/a	n/a	6	4	SPOON	TOY	SPOON	TOY	2	[0, 0, 0]	-999	PAL1	3	R1263C
389.167	0.0	204069	REC_START	n/a	n/a	6	-999	n/a	TOY	n/a	n/a	2	[0, 0, 0]	-999	PAL1	3	R1263C
389.167	4.0	204069	TEST_PROBE	n/a	wordpools/wordpool_EN.txt	6	4	SPOON	TOY	SPOON	TOY	2	[0, 0, 0]	-999	PAL1	3	R1263C
390.701	0.63	204836	REC_EVENT	1534.0	n/a	6	4	SPOON	TOY	SPOON	TOY	2	[0, 0, 0]	-999	PAL1	3	R1263C
391.331	2.853	205151	REC_EVENT	2164.0	n/a	6	4	SPOON	<>	SPOON	TOY	2	[0, 0, 0]	-999	PAL1	3	R1263C
394.184	0.017	206578	REC_END	n/a	n/a	6	-999	n/a	n/a	n/a	n/a	2	[0, 0, 0]	-999	PAL1	3	R1263C
394.201	0.275	206586	TEST_ORIENT	n/a	n/a	3	5	CLOUD	n/a	CLOUD	CASH	2	[0, 0, 0]	-999	PAL1	3	R1263C
395.018	4.0	206995	TEST_PROBE	n/a	wordpools/wordpool_EN.txt	3	5	CLOUD	n/a	CLOUD	CASH	2	[0, 0, 0]	-999	PAL1	3	R1263C
395.018	0.0	206995	REC_START	n/a	n/a	3	-999	n/a	n/a	n/a	n/a	2	[0, 0, 0]	-999	PAL1	3	R1263C
395.018	1.0	206995	REC_EVENT	0.0	n/a	3	5	CLOUD	<>	CLOUD	CASH	2	[0, 0, 0]	-999	PAL1	3	R1263C
396.018	4.025	207495	REC_EVENT	1000.0	n/a	3	5	CLOUD	<>	CLOUD	CASH	2	[0, 0, 0]	-999	PAL1	3	R1263C
400.043	0.009	209507	REC_END	n/a	n/a	3	-999	n/a	n/a	n/a	n/a	2	[0, 0, 0]	-999	PAL1	3	R1263C
400.052	0.275	209512	TEST_ORIENT	n/a	n/a	2	6	ROOF	FLAME	FLAME	ROOF	2	[0, 0, 0]	-999	PAL1	3	R1263C
401.035	4.0	210003	TEST_PROBE	n/a	wordpools/wordpool_EN.txt	2	6	ROOF	FLAME	FLAME	ROOF	2	[0, 0, 0]	-999	PAL1	3	R1263C
401.036	1.139	210003	REC_START	n/a	n/a	2	-999	n/a	FLAME	n/a	n/a	2	[0, 0, 0]	-999	PAL1	3	R1263C
402.175	0.68	210573	REC_EVENT	1139.0	n/a	2	6	ROOF	FLAME	FLAME	ROOF	2	[0, 0, 0]	-999	PAL1	3	R1263C
402.855	3.189	210913	REC_EVENT	1819.0	n/a	2	6	ROOF	<>	FLAME	ROOF	2	[0, 0, 0]	-999	PAL1	3	R1263C
406.044	1.553	212507	REC_END	n/a	n/a	2	-999	n/a	n/a	n/a	n/a	2	[0, 0, 0]	-999	PAL1	3	R1263C
407.597	10.442	213284	ENCODING_START	n/a	n/a	0	-999	n/a	n/a	n/a	n/a	3	[0, 0, 0]	-999	PAL1	3	R1263C
418.039	0.275	218504	STUDY_ORIENT	n/a	n/a	1	3	SEAT	PARK	PARK	SEAT	3	[0, 0, 0]	-999	PAL1	3	R1263C
418.989	4.0	218979	STUDY_PAIR	n/a	wordpools/wordpool_EN.txt	1	3	SEAT	PARK	PARK	SEAT	3	[0, 0, 0]	-999	PAL1	3	R1263C
424.023	0.275	221496	STUDY_ORIENT	n/a	n/a	2	6	GATE	n/a	LEAF	GATE	3	[0, 0, 0]	-999	PAL1	3	R1263C
424.973	4.0	221971	STUDY_PAIR	n/a	wordpools/wordpool_EN.txt	2	6	GATE	n/a	LEAF	GATE	3	[0, 0, 0]	-999	PAL1	3	R1263C
429.991	0.275	224480	STUDY_ORIENT	n/a	n/a	3	5	CAR	SPEAR	SPEAR	CAR	3	[0, 0, 0]	-999	PAL1	3	R1263C
430.924	4.0	224946	STUDY_PAIR	n/a	wordpools/wordpool_EN.txt	3	5	CAR	SPEAR	SPEAR	CAR	3	[0, 0, 0]	-999	PAL1	3	R1263C
435.942	0.275	227455	STUDY_ORIENT	n/a	n/a	4	2	TOAST	n/a	CHEEK	TOAST	3	[0, 0, 0]	-999	PAL1	3	R1263C
436.909	4.0	227939	STUDY_PAIR	n/a	wordpools/wordpool_EN.txt	4	2	TOAST	n/a	CHEEK	TOAST	3	[0, 0, 0]	-999	PAL1	3	R1263C
441.943	0.275	230456	STUDY_ORIENT	n/a	n/a	5	1	JEEP	BADGE	JEEP	BADGE	3	[0, 0, 0]	-999	PAL1	3	R1263C
442.827	4.0	230898	STUDY_PAIR	n/a	wordpools/wordpool_EN.txt	5	1	JEEP	BADGE	JEEP	BADGE	3	[0, 0, 0]	-999	PAL1	3	R1263C
447.861	0.275	233414	STUDY_ORIENT	n/a	n/a	6	4	FRUIT	FLOOR	FRUIT	FLOOR	3	[0, 0, 0]	-999	PAL1	3	R1263C
448.861	4.0	233914	STUDY_PAIR	n/a	wordpools/wordpool_EN.txt	6	4	FRUIT	FLOOR	FRUIT	FLOOR	3	[0, 0, 0]	-999	PAL1	3	R1263C
452.862	1.0	235915	START	n/a	n/a	-999	-999	n/a	n/a	n/a	n/a	3	[-999, -999, -999]	-999	PAL1	3	R1263C
453.862	0.017	236415	MATH_START	n/a	n/a	-999	-999	n/a	n/a	n/a	n/a	3	[0, 0, 0]	-999	PAL1	3	R1263C
453.879	4.084	236423	PROB	4054.0	n/a	-999	-999	n/a	n/a	n/a	n/a	3	[1, 4, 3]	8	PAL1	3	R1263C
457.963	5.835	238465	PROB	5802.0	n/a	-999	-999	n/a	n/a	n/a	n/a	3	[8, 2, 3]	13	PAL1	3	R1263C
463.798	7.268	241382	PROB	7239.0	n/a	-999	-999	n/a	n/a	n/a	n/a	3	[1, 7, 5]	13	PAL1	3	R1263C
471.066	5.195	245016	PROB	5195.0	n/a	-999	-999	n/a	n/a	n/a	n/a	3	[1, 8, 8]	17	PAL1	3	R1263C
476.261	0.006	247613	STOP	n/a	n/a	-999	-999	n/a	n/a	n/a	n/a	3	[-999, -999, -999]	-999	PAL1	3	R1263C
476.267	0.0	247616	TEST_START	n/a	n/a	-999	-999	n/a	n/a	n/a	n/a	3	[0, 0, 0]	-999	PAL1	3	R1263C
476.267	0.016	247616	MATH_END	n/a	n/a	-999	-999	n/a	n/a	n/a	n/a	3	[0, 0, 0]	-999	PAL1	3	R1263C
476.283	0.275	247624	TEST_ORIENT	n/a	n/a	5	1	JEEP	BADGE	JEEP	BADGE	3	[0, 0, 0]	-999	PAL1	3	R1263C
477.267	4.0	248116	TEST_PROBE	n/a	wordpools/wordpool_EN.txt	5	1	JEEP	BADGE	JEEP	BADGE	3	[0, 0, 0]	-999	PAL1	3	R1263C
477.267	1.374	248116	REC_START	n/a	n/a	5	-999	n/a	BADGE	n/a	n/a	3	[0, 0, 0]	-999	PAL1	3	R1263C
478.641	0.77	248803	REC_EVENT	1374.0	n/a	5	1	JEEP	BADGE	JEEP	BADGE	3	[0, 0, 0]	-999	PAL1	3	R1263C
479.411	2.873	249188	REC_EVENT	2144.0	n/a	5	1	JEEP	<>	JEEP	BADGE	3	[0, 0, 0]	-999	PAL1	3	R1263C
482.284	0.017	250625	REC_END	n/a	n/a	5	-999	n/a	n/a	n/a	n/a	3	[0, 0, 0]	-999	PAL1	3	R1263C
482.301	0.275	250633	TEST_ORIENT	n/a	n/a	4	2	TOAST	n/a	CHEEK	TOAST	3	[0, 0, 0]	-999	PAL1	3	R1263C
483.285	4.0	251125	TEST_PROBE	n/a	wordpools/wordpool_EN.txt	4	2	TOAST	n/a	CHEEK	TOAST	3	[0, 0, 0]	-999	PAL1	3	R1263C
483.285	3.451	251125	REC_START	n/a	n/a	4	-999	n/a	n/a	n/a	n/a	3	[0, 0, 0]	-999	PAL1	3	R1263C
486.736	1.0	252850	REC_EVENT	3451.0	n/a	4	2	TOAST	<>	CHEEK	TOAST	3	[0, 0, 0]	-999	PAL1	3	R1263C
487.736	0.566	253350	REC_EVENT	4451.0	n/a	4	2	TOAST	<>	CHEEK	TOAST	3	[0, 0, 0]	-999	PAL1	3	R1263C
488.302	0.017	253633	REC_END	n/a	n/a	4	-999	n/a	n/a	n/a	n/a	3	[0, 0, 0]	-999	PAL1	3	R1263C
488.319	0.275	253642	TEST_ORIENT	n/a	n/a	1	3	SEAT	PARK	PARK	SEAT	3	[0, 0, 0]	-999	PAL1	3	R1263C
489.252	4.0	254108	TEST_PROBE	n/a	wordpools/wordpool_EN.txt	1	3	SEAT	PARK	PARK	SEAT	3	[0, 0, 0]	-999	PAL1	3	R1263C
489.254	1.685	254109	REC_START	n/a	n/a	1	-999	n/a	PARK	n/a	n/a	3	[0, 0, 0]	-999	PAL1	3	R1263C
490.939	0.705	254952	REC_EVENT	1685.0	n/a	1	3	SEAT	PARK	PARK	SEAT	3	[0, 0, 0]	-999	PAL1	3	R1263C
491.644	2.609	255304	REC_EVENT	2390.0	n/a	1	3	SEAT	<>	PARK	SEAT	3	[0, 0, 0]	-999	PAL1	3	R1263C
494.253	0.017	256609	REC_END	n/a	n/a	1	-999	n/a	n/a	n/a	n/a	3	[0, 0, 0]	-999	PAL1	3	R1263C
494.27	0.275	256617	TEST_ORIENT	n/a	n/a	6	4	FRUIT	FLOOR	FRUIT	FLOOR	3	[0, 0, 0]	-999	PAL1	3	R1263C
495.237	0.0	257101	REC_START	n/a	n/a	6	-999	n/a	FLOOR	n/a	n/a	3	[0, 0, 0]	-999	PAL1	3	R1263C
495.237	4.0	257101	TEST_PROBE	n/a	wordpools/wordpool_EN.txt	6	4	FRUIT	FLOOR	FRUIT	FLOOR	3	[0, 0, 0]	-999	PAL1	3	R1263C
496.48	0.762	257722	REC_EVENT	1243.0	n/a	6	4	FRUIT	FLOOR	FRUIT	FLOOR	3	[0, 0, 0]	-999	PAL1	3	R1263C
497.242	3.012	258103	REC_EVENT	2005.0	n/a	6	4	FRUIT	<>	FRUIT	FLOOR	3	[0, 0, 0]	-999	PAL1	3	R1263C
500.254	0.017	259609	REC_END	n/a	n/a	6	-999	n/a	n/a	n/a	n/a	3	[0, 0, 0]	-999	PAL1	3	R1263C
500.271	0.275	259617	TEST_ORIENT	n/a	n/a	3	5	CAR	SPEAR	SPEAR	CAR	3	[0, 0, 0]	-999	PAL1	3	R1263C
501.305	4.0	260134	TEST_PROBE	n/a	wordpools/wordpool_EN.txt	3	5	CAR	SPEAR	SPEAR	CAR	3	[0, 0, 0]	-999	PAL1	3	R1263C
501.305	2.018	260134	REC_START	n/a	n/a	3	-999	n/a	SPEAR	n/a	n/a	3	[0, 0, 0]	-999	PAL1	3	R1263C
503.323	0.775	261143	REC_EVENT	2018.0	n/a	3	5	CAR	SPEAR	SPEAR	CAR	3	[0, 0, 0]	-999	PAL1	3	R1263C
504.098	2.224	261531	REC_EVENT	2793.0	n/a	3	5	CAR	<>	SPEAR	CAR	3	[0, 0, 0]	-999	PAL1	3	R1263C
506.322	0.017	262643	REC_END	n/a	n/a	3	-999	n/a	n/a	n/a	n/a	3	[0, 0, 0]	-999	PAL1	3	R1263C
506.339	0.275	262651	TEST_ORIENT	n/a	n/a	2	6	GATE	n/a	LEAF	GATE	3	[0, 0, 0]	-999	PAL1	3	R1263C
507.356	4.0	263160	TEST_PROBE	n/a	wordpools/wordpool_EN.txt	2	6	GATE	n/a	LEAF	GATE	3	[0, 0, 0]	-999	PAL1	3	R1263C
507.356	0.928	263160	REC_START	n/a	n/a	2	-999	n/a	n/a	n/a	n/a	3	[0, 0, 0]	-999	PAL1	3	R1263C
508.284	1.0	263624	REC_EVENT	928.0	n/a	2	6	GATE	<>	LEAF	GATE	3	[0, 0, 0]	-999	PAL1	3	R1263C
509.284	3.089	264124	REC_EVENT	1928.0	n/a	2	6	GATE	<>	LEAF	GATE	3	[0, 0, 0]	-999	PAL1	3	R1263C
512.373	1.48	265668	REC_END	n/a	n/a	2	-999	n/a	n/a	n/a	n/a	3	[0, 0, 0]	-999	PAL1	3	R1263C
513.853	10.439	266408	ENCODING_START	n/a	n/a	0	-999	n/a	n/a	n/a	n/a	4	[0, 0, 0]	-999	PAL1	3	R1263C
524.292	0.275	271627	STUDY_ORIENT	n/a	n/a	1	1	SUN	DOG	DOLL	SUN	4	[0, 0, 0]	-999	PAL1	3	R1263C
525.142	4.0	272052	STUDY_PAIR	n/a	wordpools/wordpool_EN.txt	1	1	SUN	DOG	DOLL	SUN	4	[0, 0, 0]	-999	PAL1	3	R1263C
530.16	0.275	274561	STUDY_ORIENT	n/a	n/a	2	2	SNOW	n/a	SNOW	GRASS	4	[0, 0, 0]	-999	PAL1	3	R1263C
531.177	4.0	275069	STUDY_PAIR	n/a	wordpools/wordpool_EN.txt	2	2	SNOW	n/a	SNOW	GRASS	4	[0, 0, 0]	-999	PAL1	3	R1263C
536.211	0.275	277586	STUDY_ORIENT	n/a	n/a	3	5	PRINCE	JUDGE	PRINCE	JUDGE	4	[0, 0, 0]	-999	PAL1	3	R1263C
537.028	4.0	277995	STUDY_PAIR	n/a	wordpools/wordpool_EN.txt	3	5	PRINCE	JUDGE	PRINCE	JUDGE	4	[0, 0, 0]	-999	PAL1	3	R1263C
542.046	0.275	280504	STUDY_ORIENT	n/a	n/a	4	6	PLANE	PHONE	PLANE	PHONE	4	[0, 0, 0]	-999	PAL1	3	R1263C
542.829	4.0	280895	STUDY_PAIR	n/a	wordpools/wordpool_EN.txt	4	6	PLANE	PHONE	PLANE	PHONE	4	[0, 0, 0]	-999	PAL1	3	R1263C
547.847	0.275	283404	STUDY_ORIENT	n/a	n/a	5	3	SNAKE	SNAIL	SNAKE	SNAIL	4	[0, 0, 0]	-999	PAL1	3	R1263C
548.814	4.0	283887	STUDY_PAIR	n/a	wordpools/wordpool_EN.txt	5	3	SNAKE	SNAIL	SNAKE	SNAIL	4	[0, 0, 0]	-999	PAL1	3	R1263C
553.848	0.275	286404	STUDY_ORIENT	n/a	n/a	6	4	ANT	n/a	ANT	CRANE	4	[0, 0, 0]	-999	PAL1	3	R1263C
554.815	4.0	286888	STUDY_PAIR	n/a	wordpools/wordpool_EN.txt	6	4	ANT	n/a	ANT	CRANE	4	[0, 0, 0]	-999	PAL1	3	R1263C
558.833	0.999	288896	START	n/a	n/a	-999	-999	n/a	n/a	n/a	n/a	4	[-999, -999, -999]	-999	PAL1	3	R1263C
559.832	0.017	289396	MATH_START	n/a	n/a	-999	-999	n/a	n/a	n/a	n/a	4	[0, 0, 0]	-999	PAL1	3	R1263C
559.849	4.384	289404	PROB	4356.0	n/a	-999	-999	n/a	n/a	n/a	n/a	4	[2, 6, 1]	9	PAL1	3	R1263C
564.233	4.801	291596	PROB	4780.0	n/a	-999	-999	n/a	n/a	n/a	n/a	4	[2, 9, 4]	15	PAL1	3	R1263C
569.034	6.151	293997	PROB	6131.0	n/a	-999	-999	n/a	n/a	n/a	n/a	4	[6, 4, 4]	14	PAL1	3	R1263C
575.185	3.568	297072	PROB	3548.0	n/a	-999	-999	n/a	n/a	n/a	n/a	4	[4, 3, 1]	8	PAL1	3	R1263C
578.753	17.228	298856	PROB	17228.0	n/a	-999	-999	n/a	n/a	n/a	n/a	4	[9, 6, 8]	23	PAL1	3	R1263C
595.981	0.008	307469	STOP	n/a	n/a	-999	-999	n/a	n/a	n/a	n/a	4	[-999, -999, -999]	-999	PAL1	3	R1263C
595.989	0.0	307473	MATH_END	n/a	n/a	-999	-999	n/a	n/a	n/a	n/a	4	[0, 0, 0]	-999	PAL1	3	R1263C
595.989	0.017	307473	TEST_START	n/a	n/a	-999	-999	n/a	n/a	n/a	n/a	4	[0, 0, 0]	-999	PAL1	3	R1263C
596.006	0.275	307482	TEST_ORIENT	n/a	n/a	1	1	SUN	DOG	DOLL	SUN	4	[0, 0, 0]	-999	PAL1	3	R1263C
597.023	4.0	307990	TEST_PROBE	n/a	wordpools/wordpool_EN.txt	1	1	SUN	DOG	DOLL	SUN	4	[0, 0, 0]	-999	PAL1	3	R1263C
597.024	2.544	307991	REC_START	n/a	n/a	1	-999	n/a	DOG	n/a	n/a	4	[0, 0, 0]	-999	PAL1	3	R1263C
599.568	0.458	309262	REC_EVENT	2544.0	n/a	1	1	SUN	DOG	DOLL	SUN	4	[0, 0, 0]	-999	PAL1	3	R1263C
600.026	2.014	309491	REC_EVENT	3002.0	n/a	1	1	SUN	<>	DOLL	SUN	4	[0, 0, 0]	-999	PAL1	3	R1263C
602.04	0.017	310498	REC_END	n/a	n/a	1	-999	n/a	n/a	n/a	n/a	4	[0, 0, 0]	-999	PAL1	3	R1263C
602.057	0.275	310507	TEST_ORIENT	n/a	n/a	2	2	SNOW	n/a	SNOW	GRASS	4	[0, 0, 0]	-999	PAL1	3	R1263C
602.924	4.0	310940	TEST_PROBE	n/a	wordpools/wordpool_EN.txt	2	2	SNOW	n/a	SNOW	GRASS	4	[0, 0, 0]	-999	PAL1	3	R1263C
602.925	3.993	310941	REC_START	n/a	n/a	2	-999	n/a	n/a	n/a	n/a	4	[0, 0, 0]	-999	PAL1	3	R1263C
606.918	1.0	312937	REC_EVENT	3993.0	n/a	2	2	SNOW	<>	SNOW	GRASS	4	[0, 0, 0]	-999	PAL1	3	R1263C
607.918	0.032	313437	REC_EVENT	4993.0	n/a	2	2	SNOW	<>	SNOW	GRASS	4	[0, 0, 0]	-999	PAL1	3	R1263C
607.95	0.008	313453	REC_END	n/a	n/a	2	-999	n/a	n/a	n/a	n/a	4	[0, 0, 0]	-999	PAL1	3	R1263C
607.958	0.275	313457	TEST_ORIENT	n/a	n/a	5	3	SNAKE	SNAIL	SNAKE	SNAIL	4	[0, 0, 0]	-999	PAL1	3	R1263C
608.975	4.0	313966	TEST_PROBE	n/a	wordpools/wordpool_EN.txt	5	3	SNAKE	SNAIL	SNAKE	SNAIL	4	[0, 0, 0]	-999	PAL1	3	R1263C
608.976	1.021	313966	REC_START	n/a	n/a	5	-999	n/a	SNAIL	n/a	n/a	4	[0, 0, 0]	-999	PAL1	3	R1263C
609.997	0.676	314477	REC_EVENT	1021.0	n/a	5	3	SNAKE	SNAIL	SNAKE	SNAIL	4	[0, 0, 0]	-999	PAL1	3	R1263C
610.673	3.311	314815	REC_EVENT	1697.0	n/a	5	3	SNAKE	<>	SNAKE	SNAIL	4	[0, 0, 0]	-999	PAL1	3	R1263C
613.984	0.009	316470	REC_END	n/a	n/a	5	-999	n/a	n/a	n/a	n/a	4	[0, 0, 0]	-999	PAL1	3	R1263C
613.993	0.275	316474	TEST_ORIENT	n/a	n/a	6	4	ANT	n/a	ANT	CRANE	4	[0, 0, 0]	-999	PAL1	3	R1263C
615.01	4.0	316983	TEST_PROBE	n/a	wordpools/wordpool_EN.txt	6	4	ANT	n/a	ANT	CRANE	4	[0, 0, 0]	-999	PAL1	3	R1263C
615.01	2.935	316983	REC_START	n/a	n/a	6	-999	n/a	n/a	n/a	n/a	4	[0, 0, 0]	-999	PAL1	3	R1263C
617.945	1.0	318450	REC_EVENT	2935.0	n/a	6	4	ANT	<>	ANT	CRANE	4	[0, 0, 0]	-999	PAL1	3	R1263C
618.945	1.082	318950	REC_EVENT	3935.0	n/a	6	4	ANT	<>	ANT	CRANE	4	[0, 0, 0]	-999	PAL1	3	R1263C
620.027	0.017	319491	REC_END	n/a	n/a	6	-999	n/a	n/a	n/a	n/a	4	[0, 0, 0]	-999	PAL1	3	R1263C
620.044	0.275	319500	TEST_ORIENT	n/a	n/a	3	5	PRINCE	JUDGE	PRINCE	JUDGE	4	[0, 0, 0]	-999	PAL1	3	R1263C
621.011	4.0	319983	TEST_PROBE	n/a	wordpools/wordpool_EN.txt	3	5	PRINCE	JUDGE	PRINCE	JUDGE	4	[0, 0, 0]	-999	PAL1	3	R1263C
621.011	3.238	319983	REC_START	n/a	n/a	3	-999	n/a	JUDGE	n/a	n/a	4	[0, 0, 0]	-999	PAL1	3	R1263C
624.249	0.746	321602	REC_EVENT	3238.0	n/a	3	5	PRINCE	JUDGE	PRINCE	JUDGE	4	[0, 0, 0]	-999	PAL1	3	R1263C
624.995	1.033	321975	REC_EVENT	3984.0	n/a	3	5	PRINCE	<>	PRINCE	JUDGE	4	[0, 0, 0]	-999	PAL1	3	R1263C
626.028	0.017	322492	REC_END	n/a	n/a	3	-999	n/a	n/a	n/a	n/a	4	[0, 0, 0]	-999	PAL1	3	R1263C
626.045	0.275	322500	TEST_ORIENT	n/a	n/a	4	6	PLANE	PHONE	PLANE	PHONE	4	[0, 0, 0]	-999	PAL1	3	R1263C
627.045	4.0	323000	TEST_PROBE	n/a	wordpools/wordpool_EN.txt	4	6	PLANE	PHONE	PLANE	PHONE	4	[0, 0, 0]	-999	PAL1	3	R1263C
627.046	1.513	323001	REC_START	n/a	n/a	4	-999	n/a	PHONE	n/a	n/a	4	[0, 0, 0]	-999	PAL1	3	R1263C
628.559	0.667	323757	REC_EVENT	1513.0	n/a	4	6	PLANE	PHONE	PLANE	PHONE	4	[0, 0, 0]	-999	PAL1	3	R1263C
629.226	2.828	324090	REC_EVENT	2180.0	n/a	4	6	PLANE	<>	PLANE	PHONE	4	[0, 0, 0]	-999	PAL1	3	R1263C
632.054	1.655	325504	REC_END	n/a	n/a	4	-999	n/a	n/a	n/a	n/a	4	[0, 0, 0]	-999	PAL1	3	R1263C
633.709	10.44	326332	ENCODING_START	n/a	n/a	0	-999	n/a	n/a	n/a	n/a	5	[0, 0, 0]	-999	PAL1	3	R1263C
644.149	0.275	331551	STUDY_ORIENT	n/a	n/a	1	5	FAN	APE	FAN	APE	5	[0, 0, 0]	-999	PAL1	3	R1263C
644.999	4.0	331976	STUDY_PAIR	n/a	wordpools/wordpool_EN.txt	1	5	FAN	APE	FAN	APE	5	[0, 0, 0]	-999	PAL1	3	R1263C
650.033	0.275	334493	STUDY_ORIENT	n/a	n/a	2	2	LAND	n/a	SPARK	LAND	5	[0, 0, 0]	-999	PAL1	3	R1263C
650.967	4.0	334960	STUDY_PAIR	n/a	wordpools/wordpool_EN.txt	2	2	LAND	n/a	SPARK	LAND	5	[0, 0, 0]	-999	PAL1	3	R1263C
656.001	0.275	337477	STUDY_ORIENT	n/a	n/a	3	3	NEST	LOVE	NEST	GLOVE	5	[0, 0, 0]	-999	PAL1	3	R1263C
656.834	4.0	337893	STUDY_PAIR	n/a	wordpools/wordpool_EN.txt	3	3	NEST	LOVE	NEST	GLOVE	5	[0, 0, 0]	-999	PAL1	3	R1263C
661.852	0.275	340402	STUDY_ORIENT	n/a	n/a	4	6	JUICE	BRUSH	SKY	JUICE	5	[0, 0, 0]	-999	PAL1	3	R1263C
662.652	4.0	340802	STUDY_PAIR	n/a	wordpools/wordpool_EN.txt	4	6	JUICE	BRUSH	SKY	JUICE	5	[0, 0, 0]	-999	PAL1	3	R1263C
667.67	0.275	343311	STUDY_ORIENT	n/a	n/a	5	1	STEAK	WOOD	WOOD	STEAK	5	[0, 0, 0]	-999	PAL1	3	R1263C
668.47	4.0	343711	STUDY_PAIR	n/a	wordpools/wordpool_EN.txt	5	1	STEAK	WOOD	WOOD	STEAK	5	[0, 0, 0]	-999	PAL1	3	R1263C
673.504	0.275	346228	STUDY_ORIENT	n/a	n/a	6	4	BRUSH	RIVER	BRUSH	POOL	5	[0, 0, 0]	-999	PAL1	3	R1263C
674.471	4.0	346711	STUDY_PAIR	n/a	wordpools/wordpool_EN.txt	6	4	BRUSH	RIVER	BRUSH	POOL	5	[0, 0, 0]	-999	PAL1	3	R1263C
678.472	1.0	348712	START	n/a	n/a	-999	-999	n/a	n/a	n/a	n/a	5	[-999, -999, -999]	-999	PAL1	3	R1263C
679.472	0.017	349212	MATH_START	n/a	n/a	-999	-999	n/a	n/a	n/a	n/a	5	[0, 0, 0]	-999	PAL1	3	R1263C
679.489	7.551	349220	PROB	7532.0	n/a	-999	-999	n/a	n/a	n/a	n/a	5	[7, 8, 5]	20	PAL1	3	R1263C
687.04	5.55	352995	PROB	5524.0	n/a	-999	-999	n/a	n/a	n/a	n/a	5	[8, 6, 3]	17	PAL1	3	R1263C
692.59	4.752	355770	PROB	4727.0	n/a	-999	-999	n/a	n/a	n/a	n/a	5	[9, 3, 1]	13	PAL1	3	R1263C
697.342	9.271	358146	PROB	9271.0	n/a	-999	-999	n/a	n/a	n/a	n/a	5	[3, 8, 4]	15	PAL1	3	R1263C
706.613	0.014	362781	STOP	n/a	n/a	-999	-999	n/a	n/a	n/a	n/a	5	[-999, -999, -999]	-999	PAL1	3	R1263C
706.627	0.0	362788	MATH_END	n/a	n/a	-999	-999	n/a	n/a	n/a	n/a	5	[0, 0, 0]	-999	PAL1	3	R1263C
706.627	0.017	362788	TEST_START	n/a	n/a	-999	-999	n/a	n/a	n/a	n/a	5	[0, 0, 0]	-999	PAL1	3	R1263C
706.644	0.275	362797	TEST_ORIENT	n/a	n/a	5	1	STEAK	WOOD	WOOD	STEAK	5	[0, 0, 0]	-999	PAL1	3	R1263C
707.627	4.0	363288	TEST_PROBE	n/a	wordpools/wordpool_EN.txt	5	1	STEAK	WOOD	WOOD	STEAK	5	[0, 0, 0]	-999	PAL1	3	R1263C
707.628	1.945	363289	REC_START	n/a	n/a	5	-999	n/a	WOOD	n/a	n/a	5	[0, 0, 0]	-999	PAL1	3	R1263C
709.573	0.468	364261	REC_EVENT	1945.0	n/a	5	1	STEAK	STEAK	WOOD	STEAK	5	[0, 0, 0]	-999	PAL1	3	R1263C
710.041	0.238	364495	REC_EVENT	2413.0	n/a	5	1	STEAK	<>	WOOD	STEAK	5	[0, 0, 0]	-999	PAL1	3	R1263C
710.279	0.932	364614	REC_EVENT	2651.0	n/a	5	1	STEAK	<>	WOOD	STEAK	5	[0, 0, 0]	-999	PAL1	3	R1263C
711.211	0.052	365080	REC_EVENT	3583.0	n/a	5	1	STEAK	<>	WOOD	STEAK	5	[0, 0, 0]	-999	PAL1	3	R1263C
711.263	0.388	365106	REC_EVENT	3635.0	n/a	5	1	STEAK	WOOD	WOOD	STEAK	5	[0, 0, 0]	-999	PAL1	3	R1263C
711.651	0.986	365300	REC_EVENT	4023.0	n/a	5	1	STEAK	<>	WOOD	STEAK	5	[0, 0, 0]	-999	PAL1	3	R1263C
712.637	0.008	365793	REC_END	n/a	n/a	5	-999	n/a	n/a	n/a	n/a	5	[0, 0, 0]	-999	PAL1	3	R1263C
712.645	0.275	365797	TEST_ORIENT	n/a	n/a	2	2	LAND	n/a	SPARK	LAND	5	[0, 0, 0]	-999	PAL1	3	R1263C
713.445	4.0	366197	TEST_PROBE	n/a	wordpools/wordpool_EN.txt	2	2	LAND	n/a	SPARK	LAND	5	[0, 0, 0]	-999	PAL1	3	R1263C
713.445	1.555	366197	REC_START	n/a	n/a	2	-999	n/a	n/a	n/a	n/a	5	[0, 0, 0]	-999	PAL1	3	R1263C
715.0	1.0	366974	REC_EVENT	1555.0	n/a	2	2	LAND	<>	SPARK	LAND	5	[0, 0, 0]	-999	PAL1	3	R1263C
716.0	2.463	367474	REC_EVENT	2555.0	n/a	2	2	LAND	<>	SPARK	LAND	5	[0, 0, 0]	-999	PAL1	3	R1263C
718.463	0.016	368706	REC_END	n/a	n/a	2	-999	n/a	n/a	n/a	n/a	5	[0, 0, 0]	-999	PAL1	3	R1263C
718.479	0.275	368714	TEST_ORIENT	n/a	n/a	3	3	NEST	LOVE	NEST	GLOVE	5	[0, 0, 0]	-999	PAL1	3	R1263C
719.28	4.0	369114	TEST_PROBE	n/a	wordpools/wordpool_EN.txt	3	3	NEST	LOVE	NEST	GLOVE	5	[0, 0, 0]	-999	PAL1	3	R1263C
719.28	2.21	369114	REC_START	n/a	n/a	3	-999	n/a	LOVE	n/a	n/a	5	[0, 0, 0]	-999	PAL1	3	R1263C
721.49	0.791	370219	REC_EVENT	2210.0	n/a	3	3	NEST	LOVE	NEST	GLOVE	5	[0, 0, 0]	-999	PAL1	3	R1263C
722.281	2.016	370615	REC_EVENT	3001.0	n/a	3	3	NEST	<>	NEST	GLOVE	5	[0, 0, 0]	-999	PAL1	3	R1263C
724.297	0.017	371623	REC_END	n/a	n/a	3	-999	n/a	n/a	n/a	n/a	5	[0, 0, 0]	-999	PAL1	3	R1263C
724.314	0.275	371631	TEST_ORIENT	n/a	n/a	6	4	BRUSH	RIVER	BRUSH	POOL	5	[0, 0, 0]	-999	PAL1	3	R1263C
725.114	4.0	372031	TEST_PROBE	n/a	wordpools/wordpool_EN.txt	6	4	BRUSH	RIVER	BRUSH	POOL	5	[0, 0, 0]	-999	PAL1	3	R1263C
725.114	3.11	372031	REC_START	n/a	n/a	6	-999	n/a	RIVER	n/a	n/a	5	[0, 0, 0]	-999	PAL1	3	R1263C
728.224	0.52	373586	REC_EVENT	3110.0	n/a	6	4	BRUSH	RIVER	BRUSH	POOL	5	[0, 0, 0]	-999	PAL1	3	R1263C
728.744	1.388	373846	REC_EVENT	3630.0	n/a	6	4	BRUSH	<>	BRUSH	POOL	5	[0, 0, 0]	-999	PAL1	3	R1263C
730.132	0.016	374540	REC_END	n/a	n/a	6	-999	n/a	n/a	n/a	n/a	5	[0, 0, 0]	-999	PAL1	3	R1263C
730.148	0.275	374548	TEST_ORIENT	n/a	n/a	1	5	FAN	APE	FAN	APE	5	[0, 0, 0]	-999	PAL1	3	R1263C
730.982	4.0	374965	TEST_PROBE	n/a	wordpools/wordpool_EN.txt	1	5	FAN	APE	FAN	APE	5	[0, 0, 0]	-999	PAL1	3	R1263C
730.982	1.436	374965	REC_START	n/a	n/a	1	-999	n/a	APE	n/a	n/a	5	[0, 0, 0]	-999	PAL1	3	R1263C
732.418	0.637	375683	REC_EVENT	1436.0	n/a	1	5	FAN	APE	FAN	APE	5	[0, 0, 0]	-999	PAL1	3	R1263C
733.055	2.944	376001	REC_EVENT	2073.0	n/a	1	5	FAN	<>	FAN	APE	5	[0, 0, 0]	-999	PAL1	3	R1263C
735.999	0.017	377473	REC_END	n/a	n/a	1	-999	n/a	n/a	n/a	n/a	5	[0, 0, 0]	-999	PAL1	3	R1263C
736.016	0.275	377482	TEST_ORIENT	n/a	n/a	4	6	JUICE	BRUSH	SKY	JUICE	5	[0, 0, 0]	-999	PAL1	3	R1263C
736.933	4.0	377940	TEST_PROBE	n/a	wordpools/wordpool_EN.txt	4	6	JUICE	BRUSH	SKY	JUICE	5	[0, 0, 0]	-999	PAL1	3	R1263C
736.934	1.785	377941	REC_START	n/a	n/a	4	-999	n/a	BRUSH	n/a	n/a	5	[0, 0, 0]	-999	PAL1	3	R1263C
738.719	0.695	378833	REC_EVENT	1785.0	n/a	4	6	JUICE	BRUSH	SKY	JUICE	5	[0, 0, 0]	-999	PAL1	3	R1263C
739.414	2.536	379181	REC_EVENT	2480.0	n/a	4	6	JUICE	<>	SKY	JUICE	5	[0, 0, 0]	-999	PAL1	3	R1263C
741.95	1.614	380448	REC_END	n/a	n/a	4	-999	n/a	n/a	n/a	n/a	5	[0, 0, 0]	-999	PAL1	3	R1263C
743.564	10.439	381255	ENCODING_START	n/a	n/a	0	-999	n/a	n/a	n/a	n/a	6	[0, 0, 0]	-999	PAL1	3	R1263C
754.003	0.275	386475	STUDY_ORIENT	n/a	n/a	1	5	CHIN	MOP	BROOM	CHIN	6	[0, 0, 0]	-999	PAL1	3	R1263C
754.986	4.0	386966	STUDY_PAIR	n/a	wordpools/wordpool_EN.txt	1	5	CHIN	MOP	BROOM	CHIN	6	[0, 0, 0]	-999	PAL1	3	R1263C
760.004	0.275	389475	STUDY_ORIENT	n/a	n/a	2	6	CAKE	CLIFF	CAKE	CLIFF	6	[0, 0, 0]	-999	PAL1	3	R1263C
760.804	4.0	389875	STUDY_PAIR	n/a	wordpools/wordpool_EN.txt	2	6	CAKE	CLIFF	CAKE	CLIFF	6	[0, 0, 0]	-999	PAL1	3	R1263C
765.839	0.275	392392	STUDY_ORIENT	n/a	n/a	3	3	WEB	n/a	OAK	WEB	6	[0, 0, 0]	-999	PAL1	3	R1263C
766.839	4.0	392892	STUDY_PAIR	n/a	wordpools/wordpool_EN.txt	3	3	WEB	n/a	OAK	WEB	6	[0, 0, 0]	-999	PAL1	3	R1263C
771.873	0.275	395409	STUDY_ORIENT	n/a	n/a	4	4	EEL	n/a	EEL	FLUTE	6	[0, 0, 0]	-999	PAL1	3	R1263C
772.89	4.0	395917	STUDY_PAIR	n/a	wordpools/wordpool_EN.txt	4	4	EEL	n/a	EEL	FLUTE	6	[0, 0, 0]	-999	PAL1	3	R1263C
777.924	0.275	398434	STUDY_ORIENT	n/a	n/a	5	1	CLOTH	SHIP	CLOTH	SHIP	6	[0, 0, 0]	-999	PAL1	3	R1263C
778.858	4.0	398901	STUDY_PAIR	n/a	wordpools/wordpool_EN.txt	5	1	CLOTH	SHIP	CLOTH	SHIP	6	[0, 0, 0]	-999	PAL1	3	R1263C
783.892	0.275	401418	STUDY_ORIENT	n/a	n/a	6	2	BIRD	FISH	BIRD	FISH	6	[0, 0, 0]	-999	PAL1	3	R1263C
784.692	4.0	401818	STUDY_PAIR	n/a	wordpools/wordpool_EN.txt	6	2	BIRD	FISH	BIRD	FISH	6	[0, 0, 0]	-999	PAL1	3	R1263C
788.693	1.0	403818	START	n/a	n/a	-999	-999	n/a	n/a	n/a	n/a	6	[-999, -999, -999]	-999	PAL1	3	R1263C
789.693	0.017	404318	MATH_START	n/a	n/a	-999	-999	n/a	n/a	n/a	n/a	6	[0, 0, 0]	-999	PAL1	3	R1263C
789.71	4.034	404327	PROB	4015.0	n/a	-999	-999	n/a	n/a	n/a	n/a	6	[4, 3, 4]	11	PAL1	3	R1263C
793.744	5.084	406344	PROB	5053.0	n/a	-999	-999	n/a	n/a	n/a	n/a	6	[7, 2, 7]	16	PAL1	3	R1263C
798.828	6.501	408885	PROB	6473.0	n/a	-999	-999	n/a	n/a	n/a	n/a	6	[4, 4, 5]	13	PAL1	3	R1263C
805.329	9.203	412136	PROB	9203.0	n/a	-999	-999	n/a	n/a	n/a	n/a	6	[6, 4, 8]	18	PAL1	3	R1263C
814.532	0.015	416737	STOP	n/a	n/a	-999	-999	n/a	n/a	n/a	n/a	6	[-999, -999, -999]	-999	PAL1	3	R1263C
814.547	0.0	416744	MATH_END	n/a	n/a	-999	-999	n/a	n/a	n/a	n/a	6	[0, 0, 0]	-999	PAL1	3	R1263C
814.547	0.017	416744	TEST_START	n/a	n/a	-999	-999	n/a	n/a	n/a	n/a	6	[0, 0, 0]	-999	PAL1	3	R1263C
814.564	0.275	416753	TEST_ORIENT	n/a	n/a	5	1	CLOTH	SHIP	CLOTH	SHIP	6	[0, 0, 0]	-999	PAL1	3	R1263C
815.547	4.0	417244	TEST_PROBE	n/a	wordpools/wordpool_EN.txt	5	1	CLOTH	SHIP	CLOTH	SHIP	6	[0, 0, 0]	-999	PAL1	3	R1263C
815.548	2.109	417245	REC_START	n/a	n/a	5	-999	n/a	SHIP	n/a	n/a	6	[0, 0, 0]	-999	PAL1	3	R1263C
817.657	0.717	418299	REC_EVENT	2109.0	n/a	5	1	CLOTH	SHIP	CLOTH	SHIP	6	[0, 0, 0]	-999	PAL1	3	R1263C
818.374	2.19	418658	REC_EVENT	2826.0	n/a	5	1	CLOTH	<>	CLOTH	SHIP	6	[0, 0, 0]	-999	PAL1	3	R1263C
820.564	0.017	419753	REC_END	n/a	n/a	5	-999	n/a	n/a	n/a	n/a	6	[0, 0, 0]	-999	PAL1	3	R1263C
820.581	0.275	419761	TEST_ORIENT	n/a	n/a	6	2	BIRD	FISH	BIRD	FISH	6	[0, 0, 0]	-999	PAL1	3	R1263C
821.565	4.0	420253	TEST_PROBE	n/a	wordpools/wordpool_EN.txt	6	2	BIRD	FISH	BIRD	FISH	6	[0, 0, 0]	-999	PAL1	3	R1263C
821.565	2.39	420253	REC_START	n/a	n/a	6	-999	n/a	FISH	n/a	n/a	6	[0, 0, 0]	-999	PAL1	3	R1263C
823.955	0.943	421448	REC_EVENT	2390.0	n/a	6	2	BIRD	FISH	BIRD	FISH	6	[0, 0, 0]	-999	PAL1	3	R1263C
824.898	1.684	421920	REC_EVENT	3333.0	n/a	6	2	BIRD	<>	BIRD	FISH	6	[0, 0, 0]	-999	PAL1	3	R1263C
826.582	0.018	422761	REC_END	n/a	n/a	6	-999	n/a	n/a	n/a	n/a	6	[0, 0, 0]	-999	PAL1	3	R1263C
826.6	0.275	422770	TEST_ORIENT	n/a	n/a	3	3	WEB	n/a	OAK	WEB	6	[0, 0, 0]	-999	PAL1	3	R1263C
827.467	4.0	423204	TEST_PROBE	n/a	wordpools/wordpool_EN.txt	3	3	WEB	n/a	OAK	WEB	6	[0, 0, 0]	-999	PAL1	3	R1263C
827.467	2.693	423204	REC_START	n/a	n/a	3	-999	n/a	n/a	n/a	n/a	6	[0, 0, 0]	-999	PAL1	3	R1263C
830.16	1.0	424550	REC_EVENT	2693.0	n/a	3	3	WEB	<>	OAK	WEB	6	[0, 0, 0]	-999	PAL1	3	R1263C
831.16	1.324	425050	REC_EVENT	3693.0	n/a	3	3	WEB	<>	OAK	WEB	6	[0, 0, 0]	-999	PAL1	3	R1263C
832.484	0.017	425712	REC_END	n/a	n/a	3	-999	n/a	n/a	n/a	n/a	6	[0, 0, 0]	-999	PAL1	3	R1263C
832.501	0.275	425721	TEST_ORIENT	n/a	n/a	4	4	EEL	n/a	EEL	FLUTE	6	[0, 0, 0]	-999	PAL1	3	R1263C
833.301	4.0	426121	TEST_PROBE	n/a	wordpools/wordpool_EN.txt	4	4	EEL	n/a	EEL	FLUTE	6	[0, 0, 0]	-999	PAL1	3	R1263C
833.302	2.6	426121	REC_START	n/a	n/a	4	-999	n/a	n/a	n/a	n/a	6	[0, 0, 0]	-999	PAL1	3	R1263C
835.902	1.0	427421	REC_EVENT	2600.0	n/a	4	4	EEL	<>	EEL	FLUTE	6	[0, 0, 0]	-999	PAL1	3	R1263C
836.902	1.426	427921	REC_EVENT	3600.0	n/a	4	4	EEL	<>	EEL	FLUTE	6	[0, 0, 0]	-999	PAL1	3	R1263C
838.328	0.008	428634	REC_END	n/a	n/a	4	-999	n/a	n/a	n/a	n/a	6	[0, 0, 0]	-999	PAL1	3	R1263C
838.336	0.275	428638	TEST_ORIENT	n/a	n/a	1	5	CHIN	MOP	BROOM	CHIN	6	[0, 0, 0]	-999	PAL1	3	R1263C
839.253	4.0	429097	TEST_PROBE	n/a	wordpools/wordpool_EN.txt	1	5	CHIN	MOP	BROOM	CHIN	6	[0, 0, 0]	-999	PAL1	3	R1263C
839.253	2.209	429097	REC_START	n/a	n/a	1	-999	n/a	MOP	n/a	n/a	6	[0, 0, 0]	-999	PAL1	3	R1263C
841.462	0.335	430201	REC_EVENT	2209.0	n/a	1	5	CHIN	MOP	BROOM	CHIN	6	[0, 0, 0]	-999	PAL1	3	R1263C
841.797	2.473	430368	REC_EVENT	2544.0	n/a	1	5	CHIN	<>	BROOM	CHIN	6	[0, 0, 0]	-999	PAL1	3	R1263C
844.27	0.017	431605	REC_END	n/a	n/a	1	-999	n/a	n/a	n/a	n/a	6	[0, 0, 0]	-999	PAL1	3	R1263C
844.287	0.275	431613	TEST_ORIENT	n/a	n/a	2	6	CAKE	CLIFF	CAKE	CLIFF	6	[0, 0, 0]	-999	PAL1	3	R1263C
845.287	4.0	432113	TEST_PROBE	n/a	wordpools/wordpool_EN.txt	2	6	CAKE	CLIFF	CAKE	CLIFF	6	[0, 0, 0]	-999	PAL1	3	R1263C
845.288	2.078	432114	REC_START	n/a	n/a	2	-999	n/a	CLIFF	n/a	n/a	6	[0, 0, 0]	-999	PAL1	3	R1263C
847.366	0.554	433153	REC_EVENT	2078.0	n/a	2	6	CAKE	CLIFF	CAKE	CLIFF	6	[0, 0, 0]	-999	PAL1	3	R1263C
847.92	2.393	433430	REC_EVENT	2632.0	n/a	2	6	CAKE	<>	CAKE	CLIFF	6	[0, 0, 0]	-999	PAL1	3	R1263C
850.313	1.804	434626	REC_END	n/a	n/a	2	-999	n/a	n/a	n/a	n/a	6	[0, 0, 0]	-999	PAL1	3	R1263C
852.117	10.439	435528	ENCODING_START	n/a	n/a	0	-999	n/a	n/a	n/a	n/a	7	[0, 0, 0]	-999	PAL1	3	R1263C
862.556	0.275	440747	STUDY_ORIENT	n/a	n/a	1	3	SOCK	HOOF	HOOF	SOCK	7	[0, 0, 0]	-999	PAL1	3	R1263C
863.391	4.0	441165	STUDY_PAIR	n/a	wordpools/wordpool_EN.txt	1	3	SOCK	HOOF	HOOF	SOCK	7	[0, 0, 0]	-999	PAL1	3	R1263C
868.425	0.275	443682	STUDY_ORIENT	n/a	n/a	2	2	PEN	MILK	PEN	MILK	7	[0, 0, 0]	-999	PAL1	3	R1263C
869.425	4.0	444181	STUDY_PAIR	n/a	wordpools/wordpool_EN.txt	2	2	PEN	MILK	PEN	MILK	7	[0, 0, 0]	-999	PAL1	3	R1263C
874.459	0.275	446698	STUDY_ORIENT	n/a	n/a	3	5	STEM	n/a	BUSH	STEM	7	[0, 0, 0]	-999	PAL1	3	R1263C
875.309	4.0	447123	STUDY_PAIR	n/a	wordpools/wordpool_EN.txt	3	5	STEM	n/a	BUSH	STEM	7	[0, 0, 0]	-999	PAL1	3	R1263C
880.327	0.275	449632	STUDY_ORIENT	n/a	n/a	4	4	WALL	CONE	WALL	CONE	7	[0, 0, 0]	-999	PAL1	3	R1263C
881.277	4.0	450107	STUDY_PAIR	n/a	wordpools/wordpool_EN.txt	4	4	WALL	CONE	WALL	CONE	7	[0, 0, 0]	-999	PAL1	3	R1263C
886.295	0.275	452616	STUDY_ORIENT	n/a	n/a	5	1	BEE	SHARK	SHARK	BEE	7	[0, 0, 0]	-999	PAL1	3	R1263C
887.128	4.0	453032	STUDY_PAIR	n/a	wordpools/wordpool_EN.txt	5	1	BEE	SHARK	SHARK	BEE	7	[0, 0, 0]	-999	PAL1	3	R1263C
892.146	0.275	455541	STUDY_ORIENT	n/a	n/a	6	6	CALF	n/a	CLAY	CALF	7	[0, 0, 0]	-999	PAL1	3	R1263C
893.08	4.0	456008	STUDY_PAIR	n/a	wordpools/wordpool_EN.txt	6	6	CALF	n/a	CLAY	CALF	7	[0, 0, 0]	-999	PAL1	3	R1263C
897.097	1.0	458016	START	n/a	n/a	-999	-999	n/a	n/a	n/a	n/a	7	[-999, -999, -999]	-999	PAL1	3	R1263C
898.097	0.017	458516	MATH_START	n/a	n/a	-999	-999	n/a	n/a	n/a	n/a	7	[0, 0, 0]	-999	PAL1	3	R1263C
898.114	7.018	458525	PROB	6987.0	n/a	-999	-999	n/a	n/a	n/a	n/a	7	[7, 3, 2]	13	PAL1	3	R1263C
905.132	5.501	462034	PROB	5481.0	n/a	-999	-999	n/a	n/a	n/a	n/a	7	[8, 8, 6]	22	PAL1	3	R1263C
910.633	6.368	464784	PROB	6340.0	n/a	-999	-999	n/a	n/a	n/a	n/a	7	[5, 8, 7]	20	PAL1	3	R1263C
917.001	6.892	467968	PROB	6892.0	n/a	-999	-999	n/a	n/a	n/a	n/a	7	[7, 4, 7]	18	PAL1	3	R1263C
923.893	0.009	471414	STOP	n/a	n/a	-999	-999	n/a	n/a	n/a	n/a	7	[-999, -999, -999]	-999	PAL1	3	R1263C
923.902	0.0	471418	MATH_END	n/a	n/a	-999	-999	n/a	n/a	n/a	n/a	7	[0, 0, 0]	-999	PAL1	3	R1263C
923.902	0.017	471418	TEST_START	n/a	n/a	-999	-999	n/a	n/a	n/a	n/a	7	[0, 0, 0]	-999	PAL1	3	R1263C
923.919	0.275	471427	TEST_ORIENT	n/a	n/a	5	1	BEE	SHARK	SHARK	BEE	7	[0, 0, 0]	-999	PAL1	3	R1263C
924.886	4.0	471910	TEST_PROBE	n/a	wordpools/wordpool_EN.txt	5	1	BEE	SHARK	SHARK	BEE	7	[0, 0, 0]	-999	PAL1	3	R1263C
924.886	2.188	471910	REC_START	n/a	n/a	5	-999	n/a	SHARK	n/a	n/a	7	[0, 0, 0]	-999	PAL1	3	R1263C
927.074	2.829	473004	REC_EVENT	2188.0	n/a	5	1	BEE	SHARK	SHARK	BEE	7	[0, 0, 0]	-999	PAL1	3	R1263C
929.903	0.017	474418	REC_END	n/a	n/a	5	-999	n/a	n/a	n/a	n/a	7	[0, 0, 0]	-999	PAL1	3	R1263C
929.92	0.275	474427	TEST_ORIENT	n/a	n/a	2	2	PEN	MILK	PEN	MILK	7	[0, 0, 0]	-999	PAL1	3	R1263C
930.937	4.0	474935	TEST_PROBE	n/a	wordpools/wordpool_EN.txt	2	2	PEN	MILK	PEN	MILK	7	[0, 0, 0]	-999	PAL1	3	R1263C
930.938	1.886	474936	REC_START	n/a	n/a	2	-999	n/a	MILK	n/a	n/a	7	[0, 0, 0]	-999	PAL1	3	R1263C
932.824	3.13	475879	REC_EVENT	1886.0	n/a	2	2	PEN	MILK	PEN	MILK	7	[0, 0, 0]	-999	PAL1	3	R1263C
935.954	0.017	477444	REC_END	n/a	n/a	2	-999	n/a	n/a	n/a	n/a	7	[0, 0, 0]	-999	PAL1	3	R1263C
935.971	0.275	477452	TEST_ORIENT	n/a	n/a	1	3	SOCK	HOOF	HOOF	SOCK	7	[0, 0, 0]	-999	PAL1	3	R1263C
936.988	4.0	477961	TEST_PROBE	n/a	wordpools/wordpool_EN.txt	1	3	SOCK	HOOF	HOOF	SOCK	7	[0, 0, 0]	-999	PAL1	3	R1263C
936.989	2.15	477961	REC_START	n/a	n/a	1	-999	n/a	HOOF	n/a	n/a	7	[0, 0, 0]	-999	PAL1	3	R1263C
939.139	2.866	479036	REC_EVENT	2150.0	n/a	1	3	SOCK	HOOF	HOOF	SOCK	7	[0, 0, 0]	-999	PAL1	3	R1263C
942.005	0.017	480469	REC_END	n/a	n/a	1	-999	n/a	n/a	n/a	n/a	7	[0, 0, 0]	-999	PAL1	3	R1263C
942.022	0.275	480477	TEST_ORIENT	n/a	n/a	4	4	WALL	CONE	WALL	CONE	7	[0, 0, 0]	-999	PAL1	3	R1263C
942.906	4.0	480919	TEST_PROBE	n/a	wordpools/wordpool_EN.txt	4	4	WALL	CONE	WALL	CONE	7	[0, 0, 0]	-999	PAL1	3	R1263C
942.906	2.54	480919	REC_START	n/a	n/a	4	-999	n/a	CONE	n/a	n/a	7	[0, 0, 0]	-999	PAL1	3	R1263C
945.446	2.477	482189	REC_EVENT	2540.0	n/a	4	4	WALL	CONE	WALL	CONE	7	[0, 0, 0]	-999	PAL1	3	R1263C
947.923	0.017	483428	REC_END	n/a	n/a	4	-999	n/a	n/a	n/a	n/a	7	[0, 0, 0]	-999	PAL1	3	R1263C
947.94	0.275	483436	TEST_ORIENT	n/a	n/a	3	5	STEM	n/a	BUSH	STEM	7	[0, 0, 0]	-999	PAL1	3	R1263C
948.773	4.0	483853	TEST_PROBE	n/a	wordpools/wordpool_EN.txt	3	5	STEM	n/a	BUSH	STEM	7	[0, 0, 0]	-999	PAL1	3	R1263C
948.774	5.008	483853	REC_START	n/a	n/a	3	-999	n/a	n/a	n/a	n/a	7	[0, 0, 0]	-999	PAL1	3	R1263C
953.782	0.001	486357	REC_END	n/a	n/a	3	-999	n/a	n/a	n/a	n/a	7	[0, 0, 0]	-999	PAL1	3	R1263C
953.783	0.008	486357	REC_EVENT	5009.0	n/a	3	5	STEM	<>	BUSH	STEM	7	[0, 0, 0]	-999	PAL1	3	R1263C
953.791	0.275	486361	TEST_ORIENT	n/a	n/a	6	6	CALF	n/a	CLAY	CALF	7	[0, 0, 0]	-999	PAL1	3	R1263C
954.608	4.0	486770	TEST_PROBE	n/a	wordpools/wordpool_EN.txt	6	6	CALF	n/a	CLAY	CALF	7	[0, 0, 0]	-999	PAL1	3	R1263C
954.609	2.182	486770	REC_START	n/a	n/a	6	-999	n/a	n/a	n/a	n/a	7	[0, 0, 0]	-999	PAL1	3	R1263C
956.791	1.0	487861	REC_EVENT	2182.0	n/a	6	6	CALF	<>	CLAY	CALF	7	[0, 0, 0]	-999	PAL1	3	R1263C
957.791	1.834	488361	REC_EVENT	3182.0	n/a	6	6	CALF	<>	CLAY	CALF	7	[0, 0, 0]	-999	PAL1	3	R1263C
959.625	1.923	489278	REC_END	n/a	n/a	6	-999	n/a	n/a	n/a	n/a	7	[0, 0, 0]	-999	PAL1	3	R1263C
961.548	10.447	490240	ENCODING_START	n/a	n/a	0	-999	n/a	n/a	n/a	n/a	8	[0, 0, 0]	-999	PAL1	3	R1263C
971.995	0.275	495463	STUDY_ORIENT	n/a	n/a	1	3	SIGN	MOUTH	SIGN	MOUTH	8	[0, 0, 0]	-999	PAL1	3	R1263C
972.778	4.0	495854	STUDY_PAIR	n/a	wordpools/wordpool_EN.txt	1	3	SIGN	MOUTH	SIGN	MOUTH	8	[0, 0, 0]	-999	PAL1	3	R1263C
977.796	0.275	498363	STUDY_ORIENT	n/a	n/a	2	4	HAT	MAP	HAT	MAZE	8	[0, 0, 0]	-999	PAL1	3	R1263C
978.679	4.0	498805	STUDY_PAIR	n/a	wordpools/wordpool_EN.txt	2	4	HAT	MAP	HAT	MAZE	8	[0, 0, 0]	-999	PAL1	3	R1263C
983.697	0.275	501313	STUDY_ORIENT	n/a	n/a	3	1	VINE	SOAP	SOAP	VINE	8	[0, 0, 0]	-999	PAL1	3	R1263C
984.529	4.0	501729	STUDY_PAIR	n/a	wordpools/wordpool_EN.txt	3	1	VINE	SOAP	SOAP	VINE	8	[0, 0, 0]	-999	PAL1	3	R1263C
989.547	0.275	504238	STUDY_ORIENT	n/a	n/a	4	6	SHOE	SUIT	SUIT	SHOE	8	[0, 0, 0]	-999	PAL1	3	R1263C
990.514	4.0	504722	STUDY_PAIR	n/a	wordpools/wordpool_EN.txt	4	6	SHOE	SUIT	SUIT	SHOE	8	[0, 0, 0]	-999	PAL1	3	R1263C
995.548	0.275	507239	STUDY_ORIENT	n/a	n/a	5	5	FUR	n/a	FUR	LIP	8	[0, 0, 0]	-999	PAL1	3	R1263C
996.333	4.0	507631	STUDY_PAIR	n/a	wordpools/wordpool_EN.txt	5	5	FUR	n/a	FUR	LIP	8	[0, 0, 0]	-999	PAL1	3	R1263C
1001.367	0.275	510148	STUDY_ORIENT	n/a	n/a	6	2	ROOM	TOE	TOE	ROOM	8	[0, 0, 0]	-999	PAL1	3	R1263C
1002.284	4.0	510606	STUDY_PAIR	n/a	wordpools/wordpool_EN.txt	6	2	ROOM	TOE	TOE	ROOM	8	[0, 0, 0]	-999	PAL1	3	R1263C
1006.302	0.999	512615	START	n/a	n/a	-999	-999	n/a	n/a	n/a	n/a	8	[-999, -999, -999]	-999	PAL1	3	R1263C
1007.301	0.017	513115	MATH_START	n/a	n/a	-999	-999	n/a	n/a	n/a	n/a	8	[0, 0, 0]	-999	PAL1	3	R1263C
1007.318	6.901	513123	PROB	6879.0	n/a	-999	-999	n/a	n/a	n/a	n/a	8	[7, 3, 9]	19	PAL1	3	R1263C
1014.219	4.901	516573	PROB	4882.0	n/a	-999	-999	n/a	n/a	n/a	n/a	8	[8, 9, 2]	19	PAL1	3	R1263C
1019.12	6.251	519024	PROB	6229.0	n/a	-999	-999	n/a	n/a	n/a	n/a	8	[4, 9, 9]	23	PAL1	3	R1263C
1025.371	8.722	522149	PROB	8722.0	n/a	-999	-999	n/a	n/a	n/a	n/a	8	[7, 5, 1]	14	PAL1	3	R1263C
1034.093	0.014	526510	STOP	n/a	n/a	-999	-999	n/a	n/a	n/a	n/a	8	[-999, -999, -999]	-999	PAL1	3	R1263C
1034.107	0.0	526517	MATH_END	n/a	n/a	-999	-999	n/a	n/a	n/a	n/a	8	[0, 0, 0]	-999	PAL1	3	R1263C
1034.107	0.016	526517	TEST_START	n/a	n/a	-999	-999	n/a	n/a	n/a	n/a	8	[0, 0, 0]	-999	PAL1	3	R1263C
1034.123	0.275	526525	TEST_ORIENT	n/a	n/a	3	1	VINE	SOAP	SOAP	VINE	8	[0, 0, 0]	-999	PAL1	3	R1263C
1034.94	4.0	526933	TEST_PROBE	n/a	wordpools/wordpool_EN.txt	3	1	VINE	SOAP	SOAP	VINE	8	[0, 0, 0]	-999	PAL1	3	R1263C
1034.941	2.291	526934	REC_START	n/a	n/a	3	-999	n/a	SOAP	n/a	n/a	8	[0, 0, 0]	-999	PAL1	3	R1263C
1037.232	0.428	528079	REC_EVENT	2291.0	n/a	3	1	VINE	SOAP	SOAP	VINE	8	[0, 0, 0]	-999	PAL1	3	R1263C
1037.66	2.306	528293	REC_EVENT	2719.0	n/a	3	1	VINE	<>	SOAP	VINE	8	[0, 0, 0]	-999	PAL1	3	R1263C
1039.966	0.008	529446	REC_END	n/a	n/a	3	-999	n/a	n/a	n/a	n/a	8	[0, 0, 0]	-999	PAL1	3	R1263C
1039.974	0.275	529450	TEST_ORIENT	n/a	n/a	6	2	ROOM	TOE	TOE	ROOM	8	[0, 0, 0]	-999	PAL1	3	R1263C
1040.841	4.0	529883	TEST_PROBE	n/a	wordpools/wordpool_EN.txt	6	2	ROOM	TOE	TOE	ROOM	8	[0, 0, 0]	-999	PAL1	3	R1263C
1040.842	2.706	529884	REC_START	n/a	n/a	6	-999	n/a	TOE	n/a	n/a	8	[0, 0, 0]	-999	PAL1	3	R1263C
1043.548	0.499	531237	REC_EVENT	2706.0	n/a	6	2	ROOM	TOE	TOE	ROOM	8	[0, 0, 0]	-999	PAL1	3	R1263C
1044.047	1.803	531486	REC_EVENT	3205.0	n/a	6	2	ROOM	<>	TOE	ROOM	8	[0, 0, 0]	-999	PAL1	3	R1263C
1045.85	0.009	532388	REC_END	n/a	n/a	6	-999	n/a	n/a	n/a	n/a	8	[0, 0, 0]	-999	PAL1	3	R1263C
1045.859	0.275	532392	TEST_ORIENT	n/a	n/a	1	3	SIGN	MOUTH	SIGN	MOUTH	8	[0, 0, 0]	-999	PAL1	3	R1263C
1046.825	4.0	532875	TEST_PROBE	n/a	wordpools/wordpool_EN.txt	1	3	SIGN	MOUTH	SIGN	MOUTH	8	[0, 0, 0]	-999	PAL1	3	R1263C
1046.826	2.119	532876	REC_START	n/a	n/a	1	-999	n/a	MOUTH	n/a	n/a	8	[0, 0, 0]	-999	PAL1	3	R1263C
1048.945	0.641	533935	REC_EVENT	2119.0	n/a	1	3	SIGN	MOUTH	SIGN	MOUTH	8	[0, 0, 0]	-999	PAL1	3	R1263C
1049.586	2.24	534256	REC_EVENT	2760.0	n/a	1	3	SIGN	<>	SIGN	MOUTH	8	[0, 0, 0]	-999	PAL1	3	R1263C
1051.826	0.017	535376	REC_END	n/a	n/a	1	-999	n/a	n/a	n/a	n/a	8	[0, 0, 0]	-999	PAL1	3	R1263C
1051.843	0.275	535384	TEST_ORIENT	n/a	n/a	2	4	HAT	MAP	HAT	MAZE	8	[0, 0, 0]	-999	PAL1	3	R1263C
1052.893	4.0	535909	TEST_PROBE	n/a	wordpools/wordpool_EN.txt	2	4	HAT	MAP	HAT	MAZE	8	[0, 0, 0]	-999	PAL1	3	R1263C
1052.894	1.731	535909	REC_START	n/a	n/a	2	-999	n/a	MAP	n/a	n/a	8	[0, 0, 0]	-999	PAL1	3	R1263C
1054.625	0.725	536775	REC_EVENT	1731.0	n/a	2	4	HAT	MAP	HAT	MAZE	8	[0, 0, 0]	-999	PAL1	3	R1263C
1055.35	2.553	537137	REC_EVENT	2456.0	n/a	2	4	HAT	<>	HAT	MAZE	8	[0, 0, 0]	-999	PAL1	3	R1263C
1057.903	0.008	538414	REC_END	n/a	n/a	2	-999	n/a	n/a	n/a	n/a	8	[0, 0, 0]	-999	PAL1	3	R1263C
1057.911	0.275	538418	TEST_ORIENT	n/a	n/a	5	5	FUR	n/a	FUR	LIP	8	[0, 0, 0]	-999	PAL1	3	R1263C
1058.845	4.0	538885	TEST_PROBE	n/a	wordpools/wordpool_EN.txt	5	5	FUR	n/a	FUR	LIP	8	[0, 0, 0]	-999	PAL1	3	R1263C
1058.845	2.818	538885	REC_START	n/a	n/a	5	-999	n/a	n/a	n/a	n/a	8	[0, 0, 0]	-999	PAL1	3	R1263C
1061.663	1.0	540294	REC_EVENT	2818.0	n/a	5	5	FUR	<>	FUR	LIP	8	[0, 0, 0]	-999	PAL1	3	R1263C
1062.663	1.199	540794	REC_EVENT	3818.0	n/a	5	5	FUR	<>	FUR	LIP	8	[0, 0, 0]	-999	PAL1	3	R1263C
1063.862	0.017	541393	REC_END	n/a	n/a	5	-999	n/a	n/a	n/a	n/a	8	[0, 0, 0]	-999	PAL1	3	R1263C
1063.879	0.275	541402	TEST_ORIENT	n/a	n/a	4	6	SHOE	SUIT	SUIT	SHOE	8	[0, 0, 0]	-999	PAL1	3	R1263C
1064.796	4.0	541860	TEST_PROBE	n/a	wordpools/wordpool_EN.txt	4	6	SHOE	SUIT	SUIT	SHOE	8	[0, 0, 0]	-999	PAL1	3	R1263C
1064.796	2.765	541860	REC_START	n/a	n/a	4	-999	n/a	SUIT	n/a	n/a	8	[0, 0, 0]	-999	PAL1	3	R1263C
1067.561	0.691	543242	REC_EVENT	2765.0	n/a	4	6	SHOE	SUIT	SUIT	SHOE	8	[0, 0, 0]	-999	PAL1	3	R1263C
1068.252	1.561	543588	REC_EVENT	3456.0	n/a	4	6	SHOE	<>	SUIT	SHOE	8	[0, 0, 0]	-999	PAL1	3	R1263C
1069.813	1.608	544368	REC_END	n/a	n/a	4	-999	n/a	n/a	n/a	n/a	8	[0, 0, 0]	-999	PAL1	3	R1263C
1071.421	10.445	545172	ENCODING_START	n/a	n/a	0	-999	n/a	n/a	n/a	n/a	9	[0, 0, 0]	-999	PAL1	3	R1263C
1081.866	0.275	550394	STUDY_ORIENT	n/a	n/a	1	1	DRUM	n/a	DRUM	BED	9	[0, 0, 0]	-999	PAL1	3	R1263C
1082.783	4.0	550853	STUDY_PAIR	n/a	wordpools/wordpool_EN.txt	1	1	DRUM	n/a	DRUM	BED	9	[0, 0, 0]	-999	PAL1	3	R1263C
1087.817	0.275	553370	STUDY_ORIENT	n/a	n/a	2	2	TAIL	n/a	TAIL	SHEET	9	[0, 0, 0]	-999	PAL1	3	R1263C
1088.717	4.0	553820	STUDY_PAIR	n/a	wordpools/wordpool_EN.txt	2	2	TAIL	n/a	TAIL	SHEET	9	[0, 0, 0]	-999	PAL1	3	R1263C
1093.751	0.275	556337	STUDY_ORIENT	n/a	n/a	3	5	ELF	n/a	SEAL	ELF	9	[0, 0, 0]	-999	PAL1	3	R1263C
1094.701	4.0	556812	STUDY_PAIR	n/a	wordpools/wordpool_EN.txt	3	5	ELF	n/a	SEAL	ELF	9	[0, 0, 0]	-999	PAL1	3	R1263C
1099.719	0.275	559320	STUDY_ORIENT	n/a	n/a	4	6	BRIDGE	n/a	BOOK	BRIDGE	9	[0, 0, 0]	-999	PAL1	3	R1263C
1100.503	4.0	559712	STUDY_PAIR	n/a	wordpools/wordpool_EN.txt	4	6	BRIDGE	n/a	BOOK	BRIDGE	9	[0, 0, 0]	-999	PAL1	3	R1263C
1105.536	0.275	562229	STUDY_ORIENT	n/a	n/a	5	3	CHIEF	n/a	BANK	CHIEF	9	[0, 0, 0]	-999	PAL1	3	R1263C
1106.437	4.0	562679	STUDY_PAIR	n/a	wordpools/wordpool_EN.txt	5	3	CHIEF	n/a	BANK	CHIEF	9	[0, 0, 0]	-999	PAL1	3	R1263C
1111.471	0.275	565196	STUDY_ORIENT	n/a	n/a	6	4	LAMP	n/a	LAMP	WHALE	9	[0, 0, 0]	-999	PAL1	3	R1263C
1112.288	4.0	565604	STUDY_PAIR	n/a	wordpools/wordpool_EN.txt	6	4	LAMP	n/a	LAMP	WHALE	9	[0, 0, 0]	-999	PAL1	3	R1263C
1116.289	1.0	567605	START	n/a	n/a	-999	-999	n/a	n/a	n/a	n/a	9	[-999, -999, -999]	-999	PAL1	3	R1263C
1117.289	0.017	568105	MATH_START	n/a	n/a	-999	-999	n/a	n/a	n/a	n/a	9	[0, 0, 0]	-999	PAL1	3	R1263C
1117.306	5.517	568113	PROB	5499.0	n/a	-999	-999	n/a	n/a	n/a	n/a	9	[1, 1, 9]	11	PAL1	3	R1263C
1122.823	6.902	570872	PROB	6870.0	n/a	-999	-999	n/a	n/a	n/a	n/a	9	[9, 2, 9]	20	PAL1	3	R1263C
1129.725	503.823	574322	PROB	503823.0	n/a	-999	-999	n/a	n/a	n/a	n/a	9	[5, 8, 3]	14	PAL1	3	R1263C
1633.548	0.005	826216	STOP	n/a	n/a	-999	-999	n/a	n/a	n/a	n/a	9	[-999, -999, -999]	-999	PAL1	3	R1263C
1633.553	0.0	826219	MATH_END	n/a	n/a	-999	-999	n/a	n/a	n/a	n/a	9	[0, 0, 0]	-999	PAL1	3	R1263C
1633.553	0.017	826219	TEST_START	n/a	n/a	-999	-999	n/a	n/a	n/a	n/a	9	[0, 0, 0]	-999	PAL1	3	R1263C
1633.57	0.275	826227	TEST_ORIENT	n/a	n/a	1	1	DRUM	n/a	DRUM	BED	9	[0, 0, 0]	-999	PAL1	3	R1263C
1634.371	4.0	826627	TEST_PROBE	n/a	wordpools/wordpool_EN.txt	1	1	DRUM	n/a	DRUM	BED	9	[0, 0, 0]	-999	PAL1	3	R1263C
1634.372	3.414	826628	REC_START	n/a	n/a	1	-999	n/a	n/a	n/a	n/a	9	[0, 0, 0]	-999	PAL1	3	R1263C
1637.786	1.601	828335	REC_EVENT	3414.0	n/a	1	1	DRUM	<>	DRUM	BED	9	[0, 0, 0]	-999	PAL1	3	R1263C
1639.387	0.001	829135	REC_EVENT	5015.0	n/a	1	1	DRUM	<>	DRUM	BED	9	[0, 0, 0]	-999	PAL1	3	R1263C
1639.388	0.017	829136	REC_END	n/a	n/a	1	-999	n/a	n/a	n/a	n/a	9	[0, 0, 0]	-999	PAL1	3	R1263C
1639.405	0.275	829144	TEST_ORIENT	n/a	n/a	2	2	TAIL	n/a	TAIL	SHEET	9	[0, 0, 0]	-999	PAL1	3	R1263C
1640.339	4.0	829611	TEST_PROBE	n/a	wordpools/wordpool_EN.txt	2	2	TAIL	n/a	TAIL	SHEET	9	[0, 0, 0]	-999	PAL1	3	R1263C
1640.339	0.519	829611	REC_START	n/a	n/a	2	-999	n/a	n/a	n/a	n/a	9	[0, 0, 0]	-999	PAL1	3	R1263C
1640.858	1.0	829871	REC_EVENT	519.0	n/a	2	2	TAIL	<>	TAIL	SHEET	9	[0, 0, 0]	-999	PAL1	3	R1263C
1641.858	1.871	830371	REC_EVENT	1519.0	n/a	2	2	TAIL	<>	TAIL	SHEET	9	[0, 0, 0]	-999	PAL1	3	R1263C
1643.729	1.625	831306	REC_EVENT	3390.0	n/a	2	2	TAIL	<>	TAIL	SHEET	9	[0, 0, 0]	-999	PAL1	3	R1263C
1645.354	0.002	832119	REC_EVENT	5015.0	n/a	2	2	TAIL	<>	TAIL	SHEET	9	[0, 0, 0]	-999	PAL1	3	R1263C
1645.356	0.017	832120	REC_END	n/a	n/a	2	-999	n/a	n/a	n/a	n/a	9	[0, 0, 0]	-999	PAL1	3	R1263C
1645.373	0.275	832128	TEST_ORIENT	n/a	n/a	5	3	CHIEF	n/a	BANK	CHIEF	9	[0, 0, 0]	-999	PAL1	3	R1263C
1646.19	4.0	832537	TEST_PROBE	n/a	wordpools/wordpool_EN.txt	5	3	CHIEF	n/a	BANK	CHIEF	9	[0, 0, 0]	-999	PAL1	3	R1263C
1646.191	0.404	832537	REC_START	n/a	n/a	5	-999	n/a	n/a	n/a	n/a	9	[0, 0, 0]	-999	PAL1	3	R1263C
1646.595	1.991	832739	REC_EVENT	404.0	n/a	5	3	CHIEF	<>	BANK	CHIEF	9	[0, 0, 0]	-999	PAL1	3	R1263C
1648.586	2.621	833734	REC_EVENT	2395.0	n/a	5	3	CHIEF	<>	BANK	CHIEF	9	[0, 0, 0]	-999	PAL1	3	R1263C
1651.207	0.017	835045	REC_END	n/a	n/a	5	-999	n/a	n/a	n/a	n/a	9	[0, 0, 0]	-999	PAL1	3	R1263C
1651.224	0.275	835053	TEST_ORIENT	n/a	n/a	6	4	LAMP	n/a	LAMP	WHALE	9	[0, 0, 0]	-999	PAL1	3	R1263C
1652.108	4.0	835495	TEST_PROBE	n/a	wordpools/wordpool_EN.txt	6	4	LAMP	n/a	LAMP	WHALE	9	[0, 0, 0]	-999	PAL1	3	R1263C
1652.108	2.422	835495	REC_START	n/a	n/a	6	-999	n/a	n/a	n/a	n/a	9	[0, 0, 0]	-999	PAL1	3	R1263C
1654.53	1.0	836706	REC_EVENT	2422.0	n/a	6	4	LAMP	<>	LAMP	WHALE	9	[0, 0, 0]	-999	PAL1	3	R1263C
1655.53	1.595	837206	REC_EVENT	3422.0	n/a	6	4	LAMP	<>	LAMP	WHALE	9	[0, 0, 0]	-999	PAL1	3	R1263C
1657.125	0.017	838004	REC_END	n/a	n/a	6	-999	n/a	n/a	n/a	n/a	9	[0, 0, 0]	-999	PAL1	3	R1263C
1657.142	0.275	838012	TEST_ORIENT	n/a	n/a	3	5	ELF	n/a	SEAL	ELF	9	[0, 0, 0]	-999	PAL1	3	R1263C
1658.176	4.0	838529	TEST_PROBE	n/a	wordpools/wordpool_EN.txt	3	5	ELF	n/a	SEAL	ELF	9	[0, 0, 0]	-999	PAL1	3	R1263C
1658.176	1.811	838529	REC_START	n/a	n/a	3	-999	n/a	n/a	n/a	n/a	9	[0, 0, 0]	-999	PAL1	3	R1263C
1659.987	1.0	839435	REC_EVENT	1811.0	n/a	3	5	ELF	<>	SEAL	ELF	9	[0, 0, 0]	-999	PAL1	3	R1263C
1660.987	2.206	839935	REC_EVENT	2811.0	n/a	3	5	ELF	<>	SEAL	ELF	9	[0, 0, 0]	-999	PAL1	3	R1263C
1663.193	0.017	841037	REC_END	n/a	n/a	3	-999	n/a	n/a	n/a	n/a	9	[0, 0, 0]	-999	PAL1	3	R1263C
1663.21	0.275	841046	TEST_ORIENT	n/a	n/a	4	6	BRIDGE	n/a	BOOK	BRIDGE	9	[0, 0, 0]	-999	PAL1	3	R1263C
1664.21	4.0	841546	TEST_PROBE	n/a	wordpools/wordpool_EN.txt	4	6	BRIDGE	n/a	BOOK	BRIDGE	9	[0, 0, 0]	-999	PAL1	3	R1263C
1664.211	0.928	841546	REC_START	n/a	n/a	4	-999	n/a	n/a	n/a	n/a	9	[0, 0, 0]	-999	PAL1	3	R1263C
1665.139	1.0	842010	REC_EVENT	928.0	n/a	4	6	BRIDGE	<>	BOOK	BRIDGE	9	[0, 0, 0]	-999	PAL1	3	R1263C
1666.139	3.098	842510	REC_EVENT	1928.0	n/a	4	6	BRIDGE	<>	BOOK	BRIDGE	9	[0, 0, 0]	-999	PAL1	3	R1263C
1669.237	251.224	844059	REC_END	n/a	n/a	4	-999	n/a	n/a	n/a	n/a	9	[0, 0, 0]	-999	PAL1	3	R1263C
1920.461	10.45	969662	ENCODING_START	n/a	n/a	0	-999	n/a	n/a	n/a	n/a	10	[0, 0, 0]	-999	PAL1	3	R1263C
1930.911	0.275	974887	STUDY_ORIENT	n/a	n/a	1	1	POND	BRANCH	POND	BRANCH	10	[0, 0, 0]	-999	PAL1	3	R1263C
1931.811	4.0	975337	STUDY_PAIR	n/a	wordpools/wordpool_EN.txt	1	1	POND	BRANCH	POND	BRANCH	10	[0, 0, 0]	-999	PAL1	3	R1263C
1936.829	0.275	977846	STUDY_ORIENT	n/a	n/a	2	2	CAT	BOOT	CAT	BOOT	10	[0, 0, 0]	-999	PAL1	3	R1263C
1937.746	4.0	978304	STUDY_PAIR	n/a	wordpools/wordpool_EN.txt	2	2	CAT	BOOT	CAT	BOOT	10	[0, 0, 0]	-999	PAL1	3	R1263C
1942.78	0.275	980821	STUDY_ORIENT	n/a	n/a	3	3	WORLD	SLIME	WORLD	SLIME	10	[0, 0, 0]	-999	PAL1	3	R1263C
1943.78	4.0	981321	STUDY_PAIR	n/a	wordpools/wordpool_EN.txt	3	3	WORLD	SLIME	WORLD	SLIME	10	[0, 0, 0]	-999	PAL1	3	R1263C
1948.798	0.275	983830	STUDY_ORIENT	n/a	n/a	4	4	HEN	n/a	HEN	STOVE	10	[0, 0, 0]	-999	PAL1	3	R1263C
1949.715	4.0	984288	STUDY_PAIR	n/a	wordpools/wordpool_EN.txt	4	4	HEN	n/a	HEN	STOVE	10	[0, 0, 0]	-999	PAL1	3	R1263C
1954.749	0.275	986805	STUDY_ORIENT	n/a	n/a	5	5	SWORD	n/a	HOSE	SWORD	10	[0, 0, 0]	-999	PAL1	3	R1263C
1955.749	4.0	987305	STUDY_PAIR	n/a	wordpools/wordpool_EN.txt	5	5	SWORD	n/a	HOSE	SWORD	10	[0, 0, 0]	-999	PAL1	3	R1263C
1960.783	0.275	989822	STUDY_ORIENT	n/a	n/a	6	6	TANK	MAT	MAT	TANK	10	[0, 0, 0]	-999	PAL1	3	R1263C
1961.717	4.0	990289	STUDY_PAIR	n/a	wordpools/wordpool_EN.txt	6	6	TANK	MAT	MAT	TANK	10	[0, 0, 0]	-999	PAL1	3	R1263C
1965.735	0.999	992298	START	n/a	n/a	-999	-999	n/a	n/a	n/a	n/a	10	[-999, -999, -999]	-999	PAL1	3	R1263C
1966.734	0.017	992797	MATH_START	n/a	n/a	-999	-999	n/a	n/a	n/a	n/a	10	[0, 0, 0]	-999	PAL1	3	R1263C
1966.751	4.084	992806	PROB	4062.0	n/a	-999	-999	n/a	n/a	n/a	n/a	10	[7, 8, 1]	16	PAL1	3	R1263C
1970.835	7.618	994848	PROB	7586.0	n/a	-999	-999	n/a	n/a	n/a	n/a	10	[7, 7, 4]	18	PAL1	3	R1263C
1978.453	8.536	998656	PROB	8536.0	n/a	-999	-999	n/a	n/a	n/a	n/a	10	[9, 8, 8]	24	PAL1	3	R1263C
1986.989	0.016	1002924	STOP	n/a	n/a	-999	-999	n/a	n/a	n/a	n/a	10	[-999, -999, -999]	-999	PAL1	3	R1263C
1987.005	0.0	1002932	MATH_END	n/a	n/a	-999	-999	n/a	n/a	n/a	n/a	10	[0, 0, 0]	-999	PAL1	3	R1263C
1987.005	0.017	1002932	TEST_START	n/a	n/a	-999	-999	n/a	n/a	n/a	n/a	10	[0, 0, 0]	-999	PAL1	3	R1263C
1987.022	0.275	1002941	TEST_ORIENT	n/a	n/a	1	1	POND	BRANCH	POND	BRANCH	10	[0, 0, 0]	-999	PAL1	3	R1263C
1987.922	4.0	1003391	TEST_PROBE	n/a	wordpools/wordpool_EN.txt	1	1	POND	BRANCH	POND	BRANCH	10	[0, 0, 0]	-999	PAL1	3	R1263C
1987.923	2.176	1003391	REC_START	n/a	n/a	1	-999	n/a	BRANCH	n/a	n/a	10	[0, 0, 0]	-999	PAL1	3	R1263C
1990.099	0.728	1004479	REC_EVENT	2176.0	n/a	1	1	POND	BRANCH	POND	BRANCH	10	[0, 0, 0]	-999	PAL1	3	R1263C
1990.827	2.112	1004843	REC_EVENT	2904.0	n/a	1	1	POND	<>	POND	BRANCH	10	[0, 0, 0]	-999	PAL1	3	R1263C
1992.939	0.017	1005899	REC_END	n/a	n/a	1	-999	n/a	n/a	n/a	n/a	10	[0, 0, 0]	-999	PAL1	3	R1263C
1992.956	0.275	1005907	TEST_ORIENT	n/a	n/a	2	2	CAT	BOOT	CAT	BOOT	10	[0, 0, 0]	-999	PAL1	3	R1263C
1993.906	4.0	1006382	TEST_PROBE	n/a	wordpools/wordpool_EN.txt	2	2	CAT	BOOT	CAT	BOOT	10	[0, 0, 0]	-999	PAL1	3	R1263C
1993.907	1.03	1006383	REC_START	n/a	n/a	2	-999	n/a	BOOT	n/a	n/a	10	[0, 0, 0]	-999	PAL1	3	R1263C
1994.937	0.627	1006898	REC_EVENT	1030.0	n/a	2	2	CAT	BOOT	CAT	BOOT	10	[0, 0, 0]	-999	PAL1	3	R1263C
1995.564	3.351	1007211	REC_EVENT	1657.0	n/a	2	2	CAT	<>	CAT	BOOT	10	[0, 0, 0]	-999	PAL1	3	R1263C
1998.915	0.009	1008887	REC_END	n/a	n/a	2	-999	n/a	n/a	n/a	n/a	10	[0, 0, 0]	-999	PAL1	3	R1263C
1998.924	0.275	1008891	TEST_ORIENT	n/a	n/a	3	3	WORLD	SLIME	WORLD	SLIME	10	[0, 0, 0]	-999	PAL1	3	R1263C
1999.958	4.0	1009408	TEST_PROBE	n/a	wordpools/wordpool_EN.txt	3	3	WORLD	SLIME	WORLD	SLIME	10	[0, 0, 0]	-999	PAL1	3	R1263C
1999.958	1.182	1009408	REC_START	n/a	n/a	3	-999	n/a	SLIME	n/a	n/a	10	[0, 0, 0]	-999	PAL1	3	R1263C
2001.14	0.525	1009999	REC_EVENT	1182.0	n/a	3	3	WORLD	SLIME	WORLD	SLIME	10	[0, 0, 0]	-999	PAL1	3	R1263C
2001.665	3.31	1010262	REC_EVENT	1707.0	n/a	3	3	WORLD	<>	WORLD	SLIME	10	[0, 0, 0]	-999	PAL1	3	R1263C
2004.975	0.017	1011916	REC_END	n/a	n/a	3	-999	n/a	n/a	n/a	n/a	10	[0, 0, 0]	-999	PAL1	3	R1263C
2004.992	0.275	1011925	TEST_ORIENT	n/a	n/a	4	4	HEN	n/a	HEN	STOVE	10	[0, 0, 0]	-999	PAL1	3	R1263C
2006.025	4.0	1012441	TEST_PROBE	n/a	wordpools/wordpool_EN.txt	4	4	HEN	n/a	HEN	STOVE	10	[0, 0, 0]	-999	PAL1	3	R1263C
2006.026	3.041	1012442	REC_START	n/a	n/a	4	-999	n/a	n/a	n/a	n/a	10	[0, 0, 0]	-999	PAL1	3	R1263C
2009.067	1.0	1013962	REC_EVENT	3041.0	n/a	4	4	HEN	<>	HEN	STOVE	10	[0, 0, 0]	-999	PAL1	3	R1263C
2010.067	0.967	1014462	REC_EVENT	4041.0	n/a	4	4	HEN	<>	HEN	STOVE	10	[0, 0, 0]	-999	PAL1	3	R1263C
2011.034	0.009	1014946	REC_END	n/a	n/a	4	-999	n/a	n/a	n/a	n/a	10	[0, 0, 0]	-999	PAL1	3	R1263C
2011.043	0.275	1014950	TEST_ORIENT	n/a	n/a	5	5	SWORD	n/a	HOSE	SWORD	10	[0, 0, 0]	-999	PAL1	3	R1263C
2012.06	4.0	1015459	TEST_PROBE	n/a	wordpools/wordpool_EN.txt	5	5	SWORD	n/a	HOSE	SWORD	10	[0, 0, 0]	-999	PAL1	3	R1263C
2012.06	1.489	1015459	REC_START	n/a	n/a	5	-999	n/a	n/a	n/a	n/a	10	[0, 0, 0]	-999	PAL1	3	R1263C
2013.549	0.438	1016203	REC_EVENT	1489.0	n/a	5	5	SWORD	<>	HOSE	SWORD	10	[0, 0, 0]	-999	PAL1	3	R1263C
2013.987	3.09	1016422	REC_EVENT	1927.0	n/a	5	5	SWORD	<>	HOSE	SWORD	10	[0, 0, 0]	-999	PAL1	3	R1263C
2017.077	0.017	1017967	REC_END	n/a	n/a	5	-999	n/a	n/a	n/a	n/a	10	[0, 0, 0]	-999	PAL1	3	R1263C
2017.094	0.275	1017975	TEST_ORIENT	n/a	n/a	6	6	TANK	MAT	MAT	TANK	10	[0, 0, 0]	-999	PAL1	3	R1263C
2018.028	4.0	1018442	TEST_PROBE	n/a	wordpools/wordpool_EN.txt	6	6	TANK	MAT	MAT	TANK	10	[0, 0, 0]	-999	PAL1	3	R1263C
2018.028	1.273	1018442	REC_START	n/a	n/a	6	-999	n/a	MAT	n/a	n/a	10	[0, 0, 0]	-999	PAL1	3	R1263C
2019.301	0.771	1019079	REC_EVENT	1273.0	n/a	6	6	TANK	MAT	MAT	TANK	10	[0, 0, 0]	-999	PAL1	3	R1263C
2020.072	2.973	1019464	REC_EVENT	2044.0	n/a	6	6	TANK	<>	MAT	TANK	10	[0, 0, 0]	-999	PAL1	3	R1263C
2023.045	1.672	1020951	REC_END	n/a	n/a	6	-999	n/a	n/a	n/a	n/a	10	[0, 0, 0]	-999	PAL1	3	R1263C
2024.717	10.447	1021787	ENCODING_START	n/a	n/a	0	-999	n/a	n/a	n/a	n/a	11	[0, 0, 0]	-999	PAL1	3	R1263C
2035.164	0.275	1027010	STUDY_ORIENT	n/a	n/a	1	5	ROOT	n/a	ROOT	VEST	11	[0, 0, 0]	-999	PAL1	3	R1263C
2036.064	4.0	1027460	STUDY_PAIR	n/a	wordpools/wordpool_EN.txt	1	5	ROOT	n/a	ROOT	VEST	11	[0, 0, 0]	-999	PAL1	3	R1263C
2041.082	0.275	1029969	STUDY_ORIENT	n/a	n/a	2	6	MAP	n/a	MAP	CAPE	11	[0, 0, 0]	-999	PAL1	3	R1263C
2042.016	4.0	1030436	STUDY_PAIR	n/a	wordpools/wordpool_EN.txt	2	6	MAP	n/a	MAP	CAPE	11	[0, 0, 0]	-999	PAL1	3	R1263C
2047.05	0.275	1032952	STUDY_ORIENT	n/a	n/a	3	1	TOOTH	CROWN	TOOTH	CROWN	11	[0, 0, 0]	-999	PAL1	3	R1263C
2047.95	4.0	1033402	STUDY_PAIR	n/a	wordpools/wordpool_EN.txt	3	1	TOOTH	CROWN	TOOTH	CROWN	11	[0, 0, 0]	-999	PAL1	3	R1263C
2052.984	0.275	1035919	STUDY_ORIENT	n/a	n/a	4	4	STAR	n/a	STAR	FUDGE	11	[0, 0, 0]	-999	PAL1	3	R1263C
2053.918	4.0	1036386	STUDY_PAIR	n/a	wordpools/wordpool_EN.txt	4	4	STAR	n/a	STAR	FUDGE	11	[0, 0, 0]	-999	PAL1	3	R1263C
2058.952	0.275	1038903	STUDY_ORIENT	n/a	n/a	5	3	BAG	PURSE	PURSE	BAG	11	[0, 0, 0]	-999	PAL1	3	R1263C
2059.769	4.0	1039311	STUDY_PAIR	n/a	wordpools/wordpool_EN.txt	5	3	BAG	PURSE	PURSE	BAG	11	[0, 0, 0]	-999	PAL1	3	R1263C
2064.803	0.275	1041828	STUDY_ORIENT	n/a	n/a	6	2	BEAK	BIRD	BEAK	GEESE	11	[0, 0, 0]	-999	PAL1	3	R1263C
2065.586	4.0	1042220	STUDY_PAIR	n/a	wordpools/wordpool_EN.txt	6	2	BEAK	BIRD	BEAK	GEESE	11	[0, 0, 0]	-999	PAL1	3	R1263C
2069.605	0.999	1044229	START	n/a	n/a	-999	-999	n/a	n/a	n/a	n/a	11	[-999, -999, -999]	-999	PAL1	3	R1263C
2070.604	0.017	1044729	MATH_START	n/a	n/a	-999	-999	n/a	n/a	n/a	n/a	11	[0, 0, 0]	-999	PAL1	3	R1263C
2070.621	8.468	1044737	PROB	8440.0	n/a	-999	-999	n/a	n/a	n/a	n/a	11	[6, 5, 6]	17	PAL1	3	R1263C
2079.089	4.985	1048971	PROB	4964.0	n/a	-999	-999	n/a	n/a	n/a	n/a	11	[4, 1, 1]	6	PAL1	3	R1263C
2084.074	4.884	1051463	PROB	4851.0	n/a	-999	-999	n/a	n/a	n/a	n/a	11	[2, 9, 9]	20	PAL1	3	R1263C
2088.958	6.55	1053905	PROB	6550.0	n/a	-999	-999	n/a	n/a	n/a	n/a	11	[9, 7, 2]	18	PAL1	3	R1263C
2095.508	0.017	1057180	STOP	n/a	n/a	-999	-999	n/a	n/a	n/a	n/a	11	[-999, -999, -999]	-999	PAL1	3	R1263C
2095.525	0.0	1057188	MATH_END	n/a	n/a	-999	-999	n/a	n/a	n/a	n/a	11	[0, 0, 0]	-999	PAL1	3	R1263C
2095.525	0.016	1057188	TEST_START	n/a	n/a	-999	-999	n/a	n/a	n/a	n/a	11	[0, 0, 0]	-999	PAL1	3	R1263C
2095.541	0.275	1057196	TEST_ORIENT	n/a	n/a	3	1	TOOTH	CROWN	TOOTH	CROWN	11	[0, 0, 0]	-999	PAL1	3	R1263C
2096.393	4.0	1057622	TEST_PROBE	n/a	wordpools/wordpool_EN.txt	3	1	TOOTH	CROWN	TOOTH	CROWN	11	[0, 0, 0]	-999	PAL1	3	R1263C
2096.393	1.596	1057622	REC_START	n/a	n/a	3	-999	n/a	CROWN	n/a	n/a	11	[0, 0, 0]	-999	PAL1	3	R1263C
2097.989	0.298	1058420	REC_EVENT	1596.0	n/a	3	1	TOOTH	CROWN	TOOTH	CROWN	11	[0, 0, 0]	-999	PAL1	3	R1263C
2098.287	3.123	1058569	REC_EVENT	1894.0	n/a	3	1	TOOTH	<>	TOOTH	CROWN	11	[0, 0, 0]	-999	PAL1	3	R1263C
2101.41	0.017	1060131	REC_END	n/a	n/a	3	-999	n/a	n/a	n/a	n/a	11	[0, 0, 0]	-999	PAL1	3	R1263C
2101.427	0.275	1060139	TEST_ORIENT	n/a	n/a	6	2	BEAK	BIRD	BEAK	GEESE	11	[0, 0, 0]	-999	PAL1	3	R1263C
2102.277	0.0	1060564	REC_START	n/a	n/a	6	-999	n/a	BIRD	n/a	n/a	11	[0, 0, 0]	-999	PAL1	3	R1263C
2102.277	4.0	1060564	TEST_PROBE	n/a	wordpools/wordpool_EN.txt	6	2	BEAK	BIRD	BEAK	GEESE	11	[0, 0, 0]	-999	PAL1	3	R1263C
2105.676	0.395	1062263	REC_EVENT	3399.0	n/a	6	2	BEAK	BIRD	BEAK	GEESE	11	[0, 0, 0]	-999	PAL1	3	R1263C
2106.071	1.224	1062461	REC_EVENT	3794.0	n/a	6	2	BEAK	<>	BEAK	GEESE	11	[0, 0, 0]	-999	PAL1	3	R1263C
2107.295	0.016	1063073	REC_END	n/a	n/a	6	-999	n/a	n/a	n/a	n/a	11	[0, 0, 0]	-999	PAL1	3	R1263C
2107.311	0.275	1063081	TEST_ORIENT	n/a	n/a	5	3	BAG	PURSE	PURSE	BAG	11	[0, 0, 0]	-999	PAL1	3	R1263C
2108.278	4.0	1063564	TEST_PROBE	n/a	wordpools/wordpool_EN.txt	5	3	BAG	PURSE	PURSE	BAG	11	[0, 0, 0]	-999	PAL1	3	R1263C
2108.279	1.422	1063565	REC_START	n/a	n/a	5	-999	n/a	PURSE	n/a	n/a	11	[0, 0, 0]	-999	PAL1	3	R1263C
2109.701	0.526	1064276	REC_EVENT	1422.0	n/a	5	3	BAG	PURSE	PURSE	BAG	11	[0, 0, 0]	-999	PAL1	3	R1263C
2110.227	3.06	1064539	REC_EVENT	1948.0	n/a	5	3	BAG	<>	PURSE	BAG	11	[0, 0, 0]	-999	PAL1	3	R1263C
2113.287	0.009	1066069	REC_END	n/a	n/a	5	-999	n/a	n/a	n/a	n/a	11	[0, 0, 0]	-999	PAL1	3	R1263C
2113.296	0.275	1066073	TEST_ORIENT	n/a	n/a	4	4	STAR	n/a	STAR	FUDGE	11	[0, 0, 0]	-999	PAL1	3	R1263C
2114.196	4.0	1066523	TEST_PROBE	n/a	wordpools/wordpool_EN.txt	4	4	STAR	n/a	STAR	FUDGE	11	[0, 0, 0]	-999	PAL1	3	R1263C
2114.197	3.465	1066524	REC_START	n/a	n/a	4	-999	n/a	n/a	n/a	n/a	11	[0, 0, 0]	-999	PAL1	3	R1263C
2117.662	1.0	1068256	REC_EVENT	3465.0	n/a	4	4	STAR	<>	STAR	FUDGE	11	[0, 0, 0]	-999	PAL1	3	R1263C
2118.662	0.551	1068756	REC_EVENT	4465.0	n/a	4	4	STAR	<>	STAR	FUDGE	11	[0, 0, 0]	-999	PAL1	3	R1263C
2119.213	0.017	1069031	REC_END	n/a	n/a	4	-999	n/a	n/a	n/a	n/a	11	[0, 0, 0]	-999	PAL1	3	R1263C
2119.23	0.275	1069040	TEST_ORIENT	n/a	n/a	1	5	ROOT	n/a	ROOT	VEST	11	[0, 0, 0]	-999	PAL1	3	R1263C
2120.114	4.0	1069482	TEST_PROBE	n/a	wordpools/wordpool_EN.txt	1	5	ROOT	n/a	ROOT	VEST	11	[0, 0, 0]	-999	PAL1	3	R1263C
2120.114	3.445	1069482	REC_START	n/a	n/a	1	-999	n/a	n/a	n/a	n/a	11	[0, 0, 0]	-999	PAL1	3	R1263C
2123.559	1.05	1071204	REC_EVENT	3445.0	n/a	1	5	ROOT	<>	ROOT	VEST	11	[0, 0, 0]	-999	PAL1	3	R1263C
2124.609	0.522	1071729	REC_EVENT	4495.0	n/a	1	5	ROOT	<>	ROOT	VEST	11	[0, 0, 0]	-999	PAL1	3	R1263C
2125.131	0.017	1071990	REC_END	n/a	n/a	1	-999	n/a	n/a	n/a	n/a	11	[0, 0, 0]	-999	PAL1	3	R1263C
2125.148	0.275	1071999	TEST_ORIENT	n/a	n/a	2	6	MAP	n/a	MAP	CAPE	11	[0, 0, 0]	-999	PAL1	3	R1263C
2126.132	4.0	1072491	TEST_PROBE	n/a	wordpools/wordpool_EN.txt	2	6	MAP	n/a	MAP	CAPE	11	[0, 0, 0]	-999	PAL1	3	R1263C
2126.132	4.032	1072491	REC_START	n/a	n/a	2	-999	n/a	n/a	n/a	n/a	11	[0, 0, 0]	-999	PAL1	3	R1263C
2130.164	0.983	1074507	REC_EVENT	4032.0	n/a	2	6	MAP	<>	MAP	CAPE	11	[0, 0, 0]	-999	PAL1	3	R1263C
2131.147	0.002	1074998	REC_EVENT	5015.0	n/a	2	6	MAP	<>	MAP	CAPE	11	[0, 0, 0]	-999	PAL1	3	R1263C
2131.149	57.383	1074999	REC_END	n/a	n/a	2	-999	n/a	n/a	n/a	n/a	11	[0, 0, 0]	-999	PAL1	3	R1263C
2188.532	10.447	1103688	ENCODING_START	n/a	n/a	0	-999	n/a	n/a	n/a	n/a	12	[0, 0, 0]	-999	PAL1	3	R1263C
2198.979	0.275	1108912	STUDY_ORIENT	n/a	n/a	1	3	CANE	LAMB	LAMB	CANE	12	[0, 0, 0]	-999	PAL1	3	R1263C
2199.829	4.0	1109337	STUDY_PAIR	n/a	wordpools/wordpool_EN.txt	1	3	CANE	LAMB	LAMB	CANE	12	[0, 0, 0]	-999	PAL1	3	R1263C
2204.863	0.275	1111853	STUDY_ORIENT	n/a	n/a	2	4	EAR	STICK	STICK	EAR	12	[0, 0, 0]	-999	PAL1	3	R1263C
2205.697	4.0	1112270	STUDY_PAIR	n/a	wordpools/wordpool_EN.txt	2	4	EAR	STICK	STICK	EAR	12	[0, 0, 0]	-999	PAL1	3	R1263C
2210.731	0.275	1114787	STUDY_ORIENT	n/a	n/a	3	1	TRUCK	SWAMP	SWAMP	TRUCK	12	[0, 0, 0]	-999	PAL1	3	R1263C
2211.648	4.0	1115246	STUDY_PAIR	n/a	wordpools/wordpool_EN.txt	3	1	TRUCK	SWAMP	SWAMP	TRUCK	12	[0, 0, 0]	-999	PAL1	3	R1263C
2216.682	0.275	1117762	STUDY_ORIENT	n/a	n/a	4	2	GRAPE	n/a	FOG	GRAPE	12	[0, 0, 0]	-999	PAL1	3	R1263C
2217.632	4.0	1118237	STUDY_PAIR	n/a	wordpools/wordpool_EN.txt	4	2	GRAPE	n/a	FOG	GRAPE	12	[0, 0, 0]	-999	PAL1	3	R1263C
2222.65	0.275	1120746	STUDY_ORIENT	n/a	n/a	5	5	SEED	n/a	BOY	SEED	12	[0, 0, 0]	-999	PAL1	3	R1263C
2223.6	4.0	1121221	STUDY_PAIR	n/a	wordpools/wordpool_EN.txt	5	5	SEED	n/a	BOY	SEED	12	[0, 0, 0]	-999	PAL1	3	R1263C
2228.618	0.275	1123730	STUDY_ORIENT	n/a	n/a	6	6	SPRING	n/a	STONE	SPRING	12	[0, 0, 0]	-999	PAL1	3	R1263C
2229.418	4.0	1124130	STUDY_PAIR	n/a	wordpools/wordpool_EN.txt	6	6	SPRING	n/a	STONE	SPRING	12	[0, 0, 0]	-999	PAL1	3	R1263C
2233.436	0.999	1126139	START	n/a	n/a	-999	-999	n/a	n/a	n/a	n/a	12	[-999, -999, -999]	-999	PAL1	3	R1263C
2234.435	0.017	1126638	MATH_START	n/a	n/a	-999	-999	n/a	n/a	n/a	n/a	12	[0, 0, 0]	-999	PAL1	3	R1263C
2234.452	9.852	1126647	PROB	9825.0	n/a	-999	-999	n/a	n/a	n/a	n/a	12	[2, 2, 8]	12	PAL1	3	R1263C
2244.304	4.068	1131572	PROB	4037.0	n/a	-999	-999	n/a	n/a	n/a	n/a	12	[3, 7, 2]	12	PAL1	3	R1263C
2248.372	8.065	1133606	PROB	8065.0	n/a	-999	-999	n/a	n/a	n/a	n/a	12	[7, 5, 8]	20	PAL1	3	R1263C
2256.437	0.003	1137639	STOP	n/a	n/a	-999	-999	n/a	n/a	n/a	n/a	12	[-999, -999, -999]	-999	PAL1	3	R1263C
2256.44	0.0	1137640	MATH_END	n/a	n/a	-999	-999	n/a	n/a	n/a	n/a	12	[0, 0, 0]	-999	PAL1	3	R1263C
2256.44	0.017	1137640	TEST_START	n/a	n/a	-999	-999	n/a	n/a	n/a	n/a	12	[0, 0, 0]	-999	PAL1	3	R1263C
2256.457	0.275	1137649	TEST_ORIENT	n/a	n/a	3	1	TRUCK	SWAMP	SWAMP	TRUCK	12	[0, 0, 0]	-999	PAL1	3	R1263C
2257.457	4.0	1138149	TEST_PROBE	n/a	wordpools/wordpool_EN.txt	3	1	TRUCK	SWAMP	SWAMP	TRUCK	12	[0, 0, 0]	-999	PAL1	3	R1263C
2257.457	0.957	1138149	REC_START	n/a	n/a	3	-999	n/a	SWAMP	n/a	n/a	12	[0, 0, 0]	-999	PAL1	3	R1263C
2258.414	0.99	1138627	REC_EVENT	957.0	n/a	3	1	TRUCK	SWAMP	SWAMP	TRUCK	12	[0, 0, 0]	-999	PAL1	3	R1263C
2259.404	3.07	1139122	REC_EVENT	1947.0	n/a	3	1	TRUCK	<>	SWAMP	TRUCK	12	[0, 0, 0]	-999	PAL1	3	R1263C
2262.474	0.017	1140657	REC_END	n/a	n/a	3	-999	n/a	n/a	n/a	n/a	12	[0, 0, 0]	-999	PAL1	3	R1263C
2262.491	0.275	1140665	TEST_ORIENT	n/a	n/a	4	2	GRAPE	n/a	FOG	GRAPE	12	[0, 0, 0]	-999	PAL1	3	R1263C
2263.474	4.0	1141157	TEST_PROBE	n/a	wordpools/wordpool_EN.txt	4	2	GRAPE	n/a	FOG	GRAPE	12	[0, 0, 0]	-999	PAL1	3	R1263C
2263.475	0.829	1141157	REC_START	n/a	n/a	4	-999	n/a	n/a	n/a	n/a	12	[0, 0, 0]	-999	PAL1	3	R1263C
2264.304	1.0	1141572	REC_EVENT	829.0	n/a	4	2	GRAPE	<>	FOG	GRAPE	12	[0, 0, 0]	-999	PAL1	3	R1263C
2265.304	3.179	1142072	REC_EVENT	1829.0	n/a	4	2	GRAPE	<>	FOG	GRAPE	12	[0, 0, 0]	-999	PAL1	3	R1263C
2268.483	0.009	1143661	REC_END	n/a	n/a	4	-999	n/a	n/a	n/a	n/a	12	[0, 0, 0]	-999	PAL1	3	R1263C
2268.492	0.275	1143666	TEST_ORIENT	n/a	n/a	1	3	CANE	LAMB	LAMB	CANE	12	[0, 0, 0]	-999	PAL1	3	R1263C
2269.392	4.0	1144116	TEST_PROBE	n/a	wordpools/wordpool_EN.txt	1	3	CANE	LAMB	LAMB	CANE	12	[0, 0, 0]	-999	PAL1	3	R1263C
2269.393	2.894	1144116	REC_START	n/a	n/a	1	-999	n/a	LAMB	n/a	n/a	12	[0, 0, 0]	-999	PAL1	3	R1263C
2272.287	0.356	1145563	REC_EVENT	2894.0	n/a	1	3	CANE	LAMB	LAMB	CANE	12	[0, 0, 0]	-999	PAL1	3	R1263C
2272.643	1.75	1145741	REC_EVENT	3250.0	n/a	1	3	CANE	<>	LAMB	CANE	12	[0, 0, 0]	-999	PAL1	3	R1263C
2274.393	0.017	1146616	REC_END	n/a	n/a	1	-999	n/a	n/a	n/a	n/a	12	[0, 0, 0]	-999	PAL1	3	R1263C
2274.41	0.275	1146624	TEST_ORIENT	n/a	n/a	2	4	EAR	STICK	STICK	EAR	12	[0, 0, 0]	-999	PAL1	3	R1263C
2275.293	4.0	1147066	TEST_PROBE	n/a	wordpools/wordpool_EN.txt	2	4	EAR	STICK	STICK	EAR	12	[0, 0, 0]	-999	PAL1	3	R1263C
2275.294	1.577	1147066	REC_START	n/a	n/a	2	-999	n/a	STICK	n/a	n/a	12	[0, 0, 0]	-999	PAL1	3	R1263C
2276.871	0.79	1147855	REC_EVENT	1577.0	n/a	2	4	EAR	STICK	STICK	EAR	12	[0, 0, 0]	-999	PAL1	3	R1263C
2277.661	2.642	1148250	REC_EVENT	2367.0	n/a	2	4	EAR	<>	STICK	EAR	12	[0, 0, 0]	-999	PAL1	3	R1263C
2280.303	0.008	1149571	REC_END	n/a	n/a	2	-999	n/a	n/a	n/a	n/a	12	[0, 0, 0]	-999	PAL1	3	R1263C
2280.311	0.275	1149575	TEST_ORIENT	n/a	n/a	5	5	SEED	n/a	BOY	SEED	12	[0, 0, 0]	-999	PAL1	3	R1263C
2281.195	4.0	1150017	TEST_PROBE	n/a	wordpools/wordpool_EN.txt	5	5	SEED	n/a	BOY	SEED	12	[0, 0, 0]	-999	PAL1	3	R1263C
2281.195	3.004	1150017	REC_START	n/a	n/a	5	-999	n/a	n/a	n/a	n/a	12	[0, 0, 0]	-999	PAL1	3	R1263C
2284.199	1.0	1151519	REC_EVENT	3004.0	n/a	5	5	SEED	<>	BOY	SEED	12	[0, 0, 0]	-999	PAL1	3	R1263C
2285.199	1.013	1152019	REC_EVENT	4004.0	n/a	5	5	SEED	<>	BOY	SEED	12	[0, 0, 0]	-999	PAL1	3	R1263C
2286.212	0.017	1152525	REC_END	n/a	n/a	5	-999	n/a	n/a	n/a	n/a	12	[0, 0, 0]	-999	PAL1	3	R1263C
2286.229	0.275	1152534	TEST_ORIENT	n/a	n/a	6	6	SPRING	n/a	STONE	SPRING	12	[0, 0, 0]	-999	PAL1	3	R1263C
2287.129	4.0	1152983	TEST_PROBE	n/a	wordpools/wordpool_EN.txt	6	6	SPRING	n/a	STONE	SPRING	12	[0, 0, 0]	-999	PAL1	3	R1263C
2287.129	3.482	1152983	REC_START	n/a	n/a	6	-999	n/a	n/a	n/a	n/a	12	[0, 0, 0]	-999	PAL1	3	R1263C
2290.611	1.0	1154724	REC_EVENT	3482.0	n/a	6	6	SPRING	<>	STONE	SPRING	12	[0, 0, 0]	-999	PAL1	3	R1263C
2291.611	0.535	1155224	REC_EVENT	4482.0	n/a	6	6	SPRING	<>	STONE	SPRING	12	[0, 0, 0]	-999	PAL1	3	R1263C
2292.146	1.755	1155492	REC_END	n/a	n/a	6	-999	n/a	n/a	n/a	n/a	12	[0, 0, 0]	-999	PAL1	3	R1263C
2293.901	10.448	1156369	ENCODING_START	n/a	n/a	0	-999	n/a	n/a	n/a	n/a	13	[0, 0, 0]	-999	PAL1	3	R1263C
2304.349	0.275	1161593	STUDY_ORIENT	n/a	n/a	1	3	FLEA	RAT	RAT	FLEA	13	[0, 0, 0]	-999	PAL1	3	R1263C
2305.283	4.0	1162060	STUDY_PAIR	n/a	wordpools/wordpool_EN.txt	1	3	FLEA	RAT	RAT	FLEA	13	[0, 0, 0]	-999	PAL1	3	R1263C
2310.317	0.275	1164577	STUDY_ORIENT	n/a	n/a	2	2	LAWN	BOAT	BOAT	LAWN	13	[0, 0, 0]	-999	PAL1	3	R1263C
2311.3	4.0	1165068	STUDY_PAIR	n/a	wordpools/wordpool_EN.txt	2	2	LAWN	BOAT	BOAT	LAWN	13	[0, 0, 0]	-999	PAL1	3	R1263C
2316.318	0.275	1167577	STUDY_ORIENT	n/a	n/a	3	1	BATH	n/a	PEAR	BATH	13	[0, 0, 0]	-999	PAL1	3	R1263C
2317.152	4.0	1167994	STUDY_PAIR	n/a	wordpools/wordpool_EN.txt	3	1	BATH	n/a	PEAR	BATH	13	[0, 0, 0]	-999	PAL1	3	R1263C
2322.186	0.275	1170511	STUDY_ORIENT	n/a	n/a	4	6	SHIRT	n/a	SHIRT	SAIL	13	[0, 0, 0]	-999	PAL1	3	R1263C
2323.002	4.0	1170919	STUDY_PAIR	n/a	wordpools/wordpool_EN.txt	4	6	SHIRT	n/a	SHIRT	SAIL	13	[0, 0, 0]	-999	PAL1	3	R1263C
2328.02	0.275	1173428	STUDY_ORIENT	n/a	n/a	5	5	PIE	GLASS	PIE	GLASS	13	[0, 0, 0]	-999	PAL1	3	R1263C
2328.937	4.0	1173886	STUDY_PAIR	n/a	wordpools/wordpool_EN.txt	5	5	PIE	GLASS	PIE	GLASS	13	[0, 0, 0]	-999	PAL1	3	R1263C
2333.971	0.275	1176403	STUDY_ORIENT	n/a	n/a	6	4	FLAG	WALL	FLAG	BRICK	13	[0, 0, 0]	-999	PAL1	3	R1263C
2334.988	4.0	1176911	STUDY_PAIR	n/a	wordpools/wordpool_EN.txt	6	4	FLAG	WALL	FLAG	BRICK	13	[0, 0, 0]	-999	PAL1	3	R1263C
2338.989	1.0	1178912	START	n/a	n/a	-999	-999	n/a	n/a	n/a	n/a	13	[-999, -999, -999]	-999	PAL1	3	R1263C
2339.989	0.017	1179412	MATH_START	n/a	n/a	-999	-999	n/a	n/a	n/a	n/a	13	[0, 0, 0]	-999	PAL1	3	R1263C
2340.006	9.352	1179420	PROB	9327.0	n/a	-999	-999	n/a	n/a	n/a	n/a	13	[2, 2, 6]	10	PAL1	3	R1263C
2349.358	3.934	1184096	PROB	3903.0	n/a	-999	-999	n/a	n/a	n/a	n/a	13	[6, 1, 2]	9	PAL1	3	R1263C
2353.292	11.745	1186063	PROB	11745.0	n/a	-999	-999	n/a	n/a	n/a	n/a	13	[2, 6, 9]	17	PAL1	3	R1263C
2365.037	0.007	1191935	STOP	n/a	n/a	-999	-999	n/a	n/a	n/a	n/a	13	[-999, -999, -999]	-999	PAL1	3	R1263C
2365.044	0.0	1191938	MATH_END	n/a	n/a	-999	-999	n/a	n/a	n/a	n/a	13	[0, 0, 0]	-999	PAL1	3	R1263C
2365.044	0.017	1191938	TEST_START	n/a	n/a	-999	-999	n/a	n/a	n/a	n/a	13	[0, 0, 0]	-999	PAL1	3	R1263C
2365.061	0.275	1191947	TEST_ORIENT	n/a	n/a	3	1	BATH	n/a	PEAR	BATH	13	[0, 0, 0]	-999	PAL1	3	R1263C
2365.994	4.0	1192413	TEST_PROBE	n/a	wordpools/wordpool_EN.txt	3	1	BATH	n/a	PEAR	BATH	13	[0, 0, 0]	-999	PAL1	3	R1263C
2365.994	0.948	1192413	REC_START	n/a	n/a	3	-999	n/a	n/a	n/a	n/a	13	[0, 0, 0]	-999	PAL1	3	R1263C
2366.942	1.0	1192887	REC_EVENT	948.0	n/a	3	1	BATH	<>	PEAR	BATH	13	[0, 0, 0]	-999	PAL1	3	R1263C
2367.942	3.069	1193387	REC_EVENT	1948.0	n/a	3	1	BATH	<>	PEAR	BATH	13	[0, 0, 0]	-999	PAL1	3	R1263C
2371.011	0.017	1194922	REC_END	n/a	n/a	3	-999	n/a	n/a	n/a	n/a	13	[0, 0, 0]	-999	PAL1	3	R1263C
2371.028	0.275	1194930	TEST_ORIENT	n/a	n/a	2	2	LAWN	BOAT	BOAT	LAWN	13	[0, 0, 0]	-999	PAL1	3	R1263C
2371.879	0.0	1195355	REC_START	n/a	n/a	2	-999	n/a	BOAT	n/a	n/a	13	[0, 0, 0]	-999	PAL1	3	R1263C
2371.879	4.0	1195355	TEST_PROBE	n/a	wordpools/wordpool_EN.txt	2	2	LAWN	BOAT	BOAT	LAWN	13	[0, 0, 0]	-999	PAL1	3	R1263C
2373.179	0.637	1196005	REC_EVENT	1300.0	n/a	2	2	LAWN	BOAT	BOAT	LAWN	13	[0, 0, 0]	-999	PAL1	3	R1263C
2373.816	3.08	1196324	REC_EVENT	1937.0	n/a	2	2	LAWN	<>	BOAT	LAWN	13	[0, 0, 0]	-999	PAL1	3	R1263C
2376.896	0.017	1197864	REC_END	n/a	n/a	2	-999	n/a	n/a	n/a	n/a	13	[0, 0, 0]	-999	PAL1	3	R1263C
2376.913	0.275	1197872	TEST_ORIENT	n/a	n/a	1	3	FLEA	RAT	RAT	FLEA	13	[0, 0, 0]	-999	PAL1	3	R1263C
2377.88	4.0	1198356	TEST_PROBE	n/a	wordpools/wordpool_EN.txt	1	3	FLEA	RAT	RAT	FLEA	13	[0, 0, 0]	-999	PAL1	3	R1263C
2377.88	1.398	1198356	REC_START	n/a	n/a	1	-999	n/a	RAT	n/a	n/a	13	[0, 0, 0]	-999	PAL1	3	R1263C
2379.278	0.737	1199055	REC_EVENT	1398.0	n/a	1	3	FLEA	RAT	RAT	FLEA	13	[0, 0, 0]	-999	PAL1	3	R1263C
2380.015	2.882	1199423	REC_EVENT	2135.0	n/a	1	3	FLEA	<>	RAT	FLEA	13	[0, 0, 0]	-999	PAL1	3	R1263C
2382.897	0.017	1200864	REC_END	n/a	n/a	1	-999	n/a	n/a	n/a	n/a	13	[0, 0, 0]	-999	PAL1	3	R1263C
2382.914	0.275	1200873	TEST_ORIENT	n/a	n/a	6	4	FLAG	WALL	FLAG	BRICK	13	[0, 0, 0]	-999	PAL1	3	R1263C
2383.781	4.0	1201306	TEST_PROBE	n/a	wordpools/wordpool_EN.txt	6	4	FLAG	WALL	FLAG	BRICK	13	[0, 0, 0]	-999	PAL1	3	R1263C
2383.781	1.993	1201306	REC_START	n/a	n/a	6	-999	n/a	WALL	n/a	n/a	13	[0, 0, 0]	-999	PAL1	3	R1263C
2385.774	0.398	1202302	REC_EVENT	1993.0	n/a	6	4	FLAG	WALL	FLAG	BRICK	13	[0, 0, 0]	-999	PAL1	3	R1263C
2386.172	2.626	1202501	REC_EVENT	2391.0	n/a	6	4	FLAG	<>	FLAG	BRICK	13	[0, 0, 0]	-999	PAL1	3	R1263C
2388.798	0.017	1203814	REC_END	n/a	n/a	6	-999	n/a	n/a	n/a	n/a	13	[0, 0, 0]	-999	PAL1	3	R1263C
2388.815	0.275	1203823	TEST_ORIENT	n/a	n/a	5	5	PIE	GLASS	PIE	GLASS	13	[0, 0, 0]	-999	PAL1	3	R1263C
2389.632	4.0	1204231	TEST_PROBE	n/a	wordpools/wordpool_EN.txt	5	5	PIE	GLASS	PIE	GLASS	13	[0, 0, 0]	-999	PAL1	3	R1263C
2389.632	1.649	1204231	REC_START	n/a	n/a	5	-999	n/a	GLASS	n/a	n/a	13	[0, 0, 0]	-999	PAL1	3	R1263C
2391.281	0.675	1205056	REC_EVENT	1649.0	n/a	5	5	PIE	GLASS	PIE	GLASS	13	[0, 0, 0]	-999	PAL1	3	R1263C
2391.956	2.693	1205393	REC_EVENT	2324.0	n/a	5	5	PIE	<>	PIE	GLASS	13	[0, 0, 0]	-999	PAL1	3	R1263C
2394.649	0.017	1206740	REC_END	n/a	n/a	5	-999	n/a	n/a	n/a	n/a	13	[0, 0, 0]	-999	PAL1	3	R1263C
2394.666	0.275	1206748	TEST_ORIENT	n/a	n/a	4	6	SHIRT	n/a	SHIRT	SAIL	13	[0, 0, 0]	-999	PAL1	3	R1263C
2395.582	4.0	1207206	TEST_PROBE	n/a	wordpools/wordpool_EN.txt	4	6	SHIRT	n/a	SHIRT	SAIL	13	[0, 0, 0]	-999	PAL1	3	R1263C
2395.583	3.39	1207207	REC_START	n/a	n/a	4	-999	n/a	n/a	n/a	n/a	13	[0, 0, 0]	-999	PAL1	3	R1263C
2398.973	0.5	1208902	REC_EVENT	3390.0	n/a	4	6	SHIRT	<>	SHIRT	SAIL	13	[0, 0, 0]	-999	PAL1	3	R1263C
2399.473	1.127	1209152	REC_EVENT	3890.0	n/a	4	6	SHIRT	<>	SHIRT	SAIL	13	[0, 0, 0]	-999	PAL1	3	R1263C
2400.6	1.637	1209715	REC_END	n/a	n/a	4	-999	n/a	n/a	n/a	n/a	13	[0, 0, 0]	-999	PAL1	3	R1263C
2402.237	10.449	1210533	ENCODING_START	n/a	n/a	0	-999	n/a	n/a	n/a	n/a	14	[0, 0, 0]	-999	PAL1	3	R1263C
2412.686	0.275	1215758	STUDY_ORIENT	n/a	n/a	1	3	DOG	n/a	DOG	TREE	14	[0, 0, 0]	-999	PAL1	3	R1263C
2413.72	4.0	1216275	STUDY_PAIR	n/a	wordpools/wordpool_EN.txt	1	3	DOG	n/a	DOG	TREE	14	[0, 0, 0]	-999	PAL1	3	R1263C
2418.754	0.275	1218791	STUDY_ORIENT	n/a	n/a	2	6	BOARD	n/a	WING	BOARD	14	[0, 0, 0]	-999	PAL1	3	R1263C
2419.587	4.0	1219208	STUDY_PAIR	n/a	wordpools/wordpool_EN.txt	2	6	BOARD	n/a	WING	BOARD	14	[0, 0, 0]	-999	PAL1	3	R1263C
2424.622	0.275	1221725	STUDY_ORIENT	n/a	n/a	3	5	BALL	HOUSE	HOUSE	BALL	14	[0, 0, 0]	-999	PAL1	3	R1263C
2425.554	4.0	1222191	STUDY_PAIR	n/a	wordpools/wordpool_EN.txt	3	5	BALL	HOUSE	HOUSE	BALL	14	[0, 0, 0]	-999	PAL1	3	R1263C
2430.572	0.275	1224700	STUDY_ORIENT	n/a	n/a	4	2	DUCK	n/a	MOON	DUCK	14	[0, 0, 0]	-999	PAL1	3	R1263C
2431.506	4.0	1225167	STUDY_PAIR	n/a	wordpools/wordpool_EN.txt	4	2	DUCK	n/a	MOON	DUCK	14	[0, 0, 0]	-999	PAL1	3	R1263C
2436.54	0.275	1227684	STUDY_ORIENT	n/a	n/a	5	1	HOOK	MAIL	MAIL	HOOK	14	[0, 0, 0]	-999	PAL1	3	R1263C
2437.391	4.0	1228109	STUDY_PAIR	n/a	wordpools/wordpool_EN.txt	5	1	HOOK	MAIL	MAIL	HOOK	14	[0, 0, 0]	-999	PAL1	3	R1263C
2442.425	0.275	1230626	STUDY_ORIENT	n/a	n/a	6	4	SINK	FORK	FORK	SINK	14	[0, 0, 0]	-999	PAL1	3	R1263C
2443.209	4.0	1231018	STUDY_PAIR	n/a	wordpools/wordpool_EN.txt	6	4	SINK	FORK	FORK	SINK	14	[0, 0, 0]	-999	PAL1	3	R1263C
2447.227	0.999	1233027	START	n/a	n/a	-999	-999	n/a	n/a	n/a	n/a	14	[-999, -999, -999]	-999	PAL1	3	R1263C
2448.226	0.017	1233526	MATH_START	n/a	n/a	-999	-999	n/a	n/a	n/a	n/a	14	[0, 0, 0]	-999	PAL1	3	R1263C
2448.243	4.468	1233535	PROB	4442.0	n/a	-999	-999	n/a	n/a	n/a	n/a	14	[3, 4, 4]	11	PAL1	3	R1263C
2452.711	6.101	1235769	PROB	6070.0	n/a	-999	-999	n/a	n/a	n/a	n/a	14	[2, 2, 3]	7	PAL1	3	R1263C
2458.812	8.168	1238819	PROB	8137.0	n/a	-999	-999	n/a	n/a	n/a	n/a	14	[3, 6, 7]	17	PAL1	3	R1263C
2466.98	6.673	1242903	PROB	6673.0	n/a	-999	-999	n/a	n/a	n/a	n/a	14	[3, 7, 8]	18	PAL1	3	R1263C
2473.653	0.012	1246239	STOP	n/a	n/a	-999	-999	n/a	n/a	n/a	n/a	14	[-999, -999, -999]	-999	PAL1	3	R1263C
2473.665	0.0	1246245	MATH_END	n/a	n/a	-999	-999	n/a	n/a	n/a	n/a	14	[0, 0, 0]	-999	PAL1	3	R1263C
2473.665	0.016	1246245	TEST_START	n/a	n/a	-999	-999	n/a	n/a	n/a	n/a	14	[0, 0, 0]	-999	PAL1	3	R1263C
2473.681	0.275	1246253	TEST_ORIENT	n/a	n/a	5	1	HOOK	MAIL	MAIL	HOOK	14	[0, 0, 0]	-999	PAL1	3	R1263C
2474.698	4.0	1246761	TEST_PROBE	n/a	wordpools/wordpool_EN.txt	5	1	HOOK	MAIL	MAIL	HOOK	14	[0, 0, 0]	-999	PAL1	3	R1263C
2474.699	3.076	1246762	REC_START	n/a	n/a	5	-999	n/a	MAIL	n/a	n/a	14	[0, 0, 0]	-999	PAL1	3	R1263C
2477.775	0.575	1248300	REC_EVENT	3076.0	n/a	5	1	HOOK	MAIL	MAIL	HOOK	14	[0, 0, 0]	-999	PAL1	3	R1263C
2478.35	1.374	1248587	REC_EVENT	3651.0	n/a	5	1	HOOK	<>	MAIL	HOOK	14	[0, 0, 0]	-999	PAL1	3	R1263C
2479.724	0.008	1249274	REC_END	n/a	n/a	5	-999	n/a	n/a	n/a	n/a	14	[0, 0, 0]	-999	PAL1	3	R1263C
2479.732	0.275	1249278	TEST_ORIENT	n/a	n/a	4	2	DUCK	n/a	MOON	DUCK	14	[0, 0, 0]	-999	PAL1	3	R1263C
2480.733	4.0	1249779	TEST_PROBE	n/a	wordpools/wordpool_EN.txt	4	2	DUCK	n/a	MOON	DUCK	14	[0, 0, 0]	-999	PAL1	3	R1263C
2480.733	2.284	1249779	REC_START	n/a	n/a	4	-999	n/a	n/a	n/a	n/a	14	[0, 0, 0]	-999	PAL1	3	R1263C
2483.017	0.655	1250921	REC_EVENT	2284.0	n/a	4	2	DUCK	<>	MOON	DUCK	14	[0, 0, 0]	-999	PAL1	3	R1263C
2483.672	2.085	1251248	REC_EVENT	2939.0	n/a	4	2	DUCK	<>	MOON	DUCK	14	[0, 0, 0]	-999	PAL1	3	R1263C
2485.757	0.01	1252290	REC_END	n/a	n/a	4	-999	n/a	n/a	n/a	n/a	14	[0, 0, 0]	-999	PAL1	3	R1263C
2485.767	0.275	1252295	TEST_ORIENT	n/a	n/a	1	3	DOG	n/a	DOG	TREE	14	[0, 0, 0]	-999	PAL1	3	R1263C
2486.784	4.0	1252804	TEST_PROBE	n/a	wordpools/wordpool_EN.txt	1	3	DOG	n/a	DOG	TREE	14	[0, 0, 0]	-999	PAL1	3	R1263C
2486.785	3.877	1252804	REC_START	n/a	n/a	1	-999	n/a	n/a	n/a	n/a	14	[0, 0, 0]	-999	PAL1	3	R1263C
2490.662	0.5	1254743	REC_EVENT	3877.0	n/a	1	3	DOG	<>	DOG	TREE	14	[0, 0, 0]	-999	PAL1	3	R1263C
2491.162	0.647	1254993	REC_EVENT	4377.0	n/a	1	3	DOG	<>	DOG	TREE	14	[0, 0, 0]	-999	PAL1	3	R1263C
2491.809	0.009	1255316	REC_END	n/a	n/a	1	-999	n/a	n/a	n/a	n/a	14	[0, 0, 0]	-999	PAL1	3	R1263C
2491.818	0.275	1255321	TEST_ORIENT	n/a	n/a	6	4	SINK	FORK	FORK	SINK	14	[0, 0, 0]	-999	PAL1	3	R1263C
2492.768	4.0	1255796	TEST_PROBE	n/a	wordpools/wordpool_EN.txt	6	4	SINK	FORK	FORK	SINK	14	[0, 0, 0]	-999	PAL1	3	R1263C
2492.769	1.561	1255796	REC_START	n/a	n/a	6	-999	n/a	FORK	n/a	n/a	14	[0, 0, 0]	-999	PAL1	3	R1263C
2494.33	0.834	1256577	REC_EVENT	1561.0	n/a	6	4	SINK	FORK	FORK	SINK	14	[0, 0, 0]	-999	PAL1	3	R1263C
2495.164	2.613	1256994	REC_EVENT	2395.0	n/a	6	4	SINK	<>	FORK	SINK	14	[0, 0, 0]	-999	PAL1	3	R1263C
2497.777	0.009	1258300	REC_END	n/a	n/a	6	-999	n/a	n/a	n/a	n/a	14	[0, 0, 0]	-999	PAL1	3	R1263C
2497.786	0.275	1258305	TEST_ORIENT	n/a	n/a	3	5	BALL	HOUSE	HOUSE	BALL	14	[0, 0, 0]	-999	PAL1	3	R1263C
2498.585	4.0	1258704	TEST_PROBE	n/a	wordpools/wordpool_EN.txt	3	5	BALL	HOUSE	HOUSE	BALL	14	[0, 0, 0]	-999	PAL1	3	R1263C
2498.586	1.643	1258705	REC_START	n/a	n/a	3	-999	n/a	HOUSE	n/a	n/a	14	[0, 0, 0]	-999	PAL1	3	R1263C
2500.229	0.725	1259526	REC_EVENT	1643.0	n/a	3	5	BALL	HOUSE	HOUSE	BALL	14	[0, 0, 0]	-999	PAL1	3	R1263C
2500.954	2.658	1259888	REC_EVENT	2368.0	n/a	3	5	BALL	<>	HOUSE	BALL	14	[0, 0, 0]	-999	PAL1	3	R1263C
2503.612	0.008	1261217	REC_END	n/a	n/a	3	-999	n/a	n/a	n/a	n/a	14	[0, 0, 0]	-999	PAL1	3	R1263C
2503.62	0.275	1261221	TEST_ORIENT	n/a	n/a	2	6	BOARD	n/a	WING	BOARD	14	[0, 0, 0]	-999	PAL1	3	R1263C
2504.536	4.0	1261679	TEST_PROBE	n/a	wordpools/wordpool_EN.txt	2	6	BOARD	n/a	WING	BOARD	14	[0, 0, 0]	-999	PAL1	3	R1263C
2504.537	2.958	1261680	REC_START	n/a	n/a	2	-999	n/a	n/a	n/a	n/a	14	[0, 0, 0]	-999	PAL1	3	R1263C
2507.495	1.0	1263159	REC_EVENT	2958.0	n/a	2	6	BOARD	<>	WING	BOARD	14	[0, 0, 0]	-999	PAL1	3	R1263C
2508.495	1.05	1263659	REC_EVENT	3958.0	n/a	2	6	BOARD	<>	WING	BOARD	14	[0, 0, 0]	-999	PAL1	3	R1263C
2509.545	1.916	1264184	REC_END	n/a	n/a	2	-999	n/a	n/a	n/a	n/a	14	[0, 0, 0]	-999	PAL1	3	R1263C
2511.461	10.446	1265142	ENCODING_START	n/a	n/a	0	-999	n/a	n/a	n/a	n/a	15	[0, 0, 0]	-999	PAL1	3	R1263C
2521.907	0.275	1270364	STUDY_ORIENT	n/a	n/a	1	1	POLE	n/a	TENT	POLE	15	[0, 0, 0]	-999	PAL1	3	R1263C
2522.924	4.0	1270873	STUDY_PAIR	n/a	wordpools/wordpool_EN.txt	1	1	POLE	n/a	TENT	POLE	15	[0, 0, 0]	-999	PAL1	3	R1263C
2527.958	0.275	1273389	STUDY_ORIENT	n/a	n/a	2	6	STREET	n/a	BOWL	STREET	15	[0, 0, 0]	-999	PAL1	3	R1263C
2528.959	4.0	1273890	STUDY_PAIR	n/a	wordpools/wordpool_EN.txt	2	6	STREET	n/a	BOWL	STREET	15	[0, 0, 0]	-999	PAL1	3	R1263C
2533.993	0.275	1276407	STUDY_ORIENT	n/a	n/a	3	5	ARM	BOX	BOX	ARM	15	[0, 0, 0]	-999	PAL1	3	R1263C
2534.926	4.0	1276873	STUDY_PAIR	n/a	wordpools/wordpool_EN.txt	3	5	ARM	BOX	BOX	ARM	15	[0, 0, 0]	-999	PAL1	3	R1263C
2539.944	0.275	1279382	STUDY_ORIENT	n/a	n/a	4	2	FORT	n/a	FORT	WAVE	15	[0, 0, 0]	-999	PAL1	3	R1263C
2540.944	4.0	1279882	STUDY_PAIR	n/a	wordpools/wordpool_EN.txt	4	2	FORT	n/a	FORT	WAVE	15	[0, 0, 0]	-999	PAL1	3	R1263C
2545.962	0.275	1282391	STUDY_ORIENT	n/a	n/a	5	3	BARN	n/a	BARN	MOLE	15	[0, 0, 0]	-999	PAL1	3	R1263C
2546.745	4.0	1282782	STUDY_PAIR	n/a	wordpools/wordpool_EN.txt	5	3	BARN	n/a	BARN	MOLE	15	[0, 0, 0]	-999	PAL1	3	R1263C
2551.763	0.275	1285291	STUDY_ORIENT	n/a	n/a	6	4	STAIR	n/a	BLUSH	STAIR	15	[0, 0, 0]	-999	PAL1	3	R1263C
2552.596	4.0	1285708	STUDY_PAIR	n/a	wordpools/wordpool_EN.txt	6	4	STAIR	n/a	BLUSH	STAIR	15	[0, 0, 0]	-999	PAL1	3	R1263C
2556.597	1.0	1287708	START	n/a	n/a	-999	-999	n/a	n/a	n/a	n/a	15	[-999, -999, -999]	-999	PAL1	3	R1263C
2557.597	0.017	1288208	MATH_START	n/a	n/a	-999	-999	n/a	n/a	n/a	n/a	15	[0, 0, 0]	-999	PAL1	3	R1263C
2557.614	6.135	1288216	PROB	6111.0	n/a	-999	-999	n/a	n/a	n/a	n/a	15	[9, 3, 8]	20	PAL1	3	R1263C
2563.749	4.384	1291284	PROB	4360.0	n/a	-999	-999	n/a	n/a	n/a	n/a	15	[4, 4, 8]	16	PAL1	3	R1263C
2568.133	4.416	1293476	PROB	4383.0	n/a	-999	-999	n/a	n/a	n/a	n/a	15	[3, 3, 6]	12	PAL1	3	R1263C
2572.549	6.152	1295683	PROB	6152.0	n/a	-999	-999	n/a	n/a	n/a	n/a	15	[2, 2, 5]	9	PAL1	3	R1263C
2578.701	0.017	1298759	STOP	n/a	n/a	-999	-999	n/a	n/a	n/a	n/a	15	[-999, -999, -999]	-999	PAL1	3	R1263C
2578.718	0.0	1298768	MATH_END	n/a	n/a	-999	-999	n/a	n/a	n/a	n/a	15	[0, 0, 0]	-999	PAL1	3	R1263C
2578.718	0.017	1298768	TEST_START	n/a	n/a	-999	-999	n/a	n/a	n/a	n/a	15	[0, 0, 0]	-999	PAL1	3	R1263C
2578.735	0.275	1298776	TEST_ORIENT	n/a	n/a	1	1	POLE	n/a	TENT	POLE	15	[0, 0, 0]	-999	PAL1	3	R1263C
2579.651	4.0	1299234	TEST_PROBE	n/a	wordpools/wordpool_EN.txt	1	1	POLE	n/a	TENT	POLE	15	[0, 0, 0]	-999	PAL1	3	R1263C
2579.652	3.028	1299235	REC_START	n/a	n/a	1	-999	n/a	n/a	n/a	n/a	15	[0, 0, 0]	-999	PAL1	3	R1263C
2582.68	0.756	1300749	REC_EVENT	3028.0	n/a	1	1	POLE	<>	TENT	POLE	15	[0, 0, 0]	-999	PAL1	3	R1263C
2583.436	1.224	1301127	REC_EVENT	3784.0	n/a	1	1	POLE	<>	TENT	POLE	15	[0, 0, 0]	-999	PAL1	3	R1263C
2584.66	0.009	1301738	REC_END	n/a	n/a	1	-999	n/a	n/a	n/a	n/a	15	[0, 0, 0]	-999	PAL1	3	R1263C
2584.669	0.275	1301743	TEST_ORIENT	n/a	n/a	4	2	FORT	n/a	FORT	WAVE	15	[0, 0, 0]	-999	PAL1	3	R1263C
2585.469	4.0	1302143	TEST_PROBE	n/a	wordpools/wordpool_EN.txt	4	2	FORT	n/a	FORT	WAVE	15	[0, 0, 0]	-999	PAL1	3	R1263C
2585.47	2.606	1302143	REC_START	n/a	n/a	4	-999	n/a	n/a	n/a	n/a	15	[0, 0, 0]	-999	PAL1	3	R1263C
2588.076	1.0	1303446	REC_EVENT	2606.0	n/a	4	2	FORT	<>	FORT	WAVE	15	[0, 0, 0]	-999	PAL1	3	R1263C
2589.076	1.402	1303946	REC_EVENT	3606.0	n/a	4	2	FORT	<>	FORT	WAVE	15	[0, 0, 0]	-999	PAL1	3	R1263C
2590.478	0.009	1304647	REC_END	n/a	n/a	4	-999	n/a	n/a	n/a	n/a	15	[0, 0, 0]	-999	PAL1	3	R1263C
2590.487	0.275	1304652	TEST_ORIENT	n/a	n/a	5	3	BARN	n/a	BARN	MOLE	15	[0, 0, 0]	-999	PAL1	3	R1263C
2591.487	4.0	1305152	TEST_PROBE	n/a	wordpools/wordpool_EN.txt	5	3	BARN	n/a	BARN	MOLE	15	[0, 0, 0]	-999	PAL1	3	R1263C
2591.488	3.297	1305152	REC_START	n/a	n/a	5	-999	n/a	n/a	n/a	n/a	15	[0, 0, 0]	-999	PAL1	3	R1263C
2594.785	0.5	1306801	REC_EVENT	3297.0	n/a	5	3	BARN	<>	BARN	MOLE	15	[0, 0, 0]	-999	PAL1	3	R1263C
2595.285	1.212	1307051	REC_EVENT	3797.0	n/a	5	3	BARN	<>	BARN	MOLE	15	[0, 0, 0]	-999	PAL1	3	R1263C
2596.497	0.008	1307657	REC_END	n/a	n/a	5	-999	n/a	n/a	n/a	n/a	15	[0, 0, 0]	-999	PAL1	3	R1263C
2596.505	0.275	1307661	TEST_ORIENT	n/a	n/a	6	4	STAIR	n/a	BLUSH	STAIR	15	[0, 0, 0]	-999	PAL1	3	R1263C
2597.338	4.0	1308077	TEST_PROBE	n/a	wordpools/wordpool_EN.txt	6	4	STAIR	n/a	BLUSH	STAIR	15	[0, 0, 0]	-999	PAL1	3	R1263C
2597.339	0.812	1308078	REC_START	n/a	n/a	6	-999	n/a	n/a	n/a	n/a	15	[0, 0, 0]	-999	PAL1	3	R1263C
2598.151	0.5	1308484	REC_EVENT	812.0	n/a	6	4	STAIR	<>	BLUSH	STAIR	15	[0, 0, 0]	-999	PAL1	3	R1263C
2598.651	3.697	1308733	REC_EVENT	1312.0	n/a	6	4	STAIR	<>	BLUSH	STAIR	15	[0, 0, 0]	-999	PAL1	3	R1263C
2602.348	0.008	1310582	REC_END	n/a	n/a	6	-999	n/a	n/a	n/a	n/a	15	[0, 0, 0]	-999	PAL1	3	R1263C
2602.356	0.275	1310586	TEST_ORIENT	n/a	n/a	3	5	ARM	BOX	BOX	ARM	15	[0, 0, 0]	-999	PAL1	3	R1263C
2603.256	4.0	1311036	TEST_PROBE	n/a	wordpools/wordpool_EN.txt	3	5	ARM	BOX	BOX	ARM	15	[0, 0, 0]	-999	PAL1	3	R1263C
2603.257	1.372	1311036	REC_START	n/a	n/a	3	-999	n/a	BOX	n/a	n/a	15	[0, 0, 0]	-999	PAL1	3	R1263C
2604.629	0.816	1311722	REC_EVENT	1372.0	n/a	3	5	ARM	BOX	BOX	ARM	15	[0, 0, 0]	-999	PAL1	3	R1263C
2605.445	2.828	1312130	REC_EVENT	2188.0	n/a	3	5	ARM	<>	BOX	ARM	15	[0, 0, 0]	-999	PAL1	3	R1263C
2608.273	0.017	1313544	REC_END	n/a	n/a	3	-999	n/a	n/a	n/a	n/a	15	[0, 0, 0]	-999	PAL1	3	R1263C
2608.29	0.275	1313553	TEST_ORIENT	n/a	n/a	2	6	STREET	n/a	BOWL	STREET	15	[0, 0, 0]	-999	PAL1	3	R1263C
2609.224	4.0	1314020	TEST_PROBE	n/a	wordpools/wordpool_EN.txt	2	6	STREET	n/a	BOWL	STREET	15	[0, 0, 0]	-999	PAL1	3	R1263C
2609.227	1.58	1314021	REC_START	n/a	n/a	2	-999	n/a	n/a	n/a	n/a	15	[0, 0, 0]	-999	PAL1	3	R1263C
2610.807	1.0	1314811	REC_EVENT	1580.0	n/a	2	6	STREET	<>	BOWL	STREET	15	[0, 0, 0]	-999	PAL1	3	R1263C
2611.807	2.434	1315311	REC_EVENT	2580.0	n/a	2	6	STREET	<>	BOWL	STREET	15	[0, 0, 0]	-999	PAL1	3	R1263C
2614.241	2.444	1316528	REC_END	n/a	n/a	2	-999	n/a	n/a	n/a	n/a	15	[0, 0, 0]	-999	PAL1	3	R1263C
2616.685	10.442	1317750	ENCODING_START	n/a	n/a	0	-999	n/a	n/a	n/a	n/a	16	[0, 0, 0]	-999	PAL1	3	R1263C
2627.127	0.275	1322970	STUDY_ORIENT	n/a	n/a	1	5	PIPE	SCHOOL	PIPE	SCHOOL	16	[0, 0, 0]	-999	PAL1	3	R1263C
2628.011	4.0	1323412	STUDY_PAIR	n/a	wordpools/wordpool_EN.txt	1	5	PIPE	SCHOOL	PIPE	SCHOOL	16	[0, 0, 0]	-999	PAL1	3	R1263C
2633.045	0.275	1325929	STUDY_ORIENT	n/a	n/a	2	4	PASTE	n/a	LOCK	PASTE	16	[0, 0, 0]	-999	PAL1	3	R1263C
2633.829	4.0	1326321	STUDY_PAIR	n/a	wordpools/wordpool_EN.txt	2	4	PASTE	n/a	LOCK	PASTE	16	[0, 0, 0]	-999	PAL1	3	R1263C
2638.863	0.275	1328838	STUDY_ORIENT	n/a	n/a	3	1	DITCH	COIN	COIN	DITCH	16	[0, 0, 0]	-999	PAL1	3	R1263C
2639.646	4.0	1329230	STUDY_PAIR	n/a	wordpools/wordpool_EN.txt	3	1	DITCH	COIN	COIN	DITCH	16	[0, 0, 0]	-999	PAL1	3	R1263C
2644.664	0.275	1331738	STUDY_ORIENT	n/a	n/a	4	2	BREAD	THREAD	BREAD	THREAD	16	[0, 0, 0]	-999	PAL1	3	R1263C
2645.529	4.0	1332171	STUDY_PAIR	n/a	wordpools/wordpool_EN.txt	4	2	BREAD	THREAD	BREAD	THREAD	16	[0, 0, 0]	-999	PAL1	3	R1263C
2650.531	0.275	1334672	STUDY_ORIENT	n/a	n/a	5	3	CHAIR	CAVE	CHAIR	CAVE	16	[0, 0, 0]	-999	PAL1	3	R1263C
2651.348	4.0	1335080	STUDY_PAIR	n/a	wordpools/wordpool_EN.txt	5	3	CHAIR	CAVE	CHAIR	CAVE	16	[0, 0, 0]	-999	PAL1	3	R1263C
2656.366	0.275	1337589	STUDY_ORIENT	n/a	n/a	6	6	GOLD	PLANT	GOLD	PLANT	16	[0, 0, 0]	-999	PAL1	3	R1263C
2657.333	4.0	1338072	STUDY_PAIR	n/a	wordpools/wordpool_EN.txt	6	6	GOLD	PLANT	GOLD	PLANT	16	[0, 0, 0]	-999	PAL1	3	R1263C
2661.351	1.0	1340081	START	n/a	n/a	-999	-999	n/a	n/a	n/a	n/a	16	[-999, -999, -999]	-999	PAL1	3	R1263C
2662.351	0.016	1340581	MATH_START	n/a	n/a	-999	-999	n/a	n/a	n/a	n/a	16	[0, 0, 0]	-999	PAL1	3	R1263C
2662.367	11.386	1340589	PROB	11358.0	n/a	-999	-999	n/a	n/a	n/a	n/a	16	[3, 5, 7]	16	PAL1	3	R1263C
2673.753	4.701	1346282	PROB	4668.0	n/a	-999	-999	n/a	n/a	n/a	n/a	16	[1, 1, 5]	7	PAL1	3	R1263C
2678.454	7.551	1348632	PROB	7551.0	n/a	-999	-999	n/a	n/a	n/a	n/a	16	[8, 9, 1]	18	PAL1	3	R1263C
2686.005	0.017	1352407	STOP	n/a	n/a	-999	-999	n/a	n/a	n/a	n/a	16	[-999, -999, -999]	-999	PAL1	3	R1263C
2686.022	0.0	1352416	MATH_END	n/a	n/a	-999	-999	n/a	n/a	n/a	n/a	16	[0, 0, 0]	-999	PAL1	3	R1263C
2686.022	0.017	1352416	TEST_START	n/a	n/a	-999	-999	n/a	n/a	n/a	n/a	16	[0, 0, 0]	-999	PAL1	3	R1263C
2686.039	0.275	1352424	TEST_ORIENT	n/a	n/a	3	1	DITCH	COIN	COIN	DITCH	16	[0, 0, 0]	-999	PAL1	3	R1263C
2687.055	4.0	1352932	TEST_PROBE	n/a	wordpools/wordpool_EN.txt	3	1	DITCH	COIN	COIN	DITCH	16	[0, 0, 0]	-999	PAL1	3	R1263C
2687.056	3.388	1352933	REC_START	n/a	n/a	3	-999	n/a	COIN	n/a	n/a	16	[0, 0, 0]	-999	PAL1	3	R1263C
2690.444	0.764	1354627	REC_EVENT	3388.0	n/a	3	1	DITCH	COIN	COIN	DITCH	16	[0, 0, 0]	-999	PAL1	3	R1263C
2691.208	0.857	1355009	REC_EVENT	4152.0	n/a	3	1	DITCH	<>	COIN	DITCH	16	[0, 0, 0]	-999	PAL1	3	R1263C
2692.065	0.008	1355437	REC_END	n/a	n/a	3	-999	n/a	n/a	n/a	n/a	16	[0, 0, 0]	-999	PAL1	3	R1263C
2692.073	0.275	1355441	TEST_ORIENT	n/a	n/a	4	2	BREAD	THREAD	BREAD	THREAD	16	[0, 0, 0]	-999	PAL1	3	R1263C
2693.056	4.0	1355933	TEST_PROBE	n/a	wordpools/wordpool_EN.txt	4	2	BREAD	THREAD	BREAD	THREAD	16	[0, 0, 0]	-999	PAL1	3	R1263C
2693.057	1.268	1355933	REC_START	n/a	n/a	4	-999	n/a	THREAD	n/a	n/a	16	[0, 0, 0]	-999	PAL1	3	R1263C
2694.325	0.753	1356567	REC_EVENT	1268.0	n/a	4	2	BREAD	THREAD	BREAD	THREAD	16	[0, 0, 0]	-999	PAL1	3	R1263C
2695.078	2.988	1356944	REC_EVENT	2021.0	n/a	4	2	BREAD	<>	BREAD	THREAD	16	[0, 0, 0]	-999	PAL1	3	R1263C
2698.066	0.008	1358437	REC_END	n/a	n/a	4	-999	n/a	n/a	n/a	n/a	16	[0, 0, 0]	-999	PAL1	3	R1263C
2698.074	0.275	1358441	TEST_ORIENT	n/a	n/a	5	3	CHAIR	CAVE	CHAIR	CAVE	16	[0, 0, 0]	-999	PAL1	3	R1263C
2698.991	0.0	1358900	REC_START	n/a	n/a	5	-999	n/a	CAVE	n/a	n/a	16	[0, 0, 0]	-999	PAL1	3	R1263C
2698.991	4.0	1358900	TEST_PROBE	n/a	wordpools/wordpool_EN.txt	5	3	CHAIR	CAVE	CHAIR	CAVE	16	[0, 0, 0]	-999	PAL1	3	R1263C
2700.139	0.719	1359474	REC_EVENT	1148.0	n/a	5	3	CHAIR	CAVE	CHAIR	CAVE	16	[0, 0, 0]	-999	PAL1	3	R1263C
2700.858	3.15	1359833	REC_EVENT	1867.0	n/a	5	3	CHAIR	<>	CHAIR	CAVE	16	[0, 0, 0]	-999	PAL1	3	R1263C
2704.008	0.017	1361408	REC_END	n/a	n/a	5	-999	n/a	n/a	n/a	n/a	16	[0, 0, 0]	-999	PAL1	3	R1263C
2704.025	0.275	1361417	TEST_ORIENT	n/a	n/a	2	4	PASTE	n/a	LOCK	PASTE	16	[0, 0, 0]	-999	PAL1	3	R1263C
2704.942	4.0	1361875	TEST_PROBE	n/a	wordpools/wordpool_EN.txt	2	4	PASTE	n/a	LOCK	PASTE	16	[0, 0, 0]	-999	PAL1	3	R1263C
2704.943	3.552	1361876	REC_START	n/a	n/a	2	-999	n/a	n/a	n/a	n/a	16	[0, 0, 0]	-999	PAL1	3	R1263C
2708.495	1.0	1363652	REC_EVENT	3552.0	n/a	2	4	PASTE	<>	LOCK	PASTE	16	[0, 0, 0]	-999	PAL1	3	R1263C
2709.495	0.473	1364152	REC_EVENT	4552.0	n/a	2	4	PASTE	<>	LOCK	PASTE	16	[0, 0, 0]	-999	PAL1	3	R1263C
2709.968	0.008	1364388	REC_END	n/a	n/a	2	-999	n/a	n/a	n/a	n/a	16	[0, 0, 0]	-999	PAL1	3	R1263C
2709.976	0.275	1364392	TEST_ORIENT	n/a	n/a	1	5	PIPE	SCHOOL	PIPE	SCHOOL	16	[0, 0, 0]	-999	PAL1	3	R1263C
2710.877	4.0	1364843	TEST_PROBE	n/a	wordpools/wordpool_EN.txt	1	5	PIPE	SCHOOL	PIPE	SCHOOL	16	[0, 0, 0]	-999	PAL1	3	R1263C
2710.877	1.84	1364843	REC_START	n/a	n/a	1	-999	n/a	SCHOOL	n/a	n/a	16	[0, 0, 0]	-999	PAL1	3	R1263C
2712.717	0.54	1365762	REC_EVENT	1840.0	n/a	1	5	PIPE	SCHOOL	PIPE	SCHOOL	16	[0, 0, 0]	-999	PAL1	3	R1263C
2713.257	2.637	1366032	REC_EVENT	2380.0	n/a	1	5	PIPE	<>	PIPE	SCHOOL	16	[0, 0, 0]	-999	PAL1	3	R1263C
2715.894	0.017	1367351	REC_END	n/a	n/a	1	-999	n/a	n/a	n/a	n/a	16	[0, 0, 0]	-999	PAL1	3	R1263C
2715.911	0.275	1367359	TEST_ORIENT	n/a	n/a	6	6	GOLD	PLANT	GOLD	PLANT	16	[0, 0, 0]	-999	PAL1	3	R1263C
2716.828	4.0	1367818	TEST_PROBE	n/a	wordpools/wordpool_EN.txt	6	6	GOLD	PLANT	GOLD	PLANT	16	[0, 0, 0]	-999	PAL1	3	R1263C
2716.828	2.274	1367818	REC_START	n/a	n/a	6	-999	n/a	PLANT	n/a	n/a	16	[0, 0, 0]	-999	PAL1	3	R1263C
2719.102	0.698	1368955	REC_EVENT	2274.0	n/a	6	6	GOLD	PLANT	GOLD	PLANT	16	[0, 0, 0]	-999	PAL1	3	R1263C
2719.8	2.045	1369304	REC_EVENT	2972.0	n/a	6	6	GOLD	<>	GOLD	PLANT	16	[0, 0, 0]	-999	PAL1	3	R1263C
2721.845	1.84	1370326	REC_END	n/a	n/a	6	-999	n/a	n/a	n/a	n/a	16	[0, 0, 0]	-999	PAL1	3	R1263C
2723.685	10.446	1371246	ENCODING_START	n/a	n/a	0	-999	n/a	n/a	n/a	n/a	17	[0, 0, 0]	-999	PAL1	3	R1263C
2734.131	0.275	1376469	STUDY_ORIENT	n/a	n/a	1	1	SHRIMP	n/a	SHRIMP	FILM	17	[0, 0, 0]	-999	PAL1	3	R1263C
2735.115	4.0	1376961	STUDY_PAIR	n/a	wordpools/wordpool_EN.txt	1	1	SHRIMP	n/a	SHRIMP	FILM	17	[0, 0, 0]	-999	PAL1	3	R1263C
2740.149	0.275	1379478	STUDY_ORIENT	n/a	n/a	2	6	MOOSE	n/a	MOOSE	FARM	17	[0, 0, 0]	-999	PAL1	3	R1263C
2740.949	4.0	1379877	STUDY_PAIR	n/a	wordpools/wordpool_EN.txt	2	6	MOOSE	n/a	MOOSE	FARM	17	[0, 0, 0]	-999	PAL1	3	R1263C
2745.983	0.275	1382394	STUDY_ORIENT	n/a	n/a	3	3	RAKE	n/a	HEART	RAKE	17	[0, 0, 0]	-999	PAL1	3	R1263C
2746.783	4.0	1382794	STUDY_PAIR	n/a	wordpools/wordpool_EN.txt	3	3	RAKE	n/a	HEART	RAKE	17	[0, 0, 0]	-999	PAL1	3	R1263C
2751.801	0.275	1385303	STUDY_ORIENT	n/a	n/a	4	4	AXE	BAND	TRAY	AXE	17	[0, 0, 0]	-999	PAL1	3	R1263C
2752.601	4.0	1385703	STUDY_PAIR	n/a	wordpools/wordpool_EN.txt	4	4	AXE	BAND	TRAY	AXE	17	[0, 0, 0]	-999	PAL1	3	R1263C
2757.619	0.275	1388212	STUDY_ORIENT	n/a	n/a	5	5	PIN	DRUM	PIN	BAND	17	[0, 0, 0]	-999	PAL1	3	R1263C
2758.535	4.0	1388670	STUDY_PAIR	n/a	wordpools/wordpool_EN.txt	5	5	PIN	DRUM	PIN	BAND	17	[0, 0, 0]	-999	PAL1	3	R1263C
2763.569	0.275	1391187	STUDY_ORIENT	n/a	n/a	6	2	HOLE	n/a	HOLE	PEARL	17	[0, 0, 0]	-999	PAL1	3	R1263C
2764.487	4.0	1391646	STUDY_PAIR	n/a	wordpools/wordpool_EN.txt	6	2	HOLE	n/a	HOLE	PEARL	17	[0, 0, 0]	-999	PAL1	3	R1263C
2768.505	0.999	1393655	START	n/a	n/a	-999	-999	n/a	n/a	n/a	n/a	17	[-999, -999, -999]	-999	PAL1	3	R1263C
2769.504	0.016	1394154	MATH_START	n/a	n/a	-999	-999	n/a	n/a	n/a	n/a	17	[0, 0, 0]	-999	PAL1	3	R1263C
2769.52	6.469	1394162	PROB	6445.0	n/a	-999	-999	n/a	n/a	n/a	n/a	17	[7, 4, 2]	13	PAL1	3	R1263C
2775.989	7.001	1397396	PROB	6976.0	n/a	-999	-999	n/a	n/a	n/a	n/a	17	[2, 5, 9]	16	PAL1	3	R1263C
2782.99	7.655	1400896	PROB	7655.0	n/a	-999	-999	n/a	n/a	n/a	n/a	17	[9, 4, 3]	16	PAL1	3	R1263C
2790.645	0.013	1404724	STOP	n/a	n/a	-999	-999	n/a	n/a	n/a	n/a	17	[-999, -999, -999]	-999	PAL1	3	R1263C
2790.658	0.0	1404730	MATH_END	n/a	n/a	-999	-999	n/a	n/a	n/a	n/a	17	[0, 0, 0]	-999	PAL1	3	R1263C
2790.658	0.017	1404730	TEST_START	n/a	n/a	-999	-999	n/a	n/a	n/a	n/a	17	[0, 0, 0]	-999	PAL1	3	R1263C
2790.675	0.275	1404739	TEST_ORIENT	n/a	n/a	1	1	SHRIMP	n/a	SHRIMP	FILM	17	[0, 0, 0]	-999	PAL1	3	R1263C
2791.574	4.0	1405188	TEST_PROBE	n/a	wordpools/wordpool_EN.txt	1	1	SHRIMP	n/a	SHRIMP	FILM	17	[0, 0, 0]	-999	PAL1	3	R1263C
2791.575	2.004	1405189	REC_START	n/a	n/a	1	-999	n/a	n/a	n/a	n/a	17	[0, 0, 0]	-999	PAL1	3	R1263C
2793.579	1.0	1406191	REC_EVENT	2004.0	n/a	1	1	SHRIMP	<>	SHRIMP	FILM	17	[0, 0, 0]	-999	PAL1	3	R1263C
2794.579	2.004	1406691	REC_EVENT	3004.0	n/a	1	1	SHRIMP	<>	SHRIMP	FILM	17	[0, 0, 0]	-999	PAL1	3	R1263C
2796.583	0.01	1407693	REC_END	n/a	n/a	1	-999	n/a	n/a	n/a	n/a	17	[0, 0, 0]	-999	PAL1	3	R1263C
2796.593	0.275	1407698	TEST_ORIENT	n/a	n/a	6	2	HOLE	n/a	HOLE	PEARL	17	[0, 0, 0]	-999	PAL1	3	R1263C
2797.443	4.0	1408122	TEST_PROBE	n/a	wordpools/wordpool_EN.txt	6	2	HOLE	n/a	HOLE	PEARL	17	[0, 0, 0]	-999	PAL1	3	R1263C
2797.443	2.563	1408122	REC_START	n/a	n/a	6	-999	n/a	n/a	n/a	n/a	17	[0, 0, 0]	-999	PAL1	3	R1263C
2800.006	1.0	1409404	REC_EVENT	2563.0	n/a	6	2	HOLE	<>	HOLE	PEARL	17	[0, 0, 0]	-999	PAL1	3	R1263C
2801.006	1.455	1409904	REC_EVENT	3563.0	n/a	6	2	HOLE	<>	HOLE	PEARL	17	[0, 0, 0]	-999	PAL1	3	R1263C
2802.461	0.016	1410631	REC_END	n/a	n/a	6	-999	n/a	n/a	n/a	n/a	17	[0, 0, 0]	-999	PAL1	3	R1263C
2802.477	0.275	1410639	TEST_ORIENT	n/a	n/a	3	3	RAKE	n/a	HEART	RAKE	17	[0, 0, 0]	-999	PAL1	3	R1263C
2803.277	4.0	1411039	TEST_PROBE	n/a	wordpools/wordpool_EN.txt	3	3	RAKE	n/a	HEART	RAKE	17	[0, 0, 0]	-999	PAL1	3	R1263C
2803.278	2.509	1411040	REC_START	n/a	n/a	3	-999	n/a	n/a	n/a	n/a	17	[0, 0, 0]	-999	PAL1	3	R1263C
2805.787	1.0	1412294	REC_EVENT	2509.0	n/a	3	3	RAKE	<>	HEART	RAKE	17	[0, 0, 0]	-999	PAL1	3	R1263C
2806.787	1.501	1412794	REC_EVENT	3509.0	n/a	3	3	RAKE	<>	HEART	RAKE	17	[0, 0, 0]	-999	PAL1	3	R1263C
2808.288	0.007	1413545	REC_END	n/a	n/a	3	-999	n/a	n/a	n/a	n/a	17	[0, 0, 0]	-999	PAL1	3	R1263C
2808.295	0.275	1413548	TEST_ORIENT	n/a	n/a	4	4	AXE	BAND	TRAY	AXE	17	[0, 0, 0]	-999	PAL1	3	R1263C
2809.245	4.0	1414023	TEST_PROBE	n/a	wordpools/wordpool_EN.txt	4	4	AXE	BAND	TRAY	AXE	17	[0, 0, 0]	-999	PAL1	3	R1263C
2809.248	1.967	1414025	REC_START	n/a	n/a	4	-999	n/a	BAND	n/a	n/a	17	[0, 0, 0]	-999	PAL1	3	R1263C
2811.215	0.92	1415008	REC_EVENT	1967.0	n/a	4	4	AXE	BAND	TRAY	AXE	17	[0, 0, 0]	-999	PAL1	3	R1263C
2812.135	2.111	1415468	REC_EVENT	2887.0	n/a	4	4	AXE	<>	TRAY	AXE	17	[0, 0, 0]	-999	PAL1	3	R1263C
2814.246	0.017	1416523	REC_END	n/a	n/a	4	-999	n/a	n/a	n/a	n/a	17	[0, 0, 0]	-999	PAL1	3	R1263C
2814.263	0.275	1416532	TEST_ORIENT	n/a	n/a	5	5	PIN	DRUM	PIN	BAND	17	[0, 0, 0]	-999	PAL1	3	R1263C
2815.213	4.0	1417007	TEST_PROBE	n/a	wordpools/wordpool_EN.txt	5	5	PIN	DRUM	PIN	BAND	17	[0, 0, 0]	-999	PAL1	3	R1263C
2815.213	2.104	1417007	REC_START	n/a	n/a	5	-999	n/a	DRUM	n/a	n/a	17	[0, 0, 0]	-999	PAL1	3	R1263C
2817.317	0.605	1418059	REC_EVENT	2104.0	n/a	5	5	PIN	DRUM	PIN	BAND	17	[0, 0, 0]	-999	PAL1	3	R1263C
2817.922	2.309	1418361	REC_EVENT	2709.0	n/a	5	5	PIN	<>	PIN	BAND	17	[0, 0, 0]	-999	PAL1	3	R1263C
2820.231	0.016	1419516	REC_END	n/a	n/a	5	-999	n/a	n/a	n/a	n/a	17	[0, 0, 0]	-999	PAL1	3	R1263C
2820.247	0.275	1419524	TEST_ORIENT	n/a	n/a	2	6	MOOSE	n/a	MOOSE	FARM	17	[0, 0, 0]	-999	PAL1	3	R1263C
2821.114	4.0	1419957	TEST_PROBE	n/a	wordpools/wordpool_EN.txt	2	6	MOOSE	n/a	MOOSE	FARM	17	[0, 0, 0]	-999	PAL1	3	R1263C
2821.115	2.917	1419958	REC_START	n/a	n/a	2	-999	n/a	n/a	n/a	n/a	17	[0, 0, 0]	-999	PAL1	3	R1263C
2824.032	1.0	1421416	REC_EVENT	2917.0	n/a	2	6	MOOSE	<>	MOOSE	FARM	17	[0, 0, 0]	-999	PAL1	3	R1263C
2825.032	1.092	1421916	REC_EVENT	3917.0	n/a	2	6	MOOSE	<>	MOOSE	FARM	17	[0, 0, 0]	-999	PAL1	3	R1263C
2826.124	2.225	1422462	REC_END	n/a	n/a	2	-999	n/a	n/a	n/a	n/a	17	[0, 0, 0]	-999	PAL1	3	R1263C
2828.349	10.452	1423574	ENCODING_START	n/a	n/a	0	-999	n/a	n/a	n/a	n/a	18	[0, 0, 0]	-999	PAL1	3	R1263C
2838.801	0.275	1428800	STUDY_ORIENT	n/a	n/a	1	3	MUG	DOOR	MUG	DOOR	18	[0, 0, 0]	-999	PAL1	3	R1263C
