onset	duration	sample	trial_type	response_time	stim_file	serialpos	probepos	probe_word	resp_word	study_1	study_2	list	test	answer	experiment	session	subject
0.0	75.004	865	INSTRUCT_START	n/a	n/a	-999	-999	n/a	n/a	n/a	n/a	-1	[0, 0, 0]	-999	PAL1	2	R1312N
75.004	4.118	75867	INSTRUCT_END	n/a	n/a	-999	-999	n/a	n/a	n/a	n/a	-1	[0, 0, 0]	-999	PAL1	2	R1312N
79.122	8.925	79985	MIC TEST_START	n/a	n/a	-999	-999	n/a	n/a	n/a	n/a	-1	[0, 0, 0]	-999	PAL1	2	R1312N
88.047	0.011	88909	MIC TEST_END	n/a	n/a	-999	-999	n/a	n/a	n/a	n/a	-1	[0, 0, 0]	-999	PAL1	2	R1312N
88.058	0.0	88920	TRIAL_START	n/a	n/a	-999	-999	n/a	n/a	n/a	n/a	-1	[0, 0, 0]	-999	PAL1	2	R1312N
88.058	0.001	88920	TRIAL	n/a	n/a	-999	-999	n/a	n/a	n/a	n/a	-1	[0, 0, 0]	-999	PAL1	2	R1312N
88.059	2.081	88921	WAITING_START	n/a	n/a	-999	-999	n/a	n/a	n/a	n/a	-1	[0, 0, 0]	-999	PAL1	2	R1312N
90.14	0.001	91002	WAITING_END	n/a	n/a	-999	-999	n/a	n/a	n/a	n/a	-1	[0, 0, 0]	-999	PAL1	2	R1312N
90.141	10.429	91003	COUNTDOWN_START	n/a	n/a	-999	-999	n/a	n/a	n/a	n/a	-1	[0, 0, 0]	-999	PAL1	2	R1312N
100.57	0.001	101432	COUNTDOWN_END	n/a	n/a	-999	-999	n/a	n/a	n/a	n/a	-1	[0, 0, 0]	-999	PAL1	2	R1312N
100.571	0.689	101433	ORIENT_START	n/a	n/a	-999	-999	n/a	n/a	n/a	n/a	-1	[0, 0, 0]	-999	PAL1	2	R1312N
101.26	0.0	102122	ORIENT_END	n/a	n/a	-999	-999	n/a	n/a	n/a	n/a	-1	[0, 0, 0]	-999	PAL1	2	R1312N
101.26	1.236	102122	ENCODING_START	n/a	n/a	-999	-999	n/a	n/a	n/a	n/a	-1	[0, 0, 0]	-999	PAL1	2	R1312N
102.496	4.03	103358	STUDY_PAIR	n/a	n/a	1	-999	n/a	FLOOD	IMAGE	FLOOD	-1	[0, 0, 0]	-999	PAL1	2	R1312N
106.526	0.585	107388	STUDY_PAIR_OFF	n/a	n/a	1	-999	n/a	FLOOD	IMAGE	FLOOD	-1	[0, 0, 0]	-999	PAL1	2	R1312N
107.111	4.033	107973	STUDY_PAIR	n/a	n/a	2	-999	n/a	BABY	RHINO	BEAM	-1	[0, 0, 0]	-999	PAL1	2	R1312N
111.144	0.516	112006	STUDY_PAIR_OFF	n/a	n/a	2	-999	n/a	BABY	RHINO	BEAM	-1	[0, 0, 0]	-999	PAL1	2	R1312N
111.66	4.034	112522	STUDY_PAIR	n/a	n/a	3	-999	n/a	n/a	WAGON	TONGUE	-1	[0, 0, 0]	-999	PAL1	2	R1312N
115.694	0.633	116556	STUDY_PAIR_OFF	n/a	n/a	3	-999	n/a	n/a	WAGON	TONGUE	-1	[0, 0, 0]	-999	PAL1	2	R1312N
116.327	4.036	117188	STUDY_PAIR	n/a	n/a	4	-999	n/a	COTTON	COTTON	CHEST	-1	[0, 0, 0]	-999	PAL1	2	R1312N
120.363	0.715	121224	STUDY_PAIR_OFF	n/a	n/a	4	-999	n/a	COTTON	COTTON	CHEST	-1	[0, 0, 0]	-999	PAL1	2	R1312N
121.078	4.035	121939	STUDY_PAIR	n/a	n/a	5	-999	n/a	CLOCK	RING	WATCH	-1	[0, 0, 0]	-999	PAL1	2	R1312N
125.113	0.569	125974	STUDY_PAIR_OFF	n/a	n/a	5	-999	n/a	CLOCK	RING	WATCH	-1	[0, 0, 0]	-999	PAL1	2	R1312N
125.682	4.031	126543	STUDY_PAIR	n/a	n/a	6	-999	n/a	RHINO	BABY	CAMEL	-1	[0, 0, 0]	-999	PAL1	2	R1312N
129.713	0.001	130574	STUDY_PAIR_OFF	n/a	n/a	6	-999	n/a	RHINO	BABY	CAMEL	-1	[0, 0, 0]	-999	PAL1	2	R1312N
129.714	0.0	130575	ENCODING_END	n/a	n/a	-999	-999	n/a	n/a	n/a	n/a	-1	[0, 0, 0]	-999	PAL1	2	R1312N
129.714	0.0	130575	MATH_START	n/a	n/a	-999	-999	n/a	n/a	n/a	n/a	-1	[0, 0, 0]	-999	PAL1	2	R1312N
129.714	0.016	130575	START	n/a	n/a	-999	-999	n/a	n/a	n/a	n/a	-1	[-999, -999, -999]	-999	PAL1	2	R1312N
129.73	9.768	130591	PROB	9743	n/a	-999	-999	n/a	n/a	n/a	n/a	-1	[5, 7, 4]	16	PAL1	2	R1312N
139.498	5.769	140359	PROB	5735	n/a	-999	-999	n/a	n/a	n/a	n/a	-1	[6, 9, 1]	15	PAL1	2	R1312N
145.267	10.686	146128	PROB	10686	n/a	-999	-999	n/a	n/a	n/a	n/a	-1	[7, 8, 5]	19	PAL1	2	R1312N
155.953	0.015	156813	STOP	n/a	n/a	-999	-999	n/a	n/a	n/a	n/a	-1	[-999, -999, -999]	-999	PAL1	2	R1312N
155.968	0.69	156828	MATH_END	n/a	n/a	-999	-999	n/a	n/a	n/a	n/a	-1	[0, 0, 0]	-999	PAL1	2	R1312N
156.658	0.002	157518	RETRIEVAL_START	n/a	n/a	-999	-999	n/a	n/a	n/a	n/a	-1	[0, 0, 0]	-999	PAL1	2	R1312N
156.66	0.275	157520	ORIENT_START	n/a	n/a	-999	-999	n/a	n/a	n/a	n/a	-1	[0, 0, 0]	-999	PAL1	2	R1312N
156.935	0.636	157795	ORIENT_END	n/a	n/a	-999	-999	n/a	n/a	n/a	n/a	-1	[0, 0, 0]	-999	PAL1	2	R1312N
157.571	0.001	158431	REC_START	n/a	n/a	1	1	IMAGE	FLOOD	IMAGE	FLOOD	-1	[0, 0, 0]	-999	PAL1	2	R1312N
157.572	2.129	158432	PROBE_START	n/a	n/a	1	1	IMAGE	FLOOD	IMAGE	FLOOD	-1	[0, 0, 0]	-999	PAL1	2	R1312N
159.701	1.901	160561	REC_EVENT	2129	n/a	1	1	IMAGE	FLOOD	IMAGE	FLOOD	-1	[0, 0, 0]	-999	PAL1	2	R1312N
161.602	1.0	162462	PROBE_END	n/a	n/a	1	1	IMAGE	n/a	IMAGE	FLOOD	-1	[0, 0, 0]	-999	PAL1	2	R1312N
162.602	0.014	163462	REC_END	n/a	n/a	1	1	IMAGE	n/a	IMAGE	FLOOD	-1	[0, 0, 0]	-999	PAL1	2	R1312N
162.616	0.269	163476	ORIENT_START	n/a	n/a	-999	-999	n/a	n/a	n/a	n/a	-1	[0, 0, 0]	-999	PAL1	2	R1312N
162.885	0.696	163745	ORIENT_END	n/a	n/a	-999	-999	n/a	n/a	n/a	n/a	-1	[0, 0, 0]	-999	PAL1	2	R1312N
163.581	0.0	164441	REC_START	n/a	n/a	6	2	BABY	RHINO	BABY	CAMEL	-1	[0, 0, 0]	-999	PAL1	2	R1312N
163.581	2.041	164441	PROBE_START	n/a	n/a	6	2	BABY	RHINO	BABY	CAMEL	-1	[0, 0, 0]	-999	PAL1	2	R1312N
165.622	1.981	166482	REC_EVENT	2041	n/a	6	2	BABY	RHINO	BABY	CAMEL	-1	[0, 0, 0]	-999	PAL1	2	R1312N
167.603	1.0	168463	PROBE_END	n/a	n/a	6	2	BABY	n/a	BABY	CAMEL	-1	[0, 0, 0]	-999	PAL1	2	R1312N
168.603	0.014	169463	REC_END	n/a	n/a	6	2	BABY	n/a	BABY	CAMEL	-1	[0, 0, 0]	-999	PAL1	2	R1312N
168.617	0.269	169477	ORIENT_START	n/a	n/a	-999	-999	n/a	n/a	n/a	n/a	-1	[0, 0, 0]	-999	PAL1	2	R1312N
168.886	0.639	169746	ORIENT_END	n/a	n/a	-999	-999	n/a	n/a	n/a	n/a	-1	[0, 0, 0]	-999	PAL1	2	R1312N
169.525	0.0	170385	REC_START	n/a	n/a	3	3	TONGUE	n/a	WAGON	TONGUE	-1	[0, 0, 0]	-999	PAL1	2	R1312N
169.525	3.067	170385	PROBE_START	n/a	n/a	3	3	TONGUE	n/a	WAGON	TONGUE	-1	[0, 0, 0]	-999	PAL1	2	R1312N
172.592	0.962	173452	REC_EVENT	3067	n/a	3	3	TONGUE	<>	WAGON	TONGUE	-1	[0, 0, 0]	-999	PAL1	2	R1312N
173.554	1.001	174414	PROBE_END	n/a	n/a	3	3	TONGUE	n/a	WAGON	TONGUE	-1	[0, 0, 0]	-999	PAL1	2	R1312N
174.555	0.011	175415	REC_END	n/a	n/a	3	3	TONGUE	n/a	WAGON	TONGUE	-1	[0, 0, 0]	-999	PAL1	2	R1312N
174.566	0.271	175426	ORIENT_START	n/a	n/a	-999	-999	n/a	n/a	n/a	n/a	-1	[0, 0, 0]	-999	PAL1	2	R1312N
174.837	0.558	175697	ORIENT_END	n/a	n/a	-999	-999	n/a	n/a	n/a	n/a	-1	[0, 0, 0]	-999	PAL1	2	R1312N
175.395	0.0	176255	REC_START	n/a	n/a	2	4	RHINO	BABY	RHINO	BEAM	-1	[0, 0, 0]	-999	PAL1	2	R1312N
175.395	2.322	176255	PROBE_START	n/a	n/a	2	4	RHINO	BABY	RHINO	BEAM	-1	[0, 0, 0]	-999	PAL1	2	R1312N
177.717	1.706	178576	REC_EVENT	2322	n/a	2	4	RHINO	BABY	RHINO	BEAM	-1	[0, 0, 0]	-999	PAL1	2	R1312N
179.423	1.0	180282	PROBE_END	n/a	n/a	2	4	RHINO	n/a	RHINO	BEAM	-1	[0, 0, 0]	-999	PAL1	2	R1312N
180.423	0.012	181282	REC_END	n/a	n/a	2	4	RHINO	n/a	RHINO	BEAM	-1	[0, 0, 0]	-999	PAL1	2	R1312N
180.435	0.27	181294	ORIENT_START	n/a	n/a	-999	-999	n/a	n/a	n/a	n/a	-1	[0, 0, 0]	-999	PAL1	2	R1312N
180.705	0.75	181564	ORIENT_END	n/a	n/a	-999	-999	n/a	n/a	n/a	n/a	-1	[0, 0, 0]	-999	PAL1	2	R1312N
181.455	0.001	182314	REC_START	n/a	n/a	5	5	WATCH	CLOCK	RING	WATCH	-1	[0, 0, 0]	-999	PAL1	2	R1312N
181.456	2.705	182315	PROBE_START	n/a	n/a	5	5	WATCH	CLOCK	RING	WATCH	-1	[0, 0, 0]	-999	PAL1	2	R1312N
184.161	1.328	185020	REC_EVENT	2705	n/a	5	5	WATCH	CLOCK	RING	WATCH	-1	[0, 0, 0]	-999	PAL1	2	R1312N
185.489	1.0	186348	PROBE_END	n/a	n/a	5	5	WATCH	n/a	RING	WATCH	-1	[0, 0, 0]	-999	PAL1	2	R1312N
186.489	0.006	187348	REC_END	n/a	n/a	5	5	WATCH	n/a	RING	WATCH	-1	[0, 0, 0]	-999	PAL1	2	R1312N
186.495	0.278	187354	ORIENT_START	n/a	n/a	-999	-999	n/a	n/a	n/a	n/a	-1	[0, 0, 0]	-999	PAL1	2	R1312N
186.773	0.5	187632	ORIENT_END	n/a	n/a	-999	-999	n/a	n/a	n/a	n/a	-1	[0, 0, 0]	-999	PAL1	2	R1312N
187.273	0.001	188132	REC_START	n/a	n/a	4	6	CHEST	COTTON	COTTON	CHEST	-1	[0, 0, 0]	-999	PAL1	2	R1312N
187.274	1.593	188133	PROBE_START	n/a	n/a	4	6	CHEST	COTTON	COTTON	CHEST	-1	[0, 0, 0]	-999	PAL1	2	R1312N
188.867	2.441	189726	REC_EVENT	1593	n/a	4	6	CHEST	COTTON	COTTON	CHEST	-1	[0, 0, 0]	-999	PAL1	2	R1312N
191.308	0.999	192167	PROBE_END	n/a	n/a	4	6	CHEST	n/a	COTTON	CHEST	-1	[0, 0, 0]	-999	PAL1	2	R1312N
192.307	0.01	193166	REC_END	n/a	n/a	4	6	CHEST	n/a	COTTON	CHEST	-1	[0, 0, 0]	-999	PAL1	2	R1312N
192.317	0.0	193176	RETRIEVAL_END	n/a	n/a	-999	-999	n/a	n/a	n/a	n/a	-1	[0, 0, 0]	-999	PAL1	2	R1312N
192.317	4.541	193176	PRACTICE_POST_INSTRUCT_START	n/a	n/a	-999	-999	n/a	n/a	n/a	n/a	-1	[0, 0, 0]	-999	PAL1	2	R1312N
196.858	0.001	197717	PRACTICE_POST_INSTRUCT_END	n/a	n/a	-999	-999	n/a	n/a	n/a	n/a	-1	[0, 0, 0]	-999	PAL1	2	R1312N
196.859	0.022	197718	TRIAL_END	n/a	n/a	-999	-999	n/a	n/a	n/a	n/a	-1	[0, 0, 0]	-999	PAL1	2	R1312N
196.881	0.0	197740	TRIAL_START	n/a	n/a	-999	-999	n/a	n/a	n/a	n/a	-1	[0, 0, 0]	-999	PAL1	2	R1312N
196.881	0.0	197740	TRIAL	n/a	n/a	-999	-999	n/a	n/a	n/a	n/a	1	[0, 0, 0]	-999	PAL1	2	R1312N
196.881	1.21	197740	WAITING_START	n/a	n/a	-999	-999	n/a	n/a	n/a	n/a	1	[0, 0, 0]	-999	PAL1	2	R1312N
198.091	0.001	198950	WAITING_END	n/a	n/a	-999	-999	n/a	n/a	n/a	n/a	1	[0, 0, 0]	-999	PAL1	2	R1312N
198.092	10.43	198951	COUNTDOWN_START	n/a	n/a	-999	-999	n/a	n/a	n/a	n/a	1	[0, 0, 0]	-999	PAL1	2	R1312N
208.522	0.0	209380	COUNTDOWN_END	n/a	n/a	-999	-999	n/a	n/a	n/a	n/a	1	[0, 0, 0]	-999	PAL1	2	R1312N
208.522	0.671	209380	ORIENT_START	n/a	n/a	-999	-999	n/a	n/a	n/a	n/a	1	[0, 0, 0]	-999	PAL1	2	R1312N
209.193	0.001	210051	ORIENT_END	n/a	n/a	-999	-999	n/a	n/a	n/a	n/a	1	[0, 0, 0]	-999	PAL1	2	R1312N
209.194	1.23	210052	ENCODING_START	n/a	n/a	-999	-999	n/a	n/a	n/a	n/a	1	[0, 0, 0]	-999	PAL1	2	R1312N
210.424	4.036	211282	STUDY_PAIR	n/a	wordpools/wordpool_EN.txt	1	-999	n/a	MOUTH	THREAD	MOUTH	1	[0, 0, 0]	-999	PAL1	2	R1312N
214.46	0.588	215318	STUDY_PAIR_OFF	n/a	n/a	1	-999	n/a	MOUTH	THREAD	MOUTH	1	[0, 0, 0]	-999	PAL1	2	R1312N
215.048	4.03	215906	STUDY_PAIR	n/a	wordpools/wordpool_EN.txt	2	-999	n/a	CROWN	CROWN	ICE	1	[0, 0, 0]	-999	PAL1	2	R1312N
219.078	0.57	219936	STUDY_PAIR_OFF	n/a	n/a	2	-999	n/a	CROWN	CROWN	ICE	1	[0, 0, 0]	-999	PAL1	2	R1312N
219.648	4.031	220506	STUDY_PAIR	n/a	wordpools/wordpool_EN.txt	3	-999	n/a	BREAD	SALT	BREAD	1	[0, 0, 0]	-999	PAL1	2	R1312N
223.679	0.613	224537	STUDY_PAIR_OFF	n/a	n/a	3	-999	n/a	BREAD	SALT	BREAD	1	[0, 0, 0]	-999	PAL1	2	R1312N
224.292	4.038	225150	STUDY_PAIR	n/a	wordpools/wordpool_EN.txt	4	-999	n/a	BRUSH	BRUSH	HOLE	1	[0, 0, 0]	-999	PAL1	2	R1312N
228.33	0.705	229188	STUDY_PAIR_OFF	n/a	n/a	4	-999	n/a	BRUSH	BRUSH	HOLE	1	[0, 0, 0]	-999	PAL1	2	R1312N
229.035	4.029	229893	STUDY_PAIR	n/a	wordpools/wordpool_EN.txt	5	-999	n/a	PIG	PIG	DRUM	1	[0, 0, 0]	-999	PAL1	2	R1312N
233.064	0.622	233922	STUDY_PAIR_OFF	n/a	n/a	5	-999	n/a	PIG	PIG	DRUM	1	[0, 0, 0]	-999	PAL1	2	R1312N
233.686	4.028	234544	STUDY_PAIR	n/a	wordpools/wordpool_EN.txt	6	-999	n/a	FAN	CAGE	FAN	1	[0, 0, 0]	-999	PAL1	2	R1312N
237.714	0.001	238571	STUDY_PAIR_OFF	n/a	n/a	6	-999	n/a	FAN	CAGE	FAN	1	[0, 0, 0]	-999	PAL1	2	R1312N
237.715	0.0	238572	MATH_START	n/a	n/a	-999	-999	n/a	n/a	n/a	n/a	1	[0, 0, 0]	-999	PAL1	2	R1312N
237.715	0.0	238572	ENCODING_END	n/a	n/a	-999	-999	n/a	n/a	n/a	n/a	1	[0, 0, 0]	-999	PAL1	2	R1312N
237.715	0.016	238572	START	n/a	n/a	-999	-999	n/a	n/a	n/a	n/a	1	[-999, -999, -999]	-999	PAL1	2	R1312N
237.731	6.734	238588	PROB	6712	n/a	-999	-999	n/a	n/a	n/a	n/a	1	[8, 5, 7]	20	PAL1	2	R1312N
244.465	8.368	245322	PROB	8344	n/a	-999	-999	n/a	n/a	n/a	n/a	1	[7, 9, 9]	24	PAL1	2	R1312N
252.833	4.784	253690	PROB	4745	n/a	-999	-999	n/a	n/a	n/a	n/a	1	[8, 4, 2]	12	PAL1	2	R1312N
257.617	7.28	258474	PROB	7280	n/a	-999	-999	n/a	n/a	n/a	n/a	1	[2, 5, 4]	10	PAL1	2	R1312N
264.897	0.022	265754	STOP	n/a	n/a	-999	-999	n/a	n/a	n/a	n/a	1	[-999, -999, -999]	-999	PAL1	2	R1312N
264.919	0.58	265776	MATH_END	n/a	n/a	-999	-999	n/a	n/a	n/a	n/a	1	[0, 0, 0]	-999	PAL1	2	R1312N
265.499	0.001	266356	RETRIEVAL_START	n/a	n/a	-999	-999	n/a	n/a	n/a	n/a	1	[0, 0, 0]	-999	PAL1	2	R1312N
265.5	0.286	266357	ORIENT_START	n/a	n/a	-999	-999	n/a	n/a	n/a	n/a	1	[0, 0, 0]	-999	PAL1	2	R1312N
265.786	0.694	266643	ORIENT_END	n/a	n/a	-999	-999	n/a	n/a	n/a	n/a	1	[0, 0, 0]	-999	PAL1	2	R1312N
266.48	0.0	267337	REC_START	n/a	n/a	3	1	SALT	BREAD	SALT	BREAD	1	[0, 0, 0]	-999	PAL1	2	R1312N
266.48	2.051	267337	PROBE_START	n/a	wordpools/wordpool_EN.txt	3	1	SALT	BREAD	SALT	BREAD	1	[0, 0, 0]	-999	PAL1	2	R1312N
268.531	1.972	269387	REC_EVENT	2051	n/a	3	1	SALT	BREAD	SALT	BREAD	1	[0, 0, 0]	-999	PAL1	2	R1312N
270.503	1.001	271359	PROBE_END	n/a	n/a	3	1	SALT	n/a	SALT	BREAD	1	[0, 0, 0]	-999	PAL1	2	R1312N
271.504	0.014	272360	REC_END	n/a	n/a	3	1	SALT	n/a	SALT	BREAD	1	[0, 0, 0]	-999	PAL1	2	R1312N
271.518	0.285	272374	ORIENT_START	n/a	n/a	-999	-999	n/a	n/a	n/a	n/a	1	[0, 0, 0]	-999	PAL1	2	R1312N
271.803	0.514	272659	ORIENT_END	n/a	n/a	-999	-999	n/a	n/a	n/a	n/a	1	[0, 0, 0]	-999	PAL1	2	R1312N
272.317	0.001	273173	REC_START	n/a	n/a	2	2	ICE	CROWN	CROWN	ICE	1	[0, 0, 0]	-999	PAL1	2	R1312N
272.318	1.657	273174	PROBE_START	n/a	wordpools/wordpool_EN.txt	2	2	ICE	CROWN	CROWN	ICE	1	[0, 0, 0]	-999	PAL1	2	R1312N
273.975	2.38	274831	REC_EVENT	1657	n/a	2	2	ICE	CROWN	CROWN	ICE	1	[0, 0, 0]	-999	PAL1	2	R1312N
276.355	1.0	277211	PROBE_END	n/a	n/a	2	2	ICE	n/a	CROWN	ICE	1	[0, 0, 0]	-999	PAL1	2	R1312N
277.355	0.012	278211	REC_END	n/a	n/a	2	2	ICE	n/a	CROWN	ICE	1	[0, 0, 0]	-999	PAL1	2	R1312N
277.367	0.271	278223	ORIENT_START	n/a	n/a	-999	-999	n/a	n/a	n/a	n/a	1	[0, 0, 0]	-999	PAL1	2	R1312N
277.638	0.53	278494	ORIENT_END	n/a	n/a	-999	-999	n/a	n/a	n/a	n/a	1	[0, 0, 0]	-999	PAL1	2	R1312N
278.168	0.001	279024	REC_START	n/a	n/a	5	3	DRUM	PIG	PIG	DRUM	1	[0, 0, 0]	-999	PAL1	2	R1312N
278.169	1.532	279025	PROBE_START	n/a	wordpools/wordpool_EN.txt	5	3	DRUM	PIG	PIG	DRUM	1	[0, 0, 0]	-999	PAL1	2	R1312N
279.701	2.487	280557	REC_EVENT	1532	n/a	5	3	DRUM	PIG	PIG	DRUM	1	[0, 0, 0]	-999	PAL1	2	R1312N
282.188	1.001	283044	PROBE_END	n/a	n/a	5	3	DRUM	n/a	PIG	DRUM	1	[0, 0, 0]	-999	PAL1	2	R1312N
283.189	0.011	284045	REC_END	n/a	n/a	5	3	DRUM	n/a	PIG	DRUM	1	[0, 0, 0]	-999	PAL1	2	R1312N
283.2	0.272	284056	ORIENT_START	n/a	n/a	-999	-999	n/a	n/a	n/a	n/a	1	[0, 0, 0]	-999	PAL1	2	R1312N
283.472	0.551	284328	ORIENT_END	n/a	n/a	-999	-999	n/a	n/a	n/a	n/a	1	[0, 0, 0]	-999	PAL1	2	R1312N
284.023	0.001	284879	REC_START	n/a	n/a	4	4	HOLE	BRUSH	BRUSH	HOLE	1	[0, 0, 0]	-999	PAL1	2	R1312N
284.024	1.596	284880	PROBE_START	n/a	wordpools/wordpool_EN.txt	4	4	HOLE	BRUSH	BRUSH	HOLE	1	[0, 0, 0]	-999	PAL1	2	R1312N
285.62	2.436	286476	REC_EVENT	1596	n/a	4	4	HOLE	BRUSH	BRUSH	HOLE	1	[0, 0, 0]	-999	PAL1	2	R1312N
288.056	1.0	288912	PROBE_END	n/a	n/a	4	4	HOLE	n/a	BRUSH	HOLE	1	[0, 0, 0]	-999	PAL1	2	R1312N
289.056	0.01	289912	REC_END	n/a	n/a	4	4	HOLE	n/a	BRUSH	HOLE	1	[0, 0, 0]	-999	PAL1	2	R1312N
289.066	0.274	289922	ORIENT_START	n/a	n/a	-999	-999	n/a	n/a	n/a	n/a	1	[0, 0, 0]	-999	PAL1	2	R1312N
289.34	0.693	290196	ORIENT_END	n/a	n/a	-999	-999	n/a	n/a	n/a	n/a	1	[0, 0, 0]	-999	PAL1	2	R1312N
290.033	0.0	290889	REC_START	n/a	n/a	1	5	THREAD	MOUTH	THREAD	MOUTH	1	[0, 0, 0]	-999	PAL1	2	R1312N
290.033	1.691	290889	PROBE_START	n/a	wordpools/wordpool_EN.txt	1	5	THREAD	MOUTH	THREAD	MOUTH	1	[0, 0, 0]	-999	PAL1	2	R1312N
291.724	2.333	292580	REC_EVENT	1691	n/a	1	5	THREAD	MOUTH	THREAD	MOUTH	1	[0, 0, 0]	-999	PAL1	2	R1312N
294.057	1.001	294913	PROBE_END	n/a	n/a	1	5	THREAD	n/a	THREAD	MOUTH	1	[0, 0, 0]	-999	PAL1	2	R1312N
295.058	0.013	295914	REC_END	n/a	n/a	1	5	THREAD	n/a	THREAD	MOUTH	1	[0, 0, 0]	-999	PAL1	2	R1312N
295.071	0.254	295927	ORIENT_START	n/a	n/a	-999	-999	n/a	n/a	n/a	n/a	1	[0, 0, 0]	-999	PAL1	2	R1312N
295.325	0.722	296181	ORIENT_END	n/a	n/a	-999	-999	n/a	n/a	n/a	n/a	1	[0, 0, 0]	-999	PAL1	2	R1312N
296.047	0.001	296903	REC_START	n/a	n/a	6	6	CAGE	FAN	CAGE	FAN	1	[0, 0, 0]	-999	PAL1	2	R1312N
296.048	1.835	296904	PROBE_START	n/a	wordpools/wordpool_EN.txt	6	6	CAGE	FAN	CAGE	FAN	1	[0, 0, 0]	-999	PAL1	2	R1312N
297.883	2.192	298739	REC_EVENT	1835	n/a	6	6	CAGE	FAN	CAGE	FAN	1	[0, 0, 0]	-999	PAL1	2	R1312N
300.075	1.0	300930	PROBE_END	n/a	n/a	6	6	CAGE	n/a	CAGE	FAN	1	[0, 0, 0]	-999	PAL1	2	R1312N
301.075	0.01	301930	REC_END	n/a	n/a	6	6	CAGE	n/a	CAGE	FAN	1	[0, 0, 0]	-999	PAL1	2	R1312N
301.085	0.0	301940	RETRIEVAL_END	n/a	n/a	-999	-999	n/a	n/a	n/a	n/a	1	[0, 0, 0]	-999	PAL1	2	R1312N
301.085	0.019	301940	TRIAL_END	n/a	n/a	-999	-999	n/a	n/a	n/a	n/a	1	[0, 0, 0]	-999	PAL1	2	R1312N
301.104	0.0	301959	TRIAL_START	n/a	n/a	-999	-999	n/a	n/a	n/a	n/a	1	[0, 0, 0]	-999	PAL1	2	R1312N
301.104	0.0	301959	TRIAL	n/a	n/a	-999	-999	n/a	n/a	n/a	n/a	2	[0, 0, 0]	-999	PAL1	2	R1312N
301.104	2.021	301959	WAITING_START	n/a	n/a	-999	-999	n/a	n/a	n/a	n/a	2	[0, 0, 0]	-999	PAL1	2	R1312N
303.125	0.001	303980	WAITING_END	n/a	n/a	-999	-999	n/a	n/a	n/a	n/a	2	[0, 0, 0]	-999	PAL1	2	R1312N
303.126	10.428	303981	COUNTDOWN_START	n/a	n/a	-999	-999	n/a	n/a	n/a	n/a	2	[0, 0, 0]	-999	PAL1	2	R1312N
313.554	0.001	314409	COUNTDOWN_END	n/a	n/a	-999	-999	n/a	n/a	n/a	n/a	2	[0, 0, 0]	-999	PAL1	2	R1312N
313.555	0.74	314410	ORIENT_START	n/a	n/a	-999	-999	n/a	n/a	n/a	n/a	2	[0, 0, 0]	-999	PAL1	2	R1312N
314.295	0.0	315150	ORIENT_END	n/a	n/a	-999	-999	n/a	n/a	n/a	n/a	2	[0, 0, 0]	-999	PAL1	2	R1312N
314.295	1.166	315150	ENCODING_START	n/a	n/a	-999	-999	n/a	n/a	n/a	n/a	2	[0, 0, 0]	-999	PAL1	2	R1312N
315.461	4.033	316316	STUDY_PAIR	n/a	wordpools/wordpool_EN.txt	1	-999	n/a	LAMP	LAMP	SHOE	2	[0, 0, 0]	-999	PAL1	2	R1312N
319.494	0.708	320349	STUDY_PAIR_OFF	n/a	n/a	1	-999	n/a	LAMP	LAMP	SHOE	2	[0, 0, 0]	-999	PAL1	2	R1312N
320.202	4.027	321057	STUDY_PAIR	n/a	wordpools/wordpool_EN.txt	2	-999	n/a	ZOO	CORD	ZOO	2	[0, 0, 0]	-999	PAL1	2	R1312N
324.229	0.743	325084	STUDY_PAIR_OFF	n/a	n/a	2	-999	n/a	ZOO	CORD	ZOO	2	[0, 0, 0]	-999	PAL1	2	R1312N
324.972	4.024	325827	STUDY_PAIR	n/a	wordpools/wordpool_EN.txt	3	-999	n/a	BOX	BOX	SMILE	2	[0, 0, 0]	-999	PAL1	2	R1312N
328.996	0.585	329850	STUDY_PAIR_OFF	n/a	n/a	3	-999	n/a	BOX	BOX	SMILE	2	[0, 0, 0]	-999	PAL1	2	R1312N
329.581	4.032	330435	STUDY_PAIR	n/a	wordpools/wordpool_EN.txt	4	-999	n/a	PEN	HEN	SOCK	2	[0, 0, 0]	-999	PAL1	2	R1312N
333.613	0.628	334467	STUDY_PAIR_OFF	n/a	n/a	4	-999	n/a	PEN	HEN	SOCK	2	[0, 0, 0]	-999	PAL1	2	R1312N
334.241	4.041	335095	STUDY_PAIR	n/a	wordpools/wordpool_EN.txt	5	-999	n/a	BENCH	STEAM	BENCH	2	[0, 0, 0]	-999	PAL1	2	R1312N
338.282	0.655	339136	STUDY_PAIR_OFF	n/a	n/a	5	-999	n/a	BENCH	STEAM	BENCH	2	[0, 0, 0]	-999	PAL1	2	R1312N
338.937	4.028	339791	STUDY_PAIR	n/a	wordpools/wordpool_EN.txt	6	-999	n/a	STONE	BROOM	STONE	2	[0, 0, 0]	-999	PAL1	2	R1312N
342.965	0.0	343819	STUDY_PAIR_OFF	n/a	n/a	6	-999	n/a	STONE	BROOM	STONE	2	[0, 0, 0]	-999	PAL1	2	R1312N
342.965	0.001	343819	ENCODING_END	n/a	n/a	-999	-999	n/a	n/a	n/a	n/a	2	[0, 0, 0]	-999	PAL1	2	R1312N
342.966	0.0	343820	MATH_START	n/a	n/a	-999	-999	n/a	n/a	n/a	n/a	2	[0, 0, 0]	-999	PAL1	2	R1312N
342.966	0.015	343820	START	n/a	n/a	-999	-999	n/a	n/a	n/a	n/a	2	[-999, -999, -999]	-999	PAL1	2	R1312N
342.981	7.453	343835	PROB	7429	n/a	-999	-999	n/a	n/a	n/a	n/a	2	[5, 9, 9]	23	PAL1	2	R1312N
350.434	5.917	351288	PROB	5880	n/a	-999	-999	n/a	n/a	n/a	n/a	2	[1, 4, 3]	10	PAL1	2	R1312N
356.351	9.035	357205	PROB	9035	n/a	-999	-999	n/a	n/a	n/a	n/a	2	[9, 9, 6]	26	PAL1	2	R1312N
365.386	0.017	366239	STOP	n/a	n/a	-999	-999	n/a	n/a	n/a	n/a	2	[-999, -999, -999]	-999	PAL1	2	R1312N
365.403	0.662	366256	MATH_END	n/a	n/a	-999	-999	n/a	n/a	n/a	n/a	2	[0, 0, 0]	-999	PAL1	2	R1312N
366.065	0.001	366918	RETRIEVAL_START	n/a	n/a	-999	-999	n/a	n/a	n/a	n/a	2	[0, 0, 0]	-999	PAL1	2	R1312N
366.066	0.27	366919	ORIENT_START	n/a	n/a	-999	-999	n/a	n/a	n/a	n/a	2	[0, 0, 0]	-999	PAL1	2	R1312N
366.336	0.573	367189	ORIENT_END	n/a	n/a	-999	-999	n/a	n/a	n/a	n/a	2	[0, 0, 0]	-999	PAL1	2	R1312N
366.909	0.0	367762	REC_START	n/a	n/a	3	1	SMILE	BOX	BOX	SMILE	2	[0, 0, 0]	-999	PAL1	2	R1312N
366.909	1.955	367762	PROBE_START	n/a	wordpools/wordpool_EN.txt	3	1	SMILE	BOX	BOX	SMILE	2	[0, 0, 0]	-999	PAL1	2	R1312N
368.864	2.072	369717	REC_EVENT	1955	n/a	3	1	SMILE	BOX	BOX	SMILE	2	[0, 0, 0]	-999	PAL1	2	R1312N
370.936	1.001	371789	PROBE_END	n/a	n/a	3	1	SMILE	n/a	BOX	SMILE	2	[0, 0, 0]	-999	PAL1	2	R1312N
371.937	0.011	372790	REC_END	n/a	n/a	3	1	SMILE	n/a	BOX	SMILE	2	[0, 0, 0]	-999	PAL1	2	R1312N
371.948	0.272	372801	ORIENT_START	n/a	n/a	-999	-999	n/a	n/a	n/a	n/a	2	[0, 0, 0]	-999	PAL1	2	R1312N
372.22	0.706	373073	ORIENT_END	n/a	n/a	-999	-999	n/a	n/a	n/a	n/a	2	[0, 0, 0]	-999	PAL1	2	R1312N
372.926	0.0	373779	REC_START	n/a	n/a	6	2	BROOM	STONE	BROOM	STONE	2	[0, 0, 0]	-999	PAL1	2	R1312N
372.926	2.082	373779	PROBE_START	n/a	wordpools/wordpool_EN.txt	6	2	BROOM	STONE	BROOM	STONE	2	[0, 0, 0]	-999	PAL1	2	R1312N
375.008	1.946	375861	REC_EVENT	2082	n/a	6	2	BROOM	STONE	BROOM	STONE	2	[0, 0, 0]	-999	PAL1	2	R1312N
376.954	1.0	377807	PROBE_END	n/a	n/a	6	2	BROOM	n/a	BROOM	STONE	2	[0, 0, 0]	-999	PAL1	2	R1312N
377.954	0.013	378807	REC_END	n/a	n/a	6	2	BROOM	n/a	BROOM	STONE	2	[0, 0, 0]	-999	PAL1	2	R1312N
377.967	0.27	378820	ORIENT_START	n/a	n/a	-999	-999	n/a	n/a	n/a	n/a	2	[0, 0, 0]	-999	PAL1	2	R1312N
378.237	0.745	379090	ORIENT_END	n/a	n/a	-999	-999	n/a	n/a	n/a	n/a	2	[0, 0, 0]	-999	PAL1	2	R1312N
378.982	0.001	379835	REC_START	n/a	n/a	1	3	SHOE	LAMP	LAMP	SHOE	2	[0, 0, 0]	-999	PAL1	2	R1312N
378.983	1.908	379836	PROBE_START	n/a	wordpools/wordpool_EN.txt	1	3	SHOE	LAMP	LAMP	SHOE	2	[0, 0, 0]	-999	PAL1	2	R1312N
380.891	2.114	381744	REC_EVENT	1908	n/a	1	3	SHOE	LAMP	LAMP	SHOE	2	[0, 0, 0]	-999	PAL1	2	R1312N
383.005	1.0	383858	PROBE_END	n/a	n/a	1	3	SHOE	n/a	LAMP	SHOE	2	[0, 0, 0]	-999	PAL1	2	R1312N
384.005	0.006	384858	REC_END	n/a	n/a	1	3	SHOE	n/a	LAMP	SHOE	2	[0, 0, 0]	-999	PAL1	2	R1312N
384.011	0.262	384864	ORIENT_START	n/a	n/a	-999	-999	n/a	n/a	n/a	n/a	2	[0, 0, 0]	-999	PAL1	2	R1312N
384.273	0.586	385126	ORIENT_END	n/a	n/a	-999	-999	n/a	n/a	n/a	n/a	2	[0, 0, 0]	-999	PAL1	2	R1312N
384.859	0.0	385712	REC_START	n/a	n/a	4	4	SOCK	PEN	HEN	SOCK	2	[0, 0, 0]	-999	PAL1	2	R1312N
384.859	1.658	385712	PROBE_START	n/a	wordpools/wordpool_EN.txt	4	4	SOCK	PEN	HEN	SOCK	2	[0, 0, 0]	-999	PAL1	2	R1312N
386.517	2.372	387370	REC_EVENT	1658	n/a	4	4	SOCK	PEN	HEN	SOCK	2	[0, 0, 0]	-999	PAL1	2	R1312N
388.889	1.001	389742	PROBE_END	n/a	n/a	4	4	SOCK	n/a	HEN	SOCK	2	[0, 0, 0]	-999	PAL1	2	R1312N
389.89	0.011	390742	REC_END	n/a	n/a	4	4	SOCK	n/a	HEN	SOCK	2	[0, 0, 0]	-999	PAL1	2	R1312N
389.901	0.272	390753	ORIENT_START	n/a	n/a	-999	-999	n/a	n/a	n/a	n/a	2	[0, 0, 0]	-999	PAL1	2	R1312N
390.173	0.615	391025	ORIENT_END	n/a	n/a	-999	-999	n/a	n/a	n/a	n/a	2	[0, 0, 0]	-999	PAL1	2	R1312N
390.788	0.0	391640	REC_START	n/a	n/a	5	5	STEAM	BENCH	STEAM	BENCH	2	[0, 0, 0]	-999	PAL1	2	R1312N
390.788	1.815	391640	PROBE_START	n/a	wordpools/wordpool_EN.txt	5	5	STEAM	BENCH	STEAM	BENCH	2	[0, 0, 0]	-999	PAL1	2	R1312N
392.603	2.221	393455	REC_EVENT	1815	n/a	5	5	STEAM	BENCH	STEAM	BENCH	2	[0, 0, 0]	-999	PAL1	2	R1312N
394.824	0.999	395676	PROBE_END	n/a	n/a	5	5	STEAM	n/a	STEAM	BENCH	2	[0, 0, 0]	-999	PAL1	2	R1312N
395.823	0.013	396675	REC_END	n/a	n/a	5	5	STEAM	n/a	STEAM	BENCH	2	[0, 0, 0]	-999	PAL1	2	R1312N
395.836	0.271	396688	ORIENT_START	n/a	n/a	-999	-999	n/a	n/a	n/a	n/a	2	[0, 0, 0]	-999	PAL1	2	R1312N
396.107	0.549	396959	ORIENT_END	n/a	n/a	-999	-999	n/a	n/a	n/a	n/a	2	[0, 0, 0]	-999	PAL1	2	R1312N
396.656	0.0	397508	REC_START	n/a	n/a	2	6	CORD	ZOO	CORD	ZOO	2	[0, 0, 0]	-999	PAL1	2	R1312N
396.656	1.733	397508	PROBE_START	n/a	wordpools/wordpool_EN.txt	2	6	CORD	ZOO	CORD	ZOO	2	[0, 0, 0]	-999	PAL1	2	R1312N
398.389	2.302	399241	REC_EVENT	1733	n/a	2	6	CORD	ZOO	CORD	ZOO	2	[0, 0, 0]	-999	PAL1	2	R1312N
400.691	1.0	401543	PROBE_END	n/a	n/a	2	6	CORD	n/a	CORD	ZOO	2	[0, 0, 0]	-999	PAL1	2	R1312N
401.691	0.01	402543	REC_END	n/a	n/a	2	6	CORD	n/a	CORD	ZOO	2	[0, 0, 0]	-999	PAL1	2	R1312N
401.701	0.0	402553	RETRIEVAL_END	n/a	n/a	-999	-999	n/a	n/a	n/a	n/a	2	[0, 0, 0]	-999	PAL1	2	R1312N
401.701	0.02	402553	TRIAL_END	n/a	n/a	-999	-999	n/a	n/a	n/a	n/a	2	[0, 0, 0]	-999	PAL1	2	R1312N
401.721	0.0	402573	TRIAL_START	n/a	n/a	-999	-999	n/a	n/a	n/a	n/a	2	[0, 0, 0]	-999	PAL1	2	R1312N
401.721	0.0	402573	TRIAL	n/a	n/a	-999	-999	n/a	n/a	n/a	n/a	3	[0, 0, 0]	-999	PAL1	2	R1312N
401.721	1.705	402573	WAITING_START	n/a	n/a	-999	-999	n/a	n/a	n/a	n/a	3	[0, 0, 0]	-999	PAL1	2	R1312N
403.426	0.0	404278	WAITING_END	n/a	n/a	-999	-999	n/a	n/a	n/a	n/a	3	[0, 0, 0]	-999	PAL1	2	R1312N
403.426	10.43	404278	COUNTDOWN_START	n/a	n/a	-999	-999	n/a	n/a	n/a	n/a	3	[0, 0, 0]	-999	PAL1	2	R1312N
413.856	0.001	414708	COUNTDOWN_END	n/a	n/a	-999	-999	n/a	n/a	n/a	n/a	3	[0, 0, 0]	-999	PAL1	2	R1312N
413.857	0.637	414709	ORIENT_START	n/a	n/a	-999	-999	n/a	n/a	n/a	n/a	3	[0, 0, 0]	-999	PAL1	2	R1312N
414.494	0.0	415346	ORIENT_END	n/a	n/a	-999	-999	n/a	n/a	n/a	n/a	3	[0, 0, 0]	-999	PAL1	2	R1312N
414.494	1.199	415346	ENCODING_START	n/a	n/a	-999	-999	n/a	n/a	n/a	n/a	3	[0, 0, 0]	-999	PAL1	2	R1312N
415.693	4.035	416545	STUDY_PAIR	n/a	wordpools/wordpool_EN.txt	1	-999	n/a	RAT	BIRD	RAT	3	[0, 0, 0]	-999	PAL1	2	R1312N
419.728	0.541	420579	STUDY_PAIR_OFF	n/a	n/a	1	-999	n/a	RAT	BIRD	RAT	3	[0, 0, 0]	-999	PAL1	2	R1312N
420.269	4.027	421120	STUDY_PAIR	n/a	wordpools/wordpool_EN.txt	2	-999	n/a	FLAME	WHALE	FLAME	3	[0, 0, 0]	-999	PAL1	2	R1312N
424.296	0.58	425147	STUDY_PAIR_OFF	n/a	n/a	2	-999	n/a	FLAME	WHALE	FLAME	3	[0, 0, 0]	-999	PAL1	2	R1312N
424.876	4.037	425727	STUDY_PAIR	n/a	wordpools/wordpool_EN.txt	3	-999	n/a	PLANT	PLANT	STOOL	3	[0, 0, 0]	-999	PAL1	2	R1312N
428.913	0.642	429764	STUDY_PAIR_OFF	n/a	n/a	3	-999	n/a	PLANT	PLANT	STOOL	3	[0, 0, 0]	-999	PAL1	2	R1312N
429.555	4.025	430406	STUDY_PAIR	n/a	wordpools/wordpool_EN.txt	4	-999	n/a	SHIELD	SHIELD	VASE	3	[0, 0, 0]	-999	PAL1	2	R1312N
433.58	0.74	434431	STUDY_PAIR_OFF	n/a	n/a	4	-999	n/a	SHIELD	SHIELD	VASE	3	[0, 0, 0]	-999	PAL1	2	R1312N
434.32	4.028	435171	STUDY_PAIR	n/a	wordpools/wordpool_EN.txt	5	-999	n/a	GLASS	PLANE	GLASS	3	[0, 0, 0]	-999	PAL1	2	R1312N
438.348	0.63	439199	STUDY_PAIR_OFF	n/a	n/a	5	-999	n/a	GLASS	PLANE	GLASS	3	[0, 0, 0]	-999	PAL1	2	R1312N
438.978	4.037	439829	STUDY_PAIR	n/a	wordpools/wordpool_EN.txt	6	-999	n/a	CHAIR	CHAIR	SLUSH	3	[0, 0, 0]	-999	PAL1	2	R1312N
443.015	0.0	443866	STUDY_PAIR_OFF	n/a	n/a	6	-999	n/a	CHAIR	CHAIR	SLUSH	3	[0, 0, 0]	-999	PAL1	2	R1312N
443.015	0.001	443866	ENCODING_END	n/a	n/a	-999	-999	n/a	n/a	n/a	n/a	3	[0, 0, 0]	-999	PAL1	2	R1312N
443.016	0.0	443867	MATH_START	n/a	n/a	-999	-999	n/a	n/a	n/a	n/a	3	[0, 0, 0]	-999	PAL1	2	R1312N
443.016	0.015	443867	START	n/a	n/a	-999	-999	n/a	n/a	n/a	n/a	3	[-999, -999, -999]	-999	PAL1	2	R1312N
443.031	5.319	443882	PROB	5283	n/a	-999	-999	n/a	n/a	n/a	n/a	3	[2, 2, 3]	8	PAL1	2	R1312N
448.35	5.683	449201	PROB	5659	n/a	-999	-999	n/a	n/a	n/a	n/a	3	[2, 9, 8]	19	PAL1	2	R1312N
454.033	8.085	454883	PROB	8048	n/a	-999	-999	n/a	n/a	n/a	n/a	3	[5, 9, 6]	20	PAL1	2	R1312N
462.118	3.851	462968	PROB	3851	n/a	-999	-999	n/a	n/a	n/a	n/a	3	[4, 2, 3]	9	PAL1	2	R1312N
465.969	0.016	466819	STOP	n/a	n/a	-999	-999	n/a	n/a	n/a	n/a	3	[-999, -999, -999]	-999	PAL1	2	R1312N
465.985	0.508	466835	MATH_END	n/a	n/a	-999	-999	n/a	n/a	n/a	n/a	3	[0, 0, 0]	-999	PAL1	2	R1312N
466.493	0.003	467343	RETRIEVAL_START	n/a	n/a	-999	-999	n/a	n/a	n/a	n/a	3	[0, 0, 0]	-999	PAL1	2	R1312N
466.496	0.273	467346	ORIENT_START	n/a	n/a	-999	-999	n/a	n/a	n/a	n/a	3	[0, 0, 0]	-999	PAL1	2	R1312N
466.769	0.604	467619	ORIENT_END	n/a	n/a	-999	-999	n/a	n/a	n/a	n/a	3	[0, 0, 0]	-999	PAL1	2	R1312N
467.373	0.0	468223	REC_START	n/a	n/a	3	1	STOOL	PLANT	PLANT	STOOL	3	[0, 0, 0]	-999	PAL1	2	R1312N
467.373	2.177	468223	PROBE_START	n/a	wordpools/wordpool_EN.txt	3	1	STOOL	PLANT	PLANT	STOOL	3	[0, 0, 0]	-999	PAL1	2	R1312N
469.55	1.854	470400	REC_EVENT	2177	n/a	3	1	STOOL	PLANT	PLANT	STOOL	3	[0, 0, 0]	-999	PAL1	2	R1312N
471.404	0.999	472254	PROBE_END	n/a	n/a	3	1	STOOL	n/a	PLANT	STOOL	3	[0, 0, 0]	-999	PAL1	2	R1312N
472.403	0.012	473253	REC_END	n/a	n/a	3	1	STOOL	n/a	PLANT	STOOL	3	[0, 0, 0]	-999	PAL1	2	R1312N
472.415	0.271	473265	ORIENT_START	n/a	n/a	-999	-999	n/a	n/a	n/a	n/a	3	[0, 0, 0]	-999	PAL1	2	R1312N
472.686	0.624	473536	ORIENT_END	n/a	n/a	-999	-999	n/a	n/a	n/a	n/a	3	[0, 0, 0]	-999	PAL1	2	R1312N
473.31	0.0	474160	REC_START	n/a	n/a	2	2	WHALE	FLAME	WHALE	FLAME	3	[0, 0, 0]	-999	PAL1	2	R1312N
473.31	1.611	474160	PROBE_START	n/a	wordpools/wordpool_EN.txt	2	2	WHALE	FLAME	WHALE	FLAME	3	[0, 0, 0]	-999	PAL1	2	R1312N
474.921	2.417	475771	REC_EVENT	1611	n/a	2	2	WHALE	FLAME	WHALE	FLAME	3	[0, 0, 0]	-999	PAL1	2	R1312N
477.338	1.0	478188	PROBE_END	n/a	n/a	2	2	WHALE	n/a	WHALE	FLAME	3	[0, 0, 0]	-999	PAL1	2	R1312N
478.338	0.012	479188	REC_END	n/a	n/a	2	2	WHALE	n/a	WHALE	FLAME	3	[0, 0, 0]	-999	PAL1	2	R1312N
478.35	0.271	479200	ORIENT_START	n/a	n/a	-999	-999	n/a	n/a	n/a	n/a	3	[0, 0, 0]	-999	PAL1	2	R1312N
478.621	0.536	479471	ORIENT_END	n/a	n/a	-999	-999	n/a	n/a	n/a	n/a	3	[0, 0, 0]	-999	PAL1	2	R1312N
479.157	0.0	480007	REC_START	n/a	n/a	1	3	BIRD	RAT	BIRD	RAT	3	[0, 0, 0]	-999	PAL1	2	R1312N
479.157	1.798	480007	PROBE_START	n/a	wordpools/wordpool_EN.txt	1	3	BIRD	RAT	BIRD	RAT	3	[0, 0, 0]	-999	PAL1	2	R1312N
480.955	2.233	481804	REC_EVENT	1798	n/a	1	3	BIRD	RAT	BIRD	RAT	3	[0, 0, 0]	-999	PAL1	2	R1312N
483.188	1.001	484037	PROBE_END	n/a	n/a	1	3	BIRD	n/a	BIRD	RAT	3	[0, 0, 0]	-999	PAL1	2	R1312N
484.189	0.011	485038	REC_END	n/a	n/a	1	3	BIRD	n/a	BIRD	RAT	3	[0, 0, 0]	-999	PAL1	2	R1312N
484.2	0.272	485049	ORIENT_START	n/a	n/a	-999	-999	n/a	n/a	n/a	n/a	3	[0, 0, 0]	-999	PAL1	2	R1312N
484.472	0.644	485321	ORIENT_END	n/a	n/a	-999	-999	n/a	n/a	n/a	n/a	3	[0, 0, 0]	-999	PAL1	2	R1312N
485.116	0.0	485965	REC_START	n/a	n/a	6	4	SLUSH	CHAIR	CHAIR	SLUSH	3	[0, 0, 0]	-999	PAL1	2	R1312N
485.116	1.969	485965	PROBE_START	n/a	wordpools/wordpool_EN.txt	6	4	SLUSH	CHAIR	CHAIR	SLUSH	3	[0, 0, 0]	-999	PAL1	2	R1312N
487.085	2.037	487934	REC_EVENT	1969	n/a	6	4	SLUSH	CHAIR	CHAIR	SLUSH	3	[0, 0, 0]	-999	PAL1	2	R1312N
489.122	1.001	489971	PROBE_END	n/a	n/a	6	4	SLUSH	n/a	CHAIR	SLUSH	3	[0, 0, 0]	-999	PAL1	2	R1312N
490.123	0.01	490972	REC_END	n/a	n/a	6	4	SLUSH	n/a	CHAIR	SLUSH	3	[0, 0, 0]	-999	PAL1	2	R1312N
490.133	0.274	490982	ORIENT_START	n/a	n/a	-999	-999	n/a	n/a	n/a	n/a	3	[0, 0, 0]	-999	PAL1	2	R1312N
490.407	0.503	491256	ORIENT_END	n/a	n/a	-999	-999	n/a	n/a	n/a	n/a	3	[0, 0, 0]	-999	PAL1	2	R1312N
490.91	0.0	491759	REC_START	n/a	n/a	5	5	PLANE	GLASS	PLANE	GLASS	3	[0, 0, 0]	-999	PAL1	2	R1312N
490.91	1.583	491759	PROBE_START	n/a	wordpools/wordpool_EN.txt	5	5	PLANE	GLASS	PLANE	GLASS	3	[0, 0, 0]	-999	PAL1	2	R1312N
492.493	2.447	493342	REC_EVENT	1583	n/a	5	5	PLANE	GLASS	PLANE	GLASS	3	[0, 0, 0]	-999	PAL1	2	R1312N
494.94	1.001	495789	PROBE_END	n/a	n/a	5	5	PLANE	n/a	PLANE	GLASS	3	[0, 0, 0]	-999	PAL1	2	R1312N
495.941	0.011	496790	REC_END	n/a	n/a	5	5	PLANE	n/a	PLANE	GLASS	3	[0, 0, 0]	-999	PAL1	2	R1312N
495.952	0.272	496801	ORIENT_START	n/a	n/a	-999	-999	n/a	n/a	n/a	n/a	3	[0, 0, 0]	-999	PAL1	2	R1312N
496.224	0.532	497073	ORIENT_END	n/a	n/a	-999	-999	n/a	n/a	n/a	n/a	3	[0, 0, 0]	-999	PAL1	2	R1312N
496.756	0.001	497605	REC_START	n/a	n/a	4	6	VASE	SHIELD	SHIELD	VASE	3	[0, 0, 0]	-999	PAL1	2	R1312N
496.757	1.571	497606	PROBE_START	n/a	wordpools/wordpool_EN.txt	4	6	VASE	SHIELD	SHIELD	VASE	3	[0, 0, 0]	-999	PAL1	2	R1312N
498.328	2.463	499177	REC_EVENT	1571	n/a	4	6	VASE	SHIELD	SHIELD	VASE	3	[0, 0, 0]	-999	PAL1	2	R1312N
500.791	1.0	501640	PROBE_END	n/a	n/a	4	6	VASE	n/a	SHIELD	VASE	3	[0, 0, 0]	-999	PAL1	2	R1312N
501.791	0.009	502640	REC_END	n/a	n/a	4	6	VASE	n/a	SHIELD	VASE	3	[0, 0, 0]	-999	PAL1	2	R1312N
501.8	0.0	502649	TRIAL_END	n/a	n/a	-999	-999	n/a	n/a	n/a	n/a	3	[0, 0, 0]	-999	PAL1	2	R1312N
501.8	0.022	502649	RETRIEVAL_END	n/a	n/a	-999	-999	n/a	n/a	n/a	n/a	3	[0, 0, 0]	-999	PAL1	2	R1312N
501.822	0.0	502671	TRIAL_START	n/a	n/a	-999	-999	n/a	n/a	n/a	n/a	3	[0, 0, 0]	-999	PAL1	2	R1312N
501.822	0.001	502671	TRIAL	n/a	n/a	-999	-999	n/a	n/a	n/a	n/a	4	[0, 0, 0]	-999	PAL1	2	R1312N
501.823	2.052	502672	WAITING_START	n/a	n/a	-999	-999	n/a	n/a	n/a	n/a	4	[0, 0, 0]	-999	PAL1	2	R1312N
503.875	0.0	504724	WAITING_END	n/a	n/a	-999	-999	n/a	n/a	n/a	n/a	4	[0, 0, 0]	-999	PAL1	2	R1312N
503.875	10.43	504724	COUNTDOWN_START	n/a	n/a	-999	-999	n/a	n/a	n/a	n/a	4	[0, 0, 0]	-999	PAL1	2	R1312N
514.305	0.0	515153	COUNTDOWN_END	n/a	n/a	-999	-999	n/a	n/a	n/a	n/a	4	[0, 0, 0]	-999	PAL1	2	R1312N
514.305	0.655	515153	ORIENT_START	n/a	n/a	-999	-999	n/a	n/a	n/a	n/a	4	[0, 0, 0]	-999	PAL1	2	R1312N
514.96	0.0	515808	ORIENT_END	n/a	n/a	-999	-999	n/a	n/a	n/a	n/a	4	[0, 0, 0]	-999	PAL1	2	R1312N
514.96	1.155	515808	ENCODING_START	n/a	n/a	-999	-999	n/a	n/a	n/a	n/a	4	[0, 0, 0]	-999	PAL1	2	R1312N
516.115	4.029	516963	STUDY_PAIR	n/a	wordpools/wordpool_EN.txt	1	-999	n/a	CHEEK	CHEEK	WAND	4	[0, 0, 0]	-999	PAL1	2	R1312N
520.144	0.535	520992	STUDY_PAIR_OFF	n/a	n/a	1	-999	n/a	CHEEK	CHEEK	WAND	4	[0, 0, 0]	-999	PAL1	2	R1312N
520.679	4.032	521527	STUDY_PAIR	n/a	wordpools/wordpool_EN.txt	2	-999	n/a	SOUP	WEB	SOUP	4	[0, 0, 0]	-999	PAL1	2	R1312N
524.711	0.684	525559	STUDY_PAIR_OFF	n/a	n/a	2	-999	n/a	SOUP	WEB	SOUP	4	[0, 0, 0]	-999	PAL1	2	R1312N
525.395	4.035	526243	STUDY_PAIR	n/a	wordpools/wordpool_EN.txt	3	-999	n/a	FLAG	FLAG	DOCK	4	[0, 0, 0]	-999	PAL1	2	R1312N
529.43	0.504	530278	STUDY_PAIR_OFF	n/a	n/a	3	-999	n/a	FLAG	FLAG	DOCK	4	[0, 0, 0]	-999	PAL1	2	R1312N
529.934	4.029	530782	STUDY_PAIR	n/a	wordpools/wordpool_EN.txt	4	-999	n/a	WOLF	BOAT	WOLF	4	[0, 0, 0]	-999	PAL1	2	R1312N
533.963	0.533	534811	STUDY_PAIR_OFF	n/a	n/a	4	-999	n/a	WOLF	BOAT	WOLF	4	[0, 0, 0]	-999	PAL1	2	R1312N
534.496	4.034	535344	STUDY_PAIR	n/a	wordpools/wordpool_EN.txt	5	-999	n/a	CALF	CALF	ROOM	4	[0, 0, 0]	-999	PAL1	2	R1312N
538.53	0.723	539378	STUDY_PAIR_OFF	n/a	n/a	5	-999	n/a	CALF	CALF	ROOM	4	[0, 0, 0]	-999	PAL1	2	R1312N
539.253	4.029	540101	STUDY_PAIR	n/a	wordpools/wordpool_EN.txt	6	-999	n/a	VEST	FOX	VEST	4	[0, 0, 0]	-999	PAL1	2	R1312N
543.282	0.001	544129	STUDY_PAIR_OFF	n/a	n/a	6	-999	n/a	VEST	FOX	VEST	4	[0, 0, 0]	-999	PAL1	2	R1312N
543.283	0.0	544130	ENCODING_END	n/a	n/a	-999	-999	n/a	n/a	n/a	n/a	4	[0, 0, 0]	-999	PAL1	2	R1312N
543.283	0.0	544130	MATH_START	n/a	n/a	-999	-999	n/a	n/a	n/a	n/a	4	[0, 0, 0]	-999	PAL1	2	R1312N
543.283	0.016	544130	START	n/a	n/a	-999	-999	n/a	n/a	n/a	n/a	4	[-999, -999, -999]	-999	PAL1	2	R1312N
543.299	8.101	544146	PROB	8071	n/a	-999	-999	n/a	n/a	n/a	n/a	4	[5, 3, 8]	17	PAL1	2	R1312N
551.4	5.5	552247	PROB	5465	n/a	-999	-999	n/a	n/a	n/a	n/a	4	[8, 8, 4]	20	PAL1	2	R1312N
556.9	4.535	557747	PROB	4502	n/a	-999	-999	n/a	n/a	n/a	n/a	4	[3, 3, 2]	9	PAL1	2	R1312N
561.435	14.03	562282	PROB	14030	n/a	-999	-999	n/a	n/a	n/a	n/a	4	[6, 6, 8]	19	PAL1	2	R1312N
575.465	0.004	576311	STOP	n/a	n/a	-999	-999	n/a	n/a	n/a	n/a	4	[-999, -999, -999]	-999	PAL1	2	R1312N
575.469	0.549	576315	MATH_END	n/a	n/a	-999	-999	n/a	n/a	n/a	n/a	4	[0, 0, 0]	-999	PAL1	2	R1312N
576.018	0.002	576864	RETRIEVAL_START	n/a	n/a	-999	-999	n/a	n/a	n/a	n/a	4	[0, 0, 0]	-999	PAL1	2	R1312N
576.02	0.267	576866	ORIENT_START	n/a	n/a	-999	-999	n/a	n/a	n/a	n/a	4	[0, 0, 0]	-999	PAL1	2	R1312N
576.287	0.652	577133	ORIENT_END	n/a	n/a	-999	-999	n/a	n/a	n/a	n/a	4	[0, 0, 0]	-999	PAL1	2	R1312N
576.939	0.0	577785	REC_START	n/a	n/a	3	1	DOCK	FLAG	FLAG	DOCK	4	[0, 0, 0]	-999	PAL1	2	R1312N
576.939	1.978	577785	PROBE_START	n/a	wordpools/wordpool_EN.txt	3	1	DOCK	FLAG	FLAG	DOCK	4	[0, 0, 0]	-999	PAL1	2	R1312N
578.917	2.054	579763	REC_EVENT	1978	n/a	3	1	DOCK	FLAG	FLAG	DOCK	4	[0, 0, 0]	-999	PAL1	2	R1312N
580.971	1.0	581817	PROBE_END	n/a	n/a	3	1	DOCK	n/a	FLAG	DOCK	4	[0, 0, 0]	-999	PAL1	2	R1312N
581.971	0.011	582817	REC_END	n/a	n/a	3	1	DOCK	n/a	FLAG	DOCK	4	[0, 0, 0]	-999	PAL1	2	R1312N
581.982	0.273	582828	ORIENT_START	n/a	n/a	-999	-999	n/a	n/a	n/a	n/a	4	[0, 0, 0]	-999	PAL1	2	R1312N
582.255	0.549	583101	ORIENT_END	n/a	n/a	-999	-999	n/a	n/a	n/a	n/a	4	[0, 0, 0]	-999	PAL1	2	R1312N
582.804	0.001	583650	REC_START	n/a	n/a	2	2	WEB	SOUP	WEB	SOUP	4	[0, 0, 0]	-999	PAL1	2	R1312N
582.805	1.925	583651	PROBE_START	n/a	wordpools/wordpool_EN.txt	2	2	WEB	SOUP	WEB	SOUP	4	[0, 0, 0]	-999	PAL1	2	R1312N
584.73	2.108	585576	REC_EVENT	1925	n/a	2	2	WEB	SOUP	WEB	SOUP	4	[0, 0, 0]	-999	PAL1	2	R1312N
586.838	1.001	587684	PROBE_END	n/a	n/a	2	2	WEB	n/a	WEB	SOUP	4	[0, 0, 0]	-999	PAL1	2	R1312N
587.839	0.01	588685	REC_END	n/a	n/a	2	2	WEB	n/a	WEB	SOUP	4	[0, 0, 0]	-999	PAL1	2	R1312N
587.849	0.273	588695	ORIENT_START	n/a	n/a	-999	-999	n/a	n/a	n/a	n/a	4	[0, 0, 0]	-999	PAL1	2	R1312N
588.122	0.712	588968	ORIENT_END	n/a	n/a	-999	-999	n/a	n/a	n/a	n/a	4	[0, 0, 0]	-999	PAL1	2	R1312N
588.834	0.0	589680	REC_START	n/a	n/a	5	3	ROOM	CALF	CALF	ROOM	4	[0, 0, 0]	-999	PAL1	2	R1312N
588.834	3.105	589680	PROBE_START	n/a	wordpools/wordpool_EN.txt	5	3	ROOM	CALF	CALF	ROOM	4	[0, 0, 0]	-999	PAL1	2	R1312N
591.939	0.917	592785	REC_EVENT	3105	n/a	5	3	ROOM	CALF	CALF	ROOM	4	[0, 0, 0]	-999	PAL1	2	R1312N
592.856	1.0	593702	PROBE_END	n/a	n/a	5	3	ROOM	n/a	CALF	ROOM	4	[0, 0, 0]	-999	PAL1	2	R1312N
593.856	0.011	594702	REC_END	n/a	n/a	5	3	ROOM	n/a	CALF	ROOM	4	[0, 0, 0]	-999	PAL1	2	R1312N
593.867	0.273	594713	ORIENT_START	n/a	n/a	-999	-999	n/a	n/a	n/a	n/a	4	[0, 0, 0]	-999	PAL1	2	R1312N
594.14	0.663	594986	ORIENT_END	n/a	n/a	-999	-999	n/a	n/a	n/a	n/a	4	[0, 0, 0]	-999	PAL1	2	R1312N
594.803	0.0	595649	REC_START	n/a	n/a	6	4	FOX	VEST	FOX	VEST	4	[0, 0, 0]	-999	PAL1	2	R1312N
594.803	2.41	595649	PROBE_START	n/a	wordpools/wordpool_EN.txt	6	4	FOX	VEST	FOX	VEST	4	[0, 0, 0]	-999	PAL1	2	R1312N
597.213	1.627	598059	REC_EVENT	2410	n/a	6	4	FOX	VEST	FOX	VEST	4	[0, 0, 0]	-999	PAL1	2	R1312N
598.84	1.0	599686	PROBE_END	n/a	n/a	6	4	FOX	n/a	FOX	VEST	4	[0, 0, 0]	-999	PAL1	2	R1312N
599.84	0.011	600686	REC_END	n/a	n/a	6	4	FOX	n/a	FOX	VEST	4	[0, 0, 0]	-999	PAL1	2	R1312N
599.851	0.273	600697	ORIENT_START	n/a	n/a	-999	-999	n/a	n/a	n/a	n/a	4	[0, 0, 0]	-999	PAL1	2	R1312N
600.124	0.65	600970	ORIENT_END	n/a	n/a	-999	-999	n/a	n/a	n/a	n/a	4	[0, 0, 0]	-999	PAL1	2	R1312N
600.774	0.0	601620	REC_START	n/a	n/a	1	5	WAND	CHEEK	CHEEK	WAND	4	[0, 0, 0]	-999	PAL1	2	R1312N
600.774	1.693	601620	PROBE_START	n/a	wordpools/wordpool_EN.txt	1	5	WAND	CHEEK	CHEEK	WAND	4	[0, 0, 0]	-999	PAL1	2	R1312N
602.467	2.341	603312	REC_EVENT	1693	n/a	1	5	WAND	CHEEK	CHEEK	WAND	4	[0, 0, 0]	-999	PAL1	2	R1312N
604.808	1.0	605653	PROBE_END	n/a	n/a	1	5	WAND	n/a	CHEEK	WAND	4	[0, 0, 0]	-999	PAL1	2	R1312N
605.808	0.011	606653	REC_END	n/a	n/a	1	5	WAND	n/a	CHEEK	WAND	4	[0, 0, 0]	-999	PAL1	2	R1312N
605.819	0.273	606664	ORIENT_START	n/a	n/a	-999	-999	n/a	n/a	n/a	n/a	4	[0, 0, 0]	-999	PAL1	2	R1312N
606.092	0.635	606937	ORIENT_END	n/a	n/a	-999	-999	n/a	n/a	n/a	n/a	4	[0, 0, 0]	-999	PAL1	2	R1312N
606.727	0.0	607572	REC_START	n/a	n/a	4	6	BOAT	WOLF	BOAT	WOLF	4	[0, 0, 0]	-999	PAL1	2	R1312N
606.727	1.965	607572	PROBE_START	n/a	wordpools/wordpool_EN.txt	4	6	BOAT	WOLF	BOAT	WOLF	4	[0, 0, 0]	-999	PAL1	2	R1312N
608.692	2.067	609537	REC_EVENT	1965	n/a	4	6	BOAT	WOLF	BOAT	WOLF	4	[0, 0, 0]	-999	PAL1	2	R1312N
610.759	1.001	611604	PROBE_END	n/a	n/a	4	6	BOAT	n/a	BOAT	WOLF	4	[0, 0, 0]	-999	PAL1	2	R1312N
611.76	0.01	612605	REC_END	n/a	n/a	4	6	BOAT	n/a	BOAT	WOLF	4	[0, 0, 0]	-999	PAL1	2	R1312N
611.77	0.0	612615	TRIAL_END	n/a	n/a	-999	-999	n/a	n/a	n/a	n/a	4	[0, 0, 0]	-999	PAL1	2	R1312N
611.77	0.022	612615	RETRIEVAL_END	n/a	n/a	-999	-999	n/a	n/a	n/a	n/a	4	[0, 0, 0]	-999	PAL1	2	R1312N
611.792	0.0	612637	TRIAL_START	n/a	n/a	-999	-999	n/a	n/a	n/a	n/a	4	[0, 0, 0]	-999	PAL1	2	R1312N
611.792	0.001	612637	TRIAL	n/a	n/a	-999	-999	n/a	n/a	n/a	n/a	5	[0, 0, 0]	-999	PAL1	2	R1312N
611.793	1.75	612638	WAITING_START	n/a	n/a	-999	-999	n/a	n/a	n/a	n/a	5	[0, 0, 0]	-999	PAL1	2	R1312N
613.543	0.0	614388	WAITING_END	n/a	n/a	-999	-999	n/a	n/a	n/a	n/a	5	[0, 0, 0]	-999	PAL1	2	R1312N
613.543	10.429	614388	COUNTDOWN_START	n/a	n/a	-999	-999	n/a	n/a	n/a	n/a	5	[0, 0, 0]	-999	PAL1	2	R1312N
623.972	0.0	624817	COUNTDOWN_END	n/a	n/a	-999	-999	n/a	n/a	n/a	n/a	5	[0, 0, 0]	-999	PAL1	2	R1312N
623.972	0.673	624817	ORIENT_START	n/a	n/a	-999	-999	n/a	n/a	n/a	n/a	5	[0, 0, 0]	-999	PAL1	2	R1312N
624.645	0.0	625490	ORIENT_END	n/a	n/a	-999	-999	n/a	n/a	n/a	n/a	5	[0, 0, 0]	-999	PAL1	2	R1312N
624.645	1.211	625490	ENCODING_START	n/a	n/a	-999	-999	n/a	n/a	n/a	n/a	5	[0, 0, 0]	-999	PAL1	2	R1312N
625.856	4.04	626701	STUDY_PAIR	n/a	wordpools/wordpool_EN.txt	1	-999	n/a	HAND	HAND	SWAMP	5	[0, 0, 0]	-999	PAL1	2	R1312N
629.896	0.561	630741	STUDY_PAIR_OFF	n/a	n/a	1	-999	n/a	HAND	HAND	SWAMP	5	[0, 0, 0]	-999	PAL1	2	R1312N
630.457	4.039	631302	STUDY_PAIR	n/a	wordpools/wordpool_EN.txt	2	-999	n/a	PIT	PIT	MUD	5	[0, 0, 0]	-999	PAL1	2	R1312N
634.496	0.648	635340	STUDY_PAIR_OFF	n/a	n/a	2	-999	n/a	PIT	PIT	MUD	5	[0, 0, 0]	-999	PAL1	2	R1312N
635.144	4.036	635988	STUDY_PAIR	n/a	wordpools/wordpool_EN.txt	3	-999	n/a	MULE	TRASH	MULE	5	[0, 0, 0]	-999	PAL1	2	R1312N
639.18	0.643	640024	STUDY_PAIR_OFF	n/a	n/a	3	-999	n/a	MULE	TRASH	MULE	5	[0, 0, 0]	-999	PAL1	2	R1312N
639.823	4.025	640667	STUDY_PAIR	n/a	wordpools/wordpool_EN.txt	4	-999	n/a	SPOON	SPOON	CLOCK	5	[0, 0, 0]	-999	PAL1	2	R1312N
643.848	0.591	644692	STUDY_PAIR_OFF	n/a	n/a	4	-999	n/a	SPOON	SPOON	CLOCK	5	[0, 0, 0]	-999	PAL1	2	R1312N
644.439	4.026	645283	STUDY_PAIR	n/a	wordpools/wordpool_EN.txt	5	-999	n/a	TENT	OAK	TENT	5	[0, 0, 0]	-999	PAL1	2	R1312N
648.465	0.645	649309	STUDY_PAIR_OFF	n/a	n/a	5	-999	n/a	TENT	OAK	TENT	5	[0, 0, 0]	-999	PAL1	2	R1312N
649.11	4.023	649954	STUDY_PAIR	n/a	wordpools/wordpool_EN.txt	6	-999	n/a	STORE	MAP	STORE	5	[0, 0, 0]	-999	PAL1	2	R1312N
653.133	0.0	653977	STUDY_PAIR_OFF	n/a	n/a	6	-999	n/a	STORE	MAP	STORE	5	[0, 0, 0]	-999	PAL1	2	R1312N
653.133	0.001	653977	ENCODING_END	n/a	n/a	-999	-999	n/a	n/a	n/a	n/a	5	[0, 0, 0]	-999	PAL1	2	R1312N
653.134	0.0	653978	MATH_START	n/a	n/a	-999	-999	n/a	n/a	n/a	n/a	5	[0, 0, 0]	-999	PAL1	2	R1312N
653.134	0.015	653978	START	n/a	n/a	-999	-999	n/a	n/a	n/a	n/a	5	[-999, -999, -999]	-999	PAL1	2	R1312N
653.149	5.534	653993	PROB	5508	n/a	-999	-999	n/a	n/a	n/a	n/a	5	[6, 4, 7]	17	PAL1	2	R1312N
658.683	7.251	659527	PROB	7222	n/a	-999	-999	n/a	n/a	n/a	n/a	5	[9, 5, 2]	16	PAL1	2	R1312N
665.934	3.784	666777	PROB	3747	n/a	-999	-999	n/a	n/a	n/a	n/a	5	[1, 5, 2]	8	PAL1	2	R1312N
669.718	3.475	670561	PROB	3475	n/a	-999	-999	n/a	n/a	n/a	n/a	5	[6, 2, 1]	9	PAL1	2	R1312N
673.193	0.01	674036	STOP	n/a	n/a	-999	-999	n/a	n/a	n/a	n/a	5	[-999, -999, -999]	-999	PAL1	2	R1312N
673.203	0.613	674046	MATH_END	n/a	n/a	-999	-999	n/a	n/a	n/a	n/a	5	[0, 0, 0]	-999	PAL1	2	R1312N
673.816	0.001	674659	RETRIEVAL_START	n/a	n/a	-999	-999	n/a	n/a	n/a	n/a	5	[0, 0, 0]	-999	PAL1	2	R1312N
673.817	0.286	674660	ORIENT_START	n/a	n/a	-999	-999	n/a	n/a	n/a	n/a	5	[0, 0, 0]	-999	PAL1	2	R1312N
674.103	0.642	674946	ORIENT_END	n/a	n/a	-999	-999	n/a	n/a	n/a	n/a	5	[0, 0, 0]	-999	PAL1	2	R1312N
674.745	0.0	675588	PROBE_START	n/a	wordpools/wordpool_EN.txt	5	1	OAK	TENT	OAK	TENT	5	[0, 0, 0]	-999	PAL1	2	R1312N
674.745	2.162	675588	REC_START	n/a	n/a	5	1	OAK	TENT	OAK	TENT	5	[0, 0, 0]	-999	PAL1	2	R1312N
676.907	1.863	677750	REC_EVENT	2162	n/a	5	1	OAK	TENT	OAK	TENT	5	[0, 0, 0]	-999	PAL1	2	R1312N
678.77	1.0	679613	PROBE_END	n/a	n/a	5	1	OAK	n/a	OAK	TENT	5	[0, 0, 0]	-999	PAL1	2	R1312N
679.77	0.012	680613	REC_END	n/a	n/a	5	1	OAK	n/a	OAK	TENT	5	[0, 0, 0]	-999	PAL1	2	R1312N
679.782	0.272	680625	ORIENT_START	n/a	n/a	-999	-999	n/a	n/a	n/a	n/a	5	[0, 0, 0]	-999	PAL1	2	R1312N
680.054	0.569	680897	ORIENT_END	n/a	n/a	-999	-999	n/a	n/a	n/a	n/a	5	[0, 0, 0]	-999	PAL1	2	R1312N
680.623	0.001	681466	REC_START	n/a	n/a	4	2	CLOCK	SPOON	SPOON	CLOCK	5	[0, 0, 0]	-999	PAL1	2	R1312N
680.624	1.532	681467	PROBE_START	n/a	wordpools/wordpool_EN.txt	4	2	CLOCK	SPOON	SPOON	CLOCK	5	[0, 0, 0]	-999	PAL1	2	R1312N
682.156	2.498	682999	REC_EVENT	1532	n/a	4	2	CLOCK	SPOON	SPOON	CLOCK	5	[0, 0, 0]	-999	PAL1	2	R1312N
684.654	1.001	685497	PROBE_END	n/a	n/a	4	2	CLOCK	n/a	SPOON	CLOCK	5	[0, 0, 0]	-999	PAL1	2	R1312N
685.655	0.011	686498	REC_END	n/a	n/a	4	2	CLOCK	n/a	SPOON	CLOCK	5	[0, 0, 0]	-999	PAL1	2	R1312N
685.666	0.272	686509	ORIENT_START	n/a	n/a	-999	-999	n/a	n/a	n/a	n/a	5	[0, 0, 0]	-999	PAL1	2	R1312N
685.938	0.6	686781	ORIENT_END	n/a	n/a	-999	-999	n/a	n/a	n/a	n/a	5	[0, 0, 0]	-999	PAL1	2	R1312N
686.538	0.0	687381	PROBE_START	n/a	wordpools/wordpool_EN.txt	3	3	TRASH	MULE	TRASH	MULE	5	[0, 0, 0]	-999	PAL1	2	R1312N
686.538	1.797	687381	REC_START	n/a	n/a	3	3	TRASH	MULE	TRASH	MULE	5	[0, 0, 0]	-999	PAL1	2	R1312N
688.335	2.237	689178	REC_EVENT	1797	n/a	3	3	TRASH	MULE	TRASH	MULE	5	[0, 0, 0]	-999	PAL1	2	R1312N
690.572	1.001	691415	PROBE_END	n/a	n/a	3	3	TRASH	n/a	TRASH	MULE	5	[0, 0, 0]	-999	PAL1	2	R1312N
691.573	0.011	692416	REC_END	n/a	n/a	3	3	TRASH	n/a	TRASH	MULE	5	[0, 0, 0]	-999	PAL1	2	R1312N
691.584	0.272	692427	ORIENT_START	n/a	n/a	-999	-999	n/a	n/a	n/a	n/a	5	[0, 0, 0]	-999	PAL1	2	R1312N
691.856	0.714	692699	ORIENT_END	n/a	n/a	-999	-999	n/a	n/a	n/a	n/a	5	[0, 0, 0]	-999	PAL1	2	R1312N
692.57	0.0	693412	REC_START	n/a	n/a	6	4	MAP	STORE	MAP	STORE	5	[0, 0, 0]	-999	PAL1	2	R1312N
692.57	1.726	693412	PROBE_START	n/a	wordpools/wordpool_EN.txt	6	4	MAP	STORE	MAP	STORE	5	[0, 0, 0]	-999	PAL1	2	R1312N
694.296	2.31	695138	REC_EVENT	1726	n/a	6	4	MAP	STORE	MAP	STORE	5	[0, 0, 0]	-999	PAL1	2	R1312N
696.606	1.0	697448	PROBE_END	n/a	n/a	6	4	MAP	n/a	MAP	STORE	5	[0, 0, 0]	-999	PAL1	2	R1312N
697.606	0.013	698448	REC_END	n/a	n/a	6	4	MAP	n/a	MAP	STORE	5	[0, 0, 0]	-999	PAL1	2	R1312N
697.619	0.271	698461	ORIENT_START	n/a	n/a	-999	-999	n/a	n/a	n/a	n/a	5	[0, 0, 0]	-999	PAL1	2	R1312N
697.89	0.613	698732	ORIENT_END	n/a	n/a	-999	-999	n/a	n/a	n/a	n/a	5	[0, 0, 0]	-999	PAL1	2	R1312N
698.503	0.001	699345	REC_START	n/a	n/a	1	5	SWAMP	HAND	HAND	SWAMP	5	[0, 0, 0]	-999	PAL1	2	R1312N
698.504	1.718	699346	PROBE_START	n/a	wordpools/wordpool_EN.txt	1	5	SWAMP	HAND	HAND	SWAMP	5	[0, 0, 0]	-999	PAL1	2	R1312N
700.222	2.319	701064	REC_EVENT	1718	n/a	1	5	SWAMP	HAND	HAND	SWAMP	5	[0, 0, 0]	-999	PAL1	2	R1312N
702.541	1.0	703383	PROBE_END	n/a	n/a	1	5	SWAMP	n/a	HAND	SWAMP	5	[0, 0, 0]	-999	PAL1	2	R1312N
703.541	0.012	704383	REC_END	n/a	n/a	1	5	SWAMP	n/a	HAND	SWAMP	5	[0, 0, 0]	-999	PAL1	2	R1312N
703.553	0.271	704395	ORIENT_START	n/a	n/a	-999	-999	n/a	n/a	n/a	n/a	5	[0, 0, 0]	-999	PAL1	2	R1312N
703.824	0.551	704666	ORIENT_END	n/a	n/a	-999	-999	n/a	n/a	n/a	n/a	5	[0, 0, 0]	-999	PAL1	2	R1312N
704.375	0.0	705217	REC_START	n/a	n/a	2	6	MUD	PIT	PIT	MUD	5	[0, 0, 0]	-999	PAL1	2	R1312N
704.375	1.763	705217	PROBE_START	n/a	wordpools/wordpool_EN.txt	2	6	MUD	PIT	PIT	MUD	5	[0, 0, 0]	-999	PAL1	2	R1312N
706.138	2.271	706980	REC_EVENT	1763	n/a	2	6	MUD	PIT	PIT	MUD	5	[0, 0, 0]	-999	PAL1	2	R1312N
708.409	1.0	709251	PROBE_END	n/a	n/a	2	6	MUD	n/a	PIT	MUD	5	[0, 0, 0]	-999	PAL1	2	R1312N
709.409	0.009	710251	REC_END	n/a	n/a	2	6	MUD	n/a	PIT	MUD	5	[0, 0, 0]	-999	PAL1	2	R1312N
709.418	0.0	710260	RETRIEVAL_END	n/a	n/a	-999	-999	n/a	n/a	n/a	n/a	5	[0, 0, 0]	-999	PAL1	2	R1312N
709.418	0.019	710260	TRIAL_END	n/a	n/a	-999	-999	n/a	n/a	n/a	n/a	5	[0, 0, 0]	-999	PAL1	2	R1312N
709.437	0.0	710279	WAITING_START	n/a	n/a	-999	-999	n/a	n/a	n/a	n/a	6	[0, 0, 0]	-999	PAL1	2	R1312N
709.437	0.0	710279	TRIAL	n/a	n/a	-999	-999	n/a	n/a	n/a	n/a	6	[0, 0, 0]	-999	PAL1	2	R1312N
709.437	5.022	710279	TRIAL_START	n/a	n/a	-999	-999	n/a	n/a	n/a	n/a	5	[0, 0, 0]	-999	PAL1	2	R1312N
714.459	0.001	715301	WAITING_END	n/a	n/a	-999	-999	n/a	n/a	n/a	n/a	6	[0, 0, 0]	-999	PAL1	2	R1312N
714.46	10.428	715302	COUNTDOWN_START	n/a	n/a	-999	-999	n/a	n/a	n/a	n/a	6	[0, 0, 0]	-999	PAL1	2	R1312N
724.888	0.001	725729	COUNTDOWN_END	n/a	n/a	-999	-999	n/a	n/a	n/a	n/a	6	[0, 0, 0]	-999	PAL1	2	R1312N
724.889	0.672	725730	ORIENT_START	n/a	n/a	-999	-999	n/a	n/a	n/a	n/a	6	[0, 0, 0]	-999	PAL1	2	R1312N
725.561	0.001	726402	ORIENT_END	n/a	n/a	-999	-999	n/a	n/a	n/a	n/a	6	[0, 0, 0]	-999	PAL1	2	R1312N
725.562	1.004	726403	ENCODING_START	n/a	n/a	-999	-999	n/a	n/a	n/a	n/a	6	[0, 0, 0]	-999	PAL1	2	R1312N
726.566	4.029	727407	STUDY_PAIR	n/a	wordpools/wordpool_EN.txt	1	-999	n/a	CLAY	CLAY	SINK	6	[0, 0, 0]	-999	PAL1	2	R1312N
730.595	0.628	731436	STUDY_PAIR_OFF	n/a	n/a	1	-999	n/a	CLAY	CLAY	SINK	6	[0, 0, 0]	-999	PAL1	2	R1312N
731.223	4.041	732064	STUDY_PAIR	n/a	wordpools/wordpool_EN.txt	2	-999	n/a	WORLD	WORLD	PEN	6	[0, 0, 0]	-999	PAL1	2	R1312N
735.264	0.703	736105	STUDY_PAIR_OFF	n/a	n/a	2	-999	n/a	WORLD	WORLD	PEN	6	[0, 0, 0]	-999	PAL1	2	R1312N
735.967	4.03	736808	STUDY_PAIR	n/a	wordpools/wordpool_EN.txt	3	-999	n/a	TOOL	CORN	TOOL	6	[0, 0, 0]	-999	PAL1	2	R1312N
739.997	0.506	740838	STUDY_PAIR_OFF	n/a	n/a	3	-999	n/a	TOOL	CORN	TOOL	6	[0, 0, 0]	-999	PAL1	2	R1312N
740.503	4.028	741344	STUDY_PAIR	n/a	wordpools/wordpool_EN.txt	4	-999	n/a	HILL	CAKE	HILL	6	[0, 0, 0]	-999	PAL1	2	R1312N
744.531	0.649	745372	STUDY_PAIR_OFF	n/a	n/a	4	-999	n/a	HILL	CAKE	HILL	6	[0, 0, 0]	-999	PAL1	2	R1312N
745.18	4.035	746021	STUDY_PAIR	n/a	wordpools/wordpool_EN.txt	5	-999	n/a	SNOW	SNOW	BED	6	[0, 0, 0]	-999	PAL1	2	R1312N
749.215	0.728	750056	STUDY_PAIR_OFF	n/a	n/a	5	-999	n/a	SNOW	SNOW	BED	6	[0, 0, 0]	-999	PAL1	2	R1312N
749.943	4.023	750784	STUDY_PAIR	n/a	wordpools/wordpool_EN.txt	6	-999	n/a	EGG	PLATE	EGG	6	[0, 0, 0]	-999	PAL1	2	R1312N
753.966	0.0	754806	STUDY_PAIR_OFF	n/a	n/a	6	-999	n/a	EGG	PLATE	EGG	6	[0, 0, 0]	-999	PAL1	2	R1312N
753.966	0.001	754806	ENCODING_END	n/a	n/a	-999	-999	n/a	n/a	n/a	n/a	6	[0, 0, 0]	-999	PAL1	2	R1312N
753.967	0.0	754807	MATH_START	n/a	n/a	-999	-999	n/a	n/a	n/a	n/a	6	[0, 0, 0]	-999	PAL1	2	R1312N
753.967	0.015	754807	START	n/a	n/a	-999	-999	n/a	n/a	n/a	n/a	6	[-999, -999, -999]	-999	PAL1	2	R1312N
753.982	5.618	754822	PROB	5587	n/a	-999	-999	n/a	n/a	n/a	n/a	6	[9, 2, 3]	14	PAL1	2	R1312N
759.6	8.318	760440	PROB	8281	n/a	-999	-999	n/a	n/a	n/a	n/a	6	[5, 9, 7]	21	PAL1	2	R1312N
767.918	4.734	768758	PROB	4699	n/a	-999	-999	n/a	n/a	n/a	n/a	6	[2, 1, 4]	7	PAL1	2	R1312N
772.652	4.711	773492	PROB	4711	n/a	-999	-999	n/a	n/a	n/a	n/a	6	[1, 5, 9]	15	PAL1	2	R1312N
777.363	0.008	778203	STOP	n/a	n/a	-999	-999	n/a	n/a	n/a	n/a	6	[-999, -999, -999]	-999	PAL1	2	R1312N
777.371	0.573	778211	MATH_END	n/a	n/a	-999	-999	n/a	n/a	n/a	n/a	6	[0, 0, 0]	-999	PAL1	2	R1312N
777.944	0.001	778784	RETRIEVAL_START	n/a	n/a	-999	-999	n/a	n/a	n/a	n/a	6	[0, 0, 0]	-999	PAL1	2	R1312N
777.945	0.275	778785	ORIENT_START	n/a	n/a	-999	-999	n/a	n/a	n/a	n/a	6	[0, 0, 0]	-999	PAL1	2	R1312N
778.22	0.618	779060	ORIENT_END	n/a	n/a	-999	-999	n/a	n/a	n/a	n/a	6	[0, 0, 0]	-999	PAL1	2	R1312N
778.838	0.0	779678	REC_START	n/a	n/a	1	1	SINK	CLAY	CLAY	SINK	6	[0, 0, 0]	-999	PAL1	2	R1312N
778.838	1.732	779678	PROBE_START	n/a	wordpools/wordpool_EN.txt	1	1	SINK	CLAY	CLAY	SINK	6	[0, 0, 0]	-999	PAL1	2	R1312N
780.57	2.301	781410	REC_EVENT	1732	n/a	1	1	SINK	CLAY	CLAY	SINK	6	[0, 0, 0]	-999	PAL1	2	R1312N
782.871	0.999	783710	PROBE_END	n/a	n/a	1	1	SINK	n/a	CLAY	SINK	6	[0, 0, 0]	-999	PAL1	2	R1312N
783.87	0.01	784709	REC_END	n/a	n/a	1	1	SINK	n/a	CLAY	SINK	6	[0, 0, 0]	-999	PAL1	2	R1312N
783.88	0.274	784719	ORIENT_START	n/a	n/a	-999	-999	n/a	n/a	n/a	n/a	6	[0, 0, 0]	-999	PAL1	2	R1312N
784.154	0.72	784993	ORIENT_END	n/a	n/a	-999	-999	n/a	n/a	n/a	n/a	6	[0, 0, 0]	-999	PAL1	2	R1312N
784.874	0.001	785713	REC_START	n/a	n/a	6	2	PLATE	EGG	PLATE	EGG	6	[0, 0, 0]	-999	PAL1	2	R1312N
784.875	1.747	785714	PROBE_START	n/a	wordpools/wordpool_EN.txt	6	2	PLATE	EGG	PLATE	EGG	6	[0, 0, 0]	-999	PAL1	2	R1312N
786.622	2.283	787461	REC_EVENT	1747	n/a	6	2	PLATE	EGG	PLATE	EGG	6	[0, 0, 0]	-999	PAL1	2	R1312N
788.905	1.0	789744	PROBE_END	n/a	n/a	6	2	PLATE	n/a	PLATE	EGG	6	[0, 0, 0]	-999	PAL1	2	R1312N
789.905	0.011	790744	REC_END	n/a	n/a	6	2	PLATE	n/a	PLATE	EGG	6	[0, 0, 0]	-999	PAL1	2	R1312N
789.916	0.273	790755	ORIENT_START	n/a	n/a	-999	-999	n/a	n/a	n/a	n/a	6	[0, 0, 0]	-999	PAL1	2	R1312N
790.189	0.743	791028	ORIENT_END	n/a	n/a	-999	-999	n/a	n/a	n/a	n/a	6	[0, 0, 0]	-999	PAL1	2	R1312N
790.932	0.0	791771	REC_START	n/a	n/a	3	3	CORN	TOOL	CORN	TOOL	6	[0, 0, 0]	-999	PAL1	2	R1312N
790.932	2.041	791771	PROBE_START	n/a	wordpools/wordpool_EN.txt	3	3	CORN	TOOL	CORN	TOOL	6	[0, 0, 0]	-999	PAL1	2	R1312N
792.973	1.983	793812	REC_EVENT	2041	n/a	3	3	CORN	TOOL	CORN	TOOL	6	[0, 0, 0]	-999	PAL1	2	R1312N
794.956	1.001	795795	PROBE_END	n/a	n/a	3	3	CORN	n/a	CORN	TOOL	6	[0, 0, 0]	-999	PAL1	2	R1312N
795.957	0.006	796796	REC_END	n/a	n/a	3	3	CORN	n/a	CORN	TOOL	6	[0, 0, 0]	-999	PAL1	2	R1312N
795.963	0.277	796802	ORIENT_START	n/a	n/a	-999	-999	n/a	n/a	n/a	n/a	6	[0, 0, 0]	-999	PAL1	2	R1312N
796.24	0.627	797079	ORIENT_END	n/a	n/a	-999	-999	n/a	n/a	n/a	n/a	6	[0, 0, 0]	-999	PAL1	2	R1312N
796.867	0.0	797706	REC_START	n/a	n/a	4	4	CAKE	HILL	CAKE	HILL	6	[0, 0, 0]	-999	PAL1	2	R1312N
796.867	1.817	797706	PROBE_START	n/a	wordpools/wordpool_EN.txt	4	4	CAKE	HILL	CAKE	HILL	6	[0, 0, 0]	-999	PAL1	2	R1312N
798.684	2.206	799523	REC_EVENT	1817	n/a	4	4	CAKE	HILL	CAKE	HILL	6	[0, 0, 0]	-999	PAL1	2	R1312N
800.89	1.0	801729	PROBE_END	n/a	n/a	4	4	CAKE	n/a	CAKE	HILL	6	[0, 0, 0]	-999	PAL1	2	R1312N
801.89	0.012	802729	REC_END	n/a	n/a	4	4	CAKE	n/a	CAKE	HILL	6	[0, 0, 0]	-999	PAL1	2	R1312N
801.902	0.272	802741	ORIENT_START	n/a	n/a	-999	-999	n/a	n/a	n/a	n/a	6	[0, 0, 0]	-999	PAL1	2	R1312N
802.174	0.523	803013	ORIENT_END	n/a	n/a	-999	-999	n/a	n/a	n/a	n/a	6	[0, 0, 0]	-999	PAL1	2	R1312N
802.697	0.0	803536	REC_START	n/a	n/a	5	5	BED	SNOW	SNOW	BED	6	[0, 0, 0]	-999	PAL1	2	R1312N
802.697	1.555	803536	PROBE_START	n/a	wordpools/wordpool_EN.txt	5	5	BED	SNOW	SNOW	BED	6	[0, 0, 0]	-999	PAL1	2	R1312N
804.252	2.473	805091	REC_EVENT	1555	n/a	5	5	BED	SNOW	SNOW	BED	6	[0, 0, 0]	-999	PAL1	2	R1312N
806.725	1.0	807564	PROBE_END	n/a	n/a	5	5	BED	n/a	SNOW	BED	6	[0, 0, 0]	-999	PAL1	2	R1312N
807.725	0.01	808564	REC_END	n/a	n/a	5	5	BED	n/a	SNOW	BED	6	[0, 0, 0]	-999	PAL1	2	R1312N
807.735	0.273	808574	ORIENT_START	n/a	n/a	-999	-999	n/a	n/a	n/a	n/a	6	[0, 0, 0]	-999	PAL1	2	R1312N
808.008	0.699	808847	ORIENT_END	n/a	n/a	-999	-999	n/a	n/a	n/a	n/a	6	[0, 0, 0]	-999	PAL1	2	R1312N
808.707	0.001	809546	REC_START	n/a	n/a	2	6	PEN	WORLD	WORLD	PEN	6	[0, 0, 0]	-999	PAL1	2	R1312N
808.708	1.925	809547	PROBE_START	n/a	wordpools/wordpool_EN.txt	2	6	PEN	WORLD	WORLD	PEN	6	[0, 0, 0]	-999	PAL1	2	R1312N
810.633	2.109	811472	REC_EVENT	1925	n/a	2	6	PEN	WORLD	WORLD	PEN	6	[0, 0, 0]	-999	PAL1	2	R1312N
812.742	1.0	813581	PROBE_END	n/a	n/a	2	6	PEN	n/a	WORLD	PEN	6	[0, 0, 0]	-999	PAL1	2	R1312N
813.742	0.012	814580	REC_END	n/a	n/a	2	6	PEN	n/a	WORLD	PEN	6	[0, 0, 0]	-999	PAL1	2	R1312N
813.754	0.0	814592	RETRIEVAL_END	n/a	n/a	-999	-999	n/a	n/a	n/a	n/a	6	[0, 0, 0]	-999	PAL1	2	R1312N
813.754	0.021	814592	TRIAL_END	n/a	n/a	-999	-999	n/a	n/a	n/a	n/a	6	[0, 0, 0]	-999	PAL1	2	R1312N
813.775	0.0	814613	TRIAL	n/a	n/a	-999	-999	n/a	n/a	n/a	n/a	7	[0, 0, 0]	-999	PAL1	2	R1312N
813.775	0.0	814613	WAITING_START	n/a	n/a	-999	-999	n/a	n/a	n/a	n/a	7	[0, 0, 0]	-999	PAL1	2	R1312N
813.775	1.934	814613	TRIAL_START	n/a	n/a	-999	-999	n/a	n/a	n/a	n/a	6	[0, 0, 0]	-999	PAL1	2	R1312N
815.709	0.0	816547	WAITING_END	n/a	n/a	-999	-999	n/a	n/a	n/a	n/a	7	[0, 0, 0]	-999	PAL1	2	R1312N
815.709	10.43	816547	COUNTDOWN_START	n/a	n/a	-999	-999	n/a	n/a	n/a	n/a	7	[0, 0, 0]	-999	PAL1	2	R1312N
826.139	0.0	826977	COUNTDOWN_END	n/a	n/a	-999	-999	n/a	n/a	n/a	n/a	7	[0, 0, 0]	-999	PAL1	2	R1312N
826.139	0.706	826977	ORIENT_START	n/a	n/a	-999	-999	n/a	n/a	n/a	n/a	7	[0, 0, 0]	-999	PAL1	2	R1312N
826.845	0.0	827683	ORIENT_END	n/a	n/a	-999	-999	n/a	n/a	n/a	n/a	7	[0, 0, 0]	-999	PAL1	2	R1312N
826.845	1.136	827683	ENCODING_START	n/a	n/a	-999	-999	n/a	n/a	n/a	n/a	7	[0, 0, 0]	-999	PAL1	2	R1312N
827.981	4.031	828819	STUDY_PAIR	n/a	wordpools/wordpool_EN.txt	1	-999	n/a	BUSH	BUSH	PEACH	7	[0, 0, 0]	-999	PAL1	2	R1312N
832.012	0.693	832850	STUDY_PAIR_OFF	n/a	n/a	1	-999	n/a	BUSH	BUSH	PEACH	7	[0, 0, 0]	-999	PAL1	2	R1312N
832.705	4.041	833543	STUDY_PAIR	n/a	wordpools/wordpool_EN.txt	2	-999	n/a	FLUTE	SLIME	FLUTE	7	[0, 0, 0]	-999	PAL1	2	R1312N
836.746	0.638	837584	STUDY_PAIR_OFF	n/a	n/a	2	-999	n/a	FLUTE	SLIME	FLUTE	7	[0, 0, 0]	-999	PAL1	2	R1312N
837.384	4.031	838222	STUDY_PAIR	n/a	wordpools/wordpool_EN.txt	3	-999	n/a	HAT	APE	HAT	7	[0, 0, 0]	-999	PAL1	2	R1312N
841.415	0.731	842253	STUDY_PAIR_OFF	n/a	n/a	3	-999	n/a	HAT	APE	HAT	7	[0, 0, 0]	-999	PAL1	2	R1312N
842.146	4.018	842984	STUDY_PAIR	n/a	wordpools/wordpool_EN.txt	4	-999	n/a	BAT	BAT	CLOTH	7	[0, 0, 0]	-999	PAL1	2	R1312N
846.164	0.523	847001	STUDY_PAIR_OFF	n/a	n/a	4	-999	n/a	BAT	BAT	CLOTH	7	[0, 0, 0]	-999	PAL1	2	R1312N
846.687	4.028	847524	STUDY_PAIR	n/a	wordpools/wordpool_EN.txt	5	-999	n/a	BALL	BALL	ARM	7	[0, 0, 0]	-999	PAL1	2	R1312N
850.715	0.565	851552	STUDY_PAIR_OFF	n/a	n/a	5	-999	n/a	BALL	BALL	ARM	7	[0, 0, 0]	-999	PAL1	2	R1312N
851.28	4.02	852117	STUDY_PAIR	n/a	wordpools/wordpool_EN.txt	6	-999	n/a	SOAP	ROOT	SOAP	7	[0, 0, 0]	-999	PAL1	2	R1312N
855.3	0.001	856137	STUDY_PAIR_OFF	n/a	n/a	6	-999	n/a	SOAP	ROOT	SOAP	7	[0, 0, 0]	-999	PAL1	2	R1312N
855.301	0.0	856138	ENCODING_END	n/a	n/a	-999	-999	n/a	n/a	n/a	n/a	7	[0, 0, 0]	-999	PAL1	2	R1312N
855.301	0.0	856138	MATH_START	n/a	n/a	-999	-999	n/a	n/a	n/a	n/a	7	[0, 0, 0]	-999	PAL1	2	R1312N
855.301	0.016	856138	START	n/a	n/a	-999	-999	n/a	n/a	n/a	n/a	7	[-999, -999, -999]	-999	PAL1	2	R1312N
855.317	4.849	856154	PROB	4812	n/a	-999	-999	n/a	n/a	n/a	n/a	7	[9, 9, 2]	20	PAL1	2	R1312N
860.166	4.568	861003	PROB	4539	n/a	-999	-999	n/a	n/a	n/a	n/a	7	[2, 6, 1]	9	PAL1	2	R1312N
864.734	4.084	865571	PROB	4060	n/a	-999	-999	n/a	n/a	n/a	n/a	7	[1, 2, 5]	8	PAL1	2	R1312N
868.818	5.384	869655	PROB	5359	n/a	-999	-999	n/a	n/a	n/a	n/a	7	[6, 9, 5]	20	PAL1	2	R1312N
874.202	9.607	875038	PROB	9607	n/a	-999	-999	n/a	n/a	n/a	n/a	7	[3, 6, 7]	12	PAL1	2	R1312N
883.809	0.011	884645	STOP	n/a	n/a	-999	-999	n/a	n/a	n/a	n/a	7	[-999, -999, -999]	-999	PAL1	2	R1312N
883.82	0.606	884656	MATH_END	n/a	n/a	-999	-999	n/a	n/a	n/a	n/a	7	[0, 0, 0]	-999	PAL1	2	R1312N
884.426	0.001	885262	RETRIEVAL_START	n/a	n/a	-999	-999	n/a	n/a	n/a	n/a	7	[0, 0, 0]	-999	PAL1	2	R1312N
884.427	0.277	885263	ORIENT_START	n/a	n/a	-999	-999	n/a	n/a	n/a	n/a	7	[0, 0, 0]	-999	PAL1	2	R1312N
884.704	0.568	885540	ORIENT_END	n/a	n/a	-999	-999	n/a	n/a	n/a	n/a	7	[0, 0, 0]	-999	PAL1	2	R1312N
885.272	0.0	886108	REC_START	n/a	n/a	1	1	PEACH	BUSH	BUSH	PEACH	7	[0, 0, 0]	-999	PAL1	2	R1312N
885.272	3.125	886108	PROBE_START	n/a	wordpools/wordpool_EN.txt	1	1	PEACH	BUSH	BUSH	PEACH	7	[0, 0, 0]	-999	PAL1	2	R1312N
888.397	0.909	889233	REC_EVENT	3125	n/a	1	1	PEACH	BUSH	BUSH	PEACH	7	[0, 0, 0]	-999	PAL1	2	R1312N
889.306	1.001	890142	PROBE_END	n/a	n/a	1	1	PEACH	n/a	BUSH	PEACH	7	[0, 0, 0]	-999	PAL1	2	R1312N
890.307	0.01	891143	REC_END	n/a	n/a	1	1	PEACH	n/a	BUSH	PEACH	7	[0, 0, 0]	-999	PAL1	2	R1312N
890.317	0.271	891153	ORIENT_START	n/a	n/a	-999	-999	n/a	n/a	n/a	n/a	7	[0, 0, 0]	-999	PAL1	2	R1312N
890.588	0.747	891424	ORIENT_END	n/a	n/a	-999	-999	n/a	n/a	n/a	n/a	7	[0, 0, 0]	-999	PAL1	2	R1312N
891.335	0.0	892171	REC_START	n/a	n/a	4	2	CLOTH	BAT	BAT	CLOTH	7	[0, 0, 0]	-999	PAL1	2	R1312N
891.335	2.051	892171	PROBE_START	n/a	wordpools/wordpool_EN.txt	4	2	CLOTH	BAT	BAT	CLOTH	7	[0, 0, 0]	-999	PAL1	2	R1312N
893.386	1.971	894222	REC_EVENT	2051	n/a	4	2	CLOTH	BAT	BAT	CLOTH	7	[0, 0, 0]	-999	PAL1	2	R1312N
895.357	1.0	896193	PROBE_END	n/a	n/a	4	2	CLOTH	n/a	BAT	CLOTH	7	[0, 0, 0]	-999	PAL1	2	R1312N
896.357	0.006	897193	REC_END	n/a	n/a	4	2	CLOTH	n/a	BAT	CLOTH	7	[0, 0, 0]	-999	PAL1	2	R1312N
896.363	0.276	897199	ORIENT_START	n/a	n/a	-999	-999	n/a	n/a	n/a	n/a	7	[0, 0, 0]	-999	PAL1	2	R1312N
896.639	0.551	897475	ORIENT_END	n/a	n/a	-999	-999	n/a	n/a	n/a	n/a	7	[0, 0, 0]	-999	PAL1	2	R1312N
897.19	0.0	898026	REC_START	n/a	n/a	3	3	APE	HAT	APE	HAT	7	[0, 0, 0]	-999	PAL1	2	R1312N
897.19	1.765	898026	PROBE_START	n/a	wordpools/wordpool_EN.txt	3	3	APE	HAT	APE	HAT	7	[0, 0, 0]	-999	PAL1	2	R1312N
898.955	2.268	899791	REC_EVENT	1765	n/a	3	3	APE	HAT	APE	HAT	7	[0, 0, 0]	-999	PAL1	2	R1312N
901.223	1.001	902059	PROBE_END	n/a	n/a	3	3	APE	n/a	APE	HAT	7	[0, 0, 0]	-999	PAL1	2	R1312N
902.224	0.011	903060	REC_END	n/a	n/a	3	3	APE	n/a	APE	HAT	7	[0, 0, 0]	-999	PAL1	2	R1312N
902.235	0.272	903071	ORIENT_START	n/a	n/a	-999	-999	n/a	n/a	n/a	n/a	7	[0, 0, 0]	-999	PAL1	2	R1312N
902.507	0.701	903343	ORIENT_END	n/a	n/a	-999	-999	n/a	n/a	n/a	n/a	7	[0, 0, 0]	-999	PAL1	2	R1312N
903.208	0.0	904044	REC_START	n/a	n/a	2	4	SLIME	FLUTE	SLIME	FLUTE	7	[0, 0, 0]	-999	PAL1	2	R1312N
903.208	1.897	904044	PROBE_START	n/a	wordpools/wordpool_EN.txt	2	4	SLIME	FLUTE	SLIME	FLUTE	7	[0, 0, 0]	-999	PAL1	2	R1312N
905.105	2.136	905940	REC_EVENT	1897	n/a	2	4	SLIME	FLUTE	SLIME	FLUTE	7	[0, 0, 0]	-999	PAL1	2	R1312N
907.241	1.0	908076	PROBE_END	n/a	n/a	2	4	SLIME	n/a	SLIME	FLUTE	7	[0, 0, 0]	-999	PAL1	2	R1312N
908.241	0.013	909076	REC_END	n/a	n/a	2	4	SLIME	n/a	SLIME	FLUTE	7	[0, 0, 0]	-999	PAL1	2	R1312N
908.254	0.271	909089	ORIENT_START	n/a	n/a	-999	-999	n/a	n/a	n/a	n/a	7	[0, 0, 0]	-999	PAL1	2	R1312N
908.525	0.606	909360	ORIENT_END	n/a	n/a	-999	-999	n/a	n/a	n/a	n/a	7	[0, 0, 0]	-999	PAL1	2	R1312N
909.131	0.0	909966	REC_START	n/a	n/a	5	5	ARM	BALL	BALL	ARM	7	[0, 0, 0]	-999	PAL1	2	R1312N
909.131	2.632	909966	PROBE_START	n/a	wordpools/wordpool_EN.txt	5	5	ARM	BALL	BALL	ARM	7	[0, 0, 0]	-999	PAL1	2	R1312N
911.763	1.396	912598	REC_EVENT	2632	n/a	5	5	ARM	BALL	BALL	ARM	7	[0, 0, 0]	-999	PAL1	2	R1312N
913.159	1.001	913994	PROBE_END	n/a	n/a	5	5	ARM	n/a	BALL	ARM	7	[0, 0, 0]	-999	PAL1	2	R1312N
914.16	0.01	914995	REC_END	n/a	n/a	5	5	ARM	n/a	BALL	ARM	7	[0, 0, 0]	-999	PAL1	2	R1312N
914.17	0.273	915005	ORIENT_START	n/a	n/a	-999	-999	n/a	n/a	n/a	n/a	7	[0, 0, 0]	-999	PAL1	2	R1312N
914.443	0.519	915278	ORIENT_END	n/a	n/a	-999	-999	n/a	n/a	n/a	n/a	7	[0, 0, 0]	-999	PAL1	2	R1312N
914.962	0.001	915797	REC_START	n/a	n/a	6	6	ROOT	SOAP	ROOT	SOAP	7	[0, 0, 0]	-999	PAL1	2	R1312N
914.963	1.653	915798	PROBE_START	n/a	wordpools/wordpool_EN.txt	6	6	ROOT	SOAP	ROOT	SOAP	7	[0, 0, 0]	-999	PAL1	2	R1312N
916.616	2.377	917451	REC_EVENT	1653	n/a	6	6	ROOT	SOAP	ROOT	SOAP	7	[0, 0, 0]	-999	PAL1	2	R1312N
918.993	1.0	919828	PROBE_END	n/a	n/a	6	6	ROOT	n/a	ROOT	SOAP	7	[0, 0, 0]	-999	PAL1	2	R1312N
919.993	0.01	920828	REC_END	n/a	n/a	6	6	ROOT	n/a	ROOT	SOAP	7	[0, 0, 0]	-999	PAL1	2	R1312N
920.003	0.0	920838	RETRIEVAL_END	n/a	n/a	-999	-999	n/a	n/a	n/a	n/a	7	[0, 0, 0]	-999	PAL1	2	R1312N
920.003	0.021	920838	TRIAL_END	n/a	n/a	-999	-999	n/a	n/a	n/a	n/a	7	[0, 0, 0]	-999	PAL1	2	R1312N
920.024	0.0	920859	TRIAL_START	n/a	n/a	-999	-999	n/a	n/a	n/a	n/a	7	[0, 0, 0]	-999	PAL1	2	R1312N
920.024	0.001	920859	TRIAL	n/a	n/a	-999	-999	n/a	n/a	n/a	n/a	8	[0, 0, 0]	-999	PAL1	2	R1312N
920.025	1.719	920860	WAITING_START	n/a	n/a	-999	-999	n/a	n/a	n/a	n/a	8	[0, 0, 0]	-999	PAL1	2	R1312N
921.744	0.0	922579	COUNTDOWN_START	n/a	n/a	-999	-999	n/a	n/a	n/a	n/a	8	[0, 0, 0]	-999	PAL1	2	R1312N
921.744	10.43	922579	WAITING_END	n/a	n/a	-999	-999	n/a	n/a	n/a	n/a	8	[0, 0, 0]	-999	PAL1	2	R1312N
932.174	0.0	933009	COUNTDOWN_END	n/a	n/a	-999	-999	n/a	n/a	n/a	n/a	8	[0, 0, 0]	-999	PAL1	2	R1312N
932.174	0.538	933009	ORIENT_START	n/a	n/a	-999	-999	n/a	n/a	n/a	n/a	8	[0, 0, 0]	-999	PAL1	2	R1312N
932.712	0.001	933547	ORIENT_END	n/a	n/a	-999	-999	n/a	n/a	n/a	n/a	8	[0, 0, 0]	-999	PAL1	2	R1312N
932.713	1.207	933548	ENCODING_START	n/a	n/a	-999	-999	n/a	n/a	n/a	n/a	8	[0, 0, 0]	-999	PAL1	2	R1312N
933.92	4.026	934755	STUDY_PAIR	n/a	wordpools/wordpool_EN.txt	1	-999	n/a	LAMB	LAMB	SPONGE	8	[0, 0, 0]	-999	PAL1	2	R1312N
937.946	0.721	938780	STUDY_PAIR_OFF	n/a	n/a	1	-999	n/a	LAMB	LAMB	SPONGE	8	[0, 0, 0]	-999	PAL1	2	R1312N
938.667	4.03	939501	STUDY_PAIR	n/a	wordpools/wordpool_EN.txt	2	-999	n/a	SQUARE	SQUARE	HORSE	8	[0, 0, 0]	-999	PAL1	2	R1312N
942.697	0.641	943531	STUDY_PAIR_OFF	n/a	n/a	2	-999	n/a	SQUARE	SQUARE	HORSE	8	[0, 0, 0]	-999	PAL1	2	R1312N
943.338	4.027	944172	STUDY_PAIR	n/a	wordpools/wordpool_EN.txt	3	-999	n/a	SHELL	STREET	SHELL	8	[0, 0, 0]	-999	PAL1	2	R1312N
947.365	0.684	948199	STUDY_PAIR_OFF	n/a	n/a	3	-999	n/a	SHELL	STREET	SHELL	8	[0, 0, 0]	-999	PAL1	2	R1312N
948.049	4.033	948883	STUDY_PAIR	n/a	wordpools/wordpool_EN.txt	4	-999	n/a	CANE	TIE	CANE	8	[0, 0, 0]	-999	PAL1	2	R1312N
952.082	0.637	952916	STUDY_PAIR_OFF	n/a	n/a	4	-999	n/a	CANE	TIE	CANE	8	[0, 0, 0]	-999	PAL1	2	R1312N
952.719	4.03	953553	STUDY_PAIR	n/a	wordpools/wordpool_EN.txt	5	-999	n/a	BOWL	EEL	BOWL	8	[0, 0, 0]	-999	PAL1	2	R1312N
956.749	0.699	957583	STUDY_PAIR_OFF	n/a	n/a	5	-999	n/a	BOWL	EEL	BOWL	8	[0, 0, 0]	-999	PAL1	2	R1312N
957.448	4.035	958282	STUDY_PAIR	n/a	wordpools/wordpool_EN.txt	6	-999	n/a	SKUNK	SKUNK	GOLD	8	[0, 0, 0]	-999	PAL1	2	R1312N
961.483	0.001	962317	STUDY_PAIR_OFF	n/a	n/a	6	-999	n/a	SKUNK	SKUNK	GOLD	8	[0, 0, 0]	-999	PAL1	2	R1312N
961.484	0.0	962318	ENCODING_END	n/a	n/a	-999	-999	n/a	n/a	n/a	n/a	8	[0, 0, 0]	-999	PAL1	2	R1312N
961.484	0.0	962318	MATH_START	n/a	n/a	-999	-999	n/a	n/a	n/a	n/a	8	[0, 0, 0]	-999	PAL1	2	R1312N
961.484	0.016	962318	START	n/a	n/a	-999	-999	n/a	n/a	n/a	n/a	8	[-999, -999, -999]	-999	PAL1	2	R1312N
961.5	3.801	962334	PROB	3774	n/a	-999	-999	n/a	n/a	n/a	n/a	8	[1, 3, 8]	12	PAL1	2	R1312N
965.301	12.119	966134	PROB	12085	n/a	-999	-999	n/a	n/a	n/a	n/a	8	[8, 9, 3]	19	PAL1	2	R1312N
977.42	7.238	978253	PROB	7238	n/a	-999	-999	n/a	n/a	n/a	n/a	8	[7, 2, 6]	15	PAL1	2	R1312N
984.658	0.013	985491	STOP	n/a	n/a	-999	-999	n/a	n/a	n/a	n/a	8	[-999, -999, -999]	-999	PAL1	2	R1312N
984.671	0.576	985504	MATH_END	n/a	n/a	-999	-999	n/a	n/a	n/a	n/a	8	[0, 0, 0]	-999	PAL1	2	R1312N
985.247	0.002	986080	RETRIEVAL_START	n/a	n/a	-999	-999	n/a	n/a	n/a	n/a	8	[0, 0, 0]	-999	PAL1	2	R1312N
985.249	0.272	986082	ORIENT_START	n/a	n/a	-999	-999	n/a	n/a	n/a	n/a	8	[0, 0, 0]	-999	PAL1	2	R1312N
985.521	0.501	986354	ORIENT_END	n/a	n/a	-999	-999	n/a	n/a	n/a	n/a	8	[0, 0, 0]	-999	PAL1	2	R1312N
986.022	0.0	986855	REC_START	n/a	n/a	1	1	SPONGE	LAMB	LAMB	SPONGE	8	[0, 0, 0]	-999	PAL1	2	R1312N
986.022	1.561	986855	PROBE_START	n/a	wordpools/wordpool_EN.txt	1	1	SPONGE	LAMB	LAMB	SPONGE	8	[0, 0, 0]	-999	PAL1	2	R1312N
987.583	2.472	988416	REC_EVENT	1561	n/a	1	1	SPONGE	LAMB	LAMB	SPONGE	8	[0, 0, 0]	-999	PAL1	2	R1312N
990.055	1.001	990888	PROBE_END	n/a	n/a	1	1	SPONGE	n/a	LAMB	SPONGE	8	[0, 0, 0]	-999	PAL1	2	R1312N
991.056	0.012	991889	REC_END	n/a	n/a	1	1	SPONGE	n/a	LAMB	SPONGE	8	[0, 0, 0]	-999	PAL1	2	R1312N
991.068	0.271	991901	ORIENT_START	n/a	n/a	-999	-999	n/a	n/a	n/a	n/a	8	[0, 0, 0]	-999	PAL1	2	R1312N
991.339	0.599	992172	ORIENT_END	n/a	n/a	-999	-999	n/a	n/a	n/a	n/a	8	[0, 0, 0]	-999	PAL1	2	R1312N
991.938	0.0	992771	REC_START	n/a	n/a	4	2	TIE	CANE	TIE	CANE	8	[0, 0, 0]	-999	PAL1	2	R1312N
991.938	2.09	992771	PROBE_START	n/a	wordpools/wordpool_EN.txt	4	2	TIE	CANE	TIE	CANE	8	[0, 0, 0]	-999	PAL1	2	R1312N
994.028	1.944	994861	REC_EVENT	2090	n/a	4	2	TIE	CANE	TIE	CANE	8	[0, 0, 0]	-999	PAL1	2	R1312N
995.972	1.0	996804	PROBE_END	n/a	n/a	4	2	TIE	n/a	TIE	CANE	8	[0, 0, 0]	-999	PAL1	2	R1312N
996.972	0.012	997804	REC_END	n/a	n/a	4	2	TIE	n/a	TIE	CANE	8	[0, 0, 0]	-999	PAL1	2	R1312N
996.984	0.273	997816	ORIENT_START	n/a	n/a	-999	-999	n/a	n/a	n/a	n/a	8	[0, 0, 0]	-999	PAL1	2	R1312N
997.257	0.724	998089	ORIENT_END	n/a	n/a	-999	-999	n/a	n/a	n/a	n/a	8	[0, 0, 0]	-999	PAL1	2	R1312N
997.981	0.0	998813	REC_START	n/a	n/a	3	3	STREET	SHELL	STREET	SHELL	8	[0, 0, 0]	-999	PAL1	2	R1312N
997.981	1.862	998813	PROBE_START	n/a	wordpools/wordpool_EN.txt	3	3	STREET	SHELL	STREET	SHELL	8	[0, 0, 0]	-999	PAL1	2	R1312N
999.843	2.164	1000675	REC_EVENT	1862	n/a	3	3	STREET	SHELL	STREET	SHELL	8	[0, 0, 0]	-999	PAL1	2	R1312N
1002.007	0.999	1002839	PROBE_END	n/a	n/a	3	3	STREET	n/a	STREET	SHELL	8	[0, 0, 0]	-999	PAL1	2	R1312N
1003.006	0.011	1003838	REC_END	n/a	n/a	3	3	STREET	n/a	STREET	SHELL	8	[0, 0, 0]	-999	PAL1	2	R1312N
1003.017	0.258	1003849	ORIENT_START	n/a	n/a	-999	-999	n/a	n/a	n/a	n/a	8	[0, 0, 0]	-999	PAL1	2	R1312N
1003.275	0.652	1004107	ORIENT_END	n/a	n/a	-999	-999	n/a	n/a	n/a	n/a	8	[0, 0, 0]	-999	PAL1	2	R1312N
1003.927	0.0	1004759	REC_START	n/a	n/a	2	4	HORSE	SQUARE	SQUARE	HORSE	8	[0, 0, 0]	-999	PAL1	2	R1312N
1003.927	1.706	1004759	PROBE_START	n/a	wordpools/wordpool_EN.txt	2	4	HORSE	SQUARE	SQUARE	HORSE	8	[0, 0, 0]	-999	PAL1	2	R1312N
1005.633	2.325	1006465	REC_EVENT	1706	n/a	2	4	HORSE	SQUARE	SQUARE	HORSE	8	[0, 0, 0]	-999	PAL1	2	R1312N
1007.958	1.0	1008790	PROBE_END	n/a	n/a	2	4	HORSE	n/a	SQUARE	HORSE	8	[0, 0, 0]	-999	PAL1	2	R1312N
1008.958	0.011	1009790	REC_END	n/a	n/a	2	4	HORSE	n/a	SQUARE	HORSE	8	[0, 0, 0]	-999	PAL1	2	R1312N
1008.969	0.272	1009801	ORIENT_START	n/a	n/a	-999	-999	n/a	n/a	n/a	n/a	8	[0, 0, 0]	-999	PAL1	2	R1312N
1009.241	0.637	1010073	ORIENT_END	n/a	n/a	-999	-999	n/a	n/a	n/a	n/a	8	[0, 0, 0]	-999	PAL1	2	R1312N
1009.878	0.0	1010710	REC_START	n/a	n/a	5	5	EEL	BOWL	EEL	BOWL	8	[0, 0, 0]	-999	PAL1	2	R1312N
1009.878	1.961	1010710	PROBE_START	n/a	wordpools/wordpool_EN.txt	5	5	EEL	BOWL	EEL	BOWL	8	[0, 0, 0]	-999	PAL1	2	R1312N
1011.839	2.07	1012671	REC_EVENT	1961	n/a	5	5	EEL	BOWL	EEL	BOWL	8	[0, 0, 0]	-999	PAL1	2	R1312N
1013.909	0.999	1014741	PROBE_END	n/a	n/a	5	5	EEL	n/a	EEL	BOWL	8	[0, 0, 0]	-999	PAL1	2	R1312N
1014.908	0.012	1015740	REC_END	n/a	n/a	5	5	EEL	n/a	EEL	BOWL	8	[0, 0, 0]	-999	PAL1	2	R1312N
1014.92	0.272	1015752	ORIENT_START	n/a	n/a	-999	-999	n/a	n/a	n/a	n/a	8	[0, 0, 0]	-999	PAL1	2	R1312N
1015.192	0.678	1016024	ORIENT_END	n/a	n/a	-999	-999	n/a	n/a	n/a	n/a	8	[0, 0, 0]	-999	PAL1	2	R1312N
1015.87	0.0	1016702	REC_START	n/a	n/a	6	6	GOLD	SKUNK	SKUNK	GOLD	8	[0, 0, 0]	-999	PAL1	2	R1312N
1015.87	1.663	1016702	PROBE_START	n/a	wordpools/wordpool_EN.txt	6	6	GOLD	SKUNK	SKUNK	GOLD	8	[0, 0, 0]	-999	PAL1	2	R1312N
1017.533	2.36	1018365	REC_EVENT	1663	n/a	6	6	GOLD	SKUNK	SKUNK	GOLD	8	[0, 0, 0]	-999	PAL1	2	R1312N
1019.893	1.001	1020725	PROBE_END	n/a	n/a	6	6	GOLD	n/a	SKUNK	GOLD	8	[0, 0, 0]	-999	PAL1	2	R1312N
1020.894	0.011	1021726	REC_END	n/a	n/a	6	6	GOLD	n/a	SKUNK	GOLD	8	[0, 0, 0]	-999	PAL1	2	R1312N
1020.905	0.0	1021737	RETRIEVAL_END	n/a	n/a	-999	-999	n/a	n/a	n/a	n/a	8	[0, 0, 0]	-999	PAL1	2	R1312N
1020.905	0.021	1021737	TRIAL_END	n/a	n/a	-999	-999	n/a	n/a	n/a	n/a	8	[0, 0, 0]	-999	PAL1	2	R1312N
1020.926	0.0	1021758	TRIAL_START	n/a	n/a	-999	-999	n/a	n/a	n/a	n/a	8	[0, 0, 0]	-999	PAL1	2	R1312N
1020.926	0.0	1021758	TRIAL	n/a	n/a	-999	-999	n/a	n/a	n/a	n/a	9	[0, 0, 0]	-999	PAL1	2	R1312N
1020.926	1.984	1021758	WAITING_START	n/a	n/a	-999	-999	n/a	n/a	n/a	n/a	9	[0, 0, 0]	-999	PAL1	2	R1312N
1022.91	0.0	1023742	WAITING_END	n/a	n/a	-999	-999	n/a	n/a	n/a	n/a	9	[0, 0, 0]	-999	PAL1	2	R1312N
1022.91	10.43	1023742	COUNTDOWN_START	n/a	n/a	-999	-999	n/a	n/a	n/a	n/a	9	[0, 0, 0]	-999	PAL1	2	R1312N
1033.34	0.001	1034171	COUNTDOWN_END	n/a	n/a	-999	-999	n/a	n/a	n/a	n/a	9	[0, 0, 0]	-999	PAL1	2	R1312N
1033.341	0.737	1034172	ORIENT_START	n/a	n/a	-999	-999	n/a	n/a	n/a	n/a	9	[0, 0, 0]	-999	PAL1	2	R1312N
1034.078	0.001	1034909	ORIENT_END	n/a	n/a	-999	-999	n/a	n/a	n/a	n/a	9	[0, 0, 0]	-999	PAL1	2	R1312N
1034.079	0.999	1034910	ENCODING_START	n/a	n/a	-999	-999	n/a	n/a	n/a	n/a	9	[0, 0, 0]	-999	PAL1	2	R1312N
1035.078	4.035	1035909	STUDY_PAIR	n/a	wordpools/wordpool_EN.txt	1	-999	n/a	BRANCH	BRANCH	PARK	9	[0, 0, 0]	-999	PAL1	2	R1312N
1039.113	0.644	1039944	STUDY_PAIR_OFF	n/a	n/a	1	-999	n/a	BRANCH	BRANCH	PARK	9	[0, 0, 0]	-999	PAL1	2	R1312N
1039.757	4.023	1040588	STUDY_PAIR	n/a	wordpools/wordpool_EN.txt	2	-999	n/a	TRUCK	TRUCK	CLIFF	9	[0, 0, 0]	-999	PAL1	2	R1312N
1043.78	0.515	1044611	STUDY_PAIR_OFF	n/a	n/a	2	-999	n/a	TRUCK	TRUCK	CLIFF	9	[0, 0, 0]	-999	PAL1	2	R1312N
1044.295	4.037	1045126	STUDY_PAIR	n/a	wordpools/wordpool_EN.txt	3	-999	n/a	NEST	JAIL	NEST	9	[0, 0, 0]	-999	PAL1	2	R1312N
1048.332	0.706	1049163	STUDY_PAIR_OFF	n/a	n/a	3	-999	n/a	NEST	JAIL	NEST	9	[0, 0, 0]	-999	PAL1	2	R1312N
1049.038	4.027	1049869	STUDY_PAIR	n/a	wordpools/wordpool_EN.txt	4	-999	n/a	FLEA	JAR	FLEA	9	[0, 0, 0]	-999	PAL1	2	R1312N
1053.065	0.569	1053896	STUDY_PAIR_OFF	n/a	n/a	4	-999	n/a	FLEA	JAR	FLEA	9	[0, 0, 0]	-999	PAL1	2	R1312N
1053.634	4.032	1054465	STUDY_PAIR	n/a	wordpools/wordpool_EN.txt	5	-999	n/a	DIME	MAIL	DIME	9	[0, 0, 0]	-999	PAL1	2	R1312N
1057.666	0.61	1058496	STUDY_PAIR_OFF	n/a	n/a	5	-999	n/a	DIME	MAIL	DIME	9	[0, 0, 0]	-999	PAL1	2	R1312N
1058.276	4.025	1059106	STUDY_PAIR	n/a	wordpools/wordpool_EN.txt	6	-999	n/a	SUIT	SUIT	PASTE	9	[0, 0, 0]	-999	PAL1	2	R1312N
1062.301	0.0	1063131	STUDY_PAIR_OFF	n/a	n/a	6	-999	n/a	SUIT	SUIT	PASTE	9	[0, 0, 0]	-999	PAL1	2	R1312N
1062.301	0.001	1063131	ENCODING_END	n/a	n/a	-999	-999	n/a	n/a	n/a	n/a	9	[0, 0, 0]	-999	PAL1	2	R1312N
1062.302	0.0	1063132	MATH_START	n/a	n/a	-999	-999	n/a	n/a	n/a	n/a	9	[0, 0, 0]	-999	PAL1	2	R1312N
1062.302	0.015	1063132	START	n/a	n/a	-999	-999	n/a	n/a	n/a	n/a	9	[-999, -999, -999]	-999	PAL1	2	R1312N
1062.317	13.735	1063147	PROB	13708	n/a	-999	-999	n/a	n/a	n/a	n/a	9	[9, 7, 8]	23	PAL1	2	R1312N
1076.052	8.429	1076882	PROB	8429	n/a	-999	-999	n/a	n/a	n/a	n/a	9	[1, 4, 7]	12	PAL1	2	R1312N
1084.481	0.023	1085311	STOP	n/a	n/a	-999	-999	n/a	n/a	n/a	n/a	9	[-999, -999, -999]	-999	PAL1	2	R1312N
1084.504	0.657	1085334	MATH_END	n/a	n/a	-999	-999	n/a	n/a	n/a	n/a	9	[0, 0, 0]	-999	PAL1	2	R1312N
1085.161	0.002	1085991	RETRIEVAL_START	n/a	n/a	-999	-999	n/a	n/a	n/a	n/a	9	[0, 0, 0]	-999	PAL1	2	R1312N
1085.163	0.275	1085993	ORIENT_START	n/a	n/a	-999	-999	n/a	n/a	n/a	n/a	9	[0, 0, 0]	-999	PAL1	2	R1312N
1085.438	0.641	1086268	ORIENT_END	n/a	n/a	-999	-999	n/a	n/a	n/a	n/a	9	[0, 0, 0]	-999	PAL1	2	R1312N
1086.079	0.0	1086908	REC_START	n/a	n/a	1	1	PARK	BRANCH	BRANCH	PARK	9	[0, 0, 0]	-999	PAL1	2	R1312N
1086.079	1.78	1086908	PROBE_START	n/a	wordpools/wordpool_EN.txt	1	1	PARK	BRANCH	BRANCH	PARK	9	[0, 0, 0]	-999	PAL1	2	R1312N
1087.859	2.245	1088688	REC_EVENT	1780	n/a	1	1	PARK	BRANCH	BRANCH	PARK	9	[0, 0, 0]	-999	PAL1	2	R1312N
1090.104	1.001	1090933	PROBE_END	n/a	n/a	1	1	PARK	n/a	BRANCH	PARK	9	[0, 0, 0]	-999	PAL1	2	R1312N
1091.105	0.012	1091934	REC_END	n/a	n/a	1	1	PARK	n/a	BRANCH	PARK	9	[0, 0, 0]	-999	PAL1	2	R1312N
1091.117	0.272	1091946	ORIENT_START	n/a	n/a	-999	-999	n/a	n/a	n/a	n/a	9	[0, 0, 0]	-999	PAL1	2	R1312N
1091.389	0.584	1092218	ORIENT_END	n/a	n/a	-999	-999	n/a	n/a	n/a	n/a	9	[0, 0, 0]	-999	PAL1	2	R1312N
1091.973	0.0	1092802	REC_START	n/a	n/a	6	2	PASTE	SUIT	SUIT	PASTE	9	[0, 0, 0]	-999	PAL1	2	R1312N
1091.973	1.615	1092802	PROBE_START	n/a	wordpools/wordpool_EN.txt	6	2	PASTE	SUIT	SUIT	PASTE	9	[0, 0, 0]	-999	PAL1	2	R1312N
1093.588	2.418	1094417	REC_EVENT	1615	n/a	6	2	PASTE	SUIT	SUIT	PASTE	9	[0, 0, 0]	-999	PAL1	2	R1312N
1096.006	0.999	1096835	PROBE_END	n/a	n/a	6	2	PASTE	n/a	SUIT	PASTE	9	[0, 0, 0]	-999	PAL1	2	R1312N
1097.005	0.012	1097834	REC_END	n/a	n/a	6	2	PASTE	n/a	SUIT	PASTE	9	[0, 0, 0]	-999	PAL1	2	R1312N
1097.017	0.273	1097846	ORIENT_START	n/a	n/a	-999	-999	n/a	n/a	n/a	n/a	9	[0, 0, 0]	-999	PAL1	2	R1312N
1097.29	0.528	1098119	ORIENT_END	n/a	n/a	-999	-999	n/a	n/a	n/a	n/a	9	[0, 0, 0]	-999	PAL1	2	R1312N
1097.818	0.0	1098647	REC_START	n/a	n/a	5	3	MAIL	DIME	MAIL	DIME	9	[0, 0, 0]	-999	PAL1	2	R1312N
1097.818	1.693	1098647	PROBE_START	n/a	wordpools/wordpool_EN.txt	5	3	MAIL	DIME	MAIL	DIME	9	[0, 0, 0]	-999	PAL1	2	R1312N
1099.511	2.329	1100340	REC_EVENT	1693	n/a	5	3	MAIL	DIME	MAIL	DIME	9	[0, 0, 0]	-999	PAL1	2	R1312N
1101.84	1.001	1102669	PROBE_END	n/a	n/a	5	3	MAIL	n/a	MAIL	DIME	9	[0, 0, 0]	-999	PAL1	2	R1312N
1102.841	0.012	1103670	REC_END	n/a	n/a	5	3	MAIL	n/a	MAIL	DIME	9	[0, 0, 0]	-999	PAL1	2	R1312N
1102.853	0.27	1103682	ORIENT_START	n/a	n/a	-999	-999	n/a	n/a	n/a	n/a	9	[0, 0, 0]	-999	PAL1	2	R1312N
1103.123	0.612	1103952	ORIENT_END	n/a	n/a	-999	-999	n/a	n/a	n/a	n/a	9	[0, 0, 0]	-999	PAL1	2	R1312N
1103.735	0.0	1104564	REC_START	n/a	n/a	2	4	CLIFF	TRUCK	TRUCK	CLIFF	9	[0, 0, 0]	-999	PAL1	2	R1312N
1103.735	1.792	1104564	PROBE_START	n/a	wordpools/wordpool_EN.txt	2	4	CLIFF	TRUCK	TRUCK	CLIFF	9	[0, 0, 0]	-999	PAL1	2	R1312N
1105.527	2.231	1106356	REC_EVENT	1792	n/a	2	4	CLIFF	TRUCK	TRUCK	CLIFF	9	[0, 0, 0]	-999	PAL1	2	R1312N
1107.758	0.999	1108587	PROBE_END	n/a	n/a	2	4	CLIFF	n/a	TRUCK	CLIFF	9	[0, 0, 0]	-999	PAL1	2	R1312N
1108.757	0.011	1109586	REC_END	n/a	n/a	2	4	CLIFF	n/a	TRUCK	CLIFF	9	[0, 0, 0]	-999	PAL1	2	R1312N
1108.768	0.273	1109597	ORIENT_START	n/a	n/a	-999	-999	n/a	n/a	n/a	n/a	9	[0, 0, 0]	-999	PAL1	2	R1312N
1109.041	0.531	1109870	ORIENT_END	n/a	n/a	-999	-999	n/a	n/a	n/a	n/a	9	[0, 0, 0]	-999	PAL1	2	R1312N
1109.572	0.001	1110401	REC_START	n/a	n/a	3	5	JAIL	NEST	JAIL	NEST	9	[0, 0, 0]	-999	PAL1	2	R1312N
1109.573	1.63	1110402	PROBE_START	n/a	wordpools/wordpool_EN.txt	3	5	JAIL	NEST	JAIL	NEST	9	[0, 0, 0]	-999	PAL1	2	R1312N
1111.203	2.405	1112032	REC_EVENT	1630	n/a	3	5	JAIL	NEST	JAIL	NEST	9	[0, 0, 0]	-999	PAL1	2	R1312N
1113.608	1.0	1114437	PROBE_END	n/a	n/a	3	5	JAIL	n/a	JAIL	NEST	9	[0, 0, 0]	-999	PAL1	2	R1312N
1114.608	0.012	1115437	REC_END	n/a	n/a	3	5	JAIL	n/a	JAIL	NEST	9	[0, 0, 0]	-999	PAL1	2	R1312N
1114.62	0.272	1115449	ORIENT_START	n/a	n/a	-999	-999	n/a	n/a	n/a	n/a	9	[0, 0, 0]	-999	PAL1	2	R1312N
1114.892	0.568	1115721	ORIENT_END	n/a	n/a	-999	-999	n/a	n/a	n/a	n/a	9	[0, 0, 0]	-999	PAL1	2	R1312N
1115.46	0.001	1116289	REC_START	n/a	n/a	4	6	JAR	FLEA	JAR	FLEA	9	[0, 0, 0]	-999	PAL1	2	R1312N
1115.461	1.649	1116290	PROBE_START	n/a	wordpools/wordpool_EN.txt	4	6	JAR	FLEA	JAR	FLEA	9	[0, 0, 0]	-999	PAL1	2	R1312N
1117.11	2.383	1117938	REC_EVENT	1649	n/a	4	6	JAR	FLEA	JAR	FLEA	9	[0, 0, 0]	-999	PAL1	2	R1312N
1119.493	1.001	1120321	PROBE_END	n/a	n/a	4	6	JAR	n/a	JAR	FLEA	9	[0, 0, 0]	-999	PAL1	2	R1312N
1120.494	0.009	1121322	REC_END	n/a	n/a	4	6	JAR	n/a	JAR	FLEA	9	[0, 0, 0]	-999	PAL1	2	R1312N
1120.503	0.0	1121331	RETRIEVAL_END	n/a	n/a	-999	-999	n/a	n/a	n/a	n/a	9	[0, 0, 0]	-999	PAL1	2	R1312N
1120.503	0.02	1121331	TRIAL_END	n/a	n/a	-999	-999	n/a	n/a	n/a	n/a	9	[0, 0, 0]	-999	PAL1	2	R1312N
1120.523	0.0	1121351	TRIAL_START	n/a	n/a	-999	-999	n/a	n/a	n/a	n/a	9	[0, 0, 0]	-999	PAL1	2	R1312N
1120.523	0.0	1121351	TRIAL	n/a	n/a	-999	-999	n/a	n/a	n/a	n/a	10	[0, 0, 0]	-999	PAL1	2	R1312N
1120.523	1.871	1121351	WAITING_START	n/a	n/a	-999	-999	n/a	n/a	n/a	n/a	10	[0, 0, 0]	-999	PAL1	2	R1312N
1122.394	0.001	1123222	WAITING_END	n/a	n/a	-999	-999	n/a	n/a	n/a	n/a	10	[0, 0, 0]	-999	PAL1	2	R1312N
1122.395	10.429	1123223	COUNTDOWN_START	n/a	n/a	-999	-999	n/a	n/a	n/a	n/a	10	[0, 0, 0]	-999	PAL1	2	R1312N
1132.824	0.0	1133652	ORIENT_START	n/a	n/a	-999	-999	n/a	n/a	n/a	n/a	10	[0, 0, 0]	-999	PAL1	2	R1312N
1132.824	0.605	1133652	COUNTDOWN_END	n/a	n/a	-999	-999	n/a	n/a	n/a	n/a	10	[0, 0, 0]	-999	PAL1	2	R1312N
1133.429	0.001	1134257	ORIENT_END	n/a	n/a	-999	-999	n/a	n/a	n/a	n/a	10	[0, 0, 0]	-999	PAL1	2	R1312N
1133.43	1.122	1134258	ENCODING_START	n/a	n/a	-999	-999	n/a	n/a	n/a	n/a	10	[0, 0, 0]	-999	PAL1	2	R1312N
1134.552	4.027	1135380	STUDY_PAIR	n/a	wordpools/wordpool_EN.txt	1	-999	n/a	ANT	TEETH	ANT	10	[0, 0, 0]	-999	PAL1	2	R1312N
1138.579	0.689	1139407	STUDY_PAIR_OFF	n/a	n/a	1	-999	n/a	ANT	TEETH	ANT	10	[0, 0, 0]	-999	PAL1	2	R1312N
1139.268	4.03	1140096	STUDY_PAIR	n/a	wordpools/wordpool_EN.txt	2	-999	n/a	PET	PET	ROAD	10	[0, 0, 0]	-999	PAL1	2	R1312N
1143.298	0.542	1144126	STUDY_PAIR_OFF	n/a	n/a	2	-999	n/a	PET	PET	ROAD	10	[0, 0, 0]	-999	PAL1	2	R1312N
1143.84	4.024	1144668	STUDY_PAIR	n/a	wordpools/wordpool_EN.txt	3	-999	n/a	CHIN	SCHOOL	CHIN	10	[0, 0, 0]	-999	PAL1	2	R1312N
1147.864	0.52	1148691	STUDY_PAIR_OFF	n/a	n/a	3	-999	n/a	CHIN	SCHOOL	CHIN	10	[0, 0, 0]	-999	PAL1	2	R1312N
1148.384	4.032	1149211	STUDY_PAIR	n/a	wordpools/wordpool_EN.txt	4	-999	n/a	KEY	KEY	WAVE	10	[0, 0, 0]	-999	PAL1	2	R1312N
1152.416	0.517	1153243	STUDY_PAIR_OFF	n/a	n/a	4	-999	n/a	KEY	KEY	WAVE	10	[0, 0, 0]	-999	PAL1	2	R1312N
1152.933	4.032	1153760	STUDY_PAIR	n/a	wordpools/wordpool_EN.txt	5	-999	n/a	MOON	MOON	OAR	10	[0, 0, 0]	-999	PAL1	2	R1312N
1156.965	0.556	1157792	STUDY_PAIR_OFF	n/a	n/a	5	-999	n/a	MOON	MOON	OAR	10	[0, 0, 0]	-999	PAL1	2	R1312N
1157.521	4.029	1158348	STUDY_PAIR	n/a	wordpools/wordpool_EN.txt	6	-999	n/a	COOL	CAPE	POOL	10	[0, 0, 0]	-999	PAL1	2	R1312N
1161.55	0.0	1162377	STUDY_PAIR_OFF	n/a	n/a	6	-999	n/a	COOL	CAPE	POOL	10	[0, 0, 0]	-999	PAL1	2	R1312N
1161.55	0.001	1162377	ENCODING_END	n/a	n/a	-999	-999	n/a	n/a	n/a	n/a	10	[0, 0, 0]	-999	PAL1	2	R1312N
1161.551	0.0	1162378	MATH_START	n/a	n/a	-999	-999	n/a	n/a	n/a	n/a	10	[0, 0, 0]	-999	PAL1	2	R1312N
1161.551	0.015	1162378	START	n/a	n/a	-999	-999	n/a	n/a	n/a	n/a	10	[-999, -999, -999]	-999	PAL1	2	R1312N
1161.566	6.719	1162393	PROB	6685	n/a	-999	-999	n/a	n/a	n/a	n/a	10	[6, 4, 3]	13	PAL1	2	R1312N
1168.285	4.45	1169112	PROB	4428	n/a	-999	-999	n/a	n/a	n/a	n/a	10	[7, 4, 3]	14	PAL1	2	R1312N
1172.735	3.917	1173562	PROB	3883	n/a	-999	-999	n/a	n/a	n/a	n/a	10	[2, 4, 4]	10	PAL1	2	R1312N
1176.652	5.261	1177479	PROB	5261	n/a	-999	-999	n/a	n/a	n/a	n/a	10	[5, 3, 8]	16	PAL1	2	R1312N
1181.913	0.006	1182739	STOP	n/a	n/a	-999	-999	n/a	n/a	n/a	n/a	10	[-999, -999, -999]	-999	PAL1	2	R1312N
1181.919	0.52	1182745	MATH_END	n/a	n/a	-999	-999	n/a	n/a	n/a	n/a	10	[0, 0, 0]	-999	PAL1	2	R1312N
1182.439	0.002	1183265	RETRIEVAL_START	n/a	n/a	-999	-999	n/a	n/a	n/a	n/a	10	[0, 0, 0]	-999	PAL1	2	R1312N
1182.441	0.279	1183267	ORIENT_START	n/a	n/a	-999	-999	n/a	n/a	n/a	n/a	10	[0, 0, 0]	-999	PAL1	2	R1312N
1182.72	0.649	1183546	ORIENT_END	n/a	n/a	-999	-999	n/a	n/a	n/a	n/a	10	[0, 0, 0]	-999	PAL1	2	R1312N
1183.369	0.0	1184195	REC_START	n/a	n/a	5	1	OAR	MOON	MOON	OAR	10	[0, 0, 0]	-999	PAL1	2	R1312N
1183.369	2.075	1184195	PROBE_START	n/a	wordpools/wordpool_EN.txt	5	1	OAR	MOON	MOON	OAR	10	[0, 0, 0]	-999	PAL1	2	R1312N
1185.444	1.961	1186270	REC_EVENT	2075	n/a	5	1	OAR	MOON	MOON	OAR	10	[0, 0, 0]	-999	PAL1	2	R1312N
1187.405	1.001	1188231	PROBE_END	n/a	n/a	5	1	OAR	n/a	MOON	OAR	10	[0, 0, 0]	-999	PAL1	2	R1312N
1188.406	0.009	1189232	REC_END	n/a	n/a	5	1	OAR	n/a	MOON	OAR	10	[0, 0, 0]	-999	PAL1	2	R1312N
1188.415	0.272	1189241	ORIENT_START	n/a	n/a	-999	-999	n/a	n/a	n/a	n/a	10	[0, 0, 0]	-999	PAL1	2	R1312N
1188.687	0.521	1189513	ORIENT_END	n/a	n/a	-999	-999	n/a	n/a	n/a	n/a	10	[0, 0, 0]	-999	PAL1	2	R1312N
1189.208	0.001	1190034	REC_START	n/a	n/a	6	2	CAPE	COOL	CAPE	POOL	10	[0, 0, 0]	-999	PAL1	2	R1312N
1189.209	2.732	1190035	PROBE_START	n/a	wordpools/wordpool_EN.txt	6	2	CAPE	COOL	CAPE	POOL	10	[0, 0, 0]	-999	PAL1	2	R1312N
1191.941	1.297	1192767	REC_EVENT	2732	n/a	6	2	CAPE	COOL	CAPE	POOL	10	[0, 0, 0]	-999	PAL1	2	R1312N
1193.238	1.001	1194064	PROBE_END	n/a	n/a	6	2	CAPE	n/a	CAPE	POOL	10	[0, 0, 0]	-999	PAL1	2	R1312N
1194.239	0.012	1195065	REC_END	n/a	n/a	6	2	CAPE	n/a	CAPE	POOL	10	[0, 0, 0]	-999	PAL1	2	R1312N
1194.251	0.271	1195077	ORIENT_START	n/a	n/a	-999	-999	n/a	n/a	n/a	n/a	10	[0, 0, 0]	-999	PAL1	2	R1312N
1194.522	0.726	1195348	ORIENT_END	n/a	n/a	-999	-999	n/a	n/a	n/a	n/a	10	[0, 0, 0]	-999	PAL1	2	R1312N
1195.248	0.0	1196074	REC_START	n/a	n/a	1	3	TEETH	ANT	TEETH	ANT	10	[0, 0, 0]	-999	PAL1	2	R1312N
1195.248	1.998	1196074	PROBE_START	n/a	wordpools/wordpool_EN.txt	1	3	TEETH	ANT	TEETH	ANT	10	[0, 0, 0]	-999	PAL1	2	R1312N
1197.246	2.027	1198072	REC_EVENT	1998	n/a	1	3	TEETH	ANT	TEETH	ANT	10	[0, 0, 0]	-999	PAL1	2	R1312N
1199.273	1.0	1200099	PROBE_END	n/a	n/a	1	3	TEETH	n/a	TEETH	ANT	10	[0, 0, 0]	-999	PAL1	2	R1312N
1200.273	0.011	1201099	REC_END	n/a	n/a	1	3	TEETH	n/a	TEETH	ANT	10	[0, 0, 0]	-999	PAL1	2	R1312N
1200.284	0.272	1201110	ORIENT_START	n/a	n/a	-999	-999	n/a	n/a	n/a	n/a	10	[0, 0, 0]	-999	PAL1	2	R1312N
1200.556	0.738	1201382	ORIENT_END	n/a	n/a	-999	-999	n/a	n/a	n/a	n/a	10	[0, 0, 0]	-999	PAL1	2	R1312N
1201.294	0.001	1202120	REC_START	n/a	n/a	4	4	WAVE	KEY	KEY	WAVE	10	[0, 0, 0]	-999	PAL1	2	R1312N
1201.295	1.953	1202121	PROBE_START	n/a	wordpools/wordpool_EN.txt	4	4	WAVE	KEY	KEY	WAVE	10	[0, 0, 0]	-999	PAL1	2	R1312N
1203.248	2.076	1204074	REC_EVENT	1953	n/a	4	4	WAVE	KEY	KEY	WAVE	10	[0, 0, 0]	-999	PAL1	2	R1312N
1205.324	1.001	1206150	PROBE_END	n/a	n/a	4	4	WAVE	n/a	KEY	WAVE	10	[0, 0, 0]	-999	PAL1	2	R1312N
1206.325	0.006	1207151	REC_END	n/a	n/a	4	4	WAVE	n/a	KEY	WAVE	10	[0, 0, 0]	-999	PAL1	2	R1312N
1206.331	0.276	1207157	ORIENT_START	n/a	n/a	-999	-999	n/a	n/a	n/a	n/a	10	[0, 0, 0]	-999	PAL1	2	R1312N
1206.607	0.651	1207433	ORIENT_END	n/a	n/a	-999	-999	n/a	n/a	n/a	n/a	10	[0, 0, 0]	-999	PAL1	2	R1312N
1207.258	0.001	1208083	REC_START	n/a	n/a	3	5	SCHOOL	CHIN	SCHOOL	CHIN	10	[0, 0, 0]	-999	PAL1	2	R1312N
1207.259	1.882	1208084	PROBE_START	n/a	wordpools/wordpool_EN.txt	3	5	SCHOOL	CHIN	SCHOOL	CHIN	10	[0, 0, 0]	-999	PAL1	2	R1312N
1209.141	2.151	1209966	REC_EVENT	1882	n/a	3	5	SCHOOL	CHIN	SCHOOL	CHIN	10	[0, 0, 0]	-999	PAL1	2	R1312N
1211.292	1.0	1212117	PROBE_END	n/a	n/a	3	5	SCHOOL	n/a	SCHOOL	CHIN	10	[0, 0, 0]	-999	PAL1	2	R1312N
1212.292	0.011	1213117	REC_END	n/a	n/a	3	5	SCHOOL	n/a	SCHOOL	CHIN	10	[0, 0, 0]	-999	PAL1	2	R1312N
1212.303	0.272	1213128	ORIENT_START	n/a	n/a	-999	-999	n/a	n/a	n/a	n/a	10	[0, 0, 0]	-999	PAL1	2	R1312N
1212.575	0.701	1213400	ORIENT_END	n/a	n/a	-999	-999	n/a	n/a	n/a	n/a	10	[0, 0, 0]	-999	PAL1	2	R1312N
1213.276	0.0	1214101	PROBE_START	n/a	wordpools/wordpool_EN.txt	2	6	ROAD	PET	PET	ROAD	10	[0, 0, 0]	-999	PAL1	2	R1312N
1213.276	1.897	1214101	REC_START	n/a	n/a	2	6	ROAD	PET	PET	ROAD	10	[0, 0, 0]	-999	PAL1	2	R1312N
1215.173	2.137	1215998	REC_EVENT	1897	n/a	2	6	ROAD	PET	PET	ROAD	10	[0, 0, 0]	-999	PAL1	2	R1312N
1217.31	1.0	1218135	PROBE_END	n/a	n/a	2	6	ROAD	n/a	PET	ROAD	10	[0, 0, 0]	-999	PAL1	2	R1312N
1218.31	0.012	1219135	REC_END	n/a	n/a	2	6	ROAD	n/a	PET	ROAD	10	[0, 0, 0]	-999	PAL1	2	R1312N
1218.322	0.0	1219147	RETRIEVAL_END	n/a	n/a	-999	-999	n/a	n/a	n/a	n/a	10	[0, 0, 0]	-999	PAL1	2	R1312N
1218.322	0.019	1219147	TRIAL_END	n/a	n/a	-999	-999	n/a	n/a	n/a	n/a	10	[0, 0, 0]	-999	PAL1	2	R1312N
1218.341	0.0	1219166	TRIAL_START	n/a	n/a	-999	-999	n/a	n/a	n/a	n/a	10	[0, 0, 0]	-999	PAL1	2	R1312N
1218.341	0.001	1219166	TRIAL	n/a	n/a	-999	-999	n/a	n/a	n/a	n/a	11	[0, 0, 0]	-999	PAL1	2	R1312N
1218.342	1.817	1219167	WAITING_START	n/a	n/a	-999	-999	n/a	n/a	n/a	n/a	11	[0, 0, 0]	-999	PAL1	2	R1312N
1220.159	0.001	1220984	WAITING_END	n/a	n/a	-999	-999	n/a	n/a	n/a	n/a	11	[0, 0, 0]	-999	PAL1	2	R1312N
1220.16	10.428	1220985	COUNTDOWN_START	n/a	n/a	-999	-999	n/a	n/a	n/a	n/a	11	[0, 0, 0]	-999	PAL1	2	R1312N
1230.588	0.001	1231413	COUNTDOWN_END	n/a	n/a	-999	-999	n/a	n/a	n/a	n/a	11	[0, 0, 0]	-999	PAL1	2	R1312N
1230.589	0.522	1231414	ORIENT_START	n/a	n/a	-999	-999	n/a	n/a	n/a	n/a	11	[0, 0, 0]	-999	PAL1	2	R1312N
1231.111	0.001	1231936	ORIENT_END	n/a	n/a	-999	-999	n/a	n/a	n/a	n/a	11	[0, 0, 0]	-999	PAL1	2	R1312N
1231.112	1.161	1231937	ENCODING_START	n/a	n/a	-999	-999	n/a	n/a	n/a	n/a	11	[0, 0, 0]	-999	PAL1	2	R1312N
1232.273	4.04	1233098	STUDY_PAIR	n/a	wordpools/wordpool_EN.txt	1	-999	n/a	SPEAR	SPEAR	DUCK	11	[0, 0, 0]	-999	PAL1	2	R1312N
1236.313	0.575	1237138	STUDY_PAIR_OFF	n/a	n/a	1	-999	n/a	SPEAR	SPEAR	DUCK	11	[0, 0, 0]	-999	PAL1	2	R1312N
1236.888	4.025	1237713	STUDY_PAIR	n/a	wordpools/wordpool_EN.txt	2	-999	n/a	STEAK	FOOT	STEAK	11	[0, 0, 0]	-999	PAL1	2	R1312N
1240.913	0.51	1241737	STUDY_PAIR_OFF	n/a	n/a	2	-999	n/a	STEAK	FOOT	STEAK	11	[0, 0, 0]	-999	PAL1	2	R1312N
1241.423	4.025	1242247	STUDY_PAIR	n/a	wordpools/wordpool_EN.txt	3	-999	n/a	BOOT	BOOT	CAT	11	[0, 0, 0]	-999	PAL1	2	R1312N
1245.448	0.614	1246272	STUDY_PAIR_OFF	n/a	n/a	3	-999	n/a	BOOT	BOOT	CAT	11	[0, 0, 0]	-999	PAL1	2	R1312N
1246.062	4.036	1246886	STUDY_PAIR	n/a	wordpools/wordpool_EN.txt	4	-999	n/a	DOLL	FENCE	DOLL	11	[0, 0, 0]	-999	PAL1	2	R1312N
1250.098	0.709	1250922	STUDY_PAIR_OFF	n/a	n/a	4	-999	n/a	DOLL	FENCE	DOLL	11	[0, 0, 0]	-999	PAL1	2	R1312N
1250.807	4.025	1251631	STUDY_PAIR	n/a	wordpools/wordpool_EN.txt	5	-999	n/a	SMOKE	SMOKE	BARN	11	[0, 0, 0]	-999	PAL1	2	R1312N
1254.832	0.597	1255656	STUDY_PAIR_OFF	n/a	n/a	5	-999	n/a	SMOKE	SMOKE	BARN	11	[0, 0, 0]	-999	PAL1	2	R1312N
1255.429	4.037	1256253	STUDY_PAIR	n/a	wordpools/wordpool_EN.txt	6	-999	n/a	STICK	LAWN	STICK	11	[0, 0, 0]	-999	PAL1	2	R1312N
1259.466	0.0	1260290	STUDY_PAIR_OFF	n/a	n/a	6	-999	n/a	STICK	LAWN	STICK	11	[0, 0, 0]	-999	PAL1	2	R1312N
1259.466	0.001	1260290	ENCODING_END	n/a	n/a	-999	-999	n/a	n/a	n/a	n/a	11	[0, 0, 0]	-999	PAL1	2	R1312N
1259.467	0.0	1260291	MATH_START	n/a	n/a	-999	-999	n/a	n/a	n/a	n/a	11	[0, 0, 0]	-999	PAL1	2	R1312N
1259.467	0.015	1260291	START	n/a	n/a	-999	-999	n/a	n/a	n/a	n/a	11	[-999, -999, -999]	-999	PAL1	2	R1312N
1259.482	4.484	1260306	PROB	4447	n/a	-999	-999	n/a	n/a	n/a	n/a	11	[5, 2, 3]	10	PAL1	2	R1312N
1263.966	5.985	1264790	PROB	5947	n/a	-999	-999	n/a	n/a	n/a	n/a	11	[4, 3, 9]	16	PAL1	2	R1312N
1269.951	8.618	1270774	PROB	8587	n/a	-999	-999	n/a	n/a	n/a	n/a	11	[9, 9, 9]	27	PAL1	2	R1312N
1278.569	7.384	1279392	PROB	7384	n/a	-999	-999	n/a	n/a	n/a	n/a	11	[5, 1, 9]	15	PAL1	2	R1312N
1285.953	0.017	1286776	STOP	n/a	n/a	-999	-999	n/a	n/a	n/a	n/a	11	[-999, -999, -999]	-999	PAL1	2	R1312N
1285.97	0.612	1286793	MATH_END	n/a	n/a	-999	-999	n/a	n/a	n/a	n/a	11	[0, 0, 0]	-999	PAL1	2	R1312N
1286.582	0.001	1287405	RETRIEVAL_START	n/a	n/a	-999	-999	n/a	n/a	n/a	n/a	11	[0, 0, 0]	-999	PAL1	2	R1312N
1286.583	0.271	1287406	ORIENT_START	n/a	n/a	-999	-999	n/a	n/a	n/a	n/a	11	[0, 0, 0]	-999	PAL1	2	R1312N
1286.854	0.621	1287677	ORIENT_END	n/a	n/a	-999	-999	n/a	n/a	n/a	n/a	11	[0, 0, 0]	-999	PAL1	2	R1312N
1287.475	0.001	1288298	REC_START	n/a	n/a	5	1	BARN	SMOKE	SMOKE	BARN	11	[0, 0, 0]	-999	PAL1	2	R1312N
1287.476	1.608	1288299	PROBE_START	n/a	wordpools/wordpool_EN.txt	5	1	BARN	SMOKE	SMOKE	BARN	11	[0, 0, 0]	-999	PAL1	2	R1312N
1289.084	2.42	1289907	REC_EVENT	1608	n/a	5	1	BARN	SMOKE	SMOKE	BARN	11	[0, 0, 0]	-999	PAL1	2	R1312N
1291.504	1.0	1292327	PROBE_END	n/a	n/a	5	1	BARN	n/a	SMOKE	BARN	11	[0, 0, 0]	-999	PAL1	2	R1312N
1292.504	0.013	1293327	REC_END	n/a	n/a	5	1	BARN	n/a	SMOKE	BARN	11	[0, 0, 0]	-999	PAL1	2	R1312N
1292.517	0.271	1293340	ORIENT_START	n/a	n/a	-999	-999	n/a	n/a	n/a	n/a	11	[0, 0, 0]	-999	PAL1	2	R1312N
1292.788	0.628	1293611	ORIENT_END	n/a	n/a	-999	-999	n/a	n/a	n/a	n/a	11	[0, 0, 0]	-999	PAL1	2	R1312N
1293.416	0.001	1294239	REC_START	n/a	n/a	6	2	LAWN	STICK	LAWN	STICK	11	[0, 0, 0]	-999	PAL1	2	R1312N
1293.417	1.659	1294240	PROBE_START	n/a	wordpools/wordpool_EN.txt	6	2	LAWN	STICK	LAWN	STICK	11	[0, 0, 0]	-999	PAL1	2	R1312N
1295.076	2.364	1295899	REC_EVENT	1659	n/a	6	2	LAWN	STICK	LAWN	STICK	11	[0, 0, 0]	-999	PAL1	2	R1312N
1297.44	0.999	1298263	PROBE_END	n/a	n/a	6	2	LAWN	n/a	LAWN	STICK	11	[0, 0, 0]	-999	PAL1	2	R1312N
1298.439	0.01	1299261	REC_END	n/a	n/a	6	2	LAWN	n/a	LAWN	STICK	11	[0, 0, 0]	-999	PAL1	2	R1312N
1298.449	0.273	1299271	ORIENT_START	n/a	n/a	-999	-999	n/a	n/a	n/a	n/a	11	[0, 0, 0]	-999	PAL1	2	R1312N
1298.722	0.533	1299544	ORIENT_END	n/a	n/a	-999	-999	n/a	n/a	n/a	n/a	11	[0, 0, 0]	-999	PAL1	2	R1312N
1299.255	0.001	1300077	REC_START	n/a	n/a	3	3	CAT	BOOT	BOOT	CAT	11	[0, 0, 0]	-999	PAL1	2	R1312N
1299.256	1.87	1300078	PROBE_START	n/a	wordpools/wordpool_EN.txt	3	3	CAT	BOOT	BOOT	CAT	11	[0, 0, 0]	-999	PAL1	2	R1312N
1301.126	2.165	1301948	REC_EVENT	1870	n/a	3	3	CAT	BOOT	BOOT	CAT	11	[0, 0, 0]	-999	PAL1	2	R1312N
1303.291	1.0	1304113	PROBE_END	n/a	n/a	3	3	CAT	n/a	BOOT	CAT	11	[0, 0, 0]	-999	PAL1	2	R1312N
1304.291	0.012	1305113	REC_END	n/a	n/a	3	3	CAT	n/a	BOOT	CAT	11	[0, 0, 0]	-999	PAL1	2	R1312N
1304.303	0.27	1305125	ORIENT_START	n/a	n/a	-999	-999	n/a	n/a	n/a	n/a	11	[0, 0, 0]	-999	PAL1	2	R1312N
1304.573	0.694	1305395	ORIENT_END	n/a	n/a	-999	-999	n/a	n/a	n/a	n/a	11	[0, 0, 0]	-999	PAL1	2	R1312N
1305.267	0.0	1306089	REC_START	n/a	n/a	2	4	FOOT	STEAK	FOOT	STEAK	11	[0, 0, 0]	-999	PAL1	2	R1312N
1305.267	1.651	1306089	PROBE_START	n/a	wordpools/wordpool_EN.txt	2	4	FOOT	STEAK	FOOT	STEAK	11	[0, 0, 0]	-999	PAL1	2	R1312N
1306.918	2.374	1307740	REC_EVENT	1651	n/a	2	4	FOOT	STEAK	FOOT	STEAK	11	[0, 0, 0]	-999	PAL1	2	R1312N
1309.292	0.999	1310114	PROBE_END	n/a	n/a	2	4	FOOT	n/a	FOOT	STEAK	11	[0, 0, 0]	-999	PAL1	2	R1312N
1310.291	0.013	1311113	REC_END	n/a	n/a	2	4	FOOT	n/a	FOOT	STEAK	11	[0, 0, 0]	-999	PAL1	2	R1312N
1310.304	0.27	1311126	ORIENT_START	n/a	n/a	-999	-999	n/a	n/a	n/a	n/a	11	[0, 0, 0]	-999	PAL1	2	R1312N
1310.574	0.506	1311396	ORIENT_END	n/a	n/a	-999	-999	n/a	n/a	n/a	n/a	11	[0, 0, 0]	-999	PAL1	2	R1312N
1311.08	0.001	1311902	REC_START	n/a	n/a	1	5	DUCK	SPEAR	SPEAR	DUCK	11	[0, 0, 0]	-999	PAL1	2	R1312N
1311.081	1.663	1311903	PROBE_START	n/a	wordpools/wordpool_EN.txt	1	5	DUCK	SPEAR	SPEAR	DUCK	11	[0, 0, 0]	-999	PAL1	2	R1312N
1312.744	2.364	1313566	REC_EVENT	1663	n/a	1	5	DUCK	SPEAR	SPEAR	DUCK	11	[0, 0, 0]	-999	PAL1	2	R1312N
1315.108	1.0	1315930	PROBE_END	n/a	n/a	1	5	DUCK	n/a	SPEAR	DUCK	11	[0, 0, 0]	-999	PAL1	2	R1312N
1316.108	0.012	1316930	REC_END	n/a	n/a	1	5	DUCK	n/a	SPEAR	DUCK	11	[0, 0, 0]	-999	PAL1	2	R1312N
1316.12	0.273	1316942	ORIENT_START	n/a	n/a	-999	-999	n/a	n/a	n/a	n/a	11	[0, 0, 0]	-999	PAL1	2	R1312N
1316.393	0.588	1317215	ORIENT_END	n/a	n/a	-999	-999	n/a	n/a	n/a	n/a	11	[0, 0, 0]	-999	PAL1	2	R1312N
1316.981	0.0	1317803	REC_START	n/a	n/a	4	6	FENCE	DOLL	FENCE	DOLL	11	[0, 0, 0]	-999	PAL1	2	R1312N
1316.981	1.931	1317803	PROBE_START	n/a	wordpools/wordpool_EN.txt	4	6	FENCE	DOLL	FENCE	DOLL	11	[0, 0, 0]	-999	PAL1	2	R1312N
1318.912	2.097	1319734	REC_EVENT	1931	n/a	4	6	FENCE	DOLL	FENCE	DOLL	11	[0, 0, 0]	-999	PAL1	2	R1312N
1321.009	1.001	1321831	PROBE_END	n/a	n/a	4	6	FENCE	n/a	FENCE	DOLL	11	[0, 0, 0]	-999	PAL1	2	R1312N
1322.01	0.011	1322832	REC_END	n/a	n/a	4	6	FENCE	n/a	FENCE	DOLL	11	[0, 0, 0]	-999	PAL1	2	R1312N
1322.021	0.0	1322843	RETRIEVAL_END	n/a	n/a	-999	-999	n/a	n/a	n/a	n/a	11	[0, 0, 0]	-999	PAL1	2	R1312N
1322.021	0.02	1322843	TRIAL_END	n/a	n/a	-999	-999	n/a	n/a	n/a	n/a	11	[0, 0, 0]	-999	PAL1	2	R1312N
1322.041	0.0	1322863	TRIAL_START	n/a	n/a	-999	-999	n/a	n/a	n/a	n/a	11	[0, 0, 0]	-999	PAL1	2	R1312N
1322.041	0.001	1322863	TRIAL	n/a	n/a	-999	-999	n/a	n/a	n/a	n/a	12	[0, 0, 0]	-999	PAL1	2	R1312N
1322.042	1.901	1322864	WAITING_START	n/a	n/a	-999	-999	n/a	n/a	n/a	n/a	12	[0, 0, 0]	-999	PAL1	2	R1312N
1323.943	0.0	1324765	WAITING_END	n/a	n/a	-999	-999	n/a	n/a	n/a	n/a	12	[0, 0, 0]	-999	PAL1	2	R1312N
1323.943	10.429	1324765	COUNTDOWN_START	n/a	n/a	-999	-999	n/a	n/a	n/a	n/a	12	[0, 0, 0]	-999	PAL1	2	R1312N
1334.372	0.0	1335193	COUNTDOWN_END	n/a	n/a	-999	-999	n/a	n/a	n/a	n/a	12	[0, 0, 0]	-999	PAL1	2	R1312N
1334.372	0.556	1335193	ORIENT_START	n/a	n/a	-999	-999	n/a	n/a	n/a	n/a	12	[0, 0, 0]	-999	PAL1	2	R1312N
1334.928	0.001	1335749	ORIENT_END	n/a	n/a	-999	-999	n/a	n/a	n/a	n/a	12	[0, 0, 0]	-999	PAL1	2	R1312N
1334.929	1.097	1335750	ENCODING_START	n/a	n/a	-999	-999	n/a	n/a	n/a	n/a	12	[0, 0, 0]	-999	PAL1	2	R1312N
1336.026	4.036	1336847	STUDY_PAIR	n/a	wordpools/wordpool_EN.txt	1	-999	n/a	CRANE	CRANE	PIPE	12	[0, 0, 0]	-999	PAL1	2	R1312N
1340.062	0.562	1340883	STUDY_PAIR_OFF	n/a	n/a	1	-999	n/a	CRANE	CRANE	PIPE	12	[0, 0, 0]	-999	PAL1	2	R1312N
1340.624	4.039	1341445	STUDY_PAIR	n/a	wordpools/wordpool_EN.txt	2	-999	n/a	EAR	INK	EAR	12	[0, 0, 0]	-999	PAL1	2	R1312N
1344.663	0.653	1345484	STUDY_PAIR_OFF	n/a	n/a	2	-999	n/a	EAR	INK	EAR	12	[0, 0, 0]	-999	PAL1	2	R1312N
1345.316	4.032	1346137	STUDY_PAIR	n/a	wordpools/wordpool_EN.txt	3	-999	n/a	BEAR	CHALK	BEAR	12	[0, 0, 0]	-999	PAL1	2	R1312N
1349.348	0.508	1350169	STUDY_PAIR_OFF	n/a	n/a	3	-999	n/a	BEAR	CHALK	BEAR	12	[0, 0, 0]	-999	PAL1	2	R1312N
1349.856	4.025	1350677	STUDY_PAIR	n/a	wordpools/wordpool_EN.txt	4	-999	n/a	SUN	SUN	STAIR	12	[0, 0, 0]	-999	PAL1	2	R1312N
1353.881	0.556	1354702	STUDY_PAIR_OFF	n/a	n/a	4	-999	n/a	SUN	SUN	STAIR	12	[0, 0, 0]	-999	PAL1	2	R1312N
1354.437	4.028	1355258	STUDY_PAIR	n/a	wordpools/wordpool_EN.txt	5	-999	n/a	HOUSE	HOUSE	HORN	12	[0, 0, 0]	-999	PAL1	2	R1312N
1358.465	0.659	1359286	STUDY_PAIR_OFF	n/a	n/a	5	-999	n/a	HOUSE	HOUSE	HORN	12	[0, 0, 0]	-999	PAL1	2	R1312N
1359.124	4.026	1359944	STUDY_PAIR	n/a	wordpools/wordpool_EN.txt	6	-999	n/a	GUARD	PANTS	GUARD	12	[0, 0, 0]	-999	PAL1	2	R1312N
1363.15	0.0	1363970	STUDY_PAIR_OFF	n/a	n/a	6	-999	n/a	GUARD	PANTS	GUARD	12	[0, 0, 0]	-999	PAL1	2	R1312N
1363.15	0.001	1363970	ENCODING_END	n/a	n/a	-999	-999	n/a	n/a	n/a	n/a	12	[0, 0, 0]	-999	PAL1	2	R1312N
1363.151	0.0	1363971	MATH_START	n/a	n/a	-999	-999	n/a	n/a	n/a	n/a	12	[0, 0, 0]	-999	PAL1	2	R1312N
1363.151	0.015	1363971	START	n/a	n/a	-999	-999	n/a	n/a	n/a	n/a	12	[-999, -999, -999]	-999	PAL1	2	R1312N
1363.166	5.367	1363986	PROB	5331	n/a	-999	-999	n/a	n/a	n/a	n/a	12	[5, 9, 4]	18	PAL1	2	R1312N
1368.533	4.235	1369353	PROB	4196	n/a	-999	-999	n/a	n/a	n/a	n/a	12	[7, 2, 7]	16	PAL1	2	R1312N
1372.768	4.917	1373588	PROB	4881	n/a	-999	-999	n/a	n/a	n/a	n/a	12	[5, 1, 6]	12	PAL1	2	R1312N
1377.685	7.82	1378505	PROB	7820	n/a	-999	-999	n/a	n/a	n/a	n/a	12	[9, 8, 2]	19	PAL1	2	R1312N
1385.505	0.015	1386325	STOP	n/a	n/a	-999	-999	n/a	n/a	n/a	n/a	12	[-999, -999, -999]	-999	PAL1	2	R1312N
1385.52	0.58	1386340	MATH_END	n/a	n/a	-999	-999	n/a	n/a	n/a	n/a	12	[0, 0, 0]	-999	PAL1	2	R1312N
1386.1	0.002	1386920	RETRIEVAL_START	n/a	n/a	-999	-999	n/a	n/a	n/a	n/a	12	[0, 0, 0]	-999	PAL1	2	R1312N
1386.102	0.286	1386922	ORIENT_START	n/a	n/a	-999	-999	n/a	n/a	n/a	n/a	12	[0, 0, 0]	-999	PAL1	2	R1312N
1386.388	0.654	1387208	ORIENT_END	n/a	n/a	-999	-999	n/a	n/a	n/a	n/a	12	[0, 0, 0]	-999	PAL1	2	R1312N
1387.042	0.0	1387862	REC_START	n/a	n/a	5	1	HORN	HOUSE	HOUSE	HORN	12	[0, 0, 0]	-999	PAL1	2	R1312N
1387.042	2.021	1387862	PROBE_START	n/a	wordpools/wordpool_EN.txt	5	1	HORN	HOUSE	HOUSE	HORN	12	[0, 0, 0]	-999	PAL1	2	R1312N
1389.063	2.008	1389882	REC_EVENT	2021	n/a	5	1	HORN	HOUSE	HOUSE	HORN	12	[0, 0, 0]	-999	PAL1	2	R1312N
1391.071	1.0	1391890	PROBE_END	n/a	n/a	5	1	HORN	n/a	HOUSE	HORN	12	[0, 0, 0]	-999	PAL1	2	R1312N
1392.071	0.011	1392890	REC_END	n/a	n/a	5	1	HORN	n/a	HOUSE	HORN	12	[0, 0, 0]	-999	PAL1	2	R1312N
1392.082	0.273	1392901	ORIENT_START	n/a	n/a	-999	-999	n/a	n/a	n/a	n/a	12	[0, 0, 0]	-999	PAL1	2	R1312N
1392.355	0.532	1393174	ORIENT_END	n/a	n/a	-999	-999	n/a	n/a	n/a	n/a	12	[0, 0, 0]	-999	PAL1	2	R1312N
1392.887	0.0	1393706	REC_START	n/a	n/a	6	2	PANTS	GUARD	PANTS	GUARD	12	[0, 0, 0]	-999	PAL1	2	R1312N
1392.887	1.792	1393706	PROBE_START	n/a	wordpools/wordpool_EN.txt	6	2	PANTS	GUARD	PANTS	GUARD	12	[0, 0, 0]	-999	PAL1	2	R1312N
1394.679	2.243	1395498	REC_EVENT	1792	n/a	6	2	PANTS	GUARD	PANTS	GUARD	12	[0, 0, 0]	-999	PAL1	2	R1312N
1396.922	1.0	1397741	PROBE_END	n/a	n/a	6	2	PANTS	n/a	PANTS	GUARD	12	[0, 0, 0]	-999	PAL1	2	R1312N
1397.922	0.011	1398741	REC_END	n/a	n/a	6	2	PANTS	n/a	PANTS	GUARD	12	[0, 0, 0]	-999	PAL1	2	R1312N
1397.933	0.272	1398752	ORIENT_START	n/a	n/a	-999	-999	n/a	n/a	n/a	n/a	12	[0, 0, 0]	-999	PAL1	2	R1312N
1398.205	0.719	1399024	ORIENT_END	n/a	n/a	-999	-999	n/a	n/a	n/a	n/a	12	[0, 0, 0]	-999	PAL1	2	R1312N
1398.924	0.0	1399743	REC_START	n/a	n/a	3	3	CHALK	BEAR	CHALK	BEAR	12	[0, 0, 0]	-999	PAL1	2	R1312N
1398.924	2.409	1399743	PROBE_START	n/a	wordpools/wordpool_EN.txt	3	3	CHALK	BEAR	CHALK	BEAR	12	[0, 0, 0]	-999	PAL1	2	R1312N
1401.333	1.623	1402152	REC_EVENT	2409	n/a	3	3	CHALK	BEAR	CHALK	BEAR	12	[0, 0, 0]	-999	PAL1	2	R1312N
1402.956	1.001	1403775	PROBE_END	n/a	n/a	3	3	CHALK	n/a	CHALK	BEAR	12	[0, 0, 0]	-999	PAL1	2	R1312N
1403.957	0.012	1404776	REC_END	n/a	n/a	3	3	CHALK	n/a	CHALK	BEAR	12	[0, 0, 0]	-999	PAL1	2	R1312N
1403.969	0.27	1404788	ORIENT_START	n/a	n/a	-999	-999	n/a	n/a	n/a	n/a	12	[0, 0, 0]	-999	PAL1	2	R1312N
1404.239	0.65	1405058	ORIENT_END	n/a	n/a	-999	-999	n/a	n/a	n/a	n/a	12	[0, 0, 0]	-999	PAL1	2	R1312N
1404.889	0.0	1405708	REC_START	n/a	n/a	4	4	STAIR	SUN	SUN	STAIR	12	[0, 0, 0]	-999	PAL1	2	R1312N
1404.889	1.85	1405708	PROBE_START	n/a	wordpools/wordpool_EN.txt	4	4	STAIR	SUN	SUN	STAIR	12	[0, 0, 0]	-999	PAL1	2	R1312N
1406.739	2.185	1407558	REC_EVENT	1850	n/a	4	4	STAIR	SUN	SUN	STAIR	12	[0, 0, 0]	-999	PAL1	2	R1312N
1408.924	1.0	1409743	PROBE_END	n/a	n/a	4	4	STAIR	n/a	SUN	STAIR	12	[0, 0, 0]	-999	PAL1	2	R1312N
1409.924	0.011	1410743	REC_END	n/a	n/a	4	4	STAIR	n/a	SUN	STAIR	12	[0, 0, 0]	-999	PAL1	2	R1312N
1409.935	0.272	1410754	ORIENT_START	n/a	n/a	-999	-999	n/a	n/a	n/a	n/a	12	[0, 0, 0]	-999	PAL1	2	R1312N
1410.207	0.541	1411026	ORIENT_END	n/a	n/a	-999	-999	n/a	n/a	n/a	n/a	12	[0, 0, 0]	-999	PAL1	2	R1312N
1410.748	0.0	1411567	REC_START	n/a	n/a	1	5	PIPE	CRANE	CRANE	PIPE	12	[0, 0, 0]	-999	PAL1	2	R1312N
1410.748	1.926	1411567	PROBE_START	n/a	wordpools/wordpool_EN.txt	1	5	PIPE	CRANE	CRANE	PIPE	12	[0, 0, 0]	-999	PAL1	2	R1312N
1412.674	2.101	1413493	REC_EVENT	1926	n/a	1	5	PIPE	CRANE	CRANE	PIPE	12	[0, 0, 0]	-999	PAL1	2	R1312N
1414.775	1.0	1415594	PROBE_END	n/a	n/a	1	5	PIPE	n/a	CRANE	PIPE	12	[0, 0, 0]	-999	PAL1	2	R1312N
1415.775	0.011	1416594	REC_END	n/a	n/a	1	5	PIPE	n/a	CRANE	PIPE	12	[0, 0, 0]	-999	PAL1	2	R1312N
1415.786	0.272	1416605	ORIENT_START	n/a	n/a	-999	-999	n/a	n/a	n/a	n/a	12	[0, 0, 0]	-999	PAL1	2	R1312N
1416.058	0.556	1416877	ORIENT_END	n/a	n/a	-999	-999	n/a	n/a	n/a	n/a	12	[0, 0, 0]	-999	PAL1	2	R1312N
1416.614	0.0	1417433	REC_START	n/a	n/a	2	6	INK	EAR	INK	EAR	12	[0, 0, 0]	-999	PAL1	2	R1312N
1416.614	1.726	1417433	PROBE_START	n/a	wordpools/wordpool_EN.txt	2	6	INK	EAR	INK	EAR	12	[0, 0, 0]	-999	PAL1	2	R1312N
1418.34	2.302	1419159	REC_EVENT	1726	n/a	2	6	INK	EAR	INK	EAR	12	[0, 0, 0]	-999	PAL1	2	R1312N
1420.642	1.001	1421460	PROBE_END	n/a	n/a	2	6	INK	n/a	INK	EAR	12	[0, 0, 0]	-999	PAL1	2	R1312N
1421.643	0.011	1422461	REC_END	n/a	n/a	2	6	INK	n/a	INK	EAR	12	[0, 0, 0]	-999	PAL1	2	R1312N
1421.654	0.0	1422472	RETRIEVAL_END	n/a	n/a	-999	-999	n/a	n/a	n/a	n/a	12	[0, 0, 0]	-999	PAL1	2	R1312N
1421.654	0.022	1422472	TRIAL_END	n/a	n/a	-999	-999	n/a	n/a	n/a	n/a	12	[0, 0, 0]	-999	PAL1	2	R1312N
1421.676	0.0	1422494	TRIAL_START	n/a	n/a	-999	-999	n/a	n/a	n/a	n/a	12	[0, 0, 0]	-999	PAL1	2	R1312N
1421.676	0.001	1422494	TRIAL	n/a	n/a	-999	-999	n/a	n/a	n/a	n/a	13	[0, 0, 0]	-999	PAL1	2	R1312N
1421.677	1.733	1422495	WAITING_START	n/a	n/a	-999	-999	n/a	n/a	n/a	n/a	13	[0, 0, 0]	-999	PAL1	2	R1312N
1423.41	0.001	1424228	WAITING_END	n/a	n/a	-999	-999	n/a	n/a	n/a	n/a	13	[0, 0, 0]	-999	PAL1	2	R1312N
1423.411	10.429	1424229	COUNTDOWN_START	n/a	n/a	-999	-999	n/a	n/a	n/a	n/a	13	[0, 0, 0]	-999	PAL1	2	R1312N
1433.84	0.001	1434658	COUNTDOWN_END	n/a	n/a	-999	-999	n/a	n/a	n/a	n/a	13	[0, 0, 0]	-999	PAL1	2	R1312N
1433.841	0.654	1434659	ORIENT_START	n/a	n/a	-999	-999	n/a	n/a	n/a	n/a	13	[0, 0, 0]	-999	PAL1	2	R1312N
1434.495	0.0	1435313	ORIENT_END	n/a	n/a	-999	-999	n/a	n/a	n/a	n/a	13	[0, 0, 0]	-999	PAL1	2	R1312N
1434.495	1.07	1435313	ENCODING_START	n/a	n/a	-999	-999	n/a	n/a	n/a	n/a	13	[0, 0, 0]	-999	PAL1	2	R1312N
1435.565	4.03	1436383	STUDY_PAIR	n/a	wordpools/wordpool_EN.txt	1	-999	n/a	CLOWN	CLOWN	TOAD	13	[0, 0, 0]	-999	PAL1	2	R1312N
1439.595	0.56	1440413	STUDY_PAIR_OFF	n/a	n/a	1	-999	n/a	CLOWN	CLOWN	TOAD	13	[0, 0, 0]	-999	PAL1	2	R1312N
1440.155	4.025	1440973	STUDY_PAIR	n/a	wordpools/wordpool_EN.txt	2	-999	n/a	CUP	TOY	CUP	13	[0, 0, 0]	-999	PAL1	2	R1312N
1444.18	0.539	1444998	STUDY_PAIR_OFF	n/a	n/a	2	-999	n/a	CUP	TOY	CUP	13	[0, 0, 0]	-999	PAL1	2	R1312N
1444.719	4.028	1445537	STUDY_PAIR	n/a	wordpools/wordpool_EN.txt	3	-999	n/a	FARM	FARM	FISH	13	[0, 0, 0]	-999	PAL1	2	R1312N
1448.747	0.698	1449565	STUDY_PAIR_OFF	n/a	n/a	3	-999	n/a	FARM	FARM	FISH	13	[0, 0, 0]	-999	PAL1	2	R1312N
1449.445	4.036	1450262	STUDY_PAIR	n/a	wordpools/wordpool_EN.txt	4	-999	n/a	ROCK	ROCK	TREE	13	[0, 0, 0]	-999	PAL1	2	R1312N
