onset	duration	sample	trial_type	response_time	stim_file	serialpos	probepos	probe_word	resp_word	study_1	study_2	list	test	answer	experiment	session	subject
0.0	0.0	180533	INSTRUCT_VIDEO_ON	n/a	n/a	-999	-999	n/a	n/a	n/a	n/a	-999	[0, 0, 0]	-999	PAL1	0	R1250N
0.0	5.503	180533	INSTRUCT_VIDEO_OFF	n/a	n/a	-999	-999	n/a	n/a	n/a	n/a	-999	[0, 0, 0]	-999	PAL1	0	R1250N
5.503	0.0	186036	SESS_START	n/a	n/a	-999	-999	n/a	n/a	n/a	n/a	-999	[0, 0, 0]	-999	PAL1	0	R1250N
5.503	322.724	186036	MIC_TEST	n/a	n/a	-999	-999	n/a	n/a	n/a	n/a	-999	[0, 0, 0]	-999	PAL1	0	R1250N
328.227	14.838	508765	PRACTICE_TRIAL	n/a	n/a	-999	-999	n/a	n/a	n/a	n/a	-1	[0, 0, 0]	-999	PAL1	0	R1250N
343.065	0.005	523603	ENCODING_START	n/a	n/a	-999	-999	n/a	n/a	n/a	n/a	-1	[0, 0, 0]	-999	PAL1	0	R1250N
343.07	0.267	523608	PRACTICE_ORIENT	n/a	n/a	1	3	WAGON	BEAN	BEAM	WAGON	-1	[0, 0, 0]	-999	PAL1	0	R1250N
343.337	0.517	523875	PRACTICE_ORIENT_OFF	n/a	n/a	1	3	WAGON	BEAN	BEAM	WAGON	-1	[0, 0, 0]	-999	PAL1	0	R1250N
343.854	4.0	524392	PRACTICE_PAIR	n/a	n/a	1	3	WAGON	BEAN	BEAM	WAGON	-1	[0, 0, 0]	-999	PAL1	0	R1250N
347.871	1.016	528409	PRACTICE_PAIR_OFF	n/a	n/a	1	3	WAGON	BEAN	BEAM	WAGON	-1	[0, 0, 0]	-999	PAL1	0	R1250N
348.887	0.267	529425	PRACTICE_ORIENT	n/a	n/a	2	6	IRON	n/a	IRON	ATTIC	-1	[0, 0, 0]	-999	PAL1	0	R1250N
349.154	0.533	529692	PRACTICE_ORIENT_OFF	n/a	n/a	2	6	IRON	n/a	IRON	ATTIC	-1	[0, 0, 0]	-999	PAL1	0	R1250N
349.687	4.0	530225	PRACTICE_PAIR	n/a	n/a	2	6	IRON	n/a	IRON	ATTIC	-1	[0, 0, 0]	-999	PAL1	0	R1250N
353.704	1.016	534242	PRACTICE_PAIR_OFF	n/a	n/a	2	6	IRON	n/a	IRON	ATTIC	-1	[0, 0, 0]	-999	PAL1	0	R1250N
354.72	0.251	535258	PRACTICE_ORIENT	n/a	n/a	3	1	CAMEL	TOAST	CAMEL	CHEST	-1	[0, 0, 0]	-999	PAL1	0	R1250N
354.971	0.733	535509	PRACTICE_ORIENT_OFF	n/a	n/a	3	1	CAMEL	TOAST	CAMEL	CHEST	-1	[0, 0, 0]	-999	PAL1	0	R1250N
355.704	4.0	536242	PRACTICE_PAIR	n/a	n/a	3	1	CAMEL	TOAST	CAMEL	CHEST	-1	[0, 0, 0]	-999	PAL1	0	R1250N
359.721	1.017	540259	PRACTICE_PAIR_OFF	n/a	n/a	3	1	CAMEL	TOAST	CAMEL	CHEST	-1	[0, 0, 0]	-999	PAL1	0	R1250N
360.738	0.267	541276	PRACTICE_ORIENT	n/a	n/a	4	4	COTTON	n/a	TONGUE	COTTON	-1	[0, 0, 0]	-999	PAL1	0	R1250N
361.005	0.583	541543	PRACTICE_ORIENT_OFF	n/a	n/a	4	4	COTTON	n/a	TONGUE	COTTON	-1	[0, 0, 0]	-999	PAL1	0	R1250N
361.588	4.0	542126	PRACTICE_PAIR	n/a	n/a	4	4	COTTON	n/a	TONGUE	COTTON	-1	[0, 0, 0]	-999	PAL1	0	R1250N
365.605	1.017	546144	PRACTICE_PAIR_OFF	n/a	n/a	4	4	COTTON	n/a	TONGUE	COTTON	-1	[0, 0, 0]	-999	PAL1	0	R1250N
366.622	0.267	547161	PRACTICE_ORIENT	n/a	n/a	5	5	FLOOD	n/a	RING	FLOOD	-1	[0, 0, 0]	-999	PAL1	0	R1250N
366.889	0.6	547428	PRACTICE_ORIENT_OFF	n/a	n/a	5	5	FLOOD	n/a	RING	FLOOD	-1	[0, 0, 0]	-999	PAL1	0	R1250N
367.489	4.0	548028	PRACTICE_PAIR	n/a	n/a	5	5	FLOOD	n/a	RING	FLOOD	-1	[0, 0, 0]	-999	PAL1	0	R1250N
371.506	1.017	552045	PRACTICE_PAIR_OFF	n/a	n/a	5	5	FLOOD	n/a	RING	FLOOD	-1	[0, 0, 0]	-999	PAL1	0	R1250N
372.523	0.266	553062	PRACTICE_ORIENT	n/a	n/a	6	2	RHINO	n/a	RHINO	WATCH	-1	[0, 0, 0]	-999	PAL1	0	R1250N
372.789	0.584	553328	PRACTICE_ORIENT_OFF	n/a	n/a	6	2	RHINO	n/a	RHINO	WATCH	-1	[0, 0, 0]	-999	PAL1	0	R1250N
373.373	4.0	553912	PRACTICE_PAIR	n/a	n/a	6	2	RHINO	n/a	RHINO	WATCH	-1	[0, 0, 0]	-999	PAL1	0	R1250N
377.391	1.001	557930	PRACTICE_PAIR_OFF	n/a	n/a	6	2	RHINO	n/a	RHINO	WATCH	-1	[0, 0, 0]	-999	PAL1	0	R1250N
378.392	0.0	558931	ENCODING_END	n/a	n/a	-999	-999	n/a	n/a	n/a	n/a	-1	[0, 0, 0]	-999	PAL1	0	R1250N
378.392	0.0	558931	MATH_START	n/a	n/a	-999	-999	n/a	n/a	n/a	n/a	-1	[0, 0, 0]	-999	PAL1	0	R1250N
378.392	0.015	558931	START	n/a	n/a	-999	-999	n/a	n/a	n/a	n/a	-1	[-999, -999, -999]	-999	PAL1	0	R1250N
378.407	4.283	558946	PROB	4252.0	n/a	-999	-999	n/a	n/a	n/a	n/a	-1	[6, 5, 3]	11	PAL1	0	R1250N
382.69	3.585	563229	PROB	3553.0	n/a	-999	-999	n/a	n/a	n/a	n/a	-1	[1, 8, 8]	10	PAL1	0	R1250N
386.275	3.117	566814	PROB	3081.0	n/a	-999	-999	n/a	n/a	n/a	n/a	-1	[4, 8, 1]	13	PAL1	0	R1250N
389.392	2.583	569931	PROB	2547.0	n/a	-999	-999	n/a	n/a	n/a	n/a	-1	[3, 5, 5]	13	PAL1	0	R1250N
391.975	4.201	572514	PROB	4164.0	n/a	-999	-999	n/a	n/a	n/a	n/a	-1	[8, 6, 9]	23	PAL1	0	R1250N
396.176	3.306	576715	PROB	3306.0	n/a	-999	-999	n/a	n/a	n/a	n/a	-1	[2, 7, 2]	11	PAL1	0	R1250N
399.482	0.011	580021	STOP	n/a	n/a	-999	-999	n/a	n/a	n/a	n/a	-1	[-999, -999, -999]	-999	PAL1	0	R1250N
399.493	0.0	580032	MATH_END	n/a	n/a	-999	-999	n/a	n/a	n/a	n/a	-1	[0, 0, 0]	-999	PAL1	0	R1250N
399.493	0.017	580032	RECALL_START	n/a	n/a	-999	-999	n/a	n/a	n/a	n/a	-1	[0, 0, 0]	-999	PAL1	0	R1250N
399.51	0.265	580049	PRACTICE_RETRIEVAL_ORIENT	n/a	n/a	3	1	CAMEL	TOAST	CAMEL	CHEST	-1	[0, 0, 0]	-999	PAL1	0	R1250N
399.775	0.701	580314	PRACTICE_RETRIEVAL_ORIENT_OFF	n/a	n/a	3	1	CAMEL	TOAST	CAMEL	CHEST	-1	[0, 0, 0]	-999	PAL1	0	R1250N
400.476	4.0	581015	PRACTICE_PROBE	n/a	n/a	3	1	CAMEL	TOAST	CAMEL	CHEST	-1	[0, 0, 0]	-999	PAL1	0	R1250N
400.48	2.977	581019	REC_START	n/a	n/a	3	-999	n/a	TOAST	n/a	n/a	-1	[0, 0, 0]	-999	PAL1	0	R1250N
403.457	1.036	583996	REC_EVENT	2977.0	n/a	3	1	CAMEL	TOAST	CAMEL	CHEST	-1	[0, 0, 0]	-999	PAL1	0	R1250N
404.493	1.001	585032	PROBE_OFF	n/a	n/a	3	-999	n/a	n/a	n/a	n/a	-1	[0, 0, 0]	-999	PAL1	0	R1250N
405.494	0.016	586033	REC_END	n/a	n/a	3	-999	n/a	n/a	n/a	n/a	-1	[0, 0, 0]	-999	PAL1	0	R1250N
405.51	0.266	586049	PRACTICE_RETRIEVAL_ORIENT	n/a	n/a	6	2	RHINO	n/a	RHINO	WATCH	-1	[0, 0, 0]	-999	PAL1	0	R1250N
405.776	0.618	586315	PRACTICE_RETRIEVAL_ORIENT_OFF	n/a	n/a	6	2	RHINO	n/a	RHINO	WATCH	-1	[0, 0, 0]	-999	PAL1	0	R1250N
406.394	0.0	586933	REC_START	n/a	n/a	6	-999	n/a	n/a	n/a	n/a	-1	[0, 0, 0]	-999	PAL1	0	R1250N
406.394	4.0	586933	PRACTICE_PROBE	n/a	n/a	6	2	RHINO	n/a	RHINO	WATCH	-1	[0, 0, 0]	-999	PAL1	0	R1250N
407.723	2.688	588262	REC_EVENT	1329.0	n/a	6	2	RHINO	<>	RHINO	WATCH	-1	[0, 0, 0]	-999	PAL1	0	R1250N
410.411	1.0	590950	PROBE_OFF	n/a	n/a	6	-999	n/a	n/a	n/a	n/a	-1	[0, 0, 0]	-999	PAL1	0	R1250N
411.411	0.016	591950	REC_END	n/a	n/a	6	-999	n/a	n/a	n/a	n/a	-1	[0, 0, 0]	-999	PAL1	0	R1250N
411.427	0.266	591966	PRACTICE_RETRIEVAL_ORIENT	n/a	n/a	1	3	WAGON	BEAN	BEAM	WAGON	-1	[0, 0, 0]	-999	PAL1	0	R1250N
411.693	0.585	592232	PRACTICE_RETRIEVAL_ORIENT_OFF	n/a	n/a	1	3	WAGON	BEAN	BEAM	WAGON	-1	[0, 0, 0]	-999	PAL1	0	R1250N
412.278	4.0	592817	PRACTICE_PROBE	n/a	n/a	1	3	WAGON	BEAN	BEAM	WAGON	-1	[0, 0, 0]	-999	PAL1	0	R1250N
412.278	1.841	592817	REC_START	n/a	n/a	1	-999	n/a	BEAN	n/a	n/a	-1	[0, 0, 0]	-999	PAL1	0	R1250N
414.119	2.176	594658	REC_EVENT	1841.0	n/a	1	3	WAGON	BEAN	BEAM	WAGON	-1	[0, 0, 0]	-999	PAL1	0	R1250N
416.295	1.0	596834	PROBE_OFF	n/a	n/a	1	-999	n/a	n/a	n/a	n/a	-1	[0, 0, 0]	-999	PAL1	0	R1250N
417.295	0.016	597834	REC_END	n/a	n/a	1	-999	n/a	n/a	n/a	n/a	-1	[0, 0, 0]	-999	PAL1	0	R1250N
417.311	0.266	597850	PRACTICE_RETRIEVAL_ORIENT	n/a	n/a	4	4	COTTON	n/a	TONGUE	COTTON	-1	[0, 0, 0]	-999	PAL1	0	R1250N
417.577	0.584	598116	PRACTICE_RETRIEVAL_ORIENT_OFF	n/a	n/a	4	4	COTTON	n/a	TONGUE	COTTON	-1	[0, 0, 0]	-999	PAL1	0	R1250N
418.161	4.0	598700	PRACTICE_PROBE	n/a	n/a	4	4	COTTON	n/a	TONGUE	COTTON	-1	[0, 0, 0]	-999	PAL1	0	R1250N
418.162	4.017	598701	REC_START	n/a	n/a	4	-999	n/a	n/a	n/a	n/a	-1	[0, 0, 0]	-999	PAL1	0	R1250N
422.179	0.652	602718	PROBE_OFF	n/a	n/a	4	-999	n/a	n/a	n/a	n/a	-1	[0, 0, 0]	-999	PAL1	0	R1250N
422.831	0.348	603370	REC_EVENT	4669.0	n/a	4	4	COTTON	<>	TONGUE	COTTON	-1	[0, 0, 0]	-999	PAL1	0	R1250N
423.179	0.016	603718	REC_END	n/a	n/a	4	-999	n/a	n/a	n/a	n/a	-1	[0, 0, 0]	-999	PAL1	0	R1250N
423.195	0.267	603734	PRACTICE_RETRIEVAL_ORIENT	n/a	n/a	5	5	FLOOD	n/a	RING	FLOOD	-1	[0, 0, 0]	-999	PAL1	0	R1250N
423.462	0.6	604001	PRACTICE_RETRIEVAL_ORIENT_OFF	n/a	n/a	5	5	FLOOD	n/a	RING	FLOOD	-1	[0, 0, 0]	-999	PAL1	0	R1250N
424.062	4.0	604601	PRACTICE_PROBE	n/a	n/a	5	5	FLOOD	n/a	RING	FLOOD	-1	[0, 0, 0]	-999	PAL1	0	R1250N
424.063	4.016	604602	REC_START	n/a	n/a	5	-999	n/a	n/a	n/a	n/a	-1	[0, 0, 0]	-999	PAL1	0	R1250N
428.079	0.999	608619	PROBE_OFF	n/a	n/a	5	-999	n/a	n/a	n/a	n/a	-1	[0, 0, 0]	-999	PAL1	0	R1250N
429.078	0.001	609618	REC_EVENT	5015.0	n/a	5	5	FLOOD	<>	RING	FLOOD	-1	[0, 0, 0]	-999	PAL1	0	R1250N
429.079	0.017	609619	REC_END	n/a	n/a	5	-999	n/a	n/a	n/a	n/a	-1	[0, 0, 0]	-999	PAL1	0	R1250N
429.096	0.267	609636	PRACTICE_RETRIEVAL_ORIENT	n/a	n/a	2	6	IRON	n/a	IRON	ATTIC	-1	[0, 0, 0]	-999	PAL1	0	R1250N
429.363	0.55	609903	PRACTICE_RETRIEVAL_ORIENT_OFF	n/a	n/a	2	6	IRON	n/a	IRON	ATTIC	-1	[0, 0, 0]	-999	PAL1	0	R1250N
429.913	4.0	610453	PRACTICE_PROBE	n/a	n/a	2	6	IRON	n/a	IRON	ATTIC	-1	[0, 0, 0]	-999	PAL1	0	R1250N
429.913	2.886	610453	REC_START	n/a	n/a	2	-999	n/a	n/a	n/a	n/a	-1	[0, 0, 0]	-999	PAL1	0	R1250N
432.799	1.131	613339	REC_EVENT	2886.0	n/a	2	6	IRON	<>	IRON	ATTIC	-1	[0, 0, 0]	-999	PAL1	0	R1250N
433.93	1.0	614470	PROBE_OFF	n/a	n/a	2	-999	n/a	n/a	n/a	n/a	-1	[0, 0, 0]	-999	PAL1	0	R1250N
434.93	0.004	615470	REC_END	n/a	n/a	2	-999	n/a	n/a	n/a	n/a	-1	[0, 0, 0]	-999	PAL1	0	R1250N
434.934	29.032	615474	RECALL_END	n/a	n/a	-999	-999	n/a	n/a	n/a	n/a	-1	[0, 0, 0]	-999	PAL1	0	R1250N
463.966	10.929	644506	TRIAL	n/a	n/a	-999	-999	n/a	n/a	n/a	n/a	1	[0, 0, 0]	-999	PAL1	0	R1250N
474.895	0.006	655435	ENCODING_START	n/a	n/a	-999	-999	n/a	n/a	n/a	n/a	1	[0, 0, 0]	-999	PAL1	0	R1250N
474.901	0.267	655441	STUDY_ORIENT	n/a	n/a	1	3	CUP	PEA	CUP	PEA	1	[0, 0, 0]	-999	PAL1	0	R1250N
475.168	0.615	655708	STUDY_ORIENT_OFF	n/a	n/a	1	3	CUP	PEA	CUP	PEA	1	[0, 0, 0]	-999	PAL1	0	R1250N
475.783	4.0	656323	STUDY_PAIR	n/a	wordpools/wordpool_EN.txt	1	3	CUP	PEA	CUP	PEA	1	[0, 0, 0]	-999	PAL1	0	R1250N
479.801	1.017	660341	PAIR_OFF	n/a	n/a	1	3	CUP	PEA	CUP	PEA	1	[0, 0, 0]	-999	PAL1	0	R1250N
480.818	0.267	661358	STUDY_ORIENT	n/a	n/a	2	6	DUCK	n/a	JAIL	DUCK	1	[0, 0, 0]	-999	PAL1	0	R1250N
481.085	0.616	661625	STUDY_ORIENT_OFF	n/a	n/a	2	6	DUCK	n/a	JAIL	DUCK	1	[0, 0, 0]	-999	PAL1	0	R1250N
481.701	4.0	662241	STUDY_PAIR	n/a	wordpools/wordpool_EN.txt	2	6	DUCK	n/a	JAIL	DUCK	1	[0, 0, 0]	-999	PAL1	0	R1250N
485.718	1.016	666258	PAIR_OFF	n/a	n/a	2	6	DUCK	n/a	JAIL	DUCK	1	[0, 0, 0]	-999	PAL1	0	R1250N
486.734	0.268	667274	STUDY_ORIENT	n/a	n/a	3	1	SPRING	n/a	MAIL	SPRING	1	[0, 0, 0]	-999	PAL1	0	R1250N
487.002	0.616	667542	STUDY_ORIENT_OFF	n/a	n/a	3	1	SPRING	n/a	MAIL	SPRING	1	[0, 0, 0]	-999	PAL1	0	R1250N
487.618	4.0	668158	STUDY_PAIR	n/a	wordpools/wordpool_EN.txt	3	1	SPRING	n/a	MAIL	SPRING	1	[0, 0, 0]	-999	PAL1	0	R1250N
491.635	1.017	672176	PAIR_OFF	n/a	n/a	3	1	SPRING	n/a	MAIL	SPRING	1	[0, 0, 0]	-999	PAL1	0	R1250N
492.652	0.268	673193	STUDY_ORIENT	n/a	n/a	4	4	TEETH	DIME	TEETH	DIME	1	[0, 0, 0]	-999	PAL1	0	R1250N
492.92	0.533	673461	STUDY_ORIENT_OFF	n/a	n/a	4	4	TEETH	DIME	TEETH	DIME	1	[0, 0, 0]	-999	PAL1	0	R1250N
493.453	4.0	673994	STUDY_PAIR	n/a	wordpools/wordpool_EN.txt	4	4	TEETH	DIME	TEETH	DIME	1	[0, 0, 0]	-999	PAL1	0	R1250N
497.47	1.017	678011	PAIR_OFF	n/a	n/a	4	4	TEETH	DIME	TEETH	DIME	1	[0, 0, 0]	-999	PAL1	0	R1250N
498.487	0.265	679028	STUDY_ORIENT	n/a	n/a	5	5	SWAMP	TEA	TEA	SWAMP	1	[0, 0, 0]	-999	PAL1	0	R1250N
498.752	0.685	679293	STUDY_ORIENT_OFF	n/a	n/a	5	5	SWAMP	TEA	TEA	SWAMP	1	[0, 0, 0]	-999	PAL1	0	R1250N
499.437	4.0	679978	STUDY_PAIR	n/a	wordpools/wordpool_EN.txt	5	5	SWAMP	TEA	TEA	SWAMP	1	[0, 0, 0]	-999	PAL1	0	R1250N
503.454	1.017	683995	PAIR_OFF	n/a	n/a	5	5	SWAMP	TEA	TEA	SWAMP	1	[0, 0, 0]	-999	PAL1	0	R1250N
504.471	0.265	685012	STUDY_ORIENT	n/a	n/a	6	2	STEAM	n/a	STEAM	CALF	1	[0, 0, 0]	-999	PAL1	0	R1250N
504.736	0.651	685277	STUDY_ORIENT_OFF	n/a	n/a	6	2	STEAM	n/a	STEAM	CALF	1	[0, 0, 0]	-999	PAL1	0	R1250N
505.387	4.0	685928	STUDY_PAIR	n/a	wordpools/wordpool_EN.txt	6	2	STEAM	n/a	STEAM	CALF	1	[0, 0, 0]	-999	PAL1	0	R1250N
509.405	1.001	689946	PAIR_OFF	n/a	n/a	6	2	STEAM	n/a	STEAM	CALF	1	[0, 0, 0]	-999	PAL1	0	R1250N
510.406	0.0	690947	ENCODING_END	n/a	n/a	-999	-999	n/a	n/a	n/a	n/a	1	[0, 0, 0]	-999	PAL1	0	R1250N
510.406	0.0	690947	MATH_START	n/a	n/a	-999	-999	n/a	n/a	n/a	n/a	1	[0, 0, 0]	-999	PAL1	0	R1250N
510.406	0.015	690947	START	n/a	n/a	-999	-999	n/a	n/a	n/a	n/a	1	[-999, -999, -999]	-999	PAL1	0	R1250N
510.421	4.35	690962	PROB	4318.0	n/a	-999	-999	n/a	n/a	n/a	n/a	1	[8, 1, 5]	14	PAL1	0	R1250N
514.771	3.618	695312	PROB	3585.0	n/a	-999	-999	n/a	n/a	n/a	n/a	1	[9, 9, 7]	25	PAL1	0	R1250N
518.389	4.667	698930	PROB	4638.0	n/a	-999	-999	n/a	n/a	n/a	n/a	1	[9, 9, 6]	24	PAL1	0	R1250N
523.056	3.1	703597	PROB	3067.0	n/a	-999	-999	n/a	n/a	n/a	n/a	1	[7, 3, 1]	11	PAL1	0	R1250N
526.156	3.566	706697	PROB	3541.0	n/a	-999	-999	n/a	n/a	n/a	n/a	1	[5, 6, 7]	18	PAL1	0	R1250N
529.722	3.185	710263	PROB	3185.0	n/a	-999	-999	n/a	n/a	n/a	n/a	1	[4, 4, 7]	15	PAL1	0	R1250N
532.907	0.017	713448	STOP	n/a	n/a	-999	-999	n/a	n/a	n/a	n/a	1	[-999, -999, -999]	-999	PAL1	0	R1250N
532.924	0.0	713465	RECALL_START	n/a	n/a	-999	-999	n/a	n/a	n/a	n/a	1	[0, 0, 0]	-999	PAL1	0	R1250N
532.924	0.016	713465	MATH_END	n/a	n/a	-999	-999	n/a	n/a	n/a	n/a	1	[0, 0, 0]	-999	PAL1	0	R1250N
532.94	0.267	713481	TEST_ORIENT	n/a	n/a	3	1	SPRING	n/a	MAIL	SPRING	1	[0, 0, 0]	-999	PAL1	0	R1250N
533.207	0.532	713748	RETRIEVAL_ORIENT_OFF	n/a	n/a	-999	-999	n/a	n/a	n/a	n/a	1	[0, 0, 0]	-999	PAL1	0	R1250N
533.739	4.0	714280	TEST_PROBE	n/a	wordpools/wordpool_EN.txt	3	1	SPRING	n/a	MAIL	SPRING	1	[0, 0, 0]	-999	PAL1	0	R1250N
533.74	4.017	714281	REC_START	n/a	n/a	3	-999	n/a	n/a	n/a	n/a	1	[0, 0, 0]	-999	PAL1	0	R1250N
537.757	0.998	718298	PROBE_OFF	n/a	n/a	3	-999	n/a	n/a	n/a	n/a	1	[0, 0, 0]	-999	PAL1	0	R1250N
538.755	0.002	719296	REC_EVENT	5015.0	n/a	3	1	SPRING	<>	MAIL	SPRING	1	[0, 0, 0]	-999	PAL1	0	R1250N
538.757	0.016	719298	REC_END	n/a	n/a	3	-999	n/a	n/a	n/a	n/a	1	[0, 0, 0]	-999	PAL1	0	R1250N
538.773	0.268	719314	TEST_ORIENT	n/a	n/a	6	2	STEAM	n/a	STEAM	CALF	1	[0, 0, 0]	-999	PAL1	0	R1250N
539.041	0.583	719582	RETRIEVAL_ORIENT_OFF	n/a	n/a	3	-999	n/a	n/a	n/a	n/a	1	[0, 0, 0]	-999	PAL1	0	R1250N
539.624	4.0	720165	TEST_PROBE	n/a	wordpools/wordpool_EN.txt	6	2	STEAM	n/a	STEAM	CALF	1	[0, 0, 0]	-999	PAL1	0	R1250N
539.624	4.017	720165	REC_START	n/a	n/a	6	-999	n/a	n/a	n/a	n/a	1	[0, 0, 0]	-999	PAL1	0	R1250N
543.641	1.0	724182	PROBE_OFF	n/a	n/a	6	-999	n/a	n/a	n/a	n/a	1	[0, 0, 0]	-999	PAL1	0	R1250N
544.641	0.004	725182	REC_END	n/a	n/a	6	-999	n/a	n/a	n/a	n/a	1	[0, 0, 0]	-999	PAL1	0	R1250N
544.645	0.012	725186	REC_EVENT	5021.0	n/a	6	2	STEAM	<>	STEAM	CALF	1	[0, 0, 0]	-999	PAL1	0	R1250N
544.657	0.251	725198	TEST_ORIENT	n/a	n/a	1	3	CUP	PEA	CUP	PEA	1	[0, 0, 0]	-999	PAL1	0	R1250N
544.908	0.649	725449	RETRIEVAL_ORIENT_OFF	n/a	n/a	6	-999	n/a	n/a	n/a	n/a	1	[0, 0, 0]	-999	PAL1	0	R1250N
545.557	4.0	726098	TEST_PROBE	n/a	wordpools/wordpool_EN.txt	1	3	CUP	PEA	CUP	PEA	1	[0, 0, 0]	-999	PAL1	0	R1250N
545.558	2.537	726099	REC_START	n/a	n/a	1	-999	n/a	PEA	n/a	n/a	1	[0, 0, 0]	-999	PAL1	0	R1250N
548.095	1.48	728636	REC_EVENT	2537.0	n/a	1	3	CUP	PEA	CUP	PEA	1	[0, 0, 0]	-999	PAL1	0	R1250N
549.575	1.01	730116	PROBE_OFF	n/a	n/a	1	-999	n/a	n/a	n/a	n/a	1	[0, 0, 0]	-999	PAL1	0	R1250N
550.585	0.006	731126	REC_END	n/a	n/a	1	-999	n/a	n/a	n/a	n/a	1	[0, 0, 0]	-999	PAL1	0	R1250N
550.591	0.268	731132	TEST_ORIENT	n/a	n/a	4	4	TEETH	DIME	TEETH	DIME	1	[0, 0, 0]	-999	PAL1	0	R1250N
550.859	0.517	731400	RETRIEVAL_ORIENT_OFF	n/a	n/a	1	-999	n/a	n/a	n/a	n/a	1	[0, 0, 0]	-999	PAL1	0	R1250N
551.376	4.0	731917	TEST_PROBE	n/a	wordpools/wordpool_EN.txt	4	4	TEETH	DIME	TEETH	DIME	1	[0, 0, 0]	-999	PAL1	0	R1250N
551.376	1.675	731917	REC_START	n/a	n/a	4	-999	n/a	DIME	n/a	n/a	1	[0, 0, 0]	-999	PAL1	0	R1250N
553.051	2.342	733592	REC_EVENT	1675.0	n/a	4	4	TEETH	DIME	TEETH	DIME	1	[0, 0, 0]	-999	PAL1	0	R1250N
555.393	1.001	735935	PROBE_OFF	n/a	n/a	4	-999	n/a	n/a	n/a	n/a	1	[0, 0, 0]	-999	PAL1	0	R1250N
556.394	0.016	736936	REC_END	n/a	n/a	4	-999	n/a	n/a	n/a	n/a	1	[0, 0, 0]	-999	PAL1	0	R1250N
556.41	0.265	736952	TEST_ORIENT	n/a	n/a	5	5	SWAMP	TEA	TEA	SWAMP	1	[0, 0, 0]	-999	PAL1	0	R1250N
556.675	0.718	737217	RETRIEVAL_ORIENT_OFF	n/a	n/a	4	-999	n/a	n/a	n/a	n/a	1	[0, 0, 0]	-999	PAL1	0	R1250N
557.393	4.0	737935	TEST_PROBE	n/a	wordpools/wordpool_EN.txt	5	5	SWAMP	TEA	TEA	SWAMP	1	[0, 0, 0]	-999	PAL1	0	R1250N
557.393	2.62	737935	REC_START	n/a	n/a	5	-999	n/a	TEA	n/a	n/a	1	[0, 0, 0]	-999	PAL1	0	R1250N
560.013	1.397	740555	REC_EVENT	2620.0	n/a	5	5	SWAMP	TEA	TEA	SWAMP	1	[0, 0, 0]	-999	PAL1	0	R1250N
561.41	1.0	741952	PROBE_OFF	n/a	n/a	5	-999	n/a	n/a	n/a	n/a	1	[0, 0, 0]	-999	PAL1	0	R1250N
562.41	0.017	742952	REC_END	n/a	n/a	5	-999	n/a	n/a	n/a	n/a	1	[0, 0, 0]	-999	PAL1	0	R1250N
562.427	0.266	742969	TEST_ORIENT	n/a	n/a	2	6	DUCK	n/a	JAIL	DUCK	1	[0, 0, 0]	-999	PAL1	0	R1250N
562.693	0.717	743235	RETRIEVAL_ORIENT_OFF	n/a	n/a	5	-999	n/a	n/a	n/a	n/a	1	[0, 0, 0]	-999	PAL1	0	R1250N
563.41	4.0	743952	TEST_PROBE	n/a	wordpools/wordpool_EN.txt	2	6	DUCK	n/a	JAIL	DUCK	1	[0, 0, 0]	-999	PAL1	0	R1250N
563.411	4.016	743953	REC_START	n/a	n/a	2	-999	n/a	n/a	n/a	n/a	1	[0, 0, 0]	-999	PAL1	0	R1250N
567.427	0.999	747969	PROBE_OFF	n/a	n/a	2	-999	n/a	n/a	n/a	n/a	1	[0, 0, 0]	-999	PAL1	0	R1250N
568.426	0.001	748968	REC_EVENT	5015.0	n/a	2	6	DUCK	<>	JAIL	DUCK	1	[0, 0, 0]	-999	PAL1	0	R1250N
568.427	0.01	748969	REC_END	n/a	n/a	2	-999	n/a	n/a	n/a	n/a	1	[0, 0, 0]	-999	PAL1	0	R1250N
568.437	5.758	748979	RECALL_END	n/a	n/a	-999	-999	n/a	n/a	n/a	n/a	1	[0, 0, 0]	-999	PAL1	0	R1250N
574.195	10.928	754737	TRIAL	n/a	n/a	-999	-999	n/a	n/a	n/a	n/a	2	[0, 0, 0]	-999	PAL1	0	R1250N
585.123	0.006	765665	ENCODING_START	n/a	n/a	-999	-999	n/a	n/a	n/a	n/a	2	[0, 0, 0]	-999	PAL1	0	R1250N
585.129	0.267	765671	STUDY_ORIENT	n/a	n/a	1	3	GATE	FOAM	GATE	FOAM	2	[0, 0, 0]	-999	PAL1	0	R1250N
585.396	0.75	765938	STUDY_ORIENT_OFF	n/a	n/a	1	3	GATE	FOAM	GATE	FOAM	2	[0, 0, 0]	-999	PAL1	0	R1250N
586.146	4.0	766688	STUDY_PAIR	n/a	wordpools/wordpool_EN.txt	1	3	GATE	FOAM	GATE	FOAM	2	[0, 0, 0]	-999	PAL1	0	R1250N
590.163	1.017	770705	PAIR_OFF	n/a	n/a	1	3	GATE	FOAM	GATE	FOAM	2	[0, 0, 0]	-999	PAL1	0	R1250N
591.18	0.267	771722	STUDY_ORIENT	n/a	n/a	2	2	FENCE	n/a	SNOW	FENCE	2	[0, 0, 0]	-999	PAL1	0	R1250N
591.447	0.616	771989	STUDY_ORIENT_OFF	n/a	n/a	2	2	FENCE	n/a	SNOW	FENCE	2	[0, 0, 0]	-999	PAL1	0	R1250N
592.063	4.0	772605	STUDY_PAIR	n/a	wordpools/wordpool_EN.txt	2	2	FENCE	n/a	SNOW	FENCE	2	[0, 0, 0]	-999	PAL1	0	R1250N
596.081	1.016	776623	PAIR_OFF	n/a	n/a	2	2	FENCE	n/a	SNOW	FENCE	2	[0, 0, 0]	-999	PAL1	0	R1250N
597.097	0.267	777639	STUDY_ORIENT	n/a	n/a	3	1	PIT	n/a	BOWL	PIT	2	[0, 0, 0]	-999	PAL1	0	R1250N
597.364	0.7	777906	STUDY_ORIENT_OFF	n/a	n/a	3	1	PIT	n/a	BOWL	PIT	2	[0, 0, 0]	-999	PAL1	0	R1250N
598.064	4.0	778606	STUDY_PAIR	n/a	wordpools/wordpool_EN.txt	3	1	PIT	n/a	BOWL	PIT	2	[0, 0, 0]	-999	PAL1	0	R1250N
602.081	1.017	782623	PAIR_OFF	n/a	n/a	3	1	PIT	n/a	BOWL	PIT	2	[0, 0, 0]	-999	PAL1	0	R1250N
603.098	0.267	783640	STUDY_ORIENT	n/a	n/a	4	6	BOAT	n/a	JUDGE	BOAT	2	[0, 0, 0]	-999	PAL1	0	R1250N
603.365	0.6	783907	STUDY_ORIENT_OFF	n/a	n/a	4	6	BOAT	n/a	JUDGE	BOAT	2	[0, 0, 0]	-999	PAL1	0	R1250N
603.965	4.0	784507	STUDY_PAIR	n/a	wordpools/wordpool_EN.txt	4	6	BOAT	n/a	JUDGE	BOAT	2	[0, 0, 0]	-999	PAL1	0	R1250N
607.982	1.017	788524	PAIR_OFF	n/a	n/a	4	6	BOAT	n/a	JUDGE	BOAT	2	[0, 0, 0]	-999	PAL1	0	R1250N
608.999	0.266	789541	STUDY_ORIENT	n/a	n/a	5	5	PIE	ANT	PANTS	PIE	2	[0, 0, 0]	-999	PAL1	0	R1250N
609.265	0.733	789807	STUDY_ORIENT_OFF	n/a	n/a	5	5	PIE	ANT	PANTS	PIE	2	[0, 0, 0]	-999	PAL1	0	R1250N
609.998	4.0	790540	STUDY_PAIR	n/a	wordpools/wordpool_EN.txt	5	5	PIE	ANT	PANTS	PIE	2	[0, 0, 0]	-999	PAL1	0	R1250N
614.016	1.017	794558	PAIR_OFF	n/a	n/a	5	5	PIE	ANT	PANTS	PIE	2	[0, 0, 0]	-999	PAL1	0	R1250N
615.033	0.266	795575	STUDY_ORIENT	n/a	n/a	6	4	TRASH	n/a	BRANCH	TRASH	2	[0, 0, 0]	-999	PAL1	0	R1250N
615.299	0.75	795841	STUDY_ORIENT_OFF	n/a	n/a	6	4	TRASH	n/a	BRANCH	TRASH	2	[0, 0, 0]	-999	PAL1	0	R1250N
616.049	4.0	796591	STUDY_PAIR	n/a	wordpools/wordpool_EN.txt	6	4	TRASH	n/a	BRANCH	TRASH	2	[0, 0, 0]	-999	PAL1	0	R1250N
620.066	1.0	800609	PAIR_OFF	n/a	n/a	6	4	TRASH	n/a	BRANCH	TRASH	2	[0, 0, 0]	-999	PAL1	0	R1250N
621.066	0.0	801609	ENCODING_END	n/a	n/a	-999	-999	n/a	n/a	n/a	n/a	2	[0, 0, 0]	-999	PAL1	0	R1250N
621.066	0.001	801609	MATH_START	n/a	n/a	-999	-999	n/a	n/a	n/a	n/a	2	[0, 0, 0]	-999	PAL1	0	R1250N
621.067	0.016	801610	START	n/a	n/a	-999	-999	n/a	n/a	n/a	n/a	2	[-999, -999, -999]	-999	PAL1	0	R1250N
621.083	5.367	801626	PROB	5338.0	n/a	-999	-999	n/a	n/a	n/a	n/a	2	[6, 4, 5]	15	PAL1	0	R1250N
626.45	2.667	806993	PROB	2642.0	n/a	-999	-999	n/a	n/a	n/a	n/a	2	[9, 1, 1]	11	PAL1	0	R1250N
629.117	4.334	809660	PROB	4303.0	n/a	-999	-999	n/a	n/a	n/a	n/a	2	[6, 1, 9]	16	PAL1	0	R1250N
633.451	1.934	813994	PROB	1898.0	n/a	-999	-999	n/a	n/a	n/a	n/a	2	[2, 2, 2]	6	PAL1	0	R1250N
635.385	4.216	815928	PROB	4195.0	n/a	-999	-999	n/a	n/a	n/a	n/a	2	[7, 7, 1]	15	PAL1	0	R1250N
639.601	3.083	820144	PROB	3083.0	n/a	-999	-999	n/a	n/a	n/a	n/a	2	[5, 3, 4]	12	PAL1	0	R1250N
642.684	0.017	823227	STOP	n/a	n/a	-999	-999	n/a	n/a	n/a	n/a	2	[-999, -999, -999]	-999	PAL1	0	R1250N
642.701	0.0	823244	RECALL_START	n/a	n/a	-999	-999	n/a	n/a	n/a	n/a	2	[0, 0, 0]	-999	PAL1	0	R1250N
642.701	0.017	823244	MATH_END	n/a	n/a	-999	-999	n/a	n/a	n/a	n/a	2	[0, 0, 0]	-999	PAL1	0	R1250N
642.718	0.267	823261	TEST_ORIENT	n/a	n/a	3	1	PIT	n/a	BOWL	PIT	2	[0, 0, 0]	-999	PAL1	0	R1250N
642.985	0.75	823528	RETRIEVAL_ORIENT_OFF	n/a	n/a	-999	-999	n/a	n/a	n/a	n/a	2	[0, 0, 0]	-999	PAL1	0	R1250N
643.735	4.0	824278	TEST_PROBE	n/a	wordpools/wordpool_EN.txt	3	1	PIT	n/a	BOWL	PIT	2	[0, 0, 0]	-999	PAL1	0	R1250N
643.735	4.017	824278	REC_START	n/a	n/a	3	-999	n/a	n/a	n/a	n/a	2	[0, 0, 0]	-999	PAL1	0	R1250N
647.752	0.998	828295	PROBE_OFF	n/a	n/a	3	-999	n/a	n/a	n/a	n/a	2	[0, 0, 0]	-999	PAL1	0	R1250N
648.75	0.002	829293	REC_EVENT	5015.0	n/a	3	1	PIT	<>	BOWL	PIT	2	[0, 0, 0]	-999	PAL1	0	R1250N
648.752	0.016	829295	REC_END	n/a	n/a	3	-999	n/a	n/a	n/a	n/a	2	[0, 0, 0]	-999	PAL1	0	R1250N
648.768	0.251	829311	TEST_ORIENT	n/a	n/a	2	2	FENCE	n/a	SNOW	FENCE	2	[0, 0, 0]	-999	PAL1	0	R1250N
649.019	0.55	829562	RETRIEVAL_ORIENT_OFF	n/a	n/a	3	-999	n/a	n/a	n/a	n/a	2	[0, 0, 0]	-999	PAL1	0	R1250N
649.569	4.0	830112	TEST_PROBE	n/a	wordpools/wordpool_EN.txt	2	2	FENCE	n/a	SNOW	FENCE	2	[0, 0, 0]	-999	PAL1	0	R1250N
649.569	4.017	830112	REC_START	n/a	n/a	2	-999	n/a	n/a	n/a	n/a	2	[0, 0, 0]	-999	PAL1	0	R1250N
653.586	0.998	834129	PROBE_OFF	n/a	n/a	2	-999	n/a	n/a	n/a	n/a	2	[0, 0, 0]	-999	PAL1	0	R1250N
654.584	0.002	835127	REC_EVENT	5015.0	n/a	2	2	FENCE	<>	SNOW	FENCE	2	[0, 0, 0]	-999	PAL1	0	R1250N
654.586	0.016	835129	REC_END	n/a	n/a	2	-999	n/a	n/a	n/a	n/a	2	[0, 0, 0]	-999	PAL1	0	R1250N
654.602	0.268	835145	TEST_ORIENT	n/a	n/a	1	3	GATE	FOAM	GATE	FOAM	2	[0, 0, 0]	-999	PAL1	0	R1250N
654.87	0.534	835413	RETRIEVAL_ORIENT_OFF	n/a	n/a	2	-999	n/a	n/a	n/a	n/a	2	[0, 0, 0]	-999	PAL1	0	R1250N
655.404	4.0	835947	TEST_PROBE	n/a	wordpools/wordpool_EN.txt	1	3	GATE	FOAM	GATE	FOAM	2	[0, 0, 0]	-999	PAL1	0	R1250N
655.404	3.814	835947	REC_START	n/a	n/a	1	-999	n/a	FOAM	n/a	n/a	2	[0, 0, 0]	-999	PAL1	0	R1250N
659.218	0.203	839761	REC_EVENT	3814.0	n/a	1	3	GATE	FOAM	GATE	FOAM	2	[0, 0, 0]	-999	PAL1	0	R1250N
659.421	1.0	839964	PROBE_OFF	n/a	n/a	1	-999	n/a	n/a	n/a	n/a	2	[0, 0, 0]	-999	PAL1	0	R1250N
660.421	0.016	840964	REC_END	n/a	n/a	1	-999	n/a	n/a	n/a	n/a	2	[0, 0, 0]	-999	PAL1	0	R1250N
660.437	0.266	840980	TEST_ORIENT	n/a	n/a	6	4	TRASH	n/a	BRANCH	TRASH	2	[0, 0, 0]	-999	PAL1	0	R1250N
660.703	0.684	841246	RETRIEVAL_ORIENT_OFF	n/a	n/a	1	-999	n/a	n/a	n/a	n/a	2	[0, 0, 0]	-999	PAL1	0	R1250N
661.387	4.0	841930	TEST_PROBE	n/a	wordpools/wordpool_EN.txt	6	4	TRASH	n/a	BRANCH	TRASH	2	[0, 0, 0]	-999	PAL1	0	R1250N
661.388	4.017	841931	REC_START	n/a	n/a	6	-999	n/a	n/a	n/a	n/a	2	[0, 0, 0]	-999	PAL1	0	R1250N
665.405	0.998	845948	PROBE_OFF	n/a	n/a	6	-999	n/a	n/a	n/a	n/a	2	[0, 0, 0]	-999	PAL1	0	R1250N
666.403	0.002	846946	REC_EVENT	5015.0	n/a	6	4	TRASH	<>	BRANCH	TRASH	2	[0, 0, 0]	-999	PAL1	0	R1250N
666.405	0.016	846948	REC_END	n/a	n/a	6	-999	n/a	n/a	n/a	n/a	2	[0, 0, 0]	-999	PAL1	0	R1250N
666.421	0.266	846964	TEST_ORIENT	n/a	n/a	5	5	PIE	ANT	PANTS	PIE	2	[0, 0, 0]	-999	PAL1	0	R1250N
666.687	0.718	847230	RETRIEVAL_ORIENT_OFF	n/a	n/a	6	-999	n/a	n/a	n/a	n/a	2	[0, 0, 0]	-999	PAL1	0	R1250N
667.405	4.0	847948	TEST_PROBE	n/a	wordpools/wordpool_EN.txt	5	5	PIE	ANT	PANTS	PIE	2	[0, 0, 0]	-999	PAL1	0	R1250N
667.405	1.779	847948	REC_START	n/a	n/a	5	-999	n/a	ANT	n/a	n/a	2	[0, 0, 0]	-999	PAL1	0	R1250N
669.184	2.238	849727	REC_EVENT	1779.0	n/a	5	5	PIE	ANT	PANTS	PIE	2	[0, 0, 0]	-999	PAL1	0	R1250N
671.422	1.0	851965	PROBE_OFF	n/a	n/a	5	-999	n/a	n/a	n/a	n/a	2	[0, 0, 0]	-999	PAL1	0	R1250N
672.422	0.017	852965	REC_END	n/a	n/a	5	-999	n/a	n/a	n/a	n/a	2	[0, 0, 0]	-999	PAL1	0	R1250N
672.439	0.265	852982	TEST_ORIENT	n/a	n/a	4	6	BOAT	n/a	JUDGE	BOAT	2	[0, 0, 0]	-999	PAL1	0	R1250N
672.704	0.568	853247	RETRIEVAL_ORIENT_OFF	n/a	n/a	5	-999	n/a	n/a	n/a	n/a	2	[0, 0, 0]	-999	PAL1	0	R1250N
673.272	4.0	853815	TEST_PROBE	n/a	wordpools/wordpool_EN.txt	4	6	BOAT	n/a	JUDGE	BOAT	2	[0, 0, 0]	-999	PAL1	0	R1250N
673.273	4.016	853816	REC_START	n/a	n/a	4	-999	n/a	n/a	n/a	n/a	2	[0, 0, 0]	-999	PAL1	0	R1250N
677.289	0.999	857832	PROBE_OFF	n/a	n/a	4	-999	n/a	n/a	n/a	n/a	2	[0, 0, 0]	-999	PAL1	0	R1250N
678.288	0.001	858831	REC_EVENT	5015.0	n/a	4	6	BOAT	<>	JUDGE	BOAT	2	[0, 0, 0]	-999	PAL1	0	R1250N
678.289	0.01	858832	REC_END	n/a	n/a	4	-999	n/a	n/a	n/a	n/a	2	[0, 0, 0]	-999	PAL1	0	R1250N
678.299	9.575	858842	RECALL_END	n/a	n/a	-999	-999	n/a	n/a	n/a	n/a	2	[0, 0, 0]	-999	PAL1	0	R1250N
687.874	10.928	868418	TRIAL	n/a	n/a	-999	-999	n/a	n/a	n/a	n/a	3	[0, 0, 0]	-999	PAL1	0	R1250N
698.802	0.006	879346	ENCODING_START	n/a	n/a	-999	-999	n/a	n/a	n/a	n/a	3	[0, 0, 0]	-999	PAL1	0	R1250N
698.808	0.267	879352	STUDY_ORIENT	n/a	n/a	1	5	MUD	n/a	MUD	WING	3	[0, 0, 0]	-999	PAL1	0	R1250N
699.075	0.549	879619	STUDY_ORIENT_OFF	n/a	n/a	1	5	MUD	n/a	MUD	WING	3	[0, 0, 0]	-999	PAL1	0	R1250N
699.624	4.0	880168	STUDY_PAIR	n/a	wordpools/wordpool_EN.txt	1	5	MUD	n/a	MUD	WING	3	[0, 0, 0]	-999	PAL1	0	R1250N
703.641	1.017	884185	PAIR_OFF	n/a	n/a	1	5	MUD	n/a	MUD	WING	3	[0, 0, 0]	-999	PAL1	0	R1250N
704.658	0.267	885202	STUDY_ORIENT	n/a	n/a	2	6	BEE	n/a	PET	BEE	3	[0, 0, 0]	-999	PAL1	0	R1250N
704.925	0.617	885469	STUDY_ORIENT_OFF	n/a	n/a	2	6	BEE	n/a	PET	BEE	3	[0, 0, 0]	-999	PAL1	0	R1250N
705.542	4.0	886086	STUDY_PAIR	n/a	wordpools/wordpool_EN.txt	2	6	BEE	n/a	PET	BEE	3	[0, 0, 0]	-999	PAL1	0	R1250N
709.558	1.017	890102	PAIR_OFF	n/a	n/a	2	6	BEE	n/a	PET	BEE	3	[0, 0, 0]	-999	PAL1	0	R1250N
710.575	0.268	891119	STUDY_ORIENT	n/a	n/a	3	3	NAIL	FLEA	NAIL	FLEA	3	[0, 0, 0]	-999	PAL1	0	R1250N
710.843	0.65	891387	STUDY_ORIENT_OFF	n/a	n/a	3	3	NAIL	FLEA	NAIL	FLEA	3	[0, 0, 0]	-999	PAL1	0	R1250N
711.493	4.0	892037	STUDY_PAIR	n/a	wordpools/wordpool_EN.txt	3	3	NAIL	FLEA	NAIL	FLEA	3	[0, 0, 0]	-999	PAL1	0	R1250N
715.51	1.017	896054	PAIR_OFF	n/a	n/a	3	3	NAIL	FLEA	NAIL	FLEA	3	[0, 0, 0]	-999	PAL1	0	R1250N
716.527	0.266	897071	STUDY_ORIENT	n/a	n/a	4	4	MAZE	GUARD	MAZE	GUARD	3	[0, 0, 0]	-999	PAL1	0	R1250N
716.793	0.684	897337	STUDY_ORIENT_OFF	n/a	n/a	4	4	MAZE	GUARD	MAZE	GUARD	3	[0, 0, 0]	-999	PAL1	0	R1250N
717.477	4.0	898021	STUDY_PAIR	n/a	wordpools/wordpool_EN.txt	4	4	MAZE	GUARD	MAZE	GUARD	3	[0, 0, 0]	-999	PAL1	0	R1250N
721.494	1.017	902038	PAIR_OFF	n/a	n/a	4	4	MAZE	GUARD	MAZE	GUARD	3	[0, 0, 0]	-999	PAL1	0	R1250N
722.511	0.265	903055	STUDY_ORIENT	n/a	n/a	5	1	WHEEL	n/a	TOAST	WHEEL	3	[0, 0, 0]	-999	PAL1	0	R1250N
722.776	0.651	903320	STUDY_ORIENT_OFF	n/a	n/a	5	1	WHEEL	n/a	TOAST	WHEEL	3	[0, 0, 0]	-999	PAL1	0	R1250N
723.427	4.0	903971	STUDY_PAIR	n/a	wordpools/wordpool_EN.txt	5	1	WHEEL	n/a	TOAST	WHEEL	3	[0, 0, 0]	-999	PAL1	0	R1250N
727.445	1.016	907989	PAIR_OFF	n/a	n/a	5	1	WHEEL	n/a	TOAST	WHEEL	3	[0, 0, 0]	-999	PAL1	0	R1250N
728.461	0.266	909005	STUDY_ORIENT	n/a	n/a	6	2	BAT	PET	BAND	BAT	3	[0, 0, 0]	-999	PAL1	0	R1250N
728.727	0.734	909271	STUDY_ORIENT_OFF	n/a	n/a	6	2	BAT	PET	BAND	BAT	3	[0, 0, 0]	-999	PAL1	0	R1250N
729.461	4.0	910005	STUDY_PAIR	n/a	wordpools/wordpool_EN.txt	6	2	BAT	PET	BAND	BAT	3	[0, 0, 0]	-999	PAL1	0	R1250N
733.478	1.001	914022	PAIR_OFF	n/a	n/a	6	2	BAT	PET	BAND	BAT	3	[0, 0, 0]	-999	PAL1	0	R1250N
734.479	0.0	915023	ENCODING_END	n/a	n/a	-999	-999	n/a	n/a	n/a	n/a	3	[0, 0, 0]	-999	PAL1	0	R1250N
734.479	0.0	915023	MATH_START	n/a	n/a	-999	-999	n/a	n/a	n/a	n/a	3	[0, 0, 0]	-999	PAL1	0	R1250N
734.479	0.016	915023	START	n/a	n/a	-999	-999	n/a	n/a	n/a	n/a	3	[-999, -999, -999]	-999	PAL1	0	R1250N
734.495	4.984	915039	PROB	4959.0	n/a	-999	-999	n/a	n/a	n/a	n/a	3	[7, 4, 5]	16	PAL1	0	R1250N
739.479	3.384	920023	PROB	3351.0	n/a	-999	-999	n/a	n/a	n/a	n/a	3	[5, 2, 4]	11	PAL1	0	R1250N
742.863	4.034	923407	PROB	3999.0	n/a	-999	-999	n/a	n/a	n/a	n/a	3	[5, 4, 4]	13	PAL1	0	R1250N
746.897	7.956	927441	PROB	7956.0	n/a	-999	-999	n/a	n/a	n/a	n/a	3	[2, 2, 1]	5	PAL1	0	R1250N
754.853	0.011	935398	STOP	n/a	n/a	-999	-999	n/a	n/a	n/a	n/a	3	[-999, -999, -999]	-999	PAL1	0	R1250N
754.864	0.0	935409	RECALL_START	n/a	n/a	-999	-999	n/a	n/a	n/a	n/a	3	[0, 0, 0]	-999	PAL1	0	R1250N
754.864	0.017	935409	MATH_END	n/a	n/a	-999	-999	n/a	n/a	n/a	n/a	3	[0, 0, 0]	-999	PAL1	0	R1250N
754.881	0.266	935426	TEST_ORIENT	n/a	n/a	5	1	WHEEL	n/a	TOAST	WHEEL	3	[0, 0, 0]	-999	PAL1	0	R1250N
755.147	0.599	935692	RETRIEVAL_ORIENT_OFF	n/a	n/a	-999	-999	n/a	n/a	n/a	n/a	3	[0, 0, 0]	-999	PAL1	0	R1250N
755.746	4.0	936291	TEST_PROBE	n/a	wordpools/wordpool_EN.txt	5	1	WHEEL	n/a	TOAST	WHEEL	3	[0, 0, 0]	-999	PAL1	0	R1250N
755.747	4.017	936292	REC_START	n/a	n/a	5	-999	n/a	n/a	n/a	n/a	3	[0, 0, 0]	-999	PAL1	0	R1250N
759.764	0.998	940309	PROBE_OFF	n/a	n/a	5	-999	n/a	n/a	n/a	n/a	3	[0, 0, 0]	-999	PAL1	0	R1250N
760.762	0.002	941307	REC_EVENT	5015.0	n/a	5	1	WHEEL	<>	TOAST	WHEEL	3	[0, 0, 0]	-999	PAL1	0	R1250N
760.764	0.016	941309	REC_END	n/a	n/a	5	-999	n/a	n/a	n/a	n/a	3	[0, 0, 0]	-999	PAL1	0	R1250N
760.78	0.251	941325	TEST_ORIENT	n/a	n/a	6	2	BAT	PET	BAND	BAT	3	[0, 0, 0]	-999	PAL1	0	R1250N
761.031	0.533	941576	RETRIEVAL_ORIENT_OFF	n/a	n/a	5	-999	n/a	n/a	n/a	n/a	3	[0, 0, 0]	-999	PAL1	0	R1250N
761.564	4.0	942109	TEST_PROBE	n/a	wordpools/wordpool_EN.txt	6	2	BAT	PET	BAND	BAT	3	[0, 0, 0]	-999	PAL1	0	R1250N
761.564	4.017	942109	REC_START	n/a	n/a	6	-999	n/a	PET	n/a	n/a	3	[0, 0, 0]	-999	PAL1	0	R1250N
765.581	0.379	946126	PROBE_OFF	n/a	n/a	6	-999	n/a	n/a	n/a	n/a	3	[0, 0, 0]	-999	PAL1	0	R1250N
765.96	0.623	946505	REC_EVENT	4396.0	n/a	6	2	BAT	PET	BAND	BAT	3	[0, 0, 0]	-999	PAL1	0	R1250N
766.583	0.015	947128	REC_END	n/a	n/a	6	-999	n/a	n/a	n/a	n/a	3	[0, 0, 0]	-999	PAL1	0	R1250N
766.598	0.267	947143	TEST_ORIENT	n/a	n/a	3	3	NAIL	FLEA	NAIL	FLEA	3	[0, 0, 0]	-999	PAL1	0	R1250N
766.865	0.699	947410	RETRIEVAL_ORIENT_OFF	n/a	n/a	6	-999	n/a	n/a	n/a	n/a	3	[0, 0, 0]	-999	PAL1	0	R1250N
767.564	4.0	948109	TEST_PROBE	n/a	wordpools/wordpool_EN.txt	3	3	NAIL	FLEA	NAIL	FLEA	3	[0, 0, 0]	-999	PAL1	0	R1250N
767.565	1.339	948110	REC_START	n/a	n/a	3	-999	n/a	FLEA	n/a	n/a	3	[0, 0, 0]	-999	PAL1	0	R1250N
768.904	2.678	949449	REC_EVENT	1339.0	n/a	3	3	NAIL	FLEA	NAIL	FLEA	3	[0, 0, 0]	-999	PAL1	0	R1250N
771.582	1.0	952127	PROBE_OFF	n/a	n/a	3	-999	n/a	n/a	n/a	n/a	3	[0, 0, 0]	-999	PAL1	0	R1250N
772.582	0.016	953127	REC_END	n/a	n/a	3	-999	n/a	n/a	n/a	n/a	3	[0, 0, 0]	-999	PAL1	0	R1250N
772.598	0.268	953143	TEST_ORIENT	n/a	n/a	4	4	MAZE	GUARD	MAZE	GUARD	3	[0, 0, 0]	-999	PAL1	0	R1250N
772.866	0.55	953411	RETRIEVAL_ORIENT_OFF	n/a	n/a	3	-999	n/a	n/a	n/a	n/a	3	[0, 0, 0]	-999	PAL1	0	R1250N
773.416	4.0	953961	TEST_PROBE	n/a	wordpools/wordpool_EN.txt	4	4	MAZE	GUARD	MAZE	GUARD	3	[0, 0, 0]	-999	PAL1	0	R1250N
773.417	1.315	953962	REC_START	n/a	n/a	4	-999	n/a	GUARD	n/a	n/a	3	[0, 0, 0]	-999	PAL1	0	R1250N
774.732	2.701	955277	REC_EVENT	1315.0	n/a	4	4	MAZE	GUARD	MAZE	GUARD	3	[0, 0, 0]	-999	PAL1	0	R1250N
777.433	1.0	957978	PROBE_OFF	n/a	n/a	4	-999	n/a	n/a	n/a	n/a	3	[0, 0, 0]	-999	PAL1	0	R1250N
778.433	0.017	958978	REC_END	n/a	n/a	4	-999	n/a	n/a	n/a	n/a	3	[0, 0, 0]	-999	PAL1	0	R1250N
778.45	0.266	958995	TEST_ORIENT	n/a	n/a	1	5	MUD	n/a	MUD	WING	3	[0, 0, 0]	-999	PAL1	0	R1250N
778.716	0.634	959261	RETRIEVAL_ORIENT_OFF	n/a	n/a	4	-999	n/a	n/a	n/a	n/a	3	[0, 0, 0]	-999	PAL1	0	R1250N
779.35	4.0	959895	TEST_PROBE	n/a	wordpools/wordpool_EN.txt	1	5	MUD	n/a	MUD	WING	3	[0, 0, 0]	-999	PAL1	0	R1250N
779.351	4.016	959896	REC_START	n/a	n/a	1	-999	n/a	n/a	n/a	n/a	3	[0, 0, 0]	-999	PAL1	0	R1250N
783.367	1.0	963912	PROBE_OFF	n/a	n/a	1	-999	n/a	n/a	n/a	n/a	3	[0, 0, 0]	-999	PAL1	0	R1250N
784.367	0.005	964912	REC_END	n/a	n/a	1	-999	n/a	n/a	n/a	n/a	3	[0, 0, 0]	-999	PAL1	0	R1250N
784.372	0.012	964917	REC_EVENT	5021.0	n/a	1	5	MUD	<>	MUD	WING	3	[0, 0, 0]	-999	PAL1	0	R1250N
784.384	0.266	964929	TEST_ORIENT	n/a	n/a	2	6	BEE	n/a	PET	BEE	3	[0, 0, 0]	-999	PAL1	0	R1250N
784.65	0.684	965195	RETRIEVAL_ORIENT_OFF	n/a	n/a	1	-999	n/a	n/a	n/a	n/a	3	[0, 0, 0]	-999	PAL1	0	R1250N
785.334	4.0	965879	TEST_PROBE	n/a	wordpools/wordpool_EN.txt	2	6	BEE	n/a	PET	BEE	3	[0, 0, 0]	-999	PAL1	0	R1250N
785.334	4.017	965879	REC_START	n/a	n/a	2	-999	n/a	n/a	n/a	n/a	3	[0, 0, 0]	-999	PAL1	0	R1250N
789.351	0.998	969896	PROBE_OFF	n/a	n/a	2	-999	n/a	n/a	n/a	n/a	3	[0, 0, 0]	-999	PAL1	0	R1250N
790.349	0.002	970894	REC_EVENT	5015.0	n/a	2	6	BEE	<>	PET	BEE	3	[0, 0, 0]	-999	PAL1	0	R1250N
790.351	0.003	970896	REC_END	n/a	n/a	2	-999	n/a	n/a	n/a	n/a	3	[0, 0, 0]	-999	PAL1	0	R1250N
790.354	5.965	970899	RECALL_END	n/a	n/a	-999	-999	n/a	n/a	n/a	n/a	3	[0, 0, 0]	-999	PAL1	0	R1250N
796.319	10.929	976864	TRIAL	n/a	n/a	-999	-999	n/a	n/a	n/a	n/a	4	[0, 0, 0]	-999	PAL1	0	R1250N
807.248	0.005	987793	ENCODING_START	n/a	n/a	-999	-999	n/a	n/a	n/a	n/a	4	[0, 0, 0]	-999	PAL1	0	R1250N
807.253	0.267	987798	STUDY_ORIENT	n/a	n/a	1	1	BRICK	OAR	BRICK	OAR	4	[0, 0, 0]	-999	PAL1	0	R1250N
807.52	0.683	988065	STUDY_ORIENT_OFF	n/a	n/a	1	1	BRICK	OAR	BRICK	OAR	4	[0, 0, 0]	-999	PAL1	0	R1250N
808.203	4.0	988748	STUDY_PAIR	n/a	wordpools/wordpool_EN.txt	1	1	BRICK	OAR	BRICK	OAR	4	[0, 0, 0]	-999	PAL1	0	R1250N
812.22	1.017	992765	PAIR_OFF	n/a	n/a	1	1	BRICK	OAR	BRICK	OAR	4	[0, 0, 0]	-999	PAL1	0	R1250N
813.237	0.267	993783	STUDY_ORIENT	n/a	n/a	2	6	STICK	HOUSE	DOOR	STICK	4	[0, 0, 0]	-999	PAL1	0	R1250N
813.504	0.75	994050	STUDY_ORIENT_OFF	n/a	n/a	2	6	STICK	HOUSE	DOOR	STICK	4	[0, 0, 0]	-999	PAL1	0	R1250N
814.254	4.0	994800	STUDY_PAIR	n/a	wordpools/wordpool_EN.txt	2	6	STICK	HOUSE	DOOR	STICK	4	[0, 0, 0]	-999	PAL1	0	R1250N
818.271	1.017	998817	PAIR_OFF	n/a	n/a	2	6	STICK	HOUSE	DOOR	STICK	4	[0, 0, 0]	-999	PAL1	0	R1250N
819.288	0.265	999834	STUDY_ORIENT	n/a	n/a	3	5	INK	BED	INK	BED	4	[0, 0, 0]	-999	PAL1	0	R1250N
819.553	0.718	1000099	STUDY_ORIENT_OFF	n/a	n/a	3	5	INK	BED	INK	BED	4	[0, 0, 0]	-999	PAL1	0	R1250N
820.271	4.0	1000817	STUDY_PAIR	n/a	wordpools/wordpool_EN.txt	3	5	INK	BED	INK	BED	4	[0, 0, 0]	-999	PAL1	0	R1250N
824.288	1.017	1004834	PAIR_OFF	n/a	n/a	3	5	INK	BED	INK	BED	4	[0, 0, 0]	-999	PAL1	0	R1250N
825.305	0.266	1005851	STUDY_ORIENT	n/a	n/a	4	2	CAPE	n/a	PLANE	CAPE	4	[0, 0, 0]	-999	PAL1	0	R1250N
825.571	0.734	1006117	STUDY_ORIENT_OFF	n/a	n/a	4	2	CAPE	n/a	PLANE	CAPE	4	[0, 0, 0]	-999	PAL1	0	R1250N
826.305	4.0	1006851	STUDY_PAIR	n/a	wordpools/wordpool_EN.txt	4	2	CAPE	n/a	PLANE	CAPE	4	[0, 0, 0]	-999	PAL1	0	R1250N
830.322	1.017	1010868	PAIR_OFF	n/a	n/a	4	2	CAPE	n/a	PLANE	CAPE	4	[0, 0, 0]	-999	PAL1	0	R1250N
831.339	0.266	1011885	STUDY_ORIENT	n/a	n/a	5	3	THREAD	YARD	THREAD	YARD	4	[0, 0, 0]	-999	PAL1	0	R1250N
831.605	0.684	1012151	STUDY_ORIENT_OFF	n/a	n/a	5	3	THREAD	YARD	THREAD	YARD	4	[0, 0, 0]	-999	PAL1	0	R1250N
832.289	4.0	1012835	STUDY_PAIR	n/a	wordpools/wordpool_EN.txt	5	3	THREAD	YARD	THREAD	YARD	4	[0, 0, 0]	-999	PAL1	0	R1250N
836.306	1.017	1016852	PAIR_OFF	n/a	n/a	5	3	THREAD	YARD	THREAD	YARD	4	[0, 0, 0]	-999	PAL1	0	R1250N
837.323	0.266	1017869	STUDY_ORIENT	n/a	n/a	6	4	BOMB	ROAD	ROAD	BOMB	4	[0, 0, 0]	-999	PAL1	0	R1250N
837.589	0.751	1018135	STUDY_ORIENT_OFF	n/a	n/a	6	4	BOMB	ROAD	ROAD	BOMB	4	[0, 0, 0]	-999	PAL1	0	R1250N
838.34	4.0	1018886	STUDY_PAIR	n/a	wordpools/wordpool_EN.txt	6	4	BOMB	ROAD	ROAD	BOMB	4	[0, 0, 0]	-999	PAL1	0	R1250N
842.357	1.0	1022903	PAIR_OFF	n/a	n/a	6	4	BOMB	ROAD	ROAD	BOMB	4	[0, 0, 0]	-999	PAL1	0	R1250N
843.357	0.0	1023903	ENCODING_END	n/a	n/a	-999	-999	n/a	n/a	n/a	n/a	4	[0, 0, 0]	-999	PAL1	0	R1250N
843.357	0.0	1023903	MATH_START	n/a	n/a	-999	-999	n/a	n/a	n/a	n/a	4	[0, 0, 0]	-999	PAL1	0	R1250N
843.357	0.017	1023903	START	n/a	n/a	-999	-999	n/a	n/a	n/a	n/a	4	[-999, -999, -999]	-999	PAL1	0	R1250N
843.374	11.216	1023920	PROB	11192.0	n/a	-999	-999	n/a	n/a	n/a	n/a	4	[2, 3, 9]	14	PAL1	0	R1250N
854.59	4.485	1035136	PROB	4457.0	n/a	-999	-999	n/a	n/a	n/a	n/a	4	[5, 6, 3]	14	PAL1	0	R1250N
859.075	4.732	1039621	PROB	4732.0	n/a	-999	-999	n/a	n/a	n/a	n/a	4	[4, 7, 9]	20	PAL1	0	R1250N
863.807	0.019	1044353	STOP	n/a	n/a	-999	-999	n/a	n/a	n/a	n/a	4	[-999, -999, -999]	-999	PAL1	0	R1250N
863.826	0.0	1044372	MATH_END	n/a	n/a	-999	-999	n/a	n/a	n/a	n/a	4	[0, 0, 0]	-999	PAL1	0	R1250N
863.826	0.016	1044372	RECALL_START	n/a	n/a	-999	-999	n/a	n/a	n/a	n/a	4	[0, 0, 0]	-999	PAL1	0	R1250N
863.842	0.267	1044388	TEST_ORIENT	n/a	n/a	1	1	BRICK	OAR	BRICK	OAR	4	[0, 0, 0]	-999	PAL1	0	R1250N
864.109	0.649	1044655	RETRIEVAL_ORIENT_OFF	n/a	n/a	-999	-999	n/a	n/a	n/a	n/a	4	[0, 0, 0]	-999	PAL1	0	R1250N
864.758	4.0	1045304	TEST_PROBE	n/a	wordpools/wordpool_EN.txt	1	1	BRICK	OAR	BRICK	OAR	4	[0, 0, 0]	-999	PAL1	0	R1250N
864.759	1.181	1045305	REC_START	n/a	n/a	1	-999	n/a	OAR	n/a	n/a	4	[0, 0, 0]	-999	PAL1	0	R1250N
865.94	2.835	1046486	REC_EVENT	1181.0	n/a	1	1	BRICK	OAR	BRICK	OAR	4	[0, 0, 0]	-999	PAL1	0	R1250N
868.775	1.0	1049321	PROBE_OFF	n/a	n/a	1	-999	n/a	n/a	n/a	n/a	4	[0, 0, 0]	-999	PAL1	0	R1250N
869.775	0.018	1050321	REC_END	n/a	n/a	1	-999	n/a	n/a	n/a	n/a	4	[0, 0, 0]	-999	PAL1	0	R1250N
869.793	0.267	1050339	TEST_ORIENT	n/a	n/a	4	2	CAPE	n/a	PLANE	CAPE	4	[0, 0, 0]	-999	PAL1	0	R1250N
870.06	0.599	1050606	RETRIEVAL_ORIENT_OFF	n/a	n/a	1	-999	n/a	n/a	n/a	n/a	4	[0, 0, 0]	-999	PAL1	0	R1250N
870.659	4.0	1051205	TEST_PROBE	n/a	wordpools/wordpool_EN.txt	4	2	CAPE	n/a	PLANE	CAPE	4	[0, 0, 0]	-999	PAL1	0	R1250N
870.659	4.017	1051205	REC_START	n/a	n/a	4	-999	n/a	n/a	n/a	n/a	4	[0, 0, 0]	-999	PAL1	0	R1250N
874.676	0.998	1055222	PROBE_OFF	n/a	n/a	4	-999	n/a	n/a	n/a	n/a	4	[0, 0, 0]	-999	PAL1	0	R1250N
875.674	0.002	1056220	REC_EVENT	5015.0	n/a	4	2	CAPE	<>	PLANE	CAPE	4	[0, 0, 0]	-999	PAL1	0	R1250N
875.676	0.017	1056222	REC_END	n/a	n/a	4	-999	n/a	n/a	n/a	n/a	4	[0, 0, 0]	-999	PAL1	0	R1250N
875.693	0.267	1056239	TEST_ORIENT	n/a	n/a	5	3	THREAD	YARD	THREAD	YARD	4	[0, 0, 0]	-999	PAL1	0	R1250N
875.96	0.567	1056506	RETRIEVAL_ORIENT_OFF	n/a	n/a	4	-999	n/a	n/a	n/a	n/a	4	[0, 0, 0]	-999	PAL1	0	R1250N
876.527	4.0	1057073	TEST_PROBE	n/a	wordpools/wordpool_EN.txt	5	3	THREAD	YARD	THREAD	YARD	4	[0, 0, 0]	-999	PAL1	0	R1250N
876.528	1.102	1057074	REC_START	n/a	n/a	5	-999	n/a	YARD	n/a	n/a	4	[0, 0, 0]	-999	PAL1	0	R1250N
877.63	2.914	1058177	REC_EVENT	1102.0	n/a	5	3	THREAD	YARD	THREAD	YARD	4	[0, 0, 0]	-999	PAL1	0	R1250N
880.544	1.0	1061091	PROBE_OFF	n/a	n/a	5	-999	n/a	n/a	n/a	n/a	4	[0, 0, 0]	-999	PAL1	0	R1250N
881.544	0.016	1062091	REC_END	n/a	n/a	5	-999	n/a	n/a	n/a	n/a	4	[0, 0, 0]	-999	PAL1	0	R1250N
881.56	0.268	1062107	TEST_ORIENT	n/a	n/a	6	4	BOMB	ROAD	ROAD	BOMB	4	[0, 0, 0]	-999	PAL1	0	R1250N
881.828	0.65	1062375	RETRIEVAL_ORIENT_OFF	n/a	n/a	5	-999	n/a	n/a	n/a	n/a	4	[0, 0, 0]	-999	PAL1	0	R1250N
882.478	4.0	1063025	TEST_PROBE	n/a	wordpools/wordpool_EN.txt	6	4	BOMB	ROAD	ROAD	BOMB	4	[0, 0, 0]	-999	PAL1	0	R1250N
882.478	1.172	1063025	REC_START	n/a	n/a	6	-999	n/a	ROAD	n/a	n/a	4	[0, 0, 0]	-999	PAL1	0	R1250N
883.65	2.845	1064197	REC_EVENT	1172.0	n/a	6	4	BOMB	ROAD	ROAD	BOMB	4	[0, 0, 0]	-999	PAL1	0	R1250N
886.495	1.0	1067042	PROBE_OFF	n/a	n/a	6	-999	n/a	n/a	n/a	n/a	4	[0, 0, 0]	-999	PAL1	0	R1250N
887.495	0.017	1068042	REC_END	n/a	n/a	6	-999	n/a	n/a	n/a	n/a	4	[0, 0, 0]	-999	PAL1	0	R1250N
887.512	0.265	1068059	TEST_ORIENT	n/a	n/a	3	5	INK	BED	INK	BED	4	[0, 0, 0]	-999	PAL1	0	R1250N
887.777	0.535	1068324	RETRIEVAL_ORIENT_OFF	n/a	n/a	6	-999	n/a	n/a	n/a	n/a	4	[0, 0, 0]	-999	PAL1	0	R1250N
888.312	0.0	1068859	REC_START	n/a	n/a	3	-999	n/a	BED	n/a	n/a	4	[0, 0, 0]	-999	PAL1	0	R1250N
888.312	4.0	1068859	TEST_PROBE	n/a	wordpools/wordpool_EN.txt	3	5	INK	BED	INK	BED	4	[0, 0, 0]	-999	PAL1	0	R1250N
890.049	2.28	1070596	REC_EVENT	1737.0	n/a	3	5	INK	BED	INK	BED	4	[0, 0, 0]	-999	PAL1	0	R1250N
892.329	1.0	1072876	PROBE_OFF	n/a	n/a	3	-999	n/a	n/a	n/a	n/a	4	[0, 0, 0]	-999	PAL1	0	R1250N
893.329	0.017	1073876	REC_END	n/a	n/a	3	-999	n/a	n/a	n/a	n/a	4	[0, 0, 0]	-999	PAL1	0	R1250N
893.346	0.265	1073893	TEST_ORIENT	n/a	n/a	2	6	STICK	HOUSE	DOOR	STICK	4	[0, 0, 0]	-999	PAL1	0	R1250N
893.611	0.651	1074158	RETRIEVAL_ORIENT_OFF	n/a	n/a	3	-999	n/a	n/a	n/a	n/a	4	[0, 0, 0]	-999	PAL1	0	R1250N
894.262	4.0	1074809	TEST_PROBE	n/a	wordpools/wordpool_EN.txt	2	6	STICK	HOUSE	DOOR	STICK	4	[0, 0, 0]	-999	PAL1	0	R1250N
894.263	4.016	1074810	REC_START	n/a	n/a	2	-999	n/a	HOUSE	n/a	n/a	4	[0, 0, 0]	-999	PAL1	0	R1250N
898.279	0.518	1078826	PROBE_OFF	n/a	n/a	2	-999	n/a	n/a	n/a	n/a	4	[0, 0, 0]	-999	PAL1	0	R1250N
898.797	0.482	1079344	REC_EVENT	4534.0	n/a	2	6	STICK	HOUSE	DOOR	STICK	4	[0, 0, 0]	-999	PAL1	0	R1250N
899.279	0.011	1079826	REC_END	n/a	n/a	2	-999	n/a	n/a	n/a	n/a	4	[0, 0, 0]	-999	PAL1	0	R1250N
899.29	7.674	1079837	RECALL_END	n/a	n/a	-999	-999	n/a	n/a	n/a	n/a	4	[0, 0, 0]	-999	PAL1	0	R1250N
906.964	10.928	1087511	TRIAL	n/a	n/a	-999	-999	n/a	n/a	n/a	n/a	5	[0, 0, 0]	-999	PAL1	0	R1250N
917.892	0.006	1098439	ENCODING_START	n/a	n/a	-999	-999	n/a	n/a	n/a	n/a	5	[0, 0, 0]	-999	PAL1	0	R1250N
917.898	0.267	1098445	STUDY_ORIENT	n/a	n/a	1	1	CLOWN	MULE	MULE	CLOWN	5	[0, 0, 0]	-999	PAL1	0	R1250N
918.165	0.7	1098712	STUDY_ORIENT_OFF	n/a	n/a	1	1	CLOWN	MULE	MULE	CLOWN	5	[0, 0, 0]	-999	PAL1	0	R1250N
918.865	4.0	1099412	STUDY_PAIR	n/a	wordpools/wordpool_EN.txt	1	1	CLOWN	MULE	MULE	CLOWN	5	[0, 0, 0]	-999	PAL1	0	R1250N
922.882	1.017	1103429	PAIR_OFF	n/a	n/a	1	1	CLOWN	MULE	MULE	CLOWN	5	[0, 0, 0]	-999	PAL1	0	R1250N
923.899	0.267	1104446	STUDY_ORIENT	n/a	n/a	2	6	CROWN	n/a	PHONE	CROWN	5	[0, 0, 0]	-999	PAL1	0	R1250N
924.166	0.582	1104713	STUDY_ORIENT_OFF	n/a	n/a	2	6	CROWN	n/a	PHONE	CROWN	5	[0, 0, 0]	-999	PAL1	0	R1250N
924.748	4.0	1105295	STUDY_PAIR	n/a	wordpools/wordpool_EN.txt	2	6	CROWN	n/a	PHONE	CROWN	5	[0, 0, 0]	-999	PAL1	0	R1250N
928.765	1.017	1109312	PAIR_OFF	n/a	n/a	2	6	CROWN	n/a	PHONE	CROWN	5	[0, 0, 0]	-999	PAL1	0	R1250N
929.782	0.267	1110329	STUDY_ORIENT	n/a	n/a	3	3	SHIP	PRINCE	SHIP	WHALE	5	[0, 0, 0]	-999	PAL1	0	R1250N
930.049	0.75	1110596	STUDY_ORIENT_OFF	n/a	n/a	3	3	SHIP	PRINCE	SHIP	WHALE	5	[0, 0, 0]	-999	PAL1	0	R1250N
930.799	4.0	1111346	STUDY_PAIR	n/a	wordpools/wordpool_EN.txt	3	3	SHIP	PRINCE	SHIP	WHALE	5	[0, 0, 0]	-999	PAL1	0	R1250N
934.817	1.017	1115364	PAIR_OFF	n/a	n/a	3	3	SHIP	PRINCE	SHIP	WHALE	5	[0, 0, 0]	-999	PAL1	0	R1250N
935.834	0.266	1116381	STUDY_ORIENT	n/a	n/a	4	4	TOOTH	BOOK	BOOK	TOOTH	5	[0, 0, 0]	-999	PAL1	0	R1250N
936.1	0.549	1116647	STUDY_ORIENT_OFF	n/a	n/a	4	4	TOOTH	BOOK	BOOK	TOOTH	5	[0, 0, 0]	-999	PAL1	0	R1250N
936.649	4.0	1117196	STUDY_PAIR	n/a	wordpools/wordpool_EN.txt	4	4	TOOTH	BOOK	BOOK	TOOTH	5	[0, 0, 0]	-999	PAL1	0	R1250N
940.666	1.017	1121213	PAIR_OFF	n/a	n/a	4	4	TOOTH	BOOK	BOOK	TOOTH	5	[0, 0, 0]	-999	PAL1	0	R1250N
941.683	0.268	1122231	STUDY_ORIENT	n/a	n/a	5	5	FLUTE	THREAD	FLUTE	MOUTH	5	[0, 0, 0]	-999	PAL1	0	R1250N
941.951	0.615	1122499	STUDY_ORIENT_OFF	n/a	n/a	5	5	FLUTE	THREAD	FLUTE	MOUTH	5	[0, 0, 0]	-999	PAL1	0	R1250N
942.566	4.0	1123114	STUDY_PAIR	n/a	wordpools/wordpool_EN.txt	5	5	FLUTE	THREAD	FLUTE	MOUTH	5	[0, 0, 0]	-999	PAL1	0	R1250N
946.584	1.016	1127132	PAIR_OFF	n/a	n/a	5	5	FLUTE	THREAD	FLUTE	MOUTH	5	[0, 0, 0]	-999	PAL1	0	R1250N
947.6	0.251	1128148	STUDY_ORIENT	n/a	n/a	6	2	DESK	FLUTE	DESK	HOOF	5	[0, 0, 0]	-999	PAL1	0	R1250N
947.851	0.667	1128399	STUDY_ORIENT_OFF	n/a	n/a	6	2	DESK	FLUTE	DESK	HOOF	5	[0, 0, 0]	-999	PAL1	0	R1250N
948.518	4.0	1129066	STUDY_PAIR	n/a	wordpools/wordpool_EN.txt	6	2	DESK	FLUTE	DESK	HOOF	5	[0, 0, 0]	-999	PAL1	0	R1250N
952.535	1.0	1133083	PAIR_OFF	n/a	n/a	6	2	DESK	FLUTE	DESK	HOOF	5	[0, 0, 0]	-999	PAL1	0	R1250N
953.535	0.0	1134083	ENCODING_END	n/a	n/a	-999	-999	n/a	n/a	n/a	n/a	5	[0, 0, 0]	-999	PAL1	0	R1250N
953.535	0.0	1134083	MATH_START	n/a	n/a	-999	-999	n/a	n/a	n/a	n/a	5	[0, 0, 0]	-999	PAL1	0	R1250N
953.535	0.016	1134083	START	n/a	n/a	-999	-999	n/a	n/a	n/a	n/a	5	[-999, -999, -999]	-999	PAL1	0	R1250N
953.551	5.167	1134099	PROB	5145.0	n/a	-999	-999	n/a	n/a	n/a	n/a	5	[3, 5, 7]	15	PAL1	0	R1250N
958.718	3.552	1139266	PROB	3515.0	n/a	-999	-999	n/a	n/a	n/a	n/a	5	[9, 5, 4]	18	PAL1	0	R1250N
962.27	3.933	1142818	PROB	3898.0	n/a	-999	-999	n/a	n/a	n/a	n/a	5	[7, 2, 4]	13	PAL1	0	R1250N
966.203	2.917	1146751	PROB	2893.0	n/a	-999	-999	n/a	n/a	n/a	n/a	5	[2, 4, 5]	11	PAL1	0	R1250N
969.12	2.117	1149668	PROB	2088.0	n/a	-999	-999	n/a	n/a	n/a	n/a	5	[5, 1, 8]	14	PAL1	0	R1250N
971.237	2.117	1151785	PROB	2084.0	n/a	-999	-999	n/a	n/a	n/a	n/a	5	[2, 5, 4]	11	PAL1	0	R1250N
973.354	2.726	1153902	PROB	2726.0	n/a	-999	-999	n/a	n/a	n/a	n/a	5	[8, 6, 7]	21	PAL1	0	R1250N
976.08	0.008	1156628	STOP	n/a	n/a	-999	-999	n/a	n/a	n/a	n/a	5	[-999, -999, -999]	-999	PAL1	0	R1250N
976.088	0.0	1156636	MATH_END	n/a	n/a	-999	-999	n/a	n/a	n/a	n/a	5	[0, 0, 0]	-999	PAL1	0	R1250N
976.088	0.016	1156636	RECALL_START	n/a	n/a	-999	-999	n/a	n/a	n/a	n/a	5	[0, 0, 0]	-999	PAL1	0	R1250N
976.104	0.267	1156652	TEST_ORIENT	n/a	n/a	1	1	CLOWN	MULE	MULE	CLOWN	5	[0, 0, 0]	-999	PAL1	0	R1250N
976.371	0.617	1156919	RETRIEVAL_ORIENT_OFF	n/a	n/a	-999	-999	n/a	n/a	n/a	n/a	5	[0, 0, 0]	-999	PAL1	0	R1250N
976.988	0.0	1157536	REC_START	n/a	n/a	1	-999	n/a	MULE	n/a	n/a	5	[0, 0, 0]	-999	PAL1	0	R1250N
976.988	4.0	1157536	TEST_PROBE	n/a	wordpools/wordpool_EN.txt	1	1	CLOWN	MULE	MULE	CLOWN	5	[0, 0, 0]	-999	PAL1	0	R1250N
979.474	1.531	1160022	REC_EVENT	2486.0	n/a	1	1	CLOWN	MULE	MULE	CLOWN	5	[0, 0, 0]	-999	PAL1	0	R1250N
981.005	1.0	1161553	PROBE_OFF	n/a	n/a	1	-999	n/a	n/a	n/a	n/a	5	[0, 0, 0]	-999	PAL1	0	R1250N
982.005	0.017	1162553	REC_END	n/a	n/a	1	-999	n/a	n/a	n/a	n/a	5	[0, 0, 0]	-999	PAL1	0	R1250N
982.022	0.266	1162570	TEST_ORIENT	n/a	n/a	6	2	DESK	FLUTE	DESK	HOOF	5	[0, 0, 0]	-999	PAL1	0	R1250N
982.288	0.551	1162836	RETRIEVAL_ORIENT_OFF	n/a	n/a	1	-999	n/a	n/a	n/a	n/a	5	[0, 0, 0]	-999	PAL1	0	R1250N
982.839	4.0	1163387	TEST_PROBE	n/a	wordpools/wordpool_EN.txt	6	2	DESK	FLUTE	DESK	HOOF	5	[0, 0, 0]	-999	PAL1	0	R1250N
982.839	4.017	1163387	REC_START	n/a	n/a	6	-999	n/a	FLUTE	n/a	n/a	5	[0, 0, 0]	-999	PAL1	0	R1250N
986.856	0.061	1167404	PROBE_OFF	n/a	n/a	6	-999	n/a	n/a	n/a	n/a	5	[0, 0, 0]	-999	PAL1	0	R1250N
986.917	0.939	1167465	REC_EVENT	4078.0	n/a	6	2	DESK	FLUTE	DESK	HOOF	5	[0, 0, 0]	-999	PAL1	0	R1250N
987.856	0.016	1168404	REC_END	n/a	n/a	6	-999	n/a	n/a	n/a	n/a	5	[0, 0, 0]	-999	PAL1	0	R1250N
987.872	0.267	1168420	TEST_ORIENT	n/a	n/a	3	3	SHIP	PRINCE	SHIP	WHALE	5	[0, 0, 0]	-999	PAL1	0	R1250N
988.139	0.649	1168687	RETRIEVAL_ORIENT_OFF	n/a	n/a	6	-999	n/a	n/a	n/a	n/a	5	[0, 0, 0]	-999	PAL1	0	R1250N
988.788	4.0	1169336	TEST_PROBE	n/a	wordpools/wordpool_EN.txt	3	3	SHIP	PRINCE	SHIP	WHALE	5	[0, 0, 0]	-999	PAL1	0	R1250N
988.789	2.774	1169337	REC_START	n/a	n/a	3	-999	n/a	PRINCE	n/a	n/a	5	[0, 0, 0]	-999	PAL1	0	R1250N
991.563	1.243	1172111	REC_EVENT	2774.0	n/a	3	3	SHIP	PRINCE	SHIP	WHALE	5	[0, 0, 0]	-999	PAL1	0	R1250N
992.806	1.0	1173354	PROBE_OFF	n/a	n/a	3	-999	n/a	n/a	n/a	n/a	5	[0, 0, 0]	-999	PAL1	0	R1250N
993.806	0.017	1174354	REC_END	n/a	n/a	3	-999	n/a	n/a	n/a	n/a	5	[0, 0, 0]	-999	PAL1	0	R1250N
993.823	0.267	1174371	TEST_ORIENT	n/a	n/a	4	4	TOOTH	BOOK	BOOK	TOOTH	5	[0, 0, 0]	-999	PAL1	0	R1250N
994.09	0.582	1174638	RETRIEVAL_ORIENT_OFF	n/a	n/a	3	-999	n/a	n/a	n/a	n/a	5	[0, 0, 0]	-999	PAL1	0	R1250N
994.672	4.0	1175220	TEST_PROBE	n/a	wordpools/wordpool_EN.txt	4	4	TOOTH	BOOK	BOOK	TOOTH	5	[0, 0, 0]	-999	PAL1	0	R1250N
994.673	1.175	1175221	REC_START	n/a	n/a	4	-999	n/a	BOOK	n/a	n/a	5	[0, 0, 0]	-999	PAL1	0	R1250N
995.848	2.841	1176396	REC_EVENT	1175.0	n/a	4	4	TOOTH	BOOK	BOOK	TOOTH	5	[0, 0, 0]	-999	PAL1	0	R1250N
998.689	1.0	1179237	PROBE_OFF	n/a	n/a	4	-999	n/a	n/a	n/a	n/a	5	[0, 0, 0]	-999	PAL1	0	R1250N
999.689	0.017	1180237	REC_END	n/a	n/a	4	-999	n/a	n/a	n/a	n/a	5	[0, 0, 0]	-999	PAL1	0	R1250N
999.706	0.251	1180254	TEST_ORIENT	n/a	n/a	5	5	FLUTE	THREAD	FLUTE	MOUTH	5	[0, 0, 0]	-999	PAL1	0	R1250N
999.957	0.699	1180505	RETRIEVAL_ORIENT_OFF	n/a	n/a	4	-999	n/a	n/a	n/a	n/a	5	[0, 0, 0]	-999	PAL1	0	R1250N
1000.656	4.0	1181204	TEST_PROBE	n/a	wordpools/wordpool_EN.txt	5	5	FLUTE	THREAD	FLUTE	MOUTH	5	[0, 0, 0]	-999	PAL1	0	R1250N
1000.656	4.017	1181204	REC_START	n/a	n/a	5	-999	n/a	THREAD	n/a	n/a	5	[0, 0, 0]	-999	PAL1	0	R1250N
1004.673	0.238	1185221	PROBE_OFF	n/a	n/a	5	-999	n/a	n/a	n/a	n/a	5	[0, 0, 0]	-999	PAL1	0	R1250N
1004.911	0.762	1185459	REC_EVENT	4255.0	n/a	5	5	FLUTE	THREAD	FLUTE	MOUTH	5	[0, 0, 0]	-999	PAL1	0	R1250N
1005.673	0.017	1186221	REC_END	n/a	n/a	5	-999	n/a	n/a	n/a	n/a	5	[0, 0, 0]	-999	PAL1	0	R1250N
1005.69	0.268	1186238	TEST_ORIENT	n/a	n/a	2	6	CROWN	n/a	PHONE	CROWN	5	[0, 0, 0]	-999	PAL1	0	R1250N
1005.958	0.55	1186507	RETRIEVAL_ORIENT_OFF	n/a	n/a	5	-999	n/a	n/a	n/a	n/a	5	[0, 0, 0]	-999	PAL1	0	R1250N
1006.508	4.0	1187057	TEST_PROBE	n/a	wordpools/wordpool_EN.txt	2	6	CROWN	n/a	PHONE	CROWN	5	[0, 0, 0]	-999	PAL1	0	R1250N
1006.508	4.017	1187057	REC_START	n/a	n/a	2	-999	n/a	n/a	n/a	n/a	5	[0, 0, 0]	-999	PAL1	0	R1250N
1010.525	0.998	1191074	PROBE_OFF	n/a	n/a	2	-999	n/a	n/a	n/a	n/a	5	[0, 0, 0]	-999	PAL1	0	R1250N
1011.523	0.002	1192072	REC_EVENT	5015.0	n/a	2	6	CROWN	<>	PHONE	CROWN	5	[0, 0, 0]	-999	PAL1	0	R1250N
1011.525	0.01	1192074	REC_END	n/a	n/a	2	-999	n/a	n/a	n/a	n/a	5	[0, 0, 0]	-999	PAL1	0	R1250N
1011.535	11.023	1192084	RECALL_END	n/a	n/a	-999	-999	n/a	n/a	n/a	n/a	5	[0, 0, 0]	-999	PAL1	0	R1250N
1022.558	10.928	1203107	TRIAL	n/a	n/a	-999	-999	n/a	n/a	n/a	n/a	6	[0, 0, 0]	-999	PAL1	0	R1250N
1033.486	0.008	1214035	ENCODING_START	n/a	n/a	-999	-999	n/a	n/a	n/a	n/a	6	[0, 0, 0]	-999	PAL1	0	R1250N
1033.494	0.266	1214043	STUDY_ORIENT	n/a	n/a	1	3	HORSE	n/a	HORSE	CLOTH	6	[0, 0, 0]	-999	PAL1	0	R1250N
1033.76	0.55	1214309	STUDY_ORIENT_OFF	n/a	n/a	1	3	HORSE	n/a	HORSE	CLOTH	6	[0, 0, 0]	-999	PAL1	0	R1250N
1034.31	4.0	1214859	STUDY_PAIR	n/a	wordpools/wordpool_EN.txt	1	3	HORSE	n/a	HORSE	CLOTH	6	[0, 0, 0]	-999	PAL1	0	R1250N
1038.328	1.017	1218877	PAIR_OFF	n/a	n/a	1	3	HORSE	n/a	HORSE	CLOTH	6	[0, 0, 0]	-999	PAL1	0	R1250N
1039.345	0.265	1219894	STUDY_ORIENT	n/a	n/a	2	6	LOCK	n/a	LOCK	SOAP	6	[0, 0, 0]	-999	PAL1	0	R1250N
1039.61	0.651	1220159	STUDY_ORIENT_OFF	n/a	n/a	2	6	LOCK	n/a	LOCK	SOAP	6	[0, 0, 0]	-999	PAL1	0	R1250N
1040.261	4.0	1220810	STUDY_PAIR	n/a	wordpools/wordpool_EN.txt	2	6	LOCK	n/a	LOCK	SOAP	6	[0, 0, 0]	-999	PAL1	0	R1250N
1044.278	1.017	1224827	PAIR_OFF	n/a	n/a	2	6	LOCK	n/a	LOCK	SOAP	6	[0, 0, 0]	-999	PAL1	0	R1250N
1045.295	0.266	1225844	STUDY_ORIENT	n/a	n/a	3	5	ANT	STREET	STREET	ANT	6	[0, 0, 0]	-999	PAL1	0	R1250N
1045.561	0.601	1226110	STUDY_ORIENT_OFF	n/a	n/a	3	5	ANT	STREET	STREET	ANT	6	[0, 0, 0]	-999	PAL1	0	R1250N
1046.162	4.0	1226711	STUDY_PAIR	n/a	wordpools/wordpool_EN.txt	3	5	ANT	STREET	STREET	ANT	6	[0, 0, 0]	-999	PAL1	0	R1250N
1050.179	1.017	1230728	PAIR_OFF	n/a	n/a	3	5	ANT	STREET	STREET	ANT	6	[0, 0, 0]	-999	PAL1	0	R1250N
1051.196	0.266	1231745	STUDY_ORIENT	n/a	n/a	4	2	HOOK	n/a	SUIT	HOOK	6	[0, 0, 0]	-999	PAL1	0	R1250N
1051.462	0.717	1232011	STUDY_ORIENT_OFF	n/a	n/a	4	2	HOOK	n/a	SUIT	HOOK	6	[0, 0, 0]	-999	PAL1	0	R1250N
1052.179	4.0	1232728	STUDY_PAIR	n/a	wordpools/wordpool_EN.txt	4	2	HOOK	n/a	SUIT	HOOK	6	[0, 0, 0]	-999	PAL1	0	R1250N
1056.196	1.017	1236745	PAIR_OFF	n/a	n/a	4	2	HOOK	n/a	SUIT	HOOK	6	[0, 0, 0]	-999	PAL1	0	R1250N
1057.213	0.267	1237762	STUDY_ORIENT	n/a	n/a	5	1	HEART	FROG	HEART	FOG	6	[0, 0, 0]	-999	PAL1	0	R1250N
1057.48	0.617	1238029	STUDY_ORIENT_OFF	n/a	n/a	5	1	HEART	FROG	HEART	FOG	6	[0, 0, 0]	-999	PAL1	0	R1250N
1058.097	4.0	1238646	STUDY_PAIR	n/a	wordpools/wordpool_EN.txt	5	1	HEART	FROG	HEART	FOG	6	[0, 0, 0]	-999	PAL1	0	R1250N
1062.114	1.016	1242663	PAIR_OFF	n/a	n/a	5	1	HEART	FROG	HEART	FOG	6	[0, 0, 0]	-999	PAL1	0	R1250N
1063.13	0.267	1243679	STUDY_ORIENT	n/a	n/a	6	4	FLAME	n/a	FLAME	SKI	6	[0, 0, 0]	-999	PAL1	0	R1250N
1063.397	0.583	1243946	STUDY_ORIENT_OFF	n/a	n/a	6	4	FLAME	n/a	FLAME	SKI	6	[0, 0, 0]	-999	PAL1	0	R1250N
1063.98	4.0	1244529	STUDY_PAIR	n/a	wordpools/wordpool_EN.txt	6	4	FLAME	n/a	FLAME	SKI	6	[0, 0, 0]	-999	PAL1	0	R1250N
1067.998	1.001	1248547	PAIR_OFF	n/a	n/a	6	4	FLAME	n/a	FLAME	SKI	6	[0, 0, 0]	-999	PAL1	0	R1250N
1068.999	0.0	1249548	ENCODING_END	n/a	n/a	-999	-999	n/a	n/a	n/a	n/a	6	[0, 0, 0]	-999	PAL1	0	R1250N
1068.999	0.0	1249548	MATH_START	n/a	n/a	-999	-999	n/a	n/a	n/a	n/a	6	[0, 0, 0]	-999	PAL1	0	R1250N
1068.999	0.015	1249548	START	n/a	n/a	-999	-999	n/a	n/a	n/a	n/a	6	[-999, -999, -999]	-999	PAL1	0	R1250N
1069.014	8.051	1249563	PROB	8028.0	n/a	-999	-999	n/a	n/a	n/a	n/a	6	[4, 9, 8]	21	PAL1	0	R1250N
1077.065	4.151	1257615	PROB	4129.0	n/a	-999	-999	n/a	n/a	n/a	n/a	6	[2, 6, 2]	10	PAL1	0	R1250N
1081.216	4.317	1261766	PROB	4290.0	n/a	-999	-999	n/a	n/a	n/a	n/a	6	[9, 9, 3]	21	PAL1	0	R1250N
1085.533	4.501	1266083	PROB	4501.0	n/a	-999	-999	n/a	n/a	n/a	n/a	6	[8, 2, 8]	18	PAL1	0	R1250N
1090.034	0.016	1270584	STOP	n/a	n/a	-999	-999	n/a	n/a	n/a	n/a	6	[-999, -999, -999]	-999	PAL1	0	R1250N
1090.05	0.0	1270600	MATH_END	n/a	n/a	-999	-999	n/a	n/a	n/a	n/a	6	[0, 0, 0]	-999	PAL1	0	R1250N
1090.05	0.017	1270600	RECALL_START	n/a	n/a	-999	-999	n/a	n/a	n/a	n/a	6	[0, 0, 0]	-999	PAL1	0	R1250N
1090.067	0.266	1270617	TEST_ORIENT	n/a	n/a	5	1	HEART	FROG	HEART	FOG	6	[0, 0, 0]	-999	PAL1	0	R1250N
1090.333	0.734	1270883	RETRIEVAL_ORIENT_OFF	n/a	n/a	-999	-999	n/a	n/a	n/a	n/a	6	[0, 0, 0]	-999	PAL1	0	R1250N
1091.067	4.0	1271617	TEST_PROBE	n/a	wordpools/wordpool_EN.txt	5	1	HEART	FROG	HEART	FOG	6	[0, 0, 0]	-999	PAL1	0	R1250N
1091.067	1.237	1271617	REC_START	n/a	n/a	5	-999	n/a	FROG	n/a	n/a	6	[0, 0, 0]	-999	PAL1	0	R1250N
1092.304	2.78	1272854	REC_EVENT	1237.0	n/a	5	1	HEART	FROG	HEART	FOG	6	[0, 0, 0]	-999	PAL1	0	R1250N
1095.084	1.0	1275634	PROBE_OFF	n/a	n/a	5	-999	n/a	n/a	n/a	n/a	6	[0, 0, 0]	-999	PAL1	0	R1250N
1096.084	0.017	1276634	REC_END	n/a	n/a	5	-999	n/a	n/a	n/a	n/a	6	[0, 0, 0]	-999	PAL1	0	R1250N
1096.101	0.266	1276651	TEST_ORIENT	n/a	n/a	4	2	HOOK	n/a	SUIT	HOOK	6	[0, 0, 0]	-999	PAL1	0	R1250N
1096.367	0.634	1276917	RETRIEVAL_ORIENT_OFF	n/a	n/a	5	-999	n/a	n/a	n/a	n/a	6	[0, 0, 0]	-999	PAL1	0	R1250N
1097.001	4.0	1277551	TEST_PROBE	n/a	wordpools/wordpool_EN.txt	4	2	HOOK	n/a	SUIT	HOOK	6	[0, 0, 0]	-999	PAL1	0	R1250N
1097.001	4.017	1277551	REC_START	n/a	n/a	4	-999	n/a	n/a	n/a	n/a	6	[0, 0, 0]	-999	PAL1	0	R1250N
1101.018	0.998	1281568	PROBE_OFF	n/a	n/a	4	-999	n/a	n/a	n/a	n/a	6	[0, 0, 0]	-999	PAL1	0	R1250N
1102.016	0.002	1282566	REC_EVENT	5015.0	n/a	4	2	HOOK	<>	SUIT	HOOK	6	[0, 0, 0]	-999	PAL1	0	R1250N
1102.018	0.017	1282568	REC_END	n/a	n/a	4	-999	n/a	n/a	n/a	n/a	6	[0, 0, 0]	-999	PAL1	0	R1250N
1102.035	0.266	1282585	TEST_ORIENT	n/a	n/a	1	3	HORSE	n/a	HORSE	CLOTH	6	[0, 0, 0]	-999	PAL1	0	R1250N
1102.301	0.717	1282851	RETRIEVAL_ORIENT_OFF	n/a	n/a	4	-999	n/a	n/a	n/a	n/a	6	[0, 0, 0]	-999	PAL1	0	R1250N
1103.018	4.0	1283568	TEST_PROBE	n/a	wordpools/wordpool_EN.txt	1	3	HORSE	n/a	HORSE	CLOTH	6	[0, 0, 0]	-999	PAL1	0	R1250N
1103.019	4.016	1283569	REC_START	n/a	n/a	1	-999	n/a	n/a	n/a	n/a	6	[0, 0, 0]	-999	PAL1	0	R1250N
1107.035	0.999	1287585	PROBE_OFF	n/a	n/a	1	-999	n/a	n/a	n/a	n/a	6	[0, 0, 0]	-999	PAL1	0	R1250N
1108.034	0.001	1288584	REC_EVENT	5015.0	n/a	1	3	HORSE	<>	HORSE	CLOTH	6	[0, 0, 0]	-999	PAL1	0	R1250N
1108.035	0.017	1288585	REC_END	n/a	n/a	1	-999	n/a	n/a	n/a	n/a	6	[0, 0, 0]	-999	PAL1	0	R1250N
1108.052	0.266	1288602	TEST_ORIENT	n/a	n/a	6	4	FLAME	n/a	FLAME	SKI	6	[0, 0, 0]	-999	PAL1	0	R1250N
1108.318	0.584	1288868	RETRIEVAL_ORIENT_OFF	n/a	n/a	1	-999	n/a	n/a	n/a	n/a	6	[0, 0, 0]	-999	PAL1	0	R1250N
1108.902	4.0	1289452	TEST_PROBE	n/a	wordpools/wordpool_EN.txt	6	4	FLAME	n/a	FLAME	SKI	6	[0, 0, 0]	-999	PAL1	0	R1250N
1108.903	4.016	1289453	REC_START	n/a	n/a	6	-999	n/a	n/a	n/a	n/a	6	[0, 0, 0]	-999	PAL1	0	R1250N
1112.919	0.999	1293469	PROBE_OFF	n/a	n/a	6	-999	n/a	n/a	n/a	n/a	6	[0, 0, 0]	-999	PAL1	0	R1250N
1113.918	0.001	1294468	REC_EVENT	5015.0	n/a	6	4	FLAME	<>	FLAME	SKI	6	[0, 0, 0]	-999	PAL1	0	R1250N
1113.919	0.017	1294469	REC_END	n/a	n/a	6	-999	n/a	n/a	n/a	n/a	6	[0, 0, 0]	-999	PAL1	0	R1250N
1113.936	0.266	1294486	TEST_ORIENT	n/a	n/a	3	5	ANT	STREET	STREET	ANT	6	[0, 0, 0]	-999	PAL1	0	R1250N
1114.202	0.701	1294752	RETRIEVAL_ORIENT_OFF	n/a	n/a	6	-999	n/a	n/a	n/a	n/a	6	[0, 0, 0]	-999	PAL1	0	R1250N
1114.903	4.0	1295453	TEST_PROBE	n/a	wordpools/wordpool_EN.txt	3	5	ANT	STREET	STREET	ANT	6	[0, 0, 0]	-999	PAL1	0	R1250N
1114.903	1.024	1295453	REC_START	n/a	n/a	3	-999	n/a	STREET	n/a	n/a	6	[0, 0, 0]	-999	PAL1	0	R1250N
1115.927	2.993	1296477	REC_EVENT	1024.0	n/a	3	5	ANT	STREET	STREET	ANT	6	[0, 0, 0]	-999	PAL1	0	R1250N
1118.92	1.0	1299470	PROBE_OFF	n/a	n/a	3	-999	n/a	n/a	n/a	n/a	6	[0, 0, 0]	-999	PAL1	0	R1250N
1119.92	0.016	1300470	REC_END	n/a	n/a	3	-999	n/a	n/a	n/a	n/a	6	[0, 0, 0]	-999	PAL1	0	R1250N
1119.936	0.267	1300486	TEST_ORIENT	n/a	n/a	2	6	LOCK	n/a	LOCK	SOAP	6	[0, 0, 0]	-999	PAL1	0	R1250N
1120.203	0.667	1300753	RETRIEVAL_ORIENT_OFF	n/a	n/a	3	-999	n/a	n/a	n/a	n/a	6	[0, 0, 0]	-999	PAL1	0	R1250N
1120.87	4.0	1301420	TEST_PROBE	n/a	wordpools/wordpool_EN.txt	2	6	LOCK	n/a	LOCK	SOAP	6	[0, 0, 0]	-999	PAL1	0	R1250N
1120.87	4.017	1301420	REC_START	n/a	n/a	2	-999	n/a	n/a	n/a	n/a	6	[0, 0, 0]	-999	PAL1	0	R1250N
1124.887	0.998	1305437	PROBE_OFF	n/a	n/a	2	-999	n/a	n/a	n/a	n/a	6	[0, 0, 0]	-999	PAL1	0	R1250N
1125.885	0.002	1306435	REC_EVENT	5015.0	n/a	2	6	LOCK	<>	LOCK	SOAP	6	[0, 0, 0]	-999	PAL1	0	R1250N
1125.887	0.01	1306437	REC_END	n/a	n/a	2	-999	n/a	n/a	n/a	n/a	6	[0, 0, 0]	-999	PAL1	0	R1250N
1125.897	5.656	1306447	RECALL_END	n/a	n/a	-999	-999	n/a	n/a	n/a	n/a	6	[0, 0, 0]	-999	PAL1	0	R1250N
1131.553	10.928	1312103	TRIAL	n/a	n/a	-999	-999	n/a	n/a	n/a	n/a	7	[0, 0, 0]	-999	PAL1	0	R1250N
1142.481	0.008	1323032	ENCODING_START	n/a	n/a	-999	-999	n/a	n/a	n/a	n/a	7	[0, 0, 0]	-999	PAL1	0	R1250N
1142.489	0.266	1323040	STUDY_ORIENT	n/a	n/a	1	1	FISH	SLIME	SLIME	FISH	7	[0, 0, 0]	-999	PAL1	0	R1250N
1142.755	0.551	1323306	STUDY_ORIENT_OFF	n/a	n/a	1	1	FISH	SLIME	SLIME	FISH	7	[0, 0, 0]	-999	PAL1	0	R1250N
1143.306	4.0	1323857	STUDY_PAIR	n/a	wordpools/wordpool_EN.txt	1	1	FISH	SLIME	SLIME	FISH	7	[0, 0, 0]	-999	PAL1	0	R1250N
1147.323	1.017	1327874	PAIR_OFF	n/a	n/a	1	1	FISH	SLIME	SLIME	FISH	7	[0, 0, 0]	-999	PAL1	0	R1250N
1148.34	0.265	1328891	STUDY_ORIENT	n/a	n/a	2	6	JUICE	RAIN	JUICE	RAIN	7	[0, 0, 0]	-999	PAL1	0	R1250N
1148.605	0.535	1329156	STUDY_ORIENT_OFF	n/a	n/a	2	6	JUICE	RAIN	JUICE	RAIN	7	[0, 0, 0]	-999	PAL1	0	R1250N
1149.14	4.0	1329691	STUDY_PAIR	n/a	wordpools/wordpool_EN.txt	2	6	JUICE	RAIN	JUICE	RAIN	7	[0, 0, 0]	-999	PAL1	0	R1250N
1153.157	1.016	1333708	PAIR_OFF	n/a	n/a	2	6	JUICE	RAIN	JUICE	RAIN	7	[0, 0, 0]	-999	PAL1	0	R1250N
1154.173	0.267	1334724	STUDY_ORIENT	n/a	n/a	3	5	EAR	CAT	EAR	CAT	7	[0, 0, 0]	-999	PAL1	0	R1250N
1154.44	0.6	1334991	STUDY_ORIENT_OFF	n/a	n/a	3	5	EAR	CAT	EAR	CAT	7	[0, 0, 0]	-999	PAL1	0	R1250N
1155.04	4.0	1335591	STUDY_PAIR	n/a	wordpools/wordpool_EN.txt	3	5	EAR	CAT	EAR	CAT	7	[0, 0, 0]	-999	PAL1	0	R1250N
1159.057	1.017	1339608	PAIR_OFF	n/a	n/a	3	5	EAR	CAT	EAR	CAT	7	[0, 0, 0]	-999	PAL1	0	R1250N
1160.074	0.267	1340625	STUDY_ORIENT	n/a	n/a	4	4	STOOL	PIN	STOOL	PIN	7	[0, 0, 0]	-999	PAL1	0	R1250N
1160.341	0.7	1340892	STUDY_ORIENT_OFF	n/a	n/a	4	4	STOOL	PIN	STOOL	PIN	7	[0, 0, 0]	-999	PAL1	0	R1250N
1161.041	4.0	1341592	STUDY_PAIR	n/a	wordpools/wordpool_EN.txt	4	4	STOOL	PIN	STOOL	PIN	7	[0, 0, 0]	-999	PAL1	0	R1250N
1165.058	1.017	1345609	PAIR_OFF	n/a	n/a	4	4	STOOL	PIN	STOOL	PIN	7	[0, 0, 0]	-999	PAL1	0	R1250N
1166.075	0.266	1346626	STUDY_ORIENT	n/a	n/a	5	3	TRAIN	STOOL	TRAIN	STOVE	7	[0, 0, 0]	-999	PAL1	0	R1250N
1166.341	0.651	1346892	STUDY_ORIENT_OFF	n/a	n/a	5	3	TRAIN	STOOL	TRAIN	STOVE	7	[0, 0, 0]	-999	PAL1	0	R1250N
1166.992	4.0	1347543	STUDY_PAIR	n/a	wordpools/wordpool_EN.txt	5	3	TRAIN	STOOL	TRAIN	STOVE	7	[0, 0, 0]	-999	PAL1	0	R1250N
1171.009	1.016	1351560	PAIR_OFF	n/a	n/a	5	3	TRAIN	STOOL	TRAIN	STOVE	7	[0, 0, 0]	-999	PAL1	0	R1250N
1172.025	0.267	1352576	STUDY_ORIENT	n/a	n/a	6	2	CUBE	CHAIR	CUBE	CHAIR	7	[0, 0, 0]	-999	PAL1	0	R1250N
1172.292	0.533	1352843	STUDY_ORIENT_OFF	n/a	n/a	6	2	CUBE	CHAIR	CUBE	CHAIR	7	[0, 0, 0]	-999	PAL1	0	R1250N
1172.825	4.0	1353376	STUDY_PAIR	n/a	wordpools/wordpool_EN.txt	6	2	CUBE	CHAIR	CUBE	CHAIR	7	[0, 0, 0]	-999	PAL1	0	R1250N
1176.843	1.0	1357394	PAIR_OFF	n/a	n/a	6	2	CUBE	CHAIR	CUBE	CHAIR	7	[0, 0, 0]	-999	PAL1	0	R1250N
1177.843	0.0	1358394	ENCODING_END	n/a	n/a	-999	-999	n/a	n/a	n/a	n/a	7	[0, 0, 0]	-999	PAL1	0	R1250N
1177.843	0.001	1358394	MATH_START	n/a	n/a	-999	-999	n/a	n/a	n/a	n/a	7	[0, 0, 0]	-999	PAL1	0	R1250N
1177.844	0.015	1358395	START	n/a	n/a	-999	-999	n/a	n/a	n/a	n/a	7	[-999, -999, -999]	-999	PAL1	0	R1250N
1177.859	6.101	1358410	PROB	6064.0	n/a	-999	-999	n/a	n/a	n/a	n/a	7	[4, 3, 9]	16	PAL1	0	R1250N
1183.96	3.85	1364511	PROB	3827.0	n/a	-999	-999	n/a	n/a	n/a	n/a	7	[5, 1, 4]	10	PAL1	0	R1250N
1187.81	4.017	1368361	PROB	3993.0	n/a	-999	-999	n/a	n/a	n/a	n/a	7	[8, 8, 1]	17	PAL1	0	R1250N
1191.827	5.668	1372378	PROB	5631.0	n/a	-999	-999	n/a	n/a	n/a	n/a	7	[1, 7, 9]	17	PAL1	0	R1250N
1197.495	4.7	1378046	PROB	4700.0	n/a	-999	-999	n/a	n/a	n/a	n/a	7	[9, 1, 7]	17	PAL1	0	R1250N
1202.195	0.017	1382747	STOP	n/a	n/a	-999	-999	n/a	n/a	n/a	n/a	7	[-999, -999, -999]	-999	PAL1	0	R1250N
1202.212	0.0	1382764	MATH_END	n/a	n/a	-999	-999	n/a	n/a	n/a	n/a	7	[0, 0, 0]	-999	PAL1	0	R1250N
1202.212	0.017	1382764	RECALL_START	n/a	n/a	-999	-999	n/a	n/a	n/a	n/a	7	[0, 0, 0]	-999	PAL1	0	R1250N
1202.229	0.266	1382781	TEST_ORIENT	n/a	n/a	1	1	FISH	SLIME	SLIME	FISH	7	[0, 0, 0]	-999	PAL1	0	R1250N
1202.495	0.7	1383047	RETRIEVAL_ORIENT_OFF	n/a	n/a	-999	-999	n/a	n/a	n/a	n/a	7	[0, 0, 0]	-999	PAL1	0	R1250N
1203.195	4.0	1383747	TEST_PROBE	n/a	wordpools/wordpool_EN.txt	1	1	FISH	SLIME	SLIME	FISH	7	[0, 0, 0]	-999	PAL1	0	R1250N
1203.196	1.513	1383748	REC_START	n/a	n/a	1	-999	n/a	SLIME	n/a	n/a	7	[0, 0, 0]	-999	PAL1	0	R1250N
1204.709	2.503	1385261	REC_EVENT	1513.0	n/a	1	1	FISH	SLIME	SLIME	FISH	7	[0, 0, 0]	-999	PAL1	0	R1250N
1207.212	1.0	1387764	PROBE_OFF	n/a	n/a	1	-999	n/a	n/a	n/a	n/a	7	[0, 0, 0]	-999	PAL1	0	R1250N
1208.212	0.017	1388764	REC_END	n/a	n/a	1	-999	n/a	n/a	n/a	n/a	7	[0, 0, 0]	-999	PAL1	0	R1250N
1208.229	0.267	1388781	TEST_ORIENT	n/a	n/a	6	2	CUBE	CHAIR	CUBE	CHAIR	7	[0, 0, 0]	-999	PAL1	0	R1250N
1208.496	0.533	1389048	RETRIEVAL_ORIENT_OFF	n/a	n/a	1	-999	n/a	n/a	n/a	n/a	7	[0, 0, 0]	-999	PAL1	0	R1250N
1209.029	4.0	1389581	TEST_PROBE	n/a	wordpools/wordpool_EN.txt	6	2	CUBE	CHAIR	CUBE	CHAIR	7	[0, 0, 0]	-999	PAL1	0	R1250N
1209.03	1.244	1389582	REC_START	n/a	n/a	6	-999	n/a	CHAIR	n/a	n/a	7	[0, 0, 0]	-999	PAL1	0	R1250N
1210.274	2.772	1390826	REC_EVENT	1244.0	n/a	6	2	CUBE	CHAIR	CUBE	CHAIR	7	[0, 0, 0]	-999	PAL1	0	R1250N
1213.046	1.0	1393598	PROBE_OFF	n/a	n/a	6	-999	n/a	n/a	n/a	n/a	7	[0, 0, 0]	-999	PAL1	0	R1250N
1214.046	0.017	1394598	REC_END	n/a	n/a	6	-999	n/a	n/a	n/a	n/a	7	[0, 0, 0]	-999	PAL1	0	R1250N
1214.063	0.267	1394615	TEST_ORIENT	n/a	n/a	5	3	TRAIN	STOOL	TRAIN	STOVE	7	[0, 0, 0]	-999	PAL1	0	R1250N
1214.33	0.633	1394882	RETRIEVAL_ORIENT_OFF	n/a	n/a	6	-999	n/a	n/a	n/a	n/a	7	[0, 0, 0]	-999	PAL1	0	R1250N
1214.963	4.0	1395515	TEST_PROBE	n/a	wordpools/wordpool_EN.txt	5	3	TRAIN	STOOL	TRAIN	STOVE	7	[0, 0, 0]	-999	PAL1	0	R1250N
1214.964	3.751	1395516	REC_START	n/a	n/a	5	-999	n/a	STOOL	n/a	n/a	7	[0, 0, 0]	-999	PAL1	0	R1250N
1218.715	0.265	1399267	REC_EVENT	3751.0	n/a	5	3	TRAIN	STOOL	TRAIN	STOVE	7	[0, 0, 0]	-999	PAL1	0	R1250N
1218.98	1.0	1399532	PROBE_OFF	n/a	n/a	5	-999	n/a	n/a	n/a	n/a	7	[0, 0, 0]	-999	PAL1	0	R1250N
1219.98	0.017	1400532	REC_END	n/a	n/a	5	-999	n/a	n/a	n/a	n/a	7	[0, 0, 0]	-999	PAL1	0	R1250N
1219.997	0.267	1400549	TEST_ORIENT	n/a	n/a	4	4	STOOL	PIN	STOOL	PIN	7	[0, 0, 0]	-999	PAL1	0	R1250N
1220.264	0.75	1400816	RETRIEVAL_ORIENT_OFF	n/a	n/a	5	-999	n/a	n/a	n/a	n/a	7	[0, 0, 0]	-999	PAL1	0	R1250N
1221.014	4.0	1401566	TEST_PROBE	n/a	wordpools/wordpool_EN.txt	4	4	STOOL	PIN	STOOL	PIN	7	[0, 0, 0]	-999	PAL1	0	R1250N
1221.014	2.368	1401566	REC_START	n/a	n/a	4	-999	n/a	PIN	n/a	n/a	7	[0, 0, 0]	-999	PAL1	0	R1250N
1223.382	1.649	1403934	REC_EVENT	2368.0	n/a	4	4	STOOL	PIN	STOOL	PIN	7	[0, 0, 0]	-999	PAL1	0	R1250N
1225.031	1.0	1405583	PROBE_OFF	n/a	n/a	4	-999	n/a	n/a	n/a	n/a	7	[0, 0, 0]	-999	PAL1	0	R1250N
1226.031	0.017	1406583	REC_END	n/a	n/a	4	-999	n/a	n/a	n/a	n/a	7	[0, 0, 0]	-999	PAL1	0	R1250N
1226.048	0.266	1406600	TEST_ORIENT	n/a	n/a	3	5	EAR	CAT	EAR	CAT	7	[0, 0, 0]	-999	PAL1	0	R1250N
1226.314	0.684	1406866	RETRIEVAL_ORIENT_OFF	n/a	n/a	4	-999	n/a	n/a	n/a	n/a	7	[0, 0, 0]	-999	PAL1	0	R1250N
1226.998	4.0	1407550	TEST_PROBE	n/a	wordpools/wordpool_EN.txt	3	5	EAR	CAT	EAR	CAT	7	[0, 0, 0]	-999	PAL1	0	R1250N
1226.998	2.455	1407550	REC_START	n/a	n/a	3	-999	n/a	CAT	n/a	n/a	7	[0, 0, 0]	-999	PAL1	0	R1250N
1229.453	1.562	1410005	REC_EVENT	2455.0	n/a	3	5	EAR	RAIN	EAR	CAT	7	[0, 0, 0]	-999	PAL1	0	R1250N
1231.015	0.109	1411567	PROBE_OFF	n/a	n/a	3	-999	n/a	n/a	n/a	n/a	7	[0, 0, 0]	-999	PAL1	0	R1250N
1231.124	0.892	1411676	REC_EVENT	4126.0	n/a	3	5	EAR	CAT	EAR	CAT	7	[0, 0, 0]	-999	PAL1	0	R1250N
1232.016	0.016	1412568	REC_END	n/a	n/a	3	-999	n/a	n/a	n/a	n/a	7	[0, 0, 0]	-999	PAL1	0	R1250N
1232.032	0.266	1412584	TEST_ORIENT	n/a	n/a	2	6	JUICE	RAIN	JUICE	RAIN	7	[0, 0, 0]	-999	PAL1	0	R1250N
1232.298	0.634	1412850	RETRIEVAL_ORIENT_OFF	n/a	n/a	3	-999	n/a	n/a	n/a	n/a	7	[0, 0, 0]	-999	PAL1	0	R1250N
1232.932	4.0	1413484	TEST_PROBE	n/a	wordpools/wordpool_EN.txt	2	6	JUICE	RAIN	JUICE	RAIN	7	[0, 0, 0]	-999	PAL1	0	R1250N
1232.932	1.75	1413484	REC_START	n/a	n/a	2	-999	n/a	RAIN	n/a	n/a	7	[0, 0, 0]	-999	PAL1	0	R1250N
1234.682	2.267	1415234	REC_EVENT	1750.0	n/a	2	6	JUICE	RAIN	JUICE	RAIN	7	[0, 0, 0]	-999	PAL1	0	R1250N
1236.949	1.0	1417501	PROBE_OFF	n/a	n/a	2	-999	n/a	n/a	n/a	n/a	7	[0, 0, 0]	-999	PAL1	0	R1250N
1237.949	0.009	1418501	REC_END	n/a	n/a	2	-999	n/a	n/a	n/a	n/a	7	[0, 0, 0]	-999	PAL1	0	R1250N
1237.958	5.308	1418510	RECALL_END	n/a	n/a	-999	-999	n/a	n/a	n/a	n/a	7	[0, 0, 0]	-999	PAL1	0	R1250N
1243.266	10.929	1423818	TRIAL	n/a	n/a	-999	-999	n/a	n/a	n/a	n/a	8	[0, 0, 0]	-999	PAL1	0	R1250N
1254.195	0.006	1434747	ENCODING_START	n/a	n/a	-999	-999	n/a	n/a	n/a	n/a	8	[0, 0, 0]	-999	PAL1	0	R1250N
1254.201	0.267	1434753	STUDY_ORIENT	n/a	n/a	1	1	COIN	SCHOOL	COIN	SCHOOL	8	[0, 0, 0]	-999	PAL1	0	R1250N
1254.468	0.65	1435020	STUDY_ORIENT_OFF	n/a	n/a	1	1	COIN	SCHOOL	COIN	SCHOOL	8	[0, 0, 0]	-999	PAL1	0	R1250N
1255.118	4.0	1435670	STUDY_PAIR	n/a	wordpools/wordpool_EN.txt	1	1	COIN	SCHOOL	COIN	SCHOOL	8	[0, 0, 0]	-999	PAL1	0	R1250N
1259.135	1.016	1439687	PAIR_OFF	n/a	n/a	1	1	COIN	SCHOOL	COIN	SCHOOL	8	[0, 0, 0]	-999	PAL1	0	R1250N
1260.151	0.267	1440703	STUDY_ORIENT	n/a	n/a	2	2	HAWK	HAWK	HAWK	FORK	8	[0, 0, 0]	-999	PAL1	0	R1250N
1260.418	0.584	1440970	STUDY_ORIENT_OFF	n/a	n/a	2	2	HAWK	HAWK	HAWK	FORK	8	[0, 0, 0]	-999	PAL1	0	R1250N
1261.002	4.0	1441554	STUDY_PAIR	n/a	wordpools/wordpool_EN.txt	2	2	HAWK	HAWK	HAWK	FORK	8	[0, 0, 0]	-999	PAL1	0	R1250N
1265.019	1.016	1445572	PAIR_OFF	n/a	n/a	2	2	HAWK	HAWK	HAWK	FORK	8	[0, 0, 0]	-999	PAL1	0	R1250N
1266.035	0.267	1446588	STUDY_ORIENT	n/a	n/a	3	5	WORM	n/a	WORM	CANE	8	[0, 0, 0]	-999	PAL1	0	R1250N
1266.302	0.667	1446855	STUDY_ORIENT_OFF	n/a	n/a	3	5	WORM	n/a	WORM	CANE	8	[0, 0, 0]	-999	PAL1	0	R1250N
1266.969	4.0	1447522	STUDY_PAIR	n/a	wordpools/wordpool_EN.txt	3	5	WORM	n/a	WORM	CANE	8	[0, 0, 0]	-999	PAL1	0	R1250N
1270.986	1.017	1451539	PAIR_OFF	n/a	n/a	3	5	WORM	n/a	WORM	CANE	8	[0, 0, 0]	-999	PAL1	0	R1250N
1272.003	0.266	1452556	STUDY_ORIENT	n/a	n/a	4	6	DITCH	n/a	DITCH	BLUSH	8	[0, 0, 0]	-999	PAL1	0	R1250N
1272.269	0.717	1452822	STUDY_ORIENT_OFF	n/a	n/a	4	6	DITCH	n/a	DITCH	BLUSH	8	[0, 0, 0]	-999	PAL1	0	R1250N
1272.986	4.0	1453539	STUDY_PAIR	n/a	wordpools/wordpool_EN.txt	4	6	DITCH	n/a	DITCH	BLUSH	8	[0, 0, 0]	-999	PAL1	0	R1250N
1277.003	1.017	1457556	PAIR_OFF	n/a	n/a	4	6	DITCH	n/a	DITCH	BLUSH	8	[0, 0, 0]	-999	PAL1	0	R1250N
1278.02	0.267	1458573	STUDY_ORIENT	n/a	n/a	5	3	PRINCE	n/a	PRINCE	BALL	8	[0, 0, 0]	-999	PAL1	0	R1250N
1278.287	0.683	1458840	STUDY_ORIENT_OFF	n/a	n/a	5	3	PRINCE	n/a	PRINCE	BALL	8	[0, 0, 0]	-999	PAL1	0	R1250N
1278.97	4.0	1459523	STUDY_PAIR	n/a	wordpools/wordpool_EN.txt	5	3	PRINCE	n/a	PRINCE	BALL	8	[0, 0, 0]	-999	PAL1	0	R1250N
1282.987	1.017	1463540	PAIR_OFF	n/a	n/a	5	3	PRINCE	n/a	PRINCE	BALL	8	[0, 0, 0]	-999	PAL1	0	R1250N
1284.004	0.267	1464557	STUDY_ORIENT	n/a	n/a	6	4	WOOD	CAR	CAR	WOOD	8	[0, 0, 0]	-999	PAL1	0	R1250N
1284.271	0.6	1464824	STUDY_ORIENT_OFF	n/a	n/a	6	4	WOOD	CAR	CAR	WOOD	8	[0, 0, 0]	-999	PAL1	0	R1250N
1284.871	4.0	1465424	STUDY_PAIR	n/a	wordpools/wordpool_EN.txt	6	4	WOOD	CAR	CAR	WOOD	8	[0, 0, 0]	-999	PAL1	0	R1250N
1288.888	1.0	1469441	PAIR_OFF	n/a	n/a	6	4	WOOD	CAR	CAR	WOOD	8	[0, 0, 0]	-999	PAL1	0	R1250N
1289.888	0.0	1470441	ENCODING_END	n/a	n/a	-999	-999	n/a	n/a	n/a	n/a	8	[0, 0, 0]	-999	PAL1	0	R1250N
1289.888	0.0	1470441	MATH_START	n/a	n/a	-999	-999	n/a	n/a	n/a	n/a	8	[0, 0, 0]	-999	PAL1	0	R1250N
1289.888	0.017	1470441	START	n/a	n/a	-999	-999	n/a	n/a	n/a	n/a	8	[-999, -999, -999]	-999	PAL1	0	R1250N
1289.905	4.832	1470458	PROB	4810.0	n/a	-999	-999	n/a	n/a	n/a	n/a	8	[7, 2, 7]	16	PAL1	0	R1250N
1294.737	3.802	1475290	PROB	3772.0	n/a	-999	-999	n/a	n/a	n/a	n/a	8	[9, 7, 7]	23	PAL1	0	R1250N
1298.539	3.767	1479092	PROB	3737.0	n/a	-999	-999	n/a	n/a	n/a	n/a	8	[9, 2, 3]	14	PAL1	0	R1250N
1302.306	3.55	1482859	PROB	3522.0	n/a	-999	-999	n/a	n/a	n/a	n/a	8	[1, 7, 3]	11	PAL1	0	R1250N
1305.856	5.22	1486409	PROB	5220.0	n/a	-999	-999	n/a	n/a	n/a	n/a	8	[3, 1, 4]	8	PAL1	0	R1250N
1311.076	0.014	1491629	STOP	n/a	n/a	-999	-999	n/a	n/a	n/a	n/a	8	[-999, -999, -999]	-999	PAL1	0	R1250N
1311.09	0.0	1491643	MATH_END	n/a	n/a	-999	-999	n/a	n/a	n/a	n/a	8	[0, 0, 0]	-999	PAL1	0	R1250N
1311.09	0.017	1491643	RECALL_START	n/a	n/a	-999	-999	n/a	n/a	n/a	n/a	8	[0, 0, 0]	-999	PAL1	0	R1250N
1311.107	0.267	1491660	TEST_ORIENT	n/a	n/a	1	1	COIN	SCHOOL	COIN	SCHOOL	8	[0, 0, 0]	-999	PAL1	0	R1250N
1311.374	0.533	1491927	RETRIEVAL_ORIENT_OFF	n/a	n/a	-999	-999	n/a	n/a	n/a	n/a	8	[0, 0, 0]	-999	PAL1	0	R1250N
1311.907	4.0	1492460	TEST_PROBE	n/a	wordpools/wordpool_EN.txt	1	1	COIN	SCHOOL	COIN	SCHOOL	8	[0, 0, 0]	-999	PAL1	0	R1250N
1311.907	3.393	1492460	REC_START	n/a	n/a	1	-999	n/a	SCHOOL	n/a	n/a	8	[0, 0, 0]	-999	PAL1	0	R1250N
1315.3	0.624	1495853	REC_EVENT	3393.0	n/a	1	1	COIN	SCHOOL	COIN	SCHOOL	8	[0, 0, 0]	-999	PAL1	0	R1250N
1315.924	1.0	1496477	PROBE_OFF	n/a	n/a	1	-999	n/a	n/a	n/a	n/a	8	[0, 0, 0]	-999	PAL1	0	R1250N
1316.924	0.017	1497477	REC_END	n/a	n/a	1	-999	n/a	n/a	n/a	n/a	8	[0, 0, 0]	-999	PAL1	0	R1250N
1316.941	0.267	1497494	TEST_ORIENT	n/a	n/a	2	2	HAWK	HAWK	HAWK	FORK	8	[0, 0, 0]	-999	PAL1	0	R1250N
1317.208	0.565	1497761	RETRIEVAL_ORIENT_OFF	n/a	n/a	1	-999	n/a	n/a	n/a	n/a	8	[0, 0, 0]	-999	PAL1	0	R1250N
1317.773	4.0	1498326	TEST_PROBE	n/a	wordpools/wordpool_EN.txt	2	2	HAWK	HAWK	HAWK	FORK	8	[0, 0, 0]	-999	PAL1	0	R1250N
1317.774	1.371	1498327	REC_START	n/a	n/a	2	-999	n/a	HAWK	n/a	n/a	8	[0, 0, 0]	-999	PAL1	0	R1250N
1319.145	2.645	1499698	REC_EVENT	1371.0	n/a	2	2	HAWK	HAWK	HAWK	FORK	8	[0, 0, 0]	-999	PAL1	0	R1250N
1321.79	1.0	1502343	PROBE_OFF	n/a	n/a	2	-999	n/a	n/a	n/a	n/a	8	[0, 0, 0]	-999	PAL1	0	R1250N
1322.79	0.018	1503343	REC_END	n/a	n/a	2	-999	n/a	n/a	n/a	n/a	8	[0, 0, 0]	-999	PAL1	0	R1250N
1322.808	0.267	1503361	TEST_ORIENT	n/a	n/a	5	3	PRINCE	n/a	PRINCE	BALL	8	[0, 0, 0]	-999	PAL1	0	R1250N
1323.075	0.532	1503628	RETRIEVAL_ORIENT_OFF	n/a	n/a	2	-999	n/a	n/a	n/a	n/a	8	[0, 0, 0]	-999	PAL1	0	R1250N
1323.607	4.0	1504160	TEST_PROBE	n/a	wordpools/wordpool_EN.txt	5	3	PRINCE	n/a	PRINCE	BALL	8	[0, 0, 0]	-999	PAL1	0	R1250N
1323.607	4.017	1504160	REC_START	n/a	n/a	5	-999	n/a	n/a	n/a	n/a	8	[0, 0, 0]	-999	PAL1	0	R1250N
1327.624	0.998	1508178	PROBE_OFF	n/a	n/a	5	-999	n/a	n/a	n/a	n/a	8	[0, 0, 0]	-999	PAL1	0	R1250N
1328.622	0.002	1509176	REC_EVENT	5015.0	n/a	5	3	PRINCE	<>	PRINCE	BALL	8	[0, 0, 0]	-999	PAL1	0	R1250N
1328.624	0.017	1509178	REC_END	n/a	n/a	5	-999	n/a	n/a	n/a	n/a	8	[0, 0, 0]	-999	PAL1	0	R1250N
1328.641	0.251	1509195	TEST_ORIENT	n/a	n/a	6	4	WOOD	CAR	CAR	WOOD	8	[0, 0, 0]	-999	PAL1	0	R1250N
1328.892	0.716	1509446	RETRIEVAL_ORIENT_OFF	n/a	n/a	5	-999	n/a	n/a	n/a	n/a	8	[0, 0, 0]	-999	PAL1	0	R1250N
1329.608	4.0	1510162	TEST_PROBE	n/a	wordpools/wordpool_EN.txt	6	4	WOOD	CAR	CAR	WOOD	8	[0, 0, 0]	-999	PAL1	0	R1250N
1329.608	1.36	1510162	REC_START	n/a	n/a	6	-999	n/a	CAR	n/a	n/a	8	[0, 0, 0]	-999	PAL1	0	R1250N
1330.968	2.657	1511522	REC_EVENT	1360.0	n/a	6	4	WOOD	CAR	CAR	WOOD	8	[0, 0, 0]	-999	PAL1	0	R1250N
1333.625	1.0	1514179	PROBE_OFF	n/a	n/a	6	-999	n/a	n/a	n/a	n/a	8	[0, 0, 0]	-999	PAL1	0	R1250N
1334.625	0.017	1515179	REC_END	n/a	n/a	6	-999	n/a	n/a	n/a	n/a	8	[0, 0, 0]	-999	PAL1	0	R1250N
1334.642	0.267	1515196	TEST_ORIENT	n/a	n/a	3	5	WORM	n/a	WORM	CANE	8	[0, 0, 0]	-999	PAL1	0	R1250N
1334.909	0.733	1515463	RETRIEVAL_ORIENT_OFF	n/a	n/a	6	-999	n/a	n/a	n/a	n/a	8	[0, 0, 0]	-999	PAL1	0	R1250N
1335.642	4.0	1516196	TEST_PROBE	n/a	wordpools/wordpool_EN.txt	3	5	WORM	n/a	WORM	CANE	8	[0, 0, 0]	-999	PAL1	0	R1250N
1335.642	4.017	1516196	REC_START	n/a	n/a	3	-999	n/a	n/a	n/a	n/a	8	[0, 0, 0]	-999	PAL1	0	R1250N
1339.659	0.998	1520213	PROBE_OFF	n/a	n/a	3	-999	n/a	n/a	n/a	n/a	8	[0, 0, 0]	-999	PAL1	0	R1250N
1340.657	0.002	1521211	REC_EVENT	5015.0	n/a	3	5	WORM	<>	WORM	CANE	8	[0, 0, 0]	-999	PAL1	0	R1250N
1340.659	0.017	1521213	REC_END	n/a	n/a	3	-999	n/a	n/a	n/a	n/a	8	[0, 0, 0]	-999	PAL1	0	R1250N
1340.676	0.267	1521230	TEST_ORIENT	n/a	n/a	4	6	DITCH	n/a	DITCH	BLUSH	8	[0, 0, 0]	-999	PAL1	0	R1250N
1340.943	0.517	1521497	RETRIEVAL_ORIENT_OFF	n/a	n/a	3	-999	n/a	n/a	n/a	n/a	8	[0, 0, 0]	-999	PAL1	0	R1250N
1341.46	4.0	1522014	TEST_PROBE	n/a	wordpools/wordpool_EN.txt	4	6	DITCH	n/a	DITCH	BLUSH	8	[0, 0, 0]	-999	PAL1	0	R1250N
1341.461	4.016	1522015	REC_START	n/a	n/a	4	-999	n/a	n/a	n/a	n/a	8	[0, 0, 0]	-999	PAL1	0	R1250N
1345.477	1.0	1526031	PROBE_OFF	n/a	n/a	4	-999	n/a	n/a	n/a	n/a	8	[0, 0, 0]	-999	PAL1	0	R1250N
1346.477	0.005	1527031	REC_END	n/a	n/a	4	-999	n/a	n/a	n/a	n/a	8	[0, 0, 0]	-999	PAL1	0	R1250N
1346.482	0.004	1527036	REC_EVENT	5021.0	n/a	4	6	DITCH	<>	DITCH	BLUSH	8	[0, 0, 0]	-999	PAL1	0	R1250N
1346.486	6.975	1527040	RECALL_END	n/a	n/a	-999	-999	n/a	n/a	n/a	n/a	8	[0, 0, 0]	-999	PAL1	0	R1250N
1353.461	10.928	1534015	TRIAL	n/a	n/a	-999	-999	n/a	n/a	n/a	n/a	9	[0, 0, 0]	-999	PAL1	0	R1250N
1364.389	0.007	1544943	ENCODING_START	n/a	n/a	-999	-999	n/a	n/a	n/a	n/a	9	[0, 0, 0]	-999	PAL1	0	R1250N
1364.396	0.266	1544950	STUDY_ORIENT	n/a	n/a	1	3	BOOT	STEM	BOOT	STEM	9	[0, 0, 0]	-999	PAL1	0	R1250N
1364.662	0.651	1545216	STUDY_ORIENT_OFF	n/a	n/a	1	3	BOOT	STEM	BOOT	STEM	9	[0, 0, 0]	-999	PAL1	0	R1250N
1365.313	4.0	1545867	STUDY_PAIR	n/a	wordpools/wordpool_EN.txt	1	3	BOOT	STEM	BOOT	STEM	9	[0, 0, 0]	-999	PAL1	0	R1250N
1369.33	1.017	1549884	PAIR_OFF	n/a	n/a	1	3	BOOT	STEM	BOOT	STEM	9	[0, 0, 0]	-999	PAL1	0	R1250N
1370.347	0.265	1550901	STUDY_ORIENT	n/a	n/a	2	4	CONE	n/a	CONE	SHIRT	9	[0, 0, 0]	-999	PAL1	0	R1250N
1370.612	0.585	1551166	STUDY_ORIENT_OFF	n/a	n/a	2	4	CONE	n/a	CONE	SHIRT	9	[0, 0, 0]	-999	PAL1	0	R1250N
1371.197	4.0	1551751	STUDY_PAIR	n/a	wordpools/wordpool_EN.txt	2	4	CONE	n/a	CONE	SHIRT	9	[0, 0, 0]	-999	PAL1	0	R1250N
1375.214	1.016	1555768	PAIR_OFF	n/a	n/a	2	4	CONE	n/a	CONE	SHIRT	9	[0, 0, 0]	-999	PAL1	0	R1250N
1376.23	0.267	1556784	STUDY_ORIENT	n/a	n/a	3	1	COUCH	SKY	SKY	COUCH	9	[0, 0, 0]	-999	PAL1	0	R1250N
1376.497	0.55	1557051	STUDY_ORIENT_OFF	n/a	n/a	3	1	COUCH	SKY	SKY	COUCH	9	[0, 0, 0]	-999	PAL1	0	R1250N
1377.047	4.0	1557601	STUDY_PAIR	n/a	wordpools/wordpool_EN.txt	3	1	COUCH	SKY	SKY	COUCH	9	[0, 0, 0]	-999	PAL1	0	R1250N
1381.064	1.017	1561618	PAIR_OFF	n/a	n/a	3	1	COUCH	SKY	SKY	COUCH	9	[0, 0, 0]	-999	PAL1	0	R1250N
1382.081	0.267	1562635	STUDY_ORIENT	n/a	n/a	4	6	CHEEK	n/a	CHEEK	DRUM	9	[0, 0, 0]	-999	PAL1	0	R1250N
1382.348	0.517	1562902	STUDY_ORIENT_OFF	n/a	n/a	4	6	CHEEK	n/a	CHEEK	DRUM	9	[0, 0, 0]	-999	PAL1	0	R1250N
1382.865	4.0	1563419	STUDY_PAIR	n/a	wordpools/wordpool_EN.txt	4	6	CHEEK	n/a	CHEEK	DRUM	9	[0, 0, 0]	-999	PAL1	0	R1250N
1386.882	1.016	1567436	PAIR_OFF	n/a	n/a	4	6	CHEEK	n/a	CHEEK	DRUM	9	[0, 0, 0]	-999	PAL1	0	R1250N
1387.898	0.267	1568452	STUDY_ORIENT	n/a	n/a	5	5	CLOUD	CROW	CLOUD	CROW	9	[0, 0, 0]	-999	PAL1	0	R1250N
1388.165	0.7	1568719	STUDY_ORIENT_OFF	n/a	n/a	5	5	CLOUD	CROW	CLOUD	CROW	9	[0, 0, 0]	-999	PAL1	0	R1250N
1388.865	4.0	1569419	STUDY_PAIR	n/a	wordpools/wordpool_EN.txt	5	5	CLOUD	CROW	CLOUD	CROW	9	[0, 0, 0]	-999	PAL1	0	R1250N
1392.882	1.017	1573437	PAIR_OFF	n/a	n/a	5	5	CLOUD	CROW	CLOUD	CROW	9	[0, 0, 0]	-999	PAL1	0	R1250N
1393.899	0.267	1574454	STUDY_ORIENT	n/a	n/a	6	2	MILK	MOOSE	MILK	MOOSE	9	[0, 0, 0]	-999	PAL1	0	R1250N
1394.166	0.733	1574721	STUDY_ORIENT_OFF	n/a	n/a	6	2	MILK	MOOSE	MILK	MOOSE	9	[0, 0, 0]	-999	PAL1	0	R1250N
1394.899	4.0	1575454	STUDY_PAIR	n/a	wordpools/wordpool_EN.txt	6	2	MILK	MOOSE	MILK	MOOSE	9	[0, 0, 0]	-999	PAL1	0	R1250N
1398.916	1.0	1579471	PAIR_OFF	n/a	n/a	6	2	MILK	MOOSE	MILK	MOOSE	9	[0, 0, 0]	-999	PAL1	0	R1250N
1399.916	0.0	1580471	ENCODING_END	n/a	n/a	-999	-999	n/a	n/a	n/a	n/a	9	[0, 0, 0]	-999	PAL1	0	R1250N
1399.916	0.0	1580471	MATH_START	n/a	n/a	-999	-999	n/a	n/a	n/a	n/a	9	[0, 0, 0]	-999	PAL1	0	R1250N
1399.916	0.017	1580471	START	n/a	n/a	-999	-999	n/a	n/a	n/a	n/a	9	[-999, -999, -999]	-999	PAL1	0	R1250N
1399.933	3.95	1580488	PROB	3921.0	n/a	-999	-999	n/a	n/a	n/a	n/a	9	[5, 3, 8]	16	PAL1	0	R1250N
1403.883	2.934	1584438	PROB	2898.0	n/a	-999	-999	n/a	n/a	n/a	n/a	9	[1, 6, 5]	12	PAL1	0	R1250N
1406.817	4.167	1587372	PROB	4133.0	n/a	-999	-999	n/a	n/a	n/a	n/a	9	[4, 9, 5]	18	PAL1	0	R1250N
1410.984	9.684	1591539	PROB	9684.0	n/a	-999	-999	n/a	n/a	n/a	n/a	9	[9, 8, 9]	26	PAL1	0	R1250N
1420.668	0.016	1601223	STOP	n/a	n/a	-999	-999	n/a	n/a	n/a	n/a	9	[-999, -999, -999]	-999	PAL1	0	R1250N
1420.684	0.0	1601239	MATH_END	n/a	n/a	-999	-999	n/a	n/a	n/a	n/a	9	[0, 0, 0]	-999	PAL1	0	R1250N
1420.684	0.017	1601239	RECALL_START	n/a	n/a	-999	-999	n/a	n/a	n/a	n/a	9	[0, 0, 0]	-999	PAL1	0	R1250N
1420.701	0.268	1601256	TEST_ORIENT	n/a	n/a	3	1	COUCH	SKY	SKY	COUCH	9	[0, 0, 0]	-999	PAL1	0	R1250N
1420.969	0.516	1601524	RETRIEVAL_ORIENT_OFF	n/a	n/a	-999	-999	n/a	n/a	n/a	n/a	9	[0, 0, 0]	-999	PAL1	0	R1250N
1421.485	4.0	1602040	TEST_PROBE	n/a	wordpools/wordpool_EN.txt	3	1	COUCH	SKY	SKY	COUCH	9	[0, 0, 0]	-999	PAL1	0	R1250N
1421.486	3.262	1602041	REC_START	n/a	n/a	3	-999	n/a	SKY	n/a	n/a	9	[0, 0, 0]	-999	PAL1	0	R1250N
1424.748	0.754	1605303	REC_EVENT	3262.0	n/a	3	1	COUCH	SKY	SKY	COUCH	9	[0, 0, 0]	-999	PAL1	0	R1250N
1425.502	1.0	1606057	PROBE_OFF	n/a	n/a	3	-999	n/a	n/a	n/a	n/a	9	[0, 0, 0]	-999	PAL1	0	R1250N
1426.502	0.017	1607057	REC_END	n/a	n/a	3	-999	n/a	n/a	n/a	n/a	9	[0, 0, 0]	-999	PAL1	0	R1250N
1426.519	0.266	1607074	TEST_ORIENT	n/a	n/a	6	2	MILK	MOOSE	MILK	MOOSE	9	[0, 0, 0]	-999	PAL1	0	R1250N
1426.785	0.584	1607340	RETRIEVAL_ORIENT_OFF	n/a	n/a	3	-999	n/a	n/a	n/a	n/a	9	[0, 0, 0]	-999	PAL1	0	R1250N
1427.369	4.0	1607924	TEST_PROBE	n/a	wordpools/wordpool_EN.txt	6	2	MILK	MOOSE	MILK	MOOSE	9	[0, 0, 0]	-999	PAL1	0	R1250N
1427.37	0.995	1607925	REC_START	n/a	n/a	6	-999	n/a	MOOSE	n/a	n/a	9	[0, 0, 0]	-999	PAL1	0	R1250N
1428.365	3.021	1608920	REC_EVENT	995.0	n/a	6	2	MILK	MOOSE	MILK	MOOSE	9	[0, 0, 0]	-999	PAL1	0	R1250N
1431.386	1.0	1611941	PROBE_OFF	n/a	n/a	6	-999	n/a	n/a	n/a	n/a	9	[0, 0, 0]	-999	PAL1	0	R1250N
1432.386	0.017	1612941	REC_END	n/a	n/a	6	-999	n/a	n/a	n/a	n/a	9	[0, 0, 0]	-999	PAL1	0	R1250N
1432.403	0.266	1612958	TEST_ORIENT	n/a	n/a	1	3	BOOT	STEM	BOOT	STEM	9	[0, 0, 0]	-999	PAL1	0	R1250N
1432.669	0.701	1613224	RETRIEVAL_ORIENT_OFF	n/a	n/a	6	-999	n/a	n/a	n/a	n/a	9	[0, 0, 0]	-999	PAL1	0	R1250N
1433.37	4.0	1613925	TEST_PROBE	n/a	wordpools/wordpool_EN.txt	1	3	BOOT	STEM	BOOT	STEM	9	[0, 0, 0]	-999	PAL1	0	R1250N
1433.37	3.423	1613925	REC_START	n/a	n/a	1	-999	n/a	STEM	n/a	n/a	9	[0, 0, 0]	-999	PAL1	0	R1250N
1436.793	0.594	1617348	REC_EVENT	3423.0	n/a	1	3	BOOT	STEM	BOOT	STEM	9	[0, 0, 0]	-999	PAL1	0	R1250N
1437.387	1.0	1617942	PROBE_OFF	n/a	n/a	1	-999	n/a	n/a	n/a	n/a	9	[0, 0, 0]	-999	PAL1	0	R1250N
1438.387	0.017	1618942	REC_END	n/a	n/a	1	-999	n/a	n/a	n/a	n/a	9	[0, 0, 0]	-999	PAL1	0	R1250N
1438.404	0.265	1618959	TEST_ORIENT	n/a	n/a	2	4	CONE	n/a	CONE	SHIRT	9	[0, 0, 0]	-999	PAL1	0	R1250N
1438.669	0.552	1619224	RETRIEVAL_ORIENT_OFF	n/a	n/a	1	-999	n/a	n/a	n/a	n/a	9	[0, 0, 0]	-999	PAL1	0	R1250N
1439.221	4.0	1619776	TEST_PROBE	n/a	wordpools/wordpool_EN.txt	2	4	CONE	n/a	CONE	SHIRT	9	[0, 0, 0]	-999	PAL1	0	R1250N
1439.221	4.017	1619776	REC_START	n/a	n/a	2	-999	n/a	n/a	n/a	n/a	9	[0, 0, 0]	-999	PAL1	0	R1250N
1443.238	0.998	1623793	PROBE_OFF	n/a	n/a	2	-999	n/a	n/a	n/a	n/a	9	[0, 0, 0]	-999	PAL1	0	R1250N
1444.236	0.002	1624791	REC_EVENT	5015.0	n/a	2	4	CONE	<>	CONE	SHIRT	9	[0, 0, 0]	-999	PAL1	0	R1250N
1444.238	0.016	1624793	REC_END	n/a	n/a	2	-999	n/a	n/a	n/a	n/a	9	[0, 0, 0]	-999	PAL1	0	R1250N
1444.254	0.267	1624809	TEST_ORIENT	n/a	n/a	5	5	CLOUD	CROW	CLOUD	CROW	9	[0, 0, 0]	-999	PAL1	0	R1250N
1444.521	0.65	1625076	RETRIEVAL_ORIENT_OFF	n/a	n/a	2	-999	n/a	n/a	n/a	n/a	9	[0, 0, 0]	-999	PAL1	0	R1250N
1445.171	4.0	1625726	TEST_PROBE	n/a	wordpools/wordpool_EN.txt	5	5	CLOUD	CROW	CLOUD	CROW	9	[0, 0, 0]	-999	PAL1	0	R1250N
1445.172	1.87	1625727	REC_START	n/a	n/a	5	-999	n/a	CROW	n/a	n/a	9	[0, 0, 0]	-999	PAL1	0	R1250N
1447.042	2.146	1627597	REC_EVENT	1870.0	n/a	5	5	CLOUD	CROW	CLOUD	CROW	9	[0, 0, 0]	-999	PAL1	0	R1250N
1449.188	1.0	1629743	PROBE_OFF	n/a	n/a	5	-999	n/a	n/a	n/a	n/a	9	[0, 0, 0]	-999	PAL1	0	R1250N
1450.188	0.017	1630743	REC_END	n/a	n/a	5	-999	n/a	n/a	n/a	n/a	9	[0, 0, 0]	-999	PAL1	0	R1250N
1450.205	0.267	1630760	TEST_ORIENT	n/a	n/a	4	6	CHEEK	n/a	CHEEK	DRUM	9	[0, 0, 0]	-999	PAL1	0	R1250N
1450.472	0.683	1631027	RETRIEVAL_ORIENT_OFF	n/a	n/a	5	-999	n/a	n/a	n/a	n/a	9	[0, 0, 0]	-999	PAL1	0	R1250N
1451.155	4.0	1631710	TEST_PROBE	n/a	wordpools/wordpool_EN.txt	4	6	CHEEK	n/a	CHEEK	DRUM	9	[0, 0, 0]	-999	PAL1	0	R1250N
1451.156	4.016	1631711	REC_START	n/a	n/a	4	-999	n/a	n/a	n/a	n/a	9	[0, 0, 0]	-999	PAL1	0	R1250N
1455.172	0.999	1635727	PROBE_OFF	n/a	n/a	4	-999	n/a	n/a	n/a	n/a	9	[0, 0, 0]	-999	PAL1	0	R1250N
1456.171	0.001	1636726	REC_EVENT	5015.0	n/a	4	6	CHEEK	<>	CHEEK	DRUM	9	[0, 0, 0]	-999	PAL1	0	R1250N
1456.172	0.003	1636727	REC_END	n/a	n/a	4	-999	n/a	n/a	n/a	n/a	9	[0, 0, 0]	-999	PAL1	0	R1250N
1456.175	5.464	1636730	RECALL_END	n/a	n/a	-999	-999	n/a	n/a	n/a	n/a	9	[0, 0, 0]	-999	PAL1	0	R1250N
1461.639	10.928	1642195	TRIAL	n/a	n/a	-999	-999	n/a	n/a	n/a	n/a	10	[0, 0, 0]	-999	PAL1	0	R1250N
1472.567	0.006	1653123	ENCODING_START	n/a	n/a	-999	-999	n/a	n/a	n/a	n/a	10	[0, 0, 0]	-999	PAL1	0	R1250N
1472.573	0.251	1653129	STUDY_ORIENT	n/a	n/a	1	5	SHIELD	SMOKE	MOLE	SHIELD	10	[0, 0, 0]	-999	PAL1	0	R1250N
1472.824	0.534	1653380	STUDY_ORIENT_OFF	n/a	n/a	1	5	SHIELD	SMOKE	MOLE	SHIELD	10	[0, 0, 0]	-999	PAL1	0	R1250N
1473.358	4.0	1653914	STUDY_PAIR	n/a	wordpools/wordpool_EN.txt	1	5	SHIELD	SMOKE	MOLE	SHIELD	10	[0, 0, 0]	-999	PAL1	0	R1250N
1477.375	1.016	1657931	PAIR_OFF	n/a	n/a	1	5	SHIELD	SMOKE	MOLE	SHIELD	10	[0, 0, 0]	-999	PAL1	0	R1250N
1478.391	0.266	1658947	STUDY_ORIENT	n/a	n/a	2	2	STAR	CASH	STAR	CASH	10	[0, 0, 0]	-999	PAL1	0	R1250N
1478.657	0.534	1659213	STUDY_ORIENT_OFF	n/a	n/a	2	2	STAR	CASH	STAR	CASH	10	[0, 0, 0]	-999	PAL1	0	R1250N
1479.191	4.0	1659747	STUDY_PAIR	n/a	wordpools/wordpool_EN.txt	2	2	STAR	CASH	STAR	CASH	10	[0, 0, 0]	-999	PAL1	0	R1250N
1483.209	1.016	1663765	PAIR_OFF	n/a	n/a	2	2	STAR	CASH	STAR	CASH	10	[0, 0, 0]	-999	PAL1	0	R1250N
1484.225	0.267	1664781	STUDY_ORIENT	n/a	n/a	3	3	NOSE	LAKE	LAKE	NOSE	10	[0, 0, 0]	-999	PAL1	0	R1250N
1484.492	0.584	1665048	STUDY_ORIENT_OFF	n/a	n/a	3	3	NOSE	LAKE	LAKE	NOSE	10	[0, 0, 0]	-999	PAL1	0	R1250N
1485.076	4.0	1665632	STUDY_PAIR	n/a	wordpools/wordpool_EN.txt	3	3	NOSE	LAKE	LAKE	NOSE	10	[0, 0, 0]	-999	PAL1	0	R1250N
1489.093	1.016	1669649	PAIR_OFF	n/a	n/a	3	3	NOSE	LAKE	LAKE	NOSE	10	[0, 0, 0]	-999	PAL1	0	R1250N
1490.109	0.267	1670665	STUDY_ORIENT	n/a	n/a	4	4	CAGE	n/a	CAGE	SMOKE	10	[0, 0, 0]	-999	PAL1	0	R1250N
1490.376	0.517	1670932	STUDY_ORIENT_OFF	n/a	n/a	4	4	CAGE	n/a	CAGE	SMOKE	10	[0, 0, 0]	-999	PAL1	0	R1250N
1490.893	4.0	1671449	STUDY_PAIR	n/a	wordpools/wordpool_EN.txt	4	4	CAGE	n/a	CAGE	SMOKE	10	[0, 0, 0]	-999	PAL1	0	R1250N
1494.91	1.017	1675466	PAIR_OFF	n/a	n/a	4	4	CAGE	n/a	CAGE	SMOKE	10	[0, 0, 0]	-999	PAL1	0	R1250N
1495.927	0.266	1676483	STUDY_ORIENT	n/a	n/a	5	1	GRAPE	DEER	GRAPE	DEER	10	[0, 0, 0]	-999	PAL1	0	R1250N
1496.193	0.516	1676749	STUDY_ORIENT_OFF	n/a	n/a	5	1	GRAPE	DEER	GRAPE	DEER	10	[0, 0, 0]	-999	PAL1	0	R1250N
1496.709	4.0	1677265	STUDY_PAIR	n/a	wordpools/wordpool_EN.txt	5	1	GRAPE	DEER	GRAPE	DEER	10	[0, 0, 0]	-999	PAL1	0	R1250N
1500.726	1.017	1681282	PAIR_OFF	n/a	n/a	5	1	GRAPE	DEER	GRAPE	DEER	10	[0, 0, 0]	-999	PAL1	0	R1250N
1501.743	0.268	1682299	STUDY_ORIENT	n/a	n/a	6	6	HAT	n/a	HAT	FOOD	10	[0, 0, 0]	-999	PAL1	0	R1250N
1502.011	0.715	1682567	STUDY_ORIENT_OFF	n/a	n/a	6	6	HAT	n/a	HAT	FOOD	10	[0, 0, 0]	-999	PAL1	0	R1250N
1502.726	4.0	1683282	STUDY_PAIR	n/a	wordpools/wordpool_EN.txt	6	6	HAT	n/a	HAT	FOOD	10	[0, 0, 0]	-999	PAL1	0	R1250N
1506.743	1.001	1687299	PAIR_OFF	n/a	n/a	6	6	HAT	n/a	HAT	FOOD	10	[0, 0, 0]	-999	PAL1	0	R1250N
1507.744	0.0	1688300	ENCODING_END	n/a	n/a	-999	-999	n/a	n/a	n/a	n/a	10	[0, 0, 0]	-999	PAL1	0	R1250N
1507.744	0.0	1688300	MATH_START	n/a	n/a	-999	-999	n/a	n/a	n/a	n/a	10	[0, 0, 0]	-999	PAL1	0	R1250N
1507.744	0.016	1688300	START	n/a	n/a	-999	-999	n/a	n/a	n/a	n/a	10	[-999, -999, -999]	-999	PAL1	0	R1250N
1507.76	4.918	1688316	PROB	4894.0	n/a	-999	-999	n/a	n/a	n/a	n/a	10	[4, 2, 8]	14	PAL1	0	R1250N
1512.678	2.817	1693234	PROB	2785.0	n/a	-999	-999	n/a	n/a	n/a	n/a	10	[5, 5, 2]	12	PAL1	0	R1250N
1515.495	4.318	1696051	PROB	4295.0	n/a	-999	-999	n/a	n/a	n/a	n/a	10	[2, 1, 7]	10	PAL1	0	R1250N
1519.813	3.749	1700369	PROB	3714.0	n/a	-999	-999	n/a	n/a	n/a	n/a	10	[5, 2, 4]	11	PAL1	0	R1250N
1523.562	3.184	1704119	PROB	3147.0	n/a	-999	-999	n/a	n/a	n/a	n/a	10	[9, 6, 8]	23	PAL1	0	R1250N
1526.746	4.14	1707303	PROB	4140.0	n/a	-999	-999	n/a	n/a	n/a	n/a	10	[7, 4, 5]	16	PAL1	0	R1250N
1530.886	0.011	1711443	STOP	n/a	n/a	-999	-999	n/a	n/a	n/a	n/a	10	[-999, -999, -999]	-999	PAL1	0	R1250N
1530.897	0.0	1711454	MATH_END	n/a	n/a	-999	-999	n/a	n/a	n/a	n/a	10	[0, 0, 0]	-999	PAL1	0	R1250N
1530.897	0.017	1711454	RECALL_START	n/a	n/a	-999	-999	n/a	n/a	n/a	n/a	10	[0, 0, 0]	-999	PAL1	0	R1250N
1530.914	0.266	1711471	TEST_ORIENT	n/a	n/a	5	1	GRAPE	DEER	GRAPE	DEER	10	[0, 0, 0]	-999	PAL1	0	R1250N
1531.18	0.684	1711737	RETRIEVAL_ORIENT_OFF	n/a	n/a	-999	-999	n/a	n/a	n/a	n/a	10	[0, 0, 0]	-999	PAL1	0	R1250N
1531.864	4.0	1712421	TEST_PROBE	n/a	wordpools/wordpool_EN.txt	5	1	GRAPE	DEER	GRAPE	DEER	10	[0, 0, 0]	-999	PAL1	0	R1250N
1531.864	1.305	1712421	REC_START	n/a	n/a	5	-999	n/a	DEER	n/a	n/a	10	[0, 0, 0]	-999	PAL1	0	R1250N
1533.169	2.712	1713726	REC_EVENT	1305.0	n/a	5	1	GRAPE	DEER	GRAPE	DEER	10	[0, 0, 0]	-999	PAL1	0	R1250N
1535.881	1.0	1716438	PROBE_OFF	n/a	n/a	5	-999	n/a	n/a	n/a	n/a	10	[0, 0, 0]	-999	PAL1	0	R1250N
1536.881	0.017	1717438	REC_END	n/a	n/a	5	-999	n/a	n/a	n/a	n/a	10	[0, 0, 0]	-999	PAL1	0	R1250N
1536.898	0.266	1717455	TEST_ORIENT	n/a	n/a	2	2	STAR	CASH	STAR	CASH	10	[0, 0, 0]	-999	PAL1	0	R1250N
1537.164	0.616	1717721	RETRIEVAL_ORIENT_OFF	n/a	n/a	5	-999	n/a	n/a	n/a	n/a	10	[0, 0, 0]	-999	PAL1	0	R1250N
1537.78	4.0	1718337	TEST_PROBE	n/a	wordpools/wordpool_EN.txt	2	2	STAR	CASH	STAR	CASH	10	[0, 0, 0]	-999	PAL1	0	R1250N
1537.781	1.872	1718338	REC_START	n/a	n/a	2	-999	n/a	CASH	n/a	n/a	10	[0, 0, 0]	-999	PAL1	0	R1250N
1539.653	2.145	1720210	REC_EVENT	1872.0	n/a	2	2	STAR	CASH	STAR	CASH	10	[0, 0, 0]	-999	PAL1	0	R1250N
1541.798	1.001	1722355	PROBE_OFF	n/a	n/a	2	-999	n/a	n/a	n/a	n/a	10	[0, 0, 0]	-999	PAL1	0	R1250N
1542.799	0.016	1723356	REC_END	n/a	n/a	2	-999	n/a	n/a	n/a	n/a	10	[0, 0, 0]	-999	PAL1	0	R1250N
1542.815	0.267	1723372	TEST_ORIENT	n/a	n/a	3	3	NOSE	LAKE	LAKE	NOSE	10	[0, 0, 0]	-999	PAL1	0	R1250N
1543.082	0.549	1723639	RETRIEVAL_ORIENT_OFF	n/a	n/a	2	-999	n/a	n/a	n/a	n/a	10	[0, 0, 0]	-999	PAL1	0	R1250N
1543.631	4.0	1724188	TEST_PROBE	n/a	wordpools/wordpool_EN.txt	3	3	NOSE	LAKE	LAKE	NOSE	10	[0, 0, 0]	-999	PAL1	0	R1250N
1543.631	1.798	1724188	REC_START	n/a	n/a	3	-999	n/a	LAKE	n/a	n/a	10	[0, 0, 0]	-999	PAL1	0	R1250N
1545.429	2.219	1725986	REC_EVENT	1798.0	n/a	3	3	NOSE	LAKE	LAKE	NOSE	10	[0, 0, 0]	-999	PAL1	0	R1250N
1547.648	1.0	1728205	PROBE_OFF	n/a	n/a	3	-999	n/a	n/a	n/a	n/a	10	[0, 0, 0]	-999	PAL1	0	R1250N
1548.648	0.017	1729205	REC_END	n/a	n/a	3	-999	n/a	n/a	n/a	n/a	10	[0, 0, 0]	-999	PAL1	0	R1250N
1548.665	0.267	1729222	TEST_ORIENT	n/a	n/a	4	4	CAGE	n/a	CAGE	SMOKE	10	[0, 0, 0]	-999	PAL1	0	R1250N
1548.932	0.55	1729489	RETRIEVAL_ORIENT_OFF	n/a	n/a	3	-999	n/a	n/a	n/a	n/a	10	[0, 0, 0]	-999	PAL1	0	R1250N
1549.482	4.0	1730039	TEST_PROBE	n/a	wordpools/wordpool_EN.txt	4	4	CAGE	n/a	CAGE	SMOKE	10	[0, 0, 0]	-999	PAL1	0	R1250N
1549.483	2.992	1730040	REC_START	n/a	n/a	4	-999	n/a	n/a	n/a	n/a	10	[0, 0, 0]	-999	PAL1	0	R1250N
1552.475	1.025	1733032	REC_EVENT	2992.0	n/a	4	4	CAGE	<>	CAGE	SMOKE	10	[0, 0, 0]	-999	PAL1	0	R1250N
1553.5	1.0	1734057	PROBE_OFF	n/a	n/a	4	-999	n/a	n/a	n/a	n/a	10	[0, 0, 0]	-999	PAL1	0	R1250N
1554.5	0.016	1735057	REC_END	n/a	n/a	4	-999	n/a	n/a	n/a	n/a	10	[0, 0, 0]	-999	PAL1	0	R1250N
1554.516	0.266	1735073	TEST_ORIENT	n/a	n/a	1	5	SHIELD	SMOKE	MOLE	SHIELD	10	[0, 0, 0]	-999	PAL1	0	R1250N
1554.782	0.701	1735339	RETRIEVAL_ORIENT_OFF	n/a	n/a	4	-999	n/a	n/a	n/a	n/a	10	[0, 0, 0]	-999	PAL1	0	R1250N
1555.483	4.0	1736040	TEST_PROBE	n/a	wordpools/wordpool_EN.txt	1	5	SHIELD	SMOKE	MOLE	SHIELD	10	[0, 0, 0]	-999	PAL1	0	R1250N
1555.484	0.0	1736041	REC_START	n/a	n/a	1	-999	n/a	SMOKE	n/a	n/a	10	[0, 0, 0]	-999	PAL1	0	R1250N
1555.484	0.214	1736041	REC_EVENT	0.0	n/a	1	5	SHIELD	<>	MOLE	SHIELD	10	[0, 0, 0]	-999	PAL1	0	R1250N
1555.698	0.497	1736255	REC_EVENT	214.0	n/a	1	5	SHIELD	STAR	MOLE	SHIELD	10	[0, 0, 0]	-999	PAL1	0	R1250N
1556.195	3.305	1736752	REC_EVENT	711.0	n/a	1	5	SHIELD	SMOKE	MOLE	SHIELD	10	[0, 0, 0]	-999	PAL1	0	R1250N
1559.5	1.0	1740057	PROBE_OFF	n/a	n/a	1	-999	n/a	n/a	n/a	n/a	10	[0, 0, 0]	-999	PAL1	0	R1250N
1560.5	0.017	1741057	REC_END	n/a	n/a	1	-999	n/a	n/a	n/a	n/a	10	[0, 0, 0]	-999	PAL1	0	R1250N
1560.517	0.266	1741074	TEST_ORIENT	n/a	n/a	6	6	HAT	n/a	HAT	FOOD	10	[0, 0, 0]	-999	PAL1	0	R1250N
1560.783	0.634	1741340	RETRIEVAL_ORIENT_OFF	n/a	n/a	1	-999	n/a	n/a	n/a	n/a	10	[0, 0, 0]	-999	PAL1	0	R1250N
1561.417	4.0	1741974	TEST_PROBE	n/a	wordpools/wordpool_EN.txt	6	6	HAT	n/a	HAT	FOOD	10	[0, 0, 0]	-999	PAL1	0	R1250N
1561.417	4.017	1741974	REC_START	n/a	n/a	6	-999	n/a	n/a	n/a	n/a	10	[0, 0, 0]	-999	PAL1	0	R1250N
1565.434	0.998	1745991	PROBE_OFF	n/a	n/a	6	-999	n/a	n/a	n/a	n/a	10	[0, 0, 0]	-999	PAL1	0	R1250N
1566.432	0.002	1746989	REC_EVENT	5015.0	n/a	6	6	HAT	<>	HAT	FOOD	10	[0, 0, 0]	-999	PAL1	0	R1250N
1566.434	0.009	1746991	REC_END	n/a	n/a	6	-999	n/a	n/a	n/a	n/a	10	[0, 0, 0]	-999	PAL1	0	R1250N
1566.443	5.042	1747000	RECALL_END	n/a	n/a	-999	-999	n/a	n/a	n/a	n/a	10	[0, 0, 0]	-999	PAL1	0	R1250N
1571.485	10.928	1752042	TRIAL	n/a	n/a	-999	-999	n/a	n/a	n/a	n/a	11	[0, 0, 0]	-999	PAL1	0	R1250N
1582.413	0.006	1762970	ENCODING_START	n/a	n/a	-999	-999	n/a	n/a	n/a	n/a	11	[0, 0, 0]	-999	PAL1	0	R1250N
1582.419	0.266	1762976	STUDY_ORIENT	n/a	n/a	1	1	BEAK	SINK	SINK	BEAK	11	[0, 0, 0]	-999	PAL1	0	R1250N
1582.685	0.751	1763242	STUDY_ORIENT_OFF	n/a	n/a	1	1	BEAK	SINK	SINK	BEAK	11	[0, 0, 0]	-999	PAL1	0	R1250N
1583.436	4.0	1763993	STUDY_PAIR	n/a	wordpools/wordpool_EN.txt	1	1	BEAK	SINK	SINK	BEAK	11	[0, 0, 0]	-999	PAL1	0	R1250N
1587.453	1.017	1768011	PAIR_OFF	n/a	n/a	1	1	BEAK	SINK	SINK	BEAK	11	[0, 0, 0]	-999	PAL1	0	R1250N
1588.47	0.266	1769028	STUDY_ORIENT	n/a	n/a	2	2	SALT	POOL	POOL	SALT	11	[0, 0, 0]	-999	PAL1	0	R1250N
1588.736	0.717	1769294	STUDY_ORIENT_OFF	n/a	n/a	2	2	SALT	POOL	POOL	SALT	11	[0, 0, 0]	-999	PAL1	0	R1250N
1589.453	4.0	1770011	STUDY_PAIR	n/a	wordpools/wordpool_EN.txt	2	2	SALT	POOL	POOL	SALT	11	[0, 0, 0]	-999	PAL1	0	R1250N
1593.47	1.017	1774028	PAIR_OFF	n/a	n/a	2	2	SALT	POOL	POOL	SALT	11	[0, 0, 0]	-999	PAL1	0	R1250N
1594.487	0.266	1775045	STUDY_ORIENT	n/a	n/a	3	5	HAND	BOY	LIP	HAND	11	[0, 0, 0]	-999	PAL1	0	R1250N
1594.753	0.601	1775311	STUDY_ORIENT_OFF	n/a	n/a	3	5	HAND	BOY	LIP	HAND	11	[0, 0, 0]	-999	PAL1	0	R1250N
1595.354	4.0	1775912	STUDY_PAIR	n/a	wordpools/wordpool_EN.txt	3	5	HAND	BOY	LIP	HAND	11	[0, 0, 0]	-999	PAL1	0	R1250N
1599.371	1.017	1779929	PAIR_OFF	n/a	n/a	3	5	HAND	BOY	LIP	HAND	11	[0, 0, 0]	-999	PAL1	0	R1250N
1600.388	0.265	1780946	STUDY_ORIENT	n/a	n/a	4	4	SQUARE	n/a	PEAR	SQUARE	11	[0, 0, 0]	-999	PAL1	0	R1250N
1600.653	0.702	1781211	STUDY_ORIENT_OFF	n/a	n/a	4	4	SQUARE	n/a	PEAR	SQUARE	11	[0, 0, 0]	-999	PAL1	0	R1250N
1601.355	4.0	1781913	STUDY_PAIR	n/a	wordpools/wordpool_EN.txt	4	4	SQUARE	n/a	PEAR	SQUARE	11	[0, 0, 0]	-999	PAL1	0	R1250N
1605.372	1.017	1785930	PAIR_OFF	n/a	n/a	4	4	SQUARE	n/a	PEAR	SQUARE	11	[0, 0, 0]	-999	PAL1	0	R1250N
1606.389	0.265	1786947	STUDY_ORIENT	n/a	n/a	5	3	VASE	FROG	VASE	FROG	11	[0, 0, 0]	-999	PAL1	0	R1250N
1606.654	0.735	1787212	STUDY_ORIENT_OFF	n/a	n/a	5	3	VASE	FROG	VASE	FROG	11	[0, 0, 0]	-999	PAL1	0	R1250N
1607.389	4.0	1787947	STUDY_PAIR	n/a	wordpools/wordpool_EN.txt	5	3	VASE	FROG	VASE	FROG	11	[0, 0, 0]	-999	PAL1	0	R1250N
1611.406	1.016	1791964	PAIR_OFF	n/a	n/a	5	3	VASE	FROG	VASE	FROG	11	[0, 0, 0]	-999	PAL1	0	R1250N
1612.422	0.266	1792980	STUDY_ORIENT	n/a	n/a	6	6	FOX	BOY	BOY	FOX	11	[0, 0, 0]	-999	PAL1	0	R1250N
1612.688	0.668	1793246	STUDY_ORIENT_OFF	n/a	n/a	6	6	FOX	BOY	BOY	FOX	11	[0, 0, 0]	-999	PAL1	0	R1250N
1613.356	4.0	1793914	STUDY_PAIR	n/a	wordpools/wordpool_EN.txt	6	6	FOX	BOY	BOY	FOX	11	[0, 0, 0]	-999	PAL1	0	R1250N
1617.373	1.001	1797931	PAIR_OFF	n/a	n/a	6	6	FOX	BOY	BOY	FOX	11	[0, 0, 0]	-999	PAL1	0	R1250N
1618.374	0.0	1798932	ENCODING_END	n/a	n/a	-999	-999	n/a	n/a	n/a	n/a	11	[0, 0, 0]	-999	PAL1	0	R1250N
1618.374	0.0	1798932	MATH_START	n/a	n/a	-999	-999	n/a	n/a	n/a	n/a	11	[0, 0, 0]	-999	PAL1	0	R1250N
1618.374	0.016	1798932	START	n/a	n/a	-999	-999	n/a	n/a	n/a	n/a	11	[-999, -999, -999]	-999	PAL1	0	R1250N
1618.39	4.383	1798948	PROB	4354.0	n/a	-999	-999	n/a	n/a	n/a	n/a	11	[9, 3, 7]	19	PAL1	0	R1250N
1622.773	3.718	1803331	PROB	3692.0	n/a	-999	-999	n/a	n/a	n/a	n/a	11	[8, 3, 3]	14	PAL1	0	R1250N
1626.491	4.333	1807049	PROB	4302.0	n/a	-999	-999	n/a	n/a	n/a	n/a	11	[3, 4, 9]	16	PAL1	0	R1250N
1630.824	3.584	1811382	PROB	3560.0	n/a	-999	-999	n/a	n/a	n/a	n/a	11	[3, 3, 3]	9	PAL1	0	R1250N
1634.408	3.667	1814966	PROB	3640.0	n/a	-999	-999	n/a	n/a	n/a	n/a	11	[9, 8, 4]	21	PAL1	0	R1250N
1638.075	3.989	1818633	PROB	3989.0	n/a	-999	-999	n/a	n/a	n/a	n/a	11	[4, 2, 7]	13	PAL1	0	R1250N
1642.064	0.012	1822622	STOP	n/a	n/a	-999	-999	n/a	n/a	n/a	n/a	11	[-999, -999, -999]	-999	PAL1	0	R1250N
1642.076	0.0	1822634	MATH_END	n/a	n/a	-999	-999	n/a	n/a	n/a	n/a	11	[0, 0, 0]	-999	PAL1	0	R1250N
1642.076	0.016	1822634	RECALL_START	n/a	n/a	-999	-999	n/a	n/a	n/a	n/a	11	[0, 0, 0]	-999	PAL1	0	R1250N
1642.092	0.267	1822650	TEST_ORIENT	n/a	n/a	1	1	BEAK	SINK	SINK	BEAK	11	[0, 0, 0]	-999	PAL1	0	R1250N
1642.359	0.583	1822917	RETRIEVAL_ORIENT_OFF	n/a	n/a	-999	-999	n/a	n/a	n/a	n/a	11	[0, 0, 0]	-999	PAL1	0	R1250N
1642.942	4.0	1823500	TEST_PROBE	n/a	wordpools/wordpool_EN.txt	1	1	BEAK	SINK	SINK	BEAK	11	[0, 0, 0]	-999	PAL1	0	R1250N
1642.943	1.396	1823501	REC_START	n/a	n/a	1	-999	n/a	SINK	n/a	n/a	11	[0, 0, 0]	-999	PAL1	0	R1250N
1644.339	2.62	1824897	REC_EVENT	1396.0	n/a	1	1	BEAK	SINK	SINK	BEAK	11	[0, 0, 0]	-999	PAL1	0	R1250N
1646.959	1.0	1827517	PROBE_OFF	n/a	n/a	1	-999	n/a	n/a	n/a	n/a	11	[0, 0, 0]	-999	PAL1	0	R1250N
1647.959	0.017	1828517	REC_END	n/a	n/a	1	-999	n/a	n/a	n/a	n/a	11	[0, 0, 0]	-999	PAL1	0	R1250N
1647.976	0.267	1828534	TEST_ORIENT	n/a	n/a	2	2	SALT	POOL	POOL	SALT	11	[0, 0, 0]	-999	PAL1	0	R1250N
1648.243	0.683	1828801	RETRIEVAL_ORIENT_OFF	n/a	n/a	1	-999	n/a	n/a	n/a	n/a	11	[0, 0, 0]	-999	PAL1	0	R1250N
1648.926	4.0	1829484	TEST_PROBE	n/a	wordpools/wordpool_EN.txt	2	2	SALT	POOL	POOL	SALT	11	[0, 0, 0]	-999	PAL1	0	R1250N
1648.927	1.723	1829485	REC_START	n/a	n/a	2	-999	n/a	POOL	n/a	n/a	11	[0, 0, 0]	-999	PAL1	0	R1250N
1650.65	2.293	1831209	REC_EVENT	1723.0	n/a	2	2	SALT	POOL	POOL	SALT	11	[0, 0, 0]	-999	PAL1	0	R1250N
1652.943	1.0	1833502	PROBE_OFF	n/a	n/a	2	-999	n/a	n/a	n/a	n/a	11	[0, 0, 0]	-999	PAL1	0	R1250N
1653.943	0.017	1834502	REC_END	n/a	n/a	2	-999	n/a	n/a	n/a	n/a	11	[0, 0, 0]	-999	PAL1	0	R1250N
1653.96	0.267	1834519	TEST_ORIENT	n/a	n/a	5	3	VASE	FROG	VASE	FROG	11	[0, 0, 0]	-999	PAL1	0	R1250N
1654.227	0.683	1834786	RETRIEVAL_ORIENT_OFF	n/a	n/a	2	-999	n/a	n/a	n/a	n/a	11	[0, 0, 0]	-999	PAL1	0	R1250N
1654.91	4.0	1835469	TEST_PROBE	n/a	wordpools/wordpool_EN.txt	5	3	VASE	FROG	VASE	FROG	11	[0, 0, 0]	-999	PAL1	0	R1250N
1654.911	1.244	1835470	REC_START	n/a	n/a	5	-999	n/a	FROG	n/a	n/a	11	[0, 0, 0]	-999	PAL1	0	R1250N
1656.155	2.772	1836714	REC_EVENT	1244.0	n/a	5	3	VASE	FROG	VASE	FROG	11	[0, 0, 0]	-999	PAL1	0	R1250N
1658.927	1.0	1839486	PROBE_OFF	n/a	n/a	5	-999	n/a	n/a	n/a	n/a	11	[0, 0, 0]	-999	PAL1	0	R1250N
1659.927	0.017	1840486	REC_END	n/a	n/a	5	-999	n/a	n/a	n/a	n/a	11	[0, 0, 0]	-999	PAL1	0	R1250N
1659.944	0.267	1840503	TEST_ORIENT	n/a	n/a	4	4	SQUARE	n/a	PEAR	SQUARE	11	[0, 0, 0]	-999	PAL1	0	R1250N
1660.211	0.617	1840770	RETRIEVAL_ORIENT_OFF	n/a	n/a	5	-999	n/a	n/a	n/a	n/a	11	[0, 0, 0]	-999	PAL1	0	R1250N
1660.828	0.0	1841387	REC_START	n/a	n/a	4	-999	n/a	n/a	n/a	n/a	11	[0, 0, 0]	-999	PAL1	0	R1250N
1660.828	4.0	1841387	TEST_PROBE	n/a	wordpools/wordpool_EN.txt	4	4	SQUARE	n/a	PEAR	SQUARE	11	[0, 0, 0]	-999	PAL1	0	R1250N
1664.845	0.998	1845404	PROBE_OFF	n/a	n/a	4	-999	n/a	n/a	n/a	n/a	11	[0, 0, 0]	-999	PAL1	0	R1250N
1665.843	0.003	1846402	REC_EVENT	5015.0	n/a	4	4	SQUARE	<>	PEAR	SQUARE	11	[0, 0, 0]	-999	PAL1	0	R1250N
1665.846	0.015	1846405	REC_END	n/a	n/a	4	-999	n/a	n/a	n/a	n/a	11	[0, 0, 0]	-999	PAL1	0	R1250N
1665.861	0.267	1846420	TEST_ORIENT	n/a	n/a	3	5	HAND	BOY	LIP	HAND	11	[0, 0, 0]	-999	PAL1	0	R1250N
1666.128	0.734	1846687	RETRIEVAL_ORIENT_OFF	n/a	n/a	4	-999	n/a	n/a	n/a	n/a	11	[0, 0, 0]	-999	PAL1	0	R1250N
1666.862	4.0	1847421	TEST_PROBE	n/a	wordpools/wordpool_EN.txt	3	5	HAND	BOY	LIP	HAND	11	[0, 0, 0]	-999	PAL1	0	R1250N
1666.862	1.491	1847421	REC_START	n/a	n/a	3	-999	n/a	BOY	n/a	n/a	11	[0, 0, 0]	-999	PAL1	0	R1250N
1668.353	2.526	1848912	REC_EVENT	1491.0	n/a	3	5	HAND	BOY	LIP	HAND	11	[0, 0, 0]	-999	PAL1	0	R1250N
1670.879	1.0	1851438	PROBE_OFF	n/a	n/a	3	-999	n/a	n/a	n/a	n/a	11	[0, 0, 0]	-999	PAL1	0	R1250N
1671.879	0.016	1852438	REC_END	n/a	n/a	3	-999	n/a	n/a	n/a	n/a	11	[0, 0, 0]	-999	PAL1	0	R1250N
1671.895	0.267	1852454	TEST_ORIENT	n/a	n/a	6	6	FOX	BOY	BOY	FOX	11	[0, 0, 0]	-999	PAL1	0	R1250N
1672.162	0.616	1852721	RETRIEVAL_ORIENT_OFF	n/a	n/a	3	-999	n/a	n/a	n/a	n/a	11	[0, 0, 0]	-999	PAL1	0	R1250N
1672.778	0.0	1853337	REC_START	n/a	n/a	6	-999	n/a	BOY	n/a	n/a	11	[0, 0, 0]	-999	PAL1	0	R1250N
1672.778	4.0	1853337	TEST_PROBE	n/a	wordpools/wordpool_EN.txt	6	6	FOX	BOY	BOY	FOX	11	[0, 0, 0]	-999	PAL1	0	R1250N
1674.093	2.703	1854652	REC_EVENT	1315.0	n/a	6	6	FOX	BOY	BOY	FOX	11	[0, 0, 0]	-999	PAL1	0	R1250N
1676.796	1.0	1857355	PROBE_OFF	n/a	n/a	6	-999	n/a	n/a	n/a	n/a	11	[0, 0, 0]	-999	PAL1	0	R1250N
1677.796	0.004	1858355	REC_END	n/a	n/a	6	-999	n/a	n/a	n/a	n/a	11	[0, 0, 0]	-999	PAL1	0	R1250N
1677.8	5.213	1858359	RECALL_END	n/a	n/a	-999	-999	n/a	n/a	n/a	n/a	11	[0, 0, 0]	-999	PAL1	0	R1250N
1683.013	10.929	1863572	TRIAL	n/a	n/a	-999	-999	n/a	n/a	n/a	n/a	12	[0, 0, 0]	-999	PAL1	0	R1250N
1693.942	0.006	1874501	ENCODING_START	n/a	n/a	-999	-999	n/a	n/a	n/a	n/a	12	[0, 0, 0]	-999	PAL1	0	R1250N
1693.948	0.267	1874507	STUDY_ORIENT	n/a	n/a	1	1	KITE	EGG	KITE	EGG	12	[0, 0, 0]	-999	PAL1	0	R1250N
1694.215	0.549	1874774	STUDY_ORIENT_OFF	n/a	n/a	1	1	KITE	EGG	KITE	EGG	12	[0, 0, 0]	-999	PAL1	0	R1250N
1694.764	4.0	1875323	STUDY_PAIR	n/a	wordpools/wordpool_EN.txt	1	1	KITE	EGG	KITE	EGG	12	[0, 0, 0]	-999	PAL1	0	R1250N
1698.781	1.017	1879340	PAIR_OFF	n/a	n/a	1	1	KITE	EGG	KITE	EGG	12	[0, 0, 0]	-999	PAL1	0	R1250N
1699.798	0.267	1880357	STUDY_ORIENT	n/a	n/a	2	2	RIB	BADGE	BADGE	RIB	12	[0, 0, 0]	-999	PAL1	0	R1250N
1700.065	0.733	1880624	STUDY_ORIENT_OFF	n/a	n/a	2	2	RIB	BADGE	BADGE	RIB	12	[0, 0, 0]	-999	PAL1	0	R1250N
1700.798	4.0	1881357	STUDY_PAIR	n/a	wordpools/wordpool_EN.txt	2	2	RIB	BADGE	BADGE	RIB	12	[0, 0, 0]	-999	PAL1	0	R1250N
1704.816	1.016	1885375	PAIR_OFF	n/a	n/a	2	2	RIB	BADGE	BADGE	RIB	12	[0, 0, 0]	-999	PAL1	0	R1250N
1705.832	0.267	1886391	STUDY_ORIENT	n/a	n/a	3	5	CORN	n/a	CORN	STEAK	12	[0, 0, 0]	-999	PAL1	0	R1250N
1706.099	0.733	1886658	STUDY_ORIENT_OFF	n/a	n/a	3	5	CORN	n/a	CORN	STEAK	12	[0, 0, 0]	-999	PAL1	0	R1250N
1706.832	4.0	1887391	STUDY_PAIR	n/a	wordpools/wordpool_EN.txt	3	5	CORN	n/a	CORN	STEAK	12	[0, 0, 0]	-999	PAL1	0	R1250N
1710.85	1.016	1891409	PAIR_OFF	n/a	n/a	3	5	CORN	n/a	CORN	STEAK	12	[0, 0, 0]	-999	PAL1	0	R1250N
1711.866	0.267	1892425	STUDY_ORIENT	n/a	n/a	4	6	BENCH	WOLF	BENCH	WOLF	12	[0, 0, 0]	-999	PAL1	0	R1250N
1712.133	0.516	1892692	STUDY_ORIENT_OFF	n/a	n/a	4	6	BENCH	WOLF	BENCH	WOLF	12	[0, 0, 0]	-999	PAL1	0	R1250N
1712.649	4.0	1893208	STUDY_PAIR	n/a	wordpools/wordpool_EN.txt	4	6	BENCH	WOLF	BENCH	WOLF	12	[0, 0, 0]	-999	PAL1	0	R1250N
1716.666	1.017	1897226	PAIR_OFF	n/a	n/a	4	6	BENCH	WOLF	BENCH	WOLF	12	[0, 0, 0]	-999	PAL1	0	R1250N
1717.683	0.267	1898243	STUDY_ORIENT	n/a	n/a	5	3	PEACH	CAKE	PEACH	CAKE	12	[0, 0, 0]	-999	PAL1	0	R1250N
1717.95	0.666	1898510	STUDY_ORIENT_OFF	n/a	n/a	5	3	PEACH	CAKE	PEACH	CAKE	12	[0, 0, 0]	-999	PAL1	0	R1250N
1718.616	4.0	1899176	STUDY_PAIR	n/a	wordpools/wordpool_EN.txt	5	3	PEACH	CAKE	PEACH	CAKE	12	[0, 0, 0]	-999	PAL1	0	R1250N
1722.633	1.017	1903193	PAIR_OFF	n/a	n/a	5	3	PEACH	CAKE	PEACH	CAKE	12	[0, 0, 0]	-999	PAL1	0	R1250N
1723.65	0.268	1904210	STUDY_ORIENT	n/a	n/a	6	4	LAND	BARN	LAND	HORN	12	[0, 0, 0]	-999	PAL1	0	R1250N
1723.918	0.6	1904478	STUDY_ORIENT_OFF	n/a	n/a	6	4	LAND	BARN	LAND	HORN	12	[0, 0, 0]	-999	PAL1	0	R1250N
