onset	duration	sample	trial_type	response_time	serialpos	probepos	probe_word	resp_word	study_1	study_2	list	test	answer	experiment	session	subject
0.0	0.0	52297	INSTRUCT_VIDEO_ON	n/a	-999	-999	n/a	n/a	n/a	n/a	-999	[0, 0, 0]	-999	PAL1	0	R1303E
0.0	5.501	52297	INSTRUCT_VIDEO_OFF	n/a	-999	-999	n/a	n/a	n/a	n/a	-999	[0, 0, 0]	-999	PAL1	0	R1303E
5.501	0.0	57798	SESS_START	n/a	-999	-999	n/a	n/a	n/a	n/a	-999	[0, 0, 0]	-999	PAL1	0	R1303E
5.501	261.42	57798	MIC_TEST	n/a	-999	-999	n/a	n/a	n/a	n/a	-999	[0, 0, 0]	-999	PAL1	0	R1303E
266.921	19.322	319208	PRACTICE_TRIAL	n/a	-999	-999	n/a	n/a	n/a	n/a	-1	[0, 0, 0]	-999	PAL1	0	R1303E
286.243	0.006	338529	ENCODING_START	n/a	-999	-999	n/a	n/a	n/a	n/a	-1	[0, 0, 0]	-999	PAL1	0	R1303E
286.249	0.267	338535	PRACTICE_ORIENT	n/a	1	5	FLOOD	n/a	RHINO	FLOOD	-1	[0, 0, 0]	-999	PAL1	0	R1303E
286.516	0.651	338802	PRACTICE_ORIENT_OFF	n/a	1	5	FLOOD	n/a	RHINO	FLOOD	-1	[0, 0, 0]	-999	PAL1	0	R1303E
287.167	4.018	339453	PRACTICE_PAIR	n/a	1	5	FLOOD	n/a	RHINO	FLOOD	-1	[0, 0, 0]	-999	PAL1	0	R1303E
291.185	1.016	343471	PRACTICE_PAIR_OFF	n/a	1	5	FLOOD	n/a	RHINO	FLOOD	-1	[0, 0, 0]	-999	PAL1	0	R1303E
292.201	0.266	344487	PRACTICE_ORIENT	n/a	2	4	CAMEL	CHEST	CAMEL	RING	-1	[0, 0, 0]	-999	PAL1	0	R1303E
292.467	0.618	344753	PRACTICE_ORIENT_OFF	n/a	2	4	CAMEL	CHEST	CAMEL	RING	-1	[0, 0, 0]	-999	PAL1	0	R1303E
293.085	4.017	345371	PRACTICE_PAIR	n/a	2	4	CAMEL	CHEST	CAMEL	RING	-1	[0, 0, 0]	-999	PAL1	0	R1303E
297.102	1.017	349387	PRACTICE_PAIR_OFF	n/a	2	4	CAMEL	CHEST	CAMEL	RING	-1	[0, 0, 0]	-999	PAL1	0	R1303E
298.119	0.266	350404	PRACTICE_ORIENT	n/a	3	3	CHEST	n/a	CHEST	ATTIC	-1	[0, 0, 0]	-999	PAL1	0	R1303E
298.385	0.634	350670	PRACTICE_ORIENT_OFF	n/a	3	3	CHEST	n/a	CHEST	ATTIC	-1	[0, 0, 0]	-999	PAL1	0	R1303E
299.019	4.018	351304	PRACTICE_PAIR	n/a	3	3	CHEST	n/a	CHEST	ATTIC	-1	[0, 0, 0]	-999	PAL1	0	R1303E
303.037	1.016	355322	PRACTICE_PAIR_OFF	n/a	3	3	CHEST	n/a	CHEST	ATTIC	-1	[0, 0, 0]	-999	PAL1	0	R1303E
304.053	0.266	356338	PRACTICE_ORIENT	n/a	4	6	TONGUE	MOUTH	IRON	TONGUE	-1	[0, 0, 0]	-999	PAL1	0	R1303E
304.319	0.567	356604	PRACTICE_ORIENT_OFF	n/a	4	6	TONGUE	MOUTH	IRON	TONGUE	-1	[0, 0, 0]	-999	PAL1	0	R1303E
304.886	4.017	357171	PRACTICE_PAIR	n/a	4	6	TONGUE	MOUTH	IRON	TONGUE	-1	[0, 0, 0]	-999	PAL1	0	R1303E
308.903	1.017	361188	PRACTICE_PAIR_OFF	n/a	4	6	TONGUE	MOUTH	IRON	TONGUE	-1	[0, 0, 0]	-999	PAL1	0	R1303E
309.92	0.251	362205	PRACTICE_ORIENT	n/a	5	1	COTTON	n/a	COTTON	WATCH	-1	[0, 0, 0]	-999	PAL1	0	R1303E
310.171	0.716	362456	PRACTICE_ORIENT_OFF	n/a	5	1	COTTON	n/a	COTTON	WATCH	-1	[0, 0, 0]	-999	PAL1	0	R1303E
310.887	4.017	363172	PRACTICE_PAIR	n/a	5	1	COTTON	n/a	COTTON	WATCH	-1	[0, 0, 0]	-999	PAL1	0	R1303E
314.904	1.017	367189	PRACTICE_PAIR_OFF	n/a	5	1	COTTON	n/a	COTTON	WATCH	-1	[0, 0, 0]	-999	PAL1	0	R1303E
315.921	0.268	368206	PRACTICE_ORIENT	n/a	6	2	BEAM	n/a	WAGON	BEAM	-1	[0, 0, 0]	-999	PAL1	0	R1303E
316.189	0.565	368474	PRACTICE_ORIENT_OFF	n/a	6	2	BEAM	n/a	WAGON	BEAM	-1	[0, 0, 0]	-999	PAL1	0	R1303E
316.754	4.018	369039	PRACTICE_PAIR	n/a	6	2	BEAM	n/a	WAGON	BEAM	-1	[0, 0, 0]	-999	PAL1	0	R1303E
320.772	1.0	373057	PRACTICE_PAIR_OFF	n/a	6	2	BEAM	n/a	WAGON	BEAM	-1	[0, 0, 0]	-999	PAL1	0	R1303E
321.772	0.0	374057	ENCODING_END	n/a	-999	-999	n/a	n/a	n/a	n/a	-1	[0, 0, 0]	-999	PAL1	0	R1303E
321.772	0.001	374057	MATH_START	n/a	-999	-999	n/a	n/a	n/a	n/a	-1	[0, 0, 0]	-999	PAL1	0	R1303E
321.773	0.016	374058	START	n/a	-999	-999	n/a	n/a	n/a	n/a	-1	[-999, -999, -999]	-999	PAL1	0	R1303E
321.789	12.735	374074	PROB	12702	-999	-999	n/a	n/a	n/a	n/a	-1	[1, 2, 7]	10	PAL1	0	R1303E
334.524	13.331	386808	PROB	13331	-999	-999	n/a	n/a	n/a	n/a	-1	[8, 7, 9]	23	PAL1	0	R1303E
347.855	0.022	400138	STOP	n/a	-999	-999	n/a	n/a	n/a	n/a	-1	[-999, -999, -999]	-999	PAL1	0	R1303E
347.877	0.0	400160	MATH_END	n/a	-999	-999	n/a	n/a	n/a	n/a	-1	[0, 0, 0]	-999	PAL1	0	R1303E
347.877	0.017	400160	RECALL_START	n/a	-999	-999	n/a	n/a	n/a	n/a	-1	[0, 0, 0]	-999	PAL1	0	R1303E
347.894	0.267	400177	PRACTICE_RETRIEVAL_ORIENT	n/a	5	1	COTTON	n/a	COTTON	WATCH	-1	[0, 0, 0]	-999	PAL1	0	R1303E
348.161	0.666	400444	PRACTICE_RETRIEVAL_ORIENT_OFF	n/a	5	1	COTTON	n/a	COTTON	WATCH	-1	[0, 0, 0]	-999	PAL1	0	R1303E
348.827	0.006	401110	PRACTICE_PROBE	n/a	5	1	COTTON	n/a	COTTON	WATCH	-1	[0, 0, 0]	-999	PAL1	0	R1303E
348.833	4.011	401116	REC_START	n/a	5	-999	n/a	n/a	n/a	n/a	-1	[0, 0, 0]	-999	PAL1	0	R1303E
352.844	0.998	405127	PROBE_OFF	n/a	5	-999	n/a	n/a	n/a	n/a	-1	[0, 0, 0]	-999	PAL1	0	R1303E
353.842	0.002	406125	REC_EVENT	5009	5	1	COTTON	<>	COTTON	WATCH	-1	[0, 0, 0]	-999	PAL1	0	R1303E
353.844	0.017	406127	REC_END	n/a	5	-999	n/a	n/a	n/a	n/a	-1	[0, 0, 0]	-999	PAL1	0	R1303E
353.861	0.251	406144	PRACTICE_RETRIEVAL_ORIENT	n/a	6	2	BEAM	n/a	WAGON	BEAM	-1	[0, 0, 0]	-999	PAL1	0	R1303E
354.112	0.532	406395	PRACTICE_RETRIEVAL_ORIENT_OFF	n/a	6	2	BEAM	n/a	WAGON	BEAM	-1	[0, 0, 0]	-999	PAL1	0	R1303E
354.644	0.001	406927	PRACTICE_PROBE	n/a	6	2	BEAM	n/a	WAGON	BEAM	-1	[0, 0, 0]	-999	PAL1	0	R1303E
354.645	4.017	406928	REC_START	n/a	6	-999	n/a	n/a	n/a	n/a	-1	[0, 0, 0]	-999	PAL1	0	R1303E
358.662	0.998	410945	PROBE_OFF	n/a	6	-999	n/a	n/a	n/a	n/a	-1	[0, 0, 0]	-999	PAL1	0	R1303E
359.66	0.002	411943	REC_EVENT	5015	6	2	BEAM	<>	WAGON	BEAM	-1	[0, 0, 0]	-999	PAL1	0	R1303E
359.662	0.017	411945	REC_END	n/a	6	-999	n/a	n/a	n/a	n/a	-1	[0, 0, 0]	-999	PAL1	0	R1303E
359.679	0.267	411962	PRACTICE_RETRIEVAL_ORIENT	n/a	3	3	CHEST	n/a	CHEST	ATTIC	-1	[0, 0, 0]	-999	PAL1	0	R1303E
359.946	0.7	412229	PRACTICE_RETRIEVAL_ORIENT_OFF	n/a	3	3	CHEST	n/a	CHEST	ATTIC	-1	[0, 0, 0]	-999	PAL1	0	R1303E
360.646	0.0	412929	PRACTICE_PROBE	n/a	3	3	CHEST	n/a	CHEST	ATTIC	-1	[0, 0, 0]	-999	PAL1	0	R1303E
360.646	4.017	412929	REC_START	n/a	3	-999	n/a	n/a	n/a	n/a	-1	[0, 0, 0]	-999	PAL1	0	R1303E
364.663	0.657	416946	PROBE_OFF	n/a	3	-999	n/a	n/a	n/a	n/a	-1	[0, 0, 0]	-999	PAL1	0	R1303E
365.32	0.343	417603	REC_EVENT	4674	3	3	CHEST	<>	CHEST	ATTIC	-1	[0, 0, 0]	-999	PAL1	0	R1303E
365.663	0.017	417946	REC_END	n/a	3	-999	n/a	n/a	n/a	n/a	-1	[0, 0, 0]	-999	PAL1	0	R1303E
365.68	0.267	417963	PRACTICE_RETRIEVAL_ORIENT	n/a	2	4	CAMEL	CHEST	CAMEL	RING	-1	[0, 0, 0]	-999	PAL1	0	R1303E
365.947	0.533	418230	PRACTICE_RETRIEVAL_ORIENT_OFF	n/a	2	4	CAMEL	CHEST	CAMEL	RING	-1	[0, 0, 0]	-999	PAL1	0	R1303E
366.48	0.001	418763	PRACTICE_PROBE	n/a	2	4	CAMEL	CHEST	CAMEL	RING	-1	[0, 0, 0]	-999	PAL1	0	R1303E
366.481	3.459	418764	REC_START	n/a	2	-999	n/a	CHEST	n/a	n/a	-1	[0, 0, 0]	-999	PAL1	0	R1303E
369.94	0.557	422223	REC_EVENT	3459	2	4	CAMEL	CHEST	CAMEL	RING	-1	[0, 0, 0]	-999	PAL1	0	R1303E
370.497	1.001	422780	PROBE_OFF	n/a	2	-999	n/a	n/a	n/a	n/a	-1	[0, 0, 0]	-999	PAL1	0	R1303E
371.498	0.016	423781	REC_END	n/a	2	-999	n/a	n/a	n/a	n/a	-1	[0, 0, 0]	-999	PAL1	0	R1303E
371.514	0.267	423797	PRACTICE_RETRIEVAL_ORIENT	n/a	1	5	FLOOD	n/a	RHINO	FLOOD	-1	[0, 0, 0]	-999	PAL1	0	R1303E
371.781	0.633	424064	PRACTICE_RETRIEVAL_ORIENT_OFF	n/a	1	5	FLOOD	n/a	RHINO	FLOOD	-1	[0, 0, 0]	-999	PAL1	0	R1303E
372.414	0.001	424697	PRACTICE_PROBE	n/a	1	5	FLOOD	n/a	RHINO	FLOOD	-1	[0, 0, 0]	-999	PAL1	0	R1303E
372.415	4.017	424698	REC_START	n/a	1	-999	n/a	n/a	n/a	n/a	-1	[0, 0, 0]	-999	PAL1	0	R1303E
376.432	1.0	428714	PROBE_OFF	n/a	1	-999	n/a	n/a	n/a	n/a	-1	[0, 0, 0]	-999	PAL1	0	R1303E
377.432	0.004	429714	REC_END	n/a	1	-999	n/a	n/a	n/a	n/a	-1	[0, 0, 0]	-999	PAL1	0	R1303E
377.436	0.013	429718	REC_EVENT	5021	1	5	FLOOD	<>	RHINO	FLOOD	-1	[0, 0, 0]	-999	PAL1	0	R1303E
377.449	0.266	429731	PRACTICE_RETRIEVAL_ORIENT	n/a	4	6	TONGUE	MOUTH	IRON	TONGUE	-1	[0, 0, 0]	-999	PAL1	0	R1303E
377.715	0.517	429997	PRACTICE_RETRIEVAL_ORIENT_OFF	n/a	2	6	TONGUE	MOUTH	IRON	TONGUE	-1	[0, 0, 0]	-999	PAL1	0	R1303E
378.232	0.001	430514	PRACTICE_PROBE	n/a	4	6	TONGUE	MOUTH	IRON	TONGUE	-1	[0, 0, 0]	-999	PAL1	0	R1303E
378.233	2.91	430515	REC_START	n/a	4	-999	n/a	MOUTH	n/a	n/a	-1	[0, 0, 0]	-999	PAL1	0	R1303E
381.143	1.107	433425	REC_EVENT	2910	4	6	TONGUE	MOUTH	IRON	TONGUE	-1	[0, 0, 0]	-999	PAL1	0	R1303E
382.25	1.0	434532	PROBE_OFF	n/a	4	-999	n/a	n/a	n/a	n/a	-1	[0, 0, 0]	-999	PAL1	0	R1303E
383.25	0.011	435532	REC_END	n/a	4	-999	n/a	n/a	n/a	n/a	-1	[0, 0, 0]	-999	PAL1	0	R1303E
383.261	42.013	435543	RECALL_END	n/a	-999	-999	n/a	n/a	n/a	n/a	-1	[0, 0, 0]	-999	PAL1	0	R1303E
425.274	10.929	477554	TRIAL	n/a	-999	-999	n/a	n/a	n/a	n/a	1	[0, 0, 0]	-999	PAL1	0	R1303E
436.203	0.007	488483	ENCODING_START	n/a	-999	-999	n/a	n/a	n/a	n/a	1	[0, 0, 0]	-999	PAL1	0	R1303E
436.21	0.266	488490	STUDY_ORIENT	n/a	1	3	STRING	PARK	CAPE	STRING	1	[0, 0, 0]	-999	PAL1	0	R1303E
436.476	0.684	488756	STUDY_ORIENT_OFF	n/a	1	3	STRING	PARK	CAPE	STRING	1	[0, 0, 0]	-999	PAL1	0	R1303E
437.16	4.017	489440	STUDY_PAIR	n/a	1	3	STRING	PARK	CAPE	STRING	1	[0, 0, 0]	-999	PAL1	0	R1303E
441.177	1.017	493457	PAIR_OFF	n/a	1	3	STRING	PARK	CAPE	STRING	1	[0, 0, 0]	-999	PAL1	0	R1303E
442.194	0.266	494474	STUDY_ORIENT	n/a	2	2	NOSE	CHIN	NOSE	CHIN	1	[0, 0, 0]	-999	PAL1	0	R1303E
442.46	0.584	494740	STUDY_ORIENT_OFF	n/a	2	2	NOSE	CHIN	NOSE	CHIN	1	[0, 0, 0]	-999	PAL1	0	R1303E
443.044	4.001	495324	STUDY_PAIR	n/a	2	2	NOSE	CHIN	NOSE	CHIN	1	[0, 0, 0]	-999	PAL1	0	R1303E
447.045	1.017	499325	PAIR_OFF	n/a	2	2	NOSE	CHIN	NOSE	CHIN	1	[0, 0, 0]	-999	PAL1	0	R1303E
448.062	0.266	500342	STUDY_ORIENT	n/a	3	1	DESK	n/a	FLAME	DESK	1	[0, 0, 0]	-999	PAL1	0	R1303E
448.328	0.533	500608	STUDY_ORIENT_OFF	n/a	3	1	DESK	n/a	FLAME	DESK	1	[0, 0, 0]	-999	PAL1	0	R1303E
448.861	4.017	501140	STUDY_PAIR	n/a	3	1	DESK	n/a	FLAME	DESK	1	[0, 0, 0]	-999	PAL1	0	R1303E
452.878	1.017	505157	PAIR_OFF	n/a	3	1	DESK	n/a	FLAME	DESK	1	[0, 0, 0]	-999	PAL1	0	R1303E
453.895	0.268	506174	STUDY_ORIENT	n/a	4	4	JEEP	ROCK	HOOF	JEEP	1	[0, 0, 0]	-999	PAL1	0	R1303E
454.163	0.616	506442	STUDY_ORIENT_OFF	n/a	4	4	JEEP	ROCK	HOOF	JEEP	1	[0, 0, 0]	-999	PAL1	0	R1303E
454.779	4.017	507058	STUDY_PAIR	n/a	4	4	JEEP	ROCK	HOOF	JEEP	1	[0, 0, 0]	-999	PAL1	0	R1303E
458.796	1.017	511075	PAIR_OFF	n/a	4	4	JEEP	ROCK	HOOF	JEEP	1	[0, 0, 0]	-999	PAL1	0	R1303E
459.813	0.268	512092	STUDY_ORIENT	n/a	5	5	STEM	TREE	STEM	DRESS	1	[0, 0, 0]	-999	PAL1	0	R1303E
460.081	0.666	512360	STUDY_ORIENT_OFF	n/a	5	5	STEM	TREE	STEM	DRESS	1	[0, 0, 0]	-999	PAL1	0	R1303E
460.747	4.017	513026	STUDY_PAIR	n/a	5	5	STEM	TREE	STEM	DRESS	1	[0, 0, 0]	-999	PAL1	0	R1303E
464.764	1.017	517043	PAIR_OFF	n/a	5	5	STEM	TREE	STEM	DRESS	1	[0, 0, 0]	-999	PAL1	0	R1303E
465.781	0.268	518060	STUDY_ORIENT	n/a	6	6	DRUM	HOOF	STORE	DRUM	1	[0, 0, 0]	-999	PAL1	0	R1303E
466.049	0.615	518328	STUDY_ORIENT_OFF	n/a	6	6	DRUM	HOOF	STORE	DRUM	1	[0, 0, 0]	-999	PAL1	0	R1303E
466.664	4.018	518943	STUDY_PAIR	n/a	6	6	DRUM	HOOF	STORE	DRUM	1	[0, 0, 0]	-999	PAL1	0	R1303E
470.682	1.001	522961	PAIR_OFF	n/a	6	6	DRUM	HOOF	STORE	DRUM	1	[0, 0, 0]	-999	PAL1	0	R1303E
471.683	0.0	523962	MATH_START	n/a	-999	-999	n/a	n/a	n/a	n/a	1	[0, 0, 0]	-999	PAL1	0	R1303E
471.683	0.0	523962	ENCODING_END	n/a	-999	-999	n/a	n/a	n/a	n/a	1	[0, 0, 0]	-999	PAL1	0	R1303E
471.683	0.015	523962	START	n/a	-999	-999	n/a	n/a	n/a	n/a	1	[-999, -999, -999]	-999	PAL1	0	R1303E
471.698	9.453	523977	PROB	9424	-999	-999	n/a	n/a	n/a	n/a	1	[9, 3, 5]	17	PAL1	0	R1303E
481.151	9.018	533429	PROB	8996	-999	-999	n/a	n/a	n/a	n/a	1	[4, 8, 7]	17	PAL1	0	R1303E
490.169	6.588	542447	PROB	6588	-999	-999	n/a	n/a	n/a	n/a	1	[2, 4, 9]	15	PAL1	0	R1303E
496.757	0.013	549035	STOP	n/a	-999	-999	n/a	n/a	n/a	n/a	1	[-999, -999, -999]	-999	PAL1	0	R1303E
496.77	0.0	549048	MATH_END	n/a	-999	-999	n/a	n/a	n/a	n/a	1	[0, 0, 0]	-999	PAL1	0	R1303E
496.77	0.016	549048	RECALL_START	n/a	-999	-999	n/a	n/a	n/a	n/a	1	[0, 0, 0]	-999	PAL1	0	R1303E
496.786	0.268	549064	TEST_ORIENT	n/a	3	1	DESK	n/a	FLAME	DESK	1	[0, 0, 0]	-999	PAL1	0	R1303E
497.054	0.716	549332	RETRIEVAL_ORIENT_OFF	n/a	-999	-999	n/a	n/a	n/a	n/a	1	[0, 0, 0]	-999	PAL1	0	R1303E
497.77	0.0	550048	TEST_PROBE	n/a	3	1	DESK	n/a	FLAME	DESK	1	[0, 0, 0]	-999	PAL1	0	R1303E
497.77	4.017	550048	REC_START	n/a	3	-999	n/a	n/a	n/a	n/a	1	[0, 0, 0]	-999	PAL1	0	R1303E
501.787	0.998	554064	PROBE_OFF	n/a	3	-999	n/a	n/a	n/a	n/a	1	[0, 0, 0]	-999	PAL1	0	R1303E
502.785	0.002	555062	REC_EVENT	5015	3	1	DESK	<>	FLAME	DESK	1	[0, 0, 0]	-999	PAL1	0	R1303E
502.787	0.017	555064	REC_END	n/a	3	-999	n/a	n/a	n/a	n/a	1	[0, 0, 0]	-999	PAL1	0	R1303E
502.804	0.268	555081	TEST_ORIENT	n/a	2	2	NOSE	CHIN	NOSE	CHIN	1	[0, 0, 0]	-999	PAL1	0	R1303E
503.072	0.649	555349	RETRIEVAL_ORIENT_OFF	n/a	3	-999	n/a	n/a	n/a	n/a	1	[0, 0, 0]	-999	PAL1	0	R1303E
503.721	0.0	555998	TEST_PROBE	n/a	2	2	NOSE	CHIN	NOSE	CHIN	1	[0, 0, 0]	-999	PAL1	0	R1303E
503.721	1.279	555998	REC_START	n/a	2	-999	n/a	CHIN	n/a	n/a	1	[0, 0, 0]	-999	PAL1	0	R1303E
505.0	2.738	557277	REC_EVENT	1279	2	2	NOSE	CHIN	NOSE	CHIN	1	[0, 0, 0]	-999	PAL1	0	R1303E
507.738	1.001	560015	PROBE_OFF	n/a	2	-999	n/a	n/a	n/a	n/a	1	[0, 0, 0]	-999	PAL1	0	R1303E
508.739	0.016	561016	REC_END	n/a	2	-999	n/a	n/a	n/a	n/a	1	[0, 0, 0]	-999	PAL1	0	R1303E
508.755	0.268	561032	TEST_ORIENT	n/a	1	3	STRING	PARK	CAPE	STRING	1	[0, 0, 0]	-999	PAL1	0	R1303E
509.023	0.632	561300	RETRIEVAL_ORIENT_OFF	n/a	2	-999	n/a	n/a	n/a	n/a	1	[0, 0, 0]	-999	PAL1	0	R1303E
509.655	0.001	561932	TEST_PROBE	n/a	1	3	STRING	PARK	CAPE	STRING	1	[0, 0, 0]	-999	PAL1	0	R1303E
509.656	3.479	561933	REC_START	n/a	1	-999	n/a	PARK	n/a	n/a	1	[0, 0, 0]	-999	PAL1	0	R1303E
513.135	0.538	565412	REC_EVENT	3479	1	3	STRING	PARK	CAPE	STRING	1	[0, 0, 0]	-999	PAL1	0	R1303E
513.673	1.0	565950	PROBE_OFF	n/a	1	-999	n/a	n/a	n/a	n/a	1	[0, 0, 0]	-999	PAL1	0	R1303E
514.673	0.016	566950	REC_END	n/a	1	-999	n/a	n/a	n/a	n/a	1	[0, 0, 0]	-999	PAL1	0	R1303E
514.689	0.268	566966	TEST_ORIENT	n/a	4	4	JEEP	ROCK	HOOF	JEEP	1	[0, 0, 0]	-999	PAL1	0	R1303E
514.957	0.599	567234	RETRIEVAL_ORIENT_OFF	n/a	1	-999	n/a	n/a	n/a	n/a	1	[0, 0, 0]	-999	PAL1	0	R1303E
515.556	0.001	567833	TEST_PROBE	n/a	4	4	JEEP	ROCK	HOOF	JEEP	1	[0, 0, 0]	-999	PAL1	0	R1303E
515.557	4.014	567834	REC_START	n/a	4	-999	n/a	ROCK	n/a	n/a	1	[0, 0, 0]	-999	PAL1	0	R1303E
519.571	0.003	571848	REC_EVENT	4014	4	4	JEEP	<>	HOOF	JEEP	1	[0, 0, 0]	-999	PAL1	0	R1303E
519.574	0.567	571851	PROBE_OFF	n/a	4	-999	n/a	n/a	n/a	n/a	1	[0, 0, 0]	-999	PAL1	0	R1303E
520.141	0.433	572418	REC_EVENT	4584	4	4	JEEP	ROCK	HOOF	JEEP	1	[0, 0, 0]	-999	PAL1	0	R1303E
520.574	0.016	572851	REC_END	n/a	4	-999	n/a	n/a	n/a	n/a	1	[0, 0, 0]	-999	PAL1	0	R1303E
520.59	0.267	572867	TEST_ORIENT	n/a	5	5	STEM	TREE	STEM	DRESS	1	[0, 0, 0]	-999	PAL1	0	R1303E
520.857	0.75	573134	RETRIEVAL_ORIENT_OFF	n/a	4	-999	n/a	n/a	n/a	n/a	1	[0, 0, 0]	-999	PAL1	0	R1303E
521.607	0.001	573884	TEST_PROBE	n/a	5	5	STEM	TREE	STEM	DRESS	1	[0, 0, 0]	-999	PAL1	0	R1303E
521.608	2.774	573885	REC_START	n/a	5	-999	n/a	TREE	n/a	n/a	1	[0, 0, 0]	-999	PAL1	0	R1303E
524.382	1.243	576658	REC_EVENT	2774	5	5	STEM	TREE	STEM	DRESS	1	[0, 0, 0]	-999	PAL1	0	R1303E
525.625	1.0	577901	PROBE_OFF	n/a	5	-999	n/a	n/a	n/a	n/a	1	[0, 0, 0]	-999	PAL1	0	R1303E
526.625	0.016	578901	REC_END	n/a	5	-999	n/a	n/a	n/a	n/a	1	[0, 0, 0]	-999	PAL1	0	R1303E
526.641	0.267	578917	TEST_ORIENT	n/a	6	6	DRUM	HOOF	STORE	DRUM	1	[0, 0, 0]	-999	PAL1	0	R1303E
526.908	0.534	579184	RETRIEVAL_ORIENT_OFF	n/a	5	-999	n/a	n/a	n/a	n/a	1	[0, 0, 0]	-999	PAL1	0	R1303E
527.442	0.0	579718	TEST_PROBE	n/a	6	6	DRUM	HOOF	STORE	DRUM	1	[0, 0, 0]	-999	PAL1	0	R1303E
527.442	2.7	579718	REC_START	n/a	6	-999	n/a	HOOF	n/a	n/a	1	[0, 0, 0]	-999	PAL1	0	R1303E
530.142	1.317	582418	REC_EVENT	2700	6	6	DRUM	HOOF	STORE	DRUM	1	[0, 0, 0]	-999	PAL1	0	R1303E
531.459	1.0	583735	PROBE_OFF	n/a	6	-999	n/a	n/a	n/a	n/a	1	[0, 0, 0]	-999	PAL1	0	R1303E
532.459	0.004	584735	REC_END	n/a	6	-999	n/a	n/a	n/a	n/a	1	[0, 0, 0]	-999	PAL1	0	R1303E
532.463	33.703	584739	RECALL_END	n/a	-999	-999	n/a	n/a	n/a	n/a	1	[0, 0, 0]	-999	PAL1	0	R1303E
566.166	10.929	618441	TRIAL	n/a	-999	-999	n/a	n/a	n/a	n/a	2	[0, 0, 0]	-999	PAL1	0	R1303E
577.095	0.006	629369	ENCODING_START	n/a	-999	-999	n/a	n/a	n/a	n/a	2	[0, 0, 0]	-999	PAL1	0	R1303E
577.101	0.266	629375	STUDY_ORIENT	n/a	1	5	SNAIL	TAIL	SNAIL	PHONE	2	[0, 0, 0]	-999	PAL1	0	R1303E
577.367	0.718	629641	STUDY_ORIENT_OFF	n/a	1	5	SNAIL	TAIL	SNAIL	PHONE	2	[0, 0, 0]	-999	PAL1	0	R1303E
578.085	4.017	630359	STUDY_PAIR	n/a	1	5	SNAIL	TAIL	SNAIL	PHONE	2	[0, 0, 0]	-999	PAL1	0	R1303E
582.102	1.017	634376	PAIR_OFF	n/a	1	5	SNAIL	TAIL	SNAIL	PHONE	2	[0, 0, 0]	-999	PAL1	0	R1303E
583.119	0.266	635393	STUDY_ORIENT	n/a	2	2	SPOON	n/a	TAIL	SPOON	2	[0, 0, 0]	-999	PAL1	0	R1303E
583.385	0.651	635659	STUDY_ORIENT_OFF	n/a	2	2	SPOON	n/a	TAIL	SPOON	2	[0, 0, 0]	-999	PAL1	0	R1303E
584.036	4.017	636310	STUDY_PAIR	n/a	2	2	SPOON	n/a	TAIL	SPOON	2	[0, 0, 0]	-999	PAL1	0	R1303E
588.053	1.017	640327	PAIR_OFF	n/a	2	2	SPOON	n/a	TAIL	SPOON	2	[0, 0, 0]	-999	PAL1	0	R1303E
589.07	0.266	641344	STUDY_ORIENT	n/a	3	3	LAND	PASS	LAND	SLEEVE	2	[0, 0, 0]	-999	PAL1	0	R1303E
589.336	0.566	641610	STUDY_ORIENT_OFF	n/a	3	3	LAND	PASS	LAND	SLEEVE	2	[0, 0, 0]	-999	PAL1	0	R1303E
589.902	4.001	642176	STUDY_PAIR	n/a	3	3	LAND	PASS	LAND	SLEEVE	2	[0, 0, 0]	-999	PAL1	0	R1303E
593.903	1.017	646177	PAIR_OFF	n/a	3	3	LAND	PASS	LAND	SLEEVE	2	[0, 0, 0]	-999	PAL1	0	R1303E
594.92	0.268	647194	STUDY_ORIENT	n/a	4	6	HOUSE	TREE	HOUSE	TREE	2	[0, 0, 0]	-999	PAL1	0	R1303E
595.188	0.582	647462	STUDY_ORIENT_OFF	n/a	4	6	HOUSE	TREE	HOUSE	TREE	2	[0, 0, 0]	-999	PAL1	0	R1303E
595.77	4.018	648044	STUDY_PAIR	n/a	4	6	HOUSE	TREE	HOUSE	TREE	2	[0, 0, 0]	-999	PAL1	0	R1303E
599.788	1.016	652062	PAIR_OFF	n/a	4	6	HOUSE	TREE	HOUSE	TREE	2	[0, 0, 0]	-999	PAL1	0	R1303E
600.804	0.251	653077	STUDY_ORIENT	n/a	5	1	APE	MUD	MUD	APE	2	[0, 0, 0]	-999	PAL1	0	R1303E
601.055	0.7	653328	STUDY_ORIENT_OFF	n/a	5	1	APE	MUD	MUD	APE	2	[0, 0, 0]	-999	PAL1	0	R1303E
601.755	4.017	654028	STUDY_PAIR	n/a	5	1	APE	MUD	MUD	APE	2	[0, 0, 0]	-999	PAL1	0	R1303E
605.772	1.017	658045	PAIR_OFF	n/a	5	1	APE	MUD	MUD	APE	2	[0, 0, 0]	-999	PAL1	0	R1303E
606.789	0.268	659062	STUDY_ORIENT	n/a	6	4	RAKE	n/a	RAKE	DIME	2	[0, 0, 0]	-999	PAL1	0	R1303E
607.057	0.749	659330	STUDY_ORIENT_OFF	n/a	6	4	RAKE	n/a	RAKE	DIME	2	[0, 0, 0]	-999	PAL1	0	R1303E
607.806	4.017	660079	STUDY_PAIR	n/a	6	4	RAKE	n/a	RAKE	DIME	2	[0, 0, 0]	-999	PAL1	0	R1303E
611.823	1.001	664096	PAIR_OFF	n/a	6	4	RAKE	n/a	RAKE	DIME	2	[0, 0, 0]	-999	PAL1	0	R1303E
612.824	0.0	665097	MATH_START	n/a	-999	-999	n/a	n/a	n/a	n/a	2	[0, 0, 0]	-999	PAL1	0	R1303E
612.824	0.0	665097	ENCODING_END	n/a	-999	-999	n/a	n/a	n/a	n/a	2	[0, 0, 0]	-999	PAL1	0	R1303E
612.824	0.016	665097	START	n/a	-999	-999	n/a	n/a	n/a	n/a	2	[-999, -999, -999]	-999	PAL1	0	R1303E
612.84	5.518	665113	PROB	5480	-999	-999	n/a	n/a	n/a	n/a	2	[3, 5, 7]	15	PAL1	0	R1303E
618.358	37.416	670631	PROB	37416	-999	-999	n/a	n/a	n/a	n/a	2	[9, 5, 8]	21	PAL1	0	R1303E
655.774	0.006	708045	STOP	n/a	-999	-999	n/a	n/a	n/a	n/a	2	[-999, -999, -999]	-999	PAL1	0	R1303E
655.78	0.001	708051	MATH_END	n/a	-999	-999	n/a	n/a	n/a	n/a	2	[0, 0, 0]	-999	PAL1	0	R1303E
655.781	0.016	708052	RECALL_START	n/a	-999	-999	n/a	n/a	n/a	n/a	2	[0, 0, 0]	-999	PAL1	0	R1303E
655.797	0.251	708068	TEST_ORIENT	n/a	5	1	APE	MUD	MUD	APE	2	[0, 0, 0]	-999	PAL1	0	R1303E
656.048	0.683	708319	RETRIEVAL_ORIENT_OFF	n/a	-999	-999	n/a	n/a	n/a	n/a	2	[0, 0, 0]	-999	PAL1	0	R1303E
656.731	0.0	709002	TEST_PROBE	n/a	5	1	APE	MUD	MUD	APE	2	[0, 0, 0]	-999	PAL1	0	R1303E
656.731	2.754	709002	REC_START	n/a	5	-999	n/a	MUD	n/a	n/a	2	[0, 0, 0]	-999	PAL1	0	R1303E
659.485	1.263	711756	REC_EVENT	2754	5	1	APE	MUD	MUD	APE	2	[0, 0, 0]	-999	PAL1	0	R1303E
660.748	1.0	713019	PROBE_OFF	n/a	5	-999	n/a	n/a	n/a	n/a	2	[0, 0, 0]	-999	PAL1	0	R1303E
661.748	0.017	714019	REC_END	n/a	5	-999	n/a	n/a	n/a	n/a	2	[0, 0, 0]	-999	PAL1	0	R1303E
661.765	0.251	714036	TEST_ORIENT	n/a	2	2	SPOON	n/a	TAIL	SPOON	2	[0, 0, 0]	-999	PAL1	0	R1303E
662.016	0.749	714287	RETRIEVAL_ORIENT_OFF	n/a	5	-999	n/a	n/a	n/a	n/a	2	[0, 0, 0]	-999	PAL1	0	R1303E
662.765	0.001	715036	TEST_PROBE	n/a	2	2	SPOON	n/a	TAIL	SPOON	2	[0, 0, 0]	-999	PAL1	0	R1303E
662.766	4.017	715037	REC_START	n/a	2	-999	n/a	n/a	n/a	n/a	2	[0, 0, 0]	-999	PAL1	0	R1303E
666.783	0.998	719054	PROBE_OFF	n/a	2	-999	n/a	n/a	n/a	n/a	2	[0, 0, 0]	-999	PAL1	0	R1303E
667.781	0.002	720052	REC_EVENT	5015	2	2	SPOON	<>	TAIL	SPOON	2	[0, 0, 0]	-999	PAL1	0	R1303E
667.783	0.016	720054	REC_END	n/a	2	-999	n/a	n/a	n/a	n/a	2	[0, 0, 0]	-999	PAL1	0	R1303E
667.799	0.268	720070	TEST_ORIENT	n/a	3	3	LAND	PASS	LAND	SLEEVE	2	[0, 0, 0]	-999	PAL1	0	R1303E
668.067	0.616	720338	RETRIEVAL_ORIENT_OFF	n/a	2	-999	n/a	n/a	n/a	n/a	2	[0, 0, 0]	-999	PAL1	0	R1303E
668.683	0.001	720954	TEST_PROBE	n/a	3	3	LAND	PASS	LAND	SLEEVE	2	[0, 0, 0]	-999	PAL1	0	R1303E
668.684	2.099	720955	REC_START	n/a	3	-999	n/a	PASS	n/a	n/a	2	[0, 0, 0]	-999	PAL1	0	R1303E
670.783	1.917	723054	REC_EVENT	2099	3	3	LAND	PASS	LAND	SLEEVE	2	[0, 0, 0]	-999	PAL1	0	R1303E
672.7	1.0	724971	PROBE_OFF	n/a	3	-999	n/a	n/a	n/a	n/a	2	[0, 0, 0]	-999	PAL1	0	R1303E
673.7	0.017	725971	REC_END	n/a	3	-999	n/a	n/a	n/a	n/a	2	[0, 0, 0]	-999	PAL1	0	R1303E
673.717	0.268	725988	TEST_ORIENT	n/a	6	4	RAKE	n/a	RAKE	DIME	2	[0, 0, 0]	-999	PAL1	0	R1303E
673.985	0.516	726256	RETRIEVAL_ORIENT_OFF	n/a	3	-999	n/a	n/a	n/a	n/a	2	[0, 0, 0]	-999	PAL1	0	R1303E
674.501	0.0	726772	TEST_PROBE	n/a	6	4	RAKE	n/a	RAKE	DIME	2	[0, 0, 0]	-999	PAL1	0	R1303E
674.501	3.394	726772	REC_START	n/a	6	-999	n/a	n/a	n/a	n/a	2	[0, 0, 0]	-999	PAL1	0	R1303E
677.895	0.623	730165	REC_EVENT	3394	6	4	RAKE	<>	RAKE	DIME	2	[0, 0, 0]	-999	PAL1	0	R1303E
678.518	0.377	730788	PROBE_OFF	n/a	6	-999	n/a	n/a	n/a	n/a	2	[0, 0, 0]	-999	PAL1	0	R1303E
678.895	0.623	731165	REC_EVENT	4394	6	4	RAKE	<>	RAKE	DIME	2	[0, 0, 0]	-999	PAL1	0	R1303E
679.518	0.017	731788	REC_END	n/a	6	-999	n/a	n/a	n/a	n/a	2	[0, 0, 0]	-999	PAL1	0	R1303E
679.535	0.267	731805	TEST_ORIENT	n/a	1	5	SNAIL	TAIL	SNAIL	PHONE	2	[0, 0, 0]	-999	PAL1	0	R1303E
679.802	0.7	732072	RETRIEVAL_ORIENT_OFF	n/a	6	-999	n/a	n/a	n/a	n/a	2	[0, 0, 0]	-999	PAL1	0	R1303E
680.502	0.0	732772	TEST_PROBE	n/a	1	5	SNAIL	TAIL	SNAIL	PHONE	2	[0, 0, 0]	-999	PAL1	0	R1303E
680.502	1.644	732772	REC_START	n/a	1	-999	n/a	TAIL	n/a	n/a	2	[0, 0, 0]	-999	PAL1	0	R1303E
682.146	2.373	734416	REC_EVENT	1644	1	5	SNAIL	TAIL	SNAIL	PHONE	2	[0, 0, 0]	-999	PAL1	0	R1303E
684.519	1.0	736789	PROBE_OFF	n/a	1	-999	n/a	n/a	n/a	n/a	2	[0, 0, 0]	-999	PAL1	0	R1303E
685.519	0.017	737789	REC_END	n/a	1	-999	n/a	n/a	n/a	n/a	2	[0, 0, 0]	-999	PAL1	0	R1303E
685.536	0.267	737806	TEST_ORIENT	n/a	4	6	HOUSE	TREE	HOUSE	TREE	2	[0, 0, 0]	-999	PAL1	0	R1303E
685.803	0.583	738073	RETRIEVAL_ORIENT_OFF	n/a	1	-999	n/a	n/a	n/a	n/a	2	[0, 0, 0]	-999	PAL1	0	R1303E
686.386	0.001	738656	TEST_PROBE	n/a	4	6	HOUSE	TREE	HOUSE	TREE	2	[0, 0, 0]	-999	PAL1	0	R1303E
686.387	1.739	738657	REC_START	n/a	4	-999	n/a	TREE	n/a	n/a	2	[0, 0, 0]	-999	PAL1	0	R1303E
688.126	2.277	740396	REC_EVENT	1739	4	6	HOUSE	TREE	HOUSE	TREE	2	[0, 0, 0]	-999	PAL1	0	R1303E
690.403	1.0	742673	PROBE_OFF	n/a	4	-999	n/a	n/a	n/a	n/a	2	[0, 0, 0]	-999	PAL1	0	R1303E
691.403	0.005	743673	REC_END	n/a	4	-999	n/a	n/a	n/a	n/a	2	[0, 0, 0]	-999	PAL1	0	R1303E
691.408	22.567	743678	RECALL_END	n/a	-999	-999	n/a	n/a	n/a	n/a	2	[0, 0, 0]	-999	PAL1	0	R1303E
713.975	10.929	766244	TRIAL	n/a	-999	-999	n/a	n/a	n/a	n/a	3	[0, 0, 0]	-999	PAL1	0	R1303E
724.904	0.006	777173	ENCODING_START	n/a	-999	-999	n/a	n/a	n/a	n/a	3	[0, 0, 0]	-999	PAL1	0	R1303E
724.91	0.267	777179	STUDY_ORIENT	n/a	1	5	PLATE	TRAY	SEA	PLATE	3	[0, 0, 0]	-999	PAL1	0	R1303E
725.177	0.699	777446	STUDY_ORIENT_OFF	n/a	1	5	PLATE	TRAY	SEA	PLATE	3	[0, 0, 0]	-999	PAL1	0	R1303E
725.876	4.018	778145	STUDY_PAIR	n/a	1	5	PLATE	TRAY	SEA	PLATE	3	[0, 0, 0]	-999	PAL1	0	R1303E
729.894	1.017	782162	PAIR_OFF	n/a	1	5	PLATE	TRAY	SEA	PLATE	3	[0, 0, 0]	-999	PAL1	0	R1303E
730.911	0.267	783179	STUDY_ORIENT	n/a	2	4	TRAY	PLATE	RUG	TRAY	3	[0, 0, 0]	-999	PAL1	0	R1303E
731.178	0.516	783446	STUDY_ORIENT_OFF	n/a	2	4	TRAY	PLATE	RUG	TRAY	3	[0, 0, 0]	-999	PAL1	0	R1303E
731.694	4.017	783962	STUDY_PAIR	n/a	2	4	TRAY	PLATE	RUG	TRAY	3	[0, 0, 0]	-999	PAL1	0	R1303E
735.711	1.017	787979	PAIR_OFF	n/a	2	4	TRAY	PLATE	RUG	TRAY	3	[0, 0, 0]	-999	PAL1	0	R1303E
736.728	0.251	788996	STUDY_ORIENT	n/a	3	1	WAVE	FOG	SKY	WAVE	3	[0, 0, 0]	-999	PAL1	0	R1303E
736.979	0.75	789247	STUDY_ORIENT_OFF	n/a	3	1	WAVE	FOG	SKY	WAVE	3	[0, 0, 0]	-999	PAL1	0	R1303E
737.729	4.017	789997	STUDY_PAIR	n/a	3	1	WAVE	FOG	SKY	WAVE	3	[0, 0, 0]	-999	PAL1	0	R1303E
741.746	1.017	794014	PAIR_OFF	n/a	3	1	WAVE	FOG	SKY	WAVE	3	[0, 0, 0]	-999	PAL1	0	R1303E
742.763	0.267	795031	STUDY_ORIENT	n/a	4	6	STOOL	n/a	FROG	STOOL	3	[0, 0, 0]	-999	PAL1	0	R1303E
743.03	0.583	795298	STUDY_ORIENT_OFF	n/a	4	6	STOOL	n/a	FROG	STOOL	3	[0, 0, 0]	-999	PAL1	0	R1303E
743.613	4.017	795881	STUDY_PAIR	n/a	4	6	STOOL	n/a	FROG	STOOL	3	[0, 0, 0]	-999	PAL1	0	R1303E
747.63	1.017	799898	PAIR_OFF	n/a	4	6	STOOL	n/a	FROG	STOOL	3	[0, 0, 0]	-999	PAL1	0	R1303E
748.647	0.267	800915	STUDY_ORIENT	n/a	5	3	FORT	NAIL	NAIL	FORT	3	[0, 0, 0]	-999	PAL1	0	R1303E
748.914	0.667	801182	STUDY_ORIENT_OFF	n/a	5	3	FORT	NAIL	NAIL	FORT	3	[0, 0, 0]	-999	PAL1	0	R1303E
749.581	4.017	801849	STUDY_PAIR	n/a	5	3	FORT	NAIL	NAIL	FORT	3	[0, 0, 0]	-999	PAL1	0	R1303E
753.598	1.017	805865	PAIR_OFF	n/a	5	3	FORT	NAIL	NAIL	FORT	3	[0, 0, 0]	-999	PAL1	0	R1303E
754.615	0.266	806882	STUDY_ORIENT	n/a	6	2	FOG	n/a	PIPE	FOG	3	[0, 0, 0]	-999	PAL1	0	R1303E
754.881	0.717	807148	STUDY_ORIENT_OFF	n/a	6	2	FOG	n/a	PIPE	FOG	3	[0, 0, 0]	-999	PAL1	0	R1303E
755.598	4.018	807865	STUDY_PAIR	n/a	6	2	FOG	n/a	PIPE	FOG	3	[0, 0, 0]	-999	PAL1	0	R1303E
759.616	1.001	811883	PAIR_OFF	n/a	6	2	FOG	n/a	PIPE	FOG	3	[0, 0, 0]	-999	PAL1	0	R1303E
760.617	0.0	812884	MATH_START	n/a	-999	-999	n/a	n/a	n/a	n/a	3	[0, 0, 0]	-999	PAL1	0	R1303E
760.617	0.0	812884	ENCODING_END	n/a	-999	-999	n/a	n/a	n/a	n/a	3	[0, 0, 0]	-999	PAL1	0	R1303E
760.617	0.015	812884	START	n/a	-999	-999	n/a	n/a	n/a	n/a	3	[-999, -999, -999]	-999	PAL1	0	R1303E
760.632	6.486	812899	PROB	6452	-999	-999	n/a	n/a	n/a	n/a	3	[3, 7, 7]	17	PAL1	0	R1303E
767.118	11.919	819385	PROB	11890	-999	-999	n/a	n/a	n/a	n/a	3	[8, 3, 7]	18	PAL1	0	R1303E
779.037	10.243	831303	PROB	10243	-999	-999	n/a	n/a	n/a	n/a	3	[7, 8, 9]	23	PAL1	0	R1303E
789.28	0.008	841546	STOP	n/a	-999	-999	n/a	n/a	n/a	n/a	3	[-999, -999, -999]	-999	PAL1	0	R1303E
789.288	0.0	841554	MATH_END	n/a	-999	-999	n/a	n/a	n/a	n/a	3	[0, 0, 0]	-999	PAL1	0	R1303E
789.288	0.016	841554	RECALL_START	n/a	-999	-999	n/a	n/a	n/a	n/a	3	[0, 0, 0]	-999	PAL1	0	R1303E
789.304	0.267	841570	TEST_ORIENT	n/a	3	1	WAVE	FOG	SKY	WAVE	3	[0, 0, 0]	-999	PAL1	0	R1303E
789.571	0.65	841837	RETRIEVAL_ORIENT_OFF	n/a	-999	-999	n/a	n/a	n/a	n/a	3	[0, 0, 0]	-999	PAL1	0	R1303E
790.221	0.001	842487	TEST_PROBE	n/a	3	1	WAVE	FOG	SKY	WAVE	3	[0, 0, 0]	-999	PAL1	0	R1303E
790.222	0.989	842488	REC_START	n/a	3	-999	n/a	FOG	n/a	n/a	3	[0, 0, 0]	-999	PAL1	0	R1303E
791.211	0.72	843477	REC_EVENT	989	3	1	WAVE	WAVE	SKY	WAVE	3	[0, 0, 0]	-999	PAL1	0	R1303E
791.931	1.665	844197	REC_EVENT	1709	3	1	WAVE	<>	SKY	WAVE	3	[0, 0, 0]	-999	PAL1	0	R1303E
793.596	0.642	845862	REC_EVENT	3374	3	1	WAVE	FOG	SKY	WAVE	3	[0, 0, 0]	-999	PAL1	0	R1303E
794.238	1.001	846504	PROBE_OFF	n/a	3	-999	n/a	n/a	n/a	n/a	3	[0, 0, 0]	-999	PAL1	0	R1303E
795.239	0.016	847505	REC_END	n/a	3	-999	n/a	n/a	n/a	n/a	3	[0, 0, 0]	-999	PAL1	0	R1303E
795.255	0.267	847521	TEST_ORIENT	n/a	6	2	FOG	n/a	PIPE	FOG	3	[0, 0, 0]	-999	PAL1	0	R1303E
795.522	0.618	847788	RETRIEVAL_ORIENT_OFF	n/a	3	-999	n/a	n/a	n/a	n/a	3	[0, 0, 0]	-999	PAL1	0	R1303E
796.14	0.0	848406	REC_START	n/a	6	-999	n/a	n/a	n/a	n/a	3	[0, 0, 0]	-999	PAL1	0	R1303E
796.14	4.017	848406	TEST_PROBE	n/a	6	2	FOG	n/a	PIPE	FOG	3	[0, 0, 0]	-999	PAL1	0	R1303E
800.157	0.998	852423	PROBE_OFF	n/a	6	-999	n/a	n/a	n/a	n/a	3	[0, 0, 0]	-999	PAL1	0	R1303E
801.155	0.002	853421	REC_EVENT	5015	6	2	FOG	<>	PIPE	FOG	3	[0, 0, 0]	-999	PAL1	0	R1303E
801.157	0.017	853423	REC_END	n/a	6	-999	n/a	n/a	n/a	n/a	3	[0, 0, 0]	-999	PAL1	0	R1303E
801.174	0.266	853440	TEST_ORIENT	n/a	5	3	FORT	NAIL	NAIL	FORT	3	[0, 0, 0]	-999	PAL1	0	R1303E
801.44	0.734	853706	RETRIEVAL_ORIENT_OFF	n/a	6	-999	n/a	n/a	n/a	n/a	3	[0, 0, 0]	-999	PAL1	0	R1303E
802.174	0.001	854439	TEST_PROBE	n/a	5	3	FORT	NAIL	NAIL	FORT	3	[0, 0, 0]	-999	PAL1	0	R1303E
802.175	1.994	854440	REC_START	n/a	5	-999	n/a	NAIL	n/a	n/a	3	[0, 0, 0]	-999	PAL1	0	R1303E
804.169	2.022	856434	REC_EVENT	1994	5	3	FORT	NAIL	NAIL	FORT	3	[0, 0, 0]	-999	PAL1	0	R1303E
806.191	1.0	858456	PROBE_OFF	n/a	5	-999	n/a	n/a	n/a	n/a	3	[0, 0, 0]	-999	PAL1	0	R1303E
807.191	0.017	859456	REC_END	n/a	5	-999	n/a	n/a	n/a	n/a	3	[0, 0, 0]	-999	PAL1	0	R1303E
807.208	0.266	859473	TEST_ORIENT	n/a	2	4	TRAY	PLATE	RUG	TRAY	3	[0, 0, 0]	-999	PAL1	0	R1303E
807.474	0.75	859739	RETRIEVAL_ORIENT_OFF	n/a	5	-999	n/a	n/a	n/a	n/a	3	[0, 0, 0]	-999	PAL1	0	R1303E
808.224	0.001	860489	TEST_PROBE	n/a	2	4	TRAY	PLATE	RUG	TRAY	3	[0, 0, 0]	-999	PAL1	0	R1303E
808.225	3.904	860490	REC_START	n/a	2	-999	n/a	PLATE	n/a	n/a	3	[0, 0, 0]	-999	PAL1	0	R1303E
812.129	0.113	864394	REC_EVENT	3904	2	4	TRAY	PLATE	RUG	TRAY	3	[0, 0, 0]	-999	PAL1	0	R1303E
812.242	1.0	864507	PROBE_OFF	n/a	2	-999	n/a	n/a	n/a	n/a	3	[0, 0, 0]	-999	PAL1	0	R1303E
813.242	0.016	865507	REC_END	n/a	2	-999	n/a	n/a	n/a	n/a	3	[0, 0, 0]	-999	PAL1	0	R1303E
813.258	0.267	865523	TEST_ORIENT	n/a	1	5	PLATE	TRAY	SEA	PLATE	3	[0, 0, 0]	-999	PAL1	0	R1303E
813.525	0.734	865790	RETRIEVAL_ORIENT_OFF	n/a	2	-999	n/a	n/a	n/a	n/a	3	[0, 0, 0]	-999	PAL1	0	R1303E
814.259	0.0	866524	TEST_PROBE	n/a	1	5	PLATE	TRAY	SEA	PLATE	3	[0, 0, 0]	-999	PAL1	0	R1303E
814.259	3.739	866524	REC_START	n/a	1	-999	n/a	TRAY	n/a	n/a	3	[0, 0, 0]	-999	PAL1	0	R1303E
817.998	0.278	870263	REC_EVENT	3739	1	5	PLATE	TRAY	SEA	PLATE	3	[0, 0, 0]	-999	PAL1	0	R1303E
818.276	1.001	870541	PROBE_OFF	n/a	1	-999	n/a	n/a	n/a	n/a	3	[0, 0, 0]	-999	PAL1	0	R1303E
819.277	0.016	871542	REC_END	n/a	1	-999	n/a	n/a	n/a	n/a	3	[0, 0, 0]	-999	PAL1	0	R1303E
819.293	0.266	871558	TEST_ORIENT	n/a	4	6	STOOL	n/a	FROG	STOOL	3	[0, 0, 0]	-999	PAL1	0	R1303E
819.559	0.684	871824	RETRIEVAL_ORIENT_OFF	n/a	1	-999	n/a	n/a	n/a	n/a	3	[0, 0, 0]	-999	PAL1	0	R1303E
820.243	0.0	872508	TEST_PROBE	n/a	4	6	STOOL	n/a	FROG	STOOL	3	[0, 0, 0]	-999	PAL1	0	R1303E
820.243	4.017	872508	REC_START	n/a	4	-999	n/a	n/a	n/a	n/a	3	[0, 0, 0]	-999	PAL1	0	R1303E
824.26	0.998	876525	PROBE_OFF	n/a	4	-999	n/a	n/a	n/a	n/a	3	[0, 0, 0]	-999	PAL1	0	R1303E
825.258	0.002	877523	REC_EVENT	5015	4	6	STOOL	<>	FROG	STOOL	3	[0, 0, 0]	-999	PAL1	0	R1303E
825.26	0.013	877525	REC_END	n/a	4	-999	n/a	n/a	n/a	n/a	3	[0, 0, 0]	-999	PAL1	0	R1303E
825.273	8.072	877538	RECALL_END	n/a	-999	-999	n/a	n/a	n/a	n/a	3	[0, 0, 0]	-999	PAL1	0	R1303E
833.345	10.929	885609	TRIAL	n/a	-999	-999	n/a	n/a	n/a	n/a	4	[0, 0, 0]	-999	PAL1	0	R1303E
844.274	0.006	896538	ENCODING_START	n/a	-999	-999	n/a	n/a	n/a	n/a	4	[0, 0, 0]	-999	PAL1	0	R1303E
844.28	0.267	896544	STUDY_ORIENT	n/a	1	1	BAT	CAVE	BAT	JAR	4	[0, 0, 0]	-999	PAL1	0	R1303E
844.547	0.684	896811	STUDY_ORIENT_OFF	n/a	1	1	BAT	CAVE	BAT	JAR	4	[0, 0, 0]	-999	PAL1	0	R1303E
845.231	4.017	897495	STUDY_PAIR	n/a	1	1	BAT	CAVE	BAT	JAR	4	[0, 0, 0]	-999	PAL1	0	R1303E
849.248	1.017	901512	PAIR_OFF	n/a	1	1	BAT	CAVE	BAT	JAR	4	[0, 0, 0]	-999	PAL1	0	R1303E
850.265	0.267	902529	STUDY_ORIENT	n/a	2	4	OWL	TREE	CHALK	OWL	4	[0, 0, 0]	-999	PAL1	0	R1303E
850.532	0.75	902796	STUDY_ORIENT_OFF	n/a	2	4	OWL	TREE	CHALK	OWL	4	[0, 0, 0]	-999	PAL1	0	R1303E
851.282	4.017	903546	STUDY_PAIR	n/a	2	4	OWL	TREE	CHALK	OWL	4	[0, 0, 0]	-999	PAL1	0	R1303E
855.299	1.017	907562	PAIR_OFF	n/a	2	4	OWL	TREE	CHALK	OWL	4	[0, 0, 0]	-999	PAL1	0	R1303E
856.316	0.267	908579	STUDY_ORIENT	n/a	3	3	HILL	FORT	CART	HILL	4	[0, 0, 0]	-999	PAL1	0	R1303E
856.583	0.75	908846	STUDY_ORIENT_OFF	n/a	3	3	HILL	FORT	CART	HILL	4	[0, 0, 0]	-999	PAL1	0	R1303E
857.333	4.017	909596	STUDY_PAIR	n/a	3	3	HILL	FORT	CART	HILL	4	[0, 0, 0]	-999	PAL1	0	R1303E
861.35	1.017	913613	PAIR_OFF	n/a	3	3	HILL	FORT	CART	HILL	4	[0, 0, 0]	-999	PAL1	0	R1303E
862.367	0.267	914630	STUDY_ORIENT	n/a	4	6	WOOD	NAIL	AXE	WOOD	4	[0, 0, 0]	-999	PAL1	0	R1303E
862.634	0.733	914897	STUDY_ORIENT_OFF	n/a	4	6	WOOD	NAIL	AXE	WOOD	4	[0, 0, 0]	-999	PAL1	0	R1303E
863.367	4.018	915630	STUDY_PAIR	n/a	4	6	WOOD	NAIL	AXE	WOOD	4	[0, 0, 0]	-999	PAL1	0	R1303E
867.385	1.016	919648	PAIR_OFF	n/a	4	6	WOOD	NAIL	AXE	WOOD	4	[0, 0, 0]	-999	PAL1	0	R1303E
868.401	0.267	920664	STUDY_ORIENT	n/a	5	5	STAIR	PASS	ARM	STAIR	4	[0, 0, 0]	-999	PAL1	0	R1303E
868.668	0.584	920931	STUDY_ORIENT_OFF	n/a	5	5	STAIR	PASS	ARM	STAIR	4	[0, 0, 0]	-999	PAL1	0	R1303E
869.252	4.017	921515	STUDY_PAIR	n/a	5	5	STAIR	PASS	ARM	STAIR	4	[0, 0, 0]	-999	PAL1	0	R1303E
873.269	1.017	925532	PAIR_OFF	n/a	5	5	STAIR	PASS	ARM	STAIR	4	[0, 0, 0]	-999	PAL1	0	R1303E
874.286	0.266	926549	STUDY_ORIENT	n/a	6	2	BEACH	SAND	BEACH	PLANT	4	[0, 0, 0]	-999	PAL1	0	R1303E
874.552	0.652	926815	STUDY_ORIENT_OFF	n/a	6	2	BEACH	SAND	BEACH	PLANT	4	[0, 0, 0]	-999	PAL1	0	R1303E
875.204	4.016	927467	STUDY_PAIR	n/a	6	2	BEACH	SAND	BEACH	PLANT	4	[0, 0, 0]	-999	PAL1	0	R1303E
879.22	1.0	931482	PAIR_OFF	n/a	6	2	BEACH	SAND	BEACH	PLANT	4	[0, 0, 0]	-999	PAL1	0	R1303E
880.22	0.0	932482	MATH_START	n/a	-999	-999	n/a	n/a	n/a	n/a	4	[0, 0, 0]	-999	PAL1	0	R1303E
880.22	0.001	932482	ENCODING_END	n/a	-999	-999	n/a	n/a	n/a	n/a	4	[0, 0, 0]	-999	PAL1	0	R1303E
880.221	0.016	932483	START	n/a	-999	-999	n/a	n/a	n/a	n/a	4	[-999, -999, -999]	-999	PAL1	0	R1303E
880.237	6.368	932499	PROB	6330	-999	-999	n/a	n/a	n/a	n/a	4	[1, 9, 2]	12	PAL1	0	R1303E
886.605	5.15	938867	PROB	5114	-999	-999	n/a	n/a	n/a	n/a	4	[2, 8, 5]	15	PAL1	0	R1303E
891.755	6.068	944017	PROB	6038	-999	-999	n/a	n/a	n/a	n/a	4	[9, 2, 2]	13	PAL1	0	R1303E
897.823	7.867	950085	PROB	7867	-999	-999	n/a	n/a	n/a	n/a	4	[9, 2, 9]	20	PAL1	0	R1303E
905.69	0.018	957951	STOP	n/a	-999	-999	n/a	n/a	n/a	n/a	4	[-999, -999, -999]	-999	PAL1	0	R1303E
905.708	0.0	957969	MATH_END	n/a	-999	-999	n/a	n/a	n/a	n/a	4	[0, 0, 0]	-999	PAL1	0	R1303E
905.708	0.017	957969	RECALL_START	n/a	-999	-999	n/a	n/a	n/a	n/a	4	[0, 0, 0]	-999	PAL1	0	R1303E
905.725	0.267	957986	TEST_ORIENT	n/a	1	1	BAT	CAVE	BAT	JAR	4	[0, 0, 0]	-999	PAL1	0	R1303E
905.992	0.633	958253	RETRIEVAL_ORIENT_OFF	n/a	-999	-999	n/a	n/a	n/a	n/a	4	[0, 0, 0]	-999	PAL1	0	R1303E
906.625	0.0	958886	TEST_PROBE	n/a	1	1	BAT	CAVE	BAT	JAR	4	[0, 0, 0]	-999	PAL1	0	R1303E
906.625	2.674	958886	REC_START	n/a	1	-999	n/a	CAVE	n/a	n/a	4	[0, 0, 0]	-999	PAL1	0	R1303E
909.299	1.343	961560	REC_EVENT	2674	1	1	BAT	CAVE	BAT	JAR	4	[0, 0, 0]	-999	PAL1	0	R1303E
910.642	1.0	962903	PROBE_OFF	n/a	1	-999	n/a	n/a	n/a	n/a	4	[0, 0, 0]	-999	PAL1	0	R1303E
911.642	0.017	963903	REC_END	n/a	1	-999	n/a	n/a	n/a	n/a	4	[0, 0, 0]	-999	PAL1	0	R1303E
911.659	0.267	963920	TEST_ORIENT	n/a	6	2	BEACH	SAND	BEACH	PLANT	4	[0, 0, 0]	-999	PAL1	0	R1303E
911.926	0.616	964187	RETRIEVAL_ORIENT_OFF	n/a	1	-999	n/a	n/a	n/a	n/a	4	[0, 0, 0]	-999	PAL1	0	R1303E
912.542	0.001	964803	TEST_PROBE	n/a	6	2	BEACH	SAND	BEACH	PLANT	4	[0, 0, 0]	-999	PAL1	0	R1303E
912.543	3.084	964804	REC_START	n/a	6	-999	n/a	SAND	n/a	n/a	4	[0, 0, 0]	-999	PAL1	0	R1303E
915.627	0.933	967888	REC_EVENT	3084	6	2	BEACH	SAND	BEACH	PLANT	4	[0, 0, 0]	-999	PAL1	0	R1303E
916.56	1.012	968821	PROBE_OFF	n/a	6	-999	n/a	n/a	n/a	n/a	4	[0, 0, 0]	-999	PAL1	0	R1303E
917.572	0.021	969833	REC_END	n/a	6	-999	n/a	n/a	n/a	n/a	4	[0, 0, 0]	-999	PAL1	0	R1303E
917.593	0.267	969854	TEST_ORIENT	n/a	3	3	HILL	FORT	CART	HILL	4	[0, 0, 0]	-999	PAL1	0	R1303E
917.86	0.75	970121	RETRIEVAL_ORIENT_OFF	n/a	6	-999	n/a	n/a	n/a	n/a	4	[0, 0, 0]	-999	PAL1	0	R1303E
918.61	0.001	970871	TEST_PROBE	n/a	3	3	HILL	FORT	CART	HILL	4	[0, 0, 0]	-999	PAL1	0	R1303E
918.611	2.944	970872	REC_START	n/a	3	-999	n/a	FORT	n/a	n/a	4	[0, 0, 0]	-999	PAL1	0	R1303E
921.555	1.073	973816	REC_EVENT	2944	3	3	HILL	FORT	CART	HILL	4	[0, 0, 0]	-999	PAL1	0	R1303E
922.628	1.0	974889	PROBE_OFF	n/a	3	-999	n/a	n/a	n/a	n/a	4	[0, 0, 0]	-999	PAL1	0	R1303E
923.628	0.016	975889	REC_END	n/a	3	-999	n/a	n/a	n/a	n/a	4	[0, 0, 0]	-999	PAL1	0	R1303E
923.644	0.267	975905	TEST_ORIENT	n/a	2	4	OWL	TREE	CHALK	OWL	4	[0, 0, 0]	-999	PAL1	0	R1303E
923.911	0.534	976172	RETRIEVAL_ORIENT_OFF	n/a	3	-999	n/a	n/a	n/a	n/a	4	[0, 0, 0]	-999	PAL1	0	R1303E
924.445	0.0	976706	TEST_PROBE	n/a	2	4	OWL	TREE	CHALK	OWL	4	[0, 0, 0]	-999	PAL1	0	R1303E
924.445	2.524	976706	REC_START	n/a	2	-999	n/a	TREE	n/a	n/a	4	[0, 0, 0]	-999	PAL1	0	R1303E
926.969	1.493	979230	REC_EVENT	2524	2	4	OWL	TREE	CHALK	OWL	4	[0, 0, 0]	-999	PAL1	0	R1303E
928.462	1.001	980722	PROBE_OFF	n/a	2	-999	n/a	n/a	n/a	n/a	4	[0, 0, 0]	-999	PAL1	0	R1303E
929.463	0.016	981723	REC_END	n/a	2	-999	n/a	n/a	n/a	n/a	4	[0, 0, 0]	-999	PAL1	0	R1303E
929.479	0.266	981739	TEST_ORIENT	n/a	5	5	STAIR	PASS	ARM	STAIR	4	[0, 0, 0]	-999	PAL1	0	R1303E
929.745	0.584	982005	RETRIEVAL_ORIENT_OFF	n/a	2	-999	n/a	n/a	n/a	n/a	4	[0, 0, 0]	-999	PAL1	0	R1303E
930.329	0.0	982589	TEST_PROBE	n/a	5	5	STAIR	PASS	ARM	STAIR	4	[0, 0, 0]	-999	PAL1	0	R1303E
930.329	3.619	982589	REC_START	n/a	5	-999	n/a	PASS	n/a	n/a	4	[0, 0, 0]	-999	PAL1	0	R1303E
933.948	0.398	986208	REC_EVENT	3619	5	5	STAIR	PASS	ARM	STAIR	4	[0, 0, 0]	-999	PAL1	0	R1303E
934.346	1.0	986606	PROBE_OFF	n/a	5	-999	n/a	n/a	n/a	n/a	4	[0, 0, 0]	-999	PAL1	0	R1303E
935.346	0.017	987606	REC_END	n/a	5	-999	n/a	n/a	n/a	n/a	4	[0, 0, 0]	-999	PAL1	0	R1303E
935.363	0.267	987623	TEST_ORIENT	n/a	4	6	WOOD	NAIL	AXE	WOOD	4	[0, 0, 0]	-999	PAL1	0	R1303E
935.63	0.65	987890	RETRIEVAL_ORIENT_OFF	n/a	5	-999	n/a	n/a	n/a	n/a	4	[0, 0, 0]	-999	PAL1	0	R1303E
936.28	0.001	988540	TEST_PROBE	n/a	4	6	WOOD	NAIL	AXE	WOOD	4	[0, 0, 0]	-999	PAL1	0	R1303E
936.281	2.79	988541	REC_START	n/a	4	-999	n/a	NAIL	n/a	n/a	4	[0, 0, 0]	-999	PAL1	0	R1303E
939.071	1.226	991331	REC_EVENT	2790	4	6	WOOD	NAIL	AXE	WOOD	4	[0, 0, 0]	-999	PAL1	0	R1303E
940.297	1.0	992557	PROBE_OFF	n/a	4	-999	n/a	n/a	n/a	n/a	4	[0, 0, 0]	-999	PAL1	0	R1303E
941.297	0.011	993557	REC_END	n/a	4	-999	n/a	n/a	n/a	n/a	4	[0, 0, 0]	-999	PAL1	0	R1303E
941.308	5.908	993568	RECALL_END	n/a	-999	-999	n/a	n/a	n/a	n/a	4	[0, 0, 0]	-999	PAL1	0	R1303E
947.216	10.928	999476	TRIAL	n/a	-999	-999	n/a	n/a	n/a	n/a	5	[0, 0, 0]	-999	PAL1	0	R1303E
958.144	0.007	1010403	ENCODING_START	n/a	-999	-999	n/a	n/a	n/a	n/a	5	[0, 0, 0]	-999	PAL1	0	R1303E
958.151	0.266	1010410	STUDY_ORIENT	n/a	1	3	FACE	NOSE	FACE	RIB	5	[0, 0, 0]	-999	PAL1	0	R1303E
958.417	0.701	1010676	STUDY_ORIENT_OFF	n/a	1	3	FACE	NOSE	FACE	RIB	5	[0, 0, 0]	-999	PAL1	0	R1303E
959.118	4.018	1011377	STUDY_PAIR	n/a	1	3	FACE	NOSE	FACE	RIB	5	[0, 0, 0]	-999	PAL1	0	R1303E
963.136	1.016	1015395	PAIR_OFF	n/a	1	3	FACE	NOSE	FACE	RIB	5	[0, 0, 0]	-999	PAL1	0	R1303E
964.152	0.266	1016411	STUDY_ORIENT	n/a	2	4	TOOTH	FACE	TOOTH	HEART	5	[0, 0, 0]	-999	PAL1	0	R1303E
964.418	0.701	1016677	STUDY_ORIENT_OFF	n/a	2	4	TOOTH	FACE	TOOTH	HEART	5	[0, 0, 0]	-999	PAL1	0	R1303E
965.119	4.018	1017378	STUDY_PAIR	n/a	2	4	TOOTH	FACE	TOOTH	HEART	5	[0, 0, 0]	-999	PAL1	0	R1303E
969.137	1.017	1021396	PAIR_OFF	n/a	2	4	TOOTH	FACE	TOOTH	HEART	5	[0, 0, 0]	-999	PAL1	0	R1303E
970.154	0.265	1022413	STUDY_ORIENT	n/a	3	1	BEAR	TREE	SMOKE	BEAR	5	[0, 0, 0]	-999	PAL1	0	R1303E
970.419	0.701	1022678	STUDY_ORIENT_OFF	n/a	3	1	BEAR	TREE	SMOKE	BEAR	5	[0, 0, 0]	-999	PAL1	0	R1303E
971.12	4.018	1023379	STUDY_PAIR	n/a	3	1	BEAR	TREE	SMOKE	BEAR	5	[0, 0, 0]	-999	PAL1	0	R1303E
975.138	1.017	1027397	PAIR_OFF	n/a	3	1	BEAR	TREE	SMOKE	BEAR	5	[0, 0, 0]	-999	PAL1	0	R1303E
976.155	0.265	1028414	STUDY_ORIENT	n/a	4	6	ROCK	PASS	ROCK	JET	5	[0, 0, 0]	-999	PAL1	0	R1303E
976.42	0.685	1028679	STUDY_ORIENT_OFF	n/a	4	6	ROCK	PASS	ROCK	JET	5	[0, 0, 0]	-999	PAL1	0	R1303E
977.105	4.017	1029364	STUDY_PAIR	n/a	4	6	ROCK	PASS	ROCK	JET	5	[0, 0, 0]	-999	PAL1	0	R1303E
981.122	1.017	1033380	PAIR_OFF	n/a	4	6	ROCK	PASS	ROCK	JET	5	[0, 0, 0]	-999	PAL1	0	R1303E
982.139	0.266	1034397	STUDY_ORIENT	n/a	5	5	JUDGE	MOUSE	PURSE	JUDGE	5	[0, 0, 0]	-999	PAL1	0	R1303E
982.405	0.734	1034663	STUDY_ORIENT_OFF	n/a	5	5	JUDGE	MOUSE	PURSE	JUDGE	5	[0, 0, 0]	-999	PAL1	0	R1303E
983.139	4.017	1035397	STUDY_PAIR	n/a	5	5	JUDGE	MOUSE	PURSE	JUDGE	5	[0, 0, 0]	-999	PAL1	0	R1303E
987.156	1.017	1039414	PAIR_OFF	n/a	5	5	JUDGE	MOUSE	PURSE	JUDGE	5	[0, 0, 0]	-999	PAL1	0	R1303E
988.173	0.266	1040431	STUDY_ORIENT	n/a	6	2	MOUSE	BANK	BANK	MOUSE	5	[0, 0, 0]	-999	PAL1	0	R1303E
988.439	0.718	1040697	STUDY_ORIENT_OFF	n/a	6	2	MOUSE	BANK	BANK	MOUSE	5	[0, 0, 0]	-999	PAL1	0	R1303E
989.157	4.017	1041415	STUDY_PAIR	n/a	6	2	MOUSE	BANK	BANK	MOUSE	5	[0, 0, 0]	-999	PAL1	0	R1303E
993.174	1.0	1045432	PAIR_OFF	n/a	6	2	MOUSE	BANK	BANK	MOUSE	5	[0, 0, 0]	-999	PAL1	0	R1303E
994.174	0.0	1046432	ENCODING_END	n/a	-999	-999	n/a	n/a	n/a	n/a	5	[0, 0, 0]	-999	PAL1	0	R1303E
994.174	0.0	1046432	MATH_START	n/a	-999	-999	n/a	n/a	n/a	n/a	5	[0, 0, 0]	-999	PAL1	0	R1303E
994.174	0.017	1046432	START	n/a	-999	-999	n/a	n/a	n/a	n/a	5	[-999, -999, -999]	-999	PAL1	0	R1303E
994.191	8.067	1046449	PROB	8035	-999	-999	n/a	n/a	n/a	n/a	5	[1, 6, 5]	13	PAL1	0	R1303E
1002.258	9.318	1054516	PROB	9293	-999	-999	n/a	n/a	n/a	n/a	5	[7, 8, 7]	22	PAL1	0	R1303E
1011.576	8.034	1063833	PROB	8034	-999	-999	n/a	n/a	n/a	n/a	5	[6, 6, 6]	18	PAL1	0	R1303E
1019.61	0.018	1071867	STOP	n/a	-999	-999	n/a	n/a	n/a	n/a	5	[-999, -999, -999]	-999	PAL1	0	R1303E
1019.628	0.0	1071885	RECALL_START	n/a	-999	-999	n/a	n/a	n/a	n/a	5	[0, 0, 0]	-999	PAL1	0	R1303E
1019.628	0.017	1071885	MATH_END	n/a	-999	-999	n/a	n/a	n/a	n/a	5	[0, 0, 0]	-999	PAL1	0	R1303E
1019.645	0.266	1071902	TEST_ORIENT	n/a	3	1	BEAR	TREE	SMOKE	BEAR	5	[0, 0, 0]	-999	PAL1	0	R1303E
1019.911	0.65	1072168	RETRIEVAL_ORIENT_OFF	n/a	-999	-999	n/a	n/a	n/a	n/a	5	[0, 0, 0]	-999	PAL1	0	R1303E
1020.561	0.001	1072818	TEST_PROBE	n/a	3	1	BEAR	TREE	SMOKE	BEAR	5	[0, 0, 0]	-999	PAL1	0	R1303E
1020.562	4.017	1072819	REC_START	n/a	3	-999	n/a	TREE	n/a	n/a	5	[0, 0, 0]	-999	PAL1	0	R1303E
1024.579	0.052	1076836	PROBE_OFF	n/a	3	-999	n/a	n/a	n/a	n/a	5	[0, 0, 0]	-999	PAL1	0	R1303E
1024.631	0.948	1076888	REC_EVENT	4069	3	1	BEAR	TREE	SMOKE	BEAR	5	[0, 0, 0]	-999	PAL1	0	R1303E
1025.579	0.033	1077836	REC_END	n/a	3	-999	n/a	n/a	n/a	n/a	5	[0, 0, 0]	-999	PAL1	0	R1303E
1025.612	0.267	1077869	TEST_ORIENT	n/a	6	2	MOUSE	BANK	BANK	MOUSE	5	[0, 0, 0]	-999	PAL1	0	R1303E
1025.879	0.7	1078136	RETRIEVAL_ORIENT_OFF	n/a	3	-999	n/a	n/a	n/a	n/a	5	[0, 0, 0]	-999	PAL1	0	R1303E
1026.579	0.001	1078836	TEST_PROBE	n/a	6	2	MOUSE	BANK	BANK	MOUSE	5	[0, 0, 0]	-999	PAL1	0	R1303E
1026.58	3.609	1078837	REC_START	n/a	6	-999	n/a	BANK	n/a	n/a	5	[0, 0, 0]	-999	PAL1	0	R1303E
1030.189	0.408	1082445	REC_EVENT	3609	6	2	MOUSE	BANK	BANK	MOUSE	5	[0, 0, 0]	-999	PAL1	0	R1303E
1030.597	1.0	1082853	PROBE_OFF	n/a	6	-999	n/a	n/a	n/a	n/a	5	[0, 0, 0]	-999	PAL1	0	R1303E
1031.597	0.016	1083853	REC_END	n/a	6	-999	n/a	n/a	n/a	n/a	5	[0, 0, 0]	-999	PAL1	0	R1303E
1031.613	0.267	1083869	TEST_ORIENT	n/a	1	3	FACE	NOSE	FACE	RIB	5	[0, 0, 0]	-999	PAL1	0	R1303E
1031.88	0.567	1084136	RETRIEVAL_ORIENT_OFF	n/a	6	-999	n/a	n/a	n/a	n/a	5	[0, 0, 0]	-999	PAL1	0	R1303E
1032.447	0.0	1084703	TEST_PROBE	n/a	1	3	FACE	NOSE	FACE	RIB	5	[0, 0, 0]	-999	PAL1	0	R1303E
1032.447	1.509	1084703	REC_START	n/a	1	-999	n/a	NOSE	n/a	n/a	5	[0, 0, 0]	-999	PAL1	0	R1303E
1033.956	2.508	1086212	REC_EVENT	1509	1	3	FACE	NOSE	FACE	RIB	5	[0, 0, 0]	-999	PAL1	0	R1303E
1036.464	1.0	1088720	PROBE_OFF	n/a	1	-999	n/a	n/a	n/a	n/a	5	[0, 0, 0]	-999	PAL1	0	R1303E
1037.464	0.017	1089720	REC_END	n/a	1	-999	n/a	n/a	n/a	n/a	5	[0, 0, 0]	-999	PAL1	0	R1303E
1037.481	0.267	1089737	TEST_ORIENT	n/a	2	4	TOOTH	FACE	TOOTH	HEART	5	[0, 0, 0]	-999	PAL1	0	R1303E
1037.748	0.683	1090004	RETRIEVAL_ORIENT_OFF	n/a	1	-999	n/a	n/a	n/a	n/a	5	[0, 0, 0]	-999	PAL1	0	R1303E
1038.431	0.001	1090687	TEST_PROBE	n/a	2	4	TOOTH	FACE	TOOTH	HEART	5	[0, 0, 0]	-999	PAL1	0	R1303E
1038.432	2.474	1090688	REC_START	n/a	2	-999	n/a	FACE	n/a	n/a	5	[0, 0, 0]	-999	PAL1	0	R1303E
1040.906	1.543	1093162	REC_EVENT	2474	2	4	TOOTH	FACE	TOOTH	HEART	5	[0, 0, 0]	-999	PAL1	0	R1303E
1042.449	1.0	1094705	PROBE_OFF	n/a	2	-999	n/a	n/a	n/a	n/a	5	[0, 0, 0]	-999	PAL1	0	R1303E
1043.449	0.016	1095705	REC_END	n/a	2	-999	n/a	n/a	n/a	n/a	5	[0, 0, 0]	-999	PAL1	0	R1303E
1043.465	0.267	1095721	TEST_ORIENT	n/a	5	5	JUDGE	MOUSE	PURSE	JUDGE	5	[0, 0, 0]	-999	PAL1	0	R1303E
1043.732	0.734	1095988	RETRIEVAL_ORIENT_OFF	n/a	2	-999	n/a	n/a	n/a	n/a	5	[0, 0, 0]	-999	PAL1	0	R1303E
1044.466	0.0	1096722	TEST_PROBE	n/a	5	5	JUDGE	MOUSE	PURSE	JUDGE	5	[0, 0, 0]	-999	PAL1	0	R1303E
1044.466	2.464	1096722	REC_START	n/a	5	-999	n/a	MOUSE	n/a	n/a	5	[0, 0, 0]	-999	PAL1	0	R1303E
1046.93	1.553	1099186	REC_EVENT	2464	5	5	JUDGE	MOUSE	PURSE	JUDGE	5	[0, 0, 0]	-999	PAL1	0	R1303E
1048.483	1.001	1100739	PROBE_OFF	n/a	5	-999	n/a	n/a	n/a	n/a	5	[0, 0, 0]	-999	PAL1	0	R1303E
1049.484	0.016	1101740	REC_END	n/a	5	-999	n/a	n/a	n/a	n/a	5	[0, 0, 0]	-999	PAL1	0	R1303E
1049.5	0.267	1101756	TEST_ORIENT	n/a	4	6	ROCK	PASS	ROCK	JET	5	[0, 0, 0]	-999	PAL1	0	R1303E
1049.767	0.583	1102023	RETRIEVAL_ORIENT_OFF	n/a	5	-999	n/a	n/a	n/a	n/a	5	[0, 0, 0]	-999	PAL1	0	R1303E
1050.35	0.001	1102606	TEST_PROBE	n/a	4	6	ROCK	PASS	ROCK	JET	5	[0, 0, 0]	-999	PAL1	0	R1303E
1050.351	2.114	1102607	REC_START	n/a	4	-999	n/a	PASS	n/a	n/a	5	[0, 0, 0]	-999	PAL1	0	R1303E
1052.465	1.902	1104721	REC_EVENT	2114	4	6	ROCK	PASS	ROCK	JET	5	[0, 0, 0]	-999	PAL1	0	R1303E
1054.367	1.001	1106623	PROBE_OFF	n/a	4	-999	n/a	n/a	n/a	n/a	5	[0, 0, 0]	-999	PAL1	0	R1303E
1055.368	0.01	1107623	REC_END	n/a	4	-999	n/a	n/a	n/a	n/a	5	[0, 0, 0]	-999	PAL1	0	R1303E
1055.378	7.625	1107633	RECALL_END	n/a	-999	-999	n/a	n/a	n/a	n/a	5	[0, 0, 0]	-999	PAL1	0	R1303E
1063.003	10.928	1115258	TRIAL	n/a	-999	-999	n/a	n/a	n/a	n/a	6	[0, 0, 0]	-999	PAL1	0	R1303E
1073.931	0.006	1126186	ENCODING_START	n/a	-999	-999	n/a	n/a	n/a	n/a	6	[0, 0, 0]	-999	PAL1	0	R1303E
1073.937	0.251	1126192	STUDY_ORIENT	n/a	1	5	MULE	MOUSE	MULE	WHALE	6	[0, 0, 0]	-999	PAL1	0	R1303E
1074.188	0.6	1126443	STUDY_ORIENT_OFF	n/a	1	5	MULE	MOUSE	MULE	WHALE	6	[0, 0, 0]	-999	PAL1	0	R1303E
1074.788	4.017	1127043	STUDY_PAIR	n/a	1	5	MULE	MOUSE	MULE	WHALE	6	[0, 0, 0]	-999	PAL1	0	R1303E
1078.805	1.017	1131060	PAIR_OFF	n/a	1	5	MULE	MOUSE	MULE	WHALE	6	[0, 0, 0]	-999	PAL1	0	R1303E
1079.822	0.268	1132076	STUDY_ORIENT	n/a	2	2	EAR	TOOTH	EAR	POLE	6	[0, 0, 0]	-999	PAL1	0	R1303E
1080.09	0.682	1132344	STUDY_ORIENT_OFF	n/a	2	2	EAR	TOOTH	EAR	POLE	6	[0, 0, 0]	-999	PAL1	0	R1303E
1080.772	4.017	1133026	STUDY_PAIR	n/a	2	2	EAR	TOOTH	EAR	POLE	6	[0, 0, 0]	-999	PAL1	0	R1303E
1084.789	1.017	1137043	PAIR_OFF	n/a	2	2	EAR	TOOTH	EAR	POLE	6	[0, 0, 0]	-999	PAL1	0	R1303E
1085.806	0.251	1138060	STUDY_ORIENT	n/a	3	1	ZOO	MOUSE	ZOO	TRASH	6	[0, 0, 0]	-999	PAL1	0	R1303E
1086.057	0.733	1138311	STUDY_ORIENT_OFF	n/a	3	1	ZOO	MOUSE	ZOO	TRASH	6	[0, 0, 0]	-999	PAL1	0	R1303E
1086.79	4.017	1139044	STUDY_PAIR	n/a	3	1	ZOO	MOUSE	ZOO	TRASH	6	[0, 0, 0]	-999	PAL1	0	R1303E
1090.807	1.017	1143061	PAIR_OFF	n/a	3	1	ZOO	MOUSE	ZOO	TRASH	6	[0, 0, 0]	-999	PAL1	0	R1303E
1091.824	0.268	1144078	STUDY_ORIENT	n/a	4	4	CUBE	STEAM	FAN	CUBE	6	[0, 0, 0]	-999	PAL1	0	R1303E
1092.092	0.632	1144346	STUDY_ORIENT_OFF	n/a	4	4	CUBE	STEAM	FAN	CUBE	6	[0, 0, 0]	-999	PAL1	0	R1303E
1092.724	4.017	1144978	STUDY_PAIR	n/a	4	4	CUBE	STEAM	FAN	CUBE	6	[0, 0, 0]	-999	PAL1	0	R1303E
1096.741	1.017	1148995	PAIR_OFF	n/a	4	4	CUBE	STEAM	FAN	CUBE	6	[0, 0, 0]	-999	PAL1	0	R1303E
1097.758	0.268	1150012	STUDY_ORIENT	n/a	5	3	STEAM	FOWL	STEAM	MOLE	6	[0, 0, 0]	-999	PAL1	0	R1303E
1098.026	0.749	1150280	STUDY_ORIENT_OFF	n/a	5	3	STEAM	FOWL	STEAM	MOLE	6	[0, 0, 0]	-999	PAL1	0	R1303E
1098.775	4.017	1151029	STUDY_PAIR	n/a	5	3	STEAM	FOWL	STEAM	MOLE	6	[0, 0, 0]	-999	PAL1	0	R1303E
1102.792	1.017	1155046	PAIR_OFF	n/a	5	3	STEAM	FOWL	STEAM	MOLE	6	[0, 0, 0]	-999	PAL1	0	R1303E
1103.809	0.251	1156063	STUDY_ORIENT	n/a	6	6	DITCH	PASS	DITCH	FORK	6	[0, 0, 0]	-999	PAL1	0	R1303E
1104.06	0.633	1156314	STUDY_ORIENT_OFF	n/a	6	6	DITCH	PASS	DITCH	FORK	6	[0, 0, 0]	-999	PAL1	0	R1303E
1104.693	4.017	1156947	STUDY_PAIR	n/a	6	6	DITCH	PASS	DITCH	FORK	6	[0, 0, 0]	-999	PAL1	0	R1303E
1108.71	1.0	1160963	PAIR_OFF	n/a	6	6	DITCH	PASS	DITCH	FORK	6	[0, 0, 0]	-999	PAL1	0	R1303E
1109.71	0.0	1161963	ENCODING_END	n/a	-999	-999	n/a	n/a	n/a	n/a	6	[0, 0, 0]	-999	PAL1	0	R1303E
1109.71	0.0	1161963	MATH_START	n/a	-999	-999	n/a	n/a	n/a	n/a	6	[0, 0, 0]	-999	PAL1	0	R1303E
1109.71	0.017	1161963	START	n/a	-999	-999	n/a	n/a	n/a	n/a	6	[-999, -999, -999]	-999	PAL1	0	R1303E
1109.727	7.601	1161980	PROB	7576	-999	-999	n/a	n/a	n/a	n/a	6	[1, 9, 9]	19	PAL1	0	R1303E
1117.328	14.434	1169581	PROB	14434	-999	-999	n/a	n/a	n/a	n/a	6	[3, 1, 7]	11	PAL1	0	R1303E
1131.762	0.019	1184014	STOP	n/a	-999	-999	n/a	n/a	n/a	n/a	6	[-999, -999, -999]	-999	PAL1	0	R1303E
1131.781	0.0	1184033	MATH_END	n/a	-999	-999	n/a	n/a	n/a	n/a	6	[0, 0, 0]	-999	PAL1	0	R1303E
1131.781	0.017	1184033	RECALL_START	n/a	-999	-999	n/a	n/a	n/a	n/a	6	[0, 0, 0]	-999	PAL1	0	R1303E
1131.798	0.267	1184050	TEST_ORIENT	n/a	3	1	ZOO	MOUSE	ZOO	TRASH	6	[0, 0, 0]	-999	PAL1	0	R1303E
1132.065	0.683	1184317	RETRIEVAL_ORIENT_OFF	n/a	-999	-999	n/a	n/a	n/a	n/a	6	[0, 0, 0]	-999	PAL1	0	R1303E
1132.748	0.0	1185000	TEST_PROBE	n/a	3	1	ZOO	MOUSE	ZOO	TRASH	6	[0, 0, 0]	-999	PAL1	0	R1303E
1132.748	2.489	1185000	REC_START	n/a	3	-999	n/a	MOUSE	n/a	n/a	6	[0, 0, 0]	-999	PAL1	0	R1303E
1135.237	1.528	1187489	REC_EVENT	2489	3	1	ZOO	MOUSE	ZOO	TRASH	6	[0, 0, 0]	-999	PAL1	0	R1303E
1136.765	1.0	1189017	PROBE_OFF	n/a	3	-999	n/a	n/a	n/a	n/a	6	[0, 0, 0]	-999	PAL1	0	R1303E
1137.765	0.017	1190017	REC_END	n/a	3	-999	n/a	n/a	n/a	n/a	6	[0, 0, 0]	-999	PAL1	0	R1303E
1137.782	0.268	1190034	TEST_ORIENT	n/a	2	2	EAR	TOOTH	EAR	POLE	6	[0, 0, 0]	-999	PAL1	0	R1303E
1138.05	0.532	1190302	RETRIEVAL_ORIENT_OFF	n/a	3	-999	n/a	n/a	n/a	n/a	6	[0, 0, 0]	-999	PAL1	0	R1303E
1138.582	0.001	1190834	TEST_PROBE	n/a	2	2	EAR	TOOTH	EAR	POLE	6	[0, 0, 0]	-999	PAL1	0	R1303E
1138.583	3.529	1190835	REC_START	n/a	2	-999	n/a	TOOTH	n/a	n/a	6	[0, 0, 0]	-999	PAL1	0	R1303E
1142.112	0.487	1194364	REC_EVENT	3529	2	2	EAR	TOOTH	EAR	POLE	6	[0, 0, 0]	-999	PAL1	0	R1303E
1142.599	1.0	1194851	PROBE_OFF	n/a	2	-999	n/a	n/a	n/a	n/a	6	[0, 0, 0]	-999	PAL1	0	R1303E
1143.599	0.017	1195851	REC_END	n/a	2	-999	n/a	n/a	n/a	n/a	6	[0, 0, 0]	-999	PAL1	0	R1303E
1143.616	0.267	1195868	TEST_ORIENT	n/a	5	3	STEAM	FOWL	STEAM	MOLE	6	[0, 0, 0]	-999	PAL1	0	R1303E
1143.883	0.534	1196135	RETRIEVAL_ORIENT_OFF	n/a	2	-999	n/a	n/a	n/a	n/a	6	[0, 0, 0]	-999	PAL1	0	R1303E
1144.417	0.0	1196669	TEST_PROBE	n/a	5	3	STEAM	FOWL	STEAM	MOLE	6	[0, 0, 0]	-999	PAL1	0	R1303E
1144.417	2.984	1196669	REC_START	n/a	5	-999	n/a	FOWL	n/a	n/a	6	[0, 0, 0]	-999	PAL1	0	R1303E
1147.401	1.033	1199653	REC_EVENT	2984	5	3	STEAM	FOWL	STEAM	MOLE	6	[0, 0, 0]	-999	PAL1	0	R1303E
1148.434	1.0	1200686	PROBE_OFF	n/a	5	-999	n/a	n/a	n/a	n/a	6	[0, 0, 0]	-999	PAL1	0	R1303E
1149.434	0.017	1201686	REC_END	n/a	5	-999	n/a	n/a	n/a	n/a	6	[0, 0, 0]	-999	PAL1	0	R1303E
1149.451	0.266	1201703	TEST_ORIENT	n/a	4	4	CUBE	STEAM	FAN	CUBE	6	[0, 0, 0]	-999	PAL1	0	R1303E
1149.717	0.617	1201969	RETRIEVAL_ORIENT_OFF	n/a	5	-999	n/a	n/a	n/a	n/a	6	[0, 0, 0]	-999	PAL1	0	R1303E
1150.334	0.001	1202586	TEST_PROBE	n/a	4	4	CUBE	STEAM	FAN	CUBE	6	[0, 0, 0]	-999	PAL1	0	R1303E
1150.335	3.024	1202587	REC_START	n/a	4	-999	n/a	STEAM	n/a	n/a	6	[0, 0, 0]	-999	PAL1	0	R1303E
1153.359	0.993	1205611	REC_EVENT	3024	4	4	CUBE	STEAM	FAN	CUBE	6	[0, 0, 0]	-999	PAL1	0	R1303E
1154.352	1.012	1206604	PROBE_OFF	n/a	4	-999	n/a	n/a	n/a	n/a	6	[0, 0, 0]	-999	PAL1	0	R1303E
1155.364	0.021	1207616	REC_END	n/a	4	-999	n/a	n/a	n/a	n/a	6	[0, 0, 0]	-999	PAL1	0	R1303E
1155.385	0.267	1207637	TEST_ORIENT	n/a	1	5	MULE	MOUSE	MULE	WHALE	6	[0, 0, 0]	-999	PAL1	0	R1303E
1155.652	0.633	1207903	RETRIEVAL_ORIENT_OFF	n/a	4	-999	n/a	n/a	n/a	n/a	6	[0, 0, 0]	-999	PAL1	0	R1303E
1156.285	0.001	1208536	TEST_PROBE	n/a	1	5	MULE	MOUSE	MULE	WHALE	6	[0, 0, 0]	-999	PAL1	0	R1303E
1156.286	4.017	1208537	REC_START	n/a	1	-999	n/a	MOUSE	n/a	n/a	6	[0, 0, 0]	-999	PAL1	0	R1303E
1160.303	0.072	1212554	PROBE_OFF	n/a	1	-999	n/a	n/a	n/a	n/a	6	[0, 0, 0]	-999	PAL1	0	R1303E
1160.375	0.928	1212626	REC_EVENT	4089	1	5	MULE	MOUSE	MULE	WHALE	6	[0, 0, 0]	-999	PAL1	0	R1303E
1161.303	0.004	1213554	REC_END	n/a	1	-999	n/a	n/a	n/a	n/a	6	[0, 0, 0]	-999	PAL1	0	R1303E
1161.307	0.012	1213558	REC_EVENT	5021	1	5	MULE	<>	MULE	WHALE	6	[0, 0, 0]	-999	PAL1	0	R1303E
1161.319	0.267	1213570	TEST_ORIENT	n/a	6	6	DITCH	PASS	DITCH	FORK	6	[0, 0, 0]	-999	PAL1	0	R1303E
1161.586	0.634	1213837	RETRIEVAL_ORIENT_OFF	n/a	1	-999	n/a	n/a	n/a	n/a	6	[0, 0, 0]	-999	PAL1	0	R1303E
1162.22	0.0	1214471	TEST_PROBE	n/a	6	6	DITCH	PASS	DITCH	FORK	6	[0, 0, 0]	-999	PAL1	0	R1303E
1162.22	3.414	1214471	REC_START	n/a	6	-999	n/a	PASS	n/a	n/a	6	[0, 0, 0]	-999	PAL1	0	R1303E
1165.634	0.603	1217885	REC_EVENT	3414	6	6	DITCH	PASS	DITCH	FORK	6	[0, 0, 0]	-999	PAL1	0	R1303E
1166.237	1.0	1218488	PROBE_OFF	n/a	6	-999	n/a	n/a	n/a	n/a	6	[0, 0, 0]	-999	PAL1	0	R1303E
1167.237	0.01	1219488	REC_END	n/a	6	-999	n/a	n/a	n/a	n/a	6	[0, 0, 0]	-999	PAL1	0	R1303E
1167.247	5.641	1219498	RECALL_END	n/a	-999	-999	n/a	n/a	n/a	n/a	6	[0, 0, 0]	-999	PAL1	0	R1303E
1172.888	10.929	1225139	TRIAL	n/a	-999	-999	n/a	n/a	n/a	n/a	7	[0, 0, 0]	-999	PAL1	0	R1303E
1183.817	0.006	1236067	ENCODING_START	n/a	-999	-999	n/a	n/a	n/a	n/a	7	[0, 0, 0]	-999	PAL1	0	R1303E
1183.823	0.251	1236073	STUDY_ORIENT	n/a	1	5	HOSE	MOUSE	MOOSE	HOSE	7	[0, 0, 0]	-999	PAL1	0	R1303E
1184.074	0.616	1236324	STUDY_ORIENT_OFF	n/a	1	5	HOSE	MOUSE	MOOSE	HOSE	7	[0, 0, 0]	-999	PAL1	0	R1303E
1184.69	4.018	1236940	STUDY_PAIR	n/a	1	5	HOSE	MOUSE	MOOSE	HOSE	7	[0, 0, 0]	-999	PAL1	0	R1303E
1188.708	1.016	1240958	PAIR_OFF	n/a	1	5	HOSE	MOUSE	MOOSE	HOSE	7	[0, 0, 0]	-999	PAL1	0	R1303E
1189.724	0.268	1241974	STUDY_ORIENT	n/a	2	6	ANT	TREE	ANT	SKI	7	[0, 0, 0]	-999	PAL1	0	R1303E
1189.992	0.699	1242242	STUDY_ORIENT_OFF	n/a	2	6	ANT	TREE	ANT	SKI	7	[0, 0, 0]	-999	PAL1	0	R1303E
1190.691	4.018	1242941	STUDY_PAIR	n/a	2	6	ANT	TREE	ANT	SKI	7	[0, 0, 0]	-999	PAL1	0	R1303E
1194.709	1.017	1246959	PAIR_OFF	n/a	2	6	ANT	TREE	ANT	SKI	7	[0, 0, 0]	-999	PAL1	0	R1303E
1195.726	0.267	1247976	STUDY_ORIENT	n/a	3	1	JAIL	n/a	JAIL	VINE	7	[0, 0, 0]	-999	PAL1	0	R1303E
1195.993	0.666	1248243	STUDY_ORIENT_OFF	n/a	3	1	JAIL	n/a	JAIL	VINE	7	[0, 0, 0]	-999	PAL1	0	R1303E
1196.659	4.017	1248909	STUDY_PAIR	n/a	3	1	JAIL	n/a	JAIL	VINE	7	[0, 0, 0]	-999	PAL1	0	R1303E
1200.676	1.017	1252926	PAIR_OFF	n/a	3	1	JAIL	n/a	JAIL	VINE	7	[0, 0, 0]	-999	PAL1	0	R1303E
1201.693	0.268	1253943	STUDY_ORIENT	n/a	4	4	LAKE	PASS	MOUTH	LAKE	7	[0, 0, 0]	-999	PAL1	0	R1303E
1201.961	0.699	1254211	STUDY_ORIENT_OFF	n/a	4	4	LAKE	PASS	MOUTH	LAKE	7	[0, 0, 0]	-999	PAL1	0	R1303E
1202.66	4.017	1254910	STUDY_PAIR	n/a	4	4	LAKE	PASS	MOUTH	LAKE	7	[0, 0, 0]	-999	PAL1	0	R1303E
1206.677	1.017	1258926	PAIR_OFF	n/a	4	4	LAKE	PASS	MOUTH	LAKE	7	[0, 0, 0]	-999	PAL1	0	R1303E
1207.694	0.268	1259943	STUDY_ORIENT	n/a	5	3	DEER	MOUSE	CLOWN	DEER	7	[0, 0, 0]	-999	PAL1	0	R1303E
1207.962	0.699	1260211	STUDY_ORIENT_OFF	n/a	5	3	DEER	MOUSE	CLOWN	DEER	7	[0, 0, 0]	-999	PAL1	0	R1303E
1208.661	4.017	1260910	STUDY_PAIR	n/a	5	3	DEER	MOUSE	CLOWN	DEER	7	[0, 0, 0]	-999	PAL1	0	R1303E
1212.678	1.017	1264927	PAIR_OFF	n/a	5	3	DEER	MOUSE	CLOWN	DEER	7	[0, 0, 0]	-999	PAL1	0	R1303E
1213.695	0.268	1265944	STUDY_ORIENT	n/a	6	2	BRICK	BAND	BRICK	BARN	7	[0, 0, 0]	-999	PAL1	0	R1303E
1213.963	0.616	1266212	STUDY_ORIENT_OFF	n/a	6	2	BRICK	BAND	BRICK	BARN	7	[0, 0, 0]	-999	PAL1	0	R1303E
1214.579	4.017	1266828	STUDY_PAIR	n/a	6	2	BRICK	BAND	BRICK	BARN	7	[0, 0, 0]	-999	PAL1	0	R1303E
1218.596	1.001	1270845	PAIR_OFF	n/a	6	2	BRICK	BAND	BRICK	BARN	7	[0, 0, 0]	-999	PAL1	0	R1303E
1219.597	0.0	1271846	ENCODING_END	n/a	-999	-999	n/a	n/a	n/a	n/a	7	[0, 0, 0]	-999	PAL1	0	R1303E
1219.597	0.0	1271846	MATH_START	n/a	-999	-999	n/a	n/a	n/a	n/a	7	[0, 0, 0]	-999	PAL1	0	R1303E
1219.597	0.016	1271846	START	n/a	-999	-999	n/a	n/a	n/a	n/a	7	[-999, -999, -999]	-999	PAL1	0	R1303E
1219.613	7.318	1271862	PROB	7281	-999	-999	n/a	n/a	n/a	n/a	7	[6, 2, 4]	12	PAL1	0	R1303E
1226.931	8.252	1279180	PROB	8215	-999	-999	n/a	n/a	n/a	n/a	7	[4, 8, 4]	16	PAL1	0	R1303E
1235.183	7.792	1287431	PROB	7792	-999	-999	n/a	n/a	n/a	n/a	7	[8, 1, 6]	15	PAL1	0	R1303E
1242.975	0.01	1295223	STOP	n/a	-999	-999	n/a	n/a	n/a	n/a	7	[-999, -999, -999]	-999	PAL1	0	R1303E
1242.985	0.0	1295233	MATH_END	n/a	-999	-999	n/a	n/a	n/a	n/a	7	[0, 0, 0]	-999	PAL1	0	R1303E
1242.985	0.016	1295233	RECALL_START	n/a	-999	-999	n/a	n/a	n/a	n/a	7	[0, 0, 0]	-999	PAL1	0	R1303E
1243.001	0.266	1295249	TEST_ORIENT	n/a	3	1	JAIL	n/a	JAIL	VINE	7	[0, 0, 0]	-999	PAL1	0	R1303E
1243.267	0.718	1295515	RETRIEVAL_ORIENT_OFF	n/a	-999	-999	n/a	n/a	n/a	n/a	7	[0, 0, 0]	-999	PAL1	0	R1303E
1243.985	0.001	1296233	TEST_PROBE	n/a	3	1	JAIL	n/a	JAIL	VINE	7	[0, 0, 0]	-999	PAL1	0	R1303E
1243.986	3.594	1296234	REC_START	n/a	3	-999	n/a	n/a	n/a	n/a	7	[0, 0, 0]	-999	PAL1	0	R1303E
1247.58	0.422	1299828	REC_EVENT	3594	3	1	JAIL	<>	JAIL	VINE	7	[0, 0, 0]	-999	PAL1	0	R1303E
1248.002	1.001	1300250	PROBE_OFF	n/a	3	-999	n/a	n/a	n/a	n/a	7	[0, 0, 0]	-999	PAL1	0	R1303E
1249.003	0.016	1301251	REC_END	n/a	3	-999	n/a	n/a	n/a	n/a	7	[0, 0, 0]	-999	PAL1	0	R1303E
1249.019	0.266	1301267	TEST_ORIENT	n/a	6	2	BRICK	BAND	BRICK	BARN	7	[0, 0, 0]	-999	PAL1	0	R1303E
1249.285	0.667	1301533	RETRIEVAL_ORIENT_OFF	n/a	3	-999	n/a	n/a	n/a	n/a	7	[0, 0, 0]	-999	PAL1	0	R1303E
1249.952	0.0	1302200	TEST_PROBE	n/a	6	2	BRICK	BAND	BRICK	BARN	7	[0, 0, 0]	-999	PAL1	0	R1303E
1249.952	3.029	1302200	REC_START	n/a	6	-999	n/a	BAND	n/a	n/a	7	[0, 0, 0]	-999	PAL1	0	R1303E
1252.981	0.989	1305229	REC_EVENT	3029	6	2	BRICK	BAND	BRICK	BARN	7	[0, 0, 0]	-999	PAL1	0	R1303E
1253.97	1.0	1306218	PROBE_OFF	n/a	6	-999	n/a	n/a	n/a	n/a	7	[0, 0, 0]	-999	PAL1	0	R1303E
1254.97	0.017	1307218	REC_END	n/a	6	-999	n/a	n/a	n/a	n/a	7	[0, 0, 0]	-999	PAL1	0	R1303E
1254.987	0.266	1307235	TEST_ORIENT	n/a	5	3	DEER	MOUSE	CLOWN	DEER	7	[0, 0, 0]	-999	PAL1	0	R1303E
1255.253	0.6	1307501	RETRIEVAL_ORIENT_OFF	n/a	6	-999	n/a	n/a	n/a	n/a	7	[0, 0, 0]	-999	PAL1	0	R1303E
1255.853	0.0	1308101	REC_START	n/a	5	-999	n/a	MOUSE	n/a	n/a	7	[0, 0, 0]	-999	PAL1	0	R1303E
1255.853	3.364	1308101	TEST_PROBE	n/a	5	3	DEER	MOUSE	CLOWN	DEER	7	[0, 0, 0]	-999	PAL1	0	R1303E
1259.217	0.653	1311464	REC_EVENT	3364	5	3	DEER	MOUSE	CLOWN	DEER	7	[0, 0, 0]	-999	PAL1	0	R1303E
1259.87	1.001	1312117	PROBE_OFF	n/a	5	-999	n/a	n/a	n/a	n/a	7	[0, 0, 0]	-999	PAL1	0	R1303E
1260.871	0.016	1313118	REC_END	n/a	5	-999	n/a	n/a	n/a	n/a	7	[0, 0, 0]	-999	PAL1	0	R1303E
1260.887	0.268	1313134	TEST_ORIENT	n/a	4	4	LAKE	PASS	MOUTH	LAKE	7	[0, 0, 0]	-999	PAL1	0	R1303E
1261.155	0.715	1313402	RETRIEVAL_ORIENT_OFF	n/a	5	-999	n/a	n/a	n/a	n/a	7	[0, 0, 0]	-999	PAL1	0	R1303E
1261.87	0.001	1314117	TEST_PROBE	n/a	4	4	LAKE	PASS	MOUTH	LAKE	7	[0, 0, 0]	-999	PAL1	0	R1303E
1261.871	3.059	1314118	REC_START	n/a	4	-999	n/a	PASS	n/a	n/a	7	[0, 0, 0]	-999	PAL1	0	R1303E
1264.93	0.958	1317177	REC_EVENT	3059	4	4	LAKE	PASS	MOUTH	LAKE	7	[0, 0, 0]	-999	PAL1	0	R1303E
1265.888	1.0	1318135	PROBE_OFF	n/a	4	-999	n/a	n/a	n/a	n/a	7	[0, 0, 0]	-999	PAL1	0	R1303E
1266.888	0.017	1319135	REC_END	n/a	4	-999	n/a	n/a	n/a	n/a	7	[0, 0, 0]	-999	PAL1	0	R1303E
1266.905	0.267	1319152	TEST_ORIENT	n/a	1	5	HOSE	MOUSE	MOOSE	HOSE	7	[0, 0, 0]	-999	PAL1	0	R1303E
1267.172	0.749	1319419	RETRIEVAL_ORIENT_OFF	n/a	4	-999	n/a	n/a	n/a	n/a	7	[0, 0, 0]	-999	PAL1	0	R1303E
1267.921	0.001	1320168	TEST_PROBE	n/a	1	5	HOSE	MOUSE	MOOSE	HOSE	7	[0, 0, 0]	-999	PAL1	0	R1303E
1267.922	3.134	1320169	REC_START	n/a	1	-999	n/a	MOUSE	n/a	n/a	7	[0, 0, 0]	-999	PAL1	0	R1303E
1271.056	0.866	1323303	REC_EVENT	3134	1	5	HOSE	MOUSE	MOOSE	HOSE	7	[0, 0, 0]	-999	PAL1	0	R1303E
1271.922	1.0	1324169	PROBE_OFF	n/a	1	-999	n/a	n/a	n/a	n/a	7	[0, 0, 0]	-999	PAL1	0	R1303E
1272.922	0.017	1325169	REC_END	n/a	1	-999	n/a	n/a	n/a	n/a	7	[0, 0, 0]	-999	PAL1	0	R1303E
1272.939	0.268	1325186	TEST_ORIENT	n/a	2	6	ANT	TREE	ANT	SKI	7	[0, 0, 0]	-999	PAL1	0	R1303E
1273.207	0.616	1325454	RETRIEVAL_ORIENT_OFF	n/a	1	-999	n/a	n/a	n/a	n/a	7	[0, 0, 0]	-999	PAL1	0	R1303E
1273.823	0.0	1326070	TEST_PROBE	n/a	2	6	ANT	TREE	ANT	SKI	7	[0, 0, 0]	-999	PAL1	0	R1303E
1273.823	2.204	1326070	REC_START	n/a	2	-999	n/a	TREE	n/a	n/a	7	[0, 0, 0]	-999	PAL1	0	R1303E
1276.027	1.813	1328274	REC_EVENT	2204	2	6	ANT	TREE	ANT	SKI	7	[0, 0, 0]	-999	PAL1	0	R1303E
1277.84	1.0	1330087	PROBE_OFF	n/a	2	-999	n/a	n/a	n/a	n/a	7	[0, 0, 0]	-999	PAL1	0	R1303E
1278.84	0.011	1331087	REC_END	n/a	2	-999	n/a	n/a	n/a	n/a	7	[0, 0, 0]	-999	PAL1	0	R1303E
1278.851	3.54	1331098	RECALL_END	n/a	-999	-999	n/a	n/a	n/a	n/a	7	[0, 0, 0]	-999	PAL1	0	R1303E
1282.391	10.929	1334637	TRIAL	n/a	-999	-999	n/a	n/a	n/a	n/a	8	[0, 0, 0]	-999	PAL1	0	R1303E
1293.32	0.006	1345566	ENCODING_START	n/a	-999	-999	n/a	n/a	n/a	n/a	8	[0, 0, 0]	-999	PAL1	0	R1303E
1293.326	0.267	1345572	STUDY_ORIENT	n/a	1	3	TOAD	ROAD	TOAD	SOAP	8	[0, 0, 0]	-999	PAL1	0	R1303E
1293.593	0.733	1345839	STUDY_ORIENT_OFF	n/a	1	3	TOAD	ROAD	TOAD	SOAP	8	[0, 0, 0]	-999	PAL1	0	R1303E
1294.326	4.017	1346572	STUDY_PAIR	n/a	1	3	TOAD	ROAD	TOAD	SOAP	8	[0, 0, 0]	-999	PAL1	0	R1303E
1298.343	1.017	1350589	PAIR_OFF	n/a	1	3	TOAD	ROAD	TOAD	SOAP	8	[0, 0, 0]	-999	PAL1	0	R1303E
1299.36	0.267	1351606	STUDY_ORIENT	n/a	2	6	BOMB	n/a	HORN	BOMB	8	[0, 0, 0]	-999	PAL1	0	R1303E
1299.627	0.717	1351873	STUDY_ORIENT_OFF	n/a	2	6	BOMB	n/a	HORN	BOMB	8	[0, 0, 0]	-999	PAL1	0	R1303E
1300.344	4.017	1352590	STUDY_PAIR	n/a	2	6	BOMB	n/a	HORN	BOMB	8	[0, 0, 0]	-999	PAL1	0	R1303E
1304.361	1.017	1356607	PAIR_OFF	n/a	2	6	BOMB	n/a	HORN	BOMB	8	[0, 0, 0]	-999	PAL1	0	R1303E
1305.378	0.267	1357624	STUDY_ORIENT	n/a	3	5	CLAY	POT	VEST	CLAY	8	[0, 0, 0]	-999	PAL1	0	R1303E
1305.645	0.65	1357891	STUDY_ORIENT_OFF	n/a	3	5	CLAY	POT	VEST	CLAY	8	[0, 0, 0]	-999	PAL1	0	R1303E
1306.295	4.017	1358541	STUDY_PAIR	n/a	3	5	CLAY	POT	VEST	CLAY	8	[0, 0, 0]	-999	PAL1	0	R1303E
1310.312	1.017	1362557	PAIR_OFF	n/a	3	5	CLAY	POT	VEST	CLAY	8	[0, 0, 0]	-999	PAL1	0	R1303E
1311.329	0.267	1363574	STUDY_ORIENT	n/a	4	2	BLUSH	PASS	ICE	BLUSH	8	[0, 0, 0]	-999	PAL1	0	R1303E
1311.596	0.667	1363841	STUDY_ORIENT_OFF	n/a	4	2	BLUSH	PASS	ICE	BLUSH	8	[0, 0, 0]	-999	PAL1	0	R1303E
1312.263	4.017	1364508	STUDY_PAIR	n/a	4	2	BLUSH	PASS	ICE	BLUSH	8	[0, 0, 0]	-999	PAL1	0	R1303E
1316.28	1.017	1368525	PAIR_OFF	n/a	4	2	BLUSH	PASS	ICE	BLUSH	8	[0, 0, 0]	-999	PAL1	0	R1303E
1317.297	0.267	1369542	STUDY_ORIENT	n/a	5	1	SOCK	n/a	SOCK	PIE	8	[0, 0, 0]	-999	PAL1	0	R1303E
1317.564	0.567	1369809	STUDY_ORIENT_OFF	n/a	5	1	SOCK	n/a	SOCK	PIE	8	[0, 0, 0]	-999	PAL1	0	R1303E
1318.131	4.018	1370376	STUDY_PAIR	n/a	5	1	SOCK	n/a	SOCK	PIE	8	[0, 0, 0]	-999	PAL1	0	R1303E
1322.149	1.017	1374394	PAIR_OFF	n/a	5	1	SOCK	n/a	SOCK	PIE	8	[0, 0, 0]	-999	PAL1	0	R1303E
1323.166	0.265	1375411	STUDY_ORIENT	n/a	6	4	SPRING	PINE	SPRING	CAKE	8	[0, 0, 0]	-999	PAL1	0	R1303E
1323.431	0.735	1375676	STUDY_ORIENT_OFF	n/a	6	4	SPRING	PINE	SPRING	CAKE	8	[0, 0, 0]	-999	PAL1	0	R1303E
1324.166	4.017	1376411	STUDY_PAIR	n/a	6	4	SPRING	PINE	SPRING	CAKE	8	[0, 0, 0]	-999	PAL1	0	R1303E
1328.183	1.001	1380428	PAIR_OFF	n/a	6	4	SPRING	PINE	SPRING	CAKE	8	[0, 0, 0]	-999	PAL1	0	R1303E
1329.184	0.0	1381429	ENCODING_END	n/a	-999	-999	n/a	n/a	n/a	n/a	8	[0, 0, 0]	-999	PAL1	0	R1303E
1329.184	0.0	1381429	MATH_START	n/a	-999	-999	n/a	n/a	n/a	n/a	8	[0, 0, 0]	-999	PAL1	0	R1303E
1329.184	0.016	1381429	START	n/a	-999	-999	n/a	n/a	n/a	n/a	8	[-999, -999, -999]	-999	PAL1	0	R1303E
1329.2	7.417	1381445	PROB	7394	-999	-999	n/a	n/a	n/a	n/a	8	[1, 5, 7]	13	PAL1	0	R1303E
1336.617	10.635	1388861	PROB	10602	-999	-999	n/a	n/a	n/a	n/a	8	[8, 4, 2]	14	PAL1	0	R1303E
1347.252	13.296	1399496	PROB	13296	-999	-999	n/a	n/a	n/a	n/a	8	[2, 2, 4]	8	PAL1	0	R1303E
1360.548	0.006	1412791	STOP	n/a	-999	-999	n/a	n/a	n/a	n/a	8	[-999, -999, -999]	-999	PAL1	0	R1303E
1360.554	0.001	1412797	MATH_END	n/a	-999	-999	n/a	n/a	n/a	n/a	8	[0, 0, 0]	-999	PAL1	0	R1303E
1360.555	0.016	1412798	RECALL_START	n/a	-999	-999	n/a	n/a	n/a	n/a	8	[0, 0, 0]	-999	PAL1	0	R1303E
1360.571	0.267	1412814	TEST_ORIENT	n/a	5	1	SOCK	n/a	SOCK	PIE	8	[0, 0, 0]	-999	PAL1	0	R1303E
1360.838	0.533	1413081	RETRIEVAL_ORIENT_OFF	n/a	-999	-999	n/a	n/a	n/a	n/a	8	[0, 0, 0]	-999	PAL1	0	R1303E
1361.371	0.001	1413614	TEST_PROBE	n/a	5	1	SOCK	n/a	SOCK	PIE	8	[0, 0, 0]	-999	PAL1	0	R1303E
1361.372	4.017	1413615	REC_START	n/a	5	-999	n/a	n/a	n/a	n/a	8	[0, 0, 0]	-999	PAL1	0	R1303E
1365.389	1.01	1417632	PROBE_OFF	n/a	5	-999	n/a	n/a	n/a	n/a	8	[0, 0, 0]	-999	PAL1	0	R1303E
1366.399	0.001	1418642	REC_EVENT	5027	5	1	SOCK	<>	SOCK	PIE	8	[0, 0, 0]	-999	PAL1	0	R1303E
1366.4	0.022	1418643	REC_END	n/a	5	-999	n/a	n/a	n/a	n/a	8	[0, 0, 0]	-999	PAL1	0	R1303E
1366.422	0.267	1418665	TEST_ORIENT	n/a	4	2	BLUSH	PASS	ICE	BLUSH	8	[0, 0, 0]	-999	PAL1	0	R1303E
1366.689	0.533	1418932	RETRIEVAL_ORIENT_OFF	n/a	5	-999	n/a	n/a	n/a	n/a	8	[0, 0, 0]	-999	PAL1	0	R1303E
1367.222	0.001	1419465	TEST_PROBE	n/a	4	2	BLUSH	PASS	ICE	BLUSH	8	[0, 0, 0]	-999	PAL1	0	R1303E
1367.223	3.759	1419466	REC_START	n/a	4	-999	n/a	PASS	n/a	n/a	8	[0, 0, 0]	-999	PAL1	0	R1303E
1370.982	0.257	1423225	REC_EVENT	3759	4	2	BLUSH	PASS	ICE	BLUSH	8	[0, 0, 0]	-999	PAL1	0	R1303E
1371.239	1.0	1423482	PROBE_OFF	n/a	4	-999	n/a	n/a	n/a	n/a	8	[0, 0, 0]	-999	PAL1	0	R1303E
1372.239	0.018	1424482	REC_END	n/a	4	-999	n/a	n/a	n/a	n/a	8	[0, 0, 0]	-999	PAL1	0	R1303E
1372.257	0.266	1424500	TEST_ORIENT	n/a	1	3	TOAD	ROAD	TOAD	SOAP	8	[0, 0, 0]	-999	PAL1	0	R1303E
1372.523	0.717	1424766	RETRIEVAL_ORIENT_OFF	n/a	4	-999	n/a	n/a	n/a	n/a	8	[0, 0, 0]	-999	PAL1	0	R1303E
1373.24	0.001	1425483	TEST_PROBE	n/a	1	3	TOAD	ROAD	TOAD	SOAP	8	[0, 0, 0]	-999	PAL1	0	R1303E
1373.241	3.199	1425484	REC_START	n/a	1	-999	n/a	ROAD	n/a	n/a	8	[0, 0, 0]	-999	PAL1	0	R1303E
1376.44	0.817	1428683	REC_EVENT	3199	1	3	TOAD	ROAD	TOAD	SOAP	8	[0, 0, 0]	-999	PAL1	0	R1303E
1377.257	1.0	1429500	PROBE_OFF	n/a	1	-999	n/a	n/a	n/a	n/a	8	[0, 0, 0]	-999	PAL1	0	R1303E
1378.257	0.017	1430500	REC_END	n/a	1	-999	n/a	n/a	n/a	n/a	8	[0, 0, 0]	-999	PAL1	0	R1303E
1378.274	0.267	1430517	TEST_ORIENT	n/a	6	4	SPRING	PINE	SPRING	CAKE	8	[0, 0, 0]	-999	PAL1	0	R1303E
1378.541	0.601	1430784	RETRIEVAL_ORIENT_OFF	n/a	1	-999	n/a	n/a	n/a	n/a	8	[0, 0, 0]	-999	PAL1	0	R1303E
1379.142	0.001	1431385	TEST_PROBE	n/a	6	4	SPRING	PINE	SPRING	CAKE	8	[0, 0, 0]	-999	PAL1	0	R1303E
1379.143	4.016	1431386	REC_START	n/a	6	-999	n/a	PINE	n/a	n/a	8	[0, 0, 0]	-999	PAL1	0	R1303E
1383.159	0.103	1435401	PROBE_OFF	n/a	6	-999	n/a	n/a	n/a	n/a	8	[0, 0, 0]	-999	PAL1	0	R1303E
1383.262	0.897	1435504	REC_EVENT	4119	6	4	SPRING	PINE	SPRING	CAKE	8	[0, 0, 0]	-999	PAL1	0	R1303E
1384.159	0.017	1436401	REC_END	n/a	6	-999	n/a	n/a	n/a	n/a	8	[0, 0, 0]	-999	PAL1	0	R1303E
1384.176	0.266	1436418	TEST_ORIENT	n/a	3	5	CLAY	POT	VEST	CLAY	8	[0, 0, 0]	-999	PAL1	0	R1303E
1384.442	0.684	1436684	RETRIEVAL_ORIENT_OFF	n/a	6	-999	n/a	n/a	n/a	n/a	8	[0, 0, 0]	-999	PAL1	0	R1303E
1385.126	0.001	1437368	TEST_PROBE	n/a	3	5	CLAY	POT	VEST	CLAY	8	[0, 0, 0]	-999	PAL1	0	R1303E
1385.127	4.0	1437369	REC_START	n/a	3	-999	n/a	POT	n/a	n/a	8	[0, 0, 0]	-999	PAL1	0	R1303E
1389.127	0.019	1441369	PROBE_OFF	n/a	3	-999	n/a	n/a	n/a	n/a	8	[0, 0, 0]	-999	PAL1	0	R1303E
1389.146	0.981	1441388	REC_EVENT	4019	3	5	CLAY	POT	VEST	CLAY	8	[0, 0, 0]	-999	PAL1	0	R1303E
1390.127	0.017	1442369	REC_END	n/a	3	-999	n/a	n/a	n/a	n/a	8	[0, 0, 0]	-999	PAL1	0	R1303E
1390.144	0.266	1442386	TEST_ORIENT	n/a	2	6	BOMB	n/a	HORN	BOMB	8	[0, 0, 0]	-999	PAL1	0	R1303E
1390.41	0.667	1442652	RETRIEVAL_ORIENT_OFF	n/a	3	-999	n/a	n/a	n/a	n/a	8	[0, 0, 0]	-999	PAL1	0	R1303E
1391.077	0.001	1443319	TEST_PROBE	n/a	2	6	BOMB	n/a	HORN	BOMB	8	[0, 0, 0]	-999	PAL1	0	R1303E
1391.078	4.017	1443320	REC_START	n/a	2	-999	n/a	n/a	n/a	n/a	8	[0, 0, 0]	-999	PAL1	0	R1303E
1395.095	1.01	1447337	PROBE_OFF	n/a	2	-999	n/a	n/a	n/a	n/a	8	[0, 0, 0]	-999	PAL1	0	R1303E
1396.105	0.002	1448347	REC_EVENT	5027	2	6	BOMB	<>	HORN	BOMB	8	[0, 0, 0]	-999	PAL1	0	R1303E
1396.107	0.004	1448349	REC_END	n/a	2	-999	n/a	n/a	n/a	n/a	8	[0, 0, 0]	-999	PAL1	0	R1303E
1396.111	5.701	1448353	RECALL_END	n/a	-999	-999	n/a	n/a	n/a	n/a	8	[0, 0, 0]	-999	PAL1	0	R1303E
1401.812	10.929	1454054	TRIAL	n/a	-999	-999	n/a	n/a	n/a	n/a	9	[0, 0, 0]	-999	PAL1	0	R1303E
1412.741	0.006	1464982	ENCODING_START	n/a	-999	-999	n/a	n/a	n/a	n/a	9	[0, 0, 0]	-999	PAL1	0	R1303E
1412.747	0.268	1464988	STUDY_ORIENT	n/a	1	5	BRUSH	n/a	BRUSH	LEG	9	[0, 0, 0]	-999	PAL1	0	R1303E
1413.015	0.715	1465256	STUDY_ORIENT_OFF	n/a	1	5	BRUSH	n/a	BRUSH	LEG	9	[0, 0, 0]	-999	PAL1	0	R1303E
1413.73	4.018	1465971	STUDY_PAIR	n/a	1	5	BRUSH	n/a	BRUSH	LEG	9	[0, 0, 0]	-999	PAL1	0	R1303E
1417.748	1.017	1469989	PAIR_OFF	n/a	1	5	BRUSH	n/a	BRUSH	LEG	9	[0, 0, 0]	-999	PAL1	0	R1303E
1418.765	0.267	1471006	STUDY_ORIENT	n/a	2	2	PALM	n/a	EEL	PALM	9	[0, 0, 0]	-999	PAL1	0	R1303E
1419.032	0.65	1471273	STUDY_ORIENT_OFF	n/a	2	2	PALM	n/a	EEL	PALM	9	[0, 0, 0]	-999	PAL1	0	R1303E
1419.682	4.017	1471923	STUDY_PAIR	n/a	2	2	PALM	n/a	EEL	PALM	9	[0, 0, 0]	-999	PAL1	0	R1303E
1423.699	1.017	1475940	PAIR_OFF	n/a	2	2	PALM	n/a	EEL	PALM	9	[0, 0, 0]	-999	PAL1	0	R1303E
1424.716	0.267	1476957	STUDY_ORIENT	n/a	3	3	TEETH	FACE	COIN	TEETH	9	[0, 0, 0]	-999	PAL1	0	R1303E
1424.983	0.6	1477224	STUDY_ORIENT_OFF	n/a	3	3	TEETH	FACE	COIN	TEETH	9	[0, 0, 0]	-999	PAL1	0	R1303E
1425.583	4.017	1477824	STUDY_PAIR	n/a	3	3	TEETH	FACE	COIN	TEETH	9	[0, 0, 0]	-999	PAL1	0	R1303E
1429.6	1.017	1481841	PAIR_OFF	n/a	3	3	TEETH	FACE	COIN	TEETH	9	[0, 0, 0]	-999	PAL1	0	R1303E
1430.617	0.266	1482858	STUDY_ORIENT	n/a	4	4	WOLF	SMILE	WOLF	SMILE	9	[0, 0, 0]	-999	PAL1	0	R1303E
1430.883	0.55	1483124	STUDY_ORIENT_OFF	n/a	4	4	WOLF	SMILE	WOLF	SMILE	9	[0, 0, 0]	-999	PAL1	0	R1303E
1431.433	4.018	1483674	STUDY_PAIR	n/a	4	4	WOLF	SMILE	WOLF	SMILE	9	[0, 0, 0]	-999	PAL1	0	R1303E
1435.451	1.017	1487691	PAIR_OFF	n/a	4	4	WOLF	SMILE	WOLF	SMILE	9	[0, 0, 0]	-999	PAL1	0	R1303E
1436.468	0.266	1488708	STUDY_ORIENT	n/a	5	1	FUDGE	PASS	FUDGE	GRAPE	9	[0, 0, 0]	-999	PAL1	0	R1303E
1436.734	0.551	1488974	STUDY_ORIENT_OFF	n/a	5	1	FUDGE	PASS	FUDGE	GRAPE	9	[0, 0, 0]	-999	PAL1	0	R1303E
1437.285	4.017	1489525	STUDY_PAIR	n/a	5	1	FUDGE	PASS	FUDGE	GRAPE	9	[0, 0, 0]	-999	PAL1	0	R1303E
1441.302	1.017	1493542	PAIR_OFF	n/a	5	1	FUDGE	PASS	FUDGE	GRAPE	9	[0, 0, 0]	-999	PAL1	0	R1303E
1442.319	0.267	1494559	STUDY_ORIENT	n/a	6	6	SHIRT	SEAT	SHIRT	SEAT	9	[0, 0, 0]	-999	PAL1	0	R1303E
1442.586	0.666	1494826	STUDY_ORIENT_OFF	n/a	6	6	SHIRT	SEAT	SHIRT	SEAT	9	[0, 0, 0]	-999	PAL1	0	R1303E
1443.252	4.018	1495492	STUDY_PAIR	n/a	6	6	SHIRT	SEAT	SHIRT	SEAT	9	[0, 0, 0]	-999	PAL1	0	R1303E
1447.27	1.001	1499510	PAIR_OFF	n/a	6	6	SHIRT	SEAT	SHIRT	SEAT	9	[0, 0, 0]	-999	PAL1	0	R1303E
1448.271	0.0	1500511	ENCODING_END	n/a	-999	-999	n/a	n/a	n/a	n/a	9	[0, 0, 0]	-999	PAL1	0	R1303E
1448.271	0.0	1500511	MATH_START	n/a	-999	-999	n/a	n/a	n/a	n/a	9	[0, 0, 0]	-999	PAL1	0	R1303E
1448.271	0.016	1500511	START	n/a	-999	-999	n/a	n/a	n/a	n/a	9	[-999, -999, -999]	-999	PAL1	0	R1303E
1448.287	6.234	1500527	PROB	6209	-999	-999	n/a	n/a	n/a	n/a	9	[3, 8, 5]	16	PAL1	0	R1303E
1454.521	8.718	1506761	PROB	8689	-999	-999	n/a	n/a	n/a	n/a	9	[2, 9, 1]	12	PAL1	0	R1303E
1463.239	17.566	1515478	PROB	17566	-999	-999	n/a	n/a	n/a	n/a	9	[4, 4, 1]	9	PAL1	0	R1303E
1480.805	0.021	1533044	STOP	n/a	-999	-999	n/a	n/a	n/a	n/a	9	[-999, -999, -999]	-999	PAL1	0	R1303E
1480.826	0.0	1533065	MATH_END	n/a	-999	-999	n/a	n/a	n/a	n/a	9	[0, 0, 0]	-999	PAL1	0	R1303E
1480.826	0.016	1533065	RECALL_START	n/a	-999	-999	n/a	n/a	n/a	n/a	9	[0, 0, 0]	-999	PAL1	0	R1303E
1480.842	0.268	1533081	TEST_ORIENT	n/a	5	1	FUDGE	PASS	FUDGE	GRAPE	9	[0, 0, 0]	-999	PAL1	0	R1303E
1481.11	0.699	1533349	RETRIEVAL_ORIENT_OFF	n/a	-999	-999	n/a	n/a	n/a	n/a	9	[0, 0, 0]	-999	PAL1	0	R1303E
1481.809	0.001	1534048	TEST_PROBE	n/a	5	1	FUDGE	PASS	FUDGE	GRAPE	9	[0, 0, 0]	-999	PAL1	0	R1303E
1481.81	4.014	1534049	REC_START	n/a	5	-999	n/a	PASS	n/a	n/a	9	[0, 0, 0]	-999	PAL1	0	R1303E
1485.824	0.002	1538062	REC_EVENT	4014	5	1	FUDGE	PASS	FUDGE	GRAPE	9	[0, 0, 0]	-999	PAL1	0	R1303E
1485.826	1.0	1538064	PROBE_OFF	n/a	5	-999	n/a	n/a	n/a	n/a	9	[0, 0, 0]	-999	PAL1	0	R1303E
1486.826	0.017	1539064	REC_END	n/a	5	-999	n/a	n/a	n/a	n/a	9	[0, 0, 0]	-999	PAL1	0	R1303E
1486.843	0.268	1539081	TEST_ORIENT	n/a	2	2	PALM	n/a	EEL	PALM	9	[0, 0, 0]	-999	PAL1	0	R1303E
1487.111	0.582	1539349	RETRIEVAL_ORIENT_OFF	n/a	5	-999	n/a	n/a	n/a	n/a	9	[0, 0, 0]	-999	PAL1	0	R1303E
1487.693	0.001	1539931	TEST_PROBE	n/a	2	2	PALM	n/a	EEL	PALM	9	[0, 0, 0]	-999	PAL1	0	R1303E
1487.694	4.017	1539932	REC_START	n/a	2	-999	n/a	n/a	n/a	n/a	9	[0, 0, 0]	-999	PAL1	0	R1303E
1491.711	0.998	1543949	PROBE_OFF	n/a	2	-999	n/a	n/a	n/a	n/a	9	[0, 0, 0]	-999	PAL1	0	R1303E
1492.709	0.002	1544947	REC_EVENT	5015	2	2	PALM	<>	EEL	PALM	9	[0, 0, 0]	-999	PAL1	0	R1303E
1492.711	0.017	1544949	REC_END	n/a	2	-999	n/a	n/a	n/a	n/a	9	[0, 0, 0]	-999	PAL1	0	R1303E
1492.728	0.267	1544966	TEST_ORIENT	n/a	3	3	TEETH	FACE	COIN	TEETH	9	[0, 0, 0]	-999	PAL1	0	R1303E
1492.995	0.566	1545233	RETRIEVAL_ORIENT_OFF	n/a	2	-999	n/a	n/a	n/a	n/a	9	[0, 0, 0]	-999	PAL1	0	R1303E
1493.561	0.001	1545799	TEST_PROBE	n/a	3	3	TEETH	FACE	COIN	TEETH	9	[0, 0, 0]	-999	PAL1	0	R1303E
1493.562	2.549	1545800	REC_START	n/a	3	-999	n/a	FACE	n/a	n/a	9	[0, 0, 0]	-999	PAL1	0	R1303E
1496.111	1.468	1548349	REC_EVENT	2549	3	3	TEETH	FACE	COIN	TEETH	9	[0, 0, 0]	-999	PAL1	0	R1303E
1497.579	1.0	1549817	PROBE_OFF	n/a	3	-999	n/a	n/a	n/a	n/a	9	[0, 0, 0]	-999	PAL1	0	R1303E
1498.579	0.016	1550817	REC_END	n/a	3	-999	n/a	n/a	n/a	n/a	9	[0, 0, 0]	-999	PAL1	0	R1303E
1498.595	0.267	1550833	TEST_ORIENT	n/a	4	4	WOLF	SMILE	WOLF	SMILE	9	[0, 0, 0]	-999	PAL1	0	R1303E
1498.862	0.7	1551100	RETRIEVAL_ORIENT_OFF	n/a	3	-999	n/a	n/a	n/a	n/a	9	[0, 0, 0]	-999	PAL1	0	R1303E
1499.562	0.001	1551800	TEST_PROBE	n/a	4	4	WOLF	SMILE	WOLF	SMILE	9	[0, 0, 0]	-999	PAL1	0	R1303E
1499.563	1.644	1551801	REC_START	n/a	4	-999	n/a	SMILE	n/a	n/a	9	[0, 0, 0]	-999	PAL1	0	R1303E
1501.207	2.373	1553445	REC_EVENT	1644	4	4	WOLF	SMILE	WOLF	SMILE	9	[0, 0, 0]	-999	PAL1	0	R1303E
1503.58	1.011	1555818	PROBE_OFF	n/a	4	-999	n/a	n/a	n/a	n/a	9	[0, 0, 0]	-999	PAL1	0	R1303E
1504.591	0.022	1556829	REC_END	n/a	4	-999	n/a	n/a	n/a	n/a	9	[0, 0, 0]	-999	PAL1	0	R1303E
1504.613	0.267	1556851	TEST_ORIENT	n/a	1	5	BRUSH	n/a	BRUSH	LEG	9	[0, 0, 0]	-999	PAL1	0	R1303E
1504.88	0.6	1557118	RETRIEVAL_ORIENT_OFF	n/a	4	-999	n/a	n/a	n/a	n/a	9	[0, 0, 0]	-999	PAL1	0	R1303E
1505.48	0.0	1557718	TEST_PROBE	n/a	1	5	BRUSH	n/a	BRUSH	LEG	9	[0, 0, 0]	-999	PAL1	0	R1303E
1505.48	4.017	1557718	REC_START	n/a	1	-999	n/a	n/a	n/a	n/a	9	[0, 0, 0]	-999	PAL1	0	R1303E
1509.497	0.998	1561734	PROBE_OFF	n/a	1	-999	n/a	n/a	n/a	n/a	9	[0, 0, 0]	-999	PAL1	0	R1303E
1510.495	0.002	1562732	REC_EVENT	5015	1	5	BRUSH	<>	BRUSH	LEG	9	[0, 0, 0]	-999	PAL1	0	R1303E
1510.497	0.017	1562734	REC_END	n/a	1	-999	n/a	n/a	n/a	n/a	9	[0, 0, 0]	-999	PAL1	0	R1303E
1510.514	0.267	1562751	TEST_ORIENT	n/a	6	6	SHIRT	SEAT	SHIRT	SEAT	9	[0, 0, 0]	-999	PAL1	0	R1303E
1510.781	0.617	1563018	RETRIEVAL_ORIENT_OFF	n/a	1	-999	n/a	n/a	n/a	n/a	9	[0, 0, 0]	-999	PAL1	0	R1303E
1511.398	0.0	1563635	TEST_PROBE	n/a	6	6	SHIRT	SEAT	SHIRT	SEAT	9	[0, 0, 0]	-999	PAL1	0	R1303E
1511.398	1.384	1563635	REC_START	n/a	6	-999	n/a	SEAT	n/a	n/a	9	[0, 0, 0]	-999	PAL1	0	R1303E
1512.782	2.633	1565019	REC_EVENT	1384	6	6	SHIRT	SEAT	SHIRT	SEAT	9	[0, 0, 0]	-999	PAL1	0	R1303E
1515.415	0.998	1567652	PROBE_OFF	n/a	6	-999	n/a	n/a	n/a	n/a	9	[0, 0, 0]	-999	PAL1	0	R1303E
1516.413	0.003	1568650	REC_EVENT	5015	6	6	SHIRT	<>	SHIRT	SEAT	9	[0, 0, 0]	-999	PAL1	0	R1303E
1516.416	0.004	1568653	REC_END	n/a	6	-999	n/a	n/a	n/a	n/a	9	[0, 0, 0]	-999	PAL1	0	R1303E
1516.42	5.647	1568657	RECALL_END	n/a	-999	-999	n/a	n/a	n/a	n/a	9	[0, 0, 0]	-999	PAL1	0	R1303E
1522.067	10.928	1574304	TRIAL	n/a	-999	-999	n/a	n/a	n/a	n/a	10	[0, 0, 0]	-999	PAL1	0	R1303E
1532.995	0.007	1585232	ENCODING_START	n/a	-999	-999	n/a	n/a	n/a	n/a	10	[0, 0, 0]	-999	PAL1	0	R1303E
1533.002	0.266	1585239	STUDY_ORIENT	n/a	1	5	FARM	n/a	BOWL	FARM	10	[0, 0, 0]	-999	PAL1	0	R1303E
1533.268	0.718	1585505	STUDY_ORIENT_OFF	n/a	1	5	FARM	n/a	BOWL	FARM	10	[0, 0, 0]	-999	PAL1	0	R1303E
1533.986	4.017	1586223	STUDY_PAIR	n/a	1	5	FARM	n/a	BOWL	FARM	10	[0, 0, 0]	-999	PAL1	0	R1303E
1538.003	1.017	1590239	PAIR_OFF	n/a	1	5	FARM	n/a	BOWL	FARM	10	[0, 0, 0]	-999	PAL1	0	R1303E
1539.02	0.266	1591256	STUDY_ORIENT	n/a	2	6	SOUP	CREAM	CRANE	SOUP	10	[0, 0, 0]	-999	PAL1	0	R1303E
1539.286	0.533	1591522	STUDY_ORIENT_OFF	n/a	2	6	SOUP	CREAM	CRANE	SOUP	10	[0, 0, 0]	-999	PAL1	0	R1303E
1539.819	4.018	1592055	STUDY_PAIR	n/a	2	6	SOUP	CREAM	CRANE	SOUP	10	[0, 0, 0]	-999	PAL1	0	R1303E
1543.837	1.016	1596073	PAIR_OFF	n/a	2	6	SOUP	CREAM	CRANE	SOUP	10	[0, 0, 0]	-999	PAL1	0	R1303E
1544.853	0.251	1597089	STUDY_ORIENT	n/a	3	3	CHEEK	FACE	ROPE	CHEEK	10	[0, 0, 0]	-999	PAL1	0	R1303E
1545.104	0.516	1597340	STUDY_ORIENT_OFF	n/a	3	3	CHEEK	FACE	ROPE	CHEEK	10	[0, 0, 0]	-999	PAL1	0	R1303E
1545.62	4.018	1597856	STUDY_PAIR	n/a	3	3	CHEEK	FACE	ROPE	CHEEK	10	[0, 0, 0]	-999	PAL1	0	R1303E
1549.638	1.017	1601874	PAIR_OFF	n/a	3	3	CHEEK	FACE	ROPE	CHEEK	10	[0, 0, 0]	-999	PAL1	0	R1303E
1550.655	0.266	1602891	STUDY_ORIENT	n/a	4	2	STEAK	n/a	BRANCH	STEAK	10	[0, 0, 0]	-999	PAL1	0	R1303E
1550.921	0.734	1603157	STUDY_ORIENT_OFF	n/a	4	2	STEAK	n/a	BRANCH	STEAK	10	[0, 0, 0]	-999	PAL1	0	R1303E
1551.655	4.017	1603891	STUDY_PAIR	n/a	4	2	STEAK	n/a	BRANCH	STEAK	10	[0, 0, 0]	-999	PAL1	0	R1303E
1555.672	1.017	1607908	PAIR_OFF	n/a	4	2	STEAK	n/a	BRANCH	STEAK	10	[0, 0, 0]	-999	PAL1	0	R1303E
1556.689	0.268	1608925	STUDY_ORIENT	n/a	5	1	MAZE	n/a	MAZE	GOAT	10	[0, 0, 0]	-999	PAL1	0	R1303E
1556.957	0.765	1609193	STUDY_ORIENT_OFF	n/a	5	1	MAZE	n/a	MAZE	GOAT	10	[0, 0, 0]	-999	PAL1	0	R1303E
1557.722	4.018	1609958	STUDY_PAIR	n/a	5	1	MAZE	n/a	MAZE	GOAT	10	[0, 0, 0]	-999	PAL1	0	R1303E
1561.74	1.017	1613975	PAIR_OFF	n/a	5	1	MAZE	n/a	MAZE	GOAT	10	[0, 0, 0]	-999	PAL1	0	R1303E
1562.757	0.267	1614992	STUDY_ORIENT	n/a	6	4	BADGE	MOUSE	BADGE	FRUIT	10	[0, 0, 0]	-999	PAL1	0	R1303E
1563.024	0.699	1615259	STUDY_ORIENT_OFF	n/a	6	4	BADGE	MOUSE	BADGE	FRUIT	10	[0, 0, 0]	-999	PAL1	0	R1303E
1563.723	4.018	1615958	STUDY_PAIR	n/a	6	4	BADGE	MOUSE	BADGE	FRUIT	10	[0, 0, 0]	-999	PAL1	0	R1303E
1567.741	1.0	1619976	PAIR_OFF	n/a	6	4	BADGE	MOUSE	BADGE	FRUIT	10	[0, 0, 0]	-999	PAL1	0	R1303E
1568.741	0.0	1620976	ENCODING_END	n/a	-999	-999	n/a	n/a	n/a	n/a	10	[0, 0, 0]	-999	PAL1	0	R1303E
1568.741	0.001	1620976	MATH_START	n/a	-999	-999	n/a	n/a	n/a	n/a	10	[0, 0, 0]	-999	PAL1	0	R1303E
1568.742	0.016	1620977	START	n/a	-999	-999	n/a	n/a	n/a	n/a	10	[-999, -999, -999]	-999	PAL1	0	R1303E
1568.758	4.884	1620993	PROB	4851	-999	-999	n/a	n/a	n/a	n/a	10	[2, 3, 7]	12	PAL1	0	R1303E
1573.642	6.068	1625877	PROB	6036	-999	-999	n/a	n/a	n/a	n/a	10	[7, 9, 2]	17	PAL1	0	R1303E
1579.71	8.469	1631945	PROB	8440	-999	-999	n/a	n/a	n/a	n/a	10	[3, 6, 9]	18	PAL1	0	R1303E
1588.179	6.129	1640413	PROB	6129	-999	-999	n/a	n/a	n/a	n/a	10	[1, 8, 4]	13	PAL1	0	R1303E
1594.308	0.021	1646542	STOP	n/a	-999	-999	n/a	n/a	n/a	n/a	10	[-999, -999, -999]	-999	PAL1	0	R1303E
1594.329	0.0	1646563	MATH_END	n/a	-999	-999	n/a	n/a	n/a	n/a	10	[0, 0, 0]	-999	PAL1	0	R1303E
1594.329	0.017	1646563	RECALL_START	n/a	-999	-999	n/a	n/a	n/a	n/a	10	[0, 0, 0]	-999	PAL1	0	R1303E
1594.346	0.266	1646580	TEST_ORIENT	n/a	5	1	MAZE	n/a	MAZE	GOAT	10	[0, 0, 0]	-999	PAL1	0	R1303E
1594.612	0.601	1646846	RETRIEVAL_ORIENT_OFF	n/a	-999	-999	n/a	n/a	n/a	n/a	10	[0, 0, 0]	-999	PAL1	0	R1303E
1595.213	0.001	1647447	TEST_PROBE	n/a	5	1	MAZE	n/a	MAZE	GOAT	10	[0, 0, 0]	-999	PAL1	0	R1303E
1595.214	4.016	1647448	REC_START	n/a	5	-999	n/a	n/a	n/a	n/a	10	[0, 0, 0]	-999	PAL1	0	R1303E
1599.23	1.0	1651464	PROBE_OFF	n/a	5	-999	n/a	n/a	n/a	n/a	10	[0, 0, 0]	-999	PAL1	0	R1303E
1600.23	0.005	1652464	REC_END	n/a	5	-999	n/a	n/a	n/a	n/a	10	[0, 0, 0]	-999	PAL1	0	R1303E
1600.235	0.012	1652469	REC_EVENT	5021	5	1	MAZE	<>	MAZE	GOAT	10	[0, 0, 0]	-999	PAL1	0	R1303E
1600.247	0.266	1652481	TEST_ORIENT	n/a	4	2	STEAK	n/a	BRANCH	STEAK	10	[0, 0, 0]	-999	PAL1	0	R1303E
1600.513	0.75	1652747	RETRIEVAL_ORIENT_OFF	n/a	5	-999	n/a	n/a	n/a	n/a	10	[0, 0, 0]	-999	PAL1	0	R1303E
1601.263	0.001	1653497	TEST_PROBE	n/a	4	2	STEAK	n/a	BRANCH	STEAK	10	[0, 0, 0]	-999	PAL1	0	R1303E
1601.264	4.017	1653498	REC_START	n/a	4	-999	n/a	n/a	n/a	n/a	10	[0, 0, 0]	-999	PAL1	0	R1303E
1605.281	0.983	1657515	PROBE_OFF	n/a	4	-999	n/a	n/a	n/a	n/a	10	[0, 0, 0]	-999	PAL1	0	R1303E
1606.264	0.017	1658498	REC_EVENT	5000	4	2	STEAK	<>	BRANCH	STEAK	10	[0, 0, 0]	-999	PAL1	0	R1303E
1606.281	0.017	1658515	REC_END	n/a	4	-999	n/a	n/a	n/a	n/a	10	[0, 0, 0]	-999	PAL1	0	R1303E
1606.298	0.266	1658532	TEST_ORIENT	n/a	3	3	CHEEK	FACE	ROPE	CHEEK	10	[0, 0, 0]	-999	PAL1	0	R1303E
1606.564	0.601	1658798	RETRIEVAL_ORIENT_OFF	n/a	4	-999	n/a	n/a	n/a	n/a	10	[0, 0, 0]	-999	PAL1	0	R1303E
1607.165	0.001	1659399	TEST_PROBE	n/a	3	3	CHEEK	FACE	ROPE	CHEEK	10	[0, 0, 0]	-999	PAL1	0	R1303E
1607.166	2.199	1659400	REC_START	n/a	3	-999	n/a	FACE	n/a	n/a	10	[0, 0, 0]	-999	PAL1	0	R1303E
1609.365	1.818	1661599	REC_EVENT	2199	3	3	CHEEK	FACE	ROPE	CHEEK	10	[0, 0, 0]	-999	PAL1	0	R1303E
1611.183	1.0	1663416	PROBE_OFF	n/a	3	-999	n/a	n/a	n/a	n/a	10	[0, 0, 0]	-999	PAL1	0	R1303E
1612.183	0.017	1664416	REC_END	n/a	3	-999	n/a	n/a	n/a	n/a	10	[0, 0, 0]	-999	PAL1	0	R1303E
1612.2	0.265	1664433	TEST_ORIENT	n/a	6	4	BADGE	MOUSE	BADGE	FRUIT	10	[0, 0, 0]	-999	PAL1	0	R1303E
1612.465	0.767	1664698	RETRIEVAL_ORIENT_OFF	n/a	3	-999	n/a	n/a	n/a	n/a	10	[0, 0, 0]	-999	PAL1	0	R1303E
1613.232	0.001	1665465	TEST_PROBE	n/a	6	4	BADGE	MOUSE	BADGE	FRUIT	10	[0, 0, 0]	-999	PAL1	0	R1303E
1613.233	3.264	1665466	REC_START	n/a	6	-999	n/a	MOUSE	n/a	n/a	10	[0, 0, 0]	-999	PAL1	0	R1303E
1616.497	0.753	1668730	REC_EVENT	3264	6	4	BADGE	MOUSE	BADGE	FRUIT	10	[0, 0, 0]	-999	PAL1	0	R1303E
1617.25	1.0	1669483	PROBE_OFF	n/a	6	-999	n/a	n/a	n/a	n/a	10	[0, 0, 0]	-999	PAL1	0	R1303E
1618.25	0.016	1670483	REC_END	n/a	6	-999	n/a	n/a	n/a	n/a	10	[0, 0, 0]	-999	PAL1	0	R1303E
1618.266	0.267	1670499	TEST_ORIENT	n/a	1	5	FARM	n/a	BOWL	FARM	10	[0, 0, 0]	-999	PAL1	0	R1303E
1618.533	0.651	1670766	RETRIEVAL_ORIENT_OFF	n/a	6	-999	n/a	n/a	n/a	n/a	10	[0, 0, 0]	-999	PAL1	0	R1303E
1619.184	0.001	1671417	TEST_PROBE	n/a	1	5	FARM	n/a	BOWL	FARM	10	[0, 0, 0]	-999	PAL1	0	R1303E
1619.185	4.017	1671418	REC_START	n/a	1	-999	n/a	n/a	n/a	n/a	10	[0, 0, 0]	-999	PAL1	0	R1303E
1623.202	0.998	1675435	PROBE_OFF	n/a	1	-999	n/a	n/a	n/a	n/a	10	[0, 0, 0]	-999	PAL1	0	R1303E
1624.2	0.002	1676433	REC_EVENT	5015	1	5	FARM	<>	BOWL	FARM	10	[0, 0, 0]	-999	PAL1	0	R1303E
1624.202	0.016	1676435	REC_END	n/a	1	-999	n/a	n/a	n/a	n/a	10	[0, 0, 0]	-999	PAL1	0	R1303E
1624.218	0.266	1676451	TEST_ORIENT	n/a	2	6	SOUP	CREAM	CRANE	SOUP	10	[0, 0, 0]	-999	PAL1	0	R1303E
1624.484	0.518	1676717	RETRIEVAL_ORIENT_OFF	n/a	1	-999	n/a	n/a	n/a	n/a	10	[0, 0, 0]	-999	PAL1	0	R1303E
1625.002	0.0	1677235	TEST_PROBE	n/a	2	6	SOUP	CREAM	CRANE	SOUP	10	[0, 0, 0]	-999	PAL1	0	R1303E
1625.002	2.75	1677235	REC_START	n/a	2	-999	n/a	CREAM	n/a	n/a	10	[0, 0, 0]	-999	PAL1	0	R1303E
1627.752	1.267	1679985	REC_EVENT	2750	2	6	SOUP	CREAM	CRANE	SOUP	10	[0, 0, 0]	-999	PAL1	0	R1303E
1629.019	1.0	1681252	PROBE_OFF	n/a	2	-999	n/a	n/a	n/a	n/a	10	[0, 0, 0]	-999	PAL1	0	R1303E
1630.019	0.012	1682252	REC_END	n/a	2	-999	n/a	n/a	n/a	n/a	10	[0, 0, 0]	-999	PAL1	0	R1303E
1630.031	4.588	1682264	RECALL_END	n/a	-999	-999	n/a	n/a	n/a	n/a	10	[0, 0, 0]	-999	PAL1	0	R1303E
1634.619	10.929	1686852	TRIAL	n/a	-999	-999	n/a	n/a	n/a	n/a	11	[0, 0, 0]	-999	PAL1	0	R1303E
1645.548	0.007	1697780	ENCODING_START	n/a	-999	-999	n/a	n/a	n/a	n/a	11	[0, 0, 0]	-999	PAL1	0	R1303E
1645.555	0.266	1697787	STUDY_ORIENT	n/a	1	3	BOX	SQUARE	HAWK	BOX	11	[0, 0, 0]	-999	PAL1	0	R1303E
1645.821	0.65	1698053	STUDY_ORIENT_OFF	n/a	1	3	BOX	SQUARE	HAWK	BOX	11	[0, 0, 0]	-999	PAL1	0	R1303E
1646.471	4.018	1698703	STUDY_PAIR	n/a	1	3	BOX	SQUARE	HAWK	BOX	11	[0, 0, 0]	-999	PAL1	0	R1303E
1650.489	1.017	1702721	PAIR_OFF	n/a	1	3	BOX	SQUARE	HAWK	BOX	11	[0, 0, 0]	-999	PAL1	0	R1303E
1651.506	0.266	1703738	STUDY_ORIENT	n/a	2	2	BEE	HIVE	BEE	PIN	11	[0, 0, 0]	-999	PAL1	0	R1303E
1651.772	0.534	1704004	STUDY_ORIENT_OFF	n/a	2	2	BEE	HIVE	BEE	PIN	11	[0, 0, 0]	-999	PAL1	0	R1303E
1652.306	4.017	1704538	STUDY_PAIR	n/a	2	2	BEE	HIVE	BEE	PIN	11	[0, 0, 0]	-999	PAL1	0	R1303E
1656.323	1.017	1708555	PAIR_OFF	n/a	2	2	BEE	HIVE	BEE	PIN	11	[0, 0, 0]	-999	PAL1	0	R1303E
1657.34	0.267	1709572	STUDY_ORIENT	n/a	3	1	SQUARE	n/a	SQUARE	PARK	11	[0, 0, 0]	-999	PAL1	0	R1303E
1657.607	0.75	1709839	STUDY_ORIENT_OFF	n/a	3	1	SQUARE	n/a	SQUARE	PARK	11	[0, 0, 0]	-999	PAL1	0	R1303E
1658.357	4.017	1710589	STUDY_PAIR	n/a	3	1	SQUARE	n/a	SQUARE	PARK	11	[0, 0, 0]	-999	PAL1	0	R1303E
1662.374	1.017	1714605	PAIR_OFF	n/a	3	1	SQUARE	n/a	SQUARE	PARK	11	[0, 0, 0]	-999	PAL1	0	R1303E
1663.391	0.267	1715622	STUDY_ORIENT	n/a	4	4	SUIT	SEAT	SEAL	SUIT	11	[0, 0, 0]	-999	PAL1	0	R1303E
1663.658	0.733	1715889	STUDY_ORIENT_OFF	n/a	4	4	SUIT	SEAT	SEAL	SUIT	11	[0, 0, 0]	-999	PAL1	0	R1303E
1664.391	4.018	1716622	STUDY_PAIR	n/a	4	4	SUIT	SEAT	SEAL	SUIT	11	[0, 0, 0]	-999	PAL1	0	R1303E
1668.409	1.016	1720640	PAIR_OFF	n/a	4	4	SUIT	SEAT	SEAL	SUIT	11	[0, 0, 0]	-999	PAL1	0	R1303E
1669.425	0.267	1721656	STUDY_ORIENT	n/a	5	5	ROOT	PASS	TRAIN	ROOT	11	[0, 0, 0]	-999	PAL1	0	R1303E
1669.692	0.734	1721923	STUDY_ORIENT_OFF	n/a	5	5	ROOT	PASS	TRAIN	ROOT	11	[0, 0, 0]	-999	PAL1	0	R1303E
1670.426	4.017	1722657	STUDY_PAIR	n/a	5	5	ROOT	PASS	TRAIN	ROOT	11	[0, 0, 0]	-999	PAL1	0	R1303E
1674.443	1.017	1726674	PAIR_OFF	n/a	5	5	ROOT	PASS	TRAIN	ROOT	11	[0, 0, 0]	-999	PAL1	0	R1303E
1675.46	0.267	1727691	STUDY_ORIENT	n/a	6	6	STORM	WIND	SALT	STORM	11	[0, 0, 0]	-999	PAL1	0	R1303E
1675.727	0.583	1727958	STUDY_ORIENT_OFF	n/a	6	6	STORM	WIND	SALT	STORM	11	[0, 0, 0]	-999	PAL1	0	R1303E
1676.31	4.017	1728541	STUDY_PAIR	n/a	6	6	STORM	WIND	SALT	STORM	11	[0, 0, 0]	-999	PAL1	0	R1303E
1680.327	1.001	1732558	PAIR_OFF	n/a	6	6	STORM	WIND	SALT	STORM	11	[0, 0, 0]	-999	PAL1	0	R1303E
1681.328	0.0	1733559	ENCODING_END	n/a	-999	-999	n/a	n/a	n/a	n/a	11	[0, 0, 0]	-999	PAL1	0	R1303E
1681.328	0.0	1733559	MATH_START	n/a	-999	-999	n/a	n/a	n/a	n/a	11	[0, 0, 0]	-999	PAL1	0	R1303E
1681.328	0.016	1733559	START	n/a	-999	-999	n/a	n/a	n/a	n/a	11	[-999, -999, -999]	-999	PAL1	0	R1303E
1681.344	5.951	1733575	PROB	5922	-999	-999	n/a	n/a	n/a	n/a	11	[8, 3, 4]	15	PAL1	0	R1303E
1687.295	5.935	1739525	PROB	5907	-999	-999	n/a	n/a	n/a	n/a	11	[9, 1, 3]	13	PAL1	0	R1303E
1693.23	5.084	1745460	PROB	5049	-999	-999	n/a	n/a	n/a	n/a	11	[4, 4, 1]	9	PAL1	0	R1303E
1698.314	8.664	1750544	PROB	8664	-999	-999	n/a	n/a	n/a	n/a	11	[4, 8, 8]	20	PAL1	0	R1303E
1706.978	0.022	1759208	STOP	n/a	-999	-999	n/a	n/a	n/a	n/a	11	[-999, -999, -999]	-999	PAL1	0	R1303E
1707.0	0.0	1759230	MATH_END	n/a	-999	-999	n/a	n/a	n/a	n/a	11	[0, 0, 0]	-999	PAL1	0	R1303E
1707.0	0.016	1759230	RECALL_START	n/a	-999	-999	n/a	n/a	n/a	n/a	11	[0, 0, 0]	-999	PAL1	0	R1303E
1707.016	0.266	1759246	TEST_ORIENT	n/a	3	1	SQUARE	n/a	SQUARE	PARK	11	[0, 0, 0]	-999	PAL1	0	R1303E
1707.282	0.567	1759512	RETRIEVAL_ORIENT_OFF	n/a	-999	-999	n/a	n/a	n/a	n/a	11	[0, 0, 0]	-999	PAL1	0	R1303E
1707.849	0.0	1760079	TEST_PROBE	n/a	3	1	SQUARE	n/a	SQUARE	PARK	11	[0, 0, 0]	-999	PAL1	0	R1303E
1707.849	4.017	1760079	REC_START	n/a	3	-999	n/a	n/a	n/a	n/a	11	[0, 0, 0]	-999	PAL1	0	R1303E
1711.866	0.207	1764095	PROBE_OFF	n/a	3	-999	n/a	n/a	n/a	n/a	11	[0, 0, 0]	-999	PAL1	0	R1303E
1712.073	0.793	1764302	REC_EVENT	4224	3	1	SQUARE	<>	SQUARE	PARK	11	[0, 0, 0]	-999	PAL1	0	R1303E
1712.866	0.017	1765095	REC_END	n/a	3	-999	n/a	n/a	n/a	n/a	11	[0, 0, 0]	-999	PAL1	0	R1303E
1712.883	0.268	1765112	TEST_ORIENT	n/a	2	2	BEE	HIVE	BEE	PIN	11	[0, 0, 0]	-999	PAL1	0	R1303E
1713.151	0.682	1765380	RETRIEVAL_ORIENT_OFF	n/a	3	-999	n/a	n/a	n/a	n/a	11	[0, 0, 0]	-999	PAL1	0	R1303E
1713.833	0.001	1766062	TEST_PROBE	n/a	2	2	BEE	HIVE	BEE	PIN	11	[0, 0, 0]	-999	PAL1	0	R1303E
1713.834	3.26	1766063	REC_START	n/a	2	-999	n/a	HIVE	n/a	n/a	11	[0, 0, 0]	-999	PAL1	0	R1303E
1717.094	0.757	1769323	REC_EVENT	3260	2	2	BEE	HIVE	BEE	PIN	11	[0, 0, 0]	-999	PAL1	0	R1303E
1717.851	1.0	1770080	PROBE_OFF	n/a	2	-999	n/a	n/a	n/a	n/a	11	[0, 0, 0]	-999	PAL1	0	R1303E
1718.851	0.016	1771080	REC_END	n/a	2	-999	n/a	n/a	n/a	n/a	11	[0, 0, 0]	-999	PAL1	0	R1303E
1718.867	0.251	1771096	TEST_ORIENT	n/a	1	3	BOX	SQUARE	HAWK	BOX	11	[0, 0, 0]	-999	PAL1	0	R1303E
1719.118	0.75	1771347	RETRIEVAL_ORIENT_OFF	n/a	2	-999	n/a	n/a	n/a	n/a	11	[0, 0, 0]	-999	PAL1	0	R1303E
1719.868	0.001	1772097	TEST_PROBE	n/a	1	3	BOX	SQUARE	HAWK	BOX	11	[0, 0, 0]	-999	PAL1	0	R1303E
1719.869	1.455	1772098	REC_START	n/a	1	-999	n/a	SQUARE	n/a	n/a	11	[0, 0, 0]	-999	PAL1	0	R1303E
1721.324	2.561	1773553	REC_EVENT	1455	1	3	BOX	SQUARE	HAWK	BOX	11	[0, 0, 0]	-999	PAL1	0	R1303E
1723.885	1.0	1776114	PROBE_OFF	n/a	1	-999	n/a	n/a	n/a	n/a	11	[0, 0, 0]	-999	PAL1	0	R1303E
1724.885	0.017	1777114	REC_END	n/a	1	-999	n/a	n/a	n/a	n/a	11	[0, 0, 0]	-999	PAL1	0	R1303E
1724.902	0.268	1777131	TEST_ORIENT	n/a	4	4	SUIT	SEAT	SEAL	SUIT	11	[0, 0, 0]	-999	PAL1	0	R1303E
1725.17	0.665	1777399	RETRIEVAL_ORIENT_OFF	n/a	1	-999	n/a	n/a	n/a	n/a	11	[0, 0, 0]	-999	PAL1	0	R1303E
1725.835	0.001	1778064	TEST_PROBE	n/a	4	4	SUIT	SEAT	SEAL	SUIT	11	[0, 0, 0]	-999	PAL1	0	R1303E
1725.836	3.559	1778065	REC_START	n/a	4	-999	n/a	SEAT	n/a	n/a	11	[0, 0, 0]	-999	PAL1	0	R1303E
1729.395	0.458	1781624	REC_EVENT	3559	4	4	SUIT	SEAT	SEAL	SUIT	11	[0, 0, 0]	-999	PAL1	0	R1303E
1729.853	1.012	1782082	PROBE_OFF	n/a	4	-999	n/a	n/a	n/a	n/a	11	[0, 0, 0]	-999	PAL1	0	R1303E
1730.865	0.021	1783094	REC_END	n/a	4	-999	n/a	n/a	n/a	n/a	11	[0, 0, 0]	-999	PAL1	0	R1303E
1730.886	0.268	1783115	TEST_ORIENT	n/a	5	5	ROOT	PASS	TRAIN	ROOT	11	[0, 0, 0]	-999	PAL1	0	R1303E
1731.154	0.766	1783383	RETRIEVAL_ORIENT_OFF	n/a	4	-999	n/a	n/a	n/a	n/a	11	[0, 0, 0]	-999	PAL1	0	R1303E
1731.92	0.0	1784149	TEST_PROBE	n/a	5	5	ROOT	PASS	TRAIN	ROOT	11	[0, 0, 0]	-999	PAL1	0	R1303E
1731.92	4.017	1784149	REC_START	n/a	5	-999	n/a	PASS	n/a	n/a	11	[0, 0, 0]	-999	PAL1	0	R1303E
1735.937	0.102	1788166	PROBE_OFF	n/a	5	-999	n/a	n/a	n/a	n/a	11	[0, 0, 0]	-999	PAL1	0	R1303E
1736.039	0.898	1788268	REC_EVENT	4119	5	5	ROOT	PASS	TRAIN	ROOT	11	[0, 0, 0]	-999	PAL1	0	R1303E
1736.937	0.017	1789165	REC_END	n/a	5	-999	n/a	n/a	n/a	n/a	11	[0, 0, 0]	-999	PAL1	0	R1303E
1736.954	0.267	1789182	TEST_ORIENT	n/a	6	6	STORM	WIND	SALT	STORM	11	[0, 0, 0]	-999	PAL1	0	R1303E
1737.221	0.666	1789449	RETRIEVAL_ORIENT_OFF	n/a	5	-999	n/a	n/a	n/a	n/a	11	[0, 0, 0]	-999	PAL1	0	R1303E
1737.887	0.001	1790115	TEST_PROBE	n/a	6	6	STORM	WIND	SALT	STORM	11	[0, 0, 0]	-999	PAL1	0	R1303E
1737.888	3.054	1790116	REC_START	n/a	6	-999	n/a	WIND	n/a	n/a	11	[0, 0, 0]	-999	PAL1	0	R1303E
1740.942	0.963	1793170	REC_EVENT	3054	6	6	STORM	WIND	SALT	STORM	11	[0, 0, 0]	-999	PAL1	0	R1303E
1741.905	1.001	1794133	PROBE_OFF	n/a	6	-999	n/a	n/a	n/a	n/a	11	[0, 0, 0]	-999	PAL1	0	R1303E
1742.906	0.005	1795134	REC_END	n/a	6	-999	n/a	n/a	n/a	n/a	11	[0, 0, 0]	-999	PAL1	0	R1303E
1742.911	5.495	1795139	RECALL_END	n/a	-999	-999	n/a	n/a	n/a	n/a	11	[0, 0, 0]	-999	PAL1	0	R1303E
1748.406	10.928	1800634	TRIAL	n/a	-999	-999	n/a	n/a	n/a	n/a	12	[0, 0, 0]	-999	PAL1	0	R1303E
1759.334	0.007	1811562	ENCODING_START	n/a	-999	-999	n/a	n/a	n/a	n/a	12	[0, 0, 0]	-999	PAL1	0	R1303E
1759.341	0.267	1811569	STUDY_ORIENT	n/a	1	1	STOVE	CAVE	STOVE	MAP	12	[0, 0, 0]	-999	PAL1	0	R1303E
1759.608	0.683	1811836	STUDY_ORIENT_OFF	n/a	1	1	STOVE	CAVE	STOVE	MAP	12	[0, 0, 0]	-999	PAL1	0	R1303E
1760.291	4.018	1812519	STUDY_PAIR	n/a	1	1	STOVE	CAVE	STOVE	MAP	12	[0, 0, 0]	-999	PAL1	0	R1303E
1764.309	1.017	1816536	PAIR_OFF	n/a	1	1	STOVE	CAVE	STOVE	MAP	12	[0, 0, 0]	-999	PAL1	0	R1303E
1765.326	0.266	1817553	STUDY_ORIENT	n/a	2	6	SWAMP	PEN	INK	SWAMP	12	[0, 0, 0]	-999	PAL1	0	R1303E
1765.592	0.65	1817819	STUDY_ORIENT_OFF	n/a	2	6	SWAMP	PEN	INK	SWAMP	12	[0, 0, 0]	-999	PAL1	0	R1303E
1766.242	4.018	1818469	STUDY_PAIR	n/a	2	6	SWAMP	PEN	INK	SWAMP	12	[0, 0, 0]	-999	PAL1	0	R1303E
1770.26	1.017	1822487	PAIR_OFF	n/a	2	6	SWAMP	PEN	INK	SWAMP	12	[0, 0, 0]	-999	PAL1	0	R1303E
1771.277	0.266	1823504	STUDY_ORIENT	n/a	3	5	PEN	PASS	PEN	SHOE	12	[0, 0, 0]	-999	PAL1	0	R1303E
1771.543	0.618	1823770	STUDY_ORIENT_OFF	n/a	3	5	PEN	PASS	PEN	SHOE	12	[0, 0, 0]	-999	PAL1	0	R1303E
1772.161	4.017	1824388	STUDY_PAIR	n/a	3	5	PEN	PASS	PEN	SHOE	12	[0, 0, 0]	-999	PAL1	0	R1303E
1776.178	1.017	1828405	PAIR_OFF	n/a	3	5	PEN	PASS	PEN	SHOE	12	[0, 0, 0]	-999	PAL1	0	R1303E
1777.195	0.266	1829422	STUDY_ORIENT	n/a	4	4	TEA	NET	NET	TEA	12	[0, 0, 0]	-999	PAL1	0	R1303E
1777.461	0.634	1829688	STUDY_ORIENT_OFF	n/a	4	4	TEA	NET	NET	TEA	12	[0, 0, 0]	-999	PAL1	0	R1303E
1778.095	4.018	1830322	STUDY_PAIR	n/a	4	4	TEA	NET	NET	TEA	12	[0, 0, 0]	-999	PAL1	0	R1303E
1782.113	1.017	1834340	PAIR_OFF	n/a	4	4	TEA	NET	NET	TEA	12	[0, 0, 0]	-999	PAL1	0	R1303E
1783.13	0.265	1835357	STUDY_ORIENT	n/a	5	3	LAMB	STOVE	SPONGE	LAMB	12	[0, 0, 0]	-999	PAL1	0	R1303E
1783.395	0.551	1835622	STUDY_ORIENT_OFF	n/a	5	3	LAMB	STOVE	SPONGE	LAMB	12	[0, 0, 0]	-999	PAL1	0	R1303E
1783.946	4.018	1836173	STUDY_PAIR	n/a	5	3	LAMB	STOVE	SPONGE	LAMB	12	[0, 0, 0]	-999	PAL1	0	R1303E
1787.964	1.017	1840190	PAIR_OFF	n/a	5	3	LAMB	STOVE	SPONGE	LAMB	12	[0, 0, 0]	-999	PAL1	0	R1303E
1788.981	0.265	1841207	STUDY_ORIENT	n/a	6	2	WING	NET	CAGE	WING	12	[0, 0, 0]	-999	PAL1	0	R1303E
1789.246	0.701	1841472	STUDY_ORIENT_OFF	n/a	6	2	WING	NET	CAGE	WING	12	[0, 0, 0]	-999	PAL1	0	R1303E
1789.947	4.018	1842173	STUDY_PAIR	n/a	6	2	WING	NET	CAGE	WING	12	[0, 0, 0]	-999	PAL1	0	R1303E
1793.965	1.001	1846191	PAIR_OFF	n/a	6	2	WING	NET	CAGE	WING	12	[0, 0, 0]	-999	PAL1	0	R1303E
1794.966	0.0	1847192	ENCODING_END	n/a	-999	-999	n/a	n/a	n/a	n/a	12	[0, 0, 0]	-999	PAL1	0	R1303E
1794.966	0.0	1847192	MATH_START	n/a	-999	-999	n/a	n/a	n/a	n/a	12	[0, 0, 0]	-999	PAL1	0	R1303E
1794.966	0.016	1847192	START	n/a	-999	-999	n/a	n/a	n/a	n/a	12	[-999, -999, -999]	-999	PAL1	0	R1303E
1794.982	6.134	1847208	PROB	6099	-999	-999	n/a	n/a	n/a	n/a	12	[9, 1, 2]	12	PAL1	0	R1303E
1801.116	4.884	1853342	PROB	4853	-999	-999	n/a	n/a	n/a	n/a	12	[2, 4, 5]	11	PAL1	0	R1303E
1806.0	5.684	1858226	PROB	5649	-999	-999	n/a	n/a	n/a	n/a	12	[2, 5, 8]	15	PAL1	0	R1303E
1811.684	6.037	1863910	PROB	6037	-999	-999	n/a	n/a	n/a	n/a	12	[5, 3, 8]	16	PAL1	0	R1303E
1817.721	0.014	1869946	STOP	n/a	-999	-999	n/a	n/a	n/a	n/a	12	[-999, -999, -999]	-999	PAL1	0	R1303E
1817.735	0.0	1869960	MATH_END	n/a	-999	-999	n/a	n/a	n/a	n/a	12	[0, 0, 0]	-999	PAL1	0	R1303E
1817.735	0.016	1869960	RECALL_START	n/a	-999	-999	n/a	n/a	n/a	n/a	12	[0, 0, 0]	-999	PAL1	0	R1303E
1817.751	0.268	1869976	TEST_ORIENT	n/a	1	1	STOVE	CAVE	STOVE	MAP	12	[0, 0, 0]	-999	PAL1	0	R1303E
1818.019	0.633	1870244	RETRIEVAL_ORIENT_OFF	n/a	-999	-999	n/a	n/a	n/a	n/a	12	[0, 0, 0]	-999	PAL1	0	R1303E
1818.652	0.0	1870877	TEST_PROBE	n/a	1	1	STOVE	CAVE	STOVE	MAP	12	[0, 0, 0]	-999	PAL1	0	R1303E
1818.652	3.884	1870877	REC_START	n/a	1	-999	n/a	CAVE	n/a	n/a	12	[0, 0, 0]	-999	PAL1	0	R1303E
1822.536	0.133	1874761	REC_EVENT	3884	1	1	STOVE	CAVE	STOVE	MAP	12	[0, 0, 0]	-999	PAL1	0	R1303E
1822.669	1.0	1874894	PROBE_OFF	n/a	1	-999	n/a	n/a	n/a	n/a	12	[0, 0, 0]	-999	PAL1	0	R1303E
1823.669	0.017	1875894	REC_END	n/a	1	-999	n/a	n/a	n/a	n/a	12	[0, 0, 0]	-999	PAL1	0	R1303E
1823.686	0.267	1875911	TEST_ORIENT	n/a	6	2	WING	NET	CAGE	WING	12	[0, 0, 0]	-999	PAL1	0	R1303E
1823.953	0.733	1876178	RETRIEVAL_ORIENT_OFF	n/a	1	-999	n/a	n/a	n/a	n/a	12	[0, 0, 0]	-999	PAL1	0	R1303E
1824.686	0.0	1876911	REC_START	n/a	6	-999	n/a	NET	n/a	n/a	12	[0, 0, 0]	-999	PAL1	0	R1303E
1824.686	2.459	1876911	TEST_PROBE	n/a	6	2	WING	NET	CAGE	WING	12	[0, 0, 0]	-999	PAL1	0	R1303E
1827.145	1.558	1879370	REC_EVENT	2459	6	2	WING	NET	CAGE	WING	12	[0, 0, 0]	-999	PAL1	0	R1303E
1828.703	1.0	1880928	PROBE_OFF	n/a	6	-999	n/a	n/a	n/a	n/a	12	[0, 0, 0]	-999	PAL1	0	R1303E
1829.703	0.017	1881928	REC_END	n/a	6	-999	n/a	n/a	n/a	n/a	12	[0, 0, 0]	-999	PAL1	0	R1303E
1829.72	0.268	1881945	TEST_ORIENT	n/a	5	3	LAMB	STOVE	SPONGE	LAMB	12	[0, 0, 0]	-999	PAL1	0	R1303E
1829.988	0.732	1882213	RETRIEVAL_ORIENT_OFF	n/a	6	-999	n/a	n/a	n/a	n/a	12	[0, 0, 0]	-999	PAL1	0	R1303E
1830.72	0.001	1882945	TEST_PROBE	n/a	5	3	LAMB	STOVE	SPONGE	LAMB	12	[0, 0, 0]	-999	PAL1	0	R1303E
1830.721	2.154	1882946	REC_START	n/a	5	-999	n/a	STOVE	n/a	n/a	12	[0, 0, 0]	-999	PAL1	0	R1303E
1832.875	1.863	1885100	REC_EVENT	2154	5	3	LAMB	STOVE	SPONGE	LAMB	12	[0, 0, 0]	-999	PAL1	0	R1303E
1834.738	1.0	1886963	PROBE_OFF	n/a	5	-999	n/a	n/a	n/a	n/a	12	[0, 0, 0]	-999	PAL1	0	R1303E
1835.738	0.017	1887963	REC_END	n/a	5	-999	n/a	n/a	n/a	n/a	12	[0, 0, 0]	-999	PAL1	0	R1303E
1835.755	0.267	1887980	TEST_ORIENT	n/a	4	4	TEA	NET	NET	TEA	12	[0, 0, 0]	-999	PAL1	0	R1303E
1836.022	0.549	1888247	RETRIEVAL_ORIENT_OFF	n/a	5	-999	n/a	n/a	n/a	n/a	12	[0, 0, 0]	-999	PAL1	0	R1303E
1836.571	0.001	1888796	TEST_PROBE	n/a	4	4	TEA	NET	NET	TEA	12	[0, 0, 0]	-999	PAL1	0	R1303E
1836.572	2.184	1888797	REC_START	n/a	4	-999	n/a	NET	n/a	n/a	12	[0, 0, 0]	-999	PAL1	0	R1303E
1838.756	1.833	1890980	REC_EVENT	2184	4	4	TEA	NET	NET	TEA	12	[0, 0, 0]	-999	PAL1	0	R1303E
1840.589	1.0	1892813	PROBE_OFF	n/a	4	-999	n/a	n/a	n/a	n/a	12	[0, 0, 0]	-999	PAL1	0	R1303E
1841.589	0.017	1893813	REC_END	n/a	4	-999	n/a	n/a	n/a	n/a	12	[0, 0, 0]	-999	PAL1	0	R1303E
1841.606	0.266	1893830	TEST_ORIENT	n/a	3	5	PEN	PASS	PEN	SHOE	12	[0, 0, 0]	-999	PAL1	0	R1303E
1841.872	0.55	1894096	RETRIEVAL_ORIENT_OFF	n/a	4	-999	n/a	n/a	n/a	n/a	12	[0, 0, 0]	-999	PAL1	0	R1303E
1842.422	0.001	1894646	TEST_PROBE	n/a	3	5	PEN	PASS	PEN	SHOE	12	[0, 0, 0]	-999	PAL1	0	R1303E
1842.423	2.879	1894647	REC_START	n/a	3	-999	n/a	PASS	n/a	n/a	12	[0, 0, 0]	-999	PAL1	0	R1303E
1845.302	1.138	1897526	REC_EVENT	2879	3	5	PEN	PASS	PEN	SHOE	12	[0, 0, 0]	-999	PAL1	0	R1303E
1846.44	1.0	1898664	PROBE_OFF	n/a	3	-999	n/a	n/a	n/a	n/a	12	[0, 0, 0]	-999	PAL1	0	R1303E
1847.44	0.017	1899664	REC_END	n/a	3	-999	n/a	n/a	n/a	n/a	12	[0, 0, 0]	-999	PAL1	0	R1303E
1847.457	0.266	1899681	TEST_ORIENT	n/a	2	6	SWAMP	PEN	INK	SWAMP	12	[0, 0, 0]	-999	PAL1	0	R1303E
1847.723	0.517	1899947	RETRIEVAL_ORIENT_OFF	n/a	3	-999	n/a	n/a	n/a	n/a	12	[0, 0, 0]	-999	PAL1	0	R1303E
1848.24	0.001	1900464	TEST_PROBE	n/a	2	6	SWAMP	PEN	INK	SWAMP	12	[0, 0, 0]	-999	PAL1	0	R1303E
1848.241	2.719	1900465	REC_START	n/a	2	-999	n/a	PEN	n/a	n/a	12	[0, 0, 0]	-999	PAL1	0	R1303E
1850.96	1.297	1903184	REC_EVENT	2719	2	6	SWAMP	PEN	INK	SWAMP	12	[0, 0, 0]	-999	PAL1	0	R1303E
1852.257	1.0	1904481	PROBE_OFF	n/a	2	-999	n/a	n/a	n/a	n/a	12	[0, 0, 0]	-999	PAL1	0	R1303E
1853.257	0.01	1905481	REC_END	n/a	2	-999	n/a	n/a	n/a	n/a	12	[0, 0, 0]	-999	PAL1	0	R1303E
1853.267	4.425	1905491	RECALL_END	n/a	-999	-999	n/a	n/a	n/a	n/a	12	[0, 0, 0]	-999	PAL1	0	R1303E
1857.692	10.929	1909916	TRIAL	n/a	-999	-999	n/a	n/a	n/a	n/a	13	[0, 0, 0]	-999	PAL1	0	R1303E
1868.621	0.006	1920844	ENCODING_START	n/a	-999	-999	n/a	n/a	n/a	n/a	13	[0, 0, 0]	-999	PAL1	0	R1303E
1868.627	0.267	1920850	STUDY_ORIENT	n/a	1	3	PANTS	SEAT	BIRD	PANTS	13	[0, 0, 0]	-999	PAL1	0	R1303E
1868.894	0.567	1921117	STUDY_ORIENT_OFF	n/a	1	3	PANTS	SEAT	BIRD	PANTS	13	[0, 0, 0]	-999	PAL1	0	R1303E
1869.461	4.017	1921684	STUDY_PAIR	n/a	1	3	PANTS	SEAT	BIRD	PANTS	13	[0, 0, 0]	-999	PAL1	0	R1303E
1873.478	1.017	1925701	PAIR_OFF	n/a	1	3	PANTS	SEAT	BIRD	PANTS	13	[0, 0, 0]	-999	PAL1	0	R1303E
1874.495	0.266	1926718	STUDY_ORIENT	n/a	2	4	CLOCK	TOWN	CLOCK	CAVE	13	[0, 0, 0]	-999	PAL1	0	R1303E
1874.761	0.517	1926984	STUDY_ORIENT_OFF	n/a	2	4	CLOCK	TOWN	CLOCK	CAVE	13	[0, 0, 0]	-999	PAL1	0	R1303E
1875.278	4.018	1927501	STUDY_PAIR	n/a	2	4	CLOCK	TOWN	CLOCK	CAVE	13	[0, 0, 0]	-999	PAL1	0	R1303E
1879.296	1.016	1931519	PAIR_OFF	n/a	2	4	CLOCK	TOWN	CLOCK	CAVE	13	[0, 0, 0]	-999	PAL1	0	R1303E
1880.312	0.267	1932535	STUDY_ORIENT	n/a	3	5	SINK	n/a	FLOOR	SINK	13	[0, 0, 0]	-999	PAL1	0	R1303E
1880.579	0.618	1932802	STUDY_ORIENT_OFF	n/a	3	5	SINK	n/a	FLOOR	SINK	13	[0, 0, 0]	-999	PAL1	0	R1303E
1881.197	4.017	1933420	STUDY_PAIR	n/a	3	5	SINK	n/a	FLOOR	SINK	13	[0, 0, 0]	-999	PAL1	0	R1303E
1885.214	1.016	1937437	PAIR_OFF	n/a	3	5	SINK	n/a	FLOOR	SINK	13	[0, 0, 0]	-999	PAL1	0	R1303E
1886.23	0.267	1938453	STUDY_ORIENT	n/a	4	6	COUCH	CATCH	COUCH	CHIEF	13	[0, 0, 0]	-999	PAL1	0	R1303E
1886.497	0.584	1938720	STUDY_ORIENT_OFF	n/a	4	6	COUCH	CATCH	COUCH	CHIEF	13	[0, 0, 0]	-999	PAL1	0	R1303E
1887.081	4.018	1939304	STUDY_PAIR	n/a	4	6	COUCH	CATCH	COUCH	CHIEF	13	[0, 0, 0]	-999	PAL1	0	R1303E
1891.099	1.017	1943321	PAIR_OFF	n/a	4	6	COUCH	CATCH	COUCH	CHIEF	13	[0, 0, 0]	-999	PAL1	0	R1303E
1892.116	0.265	1944338	STUDY_ORIENT	n/a	5	1	SHIELD	PASS	JUICE	SHIELD	13	[0, 0, 0]	-999	PAL1	0	R1303E
1892.381	0.685	1944603	STUDY_ORIENT_OFF	n/a	5	1	SHIELD	PASS	JUICE	SHIELD	13	[0, 0, 0]	-999	PAL1	0	R1303E
1893.066	4.017	1945288	STUDY_PAIR	n/a	5	1	SHIELD	PASS	JUICE	SHIELD	13	[0, 0, 0]	-999	PAL1	0	R1303E
1897.083	1.017	1949305	PAIR_OFF	n/a	5	1	SHIELD	PASS	JUICE	SHIELD	13	[0, 0, 0]	-999	PAL1	0	R1303E
1898.1	0.266	1950322	STUDY_ORIENT	n/a	6	2	FOAM	n/a	HAND	FOAM	13	[0, 0, 0]	-999	PAL1	0	R1303E
1898.366	0.684	1950588	STUDY_ORIENT_OFF	n/a	6	2	FOAM	n/a	HAND	FOAM	13	[0, 0, 0]	-999	PAL1	0	R1303E
1899.05	4.017	1951272	STUDY_PAIR	n/a	6	2	FOAM	n/a	HAND	FOAM	13	[0, 0, 0]	-999	PAL1	0	R1303E
1903.067	1.001	1955289	PAIR_OFF	n/a	6	2	FOAM	n/a	HAND	FOAM	13	[0, 0, 0]	-999	PAL1	0	R1303E
1904.068	0.0	1956290	ENCODING_END	n/a	-999	-999	n/a	n/a	n/a	n/a	13	[0, 0, 0]	-999	PAL1	0	R1303E
1904.068	0.0	1956290	MATH_START	n/a	-999	-999	n/a	n/a	n/a	n/a	13	[0, 0, 0]	-999	PAL1	0	R1303E
1904.068	0.016	1956290	START	n/a	-999	-999	n/a	n/a	n/a	n/a	13	[-999, -999, -999]	-999	PAL1	0	R1303E
1904.084	5.45	1956306	PROB	5427	-999	-999	n/a	n/a	n/a	n/a	13	[5, 8, 2]	15	PAL1	0	R1303E
1909.534	4.368	1961756	PROB	4345	-999	-999	n/a	n/a	n/a	n/a	13	[2, 7, 3]	12	PAL1	0	R1303E
1913.902	6.534	1966123	PROB	6511	-999	-999	n/a	n/a	n/a	n/a	13	[6, 4, 4]	14	PAL1	0	R1303E
1920.436	6.928	1972657	PROB	6928	-999	-999	n/a	n/a	n/a	n/a	13	[9, 2, 6]	15	PAL1	0	R1303E
1927.364	0.006	1979585	STOP	n/a	-999	-999	n/a	n/a	n/a	n/a	13	[-999, -999, -999]	-999	PAL1	0	R1303E
1927.37	0.001	1979591	MATH_END	n/a	-999	-999	n/a	n/a	n/a	n/a	13	[0, 0, 0]	-999	PAL1	0	R1303E
1927.371	0.016	1979592	RECALL_START	n/a	-999	-999	n/a	n/a	n/a	n/a	13	[0, 0, 0]	-999	PAL1	0	R1303E
1927.387	0.267	1979608	TEST_ORIENT	n/a	5	1	SHIELD	PASS	JUICE	SHIELD	13	[0, 0, 0]	-999	PAL1	0	R1303E
1927.654	0.767	1979875	RETRIEVAL_ORIENT_OFF	n/a	-999	-999	n/a	n/a	n/a	n/a	13	[0, 0, 0]	-999	PAL1	0	R1303E
1928.421	0.001	1980642	TEST_PROBE	n/a	5	1	SHIELD	PASS	JUICE	SHIELD	13	[0, 0, 0]	-999	PAL1	0	R1303E
1928.422	4.004	1980643	REC_START	n/a	5	-999	n/a	PASS	n/a	n/a	13	[0, 0, 0]	-999	PAL1	0	R1303E
