onset	duration	sample	trial_type	response_time	serialpos	probepos	probe_word	resp_word	study_1	study_2	list	test	answer	experiment	session	subject
0.0	66.583	117031	SESS_START	n/a	-999	-999	n/a	n/a	n/a	n/a	-999	[0, 0, 0]	-999	PAL1	3	R1121M
66.583	1.017	150319	START	n/a	-999	-999	n/a	n/a	n/a	n/a	1	[-999, -999, -999]	-999	PAL1	3	R1121M
67.6	6.719	150828	PROB	6696	-999	-999	n/a	n/a	n/a	n/a	1	[3, 4, 6]	13	PAL1	3	R1121M
74.319	6.051	154187	PROB	6017	-999	-999	n/a	n/a	n/a	n/a	1	[8, 2, 8]	18	PAL1	3	R1121M
80.37	6.541	157212	PROB	6541	-999	-999	n/a	n/a	n/a	n/a	1	[7, 5, 4]	16	PAL1	3	R1121M
86.911	49.8	160483	STOP	n/a	-999	-999	n/a	n/a	n/a	n/a	1	[-999, -999, -999]	-999	PAL1	3	R1121M
136.711	10.438	185381	STUDY_START	n/a	-999	-999	n/a	n/a	n/a	n/a	1	[0, 0, 0]	-999	PAL1	3	R1121M
147.149	0.85	190599	STUDY_ORIENT	n/a	1	1	TIE	DIME	TIE	DIME	1	[0, 0, 0]	-999	PAL1	3	R1121M
147.999	5.018	191024	STUDY_PAIR	n/a	1	1	TIE	DIME	TIE	DIME	1	[0, 0, 0]	-999	PAL1	3	R1121M
153.017	0.833	193533	STUDY_ORIENT	n/a	2	4	NEST	n/a	ELF	NEST	1	[0, 0, 0]	-999	PAL1	3	R1121M
153.85	5.018	193949	STUDY_PAIR	n/a	2	4	NEST	n/a	ELF	NEST	1	[0, 0, 0]	-999	PAL1	3	R1121M
158.868	0.8	196458	STUDY_ORIENT	n/a	3	5	APE	n/a	SHELL	APE	1	[0, 0, 0]	-999	PAL1	3	R1121M
159.668	5.018	196858	STUDY_PAIR	n/a	3	5	APE	n/a	SHELL	APE	1	[0, 0, 0]	-999	PAL1	3	R1121M
164.686	0.883	199367	STUDY_ORIENT	n/a	4	2	WEB	n/a	BOOT	WEB	1	[0, 0, 0]	-999	PAL1	3	R1121M
165.569	5.018	199808	STUDY_PAIR	n/a	4	2	WEB	n/a	BOOT	WEB	1	[0, 0, 0]	-999	PAL1	3	R1121M
170.587	0.835	202317	STUDY_ORIENT	n/a	5	3	COIN	n/a	FLEA	COIN	1	[0, 0, 0]	-999	PAL1	3	R1121M
171.422	5.033	202735	STUDY_PAIR	n/a	5	3	COIN	n/a	FLEA	COIN	1	[0, 0, 0]	-999	PAL1	3	R1121M
176.455	0.783	205251	STUDY_ORIENT	n/a	6	6	SAIL	NAIL	SAIL	JAIL	1	[0, 0, 0]	-999	PAL1	3	R1121M
177.238	4.001	205642	STUDY_PAIR	n/a	6	6	SAIL	NAIL	SAIL	JAIL	1	[0, 0, 0]	-999	PAL1	3	R1121M
181.239	1.0	207643	START	n/a	-999	-999	n/a	n/a	n/a	n/a	2	[-999, -999, -999]	-999	PAL1	3	R1121M
182.239	0.017	208143	MATH_START	n/a	-999	-999	n/a	n/a	n/a	n/a	1	[0, 0, 0]	-999	PAL1	3	R1121M
182.256	55.104	208151	PROB	55104	-999	-999	n/a	n/a	n/a	n/a	2	[7, 9, 8]	10	PAL1	3	R1121M
237.36	0.008	235701	STOP	n/a	-999	-999	n/a	n/a	n/a	n/a	2	[-999, -999, -999]	-999	PAL1	3	R1121M
237.368	0.0	235705	MATH_END	n/a	-999	-999	n/a	n/a	n/a	n/a	1	[0, 0, 0]	-999	PAL1	3	R1121M
237.368	0.017	235705	TEST_START	n/a	-999	-999	n/a	n/a	n/a	n/a	1	[0, 0, 0]	-999	PAL1	3	R1121M
237.385	0.9	235714	TEST_ORIENT	n/a	1	1	TIE	DIME	TIE	DIME	1	[0, 0, 0]	-999	PAL1	3	R1121M
238.285	0.001	236164	TEST_PROBE	n/a	1	1	TIE	DIME	TIE	DIME	1	[0, 0, 0]	-999	PAL1	3	R1121M
238.286	1.489	236164	REC_START	n/a	1	-999	n/a	DIME	n/a	n/a	1	[0, 0, 0]	-999	PAL1	3	R1121M
239.775	3.535	236908	REC_EVENT	1489	1	1	TIE	DIME	TIE	DIME	1	[0, 0, 0]	-999	PAL1	3	R1121M
243.31	0.009	238676	REC_END	n/a	1	-999	n/a	n/a	n/a	n/a	1	[0, 0, 0]	-999	PAL1	3	R1121M
243.319	0.833	238680	TEST_ORIENT	n/a	4	2	WEB	n/a	BOOT	WEB	1	[0, 0, 0]	-999	PAL1	3	R1121M
244.152	0.0	239097	TEST_PROBE	n/a	4	2	WEB	n/a	BOOT	WEB	1	[0, 0, 0]	-999	PAL1	3	R1121M
244.152	0.0	239097	REC_START	n/a	4	-999	n/a	<>	n/a	n/a	1	[0, 0, 0]	-999	PAL1	3	R1121M
244.152	5.034	239097	REC_EVENT	0	4	2	WEB	<>	BOOT	WEB	1	[0, 0, 0]	-999	PAL1	3	R1121M
249.186	0.017	241614	REC_END	n/a	4	-999	n/a	n/a	n/a	n/a	1	[0, 0, 0]	-999	PAL1	3	R1121M
249.203	1.033	241622	TEST_ORIENT	n/a	5	3	COIN	n/a	FLEA	COIN	1	[0, 0, 0]	-999	PAL1	3	R1121M
250.236	0.001	242139	TEST_PROBE	n/a	5	3	COIN	n/a	FLEA	COIN	1	[0, 0, 0]	-999	PAL1	3	R1121M
250.237	0.0	242139	REC_START	n/a	5	-999	n/a	<>	n/a	n/a	1	[0, 0, 0]	-999	PAL1	3	R1121M
250.237	5.016	242139	REC_EVENT	0	5	3	COIN	<>	FLEA	COIN	1	[0, 0, 0]	-999	PAL1	3	R1121M
255.253	0.017	244647	REC_END	n/a	5	-999	n/a	n/a	n/a	n/a	1	[0, 0, 0]	-999	PAL1	3	R1121M
255.27	0.917	244655	TEST_ORIENT	n/a	2	4	NEST	n/a	ELF	NEST	1	[0, 0, 0]	-999	PAL1	3	R1121M
256.187	0.001	245114	TEST_PROBE	n/a	2	4	NEST	n/a	ELF	NEST	1	[0, 0, 0]	-999	PAL1	3	R1121M
256.188	0.0	245114	REC_START	n/a	2	-999	n/a	<>	n/a	n/a	1	[0, 0, 0]	-999	PAL1	3	R1121M
256.188	5.008	245114	REC_EVENT	0	2	4	NEST	<>	ELF	NEST	1	[0, 0, 0]	-999	PAL1	3	R1121M
261.196	0.009	247618	REC_END	n/a	2	-999	n/a	n/a	n/a	n/a	1	[0, 0, 0]	-999	PAL1	3	R1121M
261.205	0.817	247623	TEST_ORIENT	n/a	3	5	APE	n/a	SHELL	APE	1	[0, 0, 0]	-999	PAL1	3	R1121M
262.022	0.0	248031	TEST_PROBE	n/a	3	5	APE	n/a	SHELL	APE	1	[0, 0, 0]	-999	PAL1	3	R1121M
262.022	0.0	248031	REC_START	n/a	3	-999	n/a	<>	n/a	n/a	1	[0, 0, 0]	-999	PAL1	3	R1121M
262.022	5.017	248031	REC_EVENT	0	3	5	APE	<>	SHELL	APE	1	[0, 0, 0]	-999	PAL1	3	R1121M
267.039	0.017	250539	REC_END	n/a	3	-999	n/a	n/a	n/a	n/a	1	[0, 0, 0]	-999	PAL1	3	R1121M
267.056	0.95	250548	TEST_ORIENT	n/a	6	6	SAIL	NAIL	SAIL	JAIL	1	[0, 0, 0]	-999	PAL1	3	R1121M
268.006	0.001	251023	TEST_PROBE	n/a	6	6	SAIL	NAIL	SAIL	JAIL	1	[0, 0, 0]	-999	PAL1	3	R1121M
268.007	2.823	251023	REC_START	n/a	6	-999	n/a	NAIL	n/a	n/a	1	[0, 0, 0]	-999	PAL1	3	R1121M
270.83	2.185	252435	REC_EVENT	2823	6	6	SAIL	NAIL	SAIL	JAIL	1	[0, 0, 0]	-999	PAL1	3	R1121M
273.015	15.016	253527	REC_END	n/a	6	-999	n/a	n/a	n/a	n/a	1	[0, 0, 0]	-999	PAL1	3	R1121M
288.031	10.448	261035	STUDY_START	n/a	-999	-999	n/a	n/a	n/a	n/a	2	[0, 0, 0]	-999	PAL1	3	R1121M
298.479	0.868	266258	STUDY_ORIENT	n/a	1	5	TRASH	n/a	TRASH	JAR	2	[0, 0, 0]	-999	PAL1	3	R1121M
299.347	5.034	266692	STUDY_PAIR	n/a	1	5	TRASH	n/a	TRASH	JAR	2	[0, 0, 0]	-999	PAL1	3	R1121M
304.381	0.967	269209	STUDY_ORIENT	n/a	2	6	ARM	COUCH	ARM	COUCH	2	[0, 0, 0]	-999	PAL1	3	R1121M
305.348	5.034	269692	STUDY_PAIR	n/a	2	6	ARM	COUCH	ARM	COUCH	2	[0, 0, 0]	-999	PAL1	3	R1121M
310.382	0.783	272209	STUDY_ORIENT	n/a	3	3	FOG	BANK	FOG	BANK	2	[0, 0, 0]	-999	PAL1	3	R1121M
311.165	5.034	272601	STUDY_PAIR	n/a	3	3	FOG	BANK	FOG	BANK	2	[0, 0, 0]	-999	PAL1	3	R1121M
316.199	0.967	275117	STUDY_ORIENT	n/a	4	4	SQUARE	n/a	WHALE	SQUARE	2	[0, 0, 0]	-999	PAL1	3	R1121M
317.166	5.034	275601	STUDY_PAIR	n/a	4	4	SQUARE	n/a	WHALE	SQUARE	2	[0, 0, 0]	-999	PAL1	3	R1121M
322.2	0.9	278118	STUDY_ORIENT	n/a	5	1	PEN	n/a	EAR	PEN	2	[0, 0, 0]	-999	PAL1	3	R1121M
323.1	5.018	278568	STUDY_PAIR	n/a	5	1	PEN	n/a	EAR	PEN	2	[0, 0, 0]	-999	PAL1	3	R1121M
328.118	0.817	281076	STUDY_ORIENT	n/a	6	2	SKY	BLOOM	SKY	BLOOM	2	[0, 0, 0]	-999	PAL1	3	R1121M
328.935	4.018	281485	STUDY_PAIR	n/a	6	2	SKY	BLOOM	SKY	BLOOM	2	[0, 0, 0]	-999	PAL1	3	R1121M
332.953	1.0	283494	START	n/a	-999	-999	n/a	n/a	n/a	n/a	3	[-999, -999, -999]	-999	PAL1	3	R1121M
333.953	0.016	283994	MATH_START	n/a	-999	-999	n/a	n/a	n/a	n/a	2	[0, 0, 0]	-999	PAL1	3	R1121M
333.969	9.086	284002	PROB	9062	-999	-999	n/a	n/a	n/a	n/a	3	[7, 8, 1]	53	PAL1	3	R1121M
343.055	3.251	288544	PROB	3216	-999	-999	n/a	n/a	n/a	n/a	3	[8, 8, 8]	347	PAL1	3	R1121M
346.306	2.6	290170	PROB	2581	-999	-999	n/a	n/a	n/a	n/a	3	[6, 8, 9]	74	PAL1	3	R1121M
348.906	2.55	291470	PROB	2525	-999	-999	n/a	n/a	n/a	n/a	3	[6, 3, 7]	47	PAL1	3	R1121M
351.456	2.968	292744	PROB	2968	-999	-999	n/a	n/a	n/a	n/a	3	[8, 3, 1]	488	PAL1	3	R1121M
354.424	0.016	294228	STOP	n/a	-999	-999	n/a	n/a	n/a	n/a	3	[-999, -999, -999]	-999	PAL1	3	R1121M
354.44	0.0	294236	MATH_END	n/a	-999	-999	n/a	n/a	n/a	n/a	2	[0, 0, 0]	-999	PAL1	3	R1121M
354.44	0.017	294236	TEST_START	n/a	-999	-999	n/a	n/a	n/a	n/a	2	[0, 0, 0]	-999	PAL1	3	R1121M
354.457	0.851	294245	TEST_ORIENT	n/a	5	1	PEN	n/a	EAR	PEN	2	[0, 0, 0]	-999	PAL1	3	R1121M
355.308	0.001	294670	TEST_PROBE	n/a	5	1	PEN	n/a	EAR	PEN	2	[0, 0, 0]	-999	PAL1	3	R1121M
355.309	0.0	294671	REC_START	n/a	5	-999	n/a	<>	n/a	n/a	2	[0, 0, 0]	-999	PAL1	3	R1121M
355.309	5.016	294671	REC_EVENT	0	5	1	PEN	<>	EAR	PEN	2	[0, 0, 0]	-999	PAL1	3	R1121M
360.325	0.017	297179	REC_END	n/a	5	-999	n/a	n/a	n/a	n/a	2	[0, 0, 0]	-999	PAL1	3	R1121M
360.342	1.0	297187	TEST_ORIENT	n/a	6	2	SKY	BLOOM	SKY	BLOOM	2	[0, 0, 0]	-999	PAL1	3	R1121M
361.342	0.002	297687	TEST_PROBE	n/a	6	2	SKY	BLOOM	SKY	BLOOM	2	[0, 0, 0]	-999	PAL1	3	R1121M
361.344	1.141	297688	REC_START	n/a	6	-999	n/a	BLOOM	n/a	n/a	2	[0, 0, 0]	-999	PAL1	3	R1121M
362.485	3.858	298259	REC_EVENT	1141	6	2	SKY	BLOOM	SKY	BLOOM	2	[0, 0, 0]	-999	PAL1	3	R1121M
366.343	0.017	300187	REC_END	n/a	6	-999	n/a	n/a	n/a	n/a	2	[0, 0, 0]	-999	PAL1	3	R1121M
366.36	0.883	300196	TEST_ORIENT	n/a	3	3	FOG	BANK	FOG	BANK	2	[0, 0, 0]	-999	PAL1	3	R1121M
367.243	0.0	300637	TEST_PROBE	n/a	3	3	FOG	BANK	FOG	BANK	2	[0, 0, 0]	-999	PAL1	3	R1121M
367.243	1.034	300637	REC_START	n/a	3	-999	n/a	BANK	n/a	n/a	2	[0, 0, 0]	-999	PAL1	3	R1121M
368.277	3.991	301154	REC_EVENT	1034	3	3	FOG	BANK	FOG	BANK	2	[0, 0, 0]	-999	PAL1	3	R1121M
372.268	0.01	303150	REC_END	n/a	3	-999	n/a	n/a	n/a	n/a	2	[0, 0, 0]	-999	PAL1	3	R1121M
372.278	0.982	303155	TEST_ORIENT	n/a	4	4	SQUARE	n/a	WHALE	SQUARE	2	[0, 0, 0]	-999	PAL1	3	R1121M
373.26	0.001	303646	TEST_PROBE	n/a	4	4	SQUARE	n/a	WHALE	SQUARE	2	[0, 0, 0]	-999	PAL1	3	R1121M
373.261	0.0	303646	REC_START	n/a	4	-999	n/a	<>	n/a	n/a	2	[0, 0, 0]	-999	PAL1	3	R1121M
373.261	5.009	303646	REC_EVENT	0	4	4	SQUARE	<>	WHALE	SQUARE	2	[0, 0, 0]	-999	PAL1	3	R1121M
378.27	0.009	306150	REC_END	n/a	4	-999	n/a	n/a	n/a	n/a	2	[0, 0, 0]	-999	PAL1	3	R1121M
378.279	0.949	306155	TEST_ORIENT	n/a	1	5	TRASH	n/a	TRASH	JAR	2	[0, 0, 0]	-999	PAL1	3	R1121M
379.228	0.001	306629	TEST_PROBE	n/a	1	5	TRASH	n/a	TRASH	JAR	2	[0, 0, 0]	-999	PAL1	3	R1121M
379.229	0.0	306630	REC_START	n/a	1	-999	n/a	<>	n/a	n/a	2	[0, 0, 0]	-999	PAL1	3	R1121M
379.229	5.008	306630	REC_EVENT	0	1	5	TRASH	<>	TRASH	JAR	2	[0, 0, 0]	-999	PAL1	3	R1121M
384.237	0.009	309134	REC_END	n/a	1	-999	n/a	n/a	n/a	n/a	2	[0, 0, 0]	-999	PAL1	3	R1121M
384.246	0.934	309138	TEST_ORIENT	n/a	2	6	ARM	COUCH	ARM	COUCH	2	[0, 0, 0]	-999	PAL1	3	R1121M
385.18	0.001	309605	TEST_PROBE	n/a	2	6	ARM	COUCH	ARM	COUCH	2	[0, 0, 0]	-999	PAL1	3	R1121M
385.181	1.145	309606	REC_START	n/a	2	-999	n/a	COUCH	n/a	n/a	2	[0, 0, 0]	-999	PAL1	3	R1121M
386.326	3.879	310178	REC_EVENT	1145	2	6	ARM	COUCH	ARM	COUCH	2	[0, 0, 0]	-999	PAL1	3	R1121M
390.205	2.69	312117	REC_END	n/a	2	-999	n/a	n/a	n/a	n/a	2	[0, 0, 0]	-999	PAL1	3	R1121M
392.895	10.439	313462	STUDY_START	n/a	-999	-999	n/a	n/a	n/a	n/a	3	[0, 0, 0]	-999	PAL1	3	R1121M
403.334	0.799	318681	STUDY_ORIENT	n/a	1	5	SKUNK	COW	COW	SKUNK	3	[0, 0, 0]	-999	PAL1	3	R1121M
404.133	5.018	319081	STUDY_PAIR	n/a	1	5	SKUNK	COW	COW	SKUNK	3	[0, 0, 0]	-999	PAL1	3	R1121M
409.151	0.95	321590	STUDY_ORIENT	n/a	2	4	ROAD	CHALK	CHALK	ROAD	3	[0, 0, 0]	-999	PAL1	3	R1121M
410.101	5.018	322065	STUDY_PAIR	n/a	2	4	ROAD	CHALK	CHALK	ROAD	3	[0, 0, 0]	-999	PAL1	3	R1121M
415.119	0.917	324573	STUDY_ORIENT	n/a	3	3	TEA	BAG	SINK	TEA	3	[0, 0, 0]	-999	PAL1	3	R1121M
416.036	5.034	325032	STUDY_PAIR	n/a	3	3	TEA	BAG	SINK	TEA	3	[0, 0, 0]	-999	PAL1	3	R1121M
421.07	0.933	327549	STUDY_ORIENT	n/a	4	6	VAN	CHALK	NAIL	VAN	3	[0, 0, 0]	-999	PAL1	3	R1121M
422.003	5.018	328015	STUDY_PAIR	n/a	4	6	VAN	CHALK	NAIL	VAN	3	[0, 0, 0]	-999	PAL1	3	R1121M
427.021	0.95	330524	STUDY_ORIENT	n/a	5	1	MUD	CALF	MUD	CALF	3	[0, 0, 0]	-999	PAL1	3	R1121M
427.971	5.018	330999	STUDY_PAIR	n/a	5	1	MUD	CALF	MUD	CALF	3	[0, 0, 0]	-999	PAL1	3	R1121M
432.989	0.95	333508	STUDY_ORIENT	n/a	6	2	STORM	ROOF	STORM	ROOF	3	[0, 0, 0]	-999	PAL1	3	R1121M
433.939	4.002	333983	STUDY_PAIR	n/a	6	2	STORM	ROOF	STORM	ROOF	3	[0, 0, 0]	-999	PAL1	3	R1121M
437.941	0.999	335984	START	n/a	-999	-999	n/a	n/a	n/a	n/a	4	[-999, -999, -999]	-999	PAL1	3	R1121M
438.94	0.017	336483	MATH_START	n/a	-999	-999	n/a	n/a	n/a	n/a	3	[0, 0, 0]	-999	PAL1	3	R1121M
438.957	6.751	336492	PROB	6730	-999	-999	n/a	n/a	n/a	n/a	4	[9, 5, 3]	17	PAL1	3	R1121M
445.708	5.118	339867	PROB	5099	-999	-999	n/a	n/a	n/a	n/a	4	[1, 8, 3]	14	PAL1	3	R1121M
450.826	5.301	342426	PROB	5269	-999	-999	n/a	n/a	n/a	n/a	4	[3, 2, 6]	16	PAL1	3	R1121M
456.127	2.624	345076	PROB	2624	-999	-999	n/a	n/a	n/a	n/a	4	[5, 7, 8]	17	PAL1	3	R1121M
458.751	0.01	346388	STOP	n/a	-999	-999	n/a	n/a	n/a	n/a	4	[-999, -999, -999]	-999	PAL1	3	R1121M
458.761	0.0	346393	MATH_END	n/a	-999	-999	n/a	n/a	n/a	n/a	3	[0, 0, 0]	-999	PAL1	3	R1121M
458.761	0.016	346393	TEST_START	n/a	-999	-999	n/a	n/a	n/a	n/a	3	[0, 0, 0]	-999	PAL1	3	R1121M
458.777	0.801	346401	TEST_ORIENT	n/a	5	1	MUD	CALF	MUD	CALF	3	[0, 0, 0]	-999	PAL1	3	R1121M
459.578	0.002	346801	TEST_PROBE	n/a	5	1	MUD	CALF	MUD	CALF	3	[0, 0, 0]	-999	PAL1	3	R1121M
459.58	1.717	346802	REC_START	n/a	5	-999	n/a	CALF	n/a	n/a	3	[0, 0, 0]	-999	PAL1	3	R1121M
461.297	3.305	347661	REC_EVENT	1717	5	1	MUD	CALF	MUD	CALF	3	[0, 0, 0]	-999	PAL1	3	R1121M
464.602	0.01	349313	REC_END	n/a	5	-999	n/a	n/a	n/a	n/a	3	[0, 0, 0]	-999	PAL1	3	R1121M
464.612	0.817	349318	TEST_ORIENT	n/a	6	2	STORM	ROOF	STORM	ROOF	3	[0, 0, 0]	-999	PAL1	3	R1121M
465.429	0.001	349726	TEST_PROBE	n/a	6	2	STORM	ROOF	STORM	ROOF	3	[0, 0, 0]	-999	PAL1	3	R1121M
465.43	1.604	349727	REC_START	n/a	6	-999	n/a	ROOF	n/a	n/a	3	[0, 0, 0]	-999	PAL1	3	R1121M
467.034	3.395	350529	REC_EVENT	1604	6	2	STORM	ROOF	STORM	ROOF	3	[0, 0, 0]	-999	PAL1	3	R1121M
470.429	0.017	352226	REC_END	n/a	6	-999	n/a	n/a	n/a	n/a	3	[0, 0, 0]	-999	PAL1	3	R1121M
470.446	0.835	352235	TEST_ORIENT	n/a	3	3	TEA	BAG	SINK	TEA	3	[0, 0, 0]	-999	PAL1	3	R1121M
471.281	0.0	352652	TEST_PROBE	n/a	3	3	TEA	BAG	SINK	TEA	3	[0, 0, 0]	-999	PAL1	3	R1121M
471.281	4.68	352652	REC_START	n/a	3	-999	n/a	BAG	n/a	n/a	3	[0, 0, 0]	-999	PAL1	3	R1121M
475.961	0.337	354992	REC_EVENT	4680	3	3	TEA	BAG	SINK	TEA	3	[0, 0, 0]	-999	PAL1	3	R1121M
476.298	0.017	355161	REC_END	n/a	3	-999	n/a	n/a	n/a	n/a	3	[0, 0, 0]	-999	PAL1	3	R1121M
476.315	0.899	355169	TEST_ORIENT	n/a	2	4	ROAD	CHALK	CHALK	ROAD	3	[0, 0, 0]	-999	PAL1	3	R1121M
477.214	0.001	355618	TEST_PROBE	n/a	2	4	ROAD	CHALK	CHALK	ROAD	3	[0, 0, 0]	-999	PAL1	3	R1121M
477.215	1.991	355619	REC_START	n/a	2	-999	n/a	CHALK	n/a	n/a	3	[0, 0, 0]	-999	PAL1	3	R1121M
479.206	3.017	356614	REC_EVENT	1991	2	4	ROAD	CHALK	CHALK	ROAD	3	[0, 0, 0]	-999	PAL1	3	R1121M
482.223	0.009	358123	REC_END	n/a	2	-999	n/a	n/a	n/a	n/a	3	[0, 0, 0]	-999	PAL1	3	R1121M
482.232	0.85	358127	TEST_ORIENT	n/a	1	5	SKUNK	COW	COW	SKUNK	3	[0, 0, 0]	-999	PAL1	3	R1121M
483.082	0.001	358552	TEST_PROBE	n/a	1	5	SKUNK	COW	COW	SKUNK	3	[0, 0, 0]	-999	PAL1	3	R1121M
483.083	5.007	358553	REC_START	n/a	1	-999	n/a	COW	n/a	n/a	3	[0, 0, 0]	-999	PAL1	3	R1121M
488.09	0.003	361056	REC_END	n/a	1	-999	n/a	n/a	n/a	n/a	3	[0, 0, 0]	-999	PAL1	3	R1121M
488.093	0.007	361058	REC_EVENT	5010	1	5	SKUNK	COW	COW	SKUNK	3	[0, 0, 0]	-999	PAL1	3	R1121M
488.1	0.984	361061	TEST_ORIENT	n/a	4	6	VAN	CHALK	NAIL	VAN	3	[0, 0, 0]	-999	PAL1	3	R1121M
489.084	0.0	361553	TEST_PROBE	n/a	4	6	VAN	CHALK	NAIL	VAN	3	[0, 0, 0]	-999	PAL1	3	R1121M
489.084	3.368	361553	REC_START	n/a	4	-999	n/a	CHALK	n/a	n/a	3	[0, 0, 0]	-999	PAL1	3	R1121M
492.452	1.657	363237	REC_EVENT	3368	4	6	VAN	CHALK	NAIL	VAN	3	[0, 0, 0]	-999	PAL1	3	R1121M
494.109	2.33	364065	REC_END	n/a	4	-999	n/a	n/a	n/a	n/a	3	[0, 0, 0]	-999	PAL1	3	R1121M
496.439	10.448	365230	STUDY_START	n/a	-999	-999	n/a	n/a	n/a	n/a	4	[0, 0, 0]	-999	PAL1	3	R1121M
506.887	0.834	370454	STUDY_ORIENT	n/a	1	1	BROOM	n/a	BROOM	FLAME	4	[0, 0, 0]	-999	PAL1	3	R1121M
507.721	5.034	370871	STUDY_PAIR	n/a	1	1	BROOM	n/a	BROOM	FLAME	4	[0, 0, 0]	-999	PAL1	3	R1121M
512.755	0.933	373388	STUDY_ORIENT	n/a	2	4	DUCK	n/a	STOVE	DUCK	4	[0, 0, 0]	-999	PAL1	3	R1121M
513.688	5.018	373854	STUDY_PAIR	n/a	2	4	DUCK	n/a	STOVE	DUCK	4	[0, 0, 0]	-999	PAL1	3	R1121M
518.706	0.95	376363	STUDY_ORIENT	n/a	3	3	PET	n/a	PET	SCHOOL	4	[0, 0, 0]	-999	PAL1	3	R1121M
519.656	5.018	376838	STUDY_PAIR	n/a	3	3	PET	n/a	PET	SCHOOL	4	[0, 0, 0]	-999	PAL1	3	R1121M
524.674	0.883	379347	STUDY_ORIENT	n/a	4	2	CLOUD	n/a	CLOUD	HEART	4	[0, 0, 0]	-999	PAL1	3	R1121M
525.557	5.018	379788	STUDY_PAIR	n/a	4	2	CLOUD	n/a	CLOUD	HEART	4	[0, 0, 0]	-999	PAL1	3	R1121M
530.575	0.801	382297	STUDY_ORIENT	n/a	5	5	SOAP	n/a	CAPE	SOAP	4	[0, 0, 0]	-999	PAL1	3	R1121M
531.376	5.018	382697	STUDY_PAIR	n/a	5	5	SOAP	n/a	CAPE	SOAP	4	[0, 0, 0]	-999	PAL1	3	R1121M
536.394	0.883	385206	STUDY_ORIENT	n/a	6	6	JEEP	MUD	BAT	JEEP	4	[0, 0, 0]	-999	PAL1	3	R1121M
537.277	4.001	385648	STUDY_PAIR	n/a	6	6	JEEP	MUD	BAT	JEEP	4	[0, 0, 0]	-999	PAL1	3	R1121M
541.278	1.0	387648	START	n/a	-999	-999	n/a	n/a	n/a	n/a	5	[-999, -999, -999]	-999	PAL1	3	R1121M
542.278	0.017	388148	MATH_START	n/a	-999	-999	n/a	n/a	n/a	n/a	4	[0, 0, 0]	-999	PAL1	3	R1121M
542.295	6.967	388156	PROB	6944	-999	-999	n/a	n/a	n/a	n/a	5	[7, 5, 5]	17	PAL1	3	R1121M
549.262	4.085	391640	PROB	4058	-999	-999	n/a	n/a	n/a	n/a	5	[1, 5, 9]	7	PAL1	3	R1121M
553.347	2.633	393682	PROB	2604	-999	-999	n/a	n/a	n/a	n/a	5	[3, 7, 9]	81	PAL1	3	R1121M
555.98	2.234	394998	PROB	2211	-999	-999	n/a	n/a	n/a	n/a	5	[7, 3, 5]	18	PAL1	3	R1121M
558.214	2.201	396115	PROB	2170	-999	-999	n/a	n/a	n/a	n/a	5	[9, 8, 1]	18	PAL1	3	R1121M
560.415	2.032	397216	PROB	2032	-999	-999	n/a	n/a	n/a	n/a	5	[3, 9, 2]	18	PAL1	3	R1121M
562.447	0.018	398232	STOP	n/a	-999	-999	n/a	n/a	n/a	n/a	5	[-999, -999, -999]	-999	PAL1	3	R1121M
562.465	0.0	398241	MATH_END	n/a	-999	-999	n/a	n/a	n/a	n/a	4	[0, 0, 0]	-999	PAL1	3	R1121M
562.465	0.017	398241	TEST_START	n/a	-999	-999	n/a	n/a	n/a	n/a	4	[0, 0, 0]	-999	PAL1	3	R1121M
562.482	0.966	398249	TEST_ORIENT	n/a	1	1	BROOM	n/a	BROOM	FLAME	4	[0, 0, 0]	-999	PAL1	3	R1121M
563.448	0.001	398732	TEST_PROBE	n/a	1	1	BROOM	n/a	BROOM	FLAME	4	[0, 0, 0]	-999	PAL1	3	R1121M
563.449	0.0	398733	REC_START	n/a	1	-999	n/a	<>	n/a	n/a	4	[0, 0, 0]	-999	PAL1	3	R1121M
563.449	5.008	398733	REC_EVENT	0	1	1	BROOM	<>	BROOM	FLAME	4	[0, 0, 0]	-999	PAL1	3	R1121M
568.457	0.009	401236	REC_END	n/a	1	-999	n/a	n/a	n/a	n/a	4	[0, 0, 0]	-999	PAL1	3	R1121M
568.466	1.017	401241	TEST_ORIENT	n/a	4	2	CLOUD	n/a	CLOUD	HEART	4	[0, 0, 0]	-999	PAL1	3	R1121M
569.483	0.0	401749	TEST_PROBE	n/a	4	2	CLOUD	n/a	CLOUD	HEART	4	[0, 0, 0]	-999	PAL1	3	R1121M
569.483	0.0	401749	REC_START	n/a	4	-999	n/a	<>	n/a	n/a	4	[0, 0, 0]	-999	PAL1	3	R1121M
569.483	5.017	401749	REC_EVENT	0	4	2	CLOUD	<>	CLOUD	HEART	4	[0, 0, 0]	-999	PAL1	3	R1121M
574.5	0.017	404258	REC_END	n/a	4	-999	n/a	n/a	n/a	n/a	4	[0, 0, 0]	-999	PAL1	3	R1121M
574.517	0.984	404266	TEST_ORIENT	n/a	3	3	PET	n/a	PET	SCHOOL	4	[0, 0, 0]	-999	PAL1	3	R1121M
575.501	0.001	404758	TEST_PROBE	n/a	3	3	PET	n/a	PET	SCHOOL	4	[0, 0, 0]	-999	PAL1	3	R1121M
575.502	0.0	404759	REC_START	n/a	3	-999	n/a	<>	n/a	n/a	4	[0, 0, 0]	-999	PAL1	3	R1121M
575.502	5.016	404759	REC_EVENT	0	3	3	PET	<>	PET	SCHOOL	4	[0, 0, 0]	-999	PAL1	3	R1121M
580.518	0.017	407266	REC_END	n/a	3	-999	n/a	n/a	n/a	n/a	4	[0, 0, 0]	-999	PAL1	3	R1121M
580.535	0.917	407275	TEST_ORIENT	n/a	2	4	DUCK	n/a	STOVE	DUCK	4	[0, 0, 0]	-999	PAL1	3	R1121M
581.452	0.0	407733	TEST_PROBE	n/a	2	4	DUCK	n/a	STOVE	DUCK	4	[0, 0, 0]	-999	PAL1	3	R1121M
581.452	0.0	407733	REC_START	n/a	2	-999	n/a	<>	n/a	n/a	4	[0, 0, 0]	-999	PAL1	3	R1121M
581.452	5.017	407733	REC_EVENT	0	2	4	DUCK	<>	STOVE	DUCK	4	[0, 0, 0]	-999	PAL1	3	R1121M
586.469	0.017	410242	REC_END	n/a	2	-999	n/a	n/a	n/a	n/a	4	[0, 0, 0]	-999	PAL1	3	R1121M
586.486	0.984	410250	TEST_ORIENT	n/a	5	5	SOAP	n/a	CAPE	SOAP	4	[0, 0, 0]	-999	PAL1	3	R1121M
587.47	0.0	410742	TEST_PROBE	n/a	5	5	SOAP	n/a	CAPE	SOAP	4	[0, 0, 0]	-999	PAL1	3	R1121M
587.47	0.0	410742	REC_START	n/a	5	-999	n/a	<>	n/a	n/a	4	[0, 0, 0]	-999	PAL1	3	R1121M
587.47	5.025	410742	REC_EVENT	0	5	5	SOAP	<>	CAPE	SOAP	4	[0, 0, 0]	-999	PAL1	3	R1121M
592.495	0.009	413254	REC_END	n/a	5	-999	n/a	n/a	n/a	n/a	4	[0, 0, 0]	-999	PAL1	3	R1121M
592.504	0.984	413259	TEST_ORIENT	n/a	6	6	JEEP	MUD	BAT	JEEP	4	[0, 0, 0]	-999	PAL1	3	R1121M
593.488	0.0	413751	TEST_PROBE	n/a	6	6	JEEP	MUD	BAT	JEEP	4	[0, 0, 0]	-999	PAL1	3	R1121M
593.488	2.057	413751	REC_START	n/a	6	-999	n/a	MUD	n/a	n/a	4	[0, 0, 0]	-999	PAL1	3	R1121M
595.545	2.96	414779	REC_EVENT	2057	6	6	JEEP	MUD	BAT	JEEP	4	[0, 0, 0]	-999	PAL1	3	R1121M
598.505	13.855	416259	REC_END	n/a	6	-999	n/a	n/a	n/a	n/a	4	[0, 0, 0]	-999	PAL1	3	R1121M
612.36	10.45	423186	STUDY_START	n/a	-999	-999	n/a	n/a	n/a	n/a	5	[0, 0, 0]	-999	PAL1	3	R1121M
622.81	0.95	428411	STUDY_ORIENT	n/a	1	1	ZOO	PARK	ZOO	SHIRT	5	[0, 0, 0]	-999	PAL1	3	R1121M
623.76	5.018	428886	STUDY_PAIR	n/a	1	1	ZOO	PARK	ZOO	SHIRT	5	[0, 0, 0]	-999	PAL1	3	R1121M
628.778	0.917	431394	STUDY_ORIENT	n/a	2	6	SEAT	n/a	SEAT	ROPE	5	[0, 0, 0]	-999	PAL1	3	R1121M
629.695	5.034	431853	STUDY_PAIR	n/a	2	6	SEAT	n/a	SEAT	ROPE	5	[0, 0, 0]	-999	PAL1	3	R1121M
634.729	0.867	434370	STUDY_ORIENT	n/a	3	3	CAGE	n/a	CAGE	BOAT	5	[0, 0, 0]	-999	PAL1	3	R1121M
635.596	5.034	434803	STUDY_PAIR	n/a	3	3	CAGE	n/a	CAGE	BOAT	5	[0, 0, 0]	-999	PAL1	3	R1121M
640.63	0.834	437320	STUDY_ORIENT	n/a	4	2	FORK	n/a	CORN	FORK	5	[0, 0, 0]	-999	PAL1	3	R1121M
641.464	5.034	437737	STUDY_PAIR	n/a	4	2	FORK	n/a	CORN	FORK	5	[0, 0, 0]	-999	PAL1	3	R1121M
646.498	0.967	440254	STUDY_ORIENT	n/a	5	5	MAIL	n/a	CLOTH	MAIL	5	[0, 0, 0]	-999	PAL1	3	R1121M
647.465	5.018	440737	STUDY_PAIR	n/a	5	5	MAIL	n/a	CLOTH	MAIL	5	[0, 0, 0]	-999	PAL1	3	R1121M
652.483	1.017	443246	STUDY_ORIENT	n/a	6	4	LAWN	n/a	POLE	LAWN	5	[0, 0, 0]	-999	PAL1	3	R1121M
653.5	4.018	443754	STUDY_PAIR	n/a	6	4	LAWN	n/a	POLE	LAWN	5	[0, 0, 0]	-999	PAL1	3	R1121M
657.518	0.999	445763	START	n/a	-999	-999	n/a	n/a	n/a	n/a	6	[-999, -999, -999]	-999	PAL1	3	R1121M
658.517	0.017	446263	MATH_START	n/a	-999	-999	n/a	n/a	n/a	n/a	5	[0, 0, 0]	-999	PAL1	3	R1121M
658.534	8.435	446271	PROB	8409	-999	-999	n/a	n/a	n/a	n/a	6	[6, 8, 2]	16	PAL1	3	R1121M
666.969	9.485	450488	PROB	9462	-999	-999	n/a	n/a	n/a	n/a	6	[4, 7, 3]	14	PAL1	3	R1121M
676.454	4.401	455231	PROB	4401	-999	-999	n/a	n/a	n/a	n/a	6	[8, 9, 5]	14	PAL1	3	R1121M
680.855	0.017	457431	STOP	n/a	-999	-999	n/a	n/a	n/a	n/a	6	[-999, -999, -999]	-999	PAL1	3	R1121M
680.872	0.0	457439	MATH_END	n/a	-999	-999	n/a	n/a	n/a	n/a	5	[0, 0, 0]	-999	PAL1	3	R1121M
680.872	0.016	457439	TEST_START	n/a	-999	-999	n/a	n/a	n/a	n/a	5	[0, 0, 0]	-999	PAL1	3	R1121M
680.888	1.017	457447	TEST_ORIENT	n/a	1	1	ZOO	PARK	ZOO	SHIRT	5	[0, 0, 0]	-999	PAL1	3	R1121M
681.905	0.001	457956	TEST_PROBE	n/a	1	1	ZOO	PARK	ZOO	SHIRT	5	[0, 0, 0]	-999	PAL1	3	R1121M
681.906	3.658	457956	REC_START	n/a	1	-999	n/a	PARK	n/a	n/a	5	[0, 0, 0]	-999	PAL1	3	R1121M
685.564	1.351	459785	REC_EVENT	3658	1	1	ZOO	PARK	ZOO	SHIRT	5	[0, 0, 0]	-999	PAL1	3	R1121M
686.915	0.008	460461	REC_END	n/a	1	-999	n/a	n/a	n/a	n/a	5	[0, 0, 0]	-999	PAL1	3	R1121M
686.923	0.8	460465	TEST_ORIENT	n/a	4	2	FORK	n/a	CORN	FORK	5	[0, 0, 0]	-999	PAL1	3	R1121M
687.723	0.001	460865	TEST_PROBE	n/a	4	2	FORK	n/a	CORN	FORK	5	[0, 0, 0]	-999	PAL1	3	R1121M
687.724	0.0	460865	REC_START	n/a	4	-999	n/a	<>	n/a	n/a	5	[0, 0, 0]	-999	PAL1	3	R1121M
687.724	5.025	460865	REC_EVENT	0	4	2	FORK	<>	CORN	FORK	5	[0, 0, 0]	-999	PAL1	3	R1121M
692.749	0.008	463377	REC_END	n/a	4	-999	n/a	n/a	n/a	n/a	5	[0, 0, 0]	-999	PAL1	3	R1121M
692.757	0.901	463381	TEST_ORIENT	n/a	3	3	CAGE	n/a	CAGE	BOAT	5	[0, 0, 0]	-999	PAL1	3	R1121M
693.658	0.0	463832	TEST_PROBE	n/a	3	3	CAGE	n/a	CAGE	BOAT	5	[0, 0, 0]	-999	PAL1	3	R1121M
693.658	0.0	463832	REC_START	n/a	3	-999	n/a	<>	n/a	n/a	5	[0, 0, 0]	-999	PAL1	3	R1121M
693.658	5.017	463832	REC_EVENT	0	3	3	CAGE	<>	CAGE	BOAT	5	[0, 0, 0]	-999	PAL1	3	R1121M
698.675	0.017	466340	REC_END	n/a	3	-999	n/a	n/a	n/a	n/a	5	[0, 0, 0]	-999	PAL1	3	R1121M
698.692	0.817	466349	TEST_ORIENT	n/a	6	4	LAWN	n/a	POLE	LAWN	5	[0, 0, 0]	-999	PAL1	3	R1121M
699.509	0.0	466757	TEST_PROBE	n/a	6	4	LAWN	n/a	POLE	LAWN	5	[0, 0, 0]	-999	PAL1	3	R1121M
699.509	0.0	466757	REC_START	n/a	6	-999	n/a	<>	n/a	n/a	5	[0, 0, 0]	-999	PAL1	3	R1121M
699.509	5.017	466757	REC_EVENT	0	6	4	LAWN	<>	POLE	LAWN	5	[0, 0, 0]	-999	PAL1	3	R1121M
704.526	0.017	469265	REC_END	n/a	6	-999	n/a	n/a	n/a	n/a	5	[0, 0, 0]	-999	PAL1	3	R1121M
704.543	1.034	469274	TEST_ORIENT	n/a	5	5	MAIL	n/a	CLOTH	MAIL	5	[0, 0, 0]	-999	PAL1	3	R1121M
705.577	0.001	469791	TEST_PROBE	n/a	5	5	MAIL	n/a	CLOTH	MAIL	5	[0, 0, 0]	-999	PAL1	3	R1121M
705.578	0.0	469791	REC_START	n/a	5	-999	n/a	<>	n/a	n/a	5	[0, 0, 0]	-999	PAL1	3	R1121M
705.578	5.024	469791	REC_EVENT	0	5	5	MAIL	<>	CLOTH	MAIL	5	[0, 0, 0]	-999	PAL1	3	R1121M
710.602	0.009	472303	REC_END	n/a	5	-999	n/a	n/a	n/a	n/a	5	[0, 0, 0]	-999	PAL1	3	R1121M
710.611	0.9	472308	TEST_ORIENT	n/a	2	6	SEAT	n/a	SEAT	ROPE	5	[0, 0, 0]	-999	PAL1	3	R1121M
711.511	0.001	472758	TEST_PROBE	n/a	2	6	SEAT	n/a	SEAT	ROPE	5	[0, 0, 0]	-999	PAL1	3	R1121M
711.512	0.0	472758	REC_START	n/a	2	-999	n/a	<>	n/a	n/a	5	[0, 0, 0]	-999	PAL1	3	R1121M
711.512	5.008	472758	REC_EVENT	0	2	6	SEAT	<>	SEAT	ROPE	5	[0, 0, 0]	-999	PAL1	3	R1121M
716.52	2.832	475262	REC_END	n/a	2	-999	n/a	n/a	n/a	n/a	5	[0, 0, 0]	-999	PAL1	3	R1121M
719.352	10.446	476678	STUDY_START	n/a	-999	-999	n/a	n/a	n/a	n/a	6	[0, 0, 0]	-999	PAL1	3	R1121M
729.798	0.884	481900	STUDY_ORIENT	n/a	1	1	TOE	FROG	TOE	FROG	6	[0, 0, 0]	-999	PAL1	3	R1121M
730.682	5.034	482342	STUDY_PAIR	n/a	1	1	TOE	FROG	TOE	FROG	6	[0, 0, 0]	-999	PAL1	3	R1121M
735.716	0.95	484859	STUDY_ORIENT	n/a	2	6	WAND	n/a	WAND	CLAY	6	[0, 0, 0]	-999	PAL1	3	R1121M
736.666	5.018	485334	STUDY_PAIR	n/a	2	6	WAND	n/a	WAND	CLAY	6	[0, 0, 0]	-999	PAL1	3	R1121M
741.684	0.95	487843	STUDY_ORIENT	n/a	3	5	NOSE	n/a	POOL	NOSE	6	[0, 0, 0]	-999	PAL1	3	R1121M
742.634	5.034	488318	STUDY_PAIR	n/a	3	5	NOSE	n/a	POOL	NOSE	6	[0, 0, 0]	-999	PAL1	3	R1121M
747.668	0.917	490835	STUDY_ORIENT	n/a	4	2	MILK	n/a	MILK	HAWK	6	[0, 0, 0]	-999	PAL1	3	R1121M
748.585	5.035	491293	STUDY_PAIR	n/a	4	2	MILK	n/a	MILK	HAWK	6	[0, 0, 0]	-999	PAL1	3	R1121M
753.62	0.966	493810	STUDY_ORIENT	n/a	5	3	BIRD	CAGE	BIRD	CLOCK	6	[0, 0, 0]	-999	PAL1	3	R1121M
754.586	5.018	494293	STUDY_PAIR	n/a	5	3	BIRD	CAGE	BIRD	CLOCK	6	[0, 0, 0]	-999	PAL1	3	R1121M
759.604	0.984	496802	STUDY_ORIENT	n/a	6	4	SPONGE	n/a	SPONGE	SPARK	6	[0, 0, 0]	-999	PAL1	3	R1121M
760.588	4.018	497294	STUDY_PAIR	n/a	6	4	SPONGE	n/a	SPONGE	SPARK	6	[0, 0, 0]	-999	PAL1	3	R1121M
764.606	0.999	499303	START	n/a	-999	-999	n/a	n/a	n/a	n/a	7	[-999, -999, -999]	-999	PAL1	3	R1121M
765.605	0.017	499802	MATH_START	n/a	-999	-999	n/a	n/a	n/a	n/a	6	[0, 0, 0]	-999	PAL1	3	R1121M
765.622	7.835	499811	PROB	7809	-999	-999	n/a	n/a	n/a	n/a	7	[3, 4, 9]	16	PAL1	3	R1121M
773.457	7.251	503728	PROB	7230	-999	-999	n/a	n/a	n/a	n/a	7	[4, 3, 3]	7	PAL1	3	R1121M
780.708	4.051	507353	PROB	4051	-999	-999	n/a	n/a	n/a	n/a	7	[6, 2, 2]	8	PAL1	3	R1121M
784.759	0.017	509379	STOP	n/a	-999	-999	n/a	n/a	n/a	n/a	7	[-999, -999, -999]	-999	PAL1	3	R1121M
784.776	0.0	509387	MATH_END	n/a	-999	-999	n/a	n/a	n/a	n/a	6	[0, 0, 0]	-999	PAL1	3	R1121M
784.776	0.016	509387	TEST_START	n/a	-999	-999	n/a	n/a	n/a	n/a	6	[0, 0, 0]	-999	PAL1	3	R1121M
784.792	1.001	509395	TEST_ORIENT	n/a	1	1	TOE	FROG	TOE	FROG	6	[0, 0, 0]	-999	PAL1	3	R1121M
785.793	0.0	509896	TEST_PROBE	n/a	1	1	TOE	FROG	TOE	FROG	6	[0, 0, 0]	-999	PAL1	3	R1121M
785.793	1.385	509896	REC_START	n/a	1	-999	n/a	FROG	n/a	n/a	6	[0, 0, 0]	-999	PAL1	3	R1121M
787.178	3.64	510588	REC_EVENT	1385	1	1	TOE	FROG	TOE	FROG	6	[0, 0, 0]	-999	PAL1	3	R1121M
790.818	0.009	512408	REC_END	n/a	1	-999	n/a	n/a	n/a	n/a	6	[0, 0, 0]	-999	PAL1	3	R1121M
790.827	0.884	512412	TEST_ORIENT	n/a	4	2	MILK	n/a	MILK	HAWK	6	[0, 0, 0]	-999	PAL1	3	R1121M
791.711	0.0	512854	TEST_PROBE	n/a	4	2	MILK	n/a	MILK	HAWK	6	[0, 0, 0]	-999	PAL1	3	R1121M
791.711	0.0	512854	REC_START	n/a	4	-999	n/a	<>	n/a	n/a	6	[0, 0, 0]	-999	PAL1	3	R1121M
791.711	5.017	512854	REC_EVENT	0	4	2	MILK	<>	MILK	HAWK	6	[0, 0, 0]	-999	PAL1	3	R1121M
796.728	0.017	515363	REC_END	n/a	4	-999	n/a	n/a	n/a	n/a	6	[0, 0, 0]	-999	PAL1	3	R1121M
796.745	0.95	515371	TEST_ORIENT	n/a	5	3	BIRD	CAGE	BIRD	CLOCK	6	[0, 0, 0]	-999	PAL1	3	R1121M
797.695	0.001	515846	TEST_PROBE	n/a	5	3	BIRD	CAGE	BIRD	CLOCK	6	[0, 0, 0]	-999	PAL1	3	R1121M
797.696	1.59	515847	REC_START	n/a	5	-999	n/a	CAGE	n/a	n/a	6	[0, 0, 0]	-999	PAL1	3	R1121M
799.286	3.426	516642	REC_EVENT	1590	5	3	BIRD	CAGE	BIRD	CLOCK	6	[0, 0, 0]	-999	PAL1	3	R1121M
802.712	0.017	518355	REC_END	n/a	5	-999	n/a	n/a	n/a	n/a	6	[0, 0, 0]	-999	PAL1	3	R1121M
802.729	0.951	518363	TEST_ORIENT	n/a	6	4	SPONGE	n/a	SPONGE	SPARK	6	[0, 0, 0]	-999	PAL1	3	R1121M
803.68	0.0	518838	TEST_PROBE	n/a	6	4	SPONGE	n/a	SPONGE	SPARK	6	[0, 0, 0]	-999	PAL1	3	R1121M
803.68	0.0	518838	REC_START	n/a	6	-999	n/a	<>	n/a	n/a	6	[0, 0, 0]	-999	PAL1	3	R1121M
803.68	5.017	518838	REC_EVENT	0	6	4	SPONGE	<>	SPONGE	SPARK	6	[0, 0, 0]	-999	PAL1	3	R1121M
808.697	0.017	521347	REC_END	n/a	6	-999	n/a	n/a	n/a	n/a	6	[0, 0, 0]	-999	PAL1	3	R1121M
808.714	0.9	521355	TEST_ORIENT	n/a	3	5	NOSE	n/a	POOL	NOSE	6	[0, 0, 0]	-999	PAL1	3	R1121M
809.614	0.001	521805	TEST_PROBE	n/a	3	5	NOSE	n/a	POOL	NOSE	6	[0, 0, 0]	-999	PAL1	3	R1121M
809.615	0.0	521806	REC_START	n/a	3	-999	n/a	<>	n/a	n/a	6	[0, 0, 0]	-999	PAL1	3	R1121M
809.615	5.016	521806	REC_EVENT	0	3	5	NOSE	<>	POOL	NOSE	6	[0, 0, 0]	-999	PAL1	3	R1121M
814.631	0.017	524314	REC_END	n/a	3	-999	n/a	n/a	n/a	n/a	6	[0, 0, 0]	-999	PAL1	3	R1121M
814.648	1.001	524322	TEST_ORIENT	n/a	2	6	WAND	n/a	WAND	CLAY	6	[0, 0, 0]	-999	PAL1	3	R1121M
815.649	0.0	524822	TEST_PROBE	n/a	2	6	WAND	n/a	WAND	CLAY	6	[0, 0, 0]	-999	PAL1	3	R1121M
815.649	0.0	524822	REC_START	n/a	2	-999	n/a	<>	n/a	n/a	6	[0, 0, 0]	-999	PAL1	3	R1121M
815.649	5.017	524822	REC_EVENT	0	2	6	WAND	<>	WAND	CLAY	6	[0, 0, 0]	-999	PAL1	3	R1121M
820.666	2.501	527331	REC_END	n/a	2	-999	n/a	n/a	n/a	n/a	6	[0, 0, 0]	-999	PAL1	3	R1121M
823.167	10.468	528581	STUDY_START	n/a	-999	-999	n/a	n/a	n/a	n/a	7	[0, 0, 0]	-999	PAL1	3	R1121M
833.635	0.951	533815	STUDY_ORIENT	n/a	1	5	KEY	n/a	BEACH	KEY	7	[0, 0, 0]	-999	PAL1	3	R1121M
834.586	5.034	534290	STUDY_PAIR	n/a	1	5	KEY	n/a	BEACH	KEY	7	[0, 0, 0]	-999	PAL1	3	R1121M
839.62	0.867	536807	STUDY_ORIENT	n/a	2	6	SEA	SHIELD	SEA	SHIELD	7	[0, 0, 0]	-999	PAL1	3	R1121M
840.487	5.034	537241	STUDY_PAIR	n/a	2	6	SEA	SHIELD	SEA	SHIELD	7	[0, 0, 0]	-999	PAL1	3	R1121M
845.521	0.967	539757	STUDY_ORIENT	n/a	3	3	GRAPE	n/a	GRAPE	EEL	7	[0, 0, 0]	-999	PAL1	3	R1121M
846.488	5.034	540241	STUDY_PAIR	n/a	3	3	GRAPE	n/a	GRAPE	EEL	7	[0, 0, 0]	-999	PAL1	3	R1121M
851.522	0.818	542758	STUDY_ORIENT	n/a	4	2	SHIP	n/a	MAP	SHIP	7	[0, 0, 0]	-999	PAL1	3	R1121M
852.34	5.018	543167	STUDY_PAIR	n/a	4	2	SHIP	n/a	MAP	SHIP	7	[0, 0, 0]	-999	PAL1	3	R1121M
857.358	1.0	545675	STUDY_ORIENT	n/a	5	1	FILM	n/a	FILM	SHEET	7	[0, 0, 0]	-999	PAL1	3	R1121M
858.358	5.034	546175	STUDY_PAIR	n/a	5	1	FILM	n/a	FILM	SHEET	7	[0, 0, 0]	-999	PAL1	3	R1121M
863.392	0.816	548692	STUDY_ORIENT	n/a	6	4	LAKE	n/a	STEM	LAKE	7	[0, 0, 0]	-999	PAL1	3	R1121M
864.208	4.001	549100	STUDY_PAIR	n/a	6	4	LAKE	n/a	STEM	LAKE	7	[0, 0, 0]	-999	PAL1	3	R1121M
868.209	1.0	551100	START	n/a	-999	-999	n/a	n/a	n/a	n/a	8	[-999, -999, -999]	-999	PAL1	3	R1121M
869.209	0.017	551600	MATH_START	n/a	-999	-999	n/a	n/a	n/a	n/a	7	[0, 0, 0]	-999	PAL1	3	R1121M
869.226	10.452	551609	PROB	10429	-999	-999	n/a	n/a	n/a	n/a	8	[6, 8, 8]	24	PAL1	3	R1121M
879.678	6.868	556834	PROB	6849	-999	-999	n/a	n/a	n/a	n/a	8	[9, 5, 3]	17	PAL1	3	R1121M
886.546	4.742	560268	PROB	4742	-999	-999	n/a	n/a	n/a	n/a	8	[7, 1, 1]	8	PAL1	3	R1121M
891.288	0.01	562639	STOP	n/a	-999	-999	n/a	n/a	n/a	n/a	8	[-999, -999, -999]	-999	PAL1	3	R1121M
891.298	0.0	562644	MATH_END	n/a	-999	-999	n/a	n/a	n/a	n/a	7	[0, 0, 0]	-999	PAL1	3	R1121M
891.298	0.017	562644	TEST_START	n/a	-999	-999	n/a	n/a	n/a	n/a	7	[0, 0, 0]	-999	PAL1	3	R1121M
891.315	0.832	562652	TEST_ORIENT	n/a	5	1	FILM	n/a	FILM	SHEET	7	[0, 0, 0]	-999	PAL1	3	R1121M
892.147	0.001	563068	TEST_PROBE	n/a	5	1	FILM	n/a	FILM	SHEET	7	[0, 0, 0]	-999	PAL1	3	R1121M
892.148	0.0	563069	REC_START	n/a	5	-999	n/a	<>	n/a	n/a	7	[0, 0, 0]	-999	PAL1	3	R1121M
892.148	5.008	563069	REC_EVENT	0	5	1	FILM	<>	FILM	SHEET	7	[0, 0, 0]	-999	PAL1	3	R1121M
897.156	0.009	565573	REC_END	n/a	5	-999	n/a	n/a	n/a	n/a	7	[0, 0, 0]	-999	PAL1	3	R1121M
897.165	0.967	565577	TEST_ORIENT	n/a	4	2	SHIP	n/a	MAP	SHIP	7	[0, 0, 0]	-999	PAL1	3	R1121M
898.132	0.0	566061	TEST_PROBE	n/a	4	2	SHIP	n/a	MAP	SHIP	7	[0, 0, 0]	-999	PAL1	3	R1121M
898.132	0.0	566061	REC_START	n/a	4	-999	n/a	<>	n/a	n/a	7	[0, 0, 0]	-999	PAL1	3	R1121M
898.132	5.017	566061	REC_EVENT	0	4	2	SHIP	<>	MAP	SHIP	7	[0, 0, 0]	-999	PAL1	3	R1121M
903.149	0.017	568569	REC_END	n/a	4	-999	n/a	n/a	n/a	n/a	7	[0, 0, 0]	-999	PAL1	3	R1121M
903.166	0.883	568578	TEST_ORIENT	n/a	3	3	GRAPE	n/a	GRAPE	EEL	7	[0, 0, 0]	-999	PAL1	3	R1121M
904.049	0.001	569019	TEST_PROBE	n/a	3	3	GRAPE	n/a	GRAPE	EEL	7	[0, 0, 0]	-999	PAL1	3	R1121M
904.05	0.0	569019	REC_START	n/a	3	-999	n/a	<>	n/a	n/a	7	[0, 0, 0]	-999	PAL1	3	R1121M
904.05	5.01	569019	REC_EVENT	0	3	3	GRAPE	<>	GRAPE	EEL	7	[0, 0, 0]	-999	PAL1	3	R1121M
909.06	0.007	571524	REC_END	n/a	3	-999	n/a	n/a	n/a	n/a	7	[0, 0, 0]	-999	PAL1	3	R1121M
909.067	0.934	571528	TEST_ORIENT	n/a	6	4	LAKE	n/a	STEM	LAKE	7	[0, 0, 0]	-999	PAL1	3	R1121M
910.001	0.0	571995	TEST_PROBE	n/a	6	4	LAKE	n/a	STEM	LAKE	7	[0, 0, 0]	-999	PAL1	3	R1121M
910.001	4.571	571995	REC_START	n/a	6	-999	n/a	<>	n/a	n/a	7	[0, 0, 0]	-999	PAL1	3	R1121M
914.572	0.446	574280	REC_EVENT	4571	6	4	LAKE	<>	STEM	LAKE	7	[0, 0, 0]	-999	PAL1	3	R1121M
915.018	0.017	574503	REC_END	n/a	6	-999	n/a	n/a	n/a	n/a	7	[0, 0, 0]	-999	PAL1	3	R1121M
915.035	0.783	574512	TEST_ORIENT	n/a	1	5	KEY	n/a	BEACH	KEY	7	[0, 0, 0]	-999	PAL1	3	R1121M
915.818	0.001	574903	TEST_PROBE	n/a	1	5	KEY	n/a	BEACH	KEY	7	[0, 0, 0]	-999	PAL1	3	R1121M
915.819	1.446	574904	REC_START	n/a	1	-999	n/a	<>	n/a	n/a	7	[0, 0, 0]	-999	PAL1	3	R1121M
917.265	3.562	575626	REC_EVENT	1446	1	5	KEY	<>	BEACH	KEY	7	[0, 0, 0]	-999	PAL1	3	R1121M
920.827	0.009	577407	REC_END	n/a	1	-999	n/a	n/a	n/a	n/a	7	[0, 0, 0]	-999	PAL1	3	R1121M
920.836	0.95	577412	TEST_ORIENT	n/a	2	6	SEA	SHIELD	SEA	SHIELD	7	[0, 0, 0]	-999	PAL1	3	R1121M
921.786	0.001	577887	TEST_PROBE	n/a	2	6	SEA	SHIELD	SEA	SHIELD	7	[0, 0, 0]	-999	PAL1	3	R1121M
921.787	4.654	577887	REC_START	n/a	2	-999	n/a	SHIELD	n/a	n/a	7	[0, 0, 0]	-999	PAL1	3	R1121M
926.441	0.355	580214	REC_EVENT	4654	2	6	SEA	SHIELD	SEA	SHIELD	7	[0, 0, 0]	-999	PAL1	3	R1121M
926.796	9.379	580392	REC_END	n/a	2	-999	n/a	n/a	n/a	n/a	7	[0, 0, 0]	-999	PAL1	3	R1121M
936.175	10.45	585081	STUDY_START	n/a	-999	-999	n/a	n/a	n/a	n/a	8	[0, 0, 0]	-999	PAL1	3	R1121M
946.625	0.916	590305	STUDY_ORIENT	n/a	1	5	BOWL	FORT	FORT	BOWL	8	[0, 0, 0]	-999	PAL1	3	R1121M
947.541	5.018	590763	STUDY_PAIR	n/a	1	5	BOWL	FORT	FORT	BOWL	8	[0, 0, 0]	-999	PAL1	3	R1121M
952.559	0.917	593272	STUDY_ORIENT	n/a	2	2	DESK	BEE	DESK	BEE	8	[0, 0, 0]	-999	PAL1	3	R1121M
953.476	5.034	593730	STUDY_PAIR	n/a	2	2	DESK	BEE	DESK	BEE	8	[0, 0, 0]	-999	PAL1	3	R1121M
958.51	0.95	596247	STUDY_ORIENT	n/a	3	1	CRANE	n/a	CRANE	SOUP	8	[0, 0, 0]	-999	PAL1	3	R1121M
959.46	5.018	596722	STUDY_PAIR	n/a	3	1	CRANE	n/a	CRANE	SOUP	8	[0, 0, 0]	-999	PAL1	3	R1121M
964.478	0.851	599231	STUDY_ORIENT	n/a	4	4	BOOK	n/a	BOOK	CROW	8	[0, 0, 0]	-999	PAL1	3	R1121M
965.329	5.018	599657	STUDY_PAIR	n/a	4	4	BOOK	n/a	BOOK	CROW	8	[0, 0, 0]	-999	PAL1	3	R1121M
970.347	1.0	602165	STUDY_ORIENT	n/a	5	3	BAND	n/a	CHAIR	BAND	8	[0, 0, 0]	-999	PAL1	3	R1121M
971.347	5.018	602665	STUDY_PAIR	n/a	5	3	BAND	n/a	CHAIR	BAND	8	[0, 0, 0]	-999	PAL1	3	R1121M
976.365	0.983	605174	STUDY_ORIENT	n/a	6	6	OAK	HILL	HILL	OAK	8	[0, 0, 0]	-999	PAL1	3	R1121M
977.348	4.001	605666	STUDY_PAIR	n/a	6	6	OAK	HILL	HILL	OAK	8	[0, 0, 0]	-999	PAL1	3	R1121M
981.349	1.0	607666	START	n/a	-999	-999	n/a	n/a	n/a	n/a	9	[-999, -999, -999]	-999	PAL1	3	R1121M
982.349	0.017	608166	MATH_START	n/a	-999	-999	n/a	n/a	n/a	n/a	8	[0, 0, 0]	-999	PAL1	3	R1121M
982.366	9.784	608174	PROB	9753	-999	-999	n/a	n/a	n/a	n/a	9	[2, 9, 5]	17	PAL1	3	R1121M
992.15	15.353	613066	PROB	15353	-999	-999	n/a	n/a	n/a	n/a	9	[5, 8, 3]	18	PAL1	3	R1121M
1007.503	0.017	620742	STOP	n/a	-999	-999	n/a	n/a	n/a	n/a	9	[-999, -999, -999]	-999	PAL1	3	R1121M
1007.52	0.0	620750	MATH_END	n/a	-999	-999	n/a	n/a	n/a	n/a	8	[0, 0, 0]	-999	PAL1	3	R1121M
1007.52	0.017	620750	TEST_START	n/a	-999	-999	n/a	n/a	n/a	n/a	8	[0, 0, 0]	-999	PAL1	3	R1121M
1007.537	0.884	620759	TEST_ORIENT	n/a	3	1	CRANE	n/a	CRANE	SOUP	8	[0, 0, 0]	-999	PAL1	3	R1121M
1008.421	0.001	621201	TEST_PROBE	n/a	3	1	CRANE	n/a	CRANE	SOUP	8	[0, 0, 0]	-999	PAL1	3	R1121M
1008.422	4.76	621201	REC_START	n/a	3	-999	n/a	<>	n/a	n/a	8	[0, 0, 0]	-999	PAL1	3	R1121M
1013.182	0.247	623581	REC_EVENT	4760	3	1	CRANE	<>	CRANE	SOUP	8	[0, 0, 0]	-999	PAL1	3	R1121M
1013.429	0.009	623705	REC_END	n/a	3	-999	n/a	n/a	n/a	n/a	8	[0, 0, 0]	-999	PAL1	3	R1121M
1013.438	0.934	623709	TEST_ORIENT	n/a	2	2	DESK	BEE	DESK	BEE	8	[0, 0, 0]	-999	PAL1	3	R1121M
1014.372	0.001	624176	TEST_PROBE	n/a	2	2	DESK	BEE	DESK	BEE	8	[0, 0, 0]	-999	PAL1	3	R1121M
1014.373	1.655	624177	REC_START	n/a	2	-999	n/a	BEE	n/a	n/a	8	[0, 0, 0]	-999	PAL1	3	R1121M
1016.028	3.354	625004	REC_EVENT	1655	2	2	DESK	BEE	DESK	BEE	8	[0, 0, 0]	-999	PAL1	3	R1121M
1019.382	0.008	626681	REC_END	n/a	2	-999	n/a	n/a	n/a	n/a	8	[0, 0, 0]	-999	PAL1	3	R1121M
1019.39	1.017	626685	TEST_ORIENT	n/a	5	3	BAND	n/a	CHAIR	BAND	8	[0, 0, 0]	-999	PAL1	3	R1121M
1020.407	0.001	627193	TEST_PROBE	n/a	5	3	BAND	n/a	CHAIR	BAND	8	[0, 0, 0]	-999	PAL1	3	R1121M
1020.408	4.815	627194	REC_START	n/a	5	-999	n/a	<>	n/a	n/a	8	[0, 0, 0]	-999	PAL1	3	R1121M
1025.223	0.201	629601	REC_EVENT	4815	5	3	BAND	<>	CHAIR	BAND	8	[0, 0, 0]	-999	PAL1	3	R1121M
1025.424	0.016	629702	REC_END	n/a	5	-999	n/a	n/a	n/a	n/a	8	[0, 0, 0]	-999	PAL1	3	R1121M
1025.44	0.852	629710	TEST_ORIENT	n/a	4	4	BOOK	n/a	BOOK	CROW	8	[0, 0, 0]	-999	PAL1	3	R1121M
1026.292	0.0	630136	TEST_PROBE	n/a	4	4	BOOK	n/a	BOOK	CROW	8	[0, 0, 0]	-999	PAL1	3	R1121M
1026.292	4.727	630136	REC_START	n/a	4	-999	n/a	<>	n/a	n/a	8	[0, 0, 0]	-999	PAL1	3	R1121M
1031.019	0.298	632499	REC_EVENT	4727	4	4	BOOK	<>	BOOK	CROW	8	[0, 0, 0]	-999	PAL1	3	R1121M
1031.317	0.009	632648	REC_END	n/a	4	-999	n/a	n/a	n/a	n/a	8	[0, 0, 0]	-999	PAL1	3	R1121M
1031.326	0.916	632652	TEST_ORIENT	n/a	1	5	BOWL	FORT	FORT	BOWL	8	[0, 0, 0]	-999	PAL1	3	R1121M
1032.242	0.0	633110	TEST_PROBE	n/a	1	5	BOWL	FORT	FORT	BOWL	8	[0, 0, 0]	-999	PAL1	3	R1121M
1032.242	1.862	633110	REC_START	n/a	1	-999	n/a	FORT	n/a	n/a	8	[0, 0, 0]	-999	PAL1	3	R1121M
1034.104	3.164	634041	REC_EVENT	1862	1	5	BOWL	FORT	FORT	BOWL	8	[0, 0, 0]	-999	PAL1	3	R1121M
1037.268	0.009	635623	REC_END	n/a	1	-999	n/a	n/a	n/a	n/a	8	[0, 0, 0]	-999	PAL1	3	R1121M
1037.277	1.017	635628	TEST_ORIENT	n/a	6	6	OAK	HILL	HILL	OAK	8	[0, 0, 0]	-999	PAL1	3	R1121M
1038.294	0.0	636136	TEST_PROBE	n/a	6	6	OAK	HILL	HILL	OAK	8	[0, 0, 0]	-999	PAL1	3	R1121M
1038.294	1.825	636136	REC_START	n/a	6	-999	n/a	HILL	n/a	n/a	8	[0, 0, 0]	-999	PAL1	3	R1121M
1040.119	3.192	637049	REC_EVENT	1825	6	6	OAK	HILL	HILL	OAK	8	[0, 0, 0]	-999	PAL1	3	R1121M
1043.311	319.888	638644	REC_END	n/a	6	-999	n/a	n/a	n/a	n/a	8	[0, 0, 0]	-999	PAL1	3	R1121M
1363.199	10.444	798576	STUDY_START	n/a	-999	-999	n/a	n/a	n/a	n/a	9	[0, 0, 0]	-999	PAL1	3	R1121M
1373.643	0.95	803797	STUDY_ORIENT	n/a	1	3	SNAKE	BATH	BATH	SNAKE	9	[0, 0, 0]	-999	PAL1	3	R1121M
1374.593	5.018	804272	STUDY_PAIR	n/a	1	3	SNAKE	BATH	BATH	SNAKE	9	[0, 0, 0]	-999	PAL1	3	R1121M
1379.611	0.85	806781	STUDY_ORIENT	n/a	2	6	GATE	FOOT	GATE	FOOT	9	[0, 0, 0]	-999	PAL1	3	R1121M
1380.461	5.034	807206	STUDY_PAIR	n/a	2	6	GATE	FOOT	GATE	FOOT	9	[0, 0, 0]	-999	PAL1	3	R1121M
1385.495	0.934	809723	STUDY_ORIENT	n/a	3	1	CROWN	n/a	CROWN	SKI	9	[0, 0, 0]	-999	PAL1	3	R1121M
1386.429	5.001	810190	STUDY_PAIR	n/a	3	1	CROWN	n/a	CROWN	SKI	9	[0, 0, 0]	-999	PAL1	3	R1121M
1391.43	0.868	812690	STUDY_ORIENT	n/a	4	2	ROOM	n/a	BOX	ROOM	9	[0, 0, 0]	-999	PAL1	3	R1121M
1392.298	5.034	813124	STUDY_PAIR	n/a	4	2	ROOM	n/a	BOX	ROOM	9	[0, 0, 0]	-999	PAL1	3	R1121M
1397.332	0.933	815641	STUDY_ORIENT	n/a	5	5	CUBE	DRUM	CUBE	DRUM	9	[0, 0, 0]	-999	PAL1	3	R1121M
1398.265	5.035	816107	STUDY_PAIR	n/a	5	5	CUBE	DRUM	CUBE	DRUM	9	[0, 0, 0]	-999	PAL1	3	R1121M
1403.3	0.932	818625	STUDY_ORIENT	n/a	6	4	PALM	SEED	PALM	SEED	9	[0, 0, 0]	-999	PAL1	3	R1121M
1404.232	4.002	819091	STUDY_PAIR	n/a	6	4	PALM	SEED	PALM	SEED	9	[0, 0, 0]	-999	PAL1	3	R1121M
1408.234	0.999	821091	START	n/a	-999	-999	n/a	n/a	n/a	n/a	10	[-999, -999, -999]	-999	PAL1	3	R1121M
1409.233	0.017	821591	MATH_START	n/a	-999	-999	n/a	n/a	n/a	n/a	9	[0, 0, 0]	-999	PAL1	3	R1121M
1409.25	6.802	821599	PROB	6781	-999	-999	n/a	n/a	n/a	n/a	10	[5, 1, 7]	13	PAL1	3	R1121M
1416.052	5.217	825000	PROB	5187	-999	-999	n/a	n/a	n/a	n/a	10	[2, 5, 4]	11	PAL1	3	R1121M
1421.269	7.522	827608	PROB	7522	-999	-999	n/a	n/a	n/a	n/a	10	[9, 1, 2]	12	PAL1	3	R1121M
1428.791	0.013	831369	STOP	n/a	-999	-999	n/a	n/a	n/a	n/a	10	[-999, -999, -999]	-999	PAL1	3	R1121M
1428.804	0.0	831376	MATH_END	n/a	-999	-999	n/a	n/a	n/a	n/a	9	[0, 0, 0]	-999	PAL1	3	R1121M
1428.804	0.017	831376	TEST_START	n/a	-999	-999	n/a	n/a	n/a	n/a	9	[0, 0, 0]	-999	PAL1	3	R1121M
1428.821	1.017	831384	TEST_ORIENT	n/a	3	1	CROWN	n/a	CROWN	SKI	9	[0, 0, 0]	-999	PAL1	3	R1121M
1429.838	0.0	831893	TEST_PROBE	n/a	3	1	CROWN	n/a	CROWN	SKI	9	[0, 0, 0]	-999	PAL1	3	R1121M
1429.838	4.615	831893	REC_START	n/a	3	-999	n/a	<>	n/a	n/a	9	[0, 0, 0]	-999	PAL1	3	R1121M
1434.453	0.402	834200	REC_EVENT	4615	3	1	CROWN	<>	CROWN	SKI	9	[0, 0, 0]	-999	PAL1	3	R1121M
1434.855	0.017	834401	REC_END	n/a	3	-999	n/a	n/a	n/a	n/a	9	[0, 0, 0]	-999	PAL1	3	R1121M
1434.872	0.8	834409	TEST_ORIENT	n/a	4	2	ROOM	n/a	BOX	ROOM	9	[0, 0, 0]	-999	PAL1	3	R1121M
1435.672	0.001	834809	TEST_PROBE	n/a	4	2	ROOM	n/a	BOX	ROOM	9	[0, 0, 0]	-999	PAL1	3	R1121M
1435.673	4.644	834810	REC_START	n/a	4	-999	n/a	<>	n/a	n/a	9	[0, 0, 0]	-999	PAL1	3	R1121M
1440.317	0.372	837132	REC_EVENT	4644	4	2	ROOM	<>	BOX	ROOM	9	[0, 0, 0]	-999	PAL1	3	R1121M
1440.689	0.017	837318	REC_END	n/a	4	-999	n/a	n/a	n/a	n/a	9	[0, 0, 0]	-999	PAL1	3	R1121M
1440.706	0.851	837326	TEST_ORIENT	n/a	1	3	SNAKE	BATH	BATH	SNAKE	9	[0, 0, 0]	-999	PAL1	3	R1121M
1441.557	0.0	837752	TEST_PROBE	n/a	1	3	SNAKE	BATH	BATH	SNAKE	9	[0, 0, 0]	-999	PAL1	3	R1121M
1441.557	1.425	837752	REC_START	n/a	1	-999	n/a	BATH	n/a	n/a	9	[0, 0, 0]	-999	PAL1	3	R1121M
1442.982	3.592	838464	REC_EVENT	1425	1	3	SNAKE	BATH	BATH	SNAKE	9	[0, 0, 0]	-999	PAL1	3	R1121M
1446.574	0.017	840260	REC_END	n/a	1	-999	n/a	n/a	n/a	n/a	9	[0, 0, 0]	-999	PAL1	3	R1121M
1446.591	0.917	840268	TEST_ORIENT	n/a	6	4	PALM	SEED	PALM	SEED	9	[0, 0, 0]	-999	PAL1	3	R1121M
1447.508	0.0	840727	TEST_PROBE	n/a	6	4	PALM	SEED	PALM	SEED	9	[0, 0, 0]	-999	PAL1	3	R1121M
1447.508	1.345	840727	REC_START	n/a	6	-999	n/a	SEED	n/a	n/a	9	[0, 0, 0]	-999	PAL1	3	R1121M
1448.853	3.672	841399	REC_EVENT	1345	6	4	PALM	SEED	PALM	SEED	9	[0, 0, 0]	-999	PAL1	3	R1121M
1452.525	0.017	843235	REC_END	n/a	6	-999	n/a	n/a	n/a	n/a	9	[0, 0, 0]	-999	PAL1	3	R1121M
1452.542	0.9	843244	TEST_ORIENT	n/a	5	5	CUBE	DRUM	CUBE	DRUM	9	[0, 0, 0]	-999	PAL1	3	R1121M
1453.442	0.001	843694	TEST_PROBE	n/a	5	5	CUBE	DRUM	CUBE	DRUM	9	[0, 0, 0]	-999	PAL1	3	R1121M
1453.443	2.826	843694	REC_START	n/a	5	-999	n/a	DRUM	n/a	n/a	9	[0, 0, 0]	-999	PAL1	3	R1121M
1456.269	2.182	845107	REC_EVENT	2826	5	5	CUBE	DRUM	CUBE	DRUM	9	[0, 0, 0]	-999	PAL1	3	R1121M
1458.451	0.009	846198	REC_END	n/a	5	-999	n/a	n/a	n/a	n/a	9	[0, 0, 0]	-999	PAL1	3	R1121M
1458.46	0.868	846202	TEST_ORIENT	n/a	2	6	GATE	FOOT	GATE	FOOT	9	[0, 0, 0]	-999	PAL1	3	R1121M
1459.328	0.0	846636	TEST_PROBE	n/a	2	6	GATE	FOOT	GATE	FOOT	9	[0, 0, 0]	-999	PAL1	3	R1121M
1459.328	2.287	846636	REC_START	n/a	2	-999	n/a	FOOT	n/a	n/a	9	[0, 0, 0]	-999	PAL1	3	R1121M
1461.615	2.73	847780	REC_EVENT	2287	2	6	GATE	FOOT	GATE	FOOT	9	[0, 0, 0]	-999	PAL1	3	R1121M
1464.345	2.502	849145	REC_END	n/a	2	-999	n/a	n/a	n/a	n/a	9	[0, 0, 0]	-999	PAL1	3	R1121M
1466.847	10.451	850396	STUDY_START	n/a	-999	-999	n/a	n/a	n/a	n/a	10	[0, 0, 0]	-999	PAL1	3	R1121M
1477.298	0.916	855621	STUDY_ORIENT	n/a	1	3	SWAMP	GUARD	GUARD	SWAMP	10	[0, 0, 0]	-999	PAL1	3	R1121M
1478.214	5.034	856079	STUDY_PAIR	n/a	1	3	SWAMP	GUARD	GUARD	SWAMP	10	[0, 0, 0]	-999	PAL1	3	R1121M
1483.248	1.0	858595	STUDY_ORIENT	n/a	2	4	CAKE	SWAMP	MOLE	CAKE	10	[0, 0, 0]	-999	PAL1	3	R1121M
1484.248	5.018	859095	STUDY_PAIR	n/a	2	4	CAKE	SWAMP	MOLE	CAKE	10	[0, 0, 0]	-999	PAL1	3	R1121M
1489.266	0.934	861604	STUDY_ORIENT	n/a	3	5	MOOSE	CAKE	FOOD	MOOSE	10	[0, 0, 0]	-999	PAL1	3	R1121M
1490.2	5.034	862071	STUDY_PAIR	n/a	3	5	MOOSE	CAKE	FOOD	MOOSE	10	[0, 0, 0]	-999	PAL1	3	R1121M
1495.234	0.9	864588	STUDY_ORIENT	n/a	4	2	DOLL	OAR	DOLL	OAR	10	[0, 0, 0]	-999	PAL1	3	R1121M
1496.134	5.018	865038	STUDY_PAIR	n/a	4	2	DOLL	OAR	DOLL	OAR	10	[0, 0, 0]	-999	PAL1	3	R1121M
1501.152	0.867	867547	STUDY_ORIENT	n/a	5	1	MOUTH	n/a	WORLD	MOUTH	10	[0, 0, 0]	-999	PAL1	3	R1121M
1502.019	5.034	867980	STUDY_PAIR	n/a	5	1	MOUTH	n/a	WORLD	MOUTH	10	[0, 0, 0]	-999	PAL1	3	R1121M
1507.053	0.883	870497	STUDY_ORIENT	n/a	6	6	WALL	JUICE	JUICE	WALL	10	[0, 0, 0]	-999	PAL1	3	R1121M
1507.936	4.001	870938	STUDY_PAIR	n/a	6	6	WALL	JUICE	JUICE	WALL	10	[0, 0, 0]	-999	PAL1	3	R1121M
1511.937	1.0	872939	START	n/a	-999	-999	n/a	n/a	n/a	n/a	11	[-999, -999, -999]	-999	PAL1	3	R1121M
1512.937	0.017	873439	MATH_START	n/a	-999	-999	n/a	n/a	n/a	n/a	10	[0, 0, 0]	-999	PAL1	3	R1121M
1512.954	6.801	873447	PROB	6781	-999	-999	n/a	n/a	n/a	n/a	11	[1, 1, 8]	10	PAL1	3	R1121M
1519.755	10.503	876847	PROB	10484	-999	-999	n/a	n/a	n/a	n/a	11	[5, 3, 4]	12	PAL1	3	R1121M
1530.258	5.166	882099	PROB	5166	-999	-999	n/a	n/a	n/a	n/a	11	[3, 9, 2]	12	PAL1	3	R1121M
1535.424	0.002	884681	STOP	n/a	-999	-999	n/a	n/a	n/a	n/a	11	[-999, -999, -999]	-999	PAL1	3	R1121M
1535.426	0.0	884682	MATH_END	n/a	-999	-999	n/a	n/a	n/a	n/a	10	[0, 0, 0]	-999	PAL1	3	R1121M
1535.426	0.016	884682	TEST_START	n/a	-999	-999	n/a	n/a	n/a	n/a	10	[0, 0, 0]	-999	PAL1	3	R1121M
1535.442	1.017	884690	TEST_ORIENT	n/a	5	1	MOUTH	n/a	WORLD	MOUTH	10	[0, 0, 0]	-999	PAL1	3	R1121M
1536.459	0.0	885199	TEST_PROBE	n/a	5	1	MOUTH	n/a	WORLD	MOUTH	10	[0, 0, 0]	-999	PAL1	3	R1121M
1536.459	4.265	885199	REC_START	n/a	5	-999	n/a	<>	n/a	n/a	10	[0, 0, 0]	-999	PAL1	3	R1121M
1540.724	0.752	887331	REC_EVENT	4265	5	1	MOUTH	<>	WORLD	MOUTH	10	[0, 0, 0]	-999	PAL1	3	R1121M
1541.476	0.017	887707	REC_END	n/a	5	-999	n/a	n/a	n/a	n/a	10	[0, 0, 0]	-999	PAL1	3	R1121M
1541.493	0.818	887716	TEST_ORIENT	n/a	4	2	DOLL	OAR	DOLL	OAR	10	[0, 0, 0]	-999	PAL1	3	R1121M
1542.311	0.001	888125	TEST_PROBE	n/a	4	2	DOLL	OAR	DOLL	OAR	10	[0, 0, 0]	-999	PAL1	3	R1121M
1542.312	2.387	888125	REC_START	n/a	4	-999	n/a	OAR	n/a	n/a	10	[0, 0, 0]	-999	PAL1	3	R1121M
1544.699	2.629	889318	REC_EVENT	2387	4	2	DOLL	OAR	DOLL	OAR	10	[0, 0, 0]	-999	PAL1	3	R1121M
1547.328	0.017	890633	REC_END	n/a	4	-999	n/a	n/a	n/a	n/a	10	[0, 0, 0]	-999	PAL1	3	R1121M
1547.345	0.816	890641	TEST_ORIENT	n/a	1	3	SWAMP	GUARD	GUARD	SWAMP	10	[0, 0, 0]	-999	PAL1	3	R1121M
1548.161	0.001	891049	TEST_PROBE	n/a	1	3	SWAMP	GUARD	GUARD	SWAMP	10	[0, 0, 0]	-999	PAL1	3	R1121M
1548.162	1.255	891050	REC_START	n/a	1	-999	n/a	GUARD	n/a	n/a	10	[0, 0, 0]	-999	PAL1	3	R1121M
1549.417	3.753	891677	REC_EVENT	1255	1	3	SWAMP	GUARD	GUARD	SWAMP	10	[0, 0, 0]	-999	PAL1	3	R1121M
1553.17	0.009	893554	REC_END	n/a	1	-999	n/a	n/a	n/a	n/a	10	[0, 0, 0]	-999	PAL1	3	R1121M
1553.179	0.85	893558	TEST_ORIENT	n/a	2	4	CAKE	SWAMP	MOLE	CAKE	10	[0, 0, 0]	-999	PAL1	3	R1121M
1554.029	0.0	893983	TEST_PROBE	n/a	2	4	CAKE	SWAMP	MOLE	CAKE	10	[0, 0, 0]	-999	PAL1	3	R1121M
1554.029	2.178	893983	REC_START	n/a	2	-999	n/a	SWAMP	n/a	n/a	10	[0, 0, 0]	-999	PAL1	3	R1121M
1556.207	2.839	895072	REC_EVENT	2178	2	4	CAKE	SWAMP	MOLE	CAKE	10	[0, 0, 0]	-999	PAL1	3	R1121M
1559.046	0.017	896491	REC_END	n/a	2	-999	n/a	n/a	n/a	n/a	10	[0, 0, 0]	-999	PAL1	3	R1121M
1559.063	0.817	896500	TEST_ORIENT	n/a	3	5	MOOSE	CAKE	FOOD	MOOSE	10	[0, 0, 0]	-999	PAL1	3	R1121M
1559.88	0.001	896908	TEST_PROBE	n/a	3	5	MOOSE	CAKE	FOOD	MOOSE	10	[0, 0, 0]	-999	PAL1	3	R1121M
1559.881	2.457	896909	REC_START	n/a	3	-999	n/a	CAKE	n/a	n/a	10	[0, 0, 0]	-999	PAL1	3	R1121M
1562.338	2.551	898137	REC_EVENT	2457	3	5	MOOSE	CAKE	FOOD	MOOSE	10	[0, 0, 0]	-999	PAL1	3	R1121M
1564.889	0.009	899413	REC_END	n/a	3	-999	n/a	n/a	n/a	n/a	10	[0, 0, 0]	-999	PAL1	3	R1121M
1564.898	0.967	899417	TEST_ORIENT	n/a	6	6	WALL	JUICE	JUICE	WALL	10	[0, 0, 0]	-999	PAL1	3	R1121M
1565.865	0.0	899901	TEST_PROBE	n/a	6	6	WALL	JUICE	JUICE	WALL	10	[0, 0, 0]	-999	PAL1	3	R1121M
1565.865	3.236	899901	REC_START	n/a	6	-999	n/a	JUICE	n/a	n/a	10	[0, 0, 0]	-999	PAL1	3	R1121M
1569.101	1.781	901518	REC_EVENT	3236	6	6	WALL	JUICE	JUICE	WALL	10	[0, 0, 0]	-999	PAL1	3	R1121M
1570.882	3.573	902409	REC_END	n/a	6	-999	n/a	n/a	n/a	n/a	10	[0, 0, 0]	-999	PAL1	3	R1121M
1574.455	10.447	904195	STUDY_START	n/a	-999	-999	n/a	n/a	n/a	n/a	11	[0, 0, 0]	-999	PAL1	3	R1121M
1584.902	1.017	909418	STUDY_ORIENT	n/a	1	5	STORE	n/a	STORE	JET	11	[0, 0, 0]	-999	PAL1	3	R1121M
1585.919	5.034	909927	STUDY_PAIR	n/a	1	5	STORE	n/a	STORE	JET	11	[0, 0, 0]	-999	PAL1	3	R1121M
1590.953	1.017	912444	STUDY_ORIENT	n/a	2	2	CLIFF	n/a	PASTE	CLIFF	11	[0, 0, 0]	-999	PAL1	3	R1121M
1591.97	5.034	912952	STUDY_PAIR	n/a	2	2	CLIFF	n/a	PASTE	CLIFF	11	[0, 0, 0]	-999	PAL1	3	R1121M
1597.004	1.017	915469	STUDY_ORIENT	n/a	3	1	HOOF	n/a	HOOF	SHRIMP	11	[0, 0, 0]	-999	PAL1	3	R1121M
1598.021	5.034	915977	STUDY_PAIR	n/a	3	1	HOOF	n/a	HOOF	SHRIMP	11	[0, 0, 0]	-999	PAL1	3	R1121M
1603.055	0.984	918494	STUDY_ORIENT	n/a	4	6	BALL	n/a	BALL	FENCE	11	[0, 0, 0]	-999	PAL1	3	R1121M
1604.039	5.034	918986	STUDY_PAIR	n/a	4	6	BALL	n/a	BALL	FENCE	11	[0, 0, 0]	-999	PAL1	3	R1121M
1609.073	0.984	921503	STUDY_ORIENT	n/a	5	3	BEAR	n/a	BEAR	FLAG	11	[0, 0, 0]	-999	PAL1	3	R1121M
1610.057	5.034	921995	STUDY_PAIR	n/a	5	3	BEAR	n/a	BEAR	FLAG	11	[0, 0, 0]	-999	PAL1	3	R1121M
1615.091	0.883	924512	STUDY_ORIENT	n/a	6	4	STOOL	n/a	BOMB	STOOL	11	[0, 0, 0]	-999	PAL1	3	R1121M
1615.974	4.002	924953	STUDY_PAIR	n/a	6	4	STOOL	n/a	BOMB	STOOL	11	[0, 0, 0]	-999	PAL1	3	R1121M
1619.976	0.999	926954	START	n/a	-999	-999	n/a	n/a	n/a	n/a	12	[-999, -999, -999]	-999	PAL1	3	R1121M
1620.975	0.017	927453	MATH_START	n/a	-999	-999	n/a	n/a	n/a	n/a	11	[0, 0, 0]	-999	PAL1	3	R1121M
1620.992	12.421	927462	PROB	12400	-999	-999	n/a	n/a	n/a	n/a	12	[1, 2, 3]	6	PAL1	3	R1121M
1633.413	3.832	933672	PROB	3802	-999	-999	n/a	n/a	n/a	n/a	12	[1, 1, 1]	3	PAL1	3	R1121M
1637.245	4.842	935588	PROB	4842	-999	-999	n/a	n/a	n/a	n/a	12	[4, 4, 2]	8	PAL1	3	R1121M
1642.087	0.01	938009	STOP	n/a	-999	-999	n/a	n/a	n/a	n/a	12	[-999, -999, -999]	-999	PAL1	3	R1121M
1642.097	0.0	938014	MATH_END	n/a	-999	-999	n/a	n/a	n/a	n/a	11	[0, 0, 0]	-999	PAL1	3	R1121M
1642.097	0.016	938014	TEST_START	n/a	-999	-999	n/a	n/a	n/a	n/a	11	[0, 0, 0]	-999	PAL1	3	R1121M
1642.113	0.95	938022	TEST_ORIENT	n/a	3	1	HOOF	n/a	HOOF	SHRIMP	11	[0, 0, 0]	-999	PAL1	3	R1121M
1643.063	0.001	938497	TEST_PROBE	n/a	3	1	HOOF	n/a	HOOF	SHRIMP	11	[0, 0, 0]	-999	PAL1	3	R1121M
1643.064	4.8	938497	REC_START	n/a	3	-999	n/a	<>	n/a	n/a	11	[0, 0, 0]	-999	PAL1	3	R1121M
1647.864	0.208	940897	REC_EVENT	4800	3	1	HOOF	<>	HOOF	SHRIMP	11	[0, 0, 0]	-999	PAL1	3	R1121M
1648.072	0.009	941001	REC_END	n/a	3	-999	n/a	n/a	n/a	n/a	11	[0, 0, 0]	-999	PAL1	3	R1121M
1648.081	0.917	941005	TEST_ORIENT	n/a	2	2	CLIFF	n/a	PASTE	CLIFF	11	[0, 0, 0]	-999	PAL1	3	R1121M
1648.998	0.001	941464	TEST_PROBE	n/a	2	2	CLIFF	n/a	PASTE	CLIFF	11	[0, 0, 0]	-999	PAL1	3	R1121M
1648.999	4.811	941464	REC_START	n/a	2	-999	n/a	<>	n/a	n/a	11	[0, 0, 0]	-999	PAL1	3	R1121M
1653.81	0.205	943870	REC_EVENT	4811	2	2	CLIFF	<>	PASTE	CLIFF	11	[0, 0, 0]	-999	PAL1	3	R1121M
1654.015	0.017	943972	REC_END	n/a	2	-999	n/a	n/a	n/a	n/a	11	[0, 0, 0]	-999	PAL1	3	R1121M
1654.032	0.8	943981	TEST_ORIENT	n/a	5	3	BEAR	n/a	BEAR	FLAG	11	[0, 0, 0]	-999	PAL1	3	R1121M
1654.832	0.001	944381	TEST_PROBE	n/a	5	3	BEAR	n/a	BEAR	FLAG	11	[0, 0, 0]	-999	PAL1	3	R1121M
1654.833	4.82	944381	REC_START	n/a	5	-999	n/a	<>	n/a	n/a	11	[0, 0, 0]	-999	PAL1	3	R1121M
1659.653	0.189	946791	REC_EVENT	4820	5	3	BEAR	<>	BEAR	FLAG	11	[0, 0, 0]	-999	PAL1	3	R1121M
1659.842	0.008	946885	REC_END	n/a	5	-999	n/a	n/a	n/a	n/a	11	[0, 0, 0]	-999	PAL1	3	R1121M
1659.85	0.95	946889	TEST_ORIENT	n/a	6	4	STOOL	n/a	BOMB	STOOL	11	[0, 0, 0]	-999	PAL1	3	R1121M
1660.8	0.001	947364	TEST_PROBE	n/a	6	4	STOOL	n/a	BOMB	STOOL	11	[0, 0, 0]	-999	PAL1	3	R1121M
1660.801	4.695	947365	REC_START	n/a	6	-999	n/a	<>	n/a	n/a	11	[0, 0, 0]	-999	PAL1	3	R1121M
1665.496	0.313	949712	REC_EVENT	4695	6	4	STOOL	<>	BOMB	STOOL	11	[0, 0, 0]	-999	PAL1	3	R1121M
1665.809	0.009	949869	REC_END	n/a	6	-999	n/a	n/a	n/a	n/a	11	[0, 0, 0]	-999	PAL1	3	R1121M
1665.818	0.9	949873	TEST_ORIENT	n/a	1	5	STORE	n/a	STORE	JET	11	[0, 0, 0]	-999	PAL1	3	R1121M
1666.718	0.001	950323	TEST_PROBE	n/a	1	5	STORE	n/a	STORE	JET	11	[0, 0, 0]	-999	PAL1	3	R1121M
1666.719	4.833	950324	REC_START	n/a	1	-999	n/a	<>	n/a	n/a	11	[0, 0, 0]	-999	PAL1	3	R1121M
1671.552	0.192	952740	REC_EVENT	4833	1	5	STORE	<>	STORE	JET	11	[0, 0, 0]	-999	PAL1	3	R1121M
1671.744	0.008	952836	REC_END	n/a	1	-999	n/a	n/a	n/a	n/a	11	[0, 0, 0]	-999	PAL1	3	R1121M
1671.752	0.934	952840	TEST_ORIENT	n/a	4	6	BALL	n/a	BALL	FENCE	11	[0, 0, 0]	-999	PAL1	3	R1121M
1672.686	0.001	953307	TEST_PROBE	n/a	4	6	BALL	n/a	BALL	FENCE	11	[0, 0, 0]	-999	PAL1	3	R1121M
1672.687	4.451	953307	REC_START	n/a	4	-999	n/a	<>	n/a	n/a	11	[0, 0, 0]	-999	PAL1	3	R1121M
1677.138	0.565	955533	REC_EVENT	4451	4	6	BALL	<>	BALL	FENCE	11	[0, 0, 0]	-999	PAL1	3	R1121M
1677.703	2.288	955815	REC_END	n/a	4	-999	n/a	n/a	n/a	n/a	11	[0, 0, 0]	-999	PAL1	3	R1121M
1679.991	10.448	956959	STUDY_START	n/a	-999	-999	n/a	n/a	n/a	n/a	12	[0, 0, 0]	-999	PAL1	3	R1121M
1690.439	1.001	962183	STUDY_ORIENT	n/a	1	1	VINE	CAVE	CAVE	VINE	12	[0, 0, 0]	-999	PAL1	3	R1121M
1691.44	5.034	962683	STUDY_PAIR	n/a	1	1	VINE	CAVE	CAVE	VINE	12	[0, 0, 0]	-999	PAL1	3	R1121M
1696.474	0.884	965200	STUDY_ORIENT	n/a	2	2	CAR	FUR	CAR	FUR	12	[0, 0, 0]	-999	PAL1	3	R1121M
1697.358	5.018	965642	STUDY_PAIR	n/a	2	2	CAR	FUR	CAR	FUR	12	[0, 0, 0]	-999	PAL1	3	R1121M
1702.376	0.9	968151	STUDY_ORIENT	n/a	3	3	DART	JUDGE	JUDGE	DART	12	[0, 0, 0]	-999	PAL1	3	R1121M
1703.276	5.018	968601	STUDY_PAIR	n/a	3	3	DART	JUDGE	JUDGE	DART	12	[0, 0, 0]	-999	PAL1	3	R1121M
1708.294	0.782	971109	STUDY_ORIENT	n/a	4	6	WHEEL	n/a	WHEEL	FACE	12	[0, 0, 0]	-999	PAL1	3	R1121M
1709.076	5.018	971500	STUDY_PAIR	n/a	4	6	WHEEL	n/a	WHEEL	FACE	12	[0, 0, 0]	-999	PAL1	3	R1121M
1714.094	0.867	974009	STUDY_ORIENT	n/a	5	5	SUIT	n/a	PLATE	SUIT	12	[0, 0, 0]	-999	PAL1	3	R1121M
1714.961	5.034	974443	STUDY_PAIR	n/a	5	5	SUIT	n/a	PLATE	SUIT	12	[0, 0, 0]	-999	PAL1	3	R1121M
1719.995	0.851	976959	STUDY_ORIENT	n/a	6	4	SNOW	n/a	STRAW	SNOW	12	[0, 0, 0]	-999	PAL1	3	R1121M
1720.846	4.017	977385	STUDY_PAIR	n/a	6	4	SNOW	n/a	STRAW	SNOW	12	[0, 0, 0]	-999	PAL1	3	R1121M
1724.863	1.0	979393	START	n/a	-999	-999	n/a	n/a	n/a	n/a	13	[-999, -999, -999]	-999	PAL1	3	R1121M
1725.863	0.017	979893	MATH_START	n/a	-999	-999	n/a	n/a	n/a	n/a	12	[0, 0, 0]	-999	PAL1	3	R1121M
1725.88	10.602	979902	PROB	10583	-999	-999	n/a	n/a	n/a	n/a	13	[9, 8, 9]	28	PAL1	3	R1121M
1736.482	10.685	985202	PROB	10685	-999	-999	n/a	n/a	n/a	n/a	13	[1, 9, 7]	18	PAL1	3	R1121M
1747.167	0.017	990544	STOP	n/a	-999	-999	n/a	n/a	n/a	n/a	13	[-999, -999, -999]	-999	PAL1	3	R1121M
1747.184	0.0	990553	MATH_END	n/a	-999	-999	n/a	n/a	n/a	n/a	12	[0, 0, 0]	-999	PAL1	3	R1121M
1747.184	0.017	990553	TEST_START	n/a	-999	-999	n/a	n/a	n/a	n/a	12	[0, 0, 0]	-999	PAL1	3	R1121M
1747.201	0.867	990561	TEST_ORIENT	n/a	1	1	VINE	CAVE	CAVE	VINE	12	[0, 0, 0]	-999	PAL1	3	R1121M
1748.068	0.0	990995	TEST_PROBE	n/a	1	1	VINE	CAVE	CAVE	VINE	12	[0, 0, 0]	-999	PAL1	3	R1121M
1748.068	2.18	990995	REC_START	n/a	1	-999	n/a	CAVE	n/a	n/a	12	[0, 0, 0]	-999	PAL1	3	R1121M
1750.248	2.837	992085	REC_EVENT	2180	1	1	VINE	CAVE	CAVE	VINE	12	[0, 0, 0]	-999	PAL1	3	R1121M
1753.085	0.017	993503	REC_END	n/a	1	-999	n/a	n/a	n/a	n/a	12	[0, 0, 0]	-999	PAL1	3	R1121M
1753.102	0.933	993512	TEST_ORIENT	n/a	2	2	CAR	FUR	CAR	FUR	12	[0, 0, 0]	-999	PAL1	3	R1121M
1754.035	0.001	993978	TEST_PROBE	n/a	2	2	CAR	FUR	CAR	FUR	12	[0, 0, 0]	-999	PAL1	3	R1121M
1754.036	1.414	993979	REC_START	n/a	2	-999	n/a	FUR	n/a	n/a	12	[0, 0, 0]	-999	PAL1	3	R1121M
1755.45	3.594	994686	REC_EVENT	1414	2	2	CAR	FUR	CAR	FUR	12	[0, 0, 0]	-999	PAL1	3	R1121M
1759.044	0.009	996482	REC_END	n/a	2	-999	n/a	n/a	n/a	n/a	12	[0, 0, 0]	-999	PAL1	3	R1121M
1759.053	0.834	996487	TEST_ORIENT	n/a	3	3	DART	JUDGE	JUDGE	DART	12	[0, 0, 0]	-999	PAL1	3	R1121M
1759.887	0.0	996904	TEST_PROBE	n/a	3	3	DART	JUDGE	JUDGE	DART	12	[0, 0, 0]	-999	PAL1	3	R1121M
1759.887	1.66	996904	REC_START	n/a	3	-999	n/a	JUDGE	n/a	n/a	12	[0, 0, 0]	-999	PAL1	3	R1121M
1761.547	3.365	997734	REC_EVENT	1660	3	3	DART	JUDGE	JUDGE	DART	12	[0, 0, 0]	-999	PAL1	3	R1121M
1764.912	0.009	999416	REC_END	n/a	3	-999	n/a	n/a	n/a	n/a	12	[0, 0, 0]	-999	PAL1	3	R1121M
1764.921	1.017	999421	TEST_ORIENT	n/a	6	4	SNOW	n/a	STRAW	SNOW	12	[0, 0, 0]	-999	PAL1	3	R1121M
1765.938	0.0	999929	TEST_PROBE	n/a	6	4	SNOW	n/a	STRAW	SNOW	12	[0, 0, 0]	-999	PAL1	3	R1121M
1765.938	4.665	999929	REC_START	n/a	6	-999	n/a	<>	n/a	n/a	12	[0, 0, 0]	-999	PAL1	3	R1121M
1770.603	0.352	1002261	REC_EVENT	4665	6	4	SNOW	<>	STRAW	SNOW	12	[0, 0, 0]	-999	PAL1	3	R1121M
1770.955	0.017	1002437	REC_END	n/a	6	-999	n/a	n/a	n/a	n/a	12	[0, 0, 0]	-999	PAL1	3	R1121M
1770.972	0.8	1002446	TEST_ORIENT	n/a	5	5	SUIT	n/a	PLATE	SUIT	12	[0, 0, 0]	-999	PAL1	3	R1121M
1771.772	0.001	1002846	TEST_PROBE	n/a	5	5	SUIT	n/a	PLATE	SUIT	12	[0, 0, 0]	-999	PAL1	3	R1121M
1771.773	4.61	1002846	REC_START	n/a	5	-999	n/a	<>	n/a	n/a	12	[0, 0, 0]	-999	PAL1	3	R1121M
1776.383	0.398	1005151	REC_EVENT	4610	5	5	SUIT	<>	PLATE	SUIT	12	[0, 0, 0]	-999	PAL1	3	R1121M
1776.781	0.009	1005350	REC_END	n/a	5	-999	n/a	n/a	n/a	n/a	12	[0, 0, 0]	-999	PAL1	3	R1121M
1776.79	0.917	1005355	TEST_ORIENT	n/a	4	6	WHEEL	n/a	WHEEL	FACE	12	[0, 0, 0]	-999	PAL1	3	R1121M
1777.707	0.0	1005813	TEST_PROBE	n/a	4	6	WHEEL	n/a	WHEEL	FACE	12	[0, 0, 0]	-999	PAL1	3	R1121M
1777.707	3.736	1005813	REC_START	n/a	4	-999	n/a	<>	n/a	n/a	12	[0, 0, 0]	-999	PAL1	3	R1121M
1781.443	1.281	1007681	REC_EVENT	3736	4	6	WHEEL	<>	WHEEL	FACE	12	[0, 0, 0]	-999	PAL1	3	R1121M
1782.724	4.291	1008321	REC_END	n/a	4	-999	n/a	n/a	n/a	n/a	12	[0, 0, 0]	-999	PAL1	3	R1121M
1787.015	10.446	1010467	STUDY_START	n/a	-999	-999	n/a	n/a	n/a	n/a	13	[0, 0, 0]	-999	PAL1	3	R1121M
1797.461	0.8	1015689	STUDY_ORIENT	n/a	1	5	WOLF	STRING	STRING	WOLF	13	[0, 0, 0]	-999	PAL1	3	R1121M
1798.261	5.035	1016089	STUDY_PAIR	n/a	1	5	WOLF	STRING	STRING	WOLF	13	[0, 0, 0]	-999	PAL1	3	R1121M
1803.296	0.833	1018607	STUDY_ORIENT	n/a	2	4	LOCK	n/a	LOCK	MAT	13	[0, 0, 0]	-999	PAL1	3	R1121M
1804.129	5.034	1019023	STUDY_PAIR	n/a	2	4	LOCK	n/a	LOCK	MAT	13	[0, 0, 0]	-999	PAL1	3	R1121M
1809.163	0.833	1021540	STUDY_ORIENT	n/a	3	3	PIE	n/a	WEED	PIE	13	[0, 0, 0]	-999	PAL1	3	R1121M
1809.996	5.018	1021956	STUDY_PAIR	n/a	3	3	PIE	n/a	WEED	PIE	13	[0, 0, 0]	-999	PAL1	3	R1121M
1815.014	1.0	1024465	STUDY_ORIENT	n/a	4	6	BRANCH	n/a	BENCH	BRANCH	13	[0, 0, 0]	-999	PAL1	3	R1121M
1816.014	5.018	1024965	STUDY_PAIR	n/a	4	6	BRANCH	n/a	BENCH	BRANCH	13	[0, 0, 0]	-999	PAL1	3	R1121M
1821.032	0.8	1027474	STUDY_ORIENT	n/a	5	1	BAG	n/a	BAG	CUP	13	[0, 0, 0]	-999	PAL1	3	R1121M
1821.832	5.018	1027874	STUDY_PAIR	n/a	5	1	BAG	n/a	BAG	CUP	13	[0, 0, 0]	-999	PAL1	3	R1121M
1826.85	0.917	1030383	STUDY_ORIENT	n/a	6	2	TOOTH	n/a	TOOTH	PEA	13	[0, 0, 0]	-999	PAL1	3	R1121M
1827.767	4.018	1030841	STUDY_PAIR	n/a	6	2	TOOTH	n/a	TOOTH	PEA	13	[0, 0, 0]	-999	PAL1	3	R1121M
1831.785	0.999	1032850	START	n/a	-999	-999	n/a	n/a	n/a	n/a	14	[-999, -999, -999]	-999	PAL1	3	R1121M
1832.784	0.017	1033349	MATH_START	n/a	-999	-999	n/a	n/a	n/a	n/a	13	[0, 0, 0]	-999	PAL1	3	R1121M
1832.801	10.085	1033358	PROB	10062	-999	-999	n/a	n/a	n/a	n/a	14	[7, 8, 4]	18	PAL1	3	R1121M
1842.886	6.585	1038400	PROB	6553	-999	-999	n/a	n/a	n/a	n/a	14	[2, 1, 8]	11	PAL1	3	R1121M
1849.471	6.184	1041692	PROB	6184	-999	-999	n/a	n/a	n/a	n/a	14	[7, 3, 8]	18	PAL1	3	R1121M
1855.655	0.017	1044784	STOP	n/a	-999	-999	n/a	n/a	n/a	n/a	14	[-999, -999, -999]	-999	PAL1	3	R1121M
1855.672	0.0	1044793	MATH_END	n/a	-999	-999	n/a	n/a	n/a	n/a	13	[0, 0, 0]	-999	PAL1	3	R1121M
1855.672	0.017	1044793	TEST_START	n/a	-999	-999	n/a	n/a	n/a	n/a	13	[0, 0, 0]	-999	PAL1	3	R1121M
1855.689	0.984	1044801	TEST_ORIENT	n/a	5	1	BAG	n/a	BAG	CUP	13	[0, 0, 0]	-999	PAL1	3	R1121M
1856.673	0.0	1045293	TEST_PROBE	n/a	5	1	BAG	n/a	BAG	CUP	13	[0, 0, 0]	-999	PAL1	3	R1121M
1856.673	3.515	1045293	REC_START	n/a	5	-999	n/a	<>	n/a	n/a	13	[0, 0, 0]	-999	PAL1	3	R1121M
1860.188	1.502	1047050	REC_EVENT	3515	5	1	BAG	<>	BAG	CUP	13	[0, 0, 0]	-999	PAL1	3	R1121M
1861.69	0.017	1047801	REC_END	n/a	5	-999	n/a	n/a	n/a	n/a	13	[0, 0, 0]	-999	PAL1	3	R1121M
1861.707	0.933	1047810	TEST_ORIENT	n/a	6	2	TOOTH	n/a	TOOTH	PEA	13	[0, 0, 0]	-999	PAL1	3	R1121M
1862.64	0.001	1048276	TEST_PROBE	n/a	6	2	TOOTH	n/a	TOOTH	PEA	13	[0, 0, 0]	-999	PAL1	3	R1121M
1862.641	2.104	1048277	REC_START	n/a	6	-999	n/a	<>	n/a	n/a	13	[0, 0, 0]	-999	PAL1	3	R1121M
1864.745	2.905	1049329	REC_EVENT	2104	6	2	TOOTH	<>	TOOTH	PEA	13	[0, 0, 0]	-999	PAL1	3	R1121M
1867.65	0.008	1050781	REC_END	n/a	6	-999	n/a	n/a	n/a	n/a	13	[0, 0, 0]	-999	PAL1	3	R1121M
1867.658	0.884	1050785	TEST_ORIENT	n/a	3	3	PIE	n/a	WEED	PIE	13	[0, 0, 0]	-999	PAL1	3	R1121M
1868.542	0.0	1051227	TEST_PROBE	n/a	3	3	PIE	n/a	WEED	PIE	13	[0, 0, 0]	-999	PAL1	3	R1121M
1868.542	4.165	1051227	REC_START	n/a	3	-999	n/a	<>	n/a	n/a	13	[0, 0, 0]	-999	PAL1	3	R1121M
1872.707	0.852	1053309	REC_EVENT	4165	3	3	PIE	<>	WEED	PIE	13	[0, 0, 0]	-999	PAL1	3	R1121M
1873.559	0.017	1053735	REC_END	n/a	3	-999	n/a	n/a	n/a	n/a	13	[0, 0, 0]	-999	PAL1	3	R1121M
1873.576	0.817	1053744	TEST_ORIENT	n/a	2	4	LOCK	n/a	LOCK	MAT	13	[0, 0, 0]	-999	PAL1	3	R1121M
1874.393	0.001	1054152	TEST_PROBE	n/a	2	4	LOCK	n/a	LOCK	MAT	13	[0, 0, 0]	-999	PAL1	3	R1121M
1874.394	3.41	1054153	REC_START	n/a	2	-999	n/a	<>	n/a	n/a	13	[0, 0, 0]	-999	PAL1	3	R1121M
1877.804	1.599	1055858	REC_EVENT	3410	2	4	LOCK	<>	LOCK	MAT	13	[0, 0, 0]	-999	PAL1	3	R1121M
1879.403	0.008	1056657	REC_END	n/a	2	-999	n/a	n/a	n/a	n/a	13	[0, 0, 0]	-999	PAL1	3	R1121M
1879.411	0.967	1056661	TEST_ORIENT	n/a	1	5	WOLF	STRING	STRING	WOLF	13	[0, 0, 0]	-999	PAL1	3	R1121M
1880.378	0.001	1057145	TEST_PROBE	n/a	1	5	WOLF	STRING	STRING	WOLF	13	[0, 0, 0]	-999	PAL1	3	R1121M
1880.379	3.584	1057145	REC_START	n/a	1	-999	n/a	STRING	n/a	n/a	13	[0, 0, 0]	-999	PAL1	3	R1121M
1883.963	1.425	1058937	REC_EVENT	3584	1	5	WOLF	STRING	STRING	WOLF	13	[0, 0, 0]	-999	PAL1	3	R1121M
1885.388	0.008	1059649	REC_END	n/a	1	-999	n/a	n/a	n/a	n/a	13	[0, 0, 0]	-999	PAL1	3	R1121M
1885.396	0.884	1059653	TEST_ORIENT	n/a	4	6	BRANCH	n/a	BENCH	BRANCH	13	[0, 0, 0]	-999	PAL1	3	R1121M
1886.28	0.0	1060095	TEST_PROBE	n/a	4	6	BRANCH	n/a	BENCH	BRANCH	13	[0, 0, 0]	-999	PAL1	3	R1121M
1886.28	4.265	1060095	REC_START	n/a	4	-999	n/a	<>	n/a	n/a	13	[0, 0, 0]	-999	PAL1	3	R1121M
1890.545	0.752	1062228	REC_EVENT	4265	4	6	BRANCH	<>	BENCH	BRANCH	13	[0, 0, 0]	-999	PAL1	3	R1121M
1891.297	2.222	1062604	REC_END	n/a	4	-999	n/a	n/a	n/a	n/a	13	[0, 0, 0]	-999	PAL1	3	R1121M
1893.519	10.446	1063715	STUDY_START	n/a	-999	-999	n/a	n/a	n/a	n/a	14	[0, 0, 0]	-999	PAL1	3	R1121M
1903.965	0.801	1068937	STUDY_ORIENT	n/a	1	5	LAMP	n/a	STICK	LAMP	14	[0, 0, 0]	-999	PAL1	3	R1121M
1904.766	5.034	1069338	STUDY_PAIR	n/a	1	5	LAMP	n/a	STICK	LAMP	14	[0, 0, 0]	-999	PAL1	3	R1121M
1909.8	1.017	1071854	STUDY_ORIENT	n/a	2	6	GLASS	n/a	PURSE	GLASS	14	[0, 0, 0]	-999	PAL1	3	R1121M
1910.817	5.034	1072363	STUDY_PAIR	n/a	2	6	GLASS	n/a	PURSE	GLASS	14	[0, 0, 0]	-999	PAL1	3	R1121M
1915.851	0.934	1074880	STUDY_ORIENT	n/a	3	1	PIN	n/a	PIN	TOY	14	[0, 0, 0]	-999	PAL1	3	R1121M
1916.785	5.034	1075347	STUDY_PAIR	n/a	3	1	PIN	n/a	PIN	TOY	14	[0, 0, 0]	-999	PAL1	3	R1121M
1921.819	1.017	1077863	STUDY_ORIENT	n/a	4	2	BREAD	n/a	GRASS	BREAD	14	[0, 0, 0]	-999	PAL1	3	R1121M
1922.836	5.034	1078372	STUDY_PAIR	n/a	4	2	BREAD	n/a	GRASS	BREAD	14	[0, 0, 0]	-999	PAL1	3	R1121M
1927.87	0.917	1080889	STUDY_ORIENT	n/a	5	3	STAR	n/a	LAMB	STAR	14	[0, 0, 0]	-999	PAL1	3	R1121M
1928.787	5.034	1081347	STUDY_PAIR	n/a	5	3	STAR	n/a	LAMB	STAR	14	[0, 0, 0]	-999	PAL1	3	R1121M
1933.821	1.017	1083864	STUDY_ORIENT	n/a	6	4	BLUSH	n/a	BLUSH	PARK	14	[0, 0, 0]	-999	PAL1	3	R1121M
1934.838	4.001	1084372	STUDY_PAIR	n/a	6	4	BLUSH	n/a	BLUSH	PARK	14	[0, 0, 0]	-999	PAL1	3	R1121M
1938.839	1.0	1086373	START	n/a	-999	-999	n/a	n/a	n/a	n/a	15	[-999, -999, -999]	-999	PAL1	3	R1121M
1939.839	0.017	1086873	MATH_START	n/a	-999	-999	n/a	n/a	n/a	n/a	14	[0, 0, 0]	-999	PAL1	3	R1121M
1939.856	12.503	1086881	PROB	12480	-999	-999	n/a	n/a	n/a	n/a	15	[1, 2, 7]	10	PAL1	3	R1121M
1952.359	13.272	1093132	PROB	13272	-999	-999	n/a	n/a	n/a	n/a	15	[3, 7, 7]	17	PAL1	3	R1121M
1965.631	0.013	1099768	STOP	n/a	-999	-999	n/a	n/a	n/a	n/a	15	[-999, -999, -999]	-999	PAL1	3	R1121M
1965.644	0.0	1099774	MATH_END	n/a	-999	-999	n/a	n/a	n/a	n/a	14	[0, 0, 0]	-999	PAL1	3	R1121M
1965.644	0.017	1099774	TEST_START	n/a	-999	-999	n/a	n/a	n/a	n/a	14	[0, 0, 0]	-999	PAL1	3	R1121M
1965.661	0.817	1099783	TEST_ORIENT	n/a	3	1	PIN	n/a	PIN	TOY	14	[0, 0, 0]	-999	PAL1	3	R1121M
1966.478	0.0	1100191	TEST_PROBE	n/a	3	1	PIN	n/a	PIN	TOY	14	[0, 0, 0]	-999	PAL1	3	R1121M
1966.478	4.365	1100191	REC_START	n/a	3	-999	n/a	<>	n/a	n/a	14	[0, 0, 0]	-999	PAL1	3	R1121M
1970.843	0.652	1102373	REC_EVENT	4365	3	1	PIN	<>	PIN	TOY	14	[0, 0, 0]	-999	PAL1	3	R1121M
1971.495	0.017	1102699	REC_END	n/a	3	-999	n/a	n/a	n/a	n/a	14	[0, 0, 0]	-999	PAL1	3	R1121M
1971.512	0.967	1102708	TEST_ORIENT	n/a	4	2	BREAD	n/a	GRASS	BREAD	14	[0, 0, 0]	-999	PAL1	3	R1121M
1972.479	0.0	1103191	TEST_PROBE	n/a	4	2	BREAD	n/a	GRASS	BREAD	14	[0, 0, 0]	-999	PAL1	3	R1121M
1972.479	4.665	1103191	REC_START	n/a	4	-999	n/a	<>	n/a	n/a	14	[0, 0, 0]	-999	PAL1	3	R1121M
1977.144	0.352	1105524	REC_EVENT	4665	4	2	BREAD	<>	GRASS	BREAD	14	[0, 0, 0]	-999	PAL1	3	R1121M
1977.496	0.017	1105700	REC_END	n/a	4	-999	n/a	n/a	n/a	n/a	14	[0, 0, 0]	-999	PAL1	3	R1121M
1977.513	0.967	1105708	TEST_ORIENT	n/a	5	3	STAR	n/a	LAMB	STAR	14	[0, 0, 0]	-999	PAL1	3	R1121M
1978.48	0.001	1106192	TEST_PROBE	n/a	5	3	STAR	n/a	LAMB	STAR	14	[0, 0, 0]	-999	PAL1	3	R1121M
1978.481	4.604	1106192	REC_START	n/a	5	-999	n/a	<>	n/a	n/a	14	[0, 0, 0]	-999	PAL1	3	R1121M
1983.085	0.404	1108494	REC_EVENT	4604	5	3	STAR	<>	LAMB	STAR	14	[0, 0, 0]	-999	PAL1	3	R1121M
1983.489	0.009	1108696	REC_END	n/a	5	-999	n/a	n/a	n/a	n/a	14	[0, 0, 0]	-999	PAL1	3	R1121M
1983.498	0.834	1108700	TEST_ORIENT	n/a	6	4	BLUSH	n/a	BLUSH	PARK	14	[0, 0, 0]	-999	PAL1	3	R1121M
1984.332	0.001	1109117	TEST_PROBE	n/a	6	4	BLUSH	n/a	BLUSH	PARK	14	[0, 0, 0]	-999	PAL1	3	R1121M
1984.333	4.504	1109118	REC_START	n/a	6	-999	n/a	<>	n/a	n/a	14	[0, 0, 0]	-999	PAL1	3	R1121M
1988.837	0.504	1111370	REC_EVENT	4504	6	4	BLUSH	<>	BLUSH	PARK	14	[0, 0, 0]	-999	PAL1	3	R1121M
1989.341	0.009	1111622	REC_END	n/a	6	-999	n/a	n/a	n/a	n/a	14	[0, 0, 0]	-999	PAL1	3	R1121M
1989.35	0.934	1111626	TEST_ORIENT	n/a	1	5	LAMP	n/a	STICK	LAMP	14	[0, 0, 0]	-999	PAL1	3	R1121M
1990.284	0.0	1112093	TEST_PROBE	n/a	1	5	LAMP	n/a	STICK	LAMP	14	[0, 0, 0]	-999	PAL1	3	R1121M
1990.284	2.265	1112093	REC_START	n/a	1	-999	n/a	<>	n/a	n/a	14	[0, 0, 0]	-999	PAL1	3	R1121M
1992.549	2.752	1113226	REC_EVENT	2265	1	5	LAMP	<>	STICK	LAMP	14	[0, 0, 0]	-999	PAL1	3	R1121M
1995.301	0.017	1114601	REC_END	n/a	1	-999	n/a	n/a	n/a	n/a	14	[0, 0, 0]	-999	PAL1	3	R1121M
1995.318	0.932	1114610	TEST_ORIENT	n/a	2	6	GLASS	n/a	PURSE	GLASS	14	[0, 0, 0]	-999	PAL1	3	R1121M
1996.25	0.001	1115076	TEST_PROBE	n/a	2	6	GLASS	n/a	PURSE	GLASS	14	[0, 0, 0]	-999	PAL1	3	R1121M
1996.251	3.31	1115076	REC_START	n/a	2	-999	n/a	<>	n/a	n/a	14	[0, 0, 0]	-999	PAL1	3	R1121M
1999.561	1.697	1116731	REC_EVENT	3310	2	6	GLASS	<>	PURSE	GLASS	14	[0, 0, 0]	-999	PAL1	3	R1121M
2001.258	3.805	1117580	REC_END	n/a	2	-999	n/a	n/a	n/a	n/a	14	[0, 0, 0]	-999	PAL1	3	R1121M
2005.063	10.441	1119482	STUDY_START	n/a	-999	-999	n/a	n/a	n/a	n/a	15	[0, 0, 0]	-999	PAL1	3	R1121M
2015.504	0.901	1124702	STUDY_ORIENT	n/a	1	1	THREAD	n/a	VEST	THREAD	15	[0, 0, 0]	-999	PAL1	3	R1121M
2016.405	5.018	1125153	STUDY_PAIR	n/a	1	1	THREAD	n/a	VEST	THREAD	15	[0, 0, 0]	-999	PAL1	3	R1121M
2021.423	0.917	1127661	STUDY_ORIENT	n/a	2	4	SEAL	n/a	SEAL	BRICK	15	[0, 0, 0]	-999	PAL1	3	R1121M
2022.34	5.034	1128120	STUDY_PAIR	n/a	2	4	SEAL	n/a	SEAL	BRICK	15	[0, 0, 0]	-999	PAL1	3	R1121M
2027.374	0.984	1130637	STUDY_ORIENT	n/a	3	3	MOON	n/a	MOON	TRAIN	15	[0, 0, 0]	-999	PAL1	3	R1121M
2028.358	5.034	1131129	STUDY_PAIR	n/a	3	3	MOON	n/a	MOON	TRAIN	15	[0, 0, 0]	-999	PAL1	3	R1121M
2033.392	0.866	1133645	STUDY_ORIENT	n/a	4	6	KITE	n/a	KITE	BRIDGE	15	[0, 0, 0]	-999	PAL1	3	R1121M
2034.258	5.035	1134078	STUDY_PAIR	n/a	4	6	KITE	n/a	KITE	BRIDGE	15	[0, 0, 0]	-999	PAL1	3	R1121M
2039.293	0.95	1136596	STUDY_ORIENT	n/a	5	5	DITCH	n/a	DITCH	DEER	15	[0, 0, 0]	-999	PAL1	3	R1121M
2040.243	5.035	1137071	STUDY_PAIR	n/a	5	5	DITCH	n/a	DITCH	DEER	15	[0, 0, 0]	-999	PAL1	3	R1121M
2045.278	0.865	1139588	STUDY_ORIENT	n/a	6	2	TRAY	n/a	NET	TRAY	15	[0, 0, 0]	-999	PAL1	3	R1121M
2046.143	4.002	1140020	STUDY_PAIR	n/a	6	2	TRAY	n/a	NET	TRAY	15	[0, 0, 0]	-999	PAL1	3	R1121M
2050.145	0.999	1142021	START	n/a	-999	-999	n/a	n/a	n/a	n/a	16	[-999, -999, -999]	-999	PAL1	3	R1121M
2051.144	0.017	1142521	MATH_START	n/a	-999	-999	n/a	n/a	n/a	n/a	15	[0, 0, 0]	-999	PAL1	3	R1121M
2051.161	5.835	1142529	PROB	5806	-999	-999	n/a	n/a	n/a	n/a	16	[5, 1, 7]	57	PAL1	3	R1121M
2056.996	5.369	1145447	PROB	5348	-999	-999	n/a	n/a	n/a	n/a	16	[8, 1, 8]	17	PAL1	3	R1121M
2062.365	3.917	1148131	PROB	3882	-999	-999	n/a	n/a	n/a	n/a	16	[1, 4, 2]	5	PAL1	3	R1121M
2066.282	2.616	1150089	PROB	2597	-999	-999	n/a	n/a	n/a	n/a	16	[7, 2, 5]	7	PAL1	3	R1121M
2068.898	2.661	1151397	PROB	2661	-999	-999	n/a	n/a	n/a	n/a	16	[6, 8, 5]	8	PAL1	3	R1121M
2071.559	0.006	1152727	STOP	n/a	-999	-999	n/a	n/a	n/a	n/a	16	[-999, -999, -999]	-999	PAL1	3	R1121M
2071.565	0.0	1152730	MATH_END	n/a	-999	-999	n/a	n/a	n/a	n/a	15	[0, 0, 0]	-999	PAL1	3	R1121M
2071.565	0.017	1152730	TEST_START	n/a	-999	-999	n/a	n/a	n/a	n/a	15	[0, 0, 0]	-999	PAL1	3	R1121M
2071.582	1.034	1152739	TEST_ORIENT	n/a	1	1	THREAD	n/a	VEST	THREAD	15	[0, 0, 0]	-999	PAL1	3	R1121M
2072.616	0.0	1153256	TEST_PROBE	n/a	1	1	THREAD	n/a	VEST	THREAD	15	[0, 0, 0]	-999	PAL1	3	R1121M
2072.616	2.293	1153256	REC_START	n/a	1	-999	n/a	<>	n/a	n/a	15	[0, 0, 0]	-999	PAL1	3	R1121M
2074.909	2.741	1154402	REC_EVENT	2293	1	1	THREAD	<>	VEST	THREAD	15	[0, 0, 0]	-999	PAL1	3	R1121M
2077.65	0.033	1155773	REC_END	n/a	1	-999	n/a	n/a	n/a	n/a	15	[0, 0, 0]	-999	PAL1	3	R1121M
2077.683	0.8	1155789	TEST_ORIENT	n/a	6	2	TRAY	n/a	NET	TRAY	15	[0, 0, 0]	-999	PAL1	3	R1121M
2078.483	0.002	1156189	TEST_PROBE	n/a	6	2	TRAY	n/a	NET	TRAY	15	[0, 0, 0]	-999	PAL1	3	R1121M
2078.485	0.315	1156190	REC_START	n/a	6	-999	n/a	<>	n/a	n/a	15	[0, 0, 0]	-999	PAL1	3	R1121M
2078.8	4.7	1156348	REC_EVENT	315	6	2	TRAY	<>	NET	TRAY	15	[0, 0, 0]	-999	PAL1	3	R1121M
2083.5	0.018	1158697	REC_END	n/a	6	-999	n/a	n/a	n/a	n/a	15	[0, 0, 0]	-999	PAL1	3	R1121M
2083.518	0.801	1158706	TEST_ORIENT	n/a	3	3	MOON	n/a	MOON	TRAIN	15	[0, 0, 0]	-999	PAL1	3	R1121M
2084.319	0.0	1159107	TEST_PROBE	n/a	3	3	MOON	n/a	MOON	TRAIN	15	[0, 0, 0]	-999	PAL1	3	R1121M
2084.319	4.315	1159107	REC_START	n/a	3	-999	n/a	<>	n/a	n/a	15	[0, 0, 0]	-999	PAL1	3	R1121M
2088.634	0.702	1161264	REC_EVENT	4315	3	3	MOON	<>	MOON	TRAIN	15	[0, 0, 0]	-999	PAL1	3	R1121M
2089.336	0.017	1161615	REC_END	n/a	3	-999	n/a	n/a	n/a	n/a	15	[0, 0, 0]	-999	PAL1	3	R1121M
2089.353	0.984	1161624	TEST_ORIENT	n/a	2	4	SEAL	n/a	SEAL	BRICK	15	[0, 0, 0]	-999	PAL1	3	R1121M
2090.337	0.0	1162116	TEST_PROBE	n/a	2	4	SEAL	n/a	SEAL	BRICK	15	[0, 0, 0]	-999	PAL1	3	R1121M
2090.337	4.265	1162116	REC_START	n/a	2	-999	n/a	<>	n/a	n/a	15	[0, 0, 0]	-999	PAL1	3	R1121M
2094.602	0.752	1164248	REC_EVENT	4265	2	4	SEAL	<>	SEAL	BRICK	15	[0, 0, 0]	-999	PAL1	3	R1121M
2095.354	0.017	1164624	REC_END	n/a	2	-999	n/a	n/a	n/a	n/a	15	[0, 0, 0]	-999	PAL1	3	R1121M
2095.371	1.0	1164632	TEST_ORIENT	n/a	5	5	DITCH	n/a	DITCH	DEER	15	[0, 0, 0]	-999	PAL1	3	R1121M
2096.371	0.001	1165132	TEST_PROBE	n/a	5	5	DITCH	n/a	DITCH	DEER	15	[0, 0, 0]	-999	PAL1	3	R1121M
2096.372	1.709	1165133	REC_START	n/a	5	-999	n/a	<>	n/a	n/a	15	[0, 0, 0]	-999	PAL1	3	R1121M
2098.081	3.291	1165987	REC_EVENT	1709	5	5	DITCH	<>	DITCH	DEER	15	[0, 0, 0]	-999	PAL1	3	R1121M
2101.372	0.05	1167633	REC_END	n/a	5	-999	n/a	n/a	n/a	n/a	15	[0, 0, 0]	-999	PAL1	3	R1121M
2101.422	0.951	1167658	TEST_ORIENT	n/a	4	6	KITE	n/a	KITE	BRIDGE	15	[0, 0, 0]	-999	PAL1	3	R1121M
2102.373	0.001	1168133	TEST_PROBE	n/a	4	6	KITE	n/a	KITE	BRIDGE	15	[0, 0, 0]	-999	PAL1	3	R1121M
2102.374	4.765	1168134	REC_START	n/a	4	-999	n/a	<>	n/a	n/a	15	[0, 0, 0]	-999	PAL1	3	R1121M
2107.139	0.251	1170516	REC_EVENT	4765	4	6	KITE	<>	KITE	BRIDGE	15	[0, 0, 0]	-999	PAL1	3	R1121M
2107.39	0.0	1170642	REC_END	n/a	4	-999	n/a	n/a	n/a	n/a	15	[0, 0, 0]	-999	PAL1	3	R1121M
