onset	duration	sample	trial_type	response_time	stim_file	serialpos	probepos	probe_word	resp_word	study_1	study_2	list	test	answer	experiment	session	subject
0.0	187.659	176475	SESS_START	n/a	n/a	-999	-999	n/a	n/a	n/a	n/a	-999	[0, 0, 0]	-999	PAL1	2	R1185N
187.659	76.325	364126	SESS_START	n/a	n/a	-999	-999	n/a	n/a	n/a	n/a	-999	[0, 0, 0]	-999	PAL1	2	R1185N
263.984	1.016	440449	START	n/a	n/a	-999	-999	n/a	n/a	n/a	n/a	-1	[-999, -999, -999]	-999	PAL1	2	R1185N
265.0	4.401	441465	PROB	4374	n/a	-999	-999	n/a	n/a	n/a	n/a	-1	[9, 4, 6]	19	PAL1	2	R1185N
269.401	7.25	445865	PROB	7220	n/a	-999	-999	n/a	n/a	n/a	n/a	-1	[4, 9, 2]	15	PAL1	2	R1185N
276.651	3.068	453115	PROB	3034	n/a	-999	-999	n/a	n/a	n/a	n/a	-1	[8, 2, 2]	12	PAL1	2	R1185N
279.719	3.251	456183	PROB	3231	n/a	-999	-999	n/a	n/a	n/a	n/a	-1	[9, 2, 9]	20	PAL1	2	R1185N
282.97	3.603	459434	PROB	3603	n/a	-999	-999	n/a	n/a	n/a	n/a	-1	[9, 5, 4]	18	PAL1	2	R1185N
286.573	70.353	463037	STOP	n/a	n/a	-999	-999	n/a	n/a	n/a	n/a	-1	[-999, -999, -999]	-999	PAL1	2	R1185N
356.926	10.441	533387	ENCODING_START	n/a	n/a	0	-999	n/a	n/a	n/a	n/a	1	[0, 0, 0]	-999	PAL1	2	R1185N
367.367	0.934	543828	STUDY_ORIENT	n/a	n/a	1	5	DUCK	n/a	SPRING	DUCK	1	[0, 0, 0]	-999	PAL1	2	R1185N
368.301	5.034	544762	STUDY_PAIR	n/a	wordpools/wordpool_EN.txt	1	5	DUCK	n/a	SPRING	DUCK	1	[0, 0, 0]	-999	PAL1	2	R1185N
373.335	1.0	549795	STUDY_ORIENT	n/a	n/a	2	6	YARD	VEST	YARD	VEST	1	[0, 0, 0]	-999	PAL1	2	R1185N
374.335	5.034	550795	STUDY_PAIR	n/a	wordpools/wordpool_EN.txt	2	6	YARD	VEST	YARD	VEST	1	[0, 0, 0]	-999	PAL1	2	R1185N
379.369	0.817	555829	STUDY_ORIENT	n/a	n/a	3	1	PANTS	CALF	PANTS	CALF	1	[0, 0, 0]	-999	PAL1	2	R1185N
380.186	5.034	556646	STUDY_PAIR	n/a	wordpools/wordpool_EN.txt	3	1	PANTS	CALF	PANTS	CALF	1	[0, 0, 0]	-999	PAL1	2	R1185N
385.22	0.817	561680	STUDY_ORIENT	n/a	n/a	4	4	FISH	INK	INK	FISH	1	[0, 0, 0]	-999	PAL1	2	R1185N
386.037	5.034	562497	STUDY_PAIR	n/a	wordpools/wordpool_EN.txt	4	4	FISH	INK	INK	FISH	1	[0, 0, 0]	-999	PAL1	2	R1185N
391.071	0.934	567531	STUDY_ORIENT	n/a	n/a	5	3	TOE	DOOR	DOOR	TOE	1	[0, 0, 0]	-999	PAL1	2	R1185N
392.005	5.034	568465	STUDY_PAIR	n/a	wordpools/wordpool_EN.txt	5	3	TOE	DOOR	DOOR	TOE	1	[0, 0, 0]	-999	PAL1	2	R1185N
397.039	0.934	573499	STUDY_ORIENT	n/a	n/a	6	2	CAT	CHIEF	CAT	CHIEF	1	[0, 0, 0]	-999	PAL1	2	R1185N
397.973	4.017	574433	STUDY_PAIR	n/a	wordpools/wordpool_EN.txt	6	2	CAT	CHIEF	CAT	CHIEF	1	[0, 0, 0]	-999	PAL1	2	R1185N
401.99	1.0	578449	START	n/a	n/a	-999	-999	n/a	n/a	n/a	n/a	1	[-999, -999, -999]	-999	PAL1	2	R1185N
402.99	0.017	579449	MATH_START	n/a	n/a	-999	-999	n/a	n/a	n/a	n/a	1	[0, 0, 0]	-999	PAL1	2	R1185N
403.007	4.967	579466	PROB	4935	n/a	-999	-999	n/a	n/a	n/a	n/a	1	[6, 4, 4]	14	PAL1	2	R1185N
407.974	5.101	584433	PROB	5080	n/a	-999	-999	n/a	n/a	n/a	n/a	1	[7, 7, 8]	22	PAL1	2	R1185N
413.075	5.567	589534	PROB	5538	n/a	-999	-999	n/a	n/a	n/a	n/a	1	[9, 4, 4]	17	PAL1	2	R1185N
418.642	14.708	595101	PROB	14708	n/a	-999	-999	n/a	n/a	n/a	n/a	1	[6, 9, 8]	23	PAL1	2	R1185N
433.35	0.012	609808	STOP	n/a	n/a	-999	-999	n/a	n/a	n/a	n/a	1	[-999, -999, -999]	-999	PAL1	2	R1185N
433.362	0.0	609820	TEST_START	n/a	n/a	-999	-999	n/a	n/a	n/a	n/a	1	[0, 0, 0]	-999	PAL1	2	R1185N
433.362	0.017	609820	MATH_END	n/a	n/a	-999	-999	n/a	n/a	n/a	n/a	1	[0, 0, 0]	-999	PAL1	2	R1185N
433.379	0.95	609837	TEST_ORIENT	n/a	n/a	3	1	PANTS	CALF	PANTS	CALF	1	[0, 0, 0]	-999	PAL1	2	R1185N
434.329	0.0	610787	TEST_PROBE	n/a	wordpools/wordpool_EN.txt	3	1	PANTS	CALF	PANTS	CALF	1	[0, 0, 0]	-999	PAL1	2	R1185N
434.329	1.828	610787	REC_START	n/a	n/a	3	-999	n/a	CALF	n/a	n/a	1	[0, 0, 0]	-999	PAL1	2	R1185N
436.157	3.189	612615	REC_EVENT	1828	n/a	3	1	PANTS	CALF	PANTS	CALF	1	[0, 0, 0]	-999	PAL1	2	R1185N
439.346	0.017	615804	REC_END	n/a	n/a	3	-999	n/a	n/a	n/a	n/a	1	[0, 0, 0]	-999	PAL1	2	R1185N
439.363	1.0	615821	TEST_ORIENT	n/a	n/a	6	2	CAT	CHIEF	CAT	CHIEF	1	[0, 0, 0]	-999	PAL1	2	R1185N
440.363	0.0	616821	TEST_PROBE	n/a	wordpools/wordpool_EN.txt	6	2	CAT	CHIEF	CAT	CHIEF	1	[0, 0, 0]	-999	PAL1	2	R1185N
440.363	1.199	616821	REC_START	n/a	n/a	6	-999	n/a	CHIEF	n/a	n/a	1	[0, 0, 0]	-999	PAL1	2	R1185N
441.562	3.818	618020	REC_EVENT	1199	n/a	6	2	CAT	CHIEF	CAT	CHIEF	1	[0, 0, 0]	-999	PAL1	2	R1185N
445.38	0.017	621838	REC_END	n/a	n/a	6	-999	n/a	n/a	n/a	n/a	1	[0, 0, 0]	-999	PAL1	2	R1185N
445.397	0.967	621855	TEST_ORIENT	n/a	n/a	5	3	TOE	DOOR	DOOR	TOE	1	[0, 0, 0]	-999	PAL1	2	R1185N
446.364	0.001	622822	TEST_PROBE	n/a	wordpools/wordpool_EN.txt	5	3	TOE	DOOR	DOOR	TOE	1	[0, 0, 0]	-999	PAL1	2	R1185N
446.365	1.1	622823	REC_START	n/a	n/a	5	-999	n/a	DOOR	n/a	n/a	1	[0, 0, 0]	-999	PAL1	2	R1185N
447.465	3.916	623923	REC_EVENT	1100	n/a	5	3	TOE	DOOR	DOOR	TOE	1	[0, 0, 0]	-999	PAL1	2	R1185N
451.381	0.017	627839	REC_END	n/a	n/a	5	-999	n/a	n/a	n/a	n/a	1	[0, 0, 0]	-999	PAL1	2	R1185N
451.398	0.967	627856	TEST_ORIENT	n/a	n/a	4	4	FISH	INK	INK	FISH	1	[0, 0, 0]	-999	PAL1	2	R1185N
452.365	0.0	628823	REC_START	n/a	n/a	4	-999	n/a	INK	n/a	n/a	1	[0, 0, 0]	-999	PAL1	2	R1185N
452.365	1.231	628823	TEST_PROBE	n/a	wordpools/wordpool_EN.txt	4	4	FISH	INK	INK	FISH	1	[0, 0, 0]	-999	PAL1	2	R1185N
453.596	3.786	630053	REC_EVENT	1231	n/a	4	4	FISH	INK	INK	FISH	1	[0, 0, 0]	-999	PAL1	2	R1185N
457.382	0.017	633839	REC_END	n/a	n/a	4	-999	n/a	n/a	n/a	n/a	1	[0, 0, 0]	-999	PAL1	2	R1185N
457.399	0.884	633856	TEST_ORIENT	n/a	n/a	1	5	DUCK	n/a	SPRING	DUCK	1	[0, 0, 0]	-999	PAL1	2	R1185N
458.283	0.0	634740	TEST_PROBE	n/a	wordpools/wordpool_EN.txt	1	5	DUCK	n/a	SPRING	DUCK	1	[0, 0, 0]	-999	PAL1	2	R1185N
458.283	5.015	634740	REC_START	n/a	n/a	1	-999	n/a	n/a	n/a	n/a	1	[0, 0, 0]	-999	PAL1	2	R1185N
463.298	0.002	639755	REC_EVENT	5015	n/a	1	5	DUCK	<>	SPRING	DUCK	1	[0, 0, 0]	-999	PAL1	2	R1185N
463.3	0.017	639757	REC_END	n/a	n/a	1	-999	n/a	n/a	n/a	n/a	1	[0, 0, 0]	-999	PAL1	2	R1185N
463.317	1.017	639774	TEST_ORIENT	n/a	n/a	2	6	YARD	VEST	YARD	VEST	1	[0, 0, 0]	-999	PAL1	2	R1185N
464.334	0.0	640791	TEST_PROBE	n/a	wordpools/wordpool_EN.txt	2	6	YARD	VEST	YARD	VEST	1	[0, 0, 0]	-999	PAL1	2	R1185N
464.334	1.775	640791	REC_START	n/a	n/a	2	-999	n/a	VEST	n/a	n/a	1	[0, 0, 0]	-999	PAL1	2	R1185N
466.109	3.242	642566	REC_EVENT	1775	n/a	2	6	YARD	VEST	YARD	VEST	1	[0, 0, 0]	-999	PAL1	2	R1185N
469.351	4.302	645808	REC_END	n/a	n/a	2	-999	n/a	n/a	n/a	n/a	1	[0, 0, 0]	-999	PAL1	2	R1185N
473.653	10.451	650110	ENCODING_START	n/a	n/a	0	-999	n/a	n/a	n/a	n/a	2	[0, 0, 0]	-999	PAL1	2	R1185N
484.104	0.8	660560	STUDY_ORIENT	n/a	n/a	1	5	DOCK	HORN	DOCK	HORN	2	[0, 0, 0]	-999	PAL1	2	R1185N
484.904	5.034	661360	STUDY_PAIR	n/a	wordpools/wordpool_EN.txt	1	5	DOCK	HORN	DOCK	HORN	2	[0, 0, 0]	-999	PAL1	2	R1185N
489.938	1.034	666394	STUDY_ORIENT	n/a	n/a	2	2	SHARK	SLUSH	SLUSH	SHARK	2	[0, 0, 0]	-999	PAL1	2	R1185N
490.972	5.034	667428	STUDY_PAIR	n/a	wordpools/wordpool_EN.txt	2	2	SHARK	SLUSH	SLUSH	SHARK	2	[0, 0, 0]	-999	PAL1	2	R1185N
496.006	0.983	672462	STUDY_ORIENT	n/a	n/a	3	3	CROWN	n/a	SHELL	CROWN	2	[0, 0, 0]	-999	PAL1	2	R1185N
496.989	5.018	673445	STUDY_PAIR	n/a	wordpools/wordpool_EN.txt	3	3	CROWN	n/a	SHELL	CROWN	2	[0, 0, 0]	-999	PAL1	2	R1185N
502.007	0.967	678463	STUDY_ORIENT	n/a	n/a	4	4	SWORD	CHEEK	CHEEK	SWORD	2	[0, 0, 0]	-999	PAL1	2	R1185N
502.974	5.034	679430	STUDY_PAIR	n/a	wordpools/wordpool_EN.txt	4	4	SWORD	CHEEK	CHEEK	SWORD	2	[0, 0, 0]	-999	PAL1	2	R1185N
508.008	0.883	684463	STUDY_ORIENT	n/a	n/a	5	1	CHALK	PLANE	PLANE	CHALK	2	[0, 0, 0]	-999	PAL1	2	R1185N
508.891	5.018	685346	STUDY_PAIR	n/a	wordpools/wordpool_EN.txt	5	1	CHALK	PLANE	PLANE	CHALK	2	[0, 0, 0]	-999	PAL1	2	R1185N
513.909	0.799	690364	STUDY_ORIENT	n/a	n/a	6	6	PIN	n/a	NAIL	PIN	2	[0, 0, 0]	-999	PAL1	2	R1185N
514.708	4.019	691163	STUDY_PAIR	n/a	wordpools/wordpool_EN.txt	6	6	PIN	n/a	NAIL	PIN	2	[0, 0, 0]	-999	PAL1	2	R1185N
518.727	0.999	695182	START	n/a	n/a	-999	-999	n/a	n/a	n/a	n/a	2	[-999, -999, -999]	-999	PAL1	2	R1185N
519.726	0.017	696181	MATH_START	n/a	n/a	-999	-999	n/a	n/a	n/a	n/a	2	[0, 0, 0]	-999	PAL1	2	R1185N
519.743	5.268	696198	PROB	5247	n/a	-999	-999	n/a	n/a	n/a	n/a	2	[3, 5, 3]	11	PAL1	2	R1185N
525.011	4.867	701466	PROB	4835	n/a	-999	-999	n/a	n/a	n/a	n/a	2	[5, 3, 9]	17	PAL1	2	R1185N
529.878	3.351	706333	PROB	3328	n/a	-999	-999	n/a	n/a	n/a	n/a	2	[6, 7, 4]	17	PAL1	2	R1185N
533.229	7.272	709683	PROB	7272	n/a	-999	-999	n/a	n/a	n/a	n/a	2	[5, 2, 6]	13	PAL1	2	R1185N
540.501	0.011	716955	STOP	n/a	n/a	-999	-999	n/a	n/a	n/a	n/a	2	[-999, -999, -999]	-999	PAL1	2	R1185N
540.512	0.0	716966	MATH_END	n/a	n/a	-999	-999	n/a	n/a	n/a	n/a	2	[0, 0, 0]	-999	PAL1	2	R1185N
540.512	0.017	716966	TEST_START	n/a	n/a	-999	-999	n/a	n/a	n/a	n/a	2	[0, 0, 0]	-999	PAL1	2	R1185N
540.529	0.851	716983	TEST_ORIENT	n/a	n/a	5	1	CHALK	PLANE	PLANE	CHALK	2	[0, 0, 0]	-999	PAL1	2	R1185N
541.38	0.0	717834	TEST_PROBE	n/a	wordpools/wordpool_EN.txt	5	1	CHALK	PLANE	PLANE	CHALK	2	[0, 0, 0]	-999	PAL1	2	R1185N
541.38	1.562	717834	REC_START	n/a	n/a	5	-999	n/a	PLANE	n/a	n/a	2	[0, 0, 0]	-999	PAL1	2	R1185N
542.942	3.455	719396	REC_EVENT	1562	n/a	5	1	CHALK	PLANE	PLANE	CHALK	2	[0, 0, 0]	-999	PAL1	2	R1185N
546.397	0.017	722851	REC_END	n/a	n/a	5	-999	n/a	n/a	n/a	n/a	2	[0, 0, 0]	-999	PAL1	2	R1185N
546.414	0.95	722868	TEST_ORIENT	n/a	n/a	2	2	SHARK	SLUSH	SLUSH	SHARK	2	[0, 0, 0]	-999	PAL1	2	R1185N
547.364	0.001	723818	TEST_PROBE	n/a	wordpools/wordpool_EN.txt	2	2	SHARK	SLUSH	SLUSH	SHARK	2	[0, 0, 0]	-999	PAL1	2	R1185N
547.365	1.5	723819	REC_START	n/a	n/a	2	-999	n/a	SLUSH	n/a	n/a	2	[0, 0, 0]	-999	PAL1	2	R1185N
548.865	3.508	725319	REC_EVENT	1500	n/a	2	2	SHARK	SLUSH	SLUSH	SHARK	2	[0, 0, 0]	-999	PAL1	2	R1185N
552.373	0.009	728827	REC_END	n/a	n/a	2	-999	n/a	n/a	n/a	n/a	2	[0, 0, 0]	-999	PAL1	2	R1185N
552.382	0.95	728836	TEST_ORIENT	n/a	n/a	3	3	CROWN	n/a	SHELL	CROWN	2	[0, 0, 0]	-999	PAL1	2	R1185N
553.332	0.001	729786	TEST_PROBE	n/a	wordpools/wordpool_EN.txt	3	3	CROWN	n/a	SHELL	CROWN	2	[0, 0, 0]	-999	PAL1	2	R1185N
553.333	5.025	729787	REC_START	n/a	n/a	3	-999	n/a	n/a	n/a	n/a	2	[0, 0, 0]	-999	PAL1	2	R1185N
558.358	0.002	734812	REC_END	n/a	n/a	3	-999	n/a	n/a	n/a	n/a	2	[0, 0, 0]	-999	PAL1	2	R1185N
558.36	0.006	734814	REC_EVENT	5027	n/a	3	3	CROWN	<>	SHELL	CROWN	2	[0, 0, 0]	-999	PAL1	2	R1185N
558.366	0.834	734820	TEST_ORIENT	n/a	n/a	4	4	SWORD	CHEEK	CHEEK	SWORD	2	[0, 0, 0]	-999	PAL1	2	R1185N
559.2	0.0	735654	REC_START	n/a	n/a	4	-999	n/a	CHEEK	n/a	n/a	2	[0, 0, 0]	-999	PAL1	2	R1185N
559.2	1.172	735654	TEST_PROBE	n/a	wordpools/wordpool_EN.txt	4	4	SWORD	CHEEK	CHEEK	SWORD	2	[0, 0, 0]	-999	PAL1	2	R1185N
560.372	3.845	736825	REC_EVENT	1172	n/a	4	4	SWORD	CHEEK	CHEEK	SWORD	2	[0, 0, 0]	-999	PAL1	2	R1185N
564.217	0.017	740670	REC_END	n/a	n/a	4	-999	n/a	n/a	n/a	n/a	2	[0, 0, 0]	-999	PAL1	2	R1185N
564.234	0.833	740687	TEST_ORIENT	n/a	n/a	1	5	DOCK	HORN	DOCK	HORN	2	[0, 0, 0]	-999	PAL1	2	R1185N
565.067	0.001	741520	TEST_PROBE	n/a	wordpools/wordpool_EN.txt	1	5	DOCK	HORN	DOCK	HORN	2	[0, 0, 0]	-999	PAL1	2	R1185N
565.068	2.886	741521	REC_START	n/a	n/a	1	-999	n/a	HORN	n/a	n/a	2	[0, 0, 0]	-999	PAL1	2	R1185N
567.954	2.122	744407	REC_EVENT	2886	n/a	1	5	DOCK	HORN	DOCK	HORN	2	[0, 0, 0]	-999	PAL1	2	R1185N
570.076	0.009	746529	REC_END	n/a	n/a	1	-999	n/a	n/a	n/a	n/a	2	[0, 0, 0]	-999	PAL1	2	R1185N
570.085	1.033	746538	TEST_ORIENT	n/a	n/a	6	6	PIN	n/a	NAIL	PIN	2	[0, 0, 0]	-999	PAL1	2	R1185N
571.118	0.001	747571	TEST_PROBE	n/a	wordpools/wordpool_EN.txt	6	6	PIN	n/a	NAIL	PIN	2	[0, 0, 0]	-999	PAL1	2	R1185N
571.119	5.008	747572	REC_START	n/a	n/a	6	-999	n/a	n/a	n/a	n/a	2	[0, 0, 0]	-999	PAL1	2	R1185N
576.127	0.001	752580	REC_END	n/a	n/a	6	-999	n/a	n/a	n/a	n/a	2	[0, 0, 0]	-999	PAL1	2	R1185N
576.128	6.214	752581	REC_EVENT	5009	n/a	6	6	PIN	<>	NAIL	PIN	2	[0, 0, 0]	-999	PAL1	2	R1185N
582.342	10.447	758795	ENCODING_START	n/a	n/a	0	-999	n/a	n/a	n/a	n/a	3	[0, 0, 0]	-999	PAL1	2	R1185N
592.789	0.782	769241	STUDY_ORIENT	n/a	n/a	1	5	BAND	TOOTH	BAND	TOOTH	3	[0, 0, 0]	-999	PAL1	2	R1185N
593.571	5.018	770023	STUDY_PAIR	n/a	wordpools/wordpool_EN.txt	1	5	BAND	TOOTH	BAND	TOOTH	3	[0, 0, 0]	-999	PAL1	2	R1185N
598.589	0.917	775041	STUDY_ORIENT	n/a	n/a	2	4	SHEET	WORM	WORM	SHEET	3	[0, 0, 0]	-999	PAL1	2	R1185N
599.506	5.034	775958	STUDY_PAIR	n/a	wordpools/wordpool_EN.txt	2	4	SHEET	WORM	WORM	SHEET	3	[0, 0, 0]	-999	PAL1	2	R1185N
604.54	0.884	780992	STUDY_ORIENT	n/a	n/a	3	3	RICE	JUICE	JUICE	RICE	3	[0, 0, 0]	-999	PAL1	2	R1185N
605.424	5.018	781876	STUDY_PAIR	n/a	wordpools/wordpool_EN.txt	3	3	RICE	JUICE	JUICE	RICE	3	[0, 0, 0]	-999	PAL1	2	R1185N
610.442	0.95	786894	STUDY_ORIENT	n/a	n/a	4	6	TEA	SPONGE	TEA	SPONGE	3	[0, 0, 0]	-999	PAL1	2	R1185N
611.392	5.034	787844	STUDY_PAIR	n/a	wordpools/wordpool_EN.txt	4	6	TEA	SPONGE	TEA	SPONGE	3	[0, 0, 0]	-999	PAL1	2	R1185N
616.426	0.884	792877	STUDY_ORIENT	n/a	n/a	5	1	WORLD	CAGE	WORLD	CAGE	3	[0, 0, 0]	-999	PAL1	2	R1185N
617.31	5.034	793761	STUDY_PAIR	n/a	wordpools/wordpool_EN.txt	5	1	WORLD	CAGE	WORLD	CAGE	3	[0, 0, 0]	-999	PAL1	2	R1185N
622.344	0.883	798795	STUDY_ORIENT	n/a	n/a	6	2	TANK	TOAST	TANK	TOAST	3	[0, 0, 0]	-999	PAL1	2	R1185N
623.227	4.001	799678	STUDY_PAIR	n/a	wordpools/wordpool_EN.txt	6	2	TANK	TOAST	TANK	TOAST	3	[0, 0, 0]	-999	PAL1	2	R1185N
627.228	1.0	803679	START	n/a	n/a	-999	-999	n/a	n/a	n/a	n/a	3	[-999, -999, -999]	-999	PAL1	2	R1185N
628.228	0.017	804679	MATH_START	n/a	n/a	-999	-999	n/a	n/a	n/a	n/a	3	[0, 0, 0]	-999	PAL1	2	R1185N
628.245	2.934	804696	PROB	2905	n/a	-999	-999	n/a	n/a	n/a	n/a	3	[5, 1, 5]	11	PAL1	2	R1185N
631.179	10.168	807630	PROB	10139	n/a	-999	-999	n/a	n/a	n/a	n/a	3	[9, 4, 2]	15	PAL1	2	R1185N
641.347	7.531	817797	PROB	7531	n/a	-999	-999	n/a	n/a	n/a	n/a	3	[6, 6, 7]	19	PAL1	2	R1185N
648.878	0.003	825328	STOP	n/a	n/a	-999	-999	n/a	n/a	n/a	n/a	3	[-999, -999, -999]	-999	PAL1	2	R1185N
648.881	0.0	825331	MATH_END	n/a	n/a	-999	-999	n/a	n/a	n/a	n/a	3	[0, 0, 0]	-999	PAL1	2	R1185N
648.881	0.017	825331	TEST_START	n/a	n/a	-999	-999	n/a	n/a	n/a	n/a	3	[0, 0, 0]	-999	PAL1	2	R1185N
648.898	0.95	825348	TEST_ORIENT	n/a	n/a	5	1	WORLD	CAGE	WORLD	CAGE	3	[0, 0, 0]	-999	PAL1	2	R1185N
649.848	0.001	826298	TEST_PROBE	n/a	wordpools/wordpool_EN.txt	5	1	WORLD	CAGE	WORLD	CAGE	3	[0, 0, 0]	-999	PAL1	2	R1185N
649.849	1.168	826299	REC_START	n/a	n/a	5	-999	n/a	CAGE	n/a	n/a	3	[0, 0, 0]	-999	PAL1	2	R1185N
651.017	3.84	827467	REC_EVENT	1168	n/a	5	1	WORLD	CAGE	WORLD	CAGE	3	[0, 0, 0]	-999	PAL1	2	R1185N
654.857	0.009	831307	REC_END	n/a	n/a	5	-999	n/a	n/a	n/a	n/a	3	[0, 0, 0]	-999	PAL1	2	R1185N
654.866	0.832	831316	TEST_ORIENT	n/a	n/a	6	2	TANK	TOAST	TANK	TOAST	3	[0, 0, 0]	-999	PAL1	2	R1185N
655.698	0.001	832148	TEST_PROBE	n/a	wordpools/wordpool_EN.txt	6	2	TANK	TOAST	TANK	TOAST	3	[0, 0, 0]	-999	PAL1	2	R1185N
655.699	1.25	832149	REC_START	n/a	n/a	6	-999	n/a	TOAST	n/a	n/a	3	[0, 0, 0]	-999	PAL1	2	R1185N
656.949	3.758	833399	REC_EVENT	1250	n/a	6	2	TANK	TOAST	TANK	TOAST	3	[0, 0, 0]	-999	PAL1	2	R1185N
660.707	0.01	837157	REC_END	n/a	n/a	6	-999	n/a	n/a	n/a	n/a	3	[0, 0, 0]	-999	PAL1	2	R1185N
660.717	0.899	837167	TEST_ORIENT	n/a	n/a	3	3	RICE	JUICE	JUICE	RICE	3	[0, 0, 0]	-999	PAL1	2	R1185N
661.616	0.001	838066	TEST_PROBE	n/a	wordpools/wordpool_EN.txt	3	3	RICE	JUICE	JUICE	RICE	3	[0, 0, 0]	-999	PAL1	2	R1185N
661.617	1.849	838067	REC_START	n/a	n/a	3	-999	n/a	JUICE	n/a	n/a	3	[0, 0, 0]	-999	PAL1	2	R1185N
663.466	3.167	839916	REC_EVENT	1849	n/a	3	3	RICE	JUICE	JUICE	RICE	3	[0, 0, 0]	-999	PAL1	2	R1185N
666.633	0.017	843082	REC_END	n/a	n/a	3	-999	n/a	n/a	n/a	n/a	3	[0, 0, 0]	-999	PAL1	2	R1185N
666.65	0.967	843099	TEST_ORIENT	n/a	n/a	2	4	SHEET	WORM	WORM	SHEET	3	[0, 0, 0]	-999	PAL1	2	R1185N
667.617	0.0	844066	TEST_PROBE	n/a	wordpools/wordpool_EN.txt	2	4	SHEET	WORM	WORM	SHEET	3	[0, 0, 0]	-999	PAL1	2	R1185N
667.617	2.844	844066	REC_START	n/a	n/a	2	-999	n/a	WORM	n/a	n/a	3	[0, 0, 0]	-999	PAL1	2	R1185N
670.461	2.173	846910	REC_EVENT	2844	n/a	2	4	SHEET	WORM	WORM	SHEET	3	[0, 0, 0]	-999	PAL1	2	R1185N
672.634	0.017	849083	REC_END	n/a	n/a	2	-999	n/a	n/a	n/a	n/a	3	[0, 0, 0]	-999	PAL1	2	R1185N
672.651	0.984	849100	TEST_ORIENT	n/a	n/a	1	5	BAND	TOOTH	BAND	TOOTH	3	[0, 0, 0]	-999	PAL1	2	R1185N
673.635	0.0	850084	TEST_PROBE	n/a	wordpools/wordpool_EN.txt	1	5	BAND	TOOTH	BAND	TOOTH	3	[0, 0, 0]	-999	PAL1	2	R1185N
673.635	1.296	850084	REC_START	n/a	n/a	1	-999	n/a	TOOTH	n/a	n/a	3	[0, 0, 0]	-999	PAL1	2	R1185N
674.931	3.721	851380	REC_EVENT	1296	n/a	1	5	BAND	TOOTH	BAND	TOOTH	3	[0, 0, 0]	-999	PAL1	2	R1185N
678.652	0.017	855101	REC_END	n/a	n/a	1	-999	n/a	n/a	n/a	n/a	3	[0, 0, 0]	-999	PAL1	2	R1185N
678.669	0.934	855118	TEST_ORIENT	n/a	n/a	4	6	TEA	SPONGE	TEA	SPONGE	3	[0, 0, 0]	-999	PAL1	2	R1185N
679.603	0.0	856052	TEST_PROBE	n/a	wordpools/wordpool_EN.txt	4	6	TEA	SPONGE	TEA	SPONGE	3	[0, 0, 0]	-999	PAL1	2	R1185N
679.603	1.238	856052	REC_START	n/a	n/a	4	-999	n/a	SPONGE	n/a	n/a	3	[0, 0, 0]	-999	PAL1	2	R1185N
680.841	3.779	857290	REC_EVENT	1238	n/a	4	6	TEA	SPONGE	TEA	SPONGE	3	[0, 0, 0]	-999	PAL1	2	R1185N
684.62	2.258	861069	REC_END	n/a	n/a	4	-999	n/a	n/a	n/a	n/a	3	[0, 0, 0]	-999	PAL1	2	R1185N
686.878	10.445	863327	ENCODING_START	n/a	n/a	0	-999	n/a	n/a	n/a	n/a	4	[0, 0, 0]	-999	PAL1	2	R1185N
697.323	0.934	873771	STUDY_ORIENT	n/a	n/a	1	3	DITCH	BAG	DITCH	BAG	4	[0, 0, 0]	-999	PAL1	2	R1185N
698.257	5.034	874705	STUDY_PAIR	n/a	wordpools/wordpool_EN.txt	1	3	DITCH	BAG	DITCH	BAG	4	[0, 0, 0]	-999	PAL1	2	R1185N
703.291	0.833	879739	STUDY_ORIENT	n/a	n/a	2	4	FORT	DOLL	FORT	DOLL	4	[0, 0, 0]	-999	PAL1	2	R1185N
704.124	5.018	880572	STUDY_PAIR	n/a	wordpools/wordpool_EN.txt	2	4	FORT	DOLL	FORT	DOLL	4	[0, 0, 0]	-999	PAL1	2	R1185N
709.142	0.9	885590	STUDY_ORIENT	n/a	n/a	3	1	FOAM	SPEAR	SPEAR	FOAM	4	[0, 0, 0]	-999	PAL1	2	R1185N
710.042	5.034	886490	STUDY_PAIR	n/a	wordpools/wordpool_EN.txt	3	1	FOAM	SPEAR	SPEAR	FOAM	4	[0, 0, 0]	-999	PAL1	2	R1185N
715.076	0.8	891524	STUDY_ORIENT	n/a	n/a	4	6	CUP	n/a	STEM	CUP	4	[0, 0, 0]	-999	PAL1	2	R1185N
715.876	5.018	892324	STUDY_PAIR	n/a	wordpools/wordpool_EN.txt	4	6	CUP	n/a	STEM	CUP	4	[0, 0, 0]	-999	PAL1	2	R1185N
720.894	0.9	897341	STUDY_ORIENT	n/a	n/a	5	5	FOOT	ROSE	ROSE	FOOT	4	[0, 0, 0]	-999	PAL1	2	R1185N
721.794	5.034	898241	STUDY_PAIR	n/a	wordpools/wordpool_EN.txt	5	5	FOOT	ROSE	ROSE	FOOT	4	[0, 0, 0]	-999	PAL1	2	R1185N
726.828	0.882	903275	STUDY_ORIENT	n/a	n/a	6	2	KEY	n/a	FRUIT	KEY	4	[0, 0, 0]	-999	PAL1	2	R1185N
727.71	4.002	904157	STUDY_PAIR	n/a	wordpools/wordpool_EN.txt	6	2	KEY	n/a	FRUIT	KEY	4	[0, 0, 0]	-999	PAL1	2	R1185N
731.712	0.999	908159	START	n/a	n/a	-999	-999	n/a	n/a	n/a	n/a	4	[-999, -999, -999]	-999	PAL1	2	R1185N
732.711	0.018	909158	MATH_START	n/a	n/a	-999	-999	n/a	n/a	n/a	n/a	4	[0, 0, 0]	-999	PAL1	2	R1185N
732.729	10.285	909176	PROB	10261	n/a	-999	-999	n/a	n/a	n/a	n/a	4	[6, 8, 7]	21	PAL1	2	R1185N
743.014	7.584	919461	PROB	7559	n/a	-999	-999	n/a	n/a	n/a	n/a	4	[8, 6, 8]	22	PAL1	2	R1185N
750.598	7.951	927044	PROB	7951	n/a	-999	-999	n/a	n/a	n/a	n/a	4	[2, 8, 8]	18	PAL1	2	R1185N
758.549	0.017	934995	STOP	n/a	n/a	-999	-999	n/a	n/a	n/a	n/a	4	[-999, -999, -999]	-999	PAL1	2	R1185N
758.566	0.0	935012	MATH_END	n/a	n/a	-999	-999	n/a	n/a	n/a	n/a	4	[0, 0, 0]	-999	PAL1	2	R1185N
758.566	0.016	935012	TEST_START	n/a	n/a	-999	-999	n/a	n/a	n/a	n/a	4	[0, 0, 0]	-999	PAL1	2	R1185N
758.582	0.868	935028	TEST_ORIENT	n/a	n/a	3	1	FOAM	SPEAR	SPEAR	FOAM	4	[0, 0, 0]	-999	PAL1	2	R1185N
759.45	0.001	935896	TEST_PROBE	n/a	wordpools/wordpool_EN.txt	3	1	FOAM	SPEAR	SPEAR	FOAM	4	[0, 0, 0]	-999	PAL1	2	R1185N
759.451	1.416	935897	REC_START	n/a	n/a	3	-999	n/a	SPEAR	n/a	n/a	4	[0, 0, 0]	-999	PAL1	2	R1185N
760.867	3.592	937313	REC_EVENT	1416	n/a	3	1	FOAM	SPEAR	SPEAR	FOAM	4	[0, 0, 0]	-999	PAL1	2	R1185N
764.459	0.009	940905	REC_END	n/a	n/a	3	-999	n/a	n/a	n/a	n/a	4	[0, 0, 0]	-999	PAL1	2	R1185N
764.468	0.867	940914	TEST_ORIENT	n/a	n/a	6	2	KEY	n/a	FRUIT	KEY	4	[0, 0, 0]	-999	PAL1	2	R1185N
765.335	0.0	941781	TEST_PROBE	n/a	wordpools/wordpool_EN.txt	6	2	KEY	n/a	FRUIT	KEY	4	[0, 0, 0]	-999	PAL1	2	R1185N
765.335	5.015	941781	REC_START	n/a	n/a	6	-999	n/a	n/a	n/a	n/a	4	[0, 0, 0]	-999	PAL1	2	R1185N
770.35	0.002	946796	REC_EVENT	5015	n/a	6	2	KEY	<>	FRUIT	KEY	4	[0, 0, 0]	-999	PAL1	2	R1185N
770.352	0.017	946798	REC_END	n/a	n/a	6	-999	n/a	n/a	n/a	n/a	4	[0, 0, 0]	-999	PAL1	2	R1185N
770.369	0.817	946815	TEST_ORIENT	n/a	n/a	1	3	DITCH	BAG	DITCH	BAG	4	[0, 0, 0]	-999	PAL1	2	R1185N
771.186	0.0	947632	TEST_PROBE	n/a	wordpools/wordpool_EN.txt	1	3	DITCH	BAG	DITCH	BAG	4	[0, 0, 0]	-999	PAL1	2	R1185N
771.186	1.313	947632	REC_START	n/a	n/a	1	-999	n/a	BAG	n/a	n/a	4	[0, 0, 0]	-999	PAL1	2	R1185N
772.499	3.704	948945	REC_EVENT	1313	n/a	1	3	DITCH	BAG	DITCH	BAG	4	[0, 0, 0]	-999	PAL1	2	R1185N
776.203	0.017	952648	REC_END	n/a	n/a	1	-999	n/a	n/a	n/a	n/a	4	[0, 0, 0]	-999	PAL1	2	R1185N
776.22	0.883	952665	TEST_ORIENT	n/a	n/a	2	4	FORT	DOLL	FORT	DOLL	4	[0, 0, 0]	-999	PAL1	2	R1185N
777.103	0.001	953548	TEST_PROBE	n/a	wordpools/wordpool_EN.txt	2	4	FORT	DOLL	FORT	DOLL	4	[0, 0, 0]	-999	PAL1	2	R1185N
777.104	3.37	953549	REC_START	n/a	n/a	2	-999	n/a	DOLL	n/a	n/a	4	[0, 0, 0]	-999	PAL1	2	R1185N
780.474	1.638	956919	REC_EVENT	3370	n/a	2	4	FORT	DOLL	FORT	DOLL	4	[0, 0, 0]	-999	PAL1	2	R1185N
782.112	0.009	958557	REC_END	n/a	n/a	2	-999	n/a	n/a	n/a	n/a	4	[0, 0, 0]	-999	PAL1	2	R1185N
782.121	1.0	958566	TEST_ORIENT	n/a	n/a	5	5	FOOT	ROSE	ROSE	FOOT	4	[0, 0, 0]	-999	PAL1	2	R1185N
783.121	0.001	959566	TEST_PROBE	n/a	wordpools/wordpool_EN.txt	5	5	FOOT	ROSE	ROSE	FOOT	4	[0, 0, 0]	-999	PAL1	2	R1185N
783.122	1.705	959567	REC_START	n/a	n/a	5	-999	n/a	ROSE	n/a	n/a	4	[0, 0, 0]	-999	PAL1	2	R1185N
784.827	3.311	961272	REC_EVENT	1705	n/a	5	5	FOOT	ROSE	ROSE	FOOT	4	[0, 0, 0]	-999	PAL1	2	R1185N
788.138	0.017	964583	REC_END	n/a	n/a	5	-999	n/a	n/a	n/a	n/a	4	[0, 0, 0]	-999	PAL1	2	R1185N
788.155	0.967	964600	TEST_ORIENT	n/a	n/a	4	6	CUP	n/a	STEM	CUP	4	[0, 0, 0]	-999	PAL1	2	R1185N
789.122	0.0	965567	TEST_PROBE	n/a	wordpools/wordpool_EN.txt	4	6	CUP	n/a	STEM	CUP	4	[0, 0, 0]	-999	PAL1	2	R1185N
789.122	5.017	965567	REC_START	n/a	n/a	4	-999	n/a	n/a	n/a	n/a	4	[0, 0, 0]	-999	PAL1	2	R1185N
794.139	0.004	970584	REC_END	n/a	n/a	4	-999	n/a	n/a	n/a	n/a	4	[0, 0, 0]	-999	PAL1	2	R1185N
794.143	1.991	970588	REC_EVENT	5021	n/a	4	6	CUP	<>	STEM	CUP	4	[0, 0, 0]	-999	PAL1	2	R1185N
796.134	10.44	972579	ENCODING_START	n/a	n/a	0	-999	n/a	n/a	n/a	n/a	5	[0, 0, 0]	-999	PAL1	2	R1185N
806.574	0.95	983018	STUDY_ORIENT	n/a	n/a	1	5	ROOT	FORK	ROOT	FORK	5	[0, 0, 0]	-999	PAL1	2	R1185N
807.524	5.034	983968	STUDY_PAIR	n/a	wordpools/wordpool_EN.txt	1	5	ROOT	FORK	ROOT	FORK	5	[0, 0, 0]	-999	PAL1	2	R1185N
812.558	0.984	989002	STUDY_ORIENT	n/a	n/a	2	4	FLAG	FLAME	FLAME	FLAG	5	[0, 0, 0]	-999	PAL1	2	R1185N
813.542	5.034	989986	STUDY_PAIR	n/a	wordpools/wordpool_EN.txt	2	4	FLAG	FLAME	FLAME	FLAG	5	[0, 0, 0]	-999	PAL1	2	R1185N
818.576	0.835	995020	STUDY_ORIENT	n/a	n/a	3	1	BROOM	PIPE	PIPE	BROOM	5	[0, 0, 0]	-999	PAL1	2	R1185N
819.411	5.034	995855	STUDY_PAIR	n/a	wordpools/wordpool_EN.txt	3	1	BROOM	PIPE	PIPE	BROOM	5	[0, 0, 0]	-999	PAL1	2	R1185N
824.445	0.95	1000889	STUDY_ORIENT	n/a	n/a	4	6	SQUARE	HEART	SQUARE	HEART	5	[0, 0, 0]	-999	PAL1	2	R1185N
825.395	5.034	1001839	STUDY_PAIR	n/a	wordpools/wordpool_EN.txt	4	6	SQUARE	HEART	SQUARE	HEART	5	[0, 0, 0]	-999	PAL1	2	R1185N
830.429	0.883	1006872	STUDY_ORIENT	n/a	n/a	5	3	STICK	HOOF	STICK	HOOF	5	[0, 0, 0]	-999	PAL1	2	R1185N
831.312	5.018	1007755	STUDY_PAIR	n/a	wordpools/wordpool_EN.txt	5	3	STICK	HOOF	STICK	HOOF	5	[0, 0, 0]	-999	PAL1	2	R1185N
836.33	0.8	1012773	STUDY_ORIENT	n/a	n/a	6	2	SPARK	n/a	SPARK	BEAN	5	[0, 0, 0]	-999	PAL1	2	R1185N
837.13	4.018	1013573	STUDY_PAIR	n/a	wordpools/wordpool_EN.txt	6	2	SPARK	n/a	SPARK	BEAN	5	[0, 0, 0]	-999	PAL1	2	R1185N
841.148	0.999	1017591	START	n/a	n/a	-999	-999	n/a	n/a	n/a	n/a	5	[-999, -999, -999]	-999	PAL1	2	R1185N
842.147	0.017	1018590	MATH_START	n/a	n/a	-999	-999	n/a	n/a	n/a	n/a	5	[0, 0, 0]	-999	PAL1	2	R1185N
842.164	6.251	1018607	PROB	6226	n/a	-999	-999	n/a	n/a	n/a	n/a	5	[3, 8, 7]	18	PAL1	2	R1185N
848.415	7.15	1024858	PROB	7118	n/a	-999	-999	n/a	n/a	n/a	n/a	5	[3, 8, 9]	20	PAL1	2	R1185N
855.565	5.135	1032007	PROB	5112	n/a	-999	-999	n/a	n/a	n/a	n/a	5	[8, 2, 7]	17	PAL1	2	R1185N
860.7	3.578	1037142	PROB	3578	n/a	-999	-999	n/a	n/a	n/a	n/a	5	[4, 6, 7]	17	PAL1	2	R1185N
864.278	0.007	1040720	STOP	n/a	n/a	-999	-999	n/a	n/a	n/a	n/a	5	[-999, -999, -999]	-999	PAL1	2	R1185N
864.285	0.0	1040727	MATH_END	n/a	n/a	-999	-999	n/a	n/a	n/a	n/a	5	[0, 0, 0]	-999	PAL1	2	R1185N
864.285	0.016	1040727	TEST_START	n/a	n/a	-999	-999	n/a	n/a	n/a	n/a	5	[0, 0, 0]	-999	PAL1	2	R1185N
864.301	0.867	1040743	TEST_ORIENT	n/a	n/a	3	1	BROOM	PIPE	PIPE	BROOM	5	[0, 0, 0]	-999	PAL1	2	R1185N
865.168	0.001	1041610	TEST_PROBE	n/a	wordpools/wordpool_EN.txt	3	1	BROOM	PIPE	PIPE	BROOM	5	[0, 0, 0]	-999	PAL1	2	R1185N
865.169	2.142	1041611	REC_START	n/a	n/a	3	-999	n/a	PIPE	n/a	n/a	5	[0, 0, 0]	-999	PAL1	2	R1185N
867.311	2.866	1043753	REC_EVENT	2142	n/a	3	1	BROOM	PIPE	PIPE	BROOM	5	[0, 0, 0]	-999	PAL1	2	R1185N
870.177	0.009	1046619	REC_END	n/a	n/a	3	-999	n/a	n/a	n/a	n/a	5	[0, 0, 0]	-999	PAL1	2	R1185N
870.186	1.017	1046628	TEST_ORIENT	n/a	n/a	6	2	SPARK	n/a	SPARK	BEAN	5	[0, 0, 0]	-999	PAL1	2	R1185N
871.203	0.0	1047645	TEST_PROBE	n/a	wordpools/wordpool_EN.txt	6	2	SPARK	n/a	SPARK	BEAN	5	[0, 0, 0]	-999	PAL1	2	R1185N
871.203	5.015	1047645	REC_START	n/a	n/a	6	-999	n/a	n/a	n/a	n/a	5	[0, 0, 0]	-999	PAL1	2	R1185N
876.218	0.002	1052660	REC_EVENT	5015	n/a	6	2	SPARK	<>	SPARK	BEAN	5	[0, 0, 0]	-999	PAL1	2	R1185N
876.22	0.017	1052662	REC_END	n/a	n/a	6	-999	n/a	n/a	n/a	n/a	5	[0, 0, 0]	-999	PAL1	2	R1185N
876.237	0.933	1052679	TEST_ORIENT	n/a	n/a	5	3	STICK	HOOF	STICK	HOOF	5	[0, 0, 0]	-999	PAL1	2	R1185N
877.17	0.002	1053612	TEST_PROBE	n/a	wordpools/wordpool_EN.txt	5	3	STICK	HOOF	STICK	HOOF	5	[0, 0, 0]	-999	PAL1	2	R1185N
877.172	2.879	1053614	REC_START	n/a	n/a	5	-999	n/a	HOOF	n/a	n/a	5	[0, 0, 0]	-999	PAL1	2	R1185N
880.051	2.12	1056492	REC_EVENT	2879	n/a	5	3	STICK	HOOF	STICK	HOOF	5	[0, 0, 0]	-999	PAL1	2	R1185N
882.171	0.017	1058612	REC_END	n/a	n/a	5	-999	n/a	n/a	n/a	n/a	5	[0, 0, 0]	-999	PAL1	2	R1185N
882.188	0.85	1058629	TEST_ORIENT	n/a	n/a	2	4	FLAG	FLAME	FLAME	FLAG	5	[0, 0, 0]	-999	PAL1	2	R1185N
883.038	0.0	1059479	TEST_PROBE	n/a	wordpools/wordpool_EN.txt	2	4	FLAG	FLAME	FLAME	FLAG	5	[0, 0, 0]	-999	PAL1	2	R1185N
883.038	1.882	1059479	REC_START	n/a	n/a	2	-999	n/a	FLAME	n/a	n/a	5	[0, 0, 0]	-999	PAL1	2	R1185N
884.92	3.135	1061361	REC_EVENT	1882	n/a	2	4	FLAG	FLAME	FLAME	FLAG	5	[0, 0, 0]	-999	PAL1	2	R1185N
888.055	0.017	1064496	REC_END	n/a	n/a	2	-999	n/a	n/a	n/a	n/a	5	[0, 0, 0]	-999	PAL1	2	R1185N
888.072	1.0	1064513	TEST_ORIENT	n/a	n/a	1	5	ROOT	FORK	ROOT	FORK	5	[0, 0, 0]	-999	PAL1	2	R1185N
889.072	0.001	1065513	TEST_PROBE	n/a	wordpools/wordpool_EN.txt	1	5	ROOT	FORK	ROOT	FORK	5	[0, 0, 0]	-999	PAL1	2	R1185N
889.073	1.766	1065514	REC_START	n/a	n/a	1	-999	n/a	FORK	n/a	n/a	5	[0, 0, 0]	-999	PAL1	2	R1185N
890.839	3.242	1067280	REC_EVENT	1766	n/a	1	5	ROOT	FORK	ROOT	FORK	5	[0, 0, 0]	-999	PAL1	2	R1185N
894.081	0.009	1070522	REC_END	n/a	n/a	1	-999	n/a	n/a	n/a	n/a	5	[0, 0, 0]	-999	PAL1	2	R1185N
894.09	0.95	1070531	TEST_ORIENT	n/a	n/a	4	6	SQUARE	HEART	SQUARE	HEART	5	[0, 0, 0]	-999	PAL1	2	R1185N
895.04	0.0	1071481	TEST_PROBE	n/a	wordpools/wordpool_EN.txt	4	6	SQUARE	HEART	SQUARE	HEART	5	[0, 0, 0]	-999	PAL1	2	R1185N
895.04	1.179	1071481	REC_START	n/a	n/a	4	-999	n/a	HEART	n/a	n/a	5	[0, 0, 0]	-999	PAL1	2	R1185N
896.219	3.838	1072660	REC_EVENT	1179	n/a	4	6	SQUARE	HEART	SQUARE	HEART	5	[0, 0, 0]	-999	PAL1	2	R1185N
900.057	2.492	1076498	REC_END	n/a	n/a	4	-999	n/a	n/a	n/a	n/a	5	[0, 0, 0]	-999	PAL1	2	R1185N
902.549	10.444	1078990	ENCODING_START	n/a	n/a	0	-999	n/a	n/a	n/a	n/a	6	[0, 0, 0]	-999	PAL1	2	R1185N
912.993	0.984	1089433	STUDY_ORIENT	n/a	n/a	1	5	MULE	n/a	MULE	WAVE	6	[0, 0, 0]	-999	PAL1	2	R1185N
913.977	5.034	1090417	STUDY_PAIR	n/a	wordpools/wordpool_EN.txt	1	5	MULE	n/a	MULE	WAVE	6	[0, 0, 0]	-999	PAL1	2	R1185N
919.011	1.017	1095451	STUDY_ORIENT	n/a	n/a	2	4	SCHOOL	BEE	BEE	SCHOOL	6	[0, 0, 0]	-999	PAL1	2	R1185N
920.028	5.034	1096468	STUDY_PAIR	n/a	wordpools/wordpool_EN.txt	2	4	SCHOOL	BEE	BEE	SCHOOL	6	[0, 0, 0]	-999	PAL1	2	R1185N
925.062	0.983	1101502	STUDY_ORIENT	n/a	n/a	3	3	MAT	STRAW	MAT	STRAW	6	[0, 0, 0]	-999	PAL1	2	R1185N
926.045	5.018	1102485	STUDY_PAIR	n/a	wordpools/wordpool_EN.txt	3	3	MAT	STRAW	MAT	STRAW	6	[0, 0, 0]	-999	PAL1	2	R1185N
931.063	0.816	1107503	STUDY_ORIENT	n/a	n/a	4	2	COUCH	OWL	COUCH	OWL	6	[0, 0, 0]	-999	PAL1	2	R1185N
931.879	5.018	1108319	STUDY_PAIR	n/a	wordpools/wordpool_EN.txt	4	2	COUCH	OWL	COUCH	OWL	6	[0, 0, 0]	-999	PAL1	2	R1185N
936.897	0.967	1113336	STUDY_ORIENT	n/a	n/a	5	1	SMILE	n/a	SMILE	ROPE	6	[0, 0, 0]	-999	PAL1	2	R1185N
937.864	5.034	1114303	STUDY_PAIR	n/a	wordpools/wordpool_EN.txt	5	1	SMILE	n/a	SMILE	ROPE	6	[0, 0, 0]	-999	PAL1	2	R1185N
942.898	1.0	1119337	STUDY_ORIENT	n/a	n/a	6	6	SOCK	n/a	SOCK	SMOKE	6	[0, 0, 0]	-999	PAL1	2	R1185N
943.898	4.001	1120337	STUDY_PAIR	n/a	wordpools/wordpool_EN.txt	6	6	SOCK	n/a	SOCK	SMOKE	6	[0, 0, 0]	-999	PAL1	2	R1185N
947.899	1.0	1124338	START	n/a	n/a	-999	-999	n/a	n/a	n/a	n/a	6	[-999, -999, -999]	-999	PAL1	2	R1185N
948.899	0.017	1125338	MATH_START	n/a	n/a	-999	-999	n/a	n/a	n/a	n/a	6	[0, 0, 0]	-999	PAL1	2	R1185N
948.916	5.616	1125355	PROB	5585	n/a	-999	-999	n/a	n/a	n/a	n/a	6	[7, 1, 8]	16	PAL1	2	R1185N
954.532	3.802	1130971	PROB	3770	n/a	-999	-999	n/a	n/a	n/a	n/a	6	[2, 3, 3]	6	PAL1	2	R1185N
958.334	7.535	1134773	PROB	7504	n/a	-999	-999	n/a	n/a	n/a	n/a	6	[3, 5, 2]	10	PAL1	2	R1185N
965.869	7.688	1142307	PROB	7688	n/a	-999	-999	n/a	n/a	n/a	n/a	6	[2, 7, 7]	16	PAL1	2	R1185N
973.557	0.012	1149995	STOP	n/a	n/a	-999	-999	n/a	n/a	n/a	n/a	6	[-999, -999, -999]	-999	PAL1	2	R1185N
973.569	0.0	1150007	MATH_END	n/a	n/a	-999	-999	n/a	n/a	n/a	n/a	6	[0, 0, 0]	-999	PAL1	2	R1185N
973.569	0.016	1150007	TEST_START	n/a	n/a	-999	-999	n/a	n/a	n/a	n/a	6	[0, 0, 0]	-999	PAL1	2	R1185N
973.585	0.885	1150023	TEST_ORIENT	n/a	n/a	5	1	SMILE	n/a	SMILE	ROPE	6	[0, 0, 0]	-999	PAL1	2	R1185N
974.47	0.0	1150908	TEST_PROBE	n/a	wordpools/wordpool_EN.txt	5	1	SMILE	n/a	SMILE	ROPE	6	[0, 0, 0]	-999	PAL1	2	R1185N
974.47	5.015	1150908	REC_START	n/a	n/a	5	-999	n/a	n/a	n/a	n/a	6	[0, 0, 0]	-999	PAL1	2	R1185N
979.485	0.002	1155923	REC_EVENT	5015	n/a	5	1	SMILE	<>	SMILE	ROPE	6	[0, 0, 0]	-999	PAL1	2	R1185N
979.487	0.016	1155925	REC_END	n/a	n/a	5	-999	n/a	n/a	n/a	n/a	6	[0, 0, 0]	-999	PAL1	2	R1185N
979.503	0.901	1155941	TEST_ORIENT	n/a	n/a	4	2	COUCH	OWL	COUCH	OWL	6	[0, 0, 0]	-999	PAL1	2	R1185N
980.404	0.001	1156842	TEST_PROBE	n/a	wordpools/wordpool_EN.txt	4	2	COUCH	OWL	COUCH	OWL	6	[0, 0, 0]	-999	PAL1	2	R1185N
980.405	1.298	1156843	REC_START	n/a	n/a	4	-999	n/a	OWL	n/a	n/a	6	[0, 0, 0]	-999	PAL1	2	R1185N
981.703	3.712	1158141	REC_EVENT	1298	n/a	4	2	COUCH	OWL	COUCH	OWL	6	[0, 0, 0]	-999	PAL1	2	R1185N
985.415	0.007	1161853	REC_END	n/a	n/a	4	-999	n/a	n/a	n/a	n/a	6	[0, 0, 0]	-999	PAL1	2	R1185N
985.422	0.883	1161860	TEST_ORIENT	n/a	n/a	3	3	MAT	STRAW	MAT	STRAW	6	[0, 0, 0]	-999	PAL1	2	R1185N
986.305	0.001	1162742	TEST_PROBE	n/a	wordpools/wordpool_EN.txt	3	3	MAT	STRAW	MAT	STRAW	6	[0, 0, 0]	-999	PAL1	2	R1185N
986.306	1.257	1162743	REC_START	n/a	n/a	3	-999	n/a	STRAW	n/a	n/a	6	[0, 0, 0]	-999	PAL1	2	R1185N
987.563	3.752	1164000	REC_EVENT	1257	n/a	3	3	MAT	STRAW	MAT	STRAW	6	[0, 0, 0]	-999	PAL1	2	R1185N
991.315	0.008	1167752	REC_END	n/a	n/a	3	-999	n/a	n/a	n/a	n/a	6	[0, 0, 0]	-999	PAL1	2	R1185N
991.323	0.933	1167760	TEST_ORIENT	n/a	n/a	2	4	SCHOOL	BEE	BEE	SCHOOL	6	[0, 0, 0]	-999	PAL1	2	R1185N
992.256	0.001	1168693	TEST_PROBE	n/a	wordpools/wordpool_EN.txt	2	4	SCHOOL	BEE	BEE	SCHOOL	6	[0, 0, 0]	-999	PAL1	2	R1185N
992.257	1.203	1168694	REC_START	n/a	n/a	2	-999	n/a	BEE	n/a	n/a	6	[0, 0, 0]	-999	PAL1	2	R1185N
993.46	3.807	1169897	REC_EVENT	1203	n/a	2	4	SCHOOL	BEE	BEE	SCHOOL	6	[0, 0, 0]	-999	PAL1	2	R1185N
997.267	0.007	1173704	REC_END	n/a	n/a	2	-999	n/a	n/a	n/a	n/a	6	[0, 0, 0]	-999	PAL1	2	R1185N
997.274	0.817	1173711	TEST_ORIENT	n/a	n/a	1	5	MULE	n/a	MULE	WAVE	6	[0, 0, 0]	-999	PAL1	2	R1185N
998.091	0.0	1174528	REC_START	n/a	n/a	1	-999	n/a	n/a	n/a	n/a	6	[0, 0, 0]	-999	PAL1	2	R1185N
998.091	5.015	1174528	TEST_PROBE	n/a	wordpools/wordpool_EN.txt	1	5	MULE	n/a	MULE	WAVE	6	[0, 0, 0]	-999	PAL1	2	R1185N
1003.106	0.002	1179543	REC_EVENT	5015	n/a	1	5	MULE	<>	MULE	WAVE	6	[0, 0, 0]	-999	PAL1	2	R1185N
1003.108	0.017	1179545	REC_END	n/a	n/a	1	-999	n/a	n/a	n/a	n/a	6	[0, 0, 0]	-999	PAL1	2	R1185N
1003.125	1.0	1179562	TEST_ORIENT	n/a	n/a	6	6	SOCK	n/a	SOCK	SMOKE	6	[0, 0, 0]	-999	PAL1	2	R1185N
1004.125	0.001	1180562	TEST_PROBE	n/a	wordpools/wordpool_EN.txt	6	6	SOCK	n/a	SOCK	SMOKE	6	[0, 0, 0]	-999	PAL1	2	R1185N
1004.126	5.009	1180563	REC_START	n/a	n/a	6	-999	n/a	n/a	n/a	n/a	6	[0, 0, 0]	-999	PAL1	2	R1185N
1009.135	0.002	1185572	REC_EVENT	5009	n/a	6	6	SOCK	<>	SOCK	SMOKE	6	[0, 0, 0]	-999	PAL1	2	R1185N
1009.137	1.741	1185574	REC_END	n/a	n/a	6	-999	n/a	n/a	n/a	n/a	6	[0, 0, 0]	-999	PAL1	2	R1185N
1010.878	10.45	1187315	ENCODING_START	n/a	n/a	0	-999	n/a	n/a	n/a	n/a	7	[0, 0, 0]	-999	PAL1	2	R1185N
1021.328	1.0	1197764	STUDY_ORIENT	n/a	n/a	1	1	SIGN	BOOT	SIGN	BOOT	7	[0, 0, 0]	-999	PAL1	2	R1185N
1022.328	5.034	1198764	STUDY_PAIR	n/a	wordpools/wordpool_EN.txt	1	1	SIGN	BOOT	SIGN	BOOT	7	[0, 0, 0]	-999	PAL1	2	R1185N
1027.362	1.017	1203798	STUDY_ORIENT	n/a	n/a	2	2	SNAKE	n/a	FOOD	SNAKE	7	[0, 0, 0]	-999	PAL1	2	R1185N
1028.379	5.018	1204815	STUDY_PAIR	n/a	wordpools/wordpool_EN.txt	2	2	SNAKE	n/a	FOOD	SNAKE	7	[0, 0, 0]	-999	PAL1	2	R1185N
1033.397	1.0	1209833	STUDY_ORIENT	n/a	n/a	3	3	PRINCE	n/a	PHONE	PRINCE	7	[0, 0, 0]	-999	PAL1	2	R1185N
1034.397	5.034	1210833	STUDY_PAIR	n/a	wordpools/wordpool_EN.txt	3	3	PRINCE	n/a	PHONE	PRINCE	7	[0, 0, 0]	-999	PAL1	2	R1185N
1039.431	0.967	1215866	STUDY_ORIENT	n/a	n/a	4	4	COIN	BOWL	BOWL	COIN	7	[0, 0, 0]	-999	PAL1	2	R1185N
1040.398	5.034	1216833	STUDY_PAIR	n/a	wordpools/wordpool_EN.txt	4	4	COIN	BOWL	BOWL	COIN	7	[0, 0, 0]	-999	PAL1	2	R1185N
1045.432	0.833	1221867	STUDY_ORIENT	n/a	n/a	5	5	SNAIL	SUN	SNAIL	SUN	7	[0, 0, 0]	-999	PAL1	2	R1185N
1046.265	5.018	1222700	STUDY_PAIR	n/a	wordpools/wordpool_EN.txt	5	5	SNAIL	SUN	SNAIL	SUN	7	[0, 0, 0]	-999	PAL1	2	R1185N
1051.283	0.85	1227718	STUDY_ORIENT	n/a	n/a	6	6	ARM	DESK	DESK	ARM	7	[0, 0, 0]	-999	PAL1	2	R1185N
1052.133	4.001	1228568	STUDY_PAIR	n/a	wordpools/wordpool_EN.txt	6	6	ARM	DESK	DESK	ARM	7	[0, 0, 0]	-999	PAL1	2	R1185N
1056.134	1.0	1232569	START	n/a	n/a	-999	-999	n/a	n/a	n/a	n/a	7	[-999, -999, -999]	-999	PAL1	2	R1185N
1057.134	0.017	1233569	MATH_START	n/a	n/a	-999	-999	n/a	n/a	n/a	n/a	7	[0, 0, 0]	-999	PAL1	2	R1185N
1057.151	5.217	1233586	PROB	5191	n/a	-999	-999	n/a	n/a	n/a	n/a	7	[7, 8, 1]	16	PAL1	2	R1185N
1062.368	3.951	1238803	PROB	3926	n/a	-999	-999	n/a	n/a	n/a	n/a	7	[7, 3, 7]	17	PAL1	2	R1185N
1066.319	3.0	1242753	PROB	2967	n/a	-999	-999	n/a	n/a	n/a	n/a	7	[6, 8, 2]	16	PAL1	2	R1185N
1069.319	7.919	1245753	PROB	7919	n/a	-999	-999	n/a	n/a	n/a	n/a	7	[2, 6, 5]	13	PAL1	2	R1185N
1077.238	0.016	1253672	STOP	n/a	n/a	-999	-999	n/a	n/a	n/a	n/a	7	[-999, -999, -999]	-999	PAL1	2	R1185N
1077.254	0.0	1253688	MATH_END	n/a	n/a	-999	-999	n/a	n/a	n/a	n/a	7	[0, 0, 0]	-999	PAL1	2	R1185N
1077.254	0.017	1253688	TEST_START	n/a	n/a	-999	-999	n/a	n/a	n/a	n/a	7	[0, 0, 0]	-999	PAL1	2	R1185N
1077.271	1.0	1253705	TEST_ORIENT	n/a	n/a	1	1	SIGN	BOOT	SIGN	BOOT	7	[0, 0, 0]	-999	PAL1	2	R1185N
1078.271	0.0	1254705	TEST_PROBE	n/a	wordpools/wordpool_EN.txt	1	1	SIGN	BOOT	SIGN	BOOT	7	[0, 0, 0]	-999	PAL1	2	R1185N
1078.271	1.895	1254705	REC_START	n/a	n/a	1	-999	n/a	BOOT	n/a	n/a	7	[0, 0, 0]	-999	PAL1	2	R1185N
1080.166	3.122	1256600	REC_EVENT	1895	n/a	1	1	SIGN	BOOT	SIGN	BOOT	7	[0, 0, 0]	-999	PAL1	2	R1185N
1083.288	0.017	1259722	REC_END	n/a	n/a	1	-999	n/a	n/a	n/a	n/a	7	[0, 0, 0]	-999	PAL1	2	R1185N
1083.305	0.984	1259739	TEST_ORIENT	n/a	n/a	2	2	SNAKE	n/a	FOOD	SNAKE	7	[0, 0, 0]	-999	PAL1	2	R1185N
1084.289	0.0	1260723	TEST_PROBE	n/a	wordpools/wordpool_EN.txt	2	2	SNAKE	n/a	FOOD	SNAKE	7	[0, 0, 0]	-999	PAL1	2	R1185N
1084.289	5.015	1260723	REC_START	n/a	n/a	2	-999	n/a	n/a	n/a	n/a	7	[0, 0, 0]	-999	PAL1	2	R1185N
1089.304	0.002	1265738	REC_EVENT	5015	n/a	2	2	SNAKE	<>	FOOD	SNAKE	7	[0, 0, 0]	-999	PAL1	2	R1185N
1089.306	0.017	1265740	REC_END	n/a	n/a	2	-999	n/a	n/a	n/a	n/a	7	[0, 0, 0]	-999	PAL1	2	R1185N
1089.323	0.983	1265757	TEST_ORIENT	n/a	n/a	3	3	PRINCE	n/a	PHONE	PRINCE	7	[0, 0, 0]	-999	PAL1	2	R1185N
1090.306	0.001	1266740	TEST_PROBE	n/a	wordpools/wordpool_EN.txt	3	3	PRINCE	n/a	PHONE	PRINCE	7	[0, 0, 0]	-999	PAL1	2	R1185N
1090.307	5.009	1266741	REC_START	n/a	n/a	3	-999	n/a	n/a	n/a	n/a	7	[0, 0, 0]	-999	PAL1	2	R1185N
1095.316	0.0	1271749	REC_EVENT	5009	n/a	3	3	PRINCE	<>	PHONE	PRINCE	7	[0, 0, 0]	-999	PAL1	2	R1185N
1095.316	0.008	1271749	REC_END	n/a	n/a	3	-999	n/a	n/a	n/a	n/a	7	[0, 0, 0]	-999	PAL1	2	R1185N
1095.324	1.033	1271757	TEST_ORIENT	n/a	n/a	4	4	COIN	BOWL	BOWL	COIN	7	[0, 0, 0]	-999	PAL1	2	R1185N
1096.357	0.001	1272790	TEST_PROBE	n/a	wordpools/wordpool_EN.txt	4	4	COIN	BOWL	BOWL	COIN	7	[0, 0, 0]	-999	PAL1	2	R1185N
1096.358	2.457	1272791	REC_START	n/a	n/a	4	-999	n/a	BOWL	n/a	n/a	7	[0, 0, 0]	-999	PAL1	2	R1185N
1098.815	2.553	1275248	REC_EVENT	2457	n/a	4	4	COIN	BOWL	BOWL	COIN	7	[0, 0, 0]	-999	PAL1	2	R1185N
1101.368	0.007	1277801	REC_END	n/a	n/a	4	-999	n/a	n/a	n/a	n/a	7	[0, 0, 0]	-999	PAL1	2	R1185N
1101.375	0.917	1277808	TEST_ORIENT	n/a	n/a	5	5	SNAIL	SUN	SNAIL	SUN	7	[0, 0, 0]	-999	PAL1	2	R1185N
1102.292	0.0	1278725	REC_START	n/a	n/a	5	-999	n/a	SUN	n/a	n/a	7	[0, 0, 0]	-999	PAL1	2	R1185N
1102.292	1.462	1278725	TEST_PROBE	n/a	wordpools/wordpool_EN.txt	5	5	SNAIL	SUN	SNAIL	SUN	7	[0, 0, 0]	-999	PAL1	2	R1185N
1103.754	3.555	1280187	REC_EVENT	1462	n/a	5	5	SNAIL	SUN	SNAIL	SUN	7	[0, 0, 0]	-999	PAL1	2	R1185N
1107.309	0.017	1283742	REC_END	n/a	n/a	5	-999	n/a	n/a	n/a	n/a	7	[0, 0, 0]	-999	PAL1	2	R1185N
1107.326	1.0	1283759	TEST_ORIENT	n/a	n/a	6	6	ARM	DESK	DESK	ARM	7	[0, 0, 0]	-999	PAL1	2	R1185N
1108.326	0.0	1284759	TEST_PROBE	n/a	wordpools/wordpool_EN.txt	6	6	ARM	DESK	DESK	ARM	7	[0, 0, 0]	-999	PAL1	2	R1185N
1108.326	1.079	1284759	REC_START	n/a	n/a	6	-999	n/a	DESK	n/a	n/a	7	[0, 0, 0]	-999	PAL1	2	R1185N
1109.405	3.938	1285838	REC_EVENT	1079	n/a	6	6	ARM	DESK	DESK	ARM	7	[0, 0, 0]	-999	PAL1	2	R1185N
1113.343	1.903	1289776	REC_END	n/a	n/a	6	-999	n/a	n/a	n/a	n/a	7	[0, 0, 0]	-999	PAL1	2	R1185N
1115.246	10.449	1291679	ENCODING_START	n/a	n/a	0	-999	n/a	n/a	n/a	n/a	8	[0, 0, 0]	-999	PAL1	2	R1185N
1125.695	0.833	1302127	STUDY_ORIENT	n/a	n/a	1	1	CHAIR	NEST	CHAIR	NEST	8	[0, 0, 0]	-999	PAL1	2	R1185N
1126.528	5.034	1302960	STUDY_PAIR	n/a	wordpools/wordpool_EN.txt	1	1	CHAIR	NEST	CHAIR	NEST	8	[0, 0, 0]	-999	PAL1	2	R1185N
1131.562	0.95	1307994	STUDY_ORIENT	n/a	n/a	2	4	LIP	PEN	PEN	LIP	8	[0, 0, 0]	-999	PAL1	2	R1185N
1132.512	5.018	1308944	STUDY_PAIR	n/a	wordpools/wordpool_EN.txt	2	4	LIP	PEN	PEN	LIP	8	[0, 0, 0]	-999	PAL1	2	R1185N
1137.53	0.784	1313962	STUDY_ORIENT	n/a	n/a	3	3	TREE	STORM	TREE	STORM	8	[0, 0, 0]	-999	PAL1	2	R1185N
1138.314	5.018	1314746	STUDY_PAIR	n/a	wordpools/wordpool_EN.txt	3	3	TREE	STORM	TREE	STORM	8	[0, 0, 0]	-999	PAL1	2	R1185N
1143.332	0.933	1319764	STUDY_ORIENT	n/a	n/a	4	2	SEAT	n/a	TRUCK	SEAT	8	[0, 0, 0]	-999	PAL1	2	R1185N
1144.265	5.018	1320697	STUDY_PAIR	n/a	wordpools/wordpool_EN.txt	4	2	SEAT	n/a	TRUCK	SEAT	8	[0, 0, 0]	-999	PAL1	2	R1185N
1149.283	0.85	1325714	STUDY_ORIENT	n/a	n/a	5	5	MOUTH	BED	MOUTH	BED	8	[0, 0, 0]	-999	PAL1	2	R1185N
1150.133	5.034	1326564	STUDY_PAIR	n/a	wordpools/wordpool_EN.txt	5	5	MOUTH	BED	MOUTH	BED	8	[0, 0, 0]	-999	PAL1	2	R1185N
1155.167	1.017	1331598	STUDY_ORIENT	n/a	n/a	6	6	BOARD	LAND	BOARD	LAND	8	[0, 0, 0]	-999	PAL1	2	R1185N
1156.184	4.018	1332615	STUDY_PAIR	n/a	wordpools/wordpool_EN.txt	6	6	BOARD	LAND	BOARD	LAND	8	[0, 0, 0]	-999	PAL1	2	R1185N
1160.202	1.0	1336633	START	n/a	n/a	-999	-999	n/a	n/a	n/a	n/a	8	[-999, -999, -999]	-999	PAL1	2	R1185N
1161.202	0.016	1337633	MATH_START	n/a	n/a	-999	-999	n/a	n/a	n/a	n/a	8	[0, 0, 0]	-999	PAL1	2	R1185N
1161.218	6.45	1337649	PROB	6411	n/a	-999	-999	n/a	n/a	n/a	n/a	8	[7, 6, 7]	20	PAL1	2	R1185N
1167.668	3.819	1344099	PROB	3786	n/a	-999	-999	n/a	n/a	n/a	n/a	8	[1, 4, 4]	9	PAL1	2	R1185N
1171.487	3.334	1347918	PROB	3311	n/a	-999	-999	n/a	n/a	n/a	n/a	8	[1, 1, 4]	6	PAL1	2	R1185N
1174.821	3.383	1351251	PROB	3353	n/a	-999	-999	n/a	n/a	n/a	n/a	8	[6, 9, 1]	16	PAL1	2	R1185N
1178.204	3.409	1354634	PROB	3409	n/a	-999	-999	n/a	n/a	n/a	n/a	8	[6, 1, 5]	12	PAL1	2	R1185N
1181.613	0.008	1358043	STOP	n/a	n/a	-999	-999	n/a	n/a	n/a	n/a	8	[-999, -999, -999]	-999	PAL1	2	R1185N
1181.621	0.0	1358051	MATH_END	n/a	n/a	-999	-999	n/a	n/a	n/a	n/a	8	[0, 0, 0]	-999	PAL1	2	R1185N
1181.621	0.016	1358051	TEST_START	n/a	n/a	-999	-999	n/a	n/a	n/a	n/a	8	[0, 0, 0]	-999	PAL1	2	R1185N
1181.637	0.934	1358067	TEST_ORIENT	n/a	n/a	1	1	CHAIR	NEST	CHAIR	NEST	8	[0, 0, 0]	-999	PAL1	2	R1185N
1182.571	0.0	1359001	REC_START	n/a	n/a	1	-999	n/a	NEST	n/a	n/a	8	[0, 0, 0]	-999	PAL1	2	R1185N
1182.571	1.71	1359001	TEST_PROBE	n/a	wordpools/wordpool_EN.txt	1	1	CHAIR	NEST	CHAIR	NEST	8	[0, 0, 0]	-999	PAL1	2	R1185N
1184.281	3.307	1360711	REC_EVENT	1710	n/a	1	1	CHAIR	NEST	CHAIR	NEST	8	[0, 0, 0]	-999	PAL1	2	R1185N
1187.588	0.017	1364018	REC_END	n/a	n/a	1	-999	n/a	n/a	n/a	n/a	8	[0, 0, 0]	-999	PAL1	2	R1185N
1187.605	0.9	1364035	TEST_ORIENT	n/a	n/a	4	2	SEAT	n/a	TRUCK	SEAT	8	[0, 0, 0]	-999	PAL1	2	R1185N
1188.505	0.001	1364935	TEST_PROBE	n/a	wordpools/wordpool_EN.txt	4	2	SEAT	n/a	TRUCK	SEAT	8	[0, 0, 0]	-999	PAL1	2	R1185N
1188.506	5.009	1364936	REC_START	n/a	n/a	4	-999	n/a	n/a	n/a	n/a	8	[0, 0, 0]	-999	PAL1	2	R1185N
1193.515	0.003	1369945	REC_EVENT	5009	n/a	4	2	SEAT	<>	TRUCK	SEAT	8	[0, 0, 0]	-999	PAL1	2	R1185N
1193.518	0.021	1369948	REC_END	n/a	n/a	4	-999	n/a	n/a	n/a	n/a	8	[0, 0, 0]	-999	PAL1	2	R1185N
1193.539	0.918	1369969	TEST_ORIENT	n/a	n/a	3	3	TREE	STORM	TREE	STORM	8	[0, 0, 0]	-999	PAL1	2	R1185N
1194.457	0.001	1370887	TEST_PROBE	n/a	wordpools/wordpool_EN.txt	3	3	TREE	STORM	TREE	STORM	8	[0, 0, 0]	-999	PAL1	2	R1185N
1194.458	1.47	1370888	REC_START	n/a	n/a	3	-999	n/a	STORM	n/a	n/a	8	[0, 0, 0]	-999	PAL1	2	R1185N
1195.928	3.53	1372358	REC_EVENT	1470	n/a	3	3	TREE	STORM	TREE	STORM	8	[0, 0, 0]	-999	PAL1	2	R1185N
1199.458	0.017	1375887	REC_END	n/a	n/a	3	-999	n/a	n/a	n/a	n/a	8	[0, 0, 0]	-999	PAL1	2	R1185N
1199.475	0.883	1375904	TEST_ORIENT	n/a	n/a	2	4	LIP	PEN	PEN	LIP	8	[0, 0, 0]	-999	PAL1	2	R1185N
1200.358	0.001	1376787	TEST_PROBE	n/a	wordpools/wordpool_EN.txt	2	4	LIP	PEN	PEN	LIP	8	[0, 0, 0]	-999	PAL1	2	R1185N
1200.359	1.053	1376788	REC_START	n/a	n/a	2	-999	n/a	PEN	n/a	n/a	8	[0, 0, 0]	-999	PAL1	2	R1185N
1201.412	3.957	1377841	REC_EVENT	1053	n/a	2	4	LIP	PEN	PEN	LIP	8	[0, 0, 0]	-999	PAL1	2	R1185N
1205.369	0.007	1381798	REC_END	n/a	n/a	2	-999	n/a	n/a	n/a	n/a	8	[0, 0, 0]	-999	PAL1	2	R1185N
1205.376	0.883	1381805	TEST_ORIENT	n/a	n/a	5	5	MOUTH	BED	MOUTH	BED	8	[0, 0, 0]	-999	PAL1	2	R1185N
1206.259	0.001	1382688	TEST_PROBE	n/a	wordpools/wordpool_EN.txt	5	5	MOUTH	BED	MOUTH	BED	8	[0, 0, 0]	-999	PAL1	2	R1185N
1206.26	1.296	1382689	REC_START	n/a	n/a	5	-999	n/a	BED	n/a	n/a	8	[0, 0, 0]	-999	PAL1	2	R1185N
1207.556	3.713	1383985	REC_EVENT	1296	n/a	5	5	MOUTH	BED	MOUTH	BED	8	[0, 0, 0]	-999	PAL1	2	R1185N
1211.269	0.008	1387698	REC_END	n/a	n/a	5	-999	n/a	n/a	n/a	n/a	8	[0, 0, 0]	-999	PAL1	2	R1185N
1211.277	0.95	1387706	TEST_ORIENT	n/a	n/a	6	6	BOARD	LAND	BOARD	LAND	8	[0, 0, 0]	-999	PAL1	2	R1185N
1212.227	0.0	1388656	TEST_PROBE	n/a	wordpools/wordpool_EN.txt	6	6	BOARD	LAND	BOARD	LAND	8	[0, 0, 0]	-999	PAL1	2	R1185N
1212.227	3.346	1388656	REC_START	n/a	n/a	6	-999	n/a	LAND	n/a	n/a	8	[0, 0, 0]	-999	PAL1	2	R1185N
1215.573	1.671	1392002	REC_EVENT	3346	n/a	6	6	BOARD	LAND	BOARD	LAND	8	[0, 0, 0]	-999	PAL1	2	R1185N
1217.244	3.21	1393673	REC_END	n/a	n/a	6	-999	n/a	n/a	n/a	n/a	8	[0, 0, 0]	-999	PAL1	2	R1185N
1220.454	10.443	1396883	ENCODING_START	n/a	n/a	0	-999	n/a	n/a	n/a	n/a	9	[0, 0, 0]	-999	PAL1	2	R1185N
1230.897	0.833	1407325	STUDY_ORIENT	n/a	n/a	1	1	STOVE	LOCK	LOCK	STOVE	9	[0, 0, 0]	-999	PAL1	2	R1185N
1231.73	5.018	1408158	STUDY_PAIR	n/a	wordpools/wordpool_EN.txt	1	1	STOVE	LOCK	LOCK	STOVE	9	[0, 0, 0]	-999	PAL1	2	R1185N
1236.748	0.799	1413176	STUDY_ORIENT	n/a	n/a	2	2	SKY	EAR	EAR	SKY	9	[0, 0, 0]	-999	PAL1	2	R1185N
1237.547	5.034	1413975	STUDY_PAIR	n/a	wordpools/wordpool_EN.txt	2	2	SKY	EAR	EAR	SKY	9	[0, 0, 0]	-999	PAL1	2	R1185N
1242.581	0.818	1419009	STUDY_ORIENT	n/a	n/a	3	3	CART	n/a	CART	WHALE	9	[0, 0, 0]	-999	PAL1	2	R1185N
1243.399	5.034	1419827	STUDY_PAIR	n/a	wordpools/wordpool_EN.txt	3	3	CART	n/a	CART	WHALE	9	[0, 0, 0]	-999	PAL1	2	R1185N
1248.433	0.85	1424861	STUDY_ORIENT	n/a	n/a	4	4	HOOK	n/a	HOOK	WEED	9	[0, 0, 0]	-999	PAL1	2	R1185N
1249.283	5.018	1425711	STUDY_PAIR	n/a	wordpools/wordpool_EN.txt	4	4	HOOK	n/a	HOOK	WEED	9	[0, 0, 0]	-999	PAL1	2	R1185N
1254.301	0.933	1430728	STUDY_ORIENT	n/a	n/a	5	5	OAR	COW	COW	OAR	9	[0, 0, 0]	-999	PAL1	2	R1185N
1255.234	5.018	1431661	STUDY_PAIR	n/a	wordpools/wordpool_EN.txt	5	5	OAR	COW	COW	OAR	9	[0, 0, 0]	-999	PAL1	2	R1185N
1260.252	1.017	1436679	STUDY_ORIENT	n/a	n/a	6	6	MOUSE	PLANT	PLANT	MOUSE	9	[0, 0, 0]	-999	PAL1	2	R1185N
1261.269	4.017	1437696	STUDY_PAIR	n/a	wordpools/wordpool_EN.txt	6	6	MOUSE	PLANT	PLANT	MOUSE	9	[0, 0, 0]	-999	PAL1	2	R1185N
1265.286	1.0	1441713	START	n/a	n/a	-999	-999	n/a	n/a	n/a	n/a	9	[-999, -999, -999]	-999	PAL1	2	R1185N
1266.286	0.017	1442713	MATH_START	n/a	n/a	-999	-999	n/a	n/a	n/a	n/a	9	[0, 0, 0]	-999	PAL1	2	R1185N
1266.303	5.283	1442730	PROB	5254	n/a	-999	-999	n/a	n/a	n/a	n/a	9	[7, 8, 4]	19	PAL1	2	R1185N
1271.586	7.436	1448013	PROB	7404	n/a	-999	-999	n/a	n/a	n/a	n/a	9	[3, 9, 5]	17	PAL1	2	R1185N
1279.022	4.434	1455449	PROB	4400	n/a	-999	-999	n/a	n/a	n/a	n/a	9	[3, 7, 8]	18	PAL1	2	R1185N
1283.456	5.71	1459882	PROB	5710	n/a	-999	-999	n/a	n/a	n/a	n/a	9	[8, 6, 5]	19	PAL1	2	R1185N
1289.166	0.007	1465592	STOP	n/a	n/a	-999	-999	n/a	n/a	n/a	n/a	9	[-999, -999, -999]	-999	PAL1	2	R1185N
1289.173	0.0	1465599	MATH_END	n/a	n/a	-999	-999	n/a	n/a	n/a	n/a	9	[0, 0, 0]	-999	PAL1	2	R1185N
1289.173	0.017	1465599	TEST_START	n/a	n/a	-999	-999	n/a	n/a	n/a	n/a	9	[0, 0, 0]	-999	PAL1	2	R1185N
1289.19	0.867	1465616	TEST_ORIENT	n/a	n/a	1	1	STOVE	LOCK	LOCK	STOVE	9	[0, 0, 0]	-999	PAL1	2	R1185N
1290.057	0.0	1466483	REC_START	n/a	n/a	1	-999	n/a	LOCK	n/a	n/a	9	[0, 0, 0]	-999	PAL1	2	R1185N
1290.057	1.703	1466483	TEST_PROBE	n/a	wordpools/wordpool_EN.txt	1	1	STOVE	LOCK	LOCK	STOVE	9	[0, 0, 0]	-999	PAL1	2	R1185N
1291.76	3.314	1468186	REC_EVENT	1703	n/a	1	1	STOVE	LOCK	LOCK	STOVE	9	[0, 0, 0]	-999	PAL1	2	R1185N
1295.074	0.017	1471500	REC_END	n/a	n/a	1	-999	n/a	n/a	n/a	n/a	9	[0, 0, 0]	-999	PAL1	2	R1185N
1295.091	0.8	1471517	TEST_ORIENT	n/a	n/a	2	2	SKY	EAR	EAR	SKY	9	[0, 0, 0]	-999	PAL1	2	R1185N
1295.891	0.001	1472317	TEST_PROBE	n/a	wordpools/wordpool_EN.txt	2	2	SKY	EAR	EAR	SKY	9	[0, 0, 0]	-999	PAL1	2	R1185N
1295.892	1.587	1472318	REC_START	n/a	n/a	2	-999	n/a	EAR	n/a	n/a	9	[0, 0, 0]	-999	PAL1	2	R1185N
1297.479	3.429	1473905	REC_EVENT	1587	n/a	2	2	SKY	EAR	EAR	SKY	9	[0, 0, 0]	-999	PAL1	2	R1185N
1300.908	0.017	1477334	REC_END	n/a	n/a	2	-999	n/a	n/a	n/a	n/a	9	[0, 0, 0]	-999	PAL1	2	R1185N
1300.925	0.984	1477351	TEST_ORIENT	n/a	n/a	3	3	CART	n/a	CART	WHALE	9	[0, 0, 0]	-999	PAL1	2	R1185N
1301.909	0.0	1478335	TEST_PROBE	n/a	wordpools/wordpool_EN.txt	3	3	CART	n/a	CART	WHALE	9	[0, 0, 0]	-999	PAL1	2	R1185N
1301.909	5.015	1478335	REC_START	n/a	n/a	3	-999	n/a	n/a	n/a	n/a	9	[0, 0, 0]	-999	PAL1	2	R1185N
1306.924	0.002	1483349	REC_EVENT	5015	n/a	3	3	CART	<>	CART	WHALE	9	[0, 0, 0]	-999	PAL1	2	R1185N
1306.926	0.017	1483351	REC_END	n/a	n/a	3	-999	n/a	n/a	n/a	n/a	9	[0, 0, 0]	-999	PAL1	2	R1185N
1306.943	0.983	1483368	TEST_ORIENT	n/a	n/a	4	4	HOOK	n/a	HOOK	WEED	9	[0, 0, 0]	-999	PAL1	2	R1185N
1307.926	0.001	1484351	TEST_PROBE	n/a	wordpools/wordpool_EN.txt	4	4	HOOK	n/a	HOOK	WEED	9	[0, 0, 0]	-999	PAL1	2	R1185N
1307.927	5.009	1484352	REC_START	n/a	n/a	4	-999	n/a	n/a	n/a	n/a	9	[0, 0, 0]	-999	PAL1	2	R1185N
1312.936	0.001	1489361	REC_EVENT	5009	n/a	4	4	HOOK	<>	HOOK	WEED	9	[0, 0, 0]	-999	PAL1	2	R1185N
1312.937	0.007	1489362	REC_END	n/a	n/a	4	-999	n/a	n/a	n/a	n/a	9	[0, 0, 0]	-999	PAL1	2	R1185N
1312.944	0.967	1489369	TEST_ORIENT	n/a	n/a	5	5	OAR	COW	COW	OAR	9	[0, 0, 0]	-999	PAL1	2	R1185N
1313.911	0.0	1490336	TEST_PROBE	n/a	wordpools/wordpool_EN.txt	5	5	OAR	COW	COW	OAR	9	[0, 0, 0]	-999	PAL1	2	R1185N
1313.911	1.386	1490336	REC_START	n/a	n/a	5	-999	n/a	COW	n/a	n/a	9	[0, 0, 0]	-999	PAL1	2	R1185N
1315.297	3.631	1491722	REC_EVENT	1386	n/a	5	5	OAR	COW	COW	OAR	9	[0, 0, 0]	-999	PAL1	2	R1185N
1318.928	0.017	1495353	REC_END	n/a	n/a	5	-999	n/a	n/a	n/a	n/a	9	[0, 0, 0]	-999	PAL1	2	R1185N
1318.945	0.917	1495370	TEST_ORIENT	n/a	n/a	6	6	MOUSE	PLANT	PLANT	MOUSE	9	[0, 0, 0]	-999	PAL1	2	R1185N
1319.862	0.0	1496287	TEST_PROBE	n/a	wordpools/wordpool_EN.txt	6	6	MOUSE	PLANT	PLANT	MOUSE	9	[0, 0, 0]	-999	PAL1	2	R1185N
1319.862	1.288	1496287	REC_START	n/a	n/a	6	-999	n/a	PLANT	n/a	n/a	9	[0, 0, 0]	-999	PAL1	2	R1185N
1321.15	3.738	1497575	REC_EVENT	1288	n/a	6	6	MOUSE	PLANT	PLANT	MOUSE	9	[0, 0, 0]	-999	PAL1	2	R1185N
1324.888	3.182	1501313	REC_END	n/a	n/a	6	-999	n/a	n/a	n/a	n/a	9	[0, 0, 0]	-999	PAL1	2	R1185N
1328.07	10.444	1504495	ENCODING_START	n/a	n/a	0	-999	n/a	n/a	n/a	n/a	10	[0, 0, 0]	-999	PAL1	2	R1185N
1338.514	0.985	1514938	STUDY_ORIENT	n/a	n/a	1	3	LEAF	TRUE	LEAF	DRUM	10	[0, 0, 0]	-999	PAL1	2	R1185N
1339.499	5.033	1515923	STUDY_PAIR	n/a	wordpools/wordpool_EN.txt	1	3	LEAF	TRUE	LEAF	DRUM	10	[0, 0, 0]	-999	PAL1	2	R1185N
1344.532	0.867	1520956	STUDY_ORIENT	n/a	n/a	2	6	BLOOM	ROCK	BLOOM	ROCK	10	[0, 0, 0]	-999	PAL1	2	R1185N
1345.399	5.018	1521823	STUDY_PAIR	n/a	wordpools/wordpool_EN.txt	2	6	BLOOM	ROCK	BLOOM	ROCK	10	[0, 0, 0]	-999	PAL1	2	R1185N
1350.417	0.9	1526841	STUDY_ORIENT	n/a	n/a	3	5	FACE	n/a	FACE	KITE	10	[0, 0, 0]	-999	PAL1	2	R1185N
1351.317	5.018	1527741	STUDY_PAIR	n/a	wordpools/wordpool_EN.txt	3	5	FACE	n/a	FACE	KITE	10	[0, 0, 0]	-999	PAL1	2	R1185N
1356.335	0.8	1532759	STUDY_ORIENT	n/a	n/a	4	4	BOX	n/a	ROOM	BOX	10	[0, 0, 0]	-999	PAL1	2	R1185N
1357.135	5.034	1533559	STUDY_PAIR	n/a	wordpools/wordpool_EN.txt	4	4	BOX	n/a	ROOM	BOX	10	[0, 0, 0]	-999	PAL1	2	R1185N
1362.169	0.817	1538592	STUDY_ORIENT	n/a	n/a	5	1	PARK	n/a	PARK	HAWK	10	[0, 0, 0]	-999	PAL1	2	R1185N
1362.986	5.034	1539409	STUDY_PAIR	n/a	wordpools/wordpool_EN.txt	5	1	PARK	n/a	PARK	HAWK	10	[0, 0, 0]	-999	PAL1	2	R1185N
1368.02	0.934	1544443	STUDY_ORIENT	n/a	n/a	6	2	TRASH	TOY	TOY	TRASH	10	[0, 0, 0]	-999	PAL1	2	R1185N
1368.954	4.017	1545377	STUDY_PAIR	n/a	wordpools/wordpool_EN.txt	6	2	TRASH	TOY	TOY	TRASH	10	[0, 0, 0]	-999	PAL1	2	R1185N
1372.971	1.0	1549394	START	n/a	n/a	-999	-999	n/a	n/a	n/a	n/a	10	[-999, -999, -999]	-999	PAL1	2	R1185N
1373.971	0.017	1550394	MATH_START	n/a	n/a	-999	-999	n/a	n/a	n/a	n/a	10	[0, 0, 0]	-999	PAL1	2	R1185N
1373.988	5.984	1550411	PROB	5962	n/a	-999	-999	n/a	n/a	n/a	n/a	10	[8, 2, 6]	16	PAL1	2	R1185N
1379.972	4.583	1556395	PROB	4561	n/a	-999	-999	n/a	n/a	n/a	n/a	10	[1, 5, 2]	8	PAL1	2	R1185N
1384.555	4.852	1560978	PROB	4819	n/a	-999	-999	n/a	n/a	n/a	n/a	10	[3, 3, 4]	10	PAL1	2	R1185N
1389.407	4.254	1565829	PROB	4254	n/a	-999	-999	n/a	n/a	n/a	n/a	10	[3, 7, 3]	13	PAL1	2	R1185N
1393.661	0.012	1570083	STOP	n/a	n/a	-999	-999	n/a	n/a	n/a	n/a	10	[-999, -999, -999]	-999	PAL1	2	R1185N
1393.673	0.0	1570095	MATH_END	n/a	n/a	-999	-999	n/a	n/a	n/a	n/a	10	[0, 0, 0]	-999	PAL1	2	R1185N
1393.673	0.017	1570095	TEST_START	n/a	n/a	-999	-999	n/a	n/a	n/a	n/a	10	[0, 0, 0]	-999	PAL1	2	R1185N
1393.69	0.984	1570112	TEST_ORIENT	n/a	n/a	5	1	PARK	n/a	PARK	HAWK	10	[0, 0, 0]	-999	PAL1	2	R1185N
1394.674	0.0	1571096	TEST_PROBE	n/a	wordpools/wordpool_EN.txt	5	1	PARK	n/a	PARK	HAWK	10	[0, 0, 0]	-999	PAL1	2	R1185N
1394.674	5.032	1571096	REC_START	n/a	n/a	5	-999	n/a	n/a	n/a	n/a	10	[0, 0, 0]	-999	PAL1	2	R1185N
1399.706	0.002	1576128	REC_EVENT	5032	n/a	5	1	PARK	<>	PARK	HAWK	10	[0, 0, 0]	-999	PAL1	2	R1185N
1399.708	0.017	1576130	REC_END	n/a	n/a	5	-999	n/a	n/a	n/a	n/a	10	[0, 0, 0]	-999	PAL1	2	R1185N
1399.725	0.866	1576147	TEST_ORIENT	n/a	n/a	6	2	TRASH	TOY	TOY	TRASH	10	[0, 0, 0]	-999	PAL1	2	R1185N
1400.591	0.001	1577013	TEST_PROBE	n/a	wordpools/wordpool_EN.txt	6	2	TRASH	TOY	TOY	TRASH	10	[0, 0, 0]	-999	PAL1	2	R1185N
1400.592	1.105	1577014	REC_START	n/a	n/a	6	-999	n/a	TOY	n/a	n/a	10	[0, 0, 0]	-999	PAL1	2	R1185N
1401.697	3.904	1578119	REC_EVENT	1105	n/a	6	2	TRASH	TOY	TOY	TRASH	10	[0, 0, 0]	-999	PAL1	2	R1185N
1405.601	0.007	1582023	REC_END	n/a	n/a	6	-999	n/a	n/a	n/a	n/a	10	[0, 0, 0]	-999	PAL1	2	R1185N
1405.608	0.934	1582030	TEST_ORIENT	n/a	n/a	1	3	LEAF	TRUE	LEAF	DRUM	10	[0, 0, 0]	-999	PAL1	2	R1185N
1406.542	0.0	1582964	TEST_PROBE	n/a	wordpools/wordpool_EN.txt	1	3	LEAF	TRUE	LEAF	DRUM	10	[0, 0, 0]	-999	PAL1	2	R1185N
1406.542	1.448	1582964	REC_START	n/a	n/a	1	-999	n/a	TRUE	n/a	n/a	10	[0, 0, 0]	-999	PAL1	2	R1185N
1407.99	3.569	1584412	REC_EVENT	1448	n/a	1	3	LEAF	TRUE	LEAF	DRUM	10	[0, 0, 0]	-999	PAL1	2	R1185N
1411.559	0.017	1587981	REC_END	n/a	n/a	1	-999	n/a	n/a	n/a	n/a	10	[0, 0, 0]	-999	PAL1	2	R1185N
1411.576	0.967	1587998	TEST_ORIENT	n/a	n/a	4	4	BOX	n/a	ROOM	BOX	10	[0, 0, 0]	-999	PAL1	2	R1185N
1412.543	0.001	1588964	TEST_PROBE	n/a	wordpools/wordpool_EN.txt	4	4	BOX	n/a	ROOM	BOX	10	[0, 0, 0]	-999	PAL1	2	R1185N
1412.544	5.009	1588965	REC_START	n/a	n/a	4	-999	n/a	n/a	n/a	n/a	10	[0, 0, 0]	-999	PAL1	2	R1185N
1417.553	0.001	1593974	REC_EVENT	5009	n/a	4	4	BOX	<>	ROOM	BOX	10	[0, 0, 0]	-999	PAL1	2	R1185N
1417.554	0.006	1593975	REC_END	n/a	n/a	4	-999	n/a	n/a	n/a	n/a	10	[0, 0, 0]	-999	PAL1	2	R1185N
1417.56	0.819	1593981	TEST_ORIENT	n/a	n/a	3	5	FACE	n/a	FACE	KITE	10	[0, 0, 0]	-999	PAL1	2	R1185N
1418.379	0.0	1594800	TEST_PROBE	n/a	wordpools/wordpool_EN.txt	3	5	FACE	n/a	FACE	KITE	10	[0, 0, 0]	-999	PAL1	2	R1185N
1418.379	5.015	1594800	REC_START	n/a	n/a	3	-999	n/a	n/a	n/a	n/a	10	[0, 0, 0]	-999	PAL1	2	R1185N
1423.394	0.002	1599815	REC_EVENT	5015	n/a	3	5	FACE	<>	FACE	KITE	10	[0, 0, 0]	-999	PAL1	2	R1185N
1423.396	0.017	1599817	REC_END	n/a	n/a	3	-999	n/a	n/a	n/a	n/a	10	[0, 0, 0]	-999	PAL1	2	R1185N
1423.413	0.916	1599834	TEST_ORIENT	n/a	n/a	2	6	BLOOM	ROCK	BLOOM	ROCK	10	[0, 0, 0]	-999	PAL1	2	R1185N
1424.329	0.001	1600750	TEST_PROBE	n/a	wordpools/wordpool_EN.txt	2	6	BLOOM	ROCK	BLOOM	ROCK	10	[0, 0, 0]	-999	PAL1	2	R1185N
1424.33	2.273	1600751	REC_START	n/a	n/a	2	-999	n/a	ROCK	n/a	n/a	10	[0, 0, 0]	-999	PAL1	2	R1185N
1426.603	2.736	1603024	REC_EVENT	2273	n/a	2	6	BLOOM	ROCK	BLOOM	ROCK	10	[0, 0, 0]	-999	PAL1	2	R1185N
1429.339	2.627	1605760	REC_END	n/a	n/a	2	-999	n/a	n/a	n/a	n/a	10	[0, 0, 0]	-999	PAL1	2	R1185N
1431.966	10.45	1608387	ENCODING_START	n/a	n/a	0	-999	n/a	n/a	n/a	n/a	11	[0, 0, 0]	-999	PAL1	2	R1185N
1442.416	1.017	1618836	STUDY_ORIENT	n/a	n/a	1	3	LAWN	n/a	CAVE	LAWN	11	[0, 0, 0]	-999	PAL1	2	R1185N
1443.433	5.034	1619853	STUDY_PAIR	n/a	wordpools/wordpool_EN.txt	1	3	LAWN	n/a	CAVE	LAWN	11	[0, 0, 0]	-999	PAL1	2	R1185N
1448.467	0.983	1624887	STUDY_ORIENT	n/a	n/a	2	6	MOOSE	GLASS	GLASS	MOOSE	11	[0, 0, 0]	-999	PAL1	2	R1185N
1449.45	5.018	1625870	STUDY_PAIR	n/a	wordpools/wordpool_EN.txt	2	6	MOOSE	GLASS	GLASS	MOOSE	11	[0, 0, 0]	-999	PAL1	2	R1185N
1454.468	0.967	1630888	STUDY_ORIENT	n/a	n/a	3	5	STOOL	n/a	JAR	STOOL	11	[0, 0, 0]	-999	PAL1	2	R1185N
1455.435	5.034	1631855	STUDY_PAIR	n/a	wordpools/wordpool_EN.txt	3	5	STOOL	n/a	JAR	STOOL	11	[0, 0, 0]	-999	PAL1	2	R1185N
1460.469	0.9	1636889	STUDY_ORIENT	n/a	n/a	4	2	SINK	SOAP	SINK	SOAP	11	[0, 0, 0]	-999	PAL1	2	R1185N
1461.369	5.034	1637789	STUDY_PAIR	n/a	wordpools/wordpool_EN.txt	4	2	SINK	SOAP	SINK	SOAP	11	[0, 0, 0]	-999	PAL1	2	R1185N
1466.403	0.784	1642822	STUDY_ORIENT	n/a	n/a	5	1	STEAM	n/a	JEEP	STEAM	11	[0, 0, 0]	-999	PAL1	2	R1185N
1467.187	5.034	1643606	STUDY_PAIR	n/a	wordpools/wordpool_EN.txt	5	1	STEAM	n/a	JEEP	STEAM	11	[0, 0, 0]	-999	PAL1	2	R1185N
1472.221	1.017	1648640	STUDY_ORIENT	n/a	n/a	6	4	HOSE	n/a	BENCH	HOSE	11	[0, 0, 0]	-999	PAL1	2	R1185N
1473.238	4.018	1649657	STUDY_PAIR	n/a	wordpools/wordpool_EN.txt	6	4	HOSE	n/a	BENCH	HOSE	11	[0, 0, 0]	-999	PAL1	2	R1185N
1477.256	0.999	1653675	START	n/a	n/a	-999	-999	n/a	n/a	n/a	n/a	11	[-999, -999, -999]	-999	PAL1	2	R1185N
1478.255	0.017	1654674	MATH_START	n/a	n/a	-999	-999	n/a	n/a	n/a	n/a	11	[0, 0, 0]	-999	PAL1	2	R1185N
1478.272	5.751	1654691	PROB	5718	n/a	-999	-999	n/a	n/a	n/a	n/a	11	[4, 3, 4]	11	PAL1	2	R1185N
1484.023	3.834	1660442	PROB	3815	n/a	-999	-999	n/a	n/a	n/a	n/a	11	[7, 2, 1]	10	PAL1	2	R1185N
1487.857	11.325	1664276	PROB	11325	n/a	-999	-999	n/a	n/a	n/a	n/a	11	[4, 7, 9]	20	PAL1	2	R1185N
1499.182	0.01	1675600	STOP	n/a	n/a	-999	-999	n/a	n/a	n/a	n/a	11	[-999, -999, -999]	-999	PAL1	2	R1185N
1499.192	0.0	1675610	TEST_START	n/a	n/a	-999	-999	n/a	n/a	n/a	n/a	11	[0, 0, 0]	-999	PAL1	2	R1185N
1499.192	0.017	1675610	MATH_END	n/a	n/a	-999	-999	n/a	n/a	n/a	n/a	11	[0, 0, 0]	-999	PAL1	2	R1185N
1499.209	0.983	1675627	TEST_ORIENT	n/a	n/a	5	1	STEAM	n/a	JEEP	STEAM	11	[0, 0, 0]	-999	PAL1	2	R1185N
1500.192	0.001	1676610	TEST_PROBE	n/a	wordpools/wordpool_EN.txt	5	1	STEAM	n/a	JEEP	STEAM	11	[0, 0, 0]	-999	PAL1	2	R1185N
1500.193	5.009	1676611	REC_START	n/a	n/a	5	-999	n/a	n/a	n/a	n/a	11	[0, 0, 0]	-999	PAL1	2	R1185N
1505.202	0.0	1681620	REC_EVENT	5009	n/a	5	1	STEAM	<>	JEEP	STEAM	11	[0, 0, 0]	-999	PAL1	2	R1185N
1505.202	0.008	1681620	REC_END	n/a	n/a	5	-999	n/a	n/a	n/a	n/a	11	[0, 0, 0]	-999	PAL1	2	R1185N
1505.21	0.917	1681628	TEST_ORIENT	n/a	n/a	4	2	SINK	SOAP	SINK	SOAP	11	[0, 0, 0]	-999	PAL1	2	R1185N
1506.127	0.0	1682545	TEST_PROBE	n/a	wordpools/wordpool_EN.txt	4	2	SINK	SOAP	SINK	SOAP	11	[0, 0, 0]	-999	PAL1	2	R1185N
1506.127	1.319	1682545	REC_START	n/a	n/a	4	-999	n/a	SOAP	n/a	n/a	11	[0, 0, 0]	-999	PAL1	2	R1185N
1507.446	3.707	1683864	REC_EVENT	1319	n/a	4	2	SINK	SOAP	SINK	SOAP	11	[0, 0, 0]	-999	PAL1	2	R1185N
1511.153	0.008	1687571	REC_END	n/a	n/a	4	-999	n/a	n/a	n/a	n/a	11	[0, 0, 0]	-999	PAL1	2	R1185N
1511.161	0.933	1687579	TEST_ORIENT	n/a	n/a	1	3	LAWN	n/a	CAVE	LAWN	11	[0, 0, 0]	-999	PAL1	2	R1185N
1512.094	0.001	1688512	TEST_PROBE	n/a	wordpools/wordpool_EN.txt	1	3	LAWN	n/a	CAVE	LAWN	11	[0, 0, 0]	-999	PAL1	2	R1185N
1512.095	5.009	1688513	REC_START	n/a	n/a	1	-999	n/a	n/a	n/a	n/a	11	[0, 0, 0]	-999	PAL1	2	R1185N
1517.104	0.0	1693522	REC_EVENT	5009	n/a	1	3	LAWN	<>	CAVE	LAWN	11	[0, 0, 0]	-999	PAL1	2	R1185N
1517.104	0.008	1693522	REC_END	n/a	n/a	1	-999	n/a	n/a	n/a	n/a	11	[0, 0, 0]	-999	PAL1	2	R1185N
1517.112	1.033	1693530	TEST_ORIENT	n/a	n/a	6	4	HOSE	n/a	BENCH	HOSE	11	[0, 0, 0]	-999	PAL1	2	R1185N
1518.145	0.001	1694563	TEST_PROBE	n/a	wordpools/wordpool_EN.txt	6	4	HOSE	n/a	BENCH	HOSE	11	[0, 0, 0]	-999	PAL1	2	R1185N
1518.146	5.009	1694564	REC_START	n/a	n/a	6	-999	n/a	n/a	n/a	n/a	11	[0, 0, 0]	-999	PAL1	2	R1185N
1523.155	0.0	1699572	REC_EVENT	5009	n/a	6	4	HOSE	<>	BENCH	HOSE	11	[0, 0, 0]	-999	PAL1	2	R1185N
1523.155	0.008	1699572	REC_END	n/a	n/a	6	-999	n/a	n/a	n/a	n/a	11	[0, 0, 0]	-999	PAL1	2	R1185N
1523.163	0.933	1699580	TEST_ORIENT	n/a	n/a	3	5	STOOL	n/a	JAR	STOOL	11	[0, 0, 0]	-999	PAL1	2	R1185N
1524.096	0.001	1700513	TEST_PROBE	n/a	wordpools/wordpool_EN.txt	3	5	STOOL	n/a	JAR	STOOL	11	[0, 0, 0]	-999	PAL1	2	R1185N
1524.097	5.009	1700514	REC_START	n/a	n/a	3	-999	n/a	n/a	n/a	n/a	11	[0, 0, 0]	-999	PAL1	2	R1185N
1529.106	0.0	1705523	REC_EVENT	5009	n/a	3	5	STOOL	<>	JAR	STOOL	11	[0, 0, 0]	-999	PAL1	2	R1185N
1529.106	0.008	1705523	REC_END	n/a	n/a	3	-999	n/a	n/a	n/a	n/a	11	[0, 0, 0]	-999	PAL1	2	R1185N
1529.114	0.95	1705531	TEST_ORIENT	n/a	n/a	2	6	MOOSE	GLASS	GLASS	MOOSE	11	[0, 0, 0]	-999	PAL1	2	R1185N
1530.064	0.0	1706481	REC_START	n/a	n/a	2	-999	n/a	GLASS	n/a	n/a	11	[0, 0, 0]	-999	PAL1	2	R1185N
1530.064	1.747	1706481	TEST_PROBE	n/a	wordpools/wordpool_EN.txt	2	6	MOOSE	GLASS	GLASS	MOOSE	11	[0, 0, 0]	-999	PAL1	2	R1185N
1531.811	3.27	1708228	REC_EVENT	1747	n/a	2	6	MOOSE	GLASS	GLASS	MOOSE	11	[0, 0, 0]	-999	PAL1	2	R1185N
1535.081	3.285	1711498	REC_END	n/a	n/a	2	-999	n/a	n/a	n/a	n/a	11	[0, 0, 0]	-999	PAL1	2	R1185N
1538.366	10.451	1714783	ENCODING_START	n/a	n/a	0	-999	n/a	n/a	n/a	n/a	12	[0, 0, 0]	-999	PAL1	2	R1185N
1548.817	0.849	1725233	STUDY_ORIENT	n/a	n/a	1	1	CAKE	GLOVE	GLOVE	CAKE	12	[0, 0, 0]	-999	PAL1	2	R1185N
1549.666	5.018	1726082	STUDY_PAIR	n/a	wordpools/wordpool_EN.txt	1	1	CAKE	GLOVE	GLOVE	CAKE	12	[0, 0, 0]	-999	PAL1	2	R1185N
1554.684	1.017	1731100	STUDY_ORIENT	n/a	n/a	2	4	SKI	GOLD	GOLD	SKI	12	[0, 0, 0]	-999	PAL1	2	R1185N
1555.701	5.035	1732117	STUDY_PAIR	n/a	wordpools/wordpool_EN.txt	2	4	SKI	GOLD	GOLD	SKI	12	[0, 0, 0]	-999	PAL1	2	R1185N
1560.736	0.983	1737152	STUDY_ORIENT	n/a	n/a	3	3	CONE	VINE	VINE	CONE	12	[0, 0, 0]	-999	PAL1	2	R1185N
1561.719	5.018	1738135	STUDY_PAIR	n/a	wordpools/wordpool_EN.txt	3	3	CONE	VINE	VINE	CONE	12	[0, 0, 0]	-999	PAL1	2	R1185N
1566.737	0.816	1743153	STUDY_ORIENT	n/a	n/a	4	2	ROAD	PIT	ELF	ROAD	12	[0, 0, 0]	-999	PAL1	2	R1185N
1567.553	5.034	1743969	STUDY_PAIR	n/a	wordpools/wordpool_EN.txt	4	2	ROAD	PIT	ELF	ROAD	12	[0, 0, 0]	-999	PAL1	2	R1185N
1572.587	0.983	1749002	STUDY_ORIENT	n/a	n/a	5	5	TOAD	ROAD	TOAD	PIT	12	[0, 0, 0]	-999	PAL1	2	R1185N
1573.57	5.018	1749985	STUDY_PAIR	n/a	wordpools/wordpool_EN.txt	5	5	TOAD	ROAD	TOAD	PIT	12	[0, 0, 0]	-999	PAL1	2	R1185N
1578.588	1.0	1755003	STUDY_ORIENT	n/a	n/a	6	6	FROG	n/a	FROG	GOAT	12	[0, 0, 0]	-999	PAL1	2	R1185N
1579.588	4.018	1756003	STUDY_PAIR	n/a	wordpools/wordpool_EN.txt	6	6	FROG	n/a	FROG	GOAT	12	[0, 0, 0]	-999	PAL1	2	R1185N
1583.606	0.999	1760021	START	n/a	n/a	-999	-999	n/a	n/a	n/a	n/a	12	[-999, -999, -999]	-999	PAL1	2	R1185N
1584.605	0.017	1761020	MATH_START	n/a	n/a	-999	-999	n/a	n/a	n/a	n/a	12	[0, 0, 0]	-999	PAL1	2	R1185N
1584.622	7.918	1761037	PROB	7895	n/a	-999	-999	n/a	n/a	n/a	n/a	12	[6, 7, 7]	20	PAL1	2	R1185N
1592.54	3.185	1768955	PROB	3161	n/a	-999	-999	n/a	n/a	n/a	n/a	12	[1, 8, 2]	11	PAL1	2	R1185N
1595.725	4.718	1772140	PROB	4689	n/a	-999	-999	n/a	n/a	n/a	n/a	12	[2, 5, 7]	14	PAL1	2	R1185N
1600.443	3.811	1776857	PROB	3811	n/a	-999	-999	n/a	n/a	n/a	n/a	12	[5, 3, 2]	10	PAL1	2	R1185N
1604.254	0.006	1780668	STOP	n/a	n/a	-999	-999	n/a	n/a	n/a	n/a	12	[-999, -999, -999]	-999	PAL1	2	R1185N
1604.26	0.0	1780674	TEST_START	n/a	n/a	-999	-999	n/a	n/a	n/a	n/a	12	[0, 0, 0]	-999	PAL1	2	R1185N
1604.26	0.017	1780674	MATH_END	n/a	n/a	-999	-999	n/a	n/a	n/a	n/a	12	[0, 0, 0]	-999	PAL1	2	R1185N
1604.277	1.016	1780691	TEST_ORIENT	n/a	n/a	1	1	CAKE	GLOVE	GLOVE	CAKE	12	[0, 0, 0]	-999	PAL1	2	R1185N
1605.293	0.001	1781707	TEST_PROBE	n/a	wordpools/wordpool_EN.txt	1	1	CAKE	GLOVE	GLOVE	CAKE	12	[0, 0, 0]	-999	PAL1	2	R1185N
1605.294	1.244	1781708	REC_START	n/a	n/a	1	-999	n/a	GLOVE	n/a	n/a	12	[0, 0, 0]	-999	PAL1	2	R1185N
1606.538	3.768	1782952	REC_EVENT	1244	n/a	1	1	CAKE	GLOVE	GLOVE	CAKE	12	[0, 0, 0]	-999	PAL1	2	R1185N
1610.306	0.022	1786720	REC_END	n/a	n/a	1	-999	n/a	n/a	n/a	n/a	12	[0, 0, 0]	-999	PAL1	2	R1185N
1610.328	1.0	1786742	TEST_ORIENT	n/a	n/a	4	2	ROAD	PIT	ELF	ROAD	12	[0, 0, 0]	-999	PAL1	2	R1185N
1611.328	0.0	1787742	REC_START	n/a	n/a	4	-999	n/a	PIT	n/a	n/a	12	[0, 0, 0]	-999	PAL1	2	R1185N
1611.328	3.152	1787742	TEST_PROBE	n/a	wordpools/wordpool_EN.txt	4	2	ROAD	PIT	ELF	ROAD	12	[0, 0, 0]	-999	PAL1	2	R1185N
1614.48	1.865	1790894	REC_EVENT	3152	n/a	4	2	ROAD	PIT	ELF	ROAD	12	[0, 0, 0]	-999	PAL1	2	R1185N
1616.345	0.017	1792759	REC_END	n/a	n/a	4	-999	n/a	n/a	n/a	n/a	12	[0, 0, 0]	-999	PAL1	2	R1185N
1616.362	0.967	1792776	TEST_ORIENT	n/a	n/a	3	3	CONE	VINE	VINE	CONE	12	[0, 0, 0]	-999	PAL1	2	R1185N
1617.329	0.0	1793743	TEST_PROBE	n/a	wordpools/wordpool_EN.txt	3	3	CONE	VINE	VINE	CONE	12	[0, 0, 0]	-999	PAL1	2	R1185N
1617.329	1.645	1793743	REC_START	n/a	n/a	3	-999	n/a	VINE	n/a	n/a	12	[0, 0, 0]	-999	PAL1	2	R1185N
1618.974	3.372	1795388	REC_EVENT	1645	n/a	3	3	CONE	VINE	VINE	CONE	12	[0, 0, 0]	-999	PAL1	2	R1185N
1622.346	0.017	1798760	REC_END	n/a	n/a	3	-999	n/a	n/a	n/a	n/a	12	[0, 0, 0]	-999	PAL1	2	R1185N
1622.363	0.85	1798777	TEST_ORIENT	n/a	n/a	2	4	SKI	GOLD	GOLD	SKI	12	[0, 0, 0]	-999	PAL1	2	R1185N
1623.213	0.001	1799627	TEST_PROBE	n/a	wordpools/wordpool_EN.txt	2	4	SKI	GOLD	GOLD	SKI	12	[0, 0, 0]	-999	PAL1	2	R1185N
1623.214	1.374	1799628	REC_START	n/a	n/a	2	-999	n/a	GOLD	n/a	n/a	12	[0, 0, 0]	-999	PAL1	2	R1185N
1624.588	3.635	1801002	REC_EVENT	1374	n/a	2	4	SKI	GOLD	GOLD	SKI	12	[0, 0, 0]	-999	PAL1	2	R1185N
1628.223	0.007	1804636	REC_END	n/a	n/a	2	-999	n/a	n/a	n/a	n/a	12	[0, 0, 0]	-999	PAL1	2	R1185N
1628.23	0.851	1804643	TEST_ORIENT	n/a	n/a	5	5	TOAD	ROAD	TOAD	PIT	12	[0, 0, 0]	-999	PAL1	2	R1185N
1629.081	0.0	1805494	TEST_PROBE	n/a	wordpools/wordpool_EN.txt	5	5	TOAD	ROAD	TOAD	PIT	12	[0, 0, 0]	-999	PAL1	2	R1185N
1629.081	4.09	1805494	REC_START	n/a	n/a	5	-999	n/a	ROAD	n/a	n/a	12	[0, 0, 0]	-999	PAL1	2	R1185N
1633.171	0.936	1809584	REC_EVENT	4090	n/a	5	5	TOAD	ROAD	TOAD	PIT	12	[0, 0, 0]	-999	PAL1	2	R1185N
1634.107	0.008	1810520	REC_END	n/a	n/a	5	-999	n/a	n/a	n/a	n/a	12	[0, 0, 0]	-999	PAL1	2	R1185N
1634.115	0.8	1810528	TEST_ORIENT	n/a	n/a	6	6	FROG	n/a	FROG	GOAT	12	[0, 0, 0]	-999	PAL1	2	R1185N
1634.915	0.001	1811328	TEST_PROBE	n/a	wordpools/wordpool_EN.txt	6	6	FROG	n/a	FROG	GOAT	12	[0, 0, 0]	-999	PAL1	2	R1185N
1634.916	5.026	1811329	REC_START	n/a	n/a	6	-999	n/a	n/a	n/a	n/a	12	[0, 0, 0]	-999	PAL1	2	R1185N
1639.942	0.001	1816355	REC_END	n/a	n/a	6	-999	n/a	n/a	n/a	n/a	12	[0, 0, 0]	-999	PAL1	2	R1185N
1639.943	4.063	1816356	REC_EVENT	5027	n/a	6	6	FROG	<>	FROG	GOAT	12	[0, 0, 0]	-999	PAL1	2	R1185N
1644.006	10.446	1820419	ENCODING_START	n/a	n/a	0	-999	n/a	n/a	n/a	n/a	13	[0, 0, 0]	-999	PAL1	2	R1185N
1654.452	0.917	1830864	STUDY_ORIENT	n/a	n/a	1	3	STONE	DEER	DEER	STONE	13	[0, 0, 0]	-999	PAL1	2	R1185N
1655.369	5.034	1831781	STUDY_PAIR	n/a	wordpools/wordpool_EN.txt	1	3	STONE	DEER	DEER	STONE	13	[0, 0, 0]	-999	PAL1	2	R1185N
1660.403	0.883	1836815	STUDY_ORIENT	n/a	n/a	2	2	CROW	COAT	CROW	BEAR	13	[0, 0, 0]	-999	PAL1	2	R1185N
1661.286	5.018	1837698	STUDY_PAIR	n/a	wordpools/wordpool_EN.txt	2	2	CROW	COAT	CROW	BEAR	13	[0, 0, 0]	-999	PAL1	2	R1185N
1666.304	1.017	1842716	STUDY_ORIENT	n/a	n/a	3	5	CHIN	n/a	CHIN	ZOO	13	[0, 0, 0]	-999	PAL1	2	R1185N
1667.321	5.034	1843733	STUDY_PAIR	n/a	wordpools/wordpool_EN.txt	3	5	CHIN	n/a	CHIN	ZOO	13	[0, 0, 0]	-999	PAL1	2	R1185N
1672.355	0.867	1848767	STUDY_ORIENT	n/a	n/a	4	6	BEACH	TRENCH	BEACH	THREAD	13	[0, 0, 0]	-999	PAL1	2	R1185N
1673.222	5.034	1849634	STUDY_PAIR	n/a	wordpools/wordpool_EN.txt	4	6	BEACH	TRENCH	BEACH	THREAD	13	[0, 0, 0]	-999	PAL1	2	R1185N
1678.256	0.95	1854668	STUDY_ORIENT	n/a	n/a	5	1	CORD	n/a	CORD	GEESE	13	[0, 0, 0]	-999	PAL1	2	R1185N
1679.206	5.034	1855617	STUDY_PAIR	n/a	wordpools/wordpool_EN.txt	5	1	CORD	n/a	CORD	GEESE	13	[0, 0, 0]	-999	PAL1	2	R1185N
1684.24	0.867	1860651	STUDY_ORIENT	n/a	n/a	6	4	APE	n/a	APE	SHEEP	13	[0, 0, 0]	-999	PAL1	2	R1185N
1685.107	4.018	1861518	STUDY_PAIR	n/a	wordpools/wordpool_EN.txt	6	4	APE	n/a	APE	SHEEP	13	[0, 0, 0]	-999	PAL1	2	R1185N
1689.125	0.999	1865536	START	n/a	n/a	-999	-999	n/a	n/a	n/a	n/a	13	[-999, -999, -999]	-999	PAL1	2	R1185N
1690.124	0.017	1866535	MATH_START	n/a	n/a	-999	-999	n/a	n/a	n/a	n/a	13	[0, 0, 0]	-999	PAL1	2	R1185N
1690.141	9.268	1866552	PROB	9241	n/a	-999	-999	n/a	n/a	n/a	n/a	13	[4, 3, 9]	16	PAL1	2	R1185N
1699.409	3.051	1875820	PROB	3021	n/a	-999	-999	n/a	n/a	n/a	n/a	13	[2, 6, 1]	9	PAL1	2	R1185N
1702.46	5.718	1878871	PROB	5690	n/a	-999	-999	n/a	n/a	n/a	n/a	13	[2, 4, 7]	13	PAL1	2	R1185N
1708.178	7.236	1884588	PROB	7236	n/a	-999	-999	n/a	n/a	n/a	n/a	13	[6, 2, 7]	15	PAL1	2	R1185N
1715.414	0.015	1891824	STOP	n/a	n/a	-999	-999	n/a	n/a	n/a	n/a	13	[-999, -999, -999]	-999	PAL1	2	R1185N
1715.429	0.0	1891839	TEST_START	n/a	n/a	-999	-999	n/a	n/a	n/a	n/a	13	[0, 0, 0]	-999	PAL1	2	R1185N
1715.429	0.016	1891839	MATH_END	n/a	n/a	-999	-999	n/a	n/a	n/a	n/a	13	[0, 0, 0]	-999	PAL1	2	R1185N
1715.445	0.917	1891855	TEST_ORIENT	n/a	n/a	5	1	CORD	n/a	CORD	GEESE	13	[0, 0, 0]	-999	PAL1	2	R1185N
1716.362	0.001	1892772	TEST_PROBE	n/a	wordpools/wordpool_EN.txt	5	1	CORD	n/a	CORD	GEESE	13	[0, 0, 0]	-999	PAL1	2	R1185N
1716.363	5.009	1892773	REC_START	n/a	n/a	5	-999	n/a	n/a	n/a	n/a	13	[0, 0, 0]	-999	PAL1	2	R1185N
1721.372	0.0	1897782	REC_EVENT	5009	n/a	5	1	CORD	<>	CORD	GEESE	13	[0, 0, 0]	-999	PAL1	2	R1185N
1721.372	0.008	1897782	REC_END	n/a	n/a	5	-999	n/a	n/a	n/a	n/a	13	[0, 0, 0]	-999	PAL1	2	R1185N
1721.38	0.85	1897790	TEST_ORIENT	n/a	n/a	2	2	CROW	COAT	CROW	BEAR	13	[0, 0, 0]	-999	PAL1	2	R1185N
1722.23	0.0	1898640	REC_START	n/a	n/a	2	-999	n/a	COAT	n/a	n/a	13	[0, 0, 0]	-999	PAL1	2	R1185N
1722.23	3.71	1898640	TEST_PROBE	n/a	wordpools/wordpool_EN.txt	2	2	CROW	COAT	CROW	BEAR	13	[0, 0, 0]	-999	PAL1	2	R1185N
1725.94	1.307	1902350	REC_EVENT	3710	n/a	2	2	CROW	COAT	CROW	BEAR	13	[0, 0, 0]	-999	PAL1	2	R1185N
1727.247	0.017	1903657	REC_END	n/a	n/a	2	-999	n/a	n/a	n/a	n/a	13	[0, 0, 0]	-999	PAL1	2	R1185N
1727.264	0.95	1903674	TEST_ORIENT	n/a	n/a	1	3	STONE	DEER	DEER	STONE	13	[0, 0, 0]	-999	PAL1	2	R1185N
1728.214	0.001	1904624	TEST_PROBE	n/a	wordpools/wordpool_EN.txt	1	3	STONE	DEER	DEER	STONE	13	[0, 0, 0]	-999	PAL1	2	R1185N
1728.215	1.739	1904625	REC_START	n/a	n/a	1	-999	n/a	DEER	n/a	n/a	13	[0, 0, 0]	-999	PAL1	2	R1185N
1729.954	3.27	1906364	REC_EVENT	1739	n/a	1	3	STONE	DEER	DEER	STONE	13	[0, 0, 0]	-999	PAL1	2	R1185N
1733.224	0.008	1909633	REC_END	n/a	n/a	1	-999	n/a	n/a	n/a	n/a	13	[0, 0, 0]	-999	PAL1	2	R1185N
1733.232	0.85	1909641	TEST_ORIENT	n/a	n/a	6	4	APE	n/a	APE	SHEEP	13	[0, 0, 0]	-999	PAL1	2	R1185N
1734.082	0.0	1910491	REC_START	n/a	n/a	6	-999	n/a	n/a	n/a	n/a	13	[0, 0, 0]	-999	PAL1	2	R1185N
1734.082	5.015	1910491	TEST_PROBE	n/a	wordpools/wordpool_EN.txt	6	4	APE	n/a	APE	SHEEP	13	[0, 0, 0]	-999	PAL1	2	R1185N
1739.097	0.002	1915506	REC_EVENT	5015	n/a	6	4	APE	<>	APE	SHEEP	13	[0, 0, 0]	-999	PAL1	2	R1185N
1739.099	0.017	1915508	REC_END	n/a	n/a	6	-999	n/a	n/a	n/a	n/a	13	[0, 0, 0]	-999	PAL1	2	R1185N
1739.116	0.967	1915525	TEST_ORIENT	n/a	n/a	3	5	CHIN	n/a	CHIN	ZOO	13	[0, 0, 0]	-999	PAL1	2	R1185N
1740.083	0.0	1916492	TEST_PROBE	n/a	wordpools/wordpool_EN.txt	3	5	CHIN	n/a	CHIN	ZOO	13	[0, 0, 0]	-999	PAL1	2	R1185N
1740.083	5.015	1916492	REC_START	n/a	n/a	3	-999	n/a	n/a	n/a	n/a	13	[0, 0, 0]	-999	PAL1	2	R1185N
1745.098	0.002	1921507	REC_EVENT	5015	n/a	3	5	CHIN	<>	CHIN	ZOO	13	[0, 0, 0]	-999	PAL1	2	R1185N
1745.1	0.017	1921509	REC_END	n/a	n/a	3	-999	n/a	n/a	n/a	n/a	13	[0, 0, 0]	-999	PAL1	2	R1185N
1745.117	0.834	1921526	TEST_ORIENT	n/a	n/a	4	6	BEACH	TRENCH	BEACH	THREAD	13	[0, 0, 0]	-999	PAL1	2	R1185N
1745.951	0.0	1922360	TEST_PROBE	n/a	wordpools/wordpool_EN.txt	4	6	BEACH	TRENCH	BEACH	THREAD	13	[0, 0, 0]	-999	PAL1	2	R1185N
1745.951	1.837	1922360	REC_START	n/a	n/a	4	-999	n/a	TRENCH	n/a	n/a	13	[0, 0, 0]	-999	PAL1	2	R1185N
1747.788	3.18	1924197	REC_EVENT	1837	n/a	4	6	BEACH	TRENCH	BEACH	THREAD	13	[0, 0, 0]	-999	PAL1	2	R1185N
1750.968	2.782	1927377	REC_END	n/a	n/a	4	-999	n/a	n/a	n/a	n/a	13	[0, 0, 0]	-999	PAL1	2	R1185N
1753.75	10.454	1930159	ENCODING_START	n/a	n/a	0	-999	n/a	n/a	n/a	n/a	14	[0, 0, 0]	-999	PAL1	2	R1185N
1764.204	0.8	1940612	STUDY_ORIENT	n/a	n/a	1	3	GRAPE	n/a	SLEEVE	GRAPE	14	[0, 0, 0]	-999	PAL1	2	R1185N
1765.004	5.034	1941412	STUDY_PAIR	n/a	wordpools/wordpool_EN.txt	1	3	GRAPE	n/a	SLEEVE	GRAPE	14	[0, 0, 0]	-999	PAL1	2	R1185N
1770.038	0.833	1946446	STUDY_ORIENT	n/a	n/a	2	4	BATH	n/a	FLUTE	BATH	14	[0, 0, 0]	-999	PAL1	2	R1185N
1770.871	5.018	1947279	STUDY_PAIR	n/a	wordpools/wordpool_EN.txt	2	4	BATH	n/a	FLUTE	BATH	14	[0, 0, 0]	-999	PAL1	2	R1185N
1775.889	0.867	1952297	STUDY_ORIENT	n/a	n/a	3	1	RAT	WALL	WALL	RAT	14	[0, 0, 0]	-999	PAL1	2	R1185N
1776.756	5.034	1953164	STUDY_PAIR	n/a	wordpools/wordpool_EN.txt	3	1	RAT	WALL	WALL	RAT	14	[0, 0, 0]	-999	PAL1	2	R1185N
1781.79	0.866	1958198	STUDY_ORIENT	n/a	n/a	4	2	BRUSH	n/a	SLIME	BRUSH	14	[0, 0, 0]	-999	PAL1	2	R1185N
1782.656	5.034	1959064	STUDY_PAIR	n/a	wordpools/wordpool_EN.txt	4	2	BRUSH	n/a	SLIME	BRUSH	14	[0, 0, 0]	-999	PAL1	2	R1185N
1787.69	0.784	1964097	STUDY_ORIENT	n/a	n/a	5	5	PEACH	BATH	PEACH	MAP	14	[0, 0, 0]	-999	PAL1	2	R1185N
1788.474	5.018	1964881	STUDY_PAIR	n/a	wordpools/wordpool_EN.txt	5	5	PEACH	BATH	PEACH	MAP	14	[0, 0, 0]	-999	PAL1	2	R1185N
1793.492	0.817	1969899	STUDY_ORIENT	n/a	n/a	6	6	WOLF	CASH	WOLF	CASH	14	[0, 0, 0]	-999	PAL1	2	R1185N
1794.309	4.018	1970716	STUDY_PAIR	n/a	wordpools/wordpool_EN.txt	6	6	WOLF	CASH	WOLF	CASH	14	[0, 0, 0]	-999	PAL1	2	R1185N
1798.327	0.999	1974734	START	n/a	n/a	-999	-999	n/a	n/a	n/a	n/a	14	[-999, -999, -999]	-999	PAL1	2	R1185N
1799.326	0.017	1975733	MATH_START	n/a	n/a	-999	-999	n/a	n/a	n/a	n/a	14	[0, 0, 0]	-999	PAL1	2	R1185N
1799.343	6.418	1975750	PROB	6383	n/a	-999	-999	n/a	n/a	n/a	n/a	14	[6, 9, 9]	24	PAL1	2	R1185N
1805.761	4.067	1982168	PROB	4045	n/a	-999	-999	n/a	n/a	n/a	n/a	14	[4, 2, 1]	7	PAL1	2	R1185N
1809.828	4.634	1986235	PROB	4610	n/a	-999	-999	n/a	n/a	n/a	n/a	14	[3, 1, 2]	6	PAL1	2	R1185N
1814.462	7.143	1990868	PROB	7143	n/a	-999	-999	n/a	n/a	n/a	n/a	14	[2, 6, 7]	15	PAL1	2	R1185N
1821.605	0.007	1998011	STOP	n/a	n/a	-999	-999	n/a	n/a	n/a	n/a	14	[-999, -999, -999]	-999	PAL1	2	R1185N
1821.612	0.0	1998018	MATH_END	n/a	n/a	-999	-999	n/a	n/a	n/a	n/a	14	[0, 0, 0]	-999	PAL1	2	R1185N
1821.612	0.017	1998018	TEST_START	n/a	n/a	-999	-999	n/a	n/a	n/a	n/a	14	[0, 0, 0]	-999	PAL1	2	R1185N
1821.629	0.818	1998035	TEST_ORIENT	n/a	n/a	3	1	RAT	WALL	WALL	RAT	14	[0, 0, 0]	-999	PAL1	2	R1185N
1822.447	0.0	1998853	TEST_PROBE	n/a	wordpools/wordpool_EN.txt	3	1	RAT	WALL	WALL	RAT	14	[0, 0, 0]	-999	PAL1	2	R1185N
1822.447	2.027	1998853	REC_START	n/a	n/a	3	-999	n/a	WALL	n/a	n/a	14	[0, 0, 0]	-999	PAL1	2	R1185N
1824.474	2.99	2000880	REC_EVENT	2027	n/a	3	1	RAT	WALL	WALL	RAT	14	[0, 0, 0]	-999	PAL1	2	R1185N
1827.464	0.017	2003870	REC_END	n/a	n/a	3	-999	n/a	n/a	n/a	n/a	14	[0, 0, 0]	-999	PAL1	2	R1185N
1827.481	1.017	2003887	TEST_ORIENT	n/a	n/a	4	2	BRUSH	n/a	SLIME	BRUSH	14	[0, 0, 0]	-999	PAL1	2	R1185N
1828.498	0.0	2004904	REC_START	n/a	n/a	4	-999	n/a	n/a	n/a	n/a	14	[0, 0, 0]	-999	PAL1	2	R1185N
1828.498	5.015	2004904	TEST_PROBE	n/a	wordpools/wordpool_EN.txt	4	2	BRUSH	n/a	SLIME	BRUSH	14	[0, 0, 0]	-999	PAL1	2	R1185N
1833.513	0.001	2009919	REC_EVENT	5015	n/a	4	2	BRUSH	<>	SLIME	BRUSH	14	[0, 0, 0]	-999	PAL1	2	R1185N
1833.514	0.017	2009920	REC_END	n/a	n/a	4	-999	n/a	n/a	n/a	n/a	14	[0, 0, 0]	-999	PAL1	2	R1185N
1833.531	0.851	2009937	TEST_ORIENT	n/a	n/a	1	3	GRAPE	n/a	SLEEVE	GRAPE	14	[0, 0, 0]	-999	PAL1	2	R1185N
1834.382	0.001	2010788	TEST_PROBE	n/a	wordpools/wordpool_EN.txt	1	3	GRAPE	n/a	SLEEVE	GRAPE	14	[0, 0, 0]	-999	PAL1	2	R1185N
1834.383	5.009	2010789	REC_START	n/a	n/a	1	-999	n/a	n/a	n/a	n/a	14	[0, 0, 0]	-999	PAL1	2	R1185N
1839.392	0.0	2015797	REC_EVENT	5009	n/a	1	3	GRAPE	<>	SLEEVE	GRAPE	14	[0, 0, 0]	-999	PAL1	2	R1185N
1839.392	0.007	2015797	REC_END	n/a	n/a	1	-999	n/a	n/a	n/a	n/a	14	[0, 0, 0]	-999	PAL1	2	R1185N
1839.399	1.034	2015804	TEST_ORIENT	n/a	n/a	2	4	BATH	n/a	FLUTE	BATH	14	[0, 0, 0]	-999	PAL1	2	R1185N
1840.433	0.0	2016838	TEST_PROBE	n/a	wordpools/wordpool_EN.txt	2	4	BATH	n/a	FLUTE	BATH	14	[0, 0, 0]	-999	PAL1	2	R1185N
1840.433	5.018	2016838	REC_START	n/a	n/a	2	-999	n/a	n/a	n/a	n/a	14	[0, 0, 0]	-999	PAL1	2	R1185N
1845.451	0.003	2021856	REC_END	n/a	n/a	2	-999	n/a	n/a	n/a	n/a	14	[0, 0, 0]	-999	PAL1	2	R1185N
1845.454	0.013	2021859	REC_EVENT	5021	n/a	2	4	BATH	<>	FLUTE	BATH	14	[0, 0, 0]	-999	PAL1	2	R1185N
1845.467	0.851	2021872	TEST_ORIENT	n/a	n/a	5	5	PEACH	BATH	PEACH	MAP	14	[0, 0, 0]	-999	PAL1	2	R1185N
1846.318	0.0	2022723	TEST_PROBE	n/a	wordpools/wordpool_EN.txt	5	5	PEACH	BATH	PEACH	MAP	14	[0, 0, 0]	-999	PAL1	2	R1185N
1846.318	1.424	2022723	REC_START	n/a	n/a	5	-999	n/a	BATH	n/a	n/a	14	[0, 0, 0]	-999	PAL1	2	R1185N
1847.742	3.593	2024147	REC_EVENT	1424	n/a	5	5	PEACH	BATH	PEACH	MAP	14	[0, 0, 0]	-999	PAL1	2	R1185N
1851.335	0.017	2027740	REC_END	n/a	n/a	5	-999	n/a	n/a	n/a	n/a	14	[0, 0, 0]	-999	PAL1	2	R1185N
1851.352	0.883	2027757	TEST_ORIENT	n/a	n/a	6	6	WOLF	CASH	WOLF	CASH	14	[0, 0, 0]	-999	PAL1	2	R1185N
1852.235	0.001	2028640	TEST_PROBE	n/a	wordpools/wordpool_EN.txt	6	6	WOLF	CASH	WOLF	CASH	14	[0, 0, 0]	-999	PAL1	2	R1185N
1852.236	1.055	2028641	REC_START	n/a	n/a	6	-999	n/a	CASH	n/a	n/a	14	[0, 0, 0]	-999	PAL1	2	R1185N
1853.291	3.954	2029696	REC_EVENT	1055	n/a	6	6	WOLF	CASH	WOLF	CASH	14	[0, 0, 0]	-999	PAL1	2	R1185N
1857.245	1.873	2033650	REC_END	n/a	n/a	6	-999	n/a	n/a	n/a	n/a	14	[0, 0, 0]	-999	PAL1	2	R1185N
1859.118	10.452	2035523	ENCODING_START	n/a	n/a	0	-999	n/a	n/a	n/a	n/a	15	[0, 0, 0]	-999	PAL1	2	R1185N
1869.57	1.001	2045974	STUDY_ORIENT	n/a	n/a	1	1	TRAY	n/a	ROOF	TRAY	15	[0, 0, 0]	-999	PAL1	2	R1185N
1870.571	5.034	2046975	STUDY_PAIR	n/a	wordpools/wordpool_EN.txt	1	1	TRAY	n/a	ROOF	TRAY	15	[0, 0, 0]	-999	PAL1	2	R1185N
1875.605	0.818	2052009	STUDY_ORIENT	n/a	n/a	2	2	SHIELD	n/a	SHIELD	MOTH	15	[0, 0, 0]	-999	PAL1	2	R1185N
1876.423	5.034	2052827	STUDY_PAIR	n/a	wordpools/wordpool_EN.txt	2	2	SHIELD	n/a	SHIELD	MOTH	15	[0, 0, 0]	-999	PAL1	2	R1185N
1881.457	0.9	2057861	STUDY_ORIENT	n/a	n/a	3	5	MUG	n/a	BOOK	MUG	15	[0, 0, 0]	-999	PAL1	2	R1185N
1882.357	5.034	2058761	STUDY_PAIR	n/a	wordpools/wordpool_EN.txt	3	5	MUG	n/a	BOOK	MUG	15	[0, 0, 0]	-999	PAL1	2	R1185N
1887.391	0.95	2063795	STUDY_ORIENT	n/a	n/a	4	4	DOG	SHIELD	DOG	SUIT	15	[0, 0, 0]	-999	PAL1	2	R1185N
1888.341	5.018	2064745	STUDY_PAIR	n/a	wordpools/wordpool_EN.txt	4	4	DOG	SHIELD	DOG	SUIT	15	[0, 0, 0]	-999	PAL1	2	R1185N
1893.359	0.95	2069762	STUDY_ORIENT	n/a	n/a	5	3	CLOTH	JUDGE	JUDGE	CLOTH	15	[0, 0, 0]	-999	PAL1	2	R1185N
1894.309	5.034	2070712	STUDY_PAIR	n/a	wordpools/wordpool_EN.txt	5	3	CLOTH	JUDGE	JUDGE	CLOTH	15	[0, 0, 0]	-999	PAL1	2	R1185N
1899.343	0.934	2075746	STUDY_ORIENT	n/a	n/a	6	6	CLAY	BALL	CLAY	BALL	15	[0, 0, 0]	-999	PAL1	2	R1185N
1900.277	4.018	2076680	STUDY_PAIR	n/a	wordpools/wordpool_EN.txt	6	6	CLAY	BALL	CLAY	BALL	15	[0, 0, 0]	-999	PAL1	2	R1185N
1904.295	0.999	2080698	START	n/a	n/a	-999	-999	n/a	n/a	n/a	n/a	15	[-999, -999, -999]	-999	PAL1	2	R1185N
1905.294	0.017	2081697	MATH_START	n/a	n/a	-999	-999	n/a	n/a	n/a	n/a	15	[0, 0, 0]	-999	PAL1	2	R1185N
1905.311	9.768	2081714	PROB	9735	n/a	-999	-999	n/a	n/a	n/a	n/a	15	[8, 5, 4]	17	PAL1	2	R1185N
1915.079	7.285	2091482	PROB	7255	n/a	-999	-999	n/a	n/a	n/a	n/a	15	[8, 3, 9]	20	PAL1	2	R1185N
1922.364	3.498	2098766	PROB	3498	n/a	-999	-999	n/a	n/a	n/a	n/a	15	[4, 2, 6]	12	PAL1	2	R1185N
1925.862	0.002	2102264	STOP	n/a	n/a	-999	-999	n/a	n/a	n/a	n/a	15	[-999, -999, -999]	-999	PAL1	2	R1185N
1925.864	0.0	2102266	MATH_END	n/a	n/a	-999	-999	n/a	n/a	n/a	n/a	15	[0, 0, 0]	-999	PAL1	2	R1185N
1925.864	0.017	2102266	TEST_START	n/a	n/a	-999	-999	n/a	n/a	n/a	n/a	15	[0, 0, 0]	-999	PAL1	2	R1185N
1925.881	0.799	2102283	TEST_ORIENT	n/a	n/a	1	1	TRAY	n/a	ROOF	TRAY	15	[0, 0, 0]	-999	PAL1	2	R1185N
1926.68	0.001	2103082	TEST_PROBE	n/a	wordpools/wordpool_EN.txt	1	1	TRAY	n/a	ROOF	TRAY	15	[0, 0, 0]	-999	PAL1	2	R1185N
1926.681	1.56	2103083	REC_START	n/a	n/a	1	-999	n/a	n/a	n/a	n/a	15	[0, 0, 0]	-999	PAL1	2	R1185N
1928.241	1.298	2104643	REC_EVENT	1560	n/a	1	1	TRAY	<>	ROOF	TRAY	15	[0, 0, 0]	-999	PAL1	2	R1185N
1929.539	2.151	2105941	REC_EVENT	2858	n/a	1	1	TRAY	<>	ROOF	TRAY	15	[0, 0, 0]	-999	PAL1	2	R1185N
1931.69	0.008	2108092	REC_END	n/a	n/a	1	-999	n/a	n/a	n/a	n/a	15	[0, 0, 0]	-999	PAL1	2	R1185N
1931.698	0.801	2108100	TEST_ORIENT	n/a	n/a	2	2	SHIELD	n/a	SHIELD	MOTH	15	[0, 0, 0]	-999	PAL1	2	R1185N
1932.499	0.0	2108901	TEST_PROBE	n/a	wordpools/wordpool_EN.txt	2	2	SHIELD	n/a	SHIELD	MOTH	15	[0, 0, 0]	-999	PAL1	2	R1185N
1932.499	5.015	2108901	REC_START	n/a	n/a	2	-999	n/a	n/a	n/a	n/a	15	[0, 0, 0]	-999	PAL1	2	R1185N
1937.514	0.001	2113916	REC_EVENT	5015	n/a	2	2	SHIELD	<>	SHIELD	MOTH	15	[0, 0, 0]	-999	PAL1	2	R1185N
1937.515	0.017	2113917	REC_END	n/a	n/a	2	-999	n/a	n/a	n/a	n/a	15	[0, 0, 0]	-999	PAL1	2	R1185N
1937.532	0.934	2113934	TEST_ORIENT	n/a	n/a	5	3	CLOTH	JUDGE	JUDGE	CLOTH	15	[0, 0, 0]	-999	PAL1	2	R1185N
1938.466	0.001	2114868	TEST_PROBE	n/a	wordpools/wordpool_EN.txt	5	3	CLOTH	JUDGE	JUDGE	CLOTH	15	[0, 0, 0]	-999	PAL1	2	R1185N
1938.467	1.687	2114869	REC_START	n/a	n/a	5	-999	n/a	JUDGE	n/a	n/a	15	[0, 0, 0]	-999	PAL1	2	R1185N
1940.154	3.322	2116556	REC_EVENT	1687	n/a	5	3	CLOTH	JUDGE	JUDGE	CLOTH	15	[0, 0, 0]	-999	PAL1	2	R1185N
1943.476	0.008	2119878	REC_END	n/a	n/a	5	-999	n/a	n/a	n/a	n/a	15	[0, 0, 0]	-999	PAL1	2	R1185N
1943.484	0.917	2119886	TEST_ORIENT	n/a	n/a	4	4	DOG	SHIELD	DOG	SUIT	15	[0, 0, 0]	-999	PAL1	2	R1185N
1944.401	0.0	2120803	TEST_PROBE	n/a	wordpools/wordpool_EN.txt	4	4	DOG	SHIELD	DOG	SUIT	15	[0, 0, 0]	-999	PAL1	2	R1185N
1944.401	4.131	2120803	REC_START	n/a	n/a	4	-999	n/a	SHIELD	n/a	n/a	15	[0, 0, 0]	-999	PAL1	2	R1185N
1948.532	0.886	2124933	REC_EVENT	4131	n/a	4	4	DOG	SHIELD	DOG	SUIT	15	[0, 0, 0]	-999	PAL1	2	R1185N
1949.418	0.017	2125819	REC_END	n/a	n/a	4	-999	n/a	n/a	n/a	n/a	15	[0, 0, 0]	-999	PAL1	2	R1185N
1949.435	0.917	2125836	TEST_ORIENT	n/a	n/a	3	5	MUG	n/a	BOOK	MUG	15	[0, 0, 0]	-999	PAL1	2	R1185N
1950.352	0.0	2126753	REC_START	n/a	n/a	3	-999	n/a	n/a	n/a	n/a	15	[0, 0, 0]	-999	PAL1	2	R1185N
1950.352	5.017	2126753	TEST_PROBE	n/a	wordpools/wordpool_EN.txt	3	5	MUG	n/a	BOOK	MUG	15	[0, 0, 0]	-999	PAL1	2	R1185N
1955.369	0.004	2131770	REC_END	n/a	n/a	3	-999	n/a	n/a	n/a	n/a	15	[0, 0, 0]	-999	PAL1	2	R1185N
1955.373	0.013	2131774	REC_EVENT	5021	n/a	3	5	MUG	<>	BOOK	MUG	15	[0, 0, 0]	-999	PAL1	2	R1185N
1955.386	0.817	2131787	TEST_ORIENT	n/a	n/a	6	6	CLAY	BALL	CLAY	BALL	15	[0, 0, 0]	-999	PAL1	2	R1185N
1956.203	0.0	2132604	TEST_PROBE	n/a	wordpools/wordpool_EN.txt	6	6	CLAY	BALL	CLAY	BALL	15	[0, 0, 0]	-999	PAL1	2	R1185N
1956.203	1.25	2132604	REC_START	n/a	n/a	6	-999	n/a	BALL	n/a	n/a	15	[0, 0, 0]	-999	PAL1	2	R1185N
1957.453	3.767	2133854	REC_EVENT	1250	n/a	6	6	CLAY	BALL	CLAY	BALL	15	[0, 0, 0]	-999	PAL1	2	R1185N
1961.22	1.714	2137621	REC_END	n/a	n/a	6	-999	n/a	n/a	n/a	n/a	15	[0, 0, 0]	-999	PAL1	2	R1185N
1962.934	10.438	2139335	ENCODING_START	n/a	n/a	0	-999	n/a	n/a	n/a	n/a	16	[0, 0, 0]	-999	PAL1	2	R1185N
1973.372	0.884	2149772	STUDY_ORIENT	n/a	n/a	1	1	BANK	SWAMP	BANK	SWAMP	16	[0, 0, 0]	-999	PAL1	2	R1185N
1974.256	5.034	2150656	STUDY_PAIR	n/a	wordpools/wordpool_EN.txt	1	1	BANK	SWAMP	BANK	SWAMP	16	[0, 0, 0]	-999	PAL1	2	R1185N
1979.29	0.884	2155690	STUDY_ORIENT	n/a	n/a	2	6	HEN	STREET	STREET	HEN	16	[0, 0, 0]	-999	PAL1	2	R1185N
1980.174	5.034	2156574	STUDY_PAIR	n/a	wordpools/wordpool_EN.txt	2	6	HEN	STREET	STREET	HEN	16	[0, 0, 0]	-999	PAL1	2	R1185N
1985.208	0.916	2161608	STUDY_ORIENT	n/a	n/a	3	5	PLATE	WATER	PLATE	LAKE	16	[0, 0, 0]	-999	PAL1	2	R1185N
1986.124	5.018	2162524	STUDY_PAIR	n/a	wordpools/wordpool_EN.txt	3	5	PLATE	WATER	PLATE	LAKE	16	[0, 0, 0]	-999	PAL1	2	R1185N
1991.142	0.8	2167542	STUDY_ORIENT	n/a	n/a	4	4	STAR	CLIFF	CLIFF	STAR	16	[0, 0, 0]	-999	PAL1	2	R1185N
1991.942	5.018	2168342	STUDY_PAIR	n/a	wordpools/wordpool_EN.txt	4	4	STAR	CLIFF	CLIFF	STAR	16	[0, 0, 0]	-999	PAL1	2	R1185N
1996.96	0.85	2173360	STUDY_ORIENT	n/a	n/a	5	3	SHIP	n/a	SHIP	CLOCK	16	[0, 0, 0]	-999	PAL1	2	R1185N
1997.81	5.034	2174210	STUDY_PAIR	n/a	wordpools/wordpool_EN.txt	5	3	SHIP	n/a	SHIP	CLOCK	16	[0, 0, 0]	-999	PAL1	2	R1185N
2002.844	0.833	2179243	STUDY_ORIENT	n/a	n/a	6	2	ANT	n/a	PEAR	ANT	16	[0, 0, 0]	-999	PAL1	2	R1185N
2003.677	4.017	2180076	STUDY_PAIR	n/a	wordpools/wordpool_EN.txt	6	2	ANT	n/a	PEAR	ANT	16	[0, 0, 0]	-999	PAL1	2	R1185N
2007.694	1.0	2184093	START	n/a	n/a	-999	-999	n/a	n/a	n/a	n/a	16	[-999, -999, -999]	-999	PAL1	2	R1185N
2008.694	0.017	2185093	MATH_START	n/a	n/a	-999	-999	n/a	n/a	n/a	n/a	16	[0, 0, 0]	-999	PAL1	2	R1185N
2008.711	9.752	2185110	PROB	9727	n/a	-999	-999	n/a	n/a	n/a	n/a	16	[5, 8, 7]	20	PAL1	2	R1185N
2018.463	5.251	2194862	PROB	5230	n/a	-999	-999	n/a	n/a	n/a	n/a	16	[1, 6, 4]	11	PAL1	2	R1185N
2023.714	4.915	2200113	PROB	4915	n/a	-999	-999	n/a	n/a	n/a	n/a	16	[1, 4, 6]	11	PAL1	2	R1185N
2028.629	0.018	2205027	STOP	n/a	n/a	-999	-999	n/a	n/a	n/a	n/a	16	[-999, -999, -999]	-999	PAL1	2	R1185N
2028.647	0.0	2205045	MATH_END	n/a	n/a	-999	-999	n/a	n/a	n/a	n/a	16	[0, 0, 0]	-999	PAL1	2	R1185N
2028.647	0.017	2205045	TEST_START	n/a	n/a	-999	-999	n/a	n/a	n/a	n/a	16	[0, 0, 0]	-999	PAL1	2	R1185N
2028.664	0.9	2205062	TEST_ORIENT	n/a	n/a	1	1	BANK	SWAMP	BANK	SWAMP	16	[0, 0, 0]	-999	PAL1	2	R1185N
2029.564	0.001	2205962	TEST_PROBE	n/a	wordpools/wordpool_EN.txt	1	1	BANK	SWAMP	BANK	SWAMP	16	[0, 0, 0]	-999	PAL1	2	R1185N
2029.565	2.563	2205963	REC_START	n/a	n/a	1	-999	n/a	SWAMP	n/a	n/a	16	[0, 0, 0]	-999	PAL1	2	R1185N
2032.128	2.446	2208526	REC_EVENT	2563	n/a	1	1	BANK	SWAMP	BANK	SWAMP	16	[0, 0, 0]	-999	PAL1	2	R1185N
2034.574	0.007	2210972	REC_END	n/a	n/a	1	-999	n/a	n/a	n/a	n/a	16	[0, 0, 0]	-999	PAL1	2	R1185N
2034.581	0.819	2210979	TEST_ORIENT	n/a	n/a	6	2	ANT	n/a	PEAR	ANT	16	[0, 0, 0]	-999	PAL1	2	R1185N
2035.4	0.0	2211798	TEST_PROBE	n/a	wordpools/wordpool_EN.txt	6	2	ANT	n/a	PEAR	ANT	16	[0, 0, 0]	-999	PAL1	2	R1185N
2035.4	5.015	2211798	REC_START	n/a	n/a	6	-999	n/a	n/a	n/a	n/a	16	[0, 0, 0]	-999	PAL1	2	R1185N
2040.415	0.002	2216813	REC_EVENT	5015	n/a	6	2	ANT	<>	PEAR	ANT	16	[0, 0, 0]	-999	PAL1	2	R1185N
2040.417	0.017	2216815	REC_END	n/a	n/a	6	-999	n/a	n/a	n/a	n/a	16	[0, 0, 0]	-999	PAL1	2	R1185N
2040.434	0.983	2216832	TEST_ORIENT	n/a	n/a	5	3	SHIP	n/a	SHIP	CLOCK	16	[0, 0, 0]	-999	PAL1	2	R1185N
2041.417	0.001	2217815	TEST_PROBE	n/a	wordpools/wordpool_EN.txt	5	3	SHIP	n/a	SHIP	CLOCK	16	[0, 0, 0]	-999	PAL1	2	R1185N
2041.418	5.009	2217816	REC_START	n/a	n/a	5	-999	n/a	n/a	n/a	n/a	16	[0, 0, 0]	-999	PAL1	2	R1185N
2046.427	0.0	2222825	REC_EVENT	5009	n/a	5	3	SHIP	<>	SHIP	CLOCK	16	[0, 0, 0]	-999	PAL1	2	R1185N
2046.427	0.007	2222825	REC_END	n/a	n/a	5	-999	n/a	n/a	n/a	n/a	16	[0, 0, 0]	-999	PAL1	2	R1185N
2046.434	0.818	2222832	TEST_ORIENT	n/a	n/a	4	4	STAR	CLIFF	CLIFF	STAR	16	[0, 0, 0]	-999	PAL1	2	R1185N
2047.252	0.0	2223650	TEST_PROBE	n/a	wordpools/wordpool_EN.txt	4	4	STAR	CLIFF	CLIFF	STAR	16	[0, 0, 0]	-999	PAL1	2	R1185N
2047.252	1.807	2223650	REC_START	n/a	n/a	4	-999	n/a	CLIFF	n/a	n/a	16	[0, 0, 0]	-999	PAL1	2	R1185N
2049.059	3.21	2225457	REC_EVENT	1807	n/a	4	4	STAR	CLIFF	CLIFF	STAR	16	[0, 0, 0]	-999	PAL1	2	R1185N
2052.269	0.017	2228666	REC_END	n/a	n/a	4	-999	n/a	n/a	n/a	n/a	16	[0, 0, 0]	-999	PAL1	2	R1185N
2052.286	0.8	2228683	TEST_ORIENT	n/a	n/a	3	5	PLATE	WATER	PLATE	LAKE	16	[0, 0, 0]	-999	PAL1	2	R1185N
2053.086	0.0	2229483	REC_START	n/a	n/a	3	-999	n/a	WATER	n/a	n/a	16	[0, 0, 0]	-999	PAL1	2	R1185N
2053.086	3.35	2229483	TEST_PROBE	n/a	wordpools/wordpool_EN.txt	3	5	PLATE	WATER	PLATE	LAKE	16	[0, 0, 0]	-999	PAL1	2	R1185N
2056.436	1.667	2232833	REC_EVENT	3350	n/a	3	5	PLATE	WATER	PLATE	LAKE	16	[0, 0, 0]	-999	PAL1	2	R1185N
2058.103	0.017	2234500	REC_END	n/a	n/a	3	-999	n/a	n/a	n/a	n/a	16	[0, 0, 0]	-999	PAL1	2	R1185N
2058.12	0.85	2234517	TEST_ORIENT	n/a	n/a	2	6	HEN	STREET	STREET	HEN	16	[0, 0, 0]	-999	PAL1	2	R1185N
2058.97	0.001	2235367	TEST_PROBE	n/a	wordpools/wordpool_EN.txt	2	6	HEN	STREET	STREET	HEN	16	[0, 0, 0]	-999	PAL1	2	R1185N
2058.971	1.175	2235368	REC_START	n/a	n/a	2	-999	n/a	STREET	n/a	n/a	16	[0, 0, 0]	-999	PAL1	2	R1185N
2060.146	3.825	2236543	REC_EVENT	1175	n/a	2	6	HEN	STREET	STREET	HEN	16	[0, 0, 0]	-999	PAL1	2	R1185N
2063.971	1.955	2240368	REC_END	n/a	n/a	2	-999	n/a	n/a	n/a	n/a	16	[0, 0, 0]	-999	PAL1	2	R1185N
2065.926	10.447	2242323	ENCODING_START	n/a	n/a	0	-999	n/a	n/a	n/a	n/a	17	[0, 0, 0]	-999	PAL1	2	R1185N
2076.373	0.9	2252770	STUDY_ORIENT	n/a	n/a	1	1	PEARL	n/a	PEARL	FUDGE	17	[0, 0, 0]	-999	PAL1	2	R1185N
2077.273	5.018	2253670	STUDY_PAIR	n/a	wordpools/wordpool_EN.txt	1	1	PEARL	n/a	PEARL	FUDGE	17	[0, 0, 0]	-999	PAL1	2	R1185N
2082.291	0.85	2258687	STUDY_ORIENT	n/a	n/a	2	4	CLOWN	n/a	CLOWN	ICE	17	[0, 0, 0]	-999	PAL1	2	R1185N
2083.141	5.034	2259537	STUDY_PAIR	n/a	wordpools/wordpool_EN.txt	2	4	CLOWN	n/a	CLOWN	ICE	17	[0, 0, 0]	-999	PAL1	2	R1185N
2088.175	0.934	2264571	STUDY_ORIENT	n/a	n/a	3	3	TENT	n/a	HORSE	TENT	17	[0, 0, 0]	-999	PAL1	2	R1185N
2089.109	5.034	2265505	STUDY_PAIR	n/a	wordpools/wordpool_EN.txt	3	3	TENT	n/a	HORSE	TENT	17	[0, 0, 0]	-999	PAL1	2	R1185N
2094.143	0.95	2270539	STUDY_ORIENT	n/a	n/a	4	6	TEETH	n/a	SHIRT	TEETH	17	[0, 0, 0]	-999	PAL1	2	R1185N
2095.093	5.034	2271489	STUDY_PAIR	n/a	wordpools/wordpool_EN.txt	4	6	TEETH	n/a	SHIRT	TEETH	17	[0, 0, 0]	-999	PAL1	2	R1185N
2100.127	0.8	2276523	STUDY_ORIENT	n/a	n/a	5	5	LAMB	n/a	CAR	LAMB	17	[0, 0, 0]	-999	PAL1	2	R1185N
2100.927	5.018	2277323	STUDY_PAIR	n/a	wordpools/wordpool_EN.txt	5	5	LAMB	n/a	CAR	LAMB	17	[0, 0, 0]	-999	PAL1	2	R1185N
2105.945	0.833	2282340	STUDY_ORIENT	n/a	n/a	6	2	RIB	LAMB	RIB	PALM	17	[0, 0, 0]	-999	PAL1	2	R1185N
2106.778	4.001	2283173	STUDY_PAIR	n/a	wordpools/wordpool_EN.txt	6	2	RIB	LAMB	RIB	PALM	17	[0, 0, 0]	-999	PAL1	2	R1185N
2110.779	1.0	2287174	START	n/a	n/a	-999	-999	n/a	n/a	n/a	n/a	17	[-999, -999, -999]	-999	PAL1	2	R1185N
2111.779	0.017	2288174	MATH_START	n/a	n/a	-999	-999	n/a	n/a	n/a	n/a	17	[0, 0, 0]	-999	PAL1	2	R1185N
2111.796	4.9	2288191	PROB	4873	n/a	-999	-999	n/a	n/a	n/a	n/a	17	[6, 6, 6]	18	PAL1	2	R1185N
2116.696	8.152	2293091	PROB	8126	n/a	-999	-999	n/a	n/a	n/a	n/a	17	[7, 5, 9]	21	PAL1	2	R1185N
2124.848	10.406	2301243	PROB	10406	n/a	-999	-999	n/a	n/a	n/a	n/a	17	[2, 7, 5]	16	PAL1	2	R1185N
2135.254	0.012	2311648	STOP	n/a	n/a	-999	-999	n/a	n/a	n/a	n/a	17	[-999, -999, -999]	-999	PAL1	2	R1185N
2135.266	0.0	2311660	MATH_END	n/a	n/a	-999	-999	n/a	n/a	n/a	n/a	17	[0, 0, 0]	-999	PAL1	2	R1185N
2135.266	0.017	2311660	TEST_START	n/a	n/a	-999	-999	n/a	n/a	n/a	n/a	17	[0, 0, 0]	-999	PAL1	2	R1185N
2135.283	0.95	2311677	TEST_ORIENT	n/a	n/a	1	1	PEARL	n/a	PEARL	FUDGE	17	[0, 0, 0]	-999	PAL1	2	R1185N
2136.233	0.001	2312627	TEST_PROBE	n/a	wordpools/wordpool_EN.txt	1	1	PEARL	n/a	PEARL	FUDGE	17	[0, 0, 0]	-999	PAL1	2	R1185N
2136.234	5.003	2312628	REC_START	n/a	n/a	1	-999	n/a	n/a	n/a	n/a	17	[0, 0, 0]	-999	PAL1	2	R1185N
2141.237	0.006	2317631	REC_EVENT	5003	n/a	1	1	PEARL	<>	PEARL	FUDGE	17	[0, 0, 0]	-999	PAL1	2	R1185N
2141.243	0.008	2317637	REC_END	n/a	n/a	1	-999	n/a	n/a	n/a	n/a	17	[0, 0, 0]	-999	PAL1	2	R1185N
2141.251	1.033	2317645	TEST_ORIENT	n/a	n/a	6	2	RIB	LAMB	RIB	PALM	17	[0, 0, 0]	-999	PAL1	2	R1185N
2142.284	0.001	2318678	TEST_PROBE	n/a	wordpools/wordpool_EN.txt	6	2	RIB	LAMB	RIB	PALM	17	[0, 0, 0]	-999	PAL1	2	R1185N
2142.285	3.857	2318679	REC_START	n/a	n/a	6	-999	n/a	LAMB	n/a	n/a	17	[0, 0, 0]	-999	PAL1	2	R1185N
2146.142	1.152	2322536	REC_EVENT	3857	n/a	6	2	RIB	LAMB	RIB	PALM	17	[0, 0, 0]	-999	PAL1	2	R1185N
2147.294	0.008	2323688	REC_END	n/a	n/a	6	-999	n/a	n/a	n/a	n/a	17	[0, 0, 0]	-999	PAL1	2	R1185N
2147.302	0.9	2323696	TEST_ORIENT	n/a	n/a	3	3	TENT	n/a	HORSE	TENT	17	[0, 0, 0]	-999	PAL1	2	R1185N
2148.202	0.0	2324596	REC_START	n/a	n/a	3	-999	n/a	n/a	n/a	n/a	17	[0, 0, 0]	-999	PAL1	2	R1185N
2148.202	5.015	2324596	TEST_PROBE	n/a	wordpools/wordpool_EN.txt	3	3	TENT	n/a	HORSE	TENT	17	[0, 0, 0]	-999	PAL1	2	R1185N
2153.217	0.002	2329611	REC_EVENT	5015	n/a	3	3	TENT	<>	HORSE	TENT	17	[0, 0, 0]	-999	PAL1	2	R1185N
2153.219	0.017	2329613	REC_END	n/a	n/a	3	-999	n/a	n/a	n/a	n/a	17	[0, 0, 0]	-999	PAL1	2	R1185N
2153.236	0.8	2329630	TEST_ORIENT	n/a	n/a	2	4	CLOWN	n/a	CLOWN	ICE	17	[0, 0, 0]	-999	PAL1	2	R1185N
2154.036	0.0	2330430	TEST_PROBE	n/a	wordpools/wordpool_EN.txt	2	4	CLOWN	n/a	CLOWN	ICE	17	[0, 0, 0]	-999	PAL1	2	R1185N
2154.036	5.018	2330430	REC_START	n/a	n/a	2	-999	n/a	n/a	n/a	n/a	17	[0, 0, 0]	-999	PAL1	2	R1185N
2159.054	0.003	2335447	REC_END	n/a	n/a	2	-999	n/a	n/a	n/a	n/a	17	[0, 0, 0]	-999	PAL1	2	R1185N
2159.057	0.014	2335450	REC_EVENT	5021	n/a	2	4	CLOWN	<>	CLOWN	ICE	17	[0, 0, 0]	-999	PAL1	2	R1185N
2159.071	0.966	2335464	TEST_ORIENT	n/a	n/a	5	5	LAMB	n/a	CAR	LAMB	17	[0, 0, 0]	-999	PAL1	2	R1185N
2160.037	0.001	2336430	TEST_PROBE	n/a	wordpools/wordpool_EN.txt	5	5	LAMB	n/a	CAR	LAMB	17	[0, 0, 0]	-999	PAL1	2	R1185N
2160.038	5.009	2336431	REC_START	n/a	n/a	5	-999	n/a	n/a	n/a	n/a	17	[0, 0, 0]	-999	PAL1	2	R1185N
2165.047	0.001	2341440	REC_EVENT	5009	n/a	5	5	LAMB	<>	CAR	LAMB	17	[0, 0, 0]	-999	PAL1	2	R1185N
2165.048	0.007	2341441	REC_END	n/a	n/a	5	-999	n/a	n/a	n/a	n/a	17	[0, 0, 0]	-999	PAL1	2	R1185N
2165.055	0.983	2341448	TEST_ORIENT	n/a	n/a	4	6	TEETH	n/a	SHIRT	TEETH	17	[0, 0, 0]	-999	PAL1	2	R1185N
2166.038	0.001	2342431	TEST_PROBE	n/a	wordpools/wordpool_EN.txt	4	6	TEETH	n/a	SHIRT	TEETH	17	[0, 0, 0]	-999	PAL1	2	R1185N
2166.039	5.009	2342432	REC_START	n/a	n/a	4	-999	n/a	n/a	n/a	n/a	17	[0, 0, 0]	-999	PAL1	2	R1185N
2171.048	0.0	2347441	REC_END	n/a	n/a	4	-999	n/a	n/a	n/a	n/a	17	[0, 0, 0]	-999	PAL1	2	R1185N
2171.048	3.19	2347441	REC_EVENT	5009	n/a	4	6	TEETH	<>	SHIRT	TEETH	17	[0, 0, 0]	-999	PAL1	2	R1185N
2174.238	10.453	2350631	ENCODING_START	n/a	n/a	0	-999	n/a	n/a	n/a	n/a	18	[0, 0, 0]	-999	PAL1	2	R1185N
2184.691	0.833	2361084	STUDY_ORIENT	n/a	n/a	1	3	DRESS	JAIL	TAIL	DRESS	18	[0, 0, 0]	-999	PAL1	2	R1185N
2185.524	5.034	2361916	STUDY_PAIR	n/a	wordpools/wordpool_EN.txt	1	3	DRESS	JAIL	TAIL	DRESS	18	[0, 0, 0]	-999	PAL1	2	R1185N
2190.558	0.835	2366950	STUDY_ORIENT	n/a	n/a	2	2	BREAD	BOLD	MOLE	BREAD	18	[0, 0, 0]	-999	PAL1	2	R1185N
2191.393	5.034	2367785	STUDY_PAIR	n/a	wordpools/wordpool_EN.txt	2	2	BREAD	BOLD	MOLE	BREAD	18	[0, 0, 0]	-999	PAL1	2	R1185N
2196.427	0.8	2372819	STUDY_ORIENT	n/a	n/a	3	1	JAIL	ARK	JAIL	ARK	18	[0, 0, 0]	-999	PAL1	2	R1185N
2197.227	5.034	2373619	STUDY_PAIR	n/a	wordpools/wordpool_EN.txt	3	1	JAIL	ARK	JAIL	ARK	18	[0, 0, 0]	-999	PAL1	2	R1185N
2202.261	0.933	2378653	STUDY_ORIENT	n/a	n/a	4	4	BOMB	n/a	FLEA	BOMB	18	[0, 0, 0]	-999	PAL1	2	R1185N
2203.194	5.018	2379586	STUDY_PAIR	n/a	wordpools/wordpool_EN.txt	4	4	BOMB	n/a	FLEA	BOMB	18	[0, 0, 0]	-999	PAL1	2	R1185N
2208.212	0.834	2384604	STUDY_ORIENT	n/a	n/a	5	5	LAMP	PIE	PIE	LAMP	18	[0, 0, 0]	-999	PAL1	2	R1185N
2209.046	5.034	2385438	STUDY_PAIR	n/a	wordpools/wordpool_EN.txt	5	5	LAMP	PIE	PIE	LAMP	18	[0, 0, 0]	-999	PAL1	2	R1185N
2214.08	0.883	2390471	STUDY_ORIENT	n/a	n/a	6	6	HOUSE	BIRD	HOUSE	BIRD	18	[0, 0, 0]	-999	PAL1	2	R1185N
2214.963	4.001	2391354	STUDY_PAIR	n/a	wordpools/wordpool_EN.txt	6	6	HOUSE	BIRD	HOUSE	BIRD	18	[0, 0, 0]	-999	PAL1	2	R1185N
2218.964	1.0	2395355	START	n/a	n/a	-999	-999	n/a	n/a	n/a	n/a	18	[-999, -999, -999]	-999	PAL1	2	R1185N
2219.964	0.017	2396355	MATH_START	n/a	n/a	-999	-999	n/a	n/a	n/a	n/a	18	[0, 0, 0]	-999	PAL1	2	R1185N
2219.981	3.9	2396372	PROB	3873	n/a	-999	-999	n/a	n/a	n/a	n/a	18	[3, 1, 9]	13	PAL1	2	R1185N
2223.881	6.452	2400272	PROB	6421	n/a	-999	-999	n/a	n/a	n/a	n/a	18	[2, 3, 9]	14	PAL1	2	R1185N
2230.333	3.033	2406724	PROB	3001	n/a	-999	-999	n/a	n/a	n/a	n/a	18	[5, 7, 5]	17	PAL1	2	R1185N
2233.366	6.311	2409757	PROB	6311	n/a	-999	-999	n/a	n/a	n/a	n/a	18	[2, 9, 5]	16	PAL1	2	R1185N
2239.677	0.006	2416067	STOP	n/a	n/a	-999	-999	n/a	n/a	n/a	n/a	18	[-999, -999, -999]	-999	PAL1	2	R1185N
2239.683	0.0	2416073	MATH_END	n/a	n/a	-999	-999	n/a	n/a	n/a	n/a	18	[0, 0, 0]	-999	PAL1	2	R1185N
2239.683	0.017	2416073	TEST_START	n/a	n/a	-999	-999	n/a	n/a	n/a	n/a	18	[0, 0, 0]	-999	PAL1	2	R1185N
2239.7	0.784	2416090	TEST_ORIENT	n/a	n/a	3	1	JAIL	ARK	JAIL	ARK	18	[0, 0, 0]	-999	PAL1	2	R1185N
2240.484	0.001	2416874	TEST_PROBE	n/a	wordpools/wordpool_EN.txt	3	1	JAIL	ARK	JAIL	ARK	18	[0, 0, 0]	-999	PAL1	2	R1185N
2240.485	1.532	2416875	REC_START	n/a	n/a	3	-999	n/a	ARK	n/a	n/a	18	[0, 0, 0]	-999	PAL1	2	R1185N
2242.017	3.477	2418407	REC_EVENT	1532	n/a	3	1	JAIL	ARK	JAIL	ARK	18	[0, 0, 0]	-999	PAL1	2	R1185N
2245.494	0.007	2421884	REC_END	n/a	n/a	3	-999	n/a	n/a	n/a	n/a	18	[0, 0, 0]	-999	PAL1	2	R1185N
2245.501	0.784	2421891	TEST_ORIENT	n/a	n/a	2	2	BREAD	BOLD	MOLE	BREAD	18	[0, 0, 0]	-999	PAL1	2	R1185N
2246.285	0.001	2422675	TEST_PROBE	n/a	wordpools/wordpool_EN.txt	2	2	BREAD	BOLD	MOLE	BREAD	18	[0, 0, 0]	-999	PAL1	2	R1185N
2246.286	3.492	2422676	REC_START	n/a	n/a	2	-999	n/a	BOLD	n/a	n/a	18	[0, 0, 0]	-999	PAL1	2	R1185N
2249.778	1.518	2426168	REC_EVENT	3492	n/a	2	2	BREAD	BOLD	MOLE	BREAD	18	[0, 0, 0]	-999	PAL1	2	R1185N
2251.296	0.006	2427686	REC_END	n/a	n/a	2	-999	n/a	n/a	n/a	n/a	18	[0, 0, 0]	-999	PAL1	2	R1185N
2251.302	0.951	2427692	TEST_ORIENT	n/a	n/a	1	3	DRESS	JAIL	TAIL	DRESS	18	[0, 0, 0]	-999	PAL1	2	R1185N
2252.253	0.0	2428643	TEST_PROBE	n/a	wordpools/wordpool_EN.txt	1	3	DRESS	JAIL	TAIL	DRESS	18	[0, 0, 0]	-999	PAL1	2	R1185N
2252.253	1.125	2428643	REC_START	n/a	n/a	1	-999	n/a	JAIL	n/a	n/a	18	[0, 0, 0]	-999	PAL1	2	R1185N
2253.378	3.892	2429768	REC_EVENT	1125	n/a	1	3	DRESS	JAIL	TAIL	DRESS	18	[0, 0, 0]	-999	PAL1	2	R1185N
2257.27	0.017	2433660	REC_END	n/a	n/a	1	-999	n/a	n/a	n/a	n/a	18	[0, 0, 0]	-999	PAL1	2	R1185N
2257.287	0.884	2433677	TEST_ORIENT	n/a	n/a	4	4	BOMB	n/a	FLEA	BOMB	18	[0, 0, 0]	-999	PAL1	2	R1185N
2258.171	0.0	2434561	TEST_PROBE	n/a	wordpools/wordpool_EN.txt	4	4	BOMB	n/a	FLEA	BOMB	18	[0, 0, 0]	-999	PAL1	2	R1185N
2258.171	5.015	2434561	REC_START	n/a	n/a	4	-999	n/a	n/a	n/a	n/a	18	[0, 0, 0]	-999	PAL1	2	R1185N
2263.186	0.002	2439576	REC_EVENT	5015	n/a	4	4	BOMB	<>	FLEA	BOMB	18	[0, 0, 0]	-999	PAL1	2	R1185N
2263.188	0.017	2439578	REC_END	n/a	n/a	4	-999	n/a	n/a	n/a	n/a	18	[0, 0, 0]	-999	PAL1	2	R1185N
2263.205	0.917	2439595	TEST_ORIENT	n/a	n/a	5	5	LAMP	PIE	PIE	LAMP	18	[0, 0, 0]	-999	PAL1	2	R1185N
2264.122	0.0	2440512	TEST_PROBE	n/a	wordpools/wordpool_EN.txt	5	5	LAMP	PIE	PIE	LAMP	18	[0, 0, 0]	-999	PAL1	2	R1185N
2264.122	1.977	2440512	REC_START	n/a	n/a	5	-999	n/a	PIE	n/a	n/a	18	[0, 0, 0]	-999	PAL1	2	R1185N
2266.099	3.04	2442488	REC_EVENT	1977	n/a	5	5	LAMP	PIE	PIE	LAMP	18	[0, 0, 0]	-999	PAL1	2	R1185N
2269.139	0.017	2445528	REC_END	n/a	n/a	5	-999	n/a	n/a	n/a	n/a	18	[0, 0, 0]	-999	PAL1	2	R1185N
2269.156	0.9	2445545	TEST_ORIENT	n/a	n/a	6	6	HOUSE	BIRD	HOUSE	BIRD	18	[0, 0, 0]	-999	PAL1	2	R1185N
2270.056	0.0	2446445	TEST_PROBE	n/a	wordpools/wordpool_EN.txt	6	6	HOUSE	BIRD	HOUSE	BIRD	18	[0, 0, 0]	-999	PAL1	2	R1185N
2270.056	1.592	2446445	REC_START	n/a	n/a	6	-999	n/a	BIRD	n/a	n/a	18	[0, 0, 0]	-999	PAL1	2	R1185N
2271.648	3.425	2448037	REC_EVENT	1592	n/a	6	6	HOUSE	BIRD	HOUSE	BIRD	18	[0, 0, 0]	-999	PAL1	2	R1185N
2275.073	2.532	2451462	REC_END	n/a	n/a	6	-999	n/a	n/a	n/a	n/a	18	[0, 0, 0]	-999	PAL1	2	R1185N
2277.605	10.454	2453994	ENCODING_START	n/a	n/a	0	-999	n/a	n/a	n/a	n/a	19	[0, 0, 0]	-999	PAL1	2	R1185N
2288.059	0.967	2464448	STUDY_ORIENT	n/a	n/a	1	1	SEAL	BOAT	SEAL	BOAT	19	[0, 0, 0]	-999	PAL1	2	R1185N
2289.026	5.034	2465415	STUDY_PAIR	n/a	wordpools/wordpool_EN.txt	1	1	SEAL	BOAT	SEAL	BOAT	19	[0, 0, 0]	-999	PAL1	2	R1185N
2294.06	0.933	2470448	STUDY_ORIENT	n/a	n/a	2	4	MAZE	MAIL	MAIL	MAZE	19	[0, 0, 0]	-999	PAL1	2	R1185N
2294.993	5.018	2471381	STUDY_PAIR	n/a	wordpools/wordpool_EN.txt	2	4	MAZE	MAIL	MAIL	MAZE	19	[0, 0, 0]	-999	PAL1	2	R1185N
2300.011	0.967	2476399	STUDY_ORIENT	n/a	n/a	3	5	CAPE	JET	JET	CAPE	19	[0, 0, 0]	-999	PAL1	2	R1185N
2300.978	5.034	2477366	STUDY_PAIR	n/a	wordpools/wordpool_EN.txt	3	5	CAPE	JET	JET	CAPE	19	[0, 0, 0]	-999	PAL1	2	R1185N
2306.012	0.933	2482400	STUDY_ORIENT	n/a	n/a	4	2	PET	FUR	PET	FUR	19	[0, 0, 0]	-999	PAL1	2	R1185N
2306.945	5.018	2483333	STUDY_PAIR	n/a	wordpools/wordpool_EN.txt	4	2	PET	FUR	PET	FUR	19	[0, 0, 0]	-999	PAL1	2	R1185N
2311.963	0.817	2488351	STUDY_ORIENT	n/a	n/a	5	3	WEB	NET	WEB	NET	19	[0, 0, 0]	-999	PAL1	2	R1185N
2312.78	5.034	2489168	STUDY_PAIR	n/a	wordpools/wordpool_EN.txt	5	3	WEB	NET	WEB	NET	19	[0, 0, 0]	-999	PAL1	2	R1185N
2317.814	0.883	2494202	STUDY_ORIENT	n/a	n/a	6	6	FOG	MUD	FOG	MUD	19	[0, 0, 0]	-999	PAL1	2	R1185N
2318.697	4.019	2495084	STUDY_PAIR	n/a	wordpools/wordpool_EN.txt	6	6	FOG	MUD	FOG	MUD	19	[0, 0, 0]	-999	PAL1	2	R1185N
2322.716	0.999	2499103	START	n/a	n/a	-999	-999	n/a	n/a	n/a	n/a	19	[-999, -999, -999]	-999	PAL1	2	R1185N
2323.715	0.017	2500102	MATH_START	n/a	n/a	-999	-999	n/a	n/a	n/a	n/a	19	[0, 0, 0]	-999	PAL1	2	R1185N
2323.732	4.284	2500119	PROB	4258	n/a	-999	-999	n/a	n/a	n/a	n/a	19	[5, 5, 8]	18	PAL1	2	R1185N
2328.016	5.784	2504403	PROB	5750	n/a	-999	-999	n/a	n/a	n/a	n/a	19	[9, 4, 2]	15	PAL1	2	R1185N
2333.8	4.968	2510187	PROB	4934	n/a	-999	-999	n/a	n/a	n/a	n/a	19	[7, 3, 9]	19	PAL1	2	R1185N
2338.768	6.909	2515155	PROB	6909	n/a	-999	-999	n/a	n/a	n/a	n/a	19	[3, 6, 3]	12	PAL1	2	R1185N
2345.677	0.007	2522063	STOP	n/a	n/a	-999	-999	n/a	n/a	n/a	n/a	19	[-999, -999, -999]	-999	PAL1	2	R1185N
2345.684	0.0	2522070	MATH_END	n/a	n/a	-999	-999	n/a	n/a	n/a	n/a	19	[0, 0, 0]	-999	PAL1	2	R1185N
2345.684	0.017	2522070	TEST_START	n/a	n/a	-999	-999	n/a	n/a	n/a	n/a	19	[0, 0, 0]	-999	PAL1	2	R1185N
2345.701	0.867	2522087	TEST_ORIENT	n/a	n/a	1	1	SEAL	BOAT	SEAL	BOAT	19	[0, 0, 0]	-999	PAL1	2	R1185N
2346.568	0.0	2522954	TEST_PROBE	n/a	wordpools/wordpool_EN.txt	1	1	SEAL	BOAT	SEAL	BOAT	19	[0, 0, 0]	-999	PAL1	2	R1185N
2346.568	1.464	2522954	REC_START	n/a	n/a	1	-999	n/a	BOAT	n/a	n/a	19	[0, 0, 0]	-999	PAL1	2	R1185N
2348.032	3.553	2524418	REC_EVENT	1464	n/a	1	1	SEAL	BOAT	SEAL	BOAT	19	[0, 0, 0]	-999	PAL1	2	R1185N
2351.585	0.017	2527971	REC_END	n/a	n/a	1	-999	n/a	n/a	n/a	n/a	19	[0, 0, 0]	-999	PAL1	2	R1185N
2351.602	0.967	2527988	TEST_ORIENT	n/a	n/a	4	2	PET	FUR	PET	FUR	19	[0, 0, 0]	-999	PAL1	2	R1185N
2352.569	0.0	2528955	TEST_PROBE	n/a	wordpools/wordpool_EN.txt	4	2	PET	FUR	PET	FUR	19	[0, 0, 0]	-999	PAL1	2	R1185N
2352.569	1.05	2528955	REC_START	n/a	n/a	4	-999	n/a	FUR	n/a	n/a	19	[0, 0, 0]	-999	PAL1	2	R1185N
2353.619	3.967	2530005	REC_EVENT	1050	n/a	4	2	PET	FUR	PET	FUR	19	[0, 0, 0]	-999	PAL1	2	R1185N
2357.586	0.017	2533972	REC_END	n/a	n/a	4	-999	n/a	n/a	n/a	n/a	19	[0, 0, 0]	-999	PAL1	2	R1185N
2357.603	0.801	2533989	TEST_ORIENT	n/a	n/a	5	3	WEB	NET	WEB	NET	19	[0, 0, 0]	-999	PAL1	2	R1185N
2358.404	0.001	2534790	TEST_PROBE	n/a	wordpools/wordpool_EN.txt	5	3	WEB	NET	WEB	NET	19	[0, 0, 0]	-999	PAL1	2	R1185N
2358.405	1.844	2534791	REC_START	n/a	n/a	5	-999	n/a	NET	n/a	n/a	19	[0, 0, 0]	-999	PAL1	2	R1185N
2360.249	3.165	2536635	REC_EVENT	1844	n/a	5	3	WEB	NET	WEB	NET	19	[0, 0, 0]	-999	PAL1	2	R1185N
2363.414	0.008	2539800	REC_END	n/a	n/a	5	-999	n/a	n/a	n/a	n/a	19	[0, 0, 0]	-999	PAL1	2	R1185N
2363.422	0.967	2539808	TEST_ORIENT	n/a	n/a	2	4	MAZE	MAIL	MAIL	MAZE	19	[0, 0, 0]	-999	PAL1	2	R1185N
2364.389	0.0	2540775	TEST_PROBE	n/a	wordpools/wordpool_EN.txt	2	4	MAZE	MAIL	MAIL	MAZE	19	[0, 0, 0]	-999	PAL1	2	R1185N
2364.389	1.956	2540775	REC_START	n/a	n/a	2	-999	n/a	MAIL	n/a	n/a	19	[0, 0, 0]	-999	PAL1	2	R1185N
2366.345	3.061	2542731	REC_EVENT	1956	n/a	2	4	MAZE	MAIL	MAIL	MAZE	19	[0, 0, 0]	-999	PAL1	2	R1185N
2369.406	0.017	2545792	REC_END	n/a	n/a	2	-999	n/a	n/a	n/a	n/a	19	[0, 0, 0]	-999	PAL1	2	R1185N
