onset	duration	sample	trial_type	response_time	serialpos	probepos	probe_word	resp_word	study_1	study_2	list	test	answer	experiment	session	subject
0.0	67.936	338664	SESS_START	n/a	-999	-999	n/a	n/a	n/a	n/a	-999	[0, 0, 0]	-999	PAL1	1	R1162N
67.936	1.015	406599	START	n/a	-999	-999	n/a	n/a	n/a	n/a	-1	[-999, -999, -999]	-999	PAL1	1	R1162N
68.951	3.85	407614	PROB	3830	-999	-999	n/a	n/a	n/a	n/a	-1	[6, 6, 2]	14	PAL1	1	R1162N
72.801	2.384	411464	PROB	2363	-999	-999	n/a	n/a	n/a	n/a	-1	[5, 3, 7]	15	PAL1	1	R1162N
75.185	3.15	413848	PROB	3131	-999	-999	n/a	n/a	n/a	n/a	-1	[6, 3, 8]	17	PAL1	1	R1162N
78.335	4.134	416998	PROB	4101	-999	-999	n/a	n/a	n/a	n/a	-1	[6, 9, 8]	22	PAL1	1	R1162N
82.469	3.034	421132	PROB	2999	-999	-999	n/a	n/a	n/a	n/a	-1	[8, 4, 6]	18	PAL1	1	R1162N
85.503	2.429	424166	PROB	2429	-999	-999	n/a	n/a	n/a	n/a	-1	[3, 7, 1]	13	PAL1	1	R1162N
87.932	46.438	426595	STOP	n/a	-999	-999	n/a	n/a	n/a	n/a	-1	[-999, -999, -999]	-999	PAL1	1	R1162N
134.37	10.441	473032	ENCODING_START	n/a	0	-999	n/a	n/a	n/a	n/a	1	[0, 0, 0]	-999	PAL1	1	R1162N
144.811	0.95	483473	STUDY_ORIENT	n/a	1	1	OAK	n/a	STORE	OAK	1	[0, 0, 0]	-999	PAL1	1	R1162N
145.761	5.034	484423	STUDY_PAIR	n/a	1	1	OAK	n/a	STORE	OAK	1	[0, 0, 0]	-999	PAL1	1	R1162N
150.795	0.8	489457	STUDY_ORIENT	n/a	2	2	RICE	n/a	RICE	STOOL	1	[0, 0, 0]	-999	PAL1	1	R1162N
151.595	5.034	490257	STUDY_PAIR	n/a	2	2	RICE	n/a	RICE	STOOL	1	[0, 0, 0]	-999	PAL1	1	R1162N
156.629	0.766	495291	STUDY_ORIENT	n/a	3	3	VAN	n/a	VAN	HEN	1	[0, 0, 0]	-999	PAL1	1	R1162N
157.395	5.018	496057	STUDY_PAIR	n/a	3	3	VAN	n/a	VAN	HEN	1	[0, 0, 0]	-999	PAL1	1	R1162N
162.413	0.95	501075	STUDY_ORIENT	n/a	4	6	LAMP	STICK	LAMP	STICK	1	[0, 0, 0]	-999	PAL1	1	R1162N
163.363	5.034	502025	STUDY_PAIR	n/a	4	6	LAMP	STICK	LAMP	STICK	1	[0, 0, 0]	-999	PAL1	1	R1162N
168.397	0.884	507059	STUDY_ORIENT	n/a	5	5	JUDGE	JAIL	JUDGE	JAIL	1	[0, 0, 0]	-999	PAL1	1	R1162N
169.281	5.034	507942	STUDY_PAIR	n/a	5	5	JUDGE	JAIL	JUDGE	JAIL	1	[0, 0, 0]	-999	PAL1	1	R1162N
174.315	0.983	512976	STUDY_ORIENT	n/a	6	4	MAP	TREE	MAP	WOLF	1	[0, 0, 0]	-999	PAL1	1	R1162N
175.298	4.018	513959	STUDY_PAIR	n/a	6	4	MAP	TREE	MAP	WOLF	1	[0, 0, 0]	-999	PAL1	1	R1162N
179.316	0.999	517977	START	n/a	-999	-999	n/a	n/a	n/a	n/a	1	[-999, -999, -999]	-999	PAL1	1	R1162N
180.315	0.017	518976	MATH_START	n/a	-999	-999	n/a	n/a	n/a	n/a	1	[0, 0, 0]	-999	PAL1	1	R1162N
180.332	4.267	518993	PROB	4245	-999	-999	n/a	n/a	n/a	n/a	1	[7, 6, 6]	19	PAL1	1	R1162N
184.599	7.068	523260	PROB	7033	-999	-999	n/a	n/a	n/a	n/a	1	[7, 8, 6]	21	PAL1	1	R1162N
191.667	4.317	530328	PROB	4293	-999	-999	n/a	n/a	n/a	n/a	1	[9, 4, 8]	22	PAL1	1	R1162N
195.984	2.467	534645	PROB	2448	-999	-999	n/a	n/a	n/a	n/a	1	[2, 3, 7]	12	PAL1	1	R1162N
198.451	2.501	537112	PROB	2501	-999	-999	n/a	n/a	n/a	n/a	1	[5, 7, 3]	15	PAL1	1	R1162N
200.952	0.016	539613	STOP	n/a	-999	-999	n/a	n/a	n/a	n/a	1	[-999, -999, -999]	-999	PAL1	1	R1162N
200.968	0.0	539629	TEST_START	n/a	-999	-999	n/a	n/a	n/a	n/a	1	[0, 0, 0]	-999	PAL1	1	R1162N
200.968	0.017	539629	MATH_END	n/a	-999	-999	n/a	n/a	n/a	n/a	1	[0, 0, 0]	-999	PAL1	1	R1162N
200.985	1.017	539646	TEST_ORIENT	n/a	1	1	OAK	n/a	STORE	OAK	1	[0, 0, 0]	-999	PAL1	1	R1162N
202.002	0.0	540663	TEST_PROBE	n/a	1	1	OAK	n/a	STORE	OAK	1	[0, 0, 0]	-999	PAL1	1	R1162N
202.002	4.945	540663	REC_START	n/a	1	-999	n/a	n/a	n/a	n/a	1	[0, 0, 0]	-999	PAL1	1	R1162N
206.947	0.072	545608	REC_EVENT	4945	1	1	OAK	<>	STORE	OAK	1	[0, 0, 0]	-999	PAL1	1	R1162N
207.019	0.017	545680	REC_END	n/a	1	-999	n/a	n/a	n/a	n/a	1	[0, 0, 0]	-999	PAL1	1	R1162N
207.036	0.851	545697	TEST_ORIENT	n/a	2	2	RICE	n/a	RICE	STOOL	1	[0, 0, 0]	-999	PAL1	1	R1162N
207.887	0.0	546548	REC_START	n/a	2	-999	n/a	n/a	n/a	n/a	1	[0, 0, 0]	-999	PAL1	1	R1162N
207.887	4.829	546548	TEST_PROBE	n/a	2	2	RICE	n/a	RICE	STOOL	1	[0, 0, 0]	-999	PAL1	1	R1162N
212.716	0.187	551377	REC_EVENT	4829	2	2	RICE	<>	RICE	STOOL	1	[0, 0, 0]	-999	PAL1	1	R1162N
212.903	0.017	551564	REC_END	n/a	2	-999	n/a	n/a	n/a	n/a	1	[0, 0, 0]	-999	PAL1	1	R1162N
212.92	0.8	551581	TEST_ORIENT	n/a	3	3	VAN	n/a	VAN	HEN	1	[0, 0, 0]	-999	PAL1	1	R1162N
213.72	0.0	552381	TEST_PROBE	n/a	3	3	VAN	n/a	VAN	HEN	1	[0, 0, 0]	-999	PAL1	1	R1162N
213.72	4.829	552381	REC_START	n/a	3	-999	n/a	n/a	n/a	n/a	1	[0, 0, 0]	-999	PAL1	1	R1162N
218.549	0.188	557210	REC_EVENT	4829	3	3	VAN	<>	VAN	HEN	1	[0, 0, 0]	-999	PAL1	1	R1162N
218.737	0.017	557398	REC_END	n/a	3	-999	n/a	n/a	n/a	n/a	1	[0, 0, 0]	-999	PAL1	1	R1162N
218.754	0.983	557415	TEST_ORIENT	n/a	6	4	MAP	TREE	MAP	WOLF	1	[0, 0, 0]	-999	PAL1	1	R1162N
219.737	0.001	558398	TEST_PROBE	n/a	6	4	MAP	TREE	MAP	WOLF	1	[0, 0, 0]	-999	PAL1	1	R1162N
219.738	2.457	558399	REC_START	n/a	6	-999	n/a	TREE	n/a	n/a	1	[0, 0, 0]	-999	PAL1	1	R1162N
222.195	2.551	560856	REC_EVENT	2457	6	4	MAP	TREE	MAP	WOLF	1	[0, 0, 0]	-999	PAL1	1	R1162N
224.746	0.009	563407	REC_END	n/a	6	-999	n/a	n/a	n/a	n/a	1	[0, 0, 0]	-999	PAL1	1	R1162N
224.755	1.0	563416	TEST_ORIENT	n/a	5	5	JUDGE	JAIL	JUDGE	JAIL	1	[0, 0, 0]	-999	PAL1	1	R1162N
225.755	0.0	564416	TEST_PROBE	n/a	5	5	JUDGE	JAIL	JUDGE	JAIL	1	[0, 0, 0]	-999	PAL1	1	R1162N
225.755	1.01	564416	REC_START	n/a	5	-999	n/a	JAIL	n/a	n/a	1	[0, 0, 0]	-999	PAL1	1	R1162N
226.765	4.015	565426	REC_EVENT	1010	5	5	JUDGE	JAIL	JUDGE	JAIL	1	[0, 0, 0]	-999	PAL1	1	R1162N
230.78	0.009	569440	REC_END	n/a	5	-999	n/a	n/a	n/a	n/a	1	[0, 0, 0]	-999	PAL1	1	R1162N
230.789	0.967	569449	TEST_ORIENT	n/a	4	6	LAMP	STICK	LAMP	STICK	1	[0, 0, 0]	-999	PAL1	1	R1162N
231.756	0.0	570416	REC_START	n/a	4	-999	n/a	STICK	n/a	n/a	1	[0, 0, 0]	-999	PAL1	1	R1162N
231.756	1.476	570416	TEST_PROBE	n/a	4	6	LAMP	STICK	LAMP	STICK	1	[0, 0, 0]	-999	PAL1	1	R1162N
233.232	1.719	571892	REC_EVENT	1476	4	6	LAMP	SLIM	LAMP	STICK	1	[0, 0, 0]	-999	PAL1	1	R1162N
234.951	1.822	573611	REC_EVENT	3195	4	6	LAMP	STICK	LAMP	STICK	1	[0, 0, 0]	-999	PAL1	1	R1162N
236.773	1.05	575433	REC_END	n/a	4	-999	n/a	n/a	n/a	n/a	1	[0, 0, 0]	-999	PAL1	1	R1162N
237.823	10.451	576483	ENCODING_START	n/a	0	-999	n/a	n/a	n/a	n/a	2	[0, 0, 0]	-999	PAL1	1	R1162N
248.274	0.851	586934	STUDY_ORIENT	n/a	1	1	BOAT	n/a	BOAT	HILL	2	[0, 0, 0]	-999	PAL1	1	R1162N
249.125	5.034	587785	STUDY_PAIR	n/a	1	1	BOAT	n/a	BOAT	HILL	2	[0, 0, 0]	-999	PAL1	1	R1162N
254.159	0.85	592819	STUDY_ORIENT	n/a	2	4	FORT	n/a	ICE	FORT	2	[0, 0, 0]	-999	PAL1	1	R1162N
255.009	5.034	593669	STUDY_PAIR	n/a	2	4	FORT	n/a	ICE	FORT	2	[0, 0, 0]	-999	PAL1	1	R1162N
260.043	0.95	598703	STUDY_ORIENT	n/a	3	3	HOSE	n/a	HOSE	CUBE	2	[0, 0, 0]	-999	PAL1	1	R1162N
260.993	5.034	599653	STUDY_PAIR	n/a	3	3	HOSE	n/a	HOSE	CUBE	2	[0, 0, 0]	-999	PAL1	1	R1162N
266.027	0.818	604687	STUDY_ORIENT	n/a	4	6	BRANCH	GLOVE	BRANCH	GLOVE	2	[0, 0, 0]	-999	PAL1	1	R1162N
266.845	5.034	605505	STUDY_PAIR	n/a	4	6	BRANCH	GLOVE	BRANCH	GLOVE	2	[0, 0, 0]	-999	PAL1	1	R1162N
271.879	0.932	610539	STUDY_ORIENT	n/a	5	5	HAND	GLOVE	HAND	FOAM	2	[0, 0, 0]	-999	PAL1	1	R1162N
272.811	5.035	611471	STUDY_PAIR	n/a	5	5	HAND	GLOVE	HAND	FOAM	2	[0, 0, 0]	-999	PAL1	1	R1162N
277.846	1.017	616506	STUDY_ORIENT	n/a	6	2	SUN	SHIRT	SUN	SHIRT	2	[0, 0, 0]	-999	PAL1	1	R1162N
278.863	4.018	617523	STUDY_PAIR	n/a	6	2	SUN	SHIRT	SUN	SHIRT	2	[0, 0, 0]	-999	PAL1	1	R1162N
282.881	0.999	621541	START	n/a	-999	-999	n/a	n/a	n/a	n/a	2	[-999, -999, -999]	-999	PAL1	1	R1162N
283.88	0.016	622540	MATH_START	n/a	-999	-999	n/a	n/a	n/a	n/a	2	[0, 0, 0]	-999	PAL1	1	R1162N
283.896	3.7	622556	PROB	3669	-999	-999	n/a	n/a	n/a	n/a	2	[9, 7, 3]	19	PAL1	1	R1162N
287.596	7.085	626256	PROB	7057	-999	-999	n/a	n/a	n/a	n/a	2	[6, 9, 8]	22	PAL1	1	R1162N
294.681	5.15	633340	PROB	5123	-999	-999	n/a	n/a	n/a	n/a	2	[6, 8, 8]	22	PAL1	1	R1162N
299.831	3.261	638490	PROB	3261	-999	-999	n/a	n/a	n/a	n/a	2	[7, 4, 7]	18	PAL1	1	R1162N
303.092	0.006	641751	STOP	n/a	-999	-999	n/a	n/a	n/a	n/a	2	[-999, -999, -999]	-999	PAL1	1	R1162N
303.098	0.0	641757	MATH_END	n/a	-999	-999	n/a	n/a	n/a	n/a	2	[0, 0, 0]	-999	PAL1	1	R1162N
303.098	0.017	641757	TEST_START	n/a	-999	-999	n/a	n/a	n/a	n/a	2	[0, 0, 0]	-999	PAL1	1	R1162N
303.115	0.883	641774	TEST_ORIENT	n/a	1	1	BOAT	n/a	BOAT	HILL	2	[0, 0, 0]	-999	PAL1	1	R1162N
303.998	0.001	642657	TEST_PROBE	n/a	1	1	BOAT	n/a	BOAT	HILL	2	[0, 0, 0]	-999	PAL1	1	R1162N
303.999	4.922	642658	REC_START	n/a	1	-999	n/a	n/a	n/a	n/a	2	[0, 0, 0]	-999	PAL1	1	R1162N
308.921	0.078	647580	REC_EVENT	4922	1	1	BOAT	<>	BOAT	HILL	2	[0, 0, 0]	-999	PAL1	1	R1162N
308.999	0.017	647658	REC_END	n/a	1	-999	n/a	n/a	n/a	n/a	2	[0, 0, 0]	-999	PAL1	1	R1162N
309.016	1.017	647675	TEST_ORIENT	n/a	6	2	SUN	SHIRT	SUN	SHIRT	2	[0, 0, 0]	-999	PAL1	1	R1162N
310.033	0.0	648692	REC_START	n/a	6	-999	n/a	SHIRT	n/a	n/a	2	[0, 0, 0]	-999	PAL1	1	R1162N
310.033	2.625	648692	TEST_PROBE	n/a	6	2	SUN	SHIRT	SUN	SHIRT	2	[0, 0, 0]	-999	PAL1	1	R1162N
312.658	2.392	651317	REC_EVENT	2625	6	2	SUN	SHIRT	SUN	SHIRT	2	[0, 0, 0]	-999	PAL1	1	R1162N
315.05	0.017	653709	REC_END	n/a	6	-999	n/a	n/a	n/a	n/a	2	[0, 0, 0]	-999	PAL1	1	R1162N
315.067	1.0	653726	TEST_ORIENT	n/a	3	3	HOSE	n/a	HOSE	CUBE	2	[0, 0, 0]	-999	PAL1	1	R1162N
316.067	0.0	654726	TEST_PROBE	n/a	3	3	HOSE	n/a	HOSE	CUBE	2	[0, 0, 0]	-999	PAL1	1	R1162N
316.067	4.899	654726	REC_START	n/a	3	-999	n/a	n/a	n/a	n/a	2	[0, 0, 0]	-999	PAL1	1	R1162N
320.966	0.118	659625	REC_EVENT	4899	3	3	HOSE	<>	HOSE	CUBE	2	[0, 0, 0]	-999	PAL1	1	R1162N
321.084	0.017	659743	REC_END	n/a	3	-999	n/a	n/a	n/a	n/a	2	[0, 0, 0]	-999	PAL1	1	R1162N
321.101	1.017	659760	TEST_ORIENT	n/a	2	4	FORT	n/a	ICE	FORT	2	[0, 0, 0]	-999	PAL1	1	R1162N
322.118	0.0	660777	TEST_PROBE	n/a	2	4	FORT	n/a	ICE	FORT	2	[0, 0, 0]	-999	PAL1	1	R1162N
322.118	4.852	660777	REC_START	n/a	2	-999	n/a	n/a	n/a	n/a	2	[0, 0, 0]	-999	PAL1	1	R1162N
326.97	0.165	665629	REC_EVENT	4852	2	4	FORT	<>	ICE	FORT	2	[0, 0, 0]	-999	PAL1	1	R1162N
327.135	0.017	665794	REC_END	n/a	2	-999	n/a	n/a	n/a	n/a	2	[0, 0, 0]	-999	PAL1	1	R1162N
327.152	1.0	665811	TEST_ORIENT	n/a	5	5	HAND	GLOVE	HAND	FOAM	2	[0, 0, 0]	-999	PAL1	1	R1162N
328.152	0.0	666811	TEST_PROBE	n/a	5	5	HAND	GLOVE	HAND	FOAM	2	[0, 0, 0]	-999	PAL1	1	R1162N
328.152	1.551	666811	REC_START	n/a	5	-999	n/a	GLOVE	n/a	n/a	2	[0, 0, 0]	-999	PAL1	1	R1162N
329.703	3.466	668362	REC_EVENT	1551	5	5	HAND	GLOVE	HAND	FOAM	2	[0, 0, 0]	-999	PAL1	1	R1162N
333.169	0.017	671828	REC_END	n/a	5	-999	n/a	n/a	n/a	n/a	2	[0, 0, 0]	-999	PAL1	1	R1162N
333.186	0.883	671845	TEST_ORIENT	n/a	4	6	BRANCH	GLOVE	BRANCH	GLOVE	2	[0, 0, 0]	-999	PAL1	1	R1162N
334.069	0.0	672728	TEST_PROBE	n/a	4	6	BRANCH	GLOVE	BRANCH	GLOVE	2	[0, 0, 0]	-999	PAL1	1	R1162N
334.069	1.659	672728	REC_START	n/a	4	-999	n/a	GLOVE	n/a	n/a	2	[0, 0, 0]	-999	PAL1	1	R1162N
335.728	3.358	674387	REC_EVENT	1659	4	6	BRANCH	GLOVE	BRANCH	GLOVE	2	[0, 0, 0]	-999	PAL1	1	R1162N
339.086	0.829	677745	REC_END	n/a	4	-999	n/a	n/a	n/a	n/a	2	[0, 0, 0]	-999	PAL1	1	R1162N
339.915	10.44	678574	ENCODING_START	n/a	0	-999	n/a	n/a	n/a	n/a	3	[0, 0, 0]	-999	PAL1	1	R1162N
350.355	0.833	689013	STUDY_ORIENT	n/a	1	5	WORM	WALL	WALL	WORM	3	[0, 0, 0]	-999	PAL1	1	R1162N
351.188	5.034	689846	STUDY_PAIR	n/a	1	5	WORM	WALL	WALL	WORM	3	[0, 0, 0]	-999	PAL1	1	R1162N
356.222	0.85	694880	STUDY_ORIENT	n/a	2	4	HOOK	n/a	LOCK	HOOK	3	[0, 0, 0]	-999	PAL1	1	R1162N
357.072	5.034	695730	STUDY_PAIR	n/a	2	4	HOOK	n/a	LOCK	HOOK	3	[0, 0, 0]	-999	PAL1	1	R1162N
362.106	0.967	700764	STUDY_ORIENT	n/a	3	3	CLIFF	n/a	CLIFF	PLANE	3	[0, 0, 0]	-999	PAL1	1	R1162N
363.073	5.034	701731	STUDY_PAIR	n/a	3	3	CLIFF	n/a	CLIFF	PLANE	3	[0, 0, 0]	-999	PAL1	1	R1162N
368.107	0.884	706765	STUDY_ORIENT	n/a	4	2	SOUP	TRAY	SOUP	TRAY	3	[0, 0, 0]	-999	PAL1	1	R1162N
368.991	5.033	707649	STUDY_PAIR	n/a	4	2	SOUP	TRAY	SOUP	TRAY	3	[0, 0, 0]	-999	PAL1	1	R1162N
374.024	0.934	712682	STUDY_ORIENT	n/a	5	1	SHELL	SWORD	TANK	SHELL	3	[0, 0, 0]	-999	PAL1	1	R1162N
374.958	5.034	713616	STUDY_PAIR	n/a	5	1	SHELL	SWORD	TANK	SHELL	3	[0, 0, 0]	-999	PAL1	1	R1162N
379.992	0.966	718650	STUDY_ORIENT	n/a	6	6	OWL	n/a	SWORD	OWL	3	[0, 0, 0]	-999	PAL1	1	R1162N
380.958	4.001	719616	STUDY_PAIR	n/a	6	6	OWL	n/a	SWORD	OWL	3	[0, 0, 0]	-999	PAL1	1	R1162N
384.959	1.0	723617	START	n/a	-999	-999	n/a	n/a	n/a	n/a	3	[-999, -999, -999]	-999	PAL1	1	R1162N
385.959	0.017	724617	MATH_START	n/a	-999	-999	n/a	n/a	n/a	n/a	3	[0, 0, 0]	-999	PAL1	1	R1162N
385.976	3.334	724634	PROB	3305	-999	-999	n/a	n/a	n/a	n/a	3	[9, 2, 6]	17	PAL1	1	R1162N
389.31	4.9	727968	PROB	4867	-999	-999	n/a	n/a	n/a	n/a	3	[9, 4, 7]	20	PAL1	1	R1162N
394.21	3.368	732868	PROB	3335	-999	-999	n/a	n/a	n/a	n/a	3	[6, 6, 4]	16	PAL1	1	R1162N
397.578	3.5	736236	PROB	3471	-999	-999	n/a	n/a	n/a	n/a	3	[4, 8, 6]	18	PAL1	1	R1162N
401.078	3.501	739736	PROB	3467	-999	-999	n/a	n/a	n/a	n/a	3	[8, 2, 9]	19	PAL1	1	R1162N
404.579	2.334	743237	PROB	2334	-999	-999	n/a	n/a	n/a	n/a	3	[6, 4, 1]	11	PAL1	1	R1162N
406.913	0.016	745571	STOP	n/a	-999	-999	n/a	n/a	n/a	n/a	3	[-999, -999, -999]	-999	PAL1	1	R1162N
406.929	0.0	745587	MATH_END	n/a	-999	-999	n/a	n/a	n/a	n/a	3	[0, 0, 0]	-999	PAL1	1	R1162N
406.929	0.017	745587	TEST_START	n/a	-999	-999	n/a	n/a	n/a	n/a	3	[0, 0, 0]	-999	PAL1	1	R1162N
406.946	0.816	745604	TEST_ORIENT	n/a	5	1	SHELL	SWORD	TANK	SHELL	3	[0, 0, 0]	-999	PAL1	1	R1162N
407.762	0.001	746420	TEST_PROBE	n/a	5	1	SHELL	SWORD	TANK	SHELL	3	[0, 0, 0]	-999	PAL1	1	R1162N
407.763	2.79	746421	REC_START	n/a	5	-999	n/a	SWORD	n/a	n/a	3	[0, 0, 0]	-999	PAL1	1	R1162N
410.553	2.221	749210	REC_EVENT	2790	5	1	SHELL	SWORD	TANK	SHELL	3	[0, 0, 0]	-999	PAL1	1	R1162N
412.774	0.006	751431	REC_END	n/a	5	-999	n/a	n/a	n/a	n/a	3	[0, 0, 0]	-999	PAL1	1	R1162N
412.78	1.016	751437	TEST_ORIENT	n/a	4	2	SOUP	TRAY	SOUP	TRAY	3	[0, 0, 0]	-999	PAL1	1	R1162N
413.796	0.001	752453	TEST_PROBE	n/a	4	2	SOUP	TRAY	SOUP	TRAY	3	[0, 0, 0]	-999	PAL1	1	R1162N
413.797	1.396	752454	REC_START	n/a	4	-999	n/a	TRAY	n/a	n/a	3	[0, 0, 0]	-999	PAL1	1	R1162N
415.193	3.612	753850	REC_EVENT	1396	4	2	SOUP	TRAY	SOUP	TRAY	3	[0, 0, 0]	-999	PAL1	1	R1162N
418.805	0.009	757462	REC_END	n/a	4	-999	n/a	n/a	n/a	n/a	3	[0, 0, 0]	-999	PAL1	1	R1162N
418.814	0.967	757471	TEST_ORIENT	n/a	3	3	CLIFF	n/a	CLIFF	PLANE	3	[0, 0, 0]	-999	PAL1	1	R1162N
419.781	0.0	758438	TEST_PROBE	n/a	3	3	CLIFF	n/a	CLIFF	PLANE	3	[0, 0, 0]	-999	PAL1	1	R1162N
419.781	4.922	758438	REC_START	n/a	3	-999	n/a	n/a	n/a	n/a	3	[0, 0, 0]	-999	PAL1	1	R1162N
424.703	0.103	763360	REC_EVENT	4922	3	3	CLIFF	<>	CLIFF	PLANE	3	[0, 0, 0]	-999	PAL1	1	R1162N
424.806	0.009	763463	REC_END	n/a	3	-999	n/a	n/a	n/a	n/a	3	[0, 0, 0]	-999	PAL1	1	R1162N
424.815	0.966	763472	TEST_ORIENT	n/a	2	4	HOOK	n/a	LOCK	HOOK	3	[0, 0, 0]	-999	PAL1	1	R1162N
425.781	0.001	764438	TEST_PROBE	n/a	2	4	HOOK	n/a	LOCK	HOOK	3	[0, 0, 0]	-999	PAL1	1	R1162N
425.782	4.806	764439	REC_START	n/a	2	-999	n/a	n/a	n/a	n/a	3	[0, 0, 0]	-999	PAL1	1	R1162N
430.588	0.202	769245	REC_EVENT	4806	2	4	HOOK	<>	LOCK	HOOK	3	[0, 0, 0]	-999	PAL1	1	R1162N
430.79	0.009	769447	REC_END	n/a	2	-999	n/a	n/a	n/a	n/a	3	[0, 0, 0]	-999	PAL1	1	R1162N
430.799	0.9	769456	TEST_ORIENT	n/a	1	5	WORM	WALL	WALL	WORM	3	[0, 0, 0]	-999	PAL1	1	R1162N
431.699	0.0	770356	REC_START	n/a	1	-999	n/a	WALL	n/a	n/a	3	[0, 0, 0]	-999	PAL1	1	R1162N
431.699	1.75	770356	TEST_PROBE	n/a	1	5	WORM	WALL	WALL	WORM	3	[0, 0, 0]	-999	PAL1	1	R1162N
433.449	3.267	772106	REC_EVENT	1750	1	5	WORM	WALL	WALL	WORM	3	[0, 0, 0]	-999	PAL1	1	R1162N
436.716	0.017	775373	REC_END	n/a	1	-999	n/a	n/a	n/a	n/a	3	[0, 0, 0]	-999	PAL1	1	R1162N
436.733	0.933	775390	TEST_ORIENT	n/a	6	6	OWL	n/a	SWORD	OWL	3	[0, 0, 0]	-999	PAL1	1	R1162N
437.666	0.001	776323	TEST_PROBE	n/a	6	6	OWL	n/a	SWORD	OWL	3	[0, 0, 0]	-999	PAL1	1	R1162N
437.667	4.806	776324	REC_START	n/a	6	-999	n/a	n/a	n/a	n/a	3	[0, 0, 0]	-999	PAL1	1	R1162N
442.473	0.21	781130	REC_EVENT	4806	6	6	OWL	<>	SWORD	OWL	3	[0, 0, 0]	-999	PAL1	1	R1162N
442.683	0.852	781340	REC_END	n/a	6	-999	n/a	n/a	n/a	n/a	3	[0, 0, 0]	-999	PAL1	1	R1162N
443.535	10.45	782192	ENCODING_START	n/a	0	-999	n/a	n/a	n/a	n/a	4	[0, 0, 0]	-999	PAL1	1	R1162N
453.985	0.884	792642	STUDY_ORIENT	n/a	1	5	SINK	n/a	BAG	SINK	4	[0, 0, 0]	-999	PAL1	1	R1162N
454.869	5.018	793526	STUDY_PAIR	n/a	1	5	SINK	n/a	BAG	SINK	4	[0, 0, 0]	-999	PAL1	1	R1162N
459.887	0.983	798544	STUDY_ORIENT	n/a	2	2	ROOF	n/a	ROOF	MOTH	4	[0, 0, 0]	-999	PAL1	1	R1162N
460.87	5.033	799527	STUDY_PAIR	n/a	2	2	ROOF	n/a	ROOF	MOTH	4	[0, 0, 0]	-999	PAL1	1	R1162N
465.903	1.017	804560	STUDY_ORIENT	n/a	3	1	BRIDGE	n/a	BRIDGE	DOOR	4	[0, 0, 0]	-999	PAL1	1	R1162N
466.92	5.034	805577	STUDY_PAIR	n/a	3	1	BRIDGE	n/a	BRIDGE	DOOR	4	[0, 0, 0]	-999	PAL1	1	R1162N
471.954	0.901	810610	STUDY_ORIENT	n/a	4	4	BALL	n/a	PURSE	BALL	4	[0, 0, 0]	-999	PAL1	1	R1162N
472.855	5.018	811511	STUDY_PAIR	n/a	4	4	BALL	n/a	PURSE	BALL	4	[0, 0, 0]	-999	PAL1	1	R1162N
477.873	0.983	816529	STUDY_ORIENT	n/a	5	3	PHONE	n/a	POLE	PHONE	4	[0, 0, 0]	-999	PAL1	1	R1162N
478.856	5.033	817512	STUDY_PAIR	n/a	5	3	PHONE	n/a	POLE	PHONE	4	[0, 0, 0]	-999	PAL1	1	R1162N
483.889	0.934	822545	STUDY_ORIENT	n/a	6	6	EGG	YARD	YARD	EGG	4	[0, 0, 0]	-999	PAL1	1	R1162N
484.823	4.018	823479	STUDY_PAIR	n/a	6	6	EGG	YARD	YARD	EGG	4	[0, 0, 0]	-999	PAL1	1	R1162N
488.841	1.0	827497	START	n/a	-999	-999	n/a	n/a	n/a	n/a	4	[-999, -999, -999]	-999	PAL1	1	R1162N
489.841	0.017	828497	MATH_START	n/a	-999	-999	n/a	n/a	n/a	n/a	4	[0, 0, 0]	-999	PAL1	1	R1162N
489.858	8.416	828514	PROB	8387	-999	-999	n/a	n/a	n/a	n/a	4	[8, 9, 7]	24	PAL1	1	R1162N
498.274	4.718	836930	PROB	4691	-999	-999	n/a	n/a	n/a	n/a	4	[6, 2, 6]	14	PAL1	1	R1162N
502.992	3.234	841648	PROB	3213	-999	-999	n/a	n/a	n/a	n/a	4	[3, 9, 8]	20	PAL1	1	R1162N
506.226	2.45	844882	PROB	2427	-999	-999	n/a	n/a	n/a	n/a	4	[1, 4, 3]	8	PAL1	1	R1162N
508.676	4.017	847332	PROB	4017	-999	-999	n/a	n/a	n/a	n/a	4	[9, 3, 8]	20	PAL1	1	R1162N
512.693	0.017	851349	STOP	n/a	-999	-999	n/a	n/a	n/a	n/a	4	[-999, -999, -999]	-999	PAL1	1	R1162N
512.71	0.0	851366	MATH_END	n/a	-999	-999	n/a	n/a	n/a	n/a	4	[0, 0, 0]	-999	PAL1	1	R1162N
512.71	0.016	851366	TEST_START	n/a	-999	-999	n/a	n/a	n/a	n/a	4	[0, 0, 0]	-999	PAL1	1	R1162N
512.726	0.984	851382	TEST_ORIENT	n/a	3	1	BRIDGE	n/a	BRIDGE	DOOR	4	[0, 0, 0]	-999	PAL1	1	R1162N
513.71	0.0	852366	TEST_PROBE	n/a	3	1	BRIDGE	n/a	BRIDGE	DOOR	4	[0, 0, 0]	-999	PAL1	1	R1162N
513.71	4.76	852366	REC_START	n/a	3	-999	n/a	n/a	n/a	n/a	4	[0, 0, 0]	-999	PAL1	1	R1162N
518.47	0.257	857126	REC_EVENT	4760	3	1	BRIDGE	<>	BRIDGE	DOOR	4	[0, 0, 0]	-999	PAL1	1	R1162N
518.727	0.017	857383	REC_END	n/a	3	-999	n/a	n/a	n/a	n/a	4	[0, 0, 0]	-999	PAL1	1	R1162N
518.744	0.933	857400	TEST_ORIENT	n/a	2	2	ROOF	n/a	ROOF	MOTH	4	[0, 0, 0]	-999	PAL1	1	R1162N
519.677	0.001	858333	TEST_PROBE	n/a	2	2	ROOF	n/a	ROOF	MOTH	4	[0, 0, 0]	-999	PAL1	1	R1162N
519.678	4.736	858334	REC_START	n/a	2	-999	n/a	n/a	n/a	n/a	4	[0, 0, 0]	-999	PAL1	1	R1162N
524.414	0.28	863070	REC_EVENT	4736	2	2	ROOF	<>	ROOF	MOTH	4	[0, 0, 0]	-999	PAL1	1	R1162N
524.694	0.017	863350	REC_END	n/a	2	-999	n/a	n/a	n/a	n/a	4	[0, 0, 0]	-999	PAL1	1	R1162N
524.711	0.867	863367	TEST_ORIENT	n/a	5	3	PHONE	n/a	POLE	PHONE	4	[0, 0, 0]	-999	PAL1	1	R1162N
525.578	0.001	864234	TEST_PROBE	n/a	5	3	PHONE	n/a	POLE	PHONE	4	[0, 0, 0]	-999	PAL1	1	R1162N
525.579	4.977	864235	REC_START	n/a	5	-999	n/a	n/a	n/a	n/a	4	[0, 0, 0]	-999	PAL1	1	R1162N
530.556	0.047	869211	REC_EVENT	4977	5	3	PHONE	<>	POLE	PHONE	4	[0, 0, 0]	-999	PAL1	1	R1162N
530.603	0.009	869258	REC_END	n/a	5	-999	n/a	n/a	n/a	n/a	4	[0, 0, 0]	-999	PAL1	1	R1162N
530.612	1.017	869267	TEST_ORIENT	n/a	4	4	BALL	n/a	PURSE	BALL	4	[0, 0, 0]	-999	PAL1	1	R1162N
531.629	0.0	870284	TEST_PROBE	n/a	4	4	BALL	n/a	PURSE	BALL	4	[0, 0, 0]	-999	PAL1	1	R1162N
531.629	4.852	870284	REC_START	n/a	4	-999	n/a	n/a	n/a	n/a	4	[0, 0, 0]	-999	PAL1	1	R1162N
536.481	0.165	875136	REC_EVENT	4852	4	4	BALL	<>	PURSE	BALL	4	[0, 0, 0]	-999	PAL1	1	R1162N
536.646	0.017	875301	REC_END	n/a	4	-999	n/a	n/a	n/a	n/a	4	[0, 0, 0]	-999	PAL1	1	R1162N
536.663	0.85	875318	TEST_ORIENT	n/a	1	5	SINK	n/a	BAG	SINK	4	[0, 0, 0]	-999	PAL1	1	R1162N
537.513	0.001	876168	TEST_PROBE	n/a	1	5	SINK	n/a	BAG	SINK	4	[0, 0, 0]	-999	PAL1	1	R1162N
537.514	4.899	876169	REC_START	n/a	1	-999	n/a	n/a	n/a	n/a	4	[0, 0, 0]	-999	PAL1	1	R1162N
542.413	0.125	881068	REC_EVENT	4899	1	5	SINK	<>	BAG	SINK	4	[0, 0, 0]	-999	PAL1	1	R1162N
542.538	0.009	881193	REC_END	n/a	1	-999	n/a	n/a	n/a	n/a	4	[0, 0, 0]	-999	PAL1	1	R1162N
542.547	0.983	881202	TEST_ORIENT	n/a	6	6	EGG	YARD	YARD	EGG	4	[0, 0, 0]	-999	PAL1	1	R1162N
543.53	0.001	882185	TEST_PROBE	n/a	6	6	EGG	YARD	YARD	EGG	4	[0, 0, 0]	-999	PAL1	1	R1162N
543.531	1.237	882186	REC_START	n/a	6	-999	n/a	YARD	n/a	n/a	4	[0, 0, 0]	-999	PAL1	1	R1162N
544.768	3.771	883423	REC_EVENT	1237	6	6	EGG	YARD	YARD	EGG	4	[0, 0, 0]	-999	PAL1	1	R1162N
548.539	0.512	887194	REC_END	n/a	6	-999	n/a	n/a	n/a	n/a	4	[0, 0, 0]	-999	PAL1	1	R1162N
549.051	10.448	887706	ENCODING_START	n/a	0	-999	n/a	n/a	n/a	n/a	5	[0, 0, 0]	-999	PAL1	1	R1162N
559.499	0.834	898154	STUDY_ORIENT	n/a	1	5	WAVE	n/a	GLASS	WAVE	5	[0, 0, 0]	-999	PAL1	1	R1162N
560.333	5.034	898988	STUDY_PAIR	n/a	1	5	WAVE	n/a	GLASS	WAVE	5	[0, 0, 0]	-999	PAL1	1	R1162N
565.367	0.783	904022	STUDY_ORIENT	n/a	2	2	SHRIMP	n/a	SPRING	SHRIMP	5	[0, 0, 0]	-999	PAL1	1	R1162N
566.15	5.034	904805	STUDY_PAIR	n/a	2	2	SHRIMP	n/a	SPRING	SHRIMP	5	[0, 0, 0]	-999	PAL1	1	R1162N
571.184	0.834	909839	STUDY_ORIENT	n/a	3	3	CAGE	n/a	CAGE	STRING	5	[0, 0, 0]	-999	PAL1	1	R1162N
572.018	5.034	910673	STUDY_PAIR	n/a	3	3	CAGE	n/a	CAGE	STRING	5	[0, 0, 0]	-999	PAL1	1	R1162N
577.052	0.95	915707	STUDY_ORIENT	n/a	4	4	EAR	SKI	SKI	EAR	5	[0, 0, 0]	-999	PAL1	1	R1162N
578.002	5.034	916657	STUDY_PAIR	n/a	4	4	EAR	SKI	SKI	EAR	5	[0, 0, 0]	-999	PAL1	1	R1162N
583.036	1.017	921691	STUDY_ORIENT	n/a	5	1	CORD	n/a	WING	CORD	5	[0, 0, 0]	-999	PAL1	1	R1162N
584.053	5.033	922708	STUDY_PAIR	n/a	5	1	CORD	n/a	WING	CORD	5	[0, 0, 0]	-999	PAL1	1	R1162N
589.086	0.884	927740	STUDY_ORIENT	n/a	6	6	CHAIR	BOOK	BOWL	CHAIR	5	[0, 0, 0]	-999	PAL1	1	R1162N
589.97	4.018	928624	STUDY_PAIR	n/a	6	6	CHAIR	BOOK	BOWL	CHAIR	5	[0, 0, 0]	-999	PAL1	1	R1162N
593.988	0.999	932642	START	n/a	-999	-999	n/a	n/a	n/a	n/a	5	[-999, -999, -999]	-999	PAL1	1	R1162N
594.987	0.017	933641	MATH_START	n/a	-999	-999	n/a	n/a	n/a	n/a	5	[0, 0, 0]	-999	PAL1	1	R1162N
595.004	3.317	933658	PROB	3286	-999	-999	n/a	n/a	n/a	n/a	5	[9, 9, 2]	20	PAL1	1	R1162N
598.321	2.434	936975	PROB	2400	-999	-999	n/a	n/a	n/a	n/a	5	[2, 6, 3]	11	PAL1	1	R1162N
600.755	2.118	939409	PROB	2087	-999	-999	n/a	n/a	n/a	n/a	5	[3, 1, 3]	7	PAL1	1	R1162N
602.873	2.949	941527	PROB	2928	-999	-999	n/a	n/a	n/a	n/a	5	[4, 6, 9]	19	PAL1	1	R1162N
605.822	2.1	944476	PROB	2067	-999	-999	n/a	n/a	n/a	n/a	5	[1, 4, 1]	6	PAL1	1	R1162N
607.922	3.768	946576	PROB	3743	-999	-999	n/a	n/a	n/a	n/a	5	[1, 7, 5]	13	PAL1	1	R1162N
611.69	2.567	950344	PROB	2567	-999	-999	n/a	n/a	n/a	n/a	5	[5, 2, 5]	12	PAL1	1	R1162N
614.257	0.016	952911	STOP	n/a	-999	-999	n/a	n/a	n/a	n/a	5	[-999, -999, -999]	-999	PAL1	1	R1162N
614.273	0.0	952927	MATH_END	n/a	-999	-999	n/a	n/a	n/a	n/a	5	[0, 0, 0]	-999	PAL1	1	R1162N
614.273	0.017	952927	TEST_START	n/a	-999	-999	n/a	n/a	n/a	n/a	5	[0, 0, 0]	-999	PAL1	1	R1162N
614.29	0.8	952944	TEST_ORIENT	n/a	5	1	CORD	n/a	WING	CORD	5	[0, 0, 0]	-999	PAL1	1	R1162N
615.09	0.001	953744	TEST_PROBE	n/a	5	1	CORD	n/a	WING	CORD	5	[0, 0, 0]	-999	PAL1	1	R1162N
615.091	4.852	953745	REC_START	n/a	5	-999	n/a	n/a	n/a	n/a	5	[0, 0, 0]	-999	PAL1	1	R1162N
619.943	0.172	958597	REC_EVENT	4852	5	1	CORD	<>	WING	CORD	5	[0, 0, 0]	-999	PAL1	1	R1162N
620.115	0.009	958769	REC_END	n/a	5	-999	n/a	n/a	n/a	n/a	5	[0, 0, 0]	-999	PAL1	1	R1162N
620.124	0.983	958778	TEST_ORIENT	n/a	2	2	SHRIMP	n/a	SPRING	SHRIMP	5	[0, 0, 0]	-999	PAL1	1	R1162N
621.107	0.001	959761	TEST_PROBE	n/a	2	2	SHRIMP	n/a	SPRING	SHRIMP	5	[0, 0, 0]	-999	PAL1	1	R1162N
621.108	4.643	959762	REC_START	n/a	2	-999	n/a	n/a	n/a	n/a	5	[0, 0, 0]	-999	PAL1	1	R1162N
625.751	0.365	964405	REC_EVENT	4643	2	2	SHRIMP	<>	SPRING	SHRIMP	5	[0, 0, 0]	-999	PAL1	1	R1162N
626.116	0.009	964770	REC_END	n/a	2	-999	n/a	n/a	n/a	n/a	5	[0, 0, 0]	-999	PAL1	1	R1162N
626.125	0.967	964779	TEST_ORIENT	n/a	3	3	CAGE	n/a	CAGE	STRING	5	[0, 0, 0]	-999	PAL1	1	R1162N
627.092	0.0	965746	TEST_PROBE	n/a	3	3	CAGE	n/a	CAGE	STRING	5	[0, 0, 0]	-999	PAL1	1	R1162N
627.092	4.713	965746	REC_START	n/a	3	-999	n/a	n/a	n/a	n/a	5	[0, 0, 0]	-999	PAL1	1	R1162N
631.805	0.304	970459	REC_EVENT	4713	3	3	CAGE	<>	CAGE	STRING	5	[0, 0, 0]	-999	PAL1	1	R1162N
632.109	0.017	970763	REC_END	n/a	3	-999	n/a	n/a	n/a	n/a	5	[0, 0, 0]	-999	PAL1	1	R1162N
632.126	1.0	970780	TEST_ORIENT	n/a	4	4	EAR	SKI	SKI	EAR	5	[0, 0, 0]	-999	PAL1	1	R1162N
633.126	0.0	971780	TEST_PROBE	n/a	4	4	EAR	SKI	SKI	EAR	5	[0, 0, 0]	-999	PAL1	1	R1162N
633.126	0.797	971780	REC_START	n/a	4	-999	n/a	SKI	n/a	n/a	5	[0, 0, 0]	-999	PAL1	1	R1162N
633.923	4.22	972577	REC_EVENT	797	4	4	EAR	SKI	SKI	EAR	5	[0, 0, 0]	-999	PAL1	1	R1162N
638.143	0.017	976797	REC_END	n/a	4	-999	n/a	n/a	n/a	n/a	5	[0, 0, 0]	-999	PAL1	1	R1162N
638.16	0.95	976814	TEST_ORIENT	n/a	1	5	WAVE	n/a	GLASS	WAVE	5	[0, 0, 0]	-999	PAL1	1	R1162N
639.11	0.0	977764	REC_START	n/a	1	-999	n/a	n/a	n/a	n/a	5	[0, 0, 0]	-999	PAL1	1	R1162N
639.11	4.852	977764	TEST_PROBE	n/a	1	5	WAVE	n/a	GLASS	WAVE	5	[0, 0, 0]	-999	PAL1	1	R1162N
643.962	0.165	982616	REC_EVENT	4852	1	5	WAVE	<>	GLASS	WAVE	5	[0, 0, 0]	-999	PAL1	1	R1162N
644.127	0.017	982781	REC_END	n/a	1	-999	n/a	n/a	n/a	n/a	5	[0, 0, 0]	-999	PAL1	1	R1162N
644.144	1.033	982798	TEST_ORIENT	n/a	6	6	CHAIR	BOOK	BOWL	CHAIR	5	[0, 0, 0]	-999	PAL1	1	R1162N
645.177	0.001	983831	TEST_PROBE	n/a	6	6	CHAIR	BOOK	BOWL	CHAIR	5	[0, 0, 0]	-999	PAL1	1	R1162N
645.178	1.748	983832	REC_START	n/a	6	-999	n/a	BOOK	n/a	n/a	5	[0, 0, 0]	-999	PAL1	1	R1162N
646.926	3.252	985580	REC_EVENT	1748	6	6	CHAIR	BOOK	BOWL	CHAIR	5	[0, 0, 0]	-999	PAL1	1	R1162N
650.178	0.75	988831	REC_END	n/a	6	-999	n/a	n/a	n/a	n/a	5	[0, 0, 0]	-999	PAL1	1	R1162N
650.928	10.452	989581	ENCODING_START	n/a	0	-999	n/a	n/a	n/a	n/a	6	[0, 0, 0]	-999	PAL1	1	R1162N
661.38	0.966	1000033	STUDY_ORIENT	n/a	1	5	GEESE	n/a	GEESE	JEEP	6	[0, 0, 0]	-999	PAL1	1	R1162N
662.346	5.018	1000999	STUDY_PAIR	n/a	1	5	GEESE	n/a	GEESE	JEEP	6	[0, 0, 0]	-999	PAL1	1	R1162N
667.364	0.966	1006017	STUDY_ORIENT	n/a	2	2	PEN	n/a	TEA	PEN	6	[0, 0, 0]	-999	PAL1	1	R1162N
668.33	5.018	1006983	STUDY_PAIR	n/a	2	2	PEN	n/a	TEA	PEN	6	[0, 0, 0]	-999	PAL1	1	R1162N
673.348	1.017	1012001	STUDY_ORIENT	n/a	3	1	BOMB	n/a	BOMB	BARN	6	[0, 0, 0]	-999	PAL1	1	R1162N
674.365	5.034	1013018	STUDY_PAIR	n/a	3	1	BOMB	n/a	BOMB	BARN	6	[0, 0, 0]	-999	PAL1	1	R1162N
679.399	0.783	1018052	STUDY_ORIENT	n/a	4	4	SLIME	SPARK	SPARK	SLIME	6	[0, 0, 0]	-999	PAL1	1	R1162N
680.182	5.034	1018835	STUDY_PAIR	n/a	4	4	SLIME	SPARK	SPARK	SLIME	6	[0, 0, 0]	-999	PAL1	1	R1162N
685.216	0.783	1023869	STUDY_ORIENT	n/a	5	3	PET	n/a	SOAP	PET	6	[0, 0, 0]	-999	PAL1	1	R1162N
685.999	5.018	1024652	STUDY_PAIR	n/a	5	3	PET	n/a	SOAP	PET	6	[0, 0, 0]	-999	PAL1	1	R1162N
691.017	0.867	1029670	STUDY_ORIENT	n/a	6	6	BIRD	n/a	CUP	BIRD	6	[0, 0, 0]	-999	PAL1	1	R1162N
691.884	4.001	1030537	STUDY_PAIR	n/a	6	6	BIRD	n/a	CUP	BIRD	6	[0, 0, 0]	-999	PAL1	1	R1162N
695.885	1.0	1034538	START	n/a	-999	-999	n/a	n/a	n/a	n/a	6	[-999, -999, -999]	-999	PAL1	1	R1162N
696.885	0.016	1035538	MATH_START	n/a	-999	-999	n/a	n/a	n/a	n/a	6	[0, 0, 0]	-999	PAL1	1	R1162N
696.901	3.284	1035554	PROB	3257	-999	-999	n/a	n/a	n/a	n/a	6	[8, 4, 8]	20	PAL1	1	R1162N
700.185	2.717	1038838	PROB	2694	-999	-999	n/a	n/a	n/a	n/a	6	[1, 4, 9]	14	PAL1	1	R1162N
702.902	2.934	1041555	PROB	2904	-999	-999	n/a	n/a	n/a	n/a	6	[8, 2, 6]	16	PAL1	1	R1162N
705.836	5.567	1044489	PROB	5545	-999	-999	n/a	n/a	n/a	n/a	6	[4, 7, 8]	19	PAL1	1	R1162N
711.403	3.034	1050055	PROB	3002	-999	-999	n/a	n/a	n/a	n/a	6	[2, 5, 3]	10	PAL1	1	R1162N
714.437	3.328	1053089	PROB	3328	-999	-999	n/a	n/a	n/a	n/a	6	[9, 3, 1]	14	PAL1	1	R1162N
717.765	0.005	1056417	STOP	n/a	-999	-999	n/a	n/a	n/a	n/a	6	[-999, -999, -999]	-999	PAL1	1	R1162N
717.77	0.0	1056422	MATH_END	n/a	-999	-999	n/a	n/a	n/a	n/a	6	[0, 0, 0]	-999	PAL1	1	R1162N
717.77	0.017	1056422	TEST_START	n/a	-999	-999	n/a	n/a	n/a	n/a	6	[0, 0, 0]	-999	PAL1	1	R1162N
717.787	1.034	1056439	TEST_ORIENT	n/a	3	1	BOMB	n/a	BOMB	BARN	6	[0, 0, 0]	-999	PAL1	1	R1162N
718.821	0.0	1057473	TEST_PROBE	n/a	3	1	BOMB	n/a	BOMB	BARN	6	[0, 0, 0]	-999	PAL1	1	R1162N
718.821	4.76	1057473	REC_START	n/a	3	-999	n/a	n/a	n/a	n/a	6	[0, 0, 0]	-999	PAL1	1	R1162N
723.581	0.257	1062233	REC_EVENT	4760	3	1	BOMB	<>	BOMB	BARN	6	[0, 0, 0]	-999	PAL1	1	R1162N
723.838	0.018	1062490	REC_END	n/a	3	-999	n/a	n/a	n/a	n/a	6	[0, 0, 0]	-999	PAL1	1	R1162N
723.856	0.832	1062508	TEST_ORIENT	n/a	2	2	PEN	n/a	TEA	PEN	6	[0, 0, 0]	-999	PAL1	1	R1162N
724.688	0.001	1063340	TEST_PROBE	n/a	2	2	PEN	n/a	TEA	PEN	6	[0, 0, 0]	-999	PAL1	1	R1162N
724.689	4.783	1063341	REC_START	n/a	2	-999	n/a	n/a	n/a	n/a	6	[0, 0, 0]	-999	PAL1	1	R1162N
729.472	0.241	1068124	REC_EVENT	4783	2	2	PEN	<>	TEA	PEN	6	[0, 0, 0]	-999	PAL1	1	R1162N
729.713	0.009	1068365	REC_END	n/a	2	-999	n/a	n/a	n/a	n/a	6	[0, 0, 0]	-999	PAL1	1	R1162N
729.722	0.883	1068374	TEST_ORIENT	n/a	5	3	PET	n/a	SOAP	PET	6	[0, 0, 0]	-999	PAL1	1	R1162N
730.605	0.001	1069257	TEST_PROBE	n/a	5	3	PET	n/a	SOAP	PET	6	[0, 0, 0]	-999	PAL1	1	R1162N
730.606	4.876	1069258	REC_START	n/a	5	-999	n/a	n/a	n/a	n/a	6	[0, 0, 0]	-999	PAL1	1	R1162N
735.482	0.132	1074134	REC_EVENT	4876	5	3	PET	<>	SOAP	PET	6	[0, 0, 0]	-999	PAL1	1	R1162N
735.614	0.009	1074266	REC_END	n/a	5	-999	n/a	n/a	n/a	n/a	6	[0, 0, 0]	-999	PAL1	1	R1162N
735.623	0.8	1074275	TEST_ORIENT	n/a	4	4	SLIME	SPARK	SPARK	SLIME	6	[0, 0, 0]	-999	PAL1	1	R1162N
736.423	0.0	1075075	TEST_PROBE	n/a	4	4	SLIME	SPARK	SPARK	SLIME	6	[0, 0, 0]	-999	PAL1	1	R1162N
736.423	1.379	1075075	REC_START	n/a	4	-999	n/a	SPARK	n/a	n/a	6	[0, 0, 0]	-999	PAL1	1	R1162N
737.802	3.638	1076454	REC_EVENT	1379	4	4	SLIME	SPARK	SPARK	SLIME	6	[0, 0, 0]	-999	PAL1	1	R1162N
741.44	0.017	1080092	REC_END	n/a	4	-999	n/a	n/a	n/a	n/a	6	[0, 0, 0]	-999	PAL1	1	R1162N
741.457	0.95	1080109	TEST_ORIENT	n/a	1	5	GEESE	n/a	GEESE	JEEP	6	[0, 0, 0]	-999	PAL1	1	R1162N
742.407	0.001	1081059	TEST_PROBE	n/a	1	5	GEESE	n/a	GEESE	JEEP	6	[0, 0, 0]	-999	PAL1	1	R1162N
742.408	4.829	1081060	REC_START	n/a	1	-999	n/a	n/a	n/a	n/a	6	[0, 0, 0]	-999	PAL1	1	R1162N
747.237	0.195	1085889	REC_EVENT	4829	1	5	GEESE	<>	GEESE	JEEP	6	[0, 0, 0]	-999	PAL1	1	R1162N
747.432	0.009	1086084	REC_END	n/a	1	-999	n/a	n/a	n/a	n/a	6	[0, 0, 0]	-999	PAL1	1	R1162N
747.441	0.9	1086093	TEST_ORIENT	n/a	6	6	BIRD	n/a	CUP	BIRD	6	[0, 0, 0]	-999	PAL1	1	R1162N
748.341	0.001	1086993	TEST_PROBE	n/a	6	6	BIRD	n/a	CUP	BIRD	6	[0, 0, 0]	-999	PAL1	1	R1162N
748.342	4.783	1086994	REC_START	n/a	6	-999	n/a	n/a	n/a	n/a	6	[0, 0, 0]	-999	PAL1	1	R1162N
753.125	0.233	1091777	REC_EVENT	4783	6	6	BIRD	<>	CUP	BIRD	6	[0, 0, 0]	-999	PAL1	1	R1162N
753.358	15.669	1092010	REC_END	n/a	6	-999	n/a	n/a	n/a	n/a	6	[0, 0, 0]	-999	PAL1	1	R1162N
769.027	10.452	1107678	ENCODING_START	n/a	0	-999	n/a	n/a	n/a	n/a	7	[0, 0, 0]	-999	PAL1	1	R1162N
779.479	0.916	1118130	STUDY_ORIENT	n/a	1	3	BEACH	n/a	BEACH	SMILE	7	[0, 0, 0]	-999	PAL1	1	R1162N
780.395	5.018	1119046	STUDY_PAIR	n/a	1	3	BEACH	n/a	BEACH	SMILE	7	[0, 0, 0]	-999	PAL1	1	R1162N
785.413	1.0	1124064	STUDY_ORIENT	n/a	2	4	ROCK	n/a	ROCK	BOY	7	[0, 0, 0]	-999	PAL1	1	R1162N
786.413	5.034	1125064	STUDY_PAIR	n/a	2	4	ROCK	n/a	ROCK	BOY	7	[0, 0, 0]	-999	PAL1	1	R1162N
791.447	0.833	1130098	STUDY_ORIENT	n/a	3	5	WOOD	n/a	BOX	WOOD	7	[0, 0, 0]	-999	PAL1	1	R1162N
792.28	5.018	1130931	STUDY_PAIR	n/a	3	5	WOOD	n/a	BOX	WOOD	7	[0, 0, 0]	-999	PAL1	1	R1162N
797.298	0.816	1135949	STUDY_ORIENT	n/a	4	2	RUG	n/a	RUG	BRICK	7	[0, 0, 0]	-999	PAL1	1	R1162N
798.114	5.018	1136765	STUDY_PAIR	n/a	4	2	RUG	n/a	RUG	BRICK	7	[0, 0, 0]	-999	PAL1	1	R1162N
803.132	0.967	1141783	STUDY_ORIENT	n/a	5	1	BOOT	BEAR	TEETH	BOOT	7	[0, 0, 0]	-999	PAL1	1	R1162N
804.099	5.034	1142750	STUDY_PAIR	n/a	5	1	BOOT	BEAR	TEETH	BOOT	7	[0, 0, 0]	-999	PAL1	1	R1162N
809.133	0.883	1147784	STUDY_ORIENT	n/a	6	6	BEAR	n/a	LAKE	BEAR	7	[0, 0, 0]	-999	PAL1	1	R1162N
810.016	4.018	1148667	STUDY_PAIR	n/a	6	6	BEAR	n/a	LAKE	BEAR	7	[0, 0, 0]	-999	PAL1	1	R1162N
814.034	0.999	1152685	START	n/a	-999	-999	n/a	n/a	n/a	n/a	7	[-999, -999, -999]	-999	PAL1	1	R1162N
815.033	0.017	1153684	MATH_START	n/a	-999	-999	n/a	n/a	n/a	n/a	7	[0, 0, 0]	-999	PAL1	1	R1162N
815.05	4.667	1153701	PROB	4640	-999	-999	n/a	n/a	n/a	n/a	7	[6, 6, 7]	19	PAL1	1	R1162N
819.717	2.367	1158368	PROB	2332	-999	-999	n/a	n/a	n/a	n/a	7	[1, 4, 6]	11	PAL1	1	R1162N
822.084	2.534	1160735	PROB	2509	-999	-999	n/a	n/a	n/a	n/a	7	[2, 1, 3]	6	PAL1	1	R1162N
824.618	3.517	1163269	PROB	3495	-999	-999	n/a	n/a	n/a	n/a	7	[6, 9, 1]	16	PAL1	1	R1162N
828.135	2.917	1166786	PROB	2898	-999	-999	n/a	n/a	n/a	n/a	7	[5, 4, 5]	14	PAL1	1	R1162N
831.052	4.373	1169702	PROB	4373	-999	-999	n/a	n/a	n/a	n/a	7	[4, 8, 3]	15	PAL1	1	R1162N
835.425	0.011	1174075	STOP	n/a	-999	-999	n/a	n/a	n/a	n/a	7	[-999, -999, -999]	-999	PAL1	1	R1162N
835.436	0.0	1174086	MATH_END	n/a	-999	-999	n/a	n/a	n/a	n/a	7	[0, 0, 0]	-999	PAL1	1	R1162N
835.436	0.017	1174086	TEST_START	n/a	-999	-999	n/a	n/a	n/a	n/a	7	[0, 0, 0]	-999	PAL1	1	R1162N
835.453	0.883	1174103	TEST_ORIENT	n/a	5	1	BOOT	BEAR	TEETH	BOOT	7	[0, 0, 0]	-999	PAL1	1	R1162N
836.336	0.001	1174986	TEST_PROBE	n/a	5	1	BOOT	BEAR	TEETH	BOOT	7	[0, 0, 0]	-999	PAL1	1	R1162N
836.337	1.907	1174987	REC_START	n/a	5	-999	n/a	BEAR	n/a	n/a	7	[0, 0, 0]	-999	PAL1	1	R1162N
838.244	3.109	1176894	REC_EVENT	1907	5	1	BOOT	BEAR	TEETH	BOOT	7	[0, 0, 0]	-999	PAL1	1	R1162N
841.353	0.017	1180003	REC_END	n/a	5	-999	n/a	n/a	n/a	n/a	7	[0, 0, 0]	-999	PAL1	1	R1162N
841.37	0.967	1180020	TEST_ORIENT	n/a	4	2	RUG	n/a	RUG	BRICK	7	[0, 0, 0]	-999	PAL1	1	R1162N
842.337	0.0	1180987	TEST_PROBE	n/a	4	2	RUG	n/a	RUG	BRICK	7	[0, 0, 0]	-999	PAL1	1	R1162N
842.337	4.969	1180987	REC_START	n/a	4	-999	n/a	n/a	n/a	n/a	7	[0, 0, 0]	-999	PAL1	1	R1162N
847.306	0.048	1185956	REC_EVENT	4969	4	2	RUG	<>	RUG	BRICK	7	[0, 0, 0]	-999	PAL1	1	R1162N
847.354	0.017	1186004	REC_END	n/a	4	-999	n/a	n/a	n/a	n/a	7	[0, 0, 0]	-999	PAL1	1	R1162N
847.371	0.95	1186021	TEST_ORIENT	n/a	1	3	BEACH	n/a	BEACH	SMILE	7	[0, 0, 0]	-999	PAL1	1	R1162N
848.321	0.0	1186971	TEST_PROBE	n/a	1	3	BEACH	n/a	BEACH	SMILE	7	[0, 0, 0]	-999	PAL1	1	R1162N
848.321	4.806	1186971	REC_START	n/a	1	-999	n/a	n/a	n/a	n/a	7	[0, 0, 0]	-999	PAL1	1	R1162N
853.127	0.211	1191777	REC_EVENT	4806	1	3	BEACH	<>	BEACH	SMILE	7	[0, 0, 0]	-999	PAL1	1	R1162N
853.338	0.017	1191988	REC_END	n/a	1	-999	n/a	n/a	n/a	n/a	7	[0, 0, 0]	-999	PAL1	1	R1162N
853.355	0.967	1192005	TEST_ORIENT	n/a	2	4	ROCK	n/a	ROCK	BOY	7	[0, 0, 0]	-999	PAL1	1	R1162N
854.322	0.001	1192972	TEST_PROBE	n/a	2	4	ROCK	n/a	ROCK	BOY	7	[0, 0, 0]	-999	PAL1	1	R1162N
854.323	4.922	1192973	REC_START	n/a	2	-999	n/a	n/a	n/a	n/a	7	[0, 0, 0]	-999	PAL1	1	R1162N
859.245	0.094	1197895	REC_EVENT	4922	2	4	ROCK	<>	ROCK	BOY	7	[0, 0, 0]	-999	PAL1	1	R1162N
859.339	0.017	1197989	REC_END	n/a	2	-999	n/a	n/a	n/a	n/a	7	[0, 0, 0]	-999	PAL1	1	R1162N
859.356	0.933	1198006	TEST_ORIENT	n/a	3	5	WOOD	n/a	BOX	WOOD	7	[0, 0, 0]	-999	PAL1	1	R1162N
860.289	0.001	1198939	TEST_PROBE	n/a	3	5	WOOD	n/a	BOX	WOOD	7	[0, 0, 0]	-999	PAL1	1	R1162N
860.29	4.829	1198940	REC_START	n/a	3	-999	n/a	n/a	n/a	n/a	7	[0, 0, 0]	-999	PAL1	1	R1162N
865.119	0.179	1203769	REC_EVENT	4829	3	5	WOOD	<>	BOX	WOOD	7	[0, 0, 0]	-999	PAL1	1	R1162N
865.298	0.009	1203948	REC_END	n/a	3	-999	n/a	n/a	n/a	n/a	7	[0, 0, 0]	-999	PAL1	1	R1162N
865.307	0.983	1203957	TEST_ORIENT	n/a	6	6	BEAR	n/a	LAKE	BEAR	7	[0, 0, 0]	-999	PAL1	1	R1162N
866.29	0.001	1204940	TEST_PROBE	n/a	6	6	BEAR	n/a	LAKE	BEAR	7	[0, 0, 0]	-999	PAL1	1	R1162N
866.291	4.945	1204941	REC_START	n/a	6	-999	n/a	n/a	n/a	n/a	7	[0, 0, 0]	-999	PAL1	1	R1162N
871.236	0.08	1209886	REC_EVENT	4945	6	6	BEAR	<>	LAKE	BEAR	7	[0, 0, 0]	-999	PAL1	1	R1162N
871.316	1.684	1209966	REC_END	n/a	6	-999	n/a	n/a	n/a	n/a	7	[0, 0, 0]	-999	PAL1	1	R1162N
873.0	10.442	1211650	ENCODING_START	n/a	0	-999	n/a	n/a	n/a	n/a	8	[0, 0, 0]	-999	PAL1	1	R1162N
883.442	0.834	1222092	STUDY_ORIENT	n/a	1	1	TOOTH	WAVE	WHEEL	TOOTH	8	[0, 0, 0]	-999	PAL1	1	R1162N
884.276	5.034	1222926	STUDY_PAIR	n/a	1	1	TOOTH	WAVE	WHEEL	TOOTH	8	[0, 0, 0]	-999	PAL1	1	R1162N
889.31	0.833	1227959	STUDY_ORIENT	n/a	2	2	SALT	n/a	SALT	DEER	8	[0, 0, 0]	-999	PAL1	1	R1162N
890.143	5.018	1228792	STUDY_PAIR	n/a	2	2	SALT	n/a	SALT	DEER	8	[0, 0, 0]	-999	PAL1	1	R1162N
895.161	0.8	1233810	STUDY_ORIENT	n/a	3	5	FENCE	n/a	FENCE	AXE	8	[0, 0, 0]	-999	PAL1	1	R1162N
895.961	5.034	1234610	STUDY_PAIR	n/a	3	5	FENCE	n/a	FENCE	AXE	8	[0, 0, 0]	-999	PAL1	1	R1162N
900.995	0.884	1239644	STUDY_ORIENT	n/a	4	4	BOOK	n/a	BOOK	CALF	8	[0, 0, 0]	-999	PAL1	1	R1162N
901.879	5.033	1240528	STUDY_PAIR	n/a	4	4	BOOK	n/a	BOOK	CALF	8	[0, 0, 0]	-999	PAL1	1	R1162N
906.912	0.968	1245561	STUDY_ORIENT	n/a	5	3	BATH	RAIN	RAIN	BATH	8	[0, 0, 0]	-999	PAL1	1	R1162N
907.88	5.033	1246529	STUDY_PAIR	n/a	5	3	BATH	RAIN	RAIN	BATH	8	[0, 0, 0]	-999	PAL1	1	R1162N
912.913	0.917	1251562	STUDY_ORIENT	n/a	6	6	PEAR	WHALE	WHALE	PEAR	8	[0, 0, 0]	-999	PAL1	1	R1162N
913.83	4.019	1252479	STUDY_PAIR	n/a	6	6	PEAR	WHALE	WHALE	PEAR	8	[0, 0, 0]	-999	PAL1	1	R1162N
917.849	0.999	1256498	START	n/a	-999	-999	n/a	n/a	n/a	n/a	8	[-999, -999, -999]	-999	PAL1	1	R1162N
918.848	0.017	1257497	MATH_START	n/a	-999	-999	n/a	n/a	n/a	n/a	8	[0, 0, 0]	-999	PAL1	1	R1162N
918.865	3.249	1257514	PROB	3221	-999	-999	n/a	n/a	n/a	n/a	8	[8, 6, 1]	15	PAL1	1	R1162N
922.114	3.484	1260763	PROB	3460	-999	-999	n/a	n/a	n/a	n/a	8	[9, 8, 8]	24	PAL1	1	R1162N
925.598	2.784	1264247	PROB	2760	-999	-999	n/a	n/a	n/a	n/a	8	[7, 7, 4]	18	PAL1	1	R1162N
928.382	5.601	1267031	PROB	5567	-999	-999	n/a	n/a	n/a	n/a	8	[7, 9, 7]	23	PAL1	1	R1162N
933.983	3.7	1272632	PROB	3678	-999	-999	n/a	n/a	n/a	n/a	8	[6, 6, 1]	13	PAL1	1	R1162N
937.683	4.538	1276332	PROB	4538	-999	-999	n/a	n/a	n/a	n/a	8	[4, 8, 3]	15	PAL1	1	R1162N
942.221	0.013	1280870	STOP	n/a	-999	-999	n/a	n/a	n/a	n/a	8	[-999, -999, -999]	-999	PAL1	1	R1162N
942.234	0.0	1280883	MATH_END	n/a	-999	-999	n/a	n/a	n/a	n/a	8	[0, 0, 0]	-999	PAL1	1	R1162N
942.234	0.016	1280883	TEST_START	n/a	-999	-999	n/a	n/a	n/a	n/a	8	[0, 0, 0]	-999	PAL1	1	R1162N
942.25	0.884	1280899	TEST_ORIENT	n/a	1	1	TOOTH	WAVE	WHEEL	TOOTH	8	[0, 0, 0]	-999	PAL1	1	R1162N
943.134	0.001	1281783	TEST_PROBE	n/a	1	1	TOOTH	WAVE	WHEEL	TOOTH	8	[0, 0, 0]	-999	PAL1	1	R1162N
943.135	1.895	1281784	REC_START	n/a	1	-999	n/a	WAVE	n/a	n/a	8	[0, 0, 0]	-999	PAL1	1	R1162N
945.03	3.129	1283679	REC_EVENT	1895	1	1	TOOTH	WAVE	WHEEL	TOOTH	8	[0, 0, 0]	-999	PAL1	1	R1162N
948.159	0.009	1286808	REC_END	n/a	1	-999	n/a	n/a	n/a	n/a	8	[0, 0, 0]	-999	PAL1	1	R1162N
948.168	0.95	1286817	TEST_ORIENT	n/a	2	2	SALT	n/a	SALT	DEER	8	[0, 0, 0]	-999	PAL1	1	R1162N
949.118	0.0	1287766	TEST_PROBE	n/a	2	2	SALT	n/a	SALT	DEER	8	[0, 0, 0]	-999	PAL1	1	R1162N
949.118	4.643	1287766	REC_START	n/a	2	-999	n/a	n/a	n/a	n/a	8	[0, 0, 0]	-999	PAL1	1	R1162N
953.761	0.374	1292409	REC_EVENT	4643	2	2	SALT	<>	SALT	DEER	8	[0, 0, 0]	-999	PAL1	1	R1162N
954.135	0.017	1292783	REC_END	n/a	2	-999	n/a	n/a	n/a	n/a	8	[0, 0, 0]	-999	PAL1	1	R1162N
954.152	0.95	1292800	TEST_ORIENT	n/a	5	3	BATH	RAIN	RAIN	BATH	8	[0, 0, 0]	-999	PAL1	1	R1162N
955.102	0.0	1293750	TEST_PROBE	n/a	5	3	BATH	RAIN	RAIN	BATH	8	[0, 0, 0]	-999	PAL1	1	R1162N
955.102	1.523	1293750	REC_START	n/a	5	-999	n/a	RAIN	n/a	n/a	8	[0, 0, 0]	-999	PAL1	1	R1162N
956.625	3.494	1295273	REC_EVENT	1523	5	3	BATH	RAIN	RAIN	BATH	8	[0, 0, 0]	-999	PAL1	1	R1162N
960.119	0.017	1298767	REC_END	n/a	5	-999	n/a	n/a	n/a	n/a	8	[0, 0, 0]	-999	PAL1	1	R1162N
960.136	0.834	1298784	TEST_ORIENT	n/a	4	4	BOOK	n/a	BOOK	CALF	8	[0, 0, 0]	-999	PAL1	1	R1162N
960.97	0.0	1299618	TEST_PROBE	n/a	4	4	BOOK	n/a	BOOK	CALF	8	[0, 0, 0]	-999	PAL1	1	R1162N
960.97	4.965	1299618	REC_START	n/a	4	-999	n/a	n/a	n/a	n/a	8	[0, 0, 0]	-999	PAL1	1	R1162N
965.935	0.052	1304583	REC_EVENT	4965	4	4	BOOK	<>	BOOK	CALF	8	[0, 0, 0]	-999	PAL1	1	R1162N
965.987	0.017	1304635	REC_END	n/a	4	-999	n/a	n/a	n/a	n/a	8	[0, 0, 0]	-999	PAL1	1	R1162N
966.004	0.851	1304652	TEST_ORIENT	n/a	3	5	FENCE	n/a	FENCE	AXE	8	[0, 0, 0]	-999	PAL1	1	R1162N
966.855	0.0	1305503	TEST_PROBE	n/a	3	5	FENCE	n/a	FENCE	AXE	8	[0, 0, 0]	-999	PAL1	1	R1162N
966.855	4.806	1305503	REC_START	n/a	3	-999	n/a	n/a	n/a	n/a	8	[0, 0, 0]	-999	PAL1	1	R1162N
971.661	0.211	1310309	REC_EVENT	4806	3	5	FENCE	<>	FENCE	AXE	8	[0, 0, 0]	-999	PAL1	1	R1162N
971.872	0.016	1310520	REC_END	n/a	3	-999	n/a	n/a	n/a	n/a	8	[0, 0, 0]	-999	PAL1	1	R1162N
971.888	0.8	1310536	TEST_ORIENT	n/a	6	6	PEAR	WHALE	WHALE	PEAR	8	[0, 0, 0]	-999	PAL1	1	R1162N
972.688	0.0	1311336	REC_START	n/a	6	-999	n/a	WHALE	n/a	n/a	8	[0, 0, 0]	-999	PAL1	1	R1162N
972.688	1.284	1311336	TEST_PROBE	n/a	6	6	PEAR	WHALE	WHALE	PEAR	8	[0, 0, 0]	-999	PAL1	1	R1162N
973.972	3.733	1312620	REC_EVENT	1284	6	6	PEAR	WHALE	WHALE	PEAR	8	[0, 0, 0]	-999	PAL1	1	R1162N
977.705	1.123	1316353	REC_END	n/a	6	-999	n/a	n/a	n/a	n/a	8	[0, 0, 0]	-999	PAL1	1	R1162N
978.828	10.445	1317476	ENCODING_START	n/a	0	-999	n/a	n/a	n/a	n/a	9	[0, 0, 0]	-999	PAL1	1	R1162N
989.273	1.017	1327921	STUDY_ORIENT	n/a	1	5	ZOO	n/a	HEART	ZOO	9	[0, 0, 0]	-999	PAL1	1	R1162N
990.29	5.034	1328938	STUDY_PAIR	n/a	1	5	ZOO	n/a	HEART	ZOO	9	[0, 0, 0]	-999	PAL1	1	R1162N
995.324	1.0	1333972	STUDY_ORIENT	n/a	2	6	ROPE	n/a	ROPE	VASE	9	[0, 0, 0]	-999	PAL1	1	R1162N
996.324	5.034	1334972	STUDY_PAIR	n/a	2	6	ROPE	n/a	ROPE	VASE	9	[0, 0, 0]	-999	PAL1	1	R1162N
1001.358	0.9	1340006	STUDY_ORIENT	n/a	3	1	SHARK	n/a	BANK	SHARK	9	[0, 0, 0]	-999	PAL1	1	R1162N
1002.258	5.018	1340906	STUDY_PAIR	n/a	3	1	SHARK	n/a	BANK	SHARK	9	[0, 0, 0]	-999	PAL1	1	R1162N
1007.276	0.866	1345924	STUDY_ORIENT	n/a	4	4	SNOW	BOY	FACE	SNOW	9	[0, 0, 0]	-999	PAL1	1	R1162N
1008.142	5.018	1346790	STUDY_PAIR	n/a	4	4	SNOW	BOY	FACE	SNOW	9	[0, 0, 0]	-999	PAL1	1	R1162N
1013.16	0.983	1351807	STUDY_ORIENT	n/a	5	3	FISH	BOWL	FISH	HORN	9	[0, 0, 0]	-999	PAL1	1	R1162N
1014.143	5.034	1352790	STUDY_PAIR	n/a	5	3	FISH	BOWL	FISH	HORN	9	[0, 0, 0]	-999	PAL1	1	R1162N
1019.177	0.817	1357824	STUDY_ORIENT	n/a	6	2	WEED	CAT	CAT	WEED	9	[0, 0, 0]	-999	PAL1	1	R1162N
1019.994	4.018	1358641	STUDY_PAIR	n/a	6	2	WEED	CAT	CAT	WEED	9	[0, 0, 0]	-999	PAL1	1	R1162N
1024.012	0.999	1362659	START	n/a	-999	-999	n/a	n/a	n/a	n/a	9	[-999, -999, -999]	-999	PAL1	1	R1162N
1025.011	0.017	1363658	MATH_START	n/a	-999	-999	n/a	n/a	n/a	n/a	9	[0, 0, 0]	-999	PAL1	1	R1162N
1025.028	3.0	1363675	PROB	2974	-999	-999	n/a	n/a	n/a	n/a	9	[2, 4, 6]	12	PAL1	1	R1162N
1028.028	4.468	1366675	PROB	4446	-999	-999	n/a	n/a	n/a	n/a	9	[2, 3, 9]	14	PAL1	1	R1162N
1032.496	2.0	1371143	PROB	1978	-999	-999	n/a	n/a	n/a	n/a	9	[1, 1, 5]	7	PAL1	1	R1162N
1034.496	2.884	1373143	PROB	2850	-999	-999	n/a	n/a	n/a	n/a	9	[6, 6, 3]	15	PAL1	1	R1162N
1037.38	3.2	1376027	PROB	3182	-999	-999	n/a	n/a	n/a	n/a	9	[5, 3, 3]	13	PAL1	1	R1162N
1040.58	4.165	1379227	PROB	4165	-999	-999	n/a	n/a	n/a	n/a	9	[8, 4, 8]	20	PAL1	1	R1162N
1044.745	0.019	1383392	STOP	n/a	-999	-999	n/a	n/a	n/a	n/a	9	[-999, -999, -999]	-999	PAL1	1	R1162N
1044.764	0.0	1383411	TEST_START	n/a	-999	-999	n/a	n/a	n/a	n/a	9	[0, 0, 0]	-999	PAL1	1	R1162N
1044.764	0.017	1383411	MATH_END	n/a	-999	-999	n/a	n/a	n/a	n/a	9	[0, 0, 0]	-999	PAL1	1	R1162N
1044.781	0.883	1383428	TEST_ORIENT	n/a	3	1	SHARK	n/a	BANK	SHARK	9	[0, 0, 0]	-999	PAL1	1	R1162N
1045.664	0.001	1384311	TEST_PROBE	n/a	3	1	SHARK	n/a	BANK	SHARK	9	[0, 0, 0]	-999	PAL1	1	R1162N
1045.665	4.574	1384312	REC_START	n/a	3	-999	n/a	n/a	n/a	n/a	9	[0, 0, 0]	-999	PAL1	1	R1162N
1050.239	0.442	1388886	REC_EVENT	4574	3	1	SHARK	<>	BANK	SHARK	9	[0, 0, 0]	-999	PAL1	1	R1162N
1050.681	0.017	1389328	REC_END	n/a	3	-999	n/a	n/a	n/a	n/a	9	[0, 0, 0]	-999	PAL1	1	R1162N
1050.698	1.033	1389345	TEST_ORIENT	n/a	6	2	WEED	CAT	CAT	WEED	9	[0, 0, 0]	-999	PAL1	1	R1162N
1051.731	0.001	1390378	TEST_PROBE	n/a	6	2	WEED	CAT	CAT	WEED	9	[0, 0, 0]	-999	PAL1	1	R1162N
1051.732	1.608	1390379	REC_START	n/a	6	-999	n/a	CAT	n/a	n/a	9	[0, 0, 0]	-999	PAL1	1	R1162N
1053.34	3.4	1391987	REC_EVENT	1608	6	2	WEED	CAT	CAT	WEED	9	[0, 0, 0]	-999	PAL1	1	R1162N
1056.74	0.009	1395387	REC_END	n/a	6	-999	n/a	n/a	n/a	n/a	9	[0, 0, 0]	-999	PAL1	1	R1162N
1056.749	0.817	1395396	TEST_ORIENT	n/a	5	3	FISH	BOWL	FISH	HORN	9	[0, 0, 0]	-999	PAL1	1	R1162N
1057.566	0.0	1396213	TEST_PROBE	n/a	5	3	FISH	BOWL	FISH	HORN	9	[0, 0, 0]	-999	PAL1	1	R1162N
1057.566	1.475	1396213	REC_START	n/a	5	-999	n/a	BOWL	n/a	n/a	9	[0, 0, 0]	-999	PAL1	1	R1162N
1059.041	3.542	1397688	REC_EVENT	1475	5	3	FISH	BOWL	FISH	HORN	9	[0, 0, 0]	-999	PAL1	1	R1162N
1062.583	0.017	1401230	REC_END	n/a	5	-999	n/a	n/a	n/a	n/a	9	[0, 0, 0]	-999	PAL1	1	R1162N
1062.6	0.967	1401247	TEST_ORIENT	n/a	4	4	SNOW	BOY	FACE	SNOW	9	[0, 0, 0]	-999	PAL1	1	R1162N
1063.567	0.0	1402214	REC_START	n/a	4	-999	n/a	BOY	n/a	n/a	9	[0, 0, 0]	-999	PAL1	1	R1162N
1063.567	2.874	1402214	TEST_PROBE	n/a	4	4	SNOW	BOY	FACE	SNOW	9	[0, 0, 0]	-999	PAL1	1	R1162N
1066.441	2.143	1405088	REC_EVENT	2874	4	4	SNOW	BOY	FACE	SNOW	9	[0, 0, 0]	-999	PAL1	1	R1162N
1068.584	0.016	1407230	REC_END	n/a	4	-999	n/a	n/a	n/a	n/a	9	[0, 0, 0]	-999	PAL1	1	R1162N
1068.6	1.017	1407246	TEST_ORIENT	n/a	1	5	ZOO	n/a	HEART	ZOO	9	[0, 0, 0]	-999	PAL1	1	R1162N
1069.617	0.001	1408263	TEST_PROBE	n/a	1	5	ZOO	n/a	HEART	ZOO	9	[0, 0, 0]	-999	PAL1	1	R1162N
1069.618	4.806	1408264	REC_START	n/a	1	-999	n/a	n/a	n/a	n/a	9	[0, 0, 0]	-999	PAL1	1	R1162N
1074.424	0.219	1413070	REC_EVENT	4806	1	5	ZOO	<>	HEART	ZOO	9	[0, 0, 0]	-999	PAL1	1	R1162N
1074.643	0.008	1413289	REC_END	n/a	1	-999	n/a	n/a	n/a	n/a	9	[0, 0, 0]	-999	PAL1	1	R1162N
1074.651	0.917	1413297	TEST_ORIENT	n/a	2	6	ROPE	n/a	ROPE	VASE	9	[0, 0, 0]	-999	PAL1	1	R1162N
1075.568	0.0	1414214	REC_START	n/a	2	-999	n/a	n/a	n/a	n/a	9	[0, 0, 0]	-999	PAL1	1	R1162N
1075.568	4.899	1414214	TEST_PROBE	n/a	2	6	ROPE	n/a	ROPE	VASE	9	[0, 0, 0]	-999	PAL1	1	R1162N
1080.467	0.118	1419113	REC_EVENT	4899	2	6	ROPE	<>	ROPE	VASE	9	[0, 0, 0]	-999	PAL1	1	R1162N
1080.585	0.959	1419231	REC_END	n/a	2	-999	n/a	n/a	n/a	n/a	9	[0, 0, 0]	-999	PAL1	1	R1162N
1081.544	10.443	1420190	ENCODING_START	n/a	0	-999	n/a	n/a	n/a	n/a	10	[0, 0, 0]	-999	PAL1	1	R1162N
1091.987	0.8	1430633	STUDY_ORIENT	n/a	1	1	WORLD	BOOK	WORLD	CLOTH	10	[0, 0, 0]	-999	PAL1	1	R1162N
1092.787	5.034	1431433	STUDY_PAIR	n/a	1	1	WORLD	BOOK	WORLD	CLOTH	10	[0, 0, 0]	-999	PAL1	1	R1162N
1097.821	0.933	1436467	STUDY_ORIENT	n/a	2	6	INK	n/a	FILM	INK	10	[0, 0, 0]	-999	PAL1	1	R1162N
1098.754	5.018	1437400	STUDY_PAIR	n/a	2	6	INK	n/a	FILM	INK	10	[0, 0, 0]	-999	PAL1	1	R1162N
1103.772	0.867	1442418	STUDY_ORIENT	n/a	3	3	SQUARE	n/a	SQUARE	NAIL	10	[0, 0, 0]	-999	PAL1	1	R1162N
1104.639	5.034	1443285	STUDY_PAIR	n/a	3	3	SQUARE	n/a	SQUARE	NAIL	10	[0, 0, 0]	-999	PAL1	1	R1162N
1109.673	1.0	1448319	STUDY_ORIENT	n/a	4	4	BEAK	n/a	BEAK	TIE	10	[0, 0, 0]	-999	PAL1	1	R1162N
1110.673	5.034	1449319	STUDY_PAIR	n/a	4	4	BEAK	n/a	BEAK	TIE	10	[0, 0, 0]	-999	PAL1	1	R1162N
1115.707	0.9	1454353	STUDY_ORIENT	n/a	5	5	TRUCK	ROPE	PALM	TRUCK	10	[0, 0, 0]	-999	PAL1	1	R1162N
1116.607	5.034	1455253	STUDY_PAIR	n/a	5	5	TRUCK	ROPE	PALM	TRUCK	10	[0, 0, 0]	-999	PAL1	1	R1162N
1121.641	0.85	1460287	STUDY_ORIENT	n/a	6	2	PEA	TEA	BAT	PEA	10	[0, 0, 0]	-999	PAL1	1	R1162N
1122.491	4.018	1461137	STUDY_PAIR	n/a	6	2	PEA	TEA	BAT	PEA	10	[0, 0, 0]	-999	PAL1	1	R1162N
1126.509	0.999	1465155	START	n/a	-999	-999	n/a	n/a	n/a	n/a	10	[-999, -999, -999]	-999	PAL1	1	R1162N
1127.508	0.017	1466154	MATH_START	n/a	-999	-999	n/a	n/a	n/a	n/a	10	[0, 0, 0]	-999	PAL1	1	R1162N
1127.525	3.434	1466171	PROB	3409	-999	-999	n/a	n/a	n/a	n/a	10	[1, 8, 4]	13	PAL1	1	R1162N
1130.959	3.55	1469604	PROB	3527	-999	-999	n/a	n/a	n/a	n/a	10	[1, 4, 8]	13	PAL1	1	R1162N
1134.509	3.201	1473154	PROB	3169	-999	-999	n/a	n/a	n/a	n/a	10	[3, 7, 8]	18	PAL1	1	R1162N
1137.71	4.317	1476355	PROB	4288	-999	-999	n/a	n/a	n/a	n/a	10	[3, 9, 8]	20	PAL1	1	R1162N
1142.027	3.434	1480672	PROB	3411	-999	-999	n/a	n/a	n/a	n/a	10	[8, 1, 6]	15	PAL1	1	R1162N
1145.461	3.489	1484106	PROB	3489	-999	-999	n/a	n/a	n/a	n/a	10	[8, 3, 4]	15	PAL1	1	R1162N
1148.95	0.011	1487595	STOP	n/a	-999	-999	n/a	n/a	n/a	n/a	10	[-999, -999, -999]	-999	PAL1	1	R1162N
1148.961	0.0	1487606	TEST_START	n/a	-999	-999	n/a	n/a	n/a	n/a	10	[0, 0, 0]	-999	PAL1	1	R1162N
1148.961	0.017	1487606	MATH_END	n/a	-999	-999	n/a	n/a	n/a	n/a	10	[0, 0, 0]	-999	PAL1	1	R1162N
1148.978	0.983	1487623	TEST_ORIENT	n/a	1	1	WORLD	BOOK	WORLD	CLOTH	10	[0, 0, 0]	-999	PAL1	1	R1162N
1149.961	0.001	1488606	TEST_PROBE	n/a	1	1	WORLD	BOOK	WORLD	CLOTH	10	[0, 0, 0]	-999	PAL1	1	R1162N
1149.962	3.145	1488607	REC_START	n/a	1	-999	n/a	BOOK	n/a	n/a	10	[0, 0, 0]	-999	PAL1	1	R1162N
1153.107	1.865	1491752	REC_EVENT	3145	1	1	WORLD	BOOK	WORLD	CLOTH	10	[0, 0, 0]	-999	PAL1	1	R1162N
1154.972	0.006	1493617	REC_END	n/a	1	-999	n/a	n/a	n/a	n/a	10	[0, 0, 0]	-999	PAL1	1	R1162N
1154.978	0.902	1493623	TEST_ORIENT	n/a	6	2	PEA	TEA	BAT	PEA	10	[0, 0, 0]	-999	PAL1	1	R1162N
1155.88	0.0	1494525	REC_START	n/a	6	-999	n/a	TEA	n/a	n/a	10	[0, 0, 0]	-999	PAL1	1	R1162N
1155.88	1.866	1494525	TEST_PROBE	n/a	6	2	PEA	TEA	BAT	PEA	10	[0, 0, 0]	-999	PAL1	1	R1162N
1157.746	3.15	1496391	REC_EVENT	1866	6	2	PEA	TEA	BAT	PEA	10	[0, 0, 0]	-999	PAL1	1	R1162N
1160.896	0.017	1499541	REC_END	n/a	6	-999	n/a	n/a	n/a	n/a	10	[0, 0, 0]	-999	PAL1	1	R1162N
1160.913	0.833	1499558	TEST_ORIENT	n/a	3	3	SQUARE	n/a	SQUARE	NAIL	10	[0, 0, 0]	-999	PAL1	1	R1162N
1161.746	0.001	1500391	TEST_PROBE	n/a	3	3	SQUARE	n/a	SQUARE	NAIL	10	[0, 0, 0]	-999	PAL1	1	R1162N
1161.747	4.783	1500392	REC_START	n/a	3	-999	n/a	n/a	n/a	n/a	10	[0, 0, 0]	-999	PAL1	1	R1162N
1166.53	0.233	1505175	REC_EVENT	4783	3	3	SQUARE	<>	SQUARE	NAIL	10	[0, 0, 0]	-999	PAL1	1	R1162N
1166.763	0.017	1505408	REC_END	n/a	3	-999	n/a	n/a	n/a	n/a	10	[0, 0, 0]	-999	PAL1	1	R1162N
1166.78	0.9	1505425	TEST_ORIENT	n/a	4	4	BEAK	n/a	BEAK	TIE	10	[0, 0, 0]	-999	PAL1	1	R1162N
1167.68	0.001	1506325	TEST_PROBE	n/a	4	4	BEAK	n/a	BEAK	TIE	10	[0, 0, 0]	-999	PAL1	1	R1162N
1167.681	4.876	1506326	REC_START	n/a	4	-999	n/a	n/a	n/a	n/a	10	[0, 0, 0]	-999	PAL1	1	R1162N
1172.557	0.132	1511202	REC_EVENT	4876	4	4	BEAK	<>	BEAK	TIE	10	[0, 0, 0]	-999	PAL1	1	R1162N
1172.689	0.009	1511334	REC_END	n/a	4	-999	n/a	n/a	n/a	n/a	10	[0, 0, 0]	-999	PAL1	1	R1162N
1172.698	1.016	1511343	TEST_ORIENT	n/a	5	5	TRUCK	ROPE	PALM	TRUCK	10	[0, 0, 0]	-999	PAL1	1	R1162N
1173.714	0.001	1512359	TEST_PROBE	n/a	5	5	TRUCK	ROPE	PALM	TRUCK	10	[0, 0, 0]	-999	PAL1	1	R1162N
1173.715	4.211	1512360	REC_START	n/a	5	-999	n/a	ROPE	n/a	n/a	10	[0, 0, 0]	-999	PAL1	1	R1162N
1177.926	0.8	1516571	REC_EVENT	4211	5	5	TRUCK	ROPE	PALM	TRUCK	10	[0, 0, 0]	-999	PAL1	1	R1162N
1178.726	0.006	1517371	REC_END	n/a	5	-999	n/a	n/a	n/a	n/a	10	[0, 0, 0]	-999	PAL1	1	R1162N
1178.732	0.967	1517377	TEST_ORIENT	n/a	2	6	INK	n/a	FILM	INK	10	[0, 0, 0]	-999	PAL1	1	R1162N
1179.699	0.0	1518344	TEST_PROBE	n/a	2	6	INK	n/a	FILM	INK	10	[0, 0, 0]	-999	PAL1	1	R1162N
1179.699	4.852	1518344	REC_START	n/a	2	-999	n/a	n/a	n/a	n/a	10	[0, 0, 0]	-999	PAL1	1	R1162N
1184.551	0.165	1523196	REC_EVENT	4852	2	6	INK	<>	FILM	INK	10	[0, 0, 0]	-999	PAL1	1	R1162N
1184.716	1.137	1523361	REC_END	n/a	2	-999	n/a	n/a	n/a	n/a	10	[0, 0, 0]	-999	PAL1	1	R1162N
1185.853	10.448	1524498	ENCODING_START	n/a	0	-999	n/a	n/a	n/a	n/a	11	[0, 0, 0]	-999	PAL1	1	R1162N
1196.301	0.9	1534945	STUDY_ORIENT	n/a	1	3	CROW	n/a	TOE	CROW	11	[0, 0, 0]	-999	PAL1	1	R1162N
1197.201	5.034	1535845	STUDY_PAIR	n/a	1	3	CROW	n/a	TOE	CROW	11	[0, 0, 0]	-999	PAL1	1	R1162N
1202.235	0.85	1540879	STUDY_ORIENT	n/a	2	4	SUIT	n/a	SUIT	COUCH	11	[0, 0, 0]	-999	PAL1	1	R1162N
1203.085	5.034	1541729	STUDY_PAIR	n/a	2	4	SUIT	n/a	SUIT	COUCH	11	[0, 0, 0]	-999	PAL1	1	R1162N
1208.119	0.884	1546763	STUDY_ORIENT	n/a	3	5	BEE	n/a	JAR	BEE	11	[0, 0, 0]	-999	PAL1	1	R1162N
1209.003	5.034	1547647	STUDY_PAIR	n/a	3	5	BEE	n/a	JAR	BEE	11	[0, 0, 0]	-999	PAL1	1	R1162N
1214.037	0.933	1552681	STUDY_ORIENT	n/a	4	6	TOY	n/a	STEAM	TOY	11	[0, 0, 0]	-999	PAL1	1	R1162N
1214.97	5.034	1553614	STUDY_PAIR	n/a	4	6	TOY	n/a	STEAM	TOY	11	[0, 0, 0]	-999	PAL1	1	R1162N
1220.004	0.784	1558648	STUDY_ORIENT	n/a	5	1	HOOF	MOUTH	HOOF	GOLD	11	[0, 0, 0]	-999	PAL1	1	R1162N
1220.788	5.034	1559432	STUDY_PAIR	n/a	5	1	HOOF	MOUTH	HOOF	GOLD	11	[0, 0, 0]	-999	PAL1	1	R1162N
1225.822	0.816	1564466	STUDY_ORIENT	n/a	6	2	ELF	VEST	VEST	ELF	11	[0, 0, 0]	-999	PAL1	1	R1162N
1226.638	4.018	1565282	STUDY_PAIR	n/a	6	2	ELF	VEST	VEST	ELF	11	[0, 0, 0]	-999	PAL1	1	R1162N
1230.656	0.999	1569300	START	n/a	-999	-999	n/a	n/a	n/a	n/a	11	[-999, -999, -999]	-999	PAL1	1	R1162N
1231.655	0.017	1570299	MATH_START	n/a	-999	-999	n/a	n/a	n/a	n/a	11	[0, 0, 0]	-999	PAL1	1	R1162N
1231.672	3.734	1570316	PROB	3714	-999	-999	n/a	n/a	n/a	n/a	11	[9, 5, 6]	20	PAL1	1	R1162N
1235.406	2.584	1574050	PROB	2564	-999	-999	n/a	n/a	n/a	n/a	11	[4, 3, 7]	14	PAL1	1	R1162N
1237.99	3.384	1576634	PROB	3356	-999	-999	n/a	n/a	n/a	n/a	11	[4, 3, 8]	15	PAL1	1	R1162N
1241.374	3.833	1580018	PROB	3812	-999	-999	n/a	n/a	n/a	n/a	11	[6, 5, 3]	14	PAL1	1	R1162N
1245.207	2.384	1583851	PROB	2363	-999	-999	n/a	n/a	n/a	n/a	11	[4, 1, 9]	14	PAL1	1	R1162N
1247.591	5.427	1586235	PROB	5427	-999	-999	n/a	n/a	n/a	n/a	11	[9, 8, 6]	23	PAL1	1	R1162N
1253.018	0.007	1591661	STOP	n/a	-999	-999	n/a	n/a	n/a	n/a	11	[-999, -999, -999]	-999	PAL1	1	R1162N
1253.025	0.0	1591668	MATH_END	n/a	-999	-999	n/a	n/a	n/a	n/a	11	[0, 0, 0]	-999	PAL1	1	R1162N
1253.025	0.017	1591668	TEST_START	n/a	-999	-999	n/a	n/a	n/a	n/a	11	[0, 0, 0]	-999	PAL1	1	R1162N
1253.042	0.801	1591685	TEST_ORIENT	n/a	5	1	HOOF	MOUTH	HOOF	GOLD	11	[0, 0, 0]	-999	PAL1	1	R1162N
1253.843	0.0	1592486	TEST_PROBE	n/a	5	1	HOOF	MOUTH	HOOF	GOLD	11	[0, 0, 0]	-999	PAL1	1	R1162N
1253.843	1.729	1592486	REC_START	n/a	5	-999	n/a	MOUTH	n/a	n/a	11	[0, 0, 0]	-999	PAL1	1	R1162N
1255.572	3.288	1594215	REC_EVENT	1729	5	1	HOOF	MOUTH	HOOF	GOLD	11	[0, 0, 0]	-999	PAL1	1	R1162N
1258.86	0.017	1597503	REC_END	n/a	5	-999	n/a	n/a	n/a	n/a	11	[0, 0, 0]	-999	PAL1	1	R1162N
1258.877	0.866	1597520	TEST_ORIENT	n/a	6	2	ELF	VEST	VEST	ELF	11	[0, 0, 0]	-999	PAL1	1	R1162N
1259.743	0.0	1598386	REC_START	n/a	6	-999	n/a	VEST	n/a	n/a	11	[0, 0, 0]	-999	PAL1	1	R1162N
1259.743	1.168	1598386	TEST_PROBE	n/a	6	2	ELF	VEST	VEST	ELF	11	[0, 0, 0]	-999	PAL1	1	R1162N
1260.911	3.849	1599554	REC_EVENT	1168	6	2	ELF	VEST	VEST	ELF	11	[0, 0, 0]	-999	PAL1	1	R1162N
1264.76	0.017	1603403	REC_END	n/a	6	-999	n/a	n/a	n/a	n/a	11	[0, 0, 0]	-999	PAL1	1	R1162N
1264.777	0.833	1603420	TEST_ORIENT	n/a	1	3	CROW	n/a	TOE	CROW	11	[0, 0, 0]	-999	PAL1	1	R1162N
1265.61	0.0	1604253	TEST_PROBE	n/a	1	3	CROW	n/a	TOE	CROW	11	[0, 0, 0]	-999	PAL1	1	R1162N
1265.61	4.992	1604253	REC_START	n/a	1	-999	n/a	n/a	n/a	n/a	11	[0, 0, 0]	-999	PAL1	1	R1162N
1270.602	0.025	1609245	REC_EVENT	4992	1	3	CROW	<>	TOE	CROW	11	[0, 0, 0]	-999	PAL1	1	R1162N
1270.627	0.017	1609270	REC_END	n/a	1	-999	n/a	n/a	n/a	n/a	11	[0, 0, 0]	-999	PAL1	1	R1162N
1270.644	1.017	1609287	TEST_ORIENT	n/a	2	4	SUIT	n/a	SUIT	COUCH	11	[0, 0, 0]	-999	PAL1	1	R1162N
1271.661	0.001	1610304	TEST_PROBE	n/a	2	4	SUIT	n/a	SUIT	COUCH	11	[0, 0, 0]	-999	PAL1	1	R1162N
1271.662	4.945	1610305	REC_START	n/a	2	-999	n/a	n/a	n/a	n/a	11	[0, 0, 0]	-999	PAL1	1	R1162N
1276.607	0.071	1615250	REC_EVENT	4945	2	4	SUIT	<>	SUIT	COUCH	11	[0, 0, 0]	-999	PAL1	1	R1162N
1276.678	0.017	1615321	REC_END	n/a	2	-999	n/a	n/a	n/a	n/a	11	[0, 0, 0]	-999	PAL1	1	R1162N
1276.695	0.85	1615338	TEST_ORIENT	n/a	3	5	BEE	n/a	JAR	BEE	11	[0, 0, 0]	-999	PAL1	1	R1162N
1277.545	0.0	1616188	TEST_PROBE	n/a	3	5	BEE	n/a	JAR	BEE	11	[0, 0, 0]	-999	PAL1	1	R1162N
1277.545	4.922	1616188	REC_START	n/a	3	-999	n/a	n/a	n/a	n/a	11	[0, 0, 0]	-999	PAL1	1	R1162N
1282.467	0.096	1621110	REC_EVENT	4922	3	5	BEE	<>	JAR	BEE	11	[0, 0, 0]	-999	PAL1	1	R1162N
1282.563	0.016	1621206	REC_END	n/a	3	-999	n/a	n/a	n/a	n/a	11	[0, 0, 0]	-999	PAL1	1	R1162N
1282.579	0.867	1621222	TEST_ORIENT	n/a	4	6	TOY	n/a	STEAM	TOY	11	[0, 0, 0]	-999	PAL1	1	R1162N
1283.446	0.0	1622089	TEST_PROBE	n/a	4	6	TOY	n/a	STEAM	TOY	11	[0, 0, 0]	-999	PAL1	1	R1162N
1283.446	4.806	1622089	REC_START	n/a	4	-999	n/a	n/a	n/a	n/a	11	[0, 0, 0]	-999	PAL1	1	R1162N
1288.252	0.211	1626895	REC_EVENT	4806	4	6	TOY	<>	STEAM	TOY	11	[0, 0, 0]	-999	PAL1	1	R1162N
1288.463	0.834	1627106	REC_END	n/a	4	-999	n/a	n/a	n/a	n/a	11	[0, 0, 0]	-999	PAL1	1	R1162N
1289.297	10.451	1627940	ENCODING_START	n/a	0	-999	n/a	n/a	n/a	n/a	12	[0, 0, 0]	-999	PAL1	1	R1162N
1299.748	0.9	1638391	STUDY_ORIENT	n/a	1	3	LEAF	n/a	LEAF	HOUSE	12	[0, 0, 0]	-999	PAL1	1	R1162N
1300.648	5.034	1639291	STUDY_PAIR	n/a	1	3	LEAF	n/a	LEAF	HOUSE	12	[0, 0, 0]	-999	PAL1	1	R1162N
1305.682	1.0	1644325	STUDY_ORIENT	n/a	2	2	SAIL	HOLE	HOLE	SAIL	12	[0, 0, 0]	-999	PAL1	1	R1162N
1306.682	5.034	1645325	STUDY_PAIR	n/a	2	2	SAIL	HOLE	HOLE	SAIL	12	[0, 0, 0]	-999	PAL1	1	R1162N
1311.716	0.967	1650358	STUDY_ORIENT	n/a	3	5	LAND	MULE	LEG	LAND	12	[0, 0, 0]	-999	PAL1	1	R1162N
1312.683	5.034	1651325	STUDY_PAIR	n/a	3	5	LAND	MULE	LEG	LAND	12	[0, 0, 0]	-999	PAL1	1	R1162N
1317.717	0.9	1656359	STUDY_ORIENT	n/a	4	6	MULE	n/a	MULE	SWAMP	12	[0, 0, 0]	-999	PAL1	1	R1162N
1318.617	5.034	1657259	STUDY_PAIR	n/a	4	6	MULE	n/a	MULE	SWAMP	12	[0, 0, 0]	-999	PAL1	1	R1162N
1323.651	0.8	1662293	STUDY_ORIENT	n/a	5	1	STAR	PIG	PIG	STAR	12	[0, 0, 0]	-999	PAL1	1	R1162N
1324.451	5.018	1663093	STUDY_PAIR	n/a	5	1	STAR	PIG	PIG	STAR	12	[0, 0, 0]	-999	PAL1	1	R1162N
1329.469	0.899	1668111	STUDY_ORIENT	n/a	6	4	CHIEF	GUARD	CHIEF	GUARD	12	[0, 0, 0]	-999	PAL1	1	R1162N
1330.368	4.001	1669010	STUDY_PAIR	n/a	6	4	CHIEF	GUARD	CHIEF	GUARD	12	[0, 0, 0]	-999	PAL1	1	R1162N
1334.369	1.0	1673011	START	n/a	-999	-999	n/a	n/a	n/a	n/a	12	[-999, -999, -999]	-999	PAL1	1	R1162N
1335.369	0.017	1674011	MATH_START	n/a	-999	-999	n/a	n/a	n/a	n/a	12	[0, 0, 0]	-999	PAL1	1	R1162N
1335.386	3.734	1674028	PROB	3701	-999	-999	n/a	n/a	n/a	n/a	12	[7, 2, 6]	16	PAL1	1	R1162N
1339.12	3.534	1677762	PROB	3503	-999	-999	n/a	n/a	n/a	n/a	12	[8, 8, 4]	20	PAL1	1	R1162N
1342.654	4.95	1681296	PROB	4928	-999	-999	n/a	n/a	n/a	n/a	12	[7, 5, 4]	16	PAL1	1	R1162N
1347.604	3.252	1686246	PROB	3226	-999	-999	n/a	n/a	n/a	n/a	12	[2, 7, 9]	18	PAL1	1	R1162N
1350.856	2.316	1689498	PROB	2294	-999	-999	n/a	n/a	n/a	n/a	12	[1, 4, 3]	8	PAL1	1	R1162N
1353.172	4.882	1691814	PROB	4882	-999	-999	n/a	n/a	n/a	n/a	12	[3, 4, 8]	15	PAL1	1	R1162N
1358.054	0.018	1696696	STOP	n/a	-999	-999	n/a	n/a	n/a	n/a	12	[-999, -999, -999]	-999	PAL1	1	R1162N
1358.072	0.0	1696714	MATH_END	n/a	-999	-999	n/a	n/a	n/a	n/a	12	[0, 0, 0]	-999	PAL1	1	R1162N
1358.072	0.017	1696714	TEST_START	n/a	-999	-999	n/a	n/a	n/a	n/a	12	[0, 0, 0]	-999	PAL1	1	R1162N
1358.089	0.917	1696731	TEST_ORIENT	n/a	5	1	STAR	PIG	PIG	STAR	12	[0, 0, 0]	-999	PAL1	1	R1162N
1359.006	0.001	1697648	TEST_PROBE	n/a	5	1	STAR	PIG	PIG	STAR	12	[0, 0, 0]	-999	PAL1	1	R1162N
1359.007	0.992	1697649	REC_START	n/a	5	-999	n/a	PIG	n/a	n/a	12	[0, 0, 0]	-999	PAL1	1	R1162N
1359.999	4.032	1698641	REC_EVENT	992	5	1	STAR	PIG	PIG	STAR	12	[0, 0, 0]	-999	PAL1	1	R1162N
1364.031	0.009	1702673	REC_END	n/a	5	-999	n/a	n/a	n/a	n/a	12	[0, 0, 0]	-999	PAL1	1	R1162N
1364.04	0.95	1702682	TEST_ORIENT	n/a	2	2	SAIL	HOLE	HOLE	SAIL	12	[0, 0, 0]	-999	PAL1	1	R1162N
1364.99	0.0	1703632	TEST_PROBE	n/a	2	2	SAIL	HOLE	HOLE	SAIL	12	[0, 0, 0]	-999	PAL1	1	R1162N
1364.99	1.776	1703632	REC_START	n/a	2	-999	n/a	HOLE	n/a	n/a	12	[0, 0, 0]	-999	PAL1	1	R1162N
1366.766	3.241	1705408	REC_EVENT	1776	2	2	SAIL	HOLE	HOLE	SAIL	12	[0, 0, 0]	-999	PAL1	1	R1162N
1370.007	0.017	1708648	REC_END	n/a	2	-999	n/a	n/a	n/a	n/a	12	[0, 0, 0]	-999	PAL1	1	R1162N
1370.024	1.034	1708665	TEST_ORIENT	n/a	1	3	LEAF	n/a	LEAF	HOUSE	12	[0, 0, 0]	-999	PAL1	1	R1162N
1371.058	0.0	1709699	TEST_PROBE	n/a	1	3	LEAF	n/a	LEAF	HOUSE	12	[0, 0, 0]	-999	PAL1	1	R1162N
1371.058	4.829	1709699	REC_START	n/a	1	-999	n/a	n/a	n/a	n/a	12	[0, 0, 0]	-999	PAL1	1	R1162N
1375.887	0.188	1714528	REC_EVENT	4829	1	3	LEAF	<>	LEAF	HOUSE	12	[0, 0, 0]	-999	PAL1	1	R1162N
1376.075	0.016	1714716	REC_END	n/a	1	-999	n/a	n/a	n/a	n/a	12	[0, 0, 0]	-999	PAL1	1	R1162N
1376.091	0.867	1714732	TEST_ORIENT	n/a	6	4	CHIEF	GUARD	CHIEF	GUARD	12	[0, 0, 0]	-999	PAL1	1	R1162N
1376.958	0.001	1715599	TEST_PROBE	n/a	6	4	CHIEF	GUARD	CHIEF	GUARD	12	[0, 0, 0]	-999	PAL1	1	R1162N
1376.959	1.364	1715600	REC_START	n/a	6	-999	n/a	GUARD	n/a	n/a	12	[0, 0, 0]	-999	PAL1	1	R1162N
1378.323	3.652	1716964	REC_EVENT	1364	6	4	CHIEF	GUARD	CHIEF	GUARD	12	[0, 0, 0]	-999	PAL1	1	R1162N
1381.975	0.017	1720616	REC_END	n/a	6	-999	n/a	n/a	n/a	n/a	12	[0, 0, 0]	-999	PAL1	1	R1162N
1381.992	0.95	1720633	TEST_ORIENT	n/a	3	5	LAND	MULE	LEG	LAND	12	[0, 0, 0]	-999	PAL1	1	R1162N
1382.942	0.001	1721583	TEST_PROBE	n/a	3	5	LAND	MULE	LEG	LAND	12	[0, 0, 0]	-999	PAL1	1	R1162N
1382.943	3.619	1721584	REC_START	n/a	3	-999	n/a	MULE	n/a	n/a	12	[0, 0, 0]	-999	PAL1	1	R1162N
1386.562	1.389	1725203	REC_EVENT	3619	3	5	LAND	MULE	LEG	LAND	12	[0, 0, 0]	-999	PAL1	1	R1162N
1387.951	0.009	1726592	REC_END	n/a	3	-999	n/a	n/a	n/a	n/a	12	[0, 0, 0]	-999	PAL1	1	R1162N
1387.96	0.983	1726601	TEST_ORIENT	n/a	4	6	MULE	n/a	MULE	SWAMP	12	[0, 0, 0]	-999	PAL1	1	R1162N
1388.943	0.001	1727584	TEST_PROBE	n/a	4	6	MULE	n/a	MULE	SWAMP	12	[0, 0, 0]	-999	PAL1	1	R1162N
1388.944	4.852	1727585	REC_START	n/a	4	-999	n/a	n/a	n/a	n/a	12	[0, 0, 0]	-999	PAL1	1	R1162N
1393.796	0.172	1732437	REC_EVENT	4852	4	6	MULE	<>	MULE	SWAMP	12	[0, 0, 0]	-999	PAL1	1	R1162N
1393.968	0.925	1732609	REC_END	n/a	4	-999	n/a	n/a	n/a	n/a	12	[0, 0, 0]	-999	PAL1	1	R1162N
1394.893	10.452	1733534	ENCODING_START	n/a	0	-999	n/a	n/a	n/a	n/a	13	[0, 0, 0]	-999	PAL1	1	R1162N
1405.345	0.917	1743986	STUDY_ORIENT	n/a	1	3	BROOM	n/a	BROOM	SEAT	13	[0, 0, 0]	-999	PAL1	1	R1162N
1406.262	5.034	1744903	STUDY_PAIR	n/a	1	3	BROOM	n/a	BROOM	SEAT	13	[0, 0, 0]	-999	PAL1	1	R1162N
1411.296	0.917	1749937	STUDY_ORIENT	n/a	2	6	STEAK	BREAD	BREAD	STEAK	13	[0, 0, 0]	-999	PAL1	1	R1162N
1412.213	5.034	1750854	STUDY_PAIR	n/a	2	6	STEAK	BREAD	BREAD	STEAK	13	[0, 0, 0]	-999	PAL1	1	R1162N
1417.247	1.017	1755888	STUDY_ORIENT	n/a	3	1	KEY	n/a	KEY	CRANE	13	[0, 0, 0]	-999	PAL1	1	R1162N
1418.264	5.034	1756905	STUDY_PAIR	n/a	3	1	KEY	n/a	KEY	CRANE	13	[0, 0, 0]	-999	PAL1	1	R1162N
1423.298	0.883	1761939	STUDY_ORIENT	n/a	4	2	SEAL	n/a	SEAL	CHEEK	13	[0, 0, 0]	-999	PAL1	1	R1162N
1424.181	5.034	1762822	STUDY_PAIR	n/a	4	2	SEAL	n/a	SEAL	CHEEK	13	[0, 0, 0]	-999	PAL1	1	R1162N
1429.215	1.017	1767855	STUDY_ORIENT	n/a	5	5	MAIL	FOG	NOSE	MAIL	13	[0, 0, 0]	-999	PAL1	1	R1162N
1430.232	5.034	1768872	STUDY_PAIR	n/a	5	5	MAIL	FOG	NOSE	MAIL	13	[0, 0, 0]	-999	PAL1	1	R1162N
1435.266	0.817	1773906	STUDY_ORIENT	n/a	6	4	FOG	n/a	FOG	BUSH	13	[0, 0, 0]	-999	PAL1	1	R1162N
1436.083	4.018	1774723	STUDY_PAIR	n/a	6	4	FOG	n/a	FOG	BUSH	13	[0, 0, 0]	-999	PAL1	1	R1162N
1440.101	0.999	1778741	START	n/a	-999	-999	n/a	n/a	n/a	n/a	13	[-999, -999, -999]	-999	PAL1	1	R1162N
1441.1	0.017	1779740	MATH_START	n/a	-999	-999	n/a	n/a	n/a	n/a	13	[0, 0, 0]	-999	PAL1	1	R1162N
1441.117	3.667	1779757	PROB	3638	-999	-999	n/a	n/a	n/a	n/a	13	[3, 8, 6]	17	PAL1	1	R1162N
1444.784	2.068	1783424	PROB	2035	-999	-999	n/a	n/a	n/a	n/a	13	[4, 1, 6]	11	PAL1	1	R1162N
1446.852	2.266	1785492	PROB	2239	-999	-999	n/a	n/a	n/a	n/a	13	[1, 9, 3]	13	PAL1	1	R1162N
1449.118	3.3	1787758	PROB	3268	-999	-999	n/a	n/a	n/a	n/a	13	[4, 8, 2]	16	PAL1	1	R1162N
1452.418	4.634	1791058	PROB	4608	-999	-999	n/a	n/a	n/a	n/a	13	[3, 7, 7]	17	PAL1	1	R1162N
1457.052	4.086	1795692	PROB	4086	-999	-999	n/a	n/a	n/a	n/a	13	[4, 7, 7]	18	PAL1	1	R1162N
1461.138	0.015	1799778	STOP	n/a	-999	-999	n/a	n/a	n/a	n/a	13	[-999, -999, -999]	-999	PAL1	1	R1162N
1461.153	0.0	1799793	MATH_END	n/a	-999	-999	n/a	n/a	n/a	n/a	13	[0, 0, 0]	-999	PAL1	1	R1162N
1461.153	0.017	1799793	TEST_START	n/a	-999	-999	n/a	n/a	n/a	n/a	13	[0, 0, 0]	-999	PAL1	1	R1162N
1461.17	0.899	1799810	TEST_ORIENT	n/a	3	1	KEY	n/a	KEY	CRANE	13	[0, 0, 0]	-999	PAL1	1	R1162N
1462.069	0.001	1800709	TEST_PROBE	n/a	3	1	KEY	n/a	KEY	CRANE	13	[0, 0, 0]	-999	PAL1	1	R1162N
1462.07	4.899	1800710	REC_START	n/a	3	-999	n/a	n/a	n/a	n/a	13	[0, 0, 0]	-999	PAL1	1	R1162N
1466.969	0.109	1805609	REC_EVENT	4899	3	1	KEY	<>	KEY	CRANE	13	[0, 0, 0]	-999	PAL1	1	R1162N
1467.078	0.009	1805718	REC_END	n/a	3	-999	n/a	n/a	n/a	n/a	13	[0, 0, 0]	-999	PAL1	1	R1162N
1467.087	0.9	1805727	TEST_ORIENT	n/a	4	2	SEAL	n/a	SEAL	CHEEK	13	[0, 0, 0]	-999	PAL1	1	R1162N
1467.987	0.001	1806627	TEST_PROBE	n/a	4	2	SEAL	n/a	SEAL	CHEEK	13	[0, 0, 0]	-999	PAL1	1	R1162N
1467.988	4.922	1806628	REC_START	n/a	4	-999	n/a	n/a	n/a	n/a	13	[0, 0, 0]	-999	PAL1	1	R1162N
1472.91	0.094	1811550	REC_EVENT	4922	4	2	SEAL	<>	SEAL	CHEEK	13	[0, 0, 0]	-999	PAL1	1	R1162N
1473.004	0.017	1811644	REC_END	n/a	4	-999	n/a	n/a	n/a	n/a	13	[0, 0, 0]	-999	PAL1	1	R1162N
1473.021	0.984	1811661	TEST_ORIENT	n/a	1	3	BROOM	n/a	BROOM	SEAT	13	[0, 0, 0]	-999	PAL1	1	R1162N
1474.005	0.0	1812645	TEST_PROBE	n/a	1	3	BROOM	n/a	BROOM	SEAT	13	[0, 0, 0]	-999	PAL1	1	R1162N
1474.005	4.899	1812645	REC_START	n/a	1	-999	n/a	n/a	n/a	n/a	13	[0, 0, 0]	-999	PAL1	1	R1162N
1478.904	0.118	1817544	REC_EVENT	4899	1	3	BROOM	<>	BROOM	SEAT	13	[0, 0, 0]	-999	PAL1	1	R1162N
1479.022	0.017	1817662	REC_END	n/a	1	-999	n/a	n/a	n/a	n/a	13	[0, 0, 0]	-999	PAL1	1	R1162N
1479.039	1.016	1817679	TEST_ORIENT	n/a	6	4	FOG	n/a	FOG	BUSH	13	[0, 0, 0]	-999	PAL1	1	R1162N
1480.055	0.0	1818695	TEST_PROBE	n/a	6	4	FOG	n/a	FOG	BUSH	13	[0, 0, 0]	-999	PAL1	1	R1162N
1480.055	4.922	1818695	REC_START	n/a	6	-999	n/a	n/a	n/a	n/a	13	[0, 0, 0]	-999	PAL1	1	R1162N
1484.977	0.095	1823617	REC_EVENT	4922	6	4	FOG	<>	FOG	BUSH	13	[0, 0, 0]	-999	PAL1	1	R1162N
1485.072	0.017	1823712	REC_END	n/a	6	-999	n/a	n/a	n/a	n/a	13	[0, 0, 0]	-999	PAL1	1	R1162N
1485.089	0.967	1823729	TEST_ORIENT	n/a	5	5	MAIL	FOG	NOSE	MAIL	13	[0, 0, 0]	-999	PAL1	1	R1162N
1486.056	0.0	1824696	TEST_PROBE	n/a	5	5	MAIL	FOG	NOSE	MAIL	13	[0, 0, 0]	-999	PAL1	1	R1162N
1486.056	1.508	1824696	REC_START	n/a	5	-999	n/a	FOG	n/a	n/a	13	[0, 0, 0]	-999	PAL1	1	R1162N
1487.564	3.509	1826204	REC_EVENT	1508	5	5	MAIL	FOG	NOSE	MAIL	13	[0, 0, 0]	-999	PAL1	1	R1162N
1491.073	0.017	1829712	REC_END	n/a	5	-999	n/a	n/a	n/a	n/a	13	[0, 0, 0]	-999	PAL1	1	R1162N
1491.09	0.9	1829729	TEST_ORIENT	n/a	2	6	STEAK	BREAD	BREAD	STEAK	13	[0, 0, 0]	-999	PAL1	1	R1162N
1491.99	0.001	1830629	TEST_PROBE	n/a	2	6	STEAK	BREAD	BREAD	STEAK	13	[0, 0, 0]	-999	PAL1	1	R1162N
1491.991	2.065	1830630	REC_START	n/a	2	-999	n/a	BREAD	n/a	n/a	13	[0, 0, 0]	-999	PAL1	1	R1162N
1494.056	2.951	1832695	REC_EVENT	2065	2	6	STEAK	BREAD	BREAD	STEAK	13	[0, 0, 0]	-999	PAL1	1	R1162N
1497.007	0.906	1835646	REC_END	n/a	2	-999	n/a	n/a	n/a	n/a	13	[0, 0, 0]	-999	PAL1	1	R1162N
1497.913	10.446	1836552	ENCODING_START	n/a	0	-999	n/a	n/a	n/a	n/a	14	[0, 0, 0]	-999	PAL1	1	R1162N
1508.359	0.984	1846998	STUDY_ORIENT	n/a	1	1	TREE	n/a	SLEEVE	TREE	14	[0, 0, 0]	-999	PAL1	1	R1162N
1509.343	5.034	1847982	STUDY_PAIR	n/a	1	1	TREE	n/a	SLEEVE	TREE	14	[0, 0, 0]	-999	PAL1	1	R1162N
1514.377	0.9	1853016	STUDY_ORIENT	n/a	2	6	ROAD	TREE	ROAD	STEM	14	[0, 0, 0]	-999	PAL1	1	R1162N
1515.277	5.034	1853916	STUDY_PAIR	n/a	2	6	ROAD	TREE	ROAD	STEM	14	[0, 0, 0]	-999	PAL1	1	R1162N
1520.311	0.933	1858950	STUDY_ORIENT	n/a	3	3	DOCK	SAIL	PLATE	DOCK	14	[0, 0, 0]	-999	PAL1	1	R1162N
1521.244	5.034	1859883	STUDY_PAIR	n/a	3	3	DOCK	SAIL	PLATE	DOCK	14	[0, 0, 0]	-999	PAL1	1	R1162N
1526.278	0.934	1864917	STUDY_ORIENT	n/a	4	2	COIN	FRUIT	COIN	FRUIT	14	[0, 0, 0]	-999	PAL1	1	R1162N
1527.212	5.034	1865851	STUDY_PAIR	n/a	4	2	COIN	FRUIT	COIN	FRUIT	14	[0, 0, 0]	-999	PAL1	1	R1162N
1532.246	0.9	1870885	STUDY_ORIENT	n/a	5	5	CLOWN	CLASS	SEED	CLOWN	14	[0, 0, 0]	-999	PAL1	1	R1162N
1533.146	5.034	1871785	STUDY_PAIR	n/a	5	5	CLOWN	CLASS	SEED	CLOWN	14	[0, 0, 0]	-999	PAL1	1	R1162N
1538.18	0.833	1876819	STUDY_ORIENT	n/a	6	4	SIGN	STAR	STAIR	SIGN	14	[0, 0, 0]	-999	PAL1	1	R1162N
1539.013	4.018	1877652	STUDY_PAIR	n/a	6	4	SIGN	STAR	STAIR	SIGN	14	[0, 0, 0]	-999	PAL1	1	R1162N
1543.031	0.999	1881670	START	n/a	-999	-999	n/a	n/a	n/a	n/a	14	[-999, -999, -999]	-999	PAL1	1	R1162N
1544.03	0.017	1882669	MATH_START	n/a	-999	-999	n/a	n/a	n/a	n/a	14	[0, 0, 0]	-999	PAL1	1	R1162N
1544.047	3.717	1882686	PROB	3696	-999	-999	n/a	n/a	n/a	n/a	14	[8, 6, 5]	19	PAL1	1	R1162N
1547.764	3.567	1886402	PROB	3539	-999	-999	n/a	n/a	n/a	n/a	14	[9, 4, 7]	20	PAL1	1	R1162N
1551.331	3.468	1889969	PROB	3436	-999	-999	n/a	n/a	n/a	n/a	14	[8, 9, 5]	22	PAL1	1	R1162N
1554.799	4.117	1893437	PROB	4096	-999	-999	n/a	n/a	n/a	n/a	14	[8, 7, 4]	20	PAL1	1	R1162N
1558.916	4.37	1897554	PROB	4370	-999	-999	n/a	n/a	n/a	n/a	14	[8, 7, 5]	21	PAL1	1	R1162N
1563.286	0.014	1901924	STOP	n/a	-999	-999	n/a	n/a	n/a	n/a	14	[-999, -999, -999]	-999	PAL1	1	R1162N
1563.3	0.0	1901938	MATH_END	n/a	-999	-999	n/a	n/a	n/a	n/a	14	[0, 0, 0]	-999	PAL1	1	R1162N
1563.3	0.016	1901938	TEST_START	n/a	-999	-999	n/a	n/a	n/a	n/a	14	[0, 0, 0]	-999	PAL1	1	R1162N
1563.316	0.867	1901954	TEST_ORIENT	n/a	1	1	TREE	n/a	SLEEVE	TREE	14	[0, 0, 0]	-999	PAL1	1	R1162N
1564.183	0.001	1902821	TEST_PROBE	n/a	1	1	TREE	n/a	SLEEVE	TREE	14	[0, 0, 0]	-999	PAL1	1	R1162N
1564.184	4.876	1902822	REC_START	n/a	1	-999	n/a	n/a	n/a	n/a	14	[0, 0, 0]	-999	PAL1	1	R1162N
1569.06	0.14	1907698	REC_EVENT	4876	1	1	TREE	<>	SLEEVE	TREE	14	[0, 0, 0]	-999	PAL1	1	R1162N
1569.2	0.017	1907838	REC_END	n/a	1	-999	n/a	n/a	n/a	n/a	14	[0, 0, 0]	-999	PAL1	1	R1162N
1569.217	0.884	1907855	TEST_ORIENT	n/a	4	2	COIN	FRUIT	COIN	FRUIT	14	[0, 0, 0]	-999	PAL1	1	R1162N
1570.101	0.0	1908739	TEST_PROBE	n/a	4	2	COIN	FRUIT	COIN	FRUIT	14	[0, 0, 0]	-999	PAL1	1	R1162N
1570.101	2.807	1908739	REC_START	n/a	4	-999	n/a	FRUIT	n/a	n/a	14	[0, 0, 0]	-999	PAL1	1	R1162N
1572.908	2.21	1911546	REC_EVENT	2807	4	2	COIN	FRUIT	COIN	FRUIT	14	[0, 0, 0]	-999	PAL1	1	R1162N
1575.118	0.017	1913756	REC_END	n/a	4	-999	n/a	n/a	n/a	n/a	14	[0, 0, 0]	-999	PAL1	1	R1162N
1575.135	0.833	1913773	TEST_ORIENT	n/a	3	3	DOCK	SAIL	PLATE	DOCK	14	[0, 0, 0]	-999	PAL1	1	R1162N
1575.968	0.001	1914606	TEST_PROBE	n/a	3	3	DOCK	SAIL	PLATE	DOCK	14	[0, 0, 0]	-999	PAL1	1	R1162N
1575.969	1.427	1914607	REC_START	n/a	3	-999	n/a	SAIL	n/a	n/a	14	[0, 0, 0]	-999	PAL1	1	R1162N
1577.396	3.597	1916034	REC_EVENT	1427	3	3	DOCK	SAIL	PLATE	DOCK	14	[0, 0, 0]	-999	PAL1	1	R1162N
1580.993	0.009	1919631	REC_END	n/a	3	-999	n/a	n/a	n/a	n/a	14	[0, 0, 0]	-999	PAL1	1	R1162N
1581.002	0.851	1919640	TEST_ORIENT	n/a	6	4	SIGN	STAR	STAIR	SIGN	14	[0, 0, 0]	-999	PAL1	1	R1162N
1581.853	0.001	1920491	TEST_PROBE	n/a	6	4	SIGN	STAR	STAIR	SIGN	14	[0, 0, 0]	-999	PAL1	1	R1162N
1581.854	1.188	1920492	REC_START	n/a	6	-999	n/a	STAR	n/a	n/a	14	[0, 0, 0]	-999	PAL1	1	R1162N
1583.042	3.828	1921680	REC_EVENT	1188	6	4	SIGN	STAR	STAIR	SIGN	14	[0, 0, 0]	-999	PAL1	1	R1162N
1586.87	0.017	1925508	REC_END	n/a	6	-999	n/a	n/a	n/a	n/a	14	[0, 0, 0]	-999	PAL1	1	R1162N
1586.887	0.832	1925525	TEST_ORIENT	n/a	5	5	CLOWN	CLASS	SEED	CLOWN	14	[0, 0, 0]	-999	PAL1	1	R1162N
1587.719	0.001	1926357	TEST_PROBE	n/a	5	5	CLOWN	CLASS	SEED	CLOWN	14	[0, 0, 0]	-999	PAL1	1	R1162N
1587.72	2.716	1926358	REC_START	n/a	5	-999	n/a	CLASS	n/a	n/a	14	[0, 0, 0]	-999	PAL1	1	R1162N
1590.436	2.292	1929074	REC_EVENT	2716	5	5	CLOWN	CLASS	SEED	CLOWN	14	[0, 0, 0]	-999	PAL1	1	R1162N
1592.728	0.009	1931366	REC_END	n/a	5	-999	n/a	n/a	n/a	n/a	14	[0, 0, 0]	-999	PAL1	1	R1162N
1592.737	0.933	1931375	TEST_ORIENT	n/a	2	6	ROAD	TREE	ROAD	STEM	14	[0, 0, 0]	-999	PAL1	1	R1162N
1593.67	0.001	1932308	TEST_PROBE	n/a	2	6	ROAD	TREE	ROAD	STEM	14	[0, 0, 0]	-999	PAL1	1	R1162N
1593.671	2.385	1932309	REC_START	n/a	2	-999	n/a	TREE	n/a	n/a	14	[0, 0, 0]	-999	PAL1	1	R1162N
1596.056	2.623	1934694	REC_EVENT	2385	2	6	ROAD	TREE	ROAD	STEM	14	[0, 0, 0]	-999	PAL1	1	R1162N
1598.679	0.614	1937317	REC_END	n/a	2	-999	n/a	n/a	n/a	n/a	14	[0, 0, 0]	-999	PAL1	1	R1162N
1599.293	10.446	1937931	ENCODING_START	n/a	0	-999	n/a	n/a	n/a	n/a	15	[0, 0, 0]	-999	PAL1	1	R1162N
1609.739	0.884	1948376	STUDY_ORIENT	n/a	1	5	CHIN	THREAD	CHIN	THREAD	15	[0, 0, 0]	-999	PAL1	1	R1162N
1610.623	5.034	1949260	STUDY_PAIR	n/a	1	5	CHIN	THREAD	CHIN	THREAD	15	[0, 0, 0]	-999	PAL1	1	R1162N
1615.657	0.816	1954294	STUDY_ORIENT	n/a	2	2	CLOUD	n/a	CLOUD	PRINCE	15	[0, 0, 0]	-999	PAL1	1	R1162N
1616.473	5.018	1955110	STUDY_PAIR	n/a	2	2	CLOUD	n/a	CLOUD	PRINCE	15	[0, 0, 0]	-999	PAL1	1	R1162N
1621.491	0.783	1960128	STUDY_ORIENT	n/a	3	3	BAND	JET	BAND	JET	15	[0, 0, 0]	-999	PAL1	1	R1162N
1622.274	5.018	1960911	STUDY_PAIR	n/a	3	3	BAND	JET	BAND	JET	15	[0, 0, 0]	-999	PAL1	1	R1162N
1627.292	0.8	1965929	STUDY_ORIENT	n/a	4	6	FLAG	SCHOOL	SCHOOL	FLAG	15	[0, 0, 0]	-999	PAL1	1	R1162N
1628.092	5.034	1966729	STUDY_PAIR	n/a	4	6	FLAG	SCHOOL	SCHOOL	FLAG	15	[0, 0, 0]	-999	PAL1	1	R1162N
1633.126	0.967	1971763	STUDY_ORIENT	n/a	5	1	CLAY	LIP	CLAY	LIP	15	[0, 0, 0]	-999	PAL1	1	R1162N
1634.093	5.034	1972730	STUDY_PAIR	n/a	5	1	CLAY	LIP	CLAY	LIP	15	[0, 0, 0]	-999	PAL1	1	R1162N
1639.127	0.833	1977764	STUDY_ORIENT	n/a	6	4	SPONGE	n/a	HAWK	SPONGE	15	[0, 0, 0]	-999	PAL1	1	R1162N
1639.96	4.018	1978597	STUDY_PAIR	n/a	6	4	SPONGE	n/a	HAWK	SPONGE	15	[0, 0, 0]	-999	PAL1	1	R1162N
1643.978	0.999	1982615	START	n/a	-999	-999	n/a	n/a	n/a	n/a	15	[-999, -999, -999]	-999	PAL1	1	R1162N
1644.977	0.017	1983614	MATH_START	n/a	-999	-999	n/a	n/a	n/a	n/a	15	[0, 0, 0]	-999	PAL1	1	R1162N
1644.994	3.334	1983631	PROB	3313	-999	-999	n/a	n/a	n/a	n/a	15	[8, 8, 5]	21	PAL1	1	R1162N
1648.328	3.234	1986965	PROB	3211	-999	-999	n/a	n/a	n/a	n/a	15	[6, 6, 4]	16	PAL1	1	R1162N
1651.562	1.883	1990199	PROB	1857	-999	-999	n/a	n/a	n/a	n/a	15	[1, 2, 1]	4	PAL1	1	R1162N
1653.445	3.701	1992082	PROB	3678	-999	-999	n/a	n/a	n/a	n/a	15	[7, 6, 8]	21	PAL1	1	R1162N
1657.146	2.833	1995783	PROB	2809	-999	-999	n/a	n/a	n/a	n/a	15	[4, 7, 7]	18	PAL1	1	R1162N
1659.979	3.084	1998616	PROB	3056	-999	-999	n/a	n/a	n/a	n/a	15	[2, 7, 8]	17	PAL1	1	R1162N
1663.063	2.956	2001700	PROB	2956	-999	-999	n/a	n/a	n/a	n/a	15	[8, 6, 8]	22	PAL1	1	R1162N
1666.019	0.011	2004656	STOP	n/a	-999	-999	n/a	n/a	n/a	n/a	15	[-999, -999, -999]	-999	PAL1	1	R1162N
1666.03	0.0	2004667	MATH_END	n/a	-999	-999	n/a	n/a	n/a	n/a	15	[0, 0, 0]	-999	PAL1	1	R1162N
1666.03	0.017	2004667	TEST_START	n/a	-999	-999	n/a	n/a	n/a	n/a	15	[0, 0, 0]	-999	PAL1	1	R1162N
1666.047	0.9	2004684	TEST_ORIENT	n/a	5	1	CLAY	LIP	CLAY	LIP	15	[0, 0, 0]	-999	PAL1	1	R1162N
1666.947	0.0	2005584	TEST_PROBE	n/a	5	1	CLAY	LIP	CLAY	LIP	15	[0, 0, 0]	-999	PAL1	1	R1162N
1666.947	1.004	2005584	REC_START	n/a	5	-999	n/a	LIP	n/a	n/a	15	[0, 0, 0]	-999	PAL1	1	R1162N
1667.951	4.013	2006587	REC_EVENT	1004	5	1	CLAY	LIP	CLAY	LIP	15	[0, 0, 0]	-999	PAL1	1	R1162N
1671.964	0.017	2010600	REC_END	n/a	5	-999	n/a	n/a	n/a	n/a	15	[0, 0, 0]	-999	PAL1	1	R1162N
1671.981	0.833	2010617	TEST_ORIENT	n/a	2	2	CLOUD	n/a	CLOUD	PRINCE	15	[0, 0, 0]	-999	PAL1	1	R1162N
1672.814	0.001	2011450	TEST_PROBE	n/a	2	2	CLOUD	n/a	CLOUD	PRINCE	15	[0, 0, 0]	-999	PAL1	1	R1162N
1672.815	4.829	2011451	REC_START	n/a	2	-999	n/a	n/a	n/a	n/a	15	[0, 0, 0]	-999	PAL1	1	R1162N
1677.644	0.187	2016280	REC_EVENT	4829	2	2	CLOUD	<>	CLOUD	PRINCE	15	[0, 0, 0]	-999	PAL1	1	R1162N
1677.831	0.018	2016467	REC_END	n/a	2	-999	n/a	n/a	n/a	n/a	15	[0, 0, 0]	-999	PAL1	1	R1162N
1677.849	1.017	2016485	TEST_ORIENT	n/a	3	3	BAND	JET	BAND	JET	15	[0, 0, 0]	-999	PAL1	1	R1162N
1678.866	0.001	2017502	TEST_PROBE	n/a	3	3	BAND	JET	BAND	JET	15	[0, 0, 0]	-999	PAL1	1	R1162N
1678.867	1.18	2017503	REC_START	n/a	3	-999	n/a	JET	n/a	n/a	15	[0, 0, 0]	-999	PAL1	1	R1162N
1680.047	3.819	2018683	REC_EVENT	1180	3	3	BAND	JET	BAND	JET	15	[0, 0, 0]	-999	PAL1	1	R1162N
1683.866	0.018	2022502	REC_END	n/a	3	-999	n/a	n/a	n/a	n/a	15	[0, 0, 0]	-999	PAL1	1	R1162N
1683.884	0.932	2022520	TEST_ORIENT	n/a	6	4	SPONGE	n/a	HAWK	SPONGE	15	[0, 0, 0]	-999	PAL1	1	R1162N
1684.816	0.0	2023452	TEST_PROBE	n/a	6	4	SPONGE	n/a	HAWK	SPONGE	15	[0, 0, 0]	-999	PAL1	1	R1162N
1684.816	4.852	2023452	REC_START	n/a	6	-999	n/a	n/a	n/a	n/a	15	[0, 0, 0]	-999	PAL1	1	R1162N
1689.668	0.165	2028304	REC_EVENT	4852	6	4	SPONGE	<>	HAWK	SPONGE	15	[0, 0, 0]	-999	PAL1	1	R1162N
1689.833	0.018	2028469	REC_END	n/a	6	-999	n/a	n/a	n/a	n/a	15	[0, 0, 0]	-999	PAL1	1	R1162N
1689.851	0.849	2028487	TEST_ORIENT	n/a	1	5	CHIN	THREAD	CHIN	THREAD	15	[0, 0, 0]	-999	PAL1	1	R1162N
1690.7	0.0	2029336	REC_START	n/a	1	-999	n/a	THREAD	n/a	n/a	15	[0, 0, 0]	-999	PAL1	1	R1162N
1690.7	1.172	2029336	TEST_PROBE	n/a	1	5	CHIN	THREAD	CHIN	THREAD	15	[0, 0, 0]	-999	PAL1	1	R1162N
1691.872	3.845	2030508	REC_EVENT	1172	1	5	CHIN	THREAD	CHIN	THREAD	15	[0, 0, 0]	-999	PAL1	1	R1162N
1695.717	0.017	2034353	REC_END	n/a	1	-999	n/a	n/a	n/a	n/a	15	[0, 0, 0]	-999	PAL1	1	R1162N
1695.734	0.85	2034370	TEST_ORIENT	n/a	4	6	FLAG	SCHOOL	SCHOOL	FLAG	15	[0, 0, 0]	-999	PAL1	1	R1162N
1696.584	0.0	2035220	TEST_PROBE	n/a	4	6	FLAG	SCHOOL	SCHOOL	FLAG	15	[0, 0, 0]	-999	PAL1	1	R1162N
1696.584	1.537	2035220	REC_START	n/a	4	-999	n/a	SCHOOL	n/a	n/a	15	[0, 0, 0]	-999	PAL1	1	R1162N
1698.121	3.48	2036757	REC_EVENT	1537	4	6	FLAG	SCHOOL	SCHOOL	FLAG	15	[0, 0, 0]	-999	PAL1	1	R1162N
1701.601	1.184	2040237	REC_END	n/a	4	-999	n/a	n/a	n/a	n/a	15	[0, 0, 0]	-999	PAL1	1	R1162N
1702.785	10.451	2041421	ENCODING_START	n/a	0	-999	n/a	n/a	n/a	n/a	16	[0, 0, 0]	-999	PAL1	1	R1162N
1713.236	0.967	2051872	STUDY_ORIENT	n/a	1	5	FOOD	GRAPE	FOOD	GRAPE	16	[0, 0, 0]	-999	PAL1	1	R1162N
1714.203	5.017	2052839	STUDY_PAIR	n/a	1	5	FOOD	GRAPE	FOOD	GRAPE	16	[0, 0, 0]	-999	PAL1	1	R1162N
1719.22	0.984	2057856	STUDY_ORIENT	n/a	2	4	SMOKE	n/a	SMOKE	TOAST	16	[0, 0, 0]	-999	PAL1	1	R1162N
1720.204	5.034	2058840	STUDY_PAIR	n/a	2	4	SMOKE	n/a	SMOKE	TOAST	16	[0, 0, 0]	-999	PAL1	1	R1162N
1725.238	0.933	2063874	STUDY_ORIENT	n/a	3	3	SPEAR	n/a	SPEAR	TOAD	16	[0, 0, 0]	-999	PAL1	1	R1162N
1726.171	5.018	2064807	STUDY_PAIR	n/a	3	3	SPEAR	n/a	SPEAR	TOAD	16	[0, 0, 0]	-999	PAL1	1	R1162N
1731.189	1.016	2069824	STUDY_ORIENT	n/a	4	2	POOL	n/a	POOL	BOARD	16	[0, 0, 0]	-999	PAL1	1	R1162N
1732.205	5.018	2070840	STUDY_PAIR	n/a	4	2	POOL	n/a	POOL	BOARD	16	[0, 0, 0]	-999	PAL1	1	R1162N
1737.223	0.867	2075858	STUDY_ORIENT	n/a	5	1	LAMB	n/a	LAMB	TRASH	16	[0, 0, 0]	-999	PAL1	1	R1162N
1738.09	5.034	2076725	STUDY_PAIR	n/a	5	1	LAMB	n/a	LAMB	TRASH	16	[0, 0, 0]	-999	PAL1	1	R1162N
1743.124	0.9	2081759	STUDY_ORIENT	n/a	6	6	BLOOM	OAR	OAR	BLOOM	16	[0, 0, 0]	-999	PAL1	1	R1162N
1744.024	4.017	2082659	STUDY_PAIR	n/a	6	6	BLOOM	OAR	OAR	BLOOM	16	[0, 0, 0]	-999	PAL1	1	R1162N
1748.041	1.0	2086676	START	n/a	-999	-999	n/a	n/a	n/a	n/a	16	[-999, -999, -999]	-999	PAL1	1	R1162N
1749.041	0.017	2087676	MATH_START	n/a	-999	-999	n/a	n/a	n/a	n/a	16	[0, 0, 0]	-999	PAL1	1	R1162N
1749.058	2.75	2087693	PROB	2726	-999	-999	n/a	n/a	n/a	n/a	16	[3, 2, 9]	14	PAL1	1	R1162N
1751.808	2.784	2090443	PROB	2751	-999	-999	n/a	n/a	n/a	n/a	16	[7, 3, 3]	13	PAL1	1	R1162N
1754.592	2.067	2093227	PROB	2039	-999	-999	n/a	n/a	n/a	n/a	16	[1, 1, 5]	7	PAL1	1	R1162N
1756.659	3.934	2095294	PROB	3908	-999	-999	n/a	n/a	n/a	n/a	16	[7, 9, 9]	24	PAL1	1	R1162N
1760.593	6.584	2099228	PROB	6558	-999	-999	n/a	n/a	n/a	n/a	16	[6, 8, 7]	20	PAL1	1	R1162N
1767.177	2.622	2105812	PROB	2622	-999	-999	n/a	n/a	n/a	n/a	16	[7, 7, 1]	15	PAL1	1	R1162N
1769.799	0.012	2108434	STOP	n/a	-999	-999	n/a	n/a	n/a	n/a	16	[-999, -999, -999]	-999	PAL1	1	R1162N
1769.811	0.0	2108446	MATH_END	n/a	-999	-999	n/a	n/a	n/a	n/a	16	[0, 0, 0]	-999	PAL1	1	R1162N
1769.811	0.016	2108446	TEST_START	n/a	-999	-999	n/a	n/a	n/a	n/a	16	[0, 0, 0]	-999	PAL1	1	R1162N
1769.827	0.8	2108462	TEST_ORIENT	n/a	5	1	LAMB	n/a	LAMB	TRASH	16	[0, 0, 0]	-999	PAL1	1	R1162N
1770.627	0.001	2109262	TEST_PROBE	n/a	5	1	LAMB	n/a	LAMB	TRASH	16	[0, 0, 0]	-999	PAL1	1	R1162N
1770.628	4.876	2109263	REC_START	n/a	5	-999	n/a	n/a	n/a	n/a	16	[0, 0, 0]	-999	PAL1	1	R1162N
1775.504	0.132	2114139	REC_EVENT	4876	5	1	LAMB	<>	LAMB	TRASH	16	[0, 0, 0]	-999	PAL1	1	R1162N
1775.636	0.009	2114271	REC_END	n/a	5	-999	n/a	n/a	n/a	n/a	16	[0, 0, 0]	-999	PAL1	1	R1162N
1775.645	0.816	2114280	TEST_ORIENT	n/a	4	2	POOL	n/a	POOL	BOARD	16	[0, 0, 0]	-999	PAL1	1	R1162N
1776.461	0.001	2115096	TEST_PROBE	n/a	4	2	POOL	n/a	POOL	BOARD	16	[0, 0, 0]	-999	PAL1	1	R1162N
1776.462	4.922	2115097	REC_START	n/a	4	-999	n/a	n/a	n/a	n/a	16	[0, 0, 0]	-999	PAL1	1	R1162N
1781.384	0.086	2120019	REC_EVENT	4922	4	2	POOL	<>	POOL	BOARD	16	[0, 0, 0]	-999	PAL1	1	R1162N
1781.47	0.009	2120105	REC_END	n/a	4	-999	n/a	n/a	n/a	n/a	16	[0, 0, 0]	-999	PAL1	1	R1162N
1781.479	0.833	2120114	TEST_ORIENT	n/a	3	3	SPEAR	n/a	SPEAR	TOAD	16	[0, 0, 0]	-999	PAL1	1	R1162N
1782.312	0.001	2120947	TEST_PROBE	n/a	3	3	SPEAR	n/a	SPEAR	TOAD	16	[0, 0, 0]	-999	PAL1	1	R1162N
1782.313	4.806	2120948	REC_START	n/a	3	-999	n/a	n/a	n/a	n/a	16	[0, 0, 0]	-999	PAL1	1	R1162N
1787.119	0.21	2125754	REC_EVENT	4806	3	3	SPEAR	<>	SPEAR	TOAD	16	[0, 0, 0]	-999	PAL1	1	R1162N
1787.329	0.017	2125964	REC_END	n/a	3	-999	n/a	n/a	n/a	n/a	16	[0, 0, 0]	-999	PAL1	1	R1162N
1787.346	0.917	2125981	TEST_ORIENT	n/a	2	4	SMOKE	n/a	SMOKE	TOAST	16	[0, 0, 0]	-999	PAL1	1	R1162N
1788.263	0.001	2126897	TEST_PROBE	n/a	2	4	SMOKE	n/a	SMOKE	TOAST	16	[0, 0, 0]	-999	PAL1	1	R1162N
1788.264	4.899	2126898	REC_START	n/a	2	-999	n/a	n/a	n/a	n/a	16	[0, 0, 0]	-999	PAL1	1	R1162N
1793.163	0.125	2131797	REC_EVENT	4899	2	4	SMOKE	<>	SMOKE	TOAST	16	[0, 0, 0]	-999	PAL1	1	R1162N
1793.288	0.009	2131922	REC_END	n/a	2	-999	n/a	n/a	n/a	n/a	16	[0, 0, 0]	-999	PAL1	1	R1162N
1793.297	1.033	2131931	TEST_ORIENT	n/a	1	5	FOOD	GRAPE	FOOD	GRAPE	16	[0, 0, 0]	-999	PAL1	1	R1162N
1794.33	0.001	2132964	TEST_PROBE	n/a	1	5	FOOD	GRAPE	FOOD	GRAPE	16	[0, 0, 0]	-999	PAL1	1	R1162N
1794.331	1.288	2132965	REC_START	n/a	1	-999	n/a	GRAPE	n/a	n/a	16	[0, 0, 0]	-999	PAL1	1	R1162N
1795.619	3.72	2134253	REC_EVENT	1288	1	5	FOOD	GRAPE	FOOD	GRAPE	16	[0, 0, 0]	-999	PAL1	1	R1162N
1799.339	0.009	2137973	REC_END	n/a	1	-999	n/a	n/a	n/a	n/a	16	[0, 0, 0]	-999	PAL1	1	R1162N
1799.348	0.833	2137982	TEST_ORIENT	n/a	6	6	BLOOM	OAR	OAR	BLOOM	16	[0, 0, 0]	-999	PAL1	1	R1162N
1800.181	0.001	2138815	TEST_PROBE	n/a	6	6	BLOOM	OAR	OAR	BLOOM	16	[0, 0, 0]	-999	PAL1	1	R1162N
1800.182	0.777	2138816	REC_START	n/a	6	-999	n/a	OAR	n/a	n/a	16	[0, 0, 0]	-999	PAL1	1	R1162N
1800.959	4.248	2139593	REC_EVENT	777	6	6	BLOOM	OAR	OAR	BLOOM	16	[0, 0, 0]	-999	PAL1	1	R1162N
1805.207	1.03	2143841	REC_END	n/a	6	-999	n/a	n/a	n/a	n/a	16	[0, 0, 0]	-999	PAL1	1	R1162N
1806.237	10.446	2144871	ENCODING_START	n/a	0	-999	n/a	n/a	n/a	n/a	17	[0, 0, 0]	-999	PAL1	1	R1162N
1816.683	0.9	2155317	STUDY_ORIENT	n/a	1	5	LAWN	SLUSH	SLUSH	LAWN	17	[0, 0, 0]	-999	PAL1	1	R1162N
1817.583	5.018	2156217	STUDY_PAIR	n/a	1	5	LAWN	SLUSH	SLUSH	LAWN	17	[0, 0, 0]	-999	PAL1	1	R1162N
1822.601	0.933	2161235	STUDY_ORIENT	n/a	2	4	APE	BRICK	APE	FROG	17	[0, 0, 0]	-999	PAL1	1	R1162N
1823.534	5.018	2162168	STUDY_PAIR	n/a	2	4	APE	BRICK	APE	FROG	17	[0, 0, 0]	-999	PAL1	1	R1162N
1828.552	0.917	2167186	STUDY_ORIENT	n/a	3	1	ROOM	n/a	ROOM	BLUSH	17	[0, 0, 0]	-999	PAL1	1	R1162N
1829.469	5.034	2168103	STUDY_PAIR	n/a	3	1	ROOM	n/a	ROOM	BLUSH	17	[0, 0, 0]	-999	PAL1	1	R1162N
1834.503	0.95	2173137	STUDY_ORIENT	n/a	4	6	MUD	MAT	MUD	NET	17	[0, 0, 0]	-999	PAL1	1	R1162N
1835.453	5.034	2174087	STUDY_PAIR	n/a	4	6	MUD	MAT	MUD	NET	17	[0, 0, 0]	-999	PAL1	1	R1162N
1840.487	0.983	2179121	STUDY_ORIENT	n/a	5	3	CAVE	n/a	STRAW	CAVE	17	[0, 0, 0]	-999	PAL1	1	R1162N
1841.47	5.034	2180104	STUDY_PAIR	n/a	5	3	CAVE	n/a	STRAW	CAVE	17	[0, 0, 0]	-999	PAL1	1	R1162N
1846.504	0.967	2185138	STUDY_ORIENT	n/a	6	2	GOAT	n/a	TRAIN	GOAT	17	[0, 0, 0]	-999	PAL1	1	R1162N
1847.471	4.017	2186104	STUDY_PAIR	n/a	6	2	GOAT	n/a	TRAIN	GOAT	17	[0, 0, 0]	-999	PAL1	1	R1162N
1851.488	1.0	2190121	START	n/a	-999	-999	n/a	n/a	n/a	n/a	17	[-999, -999, -999]	-999	PAL1	1	R1162N
1852.488	0.017	2191121	MATH_START	n/a	-999	-999	n/a	n/a	n/a	n/a	17	[0, 0, 0]	-999	PAL1	1	R1162N
1852.505	5.251	2191138	PROB	5227	-999	-999	n/a	n/a	n/a	n/a	17	[6, 9, 8]	23	PAL1	1	R1162N
1857.756	3.45	2196389	PROB	3423	-999	-999	n/a	n/a	n/a	n/a	17	[2, 8, 7]	17	PAL1	1	R1162N
1861.206	2.184	2199839	PROB	2149	-999	-999	n/a	n/a	n/a	n/a	17	[4, 1, 1]	6	PAL1	1	R1162N
1863.39	2.05	2202023	PROB	2021	-999	-999	n/a	n/a	n/a	n/a	17	[1, 2, 8]	11	PAL1	1	R1162N
1865.44	2.334	2204073	PROB	2315	-999	-999	n/a	n/a	n/a	n/a	17	[4, 9, 1]	14	PAL1	1	R1162N
1867.774	4.102	2206407	PROB	4102	-999	-999	n/a	n/a	n/a	n/a	17	[7, 2, 5]	14	PAL1	1	R1162N
1871.876	0.015	2210509	STOP	n/a	-999	-999	n/a	n/a	n/a	n/a	17	[-999, -999, -999]	-999	PAL1	1	R1162N
1871.891	0.0	2210524	MATH_END	n/a	-999	-999	n/a	n/a	n/a	n/a	17	[0, 0, 0]	-999	PAL1	1	R1162N
1871.891	0.016	2210524	TEST_START	n/a	-999	-999	n/a	n/a	n/a	n/a	17	[0, 0, 0]	-999	PAL1	1	R1162N
1871.907	0.984	2210540	TEST_ORIENT	n/a	3	1	ROOM	n/a	ROOM	BLUSH	17	[0, 0, 0]	-999	PAL1	1	R1162N
1872.891	0.001	2211524	TEST_PROBE	n/a	3	1	ROOM	n/a	ROOM	BLUSH	17	[0, 0, 0]	-999	PAL1	1	R1162N
1872.892	4.852	2211525	REC_START	n/a	3	-999	n/a	n/a	n/a	n/a	17	[0, 0, 0]	-999	PAL1	1	R1162N
1877.744	0.172	2216377	REC_EVENT	4852	3	1	ROOM	<>	ROOM	BLUSH	17	[0, 0, 0]	-999	PAL1	1	R1162N
1877.916	0.009	2216549	REC_END	n/a	3	-999	n/a	n/a	n/a	n/a	17	[0, 0, 0]	-999	PAL1	1	R1162N
1877.925	1.0	2216558	TEST_ORIENT	n/a	6	2	GOAT	n/a	TRAIN	GOAT	17	[0, 0, 0]	-999	PAL1	1	R1162N
1878.925	0.001	2217558	TEST_PROBE	n/a	6	2	GOAT	n/a	TRAIN	GOAT	17	[0, 0, 0]	-999	PAL1	1	R1162N
1878.926	4.876	2217559	REC_START	n/a	6	-999	n/a	n/a	n/a	n/a	17	[0, 0, 0]	-999	PAL1	1	R1162N
1883.802	0.148	2222435	REC_EVENT	4876	6	2	GOAT	<>	TRAIN	GOAT	17	[0, 0, 0]	-999	PAL1	1	R1162N
1883.95	0.009	2222583	REC_END	n/a	6	-999	n/a	n/a	n/a	n/a	17	[0, 0, 0]	-999	PAL1	1	R1162N
1883.959	0.8	2222592	TEST_ORIENT	n/a	5	3	CAVE	n/a	STRAW	CAVE	17	[0, 0, 0]	-999	PAL1	1	R1162N
1884.759	0.001	2223392	TEST_PROBE	n/a	5	3	CAVE	n/a	STRAW	CAVE	17	[0, 0, 0]	-999	PAL1	1	R1162N
1884.76	4.806	2223393	REC_START	n/a	5	-999	n/a	n/a	n/a	n/a	17	[0, 0, 0]	-999	PAL1	1	R1162N
1889.566	0.21	2228199	REC_EVENT	4806	5	3	CAVE	<>	STRAW	CAVE	17	[0, 0, 0]	-999	PAL1	1	R1162N
1889.776	0.017	2228409	REC_END	n/a	5	-999	n/a	n/a	n/a	n/a	17	[0, 0, 0]	-999	PAL1	1	R1162N
1889.793	0.934	2228426	TEST_ORIENT	n/a	2	4	APE	BRICK	APE	FROG	17	[0, 0, 0]	-999	PAL1	1	R1162N
1890.727	0.0	2229360	TEST_PROBE	n/a	2	4	APE	BRICK	APE	FROG	17	[0, 0, 0]	-999	PAL1	1	R1162N
1890.727	2.664	2229360	REC_START	n/a	2	-999	n/a	BRICK	n/a	n/a	17	[0, 0, 0]	-999	PAL1	1	R1162N
1893.391	2.353	2232024	REC_EVENT	2664	2	4	APE	BRICK	APE	FROG	17	[0, 0, 0]	-999	PAL1	1	R1162N
1895.744	0.017	2234377	REC_END	n/a	2	-999	n/a	n/a	n/a	n/a	17	[0, 0, 0]	-999	PAL1	1	R1162N
1895.761	0.85	2234394	TEST_ORIENT	n/a	1	5	LAWN	SLUSH	SLUSH	LAWN	17	[0, 0, 0]	-999	PAL1	1	R1162N
1896.611	0.0	2235244	TEST_PROBE	n/a	1	5	LAWN	SLUSH	SLUSH	LAWN	17	[0, 0, 0]	-999	PAL1	1	R1162N
1896.611	2.49	2235244	REC_START	n/a	1	-999	n/a	SLUSH	n/a	n/a	17	[0, 0, 0]	-999	PAL1	1	R1162N
1899.101	2.527	2237734	REC_EVENT	2490	1	5	LAWN	SLUSH	SLUSH	LAWN	17	[0, 0, 0]	-999	PAL1	1	R1162N
1901.628	0.017	2240261	REC_END	n/a	1	-999	n/a	n/a	n/a	n/a	17	[0, 0, 0]	-999	PAL1	1	R1162N
1901.645	0.817	2240278	TEST_ORIENT	n/a	4	6	MUD	MAT	MUD	NET	17	[0, 0, 0]	-999	PAL1	1	R1162N
1902.462	0.0	2241095	TEST_PROBE	n/a	4	6	MUD	MAT	MUD	NET	17	[0, 0, 0]	-999	PAL1	1	R1162N
1902.462	1.663	2241095	REC_START	n/a	4	-999	n/a	MAT	n/a	n/a	17	[0, 0, 0]	-999	PAL1	1	R1162N
1904.125	3.354	2242758	REC_EVENT	1663	4	6	MUD	MAT	MUD	NET	17	[0, 0, 0]	-999	PAL1	1	R1162N
1907.479	0.891	2246111	REC_END	n/a	4	-999	n/a	n/a	n/a	n/a	17	[0, 0, 0]	-999	PAL1	1	R1162N
1908.37	10.444	2247002	ENCODING_START	n/a	0	-999	n/a	n/a	n/a	n/a	18	[0, 0, 0]	-999	PAL1	1	R1162N
1918.814	0.8	2257446	STUDY_ORIENT	n/a	1	3	SOCK	BED	SOCK	BED	18	[0, 0, 0]	-999	PAL1	1	R1162N
1919.614	5.034	2258246	STUDY_PAIR	n/a	1	3	SOCK	BED	SOCK	BED	18	[0, 0, 0]	-999	PAL1	1	R1162N
1924.648	0.95	2263280	STUDY_ORIENT	n/a	2	6	FLEA	MAT	MAT	FLEA	18	[0, 0, 0]	-999	PAL1	1	R1162N
1925.598	5.034	2264230	STUDY_PAIR	n/a	2	6	FLEA	MAT	MAT	FLEA	18	[0, 0, 0]	-999	PAL1	1	R1162N
1930.632	0.967	2269264	STUDY_ORIENT	n/a	3	5	MOOSE	n/a	JUICE	MOOSE	18	[0, 0, 0]	-999	PAL1	1	R1162N
1931.599	5.034	2270231	STUDY_PAIR	n/a	3	5	MOOSE	n/a	JUICE	MOOSE	18	[0, 0, 0]	-999	PAL1	1	R1162N
1936.633	0.767	2275265	STUDY_ORIENT	n/a	4	4	STREET	ARK	STREET	ARK	18	[0, 0, 0]	-999	PAL1	1	R1162N
1937.4	5.034	2276032	STUDY_PAIR	n/a	4	4	STREET	ARK	STREET	ARK	18	[0, 0, 0]	-999	PAL1	1	R1162N
1942.434	0.983	2281066	STUDY_ORIENT	n/a	5	1	HORSE	MARS	MOUSE	HORSE	18	[0, 0, 0]	-999	PAL1	1	R1162N
1943.417	5.034	2282049	STUDY_PAIR	n/a	5	1	HORSE	MARS	MOUSE	HORSE	18	[0, 0, 0]	-999	PAL1	1	R1162N
1948.451	0.883	2287083	STUDY_ORIENT	n/a	6	2	VINE	PEACH	PEACH	VINE	18	[0, 0, 0]	-999	PAL1	1	R1162N
1949.334	4.001	2287966	STUDY_PAIR	n/a	6	2	VINE	PEACH	PEACH	VINE	18	[0, 0, 0]	-999	PAL1	1	R1162N
1953.335	1.0	2291967	START	n/a	-999	-999	n/a	n/a	n/a	n/a	18	[-999, -999, -999]	-999	PAL1	1	R1162N
1954.335	0.017	2292967	MATH_START	n/a	-999	-999	n/a	n/a	n/a	n/a	18	[0, 0, 0]	-999	PAL1	1	R1162N
1954.352	3.767	2292984	PROB	3744	-999	-999	n/a	n/a	n/a	n/a	18	[2, 1, 5]	8	PAL1	1	R1162N
1958.119	2.584	2296751	PROB	2553	-999	-999	n/a	n/a	n/a	n/a	18	[5, 1, 3]	9	PAL1	1	R1162N
1960.703	2.567	2299335	PROB	2545	-999	-999	n/a	n/a	n/a	n/a	18	[7, 2, 3]	12	PAL1	1	R1162N
1963.27	2.95	2301902	PROB	2922	-999	-999	n/a	n/a	n/a	n/a	18	[3, 2, 9]	14	PAL1	1	R1162N
1966.22	3.551	2304852	PROB	3532	-999	-999	n/a	n/a	n/a	n/a	18	[7, 5, 2]	14	PAL1	1	R1162N
1969.771	3.217	2308402	PROB	3188	-999	-999	n/a	n/a	n/a	n/a	18	[3, 9, 4]	16	PAL1	1	R1162N
1972.988	3.155	2311619	PROB	3155	-999	-999	n/a	n/a	n/a	n/a	18	[7, 8, 1]	16	PAL1	1	R1162N
1976.143	0.012	2314774	STOP	n/a	-999	-999	n/a	n/a	n/a	n/a	18	[-999, -999, -999]	-999	PAL1	1	R1162N
1976.155	0.0	2314786	MATH_END	n/a	-999	-999	n/a	n/a	n/a	n/a	18	[0, 0, 0]	-999	PAL1	1	R1162N
1976.155	0.016	2314786	TEST_START	n/a	-999	-999	n/a	n/a	n/a	n/a	18	[0, 0, 0]	-999	PAL1	1	R1162N
1976.171	0.951	2314802	TEST_ORIENT	n/a	5	1	HORSE	MARS	MOUSE	HORSE	18	[0, 0, 0]	-999	PAL1	1	R1162N
1977.122	0.0	2315753	REC_START	n/a	5	-999	n/a	MARS	n/a	n/a	18	[0, 0, 0]	-999	PAL1	1	R1162N
1977.122	1.625	2315753	TEST_PROBE	n/a	5	1	HORSE	MARS	MOUSE	HORSE	18	[0, 0, 0]	-999	PAL1	1	R1162N
1978.747	3.392	2317378	REC_EVENT	1625	5	1	HORSE	MARS	MOUSE	HORSE	18	[0, 0, 0]	-999	PAL1	1	R1162N
1982.139	0.017	2320770	REC_END	n/a	5	-999	n/a	n/a	n/a	n/a	18	[0, 0, 0]	-999	PAL1	1	R1162N
1982.156	0.966	2320787	TEST_ORIENT	n/a	6	2	VINE	PEACH	PEACH	VINE	18	[0, 0, 0]	-999	PAL1	1	R1162N
1983.122	0.001	2321753	TEST_PROBE	n/a	6	2	VINE	PEACH	PEACH	VINE	18	[0, 0, 0]	-999	PAL1	1	R1162N
1983.123	0.997	2321754	REC_START	n/a	6	-999	n/a	PEACH	n/a	n/a	18	[0, 0, 0]	-999	PAL1	1	R1162N
1984.12	4.019	2322751	REC_EVENT	997	6	2	VINE	PEACH	PEACH	VINE	18	[0, 0, 0]	-999	PAL1	1	R1162N
1988.139	0.017	2326770	REC_END	n/a	6	-999	n/a	n/a	n/a	n/a	18	[0, 0, 0]	-999	PAL1	1	R1162N
1988.156	0.85	2326787	TEST_ORIENT	n/a	1	3	SOCK	BED	SOCK	BED	18	[0, 0, 0]	-999	PAL1	1	R1162N
1989.006	0.001	2327637	TEST_PROBE	n/a	1	3	SOCK	BED	SOCK	BED	18	[0, 0, 0]	-999	PAL1	1	R1162N
1989.007	2.56	2327638	REC_START	n/a	1	-999	n/a	BED	n/a	n/a	18	[0, 0, 0]	-999	PAL1	1	R1162N
1991.567	2.448	2330198	REC_EVENT	2560	1	3	SOCK	BED	SOCK	BED	18	[0, 0, 0]	-999	PAL1	1	R1162N
1994.015	0.009	2332646	REC_END	n/a	1	-999	n/a	n/a	n/a	n/a	18	[0, 0, 0]	-999	PAL1	1	R1162N
1994.024	0.983	2332655	TEST_ORIENT	n/a	4	4	STREET	ARK	STREET	ARK	18	[0, 0, 0]	-999	PAL1	1	R1162N
1995.007	0.001	2333638	TEST_PROBE	n/a	4	4	STREET	ARK	STREET	ARK	18	[0, 0, 0]	-999	PAL1	1	R1162N
1995.008	1.404	2333639	REC_START	n/a	4	-999	n/a	ARK	n/a	n/a	18	[0, 0, 0]	-999	PAL1	1	R1162N
1996.412	3.612	2335043	REC_EVENT	1404	4	4	STREET	ARK	STREET	ARK	18	[0, 0, 0]	-999	PAL1	1	R1162N
2000.024	0.017	2338655	REC_END	n/a	4	-999	n/a	n/a	n/a	n/a	18	[0, 0, 0]	-999	PAL1	1	R1162N
2000.041	0.934	2338672	TEST_ORIENT	n/a	3	5	MOOSE	n/a	JUICE	MOOSE	18	[0, 0, 0]	-999	PAL1	1	R1162N
2000.975	0.0	2339606	TEST_PROBE	n/a	3	5	MOOSE	n/a	JUICE	MOOSE	18	[0, 0, 0]	-999	PAL1	1	R1162N
2000.975	4.899	2339606	REC_START	n/a	3	-999	n/a	n/a	n/a	n/a	18	[0, 0, 0]	-999	PAL1	1	R1162N
2005.874	0.118	2344505	REC_EVENT	4899	3	5	MOOSE	<>	JUICE	MOOSE	18	[0, 0, 0]	-999	PAL1	1	R1162N
2005.992	0.017	2344623	REC_END	n/a	3	-999	n/a	n/a	n/a	n/a	18	[0, 0, 0]	-999	PAL1	1	R1162N
2006.009	1.0	2344640	TEST_ORIENT	n/a	2	6	FLEA	MAT	MAT	FLEA	18	[0, 0, 0]	-999	PAL1	1	R1162N
2007.009	0.0	2345640	TEST_PROBE	n/a	2	6	FLEA	MAT	MAT	FLEA	18	[0, 0, 0]	-999	PAL1	1	R1162N
2007.009	1.901	2345640	REC_START	n/a	2	-999	n/a	MAT	n/a	n/a	18	[0, 0, 0]	-999	PAL1	1	R1162N
2008.91	3.116	2347541	REC_EVENT	1901	2	6	FLEA	MAT	MAT	FLEA	18	[0, 0, 0]	-999	PAL1	1	R1162N
2012.026	1.34	2350657	REC_END	n/a	2	-999	n/a	n/a	n/a	n/a	18	[0, 0, 0]	-999	PAL1	1	R1162N
2013.366	10.445	2351997	ENCODING_START	n/a	0	-999	n/a	n/a	n/a	n/a	19	[0, 0, 0]	-999	PAL1	1	R1162N
2023.811	0.884	2362442	STUDY_ORIENT	n/a	1	3	DOG	n/a	DOG	SPOON	19	[0, 0, 0]	-999	PAL1	1	R1162N
2024.695	5.034	2363326	STUDY_PAIR	n/a	1	3	DOG	n/a	DOG	SPOON	19	[0, 0, 0]	-999	PAL1	1	R1162N
2029.729	0.799	2368359	STUDY_ORIENT	n/a	2	2	FUR	SKUNK	SKUNK	FUR	19	[0, 0, 0]	-999	PAL1	1	R1162N
2030.528	5.018	2369158	STUDY_PAIR	n/a	2	2	FUR	SKUNK	SKUNK	FUR	19	[0, 0, 0]	-999	PAL1	1	R1162N
2035.546	1.0	2374176	STUDY_ORIENT	n/a	3	1	DITCH	CHALK	CHALK	DITCH	19	[0, 0, 0]	-999	PAL1	1	R1162N
2036.546	5.034	2375176	STUDY_PAIR	n/a	3	1	DITCH	CHALK	CHALK	DITCH	19	[0, 0, 0]	-999	PAL1	1	R1162N
2041.58	0.833	2380210	STUDY_ORIENT	n/a	4	4	GRASS	n/a	GRASS	FLAME	19	[0, 0, 0]	-999	PAL1	1	R1162N
2042.413	5.018	2381043	STUDY_PAIR	n/a	4	4	GRASS	n/a	GRASS	FLAME	19	[0, 0, 0]	-999	PAL1	1	R1162N
2047.431	0.983	2386061	STUDY_ORIENT	n/a	5	5	WEB	DOLL	DOLL	WEB	19	[0, 0, 0]	-999	PAL1	1	R1162N
2048.414	5.018	2387044	STUDY_PAIR	n/a	5	5	WEB	DOLL	DOLL	WEB	19	[0, 0, 0]	-999	PAL1	1	R1162N
2053.432	0.966	2392062	STUDY_ORIENT	n/a	6	6	POND	n/a	ANT	POND	19	[0, 0, 0]	-999	PAL1	1	R1162N
2054.398	4.002	2393028	STUDY_PAIR	n/a	6	6	POND	n/a	ANT	POND	19	[0, 0, 0]	-999	PAL1	1	R1162N
2058.4	0.999	2397030	START	n/a	-999	-999	n/a	n/a	n/a	n/a	19	[-999, -999, -999]	-999	PAL1	1	R1162N
2059.399	0.017	2398029	MATH_START	n/a	-999	-999	n/a	n/a	n/a	n/a	19	[0, 0, 0]	-999	PAL1	1	R1162N
2059.416	2.884	2398046	PROB	2860	-999	-999	n/a	n/a	n/a	n/a	19	[6, 3, 6]	15	PAL1	1	R1162N
2062.3	2.667	2400930	PROB	2632	-999	-999	n/a	n/a	n/a	n/a	19	[8, 5, 3]	16	PAL1	1	R1162N
2064.967	2.417	2403597	PROB	2389	-999	-999	n/a	n/a	n/a	n/a	19	[1, 7, 7]	15	PAL1	1	R1162N
2067.384	2.167	2406014	PROB	2132	-999	-999	n/a	n/a	n/a	n/a	19	[6, 2, 6]	14	PAL1	1	R1162N
2069.551	3.233	2408181	PROB	3205	-999	-999	n/a	n/a	n/a	n/a	19	[7, 9, 3]	19	PAL1	1	R1162N
2072.784	5.351	2411414	PROB	5324	-999	-999	n/a	n/a	n/a	n/a	19	[7, 2, 4]	13	PAL1	1	R1162N
2078.135	2.836	2416765	PROB	2836	-999	-999	n/a	n/a	n/a	n/a	19	[1, 7, 9]	17	PAL1	1	R1162N
2080.971	0.014	2419601	STOP	n/a	-999	-999	n/a	n/a	n/a	n/a	19	[-999, -999, -999]	-999	PAL1	1	R1162N
2080.985	0.0	2419615	MATH_END	n/a	-999	-999	n/a	n/a	n/a	n/a	19	[0, 0, 0]	-999	PAL1	1	R1162N
2080.985	0.017	2419615	TEST_START	n/a	-999	-999	n/a	n/a	n/a	n/a	19	[0, 0, 0]	-999	PAL1	1	R1162N
2081.002	0.917	2419632	TEST_ORIENT	n/a	3	1	DITCH	CHALK	CHALK	DITCH	19	[0, 0, 0]	-999	PAL1	1	R1162N
2081.919	0.0	2420549	TEST_PROBE	n/a	3	1	DITCH	CHALK	CHALK	DITCH	19	[0, 0, 0]	-999	PAL1	1	R1162N
2081.919	1.866	2420549	REC_START	n/a	3	-999	n/a	CHALK	n/a	n/a	19	[0, 0, 0]	-999	PAL1	1	R1162N
2083.785	3.151	2422415	REC_EVENT	1866	3	1	DITCH	CHALK	CHALK	DITCH	19	[0, 0, 0]	-999	PAL1	1	R1162N
2086.936	0.017	2425566	REC_END	n/a	3	-999	n/a	n/a	n/a	n/a	19	[0, 0, 0]	-999	PAL1	1	R1162N
2086.953	0.901	2425583	TEST_ORIENT	n/a	2	2	FUR	SKUNK	SKUNK	FUR	19	[0, 0, 0]	-999	PAL1	1	R1162N
2087.854	0.0	2426483	TEST_PROBE	n/a	2	2	FUR	SKUNK	SKUNK	FUR	19	[0, 0, 0]	-999	PAL1	1	R1162N
2087.854	1.565	2426483	REC_START	n/a	2	-999	n/a	SKUNK	n/a	n/a	19	[0, 0, 0]	-999	PAL1	1	R1162N
2089.419	3.452	2428048	REC_EVENT	1565	2	2	FUR	SKUNK	SKUNK	FUR	19	[0, 0, 0]	-999	PAL1	1	R1162N
2092.871	0.016	2431500	REC_END	n/a	2	-999	n/a	n/a	n/a	n/a	19	[0, 0, 0]	-999	PAL1	1	R1162N
2092.887	0.933	2431516	TEST_ORIENT	n/a	1	3	DOG	n/a	DOG	SPOON	19	[0, 0, 0]	-999	PAL1	1	R1162N
2093.82	0.001	2432449	TEST_PROBE	n/a	1	3	DOG	n/a	DOG	SPOON	19	[0, 0, 0]	-999	PAL1	1	R1162N
2093.821	4.899	2432450	REC_START	n/a	1	-999	n/a	n/a	n/a	n/a	19	[0, 0, 0]	-999	PAL1	1	R1162N
2098.72	0.109	2437349	REC_EVENT	4899	1	3	DOG	<>	DOG	SPOON	19	[0, 0, 0]	-999	PAL1	1	R1162N
2098.829	0.009	2437458	REC_END	n/a	1	-999	n/a	n/a	n/a	n/a	19	[0, 0, 0]	-999	PAL1	1	R1162N
2098.838	0.917	2437467	TEST_ORIENT	n/a	4	4	GRASS	n/a	GRASS	FLAME	19	[0, 0, 0]	-999	PAL1	1	R1162N
2099.755	0.0	2438384	TEST_PROBE	n/a	4	4	GRASS	n/a	GRASS	FLAME	19	[0, 0, 0]	-999	PAL1	1	R1162N
2099.755	4.76	2438384	REC_START	n/a	4	-999	n/a	n/a	n/a	n/a	19	[0, 0, 0]	-999	PAL1	1	R1162N
2104.515	0.266	2443144	REC_EVENT	4760	4	4	GRASS	<>	GRASS	FLAME	19	[0, 0, 0]	-999	PAL1	1	R1162N
2104.781	0.008	2443410	REC_END	n/a	4	-999	n/a	n/a	n/a	n/a	19	[0, 0, 0]	-999	PAL1	1	R1162N
2104.789	0.95	2443418	TEST_ORIENT	n/a	5	5	WEB	DOLL	DOLL	WEB	19	[0, 0, 0]	-999	PAL1	1	R1162N
2105.739	0.0	2444368	TEST_PROBE	n/a	5	5	WEB	DOLL	DOLL	WEB	19	[0, 0, 0]	-999	PAL1	1	R1162N
2105.739	1.652	2444368	REC_START	n/a	5	-999	n/a	DOLL	n/a	n/a	19	[0, 0, 0]	-999	PAL1	1	R1162N
2107.391	0.997	2446020	REC_EVENT	1652	5	5	WEB	SPIDER	DOLL	WEB	19	[0, 0, 0]	-999	PAL1	1	R1162N
2108.388	2.368	2447017	REC_EVENT	2649	5	5	WEB	DOLL	DOLL	WEB	19	[0, 0, 0]	-999	PAL1	1	R1162N
2110.756	0.017	2449385	REC_END	n/a	5	-999	n/a	n/a	n/a	n/a	19	[0, 0, 0]	-999	PAL1	1	R1162N
2110.773	0.916	2449402	TEST_ORIENT	n/a	6	6	POND	n/a	ANT	POND	19	[0, 0, 0]	-999	PAL1	1	R1162N
2111.689	0.0	2450318	REC_START	n/a	6	-999	n/a	n/a	n/a	n/a	19	[0, 0, 0]	-999	PAL1	1	R1162N
2111.689	4.876	2450318	TEST_PROBE	n/a	6	6	POND	n/a	ANT	POND	19	[0, 0, 0]	-999	PAL1	1	R1162N
2116.565	0.142	2455194	REC_EVENT	4876	6	6	POND	<>	ANT	POND	19	[0, 0, 0]	-999	PAL1	1	R1162N
2116.707	1.071	2455336	REC_END	n/a	6	-999	n/a	n/a	n/a	n/a	19	[0, 0, 0]	-999	PAL1	1	R1162N
2117.778	10.447	2456407	ENCODING_START	n/a	0	-999	n/a	n/a	n/a	n/a	20	[0, 0, 0]	-999	PAL1	1	R1162N
2128.225	1.0	2466854	STUDY_ORIENT	n/a	1	1	PIPE	CAR	PIPE	CAR	20	[0, 0, 0]	-999	PAL1	1	R1162N
2129.225	5.034	2467854	STUDY_PAIR	n/a	1	1	PIPE	CAR	PIPE	CAR	20	[0, 0, 0]	-999	PAL1	1	R1162N
2134.259	0.867	2472888	STUDY_ORIENT	n/a	2	4	DIME	TONE	DIME	CONE	20	[0, 0, 0]	-999	PAL1	1	R1162N
2135.126	5.034	2473755	STUDY_PAIR	n/a	2	4	DIME	TONE	DIME	CONE	20	[0, 0, 0]	-999	PAL1	1	R1162N
2140.16	0.833	2478789	STUDY_ORIENT	n/a	3	3	FOOT	n/a	PANTS	FOOT	20	[0, 0, 0]	-999	PAL1	1	R1162N
2140.993	5.018	2479622	STUDY_PAIR	n/a	3	3	FOOT	n/a	PANTS	FOOT	20	[0, 0, 0]	-999	PAL1	1	R1162N
2146.011	0.933	2484640	STUDY_ORIENT	n/a	4	2	BRUSH	n/a	CAKE	BRUSH	20	[0, 0, 0]	-999	PAL1	1	R1162N
2146.944	5.034	2485573	STUDY_PAIR	n/a	4	2	BRUSH	n/a	CAKE	BRUSH	20	[0, 0, 0]	-999	PAL1	1	R1162N
2151.978	0.85	2490606	STUDY_ORIENT	n/a	5	5	FORK	BRUSH	WAND	FORK	20	[0, 0, 0]	-999	PAL1	1	R1162N
2152.828	5.035	2491456	STUDY_PAIR	n/a	5	5	FORK	BRUSH	WAND	FORK	20	[0, 0, 0]	-999	PAL1	1	R1162N
2157.863	0.899	2496491	STUDY_ORIENT	n/a	6	6	BEAN	MOUTH	MOUTH	BEAN	20	[0, 0, 0]	-999	PAL1	1	R1162N
2158.762	4.001	2497390	STUDY_PAIR	n/a	6	6	BEAN	MOUTH	MOUTH	BEAN	20	[0, 0, 0]	-999	PAL1	1	R1162N
2162.763	1.0	2501391	START	n/a	-999	-999	n/a	n/a	n/a	n/a	20	[-999, -999, -999]	-999	PAL1	1	R1162N
2163.763	0.017	2502391	MATH_START	n/a	-999	-999	n/a	n/a	n/a	n/a	20	[0, 0, 0]	-999	PAL1	1	R1162N
2163.78	2.95	2502408	PROB	2924	-999	-999	n/a	n/a	n/a	n/a	20	[7, 2, 9]	18	PAL1	1	R1162N
2166.73	1.8	2505358	PROB	1774	-999	-999	n/a	n/a	n/a	n/a	20	[7, 1, 1]	9	PAL1	1	R1162N
2168.53	2.884	2507158	PROB	2854	-999	-999	n/a	n/a	n/a	n/a	20	[5, 7, 1]	13	PAL1	1	R1162N
2171.414	3.834	2510042	PROB	3810	-999	-999	n/a	n/a	n/a	n/a	20	[4, 9, 7]	19	PAL1	1	R1162N
2175.248	2.884	2513876	PROB	2864	-999	-999	n/a	n/a	n/a	n/a	20	[9, 9, 2]	20	PAL1	1	R1162N
2178.132	3.65	2516760	PROB	3628	-999	-999	n/a	n/a	n/a	n/a	20	[7, 6, 7]	19	PAL1	1	R1162N
2181.782	3.458	2520410	PROB	3458	-999	-999	n/a	n/a	n/a	n/a	20	[2, 9, 9]	20	PAL1	1	R1162N
2185.24	0.009	2523868	STOP	n/a	-999	-999	n/a	n/a	n/a	n/a	20	[-999, -999, -999]	-999	PAL1	1	R1162N
2185.249	0.0	2523877	TEST_START	n/a	-999	-999	n/a	n/a	n/a	n/a	20	[0, 0, 0]	-999	PAL1	1	R1162N
2185.249	0.017	2523877	MATH_END	n/a	-999	-999	n/a	n/a	n/a	n/a	20	[0, 0, 0]	-999	PAL1	1	R1162N
2185.266	0.9	2523894	TEST_ORIENT	n/a	1	1	PIPE	CAR	PIPE	CAR	20	[0, 0, 0]	-999	PAL1	1	R1162N
2186.166	0.0	2524794	TEST_PROBE	n/a	1	1	PIPE	CAR	PIPE	CAR	20	[0, 0, 0]	-999	PAL1	1	R1162N
2186.166	1.156	2524794	REC_START	n/a	1	-999	n/a	CAR	n/a	n/a	20	[0, 0, 0]	-999	PAL1	1	R1162N
2187.322	3.861	2525950	REC_EVENT	1156	1	1	PIPE	CAR	PIPE	CAR	20	[0, 0, 0]	-999	PAL1	1	R1162N
2191.183	0.017	2529811	REC_END	n/a	1	-999	n/a	n/a	n/a	n/a	20	[0, 0, 0]	-999	PAL1	1	R1162N
2191.2	0.917	2529828	TEST_ORIENT	n/a	4	2	BRUSH	n/a	CAKE	BRUSH	20	[0, 0, 0]	-999	PAL1	1	R1162N
2192.117	0.0	2530745	TEST_PROBE	n/a	4	2	BRUSH	n/a	CAKE	BRUSH	20	[0, 0, 0]	-999	PAL1	1	R1162N
2192.117	4.852	2530745	REC_START	n/a	4	-999	n/a	n/a	n/a	n/a	20	[0, 0, 0]	-999	PAL1	1	R1162N
2196.969	0.165	2535597	REC_EVENT	4852	4	2	BRUSH	<>	CAKE	BRUSH	20	[0, 0, 0]	-999	PAL1	1	R1162N
2197.134	0.017	2535762	REC_END	n/a	4	-999	n/a	n/a	n/a	n/a	20	[0, 0, 0]	-999	PAL1	1	R1162N
2197.151	0.983	2535779	TEST_ORIENT	n/a	3	3	FOOT	n/a	PANTS	FOOT	20	[0, 0, 0]	-999	PAL1	1	R1162N
2198.134	0.001	2536762	TEST_PROBE	n/a	3	3	FOOT	n/a	PANTS	FOOT	20	[0, 0, 0]	-999	PAL1	1	R1162N
2198.135	4.829	2536763	REC_START	n/a	3	-999	n/a	n/a	n/a	n/a	20	[0, 0, 0]	-999	PAL1	1	R1162N
2202.964	0.187	2541592	REC_EVENT	4829	3	3	FOOT	<>	PANTS	FOOT	20	[0, 0, 0]	-999	PAL1	1	R1162N
2203.151	0.017	2541779	REC_END	n/a	3	-999	n/a	n/a	n/a	n/a	20	[0, 0, 0]	-999	PAL1	1	R1162N
2203.168	1.034	2541796	TEST_ORIENT	n/a	2	4	DIME	TONE	DIME	CONE	20	[0, 0, 0]	-999	PAL1	1	R1162N
2204.202	0.0	2542830	REC_START	n/a	2	-999	n/a	TONE	n/a	n/a	20	[0, 0, 0]	-999	PAL1	1	R1162N
2204.202	1.433	2542830	TEST_PROBE	n/a	2	4	DIME	TONE	DIME	CONE	20	[0, 0, 0]	-999	PAL1	1	R1162N
2205.635	3.584	2544263	REC_EVENT	1433	2	4	DIME	TONE	DIME	CONE	20	[0, 0, 0]	-999	PAL1	1	R1162N
2209.219	0.017	2547846	REC_END	n/a	2	-999	n/a	n/a	n/a	n/a	20	[0, 0, 0]	-999	PAL1	1	R1162N
2209.236	0.883	2547863	TEST_ORIENT	n/a	5	5	FORK	BRUSH	WAND	FORK	20	[0, 0, 0]	-999	PAL1	1	R1162N
2210.119	0.001	2548746	TEST_PROBE	n/a	5	5	FORK	BRUSH	WAND	FORK	20	[0, 0, 0]	-999	PAL1	1	R1162N
2210.12	2.02	2548747	REC_START	n/a	5	-999	n/a	BRUSH	n/a	n/a	20	[0, 0, 0]	-999	PAL1	1	R1162N
2212.14	2.996	2550767	REC_EVENT	2020	5	5	FORK	BRUSH	WAND	FORK	20	[0, 0, 0]	-999	PAL1	1	R1162N
2215.136	0.017	2553763	REC_END	n/a	5	-999	n/a	n/a	n/a	n/a	20	[0, 0, 0]	-999	PAL1	1	R1162N
