onset	duration	sample	trial_type	response_time	stim_file	serialpos	probepos	probe_word	resp_word	study_1	study_2	list	test	answer	experiment	session	subject
0.0	84.943	1332569	SESS_START	n/a	n/a	-999	-999	n/a	n/a	n/a	n/a	-999	[0, 0, 0]	-999	PAL1	0	R1082N
84.943	1.016	1417509	START	n/a	n/a	-999	-999	n/a	n/a	n/a	n/a	-1	[-999, -999, -999]	-999	PAL1	0	R1082N
85.959	17.354	1418524	PROB	17324	n/a	-999	-999	n/a	n/a	n/a	n/a	-1	[8, 7, 8]	23	PAL1	0	R1082N
103.313	4.234	1435878	PROB	4234	n/a	-999	-999	n/a	n/a	n/a	n/a	-1	[6, 5, 8]	19	PAL1	0	R1082N
107.547	35.706	1440112	STOP	n/a	n/a	-999	-999	n/a	n/a	n/a	n/a	-1	[-999, -999, -999]	-999	PAL1	0	R1082N
143.253	14.502	1475816	FEEDBACK_SHOW_ALL_PAIRS	n/a	n/a	-999	-999	n/a	n/a	n/a	n/a	-999	[0, 0, 0]	-999	PAL1	0	R1082N
157.755	10.452	1490318	ENCODING_START	n/a	n/a	0	-999	n/a	n/a	n/a	n/a	1	[0, 0, 0]	-999	PAL1	0	R1082N
168.207	1.017	1500770	STUDY_ORIENT	n/a	n/a	1	3	TARRO	BARRO	RUBOR	TARRO	1	[0, 0, 0]	-999	PAL1	0	R1082N
169.224	5.034	1501787	STUDY_PAIR	n/a	wordpools/wordpool_SP.txt	1	3	TARRO	BARRO	RUBOR	TARRO	1	[0, 0, 0]	-999	PAL1	0	R1082N
174.258	0.834	1506820	STUDY_ORIENT	n/a	n/a	2	2	CORDEL	OVEJA	CORDEL	OVEJA	1	[0, 0, 0]	-999	PAL1	0	R1082N
175.092	5.034	1507654	STUDY_PAIR	n/a	wordpools/wordpool_SP.txt	2	2	CORDEL	OVEJA	CORDEL	OVEJA	1	[0, 0, 0]	-999	PAL1	0	R1082N
180.126	0.816	1512688	STUDY_ORIENT	n/a	n/a	3	5	TAMBOR	TAMBOR	TAMBOR	CARA	1	[0, 0, 0]	-999	PAL1	0	R1082N
180.942	5.034	1513504	STUDY_PAIR	n/a	wordpools/wordpool_SP.txt	3	5	TAMBOR	TAMBOR	TAMBOR	CARA	1	[0, 0, 0]	-999	PAL1	0	R1082N
185.976	0.933	1518538	STUDY_ORIENT	n/a	n/a	4	4	PASTEL	n/a	LLUVIA	PASTEL	1	[0, 0, 0]	-999	PAL1	0	R1082N
186.909	5.034	1519471	STUDY_PAIR	n/a	wordpools/wordpool_SP.txt	4	4	PASTEL	n/a	LLUVIA	PASTEL	1	[0, 0, 0]	-999	PAL1	0	R1082N
191.943	0.984	1524505	STUDY_ORIENT	n/a	n/a	5	1	GRANJA	OVEJA	PELAJE	GRANJA	1	[0, 0, 0]	-999	PAL1	0	R1082N
192.927	5.034	1525489	STUDY_PAIR	n/a	wordpools/wordpool_SP.txt	5	1	GRANJA	OVEJA	PELAJE	GRANJA	1	[0, 0, 0]	-999	PAL1	0	R1082N
197.961	0.984	1530522	STUDY_ORIENT	n/a	n/a	6	6	ZOOLOGICO	PANTANO	PANTANO	ZOOLOGICO	1	[0, 0, 0]	-999	PAL1	0	R1082N
198.945	4.018	1531506	STUDY_PAIR	n/a	wordpools/wordpool_SP.txt	6	6	ZOOLOGICO	PANTANO	PANTANO	ZOOLOGICO	1	[0, 0, 0]	-999	PAL1	0	R1082N
202.963	0.999	1535524	START	n/a	n/a	-999	-999	n/a	n/a	n/a	n/a	1	[-999, -999, -999]	-999	PAL1	0	R1082N
203.962	0.017	1536523	MATH_START	n/a	n/a	-999	-999	n/a	n/a	n/a	n/a	1	[0, 0, 0]	-999	PAL1	0	R1082N
203.979	5.452	1536540	PROB	5432	n/a	-999	-999	n/a	n/a	n/a	n/a	1	[2, 9, 3]	14	PAL1	0	R1082N
209.431	3.834	1541992	PROB	3812	n/a	-999	-999	n/a	n/a	n/a	n/a	1	[6, 5, 8]	19	PAL1	0	R1082N
213.265	2.917	1545826	PROB	2890	n/a	-999	-999	n/a	n/a	n/a	n/a	1	[1, 4, 9]	14	PAL1	0	R1082N
216.182	5.034	1548743	PROB	5005	n/a	-999	-999	n/a	n/a	n/a	n/a	1	[1, 6, 6]	13	PAL1	0	R1082N
221.216	5.602	1553777	PROB	5602	n/a	-999	-999	n/a	n/a	n/a	n/a	1	[5, 6, 8]	19	PAL1	0	R1082N
226.818	0.015	1559378	STOP	n/a	n/a	-999	-999	n/a	n/a	n/a	n/a	1	[-999, -999, -999]	-999	PAL1	0	R1082N
226.833	0.0	1559393	TEST_START	n/a	n/a	-999	-999	n/a	n/a	n/a	n/a	1	[0, 0, 0]	-999	PAL1	0	R1082N
226.833	0.017	1559393	MATH_END	n/a	n/a	-999	-999	n/a	n/a	n/a	n/a	1	[0, 0, 0]	-999	PAL1	0	R1082N
226.85	1.0	1559410	TEST_ORIENT	n/a	n/a	5	1	GRANJA	OVEJA	PELAJE	GRANJA	1	[0, 0, 0]	-999	PAL1	0	R1082N
227.85	0.0	1560410	TEST_PROBE	n/a	wordpools/wordpool_SP.txt	5	1	GRANJA	OVEJA	PELAJE	GRANJA	1	[0, 0, 0]	-999	PAL1	0	R1082N
227.85	3.679	1560410	REC_START	n/a	n/a	5	-999	n/a	OVEJA	n/a	n/a	1	[0, 0, 0]	-999	PAL1	0	R1082N
231.529	0.387	1564089	REC_EVENT	3679	n/a	5	1	GRANJA	<>	PELAJE	GRANJA	1	[0, 0, 0]	-999	PAL1	0	R1082N
231.916	0.951	1564476	REC_EVENT	4066	n/a	5	1	GRANJA	OVEJA	PELAJE	GRANJA	1	[0, 0, 0]	-999	PAL1	0	R1082N
232.867	0.017	1565427	REC_END	n/a	n/a	5	-999	n/a	n/a	n/a	n/a	1	[0, 0, 0]	-999	PAL1	0	R1082N
232.884	0.883	1565444	TEST_ORIENT	n/a	n/a	2	2	CORDEL	OVEJA	CORDEL	OVEJA	1	[0, 0, 0]	-999	PAL1	0	R1082N
233.767	0.001	1566327	TEST_PROBE	n/a	wordpools/wordpool_SP.txt	2	2	CORDEL	OVEJA	CORDEL	OVEJA	1	[0, 0, 0]	-999	PAL1	0	R1082N
233.768	1.55	1566328	REC_START	n/a	n/a	2	-999	n/a	OVEJA	n/a	n/a	1	[0, 0, 0]	-999	PAL1	0	R1082N
235.318	0.285	1567878	REC_EVENT	1550	n/a	2	2	CORDEL	CORDEL	CORDEL	OVEJA	1	[0, 0, 0]	-999	PAL1	0	R1082N
235.603	3.173	1568163	REC_EVENT	1835	n/a	2	2	CORDEL	OVEJA	CORDEL	OVEJA	1	[0, 0, 0]	-999	PAL1	0	R1082N
238.776	0.009	1571336	REC_END	n/a	n/a	2	-999	n/a	n/a	n/a	n/a	1	[0, 0, 0]	-999	PAL1	0	R1082N
238.785	0.818	1571345	TEST_ORIENT	n/a	n/a	1	3	TARRO	BARRO	RUBOR	TARRO	1	[0, 0, 0]	-999	PAL1	0	R1082N
239.603	0.0	1572163	TEST_PROBE	n/a	wordpools/wordpool_SP.txt	1	3	TARRO	BARRO	RUBOR	TARRO	1	[0, 0, 0]	-999	PAL1	0	R1082N
239.603	2.257	1572163	REC_START	n/a	n/a	1	-999	n/a	BARRO	n/a	n/a	1	[0, 0, 0]	-999	PAL1	0	R1082N
241.86	0.375	1574420	REC_EVENT	2257	n/a	1	3	TARRO	TARRO	RUBOR	TARRO	1	[0, 0, 0]	-999	PAL1	0	R1082N
242.235	0.343	1574795	REC_EVENT	2632	n/a	1	3	TARRO	BARRO	RUBOR	TARRO	1	[0, 0, 0]	-999	PAL1	0	R1082N
242.578	2.042	1575138	REC_EVENT	2975	n/a	1	3	TARRO	<>	RUBOR	TARRO	1	[0, 0, 0]	-999	PAL1	0	R1082N
244.62	0.017	1577180	REC_END	n/a	n/a	1	-999	n/a	n/a	n/a	n/a	1	[0, 0, 0]	-999	PAL1	0	R1082N
244.637	0.95	1577197	TEST_ORIENT	n/a	n/a	4	4	PASTEL	n/a	LLUVIA	PASTEL	1	[0, 0, 0]	-999	PAL1	0	R1082N
245.587	0.0	1578147	TEST_PROBE	n/a	wordpools/wordpool_SP.txt	4	4	PASTEL	n/a	LLUVIA	PASTEL	1	[0, 0, 0]	-999	PAL1	0	R1082N
245.587	5.015	1578147	REC_START	n/a	n/a	4	-999	n/a	n/a	n/a	n/a	1	[0, 0, 0]	-999	PAL1	0	R1082N
250.602	0.002	1583162	REC_EVENT	5015	n/a	4	4	PASTEL	<>	LLUVIA	PASTEL	1	[0, 0, 0]	-999	PAL1	0	R1082N
250.604	0.017	1583164	REC_END	n/a	n/a	4	-999	n/a	n/a	n/a	n/a	1	[0, 0, 0]	-999	PAL1	0	R1082N
250.621	0.8	1583181	TEST_ORIENT	n/a	n/a	3	5	TAMBOR	TAMBOR	TAMBOR	CARA	1	[0, 0, 0]	-999	PAL1	0	R1082N
251.421	0.0	1583981	TEST_PROBE	n/a	wordpools/wordpool_SP.txt	3	5	TAMBOR	TAMBOR	TAMBOR	CARA	1	[0, 0, 0]	-999	PAL1	0	R1082N
251.421	2.092	1583981	REC_START	n/a	n/a	3	-999	n/a	TAMBOR	n/a	n/a	1	[0, 0, 0]	-999	PAL1	0	R1082N
253.513	1.141	1586072	REC_EVENT	2092	n/a	3	5	TAMBOR	TAMBOR	TAMBOR	CARA	1	[0, 0, 0]	-999	PAL1	0	R1082N
254.654	1.784	1587213	REC_EVENT	3233	n/a	3	5	TAMBOR	<>	TAMBOR	CARA	1	[0, 0, 0]	-999	PAL1	0	R1082N
256.438	0.017	1588997	REC_END	n/a	n/a	3	-999	n/a	n/a	n/a	n/a	1	[0, 0, 0]	-999	PAL1	0	R1082N
256.455	1.0	1589014	TEST_ORIENT	n/a	n/a	6	6	ZOOLOGICO	PANTANO	PANTANO	ZOOLOGICO	1	[0, 0, 0]	-999	PAL1	0	R1082N
257.455	0.001	1590014	TEST_PROBE	n/a	wordpools/wordpool_SP.txt	6	6	ZOOLOGICO	PANTANO	PANTANO	ZOOLOGICO	1	[0, 0, 0]	-999	PAL1	0	R1082N
257.456	0.896	1590015	REC_START	n/a	n/a	6	-999	n/a	PANTANO	n/a	n/a	1	[0, 0, 0]	-999	PAL1	0	R1082N
258.352	0.575	1590911	REC_EVENT	896	n/a	6	6	ZOOLOGICO	ZOOLOGICO	PANTANO	ZOOLOGICO	1	[0, 0, 0]	-999	PAL1	0	R1082N
258.927	3.537	1591486	REC_EVENT	1471	n/a	6	6	ZOOLOGICO	PANTANO	PANTANO	ZOOLOGICO	1	[0, 0, 0]	-999	PAL1	0	R1082N
262.464	0.026	1595023	REC_END	n/a	n/a	6	-999	n/a	n/a	n/a	n/a	1	[0, 0, 0]	-999	PAL1	0	R1082N
262.49	15.153	1595049	FEEDBACK_SHOW_ALL_PAIRS	n/a	n/a	6	-999	n/a	n/a	n/a	n/a	1	[0, 0, 0]	-999	PAL1	0	R1082N
277.643	10.451	1610202	ENCODING_START	n/a	n/a	0	-999	n/a	n/a	n/a	n/a	2	[0, 0, 0]	-999	PAL1	0	R1082N
288.094	0.866	1620652	STUDY_ORIENT	n/a	n/a	1	1	SOL	n/a	SOL	TRAPO	2	[0, 0, 0]	-999	PAL1	0	R1082N
288.96	5.034	1621518	STUDY_PAIR	n/a	wordpools/wordpool_SP.txt	1	1	SOL	n/a	SOL	TRAPO	2	[0, 0, 0]	-999	PAL1	0	R1082N
293.994	0.8	1626552	STUDY_ORIENT	n/a	n/a	2	2	PALMA	n/a	TELEFONO	PALMA	2	[0, 0, 0]	-999	PAL1	0	R1082N
294.794	5.018	1627352	STUDY_PAIR	n/a	wordpools/wordpool_SP.txt	2	2	PALMA	n/a	TELEFONO	PALMA	2	[0, 0, 0]	-999	PAL1	0	R1082N
299.812	0.901	1632370	STUDY_ORIENT	n/a	n/a	3	5	NARIZ	n/a	FLORECER	NARIZ	2	[0, 0, 0]	-999	PAL1	0	R1082N
300.713	5.034	1633271	STUDY_PAIR	n/a	wordpools/wordpool_SP.txt	3	5	NARIZ	n/a	FLORECER	NARIZ	2	[0, 0, 0]	-999	PAL1	0	R1082N
305.747	0.933	1638305	STUDY_ORIENT	n/a	n/a	4	6	HUMO	n/a	JUEZ	HUMO	2	[0, 0, 0]	-999	PAL1	0	R1082N
306.68	5.018	1639238	STUDY_PAIR	n/a	wordpools/wordpool_SP.txt	4	6	HUMO	n/a	JUEZ	HUMO	2	[0, 0, 0]	-999	PAL1	0	R1082N
311.698	0.8	1644255	STUDY_ORIENT	n/a	n/a	5	3	COPA	n/a	BANCO	COPA	2	[0, 0, 0]	-999	PAL1	0	R1082N
312.498	5.018	1645055	STUDY_PAIR	n/a	wordpools/wordpool_SP.txt	5	3	COPA	n/a	BANCO	COPA	2	[0, 0, 0]	-999	PAL1	0	R1082N
317.516	1.0	1650073	STUDY_ORIENT	n/a	n/a	6	4	PARED	n/a	PARED	TREN	2	[0, 0, 0]	-999	PAL1	0	R1082N
318.516	4.018	1651073	STUDY_PAIR	n/a	wordpools/wordpool_SP.txt	6	4	PARED	n/a	PARED	TREN	2	[0, 0, 0]	-999	PAL1	0	R1082N
322.534	0.999	1655091	START	n/a	n/a	-999	-999	n/a	n/a	n/a	n/a	2	[-999, -999, -999]	-999	PAL1	0	R1082N
323.533	0.017	1656090	MATH_START	n/a	n/a	-999	-999	n/a	n/a	n/a	n/a	2	[0, 0, 0]	-999	PAL1	0	R1082N
323.55	12.952	1656107	PROB	12917	n/a	-999	-999	n/a	n/a	n/a	n/a	2	[9, 3, 9]	21	PAL1	0	R1082N
336.502	4.051	1669059	PROB	4029	n/a	-999	-999	n/a	n/a	n/a	n/a	2	[8, 9, 4]	21	PAL1	0	R1082N
340.553	5.385	1673109	PROB	5385	n/a	-999	-999	n/a	n/a	n/a	n/a	2	[5, 3, 2]	10	PAL1	0	R1082N
345.938	0.015	1678494	STOP	n/a	n/a	-999	-999	n/a	n/a	n/a	n/a	2	[-999, -999, -999]	-999	PAL1	0	R1082N
345.953	0.0	1678509	MATH_END	n/a	n/a	-999	-999	n/a	n/a	n/a	n/a	2	[0, 0, 0]	-999	PAL1	0	R1082N
345.953	0.017	1678509	TEST_START	n/a	n/a	-999	-999	n/a	n/a	n/a	n/a	2	[0, 0, 0]	-999	PAL1	0	R1082N
345.97	0.883	1678526	TEST_ORIENT	n/a	n/a	1	1	SOL	n/a	SOL	TRAPO	2	[0, 0, 0]	-999	PAL1	0	R1082N
346.853	0.001	1679409	TEST_PROBE	n/a	wordpools/wordpool_SP.txt	1	1	SOL	n/a	SOL	TRAPO	2	[0, 0, 0]	-999	PAL1	0	R1082N
346.854	5.015	1679410	REC_START	n/a	n/a	1	-999	n/a	n/a	n/a	n/a	2	[0, 0, 0]	-999	PAL1	0	R1082N
351.869	0.001	1684425	REC_EVENT	5015	n/a	1	1	SOL	<>	SOL	TRAPO	2	[0, 0, 0]	-999	PAL1	0	R1082N
351.87	0.017	1684426	REC_END	n/a	n/a	1	-999	n/a	n/a	n/a	n/a	2	[0, 0, 0]	-999	PAL1	0	R1082N
351.887	0.818	1684443	TEST_ORIENT	n/a	n/a	2	2	PALMA	n/a	TELEFONO	PALMA	2	[0, 0, 0]	-999	PAL1	0	R1082N
352.705	0.0	1685261	TEST_PROBE	n/a	wordpools/wordpool_SP.txt	2	2	PALMA	n/a	TELEFONO	PALMA	2	[0, 0, 0]	-999	PAL1	0	R1082N
352.705	5.015	1685261	REC_START	n/a	n/a	2	-999	n/a	n/a	n/a	n/a	2	[0, 0, 0]	-999	PAL1	0	R1082N
357.72	0.002	1690276	REC_EVENT	5015	n/a	2	2	PALMA	<>	TELEFONO	PALMA	2	[0, 0, 0]	-999	PAL1	0	R1082N
357.722	0.017	1690278	REC_END	n/a	n/a	2	-999	n/a	n/a	n/a	n/a	2	[0, 0, 0]	-999	PAL1	0	R1082N
357.739	0.867	1690295	TEST_ORIENT	n/a	n/a	5	3	COPA	n/a	BANCO	COPA	2	[0, 0, 0]	-999	PAL1	0	R1082N
358.606	0.0	1691162	REC_START	n/a	n/a	5	-999	n/a	n/a	n/a	n/a	2	[0, 0, 0]	-999	PAL1	0	R1082N
358.606	5.015	1691162	TEST_PROBE	n/a	wordpools/wordpool_SP.txt	5	3	COPA	n/a	BANCO	COPA	2	[0, 0, 0]	-999	PAL1	0	R1082N
363.621	0.002	1696177	REC_EVENT	5015	n/a	5	3	COPA	<>	BANCO	COPA	2	[0, 0, 0]	-999	PAL1	0	R1082N
363.623	0.017	1696179	REC_END	n/a	n/a	5	-999	n/a	n/a	n/a	n/a	2	[0, 0, 0]	-999	PAL1	0	R1082N
363.64	0.817	1696196	TEST_ORIENT	n/a	n/a	6	4	PARED	n/a	PARED	TREN	2	[0, 0, 0]	-999	PAL1	0	R1082N
364.457	0.0	1697012	TEST_PROBE	n/a	wordpools/wordpool_SP.txt	6	4	PARED	n/a	PARED	TREN	2	[0, 0, 0]	-999	PAL1	0	R1082N
364.457	5.015	1697012	REC_START	n/a	n/a	6	-999	n/a	n/a	n/a	n/a	2	[0, 0, 0]	-999	PAL1	0	R1082N
369.472	0.002	1702027	REC_EVENT	5015	n/a	6	4	PARED	<>	PARED	TREN	2	[0, 0, 0]	-999	PAL1	0	R1082N
369.474	0.017	1702029	REC_END	n/a	n/a	6	-999	n/a	n/a	n/a	n/a	2	[0, 0, 0]	-999	PAL1	0	R1082N
369.491	0.884	1702046	TEST_ORIENT	n/a	n/a	3	5	NARIZ	n/a	FLORECER	NARIZ	2	[0, 0, 0]	-999	PAL1	0	R1082N
370.375	0.001	1702930	TEST_PROBE	n/a	wordpools/wordpool_SP.txt	3	5	NARIZ	n/a	FLORECER	NARIZ	2	[0, 0, 0]	-999	PAL1	0	R1082N
370.376	5.021	1702931	REC_START	n/a	n/a	3	-999	n/a	n/a	n/a	n/a	2	[0, 0, 0]	-999	PAL1	0	R1082N
375.397	0.003	1707952	REC_EVENT	5021	n/a	3	5	NARIZ	<>	FLORECER	NARIZ	2	[0, 0, 0]	-999	PAL1	0	R1082N
375.4	0.009	1707955	REC_END	n/a	n/a	3	-999	n/a	n/a	n/a	n/a	2	[0, 0, 0]	-999	PAL1	0	R1082N
375.409	0.85	1707964	TEST_ORIENT	n/a	n/a	4	6	HUMO	n/a	JUEZ	HUMO	2	[0, 0, 0]	-999	PAL1	0	R1082N
376.259	0.0	1708814	TEST_PROBE	n/a	wordpools/wordpool_SP.txt	4	6	HUMO	n/a	JUEZ	HUMO	2	[0, 0, 0]	-999	PAL1	0	R1082N
376.259	5.015	1708814	REC_START	n/a	n/a	4	-999	n/a	n/a	n/a	n/a	2	[0, 0, 0]	-999	PAL1	0	R1082N
381.274	0.002	1713829	REC_EVENT	5015	n/a	4	6	HUMO	<>	JUEZ	HUMO	2	[0, 0, 0]	-999	PAL1	0	R1082N
381.276	0.034	1713831	REC_END	n/a	n/a	4	-999	n/a	n/a	n/a	n/a	2	[0, 0, 0]	-999	PAL1	0	R1082N
381.31	10.5	1713865	FEEDBACK_SHOW_ALL_PAIRS	n/a	n/a	4	-999	n/a	n/a	n/a	n/a	2	[0, 0, 0]	-999	PAL1	0	R1082N
391.81	10.453	1724365	ENCODING_START	n/a	n/a	0	-999	n/a	n/a	n/a	n/a	3	[0, 0, 0]	-999	PAL1	0	R1082N
402.263	0.901	1734817	STUDY_ORIENT	n/a	n/a	1	3	HABITACION	n/a	ALFILER	HABITACION	3	[0, 0, 0]	-999	PAL1	0	R1082N
403.164	5.034	1735718	STUDY_PAIR	n/a	wordpools/wordpool_SP.txt	1	3	HABITACION	n/a	ALFILER	HABITACION	3	[0, 0, 0]	-999	PAL1	0	R1082N
408.198	0.866	1740752	STUDY_ORIENT	n/a	n/a	2	6	JUGUETE	n/a	BOLA	JUGUETE	3	[0, 0, 0]	-999	PAL1	0	R1082N
409.064	5.018	1741618	STUDY_PAIR	n/a	wordpools/wordpool_SP.txt	2	6	JUGUETE	n/a	BOLA	JUGUETE	3	[0, 0, 0]	-999	PAL1	0	R1082N
414.082	0.866	1746636	STUDY_ORIENT	n/a	n/a	3	5	VESTIDO	n/a	VESTIDO	TE	3	[0, 0, 0]	-999	PAL1	0	R1082N
414.948	5.034	1747502	STUDY_PAIR	n/a	wordpools/wordpool_SP.txt	3	5	VESTIDO	n/a	VESTIDO	TE	3	[0, 0, 0]	-999	PAL1	0	R1082N
419.982	1.017	1752536	STUDY_ORIENT	n/a	n/a	4	2	NIEBLA	n/a	POZO	NIEBLA	3	[0, 0, 0]	-999	PAL1	0	R1082N
420.999	5.034	1753552	STUDY_PAIR	n/a	wordpools/wordpool_SP.txt	4	2	NIEBLA	n/a	POZO	NIEBLA	3	[0, 0, 0]	-999	PAL1	0	R1082N
426.033	0.85	1758586	STUDY_ORIENT	n/a	n/a	5	1	BRAZO	n/a	BALLENA	BRAZO	3	[0, 0, 0]	-999	PAL1	0	R1082N
426.883	5.018	1759436	STUDY_PAIR	n/a	wordpools/wordpool_SP.txt	5	1	BRAZO	n/a	BALLENA	BRAZO	3	[0, 0, 0]	-999	PAL1	0	R1082N
431.901	0.967	1764454	STUDY_ORIENT	n/a	n/a	6	4	ZORRO	PIEDRA	FILETE	ZORRO	3	[0, 0, 0]	-999	PAL1	0	R1082N
432.868	4.017	1765421	STUDY_PAIR	n/a	wordpools/wordpool_SP.txt	6	4	ZORRO	PIEDRA	FILETE	ZORRO	3	[0, 0, 0]	-999	PAL1	0	R1082N
436.885	1.0	1769438	START	n/a	n/a	-999	-999	n/a	n/a	n/a	n/a	3	[-999, -999, -999]	-999	PAL1	0	R1082N
437.885	0.017	1770438	MATH_START	n/a	n/a	-999	-999	n/a	n/a	n/a	n/a	3	[0, 0, 0]	-999	PAL1	0	R1082N
437.902	8.202	1770455	PROB	8173	n/a	-999	-999	n/a	n/a	n/a	n/a	3	[4, 1, 4]	9	PAL1	0	R1082N
446.104	3.017	1778657	PROB	2987	n/a	-999	-999	n/a	n/a	n/a	n/a	3	[2, 2, 5]	9	PAL1	0	R1082N
449.121	3.968	1781673	PROB	3946	n/a	-999	-999	n/a	n/a	n/a	n/a	3	[3, 4, 6]	13	PAL1	0	R1082N
453.089	4.793	1785641	PROB	4793	n/a	-999	-999	n/a	n/a	n/a	n/a	3	[1, 5, 7]	13	PAL1	0	R1082N
457.882	0.006	1790434	STOP	n/a	n/a	-999	-999	n/a	n/a	n/a	n/a	3	[-999, -999, -999]	-999	PAL1	0	R1082N
457.888	0.0	1790440	MATH_END	n/a	n/a	-999	-999	n/a	n/a	n/a	n/a	3	[0, 0, 0]	-999	PAL1	0	R1082N
457.888	0.017	1790440	TEST_START	n/a	n/a	-999	-999	n/a	n/a	n/a	n/a	3	[0, 0, 0]	-999	PAL1	0	R1082N
457.905	0.867	1790457	TEST_ORIENT	n/a	n/a	5	1	BRAZO	n/a	BALLENA	BRAZO	3	[0, 0, 0]	-999	PAL1	0	R1082N
458.772	0.0	1791324	REC_START	n/a	n/a	5	-999	n/a	n/a	n/a	n/a	3	[0, 0, 0]	-999	PAL1	0	R1082N
458.772	5.015	1791324	TEST_PROBE	n/a	wordpools/wordpool_SP.txt	5	1	BRAZO	n/a	BALLENA	BRAZO	3	[0, 0, 0]	-999	PAL1	0	R1082N
463.787	0.002	1796339	REC_EVENT	5015	n/a	5	1	BRAZO	<>	BALLENA	BRAZO	3	[0, 0, 0]	-999	PAL1	0	R1082N
463.789	0.017	1796341	REC_END	n/a	n/a	5	-999	n/a	n/a	n/a	n/a	3	[0, 0, 0]	-999	PAL1	0	R1082N
463.806	0.935	1796358	TEST_ORIENT	n/a	n/a	4	2	NIEBLA	n/a	POZO	NIEBLA	3	[0, 0, 0]	-999	PAL1	0	R1082N
464.741	0.0	1797293	TEST_PROBE	n/a	wordpools/wordpool_SP.txt	4	2	NIEBLA	n/a	POZO	NIEBLA	3	[0, 0, 0]	-999	PAL1	0	R1082N
464.741	5.016	1797293	REC_START	n/a	n/a	4	-999	n/a	n/a	n/a	n/a	3	[0, 0, 0]	-999	PAL1	0	R1082N
469.757	0.005	1802309	REC_END	n/a	n/a	4	-999	n/a	n/a	n/a	n/a	3	[0, 0, 0]	-999	PAL1	0	R1082N
469.762	0.012	1802314	REC_EVENT	5021	n/a	4	2	NIEBLA	<>	POZO	NIEBLA	3	[0, 0, 0]	-999	PAL1	0	R1082N
469.774	1.017	1802326	TEST_ORIENT	n/a	n/a	1	3	HABITACION	n/a	ALFILER	HABITACION	3	[0, 0, 0]	-999	PAL1	0	R1082N
470.791	0.0	1803343	REC_START	n/a	n/a	1	-999	n/a	n/a	n/a	n/a	3	[0, 0, 0]	-999	PAL1	0	R1082N
470.791	5.015	1803343	TEST_PROBE	n/a	wordpools/wordpool_SP.txt	1	3	HABITACION	n/a	ALFILER	HABITACION	3	[0, 0, 0]	-999	PAL1	0	R1082N
475.806	0.002	1808358	REC_EVENT	5015	n/a	1	3	HABITACION	<>	ALFILER	HABITACION	3	[0, 0, 0]	-999	PAL1	0	R1082N
475.808	0.017	1808360	REC_END	n/a	n/a	1	-999	n/a	n/a	n/a	n/a	3	[0, 0, 0]	-999	PAL1	0	R1082N
475.825	0.834	1808377	TEST_ORIENT	n/a	n/a	6	4	ZORRO	PIEDRA	FILETE	ZORRO	3	[0, 0, 0]	-999	PAL1	0	R1082N
476.659	0.001	1809210	TEST_PROBE	n/a	wordpools/wordpool_SP.txt	6	4	ZORRO	PIEDRA	FILETE	ZORRO	3	[0, 0, 0]	-999	PAL1	0	R1082N
476.66	1.503	1809211	REC_START	n/a	n/a	6	-999	n/a	PIEDRA	n/a	n/a	3	[0, 0, 0]	-999	PAL1	0	R1082N
478.163	1.4	1810714	REC_EVENT	1503	n/a	6	4	ZORRO	PIE	FILETE	ZORRO	3	[0, 0, 0]	-999	PAL1	0	R1082N
479.563	0.718	1812114	REC_EVENT	2903	n/a	6	4	ZORRO	CIGARRO	FILETE	ZORRO	3	[0, 0, 0]	-999	PAL1	0	R1082N
480.281	1.387	1812832	REC_EVENT	3621	n/a	6	4	ZORRO	PIEDRA	FILETE	ZORRO	3	[0, 0, 0]	-999	PAL1	0	R1082N
481.668	0.009	1814219	REC_END	n/a	n/a	6	-999	n/a	n/a	n/a	n/a	3	[0, 0, 0]	-999	PAL1	0	R1082N
481.677	0.817	1814228	TEST_ORIENT	n/a	n/a	3	5	VESTIDO	n/a	VESTIDO	TE	3	[0, 0, 0]	-999	PAL1	0	R1082N
482.494	0.0	1815045	TEST_PROBE	n/a	wordpools/wordpool_SP.txt	3	5	VESTIDO	n/a	VESTIDO	TE	3	[0, 0, 0]	-999	PAL1	0	R1082N
482.494	5.015	1815045	REC_START	n/a	n/a	3	-999	n/a	n/a	n/a	n/a	3	[0, 0, 0]	-999	PAL1	0	R1082N
487.509	0.002	1820060	REC_EVENT	5015	n/a	3	5	VESTIDO	<>	VESTIDO	TE	3	[0, 0, 0]	-999	PAL1	0	R1082N
487.511	0.017	1820062	REC_END	n/a	n/a	3	-999	n/a	n/a	n/a	n/a	3	[0, 0, 0]	-999	PAL1	0	R1082N
487.528	0.917	1820079	TEST_ORIENT	n/a	n/a	2	6	JUGUETE	n/a	BOLA	JUGUETE	3	[0, 0, 0]	-999	PAL1	0	R1082N
488.445	0.0	1820996	REC_START	n/a	n/a	2	-999	n/a	n/a	n/a	n/a	3	[0, 0, 0]	-999	PAL1	0	R1082N
488.445	5.015	1820996	TEST_PROBE	n/a	wordpools/wordpool_SP.txt	2	6	JUGUETE	n/a	BOLA	JUGUETE	3	[0, 0, 0]	-999	PAL1	0	R1082N
493.46	0.002	1826011	REC_EVENT	5015	n/a	2	6	JUGUETE	<>	BOLA	JUGUETE	3	[0, 0, 0]	-999	PAL1	0	R1082N
493.462	0.033	1826013	REC_END	n/a	n/a	2	-999	n/a	n/a	n/a	n/a	3	[0, 0, 0]	-999	PAL1	0	R1082N
493.495	9.74	1826046	FEEDBACK_SHOW_ALL_PAIRS	n/a	n/a	2	-999	n/a	n/a	n/a	n/a	3	[0, 0, 0]	-999	PAL1	0	R1082N
503.235	10.447	1835786	ENCODING_START	n/a	n/a	0	-999	n/a	n/a	n/a	n/a	4	[0, 0, 0]	-999	PAL1	0	R1082N
513.682	0.85	1846232	STUDY_ORIENT	n/a	n/a	1	1	SOPA	n/a	SOPA	BOTE	4	[0, 0, 0]	-999	PAL1	0	R1082N
514.532	5.018	1847082	STUDY_PAIR	n/a	wordpools/wordpool_SP.txt	1	1	SOPA	n/a	SOPA	BOTE	4	[0, 0, 0]	-999	PAL1	0	R1082N
519.55	0.85	1852100	STUDY_ORIENT	n/a	n/a	2	4	CEPILLO	n/a	CEPILLO	ARROZ	4	[0, 0, 0]	-999	PAL1	0	R1082N
520.4	5.034	1852950	STUDY_PAIR	n/a	wordpools/wordpool_SP.txt	2	4	CEPILLO	n/a	CEPILLO	ARROZ	4	[0, 0, 0]	-999	PAL1	0	R1082N
525.434	1.0	1857984	STUDY_ORIENT	n/a	n/a	3	5	TOSTADA	n/a	PAYASO	TOSTADA	4	[0, 0, 0]	-999	PAL1	0	R1082N
526.434	5.018	1858984	STUDY_PAIR	n/a	wordpools/wordpool_SP.txt	3	5	TOSTADA	n/a	PAYASO	TOSTADA	4	[0, 0, 0]	-999	PAL1	0	R1082N
531.452	0.817	1864002	STUDY_ORIENT	n/a	n/a	4	6	LLAMA	LAB	ORO	LLAMA	4	[0, 0, 0]	-999	PAL1	0	R1082N
532.269	5.034	1864818	STUDY_PAIR	n/a	wordpools/wordpool_SP.txt	4	6	LLAMA	LAB	ORO	LLAMA	4	[0, 0, 0]	-999	PAL1	0	R1082N
537.303	0.983	1869852	STUDY_ORIENT	n/a	n/a	5	3	CUADRADO	n/a	ELFO	CUADRADO	4	[0, 0, 0]	-999	PAL1	0	R1082N
538.286	5.018	1870835	STUDY_PAIR	n/a	wordpools/wordpool_SP.txt	5	3	CUADRADO	n/a	ELFO	CUADRADO	4	[0, 0, 0]	-999	PAL1	0	R1082N
543.304	0.9	1875853	STUDY_ORIENT	n/a	n/a	6	2	BASURA	CARRO	BASURA	AUTO	4	[0, 0, 0]	-999	PAL1	0	R1082N
544.204	4.018	1876753	STUDY_PAIR	n/a	wordpools/wordpool_SP.txt	6	2	BASURA	CARRO	BASURA	AUTO	4	[0, 0, 0]	-999	PAL1	0	R1082N
548.222	0.999	1880771	START	n/a	n/a	-999	-999	n/a	n/a	n/a	n/a	4	[-999, -999, -999]	-999	PAL1	0	R1082N
549.221	0.017	1881770	MATH_START	n/a	n/a	-999	-999	n/a	n/a	n/a	n/a	4	[0, 0, 0]	-999	PAL1	0	R1082N
549.238	7.634	1881787	PROB	7612	n/a	-999	-999	n/a	n/a	n/a	n/a	4	[9, 2, 3]	14	PAL1	0	R1082N
556.872	6.951	1889421	PROB	6930	n/a	-999	-999	n/a	n/a	n/a	n/a	4	[6, 7, 7]	20	PAL1	0	R1082N
563.823	5.764	1896371	PROB	5764	n/a	-999	-999	n/a	n/a	n/a	n/a	4	[5, 4, 5]	14	PAL1	0	R1082N
569.587	0.005	1902135	STOP	n/a	n/a	-999	-999	n/a	n/a	n/a	n/a	4	[-999, -999, -999]	-999	PAL1	0	R1082N
569.592	0.0	1902140	MATH_END	n/a	n/a	-999	-999	n/a	n/a	n/a	n/a	4	[0, 0, 0]	-999	PAL1	0	R1082N
569.592	0.016	1902140	TEST_START	n/a	n/a	-999	-999	n/a	n/a	n/a	n/a	4	[0, 0, 0]	-999	PAL1	0	R1082N
569.608	0.851	1902156	TEST_ORIENT	n/a	n/a	1	1	SOPA	n/a	SOPA	BOTE	4	[0, 0, 0]	-999	PAL1	0	R1082N
570.459	0.0	1903007	REC_START	n/a	n/a	1	-999	n/a	n/a	n/a	n/a	4	[0, 0, 0]	-999	PAL1	0	R1082N
570.459	5.015	1903007	TEST_PROBE	n/a	wordpools/wordpool_SP.txt	1	1	SOPA	n/a	SOPA	BOTE	4	[0, 0, 0]	-999	PAL1	0	R1082N
575.474	0.002	1908022	REC_EVENT	5015	n/a	1	1	SOPA	<>	SOPA	BOTE	4	[0, 0, 0]	-999	PAL1	0	R1082N
575.476	0.017	1908024	REC_END	n/a	n/a	1	-999	n/a	n/a	n/a	n/a	4	[0, 0, 0]	-999	PAL1	0	R1082N
575.493	0.867	1908041	TEST_ORIENT	n/a	n/a	6	2	BASURA	CARRO	BASURA	AUTO	4	[0, 0, 0]	-999	PAL1	0	R1082N
576.36	0.0	1908908	TEST_PROBE	n/a	wordpools/wordpool_SP.txt	6	2	BASURA	CARRO	BASURA	AUTO	4	[0, 0, 0]	-999	PAL1	0	R1082N
576.36	1.54	1908908	REC_START	n/a	n/a	6	-999	n/a	CARRO	n/a	n/a	4	[0, 0, 0]	-999	PAL1	0	R1082N
577.9	1.199	1910448	REC_EVENT	1540	n/a	6	2	BASURA	CARRO	BASURA	AUTO	4	[0, 0, 0]	-999	PAL1	0	R1082N
579.099	2.286	1911647	REC_EVENT	2739	n/a	6	2	BASURA	<>	BASURA	AUTO	4	[0, 0, 0]	-999	PAL1	0	R1082N
581.385	0.009	1913933	REC_END	n/a	n/a	6	-999	n/a	n/a	n/a	n/a	4	[0, 0, 0]	-999	PAL1	0	R1082N
581.394	1.033	1913942	TEST_ORIENT	n/a	n/a	5	3	CUADRADO	n/a	ELFO	CUADRADO	4	[0, 0, 0]	-999	PAL1	0	R1082N
582.427	0.001	1914975	TEST_PROBE	n/a	wordpools/wordpool_SP.txt	5	3	CUADRADO	n/a	ELFO	CUADRADO	4	[0, 0, 0]	-999	PAL1	0	R1082N
582.428	5.032	1914976	REC_START	n/a	n/a	5	-999	n/a	n/a	n/a	n/a	4	[0, 0, 0]	-999	PAL1	0	R1082N
587.46	0.001	1920007	REC_EVENT	5032	n/a	5	3	CUADRADO	<>	ELFO	CUADRADO	4	[0, 0, 0]	-999	PAL1	0	R1082N
587.461	0.017	1920008	REC_END	n/a	n/a	5	-999	n/a	n/a	n/a	n/a	4	[0, 0, 0]	-999	PAL1	0	R1082N
587.478	0.85	1920025	TEST_ORIENT	n/a	n/a	2	4	CEPILLO	n/a	CEPILLO	ARROZ	4	[0, 0, 0]	-999	PAL1	0	R1082N
588.328	0.001	1920875	TEST_PROBE	n/a	wordpools/wordpool_SP.txt	2	4	CEPILLO	n/a	CEPILLO	ARROZ	4	[0, 0, 0]	-999	PAL1	0	R1082N
588.329	5.008	1920876	REC_START	n/a	n/a	2	-999	n/a	n/a	n/a	n/a	4	[0, 0, 0]	-999	PAL1	0	R1082N
593.337	0.001	1925884	REC_END	n/a	n/a	2	-999	n/a	n/a	n/a	n/a	4	[0, 0, 0]	-999	PAL1	0	R1082N
593.338	0.008	1925885	REC_EVENT	5009	n/a	2	4	CEPILLO	<>	CEPILLO	ARROZ	4	[0, 0, 0]	-999	PAL1	0	R1082N
593.346	1.017	1925893	TEST_ORIENT	n/a	n/a	3	5	TOSTADA	n/a	PAYASO	TOSTADA	4	[0, 0, 0]	-999	PAL1	0	R1082N
594.363	0.0	1926910	TEST_PROBE	n/a	wordpools/wordpool_SP.txt	3	5	TOSTADA	n/a	PAYASO	TOSTADA	4	[0, 0, 0]	-999	PAL1	0	R1082N
594.363	5.015	1926910	REC_START	n/a	n/a	3	-999	n/a	n/a	n/a	n/a	4	[0, 0, 0]	-999	PAL1	0	R1082N
599.378	0.002	1931925	REC_EVENT	5015	n/a	3	5	TOSTADA	<>	PAYASO	TOSTADA	4	[0, 0, 0]	-999	PAL1	0	R1082N
599.38	0.017	1931927	REC_END	n/a	n/a	3	-999	n/a	n/a	n/a	n/a	4	[0, 0, 0]	-999	PAL1	0	R1082N
599.397	0.917	1931944	TEST_ORIENT	n/a	n/a	4	6	LLAMA	LAB	ORO	LLAMA	4	[0, 0, 0]	-999	PAL1	0	R1082N
600.314	0.0	1932861	TEST_PROBE	n/a	wordpools/wordpool_SP.txt	4	6	LLAMA	LAB	ORO	LLAMA	4	[0, 0, 0]	-999	PAL1	0	R1082N
600.314	4.615	1932861	REC_START	n/a	n/a	4	-999	n/a	LAB	n/a	n/a	4	[0, 0, 0]	-999	PAL1	0	R1082N
604.929	0.402	1937476	REC_EVENT	4615	n/a	4	6	LLAMA	LAB	ORO	LLAMA	4	[0, 0, 0]	-999	PAL1	0	R1082N
605.331	0.033	1937878	REC_END	n/a	n/a	4	-999	n/a	n/a	n/a	n/a	4	[0, 0, 0]	-999	PAL1	0	R1082N
605.364	11.183	1937911	FEEDBACK_SHOW_ALL_PAIRS	n/a	n/a	4	-999	n/a	n/a	n/a	n/a	4	[0, 0, 0]	-999	PAL1	0	R1082N
616.547	10.437	1949093	ENCODING_START	n/a	n/a	0	-999	n/a	n/a	n/a	n/a	5	[0, 0, 0]	-999	PAL1	0	R1082N
626.984	0.967	1959530	STUDY_ORIENT	n/a	n/a	1	3	CAMARON	n/a	CAMARON	ARBUSTO	5	[0, 0, 0]	-999	PAL1	0	R1082N
627.951	5.034	1960497	STUDY_PAIR	n/a	wordpools/wordpool_SP.txt	1	3	CAMARON	n/a	CAMARON	ARBUSTO	5	[0, 0, 0]	-999	PAL1	0	R1082N
632.985	0.768	1965531	STUDY_ORIENT	n/a	n/a	2	6	HUEVO	n/a	HUEVO	FRIJOL	5	[0, 0, 0]	-999	PAL1	0	R1082N
633.753	5.033	1966299	STUDY_PAIR	n/a	wordpools/wordpool_SP.txt	2	6	HUEVO	n/a	HUEVO	FRIJOL	5	[0, 0, 0]	-999	PAL1	0	R1082N
638.786	0.918	1971332	STUDY_ORIENT	n/a	n/a	3	5	JET	BANO	JET	BANO	5	[0, 0, 0]	-999	PAL1	0	R1082N
639.704	5.034	1972250	STUDY_PAIR	n/a	wordpools/wordpool_SP.txt	3	5	JET	BANO	JET	BANO	5	[0, 0, 0]	-999	PAL1	0	R1082N
644.738	0.933	1977283	STUDY_ORIENT	n/a	n/a	4	4	MANGA	VASO	VASO	MANGA	5	[0, 0, 0]	-999	PAL1	0	R1082N
645.671	5.018	1978216	STUDY_PAIR	n/a	wordpools/wordpool_SP.txt	4	4	MANGA	VASO	VASO	MANGA	5	[0, 0, 0]	-999	PAL1	0	R1082N
650.689	1.0	1983234	STUDY_ORIENT	n/a	n/a	5	1	PUERTA	PISCINA	PUERTA	PISCINA	5	[0, 0, 0]	-999	PAL1	0	R1082N
651.689	5.034	1984234	STUDY_PAIR	n/a	wordpools/wordpool_SP.txt	5	1	PUERTA	PISCINA	PUERTA	PISCINA	5	[0, 0, 0]	-999	PAL1	0	R1082N
656.723	0.934	1989268	STUDY_ORIENT	n/a	n/a	6	2	TENEDOR	GUANTE	GUANTE	TENEDOR	5	[0, 0, 0]	-999	PAL1	0	R1082N
657.657	4.018	1990202	STUDY_PAIR	n/a	wordpools/wordpool_SP.txt	6	2	TENEDOR	GUANTE	GUANTE	TENEDOR	5	[0, 0, 0]	-999	PAL1	0	R1082N
661.675	0.999	1994220	START	n/a	n/a	-999	-999	n/a	n/a	n/a	n/a	5	[-999, -999, -999]	-999	PAL1	0	R1082N
662.674	0.017	1995219	MATH_START	n/a	n/a	-999	-999	n/a	n/a	n/a	n/a	5	[0, 0, 0]	-999	PAL1	0	R1082N
662.691	5.266	1995236	PROB	5247	n/a	-999	-999	n/a	n/a	n/a	n/a	5	[3, 7, 6]	16	PAL1	0	R1082N
667.957	6.769	2000502	PROB	6742	n/a	-999	-999	n/a	n/a	n/a	n/a	5	[2, 1, 6]	9	PAL1	0	R1082N
674.726	2.283	2007270	PROB	2252	n/a	-999	-999	n/a	n/a	n/a	n/a	5	[7, 4, 1]	12	PAL1	0	R1082N
677.009	3.767	2009553	PROB	3738	n/a	-999	-999	n/a	n/a	n/a	n/a	5	[6, 4, 3]	13	PAL1	0	R1082N
680.776	2.867	2013320	PROB	2867	n/a	-999	-999	n/a	n/a	n/a	n/a	5	[8, 1, 8]	17	PAL1	0	R1082N
683.643	0.018	2016187	STOP	n/a	n/a	-999	-999	n/a	n/a	n/a	n/a	5	[-999, -999, -999]	-999	PAL1	0	R1082N
683.661	0.0	2016205	TEST_START	n/a	n/a	-999	-999	n/a	n/a	n/a	n/a	5	[0, 0, 0]	-999	PAL1	0	R1082N
683.661	0.017	2016205	MATH_END	n/a	n/a	-999	-999	n/a	n/a	n/a	n/a	5	[0, 0, 0]	-999	PAL1	0	R1082N
683.678	0.816	2016222	TEST_ORIENT	n/a	n/a	5	1	PUERTA	PISCINA	PUERTA	PISCINA	5	[0, 0, 0]	-999	PAL1	0	R1082N
684.494	0.001	2017038	TEST_PROBE	n/a	wordpools/wordpool_SP.txt	5	1	PUERTA	PISCINA	PUERTA	PISCINA	5	[0, 0, 0]	-999	PAL1	0	R1082N
684.495	1.969	2017039	REC_START	n/a	n/a	5	-999	n/a	PISCINA	n/a	n/a	5	[0, 0, 0]	-999	PAL1	0	R1082N
686.464	3.039	2019008	REC_EVENT	1969	n/a	5	1	PUERTA	PISCINA	PUERTA	PISCINA	5	[0, 0, 0]	-999	PAL1	0	R1082N
689.503	0.009	2022047	REC_END	n/a	n/a	5	-999	n/a	n/a	n/a	n/a	5	[0, 0, 0]	-999	PAL1	0	R1082N
689.512	1.034	2022056	TEST_ORIENT	n/a	n/a	6	2	TENEDOR	GUANTE	GUANTE	TENEDOR	5	[0, 0, 0]	-999	PAL1	0	R1082N
690.546	0.0	2023090	REC_START	n/a	n/a	6	-999	n/a	GUANTE	n/a	n/a	5	[0, 0, 0]	-999	PAL1	0	R1082N
690.546	1.915	2023090	TEST_PROBE	n/a	wordpools/wordpool_SP.txt	6	2	TENEDOR	GUANTE	GUANTE	TENEDOR	5	[0, 0, 0]	-999	PAL1	0	R1082N
692.461	3.102	2025005	REC_EVENT	1915	n/a	6	2	TENEDOR	GUANTE	GUANTE	TENEDOR	5	[0, 0, 0]	-999	PAL1	0	R1082N
695.563	0.017	2028107	REC_END	n/a	n/a	6	-999	n/a	n/a	n/a	n/a	5	[0, 0, 0]	-999	PAL1	0	R1082N
695.58	0.983	2028124	TEST_ORIENT	n/a	n/a	1	3	CAMARON	n/a	CAMARON	ARBUSTO	5	[0, 0, 0]	-999	PAL1	0	R1082N
696.563	0.001	2029107	TEST_PROBE	n/a	wordpools/wordpool_SP.txt	1	3	CAMARON	n/a	CAMARON	ARBUSTO	5	[0, 0, 0]	-999	PAL1	0	R1082N
696.564	5.008	2029108	REC_START	n/a	n/a	1	-999	n/a	n/a	n/a	n/a	5	[0, 0, 0]	-999	PAL1	0	R1082N
701.572	0.001	2034115	REC_END	n/a	n/a	1	-999	n/a	n/a	n/a	n/a	5	[0, 0, 0]	-999	PAL1	0	R1082N
701.573	0.024	2034116	REC_EVENT	5009	n/a	1	3	CAMARON	<>	CAMARON	ARBUSTO	5	[0, 0, 0]	-999	PAL1	0	R1082N
701.597	0.884	2034140	TEST_ORIENT	n/a	n/a	4	4	MANGA	VASO	VASO	MANGA	5	[0, 0, 0]	-999	PAL1	0	R1082N
702.481	0.0	2035024	TEST_PROBE	n/a	wordpools/wordpool_SP.txt	4	4	MANGA	VASO	VASO	MANGA	5	[0, 0, 0]	-999	PAL1	0	R1082N
702.481	1.625	2035024	REC_START	n/a	n/a	4	-999	n/a	VASO	n/a	n/a	5	[0, 0, 0]	-999	PAL1	0	R1082N
704.106	3.392	2036649	REC_EVENT	1625	n/a	4	4	MANGA	VASO	VASO	MANGA	5	[0, 0, 0]	-999	PAL1	0	R1082N
707.498	0.017	2040041	REC_END	n/a	n/a	4	-999	n/a	n/a	n/a	n/a	5	[0, 0, 0]	-999	PAL1	0	R1082N
707.515	0.867	2040058	TEST_ORIENT	n/a	n/a	3	5	JET	BANO	JET	BANO	5	[0, 0, 0]	-999	PAL1	0	R1082N
708.382	0.0	2040925	TEST_PROBE	n/a	wordpools/wordpool_SP.txt	3	5	JET	BANO	JET	BANO	5	[0, 0, 0]	-999	PAL1	0	R1082N
708.382	1.622	2040925	REC_START	n/a	n/a	3	-999	n/a	BANO	n/a	n/a	5	[0, 0, 0]	-999	PAL1	0	R1082N
710.004	3.395	2042547	REC_EVENT	1622	n/a	3	5	JET	BANO	JET	BANO	5	[0, 0, 0]	-999	PAL1	0	R1082N
713.399	0.017	2045942	REC_END	n/a	n/a	3	-999	n/a	n/a	n/a	n/a	5	[0, 0, 0]	-999	PAL1	0	R1082N
713.416	0.967	2045959	TEST_ORIENT	n/a	n/a	2	6	HUEVO	n/a	HUEVO	FRIJOL	5	[0, 0, 0]	-999	PAL1	0	R1082N
714.383	0.0	2046926	REC_START	n/a	n/a	2	-999	n/a	n/a	n/a	n/a	5	[0, 0, 0]	-999	PAL1	0	R1082N
714.383	2.475	2046926	TEST_PROBE	n/a	wordpools/wordpool_SP.txt	2	6	HUEVO	n/a	HUEVO	FRIJOL	5	[0, 0, 0]	-999	PAL1	0	R1082N
716.858	2.542	2049401	REC_EVENT	2475	n/a	2	6	HUEVO	<>	HUEVO	FRIJOL	5	[0, 0, 0]	-999	PAL1	0	R1082N
719.4	0.034	2051943	REC_END	n/a	n/a	2	-999	n/a	n/a	n/a	n/a	5	[0, 0, 0]	-999	PAL1	0	R1082N
719.434	16.097	2051977	FEEDBACK_SHOW_ALL_PAIRS	n/a	n/a	2	-999	n/a	n/a	n/a	n/a	5	[0, 0, 0]	-999	PAL1	0	R1082N
735.531	10.44	2068073	ENCODING_START	n/a	n/a	0	-999	n/a	n/a	n/a	n/a	6	[0, 0, 0]	-999	PAL1	0	R1082N
745.971	0.933	2078513	STUDY_ORIENT	n/a	n/a	1	3	TIBURON	VASO	TIBURON	LECHE	6	[0, 0, 0]	-999	PAL1	0	R1082N
746.904	5.034	2079446	STUDY_PAIR	n/a	wordpools/wordpool_SP.txt	1	3	TIBURON	VASO	TIBURON	LECHE	6	[0, 0, 0]	-999	PAL1	0	R1082N
751.938	0.917	2084480	STUDY_ORIENT	n/a	n/a	2	6	LODO	n/a	PATIO	LODO	6	[0, 0, 0]	-999	PAL1	0	R1082N
752.855	5.034	2085397	STUDY_PAIR	n/a	wordpools/wordpool_SP.txt	2	6	LODO	n/a	PATIO	LODO	6	[0, 0, 0]	-999	PAL1	0	R1082N
757.889	0.768	2090430	STUDY_ORIENT	n/a	n/a	3	1	GRUA	CARRO	RAIZ	GRUA	6	[0, 0, 0]	-999	PAL1	0	R1082N
758.657	5.034	2091198	STUDY_PAIR	n/a	wordpools/wordpool_SP.txt	3	1	GRUA	CARRO	RAIZ	GRUA	6	[0, 0, 0]	-999	PAL1	0	R1082N
763.691	0.967	2096232	STUDY_ORIENT	n/a	n/a	4	2	VENADO	VASO	GUISANTE	VENADO	6	[0, 0, 0]	-999	PAL1	0	R1082N
764.658	5.034	2097199	STUDY_PAIR	n/a	wordpools/wordpool_SP.txt	4	2	VENADO	VASO	GUISANTE	VENADO	6	[0, 0, 0]	-999	PAL1	0	R1082N
769.692	0.934	2102233	STUDY_ORIENT	n/a	n/a	5	5	HILO	n/a	RATA	HILO	6	[0, 0, 0]	-999	PAL1	0	R1082N
770.626	5.034	2103167	STUDY_PAIR	n/a	wordpools/wordpool_SP.txt	5	5	HILO	n/a	RATA	HILO	6	[0, 0, 0]	-999	PAL1	0	R1082N
775.66	0.883	2108201	STUDY_ORIENT	n/a	n/a	6	4	NIDO	JARDIN	NIDO	PARQUE	6	[0, 0, 0]	-999	PAL1	0	R1082N
776.543	4.001	2109084	STUDY_PAIR	n/a	wordpools/wordpool_SP.txt	6	4	NIDO	JARDIN	NIDO	PARQUE	6	[0, 0, 0]	-999	PAL1	0	R1082N
780.544	1.0	2113085	START	n/a	n/a	-999	-999	n/a	n/a	n/a	n/a	6	[-999, -999, -999]	-999	PAL1	0	R1082N
781.544	0.017	2114085	MATH_START	n/a	n/a	-999	-999	n/a	n/a	n/a	n/a	6	[0, 0, 0]	-999	PAL1	0	R1082N
781.561	8.417	2114102	PROB	8393	n/a	-999	-999	n/a	n/a	n/a	n/a	6	[6, 7, 5]	18	PAL1	0	R1082N
789.978	3.468	2122518	PROB	3433	n/a	-999	-999	n/a	n/a	n/a	n/a	6	[1, 1, 6]	8	PAL1	0	R1082N
793.446	4.483	2125986	PROB	4452	n/a	-999	-999	n/a	n/a	n/a	n/a	6	[5, 6, 8]	19	PAL1	0	R1082N
797.929	3.738	2130469	PROB	3738	n/a	-999	-999	n/a	n/a	n/a	n/a	6	[9, 5, 6]	20	PAL1	0	R1082N
801.667	0.014	2134207	STOP	n/a	n/a	-999	-999	n/a	n/a	n/a	n/a	6	[-999, -999, -999]	-999	PAL1	0	R1082N
801.681	0.0	2134221	TEST_START	n/a	n/a	-999	-999	n/a	n/a	n/a	n/a	6	[0, 0, 0]	-999	PAL1	0	R1082N
801.681	0.017	2134221	MATH_END	n/a	n/a	-999	-999	n/a	n/a	n/a	n/a	6	[0, 0, 0]	-999	PAL1	0	R1082N
801.698	1.033	2134238	TEST_ORIENT	n/a	n/a	3	1	GRUA	CARRO	RAIZ	GRUA	6	[0, 0, 0]	-999	PAL1	0	R1082N
802.731	0.0	2135271	TEST_PROBE	n/a	wordpools/wordpool_SP.txt	3	1	GRUA	CARRO	RAIZ	GRUA	6	[0, 0, 0]	-999	PAL1	0	R1082N
802.731	2.855	2135271	REC_START	n/a	n/a	3	-999	n/a	CARRO	n/a	n/a	6	[0, 0, 0]	-999	PAL1	0	R1082N
805.586	0.41	2138126	REC_EVENT	2855	n/a	3	1	GRUA	GRAA	RAIZ	GRUA	6	[0, 0, 0]	-999	PAL1	0	R1082N
805.996	1.752	2138536	REC_EVENT	3265	n/a	3	1	GRUA	CARRO	RAIZ	GRUA	6	[0, 0, 0]	-999	PAL1	0	R1082N
807.748	0.016	2140288	REC_END	n/a	n/a	3	-999	n/a	n/a	n/a	n/a	6	[0, 0, 0]	-999	PAL1	0	R1082N
807.764	0.851	2140304	TEST_ORIENT	n/a	n/a	4	2	VENADO	VASO	GUISANTE	VENADO	6	[0, 0, 0]	-999	PAL1	0	R1082N
808.615	0.001	2141155	TEST_PROBE	n/a	wordpools/wordpool_SP.txt	4	2	VENADO	VASO	GUISANTE	VENADO	6	[0, 0, 0]	-999	PAL1	0	R1082N
808.616	1.893	2141156	REC_START	n/a	n/a	4	-999	n/a	VASO	n/a	n/a	6	[0, 0, 0]	-999	PAL1	0	R1082N
810.509	3.115	2143048	REC_EVENT	1893	n/a	4	2	VENADO	VASO	GUISANTE	VENADO	6	[0, 0, 0]	-999	PAL1	0	R1082N
813.624	0.009	2146163	REC_END	n/a	n/a	4	-999	n/a	n/a	n/a	n/a	6	[0, 0, 0]	-999	PAL1	0	R1082N
813.633	1.033	2146172	TEST_ORIENT	n/a	n/a	1	3	TIBURON	VASO	TIBURON	LECHE	6	[0, 0, 0]	-999	PAL1	0	R1082N
814.666	0.001	2147205	TEST_PROBE	n/a	wordpools/wordpool_SP.txt	1	3	TIBURON	VASO	TIBURON	LECHE	6	[0, 0, 0]	-999	PAL1	0	R1082N
814.667	2.154	2147206	REC_START	n/a	n/a	1	-999	n/a	VASO	n/a	n/a	6	[0, 0, 0]	-999	PAL1	0	R1082N
816.821	2.857	2149360	REC_EVENT	2154	n/a	1	3	TIBURON	VASO	TIBURON	LECHE	6	[0, 0, 0]	-999	PAL1	0	R1082N
819.678	0.006	2152217	REC_END	n/a	n/a	1	-999	n/a	n/a	n/a	n/a	6	[0, 0, 0]	-999	PAL1	0	R1082N
819.684	0.85	2152223	TEST_ORIENT	n/a	n/a	6	4	NIDO	JARDIN	NIDO	PARQUE	6	[0, 0, 0]	-999	PAL1	0	R1082N
820.534	0.0	2153073	REC_START	n/a	n/a	6	-999	n/a	JARDIN	n/a	n/a	6	[0, 0, 0]	-999	PAL1	0	R1082N
820.534	1.272	2153073	TEST_PROBE	n/a	wordpools/wordpool_SP.txt	6	4	NIDO	JARDIN	NIDO	PARQUE	6	[0, 0, 0]	-999	PAL1	0	R1082N
821.806	3.746	2154345	REC_EVENT	1272	n/a	6	4	NIDO	JARDIN	NIDO	PARQUE	6	[0, 0, 0]	-999	PAL1	0	R1082N
825.552	0.016	2158091	REC_END	n/a	n/a	6	-999	n/a	n/a	n/a	n/a	6	[0, 0, 0]	-999	PAL1	0	R1082N
825.568	0.917	2158107	TEST_ORIENT	n/a	n/a	5	5	HILO	n/a	RATA	HILO	6	[0, 0, 0]	-999	PAL1	0	R1082N
826.485	0.001	2159024	TEST_PROBE	n/a	wordpools/wordpool_SP.txt	5	5	HILO	n/a	RATA	HILO	6	[0, 0, 0]	-999	PAL1	0	R1082N
826.486	5.021	2159025	REC_START	n/a	n/a	5	-999	n/a	n/a	n/a	n/a	6	[0, 0, 0]	-999	PAL1	0	R1082N
831.507	0.004	2164046	REC_EVENT	5021	n/a	5	5	HILO	<>	RATA	HILO	6	[0, 0, 0]	-999	PAL1	0	R1082N
831.511	0.008	2164050	REC_END	n/a	n/a	5	-999	n/a	n/a	n/a	n/a	6	[0, 0, 0]	-999	PAL1	0	R1082N
831.519	0.95	2164058	TEST_ORIENT	n/a	n/a	2	6	LODO	n/a	PATIO	LODO	6	[0, 0, 0]	-999	PAL1	0	R1082N
832.469	0.001	2165008	TEST_PROBE	n/a	wordpools/wordpool_SP.txt	2	6	LODO	n/a	PATIO	LODO	6	[0, 0, 0]	-999	PAL1	0	R1082N
832.47	5.008	2165009	REC_START	n/a	n/a	2	-999	n/a	n/a	n/a	n/a	6	[0, 0, 0]	-999	PAL1	0	R1082N
837.478	0.001	2170017	REC_END	n/a	n/a	2	-999	n/a	n/a	n/a	n/a	6	[0, 0, 0]	-999	PAL1	0	R1082N
837.479	0.025	2170018	REC_EVENT	5009	n/a	2	6	LODO	<>	PATIO	LODO	6	[0, 0, 0]	-999	PAL1	0	R1082N
837.504	17.251	2170043	FEEDBACK_SHOW_ALL_PAIRS	n/a	n/a	2	-999	n/a	n/a	n/a	n/a	6	[0, 0, 0]	-999	PAL1	0	R1082N
854.755	10.453	2187293	ENCODING_START	n/a	n/a	0	-999	n/a	n/a	n/a	n/a	7	[0, 0, 0]	-999	PAL1	0	R1082N
865.208	0.934	2197746	STUDY_ORIENT	n/a	n/a	1	1	BANDEJA	n/a	HOYO	BANDEJA	7	[0, 0, 0]	-999	PAL1	0	R1082N
866.142	5.034	2198679	STUDY_PAIR	n/a	wordpools/wordpool_SP.txt	1	1	BANDEJA	n/a	HOYO	BANDEJA	7	[0, 0, 0]	-999	PAL1	0	R1082N
871.176	0.934	2203713	STUDY_ORIENT	n/a	n/a	2	4	CORBATA	n/a	CABRA	CORBATA	7	[0, 0, 0]	-999	PAL1	0	R1082N
872.11	5.034	2204647	STUDY_PAIR	n/a	wordpools/wordpool_SP.txt	2	4	CORBATA	n/a	CABRA	CORBATA	7	[0, 0, 0]	-999	PAL1	0	R1082N
877.144	0.917	2209681	STUDY_ORIENT	n/a	n/a	3	3	TABURETE	n/a	TABURETE	MAPA	7	[0, 0, 0]	-999	PAL1	0	R1082N
878.061	5.034	2210598	STUDY_PAIR	n/a	wordpools/wordpool_SP.txt	3	3	TABURETE	n/a	TABURETE	MAPA	7	[0, 0, 0]	-999	PAL1	0	R1082N
883.095	0.899	2215632	STUDY_ORIENT	n/a	n/a	4	2	ESPADA	n/a	TIENDA	ESPADA	7	[0, 0, 0]	-999	PAL1	0	R1082N
883.994	5.034	2216531	STUDY_PAIR	n/a	wordpools/wordpool_SP.txt	4	2	ESPADA	n/a	TIENDA	ESPADA	7	[0, 0, 0]	-999	PAL1	0	R1082N
889.028	0.95	2221565	STUDY_ORIENT	n/a	n/a	5	5	ZAPATO	n/a	VAPOR	ZAPATO	7	[0, 0, 0]	-999	PAL1	0	R1082N
889.978	5.018	2222515	STUDY_PAIR	n/a	wordpools/wordpool_SP.txt	5	5	ZAPATO	n/a	VAPOR	ZAPATO	7	[0, 0, 0]	-999	PAL1	0	R1082N
894.996	0.983	2227532	STUDY_ORIENT	n/a	n/a	6	6	LIBRO	CASA	LANZA	LIBRO	7	[0, 0, 0]	-999	PAL1	0	R1082N
895.979	4.001	2228515	STUDY_PAIR	n/a	wordpools/wordpool_SP.txt	6	6	LIBRO	CASA	LANZA	LIBRO	7	[0, 0, 0]	-999	PAL1	0	R1082N
899.98	1.0	2232516	START	n/a	n/a	-999	-999	n/a	n/a	n/a	n/a	7	[-999, -999, -999]	-999	PAL1	0	R1082N
900.98	0.017	2233516	MATH_START	n/a	n/a	-999	-999	n/a	n/a	n/a	n/a	7	[0, 0, 0]	-999	PAL1	0	R1082N
900.997	6.569	2233533	PROB	6534	n/a	-999	-999	n/a	n/a	n/a	n/a	7	[4, 3, 5]	12	PAL1	0	R1082N
907.566	2.516	2240102	PROB	2493	n/a	-999	-999	n/a	n/a	n/a	n/a	7	[4, 1, 6]	11	PAL1	0	R1082N
910.082	4.75	2242618	PROB	4728	n/a	-999	-999	n/a	n/a	n/a	n/a	7	[2, 7, 5]	14	PAL1	0	R1082N
914.832	5.151	2247368	PROB	5130	n/a	-999	-999	n/a	n/a	n/a	n/a	7	[9, 7, 9]	25	PAL1	0	R1082N
919.983	5.74	2252519	PROB	5740	n/a	-999	-999	n/a	n/a	n/a	n/a	7	[8, 7, 2]	17	PAL1	0	R1082N
925.723	0.012	2258258	STOP	n/a	n/a	-999	-999	n/a	n/a	n/a	n/a	7	[-999, -999, -999]	-999	PAL1	0	R1082N
925.735	0.0	2258270	MATH_END	n/a	n/a	-999	-999	n/a	n/a	n/a	n/a	7	[0, 0, 0]	-999	PAL1	0	R1082N
925.735	0.017	2258270	TEST_START	n/a	n/a	-999	-999	n/a	n/a	n/a	n/a	7	[0, 0, 0]	-999	PAL1	0	R1082N
925.752	0.934	2258287	TEST_ORIENT	n/a	n/a	1	1	BANDEJA	n/a	HOYO	BANDEJA	7	[0, 0, 0]	-999	PAL1	0	R1082N
926.686	0.0	2259221	TEST_PROBE	n/a	wordpools/wordpool_SP.txt	1	1	BANDEJA	n/a	HOYO	BANDEJA	7	[0, 0, 0]	-999	PAL1	0	R1082N
926.686	5.021	2259221	REC_START	n/a	n/a	1	-999	n/a	n/a	n/a	n/a	7	[0, 0, 0]	-999	PAL1	0	R1082N
931.707	0.004	2264242	REC_EVENT	5021	n/a	1	1	BANDEJA	<>	HOYO	BANDEJA	7	[0, 0, 0]	-999	PAL1	0	R1082N
931.711	0.009	2264246	REC_END	n/a	n/a	1	-999	n/a	n/a	n/a	n/a	7	[0, 0, 0]	-999	PAL1	0	R1082N
931.72	0.867	2264255	TEST_ORIENT	n/a	n/a	4	2	ESPADA	n/a	TIENDA	ESPADA	7	[0, 0, 0]	-999	PAL1	0	R1082N
932.587	0.0	2265122	REC_START	n/a	n/a	4	-999	n/a	n/a	n/a	n/a	7	[0, 0, 0]	-999	PAL1	0	R1082N
932.587	5.015	2265122	TEST_PROBE	n/a	wordpools/wordpool_SP.txt	4	2	ESPADA	n/a	TIENDA	ESPADA	7	[0, 0, 0]	-999	PAL1	0	R1082N
937.602	0.002	2270137	REC_EVENT	5015	n/a	4	2	ESPADA	<>	TIENDA	ESPADA	7	[0, 0, 0]	-999	PAL1	0	R1082N
937.604	0.017	2270139	REC_END	n/a	n/a	4	-999	n/a	n/a	n/a	n/a	7	[0, 0, 0]	-999	PAL1	0	R1082N
937.621	0.85	2270156	TEST_ORIENT	n/a	n/a	3	3	TABURETE	n/a	TABURETE	MAPA	7	[0, 0, 0]	-999	PAL1	0	R1082N
938.471	0.0	2271006	TEST_PROBE	n/a	wordpools/wordpool_SP.txt	3	3	TABURETE	n/a	TABURETE	MAPA	7	[0, 0, 0]	-999	PAL1	0	R1082N
938.471	5.015	2271006	REC_START	n/a	n/a	3	-999	n/a	n/a	n/a	n/a	7	[0, 0, 0]	-999	PAL1	0	R1082N
943.486	0.002	2276021	REC_EVENT	5015	n/a	3	3	TABURETE	<>	TABURETE	MAPA	7	[0, 0, 0]	-999	PAL1	0	R1082N
943.488	0.017	2276023	REC_END	n/a	n/a	3	-999	n/a	n/a	n/a	n/a	7	[0, 0, 0]	-999	PAL1	0	R1082N
943.505	0.917	2276040	TEST_ORIENT	n/a	n/a	2	4	CORBATA	n/a	CABRA	CORBATA	7	[0, 0, 0]	-999	PAL1	0	R1082N
944.422	0.0	2276957	REC_START	n/a	n/a	2	-999	n/a	n/a	n/a	n/a	7	[0, 0, 0]	-999	PAL1	0	R1082N
944.422	5.015	2276957	TEST_PROBE	n/a	wordpools/wordpool_SP.txt	2	4	CORBATA	n/a	CABRA	CORBATA	7	[0, 0, 0]	-999	PAL1	0	R1082N
949.437	0.002	2281972	REC_EVENT	5015	n/a	2	4	CORBATA	<>	CABRA	CORBATA	7	[0, 0, 0]	-999	PAL1	0	R1082N
949.439	0.017	2281974	REC_END	n/a	n/a	2	-999	n/a	n/a	n/a	n/a	7	[0, 0, 0]	-999	PAL1	0	R1082N
949.456	0.967	2281991	TEST_ORIENT	n/a	n/a	5	5	ZAPATO	n/a	VAPOR	ZAPATO	7	[0, 0, 0]	-999	PAL1	0	R1082N
950.423	0.0	2282957	TEST_PROBE	n/a	wordpools/wordpool_SP.txt	5	5	ZAPATO	n/a	VAPOR	ZAPATO	7	[0, 0, 0]	-999	PAL1	0	R1082N
950.423	5.021	2282957	REC_START	n/a	n/a	5	-999	n/a	n/a	n/a	n/a	7	[0, 0, 0]	-999	PAL1	0	R1082N
955.444	0.004	2287978	REC_EVENT	5021	n/a	5	5	ZAPATO	<>	VAPOR	ZAPATO	7	[0, 0, 0]	-999	PAL1	0	R1082N
955.448	0.009	2287982	REC_END	n/a	n/a	5	-999	n/a	n/a	n/a	n/a	7	[0, 0, 0]	-999	PAL1	0	R1082N
955.457	0.833	2287991	TEST_ORIENT	n/a	n/a	6	6	LIBRO	CASA	LANZA	LIBRO	7	[0, 0, 0]	-999	PAL1	0	R1082N
956.29	0.001	2288824	TEST_PROBE	n/a	wordpools/wordpool_SP.txt	6	6	LIBRO	CASA	LANZA	LIBRO	7	[0, 0, 0]	-999	PAL1	0	R1082N
956.291	2.399	2288825	REC_START	n/a	n/a	6	-999	n/a	CASA	n/a	n/a	7	[0, 0, 0]	-999	PAL1	0	R1082N
958.69	2.609	2291224	REC_EVENT	2399	n/a	6	6	LIBRO	CASA	LANZA	LIBRO	7	[0, 0, 0]	-999	PAL1	0	R1082N
961.299	0.026	2293833	REC_END	n/a	n/a	6	-999	n/a	n/a	n/a	n/a	7	[0, 0, 0]	-999	PAL1	0	R1082N
961.325	12.709	2293859	FEEDBACK_SHOW_ALL_PAIRS	n/a	n/a	6	-999	n/a	n/a	n/a	n/a	7	[0, 0, 0]	-999	PAL1	0	R1082N
974.034	10.445	2306568	ENCODING_START	n/a	n/a	0	-999	n/a	n/a	n/a	n/a	8	[0, 0, 0]	-999	PAL1	0	R1082N
984.479	0.983	2317012	STUDY_ORIENT	n/a	n/a	1	1	CUBO	n/a	CUBO	CUERNO	8	[0, 0, 0]	-999	PAL1	0	R1082N
985.462	5.034	2317995	STUDY_PAIR	n/a	wordpools/wordpool_SP.txt	1	1	CUBO	n/a	CUBO	CUERNO	8	[0, 0, 0]	-999	PAL1	0	R1082N
990.496	0.784	2323029	STUDY_ORIENT	n/a	n/a	2	2	ESQUI	PULGAR	ESQUI	PULGAR	8	[0, 0, 0]	-999	PAL1	0	R1082N
991.28	5.034	2323813	STUDY_PAIR	n/a	wordpools/wordpool_SP.txt	2	2	ESQUI	PULGAR	ESQUI	PULGAR	8	[0, 0, 0]	-999	PAL1	0	R1082N
996.314	1.017	2328847	STUDY_ORIENT	n/a	n/a	3	5	FRUTA	MANO	MANO	FRUTA	8	[0, 0, 0]	-999	PAL1	0	R1082N
997.331	5.034	2329864	STUDY_PAIR	n/a	wordpools/wordpool_SP.txt	3	5	FRUTA	MANO	MANO	FRUTA	8	[0, 0, 0]	-999	PAL1	0	R1082N
1002.365	0.967	2334898	STUDY_ORIENT	n/a	n/a	4	6	PERLA	n/a	PERLA	BARCO	8	[0, 0, 0]	-999	PAL1	0	R1082N
1003.332	5.034	2335865	STUDY_PAIR	n/a	wordpools/wordpool_SP.txt	4	6	PERLA	n/a	PERLA	BARCO	8	[0, 0, 0]	-999	PAL1	0	R1082N
1008.366	0.834	2340898	STUDY_ORIENT	n/a	n/a	5	3	GUARDIA	n/a	GUARDIA	ESCALERA	8	[0, 0, 0]	-999	PAL1	0	R1082N
1009.2	5.034	2341732	STUDY_PAIR	n/a	wordpools/wordpool_SP.txt	5	3	GUARDIA	n/a	GUARDIA	ESCALERA	8	[0, 0, 0]	-999	PAL1	0	R1082N
1014.234	0.9	2346766	STUDY_ORIENT	n/a	n/a	6	4	CARCEL	n/a	CARCEL	OREJA	8	[0, 0, 0]	-999	PAL1	0	R1082N
1015.134	4.017	2347666	STUDY_PAIR	n/a	wordpools/wordpool_SP.txt	6	4	CARCEL	n/a	CARCEL	OREJA	8	[0, 0, 0]	-999	PAL1	0	R1082N
1019.151	1.0	2351683	START	n/a	n/a	-999	-999	n/a	n/a	n/a	n/a	8	[-999, -999, -999]	-999	PAL1	0	R1082N
1020.151	0.017	2352683	MATH_START	n/a	n/a	-999	-999	n/a	n/a	n/a	n/a	8	[0, 0, 0]	-999	PAL1	0	R1082N
1020.168	5.251	2352700	PROB	5219	n/a	-999	-999	n/a	n/a	n/a	n/a	8	[2, 7, 6]	15	PAL1	0	R1082N
1025.419	4.017	2357951	PROB	3992	n/a	-999	-999	n/a	n/a	n/a	n/a	8	[5, 9, 1]	155	PAL1	0	R1082N
1029.436	3.433	2361968	PROB	3398	n/a	-999	-999	n/a	n/a	n/a	n/a	8	[9, 1, 8]	18	PAL1	0	R1082N
1032.869	3.034	2365401	PROB	3013	n/a	-999	-999	n/a	n/a	n/a	n/a	8	[5, 5, 9]	19	PAL1	0	R1082N
1035.903	3.251	2368434	PROB	3220	n/a	-999	-999	n/a	n/a	n/a	n/a	8	[2, 6, 9]	17	PAL1	0	R1082N
1039.154	3.401	2371685	PROB	3401	n/a	-999	-999	n/a	n/a	n/a	n/a	8	[3, 3, 5]	14	PAL1	0	R1082N
1042.555	0.017	2375086	STOP	n/a	n/a	-999	-999	n/a	n/a	n/a	n/a	8	[-999, -999, -999]	-999	PAL1	0	R1082N
1042.572	0.0	2375103	TEST_START	n/a	n/a	-999	-999	n/a	n/a	n/a	n/a	8	[0, 0, 0]	-999	PAL1	0	R1082N
1042.572	0.016	2375103	MATH_END	n/a	n/a	-999	-999	n/a	n/a	n/a	n/a	8	[0, 0, 0]	-999	PAL1	0	R1082N
1042.588	1.001	2375119	TEST_ORIENT	n/a	n/a	1	1	CUBO	n/a	CUBO	CUERNO	8	[0, 0, 0]	-999	PAL1	0	R1082N
1043.589	0.0	2376120	TEST_PROBE	n/a	wordpools/wordpool_SP.txt	1	1	CUBO	n/a	CUBO	CUERNO	8	[0, 0, 0]	-999	PAL1	0	R1082N
1043.589	5.015	2376120	REC_START	n/a	n/a	1	-999	n/a	n/a	n/a	n/a	8	[0, 0, 0]	-999	PAL1	0	R1082N
1048.604	0.002	2381135	REC_EVENT	5015	n/a	1	1	CUBO	<>	CUBO	CUERNO	8	[0, 0, 0]	-999	PAL1	0	R1082N
1048.606	0.017	2381137	REC_END	n/a	n/a	1	-999	n/a	n/a	n/a	n/a	8	[0, 0, 0]	-999	PAL1	0	R1082N
1048.623	0.883	2381154	TEST_ORIENT	n/a	n/a	2	2	ESQUI	PULGAR	ESQUI	PULGAR	8	[0, 0, 0]	-999	PAL1	0	R1082N
1049.506	0.001	2382037	TEST_PROBE	n/a	wordpools/wordpool_SP.txt	2	2	ESQUI	PULGAR	ESQUI	PULGAR	8	[0, 0, 0]	-999	PAL1	0	R1082N
1049.507	1.338	2382038	REC_START	n/a	n/a	2	-999	n/a	PULGAR	n/a	n/a	8	[0, 0, 0]	-999	PAL1	0	R1082N
1050.845	1.068	2383376	REC_EVENT	1338	n/a	2	2	ESQUI	<>	ESQUI	PULGAR	8	[0, 0, 0]	-999	PAL1	0	R1082N
1051.913	0.453	2384444	REC_EVENT	2406	n/a	2	2	ESQUI	<>	ESQUI	PULGAR	8	[0, 0, 0]	-999	PAL1	0	R1082N
1052.366	2.148	2384897	REC_EVENT	2859	n/a	2	2	ESQUI	PULGAR	ESQUI	PULGAR	8	[0, 0, 0]	-999	PAL1	0	R1082N
1054.514	0.01	2387045	REC_END	n/a	n/a	2	-999	n/a	n/a	n/a	n/a	8	[0, 0, 0]	-999	PAL1	0	R1082N
1054.524	1.033	2387055	TEST_ORIENT	n/a	n/a	5	3	GUARDIA	n/a	GUARDIA	ESCALERA	8	[0, 0, 0]	-999	PAL1	0	R1082N
1055.557	0.001	2388088	TEST_PROBE	n/a	wordpools/wordpool_SP.txt	5	3	GUARDIA	n/a	GUARDIA	ESCALERA	8	[0, 0, 0]	-999	PAL1	0	R1082N
1055.558	5.003	2388089	REC_START	n/a	n/a	5	-999	n/a	n/a	n/a	n/a	8	[0, 0, 0]	-999	PAL1	0	R1082N
1060.561	0.004	2393092	REC_EVENT	5003	n/a	5	3	GUARDIA	<>	GUARDIA	ESCALERA	8	[0, 0, 0]	-999	PAL1	0	R1082N
1060.565	0.01	2393096	REC_END	n/a	n/a	5	-999	n/a	n/a	n/a	n/a	8	[0, 0, 0]	-999	PAL1	0	R1082N
1060.575	0.833	2393106	TEST_ORIENT	n/a	n/a	6	4	CARCEL	n/a	CARCEL	OREJA	8	[0, 0, 0]	-999	PAL1	0	R1082N
1061.408	0.001	2393938	TEST_PROBE	n/a	wordpools/wordpool_SP.txt	6	4	CARCEL	n/a	CARCEL	OREJA	8	[0, 0, 0]	-999	PAL1	0	R1082N
1061.409	5.003	2393939	REC_START	n/a	n/a	6	-999	n/a	n/a	n/a	n/a	8	[0, 0, 0]	-999	PAL1	0	R1082N
1066.412	0.004	2398942	REC_EVENT	5003	n/a	6	4	CARCEL	<>	CARCEL	OREJA	8	[0, 0, 0]	-999	PAL1	0	R1082N
1066.416	0.01	2398946	REC_END	n/a	n/a	6	-999	n/a	n/a	n/a	n/a	8	[0, 0, 0]	-999	PAL1	0	R1082N
1066.426	1.033	2398956	TEST_ORIENT	n/a	n/a	3	5	FRUTA	MANO	MANO	FRUTA	8	[0, 0, 0]	-999	PAL1	0	R1082N
1067.459	0.001	2399989	TEST_PROBE	n/a	wordpools/wordpool_SP.txt	3	5	FRUTA	MANO	MANO	FRUTA	8	[0, 0, 0]	-999	PAL1	0	R1082N
1067.46	1.44	2399990	REC_START	n/a	n/a	3	-999	n/a	MANO	n/a	n/a	8	[0, 0, 0]	-999	PAL1	0	R1082N
1068.9	3.567	2401430	REC_EVENT	1440	n/a	3	5	FRUTA	MANO	MANO	FRUTA	8	[0, 0, 0]	-999	PAL1	0	R1082N
1072.467	0.01	2404997	REC_END	n/a	n/a	3	-999	n/a	n/a	n/a	n/a	8	[0, 0, 0]	-999	PAL1	0	R1082N
1072.477	0.917	2405007	TEST_ORIENT	n/a	n/a	4	6	PERLA	n/a	PERLA	BARCO	8	[0, 0, 0]	-999	PAL1	0	R1082N
1073.394	0.0	2405924	TEST_PROBE	n/a	wordpools/wordpool_SP.txt	4	6	PERLA	n/a	PERLA	BARCO	8	[0, 0, 0]	-999	PAL1	0	R1082N
1073.394	5.017	2405924	REC_START	n/a	n/a	4	-999	n/a	n/a	n/a	n/a	8	[0, 0, 0]	-999	PAL1	0	R1082N
1078.411	0.004	2410941	REC_END	n/a	n/a	4	-999	n/a	n/a	n/a	n/a	8	[0, 0, 0]	-999	PAL1	0	R1082N
1078.415	0.03	2410945	REC_EVENT	5021	n/a	4	6	PERLA	<>	PERLA	BARCO	8	[0, 0, 0]	-999	PAL1	0	R1082N
1078.445	9.782	2410975	FEEDBACK_SHOW_ALL_PAIRS	n/a	n/a	4	-999	n/a	n/a	n/a	n/a	8	[0, 0, 0]	-999	PAL1	0	R1082N
1088.227	10.438	2420757	ENCODING_START	n/a	n/a	0	-999	n/a	n/a	n/a	n/a	9	[0, 0, 0]	-999	PAL1	0	R1082N
1098.665	0.9	2431194	STUDY_ORIENT	n/a	n/a	1	3	CASA	n/a	CASA	TANQUE	9	[0, 0, 0]	-999	PAL1	0	R1082N
1099.565	5.034	2432094	STUDY_PAIR	n/a	wordpools/wordpool_SP.txt	1	3	CASA	n/a	CASA	TANQUE	9	[0, 0, 0]	-999	PAL1	0	R1082N
1104.599	0.9	2437128	STUDY_ORIENT	n/a	n/a	2	4	POLO	n/a	POLO	PRINCIPE	9	[0, 0, 0]	-999	PAL1	0	R1082N
1105.499	5.034	2438028	STUDY_PAIR	n/a	wordpools/wordpool_SP.txt	2	4	POLO	n/a	POLO	PRINCIPE	9	[0, 0, 0]	-999	PAL1	0	R1082N
1110.533	1.017	2443062	STUDY_ORIENT	n/a	n/a	3	5	UNA	n/a	UNA	LABERINTO	9	[0, 0, 0]	-999	PAL1	0	R1082N
1111.55	5.034	2444079	STUDY_PAIR	n/a	wordpools/wordpool_SP.txt	3	5	UNA	n/a	UNA	LABERINTO	9	[0, 0, 0]	-999	PAL1	0	R1082N
1116.584	0.834	2449113	STUDY_ORIENT	n/a	n/a	4	2	PIE	n/a	SOMBRERO	PIE	9	[0, 0, 0]	-999	PAL1	0	R1082N
1117.418	5.034	2449946	STUDY_PAIR	n/a	wordpools/wordpool_SP.txt	4	2	PIE	n/a	SOMBRERO	PIE	9	[0, 0, 0]	-999	PAL1	0	R1082N
1122.452	1.0	2454980	STUDY_ORIENT	n/a	n/a	5	1	RELOJ	n/a	RELOJ	CARRETERA	9	[0, 0, 0]	-999	PAL1	0	R1082N
1123.452	5.034	2455980	STUDY_PAIR	n/a	wordpools/wordpool_SP.txt	5	1	RELOJ	n/a	RELOJ	CARRETERA	9	[0, 0, 0]	-999	PAL1	0	R1082N
1128.486	0.967	2461014	STUDY_ORIENT	n/a	n/a	6	6	JEFE	DULCE	DULCE	JEFE	9	[0, 0, 0]	-999	PAL1	0	R1082N
1129.453	4.018	2461981	STUDY_PAIR	n/a	wordpools/wordpool_SP.txt	6	6	JEFE	DULCE	DULCE	JEFE	9	[0, 0, 0]	-999	PAL1	0	R1082N
1133.471	0.999	2465999	START	n/a	n/a	-999	-999	n/a	n/a	n/a	n/a	9	[-999, -999, -999]	-999	PAL1	0	R1082N
1134.47	0.017	2466998	MATH_START	n/a	n/a	-999	-999	n/a	n/a	n/a	n/a	9	[0, 0, 0]	-999	PAL1	0	R1082N
1134.487	5.034	2467015	PROB	5012	n/a	-999	-999	n/a	n/a	n/a	n/a	9	[6, 9, 2]	17	PAL1	0	R1082N
1139.521	2.884	2472049	PROB	2858	n/a	-999	-999	n/a	n/a	n/a	n/a	9	[9, 2, 3]	14	PAL1	0	R1082N
1142.405	2.751	2474933	PROB	2726	n/a	-999	-999	n/a	n/a	n/a	n/a	9	[7, 3, 3]	13	PAL1	0	R1082N
1145.156	2.799	2477683	PROB	2766	n/a	-999	-999	n/a	n/a	n/a	n/a	9	[8, 6, 5]	19	PAL1	0	R1082N
1147.955	3.685	2480482	PROB	3656	n/a	-999	-999	n/a	n/a	n/a	n/a	9	[8, 9, 1]	18	PAL1	0	R1082N
1151.64	3.075	2484167	PROB	3075	n/a	-999	-999	n/a	n/a	n/a	n/a	9	[9, 7, 3]	19	PAL1	0	R1082N
1154.715	0.009	2487242	STOP	n/a	n/a	-999	-999	n/a	n/a	n/a	n/a	9	[-999, -999, -999]	-999	PAL1	0	R1082N
1154.724	0.0	2487251	MATH_END	n/a	n/a	-999	-999	n/a	n/a	n/a	n/a	9	[0, 0, 0]	-999	PAL1	0	R1082N
1154.724	0.017	2487251	TEST_START	n/a	n/a	-999	-999	n/a	n/a	n/a	n/a	9	[0, 0, 0]	-999	PAL1	0	R1082N
1154.741	0.833	2487268	TEST_ORIENT	n/a	n/a	5	1	RELOJ	n/a	RELOJ	CARRETERA	9	[0, 0, 0]	-999	PAL1	0	R1082N
1155.574	0.001	2488101	TEST_PROBE	n/a	wordpools/wordpool_SP.txt	5	1	RELOJ	n/a	RELOJ	CARRETERA	9	[0, 0, 0]	-999	PAL1	0	R1082N
1155.575	5.008	2488102	REC_START	n/a	n/a	5	-999	n/a	n/a	n/a	n/a	9	[0, 0, 0]	-999	PAL1	0	R1082N
1160.583	0.001	2493110	REC_END	n/a	n/a	5	-999	n/a	n/a	n/a	n/a	9	[0, 0, 0]	-999	PAL1	0	R1082N
1160.584	0.008	2493111	REC_EVENT	5009	n/a	5	1	RELOJ	<>	RELOJ	CARRETERA	9	[0, 0, 0]	-999	PAL1	0	R1082N
1160.592	0.9	2493119	TEST_ORIENT	n/a	n/a	4	2	PIE	n/a	SOMBRERO	PIE	9	[0, 0, 0]	-999	PAL1	0	R1082N
1161.492	0.0	2494019	TEST_PROBE	n/a	wordpools/wordpool_SP.txt	4	2	PIE	n/a	SOMBRERO	PIE	9	[0, 0, 0]	-999	PAL1	0	R1082N
1161.492	0.931	2494019	REC_START	n/a	n/a	4	-999	n/a	n/a	n/a	n/a	9	[0, 0, 0]	-999	PAL1	0	R1082N
1162.423	0.5	2494950	REC_EVENT	931	n/a	4	2	PIE	<>	SOMBRERO	PIE	9	[0, 0, 0]	-999	PAL1	0	R1082N
1162.923	3.586	2495450	REC_EVENT	1431	n/a	4	2	PIE	<>	SOMBRERO	PIE	9	[0, 0, 0]	-999	PAL1	0	R1082N
1166.509	0.017	2499036	REC_END	n/a	n/a	4	-999	n/a	n/a	n/a	n/a	9	[0, 0, 0]	-999	PAL1	0	R1082N
1166.526	1.034	2499053	TEST_ORIENT	n/a	n/a	1	3	CASA	n/a	CASA	TANQUE	9	[0, 0, 0]	-999	PAL1	0	R1082N
1167.56	0.0	2500087	TEST_PROBE	n/a	wordpools/wordpool_SP.txt	1	3	CASA	n/a	CASA	TANQUE	9	[0, 0, 0]	-999	PAL1	0	R1082N
1167.56	1.175	2500087	REC_START	n/a	n/a	1	-999	n/a	n/a	n/a	n/a	9	[0, 0, 0]	-999	PAL1	0	R1082N
1168.735	3.842	2501262	REC_EVENT	1175	n/a	1	3	CASA	<>	CASA	TANQUE	9	[0, 0, 0]	-999	PAL1	0	R1082N
1172.577	0.017	2505104	REC_END	n/a	n/a	1	-999	n/a	n/a	n/a	n/a	9	[0, 0, 0]	-999	PAL1	0	R1082N
1172.594	0.983	2505121	TEST_ORIENT	n/a	n/a	2	4	POLO	n/a	POLO	PRINCIPE	9	[0, 0, 0]	-999	PAL1	0	R1082N
1173.577	0.001	2506103	TEST_PROBE	n/a	wordpools/wordpool_SP.txt	2	4	POLO	n/a	POLO	PRINCIPE	9	[0, 0, 0]	-999	PAL1	0	R1082N
1173.578	5.008	2506104	REC_START	n/a	n/a	2	-999	n/a	n/a	n/a	n/a	9	[0, 0, 0]	-999	PAL1	0	R1082N
1178.586	0.009	2511112	REC_END	n/a	n/a	2	-999	n/a	n/a	n/a	n/a	9	[0, 0, 0]	-999	PAL1	0	R1082N
1178.595	0.867	2511121	TEST_ORIENT	n/a	n/a	3	5	UNA	n/a	UNA	LABERINTO	9	[0, 0, 0]	-999	PAL1	0	R1082N
1179.462	0.0	2511988	TEST_PROBE	n/a	wordpools/wordpool_SP.txt	3	5	UNA	n/a	UNA	LABERINTO	9	[0, 0, 0]	-999	PAL1	0	R1082N
1179.462	5.025	2511988	REC_START	n/a	n/a	3	-999	n/a	n/a	n/a	n/a	9	[0, 0, 0]	-999	PAL1	0	R1082N
1184.487	0.002	2517013	REC_END	n/a	n/a	3	-999	n/a	n/a	n/a	n/a	9	[0, 0, 0]	-999	PAL1	0	R1082N
1184.489	0.007	2517015	REC_EVENT	5027	n/a	3	5	UNA	<>	UNA	LABERINTO	9	[0, 0, 0]	-999	PAL1	0	R1082N
1184.496	1.033	2517022	TEST_ORIENT	n/a	n/a	6	6	JEFE	DULCE	DULCE	JEFE	9	[0, 0, 0]	-999	PAL1	0	R1082N
1185.529	0.001	2518055	TEST_PROBE	n/a	wordpools/wordpool_SP.txt	6	6	JEFE	DULCE	DULCE	JEFE	9	[0, 0, 0]	-999	PAL1	0	R1082N
1185.53	1.025	2518056	REC_START	n/a	n/a	6	-999	n/a	DULCE	n/a	n/a	9	[0, 0, 0]	-999	PAL1	0	R1082N
1186.555	3.983	2519081	REC_EVENT	1025	n/a	6	6	JEFE	DULCE	DULCE	JEFE	9	[0, 0, 0]	-999	PAL1	0	R1082N
1190.538	0.025	2523064	REC_END	n/a	n/a	6	-999	n/a	n/a	n/a	n/a	9	[0, 0, 0]	-999	PAL1	0	R1082N
1190.563	11.648	2523089	FEEDBACK_SHOW_ALL_PAIRS	n/a	n/a	6	-999	n/a	n/a	n/a	n/a	9	[0, 0, 0]	-999	PAL1	0	R1082N
1202.211	10.439	2534736	ENCODING_START	n/a	n/a	0	-999	n/a	n/a	n/a	n/a	10	[0, 0, 0]	-999	PAL1	0	R1082N
1212.65	0.817	2545175	STUDY_ORIENT	n/a	n/a	1	3	COLA	n/a	COLINA	COLA	10	[0, 0, 0]	-999	PAL1	0	R1082N
1213.467	5.018	2545992	STUDY_PAIR	n/a	wordpools/wordpool_SP.txt	1	3	COLA	n/a	COLINA	COLA	10	[0, 0, 0]	-999	PAL1	0	R1082N
1218.485	0.833	2551010	STUDY_ORIENT	n/a	n/a	2	2	RED	CORAZON	RED	CORAZON	10	[0, 0, 0]	-999	PAL1	0	R1082N
1219.318	5.018	2551843	STUDY_PAIR	n/a	wordpools/wordpool_SP.txt	2	2	RED	CORAZON	RED	CORAZON	10	[0, 0, 0]	-999	PAL1	0	R1082N
1224.336	0.883	2556861	STUDY_ORIENT	n/a	n/a	3	1	PEZ	OVEJA	CORDERO	PEZ	10	[0, 0, 0]	-999	PAL1	0	R1082N
1225.219	5.018	2557744	STUDY_PAIR	n/a	wordpools/wordpool_SP.txt	3	1	PEZ	OVEJA	CORDERO	PEZ	10	[0, 0, 0]	-999	PAL1	0	R1082N
1230.237	0.817	2562761	STUDY_ORIENT	n/a	n/a	4	4	TAPETE	n/a	JAULA	TAPETE	10	[0, 0, 0]	-999	PAL1	0	R1082N
1231.054	5.034	2563578	STUDY_PAIR	n/a	wordpools/wordpool_SP.txt	4	4	TAPETE	n/a	JAULA	TAPETE	10	[0, 0, 0]	-999	PAL1	0	R1082N
1236.088	0.882	2568612	STUDY_ORIENT	n/a	n/a	5	5	MONO	n/a	MONO	MURCIELAGO	10	[0, 0, 0]	-999	PAL1	0	R1082N
1236.97	5.018	2569494	STUDY_PAIR	n/a	wordpools/wordpool_SP.txt	5	5	MONO	n/a	MONO	MURCIELAGO	10	[0, 0, 0]	-999	PAL1	0	R1082N
1241.988	0.95	2574512	STUDY_ORIENT	n/a	n/a	6	6	PULGA	VIENTO	PULGA	VENTILADOR	10	[0, 0, 0]	-999	PAL1	0	R1082N
1242.938	4.018	2575462	STUDY_PAIR	n/a	wordpools/wordpool_SP.txt	6	6	PULGA	VIENTO	PULGA	VENTILADOR	10	[0, 0, 0]	-999	PAL1	0	R1082N
1246.956	0.999	2579480	START	n/a	n/a	-999	-999	n/a	n/a	n/a	n/a	10	[-999, -999, -999]	-999	PAL1	0	R1082N
1247.955	0.017	2580479	MATH_START	n/a	n/a	-999	-999	n/a	n/a	n/a	n/a	10	[0, 0, 0]	-999	PAL1	0	R1082N
1247.972	5.452	2580496	PROB	5431	n/a	-999	-999	n/a	n/a	n/a	n/a	10	[7, 6, 6]	19	PAL1	0	R1082N
1253.424	2.416	2585948	PROB	2394	n/a	-999	-999	n/a	n/a	n/a	n/a	10	[9, 9, 3]	21	PAL1	0	R1082N
1255.84	2.917	2588364	PROB	2875	n/a	-999	-999	n/a	n/a	n/a	n/a	10	[1, 4, 6]	11	PAL1	0	R1082N
1258.757	4.852	2591280	PROB	4822	n/a	-999	-999	n/a	n/a	n/a	n/a	10	[3, 7, 5]	15	PAL1	0	R1082N
1263.609	3.61	2596132	PROB	3610	n/a	-999	-999	n/a	n/a	n/a	n/a	10	[1, 9, 7]	17	PAL1	0	R1082N
1267.219	0.007	2599742	STOP	n/a	n/a	-999	-999	n/a	n/a	n/a	n/a	10	[-999, -999, -999]	-999	PAL1	0	R1082N
1267.226	0.0	2599749	MATH_END	n/a	n/a	-999	-999	n/a	n/a	n/a	n/a	10	[0, 0, 0]	-999	PAL1	0	R1082N
1267.226	0.017	2599749	TEST_START	n/a	n/a	-999	-999	n/a	n/a	n/a	n/a	10	[0, 0, 0]	-999	PAL1	0	R1082N
1267.243	1.017	2599766	TEST_ORIENT	n/a	n/a	3	1	PEZ	OVEJA	CORDERO	PEZ	10	[0, 0, 0]	-999	PAL1	0	R1082N
1268.26	0.001	2600783	TEST_PROBE	n/a	wordpools/wordpool_SP.txt	3	1	PEZ	OVEJA	CORDERO	PEZ	10	[0, 0, 0]	-999	PAL1	0	R1082N
1268.261	2.557	2600784	REC_START	n/a	n/a	3	-999	n/a	OVEJA	n/a	n/a	10	[0, 0, 0]	-999	PAL1	0	R1082N
1270.818	2.459	2603341	REC_EVENT	2557	n/a	3	1	PEZ	OVEJA	CORDERO	PEZ	10	[0, 0, 0]	-999	PAL1	0	R1082N
1273.277	0.017	2605800	REC_END	n/a	n/a	3	-999	n/a	n/a	n/a	n/a	10	[0, 0, 0]	-999	PAL1	0	R1082N
1273.294	0.967	2605817	TEST_ORIENT	n/a	n/a	2	2	RED	CORAZON	RED	CORAZON	10	[0, 0, 0]	-999	PAL1	0	R1082N
1274.261	0.001	2606784	TEST_PROBE	n/a	wordpools/wordpool_SP.txt	2	2	RED	CORAZON	RED	CORAZON	10	[0, 0, 0]	-999	PAL1	0	R1082N
1274.262	1.195	2606785	REC_START	n/a	n/a	2	-999	n/a	CORAZON	n/a	n/a	10	[0, 0, 0]	-999	PAL1	0	R1082N
1275.457	3.829	2607980	REC_EVENT	1195	n/a	2	2	RED	CORAZON	RED	CORAZON	10	[0, 0, 0]	-999	PAL1	0	R1082N
1279.286	0.009	2611809	REC_END	n/a	n/a	2	-999	n/a	n/a	n/a	n/a	10	[0, 0, 0]	-999	PAL1	0	R1082N
1279.295	1.0	2611818	TEST_ORIENT	n/a	n/a	1	3	COLA	n/a	COLINA	COLA	10	[0, 0, 0]	-999	PAL1	0	R1082N
1280.295	0.001	2612818	TEST_PROBE	n/a	wordpools/wordpool_SP.txt	1	3	COLA	n/a	COLINA	COLA	10	[0, 0, 0]	-999	PAL1	0	R1082N
1280.296	5.008	2612819	REC_START	n/a	n/a	1	-999	n/a	n/a	n/a	n/a	10	[0, 0, 0]	-999	PAL1	0	R1082N
1285.304	0.001	2617826	REC_END	n/a	n/a	1	-999	n/a	n/a	n/a	n/a	10	[0, 0, 0]	-999	PAL1	0	R1082N
1285.305	0.008	2617827	REC_EVENT	5009	n/a	1	3	COLA	<>	COLINA	COLA	10	[0, 0, 0]	-999	PAL1	0	R1082N
1285.313	0.817	2617835	TEST_ORIENT	n/a	n/a	4	4	TAPETE	n/a	JAULA	TAPETE	10	[0, 0, 0]	-999	PAL1	0	R1082N
1286.13	0.0	2618652	TEST_PROBE	n/a	wordpools/wordpool_SP.txt	4	4	TAPETE	n/a	JAULA	TAPETE	10	[0, 0, 0]	-999	PAL1	0	R1082N
1286.13	3.875	2618652	REC_START	n/a	n/a	4	-999	n/a	n/a	n/a	n/a	10	[0, 0, 0]	-999	PAL1	0	R1082N
1290.005	1.142	2622527	REC_EVENT	3875	n/a	4	4	TAPETE	<>	JAULA	TAPETE	10	[0, 0, 0]	-999	PAL1	0	R1082N
1291.147	0.017	2623669	REC_END	n/a	n/a	4	-999	n/a	n/a	n/a	n/a	10	[0, 0, 0]	-999	PAL1	0	R1082N
1291.164	0.95	2623686	TEST_ORIENT	n/a	n/a	5	5	MONO	n/a	MONO	MURCIELAGO	10	[0, 0, 0]	-999	PAL1	0	R1082N
1292.114	0.001	2624636	TEST_PROBE	n/a	wordpools/wordpool_SP.txt	5	5	MONO	n/a	MONO	MURCIELAGO	10	[0, 0, 0]	-999	PAL1	0	R1082N
1292.115	5.029	2624637	REC_START	n/a	n/a	5	-999	n/a	n/a	n/a	n/a	10	[0, 0, 0]	-999	PAL1	0	R1082N
1297.144	0.003	2629666	REC_END	n/a	n/a	5	-999	n/a	n/a	n/a	n/a	10	[0, 0, 0]	-999	PAL1	0	R1082N
1297.147	0.018	2629669	REC_EVENT	5032	n/a	5	5	MONO	<>	MONO	MURCIELAGO	10	[0, 0, 0]	-999	PAL1	0	R1082N
1297.165	0.799	2629687	TEST_ORIENT	n/a	n/a	6	6	PULGA	VIENTO	PULGA	VENTILADOR	10	[0, 0, 0]	-999	PAL1	0	R1082N
1297.964	0.001	2630486	TEST_PROBE	n/a	wordpools/wordpool_SP.txt	6	6	PULGA	VIENTO	PULGA	VENTILADOR	10	[0, 0, 0]	-999	PAL1	0	R1082N
1297.965	2.041	2630487	REC_START	n/a	n/a	6	-999	n/a	VIENTO	n/a	n/a	10	[0, 0, 0]	-999	PAL1	0	R1082N
1300.006	2.983	2632528	REC_EVENT	2041	n/a	6	6	PULGA	VIENTO	PULGA	VENTILADOR	10	[0, 0, 0]	-999	PAL1	0	R1082N
1302.989	0.026	2635511	REC_END	n/a	n/a	6	-999	n/a	n/a	n/a	n/a	10	[0, 0, 0]	-999	PAL1	0	R1082N
1303.015	11.492	2635537	FEEDBACK_SHOW_ALL_PAIRS	n/a	n/a	6	-999	n/a	n/a	n/a	n/a	10	[0, 0, 0]	-999	PAL1	0	R1082N
1314.507	10.445	2647028	ENCODING_START	n/a	n/a	0	-999	n/a	n/a	n/a	n/a	11	[0, 0, 0]	-999	PAL1	0	R1082N
1324.952	0.933	2657473	STUDY_ORIENT	n/a	n/a	1	3	SELLO	SIETE	SELLO	PELICULA	11	[0, 0, 0]	-999	PAL1	0	R1082N
1325.885	5.018	2658406	STUDY_PAIR	n/a	wordpools/wordpool_SP.txt	1	3	SELLO	SIETE	SELLO	PELICULA	11	[0, 0, 0]	-999	PAL1	0	R1082N
1330.903	0.768	2663424	STUDY_ORIENT	n/a	n/a	2	4	BUHO	n/a	BUHO	CUERDA	11	[0, 0, 0]	-999	PAL1	0	R1082N
1331.671	5.034	2664192	STUDY_PAIR	n/a	wordpools/wordpool_SP.txt	2	4	BUHO	n/a	BUHO	CUERDA	11	[0, 0, 0]	-999	PAL1	0	R1082N
1336.705	0.933	2669226	STUDY_ORIENT	n/a	n/a	3	1	ROSA	n/a	ARCA	ROSA	11	[0, 0, 0]	-999	PAL1	0	R1082N
1337.638	5.018	2670159	STUDY_PAIR	n/a	wordpools/wordpool_SP.txt	3	1	ROSA	n/a	ARCA	ROSA	11	[0, 0, 0]	-999	PAL1	0	R1082N
1342.656	0.867	2675176	STUDY_ORIENT	n/a	n/a	4	6	PERRO	SOL	PERRO	PLANTA	11	[0, 0, 0]	-999	PAL1	0	R1082N
1343.523	5.034	2676043	STUDY_PAIR	n/a	wordpools/wordpool_SP.txt	4	6	PERRO	SOL	PERRO	PLANTA	11	[0, 0, 0]	-999	PAL1	0	R1082N
1348.557	0.783	2681077	STUDY_ORIENT	n/a	n/a	5	5	BOLSA	ESTRELLA	ESTRELLA	BOLSA	11	[0, 0, 0]	-999	PAL1	0	R1082N
1349.34	5.018	2681860	STUDY_PAIR	n/a	wordpools/wordpool_SP.txt	5	5	BOLSA	ESTRELLA	ESTRELLA	BOLSA	11	[0, 0, 0]	-999	PAL1	0	R1082N
1354.358	0.867	2686878	STUDY_ORIENT	n/a	n/a	6	2	PIERNA	n/a	DIENTES	PIERNA	11	[0, 0, 0]	-999	PAL1	0	R1082N
1355.225	4.017	2687745	STUDY_PAIR	n/a	wordpools/wordpool_SP.txt	6	2	PIERNA	n/a	DIENTES	PIERNA	11	[0, 0, 0]	-999	PAL1	0	R1082N
1359.242	1.0	2691762	START	n/a	n/a	-999	-999	n/a	n/a	n/a	n/a	11	[-999, -999, -999]	-999	PAL1	0	R1082N
1360.242	0.017	2692762	MATH_START	n/a	n/a	-999	-999	n/a	n/a	n/a	n/a	11	[0, 0, 0]	-999	PAL1	0	R1082N
1360.259	5.251	2692779	PROB	5224	n/a	-999	-999	n/a	n/a	n/a	n/a	11	[5, 1, 6]	12	PAL1	0	R1082N
1365.51	4.266	2698030	PROB	4237	n/a	-999	-999	n/a	n/a	n/a	n/a	11	[3, 7, 4]	14	PAL1	0	R1082N
1369.776	3.852	2702295	PROB	3819	n/a	-999	-999	n/a	n/a	n/a	n/a	11	[6, 3, 8]	19	PAL1	0	R1082N
1373.628	2.9	2706147	PROB	2879	n/a	-999	-999	n/a	n/a	n/a	n/a	11	[5, 2, 1]	8	PAL1	0	R1082N
1376.528	3.651	2709047	PROB	3651	n/a	-999	-999	n/a	n/a	n/a	n/a	11	[2, 7, 1]	10	PAL1	0	R1082N
1380.179	0.017	2712698	STOP	n/a	n/a	-999	-999	n/a	n/a	n/a	n/a	11	[-999, -999, -999]	-999	PAL1	0	R1082N
1380.196	0.0	2712715	MATH_END	n/a	n/a	-999	-999	n/a	n/a	n/a	n/a	11	[0, 0, 0]	-999	PAL1	0	R1082N
1380.196	0.016	2712715	TEST_START	n/a	n/a	-999	-999	n/a	n/a	n/a	n/a	11	[0, 0, 0]	-999	PAL1	0	R1082N
1380.212	0.967	2712731	TEST_ORIENT	n/a	n/a	3	1	ROSA	n/a	ARCA	ROSA	11	[0, 0, 0]	-999	PAL1	0	R1082N
1381.179	0.0	2713698	TEST_PROBE	n/a	wordpools/wordpool_SP.txt	3	1	ROSA	n/a	ARCA	ROSA	11	[0, 0, 0]	-999	PAL1	0	R1082N
1381.179	5.015	2713698	REC_START	n/a	n/a	3	-999	n/a	n/a	n/a	n/a	11	[0, 0, 0]	-999	PAL1	0	R1082N
1386.194	0.002	2718713	REC_EVENT	5015	n/a	3	1	ROSA	<>	ARCA	ROSA	11	[0, 0, 0]	-999	PAL1	0	R1082N
1386.196	0.017	2718715	REC_END	n/a	n/a	3	-999	n/a	n/a	n/a	n/a	11	[0, 0, 0]	-999	PAL1	0	R1082N
1386.213	0.984	2718732	TEST_ORIENT	n/a	n/a	6	2	PIERNA	n/a	DIENTES	PIERNA	11	[0, 0, 0]	-999	PAL1	0	R1082N
1387.197	0.0	2719716	TEST_PROBE	n/a	wordpools/wordpool_SP.txt	6	2	PIERNA	n/a	DIENTES	PIERNA	11	[0, 0, 0]	-999	PAL1	0	R1082N
1387.197	5.015	2719716	REC_START	n/a	n/a	6	-999	n/a	n/a	n/a	n/a	11	[0, 0, 0]	-999	PAL1	0	R1082N
1392.212	0.002	2724731	REC_EVENT	5015	n/a	6	2	PIERNA	<>	DIENTES	PIERNA	11	[0, 0, 0]	-999	PAL1	0	R1082N
1392.214	0.017	2724733	REC_END	n/a	n/a	6	-999	n/a	n/a	n/a	n/a	11	[0, 0, 0]	-999	PAL1	0	R1082N
1392.231	0.883	2724750	TEST_ORIENT	n/a	n/a	1	3	SELLO	SIETE	SELLO	PELICULA	11	[0, 0, 0]	-999	PAL1	0	R1082N
1393.114	0.001	2725633	TEST_PROBE	n/a	wordpools/wordpool_SP.txt	1	3	SELLO	SIETE	SELLO	PELICULA	11	[0, 0, 0]	-999	PAL1	0	R1082N
1393.115	2.681	2725634	REC_START	n/a	n/a	1	-999	n/a	SIETE	n/a	n/a	11	[0, 0, 0]	-999	PAL1	0	R1082N
1395.796	1.421	2728314	REC_EVENT	2681	n/a	1	3	SELLO	SIETE	SELLO	PELICULA	11	[0, 0, 0]	-999	PAL1	0	R1082N
1397.217	0.906	2729735	REC_EVENT	4102	n/a	1	3	SELLO	<>	SELLO	PELICULA	11	[0, 0, 0]	-999	PAL1	0	R1082N
1398.123	0.009	2730641	REC_END	n/a	n/a	1	-999	n/a	n/a	n/a	n/a	11	[0, 0, 0]	-999	PAL1	0	R1082N
1398.132	0.849	2730650	TEST_ORIENT	n/a	n/a	2	4	BUHO	n/a	BUHO	CUERDA	11	[0, 0, 0]	-999	PAL1	0	R1082N
1398.981	0.001	2731499	TEST_PROBE	n/a	wordpools/wordpool_SP.txt	2	4	BUHO	n/a	BUHO	CUERDA	11	[0, 0, 0]	-999	PAL1	0	R1082N
1398.982	5.015	2731500	REC_START	n/a	n/a	2	-999	n/a	n/a	n/a	n/a	11	[0, 0, 0]	-999	PAL1	0	R1082N
1403.997	0.001	2736515	REC_EVENT	5015	n/a	2	4	BUHO	<>	BUHO	CUERDA	11	[0, 0, 0]	-999	PAL1	0	R1082N
1403.998	0.017	2736516	REC_END	n/a	n/a	2	-999	n/a	n/a	n/a	n/a	11	[0, 0, 0]	-999	PAL1	0	R1082N
1404.015	0.9	2736533	TEST_ORIENT	n/a	n/a	5	5	BOLSA	ESTRELLA	ESTRELLA	BOLSA	11	[0, 0, 0]	-999	PAL1	0	R1082N
1404.915	0.001	2737433	TEST_PROBE	n/a	wordpools/wordpool_SP.txt	5	5	BOLSA	ESTRELLA	ESTRELLA	BOLSA	11	[0, 0, 0]	-999	PAL1	0	R1082N
1404.916	1.795	2737434	REC_START	n/a	n/a	5	-999	n/a	ESTRELLA	n/a	n/a	11	[0, 0, 0]	-999	PAL1	0	R1082N
1406.711	3.205	2739229	REC_EVENT	1795	n/a	5	5	BOLSA	ESTRELLA	ESTRELLA	BOLSA	11	[0, 0, 0]	-999	PAL1	0	R1082N
1409.916	0.017	2742434	REC_END	n/a	n/a	5	-999	n/a	n/a	n/a	n/a	11	[0, 0, 0]	-999	PAL1	0	R1082N
1409.933	0.967	2742451	TEST_ORIENT	n/a	n/a	4	6	PERRO	SOL	PERRO	PLANTA	11	[0, 0, 0]	-999	PAL1	0	R1082N
1410.9	0.0	2743418	TEST_PROBE	n/a	wordpools/wordpool_SP.txt	4	6	PERRO	SOL	PERRO	PLANTA	11	[0, 0, 0]	-999	PAL1	0	R1082N
1410.9	1.575	2743418	REC_START	n/a	n/a	4	-999	n/a	SOL	n/a	n/a	11	[0, 0, 0]	-999	PAL1	0	R1082N
1412.475	1.2	2744993	REC_EVENT	1575	n/a	4	6	PERRO	<>	PERRO	PLANTA	11	[0, 0, 0]	-999	PAL1	0	R1082N
1413.675	2.242	2746193	REC_EVENT	2775	n/a	4	6	PERRO	SOL	PERRO	PLANTA	11	[0, 0, 0]	-999	PAL1	0	R1082N
1415.917	0.034	2748435	REC_END	n/a	n/a	4	-999	n/a	n/a	n/a	n/a	11	[0, 0, 0]	-999	PAL1	0	R1082N
1415.951	11.7	2748469	FEEDBACK_SHOW_ALL_PAIRS	n/a	n/a	4	-999	n/a	n/a	n/a	n/a	11	[0, 0, 0]	-999	PAL1	0	R1082N
1427.651	10.438	2760168	ENCODING_START	n/a	n/a	0	-999	n/a	n/a	n/a	n/a	12	[0, 0, 0]	-999	PAL1	0	R1082N
1438.089	0.899	2770606	STUDY_ORIENT	n/a	n/a	1	5	TIZA	FUERTE	FUERTE	TIZA	12	[0, 0, 0]	-999	PAL1	0	R1082N
1438.988	5.034	2771505	STUDY_PAIR	n/a	wordpools/wordpool_SP.txt	1	5	TIZA	FUERTE	FUERTE	TIZA	12	[0, 0, 0]	-999	PAL1	0	R1082N
1444.022	0.8	2776539	STUDY_ORIENT	n/a	n/a	2	4	SAL	n/a	FLAUTA	SAL	12	[0, 0, 0]	-999	PAL1	0	R1082N
1444.822	5.034	2777339	STUDY_PAIR	n/a	wordpools/wordpool_SP.txt	2	4	SAL	n/a	FLAUTA	SAL	12	[0, 0, 0]	-999	PAL1	0	R1082N
1449.856	0.967	2782373	STUDY_ORIENT	n/a	n/a	3	3	CAMA	BASTON	CAMA	BASTON	12	[0, 0, 0]	-999	PAL1	0	R1082N
1450.823	5.018	2783340	STUDY_PAIR	n/a	wordpools/wordpool_SP.txt	3	3	CAMA	BASTON	CAMA	BASTON	12	[0, 0, 0]	-999	PAL1	0	R1082N
1455.841	0.901	2788357	STUDY_ORIENT	n/a	n/a	4	6	PISO	ZAPATO	PISO	BOTA	12	[0, 0, 0]	-999	PAL1	0	R1082N
1456.742	5.033	2789258	STUDY_PAIR	n/a	wordpools/wordpool_SP.txt	4	6	PISO	ZAPATO	PISO	BOTA	12	[0, 0, 0]	-999	PAL1	0	R1082N
1461.775	0.784	2794291	STUDY_ORIENT	n/a	n/a	5	1	PIEDRA	n/a	TELARANA	PIEDRA	12	[0, 0, 0]	-999	PAL1	0	R1082N
1462.559	5.018	2795075	STUDY_PAIR	n/a	wordpools/wordpool_SP.txt	5	1	PIEDRA	n/a	TELARANA	PIEDRA	12	[0, 0, 0]	-999	PAL1	0	R1082N
1467.577	0.967	2800093	STUDY_ORIENT	n/a	n/a	6	2	ESCUELA	PATO	ESCUELA	PATO	12	[0, 0, 0]	-999	PAL1	0	R1082N
1468.544	4.018	2801060	STUDY_PAIR	n/a	wordpools/wordpool_SP.txt	6	2	ESCUELA	PATO	ESCUELA	PATO	12	[0, 0, 0]	-999	PAL1	0	R1082N
1472.562	0.999	2805078	START	n/a	n/a	-999	-999	n/a	n/a	n/a	n/a	12	[-999, -999, -999]	-999	PAL1	0	R1082N
1473.561	0.017	2806077	MATH_START	n/a	n/a	-999	-999	n/a	n/a	n/a	n/a	12	[0, 0, 0]	-999	PAL1	0	R1082N
1473.578	3.867	2806094	PROB	3841	n/a	-999	-999	n/a	n/a	n/a	n/a	12	[1, 7, 6]	14	PAL1	0	R1082N
1477.445	1.734	2809961	PROB	1702	n/a	-999	-999	n/a	n/a	n/a	n/a	12	[4, 1, 6]	11	PAL1	0	R1082N
1479.179	6.168	2811695	PROB	6136	n/a	-999	-999	n/a	n/a	n/a	n/a	12	[6, 6, 8]	20	PAL1	0	R1082N
1485.347	3.05	2817862	PROB	3016	n/a	-999	-999	n/a	n/a	n/a	n/a	12	[3, 7, 4]	14	PAL1	0	R1082N
1488.397	3.067	2820912	PROB	3046	n/a	-999	-999	n/a	n/a	n/a	n/a	12	[8, 8, 2]	8	PAL1	0	R1082N
1491.464	2.506	2823979	PROB	2506	n/a	-999	-999	n/a	n/a	n/a	n/a	12	[3, 5, 4]	13	PAL1	0	R1082N
1493.97	0.011	2826485	STOP	n/a	n/a	-999	-999	n/a	n/a	n/a	n/a	12	[-999, -999, -999]	-999	PAL1	0	R1082N
1493.981	0.0	2826496	MATH_END	n/a	n/a	-999	-999	n/a	n/a	n/a	n/a	12	[0, 0, 0]	-999	PAL1	0	R1082N
1493.981	0.016	2826496	TEST_START	n/a	n/a	-999	-999	n/a	n/a	n/a	n/a	12	[0, 0, 0]	-999	PAL1	0	R1082N
1493.997	0.9	2826512	TEST_ORIENT	n/a	n/a	5	1	PIEDRA	n/a	TELARANA	PIEDRA	12	[0, 0, 0]	-999	PAL1	0	R1082N
1494.897	0.001	2827412	TEST_PROBE	n/a	wordpools/wordpool_SP.txt	5	1	PIEDRA	n/a	TELARANA	PIEDRA	12	[0, 0, 0]	-999	PAL1	0	R1082N
1494.898	5.009	2827413	REC_START	n/a	n/a	5	-999	n/a	n/a	n/a	n/a	12	[0, 0, 0]	-999	PAL1	0	R1082N
1499.907	0.001	2832422	REC_EVENT	5009	n/a	5	1	PIEDRA	<>	TELARANA	PIEDRA	12	[0, 0, 0]	-999	PAL1	0	R1082N
1499.908	0.007	2832423	REC_END	n/a	n/a	5	-999	n/a	n/a	n/a	n/a	12	[0, 0, 0]	-999	PAL1	0	R1082N
1499.915	0.933	2832430	TEST_ORIENT	n/a	n/a	6	2	ESCUELA	PATO	ESCUELA	PATO	12	[0, 0, 0]	-999	PAL1	0	R1082N
1500.848	0.001	2833363	TEST_PROBE	n/a	wordpools/wordpool_SP.txt	6	2	ESCUELA	PATO	ESCUELA	PATO	12	[0, 0, 0]	-999	PAL1	0	R1082N
1500.849	1.41	2833364	REC_START	n/a	n/a	6	-999	n/a	PATO	n/a	n/a	12	[0, 0, 0]	-999	PAL1	0	R1082N
1502.259	3.599	2834774	REC_EVENT	1410	n/a	6	2	ESCUELA	PATO	ESCUELA	PATO	12	[0, 0, 0]	-999	PAL1	0	R1082N
1505.858	0.008	2838373	REC_END	n/a	n/a	6	-999	n/a	n/a	n/a	n/a	12	[0, 0, 0]	-999	PAL1	0	R1082N
1505.866	0.917	2838381	TEST_ORIENT	n/a	n/a	3	3	CAMA	BASTON	CAMA	BASTON	12	[0, 0, 0]	-999	PAL1	0	R1082N
1506.783	0.0	2839298	TEST_PROBE	n/a	wordpools/wordpool_SP.txt	3	3	CAMA	BASTON	CAMA	BASTON	12	[0, 0, 0]	-999	PAL1	0	R1082N
1506.783	2.29	2839298	REC_START	n/a	n/a	3	-999	n/a	BASTON	n/a	n/a	12	[0, 0, 0]	-999	PAL1	0	R1082N
1509.073	0.734	2841587	REC_EVENT	2290	n/a	3	3	CAMA	GUSANO	CAMA	BASTON	12	[0, 0, 0]	-999	PAL1	0	R1082N
1509.807	0.831	2842321	REC_EVENT	3024	n/a	3	3	CAMA	<>	CAMA	BASTON	12	[0, 0, 0]	-999	PAL1	0	R1082N
1510.638	1.162	2843152	REC_EVENT	3855	n/a	3	3	CAMA	BASTON	CAMA	BASTON	12	[0, 0, 0]	-999	PAL1	0	R1082N
1511.8	0.017	2844314	REC_END	n/a	n/a	3	-999	n/a	n/a	n/a	n/a	12	[0, 0, 0]	-999	PAL1	0	R1082N
1511.817	0.934	2844331	TEST_ORIENT	n/a	n/a	2	4	SAL	n/a	FLAUTA	SAL	12	[0, 0, 0]	-999	PAL1	0	R1082N
1512.751	0.001	2845265	TEST_PROBE	n/a	wordpools/wordpool_SP.txt	2	4	SAL	n/a	FLAUTA	SAL	12	[0, 0, 0]	-999	PAL1	0	R1082N
1512.752	4.809	2845266	REC_START	n/a	n/a	2	-999	n/a	n/a	n/a	n/a	12	[0, 0, 0]	-999	PAL1	0	R1082N
1517.561	0.2	2850075	REC_EVENT	4809	n/a	2	4	SAL	<>	FLAUTA	SAL	12	[0, 0, 0]	-999	PAL1	0	R1082N
1517.761	0.007	2850275	REC_END	n/a	n/a	2	-999	n/a	n/a	n/a	n/a	12	[0, 0, 0]	-999	PAL1	0	R1082N
1517.768	0.801	2850282	TEST_ORIENT	n/a	n/a	1	5	TIZA	FUERTE	FUERTE	TIZA	12	[0, 0, 0]	-999	PAL1	0	R1082N
1518.569	0.0	2851083	TEST_PROBE	n/a	wordpools/wordpool_SP.txt	1	5	TIZA	FUERTE	FUERTE	TIZA	12	[0, 0, 0]	-999	PAL1	0	R1082N
1518.569	1.761	2851083	REC_START	n/a	n/a	1	-999	n/a	FUERTE	n/a	n/a	12	[0, 0, 0]	-999	PAL1	0	R1082N
1520.33	3.256	2852844	REC_EVENT	1761	n/a	1	5	TIZA	FUERTE	FUERTE	TIZA	12	[0, 0, 0]	-999	PAL1	0	R1082N
1523.586	0.017	2856100	REC_END	n/a	n/a	1	-999	n/a	n/a	n/a	n/a	12	[0, 0, 0]	-999	PAL1	0	R1082N
1523.603	0.8	2856117	TEST_ORIENT	n/a	n/a	4	6	PISO	ZAPATO	PISO	BOTA	12	[0, 0, 0]	-999	PAL1	0	R1082N
1524.403	0.001	2856917	TEST_PROBE	n/a	wordpools/wordpool_SP.txt	4	6	PISO	ZAPATO	PISO	BOTA	12	[0, 0, 0]	-999	PAL1	0	R1082N
1524.404	1.747	2856918	REC_START	n/a	n/a	4	-999	n/a	ZAPATO	n/a	n/a	12	[0, 0, 0]	-999	PAL1	0	R1082N
1526.151	3.262	2858665	REC_EVENT	1747	n/a	4	6	PISO	ZAPATO	PISO	BOTA	12	[0, 0, 0]	-999	PAL1	0	R1082N
1529.413	0.024	2861927	REC_END	n/a	n/a	4	-999	n/a	n/a	n/a	n/a	12	[0, 0, 0]	-999	PAL1	0	R1082N
1529.437	13.11	2861951	FEEDBACK_SHOW_ALL_PAIRS	n/a	n/a	4	-999	n/a	n/a	n/a	n/a	12	[0, 0, 0]	-999	PAL1	0	R1082N
1542.547	10.444	2875060	ENCODING_START	n/a	n/a	0	-999	n/a	n/a	n/a	n/a	13	[0, 0, 0]	-999	PAL1	0	R1082N
1552.991	0.816	2885504	STUDY_ORIENT	n/a	n/a	1	1	JUGO	n/a	JUGO	TORMENTA	13	[0, 0, 0]	-999	PAL1	0	R1082N
1553.807	5.018	2886320	STUDY_PAIR	n/a	wordpools/wordpool_SP.txt	1	1	JUGO	n/a	JUGO	TORMENTA	13	[0, 0, 0]	-999	PAL1	0	R1082N
1558.825	0.901	2891338	STUDY_ORIENT	n/a	n/a	2	2	CALLE	GATO	CALLE	GATO	13	[0, 0, 0]	-999	PAL1	0	R1082N
1559.726	5.033	2892239	STUDY_PAIR	n/a	wordpools/wordpool_SP.txt	2	2	CALLE	GATO	CALLE	GATO	13	[0, 0, 0]	-999	PAL1	0	R1082N
1564.759	0.785	2897271	STUDY_ORIENT	n/a	n/a	3	5	OLA	PLANTA	HIERBA	OLA	13	[0, 0, 0]	-999	PAL1	0	R1082N
1565.544	5.034	2898056	STUDY_PAIR	n/a	wordpools/wordpool_SP.txt	3	5	OLA	PLANTA	HIERBA	OLA	13	[0, 0, 0]	-999	PAL1	0	R1082N
1570.578	0.95	2903090	STUDY_ORIENT	n/a	n/a	4	4	PERA	CERCA	PERA	CERCA	13	[0, 0, 0]	-999	PAL1	0	R1082N
1571.528	5.034	2904040	STUDY_PAIR	n/a	wordpools/wordpool_SP.txt	4	4	PERA	CERCA	PERA	CERCA	13	[0, 0, 0]	-999	PAL1	0	R1082N
1576.562	0.884	2909074	STUDY_ORIENT	n/a	n/a	5	3	CUERVO	n/a	COSTILLA	CUERVO	13	[0, 0, 0]	-999	PAL1	0	R1082N
1577.446	5.034	2909958	STUDY_PAIR	n/a	wordpools/wordpool_SP.txt	5	3	CUERVO	n/a	COSTILLA	CUERVO	13	[0, 0, 0]	-999	PAL1	0	R1082N
1582.48	0.867	2914992	STUDY_ORIENT	n/a	n/a	6	6	CABALLO	REMO	CABALLO	REMO	13	[0, 0, 0]	-999	PAL1	0	R1082N
1583.347	4.017	2915859	STUDY_PAIR	n/a	wordpools/wordpool_SP.txt	6	6	CABALLO	REMO	CABALLO	REMO	13	[0, 0, 0]	-999	PAL1	0	R1082N
1587.364	1.0	2919876	START	n/a	n/a	-999	-999	n/a	n/a	n/a	n/a	13	[-999, -999, -999]	-999	PAL1	0	R1082N
1588.364	0.017	2920876	MATH_START	n/a	n/a	-999	-999	n/a	n/a	n/a	n/a	13	[0, 0, 0]	-999	PAL1	0	R1082N
1588.381	4.117	2920893	PROB	4086	n/a	-999	-999	n/a	n/a	n/a	n/a	13	[7, 5, 1]	13	PAL1	0	R1082N
1592.498	3.801	2925009	PROB	3769	n/a	-999	-999	n/a	n/a	n/a	n/a	13	[8, 8, 4]	20	PAL1	0	R1082N
1596.299	2.716	2928810	PROB	2695	n/a	-999	-999	n/a	n/a	n/a	n/a	13	[5, 5, 5]	15	PAL1	0	R1082N
1599.015	2.151	2931526	PROB	2116	n/a	-999	-999	n/a	n/a	n/a	n/a	13	[5, 5, 3]	13	PAL1	0	R1082N
1601.166	2.117	2933677	PROB	2085	n/a	-999	-999	n/a	n/a	n/a	n/a	13	[1, 6, 2]	9	PAL1	0	R1082N
1603.283	3.334	2935794	PROB	3312	n/a	-999	-999	n/a	n/a	n/a	n/a	13	[5, 9, 1]	15	PAL1	0	R1082N
1606.617	5.09	2939128	PROB	5090	n/a	-999	-999	n/a	n/a	n/a	n/a	13	[7, 4, 8]	19	PAL1	0	R1082N
1611.707	0.011	2944218	STOP	n/a	n/a	-999	-999	n/a	n/a	n/a	n/a	13	[-999, -999, -999]	-999	PAL1	0	R1082N
1611.718	0.0	2944229	MATH_END	n/a	n/a	-999	-999	n/a	n/a	n/a	n/a	13	[0, 0, 0]	-999	PAL1	0	R1082N
1611.718	0.017	2944229	TEST_START	n/a	n/a	-999	-999	n/a	n/a	n/a	n/a	13	[0, 0, 0]	-999	PAL1	0	R1082N
1611.735	1.0	2944246	TEST_ORIENT	n/a	n/a	1	1	JUGO	n/a	JUGO	TORMENTA	13	[0, 0, 0]	-999	PAL1	0	R1082N
1612.735	0.0	2945246	REC_START	n/a	n/a	1	-999	n/a	n/a	n/a	n/a	13	[0, 0, 0]	-999	PAL1	0	R1082N
1612.735	5.015	2945246	TEST_PROBE	n/a	wordpools/wordpool_SP.txt	1	1	JUGO	n/a	JUGO	TORMENTA	13	[0, 0, 0]	-999	PAL1	0	R1082N
1617.75	0.002	2950261	REC_EVENT	5015	n/a	1	1	JUGO	<>	JUGO	TORMENTA	13	[0, 0, 0]	-999	PAL1	0	R1082N
1617.752	0.016	2950263	REC_END	n/a	n/a	1	-999	n/a	n/a	n/a	n/a	13	[0, 0, 0]	-999	PAL1	0	R1082N
1617.768	0.801	2950279	TEST_ORIENT	n/a	n/a	2	2	CALLE	GATO	CALLE	GATO	13	[0, 0, 0]	-999	PAL1	0	R1082N
1618.569	0.001	2951079	TEST_PROBE	n/a	wordpools/wordpool_SP.txt	2	2	CALLE	GATO	CALLE	GATO	13	[0, 0, 0]	-999	PAL1	0	R1082N
1618.57	1.134	2951080	REC_START	n/a	n/a	2	-999	n/a	GATO	n/a	n/a	13	[0, 0, 0]	-999	PAL1	0	R1082N
1619.704	3.875	2952214	REC_EVENT	1134	n/a	2	2	CALLE	GATO	CALLE	GATO	13	[0, 0, 0]	-999	PAL1	0	R1082N
1623.579	0.007	2956089	REC_END	n/a	n/a	2	-999	n/a	n/a	n/a	n/a	13	[0, 0, 0]	-999	PAL1	0	R1082N
1623.586	0.867	2956096	TEST_ORIENT	n/a	n/a	5	3	CUERVO	n/a	COSTILLA	CUERVO	13	[0, 0, 0]	-999	PAL1	0	R1082N
1624.453	0.001	2956963	TEST_PROBE	n/a	wordpools/wordpool_SP.txt	5	3	CUERVO	n/a	COSTILLA	CUERVO	13	[0, 0, 0]	-999	PAL1	0	R1082N
1624.454	5.009	2956964	REC_START	n/a	n/a	5	-999	n/a	n/a	n/a	n/a	13	[0, 0, 0]	-999	PAL1	0	R1082N
1629.463	0.001	2961973	REC_EVENT	5009	n/a	5	3	CUERVO	<>	COSTILLA	CUERVO	13	[0, 0, 0]	-999	PAL1	0	R1082N
1629.464	0.007	2961974	REC_END	n/a	n/a	5	-999	n/a	n/a	n/a	n/a	13	[0, 0, 0]	-999	PAL1	0	R1082N
1629.471	1.017	2961981	TEST_ORIENT	n/a	n/a	4	4	PERA	CERCA	PERA	CERCA	13	[0, 0, 0]	-999	PAL1	0	R1082N
1630.488	0.001	2962998	TEST_PROBE	n/a	wordpools/wordpool_SP.txt	4	4	PERA	CERCA	PERA	CERCA	13	[0, 0, 0]	-999	PAL1	0	R1082N
1630.489	1.373	2962999	REC_START	n/a	n/a	4	-999	n/a	CERCA	n/a	n/a	13	[0, 0, 0]	-999	PAL1	0	R1082N
1631.862	3.652	2964372	REC_EVENT	1373	n/a	4	4	PERA	CERCA	PERA	CERCA	13	[0, 0, 0]	-999	PAL1	0	R1082N
1635.514	0.008	2968024	REC_END	n/a	n/a	4	-999	n/a	n/a	n/a	n/a	13	[0, 0, 0]	-999	PAL1	0	R1082N
1635.522	1.034	2968032	TEST_ORIENT	n/a	n/a	3	5	OLA	PLANTA	HIERBA	OLA	13	[0, 0, 0]	-999	PAL1	0	R1082N
1636.556	0.0	2969066	TEST_PROBE	n/a	wordpools/wordpool_SP.txt	3	5	OLA	PLANTA	HIERBA	OLA	13	[0, 0, 0]	-999	PAL1	0	R1082N
1636.556	1.435	2969066	REC_START	n/a	n/a	3	-999	n/a	PLANTA	n/a	n/a	13	[0, 0, 0]	-999	PAL1	0	R1082N
1637.991	3.582	2970501	REC_EVENT	1435	n/a	3	5	OLA	PLANTA	HIERBA	OLA	13	[0, 0, 0]	-999	PAL1	0	R1082N
1641.573	0.017	2974083	REC_END	n/a	n/a	3	-999	n/a	n/a	n/a	n/a	13	[0, 0, 0]	-999	PAL1	0	R1082N
1641.59	0.883	2974100	TEST_ORIENT	n/a	n/a	6	6	CABALLO	REMO	CABALLO	REMO	13	[0, 0, 0]	-999	PAL1	0	R1082N
1642.473	0.001	2974983	TEST_PROBE	n/a	wordpools/wordpool_SP.txt	6	6	CABALLO	REMO	CABALLO	REMO	13	[0, 0, 0]	-999	PAL1	0	R1082N
1642.474	1.485	2974984	REC_START	n/a	n/a	6	-999	n/a	REMO	n/a	n/a	13	[0, 0, 0]	-999	PAL1	0	R1082N
1643.959	3.525	2976469	REC_EVENT	1485	n/a	6	6	CABALLO	REMO	CABALLO	REMO	13	[0, 0, 0]	-999	PAL1	0	R1082N
1647.484	0.023	2979993	REC_END	n/a	n/a	6	-999	n/a	n/a	n/a	n/a	13	[0, 0, 0]	-999	PAL1	0	R1082N
1647.507	16.944	2980016	FEEDBACK_SHOW_ALL_PAIRS	n/a	n/a	6	-999	n/a	n/a	n/a	n/a	13	[0, 0, 0]	-999	PAL1	0	R1082N
1664.451	10.443	2996960	ENCODING_START	n/a	n/a	0	-999	n/a	n/a	n/a	n/a	14	[0, 0, 0]	-999	PAL1	0	R1082N
1674.894	0.901	3007402	STUDY_ORIENT	n/a	n/a	1	1	JARRON	NINO	NINO	JARRON	14	[0, 0, 0]	-999	PAL1	0	R1082N
1675.795	5.034	3008303	STUDY_PAIR	n/a	wordpools/wordpool_SP.txt	1	1	JARRON	NINO	NINO	JARRON	14	[0, 0, 0]	-999	PAL1	0	R1082N
1680.829	0.95	3013337	STUDY_ORIENT	n/a	n/a	2	6	POLILLA	OSO	POLILLA	OSO	14	[0, 0, 0]	-999	PAL1	0	R1082N
1681.779	5.034	3014287	STUDY_PAIR	n/a	wordpools/wordpool_SP.txt	2	6	POLILLA	OSO	POLILLA	OSO	14	[0, 0, 0]	-999	PAL1	0	R1082N
1686.813	1.0	3019321	STUDY_ORIENT	n/a	n/a	3	5	AVION	CARACOL	AVION	CARACOL	14	[0, 0, 0]	-999	PAL1	0	R1082N
1687.813	5.018	3020321	STUDY_PAIR	n/a	wordpools/wordpool_SP.txt	3	5	AVION	CARACOL	AVION	CARACOL	14	[0, 0, 0]	-999	PAL1	0	R1082N
1692.831	0.801	3025339	STUDY_ORIENT	n/a	n/a	4	4	MULA	n/a	MULA	ARBOL	14	[0, 0, 0]	-999	PAL1	0	R1082N
1693.632	5.034	3026140	STUDY_PAIR	n/a	wordpools/wordpool_SP.txt	4	4	MULA	n/a	MULA	ARBOL	14	[0, 0, 0]	-999	PAL1	0	R1082N
1698.666	0.984	3031174	STUDY_ORIENT	n/a	n/a	5	3	MAR	CASA	DURAZNO	MAR	14	[0, 0, 0]	-999	PAL1	0	R1082N
1699.65	5.034	3032158	STUDY_PAIR	n/a	wordpools/wordpool_SP.txt	5	3	MAR	CASA	DURAZNO	MAR	14	[0, 0, 0]	-999	PAL1	0	R1082N
1704.684	0.9	3037191	STUDY_ORIENT	n/a	n/a	6	2	PIPA	n/a	PAPALOTE	PIPA	14	[0, 0, 0]	-999	PAL1	0	R1082N
1705.584	4.018	3038091	STUDY_PAIR	n/a	wordpools/wordpool_SP.txt	6	2	PIPA	n/a	PAPALOTE	PIPA	14	[0, 0, 0]	-999	PAL1	0	R1082N
1709.602	0.999	3042109	START	n/a	n/a	-999	-999	n/a	n/a	n/a	n/a	14	[-999, -999, -999]	-999	PAL1	0	R1082N
1710.601	0.017	3043108	MATH_START	n/a	n/a	-999	-999	n/a	n/a	n/a	n/a	14	[0, 0, 0]	-999	PAL1	0	R1082N
1710.618	7.735	3043125	PROB	7713	n/a	-999	-999	n/a	n/a	n/a	n/a	14	[4, 9, 4]	17	PAL1	0	R1082N
1718.353	3.067	3050860	PROB	3042	n/a	-999	-999	n/a	n/a	n/a	n/a	14	[4, 4, 2]	10	PAL1	0	R1082N
1721.42	4.55	3053927	PROB	4518	n/a	-999	-999	n/a	n/a	n/a	n/a	14	[8, 3, 8]	19	PAL1	0	R1082N
1725.97	2.485	3058477	PROB	2465	n/a	-999	-999	n/a	n/a	n/a	n/a	14	[3, 7, 1]	11	PAL1	0	R1082N
1728.455	4.092	3060962	PROB	4092	n/a	-999	-999	n/a	n/a	n/a	n/a	14	[8, 7, 6]	21	PAL1	0	R1082N
1732.547	0.008	3065053	STOP	n/a	n/a	-999	-999	n/a	n/a	n/a	n/a	14	[-999, -999, -999]	-999	PAL1	0	R1082N
1732.555	0.0	3065061	MATH_END	n/a	n/a	-999	-999	n/a	n/a	n/a	n/a	14	[0, 0, 0]	-999	PAL1	0	R1082N
1732.555	0.017	3065061	TEST_START	n/a	n/a	-999	-999	n/a	n/a	n/a	n/a	14	[0, 0, 0]	-999	PAL1	0	R1082N
1732.572	0.883	3065078	TEST_ORIENT	n/a	n/a	1	1	JARRON	NINO	NINO	JARRON	14	[0, 0, 0]	-999	PAL1	0	R1082N
1733.455	0.001	3065961	TEST_PROBE	n/a	wordpools/wordpool_SP.txt	1	1	JARRON	NINO	NINO	JARRON	14	[0, 0, 0]	-999	PAL1	0	R1082N
1733.456	1.669	3065962	REC_START	n/a	n/a	1	-999	n/a	NINO	n/a	n/a	14	[0, 0, 0]	-999	PAL1	0	R1082N
1735.125	1.275	3067631	REC_EVENT	1669	n/a	1	1	JARRON	<>	NINO	JARRON	14	[0, 0, 0]	-999	PAL1	0	R1082N
1736.4	0.525	3068906	REC_EVENT	2944	n/a	1	1	JARRON	NINO	NINO	JARRON	14	[0, 0, 0]	-999	PAL1	0	R1082N
1736.925	1.541	3069431	REC_EVENT	3469	n/a	1	1	JARRON	<>	NINO	JARRON	14	[0, 0, 0]	-999	PAL1	0	R1082N
1738.466	0.007	3070972	REC_END	n/a	n/a	1	-999	n/a	n/a	n/a	n/a	14	[0, 0, 0]	-999	PAL1	0	R1082N
1738.473	0.8	3070979	TEST_ORIENT	n/a	n/a	6	2	PIPA	n/a	PAPALOTE	PIPA	14	[0, 0, 0]	-999	PAL1	0	R1082N
1739.273	0.001	3071779	TEST_PROBE	n/a	wordpools/wordpool_SP.txt	6	2	PIPA	n/a	PAPALOTE	PIPA	14	[0, 0, 0]	-999	PAL1	0	R1082N
1739.274	5.021	3071780	REC_START	n/a	n/a	6	-999	n/a	n/a	n/a	n/a	14	[0, 0, 0]	-999	PAL1	0	R1082N
1744.295	0.005	3076801	REC_EVENT	5021	n/a	6	2	PIPA	<>	PAPALOTE	PIPA	14	[0, 0, 0]	-999	PAL1	0	R1082N
1744.3	0.007	3076806	REC_END	n/a	n/a	6	-999	n/a	n/a	n/a	n/a	14	[0, 0, 0]	-999	PAL1	0	R1082N
1744.307	0.867	3076813	TEST_ORIENT	n/a	n/a	5	3	MAR	CASA	DURAZNO	MAR	14	[0, 0, 0]	-999	PAL1	0	R1082N
1745.174	0.0	3077680	TEST_PROBE	n/a	wordpools/wordpool_SP.txt	5	3	MAR	CASA	DURAZNO	MAR	14	[0, 0, 0]	-999	PAL1	0	R1082N
1745.174	1.604	3077680	REC_START	n/a	n/a	5	-999	n/a	CASA	n/a	n/a	14	[0, 0, 0]	-999	PAL1	0	R1082N
1746.778	3.413	3079284	REC_EVENT	1604	n/a	5	3	MAR	CASA	DURAZNO	MAR	14	[0, 0, 0]	-999	PAL1	0	R1082N
1750.191	0.017	3082697	REC_END	n/a	n/a	5	-999	n/a	n/a	n/a	n/a	14	[0, 0, 0]	-999	PAL1	0	R1082N
1750.208	1.034	3082714	TEST_ORIENT	n/a	n/a	4	4	MULA	n/a	MULA	ARBOL	14	[0, 0, 0]	-999	PAL1	0	R1082N
1751.242	0.0	3083748	TEST_PROBE	n/a	wordpools/wordpool_SP.txt	4	4	MULA	n/a	MULA	ARBOL	14	[0, 0, 0]	-999	PAL1	0	R1082N
1751.242	2.895	3083748	REC_START	n/a	n/a	4	-999	n/a	n/a	n/a	n/a	14	[0, 0, 0]	-999	PAL1	0	R1082N
1754.137	2.122	3086643	REC_EVENT	2895	n/a	4	4	MULA	<>	MULA	ARBOL	14	[0, 0, 0]	-999	PAL1	0	R1082N
1756.259	0.017	3088765	REC_END	n/a	n/a	4	-999	n/a	n/a	n/a	n/a	14	[0, 0, 0]	-999	PAL1	0	R1082N
1756.276	0.95	3088782	TEST_ORIENT	n/a	n/a	3	5	AVION	CARACOL	AVION	CARACOL	14	[0, 0, 0]	-999	PAL1	0	R1082N
1757.226	0.0	3089732	TEST_PROBE	n/a	wordpools/wordpool_SP.txt	3	5	AVION	CARACOL	AVION	CARACOL	14	[0, 0, 0]	-999	PAL1	0	R1082N
1757.226	1.08	3089732	REC_START	n/a	n/a	3	-999	n/a	CARACOL	n/a	n/a	14	[0, 0, 0]	-999	PAL1	0	R1082N
1758.306	3.937	3090811	REC_EVENT	1080	n/a	3	5	AVION	CARACOL	AVION	CARACOL	14	[0, 0, 0]	-999	PAL1	0	R1082N
1762.243	0.017	3094748	REC_END	n/a	n/a	3	-999	n/a	n/a	n/a	n/a	14	[0, 0, 0]	-999	PAL1	0	R1082N
1762.26	0.883	3094765	TEST_ORIENT	n/a	n/a	2	6	POLILLA	OSO	POLILLA	OSO	14	[0, 0, 0]	-999	PAL1	0	R1082N
1763.143	0.001	3095648	TEST_PROBE	n/a	wordpools/wordpool_SP.txt	2	6	POLILLA	OSO	POLILLA	OSO	14	[0, 0, 0]	-999	PAL1	0	R1082N
1763.144	1.885	3095649	REC_START	n/a	n/a	2	-999	n/a	OSO	n/a	n/a	14	[0, 0, 0]	-999	PAL1	0	R1082N
1765.029	3.127	3097534	REC_EVENT	1885	n/a	2	6	POLILLA	OSO	POLILLA	OSO	14	[0, 0, 0]	-999	PAL1	0	R1082N
1768.156	0.039	3100661	REC_END	n/a	n/a	2	-999	n/a	n/a	n/a	n/a	14	[0, 0, 0]	-999	PAL1	0	R1082N
1768.195	9.583	3100700	FEEDBACK_SHOW_ALL_PAIRS	n/a	n/a	2	-999	n/a	n/a	n/a	n/a	14	[0, 0, 0]	-999	PAL1	0	R1082N
1777.778	10.453	3110283	ENCODING_START	n/a	n/a	0	-999	n/a	n/a	n/a	n/a	15	[0, 0, 0]	-999	PAL1	0	R1082N
1788.231	0.867	3120735	STUDY_ORIENT	n/a	n/a	1	3	MADERA	n/a	CAPA	MADERA	15	[0, 0, 0]	-999	PAL1	0	R1082N
1789.098	5.034	3121602	STUDY_PAIR	n/a	wordpools/wordpool_SP.txt	1	3	MADERA	n/a	CAPA	MADERA	15	[0, 0, 0]	-999	PAL1	0	R1082N
1794.132	1.017	3126636	STUDY_ORIENT	n/a	n/a	2	2	RUEDA	n/a	RUEDA	ROCA	15	[0, 0, 0]	-999	PAL1	0	R1082N
1795.149	5.034	3127653	STUDY_PAIR	n/a	wordpools/wordpool_SP.txt	2	2	RUEDA	n/a	RUEDA	ROCA	15	[0, 0, 0]	-999	PAL1	0	R1082N
1800.183	0.95	3132687	STUDY_ORIENT	n/a	n/a	3	5	CUCHARA	n/a	CUCHARA	CARPA	15	[0, 0, 0]	-999	PAL1	0	R1082N
1801.133	5.018	3133637	STUDY_PAIR	n/a	wordpools/wordpool_SP.txt	3	5	CUCHARA	n/a	CUCHARA	CARPA	15	[0, 0, 0]	-999	PAL1	0	R1082N
1806.151	0.866	3138655	STUDY_ORIENT	n/a	n/a	4	4	CORREO	SERPIENTE	SERPIENTE	CORREO	15	[0, 0, 0]	-999	PAL1	0	R1082N
1807.017	5.035	3139521	STUDY_PAIR	n/a	wordpools/wordpool_SP.txt	4	4	CORREO	SERPIENTE	SERPIENTE	CORREO	15	[0, 0, 0]	-999	PAL1	0	R1082N
1812.052	0.932	3144556	STUDY_ORIENT	n/a	n/a	5	1	ESTANQUE	n/a	PLATO	ESTANQUE	15	[0, 0, 0]	-999	PAL1	0	R1082N
1812.984	5.018	3145488	STUDY_PAIR	n/a	wordpools/wordpool_SP.txt	5	1	ESTANQUE	n/a	PLATO	ESTANQUE	15	[0, 0, 0]	-999	PAL1	0	R1082N
1818.002	0.8	3150505	STUDY_ORIENT	n/a	n/a	6	6	RANA	n/a	RANA	SORBETE	15	[0, 0, 0]	-999	PAL1	0	R1082N
1818.802	4.018	3151305	STUDY_PAIR	n/a	wordpools/wordpool_SP.txt	6	6	RANA	n/a	RANA	SORBETE	15	[0, 0, 0]	-999	PAL1	0	R1082N
1822.82	0.999	3155323	START	n/a	n/a	-999	-999	n/a	n/a	n/a	n/a	15	[-999, -999, -999]	-999	PAL1	0	R1082N
1823.819	0.017	3156322	MATH_START	n/a	n/a	-999	-999	n/a	n/a	n/a	n/a	15	[0, 0, 0]	-999	PAL1	0	R1082N
1823.836	5.419	3156339	PROB	5391	n/a	-999	-999	n/a	n/a	n/a	n/a	15	[9, 2, 3]	14	PAL1	0	R1082N
1829.255	2.284	3161758	PROB	2260	n/a	-999	-999	n/a	n/a	n/a	n/a	15	[6, 5, 1]	12	PAL1	0	R1082N
1831.539	2.449	3164042	PROB	2415	n/a	-999	-999	n/a	n/a	n/a	n/a	15	[7, 6, 1]	14	PAL1	0	R1082N
1833.988	3.834	3166491	PROB	3806	n/a	-999	-999	n/a	n/a	n/a	n/a	15	[7, 3, 7]	17	PAL1	0	R1082N
1837.822	2.818	3170325	PROB	2797	n/a	-999	-999	n/a	n/a	n/a	n/a	15	[3, 7, 2]	12	PAL1	0	R1082N
1840.64	2.499	3173143	PROB	2499	n/a	-999	-999	n/a	n/a	n/a	n/a	15	[8, 2, 5]	15	PAL1	0	R1082N
1843.139	0.018	3175641	STOP	n/a	n/a	-999	-999	n/a	n/a	n/a	n/a	15	[-999, -999, -999]	-999	PAL1	0	R1082N
1843.157	0.0	3175659	TEST_START	n/a	n/a	-999	-999	n/a	n/a	n/a	n/a	15	[0, 0, 0]	-999	PAL1	0	R1082N
1843.157	0.017	3175659	MATH_END	n/a	n/a	-999	-999	n/a	n/a	n/a	n/a	15	[0, 0, 0]	-999	PAL1	0	R1082N
1843.174	1.033	3175676	TEST_ORIENT	n/a	n/a	5	1	ESTANQUE	n/a	PLATO	ESTANQUE	15	[0, 0, 0]	-999	PAL1	0	R1082N
1844.207	0.001	3176709	TEST_PROBE	n/a	wordpools/wordpool_SP.txt	5	1	ESTANQUE	n/a	PLATO	ESTANQUE	15	[0, 0, 0]	-999	PAL1	0	R1082N
1844.208	5.009	3176710	REC_START	n/a	n/a	5	-999	n/a	n/a	n/a	n/a	15	[0, 0, 0]	-999	PAL1	0	R1082N
1849.217	0.0	3181719	REC_EVENT	5009	n/a	5	1	ESTANQUE	<>	PLATO	ESTANQUE	15	[0, 0, 0]	-999	PAL1	0	R1082N
1849.217	0.008	3181719	REC_END	n/a	n/a	5	-999	n/a	n/a	n/a	n/a	15	[0, 0, 0]	-999	PAL1	0	R1082N
1849.225	0.933	3181727	TEST_ORIENT	n/a	n/a	2	2	RUEDA	n/a	RUEDA	ROCA	15	[0, 0, 0]	-999	PAL1	0	R1082N
1850.158	0.001	3182660	TEST_PROBE	n/a	wordpools/wordpool_SP.txt	2	2	RUEDA	n/a	RUEDA	ROCA	15	[0, 0, 0]	-999	PAL1	0	R1082N
1850.159	5.0	3182661	REC_START	n/a	n/a	2	-999	n/a	n/a	n/a	n/a	15	[0, 0, 0]	-999	PAL1	0	R1082N
1855.159	0.003	3187661	REC_END	n/a	n/a	2	-999	n/a	n/a	n/a	n/a	15	[0, 0, 0]	-999	PAL1	0	R1082N
1855.162	0.014	3187664	REC_EVENT	5003	n/a	2	2	RUEDA	<>	RUEDA	ROCA	15	[0, 0, 0]	-999	PAL1	0	R1082N
1855.176	0.816	3187678	TEST_ORIENT	n/a	n/a	1	3	MADERA	n/a	CAPA	MADERA	15	[0, 0, 0]	-999	PAL1	0	R1082N
1855.992	0.0	3188494	TEST_PROBE	n/a	wordpools/wordpool_SP.txt	1	3	MADERA	n/a	CAPA	MADERA	15	[0, 0, 0]	-999	PAL1	0	R1082N
1855.992	5.015	3188494	REC_START	n/a	n/a	1	-999	n/a	n/a	n/a	n/a	15	[0, 0, 0]	-999	PAL1	0	R1082N
1861.007	0.002	3193509	REC_EVENT	5015	n/a	1	3	MADERA	<>	CAPA	MADERA	15	[0, 0, 0]	-999	PAL1	0	R1082N
1861.009	0.017	3193511	REC_END	n/a	n/a	1	-999	n/a	n/a	n/a	n/a	15	[0, 0, 0]	-999	PAL1	0	R1082N
1861.026	0.833	3193528	TEST_ORIENT	n/a	n/a	4	4	CORREO	SERPIENTE	SERPIENTE	CORREO	15	[0, 0, 0]	-999	PAL1	0	R1082N
1861.859	0.001	3194361	TEST_PROBE	n/a	wordpools/wordpool_SP.txt	4	4	CORREO	SERPIENTE	SERPIENTE	CORREO	15	[0, 0, 0]	-999	PAL1	0	R1082N
1861.86	1.38	3194362	REC_START	n/a	n/a	4	-999	n/a	SERPIENTE	n/a	n/a	15	[0, 0, 0]	-999	PAL1	0	R1082N
1863.24	3.63	3195742	REC_EVENT	1380	n/a	4	4	CORREO	SERPIENTE	SERPIENTE	CORREO	15	[0, 0, 0]	-999	PAL1	0	R1082N
1866.87	0.007	3199372	REC_END	n/a	n/a	4	-999	n/a	n/a	n/a	n/a	15	[0, 0, 0]	-999	PAL1	0	R1082N
1866.877	0.9	3199379	TEST_ORIENT	n/a	n/a	3	5	CUCHARA	n/a	CUCHARA	CARPA	15	[0, 0, 0]	-999	PAL1	0	R1082N
1867.777	0.0	3200279	TEST_PROBE	n/a	wordpools/wordpool_SP.txt	3	5	CUCHARA	n/a	CUCHARA	CARPA	15	[0, 0, 0]	-999	PAL1	0	R1082N
1867.777	3.03	3200279	REC_START	n/a	n/a	3	-999	n/a	n/a	n/a	n/a	15	[0, 0, 0]	-999	PAL1	0	R1082N
1870.807	1.345	3203308	REC_EVENT	3030	n/a	3	5	CUCHARA	<>	CUCHARA	CARPA	15	[0, 0, 0]	-999	PAL1	0	R1082N
1872.152	0.642	3204653	REC_EVENT	4375	n/a	3	5	CUCHARA	<>	CUCHARA	CARPA	15	[0, 0, 0]	-999	PAL1	0	R1082N
1872.794	0.017	3205295	REC_END	n/a	n/a	3	-999	n/a	n/a	n/a	n/a	15	[0, 0, 0]	-999	PAL1	0	R1082N
1872.811	0.851	3205312	TEST_ORIENT	n/a	n/a	6	6	RANA	n/a	RANA	SORBETE	15	[0, 0, 0]	-999	PAL1	0	R1082N
1873.662	0.001	3206163	TEST_PROBE	n/a	wordpools/wordpool_SP.txt	6	6	RANA	n/a	RANA	SORBETE	15	[0, 0, 0]	-999	PAL1	0	R1082N
1873.663	5.009	3206164	REC_START	n/a	n/a	6	-999	n/a	n/a	n/a	n/a	15	[0, 0, 0]	-999	PAL1	0	R1082N
1878.672	0.001	3211173	REC_EVENT	5009	n/a	6	6	RANA	<>	RANA	SORBETE	15	[0, 0, 0]	-999	PAL1	0	R1082N
1878.673	0.023	3211174	REC_END	n/a	n/a	6	-999	n/a	n/a	n/a	n/a	15	[0, 0, 0]	-999	PAL1	0	R1082N
1878.696	11.619	3211197	FEEDBACK_SHOW_ALL_PAIRS	n/a	n/a	6	-999	n/a	n/a	n/a	n/a	15	[0, 0, 0]	-999	PAL1	0	R1082N
1890.315	10.451	3222816	ENCODING_START	n/a	n/a	0	-999	n/a	n/a	n/a	n/a	16	[0, 0, 0]	-999	PAL1	0	R1082N
1900.766	0.901	3233266	STUDY_ORIENT	n/a	n/a	1	1	TAZON	n/a	CARRO	TAZON	16	[0, 0, 0]	-999	PAL1	0	R1082N
1901.667	5.034	3234167	STUDY_PAIR	n/a	wordpools/wordpool_SP.txt	1	1	TAZON	n/a	CARRO	TAZON	16	[0, 0, 0]	-999	PAL1	0	R1082N
1906.701	0.984	3239201	STUDY_ORIENT	n/a	n/a	2	4	VERJA	n/a	VERJA	CAMISA	16	[0, 0, 0]	-999	PAL1	0	R1082N
1907.685	5.034	3240185	STUDY_PAIR	n/a	wordpools/wordpool_SP.txt	2	4	VERJA	n/a	VERJA	CAMISA	16	[0, 0, 0]	-999	PAL1	0	R1082N
1912.719	0.8	3245219	STUDY_ORIENT	n/a	n/a	3	3	BANCA	n/a	BANCA	VARITA	16	[0, 0, 0]	-999	PAL1	0	R1082N
1913.519	5.034	3246019	STUDY_PAIR	n/a	wordpools/wordpool_SP.txt	3	3	BANCA	n/a	BANCA	VARITA	16	[0, 0, 0]	-999	PAL1	0	R1082N
1918.553	0.984	3251053	STUDY_ORIENT	n/a	n/a	4	6	PASTA	n/a	SIGNO	PASTA	16	[0, 0, 0]	-999	PAL1	0	R1082N
1919.537	5.034	3252037	STUDY_PAIR	n/a	wordpools/wordpool_SP.txt	4	6	PASTA	n/a	SIGNO	PASTA	16	[0, 0, 0]	-999	PAL1	0	R1082N
1924.571	0.983	3257071	STUDY_ORIENT	n/a	n/a	5	5	CHISPA	n/a	MONEDA	CHISPA	16	[0, 0, 0]	-999	PAL1	0	R1082N
1925.554	5.018	3258053	STUDY_PAIR	n/a	wordpools/wordpool_SP.txt	5	5	CHISPA	n/a	MONEDA	CHISPA	16	[0, 0, 0]	-999	PAL1	0	R1082N
1930.572	0.833	3263071	STUDY_ORIENT	n/a	n/a	6	2	CANDADO	CANDADO	DARDO	CANDADO	16	[0, 0, 0]	-999	PAL1	0	R1082N
1931.405	4.001	3263904	STUDY_PAIR	n/a	wordpools/wordpool_SP.txt	6	2	CANDADO	CANDADO	DARDO	CANDADO	16	[0, 0, 0]	-999	PAL1	0	R1082N
1935.406	1.0	3267905	START	n/a	n/a	-999	-999	n/a	n/a	n/a	n/a	16	[-999, -999, -999]	-999	PAL1	0	R1082N
1936.406	0.017	3268905	MATH_START	n/a	n/a	-999	-999	n/a	n/a	n/a	n/a	16	[0, 0, 0]	-999	PAL1	0	R1082N
1936.423	3.333	3268922	PROB	3300	n/a	-999	-999	n/a	n/a	n/a	n/a	16	[3, 5, 7]	15	PAL1	0	R1082N
1939.756	5.568	3272255	PROB	5535	n/a	-999	-999	n/a	n/a	n/a	n/a	16	[6, 3, 8]	17	PAL1	0	R1082N
1945.324	4.968	3277823	PROB	4935	n/a	-999	-999	n/a	n/a	n/a	n/a	16	[5, 3, 4]	12	PAL1	0	R1082N
1950.292	3.0	3282791	PROB	2975	n/a	-999	-999	n/a	n/a	n/a	n/a	16	[3, 8, 1]	12	PAL1	0	R1082N
1953.292	3.662	3285790	PROB	3662	n/a	-999	-999	n/a	n/a	n/a	n/a	16	[8, 5, 2]	15	PAL1	0	R1082N
1956.954	0.005	3289452	STOP	n/a	n/a	-999	-999	n/a	n/a	n/a	n/a	16	[-999, -999, -999]	-999	PAL1	0	R1082N
1956.959	0.0	3289457	TEST_START	n/a	n/a	-999	-999	n/a	n/a	n/a	n/a	16	[0, 0, 0]	-999	PAL1	0	R1082N
1956.959	0.017	3289457	MATH_END	n/a	n/a	-999	-999	n/a	n/a	n/a	n/a	16	[0, 0, 0]	-999	PAL1	0	R1082N
1956.976	1.033	3289474	TEST_ORIENT	n/a	n/a	1	1	TAZON	n/a	CARRO	TAZON	16	[0, 0, 0]	-999	PAL1	0	R1082N
1958.009	0.001	3290507	TEST_PROBE	n/a	wordpools/wordpool_SP.txt	1	1	TAZON	n/a	CARRO	TAZON	16	[0, 0, 0]	-999	PAL1	0	R1082N
1958.01	5.015	3290508	REC_START	n/a	n/a	1	-999	n/a	n/a	n/a	n/a	16	[0, 0, 0]	-999	PAL1	0	R1082N
1963.025	0.001	3295523	REC_EVENT	5015	n/a	1	1	TAZON	<>	CARRO	TAZON	16	[0, 0, 0]	-999	PAL1	0	R1082N
1963.026	0.018	3295524	REC_END	n/a	n/a	1	-999	n/a	n/a	n/a	n/a	16	[0, 0, 0]	-999	PAL1	0	R1082N
1963.044	0.966	3295542	TEST_ORIENT	n/a	n/a	6	2	CANDADO	CANDADO	DARDO	CANDADO	16	[0, 0, 0]	-999	PAL1	0	R1082N
1964.01	0.0	3296508	TEST_PROBE	n/a	wordpools/wordpool_SP.txt	6	2	CANDADO	CANDADO	DARDO	CANDADO	16	[0, 0, 0]	-999	PAL1	0	R1082N
1964.01	3.685	3296508	REC_START	n/a	n/a	6	-999	n/a	CANDADO	n/a	n/a	16	[0, 0, 0]	-999	PAL1	0	R1082N
1967.695	1.332	3300193	REC_EVENT	3685	n/a	6	2	CANDADO	CANDADO	DARDO	CANDADO	16	[0, 0, 0]	-999	PAL1	0	R1082N
1969.027	0.018	3301525	REC_END	n/a	n/a	6	-999	n/a	n/a	n/a	n/a	16	[0, 0, 0]	-999	PAL1	0	R1082N
1969.045	0.849	3301543	TEST_ORIENT	n/a	n/a	3	3	BANCA	n/a	BANCA	VARITA	16	[0, 0, 0]	-999	PAL1	0	R1082N
1969.894	0.001	3302392	TEST_PROBE	n/a	wordpools/wordpool_SP.txt	3	3	BANCA	n/a	BANCA	VARITA	16	[0, 0, 0]	-999	PAL1	0	R1082N
1969.895	5.009	3302393	REC_START	n/a	n/a	3	-999	n/a	n/a	n/a	n/a	16	[0, 0, 0]	-999	PAL1	0	R1082N
1974.904	0.0	3307402	REC_EVENT	5009	n/a	3	3	BANCA	<>	BANCA	VARITA	16	[0, 0, 0]	-999	PAL1	0	R1082N
1974.904	0.008	3307402	REC_END	n/a	n/a	3	-999	n/a	n/a	n/a	n/a	16	[0, 0, 0]	-999	PAL1	0	R1082N
1974.912	0.834	3307410	TEST_ORIENT	n/a	n/a	2	4	VERJA	n/a	VERJA	CAMISA	16	[0, 0, 0]	-999	PAL1	0	R1082N
1975.746	0.001	3308244	TEST_PROBE	n/a	wordpools/wordpool_SP.txt	2	4	VERJA	n/a	VERJA	CAMISA	16	[0, 0, 0]	-999	PAL1	0	R1082N
1975.747	5.009	3308245	REC_START	n/a	n/a	2	-999	n/a	n/a	n/a	n/a	16	[0, 0, 0]	-999	PAL1	0	R1082N
1980.756	0.0	3313254	REC_EVENT	5009	n/a	2	4	VERJA	<>	VERJA	CAMISA	16	[0, 0, 0]	-999	PAL1	0	R1082N
1980.756	0.007	3313254	REC_END	n/a	n/a	2	-999	n/a	n/a	n/a	n/a	16	[0, 0, 0]	-999	PAL1	0	R1082N
1980.763	1.017	3313261	TEST_ORIENT	n/a	n/a	5	5	CHISPA	n/a	MONEDA	CHISPA	16	[0, 0, 0]	-999	PAL1	0	R1082N
1981.78	0.0	3314277	TEST_PROBE	n/a	wordpools/wordpool_SP.txt	5	5	CHISPA	n/a	MONEDA	CHISPA	16	[0, 0, 0]	-999	PAL1	0	R1082N
1981.78	5.015	3314277	REC_START	n/a	n/a	5	-999	n/a	n/a	n/a	n/a	16	[0, 0, 0]	-999	PAL1	0	R1082N
1986.795	0.002	3319292	REC_EVENT	5015	n/a	5	5	CHISPA	<>	MONEDA	CHISPA	16	[0, 0, 0]	-999	PAL1	0	R1082N
1986.797	0.017	3319294	REC_END	n/a	n/a	5	-999	n/a	n/a	n/a	n/a	16	[0, 0, 0]	-999	PAL1	0	R1082N
1986.814	0.901	3319311	TEST_ORIENT	n/a	n/a	4	6	PASTA	n/a	SIGNO	PASTA	16	[0, 0, 0]	-999	PAL1	0	R1082N
1987.715	0.0	3320212	REC_START	n/a	n/a	4	-999	n/a	n/a	n/a	n/a	16	[0, 0, 0]	-999	PAL1	0	R1082N
1987.715	5.015	3320212	TEST_PROBE	n/a	wordpools/wordpool_SP.txt	4	6	PASTA	n/a	SIGNO	PASTA	16	[0, 0, 0]	-999	PAL1	0	R1082N
1992.73	0.002	3325227	REC_EVENT	5015	n/a	4	6	PASTA	<>	SIGNO	PASTA	16	[0, 0, 0]	-999	PAL1	0	R1082N
1992.732	0.033	3325229	REC_END	n/a	n/a	4	-999	n/a	n/a	n/a	n/a	16	[0, 0, 0]	-999	PAL1	0	R1082N
1992.765	11.053	3325262	FEEDBACK_SHOW_ALL_PAIRS	n/a	n/a	4	-999	n/a	n/a	n/a	n/a	16	[0, 0, 0]	-999	PAL1	0	R1082N
2003.818	10.451	3336315	ENCODING_START	n/a	n/a	0	-999	n/a	n/a	n/a	n/a	17	[0, 0, 0]	-999	PAL1	0	R1082N
2014.269	0.85	3346765	STUDY_ORIENT	n/a	n/a	1	5	DIENTE	CAJA	CAJA	DIENTE	17	[0, 0, 0]	-999	PAL1	0	R1082N
2015.119	5.018	3347615	STUDY_PAIR	n/a	wordpools/wordpool_SP.txt	1	5	DIENTE	CAJA	CAJA	DIENTE	17	[0, 0, 0]	-999	PAL1	0	R1082N
2020.137	0.934	3352633	STUDY_ORIENT	n/a	n/a	2	4	LAGO	TINTA	TINTA	LAGO	17	[0, 0, 0]	-999	PAL1	0	R1082N
2021.071	5.034	3353567	STUDY_PAIR	n/a	wordpools/wordpool_SP.txt	2	4	LAGO	TINTA	TINTA	LAGO	17	[0, 0, 0]	-999	PAL1	0	R1082N
2026.105	0.916	3358601	STUDY_ORIENT	n/a	n/a	3	3	LUNAR	n/a	FREGADERO	LUNAR	17	[0, 0, 0]	-999	PAL1	0	R1082N
2027.021	5.035	3359517	STUDY_PAIR	n/a	wordpools/wordpool_SP.txt	3	3	LUNAR	n/a	FREGADERO	LUNAR	17	[0, 0, 0]	-999	PAL1	0	R1082N
2032.056	0.799	3364552	STUDY_ORIENT	n/a	n/a	4	6	FICHA	n/a	FICHA	CHALECO	17	[0, 0, 0]	-999	PAL1	0	R1082N
2032.855	5.034	3365351	STUDY_PAIR	n/a	wordpools/wordpool_SP.txt	4	6	FICHA	n/a	FICHA	CHALECO	17	[0, 0, 0]	-999	PAL1	0	R1082N
2037.889	1.017	3370384	STUDY_ORIENT	n/a	n/a	5	1	ESCOBA	n/a	ASIENTO	ESCOBA	17	[0, 0, 0]	-999	PAL1	0	R1082N
2038.906	5.034	3371401	STUDY_PAIR	n/a	wordpools/wordpool_SP.txt	5	1	ESCOBA	n/a	ASIENTO	ESCOBA	17	[0, 0, 0]	-999	PAL1	0	R1082N
2043.94	0.785	3376435	STUDY_ORIENT	n/a	n/a	6	2	BARRO	n/a	CESPED	BARRO	17	[0, 0, 0]	-999	PAL1	0	R1082N
2044.725	4.018	3377220	STUDY_PAIR	n/a	wordpools/wordpool_SP.txt	6	2	BARRO	n/a	CESPED	BARRO	17	[0, 0, 0]	-999	PAL1	0	R1082N
2048.743	0.999	3381238	START	n/a	n/a	-999	-999	n/a	n/a	n/a	n/a	17	[-999, -999, -999]	-999	PAL1	0	R1082N
2049.742	0.016	3382237	MATH_START	n/a	n/a	-999	-999	n/a	n/a	n/a	n/a	17	[0, 0, 0]	-999	PAL1	0	R1082N
2049.758	3.25	3382253	PROB	3228	n/a	-999	-999	n/a	n/a	n/a	n/a	17	[5, 1, 5]	11	PAL1	0	R1082N
2053.008	4.918	3385503	PROB	4890	n/a	-999	-999	n/a	n/a	n/a	n/a	17	[3, 9, 3]	15	PAL1	0	R1082N
2057.926	5.017	3390421	PROB	4996	n/a	-999	-999	n/a	n/a	n/a	n/a	17	[6, 8, 8]	22	PAL1	0	R1082N
2062.943	3.569	3395438	PROB	3548	n/a	-999	-999	n/a	n/a	n/a	n/a	17	[8, 2, 6]	16	PAL1	0	R1082N
2066.512	3.803	3399006	PROB	3803	n/a	-999	-999	n/a	n/a	n/a	n/a	17	[4, 1, 7]	12	PAL1	0	R1082N
2070.315	0.014	3402809	STOP	n/a	n/a	-999	-999	n/a	n/a	n/a	n/a	17	[-999, -999, -999]	-999	PAL1	0	R1082N
2070.329	0.0	3402823	TEST_START	n/a	n/a	-999	-999	n/a	n/a	n/a	n/a	17	[0, 0, 0]	-999	PAL1	0	R1082N
2070.329	0.017	3402823	MATH_END	n/a	n/a	-999	-999	n/a	n/a	n/a	n/a	17	[0, 0, 0]	-999	PAL1	0	R1082N
2070.346	1.0	3402840	TEST_ORIENT	n/a	n/a	5	1	ESCOBA	n/a	ASIENTO	ESCOBA	17	[0, 0, 0]	-999	PAL1	0	R1082N
2071.346	0.0	3403840	TEST_PROBE	n/a	wordpools/wordpool_SP.txt	5	1	ESCOBA	n/a	ASIENTO	ESCOBA	17	[0, 0, 0]	-999	PAL1	0	R1082N
2071.346	4.165	3403840	REC_START	n/a	n/a	5	-999	n/a	n/a	n/a	n/a	17	[0, 0, 0]	-999	PAL1	0	R1082N
2075.511	0.852	3408005	REC_EVENT	4165	n/a	5	1	ESCOBA	<>	ASIENTO	ESCOBA	17	[0, 0, 0]	-999	PAL1	0	R1082N
2076.363	0.017	3408857	REC_END	n/a	n/a	5	-999	n/a	n/a	n/a	n/a	17	[0, 0, 0]	-999	PAL1	0	R1082N
2076.38	0.967	3408874	TEST_ORIENT	n/a	n/a	6	2	BARRO	n/a	CESPED	BARRO	17	[0, 0, 0]	-999	PAL1	0	R1082N
2077.347	0.0	3409841	TEST_PROBE	n/a	wordpools/wordpool_SP.txt	6	2	BARRO	n/a	CESPED	BARRO	17	[0, 0, 0]	-999	PAL1	0	R1082N
2077.347	3.67	3409841	REC_START	n/a	n/a	6	-999	n/a	n/a	n/a	n/a	17	[0, 0, 0]	-999	PAL1	0	R1082N
2081.017	1.347	3413511	REC_EVENT	3670	n/a	6	2	BARRO	<>	CESPED	BARRO	17	[0, 0, 0]	-999	PAL1	0	R1082N
2082.364	0.017	3414858	REC_END	n/a	n/a	6	-999	n/a	n/a	n/a	n/a	17	[0, 0, 0]	-999	PAL1	0	R1082N
2082.381	0.817	3414875	TEST_ORIENT	n/a	n/a	3	3	LUNAR	n/a	FREGADERO	LUNAR	17	[0, 0, 0]	-999	PAL1	0	R1082N
2083.198	0.0	3415692	TEST_PROBE	n/a	wordpools/wordpool_SP.txt	3	3	LUNAR	n/a	FREGADERO	LUNAR	17	[0, 0, 0]	-999	PAL1	0	R1082N
2083.198	5.015	3415692	REC_START	n/a	n/a	3	-999	n/a	n/a	n/a	n/a	17	[0, 0, 0]	-999	PAL1	0	R1082N
2088.213	0.002	3420707	REC_EVENT	5015	n/a	3	3	LUNAR	<>	FREGADERO	LUNAR	17	[0, 0, 0]	-999	PAL1	0	R1082N
2088.215	0.017	3420709	REC_END	n/a	n/a	3	-999	n/a	n/a	n/a	n/a	17	[0, 0, 0]	-999	PAL1	0	R1082N
2088.232	0.817	3420726	TEST_ORIENT	n/a	n/a	2	4	LAGO	TINTA	TINTA	LAGO	17	[0, 0, 0]	-999	PAL1	0	R1082N
2089.049	0.0	3421543	REC_START	n/a	n/a	2	-999	n/a	TINTA	n/a	n/a	17	[0, 0, 0]	-999	PAL1	0	R1082N
2089.049	1.865	3421543	TEST_PROBE	n/a	wordpools/wordpool_SP.txt	2	4	LAGO	TINTA	TINTA	LAGO	17	[0, 0, 0]	-999	PAL1	0	R1082N
2090.914	3.152	3423408	REC_EVENT	1865	n/a	2	4	LAGO	TINTA	TINTA	LAGO	17	[0, 0, 0]	-999	PAL1	0	R1082N
2094.066	0.017	3426559	REC_END	n/a	n/a	2	-999	n/a	n/a	n/a	n/a	17	[0, 0, 0]	-999	PAL1	0	R1082N
2094.083	0.983	3426576	TEST_ORIENT	n/a	n/a	1	5	DIENTE	CAJA	CAJA	DIENTE	17	[0, 0, 0]	-999	PAL1	0	R1082N
2095.066	0.001	3427559	TEST_PROBE	n/a	wordpools/wordpool_SP.txt	1	5	DIENTE	CAJA	CAJA	DIENTE	17	[0, 0, 0]	-999	PAL1	0	R1082N
2095.067	1.321	3427560	REC_START	n/a	n/a	1	-999	n/a	CAJA	n/a	n/a	17	[0, 0, 0]	-999	PAL1	0	R1082N
2096.388	3.679	3428881	REC_EVENT	1321	n/a	1	5	DIENTE	CAJA	CAJA	DIENTE	17	[0, 0, 0]	-999	PAL1	0	R1082N
2100.067	0.017	3432560	REC_END	n/a	n/a	1	-999	n/a	n/a	n/a	n/a	17	[0, 0, 0]	-999	PAL1	0	R1082N
2100.084	0.899	3432577	TEST_ORIENT	n/a	n/a	4	6	FICHA	n/a	FICHA	CHALECO	17	[0, 0, 0]	-999	PAL1	0	R1082N
2100.983	0.001	3433476	TEST_PROBE	n/a	wordpools/wordpool_SP.txt	4	6	FICHA	n/a	FICHA	CHALECO	17	[0, 0, 0]	-999	PAL1	0	R1082N
2100.984	5.026	3433477	REC_START	n/a	n/a	4	-999	n/a	n/a	n/a	n/a	17	[0, 0, 0]	-999	PAL1	0	R1082N
2106.01	0.001	3438503	REC_END	n/a	n/a	4	-999	n/a	n/a	n/a	n/a	17	[0, 0, 0]	-999	PAL1	0	R1082N
2106.011	0.023	3438504	REC_EVENT	5027	n/a	4	6	FICHA	<>	FICHA	CHALECO	17	[0, 0, 0]	-999	PAL1	0	R1082N
2106.034	8.856	3438527	FEEDBACK_SHOW_ALL_PAIRS	n/a	n/a	4	-999	n/a	n/a	n/a	n/a	17	[0, 0, 0]	-999	PAL1	0	R1082N
2114.89	10.448	3447383	ENCODING_START	n/a	n/a	0	-999	n/a	n/a	n/a	n/a	18	[0, 0, 0]	-999	PAL1	0	R1082N
2125.338	0.834	3457830	STUDY_ORIENT	n/a	n/a	1	3	CAMION	n/a	CAMION	PAN	18	[0, 0, 0]	-999	PAL1	0	R1082N
2126.172	5.034	3458664	STUDY_PAIR	n/a	wordpools/wordpool_SP.txt	1	3	CAMION	n/a	CAMION	PAN	18	[0, 0, 0]	-999	PAL1	0	R1082N
2131.206	0.933	3463698	STUDY_ORIENT	n/a	n/a	2	2	CAMIONETA	n/a	MEDIA	CAMIONETA	18	[0, 0, 0]	-999	PAL1	0	R1082N
2132.139	5.018	3464631	STUDY_PAIR	n/a	wordpools/wordpool_SP.txt	2	2	CAMIONETA	n/a	MEDIA	CAMIONETA	18	[0, 0, 0]	-999	PAL1	0	R1082N
2137.157	0.917	3469649	STUDY_ORIENT	n/a	n/a	3	5	VACA	VASO	TAZA	VACA	18	[0, 0, 0]	-999	PAL1	0	R1082N
2138.074	5.034	3470566	STUDY_PAIR	n/a	wordpools/wordpool_SP.txt	3	5	VACA	VASO	TAZA	VACA	18	[0, 0, 0]	-999	PAL1	0	R1082N
2143.108	0.816	3475600	STUDY_ORIENT	n/a	n/a	4	6	SILLA	BASURA	SILLA	MALEZA	18	[0, 0, 0]	-999	PAL1	0	R1082N
2143.924	5.034	3476416	STUDY_PAIR	n/a	wordpools/wordpool_SP.txt	4	6	SILLA	BASURA	SILLA	MALEZA	18	[0, 0, 0]	-999	PAL1	0	R1082N
2148.958	0.967	3481449	STUDY_ORIENT	n/a	n/a	5	1	PICO	n/a	PALO	PICO	18	[0, 0, 0]	-999	PAL1	0	R1082N
2149.925	5.034	3482416	STUDY_PAIR	n/a	wordpools/wordpool_SP.txt	5	1	PICO	n/a	PALO	PICO	18	[0, 0, 0]	-999	PAL1	0	R1082N
2154.959	0.85	3487450	STUDY_ORIENT	n/a	n/a	6	4	TERRENO	PUENTE	TERRENO	PUENTE	18	[0, 0, 0]	-999	PAL1	0	R1082N
2155.809	4.018	3488300	STUDY_PAIR	n/a	wordpools/wordpool_SP.txt	6	4	TERRENO	PUENTE	TERRENO	PUENTE	18	[0, 0, 0]	-999	PAL1	0	R1082N
2159.827	1.0	3492318	START	n/a	n/a	-999	-999	n/a	n/a	n/a	n/a	18	[-999, -999, -999]	-999	PAL1	0	R1082N
2160.827	0.016	3493318	MATH_START	n/a	n/a	-999	-999	n/a	n/a	n/a	n/a	18	[0, 0, 0]	-999	PAL1	0	R1082N
2160.843	3.835	3493334	PROB	3800	n/a	-999	-999	n/a	n/a	n/a	n/a	18	[7, 3, 5]	15	PAL1	0	R1082N
2164.678	3.067	3497169	PROB	3045	n/a	-999	-999	n/a	n/a	n/a	n/a	18	[1, 3, 2]	6	PAL1	0	R1082N
2167.745	3.951	3500236	PROB	3922	n/a	-999	-999	n/a	n/a	n/a	n/a	18	[6, 5, 8]	19	PAL1	0	R1082N
2171.696	3.216	3504187	PROB	3186	n/a	-999	-999	n/a	n/a	n/a	n/a	18	[5, 9, 5]	19	PAL1	0	R1082N
