onset	duration	sample	trial_type	response_time	stim_file	serialpos	probepos	probe_word	resp_word	study_1	study_2	list	test	answer	experiment	session	subject
0.0	0.0	-1	INSTRUCT_VIDEO_ON	n/a	n/a	-999	-999	n/a	n/a	n/a	n/a	-999	[0, 0, 0]	-999	PAL1	2	R1284N
0.0	5.589	-1	INSTRUCT_VIDEO_OFF	n/a	n/a	-999	-999	n/a	n/a	n/a	n/a	-999	[0, 0, 0]	-999	PAL1	2	R1284N
5.589	0.0	-1	SESS_START	n/a	n/a	-999	-999	n/a	n/a	n/a	n/a	-999	[0, 0, 0]	-999	PAL1	2	R1284N
5.589	428.346	-1	MIC_TEST	n/a	n/a	-999	-999	n/a	n/a	n/a	n/a	-999	[0, 0, 0]	-999	PAL1	2	R1284N
433.935	16.092	116157	PRACTICE_TRIAL	n/a	n/a	-999	-999	n/a	n/a	n/a	n/a	-1	[0, 0, 0]	-999	PAL1	2	R1284N
450.027	0.004	132249	ENCODING_START	n/a	n/a	-999	-999	n/a	n/a	n/a	n/a	-1	[0, 0, 0]	-999	PAL1	2	R1284N
450.031	0.253	132253	PRACTICE_ORIENT	n/a	n/a	1	3	WAGON	BEAM	WAGON	BEAM	-1	[0, 0, 0]	-999	PAL1	2	R1284N
450.284	0.639	132506	PRACTICE_ORIENT_OFF	n/a	n/a	1	3	WAGON	BEAM	WAGON	BEAM	-1	[0, 0, 0]	-999	PAL1	2	R1284N
450.923	4.0	133145	PRACTICE_PAIR	n/a	n/a	1	3	WAGON	BEAM	WAGON	BEAM	-1	[0, 0, 0]	-999	PAL1	2	R1284N
454.926	1.004	137148	PRACTICE_PAIR_OFF	n/a	n/a	1	3	WAGON	BEAM	WAGON	BEAM	-1	[0, 0, 0]	-999	PAL1	2	R1284N
455.93	0.253	138152	PRACTICE_ORIENT	n/a	n/a	2	4	CAMEL	TOUNGE	CAMEL	RING	-1	[0, 0, 0]	-999	PAL1	2	R1284N
456.183	0.634	138405	PRACTICE_ORIENT_OFF	n/a	n/a	2	4	CAMEL	TOUNGE	CAMEL	RING	-1	[0, 0, 0]	-999	PAL1	2	R1284N
456.817	4.0	139039	PRACTICE_PAIR	n/a	n/a	2	4	CAMEL	TOUNGE	CAMEL	RING	-1	[0, 0, 0]	-999	PAL1	2	R1284N
460.819	1.004	143041	PRACTICE_PAIR_OFF	n/a	n/a	2	4	CAMEL	TOUNGE	CAMEL	RING	-1	[0, 0, 0]	-999	PAL1	2	R1284N
461.823	0.252	144045	PRACTICE_ORIENT	n/a	n/a	3	1	WATCH	n/a	RHINO	WATCH	-1	[0, 0, 0]	-999	PAL1	2	R1284N
462.075	0.742	144298	PRACTICE_ORIENT_OFF	n/a	n/a	3	1	WATCH	n/a	RHINO	WATCH	-1	[0, 0, 0]	-999	PAL1	2	R1284N
462.817	4.0	145040	PRACTICE_PAIR	n/a	n/a	3	1	WATCH	n/a	RHINO	WATCH	-1	[0, 0, 0]	-999	PAL1	2	R1284N
466.819	1.003	149042	PRACTICE_PAIR_OFF	n/a	n/a	3	1	WATCH	n/a	RHINO	WATCH	-1	[0, 0, 0]	-999	PAL1	2	R1284N
467.822	0.252	150045	PRACTICE_ORIENT	n/a	n/a	4	2	TONGUE	n/a	FLOOD	TONGUE	-1	[0, 0, 0]	-999	PAL1	2	R1284N
468.074	0.67	150297	PRACTICE_ORIENT_OFF	n/a	n/a	4	2	TONGUE	n/a	FLOOD	TONGUE	-1	[0, 0, 0]	-999	PAL1	2	R1284N
468.744	4.0	150967	PRACTICE_PAIR	n/a	n/a	4	2	TONGUE	n/a	FLOOD	TONGUE	-1	[0, 0, 0]	-999	PAL1	2	R1284N
472.747	1.003	154970	PRACTICE_PAIR_OFF	n/a	n/a	4	2	TONGUE	n/a	FLOOD	TONGUE	-1	[0, 0, 0]	-999	PAL1	2	R1284N
473.75	0.252	155973	PRACTICE_ORIENT	n/a	n/a	5	5	ATTIC	n/a	ATTIC	CHEST	-1	[0, 0, 0]	-999	PAL1	2	R1284N
474.002	0.603	156225	PRACTICE_ORIENT_OFF	n/a	n/a	5	5	ATTIC	n/a	ATTIC	CHEST	-1	[0, 0, 0]	-999	PAL1	2	R1284N
474.605	4.0	156828	PRACTICE_PAIR	n/a	n/a	5	5	ATTIC	n/a	ATTIC	CHEST	-1	[0, 0, 0]	-999	PAL1	2	R1284N
478.607	1.003	160830	PRACTICE_PAIR_OFF	n/a	n/a	5	5	ATTIC	n/a	ATTIC	CHEST	-1	[0, 0, 0]	-999	PAL1	2	R1284N
479.61	0.253	161833	PRACTICE_ORIENT	n/a	n/a	6	6	COTTON	n/a	IRON	COTTON	-1	[0, 0, 0]	-999	PAL1	2	R1284N
479.863	0.523	162086	PRACTICE_ORIENT_OFF	n/a	n/a	6	6	COTTON	n/a	IRON	COTTON	-1	[0, 0, 0]	-999	PAL1	2	R1284N
480.386	4.0	162609	PRACTICE_PAIR	n/a	n/a	6	6	COTTON	n/a	IRON	COTTON	-1	[0, 0, 0]	-999	PAL1	2	R1284N
484.389	1.001	166612	PRACTICE_PAIR_OFF	n/a	n/a	6	6	COTTON	n/a	IRON	COTTON	-1	[0, 0, 0]	-999	PAL1	2	R1284N
485.39	0.0	167613	ENCODING_END	n/a	n/a	-999	-999	n/a	n/a	n/a	n/a	-1	[0, 0, 0]	-999	PAL1	2	R1284N
485.39	0.0	167613	MATH_START	n/a	n/a	-999	-999	n/a	n/a	n/a	n/a	-1	[0, 0, 0]	-999	PAL1	2	R1284N
485.39	0.009	167613	START	n/a	n/a	-999	-999	n/a	n/a	n/a	n/a	-1	[-999, -999, -999]	-999	PAL1	2	R1284N
485.399	5.204	167622	PROB	5.192	n/a	-999	-999	n/a	n/a	n/a	n/a	-1	[9, 2, 9]	20	PAL1	2	R1284N
490.603	7.75	172826	PROB	7.74	n/a	-999	-999	n/a	n/a	n/a	n/a	-1	[2, 6, 7]	15	PAL1	2	R1284N
498.353	5.849	180576	PROB	5.838	n/a	-999	-999	n/a	n/a	n/a	n/a	-1	[1, 2, 9]	12	PAL1	2	R1284N
504.202	3.229	186426	PROB	3.229	n/a	-999	-999	n/a	n/a	n/a	n/a	-1	[8, 1, 5]	14	PAL1	2	R1284N
507.431	0.005	189655	STOP	n/a	n/a	-999	-999	n/a	n/a	n/a	n/a	-1	[-999, -999, -999]	-999	PAL1	2	R1284N
507.436	0.0	189660	MATH_END	n/a	n/a	-999	-999	n/a	n/a	n/a	n/a	-1	[0, 0, 0]	-999	PAL1	2	R1284N
507.436	0.004	189660	RECALL_START	n/a	n/a	-999	-999	n/a	n/a	n/a	n/a	-1	[0, 0, 0]	-999	PAL1	2	R1284N
507.44	0.253	189664	PRACTICE_RETRIEVAL_ORIENT	n/a	n/a	3	1	WATCH	n/a	RHINO	WATCH	-1	[0, 0, 0]	-999	PAL1	2	R1284N
507.693	0.696	189917	PRACTICE_RETRIEVAL_ORIENT_OFF	n/a	n/a	3	1	WATCH	n/a	RHINO	WATCH	-1	[0, 0, 0]	-999	PAL1	2	R1284N
508.389	4.0	190613	PRACTICE_PROBE	n/a	n/a	3	1	WATCH	n/a	RHINO	WATCH	-1	[0, 0, 0]	-999	PAL1	2	R1284N
508.393	3.998	190617	REC_START	n/a	n/a	3	-999	n/a	n/a	n/a	n/a	-1	[0, 0, 0]	-999	PAL1	2	R1284N
512.391	0.878	194615	PROBE_OFF	n/a	n/a	3	-999	n/a	n/a	n/a	n/a	-1	[0, 0, 0]	-999	PAL1	2	R1284N
513.269	0.122	195493	REC_EVENT	4.876	n/a	3	1	WATCH	<>	RHINO	WATCH	-1	[0, 0, 0]	-999	PAL1	2	R1284N
513.391	0.013	195615	REC_END	n/a	n/a	3	-999	n/a	n/a	n/a	n/a	-1	[0, 0, 0]	-999	PAL1	2	R1284N
513.404	0.253	195628	PRACTICE_RETRIEVAL_ORIENT	n/a	n/a	4	2	TONGUE	n/a	FLOOD	TONGUE	-1	[0, 0, 0]	-999	PAL1	2	R1284N
513.657	0.748	195881	PRACTICE_RETRIEVAL_ORIENT_OFF	n/a	n/a	4	2	TONGUE	n/a	FLOOD	TONGUE	-1	[0, 0, 0]	-999	PAL1	2	R1284N
514.405	4.0	196629	PRACTICE_PROBE	n/a	n/a	4	2	TONGUE	n/a	FLOOD	TONGUE	-1	[0, 0, 0]	-999	PAL1	2	R1284N
514.406	4.002	196630	REC_START	n/a	n/a	4	-999	n/a	n/a	n/a	n/a	-1	[0, 0, 0]	-999	PAL1	2	R1284N
518.408	0.827	200632	PROBE_OFF	n/a	n/a	4	-999	n/a	n/a	n/a	n/a	-1	[0, 0, 0]	-999	PAL1	2	R1284N
519.235	0.173	201459	REC_EVENT	4.829	n/a	4	2	TONGUE	<>	FLOOD	TONGUE	-1	[0, 0, 0]	-999	PAL1	2	R1284N
519.408	0.013	201632	REC_END	n/a	n/a	4	-999	n/a	n/a	n/a	n/a	-1	[0, 0, 0]	-999	PAL1	2	R1284N
519.421	0.253	201645	PRACTICE_RETRIEVAL_ORIENT	n/a	n/a	1	3	WAGON	BEAM	WAGON	BEAM	-1	[0, 0, 0]	-999	PAL1	2	R1284N
519.674	0.523	201898	PRACTICE_RETRIEVAL_ORIENT_OFF	n/a	n/a	1	3	WAGON	BEAM	WAGON	BEAM	-1	[0, 0, 0]	-999	PAL1	2	R1284N
520.197	4.0	202421	PRACTICE_PROBE	n/a	n/a	1	3	WAGON	BEAM	WAGON	BEAM	-1	[0, 0, 0]	-999	PAL1	2	R1284N
520.197	0.888	202421	REC_START	n/a	n/a	1	-999	n/a	BEAM	n/a	n/a	-1	[0, 0, 0]	-999	PAL1	2	R1284N
521.085	3.123	203309	REC_EVENT	0.888	n/a	1	3	WAGON	BEAM	WAGON	BEAM	-1	[0, 0, 0]	-999	PAL1	2	R1284N
524.208	1.0	206432	PROBE_OFF	n/a	n/a	1	-999	n/a	n/a	n/a	n/a	-1	[0, 0, 0]	-999	PAL1	2	R1284N
525.208	0.007	207432	REC_END	n/a	n/a	1	-999	n/a	n/a	n/a	n/a	-1	[0, 0, 0]	-999	PAL1	2	R1284N
525.215	0.252	207439	PRACTICE_RETRIEVAL_ORIENT	n/a	n/a	2	4	CAMEL	TOUNGE	CAMEL	RING	-1	[0, 0, 0]	-999	PAL1	2	R1284N
525.467	0.733	207691	PRACTICE_RETRIEVAL_ORIENT_OFF	n/a	n/a	2	4	CAMEL	TOUNGE	CAMEL	RING	-1	[0, 0, 0]	-999	PAL1	2	R1284N
526.2	4.0	208424	PRACTICE_PROBE	n/a	n/a	2	4	CAMEL	TOUNGE	CAMEL	RING	-1	[0, 0, 0]	-999	PAL1	2	R1284N
526.201	1.814	208425	REC_START	n/a	n/a	2	-999	n/a	TOUNGE	n/a	n/a	-1	[0, 0, 0]	-999	PAL1	2	R1284N
528.015	1.665	210239	REC_EVENT	1.814	n/a	2	4	CAMEL	TOUNGE	CAMEL	RING	-1	[0, 0, 0]	-999	PAL1	2	R1284N
529.68	0.523	211904	REC_EVENT	3.479	n/a	2	4	CAMEL	<>	CAMEL	RING	-1	[0, 0, 0]	-999	PAL1	2	R1284N
530.203	1.009	212427	PROBE_OFF	n/a	n/a	2	-999	n/a	n/a	n/a	n/a	-1	[0, 0, 0]	-999	PAL1	2	R1284N
531.212	0.007	213436	REC_END	n/a	n/a	2	-999	n/a	n/a	n/a	n/a	-1	[0, 0, 0]	-999	PAL1	2	R1284N
531.219	0.253	213443	PRACTICE_RETRIEVAL_ORIENT	n/a	n/a	5	5	ATTIC	n/a	ATTIC	CHEST	-1	[0, 0, 0]	-999	PAL1	2	R1284N
531.472	0.583	213696	PRACTICE_RETRIEVAL_ORIENT_OFF	n/a	n/a	5	5	ATTIC	n/a	ATTIC	CHEST	-1	[0, 0, 0]	-999	PAL1	2	R1284N
532.055	4.0	214279	PRACTICE_PROBE	n/a	n/a	5	5	ATTIC	n/a	ATTIC	CHEST	-1	[0, 0, 0]	-999	PAL1	2	R1284N
532.056	0.887	214280	REC_START	n/a	n/a	5	-999	n/a	n/a	n/a	n/a	-1	[0, 0, 0]	-999	PAL1	2	R1284N
532.943	3.115	215167	REC_EVENT	0.887	n/a	5	5	ATTIC	<>	ATTIC	CHEST	-1	[0, 0, 0]	-999	PAL1	2	R1284N
536.058	1.0	218282	PROBE_OFF	n/a	n/a	5	-999	n/a	n/a	n/a	n/a	-1	[0, 0, 0]	-999	PAL1	2	R1284N
537.058	0.013	219282	REC_END	n/a	n/a	5	-999	n/a	n/a	n/a	n/a	-1	[0, 0, 0]	-999	PAL1	2	R1284N
537.071	0.252	219295	PRACTICE_RETRIEVAL_ORIENT	n/a	n/a	6	6	COTTON	n/a	IRON	COTTON	-1	[0, 0, 0]	-999	PAL1	2	R1284N
537.323	0.755	219547	PRACTICE_RETRIEVAL_ORIENT_OFF	n/a	n/a	4	6	COTTON	n/a	IRON	COTTON	-1	[0, 0, 0]	-999	PAL1	2	R1284N
538.078	0.0	220303	REC_START	n/a	n/a	6	-999	n/a	n/a	n/a	n/a	-1	[0, 0, 0]	-999	PAL1	2	R1284N
538.078	4.0	220303	PRACTICE_PROBE	n/a	n/a	6	6	COTTON	n/a	IRON	COTTON	-1	[0, 0, 0]	-999	PAL1	2	R1284N
542.089	0.865	224314	PROBE_OFF	n/a	n/a	6	-999	n/a	n/a	n/a	n/a	-1	[0, 0, 0]	-999	PAL1	2	R1284N
542.954	0.135	225179	REC_EVENT	4.876	n/a	6	6	COTTON	<>	IRON	COTTON	-1	[0, 0, 0]	-999	PAL1	2	R1284N
543.089	0.003	225314	REC_END	n/a	n/a	6	-999	n/a	n/a	n/a	n/a	-1	[0, 0, 0]	-999	PAL1	2	R1284N
543.092	12.228	225317	RECALL_END	n/a	n/a	-999	-999	n/a	n/a	n/a	n/a	-1	[0, 0, 0]	-999	PAL1	2	R1284N
555.32	10.929	237545	TRIAL	n/a	n/a	-999	-999	n/a	n/a	n/a	n/a	1	[0, 0, 0]	-999	PAL1	2	R1284N
566.249	0.003	248474	ENCODING_START	n/a	n/a	-999	-999	n/a	n/a	n/a	n/a	1	[0, 0, 0]	-999	PAL1	2	R1284N
566.252	0.253	248477	STUDY_ORIENT	n/a	n/a	1	5	MOLE	TOOL	MOLE	SPOON	1	[0, 0, 0]	-999	PAL1	2	R1284N
566.505	0.734	248730	STUDY_ORIENT_OFF	n/a	n/a	1	5	MOLE	TOOL	MOLE	SPOON	1	[0, 0, 0]	-999	PAL1	2	R1284N
567.239	4.0	249464	STUDY_PAIR	n/a	wordpools/wordpool_EN.txt	1	5	MOLE	TOOL	MOLE	SPOON	1	[0, 0, 0]	-999	PAL1	2	R1284N
571.242	1.003	253467	PAIR_OFF	n/a	n/a	1	5	MOLE	TOOL	MOLE	SPOON	1	[0, 0, 0]	-999	PAL1	2	R1284N
572.245	0.252	254470	STUDY_ORIENT	n/a	n/a	2	6	PLANE	POND	PLANE	POND	1	[0, 0, 0]	-999	PAL1	2	R1284N
572.497	0.652	254722	STUDY_ORIENT_OFF	n/a	n/a	2	6	PLANE	POND	PLANE	POND	1	[0, 0, 0]	-999	PAL1	2	R1284N
573.149	4.0	255374	STUDY_PAIR	n/a	wordpools/wordpool_EN.txt	2	6	PLANE	POND	PLANE	POND	1	[0, 0, 0]	-999	PAL1	2	R1284N
577.152	1.004	259378	PAIR_OFF	n/a	n/a	2	6	PLANE	POND	PLANE	POND	1	[0, 0, 0]	-999	PAL1	2	R1284N
578.156	0.253	260382	STUDY_ORIENT	n/a	n/a	3	3	COW	n/a	COW	BRANCH	1	[0, 0, 0]	-999	PAL1	2	R1284N
578.409	0.591	260635	STUDY_ORIENT_OFF	n/a	n/a	3	3	COW	n/a	COW	BRANCH	1	[0, 0, 0]	-999	PAL1	2	R1284N
579.0	4.0	261226	STUDY_PAIR	n/a	wordpools/wordpool_EN.txt	3	3	COW	n/a	COW	BRANCH	1	[0, 0, 0]	-999	PAL1	2	R1284N
583.003	1.004	265229	PAIR_OFF	n/a	n/a	3	3	COW	n/a	COW	BRANCH	1	[0, 0, 0]	-999	PAL1	2	R1284N
584.007	0.252	266233	STUDY_ORIENT	n/a	n/a	4	4	STAR	n/a	INK	STAR	1	[0, 0, 0]	-999	PAL1	2	R1284N
584.259	0.727	266485	STUDY_ORIENT_OFF	n/a	n/a	4	4	STAR	n/a	INK	STAR	1	[0, 0, 0]	-999	PAL1	2	R1284N
584.986	4.0	267212	STUDY_PAIR	n/a	wordpools/wordpool_EN.txt	4	4	STAR	n/a	INK	STAR	1	[0, 0, 0]	-999	PAL1	2	R1284N
588.988	1.003	271214	PAIR_OFF	n/a	n/a	4	4	STAR	n/a	INK	STAR	1	[0, 0, 0]	-999	PAL1	2	R1284N
589.991	0.253	272217	STUDY_ORIENT	n/a	n/a	5	1	TOOL	n/a	DOCK	TOOL	1	[0, 0, 0]	-999	PAL1	2	R1284N
590.244	0.75	272470	STUDY_ORIENT_OFF	n/a	n/a	5	1	TOOL	n/a	DOCK	TOOL	1	[0, 0, 0]	-999	PAL1	2	R1284N
590.994	4.0	273220	STUDY_PAIR	n/a	wordpools/wordpool_EN.txt	5	1	TOOL	n/a	DOCK	TOOL	1	[0, 0, 0]	-999	PAL1	2	R1284N
594.997	1.004	277223	PAIR_OFF	n/a	n/a	5	1	TOOL	n/a	DOCK	TOOL	1	[0, 0, 0]	-999	PAL1	2	R1284N
596.001	0.252	278227	STUDY_ORIENT	n/a	n/a	6	2	SPARK	n/a	MULE	SPARK	1	[0, 0, 0]	-999	PAL1	2	R1284N
596.253	0.649	278479	STUDY_ORIENT_OFF	n/a	n/a	6	2	SPARK	n/a	MULE	SPARK	1	[0, 0, 0]	-999	PAL1	2	R1284N
596.902	4.0	279128	STUDY_PAIR	n/a	wordpools/wordpool_EN.txt	6	2	SPARK	n/a	MULE	SPARK	1	[0, 0, 0]	-999	PAL1	2	R1284N
600.904	1.001	283130	PAIR_OFF	n/a	n/a	6	2	SPARK	n/a	MULE	SPARK	1	[0, 0, 0]	-999	PAL1	2	R1284N
601.905	0.0	284131	ENCODING_END	n/a	n/a	-999	-999	n/a	n/a	n/a	n/a	1	[0, 0, 0]	-999	PAL1	2	R1284N
601.905	0.0	284131	MATH_START	n/a	n/a	-999	-999	n/a	n/a	n/a	n/a	1	[0, 0, 0]	-999	PAL1	2	R1284N
601.905	0.008	284131	START	n/a	n/a	-999	-999	n/a	n/a	n/a	n/a	1	[-999, -999, -999]	-999	PAL1	2	R1284N
601.913	7.058	284139	PROB	7.046	n/a	-999	-999	n/a	n/a	n/a	n/a	1	[2, 5, 4]	11	PAL1	2	R1284N
608.971	5.591	291197	PROB	5.58	n/a	-999	-999	n/a	n/a	n/a	n/a	1	[4, 6, 7]	17	PAL1	2	R1284N
614.562	10.253	296789	PROB	10.253	n/a	-999	-999	n/a	n/a	n/a	n/a	1	[7, 8, 5]	20	PAL1	2	R1284N
624.815	0.006	307042	STOP	n/a	n/a	-999	-999	n/a	n/a	n/a	n/a	1	[-999, -999, -999]	-999	PAL1	2	R1284N
624.821	0.0	307048	MATH_END	n/a	n/a	-999	-999	n/a	n/a	n/a	n/a	1	[0, 0, 0]	-999	PAL1	2	R1284N
624.821	0.004	307048	RECALL_START	n/a	n/a	-999	-999	n/a	n/a	n/a	n/a	1	[0, 0, 0]	-999	PAL1	2	R1284N
624.825	0.253	307052	TEST_ORIENT	n/a	n/a	5	1	TOOL	n/a	DOCK	TOOL	1	[0, 0, 0]	-999	PAL1	2	R1284N
625.078	0.659	307305	RETRIEVAL_ORIENT_OFF	n/a	n/a	-999	-999	n/a	n/a	n/a	n/a	1	[0, 0, 0]	-999	PAL1	2	R1284N
625.737	4.0	307964	TEST_PROBE	n/a	wordpools/wordpool_EN.txt	5	1	TOOL	n/a	DOCK	TOOL	1	[0, 0, 0]	-999	PAL1	2	R1284N
625.738	4.002	307965	REC_START	n/a	n/a	5	-999	n/a	n/a	n/a	n/a	1	[0, 0, 0]	-999	PAL1	2	R1284N
629.74	0.967	311967	PROBE_OFF	n/a	n/a	5	-999	n/a	n/a	n/a	n/a	1	[0, 0, 0]	-999	PAL1	2	R1284N
630.707	0.033	312934	REC_EVENT	4.969	n/a	5	1	TOOL	<>	DOCK	TOOL	1	[0, 0, 0]	-999	PAL1	2	R1284N
630.74	0.013	312967	REC_END	n/a	n/a	5	-999	n/a	n/a	n/a	n/a	1	[0, 0, 0]	-999	PAL1	2	R1284N
630.753	0.253	312980	TEST_ORIENT	n/a	n/a	6	2	SPARK	n/a	MULE	SPARK	1	[0, 0, 0]	-999	PAL1	2	R1284N
631.006	0.733	313233	RETRIEVAL_ORIENT_OFF	n/a	n/a	5	-999	n/a	n/a	n/a	n/a	1	[0, 0, 0]	-999	PAL1	2	R1284N
631.739	0.0	313966	REC_START	n/a	n/a	6	-999	n/a	n/a	n/a	n/a	1	[0, 0, 0]	-999	PAL1	2	R1284N
631.739	4.0	313966	TEST_PROBE	n/a	wordpools/wordpool_EN.txt	6	2	SPARK	n/a	MULE	SPARK	1	[0, 0, 0]	-999	PAL1	2	R1284N
635.75	0.865	317977	PROBE_OFF	n/a	n/a	6	-999	n/a	n/a	n/a	n/a	1	[0, 0, 0]	-999	PAL1	2	R1284N
636.615	0.135	318842	REC_EVENT	4.876	n/a	6	2	SPARK	<>	MULE	SPARK	1	[0, 0, 0]	-999	PAL1	2	R1284N
636.75	0.008	318977	REC_END	n/a	n/a	6	-999	n/a	n/a	n/a	n/a	1	[0, 0, 0]	-999	PAL1	2	R1284N
636.758	0.253	318985	TEST_ORIENT	n/a	n/a	3	3	COW	n/a	COW	BRANCH	1	[0, 0, 0]	-999	PAL1	2	R1284N
637.011	0.606	319238	RETRIEVAL_ORIENT_OFF	n/a	n/a	6	-999	n/a	n/a	n/a	n/a	1	[0, 0, 0]	-999	PAL1	2	R1284N
637.617	4.0	319844	TEST_PROBE	n/a	wordpools/wordpool_EN.txt	3	3	COW	n/a	COW	BRANCH	1	[0, 0, 0]	-999	PAL1	2	R1284N
637.617	4.012	319844	REC_START	n/a	n/a	3	-999	n/a	n/a	n/a	n/a	1	[0, 0, 0]	-999	PAL1	2	R1284N
641.629	0.864	323856	PROBE_OFF	n/a	n/a	3	-999	n/a	n/a	n/a	n/a	1	[0, 0, 0]	-999	PAL1	2	R1284N
642.493	0.136	324720	REC_EVENT	4.876	n/a	3	3	COW	<>	COW	BRANCH	1	[0, 0, 0]	-999	PAL1	2	R1284N
642.629	0.007	324856	REC_END	n/a	n/a	3	-999	n/a	n/a	n/a	n/a	1	[0, 0, 0]	-999	PAL1	2	R1284N
642.636	0.252	324863	TEST_ORIENT	n/a	n/a	4	4	STAR	n/a	INK	STAR	1	[0, 0, 0]	-999	PAL1	2	R1284N
642.888	0.606	325115	RETRIEVAL_ORIENT_OFF	n/a	n/a	3	-999	n/a	n/a	n/a	n/a	1	[0, 0, 0]	-999	PAL1	2	R1284N
643.494	0.0	325721	REC_START	n/a	n/a	4	-999	n/a	n/a	n/a	n/a	1	[0, 0, 0]	-999	PAL1	2	R1284N
643.494	4.0	325721	TEST_PROBE	n/a	wordpools/wordpool_EN.txt	4	4	STAR	n/a	INK	STAR	1	[0, 0, 0]	-999	PAL1	2	R1284N
647.497	0.873	329724	PROBE_OFF	n/a	n/a	4	-999	n/a	n/a	n/a	n/a	1	[0, 0, 0]	-999	PAL1	2	R1284N
648.37	0.127	330597	REC_EVENT	4.876	n/a	4	4	STAR	<>	INK	STAR	1	[0, 0, 0]	-999	PAL1	2	R1284N
648.497	0.012	330724	REC_END	n/a	n/a	4	-999	n/a	n/a	n/a	n/a	1	[0, 0, 0]	-999	PAL1	2	R1284N
648.509	0.253	330736	TEST_ORIENT	n/a	n/a	1	5	MOLE	TOOL	MOLE	SPOON	1	[0, 0, 0]	-999	PAL1	2	R1284N
648.762	0.736	330989	RETRIEVAL_ORIENT_OFF	n/a	n/a	4	-999	n/a	n/a	n/a	n/a	1	[0, 0, 0]	-999	PAL1	2	R1284N
649.498	4.0	331725	TEST_PROBE	n/a	wordpools/wordpool_EN.txt	1	5	MOLE	TOOL	MOLE	SPOON	1	[0, 0, 0]	-999	PAL1	2	R1284N
649.499	1.639	331726	REC_START	n/a	n/a	1	-999	n/a	TOOL	n/a	n/a	1	[0, 0, 0]	-999	PAL1	2	R1284N
651.138	2.363	333365	REC_EVENT	1.639	n/a	1	5	MOLE	TOOL	MOLE	SPOON	1	[0, 0, 0]	-999	PAL1	2	R1284N
653.501	1.0	335729	PROBE_OFF	n/a	n/a	1	-999	n/a	n/a	n/a	n/a	1	[0, 0, 0]	-999	PAL1	2	R1284N
654.501	0.012	336729	REC_END	n/a	n/a	1	-999	n/a	n/a	n/a	n/a	1	[0, 0, 0]	-999	PAL1	2	R1284N
654.513	0.253	336741	TEST_ORIENT	n/a	n/a	2	6	PLANE	POND	PLANE	POND	1	[0, 0, 0]	-999	PAL1	2	R1284N
654.766	0.683	336994	RETRIEVAL_ORIENT_OFF	n/a	n/a	1	-999	n/a	n/a	n/a	n/a	1	[0, 0, 0]	-999	PAL1	2	R1284N
655.449	4.0	337677	TEST_PROBE	n/a	wordpools/wordpool_EN.txt	2	6	PLANE	POND	PLANE	POND	1	[0, 0, 0]	-999	PAL1	2	R1284N
655.449	0.797	337677	REC_START	n/a	n/a	2	-999	n/a	POND	n/a	n/a	1	[0, 0, 0]	-999	PAL1	2	R1284N
656.246	3.219	338474	REC_EVENT	0.797	n/a	2	6	PLANE	POND	PLANE	POND	1	[0, 0, 0]	-999	PAL1	2	R1284N
659.465	1.001	341693	PROBE_OFF	n/a	n/a	2	-999	n/a	n/a	n/a	n/a	1	[0, 0, 0]	-999	PAL1	2	R1284N
660.466	0.003	342694	REC_END	n/a	n/a	2	-999	n/a	n/a	n/a	n/a	1	[0, 0, 0]	-999	PAL1	2	R1284N
660.469	4.404	342697	RECALL_END	n/a	n/a	-999	-999	n/a	n/a	n/a	n/a	1	[0, 0, 0]	-999	PAL1	2	R1284N
664.873	10.928	347101	TRIAL	n/a	n/a	-999	-999	n/a	n/a	n/a	n/a	2	[0, 0, 0]	-999	PAL1	2	R1284N
675.801	0.004	358029	ENCODING_START	n/a	n/a	-999	-999	n/a	n/a	n/a	n/a	2	[0, 0, 0]	-999	PAL1	2	R1284N
675.805	0.252	358033	STUDY_ORIENT	n/a	n/a	1	3	CASH	TANK	CANE	CASH	2	[0, 0, 0]	-999	PAL1	2	R1284N
676.057	0.672	358285	STUDY_ORIENT_OFF	n/a	n/a	1	3	CASH	TANK	CANE	CASH	2	[0, 0, 0]	-999	PAL1	2	R1284N
676.729	4.0	358957	STUDY_PAIR	n/a	wordpools/wordpool_EN.txt	1	3	CASH	TANK	CANE	CASH	2	[0, 0, 0]	-999	PAL1	2	R1284N
680.732	1.003	362960	PAIR_OFF	n/a	n/a	1	3	CASH	TANK	CANE	CASH	2	[0, 0, 0]	-999	PAL1	2	R1284N
681.735	0.253	363963	STUDY_ORIENT	n/a	n/a	2	6	BROOM	DRESS	BROOM	NET	2	[0, 0, 0]	-999	PAL1	2	R1284N
681.988	0.711	364216	STUDY_ORIENT_OFF	n/a	n/a	2	6	BROOM	DRESS	BROOM	NET	2	[0, 0, 0]	-999	PAL1	2	R1284N
682.699	4.0	364927	STUDY_PAIR	n/a	wordpools/wordpool_EN.txt	2	6	BROOM	DRESS	BROOM	NET	2	[0, 0, 0]	-999	PAL1	2	R1284N
686.701	1.004	368929	PAIR_OFF	n/a	n/a	2	6	BROOM	DRESS	BROOM	NET	2	[0, 0, 0]	-999	PAL1	2	R1284N
687.705	0.253	369933	STUDY_ORIENT	n/a	n/a	3	5	SIGN	n/a	SIGN	TANK	2	[0, 0, 0]	-999	PAL1	2	R1284N
687.958	0.663	370186	STUDY_ORIENT_OFF	n/a	n/a	3	5	SIGN	n/a	SIGN	TANK	2	[0, 0, 0]	-999	PAL1	2	R1284N
688.621	4.0	370849	STUDY_PAIR	n/a	wordpools/wordpool_EN.txt	3	5	SIGN	n/a	SIGN	TANK	2	[0, 0, 0]	-999	PAL1	2	R1284N
692.624	1.004	374853	PAIR_OFF	n/a	n/a	3	5	SIGN	n/a	SIGN	TANK	2	[0, 0, 0]	-999	PAL1	2	R1284N
693.628	0.253	375857	STUDY_ORIENT	n/a	n/a	4	4	DRESS	n/a	BLUSH	DRESS	2	[0, 0, 0]	-999	PAL1	2	R1284N
693.881	0.554	376110	STUDY_ORIENT_OFF	n/a	n/a	4	4	DRESS	n/a	BLUSH	DRESS	2	[0, 0, 0]	-999	PAL1	2	R1284N
694.435	4.0	376664	STUDY_PAIR	n/a	wordpools/wordpool_EN.txt	4	4	DRESS	n/a	BLUSH	DRESS	2	[0, 0, 0]	-999	PAL1	2	R1284N
698.437	1.003	380666	PAIR_OFF	n/a	n/a	4	4	DRESS	n/a	BLUSH	DRESS	2	[0, 0, 0]	-999	PAL1	2	R1284N
699.44	0.253	381669	STUDY_ORIENT	n/a	n/a	5	1	ANT	n/a	ANT	TREE	2	[0, 0, 0]	-999	PAL1	2	R1284N
699.693	0.725	381922	STUDY_ORIENT_OFF	n/a	n/a	5	1	ANT	n/a	ANT	TREE	2	[0, 0, 0]	-999	PAL1	2	R1284N
700.418	4.0	382647	STUDY_PAIR	n/a	wordpools/wordpool_EN.txt	5	1	ANT	n/a	ANT	TREE	2	[0, 0, 0]	-999	PAL1	2	R1284N
704.42	1.004	386649	PAIR_OFF	n/a	n/a	5	1	ANT	n/a	ANT	TREE	2	[0, 0, 0]	-999	PAL1	2	R1284N
705.424	0.253	387653	STUDY_ORIENT	n/a	n/a	6	2	BANK	TENT	BANK	LAWN	2	[0, 0, 0]	-999	PAL1	2	R1284N
705.677	0.647	387906	STUDY_ORIENT_OFF	n/a	n/a	6	2	BANK	TENT	BANK	LAWN	2	[0, 0, 0]	-999	PAL1	2	R1284N
706.324	4.0	388553	STUDY_PAIR	n/a	wordpools/wordpool_EN.txt	6	2	BANK	TENT	BANK	LAWN	2	[0, 0, 0]	-999	PAL1	2	R1284N
710.327	1.0	392556	PAIR_OFF	n/a	n/a	6	2	BANK	TENT	BANK	LAWN	2	[0, 0, 0]	-999	PAL1	2	R1284N
711.327	0.0	393556	MATH_START	n/a	n/a	-999	-999	n/a	n/a	n/a	n/a	2	[0, 0, 0]	-999	PAL1	2	R1284N
711.327	0.001	393556	ENCODING_END	n/a	n/a	-999	-999	n/a	n/a	n/a	n/a	2	[0, 0, 0]	-999	PAL1	2	R1284N
711.328	0.008	393557	START	n/a	n/a	-999	-999	n/a	n/a	n/a	n/a	2	[-999, -999, -999]	-999	PAL1	2	R1284N
711.336	6.754	393565	PROB	6.743	n/a	-999	-999	n/a	n/a	n/a	n/a	2	[1, 6, 5]	12	PAL1	2	R1284N
718.09	5.625	400319	PROB	5.614	n/a	-999	-999	n/a	n/a	n/a	n/a	2	[8, 9, 1]	18	PAL1	2	R1284N
723.715	3.606	405944	PROB	3.595	n/a	-999	-999	n/a	n/a	n/a	n/a	2	[4, 1, 1]	6	PAL1	2	R1284N
727.321	3.136	409550	PROB	3.125	n/a	-999	-999	n/a	n/a	n/a	n/a	2	[2, 9, 2]	13	PAL1	2	R1284N
730.457	3.485	412687	PROB	3.485	n/a	-999	-999	n/a	n/a	n/a	n/a	2	[5, 7, 2]	14	PAL1	2	R1284N
733.942	0.005	416172	STOP	n/a	n/a	-999	-999	n/a	n/a	n/a	n/a	2	[-999, -999, -999]	-999	PAL1	2	R1284N
733.947	0.001	416177	MATH_END	n/a	n/a	-999	-999	n/a	n/a	n/a	n/a	2	[0, 0, 0]	-999	PAL1	2	R1284N
733.948	0.003	416178	RECALL_START	n/a	n/a	-999	-999	n/a	n/a	n/a	n/a	2	[0, 0, 0]	-999	PAL1	2	R1284N
733.951	0.252	416181	TEST_ORIENT	n/a	n/a	5	1	ANT	n/a	ANT	TREE	2	[0, 0, 0]	-999	PAL1	2	R1284N
734.203	0.719	416433	RETRIEVAL_ORIENT_OFF	n/a	n/a	-999	-999	n/a	n/a	n/a	n/a	2	[0, 0, 0]	-999	PAL1	2	R1284N
734.922	4.0	417152	TEST_PROBE	n/a	wordpools/wordpool_EN.txt	5	1	ANT	n/a	ANT	TREE	2	[0, 0, 0]	-999	PAL1	2	R1284N
734.922	4.011	417152	REC_START	n/a	n/a	5	-999	n/a	n/a	n/a	n/a	2	[0, 0, 0]	-999	PAL1	2	R1284N
738.933	0.865	421163	PROBE_OFF	n/a	n/a	5	-999	n/a	n/a	n/a	n/a	2	[0, 0, 0]	-999	PAL1	2	R1284N
739.798	0.135	422028	REC_EVENT	4.876	n/a	5	1	ANT	<>	ANT	TREE	2	[0, 0, 0]	-999	PAL1	2	R1284N
739.933	0.007	422163	REC_END	n/a	n/a	5	-999	n/a	n/a	n/a	n/a	2	[0, 0, 0]	-999	PAL1	2	R1284N
739.94	0.253	422170	TEST_ORIENT	n/a	n/a	6	2	BANK	TENT	BANK	LAWN	2	[0, 0, 0]	-999	PAL1	2	R1284N
740.193	0.534	422423	RETRIEVAL_ORIENT_OFF	n/a	n/a	5	-999	n/a	n/a	n/a	n/a	2	[0, 0, 0]	-999	PAL1	2	R1284N
740.727	4.0	422957	TEST_PROBE	n/a	wordpools/wordpool_EN.txt	6	2	BANK	TENT	BANK	LAWN	2	[0, 0, 0]	-999	PAL1	2	R1284N
740.727	1.82	422957	REC_START	n/a	n/a	6	-999	n/a	TENT	n/a	n/a	2	[0, 0, 0]	-999	PAL1	2	R1284N
742.547	0.95	424777	REC_EVENT	1.82	n/a	6	2	BANK	<>	BANK	LAWN	2	[0, 0, 0]	-999	PAL1	2	R1284N
743.497	1.242	425727	REC_EVENT	2.77	n/a	6	2	BANK	CASH	BANK	LAWN	2	[0, 0, 0]	-999	PAL1	2	R1284N
744.739	0.26	426969	PROBE_OFF	n/a	n/a	6	-999	n/a	n/a	n/a	n/a	2	[0, 0, 0]	-999	PAL1	2	R1284N
744.999	0.74	427229	REC_EVENT	4.272	n/a	6	2	BANK	TENT	BANK	LAWN	2	[0, 0, 0]	-999	PAL1	2	R1284N
745.739	0.007	427969	REC_END	n/a	n/a	6	-999	n/a	n/a	n/a	n/a	2	[0, 0, 0]	-999	PAL1	2	R1284N
745.746	0.253	427976	TEST_ORIENT	n/a	n/a	1	3	CASH	TANK	CANE	CASH	2	[0, 0, 0]	-999	PAL1	2	R1284N
745.999	0.725	428229	RETRIEVAL_ORIENT_OFF	n/a	n/a	6	-999	n/a	n/a	n/a	n/a	2	[0, 0, 0]	-999	PAL1	2	R1284N
746.724	4.0	428954	TEST_PROBE	n/a	wordpools/wordpool_EN.txt	1	3	CASH	TANK	CANE	CASH	2	[0, 0, 0]	-999	PAL1	2	R1284N
746.725	0.974	428955	REC_START	n/a	n/a	1	-999	n/a	TANK	n/a	n/a	2	[0, 0, 0]	-999	PAL1	2	R1284N
747.699	3.028	429929	REC_EVENT	0.974	n/a	1	3	CASH	TANK	CANE	CASH	2	[0, 0, 0]	-999	PAL1	2	R1284N
750.727	1.0	432957	PROBE_OFF	n/a	n/a	1	-999	n/a	n/a	n/a	n/a	2	[0, 0, 0]	-999	PAL1	2	R1284N
751.727	0.012	433957	REC_END	n/a	n/a	1	-999	n/a	n/a	n/a	n/a	2	[0, 0, 0]	-999	PAL1	2	R1284N
751.739	0.253	433969	TEST_ORIENT	n/a	n/a	4	4	DRESS	n/a	BLUSH	DRESS	2	[0, 0, 0]	-999	PAL1	2	R1284N
751.992	0.517	434222	RETRIEVAL_ORIENT_OFF	n/a	n/a	1	-999	n/a	n/a	n/a	n/a	2	[0, 0, 0]	-999	PAL1	2	R1284N
752.509	4.0	434739	TEST_PROBE	n/a	wordpools/wordpool_EN.txt	4	4	DRESS	n/a	BLUSH	DRESS	2	[0, 0, 0]	-999	PAL1	2	R1284N
752.51	4.002	434740	REC_START	n/a	n/a	4	-999	n/a	n/a	n/a	n/a	2	[0, 0, 0]	-999	PAL1	2	R1284N
756.512	0.951	438742	PROBE_OFF	n/a	n/a	4	-999	n/a	n/a	n/a	n/a	2	[0, 0, 0]	-999	PAL1	2	R1284N
757.463	0.049	439693	REC_EVENT	4.953	n/a	4	4	DRESS	<>	BLUSH	DRESS	2	[0, 0, 0]	-999	PAL1	2	R1284N
757.512	0.013	439742	REC_END	n/a	n/a	4	-999	n/a	n/a	n/a	n/a	2	[0, 0, 0]	-999	PAL1	2	R1284N
757.525	0.253	439755	TEST_ORIENT	n/a	n/a	3	5	SIGN	n/a	SIGN	TANK	2	[0, 0, 0]	-999	PAL1	2	R1284N
757.778	0.68	440008	RETRIEVAL_ORIENT_OFF	n/a	n/a	4	-999	n/a	n/a	n/a	n/a	2	[0, 0, 0]	-999	PAL1	2	R1284N
758.458	4.0	440688	TEST_PROBE	n/a	wordpools/wordpool_EN.txt	3	5	SIGN	n/a	SIGN	TANK	2	[0, 0, 0]	-999	PAL1	2	R1284N
758.458	4.011	440688	REC_START	n/a	n/a	3	-999	n/a	n/a	n/a	n/a	2	[0, 0, 0]	-999	PAL1	2	R1284N
762.469	0.865	444699	PROBE_OFF	n/a	n/a	3	-999	n/a	n/a	n/a	n/a	2	[0, 0, 0]	-999	PAL1	2	R1284N
763.334	0.135	445564	REC_EVENT	4.876	n/a	3	5	SIGN	<>	SIGN	TANK	2	[0, 0, 0]	-999	PAL1	2	R1284N
763.469	0.007	445699	REC_END	n/a	n/a	3	-999	n/a	n/a	n/a	n/a	2	[0, 0, 0]	-999	PAL1	2	R1284N
763.476	0.252	445706	TEST_ORIENT	n/a	n/a	2	6	BROOM	DRESS	BROOM	NET	2	[0, 0, 0]	-999	PAL1	2	R1284N
763.728	0.694	445958	RETRIEVAL_ORIENT_OFF	n/a	n/a	3	-999	n/a	n/a	n/a	n/a	2	[0, 0, 0]	-999	PAL1	2	R1284N
764.422	0.0	446652	REC_START	n/a	n/a	2	-999	n/a	DRESS	n/a	n/a	2	[0, 0, 0]	-999	PAL1	2	R1284N
764.422	4.0	446652	TEST_PROBE	n/a	wordpools/wordpool_EN.txt	2	6	BROOM	DRESS	BROOM	NET	2	[0, 0, 0]	-999	PAL1	2	R1284N
765.607	2.826	447837	REC_EVENT	1.185	n/a	2	6	BROOM	DRESS	BROOM	NET	2	[0, 0, 0]	-999	PAL1	2	R1284N
768.433	1.0	450664	PROBE_OFF	n/a	n/a	2	-999	n/a	n/a	n/a	n/a	2	[0, 0, 0]	-999	PAL1	2	R1284N
769.433	0.003	451664	REC_END	n/a	n/a	2	-999	n/a	n/a	n/a	n/a	2	[0, 0, 0]	-999	PAL1	2	R1284N
769.436	6.149	451667	RECALL_END	n/a	n/a	-999	-999	n/a	n/a	n/a	n/a	2	[0, 0, 0]	-999	PAL1	2	R1284N
775.585	10.928	457816	TRIAL	n/a	n/a	-999	-999	n/a	n/a	n/a	n/a	3	[0, 0, 0]	-999	PAL1	2	R1284N
786.513	0.004	468744	ENCODING_START	n/a	n/a	-999	-999	n/a	n/a	n/a	n/a	3	[0, 0, 0]	-999	PAL1	2	R1284N
786.517	0.253	468748	STUDY_ORIENT	n/a	n/a	1	3	PET	RING	PET	STRING	3	[0, 0, 0]	-999	PAL1	2	R1284N
786.77	0.584	469001	STUDY_ORIENT_OFF	n/a	n/a	1	3	PET	RING	PET	STRING	3	[0, 0, 0]	-999	PAL1	2	R1284N
787.354	4.0	469585	STUDY_PAIR	n/a	wordpools/wordpool_EN.txt	1	3	PET	RING	PET	STRING	3	[0, 0, 0]	-999	PAL1	2	R1284N
791.357	1.003	473588	PAIR_OFF	n/a	n/a	1	3	PET	RING	PET	STRING	3	[0, 0, 0]	-999	PAL1	2	R1284N
792.36	0.253	474591	STUDY_ORIENT	n/a	n/a	2	6	ROCK	NOSE	NOSE	ROCK	3	[0, 0, 0]	-999	PAL1	2	R1284N
792.613	0.614	474844	STUDY_ORIENT_OFF	n/a	n/a	2	6	ROCK	NOSE	NOSE	ROCK	3	[0, 0, 0]	-999	PAL1	2	R1284N
793.227	4.0	475458	STUDY_PAIR	n/a	wordpools/wordpool_EN.txt	2	6	ROCK	NOSE	NOSE	ROCK	3	[0, 0, 0]	-999	PAL1	2	R1284N
797.23	1.003	479461	PAIR_OFF	n/a	n/a	2	6	ROCK	NOSE	NOSE	ROCK	3	[0, 0, 0]	-999	PAL1	2	R1284N
798.233	0.253	480464	STUDY_ORIENT	n/a	n/a	3	5	SAIL	SAIL	SAIL	THUMB	3	[0, 0, 0]	-999	PAL1	2	R1284N
798.486	0.653	480717	STUDY_ORIENT_OFF	n/a	n/a	3	5	SAIL	SAIL	SAIL	THUMB	3	[0, 0, 0]	-999	PAL1	2	R1284N
799.139	4.0	481370	STUDY_PAIR	n/a	wordpools/wordpool_EN.txt	3	5	SAIL	SAIL	SAIL	THUMB	3	[0, 0, 0]	-999	PAL1	2	R1284N
803.141	1.004	485372	PAIR_OFF	n/a	n/a	3	5	SAIL	SAIL	SAIL	THUMB	3	[0, 0, 0]	-999	PAL1	2	R1284N
804.145	0.253	486377	STUDY_ORIENT	n/a	n/a	4	2	TRASH	LEAF	TRASH	LEAF	3	[0, 0, 0]	-999	PAL1	2	R1284N
804.398	0.572	486630	STUDY_ORIENT_OFF	n/a	n/a	4	2	TRASH	LEAF	TRASH	LEAF	3	[0, 0, 0]	-999	PAL1	2	R1284N
804.97	4.0	487202	STUDY_PAIR	n/a	wordpools/wordpool_EN.txt	4	2	TRASH	LEAF	TRASH	LEAF	3	[0, 0, 0]	-999	PAL1	2	R1284N
808.972	1.004	491204	PAIR_OFF	n/a	n/a	4	2	TRASH	LEAF	TRASH	LEAF	3	[0, 0, 0]	-999	PAL1	2	R1284N
809.976	0.257	492208	STUDY_ORIENT	n/a	n/a	5	1	EGG	n/a	EGG	CAGE	3	[0, 0, 0]	-999	PAL1	2	R1284N
810.233	0.595	492465	STUDY_ORIENT_OFF	n/a	n/a	5	1	EGG	n/a	EGG	CAGE	3	[0, 0, 0]	-999	PAL1	2	R1284N
810.828	4.0	493060	STUDY_PAIR	n/a	wordpools/wordpool_EN.txt	5	1	EGG	n/a	EGG	CAGE	3	[0, 0, 0]	-999	PAL1	2	R1284N
814.831	1.002	497063	PAIR_OFF	n/a	n/a	5	1	EGG	n/a	EGG	CAGE	3	[0, 0, 0]	-999	PAL1	2	R1284N
815.833	0.253	498065	STUDY_ORIENT	n/a	n/a	6	4	DESK	n/a	DESK	MAZE	3	[0, 0, 0]	-999	PAL1	2	R1284N
816.086	0.605	498318	STUDY_ORIENT_OFF	n/a	n/a	6	4	DESK	n/a	DESK	MAZE	3	[0, 0, 0]	-999	PAL1	2	R1284N
816.691	4.0	498923	STUDY_PAIR	n/a	wordpools/wordpool_EN.txt	6	4	DESK	n/a	DESK	MAZE	3	[0, 0, 0]	-999	PAL1	2	R1284N
820.694	1.0	502926	PAIR_OFF	n/a	n/a	6	4	DESK	n/a	DESK	MAZE	3	[0, 0, 0]	-999	PAL1	2	R1284N
821.694	0.0	503926	MATH_START	n/a	n/a	-999	-999	n/a	n/a	n/a	n/a	3	[0, 0, 0]	-999	PAL1	2	R1284N
821.694	0.0	503926	ENCODING_END	n/a	n/a	-999	-999	n/a	n/a	n/a	n/a	3	[0, 0, 0]	-999	PAL1	2	R1284N
821.694	0.008	503926	START	n/a	n/a	-999	-999	n/a	n/a	n/a	n/a	3	[-999, -999, -999]	-999	PAL1	2	R1284N
821.702	3.589	503934	PROB	3.578	n/a	-999	-999	n/a	n/a	n/a	n/a	3	[6, 1, 4]	11	PAL1	2	R1284N
825.291	3.951	507523	PROB	3.94	n/a	-999	-999	n/a	n/a	n/a	n/a	3	[8, 1, 7]	16	PAL1	2	R1284N
829.242	5.952	511474	PROB	5.941	n/a	-999	-999	n/a	n/a	n/a	n/a	3	[7, 3, 6]	16	PAL1	2	R1284N
835.194	3.359	517426	PROB	3.348	n/a	-999	-999	n/a	n/a	n/a	n/a	3	[5, 8, 8]	21	PAL1	2	R1284N
838.553	6.789	520785	PROB	6.789	n/a	-999	-999	n/a	n/a	n/a	n/a	3	[9, 8, 8]	25	PAL1	2	R1284N
845.342	0.005	527575	STOP	n/a	n/a	-999	-999	n/a	n/a	n/a	n/a	3	[-999, -999, -999]	-999	PAL1	2	R1284N
845.347	0.001	527580	MATH_END	n/a	n/a	-999	-999	n/a	n/a	n/a	n/a	3	[0, 0, 0]	-999	PAL1	2	R1284N
845.348	0.003	527581	RECALL_START	n/a	n/a	-999	-999	n/a	n/a	n/a	n/a	3	[0, 0, 0]	-999	PAL1	2	R1284N
845.351	0.253	527584	TEST_ORIENT	n/a	n/a	5	1	EGG	n/a	EGG	CAGE	3	[0, 0, 0]	-999	PAL1	2	R1284N
845.604	0.587	527837	RETRIEVAL_ORIENT_OFF	n/a	n/a	-999	-999	n/a	n/a	n/a	n/a	3	[0, 0, 0]	-999	PAL1	2	R1284N
846.191	4.0	528424	TEST_PROBE	n/a	wordpools/wordpool_EN.txt	5	1	EGG	n/a	EGG	CAGE	3	[0, 0, 0]	-999	PAL1	2	R1284N
846.192	4.001	528425	REC_START	n/a	n/a	5	-999	n/a	n/a	n/a	n/a	3	[0, 0, 0]	-999	PAL1	2	R1284N
850.193	0.828	532426	PROBE_OFF	n/a	n/a	5	-999	n/a	n/a	n/a	n/a	3	[0, 0, 0]	-999	PAL1	2	R1284N
851.021	0.172	533254	REC_EVENT	4.829	n/a	5	1	EGG	<>	EGG	CAGE	3	[0, 0, 0]	-999	PAL1	2	R1284N
851.193	0.013	533426	REC_END	n/a	n/a	5	-999	n/a	n/a	n/a	n/a	3	[0, 0, 0]	-999	PAL1	2	R1284N
851.206	0.253	533439	TEST_ORIENT	n/a	n/a	4	2	TRASH	LEAF	TRASH	LEAF	3	[0, 0, 0]	-999	PAL1	2	R1284N
851.459	0.721	533692	RETRIEVAL_ORIENT_OFF	n/a	n/a	5	-999	n/a	n/a	n/a	n/a	3	[0, 0, 0]	-999	PAL1	2	R1284N
852.18	4.0	534413	TEST_PROBE	n/a	wordpools/wordpool_EN.txt	4	2	TRASH	LEAF	TRASH	LEAF	3	[0, 0, 0]	-999	PAL1	2	R1284N
852.18	2.021	534413	REC_START	n/a	n/a	4	-999	n/a	LEAF	n/a	n/a	3	[0, 0, 0]	-999	PAL1	2	R1284N
854.201	1.991	536434	REC_EVENT	2.021	n/a	4	2	TRASH	LEAF	TRASH	LEAF	3	[0, 0, 0]	-999	PAL1	2	R1284N
856.192	1.0	538425	PROBE_OFF	n/a	n/a	4	-999	n/a	n/a	n/a	n/a	3	[0, 0, 0]	-999	PAL1	2	R1284N
857.192	0.007	539425	REC_END	n/a	n/a	4	-999	n/a	n/a	n/a	n/a	3	[0, 0, 0]	-999	PAL1	2	R1284N
857.199	0.253	539432	TEST_ORIENT	n/a	n/a	1	3	PET	RING	PET	STRING	3	[0, 0, 0]	-999	PAL1	2	R1284N
857.452	0.586	539685	RETRIEVAL_ORIENT_OFF	n/a	n/a	4	-999	n/a	n/a	n/a	n/a	3	[0, 0, 0]	-999	PAL1	2	R1284N
858.038	4.0	540271	TEST_PROBE	n/a	wordpools/wordpool_EN.txt	1	3	PET	RING	PET	STRING	3	[0, 0, 0]	-999	PAL1	2	R1284N
858.038	0.943	540271	REC_START	n/a	n/a	1	-999	n/a	RING	n/a	n/a	3	[0, 0, 0]	-999	PAL1	2	R1284N
858.981	3.068	541214	REC_EVENT	0.943	n/a	1	3	PET	RING	PET	STRING	3	[0, 0, 0]	-999	PAL1	2	R1284N
862.049	1.001	544282	PROBE_OFF	n/a	n/a	1	-999	n/a	n/a	n/a	n/a	3	[0, 0, 0]	-999	PAL1	2	R1284N
863.05	0.007	545283	REC_END	n/a	n/a	1	-999	n/a	n/a	n/a	n/a	3	[0, 0, 0]	-999	PAL1	2	R1284N
863.057	0.253	545290	TEST_ORIENT	n/a	n/a	6	4	DESK	n/a	DESK	MAZE	3	[0, 0, 0]	-999	PAL1	2	R1284N
863.31	0.568	545543	RETRIEVAL_ORIENT_OFF	n/a	n/a	1	-999	n/a	n/a	n/a	n/a	3	[0, 0, 0]	-999	PAL1	2	R1284N
863.878	4.0	546111	TEST_PROBE	n/a	wordpools/wordpool_EN.txt	6	4	DESK	n/a	DESK	MAZE	3	[0, 0, 0]	-999	PAL1	2	R1284N
863.878	4.011	546111	REC_START	n/a	n/a	6	-999	n/a	n/a	n/a	n/a	3	[0, 0, 0]	-999	PAL1	2	R1284N
867.889	0.818	550122	PROBE_OFF	n/a	n/a	6	-999	n/a	n/a	n/a	n/a	3	[0, 0, 0]	-999	PAL1	2	R1284N
868.707	0.182	550940	REC_EVENT	4.829	n/a	6	4	DESK	<>	DESK	MAZE	3	[0, 0, 0]	-999	PAL1	2	R1284N
868.889	0.007	551122	REC_END	n/a	n/a	6	-999	n/a	n/a	n/a	n/a	3	[0, 0, 0]	-999	PAL1	2	R1284N
868.896	0.252	551129	TEST_ORIENT	n/a	n/a	3	5	SAIL	SAIL	SAIL	THUMB	3	[0, 0, 0]	-999	PAL1	2	R1284N
869.148	0.565	551381	RETRIEVAL_ORIENT_OFF	n/a	n/a	6	-999	n/a	n/a	n/a	n/a	3	[0, 0, 0]	-999	PAL1	2	R1284N
869.713	4.0	551946	TEST_PROBE	n/a	wordpools/wordpool_EN.txt	3	5	SAIL	SAIL	SAIL	THUMB	3	[0, 0, 0]	-999	PAL1	2	R1284N
869.713	1.294	551946	REC_START	n/a	n/a	3	-999	n/a	SAIL	n/a	n/a	3	[0, 0, 0]	-999	PAL1	2	R1284N
871.007	2.708	553240	REC_EVENT	1.294	n/a	3	5	SAIL	SAIL	SAIL	THUMB	3	[0, 0, 0]	-999	PAL1	2	R1284N
873.715	1.0	555948	PROBE_OFF	n/a	n/a	3	-999	n/a	n/a	n/a	n/a	3	[0, 0, 0]	-999	PAL1	2	R1284N
874.715	0.012	556948	REC_END	n/a	n/a	3	-999	n/a	n/a	n/a	n/a	3	[0, 0, 0]	-999	PAL1	2	R1284N
874.727	0.253	556960	TEST_ORIENT	n/a	n/a	2	6	ROCK	NOSE	NOSE	ROCK	3	[0, 0, 0]	-999	PAL1	2	R1284N
874.98	0.722	557213	RETRIEVAL_ORIENT_OFF	n/a	n/a	3	-999	n/a	n/a	n/a	n/a	3	[0, 0, 0]	-999	PAL1	2	R1284N
875.702	4.0	557935	TEST_PROBE	n/a	wordpools/wordpool_EN.txt	2	6	ROCK	NOSE	NOSE	ROCK	3	[0, 0, 0]	-999	PAL1	2	R1284N
875.702	1.075	557935	REC_START	n/a	n/a	2	-999	n/a	NOSE	n/a	n/a	3	[0, 0, 0]	-999	PAL1	2	R1284N
876.777	2.936	559010	REC_EVENT	1.075	n/a	2	6	ROCK	NOSE	NOSE	ROCK	3	[0, 0, 0]	-999	PAL1	2	R1284N
879.713	1.0	561947	PROBE_OFF	n/a	n/a	2	-999	n/a	n/a	n/a	n/a	3	[0, 0, 0]	-999	PAL1	2	R1284N
880.713	0.003	562947	REC_END	n/a	n/a	2	-999	n/a	n/a	n/a	n/a	3	[0, 0, 0]	-999	PAL1	2	R1284N
880.716	5.07	562950	RECALL_END	n/a	n/a	-999	-999	n/a	n/a	n/a	n/a	3	[0, 0, 0]	-999	PAL1	2	R1284N
885.786	10.929	568020	TRIAL	n/a	n/a	-999	-999	n/a	n/a	n/a	n/a	4	[0, 0, 0]	-999	PAL1	2	R1284N
896.715	0.003	578949	ENCODING_START	n/a	n/a	-999	-999	n/a	n/a	n/a	n/a	4	[0, 0, 0]	-999	PAL1	2	R1284N
896.718	0.252	578952	STUDY_ORIENT	n/a	n/a	1	3	BRIDGE	CLAY	BRIDGE	CLAY	4	[0, 0, 0]	-999	PAL1	2	R1284N
896.97	0.75	579204	STUDY_ORIENT_OFF	n/a	n/a	1	3	BRIDGE	CLAY	BRIDGE	CLAY	4	[0, 0, 0]	-999	PAL1	2	R1284N
897.72	4.0	579954	STUDY_PAIR	n/a	wordpools/wordpool_EN.txt	1	3	BRIDGE	CLAY	BRIDGE	CLAY	4	[0, 0, 0]	-999	PAL1	2	R1284N
901.723	1.004	583957	PAIR_OFF	n/a	n/a	1	3	BRIDGE	CLAY	BRIDGE	CLAY	4	[0, 0, 0]	-999	PAL1	2	R1284N
902.727	0.252	584961	STUDY_ORIENT	n/a	n/a	2	6	BAND	n/a	STAIR	BAND	4	[0, 0, 0]	-999	PAL1	2	R1284N
902.979	0.554	585213	STUDY_ORIENT_OFF	n/a	n/a	2	6	BAND	n/a	STAIR	BAND	4	[0, 0, 0]	-999	PAL1	2	R1284N
903.533	4.0	585767	STUDY_PAIR	n/a	wordpools/wordpool_EN.txt	2	6	BAND	n/a	STAIR	BAND	4	[0, 0, 0]	-999	PAL1	2	R1284N
907.536	1.004	589770	PAIR_OFF	n/a	n/a	2	6	BAND	n/a	STAIR	BAND	4	[0, 0, 0]	-999	PAL1	2	R1284N
908.54	0.252	590774	STUDY_ORIENT	n/a	n/a	3	1	STOOL	STICK	STOOL	LEG	4	[0, 0, 0]	-999	PAL1	2	R1284N
908.792	0.565	591026	STUDY_ORIENT_OFF	n/a	n/a	3	1	STOOL	STICK	STOOL	LEG	4	[0, 0, 0]	-999	PAL1	2	R1284N
909.357	4.0	591591	STUDY_PAIR	n/a	wordpools/wordpool_EN.txt	3	1	STOOL	STICK	STOOL	LEG	4	[0, 0, 0]	-999	PAL1	2	R1284N
913.36	1.003	595594	PAIR_OFF	n/a	n/a	3	1	STOOL	STICK	STOOL	LEG	4	[0, 0, 0]	-999	PAL1	2	R1284N
914.363	0.252	596597	STUDY_ORIENT	n/a	n/a	4	4	DITCH	n/a	DITCH	PLATE	4	[0, 0, 0]	-999	PAL1	2	R1284N
914.615	0.629	596849	STUDY_ORIENT_OFF	n/a	n/a	4	4	DITCH	n/a	DITCH	PLATE	4	[0, 0, 0]	-999	PAL1	2	R1284N
915.244	4.0	597478	STUDY_PAIR	n/a	wordpools/wordpool_EN.txt	4	4	DITCH	n/a	DITCH	PLATE	4	[0, 0, 0]	-999	PAL1	2	R1284N
919.246	1.004	601481	PAIR_OFF	n/a	n/a	4	4	DITCH	n/a	DITCH	PLATE	4	[0, 0, 0]	-999	PAL1	2	R1284N
920.25	0.253	602485	STUDY_ORIENT	n/a	n/a	5	5	OWL	n/a	FISH	OWL	4	[0, 0, 0]	-999	PAL1	2	R1284N
920.503	0.573	602738	STUDY_ORIENT_OFF	n/a	n/a	5	5	OWL	n/a	FISH	OWL	4	[0, 0, 0]	-999	PAL1	2	R1284N
921.076	4.0	603311	STUDY_PAIR	n/a	wordpools/wordpool_EN.txt	5	5	OWL	n/a	FISH	OWL	4	[0, 0, 0]	-999	PAL1	2	R1284N
925.079	1.004	607314	PAIR_OFF	n/a	n/a	5	5	OWL	n/a	FISH	OWL	4	[0, 0, 0]	-999	PAL1	2	R1284N
926.083	0.252	608318	STUDY_ORIENT	n/a	n/a	6	2	HEART	n/a	ELF	HEART	4	[0, 0, 0]	-999	PAL1	2	R1284N
926.335	0.52	608570	STUDY_ORIENT_OFF	n/a	n/a	6	2	HEART	n/a	ELF	HEART	4	[0, 0, 0]	-999	PAL1	2	R1284N
926.855	4.0	609090	STUDY_PAIR	n/a	wordpools/wordpool_EN.txt	6	2	HEART	n/a	ELF	HEART	4	[0, 0, 0]	-999	PAL1	2	R1284N
930.858	1.001	613093	PAIR_OFF	n/a	n/a	6	2	HEART	n/a	ELF	HEART	4	[0, 0, 0]	-999	PAL1	2	R1284N
931.859	0.0	614094	ENCODING_END	n/a	n/a	-999	-999	n/a	n/a	n/a	n/a	4	[0, 0, 0]	-999	PAL1	2	R1284N
931.859	0.0	614094	MATH_START	n/a	n/a	-999	-999	n/a	n/a	n/a	n/a	4	[0, 0, 0]	-999	PAL1	2	R1284N
931.859	0.008	614094	START	n/a	n/a	-999	-999	n/a	n/a	n/a	n/a	4	[-999, -999, -999]	-999	PAL1	2	R1284N
931.867	11.768	614102	PROB	11.757	n/a	-999	-999	n/a	n/a	n/a	n/a	4	[4, 9, 7]	20	PAL1	2	R1284N
943.635	5.399	625870	PROB	5.388	n/a	-999	-999	n/a	n/a	n/a	n/a	4	[9, 4, 3]	15	PAL1	2	R1284N
949.034	4.037	631269	PROB	4.037	n/a	-999	-999	n/a	n/a	n/a	n/a	4	[2, 5, 7]	14	PAL1	2	R1284N
953.071	0.005	635306	STOP	n/a	n/a	-999	-999	n/a	n/a	n/a	n/a	4	[-999, -999, -999]	-999	PAL1	2	R1284N
953.076	0.0	635311	RECALL_START	n/a	n/a	-999	-999	n/a	n/a	n/a	n/a	4	[0, 0, 0]	-999	PAL1	2	R1284N
953.076	0.004	635311	MATH_END	n/a	n/a	-999	-999	n/a	n/a	n/a	n/a	4	[0, 0, 0]	-999	PAL1	2	R1284N
953.08	0.253	635315	TEST_ORIENT	n/a	n/a	3	1	STOOL	STICK	STOOL	LEG	4	[0, 0, 0]	-999	PAL1	2	R1284N
953.333	0.585	635568	RETRIEVAL_ORIENT_OFF	n/a	n/a	-999	-999	n/a	n/a	n/a	n/a	4	[0, 0, 0]	-999	PAL1	2	R1284N
953.918	4.0	636153	TEST_PROBE	n/a	wordpools/wordpool_EN.txt	3	1	STOOL	STICK	STOOL	LEG	4	[0, 0, 0]	-999	PAL1	2	R1284N
953.918	1.48	636153	REC_START	n/a	n/a	3	-999	n/a	STICK	n/a	n/a	4	[0, 0, 0]	-999	PAL1	2	R1284N
955.398	2.531	637633	REC_EVENT	1.48	n/a	3	1	STOOL	STICK	STOOL	LEG	4	[0, 0, 0]	-999	PAL1	2	R1284N
957.929	1.001	640165	PROBE_OFF	n/a	n/a	3	-999	n/a	n/a	n/a	n/a	4	[0, 0, 0]	-999	PAL1	2	R1284N
958.93	0.006	641166	REC_END	n/a	n/a	3	-999	n/a	n/a	n/a	n/a	4	[0, 0, 0]	-999	PAL1	2	R1284N
958.936	0.253	641172	TEST_ORIENT	n/a	n/a	6	2	HEART	n/a	ELF	HEART	4	[0, 0, 0]	-999	PAL1	2	R1284N
959.189	0.513	641425	RETRIEVAL_ORIENT_OFF	n/a	n/a	3	-999	n/a	n/a	n/a	n/a	4	[0, 0, 0]	-999	PAL1	2	R1284N
959.702	4.0	641938	TEST_PROBE	n/a	wordpools/wordpool_EN.txt	6	2	HEART	n/a	ELF	HEART	4	[0, 0, 0]	-999	PAL1	2	R1284N
959.703	4.001	641939	REC_START	n/a	n/a	6	-999	n/a	n/a	n/a	n/a	4	[0, 0, 0]	-999	PAL1	2	R1284N
963.704	0.805	645940	PROBE_OFF	n/a	n/a	6	-999	n/a	n/a	n/a	n/a	4	[0, 0, 0]	-999	PAL1	2	R1284N
964.509	0.195	646745	REC_EVENT	4.806	n/a	6	2	HEART	<>	ELF	HEART	4	[0, 0, 0]	-999	PAL1	2	R1284N
964.704	0.013	646940	REC_END	n/a	n/a	6	-999	n/a	n/a	n/a	n/a	4	[0, 0, 0]	-999	PAL1	2	R1284N
964.717	0.252	646953	TEST_ORIENT	n/a	n/a	1	3	BRIDGE	CLAY	BRIDGE	CLAY	4	[0, 0, 0]	-999	PAL1	2	R1284N
964.969	0.663	647205	RETRIEVAL_ORIENT_OFF	n/a	n/a	6	-999	n/a	n/a	n/a	n/a	4	[0, 0, 0]	-999	PAL1	2	R1284N
965.632	4.0	647868	TEST_PROBE	n/a	wordpools/wordpool_EN.txt	1	3	BRIDGE	CLAY	BRIDGE	CLAY	4	[0, 0, 0]	-999	PAL1	2	R1284N
965.632	2.299	647868	REC_START	n/a	n/a	1	-999	n/a	CLAY	n/a	n/a	4	[0, 0, 0]	-999	PAL1	2	R1284N
967.931	1.712	650167	REC_EVENT	2.299	n/a	1	3	BRIDGE	CLAY	BRIDGE	CLAY	4	[0, 0, 0]	-999	PAL1	2	R1284N
969.643	1.0	651879	PROBE_OFF	n/a	n/a	1	-999	n/a	n/a	n/a	n/a	4	[0, 0, 0]	-999	PAL1	2	R1284N
970.643	0.007	652879	REC_END	n/a	n/a	1	-999	n/a	n/a	n/a	n/a	4	[0, 0, 0]	-999	PAL1	2	R1284N
970.65	0.252	652886	TEST_ORIENT	n/a	n/a	4	4	DITCH	n/a	DITCH	PLATE	4	[0, 0, 0]	-999	PAL1	2	R1284N
970.902	0.687	653138	RETRIEVAL_ORIENT_OFF	n/a	n/a	1	-999	n/a	n/a	n/a	n/a	4	[0, 0, 0]	-999	PAL1	2	R1284N
971.589	4.0	653825	TEST_PROBE	n/a	wordpools/wordpool_EN.txt	4	4	DITCH	n/a	DITCH	PLATE	4	[0, 0, 0]	-999	PAL1	2	R1284N
971.589	4.012	653825	REC_START	n/a	n/a	4	-999	n/a	n/a	n/a	n/a	4	[0, 0, 0]	-999	PAL1	2	R1284N
975.601	0.91	657837	PROBE_OFF	n/a	n/a	4	-999	n/a	n/a	n/a	n/a	4	[0, 0, 0]	-999	PAL1	2	R1284N
976.511	0.091	658747	REC_EVENT	4.922	n/a	4	4	DITCH	<>	DITCH	PLATE	4	[0, 0, 0]	-999	PAL1	2	R1284N
976.602	0.008	658838	REC_END	n/a	n/a	4	-999	n/a	n/a	n/a	n/a	4	[0, 0, 0]	-999	PAL1	2	R1284N
976.61	0.252	658846	TEST_ORIENT	n/a	n/a	5	5	OWL	n/a	FISH	OWL	4	[0, 0, 0]	-999	PAL1	2	R1284N
976.862	0.681	659098	RETRIEVAL_ORIENT_OFF	n/a	n/a	4	-999	n/a	n/a	n/a	n/a	4	[0, 0, 0]	-999	PAL1	2	R1284N
977.543	4.0	659779	TEST_PROBE	n/a	wordpools/wordpool_EN.txt	5	5	OWL	n/a	FISH	OWL	4	[0, 0, 0]	-999	PAL1	2	R1284N
977.543	4.011	659779	REC_START	n/a	n/a	5	-999	n/a	n/a	n/a	n/a	4	[0, 0, 0]	-999	PAL1	2	R1284N
981.554	0.911	663790	PROBE_OFF	n/a	n/a	5	-999	n/a	n/a	n/a	n/a	4	[0, 0, 0]	-999	PAL1	2	R1284N
982.465	0.09	664701	REC_EVENT	4.922	n/a	5	5	OWL	<>	FISH	OWL	4	[0, 0, 0]	-999	PAL1	2	R1284N
982.555	0.007	664791	REC_END	n/a	n/a	5	-999	n/a	n/a	n/a	n/a	4	[0, 0, 0]	-999	PAL1	2	R1284N
982.562	0.252	664798	TEST_ORIENT	n/a	n/a	2	6	BAND	n/a	STAIR	BAND	4	[0, 0, 0]	-999	PAL1	2	R1284N
982.814	0.67	665050	RETRIEVAL_ORIENT_OFF	n/a	n/a	5	-999	n/a	n/a	n/a	n/a	4	[0, 0, 0]	-999	PAL1	2	R1284N
983.484	4.0	665720	TEST_PROBE	n/a	wordpools/wordpool_EN.txt	2	6	BAND	n/a	STAIR	BAND	4	[0, 0, 0]	-999	PAL1	2	R1284N
983.485	4.02	665721	REC_START	n/a	n/a	2	-999	n/a	n/a	n/a	n/a	4	[0, 0, 0]	-999	PAL1	2	R1284N
987.505	0.879	669741	PROBE_OFF	n/a	n/a	2	-999	n/a	n/a	n/a	n/a	4	[0, 0, 0]	-999	PAL1	2	R1284N
988.384	0.121	670620	REC_EVENT	4.899	n/a	2	6	BAND	<>	STAIR	BAND	4	[0, 0, 0]	-999	PAL1	2	R1284N
988.505	0.003	670741	REC_END	n/a	n/a	2	-999	n/a	n/a	n/a	n/a	4	[0, 0, 0]	-999	PAL1	2	R1284N
988.508	4.31	670744	RECALL_END	n/a	n/a	-999	-999	n/a	n/a	n/a	n/a	4	[0, 0, 0]	-999	PAL1	2	R1284N
992.818	10.928	675054	TRIAL	n/a	n/a	-999	-999	n/a	n/a	n/a	n/a	5	[0, 0, 0]	-999	PAL1	2	R1284N
1003.746	0.004	685983	ENCODING_START	n/a	n/a	-999	-999	n/a	n/a	n/a	n/a	5	[0, 0, 0]	-999	PAL1	2	R1284N
1003.75	0.252	685987	STUDY_ORIENT	n/a	n/a	1	5	TRAY	GOLD	GOLD	TRAY	5	[0, 0, 0]	-999	PAL1	2	R1284N
1004.002	0.555	686239	STUDY_ORIENT_OFF	n/a	n/a	1	5	TRAY	GOLD	GOLD	TRAY	5	[0, 0, 0]	-999	PAL1	2	R1284N
1004.557	4.0	686794	STUDY_PAIR	n/a	wordpools/wordpool_EN.txt	1	5	TRAY	GOLD	GOLD	TRAY	5	[0, 0, 0]	-999	PAL1	2	R1284N
1008.559	1.004	690796	PAIR_OFF	n/a	n/a	1	5	TRAY	GOLD	GOLD	TRAY	5	[0, 0, 0]	-999	PAL1	2	R1284N
1009.563	0.253	691800	STUDY_ORIENT	n/a	n/a	2	6	PLANT	PALM	PALM	PLANT	5	[0, 0, 0]	-999	PAL1	2	R1284N
1009.816	0.755	692053	STUDY_ORIENT_OFF	n/a	n/a	2	6	PLANT	PALM	PALM	PLANT	5	[0, 0, 0]	-999	PAL1	2	R1284N
1010.571	4.0	692808	STUDY_PAIR	n/a	wordpools/wordpool_EN.txt	2	6	PLANT	PALM	PALM	PLANT	5	[0, 0, 0]	-999	PAL1	2	R1284N
1014.583	1.004	696820	PAIR_OFF	n/a	n/a	2	6	PLANT	PALM	PALM	PLANT	5	[0, 0, 0]	-999	PAL1	2	R1284N
1015.587	0.252	697824	STUDY_ORIENT	n/a	n/a	3	3	VEST	n/a	VEST	PIE	5	[0, 0, 0]	-999	PAL1	2	R1284N
1015.839	0.581	698076	STUDY_ORIENT_OFF	n/a	n/a	3	3	VEST	n/a	VEST	PIE	5	[0, 0, 0]	-999	PAL1	2	R1284N
1016.42	4.0	698657	STUDY_PAIR	n/a	wordpools/wordpool_EN.txt	3	3	VEST	n/a	VEST	PIE	5	[0, 0, 0]	-999	PAL1	2	R1284N
1020.423	1.004	702660	PAIR_OFF	n/a	n/a	3	3	VEST	n/a	VEST	PIE	5	[0, 0, 0]	-999	PAL1	2	R1284N
1021.427	0.253	703664	STUDY_ORIENT	n/a	n/a	4	4	STOVE	PLANT	FILM	STOVE	5	[0, 0, 0]	-999	PAL1	2	R1284N
1021.68	0.555	703917	STUDY_ORIENT_OFF	n/a	n/a	4	4	STOVE	PLANT	FILM	STOVE	5	[0, 0, 0]	-999	PAL1	2	R1284N
1022.235	4.0	704472	STUDY_PAIR	n/a	wordpools/wordpool_EN.txt	4	4	STOVE	PLANT	FILM	STOVE	5	[0, 0, 0]	-999	PAL1	2	R1284N
1026.238	1.004	708475	PAIR_OFF	n/a	n/a	4	4	STOVE	PLANT	FILM	STOVE	5	[0, 0, 0]	-999	PAL1	2	R1284N
1027.242	0.252	709479	STUDY_ORIENT	n/a	n/a	5	1	FLAG	n/a	FLAG	FORK	5	[0, 0, 0]	-999	PAL1	2	R1284N
1027.494	0.696	709731	STUDY_ORIENT_OFF	n/a	n/a	5	1	FLAG	n/a	FLAG	FORK	5	[0, 0, 0]	-999	PAL1	2	R1284N
1028.19	4.0	710427	STUDY_PAIR	n/a	wordpools/wordpool_EN.txt	5	1	FLAG	n/a	FLAG	FORK	5	[0, 0, 0]	-999	PAL1	2	R1284N
1032.192	1.003	714430	PAIR_OFF	n/a	n/a	5	1	FLAG	n/a	FLAG	FORK	5	[0, 0, 0]	-999	PAL1	2	R1284N
1033.195	0.252	715433	STUDY_ORIENT	n/a	n/a	6	2	VAN	n/a	VAN	DOG	5	[0, 0, 0]	-999	PAL1	2	R1284N
1033.447	0.709	715685	STUDY_ORIENT_OFF	n/a	n/a	6	2	VAN	n/a	VAN	DOG	5	[0, 0, 0]	-999	PAL1	2	R1284N
1034.156	4.0	716394	STUDY_PAIR	n/a	wordpools/wordpool_EN.txt	6	2	VAN	n/a	VAN	DOG	5	[0, 0, 0]	-999	PAL1	2	R1284N
1038.159	1.001	720397	PAIR_OFF	n/a	n/a	6	2	VAN	n/a	VAN	DOG	5	[0, 0, 0]	-999	PAL1	2	R1284N
1039.16	0.0	721398	ENCODING_END	n/a	n/a	-999	-999	n/a	n/a	n/a	n/a	5	[0, 0, 0]	-999	PAL1	2	R1284N
1039.16	0.0	721398	MATH_START	n/a	n/a	-999	-999	n/a	n/a	n/a	n/a	5	[0, 0, 0]	-999	PAL1	2	R1284N
1039.16	0.008	721398	START	n/a	n/a	-999	-999	n/a	n/a	n/a	n/a	5	[-999, -999, -999]	-999	PAL1	2	R1284N
1039.168	5.707	721406	PROB	5.696	n/a	-999	-999	n/a	n/a	n/a	n/a	5	[4, 9, 7]	20	PAL1	2	R1284N
1044.875	4.471	727113	PROB	4.461	n/a	-999	-999	n/a	n/a	n/a	n/a	5	[6, 4, 5]	15	PAL1	2	R1284N
1049.346	5.273	731584	PROB	5.262	n/a	-999	-999	n/a	n/a	n/a	n/a	5	[2, 3, 8]	13	PAL1	2	R1284N
1054.619	8.588	736857	PROB	8.588	n/a	-999	-999	n/a	n/a	n/a	n/a	5	[9, 6, 3]	18	PAL1	2	R1284N
1063.207	0.005	745445	STOP	n/a	n/a	-999	-999	n/a	n/a	n/a	n/a	5	[-999, -999, -999]	-999	PAL1	2	R1284N
1063.212	0.0	745450	MATH_END	n/a	n/a	-999	-999	n/a	n/a	n/a	n/a	5	[0, 0, 0]	-999	PAL1	2	R1284N
1063.212	0.004	745450	RECALL_START	n/a	n/a	-999	-999	n/a	n/a	n/a	n/a	5	[0, 0, 0]	-999	PAL1	2	R1284N
1063.216	0.253	745454	TEST_ORIENT	n/a	n/a	5	1	FLAG	n/a	FLAG	FORK	5	[0, 0, 0]	-999	PAL1	2	R1284N
1063.469	0.589	745707	RETRIEVAL_ORIENT_OFF	n/a	n/a	-999	-999	n/a	n/a	n/a	n/a	5	[0, 0, 0]	-999	PAL1	2	R1284N
1064.058	4.0	746296	TEST_PROBE	n/a	wordpools/wordpool_EN.txt	5	1	FLAG	n/a	FLAG	FORK	5	[0, 0, 0]	-999	PAL1	2	R1284N
1064.058	4.011	746296	REC_START	n/a	n/a	5	-999	n/a	n/a	n/a	n/a	5	[0, 0, 0]	-999	PAL1	2	R1284N
1068.069	0.888	750307	PROBE_OFF	n/a	n/a	5	-999	n/a	n/a	n/a	n/a	5	[0, 0, 0]	-999	PAL1	2	R1284N
1068.957	0.112	751195	REC_EVENT	4.899	n/a	5	1	FLAG	<>	FLAG	FORK	5	[0, 0, 0]	-999	PAL1	2	R1284N
1069.069	0.007	751307	REC_END	n/a	n/a	5	-999	n/a	n/a	n/a	n/a	5	[0, 0, 0]	-999	PAL1	2	R1284N
1069.076	0.253	751314	TEST_ORIENT	n/a	n/a	6	2	VAN	n/a	VAN	DOG	5	[0, 0, 0]	-999	PAL1	2	R1284N
1069.329	0.655	751567	RETRIEVAL_ORIENT_OFF	n/a	n/a	5	-999	n/a	n/a	n/a	n/a	5	[0, 0, 0]	-999	PAL1	2	R1284N
1069.984	4.0	752223	TEST_PROBE	n/a	wordpools/wordpool_EN.txt	6	2	VAN	n/a	VAN	DOG	5	[0, 0, 0]	-999	PAL1	2	R1284N
1069.985	4.002	752224	REC_START	n/a	n/a	6	-999	n/a	n/a	n/a	n/a	5	[0, 0, 0]	-999	PAL1	2	R1284N
1073.987	0.85	756226	PROBE_OFF	n/a	n/a	6	-999	n/a	n/a	n/a	n/a	5	[0, 0, 0]	-999	PAL1	2	R1284N
1074.837	0.163	757076	REC_EVENT	4.852	n/a	6	2	VAN	<>	VAN	DOG	5	[0, 0, 0]	-999	PAL1	2	R1284N
1075.0	0.007	757239	REC_END	n/a	n/a	6	-999	n/a	n/a	n/a	n/a	5	[0, 0, 0]	-999	PAL1	2	R1284N
1075.007	0.253	757246	TEST_ORIENT	n/a	n/a	3	3	VEST	n/a	VEST	PIE	5	[0, 0, 0]	-999	PAL1	2	R1284N
1075.26	0.729	757499	RETRIEVAL_ORIENT_OFF	n/a	n/a	6	-999	n/a	n/a	n/a	n/a	5	[0, 0, 0]	-999	PAL1	2	R1284N
1075.989	4.0	758228	TEST_PROBE	n/a	wordpools/wordpool_EN.txt	3	3	VEST	n/a	VEST	PIE	5	[0, 0, 0]	-999	PAL1	2	R1284N
1075.99	4.001	758229	REC_START	n/a	n/a	3	-999	n/a	n/a	n/a	n/a	5	[0, 0, 0]	-999	PAL1	2	R1284N
1079.991	0.875	762230	PROBE_OFF	n/a	n/a	3	-999	n/a	n/a	n/a	n/a	5	[0, 0, 0]	-999	PAL1	2	R1284N
1080.866	0.125	763105	REC_EVENT	4.876	n/a	3	3	VEST	<>	VEST	PIE	5	[0, 0, 0]	-999	PAL1	2	R1284N
1080.991	0.013	763230	REC_END	n/a	n/a	3	-999	n/a	n/a	n/a	n/a	5	[0, 0, 0]	-999	PAL1	2	R1284N
1081.004	0.252	763243	TEST_ORIENT	n/a	n/a	4	4	STOVE	PLANT	FILM	STOVE	5	[0, 0, 0]	-999	PAL1	2	R1284N
1081.256	0.614	763495	RETRIEVAL_ORIENT_OFF	n/a	n/a	3	-999	n/a	n/a	n/a	n/a	5	[0, 0, 0]	-999	PAL1	2	R1284N
1081.87	4.0	764109	TEST_PROBE	n/a	wordpools/wordpool_EN.txt	4	4	STOVE	PLANT	FILM	STOVE	5	[0, 0, 0]	-999	PAL1	2	R1284N
1081.87	3.175	764109	REC_START	n/a	n/a	4	-999	n/a	PLANT	n/a	n/a	5	[0, 0, 0]	-999	PAL1	2	R1284N
1085.045	0.836	767284	REC_EVENT	3.175	n/a	4	4	STOVE	PLANT	FILM	STOVE	5	[0, 0, 0]	-999	PAL1	2	R1284N
1085.881	1.001	768120	PROBE_OFF	n/a	n/a	4	-999	n/a	n/a	n/a	n/a	5	[0, 0, 0]	-999	PAL1	2	R1284N
1086.882	0.006	769121	REC_END	n/a	n/a	4	-999	n/a	n/a	n/a	n/a	5	[0, 0, 0]	-999	PAL1	2	R1284N
1086.888	0.252	769127	TEST_ORIENT	n/a	n/a	1	5	TRAY	GOLD	GOLD	TRAY	5	[0, 0, 0]	-999	PAL1	2	R1284N
1087.14	0.708	769379	RETRIEVAL_ORIENT_OFF	n/a	n/a	4	-999	n/a	n/a	n/a	n/a	5	[0, 0, 0]	-999	PAL1	2	R1284N
1087.848	0.0	770087	REC_START	n/a	n/a	1	-999	n/a	GOLD	n/a	n/a	5	[0, 0, 0]	-999	PAL1	2	R1284N
1087.848	4.0	770087	TEST_PROBE	n/a	wordpools/wordpool_EN.txt	1	5	TRAY	GOLD	GOLD	TRAY	5	[0, 0, 0]	-999	PAL1	2	R1284N
1088.827	3.033	771066	REC_EVENT	0.979	n/a	1	5	TRAY	GOLD	GOLD	TRAY	5	[0, 0, 0]	-999	PAL1	2	R1284N
1091.86	1.0	774099	PROBE_OFF	n/a	n/a	1	-999	n/a	n/a	n/a	n/a	5	[0, 0, 0]	-999	PAL1	2	R1284N
1092.86	0.007	775099	REC_END	n/a	n/a	1	-999	n/a	n/a	n/a	n/a	5	[0, 0, 0]	-999	PAL1	2	R1284N
1092.867	0.253	775106	TEST_ORIENT	n/a	n/a	2	6	PLANT	PALM	PALM	PLANT	5	[0, 0, 0]	-999	PAL1	2	R1284N
1093.12	0.631	775359	RETRIEVAL_ORIENT_OFF	n/a	n/a	1	-999	n/a	n/a	n/a	n/a	5	[0, 0, 0]	-999	PAL1	2	R1284N
1093.751	4.0	775990	TEST_PROBE	n/a	wordpools/wordpool_EN.txt	2	6	PLANT	PALM	PALM	PLANT	5	[0, 0, 0]	-999	PAL1	2	R1284N
1093.751	0.786	775990	REC_START	n/a	n/a	2	-999	n/a	PALM	n/a	n/a	5	[0, 0, 0]	-999	PAL1	2	R1284N
1094.537	3.226	776776	REC_EVENT	0.786	n/a	2	6	PLANT	PALM	PALM	PLANT	5	[0, 0, 0]	-999	PAL1	2	R1284N
1097.763	1.0	780002	PROBE_OFF	n/a	n/a	2	-999	n/a	n/a	n/a	n/a	5	[0, 0, 0]	-999	PAL1	2	R1284N
1098.763	0.004	781002	REC_END	n/a	n/a	2	-999	n/a	n/a	n/a	n/a	5	[0, 0, 0]	-999	PAL1	2	R1284N
1098.767	4.394	781006	RECALL_END	n/a	n/a	-999	-999	n/a	n/a	n/a	n/a	5	[0, 0, 0]	-999	PAL1	2	R1284N
1103.161	10.928	785400	TRIAL	n/a	n/a	-999	-999	n/a	n/a	n/a	n/a	6	[0, 0, 0]	-999	PAL1	2	R1284N
1114.089	0.004	796329	ENCODING_START	n/a	n/a	-999	-999	n/a	n/a	n/a	n/a	6	[0, 0, 0]	-999	PAL1	2	R1284N
1114.093	0.252	796333	STUDY_ORIENT	n/a	n/a	1	5	JAIL	PIG	PIG	JAIL	6	[0, 0, 0]	-999	PAL1	2	R1284N
1114.345	0.548	796585	STUDY_ORIENT_OFF	n/a	n/a	1	5	JAIL	PIG	PIG	JAIL	6	[0, 0, 0]	-999	PAL1	2	R1284N
1114.893	4.0	797133	STUDY_PAIR	n/a	wordpools/wordpool_EN.txt	1	5	JAIL	PIG	PIG	JAIL	6	[0, 0, 0]	-999	PAL1	2	R1284N
1118.895	1.003	801135	PAIR_OFF	n/a	n/a	1	5	JAIL	PIG	PIG	JAIL	6	[0, 0, 0]	-999	PAL1	2	R1284N
1119.898	0.253	802138	STUDY_ORIENT	n/a	n/a	2	6	CUP	BARN	CUP	BARN	6	[0, 0, 0]	-999	PAL1	2	R1284N
1120.151	0.736	802391	STUDY_ORIENT_OFF	n/a	n/a	2	6	CUP	BARN	CUP	BARN	6	[0, 0, 0]	-999	PAL1	2	R1284N
1120.887	4.0	803127	STUDY_PAIR	n/a	wordpools/wordpool_EN.txt	2	6	CUP	BARN	CUP	BARN	6	[0, 0, 0]	-999	PAL1	2	R1284N
1124.89	1.003	807130	PAIR_OFF	n/a	n/a	2	6	CUP	BARN	CUP	BARN	6	[0, 0, 0]	-999	PAL1	2	R1284N
1125.893	0.252	808133	STUDY_ORIENT	n/a	n/a	3	1	HEN	n/a	PARK	HEN	6	[0, 0, 0]	-999	PAL1	2	R1284N
1126.145	0.517	808385	STUDY_ORIENT_OFF	n/a	n/a	3	1	HEN	n/a	PARK	HEN	6	[0, 0, 0]	-999	PAL1	2	R1284N
1126.662	4.0	808902	STUDY_PAIR	n/a	wordpools/wordpool_EN.txt	3	1	HEN	n/a	PARK	HEN	6	[0, 0, 0]	-999	PAL1	2	R1284N
1130.665	1.004	812905	PAIR_OFF	n/a	n/a	3	1	HEN	n/a	PARK	HEN	6	[0, 0, 0]	-999	PAL1	2	R1284N
1131.669	0.253	813909	STUDY_ORIENT	n/a	n/a	4	4	SMILE	n/a	WALL	SMILE	6	[0, 0, 0]	-999	PAL1	2	R1284N
1131.922	0.616	814162	STUDY_ORIENT_OFF	n/a	n/a	4	4	SMILE	n/a	WALL	SMILE	6	[0, 0, 0]	-999	PAL1	2	R1284N
1132.538	4.0	814778	STUDY_PAIR	n/a	wordpools/wordpool_EN.txt	4	4	SMILE	n/a	WALL	SMILE	6	[0, 0, 0]	-999	PAL1	2	R1284N
1136.541	1.004	818781	PAIR_OFF	n/a	n/a	4	4	SMILE	n/a	WALL	SMILE	6	[0, 0, 0]	-999	PAL1	2	R1284N
1137.545	0.253	819785	STUDY_ORIENT	n/a	n/a	5	3	GLASS	n/a	TOAST	GLASS	6	[0, 0, 0]	-999	PAL1	2	R1284N
1137.798	0.617	820038	STUDY_ORIENT_OFF	n/a	n/a	5	3	GLASS	n/a	TOAST	GLASS	6	[0, 0, 0]	-999	PAL1	2	R1284N
1138.415	4.0	820655	STUDY_PAIR	n/a	wordpools/wordpool_EN.txt	5	3	GLASS	n/a	TOAST	GLASS	6	[0, 0, 0]	-999	PAL1	2	R1284N
1142.418	1.003	824658	PAIR_OFF	n/a	n/a	5	3	GLASS	n/a	TOAST	GLASS	6	[0, 0, 0]	-999	PAL1	2	R1284N
1143.421	0.252	825661	STUDY_ORIENT	n/a	n/a	6	2	ARM	HEN	ARM	WAND	6	[0, 0, 0]	-999	PAL1	2	R1284N
1143.673	0.67	825913	STUDY_ORIENT_OFF	n/a	n/a	6	2	ARM	HEN	ARM	WAND	6	[0, 0, 0]	-999	PAL1	2	R1284N
1144.343	4.0	826583	STUDY_PAIR	n/a	wordpools/wordpool_EN.txt	6	2	ARM	HEN	ARM	WAND	6	[0, 0, 0]	-999	PAL1	2	R1284N
1148.345	1.0	830586	PAIR_OFF	n/a	n/a	6	2	ARM	HEN	ARM	WAND	6	[0, 0, 0]	-999	PAL1	2	R1284N
1149.345	0.0	831586	ENCODING_END	n/a	n/a	-999	-999	n/a	n/a	n/a	n/a	6	[0, 0, 0]	-999	PAL1	2	R1284N
1149.345	0.0	831586	MATH_START	n/a	n/a	-999	-999	n/a	n/a	n/a	n/a	6	[0, 0, 0]	-999	PAL1	2	R1284N
1149.345	0.008	831586	START	n/a	n/a	-999	-999	n/a	n/a	n/a	n/a	6	[-999, -999, -999]	-999	PAL1	2	R1284N
1149.353	5.387	831594	PROB	5.377	n/a	-999	-999	n/a	n/a	n/a	n/a	6	[2, 9, 7]	18	PAL1	2	R1284N
1154.74	4.96	836981	PROB	4.949	n/a	-999	-999	n/a	n/a	n/a	n/a	6	[3, 3, 2]	8	PAL1	2	R1284N
1159.7	9.763	841941	PROB	9.763	n/a	-999	-999	n/a	n/a	n/a	n/a	6	[8, 7, 7]	22	PAL1	2	R1284N
1169.463	0.005	851704	STOP	n/a	n/a	-999	-999	n/a	n/a	n/a	n/a	6	[-999, -999, -999]	-999	PAL1	2	R1284N
1169.468	0.0	851709	MATH_END	n/a	n/a	-999	-999	n/a	n/a	n/a	n/a	6	[0, 0, 0]	-999	PAL1	2	R1284N
1169.468	0.004	851709	RECALL_START	n/a	n/a	-999	-999	n/a	n/a	n/a	n/a	6	[0, 0, 0]	-999	PAL1	2	R1284N
1169.472	0.253	851713	TEST_ORIENT	n/a	n/a	3	1	HEN	n/a	PARK	HEN	6	[0, 0, 0]	-999	PAL1	2	R1284N
1169.725	0.679	851966	RETRIEVAL_ORIENT_OFF	n/a	n/a	-999	-999	n/a	n/a	n/a	n/a	6	[0, 0, 0]	-999	PAL1	2	R1284N
1170.404	4.0	852645	TEST_PROBE	n/a	wordpools/wordpool_EN.txt	3	1	HEN	n/a	PARK	HEN	6	[0, 0, 0]	-999	PAL1	2	R1284N
1170.405	4.001	852646	REC_START	n/a	n/a	3	-999	n/a	n/a	n/a	n/a	6	[0, 0, 0]	-999	PAL1	2	R1284N
1174.406	0.782	856647	PROBE_OFF	n/a	n/a	3	-999	n/a	n/a	n/a	n/a	6	[0, 0, 0]	-999	PAL1	2	R1284N
1175.188	0.218	857429	REC_EVENT	4.783	n/a	3	1	HEN	<>	PARK	HEN	6	[0, 0, 0]	-999	PAL1	2	R1284N
1175.406	0.013	857647	REC_END	n/a	n/a	3	-999	n/a	n/a	n/a	n/a	6	[0, 0, 0]	-999	PAL1	2	R1284N
1175.419	0.252	857660	TEST_ORIENT	n/a	n/a	6	2	ARM	HEN	ARM	WAND	6	[0, 0, 0]	-999	PAL1	2	R1284N
1175.671	0.71	857912	RETRIEVAL_ORIENT_OFF	n/a	n/a	3	-999	n/a	n/a	n/a	n/a	6	[0, 0, 0]	-999	PAL1	2	R1284N
1176.381	4.0	858622	TEST_PROBE	n/a	wordpools/wordpool_EN.txt	6	2	ARM	HEN	ARM	WAND	6	[0, 0, 0]	-999	PAL1	2	R1284N
1176.381	4.01	858622	REC_START	n/a	n/a	6	-999	n/a	HEN	n/a	n/a	6	[0, 0, 0]	-999	PAL1	2	R1284N
1180.391	0.634	862632	PROBE_OFF	n/a	n/a	6	-999	n/a	n/a	n/a	n/a	6	[0, 0, 0]	-999	PAL1	2	R1284N
1181.025	0.366	863266	REC_EVENT	4.644	n/a	6	2	ARM	HEN	ARM	WAND	6	[0, 0, 0]	-999	PAL1	2	R1284N
1181.391	0.007	863632	REC_END	n/a	n/a	6	-999	n/a	n/a	n/a	n/a	6	[0, 0, 0]	-999	PAL1	2	R1284N
1181.398	0.253	863639	TEST_ORIENT	n/a	n/a	5	3	GLASS	n/a	TOAST	GLASS	6	[0, 0, 0]	-999	PAL1	2	R1284N
1181.651	0.668	863892	RETRIEVAL_ORIENT_OFF	n/a	n/a	6	-999	n/a	n/a	n/a	n/a	6	[0, 0, 0]	-999	PAL1	2	R1284N
1182.319	0.0	864560	REC_START	n/a	n/a	5	-999	n/a	n/a	n/a	n/a	6	[0, 0, 0]	-999	PAL1	2	R1284N
1182.319	4.0	864560	TEST_PROBE	n/a	wordpools/wordpool_EN.txt	5	3	GLASS	n/a	TOAST	GLASS	6	[0, 0, 0]	-999	PAL1	2	R1284N
1186.33	0.888	868572	PROBE_OFF	n/a	n/a	5	-999	n/a	n/a	n/a	n/a	6	[0, 0, 0]	-999	PAL1	2	R1284N
1187.218	0.113	869460	REC_EVENT	4.899	n/a	5	3	GLASS	<>	TOAST	GLASS	6	[0, 0, 0]	-999	PAL1	2	R1284N
1187.331	0.006	869573	REC_END	n/a	n/a	5	-999	n/a	n/a	n/a	n/a	6	[0, 0, 0]	-999	PAL1	2	R1284N
1187.337	0.253	869579	TEST_ORIENT	n/a	n/a	4	4	SMILE	n/a	WALL	SMILE	6	[0, 0, 0]	-999	PAL1	2	R1284N
1187.59	0.728	869832	RETRIEVAL_ORIENT_OFF	n/a	n/a	5	-999	n/a	n/a	n/a	n/a	6	[0, 0, 0]	-999	PAL1	2	R1284N
1188.318	4.0	870560	TEST_PROBE	n/a	wordpools/wordpool_EN.txt	4	4	SMILE	n/a	WALL	SMILE	6	[0, 0, 0]	-999	PAL1	2	R1284N
1188.319	4.002	870561	REC_START	n/a	n/a	4	-999	n/a	n/a	n/a	n/a	6	[0, 0, 0]	-999	PAL1	2	R1284N
1192.321	0.943	874563	PROBE_OFF	n/a	n/a	4	-999	n/a	n/a	n/a	n/a	6	[0, 0, 0]	-999	PAL1	2	R1284N
1193.264	0.057	875506	REC_EVENT	4.945	n/a	4	4	SMILE	<>	WALL	SMILE	6	[0, 0, 0]	-999	PAL1	2	R1284N
1193.321	0.012	875563	REC_END	n/a	n/a	4	-999	n/a	n/a	n/a	n/a	6	[0, 0, 0]	-999	PAL1	2	R1284N
1193.333	0.253	875575	TEST_ORIENT	n/a	n/a	1	5	JAIL	PIG	PIG	JAIL	6	[0, 0, 0]	-999	PAL1	2	R1284N
1193.586	0.685	875828	RETRIEVAL_ORIENT_OFF	n/a	n/a	4	-999	n/a	n/a	n/a	n/a	6	[0, 0, 0]	-999	PAL1	2	R1284N
1194.271	0.0	876513	REC_START	n/a	n/a	1	-999	n/a	PIG	n/a	n/a	6	[0, 0, 0]	-999	PAL1	2	R1284N
1194.271	4.0	876513	TEST_PROBE	n/a	wordpools/wordpool_EN.txt	1	5	JAIL	PIG	PIG	JAIL	6	[0, 0, 0]	-999	PAL1	2	R1284N
1195.167	3.107	877409	REC_EVENT	0.896	n/a	1	5	JAIL	PIG	PIG	JAIL	6	[0, 0, 0]	-999	PAL1	2	R1284N
1198.274	1.0	880516	PROBE_OFF	n/a	n/a	1	-999	n/a	n/a	n/a	n/a	6	[0, 0, 0]	-999	PAL1	2	R1284N
1199.274	0.013	881516	REC_END	n/a	n/a	1	-999	n/a	n/a	n/a	n/a	6	[0, 0, 0]	-999	PAL1	2	R1284N
1199.287	0.252	881529	TEST_ORIENT	n/a	n/a	2	6	CUP	BARN	CUP	BARN	6	[0, 0, 0]	-999	PAL1	2	R1284N
1199.539	0.724	881781	RETRIEVAL_ORIENT_OFF	n/a	n/a	1	-999	n/a	n/a	n/a	n/a	6	[0, 0, 0]	-999	PAL1	2	R1284N
1200.263	4.0	882505	TEST_PROBE	n/a	wordpools/wordpool_EN.txt	2	6	CUP	BARN	CUP	BARN	6	[0, 0, 0]	-999	PAL1	2	R1284N
1200.263	0.949	882505	REC_START	n/a	n/a	2	-999	n/a	BARN	n/a	n/a	6	[0, 0, 0]	-999	PAL1	2	R1284N
1201.212	3.063	883454	REC_EVENT	0.949	n/a	2	6	CUP	BARN	CUP	BARN	6	[0, 0, 0]	-999	PAL1	2	R1284N
1204.275	1.0	886517	PROBE_OFF	n/a	n/a	2	-999	n/a	n/a	n/a	n/a	6	[0, 0, 0]	-999	PAL1	2	R1284N
1205.275	0.003	887517	REC_END	n/a	n/a	2	-999	n/a	n/a	n/a	n/a	6	[0, 0, 0]	-999	PAL1	2	R1284N
1205.278	4.78	887520	RECALL_END	n/a	n/a	-999	-999	n/a	n/a	n/a	n/a	6	[0, 0, 0]	-999	PAL1	2	R1284N
1210.058	10.929	892300	TRIAL	n/a	n/a	-999	-999	n/a	n/a	n/a	n/a	7	[0, 0, 0]	-999	PAL1	2	R1284N
1220.987	0.003	903229	ENCODING_START	n/a	n/a	-999	-999	n/a	n/a	n/a	n/a	7	[0, 0, 0]	-999	PAL1	2	R1284N
1220.99	0.253	903232	STUDY_ORIENT	n/a	n/a	1	1	CLOUD	HAT	CLOUD	HAT	7	[0, 0, 0]	-999	PAL1	2	R1284N
1221.243	0.666	903485	STUDY_ORIENT_OFF	n/a	n/a	1	1	CLOUD	HAT	CLOUD	HAT	7	[0, 0, 0]	-999	PAL1	2	R1284N
1221.909	4.0	904152	STUDY_PAIR	n/a	wordpools/wordpool_EN.txt	1	1	CLOUD	HAT	CLOUD	HAT	7	[0, 0, 0]	-999	PAL1	2	R1284N
1225.912	1.004	908155	PAIR_OFF	n/a	n/a	1	1	CLOUD	HAT	CLOUD	HAT	7	[0, 0, 0]	-999	PAL1	2	R1284N
1226.916	0.253	909159	STUDY_ORIENT	n/a	n/a	2	4	RIB	SEA	RIB	SEA	7	[0, 0, 0]	-999	PAL1	2	R1284N
1227.169	0.723	909412	STUDY_ORIENT_OFF	n/a	n/a	2	4	RIB	SEA	RIB	SEA	7	[0, 0, 0]	-999	PAL1	2	R1284N
1227.892	4.0	910135	STUDY_PAIR	n/a	wordpools/wordpool_EN.txt	2	4	RIB	SEA	RIB	SEA	7	[0, 0, 0]	-999	PAL1	2	R1284N
1231.895	1.014	914138	PAIR_OFF	n/a	n/a	2	4	RIB	SEA	RIB	SEA	7	[0, 0, 0]	-999	PAL1	2	R1284N
1232.909	0.253	915152	STUDY_ORIENT	n/a	n/a	3	3	FLOOR	n/a	FLOOR	SUN	7	[0, 0, 0]	-999	PAL1	2	R1284N
1233.162	0.662	915405	STUDY_ORIENT_OFF	n/a	n/a	3	3	FLOOR	n/a	FLOOR	SUN	7	[0, 0, 0]	-999	PAL1	2	R1284N
1233.824	4.0	916067	STUDY_PAIR	n/a	wordpools/wordpool_EN.txt	3	3	FLOOR	n/a	FLOOR	SUN	7	[0, 0, 0]	-999	PAL1	2	R1284N
1237.827	1.004	920070	PAIR_OFF	n/a	n/a	3	3	FLOOR	n/a	FLOOR	SUN	7	[0, 0, 0]	-999	PAL1	2	R1284N
1238.831	0.253	921074	STUDY_ORIENT	n/a	n/a	4	2	SOAP	n/a	SOAP	BIRD	7	[0, 0, 0]	-999	PAL1	2	R1284N
1239.084	0.698	921327	STUDY_ORIENT_OFF	n/a	n/a	4	2	SOAP	n/a	SOAP	BIRD	7	[0, 0, 0]	-999	PAL1	2	R1284N
1239.782	4.0	922025	STUDY_PAIR	n/a	wordpools/wordpool_EN.txt	4	2	SOAP	n/a	SOAP	BIRD	7	[0, 0, 0]	-999	PAL1	2	R1284N
1243.785	1.003	926028	PAIR_OFF	n/a	n/a	4	2	SOAP	n/a	SOAP	BIRD	7	[0, 0, 0]	-999	PAL1	2	R1284N
1244.788	0.253	927031	STUDY_ORIENT	n/a	n/a	5	5	FARM	BOAT	FARM	WOLF	7	[0, 0, 0]	-999	PAL1	2	R1284N
1245.041	0.6	927284	STUDY_ORIENT_OFF	n/a	n/a	5	5	FARM	BOAT	FARM	WOLF	7	[0, 0, 0]	-999	PAL1	2	R1284N
1245.641	4.0	927884	STUDY_PAIR	n/a	wordpools/wordpool_EN.txt	5	5	FARM	BOAT	FARM	WOLF	7	[0, 0, 0]	-999	PAL1	2	R1284N
1249.644	1.003	931887	PAIR_OFF	n/a	n/a	5	5	FARM	BOAT	FARM	WOLF	7	[0, 0, 0]	-999	PAL1	2	R1284N
1250.647	0.252	932890	STUDY_ORIENT	n/a	n/a	6	6	MOUSE	EAR	MOUSE	EAR	7	[0, 0, 0]	-999	PAL1	2	R1284N
1250.899	0.526	933142	STUDY_ORIENT_OFF	n/a	n/a	6	6	MOUSE	EAR	MOUSE	EAR	7	[0, 0, 0]	-999	PAL1	2	R1284N
1251.425	4.0	933668	STUDY_PAIR	n/a	wordpools/wordpool_EN.txt	6	6	MOUSE	EAR	MOUSE	EAR	7	[0, 0, 0]	-999	PAL1	2	R1284N
1255.437	1.0	937680	PAIR_OFF	n/a	n/a	6	6	MOUSE	EAR	MOUSE	EAR	7	[0, 0, 0]	-999	PAL1	2	R1284N
1256.437	0.0	938680	ENCODING_END	n/a	n/a	-999	-999	n/a	n/a	n/a	n/a	7	[0, 0, 0]	-999	PAL1	2	R1284N
1256.437	0.0	938680	MATH_START	n/a	n/a	-999	-999	n/a	n/a	n/a	n/a	7	[0, 0, 0]	-999	PAL1	2	R1284N
1256.437	0.008	938680	START	n/a	n/a	-999	-999	n/a	n/a	n/a	n/a	7	[-999, -999, -999]	-999	PAL1	2	R1284N
1256.445	3.887	938688	PROB	3.876	n/a	-999	-999	n/a	n/a	n/a	n/a	7	[2, 1, 8]	11	PAL1	2	R1284N
1260.332	4.663	942576	PROB	4.652	n/a	-999	-999	n/a	n/a	n/a	n/a	7	[6, 3, 1]	10	PAL1	2	R1284N
1264.995	3.44	947239	PROB	3.429	n/a	-999	-999	n/a	n/a	n/a	n/a	7	[4, 2, 5]	11	PAL1	2	R1284N
1268.435	4.152	950679	PROB	4.141	n/a	-999	-999	n/a	n/a	n/a	n/a	7	[4, 8, 8]	20	PAL1	2	R1284N
1272.587	2.624	954831	PROB	2.613	n/a	-999	-999	n/a	n/a	n/a	n/a	7	[2, 6, 4]	12	PAL1	2	R1284N
1275.211	5.477	957455	PROB	5.477	n/a	-999	-999	n/a	n/a	n/a	n/a	7	[1, 2, 6]	9	PAL1	2	R1284N
1280.688	0.005	962932	STOP	n/a	n/a	-999	-999	n/a	n/a	n/a	n/a	7	[-999, -999, -999]	-999	PAL1	2	R1284N
1280.693	0.0	962937	MATH_END	n/a	n/a	-999	-999	n/a	n/a	n/a	n/a	7	[0, 0, 0]	-999	PAL1	2	R1284N
1280.693	0.004	962937	RECALL_START	n/a	n/a	-999	-999	n/a	n/a	n/a	n/a	7	[0, 0, 0]	-999	PAL1	2	R1284N
1280.697	0.252	962941	TEST_ORIENT	n/a	n/a	1	1	CLOUD	HAT	CLOUD	HAT	7	[0, 0, 0]	-999	PAL1	2	R1284N
1280.949	0.638	963193	RETRIEVAL_ORIENT_OFF	n/a	n/a	-999	-999	n/a	n/a	n/a	n/a	7	[0, 0, 0]	-999	PAL1	2	R1284N
1281.587	4.0	963831	TEST_PROBE	n/a	wordpools/wordpool_EN.txt	1	1	CLOUD	HAT	CLOUD	HAT	7	[0, 0, 0]	-999	PAL1	2	R1284N
1281.588	1.056	963832	REC_START	n/a	n/a	1	-999	n/a	HAT	n/a	n/a	7	[0, 0, 0]	-999	PAL1	2	R1284N
1282.644	2.946	964888	REC_EVENT	1.056	n/a	1	1	CLOUD	HAT	CLOUD	HAT	7	[0, 0, 0]	-999	PAL1	2	R1284N
1285.59	1.0	967834	PROBE_OFF	n/a	n/a	1	-999	n/a	n/a	n/a	n/a	7	[0, 0, 0]	-999	PAL1	2	R1284N
1286.59	0.014	968834	REC_END	n/a	n/a	1	-999	n/a	n/a	n/a	n/a	7	[0, 0, 0]	-999	PAL1	2	R1284N
1286.604	0.252	968848	TEST_ORIENT	n/a	n/a	4	2	SOAP	n/a	SOAP	BIRD	7	[0, 0, 0]	-999	PAL1	2	R1284N
1286.856	0.559	969100	RETRIEVAL_ORIENT_OFF	n/a	n/a	1	-999	n/a	n/a	n/a	n/a	7	[0, 0, 0]	-999	PAL1	2	R1284N
1287.415	4.0	969659	TEST_PROBE	n/a	wordpools/wordpool_EN.txt	4	2	SOAP	n/a	SOAP	BIRD	7	[0, 0, 0]	-999	PAL1	2	R1284N
1287.416	4.001	969660	REC_START	n/a	n/a	4	-999	n/a	n/a	n/a	n/a	7	[0, 0, 0]	-999	PAL1	2	R1284N
1291.417	0.666	973661	PROBE_OFF	n/a	n/a	4	-999	n/a	n/a	n/a	n/a	7	[0, 0, 0]	-999	PAL1	2	R1284N
1292.083	0.334	974327	REC_EVENT	4.667	n/a	4	2	SOAP	<>	SOAP	BIRD	7	[0, 0, 0]	-999	PAL1	2	R1284N
1292.417	0.013	974661	REC_END	n/a	n/a	4	-999	n/a	n/a	n/a	n/a	7	[0, 0, 0]	-999	PAL1	2	R1284N
1292.43	0.252	974674	TEST_ORIENT	n/a	n/a	3	3	FLOOR	n/a	FLOOR	SUN	7	[0, 0, 0]	-999	PAL1	2	R1284N
1292.682	0.565	974926	RETRIEVAL_ORIENT_OFF	n/a	n/a	4	-999	n/a	n/a	n/a	n/a	7	[0, 0, 0]	-999	PAL1	2	R1284N
1293.247	4.0	975491	TEST_PROBE	n/a	wordpools/wordpool_EN.txt	3	3	FLOOR	n/a	FLOOR	SUN	7	[0, 0, 0]	-999	PAL1	2	R1284N
1293.248	1.771	975492	REC_START	n/a	n/a	3	-999	n/a	n/a	n/a	n/a	7	[0, 0, 0]	-999	PAL1	2	R1284N
1295.019	2.231	977263	REC_EVENT	1.771	n/a	3	3	FLOOR	<>	FLOOR	SUN	7	[0, 0, 0]	-999	PAL1	2	R1284N
1297.25	1.0	979494	PROBE_OFF	n/a	n/a	3	-999	n/a	n/a	n/a	n/a	7	[0, 0, 0]	-999	PAL1	2	R1284N
1298.25	0.013	980495	REC_END	n/a	n/a	3	-999	n/a	n/a	n/a	n/a	7	[0, 0, 0]	-999	PAL1	2	R1284N
1298.263	0.253	980508	TEST_ORIENT	n/a	n/a	2	4	RIB	SEA	RIB	SEA	7	[0, 0, 0]	-999	PAL1	2	R1284N
1298.516	0.751	980761	RETRIEVAL_ORIENT_OFF	n/a	n/a	3	-999	n/a	n/a	n/a	n/a	7	[0, 0, 0]	-999	PAL1	2	R1284N
1299.267	4.0	981512	TEST_PROBE	n/a	wordpools/wordpool_EN.txt	2	4	RIB	SEA	RIB	SEA	7	[0, 0, 0]	-999	PAL1	2	R1284N
1299.268	0.845	981513	REC_START	n/a	n/a	2	-999	n/a	SEA	n/a	n/a	7	[0, 0, 0]	-999	PAL1	2	R1284N
1300.113	3.166	982358	REC_EVENT	0.845	n/a	2	4	RIB	SEA	RIB	SEA	7	[0, 0, 0]	-999	PAL1	2	R1284N
1303.279	1.0	985524	PROBE_OFF	n/a	n/a	2	-999	n/a	n/a	n/a	n/a	7	[0, 0, 0]	-999	PAL1	2	R1284N
1304.279	0.007	986524	REC_END	n/a	n/a	2	-999	n/a	n/a	n/a	n/a	7	[0, 0, 0]	-999	PAL1	2	R1284N
1304.286	0.252	986531	TEST_ORIENT	n/a	n/a	5	5	FARM	BOAT	FARM	WOLF	7	[0, 0, 0]	-999	PAL1	2	R1284N
1304.538	0.732	986783	RETRIEVAL_ORIENT_OFF	n/a	n/a	2	-999	n/a	n/a	n/a	n/a	7	[0, 0, 0]	-999	PAL1	2	R1284N
1305.27	4.0	987515	TEST_PROBE	n/a	wordpools/wordpool_EN.txt	5	5	FARM	BOAT	FARM	WOLF	7	[0, 0, 0]	-999	PAL1	2	R1284N
1305.271	3.021	987516	REC_START	n/a	n/a	5	-999	n/a	BOAT	n/a	n/a	7	[0, 0, 0]	-999	PAL1	2	R1284N
1308.292	0.98	990537	REC_EVENT	3.021	n/a	5	5	FARM	BOAT	FARM	WOLF	7	[0, 0, 0]	-999	PAL1	2	R1284N
1309.272	1.0	991517	PROBE_OFF	n/a	n/a	5	-999	n/a	n/a	n/a	n/a	7	[0, 0, 0]	-999	PAL1	2	R1284N
1310.272	0.013	992517	REC_END	n/a	n/a	5	-999	n/a	n/a	n/a	n/a	7	[0, 0, 0]	-999	PAL1	2	R1284N
1310.285	0.253	992530	TEST_ORIENT	n/a	n/a	6	6	MOUSE	EAR	MOUSE	EAR	7	[0, 0, 0]	-999	PAL1	2	R1284N
1310.538	0.699	992783	RETRIEVAL_ORIENT_OFF	n/a	n/a	5	-999	n/a	n/a	n/a	n/a	7	[0, 0, 0]	-999	PAL1	2	R1284N
1311.237	4.0	993482	TEST_PROBE	n/a	wordpools/wordpool_EN.txt	6	6	MOUSE	EAR	MOUSE	EAR	7	[0, 0, 0]	-999	PAL1	2	R1284N
1311.237	1.85	993482	REC_START	n/a	n/a	6	-999	n/a	EAR	n/a	n/a	7	[0, 0, 0]	-999	PAL1	2	R1284N
1313.087	2.161	995332	REC_EVENT	1.85	n/a	6	6	MOUSE	EAR	MOUSE	EAR	7	[0, 0, 0]	-999	PAL1	2	R1284N
1315.248	1.0	997493	PROBE_OFF	n/a	n/a	6	-999	n/a	n/a	n/a	n/a	7	[0, 0, 0]	-999	PAL1	2	R1284N
1316.248	0.003	998493	REC_END	n/a	n/a	6	-999	n/a	n/a	n/a	n/a	7	[0, 0, 0]	-999	PAL1	2	R1284N
1316.251	4.968	998496	RECALL_END	n/a	n/a	-999	-999	n/a	n/a	n/a	n/a	7	[0, 0, 0]	-999	PAL1	2	R1284N
1321.219	10.928	1003464	TRIAL	n/a	n/a	-999	-999	n/a	n/a	n/a	n/a	8	[0, 0, 0]	-999	PAL1	2	R1284N
1332.147	0.004	1014392	ENCODING_START	n/a	n/a	-999	-999	n/a	n/a	n/a	n/a	8	[0, 0, 0]	-999	PAL1	2	R1284N
1332.151	0.252	1014396	STUDY_ORIENT	n/a	n/a	1	5	PURSE	CLOTH	ROAD	PURSE	8	[0, 0, 0]	-999	PAL1	2	R1284N
1332.403	0.752	1014648	STUDY_ORIENT_OFF	n/a	n/a	1	5	PURSE	CLOTH	ROAD	PURSE	8	[0, 0, 0]	-999	PAL1	2	R1284N
1333.155	4.0	1015400	STUDY_PAIR	n/a	wordpools/wordpool_EN.txt	1	5	PURSE	CLOTH	ROAD	PURSE	8	[0, 0, 0]	-999	PAL1	2	R1284N
1337.158	1.004	1019404	PAIR_OFF	n/a	n/a	1	5	PURSE	CLOTH	ROAD	PURSE	8	[0, 0, 0]	-999	PAL1	2	R1284N
1338.162	0.253	1020408	STUDY_ORIENT	n/a	n/a	2	2	JUDGE	n/a	HAWK	JUDGE	8	[0, 0, 0]	-999	PAL1	2	R1284N
1338.415	0.581	1020661	STUDY_ORIENT_OFF	n/a	n/a	2	2	JUDGE	n/a	HAWK	JUDGE	8	[0, 0, 0]	-999	PAL1	2	R1284N
1338.996	4.0	1021242	STUDY_PAIR	n/a	wordpools/wordpool_EN.txt	2	2	JUDGE	n/a	HAWK	JUDGE	8	[0, 0, 0]	-999	PAL1	2	R1284N
1342.999	1.004	1025245	PAIR_OFF	n/a	n/a	2	2	JUDGE	n/a	HAWK	JUDGE	8	[0, 0, 0]	-999	PAL1	2	R1284N
1344.003	0.253	1026249	STUDY_ORIENT	n/a	n/a	3	1	COUCH	n/a	SEED	COUCH	8	[0, 0, 0]	-999	PAL1	2	R1284N
1344.256	0.654	1026502	STUDY_ORIENT_OFF	n/a	n/a	3	1	COUCH	n/a	SEED	COUCH	8	[0, 0, 0]	-999	PAL1	2	R1284N
1344.91	4.0	1027156	STUDY_PAIR	n/a	wordpools/wordpool_EN.txt	3	1	COUCH	n/a	SEED	COUCH	8	[0, 0, 0]	-999	PAL1	2	R1284N
1348.913	1.004	1031159	PAIR_OFF	n/a	n/a	3	1	COUCH	n/a	SEED	COUCH	8	[0, 0, 0]	-999	PAL1	2	R1284N
1349.917	0.252	1032163	STUDY_ORIENT	n/a	n/a	4	4	MOOSE	n/a	ROOM	MOOSE	8	[0, 0, 0]	-999	PAL1	2	R1284N
1350.169	0.571	1032415	STUDY_ORIENT_OFF	n/a	n/a	4	4	MOOSE	n/a	ROOM	MOOSE	8	[0, 0, 0]	-999	PAL1	2	R1284N
1350.74	4.0	1032986	STUDY_PAIR	n/a	wordpools/wordpool_EN.txt	4	4	MOOSE	n/a	ROOM	MOOSE	8	[0, 0, 0]	-999	PAL1	2	R1284N
1354.743	1.003	1036989	PAIR_OFF	n/a	n/a	4	4	MOOSE	n/a	ROOM	MOOSE	8	[0, 0, 0]	-999	PAL1	2	R1284N
1355.746	0.252	1037992	STUDY_ORIENT	n/a	n/a	5	3	FUDGE	n/a	CLOTH	FUDGE	8	[0, 0, 0]	-999	PAL1	2	R1284N
1355.998	0.692	1038244	STUDY_ORIENT_OFF	n/a	n/a	5	3	FUDGE	n/a	CLOTH	FUDGE	8	[0, 0, 0]	-999	PAL1	2	R1284N
1356.69	4.0	1038936	STUDY_PAIR	n/a	wordpools/wordpool_EN.txt	5	3	FUDGE	n/a	CLOTH	FUDGE	8	[0, 0, 0]	-999	PAL1	2	R1284N
1360.693	1.004	1042939	PAIR_OFF	n/a	n/a	5	3	FUDGE	n/a	CLOTH	FUDGE	8	[0, 0, 0]	-999	PAL1	2	R1284N
1361.697	0.252	1043943	STUDY_ORIENT	n/a	n/a	6	6	ARK	n/a	SALT	ARK	8	[0, 0, 0]	-999	PAL1	2	R1284N
1361.949	0.7	1044195	STUDY_ORIENT_OFF	n/a	n/a	6	6	ARK	n/a	SALT	ARK	8	[0, 0, 0]	-999	PAL1	2	R1284N
1362.649	4.0	1044895	STUDY_PAIR	n/a	wordpools/wordpool_EN.txt	6	6	ARK	n/a	SALT	ARK	8	[0, 0, 0]	-999	PAL1	2	R1284N
1366.651	1.0	1048897	PAIR_OFF	n/a	n/a	6	6	ARK	n/a	SALT	ARK	8	[0, 0, 0]	-999	PAL1	2	R1284N
1367.651	0.0	1049897	ENCODING_END	n/a	n/a	-999	-999	n/a	n/a	n/a	n/a	8	[0, 0, 0]	-999	PAL1	2	R1284N
1367.651	0.0	1049897	MATH_START	n/a	n/a	-999	-999	n/a	n/a	n/a	n/a	8	[0, 0, 0]	-999	PAL1	2	R1284N
1367.651	0.008	1049897	START	n/a	n/a	-999	-999	n/a	n/a	n/a	n/a	8	[-999, -999, -999]	-999	PAL1	2	R1284N
1367.659	13.432	1049905	PROB	13.421	n/a	-999	-999	n/a	n/a	n/a	n/a	8	[9, 8, 5]	23	PAL1	2	R1284N
1381.091	3.984	1063338	PROB	3.973	n/a	-999	-999	n/a	n/a	n/a	n/a	8	[7, 2, 7]	15	PAL1	2	R1284N
1385.075	5.956	1067322	PROB	5.956	n/a	-999	-999	n/a	n/a	n/a	n/a	8	[7, 2, 3]	12	PAL1	2	R1284N
1391.031	0.006	1073278	STOP	n/a	n/a	-999	-999	n/a	n/a	n/a	n/a	8	[-999, -999, -999]	-999	PAL1	2	R1284N
1391.037	0.0	1073284	MATH_END	n/a	n/a	-999	-999	n/a	n/a	n/a	n/a	8	[0, 0, 0]	-999	PAL1	2	R1284N
1391.037	0.004	1073284	RECALL_START	n/a	n/a	-999	-999	n/a	n/a	n/a	n/a	8	[0, 0, 0]	-999	PAL1	2	R1284N
1391.041	0.252	1073288	TEST_ORIENT	n/a	n/a	3	1	COUCH	n/a	SEED	COUCH	8	[0, 0, 0]	-999	PAL1	2	R1284N
1391.293	0.619	1073540	RETRIEVAL_ORIENT_OFF	n/a	n/a	-999	-999	n/a	n/a	n/a	n/a	8	[0, 0, 0]	-999	PAL1	2	R1284N
1391.912	4.0	1074159	TEST_PROBE	n/a	wordpools/wordpool_EN.txt	3	1	COUCH	n/a	SEED	COUCH	8	[0, 0, 0]	-999	PAL1	2	R1284N
1391.912	4.011	1074159	REC_START	n/a	n/a	3	-999	n/a	n/a	n/a	n/a	8	[0, 0, 0]	-999	PAL1	2	R1284N
1395.923	0.725	1078170	PROBE_OFF	n/a	n/a	3	-999	n/a	n/a	n/a	n/a	8	[0, 0, 0]	-999	PAL1	2	R1284N
1396.648	0.285	1078895	REC_EVENT	4.736	n/a	3	1	COUCH	<>	SEED	COUCH	8	[0, 0, 0]	-999	PAL1	2	R1284N
1396.933	0.009	1079180	REC_END	n/a	n/a	3	-999	n/a	n/a	n/a	n/a	8	[0, 0, 0]	-999	PAL1	2	R1284N
1396.942	0.253	1079189	TEST_ORIENT	n/a	n/a	2	2	JUDGE	n/a	HAWK	JUDGE	8	[0, 0, 0]	-999	PAL1	2	R1284N
1397.195	0.697	1079442	RETRIEVAL_ORIENT_OFF	n/a	n/a	3	-999	n/a	n/a	n/a	n/a	8	[0, 0, 0]	-999	PAL1	2	R1284N
1397.892	4.0	1080139	TEST_PROBE	n/a	wordpools/wordpool_EN.txt	2	2	JUDGE	n/a	HAWK	JUDGE	8	[0, 0, 0]	-999	PAL1	2	R1284N
1397.893	4.002	1080140	REC_START	n/a	n/a	2	-999	n/a	n/a	n/a	n/a	8	[0, 0, 0]	-999	PAL1	2	R1284N
1401.895	0.781	1084142	PROBE_OFF	n/a	n/a	2	-999	n/a	n/a	n/a	n/a	8	[0, 0, 0]	-999	PAL1	2	R1284N
1402.676	0.219	1084923	REC_EVENT	4.783	n/a	2	2	JUDGE	<>	HAWK	JUDGE	8	[0, 0, 0]	-999	PAL1	2	R1284N
1402.895	0.013	1085142	REC_END	n/a	n/a	2	-999	n/a	n/a	n/a	n/a	8	[0, 0, 0]	-999	PAL1	2	R1284N
1402.908	0.253	1085155	TEST_ORIENT	n/a	n/a	5	3	FUDGE	n/a	CLOTH	FUDGE	8	[0, 0, 0]	-999	PAL1	2	R1284N
1403.161	0.529	1085408	RETRIEVAL_ORIENT_OFF	n/a	n/a	2	-999	n/a	n/a	n/a	n/a	8	[0, 0, 0]	-999	PAL1	2	R1284N
1403.69	4.0	1085937	TEST_PROBE	n/a	wordpools/wordpool_EN.txt	5	3	FUDGE	n/a	CLOTH	FUDGE	8	[0, 0, 0]	-999	PAL1	2	R1284N
1403.69	4.003	1085937	REC_START	n/a	n/a	5	-999	n/a	n/a	n/a	n/a	8	[0, 0, 0]	-999	PAL1	2	R1284N
1407.693	0.873	1089940	PROBE_OFF	n/a	n/a	5	-999	n/a	n/a	n/a	n/a	8	[0, 0, 0]	-999	PAL1	2	R1284N
1408.566	0.127	1090813	REC_EVENT	4.876	n/a	5	3	FUDGE	<>	CLOTH	FUDGE	8	[0, 0, 0]	-999	PAL1	2	R1284N
1408.693	0.013	1090940	REC_END	n/a	n/a	5	-999	n/a	n/a	n/a	n/a	8	[0, 0, 0]	-999	PAL1	2	R1284N
1408.706	0.253	1090953	TEST_ORIENT	n/a	n/a	4	4	MOOSE	n/a	ROOM	MOOSE	8	[0, 0, 0]	-999	PAL1	2	R1284N
1408.959	0.608	1091206	RETRIEVAL_ORIENT_OFF	n/a	n/a	5	-999	n/a	n/a	n/a	n/a	8	[0, 0, 0]	-999	PAL1	2	R1284N
1409.567	4.0	1091814	TEST_PROBE	n/a	wordpools/wordpool_EN.txt	4	4	MOOSE	n/a	ROOM	MOOSE	8	[0, 0, 0]	-999	PAL1	2	R1284N
1409.567	2.109	1091814	REC_START	n/a	n/a	4	-999	n/a	n/a	n/a	n/a	8	[0, 0, 0]	-999	PAL1	2	R1284N
1411.676	1.903	1093924	REC_EVENT	2.109	n/a	4	4	MOOSE	<>	ROOM	MOOSE	8	[0, 0, 0]	-999	PAL1	2	R1284N
1413.579	1.0	1095827	PROBE_OFF	n/a	n/a	4	-999	n/a	n/a	n/a	n/a	8	[0, 0, 0]	-999	PAL1	2	R1284N
1414.579	0.008	1096827	REC_END	n/a	n/a	4	-999	n/a	n/a	n/a	n/a	8	[0, 0, 0]	-999	PAL1	2	R1284N
1414.587	0.253	1096835	TEST_ORIENT	n/a	n/a	1	5	PURSE	CLOTH	ROAD	PURSE	8	[0, 0, 0]	-999	PAL1	2	R1284N
1414.84	0.522	1097088	RETRIEVAL_ORIENT_OFF	n/a	n/a	4	-999	n/a	n/a	n/a	n/a	8	[0, 0, 0]	-999	PAL1	2	R1284N
1415.362	4.0	1097610	TEST_PROBE	n/a	wordpools/wordpool_EN.txt	1	5	PURSE	CLOTH	ROAD	PURSE	8	[0, 0, 0]	-999	PAL1	2	R1284N
1415.362	1.273	1097610	REC_START	n/a	n/a	1	-999	n/a	CLOTH	n/a	n/a	8	[0, 0, 0]	-999	PAL1	2	R1284N
1416.635	2.729	1098883	REC_EVENT	1.273	n/a	1	5	PURSE	CLOTH	ROAD	PURSE	8	[0, 0, 0]	-999	PAL1	2	R1284N
1419.364	1.0	1101612	PROBE_OFF	n/a	n/a	1	-999	n/a	n/a	n/a	n/a	8	[0, 0, 0]	-999	PAL1	2	R1284N
1420.364	0.013	1102612	REC_END	n/a	n/a	1	-999	n/a	n/a	n/a	n/a	8	[0, 0, 0]	-999	PAL1	2	R1284N
1420.377	0.253	1102625	TEST_ORIENT	n/a	n/a	6	6	ARK	n/a	SALT	ARK	8	[0, 0, 0]	-999	PAL1	2	R1284N
1420.63	0.702	1102878	RETRIEVAL_ORIENT_OFF	n/a	n/a	1	-999	n/a	n/a	n/a	n/a	8	[0, 0, 0]	-999	PAL1	2	R1284N
1421.332	4.0	1103580	TEST_PROBE	n/a	wordpools/wordpool_EN.txt	6	6	ARK	n/a	SALT	ARK	8	[0, 0, 0]	-999	PAL1	2	R1284N
1421.333	4.011	1103581	REC_START	n/a	n/a	6	-999	n/a	n/a	n/a	n/a	8	[0, 0, 0]	-999	PAL1	2	R1284N
1425.344	0.795	1107592	PROBE_OFF	n/a	n/a	6	-999	n/a	n/a	n/a	n/a	8	[0, 0, 0]	-999	PAL1	2	R1284N
1426.139	0.205	1108387	REC_EVENT	4.806	n/a	6	6	ARK	<>	SALT	ARK	8	[0, 0, 0]	-999	PAL1	2	R1284N
1426.344	0.003	1108592	REC_END	n/a	n/a	6	-999	n/a	n/a	n/a	n/a	8	[0, 0, 0]	-999	PAL1	2	R1284N
1426.347	4.256	1108595	RECALL_END	n/a	n/a	-999	-999	n/a	n/a	n/a	n/a	8	[0, 0, 0]	-999	PAL1	2	R1284N
1430.603	10.929	1112851	TRIAL	n/a	n/a	-999	-999	n/a	n/a	n/a	n/a	9	[0, 0, 0]	-999	PAL1	2	R1284N
1441.532	0.003	1123780	ENCODING_START	n/a	n/a	-999	-999	n/a	n/a	n/a	n/a	9	[0, 0, 0]	-999	PAL1	2	R1284N
1441.535	0.252	1123783	STUDY_ORIENT	n/a	n/a	1	5	HAND	n/a	SMOKE	HAND	9	[0, 0, 0]	-999	PAL1	2	R1284N
1441.787	0.528	1124035	STUDY_ORIENT_OFF	n/a	n/a	1	5	HAND	n/a	SMOKE	HAND	9	[0, 0, 0]	-999	PAL1	2	R1284N
1442.315	4.0	1124563	STUDY_PAIR	n/a	wordpools/wordpool_EN.txt	1	5	HAND	n/a	SMOKE	HAND	9	[0, 0, 0]	-999	PAL1	2	R1284N
1446.318	1.004	1128566	PAIR_OFF	n/a	n/a	1	5	HAND	n/a	SMOKE	HAND	9	[0, 0, 0]	-999	PAL1	2	R1284N
1447.322	0.252	1129570	STUDY_ORIENT	n/a	n/a	2	2	PEACH	n/a	HOLE	PEACH	9	[0, 0, 0]	-999	PAL1	2	R1284N
1447.574	0.585	1129822	STUDY_ORIENT_OFF	n/a	n/a	2	2	PEACH	n/a	HOLE	PEACH	9	[0, 0, 0]	-999	PAL1	2	R1284N
1448.159	4.0	1130407	STUDY_PAIR	n/a	wordpools/wordpool_EN.txt	2	2	PEACH	n/a	HOLE	PEACH	9	[0, 0, 0]	-999	PAL1	2	R1284N
1452.162	1.003	1134411	PAIR_OFF	n/a	n/a	2	2	PEACH	n/a	HOLE	PEACH	9	[0, 0, 0]	-999	PAL1	2	R1284N
1453.165	0.253	1135414	STUDY_ORIENT	n/a	n/a	3	3	GUARD	PIN	PRINCE	GUARD	9	[0, 0, 0]	-999	PAL1	2	R1284N
1453.418	0.571	1135667	STUDY_ORIENT_OFF	n/a	n/a	3	3	GUARD	PIN	PRINCE	GUARD	9	[0, 0, 0]	-999	PAL1	2	R1284N
1453.989	4.0	1136238	STUDY_PAIR	n/a	wordpools/wordpool_EN.txt	3	3	GUARD	PIN	PRINCE	GUARD	9	[0, 0, 0]	-999	PAL1	2	R1284N
1457.991	1.003	1140240	PAIR_OFF	n/a	n/a	3	3	GUARD	PIN	PRINCE	GUARD	9	[0, 0, 0]	-999	PAL1	2	R1284N
1458.994	0.252	1141243	STUDY_ORIENT	n/a	n/a	4	6	BEE	n/a	CHALK	BEE	9	[0, 0, 0]	-999	PAL1	2	R1284N
1459.246	0.61	1141495	STUDY_ORIENT_OFF	n/a	n/a	4	6	BEE	n/a	CHALK	BEE	9	[0, 0, 0]	-999	PAL1	2	R1284N
1459.856	4.0	1142105	STUDY_PAIR	n/a	wordpools/wordpool_EN.txt	4	6	BEE	n/a	CHALK	BEE	9	[0, 0, 0]	-999	PAL1	2	R1284N
1463.859	1.004	1146108	PAIR_OFF	n/a	n/a	4	6	BEE	n/a	CHALK	BEE	9	[0, 0, 0]	-999	PAL1	2	R1284N
1464.863	0.252	1147112	STUDY_ORIENT	n/a	n/a	5	1	WEED	STREET	STREET	WEED	9	[0, 0, 0]	-999	PAL1	2	R1284N
1465.115	0.641	1147364	STUDY_ORIENT_OFF	n/a	n/a	5	1	WEED	STREET	STREET	WEED	9	[0, 0, 0]	-999	PAL1	2	R1284N
1465.756	4.0	1148005	STUDY_PAIR	n/a	wordpools/wordpool_EN.txt	5	1	WEED	STREET	STREET	WEED	9	[0, 0, 0]	-999	PAL1	2	R1284N
1469.759	1.003	1152008	PAIR_OFF	n/a	n/a	5	1	WEED	STREET	STREET	WEED	9	[0, 0, 0]	-999	PAL1	2	R1284N
1470.762	0.252	1153011	STUDY_ORIENT	n/a	n/a	6	4	PIN	n/a	NAIL	PIN	9	[0, 0, 0]	-999	PAL1	2	R1284N
1471.014	0.744	1153263	STUDY_ORIENT_OFF	n/a	n/a	6	4	PIN	n/a	NAIL	PIN	9	[0, 0, 0]	-999	PAL1	2	R1284N
1471.758	4.0	1154007	STUDY_PAIR	n/a	wordpools/wordpool_EN.txt	6	4	PIN	n/a	NAIL	PIN	9	[0, 0, 0]	-999	PAL1	2	R1284N
1475.761	1.0	1158010	PAIR_OFF	n/a	n/a	6	4	PIN	n/a	NAIL	PIN	9	[0, 0, 0]	-999	PAL1	2	R1284N
1476.761	0.0	1159010	ENCODING_END	n/a	n/a	-999	-999	n/a	n/a	n/a	n/a	9	[0, 0, 0]	-999	PAL1	2	R1284N
1476.761	0.0	1159010	MATH_START	n/a	n/a	-999	-999	n/a	n/a	n/a	n/a	9	[0, 0, 0]	-999	PAL1	2	R1284N
1476.761	0.008	1159010	START	n/a	n/a	-999	-999	n/a	n/a	n/a	n/a	9	[-999, -999, -999]	-999	PAL1	2	R1284N
1476.769	5.586	1159018	PROB	5.575	n/a	-999	-999	n/a	n/a	n/a	n/a	9	[6, 9, 3]	18	PAL1	2	R1284N
1482.355	9.664	1164604	PROB	9.653	n/a	-999	-999	n/a	n/a	n/a	n/a	9	[8, 3, 3]	14	PAL1	2	R1284N
1492.019	8.916	1174269	PROB	8.916	n/a	-999	-999	n/a	n/a	n/a	n/a	9	[7, 5, 9]	21	PAL1	2	R1284N
1500.935	0.006	1183185	STOP	n/a	n/a	-999	-999	n/a	n/a	n/a	n/a	9	[-999, -999, -999]	-999	PAL1	2	R1284N
1500.941	0.0	1183191	MATH_END	n/a	n/a	-999	-999	n/a	n/a	n/a	n/a	9	[0, 0, 0]	-999	PAL1	2	R1284N
1500.941	0.004	1183191	RECALL_START	n/a	n/a	-999	-999	n/a	n/a	n/a	n/a	9	[0, 0, 0]	-999	PAL1	2	R1284N
1500.945	0.252	1183195	TEST_ORIENT	n/a	n/a	5	1	WEED	STREET	STREET	WEED	9	[0, 0, 0]	-999	PAL1	2	R1284N
1501.197	0.742	1183447	RETRIEVAL_ORIENT_OFF	n/a	n/a	-999	-999	n/a	n/a	n/a	n/a	9	[0, 0, 0]	-999	PAL1	2	R1284N
1501.939	4.0	1184189	TEST_PROBE	n/a	wordpools/wordpool_EN.txt	5	1	WEED	STREET	STREET	WEED	9	[0, 0, 0]	-999	PAL1	2	R1284N
1501.939	0.958	1184189	REC_START	n/a	n/a	5	-999	n/a	STREET	n/a	n/a	9	[0, 0, 0]	-999	PAL1	2	R1284N
1502.897	3.054	1185147	REC_EVENT	0.958	n/a	5	1	WEED	STREET	STREET	WEED	9	[0, 0, 0]	-999	PAL1	2	R1284N
1505.951	1.0	1188201	PROBE_OFF	n/a	n/a	5	-999	n/a	n/a	n/a	n/a	9	[0, 0, 0]	-999	PAL1	2	R1284N
1506.951	0.007	1189201	REC_END	n/a	n/a	5	-999	n/a	n/a	n/a	n/a	9	[0, 0, 0]	-999	PAL1	2	R1284N
1506.958	0.253	1189208	TEST_ORIENT	n/a	n/a	2	2	PEACH	n/a	HOLE	PEACH	9	[0, 0, 0]	-999	PAL1	2	R1284N
1507.211	0.63	1189461	RETRIEVAL_ORIENT_OFF	n/a	n/a	5	-999	n/a	n/a	n/a	n/a	9	[0, 0, 0]	-999	PAL1	2	R1284N
1507.841	4.0	1190091	TEST_PROBE	n/a	wordpools/wordpool_EN.txt	2	2	PEACH	n/a	HOLE	PEACH	9	[0, 0, 0]	-999	PAL1	2	R1284N
1507.842	4.002	1190092	REC_START	n/a	n/a	2	-999	n/a	n/a	n/a	n/a	9	[0, 0, 0]	-999	PAL1	2	R1284N
1511.844	0.874	1194094	PROBE_OFF	n/a	n/a	2	-999	n/a	n/a	n/a	n/a	9	[0, 0, 0]	-999	PAL1	2	R1284N
1512.718	0.126	1194968	REC_EVENT	4.876	n/a	2	2	PEACH	<>	HOLE	PEACH	9	[0, 0, 0]	-999	PAL1	2	R1284N
1512.844	0.013	1195094	REC_END	n/a	n/a	2	-999	n/a	n/a	n/a	n/a	9	[0, 0, 0]	-999	PAL1	2	R1284N
1512.857	0.252	1195107	TEST_ORIENT	n/a	n/a	3	3	GUARD	PIN	PRINCE	GUARD	9	[0, 0, 0]	-999	PAL1	2	R1284N
1513.109	0.715	1195359	RETRIEVAL_ORIENT_OFF	n/a	n/a	2	-999	n/a	n/a	n/a	n/a	9	[0, 0, 0]	-999	PAL1	2	R1284N
1513.824	4.0	1196074	TEST_PROBE	n/a	wordpools/wordpool_EN.txt	3	3	GUARD	PIN	PRINCE	GUARD	9	[0, 0, 0]	-999	PAL1	2	R1284N
1513.824	3.449	1196074	REC_START	n/a	n/a	3	-999	n/a	PIN	n/a	n/a	9	[0, 0, 0]	-999	PAL1	2	R1284N
1517.273	0.561	1199523	REC_EVENT	3.449	n/a	3	3	GUARD	PIN	PRINCE	GUARD	9	[0, 0, 0]	-999	PAL1	2	R1284N
1517.834	1.0	1200084	PROBE_OFF	n/a	n/a	3	-999	n/a	n/a	n/a	n/a	9	[0, 0, 0]	-999	PAL1	2	R1284N
1518.834	0.007	1201084	REC_END	n/a	n/a	3	-999	n/a	n/a	n/a	n/a	9	[0, 0, 0]	-999	PAL1	2	R1284N
1518.841	0.253	1201091	TEST_ORIENT	n/a	n/a	6	4	PIN	n/a	NAIL	PIN	9	[0, 0, 0]	-999	PAL1	2	R1284N
1519.094	0.693	1201344	RETRIEVAL_ORIENT_OFF	n/a	n/a	3	-999	n/a	n/a	n/a	n/a	9	[0, 0, 0]	-999	PAL1	2	R1284N
1519.787	4.0	1202037	TEST_PROBE	n/a	wordpools/wordpool_EN.txt	6	4	PIN	n/a	NAIL	PIN	9	[0, 0, 0]	-999	PAL1	2	R1284N
1519.787	4.011	1202037	REC_START	n/a	n/a	6	-999	n/a	n/a	n/a	n/a	9	[0, 0, 0]	-999	PAL1	2	R1284N
1523.798	0.841	1206048	PROBE_OFF	n/a	n/a	6	-999	n/a	n/a	n/a	n/a	9	[0, 0, 0]	-999	PAL1	2	R1284N
1524.639	0.159	1206889	REC_EVENT	4.852	n/a	6	4	PIN	<>	NAIL	PIN	9	[0, 0, 0]	-999	PAL1	2	R1284N
1524.798	0.007	1207048	REC_END	n/a	n/a	6	-999	n/a	n/a	n/a	n/a	9	[0, 0, 0]	-999	PAL1	2	R1284N
1524.805	0.252	1207055	TEST_ORIENT	n/a	n/a	1	5	HAND	n/a	SMOKE	HAND	9	[0, 0, 0]	-999	PAL1	2	R1284N
1525.057	0.749	1207307	RETRIEVAL_ORIENT_OFF	n/a	n/a	6	-999	n/a	n/a	n/a	n/a	9	[0, 0, 0]	-999	PAL1	2	R1284N
1525.806	4.0	1208057	TEST_PROBE	n/a	wordpools/wordpool_EN.txt	1	5	HAND	n/a	SMOKE	HAND	9	[0, 0, 0]	-999	PAL1	2	R1284N
1525.806	4.003	1208057	REC_START	n/a	n/a	1	-999	n/a	n/a	n/a	n/a	9	[0, 0, 0]	-999	PAL1	2	R1284N
1529.809	0.873	1212060	PROBE_OFF	n/a	n/a	1	-999	n/a	n/a	n/a	n/a	9	[0, 0, 0]	-999	PAL1	2	R1284N
1530.682	0.127	1212933	REC_EVENT	4.876	n/a	1	5	HAND	<>	SMOKE	HAND	9	[0, 0, 0]	-999	PAL1	2	R1284N
1530.809	0.012	1213060	REC_END	n/a	n/a	1	-999	n/a	n/a	n/a	n/a	9	[0, 0, 0]	-999	PAL1	2	R1284N
1530.821	0.252	1213072	TEST_ORIENT	n/a	n/a	4	6	BEE	n/a	CHALK	BEE	9	[0, 0, 0]	-999	PAL1	2	R1284N
1531.073	0.688	1213324	RETRIEVAL_ORIENT_OFF	n/a	n/a	1	-999	n/a	n/a	n/a	n/a	9	[0, 0, 0]	-999	PAL1	2	R1284N
1531.761	4.0	1214012	TEST_PROBE	n/a	wordpools/wordpool_EN.txt	4	6	BEE	n/a	CHALK	BEE	9	[0, 0, 0]	-999	PAL1	2	R1284N
1531.762	3.47	1214013	REC_START	n/a	n/a	4	-999	n/a	n/a	n/a	n/a	9	[0, 0, 0]	-999	PAL1	2	R1284N
1535.232	0.531	1217483	REC_EVENT	3.47	n/a	4	6	BEE	<>	CHALK	BEE	9	[0, 0, 0]	-999	PAL1	2	R1284N
1535.763	1.001	1218014	PROBE_OFF	n/a	n/a	4	-999	n/a	n/a	n/a	n/a	9	[0, 0, 0]	-999	PAL1	2	R1284N
1536.764	0.008	1219015	REC_END	n/a	n/a	4	-999	n/a	n/a	n/a	n/a	9	[0, 0, 0]	-999	PAL1	2	R1284N
1536.772	3.903	1219023	RECALL_END	n/a	n/a	-999	-999	n/a	n/a	n/a	n/a	9	[0, 0, 0]	-999	PAL1	2	R1284N
1540.675	10.929	1222926	TRIAL	n/a	n/a	-999	-999	n/a	n/a	n/a	n/a	10	[0, 0, 0]	-999	PAL1	2	R1284N
1551.604	0.003	1233855	ENCODING_START	n/a	n/a	-999	-999	n/a	n/a	n/a	n/a	10	[0, 0, 0]	-999	PAL1	2	R1284N
1551.607	0.252	1233858	STUDY_ORIENT	n/a	n/a	1	1	ICE	n/a	ICE	FACE	10	[0, 0, 0]	-999	PAL1	2	R1284N
1551.859	0.564	1234110	STUDY_ORIENT_OFF	n/a	n/a	1	1	ICE	n/a	ICE	FACE	10	[0, 0, 0]	-999	PAL1	2	R1284N
1552.423	4.0	1234674	STUDY_PAIR	n/a	wordpools/wordpool_EN.txt	1	1	ICE	n/a	ICE	FACE	10	[0, 0, 0]	-999	PAL1	2	R1284N
1556.426	1.004	1238677	PAIR_OFF	n/a	n/a	1	1	ICE	n/a	ICE	FACE	10	[0, 0, 0]	-999	PAL1	2	R1284N
1557.43	0.252	1239681	STUDY_ORIENT	n/a	n/a	2	2	STEM	LEAF	LAMB	STEM	10	[0, 0, 0]	-999	PAL1	2	R1284N
1557.682	0.516	1239933	STUDY_ORIENT_OFF	n/a	n/a	2	2	STEM	LEAF	LAMB	STEM	10	[0, 0, 0]	-999	PAL1	2	R1284N
1558.198	4.0	1240449	STUDY_PAIR	n/a	wordpools/wordpool_EN.txt	2	2	STEM	LEAF	LAMB	STEM	10	[0, 0, 0]	-999	PAL1	2	R1284N
1562.201	1.003	1244452	PAIR_OFF	n/a	n/a	2	2	STEM	LEAF	LAMB	STEM	10	[0, 0, 0]	-999	PAL1	2	R1284N
1563.204	0.253	1245456	STUDY_ORIENT	n/a	n/a	3	5	CRANE	n/a	CRANE	MUD	10	[0, 0, 0]	-999	PAL1	2	R1284N
1563.457	0.548	1245709	STUDY_ORIENT_OFF	n/a	n/a	3	5	CRANE	n/a	CRANE	MUD	10	[0, 0, 0]	-999	PAL1	2	R1284N
1564.005	4.0	1246257	STUDY_PAIR	n/a	wordpools/wordpool_EN.txt	3	5	CRANE	n/a	CRANE	MUD	10	[0, 0, 0]	-999	PAL1	2	R1284N
1568.007	1.003	1250259	PAIR_OFF	n/a	n/a	3	5	CRANE	n/a	CRANE	MUD	10	[0, 0, 0]	-999	PAL1	2	R1284N
1569.01	0.252	1251262	STUDY_ORIENT	n/a	n/a	4	6	DEER	n/a	DEER	CALF	10	[0, 0, 0]	-999	PAL1	2	R1284N
1569.262	0.664	1251514	STUDY_ORIENT_OFF	n/a	n/a	4	6	DEER	n/a	DEER	CALF	10	[0, 0, 0]	-999	PAL1	2	R1284N
1569.926	4.0	1252178	STUDY_PAIR	n/a	wordpools/wordpool_EN.txt	4	6	DEER	n/a	DEER	CALF	10	[0, 0, 0]	-999	PAL1	2	R1284N
1573.928	1.004	1256180	PAIR_OFF	n/a	n/a	4	6	DEER	n/a	DEER	CALF	10	[0, 0, 0]	-999	PAL1	2	R1284N
1574.932	0.253	1257184	STUDY_ORIENT	n/a	n/a	5	3	PHONE	n/a	PHONE	SEAT	10	[0, 0, 0]	-999	PAL1	2	R1284N
1575.185	0.526	1257437	STUDY_ORIENT_OFF	n/a	n/a	5	3	PHONE	n/a	PHONE	SEAT	10	[0, 0, 0]	-999	PAL1	2	R1284N
1575.711	4.0	1257963	STUDY_PAIR	n/a	wordpools/wordpool_EN.txt	5	3	PHONE	n/a	PHONE	SEAT	10	[0, 0, 0]	-999	PAL1	2	R1284N
1579.714	1.004	1261966	PAIR_OFF	n/a	n/a	5	3	PHONE	n/a	PHONE	SEAT	10	[0, 0, 0]	-999	PAL1	2	R1284N
1580.718	0.252	1262970	STUDY_ORIENT	n/a	n/a	6	4	RUG	STEM	RUG	WORM	10	[0, 0, 0]	-999	PAL1	2	R1284N
1580.97	0.707	1263222	STUDY_ORIENT_OFF	n/a	n/a	6	4	RUG	STEM	RUG	WORM	10	[0, 0, 0]	-999	PAL1	2	R1284N
1581.677	4.0	1263929	STUDY_PAIR	n/a	wordpools/wordpool_EN.txt	6	4	RUG	STEM	RUG	WORM	10	[0, 0, 0]	-999	PAL1	2	R1284N
1585.68	1.0	1267932	PAIR_OFF	n/a	n/a	6	4	RUG	STEM	RUG	WORM	10	[0, 0, 0]	-999	PAL1	2	R1284N
1586.68	0.0	1268932	ENCODING_END	n/a	n/a	-999	-999	n/a	n/a	n/a	n/a	10	[0, 0, 0]	-999	PAL1	2	R1284N
1586.68	0.0	1268932	MATH_START	n/a	n/a	-999	-999	n/a	n/a	n/a	n/a	10	[0, 0, 0]	-999	PAL1	2	R1284N
1586.68	0.009	1268932	START	n/a	n/a	-999	-999	n/a	n/a	n/a	n/a	10	[-999, -999, -999]	-999	PAL1	2	R1284N
1586.689	6.578	1268941	PROB	6.567	n/a	-999	-999	n/a	n/a	n/a	n/a	10	[6, 4, 9]	19	PAL1	2	R1284N
1593.267	3.015	1275519	PROB	2.998	n/a	-999	-999	n/a	n/a	n/a	n/a	10	[6, 4, 1]	11	PAL1	2	R1284N
1596.282	6.258	1278534	PROB	6.247	n/a	-999	-999	n/a	n/a	n/a	n/a	10	[7, 5, 4]	16	PAL1	2	R1284N
1602.54	5.484	1284793	PROB	5.484	n/a	-999	-999	n/a	n/a	n/a	n/a	10	[7, 2, 3]	12	PAL1	2	R1284N
1608.024	0.006	1290277	STOP	n/a	n/a	-999	-999	n/a	n/a	n/a	n/a	10	[-999, -999, -999]	-999	PAL1	2	R1284N
1608.03	0.0	1290283	MATH_END	n/a	n/a	-999	-999	n/a	n/a	n/a	n/a	10	[0, 0, 0]	-999	PAL1	2	R1284N
1608.03	0.004	1290283	RECALL_START	n/a	n/a	-999	-999	n/a	n/a	n/a	n/a	10	[0, 0, 0]	-999	PAL1	2	R1284N
1608.034	0.253	1290287	TEST_ORIENT	n/a	n/a	1	1	ICE	n/a	ICE	FACE	10	[0, 0, 0]	-999	PAL1	2	R1284N
1608.287	0.753	1290540	RETRIEVAL_ORIENT_OFF	n/a	n/a	-999	-999	n/a	n/a	n/a	n/a	10	[0, 0, 0]	-999	PAL1	2	R1284N
1609.04	4.0	1291293	TEST_PROBE	n/a	wordpools/wordpool_EN.txt	1	1	ICE	n/a	ICE	FACE	10	[0, 0, 0]	-999	PAL1	2	R1284N
1609.041	4.011	1291294	REC_START	n/a	n/a	1	-999	n/a	n/a	n/a	n/a	10	[0, 0, 0]	-999	PAL1	2	R1284N
1613.052	0.818	1295305	PROBE_OFF	n/a	n/a	1	-999	n/a	n/a	n/a	n/a	10	[0, 0, 0]	-999	PAL1	2	R1284N
1613.87	0.182	1296123	REC_EVENT	4.829	n/a	1	1	ICE	<>	ICE	FACE	10	[0, 0, 0]	-999	PAL1	2	R1284N
1614.052	0.007	1296305	REC_END	n/a	n/a	1	-999	n/a	n/a	n/a	n/a	10	[0, 0, 0]	-999	PAL1	2	R1284N
1614.059	0.252	1296312	TEST_ORIENT	n/a	n/a	2	2	STEM	LEAF	LAMB	STEM	10	[0, 0, 0]	-999	PAL1	2	R1284N
1614.311	0.709	1296564	RETRIEVAL_ORIENT_OFF	n/a	n/a	1	-999	n/a	n/a	n/a	n/a	10	[0, 0, 0]	-999	PAL1	2	R1284N
1615.02	4.0	1297273	TEST_PROBE	n/a	wordpools/wordpool_EN.txt	2	2	STEM	LEAF	LAMB	STEM	10	[0, 0, 0]	-999	PAL1	2	R1284N
1615.02	2.911	1297273	REC_START	n/a	n/a	2	-999	n/a	LEAF	n/a	n/a	10	[0, 0, 0]	-999	PAL1	2	R1284N
1617.931	1.1	1300184	REC_EVENT	2.911	n/a	2	2	STEM	LEAF	LAMB	STEM	10	[0, 0, 0]	-999	PAL1	2	R1284N
1619.031	1.0	1301284	PROBE_OFF	n/a	n/a	2	-999	n/a	n/a	n/a	n/a	10	[0, 0, 0]	-999	PAL1	2	R1284N
1620.031	0.007	1302284	REC_END	n/a	n/a	2	-999	n/a	n/a	n/a	n/a	10	[0, 0, 0]	-999	PAL1	2	R1284N
1620.038	0.253	1302291	TEST_ORIENT	n/a	n/a	5	3	PHONE	n/a	PHONE	SEAT	10	[0, 0, 0]	-999	PAL1	2	R1284N
1620.291	0.583	1302544	RETRIEVAL_ORIENT_OFF	n/a	n/a	2	-999	n/a	n/a	n/a	n/a	10	[0, 0, 0]	-999	PAL1	2	R1284N
1620.874	4.0	1303127	TEST_PROBE	n/a	wordpools/wordpool_EN.txt	5	3	PHONE	n/a	PHONE	SEAT	10	[0, 0, 0]	-999	PAL1	2	R1284N
1620.874	4.003	1303127	REC_START	n/a	n/a	5	-999	n/a	n/a	n/a	n/a	10	[0, 0, 0]	-999	PAL1	2	R1284N
1624.877	0.826	1307130	PROBE_OFF	n/a	n/a	5	-999	n/a	n/a	n/a	n/a	10	[0, 0, 0]	-999	PAL1	2	R1284N
1625.703	0.174	1307956	REC_EVENT	4.829	n/a	5	3	PHONE	<>	PHONE	SEAT	10	[0, 0, 0]	-999	PAL1	2	R1284N
1625.877	0.013	1308130	REC_END	n/a	n/a	5	-999	n/a	n/a	n/a	n/a	10	[0, 0, 0]	-999	PAL1	2	R1284N
1625.89	0.253	1308143	TEST_ORIENT	n/a	n/a	6	4	RUG	STEM	RUG	WORM	10	[0, 0, 0]	-999	PAL1	2	R1284N
1626.143	0.699	1308396	RETRIEVAL_ORIENT_OFF	n/a	n/a	5	-999	n/a	n/a	n/a	n/a	10	[0, 0, 0]	-999	PAL1	2	R1284N
1626.842	4.0	1309095	TEST_PROBE	n/a	wordpools/wordpool_EN.txt	6	4	RUG	STEM	RUG	WORM	10	[0, 0, 0]	-999	PAL1	2	R1284N
1626.842	1.63	1309095	REC_START	n/a	n/a	6	-999	n/a	STEM	n/a	n/a	10	[0, 0, 0]	-999	PAL1	2	R1284N
1628.472	2.382	1310725	REC_EVENT	1.63	n/a	6	4	RUG	STEM	RUG	WORM	10	[0, 0, 0]	-999	PAL1	2	R1284N
1630.854	1.001	1313107	PROBE_OFF	n/a	n/a	6	-999	n/a	n/a	n/a	n/a	10	[0, 0, 0]	-999	PAL1	2	R1284N
1631.855	0.007	1314108	REC_END	n/a	n/a	6	-999	n/a	n/a	n/a	n/a	10	[0, 0, 0]	-999	PAL1	2	R1284N
1631.862	0.253	1314115	TEST_ORIENT	n/a	n/a	3	5	CRANE	n/a	CRANE	MUD	10	[0, 0, 0]	-999	PAL1	2	R1284N
1632.115	0.67	1314368	RETRIEVAL_ORIENT_OFF	n/a	n/a	6	-999	n/a	n/a	n/a	n/a	10	[0, 0, 0]	-999	PAL1	2	R1284N
1632.785	4.0	1315038	TEST_PROBE	n/a	wordpools/wordpool_EN.txt	3	5	CRANE	n/a	CRANE	MUD	10	[0, 0, 0]	-999	PAL1	2	R1284N
1632.785	4.003	1315038	REC_START	n/a	n/a	3	-999	n/a	n/a	n/a	n/a	10	[0, 0, 0]	-999	PAL1	2	R1284N
1636.788	0.571	1319041	PROBE_OFF	n/a	n/a	3	-999	n/a	n/a	n/a	n/a	10	[0, 0, 0]	-999	PAL1	2	R1284N
1637.359	0.429	1319612	REC_EVENT	4.574	n/a	3	5	CRANE	<>	CRANE	MUD	10	[0, 0, 0]	-999	PAL1	2	R1284N
1637.788	0.013	1320041	REC_END	n/a	n/a	3	-999	n/a	n/a	n/a	n/a	10	[0, 0, 0]	-999	PAL1	2	R1284N
1637.801	0.253	1320054	TEST_ORIENT	n/a	n/a	4	6	DEER	n/a	DEER	CALF	10	[0, 0, 0]	-999	PAL1	2	R1284N
1638.054	0.541	1320307	RETRIEVAL_ORIENT_OFF	n/a	n/a	3	-999	n/a	n/a	n/a	n/a	10	[0, 0, 0]	-999	PAL1	2	R1284N
1638.595	0.0	1320848	REC_START	n/a	n/a	4	-999	n/a	n/a	n/a	n/a	10	[0, 0, 0]	-999	PAL1	2	R1284N
1638.595	4.0	1320848	TEST_PROBE	n/a	wordpools/wordpool_EN.txt	4	6	DEER	n/a	DEER	CALF	10	[0, 0, 0]	-999	PAL1	2	R1284N
1642.608	0.723	1324862	PROBE_OFF	n/a	n/a	4	-999	n/a	n/a	n/a	n/a	10	[0, 0, 0]	-999	PAL1	2	R1284N
1643.331	0.277	1325585	REC_EVENT	4.736	n/a	4	6	DEER	<>	DEER	CALF	10	[0, 0, 0]	-999	PAL1	2	R1284N
1643.608	0.004	1325862	REC_END	n/a	n/a	4	-999	n/a	n/a	n/a	n/a	10	[0, 0, 0]	-999	PAL1	2	R1284N
1643.612	4.502	1325866	RECALL_END	n/a	n/a	-999	-999	n/a	n/a	n/a	n/a	10	[0, 0, 0]	-999	PAL1	2	R1284N
1648.114	10.929	1330368	TRIAL	n/a	n/a	-999	-999	n/a	n/a	n/a	n/a	11	[0, 0, 0]	-999	PAL1	2	R1284N
1659.043	0.003	1341297	ENCODING_START	n/a	n/a	-999	-999	n/a	n/a	n/a	n/a	11	[0, 0, 0]	-999	PAL1	2	R1284N
1659.046	0.253	1341300	STUDY_ORIENT	n/a	n/a	1	3	LAMP	SHEEP	JEEP	LAMP	11	[0, 0, 0]	-999	PAL1	2	R1284N
1659.299	0.736	1341553	STUDY_ORIENT_OFF	n/a	n/a	1	3	LAMP	SHEEP	JEEP	LAMP	11	[0, 0, 0]	-999	PAL1	2	R1284N
1660.035	4.0	1342289	STUDY_PAIR	n/a	wordpools/wordpool_EN.txt	1	3	LAMP	SHEEP	JEEP	LAMP	11	[0, 0, 0]	-999	PAL1	2	R1284N
1664.038	1.004	1346292	PAIR_OFF	n/a	n/a	1	3	LAMP	SHEEP	JEEP	LAMP	11	[0, 0, 0]	-999	PAL1	2	R1284N
1665.042	0.252	1347296	STUDY_ORIENT	n/a	n/a	2	2	MOUTH	n/a	SOUP	MOUTH	11	[0, 0, 0]	-999	PAL1	2	R1284N
1665.294	0.729	1347548	STUDY_ORIENT_OFF	n/a	n/a	2	2	MOUTH	n/a	SOUP	MOUTH	11	[0, 0, 0]	-999	PAL1	2	R1284N
1666.023	4.0	1348277	STUDY_PAIR	n/a	wordpools/wordpool_EN.txt	2	2	MOUTH	n/a	SOUP	MOUTH	11	[0, 0, 0]	-999	PAL1	2	R1284N
1670.025	1.003	1352279	PAIR_OFF	n/a	n/a	2	2	MOUTH	n/a	SOUP	MOUTH	11	[0, 0, 0]	-999	PAL1	2	R1284N
1671.028	0.253	1353282	STUDY_ORIENT	n/a	n/a	3	1	PASTE	n/a	HORN	PASTE	11	[0, 0, 0]	-999	PAL1	2	R1284N
1671.281	0.74	1353535	STUDY_ORIENT_OFF	n/a	n/a	3	1	PASTE	n/a	HORN	PASTE	11	[0, 0, 0]	-999	PAL1	2	R1284N
1672.021	4.0	1354275	STUDY_PAIR	n/a	wordpools/wordpool_EN.txt	3	1	PASTE	n/a	HORN	PASTE	11	[0, 0, 0]	-999	PAL1	2	R1284N
1676.024	1.003	1358278	PAIR_OFF	n/a	n/a	3	1	PASTE	n/a	HORN	PASTE	11	[0, 0, 0]	-999	PAL1	2	R1284N
1677.027	0.253	1359282	STUDY_ORIENT	n/a	n/a	4	4	PEN	n/a	FAN	PEN	11	[0, 0, 0]	-999	PAL1	2	R1284N
1677.28	0.582	1359535	STUDY_ORIENT_OFF	n/a	n/a	4	4	PEN	n/a	FAN	PEN	11	[0, 0, 0]	-999	PAL1	2	R1284N
1677.862	4.0	1360117	STUDY_PAIR	n/a	wordpools/wordpool_EN.txt	4	4	PEN	n/a	FAN	PEN	11	[0, 0, 0]	-999	PAL1	2	R1284N
1681.865	1.004	1364120	PAIR_OFF	n/a	n/a	4	4	PEN	n/a	FAN	PEN	11	[0, 0, 0]	-999	PAL1	2	R1284N
1682.869	0.253	1365124	STUDY_ORIENT	n/a	n/a	5	5	CHAIR	n/a	CHAIR	TOOTH	11	[0, 0, 0]	-999	PAL1	2	R1284N
1683.122	0.602	1365377	STUDY_ORIENT_OFF	n/a	n/a	5	5	CHAIR	n/a	CHAIR	TOOTH	11	[0, 0, 0]	-999	PAL1	2	R1284N
1683.724	4.0	1365979	STUDY_PAIR	n/a	wordpools/wordpool_EN.txt	5	5	CHAIR	n/a	CHAIR	TOOTH	11	[0, 0, 0]	-999	PAL1	2	R1284N
1687.727	1.003	1369982	PAIR_OFF	n/a	n/a	5	5	CHAIR	n/a	CHAIR	TOOTH	11	[0, 0, 0]	-999	PAL1	2	R1284N
1688.73	0.252	1370985	STUDY_ORIENT	n/a	n/a	6	6	COIN	n/a	COIN	TRAIN	11	[0, 0, 0]	-999	PAL1	2	R1284N
1688.982	0.751	1371237	STUDY_ORIENT_OFF	n/a	n/a	6	6	COIN	n/a	COIN	TRAIN	11	[0, 0, 0]	-999	PAL1	2	R1284N
1689.733	4.0	1371988	STUDY_PAIR	n/a	wordpools/wordpool_EN.txt	6	6	COIN	n/a	COIN	TRAIN	11	[0, 0, 0]	-999	PAL1	2	R1284N
1693.735	1.0	1375990	PAIR_OFF	n/a	n/a	6	6	COIN	n/a	COIN	TRAIN	11	[0, 0, 0]	-999	PAL1	2	R1284N
1694.735	0.0	1376990	ENCODING_END	n/a	n/a	-999	-999	n/a	n/a	n/a	n/a	11	[0, 0, 0]	-999	PAL1	2	R1284N
1694.735	0.0	1376990	MATH_START	n/a	n/a	-999	-999	n/a	n/a	n/a	n/a	11	[0, 0, 0]	-999	PAL1	2	R1284N
1694.735	0.008	1376990	START	n/a	n/a	-999	-999	n/a	n/a	n/a	n/a	11	[-999, -999, -999]	-999	PAL1	2	R1284N
1694.743	5.333	1376998	PROB	5.322	n/a	-999	-999	n/a	n/a	n/a	n/a	11	[4, 9, 9]	22	PAL1	2	R1284N
1700.076	5.601	1382331	PROB	5.589	n/a	-999	-999	n/a	n/a	n/a	n/a	11	[8, 3, 2]	13	PAL1	2	R1284N
1705.677	9.356	1387932	PROB	9.356	n/a	-999	-999	n/a	n/a	n/a	n/a	11	[6, 9, 5]	20	PAL1	2	R1284N
1715.033	0.005	1397289	STOP	n/a	n/a	-999	-999	n/a	n/a	n/a	n/a	11	[-999, -999, -999]	-999	PAL1	2	R1284N
1715.038	0.0	1397294	MATH_END	n/a	n/a	-999	-999	n/a	n/a	n/a	n/a	11	[0, 0, 0]	-999	PAL1	2	R1284N
1715.038	0.004	1397294	RECALL_START	n/a	n/a	-999	-999	n/a	n/a	n/a	n/a	11	[0, 0, 0]	-999	PAL1	2	R1284N
1715.042	0.252	1397298	TEST_ORIENT	n/a	n/a	3	1	PASTE	n/a	HORN	PASTE	11	[0, 0, 0]	-999	PAL1	2	R1284N
1715.294	0.691	1397550	RETRIEVAL_ORIENT_OFF	n/a	n/a	-999	-999	n/a	n/a	n/a	n/a	11	[0, 0, 0]	-999	PAL1	2	R1284N
1715.985	4.0	1398241	TEST_PROBE	n/a	wordpools/wordpool_EN.txt	3	1	PASTE	n/a	HORN	PASTE	11	[0, 0, 0]	-999	PAL1	2	R1284N
1715.985	4.003	1398241	REC_START	n/a	n/a	3	-999	n/a	n/a	n/a	n/a	11	[0, 0, 0]	-999	PAL1	2	R1284N
1719.988	0.896	1402244	PROBE_OFF	n/a	n/a	3	-999	n/a	n/a	n/a	n/a	11	[0, 0, 0]	-999	PAL1	2	R1284N
1720.884	0.113	1403140	REC_EVENT	4.899	n/a	3	1	PASTE	<>	HORN	PASTE	11	[0, 0, 0]	-999	PAL1	2	R1284N
1720.997	0.007	1403253	REC_END	n/a	n/a	3	-999	n/a	n/a	n/a	n/a	11	[0, 0, 0]	-999	PAL1	2	R1284N
1721.004	0.253	1403260	TEST_ORIENT	n/a	n/a	2	2	MOUTH	n/a	SOUP	MOUTH	11	[0, 0, 0]	-999	PAL1	2	R1284N
1721.257	0.569	1403513	RETRIEVAL_ORIENT_OFF	n/a	n/a	3	-999	n/a	n/a	n/a	n/a	11	[0, 0, 0]	-999	PAL1	2	R1284N
1721.826	0.0	1404082	REC_START	n/a	n/a	2	-999	n/a	n/a	n/a	n/a	11	[0, 0, 0]	-999	PAL1	2	R1284N
1721.826	4.0	1404082	TEST_PROBE	n/a	wordpools/wordpool_EN.txt	2	2	MOUTH	n/a	SOUP	MOUTH	11	[0, 0, 0]	-999	PAL1	2	R1284N
1725.837	0.888	1408093	PROBE_OFF	n/a	n/a	2	-999	n/a	n/a	n/a	n/a	11	[0, 0, 0]	-999	PAL1	2	R1284N
1726.725	0.122	1408981	REC_EVENT	4.899	n/a	2	2	MOUTH	<>	SOUP	MOUTH	11	[0, 0, 0]	-999	PAL1	2	R1284N
1726.847	0.007	1409103	REC_END	n/a	n/a	2	-999	n/a	n/a	n/a	n/a	11	[0, 0, 0]	-999	PAL1	2	R1284N
1726.854	0.252	1409110	TEST_ORIENT	n/a	n/a	1	3	LAMP	SHEEP	JEEP	LAMP	11	[0, 0, 0]	-999	PAL1	2	R1284N
1727.106	0.566	1409362	RETRIEVAL_ORIENT_OFF	n/a	n/a	2	-999	n/a	n/a	n/a	n/a	11	[0, 0, 0]	-999	PAL1	2	R1284N
1727.672	4.0	1409928	TEST_PROBE	n/a	wordpools/wordpool_EN.txt	1	3	LAMP	SHEEP	JEEP	LAMP	11	[0, 0, 0]	-999	PAL1	2	R1284N
1727.673	1.414	1409929	REC_START	n/a	n/a	1	-999	n/a	SHEEP	n/a	n/a	11	[0, 0, 0]	-999	PAL1	2	R1284N
1729.087	2.588	1411343	REC_EVENT	1.414	n/a	1	3	LAMP	SHEEP	JEEP	LAMP	11	[0, 0, 0]	-999	PAL1	2	R1284N
1731.675	1.001	1413931	PROBE_OFF	n/a	n/a	1	-999	n/a	n/a	n/a	n/a	11	[0, 0, 0]	-999	PAL1	2	R1284N
1732.676	0.012	1414932	REC_END	n/a	n/a	1	-999	n/a	n/a	n/a	n/a	11	[0, 0, 0]	-999	PAL1	2	R1284N
1732.688	0.252	1414944	TEST_ORIENT	n/a	n/a	4	4	PEN	n/a	FAN	PEN	11	[0, 0, 0]	-999	PAL1	2	R1284N
1732.94	0.643	1415196	RETRIEVAL_ORIENT_OFF	n/a	n/a	1	-999	n/a	n/a	n/a	n/a	11	[0, 0, 0]	-999	PAL1	2	R1284N
1733.583	4.0	1415839	TEST_PROBE	n/a	wordpools/wordpool_EN.txt	4	4	PEN	n/a	FAN	PEN	11	[0, 0, 0]	-999	PAL1	2	R1284N
1733.584	4.002	1415840	REC_START	n/a	n/a	4	-999	n/a	n/a	n/a	n/a	11	[0, 0, 0]	-999	PAL1	2	R1284N
1737.586	0.92	1419842	PROBE_OFF	n/a	n/a	4	-999	n/a	n/a	n/a	n/a	11	[0, 0, 0]	-999	PAL1	2	R1284N
1738.506	0.08	1420762	REC_EVENT	4.922	n/a	4	4	PEN	<>	FAN	PEN	11	[0, 0, 0]	-999	PAL1	2	R1284N
1738.586	0.012	1420842	REC_END	n/a	n/a	4	-999	n/a	n/a	n/a	n/a	11	[0, 0, 0]	-999	PAL1	2	R1284N
1738.598	0.253	1420854	TEST_ORIENT	n/a	n/a	5	5	CHAIR	n/a	CHAIR	TOOTH	11	[0, 0, 0]	-999	PAL1	2	R1284N
1738.851	0.582	1421107	RETRIEVAL_ORIENT_OFF	n/a	n/a	4	-999	n/a	n/a	n/a	n/a	11	[0, 0, 0]	-999	PAL1	2	R1284N
1739.433	4.0	1421689	TEST_PROBE	n/a	wordpools/wordpool_EN.txt	5	5	CHAIR	n/a	CHAIR	TOOTH	11	[0, 0, 0]	-999	PAL1	2	R1284N
1739.433	4.012	1421689	REC_START	n/a	n/a	5	-999	n/a	n/a	n/a	n/a	11	[0, 0, 0]	-999	PAL1	2	R1284N
1743.445	0.817	1425701	PROBE_OFF	n/a	n/a	5	-999	n/a	n/a	n/a	n/a	11	[0, 0, 0]	-999	PAL1	2	R1284N
1744.262	0.183	1426518	REC_EVENT	4.829	n/a	5	5	CHAIR	<>	CHAIR	TOOTH	11	[0, 0, 0]	-999	PAL1	2	R1284N
1744.445	0.006	1426701	REC_END	n/a	n/a	5	-999	n/a	n/a	n/a	n/a	11	[0, 0, 0]	-999	PAL1	2	R1284N
1744.451	0.252	1426707	TEST_ORIENT	n/a	n/a	6	6	COIN	n/a	COIN	TRAIN	11	[0, 0, 0]	-999	PAL1	2	R1284N
1744.703	0.516	1426959	RETRIEVAL_ORIENT_OFF	n/a	n/a	5	-999	n/a	n/a	n/a	n/a	11	[0, 0, 0]	-999	PAL1	2	R1284N
1745.219	4.0	1427475	TEST_PROBE	n/a	wordpools/wordpool_EN.txt	6	6	COIN	n/a	COIN	TRAIN	11	[0, 0, 0]	-999	PAL1	2	R1284N
1745.22	4.011	1427476	REC_START	n/a	n/a	6	-999	n/a	n/a	n/a	n/a	11	[0, 0, 0]	-999	PAL1	2	R1284N
1749.231	0.888	1431487	PROBE_OFF	n/a	n/a	6	-999	n/a	n/a	n/a	n/a	11	[0, 0, 0]	-999	PAL1	2	R1284N
1750.119	0.112	1432375	REC_EVENT	4.899	n/a	6	6	COIN	<>	COIN	TRAIN	11	[0, 0, 0]	-999	PAL1	2	R1284N
1750.231	0.003	1432487	REC_END	n/a	n/a	6	-999	n/a	n/a	n/a	n/a	11	[0, 0, 0]	-999	PAL1	2	R1284N
1750.234	4.697	1432490	RECALL_END	n/a	n/a	-999	-999	n/a	n/a	n/a	n/a	11	[0, 0, 0]	-999	PAL1	2	R1284N
1754.931	10.928	1437188	TRIAL	n/a	n/a	-999	-999	n/a	n/a	n/a	n/a	12	[0, 0, 0]	-999	PAL1	2	R1284N
1765.859	0.004	1448116	ENCODING_START	n/a	n/a	-999	-999	n/a	n/a	n/a	n/a	12	[0, 0, 0]	-999	PAL1	2	R1284N
1765.863	0.253	1448120	STUDY_ORIENT	n/a	n/a	1	5	BREAD	CORN	BREAD	CLOCK	12	[0, 0, 0]	-999	PAL1	2	R1284N
1766.116	0.722	1448373	STUDY_ORIENT_OFF	n/a	n/a	1	5	BREAD	CORN	BREAD	CLOCK	12	[0, 0, 0]	-999	PAL1	2	R1284N
1766.838	4.0	1449095	STUDY_PAIR	n/a	wordpools/wordpool_EN.txt	1	5	BREAD	CORN	BREAD	CLOCK	12	[0, 0, 0]	-999	PAL1	2	R1284N
1770.84	1.003	1453097	PAIR_OFF	n/a	n/a	1	5	BREAD	CORN	BREAD	CLOCK	12	[0, 0, 0]	-999	PAL1	2	R1284N
1771.843	0.252	1454100	STUDY_ORIENT	n/a	n/a	2	4	STICK	STICK	STICK	WORLD	12	[0, 0, 0]	-999	PAL1	2	R1284N
1772.095	0.545	1454352	STUDY_ORIENT_OFF	n/a	n/a	2	4	STICK	STICK	STICK	WORLD	12	[0, 0, 0]	-999	PAL1	2	R1284N
1772.64	4.0	1454897	STUDY_PAIR	n/a	wordpools/wordpool_EN.txt	2	4	STICK	STICK	STICK	WORLD	12	[0, 0, 0]	-999	PAL1	2	R1284N
1776.643	1.003	1458900	PAIR_OFF	n/a	n/a	2	4	STICK	STICK	STICK	WORLD	12	[0, 0, 0]	-999	PAL1	2	R1284N
1777.646	0.252	1459903	STUDY_ORIENT	n/a	n/a	3	1	CAR	n/a	STEAM	CAR	12	[0, 0, 0]	-999	PAL1	2	R1284N
1777.898	0.578	1460155	STUDY_ORIENT_OFF	n/a	n/a	3	1	CAR	n/a	STEAM	CAR	12	[0, 0, 0]	-999	PAL1	2	R1284N
1778.476	4.0	1460733	STUDY_PAIR	n/a	wordpools/wordpool_EN.txt	3	1	CAR	n/a	STEAM	CAR	12	[0, 0, 0]	-999	PAL1	2	R1284N
1782.479	1.004	1464736	PAIR_OFF	n/a	n/a	3	1	CAR	n/a	STEAM	CAR	12	[0, 0, 0]	-999	PAL1	2	R1284N
1783.483	0.253	1465740	STUDY_ORIENT	n/a	n/a	4	6	FOX	n/a	SLUSH	FOX	12	[0, 0, 0]	-999	PAL1	2	R1284N
1783.736	0.576	1465993	STUDY_ORIENT_OFF	n/a	n/a	4	6	FOX	n/a	SLUSH	FOX	12	[0, 0, 0]	-999	PAL1	2	R1284N
1784.312	4.0	1466569	STUDY_PAIR	n/a	wordpools/wordpool_EN.txt	4	6	FOX	n/a	SLUSH	FOX	12	[0, 0, 0]	-999	PAL1	2	R1284N
1788.315	1.004	1470572	PAIR_OFF	n/a	n/a	4	6	FOX	n/a	SLUSH	FOX	12	[0, 0, 0]	-999	PAL1	2	R1284N
1789.319	0.253	1471576	STUDY_ORIENT	n/a	n/a	5	3	CHIEF	CAR	CHIEF	WOOD	12	[0, 0, 0]	-999	PAL1	2	R1284N
1789.572	0.548	1471829	STUDY_ORIENT_OFF	n/a	n/a	5	3	CHIEF	CAR	CHIEF	WOOD	12	[0, 0, 0]	-999	PAL1	2	R1284N
1790.12	4.0	1472377	STUDY_PAIR	n/a	wordpools/wordpool_EN.txt	5	3	CHIEF	CAR	CHIEF	WOOD	12	[0, 0, 0]	-999	PAL1	2	R1284N
1794.123	1.004	1476381	PAIR_OFF	n/a	n/a	5	3	CHIEF	CAR	CHIEF	WOOD	12	[0, 0, 0]	-999	PAL1	2	R1284N
1795.127	0.252	1477385	STUDY_ORIENT	n/a	n/a	6	2	MOON	PANTS	MOON	PANTS	12	[0, 0, 0]	-999	PAL1	2	R1284N
1795.379	0.647	1477637	STUDY_ORIENT_OFF	n/a	n/a	6	2	MOON	PANTS	MOON	PANTS	12	[0, 0, 0]	-999	PAL1	2	R1284N
1796.026	4.0	1478284	STUDY_PAIR	n/a	wordpools/wordpool_EN.txt	6	2	MOON	PANTS	MOON	PANTS	12	[0, 0, 0]	-999	PAL1	2	R1284N
1800.029	1.0	1482287	PAIR_OFF	n/a	n/a	6	2	MOON	PANTS	MOON	PANTS	12	[0, 0, 0]	-999	PAL1	2	R1284N
1801.029	0.0	1483287	MATH_START	n/a	n/a	-999	-999	n/a	n/a	n/a	n/a	12	[0, 0, 0]	-999	PAL1	2	R1284N
1801.029	0.0	1483287	ENCODING_END	n/a	n/a	-999	-999	n/a	n/a	n/a	n/a	12	[0, 0, 0]	-999	PAL1	2	R1284N
1801.029	0.008	1483287	START	n/a	n/a	-999	-999	n/a	n/a	n/a	n/a	12	[-999, -999, -999]	-999	PAL1	2	R1284N
1801.037	7.745	1483295	PROB	7.734	n/a	-999	-999	n/a	n/a	n/a	n/a	12	[2, 1, 4]	7	PAL1	2	R1284N
1808.782	5.102	1491040	PROB	5.092	n/a	-999	-999	n/a	n/a	n/a	n/a	12	[5, 8, 5]	18	PAL1	2	R1284N
1813.884	3.496	1496142	PROB	3.485	n/a	-999	-999	n/a	n/a	n/a	n/a	12	[1, 1, 2]	4	PAL1	2	R1284N
1817.38	4.262	1499638	PROB	4.262	n/a	-999	-999	n/a	n/a	n/a	n/a	12	[3, 8, 2]	13	PAL1	2	R1284N
1821.642	0.005	1503900	STOP	n/a	n/a	-999	-999	n/a	n/a	n/a	n/a	12	[-999, -999, -999]	-999	PAL1	2	R1284N
1821.647	0.001	1503905	MATH_END	n/a	n/a	-999	-999	n/a	n/a	n/a	n/a	12	[0, 0, 0]	-999	PAL1	2	R1284N
1821.648	0.003	1503906	RECALL_START	n/a	n/a	-999	-999	n/a	n/a	n/a	n/a	12	[0, 0, 0]	-999	PAL1	2	R1284N
1821.651	0.252	1503909	TEST_ORIENT	n/a	n/a	3	1	CAR	n/a	STEAM	CAR	12	[0, 0, 0]	-999	PAL1	2	R1284N
1821.903	0.632	1504161	RETRIEVAL_ORIENT_OFF	n/a	n/a	-999	-999	n/a	n/a	n/a	n/a	12	[0, 0, 0]	-999	PAL1	2	R1284N
1822.535	4.0	1504793	TEST_PROBE	n/a	wordpools/wordpool_EN.txt	3	1	CAR	n/a	STEAM	CAR	12	[0, 0, 0]	-999	PAL1	2	R1284N
1822.536	4.002	1504794	REC_START	n/a	n/a	3	-999	n/a	n/a	n/a	n/a	12	[0, 0, 0]	-999	PAL1	2	R1284N
1826.538	0.874	1508796	PROBE_OFF	n/a	n/a	3	-999	n/a	n/a	n/a	n/a	12	[0, 0, 0]	-999	PAL1	2	R1284N
1827.412	0.126	1509670	REC_EVENT	4.876	n/a	3	1	CAR	<>	STEAM	CAR	12	[0, 0, 0]	-999	PAL1	2	R1284N
1827.538	0.013	1509796	REC_END	n/a	n/a	3	-999	n/a	n/a	n/a	n/a	12	[0, 0, 0]	-999	PAL1	2	R1284N
1827.551	0.252	1509809	TEST_ORIENT	n/a	n/a	6	2	MOON	PANTS	MOON	PANTS	12	[0, 0, 0]	-999	PAL1	2	R1284N
1827.803	0.692	1510061	RETRIEVAL_ORIENT_OFF	n/a	n/a	3	-999	n/a	n/a	n/a	n/a	12	[0, 0, 0]	-999	PAL1	2	R1284N
