onset	duration	sample	trial_type	response_time	serialpos	probepos	probe_word	resp_word	study_1	study_2	list	test	answer	experiment	session	subject
0.0	76.964	747639	SESS_START	n/a	-999	-999	n/a	n/a	n/a	n/a	-999	[0, 0, 0]	-999	PAL1	2	R1091N
76.964	1.016	824601	START	n/a	-999	-999	n/a	n/a	n/a	n/a	-1	[-999, -999, -999]	-999	PAL1	2	R1091N
77.98	6.735	825616	PROB	6711	-999	-999	n/a	n/a	n/a	n/a	-1	[1, 2, 8]	11	PAL1	2	R1091N
84.715	6.168	832351	PROB	6144	-999	-999	n/a	n/a	n/a	n/a	-1	[5, 2, 8]	11	PAL1	2	R1091N
90.883	5.2	838519	PROB	5168	-999	-999	n/a	n/a	n/a	n/a	-1	[9, 4, 8]	21	PAL1	2	R1091N
96.083	8.239	843719	PROB	8239	-999	-999	n/a	n/a	n/a	n/a	-1	[9, 2, 5]	16	PAL1	2	R1091N
104.322	53.0	851958	STOP	n/a	-999	-999	n/a	n/a	n/a	n/a	-1	[-999, -999, -999]	-999	PAL1	2	R1091N
157.322	10.44	904956	ENCODING_START	n/a	0	-999	n/a	n/a	n/a	n/a	1	[0, 0, 0]	-999	PAL1	2	R1091N
167.762	1.0	915395	STUDY_ORIENT	n/a	1	1	BIRD	n/a	WORLD	BIRD	1	[0, 0, 0]	-999	PAL1	2	R1091N
168.762	5.018	916395	STUDY_PAIR	n/a	1	1	BIRD	n/a	WORLD	BIRD	1	[0, 0, 0]	-999	PAL1	2	R1091N
173.78	0.8	921413	STUDY_ORIENT	n/a	2	6	SMOKE	HORN	MAP	SMOKE	1	[0, 0, 0]	-999	PAL1	2	R1091N
174.58	5.034	922213	STUDY_PAIR	n/a	2	6	SMOKE	HORN	MAP	SMOKE	1	[0, 0, 0]	-999	PAL1	2	R1091N
179.614	0.9	927247	STUDY_ORIENT	n/a	3	5	HORN	MOOSE	HORN	MOOSE	1	[0, 0, 0]	-999	PAL1	2	R1091N
180.514	5.018	928147	STUDY_PAIR	n/a	3	5	HORN	MOOSE	HORN	MOOSE	1	[0, 0, 0]	-999	PAL1	2	R1091N
185.532	0.883	933165	STUDY_ORIENT	n/a	4	4	CLIFF	EGG	CLIFF	EGG	1	[0, 0, 0]	-999	PAL1	2	R1091N
186.415	5.018	934048	STUDY_PAIR	n/a	4	4	CLIFF	EGG	CLIFF	EGG	1	[0, 0, 0]	-999	PAL1	2	R1091N
191.433	0.816	939065	STUDY_ORIENT	n/a	5	3	JAR	PIPE	JAR	PIPE	1	[0, 0, 0]	-999	PAL1	2	R1091N
192.249	5.034	939881	STUDY_PAIR	n/a	5	3	JAR	PIPE	JAR	PIPE	1	[0, 0, 0]	-999	PAL1	2	R1091N
197.283	0.933	944915	STUDY_ORIENT	n/a	6	2	SUN	n/a	FLAME	SUN	1	[0, 0, 0]	-999	PAL1	2	R1091N
198.216	4.001	945848	STUDY_PAIR	n/a	6	2	SUN	n/a	FLAME	SUN	1	[0, 0, 0]	-999	PAL1	2	R1091N
202.217	1.0	949849	START	n/a	-999	-999	n/a	n/a	n/a	n/a	1	[-999, -999, -999]	-999	PAL1	2	R1091N
203.217	0.017	950849	MATH_START	n/a	-999	-999	n/a	n/a	n/a	n/a	1	[0, 0, 0]	-999	PAL1	2	R1091N
203.234	5.518	950866	PROB	5489	-999	-999	n/a	n/a	n/a	n/a	1	[3, 1, 1]	5	PAL1	2	R1091N
208.752	4.251	956384	PROB	4227	-999	-999	n/a	n/a	n/a	n/a	1	[1, 1, 8]	10	PAL1	2	R1091N
213.003	4.868	960635	PROB	4848	-999	-999	n/a	n/a	n/a	n/a	1	[6, 6, 3]	15	PAL1	2	R1091N
217.871	5.028	965502	PROB	5028	-999	-999	n/a	n/a	n/a	n/a	1	[2, 6, 5]	13	PAL1	2	R1091N
222.899	0.006	970530	STOP	n/a	-999	-999	n/a	n/a	n/a	n/a	1	[-999, -999, -999]	-999	PAL1	2	R1091N
222.905	0.0	970536	MATH_END	n/a	-999	-999	n/a	n/a	n/a	n/a	1	[0, 0, 0]	-999	PAL1	2	R1091N
222.905	0.017	970536	TEST_START	n/a	-999	-999	n/a	n/a	n/a	n/a	1	[0, 0, 0]	-999	PAL1	2	R1091N
222.922	0.883	970553	TEST_ORIENT	n/a	1	1	BIRD	n/a	WORLD	BIRD	1	[0, 0, 0]	-999	PAL1	2	R1091N
223.805	0.001	971436	TEST_PROBE	n/a	1	1	BIRD	n/a	WORLD	BIRD	1	[0, 0, 0]	-999	PAL1	2	R1091N
223.806	1.356	971437	REC_START	n/a	1	-999	n/a	n/a	n/a	n/a	1	[0, 0, 0]	-999	PAL1	2	R1091N
225.162	3.668	972793	REC_EVENT	1356	1	1	BIRD	<>	WORLD	BIRD	1	[0, 0, 0]	-999	PAL1	2	R1091N
228.83	0.009	976461	REC_END	n/a	1	-999	n/a	n/a	n/a	n/a	1	[0, 0, 0]	-999	PAL1	2	R1091N
228.839	0.9	976470	TEST_ORIENT	n/a	6	2	SUN	n/a	FLAME	SUN	1	[0, 0, 0]	-999	PAL1	2	R1091N
229.739	0.001	977370	TEST_PROBE	n/a	6	2	SUN	n/a	FLAME	SUN	1	[0, 0, 0]	-999	PAL1	2	R1091N
229.74	2.959	977371	REC_START	n/a	6	-999	n/a	n/a	n/a	n/a	1	[0, 0, 0]	-999	PAL1	2	R1091N
232.699	2.041	980330	REC_EVENT	2959	6	2	SUN	<>	FLAME	SUN	1	[0, 0, 0]	-999	PAL1	2	R1091N
234.74	0.017	982371	REC_END	n/a	6	-999	n/a	n/a	n/a	n/a	1	[0, 0, 0]	-999	PAL1	2	R1091N
234.757	1.0	982388	TEST_ORIENT	n/a	5	3	JAR	PIPE	JAR	PIPE	1	[0, 0, 0]	-999	PAL1	2	R1091N
235.757	0.001	983388	TEST_PROBE	n/a	5	3	JAR	PIPE	JAR	PIPE	1	[0, 0, 0]	-999	PAL1	2	R1091N
235.758	0.921	983389	REC_START	n/a	5	-999	n/a	PIPE	n/a	n/a	1	[0, 0, 0]	-999	PAL1	2	R1091N
236.679	0.305	984310	REC_EVENT	921	5	3	JAR	JAR	JAR	PIPE	1	[0, 0, 0]	-999	PAL1	2	R1091N
236.984	3.79	984615	REC_EVENT	1226	5	3	JAR	PIPE	JAR	PIPE	1	[0, 0, 0]	-999	PAL1	2	R1091N
240.774	0.017	988405	REC_END	n/a	5	-999	n/a	n/a	n/a	n/a	1	[0, 0, 0]	-999	PAL1	2	R1091N
240.791	1.0	988422	TEST_ORIENT	n/a	4	4	CLIFF	EGG	CLIFF	EGG	1	[0, 0, 0]	-999	PAL1	2	R1091N
241.791	0.001	989422	TEST_PROBE	n/a	4	4	CLIFF	EGG	CLIFF	EGG	1	[0, 0, 0]	-999	PAL1	2	R1091N
241.792	1.053	989423	REC_START	n/a	4	-999	n/a	EGG	n/a	n/a	1	[0, 0, 0]	-999	PAL1	2	R1091N
242.845	0.253	990475	REC_EVENT	1053	4	4	CLIFF	CLIFF	CLIFF	EGG	1	[0, 0, 0]	-999	PAL1	2	R1091N
243.098	3.702	990728	REC_EVENT	1306	4	4	CLIFF	EGG	CLIFF	EGG	1	[0, 0, 0]	-999	PAL1	2	R1091N
246.8	0.009	994430	REC_END	n/a	4	-999	n/a	n/a	n/a	n/a	1	[0, 0, 0]	-999	PAL1	2	R1091N
246.809	0.967	994439	TEST_ORIENT	n/a	3	5	HORN	MOOSE	HORN	MOOSE	1	[0, 0, 0]	-999	PAL1	2	R1091N
247.776	0.0	995406	TEST_PROBE	n/a	3	5	HORN	MOOSE	HORN	MOOSE	1	[0, 0, 0]	-999	PAL1	2	R1091N
247.776	1.406	995406	REC_START	n/a	3	-999	n/a	MOOSE	n/a	n/a	1	[0, 0, 0]	-999	PAL1	2	R1091N
249.182	0.168	996812	REC_EVENT	1406	3	5	HORN	<>	HORN	MOOSE	1	[0, 0, 0]	-999	PAL1	2	R1091N
249.35	0.275	996980	REC_EVENT	1574	3	5	HORN	HORN	HORN	MOOSE	1	[0, 0, 0]	-999	PAL1	2	R1091N
249.625	3.168	997255	REC_EVENT	1849	3	5	HORN	MOOSE	HORN	MOOSE	1	[0, 0, 0]	-999	PAL1	2	R1091N
252.793	0.017	1000423	REC_END	n/a	3	-999	n/a	n/a	n/a	n/a	1	[0, 0, 0]	-999	PAL1	2	R1091N
252.81	1.033	1000440	TEST_ORIENT	n/a	2	6	SMOKE	HORN	MAP	SMOKE	1	[0, 0, 0]	-999	PAL1	2	R1091N
253.843	0.001	1001473	TEST_PROBE	n/a	2	6	SMOKE	HORN	MAP	SMOKE	1	[0, 0, 0]	-999	PAL1	2	R1091N
253.844	4.328	1001474	REC_START	n/a	2	-999	n/a	HORN	n/a	n/a	1	[0, 0, 0]	-999	PAL1	2	R1091N
258.172	0.336	1005802	REC_EVENT	4328	2	6	SMOKE	SMOKE	MAP	SMOKE	1	[0, 0, 0]	-999	PAL1	2	R1091N
258.508	0.348	1006138	REC_EVENT	4664	2	6	SMOKE	HORN	MAP	SMOKE	1	[0, 0, 0]	-999	PAL1	2	R1091N
258.856	3.506	1006486	REC_END	n/a	2	-999	n/a	n/a	n/a	n/a	1	[0, 0, 0]	-999	PAL1	2	R1091N
262.362	10.451	1009992	ENCODING_START	n/a	0	-999	n/a	n/a	n/a	n/a	2	[0, 0, 0]	-999	PAL1	2	R1091N
272.813	0.917	1020442	STUDY_ORIENT	n/a	1	1	TIE	TRAFFIC	BATH	TIE	2	[0, 0, 0]	-999	PAL1	2	R1091N
273.73	5.034	1021359	STUDY_PAIR	n/a	1	1	TIE	TRAFFIC	BATH	TIE	2	[0, 0, 0]	-999	PAL1	2	R1091N
278.764	0.934	1026393	STUDY_ORIENT	n/a	2	6	STONE	COIN	STONE	COIN	2	[0, 0, 0]	-999	PAL1	2	R1091N
279.698	5.034	1027327	STUDY_PAIR	n/a	2	6	STONE	COIN	STONE	COIN	2	[0, 0, 0]	-999	PAL1	2	R1091N
284.732	0.85	1032361	STUDY_ORIENT	n/a	3	3	ANT	SALT	SALT	ANT	2	[0, 0, 0]	-999	PAL1	2	R1091N
285.582	5.034	1033211	STUDY_PAIR	n/a	3	3	ANT	SALT	SALT	ANT	2	[0, 0, 0]	-999	PAL1	2	R1091N
290.616	0.867	1038245	STUDY_ORIENT	n/a	4	2	HOSE	POISON	HOSE	HEN	2	[0, 0, 0]	-999	PAL1	2	R1091N
291.483	5.034	1039112	STUDY_PAIR	n/a	4	2	HOSE	POISON	HOSE	HEN	2	[0, 0, 0]	-999	PAL1	2	R1091N
296.517	0.799	1044146	STUDY_ORIENT	n/a	5	5	MOUTH	PEAR	PEAR	MOUTH	2	[0, 0, 0]	-999	PAL1	2	R1091N
297.316	5.018	1044944	STUDY_PAIR	n/a	5	5	MOUTH	PEAR	PEAR	MOUTH	2	[0, 0, 0]	-999	PAL1	2	R1091N
302.334	0.9	1049962	STUDY_ORIENT	n/a	6	4	LIP	BATH	LIP	DUCK	2	[0, 0, 0]	-999	PAL1	2	R1091N
303.234	4.018	1050862	STUDY_PAIR	n/a	6	4	LIP	BATH	LIP	DUCK	2	[0, 0, 0]	-999	PAL1	2	R1091N
307.252	0.999	1054880	START	n/a	-999	-999	n/a	n/a	n/a	n/a	2	[-999, -999, -999]	-999	PAL1	2	R1091N
308.251	0.017	1055879	MATH_START	n/a	-999	-999	n/a	n/a	n/a	n/a	2	[0, 0, 0]	-999	PAL1	2	R1091N
308.268	5.051	1055896	PROB	5022	-999	-999	n/a	n/a	n/a	n/a	2	[3, 8, 3]	14	PAL1	2	R1091N
313.319	17.148	1060947	PROB	17148	-999	-999	n/a	n/a	n/a	n/a	2	[8, 6, 9]	24	PAL1	2	R1091N
330.467	0.006	1078094	STOP	n/a	-999	-999	n/a	n/a	n/a	n/a	2	[-999, -999, -999]	-999	PAL1	2	R1091N
330.473	0.0	1078100	MATH_END	n/a	-999	-999	n/a	n/a	n/a	n/a	2	[0, 0, 0]	-999	PAL1	2	R1091N
330.473	0.017	1078100	TEST_START	n/a	-999	-999	n/a	n/a	n/a	n/a	2	[0, 0, 0]	-999	PAL1	2	R1091N
330.49	1.033	1078117	TEST_ORIENT	n/a	1	1	TIE	TRAFFIC	BATH	TIE	2	[0, 0, 0]	-999	PAL1	2	R1091N
331.523	0.001	1079150	TEST_PROBE	n/a	1	1	TIE	TRAFFIC	BATH	TIE	2	[0, 0, 0]	-999	PAL1	2	R1091N
331.524	0.912	1079151	REC_START	n/a	1	-999	n/a	TRAFFIC	n/a	n/a	2	[0, 0, 0]	-999	PAL1	2	R1091N
332.436	4.096	1080063	REC_EVENT	912	1	1	TIE	TRAFFIC	BATH	TIE	2	[0, 0, 0]	-999	PAL1	2	R1091N
336.532	0.009	1084159	REC_END	n/a	1	-999	n/a	n/a	n/a	n/a	2	[0, 0, 0]	-999	PAL1	2	R1091N
336.541	0.933	1084168	TEST_ORIENT	n/a	4	2	HOSE	POISON	HOSE	HEN	2	[0, 0, 0]	-999	PAL1	2	R1091N
337.474	0.001	1085101	TEST_PROBE	n/a	4	2	HOSE	POISON	HOSE	HEN	2	[0, 0, 0]	-999	PAL1	2	R1091N
337.475	0.996	1085102	REC_START	n/a	4	-999	n/a	POISON	n/a	n/a	2	[0, 0, 0]	-999	PAL1	2	R1091N
338.471	0.958	1086098	REC_EVENT	996	4	2	HOSE	HOSE	HOSE	HEN	2	[0, 0, 0]	-999	PAL1	2	R1091N
339.429	3.054	1087056	REC_EVENT	1954	4	2	HOSE	POISON	HOSE	HEN	2	[0, 0, 0]	-999	PAL1	2	R1091N
342.483	0.009	1090110	REC_END	n/a	4	-999	n/a	n/a	n/a	n/a	2	[0, 0, 0]	-999	PAL1	2	R1091N
342.492	1.017	1090119	TEST_ORIENT	n/a	3	3	ANT	SALT	SALT	ANT	2	[0, 0, 0]	-999	PAL1	2	R1091N
343.509	0.0	1091136	REC_START	n/a	3	-999	n/a	SALT	n/a	n/a	2	[0, 0, 0]	-999	PAL1	2	R1091N
343.509	2.439	1091136	TEST_PROBE	n/a	3	3	ANT	SALT	SALT	ANT	2	[0, 0, 0]	-999	PAL1	2	R1091N
345.948	0.182	1093575	REC_EVENT	2439	3	3	ANT	<>	SALT	ANT	2	[0, 0, 0]	-999	PAL1	2	R1091N
346.13	0.262	1093757	REC_EVENT	2621	3	3	ANT	ANT	SALT	ANT	2	[0, 0, 0]	-999	PAL1	2	R1091N
346.392	2.134	1094019	REC_EVENT	2883	3	3	ANT	SALT	SALT	ANT	2	[0, 0, 0]	-999	PAL1	2	R1091N
348.526	0.017	1096153	REC_END	n/a	3	-999	n/a	n/a	n/a	n/a	2	[0, 0, 0]	-999	PAL1	2	R1091N
348.543	1.033	1096170	TEST_ORIENT	n/a	6	4	LIP	BATH	LIP	DUCK	2	[0, 0, 0]	-999	PAL1	2	R1091N
349.576	0.001	1097203	TEST_PROBE	n/a	6	4	LIP	BATH	LIP	DUCK	2	[0, 0, 0]	-999	PAL1	2	R1091N
349.577	2.556	1097204	REC_START	n/a	6	-999	n/a	BATH	n/a	n/a	2	[0, 0, 0]	-999	PAL1	2	R1091N
352.133	0.071	1099759	REC_EVENT	2556	6	4	LIP	<>	LIP	DUCK	2	[0, 0, 0]	-999	PAL1	2	R1091N
352.204	2.381	1099830	REC_EVENT	2627	6	4	LIP	BATH	LIP	DUCK	2	[0, 0, 0]	-999	PAL1	2	R1091N
354.585	0.008	1102211	REC_END	n/a	6	-999	n/a	n/a	n/a	n/a	2	[0, 0, 0]	-999	PAL1	2	R1091N
354.593	1.001	1102219	TEST_ORIENT	n/a	5	5	MOUTH	PEAR	PEAR	MOUTH	2	[0, 0, 0]	-999	PAL1	2	R1091N
355.594	0.0	1103220	TEST_PROBE	n/a	5	5	MOUTH	PEAR	PEAR	MOUTH	2	[0, 0, 0]	-999	PAL1	2	R1091N
355.594	1.244	1103220	REC_START	n/a	5	-999	n/a	PEAR	n/a	n/a	2	[0, 0, 0]	-999	PAL1	2	R1091N
356.838	3.773	1104464	REC_EVENT	1244	5	5	MOUTH	PEAR	PEAR	MOUTH	2	[0, 0, 0]	-999	PAL1	2	R1091N
360.611	0.017	1108237	REC_END	n/a	5	-999	n/a	n/a	n/a	n/a	2	[0, 0, 0]	-999	PAL1	2	R1091N
360.628	0.85	1108254	TEST_ORIENT	n/a	2	6	STONE	COIN	STONE	COIN	2	[0, 0, 0]	-999	PAL1	2	R1091N
361.478	0.001	1109104	TEST_PROBE	n/a	2	6	STONE	COIN	STONE	COIN	2	[0, 0, 0]	-999	PAL1	2	R1091N
361.479	1.538	1109105	REC_START	n/a	2	-999	n/a	COIN	n/a	n/a	2	[0, 0, 0]	-999	PAL1	2	R1091N
363.017	0.629	1110643	REC_EVENT	1538	2	6	STONE	STONE	STONE	COIN	2	[0, 0, 0]	-999	PAL1	2	R1091N
363.646	0.448	1111272	REC_EVENT	2167	2	6	STONE	STONE	STONE	COIN	2	[0, 0, 0]	-999	PAL1	2	R1091N
364.094	0.635	1111720	REC_EVENT	2615	2	6	STONE	<>	STONE	COIN	2	[0, 0, 0]	-999	PAL1	2	R1091N
364.729	1.272	1112355	REC_EVENT	3250	2	6	STONE	<>	STONE	COIN	2	[0, 0, 0]	-999	PAL1	2	R1091N
366.001	0.486	1113627	REC_EVENT	4522	2	6	STONE	COIN	STONE	COIN	2	[0, 0, 0]	-999	PAL1	2	R1091N
366.487	2.651	1114113	REC_END	n/a	2	-999	n/a	n/a	n/a	n/a	2	[0, 0, 0]	-999	PAL1	2	R1091N
369.138	10.443	1116764	ENCODING_START	n/a	0	-999	n/a	n/a	n/a	n/a	3	[0, 0, 0]	-999	PAL1	2	R1091N
379.581	1.017	1127206	STUDY_ORIENT	n/a	1	3	EAR	n/a	EAR	HOUSE	3	[0, 0, 0]	-999	PAL1	2	R1091N
380.598	5.018	1128223	STUDY_PAIR	n/a	1	3	EAR	n/a	EAR	HOUSE	3	[0, 0, 0]	-999	PAL1	2	R1091N
385.616	0.783	1133241	STUDY_ORIENT	n/a	2	4	SHOE	BEAK	SHOE	BEAK	3	[0, 0, 0]	-999	PAL1	2	R1091N
386.399	5.034	1134024	STUDY_PAIR	n/a	2	4	SHOE	BEAK	SHOE	BEAK	3	[0, 0, 0]	-999	PAL1	2	R1091N
391.433	0.899	1139058	STUDY_ORIENT	n/a	3	1	STOVE	n/a	STOVE	BEE	3	[0, 0, 0]	-999	PAL1	2	R1091N
392.332	5.018	1139957	STUDY_PAIR	n/a	3	1	STOVE	n/a	STOVE	BEE	3	[0, 0, 0]	-999	PAL1	2	R1091N
397.35	0.817	1144975	STUDY_ORIENT	n/a	4	6	FLAG	n/a	FLAG	PLANE	3	[0, 0, 0]	-999	PAL1	2	R1091N
398.167	5.034	1145792	STUDY_PAIR	n/a	4	6	FLAG	n/a	FLAG	PLANE	3	[0, 0, 0]	-999	PAL1	2	R1091N
403.201	0.901	1150826	STUDY_ORIENT	n/a	5	5	SIGN	BAND	BAND	SIGN	3	[0, 0, 0]	-999	PAL1	2	R1091N
404.102	5.033	1151727	STUDY_PAIR	n/a	5	5	SIGN	BAND	BAND	SIGN	3	[0, 0, 0]	-999	PAL1	2	R1091N
409.135	0.785	1156759	STUDY_ORIENT	n/a	6	2	CROWN	CONE	CONE	CROWN	3	[0, 0, 0]	-999	PAL1	2	R1091N
409.92	4.018	1157544	STUDY_PAIR	n/a	6	2	CROWN	CONE	CONE	CROWN	3	[0, 0, 0]	-999	PAL1	2	R1091N
413.938	0.999	1161562	START	n/a	-999	-999	n/a	n/a	n/a	n/a	3	[-999, -999, -999]	-999	PAL1	2	R1091N
414.937	0.017	1162561	MATH_START	n/a	-999	-999	n/a	n/a	n/a	n/a	3	[0, 0, 0]	-999	PAL1	2	R1091N
414.954	11.552	1162578	PROB	11521	-999	-999	n/a	n/a	n/a	n/a	3	[9, 1, 9]	19	PAL1	2	R1091N
426.506	5.368	1174130	PROB	5337	-999	-999	n/a	n/a	n/a	n/a	3	[4, 2, 6]	12	PAL1	2	R1091N
431.874	5.24	1179498	PROB	5240	-999	-999	n/a	n/a	n/a	n/a	3	[6, 7, 2]	15	PAL1	2	R1091N
437.114	0.009	1184737	STOP	n/a	-999	-999	n/a	n/a	n/a	n/a	3	[-999, -999, -999]	-999	PAL1	2	R1091N
437.123	0.0	1184746	MATH_END	n/a	-999	-999	n/a	n/a	n/a	n/a	3	[0, 0, 0]	-999	PAL1	2	R1091N
437.123	0.017	1184746	TEST_START	n/a	-999	-999	n/a	n/a	n/a	n/a	3	[0, 0, 0]	-999	PAL1	2	R1091N
437.14	0.968	1184763	TEST_ORIENT	n/a	3	1	STOVE	n/a	STOVE	BEE	3	[0, 0, 0]	-999	PAL1	2	R1091N
438.108	0.0	1185731	TEST_PROBE	n/a	3	1	STOVE	n/a	STOVE	BEE	3	[0, 0, 0]	-999	PAL1	2	R1091N
438.108	4.065	1185731	REC_START	n/a	3	-999	n/a	n/a	n/a	n/a	3	[0, 0, 0]	-999	PAL1	2	R1091N
442.173	0.951	1189796	REC_EVENT	4065	3	1	STOVE	<>	STOVE	BEE	3	[0, 0, 0]	-999	PAL1	2	R1091N
443.124	0.017	1190747	REC_END	n/a	3	-999	n/a	n/a	n/a	n/a	3	[0, 0, 0]	-999	PAL1	2	R1091N
443.141	0.835	1190764	TEST_ORIENT	n/a	6	2	CROWN	CONE	CONE	CROWN	3	[0, 0, 0]	-999	PAL1	2	R1091N
443.976	0.0	1191599	TEST_PROBE	n/a	6	2	CROWN	CONE	CONE	CROWN	3	[0, 0, 0]	-999	PAL1	2	R1091N
443.976	1.149	1191599	REC_START	n/a	6	-999	n/a	CONE	n/a	n/a	3	[0, 0, 0]	-999	PAL1	2	R1091N
445.125	3.868	1192748	REC_EVENT	1149	6	2	CROWN	CONE	CONE	CROWN	3	[0, 0, 0]	-999	PAL1	2	R1091N
448.993	0.017	1196616	REC_END	n/a	6	-999	n/a	n/a	n/a	n/a	3	[0, 0, 0]	-999	PAL1	2	R1091N
449.01	0.833	1196633	TEST_ORIENT	n/a	1	3	EAR	n/a	EAR	HOUSE	3	[0, 0, 0]	-999	PAL1	2	R1091N
449.843	0.001	1197466	TEST_PROBE	n/a	1	3	EAR	n/a	EAR	HOUSE	3	[0, 0, 0]	-999	PAL1	2	R1091N
449.844	5.003	1197467	REC_START	n/a	1	-999	n/a	n/a	n/a	n/a	3	[0, 0, 0]	-999	PAL1	2	R1091N
454.847	0.005	1202470	REC_EVENT	5003	1	3	EAR	<>	EAR	HOUSE	3	[0, 0, 0]	-999	PAL1	2	R1091N
454.852	0.009	1202475	REC_END	n/a	1	-999	n/a	n/a	n/a	n/a	3	[0, 0, 0]	-999	PAL1	2	R1091N
454.861	0.85	1202484	TEST_ORIENT	n/a	2	4	SHOE	BEAK	SHOE	BEAK	3	[0, 0, 0]	-999	PAL1	2	R1091N
455.711	0.0	1203334	TEST_PROBE	n/a	2	4	SHOE	BEAK	SHOE	BEAK	3	[0, 0, 0]	-999	PAL1	2	R1091N
455.711	2.049	1203334	REC_START	n/a	2	-999	n/a	BEAK	n/a	n/a	3	[0, 0, 0]	-999	PAL1	2	R1091N
457.76	2.968	1205383	REC_EVENT	2049	2	4	SHOE	BEAK	SHOE	BEAK	3	[0, 0, 0]	-999	PAL1	2	R1091N
460.728	0.017	1208351	REC_END	n/a	2	-999	n/a	n/a	n/a	n/a	3	[0, 0, 0]	-999	PAL1	2	R1091N
460.745	0.884	1208368	TEST_ORIENT	n/a	5	5	SIGN	BAND	BAND	SIGN	3	[0, 0, 0]	-999	PAL1	2	R1091N
461.629	0.0	1209251	TEST_PROBE	n/a	5	5	SIGN	BAND	BAND	SIGN	3	[0, 0, 0]	-999	PAL1	2	R1091N
461.629	2.184	1209251	REC_START	n/a	5	-999	n/a	BAND	n/a	n/a	3	[0, 0, 0]	-999	PAL1	2	R1091N
463.813	2.835	1211435	REC_EVENT	2184	5	5	SIGN	BAND	BAND	SIGN	3	[0, 0, 0]	-999	PAL1	2	R1091N
466.648	0.015	1214270	REC_END	n/a	5	-999	n/a	n/a	n/a	n/a	3	[0, 0, 0]	-999	PAL1	2	R1091N
466.663	1.033	1214285	TEST_ORIENT	n/a	4	6	FLAG	n/a	FLAG	PLANE	3	[0, 0, 0]	-999	PAL1	2	R1091N
467.696	0.001	1215318	TEST_PROBE	n/a	4	6	FLAG	n/a	FLAG	PLANE	3	[0, 0, 0]	-999	PAL1	2	R1091N
467.697	2.229	1215319	REC_START	n/a	4	-999	n/a	n/a	n/a	n/a	3	[0, 0, 0]	-999	PAL1	2	R1091N
469.926	2.779	1217548	REC_EVENT	2229	4	6	FLAG	<>	FLAG	PLANE	3	[0, 0, 0]	-999	PAL1	2	R1091N
472.705	1.914	1220327	REC_END	n/a	4	-999	n/a	n/a	n/a	n/a	3	[0, 0, 0]	-999	PAL1	2	R1091N
474.619	10.447	1222241	ENCODING_START	n/a	0	-999	n/a	n/a	n/a	n/a	4	[0, 0, 0]	-999	PAL1	2	R1091N
485.066	0.917	1232688	STUDY_ORIENT	n/a	1	3	RAIN	n/a	RAIN	AXE	4	[0, 0, 0]	-999	PAL1	2	R1091N
485.983	5.034	1233605	STUDY_PAIR	n/a	1	3	RAIN	n/a	RAIN	AXE	4	[0, 0, 0]	-999	PAL1	2	R1091N
491.017	0.783	1238638	STUDY_ORIENT	n/a	2	4	EEL	n/a	EEL	PIE	4	[0, 0, 0]	-999	PAL1	2	R1091N
491.8	5.018	1239421	STUDY_PAIR	n/a	2	4	EEL	n/a	EEL	PIE	4	[0, 0, 0]	-999	PAL1	2	R1091N
496.818	1.016	1244439	STUDY_ORIENT	n/a	3	1	BOWL	n/a	BOWL	FLOOR	4	[0, 0, 0]	-999	PAL1	2	R1091N
497.834	5.018	1245455	STUDY_PAIR	n/a	3	1	BOWL	n/a	BOWL	FLOOR	4	[0, 0, 0]	-999	PAL1	2	R1091N
502.852	0.917	1250473	STUDY_ORIENT	n/a	4	6	SPEAR	n/a	SPEAR	KITE	4	[0, 0, 0]	-999	PAL1	2	R1091N
503.769	5.034	1251390	STUDY_PAIR	n/a	4	6	SPEAR	n/a	SPEAR	KITE	4	[0, 0, 0]	-999	PAL1	2	R1091N
508.803	1.017	1256424	STUDY_ORIENT	n/a	5	5	TANK	n/a	BEAN	TANK	4	[0, 0, 0]	-999	PAL1	2	R1091N
509.82	5.034	1257441	STUDY_PAIR	n/a	5	5	TANK	n/a	BEAN	TANK	4	[0, 0, 0]	-999	PAL1	2	R1091N
514.854	0.867	1262475	STUDY_ORIENT	n/a	6	2	ROAD	n/a	SLEEVE	ROAD	4	[0, 0, 0]	-999	PAL1	2	R1091N
515.721	4.018	1263342	STUDY_PAIR	n/a	6	2	ROAD	n/a	SLEEVE	ROAD	4	[0, 0, 0]	-999	PAL1	2	R1091N
519.739	0.999	1267359	START	n/a	-999	-999	n/a	n/a	n/a	n/a	4	[-999, -999, -999]	-999	PAL1	2	R1091N
520.738	0.017	1268358	MATH_START	n/a	-999	-999	n/a	n/a	n/a	n/a	4	[0, 0, 0]	-999	PAL1	2	R1091N
520.755	4.868	1268375	PROB	4840	-999	-999	n/a	n/a	n/a	n/a	4	[8, 8, 4]	20	PAL1	2	R1091N
525.623	11.252	1273243	PROB	11220	-999	-999	n/a	n/a	n/a	n/a	4	[4, 2, 5]	11	PAL1	2	R1091N
536.875	4.447	1284495	PROB	4447	-999	-999	n/a	n/a	n/a	n/a	4	[7, 5, 5]	17	PAL1	2	R1091N
541.322	0.002	1288942	STOP	n/a	-999	-999	n/a	n/a	n/a	n/a	4	[-999, -999, -999]	-999	PAL1	2	R1091N
541.324	0.0	1288944	MATH_END	n/a	-999	-999	n/a	n/a	n/a	n/a	4	[0, 0, 0]	-999	PAL1	2	R1091N
541.324	0.017	1288944	TEST_START	n/a	-999	-999	n/a	n/a	n/a	n/a	4	[0, 0, 0]	-999	PAL1	2	R1091N
541.341	0.983	1288961	TEST_ORIENT	n/a	3	1	BOWL	n/a	BOWL	FLOOR	4	[0, 0, 0]	-999	PAL1	2	R1091N
542.324	0.001	1289944	TEST_PROBE	n/a	3	1	BOWL	n/a	BOWL	FLOOR	4	[0, 0, 0]	-999	PAL1	2	R1091N
542.325	1.672	1289945	REC_START	n/a	3	-999	n/a	n/a	n/a	n/a	4	[0, 0, 0]	-999	PAL1	2	R1091N
543.997	3.337	1291616	REC_EVENT	1672	3	1	BOWL	<>	BOWL	FLOOR	4	[0, 0, 0]	-999	PAL1	2	R1091N
547.334	0.008	1294953	REC_END	n/a	3	-999	n/a	n/a	n/a	n/a	4	[0, 0, 0]	-999	PAL1	2	R1091N
547.342	0.817	1294961	TEST_ORIENT	n/a	6	2	ROAD	n/a	SLEEVE	ROAD	4	[0, 0, 0]	-999	PAL1	2	R1091N
548.159	0.0	1295778	TEST_PROBE	n/a	6	2	ROAD	n/a	SLEEVE	ROAD	4	[0, 0, 0]	-999	PAL1	2	R1091N
548.159	1.996	1295778	REC_START	n/a	6	-999	n/a	n/a	n/a	n/a	4	[0, 0, 0]	-999	PAL1	2	R1091N
550.155	3.03	1297774	REC_EVENT	1996	6	2	ROAD	<>	SLEEVE	ROAD	4	[0, 0, 0]	-999	PAL1	2	R1091N
553.185	0.008	1300804	REC_END	n/a	6	-999	n/a	n/a	n/a	n/a	4	[0, 0, 0]	-999	PAL1	2	R1091N
553.193	0.967	1300812	TEST_ORIENT	n/a	1	3	RAIN	n/a	RAIN	AXE	4	[0, 0, 0]	-999	PAL1	2	R1091N
554.16	0.0	1301779	TEST_PROBE	n/a	1	3	RAIN	n/a	RAIN	AXE	4	[0, 0, 0]	-999	PAL1	2	R1091N
554.16	1.67	1301779	REC_START	n/a	1	-999	n/a	n/a	n/a	n/a	4	[0, 0, 0]	-999	PAL1	2	R1091N
555.83	3.356	1303449	REC_EVENT	1670	1	3	RAIN	<>	RAIN	AXE	4	[0, 0, 0]	-999	PAL1	2	R1091N
559.186	0.008	1306805	REC_END	n/a	1	-999	n/a	n/a	n/a	n/a	4	[0, 0, 0]	-999	PAL1	2	R1091N
559.194	0.784	1306813	TEST_ORIENT	n/a	2	4	EEL	n/a	EEL	PIE	4	[0, 0, 0]	-999	PAL1	2	R1091N
559.978	0.001	1307597	TEST_PROBE	n/a	2	4	EEL	n/a	EEL	PIE	4	[0, 0, 0]	-999	PAL1	2	R1091N
559.979	1.219	1307598	REC_START	n/a	2	-999	n/a	n/a	n/a	n/a	4	[0, 0, 0]	-999	PAL1	2	R1091N
561.198	3.79	1308817	REC_EVENT	1219	2	4	EEL	<>	EEL	PIE	4	[0, 0, 0]	-999	PAL1	2	R1091N
564.988	0.008	1312607	REC_END	n/a	2	-999	n/a	n/a	n/a	n/a	4	[0, 0, 0]	-999	PAL1	2	R1091N
564.996	0.967	1312615	TEST_ORIENT	n/a	5	5	TANK	n/a	BEAN	TANK	4	[0, 0, 0]	-999	PAL1	2	R1091N
565.963	0.0	1313582	TEST_PROBE	n/a	5	5	TANK	n/a	BEAN	TANK	4	[0, 0, 0]	-999	PAL1	2	R1091N
565.963	2.566	1313582	REC_START	n/a	5	-999	n/a	n/a	n/a	n/a	4	[0, 0, 0]	-999	PAL1	2	R1091N
568.529	2.451	1316148	REC_EVENT	2566	5	5	TANK	<>	BEAN	TANK	4	[0, 0, 0]	-999	PAL1	2	R1091N
570.98	0.017	1318598	REC_END	n/a	5	-999	n/a	n/a	n/a	n/a	4	[0, 0, 0]	-999	PAL1	2	R1091N
570.997	1.017	1318615	TEST_ORIENT	n/a	4	6	SPEAR	n/a	SPEAR	KITE	4	[0, 0, 0]	-999	PAL1	2	R1091N
572.014	0.001	1319632	TEST_PROBE	n/a	4	6	SPEAR	n/a	SPEAR	KITE	4	[0, 0, 0]	-999	PAL1	2	R1091N
572.015	1.164	1319633	REC_START	n/a	4	-999	n/a	n/a	n/a	n/a	4	[0, 0, 0]	-999	PAL1	2	R1091N
573.179	3.852	1320797	REC_EVENT	1164	4	6	SPEAR	<>	SPEAR	KITE	4	[0, 0, 0]	-999	PAL1	2	R1091N
577.031	3.98	1324649	REC_END	n/a	4	-999	n/a	n/a	n/a	n/a	4	[0, 0, 0]	-999	PAL1	2	R1091N
581.011	10.44	1328629	ENCODING_START	n/a	0	-999	n/a	n/a	n/a	n/a	5	[0, 0, 0]	-999	PAL1	2	R1091N
591.451	0.782	1339069	STUDY_ORIENT	n/a	1	1	DEER	MILK	DEER	MILK	5	[0, 0, 0]	-999	PAL1	2	R1091N
592.233	5.034	1339851	STUDY_PAIR	n/a	1	1	DEER	MILK	DEER	MILK	5	[0, 0, 0]	-999	PAL1	2	R1091N
597.267	0.784	1344885	STUDY_ORIENT	n/a	2	4	PET	TRUCK	TRUCK	PET	5	[0, 0, 0]	-999	PAL1	2	R1091N
598.051	5.018	1345669	STUDY_PAIR	n/a	2	4	PET	TRUCK	TRUCK	PET	5	[0, 0, 0]	-999	PAL1	2	R1091N
603.069	0.9	1350686	STUDY_ORIENT	n/a	3	5	POLE	n/a	POLE	INK	5	[0, 0, 0]	-999	PAL1	2	R1091N
603.969	5.018	1351586	STUDY_PAIR	n/a	3	5	POLE	n/a	POLE	INK	5	[0, 0, 0]	-999	PAL1	2	R1091N
608.987	0.833	1356604	STUDY_ORIENT	n/a	4	6	FISH	SEA	FISH	SEA	5	[0, 0, 0]	-999	PAL1	2	R1091N
609.82	5.018	1357437	STUDY_PAIR	n/a	4	6	FISH	SEA	FISH	SEA	5	[0, 0, 0]	-999	PAL1	2	R1091N
614.838	0.967	1362455	STUDY_ORIENT	n/a	5	3	CLOCK	n/a	BANK	CLOCK	5	[0, 0, 0]	-999	PAL1	2	R1091N
615.805	5.034	1363422	STUDY_PAIR	n/a	5	3	CLOCK	n/a	BANK	CLOCK	5	[0, 0, 0]	-999	PAL1	2	R1091N
620.839	0.817	1368456	STUDY_ORIENT	n/a	6	2	TOAST	BOARD	BOARD	TOAST	5	[0, 0, 0]	-999	PAL1	2	R1091N
621.656	4.017	1369273	STUDY_PAIR	n/a	6	2	TOAST	BOARD	BOARD	TOAST	5	[0, 0, 0]	-999	PAL1	2	R1091N
625.673	1.0	1373289	START	n/a	-999	-999	n/a	n/a	n/a	n/a	5	[-999, -999, -999]	-999	PAL1	2	R1091N
626.673	0.017	1374289	MATH_START	n/a	-999	-999	n/a	n/a	n/a	n/a	5	[0, 0, 0]	-999	PAL1	2	R1091N
626.69	6.667	1374306	PROB	6648	-999	-999	n/a	n/a	n/a	n/a	5	[8, 5, 3]	16	PAL1	2	R1091N
633.357	10.202	1380973	PROB	10174	-999	-999	n/a	n/a	n/a	n/a	5	[3, 9, 4]	16	PAL1	2	R1091N
643.559	8.579	1391175	PROB	8579	-999	-999	n/a	n/a	n/a	n/a	5	[9, 2, 3]	14	PAL1	2	R1091N
652.138	0.005	1399754	STOP	n/a	-999	-999	n/a	n/a	n/a	n/a	5	[-999, -999, -999]	-999	PAL1	2	R1091N
652.143	0.0	1399759	MATH_END	n/a	-999	-999	n/a	n/a	n/a	n/a	5	[0, 0, 0]	-999	PAL1	2	R1091N
652.143	0.017	1399759	TEST_START	n/a	-999	-999	n/a	n/a	n/a	n/a	5	[0, 0, 0]	-999	PAL1	2	R1091N
652.16	0.918	1399776	TEST_ORIENT	n/a	1	1	DEER	MILK	DEER	MILK	5	[0, 0, 0]	-999	PAL1	2	R1091N
653.078	0.0	1400693	TEST_PROBE	n/a	1	1	DEER	MILK	DEER	MILK	5	[0, 0, 0]	-999	PAL1	2	R1091N
653.078	0.716	1400693	REC_START	n/a	1	-999	n/a	MILK	n/a	n/a	5	[0, 0, 0]	-999	PAL1	2	R1091N
653.794	0.235	1401409	REC_EVENT	716	1	1	DEER	<>	DEER	MILK	5	[0, 0, 0]	-999	PAL1	2	R1091N
654.029	4.066	1401644	REC_EVENT	951	1	1	DEER	MILK	DEER	MILK	5	[0, 0, 0]	-999	PAL1	2	R1091N
658.095	0.016	1405710	REC_END	n/a	1	-999	n/a	n/a	n/a	n/a	5	[0, 0, 0]	-999	PAL1	2	R1091N
658.111	0.834	1405726	TEST_ORIENT	n/a	6	2	TOAST	BOARD	BOARD	TOAST	5	[0, 0, 0]	-999	PAL1	2	R1091N
658.945	0.001	1406560	TEST_PROBE	n/a	6	2	TOAST	BOARD	BOARD	TOAST	5	[0, 0, 0]	-999	PAL1	2	R1091N
658.946	1.165	1406561	REC_START	n/a	6	-999	n/a	BOARD	n/a	n/a	5	[0, 0, 0]	-999	PAL1	2	R1091N
660.111	0.277	1407726	REC_EVENT	1165	6	2	TOAST	<>	BOARD	TOAST	5	[0, 0, 0]	-999	PAL1	2	R1091N
660.388	3.567	1408003	REC_EVENT	1442	6	2	TOAST	BOARD	BOARD	TOAST	5	[0, 0, 0]	-999	PAL1	2	R1091N
663.955	0.008	1411570	REC_END	n/a	6	-999	n/a	n/a	n/a	n/a	5	[0, 0, 0]	-999	PAL1	2	R1091N
663.963	0.85	1411578	TEST_ORIENT	n/a	5	3	CLOCK	n/a	BANK	CLOCK	5	[0, 0, 0]	-999	PAL1	2	R1091N
664.813	0.0	1412428	TEST_PROBE	n/a	5	3	CLOCK	n/a	BANK	CLOCK	5	[0, 0, 0]	-999	PAL1	2	R1091N
664.813	1.605	1412428	REC_START	n/a	5	-999	n/a	n/a	n/a	n/a	5	[0, 0, 0]	-999	PAL1	2	R1091N
666.418	3.412	1414033	REC_EVENT	1605	5	3	CLOCK	<>	BANK	CLOCK	5	[0, 0, 0]	-999	PAL1	2	R1091N
669.83	0.017	1417445	REC_END	n/a	5	-999	n/a	n/a	n/a	n/a	5	[0, 0, 0]	-999	PAL1	2	R1091N
669.847	0.8	1417462	TEST_ORIENT	n/a	2	4	PET	TRUCK	TRUCK	PET	5	[0, 0, 0]	-999	PAL1	2	R1091N
670.647	0.001	1418262	TEST_PROBE	n/a	2	4	PET	TRUCK	TRUCK	PET	5	[0, 0, 0]	-999	PAL1	2	R1091N
670.648	1.33	1418263	REC_START	n/a	2	-999	n/a	TRUCK	n/a	n/a	5	[0, 0, 0]	-999	PAL1	2	R1091N
671.978	3.679	1419593	REC_EVENT	1330	2	4	PET	TRUCK	TRUCK	PET	5	[0, 0, 0]	-999	PAL1	2	R1091N
675.657	0.008	1423272	REC_END	n/a	2	-999	n/a	n/a	n/a	n/a	5	[0, 0, 0]	-999	PAL1	2	R1091N
675.665	0.867	1423280	TEST_ORIENT	n/a	3	5	POLE	n/a	POLE	INK	5	[0, 0, 0]	-999	PAL1	2	R1091N
676.532	0.0	1424147	REC_START	n/a	3	-999	n/a	n/a	n/a	n/a	5	[0, 0, 0]	-999	PAL1	2	R1091N
676.532	3.08	1424147	TEST_PROBE	n/a	3	5	POLE	n/a	POLE	INK	5	[0, 0, 0]	-999	PAL1	2	R1091N
679.612	1.937	1427227	REC_EVENT	3080	3	5	POLE	<>	POLE	INK	5	[0, 0, 0]	-999	PAL1	2	R1091N
681.549	0.017	1429163	REC_END	n/a	3	-999	n/a	n/a	n/a	n/a	5	[0, 0, 0]	-999	PAL1	2	R1091N
681.566	0.933	1429180	TEST_ORIENT	n/a	4	6	FISH	SEA	FISH	SEA	5	[0, 0, 0]	-999	PAL1	2	R1091N
682.499	0.001	1430113	TEST_PROBE	n/a	4	6	FISH	SEA	FISH	SEA	5	[0, 0, 0]	-999	PAL1	2	R1091N
682.5	1.2	1430114	REC_START	n/a	4	-999	n/a	SEA	n/a	n/a	5	[0, 0, 0]	-999	PAL1	2	R1091N
683.7	3.809	1431314	REC_EVENT	1200	4	6	FISH	SEA	FISH	SEA	5	[0, 0, 0]	-999	PAL1	2	R1091N
687.509	1.613	1435123	REC_END	n/a	4	-999	n/a	n/a	n/a	n/a	5	[0, 0, 0]	-999	PAL1	2	R1091N
689.122	10.447	1436736	ENCODING_START	n/a	0	-999	n/a	n/a	n/a	n/a	6	[0, 0, 0]	-999	PAL1	2	R1091N
699.569	0.833	1447183	STUDY_ORIENT	n/a	1	5	KEY	FOOT	FOOT	KEY	6	[0, 0, 0]	-999	PAL1	2	R1091N
700.402	5.018	1448016	STUDY_PAIR	n/a	1	5	KEY	FOOT	FOOT	KEY	6	[0, 0, 0]	-999	PAL1	2	R1091N
705.42	0.799	1453034	STUDY_ORIENT	n/a	2	4	PURSE	n/a	PURSE	TAIL	6	[0, 0, 0]	-999	PAL1	2	R1091N
706.219	5.034	1453833	STUDY_PAIR	n/a	2	4	PURSE	n/a	PURSE	TAIL	6	[0, 0, 0]	-999	PAL1	2	R1091N
711.253	0.9	1458866	STUDY_ORIENT	n/a	3	3	SNAKE	n/a	SNAKE	HAND	6	[0, 0, 0]	-999	PAL1	2	R1091N
712.153	5.018	1459766	STUDY_PAIR	n/a	3	3	SNAKE	n/a	SNAKE	HAND	6	[0, 0, 0]	-999	PAL1	2	R1091N
717.171	1.0	1464784	STUDY_ORIENT	n/a	4	6	FLEA	FLUSH	FLEA	SLUSH	6	[0, 0, 0]	-999	PAL1	2	R1091N
718.171	5.034	1465784	STUDY_PAIR	n/a	4	6	FLEA	FLUSH	FLEA	SLUSH	6	[0, 0, 0]	-999	PAL1	2	R1091N
723.205	0.967	1470818	STUDY_ORIENT	n/a	5	1	STRAW	n/a	BALL	STRAW	6	[0, 0, 0]	-999	PAL1	2	R1091N
724.172	5.034	1471785	STUDY_PAIR	n/a	5	1	STRAW	n/a	BALL	STRAW	6	[0, 0, 0]	-999	PAL1	2	R1091N
729.206	0.851	1476819	STUDY_ORIENT	n/a	6	2	YARD	BAT	YARD	BAT	6	[0, 0, 0]	-999	PAL1	2	R1091N
730.057	4.001	1477670	STUDY_PAIR	n/a	6	2	YARD	BAT	YARD	BAT	6	[0, 0, 0]	-999	PAL1	2	R1091N
734.058	1.0	1481671	START	n/a	-999	-999	n/a	n/a	n/a	n/a	6	[-999, -999, -999]	-999	PAL1	2	R1091N
735.058	0.017	1482671	MATH_START	n/a	-999	-999	n/a	n/a	n/a	n/a	6	[0, 0, 0]	-999	PAL1	2	R1091N
735.075	5.334	1482688	PROB	5304	-999	-999	n/a	n/a	n/a	n/a	6	[1, 8, 9]	18	PAL1	2	R1091N
740.409	4.101	1488021	PROB	4066	-999	-999	n/a	n/a	n/a	n/a	6	[6, 4, 2]	12	PAL1	2	R1091N
744.51	8.434	1492122	PROB	8413	-999	-999	n/a	n/a	n/a	n/a	6	[7, 4, 8]	19	PAL1	2	R1091N
752.944	6.747	1500556	PROB	6747	-999	-999	n/a	n/a	n/a	n/a	6	[3, 6, 8]	17	PAL1	2	R1091N
759.691	0.005	1507303	STOP	n/a	-999	-999	n/a	n/a	n/a	n/a	6	[-999, -999, -999]	-999	PAL1	2	R1091N
759.696	0.0	1507308	MATH_END	n/a	-999	-999	n/a	n/a	n/a	n/a	6	[0, 0, 0]	-999	PAL1	2	R1091N
759.696	0.016	1507308	TEST_START	n/a	-999	-999	n/a	n/a	n/a	n/a	6	[0, 0, 0]	-999	PAL1	2	R1091N
759.712	1.034	1507324	TEST_ORIENT	n/a	5	1	STRAW	n/a	BALL	STRAW	6	[0, 0, 0]	-999	PAL1	2	R1091N
760.746	0.001	1508358	TEST_PROBE	n/a	5	1	STRAW	n/a	BALL	STRAW	6	[0, 0, 0]	-999	PAL1	2	R1091N
760.747	1.424	1508359	REC_START	n/a	5	-999	n/a	n/a	n/a	n/a	6	[0, 0, 0]	-999	PAL1	2	R1091N
762.171	3.609	1509783	REC_EVENT	1424	5	1	STRAW	<>	BALL	STRAW	6	[0, 0, 0]	-999	PAL1	2	R1091N
765.78	0.017	1513391	REC_END	n/a	5	-999	n/a	n/a	n/a	n/a	6	[0, 0, 0]	-999	PAL1	2	R1091N
765.797	0.85	1513408	TEST_ORIENT	n/a	6	2	YARD	BAT	YARD	BAT	6	[0, 0, 0]	-999	PAL1	2	R1091N
766.647	0.0	1514258	TEST_PROBE	n/a	6	2	YARD	BAT	YARD	BAT	6	[0, 0, 0]	-999	PAL1	2	R1091N
766.647	1.624	1514258	REC_START	n/a	6	-999	n/a	BAT	n/a	n/a	6	[0, 0, 0]	-999	PAL1	2	R1091N
768.271	3.393	1515882	REC_EVENT	1624	6	2	YARD	BAT	YARD	BAT	6	[0, 0, 0]	-999	PAL1	2	R1091N
771.664	0.017	1519275	REC_END	n/a	6	-999	n/a	n/a	n/a	n/a	6	[0, 0, 0]	-999	PAL1	2	R1091N
771.681	0.817	1519292	TEST_ORIENT	n/a	3	3	SNAKE	n/a	SNAKE	HAND	6	[0, 0, 0]	-999	PAL1	2	R1091N
772.498	0.0	1520109	TEST_PROBE	n/a	3	3	SNAKE	n/a	SNAKE	HAND	6	[0, 0, 0]	-999	PAL1	2	R1091N
772.498	2.571	1520109	REC_START	n/a	3	-999	n/a	n/a	n/a	n/a	6	[0, 0, 0]	-999	PAL1	2	R1091N
775.069	2.446	1522680	REC_EVENT	2571	3	3	SNAKE	<>	SNAKE	HAND	6	[0, 0, 0]	-999	PAL1	2	R1091N
777.515	0.017	1525126	REC_END	n/a	3	-999	n/a	n/a	n/a	n/a	6	[0, 0, 0]	-999	PAL1	2	R1091N
777.532	0.933	1525143	TEST_ORIENT	n/a	2	4	PURSE	n/a	PURSE	TAIL	6	[0, 0, 0]	-999	PAL1	2	R1091N
778.465	0.0	1526076	TEST_PROBE	n/a	2	4	PURSE	n/a	PURSE	TAIL	6	[0, 0, 0]	-999	PAL1	2	R1091N
778.465	2.785	1526076	REC_START	n/a	2	-999	n/a	n/a	n/a	n/a	6	[0, 0, 0]	-999	PAL1	2	R1091N
781.25	2.233	1528861	REC_EVENT	2785	2	4	PURSE	<>	PURSE	TAIL	6	[0, 0, 0]	-999	PAL1	2	R1091N
783.483	0.017	1531094	REC_END	n/a	2	-999	n/a	n/a	n/a	n/a	6	[0, 0, 0]	-999	PAL1	2	R1091N
783.5	0.966	1531111	TEST_ORIENT	n/a	1	5	KEY	FOOT	FOOT	KEY	6	[0, 0, 0]	-999	PAL1	2	R1091N
784.466	0.001	1532077	TEST_PROBE	n/a	1	5	KEY	FOOT	FOOT	KEY	6	[0, 0, 0]	-999	PAL1	2	R1091N
784.467	1.139	1532078	REC_START	n/a	1	-999	n/a	FOOT	n/a	n/a	6	[0, 0, 0]	-999	PAL1	2	R1091N
785.606	0.303	1533217	REC_EVENT	1139	1	5	KEY	KEY	FOOT	KEY	6	[0, 0, 0]	-999	PAL1	2	R1091N
785.909	3.567	1533520	REC_EVENT	1442	1	5	KEY	FOOT	FOOT	KEY	6	[0, 0, 0]	-999	PAL1	2	R1091N
789.476	0.008	1537087	REC_END	n/a	1	-999	n/a	n/a	n/a	n/a	6	[0, 0, 0]	-999	PAL1	2	R1091N
789.484	0.832	1537095	TEST_ORIENT	n/a	4	6	FLEA	FLUSH	FLEA	SLUSH	6	[0, 0, 0]	-999	PAL1	2	R1091N
790.316	0.001	1537926	TEST_PROBE	n/a	4	6	FLEA	FLUSH	FLEA	SLUSH	6	[0, 0, 0]	-999	PAL1	2	R1091N
790.317	3.064	1537927	REC_START	n/a	4	-999	n/a	FLUSH	n/a	n/a	6	[0, 0, 0]	-999	PAL1	2	R1091N
793.381	1.948	1540991	REC_EVENT	3064	4	6	FLEA	FLUSH	FLEA	SLUSH	6	[0, 0, 0]	-999	PAL1	2	R1091N
795.329	1.722	1542939	REC_END	n/a	4	-999	n/a	n/a	n/a	n/a	6	[0, 0, 0]	-999	PAL1	2	R1091N
797.051	10.453	1544661	ENCODING_START	n/a	0	-999	n/a	n/a	n/a	n/a	7	[0, 0, 0]	-999	PAL1	2	R1091N
807.504	0.966	1555114	STUDY_ORIENT	n/a	1	3	PIN	OAK	OAK	PIN	7	[0, 0, 0]	-999	PAL1	2	R1091N
808.47	5.018	1556080	STUDY_PAIR	n/a	1	3	PIN	OAK	OAK	PIN	7	[0, 0, 0]	-999	PAL1	2	R1091N
813.488	0.934	1561098	STUDY_ORIENT	n/a	2	2	DIME	n/a	BADGE	DIME	7	[0, 0, 0]	-999	PAL1	2	R1091N
814.422	5.034	1562032	STUDY_PAIR	n/a	2	2	DIME	n/a	BADGE	DIME	7	[0, 0, 0]	-999	PAL1	2	R1091N
819.456	1.0	1567065	STUDY_ORIENT	n/a	3	5	HOOF	n/a	HOOF	WOLF	7	[0, 0, 0]	-999	PAL1	2	R1091N
820.456	5.034	1568065	STUDY_PAIR	n/a	3	5	HOOF	n/a	HOOF	WOLF	7	[0, 0, 0]	-999	PAL1	2	R1091N
825.49	0.783	1573099	STUDY_ORIENT	n/a	4	4	CAKE	n/a	CAKE	HAT	7	[0, 0, 0]	-999	PAL1	2	R1091N
826.273	5.034	1573882	STUDY_PAIR	n/a	4	4	CAKE	n/a	CAKE	HAT	7	[0, 0, 0]	-999	PAL1	2	R1091N
831.307	1.0	1578916	STUDY_ORIENT	n/a	5	1	BOMB	n/a	SHEET	BOMB	7	[0, 0, 0]	-999	PAL1	2	R1091N
832.307	5.034	1579916	STUDY_PAIR	n/a	5	1	BOMB	n/a	SHEET	BOMB	7	[0, 0, 0]	-999	PAL1	2	R1091N
837.341	0.917	1584950	STUDY_ORIENT	n/a	6	6	ZOO	n/a	SPOON	ZOO	7	[0, 0, 0]	-999	PAL1	2	R1091N
838.258	4.001	1585867	STUDY_PAIR	n/a	6	6	ZOO	n/a	SPOON	ZOO	7	[0, 0, 0]	-999	PAL1	2	R1091N
842.259	0.999	1589868	START	n/a	-999	-999	n/a	n/a	n/a	n/a	7	[-999, -999, -999]	-999	PAL1	2	R1091N
843.258	0.017	1590867	MATH_START	n/a	-999	-999	n/a	n/a	n/a	n/a	7	[0, 0, 0]	-999	PAL1	2	R1091N
843.275	8.703	1590884	PROB	8680	-999	-999	n/a	n/a	n/a	n/a	7	[9, 5, 4]	18	PAL1	2	R1091N
851.978	5.101	1599586	PROB	5073	-999	-999	n/a	n/a	n/a	n/a	7	[1, 6, 1]	8	PAL1	2	R1091N
857.079	3.116	1604687	PROB	3091	-999	-999	n/a	n/a	n/a	n/a	7	[7, 1, 1]	9	PAL1	2	R1091N
860.195	9.536	1607803	PROB	9536	-999	-999	n/a	n/a	n/a	n/a	7	[4, 9, 2]	15	PAL1	2	R1091N
869.731	0.017	1617339	STOP	n/a	-999	-999	n/a	n/a	n/a	n/a	7	[-999, -999, -999]	-999	PAL1	2	R1091N
869.748	0.0	1617356	MATH_END	n/a	-999	-999	n/a	n/a	n/a	n/a	7	[0, 0, 0]	-999	PAL1	2	R1091N
869.748	0.016	1617356	TEST_START	n/a	-999	-999	n/a	n/a	n/a	n/a	7	[0, 0, 0]	-999	PAL1	2	R1091N
869.764	0.8	1617372	TEST_ORIENT	n/a	5	1	BOMB	n/a	SHEET	BOMB	7	[0, 0, 0]	-999	PAL1	2	R1091N
870.564	0.001	1618172	TEST_PROBE	n/a	5	1	BOMB	n/a	SHEET	BOMB	7	[0, 0, 0]	-999	PAL1	2	R1091N
870.565	1.906	1618173	REC_START	n/a	5	-999	n/a	n/a	n/a	n/a	7	[0, 0, 0]	-999	PAL1	2	R1091N
872.471	3.103	1620078	REC_EVENT	1906	5	1	BOMB	<>	SHEET	BOMB	7	[0, 0, 0]	-999	PAL1	2	R1091N
875.574	0.008	1623181	REC_END	n/a	5	-999	n/a	n/a	n/a	n/a	7	[0, 0, 0]	-999	PAL1	2	R1091N
875.582	0.983	1623189	TEST_ORIENT	n/a	2	2	DIME	n/a	BADGE	DIME	7	[0, 0, 0]	-999	PAL1	2	R1091N
876.565	0.001	1624172	TEST_PROBE	n/a	2	2	DIME	n/a	BADGE	DIME	7	[0, 0, 0]	-999	PAL1	2	R1091N
876.566	2.494	1624173	REC_START	n/a	2	-999	n/a	n/a	n/a	n/a	7	[0, 0, 0]	-999	PAL1	2	R1091N
879.06	2.515	1626667	REC_EVENT	2494	2	2	DIME	<>	BADGE	DIME	7	[0, 0, 0]	-999	PAL1	2	R1091N
881.575	0.008	1629182	REC_END	n/a	2	-999	n/a	n/a	n/a	n/a	7	[0, 0, 0]	-999	PAL1	2	R1091N
881.583	0.967	1629190	TEST_ORIENT	n/a	1	3	PIN	OAK	OAK	PIN	7	[0, 0, 0]	-999	PAL1	2	R1091N
882.55	0.0	1630157	TEST_PROBE	n/a	1	3	PIN	OAK	OAK	PIN	7	[0, 0, 0]	-999	PAL1	2	R1091N
882.55	2.235	1630157	REC_START	n/a	1	-999	n/a	OAK	n/a	n/a	7	[0, 0, 0]	-999	PAL1	2	R1091N
884.785	0.19	1632392	REC_EVENT	2235	1	3	PIN	<>	OAK	PIN	7	[0, 0, 0]	-999	PAL1	2	R1091N
884.975	2.592	1632582	REC_EVENT	2425	1	3	PIN	OAK	OAK	PIN	7	[0, 0, 0]	-999	PAL1	2	R1091N
887.567	0.017	1635174	REC_END	n/a	1	-999	n/a	n/a	n/a	n/a	7	[0, 0, 0]	-999	PAL1	2	R1091N
887.584	0.883	1635191	TEST_ORIENT	n/a	4	4	CAKE	n/a	CAKE	HAT	7	[0, 0, 0]	-999	PAL1	2	R1091N
888.467	0.001	1636074	TEST_PROBE	n/a	4	4	CAKE	n/a	CAKE	HAT	7	[0, 0, 0]	-999	PAL1	2	R1091N
888.468	5.009	1636075	REC_START	n/a	4	-999	n/a	n/a	n/a	n/a	7	[0, 0, 0]	-999	PAL1	2	R1091N
893.477	0.0	1641084	REC_EVENT	5009	4	4	CAKE	<>	CAKE	HAT	7	[0, 0, 0]	-999	PAL1	2	R1091N
893.477	0.008	1641084	REC_END	n/a	4	-999	n/a	n/a	n/a	n/a	7	[0, 0, 0]	-999	PAL1	2	R1091N
893.485	0.816	1641092	TEST_ORIENT	n/a	3	5	HOOF	n/a	HOOF	WOLF	7	[0, 0, 0]	-999	PAL1	2	R1091N
894.301	0.0	1641908	REC_START	n/a	3	-999	n/a	n/a	n/a	n/a	7	[0, 0, 0]	-999	PAL1	2	R1091N
894.301	5.015	1641908	TEST_PROBE	n/a	3	5	HOOF	n/a	HOOF	WOLF	7	[0, 0, 0]	-999	PAL1	2	R1091N
899.316	0.002	1646923	REC_EVENT	5015	3	5	HOOF	<>	HOOF	WOLF	7	[0, 0, 0]	-999	PAL1	2	R1091N
899.318	0.017	1646925	REC_END	n/a	3	-999	n/a	n/a	n/a	n/a	7	[0, 0, 0]	-999	PAL1	2	R1091N
899.335	0.983	1646942	TEST_ORIENT	n/a	6	6	ZOO	n/a	SPOON	ZOO	7	[0, 0, 0]	-999	PAL1	2	R1091N
900.318	0.001	1647924	TEST_PROBE	n/a	6	6	ZOO	n/a	SPOON	ZOO	7	[0, 0, 0]	-999	PAL1	2	R1091N
900.319	5.009	1647925	REC_START	n/a	6	-999	n/a	n/a	n/a	n/a	7	[0, 0, 0]	-999	PAL1	2	R1091N
905.328	0.0	1652934	REC_EVENT	5009	6	6	ZOO	<>	SPOON	ZOO	7	[0, 0, 0]	-999	PAL1	2	R1091N
905.328	5.826	1652934	REC_END	n/a	6	-999	n/a	n/a	n/a	n/a	7	[0, 0, 0]	-999	PAL1	2	R1091N
911.154	10.452	1658760	ENCODING_START	n/a	0	-999	n/a	n/a	n/a	n/a	8	[0, 0, 0]	-999	PAL1	2	R1091N
921.606	0.817	1669212	STUDY_ORIENT	n/a	1	1	CHAIR	CHAIR	BOAT	CHAIR	8	[0, 0, 0]	-999	PAL1	2	R1091N
922.423	5.034	1670029	STUDY_PAIR	n/a	1	1	CHAIR	CHAIR	BOAT	CHAIR	8	[0, 0, 0]	-999	PAL1	2	R1091N
927.457	1.001	1675062	STUDY_ORIENT	n/a	2	2	HEART	ARM	HEART	PALM	8	[0, 0, 0]	-999	PAL1	2	R1091N
928.458	5.034	1676063	STUDY_PAIR	n/a	2	2	HEART	ARM	HEART	PALM	8	[0, 0, 0]	-999	PAL1	2	R1091N
933.492	0.9	1681097	STUDY_ORIENT	n/a	3	3	ARM	HEART	OWL	ARM	8	[0, 0, 0]	-999	PAL1	2	R1091N
934.392	5.034	1681997	STUDY_PAIR	n/a	3	3	ARM	HEART	OWL	ARM	8	[0, 0, 0]	-999	PAL1	2	R1091N
939.426	0.983	1687031	STUDY_ORIENT	n/a	4	4	BOOK	n/a	HOOK	BOOK	8	[0, 0, 0]	-999	PAL1	2	R1091N
940.409	5.018	1688014	STUDY_PAIR	n/a	4	4	BOOK	n/a	HOOK	BOOK	8	[0, 0, 0]	-999	PAL1	2	R1091N
945.427	0.883	1693032	STUDY_ORIENT	n/a	5	5	SMILE	FUR	FUR	SMILE	8	[0, 0, 0]	-999	PAL1	2	R1091N
946.31	5.034	1693915	STUDY_PAIR	n/a	5	5	SMILE	FUR	FUR	SMILE	8	[0, 0, 0]	-999	PAL1	2	R1091N
951.344	0.9	1698949	STUDY_ORIENT	n/a	6	6	CLOTH	n/a	ROOM	CLOTH	8	[0, 0, 0]	-999	PAL1	2	R1091N
952.244	4.018	1699849	STUDY_PAIR	n/a	6	6	CLOTH	n/a	ROOM	CLOTH	8	[0, 0, 0]	-999	PAL1	2	R1091N
956.262	0.999	1703866	START	n/a	-999	-999	n/a	n/a	n/a	n/a	8	[-999, -999, -999]	-999	PAL1	2	R1091N
957.261	0.017	1704865	MATH_START	n/a	-999	-999	n/a	n/a	n/a	n/a	8	[0, 0, 0]	-999	PAL1	2	R1091N
957.278	6.685	1704882	PROB	6661	-999	-999	n/a	n/a	n/a	n/a	8	[9, 2, 3]	14	PAL1	2	R1091N
963.963	10.502	1711567	PROB	10472	-999	-999	n/a	n/a	n/a	n/a	8	[7, 9, 4]	21	PAL1	2	R1091N
974.465	5.954	1722069	PROB	5954	-999	-999	n/a	n/a	n/a	n/a	8	[7, 7, 6]	20	PAL1	2	R1091N
980.419	0.014	1728023	STOP	n/a	-999	-999	n/a	n/a	n/a	n/a	8	[-999, -999, -999]	-999	PAL1	2	R1091N
980.433	0.0	1728037	MATH_END	n/a	-999	-999	n/a	n/a	n/a	n/a	8	[0, 0, 0]	-999	PAL1	2	R1091N
980.433	0.017	1728037	TEST_START	n/a	-999	-999	n/a	n/a	n/a	n/a	8	[0, 0, 0]	-999	PAL1	2	R1091N
980.45	0.933	1728054	TEST_ORIENT	n/a	1	1	CHAIR	CHAIR	BOAT	CHAIR	8	[0, 0, 0]	-999	PAL1	2	R1091N
981.383	0.0	1728987	TEST_PROBE	n/a	1	1	CHAIR	CHAIR	BOAT	CHAIR	8	[0, 0, 0]	-999	PAL1	2	R1091N
981.383	1.95	1728987	REC_START	n/a	1	-999	n/a	CHAIR	n/a	n/a	8	[0, 0, 0]	-999	PAL1	2	R1091N
983.333	0.66	1730936	REC_EVENT	1950	1	1	CHAIR	BOAT	BOAT	CHAIR	8	[0, 0, 0]	-999	PAL1	2	R1091N
983.993	0.29	1731596	REC_EVENT	2610	1	1	CHAIR	BOAT	BOAT	CHAIR	8	[0, 0, 0]	-999	PAL1	2	R1091N
984.283	2.12	1731886	REC_EVENT	2900	1	1	CHAIR	CHAIR	BOAT	CHAIR	8	[0, 0, 0]	-999	PAL1	2	R1091N
986.403	0.014	1734006	REC_END	n/a	1	-999	n/a	n/a	n/a	n/a	8	[0, 0, 0]	-999	PAL1	2	R1091N
986.417	0.899	1734020	TEST_ORIENT	n/a	2	2	HEART	ARM	HEART	PALM	8	[0, 0, 0]	-999	PAL1	2	R1091N
987.316	0.001	1734919	TEST_PROBE	n/a	2	2	HEART	ARM	HEART	PALM	8	[0, 0, 0]	-999	PAL1	2	R1091N
987.317	2.015	1734920	REC_START	n/a	2	-999	n/a	ARM	n/a	n/a	8	[0, 0, 0]	-999	PAL1	2	R1091N
989.332	0.324	1736935	REC_EVENT	2015	2	2	HEART	HEAT	HEART	PALM	8	[0, 0, 0]	-999	PAL1	2	R1091N
989.656	2.67	1737259	REC_EVENT	2339	2	2	HEART	ARM	HEART	PALM	8	[0, 0, 0]	-999	PAL1	2	R1091N
992.326	0.008	1739929	REC_END	n/a	2	-999	n/a	n/a	n/a	n/a	8	[0, 0, 0]	-999	PAL1	2	R1091N
992.334	0.966	1739937	TEST_ORIENT	n/a	3	3	ARM	HEART	OWL	ARM	8	[0, 0, 0]	-999	PAL1	2	R1091N
993.3	0.001	1740903	TEST_PROBE	n/a	3	3	ARM	HEART	OWL	ARM	8	[0, 0, 0]	-999	PAL1	2	R1091N
993.301	1.513	1740904	REC_START	n/a	3	-999	n/a	HEART	n/a	n/a	8	[0, 0, 0]	-999	PAL1	2	R1091N
994.814	3.496	1742417	REC_EVENT	1513	3	3	ARM	HEART	OWL	ARM	8	[0, 0, 0]	-999	PAL1	2	R1091N
998.31	0.008	1745913	REC_END	n/a	3	-999	n/a	n/a	n/a	n/a	8	[0, 0, 0]	-999	PAL1	2	R1091N
998.318	0.951	1745921	TEST_ORIENT	n/a	4	4	BOOK	n/a	HOOK	BOOK	8	[0, 0, 0]	-999	PAL1	2	R1091N
999.269	0.0	1746872	TEST_PROBE	n/a	4	4	BOOK	n/a	HOOK	BOOK	8	[0, 0, 0]	-999	PAL1	2	R1091N
999.269	4.38	1746872	REC_START	n/a	4	-999	n/a	n/a	n/a	n/a	8	[0, 0, 0]	-999	PAL1	2	R1091N
1003.649	0.637	1751252	REC_EVENT	4380	4	4	BOOK	<>	HOOK	BOOK	8	[0, 0, 0]	-999	PAL1	2	R1091N
1004.286	0.017	1751889	REC_END	n/a	4	-999	n/a	n/a	n/a	n/a	8	[0, 0, 0]	-999	PAL1	2	R1091N
1004.303	0.866	1751906	TEST_ORIENT	n/a	5	5	SMILE	FUR	FUR	SMILE	8	[0, 0, 0]	-999	PAL1	2	R1091N
1005.169	0.001	1752772	TEST_PROBE	n/a	5	5	SMILE	FUR	FUR	SMILE	8	[0, 0, 0]	-999	PAL1	2	R1091N
1005.17	1.241	1752773	REC_START	n/a	5	-999	n/a	FUR	n/a	n/a	8	[0, 0, 0]	-999	PAL1	2	R1091N
1006.411	3.768	1754014	REC_EVENT	1241	5	5	SMILE	FUR	FUR	SMILE	8	[0, 0, 0]	-999	PAL1	2	R1091N
1010.179	0.008	1757781	REC_END	n/a	5	-999	n/a	n/a	n/a	n/a	8	[0, 0, 0]	-999	PAL1	2	R1091N
1010.187	0.918	1757789	TEST_ORIENT	n/a	6	6	CLOTH	n/a	ROOM	CLOTH	8	[0, 0, 0]	-999	PAL1	2	R1091N
1011.105	0.0	1758707	REC_START	n/a	6	-999	n/a	n/a	n/a	n/a	8	[0, 0, 0]	-999	PAL1	2	R1091N
1011.105	1.971	1758707	TEST_PROBE	n/a	6	6	CLOTH	n/a	ROOM	CLOTH	8	[0, 0, 0]	-999	PAL1	2	R1091N
1013.076	3.045	1760678	REC_EVENT	1971	6	6	CLOTH	<>	ROOM	CLOTH	8	[0, 0, 0]	-999	PAL1	2	R1091N
1016.121	1.626	1763723	REC_END	n/a	6	-999	n/a	n/a	n/a	n/a	8	[0, 0, 0]	-999	PAL1	2	R1091N
1017.747	10.443	1765349	ENCODING_START	n/a	0	-999	n/a	n/a	n/a	n/a	9	[0, 0, 0]	-999	PAL1	2	R1091N
1028.19	0.95	1775792	STUDY_ORIENT	n/a	1	1	RUG	PET	CUP	RUG	9	[0, 0, 0]	-999	PAL1	2	R1091N
1029.14	5.018	1776742	STUDY_PAIR	n/a	1	1	RUG	PET	CUP	RUG	9	[0, 0, 0]	-999	PAL1	2	R1091N
1034.158	0.918	1781760	STUDY_ORIENT	n/a	2	2	PRINCE	n/a	PEACH	PRINCE	9	[0, 0, 0]	-999	PAL1	2	R1091N
1035.076	5.033	1782678	STUDY_PAIR	n/a	2	2	PRINCE	n/a	PEACH	PRINCE	9	[0, 0, 0]	-999	PAL1	2	R1091N
1040.109	0.851	1787710	STUDY_ORIENT	n/a	3	5	BRUSH	n/a	BRUSH	SHELL	9	[0, 0, 0]	-999	PAL1	2	R1091N
1040.96	5.034	1788561	STUDY_PAIR	n/a	3	5	BRUSH	n/a	BRUSH	SHELL	9	[0, 0, 0]	-999	PAL1	2	R1091N
1045.994	0.8	1793595	STUDY_ORIENT	n/a	4	4	COW	n/a	SKY	COW	9	[0, 0, 0]	-999	PAL1	2	R1091N
1046.794	5.018	1794395	STUDY_PAIR	n/a	4	4	COW	n/a	SKY	COW	9	[0, 0, 0]	-999	PAL1	2	R1091N
1051.812	0.966	1799413	STUDY_ORIENT	n/a	5	3	STRING	n/a	WOOD	STRING	9	[0, 0, 0]	-999	PAL1	2	R1091N
1052.778	5.018	1800379	STUDY_PAIR	n/a	5	3	STRING	n/a	WOOD	STRING	9	[0, 0, 0]	-999	PAL1	2	R1091N
1057.796	1.0	1805397	STUDY_ORIENT	n/a	6	6	VINE	n/a	VINE	STAR	9	[0, 0, 0]	-999	PAL1	2	R1091N
1058.796	4.001	1806397	STUDY_PAIR	n/a	6	6	VINE	n/a	VINE	STAR	9	[0, 0, 0]	-999	PAL1	2	R1091N
1062.797	1.0	1810398	START	n/a	-999	-999	n/a	n/a	n/a	n/a	9	[-999, -999, -999]	-999	PAL1	2	R1091N
1063.797	0.017	1811398	MATH_START	n/a	-999	-999	n/a	n/a	n/a	n/a	9	[0, 0, 0]	-999	PAL1	2	R1091N
1063.814	4.834	1811415	PROB	4805	-999	-999	n/a	n/a	n/a	n/a	9	[4, 2, 4]	10	PAL1	2	R1091N
1068.648	5.184	1816248	PROB	5155	-999	-999	n/a	n/a	n/a	n/a	9	[2, 4, 4]	10	PAL1	2	R1091N
1073.832	10.091	1821432	PROB	10091	-999	-999	n/a	n/a	n/a	n/a	9	[2, 9, 3]	14	PAL1	2	R1091N
1083.923	0.011	1831523	STOP	n/a	-999	-999	n/a	n/a	n/a	n/a	9	[-999, -999, -999]	-999	PAL1	2	R1091N
1083.934	0.0	1831534	MATH_END	n/a	-999	-999	n/a	n/a	n/a	n/a	9	[0, 0, 0]	-999	PAL1	2	R1091N
1083.934	0.017	1831534	TEST_START	n/a	-999	-999	n/a	n/a	n/a	n/a	9	[0, 0, 0]	-999	PAL1	2	R1091N
1083.951	0.883	1831551	TEST_ORIENT	n/a	1	1	RUG	PET	CUP	RUG	9	[0, 0, 0]	-999	PAL1	2	R1091N
1084.834	0.0	1832434	TEST_PROBE	n/a	1	1	RUG	PET	CUP	RUG	9	[0, 0, 0]	-999	PAL1	2	R1091N
1084.834	1.464	1832434	REC_START	n/a	1	-999	n/a	PET	n/a	n/a	9	[0, 0, 0]	-999	PAL1	2	R1091N
1086.298	0.52	1833898	REC_EVENT	1464	1	1	RUG	<>	CUP	RUG	9	[0, 0, 0]	-999	PAL1	2	R1091N
1086.818	3.033	1834418	REC_EVENT	1984	1	1	RUG	PET	CUP	RUG	9	[0, 0, 0]	-999	PAL1	2	R1091N
1089.851	0.017	1837451	REC_END	n/a	1	-999	n/a	n/a	n/a	n/a	9	[0, 0, 0]	-999	PAL1	2	R1091N
1089.868	0.9	1837468	TEST_ORIENT	n/a	2	2	PRINCE	n/a	PEACH	PRINCE	9	[0, 0, 0]	-999	PAL1	2	R1091N
1090.768	0.001	1838368	TEST_PROBE	n/a	2	2	PRINCE	n/a	PEACH	PRINCE	9	[0, 0, 0]	-999	PAL1	2	R1091N
1090.769	3.212	1838369	REC_START	n/a	2	-999	n/a	n/a	n/a	n/a	9	[0, 0, 0]	-999	PAL1	2	R1091N
1093.981	1.797	1841580	REC_EVENT	3212	2	2	PRINCE	<>	PEACH	PRINCE	9	[0, 0, 0]	-999	PAL1	2	R1091N
1095.778	0.008	1843377	REC_END	n/a	2	-999	n/a	n/a	n/a	n/a	9	[0, 0, 0]	-999	PAL1	2	R1091N
1095.786	0.967	1843385	TEST_ORIENT	n/a	5	3	STRING	n/a	WOOD	STRING	9	[0, 0, 0]	-999	PAL1	2	R1091N
1096.753	0.0	1844352	TEST_PROBE	n/a	5	3	STRING	n/a	WOOD	STRING	9	[0, 0, 0]	-999	PAL1	2	R1091N
1096.753	2.078	1844352	REC_START	n/a	5	-999	n/a	n/a	n/a	n/a	9	[0, 0, 0]	-999	PAL1	2	R1091N
1098.831	2.939	1846430	REC_EVENT	2078	5	3	STRING	<>	WOOD	STRING	9	[0, 0, 0]	-999	PAL1	2	R1091N
1101.77	0.017	1849369	REC_END	n/a	5	-999	n/a	n/a	n/a	n/a	9	[0, 0, 0]	-999	PAL1	2	R1091N
1101.787	1.017	1849386	TEST_ORIENT	n/a	4	4	COW	n/a	SKY	COW	9	[0, 0, 0]	-999	PAL1	2	R1091N
1102.804	0.0	1850403	REC_START	n/a	4	-999	n/a	n/a	n/a	n/a	9	[0, 0, 0]	-999	PAL1	2	R1091N
1102.804	1.745	1850403	TEST_PROBE	n/a	4	4	COW	n/a	SKY	COW	9	[0, 0, 0]	-999	PAL1	2	R1091N
1104.549	3.272	1852148	REC_EVENT	1745	4	4	COW	<>	SKY	COW	9	[0, 0, 0]	-999	PAL1	2	R1091N
1107.821	0.017	1855420	REC_END	n/a	4	-999	n/a	n/a	n/a	n/a	9	[0, 0, 0]	-999	PAL1	2	R1091N
1107.838	1.017	1855437	TEST_ORIENT	n/a	3	5	BRUSH	n/a	BRUSH	SHELL	9	[0, 0, 0]	-999	PAL1	2	R1091N
1108.855	0.0	1856454	TEST_PROBE	n/a	3	5	BRUSH	n/a	BRUSH	SHELL	9	[0, 0, 0]	-999	PAL1	2	R1091N
1108.855	2.407	1856454	REC_START	n/a	3	-999	n/a	n/a	n/a	n/a	9	[0, 0, 0]	-999	PAL1	2	R1091N
1111.262	2.61	1858861	REC_EVENT	2407	3	5	BRUSH	<>	BRUSH	SHELL	9	[0, 0, 0]	-999	PAL1	2	R1091N
1113.872	0.017	1861471	REC_END	n/a	3	-999	n/a	n/a	n/a	n/a	9	[0, 0, 0]	-999	PAL1	2	R1091N
1113.889	0.933	1861488	TEST_ORIENT	n/a	6	6	VINE	n/a	VINE	STAR	9	[0, 0, 0]	-999	PAL1	2	R1091N
1114.822	0.001	1862421	TEST_PROBE	n/a	6	6	VINE	n/a	VINE	STAR	9	[0, 0, 0]	-999	PAL1	2	R1091N
1114.823	2.46	1862422	REC_START	n/a	6	-999	n/a	n/a	n/a	n/a	9	[0, 0, 0]	-999	PAL1	2	R1091N
1117.283	2.549	1864882	REC_EVENT	2460	6	6	VINE	<>	VINE	STAR	9	[0, 0, 0]	-999	PAL1	2	R1091N
1119.832	1.707	1867430	REC_END	n/a	6	-999	n/a	n/a	n/a	n/a	9	[0, 0, 0]	-999	PAL1	2	R1091N
1121.539	10.453	1869137	ENCODING_START	n/a	0	-999	n/a	n/a	n/a	n/a	10	[0, 0, 0]	-999	PAL1	2	R1091N
1131.992	0.95	1879590	STUDY_ORIENT	n/a	1	5	FENCE	n/a	TRAY	FENCE	10	[0, 0, 0]	-999	PAL1	2	R1091N
1132.942	5.034	1880540	STUDY_PAIR	n/a	1	5	FENCE	n/a	TRAY	FENCE	10	[0, 0, 0]	-999	PAL1	2	R1091N
1137.976	1.0	1885574	STUDY_ORIENT	n/a	2	6	JAIL	SKUNK	SKUNK	JAIL	10	[0, 0, 0]	-999	PAL1	2	R1091N
1138.976	5.018	1886574	STUDY_PAIR	n/a	2	6	JAIL	SKUNK	SKUNK	JAIL	10	[0, 0, 0]	-999	PAL1	2	R1091N
1143.994	1.0	1891592	STUDY_ORIENT	n/a	3	1	LEG	n/a	ICE	LEG	10	[0, 0, 0]	-999	PAL1	2	R1091N
1144.994	5.034	1892592	STUDY_PAIR	n/a	3	1	LEG	n/a	ICE	LEG	10	[0, 0, 0]	-999	PAL1	2	R1091N
1150.028	0.984	1897625	STUDY_ORIENT	n/a	4	4	SOCK	n/a	SOCK	GLOVE	10	[0, 0, 0]	-999	PAL1	2	R1091N
1151.012	5.034	1898609	STUDY_PAIR	n/a	4	4	SOCK	n/a	SOCK	GLOVE	10	[0, 0, 0]	-999	PAL1	2	R1091N
1156.046	0.833	1903643	STUDY_ORIENT	n/a	5	3	PARK	n/a	DRESS	PARK	10	[0, 0, 0]	-999	PAL1	2	R1091N
1156.879	5.018	1904476	STUDY_PAIR	n/a	5	3	PARK	n/a	DRESS	PARK	10	[0, 0, 0]	-999	PAL1	2	R1091N
1161.897	1.0	1909494	STUDY_ORIENT	n/a	6	2	SEED	n/a	VASE	SEED	10	[0, 0, 0]	-999	PAL1	2	R1091N
1162.897	4.018	1910494	STUDY_PAIR	n/a	6	2	SEED	n/a	VASE	SEED	10	[0, 0, 0]	-999	PAL1	2	R1091N
1166.915	1.0	1914512	START	n/a	-999	-999	n/a	n/a	n/a	n/a	10	[-999, -999, -999]	-999	PAL1	2	R1091N
1167.915	0.016	1915512	MATH_START	n/a	-999	-999	n/a	n/a	n/a	n/a	10	[0, 0, 0]	-999	PAL1	2	R1091N
1167.931	6.518	1915528	PROB	6496	-999	-999	n/a	n/a	n/a	n/a	10	[4, 4, 1]	9	PAL1	2	R1091N
1174.449	6.251	1922045	PROB	6218	-999	-999	n/a	n/a	n/a	n/a	10	[5, 8, 6]	19	PAL1	2	R1091N
1180.7	17.679	1928296	PROB	17679	-999	-999	n/a	n/a	n/a	n/a	10	[8, 9, 6]	24	PAL1	2	R1091N
1198.379	0.007	1945975	STOP	n/a	-999	-999	n/a	n/a	n/a	n/a	10	[-999, -999, -999]	-999	PAL1	2	R1091N
1198.386	0.0	1945982	TEST_START	n/a	-999	-999	n/a	n/a	n/a	n/a	10	[0, 0, 0]	-999	PAL1	2	R1091N
1198.386	0.017	1945982	MATH_END	n/a	-999	-999	n/a	n/a	n/a	n/a	10	[0, 0, 0]	-999	PAL1	2	R1091N
1198.403	0.799	1945999	TEST_ORIENT	n/a	3	1	LEG	n/a	ICE	LEG	10	[0, 0, 0]	-999	PAL1	2	R1091N
1199.202	0.001	1946798	TEST_PROBE	n/a	3	1	LEG	n/a	ICE	LEG	10	[0, 0, 0]	-999	PAL1	2	R1091N
1199.203	2.127	1946799	REC_START	n/a	3	-999	n/a	n/a	n/a	n/a	10	[0, 0, 0]	-999	PAL1	2	R1091N
1201.33	2.882	1948925	REC_EVENT	2127	3	1	LEG	<>	ICE	LEG	10	[0, 0, 0]	-999	PAL1	2	R1091N
1204.212	0.008	1951807	REC_END	n/a	3	-999	n/a	n/a	n/a	n/a	10	[0, 0, 0]	-999	PAL1	2	R1091N
1204.22	0.834	1951815	TEST_ORIENT	n/a	6	2	SEED	n/a	VASE	SEED	10	[0, 0, 0]	-999	PAL1	2	R1091N
1205.054	0.001	1952649	TEST_PROBE	n/a	6	2	SEED	n/a	VASE	SEED	10	[0, 0, 0]	-999	PAL1	2	R1091N
1205.055	2.639	1952650	REC_START	n/a	6	-999	n/a	n/a	n/a	n/a	10	[0, 0, 0]	-999	PAL1	2	R1091N
1207.694	2.37	1955289	REC_EVENT	2639	6	2	SEED	<>	VASE	SEED	10	[0, 0, 0]	-999	PAL1	2	R1091N
1210.064	0.008	1957659	REC_END	n/a	6	-999	n/a	n/a	n/a	n/a	10	[0, 0, 0]	-999	PAL1	2	R1091N
1210.072	0.983	1957667	TEST_ORIENT	n/a	5	3	PARK	n/a	DRESS	PARK	10	[0, 0, 0]	-999	PAL1	2	R1091N
1211.055	0.001	1958650	TEST_PROBE	n/a	5	3	PARK	n/a	DRESS	PARK	10	[0, 0, 0]	-999	PAL1	2	R1091N
1211.056	2.422	1958651	REC_START	n/a	5	-999	n/a	n/a	n/a	n/a	10	[0, 0, 0]	-999	PAL1	2	R1091N
1213.478	2.587	1961073	REC_EVENT	2422	5	3	PARK	<>	DRESS	PARK	10	[0, 0, 0]	-999	PAL1	2	R1091N
1216.065	0.008	1963660	REC_END	n/a	5	-999	n/a	n/a	n/a	n/a	10	[0, 0, 0]	-999	PAL1	2	R1091N
1216.073	1.0	1963668	TEST_ORIENT	n/a	4	4	SOCK	n/a	SOCK	GLOVE	10	[0, 0, 0]	-999	PAL1	2	R1091N
1217.073	0.0	1964668	REC_START	n/a	4	-999	n/a	n/a	n/a	n/a	10	[0, 0, 0]	-999	PAL1	2	R1091N
1217.073	3.514	1964668	TEST_PROBE	n/a	4	4	SOCK	n/a	SOCK	GLOVE	10	[0, 0, 0]	-999	PAL1	2	R1091N
1220.587	1.503	1968182	REC_EVENT	3514	4	4	SOCK	<>	SOCK	GLOVE	10	[0, 0, 0]	-999	PAL1	2	R1091N
1222.09	0.017	1969685	REC_END	n/a	4	-999	n/a	n/a	n/a	n/a	10	[0, 0, 0]	-999	PAL1	2	R1091N
1222.107	0.967	1969702	TEST_ORIENT	n/a	1	5	FENCE	n/a	TRAY	FENCE	10	[0, 0, 0]	-999	PAL1	2	R1091N
1223.074	0.0	1970669	TEST_PROBE	n/a	1	5	FENCE	n/a	TRAY	FENCE	10	[0, 0, 0]	-999	PAL1	2	R1091N
1223.074	5.015	1970669	REC_START	n/a	1	-999	n/a	n/a	n/a	n/a	10	[0, 0, 0]	-999	PAL1	2	R1091N
1228.089	0.002	1975684	REC_EVENT	5015	1	5	FENCE	<>	TRAY	FENCE	10	[0, 0, 0]	-999	PAL1	2	R1091N
1228.091	0.017	1975686	REC_END	n/a	1	-999	n/a	n/a	n/a	n/a	10	[0, 0, 0]	-999	PAL1	2	R1091N
1228.108	0.85	1975703	TEST_ORIENT	n/a	2	6	JAIL	SKUNK	SKUNK	JAIL	10	[0, 0, 0]	-999	PAL1	2	R1091N
1228.958	0.001	1976552	TEST_PROBE	n/a	2	6	JAIL	SKUNK	SKUNK	JAIL	10	[0, 0, 0]	-999	PAL1	2	R1091N
1228.959	1.586	1976553	REC_START	n/a	2	-999	n/a	SKUNK	n/a	n/a	10	[0, 0, 0]	-999	PAL1	2	R1091N
1230.545	2.598	1978139	REC_EVENT	1586	2	6	JAIL	SKUNK	SKUNK	JAIL	10	[0, 0, 0]	-999	PAL1	2	R1091N
1233.143	0.185	1980737	REC_EVENT	4184	2	6	JAIL	<>	SKUNK	JAIL	10	[0, 0, 0]	-999	PAL1	2	R1091N
1233.328	0.64	1980922	REC_EVENT	4369	2	6	JAIL	SKUNK	SKUNK	JAIL	10	[0, 0, 0]	-999	PAL1	2	R1091N
1233.968	2.362	1981562	REC_END	n/a	2	-999	n/a	n/a	n/a	n/a	10	[0, 0, 0]	-999	PAL1	2	R1091N
1236.33	10.448	1983924	ENCODING_START	n/a	0	-999	n/a	n/a	n/a	n/a	11	[0, 0, 0]	-999	PAL1	2	R1091N
1246.778	0.783	1994372	STUDY_ORIENT	n/a	1	3	CRANE	n/a	FLUTE	CRANE	11	[0, 0, 0]	-999	PAL1	2	R1091N
1247.561	5.018	1995155	STUDY_PAIR	n/a	1	3	CRANE	n/a	FLUTE	CRANE	11	[0, 0, 0]	-999	PAL1	2	R1091N
1252.579	1.017	2000173	STUDY_ORIENT	n/a	2	2	JEEP	LAWN	JEEP	LAWN	11	[0, 0, 0]	-999	PAL1	2	R1091N
1253.596	5.034	2001190	STUDY_PAIR	n/a	2	2	JEEP	LAWN	JEEP	LAWN	11	[0, 0, 0]	-999	PAL1	2	R1091N
1258.63	0.817	2006223	STUDY_ORIENT	n/a	3	1	SNAIL	n/a	SNAIL	BOY	11	[0, 0, 0]	-999	PAL1	2	R1091N
1259.447	5.034	2007040	STUDY_PAIR	n/a	3	1	SNAIL	n/a	SNAIL	BOY	11	[0, 0, 0]	-999	PAL1	2	R1091N
1264.481	0.917	2012074	STUDY_ORIENT	n/a	4	4	TEETH	TOE	TEETH	TOE	11	[0, 0, 0]	-999	PAL1	2	R1091N
1265.398	5.034	2012991	STUDY_PAIR	n/a	4	4	TEETH	TOE	TEETH	TOE	11	[0, 0, 0]	-999	PAL1	2	R1091N
1270.432	0.832	2018025	STUDY_ORIENT	n/a	5	5	TOY	n/a	TOY	WAND	11	[0, 0, 0]	-999	PAL1	2	R1091N
1271.264	5.018	2018857	STUDY_PAIR	n/a	5	5	TOY	n/a	TOY	WAND	11	[0, 0, 0]	-999	PAL1	2	R1091N
1276.282	0.9	2023875	STUDY_ORIENT	n/a	6	6	PIG	n/a	BRIDGE	PIG	11	[0, 0, 0]	-999	PAL1	2	R1091N
1277.182	4.018	2024775	STUDY_PAIR	n/a	6	6	PIG	n/a	BRIDGE	PIG	11	[0, 0, 0]	-999	PAL1	2	R1091N
1281.2	0.999	2028793	START	n/a	-999	-999	n/a	n/a	n/a	n/a	11	[-999, -999, -999]	-999	PAL1	2	R1091N
1282.199	0.017	2029792	MATH_START	n/a	-999	-999	n/a	n/a	n/a	n/a	11	[0, 0, 0]	-999	PAL1	2	R1091N
1282.216	5.319	2029809	PROB	5291	-999	-999	n/a	n/a	n/a	n/a	11	[3, 1, 2]	6	PAL1	2	R1091N
1287.535	4.867	2035127	PROB	4835	-999	-999	n/a	n/a	n/a	n/a	11	[8, 9, 1]	18	PAL1	2	R1091N
1292.402	7.335	2039994	PROB	7305	-999	-999	n/a	n/a	n/a	n/a	11	[9, 4, 4]	17	PAL1	2	R1091N
1299.737	6.37	2047329	PROB	6370	-999	-999	n/a	n/a	n/a	n/a	11	[6, 1, 2]	9	PAL1	2	R1091N
1306.107	0.013	2053699	STOP	n/a	-999	-999	n/a	n/a	n/a	n/a	11	[-999, -999, -999]	-999	PAL1	2	R1091N
1306.12	0.0	2053712	MATH_END	n/a	-999	-999	n/a	n/a	n/a	n/a	11	[0, 0, 0]	-999	PAL1	2	R1091N
1306.12	0.017	2053712	TEST_START	n/a	-999	-999	n/a	n/a	n/a	n/a	11	[0, 0, 0]	-999	PAL1	2	R1091N
1306.137	1.017	2053729	TEST_ORIENT	n/a	3	1	SNAIL	n/a	SNAIL	BOY	11	[0, 0, 0]	-999	PAL1	2	R1091N
1307.154	0.0	2054746	TEST_PROBE	n/a	3	1	SNAIL	n/a	SNAIL	BOY	11	[0, 0, 0]	-999	PAL1	2	R1091N
1307.154	1.726	2054746	REC_START	n/a	3	-999	n/a	n/a	n/a	n/a	11	[0, 0, 0]	-999	PAL1	2	R1091N
1308.88	3.3	2056472	REC_EVENT	1726	3	1	SNAIL	<>	SNAIL	BOY	11	[0, 0, 0]	-999	PAL1	2	R1091N
1312.18	0.008	2059771	REC_END	n/a	3	-999	n/a	n/a	n/a	n/a	11	[0, 0, 0]	-999	PAL1	2	R1091N
1312.188	0.95	2059779	TEST_ORIENT	n/a	2	2	JEEP	LAWN	JEEP	LAWN	11	[0, 0, 0]	-999	PAL1	2	R1091N
1313.138	0.0	2060729	REC_START	n/a	2	-999	n/a	LAWN	n/a	n/a	11	[0, 0, 0]	-999	PAL1	2	R1091N
1313.138	0.704	2060729	TEST_PROBE	n/a	2	2	JEEP	LAWN	JEEP	LAWN	11	[0, 0, 0]	-999	PAL1	2	R1091N
1313.842	2.284	2061433	REC_EVENT	704	2	2	JEEP	JEEP	JEEP	LAWN	11	[0, 0, 0]	-999	PAL1	2	R1091N
1316.126	2.03	2063717	REC_EVENT	2988	2	2	JEEP	LAWN	JEEP	LAWN	11	[0, 0, 0]	-999	PAL1	2	R1091N
1318.156	0.016	2065747	REC_END	n/a	2	-999	n/a	n/a	n/a	n/a	11	[0, 0, 0]	-999	PAL1	2	R1091N
1318.172	0.785	2065763	TEST_ORIENT	n/a	1	3	CRANE	n/a	FLUTE	CRANE	11	[0, 0, 0]	-999	PAL1	2	R1091N
1318.957	0.0	2066548	TEST_PROBE	n/a	1	3	CRANE	n/a	FLUTE	CRANE	11	[0, 0, 0]	-999	PAL1	2	R1091N
1318.957	1.358	2066548	REC_START	n/a	1	-999	n/a	n/a	n/a	n/a	11	[0, 0, 0]	-999	PAL1	2	R1091N
1320.315	3.659	2067906	REC_EVENT	1358	1	3	CRANE	<>	FLUTE	CRANE	11	[0, 0, 0]	-999	PAL1	2	R1091N
1323.974	0.017	2071565	REC_END	n/a	1	-999	n/a	n/a	n/a	n/a	11	[0, 0, 0]	-999	PAL1	2	R1091N
1323.991	0.967	2071582	TEST_ORIENT	n/a	4	4	TEETH	TOE	TEETH	TOE	11	[0, 0, 0]	-999	PAL1	2	R1091N
1324.958	0.0	2072549	TEST_PROBE	n/a	4	4	TEETH	TOE	TEETH	TOE	11	[0, 0, 0]	-999	PAL1	2	R1091N
1324.958	1.206	2072549	REC_START	n/a	4	-999	n/a	TOE	n/a	n/a	11	[0, 0, 0]	-999	PAL1	2	R1091N
1326.164	0.454	2073755	REC_EVENT	1206	4	4	TEETH	TOE	TEETH	TOE	11	[0, 0, 0]	-999	PAL1	2	R1091N
1326.618	0.27	2074209	REC_EVENT	1660	4	4	TEETH	TEETH	TEETH	TOE	11	[0, 0, 0]	-999	PAL1	2	R1091N
1326.888	3.087	2074479	REC_EVENT	1930	4	4	TEETH	TOE	TEETH	TOE	11	[0, 0, 0]	-999	PAL1	2	R1091N
1329.975	0.017	2077566	REC_END	n/a	4	-999	n/a	n/a	n/a	n/a	11	[0, 0, 0]	-999	PAL1	2	R1091N
1329.992	0.933	2077583	TEST_ORIENT	n/a	5	5	TOY	n/a	TOY	WAND	11	[0, 0, 0]	-999	PAL1	2	R1091N
1330.925	0.001	2078516	TEST_PROBE	n/a	5	5	TOY	n/a	TOY	WAND	11	[0, 0, 0]	-999	PAL1	2	R1091N
1330.926	1.898	2078517	REC_START	n/a	5	-999	n/a	n/a	n/a	n/a	11	[0, 0, 0]	-999	PAL1	2	R1091N
1332.824	3.111	2080415	REC_EVENT	1898	5	5	TOY	<>	TOY	WAND	11	[0, 0, 0]	-999	PAL1	2	R1091N
1335.935	0.008	2083526	REC_END	n/a	5	-999	n/a	n/a	n/a	n/a	11	[0, 0, 0]	-999	PAL1	2	R1091N
1335.943	0.8	2083534	TEST_ORIENT	n/a	6	6	PIG	n/a	BRIDGE	PIG	11	[0, 0, 0]	-999	PAL1	2	R1091N
1336.743	0.0	2084334	TEST_PROBE	n/a	6	6	PIG	n/a	BRIDGE	PIG	11	[0, 0, 0]	-999	PAL1	2	R1091N
1336.743	2.169	2084334	REC_START	n/a	6	-999	n/a	n/a	n/a	n/a	11	[0, 0, 0]	-999	PAL1	2	R1091N
1338.912	2.849	2086502	REC_EVENT	2169	6	6	PIG	<>	BRIDGE	PIG	11	[0, 0, 0]	-999	PAL1	2	R1091N
1341.761	1.746	2089351	REC_END	n/a	6	-999	n/a	n/a	n/a	n/a	11	[0, 0, 0]	-999	PAL1	2	R1091N
1343.507	10.439	2091097	ENCODING_START	n/a	0	-999	n/a	n/a	n/a	n/a	12	[0, 0, 0]	-999	PAL1	2	R1091N
1353.946	0.817	2101536	STUDY_ORIENT	n/a	1	5	LEAF	n/a	LEAF	WHALE	12	[0, 0, 0]	-999	PAL1	2	R1091N
1354.763	5.034	2102353	STUDY_PAIR	n/a	1	5	LEAF	n/a	LEAF	WHALE	12	[0, 0, 0]	-999	PAL1	2	R1091N
1359.797	0.9	2107387	STUDY_ORIENT	n/a	2	2	STEAM	CLOUD	STEAM	MUG	12	[0, 0, 0]	-999	PAL1	2	R1091N
1360.697	5.018	2108287	STUDY_PAIR	n/a	2	2	STEAM	CLOUD	STEAM	MUG	12	[0, 0, 0]	-999	PAL1	2	R1091N
1365.715	0.85	2113304	STUDY_ORIENT	n/a	3	1	LAKE	n/a	CLOUD	LAKE	12	[0, 0, 0]	-999	PAL1	2	R1091N
1366.565	5.034	2114154	STUDY_PAIR	n/a	3	1	LAKE	n/a	CLOUD	LAKE	12	[0, 0, 0]	-999	PAL1	2	R1091N
1371.599	0.95	2119188	STUDY_ORIENT	n/a	4	4	HAWK	n/a	CAPE	HAWK	12	[0, 0, 0]	-999	PAL1	2	R1091N
1372.549	5.018	2120138	STUDY_PAIR	n/a	4	4	HAWK	n/a	CAPE	HAWK	12	[0, 0, 0]	-999	PAL1	2	R1091N
1377.567	0.799	2125156	STUDY_ORIENT	n/a	5	3	FORK	n/a	FORK	DART	12	[0, 0, 0]	-999	PAL1	2	R1091N
1378.366	5.035	2125955	STUDY_PAIR	n/a	5	3	FORK	n/a	FORK	DART	12	[0, 0, 0]	-999	PAL1	2	R1091N
1383.401	0.816	2130990	STUDY_ORIENT	n/a	6	6	CAT	n/a	PLATE	CAT	12	[0, 0, 0]	-999	PAL1	2	R1091N
1384.217	4.018	2131806	STUDY_PAIR	n/a	6	6	CAT	n/a	PLATE	CAT	12	[0, 0, 0]	-999	PAL1	2	R1091N
1388.235	0.999	2135824	START	n/a	-999	-999	n/a	n/a	n/a	n/a	12	[-999, -999, -999]	-999	PAL1	2	R1091N
1389.234	0.017	2136823	MATH_START	n/a	-999	-999	n/a	n/a	n/a	n/a	12	[0, 0, 0]	-999	PAL1	2	R1091N
1389.251	4.702	2136840	PROB	4680	-999	-999	n/a	n/a	n/a	n/a	12	[5, 3, 2]	10	PAL1	2	R1091N
1393.953	6.367	2141541	PROB	6345	-999	-999	n/a	n/a	n/a	n/a	12	[9, 9, 4]	22	PAL1	2	R1091N
1400.32	4.385	2147908	PROB	4355	-999	-999	n/a	n/a	n/a	n/a	12	[2, 5, 6]	13	PAL1	2	R1091N
1404.705	3.617	2152293	PROB	3617	-999	-999	n/a	n/a	n/a	n/a	12	[2, 2, 5]	9	PAL1	2	R1091N
1408.322	0.016	2155910	STOP	n/a	-999	-999	n/a	n/a	n/a	n/a	12	[-999, -999, -999]	-999	PAL1	2	R1091N
1408.338	0.0	2155926	MATH_END	n/a	-999	-999	n/a	n/a	n/a	n/a	12	[0, 0, 0]	-999	PAL1	2	R1091N
1408.338	0.016	2155926	TEST_START	n/a	-999	-999	n/a	n/a	n/a	n/a	12	[0, 0, 0]	-999	PAL1	2	R1091N
1408.354	0.834	2155942	TEST_ORIENT	n/a	3	1	LAKE	n/a	CLOUD	LAKE	12	[0, 0, 0]	-999	PAL1	2	R1091N
1409.188	0.0	2156776	TEST_PROBE	n/a	3	1	LAKE	n/a	CLOUD	LAKE	12	[0, 0, 0]	-999	PAL1	2	R1091N
1409.188	5.015	2156776	REC_START	n/a	3	-999	n/a	n/a	n/a	n/a	12	[0, 0, 0]	-999	PAL1	2	R1091N
1414.203	0.002	2161791	REC_EVENT	5015	3	1	LAKE	<>	CLOUD	LAKE	12	[0, 0, 0]	-999	PAL1	2	R1091N
1414.205	0.017	2161793	REC_END	n/a	3	-999	n/a	n/a	n/a	n/a	12	[0, 0, 0]	-999	PAL1	2	R1091N
1414.222	0.834	2161810	TEST_ORIENT	n/a	2	2	STEAM	CLOUD	STEAM	MUG	12	[0, 0, 0]	-999	PAL1	2	R1091N
1415.056	0.001	2162644	TEST_PROBE	n/a	2	2	STEAM	CLOUD	STEAM	MUG	12	[0, 0, 0]	-999	PAL1	2	R1091N
1415.057	3.763	2162645	REC_START	n/a	2	-999	n/a	CLOUD	n/a	n/a	12	[0, 0, 0]	-999	PAL1	2	R1091N
1418.82	0.423	2166408	REC_EVENT	3763	2	2	STEAM	STEAM	STEAM	MUG	12	[0, 0, 0]	-999	PAL1	2	R1091N
1419.243	0.823	2166831	REC_EVENT	4186	2	2	STEAM	CLOUD	STEAM	MUG	12	[0, 0, 0]	-999	PAL1	2	R1091N
1420.066	0.008	2167653	REC_END	n/a	2	-999	n/a	n/a	n/a	n/a	12	[0, 0, 0]	-999	PAL1	2	R1091N
1420.074	0.833	2167661	TEST_ORIENT	n/a	5	3	FORK	n/a	FORK	DART	12	[0, 0, 0]	-999	PAL1	2	R1091N
1420.907	0.001	2168494	TEST_PROBE	n/a	5	3	FORK	n/a	FORK	DART	12	[0, 0, 0]	-999	PAL1	2	R1091N
1420.908	2.195	2168495	REC_START	n/a	5	-999	n/a	n/a	n/a	n/a	12	[0, 0, 0]	-999	PAL1	2	R1091N
1423.103	2.814	2170690	REC_EVENT	2195	5	3	FORK	<>	FORK	DART	12	[0, 0, 0]	-999	PAL1	2	R1091N
1425.917	0.008	2173504	REC_END	n/a	5	-999	n/a	n/a	n/a	n/a	12	[0, 0, 0]	-999	PAL1	2	R1091N
1425.925	1.017	2173512	TEST_ORIENT	n/a	4	4	HAWK	n/a	CAPE	HAWK	12	[0, 0, 0]	-999	PAL1	2	R1091N
1426.942	0.0	2174529	TEST_PROBE	n/a	4	4	HAWK	n/a	CAPE	HAWK	12	[0, 0, 0]	-999	PAL1	2	R1091N
1426.942	1.646	2174529	REC_START	n/a	4	-999	n/a	n/a	n/a	n/a	12	[0, 0, 0]	-999	PAL1	2	R1091N
1428.588	3.371	2176175	REC_EVENT	1646	4	4	HAWK	<>	CAPE	HAWK	12	[0, 0, 0]	-999	PAL1	2	R1091N
1431.959	0.017	2179546	REC_END	n/a	4	-999	n/a	n/a	n/a	n/a	12	[0, 0, 0]	-999	PAL1	2	R1091N
1431.976	0.85	2179563	TEST_ORIENT	n/a	1	5	LEAF	n/a	LEAF	WHALE	12	[0, 0, 0]	-999	PAL1	2	R1091N
1432.826	0.001	2180413	TEST_PROBE	n/a	1	5	LEAF	n/a	LEAF	WHALE	12	[0, 0, 0]	-999	PAL1	2	R1091N
1432.827	5.015	2180414	REC_START	n/a	1	-999	n/a	n/a	n/a	n/a	12	[0, 0, 0]	-999	PAL1	2	R1091N
1437.842	0.001	2185429	REC_EVENT	5015	1	5	LEAF	<>	LEAF	WHALE	12	[0, 0, 0]	-999	PAL1	2	R1091N
1437.843	0.017	2185430	REC_END	n/a	1	-999	n/a	n/a	n/a	n/a	12	[0, 0, 0]	-999	PAL1	2	R1091N
1437.86	1.017	2185447	TEST_ORIENT	n/a	6	6	CAT	n/a	PLATE	CAT	12	[0, 0, 0]	-999	PAL1	2	R1091N
1438.877	0.001	2186464	TEST_PROBE	n/a	6	6	CAT	n/a	PLATE	CAT	12	[0, 0, 0]	-999	PAL1	2	R1091N
1438.878	2.202	2186465	REC_START	n/a	6	-999	n/a	n/a	n/a	n/a	12	[0, 0, 0]	-999	PAL1	2	R1091N
1441.08	2.814	2188667	REC_EVENT	2202	6	6	CAT	<>	PLATE	CAT	12	[0, 0, 0]	-999	PAL1	2	R1091N
1443.894	2.053	2191481	REC_END	n/a	6	-999	n/a	n/a	n/a	n/a	12	[0, 0, 0]	-999	PAL1	2	R1091N
1445.947	10.45	2193534	ENCODING_START	n/a	0	-999	n/a	n/a	n/a	n/a	13	[0, 0, 0]	-999	PAL1	2	R1091N
1456.397	0.916	2203983	STUDY_ORIENT	n/a	1	5	APE	n/a	VEST	APE	13	[0, 0, 0]	-999	PAL1	2	R1091N
1457.313	5.034	2204899	STUDY_PAIR	n/a	1	5	APE	n/a	VEST	APE	13	[0, 0, 0]	-999	PAL1	2	R1091N
1462.347	1.0	2209933	STUDY_ORIENT	n/a	2	6	SAIL	SINK	SAIL	SINK	13	[0, 0, 0]	-999	PAL1	2	R1091N
1463.347	5.035	2210933	STUDY_PAIR	n/a	2	6	SAIL	SINK	SAIL	SINK	13	[0, 0, 0]	-999	PAL1	2	R1091N
1468.382	0.916	2215968	STUDY_ORIENT	n/a	3	3	STORM	n/a	ARK	STORM	13	[0, 0, 0]	-999	PAL1	2	R1091N
1469.298	5.034	2216884	STUDY_PAIR	n/a	3	3	STORM	n/a	ARK	STORM	13	[0, 0, 0]	-999	PAL1	2	R1091N
1474.332	0.817	2221918	STUDY_ORIENT	n/a	4	4	THREAD	n/a	BAG	THREAD	13	[0, 0, 0]	-999	PAL1	2	R1091N
1475.149	5.034	2222734	STUDY_PAIR	n/a	4	4	THREAD	n/a	BAG	THREAD	13	[0, 0, 0]	-999	PAL1	2	R1091N
1480.183	0.884	2227768	STUDY_ORIENT	n/a	5	1	WING	n/a	CUBE	WING	13	[0, 0, 0]	-999	PAL1	2	R1091N
1481.067	5.018	2228652	STUDY_PAIR	n/a	5	1	WING	n/a	CUBE	WING	13	[0, 0, 0]	-999	PAL1	2	R1091N
1486.085	0.967	2233670	STUDY_ORIENT	n/a	6	2	GUARD	n/a	TRAIN	GUARD	13	[0, 0, 0]	-999	PAL1	2	R1091N
1487.052	4.018	2234637	STUDY_PAIR	n/a	6	2	GUARD	n/a	TRAIN	GUARD	13	[0, 0, 0]	-999	PAL1	2	R1091N
1491.07	0.999	2238655	START	n/a	-999	-999	n/a	n/a	n/a	n/a	13	[-999, -999, -999]	-999	PAL1	2	R1091N
1492.069	0.017	2239654	MATH_START	n/a	-999	-999	n/a	n/a	n/a	n/a	13	[0, 0, 0]	-999	PAL1	2	R1091N
1492.086	3.834	2239671	PROB	3805	-999	-999	n/a	n/a	n/a	n/a	13	[6, 1, 1]	8	PAL1	2	R1091N
1495.92	7.3	2243505	PROB	7274	-999	-999	n/a	n/a	n/a	n/a	13	[4, 2, 8]	14	PAL1	2	R1091N
1503.22	5.135	2250804	PROB	5110	-999	-999	n/a	n/a	n/a	n/a	13	[2, 4, 5]	11	PAL1	2	R1091N
1508.355	5.919	2255939	PROB	5919	-999	-999	n/a	n/a	n/a	n/a	13	[5, 9, 2]	16	PAL1	2	R1091N
1514.274	0.015	2261858	STOP	n/a	-999	-999	n/a	n/a	n/a	n/a	13	[-999, -999, -999]	-999	PAL1	2	R1091N
1514.289	0.0	2261873	MATH_END	n/a	-999	-999	n/a	n/a	n/a	n/a	13	[0, 0, 0]	-999	PAL1	2	R1091N
1514.289	0.017	2261873	TEST_START	n/a	-999	-999	n/a	n/a	n/a	n/a	13	[0, 0, 0]	-999	PAL1	2	R1091N
1514.306	0.933	2261890	TEST_ORIENT	n/a	5	1	WING	n/a	CUBE	WING	13	[0, 0, 0]	-999	PAL1	2	R1091N
1515.239	0.0	2262823	TEST_PROBE	n/a	5	1	WING	n/a	CUBE	WING	13	[0, 0, 0]	-999	PAL1	2	R1091N
1515.239	5.026	2262823	REC_START	n/a	5	-999	n/a	n/a	n/a	n/a	13	[0, 0, 0]	-999	PAL1	2	R1091N
1520.265	0.001	2267849	REC_END	n/a	5	-999	n/a	n/a	n/a	n/a	13	[0, 0, 0]	-999	PAL1	2	R1091N
1520.266	0.007	2267850	REC_EVENT	5027	5	1	WING	<>	CUBE	WING	13	[0, 0, 0]	-999	PAL1	2	R1091N
1520.273	0.884	2267857	TEST_ORIENT	n/a	6	2	GUARD	n/a	TRAIN	GUARD	13	[0, 0, 0]	-999	PAL1	2	R1091N
1521.157	0.0	2268741	TEST_PROBE	n/a	6	2	GUARD	n/a	TRAIN	GUARD	13	[0, 0, 0]	-999	PAL1	2	R1091N
1521.157	5.026	2268741	REC_START	n/a	6	-999	n/a	n/a	n/a	n/a	13	[0, 0, 0]	-999	PAL1	2	R1091N
1526.183	0.001	2273767	REC_END	n/a	6	-999	n/a	n/a	n/a	n/a	13	[0, 0, 0]	-999	PAL1	2	R1091N
1526.184	0.007	2273768	REC_EVENT	5027	6	2	GUARD	<>	TRAIN	GUARD	13	[0, 0, 0]	-999	PAL1	2	R1091N
1526.191	0.801	2273775	TEST_ORIENT	n/a	3	3	STORM	n/a	ARK	STORM	13	[0, 0, 0]	-999	PAL1	2	R1091N
1526.992	0.0	2274576	REC_START	n/a	3	-999	n/a	n/a	n/a	n/a	13	[0, 0, 0]	-999	PAL1	2	R1091N
1526.992	2.655	2274576	TEST_PROBE	n/a	3	3	STORM	n/a	ARK	STORM	13	[0, 0, 0]	-999	PAL1	2	R1091N
1529.647	2.362	2277230	REC_EVENT	2655	3	3	STORM	<>	ARK	STORM	13	[0, 0, 0]	-999	PAL1	2	R1091N
1532.009	0.017	2279592	REC_END	n/a	3	-999	n/a	n/a	n/a	n/a	13	[0, 0, 0]	-999	PAL1	2	R1091N
1532.026	0.984	2279609	TEST_ORIENT	n/a	4	4	THREAD	n/a	BAG	THREAD	13	[0, 0, 0]	-999	PAL1	2	R1091N
1533.01	0.0	2280593	TEST_PROBE	n/a	4	4	THREAD	n/a	BAG	THREAD	13	[0, 0, 0]	-999	PAL1	2	R1091N
1533.01	5.015	2280593	REC_START	n/a	4	-999	n/a	n/a	n/a	n/a	13	[0, 0, 0]	-999	PAL1	2	R1091N
1538.025	0.002	2285608	REC_EVENT	5015	4	4	THREAD	<>	BAG	THREAD	13	[0, 0, 0]	-999	PAL1	2	R1091N
1538.027	0.017	2285610	REC_END	n/a	4	-999	n/a	n/a	n/a	n/a	13	[0, 0, 0]	-999	PAL1	2	R1091N
1538.044	0.85	2285627	TEST_ORIENT	n/a	1	5	APE	n/a	VEST	APE	13	[0, 0, 0]	-999	PAL1	2	R1091N
1538.894	0.001	2286477	TEST_PROBE	n/a	1	5	APE	n/a	VEST	APE	13	[0, 0, 0]	-999	PAL1	2	R1091N
1538.895	5.027	2286478	REC_START	n/a	1	-999	n/a	n/a	n/a	n/a	13	[0, 0, 0]	-999	PAL1	2	R1091N
1543.922	0.001	2291505	REC_EVENT	5027	1	5	APE	<>	VEST	APE	13	[0, 0, 0]	-999	PAL1	2	R1091N
1543.923	0.022	2291506	REC_END	n/a	1	-999	n/a	n/a	n/a	n/a	13	[0, 0, 0]	-999	PAL1	2	R1091N
1543.945	0.917	2291528	TEST_ORIENT	n/a	2	6	SAIL	SINK	SAIL	SINK	13	[0, 0, 0]	-999	PAL1	2	R1091N
1544.862	0.0	2292445	TEST_PROBE	n/a	2	6	SAIL	SINK	SAIL	SINK	13	[0, 0, 0]	-999	PAL1	2	R1091N
1544.862	2.154	2292445	REC_START	n/a	2	-999	n/a	SINK	n/a	n/a	13	[0, 0, 0]	-999	PAL1	2	R1091N
1547.016	2.863	2294599	REC_EVENT	2154	2	6	SAIL	SINK	SAIL	SINK	13	[0, 0, 0]	-999	PAL1	2	R1091N
1549.879	1.988	2297462	REC_END	n/a	2	-999	n/a	n/a	n/a	n/a	13	[0, 0, 0]	-999	PAL1	2	R1091N
1551.867	10.447	2299450	ENCODING_START	n/a	0	-999	n/a	n/a	n/a	n/a	14	[0, 0, 0]	-999	PAL1	2	R1091N
1562.314	0.833	2309896	STUDY_ORIENT	n/a	1	5	BLUSH	n/a	BLUSH	PHONE	14	[0, 0, 0]	-999	PAL1	2	R1091N
1563.147	5.034	2310729	STUDY_PAIR	n/a	1	5	BLUSH	n/a	BLUSH	PHONE	14	[0, 0, 0]	-999	PAL1	2	R1091N
1568.181	0.95	2315763	STUDY_ORIENT	n/a	2	2	OAR	n/a	OAR	DESK	14	[0, 0, 0]	-999	PAL1	2	R1091N
1569.131	5.018	2316713	STUDY_PAIR	n/a	2	2	OAR	n/a	OAR	DESK	14	[0, 0, 0]	-999	PAL1	2	R1091N
1574.149	0.784	2321731	STUDY_ORIENT	n/a	3	1	HILL	n/a	HILL	TRASH	14	[0, 0, 0]	-999	PAL1	2	R1091N
1574.933	5.018	2322515	STUDY_PAIR	n/a	3	1	HILL	n/a	HILL	TRASH	14	[0, 0, 0]	-999	PAL1	2	R1091N
1579.951	0.9	2327533	STUDY_ORIENT	n/a	4	4	STEM	n/a	STEM	FRUIT	14	[0, 0, 0]	-999	PAL1	2	R1091N
1580.851	5.034	2328433	STUDY_PAIR	n/a	4	4	STEM	n/a	STEM	FRUIT	14	[0, 0, 0]	-999	PAL1	2	R1091N
1585.885	0.784	2333466	STUDY_ORIENT	n/a	5	3	BOOT	n/a	BOOT	SNOW	14	[0, 0, 0]	-999	PAL1	2	R1091N
1586.669	5.034	2334250	STUDY_PAIR	n/a	5	3	BOOT	n/a	BOOT	SNOW	14	[0, 0, 0]	-999	PAL1	2	R1091N
1591.703	0.867	2339284	STUDY_ORIENT	n/a	6	6	WEB	n/a	WEB	WORM	14	[0, 0, 0]	-999	PAL1	2	R1091N
1592.57	4.018	2340151	STUDY_PAIR	n/a	6	6	WEB	n/a	WEB	WORM	14	[0, 0, 0]	-999	PAL1	2	R1091N
1596.588	0.999	2344169	START	n/a	-999	-999	n/a	n/a	n/a	n/a	14	[-999, -999, -999]	-999	PAL1	2	R1091N
1597.587	0.017	2345168	MATH_START	n/a	-999	-999	n/a	n/a	n/a	n/a	14	[0, 0, 0]	-999	PAL1	2	R1091N
1597.604	6.368	2345185	PROB	6335	-999	-999	n/a	n/a	n/a	n/a	14	[3, 8, 5]	16	PAL1	2	R1091N
1603.972	23.174	2351553	PROB	23174	-999	-999	n/a	n/a	n/a	n/a	14	[8, 8, 9]	26	PAL1	2	R1091N
1627.146	0.012	2374726	STOP	n/a	-999	-999	n/a	n/a	n/a	n/a	14	[-999, -999, -999]	-999	PAL1	2	R1091N
1627.158	0.0	2374738	MATH_END	n/a	-999	-999	n/a	n/a	n/a	n/a	14	[0, 0, 0]	-999	PAL1	2	R1091N
1627.158	0.017	2374738	TEST_START	n/a	-999	-999	n/a	n/a	n/a	n/a	14	[0, 0, 0]	-999	PAL1	2	R1091N
1627.175	1.016	2374755	TEST_ORIENT	n/a	3	1	HILL	n/a	HILL	TRASH	14	[0, 0, 0]	-999	PAL1	2	R1091N
1628.191	0.001	2375771	TEST_PROBE	n/a	3	1	HILL	n/a	HILL	TRASH	14	[0, 0, 0]	-999	PAL1	2	R1091N
1628.192	1.455	2375772	REC_START	n/a	3	-999	n/a	n/a	n/a	n/a	14	[0, 0, 0]	-999	PAL1	2	R1091N
1629.647	3.553	2377227	REC_EVENT	1455	3	1	HILL	<>	HILL	TRASH	14	[0, 0, 0]	-999	PAL1	2	R1091N
1633.2	0.009	2380780	REC_END	n/a	3	-999	n/a	n/a	n/a	n/a	14	[0, 0, 0]	-999	PAL1	2	R1091N
1633.209	0.818	2380789	TEST_ORIENT	n/a	2	2	OAR	n/a	OAR	DESK	14	[0, 0, 0]	-999	PAL1	2	R1091N
1634.027	0.0	2381607	TEST_PROBE	n/a	2	2	OAR	n/a	OAR	DESK	14	[0, 0, 0]	-999	PAL1	2	R1091N
1634.027	1.36	2381607	REC_START	n/a	2	-999	n/a	n/a	n/a	n/a	14	[0, 0, 0]	-999	PAL1	2	R1091N
1635.387	3.657	2382967	REC_EVENT	1360	2	2	OAR	<>	OAR	DESK	14	[0, 0, 0]	-999	PAL1	2	R1091N
1639.044	0.017	2386624	REC_END	n/a	2	-999	n/a	n/a	n/a	n/a	14	[0, 0, 0]	-999	PAL1	2	R1091N
1639.061	0.85	2386641	TEST_ORIENT	n/a	5	3	BOOT	n/a	BOOT	SNOW	14	[0, 0, 0]	-999	PAL1	2	R1091N
1639.911	0.0	2387490	REC_START	n/a	5	-999	n/a	n/a	n/a	n/a	14	[0, 0, 0]	-999	PAL1	2	R1091N
1639.911	2.388	2387490	TEST_PROBE	n/a	5	3	BOOT	n/a	BOOT	SNOW	14	[0, 0, 0]	-999	PAL1	2	R1091N
1642.299	2.629	2389878	REC_EVENT	2388	5	3	BOOT	<>	BOOT	SNOW	14	[0, 0, 0]	-999	PAL1	2	R1091N
1644.928	0.017	2392507	REC_END	n/a	5	-999	n/a	n/a	n/a	n/a	14	[0, 0, 0]	-999	PAL1	2	R1091N
1644.945	0.984	2392524	TEST_ORIENT	n/a	4	4	STEM	n/a	STEM	FRUIT	14	[0, 0, 0]	-999	PAL1	2	R1091N
1645.929	0.0	2393508	TEST_PROBE	n/a	4	4	STEM	n/a	STEM	FRUIT	14	[0, 0, 0]	-999	PAL1	2	R1091N
1645.929	3.953	2393508	REC_START	n/a	4	-999	n/a	n/a	n/a	n/a	14	[0, 0, 0]	-999	PAL1	2	R1091N
1649.882	1.064	2397461	REC_EVENT	3953	4	4	STEM	<>	STEM	FRUIT	14	[0, 0, 0]	-999	PAL1	2	R1091N
1650.946	0.017	2398525	REC_END	n/a	4	-999	n/a	n/a	n/a	n/a	14	[0, 0, 0]	-999	PAL1	2	R1091N
1650.963	0.833	2398542	TEST_ORIENT	n/a	1	5	BLUSH	n/a	BLUSH	PHONE	14	[0, 0, 0]	-999	PAL1	2	R1091N
1651.796	0.001	2399375	TEST_PROBE	n/a	1	5	BLUSH	n/a	BLUSH	PHONE	14	[0, 0, 0]	-999	PAL1	2	R1091N
1651.797	3.658	2399376	REC_START	n/a	1	-999	n/a	n/a	n/a	n/a	14	[0, 0, 0]	-999	PAL1	2	R1091N
1655.455	1.351	2403034	REC_EVENT	3658	1	5	BLUSH	<>	BLUSH	PHONE	14	[0, 0, 0]	-999	PAL1	2	R1091N
1656.806	0.008	2404385	REC_END	n/a	1	-999	n/a	n/a	n/a	n/a	14	[0, 0, 0]	-999	PAL1	2	R1091N
1656.814	0.817	2404393	TEST_ORIENT	n/a	6	6	WEB	n/a	WEB	WORM	14	[0, 0, 0]	-999	PAL1	2	R1091N
1657.631	0.0	2405210	TEST_PROBE	n/a	6	6	WEB	n/a	WEB	WORM	14	[0, 0, 0]	-999	PAL1	2	R1091N
1657.631	5.015	2405210	REC_START	n/a	6	-999	n/a	n/a	n/a	n/a	14	[0, 0, 0]	-999	PAL1	2	R1091N
1662.646	0.002	2410225	REC_EVENT	5015	6	6	WEB	<>	WEB	WORM	14	[0, 0, 0]	-999	PAL1	2	R1091N
1662.648	3.538	2410227	REC_END	n/a	6	-999	n/a	n/a	n/a	n/a	14	[0, 0, 0]	-999	PAL1	2	R1091N
1666.186	10.448	2413765	ENCODING_START	n/a	0	-999	n/a	n/a	n/a	n/a	15	[0, 0, 0]	-999	PAL1	2	R1091N
1676.634	0.817	2424212	STUDY_ORIENT	n/a	1	5	STOOL	TOOL	STOOL	ROCK	15	[0, 0, 0]	-999	PAL1	2	R1091N
1677.451	5.034	2425029	STUDY_PAIR	n/a	1	5	STOOL	TOOL	STOOL	ROCK	15	[0, 0, 0]	-999	PAL1	2	R1091N
1682.485	0.95	2430063	STUDY_ORIENT	n/a	2	6	POOL	POND	POOL	POND	15	[0, 0, 0]	-999	PAL1	2	R1091N
1683.435	5.034	2431013	STUDY_PAIR	n/a	2	6	POOL	POND	POOL	POND	15	[0, 0, 0]	-999	PAL1	2	R1091N
1688.469	1.0	2436047	STUDY_ORIENT	n/a	3	1	FORT	PEARL	FORT	PEARL	15	[0, 0, 0]	-999	PAL1	2	R1091N
1689.469	5.018	2437047	STUDY_PAIR	n/a	3	1	FORT	PEARL	FORT	PEARL	15	[0, 0, 0]	-999	PAL1	2	R1091N
1694.487	0.783	2442064	STUDY_ORIENT	n/a	4	4	BEAR	n/a	BEAR	HOLE	15	[0, 0, 0]	-999	PAL1	2	R1091N
1695.27	5.034	2442847	STUDY_PAIR	n/a	4	4	BEAR	n/a	BEAR	HOLE	15	[0, 0, 0]	-999	PAL1	2	R1091N
1700.304	0.9	2447881	STUDY_ORIENT	n/a	5	3	NET	n/a	NET	LAND	15	[0, 0, 0]	-999	PAL1	2	R1091N
1701.204	5.034	2448781	STUDY_PAIR	n/a	5	3	NET	n/a	NET	LAND	15	[0, 0, 0]	-999	PAL1	2	R1091N
1706.238	0.9	2453815	STUDY_ORIENT	n/a	6	2	SKI	n/a	MOTH	SKI	15	[0, 0, 0]	-999	PAL1	2	R1091N
1707.138	4.018	2454715	STUDY_PAIR	n/a	6	2	SKI	n/a	MOTH	SKI	15	[0, 0, 0]	-999	PAL1	2	R1091N
1711.156	1.0	2458733	START	n/a	-999	-999	n/a	n/a	n/a	n/a	15	[-999, -999, -999]	-999	PAL1	2	R1091N
1712.156	0.016	2459733	MATH_START	n/a	-999	-999	n/a	n/a	n/a	n/a	15	[0, 0, 0]	-999	PAL1	2	R1091N
1712.172	6.135	2459749	PROB	6110	-999	-999	n/a	n/a	n/a	n/a	15	[1, 7, 2]	10	PAL1	2	R1091N
1718.307	9.686	2465884	PROB	9656	-999	-999	n/a	n/a	n/a	n/a	15	[4, 7, 1]	12	PAL1	2	R1091N
1727.993	4.209	2475569	PROB	4209	-999	-999	n/a	n/a	n/a	n/a	15	[2, 7, 1]	10	PAL1	2	R1091N
1732.202	0.007	2479778	STOP	n/a	-999	-999	n/a	n/a	n/a	n/a	15	[-999, -999, -999]	-999	PAL1	2	R1091N
1732.209	0.0	2479785	MATH_END	n/a	-999	-999	n/a	n/a	n/a	n/a	15	[0, 0, 0]	-999	PAL1	2	R1091N
1732.209	0.017	2479785	TEST_START	n/a	-999	-999	n/a	n/a	n/a	n/a	15	[0, 0, 0]	-999	PAL1	2	R1091N
1732.226	0.834	2479802	TEST_ORIENT	n/a	3	1	FORT	PEARL	FORT	PEARL	15	[0, 0, 0]	-999	PAL1	2	R1091N
1733.06	0.0	2480636	TEST_PROBE	n/a	3	1	FORT	PEARL	FORT	PEARL	15	[0, 0, 0]	-999	PAL1	2	R1091N
1733.06	1.92	2480636	REC_START	n/a	3	-999	n/a	PEARL	n/a	n/a	15	[0, 0, 0]	-999	PAL1	2	R1091N
1734.98	0.206	2482556	REC_EVENT	1920	3	1	FORT	<>	FORT	PEARL	15	[0, 0, 0]	-999	PAL1	2	R1091N
1735.186	2.893	2482762	REC_EVENT	2126	3	1	FORT	PEARL	FORT	PEARL	15	[0, 0, 0]	-999	PAL1	2	R1091N
1738.079	0.015	2485655	REC_END	n/a	3	-999	n/a	n/a	n/a	n/a	15	[0, 0, 0]	-999	PAL1	2	R1091N
1738.094	0.95	2485670	TEST_ORIENT	n/a	6	2	SKI	n/a	MOTH	SKI	15	[0, 0, 0]	-999	PAL1	2	R1091N
1739.044	0.001	2486620	TEST_PROBE	n/a	6	2	SKI	n/a	MOTH	SKI	15	[0, 0, 0]	-999	PAL1	2	R1091N
1739.045	2.03	2486621	REC_START	n/a	6	-999	n/a	n/a	n/a	n/a	15	[0, 0, 0]	-999	PAL1	2	R1091N
1741.075	2.979	2488651	REC_EVENT	2030	6	2	SKI	<>	MOTH	SKI	15	[0, 0, 0]	-999	PAL1	2	R1091N
1744.054	0.008	2491630	REC_END	n/a	6	-999	n/a	n/a	n/a	n/a	15	[0, 0, 0]	-999	PAL1	2	R1091N
1744.062	1.017	2491638	TEST_ORIENT	n/a	5	3	NET	n/a	NET	LAND	15	[0, 0, 0]	-999	PAL1	2	R1091N
1745.079	0.0	2492655	REC_START	n/a	5	-999	n/a	n/a	n/a	n/a	15	[0, 0, 0]	-999	PAL1	2	R1091N
1745.079	1.746	2492655	TEST_PROBE	n/a	5	3	NET	n/a	NET	LAND	15	[0, 0, 0]	-999	PAL1	2	R1091N
1746.825	3.271	2494401	REC_EVENT	1746	5	3	NET	<>	NET	LAND	15	[0, 0, 0]	-999	PAL1	2	R1091N
1750.096	0.016	2497671	REC_END	n/a	5	-999	n/a	n/a	n/a	n/a	15	[0, 0, 0]	-999	PAL1	2	R1091N
1750.112	0.968	2497687	TEST_ORIENT	n/a	4	4	BEAR	n/a	BEAR	HOLE	15	[0, 0, 0]	-999	PAL1	2	R1091N
1751.08	0.001	2498655	TEST_PROBE	n/a	4	4	BEAR	n/a	BEAR	HOLE	15	[0, 0, 0]	-999	PAL1	2	R1091N
1751.081	1.786	2498656	REC_START	n/a	4	-999	n/a	n/a	n/a	n/a	15	[0, 0, 0]	-999	PAL1	2	R1091N
1752.867	3.239	2500442	REC_EVENT	1786	4	4	BEAR	<>	BEAR	HOLE	15	[0, 0, 0]	-999	PAL1	2	R1091N
1756.106	0.007	2503681	REC_END	n/a	4	-999	n/a	n/a	n/a	n/a	15	[0, 0, 0]	-999	PAL1	2	R1091N
1756.113	0.935	2503688	TEST_ORIENT	n/a	1	5	STOOL	TOOL	STOOL	ROCK	15	[0, 0, 0]	-999	PAL1	2	R1091N
1757.048	0.0	2504623	TEST_PROBE	n/a	1	5	STOOL	TOOL	STOOL	ROCK	15	[0, 0, 0]	-999	PAL1	2	R1091N
1757.048	2.327	2504623	REC_START	n/a	1	-999	n/a	TOOL	n/a	n/a	15	[0, 0, 0]	-999	PAL1	2	R1091N
1759.375	0.46	2506950	REC_EVENT	2327	1	5	STOOL	SCHOOL	STOOL	ROCK	15	[0, 0, 0]	-999	PAL1	2	R1091N
1759.835	2.23	2507410	REC_EVENT	2787	1	5	STOOL	TOOL	STOOL	ROCK	15	[0, 0, 0]	-999	PAL1	2	R1091N
1762.065	0.017	2509640	REC_END	n/a	1	-999	n/a	n/a	n/a	n/a	15	[0, 0, 0]	-999	PAL1	2	R1091N
1762.082	0.9	2509657	TEST_ORIENT	n/a	2	6	POOL	POND	POOL	POND	15	[0, 0, 0]	-999	PAL1	2	R1091N
1762.982	0.001	2510557	TEST_PROBE	n/a	2	6	POOL	POND	POOL	POND	15	[0, 0, 0]	-999	PAL1	2	R1091N
1762.983	1.796	2510558	REC_START	n/a	2	-999	n/a	POND	n/a	n/a	15	[0, 0, 0]	-999	PAL1	2	R1091N
1764.779	3.229	2512354	REC_EVENT	1796	2	6	POOL	POND	POOL	POND	15	[0, 0, 0]	-999	PAL1	2	R1091N
1768.008	932.154	2515583	REC_END	n/a	2	-999	n/a	n/a	n/a	n/a	15	[0, 0, 0]	-999	PAL1	2	R1091N
2700.162	10.447	3447703	ENCODING_START	n/a	0	-999	n/a	n/a	n/a	n/a	16	[0, 0, 0]	-999	PAL1	2	R1091N
2710.609	1.0	3458149	STUDY_ORIENT	n/a	1	1	RAKE	n/a	BOX	RAKE	16	[0, 0, 0]	-999	PAL1	2	R1091N
2711.609	5.034	3459149	STUDY_PAIR	n/a	1	1	RAKE	n/a	BOX	RAKE	16	[0, 0, 0]	-999	PAL1	2	R1091N
2716.643	0.95	3464183	STUDY_ORIENT	n/a	2	4	PLANT	n/a	PLANT	BUSH	16	[0, 0, 0]	-999	PAL1	2	R1091N
2717.593	5.034	3465133	STUDY_PAIR	n/a	2	4	PLANT	n/a	PLANT	BUSH	16	[0, 0, 0]	-999	PAL1	2	R1091N
2722.627	0.967	3470167	STUDY_ORIENT	n/a	3	3	CANE	n/a	PASTE	CANE	16	[0, 0, 0]	-999	PAL1	2	R1091N
2723.594	5.034	3471134	STUDY_PAIR	n/a	3	3	CANE	n/a	PASTE	CANE	16	[0, 0, 0]	-999	PAL1	2	R1091N
2728.628	1.0	3476168	STUDY_ORIENT	n/a	4	6	BED	n/a	FOX	BED	16	[0, 0, 0]	-999	PAL1	2	R1091N
2729.628	5.018	3477168	STUDY_PAIR	n/a	4	6	BED	n/a	FOX	BED	16	[0, 0, 0]	-999	PAL1	2	R1091N
2734.646	0.884	3482186	STUDY_ORIENT	n/a	5	5	MAIL	n/a	MAIL	ROSE	16	[0, 0, 0]	-999	PAL1	2	R1091N
2735.53	5.034	3483069	STUDY_PAIR	n/a	5	5	MAIL	n/a	MAIL	ROSE	16	[0, 0, 0]	-999	PAL1	2	R1091N
2740.564	0.85	3488103	STUDY_ORIENT	n/a	6	2	CAVE	n/a	TOAD	CAVE	16	[0, 0, 0]	-999	PAL1	2	R1091N
2741.414	4.018	3488953	STUDY_PAIR	n/a	6	2	CAVE	n/a	TOAD	CAVE	16	[0, 0, 0]	-999	PAL1	2	R1091N
2745.432	0.999	3492971	START	n/a	-999	-999	n/a	n/a	n/a	n/a	16	[-999, -999, -999]	-999	PAL1	2	R1091N
2746.431	0.017	3493970	MATH_START	n/a	-999	-999	n/a	n/a	n/a	n/a	16	[0, 0, 0]	-999	PAL1	2	R1091N
2746.448	5.518	3493987	PROB	5499	-999	-999	n/a	n/a	n/a	n/a	16	[1, 2, 5]	8	PAL1	2	R1091N
2751.966	7.051	3499505	PROB	7029	-999	-999	n/a	n/a	n/a	n/a	16	[4, 4, 9]	17	PAL1	2	R1091N
2759.017	9.466	3506556	PROB	9466	-999	-999	n/a	n/a	n/a	n/a	16	[1, 8, 4]	13	PAL1	2	R1091N
2768.483	0.019	3516021	STOP	n/a	-999	-999	n/a	n/a	n/a	n/a	16	[-999, -999, -999]	-999	PAL1	2	R1091N
2768.502	0.0	3516040	MATH_END	n/a	-999	-999	n/a	n/a	n/a	n/a	16	[0, 0, 0]	-999	PAL1	2	R1091N
2768.502	0.016	3516040	TEST_START	n/a	-999	-999	n/a	n/a	n/a	n/a	16	[0, 0, 0]	-999	PAL1	2	R1091N
2768.518	0.95	3516056	TEST_ORIENT	n/a	1	1	RAKE	n/a	BOX	RAKE	16	[0, 0, 0]	-999	PAL1	2	R1091N
2769.468	0.001	3517006	TEST_PROBE	n/a	1	1	RAKE	n/a	BOX	RAKE	16	[0, 0, 0]	-999	PAL1	2	R1091N
2769.469	4.245	3517007	REC_START	n/a	1	-999	n/a	n/a	n/a	n/a	16	[0, 0, 0]	-999	PAL1	2	R1091N
2773.714	0.764	3521252	REC_EVENT	4245	1	1	RAKE	<>	BOX	RAKE	16	[0, 0, 0]	-999	PAL1	2	R1091N
2774.478	0.008	3522016	REC_END	n/a	1	-999	n/a	n/a	n/a	n/a	16	[0, 0, 0]	-999	PAL1	2	R1091N
2774.486	1.034	3522024	TEST_ORIENT	n/a	6	2	CAVE	n/a	TOAD	CAVE	16	[0, 0, 0]	-999	PAL1	2	R1091N
2775.52	0.0	3523058	TEST_PROBE	n/a	6	2	CAVE	n/a	TOAD	CAVE	16	[0, 0, 0]	-999	PAL1	2	R1091N
2775.52	1.081	3523058	REC_START	n/a	6	-999	n/a	n/a	n/a	n/a	16	[0, 0, 0]	-999	PAL1	2	R1091N
2776.601	3.936	3524139	REC_EVENT	1081	6	2	CAVE	<>	TOAD	CAVE	16	[0, 0, 0]	-999	PAL1	2	R1091N
2780.537	0.016	3528075	REC_END	n/a	6	-999	n/a	n/a	n/a	n/a	16	[0, 0, 0]	-999	PAL1	2	R1091N
2780.553	0.884	3528091	TEST_ORIENT	n/a	3	3	CANE	n/a	PASTE	CANE	16	[0, 0, 0]	-999	PAL1	2	R1091N
2781.437	0.0	3528975	REC_START	n/a	3	-999	n/a	n/a	n/a	n/a	16	[0, 0, 0]	-999	PAL1	2	R1091N
2781.437	3.547	3528975	TEST_PROBE	n/a	3	3	CANE	n/a	PASTE	CANE	16	[0, 0, 0]	-999	PAL1	2	R1091N
2784.984	1.471	3532522	REC_EVENT	3547	3	3	CANE	<>	PASTE	CANE	16	[0, 0, 0]	-999	PAL1	2	R1091N
2786.455	0.016	3533993	REC_END	n/a	3	-999	n/a	n/a	n/a	n/a	16	[0, 0, 0]	-999	PAL1	2	R1091N
2786.471	0.951	3534009	TEST_ORIENT	n/a	2	4	PLANT	n/a	PLANT	BUSH	16	[0, 0, 0]	-999	PAL1	2	R1091N
2787.422	0.0	3534960	TEST_PROBE	n/a	2	4	PLANT	n/a	PLANT	BUSH	16	[0, 0, 0]	-999	PAL1	2	R1091N
2787.422	5.015	3534960	REC_START	n/a	2	-999	n/a	n/a	n/a	n/a	16	[0, 0, 0]	-999	PAL1	2	R1091N
2792.437	0.002	3539974	REC_EVENT	5015	2	4	PLANT	<>	PLANT	BUSH	16	[0, 0, 0]	-999	PAL1	2	R1091N
2792.439	0.017	3539976	REC_END	n/a	2	-999	n/a	n/a	n/a	n/a	16	[0, 0, 0]	-999	PAL1	2	R1091N
2792.456	0.816	3539993	TEST_ORIENT	n/a	5	5	MAIL	n/a	MAIL	ROSE	16	[0, 0, 0]	-999	PAL1	2	R1091N
2793.272	0.0	3540809	TEST_PROBE	n/a	5	5	MAIL	n/a	MAIL	ROSE	16	[0, 0, 0]	-999	PAL1	2	R1091N
2793.272	5.026	3540809	REC_START	n/a	5	-999	n/a	n/a	n/a	n/a	16	[0, 0, 0]	-999	PAL1	2	R1091N
2798.298	0.001	3545835	REC_END	n/a	5	-999	n/a	n/a	n/a	n/a	16	[0, 0, 0]	-999	PAL1	2	R1091N
2798.299	0.007	3545836	REC_EVENT	5027	5	5	MAIL	<>	MAIL	ROSE	16	[0, 0, 0]	-999	PAL1	2	R1091N
2798.306	0.917	3545843	TEST_ORIENT	n/a	4	6	BED	n/a	FOX	BED	16	[0, 0, 0]	-999	PAL1	2	R1091N
2799.223	0.0	3546760	TEST_PROBE	n/a	4	6	BED	n/a	FOX	BED	16	[0, 0, 0]	-999	PAL1	2	R1091N
2799.223	1.801	3546760	REC_START	n/a	4	-999	n/a	n/a	n/a	n/a	16	[0, 0, 0]	-999	PAL1	2	R1091N
2801.024	3.216	3548561	REC_EVENT	1801	4	6	BED	<>	FOX	BED	16	[0, 0, 0]	-999	PAL1	2	R1091N
2804.24	2.435	3551777	REC_END	n/a	4	-999	n/a	n/a	n/a	n/a	16	[0, 0, 0]	-999	PAL1	2	R1091N
2806.675	10.451	3554212	ENCODING_START	n/a	0	-999	n/a	n/a	n/a	n/a	17	[0, 0, 0]	-999	PAL1	2	R1091N
2817.126	0.851	3564663	STUDY_ORIENT	n/a	1	3	ROPE	n/a	STAIR	ROPE	17	[0, 0, 0]	-999	PAL1	2	R1091N
2817.977	5.034	3565513	STUDY_PAIR	n/a	1	3	ROPE	n/a	STAIR	ROPE	17	[0, 0, 0]	-999	PAL1	2	R1091N
2823.011	1.0	3570547	STUDY_ORIENT	n/a	2	4	FAN	SEAL	SEAL	FAN	17	[0, 0, 0]	-999	PAL1	2	R1091N
2824.011	5.034	3571547	STUDY_PAIR	n/a	2	4	FAN	SEAL	SEAL	FAN	17	[0, 0, 0]	-999	PAL1	2	R1091N
2829.045	1.017	3576581	STUDY_ORIENT	n/a	3	5	BRICK	n/a	BRICK	PEN	17	[0, 0, 0]	-999	PAL1	2	R1091N
2830.062	5.034	3577598	STUDY_PAIR	n/a	3	5	BRICK	n/a	BRICK	PEN	17	[0, 0, 0]	-999	PAL1	2	R1091N
2835.096	1.0	3582632	STUDY_ORIENT	n/a	4	6	GLASS	FOOD	GLASS	FOOD	17	[0, 0, 0]	-999	PAL1	2	R1091N
2836.096	5.017	3583632	STUDY_PAIR	n/a	4	6	GLASS	FOOD	GLASS	FOOD	17	[0, 0, 0]	-999	PAL1	2	R1091N
2841.113	0.818	3588649	STUDY_ORIENT	n/a	5	1	DITCH	n/a	DITCH	FARM	17	[0, 0, 0]	-999	PAL1	2	R1091N
2841.931	5.034	3589467	STUDY_PAIR	n/a	5	1	DITCH	n/a	DITCH	FARM	17	[0, 0, 0]	-999	PAL1	2	R1091N
2846.965	0.783	3594500	STUDY_ORIENT	n/a	6	2	FACE	n/a	FACE	CORD	17	[0, 0, 0]	-999	PAL1	2	R1091N
2847.748	4.001	3595283	STUDY_PAIR	n/a	6	2	FACE	n/a	FACE	CORD	17	[0, 0, 0]	-999	PAL1	2	R1091N
2851.749	1.0	3599284	START	n/a	-999	-999	n/a	n/a	n/a	n/a	17	[-999, -999, -999]	-999	PAL1	2	R1091N
2852.749	0.017	3600284	MATH_START	n/a	-999	-999	n/a	n/a	n/a	n/a	17	[0, 0, 0]	-999	PAL1	2	R1091N
2852.766	8.467	3600301	PROB	8444	-999	-999	n/a	n/a	n/a	n/a	17	[9, 4, 2]	14	PAL1	2	R1091N
2861.233	6.935	3608768	PROB	6905	-999	-999	n/a	n/a	n/a	n/a	17	[1, 9, 8]	18	PAL1	2	R1091N
2868.168	14.387	3615703	PROB	14387	-999	-999	n/a	n/a	n/a	n/a	17	[8, 9, 8]	26	PAL1	2	R1091N
2882.555	0.016	3630089	STOP	n/a	-999	-999	n/a	n/a	n/a	n/a	17	[-999, -999, -999]	-999	PAL1	2	R1091N
2882.571	0.0	3630105	MATH_END	n/a	-999	-999	n/a	n/a	n/a	n/a	17	[0, 0, 0]	-999	PAL1	2	R1091N
2882.571	0.017	3630105	TEST_START	n/a	-999	-999	n/a	n/a	n/a	n/a	17	[0, 0, 0]	-999	PAL1	2	R1091N
2882.588	1.033	3630122	TEST_ORIENT	n/a	5	1	DITCH	n/a	DITCH	FARM	17	[0, 0, 0]	-999	PAL1	2	R1091N
2883.621	0.001	3631155	TEST_PROBE	n/a	5	1	DITCH	n/a	DITCH	FARM	17	[0, 0, 0]	-999	PAL1	2	R1091N
2883.622	5.009	3631156	REC_START	n/a	5	-999	n/a	n/a	n/a	n/a	17	[0, 0, 0]	-999	PAL1	2	R1091N
2888.631	0.001	3636165	REC_EVENT	5009	5	1	DITCH	<>	DITCH	FARM	17	[0, 0, 0]	-999	PAL1	2	R1091N
2888.632	0.007	3636166	REC_END	n/a	5	-999	n/a	n/a	n/a	n/a	17	[0, 0, 0]	-999	PAL1	2	R1091N
2888.639	0.967	3636173	TEST_ORIENT	n/a	6	2	FACE	n/a	FACE	CORD	17	[0, 0, 0]	-999	PAL1	2	R1091N
2889.606	0.0	3637140	TEST_PROBE	n/a	6	2	FACE	n/a	FACE	CORD	17	[0, 0, 0]	-999	PAL1	2	R1091N
2889.606	0.0	3637140	REC_START	n/a	6	-999	n/a	n/a	n/a	n/a	17	[0, 0, 0]	-999	PAL1	2	R1091N
2889.606	2.009	3637140	REC_EVENT	0	6	2	FACE	<>	FACE	CORD	17	[0, 0, 0]	-999	PAL1	2	R1091N
2891.615	3.008	3639149	REC_EVENT	2009	6	2	FACE	<>	FACE	CORD	17	[0, 0, 0]	-999	PAL1	2	R1091N
2894.623	0.017	3642157	REC_END	n/a	6	-999	n/a	n/a	n/a	n/a	17	[0, 0, 0]	-999	PAL1	2	R1091N
2894.64	0.983	3642174	TEST_ORIENT	n/a	1	3	ROPE	n/a	STAIR	ROPE	17	[0, 0, 0]	-999	PAL1	2	R1091N
2895.623	0.001	3643157	TEST_PROBE	n/a	1	3	ROPE	n/a	STAIR	ROPE	17	[0, 0, 0]	-999	PAL1	2	R1091N
2895.624	5.009	3643158	REC_START	n/a	1	-999	n/a	n/a	n/a	n/a	17	[0, 0, 0]	-999	PAL1	2	R1091N
2900.633	0.0	3648166	REC_EVENT	5009	1	3	ROPE	<>	STAIR	ROPE	17	[0, 0, 0]	-999	PAL1	2	R1091N
2900.633	0.008	3648166	REC_END	n/a	1	-999	n/a	n/a	n/a	n/a	17	[0, 0, 0]	-999	PAL1	2	R1091N
2900.641	0.8	3648174	TEST_ORIENT	n/a	2	4	FAN	SEAL	SEAL	FAN	17	[0, 0, 0]	-999	PAL1	2	R1091N
2901.441	0.0	3648974	TEST_PROBE	n/a	2	4	FAN	SEAL	SEAL	FAN	17	[0, 0, 0]	-999	PAL1	2	R1091N
2901.441	3.061	3648974	REC_START	n/a	2	-999	n/a	SEAL	n/a	n/a	17	[0, 0, 0]	-999	PAL1	2	R1091N
2904.502	0.204	3652035	REC_EVENT	3061	2	4	FAN	FAN	SEAL	FAN	17	[0, 0, 0]	-999	PAL1	2	R1091N
2904.706	1.761	3652239	REC_EVENT	3265	2	4	FAN	SEAL	SEAL	FAN	17	[0, 0, 0]	-999	PAL1	2	R1091N
2906.467	0.008	3654000	REC_END	n/a	2	-999	n/a	n/a	n/a	n/a	17	[0, 0, 0]	-999	PAL1	2	R1091N
2906.475	1.017	3654008	TEST_ORIENT	n/a	3	5	BRICK	n/a	BRICK	PEN	17	[0, 0, 0]	-999	PAL1	2	R1091N
2907.492	0.001	3655025	TEST_PROBE	n/a	3	5	BRICK	n/a	BRICK	PEN	17	[0, 0, 0]	-999	PAL1	2	R1091N
2907.493	2.154	3655026	REC_START	n/a	3	-999	n/a	n/a	n/a	n/a	17	[0, 0, 0]	-999	PAL1	2	R1091N
2909.647	2.871	3657180	REC_EVENT	2154	3	5	BRICK	<>	BRICK	PEN	17	[0, 0, 0]	-999	PAL1	2	R1091N
2912.518	0.008	3660051	REC_END	n/a	3	-999	n/a	n/a	n/a	n/a	17	[0, 0, 0]	-999	PAL1	2	R1091N
2912.526	0.85	3660059	TEST_ORIENT	n/a	4	6	GLASS	FOOD	GLASS	FOOD	17	[0, 0, 0]	-999	PAL1	2	R1091N
2913.376	0.0	3660909	TEST_PROBE	n/a	4	6	GLASS	FOOD	GLASS	FOOD	17	[0, 0, 0]	-999	PAL1	2	R1091N
2913.376	1.873	3660909	REC_START	n/a	4	-999	n/a	FOOD	n/a	n/a	17	[0, 0, 0]	-999	PAL1	2	R1091N
2915.249	3.145	3662782	REC_EVENT	1873	4	6	GLASS	FOOD	GLASS	FOOD	17	[0, 0, 0]	-999	PAL1	2	R1091N
2918.394	22.72	3665927	REC_END	n/a	4	-999	n/a	n/a	n/a	n/a	17	[0, 0, 0]	-999	PAL1	2	R1091N
2941.114	10.452	3688646	ENCODING_START	n/a	0	-999	n/a	n/a	n/a	n/a	18	[0, 0, 0]	-999	PAL1	2	R1091N
2951.566	0.85	3699098	STUDY_ORIENT	n/a	1	1	MULE	n/a	MULE	THUMB	18	[0, 0, 0]	-999	PAL1	2	R1091N
2952.416	5.034	3699948	STUDY_PAIR	n/a	1	1	MULE	n/a	MULE	THUMB	18	[0, 0, 0]	-999	PAL1	2	R1091N
2957.45	0.799	3704981	STUDY_ORIENT	n/a	2	2	SHIP	n/a	SPONGE	SHIP	18	[0, 0, 0]	-999	PAL1	2	R1091N
2958.249	5.018	3705780	STUDY_PAIR	n/a	2	2	SHIP	n/a	SPONGE	SHIP	18	[0, 0, 0]	-999	PAL1	2	R1091N
2963.267	0.967	3710798	STUDY_ORIENT	n/a	3	5	BRANCH	n/a	BRANCH	SUIT	18	[0, 0, 0]	-999	PAL1	2	R1091N
2964.234	5.034	3711765	STUDY_PAIR	n/a	3	5	BRANCH	n/a	BRANCH	SUIT	18	[0, 0, 0]	-999	PAL1	2	R1091N
2969.268	0.883	3716799	STUDY_ORIENT	n/a	4	6	WAVE	n/a	SWORD	WAVE	18	[0, 0, 0]	-999	PAL1	2	R1091N
2970.151	5.018	3717682	STUDY_PAIR	n/a	4	6	WAVE	n/a	SWORD	WAVE	18	[0, 0, 0]	-999	PAL1	2	R1091N
2975.169	0.95	3722700	STUDY_ORIENT	n/a	5	3	PIT	n/a	SCHOOL	PIT	18	[0, 0, 0]	-999	PAL1	2	R1091N
2976.119	5.034	3723650	STUDY_PAIR	n/a	5	3	PIT	n/a	SCHOOL	PIT	18	[0, 0, 0]	-999	PAL1	2	R1091N
2981.153	0.851	3728684	STUDY_ORIENT	n/a	6	4	TEA	n/a	TEA	NAIL	18	[0, 0, 0]	-999	PAL1	2	R1091N
2982.004	4.001	3729534	STUDY_PAIR	n/a	6	4	TEA	n/a	TEA	NAIL	18	[0, 0, 0]	-999	PAL1	2	R1091N
2986.005	1.0	3733535	START	n/a	-999	-999	n/a	n/a	n/a	n/a	18	[-999, -999, -999]	-999	PAL1	2	R1091N
2987.005	0.017	3734535	MATH_START	n/a	-999	-999	n/a	n/a	n/a	n/a	18	[0, 0, 0]	-999	PAL1	2	R1091N
2987.022	12.752	3734552	PROB	12733	-999	-999	n/a	n/a	n/a	n/a	18	[4, 3, 7]	14	PAL1	2	R1091N
2999.774	9.013	3747304	PROB	9013	-999	-999	n/a	n/a	n/a	n/a	18	[9, 5, 3]	17	PAL1	2	R1091N
3008.787	0.005	3756317	STOP	n/a	-999	-999	n/a	n/a	n/a	n/a	18	[-999, -999, -999]	-999	PAL1	2	R1091N
3008.792	0.0	3756322	MATH_END	n/a	-999	-999	n/a	n/a	n/a	n/a	18	[0, 0, 0]	-999	PAL1	2	R1091N
3008.792	0.017	3756322	TEST_START	n/a	-999	-999	n/a	n/a	n/a	n/a	18	[0, 0, 0]	-999	PAL1	2	R1091N
3008.809	1.0	3756339	TEST_ORIENT	n/a	1	1	MULE	n/a	MULE	THUMB	18	[0, 0, 0]	-999	PAL1	2	R1091N
3009.809	0.0	3757338	TEST_PROBE	n/a	1	1	MULE	n/a	MULE	THUMB	18	[0, 0, 0]	-999	PAL1	2	R1091N
3009.809	5.015	3757338	REC_START	n/a	1	-999	n/a	n/a	n/a	n/a	18	[0, 0, 0]	-999	PAL1	2	R1091N
3014.824	0.002	3762353	REC_EVENT	5015	1	1	MULE	<>	MULE	THUMB	18	[0, 0, 0]	-999	PAL1	2	R1091N
3014.826	0.017	3762355	REC_END	n/a	1	-999	n/a	n/a	n/a	n/a	18	[0, 0, 0]	-999	PAL1	2	R1091N
3014.843	0.917	3762372	TEST_ORIENT	n/a	2	2	SHIP	n/a	SPONGE	SHIP	18	[0, 0, 0]	-999	PAL1	2	R1091N
3015.76	0.0	3763289	TEST_PROBE	n/a	2	2	SHIP	n/a	SPONGE	SHIP	18	[0, 0, 0]	-999	PAL1	2	R1091N
3015.76	5.015	3763289	REC_START	n/a	2	-999	n/a	n/a	n/a	n/a	18	[0, 0, 0]	-999	PAL1	2	R1091N
3020.775	0.002	3768304	REC_EVENT	5015	2	2	SHIP	<>	SPONGE	SHIP	18	[0, 0, 0]	-999	PAL1	2	R1091N
3020.777	0.017	3768306	REC_END	n/a	2	-999	n/a	n/a	n/a	n/a	18	[0, 0, 0]	-999	PAL1	2	R1091N
3020.794	0.984	3768323	TEST_ORIENT	n/a	5	3	PIT	n/a	SCHOOL	PIT	18	[0, 0, 0]	-999	PAL1	2	R1091N
3021.778	0.0	3769307	TEST_PROBE	n/a	5	3	PIT	n/a	SCHOOL	PIT	18	[0, 0, 0]	-999	PAL1	2	R1091N
3021.778	5.015	3769307	REC_START	n/a	5	-999	n/a	n/a	n/a	n/a	18	[0, 0, 0]	-999	PAL1	2	R1091N
3026.793	0.002	3774322	REC_EVENT	5015	5	3	PIT	<>	SCHOOL	PIT	18	[0, 0, 0]	-999	PAL1	2	R1091N
3026.795	0.017	3774324	REC_END	n/a	5	-999	n/a	n/a	n/a	n/a	18	[0, 0, 0]	-999	PAL1	2	R1091N
3026.812	0.984	3774341	TEST_ORIENT	n/a	6	4	TEA	n/a	TEA	NAIL	18	[0, 0, 0]	-999	PAL1	2	R1091N
3027.796	0.0	3775325	TEST_PROBE	n/a	6	4	TEA	n/a	TEA	NAIL	18	[0, 0, 0]	-999	PAL1	2	R1091N
3027.796	5.015	3775325	REC_START	n/a	6	-999	n/a	n/a	n/a	n/a	18	[0, 0, 0]	-999	PAL1	2	R1091N
3032.811	0.002	3780340	REC_EVENT	5015	6	4	TEA	<>	TEA	NAIL	18	[0, 0, 0]	-999	PAL1	2	R1091N
3032.813	0.017	3780342	REC_END	n/a	6	-999	n/a	n/a	n/a	n/a	18	[0, 0, 0]	-999	PAL1	2	R1091N
3032.83	1.033	3780359	TEST_ORIENT	n/a	3	5	BRANCH	n/a	BRANCH	SUIT	18	[0, 0, 0]	-999	PAL1	2	R1091N
3033.863	0.001	3781392	TEST_PROBE	n/a	3	5	BRANCH	n/a	BRANCH	SUIT	18	[0, 0, 0]	-999	PAL1	2	R1091N
3033.864	5.009	3781393	REC_START	n/a	3	-999	n/a	n/a	n/a	n/a	18	[0, 0, 0]	-999	PAL1	2	R1091N
3038.873	0.0	3786401	REC_EVENT	5009	3	5	BRANCH	<>	BRANCH	SUIT	18	[0, 0, 0]	-999	PAL1	2	R1091N
3038.873	0.007	3786401	REC_END	n/a	3	-999	n/a	n/a	n/a	n/a	18	[0, 0, 0]	-999	PAL1	2	R1091N
3038.88	1.034	3786408	TEST_ORIENT	n/a	4	6	WAVE	n/a	SWORD	WAVE	18	[0, 0, 0]	-999	PAL1	2	R1091N
3039.914	0.001	3787442	TEST_PROBE	n/a	4	6	WAVE	n/a	SWORD	WAVE	18	[0, 0, 0]	-999	PAL1	2	R1091N
3039.915	5.009	3787443	REC_START	n/a	4	-999	n/a	n/a	n/a	n/a	18	[0, 0, 0]	-999	PAL1	2	R1091N
3044.924	0.0	3792452	REC_END	n/a	4	-999	n/a	n/a	n/a	n/a	18	[0, 0, 0]	-999	PAL1	2	R1091N
3044.924	1.951	3792452	REC_EVENT	5009	4	6	WAVE	<>	SWORD	WAVE	18	[0, 0, 0]	-999	PAL1	2	R1091N
3046.875	10.441	3794403	ENCODING_START	n/a	0	-999	n/a	n/a	n/a	n/a	19	[0, 0, 0]	-999	PAL1	2	R1091N
3057.316	0.867	3804844	STUDY_ORIENT	n/a	1	5	LAMP	n/a	VAN	LAMP	19	[0, 0, 0]	-999	PAL1	2	R1091N
3058.183	5.017	3805711	STUDY_PAIR	n/a	1	5	LAMP	n/a	VAN	LAMP	19	[0, 0, 0]	-999	PAL1	2	R1091N
3063.2	0.768	3810728	STUDY_ORIENT	n/a	2	2	NOSE	PRODUCE	JUICE	NOSE	19	[0, 0, 0]	-999	PAL1	2	R1091N
3063.968	5.018	3811495	STUDY_PAIR	n/a	2	2	NOSE	PRODUCE	JUICE	NOSE	19	[0, 0, 0]	-999	PAL1	2	R1091N
3068.986	0.883	3816513	STUDY_ORIENT	n/a	3	1	BROOM	n/a	BROOM	RAT	19	[0, 0, 0]	-999	PAL1	2	R1091N
3069.869	5.018	3817396	STUDY_PAIR	n/a	3	1	BROOM	n/a	BROOM	RAT	19	[0, 0, 0]	-999	PAL1	2	R1091N
3074.887	0.783	3822414	STUDY_ORIENT	n/a	4	4	JET	n/a	JET	CAGE	19	[0, 0, 0]	-999	PAL1	2	R1091N
3075.67	5.018	3823197	STUDY_PAIR	n/a	4	4	JET	n/a	JET	CAGE	19	[0, 0, 0]	-999	PAL1	2	R1091N
3080.688	0.833	3828215	STUDY_ORIENT	n/a	5	3	SLIME	n/a	DRUM	SLIME	19	[0, 0, 0]	-999	PAL1	2	R1091N
3081.521	5.018	3829048	STUDY_PAIR	n/a	5	3	SLIME	n/a	DRUM	SLIME	19	[0, 0, 0]	-999	PAL1	2	R1091N
3086.539	0.983	3834066	STUDY_ORIENT	n/a	6	6	SPARK	n/a	SPARK	RICE	19	[0, 0, 0]	-999	PAL1	2	R1091N
3087.522	4.001	3835049	STUDY_PAIR	n/a	6	6	SPARK	n/a	SPARK	RICE	19	[0, 0, 0]	-999	PAL1	2	R1091N
3091.523	1.0	3839049	START	n/a	-999	-999	n/a	n/a	n/a	n/a	19	[-999, -999, -999]	-999	PAL1	2	R1091N
3092.523	0.017	3840049	MATH_START	n/a	-999	-999	n/a	n/a	n/a	n/a	19	[0, 0, 0]	-999	PAL1	2	R1091N
3092.54	6.067	3840066	PROB	6047	-999	-999	n/a	n/a	n/a	n/a	19	[3, 3, 5]	12	PAL1	2	R1091N
3098.607	6.601	3846133	PROB	6571	-999	-999	n/a	n/a	n/a	n/a	19	[8, 9, 2]	19	PAL1	2	R1091N
3105.208	4.984	3852734	PROB	4962	-999	-999	n/a	n/a	n/a	n/a	19	[5, 7, 7]	19	PAL1	2	R1091N
3110.192	3.627	3857718	PROB	3627	-999	-999	n/a	n/a	n/a	n/a	19	[4, 2, 6]	12	PAL1	2	R1091N
3113.819	0.008	3861345	STOP	n/a	-999	-999	n/a	n/a	n/a	n/a	19	[-999, -999, -999]	-999	PAL1	2	R1091N
3113.827	0.0	3861353	MATH_END	n/a	-999	-999	n/a	n/a	n/a	n/a	19	[0, 0, 0]	-999	PAL1	2	R1091N
3113.827	0.016	3861353	TEST_START	n/a	-999	-999	n/a	n/a	n/a	n/a	19	[0, 0, 0]	-999	PAL1	2	R1091N
3113.843	0.834	3861369	TEST_ORIENT	n/a	3	1	BROOM	n/a	BROOM	RAT	19	[0, 0, 0]	-999	PAL1	2	R1091N
3114.677	0.0	3862203	TEST_PROBE	n/a	3	1	BROOM	n/a	BROOM	RAT	19	[0, 0, 0]	-999	PAL1	2	R1091N
3114.677	5.015	3862203	REC_START	n/a	3	-999	n/a	n/a	n/a	n/a	19	[0, 0, 0]	-999	PAL1	2	R1091N
3119.692	0.002	3867217	REC_EVENT	5015	3	1	BROOM	<>	BROOM	RAT	19	[0, 0, 0]	-999	PAL1	2	R1091N
3119.694	0.017	3867219	REC_END	n/a	3	-999	n/a	n/a	n/a	n/a	19	[0, 0, 0]	-999	PAL1	2	R1091N
3119.711	0.934	3867236	TEST_ORIENT	n/a	2	2	NOSE	PRODUCE	JUICE	NOSE	19	[0, 0, 0]	-999	PAL1	2	R1091N
3120.645	0.0	3868170	TEST_PROBE	n/a	2	2	NOSE	PRODUCE	JUICE	NOSE	19	[0, 0, 0]	-999	PAL1	2	R1091N
3120.645	2.544	3868170	REC_START	n/a	2	-999	n/a	PRODUCE	n/a	n/a	19	[0, 0, 0]	-999	PAL1	2	R1091N
3123.189	2.473	3870714	REC_EVENT	2544	2	2	NOSE	PRODUCE	JUICE	NOSE	19	[0, 0, 0]	-999	PAL1	2	R1091N
3125.662	0.017	3873187	REC_END	n/a	2	-999	n/a	n/a	n/a	n/a	19	[0, 0, 0]	-999	PAL1	2	R1091N
3125.679	0.933	3873204	TEST_ORIENT	n/a	5	3	SLIME	n/a	DRUM	SLIME	19	[0, 0, 0]	-999	PAL1	2	R1091N
3126.612	0.001	3874137	TEST_PROBE	n/a	5	3	SLIME	n/a	DRUM	SLIME	19	[0, 0, 0]	-999	PAL1	2	R1091N
3126.613	5.009	3874138	REC_START	n/a	5	-999	n/a	n/a	n/a	n/a	19	[0, 0, 0]	-999	PAL1	2	R1091N
3131.622	0.0	3879147	REC_EVENT	5009	5	3	SLIME	<>	DRUM	SLIME	19	[0, 0, 0]	-999	PAL1	2	R1091N
3131.622	0.007	3879147	REC_END	n/a	5	-999	n/a	n/a	n/a	n/a	19	[0, 0, 0]	-999	PAL1	2	R1091N
3131.629	0.801	3879154	TEST_ORIENT	n/a	4	4	JET	n/a	JET	CAGE	19	[0, 0, 0]	-999	PAL1	2	R1091N
3132.43	0.0	3879955	TEST_PROBE	n/a	4	4	JET	n/a	JET	CAGE	19	[0, 0, 0]	-999	PAL1	2	R1091N
3132.43	5.015	3879955	REC_START	n/a	4	-999	n/a	n/a	n/a	n/a	19	[0, 0, 0]	-999	PAL1	2	R1091N
3137.445	0.002	3884970	REC_EVENT	5015	4	4	JET	<>	JET	CAGE	19	[0, 0, 0]	-999	PAL1	2	R1091N
3137.447	0.017	3884972	REC_END	n/a	4	-999	n/a	n/a	n/a	n/a	19	[0, 0, 0]	-999	PAL1	2	R1091N
3137.464	0.917	3884989	TEST_ORIENT	n/a	1	5	LAMP	n/a	VAN	LAMP	19	[0, 0, 0]	-999	PAL1	2	R1091N
3138.381	0.0	3885906	TEST_PROBE	n/a	1	5	LAMP	n/a	VAN	LAMP	19	[0, 0, 0]	-999	PAL1	2	R1091N
3138.381	5.015	3885906	REC_START	n/a	1	-999	n/a	n/a	n/a	n/a	19	[0, 0, 0]	-999	PAL1	2	R1091N
3143.396	0.002	3890921	REC_EVENT	5015	1	5	LAMP	<>	VAN	LAMP	19	[0, 0, 0]	-999	PAL1	2	R1091N
3143.398	0.017	3890923	REC_END	n/a	1	-999	n/a	n/a	n/a	n/a	19	[0, 0, 0]	-999	PAL1	2	R1091N
3143.415	0.866	3890940	TEST_ORIENT	n/a	6	6	SPARK	n/a	SPARK	RICE	19	[0, 0, 0]	-999	PAL1	2	R1091N
3144.281	0.0	3891806	TEST_PROBE	n/a	6	6	SPARK	n/a	SPARK	RICE	19	[0, 0, 0]	-999	PAL1	2	R1091N
3144.281	5.015	3891806	REC_START	n/a	6	-999	n/a	n/a	n/a	n/a	19	[0, 0, 0]	-999	PAL1	2	R1091N
3149.296	0.002	3896820	REC_EVENT	5015	6	6	SPARK	<>	SPARK	RICE	19	[0, 0, 0]	-999	PAL1	2	R1091N
3149.298	2.904	3896822	REC_END	n/a	6	-999	n/a	n/a	n/a	n/a	19	[0, 0, 0]	-999	PAL1	2	R1091N
3152.202	10.45	3899726	ENCODING_START	n/a	0	-999	n/a	n/a	n/a	n/a	20	[0, 0, 0]	-999	PAL1	2	R1091N
3162.652	0.8	3910176	STUDY_ORIENT	n/a	1	3	STICK	n/a	STICK	ELF	20	[0, 0, 0]	-999	PAL1	2	R1091N
3163.452	5.034	3910976	STUDY_PAIR	n/a	1	3	STICK	n/a	STICK	ELF	20	[0, 0, 0]	-999	PAL1	2	R1091N
3168.486	0.816	3916010	STUDY_ORIENT	n/a	2	4	CALF	n/a	TENT	CALF	20	[0, 0, 0]	-999	PAL1	2	R1091N
3169.302	5.034	3916826	STUDY_PAIR	n/a	2	4	CALF	n/a	TENT	CALF	20	[0, 0, 0]	-999	PAL1	2	R1091N
3174.336	0.867	3921859	STUDY_ORIENT	n/a	3	5	BARN	n/a	LAMB	BARN	20	[0, 0, 0]	-999	PAL1	2	R1091N
3175.203	5.034	3922726	STUDY_PAIR	n/a	3	5	BARN	n/a	LAMB	BARN	20	[0, 0, 0]	-999	PAL1	2	R1091N
3180.237	0.784	3927760	STUDY_ORIENT	n/a	4	6	FROG	n/a	STEAK	FROG	20	[0, 0, 0]	-999	PAL1	2	R1091N
3181.021	5.018	3928544	STUDY_PAIR	n/a	4	6	FROG	n/a	STEAK	FROG	20	[0, 0, 0]	-999	PAL1	2	R1091N
3186.039	0.967	3933562	STUDY_ORIENT	n/a	5	1	TOOTH	TOOTH	CLOWN	TOOTH	20	[0, 0, 0]	-999	PAL1	2	R1091N
3187.006	5.034	3934529	STUDY_PAIR	n/a	5	1	TOOTH	TOOTH	CLOWN	TOOTH	20	[0, 0, 0]	-999	PAL1	2	R1091N
3192.04	0.85	3939563	STUDY_ORIENT	n/a	6	2	CASH	n/a	CASH	RIB	20	[0, 0, 0]	-999	PAL1	2	R1091N
3192.89	4.018	3940413	STUDY_PAIR	n/a	6	2	CASH	n/a	CASH	RIB	20	[0, 0, 0]	-999	PAL1	2	R1091N
3196.908	0.999	3944431	START	n/a	-999	-999	n/a	n/a	n/a	n/a	20	[-999, -999, -999]	-999	PAL1	2	R1091N
3197.907	0.017	3945430	MATH_START	n/a	-999	-999	n/a	n/a	n/a	n/a	20	[0, 0, 0]	-999	PAL1	2	R1091N
3197.924	5.217	3945447	PROB	5198	-999	-999	n/a	n/a	n/a	n/a	20	[2, 8, 1]	11	PAL1	2	R1091N
3203.141	3.401	3950663	PROB	3366	-999	-999	n/a	n/a	n/a	n/a	20	[6, 4, 9]	19	PAL1	2	R1091N
3206.542	4.368	3954064	PROB	4333	-999	-999	n/a	n/a	n/a	n/a	20	[5, 1, 6]	12	PAL1	2	R1091N
3210.91	3.584	3958432	PROB	3549	-999	-999	n/a	n/a	n/a	n/a	20	[2, 4, 4]	10	PAL1	2	R1091N
3214.494	6.229	3962016	PROB	6229	-999	-999	n/a	n/a	n/a	n/a	20	[9, 1, 3]	13	PAL1	2	R1091N
3220.723	0.005	3968245	STOP	n/a	-999	-999	n/a	n/a	n/a	n/a	20	[-999, -999, -999]	-999	PAL1	2	R1091N
3220.728	0.0	3968250	MATH_END	n/a	-999	-999	n/a	n/a	n/a	n/a	20	[0, 0, 0]	-999	PAL1	2	R1091N
3220.728	0.017	3968250	TEST_START	n/a	-999	-999	n/a	n/a	n/a	n/a	20	[0, 0, 0]	-999	PAL1	2	R1091N
3220.745	0.9	3968267	TEST_ORIENT	n/a	5	1	TOOTH	TOOTH	CLOWN	TOOTH	20	[0, 0, 0]	-999	PAL1	2	R1091N
3221.645	0.0	3969167	REC_START	n/a	5	-999	n/a	TOOTH	n/a	n/a	20	[0, 0, 0]	-999	PAL1	2	R1091N
3221.645	1.959	3969167	TEST_PROBE	n/a	5	1	TOOTH	TOOTH	CLOWN	TOOTH	20	[0, 0, 0]	-999	PAL1	2	R1091N
3223.604	3.058	3971126	REC_EVENT	1959	5	1	TOOTH	TOOTH	CLOWN	TOOTH	20	[0, 0, 0]	-999	PAL1	2	R1091N
3226.662	0.017	3974184	REC_END	n/a	5	-999	n/a	n/a	n/a	n/a	20	[0, 0, 0]	-999	PAL1	2	R1091N
3226.679	0.884	3974201	TEST_ORIENT	n/a	6	2	CASH	n/a	CASH	RIB	20	[0, 0, 0]	-999	PAL1	2	R1091N
3227.563	0.0	3975085	TEST_PROBE	n/a	6	2	CASH	n/a	CASH	RIB	20	[0, 0, 0]	-999	PAL1	2	R1091N
3227.563	5.015	3975085	REC_START	n/a	6	-999	n/a	n/a	n/a	n/a	20	[0, 0, 0]	-999	PAL1	2	R1091N
3232.578	0.002	3980099	REC_EVENT	5015	6	2	CASH	<>	CASH	RIB	20	[0, 0, 0]	-999	PAL1	2	R1091N
3232.58	0.017	3980101	REC_END	n/a	6	-999	n/a	n/a	n/a	n/a	20	[0, 0, 0]	-999	PAL1	2	R1091N
3232.597	0.917	3980118	TEST_ORIENT	n/a	1	3	STICK	n/a	STICK	ELF	20	[0, 0, 0]	-999	PAL1	2	R1091N
3233.514	0.0	3981035	REC_START	n/a	1	-999	n/a	n/a	n/a	n/a	20	[0, 0, 0]	-999	PAL1	2	R1091N
3233.514	5.017	3981035	TEST_PROBE	n/a	1	3	STICK	n/a	STICK	ELF	20	[0, 0, 0]	-999	PAL1	2	R1091N
3238.531	0.004	3986052	REC_END	n/a	1	-999	n/a	n/a	n/a	n/a	20	[0, 0, 0]	-999	PAL1	2	R1091N
3238.535	0.013	3986056	REC_EVENT	5021	1	3	STICK	<>	STICK	ELF	20	[0, 0, 0]	-999	PAL1	2	R1091N
3238.548	0.883	3986069	TEST_ORIENT	n/a	2	4	CALF	n/a	TENT	CALF	20	[0, 0, 0]	-999	PAL1	2	R1091N
3239.431	0.001	3986952	TEST_PROBE	n/a	2	4	CALF	n/a	TENT	CALF	20	[0, 0, 0]	-999	PAL1	2	R1091N
3239.432	5.009	3986953	REC_START	n/a	2	-999	n/a	n/a	n/a	n/a	20	[0, 0, 0]	-999	PAL1	2	R1091N
3244.441	0.0	3991962	REC_EVENT	5009	2	4	CALF	<>	TENT	CALF	20	[0, 0, 0]	-999	PAL1	2	R1091N
3244.441	0.007	3991962	REC_END	n/a	2	-999	n/a	n/a	n/a	n/a	20	[0, 0, 0]	-999	PAL1	2	R1091N
3244.448	0.8	3991969	TEST_ORIENT	n/a	3	5	BARN	n/a	LAMB	BARN	20	[0, 0, 0]	-999	PAL1	2	R1091N
3245.248	0.0	3992769	TEST_PROBE	n/a	3	5	BARN	n/a	LAMB	BARN	20	[0, 0, 0]	-999	PAL1	2	R1091N
3245.248	5.015	3992769	REC_START	n/a	3	-999	n/a	n/a	n/a	n/a	20	[0, 0, 0]	-999	PAL1	2	R1091N
3250.263	0.002	3997784	REC_EVENT	5015	3	5	BARN	<>	LAMB	BARN	20	[0, 0, 0]	-999	PAL1	2	R1091N
3250.265	0.017	3997786	REC_END	n/a	3	-999	n/a	n/a	n/a	n/a	20	[0, 0, 0]	-999	PAL1	2	R1091N
3250.282	0.967	3997803	TEST_ORIENT	n/a	4	6	FROG	n/a	STEAK	FROG	20	[0, 0, 0]	-999	PAL1	2	R1091N
3251.249	0.0	3998770	TEST_PROBE	n/a	4	6	FROG	n/a	STEAK	FROG	20	[0, 0, 0]	-999	PAL1	2	R1091N
3251.249	5.015	3998770	REC_START	n/a	4	-999	n/a	n/a	n/a	n/a	20	[0, 0, 0]	-999	PAL1	2	R1091N
3256.264	0.002	4003784	REC_EVENT	5015	4	6	FROG	<>	STEAK	FROG	20	[0, 0, 0]	-999	PAL1	2	R1091N
3256.266	10.856	4003786	REC_END	n/a	4	-999	n/a	n/a	n/a	n/a	20	[0, 0, 0]	-999	PAL1	2	R1091N
3267.122	10.449	4014642	ENCODING_START	n/a	0	-999	n/a	n/a	n/a	n/a	21	[0, 0, 0]	-999	PAL1	2	R1091N
3277.571	0.799	4025091	STUDY_ORIENT	n/a	1	1	PANTS	DOCK	PANTS	DOCK	21	[0, 0, 0]	-999	PAL1	2	R1091N
3278.37	5.035	4025890	STUDY_PAIR	n/a	1	1	PANTS	DOCK	PANTS	DOCK	21	[0, 0, 0]	-999	PAL1	2	R1091N
3283.405	0.966	4030924	STUDY_ORIENT	n/a	2	2	STREET	n/a	STREET	WHEEL	21	[0, 0, 0]	-999	PAL1	2	R1091N
3284.371	5.035	4031890	STUDY_PAIR	n/a	2	2	STREET	n/a	STREET	WHEEL	21	[0, 0, 0]	-999	PAL1	2	R1091N
3289.406	0.783	4036925	STUDY_ORIENT	n/a	3	5	GATE	n/a	SHEEP	GATE	21	[0, 0, 0]	-999	PAL1	2	R1091N
3290.189	5.034	4037708	STUDY_PAIR	n/a	3	5	GATE	n/a	SHEEP	GATE	21	[0, 0, 0]	-999	PAL1	2	R1091N
3295.223	0.884	4042742	STUDY_ORIENT	n/a	4	6	CHEEK	BENCH	CHEEK	BENCH	21	[0, 0, 0]	-999	PAL1	2	R1091N
3296.107	5.017	4043626	STUDY_PAIR	n/a	4	6	CHEEK	BENCH	CHEEK	BENCH	21	[0, 0, 0]	-999	PAL1	2	R1091N
3301.124	0.884	4048643	STUDY_ORIENT	n/a	5	3	CORN	n/a	MOUSE	CORN	21	[0, 0, 0]	-999	PAL1	2	R1091N
3302.008	5.018	4049527	STUDY_PAIR	n/a	5	3	CORN	n/a	MOUSE	CORN	21	[0, 0, 0]	-999	PAL1	2	R1091N
3307.026	0.833	4054545	STUDY_ORIENT	n/a	6	4	GOLD	FILM	FILM	GOLD	21	[0, 0, 0]	-999	PAL1	2	R1091N
3307.859	4.001	4055378	STUDY_PAIR	n/a	6	4	GOLD	FILM	FILM	GOLD	21	[0, 0, 0]	-999	PAL1	2	R1091N
3311.86	1.0	4059378	START	n/a	-999	-999	n/a	n/a	n/a	n/a	21	[-999, -999, -999]	-999	PAL1	2	R1091N
3312.86	0.017	4060378	MATH_START	n/a	-999	-999	n/a	n/a	n/a	n/a	21	[0, 0, 0]	-999	PAL1	2	R1091N
3312.877	3.884	4060395	PROB	3862	-999	-999	n/a	n/a	n/a	n/a	21	[2, 2, 6]	10	PAL1	2	R1091N
3316.761	6.318	4064279	PROB	6298	-999	-999	n/a	n/a	n/a	n/a	21	[3, 9, 7]	19	PAL1	2	R1091N
3323.079	5.467	4070597	PROB	5436	-999	-999	n/a	n/a	n/a	n/a	21	[6, 8, 6]	20	PAL1	2	R1091N
