onset	duration	sample	trial_type	response_time	stim_file	serialpos	probepos	probe_word	resp_word	study_1	study_2	list	test	answer	experiment	session	subject
0.0	2175.067	-1	INSTRUCT_START	n/a	n/a	-999	-999	n/a	n/a	n/a	n/a	-1	[0, 0, 0]	-999	PAL1	0	R1353N
2175.067	246.723	1608	INSTRUCT_START	n/a	n/a	-999	-999	n/a	n/a	n/a	n/a	-1	[0, 0, 0]	-999	PAL1	0	R1353N
2421.79	5.635	248321	INSTRUCT_END	n/a	n/a	-999	-999	n/a	n/a	n/a	n/a	-1	[0, 0, 0]	-999	PAL1	0	R1353N
2427.425	29.254	253956	MIC TEST_START	n/a	n/a	-999	-999	n/a	n/a	n/a	n/a	-1	[0, 0, 0]	-999	PAL1	0	R1353N
2456.679	0.011	283209	MIC TEST_END	n/a	n/a	-999	-999	n/a	n/a	n/a	n/a	-1	[0, 0, 0]	-999	PAL1	0	R1353N
2456.69	0.0	283220	TRIAL_START	n/a	n/a	-999	-999	n/a	n/a	n/a	n/a	-1	[0, 0, 0]	-999	PAL1	0	R1353N
2456.69	0.001	283220	TRIAL	n/a	n/a	-999	-999	n/a	n/a	n/a	n/a	-1	[0, 0, 0]	-999	PAL1	0	R1353N
2456.691	3.056	283221	WAITING_START	n/a	n/a	-999	-999	n/a	n/a	n/a	n/a	-1	[0, 0, 0]	-999	PAL1	0	R1353N
2459.747	0.001	286277	WAITING_END	n/a	n/a	-999	-999	n/a	n/a	n/a	n/a	-1	[0, 0, 0]	-999	PAL1	0	R1353N
2459.748	10.0	286278	COUNTDOWN_START	n/a	n/a	-999	-999	n/a	n/a	n/a	n/a	-1	[0, 0, 0]	-999	PAL1	0	R1353N
2470.177	0.001	296707	COUNTDOWN_END	n/a	n/a	-999	-999	n/a	n/a	n/a	n/a	-1	[0, 0, 0]	-999	PAL1	0	R1353N
2470.178	0.688	296708	ORIENT_START	n/a	n/a	-999	-999	n/a	n/a	n/a	n/a	-1	[0, 0, 0]	-999	PAL1	0	R1353N
2470.866	0.0	297395	ENCODING_START	n/a	n/a	-999	-999	n/a	n/a	n/a	n/a	-1	[0, 0, 0]	-999	PAL1	0	R1353N
2470.866	1.002	297395	ORIENT_END	n/a	n/a	-999	-999	n/a	n/a	n/a	n/a	-1	[0, 0, 0]	-999	PAL1	0	R1353N
2471.868	4.0	298397	STUDY_PAIR	n/a	n/a	1	-999	n/a	n/a	BABY	COTTON	-1	[0, 0, 0]	-999	PAL1	0	R1353N
2475.899	0.715	302428	STUDY_PAIR_OFF	n/a	n/a	1	-999	n/a	n/a	BABY	COTTON	-1	[0, 0, 0]	-999	PAL1	0	R1353N
2476.614	4.0	303143	STUDY_PAIR	n/a	n/a	2	-999	n/a	n/a	RING	BEAM	-1	[0, 0, 0]	-999	PAL1	0	R1353N
2480.65	0.564	307179	STUDY_PAIR_OFF	n/a	n/a	2	-999	n/a	n/a	RING	BEAM	-1	[0, 0, 0]	-999	PAL1	0	R1353N
2481.214	4.0	307743	STUDY_PAIR	n/a	n/a	3	-999	n/a	n/a	TONGUE	CHEST	-1	[0, 0, 0]	-999	PAL1	0	R1353N
2485.251	0.738	311780	STUDY_PAIR_OFF	n/a	n/a	3	-999	n/a	n/a	TONGUE	CHEST	-1	[0, 0, 0]	-999	PAL1	0	R1353N
2485.989	4.0	312518	STUDY_PAIR	n/a	n/a	4	-999	n/a	n/a	CAMEL	WATCH	-1	[0, 0, 0]	-999	PAL1	0	R1353N
2490.018	0.642	316547	STUDY_PAIR_OFF	n/a	n/a	4	-999	n/a	n/a	CAMEL	WATCH	-1	[0, 0, 0]	-999	PAL1	0	R1353N
2490.66	4.0	317189	STUDY_PAIR	n/a	n/a	5	-999	n/a	n/a	IMAGE	RHINO	-1	[0, 0, 0]	-999	PAL1	0	R1353N
2494.685	0.729	321214	STUDY_PAIR_OFF	n/a	n/a	5	-999	n/a	n/a	IMAGE	RHINO	-1	[0, 0, 0]	-999	PAL1	0	R1353N
2495.414	4.0	321943	STUDY_PAIR	n/a	n/a	6	-999	n/a	n/a	FLOOD	WAGON	-1	[0, 0, 0]	-999	PAL1	0	R1353N
2499.453	0.0	325981	ENCODING_END	n/a	n/a	-999	-999	n/a	n/a	n/a	n/a	-1	[0, 0, 0]	-999	PAL1	0	R1353N
2499.453	0.001	325981	STUDY_PAIR_OFF	n/a	n/a	6	-999	n/a	n/a	FLOOD	WAGON	-1	[0, 0, 0]	-999	PAL1	0	R1353N
2499.454	0.0	325982	MATH_START	n/a	n/a	-999	-999	n/a	n/a	n/a	n/a	-1	[0, 0, 0]	-999	PAL1	0	R1353N
2499.454	0.016	325982	START	n/a	n/a	-999	-999	n/a	n/a	n/a	n/a	-1	[-999, -999, -999]	-999	PAL1	0	R1353N
2499.47	8.984	325998	PROB	8.957	n/a	-999	-999	n/a	n/a	n/a	n/a	-1	[9, 5, 3]	17	PAL1	0	R1353N
2508.454	4.501	334982	PROB	4.477	n/a	-999	-999	n/a	n/a	n/a	n/a	-1	[9, 2, 3]	14	PAL1	0	R1353N
2512.955	11.335	339483	PROB	11.335	n/a	-999	-999	n/a	n/a	n/a	n/a	-1	[8, 4, 7]	17	PAL1	0	R1353N
2524.29	0.017	350817	STOP	n/a	n/a	-999	-999	n/a	n/a	n/a	n/a	-1	[-999, -999, -999]	-999	PAL1	0	R1353N
2524.307	0.61	350834	MATH_END	n/a	n/a	-999	-999	n/a	n/a	n/a	n/a	-1	[0, 0, 0]	-999	PAL1	0	R1353N
2524.917	0.004	351444	RETRIEVAL_START	n/a	n/a	-999	-999	n/a	n/a	n/a	n/a	-1	[0, 0, 0]	-999	PAL1	0	R1353N
2524.921	0.286	351448	ORIENT_START	n/a	n/a	-999	-999	n/a	n/a	n/a	n/a	-1	[0, 0, 0]	-999	PAL1	0	R1353N
2525.207	0.623	351734	ORIENT_END	n/a	n/a	-999	-999	n/a	n/a	n/a	n/a	-1	[0, 0, 0]	-999	PAL1	0	R1353N
2525.83	0.001	352357	REC_START	n/a	n/a	5	1	IMAGE	n/a	IMAGE	RHINO	-1	[0, 0, 0]	-999	PAL1	0	R1353N
2525.831	4.0	352358	PROBE_START	n/a	n/a	5	1	IMAGE	n/a	IMAGE	RHINO	-1	[0, 0, 0]	-999	PAL1	0	R1353N
2529.858	1.0	356385	PROBE_END	n/a	n/a	5	1	IMAGE	n/a	IMAGE	RHINO	-1	[0, 0, 0]	-999	PAL1	0	R1353N
2530.858	0.015	357385	REC_END	n/a	n/a	5	1	IMAGE	n/a	IMAGE	RHINO	-1	[0, 0, 0]	-999	PAL1	0	R1353N
2530.873	0.285	357400	ORIENT_START	n/a	n/a	-999	-999	n/a	n/a	n/a	n/a	-1	[0, 0, 0]	-999	PAL1	0	R1353N
2531.158	0.611	357685	ORIENT_END	n/a	n/a	-999	-999	n/a	n/a	n/a	n/a	-1	[0, 0, 0]	-999	PAL1	0	R1353N
2531.769	0.007	358296	REC_EVENT	5.938	n/a	5	1	IMAGE	<>	IMAGE	RHINO	-1	[0, 0, 0]	-999	PAL1	0	R1353N
2531.776	0.001	358303	REC_START	n/a	n/a	6	2	WAGON	n/a	FLOOD	WAGON	-1	[0, 0, 0]	-999	PAL1	0	R1353N
2531.777	4.0	358304	PROBE_START	n/a	n/a	6	2	WAGON	n/a	FLOOD	WAGON	-1	[0, 0, 0]	-999	PAL1	0	R1353N
2535.809	1.0	362336	PROBE_END	n/a	n/a	6	2	WAGON	n/a	FLOOD	WAGON	-1	[0, 0, 0]	-999	PAL1	0	R1353N
2536.809	0.013	363336	REC_END	n/a	n/a	6	2	WAGON	n/a	FLOOD	WAGON	-1	[0, 0, 0]	-999	PAL1	0	R1353N
2536.822	0.27	363349	ORIENT_START	n/a	n/a	-999	-999	n/a	n/a	n/a	n/a	-1	[0, 0, 0]	-999	PAL1	0	R1353N
2537.092	0.599	363619	ORIENT_END	n/a	n/a	-999	-999	n/a	n/a	n/a	n/a	-1	[0, 0, 0]	-999	PAL1	0	R1353N
2537.691	0.0	364218	REC_START	n/a	n/a	1	3	BABY	n/a	BABY	COTTON	-1	[0, 0, 0]	-999	PAL1	0	R1353N
2537.691	4.0	364218	PROBE_START	n/a	n/a	1	3	BABY	n/a	BABY	COTTON	-1	[0, 0, 0]	-999	PAL1	0	R1353N
2537.715	4.011	364242	REC_EVENT	5.938	n/a	6	2	WAGON	<>	FLOOD	WAGON	-1	[0, 0, 0]	-999	PAL1	0	R1353N
2541.726	1.001	368253	PROBE_END	n/a	n/a	1	3	BABY	n/a	BABY	COTTON	-1	[0, 0, 0]	-999	PAL1	0	R1353N
2542.727	0.014	369254	REC_END	n/a	n/a	1	3	BABY	n/a	BABY	COTTON	-1	[0, 0, 0]	-999	PAL1	0	R1353N
2542.741	0.286	369268	ORIENT_START	n/a	n/a	-999	-999	n/a	n/a	n/a	n/a	-1	[0, 0, 0]	-999	PAL1	0	R1353N
2543.027	0.567	369554	ORIENT_END	n/a	n/a	-999	-999	n/a	n/a	n/a	n/a	-1	[0, 0, 0]	-999	PAL1	0	R1353N
2543.594	0.158	370121	REC_EVENT	5.903	n/a	1	3	BABY	<>	BABY	COTTON	-1	[0, 0, 0]	-999	PAL1	0	R1353N
2543.752	0.0	370279	REC_START	n/a	n/a	2	4	BEAM	n/a	RING	BEAM	-1	[0, 0, 0]	-999	PAL1	0	R1353N
2543.752	4.0	370279	PROBE_START	n/a	n/a	2	4	BEAM	n/a	RING	BEAM	-1	[0, 0, 0]	-999	PAL1	0	R1353N
2547.777	1.0	374303	PROBE_END	n/a	n/a	2	4	BEAM	n/a	RING	BEAM	-1	[0, 0, 0]	-999	PAL1	0	R1353N
2548.777	0.007	375303	REC_END	n/a	n/a	2	4	BEAM	n/a	RING	BEAM	-1	[0, 0, 0]	-999	PAL1	0	R1353N
2548.784	0.277	375310	ORIENT_START	n/a	n/a	-999	-999	n/a	n/a	n/a	n/a	-1	[0, 0, 0]	-999	PAL1	0	R1353N
2549.061	0.728	375587	ORIENT_END	n/a	n/a	-999	-999	n/a	n/a	n/a	n/a	-1	[0, 0, 0]	-999	PAL1	0	R1353N
2549.789	0.018	376315	REC_EVENT	6.037	n/a	2	4	BEAM	<>	RING	BEAM	-1	[0, 0, 0]	-999	PAL1	0	R1353N
2549.807	0.0	376333	REC_START	n/a	n/a	3	5	TONGUE	n/a	TONGUE	CHEST	-1	[0, 0, 0]	-999	PAL1	0	R1353N
2549.807	4.0	376333	PROBE_START	n/a	n/a	3	5	TONGUE	n/a	TONGUE	CHEST	-1	[0, 0, 0]	-999	PAL1	0	R1353N
2553.845	1.001	380371	PROBE_END	n/a	n/a	3	5	TONGUE	n/a	TONGUE	CHEST	-1	[0, 0, 0]	-999	PAL1	0	R1353N
2554.846	0.006	381372	REC_END	n/a	n/a	3	5	TONGUE	n/a	TONGUE	CHEST	-1	[0, 0, 0]	-999	PAL1	0	R1353N
2554.852	0.277	381378	ORIENT_START	n/a	n/a	-999	-999	n/a	n/a	n/a	n/a	-1	[0, 0, 0]	-999	PAL1	0	R1353N
2555.129	0.548	381655	ORIENT_END	n/a	n/a	-999	-999	n/a	n/a	n/a	n/a	-1	[0, 0, 0]	-999	PAL1	0	R1353N
2555.677	0.0	382203	REC_START	n/a	n/a	4	6	WATCH	n/a	CAMEL	WATCH	-1	[0, 0, 0]	-999	PAL1	0	R1353N
2555.677	4.0	382203	PROBE_START	n/a	n/a	4	6	WATCH	n/a	CAMEL	WATCH	-1	[0, 0, 0]	-999	PAL1	0	R1353N
2555.873	3.84	382399	REC_EVENT	6.066	n/a	3	5	TONGUE	<>	TONGUE	CHEST	-1	[0, 0, 0]	-999	PAL1	0	R1353N
2559.713	1.0	386239	PROBE_END	n/a	n/a	4	6	WATCH	n/a	CAMEL	WATCH	-1	[0, 0, 0]	-999	PAL1	0	R1353N
2560.713	0.012	387239	REC_END	n/a	n/a	4	6	WATCH	n/a	CAMEL	WATCH	-1	[0, 0, 0]	-999	PAL1	0	R1353N
2560.725	0.0	387251	PRACTICE_POST_INSTRUCT_START	n/a	n/a	-999	-999	n/a	n/a	n/a	n/a	-1	[0, 0, 0]	-999	PAL1	0	R1353N
2560.725	0.809	387251	RETRIEVAL_END	n/a	n/a	-999	-999	n/a	n/a	n/a	n/a	-1	[0, 0, 0]	-999	PAL1	0	R1353N
2561.534	42.137	388060	REC_EVENT	5.857	n/a	4	6	WATCH	<>	CAMEL	WATCH	-1	[0, 0, 0]	-999	PAL1	0	R1353N
2603.671	0.0	430195	PRACTICE_POST_INSTRUCT_END	n/a	n/a	-999	-999	n/a	n/a	n/a	n/a	-1	[0, 0, 0]	-999	PAL1	0	R1353N
2603.671	0.023	430195	TRIAL_END	n/a	n/a	-999	-999	n/a	n/a	n/a	n/a	-1	[0, 0, 0]	-999	PAL1	0	R1353N
2603.694	0.0	430218	TRIAL_START	n/a	n/a	-999	-999	n/a	n/a	n/a	n/a	-1	[0, 0, 0]	-999	PAL1	0	R1353N
2603.694	0.0	430218	TRIAL	n/a	n/a	-999	-999	n/a	n/a	n/a	n/a	1	[0, 0, 0]	-999	PAL1	0	R1353N
2603.694	3.477	430218	WAITING_START	n/a	n/a	-999	-999	n/a	n/a	n/a	n/a	1	[0, 0, 0]	-999	PAL1	0	R1353N
2607.171	0.0	433695	WAITING_END	n/a	n/a	-999	-999	n/a	n/a	n/a	n/a	1	[0, 0, 0]	-999	PAL1	0	R1353N
2607.171	10.0	433695	COUNTDOWN_START	n/a	n/a	-999	-999	n/a	n/a	n/a	n/a	1	[0, 0, 0]	-999	PAL1	0	R1353N
2617.6	0.0	444124	COUNTDOWN_END	n/a	n/a	-999	-999	n/a	n/a	n/a	n/a	1	[0, 0, 0]	-999	PAL1	0	R1353N
2617.6	0.573	444124	ORIENT_START	n/a	n/a	-999	-999	n/a	n/a	n/a	n/a	1	[0, 0, 0]	-999	PAL1	0	R1353N
2618.173	0.0	444697	ORIENT_END	n/a	n/a	-999	-999	n/a	n/a	n/a	n/a	1	[0, 0, 0]	-999	PAL1	0	R1353N
2618.173	1.246	444697	ENCODING_START	n/a	n/a	-999	-999	n/a	n/a	n/a	n/a	1	[0, 0, 0]	-999	PAL1	0	R1353N
2619.419	4.0	445943	STUDY_PAIR	n/a	wordpools/wordpool_EN.txt	1	-999	n/a	n/a	WEB	PEAR	1	[0, 0, 0]	-999	PAL1	0	R1353N
2623.457	0.725	449981	STUDY_PAIR_OFF	n/a	n/a	1	-999	n/a	n/a	WEB	PEAR	1	[0, 0, 0]	-999	PAL1	0	R1353N
2624.182	4.0	450705	STUDY_PAIR	n/a	wordpools/wordpool_EN.txt	2	-999	n/a	n/a	HORSE	TEA	1	[0, 0, 0]	-999	PAL1	0	R1353N
2628.207	0.594	454730	STUDY_PAIR_OFF	n/a	n/a	2	-999	n/a	n/a	HORSE	TEA	1	[0, 0, 0]	-999	PAL1	0	R1353N
2628.801	4.0	455324	STUDY_PAIR	n/a	wordpools/wordpool_EN.txt	3	-999	n/a	n/a	STEAM	WORLD	1	[0, 0, 0]	-999	PAL1	0	R1353N
2632.842	0.531	459365	STUDY_PAIR_OFF	n/a	n/a	3	-999	n/a	n/a	STEAM	WORLD	1	[0, 0, 0]	-999	PAL1	0	R1353N
2633.373	4.0	459896	STUDY_PAIR	n/a	wordpools/wordpool_EN.txt	4	-999	n/a	n/a	BEAK	HILL	1	[0, 0, 0]	-999	PAL1	0	R1353N
2637.409	0.698	463932	STUDY_PAIR_OFF	n/a	n/a	4	-999	n/a	n/a	BEAK	HILL	1	[0, 0, 0]	-999	PAL1	0	R1353N
2638.107	4.0	464630	STUDY_PAIR	n/a	wordpools/wordpool_EN.txt	5	-999	n/a	MULE	MULE	DRESS	1	[0, 0, 0]	-999	PAL1	0	R1353N
2642.143	0.652	468666	STUDY_PAIR_OFF	n/a	n/a	5	-999	n/a	MULE	MULE	DRESS	1	[0, 0, 0]	-999	PAL1	0	R1353N
2642.795	4.0	469318	STUDY_PAIR	n/a	wordpools/wordpool_EN.txt	6	-999	n/a	RIB	RIB	LAMB	1	[0, 0, 0]	-999	PAL1	0	R1353N
2646.827	0.001	473350	STUDY_PAIR_OFF	n/a	n/a	6	-999	n/a	RIB	RIB	LAMB	1	[0, 0, 0]	-999	PAL1	0	R1353N
2646.828	0.0	473351	ENCODING_END	n/a	n/a	-999	-999	n/a	n/a	n/a	n/a	1	[0, 0, 0]	-999	PAL1	0	R1353N
2646.828	0.0	473351	MATH_START	n/a	n/a	-999	-999	n/a	n/a	n/a	n/a	1	[0, 0, 0]	-999	PAL1	0	R1353N
2646.828	0.016	473351	START	n/a	n/a	-999	-999	n/a	n/a	n/a	n/a	1	[-999, -999, -999]	-999	PAL1	0	R1353N
2646.844	7.418	473367	PROB	7.39	n/a	-999	-999	n/a	n/a	n/a	n/a	1	[2, 1, 6]	9	PAL1	0	R1353N
2654.262	6.501	480784	PROB	6.469	n/a	-999	-999	n/a	n/a	n/a	n/a	1	[6, 8, 5]	19	PAL1	0	R1353N
2660.763	6.992	487285	PROB	6.992	n/a	-999	-999	n/a	n/a	n/a	n/a	1	[7, 6, 4]	17	PAL1	0	R1353N
2667.755	0.009	494277	STOP	n/a	n/a	-999	-999	n/a	n/a	n/a	n/a	1	[-999, -999, -999]	-999	PAL1	0	R1353N
2667.764	0.586	494286	MATH_END	n/a	n/a	-999	-999	n/a	n/a	n/a	n/a	1	[0, 0, 0]	-999	PAL1	0	R1353N
2668.35	0.002	494872	RETRIEVAL_START	n/a	n/a	-999	-999	n/a	n/a	n/a	n/a	1	[0, 0, 0]	-999	PAL1	0	R1353N
2668.352	0.279	494874	ORIENT_START	n/a	n/a	-999	-999	n/a	n/a	n/a	n/a	1	[0, 0, 0]	-999	PAL1	0	R1353N
2668.631	0.607	495153	ORIENT_END	n/a	n/a	-999	-999	n/a	n/a	n/a	n/a	1	[0, 0, 0]	-999	PAL1	0	R1353N
2669.238	0.0	495760	REC_START	n/a	n/a	1	1	WEB	n/a	WEB	PEAR	1	[0, 0, 0]	-999	PAL1	0	R1353N
2669.238	4.0	495760	PROBE_START	n/a	wordpools/wordpool_EN.txt	1	1	WEB	n/a	WEB	PEAR	1	[0, 0, 0]	-999	PAL1	0	R1353N
2673.248	1.0	499770	PROBE_END	n/a	n/a	1	1	WEB	n/a	WEB	PEAR	1	[0, 0, 0]	-999	PAL1	0	R1353N
2674.248	0.012	500770	REC_END	n/a	n/a	1	1	WEB	n/a	WEB	PEAR	1	[0, 0, 0]	-999	PAL1	0	R1353N
2674.26	0.272	500782	ORIENT_START	n/a	n/a	-999	-999	n/a	n/a	n/a	n/a	1	[0, 0, 0]	-999	PAL1	0	R1353N
2674.532	0.603	501054	ORIENT_END	n/a	n/a	-999	-999	n/a	n/a	n/a	n/a	1	[0, 0, 0]	-999	PAL1	0	R1353N
2675.135	0.145	501656	REC_EVENT	5.897	n/a	1	1	WEB	<>	WEB	PEAR	1	[0, 0, 0]	-999	PAL1	0	R1353N
2675.28	0.0	501801	REC_START	n/a	n/a	2	2	HORSE	n/a	HORSE	TEA	1	[0, 0, 0]	-999	PAL1	0	R1353N
2675.28	4.0	501801	PROBE_START	n/a	wordpools/wordpool_EN.txt	2	2	HORSE	n/a	HORSE	TEA	1	[0, 0, 0]	-999	PAL1	0	R1353N
2679.316	1.0	505837	PROBE_END	n/a	n/a	2	2	HORSE	n/a	HORSE	TEA	1	[0, 0, 0]	-999	PAL1	0	R1353N
2680.316	0.007	506837	REC_END	n/a	n/a	2	2	HORSE	n/a	HORSE	TEA	1	[0, 0, 0]	-999	PAL1	0	R1353N
2680.323	0.276	506844	ORIENT_START	n/a	n/a	-999	-999	n/a	n/a	n/a	n/a	1	[0, 0, 0]	-999	PAL1	0	R1353N
2680.599	0.618	507120	ORIENT_END	n/a	n/a	-999	-999	n/a	n/a	n/a	n/a	1	[0, 0, 0]	-999	PAL1	0	R1353N
2681.217	0.001	507738	REC_START	n/a	n/a	3	3	STEAM	n/a	STEAM	WORLD	1	[0, 0, 0]	-999	PAL1	0	R1353N
2681.218	4.0	507739	PROBE_START	n/a	wordpools/wordpool_EN.txt	3	3	STEAM	n/a	STEAM	WORLD	1	[0, 0, 0]	-999	PAL1	0	R1353N
2681.334	3.916	507855	REC_EVENT	6.054	n/a	2	2	HORSE	<>	HORSE	TEA	1	[0, 0, 0]	-999	PAL1	0	R1353N
2685.25	1.001	511771	PROBE_END	n/a	n/a	3	3	STEAM	n/a	STEAM	WORLD	1	[0, 0, 0]	-999	PAL1	0	R1353N
2686.251	0.012	512772	REC_END	n/a	n/a	3	3	STEAM	n/a	STEAM	WORLD	1	[0, 0, 0]	-999	PAL1	0	R1353N
2686.263	0.271	512784	ORIENT_START	n/a	n/a	-999	-999	n/a	n/a	n/a	n/a	1	[0, 0, 0]	-999	PAL1	0	R1353N
2686.534	0.61	513055	ORIENT_END	n/a	n/a	-999	-999	n/a	n/a	n/a	n/a	1	[0, 0, 0]	-999	PAL1	0	R1353N
2687.144	0.014	513665	REC_EVENT	5.926	n/a	3	3	STEAM	<>	STEAM	WORLD	1	[0, 0, 0]	-999	PAL1	0	R1353N
2687.158	0.0	513679	REC_START	n/a	n/a	4	4	HILL	n/a	BEAK	HILL	1	[0, 0, 0]	-999	PAL1	0	R1353N
2687.158	4.0	513679	PROBE_START	n/a	wordpools/wordpool_EN.txt	4	4	HILL	n/a	BEAK	HILL	1	[0, 0, 0]	-999	PAL1	0	R1353N
2691.185	1.0	517706	PROBE_END	n/a	n/a	4	4	HILL	n/a	BEAK	HILL	1	[0, 0, 0]	-999	PAL1	0	R1353N
2692.185	0.011	518706	REC_END	n/a	n/a	4	4	HILL	n/a	BEAK	HILL	1	[0, 0, 0]	-999	PAL1	0	R1353N
2692.196	0.273	518717	ORIENT_START	n/a	n/a	-999	-999	n/a	n/a	n/a	n/a	1	[0, 0, 0]	-999	PAL1	0	R1353N
2692.469	0.615	518990	ORIENT_END	n/a	n/a	-999	-999	n/a	n/a	n/a	n/a	1	[0, 0, 0]	-999	PAL1	0	R1353N
2693.084	0.085	519605	REC_EVENT	5.926	n/a	4	4	HILL	<>	BEAK	HILL	1	[0, 0, 0]	-999	PAL1	0	R1353N
2693.169	0.0	519690	REC_START	n/a	n/a	5	5	DRESS	MULE	MULE	DRESS	1	[0, 0, 0]	-999	PAL1	0	R1353N
2693.169	4.0	519690	PROBE_START	n/a	wordpools/wordpool_EN.txt	5	5	DRESS	MULE	MULE	DRESS	1	[0, 0, 0]	-999	PAL1	0	R1353N
2695.31	1.892	521831	REC_EVENT	2.141	n/a	5	5	DRESS	MULE	MULE	DRESS	1	[0, 0, 0]	-999	PAL1	0	R1353N
2697.202	1.001	523723	PROBE_END	n/a	n/a	5	5	DRESS	n/a	MULE	DRESS	1	[0, 0, 0]	-999	PAL1	0	R1353N
2698.203	0.013	524724	REC_END	n/a	n/a	5	5	DRESS	n/a	MULE	DRESS	1	[0, 0, 0]	-999	PAL1	0	R1353N
2698.216	0.271	524737	ORIENT_START	n/a	n/a	-999	-999	n/a	n/a	n/a	n/a	1	[0, 0, 0]	-999	PAL1	0	R1353N
2698.487	0.519	525008	ORIENT_END	n/a	n/a	-999	-999	n/a	n/a	n/a	n/a	1	[0, 0, 0]	-999	PAL1	0	R1353N
2699.006	0.0	525527	REC_START	n/a	n/a	6	6	LAMB	RIB	RIB	LAMB	1	[0, 0, 0]	-999	PAL1	0	R1353N
2699.006	4.0	525527	PROBE_START	n/a	wordpools/wordpool_EN.txt	6	6	LAMB	RIB	RIB	LAMB	1	[0, 0, 0]	-999	PAL1	0	R1353N
2699.177	3.859	525698	REC_EVENT	6.008	n/a	5	5	DRESS	<>	MULE	DRESS	1	[0, 0, 0]	-999	PAL1	0	R1353N
2703.036	1.0	529556	PROBE_END	n/a	n/a	6	6	LAMB	n/a	RIB	LAMB	1	[0, 0, 0]	-999	PAL1	0	R1353N
2704.036	0.012	530556	REC_END	n/a	n/a	6	6	LAMB	n/a	RIB	LAMB	1	[0, 0, 0]	-999	PAL1	0	R1353N
2704.048	0.001	530568	RETRIEVAL_END	n/a	n/a	-999	-999	n/a	n/a	n/a	n/a	1	[0, 0, 0]	-999	PAL1	0	R1353N
2704.049	0.021	530569	TRIAL_END	n/a	n/a	-999	-999	n/a	n/a	n/a	n/a	1	[0, 0, 0]	-999	PAL1	0	R1353N
2704.07	0.001	530590	TRIAL_START	n/a	n/a	-999	-999	n/a	n/a	n/a	n/a	1	[0, 0, 0]	-999	PAL1	0	R1353N
2704.071	0.0	530591	TRIAL	n/a	n/a	-999	-999	n/a	n/a	n/a	n/a	2	[0, 0, 0]	-999	PAL1	0	R1353N
2704.071	0.177	530591	WAITING_START	n/a	n/a	-999	-999	n/a	n/a	n/a	n/a	2	[0, 0, 0]	-999	PAL1	0	R1353N
2704.248	4.456	530768	REC_EVENT	5.242	n/a	6	6	LAMB	RIB	RIB	LAMB	1	[0, 0, 0]	-999	PAL1	0	R1353N
2708.704	0.001	535224	WAITING_END	n/a	n/a	-999	-999	n/a	n/a	n/a	n/a	2	[0, 0, 0]	-999	PAL1	0	R1353N
2708.705	10.0	535225	COUNTDOWN_START	n/a	n/a	-999	-999	n/a	n/a	n/a	n/a	2	[0, 0, 0]	-999	PAL1	0	R1353N
2719.134	0.0	545654	COUNTDOWN_END	n/a	n/a	-999	-999	n/a	n/a	n/a	n/a	2	[0, 0, 0]	-999	PAL1	0	R1353N
2719.134	0.555	545654	ORIENT_START	n/a	n/a	-999	-999	n/a	n/a	n/a	n/a	2	[0, 0, 0]	-999	PAL1	0	R1353N
2719.689	0.001	546209	ORIENT_END	n/a	n/a	-999	-999	n/a	n/a	n/a	n/a	2	[0, 0, 0]	-999	PAL1	0	R1353N
2719.69	1.152	546210	ENCODING_START	n/a	n/a	-999	-999	n/a	n/a	n/a	n/a	2	[0, 0, 0]	-999	PAL1	0	R1353N
2720.842	4.0	547362	STUDY_PAIR	n/a	wordpools/wordpool_EN.txt	1	-999	n/a	n/a	BOOK	DOCK	2	[0, 0, 0]	-999	PAL1	0	R1353N
2724.873	0.522	551393	STUDY_PAIR_OFF	n/a	n/a	1	-999	n/a	n/a	BOOK	DOCK	2	[0, 0, 0]	-999	PAL1	0	R1353N
2725.395	4.0	551915	STUDY_PAIR	n/a	wordpools/wordpool_EN.txt	2	-999	n/a	n/a	HEART	LAWN	2	[0, 0, 0]	-999	PAL1	0	R1353N
2729.424	0.678	555943	STUDY_PAIR_OFF	n/a	n/a	2	-999	n/a	n/a	HEART	LAWN	2	[0, 0, 0]	-999	PAL1	0	R1353N
2730.102	4.0	556621	STUDY_PAIR	n/a	wordpools/wordpool_EN.txt	3	-999	n/a	LEAF	TREE	GOLD	2	[0, 0, 0]	-999	PAL1	0	R1353N
2734.142	0.536	560661	STUDY_PAIR_OFF	n/a	n/a	3	-999	n/a	LEAF	TREE	GOLD	2	[0, 0, 0]	-999	PAL1	0	R1353N
2734.678	4.0	561197	STUDY_PAIR	n/a	wordpools/wordpool_EN.txt	4	-999	n/a	n/a	FISH	SKUNK	2	[0, 0, 0]	-999	PAL1	0	R1353N
2738.709	0.679	565228	STUDY_PAIR_OFF	n/a	n/a	4	-999	n/a	n/a	FISH	SKUNK	2	[0, 0, 0]	-999	PAL1	0	R1353N
2739.388	4.0	565907	STUDY_PAIR	n/a	wordpools/wordpool_EN.txt	5	-999	n/a	n/a	SEA	SAIL	2	[0, 0, 0]	-999	PAL1	0	R1353N
2743.427	0.706	569946	STUDY_PAIR_OFF	n/a	n/a	5	-999	n/a	n/a	SEA	SAIL	2	[0, 0, 0]	-999	PAL1	0	R1353N
2744.133	4.0	570652	STUDY_PAIR	n/a	wordpools/wordpool_EN.txt	6	-999	n/a	n/a	BALL	GRAPE	2	[0, 0, 0]	-999	PAL1	0	R1353N
2748.161	0.0	574680	STUDY_PAIR_OFF	n/a	n/a	6	-999	n/a	n/a	BALL	GRAPE	2	[0, 0, 0]	-999	PAL1	0	R1353N
2748.161	0.0	574680	ENCODING_END	n/a	n/a	-999	-999	n/a	n/a	n/a	n/a	2	[0, 0, 0]	-999	PAL1	0	R1353N
2748.161	0.001	574680	MATH_START	n/a	n/a	-999	-999	n/a	n/a	n/a	n/a	2	[0, 0, 0]	-999	PAL1	0	R1353N
2748.162	0.015	574681	START	n/a	n/a	-999	-999	n/a	n/a	n/a	n/a	2	[-999, -999, -999]	-999	PAL1	0	R1353N
2748.177	6.134	574696	PROB	6.106	n/a	-999	-999	n/a	n/a	n/a	n/a	2	[6, 2, 1]	9	PAL1	0	R1353N
2754.311	4.651	580829	PROB	4.62	n/a	-999	-999	n/a	n/a	n/a	n/a	2	[7, 3, 8]	18	PAL1	0	R1353N
2758.962	4.168	585480	PROB	4.136	n/a	-999	-999	n/a	n/a	n/a	n/a	2	[9, 5, 5]	19	PAL1	0	R1353N
2763.13	4.25	589648	PROB	4.225	n/a	-999	-999	n/a	n/a	n/a	n/a	2	[9, 4, 6]	19	PAL1	0	R1353N
2767.38	4.822	593898	PROB	4.822	n/a	-999	-999	n/a	n/a	n/a	n/a	2	[8, 7, 2]	17	PAL1	0	R1353N
2772.202	0.013	598720	STOP	n/a	n/a	-999	-999	n/a	n/a	n/a	n/a	2	[-999, -999, -999]	-999	PAL1	0	R1353N
2772.215	0.651	598733	MATH_END	n/a	n/a	-999	-999	n/a	n/a	n/a	n/a	2	[0, 0, 0]	-999	PAL1	0	R1353N
2772.866	0.002	599384	RETRIEVAL_START	n/a	n/a	-999	-999	n/a	n/a	n/a	n/a	2	[0, 0, 0]	-999	PAL1	0	R1353N
2772.868	0.28	599386	ORIENT_START	n/a	n/a	-999	-999	n/a	n/a	n/a	n/a	2	[0, 0, 0]	-999	PAL1	0	R1353N
2773.148	0.517	599666	ORIENT_END	n/a	n/a	-999	-999	n/a	n/a	n/a	n/a	2	[0, 0, 0]	-999	PAL1	0	R1353N
2773.665	0.0	600183	REC_START	n/a	n/a	5	1	SAIL	n/a	SEA	SAIL	2	[0, 0, 0]	-999	PAL1	0	R1353N
2773.665	4.0	600183	PROBE_START	n/a	wordpools/wordpool_EN.txt	5	1	SAIL	n/a	SEA	SAIL	2	[0, 0, 0]	-999	PAL1	0	R1353N
2777.699	1.001	604216	PROBE_END	n/a	n/a	5	1	SAIL	n/a	SEA	SAIL	2	[0, 0, 0]	-999	PAL1	0	R1353N
2778.7	0.012	605217	REC_END	n/a	n/a	5	1	SAIL	n/a	SEA	SAIL	2	[0, 0, 0]	-999	PAL1	0	R1353N
2778.712	0.27	605229	ORIENT_START	n/a	n/a	-999	-999	n/a	n/a	n/a	n/a	2	[0, 0, 0]	-999	PAL1	0	R1353N
2778.982	0.516	605499	ORIENT_END	n/a	n/a	-999	-999	n/a	n/a	n/a	n/a	2	[0, 0, 0]	-999	PAL1	0	R1353N
2779.498	0.065	606015	REC_EVENT	5.833	n/a	5	1	SAIL	<>	SEA	SAIL	2	[0, 0, 0]	-999	PAL1	0	R1353N
2779.563	0.001	606080	REC_START	n/a	n/a	4	2	FISH	n/a	FISH	SKUNK	2	[0, 0, 0]	-999	PAL1	0	R1353N
2779.564	4.0	606081	PROBE_START	n/a	wordpools/wordpool_EN.txt	4	2	FISH	n/a	FISH	SKUNK	2	[0, 0, 0]	-999	PAL1	0	R1353N
2783.6	1.0	610117	PROBE_END	n/a	n/a	4	2	FISH	n/a	FISH	SKUNK	2	[0, 0, 0]	-999	PAL1	0	R1353N
2784.6	0.011	611117	REC_END	n/a	n/a	4	2	FISH	n/a	FISH	SKUNK	2	[0, 0, 0]	-999	PAL1	0	R1353N
2784.611	0.272	611128	ORIENT_START	n/a	n/a	-999	-999	n/a	n/a	n/a	n/a	2	[0, 0, 0]	-999	PAL1	0	R1353N
2784.883	0.567	611400	ORIENT_END	n/a	n/a	-999	-999	n/a	n/a	n/a	n/a	2	[0, 0, 0]	-999	PAL1	0	R1353N
2785.45	0.176	611967	REC_EVENT	5.886	n/a	4	2	FISH	<>	FISH	SKUNK	2	[0, 0, 0]	-999	PAL1	0	R1353N
2785.626	0.0	612143	REC_START	n/a	n/a	3	3	GOLD	LEAF	TREE	GOLD	2	[0, 0, 0]	-999	PAL1	0	R1353N
2785.626	4.0	612143	PROBE_START	n/a	wordpools/wordpool_EN.txt	3	3	GOLD	LEAF	TREE	GOLD	2	[0, 0, 0]	-999	PAL1	0	R1353N
2789.541	0.11	616058	REC_EVENT	3.915	n/a	3	3	GOLD	LEAF	TREE	GOLD	2	[0, 0, 0]	-999	PAL1	0	R1353N
2789.651	1.0	616168	PROBE_END	n/a	n/a	3	3	GOLD	n/a	TREE	GOLD	2	[0, 0, 0]	-999	PAL1	0	R1353N
2790.651	0.007	617168	REC_END	n/a	n/a	3	3	GOLD	n/a	TREE	GOLD	2	[0, 0, 0]	-999	PAL1	0	R1353N
2790.658	0.276	617175	ORIENT_START	n/a	n/a	-999	-999	n/a	n/a	n/a	n/a	2	[0, 0, 0]	-999	PAL1	0	R1353N
2790.934	0.75	617451	ORIENT_END	n/a	n/a	-999	-999	n/a	n/a	n/a	n/a	2	[0, 0, 0]	-999	PAL1	0	R1353N
2791.684	0.001	618201	REC_START	n/a	n/a	2	4	LAWN	n/a	HEART	LAWN	2	[0, 0, 0]	-999	PAL1	0	R1353N
2791.685	4.0	618202	PROBE_START	n/a	wordpools/wordpool_EN.txt	2	4	LAWN	n/a	HEART	LAWN	2	[0, 0, 0]	-999	PAL1	0	R1353N
2795.718	1.001	622235	PROBE_END	n/a	n/a	2	4	LAWN	n/a	HEART	LAWN	2	[0, 0, 0]	-999	PAL1	0	R1353N
2796.719	0.006	623236	REC_END	n/a	n/a	2	4	LAWN	n/a	HEART	LAWN	2	[0, 0, 0]	-999	PAL1	0	R1353N
2796.725	0.277	623242	ORIENT_START	n/a	n/a	-999	-999	n/a	n/a	n/a	n/a	2	[0, 0, 0]	-999	PAL1	0	R1353N
2797.002	0.573	623519	ORIENT_END	n/a	n/a	-999	-999	n/a	n/a	n/a	n/a	2	[0, 0, 0]	-999	PAL1	0	R1353N
2797.575	0.0	624092	REC_START	n/a	n/a	1	5	BOOK	n/a	BOOK	DOCK	2	[0, 0, 0]	-999	PAL1	0	R1353N
2797.575	4.0	624092	PROBE_START	n/a	wordpools/wordpool_EN.txt	1	5	BOOK	n/a	BOOK	DOCK	2	[0, 0, 0]	-999	PAL1	0	R1353N
2797.745	3.858	624262	REC_EVENT	6.06	n/a	2	4	LAWN	<>	HEART	LAWN	2	[0, 0, 0]	-999	PAL1	0	R1353N
2801.603	1.001	628120	PROBE_END	n/a	n/a	1	5	BOOK	n/a	BOOK	DOCK	2	[0, 0, 0]	-999	PAL1	0	R1353N
2802.604	0.011	629121	REC_END	n/a	n/a	1	5	BOOK	n/a	BOOK	DOCK	2	[0, 0, 0]	-999	PAL1	0	R1353N
2802.615	0.271	629132	ORIENT_START	n/a	n/a	-999	-999	n/a	n/a	n/a	n/a	2	[0, 0, 0]	-999	PAL1	0	R1353N
2802.886	0.569	629402	ORIENT_END	n/a	n/a	-999	-999	n/a	n/a	n/a	n/a	2	[0, 0, 0]	-999	PAL1	0	R1353N
2803.455	0.172	629971	REC_EVENT	5.88	n/a	1	5	BOOK	<>	BOOK	DOCK	2	[0, 0, 0]	-999	PAL1	0	R1353N
2803.627	0.0	630143	REC_START	n/a	n/a	6	6	BALL	n/a	BALL	GRAPE	2	[0, 0, 0]	-999	PAL1	0	R1353N
2803.627	4.0	630143	PROBE_START	n/a	wordpools/wordpool_EN.txt	6	6	BALL	n/a	BALL	GRAPE	2	[0, 0, 0]	-999	PAL1	0	R1353N
2807.654	1.0	634170	PROBE_END	n/a	n/a	6	6	BALL	n/a	BALL	GRAPE	2	[0, 0, 0]	-999	PAL1	0	R1353N
2808.654	0.006	635170	REC_END	n/a	n/a	6	6	BALL	n/a	BALL	GRAPE	2	[0, 0, 0]	-999	PAL1	0	R1353N
2808.66	0.0	635176	RETRIEVAL_END	n/a	n/a	-999	-999	n/a	n/a	n/a	n/a	2	[0, 0, 0]	-999	PAL1	0	R1353N
2808.66	0.021	635176	TRIAL_END	n/a	n/a	-999	-999	n/a	n/a	n/a	n/a	2	[0, 0, 0]	-999	PAL1	0	R1353N
2808.681	0.0	635197	TRIAL_START	n/a	n/a	-999	-999	n/a	n/a	n/a	n/a	2	[0, 0, 0]	-999	PAL1	0	R1353N
2808.681	0.0	635197	WAITING_START	n/a	n/a	-999	-999	n/a	n/a	n/a	n/a	3	[0, 0, 0]	-999	PAL1	0	R1353N
2808.681	0.983	635197	TRIAL	n/a	n/a	-999	-999	n/a	n/a	n/a	n/a	3	[0, 0, 0]	-999	PAL1	0	R1353N
2809.664	5.425	636180	REC_EVENT	6.037	n/a	6	6	BALL	<>	BALL	GRAPE	2	[0, 0, 0]	-999	PAL1	0	R1353N
2815.089	0.0	641605	WAITING_END	n/a	n/a	-999	-999	n/a	n/a	n/a	n/a	3	[0, 0, 0]	-999	PAL1	0	R1353N
2815.089	10.0	641605	COUNTDOWN_START	n/a	n/a	-999	-999	n/a	n/a	n/a	n/a	3	[0, 0, 0]	-999	PAL1	0	R1353N
2825.518	0.001	652034	COUNTDOWN_END	n/a	n/a	-999	-999	n/a	n/a	n/a	n/a	3	[0, 0, 0]	-999	PAL1	0	R1353N
2825.519	0.671	652035	ORIENT_START	n/a	n/a	-999	-999	n/a	n/a	n/a	n/a	3	[0, 0, 0]	-999	PAL1	0	R1353N
2826.19	0.001	652706	ORIENT_END	n/a	n/a	-999	-999	n/a	n/a	n/a	n/a	3	[0, 0, 0]	-999	PAL1	0	R1353N
2826.191	1.21	652707	ENCODING_START	n/a	n/a	-999	-999	n/a	n/a	n/a	n/a	3	[0, 0, 0]	-999	PAL1	0	R1353N
2827.401	4.0	653917	STUDY_PAIR	n/a	wordpools/wordpool_EN.txt	1	-999	n/a	n/a	RAT	PALM	3	[0, 0, 0]	-999	PAL1	0	R1353N
2831.441	0.729	657956	STUDY_PAIR_OFF	n/a	n/a	1	-999	n/a	n/a	RAT	PALM	3	[0, 0, 0]	-999	PAL1	0	R1353N
2832.17	4.0	658685	STUDY_PAIR	n/a	wordpools/wordpool_EN.txt	2	-999	n/a	PRINCE	PRINCE	SALT	3	[0, 0, 0]	-999	PAL1	0	R1353N
2836.209	0.557	662724	STUDY_PAIR_OFF	n/a	n/a	2	-999	n/a	PRINCE	PRINCE	SALT	3	[0, 0, 0]	-999	PAL1	0	R1353N
2836.766	4.0	663281	STUDY_PAIR	n/a	wordpools/wordpool_EN.txt	3	-999	n/a	n/a	BIRD	PIG	3	[0, 0, 0]	-999	PAL1	0	R1353N
2840.793	0.571	667308	STUDY_PAIR_OFF	n/a	n/a	3	-999	n/a	n/a	BIRD	PIG	3	[0, 0, 0]	-999	PAL1	0	R1353N
2841.364	4.0	667879	STUDY_PAIR	n/a	wordpools/wordpool_EN.txt	4	-999	n/a	n/a	ROSE	VAN	3	[0, 0, 0]	-999	PAL1	0	R1353N
2845.393	0.637	671908	STUDY_PAIR_OFF	n/a	n/a	4	-999	n/a	n/a	ROSE	VAN	3	[0, 0, 0]	-999	PAL1	0	R1353N
2846.03	4.0	672545	STUDY_PAIR	n/a	wordpools/wordpool_EN.txt	5	-999	n/a	n/a	ROOF	MOOSE	3	[0, 0, 0]	-999	PAL1	0	R1353N
2850.061	0.749	676576	STUDY_PAIR_OFF	n/a	n/a	5	-999	n/a	n/a	ROOF	MOOSE	3	[0, 0, 0]	-999	PAL1	0	R1353N
2850.81	4.0	677325	STUDY_PAIR	n/a	wordpools/wordpool_EN.txt	6	-999	n/a	VINE	TOAST	VINE	3	[0, 0, 0]	-999	PAL1	0	R1353N
2854.845	0.001	681359	STUDY_PAIR_OFF	n/a	n/a	6	-999	n/a	VINE	TOAST	VINE	3	[0, 0, 0]	-999	PAL1	0	R1353N
2854.846	0.0	681360	ENCODING_END	n/a	n/a	-999	-999	n/a	n/a	n/a	n/a	3	[0, 0, 0]	-999	PAL1	0	R1353N
2854.846	0.0	681360	MATH_START	n/a	n/a	-999	-999	n/a	n/a	n/a	n/a	3	[0, 0, 0]	-999	PAL1	0	R1353N
2854.846	0.015	681360	START	n/a	n/a	-999	-999	n/a	n/a	n/a	n/a	3	[-999, -999, -999]	-999	PAL1	0	R1353N
2854.861	6.835	681375	PROB	6.805	n/a	-999	-999	n/a	n/a	n/a	n/a	3	[7, 7, 9]	23	PAL1	0	R1353N
2861.696	8.851	688210	PROB	8.818	n/a	-999	-999	n/a	n/a	n/a	n/a	3	[6, 8, 5]	12	PAL1	0	R1353N
2870.547	10.559	697061	PROB	10.559	n/a	-999	-999	n/a	n/a	n/a	n/a	3	[7, 9, 8]	27	PAL1	0	R1353N
2881.106	0.01	707619	STOP	n/a	n/a	-999	-999	n/a	n/a	n/a	n/a	3	[-999, -999, -999]	-999	PAL1	0	R1353N
2881.116	0.615	707629	MATH_END	n/a	n/a	-999	-999	n/a	n/a	n/a	n/a	3	[0, 0, 0]	-999	PAL1	0	R1353N
2881.731	0.001	708244	RETRIEVAL_START	n/a	n/a	-999	-999	n/a	n/a	n/a	n/a	3	[0, 0, 0]	-999	PAL1	0	R1353N
2881.732	0.284	708245	ORIENT_START	n/a	n/a	-999	-999	n/a	n/a	n/a	n/a	3	[0, 0, 0]	-999	PAL1	0	R1353N
2882.016	0.662	708529	ORIENT_END	n/a	n/a	-999	-999	n/a	n/a	n/a	n/a	3	[0, 0, 0]	-999	PAL1	0	R1353N
2882.678	0.0	709191	REC_START	n/a	n/a	3	1	BIRD	n/a	BIRD	PIG	3	[0, 0, 0]	-999	PAL1	0	R1353N
2882.678	4.0	709191	PROBE_START	n/a	wordpools/wordpool_EN.txt	3	1	BIRD	n/a	BIRD	PIG	3	[0, 0, 0]	-999	PAL1	0	R1353N
2886.717	1.0	713230	PROBE_END	n/a	n/a	3	1	BIRD	n/a	BIRD	PIG	3	[0, 0, 0]	-999	PAL1	0	R1353N
2887.717	0.013	714230	REC_END	n/a	n/a	3	1	BIRD	n/a	BIRD	PIG	3	[0, 0, 0]	-999	PAL1	0	R1353N
2887.73	0.271	714243	ORIENT_START	n/a	n/a	-999	-999	n/a	n/a	n/a	n/a	3	[0, 0, 0]	-999	PAL1	0	R1353N
2888.001	0.555	714514	ORIENT_END	n/a	n/a	-999	-999	n/a	n/a	n/a	n/a	3	[0, 0, 0]	-999	PAL1	0	R1353N
2888.556	0.0	715069	REC_START	n/a	n/a	4	2	ROSE	n/a	ROSE	VAN	3	[0, 0, 0]	-999	PAL1	0	R1353N
2888.556	4.0	715069	PROBE_START	n/a	wordpools/wordpool_EN.txt	4	2	ROSE	n/a	ROSE	VAN	3	[0, 0, 0]	-999	PAL1	0	R1353N
2888.662	3.922	715175	REC_EVENT	5.984	n/a	3	1	BIRD	<>	BIRD	PIG	3	[0, 0, 0]	-999	PAL1	0	R1353N
2892.584	1.0	719097	PROBE_END	n/a	n/a	4	2	ROSE	n/a	ROSE	VAN	3	[0, 0, 0]	-999	PAL1	0	R1353N
2893.584	0.01	720097	REC_END	n/a	n/a	4	2	ROSE	n/a	ROSE	VAN	3	[0, 0, 0]	-999	PAL1	0	R1353N
2893.594	0.274	720107	ORIENT_START	n/a	n/a	-999	-999	n/a	n/a	n/a	n/a	3	[0, 0, 0]	-999	PAL1	0	R1353N
2893.868	0.545	720381	ORIENT_END	n/a	n/a	-999	-999	n/a	n/a	n/a	n/a	3	[0, 0, 0]	-999	PAL1	0	R1353N
2894.413	0.128	720926	REC_EVENT	5.857	n/a	4	2	ROSE	<>	ROSE	VAN	3	[0, 0, 0]	-999	PAL1	0	R1353N
2894.541	0.0	721054	REC_START	n/a	n/a	1	3	PALM	n/a	RAT	PALM	3	[0, 0, 0]	-999	PAL1	0	R1353N
2894.541	4.0	721054	PROBE_START	n/a	wordpools/wordpool_EN.txt	1	3	PALM	n/a	RAT	PALM	3	[0, 0, 0]	-999	PAL1	0	R1353N
2898.569	1.001	725082	PROBE_END	n/a	n/a	1	3	PALM	n/a	RAT	PALM	3	[0, 0, 0]	-999	PAL1	0	R1353N
2899.57	0.012	726083	REC_END	n/a	n/a	1	3	PALM	n/a	RAT	PALM	3	[0, 0, 0]	-999	PAL1	0	R1353N
2899.582	0.27	726095	ORIENT_START	n/a	n/a	-999	-999	n/a	n/a	n/a	n/a	3	[0, 0, 0]	-999	PAL1	0	R1353N
2899.852	0.601	726365	ORIENT_END	n/a	n/a	-999	-999	n/a	n/a	n/a	n/a	3	[0, 0, 0]	-999	PAL1	0	R1353N
2900.453	0.0	726966	REC_START	n/a	n/a	6	4	VINE	VINE	TOAST	VINE	3	[0, 0, 0]	-999	PAL1	0	R1353N
2900.453	4.0	726966	PROBE_START	n/a	wordpools/wordpool_EN.txt	6	4	VINE	VINE	TOAST	VINE	3	[0, 0, 0]	-999	PAL1	0	R1353N
2900.52	3.689	727033	REC_EVENT	5.979	n/a	1	3	PALM	<>	RAT	PALM	3	[0, 0, 0]	-999	PAL1	0	R1353N
2904.209	0.278	730722	REC_EVENT	3.756	n/a	6	4	VINE	VINE	TOAST	VINE	3	[0, 0, 0]	-999	PAL1	0	R1353N
2904.487	1.0	731000	PROBE_END	n/a	n/a	6	4	VINE	n/a	TOAST	VINE	3	[0, 0, 0]	-999	PAL1	0	R1353N
2905.487	0.012	731999	REC_END	n/a	n/a	6	4	VINE	n/a	TOAST	VINE	3	[0, 0, 0]	-999	PAL1	0	R1353N
2905.499	0.271	732011	ORIENT_START	n/a	n/a	-999	-999	n/a	n/a	n/a	n/a	3	[0, 0, 0]	-999	PAL1	0	R1353N
2905.77	0.522	732282	ORIENT_END	n/a	n/a	-999	-999	n/a	n/a	n/a	n/a	3	[0, 0, 0]	-999	PAL1	0	R1353N
2906.292	0.0	732804	REC_START	n/a	n/a	5	5	ROOF	n/a	ROOF	MOOSE	3	[0, 0, 0]	-999	PAL1	0	R1353N
2906.292	4.0	732804	PROBE_START	n/a	wordpools/wordpool_EN.txt	5	5	ROOF	n/a	ROOF	MOOSE	3	[0, 0, 0]	-999	PAL1	0	R1353N
2910.321	1.0	736833	PROBE_END	n/a	n/a	5	5	ROOF	n/a	ROOF	MOOSE	3	[0, 0, 0]	-999	PAL1	0	R1353N
2911.321	0.013	737833	REC_END	n/a	n/a	5	5	ROOF	n/a	ROOF	MOOSE	3	[0, 0, 0]	-999	PAL1	0	R1353N
2911.334	0.27	737846	ORIENT_START	n/a	n/a	-999	-999	n/a	n/a	n/a	n/a	3	[0, 0, 0]	-999	PAL1	0	R1353N
2911.604	0.51	738116	ORIENT_END	n/a	n/a	-999	-999	n/a	n/a	n/a	n/a	3	[0, 0, 0]	-999	PAL1	0	R1353N
2912.114	0.003	738626	REC_EVENT	5.822	n/a	5	5	ROOF	<>	ROOF	MOOSE	3	[0, 0, 0]	-999	PAL1	0	R1353N
2912.117	0.0	738629	REC_START	n/a	n/a	2	6	SALT	PRINCE	PRINCE	SALT	3	[0, 0, 0]	-999	PAL1	0	R1353N
2912.117	4.0	738629	PROBE_START	n/a	wordpools/wordpool_EN.txt	2	6	SALT	PRINCE	PRINCE	SALT	3	[0, 0, 0]	-999	PAL1	0	R1353N
2914.156	1.999	740668	REC_EVENT	2.039	n/a	2	6	SALT	PRINCE	PRINCE	SALT	3	[0, 0, 0]	-999	PAL1	0	R1353N
2916.155	1.001	742667	PROBE_END	n/a	n/a	2	6	SALT	n/a	PRINCE	SALT	3	[0, 0, 0]	-999	PAL1	0	R1353N
2917.156	0.011	743668	REC_END	n/a	n/a	2	6	SALT	n/a	PRINCE	SALT	3	[0, 0, 0]	-999	PAL1	0	R1353N
2917.167	0.0	743679	RETRIEVAL_END	n/a	n/a	-999	-999	n/a	n/a	n/a	n/a	3	[0, 0, 0]	-999	PAL1	0	R1353N
2917.167	0.022	743679	TRIAL_END	n/a	n/a	-999	-999	n/a	n/a	n/a	n/a	3	[0, 0, 0]	-999	PAL1	0	R1353N
2917.189	0.0	743701	TRIAL_START	n/a	n/a	-999	-999	n/a	n/a	n/a	n/a	3	[0, 0, 0]	-999	PAL1	0	R1353N
2917.189	0.0	743701	TRIAL	n/a	n/a	-999	-999	n/a	n/a	n/a	n/a	4	[0, 0, 0]	-999	PAL1	0	R1353N
2917.189	14.852	743701	WAITING_START	n/a	n/a	-999	-999	n/a	n/a	n/a	n/a	4	[0, 0, 0]	-999	PAL1	0	R1353N
2932.041	0.0	758552	WAITING_END	n/a	n/a	-999	-999	n/a	n/a	n/a	n/a	4	[0, 0, 0]	-999	PAL1	0	R1353N
2932.041	10.0	758552	COUNTDOWN_START	n/a	n/a	-999	-999	n/a	n/a	n/a	n/a	4	[0, 0, 0]	-999	PAL1	0	R1353N
2942.472	0.0	768983	COUNTDOWN_END	n/a	n/a	-999	-999	n/a	n/a	n/a	n/a	4	[0, 0, 0]	-999	PAL1	0	R1353N
2942.472	0.638	768983	ORIENT_START	n/a	n/a	-999	-999	n/a	n/a	n/a	n/a	4	[0, 0, 0]	-999	PAL1	0	R1353N
2943.11	0.0	769621	ORIENT_END	n/a	n/a	-999	-999	n/a	n/a	n/a	n/a	4	[0, 0, 0]	-999	PAL1	0	R1353N
2943.11	1.063	769621	ENCODING_START	n/a	n/a	-999	-999	n/a	n/a	n/a	n/a	4	[0, 0, 0]	-999	PAL1	0	R1353N
2944.173	4.0	770684	STUDY_PAIR	n/a	wordpools/wordpool_EN.txt	1	-999	n/a	n/a	BRANCH	EGG	4	[0, 0, 0]	-999	PAL1	0	R1353N
2948.21	0.515	774721	STUDY_PAIR_OFF	n/a	n/a	1	-999	n/a	n/a	BRANCH	EGG	4	[0, 0, 0]	-999	PAL1	0	R1353N
2948.725	4.0	775236	STUDY_PAIR	n/a	wordpools/wordpool_EN.txt	2	-999	n/a	n/a	CHAIR	FORT	4	[0, 0, 0]	-999	PAL1	0	R1353N
2952.761	0.639	779272	STUDY_PAIR_OFF	n/a	n/a	2	-999	n/a	n/a	CHAIR	FORT	4	[0, 0, 0]	-999	PAL1	0	R1353N
2953.4	4.0	779911	STUDY_PAIR	n/a	wordpools/wordpool_EN.txt	3	-999	n/a	n/a	GLASS	SPRING	4	[0, 0, 0]	-999	PAL1	0	R1353N
2957.429	0.525	783939	STUDY_PAIR_OFF	n/a	n/a	3	-999	n/a	n/a	GLASS	SPRING	4	[0, 0, 0]	-999	PAL1	0	R1353N
2957.954	4.0	784464	STUDY_PAIR	n/a	wordpools/wordpool_EN.txt	4	-999	n/a	n/a	DOLL	POLE	4	[0, 0, 0]	-999	PAL1	0	R1353N
2961.979	0.5	788489	STUDY_PAIR_OFF	n/a	n/a	4	-999	n/a	n/a	DOLL	POLE	4	[0, 0, 0]	-999	PAL1	0	R1353N
2962.479	4.0	788989	STUDY_PAIR	n/a	wordpools/wordpool_EN.txt	5	-999	n/a	n/a	CRANE	JEEP	4	[0, 0, 0]	-999	PAL1	0	R1353N
2966.514	0.556	793024	STUDY_PAIR_OFF	n/a	n/a	5	-999	n/a	n/a	CRANE	JEEP	4	[0, 0, 0]	-999	PAL1	0	R1353N
2967.07	4.0	793580	STUDY_PAIR	n/a	wordpools/wordpool_EN.txt	6	-999	n/a	n/a	CAKE	FOOD	4	[0, 0, 0]	-999	PAL1	0	R1353N
2971.097	0.001	797607	STUDY_PAIR_OFF	n/a	n/a	6	-999	n/a	n/a	CAKE	FOOD	4	[0, 0, 0]	-999	PAL1	0	R1353N
2971.098	0.0	797608	ENCODING_END	n/a	n/a	-999	-999	n/a	n/a	n/a	n/a	4	[0, 0, 0]	-999	PAL1	0	R1353N
2971.098	0.0	797608	MATH_START	n/a	n/a	-999	-999	n/a	n/a	n/a	n/a	4	[0, 0, 0]	-999	PAL1	0	R1353N
2971.098	0.016	797608	START	n/a	n/a	-999	-999	n/a	n/a	n/a	n/a	4	[-999, -999, -999]	-999	PAL1	0	R1353N
2971.114	4.434	797624	PROB	4.408	n/a	-999	-999	n/a	n/a	n/a	n/a	4	[1, 8, 2]	11	PAL1	0	R1353N
2975.548	5.101	802058	PROB	5.078	n/a	-999	-999	n/a	n/a	n/a	n/a	4	[5, 4, 8]	17	PAL1	0	R1353N
2980.649	8.785	807159	PROB	8.753	n/a	-999	-999	n/a	n/a	n/a	n/a	4	[4, 8, 7]	20	PAL1	0	R1353N
2989.434	7.616	815943	PROB	7.616	n/a	-999	-999	n/a	n/a	n/a	n/a	4	[6, 6, 5]	17	PAL1	0	R1353N
2997.05	0.019	823559	STOP	n/a	n/a	-999	-999	n/a	n/a	n/a	n/a	4	[-999, -999, -999]	-999	PAL1	0	R1353N
2997.069	0.668	823578	MATH_END	n/a	n/a	-999	-999	n/a	n/a	n/a	n/a	4	[0, 0, 0]	-999	PAL1	0	R1353N
2997.737	0.002	824246	RETRIEVAL_START	n/a	n/a	-999	-999	n/a	n/a	n/a	n/a	4	[0, 0, 0]	-999	PAL1	0	R1353N
2997.739	0.28	824248	ORIENT_START	n/a	n/a	-999	-999	n/a	n/a	n/a	n/a	4	[0, 0, 0]	-999	PAL1	0	R1353N
2998.019	0.69	824528	ORIENT_END	n/a	n/a	-999	-999	n/a	n/a	n/a	n/a	4	[0, 0, 0]	-999	PAL1	0	R1353N
2998.709	0.001	825218	REC_START	n/a	n/a	5	1	CRANE	n/a	CRANE	JEEP	4	[0, 0, 0]	-999	PAL1	0	R1353N
2998.71	4.0	825219	PROBE_START	n/a	wordpools/wordpool_EN.txt	5	1	CRANE	n/a	CRANE	JEEP	4	[0, 0, 0]	-999	PAL1	0	R1353N
3002.736	1.0	829245	PROBE_END	n/a	n/a	5	1	CRANE	n/a	CRANE	JEEP	4	[0, 0, 0]	-999	PAL1	0	R1353N
3003.736	0.013	830245	REC_END	n/a	n/a	5	1	CRANE	n/a	CRANE	JEEP	4	[0, 0, 0]	-999	PAL1	0	R1353N
3003.749	0.271	830258	ORIENT_START	n/a	n/a	-999	-999	n/a	n/a	n/a	n/a	4	[0, 0, 0]	-999	PAL1	0	R1353N
3004.02	0.501	830529	ORIENT_END	n/a	n/a	-999	-999	n/a	n/a	n/a	n/a	4	[0, 0, 0]	-999	PAL1	0	R1353N
3004.521	0.0	831030	REC_START	n/a	n/a	4	2	DOLL	n/a	DOLL	POLE	4	[0, 0, 0]	-999	PAL1	0	R1353N
3004.521	4.0	831030	PROBE_START	n/a	wordpools/wordpool_EN.txt	4	2	DOLL	n/a	DOLL	POLE	4	[0, 0, 0]	-999	PAL1	0	R1353N
3004.706	3.848	831215	REC_EVENT	5.996	n/a	5	1	CRANE	<>	CRANE	JEEP	4	[0, 0, 0]	-999	PAL1	0	R1353N
3008.554	1.001	835062	PROBE_END	n/a	n/a	4	2	DOLL	n/a	DOLL	POLE	4	[0, 0, 0]	-999	PAL1	0	R1353N
3009.555	0.012	836063	REC_END	n/a	n/a	4	2	DOLL	n/a	DOLL	POLE	4	[0, 0, 0]	-999	PAL1	0	R1353N
3009.567	0.27	836075	ORIENT_START	n/a	n/a	-999	-999	n/a	n/a	n/a	n/a	4	[0, 0, 0]	-999	PAL1	0	R1353N
3009.837	0.494	836345	ORIENT_END	n/a	n/a	-999	-999	n/a	n/a	n/a	n/a	4	[0, 0, 0]	-999	PAL1	0	R1353N
3010.331	0.067	836839	REC_EVENT	5.81	n/a	4	2	DOLL	<>	DOLL	POLE	4	[0, 0, 0]	-999	PAL1	0	R1353N
3010.398	0.0	836906	REC_START	n/a	n/a	1	3	EGG	n/a	BRANCH	EGG	4	[0, 0, 0]	-999	PAL1	0	R1353N
3010.398	4.0	836906	PROBE_START	n/a	wordpools/wordpool_EN.txt	1	3	EGG	n/a	BRANCH	EGG	4	[0, 0, 0]	-999	PAL1	0	R1353N
3014.421	1.0	840929	PROBE_END	n/a	n/a	1	3	EGG	n/a	BRANCH	EGG	4	[0, 0, 0]	-999	PAL1	0	R1353N
3015.421	0.012	841929	REC_END	n/a	n/a	1	3	EGG	n/a	BRANCH	EGG	4	[0, 0, 0]	-999	PAL1	0	R1353N
3015.433	0.272	841941	ORIENT_START	n/a	n/a	-999	-999	n/a	n/a	n/a	n/a	4	[0, 0, 0]	-999	PAL1	0	R1353N
3015.705	0.55	842213	ORIENT_END	n/a	n/a	-999	-999	n/a	n/a	n/a	n/a	4	[0, 0, 0]	-999	PAL1	0	R1353N
3016.255	0.124	842763	REC_EVENT	5.857	n/a	1	3	EGG	<>	BRANCH	EGG	4	[0, 0, 0]	-999	PAL1	0	R1353N
3016.379	0.0	842887	REC_START	n/a	n/a	6	4	FOOD	n/a	CAKE	FOOD	4	[0, 0, 0]	-999	PAL1	0	R1353N
3016.379	4.0	842887	PROBE_START	n/a	wordpools/wordpool_EN.txt	6	4	FOOD	n/a	CAKE	FOOD	4	[0, 0, 0]	-999	PAL1	0	R1353N
3020.406	0.999	846914	PROBE_END	n/a	n/a	6	4	FOOD	n/a	CAKE	FOOD	4	[0, 0, 0]	-999	PAL1	0	R1353N
3021.405	0.013	847913	REC_END	n/a	n/a	6	4	FOOD	n/a	CAKE	FOOD	4	[0, 0, 0]	-999	PAL1	0	R1353N
3021.418	0.271	847926	ORIENT_START	n/a	n/a	-999	-999	n/a	n/a	n/a	n/a	4	[0, 0, 0]	-999	PAL1	0	R1353N
3021.689	0.611	848197	ORIENT_END	n/a	n/a	-999	-999	n/a	n/a	n/a	n/a	4	[0, 0, 0]	-999	PAL1	0	R1353N
3022.3	0.001	848808	REC_START	n/a	n/a	3	5	SPRING	n/a	GLASS	SPRING	4	[0, 0, 0]	-999	PAL1	0	R1353N
3022.301	4.0	848809	PROBE_START	n/a	wordpools/wordpool_EN.txt	3	5	SPRING	n/a	GLASS	SPRING	4	[0, 0, 0]	-999	PAL1	0	R1353N
3022.352	3.971	848860	REC_EVENT	5.973	n/a	6	4	FOOD	<>	CAKE	FOOD	4	[0, 0, 0]	-999	PAL1	0	R1353N
3026.323	1.001	852831	PROBE_END	n/a	n/a	3	5	SPRING	n/a	GLASS	SPRING	4	[0, 0, 0]	-999	PAL1	0	R1353N
3027.324	0.013	853832	REC_END	n/a	n/a	3	5	SPRING	n/a	GLASS	SPRING	4	[0, 0, 0]	-999	PAL1	0	R1353N
3027.337	0.27	853845	ORIENT_START	n/a	n/a	-999	-999	n/a	n/a	n/a	n/a	4	[0, 0, 0]	-999	PAL1	0	R1353N
3027.607	0.603	854115	ORIENT_END	n/a	n/a	-999	-999	n/a	n/a	n/a	n/a	4	[0, 0, 0]	-999	PAL1	0	R1353N
3028.21	0.14	854718	REC_EVENT	5.909	n/a	3	5	SPRING	<>	GLASS	SPRING	4	[0, 0, 0]	-999	PAL1	0	R1353N
3028.35	0.0	854858	REC_START	n/a	n/a	2	6	CHAIR	n/a	CHAIR	FORT	4	[0, 0, 0]	-999	PAL1	0	R1353N
3028.35	4.0	854858	PROBE_START	n/a	wordpools/wordpool_EN.txt	2	6	CHAIR	n/a	CHAIR	FORT	4	[0, 0, 0]	-999	PAL1	0	R1353N
3032.374	1.001	858882	PROBE_END	n/a	n/a	2	6	CHAIR	n/a	CHAIR	FORT	4	[0, 0, 0]	-999	PAL1	0	R1353N
3033.375	0.006	859882	REC_END	n/a	n/a	2	6	CHAIR	n/a	CHAIR	FORT	4	[0, 0, 0]	-999	PAL1	0	R1353N
3033.381	0.0	859888	TRIAL_END	n/a	n/a	-999	-999	n/a	n/a	n/a	n/a	4	[0, 0, 0]	-999	PAL1	0	R1353N
3033.381	0.021	859888	RETRIEVAL_END	n/a	n/a	-999	-999	n/a	n/a	n/a	n/a	4	[0, 0, 0]	-999	PAL1	0	R1353N
3033.402	0.0	859909	TRIAL_START	n/a	n/a	-999	-999	n/a	n/a	n/a	n/a	4	[0, 0, 0]	-999	PAL1	0	R1353N
3033.402	0.0	859909	TRIAL	n/a	n/a	-999	-999	n/a	n/a	n/a	n/a	5	[0, 0, 0]	-999	PAL1	0	R1353N
3033.402	0.985	859909	WAITING_START	n/a	n/a	-999	-999	n/a	n/a	n/a	n/a	5	[0, 0, 0]	-999	PAL1	0	R1353N
3034.387	4.905	860894	REC_EVENT	6.037	n/a	2	6	CHAIR	<>	CHAIR	FORT	4	[0, 0, 0]	-999	PAL1	0	R1353N
3039.292	0.0	865799	WAITING_END	n/a	n/a	-999	-999	n/a	n/a	n/a	n/a	5	[0, 0, 0]	-999	PAL1	0	R1353N
3039.292	10.0	865799	COUNTDOWN_START	n/a	n/a	-999	-999	n/a	n/a	n/a	n/a	5	[0, 0, 0]	-999	PAL1	0	R1353N
3049.722	0.001	876229	COUNTDOWN_END	n/a	n/a	-999	-999	n/a	n/a	n/a	n/a	5	[0, 0, 0]	-999	PAL1	0	R1353N
3049.723	0.671	876230	ORIENT_START	n/a	n/a	-999	-999	n/a	n/a	n/a	n/a	5	[0, 0, 0]	-999	PAL1	0	R1353N
3050.394	0.0	876901	ORIENT_END	n/a	n/a	-999	-999	n/a	n/a	n/a	n/a	5	[0, 0, 0]	-999	PAL1	0	R1353N
3050.394	1.205	876901	ENCODING_START	n/a	n/a	-999	-999	n/a	n/a	n/a	n/a	5	[0, 0, 0]	-999	PAL1	0	R1353N
3051.599	4.0	878106	STUDY_PAIR	n/a	wordpools/wordpool_EN.txt	1	-999	n/a	n/a	TRASH	PASTE	5	[0, 0, 0]	-999	PAL1	0	R1353N
3055.628	0.612	882135	STUDY_PAIR_OFF	n/a	n/a	1	-999	n/a	n/a	TRASH	PASTE	5	[0, 0, 0]	-999	PAL1	0	R1353N
3056.24	4.0	882747	STUDY_PAIR	n/a	wordpools/wordpool_EN.txt	2	-999	n/a	SUN	HOLE	SUN	5	[0, 0, 0]	-999	PAL1	0	R1353N
3060.279	0.61	886785	STUDY_PAIR_OFF	n/a	n/a	2	-999	n/a	SUN	HOLE	SUN	5	[0, 0, 0]	-999	PAL1	0	R1353N
3060.889	4.0	887395	STUDY_PAIR	n/a	wordpools/wordpool_EN.txt	3	-999	n/a	n/a	CART	MAZE	5	[0, 0, 0]	-999	PAL1	0	R1353N
3064.913	0.514	891419	STUDY_PAIR_OFF	n/a	n/a	3	-999	n/a	n/a	CART	MAZE	5	[0, 0, 0]	-999	PAL1	0	R1353N
3065.427	4.0	891933	STUDY_PAIR	n/a	wordpools/wordpool_EN.txt	4	-999	n/a	n/a	BEAN	SHELL	5	[0, 0, 0]	-999	PAL1	0	R1353N
3069.447	0.5	895953	STUDY_PAIR_OFF	n/a	n/a	4	-999	n/a	n/a	BEAN	SHELL	5	[0, 0, 0]	-999	PAL1	0	R1353N
3069.947	4.0	896453	STUDY_PAIR	n/a	wordpools/wordpool_EN.txt	5	-999	n/a	ROCK	ROCK	SHEET	5	[0, 0, 0]	-999	PAL1	0	R1353N
3073.981	0.522	900487	STUDY_PAIR_OFF	n/a	n/a	5	-999	n/a	ROCK	ROCK	SHEET	5	[0, 0, 0]	-999	PAL1	0	R1353N
3074.503	4.0	901009	STUDY_PAIR	n/a	wordpools/wordpool_EN.txt	6	-999	n/a	n/a	MAIL	SIGN	5	[0, 0, 0]	-999	PAL1	0	R1353N
3078.532	0.001	905038	STUDY_PAIR_OFF	n/a	n/a	6	-999	n/a	n/a	MAIL	SIGN	5	[0, 0, 0]	-999	PAL1	0	R1353N
3078.533	0.0	905039	ENCODING_END	n/a	n/a	-999	-999	n/a	n/a	n/a	n/a	5	[0, 0, 0]	-999	PAL1	0	R1353N
3078.533	0.0	905039	MATH_START	n/a	n/a	-999	-999	n/a	n/a	n/a	n/a	5	[0, 0, 0]	-999	PAL1	0	R1353N
3078.533	0.015	905039	START	n/a	n/a	-999	-999	n/a	n/a	n/a	n/a	5	[-999, -999, -999]	-999	PAL1	0	R1353N
3078.548	5.785	905054	PROB	5.751	n/a	-999	-999	n/a	n/a	n/a	n/a	5	[4, 2, 9]	15	PAL1	0	R1353N
3084.333	4.617	910838	PROB	4.582	n/a	-999	-999	n/a	n/a	n/a	n/a	5	[8, 5, 4]	17	PAL1	0	R1353N
3088.95	7.168	915455	PROB	7.132	n/a	-999	-999	n/a	n/a	n/a	n/a	5	[9, 2, 5]	16	PAL1	0	R1353N
3096.118	7.772	922623	PROB	7.772	n/a	-999	-999	n/a	n/a	n/a	n/a	5	[6, 5, 2]	11	PAL1	0	R1353N
3103.89	0.013	930395	STOP	n/a	n/a	-999	-999	n/a	n/a	n/a	n/a	5	[-999, -999, -999]	-999	PAL1	0	R1353N
3103.903	0.586	930408	MATH_END	n/a	n/a	-999	-999	n/a	n/a	n/a	n/a	5	[0, 0, 0]	-999	PAL1	0	R1353N
3104.489	0.001	930994	RETRIEVAL_START	n/a	n/a	-999	-999	n/a	n/a	n/a	n/a	5	[0, 0, 0]	-999	PAL1	0	R1353N
3104.49	0.28	930995	ORIENT_START	n/a	n/a	-999	-999	n/a	n/a	n/a	n/a	5	[0, 0, 0]	-999	PAL1	0	R1353N
3104.77	0.615	931275	ORIENT_END	n/a	n/a	-999	-999	n/a	n/a	n/a	n/a	5	[0, 0, 0]	-999	PAL1	0	R1353N
3105.385	0.0	931890	REC_START	n/a	n/a	1	1	PASTE	n/a	TRASH	PASTE	5	[0, 0, 0]	-999	PAL1	0	R1353N
3105.385	4.0	931890	PROBE_START	n/a	wordpools/wordpool_EN.txt	1	1	PASTE	n/a	TRASH	PASTE	5	[0, 0, 0]	-999	PAL1	0	R1353N
3109.42	1.0	935925	PROBE_END	n/a	n/a	1	1	PASTE	n/a	TRASH	PASTE	5	[0, 0, 0]	-999	PAL1	0	R1353N
3110.42	0.012	936924	REC_END	n/a	n/a	1	1	PASTE	n/a	TRASH	PASTE	5	[0, 0, 0]	-999	PAL1	0	R1353N
3110.432	0.272	936936	ORIENT_START	n/a	n/a	-999	-999	n/a	n/a	n/a	n/a	5	[0, 0, 0]	-999	PAL1	0	R1353N
3110.704	0.607	937208	ORIENT_END	n/a	n/a	-999	-999	n/a	n/a	n/a	n/a	5	[0, 0, 0]	-999	PAL1	0	R1353N
3111.311	0.038	937815	REC_EVENT	5.926	n/a	1	1	PASTE	<>	TRASH	PASTE	5	[0, 0, 0]	-999	PAL1	0	R1353N
3111.349	0.0	937853	REC_START	n/a	n/a	6	2	SIGN	n/a	MAIL	SIGN	5	[0, 0, 0]	-999	PAL1	0	R1353N
3111.349	4.0	937853	PROBE_START	n/a	wordpools/wordpool_EN.txt	6	2	SIGN	n/a	MAIL	SIGN	5	[0, 0, 0]	-999	PAL1	0	R1353N
3115.355	1.0	941859	PROBE_END	n/a	n/a	6	2	SIGN	n/a	MAIL	SIGN	5	[0, 0, 0]	-999	PAL1	0	R1353N
3116.355	0.012	942859	REC_END	n/a	n/a	6	2	SIGN	n/a	MAIL	SIGN	5	[0, 0, 0]	-999	PAL1	0	R1353N
3116.367	0.271	942871	ORIENT_START	n/a	n/a	-999	-999	n/a	n/a	n/a	n/a	5	[0, 0, 0]	-999	PAL1	0	R1353N
3116.638	0.541	943142	ORIENT_END	n/a	n/a	-999	-999	n/a	n/a	n/a	n/a	5	[0, 0, 0]	-999	PAL1	0	R1353N
3117.179	0.001	943683	REC_START	n/a	n/a	3	3	CART	n/a	CART	MAZE	5	[0, 0, 0]	-999	PAL1	0	R1353N
3117.18	4.0	943684	PROBE_START	n/a	wordpools/wordpool_EN.txt	3	3	CART	n/a	CART	MAZE	5	[0, 0, 0]	-999	PAL1	0	R1353N
3117.27	3.936	943774	REC_EVENT	5.921	n/a	6	2	SIGN	<>	MAIL	SIGN	5	[0, 0, 0]	-999	PAL1	0	R1353N
3121.206	0.999	947710	PROBE_END	n/a	n/a	3	3	CART	n/a	CART	MAZE	5	[0, 0, 0]	-999	PAL1	0	R1353N
3122.205	0.011	948709	REC_END	n/a	n/a	3	3	CART	n/a	CART	MAZE	5	[0, 0, 0]	-999	PAL1	0	R1353N
3122.216	0.273	948720	ORIENT_START	n/a	n/a	-999	-999	n/a	n/a	n/a	n/a	5	[0, 0, 0]	-999	PAL1	0	R1353N
3122.489	0.524	948993	ORIENT_END	n/a	n/a	-999	-999	n/a	n/a	n/a	n/a	5	[0, 0, 0]	-999	PAL1	0	R1353N
3123.013	0.027	949517	REC_EVENT	5.833	n/a	3	3	CART	<>	CART	MAZE	5	[0, 0, 0]	-999	PAL1	0	R1353N
3123.04	0.001	949544	REC_START	n/a	n/a	2	4	HOLE	SUN	HOLE	SUN	5	[0, 0, 0]	-999	PAL1	0	R1353N
3123.041	4.0	949545	PROBE_START	n/a	wordpools/wordpool_EN.txt	2	4	HOLE	SUN	HOLE	SUN	5	[0, 0, 0]	-999	PAL1	0	R1353N
3125.323	1.75	951827	REC_EVENT	2.282	n/a	2	4	HOLE	SUN	HOLE	SUN	5	[0, 0, 0]	-999	PAL1	0	R1353N
3127.073	1.0	953577	PROBE_END	n/a	n/a	2	4	HOLE	n/a	HOLE	SUN	5	[0, 0, 0]	-999	PAL1	0	R1353N
3128.073	0.011	954577	REC_END	n/a	n/a	2	4	HOLE	n/a	HOLE	SUN	5	[0, 0, 0]	-999	PAL1	0	R1353N
3128.084	0.273	954588	ORIENT_START	n/a	n/a	-999	-999	n/a	n/a	n/a	n/a	5	[0, 0, 0]	-999	PAL1	0	R1353N
3128.357	0.541	954861	ORIENT_END	n/a	n/a	-999	-999	n/a	n/a	n/a	n/a	5	[0, 0, 0]	-999	PAL1	0	R1353N
3128.898	0.199	955402	REC_EVENT	5.857	n/a	2	4	HOLE	<>	HOLE	SUN	5	[0, 0, 0]	-999	PAL1	0	R1353N
3129.097	0.0	955601	REC_START	n/a	n/a	5	5	SHEET	ROCK	ROCK	SHEET	5	[0, 0, 0]	-999	PAL1	0	R1353N
3129.097	4.0	955601	PROBE_START	n/a	wordpools/wordpool_EN.txt	5	5	SHEET	ROCK	ROCK	SHEET	5	[0, 0, 0]	-999	PAL1	0	R1353N
3133.124	1.0	959628	PROBE_END	n/a	n/a	5	5	SHEET	n/a	ROCK	SHEET	5	[0, 0, 0]	-999	PAL1	0	R1353N
3134.124	0.006	960628	REC_END	n/a	n/a	5	5	SHEET	n/a	ROCK	SHEET	5	[0, 0, 0]	-999	PAL1	0	R1353N
3134.13	0.224	960634	ORIENT_START	n/a	n/a	-999	-999	n/a	n/a	n/a	n/a	5	[0, 0, 0]	-999	PAL1	0	R1353N
3134.354	0.054	960858	REC_EVENT	5.257	n/a	5	5	SHEET	ROCK	ROCK	SHEET	5	[0, 0, 0]	-999	PAL1	0	R1353N
3134.408	0.588	960912	ORIENT_END	n/a	n/a	-999	-999	n/a	n/a	n/a	n/a	5	[0, 0, 0]	-999	PAL1	0	R1353N
3134.996	0.001	961500	REC_START	n/a	n/a	4	6	BEAN	n/a	BEAN	SHELL	5	[0, 0, 0]	-999	PAL1	0	R1353N
3134.997	4.0	961501	PROBE_START	n/a	wordpools/wordpool_EN.txt	4	6	BEAN	n/a	BEAN	SHELL	5	[0, 0, 0]	-999	PAL1	0	R1353N
3139.025	1.0	965528	PROBE_END	n/a	n/a	4	6	BEAN	n/a	BEAN	SHELL	5	[0, 0, 0]	-999	PAL1	0	R1353N
3140.025	0.011	966528	REC_END	n/a	n/a	4	6	BEAN	n/a	BEAN	SHELL	5	[0, 0, 0]	-999	PAL1	0	R1353N
3140.036	0.0	966539	TRIAL_END	n/a	n/a	-999	-999	n/a	n/a	n/a	n/a	5	[0, 0, 0]	-999	PAL1	0	R1353N
3140.036	0.021	966539	RETRIEVAL_END	n/a	n/a	-999	-999	n/a	n/a	n/a	n/a	5	[0, 0, 0]	-999	PAL1	0	R1353N
3140.057	0.0	966560	TRIAL_START	n/a	n/a	-999	-999	n/a	n/a	n/a	n/a	5	[0, 0, 0]	-999	PAL1	0	R1353N
3140.057	0.0	966560	TRIAL	n/a	n/a	-999	-999	n/a	n/a	n/a	n/a	6	[0, 0, 0]	-999	PAL1	0	R1353N
3140.057	0.832	966560	WAITING_START	n/a	n/a	-999	-999	n/a	n/a	n/a	n/a	6	[0, 0, 0]	-999	PAL1	0	R1353N
3140.889	11.338	967392	REC_EVENT	5.892	n/a	4	6	BEAN	<>	BEAN	SHELL	5	[0, 0, 0]	-999	PAL1	0	R1353N
3152.227	0.001	978730	WAITING_END	n/a	n/a	-999	-999	n/a	n/a	n/a	n/a	6	[0, 0, 0]	-999	PAL1	0	R1353N
3152.228	10.0	978731	COUNTDOWN_START	n/a	n/a	-999	-999	n/a	n/a	n/a	n/a	6	[0, 0, 0]	-999	PAL1	0	R1353N
3162.657	0.0	989159	COUNTDOWN_END	n/a	n/a	-999	-999	n/a	n/a	n/a	n/a	6	[0, 0, 0]	-999	PAL1	0	R1353N
3162.657	0.556	989159	ORIENT_START	n/a	n/a	-999	-999	n/a	n/a	n/a	n/a	6	[0, 0, 0]	-999	PAL1	0	R1353N
3163.213	0.0	989715	ORIENT_END	n/a	n/a	-999	-999	n/a	n/a	n/a	n/a	6	[0, 0, 0]	-999	PAL1	0	R1353N
3163.213	1.174	989715	ENCODING_START	n/a	n/a	-999	-999	n/a	n/a	n/a	n/a	6	[0, 0, 0]	-999	PAL1	0	R1353N
3164.387	4.0	990889	STUDY_PAIR	n/a	wordpools/wordpool_EN.txt	1	-999	n/a	n/a	FILM	CANE	6	[0, 0, 0]	-999	PAL1	0	R1353N
3168.413	0.566	994915	STUDY_PAIR_OFF	n/a	n/a	1	-999	n/a	n/a	FILM	CANE	6	[0, 0, 0]	-999	PAL1	0	R1353N
3168.979	4.0	995481	STUDY_PAIR	n/a	wordpools/wordpool_EN.txt	2	-999	n/a	n/a	TRAIN	SCHOOL	6	[0, 0, 0]	-999	PAL1	0	R1353N
3173.014	0.66	999516	STUDY_PAIR_OFF	n/a	n/a	2	-999	n/a	n/a	TRAIN	SCHOOL	6	[0, 0, 0]	-999	PAL1	0	R1353N
3173.674	4.0	1000176	STUDY_PAIR	n/a	wordpools/wordpool_EN.txt	3	-999	n/a	n/a	SHRIMP	THREAD	6	[0, 0, 0]	-999	PAL1	0	R1353N
3177.698	0.685	1004200	STUDY_PAIR_OFF	n/a	n/a	3	-999	n/a	n/a	SHRIMP	THREAD	6	[0, 0, 0]	-999	PAL1	0	R1353N
3178.383	4.0	1004885	STUDY_PAIR	n/a	wordpools/wordpool_EN.txt	4	-999	n/a	n/a	SPEAR	EAR	6	[0, 0, 0]	-999	PAL1	0	R1353N
3182.416	0.658	1008918	STUDY_PAIR_OFF	n/a	n/a	4	-999	n/a	n/a	SPEAR	EAR	6	[0, 0, 0]	-999	PAL1	0	R1353N
3183.074	4.0	1009576	STUDY_PAIR	n/a	wordpools/wordpool_EN.txt	5	-999	n/a	n/a	EEL	BED	6	[0, 0, 0]	-999	PAL1	0	R1353N
3187.1	0.668	1013601	STUDY_PAIR_OFF	n/a	n/a	5	-999	n/a	n/a	EEL	BED	6	[0, 0, 0]	-999	PAL1	0	R1353N
3187.768	4.0	1014269	STUDY_PAIR	n/a	wordpools/wordpool_EN.txt	6	-999	n/a	n/a	CHEEK	RUG	6	[0, 0, 0]	-999	PAL1	0	R1353N
3191.801	0.0	1018302	STUDY_PAIR_OFF	n/a	n/a	6	-999	n/a	n/a	CHEEK	RUG	6	[0, 0, 0]	-999	PAL1	0	R1353N
3191.801	0.001	1018302	ENCODING_END	n/a	n/a	-999	-999	n/a	n/a	n/a	n/a	6	[0, 0, 0]	-999	PAL1	0	R1353N
3191.802	0.0	1018303	MATH_START	n/a	n/a	-999	-999	n/a	n/a	n/a	n/a	6	[0, 0, 0]	-999	PAL1	0	R1353N
3191.802	0.015	1018303	START	n/a	n/a	-999	-999	n/a	n/a	n/a	n/a	6	[-999, -999, -999]	-999	PAL1	0	R1353N
3191.817	4.884	1018318	PROB	4.858	n/a	-999	-999	n/a	n/a	n/a	n/a	6	[5, 1, 6]	12	PAL1	0	R1353N
3196.701	3.501	1023202	PROB	3.478	n/a	-999	-999	n/a	n/a	n/a	n/a	6	[2, 5, 5]	12	PAL1	0	R1353N
3200.202	7.184	1026703	PROB	7.152	n/a	-999	-999	n/a	n/a	n/a	n/a	6	[2, 2, 6]	12	PAL1	0	R1353N
3207.386	8.52	1033887	PROB	8.52	n/a	-999	-999	n/a	n/a	n/a	n/a	6	[7, 4, 7]	18	PAL1	0	R1353N
3215.906	0.015	1042406	STOP	n/a	n/a	-999	-999	n/a	n/a	n/a	n/a	6	[-999, -999, -999]	-999	PAL1	0	R1353N
3215.921	0.589	1042421	MATH_END	n/a	n/a	-999	-999	n/a	n/a	n/a	n/a	6	[0, 0, 0]	-999	PAL1	0	R1353N
3216.51	0.002	1043010	RETRIEVAL_START	n/a	n/a	-999	-999	n/a	n/a	n/a	n/a	6	[0, 0, 0]	-999	PAL1	0	R1353N
3216.512	0.276	1043012	ORIENT_START	n/a	n/a	-999	-999	n/a	n/a	n/a	n/a	6	[0, 0, 0]	-999	PAL1	0	R1353N
3216.788	0.633	1043288	ORIENT_END	n/a	n/a	-999	-999	n/a	n/a	n/a	n/a	6	[0, 0, 0]	-999	PAL1	0	R1353N
3217.421	4.0	1043921	PROBE_START	n/a	wordpools/wordpool_EN.txt	5	1	EEL	n/a	EEL	BED	6	[0, 0, 0]	-999	PAL1	0	R1353N
3217.421	4.034	1043921	REC_START	n/a	n/a	5	1	EEL	n/a	EEL	BED	6	[0, 0, 0]	-999	PAL1	0	R1353N
3221.455	1.001	1047955	PROBE_END	n/a	n/a	5	1	EEL	n/a	EEL	BED	6	[0, 0, 0]	-999	PAL1	0	R1353N
3222.456	0.013	1048956	REC_END	n/a	n/a	5	1	EEL	n/a	EEL	BED	6	[0, 0, 0]	-999	PAL1	0	R1353N
3222.469	0.27	1048969	ORIENT_START	n/a	n/a	-999	-999	n/a	n/a	n/a	n/a	6	[0, 0, 0]	-999	PAL1	0	R1353N
3222.739	0.568	1049239	ORIENT_END	n/a	n/a	-999	-999	n/a	n/a	n/a	n/a	6	[0, 0, 0]	-999	PAL1	0	R1353N
3223.307	0.0	1049807	REC_START	n/a	n/a	2	2	TRAIN	n/a	TRAIN	SCHOOL	6	[0, 0, 0]	-999	PAL1	0	R1353N
3223.307	4.0	1049807	PROBE_START	n/a	wordpools/wordpool_EN.txt	2	2	TRAIN	n/a	TRAIN	SCHOOL	6	[0, 0, 0]	-999	PAL1	0	R1353N
3223.365	3.975	1049865	REC_EVENT	5.944	n/a	5	1	EEL	<>	EEL	BED	6	[0, 0, 0]	-999	PAL1	0	R1353N
3227.34	1.001	1053840	PROBE_END	n/a	n/a	2	2	TRAIN	n/a	TRAIN	SCHOOL	6	[0, 0, 0]	-999	PAL1	0	R1353N
3228.341	0.012	1054841	REC_END	n/a	n/a	2	2	TRAIN	n/a	TRAIN	SCHOOL	6	[0, 0, 0]	-999	PAL1	0	R1353N
3228.353	0.27	1054853	ORIENT_START	n/a	n/a	-999	-999	n/a	n/a	n/a	n/a	6	[0, 0, 0]	-999	PAL1	0	R1353N
3228.623	0.558	1055123	ORIENT_END	n/a	n/a	-999	-999	n/a	n/a	n/a	n/a	6	[0, 0, 0]	-999	PAL1	0	R1353N
3229.181	0.189	1055681	REC_EVENT	5.874	n/a	2	2	TRAIN	<>	TRAIN	SCHOOL	6	[0, 0, 0]	-999	PAL1	0	R1353N
3229.37	4.0	1055870	PROBE_START	n/a	wordpools/wordpool_EN.txt	1	3	CANE	n/a	FILM	CANE	6	[0, 0, 0]	-999	PAL1	0	R1353N
3229.37	4.038	1055870	REC_START	n/a	n/a	1	3	CANE	n/a	FILM	CANE	6	[0, 0, 0]	-999	PAL1	0	R1353N
3233.408	0.999	1059908	PROBE_END	n/a	n/a	1	3	CANE	n/a	FILM	CANE	6	[0, 0, 0]	-999	PAL1	0	R1353N
3234.407	0.007	1060907	REC_END	n/a	n/a	1	3	CANE	n/a	FILM	CANE	6	[0, 0, 0]	-999	PAL1	0	R1353N
3234.414	0.277	1060914	ORIENT_START	n/a	n/a	-999	-999	n/a	n/a	n/a	n/a	6	[0, 0, 0]	-999	PAL1	0	R1353N
3234.691	0.604	1061191	ORIENT_END	n/a	n/a	-999	-999	n/a	n/a	n/a	n/a	6	[0, 0, 0]	-999	PAL1	0	R1353N
3235.295	0.001	1061795	REC_START	n/a	n/a	6	4	RUG	n/a	CHEEK	RUG	6	[0, 0, 0]	-999	PAL1	0	R1353N
3235.296	4.0	1061796	PROBE_START	n/a	wordpools/wordpool_EN.txt	6	4	RUG	n/a	CHEEK	RUG	6	[0, 0, 0]	-999	PAL1	0	R1353N
3235.424	3.901	1061924	REC_EVENT	6.054	n/a	1	3	CANE	<>	FILM	CANE	6	[0, 0, 0]	-999	PAL1	0	R1353N
3239.325	1.001	1065824	PROBE_END	n/a	n/a	6	4	RUG	n/a	CHEEK	RUG	6	[0, 0, 0]	-999	PAL1	0	R1353N
3240.326	0.011	1066825	REC_END	n/a	n/a	6	4	RUG	n/a	CHEEK	RUG	6	[0, 0, 0]	-999	PAL1	0	R1353N
3240.337	0.272	1066836	ORIENT_START	n/a	n/a	-999	-999	n/a	n/a	n/a	n/a	6	[0, 0, 0]	-999	PAL1	0	R1353N
3240.609	0.524	1067108	ORIENT_END	n/a	n/a	-999	-999	n/a	n/a	n/a	n/a	6	[0, 0, 0]	-999	PAL1	0	R1353N
3241.133	0.001	1067632	REC_START	n/a	n/a	3	5	SHRIMP	n/a	SHRIMP	THREAD	6	[0, 0, 0]	-999	PAL1	0	R1353N
3241.134	4.0	1067633	PROBE_START	n/a	wordpools/wordpool_EN.txt	3	5	SHRIMP	n/a	SHRIMP	THREAD	6	[0, 0, 0]	-999	PAL1	0	R1353N
3241.205	3.954	1067704	REC_EVENT	5.909	n/a	6	4	RUG	<>	CHEEK	RUG	6	[0, 0, 0]	-999	PAL1	0	R1353N
3245.159	1.001	1071658	PROBE_END	n/a	n/a	3	5	SHRIMP	n/a	SHRIMP	THREAD	6	[0, 0, 0]	-999	PAL1	0	R1353N
3246.16	0.01	1072659	REC_END	n/a	n/a	3	5	SHRIMP	n/a	SHRIMP	THREAD	6	[0, 0, 0]	-999	PAL1	0	R1353N
3246.17	0.273	1072669	ORIENT_START	n/a	n/a	-999	-999	n/a	n/a	n/a	n/a	6	[0, 0, 0]	-999	PAL1	0	R1353N
3246.443	0.513	1072942	ORIENT_END	n/a	n/a	-999	-999	n/a	n/a	n/a	n/a	6	[0, 0, 0]	-999	PAL1	0	R1353N
3246.956	0.171	1073455	REC_EVENT	5.822	n/a	3	5	SHRIMP	<>	SHRIMP	THREAD	6	[0, 0, 0]	-999	PAL1	0	R1353N
3247.127	0.001	1073626	REC_START	n/a	n/a	4	6	EAR	n/a	SPEAR	EAR	6	[0, 0, 0]	-999	PAL1	0	R1353N
3247.128	4.0	1073627	PROBE_START	n/a	wordpools/wordpool_EN.txt	4	6	EAR	n/a	SPEAR	EAR	6	[0, 0, 0]	-999	PAL1	0	R1353N
3251.16	1.0	1077659	PROBE_END	n/a	n/a	4	6	EAR	n/a	SPEAR	EAR	6	[0, 0, 0]	-999	PAL1	0	R1353N
3252.16	0.011	1078659	REC_END	n/a	n/a	4	6	EAR	n/a	SPEAR	EAR	6	[0, 0, 0]	-999	PAL1	0	R1353N
3252.171	0.001	1078670	RETRIEVAL_END	n/a	n/a	-999	-999	n/a	n/a	n/a	n/a	6	[0, 0, 0]	-999	PAL1	0	R1353N
3252.172	0.022	1078671	TRIAL_END	n/a	n/a	-999	-999	n/a	n/a	n/a	n/a	6	[0, 0, 0]	-999	PAL1	0	R1353N
3252.194	0.0	1078693	TRIAL_START	n/a	n/a	-999	-999	n/a	n/a	n/a	n/a	6	[0, 0, 0]	-999	PAL1	0	R1353N
3252.194	0.0	1078693	TRIAL	n/a	n/a	-999	-999	n/a	n/a	n/a	n/a	7	[0, 0, 0]	-999	PAL1	0	R1353N
3252.194	0.924	1078693	WAITING_START	n/a	n/a	-999	-999	n/a	n/a	n/a	n/a	7	[0, 0, 0]	-999	PAL1	0	R1353N
3253.118	3.16	1079617	REC_EVENT	5.99	n/a	4	6	EAR	<>	SPEAR	EAR	6	[0, 0, 0]	-999	PAL1	0	R1353N
3256.278	0.0	1082777	WAITING_END	n/a	n/a	-999	-999	n/a	n/a	n/a	n/a	7	[0, 0, 0]	-999	PAL1	0	R1353N
3256.278	10.0	1082777	COUNTDOWN_START	n/a	n/a	-999	-999	n/a	n/a	n/a	n/a	7	[0, 0, 0]	-999	PAL1	0	R1353N
3266.706	0.001	1093204	COUNTDOWN_END	n/a	n/a	-999	-999	n/a	n/a	n/a	n/a	7	[0, 0, 0]	-999	PAL1	0	R1353N
3266.707	0.69	1093205	ORIENT_START	n/a	n/a	-999	-999	n/a	n/a	n/a	n/a	7	[0, 0, 0]	-999	PAL1	0	R1353N
3267.397	0.0	1093895	ORIENT_END	n/a	n/a	-999	-999	n/a	n/a	n/a	n/a	7	[0, 0, 0]	-999	PAL1	0	R1353N
3267.397	1.141	1093895	ENCODING_START	n/a	n/a	-999	-999	n/a	n/a	n/a	n/a	7	[0, 0, 0]	-999	PAL1	0	R1353N
3268.538	4.0	1095036	STUDY_PAIR	n/a	wordpools/wordpool_EN.txt	1	-999	n/a	n/a	MAP	STORE	7	[0, 0, 0]	-999	PAL1	0	R1353N
3272.564	0.707	1099062	STUDY_PAIR_OFF	n/a	n/a	1	-999	n/a	n/a	MAP	STORE	7	[0, 0, 0]	-999	PAL1	0	R1353N
3273.271	4.0	1099769	STUDY_PAIR	n/a	wordpools/wordpool_EN.txt	2	-999	n/a	n/a	FLOOR	APE	7	[0, 0, 0]	-999	PAL1	0	R1353N
3277.298	0.542	1103796	STUDY_PAIR_OFF	n/a	n/a	2	-999	n/a	n/a	FLOOR	APE	7	[0, 0, 0]	-999	PAL1	0	R1353N
3277.84	4.0	1104338	STUDY_PAIR	n/a	wordpools/wordpool_EN.txt	3	-999	n/a	n/a	LIP	SOAP	7	[0, 0, 0]	-999	PAL1	0	R1353N
3281.865	0.737	1108363	STUDY_PAIR_OFF	n/a	n/a	3	-999	n/a	n/a	LIP	SOAP	7	[0, 0, 0]	-999	PAL1	0	R1353N
3282.602	4.0	1109100	STUDY_PAIR	n/a	wordpools/wordpool_EN.txt	4	-999	n/a	n/a	TOOL	MOLE	7	[0, 0, 0]	-999	PAL1	0	R1353N
3286.633	0.673	1113131	STUDY_PAIR_OFF	n/a	n/a	4	-999	n/a	n/a	TOOL	MOLE	7	[0, 0, 0]	-999	PAL1	0	R1353N
3287.306	4.0	1113804	STUDY_PAIR	n/a	wordpools/wordpool_EN.txt	5	-999	n/a	SHELL	TIE	ELF	7	[0, 0, 0]	-999	PAL1	0	R1353N
3291.334	0.656	1117831	STUDY_PAIR_OFF	n/a	n/a	5	-999	n/a	SHELL	TIE	ELF	7	[0, 0, 0]	-999	PAL1	0	R1353N
3291.99	4.0	1118487	STUDY_PAIR	n/a	wordpools/wordpool_EN.txt	6	-999	n/a	n/a	DART	SEED	7	[0, 0, 0]	-999	PAL1	0	R1353N
3296.018	0.0	1122515	STUDY_PAIR_OFF	n/a	n/a	6	-999	n/a	n/a	DART	SEED	7	[0, 0, 0]	-999	PAL1	0	R1353N
3296.018	0.001	1122515	ENCODING_END	n/a	n/a	-999	-999	n/a	n/a	n/a	n/a	7	[0, 0, 0]	-999	PAL1	0	R1353N
3296.019	0.0	1122516	MATH_START	n/a	n/a	-999	-999	n/a	n/a	n/a	n/a	7	[0, 0, 0]	-999	PAL1	0	R1353N
3296.019	0.015	1122516	START	n/a	n/a	-999	-999	n/a	n/a	n/a	n/a	7	[-999, -999, -999]	-999	PAL1	0	R1353N
3296.034	5.851	1122531	PROB	5.816	n/a	-999	-999	n/a	n/a	n/a	n/a	7	[6, 5, 2]	13	PAL1	0	R1353N
3301.885	6.301	1128382	PROB	6.277	n/a	-999	-999	n/a	n/a	n/a	n/a	7	[6, 5, 4]	13	PAL1	0	R1353N
3308.186	7.652	1134683	PROB	7.616	n/a	-999	-999	n/a	n/a	n/a	n/a	7	[7, 3, 4]	14	PAL1	0	R1353N
3315.838	8.413	1142334	PROB	8.413	n/a	-999	-999	n/a	n/a	n/a	n/a	7	[4, 3, 5]	12	PAL1	0	R1353N
3324.251	0.022	1150747	STOP	n/a	n/a	-999	-999	n/a	n/a	n/a	n/a	7	[-999, -999, -999]	-999	PAL1	0	R1353N
3324.273	0.499	1150769	MATH_END	n/a	n/a	-999	-999	n/a	n/a	n/a	n/a	7	[0, 0, 0]	-999	PAL1	0	R1353N
3324.772	0.003	1151268	RETRIEVAL_START	n/a	n/a	-999	-999	n/a	n/a	n/a	n/a	7	[0, 0, 0]	-999	PAL1	0	R1353N
3324.775	0.281	1151271	ORIENT_START	n/a	n/a	-999	-999	n/a	n/a	n/a	n/a	7	[0, 0, 0]	-999	PAL1	0	R1353N
3325.056	0.695	1151552	ORIENT_END	n/a	n/a	-999	-999	n/a	n/a	n/a	n/a	7	[0, 0, 0]	-999	PAL1	0	R1353N
3325.751	4.0	1152247	PROBE_START	n/a	wordpools/wordpool_EN.txt	1	1	MAP	n/a	MAP	STORE	7	[0, 0, 0]	-999	PAL1	0	R1353N
3325.751	4.039	1152247	REC_START	n/a	n/a	1	1	MAP	n/a	MAP	STORE	7	[0, 0, 0]	-999	PAL1	0	R1353N
3329.79	1.001	1156286	PROBE_END	n/a	n/a	1	1	MAP	n/a	MAP	STORE	7	[0, 0, 0]	-999	PAL1	0	R1353N
3330.791	0.012	1157287	REC_END	n/a	n/a	1	1	MAP	n/a	MAP	STORE	7	[0, 0, 0]	-999	PAL1	0	R1353N
3330.803	0.271	1157299	ORIENT_START	n/a	n/a	-999	-999	n/a	n/a	n/a	n/a	7	[0, 0, 0]	-999	PAL1	0	R1353N
3331.074	0.69	1157570	ORIENT_END	n/a	n/a	-999	-999	n/a	n/a	n/a	n/a	7	[0, 0, 0]	-999	PAL1	0	R1353N
3331.764	0.025	1158260	REC_EVENT	6.013	n/a	1	1	MAP	<>	MAP	STORE	7	[0, 0, 0]	-999	PAL1	0	R1353N
3331.789	0.0	1158285	REC_START	n/a	n/a	2	2	FLOOR	n/a	FLOOR	APE	7	[0, 0, 0]	-999	PAL1	0	R1353N
3331.789	4.0	1158285	PROBE_START	n/a	wordpools/wordpool_EN.txt	2	2	FLOOR	n/a	FLOOR	APE	7	[0, 0, 0]	-999	PAL1	0	R1353N
3335.824	1.0	1162320	PROBE_END	n/a	n/a	2	2	FLOOR	n/a	FLOOR	APE	7	[0, 0, 0]	-999	PAL1	0	R1353N
3336.824	0.013	1163320	REC_END	n/a	n/a	2	2	FLOOR	n/a	FLOOR	APE	7	[0, 0, 0]	-999	PAL1	0	R1353N
3336.837	0.271	1163333	ORIENT_START	n/a	n/a	-999	-999	n/a	n/a	n/a	n/a	7	[0, 0, 0]	-999	PAL1	0	R1353N
3337.108	0.547	1163604	ORIENT_END	n/a	n/a	-999	-999	n/a	n/a	n/a	n/a	7	[0, 0, 0]	-999	PAL1	0	R1353N
3337.655	0.0	1164151	REC_START	n/a	n/a	5	3	ELF	SHELL	TIE	ELF	7	[0, 0, 0]	-999	PAL1	0	R1353N
3337.655	4.0	1164151	PROBE_START	n/a	wordpools/wordpool_EN.txt	5	3	ELF	SHELL	TIE	ELF	7	[0, 0, 0]	-999	PAL1	0	R1353N
3337.814	2.593	1164310	REC_EVENT	6.025	n/a	2	2	FLOOR	<>	FLOOR	APE	7	[0, 0, 0]	-999	PAL1	0	R1353N
3340.407	1.285	1166902	REC_EVENT	2.752	n/a	5	3	ELF	SHELL	TIE	ELF	7	[0, 0, 0]	-999	PAL1	0	R1353N
3341.692	1.0	1168187	PROBE_END	n/a	n/a	5	3	ELF	n/a	TIE	ELF	7	[0, 0, 0]	-999	PAL1	0	R1353N
3342.692	0.012	1169187	REC_END	n/a	n/a	5	3	ELF	n/a	TIE	ELF	7	[0, 0, 0]	-999	PAL1	0	R1353N
3342.704	0.272	1169199	ORIENT_START	n/a	n/a	-999	-999	n/a	n/a	n/a	n/a	7	[0, 0, 0]	-999	PAL1	0	R1353N
3342.976	0.536	1169471	ORIENT_END	n/a	n/a	-999	-999	n/a	n/a	n/a	n/a	7	[0, 0, 0]	-999	PAL1	0	R1353N
3343.512	0.211	1170007	REC_EVENT	5.857	n/a	5	3	ELF	<>	TIE	ELF	7	[0, 0, 0]	-999	PAL1	0	R1353N
3343.723	0.0	1170218	REC_START	n/a	n/a	4	4	MOLE	n/a	TOOL	MOLE	7	[0, 0, 0]	-999	PAL1	0	R1353N
3343.723	4.0	1170218	PROBE_START	n/a	wordpools/wordpool_EN.txt	4	4	MOLE	n/a	TOOL	MOLE	7	[0, 0, 0]	-999	PAL1	0	R1353N
3347.76	1.0	1174255	PROBE_END	n/a	n/a	4	4	MOLE	n/a	TOOL	MOLE	7	[0, 0, 0]	-999	PAL1	0	R1353N
3348.76	0.007	1175255	REC_END	n/a	n/a	4	4	MOLE	n/a	TOOL	MOLE	7	[0, 0, 0]	-999	PAL1	0	R1353N
3348.767	0.276	1175262	ORIENT_START	n/a	n/a	-999	-999	n/a	n/a	n/a	n/a	7	[0, 0, 0]	-999	PAL1	0	R1353N
3349.043	0.663	1175538	ORIENT_END	n/a	n/a	-999	-999	n/a	n/a	n/a	n/a	7	[0, 0, 0]	-999	PAL1	0	R1353N
3349.706	0.0	1176201	REC_START	n/a	n/a	3	5	LIP	n/a	LIP	SOAP	7	[0, 0, 0]	-999	PAL1	0	R1353N
3349.706	4.0	1176201	PROBE_START	n/a	wordpools/wordpool_EN.txt	3	5	LIP	n/a	LIP	SOAP	7	[0, 0, 0]	-999	PAL1	0	R1353N
3349.777	3.967	1176272	REC_EVENT	6.054	n/a	4	4	MOLE	<>	TOOL	MOLE	7	[0, 0, 0]	-999	PAL1	0	R1353N
3353.744	1.0	1180239	PROBE_END	n/a	n/a	3	5	LIP	n/a	LIP	SOAP	7	[0, 0, 0]	-999	PAL1	0	R1353N
3354.744	0.014	1181239	REC_END	n/a	n/a	3	5	LIP	n/a	LIP	SOAP	7	[0, 0, 0]	-999	PAL1	0	R1353N
3354.758	0.27	1181253	ORIENT_START	n/a	n/a	-999	-999	n/a	n/a	n/a	n/a	7	[0, 0, 0]	-999	PAL1	0	R1353N
3355.028	0.657	1181523	ORIENT_END	n/a	n/a	-999	-999	n/a	n/a	n/a	n/a	7	[0, 0, 0]	-999	PAL1	0	R1353N
3355.685	0.021	1182180	REC_EVENT	5.979	n/a	3	5	LIP	<>	LIP	SOAP	7	[0, 0, 0]	-999	PAL1	0	R1353N
3355.706	0.0	1182201	REC_START	n/a	n/a	6	6	SEED	n/a	DART	SEED	7	[0, 0, 0]	-999	PAL1	0	R1353N
3355.706	4.0	1182201	PROBE_START	n/a	wordpools/wordpool_EN.txt	6	6	SEED	n/a	DART	SEED	7	[0, 0, 0]	-999	PAL1	0	R1353N
3359.728	1.001	1186223	PROBE_END	n/a	n/a	6	6	SEED	n/a	DART	SEED	7	[0, 0, 0]	-999	PAL1	0	R1353N
3360.729	0.011	1187224	REC_END	n/a	n/a	6	6	SEED	n/a	DART	SEED	7	[0, 0, 0]	-999	PAL1	0	R1353N
3360.74	0.0	1187235	RETRIEVAL_END	n/a	n/a	-999	-999	n/a	n/a	n/a	n/a	7	[0, 0, 0]	-999	PAL1	0	R1353N
3360.74	0.049	1187235	TRIAL_END	n/a	n/a	-999	-999	n/a	n/a	n/a	n/a	7	[0, 0, 0]	-999	PAL1	0	R1353N
3360.789	0.0	1187284	WAITING_START	n/a	n/a	-999	-999	n/a	n/a	n/a	n/a	8	[0, 0, 0]	-999	PAL1	0	R1353N
3360.789	0.0	1187284	TRIAL	n/a	n/a	-999	-999	n/a	n/a	n/a	n/a	8	[0, 0, 0]	-999	PAL1	0	R1353N
3360.789	0.89	1187284	TRIAL_START	n/a	n/a	-999	-999	n/a	n/a	n/a	n/a	7	[0, 0, 0]	-999	PAL1	0	R1353N
3361.679	17.136	1188174	REC_EVENT	5.973	n/a	6	6	SEED	<>	DART	SEED	7	[0, 0, 0]	-999	PAL1	0	R1353N
3378.815	0.0	1205309	WAITING_END	n/a	n/a	-999	-999	n/a	n/a	n/a	n/a	8	[0, 0, 0]	-999	PAL1	0	R1353N
3378.815	10.0	1205309	COUNTDOWN_START	n/a	n/a	-999	-999	n/a	n/a	n/a	n/a	8	[0, 0, 0]	-999	PAL1	0	R1353N
3389.245	0.0	1215739	COUNTDOWN_END	n/a	n/a	-999	-999	n/a	n/a	n/a	n/a	8	[0, 0, 0]	-999	PAL1	0	R1353N
3389.245	0.739	1215739	ORIENT_START	n/a	n/a	-999	-999	n/a	n/a	n/a	n/a	8	[0, 0, 0]	-999	PAL1	0	R1353N
3389.984	0.0	1216478	ORIENT_END	n/a	n/a	-999	-999	n/a	n/a	n/a	n/a	8	[0, 0, 0]	-999	PAL1	0	R1353N
3389.984	1.053	1216478	ENCODING_START	n/a	n/a	-999	-999	n/a	n/a	n/a	n/a	8	[0, 0, 0]	-999	PAL1	0	R1353N
3391.037	4.0	1217531	STUDY_PAIR	n/a	wordpools/wordpool_EN.txt	1	-999	n/a	n/a	STREET	PURSE	8	[0, 0, 0]	-999	PAL1	0	R1353N
3395.068	0.637	1221561	STUDY_PAIR_OFF	n/a	n/a	1	-999	n/a	n/a	STREET	PURSE	8	[0, 0, 0]	-999	PAL1	0	R1353N
3395.705	4.0	1222198	STUDY_PAIR	n/a	wordpools/wordpool_EN.txt	2	-999	n/a	n/a	RICE	FOG	8	[0, 0, 0]	-999	PAL1	0	R1353N
3399.735	0.714	1226228	STUDY_PAIR_OFF	n/a	n/a	2	-999	n/a	n/a	RICE	FOG	8	[0, 0, 0]	-999	PAL1	0	R1353N
3400.449	4.0	1226942	STUDY_PAIR	n/a	wordpools/wordpool_EN.txt	3	-999	n/a	n/a	BAND	FENCE	8	[0, 0, 0]	-999	PAL1	0	R1353N
3404.487	0.613	1230980	STUDY_PAIR_OFF	n/a	n/a	3	-999	n/a	n/a	BAND	FENCE	8	[0, 0, 0]	-999	PAL1	0	R1353N
3405.1	4.0	1231593	STUDY_PAIR	n/a	wordpools/wordpool_EN.txt	4	-999	n/a	n/a	MOUSE	PANTS	8	[0, 0, 0]	-999	PAL1	0	R1353N
3409.137	0.563	1235630	STUDY_PAIR_OFF	n/a	n/a	4	-999	n/a	n/a	MOUSE	PANTS	8	[0, 0, 0]	-999	PAL1	0	R1353N
3409.7	4.0	1236193	STUDY_PAIR	n/a	wordpools/wordpool_EN.txt	5	-999	n/a	LAKE	FOX	RAKE	8	[0, 0, 0]	-999	PAL1	0	R1353N
3413.737	0.571	1240230	STUDY_PAIR_OFF	n/a	n/a	5	-999	n/a	LAKE	FOX	RAKE	8	[0, 0, 0]	-999	PAL1	0	R1353N
3414.308	4.0	1240801	STUDY_PAIR	n/a	wordpools/wordpool_EN.txt	6	-999	n/a	n/a	PLATE	LAKE	8	[0, 0, 0]	-999	PAL1	0	R1353N
3418.338	0.001	1244830	STUDY_PAIR_OFF	n/a	n/a	6	-999	n/a	n/a	PLATE	LAKE	8	[0, 0, 0]	-999	PAL1	0	R1353N
3418.339	0.0	1244831	ENCODING_END	n/a	n/a	-999	-999	n/a	n/a	n/a	n/a	8	[0, 0, 0]	-999	PAL1	0	R1353N
3418.339	0.0	1244831	MATH_START	n/a	n/a	-999	-999	n/a	n/a	n/a	n/a	8	[0, 0, 0]	-999	PAL1	0	R1353N
3418.339	0.016	1244831	START	n/a	n/a	-999	-999	n/a	n/a	n/a	n/a	8	[-999, -999, -999]	-999	PAL1	0	R1353N
3418.355	7.917	1244847	PROB	7.879	n/a	-999	-999	n/a	n/a	n/a	n/a	8	[8, 2, 6]	16	PAL1	0	R1353N
3426.272	5.685	1252764	PROB	5.659	n/a	-999	-999	n/a	n/a	n/a	n/a	8	[5, 2, 7]	14	PAL1	0	R1353N
3431.957	5.617	1258449	PROB	5.589	n/a	-999	-999	n/a	n/a	n/a	n/a	8	[4, 5, 6]	15	PAL1	0	R1353N
3437.574	3.789	1264066	PROB	3.789	n/a	-999	-999	n/a	n/a	n/a	n/a	8	[1, 9, 7]	17	PAL1	0	R1353N
3441.363	0.012	1267855	STOP	n/a	n/a	-999	-999	n/a	n/a	n/a	n/a	8	[-999, -999, -999]	-999	PAL1	0	R1353N
3441.375	0.654	1267867	MATH_END	n/a	n/a	-999	-999	n/a	n/a	n/a	n/a	8	[0, 0, 0]	-999	PAL1	0	R1353N
3442.029	0.002	1268521	RETRIEVAL_START	n/a	n/a	-999	-999	n/a	n/a	n/a	n/a	8	[0, 0, 0]	-999	PAL1	0	R1353N
3442.031	0.278	1268523	ORIENT_START	n/a	n/a	-999	-999	n/a	n/a	n/a	n/a	8	[0, 0, 0]	-999	PAL1	0	R1353N
3442.309	0.507	1268800	ORIENT_END	n/a	n/a	-999	-999	n/a	n/a	n/a	n/a	8	[0, 0, 0]	-999	PAL1	0	R1353N
3442.816	0.0	1269307	REC_START	n/a	n/a	3	1	BAND	n/a	BAND	FENCE	8	[0, 0, 0]	-999	PAL1	0	R1353N
3442.816	4.0	1269307	PROBE_START	n/a	wordpools/wordpool_EN.txt	3	1	BAND	n/a	BAND	FENCE	8	[0, 0, 0]	-999	PAL1	0	R1353N
3446.843	1.0	1273334	PROBE_END	n/a	n/a	3	1	BAND	n/a	BAND	FENCE	8	[0, 0, 0]	-999	PAL1	0	R1353N
3447.843	0.01	1274334	REC_END	n/a	n/a	3	1	BAND	n/a	BAND	FENCE	8	[0, 0, 0]	-999	PAL1	0	R1353N
3447.853	0.273	1274344	ORIENT_START	n/a	n/a	-999	-999	n/a	n/a	n/a	n/a	8	[0, 0, 0]	-999	PAL1	0	R1353N
3448.126	0.5	1274617	ORIENT_END	n/a	n/a	-999	-999	n/a	n/a	n/a	n/a	8	[0, 0, 0]	-999	PAL1	0	R1353N
3448.626	0.163	1275117	REC_EVENT	5.81	n/a	3	1	BAND	<>	BAND	FENCE	8	[0, 0, 0]	-999	PAL1	0	R1353N
3448.789	0.001	1275280	REC_START	n/a	n/a	2	2	RICE	n/a	RICE	FOG	8	[0, 0, 0]	-999	PAL1	0	R1353N
3448.79	4.0	1275281	PROBE_START	n/a	wordpools/wordpool_EN.txt	2	2	RICE	n/a	RICE	FOG	8	[0, 0, 0]	-999	PAL1	0	R1353N
3452.827	1.001	1279318	PROBE_END	n/a	n/a	2	2	RICE	n/a	RICE	FOG	8	[0, 0, 0]	-999	PAL1	0	R1353N
3453.828	0.013	1280319	REC_END	n/a	n/a	2	2	RICE	n/a	RICE	FOG	8	[0, 0, 0]	-999	PAL1	0	R1353N
3453.841	0.27	1280332	ORIENT_START	n/a	n/a	-999	-999	n/a	n/a	n/a	n/a	8	[0, 0, 0]	-999	PAL1	0	R1353N
3454.111	0.624	1280602	ORIENT_END	n/a	n/a	-999	-999	n/a	n/a	n/a	n/a	8	[0, 0, 0]	-999	PAL1	0	R1353N
3454.735	0.001	1281226	REC_START	n/a	n/a	1	3	PURSE	n/a	STREET	PURSE	8	[0, 0, 0]	-999	PAL1	0	R1353N
3454.736	4.0	1281227	PROBE_START	n/a	wordpools/wordpool_EN.txt	1	3	PURSE	n/a	STREET	PURSE	8	[0, 0, 0]	-999	PAL1	0	R1353N
3454.763	3.999	1281254	REC_EVENT	5.973	n/a	2	2	RICE	<>	RICE	FOG	8	[0, 0, 0]	-999	PAL1	0	R1353N
3458.762	1.0	1285253	PROBE_END	n/a	n/a	1	3	PURSE	n/a	STREET	PURSE	8	[0, 0, 0]	-999	PAL1	0	R1353N
3459.762	0.012	1286253	REC_END	n/a	n/a	1	3	PURSE	n/a	STREET	PURSE	8	[0, 0, 0]	-999	PAL1	0	R1353N
3459.774	0.271	1286265	ORIENT_START	n/a	n/a	-999	-999	n/a	n/a	n/a	n/a	8	[0, 0, 0]	-999	PAL1	0	R1353N
3460.045	0.509	1286536	ORIENT_END	n/a	n/a	-999	-999	n/a	n/a	n/a	n/a	8	[0, 0, 0]	-999	PAL1	0	R1353N
3460.554	0.001	1287045	REC_START	n/a	n/a	6	4	PLATE	n/a	PLATE	LAKE	8	[0, 0, 0]	-999	PAL1	0	R1353N
3460.555	4.0	1287046	PROBE_START	n/a	wordpools/wordpool_EN.txt	6	4	PLATE	n/a	PLATE	LAKE	8	[0, 0, 0]	-999	PAL1	0	R1353N
3460.657	3.922	1287148	REC_EVENT	5.921	n/a	1	3	PURSE	<>	STREET	PURSE	8	[0, 0, 0]	-999	PAL1	0	R1353N
3464.579	1.0	1291070	PROBE_END	n/a	n/a	6	4	PLATE	n/a	PLATE	LAKE	8	[0, 0, 0]	-999	PAL1	0	R1353N
3465.579	0.01	1292070	REC_END	n/a	n/a	6	4	PLATE	n/a	PLATE	LAKE	8	[0, 0, 0]	-999	PAL1	0	R1353N
3465.589	0.274	1292080	ORIENT_START	n/a	n/a	-999	-999	n/a	n/a	n/a	n/a	8	[0, 0, 0]	-999	PAL1	0	R1353N
3465.863	0.496	1292354	ORIENT_END	n/a	n/a	-999	-999	n/a	n/a	n/a	n/a	8	[0, 0, 0]	-999	PAL1	0	R1353N
3466.359	0.053	1292850	REC_EVENT	5.804	n/a	6	4	PLATE	<>	PLATE	LAKE	8	[0, 0, 0]	-999	PAL1	0	R1353N
3466.412	0.0	1292903	REC_START	n/a	n/a	5	5	RAKE	LAKE	FOX	RAKE	8	[0, 0, 0]	-999	PAL1	0	R1353N
3466.412	4.0	1292903	PROBE_START	n/a	wordpools/wordpool_EN.txt	5	5	RAKE	LAKE	FOX	RAKE	8	[0, 0, 0]	-999	PAL1	0	R1353N
3470.447	0.664	1296937	PROBE_END	n/a	n/a	5	5	RAKE	n/a	FOX	RAKE	8	[0, 0, 0]	-999	PAL1	0	R1353N
3471.111	0.336	1297601	REC_EVENT	4.699	n/a	5	5	RAKE	LAKE	FOX	RAKE	8	[0, 0, 0]	-999	PAL1	0	R1353N
3471.447	0.012	1297937	REC_END	n/a	n/a	5	5	RAKE	n/a	FOX	RAKE	8	[0, 0, 0]	-999	PAL1	0	R1353N
3471.459	0.271	1297949	ORIENT_START	n/a	n/a	-999	-999	n/a	n/a	n/a	n/a	8	[0, 0, 0]	-999	PAL1	0	R1353N
3471.73	0.605	1298220	ORIENT_END	n/a	n/a	-999	-999	n/a	n/a	n/a	n/a	8	[0, 0, 0]	-999	PAL1	0	R1353N
3472.335	0.0	1298825	REC_START	n/a	n/a	4	6	PANTS	n/a	MOUSE	PANTS	8	[0, 0, 0]	-999	PAL1	0	R1353N
3472.335	4.0	1298825	PROBE_START	n/a	wordpools/wordpool_EN.txt	4	6	PANTS	n/a	MOUSE	PANTS	8	[0, 0, 0]	-999	PAL1	0	R1353N
3476.364	1.0	1302854	PROBE_END	n/a	n/a	4	6	PANTS	n/a	MOUSE	PANTS	8	[0, 0, 0]	-999	PAL1	0	R1353N
3477.364	0.011	1303854	REC_END	n/a	n/a	4	6	PANTS	n/a	MOUSE	PANTS	8	[0, 0, 0]	-999	PAL1	0	R1353N
3477.375	0.0	1303865	RETRIEVAL_END	n/a	n/a	-999	-999	n/a	n/a	n/a	n/a	8	[0, 0, 0]	-999	PAL1	0	R1353N
3477.375	0.02	1303865	TRIAL_END	n/a	n/a	-999	-999	n/a	n/a	n/a	n/a	8	[0, 0, 0]	-999	PAL1	0	R1353N
3477.395	0.001	1303885	TRIAL_START	n/a	n/a	-999	-999	n/a	n/a	n/a	n/a	8	[0, 0, 0]	-999	PAL1	0	R1353N
3477.396	0.0	1303886	TRIAL	n/a	n/a	-999	-999	n/a	n/a	n/a	n/a	9	[0, 0, 0]	-999	PAL1	0	R1353N
3477.396	0.842	1303886	WAITING_START	n/a	n/a	-999	-999	n/a	n/a	n/a	n/a	9	[0, 0, 0]	-999	PAL1	0	R1353N
3478.238	2.327	1304728	REC_EVENT	5.903	n/a	4	6	PANTS	<>	MOUSE	PANTS	8	[0, 0, 0]	-999	PAL1	0	R1353N
3480.565	0.0	1307055	WAITING_END	n/a	n/a	-999	-999	n/a	n/a	n/a	n/a	9	[0, 0, 0]	-999	PAL1	0	R1353N
3480.565	10.0	1307055	COUNTDOWN_START	n/a	n/a	-999	-999	n/a	n/a	n/a	n/a	9	[0, 0, 0]	-999	PAL1	0	R1353N
3490.995	0.0	1317485	COUNTDOWN_END	n/a	n/a	-999	-999	n/a	n/a	n/a	n/a	9	[0, 0, 0]	-999	PAL1	0	R1353N
3490.995	0.689	1317485	ORIENT_START	n/a	n/a	-999	-999	n/a	n/a	n/a	n/a	9	[0, 0, 0]	-999	PAL1	0	R1353N
3491.684	0.0	1318174	ORIENT_END	n/a	n/a	-999	-999	n/a	n/a	n/a	n/a	9	[0, 0, 0]	-999	PAL1	0	R1353N
3491.684	1.236	1318174	ENCODING_START	n/a	n/a	-999	-999	n/a	n/a	n/a	n/a	9	[0, 0, 0]	-999	PAL1	0	R1353N
3492.92	4.0	1319410	STUDY_PAIR	n/a	wordpools/wordpool_EN.txt	1	-999	n/a	NAIL	TOE	NAIL	9	[0, 0, 0]	-999	PAL1	0	R1353N
3496.951	0.553	1323440	STUDY_PAIR_OFF	n/a	n/a	1	-999	n/a	NAIL	TOE	NAIL	9	[0, 0, 0]	-999	PAL1	0	R1353N
3497.504	4.0	1323993	STUDY_PAIR	n/a	wordpools/wordpool_EN.txt	2	-999	n/a	n/a	PLANT	JUDGE	9	[0, 0, 0]	-999	PAL1	0	R1353N
3501.535	0.679	1328024	STUDY_PAIR_OFF	n/a	n/a	2	-999	n/a	n/a	PLANT	JUDGE	9	[0, 0, 0]	-999	PAL1	0	R1353N
3502.214	4.0	1328703	STUDY_PAIR	n/a	wordpools/wordpool_EN.txt	3	-999	n/a	n/a	TOAD	STRING	9	[0, 0, 0]	-999	PAL1	0	R1353N
3506.253	0.627	1332742	STUDY_PAIR_OFF	n/a	n/a	3	-999	n/a	n/a	TOAD	STRING	9	[0, 0, 0]	-999	PAL1	0	R1353N
3506.88	4.0	1333369	STUDY_PAIR	n/a	wordpools/wordpool_EN.txt	4	-999	n/a	n/a	BOX	TOY	9	[0, 0, 0]	-999	PAL1	0	R1353N
3510.903	0.566	1337392	STUDY_PAIR_OFF	n/a	n/a	4	-999	n/a	n/a	BOX	TOY	9	[0, 0, 0]	-999	PAL1	0	R1353N
3511.469	4.0	1337958	STUDY_PAIR	n/a	wordpools/wordpool_EN.txt	5	-999	n/a	YARD	YARD	DEER	9	[0, 0, 0]	-999	PAL1	0	R1353N
3515.487	0.696	1341976	STUDY_PAIR_OFF	n/a	n/a	5	-999	n/a	YARD	YARD	DEER	9	[0, 0, 0]	-999	PAL1	0	R1353N
3516.183	4.0	1342672	STUDY_PAIR	n/a	wordpools/wordpool_EN.txt	6	-999	n/a	n/a	COW	VASE	9	[0, 0, 0]	-999	PAL1	0	R1353N
3520.222	0.0	1346710	STUDY_PAIR_OFF	n/a	n/a	6	-999	n/a	n/a	COW	VASE	9	[0, 0, 0]	-999	PAL1	0	R1353N
3520.222	0.0	1346710	ENCODING_END	n/a	n/a	-999	-999	n/a	n/a	n/a	n/a	9	[0, 0, 0]	-999	PAL1	0	R1353N
3520.222	0.001	1346710	MATH_START	n/a	n/a	-999	-999	n/a	n/a	n/a	n/a	9	[0, 0, 0]	-999	PAL1	0	R1353N
3520.223	0.015	1346711	START	n/a	n/a	-999	-999	n/a	n/a	n/a	n/a	9	[-999, -999, -999]	-999	PAL1	0	R1353N
3520.238	5.634	1346726	PROB	5.605	n/a	-999	-999	n/a	n/a	n/a	n/a	9	[9, 5, 5]	19	PAL1	0	R1353N
3525.872	13.186	1352360	PROB	13.147	n/a	-999	-999	n/a	n/a	n/a	n/a	9	[9, 9, 5]	14	PAL1	0	R1353N
3539.058	5.617	1365546	PROB	5.617	n/a	-999	-999	n/a	n/a	n/a	n/a	9	[6, 5, 4]	13	PAL1	0	R1353N
3544.675	0.017	1371162	STOP	n/a	n/a	-999	-999	n/a	n/a	n/a	n/a	9	[-999, -999, -999]	-999	PAL1	0	R1353N
3544.692	0.502	1371179	MATH_END	n/a	n/a	-999	-999	n/a	n/a	n/a	n/a	9	[0, 0, 0]	-999	PAL1	0	R1353N
3545.194	0.001	1371681	RETRIEVAL_START	n/a	n/a	-999	-999	n/a	n/a	n/a	n/a	9	[0, 0, 0]	-999	PAL1	0	R1353N
3545.195	0.282	1371682	ORIENT_START	n/a	n/a	-999	-999	n/a	n/a	n/a	n/a	9	[0, 0, 0]	-999	PAL1	0	R1353N
3545.477	0.685	1371964	ORIENT_END	n/a	n/a	-999	-999	n/a	n/a	n/a	n/a	9	[0, 0, 0]	-999	PAL1	0	R1353N
3546.162	0.0	1372649	REC_START	n/a	n/a	5	1	DEER	YARD	YARD	DEER	9	[0, 0, 0]	-999	PAL1	0	R1353N
3546.162	4.0	1372649	PROBE_START	n/a	wordpools/wordpool_EN.txt	5	1	DEER	YARD	YARD	DEER	9	[0, 0, 0]	-999	PAL1	0	R1353N
3550.193	0.504	1376680	PROBE_END	n/a	n/a	5	1	DEER	n/a	YARD	DEER	9	[0, 0, 0]	-999	PAL1	0	R1353N
3550.697	0.496	1377184	REC_EVENT	4.535	n/a	5	1	DEER	YARD	YARD	DEER	9	[0, 0, 0]	-999	PAL1	0	R1353N
3551.193	0.013	1377680	REC_END	n/a	n/a	5	1	DEER	n/a	YARD	DEER	9	[0, 0, 0]	-999	PAL1	0	R1353N
3551.206	0.272	1377693	ORIENT_START	n/a	n/a	-999	-999	n/a	n/a	n/a	n/a	9	[0, 0, 0]	-999	PAL1	0	R1353N
3551.478	0.52	1377965	ORIENT_END	n/a	n/a	-999	-999	n/a	n/a	n/a	n/a	9	[0, 0, 0]	-999	PAL1	0	R1353N
3551.998	0.001	1378485	REC_START	n/a	n/a	4	2	BOX	n/a	BOX	TOY	9	[0, 0, 0]	-999	PAL1	0	R1353N
3551.999	4.0	1378486	PROBE_START	n/a	wordpools/wordpool_EN.txt	4	2	BOX	n/a	BOX	TOY	9	[0, 0, 0]	-999	PAL1	0	R1353N
3552.158	3.87	1378645	REC_EVENT	5.996	n/a	5	1	DEER	<>	YARD	DEER	9	[0, 0, 0]	-999	PAL1	0	R1353N
3556.028	1.0	1382515	PROBE_END	n/a	n/a	4	2	BOX	n/a	BOX	TOY	9	[0, 0, 0]	-999	PAL1	0	R1353N
3557.028	0.012	1383515	REC_END	n/a	n/a	4	2	BOX	n/a	BOX	TOY	9	[0, 0, 0]	-999	PAL1	0	R1353N
3557.04	0.271	1383527	ORIENT_START	n/a	n/a	-999	-999	n/a	n/a	n/a	n/a	9	[0, 0, 0]	-999	PAL1	0	R1353N
3557.311	0.51	1383798	ORIENT_END	n/a	n/a	-999	-999	n/a	n/a	n/a	n/a	9	[0, 0, 0]	-999	PAL1	0	R1353N
3557.821	0.174	1384308	REC_EVENT	5.822	n/a	4	2	BOX	<>	BOX	TOY	9	[0, 0, 0]	-999	PAL1	0	R1353N
3557.995	0.001	1384482	REC_START	n/a	n/a	1	3	TOE	NAIL	TOE	NAIL	9	[0, 0, 0]	-999	PAL1	0	R1353N
3557.996	4.0	1384483	PROBE_START	n/a	wordpools/wordpool_EN.txt	1	3	TOE	NAIL	TOE	NAIL	9	[0, 0, 0]	-999	PAL1	0	R1353N
3559.966	2.063	1386453	REC_EVENT	1.97	n/a	1	3	TOE	NAIL	TOE	NAIL	9	[0, 0, 0]	-999	PAL1	0	R1353N
3562.029	0.999	1388516	PROBE_END	n/a	n/a	1	3	TOE	n/a	TOE	NAIL	9	[0, 0, 0]	-999	PAL1	0	R1353N
3563.028	0.013	1389515	REC_END	n/a	n/a	1	3	TOE	n/a	TOE	NAIL	9	[0, 0, 0]	-999	PAL1	0	R1353N
3563.041	0.271	1389528	ORIENT_START	n/a	n/a	-999	-999	n/a	n/a	n/a	n/a	9	[0, 0, 0]	-999	PAL1	0	R1353N
3563.312	0.671	1389799	ORIENT_END	n/a	n/a	-999	-999	n/a	n/a	n/a	n/a	9	[0, 0, 0]	-999	PAL1	0	R1353N
3563.983	0.0	1390470	REC_START	n/a	n/a	2	4	JUDGE	n/a	PLANT	JUDGE	9	[0, 0, 0]	-999	PAL1	0	R1353N
3563.983	4.0	1390470	PROBE_START	n/a	wordpools/wordpool_EN.txt	2	4	JUDGE	n/a	PLANT	JUDGE	9	[0, 0, 0]	-999	PAL1	0	R1353N
3568.013	1.0	1394500	PROBE_END	n/a	n/a	2	4	JUDGE	n/a	PLANT	JUDGE	9	[0, 0, 0]	-999	PAL1	0	R1353N
3569.013	0.012	1395500	REC_END	n/a	n/a	2	4	JUDGE	n/a	PLANT	JUDGE	9	[0, 0, 0]	-999	PAL1	0	R1353N
3569.025	0.271	1395512	ORIENT_START	n/a	n/a	-999	-999	n/a	n/a	n/a	n/a	9	[0, 0, 0]	-999	PAL1	0	R1353N
3569.296	0.583	1395783	ORIENT_END	n/a	n/a	-999	-999	n/a	n/a	n/a	n/a	9	[0, 0, 0]	-999	PAL1	0	R1353N
3569.879	0.0	1396366	REC_START	n/a	n/a	3	5	STRING	n/a	TOAD	STRING	9	[0, 0, 0]	-999	PAL1	0	R1353N
3569.879	4.0	1396366	PROBE_START	n/a	wordpools/wordpool_EN.txt	3	5	STRING	n/a	TOAD	STRING	9	[0, 0, 0]	-999	PAL1	0	R1353N
3569.956	3.958	1396443	REC_EVENT	5.973	n/a	2	4	JUDGE	<>	PLANT	JUDGE	9	[0, 0, 0]	-999	PAL1	0	R1353N
3573.914	1.001	1400400	PROBE_END	n/a	n/a	3	5	STRING	n/a	TOAD	STRING	9	[0, 0, 0]	-999	PAL1	0	R1353N
3574.915	0.013	1401401	REC_END	n/a	n/a	3	5	STRING	n/a	TOAD	STRING	9	[0, 0, 0]	-999	PAL1	0	R1353N
3574.928	0.286	1401414	ORIENT_START	n/a	n/a	-999	-999	n/a	n/a	n/a	n/a	9	[0, 0, 0]	-999	PAL1	0	R1353N
3575.214	0.557	1401700	ORIENT_END	n/a	n/a	-999	-999	n/a	n/a	n/a	n/a	9	[0, 0, 0]	-999	PAL1	0	R1353N
3575.771	0.022	1402257	REC_EVENT	5.892	n/a	3	5	STRING	<>	TOAD	STRING	9	[0, 0, 0]	-999	PAL1	0	R1353N
3575.793	0.0	1402279	REC_START	n/a	n/a	6	6	COW	n/a	COW	VASE	9	[0, 0, 0]	-999	PAL1	0	R1353N
3575.793	4.0	1402279	PROBE_START	n/a	wordpools/wordpool_EN.txt	6	6	COW	n/a	COW	VASE	9	[0, 0, 0]	-999	PAL1	0	R1353N
3579.832	0.999	1406318	PROBE_END	n/a	n/a	6	6	COW	n/a	COW	VASE	9	[0, 0, 0]	-999	PAL1	0	R1353N
3580.831	0.012	1407317	REC_END	n/a	n/a	6	6	COW	n/a	COW	VASE	9	[0, 0, 0]	-999	PAL1	0	R1353N
3580.843	0.0	1407329	RETRIEVAL_END	n/a	n/a	-999	-999	n/a	n/a	n/a	n/a	9	[0, 0, 0]	-999	PAL1	0	R1353N
3580.843	0.02	1407329	TRIAL_END	n/a	n/a	-999	-999	n/a	n/a	n/a	n/a	9	[0, 0, 0]	-999	PAL1	0	R1353N
3580.863	0.001	1407349	TRIAL_START	n/a	n/a	-999	-999	n/a	n/a	n/a	n/a	9	[0, 0, 0]	-999	PAL1	0	R1353N
3580.864	0.0	1407350	TRIAL	n/a	n/a	-999	-999	n/a	n/a	n/a	n/a	10	[0, 0, 0]	-999	PAL1	0	R1353N
3580.864	0.832	1407350	WAITING_START	n/a	n/a	-999	-999	n/a	n/a	n/a	n/a	10	[0, 0, 0]	-999	PAL1	0	R1353N
3581.696	2.17	1408182	REC_EVENT	5.903	n/a	6	6	COW	<>	COW	VASE	9	[0, 0, 0]	-999	PAL1	0	R1353N
3583.866	0.0	1410352	WAITING_END	n/a	n/a	-999	-999	n/a	n/a	n/a	n/a	10	[0, 0, 0]	-999	PAL1	0	R1353N
3583.866	10.0	1410352	COUNTDOWN_START	n/a	n/a	-999	-999	n/a	n/a	n/a	n/a	10	[0, 0, 0]	-999	PAL1	0	R1353N
3594.295	0.0	1420781	COUNTDOWN_END	n/a	n/a	-999	-999	n/a	n/a	n/a	n/a	10	[0, 0, 0]	-999	PAL1	0	R1353N
3594.295	0.556	1420781	ORIENT_START	n/a	n/a	-999	-999	n/a	n/a	n/a	n/a	10	[0, 0, 0]	-999	PAL1	0	R1353N
3594.851	0.0	1421337	ORIENT_END	n/a	n/a	-999	-999	n/a	n/a	n/a	n/a	10	[0, 0, 0]	-999	PAL1	0	R1353N
3594.851	1.096	1421337	ENCODING_START	n/a	n/a	-999	-999	n/a	n/a	n/a	n/a	10	[0, 0, 0]	-999	PAL1	0	R1353N
3595.947	4.0	1422432	STUDY_PAIR	n/a	wordpools/wordpool_EN.txt	1	-999	n/a	n/a	KEY	SLIME	10	[0, 0, 0]	-999	PAL1	0	R1353N
3599.985	0.632	1426470	STUDY_PAIR_OFF	n/a	n/a	1	-999	n/a	n/a	KEY	SLIME	10	[0, 0, 0]	-999	PAL1	0	R1353N
3600.617	4.0	1427102	STUDY_PAIR	n/a	wordpools/wordpool_EN.txt	2	-999	n/a	n/a	BRIDGE	BADGE	10	[0, 0, 0]	-999	PAL1	0	R1353N
3604.652	0.684	1431137	STUDY_PAIR_OFF	n/a	n/a	2	-999	n/a	n/a	BRIDGE	BADGE	10	[0, 0, 0]	-999	PAL1	0	R1353N
3605.336	4.0	1431821	STUDY_PAIR	n/a	wordpools/wordpool_EN.txt	3	-999	n/a	n/a	ROOM	STONE	10	[0, 0, 0]	-999	PAL1	0	R1353N
3609.37	0.666	1435855	STUDY_PAIR_OFF	n/a	n/a	3	-999	n/a	n/a	ROOM	STONE	10	[0, 0, 0]	-999	PAL1	0	R1353N
3610.036	4.0	1436521	STUDY_PAIR	n/a	wordpools/wordpool_EN.txt	4	-999	n/a	n/a	DRUM	FOAM	10	[0, 0, 0]	-999	PAL1	0	R1353N
3614.07	0.661	1440555	STUDY_PAIR_OFF	n/a	n/a	4	-999	n/a	n/a	DRUM	FOAM	10	[0, 0, 0]	-999	PAL1	0	R1353N
3614.731	4.0	1441216	STUDY_PAIR	n/a	wordpools/wordpool_EN.txt	5	-999	n/a	n/a	CAR	JUICE	10	[0, 0, 0]	-999	PAL1	0	R1353N
3618.755	0.596	1445240	STUDY_PAIR_OFF	n/a	n/a	5	-999	n/a	n/a	CAR	JUICE	10	[0, 0, 0]	-999	PAL1	0	R1353N
3619.351	4.0	1445836	STUDY_PAIR	n/a	wordpools/wordpool_EN.txt	6	-999	n/a	n/a	BOAT	LEG	10	[0, 0, 0]	-999	PAL1	0	R1353N
3623.389	0.0	1449873	STUDY_PAIR_OFF	n/a	n/a	6	-999	n/a	n/a	BOAT	LEG	10	[0, 0, 0]	-999	PAL1	0	R1353N
3623.389	0.0	1449873	ENCODING_END	n/a	n/a	-999	-999	n/a	n/a	n/a	n/a	10	[0, 0, 0]	-999	PAL1	0	R1353N
3623.389	0.001	1449873	MATH_START	n/a	n/a	-999	-999	n/a	n/a	n/a	n/a	10	[0, 0, 0]	-999	PAL1	0	R1353N
3623.39	0.015	1449874	START	n/a	n/a	-999	-999	n/a	n/a	n/a	n/a	10	[-999, -999, -999]	-999	PAL1	0	R1353N
3623.405	6.318	1449889	PROB	6.293	n/a	-999	-999	n/a	n/a	n/a	n/a	10	[9, 2, 6]	15	PAL1	0	R1353N
3629.723	9.468	1456207	PROB	9.439	n/a	-999	-999	n/a	n/a	n/a	n/a	10	[4, 6, 6]	13	PAL1	0	R1353N
3639.191	6.396	1465675	PROB	6.396	n/a	-999	-999	n/a	n/a	n/a	n/a	10	[8, 5, 5]	18	PAL1	0	R1353N
3645.587	0.022	1472071	STOP	n/a	n/a	-999	-999	n/a	n/a	n/a	n/a	10	[-999, -999, -999]	-999	PAL1	0	R1353N
3645.609	0.516	1472093	MATH_END	n/a	n/a	-999	-999	n/a	n/a	n/a	n/a	10	[0, 0, 0]	-999	PAL1	0	R1353N
3646.125	0.001	1472609	RETRIEVAL_START	n/a	n/a	-999	-999	n/a	n/a	n/a	n/a	10	[0, 0, 0]	-999	PAL1	0	R1353N
3646.126	0.283	1472610	ORIENT_START	n/a	n/a	-999	-999	n/a	n/a	n/a	n/a	10	[0, 0, 0]	-999	PAL1	0	R1353N
3646.409	0.547	1472893	ORIENT_END	n/a	n/a	-999	-999	n/a	n/a	n/a	n/a	10	[0, 0, 0]	-999	PAL1	0	R1353N
3646.956	4.0	1473439	PROBE_START	n/a	wordpools/wordpool_EN.txt	1	1	KEY	n/a	KEY	SLIME	10	[0, 0, 0]	-999	PAL1	0	R1353N
3646.956	4.037	1473439	REC_START	n/a	n/a	1	1	KEY	n/a	KEY	SLIME	10	[0, 0, 0]	-999	PAL1	0	R1353N
3650.993	1.001	1477476	PROBE_END	n/a	n/a	1	1	KEY	n/a	KEY	SLIME	10	[0, 0, 0]	-999	PAL1	0	R1353N
3651.994	0.011	1478477	REC_END	n/a	n/a	1	1	KEY	n/a	KEY	SLIME	10	[0, 0, 0]	-999	PAL1	0	R1353N
3652.005	0.272	1478488	ORIENT_START	n/a	n/a	-999	-999	n/a	n/a	n/a	n/a	10	[0, 0, 0]	-999	PAL1	0	R1353N
3652.277	0.547	1478760	ORIENT_END	n/a	n/a	-999	-999	n/a	n/a	n/a	n/a	10	[0, 0, 0]	-999	PAL1	0	R1353N
3652.824	0.062	1479307	REC_EVENT	5.868	n/a	1	1	KEY	<>	KEY	SLIME	10	[0, 0, 0]	-999	PAL1	0	R1353N
3652.886	0.0	1479369	REC_START	n/a	n/a	4	2	FOAM	n/a	DRUM	FOAM	10	[0, 0, 0]	-999	PAL1	0	R1353N
3652.886	4.0	1479369	PROBE_START	n/a	wordpools/wordpool_EN.txt	4	2	FOAM	n/a	DRUM	FOAM	10	[0, 0, 0]	-999	PAL1	0	R1353N
3656.911	1.0	1483394	PROBE_END	n/a	n/a	4	2	FOAM	n/a	DRUM	FOAM	10	[0, 0, 0]	-999	PAL1	0	R1353N
3657.911	0.012	1484394	REC_END	n/a	n/a	4	2	FOAM	n/a	DRUM	FOAM	10	[0, 0, 0]	-999	PAL1	0	R1353N
3657.923	0.271	1484406	ORIENT_START	n/a	n/a	-999	-999	n/a	n/a	n/a	n/a	10	[0, 0, 0]	-999	PAL1	0	R1353N
3658.194	0.595	1484677	ORIENT_END	n/a	n/a	-999	-999	n/a	n/a	n/a	n/a	10	[0, 0, 0]	-999	PAL1	0	R1353N
3658.789	0.004	1485272	REC_EVENT	5.903	n/a	4	2	FOAM	<>	DRUM	FOAM	10	[0, 0, 0]	-999	PAL1	0	R1353N
3658.793	0.001	1485276	REC_START	n/a	n/a	5	3	CAR	n/a	CAR	JUICE	10	[0, 0, 0]	-999	PAL1	0	R1353N
3658.794	4.0	1485277	PROBE_START	n/a	wordpools/wordpool_EN.txt	5	3	CAR	n/a	CAR	JUICE	10	[0, 0, 0]	-999	PAL1	0	R1353N
3662.829	1.0	1489312	PROBE_END	n/a	n/a	5	3	CAR	n/a	CAR	JUICE	10	[0, 0, 0]	-999	PAL1	0	R1353N
3663.829	0.013	1490312	REC_END	n/a	n/a	5	3	CAR	n/a	CAR	JUICE	10	[0, 0, 0]	-999	PAL1	0	R1353N
3663.842	0.27	1490325	ORIENT_START	n/a	n/a	-999	-999	n/a	n/a	n/a	n/a	10	[0, 0, 0]	-999	PAL1	0	R1353N
3664.112	0.51	1490595	ORIENT_END	n/a	n/a	-999	-999	n/a	n/a	n/a	n/a	10	[0, 0, 0]	-999	PAL1	0	R1353N
3664.622	4.0	1491105	PROBE_START	n/a	wordpools/wordpool_EN.txt	2	4	BRIDGE	n/a	BRIDGE	BADGE	10	[0, 0, 0]	-999	PAL1	0	R1353N
3664.622	0.075	1491105	REC_START	n/a	n/a	2	4	BRIDGE	n/a	BRIDGE	BADGE	10	[0, 0, 0]	-999	PAL1	0	R1353N
3664.697	3.949	1491180	REC_EVENT	5.903	n/a	5	3	CAR	<>	CAR	JUICE	10	[0, 0, 0]	-999	PAL1	0	R1353N
3668.646	1.0	1495129	PROBE_END	n/a	n/a	2	4	BRIDGE	n/a	BRIDGE	BADGE	10	[0, 0, 0]	-999	PAL1	0	R1353N
3669.646	0.012	1496129	REC_END	n/a	n/a	2	4	BRIDGE	n/a	BRIDGE	BADGE	10	[0, 0, 0]	-999	PAL1	0	R1353N
3669.658	0.272	1496141	ORIENT_START	n/a	n/a	-999	-999	n/a	n/a	n/a	n/a	10	[0, 0, 0]	-999	PAL1	0	R1353N
3669.93	0.496	1496413	ORIENT_END	n/a	n/a	-999	-999	n/a	n/a	n/a	n/a	10	[0, 0, 0]	-999	PAL1	0	R1353N
3670.426	0.114	1496909	REC_EVENT	5.804	n/a	2	4	BRIDGE	<>	BRIDGE	BADGE	10	[0, 0, 0]	-999	PAL1	0	R1353N
3670.54	0.0	1497023	REC_START	n/a	n/a	3	5	STONE	n/a	ROOM	STONE	10	[0, 0, 0]	-999	PAL1	0	R1353N
3670.54	4.0	1497023	PROBE_START	n/a	wordpools/wordpool_EN.txt	3	5	STONE	n/a	ROOM	STONE	10	[0, 0, 0]	-999	PAL1	0	R1353N
3674.564	1.0	1501046	PROBE_END	n/a	n/a	3	5	STONE	n/a	ROOM	STONE	10	[0, 0, 0]	-999	PAL1	0	R1353N
3675.564	0.011	1502046	REC_END	n/a	n/a	3	5	STONE	n/a	ROOM	STONE	10	[0, 0, 0]	-999	PAL1	0	R1353N
3675.575	0.272	1502057	ORIENT_START	n/a	n/a	-999	-999	n/a	n/a	n/a	n/a	10	[0, 0, 0]	-999	PAL1	0	R1353N
3675.847	0.596	1502329	ORIENT_END	n/a	n/a	-999	-999	n/a	n/a	n/a	n/a	10	[0, 0, 0]	-999	PAL1	0	R1353N
3676.443	0.089	1502925	REC_EVENT	5.903	n/a	3	5	STONE	<>	ROOM	STONE	10	[0, 0, 0]	-999	PAL1	0	R1353N
3676.532	0.0	1503014	REC_START	n/a	n/a	6	6	LEG	n/a	BOAT	LEG	10	[0, 0, 0]	-999	PAL1	0	R1353N
3676.532	4.0	1503014	PROBE_START	n/a	wordpools/wordpool_EN.txt	6	6	LEG	n/a	BOAT	LEG	10	[0, 0, 0]	-999	PAL1	0	R1353N
3680.565	1.001	1507047	PROBE_END	n/a	n/a	6	6	LEG	n/a	BOAT	LEG	10	[0, 0, 0]	-999	PAL1	0	R1353N
3681.566	0.012	1508048	REC_END	n/a	n/a	6	6	LEG	n/a	BOAT	LEG	10	[0, 0, 0]	-999	PAL1	0	R1353N
3681.578	0.0	1508060	RETRIEVAL_END	n/a	n/a	-999	-999	n/a	n/a	n/a	n/a	10	[0, 0, 0]	-999	PAL1	0	R1353N
3681.578	0.021	1508060	TRIAL_END	n/a	n/a	-999	-999	n/a	n/a	n/a	n/a	10	[0, 0, 0]	-999	PAL1	0	R1353N
3681.599	0.0	1508081	TRIAL_START	n/a	n/a	-999	-999	n/a	n/a	n/a	n/a	10	[0, 0, 0]	-999	PAL1	0	R1353N
3681.599	0.001	1508081	TRIAL	n/a	n/a	-999	-999	n/a	n/a	n/a	n/a	11	[0, 0, 0]	-999	PAL1	0	R1353N
3681.6	0.922	1508082	WAITING_START	n/a	n/a	-999	-999	n/a	n/a	n/a	n/a	11	[0, 0, 0]	-999	PAL1	0	R1353N
3682.522	4.311	1509004	REC_EVENT	5.99	n/a	6	6	LEG	<>	BOAT	LEG	10	[0, 0, 0]	-999	PAL1	0	R1353N
3686.833	10.0	1513315	COUNTDOWN_START	n/a	n/a	-999	-999	n/a	n/a	n/a	n/a	11	[0, 0, 0]	-999	PAL1	0	R1353N
3686.833	10.429	1513315	WAITING_END	n/a	n/a	-999	-999	n/a	n/a	n/a	n/a	11	[0, 0, 0]	-999	PAL1	0	R1353N
3697.262	0.001	1523744	COUNTDOWN_END	n/a	n/a	-999	-999	n/a	n/a	n/a	n/a	11	[0, 0, 0]	-999	PAL1	0	R1353N
3697.263	0.671	1523745	ORIENT_START	n/a	n/a	-999	-999	n/a	n/a	n/a	n/a	11	[0, 0, 0]	-999	PAL1	0	R1353N
3697.934	0.001	1524416	ORIENT_END	n/a	n/a	-999	-999	n/a	n/a	n/a	n/a	11	[0, 0, 0]	-999	PAL1	0	R1353N
3697.935	1.044	1524417	ENCODING_START	n/a	n/a	-999	-999	n/a	n/a	n/a	n/a	11	[0, 0, 0]	-999	PAL1	0	R1353N
3698.979	4.0	1525460	STUDY_PAIR	n/a	wordpools/wordpool_EN.txt	1	-999	n/a	n/a	WEED	FLAG	11	[0, 0, 0]	-999	PAL1	0	R1353N
3703.019	0.695	1529500	STUDY_PAIR_OFF	n/a	n/a	1	-999	n/a	n/a	WEED	FLAG	11	[0, 0, 0]	-999	PAL1	0	R1353N
3703.714	4.0	1530195	STUDY_PAIR	n/a	wordpools/wordpool_EN.txt	2	-999	n/a	n/a	PIN	BROOM	11	[0, 0, 0]	-999	PAL1	0	R1353N
3707.753	0.538	1534234	STUDY_PAIR_OFF	n/a	n/a	2	-999	n/a	n/a	PIN	BROOM	11	[0, 0, 0]	-999	PAL1	0	R1353N
3708.291	4.0	1534772	STUDY_PAIR	n/a	wordpools/wordpool_EN.txt	3	-999	n/a	n/a	FARM	SOUP	11	[0, 0, 0]	-999	PAL1	0	R1353N
3712.303	0.66	1538784	STUDY_PAIR_OFF	n/a	n/a	3	-999	n/a	n/a	FARM	SOUP	11	[0, 0, 0]	-999	PAL1	0	R1353N
3712.963	4.0	1539444	STUDY_PAIR	n/a	wordpools/wordpool_EN.txt	4	-999	n/a	n/a	BOARD	CLOCK	11	[0, 0, 0]	-999	PAL1	0	R1353N
3716.988	0.562	1543469	STUDY_PAIR_OFF	n/a	n/a	4	-999	n/a	n/a	BOARD	CLOCK	11	[0, 0, 0]	-999	PAL1	0	R1353N
3717.55	4.0	1544031	STUDY_PAIR	n/a	wordpools/wordpool_EN.txt	5	-999	n/a	n/a	WOLF	CAGE	11	[0, 0, 0]	-999	PAL1	0	R1353N
3721.588	0.679	1548069	STUDY_PAIR_OFF	n/a	n/a	5	-999	n/a	n/a	WOLF	CAGE	11	[0, 0, 0]	-999	PAL1	0	R1353N
3722.267	4.0	1548748	STUDY_PAIR	n/a	wordpools/wordpool_EN.txt	6	-999	n/a	n/a	HAT	CHIEF	11	[0, 0, 0]	-999	PAL1	0	R1353N
3726.306	0.0	1552786	STUDY_PAIR_OFF	n/a	n/a	6	-999	n/a	n/a	HAT	CHIEF	11	[0, 0, 0]	-999	PAL1	0	R1353N
3726.306	0.0	1552786	ENCODING_END	n/a	n/a	-999	-999	n/a	n/a	n/a	n/a	11	[0, 0, 0]	-999	PAL1	0	R1353N
3726.306	0.001	1552786	MATH_START	n/a	n/a	-999	-999	n/a	n/a	n/a	n/a	11	[0, 0, 0]	-999	PAL1	0	R1353N
3726.307	0.015	1552787	START	n/a	n/a	-999	-999	n/a	n/a	n/a	n/a	11	[-999, -999, -999]	-999	PAL1	0	R1353N
3726.322	5.684	1552802	PROB	5.657	n/a	-999	-999	n/a	n/a	n/a	n/a	11	[1, 6, 1]	8	PAL1	0	R1353N
3732.006	10.202	1558486	PROB	10.165	n/a	-999	-999	n/a	n/a	n/a	n/a	11	[6, 7, 6]	19	PAL1	0	R1353N
3742.208	7.587	1568688	PROB	7.587	n/a	-999	-999	n/a	n/a	n/a	n/a	11	[2, 9, 3]	14	PAL1	0	R1353N
3749.795	0.015	1576274	STOP	n/a	n/a	-999	-999	n/a	n/a	n/a	n/a	11	[-999, -999, -999]	-999	PAL1	0	R1353N
3749.81	0.582	1576289	MATH_END	n/a	n/a	-999	-999	n/a	n/a	n/a	n/a	11	[0, 0, 0]	-999	PAL1	0	R1353N
3750.392	0.001	1576871	RETRIEVAL_START	n/a	n/a	-999	-999	n/a	n/a	n/a	n/a	11	[0, 0, 0]	-999	PAL1	0	R1353N
3750.393	0.283	1576872	ORIENT_START	n/a	n/a	-999	-999	n/a	n/a	n/a	n/a	11	[0, 0, 0]	-999	PAL1	0	R1353N
3750.676	0.592	1577155	ORIENT_END	n/a	n/a	-999	-999	n/a	n/a	n/a	n/a	11	[0, 0, 0]	-999	PAL1	0	R1353N
3751.268	0.001	1577747	REC_START	n/a	n/a	5	1	CAGE	n/a	WOLF	CAGE	11	[0, 0, 0]	-999	PAL1	0	R1353N
3751.269	4.0	1577748	PROBE_START	n/a	wordpools/wordpool_EN.txt	5	1	CAGE	n/a	WOLF	CAGE	11	[0, 0, 0]	-999	PAL1	0	R1353N
3755.294	1.0	1581773	PROBE_END	n/a	n/a	5	1	CAGE	n/a	WOLF	CAGE	11	[0, 0, 0]	-999	PAL1	0	R1353N
3756.294	0.013	1582773	REC_END	n/a	n/a	5	1	CAGE	n/a	WOLF	CAGE	11	[0, 0, 0]	-999	PAL1	0	R1353N
3756.307	0.27	1582786	ORIENT_START	n/a	n/a	-999	-999	n/a	n/a	n/a	n/a	11	[0, 0, 0]	-999	PAL1	0	R1353N
3756.577	0.595	1583056	ORIENT_END	n/a	n/a	-999	-999	n/a	n/a	n/a	n/a	11	[0, 0, 0]	-999	PAL1	0	R1353N
3757.172	0.0	1583651	REC_START	n/a	n/a	4	2	CLOCK	n/a	BOARD	CLOCK	11	[0, 0, 0]	-999	PAL1	0	R1353N
3757.172	4.0	1583651	PROBE_START	n/a	wordpools/wordpool_EN.txt	4	2	CLOCK	n/a	BOARD	CLOCK	11	[0, 0, 0]	-999	PAL1	0	R1353N
3757.172	4.039	1583651	REC_EVENT	5.903	n/a	5	1	CAGE	<>	WOLF	CAGE	11	[0, 0, 0]	-999	PAL1	0	R1353N
3761.211	1.0	1587690	PROBE_END	n/a	n/a	4	2	CLOCK	n/a	BOARD	CLOCK	11	[0, 0, 0]	-999	PAL1	0	R1353N
3762.211	0.011	1588690	REC_END	n/a	n/a	4	2	CLOCK	n/a	BOARD	CLOCK	11	[0, 0, 0]	-999	PAL1	0	R1353N
3762.222	0.273	1588701	ORIENT_START	n/a	n/a	-999	-999	n/a	n/a	n/a	n/a	11	[0, 0, 0]	-999	PAL1	0	R1353N
3762.495	0.58	1588974	ORIENT_END	n/a	n/a	-999	-999	n/a	n/a	n/a	n/a	11	[0, 0, 0]	-999	PAL1	0	R1353N
3763.075	0.144	1589554	REC_EVENT	5.903	n/a	4	2	CLOCK	<>	BOARD	CLOCK	11	[0, 0, 0]	-999	PAL1	0	R1353N
3763.219	0.0	1589698	REC_START	n/a	n/a	3	3	FARM	n/a	FARM	SOUP	11	[0, 0, 0]	-999	PAL1	0	R1353N
3763.219	4.0	1589698	PROBE_START	n/a	wordpools/wordpool_EN.txt	3	3	FARM	n/a	FARM	SOUP	11	[0, 0, 0]	-999	PAL1	0	R1353N
3767.246	1.001	1593725	PROBE_END	n/a	n/a	3	3	FARM	n/a	FARM	SOUP	11	[0, 0, 0]	-999	PAL1	0	R1353N
3768.247	0.012	1594726	REC_END	n/a	n/a	3	3	FARM	n/a	FARM	SOUP	11	[0, 0, 0]	-999	PAL1	0	R1353N
3768.259	0.27	1594738	ORIENT_START	n/a	n/a	-999	-999	n/a	n/a	n/a	n/a	11	[0, 0, 0]	-999	PAL1	0	R1353N
3768.529	0.677	1595008	ORIENT_END	n/a	n/a	-999	-999	n/a	n/a	n/a	n/a	11	[0, 0, 0]	-999	PAL1	0	R1353N
3769.206	0.0	1595685	REC_START	n/a	n/a	6	4	HAT	n/a	HAT	CHIEF	11	[0, 0, 0]	-999	PAL1	0	R1353N
3769.206	4.0	1595685	PROBE_START	n/a	wordpools/wordpool_EN.txt	6	4	HAT	n/a	HAT	CHIEF	11	[0, 0, 0]	-999	PAL1	0	R1353N
3769.244	3.986	1595723	REC_EVENT	6.025	n/a	3	3	FARM	<>	FARM	SOUP	11	[0, 0, 0]	-999	PAL1	0	R1353N
3773.23	1.0	1599709	PROBE_END	n/a	n/a	6	4	HAT	n/a	HAT	CHIEF	11	[0, 0, 0]	-999	PAL1	0	R1353N
3774.23	0.013	1600709	REC_END	n/a	n/a	6	4	HAT	n/a	HAT	CHIEF	11	[0, 0, 0]	-999	PAL1	0	R1353N
3774.243	0.271	1600722	ORIENT_START	n/a	n/a	-999	-999	n/a	n/a	n/a	n/a	11	[0, 0, 0]	-999	PAL1	0	R1353N
3774.514	0.665	1600993	ORIENT_END	n/a	n/a	-999	-999	n/a	n/a	n/a	n/a	11	[0, 0, 0]	-999	PAL1	0	R1353N
3775.179	0.02	1601657	REC_EVENT	5.973	n/a	6	4	HAT	<>	HAT	CHIEF	11	[0, 0, 0]	-999	PAL1	0	R1353N
3775.199	0.0	1601677	REC_START	n/a	n/a	1	5	WEED	n/a	WEED	FLAG	11	[0, 0, 0]	-999	PAL1	0	R1353N
3775.199	4.0	1601677	PROBE_START	n/a	wordpools/wordpool_EN.txt	1	5	WEED	n/a	WEED	FLAG	11	[0, 0, 0]	-999	PAL1	0	R1353N
3779.231	1.0	1605709	PROBE_END	n/a	n/a	1	5	WEED	n/a	WEED	FLAG	11	[0, 0, 0]	-999	PAL1	0	R1353N
3780.231	0.013	1606709	REC_END	n/a	n/a	1	5	WEED	n/a	WEED	FLAG	11	[0, 0, 0]	-999	PAL1	0	R1353N
3780.244	0.271	1606722	ORIENT_START	n/a	n/a	-999	-999	n/a	n/a	n/a	n/a	11	[0, 0, 0]	-999	PAL1	0	R1353N
3780.515	0.674	1606993	ORIENT_END	n/a	n/a	-999	-999	n/a	n/a	n/a	n/a	11	[0, 0, 0]	-999	PAL1	0	R1353N
3781.189	0.011	1607667	REC_EVENT	5.99	n/a	1	5	WEED	<>	WEED	FLAG	11	[0, 0, 0]	-999	PAL1	0	R1353N
3781.2	0.0	1607678	REC_START	n/a	n/a	2	6	BROOM	n/a	PIN	BROOM	11	[0, 0, 0]	-999	PAL1	0	R1353N
3781.2	4.0	1607678	PROBE_START	n/a	wordpools/wordpool_EN.txt	2	6	BROOM	n/a	PIN	BROOM	11	[0, 0, 0]	-999	PAL1	0	R1353N
3785.232	1.0	1611710	PROBE_END	n/a	n/a	2	6	BROOM	n/a	PIN	BROOM	11	[0, 0, 0]	-999	PAL1	0	R1353N
3786.232	0.013	1612710	REC_END	n/a	n/a	2	6	BROOM	n/a	PIN	BROOM	11	[0, 0, 0]	-999	PAL1	0	R1353N
3786.245	0.0	1612723	RETRIEVAL_END	n/a	n/a	-999	-999	n/a	n/a	n/a	n/a	11	[0, 0, 0]	-999	PAL1	0	R1353N
3786.245	0.024	1612723	TRIAL_END	n/a	n/a	-999	-999	n/a	n/a	n/a	n/a	11	[0, 0, 0]	-999	PAL1	0	R1353N
3786.269	0.0	1612747	TRIAL_START	n/a	n/a	-999	-999	n/a	n/a	n/a	n/a	11	[0, 0, 0]	-999	PAL1	0	R1353N
3786.269	0.0	1612747	TRIAL	n/a	n/a	-999	-999	n/a	n/a	n/a	n/a	12	[0, 0, 0]	-999	PAL1	0	R1353N
3786.269	0.915	1612747	WAITING_START	n/a	n/a	-999	-999	n/a	n/a	n/a	n/a	12	[0, 0, 0]	-999	PAL1	0	R1353N
3787.184	2.332	1613662	REC_EVENT	5.984	n/a	2	6	BROOM	<>	PIN	BROOM	11	[0, 0, 0]	-999	PAL1	0	R1353N
3789.516	0.001	1615994	WAITING_END	n/a	n/a	-999	-999	n/a	n/a	n/a	n/a	12	[0, 0, 0]	-999	PAL1	0	R1353N
3789.517	10.0	1615995	COUNTDOWN_START	n/a	n/a	-999	-999	n/a	n/a	n/a	n/a	12	[0, 0, 0]	-999	PAL1	0	R1353N
3799.946	0.0	1626424	ORIENT_START	n/a	n/a	-999	-999	n/a	n/a	n/a	n/a	12	[0, 0, 0]	-999	PAL1	0	R1353N
3799.946	0.722	1626424	COUNTDOWN_END	n/a	n/a	-999	-999	n/a	n/a	n/a	n/a	12	[0, 0, 0]	-999	PAL1	0	R1353N
3800.668	0.0	1627145	ORIENT_END	n/a	n/a	-999	-999	n/a	n/a	n/a	n/a	12	[0, 0, 0]	-999	PAL1	0	R1353N
3800.668	1.005	1627145	ENCODING_START	n/a	n/a	-999	-999	n/a	n/a	n/a	n/a	12	[0, 0, 0]	-999	PAL1	0	R1353N
3801.673	4.0	1628150	STUDY_PAIR	n/a	wordpools/wordpool_EN.txt	1	-999	n/a	n/a	SHARK	SNAIL	12	[0, 0, 0]	-999	PAL1	0	R1353N
3805.702	0.536	1632179	STUDY_PAIR_OFF	n/a	n/a	1	-999	n/a	n/a	SHARK	SNAIL	12	[0, 0, 0]	-999	PAL1	0	R1353N
3806.238	4.0	1632715	STUDY_PAIR	n/a	wordpools/wordpool_EN.txt	2	-999	n/a	n/a	THUMB	CLOTH	12	[0, 0, 0]	-999	PAL1	0	R1353N
3810.27	0.695	1636747	STUDY_PAIR_OFF	n/a	n/a	2	-999	n/a	n/a	THUMB	CLOTH	12	[0, 0, 0]	-999	PAL1	0	R1353N
3810.965	4.0	1637442	STUDY_PAIR	n/a	wordpools/wordpool_EN.txt	3	-999	n/a	n/a	DOG	JAIL	12	[0, 0, 0]	-999	PAL1	0	R1353N
3815.004	0.688	1641481	STUDY_PAIR_OFF	n/a	n/a	3	-999	n/a	n/a	DOG	JAIL	12	[0, 0, 0]	-999	PAL1	0	R1353N
3815.692	4.0	1642169	STUDY_PAIR	n/a	wordpools/wordpool_EN.txt	4	-999	n/a	n/a	SHIRT	NET	12	[0, 0, 0]	-999	PAL1	0	R1353N
3819.721	0.57	1646198	STUDY_PAIR_OFF	n/a	n/a	4	-999	n/a	n/a	SHIRT	NET	12	[0, 0, 0]	-999	PAL1	0	R1353N
3820.291	4.0	1646768	STUDY_PAIR	n/a	wordpools/wordpool_EN.txt	5	-999	n/a	n/a	PEN	GUARD	12	[0, 0, 0]	-999	PAL1	0	R1353N
3824.322	0.63	1650799	STUDY_PAIR_OFF	n/a	n/a	5	-999	n/a	n/a	PEN	GUARD	12	[0, 0, 0]	-999	PAL1	0	R1353N
3824.952	4.0	1651429	STUDY_PAIR	n/a	wordpools/wordpool_EN.txt	6	-999	n/a	SNAIL	STRAW	GRASS	12	[0, 0, 0]	-999	PAL1	0	R1353N
3828.99	0.0	1655466	MATH_START	n/a	n/a	-999	-999	n/a	n/a	n/a	n/a	12	[0, 0, 0]	-999	PAL1	0	R1353N
3828.99	0.0	1655466	STUDY_PAIR_OFF	n/a	n/a	6	-999	n/a	SNAIL	STRAW	GRASS	12	[0, 0, 0]	-999	PAL1	0	R1353N
3828.99	0.001	1655466	ENCODING_END	n/a	n/a	-999	-999	n/a	n/a	n/a	n/a	12	[0, 0, 0]	-999	PAL1	0	R1353N
3828.991	0.015	1655467	START	n/a	n/a	-999	-999	n/a	n/a	n/a	n/a	12	[-999, -999, -999]	-999	PAL1	0	R1353N
3829.006	5.284	1655482	PROB	5.261	n/a	-999	-999	n/a	n/a	n/a	n/a	12	[1, 5, 2]	8	PAL1	0	R1353N
3834.29	23.376	1660766	PROB	23.376	n/a	-999	-999	n/a	n/a	n/a	n/a	12	[9, 6, 7]	22	PAL1	0	R1353N
3857.666	0.011	1684141	STOP	n/a	n/a	-999	-999	n/a	n/a	n/a	n/a	12	[-999, -999, -999]	-999	PAL1	0	R1353N
3857.677	0.615	1684152	MATH_END	n/a	n/a	-999	-999	n/a	n/a	n/a	n/a	12	[0, 0, 0]	-999	PAL1	0	R1353N
3858.292	0.001	1684767	RETRIEVAL_START	n/a	n/a	-999	-999	n/a	n/a	n/a	n/a	12	[0, 0, 0]	-999	PAL1	0	R1353N
3858.293	0.285	1684768	ORIENT_START	n/a	n/a	-999	-999	n/a	n/a	n/a	n/a	12	[0, 0, 0]	-999	PAL1	0	R1353N
3858.578	0.676	1685053	ORIENT_END	n/a	n/a	-999	-999	n/a	n/a	n/a	n/a	12	[0, 0, 0]	-999	PAL1	0	R1353N
3859.254	0.0	1685729	REC_START	n/a	n/a	1	1	SNAIL	n/a	SHARK	SNAIL	12	[0, 0, 0]	-999	PAL1	0	R1353N
3859.254	4.0	1685729	PROBE_START	n/a	wordpools/wordpool_EN.txt	1	1	SNAIL	n/a	SHARK	SNAIL	12	[0, 0, 0]	-999	PAL1	0	R1353N
3863.278	1.001	1689753	PROBE_END	n/a	n/a	1	1	SNAIL	n/a	SHARK	SNAIL	12	[0, 0, 0]	-999	PAL1	0	R1353N
3864.279	0.013	1690754	REC_END	n/a	n/a	1	1	SNAIL	n/a	SHARK	SNAIL	12	[0, 0, 0]	-999	PAL1	0	R1353N
3864.292	0.287	1690767	ORIENT_START	n/a	n/a	-999	-999	n/a	n/a	n/a	n/a	12	[0, 0, 0]	-999	PAL1	0	R1353N
3864.579	0.502	1691054	ORIENT_END	n/a	n/a	-999	-999	n/a	n/a	n/a	n/a	12	[0, 0, 0]	-999	PAL1	0	R1353N
3865.081	4.0	1691556	PROBE_START	n/a	wordpools/wordpool_EN.txt	6	2	STRAW	SNAIL	STRAW	GRASS	12	[0, 0, 0]	-999	PAL1	0	R1353N
3865.081	0.157	1691556	REC_START	n/a	n/a	6	2	STRAW	SNAIL	STRAW	GRASS	12	[0, 0, 0]	-999	PAL1	0	R1353N
3865.238	3.875	1691713	REC_EVENT	5.984	n/a	1	1	SNAIL	<>	SHARK	SNAIL	12	[0, 0, 0]	-999	PAL1	0	R1353N
3869.113	0.525	1695588	PROBE_END	n/a	n/a	6	2	STRAW	n/a	STRAW	GRASS	12	[0, 0, 0]	-999	PAL1	0	R1353N
3869.638	0.475	1696113	REC_EVENT	4.557	n/a	6	2	STRAW	SNAIL	STRAW	GRASS	12	[0, 0, 0]	-999	PAL1	0	R1353N
3870.113	0.012	1696588	REC_END	n/a	n/a	6	2	STRAW	n/a	STRAW	GRASS	12	[0, 0, 0]	-999	PAL1	0	R1353N
3870.125	0.271	1696600	ORIENT_START	n/a	n/a	-999	-999	n/a	n/a	n/a	n/a	12	[0, 0, 0]	-999	PAL1	0	R1353N
3870.396	0.683	1696871	ORIENT_END	n/a	n/a	-999	-999	n/a	n/a	n/a	n/a	12	[0, 0, 0]	-999	PAL1	0	R1353N
3871.079	0.001	1697554	REC_START	n/a	n/a	5	3	GUARD	n/a	PEN	GUARD	12	[0, 0, 0]	-999	PAL1	0	R1353N
3871.08	4.0	1697555	PROBE_START	n/a	wordpools/wordpool_EN.txt	5	3	GUARD	n/a	PEN	GUARD	12	[0, 0, 0]	-999	PAL1	0	R1353N
3875.114	1.0	1701589	PROBE_END	n/a	n/a	5	3	GUARD	n/a	PEN	GUARD	12	[0, 0, 0]	-999	PAL1	0	R1353N
3876.114	0.012	1702589	REC_END	n/a	n/a	5	3	GUARD	n/a	PEN	GUARD	12	[0, 0, 0]	-999	PAL1	0	R1353N
3876.126	0.271	1702601	ORIENT_START	n/a	n/a	-999	-999	n/a	n/a	n/a	n/a	12	[0, 0, 0]	-999	PAL1	0	R1353N
3876.397	0.54	1702872	ORIENT_END	n/a	n/a	-999	-999	n/a	n/a	n/a	n/a	12	[0, 0, 0]	-999	PAL1	0	R1353N
3876.937	4.0	1703412	PROBE_START	n/a	wordpools/wordpool_EN.txt	2	4	CLOTH	n/a	THUMB	CLOTH	12	[0, 0, 0]	-999	PAL1	0	R1353N
3876.937	0.133	1703412	REC_START	n/a	n/a	2	4	CLOTH	n/a	THUMB	CLOTH	12	[0, 0, 0]	-999	PAL1	0	R1353N
3877.07	3.895	1703544	REC_EVENT	5.99	n/a	5	3	GUARD	<>	PEN	GUARD	12	[0, 0, 0]	-999	PAL1	0	R1353N
3880.965	0.999	1707439	PROBE_END	n/a	n/a	2	4	CLOTH	n/a	THUMB	CLOTH	12	[0, 0, 0]	-999	PAL1	0	R1353N
3881.964	0.011	1708438	REC_END	n/a	n/a	2	4	CLOTH	n/a	THUMB	CLOTH	12	[0, 0, 0]	-999	PAL1	0	R1353N
3881.975	0.273	1708449	ORIENT_START	n/a	n/a	-999	-999	n/a	n/a	n/a	n/a	12	[0, 0, 0]	-999	PAL1	0	R1353N
3882.248	0.528	1708722	ORIENT_END	n/a	n/a	-999	-999	n/a	n/a	n/a	n/a	12	[0, 0, 0]	-999	PAL1	0	R1353N
3882.776	0.177	1709250	REC_EVENT	5.839	n/a	2	4	CLOTH	<>	THUMB	CLOTH	12	[0, 0, 0]	-999	PAL1	0	R1353N
3882.953	0.0	1709427	REC_START	n/a	n/a	3	5	DOG	n/a	DOG	JAIL	12	[0, 0, 0]	-999	PAL1	0	R1353N
3882.953	4.0	1709427	PROBE_START	n/a	wordpools/wordpool_EN.txt	3	5	DOG	n/a	DOG	JAIL	12	[0, 0, 0]	-999	PAL1	0	R1353N
3886.982	1.0	1713456	PROBE_END	n/a	n/a	3	5	DOG	n/a	DOG	JAIL	12	[0, 0, 0]	-999	PAL1	0	R1353N
3887.982	0.013	1714456	REC_END	n/a	n/a	3	5	DOG	n/a	DOG	JAIL	12	[0, 0, 0]	-999	PAL1	0	R1353N
3887.995	0.271	1714469	ORIENT_START	n/a	n/a	-999	-999	n/a	n/a	n/a	n/a	12	[0, 0, 0]	-999	PAL1	0	R1353N
3888.266	0.673	1714740	ORIENT_END	n/a	n/a	-999	-999	n/a	n/a	n/a	n/a	12	[0, 0, 0]	-999	PAL1	0	R1353N
3888.939	0.0	1715413	REC_START	n/a	n/a	4	6	SHIRT	n/a	SHIRT	NET	12	[0, 0, 0]	-999	PAL1	0	R1353N
3888.939	4.0	1715413	PROBE_START	n/a	wordpools/wordpool_EN.txt	4	6	SHIRT	n/a	SHIRT	NET	12	[0, 0, 0]	-999	PAL1	0	R1353N
3888.961	4.006	1715435	REC_EVENT	6.008	n/a	3	5	DOG	<>	DOG	JAIL	12	[0, 0, 0]	-999	PAL1	0	R1353N
3892.967	1.0	1719441	PROBE_END	n/a	n/a	4	6	SHIRT	n/a	SHIRT	NET	12	[0, 0, 0]	-999	PAL1	0	R1353N
3893.967	0.013	1720441	REC_END	n/a	n/a	4	6	SHIRT	n/a	SHIRT	NET	12	[0, 0, 0]	-999	PAL1	0	R1353N
3893.98	0.0	1720454	RETRIEVAL_END	n/a	n/a	-999	-999	n/a	n/a	n/a	n/a	12	[0, 0, 0]	-999	PAL1	0	R1353N
3893.98	0.022	1720454	TRIAL_END	n/a	n/a	-999	-999	n/a	n/a	n/a	n/a	12	[0, 0, 0]	-999	PAL1	0	R1353N
3894.002	0.0	1720476	TRIAL_START	n/a	n/a	-999	-999	n/a	n/a	n/a	n/a	12	[0, 0, 0]	-999	PAL1	0	R1353N
3894.002	0.0	1720476	TRIAL	n/a	n/a	-999	-999	n/a	n/a	n/a	n/a	13	[0, 0, 0]	-999	PAL1	0	R1353N
3894.002	0.91	1720476	WAITING_START	n/a	n/a	-999	-999	n/a	n/a	n/a	n/a	13	[0, 0, 0]	-999	PAL1	0	R1353N
3894.912	2.205	1721386	REC_EVENT	5.973	n/a	4	6	SHIRT	<>	SHIRT	NET	12	[0, 0, 0]	-999	PAL1	0	R1353N
3897.117	0.001	1723591	WAITING_END	n/a	n/a	-999	-999	n/a	n/a	n/a	n/a	13	[0, 0, 0]	-999	PAL1	0	R1353N
3897.118	10.0	1723592	COUNTDOWN_START	n/a	n/a	-999	-999	n/a	n/a	n/a	n/a	13	[0, 0, 0]	-999	PAL1	0	R1353N
3907.547	0.001	1734020	COUNTDOWN_END	n/a	n/a	-999	-999	n/a	n/a	n/a	n/a	13	[0, 0, 0]	-999	PAL1	0	R1353N
3907.548	0.638	1734021	ORIENT_START	n/a	n/a	-999	-999	n/a	n/a	n/a	n/a	13	[0, 0, 0]	-999	PAL1	0	R1353N
3908.186	0.0	1734659	ORIENT_END	n/a	n/a	-999	-999	n/a	n/a	n/a	n/a	13	[0, 0, 0]	-999	PAL1	0	R1353N
3908.186	1.085	1734659	ENCODING_START	n/a	n/a	-999	-999	n/a	n/a	n/a	n/a	13	[0, 0, 0]	-999	PAL1	0	R1353N
3909.271	4.0	1735744	STUDY_PAIR	n/a	wordpools/wordpool_EN.txt	1	-999	n/a	n/a	DESK	WOOD	13	[0, 0, 0]	-999	PAL1	0	R1353N
3913.303	0.705	1739776	STUDY_PAIR_OFF	n/a	n/a	1	-999	n/a	n/a	DESK	WOOD	13	[0, 0, 0]	-999	PAL1	0	R1353N
3914.008	4.0	1740481	STUDY_PAIR	n/a	wordpools/wordpool_EN.txt	2	-999	n/a	n/a	SPOON	POND	13	[0, 0, 0]	-999	PAL1	0	R1353N
3918.037	0.532	1744510	STUDY_PAIR_OFF	n/a	n/a	2	-999	n/a	n/a	SPOON	POND	13	[0, 0, 0]	-999	PAL1	0	R1353N
