onset	duration	sample	trial_type	response_time	serialpos	probepos	probe_word	resp_word	study_1	study_2	list	test	answer	experiment	session	subject
0.0	57.562	70563	SESS_START	n/a	-999	-999	n/a	n/a	n/a	n/a	-999	[0, 0, 0]	-999	PAL1	2	R1065J
57.562	1.017	128126	START	n/a	-999	-999	n/a	n/a	n/a	n/a	-1	[-999, -999, -999]	-999	PAL1	2	R1065J
58.579	2.05	129143	PROB	2017	-999	-999	n/a	n/a	n/a	n/a	-1	[2, 2, 5]	9	PAL1	2	R1065J
60.629	2.468	131193	PROB	2448	-999	-999	n/a	n/a	n/a	n/a	-1	[1, 5, 4]	10	PAL1	2	R1065J
63.097	1.766	133661	PROB	1739	-999	-999	n/a	n/a	n/a	n/a	-1	[1, 9, 6]	16	PAL1	2	R1065J
64.863	1.6	135427	PROB	1581	-999	-999	n/a	n/a	n/a	n/a	-1	[1, 9, 3]	13	PAL1	2	R1065J
66.463	2.184	137027	PROB	2165	-999	-999	n/a	n/a	n/a	n/a	-1	[8, 8, 6]	22	PAL1	2	R1065J
68.647	2.167	139211	PROB	2133	-999	-999	n/a	n/a	n/a	n/a	-1	[6, 2, 4]	12	PAL1	2	R1065J
70.814	1.7	141378	PROB	1678	-999	-999	n/a	n/a	n/a	n/a	-1	[7, 3, 6]	16	PAL1	2	R1065J
72.514	1.851	143078	PROB	1827	-999	-999	n/a	n/a	n/a	n/a	-1	[5, 6, 9]	20	PAL1	2	R1065J
74.365	1.767	144929	PROB	1736	-999	-999	n/a	n/a	n/a	n/a	-1	[1, 5, 9]	15	PAL1	2	R1065J
76.132	1.488	146696	PROB	1488	-999	-999	n/a	n/a	n/a	n/a	-1	[1, 5, 1]	7	PAL1	2	R1065J
77.62	40.464	148184	STOP	n/a	-999	-999	n/a	n/a	n/a	n/a	-1	[-999, -999, -999]	-999	PAL1	2	R1065J
118.084	10.438	188648	ENCODING_START	n/a	0	-999	n/a	n/a	n/a	n/a	1	[0, 0, 0]	-999	PAL1	2	R1065J
128.522	0.868	199086	STUDY_ORIENT	n/a	1	1	GRAPE	FROG	GRAPE	FROG	1	[0, 0, 0]	-999	PAL1	2	R1065J
129.39	5.033	199954	STUDY_PAIR	n/a	1	1	GRAPE	FROG	GRAPE	FROG	1	[0, 0, 0]	-999	PAL1	2	R1065J
134.423	0.851	204988	STUDY_ORIENT	n/a	2	6	MOLE	TOE	MOLE	TOE	1	[0, 0, 0]	-999	PAL1	2	R1065J
135.274	5.018	205839	STUDY_PAIR	n/a	2	6	MOLE	TOE	MOLE	TOE	1	[0, 0, 0]	-999	PAL1	2	R1065J
140.292	0.85	210857	STUDY_ORIENT	n/a	3	5	COW	BARN	BARN	COW	1	[0, 0, 0]	-999	PAL1	2	R1065J
141.142	5.034	211707	STUDY_PAIR	n/a	3	5	COW	BARN	BARN	COW	1	[0, 0, 0]	-999	PAL1	2	R1065J
146.176	0.933	216741	STUDY_ORIENT	n/a	4	2	CART	RIB	CART	RIB	1	[0, 0, 0]	-999	PAL1	2	R1065J
147.109	5.018	217674	STUDY_PAIR	n/a	4	2	CART	RIB	CART	RIB	1	[0, 0, 0]	-999	PAL1	2	R1065J
152.127	0.899	222692	STUDY_ORIENT	n/a	5	3	ROSE	LAKE	ROSE	LAKE	1	[0, 0, 0]	-999	PAL1	2	R1065J
153.026	5.035	223591	STUDY_PAIR	n/a	5	3	ROSE	LAKE	ROSE	LAKE	1	[0, 0, 0]	-999	PAL1	2	R1065J
158.061	0.966	228626	STUDY_ORIENT	n/a	6	4	TOAST	BADGE	BADGE	TOAST	1	[0, 0, 0]	-999	PAL1	2	R1065J
159.027	4.018	229592	STUDY_PAIR	n/a	6	4	TOAST	BADGE	BADGE	TOAST	1	[0, 0, 0]	-999	PAL1	2	R1065J
163.045	1.0	233610	START	n/a	-999	-999	n/a	n/a	n/a	n/a	1	[-999, -999, -999]	-999	PAL1	2	R1065J
164.045	0.017	234610	MATH_START	n/a	-999	-999	n/a	n/a	n/a	n/a	1	[0, 0, 0]	-999	PAL1	2	R1065J
164.062	2.267	234627	PROB	2236	-999	-999	n/a	n/a	n/a	n/a	1	[4, 2, 6]	12	PAL1	2	R1065J
166.329	1.783	236894	PROB	1761	-999	-999	n/a	n/a	n/a	n/a	1	[5, 7, 7]	19	PAL1	2	R1065J
168.112	2.084	238677	PROB	2058	-999	-999	n/a	n/a	n/a	n/a	1	[9, 9, 8]	26	PAL1	2	R1065J
170.196	1.633	240761	PROB	1597	-999	-999	n/a	n/a	n/a	n/a	1	[8, 2, 7]	17	PAL1	2	R1065J
171.829	1.501	242394	PROB	1477	-999	-999	n/a	n/a	n/a	n/a	1	[1, 1, 2]	4	PAL1	2	R1065J
173.33	1.883	243895	PROB	1864	-999	-999	n/a	n/a	n/a	n/a	1	[3, 2, 4]	9	PAL1	2	R1065J
175.213	1.8	245778	PROB	1780	-999	-999	n/a	n/a	n/a	n/a	1	[4, 9, 1]	14	PAL1	2	R1065J
177.013	1.8	247578	PROB	1780	-999	-999	n/a	n/a	n/a	n/a	1	[4, 4, 8]	16	PAL1	2	R1065J
178.813	1.351	249378	PROB	1325	-999	-999	n/a	n/a	n/a	n/a	1	[1, 1, 1]	3	PAL1	2	R1065J
180.164	1.849	250729	PROB	1821	-999	-999	n/a	n/a	n/a	n/a	1	[7, 2, 7]	16	PAL1	2	R1065J
182.013	2.101	252578	PROB	2101	-999	-999	n/a	n/a	n/a	n/a	1	[4, 4, 9]	17	PAL1	2	R1065J
184.114	0.017	254679	STOP	n/a	-999	-999	n/a	n/a	n/a	n/a	1	[-999, -999, -999]	-999	PAL1	2	R1065J
184.131	0.0	254696	MATH_END	n/a	-999	-999	n/a	n/a	n/a	n/a	1	[0, 0, 0]	-999	PAL1	2	R1065J
184.131	0.017	254696	TEST_START	n/a	-999	-999	n/a	n/a	n/a	n/a	1	[0, 0, 0]	-999	PAL1	2	R1065J
184.148	0.983	254713	TEST_ORIENT	n/a	1	1	GRAPE	FROG	GRAPE	FROG	1	[0, 0, 0]	-999	PAL1	2	R1065J
185.131	0.002	255696	TEST_PROBE	n/a	1	1	GRAPE	FROG	GRAPE	FROG	1	[0, 0, 0]	-999	PAL1	2	R1065J
185.133	1.012	255698	REC_START	n/a	1	-999	n/a	FROG	n/a	n/a	1	[0, 0, 0]	-999	PAL1	2	R1065J
186.145	3.987	256710	REC_EVENT	1012	1	1	GRAPE	FROG	GRAPE	FROG	1	[0, 0, 0]	-999	PAL1	2	R1065J
190.132	0.017	260697	REC_END	n/a	1	-999	n/a	n/a	n/a	n/a	1	[0, 0, 0]	-999	PAL1	2	R1065J
190.149	0.9	260714	TEST_ORIENT	n/a	4	2	CART	RIB	CART	RIB	1	[0, 0, 0]	-999	PAL1	2	R1065J
191.049	0.001	261614	TEST_PROBE	n/a	4	2	CART	RIB	CART	RIB	1	[0, 0, 0]	-999	PAL1	2	R1065J
191.05	4.499	261615	REC_START	n/a	4	-999	n/a	RIB	n/a	n/a	1	[0, 0, 0]	-999	PAL1	2	R1065J
195.549	0.517	266114	REC_EVENT	4499	4	2	CART	RIB	CART	RIB	1	[0, 0, 0]	-999	PAL1	2	R1065J
196.066	0.017	266631	REC_END	n/a	4	-999	n/a	n/a	n/a	n/a	1	[0, 0, 0]	-999	PAL1	2	R1065J
196.083	1.0	266648	TEST_ORIENT	n/a	5	3	ROSE	LAKE	ROSE	LAKE	1	[0, 0, 0]	-999	PAL1	2	R1065J
197.083	0.001	267648	TEST_PROBE	n/a	5	3	ROSE	LAKE	ROSE	LAKE	1	[0, 0, 0]	-999	PAL1	2	R1065J
197.084	1.255	267649	REC_START	n/a	5	-999	n/a	LAKE	n/a	n/a	1	[0, 0, 0]	-999	PAL1	2	R1065J
198.339	3.753	268904	REC_EVENT	1255	5	3	ROSE	LAKE	ROSE	LAKE	1	[0, 0, 0]	-999	PAL1	2	R1065J
202.092	0.009	272657	REC_END	n/a	5	-999	n/a	n/a	n/a	n/a	1	[0, 0, 0]	-999	PAL1	2	R1065J
202.101	0.865	272666	TEST_ORIENT	n/a	6	4	TOAST	BADGE	BADGE	TOAST	1	[0, 0, 0]	-999	PAL1	2	R1065J
202.966	0.001	273531	TEST_PROBE	n/a	6	4	TOAST	BADGE	BADGE	TOAST	1	[0, 0, 0]	-999	PAL1	2	R1065J
202.967	1.706	273532	REC_START	n/a	6	-999	n/a	BADGE	n/a	n/a	1	[0, 0, 0]	-999	PAL1	2	R1065J
204.673	3.302	275238	REC_EVENT	1706	6	4	TOAST	BADGE	BADGE	TOAST	1	[0, 0, 0]	-999	PAL1	2	R1065J
207.975	0.009	278540	REC_END	n/a	6	-999	n/a	n/a	n/a	n/a	1	[0, 0, 0]	-999	PAL1	2	R1065J
207.984	0.883	278549	TEST_ORIENT	n/a	3	5	COW	BARN	BARN	COW	1	[0, 0, 0]	-999	PAL1	2	R1065J
208.867	0.001	279432	TEST_PROBE	n/a	3	5	COW	BARN	BARN	COW	1	[0, 0, 0]	-999	PAL1	2	R1065J
208.868	1.306	279433	REC_START	n/a	3	-999	n/a	BARN	n/a	n/a	1	[0, 0, 0]	-999	PAL1	2	R1065J
210.174	3.71	280739	REC_EVENT	1306	3	5	COW	BARN	BARN	COW	1	[0, 0, 0]	-999	PAL1	2	R1065J
213.884	0.017	284449	REC_END	n/a	3	-999	n/a	n/a	n/a	n/a	1	[0, 0, 0]	-999	PAL1	2	R1065J
213.901	1.017	284466	TEST_ORIENT	n/a	2	6	MOLE	TOE	MOLE	TOE	1	[0, 0, 0]	-999	PAL1	2	R1065J
214.918	0.0	285483	REC_START	n/a	2	-999	n/a	TOE	n/a	n/a	1	[0, 0, 0]	-999	PAL1	2	R1065J
214.918	1.392	285483	TEST_PROBE	n/a	2	6	MOLE	TOE	MOLE	TOE	1	[0, 0, 0]	-999	PAL1	2	R1065J
216.31	3.626	286875	REC_EVENT	1392	2	6	MOLE	TOE	MOLE	TOE	1	[0, 0, 0]	-999	PAL1	2	R1065J
219.936	1.56	290501	REC_END	n/a	2	-999	n/a	n/a	n/a	n/a	1	[0, 0, 0]	-999	PAL1	2	R1065J
221.496	10.442	292061	ENCODING_START	n/a	0	-999	n/a	n/a	n/a	n/a	2	[0, 0, 0]	-999	PAL1	2	R1065J
231.938	0.799	302504	STUDY_ORIENT	n/a	1	3	WING	HEN	HEN	WING	2	[0, 0, 0]	-999	PAL1	2	R1065J
232.737	5.018	303303	STUDY_PAIR	n/a	1	3	WING	HEN	HEN	WING	2	[0, 0, 0]	-999	PAL1	2	R1065J
237.755	1.0	308321	STUDY_ORIENT	n/a	2	2	MOON	WOLF	MOON	WOLF	2	[0, 0, 0]	-999	PAL1	2	R1065J
238.755	5.034	309321	STUDY_PAIR	n/a	2	2	MOON	WOLF	MOON	WOLF	2	[0, 0, 0]	-999	PAL1	2	R1065J
243.789	0.8	314355	STUDY_ORIENT	n/a	3	5	PEN	STREET	STREET	PEN	2	[0, 0, 0]	-999	PAL1	2	R1065J
244.589	5.034	315155	STUDY_PAIR	n/a	3	5	PEN	STREET	STREET	PEN	2	[0, 0, 0]	-999	PAL1	2	R1065J
249.623	0.967	320189	STUDY_ORIENT	n/a	4	6	SEAT	LAWN	LAWN	SEAT	2	[0, 0, 0]	-999	PAL1	2	R1065J
250.59	5.034	321156	STUDY_PAIR	n/a	4	6	SEAT	LAWN	LAWN	SEAT	2	[0, 0, 0]	-999	PAL1	2	R1065J
255.624	0.884	326190	STUDY_ORIENT	n/a	5	1	PIG	STOVE	PIG	STOVE	2	[0, 0, 0]	-999	PAL1	2	R1065J
256.508	5.034	327074	STUDY_PAIR	n/a	5	1	PIG	STOVE	PIG	STOVE	2	[0, 0, 0]	-999	PAL1	2	R1065J
261.542	0.818	332108	STUDY_ORIENT	n/a	6	4	BOX	CHALK	BOX	CHALK	2	[0, 0, 0]	-999	PAL1	2	R1065J
262.36	4.017	332926	STUDY_PAIR	n/a	6	4	BOX	CHALK	BOX	CHALK	2	[0, 0, 0]	-999	PAL1	2	R1065J
266.377	1.0	336943	START	n/a	-999	-999	n/a	n/a	n/a	n/a	2	[-999, -999, -999]	-999	PAL1	2	R1065J
267.377	0.017	337943	MATH_START	n/a	-999	-999	n/a	n/a	n/a	n/a	2	[0, 0, 0]	-999	PAL1	2	R1065J
267.394	2.332	337960	PROB	2301	-999	-999	n/a	n/a	n/a	n/a	2	[7, 5, 3]	15	PAL1	2	R1065J
269.726	1.518	340292	PROB	1498	-999	-999	n/a	n/a	n/a	n/a	2	[4, 1, 7]	12	PAL1	2	R1065J
271.244	1.566	341810	PROB	1546	-999	-999	n/a	n/a	n/a	n/a	2	[2, 4, 4]	10	PAL1	2	R1065J
272.81	1.535	343376	PROB	1501	-999	-999	n/a	n/a	n/a	n/a	2	[8, 2, 2]	12	PAL1	2	R1065J
274.345	2.616	344911	PROB	2581	-999	-999	n/a	n/a	n/a	n/a	2	[3, 9, 9]	21	PAL1	2	R1065J
276.961	1.617	347527	PROB	1589	-999	-999	n/a	n/a	n/a	n/a	2	[5, 4, 1]	10	PAL1	2	R1065J
278.578	2.0	349144	PROB	1980	-999	-999	n/a	n/a	n/a	n/a	2	[7, 8, 1]	16	PAL1	2	R1065J
280.578	1.618	351144	PROB	1589	-999	-999	n/a	n/a	n/a	n/a	2	[4, 4, 3]	11	PAL1	2	R1065J
282.196	1.983	352762	PROB	1963	-999	-999	n/a	n/a	n/a	n/a	2	[6, 2, 6]	14	PAL1	2	R1065J
284.179	1.766	354745	PROB	1747	-999	-999	n/a	n/a	n/a	n/a	2	[8, 8, 7]	23	PAL1	2	R1065J
285.945	1.877	356511	PROB	1877	-999	-999	n/a	n/a	n/a	n/a	2	[8, 7, 8]	23	PAL1	2	R1065J
287.822	0.007	358388	STOP	n/a	-999	-999	n/a	n/a	n/a	n/a	2	[-999, -999, -999]	-999	PAL1	2	R1065J
287.829	0.0	358395	TEST_START	n/a	-999	-999	n/a	n/a	n/a	n/a	2	[0, 0, 0]	-999	PAL1	2	R1065J
287.829	0.017	358395	MATH_END	n/a	-999	-999	n/a	n/a	n/a	n/a	2	[0, 0, 0]	-999	PAL1	2	R1065J
287.846	0.833	358412	TEST_ORIENT	n/a	5	1	PIG	STOVE	PIG	STOVE	2	[0, 0, 0]	-999	PAL1	2	R1065J
288.679	0.001	359245	TEST_PROBE	n/a	5	1	PIG	STOVE	PIG	STOVE	2	[0, 0, 0]	-999	PAL1	2	R1065J
288.68	1.114	359246	REC_START	n/a	5	-999	n/a	STOVE	n/a	n/a	2	[0, 0, 0]	-999	PAL1	2	R1065J
289.794	3.911	360360	REC_EVENT	1114	5	1	PIG	STOVE	PIG	STOVE	2	[0, 0, 0]	-999	PAL1	2	R1065J
293.705	0.008	364271	REC_END	n/a	5	-999	n/a	n/a	n/a	n/a	2	[0, 0, 0]	-999	PAL1	2	R1065J
293.713	0.984	364279	TEST_ORIENT	n/a	2	2	MOON	WOLF	MOON	WOLF	2	[0, 0, 0]	-999	PAL1	2	R1065J
294.697	0.0	365263	TEST_PROBE	n/a	2	2	MOON	WOLF	MOON	WOLF	2	[0, 0, 0]	-999	PAL1	2	R1065J
294.697	0.994	365263	REC_START	n/a	2	-999	n/a	WOLF	n/a	n/a	2	[0, 0, 0]	-999	PAL1	2	R1065J
295.691	4.023	366257	REC_EVENT	994	2	2	MOON	WOLF	MOON	WOLF	2	[0, 0, 0]	-999	PAL1	2	R1065J
299.714	0.017	370280	REC_END	n/a	2	-999	n/a	n/a	n/a	n/a	2	[0, 0, 0]	-999	PAL1	2	R1065J
299.731	0.95	370297	TEST_ORIENT	n/a	1	3	WING	HEN	HEN	WING	2	[0, 0, 0]	-999	PAL1	2	R1065J
300.681	0.0	371247	TEST_PROBE	n/a	1	3	WING	HEN	HEN	WING	2	[0, 0, 0]	-999	PAL1	2	R1065J
300.681	1.081	371247	REC_START	n/a	1	-999	n/a	HEN	n/a	n/a	2	[0, 0, 0]	-999	PAL1	2	R1065J
301.762	3.936	372328	REC_EVENT	1081	1	3	WING	HEN	HEN	WING	2	[0, 0, 0]	-999	PAL1	2	R1065J
305.698	0.017	376264	REC_END	n/a	1	-999	n/a	n/a	n/a	n/a	2	[0, 0, 0]	-999	PAL1	2	R1065J
305.715	0.867	376281	TEST_ORIENT	n/a	6	4	BOX	CHALK	BOX	CHALK	2	[0, 0, 0]	-999	PAL1	2	R1065J
306.582	0.0	377148	REC_START	n/a	6	-999	n/a	CHALK	n/a	n/a	2	[0, 0, 0]	-999	PAL1	2	R1065J
306.582	1.65	377148	TEST_PROBE	n/a	6	4	BOX	CHALK	BOX	CHALK	2	[0, 0, 0]	-999	PAL1	2	R1065J
308.232	3.367	378798	REC_EVENT	1650	6	4	BOX	CHALK	BOX	CHALK	2	[0, 0, 0]	-999	PAL1	2	R1065J
311.599	0.017	382165	REC_END	n/a	6	-999	n/a	n/a	n/a	n/a	2	[0, 0, 0]	-999	PAL1	2	R1065J
311.616	1.016	382182	TEST_ORIENT	n/a	3	5	PEN	STREET	STREET	PEN	2	[0, 0, 0]	-999	PAL1	2	R1065J
312.632	0.001	383198	TEST_PROBE	n/a	3	5	PEN	STREET	STREET	PEN	2	[0, 0, 0]	-999	PAL1	2	R1065J
312.633	2.103	383199	REC_START	n/a	3	-999	n/a	STREET	n/a	n/a	2	[0, 0, 0]	-999	PAL1	2	R1065J
314.736	2.905	385302	REC_EVENT	2103	3	5	PEN	STREET	STREET	PEN	2	[0, 0, 0]	-999	PAL1	2	R1065J
317.641	0.009	388207	REC_END	n/a	3	-999	n/a	n/a	n/a	n/a	2	[0, 0, 0]	-999	PAL1	2	R1065J
317.65	1.0	388216	TEST_ORIENT	n/a	4	6	SEAT	LAWN	LAWN	SEAT	2	[0, 0, 0]	-999	PAL1	2	R1065J
318.65	0.001	389216	TEST_PROBE	n/a	4	6	SEAT	LAWN	LAWN	SEAT	2	[0, 0, 0]	-999	PAL1	2	R1065J
318.651	1.213	389217	REC_START	n/a	4	-999	n/a	LAWN	n/a	n/a	2	[0, 0, 0]	-999	PAL1	2	R1065J
319.864	3.811	390430	REC_EVENT	1213	4	6	SEAT	LAWN	LAWN	SEAT	2	[0, 0, 0]	-999	PAL1	2	R1065J
323.675	1.451	394241	REC_END	n/a	4	-999	n/a	n/a	n/a	n/a	2	[0, 0, 0]	-999	PAL1	2	R1065J
325.126	10.443	395692	ENCODING_START	n/a	0	-999	n/a	n/a	n/a	n/a	3	[0, 0, 0]	-999	PAL1	2	R1065J
335.569	0.85	406136	STUDY_ORIENT	n/a	1	3	STONE	MILK	STONE	MILK	3	[0, 0, 0]	-999	PAL1	2	R1065J
336.419	5.018	406986	STUDY_PAIR	n/a	1	3	STONE	MILK	STONE	MILK	3	[0, 0, 0]	-999	PAL1	2	R1065J
341.437	0.801	412004	STUDY_ORIENT	n/a	2	4	HORN	STOOL	HORN	STOOL	3	[0, 0, 0]	-999	PAL1	2	R1065J
342.238	5.034	412805	STUDY_PAIR	n/a	2	4	HORN	STOOL	HORN	STOOL	3	[0, 0, 0]	-999	PAL1	2	R1065J
347.272	0.85	417839	STUDY_ORIENT	n/a	3	5	BEAN	FACE	FACE	BEAN	3	[0, 0, 0]	-999	PAL1	2	R1065J
348.122	5.034	418689	STUDY_PAIR	n/a	3	5	BEAN	FACE	FACE	BEAN	3	[0, 0, 0]	-999	PAL1	2	R1065J
353.156	0.816	423723	STUDY_ORIENT	n/a	4	2	GUARD	GOAT	GOAT	GUARD	3	[0, 0, 0]	-999	PAL1	2	R1065J
353.972	5.034	424539	STUDY_PAIR	n/a	4	2	GUARD	GOAT	GOAT	GUARD	3	[0, 0, 0]	-999	PAL1	2	R1065J
359.006	1.0	429573	STUDY_ORIENT	n/a	5	1	BOAT	LAMB	LAMB	BOAT	3	[0, 0, 0]	-999	PAL1	2	R1065J
360.006	5.035	430573	STUDY_PAIR	n/a	5	1	BOAT	LAMB	LAMB	BOAT	3	[0, 0, 0]	-999	PAL1	2	R1065J
365.041	1.0	435608	STUDY_ORIENT	n/a	6	6	SUIT	CONE	SUIT	CONE	3	[0, 0, 0]	-999	PAL1	2	R1065J
366.041	4.001	436608	STUDY_PAIR	n/a	6	6	SUIT	CONE	SUIT	CONE	3	[0, 0, 0]	-999	PAL1	2	R1065J
370.042	1.0	440609	START	n/a	-999	-999	n/a	n/a	n/a	n/a	3	[-999, -999, -999]	-999	PAL1	2	R1065J
371.042	0.017	441609	MATH_START	n/a	-999	-999	n/a	n/a	n/a	n/a	3	[0, 0, 0]	-999	PAL1	2	R1065J
371.059	2.267	441626	PROB	2242	-999	-999	n/a	n/a	n/a	n/a	3	[8, 8, 8]	24	PAL1	2	R1065J
373.326	2.182	443893	PROB	2158	-999	-999	n/a	n/a	n/a	n/a	3	[8, 5, 6]	19	PAL1	2	R1065J
375.508	1.818	446075	PROB	1793	-999	-999	n/a	n/a	n/a	n/a	3	[6, 3, 3]	12	PAL1	2	R1065J
377.326	1.7	447893	PROB	1670	-999	-999	n/a	n/a	n/a	n/a	3	[2, 2, 7]	11	PAL1	2	R1065J
379.026	1.933	449593	PROB	1906	-999	-999	n/a	n/a	n/a	n/a	3	[2, 2, 8]	12	PAL1	2	R1065J
380.959	2.285	451526	PROB	2261	-999	-999	n/a	n/a	n/a	n/a	3	[2, 7, 2]	11	PAL1	2	R1065J
383.244	1.967	453811	PROB	1936	-999	-999	n/a	n/a	n/a	n/a	3	[7, 6, 3]	16	PAL1	2	R1065J
385.211	1.816	455778	PROB	1792	-999	-999	n/a	n/a	n/a	n/a	3	[7, 6, 6]	19	PAL1	2	R1065J
387.027	1.733	457594	PROB	1704	-999	-999	n/a	n/a	n/a	n/a	3	[4, 6, 2]	12	PAL1	2	R1065J
388.76	1.995	459327	PROB	1995	-999	-999	n/a	n/a	n/a	n/a	3	[7, 6, 3]	16	PAL1	2	R1065J
390.755	0.006	461322	STOP	n/a	-999	-999	n/a	n/a	n/a	n/a	3	[-999, -999, -999]	-999	PAL1	2	R1065J
390.761	0.0	461328	TEST_START	n/a	-999	-999	n/a	n/a	n/a	n/a	3	[0, 0, 0]	-999	PAL1	2	R1065J
390.761	0.016	461328	MATH_END	n/a	-999	-999	n/a	n/a	n/a	n/a	3	[0, 0, 0]	-999	PAL1	2	R1065J
390.777	0.934	461344	TEST_ORIENT	n/a	5	1	BOAT	LAMB	LAMB	BOAT	3	[0, 0, 0]	-999	PAL1	2	R1065J
391.711	0.0	462278	TEST_PROBE	n/a	5	1	BOAT	LAMB	LAMB	BOAT	3	[0, 0, 0]	-999	PAL1	2	R1065J
391.711	1.316	462278	REC_START	n/a	5	-999	n/a	LAMB	n/a	n/a	3	[0, 0, 0]	-999	PAL1	2	R1065J
393.027	3.701	463594	REC_EVENT	1316	5	1	BOAT	LAMB	LAMB	BOAT	3	[0, 0, 0]	-999	PAL1	2	R1065J
396.728	0.017	467295	REC_END	n/a	5	-999	n/a	n/a	n/a	n/a	3	[0, 0, 0]	-999	PAL1	2	R1065J
396.745	0.8	467312	TEST_ORIENT	n/a	4	2	GUARD	GOAT	GOAT	GUARD	3	[0, 0, 0]	-999	PAL1	2	R1065J
397.545	0.0	468112	TEST_PROBE	n/a	4	2	GUARD	GOAT	GOAT	GUARD	3	[0, 0, 0]	-999	PAL1	2	R1065J
397.545	1.283	468112	REC_START	n/a	4	-999	n/a	GOAT	n/a	n/a	3	[0, 0, 0]	-999	PAL1	2	R1065J
398.828	3.734	469395	REC_EVENT	1283	4	2	GUARD	GOAT	GOAT	GUARD	3	[0, 0, 0]	-999	PAL1	2	R1065J
402.562	0.017	473129	REC_END	n/a	4	-999	n/a	n/a	n/a	n/a	3	[0, 0, 0]	-999	PAL1	2	R1065J
402.579	0.917	473146	TEST_ORIENT	n/a	1	3	STONE	MILK	STONE	MILK	3	[0, 0, 0]	-999	PAL1	2	R1065J
403.496	0.0	474063	TEST_PROBE	n/a	1	3	STONE	MILK	STONE	MILK	3	[0, 0, 0]	-999	PAL1	2	R1065J
403.496	1.084	474063	REC_START	n/a	1	-999	n/a	MILK	n/a	n/a	3	[0, 0, 0]	-999	PAL1	2	R1065J
404.58	3.933	475147	REC_EVENT	1084	1	3	STONE	MILK	STONE	MILK	3	[0, 0, 0]	-999	PAL1	2	R1065J
408.513	0.017	479080	REC_END	n/a	1	-999	n/a	n/a	n/a	n/a	3	[0, 0, 0]	-999	PAL1	2	R1065J
408.53	0.851	479097	TEST_ORIENT	n/a	2	4	HORN	STOOL	HORN	STOOL	3	[0, 0, 0]	-999	PAL1	2	R1065J
409.381	0.001	479948	TEST_PROBE	n/a	2	4	HORN	STOOL	HORN	STOOL	3	[0, 0, 0]	-999	PAL1	2	R1065J
409.382	3.284	479949	REC_START	n/a	2	-999	n/a	STOOL	n/a	n/a	3	[0, 0, 0]	-999	PAL1	2	R1065J
412.666	1.741	483233	REC_EVENT	3284	2	4	HORN	STOOL	HORN	STOOL	3	[0, 0, 0]	-999	PAL1	2	R1065J
414.407	0.007	484974	REC_END	n/a	2	-999	n/a	n/a	n/a	n/a	3	[0, 0, 0]	-999	PAL1	2	R1065J
414.414	0.984	484981	TEST_ORIENT	n/a	3	5	BEAN	FACE	FACE	BEAN	3	[0, 0, 0]	-999	PAL1	2	R1065J
415.398	0.0	485965	TEST_PROBE	n/a	3	5	BEAN	FACE	FACE	BEAN	3	[0, 0, 0]	-999	PAL1	2	R1065J
415.398	1.092	485965	REC_START	n/a	3	-999	n/a	FACE	n/a	n/a	3	[0, 0, 0]	-999	PAL1	2	R1065J
416.49	3.925	487057	REC_EVENT	1092	3	5	BEAN	FACE	FACE	BEAN	3	[0, 0, 0]	-999	PAL1	2	R1065J
420.415	0.017	490982	REC_END	n/a	3	-999	n/a	n/a	n/a	n/a	3	[0, 0, 0]	-999	PAL1	2	R1065J
420.432	0.868	490999	TEST_ORIENT	n/a	6	6	SUIT	CONE	SUIT	CONE	3	[0, 0, 0]	-999	PAL1	2	R1065J
421.3	0.0	491867	TEST_PROBE	n/a	6	6	SUIT	CONE	SUIT	CONE	3	[0, 0, 0]	-999	PAL1	2	R1065J
421.3	0.926	491867	REC_START	n/a	6	-999	n/a	CONE	n/a	n/a	3	[0, 0, 0]	-999	PAL1	2	R1065J
422.226	4.091	492793	REC_EVENT	926	6	6	SUIT	CONE	SUIT	CONE	3	[0, 0, 0]	-999	PAL1	2	R1065J
426.317	1.693	496885	REC_END	n/a	6	-999	n/a	n/a	n/a	n/a	3	[0, 0, 0]	-999	PAL1	2	R1065J
428.01	10.441	498578	ENCODING_START	n/a	0	-999	n/a	n/a	n/a	n/a	4	[0, 0, 0]	-999	PAL1	2	R1065J
438.451	0.967	509019	STUDY_ORIENT	n/a	1	3	ROOT	VAN	VAN	ROOT	4	[0, 0, 0]	-999	PAL1	2	R1065J
439.418	5.034	509986	STUDY_PAIR	n/a	1	3	ROOT	VAN	VAN	ROOT	4	[0, 0, 0]	-999	PAL1	2	R1065J
444.452	0.901	515020	STUDY_ORIENT	n/a	2	6	BRIDGE	LAND	BRIDGE	LAND	4	[0, 0, 0]	-999	PAL1	2	R1065J
445.353	5.034	515921	STUDY_PAIR	n/a	2	6	BRIDGE	LAND	BRIDGE	LAND	4	[0, 0, 0]	-999	PAL1	2	R1065J
450.387	1.016	520955	STUDY_ORIENT	n/a	3	5	EEL	SHRIMP	SHRIMP	EEL	4	[0, 0, 0]	-999	PAL1	2	R1065J
451.403	5.034	521971	STUDY_PAIR	n/a	3	5	EEL	SHRIMP	SHRIMP	EEL	4	[0, 0, 0]	-999	PAL1	2	R1065J
456.437	0.918	527005	STUDY_ORIENT	n/a	4	2	RAIN	PLANE	RAIN	PLANE	4	[0, 0, 0]	-999	PAL1	2	R1065J
457.355	5.034	527923	STUDY_PAIR	n/a	4	2	RAIN	PLANE	RAIN	PLANE	4	[0, 0, 0]	-999	PAL1	2	R1065J
462.389	1.0	532957	STUDY_ORIENT	n/a	5	1	FLAME	NEST	FLAME	NEST	4	[0, 0, 0]	-999	PAL1	2	R1065J
463.389	5.033	533957	STUDY_PAIR	n/a	5	1	FLAME	NEST	FLAME	NEST	4	[0, 0, 0]	-999	PAL1	2	R1065J
468.422	1.017	538990	STUDY_ORIENT	n/a	6	4	BRICK	SPRING	BRICK	SPRING	4	[0, 0, 0]	-999	PAL1	2	R1065J
469.439	4.017	540007	STUDY_PAIR	n/a	6	4	BRICK	SPRING	BRICK	SPRING	4	[0, 0, 0]	-999	PAL1	2	R1065J
473.456	1.0	544024	START	n/a	-999	-999	n/a	n/a	n/a	n/a	4	[-999, -999, -999]	-999	PAL1	2	R1065J
474.456	0.017	545024	MATH_START	n/a	-999	-999	n/a	n/a	n/a	n/a	4	[0, 0, 0]	-999	PAL1	2	R1065J
474.473	3.568	545041	PROB	3544	-999	-999	n/a	n/a	n/a	n/a	4	[5, 9, 6]	20	PAL1	2	R1065J
478.041	1.816	548609	PROB	1784	-999	-999	n/a	n/a	n/a	n/a	4	[4, 6, 2]	12	PAL1	2	R1065J
479.857	2.034	550425	PROB	2008	-999	-999	n/a	n/a	n/a	n/a	4	[7, 2, 1]	10	PAL1	2	R1065J
481.891	1.683	552459	PROB	1654	-999	-999	n/a	n/a	n/a	n/a	4	[7, 3, 4]	14	PAL1	2	R1065J
483.574	1.635	554142	PROB	1612	-999	-999	n/a	n/a	n/a	n/a	4	[4, 6, 2]	12	PAL1	2	R1065J
485.209	1.616	555777	PROB	1584	-999	-999	n/a	n/a	n/a	n/a	4	[2, 5, 5]	12	PAL1	2	R1065J
486.825	1.85	557393	PROB	1816	-999	-999	n/a	n/a	n/a	n/a	4	[3, 4, 9]	16	PAL1	2	R1065J
488.675	1.618	559243	PROB	1599	-999	-999	n/a	n/a	n/a	n/a	4	[2, 2, 5]	9	PAL1	2	R1065J
490.293	1.9	560861	PROB	1869	-999	-999	n/a	n/a	n/a	n/a	4	[4, 6, 7]	17	PAL1	2	R1065J
492.193	2.088	562761	PROB	2088	-999	-999	n/a	n/a	n/a	n/a	4	[7, 7, 3]	17	PAL1	2	R1065J
494.281	0.012	564849	STOP	n/a	-999	-999	n/a	n/a	n/a	n/a	4	[-999, -999, -999]	-999	PAL1	2	R1065J
494.293	0.0	564861	MATH_END	n/a	-999	-999	n/a	n/a	n/a	n/a	4	[0, 0, 0]	-999	PAL1	2	R1065J
494.293	0.017	564861	TEST_START	n/a	-999	-999	n/a	n/a	n/a	n/a	4	[0, 0, 0]	-999	PAL1	2	R1065J
494.31	1.0	564878	TEST_ORIENT	n/a	5	1	FLAME	NEST	FLAME	NEST	4	[0, 0, 0]	-999	PAL1	2	R1065J
495.31	0.001	565878	TEST_PROBE	n/a	5	1	FLAME	NEST	FLAME	NEST	4	[0, 0, 0]	-999	PAL1	2	R1065J
495.311	1.447	565879	REC_START	n/a	5	-999	n/a	NEST	n/a	n/a	4	[0, 0, 0]	-999	PAL1	2	R1065J
496.758	3.569	567326	REC_EVENT	1447	5	1	FLAME	NEST	FLAME	NEST	4	[0, 0, 0]	-999	PAL1	2	R1065J
500.327	0.017	570895	REC_END	n/a	5	-999	n/a	n/a	n/a	n/a	4	[0, 0, 0]	-999	PAL1	2	R1065J
500.344	0.817	570912	TEST_ORIENT	n/a	4	2	RAIN	PLANE	RAIN	PLANE	4	[0, 0, 0]	-999	PAL1	2	R1065J
501.161	0.0	571729	REC_START	n/a	4	-999	n/a	PLANE	n/a	n/a	4	[0, 0, 0]	-999	PAL1	2	R1065J
501.161	1.517	571729	TEST_PROBE	n/a	4	2	RAIN	PLANE	RAIN	PLANE	4	[0, 0, 0]	-999	PAL1	2	R1065J
502.678	3.5	573246	REC_EVENT	1517	4	2	RAIN	PLANE	RAIN	PLANE	4	[0, 0, 0]	-999	PAL1	2	R1065J
506.178	0.017	576746	REC_END	n/a	4	-999	n/a	n/a	n/a	n/a	4	[0, 0, 0]	-999	PAL1	2	R1065J
506.195	0.917	576763	TEST_ORIENT	n/a	1	3	ROOT	VAN	VAN	ROOT	4	[0, 0, 0]	-999	PAL1	2	R1065J
507.112	0.0	577680	TEST_PROBE	n/a	1	3	ROOT	VAN	VAN	ROOT	4	[0, 0, 0]	-999	PAL1	2	R1065J
507.112	1.513	577680	REC_START	n/a	1	-999	n/a	VAN	n/a	n/a	4	[0, 0, 0]	-999	PAL1	2	R1065J
508.625	3.504	579193	REC_EVENT	1513	1	3	ROOT	VAN	VAN	ROOT	4	[0, 0, 0]	-999	PAL1	2	R1065J
512.129	0.017	582697	REC_END	n/a	1	-999	n/a	n/a	n/a	n/a	4	[0, 0, 0]	-999	PAL1	2	R1065J
512.146	0.799	582714	TEST_ORIENT	n/a	6	4	BRICK	SPRING	BRICK	SPRING	4	[0, 0, 0]	-999	PAL1	2	R1065J
512.945	0.0	583513	TEST_PROBE	n/a	6	4	BRICK	SPRING	BRICK	SPRING	4	[0, 0, 0]	-999	PAL1	2	R1065J
512.945	1.328	583513	REC_START	n/a	6	-999	n/a	SPRING	n/a	n/a	4	[0, 0, 0]	-999	PAL1	2	R1065J
514.273	3.689	584841	REC_EVENT	1328	6	4	BRICK	SPRING	BRICK	SPRING	4	[0, 0, 0]	-999	PAL1	2	R1065J
517.962	0.017	588530	REC_END	n/a	6	-999	n/a	n/a	n/a	n/a	4	[0, 0, 0]	-999	PAL1	2	R1065J
517.979	0.817	588547	TEST_ORIENT	n/a	3	5	EEL	SHRIMP	SHRIMP	EEL	4	[0, 0, 0]	-999	PAL1	2	R1065J
518.796	0.001	589364	TEST_PROBE	n/a	3	5	EEL	SHRIMP	SHRIMP	EEL	4	[0, 0, 0]	-999	PAL1	2	R1065J
518.797	0.973	589365	REC_START	n/a	3	-999	n/a	SHRIMP	n/a	n/a	4	[0, 0, 0]	-999	PAL1	2	R1065J
519.77	4.043	590338	REC_EVENT	973	3	5	EEL	SHRIMP	SHRIMP	EEL	4	[0, 0, 0]	-999	PAL1	2	R1065J
523.813	0.017	594382	REC_END	n/a	3	-999	n/a	n/a	n/a	n/a	4	[0, 0, 0]	-999	PAL1	2	R1065J
523.83	0.967	594399	TEST_ORIENT	n/a	2	6	BRIDGE	LAND	BRIDGE	LAND	4	[0, 0, 0]	-999	PAL1	2	R1065J
524.797	0.0	595366	TEST_PROBE	n/a	2	6	BRIDGE	LAND	BRIDGE	LAND	4	[0, 0, 0]	-999	PAL1	2	R1065J
524.797	1.131	595366	REC_START	n/a	2	-999	n/a	LAND	n/a	n/a	4	[0, 0, 0]	-999	PAL1	2	R1065J
525.928	3.886	596497	REC_EVENT	1131	2	6	BRIDGE	LAND	BRIDGE	LAND	4	[0, 0, 0]	-999	PAL1	2	R1065J
529.814	1.475	600383	REC_END	n/a	2	-999	n/a	n/a	n/a	n/a	4	[0, 0, 0]	-999	PAL1	2	R1065J
531.289	10.444	601858	ENCODING_START	n/a	0	-999	n/a	n/a	n/a	n/a	5	[0, 0, 0]	-999	PAL1	2	R1065J
541.733	0.866	612302	STUDY_ORIENT	n/a	1	3	SPOON	AXE	SPOON	AXE	5	[0, 0, 0]	-999	PAL1	2	R1065J
542.599	5.018	613168	STUDY_PAIR	n/a	1	3	SPOON	AXE	SPOON	AXE	5	[0, 0, 0]	-999	PAL1	2	R1065J
547.617	0.867	618186	STUDY_ORIENT	n/a	2	6	DOLL	MAZE	DOLL	MAZE	5	[0, 0, 0]	-999	PAL1	2	R1065J
548.484	5.034	619053	STUDY_PAIR	n/a	2	6	DOLL	MAZE	DOLL	MAZE	5	[0, 0, 0]	-999	PAL1	2	R1065J
553.518	0.9	624087	STUDY_ORIENT	n/a	3	5	SPARK	APE	APE	SPARK	5	[0, 0, 0]	-999	PAL1	2	R1065J
554.418	5.033	624987	STUDY_PAIR	n/a	3	5	SPARK	APE	APE	SPARK	5	[0, 0, 0]	-999	PAL1	2	R1065J
559.451	1.001	630020	STUDY_ORIENT	n/a	4	2	TREE	CLOWN	CLOWN	TREE	5	[0, 0, 0]	-999	PAL1	2	R1065J
560.452	5.034	631021	STUDY_PAIR	n/a	4	2	TREE	CLOWN	CLOWN	TREE	5	[0, 0, 0]	-999	PAL1	2	R1065J
565.486	0.884	636055	STUDY_ORIENT	n/a	5	1	LEG	CUBE	CUBE	LEG	5	[0, 0, 0]	-999	PAL1	2	R1065J
566.37	5.018	636939	STUDY_PAIR	n/a	5	1	LEG	CUBE	CUBE	LEG	5	[0, 0, 0]	-999	PAL1	2	R1065J
571.388	0.85	641957	STUDY_ORIENT	n/a	6	4	MAP	SHIP	MAP	SHIP	5	[0, 0, 0]	-999	PAL1	2	R1065J
572.238	4.018	642807	STUDY_PAIR	n/a	6	4	MAP	SHIP	MAP	SHIP	5	[0, 0, 0]	-999	PAL1	2	R1065J
576.256	0.999	646825	START	n/a	-999	-999	n/a	n/a	n/a	n/a	5	[-999, -999, -999]	-999	PAL1	2	R1065J
577.255	0.017	647824	MATH_START	n/a	-999	-999	n/a	n/a	n/a	n/a	5	[0, 0, 0]	-999	PAL1	2	R1065J
577.272	1.85	647841	PROB	1831	-999	-999	n/a	n/a	n/a	n/a	5	[1, 3, 2]	6	PAL1	2	R1065J
579.122	2.234	649691	PROB	2205	-999	-999	n/a	n/a	n/a	n/a	5	[5, 6, 1]	12	PAL1	2	R1065J
581.356	2.133	651925	PROB	2098	-999	-999	n/a	n/a	n/a	n/a	5	[1, 8, 8]	17	PAL1	2	R1065J
583.489	1.701	654058	PROB	1678	-999	-999	n/a	n/a	n/a	n/a	5	[9, 1, 6]	16	PAL1	2	R1065J
585.19	1.867	655759	PROB	1841	-999	-999	n/a	n/a	n/a	n/a	5	[9, 8, 6]	23	PAL1	2	R1065J
587.057	2.633	657626	PROB	2613	-999	-999	n/a	n/a	n/a	n/a	5	[5, 9, 6]	20	PAL1	2	R1065J
589.69	1.684	660259	PROB	1661	-999	-999	n/a	n/a	n/a	n/a	5	[1, 2, 9]	12	PAL1	2	R1065J
591.374	2.233	661943	PROB	2208	-999	-999	n/a	n/a	n/a	n/a	5	[5, 9, 6]	20	PAL1	2	R1065J
593.607	2.601	664176	PROB	2568	-999	-999	n/a	n/a	n/a	n/a	5	[8, 4, 4]	16	PAL1	2	R1065J
596.208	1.798	666777	PROB	1798	-999	-999	n/a	n/a	n/a	n/a	5	[5, 9, 1]	15	PAL1	2	R1065J
598.006	0.018	668575	STOP	n/a	-999	-999	n/a	n/a	n/a	n/a	5	[-999, -999, -999]	-999	PAL1	2	R1065J
598.024	0.0	668593	MATH_END	n/a	-999	-999	n/a	n/a	n/a	n/a	5	[0, 0, 0]	-999	PAL1	2	R1065J
598.024	0.018	668593	TEST_START	n/a	-999	-999	n/a	n/a	n/a	n/a	5	[0, 0, 0]	-999	PAL1	2	R1065J
598.042	0.866	668611	TEST_ORIENT	n/a	5	1	LEG	CUBE	CUBE	LEG	5	[0, 0, 0]	-999	PAL1	2	R1065J
598.908	0.0	669477	TEST_PROBE	n/a	5	1	LEG	CUBE	CUBE	LEG	5	[0, 0, 0]	-999	PAL1	2	R1065J
598.908	1.466	669477	REC_START	n/a	5	-999	n/a	CUBE	n/a	n/a	5	[0, 0, 0]	-999	PAL1	2	R1065J
600.374	3.551	670943	REC_EVENT	1466	5	1	LEG	CUBE	CUBE	LEG	5	[0, 0, 0]	-999	PAL1	2	R1065J
603.925	0.017	674494	REC_END	n/a	5	-999	n/a	n/a	n/a	n/a	5	[0, 0, 0]	-999	PAL1	2	R1065J
603.942	1.0	674511	TEST_ORIENT	n/a	4	2	TREE	CLOWN	CLOWN	TREE	5	[0, 0, 0]	-999	PAL1	2	R1065J
604.942	0.001	675511	TEST_PROBE	n/a	4	2	TREE	CLOWN	CLOWN	TREE	5	[0, 0, 0]	-999	PAL1	2	R1065J
604.943	1.222	675512	REC_START	n/a	4	-999	n/a	CLOWN	n/a	n/a	5	[0, 0, 0]	-999	PAL1	2	R1065J
606.165	3.811	676734	REC_EVENT	1222	4	2	TREE	CLOWN	CLOWN	TREE	5	[0, 0, 0]	-999	PAL1	2	R1065J
609.976	0.017	680545	REC_END	n/a	4	-999	n/a	n/a	n/a	n/a	5	[0, 0, 0]	-999	PAL1	2	R1065J
609.993	0.85	680562	TEST_ORIENT	n/a	1	3	SPOON	AXE	SPOON	AXE	5	[0, 0, 0]	-999	PAL1	2	R1065J
610.843	0.0	681412	TEST_PROBE	n/a	1	3	SPOON	AXE	SPOON	AXE	5	[0, 0, 0]	-999	PAL1	2	R1065J
610.843	1.507	681412	REC_START	n/a	1	-999	n/a	AXE	n/a	n/a	5	[0, 0, 0]	-999	PAL1	2	R1065J
612.35	3.51	682919	REC_EVENT	1507	1	3	SPOON	AXE	SPOON	AXE	5	[0, 0, 0]	-999	PAL1	2	R1065J
615.86	0.017	686429	REC_END	n/a	1	-999	n/a	n/a	n/a	n/a	5	[0, 0, 0]	-999	PAL1	2	R1065J
615.877	0.9	686446	TEST_ORIENT	n/a	6	4	MAP	SHIP	MAP	SHIP	5	[0, 0, 0]	-999	PAL1	2	R1065J
616.777	0.0	687346	TEST_PROBE	n/a	6	4	MAP	SHIP	MAP	SHIP	5	[0, 0, 0]	-999	PAL1	2	R1065J
616.777	3.665	687346	REC_START	n/a	6	-999	n/a	SHIP	n/a	n/a	5	[0, 0, 0]	-999	PAL1	2	R1065J
620.442	1.352	691011	REC_EVENT	3665	6	4	MAP	SHIP	MAP	SHIP	5	[0, 0, 0]	-999	PAL1	2	R1065J
621.794	0.017	692364	REC_END	n/a	6	-999	n/a	n/a	n/a	n/a	5	[0, 0, 0]	-999	PAL1	2	R1065J
621.811	1.0	692381	TEST_ORIENT	n/a	3	5	SPARK	APE	APE	SPARK	5	[0, 0, 0]	-999	PAL1	2	R1065J
622.811	0.001	693381	TEST_PROBE	n/a	3	5	SPARK	APE	APE	SPARK	5	[0, 0, 0]	-999	PAL1	2	R1065J
622.812	2.381	693382	REC_START	n/a	3	-999	n/a	APE	n/a	n/a	5	[0, 0, 0]	-999	PAL1	2	R1065J
625.193	2.635	695763	REC_EVENT	2381	3	5	SPARK	APE	APE	SPARK	5	[0, 0, 0]	-999	PAL1	2	R1065J
627.828	0.017	698398	REC_END	n/a	3	-999	n/a	n/a	n/a	n/a	5	[0, 0, 0]	-999	PAL1	2	R1065J
627.845	1.017	698415	TEST_ORIENT	n/a	2	6	DOLL	MAZE	DOLL	MAZE	5	[0, 0, 0]	-999	PAL1	2	R1065J
628.862	0.001	699432	TEST_PROBE	n/a	2	6	DOLL	MAZE	DOLL	MAZE	5	[0, 0, 0]	-999	PAL1	2	R1065J
628.863	1.127	699433	REC_START	n/a	2	-999	n/a	MAZE	n/a	n/a	5	[0, 0, 0]	-999	PAL1	2	R1065J
629.99	3.9	700560	REC_EVENT	1127	2	6	DOLL	MAZE	DOLL	MAZE	5	[0, 0, 0]	-999	PAL1	2	R1065J
633.89	1.523	704460	REC_END	n/a	2	-999	n/a	n/a	n/a	n/a	5	[0, 0, 0]	-999	PAL1	2	R1065J
635.413	10.451	705983	ENCODING_START	n/a	0	-999	n/a	n/a	n/a	n/a	6	[0, 0, 0]	-999	PAL1	2	R1065J
645.864	0.917	716434	STUDY_ORIENT	n/a	1	3	BOOK	JAIL	JAIL	BOOK	6	[0, 0, 0]	-999	PAL1	2	R1065J
646.781	5.018	717351	STUDY_PAIR	n/a	1	3	BOOK	JAIL	JAIL	BOOK	6	[0, 0, 0]	-999	PAL1	2	R1065J
651.799	1.016	722369	STUDY_ORIENT	n/a	2	2	TAIL	CUP	TAIL	CUP	6	[0, 0, 0]	-999	PAL1	2	R1065J
652.815	5.018	723385	STUDY_PAIR	n/a	2	2	TAIL	CUP	TAIL	CUP	6	[0, 0, 0]	-999	PAL1	2	R1065J
657.833	0.783	728403	STUDY_ORIENT	n/a	3	5	PIN	BAT	BAT	PIN	6	[0, 0, 0]	-999	PAL1	2	R1065J
658.616	5.034	729186	STUDY_PAIR	n/a	3	5	PIN	BAT	BAT	PIN	6	[0, 0, 0]	-999	PAL1	2	R1065J
663.65	1.001	734220	STUDY_ORIENT	n/a	4	4	CHIN	n/a	ROOM	CHIN	6	[0, 0, 0]	-999	PAL1	2	R1065J
664.651	5.034	735221	STUDY_PAIR	n/a	4	4	CHIN	n/a	ROOM	CHIN	6	[0, 0, 0]	-999	PAL1	2	R1065J
669.685	0.883	740255	STUDY_ORIENT	n/a	5	1	SPONGE	CAKE	CAKE	SPONGE	6	[0, 0, 0]	-999	PAL1	2	R1065J
670.568	5.034	741138	STUDY_PAIR	n/a	5	1	SPONGE	CAKE	CAKE	SPONGE	6	[0, 0, 0]	-999	PAL1	2	R1065J
675.602	0.785	746172	STUDY_ORIENT	n/a	6	6	WOOD	FOG	WOOD	FOG	6	[0, 0, 0]	-999	PAL1	2	R1065J
676.387	4.017	746957	STUDY_PAIR	n/a	6	6	WOOD	FOG	WOOD	FOG	6	[0, 0, 0]	-999	PAL1	2	R1065J
680.404	0.999	750974	START	n/a	-999	-999	n/a	n/a	n/a	n/a	6	[-999, -999, -999]	-999	PAL1	2	R1065J
681.403	0.017	751973	MATH_START	n/a	-999	-999	n/a	n/a	n/a	n/a	6	[0, 0, 0]	-999	PAL1	2	R1065J
681.42	1.834	751990	PROB	1808	-999	-999	n/a	n/a	n/a	n/a	6	[4, 1, 1]	6	PAL1	2	R1065J
683.254	2.15	753824	PROB	2126	-999	-999	n/a	n/a	n/a	n/a	6	[3, 9, 7]	19	PAL1	2	R1065J
685.404	1.901	755974	PROB	1880	-999	-999	n/a	n/a	n/a	n/a	6	[8, 5, 7]	20	PAL1	2	R1065J
687.305	2.149	757875	PROB	2122	-999	-999	n/a	n/a	n/a	n/a	6	[5, 4, 3]	12	PAL1	2	R1065J
689.454	1.668	760024	PROB	1638	-999	-999	n/a	n/a	n/a	n/a	6	[6, 6, 8]	20	PAL1	2	R1065J
691.122	2.416	761692	PROB	2385	-999	-999	n/a	n/a	n/a	n/a	6	[9, 3, 1]	13	PAL1	2	R1065J
693.538	1.851	764108	PROB	1826	-999	-999	n/a	n/a	n/a	n/a	6	[3, 4, 3]	10	PAL1	2	R1065J
695.389	1.784	765959	PROB	1759	-999	-999	n/a	n/a	n/a	n/a	6	[2, 9, 3]	14	PAL1	2	R1065J
697.173	1.884	767743	PROB	1863	-999	-999	n/a	n/a	n/a	n/a	6	[7, 6, 8]	21	PAL1	2	R1065J
699.057	2.594	769627	PROB	2594	-999	-999	n/a	n/a	n/a	n/a	6	[3, 9, 5]	17	PAL1	2	R1065J
701.651	0.005	772221	STOP	n/a	-999	-999	n/a	n/a	n/a	n/a	6	[-999, -999, -999]	-999	PAL1	2	R1065J
701.656	0.0	772226	MATH_END	n/a	-999	-999	n/a	n/a	n/a	n/a	6	[0, 0, 0]	-999	PAL1	2	R1065J
701.656	0.017	772226	TEST_START	n/a	-999	-999	n/a	n/a	n/a	n/a	6	[0, 0, 0]	-999	PAL1	2	R1065J
701.673	0.866	772243	TEST_ORIENT	n/a	5	1	SPONGE	CAKE	CAKE	SPONGE	6	[0, 0, 0]	-999	PAL1	2	R1065J
702.539	0.001	773109	TEST_PROBE	n/a	5	1	SPONGE	CAKE	CAKE	SPONGE	6	[0, 0, 0]	-999	PAL1	2	R1065J
702.54	0.85	773110	REC_START	n/a	5	-999	n/a	CAKE	n/a	n/a	6	[0, 0, 0]	-999	PAL1	2	R1065J
703.39	4.161	773960	REC_EVENT	850	5	1	SPONGE	CAKE	CAKE	SPONGE	6	[0, 0, 0]	-999	PAL1	2	R1065J
707.551	0.023	778121	REC_END	n/a	5	-999	n/a	n/a	n/a	n/a	6	[0, 0, 0]	-999	PAL1	2	R1065J
707.574	0.85	778144	TEST_ORIENT	n/a	2	2	TAIL	CUP	TAIL	CUP	6	[0, 0, 0]	-999	PAL1	2	R1065J
708.424	0.0	778994	TEST_PROBE	n/a	2	2	TAIL	CUP	TAIL	CUP	6	[0, 0, 0]	-999	PAL1	2	R1065J
708.424	1.086	778994	REC_START	n/a	2	-999	n/a	CUP	n/a	n/a	6	[0, 0, 0]	-999	PAL1	2	R1065J
709.51	3.931	780080	REC_EVENT	1086	2	2	TAIL	CUP	TAIL	CUP	6	[0, 0, 0]	-999	PAL1	2	R1065J
713.441	0.017	784011	REC_END	n/a	2	-999	n/a	n/a	n/a	n/a	6	[0, 0, 0]	-999	PAL1	2	R1065J
713.458	0.884	784028	TEST_ORIENT	n/a	1	3	BOOK	JAIL	JAIL	BOOK	6	[0, 0, 0]	-999	PAL1	2	R1065J
714.342	0.001	784912	TEST_PROBE	n/a	1	3	BOOK	JAIL	JAIL	BOOK	6	[0, 0, 0]	-999	PAL1	2	R1065J
714.343	1.111	784913	REC_START	n/a	1	-999	n/a	JAIL	n/a	n/a	6	[0, 0, 0]	-999	PAL1	2	R1065J
715.454	3.905	786024	REC_EVENT	1111	1	3	BOOK	JAIL	JAIL	BOOK	6	[0, 0, 0]	-999	PAL1	2	R1065J
719.359	0.017	789930	REC_END	n/a	1	-999	n/a	n/a	n/a	n/a	6	[0, 0, 0]	-999	PAL1	2	R1065J
719.376	1.033	789947	TEST_ORIENT	n/a	4	4	CHIN	n/a	ROOM	CHIN	6	[0, 0, 0]	-999	PAL1	2	R1065J
720.409	0.0	790980	TEST_PROBE	n/a	4	4	CHIN	n/a	ROOM	CHIN	6	[0, 0, 0]	-999	PAL1	2	R1065J
720.409	5.015	790980	REC_START	n/a	4	-999	n/a	n/a	n/a	n/a	6	[0, 0, 0]	-999	PAL1	2	R1065J
725.424	0.002	795995	REC_EVENT	5015	4	4	CHIN	<>	ROOM	CHIN	6	[0, 0, 0]	-999	PAL1	2	R1065J
725.426	0.017	795997	REC_END	n/a	4	-999	n/a	n/a	n/a	n/a	6	[0, 0, 0]	-999	PAL1	2	R1065J
725.443	1.0	796014	TEST_ORIENT	n/a	3	5	PIN	BAT	BAT	PIN	6	[0, 0, 0]	-999	PAL1	2	R1065J
726.443	0.0	797014	REC_START	n/a	3	-999	n/a	BAT	n/a	n/a	6	[0, 0, 0]	-999	PAL1	2	R1065J
726.443	1.89	797014	TEST_PROBE	n/a	3	5	PIN	BAT	BAT	PIN	6	[0, 0, 0]	-999	PAL1	2	R1065J
728.333	3.127	798904	REC_EVENT	1890	3	5	PIN	BAT	BAT	PIN	6	[0, 0, 0]	-999	PAL1	2	R1065J
731.46	0.017	802031	REC_END	n/a	3	-999	n/a	n/a	n/a	n/a	6	[0, 0, 0]	-999	PAL1	2	R1065J
731.477	0.901	802048	TEST_ORIENT	n/a	6	6	WOOD	FOG	WOOD	FOG	6	[0, 0, 0]	-999	PAL1	2	R1065J
732.378	0.001	802949	TEST_PROBE	n/a	6	6	WOOD	FOG	WOOD	FOG	6	[0, 0, 0]	-999	PAL1	2	R1065J
732.379	1.504	802950	REC_START	n/a	6	-999	n/a	FOG	n/a	n/a	6	[0, 0, 0]	-999	PAL1	2	R1065J
733.883	3.507	804454	REC_EVENT	1504	6	6	WOOD	FOG	WOOD	FOG	6	[0, 0, 0]	-999	PAL1	2	R1065J
737.39	1.54	807961	REC_END	n/a	6	-999	n/a	n/a	n/a	n/a	6	[0, 0, 0]	-999	PAL1	2	R1065J
738.93	10.451	809501	ENCODING_START	n/a	0	-999	n/a	n/a	n/a	n/a	7	[0, 0, 0]	-999	PAL1	2	R1065J
749.381	0.883	819952	STUDY_ORIENT	n/a	1	3	SLEEVE	FARM	SLEEVE	FARM	7	[0, 0, 0]	-999	PAL1	2	R1065J
750.264	5.034	820835	STUDY_PAIR	n/a	1	3	SLEEVE	FARM	SLEEVE	FARM	7	[0, 0, 0]	-999	PAL1	2	R1065J
755.298	0.95	825869	STUDY_ORIENT	n/a	2	6	MUD	WEED	MUD	WEED	7	[0, 0, 0]	-999	PAL1	2	R1065J
756.248	5.018	826819	STUDY_PAIR	n/a	2	6	MUD	WEED	MUD	WEED	7	[0, 0, 0]	-999	PAL1	2	R1065J
761.266	0.833	831837	STUDY_ORIENT	n/a	3	5	SKY	CAGE	SKY	CAGE	7	[0, 0, 0]	-999	PAL1	2	R1065J
762.099	5.034	832670	STUDY_PAIR	n/a	3	5	SKY	CAGE	SKY	CAGE	7	[0, 0, 0]	-999	PAL1	2	R1065J
767.133	0.816	837704	STUDY_ORIENT	n/a	4	2	ROOF	OAK	ROOF	OAK	7	[0, 0, 0]	-999	PAL1	2	R1065J
767.949	5.034	838520	STUDY_PAIR	n/a	4	2	ROOF	OAK	ROOF	OAK	7	[0, 0, 0]	-999	PAL1	2	R1065J
772.983	0.85	843554	STUDY_ORIENT	n/a	5	1	BEE	GRASS	BEE	GRASS	7	[0, 0, 0]	-999	PAL1	2	R1065J
773.833	5.034	844404	STUDY_PAIR	n/a	5	1	BEE	GRASS	BEE	GRASS	7	[0, 0, 0]	-999	PAL1	2	R1065J
778.867	0.767	849438	STUDY_ORIENT	n/a	6	4	THUMB	ROPE	THUMB	ROPE	7	[0, 0, 0]	-999	PAL1	2	R1065J
779.634	4.018	850205	STUDY_PAIR	n/a	6	4	THUMB	ROPE	THUMB	ROPE	7	[0, 0, 0]	-999	PAL1	2	R1065J
783.652	0.999	854223	START	n/a	-999	-999	n/a	n/a	n/a	n/a	7	[-999, -999, -999]	-999	PAL1	2	R1065J
784.651	0.017	855222	MATH_START	n/a	-999	-999	n/a	n/a	n/a	n/a	7	[0, 0, 0]	-999	PAL1	2	R1065J
784.668	2.535	855239	PROB	2502	-999	-999	n/a	n/a	n/a	n/a	7	[7, 2, 9]	18	PAL1	2	R1065J
787.203	1.616	857774	PROB	1582	-999	-999	n/a	n/a	n/a	n/a	7	[2, 4, 5]	11	PAL1	2	R1065J
788.819	1.7	859390	PROB	1670	-999	-999	n/a	n/a	n/a	n/a	7	[8, 1, 4]	13	PAL1	2	R1065J
790.519	3.852	861090	PROB	3826	-999	-999	n/a	n/a	n/a	n/a	7	[8, 9, 6]	23	PAL1	2	R1065J
794.371	1.866	864942	PROB	1838	-999	-999	n/a	n/a	n/a	n/a	7	[2, 4, 2]	8	PAL1	2	R1065J
796.237	1.583	866808	PROB	1564	-999	-999	n/a	n/a	n/a	n/a	7	[7, 3, 4]	14	PAL1	2	R1065J
797.82	1.8	868391	PROB	1772	-999	-999	n/a	n/a	n/a	n/a	7	[3, 9, 3]	15	PAL1	2	R1065J
799.62	1.768	870191	PROB	1741	-999	-999	n/a	n/a	n/a	n/a	7	[8, 1, 6]	15	PAL1	2	R1065J
801.388	3.236	871959	PROB	3236	-999	-999	n/a	n/a	n/a	n/a	7	[9, 5, 8]	22	PAL1	2	R1065J
804.624	0.014	875195	STOP	n/a	-999	-999	n/a	n/a	n/a	n/a	7	[-999, -999, -999]	-999	PAL1	2	R1065J
804.638	0.0	875209	MATH_END	n/a	-999	-999	n/a	n/a	n/a	n/a	7	[0, 0, 0]	-999	PAL1	2	R1065J
804.638	0.016	875209	TEST_START	n/a	-999	-999	n/a	n/a	n/a	n/a	7	[0, 0, 0]	-999	PAL1	2	R1065J
804.654	0.984	875225	TEST_ORIENT	n/a	5	1	BEE	GRASS	BEE	GRASS	7	[0, 0, 0]	-999	PAL1	2	R1065J
805.638	0.0	876209	TEST_PROBE	n/a	5	1	BEE	GRASS	BEE	GRASS	7	[0, 0, 0]	-999	PAL1	2	R1065J
805.638	1.255	876209	REC_START	n/a	5	-999	n/a	GRASS	n/a	n/a	7	[0, 0, 0]	-999	PAL1	2	R1065J
806.893	3.762	877464	REC_EVENT	1255	5	1	BEE	GRASS	BEE	GRASS	7	[0, 0, 0]	-999	PAL1	2	R1065J
810.655	0.017	881226	REC_END	n/a	5	-999	n/a	n/a	n/a	n/a	7	[0, 0, 0]	-999	PAL1	2	R1065J
810.672	0.85	881243	TEST_ORIENT	n/a	4	2	ROOF	OAK	ROOF	OAK	7	[0, 0, 0]	-999	PAL1	2	R1065J
811.522	0.001	882093	TEST_PROBE	n/a	4	2	ROOF	OAK	ROOF	OAK	7	[0, 0, 0]	-999	PAL1	2	R1065J
811.523	0.989	882094	REC_START	n/a	4	-999	n/a	OAK	n/a	n/a	7	[0, 0, 0]	-999	PAL1	2	R1065J
812.512	4.038	883083	REC_EVENT	989	4	2	ROOF	OAK	ROOF	OAK	7	[0, 0, 0]	-999	PAL1	2	R1065J
816.55	0.023	887122	REC_END	n/a	4	-999	n/a	n/a	n/a	n/a	7	[0, 0, 0]	-999	PAL1	2	R1065J
816.573	0.883	887145	TEST_ORIENT	n/a	1	3	SLEEVE	FARM	SLEEVE	FARM	7	[0, 0, 0]	-999	PAL1	2	R1065J
817.456	0.001	888028	TEST_PROBE	n/a	1	3	SLEEVE	FARM	SLEEVE	FARM	7	[0, 0, 0]	-999	PAL1	2	R1065J
817.457	1.513	888029	REC_START	n/a	1	-999	n/a	FARM	n/a	n/a	7	[0, 0, 0]	-999	PAL1	2	R1065J
818.97	3.498	889542	REC_EVENT	1513	1	3	SLEEVE	FARM	SLEEVE	FARM	7	[0, 0, 0]	-999	PAL1	2	R1065J
822.468	0.022	893040	REC_END	n/a	1	-999	n/a	n/a	n/a	n/a	7	[0, 0, 0]	-999	PAL1	2	R1065J
822.49	0.801	893062	TEST_ORIENT	n/a	6	4	THUMB	ROPE	THUMB	ROPE	7	[0, 0, 0]	-999	PAL1	2	R1065J
823.291	0.001	893863	TEST_PROBE	n/a	6	4	THUMB	ROPE	THUMB	ROPE	7	[0, 0, 0]	-999	PAL1	2	R1065J
823.292	1.512	893864	REC_START	n/a	6	-999	n/a	ROPE	n/a	n/a	7	[0, 0, 0]	-999	PAL1	2	R1065J
824.804	3.499	895376	REC_EVENT	1512	6	4	THUMB	ROPE	THUMB	ROPE	7	[0, 0, 0]	-999	PAL1	2	R1065J
828.303	0.056	898875	REC_END	n/a	6	-999	n/a	n/a	n/a	n/a	7	[0, 0, 0]	-999	PAL1	2	R1065J
828.359	0.883	898931	TEST_ORIENT	n/a	3	5	SKY	CAGE	SKY	CAGE	7	[0, 0, 0]	-999	PAL1	2	R1065J
829.242	0.001	899814	TEST_PROBE	n/a	3	5	SKY	CAGE	SKY	CAGE	7	[0, 0, 0]	-999	PAL1	2	R1065J
829.243	1.154	899815	REC_START	n/a	3	-999	n/a	CAGE	n/a	n/a	7	[0, 0, 0]	-999	PAL1	2	R1065J
830.397	3.862	900969	REC_EVENT	1154	3	5	SKY	CAGE	SKY	CAGE	7	[0, 0, 0]	-999	PAL1	2	R1065J
834.259	0.017	904831	REC_END	n/a	3	-999	n/a	n/a	n/a	n/a	7	[0, 0, 0]	-999	PAL1	2	R1065J
834.276	0.85	904848	TEST_ORIENT	n/a	2	6	MUD	WEED	MUD	WEED	7	[0, 0, 0]	-999	PAL1	2	R1065J
835.126	0.001	905698	TEST_PROBE	n/a	2	6	MUD	WEED	MUD	WEED	7	[0, 0, 0]	-999	PAL1	2	R1065J
835.127	1.922	905699	REC_START	n/a	2	-999	n/a	WEED	n/a	n/a	7	[0, 0, 0]	-999	PAL1	2	R1065J
837.049	3.089	907621	REC_EVENT	1922	2	6	MUD	WEED	MUD	WEED	7	[0, 0, 0]	-999	PAL1	2	R1065J
840.138	11.934	910710	REC_END	n/a	2	-999	n/a	n/a	n/a	n/a	7	[0, 0, 0]	-999	PAL1	2	R1065J
852.072	10.441	922644	ENCODING_START	n/a	0	-999	n/a	n/a	n/a	n/a	8	[0, 0, 0]	-999	PAL1	2	R1065J
862.513	0.851	933085	STUDY_ORIENT	n/a	1	1	WEB	CLOCK	CLOCK	WEB	8	[0, 0, 0]	-999	PAL1	2	R1065J
863.364	5.034	933936	STUDY_PAIR	n/a	1	1	WEB	CLOCK	CLOCK	WEB	8	[0, 0, 0]	-999	PAL1	2	R1065J
868.398	0.85	938970	STUDY_ORIENT	n/a	2	4	SEAL	BROOM	BROOM	SEAL	8	[0, 0, 0]	-999	PAL1	2	R1065J
869.248	5.034	939820	STUDY_PAIR	n/a	2	4	SEAL	BROOM	BROOM	SEAL	8	[0, 0, 0]	-999	PAL1	2	R1065J
874.282	0.917	944854	STUDY_ORIENT	n/a	3	5	ELF	HOLE	ELF	HOLE	8	[0, 0, 0]	-999	PAL1	2	R1065J
875.199	5.034	945771	STUDY_PAIR	n/a	3	5	ELF	HOLE	ELF	HOLE	8	[0, 0, 0]	-999	PAL1	2	R1065J
880.233	0.8	950805	STUDY_ORIENT	n/a	4	2	TIE	BAND	BAND	TIE	8	[0, 0, 0]	-999	PAL1	2	R1065J
881.033	5.034	951605	STUDY_PAIR	n/a	4	2	TIE	BAND	BAND	TIE	8	[0, 0, 0]	-999	PAL1	2	R1065J
886.067	0.783	956639	STUDY_ORIENT	n/a	5	3	BAG	RICE	BAG	RICE	8	[0, 0, 0]	-999	PAL1	2	R1065J
886.85	5.034	957422	STUDY_PAIR	n/a	5	3	BAG	RICE	BAG	RICE	8	[0, 0, 0]	-999	PAL1	2	R1065J
891.884	1.0	962456	STUDY_ORIENT	n/a	6	6	CANE	n/a	CANE	ROAD	8	[0, 0, 0]	-999	PAL1	2	R1065J
892.884	4.018	963456	STUDY_PAIR	n/a	6	6	CANE	n/a	CANE	ROAD	8	[0, 0, 0]	-999	PAL1	2	R1065J
896.902	0.999	967474	START	n/a	-999	-999	n/a	n/a	n/a	n/a	8	[-999, -999, -999]	-999	PAL1	2	R1065J
897.901	0.017	968473	MATH_START	n/a	-999	-999	n/a	n/a	n/a	n/a	8	[0, 0, 0]	-999	PAL1	2	R1065J
897.918	1.85	968490	PROB	1832	-999	-999	n/a	n/a	n/a	n/a	8	[1, 1, 6]	8	PAL1	2	R1065J
899.768	2.234	970340	PROB	2214	-999	-999	n/a	n/a	n/a	n/a	8	[7, 9, 1]	17	PAL1	2	R1065J
902.002	2.335	972574	PROB	2309	-999	-999	n/a	n/a	n/a	n/a	8	[7, 9, 1]	17	PAL1	2	R1065J
904.337	1.733	974909	PROB	1702	-999	-999	n/a	n/a	n/a	n/a	8	[1, 4, 9]	14	PAL1	2	R1065J
906.07	1.816	976642	PROB	1792	-999	-999	n/a	n/a	n/a	n/a	8	[1, 9, 5]	15	PAL1	2	R1065J
907.886	1.867	978458	PROB	1840	-999	-999	n/a	n/a	n/a	n/a	8	[3, 9, 7]	19	PAL1	2	R1065J
909.753	1.734	980325	PROB	1709	-999	-999	n/a	n/a	n/a	n/a	8	[4, 1, 7]	12	PAL1	2	R1065J
911.487	2.367	982059	PROB	2342	-999	-999	n/a	n/a	n/a	n/a	8	[9, 8, 6]	23	PAL1	2	R1065J
913.854	1.766	984427	PROB	1743	-999	-999	n/a	n/a	n/a	n/a	8	[3, 1, 6]	10	PAL1	2	R1065J
915.62	1.738	986193	PROB	1738	-999	-999	n/a	n/a	n/a	n/a	8	[1, 5, 9]	15	PAL1	2	R1065J
917.358	0.014	987931	STOP	n/a	-999	-999	n/a	n/a	n/a	n/a	8	[-999, -999, -999]	-999	PAL1	2	R1065J
917.372	0.0	987945	MATH_END	n/a	-999	-999	n/a	n/a	n/a	n/a	8	[0, 0, 0]	-999	PAL1	2	R1065J
917.372	0.016	987945	TEST_START	n/a	-999	-999	n/a	n/a	n/a	n/a	8	[0, 0, 0]	-999	PAL1	2	R1065J
917.388	0.851	987961	TEST_ORIENT	n/a	1	1	WEB	CLOCK	CLOCK	WEB	8	[0, 0, 0]	-999	PAL1	2	R1065J
918.239	0.0	988812	REC_START	n/a	1	-999	n/a	CLOCK	n/a	n/a	8	[0, 0, 0]	-999	PAL1	2	R1065J
918.239	1.067	988812	TEST_PROBE	n/a	1	1	WEB	CLOCK	CLOCK	WEB	8	[0, 0, 0]	-999	PAL1	2	R1065J
919.306	3.95	989879	REC_EVENT	1067	1	1	WEB	CLOCK	CLOCK	WEB	8	[0, 0, 0]	-999	PAL1	2	R1065J
923.256	0.017	993829	REC_END	n/a	1	-999	n/a	n/a	n/a	n/a	8	[0, 0, 0]	-999	PAL1	2	R1065J
923.273	0.966	993846	TEST_ORIENT	n/a	4	2	TIE	BAND	BAND	TIE	8	[0, 0, 0]	-999	PAL1	2	R1065J
924.239	0.001	994812	TEST_PROBE	n/a	4	2	TIE	BAND	BAND	TIE	8	[0, 0, 0]	-999	PAL1	2	R1065J
924.24	1.172	994813	REC_START	n/a	4	-999	n/a	BAND	n/a	n/a	8	[0, 0, 0]	-999	PAL1	2	R1065J
925.412	3.839	995985	REC_EVENT	1172	4	2	TIE	BAND	BAND	TIE	8	[0, 0, 0]	-999	PAL1	2	R1065J
929.251	0.023	999824	REC_END	n/a	4	-999	n/a	n/a	n/a	n/a	8	[0, 0, 0]	-999	PAL1	2	R1065J
929.274	0.85	999847	TEST_ORIENT	n/a	5	3	BAG	RICE	BAG	RICE	8	[0, 0, 0]	-999	PAL1	2	R1065J
930.124	0.0	1000697	TEST_PROBE	n/a	5	3	BAG	RICE	BAG	RICE	8	[0, 0, 0]	-999	PAL1	2	R1065J
930.124	1.197	1000697	REC_START	n/a	5	-999	n/a	RICE	n/a	n/a	8	[0, 0, 0]	-999	PAL1	2	R1065J
931.321	3.82	1001894	REC_EVENT	1197	5	3	BAG	RICE	BAG	RICE	8	[0, 0, 0]	-999	PAL1	2	R1065J
935.141	0.017	1005714	REC_END	n/a	5	-999	n/a	n/a	n/a	n/a	8	[0, 0, 0]	-999	PAL1	2	R1065J
935.158	0.983	1005731	TEST_ORIENT	n/a	2	4	SEAL	BROOM	BROOM	SEAL	8	[0, 0, 0]	-999	PAL1	2	R1065J
936.141	0.001	1006714	TEST_PROBE	n/a	2	4	SEAL	BROOM	BROOM	SEAL	8	[0, 0, 0]	-999	PAL1	2	R1065J
936.142	1.437	1006715	REC_START	n/a	2	-999	n/a	BROOM	n/a	n/a	8	[0, 0, 0]	-999	PAL1	2	R1065J
937.579	3.574	1008152	REC_EVENT	1437	2	4	SEAL	BROOM	BROOM	SEAL	8	[0, 0, 0]	-999	PAL1	2	R1065J
941.153	0.022	1011726	REC_END	n/a	2	-999	n/a	n/a	n/a	n/a	8	[0, 0, 0]	-999	PAL1	2	R1065J
941.175	0.867	1011748	TEST_ORIENT	n/a	3	5	ELF	HOLE	ELF	HOLE	8	[0, 0, 0]	-999	PAL1	2	R1065J
942.042	0.001	1012615	TEST_PROBE	n/a	3	5	ELF	HOLE	ELF	HOLE	8	[0, 0, 0]	-999	PAL1	2	R1065J
942.043	1.963	1012616	REC_START	n/a	3	-999	n/a	HOLE	n/a	n/a	8	[0, 0, 0]	-999	PAL1	2	R1065J
944.006	3.064	1014579	REC_EVENT	1963	3	5	ELF	HOLE	ELF	HOLE	8	[0, 0, 0]	-999	PAL1	2	R1065J
947.07	0.023	1017643	REC_END	n/a	3	-999	n/a	n/a	n/a	n/a	8	[0, 0, 0]	-999	PAL1	2	R1065J
947.093	0.967	1017666	TEST_ORIENT	n/a	6	6	CANE	n/a	CANE	ROAD	8	[0, 0, 0]	-999	PAL1	2	R1065J
948.06	0.001	1018633	TEST_PROBE	n/a	6	6	CANE	n/a	CANE	ROAD	8	[0, 0, 0]	-999	PAL1	2	R1065J
948.061	5.015	1018634	REC_START	n/a	6	-999	n/a	n/a	n/a	n/a	8	[0, 0, 0]	-999	PAL1	2	R1065J
953.076	0.001	1023649	REC_EVENT	5015	6	6	CANE	<>	CANE	ROAD	8	[0, 0, 0]	-999	PAL1	2	R1065J
953.077	1.575	1023650	REC_END	n/a	6	-999	n/a	n/a	n/a	n/a	8	[0, 0, 0]	-999	PAL1	2	R1065J
954.652	10.443	1025225	ENCODING_START	n/a	0	-999	n/a	n/a	n/a	n/a	9	[0, 0, 0]	-999	PAL1	2	R1065J
965.095	0.816	1035668	STUDY_ORIENT	n/a	1	5	BED	PEACH	PEACH	BED	9	[0, 0, 0]	-999	PAL1	2	R1065J
965.911	5.018	1036484	STUDY_PAIR	n/a	1	5	BED	PEACH	PEACH	BED	9	[0, 0, 0]	-999	PAL1	2	R1065J
970.929	0.967	1041502	STUDY_ORIENT	n/a	2	4	DIME	n/a	DIME	PEAR	9	[0, 0, 0]	-999	PAL1	2	R1065J
971.896	5.033	1042469	STUDY_PAIR	n/a	2	4	DIME	n/a	DIME	PEAR	9	[0, 0, 0]	-999	PAL1	2	R1065J
976.929	0.951	1047502	STUDY_ORIENT	n/a	3	3	SUN	LAMP	LAMP	SUN	9	[0, 0, 0]	-999	PAL1	2	R1065J
977.88	5.034	1048453	STUDY_PAIR	n/a	3	3	SUN	LAMP	LAMP	SUN	9	[0, 0, 0]	-999	PAL1	2	R1065J
982.914	0.883	1053487	STUDY_ORIENT	n/a	4	2	CALF	STICK	STICK	CALF	9	[0, 0, 0]	-999	PAL1	2	R1065J
983.797	5.034	1054370	STUDY_PAIR	n/a	4	2	CALF	STICK	STICK	CALF	9	[0, 0, 0]	-999	PAL1	2	R1065J
988.831	0.8	1059404	STUDY_ORIENT	n/a	5	1	FLAG	KITE	FLAG	KITE	9	[0, 0, 0]	-999	PAL1	2	R1065J
989.631	5.034	1060204	STUDY_PAIR	n/a	5	1	FLAG	KITE	FLAG	KITE	9	[0, 0, 0]	-999	PAL1	2	R1065J
994.665	0.834	1065238	STUDY_ORIENT	n/a	6	6	CLAY	FILM	CLAY	FILM	9	[0, 0, 0]	-999	PAL1	2	R1065J
995.499	4.018	1066072	STUDY_PAIR	n/a	6	6	CLAY	FILM	CLAY	FILM	9	[0, 0, 0]	-999	PAL1	2	R1065J
999.517	0.999	1070090	START	n/a	-999	-999	n/a	n/a	n/a	n/a	9	[-999, -999, -999]	-999	PAL1	2	R1065J
1000.516	0.017	1071089	MATH_START	n/a	-999	-999	n/a	n/a	n/a	n/a	9	[0, 0, 0]	-999	PAL1	2	R1065J
1000.533	2.484	1071106	PROB	2454	-999	-999	n/a	n/a	n/a	n/a	9	[2, 5, 7]	14	PAL1	2	R1065J
1003.017	2.55	1073590	PROB	2522	-999	-999	n/a	n/a	n/a	n/a	9	[4, 1, 3]	8	PAL1	2	R1065J
1005.567	1.967	1076140	PROB	1940	-999	-999	n/a	n/a	n/a	n/a	9	[3, 2, 3]	8	PAL1	2	R1065J
1007.534	3.234	1078107	PROB	3205	-999	-999	n/a	n/a	n/a	n/a	9	[6, 8, 7]	23	PAL1	2	R1065J
1010.768	1.518	1081342	PROB	1492	-999	-999	n/a	n/a	n/a	n/a	9	[1, 5, 1]	7	PAL1	2	R1065J
1012.286	1.566	1082860	PROB	1541	-999	-999	n/a	n/a	n/a	n/a	9	[5, 2, 1]	8	PAL1	2	R1065J
1013.852	1.983	1084426	PROB	1951	-999	-999	n/a	n/a	n/a	n/a	9	[5, 3, 8]	16	PAL1	2	R1065J
1015.835	2.117	1086409	PROB	2088	-999	-999	n/a	n/a	n/a	n/a	9	[7, 6, 1]	14	PAL1	2	R1065J
1017.952	2.507	1088526	PROB	2507	-999	-999	n/a	n/a	n/a	n/a	9	[6, 7, 9]	22	PAL1	2	R1065J
1020.459	0.01	1091033	STOP	n/a	-999	-999	n/a	n/a	n/a	n/a	9	[-999, -999, -999]	-999	PAL1	2	R1065J
1020.469	0.0	1091043	MATH_END	n/a	-999	-999	n/a	n/a	n/a	n/a	9	[0, 0, 0]	-999	PAL1	2	R1065J
1020.469	0.017	1091043	TEST_START	n/a	-999	-999	n/a	n/a	n/a	n/a	9	[0, 0, 0]	-999	PAL1	2	R1065J
1020.486	0.834	1091060	TEST_ORIENT	n/a	5	1	FLAG	KITE	FLAG	KITE	9	[0, 0, 0]	-999	PAL1	2	R1065J
1021.32	0.001	1091894	TEST_PROBE	n/a	5	1	FLAG	KITE	FLAG	KITE	9	[0, 0, 0]	-999	PAL1	2	R1065J
1021.321	1.102	1091895	REC_START	n/a	5	-999	n/a	KITE	n/a	n/a	9	[0, 0, 0]	-999	PAL1	2	R1065J
1022.423	3.909	1092997	REC_EVENT	1102	5	1	FLAG	KITE	FLAG	KITE	9	[0, 0, 0]	-999	PAL1	2	R1065J
1026.332	0.022	1096906	REC_END	n/a	5	-999	n/a	n/a	n/a	n/a	9	[0, 0, 0]	-999	PAL1	2	R1065J
1026.354	0.834	1096928	TEST_ORIENT	n/a	4	2	CALF	STICK	STICK	CALF	9	[0, 0, 0]	-999	PAL1	2	R1065J
1027.188	0.0	1097762	TEST_PROBE	n/a	4	2	CALF	STICK	STICK	CALF	9	[0, 0, 0]	-999	PAL1	2	R1065J
1027.188	0.961	1097762	REC_START	n/a	4	-999	n/a	STICK	n/a	n/a	9	[0, 0, 0]	-999	PAL1	2	R1065J
1028.149	4.056	1098723	REC_EVENT	961	4	2	CALF	STICK	STICK	CALF	9	[0, 0, 0]	-999	PAL1	2	R1065J
1032.205	0.017	1102779	REC_END	n/a	4	-999	n/a	n/a	n/a	n/a	9	[0, 0, 0]	-999	PAL1	2	R1065J
1032.222	0.967	1102796	TEST_ORIENT	n/a	3	3	SUN	LAMP	LAMP	SUN	9	[0, 0, 0]	-999	PAL1	2	R1065J
1033.189	0.0	1103763	TEST_PROBE	n/a	3	3	SUN	LAMP	LAMP	SUN	9	[0, 0, 0]	-999	PAL1	2	R1065J
1033.189	1.718	1103763	REC_START	n/a	3	-999	n/a	LAMP	n/a	n/a	9	[0, 0, 0]	-999	PAL1	2	R1065J
1034.907	3.299	1105481	REC_EVENT	1718	3	3	SUN	LAMP	LAMP	SUN	9	[0, 0, 0]	-999	PAL1	2	R1065J
1038.206	0.017	1108780	REC_END	n/a	3	-999	n/a	n/a	n/a	n/a	9	[0, 0, 0]	-999	PAL1	2	R1065J
1038.223	1.017	1108797	TEST_ORIENT	n/a	2	4	DIME	n/a	DIME	PEAR	9	[0, 0, 0]	-999	PAL1	2	R1065J
1039.24	0.0	1109814	TEST_PROBE	n/a	2	4	DIME	n/a	DIME	PEAR	9	[0, 0, 0]	-999	PAL1	2	R1065J
1039.24	3.328	1109814	REC_START	n/a	2	-999	n/a	n/a	n/a	n/a	9	[0, 0, 0]	-999	PAL1	2	R1065J
1042.568	0.744	1113142	REC_EVENT	3328	2	4	DIME	<>	DIME	PEAR	9	[0, 0, 0]	-999	PAL1	2	R1065J
1043.312	0.945	1113886	REC_EVENT	4072	2	4	DIME	<>	DIME	PEAR	9	[0, 0, 0]	-999	PAL1	2	R1065J
1044.257	0.017	1114831	REC_END	n/a	2	-999	n/a	n/a	n/a	n/a	9	[0, 0, 0]	-999	PAL1	2	R1065J
1044.274	0.866	1114848	TEST_ORIENT	n/a	1	5	BED	PEACH	PEACH	BED	9	[0, 0, 0]	-999	PAL1	2	R1065J
1045.14	0.001	1115714	TEST_PROBE	n/a	1	5	BED	PEACH	PEACH	BED	9	[0, 0, 0]	-999	PAL1	2	R1065J
1045.141	0.797	1115715	REC_START	n/a	1	-999	n/a	PEACH	n/a	n/a	9	[0, 0, 0]	-999	PAL1	2	R1065J
1045.938	4.214	1116512	REC_EVENT	797	1	5	BED	PEACH	PEACH	BED	9	[0, 0, 0]	-999	PAL1	2	R1065J
1050.152	0.023	1120726	REC_END	n/a	1	-999	n/a	n/a	n/a	n/a	9	[0, 0, 0]	-999	PAL1	2	R1065J
1050.175	0.866	1120749	TEST_ORIENT	n/a	6	6	CLAY	FILM	CLAY	FILM	9	[0, 0, 0]	-999	PAL1	2	R1065J
1051.041	0.001	1121615	TEST_PROBE	n/a	6	6	CLAY	FILM	CLAY	FILM	9	[0, 0, 0]	-999	PAL1	2	R1065J
1051.042	1.666	1121616	REC_START	n/a	6	-999	n/a	FILM	n/a	n/a	9	[0, 0, 0]	-999	PAL1	2	R1065J
1052.708	3.362	1123282	REC_EVENT	1666	6	6	CLAY	FILM	CLAY	FILM	9	[0, 0, 0]	-999	PAL1	2	R1065J
1056.07	1.443	1126644	REC_END	n/a	6	-999	n/a	n/a	n/a	n/a	9	[0, 0, 0]	-999	PAL1	2	R1065J
1057.513	10.447	1128087	ENCODING_START	n/a	0	-999	n/a	n/a	n/a	n/a	10	[0, 0, 0]	-999	PAL1	2	R1065J
1067.96	0.95	1138534	STUDY_ORIENT	n/a	1	1	VINE	MOUSE	VINE	MOUSE	10	[0, 0, 0]	-999	PAL1	2	R1065J
1068.91	5.034	1139484	STUDY_PAIR	n/a	1	1	VINE	MOUSE	VINE	MOUSE	10	[0, 0, 0]	-999	PAL1	2	R1065J
1073.944	0.966	1144518	STUDY_ORIENT	n/a	2	2	SHIELD	SHARK	SHIELD	SHARK	10	[0, 0, 0]	-999	PAL1	2	R1065J
1074.91	5.018	1145484	STUDY_PAIR	n/a	2	2	SHIELD	SHARK	SHIELD	SHARK	10	[0, 0, 0]	-999	PAL1	2	R1065J
1079.928	0.933	1150502	STUDY_ORIENT	n/a	3	5	SMOKE	PEARL	SMOKE	PEARL	10	[0, 0, 0]	-999	PAL1	2	R1065J
1080.861	5.018	1151435	STUDY_PAIR	n/a	3	5	SMOKE	PEARL	SMOKE	PEARL	10	[0, 0, 0]	-999	PAL1	2	R1065J
1085.879	0.967	1156453	STUDY_ORIENT	n/a	4	6	COIN	HEART	COIN	HEART	10	[0, 0, 0]	-999	PAL1	2	R1065J
1086.846	5.034	1157420	STUDY_PAIR	n/a	4	6	COIN	HEART	COIN	HEART	10	[0, 0, 0]	-999	PAL1	2	R1065J
1091.88	0.833	1162454	STUDY_ORIENT	n/a	5	3	ARK	BRANCH	ARK	BRANCH	10	[0, 0, 0]	-999	PAL1	2	R1065J
1092.713	5.034	1163287	STUDY_PAIR	n/a	5	3	ARK	BRANCH	ARK	BRANCH	10	[0, 0, 0]	-999	PAL1	2	R1065J
1097.747	0.9	1168321	STUDY_ORIENT	n/a	6	4	RAT	TRAIN	RAT	TRAIN	10	[0, 0, 0]	-999	PAL1	2	R1065J
1098.647	4.018	1169221	STUDY_PAIR	n/a	6	4	RAT	TRAIN	RAT	TRAIN	10	[0, 0, 0]	-999	PAL1	2	R1065J
1102.665	0.999	1173239	START	n/a	-999	-999	n/a	n/a	n/a	n/a	10	[-999, -999, -999]	-999	PAL1	2	R1065J
1103.664	0.017	1174238	MATH_START	n/a	-999	-999	n/a	n/a	n/a	n/a	10	[0, 0, 0]	-999	PAL1	2	R1065J
1103.681	2.717	1174255	PROB	2696	-999	-999	n/a	n/a	n/a	n/a	10	[5, 6, 3]	14	PAL1	2	R1065J
1106.398	1.968	1176972	PROB	1939	-999	-999	n/a	n/a	n/a	n/a	10	[1, 8, 5]	14	PAL1	2	R1065J
1108.366	2.149	1178941	PROB	2130	-999	-999	n/a	n/a	n/a	n/a	10	[7, 4, 9]	20	PAL1	2	R1065J
1110.515	1.669	1181090	PROB	1638	-999	-999	n/a	n/a	n/a	n/a	10	[3, 7, 2]	12	PAL1	2	R1065J
1112.184	3.017	1182759	PROB	2985	-999	-999	n/a	n/a	n/a	n/a	10	[6, 7, 8]	24	PAL1	2	R1065J
1115.201	3.766	1185776	PROB	3743	-999	-999	n/a	n/a	n/a	n/a	10	[4, 6, 4]	14	PAL1	2	R1065J
1118.967	1.667	1189542	PROB	1641	-999	-999	n/a	n/a	n/a	n/a	10	[9, 1, 4]	14	PAL1	2	R1065J
1120.634	2.182	1191209	PROB	2182	-999	-999	n/a	n/a	n/a	n/a	10	[8, 8, 4]	20	PAL1	2	R1065J
1122.816	0.018	1193391	STOP	n/a	-999	-999	n/a	n/a	n/a	n/a	10	[-999, -999, -999]	-999	PAL1	2	R1065J
1122.834	0.0	1193409	TEST_START	n/a	-999	-999	n/a	n/a	n/a	n/a	10	[0, 0, 0]	-999	PAL1	2	R1065J
1122.834	0.017	1193409	MATH_END	n/a	-999	-999	n/a	n/a	n/a	n/a	10	[0, 0, 0]	-999	PAL1	2	R1065J
1122.851	0.967	1193426	TEST_ORIENT	n/a	1	1	VINE	MOUSE	VINE	MOUSE	10	[0, 0, 0]	-999	PAL1	2	R1065J
1123.818	0.0	1194393	TEST_PROBE	n/a	1	1	VINE	MOUSE	VINE	MOUSE	10	[0, 0, 0]	-999	PAL1	2	R1065J
1123.818	1.157	1194393	REC_START	n/a	1	-999	n/a	MOUSE	n/a	n/a	10	[0, 0, 0]	-999	PAL1	2	R1065J
1124.975	3.86	1195550	REC_EVENT	1157	1	1	VINE	MOUSE	VINE	MOUSE	10	[0, 0, 0]	-999	PAL1	2	R1065J
1128.835	0.017	1199410	REC_END	n/a	1	-999	n/a	n/a	n/a	n/a	10	[0, 0, 0]	-999	PAL1	2	R1065J
1128.852	0.833	1199427	TEST_ORIENT	n/a	2	2	SHIELD	SHARK	SHIELD	SHARK	10	[0, 0, 0]	-999	PAL1	2	R1065J
1129.685	0.001	1200260	TEST_PROBE	n/a	2	2	SHIELD	SHARK	SHIELD	SHARK	10	[0, 0, 0]	-999	PAL1	2	R1065J
1129.686	0.975	1200261	REC_START	n/a	2	-999	n/a	SHARK	n/a	n/a	10	[0, 0, 0]	-999	PAL1	2	R1065J
1130.661	4.052	1201236	REC_EVENT	975	2	2	SHIELD	SHARK	SHIELD	SHARK	10	[0, 0, 0]	-999	PAL1	2	R1065J
1134.713	0.023	1205288	REC_END	n/a	2	-999	n/a	n/a	n/a	n/a	10	[0, 0, 0]	-999	PAL1	2	R1065J
1134.736	1.017	1205311	TEST_ORIENT	n/a	5	3	ARK	BRANCH	ARK	BRANCH	10	[0, 0, 0]	-999	PAL1	2	R1065J
1135.753	0.0	1206328	TEST_PROBE	n/a	5	3	ARK	BRANCH	ARK	BRANCH	10	[0, 0, 0]	-999	PAL1	2	R1065J
1135.753	1.159	1206328	REC_START	n/a	5	-999	n/a	BRANCH	n/a	n/a	10	[0, 0, 0]	-999	PAL1	2	R1065J
1136.912	3.858	1207487	REC_EVENT	1159	5	3	ARK	BRANCH	ARK	BRANCH	10	[0, 0, 0]	-999	PAL1	2	R1065J
1140.77	0.017	1211345	REC_END	n/a	5	-999	n/a	n/a	n/a	n/a	10	[0, 0, 0]	-999	PAL1	2	R1065J
1140.787	0.933	1211362	TEST_ORIENT	n/a	6	4	RAT	TRAIN	RAT	TRAIN	10	[0, 0, 0]	-999	PAL1	2	R1065J
1141.72	0.001	1212295	TEST_PROBE	n/a	6	4	RAT	TRAIN	RAT	TRAIN	10	[0, 0, 0]	-999	PAL1	2	R1065J
1141.721	1.197	1212296	REC_START	n/a	6	-999	n/a	TRAIN	n/a	n/a	10	[0, 0, 0]	-999	PAL1	2	R1065J
1142.918	3.819	1213493	REC_EVENT	1197	6	4	RAT	TRAIN	RAT	TRAIN	10	[0, 0, 0]	-999	PAL1	2	R1065J
1146.737	0.017	1217312	REC_END	n/a	6	-999	n/a	n/a	n/a	n/a	10	[0, 0, 0]	-999	PAL1	2	R1065J
1146.754	0.867	1217329	TEST_ORIENT	n/a	3	5	SMOKE	PEARL	SMOKE	PEARL	10	[0, 0, 0]	-999	PAL1	2	R1065J
1147.621	0.001	1218196	TEST_PROBE	n/a	3	5	SMOKE	PEARL	SMOKE	PEARL	10	[0, 0, 0]	-999	PAL1	2	R1065J
1147.622	1.356	1218197	REC_START	n/a	3	-999	n/a	PEARL	n/a	n/a	10	[0, 0, 0]	-999	PAL1	2	R1065J
1148.978	3.66	1219553	REC_EVENT	1356	3	5	SMOKE	PEARL	SMOKE	PEARL	10	[0, 0, 0]	-999	PAL1	2	R1065J
1152.638	0.017	1223213	REC_END	n/a	3	-999	n/a	n/a	n/a	n/a	10	[0, 0, 0]	-999	PAL1	2	R1065J
1152.655	0.85	1223230	TEST_ORIENT	n/a	4	6	COIN	HEART	COIN	HEART	10	[0, 0, 0]	-999	PAL1	2	R1065J
1153.505	0.001	1224080	TEST_PROBE	n/a	4	6	COIN	HEART	COIN	HEART	10	[0, 0, 0]	-999	PAL1	2	R1065J
1153.506	1.033	1224081	REC_START	n/a	4	-999	n/a	HEART	n/a	n/a	10	[0, 0, 0]	-999	PAL1	2	R1065J
1154.539	3.978	1225114	REC_EVENT	1033	4	6	COIN	HEART	COIN	HEART	10	[0, 0, 0]	-999	PAL1	2	R1065J
1158.517	1.482	1229092	REC_END	n/a	4	-999	n/a	n/a	n/a	n/a	10	[0, 0, 0]	-999	PAL1	2	R1065J
1159.999	10.442	1230574	ENCODING_START	n/a	0	-999	n/a	n/a	n/a	n/a	11	[0, 0, 0]	-999	PAL1	2	R1065J
1170.441	0.918	1241016	STUDY_ORIENT	n/a	1	5	PET	FENCE	PET	FENCE	11	[0, 0, 0]	-999	PAL1	2	R1065J
1171.359	5.034	1241934	STUDY_PAIR	n/a	1	5	PET	FENCE	PET	FENCE	11	[0, 0, 0]	-999	PAL1	2	R1065J
1176.393	0.934	1246968	STUDY_ORIENT	n/a	2	6	SHOE	ARM	ARM	SHOE	11	[0, 0, 0]	-999	PAL1	2	R1065J
1177.327	5.034	1247902	STUDY_PAIR	n/a	2	6	SHOE	ARM	ARM	SHOE	11	[0, 0, 0]	-999	PAL1	2	R1065J
1182.361	0.916	1252936	STUDY_ORIENT	n/a	3	3	CAT	WALL	WALL	CAT	11	[0, 0, 0]	-999	PAL1	2	R1065J
1183.277	5.018	1253852	STUDY_PAIR	n/a	3	3	CAT	WALL	WALL	CAT	11	[0, 0, 0]	-999	PAL1	2	R1065J
1188.295	0.833	1258870	STUDY_ORIENT	n/a	4	2	BANK	HAWK	BANK	HAWK	11	[0, 0, 0]	-999	PAL1	2	R1065J
1189.128	5.034	1259703	STUDY_PAIR	n/a	4	2	BANK	HAWK	BANK	HAWK	11	[0, 0, 0]	-999	PAL1	2	R1065J
1194.162	0.884	1264737	STUDY_ORIENT	n/a	5	1	SOUP	FISH	FISH	SOUP	11	[0, 0, 0]	-999	PAL1	2	R1065J
1195.046	5.034	1265621	STUDY_PAIR	n/a	5	1	SOUP	FISH	FISH	SOUP	11	[0, 0, 0]	-999	PAL1	2	R1065J
1200.08	0.799	1270655	STUDY_ORIENT	n/a	6	4	CAVE	MAIL	MAIL	CAVE	11	[0, 0, 0]	-999	PAL1	2	R1065J
1200.879	4.018	1271454	STUDY_PAIR	n/a	6	4	CAVE	MAIL	MAIL	CAVE	11	[0, 0, 0]	-999	PAL1	2	R1065J
1204.897	0.999	1275472	START	n/a	-999	-999	n/a	n/a	n/a	n/a	11	[-999, -999, -999]	-999	PAL1	2	R1065J
1205.896	0.017	1276472	MATH_START	n/a	-999	-999	n/a	n/a	n/a	n/a	11	[0, 0, 0]	-999	PAL1	2	R1065J
1205.913	2.667	1276489	PROB	2637	-999	-999	n/a	n/a	n/a	n/a	11	[9, 6, 2]	17	PAL1	2	R1065J
1208.58	1.785	1279156	PROB	1754	-999	-999	n/a	n/a	n/a	n/a	11	[4, 6, 4]	14	PAL1	2	R1065J
1210.365	1.8	1280941	PROB	1777	-999	-999	n/a	n/a	n/a	n/a	11	[8, 7, 8]	23	PAL1	2	R1065J
1212.165	1.799	1282741	PROB	1768	-999	-999	n/a	n/a	n/a	n/a	11	[1, 5, 8]	14	PAL1	2	R1065J
1213.964	2.335	1284540	PROB	2306	-999	-999	n/a	n/a	n/a	n/a	11	[7, 1, 3]	11	PAL1	2	R1065J
1216.299	3.266	1286875	PROB	3242	-999	-999	n/a	n/a	n/a	n/a	11	[7, 4, 8]	19	PAL1	2	R1065J
1219.565	2.117	1290141	PROB	2096	-999	-999	n/a	n/a	n/a	n/a	11	[2, 3, 3]	8	PAL1	2	R1065J
1221.682	2.518	1292258	PROB	2484	-999	-999	n/a	n/a	n/a	n/a	11	[6, 3, 6]	15	PAL1	2	R1065J
1224.2	1.966	1294776	PROB	1966	-999	-999	n/a	n/a	n/a	n/a	11	[9, 1, 8]	18	PAL1	2	R1065J
1226.166	0.018	1296742	STOP	n/a	-999	-999	n/a	n/a	n/a	n/a	11	[-999, -999, -999]	-999	PAL1	2	R1065J
1226.184	0.0	1296760	MATH_END	n/a	-999	-999	n/a	n/a	n/a	n/a	11	[0, 0, 0]	-999	PAL1	2	R1065J
1226.184	0.016	1296760	TEST_START	n/a	-999	-999	n/a	n/a	n/a	n/a	11	[0, 0, 0]	-999	PAL1	2	R1065J
1226.2	0.867	1296776	TEST_ORIENT	n/a	5	1	SOUP	FISH	FISH	SOUP	11	[0, 0, 0]	-999	PAL1	2	R1065J
1227.067	0.0	1297643	TEST_PROBE	n/a	5	1	SOUP	FISH	FISH	SOUP	11	[0, 0, 0]	-999	PAL1	2	R1065J
1227.067	1.067	1297643	REC_START	n/a	5	-999	n/a	FISH	n/a	n/a	11	[0, 0, 0]	-999	PAL1	2	R1065J
1228.134	3.95	1298710	REC_EVENT	1067	5	1	SOUP	FISH	FISH	SOUP	11	[0, 0, 0]	-999	PAL1	2	R1065J
1232.084	0.017	1302660	REC_END	n/a	5	-999	n/a	n/a	n/a	n/a	11	[0, 0, 0]	-999	PAL1	2	R1065J
1232.101	0.916	1302677	TEST_ORIENT	n/a	4	2	BANK	HAWK	BANK	HAWK	11	[0, 0, 0]	-999	PAL1	2	R1065J
1233.017	0.0	1303593	REC_START	n/a	4	-999	n/a	HAWK	n/a	n/a	11	[0, 0, 0]	-999	PAL1	2	R1065J
1233.017	1.877	1303593	TEST_PROBE	n/a	4	2	BANK	HAWK	BANK	HAWK	11	[0, 0, 0]	-999	PAL1	2	R1065J
1234.894	3.141	1305470	REC_EVENT	1877	4	2	BANK	HAWK	BANK	HAWK	11	[0, 0, 0]	-999	PAL1	2	R1065J
1238.035	0.017	1308611	REC_END	n/a	4	-999	n/a	n/a	n/a	n/a	11	[0, 0, 0]	-999	PAL1	2	R1065J
1238.052	1.0	1308628	TEST_ORIENT	n/a	3	3	CAT	WALL	WALL	CAT	11	[0, 0, 0]	-999	PAL1	2	R1065J
1239.052	0.001	1309628	TEST_PROBE	n/a	3	3	CAT	WALL	WALL	CAT	11	[0, 0, 0]	-999	PAL1	2	R1065J
1239.053	1.023	1309629	REC_START	n/a	3	-999	n/a	WALL	n/a	n/a	11	[0, 0, 0]	-999	PAL1	2	R1065J
1240.076	3.993	1310652	REC_EVENT	1023	3	3	CAT	WALL	WALL	CAT	11	[0, 0, 0]	-999	PAL1	2	R1065J
1244.069	0.017	1314645	REC_END	n/a	3	-999	n/a	n/a	n/a	n/a	11	[0, 0, 0]	-999	PAL1	2	R1065J
1244.086	0.984	1314662	TEST_ORIENT	n/a	6	4	CAVE	MAIL	MAIL	CAVE	11	[0, 0, 0]	-999	PAL1	2	R1065J
1245.07	0.0	1315646	TEST_PROBE	n/a	6	4	CAVE	MAIL	MAIL	CAVE	11	[0, 0, 0]	-999	PAL1	2	R1065J
1245.07	1.708	1315646	REC_START	n/a	6	-999	n/a	MAIL	n/a	n/a	11	[0, 0, 0]	-999	PAL1	2	R1065J
1246.778	3.309	1317354	REC_EVENT	1708	6	4	CAVE	MAIL	MAIL	CAVE	11	[0, 0, 0]	-999	PAL1	2	R1065J
1250.087	0.017	1320663	REC_END	n/a	6	-999	n/a	n/a	n/a	n/a	11	[0, 0, 0]	-999	PAL1	2	R1065J
1250.104	0.799	1320680	TEST_ORIENT	n/a	1	5	PET	FENCE	PET	FENCE	11	[0, 0, 0]	-999	PAL1	2	R1065J
1250.903	0.001	1321479	TEST_PROBE	n/a	1	5	PET	FENCE	PET	FENCE	11	[0, 0, 0]	-999	PAL1	2	R1065J
1250.904	1.52	1321480	REC_START	n/a	1	-999	n/a	FENCE	n/a	n/a	11	[0, 0, 0]	-999	PAL1	2	R1065J
1252.424	3.506	1323000	REC_EVENT	1520	1	5	PET	FENCE	PET	FENCE	11	[0, 0, 0]	-999	PAL1	2	R1065J
1255.93	0.024	1326506	REC_END	n/a	1	-999	n/a	n/a	n/a	n/a	11	[0, 0, 0]	-999	PAL1	2	R1065J
1255.954	1.0	1326530	TEST_ORIENT	n/a	2	6	SHOE	ARM	ARM	SHOE	11	[0, 0, 0]	-999	PAL1	2	R1065J
1256.954	0.0	1327530	TEST_PROBE	n/a	2	6	SHOE	ARM	ARM	SHOE	11	[0, 0, 0]	-999	PAL1	2	R1065J
1256.954	1.157	1327530	REC_START	n/a	2	-999	n/a	ARM	n/a	n/a	11	[0, 0, 0]	-999	PAL1	2	R1065J
1258.111	3.86	1328687	REC_EVENT	1157	2	6	SHOE	ARM	ARM	SHOE	11	[0, 0, 0]	-999	PAL1	2	R1065J
1261.971	1.402	1332547	REC_END	n/a	2	-999	n/a	n/a	n/a	n/a	11	[0, 0, 0]	-999	PAL1	2	R1065J
1263.373	10.45	1333949	ENCODING_START	n/a	0	-999	n/a	n/a	n/a	n/a	12	[0, 0, 0]	-999	PAL1	2	R1065J
1273.823	0.85	1344399	STUDY_ORIENT	n/a	1	1	MOOSE	CASH	CASH	MOOSE	12	[0, 0, 0]	-999	PAL1	2	R1065J
1274.673	5.034	1345249	STUDY_PAIR	n/a	1	1	MOOSE	CASH	CASH	MOOSE	12	[0, 0, 0]	-999	PAL1	2	R1065J
1279.707	0.834	1350283	STUDY_ORIENT	n/a	2	2	FAN	POLE	POLE	FAN	12	[0, 0, 0]	-999	PAL1	2	R1065J
1280.541	5.034	1351117	STUDY_PAIR	n/a	2	2	FAN	POLE	POLE	FAN	12	[0, 0, 0]	-999	PAL1	2	R1065J
1285.575	0.817	1356151	STUDY_ORIENT	n/a	3	3	SLUSH	FLEA	FLEA	SLUSH	12	[0, 0, 0]	-999	PAL1	2	R1065J
1286.392	5.017	1356968	STUDY_PAIR	n/a	3	3	SLUSH	FLEA	FLEA	SLUSH	12	[0, 0, 0]	-999	PAL1	2	R1065J
1291.409	0.817	1361985	STUDY_ORIENT	n/a	4	6	BOY	EAR	BOY	EAR	12	[0, 0, 0]	-999	PAL1	2	R1065J
1292.226	5.018	1362802	STUDY_PAIR	n/a	4	6	BOY	EAR	BOY	EAR	12	[0, 0, 0]	-999	PAL1	2	R1065J
1297.244	0.917	1367820	STUDY_ORIENT	n/a	5	5	LOCK	DEER	LOCK	DEER	12	[0, 0, 0]	-999	PAL1	2	R1065J
1298.161	5.034	1368737	STUDY_PAIR	n/a	5	5	LOCK	DEER	LOCK	DEER	12	[0, 0, 0]	-999	PAL1	2	R1065J
1303.195	0.867	1373772	STUDY_ORIENT	n/a	6	4	DESK	WHEEL	DESK	WHEEL	12	[0, 0, 0]	-999	PAL1	2	R1065J
1304.062	4.017	1374639	STUDY_PAIR	n/a	6	4	DESK	WHEEL	DESK	WHEEL	12	[0, 0, 0]	-999	PAL1	2	R1065J
1308.079	1.0	1378656	START	n/a	-999	-999	n/a	n/a	n/a	n/a	12	[-999, -999, -999]	-999	PAL1	2	R1065J
1309.079	0.017	1379656	MATH_START	n/a	-999	-999	n/a	n/a	n/a	n/a	12	[0, 0, 0]	-999	PAL1	2	R1065J
1309.096	2.283	1379673	PROB	2260	-999	-999	n/a	n/a	n/a	n/a	12	[2, 8, 4]	14	PAL1	2	R1065J
1311.379	4.166	1381956	PROB	4144	-999	-999	n/a	n/a	n/a	n/a	12	[7, 7, 8]	22	PAL1	2	R1065J
1315.545	2.134	1386122	PROB	2114	-999	-999	n/a	n/a	n/a	n/a	12	[5, 6, 7]	18	PAL1	2	R1065J
1317.679	1.784	1388256	PROB	1764	-999	-999	n/a	n/a	n/a	n/a	12	[3, 7, 7]	17	PAL1	2	R1065J
1319.463	1.835	1390040	PROB	1804	-999	-999	n/a	n/a	n/a	n/a	12	[6, 5, 6]	17	PAL1	2	R1065J
1321.298	1.733	1391875	PROB	1712	-999	-999	n/a	n/a	n/a	n/a	12	[1, 2, 6]	9	PAL1	2	R1065J
1323.031	2.017	1393608	PROB	1995	-999	-999	n/a	n/a	n/a	n/a	12	[6, 1, 3]	10	PAL1	2	R1065J
1325.048	1.849	1395625	PROB	1826	-999	-999	n/a	n/a	n/a	n/a	12	[7, 3, 9]	19	PAL1	2	R1065J
1326.897	2.482	1397474	PROB	2482	-999	-999	n/a	n/a	n/a	n/a	12	[7, 3, 7]	17	PAL1	2	R1065J
1329.379	0.003	1399956	STOP	n/a	-999	-999	n/a	n/a	n/a	n/a	12	[-999, -999, -999]	-999	PAL1	2	R1065J
1329.382	0.0	1399959	MATH_END	n/a	-999	-999	n/a	n/a	n/a	n/a	12	[0, 0, 0]	-999	PAL1	2	R1065J
1329.382	0.016	1399959	TEST_START	n/a	-999	-999	n/a	n/a	n/a	n/a	12	[0, 0, 0]	-999	PAL1	2	R1065J
1329.398	0.967	1399975	TEST_ORIENT	n/a	1	1	MOOSE	CASH	CASH	MOOSE	12	[0, 0, 0]	-999	PAL1	2	R1065J
1330.365	0.001	1400942	TEST_PROBE	n/a	1	1	MOOSE	CASH	CASH	MOOSE	12	[0, 0, 0]	-999	PAL1	2	R1065J
1330.366	2.63	1400943	REC_START	n/a	1	-999	n/a	CASH	n/a	n/a	12	[0, 0, 0]	-999	PAL1	2	R1065J
1332.996	2.381	1403573	REC_EVENT	2630	1	1	MOOSE	CASH	CASH	MOOSE	12	[0, 0, 0]	-999	PAL1	2	R1065J
1335.377	0.021	1405954	REC_END	n/a	1	-999	n/a	n/a	n/a	n/a	12	[0, 0, 0]	-999	PAL1	2	R1065J
1335.398	0.968	1405975	TEST_ORIENT	n/a	2	2	FAN	POLE	POLE	FAN	12	[0, 0, 0]	-999	PAL1	2	R1065J
1336.366	0.001	1406943	TEST_PROBE	n/a	2	2	FAN	POLE	POLE	FAN	12	[0, 0, 0]	-999	PAL1	2	R1065J
1336.367	1.076	1406944	REC_START	n/a	2	-999	n/a	POLE	n/a	n/a	12	[0, 0, 0]	-999	PAL1	2	R1065J
1337.443	3.935	1408020	REC_EVENT	1076	2	2	FAN	POLE	POLE	FAN	12	[0, 0, 0]	-999	PAL1	2	R1065J
1341.378	0.021	1411955	REC_END	n/a	2	-999	n/a	n/a	n/a	n/a	12	[0, 0, 0]	-999	PAL1	2	R1065J
1341.399	0.952	1411976	TEST_ORIENT	n/a	3	3	SLUSH	FLEA	FLEA	SLUSH	12	[0, 0, 0]	-999	PAL1	2	R1065J
1342.351	0.0	1412928	TEST_PROBE	n/a	3	3	SLUSH	FLEA	FLEA	SLUSH	12	[0, 0, 0]	-999	PAL1	2	R1065J
1342.351	1.243	1412928	REC_START	n/a	3	-999	n/a	FLEA	n/a	n/a	12	[0, 0, 0]	-999	PAL1	2	R1065J
1343.594	3.783	1414171	REC_EVENT	1243	3	3	SLUSH	FLEA	FLEA	SLUSH	12	[0, 0, 0]	-999	PAL1	2	R1065J
1347.377	0.023	1417954	REC_END	n/a	3	-999	n/a	n/a	n/a	n/a	12	[0, 0, 0]	-999	PAL1	2	R1065J
1347.4	0.818	1417977	TEST_ORIENT	n/a	6	4	DESK	WHEEL	DESK	WHEEL	12	[0, 0, 0]	-999	PAL1	2	R1065J
1348.218	0.001	1418795	TEST_PROBE	n/a	6	4	DESK	WHEEL	DESK	WHEEL	12	[0, 0, 0]	-999	PAL1	2	R1065J
1348.219	1.19	1418796	REC_START	n/a	6	-999	n/a	WHEEL	n/a	n/a	12	[0, 0, 0]	-999	PAL1	2	R1065J
1349.409	3.826	1419986	REC_EVENT	1190	6	4	DESK	WHEEL	DESK	WHEEL	12	[0, 0, 0]	-999	PAL1	2	R1065J
1353.235	0.017	1423812	REC_END	n/a	6	-999	n/a	n/a	n/a	n/a	12	[0, 0, 0]	-999	PAL1	2	R1065J
1353.252	0.867	1423829	TEST_ORIENT	n/a	5	5	LOCK	DEER	LOCK	DEER	12	[0, 0, 0]	-999	PAL1	2	R1065J
1354.119	0.001	1424696	TEST_PROBE	n/a	5	5	LOCK	DEER	LOCK	DEER	12	[0, 0, 0]	-999	PAL1	2	R1065J
1354.12	2.497	1424697	REC_START	n/a	5	-999	n/a	DEER	n/a	n/a	12	[0, 0, 0]	-999	PAL1	2	R1065J
1356.617	2.53	1427194	REC_EVENT	2497	5	5	LOCK	DEER	LOCK	DEER	12	[0, 0, 0]	-999	PAL1	2	R1065J
1359.147	0.023	1429724	REC_END	n/a	5	-999	n/a	n/a	n/a	n/a	12	[0, 0, 0]	-999	PAL1	2	R1065J
1359.17	1.017	1429747	TEST_ORIENT	n/a	4	6	BOY	EAR	BOY	EAR	12	[0, 0, 0]	-999	PAL1	2	R1065J
1360.187	0.0	1430764	TEST_PROBE	n/a	4	6	BOY	EAR	BOY	EAR	12	[0, 0, 0]	-999	PAL1	2	R1065J
1360.187	1.114	1430764	REC_START	n/a	4	-999	n/a	EAR	n/a	n/a	12	[0, 0, 0]	-999	PAL1	2	R1065J
1361.301	3.903	1431878	REC_EVENT	1114	4	6	BOY	EAR	BOY	EAR	12	[0, 0, 0]	-999	PAL1	2	R1065J
1365.204	1.974	1435781	REC_END	n/a	4	-999	n/a	n/a	n/a	n/a	12	[0, 0, 0]	-999	PAL1	2	R1065J
1367.178	10.443	1437755	ENCODING_START	n/a	0	-999	n/a	n/a	n/a	n/a	13	[0, 0, 0]	-999	PAL1	2	R1065J
1377.621	0.834	1448198	STUDY_ORIENT	n/a	1	5	WAND	VASE	WAND	VASE	13	[0, 0, 0]	-999	PAL1	2	R1065J
1378.455	5.034	1449032	STUDY_PAIR	n/a	1	5	WAND	VASE	WAND	VASE	13	[0, 0, 0]	-999	PAL1	2	R1065J
1383.489	0.818	1454066	STUDY_ORIENT	n/a	2	2	MOTH	SNAKE	SNAKE	MOTH	13	[0, 0, 0]	-999	PAL1	2	R1065J
1384.307	5.034	1454884	STUDY_PAIR	n/a	2	2	MOTH	SNAKE	SNAKE	MOTH	13	[0, 0, 0]	-999	PAL1	2	R1065J
1389.341	0.9	1459918	STUDY_ORIENT	n/a	3	1	BLOOM	HOOF	HOOF	BLOOM	13	[0, 0, 0]	-999	PAL1	2	R1065J
1390.241	5.034	1460818	STUDY_PAIR	n/a	3	1	BLOOM	HOOF	HOOF	BLOOM	13	[0, 0, 0]	-999	PAL1	2	R1065J
1395.275	0.883	1465852	STUDY_ORIENT	n/a	4	6	STRAW	HOUSE	HOUSE	STRAW	13	[0, 0, 0]	-999	PAL1	2	R1065J
1396.158	5.018	1466735	STUDY_PAIR	n/a	4	6	STRAW	HOUSE	HOUSE	STRAW	13	[0, 0, 0]	-999	PAL1	2	R1065J
1401.176	0.967	1471754	STUDY_ORIENT	n/a	5	3	PLANT	CLOTH	CLOTH	PLANT	13	[0, 0, 0]	-999	PAL1	2	R1065J
1402.143	5.034	1472721	STUDY_PAIR	n/a	5	3	PLANT	CLOTH	CLOTH	PLANT	13	[0, 0, 0]	-999	PAL1	2	R1065J
1407.177	0.933	1477755	STUDY_ORIENT	n/a	6	4	HAT	STAIR	STAIR	HAT	13	[0, 0, 0]	-999	PAL1	2	R1065J
1408.11	4.018	1478688	STUDY_PAIR	n/a	6	4	HAT	STAIR	STAIR	HAT	13	[0, 0, 0]	-999	PAL1	2	R1065J
1412.128	0.999	1482706	START	n/a	-999	-999	n/a	n/a	n/a	n/a	13	[-999, -999, -999]	-999	PAL1	2	R1065J
1413.127	0.017	1483705	MATH_START	n/a	-999	-999	n/a	n/a	n/a	n/a	13	[0, 0, 0]	-999	PAL1	2	R1065J
1413.144	2.483	1483722	PROB	2448	-999	-999	n/a	n/a	n/a	n/a	13	[4, 9, 3]	16	PAL1	2	R1065J
1415.627	1.784	1486205	PROB	1750	-999	-999	n/a	n/a	n/a	n/a	13	[3, 2, 6]	11	PAL1	2	R1065J
1417.411	1.767	1487989	PROB	1734	-999	-999	n/a	n/a	n/a	n/a	13	[4, 3, 5]	12	PAL1	2	R1065J
1419.178	1.984	1489756	PROB	1959	-999	-999	n/a	n/a	n/a	n/a	13	[8, 5, 2]	15	PAL1	2	R1065J
1421.162	1.95	1491740	PROB	1927	-999	-999	n/a	n/a	n/a	n/a	13	[7, 2, 5]	14	PAL1	2	R1065J
1423.112	1.683	1493690	PROB	1648	-999	-999	n/a	n/a	n/a	n/a	13	[5, 5, 3]	13	PAL1	2	R1065J
1424.795	2.268	1495373	PROB	2238	-999	-999	n/a	n/a	n/a	n/a	13	[8, 8, 4]	20	PAL1	2	R1065J
1427.063	2.0	1497641	PROB	1978	-999	-999	n/a	n/a	n/a	n/a	13	[9, 7, 3]	19	PAL1	2	R1065J
1429.063	1.883	1499641	PROB	1849	-999	-999	n/a	n/a	n/a	n/a	13	[8, 4, 8]	20	PAL1	2	R1065J
1430.946	2.029	1501524	PROB	2029	-999	-999	n/a	n/a	n/a	n/a	13	[4, 8, 8]	20	PAL1	2	R1065J
1432.975	0.004	1503553	STOP	n/a	-999	-999	n/a	n/a	n/a	n/a	13	[-999, -999, -999]	-999	PAL1	2	R1065J
1432.979	0.0	1503557	MATH_END	n/a	-999	-999	n/a	n/a	n/a	n/a	13	[0, 0, 0]	-999	PAL1	2	R1065J
1432.979	0.017	1503557	TEST_START	n/a	-999	-999	n/a	n/a	n/a	n/a	13	[0, 0, 0]	-999	PAL1	2	R1065J
1432.996	0.817	1503574	TEST_ORIENT	n/a	3	1	BLOOM	HOOF	HOOF	BLOOM	13	[0, 0, 0]	-999	PAL1	2	R1065J
1433.813	0.0	1504391	TEST_PROBE	n/a	3	1	BLOOM	HOOF	HOOF	BLOOM	13	[0, 0, 0]	-999	PAL1	2	R1065J
1433.813	1.219	1504391	REC_START	n/a	3	-999	n/a	HOOF	n/a	n/a	13	[0, 0, 0]	-999	PAL1	2	R1065J
1435.032	3.798	1505610	REC_EVENT	1219	3	1	BLOOM	HOOF	HOOF	BLOOM	13	[0, 0, 0]	-999	PAL1	2	R1065J
1438.83	0.017	1509408	REC_END	n/a	3	-999	n/a	n/a	n/a	n/a	13	[0, 0, 0]	-999	PAL1	2	R1065J
1438.847	0.883	1509425	TEST_ORIENT	n/a	2	2	MOTH	SNAKE	SNAKE	MOTH	13	[0, 0, 0]	-999	PAL1	2	R1065J
1439.73	0.001	1510308	TEST_PROBE	n/a	2	2	MOTH	SNAKE	SNAKE	MOTH	13	[0, 0, 0]	-999	PAL1	2	R1065J
1439.731	1.2	1510309	REC_START	n/a	2	-999	n/a	SNAKE	n/a	n/a	13	[0, 0, 0]	-999	PAL1	2	R1065J
1440.931	3.828	1511509	REC_EVENT	1200	2	2	MOTH	SNAKE	SNAKE	MOTH	13	[0, 0, 0]	-999	PAL1	2	R1065J
1444.759	0.022	1515337	REC_END	n/a	2	-999	n/a	n/a	n/a	n/a	13	[0, 0, 0]	-999	PAL1	2	R1065J
1444.781	0.917	1515359	TEST_ORIENT	n/a	5	3	PLANT	CLOTH	CLOTH	PLANT	13	[0, 0, 0]	-999	PAL1	2	R1065J
1445.698	0.001	1516276	TEST_PROBE	n/a	5	3	PLANT	CLOTH	CLOTH	PLANT	13	[0, 0, 0]	-999	PAL1	2	R1065J
1445.699	2.415	1516277	REC_START	n/a	5	-999	n/a	CLOTH	n/a	n/a	13	[0, 0, 0]	-999	PAL1	2	R1065J
1448.114	2.601	1518692	REC_EVENT	2415	5	3	PLANT	CLOTH	CLOTH	PLANT	13	[0, 0, 0]	-999	PAL1	2	R1065J
1450.715	0.017	1521293	REC_END	n/a	5	-999	n/a	n/a	n/a	n/a	13	[0, 0, 0]	-999	PAL1	2	R1065J
1450.732	1.017	1521310	TEST_ORIENT	n/a	6	4	HAT	STAIR	STAIR	HAT	13	[0, 0, 0]	-999	PAL1	2	R1065J
1451.749	0.001	1522327	TEST_PROBE	n/a	6	4	HAT	STAIR	STAIR	HAT	13	[0, 0, 0]	-999	PAL1	2	R1065J
1451.75	1.247	1522328	REC_START	n/a	6	-999	n/a	STAIR	n/a	n/a	13	[0, 0, 0]	-999	PAL1	2	R1065J
1452.997	3.779	1523575	REC_EVENT	1247	6	4	HAT	STAIR	STAIR	HAT	13	[0, 0, 0]	-999	PAL1	2	R1065J
1456.776	0.024	1527354	REC_END	n/a	6	-999	n/a	n/a	n/a	n/a	13	[0, 0, 0]	-999	PAL1	2	R1065J
1456.8	0.966	1527378	TEST_ORIENT	n/a	1	5	WAND	VASE	WAND	VASE	13	[0, 0, 0]	-999	PAL1	2	R1065J
1457.766	0.001	1528344	TEST_PROBE	n/a	1	5	WAND	VASE	WAND	VASE	13	[0, 0, 0]	-999	PAL1	2	R1065J
1457.767	1.5	1528345	REC_START	n/a	1	-999	n/a	VASE	n/a	n/a	13	[0, 0, 0]	-999	PAL1	2	R1065J
1459.267	3.511	1529845	REC_EVENT	1500	1	5	WAND	VASE	WAND	VASE	13	[0, 0, 0]	-999	PAL1	2	R1065J
1462.778	0.022	1533356	REC_END	n/a	1	-999	n/a	n/a	n/a	n/a	13	[0, 0, 0]	-999	PAL1	2	R1065J
1462.8	0.901	1533378	TEST_ORIENT	n/a	4	6	STRAW	HOUSE	HOUSE	STRAW	13	[0, 0, 0]	-999	PAL1	2	R1065J
1463.701	0.0	1534279	TEST_PROBE	n/a	4	6	STRAW	HOUSE	HOUSE	STRAW	13	[0, 0, 0]	-999	PAL1	2	R1065J
1463.701	2.364	1534279	REC_START	n/a	4	-999	n/a	HOUSE	n/a	n/a	13	[0, 0, 0]	-999	PAL1	2	R1065J
1466.065	2.653	1536643	REC_EVENT	2364	4	6	STRAW	HOUSE	HOUSE	STRAW	13	[0, 0, 0]	-999	PAL1	2	R1065J
1468.718	1.784	1539296	REC_END	n/a	4	-999	n/a	n/a	n/a	n/a	13	[0, 0, 0]	-999	PAL1	2	R1065J
1470.502	10.451	1541080	ENCODING_START	n/a	0	-999	n/a	n/a	n/a	n/a	14	[0, 0, 0]	-999	PAL1	2	R1065J
1480.953	0.967	1551531	STUDY_ORIENT	n/a	1	3	PALM	THREAD	PALM	THREAD	14	[0, 0, 0]	-999	PAL1	2	R1065J
1481.92	5.034	1552498	STUDY_PAIR	n/a	1	3	PALM	THREAD	PALM	THREAD	14	[0, 0, 0]	-999	PAL1	2	R1065J
1486.954	0.817	1557532	STUDY_ORIENT	n/a	2	2	CHAIR	BALL	BALL	CHAIR	14	[0, 0, 0]	-999	PAL1	2	R1065J
1487.771	5.034	1558349	STUDY_PAIR	n/a	2	2	CHAIR	BALL	BALL	CHAIR	14	[0, 0, 0]	-999	PAL1	2	R1065J
1492.805	0.983	1563383	STUDY_ORIENT	n/a	3	5	MUG	CORN	MUG	CORN	14	[0, 0, 0]	-999	PAL1	2	R1065J
1493.788	5.018	1564366	STUDY_PAIR	n/a	3	5	MUG	CORN	MUG	CORN	14	[0, 0, 0]	-999	PAL1	2	R1065J
1498.806	0.817	1569385	STUDY_ORIENT	n/a	4	4	DRESS	TANK	TANK	DRESS	14	[0, 0, 0]	-999	PAL1	2	R1065J
1499.623	5.033	1570202	STUDY_PAIR	n/a	4	4	DRESS	TANK	TANK	DRESS	14	[0, 0, 0]	-999	PAL1	2	R1065J
1504.656	1.001	1575235	STUDY_ORIENT	n/a	5	1	VEST	PIE	PIE	VEST	14	[0, 0, 0]	-999	PAL1	2	R1065J
1505.657	5.034	1576236	STUDY_PAIR	n/a	5	1	VEST	PIE	PIE	VEST	14	[0, 0, 0]	-999	PAL1	2	R1065J
1510.691	1.0	1581270	STUDY_ORIENT	n/a	6	6	SWORD	RAKE	RAKE	SWORD	14	[0, 0, 0]	-999	PAL1	2	R1065J
1511.691	4.018	1582270	STUDY_PAIR	n/a	6	6	SWORD	RAKE	RAKE	SWORD	14	[0, 0, 0]	-999	PAL1	2	R1065J
1515.709	0.999	1586288	START	n/a	-999	-999	n/a	n/a	n/a	n/a	14	[-999, -999, -999]	-999	PAL1	2	R1065J
1516.708	0.017	1587287	MATH_START	n/a	-999	-999	n/a	n/a	n/a	n/a	14	[0, 0, 0]	-999	PAL1	2	R1065J
1516.725	2.767	1587304	PROB	2736	-999	-999	n/a	n/a	n/a	n/a	14	[7, 2, 3]	12	PAL1	2	R1065J
1519.492	1.818	1590071	PROB	1786	-999	-999	n/a	n/a	n/a	n/a	14	[3, 3, 2]	8	PAL1	2	R1065J
1521.31	1.8	1591889	PROB	1776	-999	-999	n/a	n/a	n/a	n/a	14	[7, 8, 5]	20	PAL1	2	R1065J
1523.11	1.967	1593689	PROB	1936	-999	-999	n/a	n/a	n/a	n/a	14	[4, 3, 7]	14	PAL1	2	R1065J
1525.077	2.4	1595656	PROB	2368	-999	-999	n/a	n/a	n/a	n/a	14	[5, 9, 9]	23	PAL1	2	R1065J
1527.477	1.834	1598056	PROB	1809	-999	-999	n/a	n/a	n/a	n/a	14	[4, 1, 9]	14	PAL1	2	R1065J
1529.311	2.017	1599890	PROB	1983	-999	-999	n/a	n/a	n/a	n/a	14	[9, 4, 9]	22	PAL1	2	R1065J
1531.328	3.383	1601907	PROB	3357	-999	-999	n/a	n/a	n/a	n/a	14	[9, 2, 9]	20	PAL1	2	R1065J
1534.711	3.046	1605290	PROB	3046	-999	-999	n/a	n/a	n/a	n/a	14	[6, 9, 8]	23	PAL1	2	R1065J
1537.757	0.004	1608336	STOP	n/a	-999	-999	n/a	n/a	n/a	n/a	14	[-999, -999, -999]	-999	PAL1	2	R1065J
1537.761	0.0	1608340	MATH_END	n/a	-999	-999	n/a	n/a	n/a	n/a	14	[0, 0, 0]	-999	PAL1	2	R1065J
1537.761	0.017	1608340	TEST_START	n/a	-999	-999	n/a	n/a	n/a	n/a	14	[0, 0, 0]	-999	PAL1	2	R1065J
1537.778	0.917	1608357	TEST_ORIENT	n/a	5	1	VEST	PIE	PIE	VEST	14	[0, 0, 0]	-999	PAL1	2	R1065J
1538.695	0.0	1609274	TEST_PROBE	n/a	5	1	VEST	PIE	PIE	VEST	14	[0, 0, 0]	-999	PAL1	2	R1065J
1538.695	1.243	1609274	REC_START	n/a	5	-999	n/a	PIE	n/a	n/a	14	[0, 0, 0]	-999	PAL1	2	R1065J
1539.938	3.774	1610517	REC_EVENT	1243	5	1	VEST	PIE	PIE	VEST	14	[0, 0, 0]	-999	PAL1	2	R1065J
1543.712	0.017	1614291	REC_END	n/a	5	-999	n/a	n/a	n/a	n/a	14	[0, 0, 0]	-999	PAL1	2	R1065J
1543.729	0.867	1614308	TEST_ORIENT	n/a	2	2	CHAIR	BALL	BALL	CHAIR	14	[0, 0, 0]	-999	PAL1	2	R1065J
1544.596	0.0	1615175	TEST_PROBE	n/a	2	2	CHAIR	BALL	BALL	CHAIR	14	[0, 0, 0]	-999	PAL1	2	R1065J
1544.596	1.236	1615175	REC_START	n/a	2	-999	n/a	BALL	n/a	n/a	14	[0, 0, 0]	-999	PAL1	2	R1065J
1545.832	3.781	1616411	REC_EVENT	1236	2	2	CHAIR	BALL	BALL	CHAIR	14	[0, 0, 0]	-999	PAL1	2	R1065J
1549.613	0.017	1620192	REC_END	n/a	2	-999	n/a	n/a	n/a	n/a	14	[0, 0, 0]	-999	PAL1	2	R1065J
1549.63	0.883	1620209	TEST_ORIENT	n/a	1	3	PALM	THREAD	PALM	THREAD	14	[0, 0, 0]	-999	PAL1	2	R1065J
1550.513	0.001	1621092	TEST_PROBE	n/a	1	3	PALM	THREAD	PALM	THREAD	14	[0, 0, 0]	-999	PAL1	2	R1065J
1550.514	0.959	1621093	REC_START	n/a	1	-999	n/a	THREAD	n/a	n/a	14	[0, 0, 0]	-999	PAL1	2	R1065J
1551.473	4.057	1622052	REC_EVENT	959	1	3	PALM	THREAD	PALM	THREAD	14	[0, 0, 0]	-999	PAL1	2	R1065J
1555.53	0.017	1626109	REC_END	n/a	1	-999	n/a	n/a	n/a	n/a	14	[0, 0, 0]	-999	PAL1	2	R1065J
1555.547	1.0	1626126	TEST_ORIENT	n/a	4	4	DRESS	TANK	TANK	DRESS	14	[0, 0, 0]	-999	PAL1	2	R1065J
1556.547	0.001	1627126	TEST_PROBE	n/a	4	4	DRESS	TANK	TANK	DRESS	14	[0, 0, 0]	-999	PAL1	2	R1065J
1556.548	1.078	1627127	REC_START	n/a	4	-999	n/a	TANK	n/a	n/a	14	[0, 0, 0]	-999	PAL1	2	R1065J
1557.626	3.932	1628205	REC_EVENT	1078	4	4	DRESS	TANK	TANK	DRESS	14	[0, 0, 0]	-999	PAL1	2	R1065J
1561.558	0.024	1632137	REC_END	n/a	4	-999	n/a	n/a	n/a	n/a	14	[0, 0, 0]	-999	PAL1	2	R1065J
1561.582	0.866	1632161	TEST_ORIENT	n/a	3	5	MUG	CORN	MUG	CORN	14	[0, 0, 0]	-999	PAL1	2	R1065J
1562.448	0.001	1633027	TEST_PROBE	n/a	3	5	MUG	CORN	MUG	CORN	14	[0, 0, 0]	-999	PAL1	2	R1065J
1562.449	1.046	1633028	REC_START	n/a	3	-999	n/a	CORN	n/a	n/a	14	[0, 0, 0]	-999	PAL1	2	R1065J
1563.495	3.97	1634074	REC_EVENT	1046	3	5	MUG	CORN	MUG	CORN	14	[0, 0, 0]	-999	PAL1	2	R1065J
1567.465	0.017	1638044	REC_END	n/a	3	-999	n/a	n/a	n/a	n/a	14	[0, 0, 0]	-999	PAL1	2	R1065J
1567.482	0.934	1638061	TEST_ORIENT	n/a	6	6	SWORD	RAKE	RAKE	SWORD	14	[0, 0, 0]	-999	PAL1	2	R1065J
1568.416	0.0	1638995	TEST_PROBE	n/a	6	6	SWORD	RAKE	RAKE	SWORD	14	[0, 0, 0]	-999	PAL1	2	R1065J
1568.416	1.355	1638995	REC_START	n/a	6	-999	n/a	RAKE	n/a	n/a	14	[0, 0, 0]	-999	PAL1	2	R1065J
1569.771	3.662	1640350	REC_EVENT	1355	6	6	SWORD	RAKE	RAKE	SWORD	14	[0, 0, 0]	-999	PAL1	2	R1065J
1573.433	1.507	1644012	REC_END	n/a	6	-999	n/a	n/a	n/a	n/a	14	[0, 0, 0]	-999	PAL1	2	R1065J
1574.94	10.446	1645519	ENCODING_START	n/a	0	-999	n/a	n/a	n/a	n/a	15	[0, 0, 0]	-999	PAL1	2	R1065J
1585.386	0.867	1655965	STUDY_ORIENT	n/a	1	5	FOX	CAPE	FOX	CAPE	15	[0, 0, 0]	-999	PAL1	2	R1065J
1586.253	5.034	1656832	STUDY_PAIR	n/a	1	5	FOX	CAPE	FOX	CAPE	15	[0, 0, 0]	-999	PAL1	2	R1065J
1591.287	1.0	1661866	STUDY_ORIENT	n/a	2	6	FRUIT	INK	INK	FRUIT	15	[0, 0, 0]	-999	PAL1	2	R1065J
1592.287	5.034	1662866	STUDY_PAIR	n/a	2	6	FRUIT	INK	INK	FRUIT	15	[0, 0, 0]	-999	PAL1	2	R1065J
1597.321	0.85	1667901	STUDY_ORIENT	n/a	3	1	SINK	STEM	STEM	SINK	15	[0, 0, 0]	-999	PAL1	2	R1065J
1598.171	5.017	1668751	STUDY_PAIR	n/a	3	1	SINK	STEM	STEM	SINK	15	[0, 0, 0]	-999	PAL1	2	R1065J
1603.188	0.851	1673768	STUDY_ORIENT	n/a	4	2	BIRD	FLUTE	BIRD	FLUTE	15	[0, 0, 0]	-999	PAL1	2	R1065J
1604.039	5.034	1674619	STUDY_PAIR	n/a	4	2	BIRD	FLUTE	BIRD	FLUTE	15	[0, 0, 0]	-999	PAL1	2	R1065J
1609.073	0.832	1679653	STUDY_ORIENT	n/a	5	3	PHONE	SHEEP	SHEEP	PHONE	15	[0, 0, 0]	-999	PAL1	2	R1065J
1609.905	5.034	1680485	STUDY_PAIR	n/a	5	3	PHONE	SHEEP	SHEEP	PHONE	15	[0, 0, 0]	-999	PAL1	2	R1065J
1614.939	0.967	1685519	STUDY_ORIENT	n/a	6	4	FLOOR	BOWL	BOWL	FLOOR	15	[0, 0, 0]	-999	PAL1	2	R1065J
1615.906	4.018	1686486	STUDY_PAIR	n/a	6	4	FLOOR	BOWL	BOWL	FLOOR	15	[0, 0, 0]	-999	PAL1	2	R1065J
1619.924	0.999	1690504	START	n/a	-999	-999	n/a	n/a	n/a	n/a	15	[-999, -999, -999]	-999	PAL1	2	R1065J
1620.923	0.017	1691503	MATH_START	n/a	-999	-999	n/a	n/a	n/a	n/a	15	[0, 0, 0]	-999	PAL1	2	R1065J
1620.94	3.951	1691520	PROB	3918	-999	-999	n/a	n/a	n/a	n/a	15	[3, 5, 4]	12	PAL1	2	R1065J
1624.891	2.117	1695471	PROB	2087	-999	-999	n/a	n/a	n/a	n/a	15	[6, 1, 8]	15	PAL1	2	R1065J
1627.008	2.983	1697588	PROB	2954	-999	-999	n/a	n/a	n/a	n/a	15	[5, 8, 4]	17	PAL1	2	R1065J
1629.991	1.784	1700571	PROB	1755	-999	-999	n/a	n/a	n/a	n/a	15	[4, 2, 7]	13	PAL1	2	R1065J
1631.775	2.485	1702355	PROB	2452	-999	-999	n/a	n/a	n/a	n/a	15	[5, 8, 6]	19	PAL1	2	R1065J
1634.26	1.582	1704840	PROB	1558	-999	-999	n/a	n/a	n/a	n/a	15	[2, 4, 7]	13	PAL1	2	R1065J
1635.842	1.984	1706422	PROB	1960	-999	-999	n/a	n/a	n/a	n/a	15	[8, 3, 8]	19	PAL1	2	R1065J
1637.826	2.249	1708406	PROB	2249	-999	-999	n/a	n/a	n/a	n/a	15	[8, 6, 3]	17	PAL1	2	R1065J
1640.075	0.002	1710655	STOP	n/a	-999	-999	n/a	n/a	n/a	n/a	15	[-999, -999, -999]	-999	PAL1	2	R1065J
1640.077	0.0	1710657	MATH_END	n/a	-999	-999	n/a	n/a	n/a	n/a	15	[0, 0, 0]	-999	PAL1	2	R1065J
1640.077	0.017	1710657	TEST_START	n/a	-999	-999	n/a	n/a	n/a	n/a	15	[0, 0, 0]	-999	PAL1	2	R1065J
1640.094	0.932	1710674	TEST_ORIENT	n/a	3	1	SINK	STEM	STEM	SINK	15	[0, 0, 0]	-999	PAL1	2	R1065J
1641.026	0.001	1711606	TEST_PROBE	n/a	3	1	SINK	STEM	STEM	SINK	15	[0, 0, 0]	-999	PAL1	2	R1065J
1641.027	1.811	1711607	REC_START	n/a	3	-999	n/a	STEM	n/a	n/a	15	[0, 0, 0]	-999	PAL1	2	R1065J
1642.838	3.189	1713418	REC_EVENT	1811	3	1	SINK	STEM	STEM	SINK	15	[0, 0, 0]	-999	PAL1	2	R1065J
1646.027	0.018	1716607	REC_END	n/a	3	-999	n/a	n/a	n/a	n/a	15	[0, 0, 0]	-999	PAL1	2	R1065J
1646.045	1.017	1716625	TEST_ORIENT	n/a	4	2	BIRD	FLUTE	BIRD	FLUTE	15	[0, 0, 0]	-999	PAL1	2	R1065J
1647.062	0.0	1717642	TEST_PROBE	n/a	4	2	BIRD	FLUTE	BIRD	FLUTE	15	[0, 0, 0]	-999	PAL1	2	R1065J
1647.062	0.982	1717642	REC_START	n/a	4	-999	n/a	FLUTE	n/a	n/a	15	[0, 0, 0]	-999	PAL1	2	R1065J
1648.044	4.035	1718624	REC_EVENT	982	4	2	BIRD	FLUTE	BIRD	FLUTE	15	[0, 0, 0]	-999	PAL1	2	R1065J
1652.079	0.017	1722659	REC_END	n/a	4	-999	n/a	n/a	n/a	n/a	15	[0, 0, 0]	-999	PAL1	2	R1065J
1652.096	0.95	1722676	TEST_ORIENT	n/a	5	3	PHONE	SHEEP	SHEEP	PHONE	15	[0, 0, 0]	-999	PAL1	2	R1065J
1653.046	0.0	1723626	REC_START	n/a	5	-999	n/a	SHEEP	n/a	n/a	15	[0, 0, 0]	-999	PAL1	2	R1065J
1653.046	1.066	1723626	TEST_PROBE	n/a	5	3	PHONE	SHEEP	SHEEP	PHONE	15	[0, 0, 0]	-999	PAL1	2	R1065J
1654.112	3.951	1724692	REC_EVENT	1066	5	3	PHONE	SHEEP	SHEEP	PHONE	15	[0, 0, 0]	-999	PAL1	2	R1065J
1658.063	0.017	1728643	REC_END	n/a	5	-999	n/a	n/a	n/a	n/a	15	[0, 0, 0]	-999	PAL1	2	R1065J
1658.08	0.967	1728660	TEST_ORIENT	n/a	6	4	FLOOR	BOWL	BOWL	FLOOR	15	[0, 0, 0]	-999	PAL1	2	R1065J
1659.047	0.0	1729627	TEST_PROBE	n/a	6	4	FLOOR	BOWL	BOWL	FLOOR	15	[0, 0, 0]	-999	PAL1	2	R1065J
1659.047	1.572	1729627	REC_START	n/a	6	-999	n/a	BOWL	n/a	n/a	15	[0, 0, 0]	-999	PAL1	2	R1065J
1660.619	3.456	1731199	REC_EVENT	1572	6	4	FLOOR	BOWL	BOWL	FLOOR	15	[0, 0, 0]	-999	PAL1	2	R1065J
1664.075	0.022	1734655	REC_END	n/a	6	-999	n/a	n/a	n/a	n/a	15	[0, 0, 0]	-999	PAL1	2	R1065J
1664.097	0.833	1734677	TEST_ORIENT	n/a	1	5	FOX	CAPE	FOX	CAPE	15	[0, 0, 0]	-999	PAL1	2	R1065J
1664.93	0.0	1735510	TEST_PROBE	n/a	1	5	FOX	CAPE	FOX	CAPE	15	[0, 0, 0]	-999	PAL1	2	R1065J
1664.93	1.547	1735510	REC_START	n/a	1	-999	n/a	CAPE	n/a	n/a	15	[0, 0, 0]	-999	PAL1	2	R1065J
1666.477	3.48	1737057	REC_EVENT	1547	1	5	FOX	CAPE	FOX	CAPE	15	[0, 0, 0]	-999	PAL1	2	R1065J
1669.957	0.024	1740537	REC_END	n/a	1	-999	n/a	n/a	n/a	n/a	15	[0, 0, 0]	-999	PAL1	2	R1065J
1669.981	0.983	1740561	TEST_ORIENT	n/a	2	6	FRUIT	INK	INK	FRUIT	15	[0, 0, 0]	-999	PAL1	2	R1065J
1670.964	0.001	1741544	TEST_PROBE	n/a	2	6	FRUIT	INK	INK	FRUIT	15	[0, 0, 0]	-999	PAL1	2	R1065J
1670.965	0.966	1741545	REC_START	n/a	2	-999	n/a	INK	n/a	n/a	15	[0, 0, 0]	-999	PAL1	2	R1065J
1671.931	4.06	1742511	REC_EVENT	966	2	6	FRUIT	INK	INK	FRUIT	15	[0, 0, 0]	-999	PAL1	2	R1065J
1675.991	1.618	1746571	REC_END	n/a	2	-999	n/a	n/a	n/a	n/a	15	[0, 0, 0]	-999	PAL1	2	R1065J
1677.609	10.442	1748189	ENCODING_START	n/a	0	-999	n/a	n/a	n/a	n/a	16	[0, 0, 0]	-999	PAL1	2	R1065J
1688.051	1.0	1758631	STUDY_ORIENT	n/a	1	3	GLOVE	LEAF	GLOVE	LEAF	16	[0, 0, 0]	-999	PAL1	2	R1065J
1689.051	5.034	1759631	STUDY_PAIR	n/a	1	3	GLOVE	LEAF	GLOVE	LEAF	16	[0, 0, 0]	-999	PAL1	2	R1065J
1694.085	1.017	1764666	STUDY_ORIENT	n/a	2	6	CLOUD	STEAK	STEAK	CLOUD	16	[0, 0, 0]	-999	PAL1	2	R1065J
1695.102	5.034	1765683	STUDY_PAIR	n/a	2	6	CLOUD	STEAK	STEAK	CLOUD	16	[0, 0, 0]	-999	PAL1	2	R1065J
1700.136	0.9	1770717	STUDY_ORIENT	n/a	3	1	JUDGE	SLIME	SLIME	JUDGE	16	[0, 0, 0]	-999	PAL1	2	R1065J
1701.036	5.034	1771617	STUDY_PAIR	n/a	3	1	JUDGE	SLIME	SLIME	JUDGE	16	[0, 0, 0]	-999	PAL1	2	R1065J
1706.07	0.984	1776651	STUDY_ORIENT	n/a	4	4	PARK	CLIFF	CLIFF	PARK	16	[0, 0, 0]	-999	PAL1	2	R1065J
1707.054	5.034	1777635	STUDY_PAIR	n/a	4	4	PARK	CLIFF	CLIFF	PARK	16	[0, 0, 0]	-999	PAL1	2	R1065J
1712.088	0.799	1782669	STUDY_ORIENT	n/a	5	5	PASTE	TOAD	PASTE	TOAD	16	[0, 0, 0]	-999	PAL1	2	R1065J
1712.887	5.034	1783468	STUDY_PAIR	n/a	5	5	PASTE	TOAD	PASTE	TOAD	16	[0, 0, 0]	-999	PAL1	2	R1065J
1717.921	0.9	1788502	STUDY_ORIENT	n/a	6	2	DART	BLUSH	DART	BLUSH	16	[0, 0, 0]	-999	PAL1	2	R1065J
1718.821	4.018	1789402	STUDY_PAIR	n/a	6	2	DART	BLUSH	DART	BLUSH	16	[0, 0, 0]	-999	PAL1	2	R1065J
1722.839	0.999	1793420	START	n/a	-999	-999	n/a	n/a	n/a	n/a	16	[-999, -999, -999]	-999	PAL1	2	R1065J
1723.838	0.017	1794419	MATH_START	n/a	-999	-999	n/a	n/a	n/a	n/a	16	[0, 0, 0]	-999	PAL1	2	R1065J
1723.855	3.001	1794436	PROB	2977	-999	-999	n/a	n/a	n/a	n/a	16	[1, 8, 7]	16	PAL1	2	R1065J
1726.856	1.867	1797437	PROB	1848	-999	-999	n/a	n/a	n/a	n/a	16	[4, 2, 7]	13	PAL1	2	R1065J
1728.723	1.601	1799304	PROB	1582	-999	-999	n/a	n/a	n/a	n/a	16	[3, 3, 5]	11	PAL1	2	R1065J
1730.324	1.85	1800905	PROB	1821	-999	-999	n/a	n/a	n/a	n/a	16	[7, 1, 8]	16	PAL1	2	R1065J
1732.174	1.867	1802755	PROB	1841	-999	-999	n/a	n/a	n/a	n/a	16	[4, 8, 4]	16	PAL1	2	R1065J
1734.041	2.134	1804622	PROB	2111	-999	-999	n/a	n/a	n/a	n/a	16	[9, 6, 9]	24	PAL1	2	R1065J
1736.175	2.133	1806756	PROB	2113	-999	-999	n/a	n/a	n/a	n/a	16	[4, 4, 3]	11	PAL1	2	R1065J
1738.308	2.951	1808889	PROB	2916	-999	-999	n/a	n/a	n/a	n/a	16	[8, 4, 9]	21	PAL1	2	R1065J
1741.259	1.837	1811840	PROB	1837	-999	-999	n/a	n/a	n/a	n/a	16	[9, 1, 8]	18	PAL1	2	R1065J
1743.096	0.013	1813677	STOP	n/a	-999	-999	n/a	n/a	n/a	n/a	16	[-999, -999, -999]	-999	PAL1	2	R1065J
1743.109	0.0	1813690	MATH_END	n/a	-999	-999	n/a	n/a	n/a	n/a	16	[0, 0, 0]	-999	PAL1	2	R1065J
1743.109	0.016	1813690	TEST_START	n/a	-999	-999	n/a	n/a	n/a	n/a	16	[0, 0, 0]	-999	PAL1	2	R1065J
1743.125	1.001	1813706	TEST_ORIENT	n/a	3	1	JUDGE	SLIME	SLIME	JUDGE	16	[0, 0, 0]	-999	PAL1	2	R1065J
1744.126	0.0	1814707	REC_START	n/a	3	-999	n/a	SLIME	n/a	n/a	16	[0, 0, 0]	-999	PAL1	2	R1065J
1744.126	1.126	1814707	TEST_PROBE	n/a	3	1	JUDGE	SLIME	SLIME	JUDGE	16	[0, 0, 0]	-999	PAL1	2	R1065J
1745.252	3.891	1815833	REC_EVENT	1126	3	1	JUDGE	SLIME	SLIME	JUDGE	16	[0, 0, 0]	-999	PAL1	2	R1065J
1749.143	0.017	1819724	REC_END	n/a	3	-999	n/a	n/a	n/a	n/a	16	[0, 0, 0]	-999	PAL1	2	R1065J
1749.16	0.849	1819741	TEST_ORIENT	n/a	6	2	DART	BLUSH	DART	BLUSH	16	[0, 0, 0]	-999	PAL1	2	R1065J
1750.009	0.0	1820590	TEST_PROBE	n/a	6	2	DART	BLUSH	DART	BLUSH	16	[0, 0, 0]	-999	PAL1	2	R1065J
1750.009	2.411	1820590	REC_START	n/a	6	-999	n/a	BLUSH	n/a	n/a	16	[0, 0, 0]	-999	PAL1	2	R1065J
1752.42	2.606	1823001	REC_EVENT	2411	6	2	DART	BLUSH	DART	BLUSH	16	[0, 0, 0]	-999	PAL1	2	R1065J
1755.026	0.018	1825607	REC_END	n/a	6	-999	n/a	n/a	n/a	n/a	16	[0, 0, 0]	-999	PAL1	2	R1065J
1755.044	0.983	1825625	TEST_ORIENT	n/a	1	3	GLOVE	LEAF	GLOVE	LEAF	16	[0, 0, 0]	-999	PAL1	2	R1065J
1756.027	0.0	1826608	TEST_PROBE	n/a	1	3	GLOVE	LEAF	GLOVE	LEAF	16	[0, 0, 0]	-999	PAL1	2	R1065J
1756.027	1.412	1826608	REC_START	n/a	1	-999	n/a	LEAF	n/a	n/a	16	[0, 0, 0]	-999	PAL1	2	R1065J
1757.439	3.606	1828020	REC_EVENT	1412	1	3	GLOVE	LEAF	GLOVE	LEAF	16	[0, 0, 0]	-999	PAL1	2	R1065J
1761.045	0.017	1831626	REC_END	n/a	1	-999	n/a	n/a	n/a	n/a	16	[0, 0, 0]	-999	PAL1	2	R1065J
1761.062	0.983	1831643	TEST_ORIENT	n/a	4	4	PARK	CLIFF	CLIFF	PARK	16	[0, 0, 0]	-999	PAL1	2	R1065J
1762.045	0.001	1832626	TEST_PROBE	n/a	4	4	PARK	CLIFF	CLIFF	PARK	16	[0, 0, 0]	-999	PAL1	2	R1065J
1762.046	1.113	1832627	REC_START	n/a	4	-999	n/a	CLIFF	n/a	n/a	16	[0, 0, 0]	-999	PAL1	2	R1065J
1763.159	3.903	1833740	REC_EVENT	1113	4	4	PARK	CLIFF	CLIFF	PARK	16	[0, 0, 0]	-999	PAL1	2	R1065J
1767.062	0.017	1837643	REC_END	n/a	4	-999	n/a	n/a	n/a	n/a	16	[0, 0, 0]	-999	PAL1	2	R1065J
1767.079	0.95	1837660	TEST_ORIENT	n/a	5	5	PASTE	TOAD	PASTE	TOAD	16	[0, 0, 0]	-999	PAL1	2	R1065J
1768.029	0.001	1838610	TEST_PROBE	n/a	5	5	PASTE	TOAD	PASTE	TOAD	16	[0, 0, 0]	-999	PAL1	2	R1065J
1768.03	1.074	1838611	REC_START	n/a	5	-999	n/a	TOAD	n/a	n/a	16	[0, 0, 0]	-999	PAL1	2	R1065J
1769.104	3.937	1839685	REC_EVENT	1074	5	5	PASTE	TOAD	PASTE	TOAD	16	[0, 0, 0]	-999	PAL1	2	R1065J
1773.041	0.022	1843622	REC_END	n/a	5	-999	n/a	n/a	n/a	n/a	16	[0, 0, 0]	-999	PAL1	2	R1065J
1773.063	0.932	1843644	TEST_ORIENT	n/a	2	6	CLOUD	STEAK	STEAK	CLOUD	16	[0, 0, 0]	-999	PAL1	2	R1065J
1773.995	0.001	1844576	TEST_PROBE	n/a	2	6	CLOUD	STEAK	STEAK	CLOUD	16	[0, 0, 0]	-999	PAL1	2	R1065J
1773.996	1.184	1844577	REC_START	n/a	2	-999	n/a	STEAK	n/a	n/a	16	[0, 0, 0]	-999	PAL1	2	R1065J
1775.18	3.827	1845761	REC_EVENT	1184	2	6	CLOUD	STEAK	STEAK	CLOUD	16	[0, 0, 0]	-999	PAL1	2	R1065J
1779.007	5.08	1849588	REC_END	n/a	2	-999	n/a	n/a	n/a	n/a	16	[0, 0, 0]	-999	PAL1	2	R1065J
1784.087	10.445	1854668	ENCODING_START	n/a	0	-999	n/a	n/a	n/a	n/a	17	[0, 0, 0]	-999	PAL1	2	R1065J
1794.532	0.818	1865114	STUDY_ORIENT	n/a	1	1	STEAM	BOARD	BOARD	STEAM	17	[0, 0, 0]	-999	PAL1	2	R1065J
1795.35	5.034	1865932	STUDY_PAIR	n/a	1	1	STEAM	BOARD	BOARD	STEAM	17	[0, 0, 0]	-999	PAL1	2	R1065J
1800.384	0.917	1870966	STUDY_ORIENT	n/a	2	2	BEAR	GATE	GATE	BEAR	17	[0, 0, 0]	-999	PAL1	2	R1065J
1801.301	5.034	1871883	STUDY_PAIR	n/a	2	2	BEAR	GATE	GATE	BEAR	17	[0, 0, 0]	-999	PAL1	2	R1065J
1806.335	0.833	1876917	STUDY_ORIENT	n/a	3	3	POND	SAIL	SAIL	POND	17	[0, 0, 0]	-999	PAL1	2	R1065J
1807.168	5.018	1877750	STUDY_PAIR	n/a	3	3	POND	SAIL	SAIL	POND	17	[0, 0, 0]	-999	PAL1	2	R1065J
1812.186	0.9	1882768	STUDY_ORIENT	n/a	4	4	MAT	SHIRT	SHIRT	MAT	17	[0, 0, 0]	-999	PAL1	2	R1065J
1813.086	5.034	1883668	STUDY_PAIR	n/a	4	4	MAT	SHIRT	SHIRT	MAT	17	[0, 0, 0]	-999	PAL1	2	R1065J
1818.12	0.983	1888702	STUDY_ORIENT	n/a	5	5	PLATE	n/a	PLATE	BRUSH	17	[0, 0, 0]	-999	PAL1	2	R1065J
1819.103	5.018	1889685	STUDY_PAIR	n/a	5	5	PLATE	n/a	PLATE	BRUSH	17	[0, 0, 0]	-999	PAL1	2	R1065J
1824.121	1.0	1894703	STUDY_ORIENT	n/a	6	6	GEESE	JAR	GEESE	JAR	17	[0, 0, 0]	-999	PAL1	2	R1065J
1825.121	4.018	1895703	STUDY_PAIR	n/a	6	6	GEESE	JAR	GEESE	JAR	17	[0, 0, 0]	-999	PAL1	2	R1065J
1829.139	0.999	1899721	START	n/a	-999	-999	n/a	n/a	n/a	n/a	17	[-999, -999, -999]	-999	PAL1	2	R1065J
1830.138	0.017	1900720	MATH_START	n/a	-999	-999	n/a	n/a	n/a	n/a	17	[0, 0, 0]	-999	PAL1	2	R1065J
1830.155	2.416	1900737	PROB	2394	-999	-999	n/a	n/a	n/a	n/a	17	[9, 1, 5]	15	PAL1	2	R1065J
1832.571	2.05	1903153	PROB	2026	-999	-999	n/a	n/a	n/a	n/a	17	[1, 7, 3]	11	PAL1	2	R1065J
1834.621	1.735	1905203	PROB	1705	-999	-999	n/a	n/a	n/a	n/a	17	[4, 3, 3]	10	PAL1	2	R1065J
1836.356	1.75	1906938	PROB	1722	-999	-999	n/a	n/a	n/a	n/a	17	[6, 2, 1]	9	PAL1	2	R1065J
1838.106	1.699	1908688	PROB	1667	-999	-999	n/a	n/a	n/a	n/a	17	[6, 6, 1]	13	PAL1	2	R1065J
1839.805	1.834	1910387	PROB	1808	-999	-999	n/a	n/a	n/a	n/a	17	[6, 7, 3]	16	PAL1	2	R1065J
1841.639	2.317	1912221	PROB	2285	-999	-999	n/a	n/a	n/a	n/a	17	[9, 8, 9]	26	PAL1	2	R1065J
1843.956	2.634	1914538	PROB	2600	-999	-999	n/a	n/a	n/a	n/a	17	[8, 1, 6]	15	PAL1	2	R1065J
1846.59	2.317	1917172	PROB	2294	-999	-999	n/a	n/a	n/a	n/a	17	[3, 6, 3]	12	PAL1	2	R1065J
1848.907	2.825	1919489	PROB	2825	-999	-999	n/a	n/a	n/a	n/a	17	[9, 7, 7]	23	PAL1	2	R1065J
1851.732	0.009	1922314	STOP	n/a	-999	-999	n/a	n/a	n/a	n/a	17	[-999, -999, -999]	-999	PAL1	2	R1065J
1851.741	0.0	1922323	MATH_END	n/a	-999	-999	n/a	n/a	n/a	n/a	17	[0, 0, 0]	-999	PAL1	2	R1065J
1851.741	0.016	1922323	TEST_START	n/a	-999	-999	n/a	n/a	n/a	n/a	17	[0, 0, 0]	-999	PAL1	2	R1065J
1851.757	0.95	1922339	TEST_ORIENT	n/a	1	1	STEAM	BOARD	BOARD	STEAM	17	[0, 0, 0]	-999	PAL1	2	R1065J
1852.707	0.001	1923289	TEST_PROBE	n/a	1	1	STEAM	BOARD	BOARD	STEAM	17	[0, 0, 0]	-999	PAL1	2	R1065J
1852.708	2.449	1923290	REC_START	n/a	1	-999	n/a	BOARD	n/a	n/a	17	[0, 0, 0]	-999	PAL1	2	R1065J
1855.157	2.567	1925739	REC_EVENT	2449	1	1	STEAM	BOARD	BOARD	STEAM	17	[0, 0, 0]	-999	PAL1	2	R1065J
1857.724	0.017	1928306	REC_END	n/a	1	-999	n/a	n/a	n/a	n/a	17	[0, 0, 0]	-999	PAL1	2	R1065J
1857.741	0.917	1928323	TEST_ORIENT	n/a	2	2	BEAR	GATE	GATE	BEAR	17	[0, 0, 0]	-999	PAL1	2	R1065J
1858.658	0.001	1929240	TEST_PROBE	n/a	2	2	BEAR	GATE	GATE	BEAR	17	[0, 0, 0]	-999	PAL1	2	R1065J
1858.659	1.278	1929241	REC_START	n/a	2	-999	n/a	GATE	n/a	n/a	17	[0, 0, 0]	-999	PAL1	2	R1065J
1859.937	3.738	1930519	REC_EVENT	1278	2	2	BEAR	GATE	GATE	BEAR	17	[0, 0, 0]	-999	PAL1	2	R1065J
1863.675	0.017	1934257	REC_END	n/a	2	-999	n/a	n/a	n/a	n/a	17	[0, 0, 0]	-999	PAL1	2	R1065J
1863.692	0.984	1934274	TEST_ORIENT	n/a	3	3	POND	SAIL	SAIL	POND	17	[0, 0, 0]	-999	PAL1	2	R1065J
1864.676	0.0	1935258	TEST_PROBE	n/a	3	3	POND	SAIL	SAIL	POND	17	[0, 0, 0]	-999	PAL1	2	R1065J
1864.676	1.514	1935258	REC_START	n/a	3	-999	n/a	SAIL	n/a	n/a	17	[0, 0, 0]	-999	PAL1	2	R1065J
1866.19	3.503	1936772	REC_EVENT	1514	3	3	POND	SAIL	SAIL	POND	17	[0, 0, 0]	-999	PAL1	2	R1065J
1869.693	0.017	1940275	REC_END	n/a	3	-999	n/a	n/a	n/a	n/a	17	[0, 0, 0]	-999	PAL1	2	R1065J
1869.71	0.85	1940292	TEST_ORIENT	n/a	4	4	MAT	SHIRT	SHIRT	MAT	17	[0, 0, 0]	-999	PAL1	2	R1065J
1870.56	0.001	1941142	TEST_PROBE	n/a	4	4	MAT	SHIRT	SHIRT	MAT	17	[0, 0, 0]	-999	PAL1	2	R1065J
1870.561	1.317	1941143	REC_START	n/a	4	-999	n/a	SHIRT	n/a	n/a	17	[0, 0, 0]	-999	PAL1	2	R1065J
1871.878	3.71	1942460	REC_EVENT	1317	4	4	MAT	SHIRT	SHIRT	MAT	17	[0, 0, 0]	-999	PAL1	2	R1065J
1875.588	0.023	1946170	REC_END	n/a	4	-999	n/a	n/a	n/a	n/a	17	[0, 0, 0]	-999	PAL1	2	R1065J
1875.611	0.95	1946193	TEST_ORIENT	n/a	5	5	PLATE	n/a	PLATE	BRUSH	17	[0, 0, 0]	-999	PAL1	2	R1065J
1876.561	0.001	1947143	TEST_PROBE	n/a	5	5	PLATE	n/a	PLATE	BRUSH	17	[0, 0, 0]	-999	PAL1	2	R1065J
1876.562	2.236	1947144	REC_START	n/a	5	-999	n/a	n/a	n/a	n/a	17	[0, 0, 0]	-999	PAL1	2	R1065J
1878.798	2.791	1949380	REC_EVENT	2236	5	5	PLATE	<>	PLATE	BRUSH	17	[0, 0, 0]	-999	PAL1	2	R1065J
1881.589	0.023	1952171	REC_END	n/a	5	-999	n/a	n/a	n/a	n/a	17	[0, 0, 0]	-999	PAL1	2	R1065J
1881.612	1.0	1952194	TEST_ORIENT	n/a	6	6	GEESE	JAR	GEESE	JAR	17	[0, 0, 0]	-999	PAL1	2	R1065J
1882.612	0.0	1953194	REC_START	n/a	6	-999	n/a	JAR	n/a	n/a	17	[0, 0, 0]	-999	PAL1	2	R1065J
1882.612	1.21	1953194	TEST_PROBE	n/a	6	6	GEESE	JAR	GEESE	JAR	17	[0, 0, 0]	-999	PAL1	2	R1065J
1883.822	3.807	1954404	REC_EVENT	1210	6	6	GEESE	JAR	GEESE	JAR	17	[0, 0, 0]	-999	PAL1	2	R1065J
1887.629	1.631	1958212	REC_END	n/a	6	-999	n/a	n/a	n/a	n/a	17	[0, 0, 0]	-999	PAL1	2	R1065J
1889.26	10.438	1959843	ENCODING_START	n/a	0	-999	n/a	n/a	n/a	n/a	18	[0, 0, 0]	-999	PAL1	2	R1065J
1899.698	0.783	1970281	STUDY_ORIENT	n/a	1	3	HOSE	PIPE	HOSE	PIPE	18	[0, 0, 0]	-999	PAL1	2	R1065J
1900.481	5.034	1971064	STUDY_PAIR	n/a	1	3	HOSE	PIPE	HOSE	PIPE	18	[0, 0, 0]	-999	PAL1	2	R1065J
1905.515	0.868	1976098	STUDY_ORIENT	n/a	2	2	FUDGE	BEAK	BEAK	FUDGE	18	[0, 0, 0]	-999	PAL1	2	R1065J
1906.383	5.033	1976966	STUDY_PAIR	n/a	2	2	FUDGE	BEAK	BEAK	FUDGE	18	[0, 0, 0]	-999	PAL1	2	R1065J
1911.416	0.834	1981999	STUDY_ORIENT	n/a	3	5	LIP	BOMB	LIP	BOMB	18	[0, 0, 0]	-999	PAL1	2	R1065J
1912.25	5.034	1982833	STUDY_PAIR	n/a	3	5	LIP	BOMB	LIP	BOMB	18	[0, 0, 0]	-999	PAL1	2	R1065J
1917.284	0.834	1987867	STUDY_ORIENT	n/a	4	4	GLASS	JET	GLASS	JET	18	[0, 0, 0]	-999	PAL1	2	R1065J
1918.118	5.034	1988701	STUDY_PAIR	n/a	4	4	GLASS	JET	GLASS	JET	18	[0, 0, 0]	-999	PAL1	2	R1065J
1923.152	0.966	1993735	STUDY_ORIENT	n/a	5	1	CORD	PEA	PEA	CORD	18	[0, 0, 0]	-999	PAL1	2	R1065J
1924.118	5.018	1994701	STUDY_PAIR	n/a	5	1	CORD	PEA	PEA	CORD	18	[0, 0, 0]	-999	PAL1	2	R1065J
1929.136	0.984	1999719	STUDY_ORIENT	n/a	6	6	BUSH	HORSE	HORSE	BUSH	18	[0, 0, 0]	-999	PAL1	2	R1065J
1930.12	4.017	2000703	STUDY_PAIR	n/a	6	6	BUSH	HORSE	HORSE	BUSH	18	[0, 0, 0]	-999	PAL1	2	R1065J
1934.137	1.0	2004720	START	n/a	-999	-999	n/a	n/a	n/a	n/a	18	[-999, -999, -999]	-999	PAL1	2	R1065J
1935.137	0.017	2005720	MATH_START	n/a	-999	-999	n/a	n/a	n/a	n/a	18	[0, 0, 0]	-999	PAL1	2	R1065J
1935.154	2.482	2005737	PROB	2456	-999	-999	n/a	n/a	n/a	n/a	18	[3, 8, 6]	17	PAL1	2	R1065J
1937.636	2.801	2008219	PROB	2774	-999	-999	n/a	n/a	n/a	n/a	18	[9, 6, 4]	19	PAL1	2	R1065J
1940.437	1.651	2011020	PROB	1630	-999	-999	n/a	n/a	n/a	n/a	18	[3, 1, 8]	12	PAL1	2	R1065J
1942.088	2.017	2012671	PROB	1995	-999	-999	n/a	n/a	n/a	n/a	18	[9, 4, 9]	22	PAL1	2	R1065J
1944.105	2.117	2014688	PROB	2082	-999	-999	n/a	n/a	n/a	n/a	18	[9, 8, 9]	27	PAL1	2	R1065J
1946.222	1.649	2016805	PROB	1620	-999	-999	n/a	n/a	n/a	n/a	18	[4, 4, 1]	9	PAL1	2	R1065J
1947.871	1.8	2018454	PROB	1771	-999	-999	n/a	n/a	n/a	n/a	18	[4, 6, 9]	19	PAL1	2	R1065J
1949.671	1.652	2020254	PROB	1620	-999	-999	n/a	n/a	n/a	n/a	18	[4, 1, 4]	9	PAL1	2	R1065J
1951.323	1.883	2021906	PROB	1855	-999	-999	n/a	n/a	n/a	n/a	18	[2, 3, 7]	12	PAL1	2	R1065J
1953.206	1.916	2023789	PROB	1916	-999	-999	n/a	n/a	n/a	n/a	18	[7, 3, 8]	18	PAL1	2	R1065J
1955.122	0.018	2025705	STOP	n/a	-999	-999	n/a	n/a	n/a	n/a	18	[-999, -999, -999]	-999	PAL1	2	R1065J
1955.14	0.0	2025723	TEST_START	n/a	-999	-999	n/a	n/a	n/a	n/a	18	[0, 0, 0]	-999	PAL1	2	R1065J
1955.14	0.017	2025723	MATH_END	n/a	-999	-999	n/a	n/a	n/a	n/a	18	[0, 0, 0]	-999	PAL1	2	R1065J
1955.157	0.933	2025740	TEST_ORIENT	n/a	5	1	CORD	PEA	PEA	CORD	18	[0, 0, 0]	-999	PAL1	2	R1065J
1956.09	0.001	2026673	TEST_PROBE	n/a	5	1	CORD	PEA	PEA	CORD	18	[0, 0, 0]	-999	PAL1	2	R1065J
1956.091	1.377	2026674	REC_START	n/a	5	-999	n/a	PEA	n/a	n/a	18	[0, 0, 0]	-999	PAL1	2	R1065J
1957.468	3.65	2028051	REC_EVENT	1377	5	1	CORD	PEA	PEA	CORD	18	[0, 0, 0]	-999	PAL1	2	R1065J
1961.118	0.023	2031701	REC_END	n/a	5	-999	n/a	n/a	n/a	n/a	18	[0, 0, 0]	-999	PAL1	2	R1065J
1961.141	0.882	2031724	TEST_ORIENT	n/a	2	2	FUDGE	BEAK	BEAK	FUDGE	18	[0, 0, 0]	-999	PAL1	2	R1065J
1962.023	0.001	2032606	TEST_PROBE	n/a	2	2	FUDGE	BEAK	BEAK	FUDGE	18	[0, 0, 0]	-999	PAL1	2	R1065J
1962.024	1.149	2032607	REC_START	n/a	2	-999	n/a	BEAK	n/a	n/a	18	[0, 0, 0]	-999	PAL1	2	R1065J
1963.173	3.868	2033756	REC_EVENT	1149	2	2	FUDGE	BEAK	BEAK	FUDGE	18	[0, 0, 0]	-999	PAL1	2	R1065J
1967.041	0.017	2037624	REC_END	n/a	2	-999	n/a	n/a	n/a	n/a	18	[0, 0, 0]	-999	PAL1	2	R1065J
1967.058	0.816	2037641	TEST_ORIENT	n/a	1	3	HOSE	PIPE	HOSE	PIPE	18	[0, 0, 0]	-999	PAL1	2	R1065J
1967.874	0.0	2038457	TEST_PROBE	n/a	1	3	HOSE	PIPE	HOSE	PIPE	18	[0, 0, 0]	-999	PAL1	2	R1065J
1967.874	1.72	2038457	REC_START	n/a	1	-999	n/a	PIPE	n/a	n/a	18	[0, 0, 0]	-999	PAL1	2	R1065J
1969.594	3.297	2040177	REC_EVENT	1720	1	3	HOSE	PIPE	HOSE	PIPE	18	[0, 0, 0]	-999	PAL1	2	R1065J
1972.891	0.017	2043474	REC_END	n/a	1	-999	n/a	n/a	n/a	n/a	18	[0, 0, 0]	-999	PAL1	2	R1065J
1972.908	0.867	2043491	TEST_ORIENT	n/a	4	4	GLASS	JET	GLASS	JET	18	[0, 0, 0]	-999	PAL1	2	R1065J
1973.775	0.0	2044358	REC_START	n/a	4	-999	n/a	JET	n/a	n/a	18	[0, 0, 0]	-999	PAL1	2	R1065J
1973.775	1.542	2044358	TEST_PROBE	n/a	4	4	GLASS	JET	GLASS	JET	18	[0, 0, 0]	-999	PAL1	2	R1065J
1975.317	3.475	2045900	REC_EVENT	1542	4	4	GLASS	JET	GLASS	JET	18	[0, 0, 0]	-999	PAL1	2	R1065J
1978.792	0.017	2049375	REC_END	n/a	4	-999	n/a	n/a	n/a	n/a	18	[0, 0, 0]	-999	PAL1	2	R1065J
1978.809	0.967	2049392	TEST_ORIENT	n/a	3	5	LIP	BOMB	LIP	BOMB	18	[0, 0, 0]	-999	PAL1	2	R1065J
1979.776	0.0	2050359	TEST_PROBE	n/a	3	5	LIP	BOMB	LIP	BOMB	18	[0, 0, 0]	-999	PAL1	2	R1065J
1979.776	1.767	2050359	REC_START	n/a	3	-999	n/a	BOMB	n/a	n/a	18	[0, 0, 0]	-999	PAL1	2	R1065J
1981.543	3.25	2052126	REC_EVENT	1767	3	5	LIP	BOMB	LIP	BOMB	18	[0, 0, 0]	-999	PAL1	2	R1065J
1984.793	0.017	2055376	REC_END	n/a	3	-999	n/a	n/a	n/a	n/a	18	[0, 0, 0]	-999	PAL1	2	R1065J
1984.81	0.967	2055393	TEST_ORIENT	n/a	6	6	BUSH	HORSE	HORSE	BUSH	18	[0, 0, 0]	-999	PAL1	2	R1065J
1985.777	0.0	2056361	REC_START	n/a	6	-999	n/a	HORSE	n/a	n/a	18	[0, 0, 0]	-999	PAL1	2	R1065J
1985.777	1.684	2056361	TEST_PROBE	n/a	6	6	BUSH	HORSE	HORSE	BUSH	18	[0, 0, 0]	-999	PAL1	2	R1065J
1987.461	3.333	2058045	REC_EVENT	1684	6	6	BUSH	HORSE	HORSE	BUSH	18	[0, 0, 0]	-999	PAL1	2	R1065J
1990.794	1.654	2061378	REC_END	n/a	6	-999	n/a	n/a	n/a	n/a	18	[0, 0, 0]	-999	PAL1	2	R1065J
1992.448	10.448	2063032	ENCODING_START	n/a	0	-999	n/a	n/a	n/a	n/a	19	[0, 0, 0]	-999	PAL1	2	R1065J
2002.896	0.95	2073480	STUDY_ORIENT	n/a	1	5	ZOO	PURSE	PURSE	ZOO	19	[0, 0, 0]	-999	PAL1	2	R1065J
2003.846	5.034	2074430	STUDY_PAIR	n/a	1	5	ZOO	PURSE	PURSE	ZOO	19	[0, 0, 0]	-999	PAL1	2	R1065J
2008.88	0.967	2079464	STUDY_ORIENT	n/a	2	2	ROCK	n/a	ROCK	EGG	19	[0, 0, 0]	-999	PAL1	2	R1065J
2009.847	5.034	2080431	STUDY_PAIR	n/a	2	2	ROCK	n/a	ROCK	EGG	19	[0, 0, 0]	-999	PAL1	2	R1065J
2014.881	1.0	2085465	STUDY_ORIENT	n/a	3	1	SNAIL	SPEAR	SNAIL	SPEAR	19	[0, 0, 0]	-999	PAL1	2	R1065J
2015.881	5.034	2086465	STUDY_PAIR	n/a	3	1	SNAIL	SPEAR	SNAIL	SPEAR	19	[0, 0, 0]	-999	PAL1	2	R1065J
2020.915	0.784	2091499	STUDY_ORIENT	n/a	4	4	CHEEK	CAR	CHEEK	CAR	19	[0, 0, 0]	-999	PAL1	2	R1065J
2021.699	5.034	2092283	STUDY_PAIR	n/a	4	4	CHEEK	CAR	CHEEK	CAR	19	[0, 0, 0]	-999	PAL1	2	R1065J
2026.733	0.933	2097317	STUDY_ORIENT	n/a	5	3	BREAD	NAIL	BREAD	NAIL	19	[0, 0, 0]	-999	PAL1	2	R1065J
2027.666	5.017	2098250	STUDY_PAIR	n/a	5	3	BREAD	NAIL	BREAD	NAIL	19	[0, 0, 0]	-999	PAL1	2	R1065J
2032.683	0.851	2103267	STUDY_ORIENT	n/a	6	6	CHIEF	BENCH	BENCH	CHIEF	19	[0, 0, 0]	-999	PAL1	2	R1065J
2033.534	4.017	2104118	STUDY_PAIR	n/a	6	6	CHIEF	BENCH	BENCH	CHIEF	19	[0, 0, 0]	-999	PAL1	2	R1065J
2037.551	1.0	2108135	START	n/a	-999	-999	n/a	n/a	n/a	n/a	19	[-999, -999, -999]	-999	PAL1	2	R1065J
2038.551	0.017	2109135	MATH_START	n/a	-999	-999	n/a	n/a	n/a	n/a	19	[0, 0, 0]	-999	PAL1	2	R1065J
2038.568	2.417	2109152	PROB	2391	-999	-999	n/a	n/a	n/a	n/a	19	[2, 9, 2]	13	PAL1	2	R1065J
2040.985	2.017	2111569	PROB	1982	-999	-999	n/a	n/a	n/a	n/a	19	[1, 2, 3]	6	PAL1	2	R1065J
2043.002	1.7	2113586	PROB	1677	-999	-999	n/a	n/a	n/a	n/a	19	[7, 3, 3]	13	PAL1	2	R1065J
2044.702	1.717	2115286	PROB	1697	-999	-999	n/a	n/a	n/a	n/a	19	[9, 2, 1]	12	PAL1	2	R1065J
2046.419	2.1	2117003	PROB	2068	-999	-999	n/a	n/a	n/a	n/a	19	[5, 8, 7]	20	PAL1	2	R1065J
2048.519	2.001	2119103	PROB	1968	-999	-999	n/a	n/a	n/a	n/a	19	[6, 1, 2]	9	PAL1	2	R1065J
2050.52	3.4	2121104	PROB	3367	-999	-999	n/a	n/a	n/a	n/a	19	[3, 9, 8]	20	PAL1	2	R1065J
2053.92	2.235	2124504	PROB	2200	-999	-999	n/a	n/a	n/a	n/a	19	[8, 9, 2]	19	PAL1	2	R1065J
2056.155	2.452	2126739	PROB	2452	-999	-999	n/a	n/a	n/a	n/a	19	[4, 8, 3]	15	PAL1	2	R1065J
2058.607	0.014	2129191	STOP	n/a	-999	-999	n/a	n/a	n/a	n/a	19	[-999, -999, -999]	-999	PAL1	2	R1065J
2058.621	0.0	2129205	TEST_START	n/a	-999	-999	n/a	n/a	n/a	n/a	19	[0, 0, 0]	-999	PAL1	2	R1065J
2058.621	0.016	2129205	MATH_END	n/a	-999	-999	n/a	n/a	n/a	n/a	19	[0, 0, 0]	-999	PAL1	2	R1065J
2058.637	0.867	2129221	TEST_ORIENT	n/a	3	1	SNAIL	SPEAR	SNAIL	SPEAR	19	[0, 0, 0]	-999	PAL1	2	R1065J
2059.504	0.001	2130088	TEST_PROBE	n/a	3	1	SNAIL	SPEAR	SNAIL	SPEAR	19	[0, 0, 0]	-999	PAL1	2	R1065J
2059.505	1.059	2130089	REC_START	n/a	3	-999	n/a	SPEAR	n/a	n/a	19	[0, 0, 0]	-999	PAL1	2	R1065J
2060.564	3.968	2131148	REC_EVENT	1059	3	1	SNAIL	SPEAR	SNAIL	SPEAR	19	[0, 0, 0]	-999	PAL1	2	R1065J
2064.532	0.023	2135116	REC_END	n/a	3	-999	n/a	n/a	n/a	n/a	19	[0, 0, 0]	-999	PAL1	2	R1065J
2064.555	0.801	2135139	TEST_ORIENT	n/a	2	2	ROCK	n/a	ROCK	EGG	19	[0, 0, 0]	-999	PAL1	2	R1065J
2065.356	0.001	2135940	TEST_PROBE	n/a	2	2	ROCK	n/a	ROCK	EGG	19	[0, 0, 0]	-999	PAL1	2	R1065J
2065.357	5.015	2135941	REC_START	n/a	2	-999	n/a	n/a	n/a	n/a	19	[0, 0, 0]	-999	PAL1	2	R1065J
2070.372	0.001	2140956	REC_EVENT	5015	2	2	ROCK	<>	ROCK	EGG	19	[0, 0, 0]	-999	PAL1	2	R1065J
2070.373	0.017	2140957	REC_END	n/a	2	-999	n/a	n/a	n/a	n/a	19	[0, 0, 0]	-999	PAL1	2	R1065J
