onset	duration	sample	trial_type	response_time	stim_file	serialpos	probepos	probe_word	resp_word	study_1	study_2	list	test	answer	experiment	session	subject
0.0	201.301	-1	SESS_START	n/a	n/a	-999	-999	n/a	n/a	n/a	n/a	-999	[0, 0, 0]	-999	PAL1	0	R1175N
201.301	1.016	101326	START	n/a	n/a	-999	-999	n/a	n/a	n/a	n/a	-1	[-999, -999, -999]	-999	PAL1	0	R1175N
202.317	8.802	102342	PROB	8777.0	n/a	-999	-999	n/a	n/a	n/a	n/a	-1	[5, 1, 1]	7	PAL1	0	R1175N
211.119	9.919	111144	PROB	9895.0	n/a	-999	-999	n/a	n/a	n/a	n/a	-1	[9, 2, 4]	15	PAL1	0	R1175N
221.038	6.848	121062	PROB	6848.0	n/a	-999	-999	n/a	n/a	n/a	n/a	-1	[9, 9, 1]	19	PAL1	0	R1175N
227.886	74.719	127910	STOP	n/a	n/a	-999	-999	n/a	n/a	n/a	n/a	-1	[-999, -999, -999]	-999	PAL1	0	R1175N
302.605	10.448	202627	ENCODING_START	n/a	n/a	0	-999	n/a	n/a	n/a	n/a	1	[0, 0, 0]	-999	PAL1	0	R1175N
313.053	0.275	213074	STUDY_ORIENT	n/a	n/a	1	3	CAVE	CAVE	BREAD	CAVE	1	[0, 0, 0]	-999	PAL1	0	R1175N
313.987	4.0	214008	STUDY_PAIR	n/a	wordpools/wordpool_EN.txt	1	3	CAVE	CAVE	BREAD	CAVE	1	[0, 0, 0]	-999	PAL1	0	R1175N
319.021	0.275	219042	STUDY_ORIENT	n/a	n/a	2	2	PIG	BREAD	NEST	PIG	1	[0, 0, 0]	-999	PAL1	0	R1175N
319.921	4.0	219942	STUDY_PAIR	n/a	wordpools/wordpool_EN.txt	2	2	PIG	BREAD	NEST	PIG	1	[0, 0, 0]	-999	PAL1	0	R1175N
324.955	0.275	224976	STUDY_ORIENT	n/a	n/a	3	5	SPONGE	n/a	WHEEL	SPONGE	1	[0, 0, 0]	-999	PAL1	0	R1175N
325.939	4.0	225960	STUDY_PAIR	n/a	wordpools/wordpool_EN.txt	3	5	SPONGE	n/a	WHEEL	SPONGE	1	[0, 0, 0]	-999	PAL1	0	R1175N
330.972	0.275	230993	STUDY_ORIENT	n/a	n/a	4	4	PEARL	PEARL	PEARL	STAR	1	[0, 0, 0]	-999	PAL1	0	R1175N
331.806	4.0	231827	STUDY_PAIR	n/a	wordpools/wordpool_EN.txt	4	4	PEARL	PEARL	PEARL	STAR	1	[0, 0, 0]	-999	PAL1	0	R1175N
336.841	0.275	236861	STUDY_ORIENT	n/a	n/a	5	1	DRUM	n/a	THUMB	DRUM	1	[0, 0, 0]	-999	PAL1	0	R1175N
337.79	4.0	237810	STUDY_PAIR	n/a	wordpools/wordpool_EN.txt	5	1	DRUM	n/a	THUMB	DRUM	1	[0, 0, 0]	-999	PAL1	0	R1175N
342.824	0.275	242844	STUDY_ORIENT	n/a	n/a	6	6	MOOSE	n/a	FOOT	MOOSE	1	[0, 0, 0]	-999	PAL1	0	R1175N
343.775	4.0	243795	STUDY_PAIR	n/a	wordpools/wordpool_EN.txt	6	6	MOOSE	n/a	FOOT	MOOSE	1	[0, 0, 0]	-999	PAL1	0	R1175N
347.793	1.0	247813	START	n/a	n/a	-999	-999	n/a	n/a	n/a	n/a	1	[-999, -999, -999]	-999	PAL1	0	R1175N
348.793	0.016	248813	MATH_START	n/a	n/a	-999	-999	n/a	n/a	n/a	n/a	1	[0, 0, 0]	-999	PAL1	0	R1175N
348.809	12.068	248829	PROB	12045.0	n/a	-999	-999	n/a	n/a	n/a	n/a	1	[9, 1, 7]	17	PAL1	0	R1175N
360.877	7.209	260897	PROB	7209.0	n/a	-999	-999	n/a	n/a	n/a	n/a	1	[8, 7, 2]	17	PAL1	0	R1175N
368.086	0.009	268105	STOP	n/a	n/a	-999	-999	n/a	n/a	n/a	n/a	1	[-999, -999, -999]	-999	PAL1	0	R1175N
368.095	0.0	268114	MATH_END	n/a	n/a	-999	-999	n/a	n/a	n/a	n/a	1	[0, 0, 0]	-999	PAL1	0	R1175N
368.095	0.018	268114	TEST_START	n/a	n/a	-999	-999	n/a	n/a	n/a	n/a	1	[0, 0, 0]	-999	PAL1	0	R1175N
368.113	0.275	268132	TEST_ORIENT	n/a	n/a	5	1	DRUM	n/a	THUMB	DRUM	1	[0, 0, 0]	-999	PAL1	0	R1175N
368.912	4.0	268931	TEST_PROBE	n/a	wordpools/wordpool_EN.txt	5	1	DRUM	n/a	THUMB	DRUM	1	[0, 0, 0]	-999	PAL1	0	R1175N
368.913	3.619	268932	REC_START	n/a	n/a	5	-999	n/a	n/a	n/a	n/a	1	[0, 0, 0]	-999	PAL1	0	R1175N
372.532	1.406	272551	REC_EVENT	3619.0	n/a	5	1	DRUM	<>	THUMB	DRUM	1	[0, 0, 0]	-999	PAL1	0	R1175N
373.938	0.009	273957	REC_END	n/a	n/a	5	-999	n/a	n/a	n/a	n/a	1	[0, 0, 0]	-999	PAL1	0	R1175N
373.947	0.275	273966	TEST_ORIENT	n/a	n/a	2	2	PIG	BREAD	NEST	PIG	1	[0, 0, 0]	-999	PAL1	0	R1175N
374.896	4.0	274915	TEST_PROBE	n/a	wordpools/wordpool_EN.txt	2	2	PIG	BREAD	NEST	PIG	1	[0, 0, 0]	-999	PAL1	0	R1175N
374.897	0.687	274916	REC_START	n/a	n/a	2	-999	n/a	BREAD	n/a	n/a	1	[0, 0, 0]	-999	PAL1	0	R1175N
375.584	1.346	275603	REC_EVENT	687.0	n/a	2	2	PIG	<>	NEST	PIG	1	[0, 0, 0]	-999	PAL1	0	R1175N
376.93	2.992	276949	REC_EVENT	2033.0	n/a	2	2	PIG	BREAD	NEST	PIG	1	[0, 0, 0]	-999	PAL1	0	R1175N
379.922	0.009	279941	REC_END	n/a	n/a	2	-999	n/a	n/a	n/a	n/a	1	[0, 0, 0]	-999	PAL1	0	R1175N
379.931	0.275	279950	TEST_ORIENT	n/a	n/a	1	3	CAVE	CAVE	BREAD	CAVE	1	[0, 0, 0]	-999	PAL1	0	R1175N
380.931	4.0	280950	TEST_PROBE	n/a	wordpools/wordpool_EN.txt	1	3	CAVE	CAVE	BREAD	CAVE	1	[0, 0, 0]	-999	PAL1	0	R1175N
380.931	0.551	280950	REC_START	n/a	n/a	1	-999	n/a	CAVE	n/a	n/a	1	[0, 0, 0]	-999	PAL1	0	R1175N
381.482	0.237	281501	REC_EVENT	551.0	n/a	1	3	CAVE	<>	BREAD	CAVE	1	[0, 0, 0]	-999	PAL1	0	R1175N
381.719	4.229	281738	REC_EVENT	788.0	n/a	1	3	CAVE	CAVE	BREAD	CAVE	1	[0, 0, 0]	-999	PAL1	0	R1175N
385.948	0.017	285967	REC_END	n/a	n/a	1	-999	n/a	n/a	n/a	n/a	1	[0, 0, 0]	-999	PAL1	0	R1175N
385.965	0.275	285984	TEST_ORIENT	n/a	n/a	4	4	PEARL	PEARL	PEARL	STAR	1	[0, 0, 0]	-999	PAL1	0	R1175N
386.865	4.0	286884	TEST_PROBE	n/a	wordpools/wordpool_EN.txt	4	4	PEARL	PEARL	PEARL	STAR	1	[0, 0, 0]	-999	PAL1	0	R1175N
386.866	0.737	286885	REC_START	n/a	n/a	4	-999	n/a	PEARL	n/a	n/a	1	[0, 0, 0]	-999	PAL1	0	R1175N
387.603	2.491	287622	REC_EVENT	737.0	n/a	4	4	PEARL	PEARL	PEARL	STAR	1	[0, 0, 0]	-999	PAL1	0	R1175N
390.094	1.788	290113	REC_EVENT	3228.0	n/a	4	4	PEARL	<>	PEARL	STAR	1	[0, 0, 0]	-999	PAL1	0	R1175N
391.882	0.017	291901	REC_END	n/a	n/a	4	-999	n/a	n/a	n/a	n/a	1	[0, 0, 0]	-999	PAL1	0	R1175N
391.899	0.275	291918	TEST_ORIENT	n/a	n/a	3	5	SPONGE	n/a	WHEEL	SPONGE	1	[0, 0, 0]	-999	PAL1	0	R1175N
392.715	4.0	292733	TEST_PROBE	n/a	wordpools/wordpool_EN.txt	3	5	SPONGE	n/a	WHEEL	SPONGE	1	[0, 0, 0]	-999	PAL1	0	R1175N
392.716	0.726	292734	REC_START	n/a	n/a	3	-999	n/a	n/a	n/a	n/a	1	[0, 0, 0]	-999	PAL1	0	R1175N
393.442	4.291	293460	REC_EVENT	726.0	n/a	3	5	SPONGE	<>	WHEEL	SPONGE	1	[0, 0, 0]	-999	PAL1	0	R1175N
397.733	0.016	297751	REC_END	n/a	n/a	3	-999	n/a	n/a	n/a	n/a	1	[0, 0, 0]	-999	PAL1	0	R1175N
397.749	0.275	297767	TEST_ORIENT	n/a	n/a	6	6	MOOSE	n/a	FOOT	MOOSE	1	[0, 0, 0]	-999	PAL1	0	R1175N
398.616	4.0	298634	TEST_PROBE	n/a	wordpools/wordpool_EN.txt	6	6	MOOSE	n/a	FOOT	MOOSE	1	[0, 0, 0]	-999	PAL1	0	R1175N
398.616	0.009	298634	REC_START	n/a	n/a	6	-999	n/a	n/a	n/a	n/a	1	[0, 0, 0]	-999	PAL1	0	R1175N
398.625	1.0	298643	REC_EVENT	9.0	n/a	6	6	MOOSE	<>	FOOT	MOOSE	1	[0, 0, 0]	-999	PAL1	0	R1175N
399.625	4.008	299643	REC_EVENT	1009.0	n/a	6	6	MOOSE	<>	FOOT	MOOSE	1	[0, 0, 0]	-999	PAL1	0	R1175N
403.633	40.741	303651	REC_END	n/a	n/a	6	-999	n/a	n/a	n/a	n/a	1	[0, 0, 0]	-999	PAL1	0	R1175N
444.374	10.453	344391	ENCODING_START	n/a	n/a	0	-999	n/a	n/a	n/a	n/a	2	[0, 0, 0]	-999	PAL1	0	R1175N
454.827	0.275	354843	STUDY_ORIENT	n/a	n/a	1	3	MUG	HOLE	MUG	WOOD	2	[0, 0, 0]	-999	PAL1	0	R1175N
455.626	4.0	355642	STUDY_PAIR	n/a	wordpools/wordpool_EN.txt	1	3	MUG	HOLE	MUG	WOOD	2	[0, 0, 0]	-999	PAL1	0	R1175N
460.66	0.275	360676	STUDY_ORIENT	n/a	n/a	2	4	TAIL	n/a	TAIL	HAWK	2	[0, 0, 0]	-999	PAL1	0	R1175N
461.643	4.0	361659	STUDY_PAIR	n/a	wordpools/wordpool_EN.txt	2	4	TAIL	n/a	TAIL	HAWK	2	[0, 0, 0]	-999	PAL1	0	R1175N
466.678	0.275	366694	STUDY_ORIENT	n/a	n/a	3	5	MULE	MULE	BANK	MULE	2	[0, 0, 0]	-999	PAL1	0	R1175N
467.494	4.0	367510	STUDY_PAIR	n/a	wordpools/wordpool_EN.txt	3	5	MULE	MULE	BANK	MULE	2	[0, 0, 0]	-999	PAL1	0	R1175N
472.529	0.275	372545	STUDY_ORIENT	n/a	n/a	4	2	SHARK	TOOTH	SHARK	TOOTH	2	[0, 0, 0]	-999	PAL1	0	R1175N
473.397	4.0	373413	STUDY_PAIR	n/a	wordpools/wordpool_EN.txt	4	2	SHARK	TOOTH	SHARK	TOOTH	2	[0, 0, 0]	-999	PAL1	0	R1175N
478.43	0.275	378446	STUDY_ORIENT	n/a	n/a	5	1	CART	n/a	SLIME	CART	2	[0, 0, 0]	-999	PAL1	0	R1175N
479.413	4.0	379429	STUDY_PAIR	n/a	wordpools/wordpool_EN.txt	5	1	CART	n/a	SLIME	CART	2	[0, 0, 0]	-999	PAL1	0	R1175N
484.448	0.275	384463	STUDY_ORIENT	n/a	n/a	6	6	HOLE	HOLE	HOLE	BROOM	2	[0, 0, 0]	-999	PAL1	0	R1175N
485.431	4.0	385446	STUDY_PAIR	n/a	wordpools/wordpool_EN.txt	6	6	HOLE	HOLE	HOLE	BROOM	2	[0, 0, 0]	-999	PAL1	0	R1175N
489.449	0.999	389464	START	n/a	n/a	-999	-999	n/a	n/a	n/a	n/a	2	[-999, -999, -999]	-999	PAL1	0	R1175N
490.448	0.017	390463	MATH_START	n/a	n/a	-999	-999	n/a	n/a	n/a	n/a	2	[0, 0, 0]	-999	PAL1	0	R1175N
490.465	12.536	390480	PROB	12517.0	n/a	-999	-999	n/a	n/a	n/a	n/a	2	[2, 6, 8]	16	PAL1	0	R1175N
503.001	8.341	403016	PROB	8341.0	n/a	-999	-999	n/a	n/a	n/a	n/a	2	[6, 4, 8]	18	PAL1	0	R1175N
511.342	0.011	411356	STOP	n/a	n/a	-999	-999	n/a	n/a	n/a	n/a	2	[-999, -999, -999]	-999	PAL1	0	R1175N
511.353	0.0	411367	MATH_END	n/a	n/a	-999	-999	n/a	n/a	n/a	n/a	2	[0, 0, 0]	-999	PAL1	0	R1175N
511.353	0.016	411367	TEST_START	n/a	n/a	-999	-999	n/a	n/a	n/a	n/a	2	[0, 0, 0]	-999	PAL1	0	R1175N
511.369	0.275	411383	TEST_ORIENT	n/a	n/a	5	1	CART	n/a	SLIME	CART	2	[0, 0, 0]	-999	PAL1	0	R1175N
512.186	4.0	412200	TEST_PROBE	n/a	wordpools/wordpool_EN.txt	5	1	CART	n/a	SLIME	CART	2	[0, 0, 0]	-999	PAL1	0	R1175N
512.187	5.021	412201	REC_START	n/a	n/a	5	-999	n/a	n/a	n/a	n/a	2	[0, 0, 0]	-999	PAL1	0	R1175N
517.208	0.004	417222	REC_EVENT	5021.0	n/a	5	1	CART	<>	SLIME	CART	2	[0, 0, 0]	-999	PAL1	0	R1175N
517.212	0.009	417226	REC_END	n/a	n/a	5	-999	n/a	n/a	n/a	n/a	2	[0, 0, 0]	-999	PAL1	0	R1175N
517.221	0.275	417235	TEST_ORIENT	n/a	n/a	4	2	SHARK	TOOTH	SHARK	TOOTH	2	[0, 0, 0]	-999	PAL1	0	R1175N
518.204	0.0	418218	REC_START	n/a	n/a	4	-999	n/a	TOOTH	n/a	n/a	2	[0, 0, 0]	-999	PAL1	0	R1175N
518.204	4.0	418218	TEST_PROBE	n/a	wordpools/wordpool_EN.txt	4	2	SHARK	TOOTH	SHARK	TOOTH	2	[0, 0, 0]	-999	PAL1	0	R1175N
521.045	2.177	421059	REC_EVENT	2841.0	n/a	4	2	SHARK	TOOTH	SHARK	TOOTH	2	[0, 0, 0]	-999	PAL1	0	R1175N
523.222	0.017	423236	REC_END	n/a	n/a	4	-999	n/a	n/a	n/a	n/a	2	[0, 0, 0]	-999	PAL1	0	R1175N
523.239	0.275	423253	TEST_ORIENT	n/a	n/a	1	3	MUG	HOLE	MUG	WOOD	2	[0, 0, 0]	-999	PAL1	0	R1175N
524.155	4.0	424169	TEST_PROBE	n/a	wordpools/wordpool_EN.txt	1	3	MUG	HOLE	MUG	WOOD	2	[0, 0, 0]	-999	PAL1	0	R1175N
524.155	1.68	424169	REC_START	n/a	n/a	1	-999	n/a	HOLE	n/a	n/a	2	[0, 0, 0]	-999	PAL1	0	R1175N
525.835	3.337	425849	REC_EVENT	1680.0	n/a	1	3	MUG	HOLE	MUG	WOOD	2	[0, 0, 0]	-999	PAL1	0	R1175N
529.172	0.018	429186	REC_END	n/a	n/a	1	-999	n/a	n/a	n/a	n/a	2	[0, 0, 0]	-999	PAL1	0	R1175N
529.19	0.275	429204	TEST_ORIENT	n/a	n/a	2	4	TAIL	n/a	TAIL	HAWK	2	[0, 0, 0]	-999	PAL1	0	R1175N
530.057	4.0	430071	TEST_PROBE	n/a	wordpools/wordpool_EN.txt	2	4	TAIL	n/a	TAIL	HAWK	2	[0, 0, 0]	-999	PAL1	0	R1175N
530.057	2.171	430071	REC_START	n/a	n/a	2	-999	n/a	n/a	n/a	n/a	2	[0, 0, 0]	-999	PAL1	0	R1175N
532.228	2.845	432242	REC_EVENT	2171.0	n/a	2	4	TAIL	<>	TAIL	HAWK	2	[0, 0, 0]	-999	PAL1	0	R1175N
535.073	0.018	435087	REC_END	n/a	n/a	2	-999	n/a	n/a	n/a	n/a	2	[0, 0, 0]	-999	PAL1	0	R1175N
535.091	0.275	435105	TEST_ORIENT	n/a	n/a	3	5	MULE	MULE	BANK	MULE	2	[0, 0, 0]	-999	PAL1	0	R1175N
536.09	4.0	436104	TEST_PROBE	n/a	wordpools/wordpool_EN.txt	3	5	MULE	MULE	BANK	MULE	2	[0, 0, 0]	-999	PAL1	0	R1175N
536.091	2.993	436105	REC_START	n/a	n/a	3	-999	n/a	MULE	n/a	n/a	2	[0, 0, 0]	-999	PAL1	0	R1175N
539.084	0.926	439098	REC_EVENT	2993.0	n/a	3	5	MULE	<>	BANK	MULE	2	[0, 0, 0]	-999	PAL1	0	R1175N
540.01	1.098	440024	REC_EVENT	3919.0	n/a	3	5	MULE	MULE	BANK	MULE	2	[0, 0, 0]	-999	PAL1	0	R1175N
541.108	0.017	441121	REC_END	n/a	n/a	3	-999	n/a	n/a	n/a	n/a	2	[0, 0, 0]	-999	PAL1	0	R1175N
541.125	0.275	441138	TEST_ORIENT	n/a	n/a	6	6	HOLE	HOLE	HOLE	BROOM	2	[0, 0, 0]	-999	PAL1	0	R1175N
542.025	4.0	442038	TEST_PROBE	n/a	wordpools/wordpool_EN.txt	6	6	HOLE	HOLE	HOLE	BROOM	2	[0, 0, 0]	-999	PAL1	0	R1175N
542.025	1.821	442038	REC_START	n/a	n/a	6	-999	n/a	HOLE	n/a	n/a	2	[0, 0, 0]	-999	PAL1	0	R1175N
543.846	0.769	443859	REC_EVENT	1821.0	n/a	6	6	HOLE	HOLE	HOLE	BROOM	2	[0, 0, 0]	-999	PAL1	0	R1175N
544.615	2.427	444628	REC_EVENT	2590.0	n/a	6	6	HOLE	<>	HOLE	BROOM	2	[0, 0, 0]	-999	PAL1	0	R1175N
547.042	25.635	447055	REC_END	n/a	n/a	6	-999	n/a	n/a	n/a	n/a	2	[0, 0, 0]	-999	PAL1	0	R1175N
572.677	10.455	472689	ENCODING_START	n/a	n/a	0	-999	n/a	n/a	n/a	n/a	3	[0, 0, 0]	-999	PAL1	0	R1175N
583.132	0.275	483144	STUDY_ORIENT	n/a	n/a	1	3	MAT	MAT	MAT	STOVE	3	[0, 0, 0]	-999	PAL1	0	R1175N
583.998	4.0	484010	STUDY_PAIR	n/a	wordpools/wordpool_EN.txt	1	3	MAT	MAT	MAT	STOVE	3	[0, 0, 0]	-999	PAL1	0	R1175N
589.033	0.275	489045	STUDY_ORIENT	n/a	n/a	2	2	BEAR	BEAR	BEAR	COW	3	[0, 0, 0]	-999	PAL1	0	R1175N
589.866	4.0	489878	STUDY_PAIR	n/a	wordpools/wordpool_EN.txt	2	2	BEAR	BEAR	BEAR	COW	3	[0, 0, 0]	-999	PAL1	0	R1175N
594.9	0.275	494912	STUDY_ORIENT	n/a	n/a	3	5	SHIELD	BARN	APE	SHIELD	3	[0, 0, 0]	-999	PAL1	0	R1175N
595.767	4.0	495779	STUDY_PAIR	n/a	wordpools/wordpool_EN.txt	3	5	SHIELD	BARN	APE	SHIELD	3	[0, 0, 0]	-999	PAL1	0	R1175N
600.802	0.275	500813	STUDY_ORIENT	n/a	n/a	4	6	PEACH	TRAY	SHIP	PEACH	3	[0, 0, 0]	-999	PAL1	0	R1175N
601.819	4.0	501830	STUDY_PAIR	n/a	wordpools/wordpool_EN.txt	4	6	PEACH	TRAY	SHIP	PEACH	3	[0, 0, 0]	-999	PAL1	0	R1175N
606.853	0.275	506864	STUDY_ORIENT	n/a	n/a	5	1	CHALK	n/a	CHALK	KITE	3	[0, 0, 0]	-999	PAL1	0	R1175N
607.652	4.0	507663	STUDY_PAIR	n/a	wordpools/wordpool_EN.txt	5	1	CHALK	n/a	CHALK	KITE	3	[0, 0, 0]	-999	PAL1	0	R1175N
612.686	0.275	512697	STUDY_ORIENT	n/a	n/a	6	4	TRAY	MAT	BLOOM	TRAY	3	[0, 0, 0]	-999	PAL1	0	R1175N
613.52	4.0	513531	STUDY_PAIR	n/a	wordpools/wordpool_EN.txt	6	4	TRAY	MAT	BLOOM	TRAY	3	[0, 0, 0]	-999	PAL1	0	R1175N
617.537	1.0	517548	START	n/a	n/a	-999	-999	n/a	n/a	n/a	n/a	3	[-999, -999, -999]	-999	PAL1	0	R1175N
618.537	0.017	518548	MATH_START	n/a	n/a	-999	-999	n/a	n/a	n/a	n/a	3	[0, 0, 0]	-999	PAL1	0	R1175N
618.554	9.652	518565	PROB	9628.0	n/a	-999	-999	n/a	n/a	n/a	n/a	3	[8, 2, 6]	16	PAL1	0	R1175N
628.206	4.466	528217	PROB	4431.0	n/a	-999	-999	n/a	n/a	n/a	n/a	3	[3, 2, 6]	11	PAL1	0	R1175N
632.672	4.909	532682	PROB	4909.0	n/a	-999	-999	n/a	n/a	n/a	n/a	3	[7, 4, 6]	17	PAL1	0	R1175N
637.581	0.009	537591	STOP	n/a	n/a	-999	-999	n/a	n/a	n/a	n/a	3	[-999, -999, -999]	-999	PAL1	0	R1175N
637.59	0.0	537600	MATH_END	n/a	n/a	-999	-999	n/a	n/a	n/a	n/a	3	[0, 0, 0]	-999	PAL1	0	R1175N
637.59	0.017	537600	TEST_START	n/a	n/a	-999	-999	n/a	n/a	n/a	n/a	3	[0, 0, 0]	-999	PAL1	0	R1175N
637.607	0.275	537617	TEST_ORIENT	n/a	n/a	5	1	CHALK	n/a	CHALK	KITE	3	[0, 0, 0]	-999	PAL1	0	R1175N
638.441	4.0	538451	TEST_PROBE	n/a	wordpools/wordpool_EN.txt	5	1	CHALK	n/a	CHALK	KITE	3	[0, 0, 0]	-999	PAL1	0	R1175N
638.441	5.015	538451	REC_START	n/a	n/a	5	-999	n/a	n/a	n/a	n/a	3	[0, 0, 0]	-999	PAL1	0	R1175N
643.456	0.001	543466	REC_EVENT	5015.0	n/a	5	1	CHALK	<>	CHALK	KITE	3	[0, 0, 0]	-999	PAL1	0	R1175N
643.457	0.017	543467	REC_END	n/a	n/a	5	-999	n/a	n/a	n/a	n/a	3	[0, 0, 0]	-999	PAL1	0	R1175N
643.474	0.275	543484	TEST_ORIENT	n/a	n/a	2	2	BEAR	BEAR	BEAR	COW	3	[0, 0, 0]	-999	PAL1	0	R1175N
644.458	4.0	544468	TEST_PROBE	n/a	wordpools/wordpool_EN.txt	2	2	BEAR	BEAR	BEAR	COW	3	[0, 0, 0]	-999	PAL1	0	R1175N
644.459	0.758	544469	REC_START	n/a	n/a	2	-999	n/a	BEAR	n/a	n/a	3	[0, 0, 0]	-999	PAL1	0	R1175N
645.217	1.219	545227	REC_EVENT	758.0	n/a	2	2	BEAR	BEAR	BEAR	COW	3	[0, 0, 0]	-999	PAL1	0	R1175N
646.436	1.0	546446	REC_EVENT	1977.0	n/a	2	2	BEAR	<>	BEAR	COW	3	[0, 0, 0]	-999	PAL1	0	R1175N
647.436	2.047	547446	REC_EVENT	2977.0	n/a	2	2	BEAR	<>	BEAR	COW	3	[0, 0, 0]	-999	PAL1	0	R1175N
649.483	0.009	549493	REC_END	n/a	n/a	2	-999	n/a	n/a	n/a	n/a	3	[0, 0, 0]	-999	PAL1	0	R1175N
649.492	0.275	549502	TEST_ORIENT	n/a	n/a	1	3	MAT	MAT	MAT	STOVE	3	[0, 0, 0]	-999	PAL1	0	R1175N
650.31	0.0	550320	REC_START	n/a	n/a	1	-999	n/a	MAT	n/a	n/a	3	[0, 0, 0]	-999	PAL1	0	R1175N
650.31	4.0	550320	TEST_PROBE	n/a	wordpools/wordpool_EN.txt	1	3	MAT	MAT	MAT	STOVE	3	[0, 0, 0]	-999	PAL1	0	R1175N
651.167	3.688	551177	REC_EVENT	857.0	n/a	1	3	MAT	MAT	MAT	STOVE	3	[0, 0, 0]	-999	PAL1	0	R1175N
654.855	0.472	554865	REC_EVENT	4545.0	n/a	1	3	MAT	<>	MAT	STOVE	3	[0, 0, 0]	-999	PAL1	0	R1175N
655.327	0.017	555337	REC_END	n/a	n/a	1	-999	n/a	n/a	n/a	n/a	3	[0, 0, 0]	-999	PAL1	0	R1175N
655.344	0.275	555354	TEST_ORIENT	n/a	n/a	6	4	TRAY	MAT	BLOOM	TRAY	3	[0, 0, 0]	-999	PAL1	0	R1175N
656.361	4.0	556371	TEST_PROBE	n/a	wordpools/wordpool_EN.txt	6	4	TRAY	MAT	BLOOM	TRAY	3	[0, 0, 0]	-999	PAL1	0	R1175N
656.362	0.948	556372	REC_START	n/a	n/a	6	-999	n/a	MAT	n/a	n/a	3	[0, 0, 0]	-999	PAL1	0	R1175N
657.31	2.968	557320	REC_EVENT	948.0	n/a	6	4	TRAY	TRAY	BLOOM	TRAY	3	[0, 0, 0]	-999	PAL1	0	R1175N
660.278	0.527	560287	REC_EVENT	3916.0	n/a	6	4	TRAY	<>	BLOOM	TRAY	3	[0, 0, 0]	-999	PAL1	0	R1175N
660.805	0.581	560814	REC_EVENT	4443.0	n/a	6	4	TRAY	MAT	BLOOM	TRAY	3	[0, 0, 0]	-999	PAL1	0	R1175N
661.386	0.009	561395	REC_END	n/a	n/a	6	-999	n/a	n/a	n/a	n/a	3	[0, 0, 0]	-999	PAL1	0	R1175N
661.395	0.275	561404	TEST_ORIENT	n/a	n/a	3	5	SHIELD	BARN	APE	SHIELD	3	[0, 0, 0]	-999	PAL1	0	R1175N
662.395	4.0	562404	TEST_PROBE	n/a	wordpools/wordpool_EN.txt	3	5	SHIELD	BARN	APE	SHIELD	3	[0, 0, 0]	-999	PAL1	0	R1175N
662.396	0.606	562405	REC_START	n/a	n/a	3	-999	n/a	BARN	n/a	n/a	3	[0, 0, 0]	-999	PAL1	0	R1175N
663.002	1.855	563011	REC_EVENT	606.0	n/a	3	5	SHIELD	SHIELD	APE	SHIELD	3	[0, 0, 0]	-999	PAL1	0	R1175N
664.857	2.563	564866	REC_EVENT	2461.0	n/a	3	5	SHIELD	BARN	APE	SHIELD	3	[0, 0, 0]	-999	PAL1	0	R1175N
667.42	0.008	567429	REC_END	n/a	n/a	3	-999	n/a	n/a	n/a	n/a	3	[0, 0, 0]	-999	PAL1	0	R1175N
667.428	0.275	567437	TEST_ORIENT	n/a	n/a	4	6	PEACH	TRAY	SHIP	PEACH	3	[0, 0, 0]	-999	PAL1	0	R1175N
668.346	0.0	568355	REC_START	n/a	n/a	4	-999	n/a	TRAY	n/a	n/a	3	[0, 0, 0]	-999	PAL1	0	R1175N
668.346	4.0	568355	TEST_PROBE	n/a	wordpools/wordpool_EN.txt	4	6	PEACH	TRAY	SHIP	PEACH	3	[0, 0, 0]	-999	PAL1	0	R1175N
669.744	1.309	569753	REC_EVENT	1398.0	n/a	4	6	PEACH	PEACH	SHIP	PEACH	3	[0, 0, 0]	-999	PAL1	0	R1175N
671.053	0.24	571062	REC_EVENT	2707.0	n/a	4	6	PEACH	TRAY	SHIP	PEACH	3	[0, 0, 0]	-999	PAL1	0	R1175N
671.293	2.07	571302	REC_EVENT	2947.0	n/a	4	6	PEACH	<>	SHIP	PEACH	3	[0, 0, 0]	-999	PAL1	0	R1175N
673.363	13.306	573372	REC_END	n/a	n/a	4	-999	n/a	n/a	n/a	n/a	3	[0, 0, 0]	-999	PAL1	0	R1175N
686.669	10.448	586678	ENCODING_START	n/a	n/a	0	-999	n/a	n/a	n/a	n/a	4	[0, 0, 0]	-999	PAL1	0	R1175N
697.117	0.275	597125	STUDY_ORIENT	n/a	n/a	1	5	NOSE	NOSE	ROOM	NOSE	4	[0, 0, 0]	-999	PAL1	0	R1175N
697.918	4.0	597926	STUDY_PAIR	n/a	wordpools/wordpool_EN.txt	1	5	NOSE	NOSE	ROOM	NOSE	4	[0, 0, 0]	-999	PAL1	0	R1175N
702.952	0.275	602960	STUDY_ORIENT	n/a	n/a	2	4	BED	n/a	INK	BED	4	[0, 0, 0]	-999	PAL1	0	R1175N
703.885	4.0	603893	STUDY_PAIR	n/a	wordpools/wordpool_EN.txt	2	4	BED	n/a	INK	BED	4	[0, 0, 0]	-999	PAL1	0	R1175N
708.92	0.275	608928	STUDY_ORIENT	n/a	n/a	3	3	PEN	PEN	PEN	PEAR	4	[0, 0, 0]	-999	PAL1	0	R1175N
709.702	4.0	609710	STUDY_PAIR	n/a	wordpools/wordpool_EN.txt	3	3	PEN	PEN	PEN	PEAR	4	[0, 0, 0]	-999	PAL1	0	R1175N
714.736	0.275	614744	STUDY_ORIENT	n/a	n/a	4	6	STORM	n/a	STORM	ARM	4	[0, 0, 0]	-999	PAL1	0	R1175N
715.67	4.0	615678	STUDY_PAIR	n/a	wordpools/wordpool_EN.txt	4	6	STORM	n/a	STORM	ARM	4	[0, 0, 0]	-999	PAL1	0	R1175N
720.704	0.275	620711	STUDY_ORIENT	n/a	n/a	5	1	ELF	n/a	TOOL	ELF	4	[0, 0, 0]	-999	PAL1	0	R1175N
721.721	4.0	621728	STUDY_PAIR	n/a	wordpools/wordpool_EN.txt	5	1	ELF	n/a	TOOL	ELF	4	[0, 0, 0]	-999	PAL1	0	R1175N
726.755	0.275	626762	STUDY_ORIENT	n/a	n/a	6	2	OAR	OAR	WOLF	OAR	4	[0, 0, 0]	-999	PAL1	0	R1175N
727.705	4.0	627712	STUDY_PAIR	n/a	wordpools/wordpool_EN.txt	6	2	OAR	OAR	WOLF	OAR	4	[0, 0, 0]	-999	PAL1	0	R1175N
731.724	0.999	631731	START	n/a	n/a	-999	-999	n/a	n/a	n/a	n/a	4	[-999, -999, -999]	-999	PAL1	0	R1175N
732.723	0.017	632730	MATH_START	n/a	n/a	-999	-999	n/a	n/a	n/a	n/a	4	[0, 0, 0]	-999	PAL1	0	R1175N
732.74	4.451	632747	PROB	4426.0	n/a	-999	-999	n/a	n/a	n/a	n/a	4	[5, 1, 1]	7	PAL1	0	R1175N
737.191	4.451	637198	PROB	4414.0	n/a	-999	-999	n/a	n/a	n/a	n/a	4	[2, 3, 6]	11	PAL1	0	R1175N
741.642	8.401	641649	PROB	8380.0	n/a	-999	-999	n/a	n/a	n/a	n/a	4	[9, 2, 7]	18	PAL1	0	R1175N
750.043	7.362	650049	PROB	7362.0	n/a	-999	-999	n/a	n/a	n/a	n/a	4	[3, 7, 2]	12	PAL1	0	R1175N
757.405	0.006	657411	STOP	n/a	n/a	-999	-999	n/a	n/a	n/a	n/a	4	[-999, -999, -999]	-999	PAL1	0	R1175N
757.411	0.0	657417	MATH_END	n/a	n/a	-999	-999	n/a	n/a	n/a	n/a	4	[0, 0, 0]	-999	PAL1	0	R1175N
757.411	0.016	657417	TEST_START	n/a	n/a	-999	-999	n/a	n/a	n/a	n/a	4	[0, 0, 0]	-999	PAL1	0	R1175N
757.427	0.275	657433	TEST_ORIENT	n/a	n/a	5	1	ELF	n/a	TOOL	ELF	4	[0, 0, 0]	-999	PAL1	0	R1175N
758.378	4.0	658384	TEST_PROBE	n/a	wordpools/wordpool_EN.txt	5	1	ELF	n/a	TOOL	ELF	4	[0, 0, 0]	-999	PAL1	0	R1175N
758.379	2.135	658385	REC_START	n/a	n/a	5	-999	n/a	n/a	n/a	n/a	4	[0, 0, 0]	-999	PAL1	0	R1175N
760.514	2.889	660520	REC_EVENT	2135.0	n/a	5	1	ELF	<>	TOOL	ELF	4	[0, 0, 0]	-999	PAL1	0	R1175N
763.403	0.009	663409	REC_END	n/a	n/a	5	-999	n/a	n/a	n/a	n/a	4	[0, 0, 0]	-999	PAL1	0	R1175N
763.412	0.275	663418	TEST_ORIENT	n/a	n/a	6	2	OAR	OAR	WOLF	OAR	4	[0, 0, 0]	-999	PAL1	0	R1175N
764.362	4.0	664368	TEST_PROBE	n/a	wordpools/wordpool_EN.txt	6	2	OAR	OAR	WOLF	OAR	4	[0, 0, 0]	-999	PAL1	0	R1175N
764.363	1.418	664369	REC_START	n/a	n/a	6	-999	n/a	OAR	n/a	n/a	4	[0, 0, 0]	-999	PAL1	0	R1175N
765.781	2.045	665787	REC_EVENT	1418.0	n/a	6	2	OAR	OAR	WOLF	OAR	4	[0, 0, 0]	-999	PAL1	0	R1175N
767.826	1.554	667832	REC_EVENT	3463.0	n/a	6	2	OAR	<>	WOLF	OAR	4	[0, 0, 0]	-999	PAL1	0	R1175N
769.38	0.016	669386	REC_END	n/a	n/a	6	-999	n/a	n/a	n/a	n/a	4	[0, 0, 0]	-999	PAL1	0	R1175N
769.396	0.275	669402	TEST_ORIENT	n/a	n/a	3	3	PEN	PEN	PEN	PEAR	4	[0, 0, 0]	-999	PAL1	0	R1175N
770.38	4.0	670386	TEST_PROBE	n/a	wordpools/wordpool_EN.txt	3	3	PEN	PEN	PEN	PEAR	4	[0, 0, 0]	-999	PAL1	0	R1175N
770.38	0.684	670386	REC_START	n/a	n/a	3	-999	n/a	PEN	n/a	n/a	4	[0, 0, 0]	-999	PAL1	0	R1175N
771.064	0.857	671070	REC_EVENT	684.0	n/a	3	3	PEN	PEN	PEN	PEAR	4	[0, 0, 0]	-999	PAL1	0	R1175N
771.921	3.476	671927	REC_EVENT	1541.0	n/a	3	3	PEN	<>	PEN	PEAR	4	[0, 0, 0]	-999	PAL1	0	R1175N
775.397	0.016	675403	REC_END	n/a	n/a	3	-999	n/a	n/a	n/a	n/a	4	[0, 0, 0]	-999	PAL1	0	R1175N
775.413	0.275	675419	TEST_ORIENT	n/a	n/a	2	4	BED	n/a	INK	BED	4	[0, 0, 0]	-999	PAL1	0	R1175N
776.398	0.0	676404	REC_START	n/a	n/a	2	-999	n/a	n/a	n/a	n/a	4	[0, 0, 0]	-999	PAL1	0	R1175N
776.398	4.0	676404	TEST_PROBE	n/a	wordpools/wordpool_EN.txt	2	4	BED	n/a	INK	BED	4	[0, 0, 0]	-999	PAL1	0	R1175N
777.472	3.942	677478	REC_EVENT	1074.0	n/a	2	4	BED	<>	INK	BED	4	[0, 0, 0]	-999	PAL1	0	R1175N
781.414	0.017	681419	REC_END	n/a	n/a	2	-999	n/a	n/a	n/a	n/a	4	[0, 0, 0]	-999	PAL1	0	R1175N
781.431	0.275	681436	TEST_ORIENT	n/a	n/a	1	5	NOSE	NOSE	ROOM	NOSE	4	[0, 0, 0]	-999	PAL1	0	R1175N
782.366	4.0	682371	TEST_PROBE	n/a	wordpools/wordpool_EN.txt	1	5	NOSE	NOSE	ROOM	NOSE	4	[0, 0, 0]	-999	PAL1	0	R1175N
782.366	1.692	682371	REC_START	n/a	n/a	1	-999	n/a	NOSE	n/a	n/a	4	[0, 0, 0]	-999	PAL1	0	R1175N
784.058	3.325	684063	REC_EVENT	1692.0	n/a	1	5	NOSE	NOSE	ROOM	NOSE	4	[0, 0, 0]	-999	PAL1	0	R1175N
787.383	0.017	687388	REC_END	n/a	n/a	1	-999	n/a	n/a	n/a	n/a	4	[0, 0, 0]	-999	PAL1	0	R1175N
787.4	0.275	687405	TEST_ORIENT	n/a	n/a	4	6	STORM	n/a	STORM	ARM	4	[0, 0, 0]	-999	PAL1	0	R1175N
788.4	0.0	688405	REC_START	n/a	n/a	4	-999	n/a	n/a	n/a	n/a	4	[0, 0, 0]	-999	PAL1	0	R1175N
788.4	4.0	688405	TEST_PROBE	n/a	wordpools/wordpool_EN.txt	4	6	STORM	n/a	STORM	ARM	4	[0, 0, 0]	-999	PAL1	0	R1175N
793.415	0.001	693420	REC_EVENT	5015.0	n/a	4	6	STORM	<>	STORM	ARM	4	[0, 0, 0]	-999	PAL1	0	R1175N
793.416	38.638	693421	REC_END	n/a	n/a	4	-999	n/a	n/a	n/a	n/a	4	[0, 0, 0]	-999	PAL1	0	R1175N
832.054	10.438	732058	ENCODING_START	n/a	n/a	0	-999	n/a	n/a	n/a	n/a	5	[0, 0, 0]	-999	PAL1	0	R1175N
842.492	0.275	742495	STUDY_ORIENT	n/a	n/a	1	3	FLUTE	CONE	FLUTE	CONE	5	[0, 0, 0]	-999	PAL1	0	R1175N
843.491	4.0	743494	STUDY_PAIR	n/a	wordpools/wordpool_EN.txt	1	3	FLUTE	CONE	FLUTE	CONE	5	[0, 0, 0]	-999	PAL1	0	R1175N
848.525	0.275	748528	STUDY_ORIENT	n/a	n/a	2	2	CHEEK	n/a	CHEEK	STAIR	5	[0, 0, 0]	-999	PAL1	0	R1175N
849.526	4.0	749529	STUDY_PAIR	n/a	wordpools/wordpool_EN.txt	2	2	CHEEK	n/a	CHEEK	STAIR	5	[0, 0, 0]	-999	PAL1	0	R1175N
854.56	0.275	754563	STUDY_ORIENT	n/a	n/a	3	1	SNAKE	CONE	SNAKE	PHONE	5	[0, 0, 0]	-999	PAL1	0	R1175N
855.41	4.0	755413	STUDY_PAIR	n/a	wordpools/wordpool_EN.txt	3	1	SNAKE	CONE	SNAKE	PHONE	5	[0, 0, 0]	-999	PAL1	0	R1175N
860.444	0.275	760447	STUDY_ORIENT	n/a	n/a	4	6	SNOW	SNOW	SNOW	STONE	5	[0, 0, 0]	-999	PAL1	0	R1175N
861.229	4.0	761232	STUDY_PAIR	n/a	wordpools/wordpool_EN.txt	4	6	SNOW	SNOW	SNOW	STONE	5	[0, 0, 0]	-999	PAL1	0	R1175N
866.263	0.275	766266	STUDY_ORIENT	n/a	n/a	5	5	JUICE	MOOSE	JUICE	BRIDGE	5	[0, 0, 0]	-999	PAL1	0	R1175N
867.197	4.0	767200	STUDY_PAIR	n/a	wordpools/wordpool_EN.txt	5	5	JUICE	MOOSE	JUICE	BRIDGE	5	[0, 0, 0]	-999	PAL1	0	R1175N
872.231	0.275	772233	STUDY_ORIENT	n/a	n/a	6	4	PIPE	n/a	PIPE	GUARD	5	[0, 0, 0]	-999	PAL1	0	R1175N
873.248	4.0	773250	STUDY_PAIR	n/a	wordpools/wordpool_EN.txt	6	4	PIPE	n/a	PIPE	GUARD	5	[0, 0, 0]	-999	PAL1	0	R1175N
877.265	1.0	777267	START	n/a	n/a	-999	-999	n/a	n/a	n/a	n/a	5	[-999, -999, -999]	-999	PAL1	0	R1175N
878.265	0.016	778267	MATH_START	n/a	n/a	-999	-999	n/a	n/a	n/a	n/a	5	[0, 0, 0]	-999	PAL1	0	R1175N
878.281	5.668	778283	PROB	5637.0	n/a	-999	-999	n/a	n/a	n/a	n/a	5	[4, 1, 1]	6	PAL1	0	R1175N
883.949	6.185	783951	PROB	6153.0	n/a	-999	-999	n/a	n/a	n/a	n/a	5	[2, 6, 7]	15	PAL1	0	R1175N
890.134	7.712	790136	PROB	7712.0	n/a	-999	-999	n/a	n/a	n/a	n/a	5	[7, 5, 7]	19	PAL1	0	R1175N
897.846	0.006	797848	STOP	n/a	n/a	-999	-999	n/a	n/a	n/a	n/a	5	[-999, -999, -999]	-999	PAL1	0	R1175N
897.852	0.0	797853	TEST_START	n/a	n/a	-999	-999	n/a	n/a	n/a	n/a	5	[0, 0, 0]	-999	PAL1	0	R1175N
897.852	0.017	797853	MATH_END	n/a	n/a	-999	-999	n/a	n/a	n/a	n/a	5	[0, 0, 0]	-999	PAL1	0	R1175N
897.869	0.275	797870	TEST_ORIENT	n/a	n/a	3	1	SNAKE	CONE	SNAKE	PHONE	5	[0, 0, 0]	-999	PAL1	0	R1175N
898.718	4.0	798719	TEST_PROBE	n/a	wordpools/wordpool_EN.txt	3	1	SNAKE	CONE	SNAKE	PHONE	5	[0, 0, 0]	-999	PAL1	0	R1175N
898.719	4.248	798720	REC_START	n/a	n/a	3	-999	n/a	CONE	n/a	n/a	5	[0, 0, 0]	-999	PAL1	0	R1175N
902.967	0.776	802968	REC_EVENT	4248.0	n/a	3	1	SNAKE	CONE	SNAKE	PHONE	5	[0, 0, 0]	-999	PAL1	0	R1175N
903.743	0.009	803744	REC_END	n/a	n/a	3	-999	n/a	n/a	n/a	n/a	5	[0, 0, 0]	-999	PAL1	0	R1175N
903.752	0.275	803753	TEST_ORIENT	n/a	n/a	2	2	CHEEK	n/a	CHEEK	STAIR	5	[0, 0, 0]	-999	PAL1	0	R1175N
904.702	4.0	804703	TEST_PROBE	n/a	wordpools/wordpool_EN.txt	2	2	CHEEK	n/a	CHEEK	STAIR	5	[0, 0, 0]	-999	PAL1	0	R1175N
904.702	5.015	804703	REC_START	n/a	n/a	2	-999	n/a	n/a	n/a	n/a	5	[0, 0, 0]	-999	PAL1	0	R1175N
909.717	0.003	809718	REC_EVENT	5015.0	n/a	2	2	CHEEK	<>	CHEEK	STAIR	5	[0, 0, 0]	-999	PAL1	0	R1175N
909.72	0.016	809721	REC_END	n/a	n/a	2	-999	n/a	n/a	n/a	n/a	5	[0, 0, 0]	-999	PAL1	0	R1175N
909.736	0.275	809737	TEST_ORIENT	n/a	n/a	1	3	FLUTE	CONE	FLUTE	CONE	5	[0, 0, 0]	-999	PAL1	0	R1175N
910.586	4.0	810587	TEST_PROBE	n/a	wordpools/wordpool_EN.txt	1	3	FLUTE	CONE	FLUTE	CONE	5	[0, 0, 0]	-999	PAL1	0	R1175N
910.587	0.0	810588	REC_START	n/a	n/a	1	-999	n/a	CONE	n/a	n/a	5	[0, 0, 0]	-999	PAL1	0	R1175N
910.587	2.507	810588	REC_EVENT	0.0	n/a	1	3	FLUTE	FLUTE	FLUTE	CONE	5	[0, 0, 0]	-999	PAL1	0	R1175N
913.094	1.195	813095	REC_EVENT	2507.0	n/a	1	3	FLUTE	CONE	FLUTE	CONE	5	[0, 0, 0]	-999	PAL1	0	R1175N
914.289	1.322	814290	REC_EVENT	3702.0	n/a	1	3	FLUTE	<>	FLUTE	CONE	5	[0, 0, 0]	-999	PAL1	0	R1175N
915.611	0.009	815612	REC_END	n/a	n/a	1	-999	n/a	n/a	n/a	n/a	5	[0, 0, 0]	-999	PAL1	0	R1175N
915.62	0.275	815621	TEST_ORIENT	n/a	n/a	6	4	PIPE	n/a	PIPE	GUARD	5	[0, 0, 0]	-999	PAL1	0	R1175N
916.604	4.0	816605	TEST_PROBE	n/a	wordpools/wordpool_EN.txt	6	4	PIPE	n/a	PIPE	GUARD	5	[0, 0, 0]	-999	PAL1	0	R1175N
916.604	0.91	816605	REC_START	n/a	n/a	6	-999	n/a	n/a	n/a	n/a	5	[0, 0, 0]	-999	PAL1	0	R1175N
917.514	2.035	817515	REC_EVENT	910.0	n/a	6	4	PIPE	<>	PIPE	GUARD	5	[0, 0, 0]	-999	PAL1	0	R1175N
919.549	1.0	819550	REC_EVENT	2945.0	n/a	6	4	PIPE	<>	PIPE	GUARD	5	[0, 0, 0]	-999	PAL1	0	R1175N
920.549	1.0	820550	REC_EVENT	3945.0	n/a	6	4	PIPE	<>	PIPE	GUARD	5	[0, 0, 0]	-999	PAL1	0	R1175N
921.549	0.072	821550	REC_EVENT	4945.0	n/a	6	4	PIPE	<>	PIPE	GUARD	5	[0, 0, 0]	-999	PAL1	0	R1175N
921.621	0.017	821622	REC_END	n/a	n/a	6	-999	n/a	n/a	n/a	n/a	5	[0, 0, 0]	-999	PAL1	0	R1175N
921.638	0.275	821639	TEST_ORIENT	n/a	n/a	5	5	JUICE	MOOSE	JUICE	BRIDGE	5	[0, 0, 0]	-999	PAL1	0	R1175N
922.438	4.0	822439	TEST_PROBE	n/a	wordpools/wordpool_EN.txt	5	5	JUICE	MOOSE	JUICE	BRIDGE	5	[0, 0, 0]	-999	PAL1	0	R1175N
922.439	0.994	822440	REC_START	n/a	n/a	5	-999	n/a	MOOSE	n/a	n/a	5	[0, 0, 0]	-999	PAL1	0	R1175N
923.433	1.728	823434	REC_EVENT	994.0	n/a	5	5	JUICE	JUICE	JUICE	BRIDGE	5	[0, 0, 0]	-999	PAL1	0	R1175N
925.161	2.295	825162	REC_EVENT	2722.0	n/a	5	5	JUICE	MOOSE	JUICE	BRIDGE	5	[0, 0, 0]	-999	PAL1	0	R1175N
927.456	0.017	827457	REC_END	n/a	n/a	5	-999	n/a	n/a	n/a	n/a	5	[0, 0, 0]	-999	PAL1	0	R1175N
927.473	0.275	827474	TEST_ORIENT	n/a	n/a	4	6	SNOW	SNOW	SNOW	STONE	5	[0, 0, 0]	-999	PAL1	0	R1175N
928.456	4.0	828456	TEST_PROBE	n/a	wordpools/wordpool_EN.txt	4	6	SNOW	SNOW	SNOW	STONE	5	[0, 0, 0]	-999	PAL1	0	R1175N
928.456	0.697	828456	REC_START	n/a	n/a	4	-999	n/a	SNOW	n/a	n/a	5	[0, 0, 0]	-999	PAL1	0	R1175N
929.153	2.222	829153	REC_EVENT	697.0	n/a	4	6	SNOW	SNOW	SNOW	STONE	5	[0, 0, 0]	-999	PAL1	0	R1175N
931.375	2.106	831375	REC_EVENT	2919.0	n/a	4	6	SNOW	<>	SNOW	STONE	5	[0, 0, 0]	-999	PAL1	0	R1175N
933.481	182.533	833481	REC_END	n/a	n/a	4	-999	n/a	n/a	n/a	n/a	5	[0, 0, 0]	-999	PAL1	0	R1175N
1116.014	10.442	1016008	ENCODING_START	n/a	n/a	0	-999	n/a	n/a	n/a	n/a	6	[0, 0, 0]	-999	PAL1	0	R1175N
1126.456	0.275	1026450	STUDY_ORIENT	n/a	n/a	1	3	ARK	BENCH	BENCH	ARK	6	[0, 0, 0]	-999	PAL1	0	R1175N
1127.308	4.0	1027302	STUDY_PAIR	n/a	wordpools/wordpool_EN.txt	1	3	ARK	BENCH	BENCH	ARK	6	[0, 0, 0]	-999	PAL1	0	R1175N
1132.342	0.275	1032336	STUDY_ORIENT	n/a	n/a	2	6	FORK	CRANE	FORK	CRANE	6	[0, 0, 0]	-999	PAL1	0	R1175N
1133.242	4.0	1033236	STUDY_PAIR	n/a	wordpools/wordpool_EN.txt	2	6	FORK	CRANE	FORK	CRANE	6	[0, 0, 0]	-999	PAL1	0	R1175N
1138.275	0.275	1038268	STUDY_ORIENT	n/a	n/a	3	5	MAZE	n/a	BEAN	MAZE	6	[0, 0, 0]	-999	PAL1	0	R1175N
1139.242	4.0	1039235	STUDY_PAIR	n/a	wordpools/wordpool_EN.txt	3	5	MAZE	n/a	BEAN	MAZE	6	[0, 0, 0]	-999	PAL1	0	R1175N
1144.277	0.275	1044270	STUDY_ORIENT	n/a	n/a	4	2	GOAT	n/a	ICE	GOAT	6	[0, 0, 0]	-999	PAL1	0	R1175N
1145.294	4.0	1045287	STUDY_PAIR	n/a	wordpools/wordpool_EN.txt	4	2	GOAT	n/a	ICE	GOAT	6	[0, 0, 0]	-999	PAL1	0	R1175N
1150.327	0.275	1050320	STUDY_ORIENT	n/a	n/a	5	1	SPEAR	n/a	SPEAR	FOOD	6	[0, 0, 0]	-999	PAL1	0	R1175N
1151.144	4.0	1051137	STUDY_PAIR	n/a	wordpools/wordpool_EN.txt	5	1	SPEAR	n/a	SPEAR	FOOD	6	[0, 0, 0]	-999	PAL1	0	R1175N
1156.179	0.275	1056172	STUDY_ORIENT	n/a	n/a	6	4	PIT	n/a	SCHOOL	PIT	6	[0, 0, 0]	-999	PAL1	0	R1175N
1157.029	4.0	1057022	STUDY_PAIR	n/a	wordpools/wordpool_EN.txt	6	4	PIT	n/a	SCHOOL	PIT	6	[0, 0, 0]	-999	PAL1	0	R1175N
1161.047	0.999	1061040	START	n/a	n/a	-999	-999	n/a	n/a	n/a	n/a	6	[-999, -999, -999]	-999	PAL1	0	R1175N
1162.046	0.017	1062039	MATH_START	n/a	n/a	-999	-999	n/a	n/a	n/a	n/a	6	[0, 0, 0]	-999	PAL1	0	R1175N
1162.063	11.517	1062056	PROB	11494.0	n/a	-999	-999	n/a	n/a	n/a	n/a	6	[4, 8, 6]	18	PAL1	0	R1175N
1173.58	5.336	1073572	PROB	5314.0	n/a	-999	-999	n/a	n/a	n/a	n/a	6	[8, 9, 1]	18	PAL1	0	R1175N
1178.916	8.978	1078908	PROB	8978.0	n/a	-999	-999	n/a	n/a	n/a	n/a	6	[1, 2, 3]	6	PAL1	0	R1175N
1187.894	0.007	1087886	STOP	n/a	n/a	-999	-999	n/a	n/a	n/a	n/a	6	[-999, -999, -999]	-999	PAL1	0	R1175N
1187.901	0.0	1087893	MATH_END	n/a	n/a	-999	-999	n/a	n/a	n/a	n/a	6	[0, 0, 0]	-999	PAL1	0	R1175N
1187.901	0.016	1087893	TEST_START	n/a	n/a	-999	-999	n/a	n/a	n/a	n/a	6	[0, 0, 0]	-999	PAL1	0	R1175N
1187.917	0.275	1087909	TEST_ORIENT	n/a	n/a	5	1	SPEAR	n/a	SPEAR	FOOD	6	[0, 0, 0]	-999	PAL1	0	R1175N
1188.935	4.0	1088927	TEST_PROBE	n/a	wordpools/wordpool_EN.txt	5	1	SPEAR	n/a	SPEAR	FOOD	6	[0, 0, 0]	-999	PAL1	0	R1175N
1188.936	5.024	1088928	REC_START	n/a	n/a	5	-999	n/a	n/a	n/a	n/a	6	[0, 0, 0]	-999	PAL1	0	R1175N
1193.96	0.003	1093952	REC_END	n/a	n/a	5	-999	n/a	n/a	n/a	n/a	6	[0, 0, 0]	-999	PAL1	0	R1175N
1193.963	0.005	1093955	REC_EVENT	5027.0	n/a	5	1	SPEAR	<>	SPEAR	FOOD	6	[0, 0, 0]	-999	PAL1	0	R1175N
1193.968	0.275	1093960	TEST_ORIENT	n/a	n/a	4	2	GOAT	n/a	ICE	GOAT	6	[0, 0, 0]	-999	PAL1	0	R1175N
1194.836	4.0	1094828	TEST_PROBE	n/a	wordpools/wordpool_EN.txt	4	2	GOAT	n/a	ICE	GOAT	6	[0, 0, 0]	-999	PAL1	0	R1175N
1194.836	1.102	1094828	REC_START	n/a	n/a	4	-999	n/a	n/a	n/a	n/a	6	[0, 0, 0]	-999	PAL1	0	R1175N
1195.938	0.659	1095929	REC_EVENT	1102.0	n/a	4	2	GOAT	<>	ICE	GOAT	6	[0, 0, 0]	-999	PAL1	0	R1175N
1196.597	3.256	1096588	REC_EVENT	1761.0	n/a	4	2	GOAT	<>	ICE	GOAT	6	[0, 0, 0]	-999	PAL1	0	R1175N
1199.853	0.017	1099844	REC_END	n/a	n/a	4	-999	n/a	n/a	n/a	n/a	6	[0, 0, 0]	-999	PAL1	0	R1175N
1199.87	0.275	1099861	TEST_ORIENT	n/a	n/a	1	3	ARK	BENCH	BENCH	ARK	6	[0, 0, 0]	-999	PAL1	0	R1175N
1200.803	4.0	1100794	TEST_PROBE	n/a	wordpools/wordpool_EN.txt	1	3	ARK	BENCH	BENCH	ARK	6	[0, 0, 0]	-999	PAL1	0	R1175N
1200.804	0.96	1100795	REC_START	n/a	n/a	1	-999	n/a	BENCH	n/a	n/a	6	[0, 0, 0]	-999	PAL1	0	R1175N
1201.764	4.064	1101755	REC_EVENT	960.0	n/a	1	3	ARK	BENCH	BENCH	ARK	6	[0, 0, 0]	-999	PAL1	0	R1175N
1205.828	0.009	1105819	REC_END	n/a	n/a	1	-999	n/a	n/a	n/a	n/a	6	[0, 0, 0]	-999	PAL1	0	R1175N
1205.837	0.275	1105828	TEST_ORIENT	n/a	n/a	6	4	PIT	n/a	SCHOOL	PIT	6	[0, 0, 0]	-999	PAL1	0	R1175N
1206.736	4.0	1106727	TEST_PROBE	n/a	wordpools/wordpool_EN.txt	6	4	PIT	n/a	SCHOOL	PIT	6	[0, 0, 0]	-999	PAL1	0	R1175N
1206.737	1.304	1106728	REC_START	n/a	n/a	6	-999	n/a	n/a	n/a	n/a	6	[0, 0, 0]	-999	PAL1	0	R1175N
1208.041	3.712	1108032	REC_EVENT	1304.0	n/a	6	4	PIT	<>	SCHOOL	PIT	6	[0, 0, 0]	-999	PAL1	0	R1175N
1211.753	0.018	1111744	REC_END	n/a	n/a	6	-999	n/a	n/a	n/a	n/a	6	[0, 0, 0]	-999	PAL1	0	R1175N
1211.771	0.275	1111762	TEST_ORIENT	n/a	n/a	3	5	MAZE	n/a	BEAN	MAZE	6	[0, 0, 0]	-999	PAL1	0	R1175N
1212.688	4.0	1112679	TEST_PROBE	n/a	wordpools/wordpool_EN.txt	3	5	MAZE	n/a	BEAN	MAZE	6	[0, 0, 0]	-999	PAL1	0	R1175N
1212.688	1.245	1112679	REC_START	n/a	n/a	3	-999	n/a	n/a	n/a	n/a	6	[0, 0, 0]	-999	PAL1	0	R1175N
1213.933	3.772	1113924	REC_EVENT	1245.0	n/a	3	5	MAZE	<>	BEAN	MAZE	6	[0, 0, 0]	-999	PAL1	0	R1175N
1217.705	0.016	1117696	REC_END	n/a	n/a	3	-999	n/a	n/a	n/a	n/a	6	[0, 0, 0]	-999	PAL1	0	R1175N
1217.721	0.275	1117712	TEST_ORIENT	n/a	n/a	2	6	FORK	CRANE	FORK	CRANE	6	[0, 0, 0]	-999	PAL1	0	R1175N
1218.521	4.0	1118512	TEST_PROBE	n/a	wordpools/wordpool_EN.txt	2	6	FORK	CRANE	FORK	CRANE	6	[0, 0, 0]	-999	PAL1	0	R1175N
1218.522	0.807	1118513	REC_START	n/a	n/a	2	-999	n/a	CRANE	n/a	n/a	6	[0, 0, 0]	-999	PAL1	0	R1175N
1219.329	4.218	1119320	REC_EVENT	807.0	n/a	2	6	FORK	CRANE	FORK	CRANE	6	[0, 0, 0]	-999	PAL1	0	R1175N
1223.547	11.451	1123538	REC_END	n/a	n/a	2	-999	n/a	n/a	n/a	n/a	6	[0, 0, 0]	-999	PAL1	0	R1175N
1234.998	10.445	1134988	ENCODING_START	n/a	n/a	0	-999	n/a	n/a	n/a	n/a	7	[0, 0, 0]	-999	PAL1	0	R1175N
1245.443	0.275	1145433	STUDY_ORIENT	n/a	n/a	1	1	WALL	n/a	WALL	GEESE	7	[0, 0, 0]	-999	PAL1	0	R1175N
1246.26	4.0	1146250	STUDY_PAIR	n/a	wordpools/wordpool_EN.txt	1	1	WALL	n/a	WALL	GEESE	7	[0, 0, 0]	-999	PAL1	0	R1175N
1251.296	0.275	1151286	STUDY_ORIENT	n/a	n/a	2	4	PEA	PEA	PEA	VINE	7	[0, 0, 0]	-999	PAL1	0	R1175N
1252.078	4.0	1152068	STUDY_PAIR	n/a	wordpools/wordpool_EN.txt	2	4	PEA	PEA	PEA	VINE	7	[0, 0, 0]	-999	PAL1	0	R1175N
1257.113	0.275	1157102	STUDY_ORIENT	n/a	n/a	3	3	STREET	n/a	CLIFF	STREET	7	[0, 0, 0]	-999	PAL1	0	R1175N
1257.897	4.0	1157886	STUDY_PAIR	n/a	wordpools/wordpool_EN.txt	3	3	STREET	n/a	CLIFF	STREET	7	[0, 0, 0]	-999	PAL1	0	R1175N
1262.93	0.275	1162919	STUDY_ORIENT	n/a	n/a	4	6	ZOO	ZOO	ZOO	BOX	7	[0, 0, 0]	-999	PAL1	0	R1175N
1263.93	4.0	1163919	STUDY_PAIR	n/a	wordpools/wordpool_EN.txt	4	6	ZOO	ZOO	ZOO	BOX	7	[0, 0, 0]	-999	PAL1	0	R1175N
1268.965	0.275	1168954	STUDY_ORIENT	n/a	n/a	5	5	SHRIMP	n/a	SOCK	SHRIMP	7	[0, 0, 0]	-999	PAL1	0	R1175N
1269.815	4.0	1169804	STUDY_PAIR	n/a	wordpools/wordpool_EN.txt	5	5	SHRIMP	n/a	SOCK	SHRIMP	7	[0, 0, 0]	-999	PAL1	0	R1175N
1274.849	0.275	1174838	STUDY_ORIENT	n/a	n/a	6	2	PARK	n/a	PARK	FISH	7	[0, 0, 0]	-999	PAL1	0	R1175N
1275.866	4.0	1175855	STUDY_PAIR	n/a	wordpools/wordpool_EN.txt	6	2	PARK	n/a	PARK	FISH	7	[0, 0, 0]	-999	PAL1	0	R1175N
1279.884	0.999	1179873	START	n/a	n/a	-999	-999	n/a	n/a	n/a	n/a	7	[-999, -999, -999]	-999	PAL1	0	R1175N
1280.883	0.017	1180872	MATH_START	n/a	n/a	-999	-999	n/a	n/a	n/a	n/a	7	[0, 0, 0]	-999	PAL1	0	R1175N
1280.9	12.568	1180889	PROB	12537.0	n/a	-999	-999	n/a	n/a	n/a	n/a	7	[6, 4, 4]	14	PAL1	0	R1175N
1293.468	5.335	1193456	PROB	5314.0	n/a	-999	-999	n/a	n/a	n/a	n/a	7	[9, 1, 1]	11	PAL1	0	R1175N
1298.803	5.395	1198791	PROB	5395.0	n/a	-999	-999	n/a	n/a	n/a	n/a	7	[4, 4, 4]	12	PAL1	0	R1175N
1304.198	0.006	1204186	STOP	n/a	n/a	-999	-999	n/a	n/a	n/a	n/a	7	[-999, -999, -999]	-999	PAL1	0	R1175N
1304.204	0.0	1204192	MATH_END	n/a	n/a	-999	-999	n/a	n/a	n/a	n/a	7	[0, 0, 0]	-999	PAL1	0	R1175N
1304.204	0.016	1204192	TEST_START	n/a	n/a	-999	-999	n/a	n/a	n/a	n/a	7	[0, 0, 0]	-999	PAL1	0	R1175N
1304.22	0.275	1204208	TEST_ORIENT	n/a	n/a	1	1	WALL	n/a	WALL	GEESE	7	[0, 0, 0]	-999	PAL1	0	R1175N
1305.037	4.0	1205025	TEST_PROBE	n/a	wordpools/wordpool_EN.txt	1	1	WALL	n/a	WALL	GEESE	7	[0, 0, 0]	-999	PAL1	0	R1175N
1305.038	5.021	1205026	REC_START	n/a	n/a	1	-999	n/a	n/a	n/a	n/a	7	[0, 0, 0]	-999	PAL1	0	R1175N
1310.059	0.004	1210047	REC_EVENT	5021.0	n/a	1	1	WALL	<>	WALL	GEESE	7	[0, 0, 0]	-999	PAL1	0	R1175N
1310.063	0.008	1210051	REC_END	n/a	n/a	1	-999	n/a	n/a	n/a	n/a	7	[0, 0, 0]	-999	PAL1	0	R1175N
1310.071	0.275	1210059	TEST_ORIENT	n/a	n/a	6	2	PARK	n/a	PARK	FISH	7	[0, 0, 0]	-999	PAL1	0	R1175N
1311.038	4.0	1211026	TEST_PROBE	n/a	wordpools/wordpool_EN.txt	6	2	PARK	n/a	PARK	FISH	7	[0, 0, 0]	-999	PAL1	0	R1175N
1311.039	1.922	1211027	REC_START	n/a	n/a	6	-999	n/a	n/a	n/a	n/a	7	[0, 0, 0]	-999	PAL1	0	R1175N
1312.961	3.094	1212949	REC_EVENT	1922.0	n/a	6	2	PARK	<>	PARK	FISH	7	[0, 0, 0]	-999	PAL1	0	R1175N
1316.055	0.017	1216042	REC_END	n/a	n/a	6	-999	n/a	n/a	n/a	n/a	7	[0, 0, 0]	-999	PAL1	0	R1175N
1316.072	0.275	1216059	TEST_ORIENT	n/a	n/a	3	3	STREET	n/a	CLIFF	STREET	7	[0, 0, 0]	-999	PAL1	0	R1175N
1316.972	4.0	1216959	TEST_PROBE	n/a	wordpools/wordpool_EN.txt	3	3	STREET	n/a	CLIFF	STREET	7	[0, 0, 0]	-999	PAL1	0	R1175N
1316.973	1.489	1216960	REC_START	n/a	n/a	3	-999	n/a	n/a	n/a	n/a	7	[0, 0, 0]	-999	PAL1	0	R1175N
1318.462	3.537	1218449	REC_EVENT	1489.0	n/a	3	3	STREET	<>	CLIFF	STREET	7	[0, 0, 0]	-999	PAL1	0	R1175N
1321.999	0.008	1221986	REC_END	n/a	n/a	3	-999	n/a	n/a	n/a	n/a	7	[0, 0, 0]	-999	PAL1	0	R1175N
1322.007	0.275	1221994	TEST_ORIENT	n/a	n/a	2	4	PEA	PEA	PEA	VINE	7	[0, 0, 0]	-999	PAL1	0	R1175N
1322.807	4.0	1222794	TEST_PROBE	n/a	wordpools/wordpool_EN.txt	2	4	PEA	PEA	PEA	VINE	7	[0, 0, 0]	-999	PAL1	0	R1175N
1322.808	1.27	1222795	REC_START	n/a	n/a	2	-999	n/a	PEA	n/a	n/a	7	[0, 0, 0]	-999	PAL1	0	R1175N
1324.078	1.166	1224065	REC_EVENT	1270.0	n/a	2	4	PEA	PEA	PEA	VINE	7	[0, 0, 0]	-999	PAL1	0	R1175N
1325.244	2.589	1225231	REC_EVENT	2436.0	n/a	2	4	PEA	<>	PEA	VINE	7	[0, 0, 0]	-999	PAL1	0	R1175N
1327.833	0.008	1227820	REC_END	n/a	n/a	2	-999	n/a	n/a	n/a	n/a	7	[0, 0, 0]	-999	PAL1	0	R1175N
1327.841	0.275	1227828	TEST_ORIENT	n/a	n/a	5	5	SHRIMP	n/a	SOCK	SHRIMP	7	[0, 0, 0]	-999	PAL1	0	R1175N
1328.691	4.0	1228678	TEST_PROBE	n/a	wordpools/wordpool_EN.txt	5	5	SHRIMP	n/a	SOCK	SHRIMP	7	[0, 0, 0]	-999	PAL1	0	R1175N
1328.691	1.148	1228678	REC_START	n/a	n/a	5	-999	n/a	n/a	n/a	n/a	7	[0, 0, 0]	-999	PAL1	0	R1175N
1329.839	3.868	1229826	REC_EVENT	1148.0	n/a	5	5	SHRIMP	<>	SOCK	SHRIMP	7	[0, 0, 0]	-999	PAL1	0	R1175N
1333.707	0.017	1233694	REC_END	n/a	n/a	5	-999	n/a	n/a	n/a	n/a	7	[0, 0, 0]	-999	PAL1	0	R1175N
1333.724	0.275	1233711	TEST_ORIENT	n/a	n/a	4	6	ZOO	ZOO	ZOO	BOX	7	[0, 0, 0]	-999	PAL1	0	R1175N
1334.708	4.0	1234695	TEST_PROBE	n/a	wordpools/wordpool_EN.txt	4	6	ZOO	ZOO	ZOO	BOX	7	[0, 0, 0]	-999	PAL1	0	R1175N
1334.708	0.88	1234695	REC_START	n/a	n/a	4	-999	n/a	ZOO	n/a	n/a	7	[0, 0, 0]	-999	PAL1	0	R1175N
1335.588	2.267	1235575	REC_EVENT	880.0	n/a	4	6	ZOO	ZOO	ZOO	BOX	7	[0, 0, 0]	-999	PAL1	0	R1175N
1337.855	0.578	1237842	REC_EVENT	3147.0	n/a	4	6	ZOO	<>	ZOO	BOX	7	[0, 0, 0]	-999	PAL1	0	R1175N
1338.433	1.292	1238420	REC_EVENT	3725.0	n/a	4	6	ZOO	<>	ZOO	BOX	7	[0, 0, 0]	-999	PAL1	0	R1175N
1339.725	103.008	1239712	REC_END	n/a	n/a	4	-999	n/a	n/a	n/a	n/a	7	[0, 0, 0]	-999	PAL1	0	R1175N
1442.733	10.446	1342716	ENCODING_START	n/a	n/a	0	-999	n/a	n/a	n/a	n/a	8	[0, 0, 0]	-999	PAL1	0	R1175N
1453.179	0.275	1353162	STUDY_ORIENT	n/a	n/a	1	5	RIB	BRICK	RIB	BRICK	8	[0, 0, 0]	-999	PAL1	0	R1175N
1454.113	4.0	1354096	STUDY_PAIR	n/a	wordpools/wordpool_EN.txt	1	5	RIB	BRICK	RIB	BRICK	8	[0, 0, 0]	-999	PAL1	0	R1175N
1459.147	0.275	1359130	STUDY_ORIENT	n/a	n/a	2	2	JET	BARN	BARN	JET	8	[0, 0, 0]	-999	PAL1	0	R1175N
1459.93	4.0	1359913	STUDY_PAIR	n/a	wordpools/wordpool_EN.txt	2	2	JET	BARN	BARN	JET	8	[0, 0, 0]	-999	PAL1	0	R1175N
1464.964	0.275	1364946	STUDY_ORIENT	n/a	n/a	3	1	VASE	n/a	VASE	BEAK	8	[0, 0, 0]	-999	PAL1	0	R1175N
1465.931	4.0	1365913	STUDY_PAIR	n/a	wordpools/wordpool_EN.txt	3	1	VASE	n/a	VASE	BEAK	8	[0, 0, 0]	-999	PAL1	0	R1175N
1470.965	0.275	1370947	STUDY_ORIENT	n/a	n/a	4	4	STRAW	n/a	BOAT	STRAW	8	[0, 0, 0]	-999	PAL1	0	R1175N
1471.849	4.0	1371831	STUDY_PAIR	n/a	wordpools/wordpool_EN.txt	4	4	STRAW	n/a	BOAT	STRAW	8	[0, 0, 0]	-999	PAL1	0	R1175N
1476.883	0.275	1376865	STUDY_ORIENT	n/a	n/a	5	3	CAKE	CAKE	CAKE	OAK	8	[0, 0, 0]	-999	PAL1	0	R1175N
1477.715	4.0	1377697	STUDY_PAIR	n/a	wordpools/wordpool_EN.txt	5	3	CAKE	CAKE	CAKE	OAK	8	[0, 0, 0]	-999	PAL1	0	R1175N
1482.75	0.275	1382732	STUDY_ORIENT	n/a	n/a	6	6	STEAM	STEAM	ROSE	STEAM	8	[0, 0, 0]	-999	PAL1	0	R1175N
1483.733	4.0	1383715	STUDY_PAIR	n/a	wordpools/wordpool_EN.txt	6	6	STEAM	STEAM	ROSE	STEAM	8	[0, 0, 0]	-999	PAL1	0	R1175N
1487.752	0.999	1387734	START	n/a	n/a	-999	-999	n/a	n/a	n/a	n/a	8	[-999, -999, -999]	-999	PAL1	0	R1175N
1488.751	0.017	1388733	MATH_START	n/a	n/a	-999	-999	n/a	n/a	n/a	n/a	8	[0, 0, 0]	-999	PAL1	0	R1175N
1488.768	6.019	1388750	PROB	5998.0	n/a	-999	-999	n/a	n/a	n/a	n/a	8	[4, 9, 1]	19	PAL1	0	R1175N
1494.787	7.084	1394768	PROB	7059.0	n/a	-999	-999	n/a	n/a	n/a	n/a	8	[6, 1, 3]	10	PAL1	0	R1175N
1501.871	8.207	1401852	PROB	8207.0	n/a	-999	-999	n/a	n/a	n/a	n/a	8	[4, 1, 2]	7	PAL1	0	R1175N
1510.078	0.01	1410059	STOP	n/a	n/a	-999	-999	n/a	n/a	n/a	n/a	8	[-999, -999, -999]	-999	PAL1	0	R1175N
1510.088	0.0	1410069	MATH_END	n/a	n/a	-999	-999	n/a	n/a	n/a	n/a	8	[0, 0, 0]	-999	PAL1	0	R1175N
1510.088	0.017	1410069	TEST_START	n/a	n/a	-999	-999	n/a	n/a	n/a	n/a	8	[0, 0, 0]	-999	PAL1	0	R1175N
1510.105	0.275	1410086	TEST_ORIENT	n/a	n/a	3	1	VASE	n/a	VASE	BEAK	8	[0, 0, 0]	-999	PAL1	0	R1175N
1510.905	4.0	1410886	TEST_PROBE	n/a	wordpools/wordpool_EN.txt	3	1	VASE	n/a	VASE	BEAK	8	[0, 0, 0]	-999	PAL1	0	R1175N
1510.907	2.305	1410888	REC_START	n/a	n/a	3	-999	n/a	n/a	n/a	n/a	8	[0, 0, 0]	-999	PAL1	0	R1175N
1513.212	2.711	1413193	REC_EVENT	2305.0	n/a	3	1	VASE	<>	VASE	BEAK	8	[0, 0, 0]	-999	PAL1	0	R1175N
1515.923	0.016	1415904	REC_END	n/a	n/a	3	-999	n/a	n/a	n/a	n/a	8	[0, 0, 0]	-999	PAL1	0	R1175N
1515.939	0.275	1415920	TEST_ORIENT	n/a	n/a	2	2	JET	BARN	BARN	JET	8	[0, 0, 0]	-999	PAL1	0	R1175N
1516.755	4.0	1416736	TEST_PROBE	n/a	wordpools/wordpool_EN.txt	2	2	JET	BARN	BARN	JET	8	[0, 0, 0]	-999	PAL1	0	R1175N
1516.756	1.04	1416737	REC_START	n/a	n/a	2	-999	n/a	BARN	n/a	n/a	8	[0, 0, 0]	-999	PAL1	0	R1175N
1517.796	0.421	1417777	REC_EVENT	1040.0	n/a	2	2	JET	JET	BARN	JET	8	[0, 0, 0]	-999	PAL1	0	R1175N
1518.217	3.565	1418198	REC_EVENT	1461.0	n/a	2	2	JET	BARN	BARN	JET	8	[0, 0, 0]	-999	PAL1	0	R1175N
1521.782	0.009	1421763	REC_END	n/a	n/a	2	-999	n/a	n/a	n/a	n/a	8	[0, 0, 0]	-999	PAL1	0	R1175N
1521.791	0.275	1421772	TEST_ORIENT	n/a	n/a	5	3	CAKE	CAKE	CAKE	OAK	8	[0, 0, 0]	-999	PAL1	0	R1175N
1522.673	4.0	1422653	TEST_PROBE	n/a	wordpools/wordpool_EN.txt	5	3	CAKE	CAKE	CAKE	OAK	8	[0, 0, 0]	-999	PAL1	0	R1175N
1522.674	1.467	1422654	REC_START	n/a	n/a	5	-999	n/a	CAKE	n/a	n/a	8	[0, 0, 0]	-999	PAL1	0	R1175N
1524.141	0.756	1424121	REC_EVENT	1467.0	n/a	5	3	CAKE	CAKE	CAKE	OAK	8	[0, 0, 0]	-999	PAL1	0	R1175N
1524.897	2.793	1424877	REC_EVENT	2223.0	n/a	5	3	CAKE	<>	CAKE	OAK	8	[0, 0, 0]	-999	PAL1	0	R1175N
1527.69	0.017	1427670	REC_END	n/a	n/a	5	-999	n/a	n/a	n/a	n/a	8	[0, 0, 0]	-999	PAL1	0	R1175N
1527.707	0.275	1427687	TEST_ORIENT	n/a	n/a	4	4	STRAW	n/a	BOAT	STRAW	8	[0, 0, 0]	-999	PAL1	0	R1175N
1528.524	4.0	1428504	TEST_PROBE	n/a	wordpools/wordpool_EN.txt	4	4	STRAW	n/a	BOAT	STRAW	8	[0, 0, 0]	-999	PAL1	0	R1175N
1528.525	1.477	1428505	REC_START	n/a	n/a	4	-999	n/a	n/a	n/a	n/a	8	[0, 0, 0]	-999	PAL1	0	R1175N
1530.002	3.547	1429982	REC_EVENT	1477.0	n/a	4	4	STRAW	<>	BOAT	STRAW	8	[0, 0, 0]	-999	PAL1	0	R1175N
1533.549	0.01	1433529	REC_END	n/a	n/a	4	-999	n/a	n/a	n/a	n/a	8	[0, 0, 0]	-999	PAL1	0	R1175N
1533.559	0.275	1433539	TEST_ORIENT	n/a	n/a	1	5	RIB	BRICK	RIB	BRICK	8	[0, 0, 0]	-999	PAL1	0	R1175N
1534.359	4.0	1434339	TEST_PROBE	n/a	wordpools/wordpool_EN.txt	1	5	RIB	BRICK	RIB	BRICK	8	[0, 0, 0]	-999	PAL1	0	R1175N
1534.36	0.82	1434340	REC_START	n/a	n/a	1	-999	n/a	BRICK	n/a	n/a	8	[0, 0, 0]	-999	PAL1	0	R1175N
1535.18	0.485	1435160	REC_EVENT	820.0	n/a	1	5	RIB	RIB	RIB	BRICK	8	[0, 0, 0]	-999	PAL1	0	R1175N
1535.665	3.72	1435645	REC_EVENT	1305.0	n/a	1	5	RIB	BRICK	RIB	BRICK	8	[0, 0, 0]	-999	PAL1	0	R1175N
1539.385	0.009	1439365	REC_END	n/a	n/a	1	-999	n/a	n/a	n/a	n/a	8	[0, 0, 0]	-999	PAL1	0	R1175N
1539.394	0.275	1439374	TEST_ORIENT	n/a	n/a	6	6	STEAM	STEAM	ROSE	STEAM	8	[0, 0, 0]	-999	PAL1	0	R1175N
1540.244	4.0	1440224	TEST_PROBE	n/a	wordpools/wordpool_EN.txt	6	6	STEAM	STEAM	ROSE	STEAM	8	[0, 0, 0]	-999	PAL1	0	R1175N
1540.245	3.074	1440225	REC_START	n/a	n/a	6	-999	n/a	STEAM	n/a	n/a	8	[0, 0, 0]	-999	PAL1	0	R1175N
1543.319	1.942	1443299	REC_EVENT	3074.0	n/a	6	6	STEAM	STEAM	ROSE	STEAM	8	[0, 0, 0]	-999	PAL1	0	R1175N
1545.261	5.144	1445241	REC_END	n/a	n/a	6	-999	n/a	n/a	n/a	n/a	8	[0, 0, 0]	-999	PAL1	0	R1175N
1550.405	10.443	1450385	ENCODING_START	n/a	n/a	0	-999	n/a	n/a	n/a	n/a	9	[0, 0, 0]	-999	PAL1	0	R1175N
1560.848	0.275	1460827	STUDY_ORIENT	n/a	n/a	1	1	BLUSH	n/a	BLUSH	CHIEF	9	[0, 0, 0]	-999	PAL1	0	R1175N
1561.83	4.0	1461809	STUDY_PAIR	n/a	wordpools/wordpool_EN.txt	1	1	BLUSH	n/a	BLUSH	CHIEF	9	[0, 0, 0]	-999	PAL1	0	R1175N
1566.865	0.275	1466844	STUDY_ORIENT	n/a	n/a	2	4	TANK	TANK	TANK	TOY	9	[0, 0, 0]	-999	PAL1	0	R1175N
1567.766	4.0	1467745	STUDY_PAIR	n/a	wordpools/wordpool_EN.txt	2	4	TANK	TANK	TANK	TOY	9	[0, 0, 0]	-999	PAL1	0	R1175N
1572.799	0.275	1472778	STUDY_ORIENT	n/a	n/a	3	5	NET	TANK	NET	PIE	9	[0, 0, 0]	-999	PAL1	0	R1175N
1573.648	4.0	1473627	STUDY_PAIR	n/a	wordpools/wordpool_EN.txt	3	5	NET	TANK	NET	PIE	9	[0, 0, 0]	-999	PAL1	0	R1175N
1578.683	0.275	1478662	STUDY_ORIENT	n/a	n/a	4	6	CUBE	n/a	CUBE	HILL	9	[0, 0, 0]	-999	PAL1	0	R1175N
1579.65	4.0	1479629	STUDY_PAIR	n/a	wordpools/wordpool_EN.txt	4	6	CUBE	n/a	CUBE	HILL	9	[0, 0, 0]	-999	PAL1	0	R1175N
1584.684	0.275	1484662	STUDY_ORIENT	n/a	n/a	5	3	TENT	TENT	TENT	PLANT	9	[0, 0, 0]	-999	PAL1	0	R1175N
1585.568	4.0	1485546	STUDY_PAIR	n/a	wordpools/wordpool_EN.txt	5	3	TENT	TENT	TENT	PLANT	9	[0, 0, 0]	-999	PAL1	0	R1175N
1590.602	0.275	1490580	STUDY_ORIENT	n/a	n/a	6	2	SUIT	SHIRT	SUIT	SHIRT	9	[0, 0, 0]	-999	PAL1	0	R1175N
1591.435	4.0	1491413	STUDY_PAIR	n/a	wordpools/wordpool_EN.txt	6	2	SUIT	SHIRT	SUIT	SHIRT	9	[0, 0, 0]	-999	PAL1	0	R1175N
1595.452	1.0	1495430	START	n/a	n/a	-999	-999	n/a	n/a	n/a	n/a	9	[-999, -999, -999]	-999	PAL1	0	R1175N
1596.452	0.017	1496430	MATH_START	n/a	n/a	-999	-999	n/a	n/a	n/a	n/a	9	[0, 0, 0]	-999	PAL1	0	R1175N
1596.469	5.668	1496447	PROB	5649.0	n/a	-999	-999	n/a	n/a	n/a	n/a	9	[8, 1, 8]	17	PAL1	0	R1175N
1602.137	7.235	1502115	PROB	7205.0	n/a	-999	-999	n/a	n/a	n/a	n/a	9	[3, 7, 9]	19	PAL1	0	R1175N
1609.372	3.901	1509350	PROB	3866.0	n/a	-999	-999	n/a	n/a	n/a	n/a	9	[2, 1, 2]	5	PAL1	0	R1175N
1613.273	10.444	1513250	PROB	10444.0	n/a	-999	-999	n/a	n/a	n/a	n/a	9	[4, 8, 9]	21	PAL1	0	R1175N
1623.717	0.007	1523694	STOP	n/a	n/a	-999	-999	n/a	n/a	n/a	n/a	9	[-999, -999, -999]	-999	PAL1	0	R1175N
1623.724	0.0	1523701	TEST_START	n/a	n/a	-999	-999	n/a	n/a	n/a	n/a	9	[0, 0, 0]	-999	PAL1	0	R1175N
1623.724	0.016	1523701	MATH_END	n/a	n/a	-999	-999	n/a	n/a	n/a	n/a	9	[0, 0, 0]	-999	PAL1	0	R1175N
1623.74	0.275	1523717	TEST_ORIENT	n/a	n/a	1	1	BLUSH	n/a	BLUSH	CHIEF	9	[0, 0, 0]	-999	PAL1	0	R1175N
1624.657	4.0	1524634	TEST_PROBE	n/a	wordpools/wordpool_EN.txt	1	1	BLUSH	n/a	BLUSH	CHIEF	9	[0, 0, 0]	-999	PAL1	0	R1175N
1624.657	1.858	1524634	REC_START	n/a	n/a	1	-999	n/a	n/a	n/a	n/a	9	[0, 0, 0]	-999	PAL1	0	R1175N
1626.515	3.159	1526492	REC_EVENT	1858.0	n/a	1	1	BLUSH	<>	BLUSH	CHIEF	9	[0, 0, 0]	-999	PAL1	0	R1175N
1629.674	0.017	1529651	REC_END	n/a	n/a	1	-999	n/a	n/a	n/a	n/a	9	[0, 0, 0]	-999	PAL1	0	R1175N
1629.691	0.275	1529668	TEST_ORIENT	n/a	n/a	6	2	SUIT	SHIRT	SUIT	SHIRT	9	[0, 0, 0]	-999	PAL1	0	R1175N
1630.491	4.0	1530468	TEST_PROBE	n/a	wordpools/wordpool_EN.txt	6	2	SUIT	SHIRT	SUIT	SHIRT	9	[0, 0, 0]	-999	PAL1	0	R1175N
1630.493	0.883	1530470	REC_START	n/a	n/a	6	-999	n/a	SHIRT	n/a	n/a	9	[0, 0, 0]	-999	PAL1	0	R1175N
1631.376	0.769	1531353	REC_EVENT	883.0	n/a	6	2	SUIT	SUIT	SUIT	SHIRT	9	[0, 0, 0]	-999	PAL1	0	R1175N
1632.145	3.372	1532122	REC_EVENT	1652.0	n/a	6	2	SUIT	SHIRT	SUIT	SHIRT	9	[0, 0, 0]	-999	PAL1	0	R1175N
1635.517	0.009	1535494	REC_END	n/a	n/a	6	-999	n/a	n/a	n/a	n/a	9	[0, 0, 0]	-999	PAL1	0	R1175N
1635.526	0.275	1535503	TEST_ORIENT	n/a	n/a	5	3	TENT	TENT	TENT	PLANT	9	[0, 0, 0]	-999	PAL1	0	R1175N
1636.343	4.0	1536320	TEST_PROBE	n/a	wordpools/wordpool_EN.txt	5	3	TENT	TENT	TENT	PLANT	9	[0, 0, 0]	-999	PAL1	0	R1175N
1636.344	0.993	1536321	REC_START	n/a	n/a	5	-999	n/a	TENT	n/a	n/a	9	[0, 0, 0]	-999	PAL1	0	R1175N
1637.337	4.023	1537314	REC_EVENT	993.0	n/a	5	3	TENT	TENT	TENT	PLANT	9	[0, 0, 0]	-999	PAL1	0	R1175N
1641.36	0.017	1541336	REC_END	n/a	n/a	5	-999	n/a	n/a	n/a	n/a	9	[0, 0, 0]	-999	PAL1	0	R1175N
1641.377	0.275	1541353	TEST_ORIENT	n/a	n/a	2	4	TANK	TANK	TANK	TOY	9	[0, 0, 0]	-999	PAL1	0	R1175N
1642.328	0.0	1542304	REC_START	n/a	n/a	2	-999	n/a	TANK	n/a	n/a	9	[0, 0, 0]	-999	PAL1	0	R1175N
1642.328	4.0	1542304	TEST_PROBE	n/a	wordpools/wordpool_EN.txt	2	4	TANK	TANK	TANK	TOY	9	[0, 0, 0]	-999	PAL1	0	R1175N
1643.648	3.697	1543624	REC_EVENT	1320.0	n/a	2	4	TANK	TANK	TANK	TOY	9	[0, 0, 0]	-999	PAL1	0	R1175N
1647.345	0.017	1547321	REC_END	n/a	n/a	2	-999	n/a	n/a	n/a	n/a	9	[0, 0, 0]	-999	PAL1	0	R1175N
1647.362	0.275	1547338	TEST_ORIENT	n/a	n/a	3	5	NET	TANK	NET	PIE	9	[0, 0, 0]	-999	PAL1	0	R1175N
1648.212	4.0	1548188	TEST_PROBE	n/a	wordpools/wordpool_EN.txt	3	5	NET	TANK	NET	PIE	9	[0, 0, 0]	-999	PAL1	0	R1175N
1648.212	2.756	1548188	REC_START	n/a	n/a	3	-999	n/a	TANK	n/a	n/a	9	[0, 0, 0]	-999	PAL1	0	R1175N
1650.968	2.261	1550944	REC_EVENT	2756.0	n/a	3	5	NET	TANK	NET	PIE	9	[0, 0, 0]	-999	PAL1	0	R1175N
1653.229	0.017	1553205	REC_END	n/a	n/a	3	-999	n/a	n/a	n/a	n/a	9	[0, 0, 0]	-999	PAL1	0	R1175N
1653.246	0.275	1553222	TEST_ORIENT	n/a	n/a	4	6	CUBE	n/a	CUBE	HILL	9	[0, 0, 0]	-999	PAL1	0	R1175N
1654.146	4.0	1554122	TEST_PROBE	n/a	wordpools/wordpool_EN.txt	4	6	CUBE	n/a	CUBE	HILL	9	[0, 0, 0]	-999	PAL1	0	R1175N
1654.147	5.025	1554123	REC_START	n/a	n/a	4	-999	n/a	n/a	n/a	n/a	9	[0, 0, 0]	-999	PAL1	0	R1175N
1659.172	0.002	1559148	REC_END	n/a	n/a	4	-999	n/a	n/a	n/a	n/a	9	[0, 0, 0]	-999	PAL1	0	R1175N
1659.174	24.407	1559150	REC_EVENT	5027.0	n/a	4	6	CUBE	<>	CUBE	HILL	9	[0, 0, 0]	-999	PAL1	0	R1175N
1683.581	10.456	1583556	ENCODING_START	n/a	n/a	0	-999	n/a	n/a	n/a	n/a	10	[0, 0, 0]	-999	PAL1	0	R1175N
1694.037	0.275	1594012	STUDY_ORIENT	n/a	n/a	1	3	MUD	BOY	MUD	BOY	10	[0, 0, 0]	-999	PAL1	0	R1175N
1695.02	4.0	1594995	STUDY_PAIR	n/a	wordpools/wordpool_EN.txt	1	3	MUD	BOY	MUD	BOY	10	[0, 0, 0]	-999	PAL1	0	R1175N
1700.054	0.275	1600029	STUDY_ORIENT	n/a	n/a	2	6	SEA	WAVE	SEA	JEEP	10	[0, 0, 0]	-999	PAL1	0	R1175N
1700.887	4.0	1600861	STUDY_PAIR	n/a	wordpools/wordpool_EN.txt	2	6	SEA	WAVE	SEA	JEEP	10	[0, 0, 0]	-999	PAL1	0	R1175N
1705.922	0.275	1605896	STUDY_ORIENT	n/a	n/a	3	1	MAIL	n/a	PANTS	MAIL	10	[0, 0, 0]	-999	PAL1	0	R1175N
1706.939	4.0	1606913	STUDY_PAIR	n/a	wordpools/wordpool_EN.txt	3	1	MAIL	n/a	PANTS	MAIL	10	[0, 0, 0]	-999	PAL1	0	R1175N
1711.972	0.275	1611946	STUDY_ORIENT	n/a	n/a	4	4	WEED	SOUP	WEED	WAVE	10	[0, 0, 0]	-999	PAL1	0	R1175N
1712.773	4.0	1612747	STUDY_PAIR	n/a	wordpools/wordpool_EN.txt	4	4	WEED	SOUP	WEED	WAVE	10	[0, 0, 0]	-999	PAL1	0	R1175N
1717.807	0.275	1617781	STUDY_ORIENT	n/a	n/a	5	5	JAR	JAR	DOG	JAR	10	[0, 0, 0]	-999	PAL1	0	R1175N
1718.706	4.0	1618680	STUDY_PAIR	n/a	wordpools/wordpool_EN.txt	5	5	JAR	JAR	DOG	JAR	10	[0, 0, 0]	-999	PAL1	0	R1175N
1723.74	0.275	1623714	STUDY_ORIENT	n/a	n/a	6	2	SOUP	n/a	SEAL	SOUP	10	[0, 0, 0]	-999	PAL1	0	R1175N
1724.574	4.0	1624548	STUDY_PAIR	n/a	wordpools/wordpool_EN.txt	6	2	SOUP	n/a	SEAL	SOUP	10	[0, 0, 0]	-999	PAL1	0	R1175N
1728.592	0.999	1628566	START	n/a	n/a	-999	-999	n/a	n/a	n/a	n/a	10	[-999, -999, -999]	-999	PAL1	0	R1175N
1729.591	0.017	1629565	MATH_START	n/a	n/a	-999	-999	n/a	n/a	n/a	n/a	10	[0, 0, 0]	-999	PAL1	0	R1175N
1729.608	12.902	1629582	PROB	12869.0	n/a	-999	-999	n/a	n/a	n/a	n/a	10	[7, 7, 9]	28	PAL1	0	R1175N
1742.51	5.602	1642483	PROB	5576.0	n/a	-999	-999	n/a	n/a	n/a	n/a	10	[4, 7, 1]	12	PAL1	0	R1175N
1748.112	6.485	1648085	PROB	6485.0	n/a	-999	-999	n/a	n/a	n/a	n/a	10	[3, 6, 8]	17	PAL1	0	R1175N
1754.597	0.015	1654570	STOP	n/a	n/a	-999	-999	n/a	n/a	n/a	n/a	10	[-999, -999, -999]	-999	PAL1	0	R1175N
1754.612	0.0	1654585	TEST_START	n/a	n/a	-999	-999	n/a	n/a	n/a	n/a	10	[0, 0, 0]	-999	PAL1	0	R1175N
1754.612	0.017	1654585	MATH_END	n/a	n/a	-999	-999	n/a	n/a	n/a	n/a	10	[0, 0, 0]	-999	PAL1	0	R1175N
1754.629	0.275	1654602	TEST_ORIENT	n/a	n/a	3	1	MAIL	n/a	PANTS	MAIL	10	[0, 0, 0]	-999	PAL1	0	R1175N
1755.546	4.0	1655519	TEST_PROBE	n/a	wordpools/wordpool_EN.txt	3	1	MAIL	n/a	PANTS	MAIL	10	[0, 0, 0]	-999	PAL1	0	R1175N
1755.547	5.025	1655520	REC_START	n/a	n/a	3	-999	n/a	n/a	n/a	n/a	10	[0, 0, 0]	-999	PAL1	0	R1175N
1760.572	0.002	1660544	REC_END	n/a	n/a	3	-999	n/a	n/a	n/a	n/a	10	[0, 0, 0]	-999	PAL1	0	R1175N
1760.574	0.006	1660546	REC_EVENT	5027.0	n/a	3	1	MAIL	<>	PANTS	MAIL	10	[0, 0, 0]	-999	PAL1	0	R1175N
1760.58	0.275	1660552	TEST_ORIENT	n/a	n/a	6	2	SOUP	n/a	SEAL	SOUP	10	[0, 0, 0]	-999	PAL1	0	R1175N
1761.63	4.0	1661602	TEST_PROBE	n/a	wordpools/wordpool_EN.txt	6	2	SOUP	n/a	SEAL	SOUP	10	[0, 0, 0]	-999	PAL1	0	R1175N
1761.631	5.015	1661603	REC_START	n/a	n/a	6	-999	n/a	n/a	n/a	n/a	10	[0, 0, 0]	-999	PAL1	0	R1175N
1766.646	0.001	1666618	REC_EVENT	5015.0	n/a	6	2	SOUP	<>	SEAL	SOUP	10	[0, 0, 0]	-999	PAL1	0	R1175N
1766.647	0.017	1666619	REC_END	n/a	n/a	6	-999	n/a	n/a	n/a	n/a	10	[0, 0, 0]	-999	PAL1	0	R1175N
1766.664	0.275	1666636	TEST_ORIENT	n/a	n/a	1	3	MUD	BOY	MUD	BOY	10	[0, 0, 0]	-999	PAL1	0	R1175N
1767.564	4.0	1667536	TEST_PROBE	n/a	wordpools/wordpool_EN.txt	1	3	MUD	BOY	MUD	BOY	10	[0, 0, 0]	-999	PAL1	0	R1175N
1767.565	1.111	1667537	REC_START	n/a	n/a	1	-999	n/a	BOY	n/a	n/a	10	[0, 0, 0]	-999	PAL1	0	R1175N
1768.676	0.408	1668648	REC_EVENT	1111.0	n/a	1	3	MUD	MUD	MUD	BOY	10	[0, 0, 0]	-999	PAL1	0	R1175N
1769.084	3.498	1669056	REC_EVENT	1519.0	n/a	1	3	MUD	BOY	MUD	BOY	10	[0, 0, 0]	-999	PAL1	0	R1175N
1772.582	0.017	1672554	REC_END	n/a	n/a	1	-999	n/a	n/a	n/a	n/a	10	[0, 0, 0]	-999	PAL1	0	R1175N
1772.599	0.275	1672571	TEST_ORIENT	n/a	n/a	4	4	WEED	SOUP	WEED	WAVE	10	[0, 0, 0]	-999	PAL1	0	R1175N
1773.432	4.0	1673404	TEST_PROBE	n/a	wordpools/wordpool_EN.txt	4	4	WEED	SOUP	WEED	WAVE	10	[0, 0, 0]	-999	PAL1	0	R1175N
1773.433	1.544	1673405	REC_START	n/a	n/a	4	-999	n/a	SOUP	n/a	n/a	10	[0, 0, 0]	-999	PAL1	0	R1175N
1774.977	0.707	1674949	REC_EVENT	1544.0	n/a	4	4	WEED	<>	WEED	WAVE	10	[0, 0, 0]	-999	PAL1	0	R1175N
1775.684	2.765	1675656	REC_EVENT	2251.0	n/a	4	4	WEED	SOUP	WEED	WAVE	10	[0, 0, 0]	-999	PAL1	0	R1175N
1778.449	0.017	1678421	REC_END	n/a	n/a	4	-999	n/a	n/a	n/a	n/a	10	[0, 0, 0]	-999	PAL1	0	R1175N
1778.466	0.275	1678438	TEST_ORIENT	n/a	n/a	5	5	JAR	JAR	DOG	JAR	10	[0, 0, 0]	-999	PAL1	0	R1175N
1779.301	4.0	1679273	TEST_PROBE	n/a	wordpools/wordpool_EN.txt	5	5	JAR	JAR	DOG	JAR	10	[0, 0, 0]	-999	PAL1	0	R1175N
1779.301	1.841	1679273	REC_START	n/a	n/a	5	-999	n/a	JAR	n/a	n/a	10	[0, 0, 0]	-999	PAL1	0	R1175N
1781.142	0.408	1681114	REC_EVENT	1841.0	n/a	5	5	JAR	JAR	DOG	JAR	10	[0, 0, 0]	-999	PAL1	0	R1175N
1781.55	2.768	1681522	REC_EVENT	2249.0	n/a	5	5	JAR	<>	DOG	JAR	10	[0, 0, 0]	-999	PAL1	0	R1175N
1784.318	0.017	1684290	REC_END	n/a	n/a	5	-999	n/a	n/a	n/a	n/a	10	[0, 0, 0]	-999	PAL1	0	R1175N
1784.335	0.275	1684307	TEST_ORIENT	n/a	n/a	2	6	SEA	WAVE	SEA	JEEP	10	[0, 0, 0]	-999	PAL1	0	R1175N
1785.319	4.0	1685291	TEST_PROBE	n/a	wordpools/wordpool_EN.txt	2	6	SEA	WAVE	SEA	JEEP	10	[0, 0, 0]	-999	PAL1	0	R1175N
1785.319	2.035	1685291	REC_START	n/a	n/a	2	-999	n/a	WAVE	n/a	n/a	10	[0, 0, 0]	-999	PAL1	0	R1175N
1787.354	0.531	1687326	REC_EVENT	2035.0	n/a	2	6	SEA	SEA	SEA	JEEP	10	[0, 0, 0]	-999	PAL1	0	R1175N
1787.885	2.451	1687857	REC_EVENT	2566.0	n/a	2	6	SEA	WAVE	SEA	JEEP	10	[0, 0, 0]	-999	PAL1	0	R1175N
1790.336	12.782	1690307	REC_END	n/a	n/a	2	-999	n/a	n/a	n/a	n/a	10	[0, 0, 0]	-999	PAL1	0	R1175N
1803.118	10.438	1703089	ENCODING_START	n/a	n/a	0	-999	n/a	n/a	n/a	n/a	11	[0, 0, 0]	-999	PAL1	0	R1175N
1813.556	0.275	1713527	STUDY_ORIENT	n/a	n/a	1	3	MOON	n/a	MOON	HAND	11	[0, 0, 0]	-999	PAL1	0	R1175N
1814.572	4.0	1714543	STUDY_PAIR	n/a	wordpools/wordpool_EN.txt	1	3	MOON	n/a	MOON	HAND	11	[0, 0, 0]	-999	PAL1	0	R1175N
1819.607	0.275	1719578	STUDY_ORIENT	n/a	n/a	2	2	BRUSH	BRUSH	CLAY	BRUSH	11	[0, 0, 0]	-999	PAL1	0	R1175N
1820.391	4.0	1720361	STUDY_PAIR	n/a	wordpools/wordpool_EN.txt	2	2	BRUSH	BRUSH	CLAY	BRUSH	11	[0, 0, 0]	-999	PAL1	0	R1175N
1825.424	0.275	1725394	STUDY_ORIENT	n/a	n/a	3	5	LAMB	n/a	PASTE	LAMB	11	[0, 0, 0]	-999	PAL1	0	R1175N
1826.309	4.0	1726279	STUDY_PAIR	n/a	wordpools/wordpool_EN.txt	3	5	LAMB	n/a	PASTE	LAMB	11	[0, 0, 0]	-999	PAL1	0	R1175N
1831.343	0.275	1731313	STUDY_ORIENT	n/a	n/a	4	6	VEST	VEST	PET	VEST	11	[0, 0, 0]	-999	PAL1	0	R1175N
1832.36	4.0	1732330	STUDY_PAIR	n/a	wordpools/wordpool_EN.txt	4	6	VEST	VEST	PET	VEST	11	[0, 0, 0]	-999	PAL1	0	R1175N
1837.394	0.275	1737364	STUDY_ORIENT	n/a	n/a	5	1	SEED	n/a	SEED	PURSE	11	[0, 0, 0]	-999	PAL1	0	R1175N
1838.327	4.0	1738297	STUDY_PAIR	n/a	wordpools/wordpool_EN.txt	5	1	SEED	n/a	SEED	PURSE	11	[0, 0, 0]	-999	PAL1	0	R1175N
1843.361	0.275	1743331	STUDY_ORIENT	n/a	n/a	6	4	BEACH	BAND	BAND	BEACH	11	[0, 0, 0]	-999	PAL1	0	R1175N
1844.162	4.0	1744132	STUDY_PAIR	n/a	wordpools/wordpool_EN.txt	6	4	BEACH	BAND	BAND	BEACH	11	[0, 0, 0]	-999	PAL1	0	R1175N
1848.179	1.0	1748149	START	n/a	n/a	-999	-999	n/a	n/a	n/a	n/a	11	[-999, -999, -999]	-999	PAL1	0	R1175N
1849.179	0.017	1749149	MATH_START	n/a	n/a	-999	-999	n/a	n/a	n/a	n/a	11	[0, 0, 0]	-999	PAL1	0	R1175N
1849.196	10.468	1749166	PROB	10441.0	n/a	-999	-999	n/a	n/a	n/a	n/a	11	[9, 7, 8]	24	PAL1	0	R1175N
1859.664	9.206	1759633	PROB	9206.0	n/a	-999	-999	n/a	n/a	n/a	n/a	11	[3, 5, 3]	11	PAL1	0	R1175N
1868.87	0.013	1768839	STOP	n/a	n/a	-999	-999	n/a	n/a	n/a	n/a	11	[-999, -999, -999]	-999	PAL1	0	R1175N
1868.883	0.0	1768852	MATH_END	n/a	n/a	-999	-999	n/a	n/a	n/a	n/a	11	[0, 0, 0]	-999	PAL1	0	R1175N
1868.883	0.016	1768852	TEST_START	n/a	n/a	-999	-999	n/a	n/a	n/a	n/a	11	[0, 0, 0]	-999	PAL1	0	R1175N
1868.899	0.275	1768868	TEST_ORIENT	n/a	n/a	5	1	SEED	n/a	SEED	PURSE	11	[0, 0, 0]	-999	PAL1	0	R1175N
1869.799	4.0	1769768	TEST_PROBE	n/a	wordpools/wordpool_EN.txt	5	1	SEED	n/a	SEED	PURSE	11	[0, 0, 0]	-999	PAL1	0	R1175N
1869.8	5.015	1769769	REC_START	n/a	n/a	5	-999	n/a	n/a	n/a	n/a	11	[0, 0, 0]	-999	PAL1	0	R1175N
1874.815	0.002	1774784	REC_EVENT	5015.0	n/a	5	1	SEED	<>	SEED	PURSE	11	[0, 0, 0]	-999	PAL1	0	R1175N
1874.817	0.017	1774786	REC_END	n/a	n/a	5	-999	n/a	n/a	n/a	n/a	11	[0, 0, 0]	-999	PAL1	0	R1175N
1874.834	0.275	1774803	TEST_ORIENT	n/a	n/a	2	2	BRUSH	BRUSH	CLAY	BRUSH	11	[0, 0, 0]	-999	PAL1	0	R1175N
1875.834	4.0	1775803	TEST_PROBE	n/a	wordpools/wordpool_EN.txt	2	2	BRUSH	BRUSH	CLAY	BRUSH	11	[0, 0, 0]	-999	PAL1	0	R1175N
1875.834	1.466	1775803	REC_START	n/a	n/a	2	-999	n/a	BRUSH	n/a	n/a	11	[0, 0, 0]	-999	PAL1	0	R1175N
1877.3	3.551	1777269	REC_EVENT	1466.0	n/a	2	2	BRUSH	BRUSH	CLAY	BRUSH	11	[0, 0, 0]	-999	PAL1	0	R1175N
1880.851	0.017	1780819	REC_END	n/a	n/a	2	-999	n/a	n/a	n/a	n/a	11	[0, 0, 0]	-999	PAL1	0	R1175N
1880.868	0.275	1780836	TEST_ORIENT	n/a	n/a	1	3	MOON	n/a	MOON	HAND	11	[0, 0, 0]	-999	PAL1	0	R1175N
1881.769	4.0	1781737	TEST_PROBE	n/a	wordpools/wordpool_EN.txt	1	3	MOON	n/a	MOON	HAND	11	[0, 0, 0]	-999	PAL1	0	R1175N
1881.769	1.993	1781737	REC_START	n/a	n/a	1	-999	n/a	n/a	n/a	n/a	11	[0, 0, 0]	-999	PAL1	0	R1175N
1883.762	1.0	1783730	REC_EVENT	1993.0	n/a	1	3	MOON	<>	MOON	HAND	11	[0, 0, 0]	-999	PAL1	0	R1175N
1884.762	1.0	1784730	REC_EVENT	2993.0	n/a	1	3	MOON	<>	MOON	HAND	11	[0, 0, 0]	-999	PAL1	0	R1175N
1885.762	1.0	1785730	REC_EVENT	3993.0	n/a	1	3	MOON	<>	MOON	HAND	11	[0, 0, 0]	-999	PAL1	0	R1175N
1886.762	0.032	1786730	REC_EVENT	4993.0	n/a	1	3	MOON	<>	MOON	HAND	11	[0, 0, 0]	-999	PAL1	0	R1175N
1886.794	0.009	1786762	REC_END	n/a	n/a	1	-999	n/a	n/a	n/a	n/a	11	[0, 0, 0]	-999	PAL1	0	R1175N
1886.803	0.275	1786771	TEST_ORIENT	n/a	n/a	6	4	BEACH	BAND	BAND	BEACH	11	[0, 0, 0]	-999	PAL1	0	R1175N
1887.786	4.0	1787754	TEST_PROBE	n/a	wordpools/wordpool_EN.txt	6	4	BEACH	BAND	BAND	BEACH	11	[0, 0, 0]	-999	PAL1	0	R1175N
1887.786	1.614	1787754	REC_START	n/a	n/a	6	-999	n/a	BAND	n/a	n/a	11	[0, 0, 0]	-999	PAL1	0	R1175N
1889.4	1.154	1789368	REC_EVENT	1614.0	n/a	6	4	BEACH	BEACH	BAND	BEACH	11	[0, 0, 0]	-999	PAL1	0	R1175N
1890.554	2.249	1790522	REC_EVENT	2768.0	n/a	6	4	BEACH	BAND	BAND	BEACH	11	[0, 0, 0]	-999	PAL1	0	R1175N
1892.803	0.017	1792771	REC_END	n/a	n/a	6	-999	n/a	n/a	n/a	n/a	11	[0, 0, 0]	-999	PAL1	0	R1175N
1892.82	0.275	1792788	TEST_ORIENT	n/a	n/a	3	5	LAMB	n/a	PASTE	LAMB	11	[0, 0, 0]	-999	PAL1	0	R1175N
1893.636	4.0	1793604	TEST_PROBE	n/a	wordpools/wordpool_EN.txt	3	5	LAMB	n/a	PASTE	LAMB	11	[0, 0, 0]	-999	PAL1	0	R1175N
1893.636	1.643	1793604	REC_START	n/a	n/a	3	-999	n/a	n/a	n/a	n/a	11	[0, 0, 0]	-999	PAL1	0	R1175N
1895.279	3.374	1795247	REC_EVENT	1643.0	n/a	3	5	LAMB	<>	PASTE	LAMB	11	[0, 0, 0]	-999	PAL1	0	R1175N
1898.653	0.017	1798621	REC_END	n/a	n/a	3	-999	n/a	n/a	n/a	n/a	11	[0, 0, 0]	-999	PAL1	0	R1175N
1898.67	0.275	1798638	TEST_ORIENT	n/a	n/a	4	6	VEST	VEST	PET	VEST	11	[0, 0, 0]	-999	PAL1	0	R1175N
1899.503	4.0	1799471	TEST_PROBE	n/a	wordpools/wordpool_EN.txt	4	6	VEST	VEST	PET	VEST	11	[0, 0, 0]	-999	PAL1	0	R1175N
1899.504	0.877	1799472	REC_START	n/a	n/a	4	-999	n/a	VEST	n/a	n/a	11	[0, 0, 0]	-999	PAL1	0	R1175N
1900.381	3.765	1800349	REC_EVENT	877.0	n/a	4	6	VEST	VEST	PET	VEST	11	[0, 0, 0]	-999	PAL1	0	R1175N
1904.146	0.375	1804114	REC_EVENT	4642.0	n/a	4	6	VEST	<>	PET	VEST	11	[0, 0, 0]	-999	PAL1	0	R1175N
1904.521	8.861	1804489	REC_END	n/a	n/a	4	-999	n/a	n/a	n/a	n/a	11	[0, 0, 0]	-999	PAL1	0	R1175N
1913.382	10.443	1813349	ENCODING_START	n/a	n/a	0	-999	n/a	n/a	n/a	n/a	12	[0, 0, 0]	-999	PAL1	0	R1175N
1923.825	0.275	1823792	STUDY_ORIENT	n/a	n/a	1	5	CHAIR	CHAIR	CHAIR	MAP	12	[0, 0, 0]	-999	PAL1	0	R1175N
1924.741	4.0	1824708	STUDY_PAIR	n/a	wordpools/wordpool_EN.txt	1	5	CHAIR	CHAIR	CHAIR	MAP	12	[0, 0, 0]	-999	PAL1	0	R1175N
1929.776	0.275	1829743	STUDY_ORIENT	n/a	n/a	2	4	FILM	n/a	FILM	SHEEP	12	[0, 0, 0]	-999	PAL1	0	R1175N
1930.692	4.0	1830659	STUDY_PAIR	n/a	wordpools/wordpool_EN.txt	2	4	FILM	n/a	FILM	SHEEP	12	[0, 0, 0]	-999	PAL1	0	R1175N
1935.726	0.275	1835693	STUDY_ORIENT	n/a	n/a	3	1	PLANE	CHAIR	PRINCE	PLANE	12	[0, 0, 0]	-999	PAL1	0	R1175N
1936.51	4.0	1836477	STUDY_PAIR	n/a	wordpools/wordpool_EN.txt	3	1	PLANE	CHAIR	PRINCE	PLANE	12	[0, 0, 0]	-999	PAL1	0	R1175N
1941.544	0.275	1841510	STUDY_ORIENT	n/a	n/a	4	6	MOUTH	n/a	LAMP	MOUTH	12	[0, 0, 0]	-999	PAL1	0	R1175N
1942.444	4.0	1842410	STUDY_PAIR	n/a	wordpools/wordpool_EN.txt	4	6	MOUTH	n/a	LAMP	MOUTH	12	[0, 0, 0]	-999	PAL1	0	R1175N
1947.478	0.275	1847444	STUDY_ORIENT	n/a	n/a	5	3	NAIL	n/a	CANE	NAIL	12	[0, 0, 0]	-999	PAL1	0	R1175N
1948.313	4.0	1848279	STUDY_PAIR	n/a	wordpools/wordpool_EN.txt	5	3	NAIL	n/a	CANE	NAIL	12	[0, 0, 0]	-999	PAL1	0	R1175N
1953.347	0.275	1853313	STUDY_ORIENT	n/a	n/a	6	2	STORE	n/a	BOWL	STORE	12	[0, 0, 0]	-999	PAL1	0	R1175N
1954.164	4.0	1854130	STUDY_PAIR	n/a	wordpools/wordpool_EN.txt	6	2	STORE	n/a	BOWL	STORE	12	[0, 0, 0]	-999	PAL1	0	R1175N
1958.182	0.999	1858148	START	n/a	n/a	-999	-999	n/a	n/a	n/a	n/a	12	[-999, -999, -999]	-999	PAL1	0	R1175N
1959.181	0.017	1859147	MATH_START	n/a	n/a	-999	-999	n/a	n/a	n/a	n/a	12	[0, 0, 0]	-999	PAL1	0	R1175N
1959.198	7.885	1859164	PROB	7856.0	n/a	-999	-999	n/a	n/a	n/a	n/a	12	[3, 8, 1]	12	PAL1	0	R1175N
1967.083	8.035	1867049	PROB	8003.0	n/a	-999	-999	n/a	n/a	n/a	n/a	12	[6, 3, 6]	15	PAL1	0	R1175N
1975.118	4.527	1875083	PROB	4527.0	n/a	-999	-999	n/a	n/a	n/a	n/a	12	[2, 4, 8]	145	PAL1	0	R1175N
1979.645	0.006	1879610	STOP	n/a	n/a	-999	-999	n/a	n/a	n/a	n/a	12	[-999, -999, -999]	-999	PAL1	0	R1175N
1979.651	0.0	1879616	MATH_END	n/a	n/a	-999	-999	n/a	n/a	n/a	n/a	12	[0, 0, 0]	-999	PAL1	0	R1175N
1979.651	0.016	1879616	TEST_START	n/a	n/a	-999	-999	n/a	n/a	n/a	n/a	12	[0, 0, 0]	-999	PAL1	0	R1175N
1979.667	0.275	1879632	TEST_ORIENT	n/a	n/a	3	1	PLANE	CHAIR	PRINCE	PLANE	12	[0, 0, 0]	-999	PAL1	0	R1175N
1980.501	4.0	1880466	TEST_PROBE	n/a	wordpools/wordpool_EN.txt	3	1	PLANE	CHAIR	PRINCE	PLANE	12	[0, 0, 0]	-999	PAL1	0	R1175N
1980.502	1.595	1880467	REC_START	n/a	n/a	3	-999	n/a	CHAIR	n/a	n/a	12	[0, 0, 0]	-999	PAL1	0	R1175N
1982.097	3.429	1882062	REC_EVENT	1595.0	n/a	3	1	PLANE	CHAIR	PRINCE	PLANE	12	[0, 0, 0]	-999	PAL1	0	R1175N
1985.526	0.009	1885491	REC_END	n/a	n/a	3	-999	n/a	n/a	n/a	n/a	12	[0, 0, 0]	-999	PAL1	0	R1175N
1985.535	0.275	1885500	TEST_ORIENT	n/a	n/a	6	2	STORE	n/a	BOWL	STORE	12	[0, 0, 0]	-999	PAL1	0	R1175N
1986.418	4.0	1886383	TEST_PROBE	n/a	wordpools/wordpool_EN.txt	6	2	STORE	n/a	BOWL	STORE	12	[0, 0, 0]	-999	PAL1	0	R1175N
1986.419	0.864	1886384	REC_START	n/a	n/a	6	-999	n/a	n/a	n/a	n/a	12	[0, 0, 0]	-999	PAL1	0	R1175N
1987.283	4.16	1887248	REC_EVENT	864.0	n/a	6	2	STORE	<>	BOWL	STORE	12	[0, 0, 0]	-999	PAL1	0	R1175N
1991.443	0.01	1891408	REC_END	n/a	n/a	6	-999	n/a	n/a	n/a	n/a	12	[0, 0, 0]	-999	PAL1	0	R1175N
1991.453	0.275	1891418	TEST_ORIENT	n/a	n/a	5	3	NAIL	n/a	CANE	NAIL	12	[0, 0, 0]	-999	PAL1	0	R1175N
1992.304	4.0	1892269	TEST_PROBE	n/a	wordpools/wordpool_EN.txt	5	3	NAIL	n/a	CANE	NAIL	12	[0, 0, 0]	-999	PAL1	0	R1175N
1992.305	2.389	1892270	REC_START	n/a	n/a	5	-999	n/a	n/a	n/a	n/a	12	[0, 0, 0]	-999	PAL1	0	R1175N
1994.694	1.0	1894659	REC_EVENT	2389.0	n/a	5	3	NAIL	<>	CANE	NAIL	12	[0, 0, 0]	-999	PAL1	0	R1175N
1995.694	1.626	1895659	REC_EVENT	3389.0	n/a	5	3	NAIL	<>	CANE	NAIL	12	[0, 0, 0]	-999	PAL1	0	R1175N
1997.32	0.017	1897285	REC_END	n/a	n/a	5	-999	n/a	n/a	n/a	n/a	12	[0, 0, 0]	-999	PAL1	0	R1175N
1997.337	0.275	1897302	TEST_ORIENT	n/a	n/a	2	4	FILM	n/a	FILM	SHEEP	12	[0, 0, 0]	-999	PAL1	0	R1175N
1998.221	4.0	1898185	TEST_PROBE	n/a	wordpools/wordpool_EN.txt	2	4	FILM	n/a	FILM	SHEEP	12	[0, 0, 0]	-999	PAL1	0	R1175N
1998.222	1.318	1898186	REC_START	n/a	n/a	2	-999	n/a	n/a	n/a	n/a	12	[0, 0, 0]	-999	PAL1	0	R1175N
1999.54	3.698	1899504	REC_EVENT	1318.0	n/a	2	4	FILM	<>	FILM	SHEEP	12	[0, 0, 0]	-999	PAL1	0	R1175N
2003.238	0.017	1903202	REC_END	n/a	n/a	2	-999	n/a	n/a	n/a	n/a	12	[0, 0, 0]	-999	PAL1	0	R1175N
2003.255	0.275	1903219	TEST_ORIENT	n/a	n/a	1	5	CHAIR	CHAIR	CHAIR	MAP	12	[0, 0, 0]	-999	PAL1	0	R1175N
2004.139	4.0	1904103	TEST_PROBE	n/a	wordpools/wordpool_EN.txt	1	5	CHAIR	CHAIR	CHAIR	MAP	12	[0, 0, 0]	-999	PAL1	0	R1175N
2004.14	0.946	1904104	REC_START	n/a	n/a	1	-999	n/a	CHAIR	n/a	n/a	12	[0, 0, 0]	-999	PAL1	0	R1175N
2005.086	4.078	1905050	REC_EVENT	946.0	n/a	1	5	CHAIR	CHAIR	CHAIR	MAP	12	[0, 0, 0]	-999	PAL1	0	R1175N
2009.164	0.009	1909128	REC_END	n/a	n/a	1	-999	n/a	n/a	n/a	n/a	12	[0, 0, 0]	-999	PAL1	0	R1175N
2009.173	0.275	1909137	TEST_ORIENT	n/a	n/a	4	6	MOUTH	n/a	LAMP	MOUTH	12	[0, 0, 0]	-999	PAL1	0	R1175N
2010.19	4.0	1910154	TEST_PROBE	n/a	wordpools/wordpool_EN.txt	4	6	MOUTH	n/a	LAMP	MOUTH	12	[0, 0, 0]	-999	PAL1	0	R1175N
2010.19	1.637	1910154	REC_START	n/a	n/a	4	-999	n/a	n/a	n/a	n/a	12	[0, 0, 0]	-999	PAL1	0	R1175N
2011.827	3.389	1911791	REC_EVENT	1637.0	n/a	4	6	MOUTH	<>	LAMP	MOUTH	12	[0, 0, 0]	-999	PAL1	0	R1175N
2015.216	129.59	1915180	REC_END	n/a	n/a	4	-999	n/a	n/a	n/a	n/a	12	[0, 0, 0]	-999	PAL1	0	R1175N
2144.806	10.442	2044766	ENCODING_START	n/a	n/a	0	-999	n/a	n/a	n/a	n/a	13	[0, 0, 0]	-999	PAL1	0	R1175N
2155.248	0.275	2055207	STUDY_ORIENT	n/a	n/a	1	1	BOARD	n/a	BOARD	TRUCK	13	[0, 0, 0]	-999	PAL1	0	R1175N
2156.131	4.0	2056090	STUDY_PAIR	n/a	wordpools/wordpool_EN.txt	1	1	BOARD	n/a	BOARD	TRUCK	13	[0, 0, 0]	-999	PAL1	0	R1175N
2161.166	0.275	2061125	STUDY_ORIENT	n/a	n/a	2	6	HOOF	n/a	FLEA	HOOF	13	[0, 0, 0]	-999	PAL1	0	R1175N
2162.149	4.0	2062108	STUDY_PAIR	n/a	wordpools/wordpool_EN.txt	2	6	HOOF	n/a	FLEA	HOOF	13	[0, 0, 0]	-999	PAL1	0	R1175N
2167.183	0.275	2067142	STUDY_ORIENT	n/a	n/a	3	3	DIME	n/a	DIME	BAT	13	[0, 0, 0]	-999	PAL1	0	R1175N
2167.984	4.0	2067943	STUDY_PAIR	n/a	wordpools/wordpool_EN.txt	3	3	DIME	n/a	DIME	BAT	13	[0, 0, 0]	-999	PAL1	0	R1175N
2173.017	0.275	2072976	STUDY_ORIENT	n/a	n/a	4	2	SINK	n/a	SINK	STICK	13	[0, 0, 0]	-999	PAL1	0	R1175N
2173.934	4.0	2073893	STUDY_PAIR	n/a	wordpools/wordpool_EN.txt	4	2	SINK	n/a	SINK	STICK	13	[0, 0, 0]	-999	PAL1	0	R1175N
2178.968	0.275	2078926	STUDY_ORIENT	n/a	n/a	5	5	CUP	n/a	CUP	RAKE	13	[0, 0, 0]	-999	PAL1	0	R1175N
2179.935	4.0	2079893	STUDY_PAIR	n/a	wordpools/wordpool_EN.txt	5	5	CUP	n/a	CUP	RAKE	13	[0, 0, 0]	-999	PAL1	0	R1175N
2184.969	0.275	2084927	STUDY_ORIENT	n/a	n/a	6	4	FUR	n/a	CROW	FUR	13	[0, 0, 0]	-999	PAL1	0	R1175N
2185.836	4.0	2085794	STUDY_PAIR	n/a	wordpools/wordpool_EN.txt	6	4	FUR	n/a	CROW	FUR	13	[0, 0, 0]	-999	PAL1	0	R1175N
2189.854	1.0	2089812	START	n/a	n/a	-999	-999	n/a	n/a	n/a	n/a	13	[-999, -999, -999]	-999	PAL1	0	R1175N
2190.854	0.017	2090812	MATH_START	n/a	n/a	-999	-999	n/a	n/a	n/a	n/a	13	[0, 0, 0]	-999	PAL1	0	R1175N
2190.871	17.269	2090829	PROB	17239.0	n/a	-999	-999	n/a	n/a	n/a	n/a	13	[9, 2, 3]	14	PAL1	0	R1175N
2208.14	6.21	2108097	PROB	6210.0	n/a	-999	-999	n/a	n/a	n/a	n/a	13	[9, 1, 5]	15	PAL1	0	R1175N
2214.35	0.008	2114307	STOP	n/a	n/a	-999	-999	n/a	n/a	n/a	n/a	13	[-999, -999, -999]	-999	PAL1	0	R1175N
2214.358	0.0	2114315	MATH_END	n/a	n/a	-999	-999	n/a	n/a	n/a	n/a	13	[0, 0, 0]	-999	PAL1	0	R1175N
2214.358	0.017	2114315	TEST_START	n/a	n/a	-999	-999	n/a	n/a	n/a	n/a	13	[0, 0, 0]	-999	PAL1	0	R1175N
2214.375	0.275	2114332	TEST_ORIENT	n/a	n/a	1	1	BOARD	n/a	BOARD	TRUCK	13	[0, 0, 0]	-999	PAL1	0	R1175N
2215.308	0.0	2115265	REC_START	n/a	n/a	1	-999	n/a	n/a	n/a	n/a	13	[0, 0, 0]	-999	PAL1	0	R1175N
2215.308	4.0	2115265	TEST_PROBE	n/a	wordpools/wordpool_EN.txt	1	1	BOARD	n/a	BOARD	TRUCK	13	[0, 0, 0]	-999	PAL1	0	R1175N
2217.85	2.475	2117807	REC_EVENT	2542.0	n/a	1	1	BOARD	<>	BOARD	TRUCK	13	[0, 0, 0]	-999	PAL1	0	R1175N
2220.325	0.017	2120282	REC_END	n/a	n/a	1	-999	n/a	n/a	n/a	n/a	13	[0, 0, 0]	-999	PAL1	0	R1175N
2220.342	0.275	2120299	TEST_ORIENT	n/a	n/a	4	2	SINK	n/a	SINK	STICK	13	[0, 0, 0]	-999	PAL1	0	R1175N
2221.275	4.0	2121232	TEST_PROBE	n/a	wordpools/wordpool_EN.txt	4	2	SINK	n/a	SINK	STICK	13	[0, 0, 0]	-999	PAL1	0	R1175N
2221.276	5.025	2121233	REC_START	n/a	n/a	4	-999	n/a	n/a	n/a	n/a	13	[0, 0, 0]	-999	PAL1	0	R1175N
2226.301	0.002	2126258	REC_END	n/a	n/a	4	-999	n/a	n/a	n/a	n/a	13	[0, 0, 0]	-999	PAL1	0	R1175N
2226.303	0.007	2126260	REC_EVENT	5027.0	n/a	4	2	SINK	<>	SINK	STICK	13	[0, 0, 0]	-999	PAL1	0	R1175N
2226.31	0.275	2126267	TEST_ORIENT	n/a	n/a	3	3	DIME	n/a	DIME	BAT	13	[0, 0, 0]	-999	PAL1	0	R1175N
2227.177	0.0	2127134	REC_START	n/a	n/a	3	-999	n/a	n/a	n/a	n/a	13	[0, 0, 0]	-999	PAL1	0	R1175N
2227.177	4.0	2127134	TEST_PROBE	n/a	wordpools/wordpool_EN.txt	3	3	DIME	n/a	DIME	BAT	13	[0, 0, 0]	-999	PAL1	0	R1175N
2232.192	0.002	2132149	REC_EVENT	5015.0	n/a	3	3	DIME	<>	DIME	BAT	13	[0, 0, 0]	-999	PAL1	0	R1175N
2232.194	0.017	2132151	REC_END	n/a	n/a	3	-999	n/a	n/a	n/a	n/a	13	[0, 0, 0]	-999	PAL1	0	R1175N
2232.211	0.275	2132168	TEST_ORIENT	n/a	n/a	6	4	FUR	n/a	CROW	FUR	13	[0, 0, 0]	-999	PAL1	0	R1175N
2233.095	4.0	2133052	TEST_PROBE	n/a	wordpools/wordpool_EN.txt	6	4	FUR	n/a	CROW	FUR	13	[0, 0, 0]	-999	PAL1	0	R1175N
2233.095	5.015	2133052	REC_START	n/a	n/a	6	-999	n/a	n/a	n/a	n/a	13	[0, 0, 0]	-999	PAL1	0	R1175N
2238.11	0.002	2138066	REC_EVENT	5015.0	n/a	6	4	FUR	<>	CROW	FUR	13	[0, 0, 0]	-999	PAL1	0	R1175N
2238.112	0.017	2138068	REC_END	n/a	n/a	6	-999	n/a	n/a	n/a	n/a	13	[0, 0, 0]	-999	PAL1	0	R1175N
2238.129	0.275	2138085	TEST_ORIENT	n/a	n/a	5	5	CUP	n/a	CUP	RAKE	13	[0, 0, 0]	-999	PAL1	0	R1175N
2238.978	4.0	2138934	TEST_PROBE	n/a	wordpools/wordpool_EN.txt	5	5	CUP	n/a	CUP	RAKE	13	[0, 0, 0]	-999	PAL1	0	R1175N
2238.979	5.021	2138935	REC_START	n/a	n/a	5	-999	n/a	n/a	n/a	n/a	13	[0, 0, 0]	-999	PAL1	0	R1175N
2244.0	0.004	2143956	REC_EVENT	5021.0	n/a	5	5	CUP	<>	CUP	RAKE	13	[0, 0, 0]	-999	PAL1	0	R1175N
2244.004	0.009	2143960	REC_END	n/a	n/a	5	-999	n/a	n/a	n/a	n/a	13	[0, 0, 0]	-999	PAL1	0	R1175N
2244.013	0.275	2143969	TEST_ORIENT	n/a	n/a	2	6	HOOF	n/a	FLEA	HOOF	13	[0, 0, 0]	-999	PAL1	0	R1175N
2245.03	4.0	2144986	TEST_PROBE	n/a	wordpools/wordpool_EN.txt	2	6	HOOF	n/a	FLEA	HOOF	13	[0, 0, 0]	-999	PAL1	0	R1175N
2245.031	5.015	2144987	REC_START	n/a	n/a	2	-999	n/a	n/a	n/a	n/a	13	[0, 0, 0]	-999	PAL1	0	R1175N
2250.046	0.001	2150002	REC_EVENT	5015.0	n/a	2	6	HOOF	<>	FLEA	HOOF	13	[0, 0, 0]	-999	PAL1	0	R1175N
2250.047	27.406	2150003	REC_END	n/a	n/a	2	-999	n/a	n/a	n/a	n/a	13	[0, 0, 0]	-999	PAL1	0	R1175N
2277.453	10.45	2177408	ENCODING_START	n/a	n/a	0	-999	n/a	n/a	n/a	n/a	14	[0, 0, 0]	-999	PAL1	0	R1175N
2287.903	0.275	2187858	STUDY_ORIENT	n/a	n/a	1	3	STEM	GRAPE	GRAPE	STEM	14	[0, 0, 0]	-999	PAL1	0	R1175N
2288.92	4.0	2188875	STUDY_PAIR	n/a	wordpools/wordpool_EN.txt	1	3	STEM	GRAPE	GRAPE	STEM	14	[0, 0, 0]	-999	PAL1	0	R1175N
2293.955	0.275	2193910	STUDY_ORIENT	n/a	n/a	2	6	ROAD	n/a	ROOT	ROAD	14	[0, 0, 0]	-999	PAL1	0	R1175N
2294.889	4.0	2194844	STUDY_PAIR	n/a	wordpools/wordpool_EN.txt	2	6	ROAD	n/a	ROOT	ROAD	14	[0, 0, 0]	-999	PAL1	0	R1175N
2299.922	0.275	2199876	STUDY_ORIENT	n/a	n/a	3	5	DOLL	HOUSE	DOLL	BADGE	14	[0, 0, 0]	-999	PAL1	0	R1175N
2300.755	4.0	2200709	STUDY_PAIR	n/a	wordpools/wordpool_EN.txt	3	5	DOLL	HOUSE	DOLL	BADGE	14	[0, 0, 0]	-999	PAL1	0	R1175N
2305.79	0.275	2205744	STUDY_ORIENT	n/a	n/a	4	4	SWORD	n/a	EGG	SWORD	14	[0, 0, 0]	-999	PAL1	0	R1175N
2306.773	4.0	2206727	STUDY_PAIR	n/a	wordpools/wordpool_EN.txt	4	4	SWORD	n/a	EGG	SWORD	14	[0, 0, 0]	-999	PAL1	0	R1175N
2311.808	0.275	2211762	STUDY_ORIENT	n/a	n/a	5	1	HOUSE	n/a	SWAMP	HOUSE	14	[0, 0, 0]	-999	PAL1	0	R1175N
2312.74	4.0	2212694	STUDY_PAIR	n/a	wordpools/wordpool_EN.txt	5	1	HOUSE	n/a	SWAMP	HOUSE	14	[0, 0, 0]	-999	PAL1	0	R1175N
2317.775	0.275	2217729	STUDY_ORIENT	n/a	n/a	6	2	SNAIL	n/a	SNAIL	BRANCH	14	[0, 0, 0]	-999	PAL1	0	R1175N
2318.591	4.0	2218545	STUDY_PAIR	n/a	wordpools/wordpool_EN.txt	6	2	SNAIL	n/a	SNAIL	BRANCH	14	[0, 0, 0]	-999	PAL1	0	R1175N
2322.608	1.0	2222562	START	n/a	n/a	-999	-999	n/a	n/a	n/a	n/a	14	[-999, -999, -999]	-999	PAL1	0	R1175N
2323.608	0.018	2223562	MATH_START	n/a	n/a	-999	-999	n/a	n/a	n/a	n/a	14	[0, 0, 0]	-999	PAL1	0	R1175N
2323.626	16.486	2223580	PROB	16460.0	n/a	-999	-999	n/a	n/a	n/a	n/a	14	[6, 9, 6]	21	PAL1	0	R1175N
2340.112	6.718	2240065	PROB	6718.0	n/a	-999	-999	n/a	n/a	n/a	n/a	14	[4, 2, 3]	9	PAL1	0	R1175N
2346.83	0.017	2246783	STOP	n/a	n/a	-999	-999	n/a	n/a	n/a	n/a	14	[-999, -999, -999]	-999	PAL1	0	R1175N
2346.847	0.0	2246800	MATH_END	n/a	n/a	-999	-999	n/a	n/a	n/a	n/a	14	[0, 0, 0]	-999	PAL1	0	R1175N
2346.847	0.016	2246800	TEST_START	n/a	n/a	-999	-999	n/a	n/a	n/a	n/a	14	[0, 0, 0]	-999	PAL1	0	R1175N
2346.863	0.275	2246816	TEST_ORIENT	n/a	n/a	5	1	HOUSE	n/a	SWAMP	HOUSE	14	[0, 0, 0]	-999	PAL1	0	R1175N
2347.881	4.0	2247834	TEST_PROBE	n/a	wordpools/wordpool_EN.txt	5	1	HOUSE	n/a	SWAMP	HOUSE	14	[0, 0, 0]	-999	PAL1	0	R1175N
2347.881	5.015	2247834	REC_START	n/a	n/a	5	-999	n/a	n/a	n/a	n/a	14	[0, 0, 0]	-999	PAL1	0	R1175N
2352.896	0.002	2252849	REC_EVENT	5015.0	n/a	5	1	HOUSE	<>	SWAMP	HOUSE	14	[0, 0, 0]	-999	PAL1	0	R1175N
2352.898	0.017	2252851	REC_END	n/a	n/a	5	-999	n/a	n/a	n/a	n/a	14	[0, 0, 0]	-999	PAL1	0	R1175N
2352.915	0.275	2252868	TEST_ORIENT	n/a	n/a	6	2	SNAIL	n/a	SNAIL	BRANCH	14	[0, 0, 0]	-999	PAL1	0	R1175N
2353.864	4.0	2253817	TEST_PROBE	n/a	wordpools/wordpool_EN.txt	6	2	SNAIL	n/a	SNAIL	BRANCH	14	[0, 0, 0]	-999	PAL1	0	R1175N
2353.865	1.555	2253818	REC_START	n/a	n/a	6	-999	n/a	n/a	n/a	n/a	14	[0, 0, 0]	-999	PAL1	0	R1175N
2355.42	3.47	2255372	REC_EVENT	1555.0	n/a	6	2	SNAIL	<>	SNAIL	BRANCH	14	[0, 0, 0]	-999	PAL1	0	R1175N
2358.89	0.009	2258842	REC_END	n/a	n/a	6	-999	n/a	n/a	n/a	n/a	14	[0, 0, 0]	-999	PAL1	0	R1175N
2358.899	0.275	2258851	TEST_ORIENT	n/a	n/a	1	3	STEM	GRAPE	GRAPE	STEM	14	[0, 0, 0]	-999	PAL1	0	R1175N
2359.9	0.0	2259852	REC_START	n/a	n/a	1	-999	n/a	GRAPE	n/a	n/a	14	[0, 0, 0]	-999	PAL1	0	R1175N
2359.9	4.0	2259852	TEST_PROBE	n/a	wordpools/wordpool_EN.txt	1	3	STEM	GRAPE	GRAPE	STEM	14	[0, 0, 0]	-999	PAL1	0	R1175N
2360.945	3.971	2260897	REC_EVENT	1045.0	n/a	1	3	STEM	GRAPE	GRAPE	STEM	14	[0, 0, 0]	-999	PAL1	0	R1175N
2364.916	0.017	2264868	REC_END	n/a	n/a	1	-999	n/a	n/a	n/a	n/a	14	[0, 0, 0]	-999	PAL1	0	R1175N
2364.933	0.275	2264885	TEST_ORIENT	n/a	n/a	4	4	SWORD	n/a	EGG	SWORD	14	[0, 0, 0]	-999	PAL1	0	R1175N
2365.733	4.0	2265685	TEST_PROBE	n/a	wordpools/wordpool_EN.txt	4	4	SWORD	n/a	EGG	SWORD	14	[0, 0, 0]	-999	PAL1	0	R1175N
2365.734	5.024	2265686	REC_START	n/a	n/a	4	-999	n/a	n/a	n/a	n/a	14	[0, 0, 0]	-999	PAL1	0	R1175N
2370.758	0.003	2270710	REC_END	n/a	n/a	4	-999	n/a	n/a	n/a	n/a	14	[0, 0, 0]	-999	PAL1	0	R1175N
2370.761	0.007	2270713	REC_EVENT	5027.0	n/a	4	4	SWORD	<>	EGG	SWORD	14	[0, 0, 0]	-999	PAL1	0	R1175N
2370.768	0.275	2270720	TEST_ORIENT	n/a	n/a	3	5	DOLL	HOUSE	DOLL	BADGE	14	[0, 0, 0]	-999	PAL1	0	R1175N
2371.768	4.0	2271720	TEST_PROBE	n/a	wordpools/wordpool_EN.txt	3	5	DOLL	HOUSE	DOLL	BADGE	14	[0, 0, 0]	-999	PAL1	0	R1175N
2371.769	2.197	2271721	REC_START	n/a	n/a	3	-999	n/a	HOUSE	n/a	n/a	14	[0, 0, 0]	-999	PAL1	0	R1175N
2373.966	0.364	2273918	REC_EVENT	2197.0	n/a	3	5	DOLL	DOLL	DOLL	BADGE	14	[0, 0, 0]	-999	PAL1	0	R1175N
2374.33	2.455	2274282	REC_EVENT	2561.0	n/a	3	5	DOLL	HOUSE	DOLL	BADGE	14	[0, 0, 0]	-999	PAL1	0	R1175N
2376.785	0.016	2276737	REC_END	n/a	n/a	3	-999	n/a	n/a	n/a	n/a	14	[0, 0, 0]	-999	PAL1	0	R1175N
2376.801	0.275	2276753	TEST_ORIENT	n/a	n/a	2	6	ROAD	n/a	ROOT	ROAD	14	[0, 0, 0]	-999	PAL1	0	R1175N
2377.802	4.0	2277754	TEST_PROBE	n/a	wordpools/wordpool_EN.txt	2	6	ROAD	n/a	ROOT	ROAD	14	[0, 0, 0]	-999	PAL1	0	R1175N
2377.802	1.947	2277754	REC_START	n/a	n/a	2	-999	n/a	n/a	n/a	n/a	14	[0, 0, 0]	-999	PAL1	0	R1175N
2379.749	3.071	2279701	REC_EVENT	1947.0	n/a	2	6	ROAD	<>	ROOT	ROAD	14	[0, 0, 0]	-999	PAL1	0	R1175N
2382.82	3.426	2282772	REC_END	n/a	n/a	2	-999	n/a	n/a	n/a	n/a	14	[0, 0, 0]	-999	PAL1	0	R1175N
2386.246	10.442	2286197	ENCODING_START	n/a	n/a	0	-999	n/a	n/a	n/a	n/a	15	[0, 0, 0]	-999	PAL1	0	R1175N
2396.688	0.275	2296639	STUDY_ORIENT	n/a	n/a	1	3	FORT	n/a	BIRD	FORT	15	[0, 0, 0]	-999	PAL1	0	R1175N
2397.621	4.0	2297572	STUDY_PAIR	n/a	wordpools/wordpool_EN.txt	1	3	FORT	n/a	BIRD	FORT	15	[0, 0, 0]	-999	PAL1	0	R1175N
2402.655	0.275	2302606	STUDY_ORIENT	n/a	n/a	2	2	SMOKE	SMILE	SMOKE	SMILE	15	[0, 0, 0]	-999	PAL1	0	R1175N
2403.655	4.0	2303606	STUDY_PAIR	n/a	wordpools/wordpool_EN.txt	2	2	SMOKE	SMILE	SMOKE	SMILE	15	[0, 0, 0]	-999	PAL1	0	R1175N
2408.69	0.275	2308641	STUDY_ORIENT	n/a	n/a	3	1	KEY	n/a	MOLE	KEY	15	[0, 0, 0]	-999	PAL1	0	R1175N
2409.507	4.0	2309458	STUDY_PAIR	n/a	wordpools/wordpool_EN.txt	3	1	KEY	n/a	MOLE	KEY	15	[0, 0, 0]	-999	PAL1	0	R1175N
2414.541	0.275	2314491	STUDY_ORIENT	n/a	n/a	4	4	SHOE	n/a	SHOE	HOOK	15	[0, 0, 0]	-999	PAL1	0	R1175N
2415.507	4.0	2315457	STUDY_PAIR	n/a	wordpools/wordpool_EN.txt	4	4	SHOE	n/a	SHOE	HOOK	15	[0, 0, 0]	-999	PAL1	0	R1175N
2420.542	0.275	2320492	STUDY_ORIENT	n/a	n/a	5	5	SOAP	n/a	SOAP	DOOR	15	[0, 0, 0]	-999	PAL1	0	R1175N
2421.36	4.0	2321310	STUDY_PAIR	n/a	wordpools/wordpool_EN.txt	5	5	SOAP	n/a	SOAP	DOOR	15	[0, 0, 0]	-999	PAL1	0	R1175N
2426.393	0.275	2326343	STUDY_ORIENT	n/a	n/a	6	6	CHIN	n/a	WAND	CHIN	15	[0, 0, 0]	-999	PAL1	0	R1175N
2427.394	4.0	2327344	STUDY_PAIR	n/a	wordpools/wordpool_EN.txt	6	6	CHIN	n/a	WAND	CHIN	15	[0, 0, 0]	-999	PAL1	0	R1175N
2431.411	0.999	2331361	START	n/a	n/a	-999	-999	n/a	n/a	n/a	n/a	15	[-999, -999, -999]	-999	PAL1	0	R1175N
2432.41	0.017	2332360	MATH_START	n/a	n/a	-999	-999	n/a	n/a	n/a	n/a	15	[0, 0, 0]	-999	PAL1	0	R1175N
2432.427	8.552	2332377	PROB	8523.0	n/a	-999	-999	n/a	n/a	n/a	n/a	15	[4, 3, 2]	9	PAL1	0	R1175N
2440.979	6.335	2340929	PROB	6307.0	n/a	-999	-999	n/a	n/a	n/a	n/a	15	[1, 5, 4]	10	PAL1	0	R1175N
2447.314	5.044	2347263	PROB	5044.0	n/a	-999	-999	n/a	n/a	n/a	n/a	15	[9, 1, 1]	11	PAL1	0	R1175N
2452.358	0.007	2352307	STOP	n/a	n/a	-999	-999	n/a	n/a	n/a	n/a	15	[-999, -999, -999]	-999	PAL1	0	R1175N
2452.365	0.0	2352314	MATH_END	n/a	n/a	-999	-999	n/a	n/a	n/a	n/a	15	[0, 0, 0]	-999	PAL1	0	R1175N
2452.365	0.016	2352314	TEST_START	n/a	n/a	-999	-999	n/a	n/a	n/a	n/a	15	[0, 0, 0]	-999	PAL1	0	R1175N
2452.381	0.275	2352330	TEST_ORIENT	n/a	n/a	3	1	KEY	n/a	MOLE	KEY	15	[0, 0, 0]	-999	PAL1	0	R1175N
2453.331	4.0	2353280	TEST_PROBE	n/a	wordpools/wordpool_EN.txt	3	1	KEY	n/a	MOLE	KEY	15	[0, 0, 0]	-999	PAL1	0	R1175N
2453.332	5.015	2353281	REC_START	n/a	n/a	3	-999	n/a	n/a	n/a	n/a	15	[0, 0, 0]	-999	PAL1	0	R1175N
2458.347	0.002	2358296	REC_EVENT	5015.0	n/a	3	1	KEY	<>	MOLE	KEY	15	[0, 0, 0]	-999	PAL1	0	R1175N
2458.349	0.016	2358298	REC_END	n/a	n/a	3	-999	n/a	n/a	n/a	n/a	15	[0, 0, 0]	-999	PAL1	0	R1175N
2458.365	0.275	2358314	TEST_ORIENT	n/a	n/a	2	2	SMOKE	SMILE	SMOKE	SMILE	15	[0, 0, 0]	-999	PAL1	0	R1175N
2459.249	4.0	2359198	TEST_PROBE	n/a	wordpools/wordpool_EN.txt	2	2	SMOKE	SMILE	SMOKE	SMILE	15	[0, 0, 0]	-999	PAL1	0	R1175N
2459.249	0.864	2359198	REC_START	n/a	n/a	2	-999	n/a	SMILE	n/a	n/a	15	[0, 0, 0]	-999	PAL1	0	R1175N
2460.113	4.153	2360062	REC_EVENT	864.0	n/a	2	2	SMOKE	SMILE	SMOKE	SMILE	15	[0, 0, 0]	-999	PAL1	0	R1175N
2464.266	0.017	2364215	REC_END	n/a	n/a	2	-999	n/a	n/a	n/a	n/a	15	[0, 0, 0]	-999	PAL1	0	R1175N
2464.283	0.275	2364232	TEST_ORIENT	n/a	n/a	1	3	FORT	n/a	BIRD	FORT	15	[0, 0, 0]	-999	PAL1	0	R1175N
2465.2	4.0	2365149	TEST_PROBE	n/a	wordpools/wordpool_EN.txt	1	3	FORT	n/a	BIRD	FORT	15	[0, 0, 0]	-999	PAL1	0	R1175N
2465.2	2.788	2365149	REC_START	n/a	n/a	1	-999	n/a	n/a	n/a	n/a	15	[0, 0, 0]	-999	PAL1	0	R1175N
2467.988	2.229	2367937	REC_EVENT	2788.0	n/a	1	3	FORT	<>	BIRD	FORT	15	[0, 0, 0]	-999	PAL1	0	R1175N
2470.217	0.017	2370166	REC_END	n/a	n/a	1	-999	n/a	n/a	n/a	n/a	15	[0, 0, 0]	-999	PAL1	0	R1175N
2470.234	0.275	2370183	TEST_ORIENT	n/a	n/a	4	4	SHOE	n/a	SHOE	HOOK	15	[0, 0, 0]	-999	PAL1	0	R1175N
2471.185	4.0	2371134	TEST_PROBE	n/a	wordpools/wordpool_EN.txt	4	4	SHOE	n/a	SHOE	HOOK	15	[0, 0, 0]	-999	PAL1	0	R1175N
2471.186	2.352	2371135	REC_START	n/a	n/a	4	-999	n/a	n/a	n/a	n/a	15	[0, 0, 0]	-999	PAL1	0	R1175N
2473.538	0.503	2373487	REC_EVENT	2352.0	n/a	4	4	SHOE	<>	SHOE	HOOK	15	[0, 0, 0]	-999	PAL1	0	R1175N
2474.041	2.169	2373989	REC_EVENT	2855.0	n/a	4	4	SHOE	<>	SHOE	HOOK	15	[0, 0, 0]	-999	PAL1	0	R1175N
2476.21	0.008	2376158	REC_END	n/a	n/a	4	-999	n/a	n/a	n/a	n/a	15	[0, 0, 0]	-999	PAL1	0	R1175N
2476.218	0.275	2376166	TEST_ORIENT	n/a	n/a	5	5	SOAP	n/a	SOAP	DOOR	15	[0, 0, 0]	-999	PAL1	0	R1175N
2477.236	4.0	2377184	TEST_PROBE	n/a	wordpools/wordpool_EN.txt	5	5	SOAP	n/a	SOAP	DOOR	15	[0, 0, 0]	-999	PAL1	0	R1175N
2477.237	5.024	2377185	REC_START	n/a	n/a	5	-999	n/a	n/a	n/a	n/a	15	[0, 0, 0]	-999	PAL1	0	R1175N
2482.261	0.003	2382209	REC_END	n/a	n/a	5	-999	n/a	n/a	n/a	n/a	15	[0, 0, 0]	-999	PAL1	0	R1175N
2482.264	0.005	2382212	REC_EVENT	5027.0	n/a	5	5	SOAP	<>	SOAP	DOOR	15	[0, 0, 0]	-999	PAL1	0	R1175N
2482.269	0.275	2382217	TEST_ORIENT	n/a	n/a	6	6	CHIN	n/a	WAND	CHIN	15	[0, 0, 0]	-999	PAL1	0	R1175N
2483.153	4.0	2383101	TEST_PROBE	n/a	wordpools/wordpool_EN.txt	6	6	CHIN	n/a	WAND	CHIN	15	[0, 0, 0]	-999	PAL1	0	R1175N
2483.154	5.021	2383102	REC_START	n/a	n/a	6	-999	n/a	n/a	n/a	n/a	15	[0, 0, 0]	-999	PAL1	0	R1175N
2488.175	0.004	2388123	REC_EVENT	5021.0	n/a	6	6	CHIN	<>	WAND	CHIN	15	[0, 0, 0]	-999	PAL1	0	R1175N
2488.179	8.003	2388127	REC_END	n/a	n/a	6	-999	n/a	n/a	n/a	n/a	15	[0, 0, 0]	-999	PAL1	0	R1175N
2496.182	10.441	2396130	ENCODING_START	n/a	n/a	0	-999	n/a	n/a	n/a	n/a	16	[0, 0, 0]	-999	PAL1	0	R1175N
2506.623	0.275	2406570	STUDY_ORIENT	n/a	n/a	1	3	HORSE	TIE	HORSE	TIE	16	[0, 0, 0]	-999	PAL1	0	R1175N
2507.573	4.0	2407520	STUDY_PAIR	n/a	wordpools/wordpool_EN.txt	1	3	HORSE	TIE	HORSE	TIE	16	[0, 0, 0]	-999	PAL1	0	R1175N
2512.607	0.275	2412554	STUDY_ORIENT	n/a	n/a	2	6	SHEET	n/a	SHEET	FRUIT	16	[0, 0, 0]	-999	PAL1	0	R1175N
2513.541	4.0	2413488	STUDY_PAIR	n/a	wordpools/wordpool_EN.txt	2	6	SHEET	n/a	SHEET	FRUIT	16	[0, 0, 0]	-999	PAL1	0	R1175N
2518.575	0.275	2418522	STUDY_ORIENT	n/a	n/a	3	5	FOAM	n/a	TRASH	FOAM	16	[0, 0, 0]	-999	PAL1	0	R1175N
2519.475	4.0	2419422	STUDY_PAIR	n/a	wordpools/wordpool_EN.txt	3	5	FOAM	n/a	TRASH	FOAM	16	[0, 0, 0]	-999	PAL1	0	R1175N
2524.509	0.275	2424456	STUDY_ORIENT	n/a	n/a	4	2	BATH	n/a	GLOVE	BATH	16	[0, 0, 0]	-999	PAL1	0	R1175N
2525.343	4.0	2425290	STUDY_PAIR	n/a	wordpools/wordpool_EN.txt	4	2	BATH	n/a	GLOVE	BATH	16	[0, 0, 0]	-999	PAL1	0	R1175N
2530.377	0.275	2430324	STUDY_ORIENT	n/a	n/a	5	1	GRASS	n/a	TOAD	GRASS	16	[0, 0, 0]	-999	PAL1	0	R1175N
2531.361	4.0	2431308	STUDY_PAIR	n/a	wordpools/wordpool_EN.txt	5	1	GRASS	n/a	TOAD	GRASS	16	[0, 0, 0]	-999	PAL1	0	R1175N
2536.395	0.275	2436341	STUDY_ORIENT	n/a	n/a	6	4	LIP	EAR	EAR	LIP	16	[0, 0, 0]	-999	PAL1	0	R1175N
2537.379	4.0	2437325	STUDY_PAIR	n/a	wordpools/wordpool_EN.txt	6	4	LIP	EAR	EAR	LIP	16	[0, 0, 0]	-999	PAL1	0	R1175N
2541.398	0.999	2441344	START	n/a	n/a	-999	-999	n/a	n/a	n/a	n/a	16	[-999, -999, -999]	-999	PAL1	0	R1175N
2542.397	0.015	2442343	MATH_START	n/a	n/a	-999	-999	n/a	n/a	n/a	n/a	16	[0, 0, 0]	-999	PAL1	0	R1175N
2542.412	10.803	2442358	PROB	10778.0	n/a	-999	-999	n/a	n/a	n/a	n/a	16	[3, 6, 3]	12	PAL1	0	R1175N
2553.215	6.751	2453161	PROB	6719.0	n/a	-999	-999	n/a	n/a	n/a	n/a	16	[1, 4, 1]	6	PAL1	0	R1175N
2559.966	11.719	2459912	PROB	11719.0	n/a	-999	-999	n/a	n/a	n/a	n/a	16	[8, 9, 5]	22	PAL1	0	R1175N
2571.685	0.015	2471630	STOP	n/a	n/a	-999	-999	n/a	n/a	n/a	n/a	16	[-999, -999, -999]	-999	PAL1	0	R1175N
2571.7	0.0	2471645	MATH_END	n/a	n/a	-999	-999	n/a	n/a	n/a	n/a	16	[0, 0, 0]	-999	PAL1	0	R1175N
2571.7	0.017	2471645	TEST_START	n/a	n/a	-999	-999	n/a	n/a	n/a	n/a	16	[0, 0, 0]	-999	PAL1	0	R1175N
2571.717	0.275	2471662	TEST_ORIENT	n/a	n/a	5	1	GRASS	n/a	TOAD	GRASS	16	[0, 0, 0]	-999	PAL1	0	R1175N
2572.717	4.0	2472662	TEST_PROBE	n/a	wordpools/wordpool_EN.txt	5	1	GRASS	n/a	TOAD	GRASS	16	[0, 0, 0]	-999	PAL1	0	R1175N
2572.718	5.015	2472663	REC_START	n/a	n/a	5	-999	n/a	n/a	n/a	n/a	16	[0, 0, 0]	-999	PAL1	0	R1175N
2577.733	0.001	2477678	REC_EVENT	5015.0	n/a	5	1	GRASS	<>	TOAD	GRASS	16	[0, 0, 0]	-999	PAL1	0	R1175N
2577.734	0.017	2477679	REC_END	n/a	n/a	5	-999	n/a	n/a	n/a	n/a	16	[0, 0, 0]	-999	PAL1	0	R1175N
2577.751	0.275	2477696	TEST_ORIENT	n/a	n/a	4	2	BATH	n/a	GLOVE	BATH	16	[0, 0, 0]	-999	PAL1	0	R1175N
2578.769	4.0	2478714	TEST_PROBE	n/a	wordpools/wordpool_EN.txt	4	2	BATH	n/a	GLOVE	BATH	16	[0, 0, 0]	-999	PAL1	0	R1175N
2578.77	5.025	2478715	REC_START	n/a	n/a	4	-999	n/a	n/a	n/a	n/a	16	[0, 0, 0]	-999	PAL1	0	R1175N
2583.795	0.002	2483740	REC_END	n/a	n/a	4	-999	n/a	n/a	n/a	n/a	16	[0, 0, 0]	-999	PAL1	0	R1175N
2583.797	0.006	2483742	REC_EVENT	5027.0	n/a	4	2	BATH	<>	GLOVE	BATH	16	[0, 0, 0]	-999	PAL1	0	R1175N
2583.803	0.275	2483748	TEST_ORIENT	n/a	n/a	1	3	HORSE	TIE	HORSE	TIE	16	[0, 0, 0]	-999	PAL1	0	R1175N
2584.619	4.0	2484564	TEST_PROBE	n/a	wordpools/wordpool_EN.txt	1	3	HORSE	TIE	HORSE	TIE	16	[0, 0, 0]	-999	PAL1	0	R1175N
2584.62	0.945	2484565	REC_START	n/a	n/a	1	-999	n/a	TIE	n/a	n/a	16	[0, 0, 0]	-999	PAL1	0	R1175N
2585.565	0.344	2485510	REC_EVENT	945.0	n/a	1	3	HORSE	<>	HORSE	TIE	16	[0, 0, 0]	-999	PAL1	0	R1175N
2585.909	3.736	2485854	REC_EVENT	1289.0	n/a	1	3	HORSE	TIE	HORSE	TIE	16	[0, 0, 0]	-999	PAL1	0	R1175N
2589.645	0.008	2489590	REC_END	n/a	n/a	1	-999	n/a	n/a	n/a	n/a	16	[0, 0, 0]	-999	PAL1	0	R1175N
2589.653	0.275	2489598	TEST_ORIENT	n/a	n/a	6	4	LIP	EAR	EAR	LIP	16	[0, 0, 0]	-999	PAL1	0	R1175N
2590.587	4.0	2490532	TEST_PROBE	n/a	wordpools/wordpool_EN.txt	6	4	LIP	EAR	EAR	LIP	16	[0, 0, 0]	-999	PAL1	0	R1175N
2590.588	0.96	2490533	REC_START	n/a	n/a	6	-999	n/a	EAR	n/a	n/a	16	[0, 0, 0]	-999	PAL1	0	R1175N
2591.548	4.064	2491493	REC_EVENT	960.0	n/a	6	4	LIP	EAR	EAR	LIP	16	[0, 0, 0]	-999	PAL1	0	R1175N
2595.612	0.01	2495556	REC_END	n/a	n/a	6	-999	n/a	n/a	n/a	n/a	16	[0, 0, 0]	-999	PAL1	0	R1175N
2595.622	0.275	2495566	TEST_ORIENT	n/a	n/a	3	5	FOAM	n/a	TRASH	FOAM	16	[0, 0, 0]	-999	PAL1	0	R1175N
2596.555	0.0	2496499	REC_START	n/a	n/a	3	-999	n/a	n/a	n/a	n/a	16	[0, 0, 0]	-999	PAL1	0	R1175N
2596.555	4.0	2496499	TEST_PROBE	n/a	wordpools/wordpool_EN.txt	3	5	FOAM	n/a	TRASH	FOAM	16	[0, 0, 0]	-999	PAL1	0	R1175N
2599.103	2.469	2499047	REC_EVENT	2548.0	n/a	3	5	FOAM	<>	TRASH	FOAM	16	[0, 0, 0]	-999	PAL1	0	R1175N
2601.572	0.017	2501516	REC_END	n/a	n/a	3	-999	n/a	n/a	n/a	n/a	16	[0, 0, 0]	-999	PAL1	0	R1175N
2601.589	0.275	2501533	TEST_ORIENT	n/a	n/a	2	6	SHEET	n/a	SHEET	FRUIT	16	[0, 0, 0]	-999	PAL1	0	R1175N
2602.539	4.0	2502483	TEST_PROBE	n/a	wordpools/wordpool_EN.txt	2	6	SHEET	n/a	SHEET	FRUIT	16	[0, 0, 0]	-999	PAL1	0	R1175N
2602.539	5.015	2502483	REC_START	n/a	n/a	2	-999	n/a	n/a	n/a	n/a	16	[0, 0, 0]	-999	PAL1	0	R1175N
2607.554	0.002	2507498	REC_EVENT	5015.0	n/a	2	6	SHEET	<>	SHEET	FRUIT	16	[0, 0, 0]	-999	PAL1	0	R1175N
2607.556	11.905	2507500	REC_END	n/a	n/a	2	-999	n/a	n/a	n/a	n/a	16	[0, 0, 0]	-999	PAL1	0	R1175N
2619.461	10.451	2519405	ENCODING_START	n/a	n/a	0	-999	n/a	n/a	n/a	n/a	17	[0, 0, 0]	-999	PAL1	0	R1175N
2629.912	0.275	2529855	STUDY_ORIENT	n/a	n/a	1	1	FAN	WEB	WEB	FAN	17	[0, 0, 0]	-999	PAL1	0	R1175N
2630.795	4.0	2530738	STUDY_PAIR	n/a	wordpools/wordpool_EN.txt	1	1	FAN	WEB	WEB	FAN	17	[0, 0, 0]	-999	PAL1	0	R1175N
2635.829	0.275	2535772	STUDY_ORIENT	n/a	n/a	2	2	COUCH	n/a	COUCH	WORM	17	[0, 0, 0]	-999	PAL1	0	R1175N
2636.846	4.0	2536789	STUDY_PAIR	n/a	wordpools/wordpool_EN.txt	2	2	COUCH	n/a	COUCH	WORM	17	[0, 0, 0]	-999	PAL1	0	R1175N
2641.88	0.275	2541823	STUDY_ORIENT	n/a	n/a	3	3	SQUARE	n/a	HOSE	SQUARE	17	[0, 0, 0]	-999	PAL1	0	R1175N
2642.73	4.0	2542673	STUDY_PAIR	n/a	wordpools/wordpool_EN.txt	3	3	SQUARE	n/a	HOSE	SQUARE	17	[0, 0, 0]	-999	PAL1	0	R1175N
2647.764	0.275	2547707	STUDY_ORIENT	n/a	n/a	4	6	BALL	n/a	BALL	SPARK	17	[0, 0, 0]	-999	PAL1	0	R1175N
2648.747	4.0	2548690	STUDY_PAIR	n/a	wordpools/wordpool_EN.txt	4	6	BALL	n/a	BALL	SPARK	17	[0, 0, 0]	-999	PAL1	0	R1175N
2653.782	0.275	2553724	STUDY_ORIENT	n/a	n/a	5	5	CLOWN	n/a	CLOWN	SUN	17	[0, 0, 0]	-999	PAL1	0	R1175N
2654.715	4.0	2554657	STUDY_PAIR	n/a	wordpools/wordpool_EN.txt	5	5	CLOWN	n/a	CLOWN	SUN	17	[0, 0, 0]	-999	PAL1	0	R1175N
2659.749	0.275	2559691	STUDY_ORIENT	n/a	n/a	6	4	RAT	n/a	HAT	RAT	17	[0, 0, 0]	-999	PAL1	0	R1175N
2660.716	4.0	2560658	STUDY_PAIR	n/a	wordpools/wordpool_EN.txt	6	4	RAT	n/a	HAT	RAT	17	[0, 0, 0]	-999	PAL1	0	R1175N
2664.733	1.0	2564675	START	n/a	n/a	-999	-999	n/a	n/a	n/a	n/a	17	[-999, -999, -999]	-999	PAL1	0	R1175N
2665.733	0.017	2565675	MATH_START	n/a	n/a	-999	-999	n/a	n/a	n/a	n/a	17	[0, 0, 0]	-999	PAL1	0	R1175N
2665.75	12.036	2565692	PROB	12007.0	n/a	-999	-999	n/a	n/a	n/a	n/a	17	[4, 4, 7]	15	PAL1	0	R1175N
2677.786	12.26	2577728	PROB	12260.0	n/a	-999	-999	n/a	n/a	n/a	n/a	17	[8, 4, 5]	15	PAL1	0	R1175N
2690.046	0.009	2589987	STOP	n/a	n/a	-999	-999	n/a	n/a	n/a	n/a	17	[-999, -999, -999]	-999	PAL1	0	R1175N
2690.055	0.0	2589996	MATH_END	n/a	n/a	-999	-999	n/a	n/a	n/a	n/a	17	[0, 0, 0]	-999	PAL1	0	R1175N
2690.055	0.016	2589996	TEST_START	n/a	n/a	-999	-999	n/a	n/a	n/a	n/a	17	[0, 0, 0]	-999	PAL1	0	R1175N
2690.071	0.275	2590012	TEST_ORIENT	n/a	n/a	1	1	FAN	WEB	WEB	FAN	17	[0, 0, 0]	-999	PAL1	0	R1175N
2691.105	4.0	2591046	TEST_PROBE	n/a	wordpools/wordpool_EN.txt	1	1	FAN	WEB	WEB	FAN	17	[0, 0, 0]	-999	PAL1	0	R1175N
2691.105	2.194	2591046	REC_START	n/a	n/a	1	-999	n/a	WEB	n/a	n/a	17	[0, 0, 0]	-999	PAL1	0	R1175N
2693.299	2.823	2593240	REC_EVENT	2194.0	n/a	1	1	FAN	WEB	WEB	FAN	17	[0, 0, 0]	-999	PAL1	0	R1175N
2696.122	0.017	2596063	REC_END	n/a	n/a	1	-999	n/a	n/a	n/a	n/a	17	[0, 0, 0]	-999	PAL1	0	R1175N
2696.139	0.275	2596080	TEST_ORIENT	n/a	n/a	2	2	COUCH	n/a	COUCH	WORM	17	[0, 0, 0]	-999	PAL1	0	R1175N
2697.057	4.0	2596998	TEST_PROBE	n/a	wordpools/wordpool_EN.txt	2	2	COUCH	n/a	COUCH	WORM	17	[0, 0, 0]	-999	PAL1	0	R1175N
2697.057	1.341	2596998	REC_START	n/a	n/a	2	-999	n/a	n/a	n/a	n/a	17	[0, 0, 0]	-999	PAL1	0	R1175N
2698.398	3.676	2598339	REC_EVENT	1341.0	n/a	2	2	COUCH	<>	COUCH	WORM	17	[0, 0, 0]	-999	PAL1	0	R1175N
2702.074	0.016	2602015	REC_END	n/a	n/a	2	-999	n/a	n/a	n/a	n/a	17	[0, 0, 0]	-999	PAL1	0	R1175N
2702.09	0.275	2602031	TEST_ORIENT	n/a	n/a	3	3	SQUARE	n/a	HOSE	SQUARE	17	[0, 0, 0]	-999	PAL1	0	R1175N
2703.057	4.0	2602998	TEST_PROBE	n/a	wordpools/wordpool_EN.txt	3	3	SQUARE	n/a	HOSE	SQUARE	17	[0, 0, 0]	-999	PAL1	0	R1175N
2703.057	1.718	2602998	REC_START	n/a	n/a	3	-999	n/a	n/a	n/a	n/a	17	[0, 0, 0]	-999	PAL1	0	R1175N
2704.775	0.32	2604716	REC_EVENT	1718.0	n/a	3	3	SQUARE	<>	HOSE	SQUARE	17	[0, 0, 0]	-999	PAL1	0	R1175N
2705.095	2.979	2605036	REC_EVENT	2038.0	n/a	3	3	SQUARE	<>	HOSE	SQUARE	17	[0, 0, 0]	-999	PAL1	0	R1175N
2708.074	0.018	2608015	REC_END	n/a	n/a	3	-999	n/a	n/a	n/a	n/a	17	[0, 0, 0]	-999	PAL1	0	R1175N
2708.092	0.275	2608033	TEST_ORIENT	n/a	n/a	6	4	RAT	n/a	HAT	RAT	17	[0, 0, 0]	-999	PAL1	0	R1175N
2709.109	4.0	2609050	TEST_PROBE	n/a	wordpools/wordpool_EN.txt	6	4	RAT	n/a	HAT	RAT	17	[0, 0, 0]	-999	PAL1	0	R1175N
2709.109	5.015	2609050	REC_START	n/a	n/a	6	-999	n/a	n/a	n/a	n/a	17	[0, 0, 0]	-999	PAL1	0	R1175N
2714.124	0.001	2614064	REC_EVENT	5015.0	n/a	6	4	RAT	<>	HAT	RAT	17	[0, 0, 0]	-999	PAL1	0	R1175N
2714.125	0.017	2614065	REC_END	n/a	n/a	6	-999	n/a	n/a	n/a	n/a	17	[0, 0, 0]	-999	PAL1	0	R1175N
2714.142	0.275	2614082	TEST_ORIENT	n/a	n/a	5	5	CLOWN	n/a	CLOWN	SUN	17	[0, 0, 0]	-999	PAL1	0	R1175N
2715.142	4.0	2615082	TEST_PROBE	n/a	wordpools/wordpool_EN.txt	5	5	CLOWN	n/a	CLOWN	SUN	17	[0, 0, 0]	-999	PAL1	0	R1175N
2715.143	5.015	2615083	REC_START	n/a	n/a	5	-999	n/a	n/a	n/a	n/a	17	[0, 0, 0]	-999	PAL1	0	R1175N
2720.158	0.001	2620098	REC_EVENT	5015.0	n/a	5	5	CLOWN	<>	CLOWN	SUN	17	[0, 0, 0]	-999	PAL1	0	R1175N
2720.159	0.017	2620099	REC_END	n/a	n/a	5	-999	n/a	n/a	n/a	n/a	17	[0, 0, 0]	-999	PAL1	0	R1175N
2720.176	0.275	2620116	TEST_ORIENT	n/a	n/a	4	6	BALL	n/a	BALL	SPARK	17	[0, 0, 0]	-999	PAL1	0	R1175N
2721.21	4.0	2621150	TEST_PROBE	n/a	wordpools/wordpool_EN.txt	4	6	BALL	n/a	BALL	SPARK	17	[0, 0, 0]	-999	PAL1	0	R1175N
2721.211	5.021	2621151	REC_START	n/a	n/a	4	-999	n/a	n/a	n/a	n/a	17	[0, 0, 0]	-999	PAL1	0	R1175N
2726.232	0.004	2626172	REC_EVENT	5021.0	n/a	4	6	BALL	<>	BALL	SPARK	17	[0, 0, 0]	-999	PAL1	0	R1175N
2726.236	276.802	2626176	REC_END	n/a	n/a	4	-999	n/a	n/a	n/a	n/a	17	[0, 0, 0]	-999	PAL1	0	R1175N
3003.038	10.438	2902969	ENCODING_START	n/a	n/a	0	-999	n/a	n/a	n/a	n/a	18	[0, 0, 0]	-999	PAL1	0	R1175N
3013.476	0.275	2913406	STUDY_ORIENT	n/a	n/a	1	5	CORN	DUCK	CORN	DUCK	18	[0, 0, 0]	-999	PAL1	0	R1175N
3014.327	4.0	2914257	STUDY_PAIR	n/a	wordpools/wordpool_EN.txt	1	5	CORN	DUCK	CORN	DUCK	18	[0, 0, 0]	-999	PAL1	0	R1175N
3019.36	0.275	2919290	STUDY_ORIENT	n/a	n/a	2	4	CAT	n/a	POOL	CAT	18	[0, 0, 0]	-999	PAL1	0	R1175N
3020.327	4.0	2920257	STUDY_PAIR	n/a	wordpools/wordpool_EN.txt	2	4	CAT	n/a	POOL	CAT	18	[0, 0, 0]	-999	PAL1	0	R1175N
3025.361	0.275	2925291	STUDY_ORIENT	n/a	n/a	3	3	SLUSH	n/a	SLUSH	GATE	18	[0, 0, 0]	-999	PAL1	0	R1175N
3026.195	4.0	2926125	STUDY_PAIR	n/a	wordpools/wordpool_EN.txt	3	3	SLUSH	n/a	SLUSH	GATE	18	[0, 0, 0]	-999	PAL1	0	R1175N
3031.229	0.275	2931159	STUDY_ORIENT	n/a	n/a	4	6	SAIL	SLUSH	SAIL	SLEEVE	18	[0, 0, 0]	-999	PAL1	0	R1175N
3032.212	4.0	2932142	STUDY_PAIR	n/a	wordpools/wordpool_EN.txt	4	6	SAIL	SLUSH	SAIL	SLEEVE	18	[0, 0, 0]	-999	PAL1	0	R1175N
3037.247	0.275	2937177	STUDY_ORIENT	n/a	n/a	5	1	BOOT	n/a	RAIN	BOOT	18	[0, 0, 0]	-999	PAL1	0	R1175N
3038.263	4.0	2938193	STUDY_PAIR	n/a	wordpools/wordpool_EN.txt	5	1	BOOT	n/a	RAIN	BOOT	18	[0, 0, 0]	-999	PAL1	0	R1175N
3043.298	0.275	2943227	STUDY_ORIENT	n/a	n/a	6	2	HEART	SLEEVE	HEART	JUDGE	18	[0, 0, 0]	-999	PAL1	0	R1175N
3044.198	4.0	2944127	STUDY_PAIR	n/a	wordpools/wordpool_EN.txt	6	2	HEART	SLEEVE	HEART	JUDGE	18	[0, 0, 0]	-999	PAL1	0	R1175N
3048.216	0.999	2948145	START	n/a	n/a	-999	-999	n/a	n/a	n/a	n/a	18	[-999, -999, -999]	-999	PAL1	0	R1175N
3049.215	0.017	2949144	MATH_START	n/a	n/a	-999	-999	n/a	n/a	n/a	n/a	18	[0, 0, 0]	-999	PAL1	0	R1175N
3049.232	5.433	2949161	PROB	5405.0	n/a	-999	-999	n/a	n/a	n/a	n/a	18	[2, 2, 2]	6	PAL1	0	R1175N
3054.665	10.187	2954594	PROB	10165.0	n/a	-999	-999	n/a	n/a	n/a	n/a	18	[3, 4, 5]	12	PAL1	0	R1175N
3064.852	8.386	2964781	PROB	8386.0	n/a	-999	-999	n/a	n/a	n/a	n/a	18	[7, 3, 8]	18	PAL1	0	R1175N
3073.238	0.015	2973166	STOP	n/a	n/a	-999	-999	n/a	n/a	n/a	n/a	18	[-999, -999, -999]	-999	PAL1	0	R1175N
3073.253	0.0	2973181	MATH_END	n/a	n/a	-999	-999	n/a	n/a	n/a	n/a	18	[0, 0, 0]	-999	PAL1	0	R1175N
3073.253	0.016	2973181	TEST_START	n/a	n/a	-999	-999	n/a	n/a	n/a	n/a	18	[0, 0, 0]	-999	PAL1	0	R1175N
3073.269	0.275	2973197	TEST_ORIENT	n/a	n/a	5	1	BOOT	n/a	RAIN	BOOT	18	[0, 0, 0]	-999	PAL1	0	R1175N
3074.219	4.0	2974147	TEST_PROBE	n/a	wordpools/wordpool_EN.txt	5	1	BOOT	n/a	RAIN	BOOT	18	[0, 0, 0]	-999	PAL1	0	R1175N
3074.22	3.695	2974148	REC_START	n/a	n/a	5	-999	n/a	n/a	n/a	n/a	18	[0, 0, 0]	-999	PAL1	0	R1175N
3077.915	1.33	2977843	REC_EVENT	3695.0	n/a	5	1	BOOT	<>	RAIN	BOOT	18	[0, 0, 0]	-999	PAL1	0	R1175N
3079.245	0.009	2979173	REC_END	n/a	n/a	5	-999	n/a	n/a	n/a	n/a	18	[0, 0, 0]	-999	PAL1	0	R1175N
3079.254	0.275	2979182	TEST_ORIENT	n/a	n/a	6	2	HEART	SLEEVE	HEART	JUDGE	18	[0, 0, 0]	-999	PAL1	0	R1175N
3080.254	4.0	2980182	TEST_PROBE	n/a	wordpools/wordpool_EN.txt	6	2	HEART	SLEEVE	HEART	JUDGE	18	[0, 0, 0]	-999	PAL1	0	R1175N
3080.254	0.909	2980182	REC_START	n/a	n/a	6	-999	n/a	SLEEVE	n/a	n/a	18	[0, 0, 0]	-999	PAL1	0	R1175N
3081.163	0.276	2981091	REC_EVENT	909.0	n/a	6	2	HEART	HEART	HEART	JUDGE	18	[0, 0, 0]	-999	PAL1	0	R1175N
3081.439	3.84	2981367	REC_EVENT	1185.0	n/a	6	2	HEART	SLEEVE	HEART	JUDGE	18	[0, 0, 0]	-999	PAL1	0	R1175N
3085.279	0.009	2985207	REC_END	n/a	n/a	6	-999	n/a	n/a	n/a	n/a	18	[0, 0, 0]	-999	PAL1	0	R1175N
3085.288	0.275	2985216	TEST_ORIENT	n/a	n/a	3	3	SLUSH	n/a	SLUSH	GATE	18	[0, 0, 0]	-999	PAL1	0	R1175N
3086.089	0.0	2986017	REC_START	n/a	n/a	3	-999	n/a	n/a	n/a	n/a	18	[0, 0, 0]	-999	PAL1	0	R1175N
3086.089	4.0	2986017	TEST_PROBE	n/a	wordpools/wordpool_EN.txt	3	3	SLUSH	n/a	SLUSH	GATE	18	[0, 0, 0]	-999	PAL1	0	R1175N
3091.106	0.004	2991034	REC_END	n/a	n/a	3	-999	n/a	n/a	n/a	n/a	18	[0, 0, 0]	-999	PAL1	0	R1175N
3091.11	0.013	2991038	REC_EVENT	5021.0	n/a	3	3	SLUSH	<>	SLUSH	GATE	18	[0, 0, 0]	-999	PAL1	0	R1175N
3091.123	0.275	2991051	TEST_ORIENT	n/a	n/a	2	4	CAT	n/a	POOL	CAT	18	[0, 0, 0]	-999	PAL1	0	R1175N
3091.99	4.0	2991918	TEST_PROBE	n/a	wordpools/wordpool_EN.txt	2	4	CAT	n/a	POOL	CAT	18	[0, 0, 0]	-999	PAL1	0	R1175N
3091.99	5.015	2991918	REC_START	n/a	n/a	2	-999	n/a	n/a	n/a	n/a	18	[0, 0, 0]	-999	PAL1	0	R1175N
3097.005	0.001	2996933	REC_EVENT	5015.0	n/a	2	4	CAT	<>	POOL	CAT	18	[0, 0, 0]	-999	PAL1	0	R1175N
3097.006	0.017	2996934	REC_END	n/a	n/a	2	-999	n/a	n/a	n/a	n/a	18	[0, 0, 0]	-999	PAL1	0	R1175N
3097.023	0.275	2996951	TEST_ORIENT	n/a	n/a	1	5	CORN	DUCK	CORN	DUCK	18	[0, 0, 0]	-999	PAL1	0	R1175N
3097.84	4.0	2997768	TEST_PROBE	n/a	wordpools/wordpool_EN.txt	1	5	CORN	DUCK	CORN	DUCK	18	[0, 0, 0]	-999	PAL1	0	R1175N
3097.841	0.956	2997769	REC_START	n/a	n/a	1	-999	n/a	DUCK	n/a	n/a	18	[0, 0, 0]	-999	PAL1	0	R1175N
3098.797	0.549	2998724	REC_EVENT	956.0	n/a	1	5	CORN	<>	CORN	DUCK	18	[0, 0, 0]	-999	PAL1	0	R1175N
3099.346	3.52	2999273	REC_EVENT	1505.0	n/a	1	5	CORN	DUCK	CORN	DUCK	18	[0, 0, 0]	-999	PAL1	0	R1175N
3102.866	0.008	3002793	REC_END	n/a	n/a	1	-999	n/a	n/a	n/a	n/a	18	[0, 0, 0]	-999	PAL1	0	R1175N
3102.874	0.275	3002801	TEST_ORIENT	n/a	n/a	4	6	SAIL	SLUSH	SAIL	SLEEVE	18	[0, 0, 0]	-999	PAL1	0	R1175N
3103.891	4.0	3003818	TEST_PROBE	n/a	wordpools/wordpool_EN.txt	4	6	SAIL	SLUSH	SAIL	SLEEVE	18	[0, 0, 0]	-999	PAL1	0	R1175N
3103.892	1.435	3003819	REC_START	n/a	n/a	4	-999	n/a	SLUSH	n/a	n/a	18	[0, 0, 0]	-999	PAL1	0	R1175N
3105.327	0.472	3005254	REC_EVENT	1435.0	n/a	4	6	SAIL	<>	SAIL	SLEEVE	18	[0, 0, 0]	-999	PAL1	0	R1175N
3105.799	3.109	3005726	REC_EVENT	1907.0	n/a	4	6	SAIL	SLUSH	SAIL	SLEEVE	18	[0, 0, 0]	-999	PAL1	0	R1175N
3108.908	10.202	3008835	REC_END	n/a	n/a	4	-999	n/a	n/a	n/a	n/a	18	[0, 0, 0]	-999	PAL1	0	R1175N
3119.11	10.452	3019037	ENCODING_START	n/a	n/a	0	-999	n/a	n/a	n/a	n/a	19	[0, 0, 0]	-999	PAL1	0	R1175N
3129.562	0.275	3029488	STUDY_ORIENT	n/a	n/a	1	3	TOE	TEA	TEA	TOE	19	[0, 0, 0]	-999	PAL1	0	R1175N
3130.461	4.0	3030387	STUDY_PAIR	n/a	wordpools/wordpool_EN.txt	1	3	TOE	TEA	TEA	TOE	19	[0, 0, 0]	-999	PAL1	0	R1175N
3135.495	0.275	3035421	STUDY_ORIENT	n/a	n/a	2	4	WING	GOLD	GOLD	WING	19	[0, 0, 0]	-999	PAL1	0	R1175N
3136.463	4.0	3036389	STUDY_PAIR	n/a	wordpools/wordpool_EN.txt	2	4	WING	GOLD	GOLD	WING	19	[0, 0, 0]	-999	PAL1	0	R1175N
3141.497	0.275	3041423	STUDY_ORIENT	n/a	n/a	3	1	MILK	n/a	CAGE	MILK	19	[0, 0, 0]	-999	PAL1	0	R1175N
3142.497	4.0	3042423	STUDY_PAIR	n/a	wordpools/wordpool_EN.txt	3	1	MILK	n/a	CAGE	MILK	19	[0, 0, 0]	-999	PAL1	0	R1175N
3147.531	0.275	3047457	STUDY_ORIENT	n/a	n/a	4	6	CROWN	n/a	TREE	CROWN	19	[0, 0, 0]	-999	PAL1	0	R1175N
3148.464	4.0	3048390	STUDY_PAIR	n/a	wordpools/wordpool_EN.txt	4	6	CROWN	n/a	TREE	CROWN	19	[0, 0, 0]	-999	PAL1	0	R1175N
3153.499	0.275	3053425	STUDY_ORIENT	n/a	n/a	5	5	LAWN	n/a	LAWN	CAPE	19	[0, 0, 0]	-999	PAL1	0	R1175N
3154.499	4.0	3054425	STUDY_PAIR	n/a	wordpools/wordpool_EN.txt	5	5	LAWN	n/a	LAWN	CAPE	19	[0, 0, 0]	-999	PAL1	0	R1175N
3159.533	0.275	3059458	STUDY_ORIENT	n/a	n/a	6	2	PALM	n/a	CASH	PALM	19	[0, 0, 0]	-999	PAL1	0	R1175N
3160.318	4.0	3060243	STUDY_PAIR	n/a	wordpools/wordpool_EN.txt	6	2	PALM	n/a	CASH	PALM	19	[0, 0, 0]	-999	PAL1	0	R1175N
3164.335	1.0	3064260	START	n/a	n/a	-999	-999	n/a	n/a	n/a	n/a	19	[-999, -999, -999]	-999	PAL1	0	R1175N
3165.335	0.016	3065260	MATH_START	n/a	n/a	-999	-999	n/a	n/a	n/a	n/a	19	[0, 0, 0]	-999	PAL1	0	R1175N
3165.351	14.87	3065276	PROB	14839.0	n/a	-999	-999	n/a	n/a	n/a	n/a	19	[2, 2, 9]	13	PAL1	0	R1175N
