onset	duration	sample	trial_type	response_time	stim_file	serialpos	probepos	probe_word	resp_word	study_1	study_2	list	test	answer	experiment	session	subject
0.0	94.043	427961	SESS_START	n/a	n/a	-999	-999	n/a	n/a	n/a	n/a	-999	[0, 0, 0]	-999	PAL1	1	R1095N
94.043	1.017	522005	START	n/a	n/a	-999	-999	n/a	n/a	n/a	n/a	-1	[-999, -999, -999]	-999	PAL1	1	R1095N
95.06	6.084	523022	PROB	6.057	n/a	-999	-999	n/a	n/a	n/a	n/a	-1	[2, 5, 2]	9	PAL1	1	R1095N
101.144	7.367	529106	PROB	7.333	n/a	-999	-999	n/a	n/a	n/a	n/a	-1	[5, 9, 2]	16	PAL1	1	R1095N
108.511	3.768	536473	PROB	3.733	n/a	-999	-999	n/a	n/a	n/a	n/a	-1	[2, 1, 2]	5	PAL1	1	R1095N
112.279	3.253	540241	PROB	3.253	n/a	-999	-999	n/a	n/a	n/a	n/a	-1	[3, 3, 7]	13	PAL1	1	R1095N
115.532	35.785	543494	STOP	n/a	n/a	-999	-999	n/a	n/a	n/a	n/a	-1	[-999, -999, -999]	-999	PAL1	1	R1095N
151.317	14.149	579280	FEEDBACK_SHOW_ALL_PAIRS	n/a	n/a	-999	-999	n/a	n/a	n/a	n/a	-999	[0, 0, 0]	-999	PAL1	1	R1095N
165.466	10.436	593429	ENCODING_START	n/a	n/a	0	-999	n/a	n/a	n/a	n/a	1	[0, 0, 0]	-999	PAL1	1	R1095N
175.902	0.275	603865	STUDY_ORIENT	n/a	n/a	1	1	ROPE	CHEEK	ROPE	CHEEK	1	[0, 0, 0]	-999	PAL1	1	R1095N
176.77	4.0	604733	STUDY_PAIR	n/a	wordpools/wordpool_EN.txt	1	1	ROPE	CHEEK	ROPE	CHEEK	1	[0, 0, 0]	-999	PAL1	1	R1095N
181.804	0.275	609767	STUDY_ORIENT	n/a	n/a	2	4	BOARD	STICK	STICK	BOARD	1	[0, 0, 0]	-999	PAL1	1	R1095N
182.754	4.0	610717	STUDY_PAIR	n/a	wordpools/wordpool_EN.txt	2	4	BOARD	STICK	STICK	BOARD	1	[0, 0, 0]	-999	PAL1	1	R1095N
187.788	0.275	615751	STUDY_ORIENT	n/a	n/a	3	5	ANT	MUG	ANT	MUG	1	[0, 0, 0]	-999	PAL1	1	R1095N
188.705	4.0	616668	STUDY_PAIR	n/a	wordpools/wordpool_EN.txt	3	5	ANT	MUG	ANT	MUG	1	[0, 0, 0]	-999	PAL1	1	R1095N
193.739	0.275	621702	STUDY_ORIENT	n/a	n/a	4	2	GUARD	PHONE	GUARD	PHONE	1	[0, 0, 0]	-999	PAL1	1	R1095N
194.755	4.0	622718	STUDY_PAIR	n/a	wordpools/wordpool_EN.txt	4	2	GUARD	PHONE	GUARD	PHONE	1	[0, 0, 0]	-999	PAL1	1	R1095N
199.773	0.275	627736	STUDY_ORIENT	n/a	n/a	5	3	FISH	n/a	CLAY	FISH	1	[0, 0, 0]	-999	PAL1	1	R1095N
200.639	4.0	628602	STUDY_PAIR	n/a	wordpools/wordpool_EN.txt	5	3	FISH	n/a	CLAY	FISH	1	[0, 0, 0]	-999	PAL1	1	R1095N
205.657	0.275	633620	STUDY_ORIENT	n/a	n/a	6	6	TOAST	n/a	FLAME	TOAST	1	[0, 0, 0]	-999	PAL1	1	R1095N
206.49	4.0	634453	STUDY_PAIR	n/a	wordpools/wordpool_EN.txt	6	6	TOAST	n/a	FLAME	TOAST	1	[0, 0, 0]	-999	PAL1	1	R1095N
210.508	0.999	638471	START	n/a	n/a	-999	-999	n/a	n/a	n/a	n/a	1	[-999, -999, -999]	-999	PAL1	1	R1095N
211.507	0.017	639470	MATH_START	n/a	n/a	-999	-999	n/a	n/a	n/a	n/a	1	[0, 0, 0]	-999	PAL1	1	R1095N
211.524	2.667	639487	PROB	2.636	n/a	-999	-999	n/a	n/a	n/a	n/a	1	[6, 2, 4]	12	PAL1	1	R1095N
214.191	6.601	642154	PROB	6.576	n/a	-999	-999	n/a	n/a	n/a	n/a	1	[5, 7, 4]	16	PAL1	1	R1095N
220.792	4.717	648755	PROB	4.695	n/a	-999	-999	n/a	n/a	n/a	n/a	1	[1, 8, 5]	14	PAL1	1	R1095N
225.509	5.058	653473	PROB	5.058	n/a	-999	-999	n/a	n/a	n/a	n/a	1	[7, 8, 8]	23	PAL1	1	R1095N
230.567	0.009	658531	STOP	n/a	n/a	-999	-999	n/a	n/a	n/a	n/a	1	[-999, -999, -999]	-999	PAL1	1	R1095N
230.576	0.0	658540	TEST_START	n/a	n/a	-999	-999	n/a	n/a	n/a	n/a	1	[0, 0, 0]	-999	PAL1	1	R1095N
230.576	0.017	658540	MATH_END	n/a	n/a	-999	-999	n/a	n/a	n/a	n/a	1	[0, 0, 0]	-999	PAL1	1	R1095N
230.593	0.275	658557	TEST_ORIENT	n/a	n/a	1	1	ROPE	CHEEK	ROPE	CHEEK	1	[0, 0, 0]	-999	PAL1	1	R1095N
231.543	4.0	659507	TEST_PROBE	n/a	wordpools/wordpool_EN.txt	1	1	ROPE	CHEEK	ROPE	CHEEK	1	[0, 0, 0]	-999	PAL1	1	R1095N
231.544	1.7	659508	REC_START	n/a	n/a	1	-999	n/a	CHEEK	n/a	n/a	1	[0, 0, 0]	-999	PAL1	1	R1095N
233.244	3.324	661208	REC_EVENT	1.7	n/a	1	1	ROPE	CHEEK	ROPE	CHEEK	1	[0, 0, 0]	-999	PAL1	1	R1095N
236.568	0.009	664532	REC_END	n/a	n/a	1	-999	n/a	n/a	n/a	n/a	1	[0, 0, 0]	-999	PAL1	1	R1095N
236.577	0.275	664541	TEST_ORIENT	n/a	n/a	4	2	GUARD	PHONE	GUARD	PHONE	1	[0, 0, 0]	-999	PAL1	1	R1095N
237.511	0.0	665475	REC_START	n/a	n/a	4	-999	n/a	PHONE	n/a	n/a	1	[0, 0, 0]	-999	PAL1	1	R1095N
237.511	4.0	665475	TEST_PROBE	n/a	wordpools/wordpool_EN.txt	4	2	GUARD	PHONE	GUARD	PHONE	1	[0, 0, 0]	-999	PAL1	1	R1095N
238.632	3.896	666596	REC_EVENT	1.121	n/a	4	2	GUARD	PHONE	GUARD	PHONE	1	[0, 0, 0]	-999	PAL1	1	R1095N
242.528	0.016	670492	REC_END	n/a	n/a	4	-999	n/a	n/a	n/a	n/a	1	[0, 0, 0]	-999	PAL1	1	R1095N
242.544	0.275	670508	TEST_ORIENT	n/a	n/a	5	3	FISH	n/a	CLAY	FISH	1	[0, 0, 0]	-999	PAL1	1	R1095N
243.411	4.0	671375	TEST_PROBE	n/a	wordpools/wordpool_EN.txt	5	3	FISH	n/a	CLAY	FISH	1	[0, 0, 0]	-999	PAL1	1	R1095N
243.412	5.015	671376	REC_START	n/a	n/a	5	-999	n/a	n/a	n/a	n/a	1	[0, 0, 0]	-999	PAL1	1	R1095N
248.427	0.001	676391	REC_EVENT	5.015	n/a	5	3	FISH	<>	CLAY	FISH	1	[0, 0, 0]	-999	PAL1	1	R1095N
248.428	0.017	676392	REC_END	n/a	n/a	5	-999	n/a	n/a	n/a	n/a	1	[0, 0, 0]	-999	PAL1	1	R1095N
248.445	0.275	676409	TEST_ORIENT	n/a	n/a	2	4	BOARD	STICK	STICK	BOARD	1	[0, 0, 0]	-999	PAL1	1	R1095N
249.295	4.0	677259	TEST_PROBE	n/a	wordpools/wordpool_EN.txt	2	4	BOARD	STICK	STICK	BOARD	1	[0, 0, 0]	-999	PAL1	1	R1095N
249.296	0.867	677260	REC_START	n/a	n/a	2	-999	n/a	STICK	n/a	n/a	1	[0, 0, 0]	-999	PAL1	1	R1095N
250.163	4.149	678127	REC_EVENT	0.867	n/a	2	4	BOARD	STICK	STICK	BOARD	1	[0, 0, 0]	-999	PAL1	1	R1095N
254.312	0.017	682276	REC_END	n/a	n/a	2	-999	n/a	n/a	n/a	n/a	1	[0, 0, 0]	-999	PAL1	1	R1095N
254.329	0.275	682293	TEST_ORIENT	n/a	n/a	3	5	ANT	MUG	ANT	MUG	1	[0, 0, 0]	-999	PAL1	1	R1095N
255.363	4.0	683327	TEST_PROBE	n/a	wordpools/wordpool_EN.txt	3	5	ANT	MUG	ANT	MUG	1	[0, 0, 0]	-999	PAL1	1	R1095N
255.363	0.826	683327	REC_START	n/a	n/a	3	-999	n/a	MUG	n/a	n/a	1	[0, 0, 0]	-999	PAL1	1	R1095N
256.189	4.191	684153	REC_EVENT	0.826	n/a	3	5	ANT	MUG	ANT	MUG	1	[0, 0, 0]	-999	PAL1	1	R1095N
260.38	0.017	688344	REC_END	n/a	n/a	3	-999	n/a	n/a	n/a	n/a	1	[0, 0, 0]	-999	PAL1	1	R1095N
260.397	0.275	688361	TEST_ORIENT	n/a	n/a	6	6	TOAST	n/a	FLAME	TOAST	1	[0, 0, 0]	-999	PAL1	1	R1095N
261.313	4.0	689277	TEST_PROBE	n/a	wordpools/wordpool_EN.txt	6	6	TOAST	n/a	FLAME	TOAST	1	[0, 0, 0]	-999	PAL1	1	R1095N
261.314	5.008	689278	REC_START	n/a	n/a	6	-999	n/a	n/a	n/a	n/a	1	[0, 0, 0]	-999	PAL1	1	R1095N
266.322	0.001	694286	REC_END	n/a	n/a	6	-999	n/a	n/a	n/a	n/a	1	[0, 0, 0]	-999	PAL1	1	R1095N
266.323	0.024	694287	REC_EVENT	5.009	n/a	6	6	TOAST	<>	FLAME	TOAST	1	[0, 0, 0]	-999	PAL1	1	R1095N
266.347	9.874	694311	FEEDBACK_SHOW_ALL_PAIRS	n/a	n/a	6	-999	n/a	n/a	n/a	n/a	1	[0, 0, 0]	-999	PAL1	1	R1095N
276.221	10.445	704185	ENCODING_START	n/a	n/a	0	-999	n/a	n/a	n/a	n/a	2	[0, 0, 0]	-999	PAL1	1	R1095N
286.666	0.275	714630	STUDY_ORIENT	n/a	n/a	1	1	TRUCK	KEY	TRUCK	PEA	2	[0, 0, 0]	-999	PAL1	1	R1095N
287.683	4.0	715647	STUDY_PAIR	n/a	wordpools/wordpool_EN.txt	1	1	TRUCK	KEY	TRUCK	PEA	2	[0, 0, 0]	-999	PAL1	1	R1095N
292.717	0.275	720681	STUDY_ORIENT	n/a	n/a	2	6	POND	n/a	POND	JAIL	2	[0, 0, 0]	-999	PAL1	1	R1095N
293.734	4.0	721698	STUDY_PAIR	n/a	wordpools/wordpool_EN.txt	2	6	POND	n/a	POND	JAIL	2	[0, 0, 0]	-999	PAL1	1	R1095N
298.768	0.275	726732	STUDY_ORIENT	n/a	n/a	3	3	HEART	BOMB	BOMB	HEART	2	[0, 0, 0]	-999	PAL1	1	R1095N
299.551	4.0	727515	STUDY_PAIR	n/a	wordpools/wordpool_EN.txt	3	3	HEART	BOMB	BOMB	HEART	2	[0, 0, 0]	-999	PAL1	1	R1095N
304.569	0.275	732533	STUDY_ORIENT	n/a	n/a	4	2	HOUSE	DRESS	HOUSE	DRESS	2	[0, 0, 0]	-999	PAL1	1	R1095N
305.436	4.0	733400	STUDY_PAIR	n/a	wordpools/wordpool_EN.txt	4	2	HOUSE	DRESS	HOUSE	DRESS	2	[0, 0, 0]	-999	PAL1	1	R1095N
310.469	0.275	738434	STUDY_ORIENT	n/a	n/a	5	5	PLANT	SNAIL	SNAIL	PLANT	2	[0, 0, 0]	-999	PAL1	1	R1095N
311.303	4.0	739268	STUDY_PAIR	n/a	wordpools/wordpool_EN.txt	5	5	PLANT	SNAIL	SNAIL	PLANT	2	[0, 0, 0]	-999	PAL1	1	R1095N
316.337	0.275	744302	STUDY_ORIENT	n/a	n/a	6	4	HOOF	KEY	KEY	HOOF	2	[0, 0, 0]	-999	PAL1	1	R1095N
317.354	4.0	745319	STUDY_PAIR	n/a	wordpools/wordpool_EN.txt	6	4	HOOF	KEY	KEY	HOOF	2	[0, 0, 0]	-999	PAL1	1	R1095N
321.371	1.0	749336	START	n/a	n/a	-999	-999	n/a	n/a	n/a	n/a	2	[-999, -999, -999]	-999	PAL1	1	R1095N
322.371	0.017	750336	MATH_START	n/a	n/a	-999	-999	n/a	n/a	n/a	n/a	2	[0, 0, 0]	-999	PAL1	1	R1095N
322.388	4.233	750353	PROB	4.206	n/a	-999	-999	n/a	n/a	n/a	n/a	2	[6, 6, 3]	15	PAL1	1	R1095N
326.621	4.984	754586	PROB	4.957	n/a	-999	-999	n/a	n/a	n/a	n/a	2	[5, 8, 1]	14	PAL1	1	R1095N
331.605	3.951	759570	PROB	3.917	n/a	-999	-999	n/a	n/a	n/a	n/a	2	[6, 8, 4]	18	PAL1	1	R1095N
335.556	3.316	763521	PROB	3.285	n/a	-999	-999	n/a	n/a	n/a	n/a	2	[4, 3, 4]	11	PAL1	1	R1095N
338.872	2.118	766837	PROB	2.098	n/a	-999	-999	n/a	n/a	n/a	n/a	2	[6, 1, 6]	13	PAL1	1	R1095N
340.99	7.667	768955	PROB	7.667	n/a	-999	-999	n/a	n/a	n/a	n/a	2	[6, 9, 4]	19	PAL1	1	R1095N
348.657	0.017	776622	STOP	n/a	n/a	-999	-999	n/a	n/a	n/a	n/a	2	[-999, -999, -999]	-999	PAL1	1	R1095N
348.674	0.0	776639	MATH_END	n/a	n/a	-999	-999	n/a	n/a	n/a	n/a	2	[0, 0, 0]	-999	PAL1	1	R1095N
348.674	0.017	776639	TEST_START	n/a	n/a	-999	-999	n/a	n/a	n/a	n/a	2	[0, 0, 0]	-999	PAL1	1	R1095N
348.691	0.275	776656	TEST_ORIENT	n/a	n/a	1	1	TRUCK	KEY	TRUCK	PEA	2	[0, 0, 0]	-999	PAL1	1	R1095N
349.607	4.0	777572	TEST_PROBE	n/a	wordpools/wordpool_EN.txt	1	1	TRUCK	KEY	TRUCK	PEA	2	[0, 0, 0]	-999	PAL1	1	R1095N
349.608	0.962	777573	REC_START	n/a	n/a	1	-999	n/a	KEY	n/a	n/a	2	[0, 0, 0]	-999	PAL1	1	R1095N
350.57	4.046	778535	REC_EVENT	0.962	n/a	1	1	TRUCK	KEY	TRUCK	PEA	2	[0, 0, 0]	-999	PAL1	1	R1095N
354.616	0.009	782581	REC_END	n/a	n/a	1	-999	n/a	n/a	n/a	n/a	2	[0, 0, 0]	-999	PAL1	1	R1095N
354.625	0.275	782590	TEST_ORIENT	n/a	n/a	4	2	HOUSE	DRESS	HOUSE	DRESS	2	[0, 0, 0]	-999	PAL1	1	R1095N
355.575	0.0	783540	REC_START	n/a	n/a	4	-999	n/a	DRESS	n/a	n/a	2	[0, 0, 0]	-999	PAL1	1	R1095N
355.575	4.0	783540	TEST_PROBE	n/a	wordpools/wordpool_EN.txt	4	2	HOUSE	DRESS	HOUSE	DRESS	2	[0, 0, 0]	-999	PAL1	1	R1095N
356.368	4.224	784333	REC_EVENT	0.793	n/a	4	2	HOUSE	DRESS	HOUSE	DRESS	2	[0, 0, 0]	-999	PAL1	1	R1095N
360.592	0.017	788557	REC_END	n/a	n/a	4	-999	n/a	n/a	n/a	n/a	2	[0, 0, 0]	-999	PAL1	1	R1095N
360.609	0.275	788574	TEST_ORIENT	n/a	n/a	3	3	HEART	BOMB	BOMB	HEART	2	[0, 0, 0]	-999	PAL1	1	R1095N
361.459	4.0	789424	TEST_PROBE	n/a	wordpools/wordpool_EN.txt	3	3	HEART	BOMB	BOMB	HEART	2	[0, 0, 0]	-999	PAL1	1	R1095N
361.459	1.27	789424	REC_START	n/a	n/a	3	-999	n/a	BOMB	n/a	n/a	2	[0, 0, 0]	-999	PAL1	1	R1095N
362.729	3.747	790694	REC_EVENT	1.27	n/a	3	3	HEART	BOMB	BOMB	HEART	2	[0, 0, 0]	-999	PAL1	1	R1095N
366.476	0.017	794441	REC_END	n/a	n/a	3	-999	n/a	n/a	n/a	n/a	2	[0, 0, 0]	-999	PAL1	1	R1095N
366.493	0.275	794458	TEST_ORIENT	n/a	n/a	6	4	HOOF	KEY	KEY	HOOF	2	[0, 0, 0]	-999	PAL1	1	R1095N
367.476	4.0	795441	TEST_PROBE	n/a	wordpools/wordpool_EN.txt	6	4	HOOF	KEY	KEY	HOOF	2	[0, 0, 0]	-999	PAL1	1	R1095N
367.477	0.768	795442	REC_START	n/a	n/a	6	-999	n/a	KEY	n/a	n/a	2	[0, 0, 0]	-999	PAL1	1	R1095N
368.245	4.248	796210	REC_EVENT	0.768	n/a	6	4	HOOF	KEY	KEY	HOOF	2	[0, 0, 0]	-999	PAL1	1	R1095N
372.493	0.017	800458	REC_END	n/a	n/a	6	-999	n/a	n/a	n/a	n/a	2	[0, 0, 0]	-999	PAL1	1	R1095N
372.51	0.275	800475	TEST_ORIENT	n/a	n/a	5	5	PLANT	SNAIL	SNAIL	PLANT	2	[0, 0, 0]	-999	PAL1	1	R1095N
373.46	4.0	801425	TEST_PROBE	n/a	wordpools/wordpool_EN.txt	5	5	PLANT	SNAIL	SNAIL	PLANT	2	[0, 0, 0]	-999	PAL1	1	R1095N
373.461	0.933	801426	REC_START	n/a	n/a	5	-999	n/a	SNAIL	n/a	n/a	2	[0, 0, 0]	-999	PAL1	1	R1095N
374.394	4.083	802359	REC_EVENT	0.933	n/a	5	5	PLANT	SNAIL	SNAIL	PLANT	2	[0, 0, 0]	-999	PAL1	1	R1095N
378.477	0.017	806442	REC_END	n/a	n/a	5	-999	n/a	n/a	n/a	n/a	2	[0, 0, 0]	-999	PAL1	1	R1095N
378.494	0.275	806459	TEST_ORIENT	n/a	n/a	2	6	POND	n/a	POND	JAIL	2	[0, 0, 0]	-999	PAL1	1	R1095N
379.328	4.0	807293	TEST_PROBE	n/a	wordpools/wordpool_EN.txt	2	6	POND	n/a	POND	JAIL	2	[0, 0, 0]	-999	PAL1	1	R1095N
379.328	5.015	807293	REC_START	n/a	n/a	2	-999	n/a	n/a	n/a	n/a	2	[0, 0, 0]	-999	PAL1	1	R1095N
384.343	0.002	812308	REC_EVENT	5.015	n/a	2	6	POND	<>	POND	JAIL	2	[0, 0, 0]	-999	PAL1	1	R1095N
384.345	0.033	812310	REC_END	n/a	n/a	2	-999	n/a	n/a	n/a	n/a	2	[0, 0, 0]	-999	PAL1	1	R1095N
384.378	10.261	812343	FEEDBACK_SHOW_ALL_PAIRS	n/a	n/a	2	-999	n/a	n/a	n/a	n/a	2	[0, 0, 0]	-999	PAL1	1	R1095N
394.639	10.442	822605	ENCODING_START	n/a	n/a	0	-999	n/a	n/a	n/a	n/a	3	[0, 0, 0]	-999	PAL1	1	R1095N
405.081	0.275	833047	STUDY_ORIENT	n/a	n/a	1	1	SLEEVE	PRINCE	PRINCE	SLEEVE	3	[0, 0, 0]	-999	PAL1	1	R1095N
405.947	4.0	833913	STUDY_PAIR	n/a	wordpools/wordpool_EN.txt	1	1	SLEEVE	PRINCE	PRINCE	SLEEVE	3	[0, 0, 0]	-999	PAL1	1	R1095N
410.965	0.275	838931	STUDY_ORIENT	n/a	n/a	2	2	NAIL	VEST	NAIL	VEST	3	[0, 0, 0]	-999	PAL1	1	R1095N
411.864	4.0	839830	STUDY_PAIR	n/a	wordpools/wordpool_EN.txt	2	2	NAIL	VEST	NAIL	VEST	3	[0, 0, 0]	-999	PAL1	1	R1095N
416.898	0.275	844864	STUDY_ORIENT	n/a	n/a	3	5	SOUP	DITCH	SOUP	DITCH	3	[0, 0, 0]	-999	PAL1	1	R1095N
417.865	4.0	845831	STUDY_PAIR	n/a	wordpools/wordpool_EN.txt	3	5	SOUP	DITCH	SOUP	DITCH	3	[0, 0, 0]	-999	PAL1	1	R1095N
422.899	0.275	850865	STUDY_ORIENT	n/a	n/a	4	6	FACE	LAMB	FACE	LAMB	3	[0, 0, 0]	-999	PAL1	1	R1095N
423.849	4.0	851815	STUDY_PAIR	n/a	wordpools/wordpool_EN.txt	4	6	FACE	LAMB	FACE	LAMB	3	[0, 0, 0]	-999	PAL1	1	R1095N
428.883	0.275	856849	STUDY_ORIENT	n/a	n/a	5	3	TRAY	NEST	TRAY	NET	3	[0, 0, 0]	-999	PAL1	1	R1095N
429.85	4.0	857816	STUDY_PAIR	n/a	wordpools/wordpool_EN.txt	5	3	TRAY	NEST	TRAY	NET	3	[0, 0, 0]	-999	PAL1	1	R1095N
434.883	0.275	862849	STUDY_ORIENT	n/a	n/a	6	4	BAND	GATE	GATE	BAND	3	[0, 0, 0]	-999	PAL1	1	R1095N
435.834	4.0	863800	STUDY_PAIR	n/a	wordpools/wordpool_EN.txt	6	4	BAND	GATE	GATE	BAND	3	[0, 0, 0]	-999	PAL1	1	R1095N
439.851	1.0	867817	START	n/a	n/a	-999	-999	n/a	n/a	n/a	n/a	3	[-999, -999, -999]	-999	PAL1	1	R1095N
440.851	0.016	868817	MATH_START	n/a	n/a	-999	-999	n/a	n/a	n/a	n/a	3	[0, 0, 0]	-999	PAL1	1	R1095N
440.867	3.702	868833	PROB	3.681	n/a	-999	-999	n/a	n/a	n/a	n/a	3	[1, 5, 2]	8	PAL1	1	R1095N
444.569	3.4	872535	PROB	3.371	n/a	-999	-999	n/a	n/a	n/a	n/a	3	[6, 8, 2]	16	PAL1	1	R1095N
447.969	3.217	875935	PROB	3.195	n/a	-999	-999	n/a	n/a	n/a	n/a	3	[6, 2, 1]	9	PAL1	1	R1095N
451.186	3.118	879152	PROB	3.098	n/a	-999	-999	n/a	n/a	n/a	n/a	3	[6, 1, 5]	12	PAL1	1	R1095N
454.304	4.717	882270	PROB	4.692	n/a	-999	-999	n/a	n/a	n/a	n/a	3	[5, 8, 3]	16	PAL1	1	R1095N
459.021	4.519	886987	PROB	4.519	n/a	-999	-999	n/a	n/a	n/a	n/a	3	[1, 6, 7]	14	PAL1	1	R1095N
463.54	0.015	891506	STOP	n/a	n/a	-999	-999	n/a	n/a	n/a	n/a	3	[-999, -999, -999]	-999	PAL1	1	R1095N
463.555	0.0	891521	MATH_END	n/a	n/a	-999	-999	n/a	n/a	n/a	n/a	3	[0, 0, 0]	-999	PAL1	1	R1095N
463.555	0.016	891521	TEST_START	n/a	n/a	-999	-999	n/a	n/a	n/a	n/a	3	[0, 0, 0]	-999	PAL1	1	R1095N
463.571	0.275	891537	TEST_ORIENT	n/a	n/a	1	1	SLEEVE	PRINCE	PRINCE	SLEEVE	3	[0, 0, 0]	-999	PAL1	1	R1095N
464.505	4.0	892471	TEST_PROBE	n/a	wordpools/wordpool_EN.txt	1	1	SLEEVE	PRINCE	PRINCE	SLEEVE	3	[0, 0, 0]	-999	PAL1	1	R1095N
464.506	0.812	892472	REC_START	n/a	n/a	1	-999	n/a	PRINCE	n/a	n/a	3	[0, 0, 0]	-999	PAL1	1	R1095N
465.318	4.212	893284	REC_EVENT	0.812	n/a	1	1	SLEEVE	PRINCE	PRINCE	SLEEVE	3	[0, 0, 0]	-999	PAL1	1	R1095N
469.53	0.009	897496	REC_END	n/a	n/a	1	-999	n/a	n/a	n/a	n/a	3	[0, 0, 0]	-999	PAL1	1	R1095N
469.539	0.275	897505	TEST_ORIENT	n/a	n/a	2	2	NAIL	VEST	NAIL	VEST	3	[0, 0, 0]	-999	PAL1	1	R1095N
470.555	4.0	898521	TEST_PROBE	n/a	wordpools/wordpool_EN.txt	2	2	NAIL	VEST	NAIL	VEST	3	[0, 0, 0]	-999	PAL1	1	R1095N
470.556	2.008	898522	REC_START	n/a	n/a	2	-999	n/a	VEST	n/a	n/a	3	[0, 0, 0]	-999	PAL1	1	R1095N
472.564	3.0	900530	REC_EVENT	2.008	n/a	2	2	NAIL	VEST	NAIL	VEST	3	[0, 0, 0]	-999	PAL1	1	R1095N
475.564	0.009	903531	REC_END	n/a	n/a	2	-999	n/a	n/a	n/a	n/a	3	[0, 0, 0]	-999	PAL1	1	R1095N
475.573	0.275	903540	TEST_ORIENT	n/a	n/a	5	3	TRAY	NEST	TRAY	NET	3	[0, 0, 0]	-999	PAL1	1	R1095N
476.506	4.0	904473	TEST_PROBE	n/a	wordpools/wordpool_EN.txt	5	3	TRAY	NEST	TRAY	NET	3	[0, 0, 0]	-999	PAL1	1	R1095N
476.506	0.847	904473	REC_START	n/a	n/a	5	-999	n/a	NEST	n/a	n/a	3	[0, 0, 0]	-999	PAL1	1	R1095N
477.353	4.17	905320	REC_EVENT	0.847	n/a	5	3	TRAY	NEST	TRAY	NET	3	[0, 0, 0]	-999	PAL1	1	R1095N
481.523	0.017	909490	REC_END	n/a	n/a	5	-999	n/a	n/a	n/a	n/a	3	[0, 0, 0]	-999	PAL1	1	R1095N
481.54	0.275	909507	TEST_ORIENT	n/a	n/a	6	4	BAND	GATE	GATE	BAND	3	[0, 0, 0]	-999	PAL1	1	R1095N
482.54	4.0	910507	TEST_PROBE	n/a	wordpools/wordpool_EN.txt	6	4	BAND	GATE	GATE	BAND	3	[0, 0, 0]	-999	PAL1	1	R1095N
482.541	1.946	910508	REC_START	n/a	n/a	6	-999	n/a	GATE	n/a	n/a	3	[0, 0, 0]	-999	PAL1	1	R1095N
484.487	3.07	912454	REC_EVENT	1.946	n/a	6	4	BAND	GATE	GATE	BAND	3	[0, 0, 0]	-999	PAL1	1	R1095N
487.557	0.017	915524	REC_END	n/a	n/a	6	-999	n/a	n/a	n/a	n/a	3	[0, 0, 0]	-999	PAL1	1	R1095N
487.574	0.275	915541	TEST_ORIENT	n/a	n/a	3	5	SOUP	DITCH	SOUP	DITCH	3	[0, 0, 0]	-999	PAL1	1	R1095N
488.441	4.0	916408	TEST_PROBE	n/a	wordpools/wordpool_EN.txt	3	5	SOUP	DITCH	SOUP	DITCH	3	[0, 0, 0]	-999	PAL1	1	R1095N
488.442	1.12	916409	REC_START	n/a	n/a	3	-999	n/a	DITCH	n/a	n/a	3	[0, 0, 0]	-999	PAL1	1	R1095N
489.562	3.904	917529	REC_EVENT	1.12	n/a	3	5	SOUP	DITCH	SOUP	DITCH	3	[0, 0, 0]	-999	PAL1	1	R1095N
493.466	0.009	921433	REC_END	n/a	n/a	3	-999	n/a	n/a	n/a	n/a	3	[0, 0, 0]	-999	PAL1	1	R1095N
493.475	0.275	921442	TEST_ORIENT	n/a	n/a	4	6	FACE	LAMB	FACE	LAMB	3	[0, 0, 0]	-999	PAL1	1	R1095N
494.442	4.0	922409	TEST_PROBE	n/a	wordpools/wordpool_EN.txt	4	6	FACE	LAMB	FACE	LAMB	3	[0, 0, 0]	-999	PAL1	1	R1095N
494.442	0.888	922409	REC_START	n/a	n/a	4	-999	n/a	LAMB	n/a	n/a	3	[0, 0, 0]	-999	PAL1	1	R1095N
495.33	4.129	923297	REC_EVENT	0.888	n/a	4	6	FACE	LAMB	FACE	LAMB	3	[0, 0, 0]	-999	PAL1	1	R1095N
499.459	0.033	927426	REC_END	n/a	n/a	4	-999	n/a	n/a	n/a	n/a	3	[0, 0, 0]	-999	PAL1	1	R1095N
499.492	9.989	927459	FEEDBACK_SHOW_ALL_PAIRS	n/a	n/a	4	-999	n/a	n/a	n/a	n/a	3	[0, 0, 0]	-999	PAL1	1	R1095N
509.481	10.447	937448	ENCODING_START	n/a	n/a	0	-999	n/a	n/a	n/a	n/a	4	[0, 0, 0]	-999	PAL1	1	R1095N
519.928	0.275	947895	STUDY_ORIENT	n/a	n/a	1	1	BLOOM	CROWN	BLOOM	CROWN	4	[0, 0, 0]	-999	PAL1	1	R1095N
520.778	4.0	948745	STUDY_PAIR	n/a	wordpools/wordpool_EN.txt	1	1	BLOOM	CROWN	BLOOM	CROWN	4	[0, 0, 0]	-999	PAL1	1	R1095N
525.811	0.275	953778	STUDY_ORIENT	n/a	n/a	2	2	RAIN	CONE	CONE	RAIN	4	[0, 0, 0]	-999	PAL1	1	R1095N
526.795	4.0	954762	STUDY_PAIR	n/a	wordpools/wordpool_EN.txt	2	2	RAIN	CONE	CONE	RAIN	4	[0, 0, 0]	-999	PAL1	1	R1095N
531.812	0.275	959779	STUDY_ORIENT	n/a	n/a	3	3	SNOW	CAR	CAR	SNOW	4	[0, 0, 0]	-999	PAL1	1	R1095N
532.596	4.0	960563	STUDY_PAIR	n/a	wordpools/wordpool_EN.txt	3	3	SNOW	CAR	CAR	SNOW	4	[0, 0, 0]	-999	PAL1	1	R1095N
537.63	0.275	965597	STUDY_ORIENT	n/a	n/a	4	4	FOOD	n/a	DUCK	FOOD	4	[0, 0, 0]	-999	PAL1	1	R1095N
538.414	4.0	966381	STUDY_PAIR	n/a	wordpools/wordpool_EN.txt	4	4	FOOD	n/a	DUCK	FOOD	4	[0, 0, 0]	-999	PAL1	1	R1095N
543.448	0.275	971415	STUDY_ORIENT	n/a	n/a	5	5	WHALE	BARN	BARN	WHALE	4	[0, 0, 0]	-999	PAL1	1	R1095N
544.298	4.0	972265	STUDY_PAIR	n/a	wordpools/wordpool_EN.txt	5	5	WHALE	BARN	BARN	WHALE	4	[0, 0, 0]	-999	PAL1	1	R1095N
549.332	0.275	977299	STUDY_ORIENT	n/a	n/a	6	6	GRAPE	SUN	GRAPE	SUN	4	[0, 0, 0]	-999	PAL1	1	R1095N
550.332	4.0	978299	STUDY_PAIR	n/a	wordpools/wordpool_EN.txt	6	6	GRAPE	SUN	GRAPE	SUN	4	[0, 0, 0]	-999	PAL1	1	R1095N
554.349	1.0	982316	START	n/a	n/a	-999	-999	n/a	n/a	n/a	n/a	4	[-999, -999, -999]	-999	PAL1	1	R1095N
555.349	0.017	983316	MATH_START	n/a	n/a	-999	-999	n/a	n/a	n/a	n/a	4	[0, 0, 0]	-999	PAL1	1	R1095N
555.366	4.85	983333	PROB	4.817	n/a	-999	-999	n/a	n/a	n/a	n/a	4	[8, 7, 3]	18	PAL1	1	R1095N
560.216	5.968	988184	PROB	5.942	n/a	-999	-999	n/a	n/a	n/a	n/a	4	[7, 5, 6]	18	PAL1	1	R1095N
566.184	4.05	994152	PROB	4.022	n/a	-999	-999	n/a	n/a	n/a	n/a	4	[8, 1, 1]	10	PAL1	1	R1095N
570.234	3.517	998202	PROB	3.492	n/a	-999	-999	n/a	n/a	n/a	n/a	4	[6, 1, 7]	14	PAL1	1	R1095N
573.751	4.759	1001719	PROB	4.759	n/a	-999	-999	n/a	n/a	n/a	n/a	4	[8, 9, 2]	19	PAL1	1	R1095N
578.51	0.008	1006478	STOP	n/a	n/a	-999	-999	n/a	n/a	n/a	n/a	4	[-999, -999, -999]	-999	PAL1	1	R1095N
578.518	0.0	1006486	MATH_END	n/a	n/a	-999	-999	n/a	n/a	n/a	n/a	4	[0, 0, 0]	-999	PAL1	1	R1095N
578.518	0.017	1006486	TEST_START	n/a	n/a	-999	-999	n/a	n/a	n/a	n/a	4	[0, 0, 0]	-999	PAL1	1	R1095N
578.535	0.275	1006503	TEST_ORIENT	n/a	n/a	1	1	BLOOM	CROWN	BLOOM	CROWN	4	[0, 0, 0]	-999	PAL1	1	R1095N
579.369	4.0	1007337	TEST_PROBE	n/a	wordpools/wordpool_EN.txt	1	1	BLOOM	CROWN	BLOOM	CROWN	4	[0, 0, 0]	-999	PAL1	1	R1095N
579.369	0.933	1007337	REC_START	n/a	n/a	1	-999	n/a	CROWN	n/a	n/a	4	[0, 0, 0]	-999	PAL1	1	R1095N
580.302	4.084	1008270	REC_EVENT	0.933	n/a	1	1	BLOOM	CROWN	BLOOM	CROWN	4	[0, 0, 0]	-999	PAL1	1	R1095N
584.386	0.016	1012354	REC_END	n/a	n/a	1	-999	n/a	n/a	n/a	n/a	4	[0, 0, 0]	-999	PAL1	1	R1095N
584.402	0.275	1012370	TEST_ORIENT	n/a	n/a	2	2	RAIN	CONE	CONE	RAIN	4	[0, 0, 0]	-999	PAL1	1	R1095N
585.219	4.0	1013187	TEST_PROBE	n/a	wordpools/wordpool_EN.txt	2	2	RAIN	CONE	CONE	RAIN	4	[0, 0, 0]	-999	PAL1	1	R1095N
585.22	0.986	1013188	REC_START	n/a	n/a	2	-999	n/a	CONE	n/a	n/a	4	[0, 0, 0]	-999	PAL1	1	R1095N
586.206	4.03	1014174	REC_EVENT	0.986	n/a	2	2	RAIN	CONE	CONE	RAIN	4	[0, 0, 0]	-999	PAL1	1	R1095N
590.236	0.017	1018204	REC_END	n/a	n/a	2	-999	n/a	n/a	n/a	n/a	4	[0, 0, 0]	-999	PAL1	1	R1095N
590.253	0.275	1018221	TEST_ORIENT	n/a	n/a	3	3	SNOW	CAR	CAR	SNOW	4	[0, 0, 0]	-999	PAL1	1	R1095N
591.137	4.0	1019105	TEST_PROBE	n/a	wordpools/wordpool_EN.txt	3	3	SNOW	CAR	CAR	SNOW	4	[0, 0, 0]	-999	PAL1	1	R1095N
591.137	1.285	1019105	REC_START	n/a	n/a	3	-999	n/a	CAR	n/a	n/a	4	[0, 0, 0]	-999	PAL1	1	R1095N
592.422	3.742	1020390	REC_EVENT	1.285	n/a	3	3	SNOW	CAR	CAR	SNOW	4	[0, 0, 0]	-999	PAL1	1	R1095N
596.164	0.006	1024132	REC_END	n/a	n/a	3	-999	n/a	n/a	n/a	n/a	4	[0, 0, 0]	-999	PAL1	1	R1095N
596.17	0.275	1024138	TEST_ORIENT	n/a	n/a	4	4	FOOD	n/a	DUCK	FOOD	4	[0, 0, 0]	-999	PAL1	1	R1095N
597.187	4.0	1025155	TEST_PROBE	n/a	wordpools/wordpool_EN.txt	4	4	FOOD	n/a	DUCK	FOOD	4	[0, 0, 0]	-999	PAL1	1	R1095N
597.188	5.027	1025156	REC_START	n/a	n/a	4	-999	n/a	n/a	n/a	n/a	4	[0, 0, 0]	-999	PAL1	1	R1095N
602.215	0.0	1030183	REC_EVENT	5.027	n/a	4	4	FOOD	<>	DUCK	FOOD	4	[0, 0, 0]	-999	PAL1	1	R1095N
602.215	0.023	1030183	REC_END	n/a	n/a	4	-999	n/a	n/a	n/a	n/a	4	[0, 0, 0]	-999	PAL1	1	R1095N
602.238	0.275	1030206	TEST_ORIENT	n/a	n/a	5	5	WHALE	BARN	BARN	WHALE	4	[0, 0, 0]	-999	PAL1	1	R1095N
603.271	4.0	1031239	TEST_PROBE	n/a	wordpools/wordpool_EN.txt	5	5	WHALE	BARN	BARN	WHALE	4	[0, 0, 0]	-999	PAL1	1	R1095N
603.272	1.031	1031240	REC_START	n/a	n/a	5	-999	n/a	BARN	n/a	n/a	4	[0, 0, 0]	-999	PAL1	1	R1095N
604.303	3.979	1032271	REC_EVENT	1.031	n/a	5	5	WHALE	BARN	BARN	WHALE	4	[0, 0, 0]	-999	PAL1	1	R1095N
608.282	0.007	1036250	REC_END	n/a	n/a	5	-999	n/a	n/a	n/a	n/a	4	[0, 0, 0]	-999	PAL1	1	R1095N
608.289	0.275	1036257	TEST_ORIENT	n/a	n/a	6	6	GRAPE	SUN	GRAPE	SUN	4	[0, 0, 0]	-999	PAL1	1	R1095N
609.122	4.0	1037090	TEST_PROBE	n/a	wordpools/wordpool_EN.txt	6	6	GRAPE	SUN	GRAPE	SUN	4	[0, 0, 0]	-999	PAL1	1	R1095N
609.122	0.772	1037090	REC_START	n/a	n/a	6	-999	n/a	SUN	n/a	n/a	4	[0, 0, 0]	-999	PAL1	1	R1095N
609.894	4.245	1037862	REC_EVENT	0.772	n/a	6	6	GRAPE	SUN	GRAPE	SUN	4	[0, 0, 0]	-999	PAL1	1	R1095N
614.139	0.034	1042107	REC_END	n/a	n/a	6	-999	n/a	n/a	n/a	n/a	4	[0, 0, 0]	-999	PAL1	1	R1095N
614.173	9.535	1042141	FEEDBACK_SHOW_ALL_PAIRS	n/a	n/a	6	-999	n/a	n/a	n/a	n/a	4	[0, 0, 0]	-999	PAL1	1	R1095N
623.708	10.45	1051676	ENCODING_START	n/a	n/a	0	-999	n/a	n/a	n/a	n/a	5	[0, 0, 0]	-999	PAL1	1	R1095N
634.158	0.275	1062126	STUDY_ORIENT	n/a	n/a	1	3	RAKE	ROCK	ROCK	RAKE	5	[0, 0, 0]	-999	PAL1	1	R1095N
635.075	4.0	1063043	STUDY_PAIR	n/a	wordpools/wordpool_EN.txt	1	3	RAKE	ROCK	ROCK	RAKE	5	[0, 0, 0]	-999	PAL1	1	R1095N
640.109	0.275	1068077	STUDY_ORIENT	n/a	n/a	2	2	BEAN	n/a	MULE	BEAN	5	[0, 0, 0]	-999	PAL1	1	R1095N
641.043	4.0	1069011	STUDY_PAIR	n/a	wordpools/wordpool_EN.txt	2	2	BEAN	n/a	MULE	BEAN	5	[0, 0, 0]	-999	PAL1	1	R1095N
646.077	0.275	1074046	STUDY_ORIENT	n/a	n/a	3	5	BEAK	DOLL	DOLL	BEAK	5	[0, 0, 0]	-999	PAL1	1	R1095N
647.06	4.0	1075029	STUDY_PAIR	n/a	wordpools/wordpool_EN.txt	3	5	BEAK	DOLL	DOLL	BEAK	5	[0, 0, 0]	-999	PAL1	1	R1095N
652.094	0.275	1080063	STUDY_ORIENT	n/a	n/a	4	6	CALF	STAR	CALF	STAR	5	[0, 0, 0]	-999	PAL1	1	R1095N
652.927	4.0	1080896	STUDY_PAIR	n/a	wordpools/wordpool_EN.txt	4	6	CALF	STAR	CALF	STAR	5	[0, 0, 0]	-999	PAL1	1	R1095N
657.961	0.275	1085930	STUDY_ORIENT	n/a	n/a	5	1	SHRIMP	MULE	SHRIMP	WHEEL	5	[0, 0, 0]	-999	PAL1	1	R1095N
658.911	4.0	1086880	STUDY_PAIR	n/a	wordpools/wordpool_EN.txt	5	1	SHRIMP	MULE	SHRIMP	WHEEL	5	[0, 0, 0]	-999	PAL1	1	R1095N
663.945	0.275	1091914	STUDY_ORIENT	n/a	n/a	6	4	SKI	ELF	SKI	ELF	5	[0, 0, 0]	-999	PAL1	1	R1095N
664.729	4.0	1092698	STUDY_PAIR	n/a	wordpools/wordpool_EN.txt	6	4	SKI	ELF	SKI	ELF	5	[0, 0, 0]	-999	PAL1	1	R1095N
668.747	0.999	1096716	START	n/a	n/a	-999	-999	n/a	n/a	n/a	n/a	5	[-999, -999, -999]	-999	PAL1	1	R1095N
669.746	0.017	1097715	MATH_START	n/a	n/a	-999	-999	n/a	n/a	n/a	n/a	5	[0, 0, 0]	-999	PAL1	1	R1095N
669.763	5.8	1097732	PROB	5.774	n/a	-999	-999	n/a	n/a	n/a	n/a	5	[4, 9, 3]	16	PAL1	1	R1095N
675.563	2.834	1103532	PROB	2.806	n/a	-999	-999	n/a	n/a	n/a	n/a	5	[1, 2, 6]	9	PAL1	1	R1095N
678.397	3.751	1106366	PROB	3.724	n/a	-999	-999	n/a	n/a	n/a	n/a	5	[9, 1, 9]	19	PAL1	1	R1095N
682.148	2.933	1110117	PROB	2.909	n/a	-999	-999	n/a	n/a	n/a	n/a	5	[2, 8, 1]	11	PAL1	1	R1095N
685.081	2.05	1113050	PROB	2.024	n/a	-999	-999	n/a	n/a	n/a	n/a	5	[5, 1, 5]	11	PAL1	1	R1095N
687.131	3.445	1115100	PROB	3.445	n/a	-999	-999	n/a	n/a	n/a	n/a	5	[3, 5, 3]	11	PAL1	1	R1095N
690.576	0.006	1118545	STOP	n/a	n/a	-999	-999	n/a	n/a	n/a	n/a	5	[-999, -999, -999]	-999	PAL1	1	R1095N
690.582	0.0	1118551	MATH_END	n/a	n/a	-999	-999	n/a	n/a	n/a	n/a	5	[0, 0, 0]	-999	PAL1	1	R1095N
690.582	0.017	1118551	TEST_START	n/a	n/a	-999	-999	n/a	n/a	n/a	n/a	5	[0, 0, 0]	-999	PAL1	1	R1095N
690.599	0.275	1118568	TEST_ORIENT	n/a	n/a	5	1	SHRIMP	MULE	SHRIMP	WHEEL	5	[0, 0, 0]	-999	PAL1	1	R1095N
691.632	4.0	1119601	TEST_PROBE	n/a	wordpools/wordpool_EN.txt	5	1	SHRIMP	MULE	SHRIMP	WHEEL	5	[0, 0, 0]	-999	PAL1	1	R1095N
691.633	0.797	1119602	REC_START	n/a	n/a	5	-999	n/a	MULE	n/a	n/a	5	[0, 0, 0]	-999	PAL1	1	R1095N
692.43	4.229	1120399	REC_EVENT	0.797	n/a	5	1	SHRIMP	MULE	SHRIMP	WHEEL	5	[0, 0, 0]	-999	PAL1	1	R1095N
696.659	0.007	1124628	REC_END	n/a	n/a	5	-999	n/a	n/a	n/a	n/a	5	[0, 0, 0]	-999	PAL1	1	R1095N
696.666	0.275	1124635	TEST_ORIENT	n/a	n/a	2	2	BEAN	n/a	MULE	BEAN	5	[0, 0, 0]	-999	PAL1	1	R1095N
697.683	4.0	1125652	TEST_PROBE	n/a	wordpools/wordpool_EN.txt	2	2	BEAN	n/a	MULE	BEAN	5	[0, 0, 0]	-999	PAL1	1	R1095N
697.683	5.015	1125652	REC_START	n/a	n/a	2	-999	n/a	n/a	n/a	n/a	5	[0, 0, 0]	-999	PAL1	1	R1095N
702.698	0.002	1130667	REC_EVENT	5.015	n/a	2	2	BEAN	<>	MULE	BEAN	5	[0, 0, 0]	-999	PAL1	1	R1095N
702.7	0.017	1130669	REC_END	n/a	n/a	2	-999	n/a	n/a	n/a	n/a	5	[0, 0, 0]	-999	PAL1	1	R1095N
702.717	0.275	1130686	TEST_ORIENT	n/a	n/a	1	3	RAKE	ROCK	ROCK	RAKE	5	[0, 0, 0]	-999	PAL1	1	R1095N
703.617	4.0	1131586	TEST_PROBE	n/a	wordpools/wordpool_EN.txt	1	3	RAKE	ROCK	ROCK	RAKE	5	[0, 0, 0]	-999	PAL1	1	R1095N
703.617	0.922	1131586	REC_START	n/a	n/a	1	-999	n/a	ROCK	n/a	n/a	5	[0, 0, 0]	-999	PAL1	1	R1095N
704.539	4.095	1132508	REC_EVENT	0.922	n/a	1	3	RAKE	ROCK	ROCK	RAKE	5	[0, 0, 0]	-999	PAL1	1	R1095N
708.634	0.017	1136603	REC_END	n/a	n/a	1	-999	n/a	n/a	n/a	n/a	5	[0, 0, 0]	-999	PAL1	1	R1095N
708.651	0.275	1136620	TEST_ORIENT	n/a	n/a	6	4	SKI	ELF	SKI	ELF	5	[0, 0, 0]	-999	PAL1	1	R1095N
709.534	4.0	1137503	TEST_PROBE	n/a	wordpools/wordpool_EN.txt	6	4	SKI	ELF	SKI	ELF	5	[0, 0, 0]	-999	PAL1	1	R1095N
709.535	0.826	1137504	REC_START	n/a	n/a	6	-999	n/a	ELF	n/a	n/a	5	[0, 0, 0]	-999	PAL1	1	R1095N
710.361	4.2	1138330	REC_EVENT	0.826	n/a	6	4	SKI	ELF	SKI	ELF	5	[0, 0, 0]	-999	PAL1	1	R1095N
714.561	0.007	1142530	REC_END	n/a	n/a	6	-999	n/a	n/a	n/a	n/a	5	[0, 0, 0]	-999	PAL1	1	R1095N
714.568	0.275	1142537	TEST_ORIENT	n/a	n/a	3	5	BEAK	DOLL	DOLL	BEAK	5	[0, 0, 0]	-999	PAL1	1	R1095N
715.385	0.0	1143354	REC_START	n/a	n/a	3	-999	n/a	DOLL	n/a	n/a	5	[0, 0, 0]	-999	PAL1	1	R1095N
715.385	4.0	1143354	TEST_PROBE	n/a	wordpools/wordpool_EN.txt	3	5	BEAK	DOLL	DOLL	BEAK	5	[0, 0, 0]	-999	PAL1	1	R1095N
716.491	3.911	1144460	REC_EVENT	1.106	n/a	3	5	BEAK	DOLL	DOLL	BEAK	5	[0, 0, 0]	-999	PAL1	1	R1095N
720.402	0.017	1148371	REC_END	n/a	n/a	3	-999	n/a	n/a	n/a	n/a	5	[0, 0, 0]	-999	PAL1	1	R1095N
720.419	0.275	1148388	TEST_ORIENT	n/a	n/a	4	6	CALF	STAR	CALF	STAR	5	[0, 0, 0]	-999	PAL1	1	R1095N
721.369	4.0	1149338	TEST_PROBE	n/a	wordpools/wordpool_EN.txt	4	6	CALF	STAR	CALF	STAR	5	[0, 0, 0]	-999	PAL1	1	R1095N
721.369	0.692	1149338	REC_START	n/a	n/a	4	-999	n/a	STAR	n/a	n/a	5	[0, 0, 0]	-999	PAL1	1	R1095N
722.061	4.325	1150030	REC_EVENT	0.692	n/a	4	6	CALF	STAR	CALF	STAR	5	[0, 0, 0]	-999	PAL1	1	R1095N
726.386	0.033	1154355	REC_END	n/a	n/a	4	-999	n/a	n/a	n/a	n/a	5	[0, 0, 0]	-999	PAL1	1	R1095N
726.419	9.843	1154388	FEEDBACK_SHOW_ALL_PAIRS	n/a	n/a	4	-999	n/a	n/a	n/a	n/a	5	[0, 0, 0]	-999	PAL1	1	R1095N
736.262	10.443	1164232	ENCODING_START	n/a	n/a	0	-999	n/a	n/a	n/a	n/a	6	[0, 0, 0]	-999	PAL1	1	R1095N
746.705	0.275	1174675	STUDY_ORIENT	n/a	n/a	1	1	MOUTH	n/a	CAKE	MOUTH	6	[0, 0, 0]	-999	PAL1	1	R1095N
747.505	4.0	1175475	STUDY_PAIR	n/a	wordpools/wordpool_EN.txt	1	1	MOUTH	n/a	CAKE	MOUTH	6	[0, 0, 0]	-999	PAL1	1	R1095N
752.539	0.275	1180509	STUDY_ORIENT	n/a	n/a	2	4	LAKE	LAND	CLOCK	LAKE	6	[0, 0, 0]	-999	PAL1	1	R1095N
753.439	4.0	1181409	STUDY_PAIR	n/a	wordpools/wordpool_EN.txt	2	4	LAKE	LAND	CLOCK	LAKE	6	[0, 0, 0]	-999	PAL1	1	R1095N
758.457	0.275	1186427	STUDY_ORIENT	n/a	n/a	3	5	SLUSH	SALT	SLUSH	SALT	6	[0, 0, 0]	-999	PAL1	1	R1095N
759.39	4.0	1187360	STUDY_PAIR	n/a	wordpools/wordpool_EN.txt	3	5	SLUSH	SALT	SLUSH	SALT	6	[0, 0, 0]	-999	PAL1	1	R1095N
764.424	0.275	1192394	STUDY_ORIENT	n/a	n/a	4	2	LAND	WEB	LAND	WEB	6	[0, 0, 0]	-999	PAL1	1	R1095N
765.324	4.0	1193294	STUDY_PAIR	n/a	wordpools/wordpool_EN.txt	4	2	LAND	WEB	LAND	WEB	6	[0, 0, 0]	-999	PAL1	1	R1095N
770.358	0.275	1198328	STUDY_ORIENT	n/a	n/a	5	3	MOTH	n/a	MOTH	PURSE	6	[0, 0, 0]	-999	PAL1	1	R1095N
771.358	4.0	1199328	STUDY_PAIR	n/a	wordpools/wordpool_EN.txt	5	3	MOTH	n/a	MOTH	PURSE	6	[0, 0, 0]	-999	PAL1	1	R1095N
776.392	0.275	1204362	STUDY_ORIENT	n/a	n/a	6	6	JET	MOOSE	MOOSE	JET	6	[0, 0, 0]	-999	PAL1	1	R1095N
777.226	4.0	1205196	STUDY_PAIR	n/a	wordpools/wordpool_EN.txt	6	6	JET	MOOSE	MOOSE	JET	6	[0, 0, 0]	-999	PAL1	1	R1095N
781.243	1.0	1209213	START	n/a	n/a	-999	-999	n/a	n/a	n/a	n/a	6	[-999, -999, -999]	-999	PAL1	1	R1095N
782.243	0.017	1210213	MATH_START	n/a	n/a	-999	-999	n/a	n/a	n/a	n/a	6	[0, 0, 0]	-999	PAL1	1	R1095N
782.26	3.75	1210230	PROB	3.728	n/a	-999	-999	n/a	n/a	n/a	n/a	6	[9, 9, 4]	22	PAL1	1	R1095N
786.01	7.684	1213980	PROB	7.657	n/a	-999	-999	n/a	n/a	n/a	n/a	6	[4, 8, 7]	19	PAL1	1	R1095N
793.694	6.784	1221664	PROB	6.757	n/a	-999	-999	n/a	n/a	n/a	n/a	6	[8, 6, 5]	19	PAL1	1	R1095N
800.478	6.525	1228448	PROB	6.525	n/a	-999	-999	n/a	n/a	n/a	n/a	6	[4, 4, 9]	17	PAL1	1	R1095N
807.003	0.01	1234973	STOP	n/a	n/a	-999	-999	n/a	n/a	n/a	n/a	6	[-999, -999, -999]	-999	PAL1	1	R1095N
807.013	0.0	1234983	MATH_END	n/a	n/a	-999	-999	n/a	n/a	n/a	n/a	6	[0, 0, 0]	-999	PAL1	1	R1095N
807.013	0.016	1234983	TEST_START	n/a	n/a	-999	-999	n/a	n/a	n/a	n/a	6	[0, 0, 0]	-999	PAL1	1	R1095N
807.029	0.275	1234999	TEST_ORIENT	n/a	n/a	1	1	MOUTH	n/a	CAKE	MOUTH	6	[0, 0, 0]	-999	PAL1	1	R1095N
807.895	4.0	1235865	TEST_PROBE	n/a	wordpools/wordpool_EN.txt	1	1	MOUTH	n/a	CAKE	MOUTH	6	[0, 0, 0]	-999	PAL1	1	R1095N
807.895	5.018	1235865	REC_START	n/a	n/a	1	-999	n/a	n/a	n/a	n/a	6	[0, 0, 0]	-999	PAL1	1	R1095N
812.913	0.003	1240884	REC_END	n/a	n/a	1	-999	n/a	n/a	n/a	n/a	6	[0, 0, 0]	-999	PAL1	1	R1095N
812.916	0.014	1240887	REC_EVENT	5.021	n/a	1	1	MOUTH	<>	CAKE	MOUTH	6	[0, 0, 0]	-999	PAL1	1	R1095N
812.93	0.275	1240901	TEST_ORIENT	n/a	n/a	4	2	LAND	WEB	LAND	WEB	6	[0, 0, 0]	-999	PAL1	1	R1095N
813.747	4.0	1241718	TEST_PROBE	n/a	wordpools/wordpool_EN.txt	4	2	LAND	WEB	LAND	WEB	6	[0, 0, 0]	-999	PAL1	1	R1095N
813.747	1.152	1241718	REC_START	n/a	n/a	4	-999	n/a	WEB	n/a	n/a	6	[0, 0, 0]	-999	PAL1	1	R1095N
814.899	3.865	1242870	REC_EVENT	1.152	n/a	4	2	LAND	WEB	LAND	WEB	6	[0, 0, 0]	-999	PAL1	1	R1095N
818.764	0.017	1246735	REC_END	n/a	n/a	4	-999	n/a	n/a	n/a	n/a	6	[0, 0, 0]	-999	PAL1	1	R1095N
818.781	0.275	1246752	TEST_ORIENT	n/a	n/a	5	3	MOTH	n/a	MOTH	PURSE	6	[0, 0, 0]	-999	PAL1	1	R1095N
819.747	4.0	1247718	TEST_PROBE	n/a	wordpools/wordpool_EN.txt	5	3	MOTH	n/a	MOTH	PURSE	6	[0, 0, 0]	-999	PAL1	1	R1095N
819.748	5.015	1247719	REC_START	n/a	n/a	5	-999	n/a	n/a	n/a	n/a	6	[0, 0, 0]	-999	PAL1	1	R1095N
824.763	0.001	1252734	REC_EVENT	5.015	n/a	5	3	MOTH	<>	MOTH	PURSE	6	[0, 0, 0]	-999	PAL1	1	R1095N
824.764	0.017	1252735	REC_END	n/a	n/a	5	-999	n/a	n/a	n/a	n/a	6	[0, 0, 0]	-999	PAL1	1	R1095N
824.781	0.275	1252752	TEST_ORIENT	n/a	n/a	2	4	LAKE	LAND	CLOCK	LAKE	6	[0, 0, 0]	-999	PAL1	1	R1095N
825.798	4.0	1253769	TEST_PROBE	n/a	wordpools/wordpool_EN.txt	2	4	LAKE	LAND	CLOCK	LAKE	6	[0, 0, 0]	-999	PAL1	1	R1095N
825.799	2.092	1253770	REC_START	n/a	n/a	2	-999	n/a	LAND	n/a	n/a	6	[0, 0, 0]	-999	PAL1	1	R1095N
827.891	2.933	1255862	REC_EVENT	2.092	n/a	2	4	LAKE	LAND	CLOCK	LAKE	6	[0, 0, 0]	-999	PAL1	1	R1095N
830.824	0.007	1258795	REC_END	n/a	n/a	2	-999	n/a	n/a	n/a	n/a	6	[0, 0, 0]	-999	PAL1	1	R1095N
830.831	0.275	1258802	TEST_ORIENT	n/a	n/a	3	5	SLUSH	SALT	SLUSH	SALT	6	[0, 0, 0]	-999	PAL1	1	R1095N
831.749	0.0	1259720	REC_START	n/a	n/a	3	-999	n/a	SALT	n/a	n/a	6	[0, 0, 0]	-999	PAL1	1	R1095N
831.749	4.0	1259720	TEST_PROBE	n/a	wordpools/wordpool_EN.txt	3	5	SLUSH	SALT	SLUSH	SALT	6	[0, 0, 0]	-999	PAL1	1	R1095N
833.826	2.94	1261797	REC_EVENT	2.077	n/a	3	5	SLUSH	SALT	SLUSH	SALT	6	[0, 0, 0]	-999	PAL1	1	R1095N
836.766	0.017	1264737	REC_END	n/a	n/a	3	-999	n/a	n/a	n/a	n/a	6	[0, 0, 0]	-999	PAL1	1	R1095N
836.783	0.275	1264754	TEST_ORIENT	n/a	n/a	6	6	JET	MOOSE	MOOSE	JET	6	[0, 0, 0]	-999	PAL1	1	R1095N
837.815	4.0	1265786	TEST_PROBE	n/a	wordpools/wordpool_EN.txt	6	6	JET	MOOSE	MOOSE	JET	6	[0, 0, 0]	-999	PAL1	1	R1095N
837.815	1.203	1265786	REC_START	n/a	n/a	6	-999	n/a	MOOSE	n/a	n/a	6	[0, 0, 0]	-999	PAL1	1	R1095N
839.018	3.814	1266989	REC_EVENT	1.203	n/a	6	6	JET	MOOSE	MOOSE	JET	6	[0, 0, 0]	-999	PAL1	1	R1095N
842.832	0.034	1270803	REC_END	n/a	n/a	6	-999	n/a	n/a	n/a	n/a	6	[0, 0, 0]	-999	PAL1	1	R1095N
842.866	9.774	1270837	FEEDBACK_SHOW_ALL_PAIRS	n/a	n/a	6	-999	n/a	n/a	n/a	n/a	6	[0, 0, 0]	-999	PAL1	1	R1095N
852.64	10.446	1280611	ENCODING_START	n/a	n/a	0	-999	n/a	n/a	n/a	n/a	7	[0, 0, 0]	-999	PAL1	1	R1095N
863.086	0.275	1291057	STUDY_ORIENT	n/a	n/a	1	1	SMILE	DOOR	SMILE	DOOR	7	[0, 0, 0]	-999	PAL1	1	R1095N
863.953	4.0	1291924	STUDY_PAIR	n/a	wordpools/wordpool_EN.txt	1	1	SMILE	DOOR	SMILE	DOOR	7	[0, 0, 0]	-999	PAL1	1	R1095N
868.987	0.275	1296958	STUDY_ORIENT	n/a	n/a	2	4	WEED	CUP	CUP	WEED	7	[0, 0, 0]	-999	PAL1	1	R1095N
869.937	4.0	1297908	STUDY_PAIR	n/a	wordpools/wordpool_EN.txt	2	4	WEED	CUP	CUP	WEED	7	[0, 0, 0]	-999	PAL1	1	R1095N
874.971	0.275	1302942	STUDY_ORIENT	n/a	n/a	3	3	PARK	WOLF	PARK	WOLF	7	[0, 0, 0]	-999	PAL1	1	R1095N
875.787	4.0	1303758	STUDY_PAIR	n/a	wordpools/wordpool_EN.txt	3	3	PARK	WOLF	PARK	WOLF	7	[0, 0, 0]	-999	PAL1	1	R1095N
880.82	0.275	1308791	STUDY_ORIENT	n/a	n/a	4	6	FENCE	n/a	STORM	FENCE	7	[0, 0, 0]	-999	PAL1	1	R1095N
881.788	4.0	1309759	STUDY_PAIR	n/a	wordpools/wordpool_EN.txt	4	6	FENCE	n/a	STORM	FENCE	7	[0, 0, 0]	-999	PAL1	1	R1095N
886.821	0.275	1314792	STUDY_ORIENT	n/a	n/a	5	5	NEST	FRUIT	FRUIT	NEST	7	[0, 0, 0]	-999	PAL1	1	R1095N
887.655	4.0	1315626	STUDY_PAIR	n/a	wordpools/wordpool_EN.txt	5	5	NEST	FRUIT	FRUIT	NEST	7	[0, 0, 0]	-999	PAL1	1	R1095N
892.673	0.275	1320644	STUDY_ORIENT	n/a	n/a	6	2	BEACH	SIGN	BEACH	SEAL	7	[0, 0, 0]	-999	PAL1	1	R1095N
893.606	4.0	1321577	STUDY_PAIR	n/a	wordpools/wordpool_EN.txt	6	2	BEACH	SIGN	BEACH	SEAL	7	[0, 0, 0]	-999	PAL1	1	R1095N
897.624	0.999	1325596	START	n/a	n/a	-999	-999	n/a	n/a	n/a	n/a	7	[-999, -999, -999]	-999	PAL1	1	R1095N
898.623	0.017	1326595	MATH_START	n/a	n/a	-999	-999	n/a	n/a	n/a	n/a	7	[0, 0, 0]	-999	PAL1	1	R1095N
898.64	4.183	1326612	PROB	4.15	n/a	-999	-999	n/a	n/a	n/a	n/a	7	[9, 2, 9]	20	PAL1	1	R1095N
902.823	4.118	1330795	PROB	4.085	n/a	-999	-999	n/a	n/a	n/a	n/a	7	[8, 8, 4]	20	PAL1	1	R1095N
906.941	2.117	1334913	PROB	2.096	n/a	-999	-999	n/a	n/a	n/a	n/a	7	[2, 2, 1]	5	PAL1	1	R1095N
909.058	5.601	1337030	PROB	5.571	n/a	-999	-999	n/a	n/a	n/a	n/a	7	[8, 3, 4]	15	PAL1	1	R1095N
914.659	7.346	1342631	PROB	7.346	n/a	-999	-999	n/a	n/a	n/a	n/a	7	[7, 4, 5]	16	PAL1	1	R1095N
922.005	0.005	1349977	STOP	n/a	n/a	-999	-999	n/a	n/a	n/a	n/a	7	[-999, -999, -999]	-999	PAL1	1	R1095N
922.01	0.0	1349982	MATH_END	n/a	n/a	-999	-999	n/a	n/a	n/a	n/a	7	[0, 0, 0]	-999	PAL1	1	R1095N
922.01	0.016	1349982	TEST_START	n/a	n/a	-999	-999	n/a	n/a	n/a	n/a	7	[0, 0, 0]	-999	PAL1	1	R1095N
922.026	0.275	1349998	TEST_ORIENT	n/a	n/a	1	1	SMILE	DOOR	SMILE	DOOR	7	[0, 0, 0]	-999	PAL1	1	R1095N
923.01	4.0	1350982	TEST_PROBE	n/a	wordpools/wordpool_EN.txt	1	1	SMILE	DOOR	SMILE	DOOR	7	[0, 0, 0]	-999	PAL1	1	R1095N
923.01	0.972	1350982	REC_START	n/a	n/a	1	-999	n/a	DOOR	n/a	n/a	7	[0, 0, 0]	-999	PAL1	1	R1095N
923.982	4.045	1351954	REC_EVENT	0.972	n/a	1	1	SMILE	DOOR	SMILE	DOOR	7	[0, 0, 0]	-999	PAL1	1	R1095N
928.027	0.017	1355999	REC_END	n/a	n/a	1	-999	n/a	n/a	n/a	n/a	7	[0, 0, 0]	-999	PAL1	1	R1095N
928.044	0.275	1356016	TEST_ORIENT	n/a	n/a	6	2	BEACH	SIGN	BEACH	SEAL	7	[0, 0, 0]	-999	PAL1	1	R1095N
928.944	4.0	1356916	TEST_PROBE	n/a	wordpools/wordpool_EN.txt	6	2	BEACH	SIGN	BEACH	SEAL	7	[0, 0, 0]	-999	PAL1	1	R1095N
928.944	0.817	1356916	REC_START	n/a	n/a	6	-999	n/a	SIGN	n/a	n/a	7	[0, 0, 0]	-999	PAL1	1	R1095N
929.761	4.216	1357733	REC_EVENT	0.817	n/a	6	2	BEACH	SIGN	BEACH	SEAL	7	[0, 0, 0]	-999	PAL1	1	R1095N
933.977	0.017	1361949	REC_END	n/a	n/a	6	-999	n/a	n/a	n/a	n/a	7	[0, 0, 0]	-999	PAL1	1	R1095N
933.994	0.275	1361966	TEST_ORIENT	n/a	n/a	3	3	PARK	WOLF	PARK	WOLF	7	[0, 0, 0]	-999	PAL1	1	R1095N
934.843	4.0	1362815	TEST_PROBE	n/a	wordpools/wordpool_EN.txt	3	3	PARK	WOLF	PARK	WOLF	7	[0, 0, 0]	-999	PAL1	1	R1095N
934.844	1.888	1362816	REC_START	n/a	n/a	3	-999	n/a	WOLF	n/a	n/a	7	[0, 0, 0]	-999	PAL1	1	R1095N
936.732	3.128	1364704	REC_EVENT	1.888	n/a	3	3	PARK	WOLF	PARK	WOLF	7	[0, 0, 0]	-999	PAL1	1	R1095N
939.86	0.017	1367832	REC_END	n/a	n/a	3	-999	n/a	n/a	n/a	n/a	7	[0, 0, 0]	-999	PAL1	1	R1095N
939.877	0.275	1367849	TEST_ORIENT	n/a	n/a	2	4	WEED	CUP	CUP	WEED	7	[0, 0, 0]	-999	PAL1	1	R1095N
940.795	4.0	1368767	TEST_PROBE	n/a	wordpools/wordpool_EN.txt	2	4	WEED	CUP	CUP	WEED	7	[0, 0, 0]	-999	PAL1	1	R1095N
940.796	0.833	1368768	REC_START	n/a	n/a	2	-999	n/a	CUP	n/a	n/a	7	[0, 0, 0]	-999	PAL1	1	R1095N
941.629	4.191	1369601	REC_EVENT	0.833	n/a	2	4	WEED	CUP	CUP	WEED	7	[0, 0, 0]	-999	PAL1	1	R1095N
945.82	0.008	1373792	REC_END	n/a	n/a	2	-999	n/a	n/a	n/a	n/a	7	[0, 0, 0]	-999	PAL1	1	R1095N
945.828	0.275	1373800	TEST_ORIENT	n/a	n/a	5	5	NEST	FRUIT	FRUIT	NEST	7	[0, 0, 0]	-999	PAL1	1	R1095N
946.646	4.0	1374618	TEST_PROBE	n/a	wordpools/wordpool_EN.txt	5	5	NEST	FRUIT	FRUIT	NEST	7	[0, 0, 0]	-999	PAL1	1	R1095N
946.646	1.043	1374618	REC_START	n/a	n/a	5	-999	n/a	FRUIT	n/a	n/a	7	[0, 0, 0]	-999	PAL1	1	R1095N
947.689	3.974	1375661	REC_EVENT	1.043	n/a	5	5	NEST	FRUIT	FRUIT	NEST	7	[0, 0, 0]	-999	PAL1	1	R1095N
951.663	0.017	1379635	REC_END	n/a	n/a	5	-999	n/a	n/a	n/a	n/a	7	[0, 0, 0]	-999	PAL1	1	R1095N
951.68	0.275	1379652	TEST_ORIENT	n/a	n/a	4	6	FENCE	n/a	STORM	FENCE	7	[0, 0, 0]	-999	PAL1	1	R1095N
952.513	4.0	1380485	TEST_PROBE	n/a	wordpools/wordpool_EN.txt	4	6	FENCE	n/a	STORM	FENCE	7	[0, 0, 0]	-999	PAL1	1	R1095N
952.514	5.026	1380486	REC_START	n/a	n/a	4	-999	n/a	n/a	n/a	n/a	7	[0, 0, 0]	-999	PAL1	1	R1095N
957.54	0.001	1385512	REC_END	n/a	n/a	4	-999	n/a	n/a	n/a	n/a	7	[0, 0, 0]	-999	PAL1	1	R1095N
957.541	0.023	1385513	REC_EVENT	5.027	n/a	4	6	FENCE	<>	STORM	FENCE	7	[0, 0, 0]	-999	PAL1	1	R1095N
957.564	10.022	1385536	FEEDBACK_SHOW_ALL_PAIRS	n/a	n/a	4	-999	n/a	n/a	n/a	n/a	7	[0, 0, 0]	-999	PAL1	1	R1095N
967.586	10.447	1395558	ENCODING_START	n/a	n/a	0	-999	n/a	n/a	n/a	n/a	8	[0, 0, 0]	-999	PAL1	1	R1095N
978.033	0.275	1406005	STUDY_ORIENT	n/a	n/a	1	1	GLASS	SWORD	SWORD	GLASS	8	[0, 0, 0]	-999	PAL1	1	R1095N
978.898	4.0	1406870	STUDY_PAIR	n/a	wordpools/wordpool_EN.txt	1	1	GLASS	SWORD	SWORD	GLASS	8	[0, 0, 0]	-999	PAL1	1	R1095N
983.917	0.275	1411890	STUDY_ORIENT	n/a	n/a	2	6	SEAT	COW	SEAT	COW	8	[0, 0, 0]	-999	PAL1	1	R1095N
984.75	4.0	1412723	STUDY_PAIR	n/a	wordpools/wordpool_EN.txt	2	6	SEAT	COW	SEAT	COW	8	[0, 0, 0]	-999	PAL1	1	R1095N
989.784	0.275	1417757	STUDY_ORIENT	n/a	n/a	3	5	FOAM	PIE	FOAM	PIE	8	[0, 0, 0]	-999	PAL1	1	R1095N
990.601	4.0	1418574	STUDY_PAIR	n/a	wordpools/wordpool_EN.txt	3	5	FOAM	PIE	FOAM	PIE	8	[0, 0, 0]	-999	PAL1	1	R1095N
995.635	0.275	1423608	STUDY_ORIENT	n/a	n/a	4	2	CHIEF	HAWK	CHIEF	HAWK	8	[0, 0, 0]	-999	PAL1	1	R1095N
996.535	4.0	1424508	STUDY_PAIR	n/a	wordpools/wordpool_EN.txt	4	2	CHIEF	HAWK	CHIEF	HAWK	8	[0, 0, 0]	-999	PAL1	1	R1095N
1001.569	0.275	1429542	STUDY_ORIENT	n/a	n/a	5	3	HOOK	CHAIR	HOOK	CHAIR	8	[0, 0, 0]	-999	PAL1	1	R1095N
1002.569	4.0	1430542	STUDY_PAIR	n/a	wordpools/wordpool_EN.txt	5	3	HOOK	CHAIR	HOOK	CHAIR	8	[0, 0, 0]	-999	PAL1	1	R1095N
1007.603	0.275	1435576	STUDY_ORIENT	n/a	n/a	6	4	LEAF	SHOE	LEAF	SHOE	8	[0, 0, 0]	-999	PAL1	1	R1095N
1008.569	4.0	1436542	STUDY_PAIR	n/a	wordpools/wordpool_EN.txt	6	4	LEAF	SHOE	LEAF	SHOE	8	[0, 0, 0]	-999	PAL1	1	R1095N
1012.57	1.0	1440543	START	n/a	n/a	-999	-999	n/a	n/a	n/a	n/a	8	[-999, -999, -999]	-999	PAL1	1	R1095N
1013.57	0.017	1441543	MATH_START	n/a	n/a	-999	-999	n/a	n/a	n/a	n/a	8	[0, 0, 0]	-999	PAL1	1	R1095N
1013.587	6.684	1441560	PROB	6.653	n/a	-999	-999	n/a	n/a	n/a	n/a	8	[8, 3, 4]	15	PAL1	1	R1095N
1020.271	5.117	1448244	PROB	5.088	n/a	-999	-999	n/a	n/a	n/a	n/a	8	[9, 2, 5]	16	PAL1	1	R1095N
1025.388	5.118	1453361	PROB	5.083	n/a	-999	-999	n/a	n/a	n/a	n/a	8	[2, 7, 6]	15	PAL1	1	R1095N
1030.506	5.541	1458479	PROB	5.541	n/a	-999	-999	n/a	n/a	n/a	n/a	8	[9, 4, 2]	15	PAL1	1	R1095N
1036.047	0.009	1464020	STOP	n/a	n/a	-999	-999	n/a	n/a	n/a	n/a	8	[-999, -999, -999]	-999	PAL1	1	R1095N
1036.056	0.0	1464029	MATH_END	n/a	n/a	-999	-999	n/a	n/a	n/a	n/a	8	[0, 0, 0]	-999	PAL1	1	R1095N
1036.056	0.017	1464029	TEST_START	n/a	n/a	-999	-999	n/a	n/a	n/a	n/a	8	[0, 0, 0]	-999	PAL1	1	R1095N
1036.073	0.275	1464046	TEST_ORIENT	n/a	n/a	1	1	GLASS	SWORD	SWORD	GLASS	8	[0, 0, 0]	-999	PAL1	1	R1095N
1036.923	4.0	1464896	TEST_PROBE	n/a	wordpools/wordpool_EN.txt	1	1	GLASS	SWORD	SWORD	GLASS	8	[0, 0, 0]	-999	PAL1	1	R1095N
1036.924	0.879	1464897	REC_START	n/a	n/a	1	-999	n/a	SWORD	n/a	n/a	8	[0, 0, 0]	-999	PAL1	1	R1095N
1037.803	4.137	1465776	REC_EVENT	0.879	n/a	1	1	GLASS	SWORD	SWORD	GLASS	8	[0, 0, 0]	-999	PAL1	1	R1095N
1041.94	0.017	1469913	REC_END	n/a	n/a	1	-999	n/a	n/a	n/a	n/a	8	[0, 0, 0]	-999	PAL1	1	R1095N
1041.957	0.275	1469930	TEST_ORIENT	n/a	n/a	4	2	CHIEF	HAWK	CHIEF	HAWK	8	[0, 0, 0]	-999	PAL1	1	R1095N
1042.807	4.0	1470780	TEST_PROBE	n/a	wordpools/wordpool_EN.txt	4	2	CHIEF	HAWK	CHIEF	HAWK	8	[0, 0, 0]	-999	PAL1	1	R1095N
1042.808	0.782	1470781	REC_START	n/a	n/a	4	-999	n/a	HAWK	n/a	n/a	8	[0, 0, 0]	-999	PAL1	1	R1095N
1043.59	4.233	1471563	REC_EVENT	0.782	n/a	4	2	CHIEF	HAWK	CHIEF	HAWK	8	[0, 0, 0]	-999	PAL1	1	R1095N
1047.823	0.017	1475796	REC_END	n/a	n/a	4	-999	n/a	n/a	n/a	n/a	8	[0, 0, 0]	-999	PAL1	1	R1095N
1047.84	0.275	1475813	TEST_ORIENT	n/a	n/a	5	3	HOOK	CHAIR	HOOK	CHAIR	8	[0, 0, 0]	-999	PAL1	1	R1095N
1048.658	4.0	1476631	TEST_PROBE	n/a	wordpools/wordpool_EN.txt	5	3	HOOK	CHAIR	HOOK	CHAIR	8	[0, 0, 0]	-999	PAL1	1	R1095N
1048.658	0.797	1476631	REC_START	n/a	n/a	5	-999	n/a	CHAIR	n/a	n/a	8	[0, 0, 0]	-999	PAL1	1	R1095N
1049.455	4.22	1477428	REC_EVENT	0.797	n/a	5	3	HOOK	CHAIR	HOOK	CHAIR	8	[0, 0, 0]	-999	PAL1	1	R1095N
1053.675	0.017	1481648	REC_END	n/a	n/a	5	-999	n/a	n/a	n/a	n/a	8	[0, 0, 0]	-999	PAL1	1	R1095N
1053.692	0.275	1481665	TEST_ORIENT	n/a	n/a	6	4	LEAF	SHOE	LEAF	SHOE	8	[0, 0, 0]	-999	PAL1	1	R1095N
1054.509	0.0	1482482	REC_START	n/a	n/a	6	-999	n/a	SHOE	n/a	n/a	8	[0, 0, 0]	-999	PAL1	1	R1095N
1054.509	4.0	1482482	TEST_PROBE	n/a	wordpools/wordpool_EN.txt	6	4	LEAF	SHOE	LEAF	SHOE	8	[0, 0, 0]	-999	PAL1	1	R1095N
1055.676	3.85	1483649	REC_EVENT	1.167	n/a	6	4	LEAF	SHOE	LEAF	SHOE	8	[0, 0, 0]	-999	PAL1	1	R1095N
1059.526	0.016	1487499	REC_END	n/a	n/a	6	-999	n/a	n/a	n/a	n/a	8	[0, 0, 0]	-999	PAL1	1	R1095N
1059.542	0.275	1487515	TEST_ORIENT	n/a	n/a	3	5	FOAM	PIE	FOAM	PIE	8	[0, 0, 0]	-999	PAL1	1	R1095N
1060.376	4.0	1488349	TEST_PROBE	n/a	wordpools/wordpool_EN.txt	3	5	FOAM	PIE	FOAM	PIE	8	[0, 0, 0]	-999	PAL1	1	R1095N
1060.376	0.915	1488349	REC_START	n/a	n/a	3	-999	n/a	PIE	n/a	n/a	8	[0, 0, 0]	-999	PAL1	1	R1095N
1061.291	4.119	1489264	REC_EVENT	0.915	n/a	3	5	FOAM	PIE	FOAM	PIE	8	[0, 0, 0]	-999	PAL1	1	R1095N
1065.41	0.017	1493384	REC_END	n/a	n/a	3	-999	n/a	n/a	n/a	n/a	8	[0, 0, 0]	-999	PAL1	1	R1095N
1065.427	0.275	1493401	TEST_ORIENT	n/a	n/a	2	6	SEAT	COW	SEAT	COW	8	[0, 0, 0]	-999	PAL1	1	R1095N
1066.46	4.0	1494434	TEST_PROBE	n/a	wordpools/wordpool_EN.txt	2	6	SEAT	COW	SEAT	COW	8	[0, 0, 0]	-999	PAL1	1	R1095N
1066.461	1.178	1494435	REC_START	n/a	n/a	2	-999	n/a	COW	n/a	n/a	8	[0, 0, 0]	-999	PAL1	1	R1095N
1067.639	3.848	1495613	REC_EVENT	1.178	n/a	2	6	SEAT	COW	SEAT	COW	8	[0, 0, 0]	-999	PAL1	1	R1095N
1071.487	0.024	1499461	REC_END	n/a	n/a	2	-999	n/a	n/a	n/a	n/a	8	[0, 0, 0]	-999	PAL1	1	R1095N
1071.511	9.502	1499485	FEEDBACK_SHOW_ALL_PAIRS	n/a	n/a	2	-999	n/a	n/a	n/a	n/a	8	[0, 0, 0]	-999	PAL1	1	R1095N
1081.013	10.45	1508987	ENCODING_START	n/a	n/a	0	-999	n/a	n/a	n/a	n/a	9	[0, 0, 0]	-999	PAL1	1	R1095N
1091.463	0.275	1519437	STUDY_ORIENT	n/a	n/a	1	5	WALL	PEACH	WALL	PEACH	9	[0, 0, 0]	-999	PAL1	1	R1095N
1092.296	4.0	1520270	STUDY_PAIR	n/a	wordpools/wordpool_EN.txt	1	5	WALL	PEACH	WALL	PEACH	9	[0, 0, 0]	-999	PAL1	1	R1095N
1097.33	0.275	1525304	STUDY_ORIENT	n/a	n/a	2	4	BRICK	STOOL	STOOL	BRICK	9	[0, 0, 0]	-999	PAL1	1	R1095N
1098.28	4.0	1526254	STUDY_PAIR	n/a	wordpools/wordpool_EN.txt	2	4	BRICK	STOOL	STOOL	BRICK	9	[0, 0, 0]	-999	PAL1	1	R1095N
1103.314	0.275	1531288	STUDY_ORIENT	n/a	n/a	3	3	CLOWN	HILL	HILL	CLOWN	9	[0, 0, 0]	-999	PAL1	1	R1095N
1104.148	4.0	1532122	STUDY_PAIR	n/a	wordpools/wordpool_EN.txt	3	3	CLOWN	HILL	HILL	CLOWN	9	[0, 0, 0]	-999	PAL1	1	R1095N
1109.182	0.275	1537156	STUDY_ORIENT	n/a	n/a	4	2	CRANE	PIG	CRANE	PIG	9	[0, 0, 0]	-999	PAL1	1	R1095N
1109.999	4.0	1537973	STUDY_PAIR	n/a	wordpools/wordpool_EN.txt	4	2	CRANE	PIG	CRANE	PIG	9	[0, 0, 0]	-999	PAL1	1	R1095N
1115.032	0.275	1543006	STUDY_ORIENT	n/a	n/a	5	1	FORK	RAT	FORK	RAT	9	[0, 0, 0]	-999	PAL1	1	R1095N
1115.815	4.0	1543789	STUDY_PAIR	n/a	wordpools/wordpool_EN.txt	5	1	FORK	RAT	FORK	RAT	9	[0, 0, 0]	-999	PAL1	1	R1095N
1120.849	0.275	1548823	STUDY_ORIENT	n/a	n/a	6	6	GEESE	SHARK	SHARK	GEESE	9	[0, 0, 0]	-999	PAL1	1	R1095N
1121.65	4.0	1549624	STUDY_PAIR	n/a	wordpools/wordpool_EN.txt	6	6	GEESE	SHARK	SHARK	GEESE	9	[0, 0, 0]	-999	PAL1	1	R1095N
1125.667	1.0	1553641	START	n/a	n/a	-999	-999	n/a	n/a	n/a	n/a	9	[-999, -999, -999]	-999	PAL1	1	R1095N
1126.667	0.017	1554641	MATH_START	n/a	n/a	-999	-999	n/a	n/a	n/a	n/a	9	[0, 0, 0]	-999	PAL1	1	R1095N
1126.684	3.05	1554658	PROB	3.03	n/a	-999	-999	n/a	n/a	n/a	n/a	9	[1, 9, 5]	15	PAL1	1	R1095N
1129.734	3.501	1557708	PROB	3.476	n/a	-999	-999	n/a	n/a	n/a	n/a	9	[5, 1, 2]	8	PAL1	1	R1095N
1133.235	2.967	1561209	PROB	2.935	n/a	-999	-999	n/a	n/a	n/a	n/a	9	[3, 3, 3]	9	PAL1	1	R1095N
1136.202	3.067	1564176	PROB	3.04	n/a	-999	-999	n/a	n/a	n/a	n/a	9	[1, 7, 2]	10	PAL1	1	R1095N
1139.269	3.483	1567243	PROB	3.46	n/a	-999	-999	n/a	n/a	n/a	n/a	9	[2, 6, 3]	11	PAL1	1	R1095N
1142.752	3.449	1570726	PROB	3.449	n/a	-999	-999	n/a	n/a	n/a	n/a	9	[7, 3, 7]	17	PAL1	1	R1095N
1146.201	0.018	1574175	STOP	n/a	n/a	-999	-999	n/a	n/a	n/a	n/a	9	[-999, -999, -999]	-999	PAL1	1	R1095N
1146.219	0.0	1574193	TEST_START	n/a	n/a	-999	-999	n/a	n/a	n/a	n/a	9	[0, 0, 0]	-999	PAL1	1	R1095N
1146.219	0.017	1574193	MATH_END	n/a	n/a	-999	-999	n/a	n/a	n/a	n/a	9	[0, 0, 0]	-999	PAL1	1	R1095N
1146.236	0.275	1574210	TEST_ORIENT	n/a	n/a	5	1	FORK	RAT	FORK	RAT	9	[0, 0, 0]	-999	PAL1	1	R1095N
1147.136	4.0	1575110	TEST_PROBE	n/a	wordpools/wordpool_EN.txt	5	1	FORK	RAT	FORK	RAT	9	[0, 0, 0]	-999	PAL1	1	R1095N
1147.137	1.003	1575111	REC_START	n/a	n/a	5	-999	n/a	RAT	n/a	n/a	9	[0, 0, 0]	-999	PAL1	1	R1095N
1148.14	4.022	1576114	REC_EVENT	1.003	n/a	5	1	FORK	RAT	FORK	RAT	9	[0, 0, 0]	-999	PAL1	1	R1095N
1152.162	0.008	1580137	REC_END	n/a	n/a	5	-999	n/a	n/a	n/a	n/a	9	[0, 0, 0]	-999	PAL1	1	R1095N
1152.17	0.275	1580145	TEST_ORIENT	n/a	n/a	4	2	CRANE	PIG	CRANE	PIG	9	[0, 0, 0]	-999	PAL1	1	R1095N
1152.97	4.0	1580945	TEST_PROBE	n/a	wordpools/wordpool_EN.txt	4	2	CRANE	PIG	CRANE	PIG	9	[0, 0, 0]	-999	PAL1	1	R1095N
1152.971	2.132	1580946	REC_START	n/a	n/a	4	-999	n/a	PIG	n/a	n/a	9	[0, 0, 0]	-999	PAL1	1	R1095N
1155.103	2.894	1583078	REC_EVENT	2.132	n/a	4	2	CRANE	PIG	CRANE	PIG	9	[0, 0, 0]	-999	PAL1	1	R1095N
1157.997	0.007	1585972	REC_END	n/a	n/a	4	-999	n/a	n/a	n/a	n/a	9	[0, 0, 0]	-999	PAL1	1	R1095N
1158.004	0.275	1585979	TEST_ORIENT	n/a	n/a	3	3	CLOWN	HILL	HILL	CLOWN	9	[0, 0, 0]	-999	PAL1	1	R1095N
1158.987	4.0	1586962	TEST_PROBE	n/a	wordpools/wordpool_EN.txt	3	3	CLOWN	HILL	HILL	CLOWN	9	[0, 0, 0]	-999	PAL1	1	R1095N
1158.988	0.81	1586963	REC_START	n/a	n/a	3	-999	n/a	HILL	n/a	n/a	9	[0, 0, 0]	-999	PAL1	1	R1095N
1159.798	4.2	1587773	REC_EVENT	0.81	n/a	3	3	CLOWN	HILL	HILL	CLOWN	9	[0, 0, 0]	-999	PAL1	1	R1095N
1163.998	0.007	1591973	REC_END	n/a	n/a	3	-999	n/a	n/a	n/a	n/a	9	[0, 0, 0]	-999	PAL1	1	R1095N
1164.005	0.275	1591980	TEST_ORIENT	n/a	n/a	2	4	BRICK	STOOL	STOOL	BRICK	9	[0, 0, 0]	-999	PAL1	1	R1095N
1164.821	0.0	1592796	REC_START	n/a	n/a	2	-999	n/a	STOOL	n/a	n/a	9	[0, 0, 0]	-999	PAL1	1	R1095N
1164.821	4.0	1592796	TEST_PROBE	n/a	wordpools/wordpool_EN.txt	2	4	BRICK	STOOL	STOOL	BRICK	9	[0, 0, 0]	-999	PAL1	1	R1095N
1165.71	4.128	1593685	REC_EVENT	0.889	n/a	2	4	BRICK	STOOL	STOOL	BRICK	9	[0, 0, 0]	-999	PAL1	1	R1095N
1169.838	0.017	1597813	REC_END	n/a	n/a	2	-999	n/a	n/a	n/a	n/a	9	[0, 0, 0]	-999	PAL1	1	R1095N
1169.855	0.275	1597830	TEST_ORIENT	n/a	n/a	1	5	WALL	PEACH	WALL	PEACH	9	[0, 0, 0]	-999	PAL1	1	R1095N
1170.806	4.0	1598781	TEST_PROBE	n/a	wordpools/wordpool_EN.txt	1	5	WALL	PEACH	WALL	PEACH	9	[0, 0, 0]	-999	PAL1	1	R1095N
1170.807	0.86	1598782	REC_START	n/a	n/a	1	-999	n/a	PEACH	n/a	n/a	9	[0, 0, 0]	-999	PAL1	1	R1095N
1171.667	4.155	1599642	REC_EVENT	0.86	n/a	1	5	WALL	PEACH	WALL	PEACH	9	[0, 0, 0]	-999	PAL1	1	R1095N
1175.822	0.017	1603797	REC_END	n/a	n/a	1	-999	n/a	n/a	n/a	n/a	9	[0, 0, 0]	-999	PAL1	1	R1095N
1175.839	0.275	1603814	TEST_ORIENT	n/a	n/a	6	6	GEESE	SHARK	SHARK	GEESE	9	[0, 0, 0]	-999	PAL1	1	R1095N
1176.806	4.0	1604781	TEST_PROBE	n/a	wordpools/wordpool_EN.txt	6	6	GEESE	SHARK	SHARK	GEESE	9	[0, 0, 0]	-999	PAL1	1	R1095N
1176.807	0.821	1604782	REC_START	n/a	n/a	6	-999	n/a	SHARK	n/a	n/a	9	[0, 0, 0]	-999	PAL1	1	R1095N
1177.628	4.204	1605603	REC_EVENT	0.821	n/a	6	6	GEESE	SHARK	SHARK	GEESE	9	[0, 0, 0]	-999	PAL1	1	R1095N
1181.832	0.024	1609807	REC_END	n/a	n/a	6	-999	n/a	n/a	n/a	n/a	9	[0, 0, 0]	-999	PAL1	1	R1095N
1181.856	10.006	1609831	FEEDBACK_SHOW_ALL_PAIRS	n/a	n/a	6	-999	n/a	n/a	n/a	n/a	9	[0, 0, 0]	-999	PAL1	1	R1095N
1191.862	10.447	1619837	ENCODING_START	n/a	n/a	0	-999	n/a	n/a	n/a	n/a	10	[0, 0, 0]	-999	PAL1	1	R1095N
1202.309	0.275	1630284	STUDY_ORIENT	n/a	n/a	1	1	SPEAR	EEL	SPEAR	EEL	10	[0, 0, 0]	-999	PAL1	1	R1095N
1203.243	4.0	1631218	STUDY_PAIR	n/a	wordpools/wordpool_EN.txt	1	1	SPEAR	EEL	SPEAR	EEL	10	[0, 0, 0]	-999	PAL1	1	R1095N
1208.277	0.275	1636252	STUDY_ORIENT	n/a	n/a	2	2	ROOF	VINE	VINE	ROOF	10	[0, 0, 0]	-999	PAL1	1	R1095N
1209.16	4.0	1637135	STUDY_PAIR	n/a	wordpools/wordpool_EN.txt	2	2	ROOF	VINE	VINE	ROOF	10	[0, 0, 0]	-999	PAL1	1	R1095N
1214.194	0.275	1642169	STUDY_ORIENT	n/a	n/a	3	3	KITE	BADGE	BADGE	KITE	10	[0, 0, 0]	-999	PAL1	1	R1095N
1214.994	4.0	1642969	STUDY_PAIR	n/a	wordpools/wordpool_EN.txt	3	3	KITE	BADGE	BADGE	KITE	10	[0, 0, 0]	-999	PAL1	1	R1095N
1220.028	0.275	1648003	STUDY_ORIENT	n/a	n/a	4	6	TRASH	CROW	TRASH	CROW	10	[0, 0, 0]	-999	PAL1	1	R1095N
1220.844	4.0	1648819	STUDY_PAIR	n/a	wordpools/wordpool_EN.txt	4	6	TRASH	CROW	TRASH	CROW	10	[0, 0, 0]	-999	PAL1	1	R1095N
1225.878	0.275	1653853	STUDY_ORIENT	n/a	n/a	5	5	TIE	BRIDGE	TIE	BRIDGE	10	[0, 0, 0]	-999	PAL1	1	R1095N
1226.878	4.0	1654853	STUDY_PAIR	n/a	wordpools/wordpool_EN.txt	5	5	TIE	BRIDGE	TIE	BRIDGE	10	[0, 0, 0]	-999	PAL1	1	R1095N
1231.913	0.275	1659888	STUDY_ORIENT	n/a	n/a	6	4	CORD	ROOF	MOON	CORD	10	[0, 0, 0]	-999	PAL1	1	R1095N
1232.895	4.0	1660870	STUDY_PAIR	n/a	wordpools/wordpool_EN.txt	6	4	CORD	ROOF	MOON	CORD	10	[0, 0, 0]	-999	PAL1	1	R1095N
1236.914	0.999	1664890	START	n/a	n/a	-999	-999	n/a	n/a	n/a	n/a	10	[-999, -999, -999]	-999	PAL1	1	R1095N
1237.913	0.017	1665889	MATH_START	n/a	n/a	-999	-999	n/a	n/a	n/a	n/a	10	[0, 0, 0]	-999	PAL1	1	R1095N
1237.93	9.385	1665906	PROB	9.362	n/a	-999	-999	n/a	n/a	n/a	n/a	10	[6, 7, 9]	22	PAL1	1	R1095N
1247.315	4.317	1675291	PROB	4.297	n/a	-999	-999	n/a	n/a	n/a	n/a	10	[1, 4, 7]	12	PAL1	1	R1095N
1251.632	3.15	1679608	PROB	3.116	n/a	-999	-999	n/a	n/a	n/a	n/a	10	[3, 4, 7]	14	PAL1	1	R1095N
1254.782	5.269	1682758	PROB	5.269	n/a	-999	-999	n/a	n/a	n/a	n/a	10	[1, 8, 6]	15	PAL1	1	R1095N
1260.051	0.015	1688027	STOP	n/a	n/a	-999	-999	n/a	n/a	n/a	n/a	10	[-999, -999, -999]	-999	PAL1	1	R1095N
1260.066	0.0	1688042	TEST_START	n/a	n/a	-999	-999	n/a	n/a	n/a	n/a	10	[0, 0, 0]	-999	PAL1	1	R1095N
1260.066	0.017	1688042	MATH_END	n/a	n/a	-999	-999	n/a	n/a	n/a	n/a	10	[0, 0, 0]	-999	PAL1	1	R1095N
1260.083	0.275	1688059	TEST_ORIENT	n/a	n/a	1	1	SPEAR	EEL	SPEAR	EEL	10	[0, 0, 0]	-999	PAL1	1	R1095N
1261.05	4.0	1689026	TEST_PROBE	n/a	wordpools/wordpool_EN.txt	1	1	SPEAR	EEL	SPEAR	EEL	10	[0, 0, 0]	-999	PAL1	1	R1095N
1261.051	0.893	1689027	REC_START	n/a	n/a	1	-999	n/a	EEL	n/a	n/a	10	[0, 0, 0]	-999	PAL1	1	R1095N
1261.944	4.123	1689920	REC_EVENT	0.893	n/a	1	1	SPEAR	EEL	SPEAR	EEL	10	[0, 0, 0]	-999	PAL1	1	R1095N
1266.067	0.017	1694043	REC_END	n/a	n/a	1	-999	n/a	n/a	n/a	n/a	10	[0, 0, 0]	-999	PAL1	1	R1095N
1266.084	0.275	1694060	TEST_ORIENT	n/a	n/a	2	2	ROOF	VINE	VINE	ROOF	10	[0, 0, 0]	-999	PAL1	1	R1095N
1266.917	0.0	1694893	REC_START	n/a	n/a	2	-999	n/a	VINE	n/a	n/a	10	[0, 0, 0]	-999	PAL1	1	R1095N
1266.917	4.0	1694893	TEST_PROBE	n/a	wordpools/wordpool_EN.txt	2	2	ROOF	VINE	VINE	ROOF	10	[0, 0, 0]	-999	PAL1	1	R1095N
1268.396	3.538	1696372	REC_EVENT	1.479	n/a	2	2	ROOF	VINE	VINE	ROOF	10	[0, 0, 0]	-999	PAL1	1	R1095N
1271.934	0.017	1699910	REC_END	n/a	n/a	2	-999	n/a	n/a	n/a	n/a	10	[0, 0, 0]	-999	PAL1	1	R1095N
1271.951	0.275	1699927	TEST_ORIENT	n/a	n/a	3	3	KITE	BADGE	BADGE	KITE	10	[0, 0, 0]	-999	PAL1	1	R1095N
1272.918	4.0	1700894	TEST_PROBE	n/a	wordpools/wordpool_EN.txt	3	3	KITE	BADGE	BADGE	KITE	10	[0, 0, 0]	-999	PAL1	1	R1095N
1272.918	0.968	1700894	REC_START	n/a	n/a	3	-999	n/a	BADGE	n/a	n/a	10	[0, 0, 0]	-999	PAL1	1	R1095N
1273.886	4.049	1701862	REC_EVENT	0.968	n/a	3	3	KITE	BADGE	BADGE	KITE	10	[0, 0, 0]	-999	PAL1	1	R1095N
1277.935	0.017	1705911	REC_END	n/a	n/a	3	-999	n/a	n/a	n/a	n/a	10	[0, 0, 0]	-999	PAL1	1	R1095N
1277.952	0.275	1705928	TEST_ORIENT	n/a	n/a	6	4	CORD	ROOF	MOON	CORD	10	[0, 0, 0]	-999	PAL1	1	R1095N
1278.834	4.0	1706810	TEST_PROBE	n/a	wordpools/wordpool_EN.txt	6	4	CORD	ROOF	MOON	CORD	10	[0, 0, 0]	-999	PAL1	1	R1095N
1278.835	3.905	1706811	REC_START	n/a	n/a	6	-999	n/a	ROOF	n/a	n/a	10	[0, 0, 0]	-999	PAL1	1	R1095N
1282.74	1.12	1710716	REC_EVENT	3.905	n/a	6	4	CORD	ROOF	MOON	CORD	10	[0, 0, 0]	-999	PAL1	1	R1095N
1283.86	0.008	1711836	REC_END	n/a	n/a	6	-999	n/a	n/a	n/a	n/a	10	[0, 0, 0]	-999	PAL1	1	R1095N
1283.868	0.275	1711844	TEST_ORIENT	n/a	n/a	5	5	TIE	BRIDGE	TIE	BRIDGE	10	[0, 0, 0]	-999	PAL1	1	R1095N
1284.868	4.0	1712844	TEST_PROBE	n/a	wordpools/wordpool_EN.txt	5	5	TIE	BRIDGE	TIE	BRIDGE	10	[0, 0, 0]	-999	PAL1	1	R1095N
1284.869	2.012	1712845	REC_START	n/a	n/a	5	-999	n/a	BRIDGE	n/a	n/a	10	[0, 0, 0]	-999	PAL1	1	R1095N
1286.881	3.014	1714857	REC_EVENT	2.012	n/a	5	5	TIE	BRIDGE	TIE	BRIDGE	10	[0, 0, 0]	-999	PAL1	1	R1095N
1289.895	0.007	1717871	REC_END	n/a	n/a	5	-999	n/a	n/a	n/a	n/a	10	[0, 0, 0]	-999	PAL1	1	R1095N
1289.902	0.275	1717878	TEST_ORIENT	n/a	n/a	4	6	TRASH	CROW	TRASH	CROW	10	[0, 0, 0]	-999	PAL1	1	R1095N
1290.77	4.0	1718746	TEST_PROBE	n/a	wordpools/wordpool_EN.txt	4	6	TRASH	CROW	TRASH	CROW	10	[0, 0, 0]	-999	PAL1	1	R1095N
1290.77	1.866	1718746	REC_START	n/a	n/a	4	-999	n/a	CROW	n/a	n/a	10	[0, 0, 0]	-999	PAL1	1	R1095N
1292.636	3.151	1720612	REC_EVENT	1.866	n/a	4	6	TRASH	CROW	TRASH	CROW	10	[0, 0, 0]	-999	PAL1	1	R1095N
1295.787	0.032	1723763	REC_END	n/a	n/a	4	-999	n/a	n/a	n/a	n/a	10	[0, 0, 0]	-999	PAL1	1	R1095N
1295.819	9.822	1723795	FEEDBACK_SHOW_ALL_PAIRS	n/a	n/a	4	-999	n/a	n/a	n/a	n/a	10	[0, 0, 0]	-999	PAL1	1	R1095N
1305.641	10.448	1733617	ENCODING_START	n/a	n/a	0	-999	n/a	n/a	n/a	n/a	11	[0, 0, 0]	-999	PAL1	1	R1095N
1316.089	0.275	1744065	STUDY_ORIENT	n/a	n/a	1	5	POOL	CORN	CORN	POOL	11	[0, 0, 0]	-999	PAL1	1	R1095N
1316.94	4.0	1744916	STUDY_PAIR	n/a	wordpools/wordpool_EN.txt	1	5	POOL	CORN	CORN	POOL	11	[0, 0, 0]	-999	PAL1	1	R1095N
1321.974	0.275	1749951	STUDY_ORIENT	n/a	n/a	2	2	TOE	n/a	PIPE	TOE	11	[0, 0, 0]	-999	PAL1	1	R1095N
1322.774	4.0	1750751	STUDY_PAIR	n/a	wordpools/wordpool_EN.txt	2	2	TOE	n/a	PIPE	TOE	11	[0, 0, 0]	-999	PAL1	1	R1095N
1327.807	0.275	1755784	STUDY_ORIENT	n/a	n/a	3	3	SWAMP	n/a	BROOM	SWAMP	11	[0, 0, 0]	-999	PAL1	1	R1095N
1328.608	4.0	1756585	STUDY_PAIR	n/a	wordpools/wordpool_EN.txt	3	3	SWAMP	n/a	BROOM	SWAMP	11	[0, 0, 0]	-999	PAL1	1	R1095N
1333.642	0.275	1761619	STUDY_ORIENT	n/a	n/a	4	6	LAWN	SCHOOL	SCHOOL	LAWN	11	[0, 0, 0]	-999	PAL1	1	R1095N
1334.442	4.0	1762419	STUDY_PAIR	n/a	wordpools/wordpool_EN.txt	4	6	LAWN	SCHOOL	SCHOOL	LAWN	11	[0, 0, 0]	-999	PAL1	1	R1095N
1339.476	0.275	1767453	STUDY_ORIENT	n/a	n/a	5	1	FLEA	BOY	FLEA	BOY	11	[0, 0, 0]	-999	PAL1	1	R1095N
1340.492	4.0	1768469	STUDY_PAIR	n/a	wordpools/wordpool_EN.txt	5	1	FLEA	BOY	FLEA	BOY	11	[0, 0, 0]	-999	PAL1	1	R1095N
1345.51	0.275	1773487	STUDY_ORIENT	n/a	n/a	6	4	TOAD	PASTE	TOAD	PASTE	11	[0, 0, 0]	-999	PAL1	1	R1095N
1346.51	4.0	1774487	STUDY_PAIR	n/a	wordpools/wordpool_EN.txt	6	4	TOAD	PASTE	TOAD	PASTE	11	[0, 0, 0]	-999	PAL1	1	R1095N
1350.527	1.0	1778504	START	n/a	n/a	-999	-999	n/a	n/a	n/a	n/a	11	[-999, -999, -999]	-999	PAL1	1	R1095N
1351.527	0.017	1779504	MATH_START	n/a	n/a	-999	-999	n/a	n/a	n/a	n/a	11	[0, 0, 0]	-999	PAL1	1	R1095N
1351.544	3.867	1779521	PROB	3.846	n/a	-999	-999	n/a	n/a	n/a	n/a	11	[6, 6, 5]	17	PAL1	1	R1095N
1355.411	4.466	1783388	PROB	4.434	n/a	-999	-999	n/a	n/a	n/a	n/a	11	[6, 2, 3]	11	PAL1	1	R1095N
1359.877	4.885	1787854	PROB	4.865	n/a	-999	-999	n/a	n/a	n/a	n/a	11	[3, 8, 9]	20	PAL1	1	R1095N
1364.762	4.584	1792739	PROB	4.564	n/a	-999	-999	n/a	n/a	n/a	n/a	11	[8, 5, 1]	14	PAL1	1	R1095N
1369.346	2.676	1797323	PROB	2.676	n/a	-999	-999	n/a	n/a	n/a	n/a	11	[6, 4, 3]	13	PAL1	1	R1095N
1372.022	0.007	1799999	STOP	n/a	n/a	-999	-999	n/a	n/a	n/a	n/a	11	[-999, -999, -999]	-999	PAL1	1	R1095N
1372.029	0.0	1800006	MATH_END	n/a	n/a	-999	-999	n/a	n/a	n/a	n/a	11	[0, 0, 0]	-999	PAL1	1	R1095N
1372.029	0.017	1800006	TEST_START	n/a	n/a	-999	-999	n/a	n/a	n/a	n/a	11	[0, 0, 0]	-999	PAL1	1	R1095N
1372.046	0.275	1800023	TEST_ORIENT	n/a	n/a	5	1	FLEA	BOY	FLEA	BOY	11	[0, 0, 0]	-999	PAL1	1	R1095N
1372.996	4.0	1800973	TEST_PROBE	n/a	wordpools/wordpool_EN.txt	5	1	FLEA	BOY	FLEA	BOY	11	[0, 0, 0]	-999	PAL1	1	R1095N
1372.997	0.982	1800974	REC_START	n/a	n/a	5	-999	n/a	BOY	n/a	n/a	11	[0, 0, 0]	-999	PAL1	1	R1095N
1373.979	4.034	1801956	REC_EVENT	0.982	n/a	5	1	FLEA	BOY	FLEA	BOY	11	[0, 0, 0]	-999	PAL1	1	R1095N
1378.013	0.017	1805990	REC_END	n/a	n/a	5	-999	n/a	n/a	n/a	n/a	11	[0, 0, 0]	-999	PAL1	1	R1095N
1378.03	0.275	1806007	TEST_ORIENT	n/a	n/a	2	2	TOE	n/a	PIPE	TOE	11	[0, 0, 0]	-999	PAL1	1	R1095N
1379.013	4.0	1806990	TEST_PROBE	n/a	wordpools/wordpool_EN.txt	2	2	TOE	n/a	PIPE	TOE	11	[0, 0, 0]	-999	PAL1	1	R1095N
1379.014	5.009	1806991	REC_START	n/a	n/a	2	-999	n/a	n/a	n/a	n/a	11	[0, 0, 0]	-999	PAL1	1	R1095N
1384.023	0.001	1812000	REC_EVENT	5.009	n/a	2	2	TOE	<>	PIPE	TOE	11	[0, 0, 0]	-999	PAL1	1	R1095N
1384.024	0.007	1812001	REC_END	n/a	n/a	2	-999	n/a	n/a	n/a	n/a	11	[0, 0, 0]	-999	PAL1	1	R1095N
1384.031	0.275	1812008	TEST_ORIENT	n/a	n/a	3	3	SWAMP	n/a	BROOM	SWAMP	11	[0, 0, 0]	-999	PAL1	1	R1095N
1384.948	4.0	1812925	TEST_PROBE	n/a	wordpools/wordpool_EN.txt	3	3	SWAMP	n/a	BROOM	SWAMP	11	[0, 0, 0]	-999	PAL1	1	R1095N
1384.948	5.015	1812925	REC_START	n/a	n/a	3	-999	n/a	n/a	n/a	n/a	11	[0, 0, 0]	-999	PAL1	1	R1095N
1389.963	0.002	1817940	REC_EVENT	5.015	n/a	3	3	SWAMP	<>	BROOM	SWAMP	11	[0, 0, 0]	-999	PAL1	1	R1095N
1389.965	0.017	1817942	REC_END	n/a	n/a	3	-999	n/a	n/a	n/a	n/a	11	[0, 0, 0]	-999	PAL1	1	R1095N
1389.982	0.275	1817959	TEST_ORIENT	n/a	n/a	6	4	TOAD	PASTE	TOAD	PASTE	11	[0, 0, 0]	-999	PAL1	1	R1095N
1390.831	4.0	1818808	TEST_PROBE	n/a	wordpools/wordpool_EN.txt	6	4	TOAD	PASTE	TOAD	PASTE	11	[0, 0, 0]	-999	PAL1	1	R1095N
1390.831	0.834	1818808	REC_START	n/a	n/a	6	-999	n/a	PASTE	n/a	n/a	11	[0, 0, 0]	-999	PAL1	1	R1095N
1391.665	4.183	1819642	REC_EVENT	0.834	n/a	6	4	TOAD	PASTE	TOAD	PASTE	11	[0, 0, 0]	-999	PAL1	1	R1095N
1395.848	0.017	1823825	REC_END	n/a	n/a	6	-999	n/a	n/a	n/a	n/a	11	[0, 0, 0]	-999	PAL1	1	R1095N
1395.865	0.275	1823842	TEST_ORIENT	n/a	n/a	1	5	POOL	CORN	CORN	POOL	11	[0, 0, 0]	-999	PAL1	1	R1095N
1396.881	4.0	1824858	TEST_PROBE	n/a	wordpools/wordpool_EN.txt	1	5	POOL	CORN	CORN	POOL	11	[0, 0, 0]	-999	PAL1	1	R1095N
1396.882	0.858	1824859	REC_START	n/a	n/a	1	-999	n/a	CORN	n/a	n/a	11	[0, 0, 0]	-999	PAL1	1	R1095N
1397.74	4.158	1825717	REC_EVENT	0.858	n/a	1	5	POOL	CORN	CORN	POOL	11	[0, 0, 0]	-999	PAL1	1	R1095N
1401.898	0.018	1829875	REC_END	n/a	n/a	1	-999	n/a	n/a	n/a	n/a	11	[0, 0, 0]	-999	PAL1	1	R1095N
1401.916	0.275	1829893	TEST_ORIENT	n/a	n/a	4	6	LAWN	SCHOOL	SCHOOL	LAWN	11	[0, 0, 0]	-999	PAL1	1	R1095N
1402.916	4.0	1830894	TEST_PROBE	n/a	wordpools/wordpool_EN.txt	4	6	LAWN	SCHOOL	SCHOOL	LAWN	11	[0, 0, 0]	-999	PAL1	1	R1095N
1402.917	1.367	1830895	REC_START	n/a	n/a	4	-999	n/a	SCHOOL	n/a	n/a	11	[0, 0, 0]	-999	PAL1	1	R1095N
1404.284	3.649	1832262	REC_EVENT	1.367	n/a	4	6	LAWN	SCHOOL	SCHOOL	LAWN	11	[0, 0, 0]	-999	PAL1	1	R1095N
1407.933	0.034	1835911	REC_END	n/a	n/a	4	-999	n/a	n/a	n/a	n/a	11	[0, 0, 0]	-999	PAL1	1	R1095N
1407.967	9.052	1835945	FEEDBACK_SHOW_ALL_PAIRS	n/a	n/a	4	-999	n/a	n/a	n/a	n/a	11	[0, 0, 0]	-999	PAL1	1	R1095N
1417.019	10.45	1844997	ENCODING_START	n/a	n/a	0	-999	n/a	n/a	n/a	n/a	12	[0, 0, 0]	-999	PAL1	1	R1095N
1427.469	0.275	1855447	STUDY_ORIENT	n/a	n/a	1	3	FUR	CANE	FUR	CANE	12	[0, 0, 0]	-999	PAL1	1	R1095N
1428.269	4.0	1856247	STUDY_PAIR	n/a	wordpools/wordpool_EN.txt	1	3	FUR	CANE	FUR	CANE	12	[0, 0, 0]	-999	PAL1	1	R1095N
1433.287	0.275	1861265	STUDY_ORIENT	n/a	n/a	2	2	WAND	BOOK	WAND	BOOK	12	[0, 0, 0]	-999	PAL1	1	R1095N
1434.203	4.0	1862181	STUDY_PAIR	n/a	wordpools/wordpool_EN.txt	2	2	WAND	BOOK	WAND	BOOK	12	[0, 0, 0]	-999	PAL1	1	R1095N
1439.221	0.275	1867199	STUDY_ORIENT	n/a	n/a	3	1	STREET	TRAIN	TRAIN	STREET	12	[0, 0, 0]	-999	PAL1	1	R1095N
1440.021	4.0	1867999	STUDY_PAIR	n/a	wordpools/wordpool_EN.txt	3	1	STREET	TRAIN	TRAIN	STREET	12	[0, 0, 0]	-999	PAL1	1	R1095N
1445.055	0.275	1873033	STUDY_ORIENT	n/a	n/a	4	4	GOLD	RIB	GOLD	RIB	12	[0, 0, 0]	-999	PAL1	1	R1095N
1445.971	4.0	1873949	STUDY_PAIR	n/a	wordpools/wordpool_EN.txt	4	4	GOLD	RIB	GOLD	RIB	12	[0, 0, 0]	-999	PAL1	1	R1095N
1450.989	0.275	1878967	STUDY_ORIENT	n/a	n/a	5	5	FUDGE	TEA	FUDGE	TEA	12	[0, 0, 0]	-999	PAL1	1	R1095N
1451.955	4.0	1879933	STUDY_PAIR	n/a	wordpools/wordpool_EN.txt	5	5	FUDGE	TEA	FUDGE	TEA	12	[0, 0, 0]	-999	PAL1	1	R1095N
1456.973	0.275	1884951	STUDY_ORIENT	n/a	n/a	6	6	BOAT	n/a	PIT	BOAT	12	[0, 0, 0]	-999	PAL1	1	R1095N
1457.822	4.0	1885800	STUDY_PAIR	n/a	wordpools/wordpool_EN.txt	6	6	BOAT	n/a	PIT	BOAT	12	[0, 0, 0]	-999	PAL1	1	R1095N
1461.84	0.999	1889818	START	n/a	n/a	-999	-999	n/a	n/a	n/a	n/a	12	[-999, -999, -999]	-999	PAL1	1	R1095N
1462.839	0.017	1890817	MATH_START	n/a	n/a	-999	-999	n/a	n/a	n/a	n/a	12	[0, 0, 0]	-999	PAL1	1	R1095N
1462.856	4.568	1890834	PROB	4.537	n/a	-999	-999	n/a	n/a	n/a	n/a	12	[4, 8, 9]	21	PAL1	1	R1095N
1467.424	6.501	1895402	PROB	6.479	n/a	-999	-999	n/a	n/a	n/a	n/a	12	[8, 9, 7]	24	PAL1	1	R1095N
1473.925	5.134	1901903	PROB	5.099	n/a	-999	-999	n/a	n/a	n/a	n/a	12	[8, 9, 3]	20	PAL1	1	R1095N
1479.059	5.885	1907037	PROB	5.885	n/a	-999	-999	n/a	n/a	n/a	n/a	12	[8, 7, 5]	20	PAL1	1	R1095N
1484.944	0.015	1912922	STOP	n/a	n/a	-999	-999	n/a	n/a	n/a	n/a	12	[-999, -999, -999]	-999	PAL1	1	R1095N
1484.959	0.0	1912937	MATH_END	n/a	n/a	-999	-999	n/a	n/a	n/a	n/a	12	[0, 0, 0]	-999	PAL1	1	R1095N
1484.959	0.017	1912937	TEST_START	n/a	n/a	-999	-999	n/a	n/a	n/a	n/a	12	[0, 0, 0]	-999	PAL1	1	R1095N
1484.976	0.275	1912954	TEST_ORIENT	n/a	n/a	3	1	STREET	TRAIN	TRAIN	STREET	12	[0, 0, 0]	-999	PAL1	1	R1095N
1485.892	4.0	1913870	TEST_PROBE	n/a	wordpools/wordpool_EN.txt	3	1	STREET	TRAIN	TRAIN	STREET	12	[0, 0, 0]	-999	PAL1	1	R1095N
1485.892	1.087	1913870	REC_START	n/a	n/a	3	-999	n/a	TRAIN	n/a	n/a	12	[0, 0, 0]	-999	PAL1	1	R1095N
1486.979	3.941	1914958	REC_EVENT	1.087	n/a	3	1	STREET	TRAIN	TRAIN	STREET	12	[0, 0, 0]	-999	PAL1	1	R1095N
1490.92	0.007	1918899	REC_END	n/a	n/a	3	-999	n/a	n/a	n/a	n/a	12	[0, 0, 0]	-999	PAL1	1	R1095N
1490.927	0.275	1918906	TEST_ORIENT	n/a	n/a	2	2	WAND	BOOK	WAND	BOOK	12	[0, 0, 0]	-999	PAL1	1	R1095N
1491.843	4.0	1919822	TEST_PROBE	n/a	wordpools/wordpool_EN.txt	2	2	WAND	BOOK	WAND	BOOK	12	[0, 0, 0]	-999	PAL1	1	R1095N
1491.843	1.254	1919822	REC_START	n/a	n/a	2	-999	n/a	BOOK	n/a	n/a	12	[0, 0, 0]	-999	PAL1	1	R1095N
1493.097	3.763	1921076	REC_EVENT	1.254	n/a	2	2	WAND	BOOK	WAND	BOOK	12	[0, 0, 0]	-999	PAL1	1	R1095N
1496.86	0.017	1924839	REC_END	n/a	n/a	2	-999	n/a	n/a	n/a	n/a	12	[0, 0, 0]	-999	PAL1	1	R1095N
1496.877	0.275	1924856	TEST_ORIENT	n/a	n/a	1	3	FUR	CANE	FUR	CANE	12	[0, 0, 0]	-999	PAL1	1	R1095N
1497.928	4.0	1925907	TEST_PROBE	n/a	wordpools/wordpool_EN.txt	1	3	FUR	CANE	FUR	CANE	12	[0, 0, 0]	-999	PAL1	1	R1095N
1497.928	0.826	1925907	REC_START	n/a	n/a	1	-999	n/a	CANE	n/a	n/a	12	[0, 0, 0]	-999	PAL1	1	R1095N
1498.754	4.191	1926733	REC_EVENT	0.826	n/a	1	3	FUR	CANE	FUR	CANE	12	[0, 0, 0]	-999	PAL1	1	R1095N
1502.945	0.017	1930924	REC_END	n/a	n/a	1	-999	n/a	n/a	n/a	n/a	12	[0, 0, 0]	-999	PAL1	1	R1095N
1502.962	0.275	1930941	TEST_ORIENT	n/a	n/a	4	4	GOLD	RIB	GOLD	RIB	12	[0, 0, 0]	-999	PAL1	1	R1095N
1503.962	4.0	1931941	TEST_PROBE	n/a	wordpools/wordpool_EN.txt	4	4	GOLD	RIB	GOLD	RIB	12	[0, 0, 0]	-999	PAL1	1	R1095N
1503.962	0.889	1931941	REC_START	n/a	n/a	4	-999	n/a	RIB	n/a	n/a	12	[0, 0, 0]	-999	PAL1	1	R1095N
1504.851	4.138	1932830	REC_EVENT	0.889	n/a	4	4	GOLD	RIB	GOLD	RIB	12	[0, 0, 0]	-999	PAL1	1	R1095N
1508.989	0.023	1936968	REC_END	n/a	n/a	4	-999	n/a	n/a	n/a	n/a	12	[0, 0, 0]	-999	PAL1	1	R1095N
1509.012	0.275	1936991	TEST_ORIENT	n/a	n/a	5	5	FUDGE	TEA	FUDGE	TEA	12	[0, 0, 0]	-999	PAL1	1	R1095N
1509.946	4.0	1937925	TEST_PROBE	n/a	wordpools/wordpool_EN.txt	5	5	FUDGE	TEA	FUDGE	TEA	12	[0, 0, 0]	-999	PAL1	1	R1095N
1509.946	0.914	1937925	REC_START	n/a	n/a	5	-999	n/a	TEA	n/a	n/a	12	[0, 0, 0]	-999	PAL1	1	R1095N
1510.86	4.103	1938839	REC_EVENT	0.914	n/a	5	5	FUDGE	TEA	FUDGE	TEA	12	[0, 0, 0]	-999	PAL1	1	R1095N
1514.963	0.017	1942942	REC_END	n/a	n/a	5	-999	n/a	n/a	n/a	n/a	12	[0, 0, 0]	-999	PAL1	1	R1095N
1514.98	0.275	1942959	TEST_ORIENT	n/a	n/a	6	6	BOAT	n/a	PIT	BOAT	12	[0, 0, 0]	-999	PAL1	1	R1095N
1515.895	4.0	1943874	TEST_PROBE	n/a	wordpools/wordpool_EN.txt	6	6	BOAT	n/a	PIT	BOAT	12	[0, 0, 0]	-999	PAL1	1	R1095N
1515.896	5.027	1943875	REC_START	n/a	n/a	6	-999	n/a	n/a	n/a	n/a	12	[0, 0, 0]	-999	PAL1	1	R1095N
1520.923	0.001	1948902	REC_EVENT	5.027	n/a	6	6	BOAT	<>	PIT	BOAT	12	[0, 0, 0]	-999	PAL1	1	R1095N
1520.924	0.023	1948903	REC_END	n/a	n/a	6	-999	n/a	n/a	n/a	n/a	12	[0, 0, 0]	-999	PAL1	1	R1095N
1520.947	9.426	1948926	FEEDBACK_SHOW_ALL_PAIRS	n/a	n/a	6	-999	n/a	n/a	n/a	n/a	12	[0, 0, 0]	-999	PAL1	1	R1095N
1530.373	10.442	1958352	ENCODING_START	n/a	n/a	0	-999	n/a	n/a	n/a	n/a	13	[0, 0, 0]	-999	PAL1	1	R1095N
1540.815	0.275	1968794	STUDY_ORIENT	n/a	n/a	1	3	BLUSH	WAVE	BLUSH	WAVE	13	[0, 0, 0]	-999	PAL1	1	R1095N
1541.633	4.0	1969612	STUDY_PAIR	n/a	wordpools/wordpool_EN.txt	1	3	BLUSH	WAVE	BLUSH	WAVE	13	[0, 0, 0]	-999	PAL1	1	R1095N
1546.667	0.275	1974646	STUDY_ORIENT	n/a	n/a	2	4	LAMP	FORT	LAMP	FORT	13	[0, 0, 0]	-999	PAL1	1	R1095N
1547.617	4.0	1975596	STUDY_PAIR	n/a	wordpools/wordpool_EN.txt	2	4	LAMP	FORT	LAMP	FORT	13	[0, 0, 0]	-999	PAL1	1	R1095N
1552.651	0.275	1980630	STUDY_ORIENT	n/a	n/a	3	5	FLUTE	n/a	FLUTE	WORLD	13	[0, 0, 0]	-999	PAL1	1	R1095N
1553.651	4.0	1981630	STUDY_PAIR	n/a	wordpools/wordpool_EN.txt	3	5	FLUTE	n/a	FLUTE	WORLD	13	[0, 0, 0]	-999	PAL1	1	R1095N
1558.685	0.275	1986664	STUDY_ORIENT	n/a	n/a	4	6	DRUM	SPOON	SPOON	DRUM	13	[0, 0, 0]	-999	PAL1	1	R1095N
1559.502	4.0	1987481	STUDY_PAIR	n/a	wordpools/wordpool_EN.txt	4	6	DRUM	SPOON	SPOON	DRUM	13	[0, 0, 0]	-999	PAL1	1	R1095N
1564.535	0.275	1992514	STUDY_ORIENT	n/a	n/a	5	1	GRASS	n/a	GRASS	DOCK	13	[0, 0, 0]	-999	PAL1	1	R1095N
1565.452	4.0	1993431	STUDY_PAIR	n/a	wordpools/wordpool_EN.txt	5	1	GRASS	n/a	GRASS	DOCK	13	[0, 0, 0]	-999	PAL1	1	R1095N
1570.486	0.275	1998465	STUDY_ORIENT	n/a	n/a	6	2	CHALK	FLOOR	CHALK	FLOOR	13	[0, 0, 0]	-999	PAL1	1	R1095N
1571.27	4.0	1999250	STUDY_PAIR	n/a	wordpools/wordpool_EN.txt	6	2	CHALK	FLOOR	CHALK	FLOOR	13	[0, 0, 0]	-999	PAL1	1	R1095N
1575.287	1.0	2003267	START	n/a	n/a	-999	-999	n/a	n/a	n/a	n/a	13	[-999, -999, -999]	-999	PAL1	1	R1095N
1576.287	0.016	2004267	MATH_START	n/a	n/a	-999	-999	n/a	n/a	n/a	n/a	13	[0, 0, 0]	-999	PAL1	1	R1095N
1576.303	7.735	2004283	PROB	7.715	n/a	-999	-999	n/a	n/a	n/a	n/a	13	[9, 7, 6]	22	PAL1	1	R1095N
1584.038	8.434	2012018	PROB	8.412	n/a	-999	-999	n/a	n/a	n/a	n/a	13	[6, 6, 6]	18	PAL1	1	R1095N
1592.472	4.401	2020452	PROB	4.401	n/a	-999	-999	n/a	n/a	n/a	n/a	13	[4, 8, 8]	20	PAL1	1	R1095N
1596.873	0.015	2024853	STOP	n/a	n/a	-999	-999	n/a	n/a	n/a	n/a	13	[-999, -999, -999]	-999	PAL1	1	R1095N
1596.888	0.0	2024868	MATH_END	n/a	n/a	-999	-999	n/a	n/a	n/a	n/a	13	[0, 0, 0]	-999	PAL1	1	R1095N
1596.888	0.017	2024868	TEST_START	n/a	n/a	-999	-999	n/a	n/a	n/a	n/a	13	[0, 0, 0]	-999	PAL1	1	R1095N
1596.905	0.275	2024885	TEST_ORIENT	n/a	n/a	5	1	GRASS	n/a	GRASS	DOCK	13	[0, 0, 0]	-999	PAL1	1	R1095N
1597.888	4.0	2025868	TEST_PROBE	n/a	wordpools/wordpool_EN.txt	5	1	GRASS	n/a	GRASS	DOCK	13	[0, 0, 0]	-999	PAL1	1	R1095N
1597.89	5.027	2025870	REC_START	n/a	n/a	5	-999	n/a	n/a	n/a	n/a	13	[0, 0, 0]	-999	PAL1	1	R1095N
1602.917	0.0	2030897	REC_END	n/a	n/a	5	-999	n/a	n/a	n/a	n/a	13	[0, 0, 0]	-999	PAL1	1	R1095N
1602.917	0.023	2030897	REC_EVENT	5.027	n/a	5	1	GRASS	<>	GRASS	DOCK	13	[0, 0, 0]	-999	PAL1	1	R1095N
1602.94	0.275	2030920	TEST_ORIENT	n/a	n/a	6	2	CHALK	FLOOR	CHALK	FLOOR	13	[0, 0, 0]	-999	PAL1	1	R1095N
1603.923	4.0	2031903	TEST_PROBE	n/a	wordpools/wordpool_EN.txt	6	2	CHALK	FLOOR	CHALK	FLOOR	13	[0, 0, 0]	-999	PAL1	1	R1095N
1603.924	1.002	2031904	REC_START	n/a	n/a	6	-999	n/a	FLOOR	n/a	n/a	13	[0, 0, 0]	-999	PAL1	1	R1095N
1604.926	3.998	2032906	REC_EVENT	1.002	n/a	6	2	CHALK	FLOOR	CHALK	FLOOR	13	[0, 0, 0]	-999	PAL1	1	R1095N
1608.924	0.017	2036904	REC_END	n/a	n/a	6	-999	n/a	n/a	n/a	n/a	13	[0, 0, 0]	-999	PAL1	1	R1095N
1608.941	0.275	2036921	TEST_ORIENT	n/a	n/a	1	3	BLUSH	WAVE	BLUSH	WAVE	13	[0, 0, 0]	-999	PAL1	1	R1095N
1609.957	4.0	2037937	TEST_PROBE	n/a	wordpools/wordpool_EN.txt	1	3	BLUSH	WAVE	BLUSH	WAVE	13	[0, 0, 0]	-999	PAL1	1	R1095N
1609.958	0.78	2037938	REC_START	n/a	n/a	1	-999	n/a	WAVE	n/a	n/a	13	[0, 0, 0]	-999	PAL1	1	R1095N
1610.738	4.23	2038718	REC_EVENT	0.78	n/a	1	3	BLUSH	WAVE	BLUSH	WAVE	13	[0, 0, 0]	-999	PAL1	1	R1095N
1614.968	0.006	2042948	REC_END	n/a	n/a	1	-999	n/a	n/a	n/a	n/a	13	[0, 0, 0]	-999	PAL1	1	R1095N
1614.974	0.275	2042954	TEST_ORIENT	n/a	n/a	2	4	LAMP	FORT	LAMP	FORT	13	[0, 0, 0]	-999	PAL1	1	R1095N
1615.84	4.0	2043820	TEST_PROBE	n/a	wordpools/wordpool_EN.txt	2	4	LAMP	FORT	LAMP	FORT	13	[0, 0, 0]	-999	PAL1	1	R1095N
1615.841	1.522	2043821	REC_START	n/a	n/a	2	-999	n/a	FORT	n/a	n/a	13	[0, 0, 0]	-999	PAL1	1	R1095N
1617.363	3.488	2045343	REC_EVENT	1.522	n/a	2	4	LAMP	FORT	LAMP	FORT	13	[0, 0, 0]	-999	PAL1	1	R1095N
1620.851	0.006	2048831	REC_END	n/a	n/a	2	-999	n/a	n/a	n/a	n/a	13	[0, 0, 0]	-999	PAL1	1	R1095N
1620.857	0.275	2048837	TEST_ORIENT	n/a	n/a	3	5	FLUTE	n/a	FLUTE	WORLD	13	[0, 0, 0]	-999	PAL1	1	R1095N
1621.775	4.0	2049755	TEST_PROBE	n/a	wordpools/wordpool_EN.txt	3	5	FLUTE	n/a	FLUTE	WORLD	13	[0, 0, 0]	-999	PAL1	1	R1095N
1621.776	5.009	2049756	REC_START	n/a	n/a	3	-999	n/a	n/a	n/a	n/a	13	[0, 0, 0]	-999	PAL1	1	R1095N
1626.785	0.001	2054765	REC_EVENT	5.009	n/a	3	5	FLUTE	<>	FLUTE	WORLD	13	[0, 0, 0]	-999	PAL1	1	R1095N
1626.786	0.006	2054766	REC_END	n/a	n/a	3	-999	n/a	n/a	n/a	n/a	13	[0, 0, 0]	-999	PAL1	1	R1095N
1626.792	0.275	2054772	TEST_ORIENT	n/a	n/a	4	6	DRUM	SPOON	SPOON	DRUM	13	[0, 0, 0]	-999	PAL1	1	R1095N
1627.76	4.0	2055740	TEST_PROBE	n/a	wordpools/wordpool_EN.txt	4	6	DRUM	SPOON	SPOON	DRUM	13	[0, 0, 0]	-999	PAL1	1	R1095N
1627.76	1.067	2055740	REC_START	n/a	n/a	4	-999	n/a	SPOON	n/a	n/a	13	[0, 0, 0]	-999	PAL1	1	R1095N
1628.827	3.95	2056807	REC_EVENT	1.067	n/a	4	6	DRUM	SPOON	SPOON	DRUM	13	[0, 0, 0]	-999	PAL1	1	R1095N
1632.777	0.033	2060757	REC_END	n/a	n/a	4	-999	n/a	n/a	n/a	n/a	13	[0, 0, 0]	-999	PAL1	1	R1095N
1632.81	9.717	2060790	FEEDBACK_SHOW_ALL_PAIRS	n/a	n/a	4	-999	n/a	n/a	n/a	n/a	13	[0, 0, 0]	-999	PAL1	1	R1095N
1642.527	10.452	2070507	ENCODING_START	n/a	n/a	0	-999	n/a	n/a	n/a	n/a	14	[0, 0, 0]	-999	PAL1	1	R1095N
1652.979	0.275	2080959	STUDY_ORIENT	n/a	n/a	1	1	STRING	MAT	STRING	MAT	14	[0, 0, 0]	-999	PAL1	1	R1095N
1653.895	4.0	2081875	STUDY_PAIR	n/a	wordpools/wordpool_EN.txt	1	1	STRING	MAT	STRING	MAT	14	[0, 0, 0]	-999	PAL1	1	R1095N
1658.93	0.275	2086911	STUDY_ORIENT	n/a	n/a	2	2	COIN	DEER	DEER	COIN	14	[0, 0, 0]	-999	PAL1	1	R1095N
1659.812	4.0	2087793	STUDY_PAIR	n/a	wordpools/wordpool_EN.txt	2	2	COIN	DEER	DEER	COIN	14	[0, 0, 0]	-999	PAL1	1	R1095N
1664.846	0.275	2092827	STUDY_ORIENT	n/a	n/a	3	5	FOX	SHEET	SHEET	FOX	14	[0, 0, 0]	-999	PAL1	1	R1095N
1665.664	4.0	2093645	STUDY_PAIR	n/a	wordpools/wordpool_EN.txt	3	5	FOX	SHEET	SHEET	FOX	14	[0, 0, 0]	-999	PAL1	1	R1095N
1670.698	0.275	2098679	STUDY_ORIENT	n/a	n/a	4	6	WING	THREAD	THREAD	WING	14	[0, 0, 0]	-999	PAL1	1	R1095N
1671.581	4.0	2099562	STUDY_PAIR	n/a	wordpools/wordpool_EN.txt	4	6	WING	THREAD	THREAD	WING	14	[0, 0, 0]	-999	PAL1	1	R1095N
1676.615	0.275	2104596	STUDY_ORIENT	n/a	n/a	5	3	SMOKE	GOAT	GOAT	SMOKE	14	[0, 0, 0]	-999	PAL1	1	R1095N
1677.465	4.0	2105446	STUDY_PAIR	n/a	wordpools/wordpool_EN.txt	5	3	SMOKE	GOAT	GOAT	SMOKE	14	[0, 0, 0]	-999	PAL1	1	R1095N
1682.499	0.275	2110480	STUDY_ORIENT	n/a	n/a	6	4	CLOTH	SMILE	CLOTH	SLIME	14	[0, 0, 0]	-999	PAL1	1	R1095N
1683.483	4.0	2111464	STUDY_PAIR	n/a	wordpools/wordpool_EN.txt	6	4	CLOTH	SMILE	CLOTH	SLIME	14	[0, 0, 0]	-999	PAL1	1	R1095N
1687.501	0.999	2115482	START	n/a	n/a	-999	-999	n/a	n/a	n/a	n/a	14	[-999, -999, -999]	-999	PAL1	1	R1095N
1688.5	0.017	2116481	MATH_START	n/a	n/a	-999	-999	n/a	n/a	n/a	n/a	14	[0, 0, 0]	-999	PAL1	1	R1095N
1688.517	2.75	2116498	PROB	2.728	n/a	-999	-999	n/a	n/a	n/a	n/a	14	[6, 4, 1]	11	PAL1	1	R1095N
1691.267	2.9	2119248	PROB	2.866	n/a	-999	-999	n/a	n/a	n/a	n/a	14	[4, 6, 4]	14	PAL1	1	R1095N
1694.167	4.118	2122148	PROB	4.094	n/a	-999	-999	n/a	n/a	n/a	n/a	14	[3, 9, 5]	17	PAL1	1	R1095N
1698.285	4.417	2126266	PROB	4.391	n/a	-999	-999	n/a	n/a	n/a	n/a	14	[6, 7, 7]	20	PAL1	1	R1095N
1702.702	3.8	2130683	PROB	3.774	n/a	-999	-999	n/a	n/a	n/a	n/a	14	[2, 3, 3]	8	PAL1	1	R1095N
1706.502	5.974	2134483	PROB	5.974	n/a	-999	-999	n/a	n/a	n/a	n/a	14	[5, 1, 7]	13	PAL1	1	R1095N
1712.476	0.01	2140457	STOP	n/a	n/a	-999	-999	n/a	n/a	n/a	n/a	14	[-999, -999, -999]	-999	PAL1	1	R1095N
1712.486	0.0	2140467	MATH_END	n/a	n/a	-999	-999	n/a	n/a	n/a	n/a	14	[0, 0, 0]	-999	PAL1	1	R1095N
1712.486	0.017	2140467	TEST_START	n/a	n/a	-999	-999	n/a	n/a	n/a	n/a	14	[0, 0, 0]	-999	PAL1	1	R1095N
1712.503	0.275	2140484	TEST_ORIENT	n/a	n/a	1	1	STRING	MAT	STRING	MAT	14	[0, 0, 0]	-999	PAL1	1	R1095N
1713.32	4.0	2141301	TEST_PROBE	n/a	wordpools/wordpool_EN.txt	1	1	STRING	MAT	STRING	MAT	14	[0, 0, 0]	-999	PAL1	1	R1095N
1713.321	0.826	2141302	REC_START	n/a	n/a	1	-999	n/a	MAT	n/a	n/a	14	[0, 0, 0]	-999	PAL1	1	R1095N
1714.147	4.2	2142128	REC_EVENT	0.826	n/a	1	1	STRING	MAT	STRING	MAT	14	[0, 0, 0]	-999	PAL1	1	R1095N
1718.347	0.006	2146328	REC_END	n/a	n/a	1	-999	n/a	n/a	n/a	n/a	14	[0, 0, 0]	-999	PAL1	1	R1095N
1718.353	0.275	2146334	TEST_ORIENT	n/a	n/a	2	2	COIN	DEER	DEER	COIN	14	[0, 0, 0]	-999	PAL1	1	R1095N
1719.32	4.0	2147301	TEST_PROBE	n/a	wordpools/wordpool_EN.txt	2	2	COIN	DEER	DEER	COIN	14	[0, 0, 0]	-999	PAL1	1	R1095N
1719.321	0.838	2147302	REC_START	n/a	n/a	2	-999	n/a	DEER	n/a	n/a	14	[0, 0, 0]	-999	PAL1	1	R1095N
1720.159	4.178	2148140	REC_EVENT	0.838	n/a	2	2	COIN	DEER	DEER	COIN	14	[0, 0, 0]	-999	PAL1	1	R1095N
1724.337	0.017	2152318	REC_END	n/a	n/a	2	-999	n/a	n/a	n/a	n/a	14	[0, 0, 0]	-999	PAL1	1	R1095N
1724.354	0.275	2152335	TEST_ORIENT	n/a	n/a	5	3	SMOKE	GOAT	GOAT	SMOKE	14	[0, 0, 0]	-999	PAL1	1	R1095N
1725.371	4.0	2153352	TEST_PROBE	n/a	wordpools/wordpool_EN.txt	5	3	SMOKE	GOAT	GOAT	SMOKE	14	[0, 0, 0]	-999	PAL1	1	R1095N
1725.372	1.257	2153353	REC_START	n/a	n/a	5	-999	n/a	GOAT	n/a	n/a	14	[0, 0, 0]	-999	PAL1	1	R1095N
1726.629	3.768	2154610	REC_EVENT	1.257	n/a	5	3	SMOKE	GOAT	GOAT	SMOKE	14	[0, 0, 0]	-999	PAL1	1	R1095N
1730.397	0.008	2158378	REC_END	n/a	n/a	5	-999	n/a	n/a	n/a	n/a	14	[0, 0, 0]	-999	PAL1	1	R1095N
1730.405	0.275	2158386	TEST_ORIENT	n/a	n/a	6	4	CLOTH	SMILE	CLOTH	SLIME	14	[0, 0, 0]	-999	PAL1	1	R1095N
1731.205	4.0	2159186	TEST_PROBE	n/a	wordpools/wordpool_EN.txt	6	4	CLOTH	SMILE	CLOTH	SLIME	14	[0, 0, 0]	-999	PAL1	1	R1095N
1731.205	2.904	2159186	REC_START	n/a	n/a	6	-999	n/a	SMILE	n/a	n/a	14	[0, 0, 0]	-999	PAL1	1	R1095N
1734.109	2.113	2162090	REC_EVENT	2.904	n/a	6	4	CLOTH	SMILE	CLOTH	SLIME	14	[0, 0, 0]	-999	PAL1	1	R1095N
1736.222	0.017	2164203	REC_END	n/a	n/a	6	-999	n/a	n/a	n/a	n/a	14	[0, 0, 0]	-999	PAL1	1	R1095N
1736.239	0.275	2164220	TEST_ORIENT	n/a	n/a	3	5	FOX	SHEET	SHEET	FOX	14	[0, 0, 0]	-999	PAL1	1	R1095N
1737.222	4.0	2165203	TEST_PROBE	n/a	wordpools/wordpool_EN.txt	3	5	FOX	SHEET	SHEET	FOX	14	[0, 0, 0]	-999	PAL1	1	R1095N
1737.223	1.348	2165204	REC_START	n/a	n/a	3	-999	n/a	SHEET	n/a	n/a	14	[0, 0, 0]	-999	PAL1	1	R1095N
1738.571	3.668	2166552	REC_EVENT	1.348	n/a	3	5	FOX	SHEET	SHEET	FOX	14	[0, 0, 0]	-999	PAL1	1	R1095N
1742.239	0.017	2170221	REC_END	n/a	n/a	3	-999	n/a	n/a	n/a	n/a	14	[0, 0, 0]	-999	PAL1	1	R1095N
1742.256	0.275	2170238	TEST_ORIENT	n/a	n/a	4	6	WING	THREAD	THREAD	WING	14	[0, 0, 0]	-999	PAL1	1	R1095N
1743.173	4.0	2171155	TEST_PROBE	n/a	wordpools/wordpool_EN.txt	4	6	WING	THREAD	THREAD	WING	14	[0, 0, 0]	-999	PAL1	1	R1095N
1743.174	3.369	2171156	REC_START	n/a	n/a	4	-999	n/a	THREAD	n/a	n/a	14	[0, 0, 0]	-999	PAL1	1	R1095N
1746.543	1.657	2174525	REC_EVENT	3.369	n/a	4	6	WING	THREAD	THREAD	WING	14	[0, 0, 0]	-999	PAL1	1	R1095N
1748.2	0.024	2176182	REC_END	n/a	n/a	4	-999	n/a	n/a	n/a	n/a	14	[0, 0, 0]	-999	PAL1	1	R1095N
1748.224	9.873	2176206	FEEDBACK_SHOW_ALL_PAIRS	n/a	n/a	4	-999	n/a	n/a	n/a	n/a	14	[0, 0, 0]	-999	PAL1	1	R1095N
1758.097	10.446	2186079	ENCODING_START	n/a	n/a	0	-999	n/a	n/a	n/a	n/a	15	[0, 0, 0]	-999	PAL1	1	R1095N
1768.543	0.275	2196525	STUDY_ORIENT	n/a	n/a	1	1	BEAR	ROSE	BEAR	ROSE	15	[0, 0, 0]	-999	PAL1	1	R1095N
1769.443	4.0	2197425	STUDY_PAIR	n/a	wordpools/wordpool_EN.txt	1	1	BEAR	ROSE	BEAR	ROSE	15	[0, 0, 0]	-999	PAL1	1	R1095N
1774.477	0.275	2202459	STUDY_ORIENT	n/a	n/a	2	2	BALL	STRAW	STRAW	BALL	15	[0, 0, 0]	-999	PAL1	1	R1095N
1775.26	4.0	2203242	STUDY_PAIR	n/a	wordpools/wordpool_EN.txt	2	2	BALL	STRAW	STRAW	BALL	15	[0, 0, 0]	-999	PAL1	1	R1095N
1780.294	0.275	2208276	STUDY_ORIENT	n/a	n/a	3	5	HEN	GLOVE	HEN	GLOVE	15	[0, 0, 0]	-999	PAL1	1	R1095N
1781.144	4.0	2209126	STUDY_PAIR	n/a	wordpools/wordpool_EN.txt	3	5	HEN	GLOVE	HEN	GLOVE	15	[0, 0, 0]	-999	PAL1	1	R1095N
1786.178	0.275	2214160	STUDY_ORIENT	n/a	n/a	4	6	DART	JAR	JAR	DART	15	[0, 0, 0]	-999	PAL1	1	R1095N
1786.978	4.0	2214960	STUDY_PAIR	n/a	wordpools/wordpool_EN.txt	4	6	DART	JAR	JAR	DART	15	[0, 0, 0]	-999	PAL1	1	R1095N
1792.012	0.275	2219994	STUDY_ORIENT	n/a	n/a	5	3	VASE	n/a	MAZE	VASE	15	[0, 0, 0]	-999	PAL1	1	R1095N
1792.894	4.0	2220876	STUDY_PAIR	n/a	wordpools/wordpool_EN.txt	5	3	VASE	n/a	MAZE	VASE	15	[0, 0, 0]	-999	PAL1	1	R1095N
1797.913	0.275	2225895	STUDY_ORIENT	n/a	n/a	6	4	HAND	n/a	TENT	HAND	15	[0, 0, 0]	-999	PAL1	1	R1095N
1798.78	4.0	2226762	STUDY_PAIR	n/a	wordpools/wordpool_EN.txt	6	4	HAND	n/a	TENT	HAND	15	[0, 0, 0]	-999	PAL1	1	R1095N
1802.797	1.0	2230779	START	n/a	n/a	-999	-999	n/a	n/a	n/a	n/a	15	[-999, -999, -999]	-999	PAL1	1	R1095N
1803.797	0.016	2231779	MATH_START	n/a	n/a	-999	-999	n/a	n/a	n/a	n/a	15	[0, 0, 0]	-999	PAL1	1	R1095N
1803.813	4.768	2231795	PROB	4.746	n/a	-999	-999	n/a	n/a	n/a	n/a	15	[3, 9, 8]	20	PAL1	1	R1095N
1808.581	9.484	2236563	PROB	9.465	n/a	-999	-999	n/a	n/a	n/a	n/a	15	[9, 6, 5]	20	PAL1	1	R1095N
1818.065	3.384	2246047	PROB	3.365	n/a	-999	-999	n/a	n/a	n/a	n/a	15	[6, 7, 4]	17	PAL1	1	R1095N
1821.449	3.069	2249431	PROB	3.069	n/a	-999	-999	n/a	n/a	n/a	n/a	15	[5, 5, 4]	14	PAL1	1	R1095N
1824.518	0.015	2252501	STOP	n/a	n/a	-999	-999	n/a	n/a	n/a	n/a	15	[-999, -999, -999]	-999	PAL1	1	R1095N
1824.533	0.0	2252516	MATH_END	n/a	n/a	-999	-999	n/a	n/a	n/a	n/a	15	[0, 0, 0]	-999	PAL1	1	R1095N
1824.533	0.016	2252516	TEST_START	n/a	n/a	-999	-999	n/a	n/a	n/a	n/a	15	[0, 0, 0]	-999	PAL1	1	R1095N
1824.549	0.275	2252532	TEST_ORIENT	n/a	n/a	1	1	BEAR	ROSE	BEAR	ROSE	15	[0, 0, 0]	-999	PAL1	1	R1095N
1825.533	4.0	2253516	TEST_PROBE	n/a	wordpools/wordpool_EN.txt	1	1	BEAR	ROSE	BEAR	ROSE	15	[0, 0, 0]	-999	PAL1	1	R1095N
1825.533	0.875	2253516	REC_START	n/a	n/a	1	-999	n/a	ROSE	n/a	n/a	15	[0, 0, 0]	-999	PAL1	1	R1095N
1826.408	4.142	2254391	REC_EVENT	0.875	n/a	1	1	BEAR	ROSE	BEAR	ROSE	15	[0, 0, 0]	-999	PAL1	1	R1095N
1830.55	0.017	2258533	REC_END	n/a	n/a	1	-999	n/a	n/a	n/a	n/a	15	[0, 0, 0]	-999	PAL1	1	R1095N
1830.567	0.275	2258550	TEST_ORIENT	n/a	n/a	2	2	BALL	STRAW	STRAW	BALL	15	[0, 0, 0]	-999	PAL1	1	R1095N
1831.517	4.0	2259500	TEST_PROBE	n/a	wordpools/wordpool_EN.txt	2	2	BALL	STRAW	STRAW	BALL	15	[0, 0, 0]	-999	PAL1	1	R1095N
1831.517	0.779	2259500	REC_START	n/a	n/a	2	-999	n/a	STRAW	n/a	n/a	15	[0, 0, 0]	-999	PAL1	1	R1095N
1832.296	4.238	2260279	REC_EVENT	0.779	n/a	2	2	BALL	STRAW	STRAW	BALL	15	[0, 0, 0]	-999	PAL1	1	R1095N
1836.534	0.017	2264517	REC_END	n/a	n/a	2	-999	n/a	n/a	n/a	n/a	15	[0, 0, 0]	-999	PAL1	1	R1095N
1836.551	0.275	2264534	TEST_ORIENT	n/a	n/a	5	3	VASE	n/a	MAZE	VASE	15	[0, 0, 0]	-999	PAL1	1	R1095N
1837.484	4.0	2265467	TEST_PROBE	n/a	wordpools/wordpool_EN.txt	5	3	VASE	n/a	MAZE	VASE	15	[0, 0, 0]	-999	PAL1	1	R1095N
1837.485	5.026	2265468	REC_START	n/a	n/a	5	-999	n/a	n/a	n/a	n/a	15	[0, 0, 0]	-999	PAL1	1	R1095N
1842.511	0.001	2270494	REC_END	n/a	n/a	5	-999	n/a	n/a	n/a	n/a	15	[0, 0, 0]	-999	PAL1	1	R1095N
1842.512	0.006	2270495	REC_EVENT	5.027	n/a	5	3	VASE	<>	MAZE	VASE	15	[0, 0, 0]	-999	PAL1	1	R1095N
1842.518	0.275	2270501	TEST_ORIENT	n/a	n/a	6	4	HAND	n/a	TENT	HAND	15	[0, 0, 0]	-999	PAL1	1	R1095N
1843.535	4.0	2271518	TEST_PROBE	n/a	wordpools/wordpool_EN.txt	6	4	HAND	n/a	TENT	HAND	15	[0, 0, 0]	-999	PAL1	1	R1095N
1843.535	5.015	2271518	REC_START	n/a	n/a	6	-999	n/a	n/a	n/a	n/a	15	[0, 0, 0]	-999	PAL1	1	R1095N
1848.55	0.002	2276533	REC_EVENT	5.015	n/a	6	4	HAND	<>	TENT	HAND	15	[0, 0, 0]	-999	PAL1	1	R1095N
1848.552	0.017	2276535	REC_END	n/a	n/a	6	-999	n/a	n/a	n/a	n/a	15	[0, 0, 0]	-999	PAL1	1	R1095N
1848.569	0.275	2276552	TEST_ORIENT	n/a	n/a	3	5	HEN	GLOVE	HEN	GLOVE	15	[0, 0, 0]	-999	PAL1	1	R1095N
1849.586	0.0	2277569	REC_START	n/a	n/a	3	-999	n/a	GLOVE	n/a	n/a	15	[0, 0, 0]	-999	PAL1	1	R1095N
1849.586	4.0	2277569	TEST_PROBE	n/a	wordpools/wordpool_EN.txt	3	5	HEN	GLOVE	HEN	GLOVE	15	[0, 0, 0]	-999	PAL1	1	R1095N
1850.484	4.119	2278467	REC_EVENT	0.898	n/a	3	5	HEN	GLOVE	HEN	GLOVE	15	[0, 0, 0]	-999	PAL1	1	R1095N
1854.603	0.016	2282586	REC_END	n/a	n/a	3	-999	n/a	n/a	n/a	n/a	15	[0, 0, 0]	-999	PAL1	1	R1095N
1854.619	0.275	2282602	TEST_ORIENT	n/a	n/a	4	6	DART	JAR	JAR	DART	15	[0, 0, 0]	-999	PAL1	1	R1095N
1855.62	4.0	2283603	TEST_PROBE	n/a	wordpools/wordpool_EN.txt	4	6	DART	JAR	JAR	DART	15	[0, 0, 0]	-999	PAL1	1	R1095N
1855.62	0.848	2283603	REC_START	n/a	n/a	4	-999	n/a	JAR	n/a	n/a	15	[0, 0, 0]	-999	PAL1	1	R1095N
1856.468	4.169	2284451	REC_EVENT	0.848	n/a	4	6	DART	JAR	JAR	DART	15	[0, 0, 0]	-999	PAL1	1	R1095N
1860.637	0.033	2288620	REC_END	n/a	n/a	4	-999	n/a	n/a	n/a	n/a	15	[0, 0, 0]	-999	PAL1	1	R1095N
1860.67	13.805	2288653	FEEDBACK_SHOW_ALL_PAIRS	n/a	n/a	4	-999	n/a	n/a	n/a	n/a	15	[0, 0, 0]	-999	PAL1	1	R1095N
1874.475	10.448	2302458	ENCODING_START	n/a	n/a	0	-999	n/a	n/a	n/a	n/a	16	[0, 0, 0]	-999	PAL1	1	R1095N
1884.923	0.275	2312906	STUDY_ORIENT	n/a	n/a	1	1	DESK	HAT	DESK	HAT	16	[0, 0, 0]	-999	PAL1	1	R1095N
1885.773	4.0	2313756	STUDY_PAIR	n/a	wordpools/wordpool_EN.txt	1	1	DESK	HAT	DESK	HAT	16	[0, 0, 0]	-999	PAL1	1	R1095N
1890.807	0.275	2318790	STUDY_ORIENT	n/a	n/a	2	2	SHIELD	FARM	SHIELD	FARM	16	[0, 0, 0]	-999	PAL1	1	R1095N
1891.624	4.0	2319607	STUDY_PAIR	n/a	wordpools/wordpool_EN.txt	2	2	SHIELD	FARM	SHIELD	FARM	16	[0, 0, 0]	-999	PAL1	1	R1095N
1896.658	0.275	2324641	STUDY_ORIENT	n/a	n/a	3	5	PALM	SIGN	SIGN	PALM	16	[0, 0, 0]	-999	PAL1	1	R1095N
1897.674	4.0	2325657	STUDY_PAIR	n/a	wordpools/wordpool_EN.txt	3	5	PALM	SIGN	SIGN	PALM	16	[0, 0, 0]	-999	PAL1	1	R1095N
1902.692	0.275	2330675	STUDY_ORIENT	n/a	n/a	4	4	TOOL	MILK	MILK	TOOL	16	[0, 0, 0]	-999	PAL1	1	R1095N
1903.525	4.0	2331508	STUDY_PAIR	n/a	wordpools/wordpool_EN.txt	4	4	TOOL	MILK	MILK	TOOL	16	[0, 0, 0]	-999	PAL1	1	R1095N
1908.559	0.275	2336543	STUDY_ORIENT	n/a	n/a	5	3	PLANE	n/a	RUG	PLANE	16	[0, 0, 0]	-999	PAL1	1	R1095N
1909.559	4.0	2337543	STUDY_PAIR	n/a	wordpools/wordpool_EN.txt	5	3	PLANE	n/a	RUG	PLANE	16	[0, 0, 0]	-999	PAL1	1	R1095N
1914.593	0.275	2342577	STUDY_ORIENT	n/a	n/a	6	6	ZOO	POLE	POLE	ZOO	16	[0, 0, 0]	-999	PAL1	1	R1095N
1915.493	4.0	2343477	STUDY_PAIR	n/a	wordpools/wordpool_EN.txt	6	6	ZOO	POLE	POLE	ZOO	16	[0, 0, 0]	-999	PAL1	1	R1095N
1919.511	0.999	2347495	START	n/a	n/a	-999	-999	n/a	n/a	n/a	n/a	16	[-999, -999, -999]	-999	PAL1	1	R1095N
1920.51	0.017	2348494	MATH_START	n/a	n/a	-999	-999	n/a	n/a	n/a	n/a	16	[0, 0, 0]	-999	PAL1	1	R1095N
1920.527	3.601	2348511	PROB	3.57	n/a	-999	-999	n/a	n/a	n/a	n/a	16	[5, 6, 2]	13	PAL1	1	R1095N
1924.128	3.817	2352112	PROB	3.785	n/a	-999	-999	n/a	n/a	n/a	n/a	16	[3, 4, 7]	14	PAL1	1	R1095N
1927.945	6.6	2355929	PROB	6.575	n/a	-999	-999	n/a	n/a	n/a	n/a	16	[6, 9, 4]	19	PAL1	1	R1095N
1934.545	3.333	2362529	PROB	3.31	n/a	-999	-999	n/a	n/a	n/a	n/a	16	[4, 3, 5]	12	PAL1	1	R1095N
1937.878	2.594	2365862	PROB	2.594	n/a	-999	-999	n/a	n/a	n/a	n/a	16	[5, 5, 9]	19	PAL1	1	R1095N
1940.472	0.008	2368456	STOP	n/a	n/a	-999	-999	n/a	n/a	n/a	n/a	16	[-999, -999, -999]	-999	PAL1	1	R1095N
1940.48	0.0	2368464	MATH_END	n/a	n/a	-999	-999	n/a	n/a	n/a	n/a	16	[0, 0, 0]	-999	PAL1	1	R1095N
1940.48	0.016	2368464	TEST_START	n/a	n/a	-999	-999	n/a	n/a	n/a	n/a	16	[0, 0, 0]	-999	PAL1	1	R1095N
1940.496	0.275	2368480	TEST_ORIENT	n/a	n/a	1	1	DESK	HAT	DESK	HAT	16	[0, 0, 0]	-999	PAL1	1	R1095N
1941.313	4.0	2369297	TEST_PROBE	n/a	wordpools/wordpool_EN.txt	1	1	DESK	HAT	DESK	HAT	16	[0, 0, 0]	-999	PAL1	1	R1095N
1941.314	0.788	2369298	REC_START	n/a	n/a	1	-999	n/a	HAT	n/a	n/a	16	[0, 0, 0]	-999	PAL1	1	R1095N
1942.102	4.238	2370086	REC_EVENT	0.788	n/a	1	1	DESK	HAT	DESK	HAT	16	[0, 0, 0]	-999	PAL1	1	R1095N
1946.34	0.007	2374324	REC_END	n/a	n/a	1	-999	n/a	n/a	n/a	n/a	16	[0, 0, 0]	-999	PAL1	1	R1095N
1946.347	0.275	2374331	TEST_ORIENT	n/a	n/a	2	2	SHIELD	FARM	SHIELD	FARM	16	[0, 0, 0]	-999	PAL1	1	R1095N
1947.247	4.0	2375231	TEST_PROBE	n/a	wordpools/wordpool_EN.txt	2	2	SHIELD	FARM	SHIELD	FARM	16	[0, 0, 0]	-999	PAL1	1	R1095N
1947.247	1.347	2375231	REC_START	n/a	n/a	2	-999	n/a	FARM	n/a	n/a	16	[0, 0, 0]	-999	PAL1	1	R1095N
1948.594	3.67	2376578	REC_EVENT	1.347	n/a	2	2	SHIELD	FARM	SHIELD	FARM	16	[0, 0, 0]	-999	PAL1	1	R1095N
1952.264	0.017	2380248	REC_END	n/a	n/a	2	-999	n/a	n/a	n/a	n/a	16	[0, 0, 0]	-999	PAL1	1	R1095N
1952.281	0.275	2380265	TEST_ORIENT	n/a	n/a	5	3	PLANE	n/a	RUG	PLANE	16	[0, 0, 0]	-999	PAL1	1	R1095N
1953.114	4.0	2381098	TEST_PROBE	n/a	wordpools/wordpool_EN.txt	5	3	PLANE	n/a	RUG	PLANE	16	[0, 0, 0]	-999	PAL1	1	R1095N
1953.115	5.016	2381099	REC_START	n/a	n/a	5	-999	n/a	n/a	n/a	n/a	16	[0, 0, 0]	-999	PAL1	1	R1095N
1958.131	0.005	2386115	REC_END	n/a	n/a	5	-999	n/a	n/a	n/a	n/a	16	[0, 0, 0]	-999	PAL1	1	R1095N
1958.136	0.012	2386120	REC_EVENT	5.021	n/a	5	3	PLANE	<>	RUG	PLANE	16	[0, 0, 0]	-999	PAL1	1	R1095N
1958.148	0.275	2386132	TEST_ORIENT	n/a	n/a	4	4	TOOL	MILK	MILK	TOOL	16	[0, 0, 0]	-999	PAL1	1	R1095N
1958.948	4.0	2386932	TEST_PROBE	n/a	wordpools/wordpool_EN.txt	4	4	TOOL	MILK	MILK	TOOL	16	[0, 0, 0]	-999	PAL1	1	R1095N
1958.949	2.646	2386933	REC_START	n/a	n/a	4	-999	n/a	MILK	n/a	n/a	16	[0, 0, 0]	-999	PAL1	1	R1095N
1961.595	2.371	2389579	REC_EVENT	2.646	n/a	4	4	TOOL	MILK	MILK	TOOL	16	[0, 0, 0]	-999	PAL1	1	R1095N
1963.966	0.016	2391950	REC_END	n/a	n/a	4	-999	n/a	n/a	n/a	n/a	16	[0, 0, 0]	-999	PAL1	1	R1095N
1963.982	0.275	2391966	TEST_ORIENT	n/a	n/a	3	5	PALM	SIGN	SIGN	PALM	16	[0, 0, 0]	-999	PAL1	1	R1095N
1964.982	4.0	2392966	TEST_PROBE	n/a	wordpools/wordpool_EN.txt	3	5	PALM	SIGN	SIGN	PALM	16	[0, 0, 0]	-999	PAL1	1	R1095N
1964.983	1.243	2392967	REC_START	n/a	n/a	3	-999	n/a	SIGN	n/a	n/a	16	[0, 0, 0]	-999	PAL1	1	R1095N
1966.226	3.773	2394210	REC_EVENT	1.243	n/a	3	5	PALM	SIGN	SIGN	PALM	16	[0, 0, 0]	-999	PAL1	1	R1095N
1969.999	0.017	2397983	REC_END	n/a	n/a	3	-999	n/a	n/a	n/a	n/a	16	[0, 0, 0]	-999	PAL1	1	R1095N
1970.016	0.275	2398000	TEST_ORIENT	n/a	n/a	6	6	ZOO	POLE	POLE	ZOO	16	[0, 0, 0]	-999	PAL1	1	R1095N
1971.0	4.0	2398984	TEST_PROBE	n/a	wordpools/wordpool_EN.txt	6	6	ZOO	POLE	POLE	ZOO	16	[0, 0, 0]	-999	PAL1	1	R1095N
1971.0	0.982	2398984	REC_START	n/a	n/a	6	-999	n/a	POLE	n/a	n/a	16	[0, 0, 0]	-999	PAL1	1	R1095N
1971.982	4.045	2399966	REC_EVENT	0.982	n/a	6	6	ZOO	POLE	POLE	ZOO	16	[0, 0, 0]	-999	PAL1	1	R1095N
1976.027	0.023	2404011	REC_END	n/a	n/a	6	-999	n/a	n/a	n/a	n/a	16	[0, 0, 0]	-999	PAL1	1	R1095N
1976.05	9.451	2404034	FEEDBACK_SHOW_ALL_PAIRS	n/a	n/a	6	-999	n/a	n/a	n/a	n/a	16	[0, 0, 0]	-999	PAL1	1	R1095N
1985.501	10.452	2413485	ENCODING_START	n/a	n/a	0	-999	n/a	n/a	n/a	n/a	17	[0, 0, 0]	-999	PAL1	1	R1095N
1995.953	0.275	2423938	STUDY_ORIENT	n/a	n/a	1	5	CAPE	APE	CAPE	APE	17	[0, 0, 0]	-999	PAL1	1	R1095N
1996.736	4.0	2424721	STUDY_PAIR	n/a	wordpools/wordpool_EN.txt	1	5	CAPE	APE	CAPE	APE	17	[0, 0, 0]	-999	PAL1	1	R1095N
2001.77	0.275	2429755	STUDY_ORIENT	n/a	n/a	2	4	SHELL	BREAD	BREAD	SHELL	17	[0, 0, 0]	-999	PAL1	1	R1095N
2002.687	4.0	2430672	STUDY_PAIR	n/a	wordpools/wordpool_EN.txt	2	4	SHELL	BREAD	BREAD	SHELL	17	[0, 0, 0]	-999	PAL1	1	R1095N
2007.721	0.275	2435706	STUDY_ORIENT	n/a	n/a	3	1	BRUSH	RICE	RICE	BRUSH	17	[0, 0, 0]	-999	PAL1	1	R1095N
2008.504	4.0	2436489	STUDY_PAIR	n/a	wordpools/wordpool_EN.txt	3	1	BRUSH	RICE	RICE	BRUSH	17	[0, 0, 0]	-999	PAL1	1	R1095N
2013.538	0.275	2441523	STUDY_ORIENT	n/a	n/a	4	6	BIRD	n/a	BIRD	TANK	17	[0, 0, 0]	-999	PAL1	1	R1095N
2014.338	4.0	2442323	STUDY_PAIR	n/a	wordpools/wordpool_EN.txt	4	6	BIRD	n/a	BIRD	TANK	17	[0, 0, 0]	-999	PAL1	1	R1095N
2019.372	0.275	2447357	STUDY_ORIENT	n/a	n/a	5	3	EAR	CART	CART	EAR	17	[0, 0, 0]	-999	PAL1	1	R1095N
2020.155	4.0	2448140	STUDY_PAIR	n/a	wordpools/wordpool_EN.txt	5	3	EAR	CART	CART	EAR	17	[0, 0, 0]	-999	PAL1	1	R1095N
2025.173	0.275	2453158	STUDY_ORIENT	n/a	n/a	6	2	BOOT	SPRING	SPRING	BOOT	17	[0, 0, 0]	-999	PAL1	1	R1095N
2025.973	4.0	2453958	STUDY_PAIR	n/a	wordpools/wordpool_EN.txt	6	2	BOOT	SPRING	SPRING	BOOT	17	[0, 0, 0]	-999	PAL1	1	R1095N
2029.99	1.0	2457975	START	n/a	n/a	-999	-999	n/a	n/a	n/a	n/a	17	[-999, -999, -999]	-999	PAL1	1	R1095N
2030.99	0.017	2458975	MATH_START	n/a	n/a	-999	-999	n/a	n/a	n/a	n/a	17	[0, 0, 0]	-999	PAL1	1	R1095N
2031.007	4.584	2458992	PROB	4.564	n/a	-999	-999	n/a	n/a	n/a	n/a	17	[9, 9, 6]	24	PAL1	1	R1095N
2035.591	6.034	2463576	PROB	6.004	n/a	-999	-999	n/a	n/a	n/a	n/a	17	[6, 6, 6]	18	PAL1	1	R1095N
2041.625	3.4	2469610	PROB	3.377	n/a	-999	-999	n/a	n/a	n/a	n/a	17	[7, 2, 3]	12	PAL1	1	R1095N
2045.025	3.267	2473010	PROB	3.233	n/a	-999	-999	n/a	n/a	n/a	n/a	17	[3, 6, 2]	11	PAL1	1	R1095N
2048.292	3.95	2476277	PROB	3.95	n/a	-999	-999	n/a	n/a	n/a	n/a	17	[5, 2, 3]	10	PAL1	1	R1095N
2052.242	0.017	2480227	STOP	n/a	n/a	-999	-999	n/a	n/a	n/a	n/a	17	[-999, -999, -999]	-999	PAL1	1	R1095N
2052.259	0.0	2480244	MATH_END	n/a	n/a	-999	-999	n/a	n/a	n/a	n/a	17	[0, 0, 0]	-999	PAL1	1	R1095N
2052.259	0.017	2480244	TEST_START	n/a	n/a	-999	-999	n/a	n/a	n/a	n/a	17	[0, 0, 0]	-999	PAL1	1	R1095N
2052.276	0.275	2480261	TEST_ORIENT	n/a	n/a	3	1	BRUSH	RICE	RICE	BRUSH	17	[0, 0, 0]	-999	PAL1	1	R1095N
2053.259	0.0	2481244	REC_START	n/a	n/a	3	-999	n/a	RICE	n/a	n/a	17	[0, 0, 0]	-999	PAL1	1	R1095N
2053.259	4.0	2481244	TEST_PROBE	n/a	wordpools/wordpool_EN.txt	3	1	BRUSH	RICE	RICE	BRUSH	17	[0, 0, 0]	-999	PAL1	1	R1095N
2056.46	1.816	2484445	REC_EVENT	3.201	n/a	3	1	BRUSH	RICE	RICE	BRUSH	17	[0, 0, 0]	-999	PAL1	1	R1095N
2058.276	0.017	2486261	REC_END	n/a	n/a	3	-999	n/a	n/a	n/a	n/a	17	[0, 0, 0]	-999	PAL1	1	R1095N
2058.293	0.275	2486278	TEST_ORIENT	n/a	n/a	6	2	BOOT	SPRING	SPRING	BOOT	17	[0, 0, 0]	-999	PAL1	1	R1095N
2059.227	4.0	2487212	TEST_PROBE	n/a	wordpools/wordpool_EN.txt	6	2	BOOT	SPRING	SPRING	BOOT	17	[0, 0, 0]	-999	PAL1	1	R1095N
2059.227	1.012	2487212	REC_START	n/a	n/a	6	-999	n/a	SPRING	n/a	n/a	17	[0, 0, 0]	-999	PAL1	1	R1095N
2060.239	4.005	2488224	REC_EVENT	1.012	n/a	6	2	BOOT	SPRING	SPRING	BOOT	17	[0, 0, 0]	-999	PAL1	1	R1095N
2064.244	0.017	2492229	REC_END	n/a	n/a	6	-999	n/a	n/a	n/a	n/a	17	[0, 0, 0]	-999	PAL1	1	R1095N
2064.261	0.275	2492246	TEST_ORIENT	n/a	n/a	5	3	EAR	CART	CART	EAR	17	[0, 0, 0]	-999	PAL1	1	R1095N
2065.277	4.0	2493262	TEST_PROBE	n/a	wordpools/wordpool_EN.txt	5	3	EAR	CART	CART	EAR	17	[0, 0, 0]	-999	PAL1	1	R1095N
2065.278	0.855	2493263	REC_START	n/a	n/a	5	-999	n/a	CART	n/a	n/a	17	[0, 0, 0]	-999	PAL1	1	R1095N
2066.133	4.155	2494118	REC_EVENT	0.855	n/a	5	3	EAR	CART	CART	EAR	17	[0, 0, 0]	-999	PAL1	1	R1095N
2070.288	0.023	2498273	REC_END	n/a	n/a	5	-999	n/a	n/a	n/a	n/a	17	[0, 0, 0]	-999	PAL1	1	R1095N
2070.311	0.275	2498296	TEST_ORIENT	n/a	n/a	2	4	SHELL	BREAD	BREAD	SHELL	17	[0, 0, 0]	-999	PAL1	1	R1095N
2071.195	4.0	2499180	TEST_PROBE	n/a	wordpools/wordpool_EN.txt	2	4	SHELL	BREAD	BREAD	SHELL	17	[0, 0, 0]	-999	PAL1	1	R1095N
2071.195	1.007	2499180	REC_START	n/a	n/a	2	-999	n/a	BREAD	n/a	n/a	17	[0, 0, 0]	-999	PAL1	1	R1095N
2072.202	4.01	2500187	REC_EVENT	1.007	n/a	2	4	SHELL	BREAD	BREAD	SHELL	17	[0, 0, 0]	-999	PAL1	1	R1095N
2076.212	0.017	2504197	REC_END	n/a	n/a	2	-999	n/a	n/a	n/a	n/a	17	[0, 0, 0]	-999	PAL1	1	R1095N
2076.229	0.275	2504214	TEST_ORIENT	n/a	n/a	1	5	CAPE	APE	CAPE	APE	17	[0, 0, 0]	-999	PAL1	1	R1095N
2077.029	4.0	2505015	TEST_PROBE	n/a	wordpools/wordpool_EN.txt	1	5	CAPE	APE	CAPE	APE	17	[0, 0, 0]	-999	PAL1	1	R1095N
2077.029	0.888	2505015	REC_START	n/a	n/a	1	-999	n/a	APE	n/a	n/a	17	[0, 0, 0]	-999	PAL1	1	R1095N
2077.917	4.129	2505903	REC_EVENT	0.888	n/a	1	5	CAPE	APE	CAPE	APE	17	[0, 0, 0]	-999	PAL1	1	R1095N
2082.046	0.017	2510032	REC_END	n/a	n/a	1	-999	n/a	n/a	n/a	n/a	17	[0, 0, 0]	-999	PAL1	1	R1095N
2082.063	0.275	2510049	TEST_ORIENT	n/a	n/a	4	6	BIRD	n/a	BIRD	TANK	17	[0, 0, 0]	-999	PAL1	1	R1095N
2083.029	4.0	2511015	TEST_PROBE	n/a	wordpools/wordpool_EN.txt	4	6	BIRD	n/a	BIRD	TANK	17	[0, 0, 0]	-999	PAL1	1	R1095N
2083.03	5.009	2511016	REC_START	n/a	n/a	4	-999	n/a	n/a	n/a	n/a	17	[0, 0, 0]	-999	PAL1	1	R1095N
2088.039	0.001	2516025	REC_EVENT	5.009	n/a	4	6	BIRD	<>	BIRD	TANK	17	[0, 0, 0]	-999	PAL1	1	R1095N
2088.04	0.023	2516026	REC_END	n/a	n/a	4	-999	n/a	n/a	n/a	n/a	17	[0, 0, 0]	-999	PAL1	1	R1095N
2088.063	9.824	2516049	FEEDBACK_SHOW_ALL_PAIRS	n/a	n/a	4	-999	n/a	n/a	n/a	n/a	17	[0, 0, 0]	-999	PAL1	1	R1095N
2097.887	10.445	2525873	ENCODING_START	n/a	n/a	0	-999	n/a	n/a	n/a	n/a	18	[0, 0, 0]	-999	PAL1	1	R1095N
2108.332	0.275	2536318	STUDY_ORIENT	n/a	n/a	1	3	SEA	JEEP	SEA	JEEP	18	[0, 0, 0]	-999	PAL1	1	R1095N
2109.166	4.0	2537152	STUDY_PAIR	n/a	wordpools/wordpool_EN.txt	1	3	SEA	JEEP	SEA	JEEP	18	[0, 0, 0]	-999	PAL1	1	R1095N
2114.2	0.275	2542186	STUDY_ORIENT	n/a	n/a	2	6	LIP	BOX	LIP	BOX	18	[0, 0, 0]	-999	PAL1	1	R1095N
2115.033	4.0	2543019	STUDY_PAIR	n/a	wordpools/wordpool_EN.txt	2	6	LIP	BOX	LIP	BOX	18	[0, 0, 0]	-999	PAL1	1	R1095N
2120.067	0.275	2548053	STUDY_ORIENT	n/a	n/a	3	5	BOWL	STOVE	BOWL	STOVE	18	[0, 0, 0]	-999	PAL1	1	R1095N
2121.101	4.0	2549087	STUDY_PAIR	n/a	wordpools/wordpool_EN.txt	3	5	BOWL	STOVE	BOWL	STOVE	18	[0, 0, 0]	-999	PAL1	1	R1095N
2126.135	0.275	2554121	STUDY_ORIENT	n/a	n/a	4	4	SPONGE	ARK	ARK	SPONGE	18	[0, 0, 0]	-999	PAL1	1	R1095N
2127.068	4.0	2555054	STUDY_PAIR	n/a	wordpools/wordpool_EN.txt	4	4	SPONGE	ARK	ARK	SPONGE	18	[0, 0, 0]	-999	PAL1	1	R1095N
2132.102	0.275	2560088	STUDY_ORIENT	n/a	n/a	5	1	SAIL	CUBE	CUBE	SAIL	18	[0, 0, 0]	-999	PAL1	1	R1095N
2133.002	4.0	2560988	STUDY_PAIR	n/a	wordpools/wordpool_EN.txt	5	1	SAIL	CUBE	CUBE	SAIL	18	[0, 0, 0]	-999	PAL1	1	R1095N
2138.036	0.275	2566022	STUDY_ORIENT	n/a	n/a	6	2	PIN	ROOT	ROOT	PIN	18	[0, 0, 0]	-999	PAL1	1	R1095N
2138.868	4.0	2566854	STUDY_PAIR	n/a	wordpools/wordpool_EN.txt	6	2	PIN	ROOT	ROOT	PIN	18	[0, 0, 0]	-999	PAL1	1	R1095N
2142.886	1.0	2570872	START	n/a	n/a	-999	-999	n/a	n/a	n/a	n/a	18	[-999, -999, -999]	-999	PAL1	1	R1095N
2143.886	0.016	2571872	MATH_START	n/a	n/a	-999	-999	n/a	n/a	n/a	n/a	18	[0, 0, 0]	-999	PAL1	1	R1095N
2143.902	7.335	2571888	PROB	7.303	n/a	-999	-999	n/a	n/a	n/a	n/a	18	[7, 5, 6]	18	PAL1	1	R1095N
2151.237	4.434	2579223	PROB	4.415	n/a	-999	-999	n/a	n/a	n/a	n/a	18	[8, 4, 1]	13	PAL1	1	R1095N
2155.671	3.517	2583657	PROB	3.493	n/a	-999	-999	n/a	n/a	n/a	n/a	18	[4, 7, 7]	18	PAL1	1	R1095N
2159.188	3.864	2587174	PROB	3.864	n/a	-999	-999	n/a	n/a	n/a	n/a	18	[7, 4, 7]	18	PAL1	1	R1095N
2163.052	0.003	2591039	STOP	n/a	n/a	-999	-999	n/a	n/a	n/a	n/a	18	[-999, -999, -999]	-999	PAL1	1	R1095N
2163.055	0.0	2591042	MATH_END	n/a	n/a	-999	-999	n/a	n/a	n/a	n/a	18	[0, 0, 0]	-999	PAL1	1	R1095N
2163.055	0.017	2591042	TEST_START	n/a	n/a	-999	-999	n/a	n/a	n/a	n/a	18	[0, 0, 0]	-999	PAL1	1	R1095N
2163.072	0.275	2591059	TEST_ORIENT	n/a	n/a	5	1	SAIL	CUBE	CUBE	SAIL	18	[0, 0, 0]	-999	PAL1	1	R1095N
2163.972	4.0	2591959	TEST_PROBE	n/a	wordpools/wordpool_EN.txt	5	1	SAIL	CUBE	CUBE	SAIL	18	[0, 0, 0]	-999	PAL1	1	R1095N
2163.973	1.389	2591960	REC_START	n/a	n/a	5	-999	n/a	CUBE	n/a	n/a	18	[0, 0, 0]	-999	PAL1	1	R1095N
2165.362	3.627	2593349	REC_EVENT	1.389	n/a	5	1	SAIL	CUBE	CUBE	SAIL	18	[0, 0, 0]	-999	PAL1	1	R1095N
2168.989	0.017	2596976	REC_END	n/a	n/a	5	-999	n/a	n/a	n/a	n/a	18	[0, 0, 0]	-999	PAL1	1	R1095N
2169.006	0.275	2596993	TEST_ORIENT	n/a	n/a	6	2	PIN	ROOT	ROOT	PIN	18	[0, 0, 0]	-999	PAL1	1	R1095N
2169.973	4.0	2597960	TEST_PROBE	n/a	wordpools/wordpool_EN.txt	6	2	PIN	ROOT	ROOT	PIN	18	[0, 0, 0]	-999	PAL1	1	R1095N
2169.974	0.911	2597961	REC_START	n/a	n/a	6	-999	n/a	ROOT	n/a	n/a	18	[0, 0, 0]	-999	PAL1	1	R1095N
2170.885	4.114	2598872	REC_EVENT	0.911	n/a	6	2	PIN	ROOT	ROOT	PIN	18	[0, 0, 0]	-999	PAL1	1	R1095N
2174.999	0.008	2602986	REC_END	n/a	n/a	6	-999	n/a	n/a	n/a	n/a	18	[0, 0, 0]	-999	PAL1	1	R1095N
2175.007	0.275	2602994	TEST_ORIENT	n/a	n/a	1	3	SEA	JEEP	SEA	JEEP	18	[0, 0, 0]	-999	PAL1	1	R1095N
2175.873	4.0	2603860	TEST_PROBE	n/a	wordpools/wordpool_EN.txt	1	3	SEA	JEEP	SEA	JEEP	18	[0, 0, 0]	-999	PAL1	1	R1095N
2175.873	1.156	2603860	REC_START	n/a	n/a	1	-999	n/a	JEEP	n/a	n/a	18	[0, 0, 0]	-999	PAL1	1	R1095N
2177.029	3.861	2605016	REC_EVENT	1.156	n/a	1	3	SEA	JEEP	SEA	JEEP	18	[0, 0, 0]	-999	PAL1	1	R1095N
2180.89	0.017	2608877	REC_END	n/a	n/a	1	-999	n/a	n/a	n/a	n/a	18	[0, 0, 0]	-999	PAL1	1	R1095N
2180.907	0.275	2608894	TEST_ORIENT	n/a	n/a	4	4	SPONGE	ARK	ARK	SPONGE	18	[0, 0, 0]	-999	PAL1	1	R1095N
2181.774	4.0	2609761	TEST_PROBE	n/a	wordpools/wordpool_EN.txt	4	4	SPONGE	ARK	ARK	SPONGE	18	[0, 0, 0]	-999	PAL1	1	R1095N
2181.775	0.976	2609762	REC_START	n/a	n/a	4	-999	n/a	ARK	n/a	n/a	18	[0, 0, 0]	-999	PAL1	1	R1095N
2182.751	4.05	2610738	REC_EVENT	0.976	n/a	4	4	SPONGE	ARK	ARK	SPONGE	18	[0, 0, 0]	-999	PAL1	1	R1095N
2186.801	0.007	2614788	REC_END	n/a	n/a	4	-999	n/a	n/a	n/a	n/a	18	[0, 0, 0]	-999	PAL1	1	R1095N
2186.808	0.275	2614795	TEST_ORIENT	n/a	n/a	3	5	BOWL	STOVE	BOWL	STOVE	18	[0, 0, 0]	-999	PAL1	1	R1095N
2187.625	4.0	2615612	TEST_PROBE	n/a	wordpools/wordpool_EN.txt	3	5	BOWL	STOVE	BOWL	STOVE	18	[0, 0, 0]	-999	PAL1	1	R1095N
2187.626	1.609	2615613	REC_START	n/a	n/a	3	-999	n/a	STOVE	n/a	n/a	18	[0, 0, 0]	-999	PAL1	1	R1095N
2189.235	3.416	2617222	REC_EVENT	1.609	n/a	3	5	BOWL	STOVE	BOWL	STOVE	18	[0, 0, 0]	-999	PAL1	1	R1095N
2192.651	0.008	2620638	REC_END	n/a	n/a	3	-999	n/a	n/a	n/a	n/a	18	[0, 0, 0]	-999	PAL1	1	R1095N
2192.659	0.275	2620646	TEST_ORIENT	n/a	n/a	2	6	LIP	BOX	LIP	BOX	18	[0, 0, 0]	-999	PAL1	1	R1095N
2193.476	4.0	2621463	TEST_PROBE	n/a	wordpools/wordpool_EN.txt	2	6	LIP	BOX	LIP	BOX	18	[0, 0, 0]	-999	PAL1	1	R1095N
2193.476	3.91	2621463	REC_START	n/a	n/a	2	-999	n/a	BOX	n/a	n/a	18	[0, 0, 0]	-999	PAL1	1	R1095N
2197.386	1.107	2625373	REC_EVENT	3.91	n/a	2	6	LIP	BOX	LIP	BOX	18	[0, 0, 0]	-999	PAL1	1	R1095N
2198.493	0.033	2626480	REC_END	n/a	n/a	2	-999	n/a	n/a	n/a	n/a	18	[0, 0, 0]	-999	PAL1	1	R1095N
2198.526	8.892	2626513	FEEDBACK_SHOW_ALL_PAIRS	n/a	n/a	2	-999	n/a	n/a	n/a	n/a	18	[0, 0, 0]	-999	PAL1	1	R1095N
2207.418	10.443	2635405	ENCODING_START	n/a	n/a	0	-999	n/a	n/a	n/a	n/a	19	[0, 0, 0]	-999	PAL1	1	R1095N
2217.861	0.275	2645848	STUDY_ORIENT	n/a	n/a	1	3	CAVE	ROAD	CAVE	ROOM	19	[0, 0, 0]	-999	PAL1	1	R1095N
2218.861	4.0	2646848	STUDY_PAIR	n/a	wordpools/wordpool_EN.txt	1	3	CAVE	ROAD	CAVE	ROOM	19	[0, 0, 0]	-999	PAL1	1	R1095N
2223.895	0.275	2651882	STUDY_ORIENT	n/a	n/a	2	4	ROAD	n/a	ROAD	STEM	19	[0, 0, 0]	-999	PAL1	1	R1095N
2224.861	4.0	2652848	STUDY_PAIR	n/a	wordpools/wordpool_EN.txt	2	4	ROAD	n/a	ROAD	STEM	19	[0, 0, 0]	-999	PAL1	1	R1095N
2229.879	0.275	2657866	STUDY_ORIENT	n/a	n/a	3	5	JUICE	MOUSE	JUICE	MOUSE	19	[0, 0, 0]	-999	PAL1	1	R1095N
