onset	duration	sample	trial_type	response_time	stim_file	serialpos	probepos	probe_word	resp_word	study_1	study_2	list	test	answer	experiment	session	subject
0.0	65.694	518906	SESS_START	n/a	n/a	-999	-999	n/a	n/a	n/a	n/a	-999	[0, 0, 0]	-999	PAL1	0	R1089P
65.694	1.017	551752	START	n/a	n/a	-999	-999	n/a	n/a	n/a	n/a	-1	[-999, -999, -999]	-999	PAL1	0	R1089P
66.711	5.934	552260	PROB	5907	n/a	-999	-999	n/a	n/a	n/a	n/a	-1	[2, 8, 6]	16	PAL1	0	R1089P
72.645	2.767	555227	PROB	2733	n/a	-999	-999	n/a	n/a	n/a	n/a	-1	[1, 4, 9]	14	PAL1	0	R1089P
75.412	2.934	556610	PROB	2902	n/a	-999	-999	n/a	n/a	n/a	n/a	-1	[3, 7, 6]	16	PAL1	0	R1089P
78.346	2.451	558077	PROB	2425	n/a	-999	-999	n/a	n/a	n/a	n/a	-1	[6, 8, 2]	16	PAL1	0	R1089P
80.797	3.616	559303	PROB	3597	n/a	-999	-999	n/a	n/a	n/a	n/a	-1	[4, 2, 4]	10	PAL1	0	R1089P
84.413	3.237	561111	PROB	3237	n/a	-999	-999	n/a	n/a	n/a	n/a	-1	[3, 1, 2]	6	PAL1	0	R1089P
87.65	47.88	562729	STOP	n/a	n/a	-999	-999	n/a	n/a	n/a	n/a	-1	[-999, -999, -999]	-999	PAL1	0	R1089P
135.53	10.445	586668	ENCODING_START	n/a	n/a	0	-999	n/a	n/a	n/a	n/a	1	[0, 0, 0]	-999	PAL1	0	R1089P
145.975	0.885	591890	STUDY_ORIENT	n/a	n/a	1	5	FLUTE	BALL	BALL	FLUTE	1	[0, 0, 0]	-999	PAL1	0	R1089P
146.86	5.034	592333	STUDY_PAIR	n/a	wordpools/wordpool_EN.txt	1	5	FLUTE	BALL	BALL	FLUTE	1	[0, 0, 0]	-999	PAL1	0	R1089P
151.894	0.934	594849	STUDY_ORIENT	n/a	n/a	2	4	RICE	n/a	RICE	CLOTH	1	[0, 0, 0]	-999	PAL1	0	R1089P
152.828	5.034	595316	STUDY_PAIR	n/a	wordpools/wordpool_EN.txt	2	4	RICE	n/a	RICE	CLOTH	1	[0, 0, 0]	-999	PAL1	0	R1089P
157.862	0.867	597833	STUDY_ORIENT	n/a	n/a	3	1	CAGE	n/a	DOG	CAGE	1	[0, 0, 0]	-999	PAL1	0	R1089P
158.729	5.034	598267	STUDY_PAIR	n/a	wordpools/wordpool_EN.txt	3	1	CAGE	n/a	DOG	CAGE	1	[0, 0, 0]	-999	PAL1	0	R1089P
163.763	0.799	600784	STUDY_ORIENT	n/a	n/a	4	6	GEESE	n/a	SHIP	GEESE	1	[0, 0, 0]	-999	PAL1	0	R1089P
164.562	5.018	601183	STUDY_PAIR	n/a	wordpools/wordpool_EN.txt	4	6	GEESE	n/a	SHIP	GEESE	1	[0, 0, 0]	-999	PAL1	0	R1089P
169.58	0.967	603692	STUDY_ORIENT	n/a	n/a	5	3	SNOW	n/a	CORN	SNOW	1	[0, 0, 0]	-999	PAL1	0	R1089P
170.547	5.034	604175	STUDY_PAIR	n/a	wordpools/wordpool_EN.txt	5	3	SNOW	n/a	CORN	SNOW	1	[0, 0, 0]	-999	PAL1	0	R1089P
175.581	1.017	606692	STUDY_ORIENT	n/a	n/a	6	2	HORN	n/a	MUG	HORN	1	[0, 0, 0]	-999	PAL1	0	R1089P
176.598	4.018	607201	STUDY_PAIR	n/a	wordpools/wordpool_EN.txt	6	2	HORN	n/a	MUG	HORN	1	[0, 0, 0]	-999	PAL1	0	R1089P
180.616	0.999	609210	START	n/a	n/a	-999	-999	n/a	n/a	n/a	n/a	1	[-999, -999, -999]	-999	PAL1	0	R1089P
181.615	0.017	609709	MATH_START	n/a	n/a	-999	-999	n/a	n/a	n/a	n/a	1	[0, 0, 0]	-999	PAL1	0	R1089P
181.632	5.102	609718	PROB	5066	n/a	-999	-999	n/a	n/a	n/a	n/a	1	[5, 7, 6]	18	PAL1	0	R1089P
186.734	2.933	612269	PROB	2900	n/a	-999	-999	n/a	n/a	n/a	n/a	1	[7, 8, 1]	16	PAL1	0	R1089P
189.667	2.851	613735	PROB	2823	n/a	-999	-999	n/a	n/a	n/a	n/a	1	[9, 4, 8]	21	PAL1	0	R1089P
192.518	2.633	615160	PROB	2604	n/a	-999	-999	n/a	n/a	n/a	n/a	1	[1, 7, 2]	10	PAL1	0	R1089P
195.151	2.534	616477	PROB	2507	n/a	-999	-999	n/a	n/a	n/a	n/a	1	[6, 7, 2]	15	PAL1	0	R1089P
197.685	2.501	617744	PROB	2469	n/a	-999	-999	n/a	n/a	n/a	n/a	1	[2, 8, 5]	15	PAL1	0	R1089P
200.186	2.016	618994	PROB	2016	n/a	-999	-999	n/a	n/a	n/a	n/a	1	[2, 8, 2]	12	PAL1	0	R1089P
202.202	0.017	620002	STOP	n/a	n/a	-999	-999	n/a	n/a	n/a	n/a	1	[-999, -999, -999]	-999	PAL1	0	R1089P
202.219	0.0	620011	MATH_END	n/a	n/a	-999	-999	n/a	n/a	n/a	n/a	1	[0, 0, 0]	-999	PAL1	0	R1089P
202.219	0.017	620011	TEST_START	n/a	n/a	-999	-999	n/a	n/a	n/a	n/a	1	[0, 0, 0]	-999	PAL1	0	R1089P
202.236	0.95	620019	TEST_ORIENT	n/a	n/a	3	1	CAGE	n/a	DOG	CAGE	1	[0, 0, 0]	-999	PAL1	0	R1089P
203.186	0.001	620494	TEST_PROBE	n/a	wordpools/wordpool_EN.txt	3	1	CAGE	n/a	DOG	CAGE	1	[0, 0, 0]	-999	PAL1	0	R1089P
203.187	5.009	620495	REC_START	n/a	n/a	3	-999	n/a	n/a	n/a	n/a	1	[0, 0, 0]	-999	PAL1	0	R1089P
208.196	0.0	622999	REC_EVENT	5009	n/a	3	1	CAGE	<>	DOG	CAGE	1	[0, 0, 0]	-999	PAL1	0	R1089P
208.196	0.008	622999	REC_END	n/a	n/a	3	-999	n/a	n/a	n/a	n/a	1	[0, 0, 0]	-999	PAL1	0	R1089P
208.204	1.033	623003	TEST_ORIENT	n/a	n/a	6	2	HORN	n/a	MUG	HORN	1	[0, 0, 0]	-999	PAL1	0	R1089P
209.237	0.001	623519	TEST_PROBE	n/a	wordpools/wordpool_EN.txt	6	2	HORN	n/a	MUG	HORN	1	[0, 0, 0]	-999	PAL1	0	R1089P
209.238	5.009	623520	REC_START	n/a	n/a	6	-999	n/a	n/a	n/a	n/a	1	[0, 0, 0]	-999	PAL1	0	R1089P
214.247	0.0	626024	REC_END	n/a	n/a	6	-999	n/a	n/a	n/a	n/a	1	[0, 0, 0]	-999	PAL1	0	R1089P
214.247	0.008	626024	REC_EVENT	5009	n/a	6	2	HORN	<>	MUG	HORN	1	[0, 0, 0]	-999	PAL1	0	R1089P
214.255	0.934	626028	TEST_ORIENT	n/a	n/a	5	3	SNOW	n/a	CORN	SNOW	1	[0, 0, 0]	-999	PAL1	0	R1089P
215.189	0.0	626495	TEST_PROBE	n/a	wordpools/wordpool_EN.txt	5	3	SNOW	n/a	CORN	SNOW	1	[0, 0, 0]	-999	PAL1	0	R1089P
215.189	5.015	626495	REC_START	n/a	n/a	5	-999	n/a	n/a	n/a	n/a	1	[0, 0, 0]	-999	PAL1	0	R1089P
220.204	0.002	629003	REC_EVENT	5015	n/a	5	3	SNOW	<>	CORN	SNOW	1	[0, 0, 0]	-999	PAL1	0	R1089P
220.206	0.017	629004	REC_END	n/a	n/a	5	-999	n/a	n/a	n/a	n/a	1	[0, 0, 0]	-999	PAL1	0	R1089P
220.223	0.95	629012	TEST_ORIENT	n/a	n/a	2	4	RICE	n/a	RICE	CLOTH	1	[0, 0, 0]	-999	PAL1	0	R1089P
221.173	0.001	629487	TEST_PROBE	n/a	wordpools/wordpool_EN.txt	2	4	RICE	n/a	RICE	CLOTH	1	[0, 0, 0]	-999	PAL1	0	R1089P
221.174	5.015	629488	REC_START	n/a	n/a	2	-999	n/a	n/a	n/a	n/a	1	[0, 0, 0]	-999	PAL1	0	R1089P
226.189	0.001	631995	REC_EVENT	5015	n/a	2	4	RICE	<>	RICE	CLOTH	1	[0, 0, 0]	-999	PAL1	0	R1089P
226.19	0.017	631996	REC_END	n/a	n/a	2	-999	n/a	n/a	n/a	n/a	1	[0, 0, 0]	-999	PAL1	0	R1089P
226.207	0.85	632004	TEST_ORIENT	n/a	n/a	1	5	FLUTE	BALL	BALL	FLUTE	1	[0, 0, 0]	-999	PAL1	0	R1089P
227.057	0.001	632429	TEST_PROBE	n/a	wordpools/wordpool_EN.txt	1	5	FLUTE	BALL	BALL	FLUTE	1	[0, 0, 0]	-999	PAL1	0	R1089P
227.058	3.34	632430	REC_START	n/a	n/a	1	-999	n/a	BALL	n/a	n/a	1	[0, 0, 0]	-999	PAL1	0	R1089P
230.398	1.669	634099	REC_EVENT	3340	n/a	1	5	FLUTE	BALL	BALL	FLUTE	1	[0, 0, 0]	-999	PAL1	0	R1089P
232.067	0.008	634934	REC_END	n/a	n/a	1	-999	n/a	n/a	n/a	n/a	1	[0, 0, 0]	-999	PAL1	0	R1089P
232.075	0.967	634938	TEST_ORIENT	n/a	n/a	4	6	GEESE	n/a	SHIP	GEESE	1	[0, 0, 0]	-999	PAL1	0	R1089P
233.042	0.0	635421	REC_START	n/a	n/a	4	-999	n/a	n/a	n/a	n/a	1	[0, 0, 0]	-999	PAL1	0	R1089P
233.042	5.015	635421	TEST_PROBE	n/a	wordpools/wordpool_EN.txt	4	6	GEESE	n/a	SHIP	GEESE	1	[0, 0, 0]	-999	PAL1	0	R1089P
238.057	0.002	637929	REC_EVENT	5015	n/a	4	6	GEESE	<>	SHIP	GEESE	1	[0, 0, 0]	-999	PAL1	0	R1089P
238.059	1.567	637930	REC_END	n/a	n/a	4	-999	n/a	n/a	n/a	n/a	1	[0, 0, 0]	-999	PAL1	0	R1089P
239.626	10.453	638713	ENCODING_START	n/a	n/a	0	-999	n/a	n/a	n/a	n/a	2	[0, 0, 0]	-999	PAL1	0	R1089P
250.079	0.983	643939	STUDY_ORIENT	n/a	n/a	1	1	TRAIN	n/a	FLOOR	TRAIN	2	[0, 0, 0]	-999	PAL1	0	R1089P
251.062	5.034	644431	STUDY_PAIR	n/a	wordpools/wordpool_EN.txt	1	1	TRAIN	n/a	FLOOR	TRAIN	2	[0, 0, 0]	-999	PAL1	0	R1089P
256.096	0.867	646948	STUDY_ORIENT	n/a	n/a	2	2	CRANE	n/a	MAZE	CRANE	2	[0, 0, 0]	-999	PAL1	0	R1089P
256.963	5.018	647381	STUDY_PAIR	n/a	wordpools/wordpool_EN.txt	2	2	CRANE	n/a	MAZE	CRANE	2	[0, 0, 0]	-999	PAL1	0	R1089P
261.981	0.784	649890	STUDY_ORIENT	n/a	n/a	3	5	PLATE	SPOON	PLATE	SPOON	2	[0, 0, 0]	-999	PAL1	0	R1089P
262.765	5.018	650282	STUDY_PAIR	n/a	wordpools/wordpool_EN.txt	3	5	PLATE	SPOON	PLATE	SPOON	2	[0, 0, 0]	-999	PAL1	0	R1089P
267.783	0.833	652791	STUDY_ORIENT	n/a	n/a	4	6	SUIT	TENT	SUIT	TENT	2	[0, 0, 0]	-999	PAL1	0	R1089P
268.616	5.034	653207	STUDY_PAIR	n/a	wordpools/wordpool_EN.txt	4	6	SUIT	TENT	SUIT	TENT	2	[0, 0, 0]	-999	PAL1	0	R1089P
273.65	0.917	655724	STUDY_ORIENT	n/a	n/a	5	3	MOUSE	n/a	MOUSE	MULE	2	[0, 0, 0]	-999	PAL1	0	R1089P
274.567	5.034	656183	STUDY_PAIR	n/a	wordpools/wordpool_EN.txt	5	3	MOUSE	n/a	MOUSE	MULE	2	[0, 0, 0]	-999	PAL1	0	R1089P
279.601	0.9	658700	STUDY_ORIENT	n/a	n/a	6	4	MUD	ROCK	MUD	ROCK	2	[0, 0, 0]	-999	PAL1	0	R1089P
280.501	4.018	659150	STUDY_PAIR	n/a	wordpools/wordpool_EN.txt	6	4	MUD	ROCK	MUD	ROCK	2	[0, 0, 0]	-999	PAL1	0	R1089P
284.519	0.999	661159	START	n/a	n/a	-999	-999	n/a	n/a	n/a	n/a	2	[-999, -999, -999]	-999	PAL1	0	R1089P
285.518	0.017	661658	MATH_START	n/a	n/a	-999	-999	n/a	n/a	n/a	n/a	2	[0, 0, 0]	-999	PAL1	0	R1089P
285.535	4.186	661667	PROB	4163	n/a	-999	-999	n/a	n/a	n/a	n/a	2	[4, 8, 4]	16	PAL1	0	R1089P
289.721	2.982	663759	PROB	2961	n/a	-999	-999	n/a	n/a	n/a	n/a	2	[2, 5, 3]	10	PAL1	0	R1089P
292.703	3.368	665250	PROB	3347	n/a	-999	-999	n/a	n/a	n/a	n/a	2	[4, 6, 5]	16	PAL1	0	R1089P
296.071	5.417	666934	PROB	5395	n/a	-999	-999	n/a	n/a	n/a	n/a	2	[4, 4, 2]	10	PAL1	0	R1089P
301.488	2.252	669643	PROB	2227	n/a	-999	-999	n/a	n/a	n/a	n/a	2	[2, 3, 3]	8	PAL1	0	R1089P
303.74	4.87	670769	PROB	4870	n/a	-999	-999	n/a	n/a	n/a	n/a	2	[8, 9, 9]	26	PAL1	0	R1089P
308.61	0.013	673203	STOP	n/a	n/a	-999	-999	n/a	n/a	n/a	n/a	2	[-999, -999, -999]	-999	PAL1	0	R1089P
308.623	0.0	673210	TEST_START	n/a	n/a	-999	-999	n/a	n/a	n/a	n/a	2	[0, 0, 0]	-999	PAL1	0	R1089P
308.623	0.017	673210	MATH_END	n/a	n/a	-999	-999	n/a	n/a	n/a	n/a	2	[0, 0, 0]	-999	PAL1	0	R1089P
308.64	0.95	673218	TEST_ORIENT	n/a	n/a	1	1	TRAIN	n/a	FLOOR	TRAIN	2	[0, 0, 0]	-999	PAL1	0	R1089P
309.59	0.001	673693	TEST_PROBE	n/a	wordpools/wordpool_EN.txt	1	1	TRAIN	n/a	FLOOR	TRAIN	2	[0, 0, 0]	-999	PAL1	0	R1089P
309.591	5.015	673694	REC_START	n/a	n/a	1	-999	n/a	n/a	n/a	n/a	2	[0, 0, 0]	-999	PAL1	0	R1089P
314.606	0.001	676201	REC_EVENT	5015	n/a	1	1	TRAIN	<>	FLOOR	TRAIN	2	[0, 0, 0]	-999	PAL1	0	R1089P
314.607	0.017	676202	REC_END	n/a	n/a	1	-999	n/a	n/a	n/a	n/a	2	[0, 0, 0]	-999	PAL1	0	R1089P
314.624	0.867	676210	TEST_ORIENT	n/a	n/a	2	2	CRANE	n/a	MAZE	CRANE	2	[0, 0, 0]	-999	PAL1	0	R1089P
315.491	0.001	676644	TEST_PROBE	n/a	wordpools/wordpool_EN.txt	2	2	CRANE	n/a	MAZE	CRANE	2	[0, 0, 0]	-999	PAL1	0	R1089P
315.492	5.027	676644	REC_START	n/a	n/a	2	-999	n/a	n/a	n/a	n/a	2	[0, 0, 0]	-999	PAL1	0	R1089P
320.519	0.0	679158	REC_END	n/a	n/a	2	-999	n/a	n/a	n/a	n/a	2	[0, 0, 0]	-999	PAL1	0	R1089P
320.519	0.006	679158	REC_EVENT	5027	n/a	2	2	CRANE	<>	MAZE	CRANE	2	[0, 0, 0]	-999	PAL1	0	R1089P
320.525	0.951	679161	TEST_ORIENT	n/a	n/a	5	3	MOUSE	n/a	MOUSE	MULE	2	[0, 0, 0]	-999	PAL1	0	R1089P
321.476	0.0	679636	TEST_PROBE	n/a	wordpools/wordpool_EN.txt	5	3	MOUSE	n/a	MOUSE	MULE	2	[0, 0, 0]	-999	PAL1	0	R1089P
321.476	5.015	679636	REC_START	n/a	n/a	5	-999	n/a	n/a	n/a	n/a	2	[0, 0, 0]	-999	PAL1	0	R1089P
326.491	0.002	682143	REC_EVENT	5015	n/a	5	3	MOUSE	<>	MOUSE	MULE	2	[0, 0, 0]	-999	PAL1	0	R1089P
326.493	0.017	682144	REC_END	n/a	n/a	5	-999	n/a	n/a	n/a	n/a	2	[0, 0, 0]	-999	PAL1	0	R1089P
326.51	1.017	682153	TEST_ORIENT	n/a	n/a	6	4	MUD	ROCK	MUD	ROCK	2	[0, 0, 0]	-999	PAL1	0	R1089P
327.527	0.0	682661	REC_START	n/a	n/a	6	-999	n/a	ROCK	n/a	n/a	2	[0, 0, 0]	-999	PAL1	0	R1089P
327.527	1.627	682661	TEST_PROBE	n/a	wordpools/wordpool_EN.txt	6	4	MUD	ROCK	MUD	ROCK	2	[0, 0, 0]	-999	PAL1	0	R1089P
329.154	3.391	683475	REC_EVENT	1627	n/a	6	4	MUD	ROCK	MUD	ROCK	2	[0, 0, 0]	-999	PAL1	0	R1089P
332.545	0.016	685170	REC_END	n/a	n/a	6	-999	n/a	n/a	n/a	n/a	2	[0, 0, 0]	-999	PAL1	0	R1089P
332.561	0.95	685178	TEST_ORIENT	n/a	n/a	3	5	PLATE	SPOON	PLATE	SPOON	2	[0, 0, 0]	-999	PAL1	0	R1089P
333.511	0.001	685653	TEST_PROBE	n/a	wordpools/wordpool_EN.txt	3	5	PLATE	SPOON	PLATE	SPOON	2	[0, 0, 0]	-999	PAL1	0	R1089P
333.512	1.165	685654	REC_START	n/a	n/a	3	-999	n/a	SPOON	n/a	n/a	2	[0, 0, 0]	-999	PAL1	0	R1089P
334.677	3.844	686236	REC_EVENT	1165	n/a	3	5	PLATE	SPOON	PLATE	SPOON	2	[0, 0, 0]	-999	PAL1	0	R1089P
338.521	0.008	688158	REC_END	n/a	n/a	3	-999	n/a	n/a	n/a	n/a	2	[0, 0, 0]	-999	PAL1	0	R1089P
338.529	0.983	688162	TEST_ORIENT	n/a	n/a	4	6	SUIT	TENT	SUIT	TENT	2	[0, 0, 0]	-999	PAL1	0	R1089P
339.512	0.001	688654	TEST_PROBE	n/a	wordpools/wordpool_EN.txt	4	6	SUIT	TENT	SUIT	TENT	2	[0, 0, 0]	-999	PAL1	0	R1089P
339.513	1.65	688654	REC_START	n/a	n/a	4	-999	n/a	TENT	n/a	n/a	2	[0, 0, 0]	-999	PAL1	0	R1089P
341.163	3.367	689479	REC_EVENT	1650	n/a	4	6	SUIT	TENT	SUIT	TENT	2	[0, 0, 0]	-999	PAL1	0	R1089P
344.53	1.488	691163	REC_END	n/a	n/a	4	-999	n/a	n/a	n/a	n/a	2	[0, 0, 0]	-999	PAL1	0	R1089P
346.018	10.448	691906	ENCODING_START	n/a	n/a	0	-999	n/a	n/a	n/a	n/a	3	[0, 0, 0]	-999	PAL1	0	R1089P
356.466	0.917	697130	STUDY_ORIENT	n/a	n/a	1	1	ANT	VINE	ANT	VINE	3	[0, 0, 0]	-999	PAL1	0	R1089P
357.383	5.034	697589	STUDY_PAIR	n/a	wordpools/wordpool_EN.txt	1	1	ANT	VINE	ANT	VINE	3	[0, 0, 0]	-999	PAL1	0	R1089P
362.417	0.883	700106	STUDY_ORIENT	n/a	n/a	2	4	BOWL	n/a	CHEEK	BOWL	3	[0, 0, 0]	-999	PAL1	0	R1089P
363.3	5.018	700547	STUDY_PAIR	n/a	wordpools/wordpool_EN.txt	2	4	BOWL	n/a	CHEEK	BOWL	3	[0, 0, 0]	-999	PAL1	0	R1089P
368.318	0.833	703056	STUDY_ORIENT	n/a	n/a	3	3	TOOL	n/a	TOOL	PLANT	3	[0, 0, 0]	-999	PAL1	0	R1089P
369.151	5.018	703472	STUDY_PAIR	n/a	wordpools/wordpool_EN.txt	3	3	TOOL	n/a	TOOL	PLANT	3	[0, 0, 0]	-999	PAL1	0	R1089P
374.169	0.9	705981	STUDY_ORIENT	n/a	n/a	4	2	JUICE	n/a	JUICE	ROPE	3	[0, 0, 0]	-999	PAL1	0	R1089P
375.069	5.018	706431	STUDY_PAIR	n/a	wordpools/wordpool_EN.txt	4	2	JUICE	n/a	JUICE	ROPE	3	[0, 0, 0]	-999	PAL1	0	R1089P
380.087	1.017	708940	STUDY_ORIENT	n/a	n/a	5	5	TREE	n/a	BRIDGE	TREE	3	[0, 0, 0]	-999	PAL1	0	R1089P
381.104	5.034	709449	STUDY_PAIR	n/a	wordpools/wordpool_EN.txt	5	5	TREE	n/a	BRIDGE	TREE	3	[0, 0, 0]	-999	PAL1	0	R1089P
386.138	0.967	711965	STUDY_ORIENT	n/a	n/a	6	6	ICE	HOUSE	PIG	ICE	3	[0, 0, 0]	-999	PAL1	0	R1089P
387.105	4.018	712449	STUDY_PAIR	n/a	wordpools/wordpool_EN.txt	6	6	ICE	HOUSE	PIG	ICE	3	[0, 0, 0]	-999	PAL1	0	R1089P
391.123	0.999	714458	START	n/a	n/a	-999	-999	n/a	n/a	n/a	n/a	3	[-999, -999, -999]	-999	PAL1	0	R1089P
392.122	0.017	714957	MATH_START	n/a	n/a	-999	-999	n/a	n/a	n/a	n/a	3	[0, 0, 0]	-999	PAL1	0	R1089P
392.139	3.884	714966	PROB	3863	n/a	-999	-999	n/a	n/a	n/a	n/a	3	[5, 8, 3]	16	PAL1	0	R1089P
396.023	2.151	716908	PROB	2123	n/a	-999	-999	n/a	n/a	n/a	n/a	3	[6, 6, 1]	13	PAL1	0	R1089P
398.174	3.685	717983	PROB	3653	n/a	-999	-999	n/a	n/a	n/a	n/a	3	[8, 6, 6]	20	PAL1	0	R1089P
401.859	3.05	719826	PROB	3024	n/a	-999	-999	n/a	n/a	n/a	n/a	3	[7, 9, 7]	23	PAL1	0	R1089P
404.909	3.183	721350	PROB	3157	n/a	-999	-999	n/a	n/a	n/a	n/a	3	[7, 3, 9]	19	PAL1	0	R1089P
408.092	3.614	722942	PROB	3614	n/a	-999	-999	n/a	n/a	n/a	n/a	3	[7, 8, 5]	20	PAL1	0	R1089P
411.706	0.004	724749	STOP	n/a	n/a	-999	-999	n/a	n/a	n/a	n/a	3	[-999, -999, -999]	-999	PAL1	0	R1089P
411.71	0.0	724751	TEST_START	n/a	n/a	-999	-999	n/a	n/a	n/a	n/a	3	[0, 0, 0]	-999	PAL1	0	R1089P
411.71	0.017	724751	MATH_END	n/a	n/a	-999	-999	n/a	n/a	n/a	n/a	3	[0, 0, 0]	-999	PAL1	0	R1089P
411.727	0.933	724759	TEST_ORIENT	n/a	n/a	1	1	ANT	VINE	ANT	VINE	3	[0, 0, 0]	-999	PAL1	0	R1089P
412.66	0.0	725226	TEST_PROBE	n/a	wordpools/wordpool_EN.txt	1	1	ANT	VINE	ANT	VINE	3	[0, 0, 0]	-999	PAL1	0	R1089P
412.66	3.224	725226	REC_START	n/a	n/a	1	-999	n/a	VINE	n/a	n/a	3	[0, 0, 0]	-999	PAL1	0	R1089P
415.884	1.793	726838	REC_EVENT	3224	n/a	1	1	ANT	VINE	ANT	VINE	3	[0, 0, 0]	-999	PAL1	0	R1089P
417.677	0.017	727734	REC_END	n/a	n/a	1	-999	n/a	n/a	n/a	n/a	3	[0, 0, 0]	-999	PAL1	0	R1089P
417.694	0.967	727743	TEST_ORIENT	n/a	n/a	4	2	JUICE	n/a	JUICE	ROPE	3	[0, 0, 0]	-999	PAL1	0	R1089P
418.661	0.0	728226	TEST_PROBE	n/a	wordpools/wordpool_EN.txt	4	2	JUICE	n/a	JUICE	ROPE	3	[0, 0, 0]	-999	PAL1	0	R1089P
418.661	5.015	728226	REC_START	n/a	n/a	4	-999	n/a	n/a	n/a	n/a	3	[0, 0, 0]	-999	PAL1	0	R1089P
423.676	0.002	730734	REC_EVENT	5015	n/a	4	2	JUICE	<>	JUICE	ROPE	3	[0, 0, 0]	-999	PAL1	0	R1089P
423.678	0.017	730735	REC_END	n/a	n/a	4	-999	n/a	n/a	n/a	n/a	3	[0, 0, 0]	-999	PAL1	0	R1089P
423.695	0.984	730743	TEST_ORIENT	n/a	n/a	3	3	TOOL	n/a	TOOL	PLANT	3	[0, 0, 0]	-999	PAL1	0	R1089P
424.679	0.0	731235	TEST_PROBE	n/a	wordpools/wordpool_EN.txt	3	3	TOOL	n/a	TOOL	PLANT	3	[0, 0, 0]	-999	PAL1	0	R1089P
424.679	5.015	731235	REC_START	n/a	n/a	3	-999	n/a	n/a	n/a	n/a	3	[0, 0, 0]	-999	PAL1	0	R1089P
429.694	0.002	733742	REC_EVENT	5015	n/a	3	3	TOOL	<>	TOOL	PLANT	3	[0, 0, 0]	-999	PAL1	0	R1089P
429.696	0.018	733743	REC_END	n/a	n/a	3	-999	n/a	n/a	n/a	n/a	3	[0, 0, 0]	-999	PAL1	0	R1089P
429.714	0.982	733752	TEST_ORIENT	n/a	n/a	2	4	BOWL	n/a	CHEEK	BOWL	3	[0, 0, 0]	-999	PAL1	0	R1089P
430.696	0.001	734243	TEST_PROBE	n/a	wordpools/wordpool_EN.txt	2	4	BOWL	n/a	CHEEK	BOWL	3	[0, 0, 0]	-999	PAL1	0	R1089P
430.697	5.009	734244	REC_START	n/a	n/a	2	-999	n/a	n/a	n/a	n/a	3	[0, 0, 0]	-999	PAL1	0	R1089P
435.706	0.0	736748	REC_EVENT	5009	n/a	2	4	BOWL	<>	CHEEK	BOWL	3	[0, 0, 0]	-999	PAL1	0	R1089P
435.706	0.009	736748	REC_END	n/a	n/a	2	-999	n/a	n/a	n/a	n/a	3	[0, 0, 0]	-999	PAL1	0	R1089P
435.715	0.799	736753	TEST_ORIENT	n/a	n/a	5	5	TREE	n/a	BRIDGE	TREE	3	[0, 0, 0]	-999	PAL1	0	R1089P
436.514	0.001	737152	TEST_PROBE	n/a	wordpools/wordpool_EN.txt	5	5	TREE	n/a	BRIDGE	TREE	3	[0, 0, 0]	-999	PAL1	0	R1089P
436.515	4.998	737153	REC_START	n/a	n/a	5	-999	n/a	n/a	n/a	n/a	3	[0, 0, 0]	-999	PAL1	0	R1089P
441.513	0.002	739652	REC_EVENT	4998	n/a	5	5	TREE	<>	BRIDGE	TREE	3	[0, 0, 0]	-999	PAL1	0	R1089P
441.515	0.017	739653	REC_END	n/a	n/a	5	-999	n/a	n/a	n/a	n/a	3	[0, 0, 0]	-999	PAL1	0	R1089P
441.532	0.817	739661	TEST_ORIENT	n/a	n/a	6	6	ICE	HOUSE	PIG	ICE	3	[0, 0, 0]	-999	PAL1	0	R1089P
442.349	0.0	740070	TEST_PROBE	n/a	wordpools/wordpool_EN.txt	6	6	ICE	HOUSE	PIG	ICE	3	[0, 0, 0]	-999	PAL1	0	R1089P
442.349	2.63	740070	REC_START	n/a	n/a	6	-999	n/a	HOUSE	n/a	n/a	3	[0, 0, 0]	-999	PAL1	0	R1089P
444.979	2.387	741384	REC_EVENT	2630	n/a	6	6	ICE	HOUSE	PIG	ICE	3	[0, 0, 0]	-999	PAL1	0	R1089P
447.366	2.124	742578	REC_END	n/a	n/a	6	-999	n/a	n/a	n/a	n/a	3	[0, 0, 0]	-999	PAL1	0	R1089P
449.49	10.446	743640	ENCODING_START	n/a	n/a	0	-999	n/a	n/a	n/a	n/a	4	[0, 0, 0]	-999	PAL1	0	R1089P
459.936	0.801	748863	STUDY_ORIENT	n/a	n/a	1	5	CAVE	n/a	CAVE	PIPE	4	[0, 0, 0]	-999	PAL1	0	R1089P
460.737	5.034	749263	STUDY_PAIR	n/a	wordpools/wordpool_EN.txt	1	5	CAVE	n/a	CAVE	PIPE	4	[0, 0, 0]	-999	PAL1	0	R1089P
465.771	0.983	751780	STUDY_ORIENT	n/a	n/a	2	2	TEETH	APE	TEETH	APE	4	[0, 0, 0]	-999	PAL1	0	R1089P
466.754	5.018	752271	STUDY_PAIR	n/a	wordpools/wordpool_EN.txt	2	2	TEETH	APE	TEETH	APE	4	[0, 0, 0]	-999	PAL1	0	R1089P
471.772	0.95	754780	STUDY_ORIENT	n/a	n/a	3	1	HOUSE	CROW	CROW	HOUSE	4	[0, 0, 0]	-999	PAL1	0	R1089P
472.722	5.018	755255	STUDY_PAIR	n/a	wordpools/wordpool_EN.txt	3	1	HOUSE	CROW	CROW	HOUSE	4	[0, 0, 0]	-999	PAL1	0	R1089P
477.74	0.932	757764	STUDY_ORIENT	n/a	n/a	4	6	FLEA	n/a	FLEA	SEAT	4	[0, 0, 0]	-999	PAL1	0	R1089P
478.672	5.018	758230	STUDY_PAIR	n/a	wordpools/wordpool_EN.txt	4	6	FLEA	n/a	FLEA	SEAT	4	[0, 0, 0]	-999	PAL1	0	R1089P
483.69	0.934	760739	STUDY_ORIENT	n/a	n/a	5	3	WEB	TEETH	MOUTH	WEB	4	[0, 0, 0]	-999	PAL1	0	R1089P
484.624	5.034	761206	STUDY_PAIR	n/a	wordpools/wordpool_EN.txt	5	3	WEB	TEETH	MOUTH	WEB	4	[0, 0, 0]	-999	PAL1	0	R1089P
489.658	1.0	763723	STUDY_ORIENT	n/a	n/a	6	4	SAIL	n/a	SAIL	SKY	4	[0, 0, 0]	-999	PAL1	0	R1089P
490.658	4.001	764223	STUDY_PAIR	n/a	wordpools/wordpool_EN.txt	6	4	SAIL	n/a	SAIL	SKY	4	[0, 0, 0]	-999	PAL1	0	R1089P
494.659	1.0	766223	START	n/a	n/a	-999	-999	n/a	n/a	n/a	n/a	4	[-999, -999, -999]	-999	PAL1	0	R1089P
495.659	0.017	766723	MATH_START	n/a	n/a	-999	-999	n/a	n/a	n/a	n/a	4	[0, 0, 0]	-999	PAL1	0	R1089P
495.676	3.65	766732	PROB	3622	n/a	-999	-999	n/a	n/a	n/a	n/a	4	[4, 2, 8]	14	PAL1	0	R1089P
499.326	2.634	768557	PROB	2605	n/a	-999	-999	n/a	n/a	n/a	n/a	4	[1, 2, 4]	7	PAL1	0	R1089P
501.96	3.468	769874	PROB	3434	n/a	-999	-999	n/a	n/a	n/a	n/a	4	[5, 8, 7]	20	PAL1	0	R1089P
505.428	3.0	771607	PROB	2966	n/a	-999	-999	n/a	n/a	n/a	n/a	4	[7, 1, 2]	10	PAL1	0	R1089P
508.428	3.584	773107	PROB	3558	n/a	-999	-999	n/a	n/a	n/a	n/a	4	[6, 7, 8]	21	PAL1	0	R1089P
512.012	3.934	774899	PROB	3934	n/a	-999	-999	n/a	n/a	n/a	n/a	4	[5, 4, 9]	18	PAL1	0	R1089P
515.946	0.017	776866	STOP	n/a	n/a	-999	-999	n/a	n/a	n/a	n/a	4	[-999, -999, -999]	-999	PAL1	0	R1089P
515.963	0.0	776875	TEST_START	n/a	n/a	-999	-999	n/a	n/a	n/a	n/a	4	[0, 0, 0]	-999	PAL1	0	R1089P
515.963	0.017	776875	MATH_END	n/a	n/a	-999	-999	n/a	n/a	n/a	n/a	4	[0, 0, 0]	-999	PAL1	0	R1089P
515.98	0.917	776883	TEST_ORIENT	n/a	n/a	3	1	HOUSE	CROW	CROW	HOUSE	4	[0, 0, 0]	-999	PAL1	0	R1089P
516.897	0.001	777342	TEST_PROBE	n/a	wordpools/wordpool_EN.txt	3	1	HOUSE	CROW	CROW	HOUSE	4	[0, 0, 0]	-999	PAL1	0	R1089P
516.898	3.18	777342	REC_START	n/a	n/a	3	-999	n/a	CROW	n/a	n/a	4	[0, 0, 0]	-999	PAL1	0	R1089P
520.078	0.713	778932	REC_EVENT	3180	n/a	3	1	HOUSE	<>	CROW	HOUSE	4	[0, 0, 0]	-999	PAL1	0	R1089P
520.791	1.116	779289	REC_EVENT	3893	n/a	3	1	HOUSE	CROW	CROW	HOUSE	4	[0, 0, 0]	-999	PAL1	0	R1089P
521.907	0.008	779847	REC_END	n/a	n/a	3	-999	n/a	n/a	n/a	n/a	4	[0, 0, 0]	-999	PAL1	0	R1089P
521.915	1.0	779851	TEST_ORIENT	n/a	n/a	2	2	TEETH	APE	TEETH	APE	4	[0, 0, 0]	-999	PAL1	0	R1089P
522.915	0.001	780350	TEST_PROBE	n/a	wordpools/wordpool_EN.txt	2	2	TEETH	APE	TEETH	APE	4	[0, 0, 0]	-999	PAL1	0	R1089P
522.916	2.694	780351	REC_START	n/a	n/a	2	-999	n/a	APE	n/a	n/a	4	[0, 0, 0]	-999	PAL1	0	R1089P
525.61	0.495	781698	REC_EVENT	2694	n/a	2	2	TEETH	<>	TEETH	APE	4	[0, 0, 0]	-999	PAL1	0	R1089P
526.105	1.82	781945	REC_EVENT	3189	n/a	2	2	TEETH	APE	TEETH	APE	4	[0, 0, 0]	-999	PAL1	0	R1089P
527.925	0.008	782855	REC_END	n/a	n/a	2	-999	n/a	n/a	n/a	n/a	4	[0, 0, 0]	-999	PAL1	0	R1089P
527.933	0.967	782859	TEST_ORIENT	n/a	n/a	5	3	WEB	TEETH	MOUTH	WEB	4	[0, 0, 0]	-999	PAL1	0	R1089P
528.9	0.0	783343	TEST_PROBE	n/a	wordpools/wordpool_EN.txt	5	3	WEB	TEETH	MOUTH	WEB	4	[0, 0, 0]	-999	PAL1	0	R1089P
528.9	3.785	783343	REC_START	n/a	n/a	5	-999	n/a	TEETH	n/a	n/a	4	[0, 0, 0]	-999	PAL1	0	R1089P
532.685	1.232	785235	REC_EVENT	3785	n/a	5	3	WEB	TEETH	MOUTH	WEB	4	[0, 0, 0]	-999	PAL1	0	R1089P
533.917	0.017	785851	REC_END	n/a	n/a	5	-999	n/a	n/a	n/a	n/a	4	[0, 0, 0]	-999	PAL1	0	R1089P
533.934	0.967	785860	TEST_ORIENT	n/a	n/a	6	4	SAIL	n/a	SAIL	SKY	4	[0, 0, 0]	-999	PAL1	0	R1089P
534.901	0.0	786343	TEST_PROBE	n/a	wordpools/wordpool_EN.txt	6	4	SAIL	n/a	SAIL	SKY	4	[0, 0, 0]	-999	PAL1	0	R1089P
534.901	1.877	786343	REC_START	n/a	n/a	6	-999	n/a	n/a	n/a	n/a	4	[0, 0, 0]	-999	PAL1	0	R1089P
536.778	1.0	787282	REC_EVENT	1877	n/a	6	4	SAIL	<>	SAIL	SKY	4	[0, 0, 0]	-999	PAL1	0	R1089P
537.778	0.519	787782	REC_EVENT	2877	n/a	6	4	SAIL	<>	SAIL	SKY	4	[0, 0, 0]	-999	PAL1	0	R1089P
538.297	1.621	788041	REC_EVENT	3396	n/a	6	4	SAIL	<>	SAIL	SKY	4	[0, 0, 0]	-999	PAL1	0	R1089P
539.918	0.017	788852	REC_END	n/a	n/a	6	-999	n/a	n/a	n/a	n/a	4	[0, 0, 0]	-999	PAL1	0	R1089P
539.935	0.817	788860	TEST_ORIENT	n/a	n/a	1	5	CAVE	n/a	CAVE	PIPE	4	[0, 0, 0]	-999	PAL1	0	R1089P
540.752	0.0	789269	TEST_PROBE	n/a	wordpools/wordpool_EN.txt	1	5	CAVE	n/a	CAVE	PIPE	4	[0, 0, 0]	-999	PAL1	0	R1089P
540.752	5.015	789269	REC_START	n/a	n/a	1	-999	n/a	n/a	n/a	n/a	4	[0, 0, 0]	-999	PAL1	0	R1089P
545.767	0.003	791776	REC_EVENT	5015	n/a	1	5	CAVE	<>	CAVE	PIPE	4	[0, 0, 0]	-999	PAL1	0	R1089P
545.77	0.016	791777	REC_END	n/a	n/a	1	-999	n/a	n/a	n/a	n/a	4	[0, 0, 0]	-999	PAL1	0	R1089P
545.786	1.001	791785	TEST_ORIENT	n/a	n/a	4	6	FLEA	n/a	FLEA	SEAT	4	[0, 0, 0]	-999	PAL1	0	R1089P
546.787	0.0	792286	TEST_PROBE	n/a	wordpools/wordpool_EN.txt	4	6	FLEA	n/a	FLEA	SEAT	4	[0, 0, 0]	-999	PAL1	0	R1089P
546.787	5.015	792286	REC_START	n/a	n/a	4	-999	n/a	n/a	n/a	n/a	4	[0, 0, 0]	-999	PAL1	0	R1089P
551.802	0.002	794793	REC_EVENT	5015	n/a	4	6	FLEA	<>	FLEA	SEAT	4	[0, 0, 0]	-999	PAL1	0	R1089P
551.804	1.502	794794	REC_END	n/a	n/a	4	-999	n/a	n/a	n/a	n/a	4	[0, 0, 0]	-999	PAL1	0	R1089P
553.306	10.451	795545	ENCODING_START	n/a	n/a	0	-999	n/a	n/a	n/a	n/a	5	[0, 0, 0]	-999	PAL1	0	R1089P
563.757	0.932	800770	STUDY_ORIENT	n/a	n/a	1	5	BEAR	VEST	VEST	BEAR	5	[0, 0, 0]	-999	PAL1	0	R1089P
564.689	5.035	801236	STUDY_PAIR	n/a	wordpools/wordpool_EN.txt	1	5	BEAR	VEST	VEST	BEAR	5	[0, 0, 0]	-999	PAL1	0	R1089P
569.724	0.933	803754	STUDY_ORIENT	n/a	n/a	2	2	SHEEP	n/a	TRAY	SHEEP	5	[0, 0, 0]	-999	PAL1	0	R1089P
570.657	5.034	804220	STUDY_PAIR	n/a	wordpools/wordpool_EN.txt	2	2	SHEEP	n/a	TRAY	SHEEP	5	[0, 0, 0]	-999	PAL1	0	R1089P
575.691	0.967	806737	STUDY_ORIENT	n/a	n/a	3	3	DESK	n/a	HEN	DESK	5	[0, 0, 0]	-999	PAL1	0	R1089P
576.658	5.034	807221	STUDY_PAIR	n/a	wordpools/wordpool_EN.txt	3	3	DESK	n/a	HEN	DESK	5	[0, 0, 0]	-999	PAL1	0	R1089P
581.692	0.984	809737	STUDY_ORIENT	n/a	n/a	4	6	SHEET	n/a	DIME	SHEET	5	[0, 0, 0]	-999	PAL1	0	R1089P
582.676	5.035	810229	STUDY_PAIR	n/a	wordpools/wordpool_EN.txt	4	6	SHEET	n/a	DIME	SHEET	5	[0, 0, 0]	-999	PAL1	0	R1089P
587.711	0.816	812747	STUDY_ORIENT	n/a	n/a	5	1	ROOT	n/a	CHIEF	ROOT	5	[0, 0, 0]	-999	PAL1	0	R1089P
588.527	5.034	813155	STUDY_PAIR	n/a	wordpools/wordpool_EN.txt	5	1	ROOT	n/a	CHIEF	ROOT	5	[0, 0, 0]	-999	PAL1	0	R1089P
593.561	0.767	815672	STUDY_ORIENT	n/a	n/a	6	4	BENCH	n/a	LAWN	BENCH	5	[0, 0, 0]	-999	PAL1	0	R1089P
594.328	4.018	816055	STUDY_PAIR	n/a	wordpools/wordpool_EN.txt	6	4	BENCH	n/a	LAWN	BENCH	5	[0, 0, 0]	-999	PAL1	0	R1089P
598.346	0.999	818064	START	n/a	n/a	-999	-999	n/a	n/a	n/a	n/a	5	[-999, -999, -999]	-999	PAL1	0	R1089P
599.345	0.017	818564	MATH_START	n/a	n/a	-999	-999	n/a	n/a	n/a	n/a	5	[0, 0, 0]	-999	PAL1	0	R1089P
599.362	3.485	818572	PROB	3465	n/a	-999	-999	n/a	n/a	n/a	n/a	5	[5, 1, 2]	8	PAL1	0	R1089P
602.847	2.316	820314	PROB	2283	n/a	-999	-999	n/a	n/a	n/a	n/a	5	[1, 6, 1]	8	PAL1	0	R1089P
605.163	2.784	821472	PROB	2760	n/a	-999	-999	n/a	n/a	n/a	n/a	5	[9, 2, 4]	15	PAL1	0	R1089P
607.947	2.985	822864	PROB	2952	n/a	-999	-999	n/a	n/a	n/a	n/a	5	[9, 4, 3]	16	PAL1	0	R1089P
610.932	2.716	824357	PROB	2686	n/a	-999	-999	n/a	n/a	n/a	n/a	5	[2, 9, 7]	18	PAL1	0	R1089P
613.648	3.018	825715	PROB	2986	n/a	-999	-999	n/a	n/a	n/a	n/a	5	[5, 4, 9]	18	PAL1	0	R1089P
616.666	3.424	827224	PROB	3424	n/a	-999	-999	n/a	n/a	n/a	n/a	5	[2, 6, 2]	10	PAL1	0	R1089P
620.09	0.01	828936	STOP	n/a	n/a	-999	-999	n/a	n/a	n/a	n/a	5	[-999, -999, -999]	-999	PAL1	0	R1089P
620.1	0.0	828941	MATH_END	n/a	n/a	-999	-999	n/a	n/a	n/a	n/a	5	[0, 0, 0]	-999	PAL1	0	R1089P
620.1	0.016	828941	TEST_START	n/a	n/a	-999	-999	n/a	n/a	n/a	n/a	5	[0, 0, 0]	-999	PAL1	0	R1089P
620.116	0.984	828949	TEST_ORIENT	n/a	n/a	5	1	ROOT	n/a	CHIEF	ROOT	5	[0, 0, 0]	-999	PAL1	0	R1089P
621.1	0.0	829440	TEST_PROBE	n/a	wordpools/wordpool_EN.txt	5	1	ROOT	n/a	CHIEF	ROOT	5	[0, 0, 0]	-999	PAL1	0	R1089P
621.1	5.015	829440	REC_START	n/a	n/a	5	-999	n/a	n/a	n/a	n/a	5	[0, 0, 0]	-999	PAL1	0	R1089P
626.115	0.002	831948	REC_EVENT	5015	n/a	5	1	ROOT	<>	CHIEF	ROOT	5	[0, 0, 0]	-999	PAL1	0	R1089P
626.117	0.017	831949	REC_END	n/a	n/a	5	-999	n/a	n/a	n/a	n/a	5	[0, 0, 0]	-999	PAL1	0	R1089P
626.134	0.801	831957	TEST_ORIENT	n/a	n/a	2	2	SHEEP	n/a	TRAY	SHEEP	5	[0, 0, 0]	-999	PAL1	0	R1089P
626.935	0.001	832358	TEST_PROBE	n/a	wordpools/wordpool_EN.txt	2	2	SHEEP	n/a	TRAY	SHEEP	5	[0, 0, 0]	-999	PAL1	0	R1089P
626.936	5.024	832358	REC_START	n/a	n/a	2	-999	n/a	n/a	n/a	n/a	5	[0, 0, 0]	-999	PAL1	0	R1089P
631.96	0.003	834870	REC_END	n/a	n/a	2	-999	n/a	n/a	n/a	n/a	5	[0, 0, 0]	-999	PAL1	0	R1089P
631.963	0.006	834872	REC_EVENT	5027	n/a	2	2	SHEEP	<>	TRAY	SHEEP	5	[0, 0, 0]	-999	PAL1	0	R1089P
631.969	1.0	834875	TEST_ORIENT	n/a	n/a	3	3	DESK	n/a	HEN	DESK	5	[0, 0, 0]	-999	PAL1	0	R1089P
632.969	0.0	835375	TEST_PROBE	n/a	wordpools/wordpool_EN.txt	3	3	DESK	n/a	HEN	DESK	5	[0, 0, 0]	-999	PAL1	0	R1089P
632.969	5.017	835375	REC_START	n/a	n/a	3	-999	n/a	n/a	n/a	n/a	5	[0, 0, 0]	-999	PAL1	0	R1089P
637.986	0.004	837883	REC_END	n/a	n/a	3	-999	n/a	n/a	n/a	n/a	5	[0, 0, 0]	-999	PAL1	0	R1089P
637.99	0.013	837885	REC_EVENT	5021	n/a	3	3	DESK	<>	HEN	DESK	5	[0, 0, 0]	-999	PAL1	0	R1089P
638.003	0.885	837892	TEST_ORIENT	n/a	n/a	6	4	BENCH	n/a	LAWN	BENCH	5	[0, 0, 0]	-999	PAL1	0	R1089P
638.888	0.0	838334	TEST_PROBE	n/a	wordpools/wordpool_EN.txt	6	4	BENCH	n/a	LAWN	BENCH	5	[0, 0, 0]	-999	PAL1	0	R1089P
638.888	5.015	838334	REC_START	n/a	n/a	6	-999	n/a	n/a	n/a	n/a	5	[0, 0, 0]	-999	PAL1	0	R1089P
643.903	0.002	840841	REC_EVENT	5015	n/a	6	4	BENCH	<>	LAWN	BENCH	5	[0, 0, 0]	-999	PAL1	0	R1089P
643.905	0.017	840842	REC_END	n/a	n/a	6	-999	n/a	n/a	n/a	n/a	5	[0, 0, 0]	-999	PAL1	0	R1089P
643.922	0.817	840851	TEST_ORIENT	n/a	n/a	1	5	BEAR	VEST	VEST	BEAR	5	[0, 0, 0]	-999	PAL1	0	R1089P
644.739	0.0	841259	TEST_PROBE	n/a	wordpools/wordpool_EN.txt	1	5	BEAR	VEST	VEST	BEAR	5	[0, 0, 0]	-999	PAL1	0	R1089P
644.739	1.59	841259	REC_START	n/a	n/a	1	-999	n/a	VEST	n/a	n/a	5	[0, 0, 0]	-999	PAL1	0	R1089P
646.329	3.427	842054	REC_EVENT	1590	n/a	1	5	BEAR	VEST	VEST	BEAR	5	[0, 0, 0]	-999	PAL1	0	R1089P
649.756	0.017	843768	REC_END	n/a	n/a	1	-999	n/a	n/a	n/a	n/a	5	[0, 0, 0]	-999	PAL1	0	R1089P
649.773	0.899	843776	TEST_ORIENT	n/a	n/a	4	6	SHEET	n/a	DIME	SHEET	5	[0, 0, 0]	-999	PAL1	0	R1089P
650.672	0.001	844226	TEST_PROBE	n/a	wordpools/wordpool_EN.txt	4	6	SHEET	n/a	DIME	SHEET	5	[0, 0, 0]	-999	PAL1	0	R1089P
650.673	2.059	844226	REC_START	n/a	n/a	4	-999	n/a	n/a	n/a	n/a	5	[0, 0, 0]	-999	PAL1	0	R1089P
652.732	1.0	845256	REC_EVENT	2059	n/a	4	6	SHEET	<>	DIME	SHEET	5	[0, 0, 0]	-999	PAL1	0	R1089P
653.732	1.95	845756	REC_EVENT	3059	n/a	4	6	SHEET	<>	DIME	SHEET	5	[0, 0, 0]	-999	PAL1	0	R1089P
655.682	1.008	846731	REC_END	n/a	n/a	4	-999	n/a	n/a	n/a	n/a	5	[0, 0, 0]	-999	PAL1	0	R1089P
656.69	10.452	847235	ENCODING_START	n/a	n/a	0	-999	n/a	n/a	n/a	n/a	6	[0, 0, 0]	-999	PAL1	0	R1089P
667.142	0.784	852460	STUDY_ORIENT	n/a	n/a	1	3	BAND	n/a	PRINCE	BAND	6	[0, 0, 0]	-999	PAL1	0	R1089P
667.926	5.018	852852	STUDY_PAIR	n/a	wordpools/wordpool_EN.txt	1	3	BAND	n/a	PRINCE	BAND	6	[0, 0, 0]	-999	PAL1	0	R1089P
672.944	1.0	855361	STUDY_ORIENT	n/a	n/a	2	4	EEL	n/a	FUR	EEL	6	[0, 0, 0]	-999	PAL1	0	R1089P
673.944	5.017	855861	STUDY_PAIR	n/a	wordpools/wordpool_EN.txt	2	4	EEL	n/a	FUR	EEL	6	[0, 0, 0]	-999	PAL1	0	R1089P
678.961	0.868	858370	STUDY_ORIENT	n/a	n/a	3	5	CROWN	n/a	CROWN	TAIL	6	[0, 0, 0]	-999	PAL1	0	R1089P
679.829	5.034	858803	STUDY_PAIR	n/a	wordpools/wordpool_EN.txt	3	5	CROWN	n/a	CROWN	TAIL	6	[0, 0, 0]	-999	PAL1	0	R1089P
684.863	1.0	861320	STUDY_ORIENT	n/a	n/a	4	6	BRANCH	TREE	BRANCH	BROOM	6	[0, 0, 0]	-999	PAL1	0	R1089P
685.863	5.018	861820	STUDY_PAIR	n/a	wordpools/wordpool_EN.txt	4	6	BRANCH	TREE	BRANCH	BROOM	6	[0, 0, 0]	-999	PAL1	0	R1089P
690.881	0.9	864329	STUDY_ORIENT	n/a	n/a	5	1	TANK	n/a	TANK	WOOD	6	[0, 0, 0]	-999	PAL1	0	R1089P
691.781	5.034	864779	STUDY_PAIR	n/a	wordpools/wordpool_EN.txt	5	1	TANK	n/a	TANK	WOOD	6	[0, 0, 0]	-999	PAL1	0	R1089P
696.815	0.866	867296	STUDY_ORIENT	n/a	n/a	6	2	STOOL	n/a	EAR	STOOL	6	[0, 0, 0]	-999	PAL1	0	R1089P
697.681	4.002	867729	STUDY_PAIR	n/a	wordpools/wordpool_EN.txt	6	2	STOOL	n/a	EAR	STOOL	6	[0, 0, 0]	-999	PAL1	0	R1089P
701.683	0.999	869730	START	n/a	n/a	-999	-999	n/a	n/a	n/a	n/a	6	[-999, -999, -999]	-999	PAL1	0	R1089P
702.682	0.017	870229	MATH_START	n/a	n/a	-999	-999	n/a	n/a	n/a	n/a	6	[0, 0, 0]	-999	PAL1	0	R1089P
702.699	3.884	870238	PROB	3863	n/a	-999	-999	n/a	n/a	n/a	n/a	6	[6, 1, 3]	10	PAL1	0	R1089P
706.583	2.534	872180	PROB	2515	n/a	-999	-999	n/a	n/a	n/a	n/a	6	[5, 1, 3]	9	PAL1	0	R1089P
709.117	2.601	873447	PROB	2565	n/a	-999	-999	n/a	n/a	n/a	n/a	6	[3, 1, 1]	5	PAL1	0	R1089P
711.718	2.633	874747	PROB	2604	n/a	-999	-999	n/a	n/a	n/a	n/a	6	[6, 6, 9]	21	PAL1	0	R1089P
714.351	4.951	876064	PROB	4923	n/a	-999	-999	n/a	n/a	n/a	n/a	6	[4, 8, 6]	18	PAL1	0	R1089P
719.302	2.66	878539	PROB	2660	n/a	-999	-999	n/a	n/a	n/a	n/a	6	[7, 9, 1]	17	PAL1	0	R1089P
721.962	0.007	879869	STOP	n/a	n/a	-999	-999	n/a	n/a	n/a	n/a	6	[-999, -999, -999]	-999	PAL1	0	R1089P
721.969	0.0	879872	MATH_END	n/a	n/a	-999	-999	n/a	n/a	n/a	n/a	6	[0, 0, 0]	-999	PAL1	0	R1089P
721.969	0.017	879872	TEST_START	n/a	n/a	-999	-999	n/a	n/a	n/a	n/a	6	[0, 0, 0]	-999	PAL1	0	R1089P
721.986	0.967	879881	TEST_ORIENT	n/a	n/a	5	1	TANK	n/a	TANK	WOOD	6	[0, 0, 0]	-999	PAL1	0	R1089P
722.953	0.0	880364	TEST_PROBE	n/a	wordpools/wordpool_EN.txt	5	1	TANK	n/a	TANK	WOOD	6	[0, 0, 0]	-999	PAL1	0	R1089P
722.953	5.015	880364	REC_START	n/a	n/a	5	-999	n/a	n/a	n/a	n/a	6	[0, 0, 0]	-999	PAL1	0	R1089P
727.968	0.002	882872	REC_EVENT	5015	n/a	5	1	TANK	<>	TANK	WOOD	6	[0, 0, 0]	-999	PAL1	0	R1089P
727.97	0.017	882873	REC_END	n/a	n/a	5	-999	n/a	n/a	n/a	n/a	6	[0, 0, 0]	-999	PAL1	0	R1089P
727.987	0.801	882881	TEST_ORIENT	n/a	n/a	6	2	STOOL	n/a	EAR	STOOL	6	[0, 0, 0]	-999	PAL1	0	R1089P
728.788	0.001	883282	TEST_PROBE	n/a	wordpools/wordpool_EN.txt	6	2	STOOL	n/a	EAR	STOOL	6	[0, 0, 0]	-999	PAL1	0	R1089P
728.789	4.998	883282	REC_START	n/a	n/a	6	-999	n/a	n/a	n/a	n/a	6	[0, 0, 0]	-999	PAL1	0	R1089P
733.787	0.002	885781	REC_EVENT	4998	n/a	6	2	STOOL	<>	EAR	STOOL	6	[0, 0, 0]	-999	PAL1	0	R1089P
733.789	0.017	885782	REC_END	n/a	n/a	6	-999	n/a	n/a	n/a	n/a	6	[0, 0, 0]	-999	PAL1	0	R1089P
733.806	0.967	885791	TEST_ORIENT	n/a	n/a	1	3	BAND	n/a	PRINCE	BAND	6	[0, 0, 0]	-999	PAL1	0	R1089P
734.773	0.0	886274	REC_START	n/a	n/a	1	-999	n/a	n/a	n/a	n/a	6	[0, 0, 0]	-999	PAL1	0	R1089P
734.773	5.015	886274	TEST_PROBE	n/a	wordpools/wordpool_EN.txt	1	3	BAND	n/a	PRINCE	BAND	6	[0, 0, 0]	-999	PAL1	0	R1089P
739.788	0.002	888781	REC_EVENT	5015	n/a	1	3	BAND	<>	PRINCE	BAND	6	[0, 0, 0]	-999	PAL1	0	R1089P
739.79	0.017	888782	REC_END	n/a	n/a	1	-999	n/a	n/a	n/a	n/a	6	[0, 0, 0]	-999	PAL1	0	R1089P
739.807	0.95	888791	TEST_ORIENT	n/a	n/a	2	4	EEL	n/a	FUR	EEL	6	[0, 0, 0]	-999	PAL1	0	R1089P
740.757	0.001	889266	TEST_PROBE	n/a	wordpools/wordpool_EN.txt	2	4	EEL	n/a	FUR	EEL	6	[0, 0, 0]	-999	PAL1	0	R1089P
740.758	5.003	889266	REC_START	n/a	n/a	2	-999	n/a	n/a	n/a	n/a	6	[0, 0, 0]	-999	PAL1	0	R1089P
745.761	0.006	891768	REC_EVENT	5003	n/a	2	4	EEL	<>	FUR	EEL	6	[0, 0, 0]	-999	PAL1	0	R1089P
745.767	0.008	891771	REC_END	n/a	n/a	2	-999	n/a	n/a	n/a	n/a	6	[0, 0, 0]	-999	PAL1	0	R1089P
745.775	0.95	891775	TEST_ORIENT	n/a	n/a	3	5	CROWN	n/a	CROWN	TAIL	6	[0, 0, 0]	-999	PAL1	0	R1089P
746.725	0.0	892250	REC_START	n/a	n/a	3	-999	n/a	n/a	n/a	n/a	6	[0, 0, 0]	-999	PAL1	0	R1089P
746.725	4.525	892250	TEST_PROBE	n/a	wordpools/wordpool_EN.txt	3	5	CROWN	n/a	CROWN	TAIL	6	[0, 0, 0]	-999	PAL1	0	R1089P
751.25	0.492	894512	REC_EVENT	4525	n/a	3	5	CROWN	<>	CROWN	TAIL	6	[0, 0, 0]	-999	PAL1	0	R1089P
751.742	0.017	894758	REC_END	n/a	n/a	3	-999	n/a	n/a	n/a	n/a	6	[0, 0, 0]	-999	PAL1	0	R1089P
751.759	0.916	894767	TEST_ORIENT	n/a	n/a	4	6	BRANCH	TREE	BRANCH	BROOM	6	[0, 0, 0]	-999	PAL1	0	R1089P
752.675	0.001	895225	TEST_PROBE	n/a	wordpools/wordpool_EN.txt	4	6	BRANCH	TREE	BRANCH	BROOM	6	[0, 0, 0]	-999	PAL1	0	R1089P
752.676	1.924	895225	REC_START	n/a	n/a	4	-999	n/a	TREE	n/a	n/a	6	[0, 0, 0]	-999	PAL1	0	R1089P
754.6	0.915	896187	REC_EVENT	1924	n/a	4	6	BRANCH	<>	BRANCH	BROOM	6	[0, 0, 0]	-999	PAL1	0	R1089P
755.515	1.393	896645	REC_EVENT	2839	n/a	4	6	BRANCH	WRENCH	BRANCH	BROOM	6	[0, 0, 0]	-999	PAL1	0	R1089P
756.908	0.793	897341	REC_EVENT	4232	n/a	4	6	BRANCH	TREE	BRANCH	BROOM	6	[0, 0, 0]	-999	PAL1	0	R1089P
757.701	2.533	897738	REC_END	n/a	n/a	4	-999	n/a	n/a	n/a	n/a	6	[0, 0, 0]	-999	PAL1	0	R1089P
760.234	10.445	899004	ENCODING_START	n/a	n/a	0	-999	n/a	n/a	n/a	n/a	7	[0, 0, 0]	-999	PAL1	0	R1089P
770.679	1.016	904226	STUDY_ORIENT	n/a	n/a	1	5	LAMP	WHALE	WHALE	LAMP	7	[0, 0, 0]	-999	PAL1	0	R1089P
771.695	5.019	904734	STUDY_PAIR	n/a	wordpools/wordpool_EN.txt	1	5	LAMP	WHALE	WHALE	LAMP	7	[0, 0, 0]	-999	PAL1	0	R1089P
776.714	1.0	907244	STUDY_ORIENT	n/a	n/a	2	2	BARN	WAND	BARN	WAND	7	[0, 0, 0]	-999	PAL1	0	R1089P
777.714	5.018	907743	STUDY_PAIR	n/a	wordpools/wordpool_EN.txt	2	2	BARN	WAND	BARN	WAND	7	[0, 0, 0]	-999	PAL1	0	R1089P
782.732	0.966	910252	STUDY_ORIENT	n/a	n/a	3	3	POOL	SWAMP	POOL	SWAMP	7	[0, 0, 0]	-999	PAL1	0	R1089P
783.698	5.035	910735	STUDY_PAIR	n/a	wordpools/wordpool_EN.txt	3	3	POOL	SWAMP	POOL	SWAMP	7	[0, 0, 0]	-999	PAL1	0	R1089P
788.733	1.0	913253	STUDY_ORIENT	n/a	n/a	4	4	CHAIR	BARN	SHARK	CHAIR	7	[0, 0, 0]	-999	PAL1	0	R1089P
789.733	5.018	913753	STUDY_PAIR	n/a	wordpools/wordpool_EN.txt	4	4	CHAIR	BARN	SHARK	CHAIR	7	[0, 0, 0]	-999	PAL1	0	R1089P
794.751	0.916	916262	STUDY_ORIENT	n/a	n/a	5	1	POND	n/a	CASH	POND	7	[0, 0, 0]	-999	PAL1	0	R1089P
795.667	5.034	916720	STUDY_PAIR	n/a	wordpools/wordpool_EN.txt	5	1	POND	n/a	CASH	POND	7	[0, 0, 0]	-999	PAL1	0	R1089P
800.701	0.917	919236	STUDY_ORIENT	n/a	n/a	6	6	FOX	DOG	FOX	FOG	7	[0, 0, 0]	-999	PAL1	0	R1089P
801.618	4.018	919695	STUDY_PAIR	n/a	wordpools/wordpool_EN.txt	6	6	FOX	DOG	FOX	FOG	7	[0, 0, 0]	-999	PAL1	0	R1089P
805.636	0.999	921704	START	n/a	n/a	-999	-999	n/a	n/a	n/a	n/a	7	[-999, -999, -999]	-999	PAL1	0	R1089P
806.635	0.017	922203	MATH_START	n/a	n/a	-999	-999	n/a	n/a	n/a	n/a	7	[0, 0, 0]	-999	PAL1	0	R1089P
806.652	7.952	922212	PROB	7918	n/a	-999	-999	n/a	n/a	n/a	n/a	7	[9, 2, 3]	14	PAL1	0	R1089P
814.604	3.65	926188	PROB	3622	n/a	-999	-999	n/a	n/a	n/a	n/a	7	[7, 3, 8]	18	PAL1	0	R1089P
818.254	2.434	928012	PROB	2412	n/a	-999	-999	n/a	n/a	n/a	n/a	7	[7, 8, 6]	21	PAL1	0	R1089P
820.688	3.334	929229	PROB	3298	n/a	-999	-999	n/a	n/a	n/a	n/a	7	[8, 5, 7]	20	PAL1	0	R1089P
824.022	3.068	930896	PROB	3068	n/a	-999	-999	n/a	n/a	n/a	n/a	7	[8, 7, 4]	19	PAL1	0	R1089P
827.09	0.016	932430	STOP	n/a	n/a	-999	-999	n/a	n/a	n/a	n/a	7	[-999, -999, -999]	-999	PAL1	0	R1089P
827.106	0.0	932438	MATH_END	n/a	n/a	-999	-999	n/a	n/a	n/a	n/a	7	[0, 0, 0]	-999	PAL1	0	R1089P
827.106	0.017	932438	TEST_START	n/a	n/a	-999	-999	n/a	n/a	n/a	n/a	7	[0, 0, 0]	-999	PAL1	0	R1089P
827.123	1.033	932447	TEST_ORIENT	n/a	n/a	5	1	POND	n/a	CASH	POND	7	[0, 0, 0]	-999	PAL1	0	R1089P
828.156	0.001	932963	TEST_PROBE	n/a	wordpools/wordpool_EN.txt	5	1	POND	n/a	CASH	POND	7	[0, 0, 0]	-999	PAL1	0	R1089P
828.157	5.003	932964	REC_START	n/a	n/a	5	-999	n/a	n/a	n/a	n/a	7	[0, 0, 0]	-999	PAL1	0	R1089P
833.16	0.006	935465	REC_EVENT	5003	n/a	5	1	POND	<>	CASH	POND	7	[0, 0, 0]	-999	PAL1	0	R1089P
833.166	0.008	935468	REC_END	n/a	n/a	5	-999	n/a	n/a	n/a	n/a	7	[0, 0, 0]	-999	PAL1	0	R1089P
833.174	1.033	935472	TEST_ORIENT	n/a	n/a	2	2	BARN	WAND	BARN	WAND	7	[0, 0, 0]	-999	PAL1	0	R1089P
834.207	0.001	935989	TEST_PROBE	n/a	wordpools/wordpool_EN.txt	2	2	BARN	WAND	BARN	WAND	7	[0, 0, 0]	-999	PAL1	0	R1089P
834.208	3.698	935989	REC_START	n/a	n/a	2	-999	n/a	WAND	n/a	n/a	7	[0, 0, 0]	-999	PAL1	0	R1089P
837.906	1.311	937838	REC_EVENT	3698	n/a	2	2	BARN	WAND	BARN	WAND	7	[0, 0, 0]	-999	PAL1	0	R1089P
839.217	0.008	938493	REC_END	n/a	n/a	2	-999	n/a	n/a	n/a	n/a	7	[0, 0, 0]	-999	PAL1	0	R1089P
839.225	0.9	938497	TEST_ORIENT	n/a	n/a	3	3	POOL	SWAMP	POOL	SWAMP	7	[0, 0, 0]	-999	PAL1	0	R1089P
840.125	0.001	938947	TEST_PROBE	n/a	wordpools/wordpool_EN.txt	3	3	POOL	SWAMP	POOL	SWAMP	7	[0, 0, 0]	-999	PAL1	0	R1089P
840.126	1.891	938948	REC_START	n/a	n/a	3	-999	n/a	SWAMP	n/a	n/a	7	[0, 0, 0]	-999	PAL1	0	R1089P
842.017	1.0	939893	REC_EVENT	1891	n/a	3	3	POOL	SWAMP	POOL	SWAMP	7	[0, 0, 0]	-999	PAL1	0	R1089P
843.017	2.118	940393	REC_EVENT	2891	n/a	3	3	POOL	<>	POOL	SWAMP	7	[0, 0, 0]	-999	PAL1	0	R1089P
845.135	0.008	941452	REC_END	n/a	n/a	3	-999	n/a	n/a	n/a	n/a	7	[0, 0, 0]	-999	PAL1	0	R1089P
845.143	0.95	941456	TEST_ORIENT	n/a	n/a	4	4	CHAIR	BARN	SHARK	CHAIR	7	[0, 0, 0]	-999	PAL1	0	R1089P
846.093	0.0	941931	REC_START	n/a	n/a	4	-999	n/a	BARN	n/a	n/a	7	[0, 0, 0]	-999	PAL1	0	R1089P
846.093	3.403	941931	TEST_PROBE	n/a	wordpools/wordpool_EN.txt	4	4	CHAIR	BARN	SHARK	CHAIR	7	[0, 0, 0]	-999	PAL1	0	R1089P
849.496	1.614	943633	REC_EVENT	3403	n/a	4	4	CHAIR	BARN	SHARK	CHAIR	7	[0, 0, 0]	-999	PAL1	0	R1089P
851.11	0.017	944440	REC_END	n/a	n/a	4	-999	n/a	n/a	n/a	n/a	7	[0, 0, 0]	-999	PAL1	0	R1089P
851.127	0.967	944448	TEST_ORIENT	n/a	n/a	1	5	LAMP	WHALE	WHALE	LAMP	7	[0, 0, 0]	-999	PAL1	0	R1089P
852.094	0.001	944932	TEST_PROBE	n/a	wordpools/wordpool_EN.txt	1	5	LAMP	WHALE	WHALE	LAMP	7	[0, 0, 0]	-999	PAL1	0	R1089P
852.095	1.951	944932	REC_START	n/a	n/a	1	-999	n/a	WHALE	n/a	n/a	7	[0, 0, 0]	-999	PAL1	0	R1089P
854.046	3.058	945908	REC_EVENT	1951	n/a	1	5	LAMP	WHALE	WHALE	LAMP	7	[0, 0, 0]	-999	PAL1	0	R1089P
857.104	0.008	947436	REC_END	n/a	n/a	1	-999	n/a	n/a	n/a	n/a	7	[0, 0, 0]	-999	PAL1	0	R1089P
857.112	1.017	947440	TEST_ORIENT	n/a	n/a	6	6	FOX	DOG	FOX	FOG	7	[0, 0, 0]	-999	PAL1	0	R1089P
858.129	0.0	947949	REC_START	n/a	n/a	6	-999	n/a	DOG	n/a	n/a	7	[0, 0, 0]	-999	PAL1	0	R1089P
858.129	1.517	947949	TEST_PROBE	n/a	wordpools/wordpool_EN.txt	6	6	FOX	DOG	FOX	FOG	7	[0, 0, 0]	-999	PAL1	0	R1089P
859.646	3.5	948707	REC_EVENT	1517	n/a	6	6	FOX	DOG	FOX	FOG	7	[0, 0, 0]	-999	PAL1	0	R1089P
863.146	1.32	950457	REC_END	n/a	n/a	6	-999	n/a	n/a	n/a	n/a	7	[0, 0, 0]	-999	PAL1	0	R1089P
864.466	10.451	951117	ENCODING_START	n/a	n/a	0	-999	n/a	n/a	n/a	n/a	8	[0, 0, 0]	-999	PAL1	0	R1089P
874.917	0.916	956343	STUDY_ORIENT	n/a	n/a	1	5	ROAD	n/a	HORSE	ROAD	8	[0, 0, 0]	-999	PAL1	0	R1089P
875.833	5.018	956800	STUDY_PAIR	n/a	wordpools/wordpool_EN.txt	1	5	ROAD	n/a	HORSE	ROAD	8	[0, 0, 0]	-999	PAL1	0	R1089P
880.851	0.9	959309	STUDY_ORIENT	n/a	n/a	2	4	CALF	n/a	PHONE	CALF	8	[0, 0, 0]	-999	PAL1	0	R1089P
881.751	5.034	959759	STUDY_PAIR	n/a	wordpools/wordpool_EN.txt	2	4	CALF	n/a	PHONE	CALF	8	[0, 0, 0]	-999	PAL1	0	R1089P
886.785	0.866	962276	STUDY_ORIENT	n/a	n/a	3	3	STICK	n/a	BEACH	STICK	8	[0, 0, 0]	-999	PAL1	0	R1089P
887.651	5.034	962709	STUDY_PAIR	n/a	wordpools/wordpool_EN.txt	3	3	STICK	n/a	BEACH	STICK	8	[0, 0, 0]	-999	PAL1	0	R1089P
892.685	1.001	965226	STUDY_ORIENT	n/a	n/a	4	6	RIB	n/a	RIB	GOLD	8	[0, 0, 0]	-999	PAL1	0	R1089P
893.686	5.035	965727	STUDY_PAIR	n/a	wordpools/wordpool_EN.txt	4	6	RIB	n/a	RIB	GOLD	8	[0, 0, 0]	-999	PAL1	0	R1089P
898.721	0.932	968244	STUDY_ORIENT	n/a	n/a	5	1	BRUSH	WALL	HOOK	BRUSH	8	[0, 0, 0]	-999	PAL1	0	R1089P
899.653	5.018	968710	STUDY_PAIR	n/a	wordpools/wordpool_EN.txt	5	1	BRUSH	WALL	HOOK	BRUSH	8	[0, 0, 0]	-999	PAL1	0	R1089P
904.671	1.0	971219	STUDY_ORIENT	n/a	n/a	6	2	SLUSH	n/a	SLUSH	WALL	8	[0, 0, 0]	-999	PAL1	0	R1089P
905.671	4.001	971719	STUDY_PAIR	n/a	wordpools/wordpool_EN.txt	6	2	SLUSH	n/a	SLUSH	WALL	8	[0, 0, 0]	-999	PAL1	0	R1089P
909.672	1.0	973719	START	n/a	n/a	-999	-999	n/a	n/a	n/a	n/a	8	[-999, -999, -999]	-999	PAL1	0	R1089P
910.672	0.017	974219	MATH_START	n/a	n/a	-999	-999	n/a	n/a	n/a	n/a	8	[0, 0, 0]	-999	PAL1	0	R1089P
910.689	3.784	974228	PROB	3761	n/a	-999	-999	n/a	n/a	n/a	n/a	8	[7, 4, 9]	20	PAL1	0	R1089P
914.473	2.75	976120	PROB	2729	n/a	-999	-999	n/a	n/a	n/a	n/a	8	[4, 4, 2]	10	PAL1	0	R1089P
917.223	1.917	977494	PROB	1891	n/a	-999	-999	n/a	n/a	n/a	n/a	8	[2, 2, 2]	6	PAL1	0	R1089P
919.14	3.134	978453	PROB	3110	n/a	-999	-999	n/a	n/a	n/a	n/a	8	[9, 7, 2]	18	PAL1	0	R1089P
922.274	2.718	980020	PROB	2688	n/a	-999	-999	n/a	n/a	n/a	n/a	8	[2, 4, 2]	8	PAL1	0	R1089P
924.992	2.133	981379	PROB	2114	n/a	-999	-999	n/a	n/a	n/a	n/a	8	[2, 7, 3]	12	PAL1	0	R1089P
927.125	2.051	982445	PROB	2029	n/a	-999	-999	n/a	n/a	n/a	n/a	8	[4, 5, 5]	14	PAL1	0	R1089P
929.176	2.41	983471	PROB	2410	n/a	-999	-999	n/a	n/a	n/a	n/a	8	[9, 9, 9]	27	PAL1	0	R1089P
931.586	0.007	984676	STOP	n/a	n/a	-999	-999	n/a	n/a	n/a	n/a	8	[-999, -999, -999]	-999	PAL1	0	R1089P
931.593	0.0	984679	TEST_START	n/a	n/a	-999	-999	n/a	n/a	n/a	n/a	8	[0, 0, 0]	-999	PAL1	0	R1089P
931.593	0.017	984679	MATH_END	n/a	n/a	-999	-999	n/a	n/a	n/a	n/a	8	[0, 0, 0]	-999	PAL1	0	R1089P
931.61	0.85	984688	TEST_ORIENT	n/a	n/a	5	1	BRUSH	WALL	HOOK	BRUSH	8	[0, 0, 0]	-999	PAL1	0	R1089P
932.46	0.0	985113	TEST_PROBE	n/a	wordpools/wordpool_EN.txt	5	1	BRUSH	WALL	HOOK	BRUSH	8	[0, 0, 0]	-999	PAL1	0	R1089P
932.46	3.739	985113	REC_START	n/a	n/a	5	-999	n/a	WALL	n/a	n/a	8	[0, 0, 0]	-999	PAL1	0	R1089P
936.199	1.278	986982	REC_EVENT	3739	n/a	5	1	BRUSH	WALL	HOOK	BRUSH	8	[0, 0, 0]	-999	PAL1	0	R1089P
937.477	0.017	987621	REC_END	n/a	n/a	5	-999	n/a	n/a	n/a	n/a	8	[0, 0, 0]	-999	PAL1	0	R1089P
937.494	0.85	987629	TEST_ORIENT	n/a	n/a	6	2	SLUSH	n/a	SLUSH	WALL	8	[0, 0, 0]	-999	PAL1	0	R1089P
938.344	0.001	988054	TEST_PROBE	n/a	wordpools/wordpool_EN.txt	6	2	SLUSH	n/a	SLUSH	WALL	8	[0, 0, 0]	-999	PAL1	0	R1089P
938.345	5.008	988055	REC_START	n/a	n/a	6	-999	n/a	n/a	n/a	n/a	8	[0, 0, 0]	-999	PAL1	0	R1089P
943.353	0.001	990559	REC_END	n/a	n/a	6	-999	n/a	n/a	n/a	n/a	8	[0, 0, 0]	-999	PAL1	0	R1089P
943.354	0.008	990559	REC_EVENT	5009	n/a	6	2	SLUSH	<>	SLUSH	WALL	8	[0, 0, 0]	-999	PAL1	0	R1089P
943.362	0.883	990563	TEST_ORIENT	n/a	n/a	3	3	STICK	n/a	BEACH	STICK	8	[0, 0, 0]	-999	PAL1	0	R1089P
944.245	0.001	991005	TEST_PROBE	n/a	wordpools/wordpool_EN.txt	3	3	STICK	n/a	BEACH	STICK	8	[0, 0, 0]	-999	PAL1	0	R1089P
944.246	5.008	991005	REC_START	n/a	n/a	3	-999	n/a	n/a	n/a	n/a	8	[0, 0, 0]	-999	PAL1	0	R1089P
949.254	0.001	993509	REC_END	n/a	n/a	3	-999	n/a	n/a	n/a	n/a	8	[0, 0, 0]	-999	PAL1	0	R1089P
949.255	0.008	993510	REC_EVENT	5009	n/a	3	3	STICK	<>	BEACH	STICK	8	[0, 0, 0]	-999	PAL1	0	R1089P
949.263	0.933	993514	TEST_ORIENT	n/a	n/a	2	4	CALF	n/a	PHONE	CALF	8	[0, 0, 0]	-999	PAL1	0	R1089P
950.196	0.001	993980	TEST_PROBE	n/a	wordpools/wordpool_EN.txt	2	4	CALF	n/a	PHONE	CALF	8	[0, 0, 0]	-999	PAL1	0	R1089P
950.197	5.008	993981	REC_START	n/a	n/a	2	-999	n/a	n/a	n/a	n/a	8	[0, 0, 0]	-999	PAL1	0	R1089P
955.205	0.001	996484	REC_END	n/a	n/a	2	-999	n/a	n/a	n/a	n/a	8	[0, 0, 0]	-999	PAL1	0	R1089P
955.206	0.008	996485	REC_EVENT	5009	n/a	2	4	CALF	<>	PHONE	CALF	8	[0, 0, 0]	-999	PAL1	0	R1089P
955.214	0.984	996489	TEST_ORIENT	n/a	n/a	1	5	ROAD	n/a	HORSE	ROAD	8	[0, 0, 0]	-999	PAL1	0	R1089P
956.198	0.0	996981	TEST_PROBE	n/a	wordpools/wordpool_EN.txt	1	5	ROAD	n/a	HORSE	ROAD	8	[0, 0, 0]	-999	PAL1	0	R1089P
956.198	5.015	996981	REC_START	n/a	n/a	1	-999	n/a	n/a	n/a	n/a	8	[0, 0, 0]	-999	PAL1	0	R1089P
961.213	0.002	999488	REC_EVENT	5015	n/a	1	5	ROAD	<>	HORSE	ROAD	8	[0, 0, 0]	-999	PAL1	0	R1089P
961.215	0.017	999489	REC_END	n/a	n/a	1	-999	n/a	n/a	n/a	n/a	8	[0, 0, 0]	-999	PAL1	0	R1089P
961.232	0.95	999498	TEST_ORIENT	n/a	n/a	4	6	RIB	n/a	RIB	GOLD	8	[0, 0, 0]	-999	PAL1	0	R1089P
962.182	0.001	999973	TEST_PROBE	n/a	wordpools/wordpool_EN.txt	4	6	RIB	n/a	RIB	GOLD	8	[0, 0, 0]	-999	PAL1	0	R1089P
962.183	5.015	999973	REC_START	n/a	n/a	4	-999	n/a	n/a	n/a	n/a	8	[0, 0, 0]	-999	PAL1	0	R1089P
967.198	0.001	1002481	REC_EVENT	5015	n/a	4	6	RIB	<>	RIB	GOLD	8	[0, 0, 0]	-999	PAL1	0	R1089P
967.199	1.235	1002481	REC_END	n/a	n/a	4	-999	n/a	n/a	n/a	n/a	8	[0, 0, 0]	-999	PAL1	0	R1089P
968.434	10.452	1003099	ENCODING_START	n/a	n/a	0	-999	n/a	n/a	n/a	n/a	9	[0, 0, 0]	-999	PAL1	0	R1089P
978.886	0.884	1008324	STUDY_ORIENT	n/a	n/a	1	1	VASE	GRASS	VASE	GRASS	9	[0, 0, 0]	-999	PAL1	0	R1089P
979.77	5.034	1008766	STUDY_PAIR	n/a	wordpools/wordpool_EN.txt	1	1	VASE	GRASS	VASE	GRASS	9	[0, 0, 0]	-999	PAL1	0	R1089P
984.804	0.917	1011283	STUDY_ORIENT	n/a	n/a	2	4	STEM	n/a	FOOT	STEM	9	[0, 0, 0]	-999	PAL1	0	R1089P
985.721	5.034	1011742	STUDY_PAIR	n/a	wordpools/wordpool_EN.txt	2	4	STEM	n/a	FOOT	STEM	9	[0, 0, 0]	-999	PAL1	0	R1089P
990.755	0.816	1014259	STUDY_ORIENT	n/a	n/a	3	3	NET	n/a	NET	DART	9	[0, 0, 0]	-999	PAL1	0	R1089P
991.571	5.034	1014667	STUDY_PAIR	n/a	wordpools/wordpool_EN.txt	3	3	NET	n/a	NET	DART	9	[0, 0, 0]	-999	PAL1	0	R1089P
996.605	0.967	1017183	STUDY_ORIENT	n/a	n/a	4	2	MILK	n/a	MILK	ARK	9	[0, 0, 0]	-999	PAL1	0	R1089P
997.572	5.018	1017667	STUDY_PAIR	n/a	wordpools/wordpool_EN.txt	4	2	MILK	n/a	MILK	ARK	9	[0, 0, 0]	-999	PAL1	0	R1089P
1002.59	0.817	1020176	STUDY_ORIENT	n/a	n/a	5	5	FUDGE	FORT	FORT	FUDGE	9	[0, 0, 0]	-999	PAL1	0	R1089P
1003.407	5.034	1020584	STUDY_PAIR	n/a	wordpools/wordpool_EN.txt	5	5	FUDGE	FORT	FORT	FUDGE	9	[0, 0, 0]	-999	PAL1	0	R1089P
1008.441	0.8	1023101	STUDY_ORIENT	n/a	n/a	6	6	BOY	n/a	OWL	BOY	9	[0, 0, 0]	-999	PAL1	0	R1089P
1009.241	4.018	1023501	STUDY_PAIR	n/a	wordpools/wordpool_EN.txt	6	6	BOY	n/a	OWL	BOY	9	[0, 0, 0]	-999	PAL1	0	R1089P
1013.259	0.999	1025510	START	n/a	n/a	-999	-999	n/a	n/a	n/a	n/a	9	[-999, -999, -999]	-999	PAL1	0	R1089P
1014.258	0.017	1026009	MATH_START	n/a	n/a	-999	-999	n/a	n/a	n/a	n/a	9	[0, 0, 0]	-999	PAL1	0	R1089P
1014.275	5.201	1026018	PROB	5167	n/a	-999	-999	n/a	n/a	n/a	n/a	9	[5, 6, 1]	12	PAL1	0	R1089P
1019.476	2.751	1028618	PROB	2718	n/a	-999	-999	n/a	n/a	n/a	n/a	9	[5, 3, 9]	17	PAL1	0	R1089P
1022.227	2.851	1029994	PROB	2815	n/a	-999	-999	n/a	n/a	n/a	n/a	9	[9, 9, 5]	23	PAL1	0	R1089P
1025.078	2.967	1031419	PROB	2948	n/a	-999	-999	n/a	n/a	n/a	n/a	9	[6, 3, 4]	13	PAL1	0	R1089P
1028.045	2.835	1032903	PROB	2806	n/a	-999	-999	n/a	n/a	n/a	n/a	9	[9, 5, 5]	19	PAL1	0	R1089P
1030.88	2.249	1034320	PROB	2226	n/a	-999	-999	n/a	n/a	n/a	n/a	9	[9, 7, 7]	23	PAL1	0	R1089P
1033.129	2.313	1035444	PROB	2313	n/a	-999	-999	n/a	n/a	n/a	n/a	9	[9, 9, 9]	27	PAL1	0	R1089P
1035.442	0.004	1036601	STOP	n/a	n/a	-999	-999	n/a	n/a	n/a	n/a	9	[-999, -999, -999]	-999	PAL1	0	R1089P
1035.446	0.0	1036603	MATH_END	n/a	n/a	-999	-999	n/a	n/a	n/a	n/a	9	[0, 0, 0]	-999	PAL1	0	R1089P
1035.446	0.017	1036603	TEST_START	n/a	n/a	-999	-999	n/a	n/a	n/a	n/a	9	[0, 0, 0]	-999	PAL1	0	R1089P
1035.463	0.967	1036611	TEST_ORIENT	n/a	n/a	1	1	VASE	GRASS	VASE	GRASS	9	[0, 0, 0]	-999	PAL1	0	R1089P
1036.43	0.0	1037095	TEST_PROBE	n/a	wordpools/wordpool_EN.txt	1	1	VASE	GRASS	VASE	GRASS	9	[0, 0, 0]	-999	PAL1	0	R1089P
1036.43	2.301	1037095	REC_START	n/a	n/a	1	-999	n/a	GRASS	n/a	n/a	9	[0, 0, 0]	-999	PAL1	0	R1089P
1038.731	2.716	1038245	REC_EVENT	2301	n/a	1	1	VASE	GRASS	VASE	GRASS	9	[0, 0, 0]	-999	PAL1	0	R1089P
1041.447	0.017	1039603	REC_END	n/a	n/a	1	-999	n/a	n/a	n/a	n/a	9	[0, 0, 0]	-999	PAL1	0	R1089P
1041.464	0.967	1039612	TEST_ORIENT	n/a	n/a	4	2	MILK	n/a	MILK	ARK	9	[0, 0, 0]	-999	PAL1	0	R1089P
1042.431	0.0	1040095	REC_START	n/a	n/a	4	-999	n/a	n/a	n/a	n/a	9	[0, 0, 0]	-999	PAL1	0	R1089P
1042.431	5.015	1040095	TEST_PROBE	n/a	wordpools/wordpool_EN.txt	4	2	MILK	n/a	MILK	ARK	9	[0, 0, 0]	-999	PAL1	0	R1089P
1047.446	0.002	1042603	REC_EVENT	5015	n/a	4	2	MILK	<>	MILK	ARK	9	[0, 0, 0]	-999	PAL1	0	R1089P
1047.448	0.017	1042604	REC_END	n/a	n/a	4	-999	n/a	n/a	n/a	n/a	9	[0, 0, 0]	-999	PAL1	0	R1089P
1047.465	0.834	1042612	TEST_ORIENT	n/a	n/a	3	3	NET	n/a	NET	DART	9	[0, 0, 0]	-999	PAL1	0	R1089P
1048.299	0.0	1043029	TEST_PROBE	n/a	wordpools/wordpool_EN.txt	3	3	NET	n/a	NET	DART	9	[0, 0, 0]	-999	PAL1	0	R1089P
1048.299	5.015	1043029	REC_START	n/a	n/a	3	-999	n/a	n/a	n/a	n/a	9	[0, 0, 0]	-999	PAL1	0	R1089P
1053.314	0.002	1045536	REC_EVENT	5015	n/a	3	3	NET	<>	NET	DART	9	[0, 0, 0]	-999	PAL1	0	R1089P
1053.316	0.017	1045537	REC_END	n/a	n/a	3	-999	n/a	n/a	n/a	n/a	9	[0, 0, 0]	-999	PAL1	0	R1089P
1053.333	0.933	1045546	TEST_ORIENT	n/a	n/a	2	4	STEM	n/a	FOOT	STEM	9	[0, 0, 0]	-999	PAL1	0	R1089P
1054.266	0.0	1046012	TEST_PROBE	n/a	wordpools/wordpool_EN.txt	2	4	STEM	n/a	FOOT	STEM	9	[0, 0, 0]	-999	PAL1	0	R1089P
1054.266	3.359	1046012	REC_START	n/a	n/a	2	-999	n/a	n/a	n/a	n/a	9	[0, 0, 0]	-999	PAL1	0	R1089P
1057.625	1.659	1047692	REC_EVENT	3359	n/a	2	4	STEM	<>	FOOT	STEM	9	[0, 0, 0]	-999	PAL1	0	R1089P
1059.284	0.017	1048521	REC_END	n/a	n/a	2	-999	n/a	n/a	n/a	n/a	9	[0, 0, 0]	-999	PAL1	0	R1089P
1059.301	0.983	1048530	TEST_ORIENT	n/a	n/a	5	5	FUDGE	FORT	FORT	FUDGE	9	[0, 0, 0]	-999	PAL1	0	R1089P
1060.284	0.001	1049021	TEST_PROBE	n/a	wordpools/wordpool_EN.txt	5	5	FUDGE	FORT	FORT	FUDGE	9	[0, 0, 0]	-999	PAL1	0	R1089P
1060.285	3.286	1049022	REC_START	n/a	n/a	5	-999	n/a	FORT	n/a	n/a	9	[0, 0, 0]	-999	PAL1	0	R1089P
1063.571	0.353	1050665	REC_EVENT	3286	n/a	5	5	FUDGE	<>	FORT	FUDGE	9	[0, 0, 0]	-999	PAL1	0	R1089P
1063.924	1.37	1050841	REC_EVENT	3639	n/a	5	5	FUDGE	FORT	FORT	FUDGE	9	[0, 0, 0]	-999	PAL1	0	R1089P
1065.294	0.008	1051526	REC_END	n/a	n/a	5	-999	n/a	n/a	n/a	n/a	9	[0, 0, 0]	-999	PAL1	0	R1089P
1065.302	0.8	1051530	TEST_ORIENT	n/a	n/a	6	6	BOY	n/a	OWL	BOY	9	[0, 0, 0]	-999	PAL1	0	R1089P
1066.102	0.0	1051930	TEST_PROBE	n/a	wordpools/wordpool_EN.txt	6	6	BOY	n/a	OWL	BOY	9	[0, 0, 0]	-999	PAL1	0	R1089P
1066.102	5.017	1051930	REC_START	n/a	n/a	6	-999	n/a	n/a	n/a	n/a	9	[0, 0, 0]	-999	PAL1	0	R1089P
1071.119	0.004	1054439	REC_END	n/a	n/a	6	-999	n/a	n/a	n/a	n/a	9	[0, 0, 0]	-999	PAL1	0	R1089P
1071.123	1.399	1054441	REC_EVENT	5021	n/a	6	6	BOY	<>	OWL	BOY	9	[0, 0, 0]	-999	PAL1	0	R1089P
1072.522	10.45	1055140	ENCODING_START	n/a	n/a	0	-999	n/a	n/a	n/a	n/a	10	[0, 0, 0]	-999	PAL1	0	R1089P
1082.972	0.868	1060365	STUDY_ORIENT	n/a	n/a	1	1	TOAD	HILL	TOAD	HILL	10	[0, 0, 0]	-999	PAL1	0	R1089P
1083.84	5.034	1060799	STUDY_PAIR	n/a	wordpools/wordpool_EN.txt	1	1	TOAD	HILL	TOAD	HILL	10	[0, 0, 0]	-999	PAL1	0	R1089P
1088.874	1.0	1063316	STUDY_ORIENT	n/a	n/a	2	2	STAIR	n/a	STAIR	COW	10	[0, 0, 0]	-999	PAL1	0	R1089P
1089.874	5.018	1063816	STUDY_PAIR	n/a	wordpools/wordpool_EN.txt	2	2	STAIR	n/a	STAIR	COW	10	[0, 0, 0]	-999	PAL1	0	R1089P
1094.892	0.933	1066324	STUDY_ORIENT	n/a	n/a	3	3	HAWK	n/a	PIE	HAWK	10	[0, 0, 0]	-999	PAL1	0	R1089P
1095.825	5.018	1066791	STUDY_PAIR	n/a	wordpools/wordpool_EN.txt	3	3	HAWK	n/a	PIE	HAWK	10	[0, 0, 0]	-999	PAL1	0	R1089P
1100.843	0.816	1069300	STUDY_ORIENT	n/a	n/a	4	4	STORM	TRAIN	SHIRT	STORM	10	[0, 0, 0]	-999	PAL1	0	R1089P
1101.659	5.034	1069708	STUDY_PAIR	n/a	wordpools/wordpool_EN.txt	4	4	STORM	TRAIN	SHIRT	STORM	10	[0, 0, 0]	-999	PAL1	0	R1089P
1106.693	0.967	1072225	STUDY_ORIENT	n/a	n/a	5	5	SOCK	SOCK	BUSH	SOCK	10	[0, 0, 0]	-999	PAL1	0	R1089P
1107.66	5.034	1072708	STUDY_PAIR	n/a	wordpools/wordpool_EN.txt	5	5	SOCK	SOCK	BUSH	SOCK	10	[0, 0, 0]	-999	PAL1	0	R1089P
1112.694	1.0	1075225	STUDY_ORIENT	n/a	n/a	6	6	CAT	HOLE	CAT	HOLE	10	[0, 0, 0]	-999	PAL1	0	R1089P
1113.694	4.002	1075725	STUDY_PAIR	n/a	wordpools/wordpool_EN.txt	6	6	CAT	HOLE	CAT	HOLE	10	[0, 0, 0]	-999	PAL1	0	R1089P
1117.696	0.999	1077726	START	n/a	n/a	-999	-999	n/a	n/a	n/a	n/a	10	[-999, -999, -999]	-999	PAL1	0	R1089P
1118.695	0.018	1078225	MATH_START	n/a	n/a	-999	-999	n/a	n/a	n/a	n/a	10	[0, 0, 0]	-999	PAL1	0	R1089P
1118.713	4.001	1078234	PROB	3969	n/a	-999	-999	n/a	n/a	n/a	n/a	10	[4, 3, 7]	14	PAL1	0	R1089P
1122.714	2.899	1080235	PROB	2880	n/a	-999	-999	n/a	n/a	n/a	n/a	10	[9, 9, 7]	25	PAL1	0	R1089P
1125.613	1.968	1081684	PROB	1941	n/a	-999	-999	n/a	n/a	n/a	n/a	10	[4, 8, 1]	13	PAL1	0	R1089P
1127.581	3.251	1082668	PROB	3222	n/a	-999	-999	n/a	n/a	n/a	n/a	10	[4, 9, 5]	18	PAL1	0	R1089P
1130.832	1.749	1084293	PROB	1722	n/a	-999	-999	n/a	n/a	n/a	n/a	10	[5, 5, 2]	12	PAL1	0	R1089P
1132.581	6.757	1085168	PROB	6757	n/a	-999	-999	n/a	n/a	n/a	n/a	10	[9, 9, 8]	26	PAL1	0	R1089P
1139.338	0.011	1088546	STOP	n/a	n/a	-999	-999	n/a	n/a	n/a	n/a	10	[-999, -999, -999]	-999	PAL1	0	R1089P
1139.349	0.0	1088552	MATH_END	n/a	n/a	-999	-999	n/a	n/a	n/a	n/a	10	[0, 0, 0]	-999	PAL1	0	R1089P
1139.349	0.017	1088552	TEST_START	n/a	n/a	-999	-999	n/a	n/a	n/a	n/a	10	[0, 0, 0]	-999	PAL1	0	R1089P
1139.366	1.017	1088560	TEST_ORIENT	n/a	n/a	1	1	TOAD	HILL	TOAD	HILL	10	[0, 0, 0]	-999	PAL1	0	R1089P
1140.383	0.0	1089069	TEST_PROBE	n/a	wordpools/wordpool_EN.txt	1	1	TOAD	HILL	TOAD	HILL	10	[0, 0, 0]	-999	PAL1	0	R1089P
1140.383	2.423	1089069	REC_START	n/a	n/a	1	-999	n/a	HILL	n/a	n/a	10	[0, 0, 0]	-999	PAL1	0	R1089P
1142.806	2.594	1090280	REC_EVENT	2423	n/a	1	1	TOAD	HILL	TOAD	HILL	10	[0, 0, 0]	-999	PAL1	0	R1089P
1145.4	0.017	1091577	REC_END	n/a	n/a	1	-999	n/a	n/a	n/a	n/a	10	[0, 0, 0]	-999	PAL1	0	R1089P
1145.417	0.834	1091586	TEST_ORIENT	n/a	n/a	2	2	STAIR	n/a	STAIR	COW	10	[0, 0, 0]	-999	PAL1	0	R1089P
1146.251	0.0	1092003	REC_START	n/a	n/a	2	-999	n/a	n/a	n/a	n/a	10	[0, 0, 0]	-999	PAL1	0	R1089P
1146.251	5.015	1092003	TEST_PROBE	n/a	wordpools/wordpool_EN.txt	2	2	STAIR	n/a	STAIR	COW	10	[0, 0, 0]	-999	PAL1	0	R1089P
1151.266	0.002	1094510	REC_EVENT	5015	n/a	2	2	STAIR	<>	STAIR	COW	10	[0, 0, 0]	-999	PAL1	0	R1089P
1151.268	0.017	1094511	REC_END	n/a	n/a	2	-999	n/a	n/a	n/a	n/a	10	[0, 0, 0]	-999	PAL1	0	R1089P
1151.285	1.034	1094519	TEST_ORIENT	n/a	n/a	3	3	HAWK	n/a	PIE	HAWK	10	[0, 0, 0]	-999	PAL1	0	R1089P
1152.319	0.0	1095036	TEST_PROBE	n/a	wordpools/wordpool_EN.txt	3	3	HAWK	n/a	PIE	HAWK	10	[0, 0, 0]	-999	PAL1	0	R1089P
1152.319	5.021	1095036	REC_START	n/a	n/a	3	-999	n/a	n/a	n/a	n/a	10	[0, 0, 0]	-999	PAL1	0	R1089P
1157.34	0.005	1097547	REC_EVENT	5021	n/a	3	3	HAWK	<>	PIE	HAWK	10	[0, 0, 0]	-999	PAL1	0	R1089P
1157.345	0.008	1097549	REC_END	n/a	n/a	3	-999	n/a	n/a	n/a	n/a	10	[0, 0, 0]	-999	PAL1	0	R1089P
1157.353	0.867	1097553	TEST_ORIENT	n/a	n/a	4	4	STORM	TRAIN	SHIRT	STORM	10	[0, 0, 0]	-999	PAL1	0	R1089P
1158.22	0.0	1097987	TEST_PROBE	n/a	wordpools/wordpool_EN.txt	4	4	STORM	TRAIN	SHIRT	STORM	10	[0, 0, 0]	-999	PAL1	0	R1089P
1158.22	3.749	1097987	REC_START	n/a	n/a	4	-999	n/a	TRAIN	n/a	n/a	10	[0, 0, 0]	-999	PAL1	0	R1089P
1161.969	1.268	1099861	REC_EVENT	3749	n/a	4	4	STORM	TRAIN	SHIRT	STORM	10	[0, 0, 0]	-999	PAL1	0	R1089P
1163.237	0.017	1100495	REC_END	n/a	n/a	4	-999	n/a	n/a	n/a	n/a	10	[0, 0, 0]	-999	PAL1	0	R1089P
1163.254	1.0	1100504	TEST_ORIENT	n/a	n/a	5	5	SOCK	SOCK	BUSH	SOCK	10	[0, 0, 0]	-999	PAL1	0	R1089P
1164.254	0.001	1101004	TEST_PROBE	n/a	wordpools/wordpool_EN.txt	5	5	SOCK	SOCK	BUSH	SOCK	10	[0, 0, 0]	-999	PAL1	0	R1089P
1164.255	1.977	1101004	REC_START	n/a	n/a	5	-999	n/a	SOCK	n/a	n/a	10	[0, 0, 0]	-999	PAL1	0	R1089P
1166.232	1.482	1101993	REC_EVENT	1977	n/a	5	5	SOCK	SOCK	BUSH	SOCK	10	[0, 0, 0]	-999	PAL1	0	R1089P
1167.714	0.864	1102734	REC_EVENT	3459	n/a	5	5	SOCK	<>	BUSH	SOCK	10	[0, 0, 0]	-999	PAL1	0	R1089P
1168.578	0.677	1103166	REC_EVENT	4323	n/a	5	5	SOCK	SOCK	BUSH	SOCK	10	[0, 0, 0]	-999	PAL1	0	R1089P
1169.255	0.017	1103504	REC_END	n/a	n/a	5	-999	n/a	n/a	n/a	n/a	10	[0, 0, 0]	-999	PAL1	0	R1089P
1169.272	0.917	1103513	TEST_ORIENT	n/a	n/a	6	6	CAT	HOLE	CAT	HOLE	10	[0, 0, 0]	-999	PAL1	0	R1089P
1170.189	0.0	1103971	TEST_PROBE	n/a	wordpools/wordpool_EN.txt	6	6	CAT	HOLE	CAT	HOLE	10	[0, 0, 0]	-999	PAL1	0	R1089P
1170.189	1.985	1103971	REC_START	n/a	n/a	6	-999	n/a	HOLE	n/a	n/a	10	[0, 0, 0]	-999	PAL1	0	R1089P
1172.174	0.489	1104963	REC_EVENT	1985	n/a	6	6	CAT	CAT	CAT	HOLE	10	[0, 0, 0]	-999	PAL1	0	R1089P
1172.663	2.543	1105208	REC_EVENT	2474	n/a	6	6	CAT	HOLE	CAT	HOLE	10	[0, 0, 0]	-999	PAL1	0	R1089P
1175.206	1.533	1106479	REC_END	n/a	n/a	6	-999	n/a	n/a	n/a	n/a	10	[0, 0, 0]	-999	PAL1	0	R1089P
1176.739	10.436	1107246	ENCODING_START	n/a	n/a	0	-999	n/a	n/a	n/a	n/a	11	[0, 0, 0]	-999	PAL1	0	R1089P
1187.175	0.867	1112464	STUDY_ORIENT	n/a	n/a	1	5	BOARD	n/a	RAT	BOARD	11	[0, 0, 0]	-999	PAL1	0	R1089P
1188.042	5.018	1112897	STUDY_PAIR	n/a	wordpools/wordpool_EN.txt	1	5	BOARD	n/a	RAT	BOARD	11	[0, 0, 0]	-999	PAL1	0	R1089P
1193.06	0.966	1115406	STUDY_ORIENT	n/a	n/a	2	4	CONE	n/a	CONE	DOOR	11	[0, 0, 0]	-999	PAL1	0	R1089P
1194.026	5.018	1115889	STUDY_PAIR	n/a	wordpools/wordpool_EN.txt	2	4	CONE	n/a	CONE	DOOR	11	[0, 0, 0]	-999	PAL1	0	R1089P
1199.044	0.785	1118398	STUDY_ORIENT	n/a	n/a	3	3	SEED	n/a	SEED	WING	11	[0, 0, 0]	-999	PAL1	0	R1089P
1199.829	5.034	1118790	STUDY_PAIR	n/a	wordpools/wordpool_EN.txt	3	3	SEED	n/a	SEED	WING	11	[0, 0, 0]	-999	PAL1	0	R1089P
1204.863	0.816	1121307	STUDY_ORIENT	n/a	n/a	4	2	SWORD	n/a	SWORD	CLOWN	11	[0, 0, 0]	-999	PAL1	0	R1089P
1205.679	5.035	1121715	STUDY_PAIR	n/a	wordpools/wordpool_EN.txt	4	2	SWORD	n/a	SWORD	CLOWN	11	[0, 0, 0]	-999	PAL1	0	R1089P
1210.714	0.933	1124232	STUDY_ORIENT	n/a	n/a	5	1	PASTE	n/a	SEAL	PASTE	11	[0, 0, 0]	-999	PAL1	0	R1089P
1211.647	5.034	1124699	STUDY_PAIR	n/a	wordpools/wordpool_EN.txt	5	1	PASTE	n/a	SEAL	PASTE	11	[0, 0, 0]	-999	PAL1	0	R1089P
1216.681	0.917	1127216	STUDY_ORIENT	n/a	n/a	6	6	RUG	n/a	RUG	COUCH	11	[0, 0, 0]	-999	PAL1	0	R1089P
1217.598	4.018	1127674	STUDY_PAIR	n/a	wordpools/wordpool_EN.txt	6	6	RUG	n/a	RUG	COUCH	11	[0, 0, 0]	-999	PAL1	0	R1089P
1221.616	0.999	1129683	START	n/a	n/a	-999	-999	n/a	n/a	n/a	n/a	11	[-999, -999, -999]	-999	PAL1	0	R1089P
1222.615	0.017	1130183	MATH_START	n/a	n/a	-999	-999	n/a	n/a	n/a	n/a	11	[0, 0, 0]	-999	PAL1	0	R1089P
1222.632	5.485	1130191	PROB	5450	n/a	-999	-999	n/a	n/a	n/a	n/a	11	[4, 6, 7]	17	PAL1	0	R1089P
1228.117	3.433	1132934	PROB	3405	n/a	-999	-999	n/a	n/a	n/a	n/a	11	[4, 3, 7]	14	PAL1	0	R1089P
1231.55	4.735	1134650	PROB	4716	n/a	-999	-999	n/a	n/a	n/a	n/a	11	[4, 7, 8]	18	PAL1	0	R1089P
1236.285	4.101	1137017	PROB	4077	n/a	-999	-999	n/a	n/a	n/a	n/a	11	[4, 4, 6]	14	PAL1	0	R1089P
1240.386	6.441	1139068	PROB	6441	n/a	-999	-999	n/a	n/a	n/a	n/a	11	[9, 7, 9]	25	PAL1	0	R1089P
1246.827	0.011	1142288	STOP	n/a	n/a	-999	-999	n/a	n/a	n/a	n/a	11	[-999, -999, -999]	-999	PAL1	0	R1089P
1246.838	0.0	1142294	MATH_END	n/a	n/a	-999	-999	n/a	n/a	n/a	n/a	11	[0, 0, 0]	-999	PAL1	0	R1089P
1246.838	0.016	1142294	TEST_START	n/a	n/a	-999	-999	n/a	n/a	n/a	n/a	11	[0, 0, 0]	-999	PAL1	0	R1089P
1246.854	0.984	1142302	TEST_ORIENT	n/a	n/a	5	1	PASTE	n/a	SEAL	PASTE	11	[0, 0, 0]	-999	PAL1	0	R1089P
1247.838	0.001	1142794	TEST_PROBE	n/a	wordpools/wordpool_EN.txt	5	1	PASTE	n/a	SEAL	PASTE	11	[0, 0, 0]	-999	PAL1	0	R1089P
1247.839	5.024	1142794	REC_START	n/a	n/a	5	-999	n/a	n/a	n/a	n/a	11	[0, 0, 0]	-999	PAL1	0	R1089P
1252.863	0.003	1145306	REC_END	n/a	n/a	5	-999	n/a	n/a	n/a	n/a	11	[0, 0, 0]	-999	PAL1	0	R1089P
1252.866	0.006	1145307	REC_EVENT	5027	n/a	5	1	PASTE	<>	SEAL	PASTE	11	[0, 0, 0]	-999	PAL1	0	R1089P
1252.872	0.816	1145310	TEST_ORIENT	n/a	n/a	4	2	SWORD	n/a	SWORD	CLOWN	11	[0, 0, 0]	-999	PAL1	0	R1089P
1253.688	0.001	1145718	TEST_PROBE	n/a	wordpools/wordpool_EN.txt	4	2	SWORD	n/a	SWORD	CLOWN	11	[0, 0, 0]	-999	PAL1	0	R1089P
1253.689	5.026	1145719	REC_START	n/a	n/a	4	-999	n/a	n/a	n/a	n/a	11	[0, 0, 0]	-999	PAL1	0	R1089P
1258.715	0.001	1148232	REC_END	n/a	n/a	4	-999	n/a	n/a	n/a	n/a	11	[0, 0, 0]	-999	PAL1	0	R1089P
1258.716	0.007	1148232	REC_EVENT	5027	n/a	4	2	SWORD	<>	SWORD	CLOWN	11	[0, 0, 0]	-999	PAL1	0	R1089P
1258.723	0.85	1148236	TEST_ORIENT	n/a	n/a	3	3	SEED	n/a	SEED	WING	11	[0, 0, 0]	-999	PAL1	0	R1089P
1259.573	0.0	1148661	TEST_PROBE	n/a	wordpools/wordpool_EN.txt	3	3	SEED	n/a	SEED	WING	11	[0, 0, 0]	-999	PAL1	0	R1089P
1259.573	5.015	1148661	REC_START	n/a	n/a	3	-999	n/a	n/a	n/a	n/a	11	[0, 0, 0]	-999	PAL1	0	R1089P
1264.588	0.002	1151168	REC_EVENT	5015	n/a	3	3	SEED	<>	SEED	WING	11	[0, 0, 0]	-999	PAL1	0	R1089P
1264.59	0.017	1151169	REC_END	n/a	n/a	3	-999	n/a	n/a	n/a	n/a	11	[0, 0, 0]	-999	PAL1	0	R1089P
1264.607	1.017	1151178	TEST_ORIENT	n/a	n/a	2	4	CONE	n/a	CONE	DOOR	11	[0, 0, 0]	-999	PAL1	0	R1089P
1265.624	0.0	1151686	TEST_PROBE	n/a	wordpools/wordpool_EN.txt	2	4	CONE	n/a	CONE	DOOR	11	[0, 0, 0]	-999	PAL1	0	R1089P
1265.624	5.015	1151686	REC_START	n/a	n/a	2	-999	n/a	n/a	n/a	n/a	11	[0, 0, 0]	-999	PAL1	0	R1089P
1270.639	0.002	1154193	REC_EVENT	5015	n/a	2	4	CONE	<>	CONE	DOOR	11	[0, 0, 0]	-999	PAL1	0	R1089P
1270.641	0.017	1154194	REC_END	n/a	n/a	2	-999	n/a	n/a	n/a	n/a	11	[0, 0, 0]	-999	PAL1	0	R1089P
1270.658	1.017	1154203	TEST_ORIENT	n/a	n/a	1	5	BOARD	n/a	RAT	BOARD	11	[0, 0, 0]	-999	PAL1	0	R1089P
1271.675	0.0	1154711	REC_START	n/a	n/a	1	-999	n/a	n/a	n/a	n/a	11	[0, 0, 0]	-999	PAL1	0	R1089P
1271.675	5.015	1154711	TEST_PROBE	n/a	wordpools/wordpool_EN.txt	1	5	BOARD	n/a	RAT	BOARD	11	[0, 0, 0]	-999	PAL1	0	R1089P
1276.69	0.002	1157219	REC_EVENT	5015	n/a	1	5	BOARD	<>	RAT	BOARD	11	[0, 0, 0]	-999	PAL1	0	R1089P
1276.692	0.018	1157220	REC_END	n/a	n/a	1	-999	n/a	n/a	n/a	n/a	11	[0, 0, 0]	-999	PAL1	0	R1089P
1276.71	0.799	1157229	TEST_ORIENT	n/a	n/a	6	6	RUG	n/a	RUG	COUCH	11	[0, 0, 0]	-999	PAL1	0	R1089P
1277.509	0.001	1157628	TEST_PROBE	n/a	wordpools/wordpool_EN.txt	6	6	RUG	n/a	RUG	COUCH	11	[0, 0, 0]	-999	PAL1	0	R1089P
1277.51	5.003	1157629	REC_START	n/a	n/a	6	-999	n/a	n/a	n/a	n/a	11	[0, 0, 0]	-999	PAL1	0	R1089P
1282.513	0.005	1160130	REC_EVENT	5003	n/a	6	6	RUG	<>	RUG	COUCH	11	[0, 0, 0]	-999	PAL1	0	R1089P
1282.518	1.341	1160133	REC_END	n/a	n/a	6	-999	n/a	n/a	n/a	n/a	11	[0, 0, 0]	-999	PAL1	0	R1089P
1283.859	10.437	1160803	ENCODING_START	n/a	n/a	0	-999	n/a	n/a	n/a	n/a	12	[0, 0, 0]	-999	PAL1	0	R1089P
1294.296	0.783	1166021	STUDY_ORIENT	n/a	n/a	1	1	SHOE	STRING	SHOE	STRING	12	[0, 0, 0]	-999	PAL1	0	R1089P
1295.079	5.018	1166413	STUDY_PAIR	n/a	wordpools/wordpool_EN.txt	1	1	SHOE	STRING	SHOE	STRING	12	[0, 0, 0]	-999	PAL1	0	R1089P
1300.097	0.884	1168922	STUDY_ORIENT	n/a	n/a	2	2	COIN	JAR	JAR	COIN	12	[0, 0, 0]	-999	PAL1	0	R1089P
1300.981	5.034	1169364	STUDY_PAIR	n/a	wordpools/wordpool_EN.txt	2	2	COIN	JAR	JAR	COIN	12	[0, 0, 0]	-999	PAL1	0	R1089P
1306.015	0.784	1171881	STUDY_ORIENT	n/a	n/a	3	3	FOOD	n/a	FOOD	INK	12	[0, 0, 0]	-999	PAL1	0	R1089P
1306.799	5.018	1172273	STUDY_PAIR	n/a	wordpools/wordpool_EN.txt	3	3	FOOD	n/a	FOOD	INK	12	[0, 0, 0]	-999	PAL1	0	R1089P
1311.817	0.799	1174781	STUDY_ORIENT	n/a	n/a	4	6	LEG	n/a	GUARD	LEG	12	[0, 0, 0]	-999	PAL1	0	R1089P
1312.616	5.034	1175181	STUDY_PAIR	n/a	wordpools/wordpool_EN.txt	4	6	LEG	n/a	GUARD	LEG	12	[0, 0, 0]	-999	PAL1	0	R1089P
1317.65	0.8	1177698	STUDY_ORIENT	n/a	n/a	5	5	CLAY	n/a	LAND	CLAY	12	[0, 0, 0]	-999	PAL1	0	R1089P
1318.45	5.018	1178098	STUDY_PAIR	n/a	wordpools/wordpool_EN.txt	5	5	CLAY	n/a	LAND	CLAY	12	[0, 0, 0]	-999	PAL1	0	R1089P
1323.468	0.783	1180607	STUDY_ORIENT	n/a	n/a	6	4	PEAR	n/a	KITE	PEAR	12	[0, 0, 0]	-999	PAL1	0	R1089P
1324.251	4.001	1180998	STUDY_PAIR	n/a	wordpools/wordpool_EN.txt	6	4	PEAR	n/a	KITE	PEAR	12	[0, 0, 0]	-999	PAL1	0	R1089P
1328.252	1.0	1182998	START	n/a	n/a	-999	-999	n/a	n/a	n/a	n/a	12	[-999, -999, -999]	-999	PAL1	0	R1089P
1329.252	0.017	1183498	MATH_START	n/a	n/a	-999	-999	n/a	n/a	n/a	n/a	12	[0, 0, 0]	-999	PAL1	0	R1089P
1329.269	5.051	1183507	PROB	5029	n/a	-999	-999	n/a	n/a	n/a	n/a	12	[9, 5, 6]	20	PAL1	0	R1089P
1334.32	3.452	1186032	PROB	3427	n/a	-999	-999	n/a	n/a	n/a	n/a	12	[8, 4, 5]	17	PAL1	0	R1089P
1337.772	2.95	1187758	PROB	2926	n/a	-999	-999	n/a	n/a	n/a	n/a	12	[9, 3, 7]	19	PAL1	0	R1089P
1340.722	3.101	1189233	PROB	3073	n/a	-999	-999	n/a	n/a	n/a	n/a	12	[4, 5, 1]	10	PAL1	0	R1089P
1343.823	3.316	1190784	PROB	3291	n/a	-999	-999	n/a	n/a	n/a	n/a	12	[8, 2, 9]	19	PAL1	0	R1089P
1347.139	3.887	1192441	PROB	3887	n/a	-999	-999	n/a	n/a	n/a	n/a	12	[9, 5, 5]	19	PAL1	0	R1089P
1351.026	0.014	1194385	STOP	n/a	n/a	-999	-999	n/a	n/a	n/a	n/a	12	[-999, -999, -999]	-999	PAL1	0	R1089P
1351.04	0.0	1194392	MATH_END	n/a	n/a	-999	-999	n/a	n/a	n/a	n/a	12	[0, 0, 0]	-999	PAL1	0	R1089P
1351.04	0.017	1194392	TEST_START	n/a	n/a	-999	-999	n/a	n/a	n/a	n/a	12	[0, 0, 0]	-999	PAL1	0	R1089P
1351.057	1.0	1194400	TEST_ORIENT	n/a	n/a	1	1	SHOE	STRING	SHOE	STRING	12	[0, 0, 0]	-999	PAL1	0	R1089P
1352.057	0.001	1194900	TEST_PROBE	n/a	wordpools/wordpool_EN.txt	1	1	SHOE	STRING	SHOE	STRING	12	[0, 0, 0]	-999	PAL1	0	R1089P
1352.058	1.478	1194901	REC_START	n/a	n/a	1	-999	n/a	STRING	n/a	n/a	12	[0, 0, 0]	-999	PAL1	0	R1089P
1353.536	3.538	1195640	REC_EVENT	1478	n/a	1	1	SHOE	STRING	SHOE	STRING	12	[0, 0, 0]	-999	PAL1	0	R1089P
1357.074	0.017	1197409	REC_END	n/a	n/a	1	-999	n/a	n/a	n/a	n/a	12	[0, 0, 0]	-999	PAL1	0	R1089P
1357.091	0.867	1197417	TEST_ORIENT	n/a	n/a	2	2	COIN	JAR	JAR	COIN	12	[0, 0, 0]	-999	PAL1	0	R1089P
1357.958	0.001	1197851	TEST_PROBE	n/a	wordpools/wordpool_EN.txt	2	2	COIN	JAR	JAR	COIN	12	[0, 0, 0]	-999	PAL1	0	R1089P
1357.959	1.941	1197851	REC_START	n/a	n/a	2	-999	n/a	JAR	n/a	n/a	12	[0, 0, 0]	-999	PAL1	0	R1089P
1359.9	3.068	1198822	REC_EVENT	1941	n/a	2	2	COIN	JAR	JAR	COIN	12	[0, 0, 0]	-999	PAL1	0	R1089P
1362.968	0.008	1200356	REC_END	n/a	n/a	2	-999	n/a	n/a	n/a	n/a	12	[0, 0, 0]	-999	PAL1	0	R1089P
1362.976	0.801	1200360	TEST_ORIENT	n/a	n/a	3	3	FOOD	n/a	FOOD	INK	12	[0, 0, 0]	-999	PAL1	0	R1089P
1363.777	0.0	1200760	REC_START	n/a	n/a	3	-999	n/a	n/a	n/a	n/a	12	[0, 0, 0]	-999	PAL1	0	R1089P
1363.777	5.017	1200760	TEST_PROBE	n/a	wordpools/wordpool_EN.txt	3	3	FOOD	n/a	FOOD	INK	12	[0, 0, 0]	-999	PAL1	0	R1089P
1368.794	0.004	1203268	REC_END	n/a	n/a	3	-999	n/a	n/a	n/a	n/a	12	[0, 0, 0]	-999	PAL1	0	R1089P
1368.798	0.013	1203270	REC_EVENT	5021	n/a	3	3	FOOD	<>	FOOD	INK	12	[0, 0, 0]	-999	PAL1	0	R1089P
1368.811	1.0	1203277	TEST_ORIENT	n/a	n/a	6	4	PEAR	n/a	KITE	PEAR	12	[0, 0, 0]	-999	PAL1	0	R1089P
1369.811	0.001	1203777	TEST_PROBE	n/a	wordpools/wordpool_EN.txt	6	4	PEAR	n/a	KITE	PEAR	12	[0, 0, 0]	-999	PAL1	0	R1089P
1369.812	5.009	1203777	REC_START	n/a	n/a	6	-999	n/a	n/a	n/a	n/a	12	[0, 0, 0]	-999	PAL1	0	R1089P
1374.821	0.0	1206282	REC_EVENT	5009	n/a	6	4	PEAR	<>	KITE	PEAR	12	[0, 0, 0]	-999	PAL1	0	R1089P
1374.821	0.008	1206282	REC_END	n/a	n/a	6	-999	n/a	n/a	n/a	n/a	12	[0, 0, 0]	-999	PAL1	0	R1089P
1374.829	0.967	1206286	TEST_ORIENT	n/a	n/a	5	5	CLAY	n/a	LAND	CLAY	12	[0, 0, 0]	-999	PAL1	0	R1089P
1375.796	0.0	1206769	TEST_PROBE	n/a	wordpools/wordpool_EN.txt	5	5	CLAY	n/a	LAND	CLAY	12	[0, 0, 0]	-999	PAL1	0	R1089P
1375.796	5.015	1206769	REC_START	n/a	n/a	5	-999	n/a	n/a	n/a	n/a	12	[0, 0, 0]	-999	PAL1	0	R1089P
1380.811	0.002	1209277	REC_EVENT	5015	n/a	5	5	CLAY	<>	LAND	CLAY	12	[0, 0, 0]	-999	PAL1	0	R1089P
1380.813	0.017	1209278	REC_END	n/a	n/a	5	-999	n/a	n/a	n/a	n/a	12	[0, 0, 0]	-999	PAL1	0	R1089P
1380.83	0.967	1209286	TEST_ORIENT	n/a	n/a	4	6	LEG	n/a	GUARD	LEG	12	[0, 0, 0]	-999	PAL1	0	R1089P
1381.797	0.001	1209770	TEST_PROBE	n/a	wordpools/wordpool_EN.txt	4	6	LEG	n/a	GUARD	LEG	12	[0, 0, 0]	-999	PAL1	0	R1089P
1381.798	4.687	1209770	REC_START	n/a	n/a	4	-999	n/a	n/a	n/a	n/a	12	[0, 0, 0]	-999	PAL1	0	R1089P
1386.485	0.329	1212113	REC_EVENT	4687	n/a	4	6	LEG	<>	GUARD	LEG	12	[0, 0, 0]	-999	PAL1	0	R1089P
1386.814	1.412	1212278	REC_END	n/a	n/a	4	-999	n/a	n/a	n/a	n/a	12	[0, 0, 0]	-999	PAL1	0	R1089P
1388.226	10.44	1212984	ENCODING_START	n/a	n/a	0	-999	n/a	n/a	n/a	n/a	13	[0, 0, 0]	-999	PAL1	0	R1089P
1398.666	0.817	1218204	STUDY_ORIENT	n/a	n/a	1	5	RAKE	n/a	VAN	RAKE	13	[0, 0, 0]	-999	PAL1	0	R1089P
1399.483	5.034	1218612	STUDY_PAIR	n/a	wordpools/wordpool_EN.txt	1	5	RAKE	n/a	VAN	RAKE	13	[0, 0, 0]	-999	PAL1	0	R1089P
1404.517	0.9	1221129	STUDY_ORIENT	n/a	n/a	2	6	FARM	n/a	ARM	FARM	13	[0, 0, 0]	-999	PAL1	0	R1089P
1405.417	5.018	1221579	STUDY_PAIR	n/a	wordpools/wordpool_EN.txt	2	6	FARM	n/a	ARM	FARM	13	[0, 0, 0]	-999	PAL1	0	R1089P
1410.435	0.783	1224088	STUDY_ORIENT	n/a	n/a	3	1	BLOOM	n/a	BLOOM	SMOKE	13	[0, 0, 0]	-999	PAL1	0	R1089P
1411.218	5.018	1224479	STUDY_PAIR	n/a	wordpools/wordpool_EN.txt	3	1	BLOOM	n/a	BLOOM	SMOKE	13	[0, 0, 0]	-999	PAL1	0	R1089P
1416.236	0.85	1226988	STUDY_ORIENT	n/a	n/a	4	2	FILM	BOAT	FAN	FILM	13	[0, 0, 0]	-999	PAL1	0	R1089P
1417.086	5.018	1227413	STUDY_PAIR	n/a	wordpools/wordpool_EN.txt	4	2	FILM	BOAT	FAN	FILM	13	[0, 0, 0]	-999	PAL1	0	R1089P
1422.104	1.0	1229922	STUDY_ORIENT	n/a	n/a	5	3	BOAT	n/a	BOAT	MAT	13	[0, 0, 0]	-999	PAL1	0	R1089P
1423.104	5.034	1230422	STUDY_PAIR	n/a	wordpools/wordpool_EN.txt	5	3	BOAT	n/a	BOAT	MAT	13	[0, 0, 0]	-999	PAL1	0	R1089P
1428.138	0.785	1232939	STUDY_ORIENT	n/a	n/a	6	4	THUMB	n/a	CLIFF	THUMB	13	[0, 0, 0]	-999	PAL1	0	R1089P
1428.923	4.018	1233331	STUDY_PAIR	n/a	wordpools/wordpool_EN.txt	6	4	THUMB	n/a	CLIFF	THUMB	13	[0, 0, 0]	-999	PAL1	0	R1089P
1432.941	0.999	1235340	START	n/a	n/a	-999	-999	n/a	n/a	n/a	n/a	13	[-999, -999, -999]	-999	PAL1	0	R1089P
1433.94	0.016	1235840	MATH_START	n/a	n/a	-999	-999	n/a	n/a	n/a	n/a	13	[0, 0, 0]	-999	PAL1	0	R1089P
1433.956	6.051	1235848	PROB	6022	n/a	-999	-999	n/a	n/a	n/a	n/a	13	[4, 8, 7]	19	PAL1	0	R1089P
1440.007	3.368	1238873	PROB	3347	n/a	-999	-999	n/a	n/a	n/a	n/a	13	[3, 4, 2]	9	PAL1	0	R1089P
1443.375	3.117	1240557	PROB	3083	n/a	-999	-999	n/a	n/a	n/a	n/a	13	[1, 1, 2]	4	PAL1	0	R1089P
1446.492	5.017	1242115	PROB	4990	n/a	-999	-999	n/a	n/a	n/a	n/a	13	[7, 5, 4]	16	PAL1	0	R1089P
1451.509	2.733	1244624	PROB	2733	n/a	-999	-999	n/a	n/a	n/a	n/a	13	[2, 3, 1]	6	PAL1	0	R1089P
1454.242	0.018	1245990	STOP	n/a	n/a	-999	-999	n/a	n/a	n/a	n/a	13	[-999, -999, -999]	-999	PAL1	0	R1089P
1454.26	0.0	1245999	MATH_END	n/a	n/a	-999	-999	n/a	n/a	n/a	n/a	13	[0, 0, 0]	-999	PAL1	0	R1089P
1454.26	0.017	1245999	TEST_START	n/a	n/a	-999	-999	n/a	n/a	n/a	n/a	13	[0, 0, 0]	-999	PAL1	0	R1089P
1454.277	0.966	1246008	TEST_ORIENT	n/a	n/a	3	1	BLOOM	n/a	BLOOM	SMOKE	13	[0, 0, 0]	-999	PAL1	0	R1089P
1455.243	0.001	1246491	TEST_PROBE	n/a	wordpools/wordpool_EN.txt	3	1	BLOOM	n/a	BLOOM	SMOKE	13	[0, 0, 0]	-999	PAL1	0	R1089P
1455.244	4.998	1246491	REC_START	n/a	n/a	3	-999	n/a	n/a	n/a	n/a	13	[0, 0, 0]	-999	PAL1	0	R1089P
1460.242	0.002	1248990	REC_EVENT	4998	n/a	3	1	BLOOM	<>	BLOOM	SMOKE	13	[0, 0, 0]	-999	PAL1	0	R1089P
1460.244	0.017	1248991	REC_END	n/a	n/a	3	-999	n/a	n/a	n/a	n/a	13	[0, 0, 0]	-999	PAL1	0	R1089P
1460.261	0.834	1249000	TEST_ORIENT	n/a	n/a	4	2	FILM	BOAT	FAN	FILM	13	[0, 0, 0]	-999	PAL1	0	R1089P
1461.095	0.0	1249417	TEST_PROBE	n/a	wordpools/wordpool_EN.txt	4	2	FILM	BOAT	FAN	FILM	13	[0, 0, 0]	-999	PAL1	0	R1089P
1461.095	3.709	1249417	REC_START	n/a	n/a	4	-999	n/a	BOAT	n/a	n/a	13	[0, 0, 0]	-999	PAL1	0	R1089P
1464.804	1.308	1251271	REC_EVENT	3709	n/a	4	2	FILM	BOAT	FAN	FILM	13	[0, 0, 0]	-999	PAL1	0	R1089P
1466.112	0.017	1251925	REC_END	n/a	n/a	4	-999	n/a	n/a	n/a	n/a	13	[0, 0, 0]	-999	PAL1	0	R1089P
1466.129	0.917	1251933	TEST_ORIENT	n/a	n/a	5	3	BOAT	n/a	BOAT	MAT	13	[0, 0, 0]	-999	PAL1	0	R1089P
1467.046	0.0	1252392	REC_START	n/a	n/a	5	-999	n/a	n/a	n/a	n/a	13	[0, 0, 0]	-999	PAL1	0	R1089P
1467.046	5.015	1252392	TEST_PROBE	n/a	wordpools/wordpool_EN.txt	5	3	BOAT	n/a	BOAT	MAT	13	[0, 0, 0]	-999	PAL1	0	R1089P
1472.061	0.002	1254899	REC_EVENT	5015	n/a	5	3	BOAT	<>	BOAT	MAT	13	[0, 0, 0]	-999	PAL1	0	R1089P
1472.063	0.017	1254900	REC_END	n/a	n/a	5	-999	n/a	n/a	n/a	n/a	13	[0, 0, 0]	-999	PAL1	0	R1089P
1472.08	0.851	1254909	TEST_ORIENT	n/a	n/a	6	4	THUMB	n/a	CLIFF	THUMB	13	[0, 0, 0]	-999	PAL1	0	R1089P
1472.931	0.001	1255334	TEST_PROBE	n/a	wordpools/wordpool_EN.txt	6	4	THUMB	n/a	CLIFF	THUMB	13	[0, 0, 0]	-999	PAL1	0	R1089P
1472.932	5.009	1255335	REC_START	n/a	n/a	6	-999	n/a	n/a	n/a	n/a	13	[0, 0, 0]	-999	PAL1	0	R1089P
1477.941	0.0	1257839	REC_END	n/a	n/a	6	-999	n/a	n/a	n/a	n/a	13	[0, 0, 0]	-999	PAL1	0	R1089P
1477.941	0.007	1257839	REC_EVENT	5009	n/a	6	4	THUMB	<>	CLIFF	THUMB	13	[0, 0, 0]	-999	PAL1	0	R1089P
1477.948	0.884	1257843	TEST_ORIENT	n/a	n/a	1	5	RAKE	n/a	VAN	RAKE	13	[0, 0, 0]	-999	PAL1	0	R1089P
1478.832	0.001	1258285	TEST_PROBE	n/a	wordpools/wordpool_EN.txt	1	5	RAKE	n/a	VAN	RAKE	13	[0, 0, 0]	-999	PAL1	0	R1089P
1478.833	5.009	1258285	REC_START	n/a	n/a	1	-999	n/a	n/a	n/a	n/a	13	[0, 0, 0]	-999	PAL1	0	R1089P
1483.842	0.001	1260790	REC_EVENT	5009	n/a	1	5	RAKE	<>	VAN	RAKE	13	[0, 0, 0]	-999	PAL1	0	R1089P
1483.843	0.007	1260790	REC_END	n/a	n/a	1	-999	n/a	n/a	n/a	n/a	13	[0, 0, 0]	-999	PAL1	0	R1089P
1483.85	0.849	1260794	TEST_ORIENT	n/a	n/a	2	6	FARM	n/a	ARM	FARM	13	[0, 0, 0]	-999	PAL1	0	R1089P
1484.699	0.001	1261218	TEST_PROBE	n/a	wordpools/wordpool_EN.txt	2	6	FARM	n/a	ARM	FARM	13	[0, 0, 0]	-999	PAL1	0	R1089P
1484.7	5.009	1261218	REC_START	n/a	n/a	2	-999	n/a	n/a	n/a	n/a	13	[0, 0, 0]	-999	PAL1	0	R1089P
1489.709	0.001	1263723	REC_EVENT	5009	n/a	2	6	FARM	<>	ARM	FARM	13	[0, 0, 0]	-999	PAL1	0	R1089P
1489.71	1.612	1263723	REC_END	n/a	n/a	2	-999	n/a	n/a	n/a	n/a	13	[0, 0, 0]	-999	PAL1	0	R1089P
1491.322	10.448	1264529	ENCODING_START	n/a	n/a	0	-999	n/a	n/a	n/a	n/a	14	[0, 0, 0]	-999	PAL1	0	R1089P
1501.77	0.816	1269753	STUDY_ORIENT	n/a	n/a	1	5	DUCK	n/a	DUCK	PLANE	14	[0, 0, 0]	-999	PAL1	0	R1089P
1502.586	5.034	1270161	STUDY_PAIR	n/a	wordpools/wordpool_EN.txt	1	5	DUCK	n/a	DUCK	PLANE	14	[0, 0, 0]	-999	PAL1	0	R1089P
1507.62	1.0	1272678	STUDY_ORIENT	n/a	n/a	2	4	HOOF	HORSE	GLOVE	HOOF	14	[0, 0, 0]	-999	PAL1	0	R1089P
1508.62	5.018	1273178	STUDY_PAIR	n/a	wordpools/wordpool_EN.txt	2	4	HOOF	HORSE	GLOVE	HOOF	14	[0, 0, 0]	-999	PAL1	0	R1089P
1513.638	1.0	1275687	STUDY_ORIENT	n/a	n/a	3	1	PEACH	n/a	TIE	PEACH	14	[0, 0, 0]	-999	PAL1	0	R1089P
1514.638	5.018	1276187	STUDY_PAIR	n/a	wordpools/wordpool_EN.txt	3	1	PEACH	n/a	TIE	PEACH	14	[0, 0, 0]	-999	PAL1	0	R1089P
1519.656	0.8	1278696	STUDY_ORIENT	n/a	n/a	4	2	STEAK	RAIN	CLOCK	STEAK	14	[0, 0, 0]	-999	PAL1	0	R1089P
1520.456	5.034	1279096	STUDY_PAIR	n/a	wordpools/wordpool_EN.txt	4	2	STEAK	RAIN	CLOCK	STEAK	14	[0, 0, 0]	-999	PAL1	0	R1089P
1525.49	0.917	1281612	STUDY_ORIENT	n/a	n/a	5	3	SNAKE	RAIN	SNAKE	WAVE	14	[0, 0, 0]	-999	PAL1	0	R1089P
1526.407	5.018	1282071	STUDY_PAIR	n/a	wordpools/wordpool_EN.txt	5	3	SNAKE	RAIN	SNAKE	WAVE	14	[0, 0, 0]	-999	PAL1	0	R1089P
1531.425	0.883	1284580	STUDY_ORIENT	n/a	n/a	6	6	JEEP	n/a	JEEP	PEN	14	[0, 0, 0]	-999	PAL1	0	R1089P
1532.308	4.001	1285021	STUDY_PAIR	n/a	wordpools/wordpool_EN.txt	6	6	JEEP	n/a	JEEP	PEN	14	[0, 0, 0]	-999	PAL1	0	R1089P
1536.309	1.0	1287022	START	n/a	n/a	-999	-999	n/a	n/a	n/a	n/a	14	[-999, -999, -999]	-999	PAL1	0	R1089P
1537.309	0.017	1287522	MATH_START	n/a	n/a	-999	-999	n/a	n/a	n/a	n/a	14	[0, 0, 0]	-999	PAL1	0	R1089P
1537.326	5.634	1287530	PROB	5605	n/a	-999	-999	n/a	n/a	n/a	n/a	14	[2, 4, 5]	11	PAL1	0	R1089P
1542.96	2.869	1290347	PROB	2843	n/a	-999	-999	n/a	n/a	n/a	n/a	14	[8, 8, 3]	19	PAL1	0	R1089P
1545.829	4.399	1291781	PROB	4365	n/a	-999	-999	n/a	n/a	n/a	n/a	14	[6, 8, 3]	17	PAL1	0	R1089P
1550.228	3.384	1293981	PROB	3358	n/a	-999	-999	n/a	n/a	n/a	n/a	14	[8, 5, 9]	22	PAL1	0	R1089P
1553.612	2.568	1295673	PROB	2534	n/a	-999	-999	n/a	n/a	n/a	n/a	14	[2, 3, 1]	6	PAL1	0	R1089P
1556.18	3.086	1296957	PROB	3086	n/a	-999	-999	n/a	n/a	n/a	n/a	14	[5, 3, 2]	7	PAL1	0	R1089P
1559.266	0.014	1298500	STOP	n/a	n/a	-999	-999	n/a	n/a	n/a	n/a	14	[-999, -999, -999]	-999	PAL1	0	R1089P
1559.28	0.0	1298507	MATH_END	n/a	n/a	-999	-999	n/a	n/a	n/a	n/a	14	[0, 0, 0]	-999	PAL1	0	R1089P
1559.28	0.017	1298507	TEST_START	n/a	n/a	-999	-999	n/a	n/a	n/a	n/a	14	[0, 0, 0]	-999	PAL1	0	R1089P
1559.297	0.983	1298515	TEST_ORIENT	n/a	n/a	3	1	PEACH	n/a	TIE	PEACH	14	[0, 0, 0]	-999	PAL1	0	R1089P
1560.28	0.001	1299007	TEST_PROBE	n/a	wordpools/wordpool_EN.txt	3	1	PEACH	n/a	TIE	PEACH	14	[0, 0, 0]	-999	PAL1	0	R1089P
1560.281	1.742	1299007	REC_START	n/a	n/a	3	-999	n/a	n/a	n/a	n/a	14	[0, 0, 0]	-999	PAL1	0	R1089P
1562.023	3.267	1299878	REC_EVENT	1742	n/a	3	1	PEACH	<>	TIE	PEACH	14	[0, 0, 0]	-999	PAL1	0	R1089P
1565.29	0.008	1301511	REC_END	n/a	n/a	3	-999	n/a	n/a	n/a	n/a	14	[0, 0, 0]	-999	PAL1	0	R1089P
1565.298	0.933	1301515	TEST_ORIENT	n/a	n/a	4	2	STEAK	RAIN	CLOCK	STEAK	14	[0, 0, 0]	-999	PAL1	0	R1089P
1566.231	0.001	1301982	TEST_PROBE	n/a	wordpools/wordpool_EN.txt	4	2	STEAK	RAIN	CLOCK	STEAK	14	[0, 0, 0]	-999	PAL1	0	R1089P
1566.232	2.185	1301982	REC_START	n/a	n/a	4	-999	n/a	RAIN	n/a	n/a	14	[0, 0, 0]	-999	PAL1	0	R1089P
1568.417	2.823	1303075	REC_EVENT	2185	n/a	4	2	STEAK	RAIN	CLOCK	STEAK	14	[0, 0, 0]	-999	PAL1	0	R1089P
1571.24	0.009	1304486	REC_END	n/a	n/a	4	-999	n/a	n/a	n/a	n/a	14	[0, 0, 0]	-999	PAL1	0	R1089P
1571.249	0.95	1304491	TEST_ORIENT	n/a	n/a	5	3	SNAKE	RAIN	SNAKE	WAVE	14	[0, 0, 0]	-999	PAL1	0	R1089P
1572.199	0.001	1304966	TEST_PROBE	n/a	wordpools/wordpool_EN.txt	5	3	SNAKE	RAIN	SNAKE	WAVE	14	[0, 0, 0]	-999	PAL1	0	R1089P
1572.2	3.242	1304966	REC_START	n/a	n/a	5	-999	n/a	RAIN	n/a	n/a	14	[0, 0, 0]	-999	PAL1	0	R1089P
1575.442	0.397	1306587	REC_EVENT	3242	n/a	5	3	SNAKE	<>	SNAKE	WAVE	14	[0, 0, 0]	-999	PAL1	0	R1089P
1575.839	1.369	1306786	REC_EVENT	3639	n/a	5	3	SNAKE	RAIN	SNAKE	WAVE	14	[0, 0, 0]	-999	PAL1	0	R1089P
1577.208	0.009	1307470	REC_END	n/a	n/a	5	-999	n/a	n/a	n/a	n/a	14	[0, 0, 0]	-999	PAL1	0	R1089P
1577.217	0.9	1307475	TEST_ORIENT	n/a	n/a	2	4	HOOF	HORSE	GLOVE	HOOF	14	[0, 0, 0]	-999	PAL1	0	R1089P
1578.117	0.001	1307925	TEST_PROBE	n/a	wordpools/wordpool_EN.txt	2	4	HOOF	HORSE	GLOVE	HOOF	14	[0, 0, 0]	-999	PAL1	0	R1089P
1578.118	4.571	1307925	REC_START	n/a	n/a	2	-999	n/a	HORSE	n/a	n/a	14	[0, 0, 0]	-999	PAL1	0	R1089P
1582.689	0.455	1310210	REC_EVENT	4571	n/a	2	4	HOOF	HORSE	GLOVE	HOOF	14	[0, 0, 0]	-999	PAL1	0	R1089P
1583.144	0.007	1310438	REC_END	n/a	n/a	2	-999	n/a	n/a	n/a	n/a	14	[0, 0, 0]	-999	PAL1	0	R1089P
1583.151	0.851	1310441	TEST_ORIENT	n/a	n/a	1	5	DUCK	n/a	DUCK	PLANE	14	[0, 0, 0]	-999	PAL1	0	R1089P
1584.002	0.0	1310867	TEST_PROBE	n/a	wordpools/wordpool_EN.txt	1	5	DUCK	n/a	DUCK	PLANE	14	[0, 0, 0]	-999	PAL1	0	R1089P
1584.002	5.015	1310867	REC_START	n/a	n/a	1	-999	n/a	n/a	n/a	n/a	14	[0, 0, 0]	-999	PAL1	0	R1089P
1589.017	0.002	1313374	REC_EVENT	5015	n/a	1	5	DUCK	<>	DUCK	PLANE	14	[0, 0, 0]	-999	PAL1	0	R1089P
1589.019	0.017	1313375	REC_END	n/a	n/a	1	-999	n/a	n/a	n/a	n/a	14	[0, 0, 0]	-999	PAL1	0	R1089P
1589.036	0.868	1313384	TEST_ORIENT	n/a	n/a	6	6	JEEP	n/a	JEEP	PEN	14	[0, 0, 0]	-999	PAL1	0	R1089P
1589.904	0.0	1313818	TEST_PROBE	n/a	wordpools/wordpool_EN.txt	6	6	JEEP	n/a	JEEP	PEN	14	[0, 0, 0]	-999	PAL1	0	R1089P
1589.904	5.026	1313818	REC_START	n/a	n/a	6	-999	n/a	n/a	n/a	n/a	14	[0, 0, 0]	-999	PAL1	0	R1089P
1594.93	0.001	1316331	REC_END	n/a	n/a	6	-999	n/a	n/a	n/a	n/a	14	[0, 0, 0]	-999	PAL1	0	R1089P
1594.931	1.519	1316331	REC_EVENT	5027	n/a	6	6	JEEP	<>	JEEP	PEN	14	[0, 0, 0]	-999	PAL1	0	R1089P
1596.45	10.44	1317091	ENCODING_START	n/a	n/a	0	-999	n/a	n/a	n/a	n/a	15	[0, 0, 0]	-999	PAL1	0	R1089P
1606.89	1.0	1322310	STUDY_ORIENT	n/a	n/a	1	3	CAKE	PLATE	PIT	CAKE	15	[0, 0, 0]	-999	PAL1	0	R1089P
1607.89	5.018	1322810	STUDY_PAIR	n/a	wordpools/wordpool_EN.txt	1	3	CAKE	PLATE	PIT	CAKE	15	[0, 0, 0]	-999	PAL1	0	R1089P
1612.908	1.0	1325319	STUDY_ORIENT	n/a	n/a	2	2	PIN	n/a	PIN	GOAT	15	[0, 0, 0]	-999	PAL1	0	R1089P
1613.908	5.018	1325819	STUDY_PAIR	n/a	wordpools/wordpool_EN.txt	2	2	PIN	n/a	PIN	GOAT	15	[0, 0, 0]	-999	PAL1	0	R1089P
1618.926	0.934	1328328	STUDY_ORIENT	n/a	n/a	3	1	SOUP	n/a	SOUP	EGG	15	[0, 0, 0]	-999	PAL1	0	R1089P
1619.86	5.034	1328795	STUDY_PAIR	n/a	wordpools/wordpool_EN.txt	3	1	SOUP	n/a	SOUP	EGG	15	[0, 0, 0]	-999	PAL1	0	R1089P
1624.894	0.933	1331312	STUDY_ORIENT	n/a	n/a	4	4	TOE	n/a	SNAIL	TOE	15	[0, 0, 0]	-999	PAL1	0	R1089P
1625.827	5.018	1331778	STUDY_PAIR	n/a	wordpools/wordpool_EN.txt	4	4	TOE	n/a	SNAIL	TOE	15	[0, 0, 0]	-999	PAL1	0	R1089P
1630.845	0.867	1334287	STUDY_ORIENT	n/a	n/a	5	5	THREAD	n/a	THREAD	STONE	15	[0, 0, 0]	-999	PAL1	0	R1089P
1631.712	5.034	1334721	STUDY_PAIR	n/a	wordpools/wordpool_EN.txt	5	5	THREAD	n/a	THREAD	STONE	15	[0, 0, 0]	-999	PAL1	0	R1089P
1636.746	0.799	1337238	STUDY_ORIENT	n/a	n/a	6	6	FORK	BUCKET	FORK	BATH	15	[0, 0, 0]	-999	PAL1	0	R1089P
1637.545	4.002	1337637	STUDY_PAIR	n/a	wordpools/wordpool_EN.txt	6	6	FORK	BUCKET	FORK	BATH	15	[0, 0, 0]	-999	PAL1	0	R1089P
1641.547	0.999	1339638	START	n/a	n/a	-999	-999	n/a	n/a	n/a	n/a	15	[-999, -999, -999]	-999	PAL1	0	R1089P
1642.546	0.017	1340137	MATH_START	n/a	n/a	-999	-999	n/a	n/a	n/a	n/a	15	[0, 0, 0]	-999	PAL1	0	R1089P
1642.563	4.951	1340146	PROB	4927	n/a	-999	-999	n/a	n/a	n/a	n/a	15	[7, 7, 5]	19	PAL1	0	R1089P
1647.514	2.65	1342621	PROB	2616	n/a	-999	-999	n/a	n/a	n/a	n/a	15	[1, 5, 5]	11	PAL1	0	R1089P
1650.164	2.818	1343946	PROB	2790	n/a	-999	-999	n/a	n/a	n/a	n/a	15	[3, 6, 2]	11	PAL1	0	R1089P
1652.982	2.717	1345355	PROB	2692	n/a	-999	-999	n/a	n/a	n/a	n/a	15	[7, 8, 2]	17	PAL1	0	R1089P
1655.699	3.784	1346714	PROB	3751	n/a	-999	-999	n/a	n/a	n/a	n/a	15	[1, 5, 3]	9	PAL1	0	R1089P
1659.483	4.191	1348606	PROB	4191	n/a	-999	-999	n/a	n/a	n/a	n/a	15	[3, 8, 1]	12	PAL1	0	R1089P
1663.674	0.01	1350701	STOP	n/a	n/a	-999	-999	n/a	n/a	n/a	n/a	15	[-999, -999, -999]	-999	PAL1	0	R1089P
1663.684	0.0	1350706	MATH_END	n/a	n/a	-999	-999	n/a	n/a	n/a	n/a	15	[0, 0, 0]	-999	PAL1	0	R1089P
1663.684	0.016	1350706	TEST_START	n/a	n/a	-999	-999	n/a	n/a	n/a	n/a	15	[0, 0, 0]	-999	PAL1	0	R1089P
1663.7	1.034	1350714	TEST_ORIENT	n/a	n/a	3	1	SOUP	n/a	SOUP	EGG	15	[0, 0, 0]	-999	PAL1	0	R1089P
1664.734	0.001	1351231	TEST_PROBE	n/a	wordpools/wordpool_EN.txt	3	1	SOUP	n/a	SOUP	EGG	15	[0, 0, 0]	-999	PAL1	0	R1089P
1664.735	5.009	1351231	REC_START	n/a	n/a	3	-999	n/a	n/a	n/a	n/a	15	[0, 0, 0]	-999	PAL1	0	R1089P
1669.744	0.0	1353736	REC_EVENT	5009	n/a	3	1	SOUP	<>	SOUP	EGG	15	[0, 0, 0]	-999	PAL1	0	R1089P
1669.744	0.008	1353736	REC_END	n/a	n/a	3	-999	n/a	n/a	n/a	n/a	15	[0, 0, 0]	-999	PAL1	0	R1089P
1669.752	0.984	1353740	TEST_ORIENT	n/a	n/a	2	2	PIN	n/a	PIN	GOAT	15	[0, 0, 0]	-999	PAL1	0	R1089P
1670.736	0.0	1354232	TEST_PROBE	n/a	wordpools/wordpool_EN.txt	2	2	PIN	n/a	PIN	GOAT	15	[0, 0, 0]	-999	PAL1	0	R1089P
1670.736	5.015	1354232	REC_START	n/a	n/a	2	-999	n/a	n/a	n/a	n/a	15	[0, 0, 0]	-999	PAL1	0	R1089P
1675.751	0.002	1356739	REC_EVENT	5015	n/a	2	2	PIN	<>	PIN	GOAT	15	[0, 0, 0]	-999	PAL1	0	R1089P
1675.753	0.017	1356740	REC_END	n/a	n/a	2	-999	n/a	n/a	n/a	n/a	15	[0, 0, 0]	-999	PAL1	0	R1089P
1675.77	1.0	1356749	TEST_ORIENT	n/a	n/a	1	3	CAKE	PLATE	PIT	CAKE	15	[0, 0, 0]	-999	PAL1	0	R1089P
1676.77	0.001	1357249	TEST_PROBE	n/a	wordpools/wordpool_EN.txt	1	3	CAKE	PLATE	PIT	CAKE	15	[0, 0, 0]	-999	PAL1	0	R1089P
1676.771	3.516	1357249	REC_START	n/a	n/a	1	-999	n/a	PLATE	n/a	n/a	15	[0, 0, 0]	-999	PAL1	0	R1089P
1680.287	1.484	1359007	REC_EVENT	3516	n/a	1	3	CAKE	PLATE	PIT	CAKE	15	[0, 0, 0]	-999	PAL1	0	R1089P
1681.771	0.017	1359749	REC_END	n/a	n/a	1	-999	n/a	n/a	n/a	n/a	15	[0, 0, 0]	-999	PAL1	0	R1089P
1681.788	0.899	1359757	TEST_ORIENT	n/a	n/a	4	4	TOE	n/a	SNAIL	TOE	15	[0, 0, 0]	-999	PAL1	0	R1089P
1682.687	0.001	1360207	TEST_PROBE	n/a	wordpools/wordpool_EN.txt	4	4	TOE	n/a	SNAIL	TOE	15	[0, 0, 0]	-999	PAL1	0	R1089P
1682.688	2.716	1360207	REC_START	n/a	n/a	4	-999	n/a	n/a	n/a	n/a	15	[0, 0, 0]	-999	PAL1	0	R1089P
1685.404	2.293	1361565	REC_EVENT	2716	n/a	4	4	TOE	<>	SNAIL	TOE	15	[0, 0, 0]	-999	PAL1	0	R1089P
1687.697	0.008	1362712	REC_END	n/a	n/a	4	-999	n/a	n/a	n/a	n/a	15	[0, 0, 0]	-999	PAL1	0	R1089P
1687.705	1.034	1362716	TEST_ORIENT	n/a	n/a	5	5	THREAD	n/a	THREAD	STONE	15	[0, 0, 0]	-999	PAL1	0	R1089P
1688.739	0.001	1363233	TEST_PROBE	n/a	wordpools/wordpool_EN.txt	5	5	THREAD	n/a	THREAD	STONE	15	[0, 0, 0]	-999	PAL1	0	R1089P
1688.74	5.009	1363233	REC_START	n/a	n/a	5	-999	n/a	n/a	n/a	n/a	15	[0, 0, 0]	-999	PAL1	0	R1089P
1693.749	0.0	1365738	REC_EVENT	5009	n/a	5	5	THREAD	<>	THREAD	STONE	15	[0, 0, 0]	-999	PAL1	0	R1089P
1693.749	0.008	1365738	REC_END	n/a	n/a	5	-999	n/a	n/a	n/a	n/a	15	[0, 0, 0]	-999	PAL1	0	R1089P
1693.757	0.899	1365742	TEST_ORIENT	n/a	n/a	6	6	FORK	BUCKET	FORK	BATH	15	[0, 0, 0]	-999	PAL1	0	R1089P
1694.656	0.001	1366191	TEST_PROBE	n/a	wordpools/wordpool_EN.txt	6	6	FORK	BUCKET	FORK	BATH	15	[0, 0, 0]	-999	PAL1	0	R1089P
1694.657	1.12	1366192	REC_START	n/a	n/a	6	-999	n/a	BUCKET	n/a	n/a	15	[0, 0, 0]	-999	PAL1	0	R1089P
1695.777	3.889	1366752	REC_EVENT	1120	n/a	6	6	FORK	BUCKET	FORK	BATH	15	[0, 0, 0]	-999	PAL1	0	R1089P
1699.666	1.752	1368696	REC_END	n/a	n/a	6	-999	n/a	n/a	n/a	n/a	15	[0, 0, 0]	-999	PAL1	0	R1089P
1701.418	10.442	1369572	ENCODING_START	n/a	n/a	0	-999	n/a	n/a	n/a	n/a	16	[0, 0, 0]	-999	PAL1	0	R1089P
1711.86	0.851	1374793	STUDY_ORIENT	n/a	n/a	1	1	PALM	n/a	WORM	PALM	16	[0, 0, 0]	-999	PAL1	0	R1089P
1712.711	5.034	1375218	STUDY_PAIR	n/a	wordpools/wordpool_EN.txt	1	1	PALM	n/a	WORM	PALM	16	[0, 0, 0]	-999	PAL1	0	R1089P
1717.745	0.949	1377735	STUDY_ORIENT	n/a	n/a	2	4	SCHOOL	MOTH	MOTH	SCHOOL	16	[0, 0, 0]	-999	PAL1	0	R1089P
1718.694	5.019	1378210	STUDY_PAIR	n/a	wordpools/wordpool_EN.txt	2	4	SCHOOL	MOTH	MOTH	SCHOOL	16	[0, 0, 0]	-999	PAL1	0	R1089P
1723.713	0.965	1380719	STUDY_ORIENT	n/a	n/a	3	3	BEE	n/a	BEE	FROG	16	[0, 0, 0]	-999	PAL1	0	R1089P
1724.678	5.018	1381201	STUDY_PAIR	n/a	wordpools/wordpool_EN.txt	3	3	BEE	n/a	BEE	FROG	16	[0, 0, 0]	-999	PAL1	0	R1089P
1729.696	0.834	1383710	STUDY_ORIENT	n/a	n/a	4	2	DEER	n/a	DEER	TOAST	16	[0, 0, 0]	-999	PAL1	0	R1089P
1730.53	5.034	1384127	STUDY_PAIR	n/a	wordpools/wordpool_EN.txt	4	2	DEER	n/a	DEER	TOAST	16	[0, 0, 0]	-999	PAL1	0	R1089P
1735.564	0.85	1386644	STUDY_ORIENT	n/a	n/a	5	5	SINK	n/a	CORD	SINK	16	[0, 0, 0]	-999	PAL1	0	R1089P
1736.414	5.018	1387069	STUDY_PAIR	n/a	wordpools/wordpool_EN.txt	5	5	SINK	n/a	CORD	SINK	16	[0, 0, 0]	-999	PAL1	0	R1089P
1741.432	0.783	1389578	STUDY_ORIENT	n/a	n/a	6	6	WHEEL	n/a	PURSE	WHEEL	16	[0, 0, 0]	-999	PAL1	0	R1089P
1742.215	4.002	1389969	STUDY_PAIR	n/a	wordpools/wordpool_EN.txt	6	6	WHEEL	n/a	PURSE	WHEEL	16	[0, 0, 0]	-999	PAL1	0	R1089P
1746.217	0.999	1391970	START	n/a	n/a	-999	-999	n/a	n/a	n/a	n/a	16	[-999, -999, -999]	-999	PAL1	0	R1089P
1747.216	0.017	1392470	MATH_START	n/a	n/a	-999	-999	n/a	n/a	n/a	n/a	16	[0, 0, 0]	-999	PAL1	0	R1089P
1747.233	4.417	1392478	PROB	4393	n/a	-999	-999	n/a	n/a	n/a	n/a	16	[2, 4, 7]	13	PAL1	0	R1089P
1751.65	3.635	1394687	PROB	3608	n/a	-999	-999	n/a	n/a	n/a	n/a	16	[9, 8, 5]	22	PAL1	0	R1089P
1755.285	2.867	1396504	PROB	2845	n/a	-999	-999	n/a	n/a	n/a	n/a	16	[1, 3, 3]	7	PAL1	0	R1089P
1758.152	7.818	1397938	PROB	7794	n/a	-999	-999	n/a	n/a	n/a	n/a	16	[8, 7, 9]	24	PAL1	0	R1089P
1765.97	3.2	1401846	PROB	3200	n/a	-999	-999	n/a	n/a	n/a	n/a	16	[9, 4, 6]	19	PAL1	0	R1089P
1769.17	0.017	1403446	STOP	n/a	n/a	-999	-999	n/a	n/a	n/a	n/a	16	[-999, -999, -999]	-999	PAL1	0	R1089P
1769.187	0.0	1403455	MATH_END	n/a	n/a	-999	-999	n/a	n/a	n/a	n/a	16	[0, 0, 0]	-999	PAL1	0	R1089P
1769.187	0.017	1403455	TEST_START	n/a	n/a	-999	-999	n/a	n/a	n/a	n/a	16	[0, 0, 0]	-999	PAL1	0	R1089P
1769.204	0.867	1403463	TEST_ORIENT	n/a	n/a	1	1	PALM	n/a	WORM	PALM	16	[0, 0, 0]	-999	PAL1	0	R1089P
1770.071	0.0	1403897	TEST_PROBE	n/a	wordpools/wordpool_EN.txt	1	1	PALM	n/a	WORM	PALM	16	[0, 0, 0]	-999	PAL1	0	R1089P
1770.071	5.015	1403897	REC_START	n/a	n/a	1	-999	n/a	n/a	n/a	n/a	16	[0, 0, 0]	-999	PAL1	0	R1089P
1775.086	0.002	1406404	REC_EVENT	5015	n/a	1	1	PALM	<>	WORM	PALM	16	[0, 0, 0]	-999	PAL1	0	R1089P
1775.088	0.017	1406405	REC_END	n/a	n/a	1	-999	n/a	n/a	n/a	n/a	16	[0, 0, 0]	-999	PAL1	0	R1089P
1775.105	0.801	1406414	TEST_ORIENT	n/a	n/a	4	2	DEER	n/a	DEER	TOAST	16	[0, 0, 0]	-999	PAL1	0	R1089P
1775.906	0.001	1406814	TEST_PROBE	n/a	wordpools/wordpool_EN.txt	4	2	DEER	n/a	DEER	TOAST	16	[0, 0, 0]	-999	PAL1	0	R1089P
1775.907	4.998	1406815	REC_START	n/a	n/a	4	-999	n/a	n/a	n/a	n/a	16	[0, 0, 0]	-999	PAL1	0	R1089P
1780.905	0.002	1409313	REC_EVENT	4998	n/a	4	2	DEER	<>	DEER	TOAST	16	[0, 0, 0]	-999	PAL1	0	R1089P
1780.907	0.017	1409314	REC_END	n/a	n/a	4	-999	n/a	n/a	n/a	n/a	16	[0, 0, 0]	-999	PAL1	0	R1089P
1780.924	0.9	1409323	TEST_ORIENT	n/a	n/a	3	3	BEE	n/a	BEE	FROG	16	[0, 0, 0]	-999	PAL1	0	R1089P
1781.824	0.0	1409773	TEST_PROBE	n/a	wordpools/wordpool_EN.txt	3	3	BEE	n/a	BEE	FROG	16	[0, 0, 0]	-999	PAL1	0	R1089P
1781.824	5.015	1409773	REC_START	n/a	n/a	3	-999	n/a	n/a	n/a	n/a	16	[0, 0, 0]	-999	PAL1	0	R1089P
1786.839	0.002	1412280	REC_EVENT	5015	n/a	3	3	BEE	<>	BEE	FROG	16	[0, 0, 0]	-999	PAL1	0	R1089P
1786.841	0.017	1412281	REC_END	n/a	n/a	3	-999	n/a	n/a	n/a	n/a	16	[0, 0, 0]	-999	PAL1	0	R1089P
1786.858	0.849	1412290	TEST_ORIENT	n/a	n/a	2	4	SCHOOL	MOTH	MOTH	SCHOOL	16	[0, 0, 0]	-999	PAL1	0	R1089P
1787.707	0.002	1412714	TEST_PROBE	n/a	wordpools/wordpool_EN.txt	2	4	SCHOOL	MOTH	MOTH	SCHOOL	16	[0, 0, 0]	-999	PAL1	0	R1089P
1787.709	2.694	1412715	REC_START	n/a	n/a	2	-999	n/a	MOTH	n/a	n/a	16	[0, 0, 0]	-999	PAL1	0	R1089P
1790.403	0.868	1414062	REC_EVENT	2694	n/a	2	4	SCHOOL	<>	MOTH	SCHOOL	16	[0, 0, 0]	-999	PAL1	0	R1089P
1791.271	1.438	1414496	REC_EVENT	3562	n/a	2	4	SCHOOL	MOTH	MOTH	SCHOOL	16	[0, 0, 0]	-999	PAL1	0	R1089P
1792.709	0.017	1415215	REC_END	n/a	n/a	2	-999	n/a	n/a	n/a	n/a	16	[0, 0, 0]	-999	PAL1	0	R1089P
1792.726	0.833	1415224	TEST_ORIENT	n/a	n/a	5	5	SINK	n/a	CORD	SINK	16	[0, 0, 0]	-999	PAL1	0	R1089P
1793.559	0.0	1415640	TEST_PROBE	n/a	wordpools/wordpool_EN.txt	5	5	SINK	n/a	CORD	SINK	16	[0, 0, 0]	-999	PAL1	0	R1089P
1793.559	5.026	1415640	REC_START	n/a	n/a	5	-999	n/a	n/a	n/a	n/a	16	[0, 0, 0]	-999	PAL1	0	R1089P
1798.585	0.001	1418153	REC_END	n/a	n/a	5	-999	n/a	n/a	n/a	n/a	16	[0, 0, 0]	-999	PAL1	0	R1089P
1798.586	0.007	1418153	REC_EVENT	5027	n/a	5	5	SINK	<>	CORD	SINK	16	[0, 0, 0]	-999	PAL1	0	R1089P
1798.593	0.883	1418157	TEST_ORIENT	n/a	n/a	6	6	WHEEL	n/a	PURSE	WHEEL	16	[0, 0, 0]	-999	PAL1	0	R1089P
1799.476	0.001	1418598	TEST_PROBE	n/a	wordpools/wordpool_EN.txt	6	6	WHEEL	n/a	PURSE	WHEEL	16	[0, 0, 0]	-999	PAL1	0	R1089P
1799.477	5.003	1418599	REC_START	n/a	n/a	6	-999	n/a	n/a	n/a	n/a	16	[0, 0, 0]	-999	PAL1	0	R1089P
1804.48	0.005	1421100	REC_EVENT	5003	n/a	6	6	WHEEL	<>	PURSE	WHEEL	16	[0, 0, 0]	-999	PAL1	0	R1089P
1804.485	1.125	1421103	REC_END	n/a	n/a	6	-999	n/a	n/a	n/a	n/a	16	[0, 0, 0]	-999	PAL1	0	R1089P
1805.61	10.453	1421665	ENCODING_START	n/a	n/a	0	-999	n/a	n/a	n/a	n/a	17	[0, 0, 0]	-999	PAL1	0	R1089P
1816.063	0.868	1426892	STUDY_ORIENT	n/a	n/a	1	5	SQUARE	n/a	SQUARE	GRAPE	17	[0, 0, 0]	-999	PAL1	0	R1089P
1816.931	5.033	1427326	STUDY_PAIR	n/a	wordpools/wordpool_EN.txt	1	5	SQUARE	n/a	SQUARE	GRAPE	17	[0, 0, 0]	-999	PAL1	0	R1089P
1821.964	0.818	1429842	STUDY_ORIENT	n/a	n/a	2	2	STEAM	n/a	FENCE	STEAM	17	[0, 0, 0]	-999	PAL1	0	R1089P
1822.782	5.034	1430251	STUDY_PAIR	n/a	wordpools/wordpool_EN.txt	2	2	STEAM	n/a	FENCE	STEAM	17	[0, 0, 0]	-999	PAL1	0	R1089P
1827.816	0.866	1432768	STUDY_ORIENT	n/a	n/a	3	3	SUN	n/a	SUN	BAT	17	[0, 0, 0]	-999	PAL1	0	R1089P
1828.682	5.035	1433201	STUDY_PAIR	n/a	wordpools/wordpool_EN.txt	3	3	SUN	n/a	SUN	BAT	17	[0, 0, 0]	-999	PAL1	0	R1089P
1833.717	0.783	1435718	STUDY_ORIENT	n/a	n/a	4	6	PANTS	n/a	MOON	PANTS	17	[0, 0, 0]	-999	PAL1	0	R1089P
1834.5	5.034	1436110	STUDY_PAIR	n/a	wordpools/wordpool_EN.txt	4	6	PANTS	n/a	MOON	PANTS	17	[0, 0, 0]	-999	PAL1	0	R1089P
1839.534	0.867	1438626	STUDY_ORIENT	n/a	n/a	5	1	BANK	n/a	BANK	FISH	17	[0, 0, 0]	-999	PAL1	0	R1089P
1840.401	5.034	1439060	STUDY_PAIR	n/a	wordpools/wordpool_EN.txt	5	1	BANK	n/a	BANK	FISH	17	[0, 0, 0]	-999	PAL1	0	R1089P
1845.435	0.884	1441577	STUDY_ORIENT	n/a	n/a	6	4	WEED	n/a	WEED	CUP	17	[0, 0, 0]	-999	PAL1	0	R1089P
1846.319	4.018	1442019	STUDY_PAIR	n/a	wordpools/wordpool_EN.txt	6	4	WEED	n/a	WEED	CUP	17	[0, 0, 0]	-999	PAL1	0	R1089P
1850.337	0.999	1444028	START	n/a	n/a	-999	-999	n/a	n/a	n/a	n/a	17	[-999, -999, -999]	-999	PAL1	0	R1089P
1851.336	0.017	1444527	MATH_START	n/a	n/a	-999	-999	n/a	n/a	n/a	n/a	17	[0, 0, 0]	-999	PAL1	0	R1089P
1851.353	3.951	1444536	PROB	3929	n/a	-999	-999	n/a	n/a	n/a	n/a	17	[9, 1, 4]	14	PAL1	0	R1089P
1855.304	3.8	1446511	PROB	3778	n/a	-999	-999	n/a	n/a	n/a	n/a	17	[9, 9, 7]	25	PAL1	0	R1089P
1859.104	2.719	1448411	PROB	2691	n/a	-999	-999	n/a	n/a	n/a	n/a	17	[1, 2, 8]	11	PAL1	0	R1089P
1861.823	3.067	1449770	PROB	3036	n/a	-999	-999	n/a	n/a	n/a	n/a	17	[2, 6, 1]	9	PAL1	0	R1089P
1864.89	5.1	1451304	PROB	5072	n/a	-999	-999	n/a	n/a	n/a	n/a	17	[6, 9, 9]	24	PAL1	0	R1089P
1869.99	5.364	1453854	PROB	5364	n/a	-999	-999	n/a	n/a	n/a	n/a	17	[9, 4, 4]	17	PAL1	0	R1089P
1875.354	0.004	1456536	STOP	n/a	n/a	-999	-999	n/a	n/a	n/a	n/a	17	[-999, -999, -999]	-999	PAL1	0	R1089P
1875.358	0.0	1456538	TEST_START	n/a	n/a	-999	-999	n/a	n/a	n/a	n/a	17	[0, 0, 0]	-999	PAL1	0	R1089P
1875.358	0.016	1456538	MATH_END	n/a	n/a	-999	-999	n/a	n/a	n/a	n/a	17	[0, 0, 0]	-999	PAL1	0	R1089P
1875.374	0.867	1456546	TEST_ORIENT	n/a	n/a	5	1	BANK	n/a	BANK	FISH	17	[0, 0, 0]	-999	PAL1	0	R1089P
1876.241	0.001	1456979	TEST_PROBE	n/a	wordpools/wordpool_EN.txt	5	1	BANK	n/a	BANK	FISH	17	[0, 0, 0]	-999	PAL1	0	R1089P
1876.242	5.021	1456980	REC_START	n/a	n/a	5	-999	n/a	n/a	n/a	n/a	17	[0, 0, 0]	-999	PAL1	0	R1089P
1881.263	0.005	1459490	REC_EVENT	5021	n/a	5	1	BANK	<>	BANK	FISH	17	[0, 0, 0]	-999	PAL1	0	R1089P
1881.268	0.007	1459492	REC_END	n/a	n/a	5	-999	n/a	n/a	n/a	n/a	17	[0, 0, 0]	-999	PAL1	0	R1089P
1881.275	0.901	1459496	TEST_ORIENT	n/a	n/a	2	2	STEAM	n/a	FENCE	STEAM	17	[0, 0, 0]	-999	PAL1	0	R1089P
1882.176	0.0	1459946	TEST_PROBE	n/a	wordpools/wordpool_EN.txt	2	2	STEAM	n/a	FENCE	STEAM	17	[0, 0, 0]	-999	PAL1	0	R1089P
1882.176	5.015	1459946	REC_START	n/a	n/a	2	-999	n/a	n/a	n/a	n/a	17	[0, 0, 0]	-999	PAL1	0	R1089P
1887.191	0.002	1462454	REC_EVENT	5015	n/a	2	2	STEAM	<>	FENCE	STEAM	17	[0, 0, 0]	-999	PAL1	0	R1089P
1887.193	0.017	1462455	REC_END	n/a	n/a	2	-999	n/a	n/a	n/a	n/a	17	[0, 0, 0]	-999	PAL1	0	R1089P
1887.21	0.983	1462463	TEST_ORIENT	n/a	n/a	3	3	SUN	n/a	SUN	BAT	17	[0, 0, 0]	-999	PAL1	0	R1089P
1888.193	0.001	1462955	TEST_PROBE	n/a	wordpools/wordpool_EN.txt	3	3	SUN	n/a	SUN	BAT	17	[0, 0, 0]	-999	PAL1	0	R1089P
1888.194	4.998	1462955	REC_START	n/a	n/a	3	-999	n/a	n/a	n/a	n/a	17	[0, 0, 0]	-999	PAL1	0	R1089P
1893.192	0.002	1465454	REC_EVENT	4998	n/a	3	3	SUN	<>	SUN	BAT	17	[0, 0, 0]	-999	PAL1	0	R1089P
1893.194	0.017	1465455	REC_END	n/a	n/a	3	-999	n/a	n/a	n/a	n/a	17	[0, 0, 0]	-999	PAL1	0	R1089P
1893.211	0.934	1465464	TEST_ORIENT	n/a	n/a	6	4	WEED	n/a	WEED	CUP	17	[0, 0, 0]	-999	PAL1	0	R1089P
1894.145	0.0	1465931	REC_START	n/a	n/a	6	-999	n/a	n/a	n/a	n/a	17	[0, 0, 0]	-999	PAL1	0	R1089P
1894.145	5.015	1465931	TEST_PROBE	n/a	wordpools/wordpool_EN.txt	6	4	WEED	n/a	WEED	CUP	17	[0, 0, 0]	-999	PAL1	0	R1089P
1899.16	0.002	1468438	REC_EVENT	5015	n/a	6	4	WEED	<>	WEED	CUP	17	[0, 0, 0]	-999	PAL1	0	R1089P
1899.162	0.017	1468439	REC_END	n/a	n/a	6	-999	n/a	n/a	n/a	n/a	17	[0, 0, 0]	-999	PAL1	0	R1089P
1899.179	1.033	1468447	TEST_ORIENT	n/a	n/a	1	5	SQUARE	n/a	SQUARE	GRAPE	17	[0, 0, 0]	-999	PAL1	0	R1089P
1900.212	0.001	1468964	TEST_PROBE	n/a	wordpools/wordpool_EN.txt	1	5	SQUARE	n/a	SQUARE	GRAPE	17	[0, 0, 0]	-999	PAL1	0	R1089P
1900.213	5.009	1468964	REC_START	n/a	n/a	1	-999	n/a	n/a	n/a	n/a	17	[0, 0, 0]	-999	PAL1	0	R1089P
1905.222	0.0	1471469	REC_EVENT	5009	n/a	1	5	SQUARE	<>	SQUARE	GRAPE	17	[0, 0, 0]	-999	PAL1	0	R1089P
1905.222	0.008	1471469	REC_END	n/a	n/a	1	-999	n/a	n/a	n/a	n/a	17	[0, 0, 0]	-999	PAL1	0	R1089P
1905.23	0.8	1471473	TEST_ORIENT	n/a	n/a	4	6	PANTS	n/a	MOON	PANTS	17	[0, 0, 0]	-999	PAL1	0	R1089P
1906.03	0.001	1471873	TEST_PROBE	n/a	wordpools/wordpool_EN.txt	4	6	PANTS	n/a	MOON	PANTS	17	[0, 0, 0]	-999	PAL1	0	R1089P
1906.031	5.009	1471873	REC_START	n/a	n/a	4	-999	n/a	n/a	n/a	n/a	17	[0, 0, 0]	-999	PAL1	0	R1089P
1911.04	0.0	1474378	REC_EVENT	5009	n/a	4	6	PANTS	<>	MOON	PANTS	17	[0, 0, 0]	-999	PAL1	0	R1089P
1911.04	2.114	1474378	REC_END	n/a	n/a	4	-999	n/a	n/a	n/a	n/a	17	[0, 0, 0]	-999	PAL1	0	R1089P
1913.154	10.446	1475435	ENCODING_START	n/a	n/a	0	-999	n/a	n/a	n/a	n/a	18	[0, 0, 0]	-999	PAL1	0	R1089P
1923.6	0.8	1480657	STUDY_ORIENT	n/a	n/a	1	5	ZOO	SHIELD	SHIELD	ZOO	18	[0, 0, 0]	-999	PAL1	0	R1089P
1924.4	5.018	1481057	STUDY_PAIR	n/a	wordpools/wordpool_EN.txt	1	5	ZOO	SHIELD	SHIELD	ZOO	18	[0, 0, 0]	-999	PAL1	0	R1089P
1929.418	1.017	1483566	STUDY_ORIENT	n/a	n/a	2	2	GLASS	VASE	ROSE	GLASS	18	[0, 0, 0]	-999	PAL1	0	R1089P
1930.435	5.034	1484075	STUDY_PAIR	n/a	wordpools/wordpool_EN.txt	2	2	GLASS	VASE	ROSE	GLASS	18	[0, 0, 0]	-999	PAL1	0	R1089P
1935.469	0.95	1486592	STUDY_ORIENT	n/a	n/a	3	3	SPARK	n/a	BADGE	SPARK	18	[0, 0, 0]	-999	PAL1	0	R1089P
1936.419	5.018	1487066	STUDY_PAIR	n/a	wordpools/wordpool_EN.txt	3	3	SPARK	n/a	BADGE	SPARK	18	[0, 0, 0]	-999	PAL1	0	R1089P
1941.437	0.95	1489575	STUDY_ORIENT	n/a	n/a	4	4	HAND	n/a	WORLD	HAND	18	[0, 0, 0]	-999	PAL1	0	R1089P
1942.387	5.018	1490050	STUDY_PAIR	n/a	wordpools/wordpool_EN.txt	4	4	HAND	n/a	WORLD	HAND	18	[0, 0, 0]	-999	PAL1	0	R1089P
1947.405	0.9	1492559	STUDY_ORIENT	n/a	n/a	5	1	LOCK	ROOM	STREET	LOCK	18	[0, 0, 0]	-999	PAL1	0	R1089P
1948.305	5.034	1493009	STUDY_PAIR	n/a	wordpools/wordpool_EN.txt	5	1	LOCK	ROOM	STREET	LOCK	18	[0, 0, 0]	-999	PAL1	0	R1089P
1953.339	0.9	1495526	STUDY_ORIENT	n/a	n/a	6	6	ROOM	n/a	PARK	ROOM	18	[0, 0, 0]	-999	PAL1	0	R1089P
1954.239	4.001	1495976	STUDY_PAIR	n/a	wordpools/wordpool_EN.txt	6	6	ROOM	n/a	PARK	ROOM	18	[0, 0, 0]	-999	PAL1	0	R1089P
1958.24	1.0	1497976	START	n/a	n/a	-999	-999	n/a	n/a	n/a	n/a	18	[-999, -999, -999]	-999	PAL1	0	R1089P
1959.24	0.017	1498476	MATH_START	n/a	n/a	-999	-999	n/a	n/a	n/a	n/a	18	[0, 0, 0]	-999	PAL1	0	R1089P
1959.257	6.701	1498485	PROB	6674	n/a	-999	-999	n/a	n/a	n/a	n/a	18	[3, 7, 2]	12	PAL1	0	R1089P
1965.958	3.301	1501835	PROB	3276	n/a	-999	-999	n/a	n/a	n/a	n/a	18	[5, 7, 1]	13	PAL1	0	R1089P
1969.259	2.951	1503486	PROB	2927	n/a	-999	-999	n/a	n/a	n/a	n/a	18	[2, 4, 8]	14	PAL1	0	R1089P
1972.21	3.601	1504961	PROB	3569	n/a	-999	-999	n/a	n/a	n/a	n/a	18	[7, 8, 3]	18	PAL1	0	R1089P
1975.811	4.088	1506761	PROB	4088	n/a	-999	-999	n/a	n/a	n/a	n/a	18	[3, 2, 6]	11	PAL1	0	R1089P
1979.899	0.013	1508805	STOP	n/a	n/a	-999	-999	n/a	n/a	n/a	n/a	18	[-999, -999, -999]	-999	PAL1	0	R1089P
1979.912	0.0	1508812	TEST_START	n/a	n/a	-999	-999	n/a	n/a	n/a	n/a	18	[0, 0, 0]	-999	PAL1	0	R1089P
1979.912	0.017	1508812	MATH_END	n/a	n/a	-999	-999	n/a	n/a	n/a	n/a	18	[0, 0, 0]	-999	PAL1	0	R1089P
1979.929	0.9	1508820	TEST_ORIENT	n/a	n/a	5	1	LOCK	ROOM	STREET	LOCK	18	[0, 0, 0]	-999	PAL1	0	R1089P
1980.829	0.0	1509270	TEST_PROBE	n/a	wordpools/wordpool_EN.txt	5	1	LOCK	ROOM	STREET	LOCK	18	[0, 0, 0]	-999	PAL1	0	R1089P
1980.829	2.04	1509270	REC_START	n/a	n/a	5	-999	n/a	ROOM	n/a	n/a	18	[0, 0, 0]	-999	PAL1	0	R1089P
1982.869	2.977	1510290	REC_EVENT	2040	n/a	5	1	LOCK	ROOM	STREET	LOCK	18	[0, 0, 0]	-999	PAL1	0	R1089P
1985.846	0.017	1511779	REC_END	n/a	n/a	5	-999	n/a	n/a	n/a	n/a	18	[0, 0, 0]	-999	PAL1	0	R1089P
1985.863	0.95	1511787	TEST_ORIENT	n/a	n/a	2	2	GLASS	VASE	ROSE	GLASS	18	[0, 0, 0]	-999	PAL1	0	R1089P
1986.813	0.001	1512262	TEST_PROBE	n/a	wordpools/wordpool_EN.txt	2	2	GLASS	VASE	ROSE	GLASS	18	[0, 0, 0]	-999	PAL1	0	R1089P
1986.814	1.366	1512263	REC_START	n/a	n/a	2	-999	n/a	VASE	n/a	n/a	18	[0, 0, 0]	-999	PAL1	0	R1089P
1988.18	3.643	1512946	REC_EVENT	1366	n/a	2	2	GLASS	VASE	ROSE	GLASS	18	[0, 0, 0]	-999	PAL1	0	R1089P
1991.823	0.008	1514767	REC_END	n/a	n/a	2	-999	n/a	n/a	n/a	n/a	18	[0, 0, 0]	-999	PAL1	0	R1089P
1991.831	0.883	1514771	TEST_ORIENT	n/a	n/a	3	3	SPARK	n/a	BADGE	SPARK	18	[0, 0, 0]	-999	PAL1	0	R1089P
1992.714	0.001	1515213	TEST_PROBE	n/a	wordpools/wordpool_EN.txt	3	3	SPARK	n/a	BADGE	SPARK	18	[0, 0, 0]	-999	PAL1	0	R1089P
1992.715	2.528	1515213	REC_START	n/a	n/a	3	-999	n/a	n/a	n/a	n/a	18	[0, 0, 0]	-999	PAL1	0	R1089P
1995.243	2.481	1516477	REC_EVENT	2528	n/a	3	3	SPARK	<>	BADGE	SPARK	18	[0, 0, 0]	-999	PAL1	0	R1089P
1997.724	0.008	1517717	REC_END	n/a	n/a	3	-999	n/a	n/a	n/a	n/a	18	[0, 0, 0]	-999	PAL1	0	R1089P
1997.732	0.966	1517721	TEST_ORIENT	n/a	n/a	4	4	HAND	n/a	WORLD	HAND	18	[0, 0, 0]	-999	PAL1	0	R1089P
1998.698	0.001	1518204	TEST_PROBE	n/a	wordpools/wordpool_EN.txt	4	4	HAND	n/a	WORLD	HAND	18	[0, 0, 0]	-999	PAL1	0	R1089P
1998.699	5.015	1518205	REC_START	n/a	n/a	4	-999	n/a	n/a	n/a	n/a	18	[0, 0, 0]	-999	PAL1	0	R1089P
2003.714	0.002	1520712	REC_EVENT	5015	n/a	4	4	HAND	<>	WORLD	HAND	18	[0, 0, 0]	-999	PAL1	0	R1089P
2003.716	0.017	1520713	REC_END	n/a	n/a	4	-999	n/a	n/a	n/a	n/a	18	[0, 0, 0]	-999	PAL1	0	R1089P
2003.733	0.899	1520722	TEST_ORIENT	n/a	n/a	1	5	ZOO	SHIELD	SHIELD	ZOO	18	[0, 0, 0]	-999	PAL1	0	R1089P
2004.632	0.001	1521171	TEST_PROBE	n/a	wordpools/wordpool_EN.txt	1	5	ZOO	SHIELD	SHIELD	ZOO	18	[0, 0, 0]	-999	PAL1	0	R1089P
2004.633	1.627	1521172	REC_START	n/a	n/a	1	-999	n/a	SHIELD	n/a	n/a	18	[0, 0, 0]	-999	PAL1	0	R1089P
2006.26	3.382	1521985	REC_EVENT	1627	n/a	1	5	ZOO	SHIELD	SHIELD	ZOO	18	[0, 0, 0]	-999	PAL1	0	R1089P
2009.642	0.008	1523676	REC_END	n/a	n/a	1	-999	n/a	n/a	n/a	n/a	18	[0, 0, 0]	-999	PAL1	0	R1089P
2009.65	1.0	1523680	TEST_ORIENT	n/a	n/a	6	6	ROOM	n/a	PARK	ROOM	18	[0, 0, 0]	-999	PAL1	0	R1089P
2010.65	0.0	1524180	TEST_PROBE	n/a	wordpools/wordpool_EN.txt	6	6	ROOM	n/a	PARK	ROOM	18	[0, 0, 0]	-999	PAL1	0	R1089P
2010.65	1.904	1524180	REC_START	n/a	n/a	6	-999	n/a	n/a	n/a	n/a	18	[0, 0, 0]	-999	PAL1	0	R1089P
2012.554	3.106	1525132	REC_EVENT	1904	n/a	6	6	ROOM	<>	PARK	ROOM	18	[0, 0, 0]	-999	PAL1	0	R1089P
