onset	duration	sample	trial_type	response_time	serialpos	probepos	probe_word	resp_word	study_1	study_2	list	test	answer	experiment	session	subject
0.0	0.0	6544	INSTRUCT_VIDEO_ON	n/a	-999	-999	n/a	n/a	n/a	n/a	-999	[0, 0, 0]	-999	PAL1	4	R1283T
0.0	5.491	6544	INSTRUCT_VIDEO_OFF	n/a	-999	-999	n/a	n/a	n/a	n/a	-999	[0, 0, 0]	-999	PAL1	4	R1283T
5.491	0.0	12035	SESS_START	n/a	-999	-999	n/a	n/a	n/a	n/a	-999	[0, 0, 0]	-999	PAL1	4	R1283T
5.491	8.5	12035	MIC_TEST	n/a	-999	-999	n/a	n/a	n/a	n/a	-999	[0, 0, 0]	-999	PAL1	4	R1283T
13.991	12.608	20535	PRACTICE_TRIAL	n/a	-999	-999	n/a	n/a	n/a	n/a	-1	[0, 0, 0]	-999	PAL1	4	R1283T
26.599	0.007	33142	ENCODING_START	n/a	-999	-999	n/a	n/a	n/a	n/a	-1	[0, 0, 0]	-999	PAL1	4	R1283T
26.606	0.265	33149	PRACTICE_ORIENT	n/a	1	3	IRON	n/a	IRON	WAGON	-1	[0, 0, 0]	-999	PAL1	4	R1283T
26.871	0.535	33414	PRACTICE_ORIENT_OFF	n/a	1	3	IRON	n/a	IRON	WAGON	-1	[0, 0, 0]	-999	PAL1	4	R1283T
27.406	4.017	33949	PRACTICE_PAIR	n/a	1	3	IRON	n/a	IRON	WAGON	-1	[0, 0, 0]	-999	PAL1	4	R1283T
31.423	1.017	37966	PRACTICE_PAIR_OFF	n/a	1	3	IRON	n/a	IRON	WAGON	-1	[0, 0, 0]	-999	PAL1	4	R1283T
32.44	0.267	38983	PRACTICE_ORIENT	n/a	2	6	TONGUE	n/a	RING	TONGUE	-1	[0, 0, 0]	-999	PAL1	4	R1283T
32.707	0.766	39250	PRACTICE_ORIENT_OFF	n/a	2	6	TONGUE	n/a	RING	TONGUE	-1	[0, 0, 0]	-999	PAL1	4	R1283T
33.473	4.001	40015	PRACTICE_PAIR	n/a	2	6	TONGUE	n/a	RING	TONGUE	-1	[0, 0, 0]	-999	PAL1	4	R1283T
37.474	1.017	44016	PRACTICE_PAIR_OFF	n/a	2	6	TONGUE	n/a	RING	TONGUE	-1	[0, 0, 0]	-999	PAL1	4	R1283T
38.491	0.266	45033	PRACTICE_ORIENT	n/a	3	5	RHINO	n/a	RHINO	FLOOD	-1	[0, 0, 0]	-999	PAL1	4	R1283T
38.757	0.684	45299	PRACTICE_ORIENT_OFF	n/a	3	5	RHINO	n/a	RHINO	FLOOD	-1	[0, 0, 0]	-999	PAL1	4	R1283T
39.441	4.018	45983	PRACTICE_PAIR	n/a	3	5	RHINO	n/a	RHINO	FLOOD	-1	[0, 0, 0]	-999	PAL1	4	R1283T
43.459	1.017	50001	PRACTICE_PAIR_OFF	n/a	3	5	RHINO	n/a	RHINO	FLOOD	-1	[0, 0, 0]	-999	PAL1	4	R1283T
44.476	0.265	51018	PRACTICE_ORIENT	n/a	4	2	WATCH	n/a	CAMEL	WATCH	-1	[0, 0, 0]	-999	PAL1	4	R1283T
44.741	0.684	51283	PRACTICE_ORIENT_OFF	n/a	4	2	WATCH	n/a	CAMEL	WATCH	-1	[0, 0, 0]	-999	PAL1	4	R1283T
45.425	4.001	51967	PRACTICE_PAIR	n/a	4	2	WATCH	n/a	CAMEL	WATCH	-1	[0, 0, 0]	-999	PAL1	4	R1283T
49.426	1.017	55968	PRACTICE_PAIR_OFF	n/a	4	2	WATCH	n/a	CAMEL	WATCH	-1	[0, 0, 0]	-999	PAL1	4	R1283T
50.443	0.267	56984	PRACTICE_ORIENT	n/a	5	1	ATTIC	n/a	ATTIC	BEAM	-1	[0, 0, 0]	-999	PAL1	4	R1283T
50.71	0.583	57251	PRACTICE_ORIENT_OFF	n/a	5	1	ATTIC	n/a	ATTIC	BEAM	-1	[0, 0, 0]	-999	PAL1	4	R1283T
51.293	4.001	57834	PRACTICE_PAIR	n/a	5	1	ATTIC	n/a	ATTIC	BEAM	-1	[0, 0, 0]	-999	PAL1	4	R1283T
55.294	1.017	61835	PRACTICE_PAIR_OFF	n/a	5	1	ATTIC	n/a	ATTIC	BEAM	-1	[0, 0, 0]	-999	PAL1	4	R1283T
56.311	0.267	62852	PRACTICE_ORIENT	n/a	6	4	CHEST	n/a	COTTON	CHEST	-1	[0, 0, 0]	-999	PAL1	4	R1283T
56.578	0.516	63119	PRACTICE_ORIENT_OFF	n/a	6	4	CHEST	n/a	COTTON	CHEST	-1	[0, 0, 0]	-999	PAL1	4	R1283T
57.094	4.018	63635	PRACTICE_PAIR	n/a	6	4	CHEST	n/a	COTTON	CHEST	-1	[0, 0, 0]	-999	PAL1	4	R1283T
61.112	1.0	67653	PRACTICE_PAIR_OFF	n/a	6	4	CHEST	n/a	COTTON	CHEST	-1	[0, 0, 0]	-999	PAL1	4	R1283T
62.112	0.0	68653	ENCODING_END	n/a	-999	-999	n/a	n/a	n/a	n/a	-1	[0, 0, 0]	-999	PAL1	4	R1283T
62.112	0.001	68653	MATH_START	n/a	-999	-999	n/a	n/a	n/a	n/a	-1	[0, 0, 0]	-999	PAL1	4	R1283T
62.113	0.016	68654	START	n/a	-999	-999	n/a	n/a	n/a	n/a	1	[-999, -999, -999]	-999	PAL1	4	R1283T
62.129	5.933	68670	PROB	5895	-999	-999	n/a	n/a	n/a	n/a	1	[4, 1, 5]	3	PAL1	4	R1283T
68.062	1.351	74602	PROB	1315	-999	-999	n/a	n/a	n/a	n/a	1	[7, 6, 5]	7	PAL1	4	R1283T
69.413	8.634	75953	PROB	8611	-999	-999	n/a	n/a	n/a	n/a	1	[4, 8, 8]	48	PAL1	4	R1283T
78.047	2.017	84587	PROB	1985	-999	-999	n/a	n/a	n/a	n/a	1	[5, 1, 5]	7	PAL1	4	R1283T
80.064	0.884	86604	PROB	848	-999	-999	n/a	n/a	n/a	n/a	1	[6, 6, 2]	7	PAL1	4	R1283T
80.948	0.601	87488	PROB	565	-999	-999	n/a	n/a	n/a	n/a	1	[6, 6, 1]	7	PAL1	4	R1283T
81.549	0.249	88089	PROB	219	-999	-999	n/a	n/a	n/a	n/a	1	[3, 2, 5]	7	PAL1	4	R1283T
81.798	0.2	88338	PROB	178	-999	-999	n/a	n/a	n/a	n/a	1	[6, 8, 1]	7	PAL1	4	R1283T
81.998	0.147	88538	PROB	147	-999	-999	n/a	n/a	n/a	n/a	1	[5, 1, 6]	7	PAL1	4	R1283T
82.145	0.021	88685	STOP	n/a	-999	-999	n/a	n/a	n/a	n/a	1	[-999, -999, -999]	-999	PAL1	4	R1283T
82.166	0.0	88706	MATH_END	n/a	-999	-999	n/a	n/a	n/a	n/a	-1	[0, 0, 0]	-999	PAL1	4	R1283T
82.166	0.016	88706	RECALL_START	n/a	-999	-999	n/a	n/a	n/a	n/a	-1	[0, 0, 0]	-999	PAL1	4	R1283T
82.182	0.267	88722	PRACTICE_RETRIEVAL_ORIENT	n/a	5	1	ATTIC	n/a	ATTIC	BEAM	-1	[0, 0, 0]	-999	PAL1	4	R1283T
82.449	0.683	88989	PRACTICE_RETRIEVAL_ORIENT_OFF	n/a	5	1	ATTIC	n/a	ATTIC	BEAM	-1	[0, 0, 0]	-999	PAL1	4	R1283T
83.132	0.001	89672	PRACTICE_PROBE	n/a	5	1	ATTIC	n/a	ATTIC	BEAM	-1	[0, 0, 0]	-999	PAL1	4	R1283T
83.133	4.0	89673	REC_START	n/a	5	-999	n/a	n/a	n/a	n/a	-1	[0, 0, 0]	-999	PAL1	4	R1283T
87.133	1.0	93672	PROBE_OFF	n/a	5	-999	n/a	n/a	n/a	n/a	-1	[0, 0, 0]	-999	PAL1	4	R1283T
88.133	0.017	94672	REC_END	n/a	5	-999	n/a	n/a	n/a	n/a	-1	[0, 0, 0]	-999	PAL1	4	R1283T
88.15	0.267	94689	PRACTICE_RETRIEVAL_ORIENT	n/a	4	2	WATCH	n/a	CAMEL	WATCH	-1	[0, 0, 0]	-999	PAL1	4	R1283T
88.417	0.683	94956	PRACTICE_RETRIEVAL_ORIENT_OFF	n/a	4	2	WATCH	n/a	CAMEL	WATCH	-1	[0, 0, 0]	-999	PAL1	4	R1283T
89.1	0.001	95639	PRACTICE_PROBE	n/a	4	2	WATCH	n/a	CAMEL	WATCH	-1	[0, 0, 0]	-999	PAL1	4	R1283T
89.101	4.017	95640	REC_START	n/a	4	-999	n/a	n/a	n/a	n/a	-1	[0, 0, 0]	-999	PAL1	4	R1283T
93.118	1.0	99657	PROBE_OFF	n/a	4	-999	n/a	n/a	n/a	n/a	-1	[0, 0, 0]	-999	PAL1	4	R1283T
94.118	0.017	100657	REC_END	n/a	4	-999	n/a	n/a	n/a	n/a	-1	[0, 0, 0]	-999	PAL1	4	R1283T
94.135	0.266	100674	PRACTICE_RETRIEVAL_ORIENT	n/a	1	3	IRON	n/a	IRON	WAGON	-1	[0, 0, 0]	-999	PAL1	4	R1283T
94.401	0.633	100940	PRACTICE_RETRIEVAL_ORIENT_OFF	n/a	1	3	IRON	n/a	IRON	WAGON	-1	[0, 0, 0]	-999	PAL1	4	R1283T
95.034	0.0	101573	PRACTICE_PROBE	n/a	1	3	IRON	n/a	IRON	WAGON	-1	[0, 0, 0]	-999	PAL1	4	R1283T
95.034	4.017	101573	REC_START	n/a	1	-999	n/a	n/a	n/a	n/a	-1	[0, 0, 0]	-999	PAL1	4	R1283T
99.051	1.001	105590	PROBE_OFF	n/a	1	-999	n/a	n/a	n/a	n/a	-1	[0, 0, 0]	-999	PAL1	4	R1283T
100.052	0.033	106591	REC_END	n/a	1	-999	n/a	n/a	n/a	n/a	-1	[0, 0, 0]	-999	PAL1	4	R1283T
100.085	0.267	106624	PRACTICE_RETRIEVAL_ORIENT	n/a	6	4	CHEST	n/a	COTTON	CHEST	-1	[0, 0, 0]	-999	PAL1	4	R1283T
100.352	0.666	106890	PRACTICE_RETRIEVAL_ORIENT_OFF	n/a	6	4	CHEST	n/a	COTTON	CHEST	-1	[0, 0, 0]	-999	PAL1	4	R1283T
101.018	0.001	107556	PRACTICE_PROBE	n/a	6	4	CHEST	n/a	COTTON	CHEST	-1	[0, 0, 0]	-999	PAL1	4	R1283T
101.019	4.016	107557	REC_START	n/a	6	-999	n/a	n/a	n/a	n/a	-1	[0, 0, 0]	-999	PAL1	4	R1283T
105.035	1.001	111573	PROBE_OFF	n/a	6	-999	n/a	n/a	n/a	n/a	-1	[0, 0, 0]	-999	PAL1	4	R1283T
106.036	0.016	112574	REC_END	n/a	6	-999	n/a	n/a	n/a	n/a	-1	[0, 0, 0]	-999	PAL1	4	R1283T
106.052	0.268	112590	PRACTICE_RETRIEVAL_ORIENT	n/a	3	5	RHINO	n/a	RHINO	FLOOD	-1	[0, 0, 0]	-999	PAL1	4	R1283T
106.32	0.616	112858	PRACTICE_RETRIEVAL_ORIENT_OFF	n/a	3	5	RHINO	n/a	RHINO	FLOOD	-1	[0, 0, 0]	-999	PAL1	4	R1283T
106.936	0.0	113474	PRACTICE_PROBE	n/a	3	5	RHINO	n/a	RHINO	FLOOD	-1	[0, 0, 0]	-999	PAL1	4	R1283T
106.936	4.017	113474	REC_START	n/a	3	-999	n/a	n/a	n/a	n/a	-1	[0, 0, 0]	-999	PAL1	4	R1283T
110.953	1.0	117491	PROBE_OFF	n/a	3	-999	n/a	n/a	n/a	n/a	-1	[0, 0, 0]	-999	PAL1	4	R1283T
111.953	0.017	118491	REC_END	n/a	3	-999	n/a	n/a	n/a	n/a	-1	[0, 0, 0]	-999	PAL1	4	R1283T
111.97	0.251	118508	PRACTICE_RETRIEVAL_ORIENT	n/a	2	6	TONGUE	n/a	RING	TONGUE	-1	[0, 0, 0]	-999	PAL1	4	R1283T
112.221	0.616	118759	PRACTICE_RETRIEVAL_ORIENT_OFF	n/a	2	6	TONGUE	n/a	RING	TONGUE	-1	[0, 0, 0]	-999	PAL1	4	R1283T
112.837	0.0	119375	PRACTICE_PROBE	n/a	2	6	TONGUE	n/a	RING	TONGUE	-1	[0, 0, 0]	-999	PAL1	4	R1283T
112.837	4.017	119375	REC_START	n/a	2	-999	n/a	n/a	n/a	n/a	-1	[0, 0, 0]	-999	PAL1	4	R1283T
116.854	1.0	123392	PROBE_OFF	n/a	2	-999	n/a	n/a	n/a	n/a	-1	[0, 0, 0]	-999	PAL1	4	R1283T
117.854	0.009	124391	REC_END	n/a	2	-999	n/a	n/a	n/a	n/a	-1	[0, 0, 0]	-999	PAL1	4	R1283T
117.863	84.775	124400	RECALL_END	n/a	-999	-999	n/a	n/a	n/a	n/a	-1	[0, 0, 0]	-999	PAL1	4	R1283T
202.638	10.928	209170	TRIAL	n/a	-999	-999	n/a	n/a	n/a	n/a	1	[0, 0, 0]	-999	PAL1	4	R1283T
213.566	0.007	220098	ENCODING_START	n/a	-999	-999	n/a	n/a	n/a	n/a	1	[0, 0, 0]	-999	PAL1	4	R1283T
213.573	0.266	220105	STUDY_ORIENT	n/a	1	3	CLOTH	BALL	CLOTH	CORN	1	[0, 0, 0]	-999	PAL1	4	R1283T
213.839	0.534	220371	STUDY_ORIENT_OFF	n/a	1	3	CLOTH	BALL	CLOTH	CORN	1	[0, 0, 0]	-999	PAL1	4	R1283T
214.373	4.017	220905	STUDY_PAIR	n/a	1	3	CLOTH	BALL	CLOTH	CORN	1	[0, 0, 0]	-999	PAL1	4	R1283T
218.39	1.017	224921	PAIR_OFF	n/a	1	3	CLOTH	BALL	CLOTH	CORN	1	[0, 0, 0]	-999	PAL1	4	R1283T
219.407	0.267	225938	STUDY_ORIENT	n/a	2	6	PIG	n/a	RAIN	PIG	1	[0, 0, 0]	-999	PAL1	4	R1283T
219.674	0.7	226205	STUDY_ORIENT_OFF	n/a	2	6	PIG	n/a	RAIN	PIG	1	[0, 0, 0]	-999	PAL1	4	R1283T
220.374	4.018	226905	STUDY_PAIR	n/a	2	6	PIG	n/a	RAIN	PIG	1	[0, 0, 0]	-999	PAL1	4	R1283T
224.392	1.016	230923	PAIR_OFF	n/a	2	6	PIG	n/a	RAIN	PIG	1	[0, 0, 0]	-999	PAL1	4	R1283T
225.408	0.267	231939	STUDY_ORIENT	n/a	3	5	BLOOM	SKI	BLOOM	SKI	1	[0, 0, 0]	-999	PAL1	4	R1283T
225.675	0.683	232206	STUDY_ORIENT_OFF	n/a	3	5	BLOOM	SKI	BLOOM	SKI	1	[0, 0, 0]	-999	PAL1	4	R1283T
226.358	4.001	232889	STUDY_PAIR	n/a	3	5	BLOOM	SKI	BLOOM	SKI	1	[0, 0, 0]	-999	PAL1	4	R1283T
230.359	1.017	236890	PAIR_OFF	n/a	3	5	BLOOM	SKI	BLOOM	SKI	1	[0, 0, 0]	-999	PAL1	4	R1283T
231.376	0.267	237907	STUDY_ORIENT	n/a	4	2	PURSE	n/a	PURSE	SHIP	1	[0, 0, 0]	-999	PAL1	4	R1283T
231.643	0.583	238174	STUDY_ORIENT_OFF	n/a	4	2	PURSE	n/a	PURSE	SHIP	1	[0, 0, 0]	-999	PAL1	4	R1283T
232.226	4.018	238757	STUDY_PAIR	n/a	4	2	PURSE	n/a	PURSE	SHIP	1	[0, 0, 0]	-999	PAL1	4	R1283T
236.244	1.017	242774	PAIR_OFF	n/a	4	2	PURSE	n/a	PURSE	SHIP	1	[0, 0, 0]	-999	PAL1	4	R1283T
237.261	0.266	243791	STUDY_ORIENT	n/a	5	1	BALL	n/a	BALL	BATH	1	[0, 0, 0]	-999	PAL1	4	R1283T
237.527	0.667	244057	STUDY_ORIENT_OFF	n/a	5	1	BALL	n/a	BALL	BATH	1	[0, 0, 0]	-999	PAL1	4	R1283T
238.194	4.017	244724	STUDY_PAIR	n/a	5	1	BALL	n/a	BALL	BATH	1	[0, 0, 0]	-999	PAL1	4	R1283T
242.211	1.017	248741	PAIR_OFF	n/a	5	1	BALL	n/a	BALL	BATH	1	[0, 0, 0]	-999	PAL1	4	R1283T
243.228	0.267	249758	STUDY_ORIENT	n/a	6	4	PLANT	n/a	CLOCK	PLANT	1	[0, 0, 0]	-999	PAL1	4	R1283T
243.495	0.7	250025	STUDY_ORIENT_OFF	n/a	6	4	PLANT	n/a	CLOCK	PLANT	1	[0, 0, 0]	-999	PAL1	4	R1283T
244.195	4.018	250725	STUDY_PAIR	n/a	6	4	PLANT	n/a	CLOCK	PLANT	1	[0, 0, 0]	-999	PAL1	4	R1283T
248.213	1.0	254743	PAIR_OFF	n/a	6	4	PLANT	n/a	CLOCK	PLANT	1	[0, 0, 0]	-999	PAL1	4	R1283T
249.213	0.0	255743	ENCODING_END	n/a	-999	-999	n/a	n/a	n/a	n/a	1	[0, 0, 0]	-999	PAL1	4	R1283T
249.213	0.0	255743	MATH_START	n/a	-999	-999	n/a	n/a	n/a	n/a	1	[0, 0, 0]	-999	PAL1	4	R1283T
249.213	0.016	255743	START	n/a	-999	-999	n/a	n/a	n/a	n/a	2	[-999, -999, -999]	-999	PAL1	4	R1283T
249.229	3.234	255759	PROB	3212	-999	-999	n/a	n/a	n/a	n/a	2	[2, 1, 8]	11	PAL1	4	R1283T
252.463	4.283	258992	PROB	4256	-999	-999	n/a	n/a	n/a	n/a	2	[9, 4, 8]	21	PAL1	4	R1283T
256.746	2.301	263275	PROB	2271	-999	-999	n/a	n/a	n/a	n/a	2	[1, 7, 4]	12	PAL1	4	R1283T
259.047	7.935	265576	PROB	7913	-999	-999	n/a	n/a	n/a	n/a	2	[4, 4, 6]	14	PAL1	4	R1283T
266.982	3.011	273511	PROB	3011	-999	-999	n/a	n/a	n/a	n/a	2	[4, 9, 4]	17	PAL1	4	R1283T
269.993	0.006	276521	STOP	n/a	-999	-999	n/a	n/a	n/a	n/a	2	[-999, -999, -999]	-999	PAL1	4	R1283T
269.999	0.0	276527	MATH_END	n/a	-999	-999	n/a	n/a	n/a	n/a	1	[0, 0, 0]	-999	PAL1	4	R1283T
269.999	0.016	276527	RECALL_START	n/a	-999	-999	n/a	n/a	n/a	n/a	1	[0, 0, 0]	-999	PAL1	4	R1283T
270.015	0.251	276543	TEST_ORIENT	n/a	5	1	BALL	n/a	BALL	BATH	1	[0, 0, 0]	-999	PAL1	4	R1283T
270.266	0.633	276794	RETRIEVAL_ORIENT_OFF	n/a	-999	-999	n/a	n/a	n/a	n/a	1	[0, 0, 0]	-999	PAL1	4	R1283T
270.899	0.001	277427	TEST_PROBE	n/a	5	1	BALL	n/a	BALL	BATH	1	[0, 0, 0]	-999	PAL1	4	R1283T
270.9	4.016	277428	REC_START	n/a	5	-999	n/a	n/a	n/a	n/a	1	[0, 0, 0]	-999	PAL1	4	R1283T
274.916	0.999	281444	PROBE_OFF	n/a	5	-999	n/a	n/a	n/a	n/a	1	[0, 0, 0]	-999	PAL1	4	R1283T
275.915	0.001	282443	REC_EVENT	5015	5	1	BALL	<>	BALL	BATH	1	[0, 0, 0]	-999	PAL1	4	R1283T
275.916	0.017	282444	REC_END	n/a	5	-999	n/a	n/a	n/a	n/a	1	[0, 0, 0]	-999	PAL1	4	R1283T
275.933	0.268	282461	TEST_ORIENT	n/a	4	2	PURSE	n/a	PURSE	SHIP	1	[0, 0, 0]	-999	PAL1	4	R1283T
276.201	0.599	282729	RETRIEVAL_ORIENT_OFF	n/a	5	-999	n/a	n/a	n/a	n/a	1	[0, 0, 0]	-999	PAL1	4	R1283T
276.8	0.001	283328	TEST_PROBE	n/a	4	2	PURSE	n/a	PURSE	SHIP	1	[0, 0, 0]	-999	PAL1	4	R1283T
276.801	4.016	283329	REC_START	n/a	4	-999	n/a	n/a	n/a	n/a	1	[0, 0, 0]	-999	PAL1	4	R1283T
280.817	0.999	287345	PROBE_OFF	n/a	4	-999	n/a	n/a	n/a	n/a	1	[0, 0, 0]	-999	PAL1	4	R1283T
281.816	0.001	288344	REC_EVENT	5015	4	2	PURSE	<>	PURSE	SHIP	1	[0, 0, 0]	-999	PAL1	4	R1283T
281.817	0.017	288345	REC_END	n/a	4	-999	n/a	n/a	n/a	n/a	1	[0, 0, 0]	-999	PAL1	4	R1283T
281.834	0.268	288362	TEST_ORIENT	n/a	1	3	CLOTH	BALL	CLOTH	CORN	1	[0, 0, 0]	-999	PAL1	4	R1283T
282.102	0.533	288630	RETRIEVAL_ORIENT_OFF	n/a	4	-999	n/a	n/a	n/a	n/a	1	[0, 0, 0]	-999	PAL1	4	R1283T
282.635	0.001	289163	TEST_PROBE	n/a	1	3	CLOTH	BALL	CLOTH	CORN	1	[0, 0, 0]	-999	PAL1	4	R1283T
282.636	2.919	289164	REC_START	n/a	1	-999	n/a	BALL	n/a	n/a	1	[0, 0, 0]	-999	PAL1	4	R1283T
285.555	1.098	292082	REC_EVENT	2919	1	3	CLOTH	BALL	CLOTH	CORN	1	[0, 0, 0]	-999	PAL1	4	R1283T
286.653	1.0	293180	PROBE_OFF	n/a	1	-999	n/a	n/a	n/a	n/a	1	[0, 0, 0]	-999	PAL1	4	R1283T
287.653	0.017	294180	REC_END	n/a	1	-999	n/a	n/a	n/a	n/a	1	[0, 0, 0]	-999	PAL1	4	R1283T
287.67	0.265	294197	TEST_ORIENT	n/a	6	4	PLANT	n/a	CLOCK	PLANT	1	[0, 0, 0]	-999	PAL1	4	R1283T
287.935	0.735	294462	RETRIEVAL_ORIENT_OFF	n/a	1	-999	n/a	n/a	n/a	n/a	1	[0, 0, 0]	-999	PAL1	4	R1283T
288.67	0.0	295197	TEST_PROBE	n/a	6	4	PLANT	n/a	CLOCK	PLANT	1	[0, 0, 0]	-999	PAL1	4	R1283T
288.67	4.017	295197	REC_START	n/a	6	-999	n/a	n/a	n/a	n/a	1	[0, 0, 0]	-999	PAL1	4	R1283T
292.687	0.998	299214	PROBE_OFF	n/a	6	-999	n/a	n/a	n/a	n/a	1	[0, 0, 0]	-999	PAL1	4	R1283T
293.685	0.003	300212	REC_EVENT	5015	6	4	PLANT	<>	CLOCK	PLANT	1	[0, 0, 0]	-999	PAL1	4	R1283T
293.688	0.016	300215	REC_END	n/a	6	-999	n/a	n/a	n/a	n/a	1	[0, 0, 0]	-999	PAL1	4	R1283T
293.704	0.266	300231	TEST_ORIENT	n/a	3	5	BLOOM	SKI	BLOOM	SKI	1	[0, 0, 0]	-999	PAL1	4	R1283T
293.97	0.584	300497	RETRIEVAL_ORIENT_OFF	n/a	6	-999	n/a	n/a	n/a	n/a	1	[0, 0, 0]	-999	PAL1	4	R1283T
294.554	0.001	301081	TEST_PROBE	n/a	3	5	BLOOM	SKI	BLOOM	SKI	1	[0, 0, 0]	-999	PAL1	4	R1283T
294.555	1.396	301082	REC_START	n/a	3	-999	n/a	SKI	n/a	n/a	1	[0, 0, 0]	-999	PAL1	4	R1283T
295.951	2.621	302478	REC_EVENT	1396	3	5	BLOOM	SKI	BLOOM	SKI	1	[0, 0, 0]	-999	PAL1	4	R1283T
298.572	1.0	305099	PROBE_OFF	n/a	3	-999	n/a	n/a	n/a	n/a	1	[0, 0, 0]	-999	PAL1	4	R1283T
299.572	0.016	306099	REC_END	n/a	3	-999	n/a	n/a	n/a	n/a	1	[0, 0, 0]	-999	PAL1	4	R1283T
299.588	0.266	306115	TEST_ORIENT	n/a	2	6	PIG	n/a	RAIN	PIG	1	[0, 0, 0]	-999	PAL1	4	R1283T
299.854	0.735	306381	RETRIEVAL_ORIENT_OFF	n/a	3	-999	n/a	n/a	n/a	n/a	1	[0, 0, 0]	-999	PAL1	4	R1283T
300.589	0.0	307116	TEST_PROBE	n/a	2	6	PIG	n/a	RAIN	PIG	1	[0, 0, 0]	-999	PAL1	4	R1283T
300.589	4.017	307116	REC_START	n/a	2	-999	n/a	n/a	n/a	n/a	1	[0, 0, 0]	-999	PAL1	4	R1283T
304.606	0.998	311132	PROBE_OFF	n/a	2	-999	n/a	n/a	n/a	n/a	1	[0, 0, 0]	-999	PAL1	4	R1283T
305.604	0.002	312130	REC_EVENT	5015	2	6	PIG	<>	RAIN	PIG	1	[0, 0, 0]	-999	PAL1	4	R1283T
305.606	0.004	312132	REC_END	n/a	2	-999	n/a	n/a	n/a	n/a	1	[0, 0, 0]	-999	PAL1	4	R1283T
305.61	4.296	312136	RECALL_END	n/a	-999	-999	n/a	n/a	n/a	n/a	1	[0, 0, 0]	-999	PAL1	4	R1283T
309.906	10.928	316432	TRIAL	n/a	-999	-999	n/a	n/a	n/a	n/a	2	[0, 0, 0]	-999	PAL1	4	R1283T
320.834	0.007	327359	ENCODING_START	n/a	-999	-999	n/a	n/a	n/a	n/a	2	[0, 0, 0]	-999	PAL1	4	R1283T
320.841	0.268	327366	STUDY_ORIENT	n/a	1	5	CROWN	MULE	MULE	CROWN	2	[0, 0, 0]	-999	PAL1	4	R1283T
321.109	0.55	327634	STUDY_ORIENT_OFF	n/a	1	5	CROWN	MULE	MULE	CROWN	2	[0, 0, 0]	-999	PAL1	4	R1283T
321.659	4.018	328184	STUDY_PAIR	n/a	1	5	CROWN	MULE	MULE	CROWN	2	[0, 0, 0]	-999	PAL1	4	R1283T
325.677	1.016	332202	PAIR_OFF	n/a	1	5	CROWN	MULE	MULE	CROWN	2	[0, 0, 0]	-999	PAL1	4	R1283T
326.693	0.266	333218	STUDY_ORIENT	n/a	2	2	GUARD	n/a	GUARD	JET	2	[0, 0, 0]	-999	PAL1	4	R1283T
326.959	0.735	333484	STUDY_ORIENT_OFF	n/a	2	2	GUARD	n/a	GUARD	JET	2	[0, 0, 0]	-999	PAL1	4	R1283T
327.694	4.017	334219	STUDY_PAIR	n/a	2	2	GUARD	n/a	GUARD	JET	2	[0, 0, 0]	-999	PAL1	4	R1283T
331.711	1.016	338236	PAIR_OFF	n/a	2	2	GUARD	n/a	GUARD	JET	2	[0, 0, 0]	-999	PAL1	4	R1283T
332.727	0.267	339252	STUDY_ORIENT	n/a	3	1	WHEEL	n/a	DRUM	WHEEL	2	[0, 0, 0]	-999	PAL1	4	R1283T
332.994	0.534	339519	STUDY_ORIENT_OFF	n/a	3	1	WHEEL	n/a	DRUM	WHEEL	2	[0, 0, 0]	-999	PAL1	4	R1283T
333.528	4.017	340053	STUDY_PAIR	n/a	3	1	WHEEL	n/a	DRUM	WHEEL	2	[0, 0, 0]	-999	PAL1	4	R1283T
337.545	1.017	344069	PAIR_OFF	n/a	3	1	WHEEL	n/a	DRUM	WHEEL	2	[0, 0, 0]	-999	PAL1	4	R1283T
338.562	0.266	345086	STUDY_ORIENT	n/a	4	4	GRASS	SHEET	GRASS	SHEET	2	[0, 0, 0]	-999	PAL1	4	R1283T
338.828	0.751	345352	STUDY_ORIENT_OFF	n/a	4	4	GRASS	SHEET	GRASS	SHEET	2	[0, 0, 0]	-999	PAL1	4	R1283T
339.579	4.018	346103	STUDY_PAIR	n/a	4	4	GRASS	SHEET	GRASS	SHEET	2	[0, 0, 0]	-999	PAL1	4	R1283T
343.597	1.016	350121	PAIR_OFF	n/a	4	4	GRASS	SHEET	GRASS	SHEET	2	[0, 0, 0]	-999	PAL1	4	R1283T
344.613	0.266	351137	STUDY_ORIENT	n/a	5	3	RIB	SET	RIB	STEM	2	[0, 0, 0]	-999	PAL1	4	R1283T
344.879	0.668	351403	STUDY_ORIENT_OFF	n/a	5	3	RIB	SET	RIB	STEM	2	[0, 0, 0]	-999	PAL1	4	R1283T
345.547	4.017	352071	STUDY_PAIR	n/a	5	3	RIB	SET	RIB	STEM	2	[0, 0, 0]	-999	PAL1	4	R1283T
349.564	1.017	356088	PAIR_OFF	n/a	5	3	RIB	SET	RIB	STEM	2	[0, 0, 0]	-999	PAL1	4	R1283T
350.581	0.266	357105	STUDY_ORIENT	n/a	6	6	SKUNK	CLIFF	CLIFF	SKUNK	2	[0, 0, 0]	-999	PAL1	4	R1283T
350.847	0.584	357371	STUDY_ORIENT_OFF	n/a	6	6	SKUNK	CLIFF	CLIFF	SKUNK	2	[0, 0, 0]	-999	PAL1	4	R1283T
351.431	4.018	357955	STUDY_PAIR	n/a	6	6	SKUNK	CLIFF	CLIFF	SKUNK	2	[0, 0, 0]	-999	PAL1	4	R1283T
355.449	1.001	361972	PAIR_OFF	n/a	6	6	SKUNK	CLIFF	CLIFF	SKUNK	2	[0, 0, 0]	-999	PAL1	4	R1283T
356.45	0.0	362973	ENCODING_END	n/a	-999	-999	n/a	n/a	n/a	n/a	2	[0, 0, 0]	-999	PAL1	4	R1283T
356.45	0.0	362973	MATH_START	n/a	-999	-999	n/a	n/a	n/a	n/a	2	[0, 0, 0]	-999	PAL1	4	R1283T
356.45	0.016	362973	START	n/a	-999	-999	n/a	n/a	n/a	n/a	3	[-999, -999, -999]	-999	PAL1	4	R1283T
356.466	2.767	362989	PROB	2735	-999	-999	n/a	n/a	n/a	n/a	3	[1, 4, 7]	12	PAL1	4	R1283T
359.233	2.233	365756	PROB	2201	-999	-999	n/a	n/a	n/a	n/a	3	[6, 4, 3]	13	PAL1	4	R1283T
361.466	4.567	367989	PROB	4534	-999	-999	n/a	n/a	n/a	n/a	3	[2, 3, 7]	13	PAL1	4	R1283T
366.033	6.851	372556	PROB	6823	-999	-999	n/a	n/a	n/a	n/a	3	[7, 9, 4]	20	PAL1	4	R1283T
372.884	3.552	379406	PROB	3516	-999	-999	n/a	n/a	n/a	n/a	3	[8, 7, 4]	19	PAL1	4	R1283T
376.436	2.772	382958	PROB	2772	-999	-999	n/a	n/a	n/a	n/a	3	[4, 7, 4]	15	PAL1	4	R1283T
379.208	0.012	385730	STOP	n/a	-999	-999	n/a	n/a	n/a	n/a	3	[-999, -999, -999]	-999	PAL1	4	R1283T
379.22	0.0	385742	MATH_END	n/a	-999	-999	n/a	n/a	n/a	n/a	2	[0, 0, 0]	-999	PAL1	4	R1283T
379.22	0.016	385742	RECALL_START	n/a	-999	-999	n/a	n/a	n/a	n/a	2	[0, 0, 0]	-999	PAL1	4	R1283T
379.236	0.267	385758	TEST_ORIENT	n/a	3	1	WHEEL	n/a	DRUM	WHEEL	2	[0, 0, 0]	-999	PAL1	4	R1283T
379.503	0.667	386025	RETRIEVAL_ORIENT_OFF	n/a	-999	-999	n/a	n/a	n/a	n/a	2	[0, 0, 0]	-999	PAL1	4	R1283T
380.17	0.001	386692	TEST_PROBE	n/a	3	1	WHEEL	n/a	DRUM	WHEEL	2	[0, 0, 0]	-999	PAL1	4	R1283T
380.171	4.016	386693	REC_START	n/a	3	-999	n/a	n/a	n/a	n/a	2	[0, 0, 0]	-999	PAL1	4	R1283T
384.187	0.999	390709	PROBE_OFF	n/a	3	-999	n/a	n/a	n/a	n/a	2	[0, 0, 0]	-999	PAL1	4	R1283T
385.186	0.001	391707	REC_EVENT	5015	3	1	WHEEL	<>	DRUM	WHEEL	2	[0, 0, 0]	-999	PAL1	4	R1283T
385.187	0.017	391708	REC_END	n/a	3	-999	n/a	n/a	n/a	n/a	2	[0, 0, 0]	-999	PAL1	4	R1283T
385.204	0.267	391725	TEST_ORIENT	n/a	2	2	GUARD	n/a	GUARD	JET	2	[0, 0, 0]	-999	PAL1	4	R1283T
385.471	0.582	391992	RETRIEVAL_ORIENT_OFF	n/a	3	-999	n/a	n/a	n/a	n/a	2	[0, 0, 0]	-999	PAL1	4	R1283T
386.053	0.001	392574	TEST_PROBE	n/a	2	2	GUARD	n/a	GUARD	JET	2	[0, 0, 0]	-999	PAL1	4	R1283T
386.054	4.017	392575	REC_START	n/a	2	-999	n/a	n/a	n/a	n/a	2	[0, 0, 0]	-999	PAL1	4	R1283T
390.071	0.998	396592	PROBE_OFF	n/a	2	-999	n/a	n/a	n/a	n/a	2	[0, 0, 0]	-999	PAL1	4	R1283T
391.069	0.002	397590	REC_EVENT	5015	2	2	GUARD	<>	GUARD	JET	2	[0, 0, 0]	-999	PAL1	4	R1283T
391.071	0.016	397592	REC_END	n/a	2	-999	n/a	n/a	n/a	n/a	2	[0, 0, 0]	-999	PAL1	4	R1283T
391.087	0.268	397608	TEST_ORIENT	n/a	5	3	RIB	SET	RIB	STEM	2	[0, 0, 0]	-999	PAL1	4	R1283T
391.355	0.516	397876	RETRIEVAL_ORIENT_OFF	n/a	2	-999	n/a	n/a	n/a	n/a	2	[0, 0, 0]	-999	PAL1	4	R1283T
391.871	0.0	398392	REC_START	n/a	5	-999	n/a	SET	n/a	n/a	2	[0, 0, 0]	-999	PAL1	4	R1283T
391.871	3.034	398392	TEST_PROBE	n/a	5	3	RIB	SET	RIB	STEM	2	[0, 0, 0]	-999	PAL1	4	R1283T
394.905	0.983	401426	REC_EVENT	3034	5	3	RIB	SET	RIB	STEM	2	[0, 0, 0]	-999	PAL1	4	R1283T
395.888	1.0	402409	PROBE_OFF	n/a	5	-999	n/a	n/a	n/a	n/a	2	[0, 0, 0]	-999	PAL1	4	R1283T
396.888	0.017	403409	REC_END	n/a	5	-999	n/a	n/a	n/a	n/a	2	[0, 0, 0]	-999	PAL1	4	R1283T
396.905	0.268	403426	TEST_ORIENT	n/a	4	4	GRASS	SHEET	GRASS	SHEET	2	[0, 0, 0]	-999	PAL1	4	R1283T
397.173	0.749	403694	RETRIEVAL_ORIENT_OFF	n/a	5	-999	n/a	n/a	n/a	n/a	2	[0, 0, 0]	-999	PAL1	4	R1283T
397.922	0.001	404443	TEST_PROBE	n/a	4	4	GRASS	SHEET	GRASS	SHEET	2	[0, 0, 0]	-999	PAL1	4	R1283T
397.923	1.095	404444	REC_START	n/a	4	-999	n/a	SHEET	n/a	n/a	2	[0, 0, 0]	-999	PAL1	4	R1283T
399.018	2.921	405539	REC_EVENT	1095	4	4	GRASS	SHEET	GRASS	SHEET	2	[0, 0, 0]	-999	PAL1	4	R1283T
401.939	1.0	408460	PROBE_OFF	n/a	4	-999	n/a	n/a	n/a	n/a	2	[0, 0, 0]	-999	PAL1	4	R1283T
402.939	0.017	409459	REC_END	n/a	4	-999	n/a	n/a	n/a	n/a	2	[0, 0, 0]	-999	PAL1	4	R1283T
402.956	0.251	409476	TEST_ORIENT	n/a	1	5	CROWN	MULE	MULE	CROWN	2	[0, 0, 0]	-999	PAL1	4	R1283T
403.207	0.7	409727	RETRIEVAL_ORIENT_OFF	n/a	4	-999	n/a	n/a	n/a	n/a	2	[0, 0, 0]	-999	PAL1	4	R1283T
403.907	0.0	410427	REC_START	n/a	1	-999	n/a	MULE	n/a	n/a	2	[0, 0, 0]	-999	PAL1	4	R1283T
403.907	1.297	410427	TEST_PROBE	n/a	1	5	CROWN	MULE	MULE	CROWN	2	[0, 0, 0]	-999	PAL1	4	R1283T
405.204	2.72	411724	REC_EVENT	1297	1	5	CROWN	MULE	MULE	CROWN	2	[0, 0, 0]	-999	PAL1	4	R1283T
407.924	1.0	414444	PROBE_OFF	n/a	1	-999	n/a	n/a	n/a	n/a	2	[0, 0, 0]	-999	PAL1	4	R1283T
408.924	0.017	415444	REC_END	n/a	1	-999	n/a	n/a	n/a	n/a	2	[0, 0, 0]	-999	PAL1	4	R1283T
408.941	0.267	415461	TEST_ORIENT	n/a	6	6	SKUNK	CLIFF	CLIFF	SKUNK	2	[0, 0, 0]	-999	PAL1	4	R1283T
409.208	0.533	415728	RETRIEVAL_ORIENT_OFF	n/a	1	-999	n/a	n/a	n/a	n/a	2	[0, 0, 0]	-999	PAL1	4	R1283T
409.741	0.001	416261	TEST_PROBE	n/a	6	6	SKUNK	CLIFF	CLIFF	SKUNK	2	[0, 0, 0]	-999	PAL1	4	R1283T
409.742	4.016	416262	REC_START	n/a	6	-999	n/a	CLIFF	n/a	n/a	2	[0, 0, 0]	-999	PAL1	4	R1283T
413.758	0.033	420278	PROBE_OFF	n/a	6	-999	n/a	n/a	n/a	n/a	2	[0, 0, 0]	-999	PAL1	4	R1283T
413.791	0.967	420311	REC_EVENT	4049	6	6	SKUNK	CLIFF	CLIFF	SKUNK	2	[0, 0, 0]	-999	PAL1	4	R1283T
414.758	0.011	421278	REC_END	n/a	6	-999	n/a	n/a	n/a	n/a	2	[0, 0, 0]	-999	PAL1	4	R1283T
414.769	4.708	421289	RECALL_END	n/a	-999	-999	n/a	n/a	n/a	n/a	2	[0, 0, 0]	-999	PAL1	4	R1283T
419.477	10.928	425996	TRIAL	n/a	-999	-999	n/a	n/a	n/a	n/a	3	[0, 0, 0]	-999	PAL1	4	R1283T
430.405	0.007	436924	ENCODING_START	n/a	-999	-999	n/a	n/a	n/a	n/a	3	[0, 0, 0]	-999	PAL1	4	R1283T
430.412	0.267	436931	STUDY_ORIENT	n/a	1	1	PASTE	LEG	LEG	PASTE	3	[0, 0, 0]	-999	PAL1	4	R1283T
430.679	0.517	437198	STUDY_ORIENT_OFF	n/a	1	1	PASTE	LEG	LEG	PASTE	3	[0, 0, 0]	-999	PAL1	4	R1283T
431.196	4.017	437715	STUDY_PAIR	n/a	1	1	PASTE	LEG	LEG	PASTE	3	[0, 0, 0]	-999	PAL1	4	R1283T
435.213	1.017	441732	PAIR_OFF	n/a	1	1	PASTE	LEG	LEG	PASTE	3	[0, 0, 0]	-999	PAL1	4	R1283T
436.23	0.267	442748	STUDY_ORIENT	n/a	2	6	BOOK	DESK	BOOK	DESK	3	[0, 0, 0]	-999	PAL1	4	R1283T
436.497	0.516	443015	STUDY_ORIENT_OFF	n/a	2	6	BOOK	DESK	BOOK	DESK	3	[0, 0, 0]	-999	PAL1	4	R1283T
437.013	4.017	443531	STUDY_PAIR	n/a	2	6	BOOK	DESK	BOOK	DESK	3	[0, 0, 0]	-999	PAL1	4	R1283T
441.03	1.017	447548	PAIR_OFF	n/a	2	6	BOOK	DESK	BOOK	DESK	3	[0, 0, 0]	-999	PAL1	4	R1283T
442.047	0.268	448565	STUDY_ORIENT	n/a	3	5	SMOKE	CLOUD	CLOUD	SMOKE	3	[0, 0, 0]	-999	PAL1	4	R1283T
442.315	0.665	448833	STUDY_ORIENT_OFF	n/a	3	5	SMOKE	CLOUD	CLOUD	SMOKE	3	[0, 0, 0]	-999	PAL1	4	R1283T
442.98	4.018	449498	STUDY_PAIR	n/a	3	5	SMOKE	CLOUD	CLOUD	SMOKE	3	[0, 0, 0]	-999	PAL1	4	R1283T
446.998	1.017	453516	PAIR_OFF	n/a	3	5	SMOKE	CLOUD	CLOUD	SMOKE	3	[0, 0, 0]	-999	PAL1	4	R1283T
448.015	0.267	454533	STUDY_ORIENT	n/a	4	2	DITCH	PRINCE	PRINCE	DITCH	3	[0, 0, 0]	-999	PAL1	4	R1283T
448.282	0.649	454800	STUDY_ORIENT_OFF	n/a	4	2	DITCH	PRINCE	PRINCE	DITCH	3	[0, 0, 0]	-999	PAL1	4	R1283T
448.931	4.018	455449	STUDY_PAIR	n/a	4	2	DITCH	PRINCE	PRINCE	DITCH	3	[0, 0, 0]	-999	PAL1	4	R1283T
452.949	1.017	459466	PAIR_OFF	n/a	4	2	DITCH	PRINCE	PRINCE	DITCH	3	[0, 0, 0]	-999	PAL1	4	R1283T
453.966	0.267	460483	STUDY_ORIENT	n/a	5	3	FOOT	n/a	MOTH	FOOT	3	[0, 0, 0]	-999	PAL1	4	R1283T
454.233	0.749	460750	STUDY_ORIENT_OFF	n/a	5	3	FOOT	n/a	MOTH	FOOT	3	[0, 0, 0]	-999	PAL1	4	R1283T
454.982	4.018	461499	STUDY_PAIR	n/a	5	3	FOOT	n/a	MOTH	FOOT	3	[0, 0, 0]	-999	PAL1	4	R1283T
459.0	1.017	465517	PAIR_OFF	n/a	5	3	FOOT	n/a	MOTH	FOOT	3	[0, 0, 0]	-999	PAL1	4	R1283T
460.017	0.267	466534	STUDY_ORIENT	n/a	6	4	LAWN	SHIELD	LAWN	SHIELD	3	[0, 0, 0]	-999	PAL1	4	R1283T
460.284	0.766	466801	STUDY_ORIENT_OFF	n/a	6	4	LAWN	SHIELD	LAWN	SHIELD	3	[0, 0, 0]	-999	PAL1	4	R1283T
461.05	4.018	467567	STUDY_PAIR	n/a	6	4	LAWN	SHIELD	LAWN	SHIELD	3	[0, 0, 0]	-999	PAL1	4	R1283T
465.068	1.001	471585	PAIR_OFF	n/a	6	4	LAWN	SHIELD	LAWN	SHIELD	3	[0, 0, 0]	-999	PAL1	4	R1283T
466.069	0.0	472586	ENCODING_END	n/a	-999	-999	n/a	n/a	n/a	n/a	3	[0, 0, 0]	-999	PAL1	4	R1283T
466.069	0.0	472586	MATH_START	n/a	-999	-999	n/a	n/a	n/a	n/a	3	[0, 0, 0]	-999	PAL1	4	R1283T
466.069	0.015	472586	START	n/a	-999	-999	n/a	n/a	n/a	n/a	4	[-999, -999, -999]	-999	PAL1	4	R1283T
466.084	3.252	472601	PROB	3230	-999	-999	n/a	n/a	n/a	n/a	4	[6, 1, 5]	12	PAL1	4	R1283T
469.336	4.918	475852	PROB	4889	-999	-999	n/a	n/a	n/a	n/a	4	[8, 7, 9]	24	PAL1	4	R1283T
474.254	5.184	480770	PROB	5147	-999	-999	n/a	n/a	n/a	n/a	4	[2, 5, 8]	15	PAL1	4	R1283T
479.438	2.234	485954	PROB	2204	-999	-999	n/a	n/a	n/a	n/a	4	[8, 3, 1]	12	PAL1	4	R1283T
481.672	4.333	488188	PROB	4304	-999	-999	n/a	n/a	n/a	n/a	4	[9, 3, 3]	15	PAL1	4	R1283T
486.005	2.539	492520	PROB	2539	-999	-999	n/a	n/a	n/a	n/a	4	[2, 1, 5]	8	PAL1	4	R1283T
488.544	0.012	495059	STOP	n/a	-999	-999	n/a	n/a	n/a	n/a	4	[-999, -999, -999]	-999	PAL1	4	R1283T
488.556	0.0	495071	MATH_END	n/a	-999	-999	n/a	n/a	n/a	n/a	3	[0, 0, 0]	-999	PAL1	4	R1283T
488.556	0.017	495071	RECALL_START	n/a	-999	-999	n/a	n/a	n/a	n/a	3	[0, 0, 0]	-999	PAL1	4	R1283T
488.573	0.266	495088	TEST_ORIENT	n/a	1	1	PASTE	LEG	LEG	PASTE	3	[0, 0, 0]	-999	PAL1	4	R1283T
488.839	0.551	495354	RETRIEVAL_ORIENT_OFF	n/a	-999	-999	n/a	n/a	n/a	n/a	3	[0, 0, 0]	-999	PAL1	4	R1283T
489.39	0.001	495905	TEST_PROBE	n/a	1	1	PASTE	LEG	LEG	PASTE	3	[0, 0, 0]	-999	PAL1	4	R1283T
489.391	2.361	495906	REC_START	n/a	1	-999	n/a	LEG	n/a	n/a	3	[0, 0, 0]	-999	PAL1	4	R1283T
491.752	1.655	498267	REC_EVENT	2361	1	1	PASTE	LEG	LEG	PASTE	3	[0, 0, 0]	-999	PAL1	4	R1283T
493.407	1.0	499922	PROBE_OFF	n/a	1	-999	n/a	n/a	n/a	n/a	3	[0, 0, 0]	-999	PAL1	4	R1283T
494.407	0.017	500922	REC_END	n/a	1	-999	n/a	n/a	n/a	n/a	3	[0, 0, 0]	-999	PAL1	4	R1283T
494.424	0.267	500939	TEST_ORIENT	n/a	4	2	DITCH	PRINCE	PRINCE	DITCH	3	[0, 0, 0]	-999	PAL1	4	R1283T
494.691	0.683	501206	RETRIEVAL_ORIENT_OFF	n/a	1	-999	n/a	n/a	n/a	n/a	3	[0, 0, 0]	-999	PAL1	4	R1283T
495.374	0.001	501889	TEST_PROBE	n/a	4	2	DITCH	PRINCE	PRINCE	DITCH	3	[0, 0, 0]	-999	PAL1	4	R1283T
495.375	1.758	501890	REC_START	n/a	4	-999	n/a	PRINCE	n/a	n/a	3	[0, 0, 0]	-999	PAL1	4	R1283T
497.133	2.259	503648	REC_EVENT	1758	4	2	DITCH	PRINCE	PRINCE	DITCH	3	[0, 0, 0]	-999	PAL1	4	R1283T
499.392	1.0	505907	PROBE_OFF	n/a	4	-999	n/a	n/a	n/a	n/a	3	[0, 0, 0]	-999	PAL1	4	R1283T
500.392	0.016	506907	REC_END	n/a	4	-999	n/a	n/a	n/a	n/a	3	[0, 0, 0]	-999	PAL1	4	R1283T
500.408	0.267	506923	TEST_ORIENT	n/a	5	3	FOOT	n/a	MOTH	FOOT	3	[0, 0, 0]	-999	PAL1	4	R1283T
500.675	0.534	507190	RETRIEVAL_ORIENT_OFF	n/a	4	-999	n/a	n/a	n/a	n/a	3	[0, 0, 0]	-999	PAL1	4	R1283T
501.209	0.0	507724	REC_START	n/a	5	-999	n/a	n/a	n/a	n/a	3	[0, 0, 0]	-999	PAL1	4	R1283T
501.209	4.017	507724	TEST_PROBE	n/a	5	3	FOOT	n/a	MOTH	FOOT	3	[0, 0, 0]	-999	PAL1	4	R1283T
505.226	0.998	511740	PROBE_OFF	n/a	5	-999	n/a	n/a	n/a	n/a	3	[0, 0, 0]	-999	PAL1	4	R1283T
506.224	0.002	512738	REC_EVENT	5015	5	3	FOOT	<>	MOTH	FOOT	3	[0, 0, 0]	-999	PAL1	4	R1283T
506.226	0.017	512740	REC_END	n/a	5	-999	n/a	n/a	n/a	n/a	3	[0, 0, 0]	-999	PAL1	4	R1283T
506.243	0.267	512757	TEST_ORIENT	n/a	6	4	LAWN	SHIELD	LAWN	SHIELD	3	[0, 0, 0]	-999	PAL1	4	R1283T
506.51	0.515	513024	RETRIEVAL_ORIENT_OFF	n/a	5	-999	n/a	n/a	n/a	n/a	3	[0, 0, 0]	-999	PAL1	4	R1283T
507.025	0.001	513539	TEST_PROBE	n/a	6	4	LAWN	SHIELD	LAWN	SHIELD	3	[0, 0, 0]	-999	PAL1	4	R1283T
507.026	1.406	513540	REC_START	n/a	6	-999	n/a	SHIELD	n/a	n/a	3	[0, 0, 0]	-999	PAL1	4	R1283T
508.432	2.611	514946	REC_EVENT	1406	6	4	LAWN	SHIELD	LAWN	SHIELD	3	[0, 0, 0]	-999	PAL1	4	R1283T
511.043	1.0	517557	PROBE_OFF	n/a	6	-999	n/a	n/a	n/a	n/a	3	[0, 0, 0]	-999	PAL1	4	R1283T
512.043	0.017	518557	REC_END	n/a	6	-999	n/a	n/a	n/a	n/a	3	[0, 0, 0]	-999	PAL1	4	R1283T
512.06	0.267	518574	TEST_ORIENT	n/a	3	5	SMOKE	CLOUD	CLOUD	SMOKE	3	[0, 0, 0]	-999	PAL1	4	R1283T
512.327	0.599	518841	RETRIEVAL_ORIENT_OFF	n/a	6	-999	n/a	n/a	n/a	n/a	3	[0, 0, 0]	-999	PAL1	4	R1283T
512.926	0.001	519440	TEST_PROBE	n/a	3	5	SMOKE	CLOUD	CLOUD	SMOKE	3	[0, 0, 0]	-999	PAL1	4	R1283T
512.927	1.814	519441	REC_START	n/a	3	-999	n/a	CLOUD	n/a	n/a	3	[0, 0, 0]	-999	PAL1	4	R1283T
514.741	2.203	521255	REC_EVENT	1814	3	5	SMOKE	CLOUD	CLOUD	SMOKE	3	[0, 0, 0]	-999	PAL1	4	R1283T
516.944	1.0	523458	PROBE_OFF	n/a	3	-999	n/a	n/a	n/a	n/a	3	[0, 0, 0]	-999	PAL1	4	R1283T
517.944	0.017	524458	REC_END	n/a	3	-999	n/a	n/a	n/a	n/a	3	[0, 0, 0]	-999	PAL1	4	R1283T
517.961	0.267	524475	TEST_ORIENT	n/a	2	6	BOOK	DESK	BOOK	DESK	3	[0, 0, 0]	-999	PAL1	4	R1283T
518.228	0.683	524742	RETRIEVAL_ORIENT_OFF	n/a	3	-999	n/a	n/a	n/a	n/a	3	[0, 0, 0]	-999	PAL1	4	R1283T
518.911	0.0	525425	TEST_PROBE	n/a	2	6	BOOK	DESK	BOOK	DESK	3	[0, 0, 0]	-999	PAL1	4	R1283T
518.911	1.859	525425	REC_START	n/a	2	-999	n/a	DESK	n/a	n/a	3	[0, 0, 0]	-999	PAL1	4	R1283T
520.77	2.158	527283	REC_EVENT	1859	2	6	BOOK	DESK	BOOK	DESK	3	[0, 0, 0]	-999	PAL1	4	R1283T
522.928	1.0	529441	PROBE_OFF	n/a	2	-999	n/a	n/a	n/a	n/a	3	[0, 0, 0]	-999	PAL1	4	R1283T
523.928	0.005	530441	REC_END	n/a	2	-999	n/a	n/a	n/a	n/a	3	[0, 0, 0]	-999	PAL1	4	R1283T
523.933	4.096	530446	RECALL_END	n/a	-999	-999	n/a	n/a	n/a	n/a	3	[0, 0, 0]	-999	PAL1	4	R1283T
528.029	10.928	534542	TRIAL	n/a	-999	-999	n/a	n/a	n/a	n/a	4	[0, 0, 0]	-999	PAL1	4	R1283T
538.957	0.007	545469	ENCODING_START	n/a	-999	-999	n/a	n/a	n/a	n/a	4	[0, 0, 0]	-999	PAL1	4	R1283T
538.964	0.268	545476	STUDY_ORIENT	n/a	1	3	CALF	n/a	CALF	CUBE	4	[0, 0, 0]	-999	PAL1	4	R1283T
539.232	0.666	545744	STUDY_ORIENT_OFF	n/a	1	3	CALF	n/a	CALF	CUBE	4	[0, 0, 0]	-999	PAL1	4	R1283T
539.898	4.017	546410	STUDY_PAIR	n/a	1	3	CALF	n/a	CALF	CUBE	4	[0, 0, 0]	-999	PAL1	4	R1283T
543.915	1.017	550427	PAIR_OFF	n/a	1	3	CALF	n/a	CALF	CUBE	4	[0, 0, 0]	-999	PAL1	4	R1283T
544.932	0.268	551444	STUDY_ORIENT	n/a	2	2	HORSE	n/a	HORSE	SQUARE	4	[0, 0, 0]	-999	PAL1	4	R1283T
545.2	0.716	551712	STUDY_ORIENT_OFF	n/a	2	2	HORSE	n/a	HORSE	SQUARE	4	[0, 0, 0]	-999	PAL1	4	R1283T
545.916	4.017	552428	STUDY_PAIR	n/a	2	2	HORSE	n/a	HORSE	SQUARE	4	[0, 0, 0]	-999	PAL1	4	R1283T
549.933	1.017	556445	PAIR_OFF	n/a	2	2	HORSE	n/a	HORSE	SQUARE	4	[0, 0, 0]	-999	PAL1	4	R1283T
550.95	0.268	557462	STUDY_ORIENT	n/a	3	5	MAIL	n/a	MAIL	STRAW	4	[0, 0, 0]	-999	PAL1	4	R1283T
551.218	0.649	557730	STUDY_ORIENT_OFF	n/a	3	5	MAIL	n/a	MAIL	STRAW	4	[0, 0, 0]	-999	PAL1	4	R1283T
551.867	4.017	558379	STUDY_PAIR	n/a	3	5	MAIL	n/a	MAIL	STRAW	4	[0, 0, 0]	-999	PAL1	4	R1283T
555.884	1.017	562395	PAIR_OFF	n/a	3	5	MAIL	n/a	MAIL	STRAW	4	[0, 0, 0]	-999	PAL1	4	R1283T
556.901	0.268	563412	STUDY_ORIENT	n/a	4	4	CANE	JUDGE	CANE	JUDGE	4	[0, 0, 0]	-999	PAL1	4	R1283T
557.169	0.599	563680	STUDY_ORIENT_OFF	n/a	4	4	CANE	JUDGE	CANE	JUDGE	4	[0, 0, 0]	-999	PAL1	4	R1283T
557.768	4.017	564279	STUDY_PAIR	n/a	4	4	CANE	JUDGE	CANE	JUDGE	4	[0, 0, 0]	-999	PAL1	4	R1283T
561.785	1.017	568296	PAIR_OFF	n/a	4	4	CANE	JUDGE	CANE	JUDGE	4	[0, 0, 0]	-999	PAL1	4	R1283T
562.802	0.267	569313	STUDY_ORIENT	n/a	5	1	SCHOOL	n/a	TOOL	SCHOOL	4	[0, 0, 0]	-999	PAL1	4	R1283T
563.069	0.75	569580	STUDY_ORIENT_OFF	n/a	5	1	SCHOOL	n/a	TOOL	SCHOOL	4	[0, 0, 0]	-999	PAL1	4	R1283T
563.819	4.017	570330	STUDY_PAIR	n/a	5	1	SCHOOL	n/a	TOOL	SCHOOL	4	[0, 0, 0]	-999	PAL1	4	R1283T
567.836	1.017	574347	PAIR_OFF	n/a	5	1	SCHOOL	n/a	TOOL	SCHOOL	4	[0, 0, 0]	-999	PAL1	4	R1283T
568.853	0.268	575364	STUDY_ORIENT	n/a	6	6	LIP	SPARK	SPARK	LIP	4	[0, 0, 0]	-999	PAL1	4	R1283T
569.121	0.517	575632	STUDY_ORIENT_OFF	n/a	6	6	LIP	SPARK	SPARK	LIP	4	[0, 0, 0]	-999	PAL1	4	R1283T
569.638	4.017	576148	STUDY_PAIR	n/a	6	6	LIP	SPARK	SPARK	LIP	4	[0, 0, 0]	-999	PAL1	4	R1283T
573.655	1.0	580165	PAIR_OFF	n/a	6	6	LIP	SPARK	SPARK	LIP	4	[0, 0, 0]	-999	PAL1	4	R1283T
574.655	0.0	581165	ENCODING_END	n/a	-999	-999	n/a	n/a	n/a	n/a	4	[0, 0, 0]	-999	PAL1	4	R1283T
574.655	0.001	581165	MATH_START	n/a	-999	-999	n/a	n/a	n/a	n/a	4	[0, 0, 0]	-999	PAL1	4	R1283T
574.656	0.016	581166	START	n/a	-999	-999	n/a	n/a	n/a	n/a	5	[-999, -999, -999]	-999	PAL1	4	R1283T
574.672	3.434	581182	PROB	3400	-999	-999	n/a	n/a	n/a	n/a	5	[2, 6, 6]	14	PAL1	4	R1283T
578.106	2.849	584616	PROB	2813	-999	-999	n/a	n/a	n/a	n/a	5	[3, 2, 7]	12	PAL1	4	R1283T
580.955	2.868	587465	PROB	2836	-999	-999	n/a	n/a	n/a	n/a	5	[7, 8, 1]	16	PAL1	4	R1283T
583.823	3.083	590333	PROB	3049	-999	-999	n/a	n/a	n/a	n/a	5	[7, 5, 9]	21	PAL1	4	R1283T
586.906	2.702	593415	PROB	2680	-999	-999	n/a	n/a	n/a	n/a	5	[2, 4, 5]	11	PAL1	4	R1283T
589.608	1.884	596117	PROB	1849	-999	-999	n/a	n/a	n/a	n/a	5	[8, 2, 4]	14	PAL1	4	R1283T
591.492	3.017	598001	PROB	2981	-999	-999	n/a	n/a	n/a	n/a	5	[1, 5, 8]	16	PAL1	4	R1283T
594.509	5.284	601018	PROB	5284	-999	-999	n/a	n/a	n/a	n/a	5	[2, 1, 2]	5	PAL1	4	R1283T
599.793	0.016	606302	STOP	n/a	-999	-999	n/a	n/a	n/a	n/a	5	[-999, -999, -999]	-999	PAL1	4	R1283T
599.809	0.0	606318	MATH_END	n/a	-999	-999	n/a	n/a	n/a	n/a	4	[0, 0, 0]	-999	PAL1	4	R1283T
599.809	0.016	606318	RECALL_START	n/a	-999	-999	n/a	n/a	n/a	n/a	4	[0, 0, 0]	-999	PAL1	4	R1283T
599.825	0.267	606334	TEST_ORIENT	n/a	5	1	SCHOOL	n/a	TOOL	SCHOOL	4	[0, 0, 0]	-999	PAL1	4	R1283T
600.092	0.551	606601	RETRIEVAL_ORIENT_OFF	n/a	-999	-999	n/a	n/a	n/a	n/a	4	[0, 0, 0]	-999	PAL1	4	R1283T
600.643	0.001	607152	TEST_PROBE	n/a	5	1	SCHOOL	n/a	TOOL	SCHOOL	4	[0, 0, 0]	-999	PAL1	4	R1283T
600.644	4.017	607153	REC_START	n/a	5	-999	n/a	n/a	n/a	n/a	4	[0, 0, 0]	-999	PAL1	4	R1283T
604.661	0.998	611169	PROBE_OFF	n/a	5	-999	n/a	n/a	n/a	n/a	4	[0, 0, 0]	-999	PAL1	4	R1283T
605.659	0.002	612167	REC_EVENT	5015	5	1	SCHOOL	<>	TOOL	SCHOOL	4	[0, 0, 0]	-999	PAL1	4	R1283T
605.661	0.017	612169	REC_END	n/a	5	-999	n/a	n/a	n/a	n/a	4	[0, 0, 0]	-999	PAL1	4	R1283T
605.678	0.265	612186	TEST_ORIENT	n/a	2	2	HORSE	n/a	HORSE	SQUARE	4	[0, 0, 0]	-999	PAL1	4	R1283T
605.943	0.635	612451	RETRIEVAL_ORIENT_OFF	n/a	5	-999	n/a	n/a	n/a	n/a	4	[0, 0, 0]	-999	PAL1	4	R1283T
606.578	0.0	613086	TEST_PROBE	n/a	2	2	HORSE	n/a	HORSE	SQUARE	4	[0, 0, 0]	-999	PAL1	4	R1283T
606.578	4.017	613086	REC_START	n/a	2	-999	n/a	n/a	n/a	n/a	4	[0, 0, 0]	-999	PAL1	4	R1283T
610.595	0.998	617103	PROBE_OFF	n/a	2	-999	n/a	n/a	n/a	n/a	4	[0, 0, 0]	-999	PAL1	4	R1283T
611.593	0.002	618101	REC_EVENT	5015	2	2	HORSE	<>	HORSE	SQUARE	4	[0, 0, 0]	-999	PAL1	4	R1283T
611.595	0.017	618103	REC_END	n/a	2	-999	n/a	n/a	n/a	n/a	4	[0, 0, 0]	-999	PAL1	4	R1283T
611.612	0.266	618120	TEST_ORIENT	n/a	1	3	CALF	n/a	CALF	CUBE	4	[0, 0, 0]	-999	PAL1	4	R1283T
611.878	0.651	618386	RETRIEVAL_ORIENT_OFF	n/a	2	-999	n/a	n/a	n/a	n/a	4	[0, 0, 0]	-999	PAL1	4	R1283T
612.529	0.001	619037	TEST_PROBE	n/a	1	3	CALF	n/a	CALF	CUBE	4	[0, 0, 0]	-999	PAL1	4	R1283T
612.53	4.016	619038	REC_START	n/a	1	-999	n/a	n/a	n/a	n/a	4	[0, 0, 0]	-999	PAL1	4	R1283T
616.546	0.999	623054	PROBE_OFF	n/a	1	-999	n/a	n/a	n/a	n/a	4	[0, 0, 0]	-999	PAL1	4	R1283T
617.545	0.001	624053	REC_EVENT	5015	1	3	CALF	<>	CALF	CUBE	4	[0, 0, 0]	-999	PAL1	4	R1283T
617.546	0.017	624054	REC_END	n/a	1	-999	n/a	n/a	n/a	n/a	4	[0, 0, 0]	-999	PAL1	4	R1283T
617.563	0.266	624071	TEST_ORIENT	n/a	4	4	CANE	JUDGE	CANE	JUDGE	4	[0, 0, 0]	-999	PAL1	4	R1283T
617.829	0.601	624337	RETRIEVAL_ORIENT_OFF	n/a	1	-999	n/a	n/a	n/a	n/a	4	[0, 0, 0]	-999	PAL1	4	R1283T
618.43	0.001	624938	TEST_PROBE	n/a	4	4	CANE	JUDGE	CANE	JUDGE	4	[0, 0, 0]	-999	PAL1	4	R1283T
618.431	2.121	624939	REC_START	n/a	4	-999	n/a	JUDGE	n/a	n/a	4	[0, 0, 0]	-999	PAL1	4	R1283T
620.552	1.895	627059	REC_EVENT	2121	4	4	CANE	JUDGE	CANE	JUDGE	4	[0, 0, 0]	-999	PAL1	4	R1283T
622.447	1.001	628954	PROBE_OFF	n/a	4	-999	n/a	n/a	n/a	n/a	4	[0, 0, 0]	-999	PAL1	4	R1283T
623.448	0.016	629955	REC_END	n/a	4	-999	n/a	n/a	n/a	n/a	4	[0, 0, 0]	-999	PAL1	4	R1283T
623.464	0.266	629971	TEST_ORIENT	n/a	3	5	MAIL	n/a	MAIL	STRAW	4	[0, 0, 0]	-999	PAL1	4	R1283T
623.73	0.701	630237	RETRIEVAL_ORIENT_OFF	n/a	4	-999	n/a	n/a	n/a	n/a	4	[0, 0, 0]	-999	PAL1	4	R1283T
624.431	0.001	630938	TEST_PROBE	n/a	3	5	MAIL	n/a	MAIL	STRAW	4	[0, 0, 0]	-999	PAL1	4	R1283T
624.432	4.016	630939	REC_START	n/a	3	-999	n/a	n/a	n/a	n/a	4	[0, 0, 0]	-999	PAL1	4	R1283T
628.448	0.999	634955	PROBE_OFF	n/a	3	-999	n/a	n/a	n/a	n/a	4	[0, 0, 0]	-999	PAL1	4	R1283T
629.447	0.001	635954	REC_EVENT	5015	3	5	MAIL	<>	MAIL	STRAW	4	[0, 0, 0]	-999	PAL1	4	R1283T
629.448	0.017	635955	REC_END	n/a	3	-999	n/a	n/a	n/a	n/a	4	[0, 0, 0]	-999	PAL1	4	R1283T
629.465	0.266	635972	TEST_ORIENT	n/a	6	6	LIP	SPARK	SPARK	LIP	4	[0, 0, 0]	-999	PAL1	4	R1283T
629.731	0.684	636238	RETRIEVAL_ORIENT_OFF	n/a	3	-999	n/a	n/a	n/a	n/a	4	[0, 0, 0]	-999	PAL1	4	R1283T
630.415	0.001	636922	TEST_PROBE	n/a	6	6	LIP	SPARK	SPARK	LIP	4	[0, 0, 0]	-999	PAL1	4	R1283T
630.416	2.36	636923	REC_START	n/a	6	-999	n/a	SPARK	n/a	n/a	4	[0, 0, 0]	-999	PAL1	4	R1283T
632.776	1.64	639283	REC_EVENT	2360	6	6	LIP	SPARK	SPARK	LIP	4	[0, 0, 0]	-999	PAL1	4	R1283T
634.416	1.0	640923	PROBE_OFF	n/a	6	-999	n/a	n/a	n/a	n/a	4	[0, 0, 0]	-999	PAL1	4	R1283T
635.416	0.01	641923	REC_END	n/a	6	-999	n/a	n/a	n/a	n/a	4	[0, 0, 0]	-999	PAL1	4	R1283T
635.426	3.874	641933	RECALL_END	n/a	-999	-999	n/a	n/a	n/a	n/a	4	[0, 0, 0]	-999	PAL1	4	R1283T
639.3	10.928	645806	TRIAL	n/a	-999	-999	n/a	n/a	n/a	n/a	5	[0, 0, 0]	-999	PAL1	4	R1283T
650.228	0.008	656734	ENCODING_START	n/a	-999	-999	n/a	n/a	n/a	n/a	5	[0, 0, 0]	-999	PAL1	4	R1283T
650.236	0.266	656742	STUDY_ORIENT	n/a	1	5	SUN	CHIN	CHIN	SUN	5	[0, 0, 0]	-999	PAL1	4	R1283T
650.502	0.583	657008	STUDY_ORIENT_OFF	n/a	1	5	SUN	CHIN	CHIN	SUN	5	[0, 0, 0]	-999	PAL1	4	R1283T
651.085	4.018	657591	STUDY_PAIR	n/a	1	5	SUN	CHIN	CHIN	SUN	5	[0, 0, 0]	-999	PAL1	4	R1283T
655.103	1.017	661608	PAIR_OFF	n/a	1	5	SUN	CHIN	CHIN	SUN	5	[0, 0, 0]	-999	PAL1	4	R1283T
656.12	0.267	662625	STUDY_ORIENT	n/a	2	6	BRANCH	n/a	HILL	BRANCH	5	[0, 0, 0]	-999	PAL1	4	R1283T
656.387	0.699	662892	STUDY_ORIENT_OFF	n/a	2	6	BRANCH	n/a	HILL	BRANCH	5	[0, 0, 0]	-999	PAL1	4	R1283T
657.086	4.018	663591	STUDY_PAIR	n/a	2	6	BRANCH	n/a	HILL	BRANCH	5	[0, 0, 0]	-999	PAL1	4	R1283T
661.104	1.017	667609	PAIR_OFF	n/a	2	6	BRANCH	n/a	HILL	BRANCH	5	[0, 0, 0]	-999	PAL1	4	R1283T
662.121	0.267	668626	STUDY_ORIENT	n/a	3	3	ANT	n/a	RAKE	ANT	5	[0, 0, 0]	-999	PAL1	4	R1283T
662.388	0.599	668893	STUDY_ORIENT_OFF	n/a	3	3	ANT	n/a	RAKE	ANT	5	[0, 0, 0]	-999	PAL1	4	R1283T
662.987	4.017	669492	STUDY_PAIR	n/a	3	3	ANT	n/a	RAKE	ANT	5	[0, 0, 0]	-999	PAL1	4	R1283T
667.004	1.017	673509	PAIR_OFF	n/a	3	3	ANT	n/a	RAKE	ANT	5	[0, 0, 0]	-999	PAL1	4	R1283T
668.021	0.268	674526	STUDY_ORIENT	n/a	4	4	CLAY	MULE	CLAY	GOAT	5	[0, 0, 0]	-999	PAL1	4	R1283T
668.289	0.649	674794	STUDY_ORIENT_OFF	n/a	4	4	CLAY	MULE	CLAY	GOAT	5	[0, 0, 0]	-999	PAL1	4	R1283T
668.938	4.017	675443	STUDY_PAIR	n/a	4	4	CLAY	MULE	CLAY	GOAT	5	[0, 0, 0]	-999	PAL1	4	R1283T
672.955	1.017	679459	PAIR_OFF	n/a	4	4	CLAY	MULE	CLAY	GOAT	5	[0, 0, 0]	-999	PAL1	4	R1283T
673.972	0.251	680476	STUDY_ORIENT	n/a	5	1	ZOO	FORK	ZOO	FORK	5	[0, 0, 0]	-999	PAL1	4	R1283T
674.223	0.616	680727	STUDY_ORIENT_OFF	n/a	5	1	ZOO	FORK	ZOO	FORK	5	[0, 0, 0]	-999	PAL1	4	R1283T
674.839	4.018	681343	STUDY_PAIR	n/a	5	1	ZOO	FORK	ZOO	FORK	5	[0, 0, 0]	-999	PAL1	4	R1283T
678.857	1.016	685361	PAIR_OFF	n/a	5	1	ZOO	FORK	ZOO	FORK	5	[0, 0, 0]	-999	PAL1	4	R1283T
679.873	0.251	686377	STUDY_ORIENT	n/a	6	2	VINE	BLUSH	VINE	BLUSH	5	[0, 0, 0]	-999	PAL1	4	R1283T
680.124	0.649	686628	STUDY_ORIENT_OFF	n/a	6	2	VINE	BLUSH	VINE	BLUSH	5	[0, 0, 0]	-999	PAL1	4	R1283T
680.773	4.001	687277	STUDY_PAIR	n/a	6	2	VINE	BLUSH	VINE	BLUSH	5	[0, 0, 0]	-999	PAL1	4	R1283T
684.774	1.0	691278	PAIR_OFF	n/a	6	2	VINE	BLUSH	VINE	BLUSH	5	[0, 0, 0]	-999	PAL1	4	R1283T
685.774	0.0	692278	ENCODING_END	n/a	-999	-999	n/a	n/a	n/a	n/a	5	[0, 0, 0]	-999	PAL1	4	R1283T
685.774	0.0	692278	MATH_START	n/a	-999	-999	n/a	n/a	n/a	n/a	5	[0, 0, 0]	-999	PAL1	4	R1283T
685.774	0.017	692278	START	n/a	-999	-999	n/a	n/a	n/a	n/a	6	[-999, -999, -999]	-999	PAL1	4	R1283T
685.791	3.535	692295	PROB	3498	-999	-999	n/a	n/a	n/a	n/a	6	[3, 4, 6]	13	PAL1	4	R1283T
689.326	2.267	695829	PROB	2243	-999	-999	n/a	n/a	n/a	n/a	6	[7, 8, 2]	17	PAL1	4	R1283T
691.593	2.3	698096	PROB	2271	-999	-999	n/a	n/a	n/a	n/a	6	[1, 2, 9]	12	PAL1	4	R1283T
693.893	2.484	700396	PROB	2460	-999	-999	n/a	n/a	n/a	n/a	6	[2, 5, 7]	14	PAL1	4	R1283T
696.377	3.318	702880	PROB	3280	-999	-999	n/a	n/a	n/a	n/a	6	[8, 1, 9]	18	PAL1	4	R1283T
699.695	3.066	706198	PROB	3041	-999	-999	n/a	n/a	n/a	n/a	6	[4, 4, 8]	16	PAL1	4	R1283T
702.761	2.885	709264	PROB	2855	-999	-999	n/a	n/a	n/a	n/a	6	[2, 1, 7]	10	PAL1	4	R1283T
705.646	4.803	712148	PROB	4803	-999	-999	n/a	n/a	n/a	n/a	6	[3, 3, 4]	10	PAL1	4	R1283T
710.449	0.014	716951	STOP	n/a	-999	-999	n/a	n/a	n/a	n/a	6	[-999, -999, -999]	-999	PAL1	4	R1283T
710.463	0.001	716965	MATH_END	n/a	-999	-999	n/a	n/a	n/a	n/a	5	[0, 0, 0]	-999	PAL1	4	R1283T
710.464	0.016	716966	RECALL_START	n/a	-999	-999	n/a	n/a	n/a	n/a	5	[0, 0, 0]	-999	PAL1	4	R1283T
710.48	0.266	716982	TEST_ORIENT	n/a	5	1	ZOO	FORK	ZOO	FORK	5	[0, 0, 0]	-999	PAL1	4	R1283T
710.746	0.601	717248	RETRIEVAL_ORIENT_OFF	n/a	-999	-999	n/a	n/a	n/a	n/a	5	[0, 0, 0]	-999	PAL1	4	R1283T
711.347	0.0	717849	TEST_PROBE	n/a	5	1	ZOO	FORK	ZOO	FORK	5	[0, 0, 0]	-999	PAL1	4	R1283T
711.347	1.336	717849	REC_START	n/a	5	-999	n/a	FORK	n/a	n/a	5	[0, 0, 0]	-999	PAL1	4	R1283T
712.683	2.681	719185	REC_EVENT	1336	5	1	ZOO	FORK	ZOO	FORK	5	[0, 0, 0]	-999	PAL1	4	R1283T
715.364	1.0	721866	PROBE_OFF	n/a	5	-999	n/a	n/a	n/a	n/a	5	[0, 0, 0]	-999	PAL1	4	R1283T
716.364	0.017	722866	REC_END	n/a	5	-999	n/a	n/a	n/a	n/a	5	[0, 0, 0]	-999	PAL1	4	R1283T
716.381	0.267	722883	TEST_ORIENT	n/a	6	2	VINE	BLUSH	VINE	BLUSH	5	[0, 0, 0]	-999	PAL1	4	R1283T
716.648	0.533	723150	RETRIEVAL_ORIENT_OFF	n/a	5	-999	n/a	n/a	n/a	n/a	5	[0, 0, 0]	-999	PAL1	4	R1283T
717.181	0.001	723683	TEST_PROBE	n/a	6	2	VINE	BLUSH	VINE	BLUSH	5	[0, 0, 0]	-999	PAL1	4	R1283T
717.182	1.524	723684	REC_START	n/a	6	-999	n/a	BLUSH	n/a	n/a	5	[0, 0, 0]	-999	PAL1	4	R1283T
718.706	2.493	725208	REC_EVENT	1524	6	2	VINE	BLUSH	VINE	BLUSH	5	[0, 0, 0]	-999	PAL1	4	R1283T
721.199	1.011	727700	PROBE_OFF	n/a	6	-999	n/a	n/a	n/a	n/a	5	[0, 0, 0]	-999	PAL1	4	R1283T
722.21	0.022	728711	REC_END	n/a	6	-999	n/a	n/a	n/a	n/a	5	[0, 0, 0]	-999	PAL1	4	R1283T
722.232	0.267	728733	TEST_ORIENT	n/a	3	3	ANT	n/a	RAKE	ANT	5	[0, 0, 0]	-999	PAL1	4	R1283T
722.499	0.65	729000	RETRIEVAL_ORIENT_OFF	n/a	6	-999	n/a	n/a	n/a	n/a	5	[0, 0, 0]	-999	PAL1	4	R1283T
723.149	0.001	729650	TEST_PROBE	n/a	3	3	ANT	n/a	RAKE	ANT	5	[0, 0, 0]	-999	PAL1	4	R1283T
723.15	4.016	729651	REC_START	n/a	3	-999	n/a	n/a	n/a	n/a	5	[0, 0, 0]	-999	PAL1	4	R1283T
727.166	0.999	733667	PROBE_OFF	n/a	3	-999	n/a	n/a	n/a	n/a	5	[0, 0, 0]	-999	PAL1	4	R1283T
728.165	0.001	734666	REC_EVENT	5015	3	3	ANT	<>	RAKE	ANT	5	[0, 0, 0]	-999	PAL1	4	R1283T
728.166	0.017	734667	REC_END	n/a	3	-999	n/a	n/a	n/a	n/a	5	[0, 0, 0]	-999	PAL1	4	R1283T
728.183	0.267	734684	TEST_ORIENT	n/a	4	4	CLAY	MULE	CLAY	GOAT	5	[0, 0, 0]	-999	PAL1	4	R1283T
728.45	0.683	734951	RETRIEVAL_ORIENT_OFF	n/a	3	-999	n/a	n/a	n/a	n/a	5	[0, 0, 0]	-999	PAL1	4	R1283T
729.133	0.001	735634	TEST_PROBE	n/a	4	4	CLAY	MULE	CLAY	GOAT	5	[0, 0, 0]	-999	PAL1	4	R1283T
729.134	1.855	735635	REC_START	n/a	4	-999	n/a	MULE	n/a	n/a	5	[0, 0, 0]	-999	PAL1	4	R1283T
730.989	2.162	737490	REC_EVENT	1855	4	4	CLAY	MULE	CLAY	GOAT	5	[0, 0, 0]	-999	PAL1	4	R1283T
733.151	1.0	739652	PROBE_OFF	n/a	4	-999	n/a	n/a	n/a	n/a	5	[0, 0, 0]	-999	PAL1	4	R1283T
734.151	0.017	740652	REC_END	n/a	4	-999	n/a	n/a	n/a	n/a	5	[0, 0, 0]	-999	PAL1	4	R1283T
734.168	0.266	740669	TEST_ORIENT	n/a	1	5	SUN	CHIN	CHIN	SUN	5	[0, 0, 0]	-999	PAL1	4	R1283T
734.434	0.549	740935	RETRIEVAL_ORIENT_OFF	n/a	4	-999	n/a	n/a	n/a	n/a	5	[0, 0, 0]	-999	PAL1	4	R1283T
734.983	0.001	741484	TEST_PROBE	n/a	1	5	SUN	CHIN	CHIN	SUN	5	[0, 0, 0]	-999	PAL1	4	R1283T
734.984	1.971	741485	REC_START	n/a	1	-999	n/a	CHIN	n/a	n/a	5	[0, 0, 0]	-999	PAL1	4	R1283T
736.955	2.046	743456	REC_EVENT	1971	1	5	SUN	CHIN	CHIN	SUN	5	[0, 0, 0]	-999	PAL1	4	R1283T
739.001	1.012	745501	PROBE_OFF	n/a	1	-999	n/a	n/a	n/a	n/a	5	[0, 0, 0]	-999	PAL1	4	R1283T
740.013	0.021	746513	REC_END	n/a	1	-999	n/a	n/a	n/a	n/a	5	[0, 0, 0]	-999	PAL1	4	R1283T
740.034	0.268	746534	TEST_ORIENT	n/a	2	6	BRANCH	n/a	HILL	BRANCH	5	[0, 0, 0]	-999	PAL1	4	R1283T
740.302	0.666	746802	RETRIEVAL_ORIENT_OFF	n/a	1	-999	n/a	n/a	n/a	n/a	5	[0, 0, 0]	-999	PAL1	4	R1283T
740.968	0.001	747468	TEST_PROBE	n/a	2	6	BRANCH	n/a	HILL	BRANCH	5	[0, 0, 0]	-999	PAL1	4	R1283T
740.969	4.016	747469	REC_START	n/a	2	-999	n/a	n/a	n/a	n/a	5	[0, 0, 0]	-999	PAL1	4	R1283T
744.985	1.001	751485	PROBE_OFF	n/a	2	-999	n/a	n/a	n/a	n/a	5	[0, 0, 0]	-999	PAL1	4	R1283T
745.986	0.004	752486	REC_END	n/a	2	-999	n/a	n/a	n/a	n/a	5	[0, 0, 0]	-999	PAL1	4	R1283T
745.99	0.006	752490	REC_EVENT	5021	2	6	BRANCH	<>	HILL	BRANCH	5	[0, 0, 0]	-999	PAL1	4	R1283T
745.996	3.907	752496	RECALL_END	n/a	-999	-999	n/a	n/a	n/a	n/a	5	[0, 0, 0]	-999	PAL1	4	R1283T
749.903	10.928	756403	TRIAL	n/a	-999	-999	n/a	n/a	n/a	n/a	6	[0, 0, 0]	-999	PAL1	4	R1283T
760.831	0.007	767330	ENCODING_START	n/a	-999	-999	n/a	n/a	n/a	n/a	6	[0, 0, 0]	-999	PAL1	4	R1283T
760.838	0.268	767337	STUDY_ORIENT	n/a	1	3	SLIME	n/a	SLIME	PET	6	[0, 0, 0]	-999	PAL1	4	R1283T
761.106	0.666	767605	STUDY_ORIENT_OFF	n/a	1	3	SLIME	n/a	SLIME	PET	6	[0, 0, 0]	-999	PAL1	4	R1283T
761.772	4.017	768271	STUDY_PAIR	n/a	1	3	SLIME	n/a	SLIME	PET	6	[0, 0, 0]	-999	PAL1	4	R1283T
765.789	1.017	772288	PAIR_OFF	n/a	1	3	SLIME	n/a	SLIME	PET	6	[0, 0, 0]	-999	PAL1	4	R1283T
766.806	0.267	773305	STUDY_ORIENT	n/a	2	4	CONE	n/a	SHELL	CONE	6	[0, 0, 0]	-999	PAL1	4	R1283T
767.073	0.75	773572	STUDY_ORIENT_OFF	n/a	2	4	CONE	n/a	SHELL	CONE	6	[0, 0, 0]	-999	PAL1	4	R1283T
767.823	4.017	774322	STUDY_PAIR	n/a	2	4	CONE	n/a	SHELL	CONE	6	[0, 0, 0]	-999	PAL1	4	R1283T
771.84	1.017	778338	PAIR_OFF	n/a	2	4	CONE	n/a	SHELL	CONE	6	[0, 0, 0]	-999	PAL1	4	R1283T
772.857	0.268	779355	STUDY_ORIENT	n/a	3	5	SOUP	n/a	BEE	SOUP	6	[0, 0, 0]	-999	PAL1	4	R1283T
773.125	0.665	779623	STUDY_ORIENT_OFF	n/a	3	5	SOUP	n/a	BEE	SOUP	6	[0, 0, 0]	-999	PAL1	4	R1283T
773.79	4.018	780288	STUDY_PAIR	n/a	3	5	SOUP	n/a	BEE	SOUP	6	[0, 0, 0]	-999	PAL1	4	R1283T
777.808	1.017	784306	PAIR_OFF	n/a	3	5	SOUP	n/a	BEE	SOUP	6	[0, 0, 0]	-999	PAL1	4	R1283T
778.825	0.266	785323	STUDY_ORIENT	n/a	4	6	INK	CAKE	CAKE	INK	6	[0, 0, 0]	-999	PAL1	4	R1283T
779.091	0.568	785589	STUDY_ORIENT_OFF	n/a	4	6	INK	CAKE	CAKE	INK	6	[0, 0, 0]	-999	PAL1	4	R1283T
779.659	4.018	786157	STUDY_PAIR	n/a	4	6	INK	CAKE	CAKE	INK	6	[0, 0, 0]	-999	PAL1	4	R1283T
783.677	1.017	790175	PAIR_OFF	n/a	4	6	INK	CAKE	CAKE	INK	6	[0, 0, 0]	-999	PAL1	4	R1283T
784.694	0.265	791192	STUDY_ORIENT	n/a	5	1	FLAG	PEN	FLAG	PEN	6	[0, 0, 0]	-999	PAL1	4	R1283T
784.959	0.668	791457	STUDY_ORIENT_OFF	n/a	5	1	FLAG	PEN	FLAG	PEN	6	[0, 0, 0]	-999	PAL1	4	R1283T
785.627	4.017	792125	STUDY_PAIR	n/a	5	1	FLAG	PEN	FLAG	PEN	6	[0, 0, 0]	-999	PAL1	4	R1283T
789.644	1.017	796141	PAIR_OFF	n/a	5	1	FLAG	PEN	FLAG	PEN	6	[0, 0, 0]	-999	PAL1	4	R1283T
790.661	0.266	797158	STUDY_ORIENT	n/a	6	2	SEA	CAR	SEA	CAR	6	[0, 0, 0]	-999	PAL1	4	R1283T
790.927	0.518	797424	STUDY_ORIENT_OFF	n/a	6	2	SEA	CAR	SEA	CAR	6	[0, 0, 0]	-999	PAL1	4	R1283T
791.445	4.017	797942	STUDY_PAIR	n/a	6	2	SEA	CAR	SEA	CAR	6	[0, 0, 0]	-999	PAL1	4	R1283T
795.462	1.0	801959	PAIR_OFF	n/a	6	2	SEA	CAR	SEA	CAR	6	[0, 0, 0]	-999	PAL1	4	R1283T
796.462	0.0	802959	ENCODING_END	n/a	-999	-999	n/a	n/a	n/a	n/a	6	[0, 0, 0]	-999	PAL1	4	R1283T
796.462	0.001	802959	MATH_START	n/a	-999	-999	n/a	n/a	n/a	n/a	6	[0, 0, 0]	-999	PAL1	4	R1283T
796.463	0.016	802960	START	n/a	-999	-999	n/a	n/a	n/a	n/a	7	[-999, -999, -999]	-999	PAL1	4	R1283T
796.479	3.184	802976	PROB	3154	-999	-999	n/a	n/a	n/a	n/a	7	[9, 2, 8]	19	PAL1	4	R1283T
799.663	2.9	806160	PROB	2866	-999	-999	n/a	n/a	n/a	n/a	7	[5, 7, 7]	19	PAL1	4	R1283T
802.563	2.784	809060	PROB	2750	-999	-999	n/a	n/a	n/a	n/a	7	[9, 1, 2]	12	PAL1	4	R1283T
805.347	2.733	811843	PROB	2709	-999	-999	n/a	n/a	n/a	n/a	7	[9, 7, 5]	21	PAL1	4	R1283T
808.08	2.318	814576	PROB	2281	-999	-999	n/a	n/a	n/a	n/a	7	[5, 3, 4]	12	PAL1	4	R1283T
810.398	2.784	816894	PROB	2754	-999	-999	n/a	n/a	n/a	n/a	7	[4, 3, 8]	15	PAL1	4	R1283T
813.182	5.65	819678	PROB	5650	-999	-999	n/a	n/a	n/a	n/a	7	[7, 1, 9]	16	PAL1	4	R1283T
818.832	0.017	825328	STOP	n/a	-999	-999	n/a	n/a	n/a	n/a	7	[-999, -999, -999]	-999	PAL1	4	R1283T
818.849	0.0	825345	MATH_END	n/a	-999	-999	n/a	n/a	n/a	n/a	6	[0, 0, 0]	-999	PAL1	4	R1283T
818.849	0.016	825345	RECALL_START	n/a	-999	-999	n/a	n/a	n/a	n/a	6	[0, 0, 0]	-999	PAL1	4	R1283T
818.865	0.268	825361	TEST_ORIENT	n/a	5	1	FLAG	PEN	FLAG	PEN	6	[0, 0, 0]	-999	PAL1	4	R1283T
819.133	0.633	825629	RETRIEVAL_ORIENT_OFF	n/a	-999	-999	n/a	n/a	n/a	n/a	6	[0, 0, 0]	-999	PAL1	4	R1283T
819.766	0.0	826262	TEST_PROBE	n/a	5	1	FLAG	PEN	FLAG	PEN	6	[0, 0, 0]	-999	PAL1	4	R1283T
819.766	0.973	826262	REC_START	n/a	5	-999	n/a	PEN	n/a	n/a	6	[0, 0, 0]	-999	PAL1	4	R1283T
820.739	3.044	827235	REC_EVENT	973	5	1	FLAG	PEN	FLAG	PEN	6	[0, 0, 0]	-999	PAL1	4	R1283T
823.783	1.0	830278	PROBE_OFF	n/a	5	-999	n/a	n/a	n/a	n/a	6	[0, 0, 0]	-999	PAL1	4	R1283T
824.783	0.017	831278	REC_END	n/a	5	-999	n/a	n/a	n/a	n/a	6	[0, 0, 0]	-999	PAL1	4	R1283T
824.8	0.266	831295	TEST_ORIENT	n/a	6	2	SEA	CAR	SEA	CAR	6	[0, 0, 0]	-999	PAL1	4	R1283T
825.066	0.535	831561	RETRIEVAL_ORIENT_OFF	n/a	5	-999	n/a	n/a	n/a	n/a	6	[0, 0, 0]	-999	PAL1	4	R1283T
825.601	0.0	832096	TEST_PROBE	n/a	6	2	SEA	CAR	SEA	CAR	6	[0, 0, 0]	-999	PAL1	4	R1283T
825.601	2.095	832096	REC_START	n/a	6	-999	n/a	CAR	n/a	n/a	6	[0, 0, 0]	-999	PAL1	4	R1283T
827.696	1.922	834191	REC_EVENT	2095	6	2	SEA	CAR	SEA	CAR	6	[0, 0, 0]	-999	PAL1	4	R1283T
829.618	1.001	836113	PROBE_OFF	n/a	6	-999	n/a	n/a	n/a	n/a	6	[0, 0, 0]	-999	PAL1	4	R1283T
830.619	0.016	837114	REC_END	n/a	6	-999	n/a	n/a	n/a	n/a	6	[0, 0, 0]	-999	PAL1	4	R1283T
830.635	0.266	837130	TEST_ORIENT	n/a	1	3	SLIME	n/a	SLIME	PET	6	[0, 0, 0]	-999	PAL1	4	R1283T
830.901	0.668	837396	RETRIEVAL_ORIENT_OFF	n/a	6	-999	n/a	n/a	n/a	n/a	6	[0, 0, 0]	-999	PAL1	4	R1283T
831.569	0.0	838064	TEST_PROBE	n/a	1	3	SLIME	n/a	SLIME	PET	6	[0, 0, 0]	-999	PAL1	4	R1283T
831.569	4.017	838064	REC_START	n/a	1	-999	n/a	n/a	n/a	n/a	6	[0, 0, 0]	-999	PAL1	4	R1283T
835.586	0.998	842081	PROBE_OFF	n/a	1	-999	n/a	n/a	n/a	n/a	6	[0, 0, 0]	-999	PAL1	4	R1283T
836.584	0.002	843079	REC_EVENT	5015	1	3	SLIME	<>	SLIME	PET	6	[0, 0, 0]	-999	PAL1	4	R1283T
836.586	0.017	843081	REC_END	n/a	1	-999	n/a	n/a	n/a	n/a	6	[0, 0, 0]	-999	PAL1	4	R1283T
836.603	0.266	843098	TEST_ORIENT	n/a	2	4	CONE	n/a	SHELL	CONE	6	[0, 0, 0]	-999	PAL1	4	R1283T
836.869	0.701	843364	RETRIEVAL_ORIENT_OFF	n/a	1	-999	n/a	n/a	n/a	n/a	6	[0, 0, 0]	-999	PAL1	4	R1283T
837.57	0.001	844065	TEST_PROBE	n/a	2	4	CONE	n/a	SHELL	CONE	6	[0, 0, 0]	-999	PAL1	4	R1283T
837.571	4.016	844066	REC_START	n/a	2	-999	n/a	n/a	n/a	n/a	6	[0, 0, 0]	-999	PAL1	4	R1283T
841.587	0.999	848081	PROBE_OFF	n/a	2	-999	n/a	n/a	n/a	n/a	6	[0, 0, 0]	-999	PAL1	4	R1283T
842.586	0.001	849080	REC_EVENT	5015	2	4	CONE	<>	SHELL	CONE	6	[0, 0, 0]	-999	PAL1	4	R1283T
842.587	0.017	849081	REC_END	n/a	2	-999	n/a	n/a	n/a	n/a	6	[0, 0, 0]	-999	PAL1	4	R1283T
842.604	0.266	849098	TEST_ORIENT	n/a	3	5	SOUP	n/a	BEE	SOUP	6	[0, 0, 0]	-999	PAL1	4	R1283T
842.87	0.684	849364	RETRIEVAL_ORIENT_OFF	n/a	2	-999	n/a	n/a	n/a	n/a	6	[0, 0, 0]	-999	PAL1	4	R1283T
843.554	0.001	850048	TEST_PROBE	n/a	3	5	SOUP	n/a	BEE	SOUP	6	[0, 0, 0]	-999	PAL1	4	R1283T
843.555	4.017	850049	REC_START	n/a	3	-999	n/a	n/a	n/a	n/a	6	[0, 0, 0]	-999	PAL1	4	R1283T
847.572	1.0	854066	PROBE_OFF	n/a	3	-999	n/a	n/a	n/a	n/a	6	[0, 0, 0]	-999	PAL1	4	R1283T
848.572	0.004	855066	REC_END	n/a	3	-999	n/a	n/a	n/a	n/a	6	[0, 0, 0]	-999	PAL1	4	R1283T
848.576	0.013	855070	REC_EVENT	5021	3	5	SOUP	<>	BEE	SOUP	6	[0, 0, 0]	-999	PAL1	4	R1283T
848.589	0.265	855083	TEST_ORIENT	n/a	4	6	INK	CAKE	CAKE	INK	6	[0, 0, 0]	-999	PAL1	4	R1283T
848.854	0.601	855348	RETRIEVAL_ORIENT_OFF	n/a	3	-999	n/a	n/a	n/a	n/a	6	[0, 0, 0]	-999	PAL1	4	R1283T
849.455	0.001	855949	TEST_PROBE	n/a	4	6	INK	CAKE	CAKE	INK	6	[0, 0, 0]	-999	PAL1	4	R1283T
849.456	2.942	855950	REC_START	n/a	4	-999	n/a	CAKE	n/a	n/a	6	[0, 0, 0]	-999	PAL1	4	R1283T
852.398	1.075	858892	REC_EVENT	2942	4	6	INK	CAKE	CAKE	INK	6	[0, 0, 0]	-999	PAL1	4	R1283T
853.473	1.0	859967	PROBE_OFF	n/a	4	-999	n/a	n/a	n/a	n/a	6	[0, 0, 0]	-999	PAL1	4	R1283T
854.473	0.004	860966	REC_END	n/a	4	-999	n/a	n/a	n/a	n/a	6	[0, 0, 0]	-999	PAL1	4	R1283T
854.477	3.997	860970	RECALL_END	n/a	-999	-999	n/a	n/a	n/a	n/a	6	[0, 0, 0]	-999	PAL1	4	R1283T
858.474	10.929	864967	TRIAL	n/a	-999	-999	n/a	n/a	n/a	n/a	7	[0, 0, 0]	-999	PAL1	4	R1283T
869.403	0.006	875896	ENCODING_START	n/a	-999	-999	n/a	n/a	n/a	n/a	7	[0, 0, 0]	-999	PAL1	4	R1283T
869.409	0.267	875902	STUDY_ORIENT	n/a	1	5	TRASH	n/a	TRASH	DEER	7	[0, 0, 0]	-999	PAL1	4	R1283T
869.676	0.516	876169	STUDY_ORIENT_OFF	n/a	1	5	TRASH	n/a	TRASH	DEER	7	[0, 0, 0]	-999	PAL1	4	R1283T
870.192	4.018	876685	STUDY_PAIR	n/a	1	5	TRASH	n/a	TRASH	DEER	7	[0, 0, 0]	-999	PAL1	4	R1283T
874.21	1.017	880702	PAIR_OFF	n/a	1	5	TRASH	n/a	TRASH	DEER	7	[0, 0, 0]	-999	PAL1	4	R1283T
875.227	0.266	881719	STUDY_ORIENT	n/a	2	6	ROPE	n/a	SEED	ROPE	7	[0, 0, 0]	-999	PAL1	4	R1283T
875.493	0.65	881985	STUDY_ORIENT_OFF	n/a	2	6	ROPE	n/a	SEED	ROPE	7	[0, 0, 0]	-999	PAL1	4	R1283T
876.143	4.018	882635	STUDY_PAIR	n/a	2	6	ROPE	n/a	SEED	ROPE	7	[0, 0, 0]	-999	PAL1	4	R1283T
880.161	1.017	886653	PAIR_OFF	n/a	2	6	ROPE	n/a	SEED	ROPE	7	[0, 0, 0]	-999	PAL1	4	R1283T
881.178	0.267	887670	STUDY_ORIENT	n/a	3	3	HOSE	n/a	LAND	HOSE	7	[0, 0, 0]	-999	PAL1	4	R1283T
881.445	0.548	887937	STUDY_ORIENT_OFF	n/a	3	3	HOSE	n/a	LAND	HOSE	7	[0, 0, 0]	-999	PAL1	4	R1283T
881.993	4.018	888485	STUDY_PAIR	n/a	3	3	HOSE	n/a	LAND	HOSE	7	[0, 0, 0]	-999	PAL1	4	R1283T
886.011	1.017	892503	PAIR_OFF	n/a	3	3	HOSE	n/a	LAND	HOSE	7	[0, 0, 0]	-999	PAL1	4	R1283T
887.028	0.267	893520	STUDY_ORIENT	n/a	4	4	PEAR	n/a	RICE	PEAR	7	[0, 0, 0]	-999	PAL1	4	R1283T
887.295	0.766	893787	STUDY_ORIENT_OFF	n/a	4	4	PEAR	n/a	RICE	PEAR	7	[0, 0, 0]	-999	PAL1	4	R1283T
888.061	4.018	894552	STUDY_PAIR	n/a	4	4	PEAR	n/a	RICE	PEAR	7	[0, 0, 0]	-999	PAL1	4	R1283T
892.079	1.018	898570	PAIR_OFF	n/a	4	4	PEAR	n/a	RICE	PEAR	7	[0, 0, 0]	-999	PAL1	4	R1283T
893.097	0.266	899588	STUDY_ORIENT	n/a	5	1	WING	STREET	STREET	WING	7	[0, 0, 0]	-999	PAL1	4	R1283T
893.363	0.616	899854	STUDY_ORIENT_OFF	n/a	5	1	WING	STREET	STREET	WING	7	[0, 0, 0]	-999	PAL1	4	R1283T
893.979	4.017	900470	STUDY_PAIR	n/a	5	1	WING	STREET	STREET	WING	7	[0, 0, 0]	-999	PAL1	4	R1283T
897.996	1.017	904487	PAIR_OFF	n/a	5	1	WING	STREET	STREET	WING	7	[0, 0, 0]	-999	PAL1	4	R1283T
899.013	0.268	905504	STUDY_ORIENT	n/a	6	2	ROSE	PEN	DART	ROSE	7	[0, 0, 0]	-999	PAL1	4	R1283T
899.281	0.766	905772	STUDY_ORIENT_OFF	n/a	6	2	ROSE	PEN	DART	ROSE	7	[0, 0, 0]	-999	PAL1	4	R1283T
900.047	4.017	906538	STUDY_PAIR	n/a	6	2	ROSE	PEN	DART	ROSE	7	[0, 0, 0]	-999	PAL1	4	R1283T
904.064	1.0	910555	PAIR_OFF	n/a	6	2	ROSE	PEN	DART	ROSE	7	[0, 0, 0]	-999	PAL1	4	R1283T
905.064	0.0	911554	ENCODING_END	n/a	-999	-999	n/a	n/a	n/a	n/a	7	[0, 0, 0]	-999	PAL1	4	R1283T
905.064	0.001	911554	MATH_START	n/a	-999	-999	n/a	n/a	n/a	n/a	7	[0, 0, 0]	-999	PAL1	4	R1283T
905.065	0.016	911555	START	n/a	-999	-999	n/a	n/a	n/a	n/a	8	[-999, -999, -999]	-999	PAL1	4	R1283T
905.081	3.318	911571	PROB	3288	-999	-999	n/a	n/a	n/a	n/a	8	[2, 4, 7]	13	PAL1	4	R1283T
908.399	2.151	914889	PROB	2114	-999	-999	n/a	n/a	n/a	n/a	8	[1, 9, 6]	16	PAL1	4	R1283T
910.55	1.617	917040	PROB	1587	-999	-999	n/a	n/a	n/a	n/a	8	[1, 5, 5]	11	PAL1	4	R1283T
912.167	3.3	918657	PROB	3266	-999	-999	n/a	n/a	n/a	n/a	8	[9, 3, 1]	13	PAL1	4	R1283T
915.467	5.185	921957	PROB	5158	-999	-999	n/a	n/a	n/a	n/a	8	[9, 8, 8]	27	PAL1	4	R1283T
920.652	7.821	927142	PROB	7821	-999	-999	n/a	n/a	n/a	n/a	8	[6, 9, 2]	17	PAL1	4	R1283T
928.473	0.013	934962	STOP	n/a	-999	-999	n/a	n/a	n/a	n/a	8	[-999, -999, -999]	-999	PAL1	4	R1283T
928.486	0.001	934975	MATH_END	n/a	-999	-999	n/a	n/a	n/a	n/a	7	[0, 0, 0]	-999	PAL1	4	R1283T
928.487	0.016	934976	RECALL_START	n/a	-999	-999	n/a	n/a	n/a	n/a	7	[0, 0, 0]	-999	PAL1	4	R1283T
928.503	0.266	934992	TEST_ORIENT	n/a	5	1	WING	STREET	STREET	WING	7	[0, 0, 0]	-999	PAL1	4	R1283T
928.769	0.55	935258	RETRIEVAL_ORIENT_OFF	n/a	-999	-999	n/a	n/a	n/a	n/a	7	[0, 0, 0]	-999	PAL1	4	R1283T
929.319	0.002	935808	TEST_PROBE	n/a	5	1	WING	STREET	STREET	WING	7	[0, 0, 0]	-999	PAL1	4	R1283T
929.321	1.279	935810	REC_START	n/a	5	-999	n/a	STREET	n/a	n/a	7	[0, 0, 0]	-999	PAL1	4	R1283T
930.6	2.737	937089	REC_EVENT	1279	5	1	WING	STREET	STREET	WING	7	[0, 0, 0]	-999	PAL1	4	R1283T
933.337	1.0	939826	PROBE_OFF	n/a	5	-999	n/a	n/a	n/a	n/a	7	[0, 0, 0]	-999	PAL1	4	R1283T
934.337	0.017	940826	REC_END	n/a	5	-999	n/a	n/a	n/a	n/a	7	[0, 0, 0]	-999	PAL1	4	R1283T
934.354	0.267	940843	TEST_ORIENT	n/a	6	2	ROSE	PEN	DART	ROSE	7	[0, 0, 0]	-999	PAL1	4	R1283T
934.621	0.516	941110	RETRIEVAL_ORIENT_OFF	n/a	5	-999	n/a	n/a	n/a	n/a	7	[0, 0, 0]	-999	PAL1	4	R1283T
935.137	0.001	941626	TEST_PROBE	n/a	6	2	ROSE	PEN	DART	ROSE	7	[0, 0, 0]	-999	PAL1	4	R1283T
935.138	3.698	941627	REC_START	n/a	6	-999	n/a	PEN	n/a	n/a	7	[0, 0, 0]	-999	PAL1	4	R1283T
938.836	0.302	945324	REC_EVENT	3698	6	2	ROSE	PEN	DART	ROSE	7	[0, 0, 0]	-999	PAL1	4	R1283T
939.138	1.001	945626	PROBE_OFF	n/a	6	-999	n/a	n/a	n/a	n/a	7	[0, 0, 0]	-999	PAL1	4	R1283T
940.139	0.016	946627	REC_END	n/a	6	-999	n/a	n/a	n/a	n/a	7	[0, 0, 0]	-999	PAL1	4	R1283T
940.155	0.267	946643	TEST_ORIENT	n/a	3	3	HOSE	n/a	LAND	HOSE	7	[0, 0, 0]	-999	PAL1	4	R1283T
940.422	0.516	946910	RETRIEVAL_ORIENT_OFF	n/a	6	-999	n/a	n/a	n/a	n/a	7	[0, 0, 0]	-999	PAL1	4	R1283T
940.938	0.0	947426	TEST_PROBE	n/a	3	3	HOSE	n/a	LAND	HOSE	7	[0, 0, 0]	-999	PAL1	4	R1283T
940.938	4.017	947426	REC_START	n/a	3	-999	n/a	n/a	n/a	n/a	7	[0, 0, 0]	-999	PAL1	4	R1283T
944.955	1.0	951443	PROBE_OFF	n/a	3	-999	n/a	n/a	n/a	n/a	7	[0, 0, 0]	-999	PAL1	4	R1283T
945.955	0.004	952443	REC_END	n/a	3	-999	n/a	n/a	n/a	n/a	7	[0, 0, 0]	-999	PAL1	4	R1283T
945.959	0.013	952447	REC_EVENT	5021	3	3	HOSE	<>	LAND	HOSE	7	[0, 0, 0]	-999	PAL1	4	R1283T
945.972	0.268	952460	TEST_ORIENT	n/a	4	4	PEAR	n/a	RICE	PEAR	7	[0, 0, 0]	-999	PAL1	4	R1283T
946.24	0.615	952728	RETRIEVAL_ORIENT_OFF	n/a	3	-999	n/a	n/a	n/a	n/a	7	[0, 0, 0]	-999	PAL1	4	R1283T
946.855	0.001	953343	TEST_PROBE	n/a	4	4	PEAR	n/a	RICE	PEAR	7	[0, 0, 0]	-999	PAL1	4	R1283T
946.856	4.017	953344	REC_START	n/a	4	-999	n/a	n/a	n/a	n/a	7	[0, 0, 0]	-999	PAL1	4	R1283T
950.873	0.998	957361	PROBE_OFF	n/a	4	-999	n/a	n/a	n/a	n/a	7	[0, 0, 0]	-999	PAL1	4	R1283T
951.871	0.002	958359	REC_EVENT	5015	4	4	PEAR	<>	RICE	PEAR	7	[0, 0, 0]	-999	PAL1	4	R1283T
951.873	0.017	958361	REC_END	n/a	4	-999	n/a	n/a	n/a	n/a	7	[0, 0, 0]	-999	PAL1	4	R1283T
951.89	0.267	958378	TEST_ORIENT	n/a	1	5	TRASH	n/a	TRASH	DEER	7	[0, 0, 0]	-999	PAL1	4	R1283T
952.157	0.534	958645	RETRIEVAL_ORIENT_OFF	n/a	4	-999	n/a	n/a	n/a	n/a	7	[0, 0, 0]	-999	PAL1	4	R1283T
952.691	0.0	959179	TEST_PROBE	n/a	1	5	TRASH	n/a	TRASH	DEER	7	[0, 0, 0]	-999	PAL1	4	R1283T
952.691	4.017	959179	REC_START	n/a	1	-999	n/a	n/a	n/a	n/a	7	[0, 0, 0]	-999	PAL1	4	R1283T
956.708	0.998	963195	PROBE_OFF	n/a	1	-999	n/a	n/a	n/a	n/a	7	[0, 0, 0]	-999	PAL1	4	R1283T
957.706	0.002	964193	REC_EVENT	5015	1	5	TRASH	<>	TRASH	DEER	7	[0, 0, 0]	-999	PAL1	4	R1283T
957.708	0.016	964195	REC_END	n/a	1	-999	n/a	n/a	n/a	n/a	7	[0, 0, 0]	-999	PAL1	4	R1283T
957.724	0.267	964211	TEST_ORIENT	n/a	2	6	ROPE	n/a	SEED	ROPE	7	[0, 0, 0]	-999	PAL1	4	R1283T
957.991	0.75	964478	RETRIEVAL_ORIENT_OFF	n/a	1	-999	n/a	n/a	n/a	n/a	7	[0, 0, 0]	-999	PAL1	4	R1283T
958.741	0.001	965228	TEST_PROBE	n/a	2	6	ROPE	n/a	SEED	ROPE	7	[0, 0, 0]	-999	PAL1	4	R1283T
958.742	4.016	965229	REC_START	n/a	2	-999	n/a	n/a	n/a	n/a	7	[0, 0, 0]	-999	PAL1	4	R1283T
962.758	1.001	969245	PROBE_OFF	n/a	2	-999	n/a	n/a	n/a	n/a	7	[0, 0, 0]	-999	PAL1	4	R1283T
963.759	0.004	970246	REC_END	n/a	2	-999	n/a	n/a	n/a	n/a	7	[0, 0, 0]	-999	PAL1	4	R1283T
963.763	0.005	970250	REC_EVENT	5021	2	6	ROPE	<>	SEED	ROPE	7	[0, 0, 0]	-999	PAL1	4	R1283T
963.768	4.025	970255	RECALL_END	n/a	-999	-999	n/a	n/a	n/a	n/a	7	[0, 0, 0]	-999	PAL1	4	R1283T
967.793	10.929	974280	TRIAL	n/a	-999	-999	n/a	n/a	n/a	n/a	8	[0, 0, 0]	-999	PAL1	4	R1283T
978.722	0.006	985208	ENCODING_START	n/a	-999	-999	n/a	n/a	n/a	n/a	8	[0, 0, 0]	-999	PAL1	4	R1283T
978.728	0.267	985214	STUDY_ORIENT	n/a	1	1	CAGE	n/a	POND	CAGE	8	[0, 0, 0]	-999	PAL1	4	R1283T
978.995	0.634	985481	STUDY_ORIENT_OFF	n/a	1	1	CAGE	n/a	POND	CAGE	8	[0, 0, 0]	-999	PAL1	4	R1283T
979.629	4.017	986115	STUDY_PAIR	n/a	1	1	CAGE	n/a	POND	CAGE	8	[0, 0, 0]	-999	PAL1	4	R1283T
983.646	1.017	990132	PAIR_OFF	n/a	1	1	CAGE	n/a	POND	CAGE	8	[0, 0, 0]	-999	PAL1	4	R1283T
984.663	0.266	991149	STUDY_ORIENT	n/a	2	6	FOAM	SWAMP	SWAMP	FOAM	8	[0, 0, 0]	-999	PAL1	4	R1283T
984.929	0.701	991415	STUDY_ORIENT_OFF	n/a	2	6	FOAM	SWAMP	SWAMP	FOAM	8	[0, 0, 0]	-999	PAL1	4	R1283T
985.63	4.017	992116	STUDY_PAIR	n/a	2	6	FOAM	SWAMP	SWAMP	FOAM	8	[0, 0, 0]	-999	PAL1	4	R1283T
989.647	1.017	996132	PAIR_OFF	n/a	2	6	FOAM	SWAMP	SWAMP	FOAM	8	[0, 0, 0]	-999	PAL1	4	R1283T
990.664	0.266	997149	STUDY_ORIENT	n/a	3	5	TOAD	n/a	TIE	TOAD	8	[0, 0, 0]	-999	PAL1	4	R1283T
990.93	0.635	997415	STUDY_ORIENT_OFF	n/a	3	5	TOAD	n/a	TIE	TOAD	8	[0, 0, 0]	-999	PAL1	4	R1283T
991.565	4.017	998050	STUDY_PAIR	n/a	3	5	TOAD	n/a	TIE	TOAD	8	[0, 0, 0]	-999	PAL1	4	R1283T
995.582	1.017	1002067	PAIR_OFF	n/a	3	5	TOAD	n/a	TIE	TOAD	8	[0, 0, 0]	-999	PAL1	4	R1283T
996.599	0.265	1003084	STUDY_ORIENT	n/a	4	4	EEL	FUR	FUR	EEL	8	[0, 0, 0]	-999	PAL1	4	R1283T
996.864	0.685	1003349	STUDY_ORIENT_OFF	n/a	4	4	EEL	FUR	FUR	EEL	8	[0, 0, 0]	-999	PAL1	4	R1283T
997.549	4.017	1004034	STUDY_PAIR	n/a	4	4	EEL	FUR	FUR	EEL	8	[0, 0, 0]	-999	PAL1	4	R1283T
1001.566	1.017	1008051	PAIR_OFF	n/a	4	4	EEL	FUR	FUR	EEL	8	[0, 0, 0]	-999	PAL1	4	R1283T
1002.583	0.266	1009068	STUDY_ORIENT	n/a	5	3	FLOOR	n/a	SHIRT	FLOOR	8	[0, 0, 0]	-999	PAL1	4	R1283T
1002.849	0.567	1009334	STUDY_ORIENT_OFF	n/a	5	3	FLOOR	n/a	SHIRT	FLOOR	8	[0, 0, 0]	-999	PAL1	4	R1283T
1003.416	4.001	1009901	STUDY_PAIR	n/a	5	3	FLOOR	n/a	SHIRT	FLOOR	8	[0, 0, 0]	-999	PAL1	4	R1283T
1007.417	1.017	1013901	PAIR_OFF	n/a	5	3	FLOOR	n/a	SHIRT	FLOOR	8	[0, 0, 0]	-999	PAL1	4	R1283T
1008.434	0.267	1014918	STUDY_ORIENT	n/a	6	2	FAN	CART	CART	FAN	8	[0, 0, 0]	-999	PAL1	4	R1283T
1008.701	0.6	1015185	STUDY_ORIENT_OFF	n/a	6	2	FAN	CART	CART	FAN	8	[0, 0, 0]	-999	PAL1	4	R1283T
1009.301	4.018	1015785	STUDY_PAIR	n/a	6	2	FAN	CART	CART	FAN	8	[0, 0, 0]	-999	PAL1	4	R1283T
1013.319	1.001	1019803	PAIR_OFF	n/a	6	2	FAN	CART	CART	FAN	8	[0, 0, 0]	-999	PAL1	4	R1283T
1014.32	0.0	1020804	ENCODING_END	n/a	-999	-999	n/a	n/a	n/a	n/a	8	[0, 0, 0]	-999	PAL1	4	R1283T
1014.32	0.0	1020804	MATH_START	n/a	-999	-999	n/a	n/a	n/a	n/a	8	[0, 0, 0]	-999	PAL1	4	R1283T
1014.32	0.015	1020804	START	n/a	-999	-999	n/a	n/a	n/a	n/a	9	[-999, -999, -999]	-999	PAL1	4	R1283T
1014.335	3.851	1020819	PROB	3818	-999	-999	n/a	n/a	n/a	n/a	9	[3, 6, 8]	19	PAL1	4	R1283T
1018.186	3.417	1024670	PROB	3391	-999	-999	n/a	n/a	n/a	n/a	9	[3, 3, 9]	15	PAL1	4	R1283T
1021.603	3.25	1028087	PROB	3214	-999	-999	n/a	n/a	n/a	n/a	9	[1, 5, 8]	14	PAL1	4	R1283T
1024.853	3.201	1031336	PROB	3178	-999	-999	n/a	n/a	n/a	n/a	9	[7, 6, 9]	22	PAL1	4	R1283T
1028.054	1.95	1034537	PROB	1914	-999	-999	n/a	n/a	n/a	n/a	9	[3, 7, 1]	11	PAL1	4	R1283T
1030.004	2.867	1036487	PROB	2837	-999	-999	n/a	n/a	n/a	n/a	9	[7, 2, 5]	14	PAL1	4	R1283T
1032.871	2.682	1039354	PROB	2682	-999	-999	n/a	n/a	n/a	n/a	9	[3, 8, 3]	14	PAL1	4	R1283T
1035.553	0.019	1042036	STOP	n/a	-999	-999	n/a	n/a	n/a	n/a	9	[-999, -999, -999]	-999	PAL1	4	R1283T
1035.572	0.001	1042055	MATH_END	n/a	-999	-999	n/a	n/a	n/a	n/a	8	[0, 0, 0]	-999	PAL1	4	R1283T
1035.573	0.016	1042056	RECALL_START	n/a	-999	-999	n/a	n/a	n/a	n/a	8	[0, 0, 0]	-999	PAL1	4	R1283T
1035.589	0.266	1042072	TEST_ORIENT	n/a	1	1	CAGE	n/a	POND	CAGE	8	[0, 0, 0]	-999	PAL1	4	R1283T
1035.855	0.518	1042338	RETRIEVAL_ORIENT_OFF	n/a	-999	-999	n/a	n/a	n/a	n/a	8	[0, 0, 0]	-999	PAL1	4	R1283T
1036.373	0.0	1042856	TEST_PROBE	n/a	1	1	CAGE	n/a	POND	CAGE	8	[0, 0, 0]	-999	PAL1	4	R1283T
1036.373	4.017	1042856	REC_START	n/a	1	-999	n/a	n/a	n/a	n/a	8	[0, 0, 0]	-999	PAL1	4	R1283T
1040.39	1.001	1046872	PROBE_OFF	n/a	1	-999	n/a	n/a	n/a	n/a	8	[0, 0, 0]	-999	PAL1	4	R1283T
1041.391	0.003	1047873	REC_END	n/a	1	-999	n/a	n/a	n/a	n/a	8	[0, 0, 0]	-999	PAL1	4	R1283T
1041.394	0.013	1047876	REC_EVENT	5021	1	1	CAGE	<>	POND	CAGE	8	[0, 0, 0]	-999	PAL1	4	R1283T
1041.407	0.267	1047889	TEST_ORIENT	n/a	6	2	FAN	CART	CART	FAN	8	[0, 0, 0]	-999	PAL1	4	R1283T
1041.674	0.65	1048156	RETRIEVAL_ORIENT_OFF	n/a	1	-999	n/a	n/a	n/a	n/a	8	[0, 0, 0]	-999	PAL1	4	R1283T
1042.324	0.0	1048806	TEST_PROBE	n/a	6	2	FAN	CART	CART	FAN	8	[0, 0, 0]	-999	PAL1	4	R1283T
1042.324	4.017	1048806	REC_START	n/a	6	-999	n/a	CART	n/a	n/a	8	[0, 0, 0]	-999	PAL1	4	R1283T
1046.341	0.301	1052823	PROBE_OFF	n/a	6	-999	n/a	n/a	n/a	n/a	8	[0, 0, 0]	-999	PAL1	4	R1283T
1046.642	0.699	1053124	REC_EVENT	4318	6	2	FAN	CART	CART	FAN	8	[0, 0, 0]	-999	PAL1	4	R1283T
1047.341	0.017	1053823	REC_END	n/a	6	-999	n/a	n/a	n/a	n/a	8	[0, 0, 0]	-999	PAL1	4	R1283T
1047.358	0.267	1053840	TEST_ORIENT	n/a	5	3	FLOOR	n/a	SHIRT	FLOOR	8	[0, 0, 0]	-999	PAL1	4	R1283T
1047.625	0.566	1054107	RETRIEVAL_ORIENT_OFF	n/a	6	-999	n/a	n/a	n/a	n/a	8	[0, 0, 0]	-999	PAL1	4	R1283T
1048.191	0.001	1054673	TEST_PROBE	n/a	5	3	FLOOR	n/a	SHIRT	FLOOR	8	[0, 0, 0]	-999	PAL1	4	R1283T
1048.192	4.017	1054674	REC_START	n/a	5	-999	n/a	n/a	n/a	n/a	8	[0, 0, 0]	-999	PAL1	4	R1283T
1052.209	1.0	1058691	PROBE_OFF	n/a	5	-999	n/a	n/a	n/a	n/a	8	[0, 0, 0]	-999	PAL1	4	R1283T
1053.209	0.004	1059691	REC_END	n/a	5	-999	n/a	n/a	n/a	n/a	8	[0, 0, 0]	-999	PAL1	4	R1283T
1053.213	0.013	1059695	REC_EVENT	5021	5	3	FLOOR	<>	SHIRT	FLOOR	8	[0, 0, 0]	-999	PAL1	4	R1283T
1053.226	0.266	1059708	TEST_ORIENT	n/a	4	4	EEL	FUR	FUR	EEL	8	[0, 0, 0]	-999	PAL1	4	R1283T
1053.492	0.651	1059974	RETRIEVAL_ORIENT_OFF	n/a	5	-999	n/a	n/a	n/a	n/a	8	[0, 0, 0]	-999	PAL1	4	R1283T
1054.143	0.0	1060625	REC_START	n/a	4	-999	n/a	FUR	n/a	n/a	8	[0, 0, 0]	-999	PAL1	4	R1283T
1054.143	1.209	1060625	TEST_PROBE	n/a	4	4	EEL	FUR	FUR	EEL	8	[0, 0, 0]	-999	PAL1	4	R1283T
1055.352	2.808	1061834	REC_EVENT	1209	4	4	EEL	FUR	FUR	EEL	8	[0, 0, 0]	-999	PAL1	4	R1283T
1058.16	1.0	1064641	PROBE_OFF	n/a	4	-999	n/a	n/a	n/a	n/a	8	[0, 0, 0]	-999	PAL1	4	R1283T
1059.16	0.017	1065641	REC_END	n/a	4	-999	n/a	n/a	n/a	n/a	8	[0, 0, 0]	-999	PAL1	4	R1283T
1059.177	0.266	1065658	TEST_ORIENT	n/a	3	5	TOAD	n/a	TIE	TOAD	8	[0, 0, 0]	-999	PAL1	4	R1283T
1059.443	0.566	1065924	RETRIEVAL_ORIENT_OFF	n/a	4	-999	n/a	n/a	n/a	n/a	8	[0, 0, 0]	-999	PAL1	4	R1283T
1060.009	0.001	1066490	TEST_PROBE	n/a	3	5	TOAD	n/a	TIE	TOAD	8	[0, 0, 0]	-999	PAL1	4	R1283T
1060.01	4.017	1066491	REC_START	n/a	3	-999	n/a	n/a	n/a	n/a	8	[0, 0, 0]	-999	PAL1	4	R1283T
1064.027	1.0	1070508	PROBE_OFF	n/a	3	-999	n/a	n/a	n/a	n/a	8	[0, 0, 0]	-999	PAL1	4	R1283T
1065.027	0.004	1071508	REC_END	n/a	3	-999	n/a	n/a	n/a	n/a	8	[0, 0, 0]	-999	PAL1	4	R1283T
1065.031	0.013	1071512	REC_EVENT	5021	3	5	TOAD	<>	TIE	TOAD	8	[0, 0, 0]	-999	PAL1	4	R1283T
1065.044	0.267	1071525	TEST_ORIENT	n/a	2	6	FOAM	SWAMP	SWAMP	FOAM	8	[0, 0, 0]	-999	PAL1	4	R1283T
1065.311	0.533	1071792	RETRIEVAL_ORIENT_OFF	n/a	3	-999	n/a	n/a	n/a	n/a	8	[0, 0, 0]	-999	PAL1	4	R1283T
1065.844	0.0	1072325	REC_START	n/a	2	-999	n/a	SWAMP	n/a	n/a	8	[0, 0, 0]	-999	PAL1	4	R1283T
1065.844	2.142	1072325	TEST_PROBE	n/a	2	6	FOAM	SWAMP	SWAMP	FOAM	8	[0, 0, 0]	-999	PAL1	4	R1283T
1067.986	1.875	1074467	REC_EVENT	2142	2	6	FOAM	SWAMP	SWAMP	FOAM	8	[0, 0, 0]	-999	PAL1	4	R1283T
1069.861	1.001	1076342	PROBE_OFF	n/a	2	-999	n/a	n/a	n/a	n/a	8	[0, 0, 0]	-999	PAL1	4	R1283T
1070.862	0.005	1077343	REC_END	n/a	2	-999	n/a	n/a	n/a	n/a	8	[0, 0, 0]	-999	PAL1	4	R1283T
1070.867	3.779	1077348	RECALL_END	n/a	-999	-999	n/a	n/a	n/a	n/a	8	[0, 0, 0]	-999	PAL1	4	R1283T
1074.646	10.929	1081126	TRIAL	n/a	-999	-999	n/a	n/a	n/a	n/a	9	[0, 0, 0]	-999	PAL1	4	R1283T
1085.575	0.007	1092055	ENCODING_START	n/a	-999	-999	n/a	n/a	n/a	n/a	9	[0, 0, 0]	-999	PAL1	4	R1283T
1085.582	0.265	1092062	STUDY_ORIENT	n/a	1	3	AXE	n/a	RUG	AXE	9	[0, 0, 0]	-999	PAL1	4	R1283T
1085.847	0.668	1092327	STUDY_ORIENT_OFF	n/a	1	3	AXE	n/a	RUG	AXE	9	[0, 0, 0]	-999	PAL1	4	R1283T
1086.515	4.018	1092995	STUDY_PAIR	n/a	1	3	AXE	n/a	RUG	AXE	9	[0, 0, 0]	-999	PAL1	4	R1283T
1090.533	1.016	1097012	PAIR_OFF	n/a	1	3	AXE	n/a	RUG	AXE	9	[0, 0, 0]	-999	PAL1	4	R1283T
1091.549	0.266	1098028	STUDY_ORIENT	n/a	2	2	NAIL	BOARD	NAIL	BOARD	9	[0, 0, 0]	-999	PAL1	4	R1283T
1091.815	0.534	1098294	STUDY_ORIENT_OFF	n/a	2	2	NAIL	BOARD	NAIL	BOARD	9	[0, 0, 0]	-999	PAL1	4	R1283T
1092.349	4.018	1098828	STUDY_PAIR	n/a	2	2	NAIL	BOARD	NAIL	BOARD	9	[0, 0, 0]	-999	PAL1	4	R1283T
1096.367	1.017	1102846	PAIR_OFF	n/a	2	2	NAIL	BOARD	NAIL	BOARD	9	[0, 0, 0]	-999	PAL1	4	R1283T
1097.384	0.266	1103863	STUDY_ORIENT	n/a	3	1	PLATE	n/a	PLATE	FOG	9	[0, 0, 0]	-999	PAL1	4	R1283T
1097.65	0.717	1104129	STUDY_ORIENT_OFF	n/a	3	1	PLATE	n/a	PLATE	FOG	9	[0, 0, 0]	-999	PAL1	4	R1283T
1098.367	4.018	1104846	STUDY_PAIR	n/a	3	1	PLATE	n/a	PLATE	FOG	9	[0, 0, 0]	-999	PAL1	4	R1283T
1102.385	1.017	1108864	PAIR_OFF	n/a	3	1	PLATE	n/a	PLATE	FOG	9	[0, 0, 0]	-999	PAL1	4	R1283T
1103.402	0.266	1109881	STUDY_ORIENT	n/a	4	4	MOUTH	CRANE	CRANE	MOUTH	9	[0, 0, 0]	-999	PAL1	4	R1283T
1103.668	0.617	1110147	STUDY_ORIENT_OFF	n/a	4	4	MOUTH	CRANE	CRANE	MOUTH	9	[0, 0, 0]	-999	PAL1	4	R1283T
1104.285	4.017	1110764	STUDY_PAIR	n/a	4	4	MOUTH	CRANE	CRANE	MOUTH	9	[0, 0, 0]	-999	PAL1	4	R1283T
1108.302	1.017	1114780	PAIR_OFF	n/a	4	4	MOUTH	CRANE	CRANE	MOUTH	9	[0, 0, 0]	-999	PAL1	4	R1283T
1109.319	0.267	1115797	STUDY_ORIENT	n/a	5	5	PANTS	PEACH	PANTS	PEACH	9	[0, 0, 0]	-999	PAL1	4	R1283T
1109.586	0.567	1116064	STUDY_ORIENT_OFF	n/a	5	5	PANTS	PEACH	PANTS	PEACH	9	[0, 0, 0]	-999	PAL1	4	R1283T
1110.153	4.017	1116631	STUDY_PAIR	n/a	5	5	PANTS	PEACH	PANTS	PEACH	9	[0, 0, 0]	-999	PAL1	4	R1283T
1114.17	1.017	1120648	PAIR_OFF	n/a	5	5	PANTS	PEACH	PANTS	PEACH	9	[0, 0, 0]	-999	PAL1	4	R1283T
1115.187	0.267	1121665	STUDY_ORIENT	n/a	6	6	STORE	CREW	STORE	BEAN	9	[0, 0, 0]	-999	PAL1	4	R1283T
1115.454	0.733	1121932	STUDY_ORIENT_OFF	n/a	6	6	STORE	CREW	STORE	BEAN	9	[0, 0, 0]	-999	PAL1	4	R1283T
1116.187	4.018	1122665	STUDY_PAIR	n/a	6	6	STORE	CREW	STORE	BEAN	9	[0, 0, 0]	-999	PAL1	4	R1283T
1120.205	1.0	1126683	PAIR_OFF	n/a	6	6	STORE	CREW	STORE	BEAN	9	[0, 0, 0]	-999	PAL1	4	R1283T
1121.205	0.0	1127683	ENCODING_END	n/a	-999	-999	n/a	n/a	n/a	n/a	9	[0, 0, 0]	-999	PAL1	4	R1283T
1121.205	0.001	1127683	MATH_START	n/a	-999	-999	n/a	n/a	n/a	n/a	9	[0, 0, 0]	-999	PAL1	4	R1283T
1121.206	0.015	1127684	START	n/a	-999	-999	n/a	n/a	n/a	n/a	10	[-999, -999, -999]	-999	PAL1	4	R1283T
1121.221	2.65	1127699	PROB	2627	-999	-999	n/a	n/a	n/a	n/a	10	[7, 3, 5]	15	PAL1	4	R1283T
1123.871	3.084	1130348	PROB	3056	-999	-999	n/a	n/a	n/a	n/a	10	[4, 7, 1]	12	PAL1	4	R1283T
1126.955	2.701	1133432	PROB	2670	-999	-999	n/a	n/a	n/a	n/a	10	[5, 2, 7]	14	PAL1	4	R1283T
1129.656	3.283	1136133	PROB	3247	-999	-999	n/a	n/a	n/a	n/a	10	[2, 7, 8]	17	PAL1	4	R1283T
1132.939	2.651	1139416	PROB	2622	-999	-999	n/a	n/a	n/a	n/a	10	[3, 6, 3]	12	PAL1	4	R1283T
1135.59	3.467	1142067	PROB	3442	-999	-999	n/a	n/a	n/a	n/a	10	[6, 2, 7]	15	PAL1	4	R1283T
1139.057	3.608	1145534	PROB	3608	-999	-999	n/a	n/a	n/a	n/a	10	[2, 2, 5]	9	PAL1	4	R1283T
1142.665	0.01	1149141	STOP	n/a	-999	-999	n/a	n/a	n/a	n/a	10	[-999, -999, -999]	-999	PAL1	4	R1283T
1142.675	0.001	1149151	MATH_END	n/a	-999	-999	n/a	n/a	n/a	n/a	9	[0, 0, 0]	-999	PAL1	4	R1283T
1142.676	0.016	1149152	RECALL_START	n/a	-999	-999	n/a	n/a	n/a	n/a	9	[0, 0, 0]	-999	PAL1	4	R1283T
1142.692	0.266	1149168	TEST_ORIENT	n/a	3	1	PLATE	n/a	PLATE	FOG	9	[0, 0, 0]	-999	PAL1	4	R1283T
1142.958	0.634	1149434	RETRIEVAL_ORIENT_OFF	n/a	-999	-999	n/a	n/a	n/a	n/a	9	[0, 0, 0]	-999	PAL1	4	R1283T
1143.592	0.001	1150068	TEST_PROBE	n/a	3	1	PLATE	n/a	PLATE	FOG	9	[0, 0, 0]	-999	PAL1	4	R1283T
1143.593	4.017	1150069	REC_START	n/a	3	-999	n/a	n/a	n/a	n/a	9	[0, 0, 0]	-999	PAL1	4	R1283T
1147.61	1.01	1154086	PROBE_OFF	n/a	3	-999	n/a	n/a	n/a	n/a	9	[0, 0, 0]	-999	PAL1	4	R1283T
1148.62	0.0	1155096	REC_EVENT	5027	3	1	PLATE	<>	PLATE	FOG	9	[0, 0, 0]	-999	PAL1	4	R1283T
1148.62	0.006	1155096	REC_END	n/a	3	-999	n/a	n/a	n/a	n/a	9	[0, 0, 0]	-999	PAL1	4	R1283T
1148.626	0.266	1155102	TEST_ORIENT	n/a	2	2	NAIL	BOARD	NAIL	BOARD	9	[0, 0, 0]	-999	PAL1	4	R1283T
1148.892	0.601	1155368	RETRIEVAL_ORIENT_OFF	n/a	3	-999	n/a	n/a	n/a	n/a	9	[0, 0, 0]	-999	PAL1	4	R1283T
1149.493	0.001	1155969	TEST_PROBE	n/a	2	2	NAIL	BOARD	NAIL	BOARD	9	[0, 0, 0]	-999	PAL1	4	R1283T
1149.494	1.493	1155970	REC_START	n/a	2	-999	n/a	BOARD	n/a	n/a	9	[0, 0, 0]	-999	PAL1	4	R1283T
1150.987	2.524	1157463	REC_EVENT	1493	2	2	NAIL	BOARD	NAIL	BOARD	9	[0, 0, 0]	-999	PAL1	4	R1283T
1153.511	1.0	1159987	PROBE_OFF	n/a	2	-999	n/a	n/a	n/a	n/a	9	[0, 0, 0]	-999	PAL1	4	R1283T
1154.511	0.016	1160987	REC_END	n/a	2	-999	n/a	n/a	n/a	n/a	9	[0, 0, 0]	-999	PAL1	4	R1283T
1154.527	0.266	1161003	TEST_ORIENT	n/a	1	3	AXE	n/a	RUG	AXE	9	[0, 0, 0]	-999	PAL1	4	R1283T
1154.793	0.584	1161269	RETRIEVAL_ORIENT_OFF	n/a	2	-999	n/a	n/a	n/a	n/a	9	[0, 0, 0]	-999	PAL1	4	R1283T
1155.377	0.001	1161853	TEST_PROBE	n/a	1	3	AXE	n/a	RUG	AXE	9	[0, 0, 0]	-999	PAL1	4	R1283T
1155.378	4.0	1161854	REC_START	n/a	1	-999	n/a	n/a	n/a	n/a	9	[0, 0, 0]	-999	PAL1	4	R1283T
1159.378	0.998	1165853	PROBE_OFF	n/a	1	-999	n/a	n/a	n/a	n/a	9	[0, 0, 0]	-999	PAL1	4	R1283T
1160.376	0.002	1166851	REC_EVENT	4998	1	3	AXE	<>	RUG	AXE	9	[0, 0, 0]	-999	PAL1	4	R1283T
1160.378	0.017	1166853	REC_END	n/a	1	-999	n/a	n/a	n/a	n/a	9	[0, 0, 0]	-999	PAL1	4	R1283T
1160.395	0.267	1166870	TEST_ORIENT	n/a	4	4	MOUTH	CRANE	CRANE	MOUTH	9	[0, 0, 0]	-999	PAL1	4	R1283T
1160.662	0.7	1167137	RETRIEVAL_ORIENT_OFF	n/a	1	-999	n/a	n/a	n/a	n/a	9	[0, 0, 0]	-999	PAL1	4	R1283T
1161.362	0.001	1167837	TEST_PROBE	n/a	4	4	MOUTH	CRANE	CRANE	MOUTH	9	[0, 0, 0]	-999	PAL1	4	R1283T
1161.363	2.388	1167838	REC_START	n/a	4	-999	n/a	CRANE	n/a	n/a	9	[0, 0, 0]	-999	PAL1	4	R1283T
1163.751	1.628	1170226	REC_EVENT	2388	4	4	MOUTH	CRANE	CRANE	MOUTH	9	[0, 0, 0]	-999	PAL1	4	R1283T
1165.379	1.0	1171854	PROBE_OFF	n/a	4	-999	n/a	n/a	n/a	n/a	9	[0, 0, 0]	-999	PAL1	4	R1283T
1166.379	0.017	1172854	REC_END	n/a	4	-999	n/a	n/a	n/a	n/a	9	[0, 0, 0]	-999	PAL1	4	R1283T
1166.396	0.267	1172871	TEST_ORIENT	n/a	5	5	PANTS	PEACH	PANTS	PEACH	9	[0, 0, 0]	-999	PAL1	4	R1283T
1166.663	0.717	1173138	RETRIEVAL_ORIENT_OFF	n/a	4	-999	n/a	n/a	n/a	n/a	9	[0, 0, 0]	-999	PAL1	4	R1283T
1167.38	0.0	1173855	TEST_PROBE	n/a	5	5	PANTS	PEACH	PANTS	PEACH	9	[0, 0, 0]	-999	PAL1	4	R1283T
1167.38	1.641	1173855	REC_START	n/a	5	-999	n/a	PEACH	n/a	n/a	9	[0, 0, 0]	-999	PAL1	4	R1283T
1169.021	2.376	1175496	REC_EVENT	1641	5	5	PANTS	PEACH	PANTS	PEACH	9	[0, 0, 0]	-999	PAL1	4	R1283T
1171.397	1.0	1177872	PROBE_OFF	n/a	5	-999	n/a	n/a	n/a	n/a	9	[0, 0, 0]	-999	PAL1	4	R1283T
1172.397	0.017	1178872	REC_END	n/a	5	-999	n/a	n/a	n/a	n/a	9	[0, 0, 0]	-999	PAL1	4	R1283T
1172.414	0.267	1178889	TEST_ORIENT	n/a	6	6	STORE	CREW	STORE	BEAN	9	[0, 0, 0]	-999	PAL1	4	R1283T
1172.681	0.567	1179156	RETRIEVAL_ORIENT_OFF	n/a	5	-999	n/a	n/a	n/a	n/a	9	[0, 0, 0]	-999	PAL1	4	R1283T
1173.248	0.0	1179722	REC_START	n/a	6	-999	n/a	CREW	n/a	n/a	9	[0, 0, 0]	-999	PAL1	4	R1283T
1173.248	3.694	1179722	TEST_PROBE	n/a	6	6	STORE	CREW	STORE	BEAN	9	[0, 0, 0]	-999	PAL1	4	R1283T
1176.942	0.323	1183416	REC_EVENT	3694	6	6	STORE	CREW	STORE	BEAN	9	[0, 0, 0]	-999	PAL1	4	R1283T
1177.265	1.011	1183739	PROBE_OFF	n/a	6	-999	n/a	n/a	n/a	n/a	9	[0, 0, 0]	-999	PAL1	4	R1283T
1178.276	0.003	1184750	REC_END	n/a	6	-999	n/a	n/a	n/a	n/a	9	[0, 0, 0]	-999	PAL1	4	R1283T
1178.279	3.954	1184753	RECALL_END	n/a	-999	-999	n/a	n/a	n/a	n/a	9	[0, 0, 0]	-999	PAL1	4	R1283T
1182.233	10.928	1188707	TRIAL	n/a	-999	-999	n/a	n/a	n/a	n/a	10	[0, 0, 0]	-999	PAL1	4	R1283T
1193.161	0.007	1199634	ENCODING_START	n/a	-999	-999	n/a	n/a	n/a	n/a	10	[0, 0, 0]	-999	PAL1	4	R1283T
1193.168	0.267	1199641	STUDY_ORIENT	n/a	1	5	MOON	PLANE	PLANE	MOON	10	[0, 0, 0]	-999	PAL1	4	R1283T
1193.435	0.515	1199908	STUDY_ORIENT_OFF	n/a	1	5	MOON	PLANE	PLANE	MOON	10	[0, 0, 0]	-999	PAL1	4	R1283T
1193.95	4.018	1200423	STUDY_PAIR	n/a	1	5	MOON	PLANE	PLANE	MOON	10	[0, 0, 0]	-999	PAL1	4	R1283T
1197.968	1.017	1204441	PAIR_OFF	n/a	1	5	MOON	PLANE	PLANE	MOON	10	[0, 0, 0]	-999	PAL1	4	R1283T
1198.985	0.267	1205458	STUDY_ORIENT	n/a	2	4	SHRIMP	n/a	SHRIMP	STOVE	10	[0, 0, 0]	-999	PAL1	4	R1283T
1199.252	0.716	1205725	STUDY_ORIENT_OFF	n/a	2	4	SHRIMP	n/a	SHRIMP	STOVE	10	[0, 0, 0]	-999	PAL1	4	R1283T
1199.968	4.017	1206441	STUDY_PAIR	n/a	2	4	SHRIMP	n/a	SHRIMP	STOVE	10	[0, 0, 0]	-999	PAL1	4	R1283T
1203.985	1.017	1210458	PAIR_OFF	n/a	2	4	SHRIMP	n/a	SHRIMP	STOVE	10	[0, 0, 0]	-999	PAL1	4	R1283T
1205.002	0.251	1211475	STUDY_ORIENT	n/a	3	1	SINK	n/a	SINK	PIPE	10	[0, 0, 0]	-999	PAL1	4	R1283T
1205.253	0.533	1211726	STUDY_ORIENT_OFF	n/a	3	1	SINK	n/a	SINK	PIPE	10	[0, 0, 0]	-999	PAL1	4	R1283T
1205.786	4.017	1212259	STUDY_PAIR	n/a	3	1	SINK	n/a	SINK	PIPE	10	[0, 0, 0]	-999	PAL1	4	R1283T
1209.803	1.017	1216275	PAIR_OFF	n/a	3	1	SINK	n/a	SINK	PIPE	10	[0, 0, 0]	-999	PAL1	4	R1283T
1210.82	0.267	1217292	STUDY_ORIENT	n/a	4	2	BEAK	n/a	SNAIL	BEAK	10	[0, 0, 0]	-999	PAL1	4	R1283T
1211.087	0.733	1217559	STUDY_ORIENT_OFF	n/a	4	2	BEAK	n/a	SNAIL	BEAK	10	[0, 0, 0]	-999	PAL1	4	R1283T
1211.82	4.018	1218292	STUDY_PAIR	n/a	4	2	BEAK	n/a	SNAIL	BEAK	10	[0, 0, 0]	-999	PAL1	4	R1283T
1215.838	1.017	1222310	PAIR_OFF	n/a	4	2	BEAK	n/a	SNAIL	BEAK	10	[0, 0, 0]	-999	PAL1	4	R1283T
1216.855	0.267	1223327	STUDY_ORIENT	n/a	5	3	SPOON	STOVE	BOMB	SPOON	10	[0, 0, 0]	-999	PAL1	4	R1283T
1217.122	0.749	1223594	STUDY_ORIENT_OFF	n/a	5	3	SPOON	STOVE	BOMB	SPOON	10	[0, 0, 0]	-999	PAL1	4	R1283T
1217.871	4.018	1224343	STUDY_PAIR	n/a	5	3	SPOON	STOVE	BOMB	SPOON	10	[0, 0, 0]	-999	PAL1	4	R1283T
1221.889	1.017	1228361	PAIR_OFF	n/a	5	3	SPOON	STOVE	BOMB	SPOON	10	[0, 0, 0]	-999	PAL1	4	R1283T
1222.906	0.267	1229378	STUDY_ORIENT	n/a	6	6	CROW	n/a	BRIDGE	CROW	10	[0, 0, 0]	-999	PAL1	4	R1283T
1223.173	0.683	1229644	STUDY_ORIENT_OFF	n/a	6	6	CROW	n/a	BRIDGE	CROW	10	[0, 0, 0]	-999	PAL1	4	R1283T
1223.856	4.017	1230327	STUDY_PAIR	n/a	6	6	CROW	n/a	BRIDGE	CROW	10	[0, 0, 0]	-999	PAL1	4	R1283T
1227.873	1.001	1234344	PAIR_OFF	n/a	6	6	CROW	n/a	BRIDGE	CROW	10	[0, 0, 0]	-999	PAL1	4	R1283T
1228.874	0.0	1235345	ENCODING_END	n/a	-999	-999	n/a	n/a	n/a	n/a	10	[0, 0, 0]	-999	PAL1	4	R1283T
1228.874	0.0	1235345	MATH_START	n/a	-999	-999	n/a	n/a	n/a	n/a	10	[0, 0, 0]	-999	PAL1	4	R1283T
1228.874	0.016	1235345	START	n/a	-999	-999	n/a	n/a	n/a	n/a	11	[-999, -999, -999]	-999	PAL1	4	R1283T
1228.89	5.184	1235361	PROB	5158	-999	-999	n/a	n/a	n/a	n/a	11	[9, 5, 4]	18	PAL1	4	R1283T
1234.074	2.784	1240545	PROB	2749	-999	-999	n/a	n/a	n/a	n/a	11	[4, 3, 2]	9	PAL1	4	R1283T
1236.858	2.652	1243329	PROB	2615	-999	-999	n/a	n/a	n/a	n/a	11	[7, 6, 2]	15	PAL1	4	R1283T
1239.51	4.316	1245981	PROB	4282	-999	-999	n/a	n/a	n/a	n/a	11	[8, 6, 4]	18	PAL1	4	R1283T
1243.826	2.901	1250296	PROB	2879	-999	-999	n/a	n/a	n/a	n/a	11	[2, 7, 1]	10	PAL1	4	R1283T
1246.727	3.818	1253197	PROB	3818	-999	-999	n/a	n/a	n/a	n/a	11	[2, 2, 6]	10	PAL1	4	R1283T
1250.545	0.017	1257015	STOP	n/a	-999	-999	n/a	n/a	n/a	n/a	11	[-999, -999, -999]	-999	PAL1	4	R1283T
1250.562	0.0	1257032	MATH_END	n/a	-999	-999	n/a	n/a	n/a	n/a	10	[0, 0, 0]	-999	PAL1	4	R1283T
1250.562	0.016	1257032	RECALL_START	n/a	-999	-999	n/a	n/a	n/a	n/a	10	[0, 0, 0]	-999	PAL1	4	R1283T
1250.578	0.266	1257048	TEST_ORIENT	n/a	3	1	SINK	n/a	SINK	PIPE	10	[0, 0, 0]	-999	PAL1	4	R1283T
1250.844	0.768	1257314	RETRIEVAL_ORIENT_OFF	n/a	-999	-999	n/a	n/a	n/a	n/a	10	[0, 0, 0]	-999	PAL1	4	R1283T
1251.612	0.0	1258082	TEST_PROBE	n/a	3	1	SINK	n/a	SINK	PIPE	10	[0, 0, 0]	-999	PAL1	4	R1283T
1251.612	4.017	1258082	REC_START	n/a	3	-999	n/a	n/a	n/a	n/a	10	[0, 0, 0]	-999	PAL1	4	R1283T
1255.629	0.998	1262099	PROBE_OFF	n/a	3	-999	n/a	n/a	n/a	n/a	10	[0, 0, 0]	-999	PAL1	4	R1283T
1256.627	0.002	1263096	REC_EVENT	5015	3	1	SINK	<>	SINK	PIPE	10	[0, 0, 0]	-999	PAL1	4	R1283T
1256.629	0.017	1263098	REC_END	n/a	3	-999	n/a	n/a	n/a	n/a	10	[0, 0, 0]	-999	PAL1	4	R1283T
1256.646	0.266	1263115	TEST_ORIENT	n/a	4	2	BEAK	n/a	SNAIL	BEAK	10	[0, 0, 0]	-999	PAL1	4	R1283T
1256.912	0.618	1263381	RETRIEVAL_ORIENT_OFF	n/a	3	-999	n/a	n/a	n/a	n/a	10	[0, 0, 0]	-999	PAL1	4	R1283T
1257.53	0.0	1263999	REC_START	n/a	4	-999	n/a	n/a	n/a	n/a	10	[0, 0, 0]	-999	PAL1	4	R1283T
1257.53	4.017	1263999	TEST_PROBE	n/a	4	2	BEAK	n/a	SNAIL	BEAK	10	[0, 0, 0]	-999	PAL1	4	R1283T
1261.547	0.998	1268016	PROBE_OFF	n/a	4	-999	n/a	n/a	n/a	n/a	10	[0, 0, 0]	-999	PAL1	4	R1283T
1262.545	0.002	1269014	REC_EVENT	5015	4	2	BEAK	<>	SNAIL	BEAK	10	[0, 0, 0]	-999	PAL1	4	R1283T
1262.547	0.017	1269016	REC_END	n/a	4	-999	n/a	n/a	n/a	n/a	10	[0, 0, 0]	-999	PAL1	4	R1283T
1262.564	0.266	1269033	TEST_ORIENT	n/a	5	3	SPOON	STOVE	BOMB	SPOON	10	[0, 0, 0]	-999	PAL1	4	R1283T
1262.83	0.667	1269299	RETRIEVAL_ORIENT_OFF	n/a	4	-999	n/a	n/a	n/a	n/a	10	[0, 0, 0]	-999	PAL1	4	R1283T
1263.497	0.001	1269966	TEST_PROBE	n/a	5	3	SPOON	STOVE	BOMB	SPOON	10	[0, 0, 0]	-999	PAL1	4	R1283T
1263.498	1.983	1269967	REC_START	n/a	5	-999	n/a	STOVE	n/a	n/a	10	[0, 0, 0]	-999	PAL1	4	R1283T
1265.481	2.034	1271950	REC_EVENT	1983	5	3	SPOON	STOVE	BOMB	SPOON	10	[0, 0, 0]	-999	PAL1	4	R1283T
1267.515	1.0	1273984	PROBE_OFF	n/a	5	-999	n/a	n/a	n/a	n/a	10	[0, 0, 0]	-999	PAL1	4	R1283T
1268.515	0.017	1274984	REC_END	n/a	5	-999	n/a	n/a	n/a	n/a	10	[0, 0, 0]	-999	PAL1	4	R1283T
1268.532	0.265	1275001	TEST_ORIENT	n/a	2	4	SHRIMP	n/a	SHRIMP	STOVE	10	[0, 0, 0]	-999	PAL1	4	R1283T
1268.797	0.651	1275266	RETRIEVAL_ORIENT_OFF	n/a	5	-999	n/a	n/a	n/a	n/a	10	[0, 0, 0]	-999	PAL1	4	R1283T
1269.448	0.001	1275917	TEST_PROBE	n/a	2	4	SHRIMP	n/a	SHRIMP	STOVE	10	[0, 0, 0]	-999	PAL1	4	R1283T
1269.449	1.568	1275918	REC_START	n/a	2	-999	n/a	n/a	n/a	n/a	10	[0, 0, 0]	-999	PAL1	4	R1283T
1271.017	1.0	1277486	REC_EVENT	1568	2	4	SHRIMP	<>	SHRIMP	STOVE	10	[0, 0, 0]	-999	PAL1	4	R1283T
1272.017	1.449	1278486	REC_EVENT	2568	2	4	SHRIMP	<>	SHRIMP	STOVE	10	[0, 0, 0]	-999	PAL1	4	R1283T
1273.466	1.0	1279934	PROBE_OFF	n/a	2	-999	n/a	n/a	n/a	n/a	10	[0, 0, 0]	-999	PAL1	4	R1283T
1274.466	0.017	1280934	REC_END	n/a	2	-999	n/a	n/a	n/a	n/a	10	[0, 0, 0]	-999	PAL1	4	R1283T
1274.483	0.265	1280951	TEST_ORIENT	n/a	1	5	MOON	PLANE	PLANE	MOON	10	[0, 0, 0]	-999	PAL1	4	R1283T
1274.748	0.585	1281216	RETRIEVAL_ORIENT_OFF	n/a	2	-999	n/a	n/a	n/a	n/a	10	[0, 0, 0]	-999	PAL1	4	R1283T
1275.333	0.0	1281801	TEST_PROBE	n/a	1	5	MOON	PLANE	PLANE	MOON	10	[0, 0, 0]	-999	PAL1	4	R1283T
1275.333	2.762	1281801	REC_START	n/a	1	-999	n/a	PLANE	n/a	n/a	10	[0, 0, 0]	-999	PAL1	4	R1283T
1278.095	1.255	1284563	REC_EVENT	2762	1	5	MOON	PLANE	PLANE	MOON	10	[0, 0, 0]	-999	PAL1	4	R1283T
1279.35	1.0	1285818	PROBE_OFF	n/a	1	-999	n/a	n/a	n/a	n/a	10	[0, 0, 0]	-999	PAL1	4	R1283T
1280.35	0.017	1286818	REC_END	n/a	1	-999	n/a	n/a	n/a	n/a	10	[0, 0, 0]	-999	PAL1	4	R1283T
1280.367	0.267	1286835	TEST_ORIENT	n/a	6	6	CROW	n/a	BRIDGE	CROW	10	[0, 0, 0]	-999	PAL1	4	R1283T
1280.634	0.717	1287102	RETRIEVAL_ORIENT_OFF	n/a	1	-999	n/a	n/a	n/a	n/a	10	[0, 0, 0]	-999	PAL1	4	R1283T
1281.351	0.0	1287819	REC_START	n/a	6	-999	n/a	n/a	n/a	n/a	10	[0, 0, 0]	-999	PAL1	4	R1283T
1281.351	4.017	1287819	TEST_PROBE	n/a	6	6	CROW	n/a	BRIDGE	CROW	10	[0, 0, 0]	-999	PAL1	4	R1283T
1285.368	0.998	1291836	PROBE_OFF	n/a	6	-999	n/a	n/a	n/a	n/a	10	[0, 0, 0]	-999	PAL1	4	R1283T
1286.366	0.003	1292834	REC_EVENT	5015	6	6	CROW	<>	BRIDGE	CROW	10	[0, 0, 0]	-999	PAL1	4	R1283T
1286.369	0.009	1292837	REC_END	n/a	6	-999	n/a	n/a	n/a	n/a	10	[0, 0, 0]	-999	PAL1	4	R1283T
1286.378	4.407	1292846	RECALL_END	n/a	-999	-999	n/a	n/a	n/a	n/a	10	[0, 0, 0]	-999	PAL1	4	R1283T
1290.785	10.929	1297252	TRIAL	n/a	-999	-999	n/a	n/a	n/a	n/a	11	[0, 0, 0]	-999	PAL1	4	R1283T
1301.714	0.006	1308181	ENCODING_START	n/a	-999	-999	n/a	n/a	n/a	n/a	11	[0, 0, 0]	-999	PAL1	4	R1283T
1301.72	0.267	1308187	STUDY_ORIENT	n/a	1	5	FISH	n/a	FISH	FLEA	11	[0, 0, 0]	-999	PAL1	4	R1283T
1301.987	0.766	1308454	STUDY_ORIENT_OFF	n/a	1	5	FISH	n/a	FISH	FLEA	11	[0, 0, 0]	-999	PAL1	4	R1283T
1302.753	4.001	1309220	STUDY_PAIR	n/a	1	5	FISH	n/a	FISH	FLEA	11	[0, 0, 0]	-999	PAL1	4	R1283T
1306.754	1.017	1313221	PAIR_OFF	n/a	1	5	FISH	n/a	FISH	FLEA	11	[0, 0, 0]	-999	PAL1	4	R1283T
1307.771	0.267	1314237	STUDY_ORIENT	n/a	2	6	BOWL	n/a	BOWL	STOOL	11	[0, 0, 0]	-999	PAL1	4	R1283T
1308.038	0.551	1314504	STUDY_ORIENT_OFF	n/a	2	6	BOWL	n/a	BOWL	STOOL	11	[0, 0, 0]	-999	PAL1	4	R1283T
1308.589	4.017	1315055	STUDY_PAIR	n/a	2	6	BOWL	n/a	BOWL	STOOL	11	[0, 0, 0]	-999	PAL1	4	R1283T
1312.606	1.017	1319072	PAIR_OFF	n/a	2	6	BOWL	n/a	BOWL	STOOL	11	[0, 0, 0]	-999	PAL1	4	R1283T
1313.623	0.266	1320089	STUDY_ORIENT	n/a	3	3	CASH	n/a	CASH	HOOK	11	[0, 0, 0]	-999	PAL1	4	R1283T
1313.889	0.584	1320355	STUDY_ORIENT_OFF	n/a	3	3	CASH	n/a	CASH	HOOK	11	[0, 0, 0]	-999	PAL1	4	R1283T
1314.473	4.018	1320939	STUDY_PAIR	n/a	3	3	CASH	n/a	CASH	HOOK	11	[0, 0, 0]	-999	PAL1	4	R1283T
1318.491	1.017	1324957	PAIR_OFF	n/a	3	3	CASH	n/a	CASH	HOOK	11	[0, 0, 0]	-999	PAL1	4	R1283T
1319.508	0.265	1325974	STUDY_ORIENT	n/a	4	2	GOLD	n/a	GATE	GOLD	11	[0, 0, 0]	-999	PAL1	4	R1283T
1319.773	0.668	1326239	STUDY_ORIENT_OFF	n/a	4	2	GOLD	n/a	GATE	GOLD	11	[0, 0, 0]	-999	PAL1	4	R1283T
1320.441	4.017	1326907	STUDY_PAIR	n/a	4	2	GOLD	n/a	GATE	GOLD	11	[0, 0, 0]	-999	PAL1	4	R1283T
1324.458	1.017	1330923	PAIR_OFF	n/a	4	2	GOLD	n/a	GATE	GOLD	11	[0, 0, 0]	-999	PAL1	4	R1283T
1325.475	0.266	1331940	STUDY_ORIENT	n/a	5	1	PALM	n/a	MUD	PALM	11	[0, 0, 0]	-999	PAL1	4	R1283T
1325.741	0.718	1332206	STUDY_ORIENT_OFF	n/a	5	1	PALM	n/a	MUD	PALM	11	[0, 0, 0]	-999	PAL1	4	R1283T
1326.459	4.017	1332924	STUDY_PAIR	n/a	5	1	PALM	n/a	MUD	PALM	11	[0, 0, 0]	-999	PAL1	4	R1283T
1330.476	1.017	1336941	PAIR_OFF	n/a	5	1	PALM	n/a	MUD	PALM	11	[0, 0, 0]	-999	PAL1	4	R1283T
1331.493	0.266	1337958	STUDY_ORIENT	n/a	6	4	CAVE	TRUCK	CAVE	TRUCK	11	[0, 0, 0]	-999	PAL1	4	R1283T
1331.759	0.617	1338224	STUDY_ORIENT_OFF	n/a	6	4	CAVE	TRUCK	CAVE	TRUCK	11	[0, 0, 0]	-999	PAL1	4	R1283T
1332.376	4.018	1338841	STUDY_PAIR	n/a	6	4	CAVE	TRUCK	CAVE	TRUCK	11	[0, 0, 0]	-999	PAL1	4	R1283T
1336.394	1.001	1342859	PAIR_OFF	n/a	6	4	CAVE	TRUCK	CAVE	TRUCK	11	[0, 0, 0]	-999	PAL1	4	R1283T
1337.395	0.0	1343860	ENCODING_END	n/a	-999	-999	n/a	n/a	n/a	n/a	11	[0, 0, 0]	-999	PAL1	4	R1283T
1337.395	0.0	1343860	MATH_START	n/a	-999	-999	n/a	n/a	n/a	n/a	11	[0, 0, 0]	-999	PAL1	4	R1283T
1337.395	0.016	1343860	START	n/a	-999	-999	n/a	n/a	n/a	n/a	12	[-999, -999, -999]	-999	PAL1	4	R1283T
1337.411	5.067	1343876	PROB	5030	-999	-999	n/a	n/a	n/a	n/a	12	[3, 3, 9]	15	PAL1	4	R1283T
1342.478	3.001	1348942	PROB	2970	-999	-999	n/a	n/a	n/a	n/a	12	[2, 5, 6]	13	PAL1	4	R1283T
1345.479	2.784	1351943	PROB	2746	-999	-999	n/a	n/a	n/a	n/a	12	[3, 6, 8]	17	PAL1	4	R1283T
1348.263	2.549	1354727	PROB	2513	-999	-999	n/a	n/a	n/a	n/a	12	[3, 5, 4]	12	PAL1	4	R1283T
1350.812	2.117	1357276	PROB	2091	-999	-999	n/a	n/a	n/a	n/a	12	[7, 3, 3]	13	PAL1	4	R1283T
1352.929	4.001	1359393	PROB	3975	-999	-999	n/a	n/a	n/a	n/a	12	[2, 9, 2]	13	PAL1	4	R1283T
1356.93	2.695	1363394	PROB	2695	-999	-999	n/a	n/a	n/a	n/a	12	[5, 2, 6]	13	PAL1	4	R1283T
1359.625	0.007	1366088	STOP	n/a	-999	-999	n/a	n/a	n/a	n/a	12	[-999, -999, -999]	-999	PAL1	4	R1283T
1359.632	0.0	1366095	MATH_END	n/a	-999	-999	n/a	n/a	n/a	n/a	11	[0, 0, 0]	-999	PAL1	4	R1283T
1359.632	0.016	1366095	RECALL_START	n/a	-999	-999	n/a	n/a	n/a	n/a	11	[0, 0, 0]	-999	PAL1	4	R1283T
1359.648	0.266	1366111	TEST_ORIENT	n/a	5	1	PALM	n/a	MUD	PALM	11	[0, 0, 0]	-999	PAL1	4	R1283T
1359.914	0.751	1366377	RETRIEVAL_ORIENT_OFF	n/a	-999	-999	n/a	n/a	n/a	n/a	11	[0, 0, 0]	-999	PAL1	4	R1283T
1360.665	0.001	1367128	TEST_PROBE	n/a	5	1	PALM	n/a	MUD	PALM	11	[0, 0, 0]	-999	PAL1	4	R1283T
1360.666	4.016	1367129	REC_START	n/a	5	-999	n/a	n/a	n/a	n/a	11	[0, 0, 0]	-999	PAL1	4	R1283T
1364.682	0.999	1371145	PROBE_OFF	n/a	5	-999	n/a	n/a	n/a	n/a	11	[0, 0, 0]	-999	PAL1	4	R1283T
1365.681	0.001	1372144	REC_EVENT	5015	5	1	PALM	<>	MUD	PALM	11	[0, 0, 0]	-999	PAL1	4	R1283T
1365.682	0.017	1372145	REC_END	n/a	5	-999	n/a	n/a	n/a	n/a	11	[0, 0, 0]	-999	PAL1	4	R1283T
1365.699	0.266	1372162	TEST_ORIENT	n/a	4	2	GOLD	n/a	GATE	GOLD	11	[0, 0, 0]	-999	PAL1	4	R1283T
1365.965	0.651	1372428	RETRIEVAL_ORIENT_OFF	n/a	5	-999	n/a	n/a	n/a	n/a	11	[0, 0, 0]	-999	PAL1	4	R1283T
1366.616	0.001	1373079	TEST_PROBE	n/a	4	2	GOLD	n/a	GATE	GOLD	11	[0, 0, 0]	-999	PAL1	4	R1283T
1366.617	4.016	1373080	REC_START	n/a	4	-999	n/a	n/a	n/a	n/a	11	[0, 0, 0]	-999	PAL1	4	R1283T
1370.633	0.999	1377096	PROBE_OFF	n/a	4	-999	n/a	n/a	n/a	n/a	11	[0, 0, 0]	-999	PAL1	4	R1283T
1371.632	0.001	1378095	REC_EVENT	5015	4	2	GOLD	<>	GATE	GOLD	11	[0, 0, 0]	-999	PAL1	4	R1283T
1371.633	0.017	1378096	REC_END	n/a	4	-999	n/a	n/a	n/a	n/a	11	[0, 0, 0]	-999	PAL1	4	R1283T
1371.65	0.266	1378113	TEST_ORIENT	n/a	3	3	CASH	n/a	CASH	HOOK	11	[0, 0, 0]	-999	PAL1	4	R1283T
1371.916	0.551	1378379	RETRIEVAL_ORIENT_OFF	n/a	4	-999	n/a	n/a	n/a	n/a	11	[0, 0, 0]	-999	PAL1	4	R1283T
1372.467	0.001	1378930	TEST_PROBE	n/a	3	3	CASH	n/a	CASH	HOOK	11	[0, 0, 0]	-999	PAL1	4	R1283T
1372.468	4.017	1378931	REC_START	n/a	3	-999	n/a	n/a	n/a	n/a	11	[0, 0, 0]	-999	PAL1	4	R1283T
1376.485	0.998	1382947	PROBE_OFF	n/a	3	-999	n/a	n/a	n/a	n/a	11	[0, 0, 0]	-999	PAL1	4	R1283T
1377.483	0.002	1383945	REC_EVENT	5015	3	3	CASH	<>	CASH	HOOK	11	[0, 0, 0]	-999	PAL1	4	R1283T
1377.485	0.016	1383947	REC_END	n/a	3	-999	n/a	n/a	n/a	n/a	11	[0, 0, 0]	-999	PAL1	4	R1283T
1377.501	0.266	1383963	TEST_ORIENT	n/a	6	4	CAVE	TRUCK	CAVE	TRUCK	11	[0, 0, 0]	-999	PAL1	4	R1283T
1377.767	0.635	1384229	RETRIEVAL_ORIENT_OFF	n/a	3	-999	n/a	n/a	n/a	n/a	11	[0, 0, 0]	-999	PAL1	4	R1283T
1378.402	0.0	1384864	REC_START	n/a	6	-999	n/a	TRUCK	n/a	n/a	11	[0, 0, 0]	-999	PAL1	4	R1283T
1378.402	1.519	1384864	TEST_PROBE	n/a	6	4	CAVE	TRUCK	CAVE	TRUCK	11	[0, 0, 0]	-999	PAL1	4	R1283T
1379.921	2.498	1386383	REC_EVENT	1519	6	4	CAVE	TRUCK	CAVE	TRUCK	11	[0, 0, 0]	-999	PAL1	4	R1283T
1382.419	1.0	1388881	PROBE_OFF	n/a	6	-999	n/a	n/a	n/a	n/a	11	[0, 0, 0]	-999	PAL1	4	R1283T
1383.419	0.017	1389881	REC_END	n/a	6	-999	n/a	n/a	n/a	n/a	11	[0, 0, 0]	-999	PAL1	4	R1283T
1383.436	0.267	1389898	TEST_ORIENT	n/a	1	5	FISH	n/a	FISH	FLEA	11	[0, 0, 0]	-999	PAL1	4	R1283T
1383.703	0.516	1390165	RETRIEVAL_ORIENT_OFF	n/a	6	-999	n/a	n/a	n/a	n/a	11	[0, 0, 0]	-999	PAL1	4	R1283T
1384.219	0.001	1390681	TEST_PROBE	n/a	1	5	FISH	n/a	FISH	FLEA	11	[0, 0, 0]	-999	PAL1	4	R1283T
1384.22	4.017	1390682	REC_START	n/a	1	-999	n/a	n/a	n/a	n/a	11	[0, 0, 0]	-999	PAL1	4	R1283T
1388.237	1.0	1394699	PROBE_OFF	n/a	1	-999	n/a	n/a	n/a	n/a	11	[0, 0, 0]	-999	PAL1	4	R1283T
1389.237	0.004	1395699	REC_END	n/a	1	-999	n/a	n/a	n/a	n/a	11	[0, 0, 0]	-999	PAL1	4	R1283T
1389.241	0.013	1395703	REC_EVENT	5021	1	5	FISH	<>	FISH	FLEA	11	[0, 0, 0]	-999	PAL1	4	R1283T
1389.254	0.266	1395716	TEST_ORIENT	n/a	2	6	BOWL	n/a	BOWL	STOOL	11	[0, 0, 0]	-999	PAL1	4	R1283T
1389.52	0.549	1395982	RETRIEVAL_ORIENT_OFF	n/a	1	-999	n/a	n/a	n/a	n/a	11	[0, 0, 0]	-999	PAL1	4	R1283T
1390.069	0.001	1396531	TEST_PROBE	n/a	2	6	BOWL	n/a	BOWL	STOOL	11	[0, 0, 0]	-999	PAL1	4	R1283T
1390.07	4.017	1396532	REC_START	n/a	2	-999	n/a	n/a	n/a	n/a	11	[0, 0, 0]	-999	PAL1	4	R1283T
1394.087	1.0	1400548	PROBE_OFF	n/a	2	-999	n/a	n/a	n/a	n/a	11	[0, 0, 0]	-999	PAL1	4	R1283T
1395.087	0.004	1401548	REC_END	n/a	2	-999	n/a	n/a	n/a	n/a	11	[0, 0, 0]	-999	PAL1	4	R1283T
1395.091	0.008	1401552	REC_EVENT	5021	2	6	BOWL	<>	BOWL	STOOL	11	[0, 0, 0]	-999	PAL1	4	R1283T
1395.099	3.989	1401560	RECALL_END	n/a	-999	-999	n/a	n/a	n/a	n/a	11	[0, 0, 0]	-999	PAL1	4	R1283T
1399.088	10.928	1405549	TRIAL	n/a	-999	-999	n/a	n/a	n/a	n/a	12	[0, 0, 0]	-999	PAL1	4	R1283T
1410.016	0.007	1416476	ENCODING_START	n/a	-999	-999	n/a	n/a	n/a	n/a	12	[0, 0, 0]	-999	PAL1	4	R1283T
1410.023	0.268	1416483	STUDY_ORIENT	n/a	1	1	FRUIT	n/a	VAN	FRUIT	12	[0, 0, 0]	-999	PAL1	4	R1283T
1410.291	0.549	1416751	STUDY_ORIENT_OFF	n/a	1	1	FRUIT	n/a	VAN	FRUIT	12	[0, 0, 0]	-999	PAL1	4	R1283T
1410.84	4.017	1417300	STUDY_PAIR	n/a	1	1	FRUIT	n/a	VAN	FRUIT	12	[0, 0, 0]	-999	PAL1	4	R1283T
1414.857	1.017	1421317	PAIR_OFF	n/a	1	1	FRUIT	n/a	VAN	FRUIT	12	[0, 0, 0]	-999	PAL1	4	R1283T
1415.874	0.268	1422334	STUDY_ORIENT	n/a	2	4	SNAKE	MAT	SNAKE	MAT	12	[0, 0, 0]	-999	PAL1	4	R1283T
1416.142	0.533	1422602	STUDY_ORIENT_OFF	n/a	2	4	SNAKE	MAT	SNAKE	MAT	12	[0, 0, 0]	-999	PAL1	4	R1283T
1416.675	4.018	1423135	STUDY_PAIR	n/a	2	4	SNAKE	MAT	SNAKE	MAT	12	[0, 0, 0]	-999	PAL1	4	R1283T
1420.693	1.017	1427153	PAIR_OFF	n/a	2	4	SNAKE	MAT	SNAKE	MAT	12	[0, 0, 0]	-999	PAL1	4	R1283T
1421.71	0.265	1428170	STUDY_ORIENT	n/a	3	5	TANK	HEART	TANK	HEART	12	[0, 0, 0]	-999	PAL1	4	R1283T
1421.975	0.718	1428435	STUDY_ORIENT_OFF	n/a	3	5	TANK	HEART	TANK	HEART	12	[0, 0, 0]	-999	PAL1	4	R1283T
1422.693	4.017	1429153	STUDY_PAIR	n/a	3	5	TANK	HEART	TANK	HEART	12	[0, 0, 0]	-999	PAL1	4	R1283T
1426.71	1.016	1433169	PAIR_OFF	n/a	3	5	TANK	HEART	TANK	HEART	12	[0, 0, 0]	-999	PAL1	4	R1283T
1427.726	0.267	1434185	STUDY_ORIENT	n/a	4	6	ROOT	n/a	ROOT	HOUSE	12	[0, 0, 0]	-999	PAL1	4	R1283T
1427.993	0.568	1434452	STUDY_ORIENT_OFF	n/a	4	6	ROOT	n/a	ROOT	HOUSE	12	[0, 0, 0]	-999	PAL1	4	R1283T
1428.561	4.017	1435020	STUDY_PAIR	n/a	4	6	ROOT	n/a	ROOT	HOUSE	12	[0, 0, 0]	-999	PAL1	4	R1283T
1432.578	1.017	1439037	PAIR_OFF	n/a	4	6	ROOT	n/a	ROOT	HOUSE	12	[0, 0, 0]	-999	PAL1	4	R1283T
1433.595	0.266	1440054	STUDY_ORIENT	n/a	5	3	KEY	OAR	KEY	OAR	12	[0, 0, 0]	-999	PAL1	4	R1283T
1433.861	0.701	1440320	STUDY_ORIENT_OFF	n/a	5	3	KEY	OAR	KEY	OAR	12	[0, 0, 0]	-999	PAL1	4	R1283T
1434.562	4.017	1441021	STUDY_PAIR	n/a	5	3	KEY	OAR	KEY	OAR	12	[0, 0, 0]	-999	PAL1	4	R1283T
1438.579	1.017	1445038	PAIR_OFF	n/a	5	3	KEY	OAR	KEY	OAR	12	[0, 0, 0]	-999	PAL1	4	R1283T
1439.596	0.266	1446055	STUDY_ORIENT	n/a	6	2	SIGN	ELF	SIGN	ELF	12	[0, 0, 0]	-999	PAL1	4	R1283T
1439.862	0.617	1446321	STUDY_ORIENT_OFF	n/a	6	2	SIGN	ELF	SIGN	ELF	12	[0, 0, 0]	-999	PAL1	4	R1283T
1440.479	4.018	1446938	STUDY_PAIR	n/a	6	2	SIGN	ELF	SIGN	ELF	12	[0, 0, 0]	-999	PAL1	4	R1283T
1444.497	1.0	1450955	PAIR_OFF	n/a	6	2	SIGN	ELF	SIGN	ELF	12	[0, 0, 0]	-999	PAL1	4	R1283T
1445.497	0.0	1451955	MATH_START	n/a	-999	-999	n/a	n/a	n/a	n/a	12	[0, 0, 0]	-999	PAL1	4	R1283T
1445.497	0.0	1451955	ENCODING_END	n/a	-999	-999	n/a	n/a	n/a	n/a	12	[0, 0, 0]	-999	PAL1	4	R1283T
1445.497	0.017	1451955	START	n/a	-999	-999	n/a	n/a	n/a	n/a	13	[-999, -999, -999]	-999	PAL1	4	R1283T
1445.514	3.084	1451972	PROB	3047	-999	-999	n/a	n/a	n/a	n/a	13	[3, 5, 6]	14	PAL1	4	R1283T
1448.598	3.917	1455056	PROB	3883	-999	-999	n/a	n/a	n/a	n/a	13	[9, 3, 5]	17	PAL1	4	R1283T
1452.515	4.751	1458973	PROB	4718	-999	-999	n/a	n/a	n/a	n/a	13	[5, 8, 3]	16	PAL1	4	R1283T
1457.266	3.067	1463724	PROB	3039	-999	-999	n/a	n/a	n/a	n/a	13	[2, 4, 9]	15	PAL1	4	R1283T
1460.333	4.301	1466790	PROB	4276	-999	-999	n/a	n/a	n/a	n/a	13	[7, 8, 5]	18	PAL1	4	R1283T
1464.634	4.862	1471091	PROB	4862	-999	-999	n/a	n/a	n/a	n/a	13	[7, 4, 9]	20	PAL1	4	R1283T
1469.496	0.005	1475953	STOP	n/a	-999	-999	n/a	n/a	n/a	n/a	13	[-999, -999, -999]	-999	PAL1	4	R1283T
1469.501	0.001	1475958	MATH_END	n/a	-999	-999	n/a	n/a	n/a	n/a	12	[0, 0, 0]	-999	PAL1	4	R1283T
1469.502	0.016	1475959	RECALL_START	n/a	-999	-999	n/a	n/a	n/a	n/a	12	[0, 0, 0]	-999	PAL1	4	R1283T
1469.518	0.266	1475975	TEST_ORIENT	n/a	1	1	FRUIT	n/a	VAN	FRUIT	12	[0, 0, 0]	-999	PAL1	4	R1283T
1469.784	0.617	1476241	RETRIEVAL_ORIENT_OFF	n/a	-999	-999	n/a	n/a	n/a	n/a	12	[0, 0, 0]	-999	PAL1	4	R1283T
1470.401	0.001	1476858	TEST_PROBE	n/a	1	1	FRUIT	n/a	VAN	FRUIT	12	[0, 0, 0]	-999	PAL1	4	R1283T
1470.402	4.017	1476859	REC_START	n/a	1	-999	n/a	n/a	n/a	n/a	12	[0, 0, 0]	-999	PAL1	4	R1283T
1474.419	0.998	1480876	PROBE_OFF	n/a	1	-999	n/a	n/a	n/a	n/a	12	[0, 0, 0]	-999	PAL1	4	R1283T
1475.417	0.002	1481873	REC_EVENT	5015	1	1	FRUIT	<>	VAN	FRUIT	12	[0, 0, 0]	-999	PAL1	4	R1283T
1475.419	0.017	1481875	REC_END	n/a	1	-999	n/a	n/a	n/a	n/a	12	[0, 0, 0]	-999	PAL1	4	R1283T
1475.436	0.267	1481892	TEST_ORIENT	n/a	6	2	SIGN	ELF	SIGN	ELF	12	[0, 0, 0]	-999	PAL1	4	R1283T
1475.703	0.733	1482159	RETRIEVAL_ORIENT_OFF	n/a	1	-999	n/a	n/a	n/a	n/a	12	[0, 0, 0]	-999	PAL1	4	R1283T
1476.436	0.0	1482892	TEST_PROBE	n/a	6	2	SIGN	ELF	SIGN	ELF	12	[0, 0, 0]	-999	PAL1	4	R1283T
1476.436	1.015	1482892	REC_START	n/a	6	-999	n/a	ELF	n/a	n/a	12	[0, 0, 0]	-999	PAL1	4	R1283T
1477.451	3.002	1483907	REC_EVENT	1015	6	2	SIGN	ELF	SIGN	ELF	12	[0, 0, 0]	-999	PAL1	4	R1283T
1480.453	1.0	1486909	PROBE_OFF	n/a	6	-999	n/a	n/a	n/a	n/a	12	[0, 0, 0]	-999	PAL1	4	R1283T
1481.453	0.017	1487909	REC_END	n/a	6	-999	n/a	n/a	n/a	n/a	12	[0, 0, 0]	-999	PAL1	4	R1283T
1481.47	0.266	1487926	TEST_ORIENT	n/a	5	3	KEY	OAR	KEY	OAR	12	[0, 0, 0]	-999	PAL1	4	R1283T
1481.736	0.718	1488192	RETRIEVAL_ORIENT_OFF	n/a	6	-999	n/a	n/a	n/a	n/a	12	[0, 0, 0]	-999	PAL1	4	R1283T
1482.454	0.0	1488910	TEST_PROBE	n/a	5	3	KEY	OAR	KEY	OAR	12	[0, 0, 0]	-999	PAL1	4	R1283T
1482.454	2.783	1488910	REC_START	n/a	5	-999	n/a	OAR	n/a	n/a	12	[0, 0, 0]	-999	PAL1	4	R1283T
1485.237	1.234	1491693	REC_EVENT	2783	5	3	KEY	OAR	KEY	OAR	12	[0, 0, 0]	-999	PAL1	4	R1283T
1486.471	1.0	1492927	PROBE_OFF	n/a	5	-999	n/a	n/a	n/a	n/a	12	[0, 0, 0]	-999	PAL1	4	R1283T
1487.471	0.017	1493927	REC_END	n/a	5	-999	n/a	n/a	n/a	n/a	12	[0, 0, 0]	-999	PAL1	4	R1283T
1487.488	0.266	1493944	TEST_ORIENT	n/a	2	4	SNAKE	MAT	SNAKE	MAT	12	[0, 0, 0]	-999	PAL1	4	R1283T
1487.754	0.601	1494210	RETRIEVAL_ORIENT_OFF	n/a	5	-999	n/a	n/a	n/a	n/a	12	[0, 0, 0]	-999	PAL1	4	R1283T
1488.355	0.0	1494811	TEST_PROBE	n/a	2	4	SNAKE	MAT	SNAKE	MAT	12	[0, 0, 0]	-999	PAL1	4	R1283T
1488.355	1.803	1494811	REC_START	n/a	2	-999	n/a	MAT	n/a	n/a	12	[0, 0, 0]	-999	PAL1	4	R1283T
1490.158	2.214	1496614	REC_EVENT	1803	2	4	SNAKE	MAT	SNAKE	MAT	12	[0, 0, 0]	-999	PAL1	4	R1283T
1492.372	1.0	1498827	PROBE_OFF	n/a	2	-999	n/a	n/a	n/a	n/a	12	[0, 0, 0]	-999	PAL1	4	R1283T
1493.372	0.017	1499827	REC_END	n/a	2	-999	n/a	n/a	n/a	n/a	12	[0, 0, 0]	-999	PAL1	4	R1283T
1493.389	0.267	1499844	TEST_ORIENT	n/a	3	5	TANK	HEART	TANK	HEART	12	[0, 0, 0]	-999	PAL1	4	R1283T
1493.656	0.683	1500111	RETRIEVAL_ORIENT_OFF	n/a	2	-999	n/a	n/a	n/a	n/a	12	[0, 0, 0]	-999	PAL1	4	R1283T
1494.339	0.001	1500794	TEST_PROBE	n/a	3	5	TANK	HEART	TANK	HEART	12	[0, 0, 0]	-999	PAL1	4	R1283T
1494.34	1.362	1500795	REC_START	n/a	3	-999	n/a	HEART	n/a	n/a	12	[0, 0, 0]	-999	PAL1	4	R1283T
1495.702	2.655	1502157	REC_EVENT	1362	3	5	TANK	HEART	TANK	HEART	12	[0, 0, 0]	-999	PAL1	4	R1283T
1498.357	1.0	1504812	PROBE_OFF	n/a	3	-999	n/a	n/a	n/a	n/a	12	[0, 0, 0]	-999	PAL1	4	R1283T
1499.357	0.017	1505812	REC_END	n/a	3	-999	n/a	n/a	n/a	n/a	12	[0, 0, 0]	-999	PAL1	4	R1283T
1499.374	0.266	1505829	TEST_ORIENT	n/a	4	6	ROOT	n/a	ROOT	HOUSE	12	[0, 0, 0]	-999	PAL1	4	R1283T
1499.64	0.533	1506095	RETRIEVAL_ORIENT_OFF	n/a	3	-999	n/a	n/a	n/a	n/a	12	[0, 0, 0]	-999	PAL1	4	R1283T
1500.173	0.001	1506628	TEST_PROBE	n/a	4	6	ROOT	n/a	ROOT	HOUSE	12	[0, 0, 0]	-999	PAL1	4	R1283T
1500.174	4.017	1506629	REC_START	n/a	4	-999	n/a	n/a	n/a	n/a	12	[0, 0, 0]	-999	PAL1	4	R1283T
1504.191	0.998	1510646	PROBE_OFF	n/a	4	-999	n/a	n/a	n/a	n/a	12	[0, 0, 0]	-999	PAL1	4	R1283T
1505.189	0.002	1511644	REC_EVENT	5015	4	6	ROOT	<>	ROOT	HOUSE	12	[0, 0, 0]	-999	PAL1	4	R1283T
1505.191	0.009	1511646	REC_END	n/a	4	-999	n/a	n/a	n/a	n/a	12	[0, 0, 0]	-999	PAL1	4	R1283T
1505.2	4.158	1511655	RECALL_END	n/a	-999	-999	n/a	n/a	n/a	n/a	12	[0, 0, 0]	-999	PAL1	4	R1283T
1509.358	10.928	1515812	TRIAL	n/a	-999	-999	n/a	n/a	n/a	n/a	13	[0, 0, 0]	-999	PAL1	4	R1283T
1520.286	0.008	1526740	ENCODING_START	n/a	-999	-999	n/a	n/a	n/a	n/a	13	[0, 0, 0]	-999	PAL1	4	R1283T
1520.294	0.267	1526748	STUDY_ORIENT	n/a	1	5	BOY	TOE	TOE	BOY	13	[0, 0, 0]	-999	PAL1	4	R1283T
1520.561	0.7	1527015	STUDY_ORIENT_OFF	n/a	1	5	BOY	TOE	TOE	BOY	13	[0, 0, 0]	-999	PAL1	4	R1283T
1521.261	4.017	1527715	STUDY_PAIR	n/a	1	5	BOY	TOE	TOE	BOY	13	[0, 0, 0]	-999	PAL1	4	R1283T
1525.278	1.017	1531731	PAIR_OFF	n/a	1	5	BOY	TOE	TOE	BOY	13	[0, 0, 0]	-999	PAL1	4	R1283T
1526.295	0.267	1532748	STUDY_ORIENT	n/a	2	6	ROOM	WOLF	ROOM	WOLF	13	[0, 0, 0]	-999	PAL1	4	R1283T
1526.562	0.767	1533015	STUDY_ORIENT_OFF	n/a	2	6	ROOM	WOLF	ROOM	WOLF	13	[0, 0, 0]	-999	PAL1	4	R1283T
1527.329	4.017	1533782	STUDY_PAIR	n/a	2	6	ROOM	WOLF	ROOM	WOLF	13	[0, 0, 0]	-999	PAL1	4	R1283T
1531.346	1.017	1537799	PAIR_OFF	n/a	2	6	ROOM	WOLF	ROOM	WOLF	13	[0, 0, 0]	-999	PAL1	4	R1283T
1532.363	0.267	1538816	STUDY_ORIENT	n/a	3	1	ARK	n/a	ARK	FILM	13	[0, 0, 0]	-999	PAL1	4	R1283T
1532.63	0.55	1539083	STUDY_ORIENT_OFF	n/a	3	1	ARK	n/a	ARK	FILM	13	[0, 0, 0]	-999	PAL1	4	R1283T
1533.18	4.017	1539633	STUDY_PAIR	n/a	3	1	ARK	n/a	ARK	FILM	13	[0, 0, 0]	-999	PAL1	4	R1283T
1537.197	1.017	1543650	PAIR_OFF	n/a	3	1	ARK	n/a	ARK	FILM	13	[0, 0, 0]	-999	PAL1	4	R1283T
1538.214	0.267	1544667	STUDY_ORIENT	n/a	4	4	MUG	POOL	POOL	MUG	13	[0, 0, 0]	-999	PAL1	4	R1283T
