onset	duration	sample	trial_type	response_time	stim_file	serialpos	probepos	probe_word	resp_word	study_1	study_2	list	test	answer	experiment	session	subject
0.0	73.5	446709	SESS_START	n/a	n/a	-999	-999	n/a	n/a	n/a	n/a	-999	[0, 0, 0]	-999	PAL1	0	R1212P
73.5	1.017	521970	START	n/a	n/a	-999	-999	n/a	n/a	n/a	n/a	-1	[-999, -999, -999]	-999	PAL1	0	R1212P
74.517	5.251	523011	PROB	5220	n/a	-999	-999	n/a	n/a	n/a	n/a	-1	[8, 6, 3]	17	PAL1	0	R1212P
79.768	3.917	528388	PROB	3889	n/a	-999	-999	n/a	n/a	n/a	n/a	-1	[3, 2, 6]	11	PAL1	0	R1212P
83.685	5.401	532399	PROB	5372	n/a	-999	-999	n/a	n/a	n/a	n/a	-1	[6, 5, 7]	18	PAL1	0	R1212P
89.086	5.363	537929	PROB	5363	n/a	-999	-999	n/a	n/a	n/a	n/a	-1	[3, 8, 6]	17	PAL1	0	R1212P
94.449	64.296	543421	STOP	n/a	n/a	-999	-999	n/a	n/a	n/a	n/a	-1	[-999, -999, -999]	-999	PAL1	0	R1212P
158.745	10.44	609257	ENCODING_START	n/a	n/a	0	-999	n/a	n/a	n/a	n/a	1	[0, 0, 0]	-999	PAL1	0	R1212P
169.185	0.917	619947	STUDY_ORIENT	n/a	n/a	1	3	NOSE	PEN	NOSE	PEN	1	[0, 0, 0]	-999	PAL1	0	R1212P
170.102	5.034	620886	STUDY_PAIR	n/a	wordpools/wordpool_EN.txt	1	3	NOSE	PEN	NOSE	PEN	1	[0, 0, 0]	-999	PAL1	0	R1212P
175.136	0.884	626041	STUDY_ORIENT	n/a	n/a	2	4	SHOE	n/a	SHOE	VEST	1	[0, 0, 0]	-999	PAL1	0	R1212P
176.02	5.034	626946	STUDY_PAIR	n/a	wordpools/wordpool_EN.txt	2	4	SHOE	n/a	SHOE	VEST	1	[0, 0, 0]	-999	PAL1	0	R1212P
181.054	0.95	632100	STUDY_ORIENT	n/a	n/a	3	1	MOON	SWORD	MOON	SWORD	1	[0, 0, 0]	-999	PAL1	0	R1212P
182.004	5.018	633073	STUDY_PAIR	n/a	wordpools/wordpool_EN.txt	3	1	MOON	SWORD	MOON	SWORD	1	[0, 0, 0]	-999	PAL1	0	R1212P
187.022	0.833	638211	STUDY_ORIENT	n/a	n/a	4	6	PIPE	n/a	THUMB	PIPE	1	[0, 0, 0]	-999	PAL1	0	R1212P
187.855	5.018	639064	STUDY_PAIR	n/a	wordpools/wordpool_EN.txt	4	6	PIPE	n/a	THUMB	PIPE	1	[0, 0, 0]	-999	PAL1	0	R1212P
192.873	0.933	644202	STUDY_ORIENT	n/a	n/a	5	5	CONE	BANK	CONE	BANK	1	[0, 0, 0]	-999	PAL1	0	R1212P
193.806	5.018	645158	STUDY_PAIR	n/a	wordpools/wordpool_EN.txt	5	5	CONE	BANK	CONE	BANK	1	[0, 0, 0]	-999	PAL1	0	R1212P
198.824	0.95	650296	STUDY_ORIENT	n/a	n/a	6	2	GRASS	LAKE	LAKE	GRASS	1	[0, 0, 0]	-999	PAL1	0	R1212P
199.774	4.018	651269	STUDY_PAIR	n/a	wordpools/wordpool_EN.txt	6	2	GRASS	LAKE	LAKE	GRASS	1	[0, 0, 0]	-999	PAL1	0	R1212P
203.792	1.0	655383	START	n/a	n/a	-999	-999	n/a	n/a	n/a	n/a	1	[-999, -999, -999]	-999	PAL1	0	R1212P
204.792	0.017	656407	MATH_START	n/a	n/a	-999	-999	n/a	n/a	n/a	n/a	1	[0, 0, 0]	-999	PAL1	0	R1212P
204.809	4.435	656424	PROB	4401	n/a	-999	-999	n/a	n/a	n/a	n/a	1	[2, 5, 1]	8	PAL1	0	R1212P
209.244	4.4	660966	PROB	4365	n/a	-999	-999	n/a	n/a	n/a	n/a	1	[9, 4, 5]	18	PAL1	0	R1212P
213.644	4.2	665471	PROB	4181	n/a	-999	-999	n/a	n/a	n/a	n/a	1	[2, 7, 8]	17	PAL1	0	R1212P
217.844	5.168	669772	PROB	5141	n/a	-999	-999	n/a	n/a	n/a	n/a	1	[4, 8, 6]	18	PAL1	0	R1212P
223.012	3.526	675063	PROB	3526	n/a	-999	-999	n/a	n/a	n/a	n/a	1	[5, 1, 1]	7	PAL1	0	R1212P
226.538	0.008	678674	STOP	n/a	n/a	-999	-999	n/a	n/a	n/a	n/a	1	[-999, -999, -999]	-999	PAL1	0	R1212P
226.546	0.0	678682	MATH_END	n/a	n/a	-999	-999	n/a	n/a	n/a	n/a	1	[0, 0, 0]	-999	PAL1	0	R1212P
226.546	0.017	678682	TEST_START	n/a	n/a	-999	-999	n/a	n/a	n/a	n/a	1	[0, 0, 0]	-999	PAL1	0	R1212P
226.563	0.818	678699	TEST_ORIENT	n/a	n/a	3	1	MOON	SWORD	MOON	SWORD	1	[0, 0, 0]	-999	PAL1	0	R1212P
227.381	0.0	679537	REC_START	n/a	n/a	3	-999	n/a	SWORD	n/a	n/a	1	[0, 0, 0]	-999	PAL1	0	R1212P
227.381	2.99	679537	TEST_PROBE	n/a	wordpools/wordpool_EN.txt	3	1	MOON	SWORD	MOON	SWORD	1	[0, 0, 0]	-999	PAL1	0	R1212P
230.371	2.027	682599	REC_EVENT	2990	n/a	3	1	MOON	SWORD	MOON	SWORD	1	[0, 0, 0]	-999	PAL1	0	R1212P
232.398	0.017	684674	REC_END	n/a	n/a	3	-999	n/a	n/a	n/a	n/a	1	[0, 0, 0]	-999	PAL1	0	R1212P
232.415	0.883	684692	TEST_ORIENT	n/a	n/a	6	2	GRASS	LAKE	LAKE	GRASS	1	[0, 0, 0]	-999	PAL1	0	R1212P
233.298	0.001	685596	TEST_PROBE	n/a	wordpools/wordpool_EN.txt	6	2	GRASS	LAKE	LAKE	GRASS	1	[0, 0, 0]	-999	PAL1	0	R1212P
233.299	0.984	685597	REC_START	n/a	n/a	6	-999	n/a	LAKE	n/a	n/a	1	[0, 0, 0]	-999	PAL1	0	R1212P
234.283	4.024	686604	REC_EVENT	984	n/a	6	2	GRASS	LAKE	LAKE	GRASS	1	[0, 0, 0]	-999	PAL1	0	R1212P
238.307	0.009	690725	REC_END	n/a	n/a	6	-999	n/a	n/a	n/a	n/a	1	[0, 0, 0]	-999	PAL1	0	R1212P
238.316	1.017	690734	TEST_ORIENT	n/a	n/a	1	3	NOSE	PEN	NOSE	PEN	1	[0, 0, 0]	-999	PAL1	0	R1212P
239.333	0.0	691775	REC_START	n/a	n/a	1	-999	n/a	PEN	n/a	n/a	1	[0, 0, 0]	-999	PAL1	0	R1212P
239.333	1.113	691775	TEST_PROBE	n/a	wordpools/wordpool_EN.txt	1	3	NOSE	PEN	NOSE	PEN	1	[0, 0, 0]	-999	PAL1	0	R1212P
240.446	3.904	692915	REC_EVENT	1113	n/a	1	3	NOSE	PEN	NOSE	PEN	1	[0, 0, 0]	-999	PAL1	0	R1212P
244.35	0.017	696912	REC_END	n/a	n/a	1	-999	n/a	n/a	n/a	n/a	1	[0, 0, 0]	-999	PAL1	0	R1212P
244.367	0.884	696930	TEST_ORIENT	n/a	n/a	2	4	SHOE	n/a	SHOE	VEST	1	[0, 0, 0]	-999	PAL1	0	R1212P
245.251	0.0	697835	TEST_PROBE	n/a	wordpools/wordpool_EN.txt	2	4	SHOE	n/a	SHOE	VEST	1	[0, 0, 0]	-999	PAL1	0	R1212P
245.251	3.52	697835	REC_START	n/a	n/a	2	-999	n/a	n/a	n/a	n/a	1	[0, 0, 0]	-999	PAL1	0	R1212P
248.771	1.497	701439	REC_EVENT	3520	n/a	2	4	SHOE	<>	SHOE	VEST	1	[0, 0, 0]	-999	PAL1	0	R1212P
250.268	0.017	702972	REC_END	n/a	n/a	2	-999	n/a	n/a	n/a	n/a	1	[0, 0, 0]	-999	PAL1	0	R1212P
250.285	0.983	702990	TEST_ORIENT	n/a	n/a	5	5	CONE	BANK	CONE	BANK	1	[0, 0, 0]	-999	PAL1	0	R1212P
251.268	0.001	703996	TEST_PROBE	n/a	wordpools/wordpool_EN.txt	5	5	CONE	BANK	CONE	BANK	1	[0, 0, 0]	-999	PAL1	0	R1212P
251.269	1.95	703997	REC_START	n/a	n/a	5	-999	n/a	BANK	n/a	n/a	1	[0, 0, 0]	-999	PAL1	0	R1212P
253.219	3.058	705994	REC_EVENT	1950	n/a	5	5	CONE	BANK	CONE	BANK	1	[0, 0, 0]	-999	PAL1	0	R1212P
256.277	0.009	709125	REC_END	n/a	n/a	5	-999	n/a	n/a	n/a	n/a	1	[0, 0, 0]	-999	PAL1	0	R1212P
256.286	0.984	709134	TEST_ORIENT	n/a	n/a	4	6	PIPE	n/a	THUMB	PIPE	1	[0, 0, 0]	-999	PAL1	0	R1212P
257.27	0.0	710142	TEST_PROBE	n/a	wordpools/wordpool_EN.txt	4	6	PIPE	n/a	THUMB	PIPE	1	[0, 0, 0]	-999	PAL1	0	R1212P
257.27	2.692	710142	REC_START	n/a	n/a	4	-999	n/a	n/a	n/a	n/a	1	[0, 0, 0]	-999	PAL1	0	R1212P
259.962	2.325	712898	REC_EVENT	2692	n/a	4	6	PIPE	<>	THUMB	PIPE	1	[0, 0, 0]	-999	PAL1	0	R1212P
262.287	2.107	715279	REC_END	n/a	n/a	4	-999	n/a	n/a	n/a	n/a	1	[0, 0, 0]	-999	PAL1	0	R1212P
264.394	10.445	717437	ENCODING_START	n/a	n/a	0	-999	n/a	n/a	n/a	n/a	2	[0, 0, 0]	-999	PAL1	0	R1212P
274.839	0.933	728132	STUDY_ORIENT	n/a	n/a	1	1	TOAST	TOAST	TOAST	GUARD	2	[0, 0, 0]	-999	PAL1	0	R1212P
275.772	5.018	729087	STUDY_PAIR	n/a	wordpools/wordpool_EN.txt	1	1	TOAST	TOAST	TOAST	GUARD	2	[0, 0, 0]	-999	PAL1	0	R1212P
280.79	0.783	734225	STUDY_ORIENT	n/a	n/a	2	4	DOLL	FUR	FUR	DOLL	2	[0, 0, 0]	-999	PAL1	0	R1212P
281.573	5.018	735027	STUDY_PAIR	n/a	wordpools/wordpool_EN.txt	2	4	DOLL	FUR	FUR	DOLL	2	[0, 0, 0]	-999	PAL1	0	R1212P
286.591	1.017	740165	STUDY_ORIENT	n/a	n/a	3	5	BEAK	n/a	BLUSH	BEAK	2	[0, 0, 0]	-999	PAL1	0	R1212P
287.608	5.034	741207	STUDY_PAIR	n/a	wordpools/wordpool_EN.txt	3	5	BEAK	n/a	BLUSH	BEAK	2	[0, 0, 0]	-999	PAL1	0	R1212P
292.642	0.8	746361	STUDY_ORIENT	n/a	n/a	4	6	HOLE	BOOK	BOOK	HOLE	2	[0, 0, 0]	-999	PAL1	0	R1212P
293.442	5.018	747180	STUDY_PAIR	n/a	wordpools/wordpool_EN.txt	4	6	HOLE	BOOK	BOOK	HOLE	2	[0, 0, 0]	-999	PAL1	0	R1212P
298.46	0.818	752319	STUDY_ORIENT	n/a	n/a	5	3	WAND	DEER	DEER	WAND	2	[0, 0, 0]	-999	PAL1	0	R1212P
299.278	5.034	753156	STUDY_PAIR	n/a	wordpools/wordpool_EN.txt	5	3	WAND	DEER	DEER	WAND	2	[0, 0, 0]	-999	PAL1	0	R1212P
304.312	0.967	758311	STUDY_ORIENT	n/a	n/a	6	2	DITCH	JAR	DITCH	JAR	2	[0, 0, 0]	-999	PAL1	0	R1212P
305.279	4.018	759301	STUDY_PAIR	n/a	wordpools/wordpool_EN.txt	6	2	DITCH	JAR	DITCH	JAR	2	[0, 0, 0]	-999	PAL1	0	R1212P
309.297	0.999	763415	START	n/a	n/a	-999	-999	n/a	n/a	n/a	n/a	2	[-999, -999, -999]	-999	PAL1	0	R1212P
310.296	0.017	764438	MATH_START	n/a	n/a	-999	-999	n/a	n/a	n/a	n/a	2	[0, 0, 0]	-999	PAL1	0	R1212P
310.313	4.7	764456	PROB	4680	n/a	-999	-999	n/a	n/a	n/a	n/a	2	[5, 2, 6]	13	PAL1	0	R1212P
315.013	4.751	769268	PROB	4724	n/a	-999	-999	n/a	n/a	n/a	n/a	2	[4, 3, 9]	16	PAL1	0	R1212P
319.764	4.051	774133	PROB	4021	n/a	-999	-999	n/a	n/a	n/a	n/a	2	[1, 3, 5]	9	PAL1	0	R1212P
323.815	2.684	778281	PROB	2658	n/a	-999	-999	n/a	n/a	n/a	n/a	2	[2, 9, 1]	1	PAL1	0	R1212P
326.499	7.079	781029	PROB	7079	n/a	-999	-999	n/a	n/a	n/a	n/a	2	[5, 6, 8]	19	PAL1	0	R1212P
333.578	0.005	788278	STOP	n/a	n/a	-999	-999	n/a	n/a	n/a	n/a	2	[-999, -999, -999]	-999	PAL1	0	R1212P
333.583	0.0	788283	MATH_END	n/a	n/a	-999	-999	n/a	n/a	n/a	n/a	2	[0, 0, 0]	-999	PAL1	0	R1212P
333.583	0.017	788283	TEST_START	n/a	n/a	-999	-999	n/a	n/a	n/a	n/a	2	[0, 0, 0]	-999	PAL1	0	R1212P
333.6	0.867	788300	TEST_ORIENT	n/a	n/a	1	1	TOAST	TOAST	TOAST	GUARD	2	[0, 0, 0]	-999	PAL1	0	R1212P
334.467	0.0	789188	TEST_PROBE	n/a	wordpools/wordpool_EN.txt	1	1	TOAST	TOAST	TOAST	GUARD	2	[0, 0, 0]	-999	PAL1	0	R1212P
334.467	4.112	789188	REC_START	n/a	n/a	1	-999	n/a	TOAST	n/a	n/a	2	[0, 0, 0]	-999	PAL1	0	R1212P
338.579	0.905	793399	REC_EVENT	4112	n/a	1	1	TOAST	TOAST	TOAST	GUARD	2	[0, 0, 0]	-999	PAL1	0	R1212P
339.484	0.017	794325	REC_END	n/a	n/a	1	-999	n/a	n/a	n/a	n/a	2	[0, 0, 0]	-999	PAL1	0	R1212P
339.501	0.818	794343	TEST_ORIENT	n/a	n/a	6	2	DITCH	JAR	DITCH	JAR	2	[0, 0, 0]	-999	PAL1	0	R1212P
340.319	0.0	795180	REC_START	n/a	n/a	6	-999	n/a	JAR	n/a	n/a	2	[0, 0, 0]	-999	PAL1	0	R1212P
340.319	1.429	795180	TEST_PROBE	n/a	wordpools/wordpool_EN.txt	6	2	DITCH	JAR	DITCH	JAR	2	[0, 0, 0]	-999	PAL1	0	R1212P
341.748	3.588	796644	REC_EVENT	1429	n/a	6	2	DITCH	JAR	DITCH	JAR	2	[0, 0, 0]	-999	PAL1	0	R1212P
345.336	0.017	800317	REC_END	n/a	n/a	6	-999	n/a	n/a	n/a	n/a	2	[0, 0, 0]	-999	PAL1	0	R1212P
345.353	0.799	800335	TEST_ORIENT	n/a	n/a	5	3	WAND	DEER	DEER	WAND	2	[0, 0, 0]	-999	PAL1	0	R1212P
346.152	0.001	801153	TEST_PROBE	n/a	wordpools/wordpool_EN.txt	5	3	WAND	DEER	DEER	WAND	2	[0, 0, 0]	-999	PAL1	0	R1212P
346.153	1.419	801154	REC_START	n/a	n/a	5	-999	n/a	DEER	n/a	n/a	2	[0, 0, 0]	-999	PAL1	0	R1212P
347.572	3.589	802607	REC_EVENT	1419	n/a	5	3	WAND	DEER	DEER	WAND	2	[0, 0, 0]	-999	PAL1	0	R1212P
351.161	0.009	806282	REC_END	n/a	n/a	5	-999	n/a	n/a	n/a	n/a	2	[0, 0, 0]	-999	PAL1	0	R1212P
351.17	0.85	806291	TEST_ORIENT	n/a	n/a	2	4	DOLL	FUR	FUR	DOLL	2	[0, 0, 0]	-999	PAL1	0	R1212P
352.02	0.0	807162	REC_START	n/a	n/a	2	-999	n/a	FUR	n/a	n/a	2	[0, 0, 0]	-999	PAL1	0	R1212P
352.02	0.959	807162	TEST_PROBE	n/a	wordpools/wordpool_EN.txt	2	4	DOLL	FUR	FUR	DOLL	2	[0, 0, 0]	-999	PAL1	0	R1212P
352.979	4.059	808144	REC_EVENT	959	n/a	2	4	DOLL	FUR	FUR	DOLL	2	[0, 0, 0]	-999	PAL1	0	R1212P
357.038	0.016	812300	REC_END	n/a	n/a	2	-999	n/a	n/a	n/a	n/a	2	[0, 0, 0]	-999	PAL1	0	R1212P
357.054	0.784	812316	TEST_ORIENT	n/a	n/a	3	5	BEAK	n/a	BLUSH	BEAK	2	[0, 0, 0]	-999	PAL1	0	R1212P
357.838	0.0	813119	TEST_PROBE	n/a	wordpools/wordpool_EN.txt	3	5	BEAK	n/a	BLUSH	BEAK	2	[0, 0, 0]	-999	PAL1	0	R1212P
357.838	2.664	813119	REC_START	n/a	n/a	3	-999	n/a	n/a	n/a	n/a	2	[0, 0, 0]	-999	PAL1	0	R1212P
360.502	2.353	815847	REC_EVENT	2664	n/a	3	5	BEAK	<>	BLUSH	BEAK	2	[0, 0, 0]	-999	PAL1	0	R1212P
362.855	0.017	818256	REC_END	n/a	n/a	3	-999	n/a	n/a	n/a	n/a	2	[0, 0, 0]	-999	PAL1	0	R1212P
362.872	0.95	818274	TEST_ORIENT	n/a	n/a	4	6	HOLE	BOOK	BOOK	HOLE	2	[0, 0, 0]	-999	PAL1	0	R1212P
363.822	0.001	819246	TEST_PROBE	n/a	wordpools/wordpool_EN.txt	4	6	HOLE	BOOK	BOOK	HOLE	2	[0, 0, 0]	-999	PAL1	0	R1212P
363.823	3.465	819247	REC_START	n/a	n/a	4	-999	n/a	BOOK	n/a	n/a	2	[0, 0, 0]	-999	PAL1	0	R1212P
367.288	1.543	822795	REC_EVENT	3465	n/a	4	6	HOLE	BOOK	BOOK	HOLE	2	[0, 0, 0]	-999	PAL1	0	R1212P
368.831	1.93	824375	REC_END	n/a	n/a	4	-999	n/a	n/a	n/a	n/a	2	[0, 0, 0]	-999	PAL1	0	R1212P
370.761	10.449	826351	ENCODING_START	n/a	n/a	0	-999	n/a	n/a	n/a	n/a	3	[0, 0, 0]	-999	PAL1	0	R1212P
381.21	0.833	837051	STUDY_ORIENT	n/a	n/a	1	3	SEAL	BARN	BARN	SEAL	3	[0, 0, 0]	-999	PAL1	0	R1212P
382.043	5.034	837904	STUDY_PAIR	n/a	wordpools/wordpool_EN.txt	1	3	SEAL	BARN	BARN	SEAL	3	[0, 0, 0]	-999	PAL1	0	R1212P
387.077	0.967	843058	STUDY_ORIENT	n/a	n/a	2	6	OAR	n/a	OAR	WHEEL	3	[0, 0, 0]	-999	PAL1	0	R1212P
388.044	5.034	844048	STUDY_PAIR	n/a	wordpools/wordpool_EN.txt	2	6	OAR	n/a	OAR	WHEEL	3	[0, 0, 0]	-999	PAL1	0	R1212P
393.078	0.9	849203	STUDY_ORIENT	n/a	n/a	3	1	TEETH	n/a	TEETH	ARK	3	[0, 0, 0]	-999	PAL1	0	R1212P
393.978	5.018	850125	STUDY_PAIR	n/a	wordpools/wordpool_EN.txt	3	1	TEETH	n/a	TEETH	ARK	3	[0, 0, 0]	-999	PAL1	0	R1212P
398.996	0.9	855263	STUDY_ORIENT	n/a	n/a	4	2	HILL	MOLE	PLANE	HILL	3	[0, 0, 0]	-999	PAL1	0	R1212P
399.896	5.034	856184	STUDY_PAIR	n/a	wordpools/wordpool_EN.txt	4	2	HILL	MOLE	PLANE	HILL	3	[0, 0, 0]	-999	PAL1	0	R1212P
404.93	0.917	861339	STUDY_ORIENT	n/a	n/a	5	5	LAND	n/a	MOLE	LAND	3	[0, 0, 0]	-999	PAL1	0	R1212P
405.847	5.018	862278	STUDY_PAIR	n/a	wordpools/wordpool_EN.txt	5	5	LAND	n/a	MOLE	LAND	3	[0, 0, 0]	-999	PAL1	0	R1212P
410.865	0.95	867416	STUDY_ORIENT	n/a	n/a	6	4	FUDGE	n/a	CLOCK	FUDGE	3	[0, 0, 0]	-999	PAL1	0	R1212P
411.815	4.018	868389	STUDY_PAIR	n/a	wordpools/wordpool_EN.txt	6	4	FUDGE	n/a	CLOCK	FUDGE	3	[0, 0, 0]	-999	PAL1	0	R1212P
415.833	0.999	872503	START	n/a	n/a	-999	-999	n/a	n/a	n/a	n/a	3	[-999, -999, -999]	-999	PAL1	0	R1212P
416.832	0.017	873526	MATH_START	n/a	n/a	-999	-999	n/a	n/a	n/a	n/a	3	[0, 0, 0]	-999	PAL1	0	R1212P
416.849	6.902	873543	PROB	6881	n/a	-999	-999	n/a	n/a	n/a	n/a	3	[7, 6, 8]	21	PAL1	0	R1212P
423.751	3.817	880611	PROB	3794	n/a	-999	-999	n/a	n/a	n/a	n/a	3	[1, 7, 8]	16	PAL1	0	R1212P
427.568	4.501	884519	PROB	4465	n/a	-999	-999	n/a	n/a	n/a	n/a	3	[5, 6, 9]	20	PAL1	0	R1212P
432.069	4.068	889128	PROB	4068	n/a	-999	-999	n/a	n/a	n/a	n/a	3	[6, 6, 7]	19	PAL1	0	R1212P
436.137	0.016	893293	STOP	n/a	n/a	-999	-999	n/a	n/a	n/a	n/a	3	[-999, -999, -999]	-999	PAL1	0	R1212P
436.153	0.0	893310	MATH_END	n/a	n/a	-999	-999	n/a	n/a	n/a	n/a	3	[0, 0, 0]	-999	PAL1	0	R1212P
436.153	0.017	893310	TEST_START	n/a	n/a	-999	-999	n/a	n/a	n/a	n/a	3	[0, 0, 0]	-999	PAL1	0	R1212P
436.17	0.9	893327	TEST_ORIENT	n/a	n/a	3	1	TEETH	n/a	TEETH	ARK	3	[0, 0, 0]	-999	PAL1	0	R1212P
437.07	0.0	894249	REC_START	n/a	n/a	3	-999	n/a	n/a	n/a	n/a	3	[0, 0, 0]	-999	PAL1	0	R1212P
437.07	2.825	894249	TEST_PROBE	n/a	wordpools/wordpool_EN.txt	3	1	TEETH	n/a	TEETH	ARK	3	[0, 0, 0]	-999	PAL1	0	R1212P
439.895	2.192	897141	REC_EVENT	2825	n/a	3	1	TEETH	<>	TEETH	ARK	3	[0, 0, 0]	-999	PAL1	0	R1212P
442.087	0.017	899386	REC_END	n/a	n/a	3	-999	n/a	n/a	n/a	n/a	3	[0, 0, 0]	-999	PAL1	0	R1212P
442.104	0.95	899403	TEST_ORIENT	n/a	n/a	4	2	HILL	MOLE	PLANE	HILL	3	[0, 0, 0]	-999	PAL1	0	R1212P
443.054	0.001	900376	TEST_PROBE	n/a	wordpools/wordpool_EN.txt	4	2	HILL	MOLE	PLANE	HILL	3	[0, 0, 0]	-999	PAL1	0	R1212P
443.055	1.22	900377	REC_START	n/a	n/a	4	-999	n/a	MOLE	n/a	n/a	3	[0, 0, 0]	-999	PAL1	0	R1212P
444.275	3.788	901626	REC_EVENT	1220	n/a	4	2	HILL	MOLE	PLANE	HILL	3	[0, 0, 0]	-999	PAL1	0	R1212P
448.063	0.009	905505	REC_END	n/a	n/a	4	-999	n/a	n/a	n/a	n/a	3	[0, 0, 0]	-999	PAL1	0	R1212P
448.072	0.917	905514	TEST_ORIENT	n/a	n/a	1	3	SEAL	BARN	BARN	SEAL	3	[0, 0, 0]	-999	PAL1	0	R1212P
448.989	0.0	906453	REC_START	n/a	n/a	1	-999	n/a	BARN	n/a	n/a	3	[0, 0, 0]	-999	PAL1	0	R1212P
448.989	2.471	906453	TEST_PROBE	n/a	wordpools/wordpool_EN.txt	1	3	SEAL	BARN	BARN	SEAL	3	[0, 0, 0]	-999	PAL1	0	R1212P
451.46	2.546	908984	REC_EVENT	2471	n/a	1	3	SEAL	BARN	BARN	SEAL	3	[0, 0, 0]	-999	PAL1	0	R1212P
454.006	0.017	911591	REC_END	n/a	n/a	1	-999	n/a	n/a	n/a	n/a	3	[0, 0, 0]	-999	PAL1	0	R1212P
454.023	0.984	911608	TEST_ORIENT	n/a	n/a	6	4	FUDGE	n/a	CLOCK	FUDGE	3	[0, 0, 0]	-999	PAL1	0	R1212P
455.007	0.0	912615	TEST_PROBE	n/a	wordpools/wordpool_EN.txt	6	4	FUDGE	n/a	CLOCK	FUDGE	3	[0, 0, 0]	-999	PAL1	0	R1212P
455.007	2.428	912615	REC_START	n/a	n/a	6	-999	n/a	n/a	n/a	n/a	3	[0, 0, 0]	-999	PAL1	0	R1212P
457.435	2.589	915102	REC_EVENT	2428	n/a	6	4	FUDGE	<>	CLOCK	FUDGE	3	[0, 0, 0]	-999	PAL1	0	R1212P
460.024	0.017	917753	REC_END	n/a	n/a	6	-999	n/a	n/a	n/a	n/a	3	[0, 0, 0]	-999	PAL1	0	R1212P
460.041	0.95	917770	TEST_ORIENT	n/a	n/a	5	5	LAND	n/a	MOLE	LAND	3	[0, 0, 0]	-999	PAL1	0	R1212P
460.991	0.001	918743	TEST_PROBE	n/a	wordpools/wordpool_EN.txt	5	5	LAND	n/a	MOLE	LAND	3	[0, 0, 0]	-999	PAL1	0	R1212P
460.992	3.492	918744	REC_START	n/a	n/a	5	-999	n/a	n/a	n/a	n/a	3	[0, 0, 0]	-999	PAL1	0	R1212P
464.484	1.524	922319	REC_EVENT	3492	n/a	5	5	LAND	<>	MOLE	LAND	3	[0, 0, 0]	-999	PAL1	0	R1212P
466.008	0.017	923880	REC_END	n/a	n/a	5	-999	n/a	n/a	n/a	n/a	3	[0, 0, 0]	-999	PAL1	0	R1212P
466.025	0.834	923897	TEST_ORIENT	n/a	n/a	2	6	OAR	n/a	OAR	WHEEL	3	[0, 0, 0]	-999	PAL1	0	R1212P
466.859	0.0	924751	TEST_PROBE	n/a	wordpools/wordpool_EN.txt	2	6	OAR	n/a	OAR	WHEEL	3	[0, 0, 0]	-999	PAL1	0	R1212P
466.859	4.467	924751	REC_START	n/a	n/a	2	-999	n/a	n/a	n/a	n/a	3	[0, 0, 0]	-999	PAL1	0	R1212P
471.326	0.55	929325	REC_EVENT	4467	n/a	2	6	OAR	<>	OAR	WHEEL	3	[0, 0, 0]	-999	PAL1	0	R1212P
471.876	5.702	929889	REC_END	n/a	n/a	2	-999	n/a	n/a	n/a	n/a	3	[0, 0, 0]	-999	PAL1	0	R1212P
477.578	10.452	935727	ENCODING_START	n/a	n/a	0	-999	n/a	n/a	n/a	n/a	4	[0, 0, 0]	-999	PAL1	0	R1212P
488.03	0.85	946430	STUDY_ORIENT	n/a	n/a	1	3	MOUSE	n/a	MOUSE	STOVE	4	[0, 0, 0]	-999	PAL1	0	R1212P
488.88	5.034	947300	STUDY_PAIR	n/a	wordpools/wordpool_EN.txt	1	3	MOUSE	n/a	MOUSE	STOVE	4	[0, 0, 0]	-999	PAL1	0	R1212P
493.914	0.967	952454	STUDY_ORIENT	n/a	n/a	2	4	SNAKE	n/a	CAPE	SNAKE	4	[0, 0, 0]	-999	PAL1	0	R1212P
494.881	5.034	953445	STUDY_PAIR	n/a	wordpools/wordpool_EN.txt	2	4	SNAKE	n/a	CAPE	SNAKE	4	[0, 0, 0]	-999	PAL1	0	R1212P
499.915	0.9	958599	STUDY_ORIENT	n/a	n/a	3	1	WOOD	n/a	STRAW	WOOD	4	[0, 0, 0]	-999	PAL1	0	R1212P
500.815	5.018	959521	STUDY_PAIR	n/a	wordpools/wordpool_EN.txt	3	1	WOOD	n/a	STRAW	WOOD	4	[0, 0, 0]	-999	PAL1	0	R1212P
505.833	0.783	964659	STUDY_ORIENT	n/a	n/a	4	2	RAKE	RAT	RAT	RAKE	4	[0, 0, 0]	-999	PAL1	0	R1212P
506.616	5.018	965461	STUDY_PAIR	n/a	wordpools/wordpool_EN.txt	4	2	RAKE	RAT	RAT	RAKE	4	[0, 0, 0]	-999	PAL1	0	R1212P
511.634	0.817	970599	STUDY_ORIENT	n/a	n/a	5	5	STOOL	n/a	STOOL	SLEEVE	4	[0, 0, 0]	-999	PAL1	0	R1212P
512.451	5.034	971435	STUDY_PAIR	n/a	wordpools/wordpool_EN.txt	5	5	STOOL	n/a	STOOL	SLEEVE	4	[0, 0, 0]	-999	PAL1	0	R1212P
517.485	0.984	976590	STUDY_ORIENT	n/a	n/a	6	6	BOMB	SNOW	BOMB	SNOW	4	[0, 0, 0]	-999	PAL1	0	R1212P
518.469	4.018	977598	STUDY_PAIR	n/a	wordpools/wordpool_EN.txt	6	6	BOMB	SNOW	BOMB	SNOW	4	[0, 0, 0]	-999	PAL1	0	R1212P
522.487	0.999	981712	START	n/a	n/a	-999	-999	n/a	n/a	n/a	n/a	4	[-999, -999, -999]	-999	PAL1	0	R1212P
523.486	0.017	982735	MATH_START	n/a	n/a	-999	-999	n/a	n/a	n/a	n/a	4	[0, 0, 0]	-999	PAL1	0	R1212P
523.503	4.702	982752	PROB	4682	n/a	-999	-999	n/a	n/a	n/a	n/a	4	[3, 6, 1]	10	PAL1	0	R1212P
528.205	4.984	987567	PROB	4956	n/a	-999	-999	n/a	n/a	n/a	n/a	4	[3, 3, 9]	15	PAL1	0	R1212P
533.189	3.017	992670	PROB	2996	n/a	-999	-999	n/a	n/a	n/a	n/a	4	[4, 6, 6]	16	PAL1	0	R1212P
536.206	4.118	995760	PROB	4093	n/a	-999	-999	n/a	n/a	n/a	n/a	4	[4, 3, 8]	15	PAL1	0	R1212P
540.324	2.958	999976	PROB	2958	n/a	-999	-999	n/a	n/a	n/a	n/a	4	[1, 6, 2]	9	PAL1	0	R1212P
543.282	0.009	1003005	STOP	n/a	n/a	-999	-999	n/a	n/a	n/a	n/a	4	[-999, -999, -999]	-999	PAL1	0	R1212P
543.291	0.0	1003014	MATH_END	n/a	n/a	-999	-999	n/a	n/a	n/a	n/a	4	[0, 0, 0]	-999	PAL1	0	R1212P
543.291	0.017	1003014	TEST_START	n/a	n/a	-999	-999	n/a	n/a	n/a	n/a	4	[0, 0, 0]	-999	PAL1	0	R1212P
543.308	0.9	1003032	TEST_ORIENT	n/a	n/a	3	1	WOOD	n/a	STRAW	WOOD	4	[0, 0, 0]	-999	PAL1	0	R1212P
544.208	0.0	1003953	TEST_PROBE	n/a	wordpools/wordpool_EN.txt	3	1	WOOD	n/a	STRAW	WOOD	4	[0, 0, 0]	-999	PAL1	0	R1212P
544.208	3.092	1003953	REC_START	n/a	n/a	3	-999	n/a	n/a	n/a	n/a	4	[0, 0, 0]	-999	PAL1	0	R1212P
547.3	1.925	1007119	REC_EVENT	3092	n/a	3	1	WOOD	<>	STRAW	WOOD	4	[0, 0, 0]	-999	PAL1	0	R1212P
549.225	0.017	1009090	REC_END	n/a	n/a	3	-999	n/a	n/a	n/a	n/a	4	[0, 0, 0]	-999	PAL1	0	R1212P
549.242	1.034	1009108	TEST_ORIENT	n/a	n/a	4	2	RAKE	RAT	RAT	RAKE	4	[0, 0, 0]	-999	PAL1	0	R1212P
550.276	0.0	1010167	REC_START	n/a	n/a	4	-999	n/a	RAT	n/a	n/a	4	[0, 0, 0]	-999	PAL1	0	R1212P
550.276	1.21	1010167	TEST_PROBE	n/a	wordpools/wordpool_EN.txt	4	2	RAKE	RAT	RAT	RAKE	4	[0, 0, 0]	-999	PAL1	0	R1212P
551.486	3.807	1011406	REC_EVENT	1210	n/a	4	2	RAKE	RAT	RAT	RAKE	4	[0, 0, 0]	-999	PAL1	0	R1212P
555.293	0.017	1015304	REC_END	n/a	n/a	4	-999	n/a	n/a	n/a	n/a	4	[0, 0, 0]	-999	PAL1	0	R1212P
555.31	1.0	1015321	TEST_ORIENT	n/a	n/a	1	3	MOUSE	n/a	MOUSE	STOVE	4	[0, 0, 0]	-999	PAL1	0	R1212P
556.31	0.001	1016345	TEST_PROBE	n/a	wordpools/wordpool_EN.txt	1	3	MOUSE	n/a	MOUSE	STOVE	4	[0, 0, 0]	-999	PAL1	0	R1212P
556.311	2.811	1016346	REC_START	n/a	n/a	1	-999	n/a	n/a	n/a	n/a	4	[0, 0, 0]	-999	PAL1	0	R1212P
559.122	2.189	1019224	REC_EVENT	2811	n/a	1	3	MOUSE	<>	MOUSE	STOVE	4	[0, 0, 0]	-999	PAL1	0	R1212P
561.311	0.017	1021466	REC_END	n/a	n/a	1	-999	n/a	n/a	n/a	n/a	4	[0, 0, 0]	-999	PAL1	0	R1212P
561.328	0.984	1021483	TEST_ORIENT	n/a	n/a	2	4	SNAKE	n/a	CAPE	SNAKE	4	[0, 0, 0]	-999	PAL1	0	R1212P
562.312	0.0	1022491	REC_START	n/a	n/a	2	-999	n/a	n/a	n/a	n/a	4	[0, 0, 0]	-999	PAL1	0	R1212P
562.312	4.86	1022491	TEST_PROBE	n/a	wordpools/wordpool_EN.txt	2	4	SNAKE	n/a	CAPE	SNAKE	4	[0, 0, 0]	-999	PAL1	0	R1212P
567.172	0.157	1027467	REC_EVENT	4860	n/a	2	4	SNAKE	<>	CAPE	SNAKE	4	[0, 0, 0]	-999	PAL1	0	R1212P
567.329	0.017	1027628	REC_END	n/a	n/a	2	-999	n/a	n/a	n/a	n/a	4	[0, 0, 0]	-999	PAL1	0	R1212P
567.346	0.95	1027645	TEST_ORIENT	n/a	n/a	5	5	STOOL	n/a	STOOL	SLEEVE	4	[0, 0, 0]	-999	PAL1	0	R1212P
568.296	0.0	1028618	TEST_PROBE	n/a	wordpools/wordpool_EN.txt	5	5	STOOL	n/a	STOOL	SLEEVE	4	[0, 0, 0]	-999	PAL1	0	R1212P
568.296	3.454	1028618	REC_START	n/a	n/a	5	-999	n/a	n/a	n/a	n/a	4	[0, 0, 0]	-999	PAL1	0	R1212P
571.75	1.0	1032155	REC_EVENT	3454	n/a	5	5	STOOL	<>	STOOL	SLEEVE	4	[0, 0, 0]	-999	PAL1	0	R1212P
572.75	0.563	1033179	REC_EVENT	4454	n/a	5	5	STOOL	<>	STOOL	SLEEVE	4	[0, 0, 0]	-999	PAL1	0	R1212P
573.313	0.017	1033755	REC_END	n/a	n/a	5	-999	n/a	n/a	n/a	n/a	4	[0, 0, 0]	-999	PAL1	0	R1212P
573.33	1.0	1033773	TEST_ORIENT	n/a	n/a	6	6	BOMB	SNOW	BOMB	SNOW	4	[0, 0, 0]	-999	PAL1	0	R1212P
574.33	0.001	1034797	TEST_PROBE	n/a	wordpools/wordpool_EN.txt	6	6	BOMB	SNOW	BOMB	SNOW	4	[0, 0, 0]	-999	PAL1	0	R1212P
574.331	1.009	1034798	REC_START	n/a	n/a	6	-999	n/a	SNOW	n/a	n/a	4	[0, 0, 0]	-999	PAL1	0	R1212P
575.34	3.999	1035831	REC_EVENT	1009	n/a	6	6	BOMB	SNOW	BOMB	SNOW	4	[0, 0, 0]	-999	PAL1	0	R1212P
579.339	2.638	1039926	REC_END	n/a	n/a	6	-999	n/a	n/a	n/a	n/a	4	[0, 0, 0]	-999	PAL1	0	R1212P
581.977	10.44	1042627	ENCODING_START	n/a	n/a	0	-999	n/a	n/a	n/a	n/a	5	[0, 0, 0]	-999	PAL1	0	R1212P
592.417	0.784	1053317	STUDY_ORIENT	n/a	n/a	1	1	BENCH	ROOF	BENCH	ROOF	5	[0, 0, 0]	-999	PAL1	0	R1212P
593.201	5.034	1054120	STUDY_PAIR	n/a	wordpools/wordpool_EN.txt	1	1	BENCH	ROOF	BENCH	ROOF	5	[0, 0, 0]	-999	PAL1	0	R1212P
598.235	0.967	1059274	STUDY_ORIENT	n/a	n/a	2	2	CROWN	n/a	CROWN	CAGE	5	[0, 0, 0]	-999	PAL1	0	R1212P
599.202	5.034	1060264	STUDY_PAIR	n/a	wordpools/wordpool_EN.txt	2	2	CROWN	n/a	CROWN	CAGE	5	[0, 0, 0]	-999	PAL1	0	R1212P
604.236	0.849	1065419	STUDY_ORIENT	n/a	n/a	3	3	MULE	n/a	MULE	SPOON	5	[0, 0, 0]	-999	PAL1	0	R1212P
605.085	5.018	1066288	STUDY_PAIR	n/a	wordpools/wordpool_EN.txt	3	3	MULE	n/a	MULE	SPOON	5	[0, 0, 0]	-999	PAL1	0	R1212P
610.103	0.833	1071427	STUDY_ORIENT	n/a	n/a	4	6	ROCK	n/a	ROCK	BRICK	5	[0, 0, 0]	-999	PAL1	0	R1212P
610.936	5.018	1072280	STUDY_PAIR	n/a	wordpools/wordpool_EN.txt	4	6	ROCK	n/a	ROCK	BRICK	5	[0, 0, 0]	-999	PAL1	0	R1212P
615.954	0.934	1077418	STUDY_ORIENT	n/a	n/a	5	5	BRANCH	PRINCE	BRANCH	PRINCE	5	[0, 0, 0]	-999	PAL1	0	R1212P
616.888	5.034	1078374	STUDY_PAIR	n/a	wordpools/wordpool_EN.txt	5	5	BRANCH	PRINCE	BRANCH	PRINCE	5	[0, 0, 0]	-999	PAL1	0	R1212P
621.922	0.9	1083529	STUDY_ORIENT	n/a	n/a	6	4	COUCH	n/a	COUCH	NAIL	5	[0, 0, 0]	-999	PAL1	0	R1212P
622.822	4.001	1084450	STUDY_PAIR	n/a	wordpools/wordpool_EN.txt	6	4	COUCH	n/a	COUCH	NAIL	5	[0, 0, 0]	-999	PAL1	0	R1212P
626.823	1.0	1088547	START	n/a	n/a	-999	-999	n/a	n/a	n/a	n/a	5	[-999, -999, -999]	-999	PAL1	0	R1212P
627.823	0.017	1089571	MATH_START	n/a	n/a	-999	-999	n/a	n/a	n/a	n/a	5	[0, 0, 0]	-999	PAL1	0	R1212P
627.84	4.234	1089588	PROB	4201	n/a	-999	-999	n/a	n/a	n/a	n/a	5	[7, 4, 3]	14	PAL1	0	R1212P
632.074	3.067	1093924	PROB	3039	n/a	-999	-999	n/a	n/a	n/a	n/a	5	[9, 4, 9]	22	PAL1	0	R1212P
635.141	4.052	1097064	PROB	4028	n/a	-999	-999	n/a	n/a	n/a	n/a	5	[2, 6, 1]	9	PAL1	0	R1212P
639.193	3.3	1101213	PROB	3280	n/a	-999	-999	n/a	n/a	n/a	n/a	5	[2, 4, 2]	8	PAL1	0	R1212P
642.493	2.667	1104592	PROB	2636	n/a	-999	-999	n/a	n/a	n/a	n/a	5	[7, 3, 8]	18	PAL1	0	R1212P
645.16	6.066	1107323	PROB	6066	n/a	-999	-999	n/a	n/a	n/a	n/a	5	[5, 9, 7]	21	PAL1	0	R1212P
651.226	0.002	1113535	STOP	n/a	n/a	-999	-999	n/a	n/a	n/a	n/a	5	[-999, -999, -999]	-999	PAL1	0	R1212P
651.228	0.0	1113537	MATH_END	n/a	n/a	-999	-999	n/a	n/a	n/a	n/a	5	[0, 0, 0]	-999	PAL1	0	R1212P
651.228	0.017	1113537	TEST_START	n/a	n/a	-999	-999	n/a	n/a	n/a	n/a	5	[0, 0, 0]	-999	PAL1	0	R1212P
651.245	0.916	1113554	TEST_ORIENT	n/a	n/a	1	1	BENCH	ROOF	BENCH	ROOF	5	[0, 0, 0]	-999	PAL1	0	R1212P
652.161	0.001	1114492	TEST_PROBE	n/a	wordpools/wordpool_EN.txt	1	1	BENCH	ROOF	BENCH	ROOF	5	[0, 0, 0]	-999	PAL1	0	R1212P
652.162	1.509	1114493	REC_START	n/a	n/a	1	-999	n/a	ROOF	n/a	n/a	5	[0, 0, 0]	-999	PAL1	0	R1212P
653.671	3.516	1116038	REC_EVENT	1509	n/a	1	1	BENCH	ROOF	BENCH	ROOF	5	[0, 0, 0]	-999	PAL1	0	R1212P
657.187	0.009	1119638	REC_END	n/a	n/a	1	-999	n/a	n/a	n/a	n/a	5	[0, 0, 0]	-999	PAL1	0	R1212P
657.196	0.9	1119648	TEST_ORIENT	n/a	n/a	2	2	CROWN	n/a	CROWN	CAGE	5	[0, 0, 0]	-999	PAL1	0	R1212P
658.096	0.0	1120569	TEST_PROBE	n/a	wordpools/wordpool_EN.txt	2	2	CROWN	n/a	CROWN	CAGE	5	[0, 0, 0]	-999	PAL1	0	R1212P
658.096	4.015	1120569	REC_START	n/a	n/a	2	-999	n/a	n/a	n/a	n/a	5	[0, 0, 0]	-999	PAL1	0	R1212P
662.111	1.005	1124680	REC_EVENT	4015	n/a	2	2	CROWN	<>	CROWN	CAGE	5	[0, 0, 0]	-999	PAL1	0	R1212P
663.116	0.014	1125709	REC_END	n/a	n/a	2	-999	n/a	n/a	n/a	n/a	5	[0, 0, 0]	-999	PAL1	0	R1212P
663.13	0.85	1125724	TEST_ORIENT	n/a	n/a	3	3	MULE	n/a	MULE	SPOON	5	[0, 0, 0]	-999	PAL1	0	R1212P
663.98	0.0	1126594	TEST_PROBE	n/a	wordpools/wordpool_EN.txt	3	3	MULE	n/a	MULE	SPOON	5	[0, 0, 0]	-999	PAL1	0	R1212P
663.98	2.5	1126594	REC_START	n/a	n/a	3	-999	n/a	n/a	n/a	n/a	5	[0, 0, 0]	-999	PAL1	0	R1212P
666.48	2.517	1129154	REC_EVENT	2500	n/a	3	3	MULE	<>	MULE	SPOON	5	[0, 0, 0]	-999	PAL1	0	R1212P
668.997	0.017	1131731	REC_END	n/a	n/a	3	-999	n/a	n/a	n/a	n/a	5	[0, 0, 0]	-999	PAL1	0	R1212P
669.014	0.967	1131749	TEST_ORIENT	n/a	n/a	6	4	COUCH	n/a	COUCH	NAIL	5	[0, 0, 0]	-999	PAL1	0	R1212P
669.981	0.001	1132739	TEST_PROBE	n/a	wordpools/wordpool_EN.txt	6	4	COUCH	n/a	COUCH	NAIL	5	[0, 0, 0]	-999	PAL1	0	R1212P
669.982	5.003	1132740	REC_START	n/a	n/a	6	-999	n/a	n/a	n/a	n/a	5	[0, 0, 0]	-999	PAL1	0	R1212P
674.985	0.005	1137863	REC_EVENT	5003	n/a	6	4	COUCH	<>	COUCH	NAIL	5	[0, 0, 0]	-999	PAL1	0	R1212P
674.99	0.009	1137868	REC_END	n/a	n/a	6	-999	n/a	n/a	n/a	n/a	5	[0, 0, 0]	-999	PAL1	0	R1212P
674.999	0.917	1137877	TEST_ORIENT	n/a	n/a	5	5	BRANCH	PRINCE	BRANCH	PRINCE	5	[0, 0, 0]	-999	PAL1	0	R1212P
675.916	0.0	1138816	TEST_PROBE	n/a	wordpools/wordpool_EN.txt	5	5	BRANCH	PRINCE	BRANCH	PRINCE	5	[0, 0, 0]	-999	PAL1	0	R1212P
675.916	2.068	1138816	REC_START	n/a	n/a	5	-999	n/a	PRINCE	n/a	n/a	5	[0, 0, 0]	-999	PAL1	0	R1212P
677.984	2.949	1140934	REC_EVENT	2068	n/a	5	5	BRANCH	PRINCE	BRANCH	PRINCE	5	[0, 0, 0]	-999	PAL1	0	R1212P
680.933	0.017	1143953	REC_END	n/a	n/a	5	-999	n/a	n/a	n/a	n/a	5	[0, 0, 0]	-999	PAL1	0	R1212P
680.95	0.867	1143971	TEST_ORIENT	n/a	n/a	4	6	ROCK	n/a	ROCK	BRICK	5	[0, 0, 0]	-999	PAL1	0	R1212P
681.817	0.0	1144858	TEST_PROBE	n/a	wordpools/wordpool_EN.txt	4	6	ROCK	n/a	ROCK	BRICK	5	[0, 0, 0]	-999	PAL1	0	R1212P
681.817	5.017	1144858	REC_START	n/a	n/a	4	-999	n/a	n/a	n/a	n/a	5	[0, 0, 0]	-999	PAL1	0	R1212P
686.834	0.004	1149996	REC_END	n/a	n/a	4	-999	n/a	n/a	n/a	n/a	5	[0, 0, 0]	-999	PAL1	0	R1212P
686.838	103.516	1150000	REC_EVENT	5021	n/a	4	6	ROCK	<>	ROCK	BRICK	5	[0, 0, 0]	-999	PAL1	0	R1212P
790.354	10.452	1255995	ENCODING_START	n/a	n/a	0	-999	n/a	n/a	n/a	n/a	6	[0, 0, 0]	-999	PAL1	0	R1212P
800.806	0.867	1266698	STUDY_ORIENT	n/a	n/a	1	1	BOAT	n/a	FISH	BOAT	6	[0, 0, 0]	-999	PAL1	0	R1212P
801.673	5.018	1267585	STUDY_PAIR	n/a	wordpools/wordpool_EN.txt	1	1	BOAT	n/a	FISH	BOAT	6	[0, 0, 0]	-999	PAL1	0	R1212P
806.691	0.867	1272724	STUDY_ORIENT	n/a	n/a	2	6	FLOOR	n/a	FLOOR	INK	6	[0, 0, 0]	-999	PAL1	0	R1212P
807.558	5.034	1273611	STUDY_PAIR	n/a	wordpools/wordpool_EN.txt	2	6	FLOOR	n/a	FLOOR	INK	6	[0, 0, 0]	-999	PAL1	0	R1212P
812.592	0.883	1278766	STUDY_ORIENT	n/a	n/a	3	3	CHALK	SALT	CHALK	SALT	6	[0, 0, 0]	-999	PAL1	0	R1212P
813.475	5.018	1279670	STUDY_PAIR	n/a	wordpools/wordpool_EN.txt	3	3	CHALK	SALT	CHALK	SALT	6	[0, 0, 0]	-999	PAL1	0	R1212P
818.493	0.884	1284808	STUDY_ORIENT	n/a	n/a	4	2	TOAD	WOLF	WOLF	TOAD	6	[0, 0, 0]	-999	PAL1	0	R1212P
819.377	5.018	1285714	STUDY_PAIR	n/a	wordpools/wordpool_EN.txt	4	2	TOAD	WOLF	WOLF	TOAD	6	[0, 0, 0]	-999	PAL1	0	R1212P
824.395	0.817	1290852	STUDY_ORIENT	n/a	n/a	5	5	AXE	n/a	CART	AXE	6	[0, 0, 0]	-999	PAL1	0	R1212P
825.212	5.034	1291688	STUDY_PAIR	n/a	wordpools/wordpool_EN.txt	5	5	AXE	n/a	CART	AXE	6	[0, 0, 0]	-999	PAL1	0	R1212P
830.246	0.866	1296843	STUDY_ORIENT	n/a	n/a	6	4	CLOTH	DRUM	DRUM	CLOTH	6	[0, 0, 0]	-999	PAL1	0	R1212P
831.112	4.002	1297730	STUDY_PAIR	n/a	wordpools/wordpool_EN.txt	6	4	CLOTH	DRUM	DRUM	CLOTH	6	[0, 0, 0]	-999	PAL1	0	R1212P
835.114	0.999	1301827	START	n/a	n/a	-999	-999	n/a	n/a	n/a	n/a	6	[-999, -999, -999]	-999	PAL1	0	R1212P
836.113	0.017	1302850	MATH_START	n/a	n/a	-999	-999	n/a	n/a	n/a	n/a	6	[0, 0, 0]	-999	PAL1	0	R1212P
836.13	3.384	1302868	PROB	3351	n/a	-999	-999	n/a	n/a	n/a	n/a	6	[7, 3, 2]	12	PAL1	0	R1212P
839.514	9.786	1306333	PROB	9760	n/a	-999	-999	n/a	n/a	n/a	n/a	6	[5, 1, 8]	14	PAL1	0	R1212P
849.3	4.383	1316353	PROB	4357	n/a	-999	-999	n/a	n/a	n/a	n/a	6	[4, 7, 6]	17	PAL1	0	R1212P
853.683	3.535	1320841	PROB	3535	n/a	-999	-999	n/a	n/a	n/a	n/a	6	[4, 3, 4]	11	PAL1	0	R1212P
857.218	0.017	1324461	STOP	n/a	n/a	-999	-999	n/a	n/a	n/a	n/a	6	[-999, -999, -999]	-999	PAL1	0	R1212P
857.235	0.0	1324478	MATH_END	n/a	n/a	-999	-999	n/a	n/a	n/a	n/a	6	[0, 0, 0]	-999	PAL1	0	R1212P
857.235	0.016	1324478	TEST_START	n/a	n/a	-999	-999	n/a	n/a	n/a	n/a	6	[0, 0, 0]	-999	PAL1	0	R1212P
857.251	0.933	1324495	TEST_ORIENT	n/a	n/a	1	1	BOAT	n/a	FISH	BOAT	6	[0, 0, 0]	-999	PAL1	0	R1212P
858.184	0.0	1325450	TEST_PROBE	n/a	wordpools/wordpool_EN.txt	1	1	BOAT	n/a	FISH	BOAT	6	[0, 0, 0]	-999	PAL1	0	R1212P
858.184	5.018	1325450	REC_START	n/a	n/a	1	-999	n/a	n/a	n/a	n/a	6	[0, 0, 0]	-999	PAL1	0	R1212P
863.202	0.003	1330588	REC_END	n/a	n/a	1	-999	n/a	n/a	n/a	n/a	6	[0, 0, 0]	-999	PAL1	0	R1212P
863.205	0.014	1330591	REC_EVENT	5021	n/a	1	1	BOAT	<>	FISH	BOAT	6	[0, 0, 0]	-999	PAL1	0	R1212P
863.219	0.966	1330606	TEST_ORIENT	n/a	n/a	4	2	TOAD	WOLF	WOLF	TOAD	6	[0, 0, 0]	-999	PAL1	0	R1212P
864.185	0.001	1331595	TEST_PROBE	n/a	wordpools/wordpool_EN.txt	4	2	TOAD	WOLF	WOLF	TOAD	6	[0, 0, 0]	-999	PAL1	0	R1212P
864.186	1.58	1331596	REC_START	n/a	n/a	4	-999	n/a	WOLF	n/a	n/a	6	[0, 0, 0]	-999	PAL1	0	R1212P
865.766	3.446	1333214	REC_EVENT	1580	n/a	4	2	TOAD	WOLF	WOLF	TOAD	6	[0, 0, 0]	-999	PAL1	0	R1212P
869.212	0.008	1336742	REC_END	n/a	n/a	4	-999	n/a	n/a	n/a	n/a	6	[0, 0, 0]	-999	PAL1	0	R1212P
869.22	0.916	1336750	TEST_ORIENT	n/a	n/a	3	3	CHALK	SALT	CHALK	SALT	6	[0, 0, 0]	-999	PAL1	0	R1212P
870.136	0.001	1337688	TEST_PROBE	n/a	wordpools/wordpool_EN.txt	3	3	CHALK	SALT	CHALK	SALT	6	[0, 0, 0]	-999	PAL1	0	R1212P
870.137	1.118	1337689	REC_START	n/a	n/a	3	-999	n/a	SALT	n/a	n/a	6	[0, 0, 0]	-999	PAL1	0	R1212P
871.255	1.0	1338834	REC_EVENT	1118	n/a	3	3	CHALK	SALT	CHALK	SALT	6	[0, 0, 0]	-999	PAL1	0	R1212P
872.255	2.89	1339858	REC_EVENT	2118	n/a	3	3	CHALK	<>	CHALK	SALT	6	[0, 0, 0]	-999	PAL1	0	R1212P
875.145	0.009	1342817	REC_END	n/a	n/a	3	-999	n/a	n/a	n/a	n/a	6	[0, 0, 0]	-999	PAL1	0	R1212P
875.154	0.967	1342827	TEST_ORIENT	n/a	n/a	6	4	CLOTH	DRUM	DRUM	CLOTH	6	[0, 0, 0]	-999	PAL1	0	R1212P
876.121	0.0	1343817	TEST_PROBE	n/a	wordpools/wordpool_EN.txt	6	4	CLOTH	DRUM	DRUM	CLOTH	6	[0, 0, 0]	-999	PAL1	0	R1212P
876.121	1.322	1343817	REC_START	n/a	n/a	6	-999	n/a	DRUM	n/a	n/a	6	[0, 0, 0]	-999	PAL1	0	R1212P
877.443	3.695	1345170	REC_EVENT	1322	n/a	6	4	CLOTH	DRUM	DRUM	CLOTH	6	[0, 0, 0]	-999	PAL1	0	R1212P
881.138	0.017	1348954	REC_END	n/a	n/a	6	-999	n/a	n/a	n/a	n/a	6	[0, 0, 0]	-999	PAL1	0	R1212P
881.155	0.8	1348971	TEST_ORIENT	n/a	n/a	5	5	AXE	n/a	CART	AXE	6	[0, 0, 0]	-999	PAL1	0	R1212P
881.955	0.001	1349790	TEST_PROBE	n/a	wordpools/wordpool_EN.txt	5	5	AXE	n/a	CART	AXE	6	[0, 0, 0]	-999	PAL1	0	R1212P
881.956	3.613	1349792	REC_START	n/a	n/a	5	-999	n/a	n/a	n/a	n/a	6	[0, 0, 0]	-999	PAL1	0	R1212P
885.569	1.395	1353491	REC_EVENT	3613	n/a	5	5	AXE	<>	CART	AXE	6	[0, 0, 0]	-999	PAL1	0	R1212P
886.964	0.009	1354919	REC_END	n/a	n/a	5	-999	n/a	n/a	n/a	n/a	6	[0, 0, 0]	-999	PAL1	0	R1212P
886.973	1.0	1354929	TEST_ORIENT	n/a	n/a	2	6	FLOOR	n/a	FLOOR	INK	6	[0, 0, 0]	-999	PAL1	0	R1212P
887.973	0.0	1355953	TEST_PROBE	n/a	wordpools/wordpool_EN.txt	2	6	FLOOR	n/a	FLOOR	INK	6	[0, 0, 0]	-999	PAL1	0	R1212P
887.973	3.602	1355953	REC_START	n/a	n/a	2	-999	n/a	n/a	n/a	n/a	6	[0, 0, 0]	-999	PAL1	0	R1212P
891.575	1.415	1359641	REC_EVENT	3602	n/a	2	6	FLOOR	<>	FLOOR	INK	6	[0, 0, 0]	-999	PAL1	0	R1212P
892.99	2.076	1361090	REC_END	n/a	n/a	2	-999	n/a	n/a	n/a	n/a	6	[0, 0, 0]	-999	PAL1	0	R1212P
895.066	10.444	1363216	ENCODING_START	n/a	n/a	0	-999	n/a	n/a	n/a	n/a	7	[0, 0, 0]	-999	PAL1	0	R1212P
905.51	0.784	1373910	STUDY_ORIENT	n/a	n/a	1	1	SLIME	SPARK	SLIME	SPARK	7	[0, 0, 0]	-999	PAL1	0	R1212P
906.294	5.018	1374712	STUDY_PAIR	n/a	wordpools/wordpool_EN.txt	1	1	SLIME	SPARK	SLIME	SPARK	7	[0, 0, 0]	-999	PAL1	0	R1212P
911.312	0.849	1379851	STUDY_ORIENT	n/a	n/a	2	4	TAIL	n/a	TAIL	TOOTH	7	[0, 0, 0]	-999	PAL1	0	R1212P
912.161	5.035	1380720	STUDY_PAIR	n/a	wordpools/wordpool_EN.txt	2	4	TAIL	n/a	TAIL	TOOTH	7	[0, 0, 0]	-999	PAL1	0	R1212P
917.196	0.883	1385876	STUDY_ORIENT	n/a	n/a	3	3	SEA	STORE	STORE	SEA	7	[0, 0, 0]	-999	PAL1	0	R1212P
918.079	5.034	1386780	STUDY_PAIR	n/a	wordpools/wordpool_EN.txt	3	3	SEA	STORE	STORE	SEA	7	[0, 0, 0]	-999	PAL1	0	R1212P
923.113	0.95	1391934	STUDY_ORIENT	n/a	n/a	4	2	BOY	FOOD	FOOD	BOY	7	[0, 0, 0]	-999	PAL1	0	R1212P
924.063	5.018	1392907	STUDY_PAIR	n/a	wordpools/wordpool_EN.txt	4	2	BOY	FOOD	FOOD	BOY	7	[0, 0, 0]	-999	PAL1	0	R1212P
929.081	0.967	1398045	STUDY_ORIENT	n/a	n/a	5	5	HAT	n/a	WEED	HAT	7	[0, 0, 0]	-999	PAL1	0	R1212P
930.048	5.034	1399035	STUDY_PAIR	n/a	wordpools/wordpool_EN.txt	5	5	HAT	n/a	WEED	HAT	7	[0, 0, 0]	-999	PAL1	0	R1212P
935.082	0.934	1404190	STUDY_ORIENT	n/a	n/a	6	6	BOX	n/a	BOX	THREAD	7	[0, 0, 0]	-999	PAL1	0	R1212P
936.016	4.018	1405146	STUDY_PAIR	n/a	wordpools/wordpool_EN.txt	6	6	BOX	n/a	BOX	THREAD	7	[0, 0, 0]	-999	PAL1	0	R1212P
940.034	0.999	1409261	START	n/a	n/a	-999	-999	n/a	n/a	n/a	n/a	7	[-999, -999, -999]	-999	PAL1	0	R1212P
941.033	0.017	1410284	MATH_START	n/a	n/a	-999	-999	n/a	n/a	n/a	n/a	7	[0, 0, 0]	-999	PAL1	0	R1212P
941.05	4.617	1410301	PROB	4591	n/a	-999	-999	n/a	n/a	n/a	n/a	7	[3, 6, 1]	10	PAL1	0	R1212P
945.667	6.302	1415029	PROB	6278	n/a	-999	-999	n/a	n/a	n/a	n/a	7	[2, 7, 5]	14	PAL1	0	R1212P
951.969	4.867	1421482	PROB	4840	n/a	-999	-999	n/a	n/a	n/a	n/a	7	[8, 5, 6]	19	PAL1	0	R1212P
956.836	4.781	1426465	PROB	4781	n/a	-999	-999	n/a	n/a	n/a	n/a	7	[7, 6, 7]	20	PAL1	0	R1212P
961.617	0.003	1431361	STOP	n/a	n/a	-999	-999	n/a	n/a	n/a	n/a	7	[-999, -999, -999]	-999	PAL1	0	R1212P
961.62	0.0	1431364	MATH_END	n/a	n/a	-999	-999	n/a	n/a	n/a	n/a	7	[0, 0, 0]	-999	PAL1	0	R1212P
961.62	0.017	1431364	TEST_START	n/a	n/a	-999	-999	n/a	n/a	n/a	n/a	7	[0, 0, 0]	-999	PAL1	0	R1212P
961.637	0.834	1431381	TEST_ORIENT	n/a	n/a	1	1	SLIME	SPARK	SLIME	SPARK	7	[0, 0, 0]	-999	PAL1	0	R1212P
962.471	0.0	1432235	TEST_PROBE	n/a	wordpools/wordpool_EN.txt	1	1	SLIME	SPARK	SLIME	SPARK	7	[0, 0, 0]	-999	PAL1	0	R1212P
962.471	1.687	1432235	REC_START	n/a	n/a	1	-999	n/a	SPARK	n/a	n/a	7	[0, 0, 0]	-999	PAL1	0	R1212P
964.158	3.33	1433963	REC_EVENT	1687	n/a	1	1	SLIME	SPARK	SLIME	SPARK	7	[0, 0, 0]	-999	PAL1	0	R1212P
967.488	0.017	1437372	REC_END	n/a	n/a	1	-999	n/a	n/a	n/a	n/a	7	[0, 0, 0]	-999	PAL1	0	R1212P
967.505	0.901	1437390	TEST_ORIENT	n/a	n/a	4	2	BOY	FOOD	FOOD	BOY	7	[0, 0, 0]	-999	PAL1	0	R1212P
968.406	0.001	1438312	TEST_PROBE	n/a	wordpools/wordpool_EN.txt	4	2	BOY	FOOD	FOOD	BOY	7	[0, 0, 0]	-999	PAL1	0	R1212P
968.407	1.178	1438313	REC_START	n/a	n/a	4	-999	n/a	FOOD	n/a	n/a	7	[0, 0, 0]	-999	PAL1	0	R1212P
969.585	3.83	1439520	REC_EVENT	1178	n/a	4	2	BOY	FOOD	FOOD	BOY	7	[0, 0, 0]	-999	PAL1	0	R1212P
973.415	0.009	1443441	REC_END	n/a	n/a	4	-999	n/a	n/a	n/a	n/a	7	[0, 0, 0]	-999	PAL1	0	R1212P
973.424	0.817	1443451	TEST_ORIENT	n/a	n/a	3	3	SEA	STORE	STORE	SEA	7	[0, 0, 0]	-999	PAL1	0	R1212P
974.241	0.0	1444287	TEST_PROBE	n/a	wordpools/wordpool_EN.txt	3	3	SEA	STORE	STORE	SEA	7	[0, 0, 0]	-999	PAL1	0	R1212P
974.241	1.396	1444287	REC_START	n/a	n/a	3	-999	n/a	STORE	n/a	n/a	7	[0, 0, 0]	-999	PAL1	0	R1212P
975.637	3.627	1445717	REC_EVENT	1396	n/a	3	3	SEA	STORE	STORE	SEA	7	[0, 0, 0]	-999	PAL1	0	R1212P
979.264	0.011	1449430	REC_END	n/a	n/a	3	-999	n/a	n/a	n/a	n/a	7	[0, 0, 0]	-999	PAL1	0	R1212P
979.275	0.882	1449442	TEST_ORIENT	n/a	n/a	2	4	TAIL	n/a	TAIL	TOOTH	7	[0, 0, 0]	-999	PAL1	0	R1212P
980.157	0.001	1450345	TEST_PROBE	n/a	wordpools/wordpool_EN.txt	2	4	TAIL	n/a	TAIL	TOOTH	7	[0, 0, 0]	-999	PAL1	0	R1212P
980.158	3.297	1450346	REC_START	n/a	n/a	2	-999	n/a	n/a	n/a	n/a	7	[0, 0, 0]	-999	PAL1	0	R1212P
983.455	1.703	1453722	REC_EVENT	3297	n/a	2	4	TAIL	<>	TAIL	TOOTH	7	[0, 0, 0]	-999	PAL1	0	R1212P
985.158	0.017	1455466	REC_END	n/a	n/a	2	-999	n/a	n/a	n/a	n/a	7	[0, 0, 0]	-999	PAL1	0	R1212P
985.175	0.934	1455483	TEST_ORIENT	n/a	n/a	5	5	HAT	n/a	WEED	HAT	7	[0, 0, 0]	-999	PAL1	0	R1212P
986.109	0.0	1456439	TEST_PROBE	n/a	wordpools/wordpool_EN.txt	5	5	HAT	n/a	WEED	HAT	7	[0, 0, 0]	-999	PAL1	0	R1212P
986.109	2.887	1456439	REC_START	n/a	n/a	5	-999	n/a	n/a	n/a	n/a	7	[0, 0, 0]	-999	PAL1	0	R1212P
988.996	2.13	1459396	REC_EVENT	2887	n/a	5	5	HAT	<>	WEED	HAT	7	[0, 0, 0]	-999	PAL1	0	R1212P
991.126	0.017	1461577	REC_END	n/a	n/a	5	-999	n/a	n/a	n/a	n/a	7	[0, 0, 0]	-999	PAL1	0	R1212P
991.143	0.933	1461594	TEST_ORIENT	n/a	n/a	6	6	BOX	n/a	BOX	THREAD	7	[0, 0, 0]	-999	PAL1	0	R1212P
992.076	0.001	1462549	TEST_PROBE	n/a	wordpools/wordpool_EN.txt	6	6	BOX	n/a	BOX	THREAD	7	[0, 0, 0]	-999	PAL1	0	R1212P
992.077	2.595	1462550	REC_START	n/a	n/a	6	-999	n/a	n/a	n/a	n/a	7	[0, 0, 0]	-999	PAL1	0	R1212P
994.672	2.413	1465207	REC_EVENT	2595	n/a	6	6	BOX	<>	BOX	THREAD	7	[0, 0, 0]	-999	PAL1	0	R1212P
997.085	2.109	1467678	REC_END	n/a	n/a	6	-999	n/a	n/a	n/a	n/a	7	[0, 0, 0]	-999	PAL1	0	R1212P
999.194	10.452	1469838	ENCODING_START	n/a	n/a	0	-999	n/a	n/a	n/a	n/a	8	[0, 0, 0]	-999	PAL1	0	R1212P
1009.646	0.884	1480540	STUDY_ORIENT	n/a	n/a	1	1	SOAP	n/a	TOY	SOAP	8	[0, 0, 0]	-999	PAL1	0	R1212P
1010.53	5.034	1481445	STUDY_PAIR	n/a	wordpools/wordpool_EN.txt	1	1	SOAP	n/a	TOY	SOAP	8	[0, 0, 0]	-999	PAL1	0	R1212P
1015.564	0.934	1486600	STUDY_ORIENT	n/a	n/a	2	4	FROG	COW	FROG	COW	8	[0, 0, 0]	-999	PAL1	0	R1212P
1016.498	5.034	1487556	STUDY_PAIR	n/a	wordpools/wordpool_EN.txt	2	4	FROG	COW	FROG	COW	8	[0, 0, 0]	-999	PAL1	0	R1212P
1021.532	1.017	1492711	STUDY_ORIENT	n/a	n/a	3	3	FENCE	ROOT	ROOT	FENCE	8	[0, 0, 0]	-999	PAL1	0	R1212P
1022.549	5.034	1493752	STUDY_PAIR	n/a	wordpools/wordpool_EN.txt	3	3	FENCE	ROOT	ROOT	FENCE	8	[0, 0, 0]	-999	PAL1	0	R1212P
1027.583	0.917	1498907	STUDY_ORIENT	n/a	n/a	4	6	ICE	PEACH	PEACH	ICE	8	[0, 0, 0]	-999	PAL1	0	R1212P
1028.5	5.034	1499846	STUDY_PAIR	n/a	wordpools/wordpool_EN.txt	4	6	ICE	PEACH	PEACH	ICE	8	[0, 0, 0]	-999	PAL1	0	R1212P
1033.534	1.0	1505000	STUDY_ORIENT	n/a	n/a	5	5	CLIFF	STREET	STREET	CLIFF	8	[0, 0, 0]	-999	PAL1	0	R1212P
1034.534	5.018	1506024	STUDY_PAIR	n/a	wordpools/wordpool_EN.txt	5	5	CLIFF	STREET	STREET	CLIFF	8	[0, 0, 0]	-999	PAL1	0	R1212P
1039.552	0.967	1511163	STUDY_ORIENT	n/a	n/a	6	2	EAR	BLOOM	BLOOM	EAR	8	[0, 0, 0]	-999	PAL1	0	R1212P
1040.519	4.018	1512153	STUDY_PAIR	n/a	wordpools/wordpool_EN.txt	6	2	EAR	BLOOM	BLOOM	EAR	8	[0, 0, 0]	-999	PAL1	0	R1212P
1044.537	0.999	1516267	START	n/a	n/a	-999	-999	n/a	n/a	n/a	n/a	8	[-999, -999, -999]	-999	PAL1	0	R1212P
1045.536	0.017	1517290	MATH_START	n/a	n/a	-999	-999	n/a	n/a	n/a	n/a	8	[0, 0, 0]	-999	PAL1	0	R1212P
1045.553	7.135	1517307	PROB	7112	n/a	-999	-999	n/a	n/a	n/a	n/a	8	[9, 7, 7]	21	PAL1	0	R1212P
1052.688	12.514	1524613	PROB	12514	n/a	-999	-999	n/a	n/a	n/a	n/a	8	[6, 6, 9]	21	PAL1	0	R1212P
1065.202	0.006	1537427	STOP	n/a	n/a	-999	-999	n/a	n/a	n/a	n/a	8	[-999, -999, -999]	-999	PAL1	0	R1212P
1065.208	0.0	1537433	MATH_END	n/a	n/a	-999	-999	n/a	n/a	n/a	n/a	8	[0, 0, 0]	-999	PAL1	0	R1212P
1065.208	0.017	1537433	TEST_START	n/a	n/a	-999	-999	n/a	n/a	n/a	n/a	8	[0, 0, 0]	-999	PAL1	0	R1212P
1065.225	1.017	1537450	TEST_ORIENT	n/a	n/a	1	1	SOAP	n/a	TOY	SOAP	8	[0, 0, 0]	-999	PAL1	0	R1212P
1066.242	0.0	1538492	REC_START	n/a	n/a	1	-999	n/a	n/a	n/a	n/a	8	[0, 0, 0]	-999	PAL1	0	R1212P
1066.242	4.134	1538492	TEST_PROBE	n/a	wordpools/wordpool_EN.txt	1	1	SOAP	n/a	TOY	SOAP	8	[0, 0, 0]	-999	PAL1	0	R1212P
1070.376	0.883	1542725	REC_EVENT	4134	n/a	1	1	SOAP	<>	TOY	SOAP	8	[0, 0, 0]	-999	PAL1	0	R1212P
1071.259	0.017	1543629	REC_END	n/a	n/a	1	-999	n/a	n/a	n/a	n/a	8	[0, 0, 0]	-999	PAL1	0	R1212P
1071.276	0.95	1543646	TEST_ORIENT	n/a	n/a	6	2	EAR	BLOOM	BLOOM	EAR	8	[0, 0, 0]	-999	PAL1	0	R1212P
1072.226	0.001	1544619	TEST_PROBE	n/a	wordpools/wordpool_EN.txt	6	2	EAR	BLOOM	BLOOM	EAR	8	[0, 0, 0]	-999	PAL1	0	R1212P
1072.227	1.462	1544620	REC_START	n/a	n/a	6	-999	n/a	BLOOM	n/a	n/a	8	[0, 0, 0]	-999	PAL1	0	R1212P
1073.689	3.554	1546117	REC_EVENT	1462	n/a	6	2	EAR	BLOOM	BLOOM	EAR	8	[0, 0, 0]	-999	PAL1	0	R1212P
1077.243	0.017	1549756	REC_END	n/a	n/a	6	-999	n/a	n/a	n/a	n/a	8	[0, 0, 0]	-999	PAL1	0	R1212P
1077.26	1.034	1549774	TEST_ORIENT	n/a	n/a	3	3	FENCE	ROOT	ROOT	FENCE	8	[0, 0, 0]	-999	PAL1	0	R1212P
1078.294	0.0	1550833	REC_START	n/a	n/a	3	-999	n/a	ROOT	n/a	n/a	8	[0, 0, 0]	-999	PAL1	0	R1212P
1078.294	1.344	1550833	TEST_PROBE	n/a	wordpools/wordpool_EN.txt	3	3	FENCE	ROOT	ROOT	FENCE	8	[0, 0, 0]	-999	PAL1	0	R1212P
1079.638	3.673	1552209	REC_EVENT	1344	n/a	3	3	FENCE	ROOT	ROOT	FENCE	8	[0, 0, 0]	-999	PAL1	0	R1212P
1083.311	0.017	1555970	REC_END	n/a	n/a	3	-999	n/a	n/a	n/a	n/a	8	[0, 0, 0]	-999	PAL1	0	R1212P
1083.328	0.984	1555987	TEST_ORIENT	n/a	n/a	2	4	FROG	COW	FROG	COW	8	[0, 0, 0]	-999	PAL1	0	R1212P
1084.312	0.0	1556995	TEST_PROBE	n/a	wordpools/wordpool_EN.txt	2	4	FROG	COW	FROG	COW	8	[0, 0, 0]	-999	PAL1	0	R1212P
1084.312	1.137	1556995	REC_START	n/a	n/a	2	-999	n/a	COW	n/a	n/a	8	[0, 0, 0]	-999	PAL1	0	R1212P
1085.449	3.88	1558159	REC_EVENT	1137	n/a	2	4	FROG	COW	FROG	COW	8	[0, 0, 0]	-999	PAL1	0	R1212P
1089.329	0.017	1562132	REC_END	n/a	n/a	2	-999	n/a	n/a	n/a	n/a	8	[0, 0, 0]	-999	PAL1	0	R1212P
1089.346	0.832	1562149	TEST_ORIENT	n/a	n/a	5	5	CLIFF	STREET	STREET	CLIFF	8	[0, 0, 0]	-999	PAL1	0	R1212P
1090.178	0.001	1563001	TEST_PROBE	n/a	wordpools/wordpool_EN.txt	5	5	CLIFF	STREET	STREET	CLIFF	8	[0, 0, 0]	-999	PAL1	0	R1212P
1090.179	0.987	1563002	REC_START	n/a	n/a	5	-999	n/a	STREET	n/a	n/a	8	[0, 0, 0]	-999	PAL1	0	R1212P
1091.166	4.021	1564013	REC_EVENT	987	n/a	5	5	CLIFF	STREET	STREET	CLIFF	8	[0, 0, 0]	-999	PAL1	0	R1212P
1095.187	0.01	1568130	REC_END	n/a	n/a	5	-999	n/a	n/a	n/a	n/a	8	[0, 0, 0]	-999	PAL1	0	R1212P
1095.197	0.849	1568140	TEST_ORIENT	n/a	n/a	4	6	ICE	PEACH	PEACH	ICE	8	[0, 0, 0]	-999	PAL1	0	R1212P
1096.046	0.001	1569010	TEST_PROBE	n/a	wordpools/wordpool_EN.txt	4	6	ICE	PEACH	PEACH	ICE	8	[0, 0, 0]	-999	PAL1	0	R1212P
1096.047	1.074	1569011	REC_START	n/a	n/a	4	-999	n/a	PEACH	n/a	n/a	8	[0, 0, 0]	-999	PAL1	0	R1212P
1097.121	3.936	1570111	REC_EVENT	1074	n/a	4	6	ICE	PEACH	PEACH	ICE	8	[0, 0, 0]	-999	PAL1	0	R1212P
1101.057	2.104	1574141	REC_END	n/a	n/a	4	-999	n/a	n/a	n/a	n/a	8	[0, 0, 0]	-999	PAL1	0	R1212P
1103.161	10.439	1576295	ENCODING_START	n/a	n/a	0	-999	n/a	n/a	n/a	n/a	9	[0, 0, 0]	-999	PAL1	0	R1212P
1113.6	0.866	1586984	STUDY_ORIENT	n/a	n/a	1	5	HORSE	CREEK	HORSE	CHEEK	9	[0, 0, 0]	-999	PAL1	0	R1212P
1114.466	5.018	1587871	STUDY_PAIR	n/a	wordpools/wordpool_EN.txt	1	5	HORSE	CREEK	HORSE	CHEEK	9	[0, 0, 0]	-999	PAL1	0	R1212P
1119.484	0.918	1593009	STUDY_ORIENT	n/a	n/a	2	4	WEB	PET	WEB	PET	9	[0, 0, 0]	-999	PAL1	0	R1212P
1120.402	5.034	1593949	STUDY_PAIR	n/a	wordpools/wordpool_EN.txt	2	4	WEB	PET	WEB	PET	9	[0, 0, 0]	-999	PAL1	0	R1212P
1125.436	1.0	1599104	STUDY_ORIENT	n/a	n/a	3	3	FILM	DRESS	FILM	DRESS	9	[0, 0, 0]	-999	PAL1	0	R1212P
1126.436	5.0	1600128	STUDY_PAIR	n/a	wordpools/wordpool_EN.txt	3	3	FILM	DRESS	FILM	DRESS	9	[0, 0, 0]	-999	PAL1	0	R1212P
1131.436	0.852	1605247	STUDY_ORIENT	n/a	n/a	4	2	TOE	n/a	TOE	APE	9	[0, 0, 0]	-999	PAL1	0	R1212P
1132.288	5.034	1606120	STUDY_PAIR	n/a	wordpools/wordpool_EN.txt	4	2	TOE	n/a	TOE	APE	9	[0, 0, 0]	-999	PAL1	0	R1212P
1137.322	0.917	1611274	STUDY_ORIENT	n/a	n/a	5	1	DOG	n/a	DOG	RIB	9	[0, 0, 0]	-999	PAL1	0	R1212P
1138.239	5.034	1612213	STUDY_PAIR	n/a	wordpools/wordpool_EN.txt	5	1	DOG	n/a	DOG	RIB	9	[0, 0, 0]	-999	PAL1	0	R1212P
1143.273	0.816	1617368	STUDY_ORIENT	n/a	n/a	6	6	PANTS	TRUCK	TRUCK	PANTS	9	[0, 0, 0]	-999	PAL1	0	R1212P
1144.089	4.018	1618204	STUDY_PAIR	n/a	wordpools/wordpool_EN.txt	6	6	PANTS	TRUCK	TRUCK	PANTS	9	[0, 0, 0]	-999	PAL1	0	R1212P
1148.107	0.999	1622318	START	n/a	n/a	-999	-999	n/a	n/a	n/a	n/a	9	[-999, -999, -999]	-999	PAL1	0	R1212P
1149.106	0.017	1623341	MATH_START	n/a	n/a	-999	-999	n/a	n/a	n/a	n/a	9	[0, 0, 0]	-999	PAL1	0	R1212P
1149.123	9.352	1623358	PROB	9327	n/a	-999	-999	n/a	n/a	n/a	n/a	9	[9, 8, 8]	25	PAL1	0	R1212P
1158.475	7.201	1632934	PROB	7182	n/a	-999	-999	n/a	n/a	n/a	n/a	9	[3, 8, 6]	15	PAL1	0	R1212P
1165.676	4.333	1640308	PROB	4333	n/a	-999	-999	n/a	n/a	n/a	n/a	9	[6, 4, 4]	14	PAL1	0	R1212P
1170.009	0.018	1644744	STOP	n/a	n/a	-999	-999	n/a	n/a	n/a	n/a	9	[-999, -999, -999]	-999	PAL1	0	R1212P
1170.027	0.0	1644763	MATH_END	n/a	n/a	-999	-999	n/a	n/a	n/a	n/a	9	[0, 0, 0]	-999	PAL1	0	R1212P
1170.027	0.017	1644763	TEST_START	n/a	n/a	-999	-999	n/a	n/a	n/a	n/a	9	[0, 0, 0]	-999	PAL1	0	R1212P
1170.044	0.967	1644780	TEST_ORIENT	n/a	n/a	5	1	DOG	n/a	DOG	RIB	9	[0, 0, 0]	-999	PAL1	0	R1212P
1171.011	0.0	1645770	TEST_PROBE	n/a	wordpools/wordpool_EN.txt	5	1	DOG	n/a	DOG	RIB	9	[0, 0, 0]	-999	PAL1	0	R1212P
1171.011	5.021	1645770	REC_START	n/a	n/a	5	-999	n/a	n/a	n/a	n/a	9	[0, 0, 0]	-999	PAL1	0	R1212P
1176.032	0.004	1650912	REC_EVENT	5021	n/a	5	1	DOG	<>	DOG	RIB	9	[0, 0, 0]	-999	PAL1	0	R1212P
1176.036	0.009	1650916	REC_END	n/a	n/a	5	-999	n/a	n/a	n/a	n/a	9	[0, 0, 0]	-999	PAL1	0	R1212P
1176.045	0.833	1650925	TEST_ORIENT	n/a	n/a	4	2	TOE	n/a	TOE	APE	9	[0, 0, 0]	-999	PAL1	0	R1212P
1176.878	0.001	1651778	TEST_PROBE	n/a	wordpools/wordpool_EN.txt	4	2	TOE	n/a	TOE	APE	9	[0, 0, 0]	-999	PAL1	0	R1212P
1176.879	4.092	1651779	REC_START	n/a	n/a	4	-999	n/a	n/a	n/a	n/a	9	[0, 0, 0]	-999	PAL1	0	R1212P
1180.971	0.916	1655969	REC_EVENT	4092	n/a	4	2	TOE	<>	TOE	APE	9	[0, 0, 0]	-999	PAL1	0	R1212P
1181.887	0.009	1656907	REC_END	n/a	n/a	4	-999	n/a	n/a	n/a	n/a	9	[0, 0, 0]	-999	PAL1	0	R1212P
1181.896	0.95	1656916	TEST_ORIENT	n/a	n/a	3	3	FILM	DRESS	FILM	DRESS	9	[0, 0, 0]	-999	PAL1	0	R1212P
1182.846	0.001	1657889	TEST_PROBE	n/a	wordpools/wordpool_EN.txt	3	3	FILM	DRESS	FILM	DRESS	9	[0, 0, 0]	-999	PAL1	0	R1212P
1182.847	1.318	1657890	REC_START	n/a	n/a	3	-999	n/a	DRESS	n/a	n/a	9	[0, 0, 0]	-999	PAL1	0	R1212P
1184.165	3.69	1659240	REC_EVENT	1318	n/a	3	3	FILM	DRESS	FILM	DRESS	9	[0, 0, 0]	-999	PAL1	0	R1212P
1187.855	0.009	1663018	REC_END	n/a	n/a	3	-999	n/a	n/a	n/a	n/a	9	[0, 0, 0]	-999	PAL1	0	R1212P
1187.864	0.867	1663027	TEST_ORIENT	n/a	n/a	2	4	WEB	PET	WEB	PET	9	[0, 0, 0]	-999	PAL1	0	R1212P
1188.731	0.0	1663915	REC_START	n/a	n/a	2	-999	n/a	PET	n/a	n/a	9	[0, 0, 0]	-999	PAL1	0	R1212P
1188.731	1.623	1663915	TEST_PROBE	n/a	wordpools/wordpool_EN.txt	2	4	WEB	PET	WEB	PET	9	[0, 0, 0]	-999	PAL1	0	R1212P
1190.354	3.394	1665577	REC_EVENT	1623	n/a	2	4	WEB	PET	WEB	PET	9	[0, 0, 0]	-999	PAL1	0	R1212P
1193.748	0.017	1669052	REC_END	n/a	n/a	2	-999	n/a	n/a	n/a	n/a	9	[0, 0, 0]	-999	PAL1	0	R1212P
1193.765	0.85	1669069	TEST_ORIENT	n/a	n/a	1	5	HORSE	CREEK	HORSE	CHEEK	9	[0, 0, 0]	-999	PAL1	0	R1212P
1194.615	0.0	1669940	TEST_PROBE	n/a	wordpools/wordpool_EN.txt	1	5	HORSE	CREEK	HORSE	CHEEK	9	[0, 0, 0]	-999	PAL1	0	R1212P
1194.615	1.827	1669940	REC_START	n/a	n/a	1	-999	n/a	CREEK	n/a	n/a	9	[0, 0, 0]	-999	PAL1	0	R1212P
1196.442	3.191	1671811	REC_EVENT	1827	n/a	1	5	HORSE	CREEK	HORSE	CHEEK	9	[0, 0, 0]	-999	PAL1	0	R1212P
1199.633	0.017	1675078	REC_END	n/a	n/a	1	-999	n/a	n/a	n/a	n/a	9	[0, 0, 0]	-999	PAL1	0	R1212P
1199.65	0.933	1675095	TEST_ORIENT	n/a	n/a	6	6	PANTS	TRUCK	TRUCK	PANTS	9	[0, 0, 0]	-999	PAL1	0	R1212P
1200.583	0.0	1676051	REC_START	n/a	n/a	6	-999	n/a	TRUCK	n/a	n/a	9	[0, 0, 0]	-999	PAL1	0	R1212P
1200.583	1.489	1676051	TEST_PROBE	n/a	wordpools/wordpool_EN.txt	6	6	PANTS	TRUCK	TRUCK	PANTS	9	[0, 0, 0]	-999	PAL1	0	R1212P
1202.072	3.528	1677575	REC_EVENT	1489	n/a	6	6	PANTS	TRUCK	TRUCK	PANTS	9	[0, 0, 0]	-999	PAL1	0	R1212P
1205.6	2.321	1681188	REC_END	n/a	n/a	6	-999	n/a	n/a	n/a	n/a	9	[0, 0, 0]	-999	PAL1	0	R1212P
1207.921	10.45	1683565	ENCODING_START	n/a	n/a	0	-999	n/a	n/a	n/a	n/a	10	[0, 0, 0]	-999	PAL1	0	R1212P
1218.371	0.983	1694265	STUDY_ORIENT	n/a	n/a	1	3	SEAT	n/a	CORD	SEAT	10	[0, 0, 0]	-999	PAL1	0	R1212P
1219.354	5.018	1695271	STUDY_PAIR	n/a	wordpools/wordpool_EN.txt	1	3	SEAT	n/a	CORD	SEAT	10	[0, 0, 0]	-999	PAL1	0	R1212P
1224.372	1.0	1700410	STUDY_ORIENT	n/a	n/a	2	4	KITE	n/a	BATH	KITE	10	[0, 0, 0]	-999	PAL1	0	R1212P
1225.372	5.034	1701434	STUDY_PAIR	n/a	wordpools/wordpool_EN.txt	2	4	KITE	n/a	BATH	KITE	10	[0, 0, 0]	-999	PAL1	0	R1212P
1230.406	1.001	1706588	STUDY_ORIENT	n/a	n/a	3	1	FARM	n/a	TRAY	FARM	10	[0, 0, 0]	-999	PAL1	0	R1212P
1231.407	5.033	1707613	STUDY_PAIR	n/a	wordpools/wordpool_EN.txt	3	1	FARM	n/a	TRAY	FARM	10	[0, 0, 0]	-999	PAL1	0	R1212P
1236.44	0.834	1712767	STUDY_ORIENT	n/a	n/a	4	2	LIP	n/a	BOOT	LIP	10	[0, 0, 0]	-999	PAL1	0	R1212P
1237.274	5.018	1713621	STUDY_PAIR	n/a	wordpools/wordpool_EN.txt	4	2	LIP	n/a	BOOT	LIP	10	[0, 0, 0]	-999	PAL1	0	R1212P
1242.292	0.983	1718759	STUDY_ORIENT	n/a	n/a	5	5	ROOM	BEACH	ROOM	BEACH	10	[0, 0, 0]	-999	PAL1	0	R1212P
1243.275	5.018	1719765	STUDY_PAIR	n/a	wordpools/wordpool_EN.txt	5	5	ROOM	BEACH	ROOM	BEACH	10	[0, 0, 0]	-999	PAL1	0	R1212P
1248.293	1.0	1724904	STUDY_ORIENT	n/a	n/a	6	6	CANE	n/a	CANE	PURSE	10	[0, 0, 0]	-999	PAL1	0	R1212P
1249.293	4.001	1725928	STUDY_PAIR	n/a	wordpools/wordpool_EN.txt	6	6	CANE	n/a	CANE	PURSE	10	[0, 0, 0]	-999	PAL1	0	R1212P
1253.294	1.0	1730024	START	n/a	n/a	-999	-999	n/a	n/a	n/a	n/a	10	[-999, -999, -999]	-999	PAL1	0	R1212P
1254.294	0.017	1731048	MATH_START	n/a	n/a	-999	-999	n/a	n/a	n/a	n/a	10	[0, 0, 0]	-999	PAL1	0	R1212P
1254.311	4.15	1731066	PROB	4115	n/a	-999	-999	n/a	n/a	n/a	n/a	10	[2, 1, 9]	12	PAL1	0	R1212P
1258.461	8.451	1735315	PROB	8420	n/a	-999	-999	n/a	n/a	n/a	n/a	10	[8, 8, 9]	25	PAL1	0	R1212P
1266.912	2.567	1743969	PROB	2537	n/a	-999	-999	n/a	n/a	n/a	n/a	10	[1, 3, 9]	13	PAL1	0	R1212P
1269.479	4.314	1746597	PROB	4314	n/a	-999	-999	n/a	n/a	n/a	n/a	10	[3, 3, 4]	10	PAL1	0	R1212P
1273.793	0.004	1751014	STOP	n/a	n/a	-999	-999	n/a	n/a	n/a	n/a	10	[-999, -999, -999]	-999	PAL1	0	R1212P
1273.797	0.0	1751019	MATH_END	n/a	n/a	-999	-999	n/a	n/a	n/a	n/a	10	[0, 0, 0]	-999	PAL1	0	R1212P
1273.797	0.017	1751019	TEST_START	n/a	n/a	-999	-999	n/a	n/a	n/a	n/a	10	[0, 0, 0]	-999	PAL1	0	R1212P
1273.814	0.883	1751036	TEST_ORIENT	n/a	n/a	3	1	FARM	n/a	TRAY	FARM	10	[0, 0, 0]	-999	PAL1	0	R1212P
1274.697	0.001	1751940	TEST_PROBE	n/a	wordpools/wordpool_EN.txt	3	1	FARM	n/a	TRAY	FARM	10	[0, 0, 0]	-999	PAL1	0	R1212P
1274.698	5.008	1751941	REC_START	n/a	n/a	3	-999	n/a	n/a	n/a	n/a	10	[0, 0, 0]	-999	PAL1	0	R1212P
1279.706	0.001	1757069	REC_END	n/a	n/a	3	-999	n/a	n/a	n/a	n/a	10	[0, 0, 0]	-999	PAL1	0	R1212P
1279.707	0.008	1757070	REC_EVENT	5009	n/a	3	1	FARM	<>	TRAY	FARM	10	[0, 0, 0]	-999	PAL1	0	R1212P
1279.715	0.933	1757078	TEST_ORIENT	n/a	n/a	4	2	LIP	n/a	BOOT	LIP	10	[0, 0, 0]	-999	PAL1	0	R1212P
1280.648	0.001	1758034	TEST_PROBE	n/a	wordpools/wordpool_EN.txt	4	2	LIP	n/a	BOOT	LIP	10	[0, 0, 0]	-999	PAL1	0	R1212P
1280.649	3.566	1758035	REC_START	n/a	n/a	4	-999	n/a	n/a	n/a	n/a	10	[0, 0, 0]	-999	PAL1	0	R1212P
1284.215	1.442	1761686	REC_EVENT	3566	n/a	4	2	LIP	<>	BOOT	LIP	10	[0, 0, 0]	-999	PAL1	0	R1212P
1285.657	0.009	1763163	REC_END	n/a	n/a	4	-999	n/a	n/a	n/a	n/a	10	[0, 0, 0]	-999	PAL1	0	R1212P
1285.666	0.9	1763172	TEST_ORIENT	n/a	n/a	1	3	SEAT	n/a	CORD	SEAT	10	[0, 0, 0]	-999	PAL1	0	R1212P
1286.566	0.0	1764093	REC_START	n/a	n/a	1	-999	n/a	n/a	n/a	n/a	10	[0, 0, 0]	-999	PAL1	0	R1212P
1286.566	2.968	1764093	TEST_PROBE	n/a	wordpools/wordpool_EN.txt	1	3	SEAT	n/a	CORD	SEAT	10	[0, 0, 0]	-999	PAL1	0	R1212P
1289.534	2.05	1767133	REC_EVENT	2968	n/a	1	3	SEAT	<>	CORD	SEAT	10	[0, 0, 0]	-999	PAL1	0	R1212P
1291.584	0.016	1769232	REC_END	n/a	n/a	1	-999	n/a	n/a	n/a	n/a	10	[0, 0, 0]	-999	PAL1	0	R1212P
1291.6	0.951	1769248	TEST_ORIENT	n/a	n/a	2	4	KITE	n/a	BATH	KITE	10	[0, 0, 0]	-999	PAL1	0	R1212P
1292.551	0.0	1770222	TEST_PROBE	n/a	wordpools/wordpool_EN.txt	2	4	KITE	n/a	BATH	KITE	10	[0, 0, 0]	-999	PAL1	0	R1212P
1292.551	1.477	1770222	REC_START	n/a	n/a	2	-999	n/a	n/a	n/a	n/a	10	[0, 0, 0]	-999	PAL1	0	R1212P
1294.028	3.557	1771734	REC_EVENT	1477	n/a	2	4	KITE	<>	BATH	KITE	10	[0, 0, 0]	-999	PAL1	0	R1212P
1297.585	0.017	1775376	REC_END	n/a	n/a	2	-999	n/a	n/a	n/a	n/a	10	[0, 0, 0]	-999	PAL1	0	R1212P
1297.602	0.801	1775394	TEST_ORIENT	n/a	n/a	5	5	ROOM	BEACH	ROOM	BEACH	10	[0, 0, 0]	-999	PAL1	0	R1212P
1298.403	0.0	1776214	REC_START	n/a	n/a	5	-999	n/a	BEACH	n/a	n/a	10	[0, 0, 0]	-999	PAL1	0	R1212P
1298.403	3.184	1776214	TEST_PROBE	n/a	wordpools/wordpool_EN.txt	5	5	ROOM	BEACH	ROOM	BEACH	10	[0, 0, 0]	-999	PAL1	0	R1212P
1301.587	1.833	1779474	REC_EVENT	3184	n/a	5	5	ROOM	BEACH	ROOM	BEACH	10	[0, 0, 0]	-999	PAL1	0	R1212P
1303.42	0.016	1781351	REC_END	n/a	n/a	5	-999	n/a	n/a	n/a	n/a	10	[0, 0, 0]	-999	PAL1	0	R1212P
1303.436	0.951	1781368	TEST_ORIENT	n/a	n/a	6	6	CANE	n/a	CANE	PURSE	10	[0, 0, 0]	-999	PAL1	0	R1212P
1304.387	0.001	1782341	TEST_PROBE	n/a	wordpools/wordpool_EN.txt	6	6	CANE	n/a	CANE	PURSE	10	[0, 0, 0]	-999	PAL1	0	R1212P
1304.388	2.517	1782342	REC_START	n/a	n/a	6	-999	n/a	n/a	n/a	n/a	10	[0, 0, 0]	-999	PAL1	0	R1212P
1306.905	2.491	1784920	REC_EVENT	2517	n/a	6	6	CANE	<>	CANE	PURSE	10	[0, 0, 0]	-999	PAL1	0	R1212P
1309.396	2.333	1787470	REC_END	n/a	n/a	6	-999	n/a	n/a	n/a	n/a	10	[0, 0, 0]	-999	PAL1	0	R1212P
1311.729	10.444	1789859	ENCODING_START	n/a	n/a	0	-999	n/a	n/a	n/a	n/a	11	[0, 0, 0]	-999	PAL1	0	R1212P
1322.173	0.767	1800553	STUDY_ORIENT	n/a	n/a	1	1	TIE	n/a	SMOKE	TIE	11	[0, 0, 0]	-999	PAL1	0	R1212P
1322.94	5.034	1801339	STUDY_PAIR	n/a	wordpools/wordpool_EN.txt	1	1	TIE	n/a	SMOKE	TIE	11	[0, 0, 0]	-999	PAL1	0	R1212P
1327.974	0.9	1806493	STUDY_ORIENT	n/a	n/a	2	6	CLOUD	SEED	CLOUD	SEED	11	[0, 0, 0]	-999	PAL1	0	R1212P
1328.874	5.018	1807415	STUDY_PAIR	n/a	wordpools/wordpool_EN.txt	2	6	CLOUD	SEED	CLOUD	SEED	11	[0, 0, 0]	-999	PAL1	0	R1212P
1333.892	0.867	1812553	STUDY_ORIENT	n/a	n/a	3	5	SNAIL	n/a	SNAIL	BEAN	11	[0, 0, 0]	-999	PAL1	0	R1212P
1334.759	5.034	1813441	STUDY_PAIR	n/a	wordpools/wordpool_EN.txt	3	5	SNAIL	n/a	SNAIL	BEAN	11	[0, 0, 0]	-999	PAL1	0	R1212P
1339.793	0.984	1818595	STUDY_ORIENT	n/a	n/a	4	4	ROPE	n/a	PALM	ROPE	11	[0, 0, 0]	-999	PAL1	0	R1212P
1340.777	5.034	1819603	STUDY_PAIR	n/a	wordpools/wordpool_EN.txt	4	4	ROPE	n/a	PALM	ROPE	11	[0, 0, 0]	-999	PAL1	0	R1212P
1345.811	0.9	1824758	STUDY_ORIENT	n/a	n/a	5	3	SWAMP	BRUSH	SWAMP	BRUSH	11	[0, 0, 0]	-999	PAL1	0	R1212P
1346.711	5.034	1825679	STUDY_PAIR	n/a	wordpools/wordpool_EN.txt	5	3	SWAMP	BRUSH	SWAMP	BRUSH	11	[0, 0, 0]	-999	PAL1	0	R1212P
1351.745	0.867	1830834	STUDY_ORIENT	n/a	n/a	6	2	SAIL	n/a	SAIL	GOLD	11	[0, 0, 0]	-999	PAL1	0	R1212P
1352.612	4.002	1831721	STUDY_PAIR	n/a	wordpools/wordpool_EN.txt	6	2	SAIL	n/a	SAIL	GOLD	11	[0, 0, 0]	-999	PAL1	0	R1212P
1356.614	0.999	1835819	START	n/a	n/a	-999	-999	n/a	n/a	n/a	n/a	11	[-999, -999, -999]	-999	PAL1	0	R1212P
1357.613	0.017	1836842	MATH_START	n/a	n/a	-999	-999	n/a	n/a	n/a	n/a	11	[0, 0, 0]	-999	PAL1	0	R1212P
1357.63	5.034	1836860	PROB	5003	n/a	-999	-999	n/a	n/a	n/a	n/a	11	[2, 9, 9]	20	PAL1	0	R1212P
1362.664	6.468	1842014	PROB	6441	n/a	-999	-999	n/a	n/a	n/a	n/a	11	[9, 4, 7]	20	PAL1	0	R1212P
1369.132	5.269	1848637	PROB	5247	n/a	-999	-999	n/a	n/a	n/a	n/a	11	[2, 5, 1]	8	PAL1	0	R1212P
1374.401	4.312	1854032	PROB	4312	n/a	-999	-999	n/a	n/a	n/a	n/a	11	[4, 3, 6]	13	PAL1	0	R1212P
1378.713	0.004	1858448	STOP	n/a	n/a	-999	-999	n/a	n/a	n/a	n/a	11	[-999, -999, -999]	-999	PAL1	0	R1212P
1378.717	0.0	1858452	MATH_END	n/a	n/a	-999	-999	n/a	n/a	n/a	n/a	11	[0, 0, 0]	-999	PAL1	0	R1212P
1378.717	0.017	1858452	TEST_START	n/a	n/a	-999	-999	n/a	n/a	n/a	n/a	11	[0, 0, 0]	-999	PAL1	0	R1212P
1378.734	1.033	1858469	TEST_ORIENT	n/a	n/a	1	1	TIE	n/a	SMOKE	TIE	11	[0, 0, 0]	-999	PAL1	0	R1212P
1379.767	0.001	1859527	TEST_PROBE	n/a	wordpools/wordpool_EN.txt	1	1	TIE	n/a	SMOKE	TIE	11	[0, 0, 0]	-999	PAL1	0	R1212P
1379.768	5.004	1859528	REC_START	n/a	n/a	1	-999	n/a	n/a	n/a	n/a	11	[0, 0, 0]	-999	PAL1	0	R1212P
1384.772	0.004	1864652	REC_EVENT	5004	n/a	1	1	TIE	<>	SMOKE	TIE	11	[0, 0, 0]	-999	PAL1	0	R1212P
1384.776	0.009	1864656	REC_END	n/a	n/a	1	-999	n/a	n/a	n/a	n/a	11	[0, 0, 0]	-999	PAL1	0	R1212P
1384.785	0.867	1864665	TEST_ORIENT	n/a	n/a	6	2	SAIL	n/a	SAIL	GOLD	11	[0, 0, 0]	-999	PAL1	0	R1212P
1385.652	0.0	1865553	REC_START	n/a	n/a	6	-999	n/a	n/a	n/a	n/a	11	[0, 0, 0]	-999	PAL1	0	R1212P
1385.652	5.015	1865553	TEST_PROBE	n/a	wordpools/wordpool_EN.txt	6	2	SAIL	n/a	SAIL	GOLD	11	[0, 0, 0]	-999	PAL1	0	R1212P
1390.667	0.002	1870688	REC_EVENT	5015	n/a	6	2	SAIL	<>	SAIL	GOLD	11	[0, 0, 0]	-999	PAL1	0	R1212P
1390.669	0.017	1870690	REC_END	n/a	n/a	6	-999	n/a	n/a	n/a	n/a	11	[0, 0, 0]	-999	PAL1	0	R1212P
1390.686	1.034	1870707	TEST_ORIENT	n/a	n/a	5	3	SWAMP	BRUSH	SWAMP	BRUSH	11	[0, 0, 0]	-999	PAL1	0	R1212P
1391.72	0.0	1871766	TEST_PROBE	n/a	wordpools/wordpool_EN.txt	5	3	SWAMP	BRUSH	SWAMP	BRUSH	11	[0, 0, 0]	-999	PAL1	0	R1212P
1391.72	1.307	1871766	REC_START	n/a	n/a	5	-999	n/a	BRUSH	n/a	n/a	11	[0, 0, 0]	-999	PAL1	0	R1212P
1393.027	3.71	1873105	REC_EVENT	1307	n/a	5	3	SWAMP	BRUSH	SWAMP	BRUSH	11	[0, 0, 0]	-999	PAL1	0	R1212P
1396.737	0.017	1876903	REC_END	n/a	n/a	5	-999	n/a	n/a	n/a	n/a	11	[0, 0, 0]	-999	PAL1	0	R1212P
1396.754	0.8	1876921	TEST_ORIENT	n/a	n/a	4	4	ROPE	n/a	PALM	ROPE	11	[0, 0, 0]	-999	PAL1	0	R1212P
1397.554	0.001	1877740	TEST_PROBE	n/a	wordpools/wordpool_EN.txt	4	4	ROPE	n/a	PALM	ROPE	11	[0, 0, 0]	-999	PAL1	0	R1212P
1397.555	5.008	1877741	REC_START	n/a	n/a	4	-999	n/a	n/a	n/a	n/a	11	[0, 0, 0]	-999	PAL1	0	R1212P
1402.563	0.001	1882869	REC_END	n/a	n/a	4	-999	n/a	n/a	n/a	n/a	11	[0, 0, 0]	-999	PAL1	0	R1212P
1402.564	0.008	1882870	REC_EVENT	5009	n/a	4	4	ROPE	<>	PALM	ROPE	11	[0, 0, 0]	-999	PAL1	0	R1212P
1402.572	1.017	1882878	TEST_ORIENT	n/a	n/a	3	5	SNAIL	n/a	SNAIL	BEAN	11	[0, 0, 0]	-999	PAL1	0	R1212P
1403.589	0.0	1883920	TEST_PROBE	n/a	wordpools/wordpool_EN.txt	3	5	SNAIL	n/a	SNAIL	BEAN	11	[0, 0, 0]	-999	PAL1	0	R1212P
1403.589	2.898	1883920	REC_START	n/a	n/a	3	-999	n/a	n/a	n/a	n/a	11	[0, 0, 0]	-999	PAL1	0	R1212P
1406.487	0.321	1886887	REC_EVENT	2898	n/a	3	5	SNAIL	<>	SNAIL	BEAN	11	[0, 0, 0]	-999	PAL1	0	R1212P
1406.808	1.798	1887216	REC_EVENT	3219	n/a	3	5	SNAIL	<>	SNAIL	BEAN	11	[0, 0, 0]	-999	PAL1	0	R1212P
1408.606	0.017	1889057	REC_END	n/a	n/a	3	-999	n/a	n/a	n/a	n/a	11	[0, 0, 0]	-999	PAL1	0	R1212P
1408.623	0.917	1889074	TEST_ORIENT	n/a	n/a	2	6	CLOUD	SEED	CLOUD	SEED	11	[0, 0, 0]	-999	PAL1	0	R1212P
1409.54	0.0	1890013	REC_START	n/a	n/a	2	-999	n/a	SEED	n/a	n/a	11	[0, 0, 0]	-999	PAL1	0	R1212P
1409.54	1.191	1890013	TEST_PROBE	n/a	wordpools/wordpool_EN.txt	2	6	CLOUD	SEED	CLOUD	SEED	11	[0, 0, 0]	-999	PAL1	0	R1212P
1410.731	3.826	1891233	REC_EVENT	1191	n/a	2	6	CLOUD	SEED	CLOUD	SEED	11	[0, 0, 0]	-999	PAL1	0	R1212P
1414.557	2.253	1895150	REC_END	n/a	n/a	2	-999	n/a	n/a	n/a	n/a	11	[0, 0, 0]	-999	PAL1	0	R1212P
1416.81	10.451	1897457	ENCODING_START	n/a	n/a	0	-999	n/a	n/a	n/a	n/a	12	[0, 0, 0]	-999	PAL1	0	R1212P
1427.261	0.967	1908159	STUDY_ORIENT	n/a	n/a	1	3	SHIP	n/a	FLUTE	SHIP	12	[0, 0, 0]	-999	PAL1	0	R1212P
1428.228	5.034	1909149	STUDY_PAIR	n/a	wordpools/wordpool_EN.txt	1	3	SHIP	n/a	FLUTE	SHIP	12	[0, 0, 0]	-999	PAL1	0	R1212P
1433.262	0.816	1914303	STUDY_ORIENT	n/a	n/a	2	2	POLE	FLAME	FLAME	POLE	12	[0, 0, 0]	-999	PAL1	0	R1212P
1434.078	5.034	1915139	STUDY_PAIR	n/a	wordpools/wordpool_EN.txt	2	2	POLE	FLAME	FLAME	POLE	12	[0, 0, 0]	-999	PAL1	0	R1212P
1439.112	0.95	1920293	STUDY_ORIENT	n/a	n/a	3	1	BALL	GEESE	GEESE	BALL	12	[0, 0, 0]	-999	PAL1	0	R1212P
1440.062	5.018	1921266	STUDY_PAIR	n/a	wordpools/wordpool_EN.txt	3	1	BALL	GEESE	GEESE	BALL	12	[0, 0, 0]	-999	PAL1	0	R1212P
1445.08	0.833	1926404	STUDY_ORIENT	n/a	n/a	4	6	SKUNK	HAWK	SKUNK	HAWK	12	[0, 0, 0]	-999	PAL1	0	R1212P
1445.913	5.018	1927257	STUDY_PAIR	n/a	wordpools/wordpool_EN.txt	4	6	SKUNK	HAWK	SKUNK	HAWK	12	[0, 0, 0]	-999	PAL1	0	R1212P
1450.931	0.9	1932396	STUDY_ORIENT	n/a	n/a	5	5	SPEAR	EEL	EEL	SPEAR	12	[0, 0, 0]	-999	PAL1	0	R1212P
1451.831	5.018	1933317	STUDY_PAIR	n/a	wordpools/wordpool_EN.txt	5	5	SPEAR	EEL	EEL	SPEAR	12	[0, 0, 0]	-999	PAL1	0	R1212P
1456.849	0.917	1938455	STUDY_ORIENT	n/a	n/a	6	4	DESK	n/a	SIGN	DESK	12	[0, 0, 0]	-999	PAL1	0	R1212P
1457.766	4.017	1939394	STUDY_PAIR	n/a	wordpools/wordpool_EN.txt	6	4	DESK	n/a	SIGN	DESK	12	[0, 0, 0]	-999	PAL1	0	R1212P
1461.783	1.0	1943508	START	n/a	n/a	-999	-999	n/a	n/a	n/a	n/a	12	[-999, -999, -999]	-999	PAL1	0	R1212P
1462.783	0.017	1944531	MATH_START	n/a	n/a	-999	-999	n/a	n/a	n/a	n/a	12	[0, 0, 0]	-999	PAL1	0	R1212P
1462.8	5.734	1944549	PROB	5714	n/a	-999	-999	n/a	n/a	n/a	n/a	12	[1, 3, 6]	10	PAL1	0	R1212P
1468.534	4.351	1950420	PROB	4323	n/a	-999	-999	n/a	n/a	n/a	n/a	12	[1, 9, 9]	19	PAL1	0	R1212P
1472.885	5.685	1954875	PROB	5653	n/a	-999	-999	n/a	n/a	n/a	n/a	12	[2, 8, 3]	13	PAL1	0	R1212P
1478.57	5.119	1960697	PROB	5119	n/a	-999	-999	n/a	n/a	n/a	n/a	12	[4, 1, 6]	11	PAL1	0	R1212P
1483.689	0.015	1965938	STOP	n/a	n/a	-999	-999	n/a	n/a	n/a	n/a	12	[-999, -999, -999]	-999	PAL1	0	R1212P
1483.704	0.0	1965954	MATH_END	n/a	n/a	-999	-999	n/a	n/a	n/a	n/a	12	[0, 0, 0]	-999	PAL1	0	R1212P
1483.704	0.017	1965954	TEST_START	n/a	n/a	-999	-999	n/a	n/a	n/a	n/a	12	[0, 0, 0]	-999	PAL1	0	R1212P
1483.721	0.883	1965971	TEST_ORIENT	n/a	n/a	3	1	BALL	GEESE	GEESE	BALL	12	[0, 0, 0]	-999	PAL1	0	R1212P
1484.604	0.001	1966875	TEST_PROBE	n/a	wordpools/wordpool_EN.txt	3	1	BALL	GEESE	GEESE	BALL	12	[0, 0, 0]	-999	PAL1	0	R1212P
1484.605	2.357	1966876	REC_START	n/a	n/a	3	-999	n/a	GEESE	n/a	n/a	12	[0, 0, 0]	-999	PAL1	0	R1212P
1486.962	2.651	1969290	REC_EVENT	2357	n/a	3	1	BALL	GEESE	GEESE	BALL	12	[0, 0, 0]	-999	PAL1	0	R1212P
1489.613	0.009	1972004	REC_END	n/a	n/a	3	-999	n/a	n/a	n/a	n/a	12	[0, 0, 0]	-999	PAL1	0	R1212P
1489.622	0.917	1972013	TEST_ORIENT	n/a	n/a	2	2	POLE	FLAME	FLAME	POLE	12	[0, 0, 0]	-999	PAL1	0	R1212P
1490.539	0.001	1972952	TEST_PROBE	n/a	wordpools/wordpool_EN.txt	2	2	POLE	FLAME	FLAME	POLE	12	[0, 0, 0]	-999	PAL1	0	R1212P
1490.54	1.346	1972953	REC_START	n/a	n/a	2	-999	n/a	FLAME	n/a	n/a	12	[0, 0, 0]	-999	PAL1	0	R1212P
1491.886	3.678	1974332	REC_EVENT	1346	n/a	2	2	POLE	FLAME	FLAME	POLE	12	[0, 0, 0]	-999	PAL1	0	R1212P
1495.564	0.009	1978098	REC_END	n/a	n/a	2	-999	n/a	n/a	n/a	n/a	12	[0, 0, 0]	-999	PAL1	0	R1212P
1495.573	0.983	1978107	TEST_ORIENT	n/a	n/a	1	3	SHIP	n/a	FLUTE	SHIP	12	[0, 0, 0]	-999	PAL1	0	R1212P
1496.556	0.001	1979113	TEST_PROBE	n/a	wordpools/wordpool_EN.txt	1	3	SHIP	n/a	FLUTE	SHIP	12	[0, 0, 0]	-999	PAL1	0	R1212P
1496.557	3.461	1979114	REC_START	n/a	n/a	1	-999	n/a	n/a	n/a	n/a	12	[0, 0, 0]	-999	PAL1	0	R1212P
1500.018	1.547	1982658	REC_EVENT	3461	n/a	1	3	SHIP	<>	FLUTE	SHIP	12	[0, 0, 0]	-999	PAL1	0	R1212P
1501.565	0.009	1984242	REC_END	n/a	n/a	1	-999	n/a	n/a	n/a	n/a	12	[0, 0, 0]	-999	PAL1	0	R1212P
1501.574	0.95	1984252	TEST_ORIENT	n/a	n/a	6	4	DESK	n/a	SIGN	DESK	12	[0, 0, 0]	-999	PAL1	0	R1212P
1502.524	0.001	1985224	TEST_PROBE	n/a	wordpools/wordpool_EN.txt	6	4	DESK	n/a	SIGN	DESK	12	[0, 0, 0]	-999	PAL1	0	R1212P
1502.525	1.485	1985225	REC_START	n/a	n/a	6	-999	n/a	n/a	n/a	n/a	12	[0, 0, 0]	-999	PAL1	0	R1212P
1504.01	3.523	1986746	REC_EVENT	1485	n/a	6	4	DESK	<>	SIGN	DESK	12	[0, 0, 0]	-999	PAL1	0	R1212P
1507.533	0.009	1990353	REC_END	n/a	n/a	6	-999	n/a	n/a	n/a	n/a	12	[0, 0, 0]	-999	PAL1	0	R1212P
1507.542	0.818	1990363	TEST_ORIENT	n/a	n/a	5	5	SPEAR	EEL	EEL	SPEAR	12	[0, 0, 0]	-999	PAL1	0	R1212P
1508.36	0.0	1991200	TEST_PROBE	n/a	wordpools/wordpool_EN.txt	5	5	SPEAR	EEL	EEL	SPEAR	12	[0, 0, 0]	-999	PAL1	0	R1212P
1508.36	1.595	1991200	REC_START	n/a	n/a	5	-999	n/a	EEL	n/a	n/a	12	[0, 0, 0]	-999	PAL1	0	R1212P
1509.955	3.422	1992833	REC_EVENT	1595	n/a	5	5	SPEAR	EEL	EEL	SPEAR	12	[0, 0, 0]	-999	PAL1	0	R1212P
1513.377	0.017	1996337	REC_END	n/a	n/a	5	-999	n/a	n/a	n/a	n/a	12	[0, 0, 0]	-999	PAL1	0	R1212P
1513.394	1.017	1996355	TEST_ORIENT	n/a	n/a	4	6	SKUNK	HAWK	SKUNK	HAWK	12	[0, 0, 0]	-999	PAL1	0	R1212P
1514.411	0.001	1997396	TEST_PROBE	n/a	wordpools/wordpool_EN.txt	4	6	SKUNK	HAWK	SKUNK	HAWK	12	[0, 0, 0]	-999	PAL1	0	R1212P
1514.412	1.355	1997397	REC_START	n/a	n/a	4	-999	n/a	HAWK	n/a	n/a	12	[0, 0, 0]	-999	PAL1	0	R1212P
1515.767	3.661	1998785	REC_EVENT	1355	n/a	4	6	SKUNK	HAWK	SKUNK	HAWK	12	[0, 0, 0]	-999	PAL1	0	R1212P
1519.428	2.549	2002533	REC_END	n/a	n/a	4	-999	n/a	n/a	n/a	n/a	12	[0, 0, 0]	-999	PAL1	0	R1212P
1521.977	10.454	2005143	ENCODING_START	n/a	n/a	0	-999	n/a	n/a	n/a	n/a	13	[0, 0, 0]	-999	PAL1	0	R1212P
1532.431	1.016	2015848	STUDY_ORIENT	n/a	n/a	1	5	SCHOOL	HEART	HEART	SCHOOL	13	[0, 0, 0]	-999	PAL1	0	R1212P
1533.447	5.034	2016888	STUDY_PAIR	n/a	wordpools/wordpool_EN.txt	1	5	SCHOOL	HEART	HEART	SCHOOL	13	[0, 0, 0]	-999	PAL1	0	R1212P
1538.481	0.918	2022043	STUDY_ORIENT	n/a	n/a	2	6	CAKE	LEG	CAKE	LEG	13	[0, 0, 0]	-999	PAL1	0	R1212P
1539.399	5.034	2022983	STUDY_PAIR	n/a	wordpools/wordpool_EN.txt	2	6	CAKE	LEG	CAKE	LEG	13	[0, 0, 0]	-999	PAL1	0	R1212P
1544.433	0.967	2028137	STUDY_ORIENT	n/a	n/a	3	1	RICE	TANK	RICE	TANK	13	[0, 0, 0]	-999	PAL1	0	R1212P
1545.4	5.018	2029127	STUDY_PAIR	n/a	wordpools/wordpool_EN.txt	3	1	RICE	TANK	RICE	TANK	13	[0, 0, 0]	-999	PAL1	0	R1212P
1550.418	0.783	2034266	STUDY_ORIENT	n/a	n/a	4	2	CHAIR	n/a	HAND	CHAIR	13	[0, 0, 0]	-999	PAL1	0	R1212P
1551.201	5.018	2035067	STUDY_PAIR	n/a	wordpools/wordpool_EN.txt	4	2	CHAIR	n/a	HAND	CHAIR	13	[0, 0, 0]	-999	PAL1	0	R1212P
1556.219	0.815	2040206	STUDY_ORIENT	n/a	n/a	5	3	CAT	STAIR	CAT	STAIR	13	[0, 0, 0]	-999	PAL1	0	R1212P
1557.034	5.018	2041040	STUDY_PAIR	n/a	wordpools/wordpool_EN.txt	5	3	CAT	STAIR	CAT	STAIR	13	[0, 0, 0]	-999	PAL1	0	R1212P
1562.052	0.817	2046178	STUDY_ORIENT	n/a	n/a	6	4	FOAM	SOUP	SOUP	FOAM	13	[0, 0, 0]	-999	PAL1	0	R1212P
1562.869	4.001	2047015	STUDY_PAIR	n/a	wordpools/wordpool_EN.txt	6	4	FOAM	SOUP	SOUP	FOAM	13	[0, 0, 0]	-999	PAL1	0	R1212P
1566.87	1.0	2051112	START	n/a	n/a	-999	-999	n/a	n/a	n/a	n/a	13	[-999, -999, -999]	-999	PAL1	0	R1212P
1567.87	0.017	2052136	MATH_START	n/a	n/a	-999	-999	n/a	n/a	n/a	n/a	13	[0, 0, 0]	-999	PAL1	0	R1212P
1567.887	5.535	2052153	PROB	5516	n/a	-999	-999	n/a	n/a	n/a	n/a	13	[2, 9, 5]	16	PAL1	0	R1212P
1573.422	3.083	2057821	PROB	3051	n/a	-999	-999	n/a	n/a	n/a	n/a	13	[2, 2, 6]	10	PAL1	0	R1212P
1576.505	3.718	2060978	PROB	3697	n/a	-999	-999	n/a	n/a	n/a	n/a	13	[5, 3, 6]	14	PAL1	0	R1212P
1580.223	3.068	2064785	PROB	3043	n/a	-999	-999	n/a	n/a	n/a	n/a	13	[2, 8, 2]	12	PAL1	0	R1212P
1583.291	6.063	2067926	PROB	6063	n/a	-999	-999	n/a	n/a	n/a	n/a	13	[2, 2, 3]	7	PAL1	0	R1212P
1589.354	0.005	2074134	STOP	n/a	n/a	-999	-999	n/a	n/a	n/a	n/a	13	[-999, -999, -999]	-999	PAL1	0	R1212P
1589.359	0.0	2074139	MATH_END	n/a	n/a	-999	-999	n/a	n/a	n/a	n/a	13	[0, 0, 0]	-999	PAL1	0	R1212P
1589.359	0.016	2074139	TEST_START	n/a	n/a	-999	-999	n/a	n/a	n/a	n/a	13	[0, 0, 0]	-999	PAL1	0	R1212P
1589.375	0.934	2074156	TEST_ORIENT	n/a	n/a	3	1	RICE	TANK	RICE	TANK	13	[0, 0, 0]	-999	PAL1	0	R1212P
1590.309	0.0	2075112	TEST_PROBE	n/a	wordpools/wordpool_EN.txt	3	1	RICE	TANK	RICE	TANK	13	[0, 0, 0]	-999	PAL1	0	R1212P
1590.309	1.559	2075112	REC_START	n/a	n/a	3	-999	n/a	TANK	n/a	n/a	13	[0, 0, 0]	-999	PAL1	0	R1212P
1591.868	3.466	2076709	REC_EVENT	1559	n/a	3	1	RICE	TANK	RICE	TANK	13	[0, 0, 0]	-999	PAL1	0	R1212P
1595.334	0.009	2080258	REC_END	n/a	n/a	3	-999	n/a	n/a	n/a	n/a	13	[0, 0, 0]	-999	PAL1	0	R1212P
1595.343	0.884	2080267	TEST_ORIENT	n/a	n/a	4	2	CHAIR	n/a	HAND	CHAIR	13	[0, 0, 0]	-999	PAL1	0	R1212P
1596.227	0.0	2081172	TEST_PROBE	n/a	wordpools/wordpool_EN.txt	4	2	CHAIR	n/a	HAND	CHAIR	13	[0, 0, 0]	-999	PAL1	0	R1212P
1596.227	5.015	2081172	REC_START	n/a	n/a	4	-999	n/a	n/a	n/a	n/a	13	[0, 0, 0]	-999	PAL1	0	R1212P
1601.242	0.002	2086307	REC_EVENT	5015	n/a	4	2	CHAIR	<>	HAND	CHAIR	13	[0, 0, 0]	-999	PAL1	0	R1212P
1601.244	0.017	2086309	REC_END	n/a	n/a	4	-999	n/a	n/a	n/a	n/a	13	[0, 0, 0]	-999	PAL1	0	R1212P
1601.261	0.882	2086327	TEST_ORIENT	n/a	n/a	5	3	CAT	STAIR	CAT	STAIR	13	[0, 0, 0]	-999	PAL1	0	R1212P
1602.143	0.001	2087230	TEST_PROBE	n/a	wordpools/wordpool_EN.txt	5	3	CAT	STAIR	CAT	STAIR	13	[0, 0, 0]	-999	PAL1	0	R1212P
1602.144	1.21	2087231	REC_START	n/a	n/a	5	-999	n/a	STAIR	n/a	n/a	13	[0, 0, 0]	-999	PAL1	0	R1212P
1603.354	3.798	2088470	REC_EVENT	1210	n/a	5	3	CAT	STAIR	CAT	STAIR	13	[0, 0, 0]	-999	PAL1	0	R1212P
1607.152	0.009	2092359	REC_END	n/a	n/a	5	-999	n/a	n/a	n/a	n/a	13	[0, 0, 0]	-999	PAL1	0	R1212P
1607.161	0.85	2092368	TEST_ORIENT	n/a	n/a	6	4	FOAM	SOUP	SOUP	FOAM	13	[0, 0, 0]	-999	PAL1	0	R1212P
1608.011	0.001	2093238	TEST_PROBE	n/a	wordpools/wordpool_EN.txt	6	4	FOAM	SOUP	SOUP	FOAM	13	[0, 0, 0]	-999	PAL1	0	R1212P
1608.012	1.233	2093239	REC_START	n/a	n/a	6	-999	n/a	SOUP	n/a	n/a	13	[0, 0, 0]	-999	PAL1	0	R1212P
1609.245	3.775	2094502	REC_EVENT	1233	n/a	6	4	FOAM	SOUP	SOUP	FOAM	13	[0, 0, 0]	-999	PAL1	0	R1212P
1613.02	0.009	2098367	REC_END	n/a	n/a	6	-999	n/a	n/a	n/a	n/a	13	[0, 0, 0]	-999	PAL1	0	R1212P
1613.029	0.883	2098376	TEST_ORIENT	n/a	n/a	1	5	SCHOOL	HEART	HEART	SCHOOL	13	[0, 0, 0]	-999	PAL1	0	R1212P
1613.912	0.001	2099281	TEST_PROBE	n/a	wordpools/wordpool_EN.txt	1	5	SCHOOL	HEART	HEART	SCHOOL	13	[0, 0, 0]	-999	PAL1	0	R1212P
1613.913	1.376	2099282	REC_START	n/a	n/a	1	-999	n/a	HEART	n/a	n/a	13	[0, 0, 0]	-999	PAL1	0	R1212P
1615.289	3.632	2100691	REC_EVENT	1376	n/a	1	5	SCHOOL	HEART	HEART	SCHOOL	13	[0, 0, 0]	-999	PAL1	0	R1212P
1618.921	0.009	2104410	REC_END	n/a	n/a	1	-999	n/a	n/a	n/a	n/a	13	[0, 0, 0]	-999	PAL1	0	R1212P
1618.93	0.833	2104419	TEST_ORIENT	n/a	n/a	2	6	CAKE	LEG	CAKE	LEG	13	[0, 0, 0]	-999	PAL1	0	R1212P
1619.763	0.001	2105272	TEST_PROBE	n/a	wordpools/wordpool_EN.txt	2	6	CAKE	LEG	CAKE	LEG	13	[0, 0, 0]	-999	PAL1	0	R1212P
1619.764	1.014	2105273	REC_START	n/a	n/a	2	-999	n/a	LEG	n/a	n/a	13	[0, 0, 0]	-999	PAL1	0	R1212P
1620.778	3.986	2106311	REC_EVENT	1014	n/a	2	6	CAKE	LEG	CAKE	LEG	13	[0, 0, 0]	-999	PAL1	0	R1212P
1624.764	2.309	2110393	REC_END	n/a	n/a	2	-999	n/a	n/a	n/a	n/a	13	[0, 0, 0]	-999	PAL1	0	R1212P
1627.073	10.444	2112757	ENCODING_START	n/a	n/a	0	-999	n/a	n/a	n/a	n/a	14	[0, 0, 0]	-999	PAL1	0	R1212P
1637.517	0.851	2123451	STUDY_ORIENT	n/a	n/a	1	1	GATE	CHIEF	CHIEF	GATE	14	[0, 0, 0]	-999	PAL1	0	R1212P
1638.368	5.034	2124322	STUDY_PAIR	n/a	wordpools/wordpool_EN.txt	1	1	GATE	CHIEF	CHIEF	GATE	14	[0, 0, 0]	-999	PAL1	0	R1212P
1643.402	0.9	2129477	STUDY_ORIENT	n/a	n/a	2	2	FLAG	FLEA	FLEA	FLAG	14	[0, 0, 0]	-999	PAL1	0	R1212P
1644.302	5.018	2130399	STUDY_PAIR	n/a	wordpools/wordpool_EN.txt	2	2	FLAG	FLEA	FLEA	FLAG	14	[0, 0, 0]	-999	PAL1	0	R1212P
1649.32	0.783	2135537	STUDY_ORIENT	n/a	n/a	3	5	JAIL	JAIL	GRAPE	JAIL	14	[0, 0, 0]	-999	PAL1	0	R1212P
1650.103	5.034	2136338	STUDY_PAIR	n/a	wordpools/wordpool_EN.txt	3	5	JAIL	JAIL	GRAPE	JAIL	14	[0, 0, 0]	-999	PAL1	0	R1212P
1655.137	0.817	2141493	STUDY_ORIENT	n/a	n/a	4	4	SPONGE	DART	SPONGE	DART	14	[0, 0, 0]	-999	PAL1	0	R1212P
1655.954	5.034	2142330	STUDY_PAIR	n/a	wordpools/wordpool_EN.txt	4	4	SPONGE	DART	SPONGE	DART	14	[0, 0, 0]	-999	PAL1	0	R1212P
1660.988	1.0	2147484	STUDY_ORIENT	n/a	n/a	5	3	BOWL	n/a	BAG	BOWL	14	[0, 0, 0]	-999	PAL1	0	R1212P
1661.988	5.018	2148508	STUDY_PAIR	n/a	wordpools/wordpool_EN.txt	5	3	BOWL	n/a	BAG	BOWL	14	[0, 0, 0]	-999	PAL1	0	R1212P
1667.006	0.883	2153646	STUDY_ORIENT	n/a	n/a	6	6	LOCK	n/a	PIG	LOCK	14	[0, 0, 0]	-999	PAL1	0	R1212P
1667.889	4.002	2154551	STUDY_PAIR	n/a	wordpools/wordpool_EN.txt	6	6	LOCK	n/a	PIG	LOCK	14	[0, 0, 0]	-999	PAL1	0	R1212P
1671.891	0.999	2158648	START	n/a	n/a	-999	-999	n/a	n/a	n/a	n/a	14	[-999, -999, -999]	-999	PAL1	0	R1212P
1672.89	0.017	2159671	MATH_START	n/a	n/a	-999	-999	n/a	n/a	n/a	n/a	14	[0, 0, 0]	-999	PAL1	0	R1212P
1672.907	5.668	2159689	PROB	5647	n/a	-999	-999	n/a	n/a	n/a	n/a	14	[4, 7, 6]	17	PAL1	0	R1212P
1678.575	3.317	2165493	PROB	3282	n/a	-999	-999	n/a	n/a	n/a	n/a	14	[7, 3, 9]	19	PAL1	0	R1212P
1681.892	7.436	2168889	PROB	7406	n/a	-999	-999	n/a	n/a	n/a	n/a	14	[4, 9, 2]	15	PAL1	0	R1212P
1689.328	6.345	2176503	PROB	6345	n/a	-999	-999	n/a	n/a	n/a	n/a	14	[6, 6, 7]	19	PAL1	0	R1212P
1695.673	0.005	2183000	STOP	n/a	n/a	-999	-999	n/a	n/a	n/a	n/a	14	[-999, -999, -999]	-999	PAL1	0	R1212P
1695.678	0.0	2183005	TEST_START	n/a	n/a	-999	-999	n/a	n/a	n/a	n/a	14	[0, 0, 0]	-999	PAL1	0	R1212P
1695.678	0.017	2183005	MATH_END	n/a	n/a	-999	-999	n/a	n/a	n/a	n/a	14	[0, 0, 0]	-999	PAL1	0	R1212P
1695.695	0.95	2183023	TEST_ORIENT	n/a	n/a	1	1	GATE	CHIEF	CHIEF	GATE	14	[0, 0, 0]	-999	PAL1	0	R1212P
1696.645	0.0	2183995	TEST_PROBE	n/a	wordpools/wordpool_EN.txt	1	1	GATE	CHIEF	CHIEF	GATE	14	[0, 0, 0]	-999	PAL1	0	R1212P
1696.645	1.837	2183995	REC_START	n/a	n/a	1	-999	n/a	CHIEF	n/a	n/a	14	[0, 0, 0]	-999	PAL1	0	R1212P
1698.482	3.18	2185876	REC_EVENT	1837	n/a	1	1	GATE	CHIEF	CHIEF	GATE	14	[0, 0, 0]	-999	PAL1	0	R1212P
1701.662	0.017	2189133	REC_END	n/a	n/a	1	-999	n/a	n/a	n/a	n/a	14	[0, 0, 0]	-999	PAL1	0	R1212P
1701.679	0.8	2189150	TEST_ORIENT	n/a	n/a	2	2	FLAG	FLEA	FLEA	FLAG	14	[0, 0, 0]	-999	PAL1	0	R1212P
1702.479	0.001	2189969	TEST_PROBE	n/a	wordpools/wordpool_EN.txt	2	2	FLAG	FLEA	FLEA	FLAG	14	[0, 0, 0]	-999	PAL1	0	R1212P
1702.48	2.119	2189970	REC_START	n/a	n/a	2	-999	n/a	FLEA	n/a	n/a	14	[0, 0, 0]	-999	PAL1	0	R1212P
1704.599	2.889	2192140	REC_EVENT	2119	n/a	2	2	FLAG	FLEA	FLEA	FLAG	14	[0, 0, 0]	-999	PAL1	0	R1212P
1707.488	0.009	2195098	REC_END	n/a	n/a	2	-999	n/a	n/a	n/a	n/a	14	[0, 0, 0]	-999	PAL1	0	R1212P
1707.497	0.918	2195107	TEST_ORIENT	n/a	n/a	5	3	BOWL	n/a	BAG	BOWL	14	[0, 0, 0]	-999	PAL1	0	R1212P
1708.415	0.0	2196047	TEST_PROBE	n/a	wordpools/wordpool_EN.txt	5	3	BOWL	n/a	BAG	BOWL	14	[0, 0, 0]	-999	PAL1	0	R1212P
1708.415	2.908	2196047	REC_START	n/a	n/a	5	-999	n/a	n/a	n/a	n/a	14	[0, 0, 0]	-999	PAL1	0	R1212P
1711.323	2.109	2199025	REC_EVENT	2908	n/a	5	3	BOWL	<>	BAG	BOWL	14	[0, 0, 0]	-999	PAL1	0	R1212P
1713.432	0.016	2201184	REC_END	n/a	n/a	5	-999	n/a	n/a	n/a	n/a	14	[0, 0, 0]	-999	PAL1	0	R1212P
1713.448	1.017	2201201	TEST_ORIENT	n/a	n/a	4	4	SPONGE	DART	SPONGE	DART	14	[0, 0, 0]	-999	PAL1	0	R1212P
1714.465	0.001	2202242	TEST_PROBE	n/a	wordpools/wordpool_EN.txt	4	4	SPONGE	DART	SPONGE	DART	14	[0, 0, 0]	-999	PAL1	0	R1212P
1714.466	1.792	2202243	REC_START	n/a	n/a	4	-999	n/a	DART	n/a	n/a	14	[0, 0, 0]	-999	PAL1	0	R1212P
1716.258	3.224	2204078	REC_EVENT	1792	n/a	4	4	SPONGE	DART	SPONGE	DART	14	[0, 0, 0]	-999	PAL1	0	R1212P
1719.482	0.017	2207379	REC_END	n/a	n/a	4	-999	n/a	n/a	n/a	n/a	14	[0, 0, 0]	-999	PAL1	0	R1212P
1719.499	1.017	2207397	TEST_ORIENT	n/a	n/a	3	5	JAIL	JAIL	GRAPE	JAIL	14	[0, 0, 0]	-999	PAL1	0	R1212P
1720.516	0.001	2208438	TEST_PROBE	n/a	wordpools/wordpool_EN.txt	3	5	JAIL	JAIL	GRAPE	JAIL	14	[0, 0, 0]	-999	PAL1	0	R1212P
1720.517	3.127	2208439	REC_START	n/a	n/a	3	-999	n/a	JAIL	n/a	n/a	14	[0, 0, 0]	-999	PAL1	0	R1212P
1723.644	1.889	2211641	REC_EVENT	3127	n/a	3	5	JAIL	JAIL	GRAPE	JAIL	14	[0, 0, 0]	-999	PAL1	0	R1212P
1725.533	0.017	2213575	REC_END	n/a	n/a	3	-999	n/a	n/a	n/a	n/a	14	[0, 0, 0]	-999	PAL1	0	R1212P
1725.55	1.017	2213593	TEST_ORIENT	n/a	n/a	6	6	LOCK	n/a	PIG	LOCK	14	[0, 0, 0]	-999	PAL1	0	R1212P
1726.567	0.001	2214634	TEST_PROBE	n/a	wordpools/wordpool_EN.txt	6	6	LOCK	n/a	PIG	LOCK	14	[0, 0, 0]	-999	PAL1	0	R1212P
1726.568	3.112	2214635	REC_START	n/a	n/a	6	-999	n/a	n/a	n/a	n/a	14	[0, 0, 0]	-999	PAL1	0	R1212P
1729.68	1.897	2217822	REC_EVENT	3112	n/a	6	6	LOCK	<>	PIG	LOCK	14	[0, 0, 0]	-999	PAL1	0	R1212P
1731.577	0.0	2219764	REC_END	n/a	n/a	6	-999	n/a	n/a	n/a	n/a	14	[0, 0, 0]	-999	PAL1	0	R1212P
