onset	duration	sample	trial_type	response_time	serialpos	probepos	probe_word	resp_word	study_1	study_2	list	test	answer	experiment	session	subject
0.0	0.0	123260	INSTRUCT_VIDEO_ON	n/a	-999	-999	n/a	n/a	n/a	n/a	-999	[0, 0, 0]	-999	PAL1	0	R1207J
0.0	5.446	123260	INSTRUCT_VIDEO_OFF	n/a	-999	-999	n/a	n/a	n/a	n/a	-999	[0, 0, 0]	-999	PAL1	0	R1207J
5.446	0.0	128706	SESS_START	n/a	-999	-999	n/a	n/a	n/a	n/a	-999	[0, 0, 0]	-999	PAL1	0	R1207J
5.446	90.235	128706	MIC_TEST	n/a	-999	-999	n/a	n/a	n/a	n/a	-999	[0, 0, 0]	-999	PAL1	0	R1207J
95.681	12.795	218941	PRACTICE_TRIAL	n/a	-999	-999	n/a	n/a	n/a	n/a	-1	[0, 0, 0]	-999	PAL1	0	R1207J
108.476	0.007	231736	ENCODING_START	n/a	-999	-999	n/a	n/a	n/a	n/a	-1	[0, 0, 0]	-999	PAL1	0	R1207J
108.483	0.265	231743	PRACTICE_ORIENT	n/a	1	3	TONGUE	WAGON	TONGUE	WAGON	-1	[0, 0, 0]	-999	PAL1	0	R1207J
108.748	0.635	232008	PRACTICE_ORIENT_OFF	n/a	1	3	TONGUE	WAGON	TONGUE	WAGON	-1	[0, 0, 0]	-999	PAL1	0	R1207J
109.383	4.017	232643	PRACTICE_PAIR	n/a	1	3	TONGUE	WAGON	TONGUE	WAGON	-1	[0, 0, 0]	-999	PAL1	0	R1207J
113.4	1.017	236660	PRACTICE_PAIR_OFF	n/a	1	3	TONGUE	WAGON	TONGUE	WAGON	-1	[0, 0, 0]	-999	PAL1	0	R1207J
114.417	0.266	237677	PRACTICE_ORIENT	n/a	2	2	CHEST	WATCH	CHEST	WATCH	-1	[0, 0, 0]	-999	PAL1	0	R1207J
114.683	0.568	237943	PRACTICE_ORIENT_OFF	n/a	2	2	CHEST	WATCH	CHEST	WATCH	-1	[0, 0, 0]	-999	PAL1	0	R1207J
115.251	4.016	238511	PRACTICE_PAIR	n/a	2	2	CHEST	WATCH	CHEST	WATCH	-1	[0, 0, 0]	-999	PAL1	0	R1207J
119.267	1.017	242527	PRACTICE_PAIR_OFF	n/a	2	2	CHEST	WATCH	CHEST	WATCH	-1	[0, 0, 0]	-999	PAL1	0	R1207J
120.284	0.266	243544	PRACTICE_ORIENT	n/a	3	1	CAMEL	IRON	CAMEL	ATTIC	-1	[0, 0, 0]	-999	PAL1	0	R1207J
120.55	0.701	243810	PRACTICE_ORIENT_OFF	n/a	3	1	CAMEL	IRON	CAMEL	ATTIC	-1	[0, 0, 0]	-999	PAL1	0	R1207J
121.251	4.018	244511	PRACTICE_PAIR	n/a	3	1	CAMEL	IRON	CAMEL	ATTIC	-1	[0, 0, 0]	-999	PAL1	0	R1207J
125.269	1.016	248529	PRACTICE_PAIR_OFF	n/a	3	1	CAMEL	IRON	CAMEL	ATTIC	-1	[0, 0, 0]	-999	PAL1	0	R1207J
126.285	0.266	249545	PRACTICE_ORIENT	n/a	4	6	COTTON	WAGON	BEAM	COTTON	-1	[0, 0, 0]	-999	PAL1	0	R1207J
126.551	0.601	249811	PRACTICE_ORIENT_OFF	n/a	4	6	COTTON	WAGON	BEAM	COTTON	-1	[0, 0, 0]	-999	PAL1	0	R1207J
127.152	4.017	250412	PRACTICE_PAIR	n/a	4	6	COTTON	WAGON	BEAM	COTTON	-1	[0, 0, 0]	-999	PAL1	0	R1207J
131.169	1.017	254428	PRACTICE_PAIR_OFF	n/a	4	6	COTTON	WAGON	BEAM	COTTON	-1	[0, 0, 0]	-999	PAL1	0	R1207J
132.186	0.267	255445	PRACTICE_ORIENT	n/a	5	5	FLOOD	WATCH	RHINO	FLOOD	-1	[0, 0, 0]	-999	PAL1	0	R1207J
132.453	0.549	255712	PRACTICE_ORIENT_OFF	n/a	5	5	FLOOD	WATCH	RHINO	FLOOD	-1	[0, 0, 0]	-999	PAL1	0	R1207J
133.002	4.017	256261	PRACTICE_PAIR	n/a	5	5	FLOOD	WATCH	RHINO	FLOOD	-1	[0, 0, 0]	-999	PAL1	0	R1207J
137.019	1.017	260278	PRACTICE_PAIR_OFF	n/a	5	5	FLOOD	WATCH	RHINO	FLOOD	-1	[0, 0, 0]	-999	PAL1	0	R1207J
138.036	0.251	261295	PRACTICE_ORIENT	n/a	6	4	IRON	CHEST	RING	IRON	-1	[0, 0, 0]	-999	PAL1	0	R1207J
138.287	0.615	261546	PRACTICE_ORIENT_OFF	n/a	6	4	IRON	CHEST	RING	IRON	-1	[0, 0, 0]	-999	PAL1	0	R1207J
138.902	4.018	262161	PRACTICE_PAIR	n/a	6	4	IRON	CHEST	RING	IRON	-1	[0, 0, 0]	-999	PAL1	0	R1207J
142.92	1.0	266179	PRACTICE_PAIR_OFF	n/a	6	4	IRON	CHEST	RING	IRON	-1	[0, 0, 0]	-999	PAL1	0	R1207J
143.92	0.0	267179	ENCODING_END	n/a	-999	-999	n/a	n/a	n/a	n/a	-1	[0, 0, 0]	-999	PAL1	0	R1207J
143.92	0.001	267179	MATH_START	n/a	-999	-999	n/a	n/a	n/a	n/a	-1	[0, 0, 0]	-999	PAL1	0	R1207J
143.921	0.016	267180	START	n/a	-999	-999	n/a	n/a	n/a	n/a	-1	[-999, -999, -999]	-999	PAL1	0	R1207J
143.937	3.884	267196	PROB	3858	-999	-999	n/a	n/a	n/a	n/a	-1	[3, 6, 2]	11	PAL1	0	R1207J
147.821	3.05	271080	PROB	3014	-999	-999	n/a	n/a	n/a	n/a	-1	[5, 6, 1]	12	PAL1	0	R1207J
150.871	3.585	274130	PROB	3549	-999	-999	n/a	n/a	n/a	n/a	-1	[6, 9, 3]	18	PAL1	0	R1207J
154.456	8.1	277715	PROB	8066	-999	-999	n/a	n/a	n/a	n/a	-1	[6, 7, 8]	21	PAL1	0	R1207J
162.556	3.656	285815	PROB	3656	-999	-999	n/a	n/a	n/a	n/a	-1	[9, 5, 3]	18	PAL1	0	R1207J
166.212	0.012	289471	STOP	n/a	-999	-999	n/a	n/a	n/a	n/a	-1	[-999, -999, -999]	-999	PAL1	0	R1207J
166.224	0.001	289483	MATH_END	n/a	-999	-999	n/a	n/a	n/a	n/a	-1	[0, 0, 0]	-999	PAL1	0	R1207J
166.225	0.016	289484	RECALL_START	n/a	-999	-999	n/a	n/a	n/a	n/a	-1	[0, 0, 0]	-999	PAL1	0	R1207J
166.241	0.266	289500	PRACTICE_RETRIEVAL_ORIENT	n/a	3	1	CAMEL	IRON	CAMEL	ATTIC	-1	[0, 0, 0]	-999	PAL1	0	R1207J
166.507	0.751	289766	PRACTICE_RETRIEVAL_ORIENT_OFF	n/a	3	1	CAMEL	IRON	CAMEL	ATTIC	-1	[0, 0, 0]	-999	PAL1	0	R1207J
167.258	0.001	290517	PRACTICE_PROBE	n/a	3	1	CAMEL	IRON	CAMEL	ATTIC	-1	[0, 0, 0]	-999	PAL1	0	R1207J
167.259	2.33	290518	REC_START	n/a	3	-999	n/a	IRON	n/a	n/a	-1	[0, 0, 0]	-999	PAL1	0	R1207J
169.589	1.686	292848	REC_EVENT	2330	3	1	CAMEL	IRON	CAMEL	ATTIC	-1	[0, 0, 0]	-999	PAL1	0	R1207J
171.275	1.0	294534	PROBE_OFF	n/a	3	-999	n/a	n/a	n/a	n/a	-1	[0, 0, 0]	-999	PAL1	0	R1207J
172.275	0.017	295534	REC_END	n/a	3	-999	n/a	n/a	n/a	n/a	-1	[0, 0, 0]	-999	PAL1	0	R1207J
172.292	0.265	295551	PRACTICE_RETRIEVAL_ORIENT	n/a	2	2	CHEST	WATCH	CHEST	WATCH	-1	[0, 0, 0]	-999	PAL1	0	R1207J
172.557	0.668	295816	PRACTICE_RETRIEVAL_ORIENT_OFF	n/a	2	2	CHEST	WATCH	CHEST	WATCH	-1	[0, 0, 0]	-999	PAL1	0	R1207J
173.225	0.001	296484	PRACTICE_PROBE	n/a	2	2	CHEST	WATCH	CHEST	WATCH	-1	[0, 0, 0]	-999	PAL1	0	R1207J
173.226	0.735	296485	REC_START	n/a	2	-999	n/a	WATCH	n/a	n/a	-1	[0, 0, 0]	-999	PAL1	0	R1207J
173.961	1.729	297220	REC_EVENT	735	2	2	CHEST	<>	CHEST	WATCH	-1	[0, 0, 0]	-999	PAL1	0	R1207J
175.69	1.552	298949	REC_EVENT	2464	2	2	CHEST	WATCH	CHEST	WATCH	-1	[0, 0, 0]	-999	PAL1	0	R1207J
177.242	1.0	300501	PROBE_OFF	n/a	2	-999	n/a	n/a	n/a	n/a	-1	[0, 0, 0]	-999	PAL1	0	R1207J
178.242	0.017	301501	REC_END	n/a	2	-999	n/a	n/a	n/a	n/a	-1	[0, 0, 0]	-999	PAL1	0	R1207J
178.259	0.266	301518	PRACTICE_RETRIEVAL_ORIENT	n/a	1	3	TONGUE	WAGON	TONGUE	WAGON	-1	[0, 0, 0]	-999	PAL1	0	R1207J
178.525	0.751	301784	PRACTICE_RETRIEVAL_ORIENT_OFF	n/a	1	3	TONGUE	WAGON	TONGUE	WAGON	-1	[0, 0, 0]	-999	PAL1	0	R1207J
179.276	0.0	302535	PRACTICE_PROBE	n/a	1	3	TONGUE	WAGON	TONGUE	WAGON	-1	[0, 0, 0]	-999	PAL1	0	R1207J
179.276	3.43	302535	REC_START	n/a	1	-999	n/a	WAGON	n/a	n/a	-1	[0, 0, 0]	-999	PAL1	0	R1207J
182.706	0.587	305965	REC_EVENT	3430	1	3	TONGUE	WAGON	TONGUE	WAGON	-1	[0, 0, 0]	-999	PAL1	0	R1207J
183.293	1.001	306552	PROBE_OFF	n/a	1	-999	n/a	n/a	n/a	n/a	-1	[0, 0, 0]	-999	PAL1	0	R1207J
184.294	0.016	307553	REC_END	n/a	1	-999	n/a	n/a	n/a	n/a	-1	[0, 0, 0]	-999	PAL1	0	R1207J
184.31	0.265	307569	PRACTICE_RETRIEVAL_ORIENT	n/a	6	4	IRON	CHEST	RING	IRON	-1	[0, 0, 0]	-999	PAL1	0	R1207J
184.575	0.652	307834	PRACTICE_RETRIEVAL_ORIENT_OFF	n/a	6	4	IRON	CHEST	RING	IRON	-1	[0, 0, 0]	-999	PAL1	0	R1207J
185.227	0.0	308486	REC_START	n/a	6	-999	n/a	CHEST	n/a	n/a	-1	[0, 0, 0]	-999	PAL1	0	R1207J
185.227	4.017	308486	PRACTICE_PROBE	n/a	6	4	IRON	CHEST	RING	IRON	-1	[0, 0, 0]	-999	PAL1	0	R1207J
189.244	0.508	312503	PROBE_OFF	n/a	6	-999	n/a	n/a	n/a	n/a	-1	[0, 0, 0]	-999	PAL1	0	R1207J
189.752	0.492	313011	REC_EVENT	4525	6	4	IRON	CHEST	RING	IRON	-1	[0, 0, 0]	-999	PAL1	0	R1207J
190.244	0.016	313503	REC_END	n/a	6	-999	n/a	n/a	n/a	n/a	-1	[0, 0, 0]	-999	PAL1	0	R1207J
190.26	0.266	313519	PRACTICE_RETRIEVAL_ORIENT	n/a	5	5	FLOOD	WATCH	RHINO	FLOOD	-1	[0, 0, 0]	-999	PAL1	0	R1207J
190.526	0.668	313785	PRACTICE_RETRIEVAL_ORIENT_OFF	n/a	5	5	FLOOD	WATCH	RHINO	FLOOD	-1	[0, 0, 0]	-999	PAL1	0	R1207J
191.194	0.001	314453	PRACTICE_PROBE	n/a	5	5	FLOOD	WATCH	RHINO	FLOOD	-1	[0, 0, 0]	-999	PAL1	0	R1207J
191.195	3.057	314454	REC_START	n/a	5	-999	n/a	WATCH	n/a	n/a	-1	[0, 0, 0]	-999	PAL1	0	R1207J
194.252	0.959	317511	REC_EVENT	3057	5	5	FLOOD	WATCH	RHINO	FLOOD	-1	[0, 0, 0]	-999	PAL1	0	R1207J
195.211	1.001	318470	PROBE_OFF	n/a	5	-999	n/a	n/a	n/a	n/a	-1	[0, 0, 0]	-999	PAL1	0	R1207J
196.212	0.016	319471	REC_END	n/a	5	-999	n/a	n/a	n/a	n/a	-1	[0, 0, 0]	-999	PAL1	0	R1207J
196.228	0.266	319487	PRACTICE_RETRIEVAL_ORIENT	n/a	4	6	COTTON	WAGON	BEAM	COTTON	-1	[0, 0, 0]	-999	PAL1	0	R1207J
196.494	0.517	319753	PRACTICE_RETRIEVAL_ORIENT_OFF	n/a	6	6	COTTON	WAGON	BEAM	COTTON	-1	[0, 0, 0]	-999	PAL1	0	R1207J
197.011	0.0	320270	REC_START	n/a	4	-999	n/a	WAGON	n/a	n/a	-1	[0, 0, 0]	-999	PAL1	0	R1207J
197.011	4.016	320270	PRACTICE_PROBE	n/a	4	6	COTTON	WAGON	BEAM	COTTON	-1	[0, 0, 0]	-999	PAL1	0	R1207J
201.027	0.265	324286	PROBE_OFF	n/a	4	-999	n/a	n/a	n/a	n/a	-1	[0, 0, 0]	-999	PAL1	0	R1207J
201.292	0.735	324551	REC_EVENT	4281	4	6	COTTON	WAGON	BEAM	COTTON	-1	[0, 0, 0]	-999	PAL1	0	R1207J
202.027	0.012	325286	REC_END	n/a	4	-999	n/a	n/a	n/a	n/a	-1	[0, 0, 0]	-999	PAL1	0	R1207J
202.039	14.591	325298	RECALL_END	n/a	-999	-999	n/a	n/a	n/a	n/a	-1	[0, 0, 0]	-999	PAL1	0	R1207J
216.63	10.929	339889	TRIAL	n/a	-999	-999	n/a	n/a	n/a	n/a	1	[0, 0, 0]	-999	PAL1	0	R1207J
227.559	0.006	350818	ENCODING_START	n/a	-999	-999	n/a	n/a	n/a	n/a	1	[0, 0, 0]	-999	PAL1	0	R1207J
227.565	0.266	350824	STUDY_ORIENT	n/a	1	5	HAT	n/a	HAT	OAR	1	[0, 0, 0]	-999	PAL1	0	R1207J
227.831	0.635	351090	STUDY_ORIENT_OFF	n/a	1	5	HAT	n/a	HAT	OAR	1	[0, 0, 0]	-999	PAL1	0	R1207J
228.466	4.017	351725	STUDY_PAIR	n/a	1	5	HAT	n/a	HAT	OAR	1	[0, 0, 0]	-999	PAL1	0	R1207J
232.483	1.016	355742	PAIR_OFF	n/a	1	5	HAT	n/a	HAT	OAR	1	[0, 0, 0]	-999	PAL1	0	R1207J
233.499	0.266	356758	STUDY_ORIENT	n/a	2	2	BREAD	EGG	BREAD	MILK	1	[0, 0, 0]	-999	PAL1	0	R1207J
233.765	0.618	357024	STUDY_ORIENT_OFF	n/a	2	2	BREAD	EGG	BREAD	MILK	1	[0, 0, 0]	-999	PAL1	0	R1207J
234.383	4.018	357642	STUDY_PAIR	n/a	2	2	BREAD	EGG	BREAD	MILK	1	[0, 0, 0]	-999	PAL1	0	R1207J
238.401	1.016	361660	PAIR_OFF	n/a	2	2	BREAD	EGG	BREAD	MILK	1	[0, 0, 0]	-999	PAL1	0	R1207J
239.417	0.266	362676	STUDY_ORIENT	n/a	3	3	FLAG	n/a	FLAG	STRING	1	[0, 0, 0]	-999	PAL1	0	R1207J
239.683	0.651	362942	STUDY_ORIENT_OFF	n/a	3	3	FLAG	n/a	FLAG	STRING	1	[0, 0, 0]	-999	PAL1	0	R1207J
240.334	4.017	363593	STUDY_PAIR	n/a	3	3	FLAG	n/a	FLAG	STRING	1	[0, 0, 0]	-999	PAL1	0	R1207J
244.351	1.017	367610	PAIR_OFF	n/a	3	3	FLAG	n/a	FLAG	STRING	1	[0, 0, 0]	-999	PAL1	0	R1207J
245.368	0.266	368627	STUDY_ORIENT	n/a	4	4	STRAW	ROOM	STRAW	ROOM	1	[0, 0, 0]	-999	PAL1	0	R1207J
245.634	0.618	368893	STUDY_ORIENT_OFF	n/a	4	4	STRAW	ROOM	STRAW	ROOM	1	[0, 0, 0]	-999	PAL1	0	R1207J
246.252	4.017	369511	STUDY_PAIR	n/a	4	4	STRAW	ROOM	STRAW	ROOM	1	[0, 0, 0]	-999	PAL1	0	R1207J
250.269	1.016	373528	PAIR_OFF	n/a	4	4	STRAW	ROOM	STRAW	ROOM	1	[0, 0, 0]	-999	PAL1	0	R1207J
251.285	0.266	374544	STUDY_ORIENT	n/a	5	1	SLUSH	STRAW	SLUSH	BEAR	1	[0, 0, 0]	-999	PAL1	0	R1207J
251.551	0.701	374810	STUDY_ORIENT_OFF	n/a	5	1	SLUSH	STRAW	SLUSH	BEAR	1	[0, 0, 0]	-999	PAL1	0	R1207J
252.252	4.017	375511	STUDY_PAIR	n/a	5	1	SLUSH	STRAW	SLUSH	BEAR	1	[0, 0, 0]	-999	PAL1	0	R1207J
256.269	1.017	379528	PAIR_OFF	n/a	5	1	SLUSH	STRAW	SLUSH	BEAR	1	[0, 0, 0]	-999	PAL1	0	R1207J
257.286	0.266	380545	STUDY_ORIENT	n/a	6	6	BEAN	n/a	EGG	BEAN	1	[0, 0, 0]	-999	PAL1	0	R1207J
257.552	0.651	380811	STUDY_ORIENT_OFF	n/a	6	6	BEAN	n/a	EGG	BEAN	1	[0, 0, 0]	-999	PAL1	0	R1207J
258.203	4.017	381462	STUDY_PAIR	n/a	6	6	BEAN	n/a	EGG	BEAN	1	[0, 0, 0]	-999	PAL1	0	R1207J
262.22	1.0	385479	PAIR_OFF	n/a	6	6	BEAN	n/a	EGG	BEAN	1	[0, 0, 0]	-999	PAL1	0	R1207J
263.22	0.0	386479	ENCODING_END	n/a	-999	-999	n/a	n/a	n/a	n/a	1	[0, 0, 0]	-999	PAL1	0	R1207J
263.22	0.0	386479	MATH_START	n/a	-999	-999	n/a	n/a	n/a	n/a	1	[0, 0, 0]	-999	PAL1	0	R1207J
263.22	0.017	386479	START	n/a	-999	-999	n/a	n/a	n/a	n/a	1	[-999, -999, -999]	-999	PAL1	0	R1207J
263.237	5.533	386496	PROB	5497	-999	-999	n/a	n/a	n/a	n/a	1	[8, 5, 6]	19	PAL1	0	R1207J
268.77	4.552	392029	PROB	4518	-999	-999	n/a	n/a	n/a	n/a	1	[5, 6, 9]	20	PAL1	0	R1207J
273.322	3.95	396581	PROB	3917	-999	-999	n/a	n/a	n/a	n/a	1	[5, 9, 9]	21	PAL1	0	R1207J
277.272	4.717	400531	PROB	4687	-999	-999	n/a	n/a	n/a	n/a	1	[8, 1, 7]	16	PAL1	0	R1207J
281.989	5.115	405248	PROB	5115	-999	-999	n/a	n/a	n/a	n/a	1	[5, 6, 6]	17	PAL1	0	R1207J
287.104	0.02	410363	STOP	n/a	-999	-999	n/a	n/a	n/a	n/a	1	[-999, -999, -999]	-999	PAL1	0	R1207J
287.124	0.0	410383	MATH_END	n/a	-999	-999	n/a	n/a	n/a	n/a	1	[0, 0, 0]	-999	PAL1	0	R1207J
287.124	0.017	410383	RECALL_START	n/a	-999	-999	n/a	n/a	n/a	n/a	1	[0, 0, 0]	-999	PAL1	0	R1207J
287.141	0.266	410400	TEST_ORIENT	n/a	5	1	SLUSH	STRAW	SLUSH	BEAR	1	[0, 0, 0]	-999	PAL1	0	R1207J
287.407	0.549	410666	RETRIEVAL_ORIENT_OFF	n/a	-999	-999	n/a	n/a	n/a	n/a	1	[0, 0, 0]	-999	PAL1	0	R1207J
287.956	0.001	411215	TEST_PROBE	n/a	5	1	SLUSH	STRAW	SLUSH	BEAR	1	[0, 0, 0]	-999	PAL1	0	R1207J
287.957	2.296	411216	REC_START	n/a	5	-999	n/a	STRAW	n/a	n/a	1	[0, 0, 0]	-999	PAL1	0	R1207J
290.253	1.72	413512	REC_EVENT	2296	5	1	SLUSH	STRAW	SLUSH	BEAR	1	[0, 0, 0]	-999	PAL1	0	R1207J
291.973	1.0	415232	PROBE_OFF	n/a	5	-999	n/a	n/a	n/a	n/a	1	[0, 0, 0]	-999	PAL1	0	R1207J
292.973	0.017	416232	REC_END	n/a	5	-999	n/a	n/a	n/a	n/a	1	[0, 0, 0]	-999	PAL1	0	R1207J
292.99	0.268	416249	TEST_ORIENT	n/a	2	2	BREAD	EGG	BREAD	MILK	1	[0, 0, 0]	-999	PAL1	0	R1207J
293.258	0.616	416517	RETRIEVAL_ORIENT_OFF	n/a	5	-999	n/a	n/a	n/a	n/a	1	[0, 0, 0]	-999	PAL1	0	R1207J
293.874	0.0	417133	TEST_PROBE	n/a	2	2	BREAD	EGG	BREAD	MILK	1	[0, 0, 0]	-999	PAL1	0	R1207J
293.874	2.65	417133	REC_START	n/a	2	-999	n/a	EGG	n/a	n/a	1	[0, 0, 0]	-999	PAL1	0	R1207J
296.524	1.367	419783	REC_EVENT	2650	2	2	BREAD	EGG	BREAD	MILK	1	[0, 0, 0]	-999	PAL1	0	R1207J
297.891	1.0	421150	PROBE_OFF	n/a	2	-999	n/a	n/a	n/a	n/a	1	[0, 0, 0]	-999	PAL1	0	R1207J
298.891	0.016	422150	REC_END	n/a	2	-999	n/a	n/a	n/a	n/a	1	[0, 0, 0]	-999	PAL1	0	R1207J
298.907	0.268	422166	TEST_ORIENT	n/a	3	3	FLAG	n/a	FLAG	STRING	1	[0, 0, 0]	-999	PAL1	0	R1207J
299.175	0.616	422434	RETRIEVAL_ORIENT_OFF	n/a	2	-999	n/a	n/a	n/a	n/a	1	[0, 0, 0]	-999	PAL1	0	R1207J
299.791	0.0	423050	TEST_PROBE	n/a	3	3	FLAG	n/a	FLAG	STRING	1	[0, 0, 0]	-999	PAL1	0	R1207J
299.791	3.383	423050	REC_START	n/a	3	-999	n/a	n/a	n/a	n/a	1	[0, 0, 0]	-999	PAL1	0	R1207J
303.174	0.634	426433	REC_EVENT	3383	3	3	FLAG	<>	FLAG	STRING	1	[0, 0, 0]	-999	PAL1	0	R1207J
303.808	1.001	427067	PROBE_OFF	n/a	3	-999	n/a	n/a	n/a	n/a	1	[0, 0, 0]	-999	PAL1	0	R1207J
304.809	0.016	428068	REC_END	n/a	3	-999	n/a	n/a	n/a	n/a	1	[0, 0, 0]	-999	PAL1	0	R1207J
304.825	0.267	428084	TEST_ORIENT	n/a	4	4	STRAW	ROOM	STRAW	ROOM	1	[0, 0, 0]	-999	PAL1	0	R1207J
305.092	0.633	428351	RETRIEVAL_ORIENT_OFF	n/a	3	-999	n/a	n/a	n/a	n/a	1	[0, 0, 0]	-999	PAL1	0	R1207J
305.725	0.001	428984	TEST_PROBE	n/a	4	4	STRAW	ROOM	STRAW	ROOM	1	[0, 0, 0]	-999	PAL1	0	R1207J
305.726	1.403	428985	REC_START	n/a	4	-999	n/a	ROOM	n/a	n/a	1	[0, 0, 0]	-999	PAL1	0	R1207J
307.129	2.613	430388	REC_EVENT	1403	4	4	STRAW	ROOM	STRAW	ROOM	1	[0, 0, 0]	-999	PAL1	0	R1207J
309.742	1.001	433001	PROBE_OFF	n/a	4	-999	n/a	n/a	n/a	n/a	1	[0, 0, 0]	-999	PAL1	0	R1207J
310.743	0.016	434002	REC_END	n/a	4	-999	n/a	n/a	n/a	n/a	1	[0, 0, 0]	-999	PAL1	0	R1207J
310.759	0.267	434018	TEST_ORIENT	n/a	1	5	HAT	n/a	HAT	OAR	1	[0, 0, 0]	-999	PAL1	0	R1207J
311.026	0.75	434285	RETRIEVAL_ORIENT_OFF	n/a	4	-999	n/a	n/a	n/a	n/a	1	[0, 0, 0]	-999	PAL1	0	R1207J
311.776	0.001	435035	TEST_PROBE	n/a	1	5	HAT	n/a	HAT	OAR	1	[0, 0, 0]	-999	PAL1	0	R1207J
311.777	4.016	435036	REC_START	n/a	1	-999	n/a	n/a	n/a	n/a	1	[0, 0, 0]	-999	PAL1	0	R1207J
315.793	0.758	439052	PROBE_OFF	n/a	1	-999	n/a	n/a	n/a	n/a	1	[0, 0, 0]	-999	PAL1	0	R1207J
316.551	0.242	439810	REC_EVENT	4774	1	5	HAT	<>	HAT	OAR	1	[0, 0, 0]	-999	PAL1	0	R1207J
316.793	0.017	440052	REC_END	n/a	1	-999	n/a	n/a	n/a	n/a	1	[0, 0, 0]	-999	PAL1	0	R1207J
316.81	0.267	440069	TEST_ORIENT	n/a	6	6	BEAN	n/a	EGG	BEAN	1	[0, 0, 0]	-999	PAL1	0	R1207J
317.077	0.617	440336	RETRIEVAL_ORIENT_OFF	n/a	1	-999	n/a	n/a	n/a	n/a	1	[0, 0, 0]	-999	PAL1	0	R1207J
317.694	0.0	440953	TEST_PROBE	n/a	6	6	BEAN	n/a	EGG	BEAN	1	[0, 0, 0]	-999	PAL1	0	R1207J
317.694	4.016	440953	REC_START	n/a	6	-999	n/a	n/a	n/a	n/a	1	[0, 0, 0]	-999	PAL1	0	R1207J
321.71	0.148	444969	PROBE_OFF	n/a	6	-999	n/a	n/a	n/a	n/a	1	[0, 0, 0]	-999	PAL1	0	R1207J
321.858	0.852	445117	REC_EVENT	4164	6	6	BEAN	<>	EGG	BEAN	1	[0, 0, 0]	-999	PAL1	0	R1207J
322.71	0.006	445969	REC_END	n/a	6	-999	n/a	n/a	n/a	n/a	1	[0, 0, 0]	-999	PAL1	0	R1207J
322.716	4.63	445975	RECALL_END	n/a	-999	-999	n/a	n/a	n/a	n/a	1	[0, 0, 0]	-999	PAL1	0	R1207J
327.346	10.929	450605	TRIAL	n/a	-999	-999	n/a	n/a	n/a	n/a	2	[0, 0, 0]	-999	PAL1	0	R1207J
338.275	0.005	461534	ENCODING_START	n/a	-999	-999	n/a	n/a	n/a	n/a	2	[0, 0, 0]	-999	PAL1	0	R1207J
338.28	0.266	461539	STUDY_ORIENT	n/a	1	1	SHIRT	NO	BATH	SHIRT	2	[0, 0, 0]	-999	PAL1	0	R1207J
338.546	0.551	461805	STUDY_ORIENT_OFF	n/a	1	1	SHIRT	NO	BATH	SHIRT	2	[0, 0, 0]	-999	PAL1	0	R1207J
339.097	4.018	462356	STUDY_PAIR	n/a	1	1	SHIRT	NO	BATH	SHIRT	2	[0, 0, 0]	-999	PAL1	0	R1207J
343.115	1.016	466374	PAIR_OFF	n/a	1	1	SHIRT	NO	BATH	SHIRT	2	[0, 0, 0]	-999	PAL1	0	R1207J
344.131	0.267	467390	STUDY_ORIENT	n/a	2	4	SHIP	n/a	PHONE	SHIP	2	[0, 0, 0]	-999	PAL1	0	R1207J
344.398	0.583	467657	STUDY_ORIENT_OFF	n/a	2	4	SHIP	n/a	PHONE	SHIP	2	[0, 0, 0]	-999	PAL1	0	R1207J
344.981	4.017	468240	STUDY_PAIR	n/a	2	4	SHIP	n/a	PHONE	SHIP	2	[0, 0, 0]	-999	PAL1	0	R1207J
348.998	1.016	472257	PAIR_OFF	n/a	2	4	SHIP	n/a	PHONE	SHIP	2	[0, 0, 0]	-999	PAL1	0	R1207J
350.014	0.268	473273	STUDY_ORIENT	n/a	3	5	WALL	CLOWN	CLOWN	WALL	2	[0, 0, 0]	-999	PAL1	0	R1207J
350.282	0.766	473541	STUDY_ORIENT_OFF	n/a	3	5	WALL	CLOWN	CLOWN	WALL	2	[0, 0, 0]	-999	PAL1	0	R1207J
351.048	4.017	474307	STUDY_PAIR	n/a	3	5	WALL	CLOWN	CLOWN	WALL	2	[0, 0, 0]	-999	PAL1	0	R1207J
355.065	1.017	478324	PAIR_OFF	n/a	3	5	WALL	CLOWN	CLOWN	WALL	2	[0, 0, 0]	-999	PAL1	0	R1207J
356.082	0.251	479341	STUDY_ORIENT	n/a	4	2	CLIFF	NO	CLIFF	DART	2	[0, 0, 0]	-999	PAL1	0	R1207J
356.333	0.516	479592	STUDY_ORIENT_OFF	n/a	4	2	CLIFF	NO	CLIFF	DART	2	[0, 0, 0]	-999	PAL1	0	R1207J
356.849	4.017	480108	STUDY_PAIR	n/a	4	2	CLIFF	NO	CLIFF	DART	2	[0, 0, 0]	-999	PAL1	0	R1207J
360.866	1.017	484125	PAIR_OFF	n/a	4	2	CLIFF	NO	CLIFF	DART	2	[0, 0, 0]	-999	PAL1	0	R1207J
361.883	0.267	485142	STUDY_ORIENT	n/a	5	3	BIRD	n/a	BIRD	ROCK	2	[0, 0, 0]	-999	PAL1	0	R1207J
362.15	0.733	485409	STUDY_ORIENT_OFF	n/a	5	3	BIRD	n/a	BIRD	ROCK	2	[0, 0, 0]	-999	PAL1	0	R1207J
362.883	4.017	486142	STUDY_PAIR	n/a	5	3	BIRD	n/a	BIRD	ROCK	2	[0, 0, 0]	-999	PAL1	0	R1207J
366.9	1.017	490159	PAIR_OFF	n/a	5	3	BIRD	n/a	BIRD	ROCK	2	[0, 0, 0]	-999	PAL1	0	R1207J
367.917	0.268	491176	STUDY_ORIENT	n/a	6	6	SEAT	n/a	BOAT	SEAT	2	[0, 0, 0]	-999	PAL1	0	R1207J
368.185	0.749	491444	STUDY_ORIENT_OFF	n/a	6	6	SEAT	n/a	BOAT	SEAT	2	[0, 0, 0]	-999	PAL1	0	R1207J
368.934	4.017	492193	STUDY_PAIR	n/a	6	6	SEAT	n/a	BOAT	SEAT	2	[0, 0, 0]	-999	PAL1	0	R1207J
372.951	1.0	496210	PAIR_OFF	n/a	6	6	SEAT	n/a	BOAT	SEAT	2	[0, 0, 0]	-999	PAL1	0	R1207J
373.951	0.0	497210	ENCODING_END	n/a	-999	-999	n/a	n/a	n/a	n/a	2	[0, 0, 0]	-999	PAL1	0	R1207J
373.951	0.001	497210	MATH_START	n/a	-999	-999	n/a	n/a	n/a	n/a	2	[0, 0, 0]	-999	PAL1	0	R1207J
373.952	0.016	497211	START	n/a	-999	-999	n/a	n/a	n/a	n/a	2	[-999, -999, -999]	-999	PAL1	0	R1207J
373.968	4.7	497227	PROB	4675	-999	-999	n/a	n/a	n/a	n/a	2	[2, 9, 6]	17	PAL1	0	R1207J
378.668	2.485	501927	PROB	2448	-999	-999	n/a	n/a	n/a	n/a	2	[7, 1, 1]	9	PAL1	0	R1207J
381.153	3.733	504412	PROB	3697	-999	-999	n/a	n/a	n/a	n/a	2	[1, 7, 8]	16	PAL1	0	R1207J
384.886	4.418	508145	PROB	4390	-999	-999	n/a	n/a	n/a	n/a	2	[6, 4, 7]	17	PAL1	0	R1207J
389.304	5.594	512563	PROB	5594	-999	-999	n/a	n/a	n/a	n/a	2	[3, 9, 4]	16	PAL1	0	R1207J
394.898	0.005	518157	STOP	n/a	-999	-999	n/a	n/a	n/a	n/a	2	[-999, -999, -999]	-999	PAL1	0	R1207J
394.903	0.001	518162	MATH_END	n/a	-999	-999	n/a	n/a	n/a	n/a	2	[0, 0, 0]	-999	PAL1	0	R1207J
394.904	0.016	518163	RECALL_START	n/a	-999	-999	n/a	n/a	n/a	n/a	2	[0, 0, 0]	-999	PAL1	0	R1207J
394.92	0.251	518179	TEST_ORIENT	n/a	1	1	SHIRT	NO	BATH	SHIRT	2	[0, 0, 0]	-999	PAL1	0	R1207J
395.171	0.566	518430	RETRIEVAL_ORIENT_OFF	n/a	-999	-999	n/a	n/a	n/a	n/a	2	[0, 0, 0]	-999	PAL1	0	R1207J
395.737	0.001	518996	TEST_PROBE	n/a	1	1	SHIRT	NO	BATH	SHIRT	2	[0, 0, 0]	-999	PAL1	0	R1207J
395.738	3.086	518997	REC_START	n/a	1	-999	n/a	NO	n/a	n/a	2	[0, 0, 0]	-999	PAL1	0	R1207J
398.824	0.657	522083	REC_EVENT	3086	1	1	SHIRT	WET	BATH	SHIRT	2	[0, 0, 0]	-999	PAL1	0	R1207J
399.481	0.273	522740	REC_EVENT	3743	1	1	SHIRT	NO	BATH	SHIRT	2	[0, 0, 0]	-999	PAL1	0	R1207J
399.754	0.786	523013	PROBE_OFF	n/a	1	-999	n/a	n/a	n/a	n/a	2	[0, 0, 0]	-999	PAL1	0	R1207J
400.54	0.215	523799	REC_EVENT	4802	1	1	SHIRT	<>	BATH	SHIRT	2	[0, 0, 0]	-999	PAL1	0	R1207J
400.755	0.016	524014	REC_END	n/a	1	-999	n/a	n/a	n/a	n/a	2	[0, 0, 0]	-999	PAL1	0	R1207J
400.771	0.267	524030	TEST_ORIENT	n/a	4	2	CLIFF	NO	CLIFF	DART	2	[0, 0, 0]	-999	PAL1	0	R1207J
401.038	0.7	524297	RETRIEVAL_ORIENT_OFF	n/a	1	-999	n/a	n/a	n/a	n/a	2	[0, 0, 0]	-999	PAL1	0	R1207J
401.738	0.001	524997	TEST_PROBE	n/a	4	2	CLIFF	NO	CLIFF	DART	2	[0, 0, 0]	-999	PAL1	0	R1207J
401.739	2.944	524998	REC_START	n/a	4	-999	n/a	NO	n/a	n/a	2	[0, 0, 0]	-999	PAL1	0	R1207J
404.683	0.724	527942	REC_EVENT	2944	4	2	CLIFF	NOSE	CLIFF	DART	2	[0, 0, 0]	-999	PAL1	0	R1207J
405.407	0.349	528666	REC_EVENT	3668	4	2	CLIFF	NO	CLIFF	DART	2	[0, 0, 0]	-999	PAL1	0	R1207J
405.756	1.0	529015	PROBE_OFF	n/a	4	-999	n/a	n/a	n/a	n/a	2	[0, 0, 0]	-999	PAL1	0	R1207J
406.756	0.016	530015	REC_END	n/a	4	-999	n/a	n/a	n/a	n/a	2	[0, 0, 0]	-999	PAL1	0	R1207J
406.772	0.267	530031	TEST_ORIENT	n/a	5	3	BIRD	n/a	BIRD	ROCK	2	[0, 0, 0]	-999	PAL1	0	R1207J
407.039	0.583	530298	RETRIEVAL_ORIENT_OFF	n/a	4	-999	n/a	n/a	n/a	n/a	2	[0, 0, 0]	-999	PAL1	0	R1207J
407.622	0.001	530881	TEST_PROBE	n/a	5	3	BIRD	n/a	BIRD	ROCK	2	[0, 0, 0]	-999	PAL1	0	R1207J
407.623	3.283	530882	REC_START	n/a	5	-999	n/a	n/a	n/a	n/a	2	[0, 0, 0]	-999	PAL1	0	R1207J
410.906	0.722	534165	REC_EVENT	3283	5	3	BIRD	<>	BIRD	ROCK	2	[0, 0, 0]	-999	PAL1	0	R1207J
411.628	0.011	534887	REC_EVENT	4005	5	3	BIRD	<>	BIRD	ROCK	2	[0, 0, 0]	-999	PAL1	0	R1207J
411.639	1.0	534898	PROBE_OFF	n/a	5	-999	n/a	n/a	n/a	n/a	2	[0, 0, 0]	-999	PAL1	0	R1207J
412.639	0.017	535898	REC_END	n/a	5	-999	n/a	n/a	n/a	n/a	2	[0, 0, 0]	-999	PAL1	0	R1207J
412.656	0.267	535915	TEST_ORIENT	n/a	2	4	SHIP	n/a	PHONE	SHIP	2	[0, 0, 0]	-999	PAL1	0	R1207J
412.923	0.65	536182	RETRIEVAL_ORIENT_OFF	n/a	5	-999	n/a	n/a	n/a	n/a	2	[0, 0, 0]	-999	PAL1	0	R1207J
413.573	0.001	536832	TEST_PROBE	n/a	2	4	SHIP	n/a	PHONE	SHIP	2	[0, 0, 0]	-999	PAL1	0	R1207J
413.574	4.017	536833	REC_START	n/a	2	-999	n/a	n/a	n/a	n/a	2	[0, 0, 0]	-999	PAL1	0	R1207J
417.591	1.01	540850	PROBE_OFF	n/a	2	-999	n/a	n/a	n/a	n/a	2	[0, 0, 0]	-999	PAL1	0	R1207J
418.601	0.001	541860	REC_EVENT	5027	2	4	SHIP	<>	PHONE	SHIP	2	[0, 0, 0]	-999	PAL1	0	R1207J
418.602	0.022	541861	REC_END	n/a	2	-999	n/a	n/a	n/a	n/a	2	[0, 0, 0]	-999	PAL1	0	R1207J
418.624	0.266	541883	TEST_ORIENT	n/a	3	5	WALL	CLOWN	CLOWN	WALL	2	[0, 0, 0]	-999	PAL1	0	R1207J
418.89	0.75	542149	RETRIEVAL_ORIENT_OFF	n/a	2	-999	n/a	n/a	n/a	n/a	2	[0, 0, 0]	-999	PAL1	0	R1207J
419.64	0.001	542899	TEST_PROBE	n/a	3	5	WALL	CLOWN	CLOWN	WALL	2	[0, 0, 0]	-999	PAL1	0	R1207J
419.641	2.091	542900	REC_START	n/a	3	-999	n/a	CLOWN	n/a	n/a	2	[0, 0, 0]	-999	PAL1	0	R1207J
421.732	1.926	544991	REC_EVENT	2091	3	5	WALL	CLOWN	CLOWN	WALL	2	[0, 0, 0]	-999	PAL1	0	R1207J
423.658	1.0	546917	PROBE_OFF	n/a	3	-999	n/a	n/a	n/a	n/a	2	[0, 0, 0]	-999	PAL1	0	R1207J
424.658	0.017	547917	REC_END	n/a	3	-999	n/a	n/a	n/a	n/a	2	[0, 0, 0]	-999	PAL1	0	R1207J
424.675	0.266	547934	TEST_ORIENT	n/a	6	6	SEAT	n/a	BOAT	SEAT	2	[0, 0, 0]	-999	PAL1	0	R1207J
424.941	0.667	548200	RETRIEVAL_ORIENT_OFF	n/a	3	-999	n/a	n/a	n/a	n/a	2	[0, 0, 0]	-999	PAL1	0	R1207J
425.608	0.001	548867	TEST_PROBE	n/a	6	6	SEAT	n/a	BOAT	SEAT	2	[0, 0, 0]	-999	PAL1	0	R1207J
425.609	4.016	548868	REC_START	n/a	6	-999	n/a	n/a	n/a	n/a	2	[0, 0, 0]	-999	PAL1	0	R1207J
429.625	0.999	552884	PROBE_OFF	n/a	6	-999	n/a	n/a	n/a	n/a	2	[0, 0, 0]	-999	PAL1	0	R1207J
430.624	0.002	553883	REC_EVENT	5015	6	6	SEAT	<>	BOAT	SEAT	2	[0, 0, 0]	-999	PAL1	0	R1207J
430.626	0.011	553885	REC_END	n/a	6	-999	n/a	n/a	n/a	n/a	2	[0, 0, 0]	-999	PAL1	0	R1207J
430.637	4.239	553896	RECALL_END	n/a	-999	-999	n/a	n/a	n/a	n/a	2	[0, 0, 0]	-999	PAL1	0	R1207J
434.876	10.928	558134	TRIAL	n/a	-999	-999	n/a	n/a	n/a	n/a	3	[0, 0, 0]	-999	PAL1	0	R1207J
445.804	0.007	569062	ENCODING_START	n/a	-999	-999	n/a	n/a	n/a	n/a	3	[0, 0, 0]	-999	PAL1	0	R1207J
445.811	0.266	569069	STUDY_ORIENT	n/a	1	5	EEL	FISH	EEL	FISH	3	[0, 0, 0]	-999	PAL1	0	R1207J
446.077	0.717	569335	STUDY_ORIENT_OFF	n/a	1	5	EEL	FISH	EEL	FISH	3	[0, 0, 0]	-999	PAL1	0	R1207J
446.794	4.017	570052	STUDY_PAIR	n/a	1	5	EEL	FISH	EEL	FISH	3	[0, 0, 0]	-999	PAL1	0	R1207J
450.811	1.017	574069	PAIR_OFF	n/a	1	5	EEL	FISH	EEL	FISH	3	[0, 0, 0]	-999	PAL1	0	R1207J
451.828	0.267	575086	STUDY_ORIENT	n/a	2	4	BAG	FUR	FUR	BAG	3	[0, 0, 0]	-999	PAL1	0	R1207J
452.095	0.766	575353	STUDY_ORIENT_OFF	n/a	2	4	BAG	FUR	FUR	BAG	3	[0, 0, 0]	-999	PAL1	0	R1207J
452.861	4.018	576119	STUDY_PAIR	n/a	2	4	BAG	FUR	FUR	BAG	3	[0, 0, 0]	-999	PAL1	0	R1207J
456.879	1.017	580137	PAIR_OFF	n/a	2	4	BAG	FUR	FUR	BAG	3	[0, 0, 0]	-999	PAL1	0	R1207J
457.896	0.267	581154	STUDY_ORIENT	n/a	3	3	CAVE	n/a	MOUSE	CAVE	3	[0, 0, 0]	-999	PAL1	0	R1207J
458.163	0.549	581421	STUDY_ORIENT_OFF	n/a	3	3	CAVE	n/a	MOUSE	CAVE	3	[0, 0, 0]	-999	PAL1	0	R1207J
458.712	4.018	581970	STUDY_PAIR	n/a	3	3	CAVE	n/a	MOUSE	CAVE	3	[0, 0, 0]	-999	PAL1	0	R1207J
462.73	1.017	585988	PAIR_OFF	n/a	3	3	CAVE	n/a	MOUSE	CAVE	3	[0, 0, 0]	-999	PAL1	0	R1207J
463.747	0.266	587005	STUDY_ORIENT	n/a	4	6	OWL	JUDGE	JUDGE	OWL	3	[0, 0, 0]	-999	PAL1	0	R1207J
464.013	0.517	587271	STUDY_ORIENT_OFF	n/a	4	6	OWL	JUDGE	JUDGE	OWL	3	[0, 0, 0]	-999	PAL1	0	R1207J
464.53	4.017	587788	STUDY_PAIR	n/a	4	6	OWL	JUDGE	JUDGE	OWL	3	[0, 0, 0]	-999	PAL1	0	R1207J
468.547	1.017	591805	PAIR_OFF	n/a	4	6	OWL	JUDGE	JUDGE	OWL	3	[0, 0, 0]	-999	PAL1	0	R1207J
469.564	0.267	592822	STUDY_ORIENT	n/a	5	1	DOCK	n/a	PRINCE	DOCK	3	[0, 0, 0]	-999	PAL1	0	R1207J
469.831	0.716	593089	STUDY_ORIENT_OFF	n/a	5	1	DOCK	n/a	PRINCE	DOCK	3	[0, 0, 0]	-999	PAL1	0	R1207J
470.547	4.018	593805	STUDY_PAIR	n/a	5	1	DOCK	n/a	PRINCE	DOCK	3	[0, 0, 0]	-999	PAL1	0	R1207J
474.565	1.017	597823	PAIR_OFF	n/a	5	1	DOCK	n/a	PRINCE	DOCK	3	[0, 0, 0]	-999	PAL1	0	R1207J
475.582	0.266	598840	STUDY_ORIENT	n/a	6	2	ZOO	PLANE	PLANE	ZOO	3	[0, 0, 0]	-999	PAL1	0	R1207J
475.848	0.568	599106	STUDY_ORIENT_OFF	n/a	6	2	ZOO	PLANE	PLANE	ZOO	3	[0, 0, 0]	-999	PAL1	0	R1207J
476.416	4.017	599674	STUDY_PAIR	n/a	6	2	ZOO	PLANE	PLANE	ZOO	3	[0, 0, 0]	-999	PAL1	0	R1207J
480.433	1.0	603691	PAIR_OFF	n/a	6	2	ZOO	PLANE	PLANE	ZOO	3	[0, 0, 0]	-999	PAL1	0	R1207J
481.433	0.0	604691	MATH_START	n/a	-999	-999	n/a	n/a	n/a	n/a	3	[0, 0, 0]	-999	PAL1	0	R1207J
481.433	0.001	604691	ENCODING_END	n/a	-999	-999	n/a	n/a	n/a	n/a	3	[0, 0, 0]	-999	PAL1	0	R1207J
481.434	0.016	604692	START	n/a	-999	-999	n/a	n/a	n/a	n/a	3	[-999, -999, -999]	-999	PAL1	0	R1207J
481.45	3.75	604708	PROB	3727	-999	-999	n/a	n/a	n/a	n/a	3	[5, 3, 2]	10	PAL1	0	R1207J
485.2	4.067	608458	PROB	4032	-999	-999	n/a	n/a	n/a	n/a	3	[9, 7, 5]	21	PAL1	0	R1207J
489.267	4.433	612525	PROB	4396	-999	-999	n/a	n/a	n/a	n/a	3	[3, 6, 9]	18	PAL1	0	R1207J
493.7	3.318	616958	PROB	3283	-999	-999	n/a	n/a	n/a	n/a	3	[3, 2, 7]	12	PAL1	0	R1207J
497.018	4.384	620276	PROB	4349	-999	-999	n/a	n/a	n/a	n/a	3	[9, 1, 9]	19	PAL1	0	R1207J
501.402	3.445	624660	PROB	3445	-999	-999	n/a	n/a	n/a	n/a	3	[8, 2, 4]	14	PAL1	0	R1207J
504.847	0.005	628105	STOP	n/a	-999	-999	n/a	n/a	n/a	n/a	3	[-999, -999, -999]	-999	PAL1	0	R1207J
504.852	0.0	628110	MATH_END	n/a	-999	-999	n/a	n/a	n/a	n/a	3	[0, 0, 0]	-999	PAL1	0	R1207J
504.852	0.017	628110	RECALL_START	n/a	-999	-999	n/a	n/a	n/a	n/a	3	[0, 0, 0]	-999	PAL1	0	R1207J
504.869	0.267	628127	TEST_ORIENT	n/a	5	1	DOCK	n/a	PRINCE	DOCK	3	[0, 0, 0]	-999	PAL1	0	R1207J
505.136	0.633	628394	RETRIEVAL_ORIENT_OFF	n/a	-999	-999	n/a	n/a	n/a	n/a	3	[0, 0, 0]	-999	PAL1	0	R1207J
505.769	0.0	629027	TEST_PROBE	n/a	5	1	DOCK	n/a	PRINCE	DOCK	3	[0, 0, 0]	-999	PAL1	0	R1207J
505.769	2.338	629027	REC_START	n/a	5	-999	n/a	n/a	n/a	n/a	3	[0, 0, 0]	-999	PAL1	0	R1207J
508.107	0.659	631365	REC_EVENT	2338	5	1	DOCK	<>	PRINCE	DOCK	3	[0, 0, 0]	-999	PAL1	0	R1207J
508.766	1.02	632024	REC_EVENT	2997	5	1	DOCK	<>	PRINCE	DOCK	3	[0, 0, 0]	-999	PAL1	0	R1207J
509.786	0.488	633044	PROBE_OFF	n/a	5	-999	n/a	n/a	n/a	n/a	3	[0, 0, 0]	-999	PAL1	0	R1207J
510.274	0.512	633532	REC_EVENT	4505	5	1	DOCK	<>	PRINCE	DOCK	3	[0, 0, 0]	-999	PAL1	0	R1207J
510.786	0.016	634044	REC_END	n/a	5	-999	n/a	n/a	n/a	n/a	3	[0, 0, 0]	-999	PAL1	0	R1207J
510.802	0.267	634060	TEST_ORIENT	n/a	6	2	ZOO	PLANE	PLANE	ZOO	3	[0, 0, 0]	-999	PAL1	0	R1207J
511.069	0.684	634327	RETRIEVAL_ORIENT_OFF	n/a	5	-999	n/a	n/a	n/a	n/a	3	[0, 0, 0]	-999	PAL1	0	R1207J
511.753	0.0	635011	REC_START	n/a	6	-999	n/a	PLANE	n/a	n/a	3	[0, 0, 0]	-999	PAL1	0	R1207J
511.753	2.331	635011	TEST_PROBE	n/a	6	2	ZOO	PLANE	PLANE	ZOO	3	[0, 0, 0]	-999	PAL1	0	R1207J
514.084	1.686	637342	REC_EVENT	2331	6	2	ZOO	PLANE	PLANE	ZOO	3	[0, 0, 0]	-999	PAL1	0	R1207J
515.77	0.486	639028	PROBE_OFF	n/a	6	-999	n/a	n/a	n/a	n/a	3	[0, 0, 0]	-999	PAL1	0	R1207J
516.256	0.514	639514	REC_EVENT	4503	6	2	ZOO	<>	PLANE	ZOO	3	[0, 0, 0]	-999	PAL1	0	R1207J
516.77	0.017	640028	REC_END	n/a	6	-999	n/a	n/a	n/a	n/a	3	[0, 0, 0]	-999	PAL1	0	R1207J
516.787	0.267	640045	TEST_ORIENT	n/a	3	3	CAVE	n/a	MOUSE	CAVE	3	[0, 0, 0]	-999	PAL1	0	R1207J
517.054	0.7	640312	RETRIEVAL_ORIENT_OFF	n/a	6	-999	n/a	n/a	n/a	n/a	3	[0, 0, 0]	-999	PAL1	0	R1207J
517.754	0.0	641012	TEST_PROBE	n/a	3	3	CAVE	n/a	MOUSE	CAVE	3	[0, 0, 0]	-999	PAL1	0	R1207J
517.754	4.017	641012	REC_START	n/a	3	-999	n/a	n/a	n/a	n/a	3	[0, 0, 0]	-999	PAL1	0	R1207J
521.771	0.998	645029	PROBE_OFF	n/a	3	-999	n/a	n/a	n/a	n/a	3	[0, 0, 0]	-999	PAL1	0	R1207J
522.769	0.002	646027	REC_EVENT	5015	3	3	CAVE	<>	MOUSE	CAVE	3	[0, 0, 0]	-999	PAL1	0	R1207J
522.771	0.017	646029	REC_END	n/a	3	-999	n/a	n/a	n/a	n/a	3	[0, 0, 0]	-999	PAL1	0	R1207J
522.788	0.267	646046	TEST_ORIENT	n/a	2	4	BAG	FUR	FUR	BAG	3	[0, 0, 0]	-999	PAL1	0	R1207J
523.055	0.583	646313	RETRIEVAL_ORIENT_OFF	n/a	3	-999	n/a	n/a	n/a	n/a	3	[0, 0, 0]	-999	PAL1	0	R1207J
523.638	0.001	646896	TEST_PROBE	n/a	2	4	BAG	FUR	FUR	BAG	3	[0, 0, 0]	-999	PAL1	0	R1207J
523.639	1.397	646897	REC_START	n/a	2	-999	n/a	FUR	n/a	n/a	3	[0, 0, 0]	-999	PAL1	0	R1207J
525.036	2.619	648294	REC_EVENT	1397	2	4	BAG	FUR	FUR	BAG	3	[0, 0, 0]	-999	PAL1	0	R1207J
527.655	1.001	650913	PROBE_OFF	n/a	2	-999	n/a	n/a	n/a	n/a	3	[0, 0, 0]	-999	PAL1	0	R1207J
528.656	0.016	651914	REC_END	n/a	2	-999	n/a	n/a	n/a	n/a	3	[0, 0, 0]	-999	PAL1	0	R1207J
528.672	0.266	651930	TEST_ORIENT	n/a	1	5	EEL	FISH	EEL	FISH	3	[0, 0, 0]	-999	PAL1	0	R1207J
528.938	0.667	652196	RETRIEVAL_ORIENT_OFF	n/a	2	-999	n/a	n/a	n/a	n/a	3	[0, 0, 0]	-999	PAL1	0	R1207J
529.605	0.001	652863	TEST_PROBE	n/a	1	5	EEL	FISH	EEL	FISH	3	[0, 0, 0]	-999	PAL1	0	R1207J
529.606	1.346	652864	REC_START	n/a	1	-999	n/a	FISH	n/a	n/a	3	[0, 0, 0]	-999	PAL1	0	R1207J
530.952	2.671	654210	REC_EVENT	1346	1	5	EEL	FISH	EEL	FISH	3	[0, 0, 0]	-999	PAL1	0	R1207J
533.623	1.0	656881	PROBE_OFF	n/a	1	-999	n/a	n/a	n/a	n/a	3	[0, 0, 0]	-999	PAL1	0	R1207J
534.623	0.016	657881	REC_END	n/a	1	-999	n/a	n/a	n/a	n/a	3	[0, 0, 0]	-999	PAL1	0	R1207J
534.639	0.267	657897	TEST_ORIENT	n/a	4	6	OWL	JUDGE	JUDGE	OWL	3	[0, 0, 0]	-999	PAL1	0	R1207J
534.906	0.551	658164	RETRIEVAL_ORIENT_OFF	n/a	1	-999	n/a	n/a	n/a	n/a	3	[0, 0, 0]	-999	PAL1	0	R1207J
535.457	0.001	658715	TEST_PROBE	n/a	4	6	OWL	JUDGE	JUDGE	OWL	3	[0, 0, 0]	-999	PAL1	0	R1207J
535.458	4.016	658716	REC_START	n/a	4	-999	n/a	JUDGE	n/a	n/a	3	[0, 0, 0]	-999	PAL1	0	R1207J
539.474	0.219	662732	PROBE_OFF	n/a	4	-999	n/a	n/a	n/a	n/a	3	[0, 0, 0]	-999	PAL1	0	R1207J
539.693	0.781	662951	REC_EVENT	4235	4	6	OWL	JUDGE	JUDGE	OWL	3	[0, 0, 0]	-999	PAL1	0	R1207J
540.474	0.01	663732	REC_END	n/a	4	-999	n/a	n/a	n/a	n/a	3	[0, 0, 0]	-999	PAL1	0	R1207J
540.484	4.273	663742	RECALL_END	n/a	-999	-999	n/a	n/a	n/a	n/a	3	[0, 0, 0]	-999	PAL1	0	R1207J
544.757	10.929	668015	TRIAL	n/a	-999	-999	n/a	n/a	n/a	n/a	4	[0, 0, 0]	-999	PAL1	0	R1207J
555.686	0.006	678944	ENCODING_START	n/a	-999	-999	n/a	n/a	n/a	n/a	4	[0, 0, 0]	-999	PAL1	0	R1207J
555.692	0.267	678950	STUDY_ORIENT	n/a	1	5	MOLE	n/a	MOLE	FILM	4	[0, 0, 0]	-999	PAL1	0	R1207J
555.959	0.667	679217	STUDY_ORIENT_OFF	n/a	1	5	MOLE	n/a	MOLE	FILM	4	[0, 0, 0]	-999	PAL1	0	R1207J
556.626	4.017	679884	STUDY_PAIR	n/a	1	5	MOLE	n/a	MOLE	FILM	4	[0, 0, 0]	-999	PAL1	0	R1207J
560.643	1.016	683901	PAIR_OFF	n/a	1	5	MOLE	n/a	MOLE	FILM	4	[0, 0, 0]	-999	PAL1	0	R1207J
561.659	0.267	684917	STUDY_ORIENT	n/a	2	2	BAND	n/a	LIP	BAND	4	[0, 0, 0]	-999	PAL1	0	R1207J
561.926	0.617	685184	STUDY_ORIENT_OFF	n/a	2	2	BAND	n/a	LIP	BAND	4	[0, 0, 0]	-999	PAL1	0	R1207J
562.543	4.017	685801	STUDY_PAIR	n/a	2	2	BAND	n/a	LIP	BAND	4	[0, 0, 0]	-999	PAL1	0	R1207J
566.56	1.017	689818	PAIR_OFF	n/a	2	2	BAND	n/a	LIP	BAND	4	[0, 0, 0]	-999	PAL1	0	R1207J
567.577	0.267	690835	STUDY_ORIENT	n/a	3	1	WHALE	n/a	PEACH	WHALE	4	[0, 0, 0]	-999	PAL1	0	R1207J
567.844	0.618	691102	STUDY_ORIENT_OFF	n/a	3	1	WHALE	n/a	PEACH	WHALE	4	[0, 0, 0]	-999	PAL1	0	R1207J
568.462	4.017	691720	STUDY_PAIR	n/a	3	1	WHALE	n/a	PEACH	WHALE	4	[0, 0, 0]	-999	PAL1	0	R1207J
572.479	1.015	695737	PAIR_OFF	n/a	3	1	WHALE	n/a	PEACH	WHALE	4	[0, 0, 0]	-999	PAL1	0	R1207J
573.494	0.267	696752	STUDY_ORIENT	n/a	4	4	BEACH	n/a	BEACH	PIT	4	[0, 0, 0]	-999	PAL1	0	R1207J
573.761	0.601	697019	STUDY_ORIENT_OFF	n/a	4	4	BEACH	n/a	BEACH	PIT	4	[0, 0, 0]	-999	PAL1	0	R1207J
574.362	4.018	697620	STUDY_PAIR	n/a	4	4	BEACH	n/a	BEACH	PIT	4	[0, 0, 0]	-999	PAL1	0	R1207J
578.38	1.016	701638	PAIR_OFF	n/a	4	4	BEACH	n/a	BEACH	PIT	4	[0, 0, 0]	-999	PAL1	0	R1207J
579.396	0.266	702654	STUDY_ORIENT	n/a	5	3	GEESE	n/a	GEESE	TANK	4	[0, 0, 0]	-999	PAL1	0	R1207J
579.662	0.718	702920	STUDY_ORIENT_OFF	n/a	5	3	GEESE	n/a	GEESE	TANK	4	[0, 0, 0]	-999	PAL1	0	R1207J
580.38	4.017	703638	STUDY_PAIR	n/a	5	3	GEESE	n/a	GEESE	TANK	4	[0, 0, 0]	-999	PAL1	0	R1207J
584.397	1.017	707655	PAIR_OFF	n/a	5	3	GEESE	n/a	GEESE	TANK	4	[0, 0, 0]	-999	PAL1	0	R1207J
585.414	0.266	708672	STUDY_ORIENT	n/a	6	6	CORN	n/a	CORN	HOUSE	4	[0, 0, 0]	-999	PAL1	0	R1207J
585.68	0.651	708938	STUDY_ORIENT_OFF	n/a	6	6	CORN	n/a	CORN	HOUSE	4	[0, 0, 0]	-999	PAL1	0	R1207J
586.331	4.017	709589	STUDY_PAIR	n/a	6	6	CORN	n/a	CORN	HOUSE	4	[0, 0, 0]	-999	PAL1	0	R1207J
590.348	1.0	713606	PAIR_OFF	n/a	6	6	CORN	n/a	CORN	HOUSE	4	[0, 0, 0]	-999	PAL1	0	R1207J
591.348	0.0	714606	ENCODING_END	n/a	-999	-999	n/a	n/a	n/a	n/a	4	[0, 0, 0]	-999	PAL1	0	R1207J
591.348	0.001	714606	MATH_START	n/a	-999	-999	n/a	n/a	n/a	n/a	4	[0, 0, 0]	-999	PAL1	0	R1207J
591.349	0.016	714607	START	n/a	-999	-999	n/a	n/a	n/a	n/a	4	[-999, -999, -999]	-999	PAL1	0	R1207J
591.365	5.633	714623	PROB	5607	-999	-999	n/a	n/a	n/a	n/a	4	[1, 4, 7]	14	PAL1	0	R1207J
596.998	3.684	720256	PROB	3661	-999	-999	n/a	n/a	n/a	n/a	4	[4, 2, 8]	14	PAL1	0	R1207J
600.682	4.067	723940	PROB	4033	-999	-999	n/a	n/a	n/a	n/a	4	[3, 9, 2]	14	PAL1	0	R1207J
604.749	2.601	728007	PROB	2568	-999	-999	n/a	n/a	n/a	n/a	4	[2, 7, 3]	12	PAL1	0	R1207J
607.35	5.269	730608	PROB	5269	-999	-999	n/a	n/a	n/a	n/a	4	[8, 6, 5]	19	PAL1	0	R1207J
612.619	0.014	735877	STOP	n/a	-999	-999	n/a	n/a	n/a	n/a	4	[-999, -999, -999]	-999	PAL1	0	R1207J
612.633	0.0	735891	MATH_END	n/a	-999	-999	n/a	n/a	n/a	n/a	4	[0, 0, 0]	-999	PAL1	0	R1207J
612.633	0.017	735891	RECALL_START	n/a	-999	-999	n/a	n/a	n/a	n/a	4	[0, 0, 0]	-999	PAL1	0	R1207J
612.65	0.267	735908	TEST_ORIENT	n/a	3	1	WHALE	n/a	PEACH	WHALE	4	[0, 0, 0]	-999	PAL1	0	R1207J
612.917	0.683	736175	RETRIEVAL_ORIENT_OFF	n/a	-999	-999	n/a	n/a	n/a	n/a	4	[0, 0, 0]	-999	PAL1	0	R1207J
613.6	0.001	736858	TEST_PROBE	n/a	3	1	WHALE	n/a	PEACH	WHALE	4	[0, 0, 0]	-999	PAL1	0	R1207J
613.601	3.56	736859	REC_START	n/a	3	-999	n/a	n/a	n/a	n/a	4	[0, 0, 0]	-999	PAL1	0	R1207J
617.161	0.456	740419	REC_EVENT	3560	3	1	WHALE	<>	PEACH	WHALE	4	[0, 0, 0]	-999	PAL1	0	R1207J
617.617	1.001	740875	PROBE_OFF	n/a	3	-999	n/a	n/a	n/a	n/a	4	[0, 0, 0]	-999	PAL1	0	R1207J
618.618	0.016	741876	REC_END	n/a	3	-999	n/a	n/a	n/a	n/a	4	[0, 0, 0]	-999	PAL1	0	R1207J
618.634	0.266	741892	TEST_ORIENT	n/a	2	2	BAND	n/a	LIP	BAND	4	[0, 0, 0]	-999	PAL1	0	R1207J
618.9	0.65	742158	RETRIEVAL_ORIENT_OFF	n/a	3	-999	n/a	n/a	n/a	n/a	4	[0, 0, 0]	-999	PAL1	0	R1207J
619.55	0.001	742808	TEST_PROBE	n/a	2	2	BAND	n/a	LIP	BAND	4	[0, 0, 0]	-999	PAL1	0	R1207J
619.551	4.017	742809	REC_START	n/a	2	-999	n/a	n/a	n/a	n/a	4	[0, 0, 0]	-999	PAL1	0	R1207J
623.568	0.998	746826	PROBE_OFF	n/a	2	-999	n/a	n/a	n/a	n/a	4	[0, 0, 0]	-999	PAL1	0	R1207J
624.566	0.003	747824	REC_EVENT	5015	2	2	BAND	<>	LIP	BAND	4	[0, 0, 0]	-999	PAL1	0	R1207J
624.569	0.016	747827	REC_END	n/a	2	-999	n/a	n/a	n/a	n/a	4	[0, 0, 0]	-999	PAL1	0	R1207J
624.585	0.266	747843	TEST_ORIENT	n/a	5	3	GEESE	n/a	GEESE	TANK	4	[0, 0, 0]	-999	PAL1	0	R1207J
624.851	0.568	748109	RETRIEVAL_ORIENT_OFF	n/a	2	-999	n/a	n/a	n/a	n/a	4	[0, 0, 0]	-999	PAL1	0	R1207J
625.419	0.001	748677	TEST_PROBE	n/a	5	3	GEESE	n/a	GEESE	TANK	4	[0, 0, 0]	-999	PAL1	0	R1207J
625.42	4.016	748678	REC_START	n/a	5	-999	n/a	n/a	n/a	n/a	4	[0, 0, 0]	-999	PAL1	0	R1207J
629.436	0.999	752694	PROBE_OFF	n/a	5	-999	n/a	n/a	n/a	n/a	4	[0, 0, 0]	-999	PAL1	0	R1207J
630.435	0.001	753693	REC_EVENT	5015	5	3	GEESE	<>	GEESE	TANK	4	[0, 0, 0]	-999	PAL1	0	R1207J
630.436	0.017	753694	REC_END	n/a	5	-999	n/a	n/a	n/a	n/a	4	[0, 0, 0]	-999	PAL1	0	R1207J
630.453	0.266	753711	TEST_ORIENT	n/a	4	4	BEACH	n/a	BEACH	PIT	4	[0, 0, 0]	-999	PAL1	0	R1207J
630.719	0.634	753977	RETRIEVAL_ORIENT_OFF	n/a	5	-999	n/a	n/a	n/a	n/a	4	[0, 0, 0]	-999	PAL1	0	R1207J
631.353	0.001	754611	TEST_PROBE	n/a	4	4	BEACH	n/a	BEACH	PIT	4	[0, 0, 0]	-999	PAL1	0	R1207J
631.354	1.774	754612	REC_START	n/a	4	-999	n/a	n/a	n/a	n/a	4	[0, 0, 0]	-999	PAL1	0	R1207J
633.128	2.243	756386	REC_EVENT	1774	4	4	BEACH	<>	BEACH	PIT	4	[0, 0, 0]	-999	PAL1	0	R1207J
635.371	1.0	758629	PROBE_OFF	n/a	4	-999	n/a	n/a	n/a	n/a	4	[0, 0, 0]	-999	PAL1	0	R1207J
636.371	0.016	759629	REC_END	n/a	4	-999	n/a	n/a	n/a	n/a	4	[0, 0, 0]	-999	PAL1	0	R1207J
636.387	0.266	759645	TEST_ORIENT	n/a	1	5	MOLE	n/a	MOLE	FILM	4	[0, 0, 0]	-999	PAL1	0	R1207J
636.653	0.718	759911	RETRIEVAL_ORIENT_OFF	n/a	4	-999	n/a	n/a	n/a	n/a	4	[0, 0, 0]	-999	PAL1	0	R1207J
637.371	0.0	760629	TEST_PROBE	n/a	1	5	MOLE	n/a	MOLE	FILM	4	[0, 0, 0]	-999	PAL1	0	R1207J
637.371	3.356	760629	REC_START	n/a	1	-999	n/a	n/a	n/a	n/a	4	[0, 0, 0]	-999	PAL1	0	R1207J
640.727	0.661	763985	REC_EVENT	3356	1	5	MOLE	<>	MOLE	FILM	4	[0, 0, 0]	-999	PAL1	0	R1207J
641.388	0.046	764646	PROBE_OFF	n/a	1	-999	n/a	n/a	n/a	n/a	4	[0, 0, 0]	-999	PAL1	0	R1207J
641.434	0.954	764692	REC_EVENT	4063	1	5	MOLE	<>	MOLE	FILM	4	[0, 0, 0]	-999	PAL1	0	R1207J
642.388	0.017	765646	REC_END	n/a	1	-999	n/a	n/a	n/a	n/a	4	[0, 0, 0]	-999	PAL1	0	R1207J
642.405	0.266	765663	TEST_ORIENT	n/a	6	6	CORN	n/a	CORN	HOUSE	4	[0, 0, 0]	-999	PAL1	0	R1207J
642.671	0.617	765929	RETRIEVAL_ORIENT_OFF	n/a	1	-999	n/a	n/a	n/a	n/a	4	[0, 0, 0]	-999	PAL1	0	R1207J
643.288	0.001	766546	TEST_PROBE	n/a	6	6	CORN	n/a	CORN	HOUSE	4	[0, 0, 0]	-999	PAL1	0	R1207J
643.289	4.017	766547	REC_START	n/a	6	-999	n/a	n/a	n/a	n/a	4	[0, 0, 0]	-999	PAL1	0	R1207J
647.306	0.998	770564	PROBE_OFF	n/a	6	-999	n/a	n/a	n/a	n/a	4	[0, 0, 0]	-999	PAL1	0	R1207J
648.304	0.003	771562	REC_EVENT	5015	6	6	CORN	<>	CORN	HOUSE	4	[0, 0, 0]	-999	PAL1	0	R1207J
648.307	0.012	771565	REC_END	n/a	6	-999	n/a	n/a	n/a	n/a	4	[0, 0, 0]	-999	PAL1	0	R1207J
648.319	4.569	771577	RECALL_END	n/a	-999	-999	n/a	n/a	n/a	n/a	4	[0, 0, 0]	-999	PAL1	0	R1207J
652.888	10.929	776146	TRIAL	n/a	-999	-999	n/a	n/a	n/a	n/a	5	[0, 0, 0]	-999	PAL1	0	R1207J
663.817	0.006	787075	ENCODING_START	n/a	-999	-999	n/a	n/a	n/a	n/a	5	[0, 0, 0]	-999	PAL1	0	R1207J
663.823	0.267	787081	STUDY_ORIENT	n/a	1	3	ROPE	GOLD	SPONGE	ROPE	5	[0, 0, 0]	-999	PAL1	0	R1207J
664.09	0.6	787348	STUDY_ORIENT_OFF	n/a	1	3	ROPE	GOLD	SPONGE	ROPE	5	[0, 0, 0]	-999	PAL1	0	R1207J
664.69	4.017	787948	STUDY_PAIR	n/a	1	3	ROPE	GOLD	SPONGE	ROPE	5	[0, 0, 0]	-999	PAL1	0	R1207J
668.707	1.017	791965	PAIR_OFF	n/a	1	3	ROPE	GOLD	SPONGE	ROPE	5	[0, 0, 0]	-999	PAL1	0	R1207J
669.724	0.267	792982	STUDY_ORIENT	n/a	2	4	GOLD	n/a	SOAP	GOLD	5	[0, 0, 0]	-999	PAL1	0	R1207J
669.991	0.567	793249	STUDY_ORIENT_OFF	n/a	2	4	GOLD	n/a	SOAP	GOLD	5	[0, 0, 0]	-999	PAL1	0	R1207J
670.558	4.017	793816	STUDY_PAIR	n/a	2	4	GOLD	n/a	SOAP	GOLD	5	[0, 0, 0]	-999	PAL1	0	R1207J
674.575	1.017	797833	PAIR_OFF	n/a	2	4	GOLD	n/a	SOAP	GOLD	5	[0, 0, 0]	-999	PAL1	0	R1207J
675.592	0.266	798850	STUDY_ORIENT	n/a	3	5	SKY	CLAY	SKY	CLAY	5	[0, 0, 0]	-999	PAL1	0	R1207J
675.858	0.618	799116	STUDY_ORIENT_OFF	n/a	3	5	SKY	CLAY	SKY	CLAY	5	[0, 0, 0]	-999	PAL1	0	R1207J
676.476	4.017	799734	STUDY_PAIR	n/a	3	5	SKY	CLAY	SKY	CLAY	5	[0, 0, 0]	-999	PAL1	0	R1207J
680.493	1.016	803751	PAIR_OFF	n/a	3	5	SKY	CLAY	SKY	CLAY	5	[0, 0, 0]	-999	PAL1	0	R1207J
681.509	0.267	804767	STUDY_ORIENT	n/a	4	6	OAK	n/a	COW	OAK	5	[0, 0, 0]	-999	PAL1	0	R1207J
681.776	0.534	805034	STUDY_ORIENT_OFF	n/a	4	6	OAK	n/a	COW	OAK	5	[0, 0, 0]	-999	PAL1	0	R1207J
682.31	4.018	805568	STUDY_PAIR	n/a	4	6	OAK	n/a	COW	OAK	5	[0, 0, 0]	-999	PAL1	0	R1207J
686.328	1.016	809586	PAIR_OFF	n/a	4	6	OAK	n/a	COW	OAK	5	[0, 0, 0]	-999	PAL1	0	R1207J
687.344	0.266	810602	STUDY_ORIENT	n/a	5	1	BAT	n/a	COIN	BAT	5	[0, 0, 0]	-999	PAL1	0	R1207J
687.61	0.684	810868	STUDY_ORIENT_OFF	n/a	5	1	BAT	n/a	COIN	BAT	5	[0, 0, 0]	-999	PAL1	0	R1207J
688.294	4.017	811552	STUDY_PAIR	n/a	5	1	BAT	n/a	COIN	BAT	5	[0, 0, 0]	-999	PAL1	0	R1207J
692.311	1.017	815569	PAIR_OFF	n/a	5	1	BAT	n/a	COIN	BAT	5	[0, 0, 0]	-999	PAL1	0	R1207J
693.328	0.266	816586	STUDY_ORIENT	n/a	6	2	CUBE	SMILE	SMILE	CUBE	5	[0, 0, 0]	-999	PAL1	0	R1207J
693.594	0.651	816852	STUDY_ORIENT_OFF	n/a	6	2	CUBE	SMILE	SMILE	CUBE	5	[0, 0, 0]	-999	PAL1	0	R1207J
694.245	4.017	817503	STUDY_PAIR	n/a	6	2	CUBE	SMILE	SMILE	CUBE	5	[0, 0, 0]	-999	PAL1	0	R1207J
698.262	1.0	821520	PAIR_OFF	n/a	6	2	CUBE	SMILE	SMILE	CUBE	5	[0, 0, 0]	-999	PAL1	0	R1207J
699.262	0.0	822520	MATH_START	n/a	-999	-999	n/a	n/a	n/a	n/a	5	[0, 0, 0]	-999	PAL1	0	R1207J
699.262	0.001	822520	ENCODING_END	n/a	-999	-999	n/a	n/a	n/a	n/a	5	[0, 0, 0]	-999	PAL1	0	R1207J
699.263	0.016	822521	START	n/a	-999	-999	n/a	n/a	n/a	n/a	5	[-999, -999, -999]	-999	PAL1	0	R1207J
699.279	4.35	822537	PROB	4321	-999	-999	n/a	n/a	n/a	n/a	5	[6, 1, 3]	10	PAL1	0	R1207J
703.629	2.618	826887	PROB	2588	-999	-999	n/a	n/a	n/a	n/a	5	[1, 3, 9]	13	PAL1	0	R1207J
706.247	2.632	829505	PROB	2609	-999	-999	n/a	n/a	n/a	n/a	5	[7, 3, 3]	13	PAL1	0	R1207J
708.879	3.618	832137	PROB	3594	-999	-999	n/a	n/a	n/a	n/a	5	[1, 2, 7]	10	PAL1	0	R1207J
712.497	3.635	835755	PROB	3607	-999	-999	n/a	n/a	n/a	n/a	5	[3, 5, 7]	15	PAL1	0	R1207J
716.132	2.682	839390	PROB	2659	-999	-999	n/a	n/a	n/a	n/a	5	[9, 2, 1]	12	PAL1	0	R1207J
718.814	3.674	842072	PROB	3674	-999	-999	n/a	n/a	n/a	n/a	5	[8, 6, 1]	15	PAL1	0	R1207J
722.488	0.01	845746	STOP	n/a	-999	-999	n/a	n/a	n/a	n/a	5	[-999, -999, -999]	-999	PAL1	0	R1207J
722.498	0.0	845756	MATH_END	n/a	-999	-999	n/a	n/a	n/a	n/a	5	[0, 0, 0]	-999	PAL1	0	R1207J
722.498	0.017	845756	RECALL_START	n/a	-999	-999	n/a	n/a	n/a	n/a	5	[0, 0, 0]	-999	PAL1	0	R1207J
722.515	0.266	845773	TEST_ORIENT	n/a	5	1	BAT	n/a	COIN	BAT	5	[0, 0, 0]	-999	PAL1	0	R1207J
722.781	0.568	846039	RETRIEVAL_ORIENT_OFF	n/a	-999	-999	n/a	n/a	n/a	n/a	5	[0, 0, 0]	-999	PAL1	0	R1207J
723.349	0.001	846607	TEST_PROBE	n/a	5	1	BAT	n/a	COIN	BAT	5	[0, 0, 0]	-999	PAL1	0	R1207J
723.35	1.412	846608	REC_START	n/a	5	-999	n/a	n/a	n/a	n/a	5	[0, 0, 0]	-999	PAL1	0	R1207J
724.762	2.605	848020	REC_EVENT	1412	5	1	BAT	<>	COIN	BAT	5	[0, 0, 0]	-999	PAL1	0	R1207J
727.367	0.415	850625	PROBE_OFF	n/a	5	-999	n/a	n/a	n/a	n/a	5	[0, 0, 0]	-999	PAL1	0	R1207J
727.782	0.596	851040	REC_EVENT	4432	5	1	BAT	<>	COIN	BAT	5	[0, 0, 0]	-999	PAL1	0	R1207J
728.378	0.022	851636	REC_END	n/a	5	-999	n/a	n/a	n/a	n/a	5	[0, 0, 0]	-999	PAL1	0	R1207J
728.4	0.265	851658	TEST_ORIENT	n/a	6	2	CUBE	SMILE	SMILE	CUBE	5	[0, 0, 0]	-999	PAL1	0	R1207J
728.665	0.718	851923	RETRIEVAL_ORIENT_OFF	n/a	5	-999	n/a	n/a	n/a	n/a	5	[0, 0, 0]	-999	PAL1	0	R1207J
729.383	0.001	852641	TEST_PROBE	n/a	6	2	CUBE	SMILE	SMILE	CUBE	5	[0, 0, 0]	-999	PAL1	0	R1207J
729.384	2.993	852642	REC_START	n/a	6	-999	n/a	SMILE	n/a	n/a	5	[0, 0, 0]	-999	PAL1	0	R1207J
732.377	1.023	855635	REC_EVENT	2993	6	2	CUBE	SMILE	SMILE	CUBE	5	[0, 0, 0]	-999	PAL1	0	R1207J
733.4	1.0	856658	PROBE_OFF	n/a	6	-999	n/a	n/a	n/a	n/a	5	[0, 0, 0]	-999	PAL1	0	R1207J
734.4	0.017	857658	REC_END	n/a	6	-999	n/a	n/a	n/a	n/a	5	[0, 0, 0]	-999	PAL1	0	R1207J
734.417	0.266	857675	TEST_ORIENT	n/a	1	3	ROPE	GOLD	SPONGE	ROPE	5	[0, 0, 0]	-999	PAL1	0	R1207J
734.683	0.618	857941	RETRIEVAL_ORIENT_OFF	n/a	6	-999	n/a	n/a	n/a	n/a	5	[0, 0, 0]	-999	PAL1	0	R1207J
735.301	0.0	858559	TEST_PROBE	n/a	1	3	ROPE	GOLD	SPONGE	ROPE	5	[0, 0, 0]	-999	PAL1	0	R1207J
735.301	1.973	858559	REC_START	n/a	1	-999	n/a	GOLD	n/a	n/a	5	[0, 0, 0]	-999	PAL1	0	R1207J
737.274	2.044	860531	REC_EVENT	1973	1	3	ROPE	GOLD	SPONGE	ROPE	5	[0, 0, 0]	-999	PAL1	0	R1207J
739.318	1.0	862575	PROBE_OFF	n/a	1	-999	n/a	n/a	n/a	n/a	5	[0, 0, 0]	-999	PAL1	0	R1207J
740.318	0.017	863575	REC_END	n/a	1	-999	n/a	n/a	n/a	n/a	5	[0, 0, 0]	-999	PAL1	0	R1207J
740.335	0.265	863592	TEST_ORIENT	n/a	2	4	GOLD	n/a	SOAP	GOLD	5	[0, 0, 0]	-999	PAL1	0	R1207J
740.6	0.718	863857	RETRIEVAL_ORIENT_OFF	n/a	1	-999	n/a	n/a	n/a	n/a	5	[0, 0, 0]	-999	PAL1	0	R1207J
741.318	0.001	864575	TEST_PROBE	n/a	2	4	GOLD	n/a	SOAP	GOLD	5	[0, 0, 0]	-999	PAL1	0	R1207J
741.319	2.002	864576	REC_START	n/a	2	-999	n/a	n/a	n/a	n/a	5	[0, 0, 0]	-999	PAL1	0	R1207J
743.321	2.014	866578	REC_EVENT	2002	2	4	GOLD	<>	SOAP	GOLD	5	[0, 0, 0]	-999	PAL1	0	R1207J
745.335	1.0	868592	PROBE_OFF	n/a	2	-999	n/a	n/a	n/a	n/a	5	[0, 0, 0]	-999	PAL1	0	R1207J
746.335	0.017	869592	REC_END	n/a	2	-999	n/a	n/a	n/a	n/a	5	[0, 0, 0]	-999	PAL1	0	R1207J
746.352	0.266	869609	TEST_ORIENT	n/a	3	5	SKY	CLAY	SKY	CLAY	5	[0, 0, 0]	-999	PAL1	0	R1207J
746.618	0.734	869875	RETRIEVAL_ORIENT_OFF	n/a	2	-999	n/a	n/a	n/a	n/a	5	[0, 0, 0]	-999	PAL1	0	R1207J
747.352	0.001	870609	TEST_PROBE	n/a	3	5	SKY	CLAY	SKY	CLAY	5	[0, 0, 0]	-999	PAL1	0	R1207J
747.353	2.447	870610	REC_START	n/a	3	-999	n/a	CLAY	n/a	n/a	5	[0, 0, 0]	-999	PAL1	0	R1207J
749.8	1.569	873057	REC_EVENT	2447	3	5	SKY	CLAY	SKY	CLAY	5	[0, 0, 0]	-999	PAL1	0	R1207J
751.369	1.0	874626	PROBE_OFF	n/a	3	-999	n/a	n/a	n/a	n/a	5	[0, 0, 0]	-999	PAL1	0	R1207J
752.369	0.017	875626	REC_END	n/a	3	-999	n/a	n/a	n/a	n/a	5	[0, 0, 0]	-999	PAL1	0	R1207J
752.386	0.266	875643	TEST_ORIENT	n/a	4	6	OAK	n/a	COW	OAK	5	[0, 0, 0]	-999	PAL1	0	R1207J
752.652	0.734	875909	RETRIEVAL_ORIENT_OFF	n/a	3	-999	n/a	n/a	n/a	n/a	5	[0, 0, 0]	-999	PAL1	0	R1207J
753.386	0.001	876643	TEST_PROBE	n/a	4	6	OAK	n/a	COW	OAK	5	[0, 0, 0]	-999	PAL1	0	R1207J
753.387	4.017	876644	REC_START	n/a	4	-999	n/a	n/a	n/a	n/a	5	[0, 0, 0]	-999	PAL1	0	R1207J
757.404	0.998	880661	PROBE_OFF	n/a	4	-999	n/a	n/a	n/a	n/a	5	[0, 0, 0]	-999	PAL1	0	R1207J
758.402	0.002	881659	REC_EVENT	5015	4	6	OAK	<>	COW	OAK	5	[0, 0, 0]	-999	PAL1	0	R1207J
758.404	0.012	881661	REC_END	n/a	4	-999	n/a	n/a	n/a	n/a	5	[0, 0, 0]	-999	PAL1	0	R1207J
758.416	4.671	881673	RECALL_END	n/a	-999	-999	n/a	n/a	n/a	n/a	5	[0, 0, 0]	-999	PAL1	0	R1207J
763.087	10.929	886344	TRIAL	n/a	-999	-999	n/a	n/a	n/a	n/a	6	[0, 0, 0]	-999	PAL1	0	R1207J
774.016	0.006	897273	ENCODING_START	n/a	-999	-999	n/a	n/a	n/a	n/a	6	[0, 0, 0]	-999	PAL1	0	R1207J
774.022	0.267	897279	STUDY_ORIENT	n/a	1	1	SPRING	n/a	TEA	SPRING	6	[0, 0, 0]	-999	PAL1	0	R1207J
774.289	0.666	897546	STUDY_ORIENT_OFF	n/a	1	1	SPRING	n/a	TEA	SPRING	6	[0, 0, 0]	-999	PAL1	0	R1207J
774.955	4.017	898212	STUDY_PAIR	n/a	1	1	SPRING	n/a	TEA	SPRING	6	[0, 0, 0]	-999	PAL1	0	R1207J
778.972	1.017	902229	PAIR_OFF	n/a	1	1	SPRING	n/a	TEA	SPRING	6	[0, 0, 0]	-999	PAL1	0	R1207J
779.989	0.268	903246	STUDY_ORIENT	n/a	2	2	PANTS	n/a	GATE	PANTS	6	[0, 0, 0]	-999	PAL1	0	R1207J
780.257	0.582	903514	STUDY_ORIENT_OFF	n/a	2	2	PANTS	n/a	GATE	PANTS	6	[0, 0, 0]	-999	PAL1	0	R1207J
780.839	4.017	904096	STUDY_PAIR	n/a	2	2	PANTS	n/a	GATE	PANTS	6	[0, 0, 0]	-999	PAL1	0	R1207J
784.856	1.017	908113	PAIR_OFF	n/a	2	2	PANTS	n/a	GATE	PANTS	6	[0, 0, 0]	-999	PAL1	0	R1207J
785.873	0.268	909130	STUDY_ORIENT	n/a	3	3	TOOTH	n/a	MOOSE	TOOTH	6	[0, 0, 0]	-999	PAL1	0	R1207J
786.141	0.632	909398	STUDY_ORIENT_OFF	n/a	3	3	TOOTH	n/a	MOOSE	TOOTH	6	[0, 0, 0]	-999	PAL1	0	R1207J
786.773	4.017	910030	STUDY_PAIR	n/a	3	3	TOOTH	n/a	MOOSE	TOOTH	6	[0, 0, 0]	-999	PAL1	0	R1207J
790.79	1.017	914047	PAIR_OFF	n/a	3	3	TOOTH	n/a	MOOSE	TOOTH	6	[0, 0, 0]	-999	PAL1	0	R1207J
791.807	0.267	915064	STUDY_ORIENT	n/a	4	4	TOAD	n/a	ELF	TOAD	6	[0, 0, 0]	-999	PAL1	0	R1207J
792.074	0.75	915331	STUDY_ORIENT_OFF	n/a	4	4	TOAD	n/a	ELF	TOAD	6	[0, 0, 0]	-999	PAL1	0	R1207J
792.824	4.017	916081	STUDY_PAIR	n/a	4	4	TOAD	n/a	ELF	TOAD	6	[0, 0, 0]	-999	PAL1	0	R1207J
796.841	1.017	920098	PAIR_OFF	n/a	4	4	TOAD	n/a	ELF	TOAD	6	[0, 0, 0]	-999	PAL1	0	R1207J
797.858	0.268	921115	STUDY_ORIENT	n/a	5	5	SALT	SPRING	SALT	SPEAR	6	[0, 0, 0]	-999	PAL1	0	R1207J
798.126	0.732	921383	STUDY_ORIENT_OFF	n/a	5	5	SALT	SPRING	SALT	SPEAR	6	[0, 0, 0]	-999	PAL1	0	R1207J
798.858	4.017	922115	STUDY_PAIR	n/a	5	5	SALT	SPRING	SALT	SPEAR	6	[0, 0, 0]	-999	PAL1	0	R1207J
802.875	1.017	926132	PAIR_OFF	n/a	5	5	SALT	SPRING	SALT	SPEAR	6	[0, 0, 0]	-999	PAL1	0	R1207J
803.892	0.251	927149	STUDY_ORIENT	n/a	6	6	SAIL	n/a	STONE	SAIL	6	[0, 0, 0]	-999	PAL1	0	R1207J
804.143	0.583	927400	STUDY_ORIENT_OFF	n/a	6	6	SAIL	n/a	STONE	SAIL	6	[0, 0, 0]	-999	PAL1	0	R1207J
804.726	4.017	927983	STUDY_PAIR	n/a	6	6	SAIL	n/a	STONE	SAIL	6	[0, 0, 0]	-999	PAL1	0	R1207J
808.743	1.001	932000	PAIR_OFF	n/a	6	6	SAIL	n/a	STONE	SAIL	6	[0, 0, 0]	-999	PAL1	0	R1207J
809.744	0.0	933001	ENCODING_END	n/a	-999	-999	n/a	n/a	n/a	n/a	6	[0, 0, 0]	-999	PAL1	0	R1207J
809.744	0.0	933001	MATH_START	n/a	-999	-999	n/a	n/a	n/a	n/a	6	[0, 0, 0]	-999	PAL1	0	R1207J
809.744	0.015	933001	START	n/a	-999	-999	n/a	n/a	n/a	n/a	6	[-999, -999, -999]	-999	PAL1	0	R1207J
809.759	4.452	933016	PROB	4422	-999	-999	n/a	n/a	n/a	n/a	6	[3, 6, 4]	13	PAL1	0	R1207J
814.211	3.984	937468	PROB	3962	-999	-999	n/a	n/a	n/a	n/a	6	[7, 4, 4]	16	PAL1	0	R1207J
818.195	4.068	941452	PROB	4034	-999	-999	n/a	n/a	n/a	n/a	6	[6, 2, 4]	12	PAL1	0	R1207J
822.263	5.266	945520	PROB	5230	-999	-999	n/a	n/a	n/a	n/a	6	[4, 4, 9]	17	PAL1	0	R1207J
827.529	5.33	950786	PROB	5330	-999	-999	n/a	n/a	n/a	n/a	6	[5, 9, 6]	20	PAL1	0	R1207J
832.859	0.021	956116	STOP	n/a	-999	-999	n/a	n/a	n/a	n/a	6	[-999, -999, -999]	-999	PAL1	0	R1207J
832.88	0.0	956137	RECALL_START	n/a	-999	-999	n/a	n/a	n/a	n/a	6	[0, 0, 0]	-999	PAL1	0	R1207J
832.88	0.016	956137	MATH_END	n/a	-999	-999	n/a	n/a	n/a	n/a	6	[0, 0, 0]	-999	PAL1	0	R1207J
832.896	0.268	956153	TEST_ORIENT	n/a	1	1	SPRING	n/a	TEA	SPRING	6	[0, 0, 0]	-999	PAL1	0	R1207J
833.164	0.582	956421	RETRIEVAL_ORIENT_OFF	n/a	-999	-999	n/a	n/a	n/a	n/a	6	[0, 0, 0]	-999	PAL1	0	R1207J
833.746	0.001	957003	TEST_PROBE	n/a	1	1	SPRING	n/a	TEA	SPRING	6	[0, 0, 0]	-999	PAL1	0	R1207J
833.747	2.87	957004	REC_START	n/a	1	-999	n/a	n/a	n/a	n/a	6	[0, 0, 0]	-999	PAL1	0	R1207J
836.617	1.147	959874	REC_EVENT	2870	1	1	SPRING	<>	TEA	SPRING	6	[0, 0, 0]	-999	PAL1	0	R1207J
837.764	1.0	961021	PROBE_OFF	n/a	1	-999	n/a	n/a	n/a	n/a	6	[0, 0, 0]	-999	PAL1	0	R1207J
838.764	0.016	962021	REC_END	n/a	1	-999	n/a	n/a	n/a	n/a	6	[0, 0, 0]	-999	PAL1	0	R1207J
838.78	0.267	962037	TEST_ORIENT	n/a	2	2	PANTS	n/a	GATE	PANTS	6	[0, 0, 0]	-999	PAL1	0	R1207J
839.047	0.65	962304	RETRIEVAL_ORIENT_OFF	n/a	1	-999	n/a	n/a	n/a	n/a	6	[0, 0, 0]	-999	PAL1	0	R1207J
839.697	0.001	962954	TEST_PROBE	n/a	2	2	PANTS	n/a	GATE	PANTS	6	[0, 0, 0]	-999	PAL1	0	R1207J
839.698	4.016	962955	REC_START	n/a	2	-999	n/a	n/a	n/a	n/a	6	[0, 0, 0]	-999	PAL1	0	R1207J
843.714	0.299	966971	PROBE_OFF	n/a	2	-999	n/a	n/a	n/a	n/a	6	[0, 0, 0]	-999	PAL1	0	R1207J
844.013	0.701	967270	REC_EVENT	4315	2	2	PANTS	<>	GATE	PANTS	6	[0, 0, 0]	-999	PAL1	0	R1207J
844.714	0.017	967971	REC_END	n/a	2	-999	n/a	n/a	n/a	n/a	6	[0, 0, 0]	-999	PAL1	0	R1207J
844.731	0.267	967988	TEST_ORIENT	n/a	3	3	TOOTH	n/a	MOOSE	TOOTH	6	[0, 0, 0]	-999	PAL1	0	R1207J
844.998	0.533	968255	RETRIEVAL_ORIENT_OFF	n/a	2	-999	n/a	n/a	n/a	n/a	6	[0, 0, 0]	-999	PAL1	0	R1207J
845.531	0.001	968788	TEST_PROBE	n/a	3	3	TOOTH	n/a	MOOSE	TOOTH	6	[0, 0, 0]	-999	PAL1	0	R1207J
845.532	2.617	968789	REC_START	n/a	3	-999	n/a	n/a	n/a	n/a	6	[0, 0, 0]	-999	PAL1	0	R1207J
848.149	1.399	971406	REC_EVENT	2617	3	3	TOOTH	<>	MOOSE	TOOTH	6	[0, 0, 0]	-999	PAL1	0	R1207J
849.548	1.0	972805	PROBE_OFF	n/a	3	-999	n/a	n/a	n/a	n/a	6	[0, 0, 0]	-999	PAL1	0	R1207J
850.548	0.017	973805	REC_END	n/a	3	-999	n/a	n/a	n/a	n/a	6	[0, 0, 0]	-999	PAL1	0	R1207J
850.565	0.267	973822	TEST_ORIENT	n/a	4	4	TOAD	n/a	ELF	TOAD	6	[0, 0, 0]	-999	PAL1	0	R1207J
850.832	0.7	974089	RETRIEVAL_ORIENT_OFF	n/a	3	-999	n/a	n/a	n/a	n/a	6	[0, 0, 0]	-999	PAL1	0	R1207J
851.532	0.0	974789	TEST_PROBE	n/a	4	4	TOAD	n/a	ELF	TOAD	6	[0, 0, 0]	-999	PAL1	0	R1207J
851.532	4.017	974789	REC_START	n/a	4	-999	n/a	n/a	n/a	n/a	6	[0, 0, 0]	-999	PAL1	0	R1207J
855.549	0.998	978806	PROBE_OFF	n/a	4	-999	n/a	n/a	n/a	n/a	6	[0, 0, 0]	-999	PAL1	0	R1207J
856.547	0.002	979804	REC_EVENT	5015	4	4	TOAD	<>	ELF	TOAD	6	[0, 0, 0]	-999	PAL1	0	R1207J
856.549	0.017	979806	REC_END	n/a	4	-999	n/a	n/a	n/a	n/a	6	[0, 0, 0]	-999	PAL1	0	R1207J
856.566	0.267	979823	TEST_ORIENT	n/a	5	5	SALT	SPRING	SALT	SPEAR	6	[0, 0, 0]	-999	PAL1	0	R1207J
856.833	0.634	980090	RETRIEVAL_ORIENT_OFF	n/a	4	-999	n/a	n/a	n/a	n/a	6	[0, 0, 0]	-999	PAL1	0	R1207J
857.467	0.001	980724	TEST_PROBE	n/a	5	5	SALT	SPRING	SALT	SPEAR	6	[0, 0, 0]	-999	PAL1	0	R1207J
857.468	1.707	980725	REC_START	n/a	5	-999	n/a	SPRING	n/a	n/a	6	[0, 0, 0]	-999	PAL1	0	R1207J
859.175	2.309	982432	REC_EVENT	1707	5	5	SALT	SPRING	SALT	SPEAR	6	[0, 0, 0]	-999	PAL1	0	R1207J
861.484	1.001	984741	PROBE_OFF	n/a	5	-999	n/a	n/a	n/a	n/a	6	[0, 0, 0]	-999	PAL1	0	R1207J
862.485	0.015	985742	REC_END	n/a	5	-999	n/a	n/a	n/a	n/a	6	[0, 0, 0]	-999	PAL1	0	R1207J
862.5	0.267	985757	TEST_ORIENT	n/a	6	6	SAIL	n/a	STONE	SAIL	6	[0, 0, 0]	-999	PAL1	0	R1207J
862.767	0.634	986024	RETRIEVAL_ORIENT_OFF	n/a	5	-999	n/a	n/a	n/a	n/a	6	[0, 0, 0]	-999	PAL1	0	R1207J
863.401	0.001	986658	TEST_PROBE	n/a	6	6	SAIL	n/a	STONE	SAIL	6	[0, 0, 0]	-999	PAL1	0	R1207J
863.402	4.017	986659	REC_START	n/a	6	-999	n/a	n/a	n/a	n/a	6	[0, 0, 0]	-999	PAL1	0	R1207J
867.419	1.0	990676	PROBE_OFF	n/a	6	-999	n/a	n/a	n/a	n/a	6	[0, 0, 0]	-999	PAL1	0	R1207J
868.419	0.004	991676	REC_END	n/a	6	-999	n/a	n/a	n/a	n/a	6	[0, 0, 0]	-999	PAL1	0	R1207J
868.423	0.008	991680	REC_EVENT	5021	6	6	SAIL	<>	STONE	SAIL	6	[0, 0, 0]	-999	PAL1	0	R1207J
868.431	3.838	991688	RECALL_END	n/a	-999	-999	n/a	n/a	n/a	n/a	6	[0, 0, 0]	-999	PAL1	0	R1207J
872.269	10.929	995526	TRIAL	n/a	-999	-999	n/a	n/a	n/a	n/a	7	[0, 0, 0]	-999	PAL1	0	R1207J
883.198	0.006	1006455	ENCODING_START	n/a	-999	-999	n/a	n/a	n/a	n/a	7	[0, 0, 0]	-999	PAL1	0	R1207J
883.204	0.267	1006461	STUDY_ORIENT	n/a	1	3	FENCE	n/a	FENCE	ARM	7	[0, 0, 0]	-999	PAL1	0	R1207J
883.471	0.532	1006728	STUDY_ORIENT_OFF	n/a	1	3	FENCE	n/a	FENCE	ARM	7	[0, 0, 0]	-999	PAL1	0	R1207J
884.003	4.018	1007260	STUDY_PAIR	n/a	1	3	FENCE	n/a	FENCE	ARM	7	[0, 0, 0]	-999	PAL1	0	R1207J
888.021	1.016	1011278	PAIR_OFF	n/a	1	3	FENCE	n/a	FENCE	ARM	7	[0, 0, 0]	-999	PAL1	0	R1207J
889.037	0.251	1012294	STUDY_ORIENT	n/a	2	6	BROOM	n/a	BROOM	STAIR	7	[0, 0, 0]	-999	PAL1	0	R1207J
889.288	0.616	1012545	STUDY_ORIENT_OFF	n/a	2	6	BROOM	n/a	BROOM	STAIR	7	[0, 0, 0]	-999	PAL1	0	R1207J
889.904	4.017	1013161	STUDY_PAIR	n/a	2	6	BROOM	n/a	BROOM	STAIR	7	[0, 0, 0]	-999	PAL1	0	R1207J
893.921	1.017	1017178	PAIR_OFF	n/a	2	6	BROOM	n/a	BROOM	STAIR	7	[0, 0, 0]	-999	PAL1	0	R1207J
894.938	0.268	1018195	STUDY_ORIENT	n/a	3	1	POND	MOUSE	MOUTH	POND	7	[0, 0, 0]	-999	PAL1	0	R1207J
895.206	0.515	1018463	STUDY_ORIENT_OFF	n/a	3	1	POND	MOUSE	MOUTH	POND	7	[0, 0, 0]	-999	PAL1	0	R1207J
895.721	4.017	1018978	STUDY_PAIR	n/a	3	1	POND	MOUSE	MOUTH	POND	7	[0, 0, 0]	-999	PAL1	0	R1207J
899.738	1.017	1022995	PAIR_OFF	n/a	3	1	POND	MOUSE	MOUTH	POND	7	[0, 0, 0]	-999	PAL1	0	R1207J
900.755	0.267	1024012	STUDY_ORIENT	n/a	4	4	BARN	n/a	BARN	FAN	7	[0, 0, 0]	-999	PAL1	0	R1207J
901.022	0.7	1024279	STUDY_ORIENT_OFF	n/a	4	4	BARN	n/a	BARN	FAN	7	[0, 0, 0]	-999	PAL1	0	R1207J
901.722	4.017	1024979	STUDY_PAIR	n/a	4	4	BARN	n/a	BARN	FAN	7	[0, 0, 0]	-999	PAL1	0	R1207J
905.739	1.017	1028996	PAIR_OFF	n/a	4	4	BARN	n/a	BARN	FAN	7	[0, 0, 0]	-999	PAL1	0	R1207J
906.756	0.267	1030013	STUDY_ORIENT	n/a	5	5	HORN	n/a	HORN	TOY	7	[0, 0, 0]	-999	PAL1	0	R1207J
907.023	0.567	1030280	STUDY_ORIENT_OFF	n/a	5	5	HORN	n/a	HORN	TOY	7	[0, 0, 0]	-999	PAL1	0	R1207J
907.59	4.017	1030847	STUDY_PAIR	n/a	5	5	HORN	n/a	HORN	TOY	7	[0, 0, 0]	-999	PAL1	0	R1207J
911.607	1.017	1034864	PAIR_OFF	n/a	5	5	HORN	n/a	HORN	TOY	7	[0, 0, 0]	-999	PAL1	0	R1207J
912.624	0.266	1035881	STUDY_ORIENT	n/a	6	2	CRANE	n/a	PLATE	CRANE	7	[0, 0, 0]	-999	PAL1	0	R1207J
912.89	0.65	1036147	STUDY_ORIENT_OFF	n/a	6	2	CRANE	n/a	PLATE	CRANE	7	[0, 0, 0]	-999	PAL1	0	R1207J
913.54	4.018	1036797	STUDY_PAIR	n/a	6	2	CRANE	n/a	PLATE	CRANE	7	[0, 0, 0]	-999	PAL1	0	R1207J
917.558	1.001	1040815	PAIR_OFF	n/a	6	2	CRANE	n/a	PLATE	CRANE	7	[0, 0, 0]	-999	PAL1	0	R1207J
918.559	0.0	1041816	ENCODING_END	n/a	-999	-999	n/a	n/a	n/a	n/a	7	[0, 0, 0]	-999	PAL1	0	R1207J
918.559	0.0	1041816	MATH_START	n/a	-999	-999	n/a	n/a	n/a	n/a	7	[0, 0, 0]	-999	PAL1	0	R1207J
918.559	0.015	1041816	START	n/a	-999	-999	n/a	n/a	n/a	n/a	7	[-999, -999, -999]	-999	PAL1	0	R1207J
918.574	4.051	1041831	PROB	4018	-999	-999	n/a	n/a	n/a	n/a	7	[7, 3, 9]	19	PAL1	0	R1207J
922.625	3.651	1045882	PROB	3624	-999	-999	n/a	n/a	n/a	n/a	7	[6, 1, 3]	10	PAL1	0	R1207J
926.276	4.45	1049533	PROB	4428	-999	-999	n/a	n/a	n/a	n/a	7	[6, 7, 5]	18	PAL1	0	R1207J
930.726	3.984	1053983	PROB	3962	-999	-999	n/a	n/a	n/a	n/a	7	[6, 5, 2]	13	PAL1	0	R1207J
934.71	3.978	1057967	PROB	3978	-999	-999	n/a	n/a	n/a	n/a	7	[6, 3, 7]	16	PAL1	0	R1207J
938.688	0.006	1061945	STOP	n/a	-999	-999	n/a	n/a	n/a	n/a	7	[-999, -999, -999]	-999	PAL1	0	R1207J
938.694	0.0	1061951	MATH_END	n/a	-999	-999	n/a	n/a	n/a	n/a	7	[0, 0, 0]	-999	PAL1	0	R1207J
938.694	0.016	1061951	RECALL_START	n/a	-999	-999	n/a	n/a	n/a	n/a	7	[0, 0, 0]	-999	PAL1	0	R1207J
938.71	0.267	1061967	TEST_ORIENT	n/a	3	1	POND	MOUSE	MOUTH	POND	7	[0, 0, 0]	-999	PAL1	0	R1207J
938.977	0.567	1062234	RETRIEVAL_ORIENT_OFF	n/a	-999	-999	n/a	n/a	n/a	n/a	7	[0, 0, 0]	-999	PAL1	0	R1207J
939.544	0.001	1062801	TEST_PROBE	n/a	3	1	POND	MOUSE	MOUTH	POND	7	[0, 0, 0]	-999	PAL1	0	R1207J
939.545	1.637	1062802	REC_START	n/a	3	-999	n/a	MOUSE	n/a	n/a	7	[0, 0, 0]	-999	PAL1	0	R1207J
941.182	2.379	1064439	REC_EVENT	1637	3	1	POND	MOUSE	MOUTH	POND	7	[0, 0, 0]	-999	PAL1	0	R1207J
943.561	1.001	1066818	PROBE_OFF	n/a	3	-999	n/a	n/a	n/a	n/a	7	[0, 0, 0]	-999	PAL1	0	R1207J
944.562	0.016	1067819	REC_END	n/a	3	-999	n/a	n/a	n/a	n/a	7	[0, 0, 0]	-999	PAL1	0	R1207J
944.578	0.267	1067835	TEST_ORIENT	n/a	6	2	CRANE	n/a	PLATE	CRANE	7	[0, 0, 0]	-999	PAL1	0	R1207J
944.845	0.7	1068102	RETRIEVAL_ORIENT_OFF	n/a	3	-999	n/a	n/a	n/a	n/a	7	[0, 0, 0]	-999	PAL1	0	R1207J
945.545	0.001	1068802	TEST_PROBE	n/a	6	2	CRANE	n/a	PLATE	CRANE	7	[0, 0, 0]	-999	PAL1	0	R1207J
945.546	4.016	1068803	REC_START	n/a	6	-999	n/a	n/a	n/a	n/a	7	[0, 0, 0]	-999	PAL1	0	R1207J
949.562	1.012	1072819	PROBE_OFF	n/a	6	-999	n/a	n/a	n/a	n/a	7	[0, 0, 0]	-999	PAL1	0	R1207J
950.574	0.004	1073831	REC_END	n/a	6	-999	n/a	n/a	n/a	n/a	7	[0, 0, 0]	-999	PAL1	0	R1207J
950.578	0.017	1073835	REC_EVENT	5032	6	2	CRANE	<>	PLATE	CRANE	7	[0, 0, 0]	-999	PAL1	0	R1207J
950.595	0.267	1073852	TEST_ORIENT	n/a	1	3	FENCE	n/a	FENCE	ARM	7	[0, 0, 0]	-999	PAL1	0	R1207J
950.862	0.7	1074119	RETRIEVAL_ORIENT_OFF	n/a	6	-999	n/a	n/a	n/a	n/a	7	[0, 0, 0]	-999	PAL1	0	R1207J
951.562	0.001	1074819	TEST_PROBE	n/a	1	3	FENCE	n/a	FENCE	ARM	7	[0, 0, 0]	-999	PAL1	0	R1207J
951.563	4.017	1074820	REC_START	n/a	1	-999	n/a	n/a	n/a	n/a	7	[0, 0, 0]	-999	PAL1	0	R1207J
955.58	0.563	1078837	PROBE_OFF	n/a	1	-999	n/a	n/a	n/a	n/a	7	[0, 0, 0]	-999	PAL1	0	R1207J
956.143	0.437	1079400	REC_EVENT	4580	1	3	FENCE	<>	FENCE	ARM	7	[0, 0, 0]	-999	PAL1	0	R1207J
956.58	0.016	1079837	REC_END	n/a	1	-999	n/a	n/a	n/a	n/a	7	[0, 0, 0]	-999	PAL1	0	R1207J
956.596	0.267	1079853	TEST_ORIENT	n/a	4	4	BARN	n/a	BARN	FAN	7	[0, 0, 0]	-999	PAL1	0	R1207J
956.863	0.7	1080120	RETRIEVAL_ORIENT_OFF	n/a	1	-999	n/a	n/a	n/a	n/a	7	[0, 0, 0]	-999	PAL1	0	R1207J
957.563	0.001	1080820	TEST_PROBE	n/a	4	4	BARN	n/a	BARN	FAN	7	[0, 0, 0]	-999	PAL1	0	R1207J
957.564	4.016	1080821	REC_START	n/a	4	-999	n/a	n/a	n/a	n/a	7	[0, 0, 0]	-999	PAL1	0	R1207J
961.58	0.999	1084837	PROBE_OFF	n/a	4	-999	n/a	n/a	n/a	n/a	7	[0, 0, 0]	-999	PAL1	0	R1207J
962.579	0.002	1085836	REC_EVENT	5015	4	4	BARN	<>	BARN	FAN	7	[0, 0, 0]	-999	PAL1	0	R1207J
962.581	0.016	1085838	REC_END	n/a	4	-999	n/a	n/a	n/a	n/a	7	[0, 0, 0]	-999	PAL1	0	R1207J
962.597	0.267	1085854	TEST_ORIENT	n/a	5	5	HORN	n/a	HORN	TOY	7	[0, 0, 0]	-999	PAL1	0	R1207J
962.864	0.733	1086121	RETRIEVAL_ORIENT_OFF	n/a	4	-999	n/a	n/a	n/a	n/a	7	[0, 0, 0]	-999	PAL1	0	R1207J
963.597	0.001	1086854	TEST_PROBE	n/a	5	5	HORN	n/a	HORN	TOY	7	[0, 0, 0]	-999	PAL1	0	R1207J
963.598	1.24	1086855	REC_START	n/a	5	-999	n/a	n/a	n/a	n/a	7	[0, 0, 0]	-999	PAL1	0	R1207J
964.838	2.776	1088095	REC_EVENT	1240	5	5	HORN	<>	HORN	TOY	7	[0, 0, 0]	-999	PAL1	0	R1207J
967.614	1.001	1090871	PROBE_OFF	n/a	5	-999	n/a	n/a	n/a	n/a	7	[0, 0, 0]	-999	PAL1	0	R1207J
968.615	0.016	1091872	REC_END	n/a	5	-999	n/a	n/a	n/a	n/a	7	[0, 0, 0]	-999	PAL1	0	R1207J
968.631	0.267	1091888	TEST_ORIENT	n/a	2	6	BROOM	n/a	BROOM	STAIR	7	[0, 0, 0]	-999	PAL1	0	R1207J
968.898	0.551	1092155	RETRIEVAL_ORIENT_OFF	n/a	5	-999	n/a	n/a	n/a	n/a	7	[0, 0, 0]	-999	PAL1	0	R1207J
969.449	0.0	1092706	TEST_PROBE	n/a	2	6	BROOM	n/a	BROOM	STAIR	7	[0, 0, 0]	-999	PAL1	0	R1207J
969.449	4.017	1092706	REC_START	n/a	2	-999	n/a	n/a	n/a	n/a	7	[0, 0, 0]	-999	PAL1	0	R1207J
973.466	1.001	1096723	PROBE_OFF	n/a	2	-999	n/a	n/a	n/a	n/a	7	[0, 0, 0]	-999	PAL1	0	R1207J
974.467	0.003	1097724	REC_END	n/a	2	-999	n/a	n/a	n/a	n/a	7	[0, 0, 0]	-999	PAL1	0	R1207J
974.47	0.007	1097727	REC_EVENT	5021	2	6	BROOM	<>	BROOM	STAIR	7	[0, 0, 0]	-999	PAL1	0	R1207J
974.477	5.238	1097734	RECALL_END	n/a	-999	-999	n/a	n/a	n/a	n/a	7	[0, 0, 0]	-999	PAL1	0	R1207J
979.715	10.929	1102972	TRIAL	n/a	-999	-999	n/a	n/a	n/a	n/a	8	[0, 0, 0]	-999	PAL1	0	R1207J
990.644	0.007	1113901	ENCODING_START	n/a	-999	-999	n/a	n/a	n/a	n/a	8	[0, 0, 0]	-999	PAL1	0	R1207J
990.651	0.266	1113908	STUDY_ORIENT	n/a	1	3	GLASS	n/a	GLASS	PIE	8	[0, 0, 0]	-999	PAL1	0	R1207J
990.917	0.65	1114174	STUDY_ORIENT_OFF	n/a	1	3	GLASS	n/a	GLASS	PIE	8	[0, 0, 0]	-999	PAL1	0	R1207J
991.567	4.018	1114824	STUDY_PAIR	n/a	1	3	GLASS	n/a	GLASS	PIE	8	[0, 0, 0]	-999	PAL1	0	R1207J
995.585	1.017	1118842	PAIR_OFF	n/a	1	3	GLASS	n/a	GLASS	PIE	8	[0, 0, 0]	-999	PAL1	0	R1207J
996.602	0.266	1119859	STUDY_ORIENT	n/a	2	2	SNOW	n/a	SWAMP	SNOW	8	[0, 0, 0]	-999	PAL1	0	R1207J
996.868	0.551	1120125	STUDY_ORIENT_OFF	n/a	2	2	SNOW	n/a	SWAMP	SNOW	8	[0, 0, 0]	-999	PAL1	0	R1207J
997.419	4.018	1120676	STUDY_PAIR	n/a	2	2	SNOW	n/a	SWAMP	SNOW	8	[0, 0, 0]	-999	PAL1	0	R1207J
1001.437	1.017	1124694	PAIR_OFF	n/a	2	2	SNOW	n/a	SWAMP	SNOW	8	[0, 0, 0]	-999	PAL1	0	R1207J
1002.454	0.265	1125711	STUDY_ORIENT	n/a	3	5	GRASS	n/a	MAP	GRASS	8	[0, 0, 0]	-999	PAL1	0	R1207J
1002.719	0.718	1125976	STUDY_ORIENT_OFF	n/a	3	5	GRASS	n/a	MAP	GRASS	8	[0, 0, 0]	-999	PAL1	0	R1207J
1003.437	4.017	1126694	STUDY_PAIR	n/a	3	5	GRASS	n/a	MAP	GRASS	8	[0, 0, 0]	-999	PAL1	0	R1207J
1007.454	1.017	1130711	PAIR_OFF	n/a	3	5	GRASS	n/a	MAP	GRASS	8	[0, 0, 0]	-999	PAL1	0	R1207J
1008.471	0.265	1131728	STUDY_ORIENT	n/a	4	6	STREET	n/a	STREET	CAGE	8	[0, 0, 0]	-999	PAL1	0	R1207J
1008.736	0.618	1131993	STUDY_ORIENT_OFF	n/a	4	6	STREET	n/a	STREET	CAGE	8	[0, 0, 0]	-999	PAL1	0	R1207J
1009.354	4.018	1132611	STUDY_PAIR	n/a	4	6	STREET	n/a	STREET	CAGE	8	[0, 0, 0]	-999	PAL1	0	R1207J
1013.372	1.016	1136629	PAIR_OFF	n/a	4	6	STREET	n/a	STREET	CAGE	8	[0, 0, 0]	-999	PAL1	0	R1207J
1014.388	0.266	1137645	STUDY_ORIENT	n/a	5	1	MAZE	FLUTE	FLUTE	MAZE	8	[0, 0, 0]	-999	PAL1	0	R1207J
1014.654	0.585	1137911	STUDY_ORIENT_OFF	n/a	5	1	MAZE	FLUTE	FLUTE	MAZE	8	[0, 0, 0]	-999	PAL1	0	R1207J
1015.239	4.017	1138496	STUDY_PAIR	n/a	5	1	MAZE	FLUTE	FLUTE	MAZE	8	[0, 0, 0]	-999	PAL1	0	R1207J
1019.256	1.016	1142513	PAIR_OFF	n/a	5	1	MAZE	FLUTE	FLUTE	MAZE	8	[0, 0, 0]	-999	PAL1	0	R1207J
1020.272	0.266	1143529	STUDY_ORIENT	n/a	6	4	STOOL	n/a	SHELL	STOOL	8	[0, 0, 0]	-999	PAL1	0	R1207J
1020.538	0.718	1143795	STUDY_ORIENT_OFF	n/a	6	4	STOOL	n/a	SHELL	STOOL	8	[0, 0, 0]	-999	PAL1	0	R1207J
1021.256	4.017	1144513	STUDY_PAIR	n/a	6	4	STOOL	n/a	SHELL	STOOL	8	[0, 0, 0]	-999	PAL1	0	R1207J
1025.273	1.001	1148530	PAIR_OFF	n/a	6	4	STOOL	n/a	SHELL	STOOL	8	[0, 0, 0]	-999	PAL1	0	R1207J
1026.274	0.0	1149531	ENCODING_END	n/a	-999	-999	n/a	n/a	n/a	n/a	8	[0, 0, 0]	-999	PAL1	0	R1207J
1026.274	0.0	1149531	MATH_START	n/a	-999	-999	n/a	n/a	n/a	n/a	8	[0, 0, 0]	-999	PAL1	0	R1207J
1026.274	0.016	1149531	START	n/a	-999	-999	n/a	n/a	n/a	n/a	8	[-999, -999, -999]	-999	PAL1	0	R1207J
1026.29	4.583	1149547	PROB	4547	-999	-999	n/a	n/a	n/a	n/a	8	[8, 8, 9]	24	PAL1	0	R1207J
1030.873	5.252	1154130	PROB	5220	-999	-999	n/a	n/a	n/a	n/a	8	[3, 6, 5]	14	PAL1	0	R1207J
1036.125	8.4	1159382	PROB	8368	-999	-999	n/a	n/a	n/a	n/a	8	[3, 1, 8]	12	PAL1	0	R1207J
1044.525	5.319	1167781	PROB	5319	-999	-999	n/a	n/a	n/a	n/a	8	[3, 6, 8]	17	PAL1	0	R1207J
1049.844	0.014	1173100	STOP	n/a	-999	-999	n/a	n/a	n/a	n/a	8	[-999, -999, -999]	-999	PAL1	0	R1207J
1049.858	0.001	1173114	MATH_END	n/a	-999	-999	n/a	n/a	n/a	n/a	8	[0, 0, 0]	-999	PAL1	0	R1207J
1049.859	0.016	1173115	RECALL_START	n/a	-999	-999	n/a	n/a	n/a	n/a	8	[0, 0, 0]	-999	PAL1	0	R1207J
1049.875	0.268	1173131	TEST_ORIENT	n/a	5	1	MAZE	FLUTE	FLUTE	MAZE	8	[0, 0, 0]	-999	PAL1	0	R1207J
1050.143	0.532	1173399	RETRIEVAL_ORIENT_OFF	n/a	-999	-999	n/a	n/a	n/a	n/a	8	[0, 0, 0]	-999	PAL1	0	R1207J
1050.675	0.001	1173931	TEST_PROBE	n/a	5	1	MAZE	FLUTE	FLUTE	MAZE	8	[0, 0, 0]	-999	PAL1	0	R1207J
1050.676	1.298	1173932	REC_START	n/a	5	-999	n/a	FLUTE	n/a	n/a	8	[0, 0, 0]	-999	PAL1	0	R1207J
1051.974	2.719	1175230	REC_EVENT	1298	5	1	MAZE	FLUTE	FLUTE	MAZE	8	[0, 0, 0]	-999	PAL1	0	R1207J
1054.693	1.0	1177949	PROBE_OFF	n/a	5	-999	n/a	n/a	n/a	n/a	8	[0, 0, 0]	-999	PAL1	0	R1207J
1055.693	0.017	1178949	REC_END	n/a	5	-999	n/a	n/a	n/a	n/a	8	[0, 0, 0]	-999	PAL1	0	R1207J
1055.71	0.266	1178966	TEST_ORIENT	n/a	2	2	SNOW	n/a	SWAMP	SNOW	8	[0, 0, 0]	-999	PAL1	0	R1207J
1055.976	0.617	1179232	RETRIEVAL_ORIENT_OFF	n/a	5	-999	n/a	n/a	n/a	n/a	8	[0, 0, 0]	-999	PAL1	0	R1207J
1056.593	0.0	1179849	TEST_PROBE	n/a	2	2	SNOW	n/a	SWAMP	SNOW	8	[0, 0, 0]	-999	PAL1	0	R1207J
1056.593	4.017	1179849	REC_START	n/a	2	-999	n/a	n/a	n/a	n/a	8	[0, 0, 0]	-999	PAL1	0	R1207J
1060.61	0.998	1183866	PROBE_OFF	n/a	2	-999	n/a	n/a	n/a	n/a	8	[0, 0, 0]	-999	PAL1	0	R1207J
1061.608	0.002	1184864	REC_EVENT	5015	2	2	SNOW	<>	SWAMP	SNOW	8	[0, 0, 0]	-999	PAL1	0	R1207J
1061.61	0.017	1184866	REC_END	n/a	2	-999	n/a	n/a	n/a	n/a	8	[0, 0, 0]	-999	PAL1	0	R1207J
1061.627	0.267	1184883	TEST_ORIENT	n/a	1	3	GLASS	n/a	GLASS	PIE	8	[0, 0, 0]	-999	PAL1	0	R1207J
1061.894	0.551	1185150	RETRIEVAL_ORIENT_OFF	n/a	2	-999	n/a	n/a	n/a	n/a	8	[0, 0, 0]	-999	PAL1	0	R1207J
1062.445	0.001	1185701	TEST_PROBE	n/a	1	3	GLASS	n/a	GLASS	PIE	8	[0, 0, 0]	-999	PAL1	0	R1207J
1062.446	4.016	1185702	REC_START	n/a	1	-999	n/a	n/a	n/a	n/a	8	[0, 0, 0]	-999	PAL1	0	R1207J
1066.462	0.999	1189718	PROBE_OFF	n/a	1	-999	n/a	n/a	n/a	n/a	8	[0, 0, 0]	-999	PAL1	0	R1207J
1067.461	0.002	1190717	REC_EVENT	5015	1	3	GLASS	<>	GLASS	PIE	8	[0, 0, 0]	-999	PAL1	0	R1207J
1067.463	0.016	1190719	REC_END	n/a	1	-999	n/a	n/a	n/a	n/a	8	[0, 0, 0]	-999	PAL1	0	R1207J
1067.479	0.266	1190735	TEST_ORIENT	n/a	6	4	STOOL	n/a	SHELL	STOOL	8	[0, 0, 0]	-999	PAL1	0	R1207J
1067.745	0.634	1191001	RETRIEVAL_ORIENT_OFF	n/a	1	-999	n/a	n/a	n/a	n/a	8	[0, 0, 0]	-999	PAL1	0	R1207J
1068.379	0.001	1191635	TEST_PROBE	n/a	6	4	STOOL	n/a	SHELL	STOOL	8	[0, 0, 0]	-999	PAL1	0	R1207J
1068.38	2.879	1191636	REC_START	n/a	6	-999	n/a	n/a	n/a	n/a	8	[0, 0, 0]	-999	PAL1	0	R1207J
1071.259	0.767	1194515	REC_EVENT	2879	6	4	STOOL	<>	SHELL	STOOL	8	[0, 0, 0]	-999	PAL1	0	R1207J
1072.026	0.37	1195282	REC_EVENT	3646	6	4	STOOL	<>	SHELL	STOOL	8	[0, 0, 0]	-999	PAL1	0	R1207J
1072.396	0.349	1195652	PROBE_OFF	n/a	6	-999	n/a	n/a	n/a	n/a	8	[0, 0, 0]	-999	PAL1	0	R1207J
1072.745	0.651	1196001	REC_EVENT	4365	6	4	STOOL	<>	SHELL	STOOL	8	[0, 0, 0]	-999	PAL1	0	R1207J
1073.396	0.017	1196652	REC_END	n/a	6	-999	n/a	n/a	n/a	n/a	8	[0, 0, 0]	-999	PAL1	0	R1207J
1073.413	0.266	1196669	TEST_ORIENT	n/a	3	5	GRASS	n/a	MAP	GRASS	8	[0, 0, 0]	-999	PAL1	0	R1207J
1073.679	0.701	1196935	RETRIEVAL_ORIENT_OFF	n/a	6	-999	n/a	n/a	n/a	n/a	8	[0, 0, 0]	-999	PAL1	0	R1207J
1074.38	0.0	1197636	REC_START	n/a	3	-999	n/a	n/a	n/a	n/a	8	[0, 0, 0]	-999	PAL1	0	R1207J
1074.38	4.017	1197636	TEST_PROBE	n/a	3	5	GRASS	n/a	MAP	GRASS	8	[0, 0, 0]	-999	PAL1	0	R1207J
1078.397	0.998	1201653	PROBE_OFF	n/a	3	-999	n/a	n/a	n/a	n/a	8	[0, 0, 0]	-999	PAL1	0	R1207J
1079.395	0.002	1202651	REC_EVENT	5015	3	5	GRASS	<>	MAP	GRASS	8	[0, 0, 0]	-999	PAL1	0	R1207J
1079.397	0.017	1202653	REC_END	n/a	3	-999	n/a	n/a	n/a	n/a	8	[0, 0, 0]	-999	PAL1	0	R1207J
1079.414	0.265	1202670	TEST_ORIENT	n/a	4	6	STREET	n/a	STREET	CAGE	8	[0, 0, 0]	-999	PAL1	0	R1207J
1079.679	0.735	1202935	RETRIEVAL_ORIENT_OFF	n/a	3	-999	n/a	n/a	n/a	n/a	8	[0, 0, 0]	-999	PAL1	0	R1207J
1080.414	0.0	1203670	TEST_PROBE	n/a	4	6	STREET	n/a	STREET	CAGE	8	[0, 0, 0]	-999	PAL1	0	R1207J
1080.414	2.261	1203670	REC_START	n/a	4	-999	n/a	n/a	n/a	n/a	8	[0, 0, 0]	-999	PAL1	0	R1207J
1082.675	1.317	1205931	REC_EVENT	2261	4	6	STREET	<>	STREET	CAGE	8	[0, 0, 0]	-999	PAL1	0	R1207J
1083.992	0.439	1207248	REC_EVENT	3578	4	6	STREET	<>	STREET	CAGE	8	[0, 0, 0]	-999	PAL1	0	R1207J
1084.431	1.001	1207687	PROBE_OFF	n/a	4	-999	n/a	n/a	n/a	n/a	8	[0, 0, 0]	-999	PAL1	0	R1207J
1085.432	0.005	1208688	REC_END	n/a	4	-999	n/a	n/a	n/a	n/a	8	[0, 0, 0]	-999	PAL1	0	R1207J
1085.437	4.494	1208693	RECALL_END	n/a	-999	-999	n/a	n/a	n/a	n/a	8	[0, 0, 0]	-999	PAL1	0	R1207J
1089.931	10.929	1213187	TRIAL	n/a	-999	-999	n/a	n/a	n/a	n/a	9	[0, 0, 0]	-999	PAL1	0	R1207J
1100.86	0.006	1224116	ENCODING_START	n/a	-999	-999	n/a	n/a	n/a	n/a	9	[0, 0, 0]	-999	PAL1	0	R1207J
1100.866	0.267	1224122	STUDY_ORIENT	n/a	1	1	SPOON	n/a	SPOON	CAT	9	[0, 0, 0]	-999	PAL1	0	R1207J
1101.133	0.532	1224389	STUDY_ORIENT_OFF	n/a	1	1	SPOON	n/a	SPOON	CAT	9	[0, 0, 0]	-999	PAL1	0	R1207J
1101.665	4.001	1224921	STUDY_PAIR	n/a	1	1	SPOON	n/a	SPOON	CAT	9	[0, 0, 0]	-999	PAL1	0	R1207J
1105.666	1.017	1228922	PAIR_OFF	n/a	1	1	SPOON	n/a	SPOON	CAT	9	[0, 0, 0]	-999	PAL1	0	R1207J
1106.683	0.267	1229939	STUDY_ORIENT	n/a	2	4	EAR	n/a	EAR	CLOCK	9	[0, 0, 0]	-999	PAL1	0	R1207J
1106.95	0.617	1230206	STUDY_ORIENT_OFF	n/a	2	4	EAR	n/a	EAR	CLOCK	9	[0, 0, 0]	-999	PAL1	0	R1207J
1107.567	4.017	1230823	STUDY_PAIR	n/a	2	4	EAR	n/a	EAR	CLOCK	9	[0, 0, 0]	-999	PAL1	0	R1207J
1111.584	1.016	1234840	PAIR_OFF	n/a	2	4	EAR	n/a	EAR	CLOCK	9	[0, 0, 0]	-999	PAL1	0	R1207J
1112.6	0.267	1235856	STUDY_ORIENT	n/a	3	5	PET	n/a	PET	SHOE	9	[0, 0, 0]	-999	PAL1	0	R1207J
1112.867	0.667	1236123	STUDY_ORIENT_OFF	n/a	3	5	PET	n/a	PET	SHOE	9	[0, 0, 0]	-999	PAL1	0	R1207J
1113.534	4.017	1236790	STUDY_PAIR	n/a	3	5	PET	n/a	PET	SHOE	9	[0, 0, 0]	-999	PAL1	0	R1207J
1117.551	1.017	1240807	PAIR_OFF	n/a	3	5	PET	n/a	PET	SHOE	9	[0, 0, 0]	-999	PAL1	0	R1207J
1118.568	0.267	1241824	STUDY_ORIENT	n/a	4	2	WEED	DRIFT	FLAME	WEED	9	[0, 0, 0]	-999	PAL1	0	R1207J
1118.835	0.517	1242091	STUDY_ORIENT_OFF	n/a	4	2	WEED	DRIFT	FLAME	WEED	9	[0, 0, 0]	-999	PAL1	0	R1207J
1119.352	4.018	1242608	STUDY_PAIR	n/a	4	2	WEED	DRIFT	FLAME	WEED	9	[0, 0, 0]	-999	PAL1	0	R1207J
1123.37	1.017	1246626	PAIR_OFF	n/a	4	2	WEED	DRIFT	FLAME	WEED	9	[0, 0, 0]	-999	PAL1	0	R1207J
1124.387	0.265	1247643	STUDY_ORIENT	n/a	5	3	THREAD	n/a	THREAD	LAMB	9	[0, 0, 0]	-999	PAL1	0	R1207J
1124.652	0.735	1247908	STUDY_ORIENT_OFF	n/a	5	3	THREAD	n/a	THREAD	LAMB	9	[0, 0, 0]	-999	PAL1	0	R1207J
1125.387	4.017	1248643	STUDY_PAIR	n/a	5	3	THREAD	n/a	THREAD	LAMB	9	[0, 0, 0]	-999	PAL1	0	R1207J
1129.404	1.017	1252660	PAIR_OFF	n/a	5	3	THREAD	n/a	THREAD	LAMB	9	[0, 0, 0]	-999	PAL1	0	R1207J
1130.421	0.265	1253677	STUDY_ORIENT	n/a	6	6	DRUM	n/a	KEY	DRUM	9	[0, 0, 0]	-999	PAL1	0	R1207J
1130.686	0.651	1253942	STUDY_ORIENT_OFF	n/a	6	6	DRUM	n/a	KEY	DRUM	9	[0, 0, 0]	-999	PAL1	0	R1207J
1131.337	4.018	1254593	STUDY_PAIR	n/a	6	6	DRUM	n/a	KEY	DRUM	9	[0, 0, 0]	-999	PAL1	0	R1207J
1135.355	1.0	1258611	PAIR_OFF	n/a	6	6	DRUM	n/a	KEY	DRUM	9	[0, 0, 0]	-999	PAL1	0	R1207J
1136.355	0.0	1259611	ENCODING_END	n/a	-999	-999	n/a	n/a	n/a	n/a	9	[0, 0, 0]	-999	PAL1	0	R1207J
1136.355	0.001	1259611	MATH_START	n/a	-999	-999	n/a	n/a	n/a	n/a	9	[0, 0, 0]	-999	PAL1	0	R1207J
1136.356	0.016	1259612	START	n/a	-999	-999	n/a	n/a	n/a	n/a	9	[-999, -999, -999]	-999	PAL1	0	R1207J
1136.372	4.1	1259628	PROB	4062	-999	-999	n/a	n/a	n/a	n/a	9	[5, 2, 8]	15	PAL1	0	R1207J
1140.472	3.017	1263728	PROB	2986	-999	-999	n/a	n/a	n/a	n/a	9	[2, 2, 5]	9	PAL1	0	R1207J
1143.489	3.533	1266745	PROB	3504	-999	-999	n/a	n/a	n/a	n/a	9	[4, 1, 8]	13	PAL1	0	R1207J
1147.022	3.584	1270278	PROB	3555	-999	-999	n/a	n/a	n/a	n/a	9	[4, 9, 1]	14	PAL1	0	R1207J
1150.606	4.084	1273862	PROB	4058	-999	-999	n/a	n/a	n/a	n/a	9	[3, 3, 8]	14	PAL1	0	R1207J
1154.69	6.062	1277946	PROB	6062	-999	-999	n/a	n/a	n/a	n/a	9	[8, 5, 4]	17	PAL1	0	R1207J
1160.752	0.022	1284008	STOP	n/a	-999	-999	n/a	n/a	n/a	n/a	9	[-999, -999, -999]	-999	PAL1	0	R1207J
1160.774	0.0	1284030	MATH_END	n/a	-999	-999	n/a	n/a	n/a	n/a	9	[0, 0, 0]	-999	PAL1	0	R1207J
1160.774	0.016	1284030	RECALL_START	n/a	-999	-999	n/a	n/a	n/a	n/a	9	[0, 0, 0]	-999	PAL1	0	R1207J
1160.79	0.267	1284046	TEST_ORIENT	n/a	1	1	SPOON	n/a	SPOON	CAT	9	[0, 0, 0]	-999	PAL1	0	R1207J
1161.057	0.617	1284313	RETRIEVAL_ORIENT_OFF	n/a	-999	-999	n/a	n/a	n/a	n/a	9	[0, 0, 0]	-999	PAL1	0	R1207J
1161.674	0.001	1284930	TEST_PROBE	n/a	1	1	SPOON	n/a	SPOON	CAT	9	[0, 0, 0]	-999	PAL1	0	R1207J
1161.675	0.369	1284931	REC_START	n/a	1	-999	n/a	n/a	n/a	n/a	9	[0, 0, 0]	-999	PAL1	0	R1207J
1162.044	3.647	1285300	REC_EVENT	369	1	1	SPOON	<>	SPOON	CAT	9	[0, 0, 0]	-999	PAL1	0	R1207J
1165.691	1.011	1288947	PROBE_OFF	n/a	1	-999	n/a	n/a	n/a	n/a	9	[0, 0, 0]	-999	PAL1	0	R1207J
1166.702	0.023	1289958	REC_END	n/a	1	-999	n/a	n/a	n/a	n/a	9	[0, 0, 0]	-999	PAL1	0	R1207J
1166.725	0.266	1289981	TEST_ORIENT	n/a	4	2	WEED	DRIFT	FLAME	WEED	9	[0, 0, 0]	-999	PAL1	0	R1207J
1166.991	0.734	1290247	RETRIEVAL_ORIENT_OFF	n/a	1	-999	n/a	n/a	n/a	n/a	9	[0, 0, 0]	-999	PAL1	0	R1207J
1167.725	0.0	1290981	TEST_PROBE	n/a	4	2	WEED	DRIFT	FLAME	WEED	9	[0, 0, 0]	-999	PAL1	0	R1207J
1167.725	2.4	1290981	REC_START	n/a	4	-999	n/a	DRIFT	n/a	n/a	9	[0, 0, 0]	-999	PAL1	0	R1207J
1170.125	1.617	1293381	REC_EVENT	2400	4	2	WEED	DRIFT	FLAME	WEED	9	[0, 0, 0]	-999	PAL1	0	R1207J
1171.742	0.047	1294998	PROBE_OFF	n/a	4	-999	n/a	n/a	n/a	n/a	9	[0, 0, 0]	-999	PAL1	0	R1207J
1171.789	0.953	1295045	REC_EVENT	4064	4	2	WEED	<>	FLAME	WEED	9	[0, 0, 0]	-999	PAL1	0	R1207J
1172.742	0.016	1295998	REC_END	n/a	4	-999	n/a	n/a	n/a	n/a	9	[0, 0, 0]	-999	PAL1	0	R1207J
1172.758	0.267	1296014	TEST_ORIENT	n/a	5	3	THREAD	n/a	THREAD	LAMB	9	[0, 0, 0]	-999	PAL1	0	R1207J
1173.025	0.567	1296281	RETRIEVAL_ORIENT_OFF	n/a	4	-999	n/a	n/a	n/a	n/a	9	[0, 0, 0]	-999	PAL1	0	R1207J
1173.592	0.001	1296848	TEST_PROBE	n/a	5	3	THREAD	n/a	THREAD	LAMB	9	[0, 0, 0]	-999	PAL1	0	R1207J
1173.593	4.016	1296849	REC_START	n/a	5	-999	n/a	n/a	n/a	n/a	9	[0, 0, 0]	-999	PAL1	0	R1207J
1177.609	0.999	1300865	PROBE_OFF	n/a	5	-999	n/a	n/a	n/a	n/a	9	[0, 0, 0]	-999	PAL1	0	R1207J
1178.608	0.002	1301864	REC_EVENT	5015	5	3	THREAD	<>	THREAD	LAMB	9	[0, 0, 0]	-999	PAL1	0	R1207J
1178.61	0.016	1301866	REC_END	n/a	5	-999	n/a	n/a	n/a	n/a	9	[0, 0, 0]	-999	PAL1	0	R1207J
1178.626	0.267	1301882	TEST_ORIENT	n/a	2	4	EAR	n/a	EAR	CLOCK	9	[0, 0, 0]	-999	PAL1	0	R1207J
1178.893	0.534	1302149	RETRIEVAL_ORIENT_OFF	n/a	5	-999	n/a	n/a	n/a	n/a	9	[0, 0, 0]	-999	PAL1	0	R1207J
1179.427	0.001	1302683	TEST_PROBE	n/a	2	4	EAR	n/a	EAR	CLOCK	9	[0, 0, 0]	-999	PAL1	0	R1207J
1179.428	1.757	1302684	REC_START	n/a	2	-999	n/a	n/a	n/a	n/a	9	[0, 0, 0]	-999	PAL1	0	R1207J
1181.185	2.26	1304441	REC_EVENT	1757	2	4	EAR	<>	EAR	CLOCK	9	[0, 0, 0]	-999	PAL1	0	R1207J
1183.445	1.011	1306701	PROBE_OFF	n/a	2	-999	n/a	n/a	n/a	n/a	9	[0, 0, 0]	-999	PAL1	0	R1207J
1184.456	0.022	1307712	REC_END	n/a	2	-999	n/a	n/a	n/a	n/a	9	[0, 0, 0]	-999	PAL1	0	R1207J
1184.478	0.266	1307734	TEST_ORIENT	n/a	3	5	PET	n/a	PET	SHOE	9	[0, 0, 0]	-999	PAL1	0	R1207J
1184.744	0.668	1308000	RETRIEVAL_ORIENT_OFF	n/a	2	-999	n/a	n/a	n/a	n/a	9	[0, 0, 0]	-999	PAL1	0	R1207J
1185.412	0.0	1308668	REC_START	n/a	3	-999	n/a	n/a	n/a	n/a	9	[0, 0, 0]	-999	PAL1	0	R1207J
1185.412	4.017	1308668	TEST_PROBE	n/a	3	5	PET	n/a	PET	SHOE	9	[0, 0, 0]	-999	PAL1	0	R1207J
1189.429	1.0	1312685	PROBE_OFF	n/a	3	-999	n/a	n/a	n/a	n/a	9	[0, 0, 0]	-999	PAL1	0	R1207J
1190.429	0.004	1313685	REC_END	n/a	3	-999	n/a	n/a	n/a	n/a	9	[0, 0, 0]	-999	PAL1	0	R1207J
1190.433	0.012	1313689	REC_EVENT	5021	3	5	PET	<>	PET	SHOE	9	[0, 0, 0]	-999	PAL1	0	R1207J
1190.445	0.266	1313701	TEST_ORIENT	n/a	6	6	DRUM	n/a	KEY	DRUM	9	[0, 0, 0]	-999	PAL1	0	R1207J
1190.711	0.535	1313967	RETRIEVAL_ORIENT_OFF	n/a	3	-999	n/a	n/a	n/a	n/a	9	[0, 0, 0]	-999	PAL1	0	R1207J
1191.246	0.0	1314502	TEST_PROBE	n/a	6	6	DRUM	n/a	KEY	DRUM	9	[0, 0, 0]	-999	PAL1	0	R1207J
1191.246	4.017	1314502	REC_START	n/a	6	-999	n/a	n/a	n/a	n/a	9	[0, 0, 0]	-999	PAL1	0	R1207J
1195.263	0.998	1318519	PROBE_OFF	n/a	6	-999	n/a	n/a	n/a	n/a	9	[0, 0, 0]	-999	PAL1	0	R1207J
1196.261	0.002	1319517	REC_EVENT	5015	6	6	DRUM	<>	KEY	DRUM	9	[0, 0, 0]	-999	PAL1	0	R1207J
1196.263	0.012	1319519	REC_END	n/a	6	-999	n/a	n/a	n/a	n/a	9	[0, 0, 0]	-999	PAL1	0	R1207J
1196.275	7.371	1319531	RECALL_END	n/a	-999	-999	n/a	n/a	n/a	n/a	9	[0, 0, 0]	-999	PAL1	0	R1207J
1203.646	10.928	1326902	TRIAL	n/a	-999	-999	n/a	n/a	n/a	n/a	10	[0, 0, 0]	-999	PAL1	0	R1207J
1214.574	0.007	1337830	ENCODING_START	n/a	-999	-999	n/a	n/a	n/a	n/a	10	[0, 0, 0]	-999	PAL1	0	R1207J
1214.581	0.267	1337837	STUDY_ORIENT	n/a	1	1	THUMB	n/a	BOARD	THUMB	10	[0, 0, 0]	-999	PAL1	0	R1207J
1214.848	0.584	1338104	STUDY_ORIENT_OFF	n/a	1	1	THUMB	n/a	BOARD	THUMB	10	[0, 0, 0]	-999	PAL1	0	R1207J
1215.432	4.017	1338688	STUDY_PAIR	n/a	1	1	THUMB	n/a	BOARD	THUMB	10	[0, 0, 0]	-999	PAL1	0	R1207J
1219.449	1.017	1342705	PAIR_OFF	n/a	1	1	THUMB	n/a	BOARD	THUMB	10	[0, 0, 0]	-999	PAL1	0	R1207J
1220.466	0.266	1343722	STUDY_ORIENT	n/a	2	6	HOSE	n/a	TRASH	HOSE	10	[0, 0, 0]	-999	PAL1	0	R1207J
1220.732	0.534	1343988	STUDY_ORIENT_OFF	n/a	2	6	HOSE	n/a	TRASH	HOSE	10	[0, 0, 0]	-999	PAL1	0	R1207J
1221.266	4.017	1344522	STUDY_PAIR	n/a	2	6	HOSE	n/a	TRASH	HOSE	10	[0, 0, 0]	-999	PAL1	0	R1207J
1225.283	1.017	1348539	PAIR_OFF	n/a	2	6	HOSE	n/a	TRASH	HOSE	10	[0, 0, 0]	-999	PAL1	0	R1207J
1226.3	0.266	1349556	STUDY_ORIENT	n/a	3	3	CLOTH	n/a	PURSE	CLOTH	10	[0, 0, 0]	-999	PAL1	0	R1207J
1226.566	0.634	1349822	STUDY_ORIENT_OFF	n/a	3	3	CLOTH	n/a	PURSE	CLOTH	10	[0, 0, 0]	-999	PAL1	0	R1207J
1227.2	4.017	1350456	STUDY_PAIR	n/a	3	3	CLOTH	n/a	PURSE	CLOTH	10	[0, 0, 0]	-999	PAL1	0	R1207J
1231.217	1.017	1354473	PAIR_OFF	n/a	3	3	CLOTH	n/a	PURSE	CLOTH	10	[0, 0, 0]	-999	PAL1	0	R1207J
1232.234	0.266	1355490	STUDY_ORIENT	n/a	4	4	SEED	n/a	SPARK	SEED	10	[0, 0, 0]	-999	PAL1	0	R1207J
1232.5	0.601	1355756	STUDY_ORIENT_OFF	n/a	4	4	SEED	n/a	SPARK	SEED	10	[0, 0, 0]	-999	PAL1	0	R1207J
1233.101	4.017	1356357	STUDY_PAIR	n/a	4	4	SEED	n/a	SPARK	SEED	10	[0, 0, 0]	-999	PAL1	0	R1207J
1237.118	1.017	1360374	PAIR_OFF	n/a	4	4	SEED	n/a	SPARK	SEED	10	[0, 0, 0]	-999	PAL1	0	R1207J
1238.135	0.266	1361391	STUDY_ORIENT	n/a	5	5	SHARK	n/a	SHARK	BRIDGE	10	[0, 0, 0]	-999	PAL1	0	R1207J
1238.401	0.701	1361657	STUDY_ORIENT_OFF	n/a	5	5	SHARK	n/a	SHARK	BRIDGE	10	[0, 0, 0]	-999	PAL1	0	R1207J
1239.102	4.017	1362358	STUDY_PAIR	n/a	5	5	SHARK	n/a	SHARK	BRIDGE	10	[0, 0, 0]	-999	PAL1	0	R1207J
1243.119	1.017	1366375	PAIR_OFF	n/a	5	5	SHARK	n/a	SHARK	BRIDGE	10	[0, 0, 0]	-999	PAL1	0	R1207J
1244.136	0.266	1367392	STUDY_ORIENT	n/a	6	2	HAWK	n/a	JET	HAWK	10	[0, 0, 0]	-999	PAL1	0	R1207J
1244.402	0.616	1367658	STUDY_ORIENT_OFF	n/a	6	2	HAWK	n/a	JET	HAWK	10	[0, 0, 0]	-999	PAL1	0	R1207J
1245.018	4.017	1368274	STUDY_PAIR	n/a	6	2	HAWK	n/a	JET	HAWK	10	[0, 0, 0]	-999	PAL1	0	R1207J
1249.035	1.0	1372291	PAIR_OFF	n/a	6	2	HAWK	n/a	JET	HAWK	10	[0, 0, 0]	-999	PAL1	0	R1207J
1250.035	0.0	1373291	ENCODING_END	n/a	-999	-999	n/a	n/a	n/a	n/a	10	[0, 0, 0]	-999	PAL1	0	R1207J
1250.035	0.0	1373291	MATH_START	n/a	-999	-999	n/a	n/a	n/a	n/a	10	[0, 0, 0]	-999	PAL1	0	R1207J
1250.035	0.017	1373291	START	n/a	-999	-999	n/a	n/a	n/a	n/a	10	[-999, -999, -999]	-999	PAL1	0	R1207J
1250.052	4.634	1373308	PROB	4608	-999	-999	n/a	n/a	n/a	n/a	10	[4, 7, 2]	13	PAL1	0	R1207J
1254.686	5.167	1377942	PROB	5135	-999	-999	n/a	n/a	n/a	n/a	10	[2, 5, 2]	8	PAL1	0	R1207J
1259.853	5.068	1383109	PROB	5031	-999	-999	n/a	n/a	n/a	n/a	10	[7, 4, 4]	16	PAL1	0	R1207J
1264.921	7.699	1388177	PROB	7699	-999	-999	n/a	n/a	n/a	n/a	10	[7, 9, 6]	21	PAL1	0	R1207J
1272.62	0.018	1395876	STOP	n/a	-999	-999	n/a	n/a	n/a	n/a	10	[-999, -999, -999]	-999	PAL1	0	R1207J
1272.638	0.001	1395894	MATH_END	n/a	-999	-999	n/a	n/a	n/a	n/a	10	[0, 0, 0]	-999	PAL1	0	R1207J
1272.639	0.016	1395895	RECALL_START	n/a	-999	-999	n/a	n/a	n/a	n/a	10	[0, 0, 0]	-999	PAL1	0	R1207J
1272.655	0.267	1395911	TEST_ORIENT	n/a	1	1	THUMB	n/a	BOARD	THUMB	10	[0, 0, 0]	-999	PAL1	0	R1207J
1272.922	0.683	1396178	RETRIEVAL_ORIENT_OFF	n/a	-999	-999	n/a	n/a	n/a	n/a	10	[0, 0, 0]	-999	PAL1	0	R1207J
1273.605	0.0	1396861	REC_EVENT	0	1	1	THUMB	<>	BOARD	THUMB	10	[0, 0, 0]	-999	PAL1	0	R1207J
1273.605	0.0	1396861	REC_START	n/a	1	-999	n/a	n/a	n/a	n/a	10	[0, 0, 0]	-999	PAL1	0	R1207J
1273.605	1.429	1396861	TEST_PROBE	n/a	1	1	THUMB	n/a	BOARD	THUMB	10	[0, 0, 0]	-999	PAL1	0	R1207J
1275.034	2.589	1398290	REC_EVENT	1429	1	1	THUMB	<>	BOARD	THUMB	10	[0, 0, 0]	-999	PAL1	0	R1207J
1277.623	1.0	1400879	PROBE_OFF	n/a	1	-999	n/a	n/a	n/a	n/a	10	[0, 0, 0]	-999	PAL1	0	R1207J
1278.623	0.016	1401879	REC_END	n/a	1	-999	n/a	n/a	n/a	n/a	10	[0, 0, 0]	-999	PAL1	0	R1207J
1278.639	0.267	1401895	TEST_ORIENT	n/a	6	2	HAWK	n/a	JET	HAWK	10	[0, 0, 0]	-999	PAL1	0	R1207J
1278.906	0.7	1402162	RETRIEVAL_ORIENT_OFF	n/a	1	-999	n/a	n/a	n/a	n/a	10	[0, 0, 0]	-999	PAL1	0	R1207J
1279.606	0.0	1402862	TEST_PROBE	n/a	6	2	HAWK	n/a	JET	HAWK	10	[0, 0, 0]	-999	PAL1	0	R1207J
1279.606	2.523	1402862	REC_START	n/a	6	-999	n/a	n/a	n/a	n/a	10	[0, 0, 0]	-999	PAL1	0	R1207J
1282.129	1.494	1405385	REC_EVENT	2523	6	2	HAWK	<>	JET	HAWK	10	[0, 0, 0]	-999	PAL1	0	R1207J
1283.623	1.0	1406879	PROBE_OFF	n/a	6	-999	n/a	n/a	n/a	n/a	10	[0, 0, 0]	-999	PAL1	0	R1207J
1284.623	0.017	1407879	REC_END	n/a	6	-999	n/a	n/a	n/a	n/a	10	[0, 0, 0]	-999	PAL1	0	R1207J
1284.64	0.267	1407896	TEST_ORIENT	n/a	3	3	CLOTH	n/a	PURSE	CLOTH	10	[0, 0, 0]	-999	PAL1	0	R1207J
1284.907	0.517	1408163	RETRIEVAL_ORIENT_OFF	n/a	6	-999	n/a	n/a	n/a	n/a	10	[0, 0, 0]	-999	PAL1	0	R1207J
1285.424	0.001	1408680	TEST_PROBE	n/a	3	3	CLOTH	n/a	PURSE	CLOTH	10	[0, 0, 0]	-999	PAL1	0	R1207J
1285.425	4.016	1408681	REC_START	n/a	3	-999	n/a	n/a	n/a	n/a	10	[0, 0, 0]	-999	PAL1	0	R1207J
1289.441	0.999	1412697	PROBE_OFF	n/a	3	-999	n/a	n/a	n/a	n/a	10	[0, 0, 0]	-999	PAL1	0	R1207J
1290.44	0.001	1413696	REC_EVENT	5015	3	3	CLOTH	<>	PURSE	CLOTH	10	[0, 0, 0]	-999	PAL1	0	R1207J
1290.441	0.017	1413697	REC_END	n/a	3	-999	n/a	n/a	n/a	n/a	10	[0, 0, 0]	-999	PAL1	0	R1207J
1290.458	0.266	1413714	TEST_ORIENT	n/a	4	4	SEED	n/a	SPARK	SEED	10	[0, 0, 0]	-999	PAL1	0	R1207J
1290.724	0.618	1413980	RETRIEVAL_ORIENT_OFF	n/a	3	-999	n/a	n/a	n/a	n/a	10	[0, 0, 0]	-999	PAL1	0	R1207J
1291.342	0.0	1414598	TEST_PROBE	n/a	4	4	SEED	n/a	SPARK	SEED	10	[0, 0, 0]	-999	PAL1	0	R1207J
1291.342	4.017	1414598	REC_START	n/a	4	-999	n/a	n/a	n/a	n/a	10	[0, 0, 0]	-999	PAL1	0	R1207J
1295.359	1.0	1418615	PROBE_OFF	n/a	4	-999	n/a	n/a	n/a	n/a	10	[0, 0, 0]	-999	PAL1	0	R1207J
1296.359	0.004	1419615	REC_END	n/a	4	-999	n/a	n/a	n/a	n/a	10	[0, 0, 0]	-999	PAL1	0	R1207J
1296.363	0.013	1419619	REC_EVENT	5021	4	4	SEED	<>	SPARK	SEED	10	[0, 0, 0]	-999	PAL1	0	R1207J
1296.376	0.266	1419632	TEST_ORIENT	n/a	5	5	SHARK	n/a	SHARK	BRIDGE	10	[0, 0, 0]	-999	PAL1	0	R1207J
1296.642	0.667	1419898	RETRIEVAL_ORIENT_OFF	n/a	4	-999	n/a	n/a	n/a	n/a	10	[0, 0, 0]	-999	PAL1	0	R1207J
1297.309	0.001	1420565	TEST_PROBE	n/a	5	5	SHARK	n/a	SHARK	BRIDGE	10	[0, 0, 0]	-999	PAL1	0	R1207J
1297.31	0.295	1420566	REC_START	n/a	5	-999	n/a	n/a	n/a	n/a	10	[0, 0, 0]	-999	PAL1	0	R1207J
1297.605	3.722	1420861	REC_EVENT	295	5	5	SHARK	<>	SHARK	BRIDGE	10	[0, 0, 0]	-999	PAL1	0	R1207J
1301.327	1.0	1424583	PROBE_OFF	n/a	5	-999	n/a	n/a	n/a	n/a	10	[0, 0, 0]	-999	PAL1	0	R1207J
1302.327	0.016	1425583	REC_END	n/a	5	-999	n/a	n/a	n/a	n/a	10	[0, 0, 0]	-999	PAL1	0	R1207J
1302.343	0.266	1425599	TEST_ORIENT	n/a	2	6	HOSE	n/a	TRASH	HOSE	10	[0, 0, 0]	-999	PAL1	0	R1207J
1302.609	0.601	1425865	RETRIEVAL_ORIENT_OFF	n/a	5	-999	n/a	n/a	n/a	n/a	10	[0, 0, 0]	-999	PAL1	0	R1207J
1303.21	0.001	1426466	TEST_PROBE	n/a	2	6	HOSE	n/a	TRASH	HOSE	10	[0, 0, 0]	-999	PAL1	0	R1207J
1303.211	2.278	1426467	REC_START	n/a	2	-999	n/a	n/a	n/a	n/a	10	[0, 0, 0]	-999	PAL1	0	R1207J
1305.489	1.722	1428745	REC_EVENT	2278	2	6	HOSE	<>	TRASH	HOSE	10	[0, 0, 0]	-999	PAL1	0	R1207J
1307.211	0.508	1430467	PROBE_OFF	n/a	2	-999	n/a	n/a	n/a	n/a	10	[0, 0, 0]	-999	PAL1	0	R1207J
1307.719	0.492	1430975	REC_EVENT	4508	2	6	HOSE	<>	TRASH	HOSE	10	[0, 0, 0]	-999	PAL1	0	R1207J
1308.211	0.01	1431467	REC_END	n/a	2	-999	n/a	n/a	n/a	n/a	10	[0, 0, 0]	-999	PAL1	0	R1207J
1308.221	6.007	1431477	RECALL_END	n/a	-999	-999	n/a	n/a	n/a	n/a	10	[0, 0, 0]	-999	PAL1	0	R1207J
1314.228	10.929	1437484	TRIAL	n/a	-999	-999	n/a	n/a	n/a	n/a	11	[0, 0, 0]	-999	PAL1	0	R1207J
1325.157	0.006	1448413	ENCODING_START	n/a	-999	-999	n/a	n/a	n/a	n/a	11	[0, 0, 0]	-999	PAL1	0	R1207J
1325.163	0.267	1448419	STUDY_ORIENT	n/a	1	3	GUARD	n/a	GUARD	STOVE	11	[0, 0, 0]	-999	PAL1	0	R1207J
1325.43	0.599	1448686	STUDY_ORIENT_OFF	n/a	1	3	GUARD	n/a	GUARD	STOVE	11	[0, 0, 0]	-999	PAL1	0	R1207J
1326.029	4.017	1449285	STUDY_PAIR	n/a	1	3	GUARD	n/a	GUARD	STOVE	11	[0, 0, 0]	-999	PAL1	0	R1207J
1330.046	1.017	1453302	PAIR_OFF	n/a	1	3	GUARD	n/a	GUARD	STOVE	11	[0, 0, 0]	-999	PAL1	0	R1207J
1331.063	0.268	1454319	STUDY_ORIENT	n/a	2	2	CAR	n/a	CAR	PIG	11	[0, 0, 0]	-999	PAL1	0	R1207J
1331.331	0.532	1454587	STUDY_ORIENT_OFF	n/a	2	2	CAR	n/a	CAR	PIG	11	[0, 0, 0]	-999	PAL1	0	R1207J
1331.863	4.017	1455119	STUDY_PAIR	n/a	2	2	CAR	n/a	CAR	PIG	11	[0, 0, 0]	-999	PAL1	0	R1207J
1335.88	1.017	1459136	PAIR_OFF	n/a	2	2	CAR	n/a	CAR	PIG	11	[0, 0, 0]	-999	PAL1	0	R1207J
1336.897	0.268	1460153	STUDY_ORIENT	n/a	3	1	BOWL	n/a	HOOK	BOWL	11	[0, 0, 0]	-999	PAL1	0	R1207J
1337.165	0.532	1460421	STUDY_ORIENT_OFF	n/a	3	1	BOWL	n/a	HOOK	BOWL	11	[0, 0, 0]	-999	PAL1	0	R1207J
1337.697	4.017	1460953	STUDY_PAIR	n/a	3	1	BOWL	n/a	HOOK	BOWL	11	[0, 0, 0]	-999	PAL1	0	R1207J
1341.714	1.017	1464970	PAIR_OFF	n/a	3	1	BOWL	n/a	HOOK	BOWL	11	[0, 0, 0]	-999	PAL1	0	R1207J
1342.731	0.267	1465987	STUDY_ORIENT	n/a	4	6	SUIT	n/a	PALM	SUIT	11	[0, 0, 0]	-999	PAL1	0	R1207J
1342.998	0.567	1466254	STUDY_ORIENT_OFF	n/a	4	6	SUIT	n/a	PALM	SUIT	11	[0, 0, 0]	-999	PAL1	0	R1207J
1343.565	4.017	1466821	STUDY_PAIR	n/a	4	6	SUIT	n/a	PALM	SUIT	11	[0, 0, 0]	-999	PAL1	0	R1207J
1347.582	1.016	1470837	PAIR_OFF	n/a	4	6	SUIT	n/a	PALM	SUIT	11	[0, 0, 0]	-999	PAL1	0	R1207J
1348.598	0.267	1471853	STUDY_ORIENT	n/a	5	5	WHEEL	n/a	WHEEL	MUG	11	[0, 0, 0]	-999	PAL1	0	R1207J
1348.865	0.518	1472120	STUDY_ORIENT_OFF	n/a	5	5	WHEEL	n/a	WHEEL	MUG	11	[0, 0, 0]	-999	PAL1	0	R1207J
1349.383	4.017	1472638	STUDY_PAIR	n/a	5	5	WHEEL	n/a	WHEEL	MUG	11	[0, 0, 0]	-999	PAL1	0	R1207J
1353.4	1.017	1476655	PAIR_OFF	n/a	5	5	WHEEL	n/a	WHEEL	MUG	11	[0, 0, 0]	-999	PAL1	0	R1207J
1354.417	0.266	1477672	STUDY_ORIENT	n/a	6	4	DUCK	n/a	DUCK	JAIL	11	[0, 0, 0]	-999	PAL1	0	R1207J
1354.683	0.651	1477938	STUDY_ORIENT_OFF	n/a	6	4	DUCK	n/a	DUCK	JAIL	11	[0, 0, 0]	-999	PAL1	0	R1207J
1355.334	4.017	1478589	STUDY_PAIR	n/a	6	4	DUCK	n/a	DUCK	JAIL	11	[0, 0, 0]	-999	PAL1	0	R1207J
1359.351	1.001	1482606	PAIR_OFF	n/a	6	4	DUCK	n/a	DUCK	JAIL	11	[0, 0, 0]	-999	PAL1	0	R1207J
1360.352	0.0	1483607	ENCODING_END	n/a	-999	-999	n/a	n/a	n/a	n/a	11	[0, 0, 0]	-999	PAL1	0	R1207J
1360.352	0.001	1483607	MATH_START	n/a	-999	-999	n/a	n/a	n/a	n/a	11	[0, 0, 0]	-999	PAL1	0	R1207J
1360.353	0.015	1483608	START	n/a	-999	-999	n/a	n/a	n/a	n/a	11	[-999, -999, -999]	-999	PAL1	0	R1207J
1360.368	4.901	1483623	PROB	4866	-999	-999	n/a	n/a	n/a	n/a	11	[2, 7, 9]	18	PAL1	0	R1207J
1365.269	3.249	1488524	PROB	3213	-999	-999	n/a	n/a	n/a	n/a	11	[5, 8, 2]	15	PAL1	0	R1207J
1368.518	4.251	1491773	PROB	4227	-999	-999	n/a	n/a	n/a	n/a	11	[3, 2, 3]	8	PAL1	0	R1207J
1372.769	3.95	1496024	PROB	3920	-999	-999	n/a	n/a	n/a	n/a	11	[7, 9, 1]	17	PAL1	0	R1207J
1376.719	3.873	1499974	PROB	3873	-999	-999	n/a	n/a	n/a	n/a	11	[5, 7, 4]	16	PAL1	0	R1207J
1380.592	0.011	1503847	STOP	n/a	-999	-999	n/a	n/a	n/a	n/a	11	[-999, -999, -999]	-999	PAL1	0	R1207J
1380.603	0.0	1503858	MATH_END	n/a	-999	-999	n/a	n/a	n/a	n/a	11	[0, 0, 0]	-999	PAL1	0	R1207J
1380.603	0.017	1503858	RECALL_START	n/a	-999	-999	n/a	n/a	n/a	n/a	11	[0, 0, 0]	-999	PAL1	0	R1207J
1380.62	0.266	1503875	TEST_ORIENT	n/a	3	1	BOWL	n/a	HOOK	BOWL	11	[0, 0, 0]	-999	PAL1	0	R1207J
1380.886	0.717	1504141	RETRIEVAL_ORIENT_OFF	n/a	-999	-999	n/a	n/a	n/a	n/a	11	[0, 0, 0]	-999	PAL1	0	R1207J
1381.603	0.001	1504858	TEST_PROBE	n/a	3	1	BOWL	n/a	HOOK	BOWL	11	[0, 0, 0]	-999	PAL1	0	R1207J
1381.604	2.543	1504859	REC_START	n/a	3	-999	n/a	n/a	n/a	n/a	11	[0, 0, 0]	-999	PAL1	0	R1207J
1384.147	1.473	1507402	REC_EVENT	2543	3	1	BOWL	<>	HOOK	BOWL	11	[0, 0, 0]	-999	PAL1	0	R1207J
1385.62	1.0	1508875	PROBE_OFF	n/a	3	-999	n/a	n/a	n/a	n/a	11	[0, 0, 0]	-999	PAL1	0	R1207J
1386.62	0.017	1509875	REC_END	n/a	3	-999	n/a	n/a	n/a	n/a	11	[0, 0, 0]	-999	PAL1	0	R1207J
1386.637	0.267	1509892	TEST_ORIENT	n/a	2	2	CAR	n/a	CAR	PIG	11	[0, 0, 0]	-999	PAL1	0	R1207J
1386.904	0.65	1510159	RETRIEVAL_ORIENT_OFF	n/a	3	-999	n/a	n/a	n/a	n/a	11	[0, 0, 0]	-999	PAL1	0	R1207J
1387.554	0.001	1510809	TEST_PROBE	n/a	2	2	CAR	n/a	CAR	PIG	11	[0, 0, 0]	-999	PAL1	0	R1207J
1387.555	4.016	1510810	REC_START	n/a	2	-999	n/a	n/a	n/a	n/a	11	[0, 0, 0]	-999	PAL1	0	R1207J
1391.571	0.999	1514826	PROBE_OFF	n/a	2	-999	n/a	n/a	n/a	n/a	11	[0, 0, 0]	-999	PAL1	0	R1207J
1392.57	0.001	1515825	REC_EVENT	5015	2	2	CAR	<>	CAR	PIG	11	[0, 0, 0]	-999	PAL1	0	R1207J
1392.571	0.017	1515826	REC_END	n/a	2	-999	n/a	n/a	n/a	n/a	11	[0, 0, 0]	-999	PAL1	0	R1207J
1392.588	0.267	1515843	TEST_ORIENT	n/a	1	3	GUARD	n/a	GUARD	STOVE	11	[0, 0, 0]	-999	PAL1	0	R1207J
1392.855	0.534	1516110	RETRIEVAL_ORIENT_OFF	n/a	2	-999	n/a	n/a	n/a	n/a	11	[0, 0, 0]	-999	PAL1	0	R1207J
1393.389	0.001	1516644	TEST_PROBE	n/a	1	3	GUARD	n/a	GUARD	STOVE	11	[0, 0, 0]	-999	PAL1	0	R1207J
1393.39	4.016	1516645	REC_START	n/a	1	-999	n/a	n/a	n/a	n/a	11	[0, 0, 0]	-999	PAL1	0	R1207J
1397.406	0.399	1520661	PROBE_OFF	n/a	1	-999	n/a	n/a	n/a	n/a	11	[0, 0, 0]	-999	PAL1	0	R1207J
1397.805	0.602	1521060	REC_EVENT	4415	1	3	GUARD	<>	GUARD	STOVE	11	[0, 0, 0]	-999	PAL1	0	R1207J
1398.407	0.016	1521662	REC_END	n/a	1	-999	n/a	n/a	n/a	n/a	11	[0, 0, 0]	-999	PAL1	0	R1207J
1398.423	0.265	1521678	TEST_ORIENT	n/a	6	4	DUCK	n/a	DUCK	JAIL	11	[0, 0, 0]	-999	PAL1	0	R1207J
1398.688	0.735	1521943	RETRIEVAL_ORIENT_OFF	n/a	1	-999	n/a	n/a	n/a	n/a	11	[0, 0, 0]	-999	PAL1	0	R1207J
1399.423	0.001	1522678	TEST_PROBE	n/a	6	4	DUCK	n/a	DUCK	JAIL	11	[0, 0, 0]	-999	PAL1	0	R1207J
1399.424	4.016	1522679	REC_START	n/a	6	-999	n/a	n/a	n/a	n/a	11	[0, 0, 0]	-999	PAL1	0	R1207J
1403.44	0.999	1526695	PROBE_OFF	n/a	6	-999	n/a	n/a	n/a	n/a	11	[0, 0, 0]	-999	PAL1	0	R1207J
1404.439	0.001	1527694	REC_EVENT	5015	6	4	DUCK	<>	DUCK	JAIL	11	[0, 0, 0]	-999	PAL1	0	R1207J
1404.44	0.017	1527695	REC_END	n/a	6	-999	n/a	n/a	n/a	n/a	11	[0, 0, 0]	-999	PAL1	0	R1207J
1404.457	0.266	1527712	TEST_ORIENT	n/a	5	5	WHEEL	n/a	WHEEL	MUG	11	[0, 0, 0]	-999	PAL1	0	R1207J
1404.723	0.634	1527978	RETRIEVAL_ORIENT_OFF	n/a	6	-999	n/a	n/a	n/a	n/a	11	[0, 0, 0]	-999	PAL1	0	R1207J
1405.357	0.001	1528612	TEST_PROBE	n/a	5	5	WHEEL	n/a	WHEEL	MUG	11	[0, 0, 0]	-999	PAL1	0	R1207J
1405.358	4.016	1528613	REC_START	n/a	5	-999	n/a	n/a	n/a	n/a	11	[0, 0, 0]	-999	PAL1	0	R1207J
1409.374	0.531	1532629	PROBE_OFF	n/a	5	-999	n/a	n/a	n/a	n/a	11	[0, 0, 0]	-999	PAL1	0	R1207J
1409.905	0.469	1533160	REC_EVENT	4547	5	5	WHEEL	<>	WHEEL	MUG	11	[0, 0, 0]	-999	PAL1	0	R1207J
1410.374	0.017	1533629	REC_END	n/a	5	-999	n/a	n/a	n/a	n/a	11	[0, 0, 0]	-999	PAL1	0	R1207J
1410.391	0.266	1533646	TEST_ORIENT	n/a	4	6	SUIT	n/a	PALM	SUIT	11	[0, 0, 0]	-999	PAL1	0	R1207J
1410.657	0.651	1533912	RETRIEVAL_ORIENT_OFF	n/a	5	-999	n/a	n/a	n/a	n/a	11	[0, 0, 0]	-999	PAL1	0	R1207J
1411.308	0.0	1534563	TEST_PROBE	n/a	4	6	SUIT	n/a	PALM	SUIT	11	[0, 0, 0]	-999	PAL1	0	R1207J
1411.308	2.546	1534563	REC_START	n/a	4	-999	n/a	n/a	n/a	n/a	11	[0, 0, 0]	-999	PAL1	0	R1207J
1413.854	1.471	1537109	REC_EVENT	2546	4	6	SUIT	<>	PALM	SUIT	11	[0, 0, 0]	-999	PAL1	0	R1207J
1415.325	1.0	1538580	PROBE_OFF	n/a	4	-999	n/a	n/a	n/a	n/a	11	[0, 0, 0]	-999	PAL1	0	R1207J
1416.325	0.005	1539580	REC_END	n/a	4	-999	n/a	n/a	n/a	n/a	11	[0, 0, 0]	-999	PAL1	0	R1207J
1416.33	6.429	1539585	RECALL_END	n/a	-999	-999	n/a	n/a	n/a	n/a	11	[0, 0, 0]	-999	PAL1	0	R1207J
1422.759	10.928	1546014	TRIAL	n/a	-999	-999	n/a	n/a	n/a	n/a	12	[0, 0, 0]	-999	PAL1	0	R1207J
1433.687	0.007	1556942	ENCODING_START	n/a	-999	-999	n/a	n/a	n/a	n/a	12	[0, 0, 0]	-999	PAL1	0	R1207J
1433.694	0.266	1556949	STUDY_ORIENT	n/a	1	3	CALF	FROG	FROG	CALF	12	[0, 0, 0]	-999	PAL1	0	R1207J
1433.96	0.617	1557215	STUDY_ORIENT_OFF	n/a	1	3	CALF	FROG	FROG	CALF	12	[0, 0, 0]	-999	PAL1	0	R1207J
1434.577	4.017	1557832	STUDY_PAIR	n/a	1	3	CALF	FROG	FROG	CALF	12	[0, 0, 0]	-999	PAL1	0	R1207J
1438.594	1.017	1561849	PAIR_OFF	n/a	1	3	CALF	FROG	FROG	CALF	12	[0, 0, 0]	-999	PAL1	0	R1207J
1439.611	0.267	1562866	STUDY_ORIENT	n/a	2	4	BOX	WEIGHT	BOX	NAIL	12	[0, 0, 0]	-999	PAL1	0	R1207J
1439.878	0.567	1563133	STUDY_ORIENT_OFF	n/a	2	4	BOX	WEIGHT	BOX	NAIL	12	[0, 0, 0]	-999	PAL1	0	R1207J
1440.445	4.018	1563700	STUDY_PAIR	n/a	2	4	BOX	WEIGHT	BOX	NAIL	12	[0, 0, 0]	-999	PAL1	0	R1207J
1444.463	1.016	1567718	PAIR_OFF	n/a	2	4	BOX	WEIGHT	BOX	NAIL	12	[0, 0, 0]	-999	PAL1	0	R1207J
1445.479	0.266	1568734	STUDY_ORIENT	n/a	3	5	COUCH	n/a	COUCH	INK	12	[0, 0, 0]	-999	PAL1	0	R1207J
1445.745	0.718	1569000	STUDY_ORIENT_OFF	n/a	3	5	COUCH	n/a	COUCH	INK	12	[0, 0, 0]	-999	PAL1	0	R1207J
1446.463	4.017	1569718	STUDY_PAIR	n/a	3	5	COUCH	n/a	COUCH	INK	12	[0, 0, 0]	-999	PAL1	0	R1207J
1450.48	1.016	1573735	PAIR_OFF	n/a	3	5	COUCH	n/a	COUCH	INK	12	[0, 0, 0]	-999	PAL1	0	R1207J
1451.496	0.266	1574751	STUDY_ORIENT	n/a	4	6	BOOK	n/a	BOOK	STEM	12	[0, 0, 0]	-999	PAL1	0	R1207J
1451.762	0.734	1575017	STUDY_ORIENT_OFF	n/a	4	6	BOOK	n/a	BOOK	STEM	12	[0, 0, 0]	-999	PAL1	0	R1207J
1452.496	4.017	1575751	STUDY_PAIR	n/a	4	6	BOOK	n/a	BOOK	STEM	12	[0, 0, 0]	-999	PAL1	0	R1207J
1456.513	1.017	1579768	PAIR_OFF	n/a	4	6	BOOK	n/a	BOOK	STEM	12	[0, 0, 0]	-999	PAL1	0	R1207J
1457.53	0.267	1580785	STUDY_ORIENT	n/a	5	1	SUN	n/a	HILL	SUN	12	[0, 0, 0]	-999	PAL1	0	R1207J
1457.797	0.733	1581052	STUDY_ORIENT_OFF	n/a	5	1	SUN	n/a	HILL	SUN	12	[0, 0, 0]	-999	PAL1	0	R1207J
1458.53	4.017	1581785	STUDY_PAIR	n/a	5	1	SUN	n/a	HILL	SUN	12	[0, 0, 0]	-999	PAL1	0	R1207J
1462.547	1.017	1585802	PAIR_OFF	n/a	5	1	SUN	n/a	HILL	SUN	12	[0, 0, 0]	-999	PAL1	0	R1207J
1463.564	0.267	1586819	STUDY_ORIENT	n/a	6	2	MULE	n/a	BOY	MULE	12	[0, 0, 0]	-999	PAL1	0	R1207J
1463.831	0.617	1587086	STUDY_ORIENT_OFF	n/a	6	2	MULE	n/a	BOY	MULE	12	[0, 0, 0]	-999	PAL1	0	R1207J
1464.448	4.018	1587703	STUDY_PAIR	n/a	6	2	MULE	n/a	BOY	MULE	12	[0, 0, 0]	-999	PAL1	0	R1207J
1468.466	1.0	1591721	PAIR_OFF	n/a	6	2	MULE	n/a	BOY	MULE	12	[0, 0, 0]	-999	PAL1	0	R1207J
1469.466	0.0	1592721	ENCODING_END	n/a	-999	-999	n/a	n/a	n/a	n/a	12	[0, 0, 0]	-999	PAL1	0	R1207J
1469.466	0.001	1592721	MATH_START	n/a	-999	-999	n/a	n/a	n/a	n/a	12	[0, 0, 0]	-999	PAL1	0	R1207J
1469.467	0.015	1592722	START	n/a	-999	-999	n/a	n/a	n/a	n/a	12	[-999, -999, -999]	-999	PAL1	0	R1207J
1469.482	5.985	1592737	PROB	5947	-999	-999	n/a	n/a	n/a	n/a	12	[7, 7, 5]	19	PAL1	0	R1207J
1475.467	4.599	1598722	PROB	4578	-999	-999	n/a	n/a	n/a	n/a	12	[9, 2, 6]	17	PAL1	0	R1207J
1480.066	4.136	1603321	PROB	4108	-999	-999	n/a	n/a	n/a	n/a	12	[6, 5, 4]	15	PAL1	0	R1207J
1484.202	5.117	1607457	PROB	5092	-999	-999	n/a	n/a	n/a	n/a	12	[8, 8, 6]	21	PAL1	0	R1207J
1489.319	4.757	1612574	PROB	4757	-999	-999	n/a	n/a	n/a	n/a	12	[5, 8, 1]	14	PAL1	0	R1207J
1494.076	0.009	1617331	STOP	n/a	-999	-999	n/a	n/a	n/a	n/a	12	[-999, -999, -999]	-999	PAL1	0	R1207J
1494.085	0.0	1617340	MATH_END	n/a	-999	-999	n/a	n/a	n/a	n/a	12	[0, 0, 0]	-999	PAL1	0	R1207J
1494.085	0.018	1617340	RECALL_START	n/a	-999	-999	n/a	n/a	n/a	n/a	12	[0, 0, 0]	-999	PAL1	0	R1207J
1494.103	0.266	1617358	TEST_ORIENT	n/a	5	1	SUN	n/a	HILL	SUN	12	[0, 0, 0]	-999	PAL1	0	R1207J
1494.369	0.583	1617624	RETRIEVAL_ORIENT_OFF	n/a	-999	-999	n/a	n/a	n/a	n/a	12	[0, 0, 0]	-999	PAL1	0	R1207J
1494.952	0.0	1618207	TEST_PROBE	n/a	5	1	SUN	n/a	HILL	SUN	12	[0, 0, 0]	-999	PAL1	0	R1207J
1494.952	4.017	1618207	REC_START	n/a	5	-999	n/a	n/a	n/a	n/a	12	[0, 0, 0]	-999	PAL1	0	R1207J
1498.969	0.998	1622224	PROBE_OFF	n/a	5	-999	n/a	n/a	n/a	n/a	12	[0, 0, 0]	-999	PAL1	0	R1207J
1499.967	0.002	1623222	REC_EVENT	5015	5	1	SUN	<>	HILL	SUN	12	[0, 0, 0]	-999	PAL1	0	R1207J
1499.969	0.017	1623224	REC_END	n/a	5	-999	n/a	n/a	n/a	n/a	12	[0, 0, 0]	-999	PAL1	0	R1207J
1499.986	0.267	1623241	TEST_ORIENT	n/a	6	2	MULE	n/a	BOY	MULE	12	[0, 0, 0]	-999	PAL1	0	R1207J
1500.253	0.716	1623508	RETRIEVAL_ORIENT_OFF	n/a	5	-999	n/a	n/a	n/a	n/a	12	[0, 0, 0]	-999	PAL1	0	R1207J
1500.969	0.001	1624224	TEST_PROBE	n/a	6	2	MULE	n/a	BOY	MULE	12	[0, 0, 0]	-999	PAL1	0	R1207J
1500.97	4.017	1624225	REC_START	n/a	6	-999	n/a	n/a	n/a	n/a	12	[0, 0, 0]	-999	PAL1	0	R1207J
1504.987	1.0	1628242	PROBE_OFF	n/a	6	-999	n/a	n/a	n/a	n/a	12	[0, 0, 0]	-999	PAL1	0	R1207J
1505.987	0.004	1629242	REC_END	n/a	6	-999	n/a	n/a	n/a	n/a	12	[0, 0, 0]	-999	PAL1	0	R1207J
1505.991	0.012	1629246	REC_EVENT	5021	6	2	MULE	<>	BOY	MULE	12	[0, 0, 0]	-999	PAL1	0	R1207J
1506.003	0.251	1629258	TEST_ORIENT	n/a	1	3	CALF	FROG	FROG	CALF	12	[0, 0, 0]	-999	PAL1	0	R1207J
1506.254	0.733	1629509	RETRIEVAL_ORIENT_OFF	n/a	6	-999	n/a	n/a	n/a	n/a	12	[0, 0, 0]	-999	PAL1	0	R1207J
1506.987	0.0	1630242	TEST_PROBE	n/a	1	3	CALF	FROG	FROG	CALF	12	[0, 0, 0]	-999	PAL1	0	R1207J
1506.987	2.902	1630242	REC_START	n/a	1	-999	n/a	FROG	n/a	n/a	12	[0, 0, 0]	-999	PAL1	0	R1207J
1509.889	1.115	1633144	REC_EVENT	2902	1	3	CALF	FROG	FROG	CALF	12	[0, 0, 0]	-999	PAL1	0	R1207J
1511.004	1.0	1634259	PROBE_OFF	n/a	1	-999	n/a	n/a	n/a	n/a	12	[0, 0, 0]	-999	PAL1	0	R1207J
1512.004	0.017	1635259	REC_END	n/a	1	-999	n/a	n/a	n/a	n/a	12	[0, 0, 0]	-999	PAL1	0	R1207J
1512.021	0.267	1635276	TEST_ORIENT	n/a	2	4	BOX	WEIGHT	BOX	NAIL	12	[0, 0, 0]	-999	PAL1	0	R1207J
1512.288	0.649	1635543	RETRIEVAL_ORIENT_OFF	n/a	1	-999	n/a	n/a	n/a	n/a	12	[0, 0, 0]	-999	PAL1	0	R1207J
1512.937	0.001	1636192	TEST_PROBE	n/a	2	4	BOX	WEIGHT	BOX	NAIL	12	[0, 0, 0]	-999	PAL1	0	R1207J
1512.938	2.314	1636193	REC_START	n/a	2	-999	n/a	WEIGHT	n/a	n/a	12	[0, 0, 0]	-999	PAL1	0	R1207J
1515.252	1.703	1638507	REC_EVENT	2314	2	4	BOX	WEIGHT	BOX	NAIL	12	[0, 0, 0]	-999	PAL1	0	R1207J
1516.955	1.0	1640210	PROBE_OFF	n/a	2	-999	n/a	n/a	n/a	n/a	12	[0, 0, 0]	-999	PAL1	0	R1207J
1517.955	0.017	1641210	REC_END	n/a	2	-999	n/a	n/a	n/a	n/a	12	[0, 0, 0]	-999	PAL1	0	R1207J
1517.972	0.267	1641227	TEST_ORIENT	n/a	3	5	COUCH	n/a	COUCH	INK	12	[0, 0, 0]	-999	PAL1	0	R1207J
1518.239	0.732	1641494	RETRIEVAL_ORIENT_OFF	n/a	2	-999	n/a	n/a	n/a	n/a	12	[0, 0, 0]	-999	PAL1	0	R1207J
1518.971	0.001	1642226	TEST_PROBE	n/a	3	5	COUCH	n/a	COUCH	INK	12	[0, 0, 0]	-999	PAL1	0	R1207J
1518.972	4.017	1642227	REC_START	n/a	3	-999	n/a	n/a	n/a	n/a	12	[0, 0, 0]	-999	PAL1	0	R1207J
1522.989	0.998	1646244	PROBE_OFF	n/a	3	-999	n/a	n/a	n/a	n/a	12	[0, 0, 0]	-999	PAL1	0	R1207J
1523.987	0.002	1647242	REC_EVENT	5015	3	5	COUCH	<>	COUCH	INK	12	[0, 0, 0]	-999	PAL1	0	R1207J
1523.989	0.017	1647244	REC_END	n/a	3	-999	n/a	n/a	n/a	n/a	12	[0, 0, 0]	-999	PAL1	0	R1207J
1524.006	0.267	1647261	TEST_ORIENT	n/a	4	6	BOOK	n/a	BOOK	STEM	12	[0, 0, 0]	-999	PAL1	0	R1207J
1524.273	0.633	1647528	RETRIEVAL_ORIENT_OFF	n/a	3	-999	n/a	n/a	n/a	n/a	12	[0, 0, 0]	-999	PAL1	0	R1207J
1524.906	0.001	1648161	TEST_PROBE	n/a	4	6	BOOK	n/a	BOOK	STEM	12	[0, 0, 0]	-999	PAL1	0	R1207J
1524.907	2.394	1648162	REC_START	n/a	4	-999	n/a	n/a	n/a	n/a	12	[0, 0, 0]	-999	PAL1	0	R1207J
1527.301	1.622	1650556	REC_EVENT	2394	4	6	BOOK	<>	BOOK	STEM	12	[0, 0, 0]	-999	PAL1	0	R1207J
1528.923	1.0	1652178	PROBE_OFF	n/a	4	-999	n/a	n/a	n/a	n/a	12	[0, 0, 0]	-999	PAL1	0	R1207J
1529.923	0.011	1653178	REC_END	n/a	4	-999	n/a	n/a	n/a	n/a	12	[0, 0, 0]	-999	PAL1	0	R1207J
1529.934	5.723	1653189	RECALL_END	n/a	-999	-999	n/a	n/a	n/a	n/a	12	[0, 0, 0]	-999	PAL1	0	R1207J
1535.657	10.929	1658912	TRIAL	n/a	-999	-999	n/a	n/a	n/a	n/a	13	[0, 0, 0]	-999	PAL1	0	R1207J
1546.586	0.006	1669841	ENCODING_START	n/a	-999	-999	n/a	n/a	n/a	n/a	13	[0, 0, 0]	-999	PAL1	0	R1207J
1546.592	0.267	1669847	STUDY_ORIENT	n/a	1	1	WOLF	n/a	CHIEF	WOLF	13	[0, 0, 0]	-999	PAL1	0	R1207J
1546.859	0.618	1670114	STUDY_ORIENT_OFF	n/a	1	1	WOLF	n/a	CHIEF	WOLF	13	[0, 0, 0]	-999	PAL1	0	R1207J
1547.477	4.016	1670732	STUDY_PAIR	n/a	1	1	WOLF	n/a	CHIEF	WOLF	13	[0, 0, 0]	-999	PAL1	0	R1207J
1551.493	1.017	1674748	PAIR_OFF	n/a	1	1	WOLF	n/a	CHIEF	WOLF	13	[0, 0, 0]	-999	PAL1	0	R1207J
1552.51	0.266	1675765	STUDY_ORIENT	n/a	2	4	FORK	n/a	FORK	FRUIT	13	[0, 0, 0]	-999	PAL1	0	R1207J
1552.776	0.668	1676031	STUDY_ORIENT_OFF	n/a	2	4	FORK	n/a	FORK	FRUIT	13	[0, 0, 0]	-999	PAL1	0	R1207J
1553.444	4.017	1676699	STUDY_PAIR	n/a	2	4	FORK	n/a	FORK	FRUIT	13	[0, 0, 0]	-999	PAL1	0	R1207J
1557.461	1.017	1680716	PAIR_OFF	n/a	2	4	FORK	n/a	FORK	FRUIT	13	[0, 0, 0]	-999	PAL1	0	R1207J
1558.478	0.266	1681733	STUDY_ORIENT	n/a	3	3	FOOT	n/a	MUD	FOOT	13	[0, 0, 0]	-999	PAL1	0	R1207J
1558.744	0.567	1681999	STUDY_ORIENT_OFF	n/a	3	3	FOOT	n/a	MUD	FOOT	13	[0, 0, 0]	-999	PAL1	0	R1207J
1559.311	4.018	1682566	STUDY_PAIR	n/a	3	3	FOOT	n/a	MUD	FOOT	13	[0, 0, 0]	-999	PAL1	0	R1207J
