onset	duration	sample	trial_type	response_time	stim_file	serialpos	probepos	probe_word	resp_word	study_1	study_2	list	test	answer	experiment	session	subject
0.0	107.9	69963	SESS_START	n/a	n/a	-999	-999	n/a	n/a	n/a	n/a	-999	[0, 0, 0]	-999	PAL1	1	R1263C
107.9	1.016	123908	START	n/a	n/a	-999	-999	n/a	n/a	n/a	n/a	-1	[-999, -999, -999]	-999	PAL1	1	R1263C
108.916	4.167	124416	PROB	4.148	n/a	-999	-999	n/a	n/a	n/a	n/a	-1	[1, 2, 1]	4	PAL1	1	R1263C
113.083	7.985	126500	PROB	7.957	n/a	-999	-999	n/a	n/a	n/a	n/a	-1	[6, 6, 5]	17	PAL1	1	R1263C
121.068	8.619	130492	PROB	8.619	n/a	-999	-999	n/a	n/a	n/a	n/a	-1	[4, 5, 6]	15	PAL1	1	R1263C
129.687	82.473	134801	STOP	n/a	n/a	-999	-999	n/a	n/a	n/a	n/a	-1	[-999, -999, -999]	-999	PAL1	1	R1263C
212.16	10.443	176034	ENCODING_START	n/a	n/a	0	-999	n/a	n/a	n/a	n/a	1	[0, 0, 0]	-999	PAL1	1	R1263C
222.603	0.275	181255	STUDY_ORIENT	n/a	n/a	1	1	FORT	n/a	RUG	FORT	1	[0, 0, 0]	-999	PAL1	1	R1263C
223.438	4.0	181673	STUDY_PAIR	n/a	wordpools/wordpool_EN.txt	1	1	FORT	n/a	RUG	FORT	1	[0, 0, 0]	-999	PAL1	1	R1263C
228.472	0.275	184190	STUDY_ORIENT	n/a	n/a	2	4	STAR	FOAM	STAR	FOAM	1	[0, 0, 0]	-999	PAL1	1	R1263C
229.422	4.0	184664	STUDY_PAIR	n/a	wordpools/wordpool_EN.txt	2	4	STAR	FOAM	STAR	FOAM	1	[0, 0, 0]	-999	PAL1	1	R1263C
234.44	0.275	187173	STUDY_ORIENT	n/a	n/a	3	3	FACE	SNAKE	FACE	SNAKE	1	[0, 0, 0]	-999	PAL1	1	R1263C
235.34	4.0	187623	STUDY_PAIR	n/a	wordpools/wordpool_EN.txt	3	3	FACE	SNAKE	FACE	SNAKE	1	[0, 0, 0]	-999	PAL1	1	R1263C
240.358	0.275	190132	STUDY_ORIENT	n/a	n/a	4	6	OAK	GATE	GATE	OAK	1	[0, 0, 0]	-999	PAL1	1	R1263C
241.158	4.0	190532	STUDY_PAIR	n/a	wordpools/wordpool_EN.txt	4	6	OAK	GATE	GATE	OAK	1	[0, 0, 0]	-999	PAL1	1	R1263C
246.192	0.275	193049	STUDY_ORIENT	n/a	n/a	5	5	HOLE	WORM	HOLE	WORM	1	[0, 0, 0]	-999	PAL1	1	R1263C
247.109	4.0	193507	STUDY_PAIR	n/a	wordpools/wordpool_EN.txt	5	5	HOLE	WORM	HOLE	WORM	1	[0, 0, 0]	-999	PAL1	1	R1263C
252.143	0.275	196024	STUDY_ORIENT	n/a	n/a	6	2	PEACH	n/a	PEACH	VINE	1	[0, 0, 0]	-999	PAL1	1	R1263C
252.943	4.0	196424	STUDY_PAIR	n/a	wordpools/wordpool_EN.txt	6	2	PEACH	n/a	PEACH	VINE	1	[0, 0, 0]	-999	PAL1	1	R1263C
256.944	1.0	198424	START	n/a	n/a	-999	-999	n/a	n/a	n/a	n/a	1	[-999, -999, -999]	-999	PAL1	1	R1263C
257.944	0.017	198924	MATH_START	n/a	n/a	-999	-999	n/a	n/a	n/a	n/a	1	[0, 0, 0]	-999	PAL1	1	R1263C
257.961	4.868	198933	PROB	4.839	n/a	-999	-999	n/a	n/a	n/a	n/a	1	[3, 2, 3]	8	PAL1	1	R1263C
262.829	6.434	201367	PROB	6.403	n/a	-999	-999	n/a	n/a	n/a	n/a	1	[9, 2, 6]	17	PAL1	1	R1263C
269.263	5.518	204583	PROB	5.497	n/a	-999	-999	n/a	n/a	n/a	n/a	1	[6, 6, 3]	15	PAL1	1	R1263C
274.781	4.395	207342	PROB	4.395	n/a	-999	-999	n/a	n/a	n/a	n/a	1	[6, 4, 6]	16	PAL1	1	R1263C
279.176	0.006	209539	STOP	n/a	n/a	-999	-999	n/a	n/a	n/a	n/a	1	[-999, -999, -999]	-999	PAL1	1	R1263C
279.182	0.0	209542	MATH_END	n/a	n/a	-999	-999	n/a	n/a	n/a	n/a	1	[0, 0, 0]	-999	PAL1	1	R1263C
279.182	0.017	209542	TEST_START	n/a	n/a	-999	-999	n/a	n/a	n/a	n/a	1	[0, 0, 0]	-999	PAL1	1	R1263C
279.199	0.275	209551	TEST_ORIENT	n/a	n/a	1	1	FORT	n/a	RUG	FORT	1	[0, 0, 0]	-999	PAL1	1	R1263C
280.199	4.0	210051	TEST_PROBE	n/a	wordpools/wordpool_EN.txt	1	1	FORT	n/a	RUG	FORT	1	[0, 0, 0]	-999	PAL1	1	R1263C
280.2	1.787	210051	REC_START	n/a	n/a	1	-999	n/a	n/a	n/a	n/a	1	[0, 0, 0]	-999	PAL1	1	R1263C
281.987	3.238	210945	REC_EVENT	1.787	n/a	1	1	FORT	<>	RUG	FORT	1	[0, 0, 0]	-999	PAL1	1	R1263C
285.225	0.008	212564	REC_END	n/a	n/a	1	-999	n/a	n/a	n/a	n/a	1	[0, 0, 0]	-999	PAL1	1	R1263C
285.233	0.275	212568	TEST_ORIENT	n/a	n/a	6	2	PEACH	n/a	PEACH	VINE	1	[0, 0, 0]	-999	PAL1	1	R1263C
286.216	4.0	213059	TEST_PROBE	n/a	wordpools/wordpool_EN.txt	6	2	PEACH	n/a	PEACH	VINE	1	[0, 0, 0]	-999	PAL1	1	R1263C
286.217	1.697	213060	REC_START	n/a	n/a	6	-999	n/a	n/a	n/a	n/a	1	[0, 0, 0]	-999	PAL1	1	R1263C
287.914	3.311	213908	REC_EVENT	1.697	n/a	6	2	PEACH	<>	PEACH	VINE	1	[0, 0, 0]	-999	PAL1	1	R1263C
291.225	0.009	215563	REC_END	n/a	n/a	6	-999	n/a	n/a	n/a	n/a	1	[0, 0, 0]	-999	PAL1	1	R1263C
291.234	0.275	215568	TEST_ORIENT	n/a	n/a	3	3	FACE	SNAKE	FACE	SNAKE	1	[0, 0, 0]	-999	PAL1	1	R1263C
292.034	4.0	215968	TEST_PROBE	n/a	wordpools/wordpool_EN.txt	3	3	FACE	SNAKE	FACE	SNAKE	1	[0, 0, 0]	-999	PAL1	1	R1263C
292.035	1.404	215968	REC_START	n/a	n/a	3	-999	n/a	SNAKE	n/a	n/a	1	[0, 0, 0]	-999	PAL1	1	R1263C
293.439	3.605	216670	REC_EVENT	1.404	n/a	3	3	FACE	SNAKE	FACE	SNAKE	1	[0, 0, 0]	-999	PAL1	1	R1263C
297.044	0.008	218473	REC_END	n/a	n/a	3	-999	n/a	n/a	n/a	n/a	1	[0, 0, 0]	-999	PAL1	1	R1263C
297.052	0.275	218477	TEST_ORIENT	n/a	n/a	2	4	STAR	FOAM	STAR	FOAM	1	[0, 0, 0]	-999	PAL1	1	R1263C
297.869	4.0	218885	TEST_PROBE	n/a	wordpools/wordpool_EN.txt	2	4	STAR	FOAM	STAR	FOAM	1	[0, 0, 0]	-999	PAL1	1	R1263C
297.869	0.946	218885	REC_START	n/a	n/a	2	-999	n/a	FOAM	n/a	n/a	1	[0, 0, 0]	-999	PAL1	1	R1263C
298.815	4.071	219358	REC_EVENT	0.946	n/a	2	4	STAR	FOAM	STAR	FOAM	1	[0, 0, 0]	-999	PAL1	1	R1263C
302.886	0.017	221393	REC_END	n/a	n/a	2	-999	n/a	n/a	n/a	n/a	1	[0, 0, 0]	-999	PAL1	1	R1263C
302.903	0.275	221402	TEST_ORIENT	n/a	n/a	5	5	HOLE	WORM	HOLE	WORM	1	[0, 0, 0]	-999	PAL1	1	R1263C
303.92	4.0	221910	TEST_PROBE	n/a	wordpools/wordpool_EN.txt	5	5	HOLE	WORM	HOLE	WORM	1	[0, 0, 0]	-999	PAL1	1	R1263C
303.92	1.571	221910	REC_START	n/a	n/a	5	-999	n/a	WORM	n/a	n/a	1	[0, 0, 0]	-999	PAL1	1	R1263C
305.491	3.446	222696	REC_EVENT	1.571	n/a	5	5	HOLE	WORM	HOLE	WORM	1	[0, 0, 0]	-999	PAL1	1	R1263C
308.937	0.017	224419	REC_END	n/a	n/a	5	-999	n/a	n/a	n/a	n/a	1	[0, 0, 0]	-999	PAL1	1	R1263C
308.954	0.275	224427	TEST_ORIENT	n/a	n/a	4	6	OAK	GATE	GATE	OAK	1	[0, 0, 0]	-999	PAL1	1	R1263C
309.938	4.0	224919	TEST_PROBE	n/a	wordpools/wordpool_EN.txt	4	6	OAK	GATE	GATE	OAK	1	[0, 0, 0]	-999	PAL1	1	R1263C
309.938	2.018	224919	REC_START	n/a	n/a	4	-999	n/a	GATE	n/a	n/a	1	[0, 0, 0]	-999	PAL1	1	R1263C
311.956	0.722	225928	REC_EVENT	2.018	n/a	4	6	OAK	GATE	GATE	OAK	1	[0, 0, 0]	-999	PAL1	1	R1263C
312.678	2.277	226289	REC_EVENT	2.74	n/a	4	6	OAK	<>	GATE	OAK	1	[0, 0, 0]	-999	PAL1	1	R1263C
314.955	13.437	227427	REC_END	n/a	n/a	4	-999	n/a	n/a	n/a	n/a	1	[0, 0, 0]	-999	PAL1	1	R1263C
328.392	10.451	234145	ENCODING_START	n/a	n/a	0	-999	n/a	n/a	n/a	n/a	2	[0, 0, 0]	-999	PAL1	1	R1263C
338.843	0.275	239371	STUDY_ORIENT	n/a	n/a	1	5	BUSH	n/a	BUSH	WAND	2	[0, 0, 0]	-999	PAL1	1	R1263C
339.843	4.0	239870	STUDY_PAIR	n/a	wordpools/wordpool_EN.txt	1	5	BUSH	n/a	BUSH	WAND	2	[0, 0, 0]	-999	PAL1	1	R1263C
344.861	0.275	242379	STUDY_ORIENT	n/a	n/a	2	6	JAR	n/a	SHIP	JAR	2	[0, 0, 0]	-999	PAL1	1	R1263C
345.861	4.0	242879	STUDY_PAIR	n/a	wordpools/wordpool_EN.txt	2	6	JAR	n/a	SHIP	JAR	2	[0, 0, 0]	-999	PAL1	1	R1263C
350.879	0.275	245388	STUDY_ORIENT	n/a	n/a	3	3	ROOM	n/a	ROOM	BADGE	2	[0, 0, 0]	-999	PAL1	1	R1263C
351.829	4.0	245863	STUDY_PAIR	n/a	wordpools/wordpool_EN.txt	3	3	ROOM	n/a	ROOM	BADGE	2	[0, 0, 0]	-999	PAL1	1	R1263C
356.863	0.275	248380	STUDY_ORIENT	n/a	n/a	4	4	DOCK	WALL	DOCK	WALL	2	[0, 0, 0]	-999	PAL1	1	R1263C
357.813	4.0	248855	STUDY_PAIR	n/a	wordpools/wordpool_EN.txt	4	4	DOCK	WALL	DOCK	WALL	2	[0, 0, 0]	-999	PAL1	1	R1263C
362.831	0.275	251364	STUDY_ORIENT	n/a	n/a	5	1	SHIRT	PALM	PALM	SHIRT	2	[0, 0, 0]	-999	PAL1	1	R1263C
363.647	4.0	251771	STUDY_PAIR	n/a	wordpools/wordpool_EN.txt	5	1	SHIRT	PALM	PALM	SHIRT	2	[0, 0, 0]	-999	PAL1	1	R1263C
368.681	0.275	254288	STUDY_ORIENT	n/a	n/a	6	2	WOLF	n/a	CAPE	WOLF	2	[0, 0, 0]	-999	PAL1	1	R1263C
369.449	4.0	254672	STUDY_PAIR	n/a	wordpools/wordpool_EN.txt	6	2	WOLF	n/a	CAPE	WOLF	2	[0, 0, 0]	-999	PAL1	1	R1263C
373.467	1.0	256681	START	n/a	n/a	-999	-999	n/a	n/a	n/a	n/a	2	[-999, -999, -999]	-999	PAL1	1	R1263C
374.467	0.016	257181	MATH_START	n/a	n/a	-999	-999	n/a	n/a	n/a	n/a	2	[0, 0, 0]	-999	PAL1	1	R1263C
374.483	11.002	257189	PROB	10.973	n/a	-999	-999	n/a	n/a	n/a	n/a	2	[4, 5, 7]	16	PAL1	1	R1263C
385.485	5.318	262690	PROB	5.291	n/a	-999	-999	n/a	n/a	n/a	n/a	2	[6, 8, 1]	15	PAL1	1	R1263C
390.803	6.589	265348	PROB	6.589	n/a	-999	-999	n/a	n/a	n/a	n/a	2	[8, 5, 1]	14	PAL1	1	R1263C
397.392	0.012	268643	STOP	n/a	n/a	-999	-999	n/a	n/a	n/a	n/a	2	[-999, -999, -999]	-999	PAL1	1	R1263C
397.404	0.0	268649	MATH_END	n/a	n/a	-999	-999	n/a	n/a	n/a	n/a	2	[0, 0, 0]	-999	PAL1	1	R1263C
397.404	0.017	268649	TEST_START	n/a	n/a	-999	-999	n/a	n/a	n/a	n/a	2	[0, 0, 0]	-999	PAL1	1	R1263C
397.421	0.275	268657	TEST_ORIENT	n/a	n/a	5	1	SHIRT	PALM	PALM	SHIRT	2	[0, 0, 0]	-999	PAL1	1	R1263C
398.238	4.0	269066	TEST_PROBE	n/a	wordpools/wordpool_EN.txt	5	1	SHIRT	PALM	PALM	SHIRT	2	[0, 0, 0]	-999	PAL1	1	R1263C
398.238	3.038	269066	REC_START	n/a	n/a	5	-999	n/a	PALM	n/a	n/a	2	[0, 0, 0]	-999	PAL1	1	R1263C
401.276	0.5	270584	REC_EVENT	3.038	n/a	5	1	SHIRT	PALM	PALM	SHIRT	2	[0, 0, 0]	-999	PAL1	1	R1263C
401.776	1.479	270834	REC_EVENT	3.538	n/a	5	1	SHIRT	<>	PALM	SHIRT	2	[0, 0, 0]	-999	PAL1	1	R1263C
403.255	0.017	271574	REC_END	n/a	n/a	5	-999	n/a	n/a	n/a	n/a	2	[0, 0, 0]	-999	PAL1	1	R1263C
403.272	0.275	271582	TEST_ORIENT	n/a	n/a	6	2	WOLF	n/a	CAPE	WOLF	2	[0, 0, 0]	-999	PAL1	1	R1263C
404.305	4.0	272099	TEST_PROBE	n/a	wordpools/wordpool_EN.txt	6	2	WOLF	n/a	CAPE	WOLF	2	[0, 0, 0]	-999	PAL1	1	R1263C
404.306	4.899	272099	REC_START	n/a	n/a	6	-999	n/a	n/a	n/a	n/a	2	[0, 0, 0]	-999	PAL1	1	R1263C
409.205	0.11	274549	REC_EVENT	4.899	n/a	6	2	WOLF	<>	CAPE	WOLF	2	[0, 0, 0]	-999	PAL1	1	R1263C
409.315	0.008	274604	REC_END	n/a	n/a	6	-999	n/a	n/a	n/a	n/a	2	[0, 0, 0]	-999	PAL1	1	R1263C
409.323	0.275	274608	TEST_ORIENT	n/a	n/a	3	3	ROOM	n/a	ROOM	BADGE	2	[0, 0, 0]	-999	PAL1	1	R1263C
410.19	4.0	275041	TEST_PROBE	n/a	wordpools/wordpool_EN.txt	3	3	ROOM	n/a	ROOM	BADGE	2	[0, 0, 0]	-999	PAL1	1	R1263C
410.191	5.009	275042	REC_START	n/a	n/a	3	-999	n/a	n/a	n/a	n/a	2	[0, 0, 0]	-999	PAL1	1	R1263C
415.2	0.0	277546	REC_EVENT	5.009	n/a	3	3	ROOM	<>	ROOM	BADGE	2	[0, 0, 0]	-999	PAL1	1	R1263C
415.2	0.008	277546	REC_END	n/a	n/a	3	-999	n/a	n/a	n/a	n/a	2	[0, 0, 0]	-999	PAL1	1	R1263C
415.208	0.275	277550	TEST_ORIENT	n/a	n/a	4	4	DOCK	WALL	DOCK	WALL	2	[0, 0, 0]	-999	PAL1	1	R1263C
416.175	4.0	278033	TEST_PROBE	n/a	wordpools/wordpool_EN.txt	4	4	DOCK	WALL	DOCK	WALL	2	[0, 0, 0]	-999	PAL1	1	R1263C
416.175	1.95	278033	REC_START	n/a	n/a	4	-999	n/a	WALL	n/a	n/a	2	[0, 0, 0]	-999	PAL1	1	R1263C
418.125	0.26	279008	REC_EVENT	1.95	n/a	4	4	DOCK	<>	DOCK	WALL	2	[0, 0, 0]	-999	PAL1	1	R1263C
418.385	0.215	279138	REC_EVENT	2.21	n/a	4	4	DOCK	<>	DOCK	WALL	2	[0, 0, 0]	-999	PAL1	1	R1263C
418.6	0.8	279246	REC_EVENT	2.425	n/a	4	4	DOCK	WALL	DOCK	WALL	2	[0, 0, 0]	-999	PAL1	1	R1263C
419.4	1.792	279646	REC_EVENT	3.225	n/a	4	4	DOCK	<>	DOCK	WALL	2	[0, 0, 0]	-999	PAL1	1	R1263C
421.192	0.017	280542	REC_END	n/a	n/a	4	-999	n/a	n/a	n/a	n/a	2	[0, 0, 0]	-999	PAL1	1	R1263C
421.209	0.275	280550	TEST_ORIENT	n/a	n/a	1	5	BUSH	n/a	BUSH	WAND	2	[0, 0, 0]	-999	PAL1	1	R1263C
422.059	4.0	280975	TEST_PROBE	n/a	wordpools/wordpool_EN.txt	1	5	BUSH	n/a	BUSH	WAND	2	[0, 0, 0]	-999	PAL1	1	R1263C
422.06	5.021	280976	REC_START	n/a	n/a	1	-999	n/a	n/a	n/a	n/a	2	[0, 0, 0]	-999	PAL1	1	R1263C
427.081	0.005	283486	REC_EVENT	5.021	n/a	1	5	BUSH	<>	BUSH	WAND	2	[0, 0, 0]	-999	PAL1	1	R1263C
427.086	0.007	283488	REC_END	n/a	n/a	1	-999	n/a	n/a	n/a	n/a	2	[0, 0, 0]	-999	PAL1	1	R1263C
427.093	0.275	283492	TEST_ORIENT	n/a	n/a	2	6	JAR	n/a	SHIP	JAR	2	[0, 0, 0]	-999	PAL1	1	R1263C
427.96	4.0	283925	TEST_PROBE	n/a	wordpools/wordpool_EN.txt	2	6	JAR	n/a	SHIP	JAR	2	[0, 0, 0]	-999	PAL1	1	R1263C
427.961	5.0	283926	REC_START	n/a	n/a	2	-999	n/a	n/a	n/a	n/a	2	[0, 0, 0]	-999	PAL1	1	R1263C
432.961	0.003	286426	REC_END	n/a	n/a	2	-999	n/a	n/a	n/a	n/a	2	[0, 0, 0]	-999	PAL1	1	R1263C
432.964	2.044	286427	REC_EVENT	5.003	n/a	2	6	JAR	<>	SHIP	JAR	2	[0, 0, 0]	-999	PAL1	1	R1263C
435.008	10.439	287449	ENCODING_START	n/a	n/a	0	-999	n/a	n/a	n/a	n/a	3	[0, 0, 0]	-999	PAL1	1	R1263C
445.447	0.275	292668	STUDY_ORIENT	n/a	n/a	1	1	PIPE	INK	INK	PIPE	3	[0, 0, 0]	-999	PAL1	1	R1263C
446.447	4.0	293168	STUDY_PAIR	n/a	wordpools/wordpool_EN.txt	1	1	PIPE	INK	INK	PIPE	3	[0, 0, 0]	-999	PAL1	1	R1263C
451.465	0.275	295677	STUDY_ORIENT	n/a	n/a	2	2	HOOF	ZOO	HOOF	ZOO	3	[0, 0, 0]	-999	PAL1	1	R1263C
452.448	4.0	296168	STUDY_PAIR	n/a	wordpools/wordpool_EN.txt	2	2	HOOF	ZOO	HOOF	ZOO	3	[0, 0, 0]	-999	PAL1	1	R1263C
457.466	0.275	298677	STUDY_ORIENT	n/a	n/a	3	5	FUDGE	RICE	RICE	FUDGE	3	[0, 0, 0]	-999	PAL1	1	R1263C
458.383	4.0	299136	STUDY_PAIR	n/a	wordpools/wordpool_EN.txt	3	5	FUDGE	RICE	RICE	FUDGE	3	[0, 0, 0]	-999	PAL1	1	R1263C
463.417	0.275	301652	STUDY_ORIENT	n/a	n/a	4	6	CORD	POOL	POOL	CORD	3	[0, 0, 0]	-999	PAL1	1	R1263C
464.367	4.0	302127	STUDY_PAIR	n/a	wordpools/wordpool_EN.txt	4	6	CORD	POOL	POOL	CORD	3	[0, 0, 0]	-999	PAL1	1	R1263C
469.385	0.275	304636	STUDY_ORIENT	n/a	n/a	5	3	STICK	n/a	STICK	BIRD	3	[0, 0, 0]	-999	PAL1	1	R1263C
470.368	4.0	305128	STUDY_PAIR	n/a	wordpools/wordpool_EN.txt	5	3	STICK	n/a	STICK	BIRD	3	[0, 0, 0]	-999	PAL1	1	R1263C
475.386	0.275	307636	STUDY_ORIENT	n/a	n/a	6	4	MAP	DITCH	MAP	DITCH	3	[0, 0, 0]	-999	PAL1	1	R1263C
476.319	4.0	308103	STUDY_PAIR	n/a	wordpools/wordpool_EN.txt	6	4	MAP	DITCH	MAP	DITCH	3	[0, 0, 0]	-999	PAL1	1	R1263C
480.32	1.0	310103	START	n/a	n/a	-999	-999	n/a	n/a	n/a	n/a	3	[-999, -999, -999]	-999	PAL1	1	R1263C
481.32	0.017	310603	MATH_START	n/a	n/a	-999	-999	n/a	n/a	n/a	n/a	3	[0, 0, 0]	-999	PAL1	1	R1263C
481.337	5.818	310612	PROB	5.799	n/a	-999	-999	n/a	n/a	n/a	n/a	3	[2, 4, 4]	10	PAL1	1	R1263C
487.155	6.884	313520	PROB	6.861	n/a	-999	-999	n/a	n/a	n/a	n/a	3	[8, 3, 3]	14	PAL1	1	R1263C
494.039	4.785	316962	PROB	4.744	n/a	-999	-999	n/a	n/a	n/a	n/a	3	[8, 6, 2]	16	PAL1	1	R1263C
498.824	5.488	319354	PROB	5.488	n/a	-999	-999	n/a	n/a	n/a	n/a	3	[6, 2, 6]	14	PAL1	1	R1263C
504.312	0.013	322098	STOP	n/a	n/a	-999	-999	n/a	n/a	n/a	n/a	3	[-999, -999, -999]	-999	PAL1	1	R1263C
504.325	0.0	322105	MATH_END	n/a	n/a	-999	-999	n/a	n/a	n/a	n/a	3	[0, 0, 0]	-999	PAL1	1	R1263C
504.325	0.016	322105	TEST_START	n/a	n/a	-999	-999	n/a	n/a	n/a	n/a	3	[0, 0, 0]	-999	PAL1	1	R1263C
504.341	0.275	322113	TEST_ORIENT	n/a	n/a	1	1	PIPE	INK	INK	PIPE	3	[0, 0, 0]	-999	PAL1	1	R1263C
505.158	4.0	322521	TEST_PROBE	n/a	wordpools/wordpool_EN.txt	1	1	PIPE	INK	INK	PIPE	3	[0, 0, 0]	-999	PAL1	1	R1263C
505.159	1.394	322522	REC_START	n/a	n/a	1	-999	n/a	INK	n/a	n/a	3	[0, 0, 0]	-999	PAL1	1	R1263C
506.553	0.6	323219	REC_EVENT	1.394	n/a	1	1	PIPE	INK	INK	PIPE	3	[0, 0, 0]	-999	PAL1	1	R1263C
507.153	3.014	323519	REC_EVENT	1.994	n/a	1	1	PIPE	<>	INK	PIPE	3	[0, 0, 0]	-999	PAL1	1	R1263C
510.167	0.009	325025	REC_END	n/a	n/a	1	-999	n/a	n/a	n/a	n/a	3	[0, 0, 0]	-999	PAL1	1	R1263C
510.176	0.275	325030	TEST_ORIENT	n/a	n/a	2	2	HOOF	ZOO	HOOF	ZOO	3	[0, 0, 0]	-999	PAL1	1	R1263C
511.093	4.0	325488	TEST_PROBE	n/a	wordpools/wordpool_EN.txt	2	2	HOOF	ZOO	HOOF	ZOO	3	[0, 0, 0]	-999	PAL1	1	R1263C
511.093	1.345	325488	REC_START	n/a	n/a	2	-999	n/a	ZOO	n/a	n/a	3	[0, 0, 0]	-999	PAL1	1	R1263C
512.438	3.672	326161	REC_EVENT	1.345	n/a	2	2	HOOF	ZOO	HOOF	ZOO	3	[0, 0, 0]	-999	PAL1	1	R1263C
516.11	0.017	327997	REC_END	n/a	n/a	2	-999	n/a	n/a	n/a	n/a	3	[0, 0, 0]	-999	PAL1	1	R1263C
516.127	0.275	328005	TEST_ORIENT	n/a	n/a	5	3	STICK	n/a	STICK	BIRD	3	[0, 0, 0]	-999	PAL1	1	R1263C
517.044	4.0	328464	TEST_PROBE	n/a	wordpools/wordpool_EN.txt	5	3	STICK	n/a	STICK	BIRD	3	[0, 0, 0]	-999	PAL1	1	R1263C
517.044	5.015	328464	REC_START	n/a	n/a	5	-999	n/a	n/a	n/a	n/a	3	[0, 0, 0]	-999	PAL1	1	R1263C
522.059	0.002	330971	REC_EVENT	5.015	n/a	5	3	STICK	<>	STICK	BIRD	3	[0, 0, 0]	-999	PAL1	1	R1263C
522.061	0.017	330972	REC_END	n/a	n/a	5	-999	n/a	n/a	n/a	n/a	3	[0, 0, 0]	-999	PAL1	1	R1263C
522.078	0.275	330981	TEST_ORIENT	n/a	n/a	6	4	MAP	DITCH	MAP	DITCH	3	[0, 0, 0]	-999	PAL1	1	R1263C
522.995	4.0	331439	TEST_PROBE	n/a	wordpools/wordpool_EN.txt	6	4	MAP	DITCH	MAP	DITCH	3	[0, 0, 0]	-999	PAL1	1	R1263C
522.996	0.767	331439	REC_START	n/a	n/a	6	-999	n/a	DITCH	n/a	n/a	3	[0, 0, 0]	-999	PAL1	1	R1263C
523.763	0.65	331823	REC_EVENT	0.767	n/a	6	4	MAP	DITCH	MAP	DITCH	3	[0, 0, 0]	-999	PAL1	1	R1263C
524.413	3.608	332148	REC_EVENT	1.417	n/a	6	4	MAP	<>	MAP	DITCH	3	[0, 0, 0]	-999	PAL1	1	R1263C
528.021	0.008	333952	REC_END	n/a	n/a	6	-999	n/a	n/a	n/a	n/a	3	[0, 0, 0]	-999	PAL1	1	R1263C
528.029	0.275	333956	TEST_ORIENT	n/a	n/a	3	5	FUDGE	RICE	RICE	FUDGE	3	[0, 0, 0]	-999	PAL1	1	R1263C
528.963	4.0	334423	TEST_PROBE	n/a	wordpools/wordpool_EN.txt	3	5	FUDGE	RICE	RICE	FUDGE	3	[0, 0, 0]	-999	PAL1	1	R1263C
528.963	1.336	334423	REC_START	n/a	n/a	3	-999	n/a	RICE	n/a	n/a	3	[0, 0, 0]	-999	PAL1	1	R1263C
530.299	3.681	335091	REC_EVENT	1.336	n/a	3	5	FUDGE	RICE	RICE	FUDGE	3	[0, 0, 0]	-999	PAL1	1	R1263C
533.98	0.017	336931	REC_END	n/a	n/a	3	-999	n/a	n/a	n/a	n/a	3	[0, 0, 0]	-999	PAL1	1	R1263C
533.997	0.275	336940	TEST_ORIENT	n/a	n/a	4	6	CORD	POOL	POOL	CORD	3	[0, 0, 0]	-999	PAL1	1	R1263C
534.864	4.0	337373	TEST_PROBE	n/a	wordpools/wordpool_EN.txt	4	6	CORD	POOL	POOL	CORD	3	[0, 0, 0]	-999	PAL1	1	R1263C
534.864	1.56	337373	REC_START	n/a	n/a	4	-999	n/a	POOL	n/a	n/a	3	[0, 0, 0]	-999	PAL1	1	R1263C
536.424	1.28	338153	REC_EVENT	1.56	n/a	4	6	CORD	POOL	POOL	CORD	3	[0, 0, 0]	-999	PAL1	1	R1263C
537.704	2.177	338793	REC_EVENT	2.84	n/a	4	6	CORD	<>	POOL	CORD	3	[0, 0, 0]	-999	PAL1	1	R1263C
539.881	1.774	339881	REC_END	n/a	n/a	4	-999	n/a	n/a	n/a	n/a	3	[0, 0, 0]	-999	PAL1	1	R1263C
541.655	10.446	340768	ENCODING_START	n/a	n/a	0	-999	n/a	n/a	n/a	n/a	4	[0, 0, 0]	-999	PAL1	1	R1263C
552.101	0.275	345991	STUDY_ORIENT	n/a	n/a	1	5	LAWN	PLATE	LAWN	PLATE	4	[0, 0, 0]	-999	PAL1	1	R1263C
552.984	4.0	346432	STUDY_PAIR	n/a	wordpools/wordpool_EN.txt	1	5	LAWN	PLATE	LAWN	PLATE	4	[0, 0, 0]	-999	PAL1	1	R1263C
558.002	0.275	348941	STUDY_ORIENT	n/a	n/a	2	2	PIN	ROCK	ROCK	PIN	4	[0, 0, 0]	-999	PAL1	1	R1263C
558.869	4.0	349374	STUDY_PAIR	n/a	wordpools/wordpool_EN.txt	2	2	PIN	ROCK	ROCK	PIN	4	[0, 0, 0]	-999	PAL1	1	R1263C
563.903	0.275	351891	STUDY_ORIENT	n/a	n/a	3	1	WEED	CANE	WEED	CANE	4	[0, 0, 0]	-999	PAL1	1	R1263C
564.936	4.0	352408	STUDY_PAIR	n/a	wordpools/wordpool_EN.txt	3	1	WEED	CANE	WEED	CANE	4	[0, 0, 0]	-999	PAL1	1	R1263C
569.954	0.275	354917	STUDY_ORIENT	n/a	n/a	4	6	COW	CALF	CALF	COW	4	[0, 0, 0]	-999	PAL1	1	R1263C
570.771	4.0	355325	STUDY_PAIR	n/a	wordpools/wordpool_EN.txt	4	6	COW	CALF	CALF	COW	4	[0, 0, 0]	-999	PAL1	1	R1263C
575.805	0.275	357842	STUDY_ORIENT	n/a	n/a	5	3	PIT	MUG	MUG	PIT	4	[0, 0, 0]	-999	PAL1	1	R1263C
576.822	4.0	358350	STUDY_PAIR	n/a	wordpools/wordpool_EN.txt	5	3	PIT	MUG	MUG	PIT	4	[0, 0, 0]	-999	PAL1	1	R1263C
581.856	0.275	360867	STUDY_ORIENT	n/a	n/a	6	4	RAIN	ICE	RAIN	ICE	4	[0, 0, 0]	-999	PAL1	1	R1263C
582.739	4.0	361309	STUDY_PAIR	n/a	wordpools/wordpool_EN.txt	6	4	RAIN	ICE	RAIN	ICE	4	[0, 0, 0]	-999	PAL1	1	R1263C
586.758	0.999	363318	START	n/a	n/a	-999	-999	n/a	n/a	n/a	n/a	4	[-999, -999, -999]	-999	PAL1	1	R1263C
587.757	0.017	363817	MATH_START	n/a	n/a	-999	-999	n/a	n/a	n/a	n/a	4	[0, 0, 0]	-999	PAL1	1	R1263C
587.774	10.602	363826	PROB	10.578	n/a	-999	-999	n/a	n/a	n/a	n/a	4	[8, 9, 6]	22	PAL1	1	R1263C
598.376	4.518	369126	PROB	4.488	n/a	-999	-999	n/a	n/a	n/a	n/a	4	[7, 7, 7]	21	PAL1	1	R1263C
602.894	5.218	371385	PROB	5.218	n/a	-999	-999	n/a	n/a	n/a	n/a	4	[8, 2, 8]	18	PAL1	1	R1263C
608.112	0.016	373994	STOP	n/a	n/a	-999	-999	n/a	n/a	n/a	n/a	4	[-999, -999, -999]	-999	PAL1	1	R1263C
608.128	0.0	374002	TEST_START	n/a	n/a	-999	-999	n/a	n/a	n/a	n/a	4	[0, 0, 0]	-999	PAL1	1	R1263C
608.128	0.017	374002	MATH_END	n/a	n/a	-999	-999	n/a	n/a	n/a	n/a	4	[0, 0, 0]	-999	PAL1	1	R1263C
608.145	0.275	374010	TEST_ORIENT	n/a	n/a	3	1	WEED	CANE	WEED	CANE	4	[0, 0, 0]	-999	PAL1	1	R1263C
608.978	4.0	374427	TEST_PROBE	n/a	wordpools/wordpool_EN.txt	3	1	WEED	CANE	WEED	CANE	4	[0, 0, 0]	-999	PAL1	1	R1263C
608.978	3.1	374427	REC_START	n/a	n/a	3	-999	n/a	CANE	n/a	n/a	4	[0, 0, 0]	-999	PAL1	1	R1263C
612.078	0.5	375977	REC_EVENT	3.1	n/a	3	1	WEED	CANE	WEED	CANE	4	[0, 0, 0]	-999	PAL1	1	R1263C
612.578	1.418	376227	REC_EVENT	3.6	n/a	3	1	WEED	<>	WEED	CANE	4	[0, 0, 0]	-999	PAL1	1	R1263C
613.996	0.017	376936	REC_END	n/a	n/a	3	-999	n/a	n/a	n/a	n/a	4	[0, 0, 0]	-999	PAL1	1	R1263C
614.013	0.275	376944	TEST_ORIENT	n/a	n/a	2	2	PIN	ROCK	ROCK	PIN	4	[0, 0, 0]	-999	PAL1	1	R1263C
614.846	4.0	377361	TEST_PROBE	n/a	wordpools/wordpool_EN.txt	2	2	PIN	ROCK	ROCK	PIN	4	[0, 0, 0]	-999	PAL1	1	R1263C
614.846	1.908	377361	REC_START	n/a	n/a	2	-999	n/a	ROCK	n/a	n/a	4	[0, 0, 0]	-999	PAL1	1	R1263C
616.754	0.75	378315	REC_EVENT	1.908	n/a	2	2	PIN	ROCK	ROCK	PIN	4	[0, 0, 0]	-999	PAL1	1	R1263C
617.504	2.359	378690	REC_EVENT	2.658	n/a	2	2	PIN	<>	ROCK	PIN	4	[0, 0, 0]	-999	PAL1	1	R1263C
619.863	0.017	379869	REC_END	n/a	n/a	2	-999	n/a	n/a	n/a	n/a	4	[0, 0, 0]	-999	PAL1	1	R1263C
619.88	0.275	379877	TEST_ORIENT	n/a	n/a	5	3	PIT	MUG	MUG	PIT	4	[0, 0, 0]	-999	PAL1	1	R1263C
620.814	4.0	380344	TEST_PROBE	n/a	wordpools/wordpool_EN.txt	5	3	PIT	MUG	MUG	PIT	4	[0, 0, 0]	-999	PAL1	1	R1263C
620.814	2.234	380344	REC_START	n/a	n/a	5	-999	n/a	MUG	n/a	n/a	4	[0, 0, 0]	-999	PAL1	1	R1263C
623.048	0.65	381461	REC_EVENT	2.234	n/a	5	3	PIT	MUG	MUG	PIT	4	[0, 0, 0]	-999	PAL1	1	R1263C
623.698	2.133	381786	REC_EVENT	2.884	n/a	5	3	PIT	<>	MUG	PIT	4	[0, 0, 0]	-999	PAL1	1	R1263C
625.831	0.017	382853	REC_END	n/a	n/a	5	-999	n/a	n/a	n/a	n/a	4	[0, 0, 0]	-999	PAL1	1	R1263C
625.848	0.275	382861	TEST_ORIENT	n/a	n/a	6	4	RAIN	ICE	RAIN	ICE	4	[0, 0, 0]	-999	PAL1	1	R1263C
626.731	4.0	383303	TEST_PROBE	n/a	wordpools/wordpool_EN.txt	6	4	RAIN	ICE	RAIN	ICE	4	[0, 0, 0]	-999	PAL1	1	R1263C
626.731	1.106	383303	REC_START	n/a	n/a	6	-999	n/a	ICE	n/a	n/a	4	[0, 0, 0]	-999	PAL1	1	R1263C
627.837	0.57	383856	REC_EVENT	1.106	n/a	6	4	RAIN	HAIL	RAIN	ICE	4	[0, 0, 0]	-999	PAL1	1	R1263C
628.407	0.765	384141	REC_EVENT	1.676	n/a	6	4	RAIN	<>	RAIN	ICE	4	[0, 0, 0]	-999	PAL1	1	R1263C
629.172	0.565	384523	REC_EVENT	2.441	n/a	6	4	RAIN	ICE	RAIN	ICE	4	[0, 0, 0]	-999	PAL1	1	R1263C
629.737	2.012	384806	REC_EVENT	3.006	n/a	6	4	RAIN	<>	RAIN	ICE	4	[0, 0, 0]	-999	PAL1	1	R1263C
631.749	0.017	385812	REC_END	n/a	n/a	6	-999	n/a	n/a	n/a	n/a	4	[0, 0, 0]	-999	PAL1	1	R1263C
631.766	0.275	385820	TEST_ORIENT	n/a	n/a	1	5	LAWN	PLATE	LAWN	PLATE	4	[0, 0, 0]	-999	PAL1	1	R1263C
632.615	4.0	386244	TEST_PROBE	n/a	wordpools/wordpool_EN.txt	1	5	LAWN	PLATE	LAWN	PLATE	4	[0, 0, 0]	-999	PAL1	1	R1263C
632.616	4.069	386245	REC_START	n/a	n/a	1	-999	n/a	PLATE	n/a	n/a	4	[0, 0, 0]	-999	PAL1	1	R1263C
636.685	0.6	388279	REC_EVENT	4.069	n/a	1	5	LAWN	PLATE	LAWN	PLATE	4	[0, 0, 0]	-999	PAL1	1	R1263C
637.285	0.348	388579	REC_EVENT	4.669	n/a	1	5	LAWN	<>	LAWN	PLATE	4	[0, 0, 0]	-999	PAL1	1	R1263C
637.633	0.016	388753	REC_END	n/a	n/a	1	-999	n/a	n/a	n/a	n/a	4	[0, 0, 0]	-999	PAL1	1	R1263C
637.649	0.275	388761	TEST_ORIENT	n/a	n/a	4	6	COW	CALF	CALF	COW	4	[0, 0, 0]	-999	PAL1	1	R1263C
638.517	4.0	389195	TEST_PROBE	n/a	wordpools/wordpool_EN.txt	4	6	COW	CALF	CALF	COW	4	[0, 0, 0]	-999	PAL1	1	R1263C
638.518	1.785	389196	REC_START	n/a	n/a	4	-999	n/a	CALF	n/a	n/a	4	[0, 0, 0]	-999	PAL1	1	R1263C
640.303	0.65	390088	REC_EVENT	1.785	n/a	4	6	COW	CALF	CALF	COW	4	[0, 0, 0]	-999	PAL1	1	R1263C
640.953	2.574	390413	REC_EVENT	2.435	n/a	4	6	COW	<>	CALF	COW	4	[0, 0, 0]	-999	PAL1	1	R1263C
643.527	1.745	391700	REC_END	n/a	n/a	4	-999	n/a	n/a	n/a	n/a	4	[0, 0, 0]	-999	PAL1	1	R1263C
645.272	10.448	392572	ENCODING_START	n/a	n/a	0	-999	n/a	n/a	n/a	n/a	5	[0, 0, 0]	-999	PAL1	1	R1263C
655.72	0.275	397796	STUDY_ORIENT	n/a	n/a	1	1	MULE	BOARD	BOARD	MULE	5	[0, 0, 0]	-999	PAL1	1	R1263C
656.586	4.0	398229	STUDY_PAIR	n/a	wordpools/wordpool_EN.txt	1	1	MULE	BOARD	BOARD	MULE	5	[0, 0, 0]	-999	PAL1	1	R1263C
661.604	0.275	400738	STUDY_ORIENT	n/a	n/a	2	2	FLUTE	BOOK	BOOK	FLUTE	5	[0, 0, 0]	-999	PAL1	1	R1263C
662.522	4.0	401197	STUDY_PAIR	n/a	wordpools/wordpool_EN.txt	2	2	FLUTE	BOOK	BOOK	FLUTE	5	[0, 0, 0]	-999	PAL1	1	R1263C
667.555	0.275	403713	STUDY_ORIENT	n/a	n/a	3	3	DEER	SMOKE	DEER	SMOKE	5	[0, 0, 0]	-999	PAL1	1	R1263C
668.423	4.0	404147	STUDY_PAIR	n/a	wordpools/wordpool_EN.txt	3	3	DEER	SMOKE	DEER	SMOKE	5	[0, 0, 0]	-999	PAL1	1	R1263C
673.457	0.275	406664	STUDY_ORIENT	n/a	n/a	4	4	SMILE	CHEEK	CHEEK	SMILE	5	[0, 0, 0]	-999	PAL1	1	R1263C
674.391	4.0	407131	STUDY_PAIR	n/a	wordpools/wordpool_EN.txt	4	4	SMILE	CHEEK	CHEEK	SMILE	5	[0, 0, 0]	-999	PAL1	1	R1263C
679.425	0.275	409648	STUDY_ORIENT	n/a	n/a	5	5	CAGE	VEST	VEST	CAGE	5	[0, 0, 0]	-999	PAL1	1	R1263C
680.358	4.0	410114	STUDY_PAIR	n/a	wordpools/wordpool_EN.txt	5	5	CAGE	VEST	VEST	CAGE	5	[0, 0, 0]	-999	PAL1	1	R1263C
685.376	0.275	412623	STUDY_ORIENT	n/a	n/a	6	6	SHELL	CLOTH	SHELL	CLOTH	5	[0, 0, 0]	-999	PAL1	1	R1263C
686.326	4.0	413098	STUDY_PAIR	n/a	wordpools/wordpool_EN.txt	6	6	SHELL	CLOTH	SHELL	CLOTH	5	[0, 0, 0]	-999	PAL1	1	R1263C
690.327	1.0	415098	START	n/a	n/a	-999	-999	n/a	n/a	n/a	n/a	5	[-999, -999, -999]	-999	PAL1	1	R1263C
691.327	0.017	415598	MATH_START	n/a	n/a	-999	-999	n/a	n/a	n/a	n/a	5	[0, 0, 0]	-999	PAL1	1	R1263C
691.344	4.851	415607	PROB	4.832	n/a	-999	-999	n/a	n/a	n/a	n/a	5	[5, 2, 2]	9	PAL1	1	R1263C
696.195	5.268	418032	PROB	5.245	n/a	-999	-999	n/a	n/a	n/a	n/a	5	[2, 4, 1]	7	PAL1	1	R1263C
701.463	5.534	420666	PROB	5.505	n/a	-999	-999	n/a	n/a	n/a	n/a	5	[8, 5, 3]	16	PAL1	1	R1263C
706.997	6.851	423432	PROB	6.851	n/a	-999	-999	n/a	n/a	n/a	n/a	5	[8, 4, 2]	14	PAL1	1	R1263C
713.848	0.017	426858	STOP	n/a	n/a	-999	-999	n/a	n/a	n/a	n/a	5	[-999, -999, -999]	-999	PAL1	1	R1263C
713.865	0.0	426866	MATH_END	n/a	n/a	-999	-999	n/a	n/a	n/a	n/a	5	[0, 0, 0]	-999	PAL1	1	R1263C
713.865	0.017	426866	TEST_START	n/a	n/a	-999	-999	n/a	n/a	n/a	n/a	5	[0, 0, 0]	-999	PAL1	1	R1263C
713.882	0.275	426875	TEST_ORIENT	n/a	n/a	1	1	MULE	BOARD	BOARD	MULE	5	[0, 0, 0]	-999	PAL1	1	R1263C
714.782	4.0	427325	TEST_PROBE	n/a	wordpools/wordpool_EN.txt	1	1	MULE	BOARD	BOARD	MULE	5	[0, 0, 0]	-999	PAL1	1	R1263C
714.782	3.56	427325	REC_START	n/a	n/a	1	-999	n/a	BOARD	n/a	n/a	5	[0, 0, 0]	-999	PAL1	1	R1263C
718.342	0.6	429104	REC_EVENT	3.56	n/a	1	1	MULE	BOARD	BOARD	MULE	5	[0, 0, 0]	-999	PAL1	1	R1263C
718.942	0.86	429404	REC_EVENT	4.16	n/a	1	1	MULE	<>	BOARD	MULE	5	[0, 0, 0]	-999	PAL1	1	R1263C
719.802	0.014	429834	REC_END	n/a	n/a	1	-999	n/a	n/a	n/a	n/a	5	[0, 0, 0]	-999	PAL1	1	R1263C
719.816	0.275	429841	TEST_ORIENT	n/a	n/a	2	2	FLUTE	BOOK	BOOK	FLUTE	5	[0, 0, 0]	-999	PAL1	1	R1263C
720.783	4.0	430325	TEST_PROBE	n/a	wordpools/wordpool_EN.txt	2	2	FLUTE	BOOK	BOOK	FLUTE	5	[0, 0, 0]	-999	PAL1	1	R1263C
720.784	2.212	430325	REC_START	n/a	n/a	2	-999	n/a	BOOK	n/a	n/a	5	[0, 0, 0]	-999	PAL1	1	R1263C
722.996	0.5	431431	REC_EVENT	2.212	n/a	2	2	FLUTE	BOOK	BOOK	FLUTE	5	[0, 0, 0]	-999	PAL1	1	R1263C
723.496	2.313	431681	REC_EVENT	2.712	n/a	2	2	FLUTE	<>	BOOK	FLUTE	5	[0, 0, 0]	-999	PAL1	1	R1263C
725.809	0.008	432838	REC_END	n/a	n/a	2	-999	n/a	n/a	n/a	n/a	5	[0, 0, 0]	-999	PAL1	1	R1263C
725.817	0.275	432842	TEST_ORIENT	n/a	n/a	3	3	DEER	SMOKE	DEER	SMOKE	5	[0, 0, 0]	-999	PAL1	1	R1263C
726.716	4.0	433291	TEST_PROBE	n/a	wordpools/wordpool_EN.txt	3	3	DEER	SMOKE	DEER	SMOKE	5	[0, 0, 0]	-999	PAL1	1	R1263C
726.717	1.189	433292	REC_START	n/a	n/a	3	-999	n/a	SMOKE	n/a	n/a	5	[0, 0, 0]	-999	PAL1	1	R1263C
727.906	0.7	433886	REC_EVENT	1.189	n/a	3	3	DEER	SMOKE	DEER	SMOKE	5	[0, 0, 0]	-999	PAL1	1	R1263C
728.606	3.12	434236	REC_EVENT	1.889	n/a	3	3	DEER	<>	DEER	SMOKE	5	[0, 0, 0]	-999	PAL1	1	R1263C
731.726	0.008	435796	REC_END	n/a	n/a	3	-999	n/a	n/a	n/a	n/a	5	[0, 0, 0]	-999	PAL1	1	R1263C
731.734	0.275	435800	TEST_ORIENT	n/a	n/a	4	4	SMILE	CHEEK	CHEEK	SMILE	5	[0, 0, 0]	-999	PAL1	1	R1263C
732.718	0.0	436292	REC_START	n/a	n/a	4	-999	n/a	CHEEK	n/a	n/a	5	[0, 0, 0]	-999	PAL1	1	R1263C
732.718	4.0	436292	TEST_PROBE	n/a	wordpools/wordpool_EN.txt	4	4	SMILE	CHEEK	CHEEK	SMILE	5	[0, 0, 0]	-999	PAL1	1	R1263C
733.641	0.6	436753	REC_EVENT	0.923	n/a	4	4	SMILE	CHEEK	CHEEK	SMILE	5	[0, 0, 0]	-999	PAL1	1	R1263C
734.241	3.494	437053	REC_EVENT	1.523	n/a	4	4	SMILE	<>	CHEEK	SMILE	5	[0, 0, 0]	-999	PAL1	1	R1263C
737.735	0.018	438800	REC_END	n/a	n/a	4	-999	n/a	n/a	n/a	n/a	5	[0, 0, 0]	-999	PAL1	1	R1263C
737.753	0.275	438809	TEST_ORIENT	n/a	n/a	5	5	CAGE	VEST	VEST	CAGE	5	[0, 0, 0]	-999	PAL1	1	R1263C
738.702	4.0	439284	TEST_PROBE	n/a	wordpools/wordpool_EN.txt	5	5	CAGE	VEST	VEST	CAGE	5	[0, 0, 0]	-999	PAL1	1	R1263C
738.703	2.137	439284	REC_START	n/a	n/a	5	-999	n/a	VEST	n/a	n/a	5	[0, 0, 0]	-999	PAL1	1	R1263C
740.84	0.8	440353	REC_EVENT	2.137	n/a	5	5	CAGE	VEST	VEST	CAGE	5	[0, 0, 0]	-999	PAL1	1	R1263C
741.64	2.079	440753	REC_EVENT	2.937	n/a	5	5	CAGE	<>	VEST	CAGE	5	[0, 0, 0]	-999	PAL1	1	R1263C
743.719	0.017	441792	REC_END	n/a	n/a	5	-999	n/a	n/a	n/a	n/a	5	[0, 0, 0]	-999	PAL1	1	R1263C
743.736	0.275	441800	TEST_ORIENT	n/a	n/a	6	6	SHELL	CLOTH	SHELL	CLOTH	5	[0, 0, 0]	-999	PAL1	1	R1263C
744.754	4.0	442309	TEST_PROBE	n/a	wordpools/wordpool_EN.txt	6	6	SHELL	CLOTH	SHELL	CLOTH	5	[0, 0, 0]	-999	PAL1	1	R1263C
744.754	2.091	442309	REC_START	n/a	n/a	6	-999	n/a	CLOTH	n/a	n/a	5	[0, 0, 0]	-999	PAL1	1	R1263C
746.845	0.7	443355	REC_EVENT	2.091	n/a	6	6	SHELL	CLOTH	SHELL	CLOTH	5	[0, 0, 0]	-999	PAL1	1	R1263C
747.545	2.227	443705	REC_EVENT	2.791	n/a	6	6	SHELL	<>	SHELL	CLOTH	5	[0, 0, 0]	-999	PAL1	1	R1263C
749.772	1.692	444818	REC_END	n/a	n/a	6	-999	n/a	n/a	n/a	n/a	5	[0, 0, 0]	-999	PAL1	1	R1263C
751.464	10.443	445664	ENCODING_START	n/a	n/a	0	-999	n/a	n/a	n/a	n/a	6	[0, 0, 0]	-999	PAL1	1	R1263C
761.907	0.275	450885	STUDY_ORIENT	n/a	n/a	1	5	SIGN	BARN	BARN	SIGN	6	[0, 0, 0]	-999	PAL1	1	R1263C
762.907	4.0	451385	STUDY_PAIR	n/a	wordpools/wordpool_EN.txt	1	5	SIGN	BARN	BARN	SIGN	6	[0, 0, 0]	-999	PAL1	1	R1263C
767.925	0.275	453894	STUDY_ORIENT	n/a	n/a	2	6	TAIL	GRAPE	TAIL	GRAPE	6	[0, 0, 0]	-999	PAL1	1	R1263C
768.708	4.0	454285	STUDY_PAIR	n/a	wordpools/wordpool_EN.txt	2	6	TAIL	GRAPE	TAIL	GRAPE	6	[0, 0, 0]	-999	PAL1	1	R1263C
773.742	0.275	456802	STUDY_ORIENT	n/a	n/a	3	1	PIG	ROPE	ROPE	PIG	6	[0, 0, 0]	-999	PAL1	1	R1263C
774.543	4.0	457203	STUDY_PAIR	n/a	wordpools/wordpool_EN.txt	3	1	PIG	ROPE	ROPE	PIG	6	[0, 0, 0]	-999	PAL1	1	R1263C
779.56	0.275	459711	STUDY_ORIENT	n/a	n/a	4	4	SALT	n/a	SALT	MOTH	6	[0, 0, 0]	-999	PAL1	1	R1263C
780.478	4.0	460170	STUDY_PAIR	n/a	wordpools/wordpool_EN.txt	4	4	SALT	n/a	SALT	MOTH	6	[0, 0, 0]	-999	PAL1	1	R1263C
785.512	0.275	462687	STUDY_ORIENT	n/a	n/a	5	3	TENT	PEAR	PEAR	TENT	6	[0, 0, 0]	-999	PAL1	1	R1263C
786.462	4.0	463162	STUDY_PAIR	n/a	wordpools/wordpool_EN.txt	5	3	TENT	PEAR	PEAR	TENT	6	[0, 0, 0]	-999	PAL1	1	R1263C
791.48	0.275	465670	STUDY_ORIENT	n/a	n/a	6	2	CHIEF	n/a	DOG	CHIEF	6	[0, 0, 0]	-999	PAL1	1	R1263C
792.38	4.0	466120	STUDY_PAIR	n/a	wordpools/wordpool_EN.txt	6	2	CHIEF	n/a	DOG	CHIEF	6	[0, 0, 0]	-999	PAL1	1	R1263C
796.398	0.999	468129	START	n/a	n/a	-999	-999	n/a	n/a	n/a	n/a	6	[-999, -999, -999]	-999	PAL1	1	R1263C
797.397	0.017	468629	MATH_START	n/a	n/a	-999	-999	n/a	n/a	n/a	n/a	6	[0, 0, 0]	-999	PAL1	1	R1263C
797.414	5.468	468637	PROB	5.442	n/a	-999	-999	n/a	n/a	n/a	n/a	6	[1, 9, 1]	11	PAL1	1	R1263C
802.882	10.635	471371	PROB	10.606	n/a	-999	-999	n/a	n/a	n/a	n/a	6	[3, 4, 5]	12	PAL1	1	R1263C
813.517	6.643	476688	PROB	6.643	n/a	-999	-999	n/a	n/a	n/a	n/a	6	[1, 7, 4]	12	PAL1	1	R1263C
820.16	0.009	480009	STOP	n/a	n/a	-999	-999	n/a	n/a	n/a	n/a	6	[-999, -999, -999]	-999	PAL1	1	R1263C
820.169	0.0	480014	MATH_END	n/a	n/a	-999	-999	n/a	n/a	n/a	n/a	6	[0, 0, 0]	-999	PAL1	1	R1263C
820.169	0.016	480014	TEST_START	n/a	n/a	-999	-999	n/a	n/a	n/a	n/a	6	[0, 0, 0]	-999	PAL1	1	R1263C
820.185	0.275	480022	TEST_ORIENT	n/a	n/a	3	1	PIG	ROPE	ROPE	PIG	6	[0, 0, 0]	-999	PAL1	1	R1263C
821.035	4.0	480447	TEST_PROBE	n/a	wordpools/wordpool_EN.txt	3	1	PIG	ROPE	ROPE	PIG	6	[0, 0, 0]	-999	PAL1	1	R1263C
821.036	3.168	480447	REC_START	n/a	n/a	3	-999	n/a	ROPE	n/a	n/a	6	[0, 0, 0]	-999	PAL1	1	R1263C
824.204	0.65	482031	REC_EVENT	3.168	n/a	3	1	PIG	ROPE	ROPE	PIG	6	[0, 0, 0]	-999	PAL1	1	R1263C
824.854	1.19	482356	REC_EVENT	3.818	n/a	3	1	PIG	<>	ROPE	PIG	6	[0, 0, 0]	-999	PAL1	1	R1263C
826.044	0.009	482951	REC_END	n/a	n/a	3	-999	n/a	n/a	n/a	n/a	6	[0, 0, 0]	-999	PAL1	1	R1263C
826.053	0.275	482956	TEST_ORIENT	n/a	n/a	6	2	CHIEF	n/a	DOG	CHIEF	6	[0, 0, 0]	-999	PAL1	1	R1263C
826.953	4.0	483406	TEST_PROBE	n/a	wordpools/wordpool_EN.txt	6	2	CHIEF	n/a	DOG	CHIEF	6	[0, 0, 0]	-999	PAL1	1	R1263C
826.954	5.009	483406	REC_START	n/a	n/a	6	-999	n/a	n/a	n/a	n/a	6	[0, 0, 0]	-999	PAL1	1	R1263C
831.963	0.0	485910	REC_EVENT	5.009	n/a	6	2	CHIEF	<>	DOG	CHIEF	6	[0, 0, 0]	-999	PAL1	1	R1263C
831.963	0.008	485910	REC_END	n/a	n/a	6	-999	n/a	n/a	n/a	n/a	6	[0, 0, 0]	-999	PAL1	1	R1263C
831.971	0.275	485914	TEST_ORIENT	n/a	n/a	5	3	TENT	PEAR	PEAR	TENT	6	[0, 0, 0]	-999	PAL1	1	R1263C
832.804	4.0	486331	TEST_PROBE	n/a	wordpools/wordpool_EN.txt	5	3	TENT	PEAR	PEAR	TENT	6	[0, 0, 0]	-999	PAL1	1	R1263C
832.805	1.226	486331	REC_START	n/a	n/a	5	-999	n/a	PEAR	n/a	n/a	6	[0, 0, 0]	-999	PAL1	1	R1263C
834.031	0.5	486944	REC_EVENT	1.226	n/a	5	3	TENT	PEAR	PEAR	TENT	6	[0, 0, 0]	-999	PAL1	1	R1263C
834.531	3.283	487194	REC_EVENT	1.726	n/a	5	3	TENT	<>	PEAR	TENT	6	[0, 0, 0]	-999	PAL1	1	R1263C
837.814	0.008	488836	REC_END	n/a	n/a	5	-999	n/a	n/a	n/a	n/a	6	[0, 0, 0]	-999	PAL1	1	R1263C
837.822	0.275	488840	TEST_ORIENT	n/a	n/a	4	4	SALT	n/a	SALT	MOTH	6	[0, 0, 0]	-999	PAL1	1	R1263C
838.772	0.0	489315	REC_START	n/a	n/a	4	-999	n/a	n/a	n/a	n/a	6	[0, 0, 0]	-999	PAL1	1	R1263C
838.772	4.0	489315	TEST_PROBE	n/a	wordpools/wordpool_EN.txt	4	4	SALT	n/a	SALT	MOTH	6	[0, 0, 0]	-999	PAL1	1	R1263C
843.787	0.003	491822	REC_EVENT	5.015	n/a	4	4	SALT	<>	SALT	MOTH	6	[0, 0, 0]	-999	PAL1	1	R1263C
843.79	0.016	491823	REC_END	n/a	n/a	4	-999	n/a	n/a	n/a	n/a	6	[0, 0, 0]	-999	PAL1	1	R1263C
843.806	0.275	491831	TEST_ORIENT	n/a	n/a	1	5	SIGN	BARN	BARN	SIGN	6	[0, 0, 0]	-999	PAL1	1	R1263C
844.773	4.0	492315	TEST_PROBE	n/a	wordpools/wordpool_EN.txt	1	5	SIGN	BARN	BARN	SIGN	6	[0, 0, 0]	-999	PAL1	1	R1263C
844.774	1.989	492315	REC_START	n/a	n/a	1	-999	n/a	BARN	n/a	n/a	6	[0, 0, 0]	-999	PAL1	1	R1263C
846.763	0.55	493310	REC_EVENT	1.989	n/a	1	5	SIGN	BARN	BARN	SIGN	6	[0, 0, 0]	-999	PAL1	1	R1263C
847.313	2.472	493585	REC_EVENT	2.539	n/a	1	5	SIGN	<>	BARN	SIGN	6	[0, 0, 0]	-999	PAL1	1	R1263C
849.785	0.023	494821	REC_END	n/a	n/a	1	-999	n/a	n/a	n/a	n/a	6	[0, 0, 0]	-999	PAL1	1	R1263C
849.808	0.275	494832	TEST_ORIENT	n/a	n/a	2	6	TAIL	GRAPE	TAIL	GRAPE	6	[0, 0, 0]	-999	PAL1	1	R1263C
850.623	4.0	495240	TEST_PROBE	n/a	wordpools/wordpool_EN.txt	2	6	TAIL	GRAPE	TAIL	GRAPE	6	[0, 0, 0]	-999	PAL1	1	R1263C
850.624	2.889	495240	REC_START	n/a	n/a	2	-999	n/a	GRAPE	n/a	n/a	6	[0, 0, 0]	-999	PAL1	1	R1263C
853.513	0.65	496684	REC_EVENT	2.889	n/a	2	6	TAIL	GRAPE	TAIL	GRAPE	6	[0, 0, 0]	-999	PAL1	1	R1263C
854.163	1.47	497009	REC_EVENT	3.539	n/a	2	6	TAIL	<>	TAIL	GRAPE	6	[0, 0, 0]	-999	PAL1	1	R1263C
855.633	20.998	497744	REC_END	n/a	n/a	2	-999	n/a	n/a	n/a	n/a	6	[0, 0, 0]	-999	PAL1	1	R1263C
876.631	10.45	508242	ENCODING_START	n/a	n/a	0	-999	n/a	n/a	n/a	n/a	7	[0, 0, 0]	-999	PAL1	1	R1263C
887.081	0.275	513467	STUDY_ORIENT	n/a	n/a	1	3	EAR	BEAR	EAR	BEAR	7	[0, 0, 0]	-999	PAL1	1	R1263C
887.865	4.0	513859	STUDY_PAIR	n/a	wordpools/wordpool_EN.txt	1	3	EAR	BEAR	EAR	BEAR	7	[0, 0, 0]	-999	PAL1	1	R1263C
892.899	0.275	516376	STUDY_ORIENT	n/a	n/a	2	4	MAZE	SHARK	SHARK	MAZE	7	[0, 0, 0]	-999	PAL1	1	R1263C
893.766	4.0	516809	STUDY_PAIR	n/a	wordpools/wordpool_EN.txt	2	4	MAZE	SHARK	SHARK	MAZE	7	[0, 0, 0]	-999	PAL1	1	R1263C
898.8	0.275	519326	STUDY_ORIENT	n/a	n/a	3	5	SPRING	STEAK	STEAK	SPRING	7	[0, 0, 0]	-999	PAL1	1	R1263C
899.716	4.0	519784	STUDY_PAIR	n/a	wordpools/wordpool_EN.txt	3	5	SPRING	STEAK	STEAK	SPRING	7	[0, 0, 0]	-999	PAL1	1	R1263C
904.734	0.275	522293	STUDY_ORIENT	n/a	n/a	4	6	TRASH	STRING	STEAM	TRASH	7	[0, 0, 0]	-999	PAL1	1	R1263C
905.634	4.0	522743	STUDY_PAIR	n/a	wordpools/wordpool_EN.txt	4	6	TRASH	STRING	STEAM	TRASH	7	[0, 0, 0]	-999	PAL1	1	R1263C
910.668	0.275	525260	STUDY_ORIENT	n/a	n/a	5	1	SHEET	BLUSH	SHEET	BLUSH	7	[0, 0, 0]	-999	PAL1	1	R1263C
911.685	4.0	525768	STUDY_PAIR	n/a	wordpools/wordpool_EN.txt	5	1	SHEET	BLUSH	SHEET	BLUSH	7	[0, 0, 0]	-999	PAL1	1	R1263C
916.703	0.275	528277	STUDY_ORIENT	n/a	n/a	6	2	WAVE	HOSE	WAVE	HOSE	7	[0, 0, 0]	-999	PAL1	1	R1263C
917.487	4.0	528669	STUDY_PAIR	n/a	wordpools/wordpool_EN.txt	6	2	WAVE	HOSE	WAVE	HOSE	7	[0, 0, 0]	-999	PAL1	1	R1263C
921.488	1.0	530669	START	n/a	n/a	-999	-999	n/a	n/a	n/a	n/a	7	[-999, -999, -999]	-999	PAL1	1	R1263C
922.488	0.017	531169	MATH_START	n/a	n/a	-999	-999	n/a	n/a	n/a	n/a	7	[0, 0, 0]	-999	PAL1	1	R1263C
922.505	5.551	531178	PROB	5.527	n/a	-999	-999	n/a	n/a	n/a	n/a	7	[2, 8, 1]	11	PAL1	1	R1263C
928.056	4.851	533953	PROB	4.824	n/a	-999	-999	n/a	n/a	n/a	n/a	7	[6, 1, 8]	15	PAL1	1	R1263C
932.907	15.525	536378	PROB	15.525	n/a	-999	-999	n/a	n/a	n/a	n/a	7	[9, 4, 7]	20	PAL1	1	R1263C
948.432	0.011	544140	STOP	n/a	n/a	-999	-999	n/a	n/a	n/a	n/a	7	[-999, -999, -999]	-999	PAL1	1	R1263C
948.443	0.0	544146	MATH_END	n/a	n/a	-999	-999	n/a	n/a	n/a	n/a	7	[0, 0, 0]	-999	PAL1	1	R1263C
948.443	0.017	544146	TEST_START	n/a	n/a	-999	-999	n/a	n/a	n/a	n/a	7	[0, 0, 0]	-999	PAL1	1	R1263C
948.46	0.275	544154	TEST_ORIENT	n/a	n/a	5	1	SHEET	BLUSH	SHEET	BLUSH	7	[0, 0, 0]	-999	PAL1	1	R1263C
949.377	4.0	544612	TEST_PROBE	n/a	wordpools/wordpool_EN.txt	5	1	SHEET	BLUSH	SHEET	BLUSH	7	[0, 0, 0]	-999	PAL1	1	R1263C
949.377	2.024	544612	REC_START	n/a	n/a	5	-999	n/a	BLUSH	n/a	n/a	7	[0, 0, 0]	-999	PAL1	1	R1263C
951.401	0.65	545624	REC_EVENT	2.024	n/a	5	1	SHEET	BLUSH	SHEET	BLUSH	7	[0, 0, 0]	-999	PAL1	1	R1263C
952.051	2.343	545949	REC_EVENT	2.674	n/a	5	1	SHEET	<>	SHEET	BLUSH	7	[0, 0, 0]	-999	PAL1	1	R1263C
954.394	0.017	547121	REC_END	n/a	n/a	5	-999	n/a	n/a	n/a	n/a	7	[0, 0, 0]	-999	PAL1	1	R1263C
954.411	0.275	547129	TEST_ORIENT	n/a	n/a	6	2	WAVE	HOSE	WAVE	HOSE	7	[0, 0, 0]	-999	PAL1	1	R1263C
955.361	0.0	547604	REC_START	n/a	n/a	6	-999	n/a	HOSE	n/a	n/a	7	[0, 0, 0]	-999	PAL1	1	R1263C
955.361	4.0	547604	TEST_PROBE	n/a	wordpools/wordpool_EN.txt	6	2	WAVE	HOSE	WAVE	HOSE	7	[0, 0, 0]	-999	PAL1	1	R1263C
957.306	0.595	548577	REC_EVENT	1.945	n/a	6	2	WAVE	HOSE	WAVE	HOSE	7	[0, 0, 0]	-999	PAL1	1	R1263C
957.901	2.478	548874	REC_EVENT	2.54	n/a	6	2	WAVE	<>	WAVE	HOSE	7	[0, 0, 0]	-999	PAL1	1	R1263C
960.379	0.016	550113	REC_END	n/a	n/a	6	-999	n/a	n/a	n/a	n/a	7	[0, 0, 0]	-999	PAL1	1	R1263C
960.395	0.275	550121	TEST_ORIENT	n/a	n/a	1	3	EAR	BEAR	EAR	BEAR	7	[0, 0, 0]	-999	PAL1	1	R1263C
961.279	4.0	550563	TEST_PROBE	n/a	wordpools/wordpool_EN.txt	1	3	EAR	BEAR	EAR	BEAR	7	[0, 0, 0]	-999	PAL1	1	R1263C
961.279	1.054	550563	REC_START	n/a	n/a	1	-999	n/a	BEAR	n/a	n/a	7	[0, 0, 0]	-999	PAL1	1	R1263C
962.333	0.4	551090	REC_EVENT	1.054	n/a	1	3	EAR	BEAR	EAR	BEAR	7	[0, 0, 0]	-999	PAL1	1	R1263C
962.733	3.563	551290	REC_EVENT	1.454	n/a	1	3	EAR	<>	EAR	BEAR	7	[0, 0, 0]	-999	PAL1	1	R1263C
966.296	0.017	553071	REC_END	n/a	n/a	1	-999	n/a	n/a	n/a	n/a	7	[0, 0, 0]	-999	PAL1	1	R1263C
966.313	0.275	553080	TEST_ORIENT	n/a	n/a	2	4	MAZE	SHARK	SHARK	MAZE	7	[0, 0, 0]	-999	PAL1	1	R1263C
967.33	4.0	553588	TEST_PROBE	n/a	wordpools/wordpool_EN.txt	2	4	MAZE	SHARK	SHARK	MAZE	7	[0, 0, 0]	-999	PAL1	1	R1263C
967.331	1.982	553589	REC_START	n/a	n/a	2	-999	n/a	SHARK	n/a	n/a	7	[0, 0, 0]	-999	PAL1	1	R1263C
969.313	0.75	554580	REC_EVENT	1.982	n/a	2	4	MAZE	SHARK	SHARK	MAZE	7	[0, 0, 0]	-999	PAL1	1	R1263C
970.063	2.285	554955	REC_EVENT	2.732	n/a	2	4	MAZE	<>	SHARK	MAZE	7	[0, 0, 0]	-999	PAL1	1	R1263C
972.348	0.016	556097	REC_END	n/a	n/a	2	-999	n/a	n/a	n/a	n/a	7	[0, 0, 0]	-999	PAL1	1	R1263C
972.364	0.275	556105	TEST_ORIENT	n/a	n/a	3	5	SPRING	STEAK	STEAK	SPRING	7	[0, 0, 0]	-999	PAL1	1	R1263C
973.348	4.0	556597	TEST_PROBE	n/a	wordpools/wordpool_EN.txt	3	5	SPRING	STEAK	STEAK	SPRING	7	[0, 0, 0]	-999	PAL1	1	R1263C
973.348	1.617	556597	REC_START	n/a	n/a	3	-999	n/a	STEAK	n/a	n/a	7	[0, 0, 0]	-999	PAL1	1	R1263C
974.965	0.735	557405	REC_EVENT	1.617	n/a	3	5	SPRING	STEAK	STEAK	SPRING	7	[0, 0, 0]	-999	PAL1	1	R1263C
975.7	2.665	557773	REC_EVENT	2.352	n/a	3	5	SPRING	<>	STEAK	SPRING	7	[0, 0, 0]	-999	PAL1	1	R1263C
978.365	0.017	559105	REC_END	n/a	n/a	3	-999	n/a	n/a	n/a	n/a	7	[0, 0, 0]	-999	PAL1	1	R1263C
978.382	0.275	559114	TEST_ORIENT	n/a	n/a	4	6	TRASH	STRING	STEAM	TRASH	7	[0, 0, 0]	-999	PAL1	1	R1263C
979.332	4.0	559589	TEST_PROBE	n/a	wordpools/wordpool_EN.txt	4	6	TRASH	STRING	STEAM	TRASH	7	[0, 0, 0]	-999	PAL1	1	R1263C
979.333	3.171	559589	REC_START	n/a	n/a	4	-999	n/a	STRING	n/a	n/a	7	[0, 0, 0]	-999	PAL1	1	R1263C
982.504	1.84	561175	REC_EVENT	3.171	n/a	4	6	TRASH	STRING	STEAM	TRASH	7	[0, 0, 0]	-999	PAL1	1	R1263C
984.344	1.688	562095	REC_END	n/a	n/a	4	-999	n/a	n/a	n/a	n/a	7	[0, 0, 0]	-999	PAL1	1	R1263C
986.032	10.454	562938	ENCODING_START	n/a	n/a	0	-999	n/a	n/a	n/a	n/a	8	[0, 0, 0]	-999	PAL1	1	R1263C
996.486	0.275	568165	STUDY_ORIENT	n/a	n/a	1	3	HORSE	SCHOOL	SCHOOL	HORSE	8	[0, 0, 0]	-999	PAL1	1	R1263C
997.369	4.0	568607	STUDY_PAIR	n/a	wordpools/wordpool_EN.txt	1	3	HORSE	SCHOOL	SCHOOL	HORSE	8	[0, 0, 0]	-999	PAL1	1	R1263C
1002.387	0.275	571115	STUDY_ORIENT	n/a	n/a	2	4	HOOK	n/a	HOOK	WHALE	8	[0, 0, 0]	-999	PAL1	1	R1263C
1003.187	4.0	571515	STUDY_PAIR	n/a	wordpools/wordpool_EN.txt	2	4	HOOK	n/a	HOOK	WHALE	8	[0, 0, 0]	-999	PAL1	1	R1263C
1008.221	0.275	574032	STUDY_ORIENT	n/a	n/a	3	1	DOOR	n/a	JEEP	DOOR	8	[0, 0, 0]	-999	PAL1	1	R1263C
1009.005	4.0	574424	STUDY_PAIR	n/a	wordpools/wordpool_EN.txt	3	1	DOOR	n/a	JEEP	DOOR	8	[0, 0, 0]	-999	PAL1	1	R1263C
1014.039	0.275	576941	STUDY_ORIENT	n/a	n/a	4	2	SLEEVE	n/a	SEED	SLEEVE	8	[0, 0, 0]	-999	PAL1	1	R1263C
1015.006	4.0	577424	STUDY_PAIR	n/a	wordpools/wordpool_EN.txt	4	2	SLEEVE	n/a	SEED	SLEEVE	8	[0, 0, 0]	-999	PAL1	1	R1263C
1020.04	0.275	579941	STUDY_ORIENT	n/a	n/a	5	5	MOOSE	n/a	MOOSE	ARM	8	[0, 0, 0]	-999	PAL1	1	R1263C
1020.94	4.0	580391	STUDY_PAIR	n/a	wordpools/wordpool_EN.txt	5	5	MOOSE	n/a	MOOSE	ARM	8	[0, 0, 0]	-999	PAL1	1	R1263C
1025.958	0.275	582900	STUDY_ORIENT	n/a	n/a	6	6	SLIME	CAVE	SLIME	CAVE	8	[0, 0, 0]	-999	PAL1	1	R1263C
1026.908	4.0	583375	STUDY_PAIR	n/a	wordpools/wordpool_EN.txt	6	6	SLIME	CAVE	SLIME	CAVE	8	[0, 0, 0]	-999	PAL1	1	R1263C
1030.909	1.0	585375	START	n/a	n/a	-999	-999	n/a	n/a	n/a	n/a	8	[-999, -999, -999]	-999	PAL1	1	R1263C
1031.909	0.017	585875	MATH_START	n/a	n/a	-999	-999	n/a	n/a	n/a	n/a	8	[0, 0, 0]	-999	PAL1	1	R1263C
1031.926	4.317	585884	PROB	4.29	n/a	-999	-999	n/a	n/a	n/a	n/a	8	[9, 4, 1]	14	PAL1	1	R1263C
1036.243	5.085	588042	PROB	5.061	n/a	-999	-999	n/a	n/a	n/a	n/a	8	[2, 1, 8]	11	PAL1	1	R1263C
1041.328	16.824	590584	PROB	16.824	n/a	-999	-999	n/a	n/a	n/a	n/a	8	[8, 9, 5]	16	PAL1	1	R1263C
1058.152	0.012	598996	STOP	n/a	n/a	-999	-999	n/a	n/a	n/a	n/a	8	[-999, -999, -999]	-999	PAL1	1	R1263C
1058.164	0.0	599002	MATH_END	n/a	n/a	-999	-999	n/a	n/a	n/a	n/a	8	[0, 0, 0]	-999	PAL1	1	R1263C
1058.164	0.017	599002	TEST_START	n/a	n/a	-999	-999	n/a	n/a	n/a	n/a	8	[0, 0, 0]	-999	PAL1	1	R1263C
1058.181	0.275	599010	TEST_ORIENT	n/a	n/a	3	1	DOOR	n/a	JEEP	DOOR	8	[0, 0, 0]	-999	PAL1	1	R1263C
1059.114	4.0	599477	TEST_PROBE	n/a	wordpools/wordpool_EN.txt	3	1	DOOR	n/a	JEEP	DOOR	8	[0, 0, 0]	-999	PAL1	1	R1263C
1059.115	5.011	599477	REC_START	n/a	n/a	3	-999	n/a	n/a	n/a	n/a	8	[0, 0, 0]	-999	PAL1	1	R1263C
1064.126	0.004	601982	REC_END	n/a	n/a	3	-999	n/a	n/a	n/a	n/a	8	[0, 0, 0]	-999	PAL1	1	R1263C
1064.13	0.019	601984	REC_EVENT	5.015	n/a	3	1	DOOR	<>	JEEP	DOOR	8	[0, 0, 0]	-999	PAL1	1	R1263C
1064.149	0.275	601994	TEST_ORIENT	n/a	n/a	4	2	SLEEVE	n/a	SEED	SLEEVE	8	[0, 0, 0]	-999	PAL1	1	R1263C
1064.949	0.0	602394	REC_START	n/a	n/a	4	-999	n/a	n/a	n/a	n/a	8	[0, 0, 0]	-999	PAL1	1	R1263C
1064.949	4.0	602394	TEST_PROBE	n/a	wordpools/wordpool_EN.txt	4	2	SLEEVE	n/a	SEED	SLEEVE	8	[0, 0, 0]	-999	PAL1	1	R1263C
1069.966	0.004	604902	REC_END	n/a	n/a	4	-999	n/a	n/a	n/a	n/a	8	[0, 0, 0]	-999	PAL1	1	R1263C
1069.97	0.013	604904	REC_EVENT	5.021	n/a	4	2	SLEEVE	<>	SEED	SLEEVE	8	[0, 0, 0]	-999	PAL1	1	R1263C
1069.983	0.275	604911	TEST_ORIENT	n/a	n/a	1	3	HORSE	SCHOOL	SCHOOL	HORSE	8	[0, 0, 0]	-999	PAL1	1	R1263C
1070.967	4.0	605403	TEST_PROBE	n/a	wordpools/wordpool_EN.txt	1	3	HORSE	SCHOOL	SCHOOL	HORSE	8	[0, 0, 0]	-999	PAL1	1	R1263C
1070.967	1.468	605403	REC_START	n/a	n/a	1	-999	n/a	SCHOOL	n/a	n/a	8	[0, 0, 0]	-999	PAL1	1	R1263C
1072.435	0.5	606136	REC_EVENT	1.468	n/a	1	3	HORSE	SCHOOL	SCHOOL	HORSE	8	[0, 0, 0]	-999	PAL1	1	R1263C
1072.935	3.049	606386	REC_EVENT	1.968	n/a	1	3	HORSE	<>	SCHOOL	HORSE	8	[0, 0, 0]	-999	PAL1	1	R1263C
1075.984	0.017	607911	REC_END	n/a	n/a	1	-999	n/a	n/a	n/a	n/a	8	[0, 0, 0]	-999	PAL1	1	R1263C
1076.001	0.275	607919	TEST_ORIENT	n/a	n/a	2	4	HOOK	n/a	HOOK	WHALE	8	[0, 0, 0]	-999	PAL1	1	R1263C
1077.018	4.0	608428	TEST_PROBE	n/a	wordpools/wordpool_EN.txt	2	4	HOOK	n/a	HOOK	WHALE	8	[0, 0, 0]	-999	PAL1	1	R1263C
1077.018	5.015	608428	REC_START	n/a	n/a	2	-999	n/a	n/a	n/a	n/a	8	[0, 0, 0]	-999	PAL1	1	R1263C
1082.033	0.002	610935	REC_EVENT	5.015	n/a	2	4	HOOK	<>	HOOK	WHALE	8	[0, 0, 0]	-999	PAL1	1	R1263C
1082.035	0.017	610936	REC_END	n/a	n/a	2	-999	n/a	n/a	n/a	n/a	8	[0, 0, 0]	-999	PAL1	1	R1263C
1082.052	0.275	610945	TEST_ORIENT	n/a	n/a	5	5	MOOSE	n/a	MOOSE	ARM	8	[0, 0, 0]	-999	PAL1	1	R1263C
1083.052	4.0	611445	TEST_PROBE	n/a	wordpools/wordpool_EN.txt	5	5	MOOSE	n/a	MOOSE	ARM	8	[0, 0, 0]	-999	PAL1	1	R1263C
1083.053	5.009	611445	REC_START	n/a	n/a	5	-999	n/a	n/a	n/a	n/a	8	[0, 0, 0]	-999	PAL1	1	R1263C
1088.062	0.002	613949	REC_EVENT	5.009	n/a	5	5	MOOSE	<>	MOOSE	ARM	8	[0, 0, 0]	-999	PAL1	1	R1263C
1088.064	0.023	613950	REC_END	n/a	n/a	5	-999	n/a	n/a	n/a	n/a	8	[0, 0, 0]	-999	PAL1	1	R1263C
1088.087	0.275	613962	TEST_ORIENT	n/a	n/a	6	6	SLIME	CAVE	SLIME	CAVE	8	[0, 0, 0]	-999	PAL1	1	R1263C
1089.037	4.0	614437	TEST_PROBE	n/a	wordpools/wordpool_EN.txt	6	6	SLIME	CAVE	SLIME	CAVE	8	[0, 0, 0]	-999	PAL1	1	R1263C
1089.037	1.724	614437	REC_START	n/a	n/a	6	-999	n/a	CAVE	n/a	n/a	8	[0, 0, 0]	-999	PAL1	1	R1263C
1090.761	0.7	615299	REC_EVENT	1.724	n/a	6	6	SLIME	CAVE	SLIME	CAVE	8	[0, 0, 0]	-999	PAL1	1	R1263C
1091.461	2.593	615649	REC_EVENT	2.424	n/a	6	6	SLIME	<>	SLIME	CAVE	8	[0, 0, 0]	-999	PAL1	1	R1263C
1094.054	1.762	616945	REC_END	n/a	n/a	6	-999	n/a	n/a	n/a	n/a	8	[0, 0, 0]	-999	PAL1	1	R1263C
1095.816	10.441	617826	ENCODING_START	n/a	n/a	0	-999	n/a	n/a	n/a	n/a	9	[0, 0, 0]	-999	PAL1	1	R1263C
1106.257	0.275	623046	STUDY_ORIENT	n/a	n/a	1	3	PARK	CUP	CUP	PARK	9	[0, 0, 0]	-999	PAL1	1	R1263C
1107.19	4.0	623513	STUDY_PAIR	n/a	wordpools/wordpool_EN.txt	1	3	PARK	CUP	CUP	PARK	9	[0, 0, 0]	-999	PAL1	1	R1263C
1112.208	0.275	626021	STUDY_ORIENT	n/a	n/a	2	2	FILM	n/a	MILK	FILM	9	[0, 0, 0]	-999	PAL1	1	R1263C
1113.058	4.0	626446	STUDY_PAIR	n/a	wordpools/wordpool_EN.txt	2	2	FILM	n/a	MILK	FILM	9	[0, 0, 0]	-999	PAL1	1	R1263C
1118.092	0.275	628963	STUDY_ORIENT	n/a	n/a	3	5	FLEA	n/a	HAND	FLEA	9	[0, 0, 0]	-999	PAL1	1	R1263C
1119.109	4.0	629472	STUDY_PAIR	n/a	wordpools/wordpool_EN.txt	3	5	FLEA	n/a	HAND	FLEA	9	[0, 0, 0]	-999	PAL1	1	R1263C
1124.127	0.275	631980	STUDY_ORIENT	n/a	n/a	4	6	TOOL	EGG	TOOL	EGG	9	[0, 0, 0]	-999	PAL1	1	R1263C
1125.11	4.0	632472	STUDY_PAIR	n/a	wordpools/wordpool_EN.txt	4	6	TOOL	EGG	TOOL	EGG	9	[0, 0, 0]	-999	PAL1	1	R1263C
1130.128	0.275	634981	STUDY_ORIENT	n/a	n/a	5	1	SPARK	BOAT	BOAT	SPARK	9	[0, 0, 0]	-999	PAL1	1	R1263C
1130.945	4.0	635389	STUDY_PAIR	n/a	wordpools/wordpool_EN.txt	5	1	SPARK	BOAT	BOAT	SPARK	9	[0, 0, 0]	-999	PAL1	1	R1263C
1135.979	0.275	637906	STUDY_ORIENT	n/a	n/a	6	4	FENCE	BANK	BANK	FENCE	9	[0, 0, 0]	-999	PAL1	1	R1263C
1136.979	4.0	638406	STUDY_PAIR	n/a	wordpools/wordpool_EN.txt	6	4	FENCE	BANK	BANK	FENCE	9	[0, 0, 0]	-999	PAL1	1	R1263C
1140.98	1.0	640406	START	n/a	n/a	-999	-999	n/a	n/a	n/a	n/a	9	[-999, -999, -999]	-999	PAL1	1	R1263C
1141.98	0.017	640906	MATH_START	n/a	n/a	-999	-999	n/a	n/a	n/a	n/a	9	[0, 0, 0]	-999	PAL1	1	R1263C
1141.997	4.151	640915	PROB	4.131	n/a	-999	-999	n/a	n/a	n/a	n/a	9	[4, 4, 1]	9	PAL1	1	R1263C
1146.148	7.301	642990	PROB	7.268	n/a	-999	-999	n/a	n/a	n/a	n/a	9	[5, 8, 9]	22	PAL1	1	R1263C
1153.449	7.035	646640	PROB	7.007	n/a	-999	-999	n/a	n/a	n/a	n/a	9	[7, 7, 8]	20	PAL1	1	R1263C
1160.484	8.251	650157	PROB	8.251	n/a	-999	-999	n/a	n/a	n/a	n/a	9	[8, 3, 7]	18	PAL1	1	R1263C
1168.735	0.017	654283	STOP	n/a	n/a	-999	-999	n/a	n/a	n/a	n/a	9	[-999, -999, -999]	-999	PAL1	1	R1263C
1168.752	0.0	654291	MATH_END	n/a	n/a	-999	-999	n/a	n/a	n/a	n/a	9	[0, 0, 0]	-999	PAL1	1	R1263C
1168.752	0.017	654291	TEST_START	n/a	n/a	-999	-999	n/a	n/a	n/a	n/a	9	[0, 0, 0]	-999	PAL1	1	R1263C
1168.769	0.275	654300	TEST_ORIENT	n/a	n/a	5	1	SPARK	BOAT	BOAT	SPARK	9	[0, 0, 0]	-999	PAL1	1	R1263C
1169.685	4.0	654757	TEST_PROBE	n/a	wordpools/wordpool_EN.txt	5	1	SPARK	BOAT	BOAT	SPARK	9	[0, 0, 0]	-999	PAL1	1	R1263C
1169.686	2.162	654758	REC_START	n/a	n/a	5	-999	n/a	BOAT	n/a	n/a	9	[0, 0, 0]	-999	PAL1	1	R1263C
1171.848	0.634	655839	REC_EVENT	2.162	n/a	5	1	SPARK	BOAT	BOAT	SPARK	9	[0, 0, 0]	-999	PAL1	1	R1263C
1172.482	2.231	656156	REC_EVENT	2.796	n/a	5	1	SPARK	<>	BOAT	SPARK	9	[0, 0, 0]	-999	PAL1	1	R1263C
1174.713	0.022	657271	REC_END	n/a	n/a	5	-999	n/a	n/a	n/a	n/a	9	[0, 0, 0]	-999	PAL1	1	R1263C
1174.735	0.275	657282	TEST_ORIENT	n/a	n/a	2	2	FILM	n/a	MILK	FILM	9	[0, 0, 0]	-999	PAL1	1	R1263C
1175.652	4.0	657741	TEST_PROBE	n/a	wordpools/wordpool_EN.txt	2	2	FILM	n/a	MILK	FILM	9	[0, 0, 0]	-999	PAL1	1	R1263C
1175.653	5.009	657741	REC_START	n/a	n/a	2	-999	n/a	n/a	n/a	n/a	9	[0, 0, 0]	-999	PAL1	1	R1263C
1180.662	0.002	660246	REC_EVENT	5.009	n/a	2	2	FILM	<>	MILK	FILM	9	[0, 0, 0]	-999	PAL1	1	R1263C
1180.664	0.023	660247	REC_END	n/a	n/a	2	-999	n/a	n/a	n/a	n/a	9	[0, 0, 0]	-999	PAL1	1	R1263C
1180.687	0.275	660258	TEST_ORIENT	n/a	n/a	1	3	PARK	CUP	CUP	PARK	9	[0, 0, 0]	-999	PAL1	1	R1263C
1181.637	4.0	660733	TEST_PROBE	n/a	wordpools/wordpool_EN.txt	1	3	PARK	CUP	CUP	PARK	9	[0, 0, 0]	-999	PAL1	1	R1263C
1181.637	1.65	660733	REC_START	n/a	n/a	1	-999	n/a	CUP	n/a	n/a	9	[0, 0, 0]	-999	PAL1	1	R1263C
1183.287	0.5	661558	REC_EVENT	1.65	n/a	1	3	PARK	CUP	CUP	PARK	9	[0, 0, 0]	-999	PAL1	1	R1263C
1183.787	2.867	661808	REC_EVENT	2.15	n/a	1	3	PARK	<>	CUP	PARK	9	[0, 0, 0]	-999	PAL1	1	R1263C
1186.654	0.017	663241	REC_END	n/a	n/a	1	-999	n/a	n/a	n/a	n/a	9	[0, 0, 0]	-999	PAL1	1	R1263C
1186.671	0.275	663250	TEST_ORIENT	n/a	n/a	6	4	FENCE	BANK	BANK	FENCE	9	[0, 0, 0]	-999	PAL1	1	R1263C
1187.571	4.0	663700	TEST_PROBE	n/a	wordpools/wordpool_EN.txt	6	4	FENCE	BANK	BANK	FENCE	9	[0, 0, 0]	-999	PAL1	1	R1263C
1187.572	2.912	663700	REC_START	n/a	n/a	6	-999	n/a	BANK	n/a	n/a	9	[0, 0, 0]	-999	PAL1	1	R1263C
1190.484	0.5	665156	REC_EVENT	2.912	n/a	6	4	FENCE	BANK	BANK	FENCE	9	[0, 0, 0]	-999	PAL1	1	R1263C
1190.984	1.599	665406	REC_EVENT	3.412	n/a	6	4	FENCE	<>	BANK	FENCE	9	[0, 0, 0]	-999	PAL1	1	R1263C
1192.583	0.022	666206	REC_END	n/a	n/a	6	-999	n/a	n/a	n/a	n/a	9	[0, 0, 0]	-999	PAL1	1	R1263C
1192.605	0.275	666217	TEST_ORIENT	n/a	n/a	3	5	FLEA	n/a	HAND	FLEA	9	[0, 0, 0]	-999	PAL1	1	R1263C
1193.589	4.0	666708	TEST_PROBE	n/a	wordpools/wordpool_EN.txt	3	5	FLEA	n/a	HAND	FLEA	9	[0, 0, 0]	-999	PAL1	1	R1263C
1193.59	5.015	666709	REC_START	n/a	n/a	3	-999	n/a	n/a	n/a	n/a	9	[0, 0, 0]	-999	PAL1	1	R1263C
1198.605	0.001	669216	REC_EVENT	5.015	n/a	3	5	FLEA	<>	HAND	FLEA	9	[0, 0, 0]	-999	PAL1	1	R1263C
1198.606	0.017	669217	REC_END	n/a	n/a	3	-999	n/a	n/a	n/a	n/a	9	[0, 0, 0]	-999	PAL1	1	R1263C
1198.623	0.275	669225	TEST_ORIENT	n/a	n/a	4	6	TOOL	EGG	TOOL	EGG	9	[0, 0, 0]	-999	PAL1	1	R1263C
1199.574	4.0	669701	TEST_PROBE	n/a	wordpools/wordpool_EN.txt	4	6	TOOL	EGG	TOOL	EGG	9	[0, 0, 0]	-999	PAL1	1	R1263C
1199.574	1.051	669701	REC_START	n/a	n/a	4	-999	n/a	EGG	n/a	n/a	9	[0, 0, 0]	-999	PAL1	1	R1263C
1200.625	0.45	670226	REC_EVENT	1.051	n/a	4	6	TOOL	EGG	TOOL	EGG	9	[0, 0, 0]	-999	PAL1	1	R1263C
1201.075	3.516	670451	REC_EVENT	1.501	n/a	4	6	TOOL	<>	TOOL	EGG	9	[0, 0, 0]	-999	PAL1	1	R1263C
1204.591	2.665	672209	REC_END	n/a	n/a	4	-999	n/a	n/a	n/a	n/a	9	[0, 0, 0]	-999	PAL1	1	R1263C
1207.256	10.438	673541	ENCODING_START	n/a	n/a	0	-999	n/a	n/a	n/a	n/a	10	[0, 0, 0]	-999	PAL1	1	R1263C
1217.694	0.275	678760	STUDY_ORIENT	n/a	n/a	1	3	FLOOR	STREET	FLOOR	SHOE	10	[0, 0, 0]	-999	PAL1	1	R1263C
1218.644	4.0	679235	STUDY_PAIR	n/a	wordpools/wordpool_EN.txt	1	3	FLOOR	STREET	FLOOR	SHOE	10	[0, 0, 0]	-999	PAL1	1	R1263C
1223.678	0.275	681752	STUDY_ORIENT	n/a	n/a	2	4	STREET	KEY	KEY	STREET	10	[0, 0, 0]	-999	PAL1	1	R1263C
1224.612	4.0	682219	STUDY_PAIR	n/a	wordpools/wordpool_EN.txt	2	4	STREET	KEY	KEY	STREET	10	[0, 0, 0]	-999	PAL1	1	R1263C
1229.646	0.275	684736	STUDY_ORIENT	n/a	n/a	3	1	BEAK	n/a	BEAK	FLAME	10	[0, 0, 0]	-999	PAL1	1	R1263C
1230.447	4.0	685136	STUDY_PAIR	n/a	wordpools/wordpool_EN.txt	3	1	BEAK	n/a	BEAK	FLAME	10	[0, 0, 0]	-999	PAL1	1	R1263C
1235.481	0.275	687653	STUDY_ORIENT	n/a	n/a	4	2	CLOWN	ELF	CLOWN	ELF	10	[0, 0, 0]	-999	PAL1	1	R1263C
1236.431	4.0	688128	STUDY_PAIR	n/a	wordpools/wordpool_EN.txt	4	2	CLOWN	ELF	CLOWN	ELF	10	[0, 0, 0]	-999	PAL1	1	R1263C
1241.449	0.275	690637	STUDY_ORIENT	n/a	n/a	5	5	MAIL	DRESS	MAIL	DRESS	10	[0, 0, 0]	-999	PAL1	1	R1263C
1242.383	4.0	691103	STUDY_PAIR	n/a	wordpools/wordpool_EN.txt	5	5	MAIL	DRESS	MAIL	DRESS	10	[0, 0, 0]	-999	PAL1	1	R1263C
1247.417	0.275	693620	STUDY_ORIENT	n/a	n/a	6	6	SHIELD	n/a	SHIELD	WHEEL	10	[0, 0, 0]	-999	PAL1	1	R1263C
1248.284	4.0	694054	STUDY_PAIR	n/a	wordpools/wordpool_EN.txt	6	6	SHIELD	n/a	SHIELD	WHEEL	10	[0, 0, 0]	-999	PAL1	1	R1263C
1252.302	0.999	696063	START	n/a	n/a	-999	-999	n/a	n/a	n/a	n/a	10	[-999, -999, -999]	-999	PAL1	1	R1263C
1253.301	0.017	696562	MATH_START	n/a	n/a	-999	-999	n/a	n/a	n/a	n/a	10	[0, 0, 0]	-999	PAL1	1	R1263C
1253.318	6.751	696571	PROB	6.722	n/a	-999	-999	n/a	n/a	n/a	n/a	10	[3, 6, 4]	13	PAL1	1	R1263C
1260.069	16.795	699946	PROB	16.795	n/a	-999	-999	n/a	n/a	n/a	n/a	10	[7, 4, 5]	18	PAL1	1	R1263C
1276.864	0.009	708343	STOP	n/a	n/a	-999	-999	n/a	n/a	n/a	n/a	10	[-999, -999, -999]	-999	PAL1	1	R1263C
1276.873	0.0	708347	MATH_END	n/a	n/a	-999	-999	n/a	n/a	n/a	n/a	10	[0, 0, 0]	-999	PAL1	1	R1263C
1276.873	0.016	708347	TEST_START	n/a	n/a	-999	-999	n/a	n/a	n/a	n/a	10	[0, 0, 0]	-999	PAL1	1	R1263C
1276.889	0.275	708355	TEST_ORIENT	n/a	n/a	3	1	BEAK	n/a	BEAK	FLAME	10	[0, 0, 0]	-999	PAL1	1	R1263C
1277.688	4.0	708755	TEST_PROBE	n/a	wordpools/wordpool_EN.txt	3	1	BEAK	n/a	BEAK	FLAME	10	[0, 0, 0]	-999	PAL1	1	R1263C
1277.689	5.011	708755	REC_START	n/a	n/a	3	-999	n/a	n/a	n/a	n/a	10	[0, 0, 0]	-999	PAL1	1	R1263C
1282.7	0.004	711260	REC_END	n/a	n/a	3	-999	n/a	n/a	n/a	n/a	10	[0, 0, 0]	-999	PAL1	1	R1263C
1282.704	0.019	711262	REC_EVENT	5.015	n/a	3	1	BEAK	<>	BEAK	FLAME	10	[0, 0, 0]	-999	PAL1	1	R1263C
1282.723	0.275	711272	TEST_ORIENT	n/a	n/a	4	2	CLOWN	ELF	CLOWN	ELF	10	[0, 0, 0]	-999	PAL1	1	R1263C
1283.541	4.0	711681	TEST_PROBE	n/a	wordpools/wordpool_EN.txt	4	2	CLOWN	ELF	CLOWN	ELF	10	[0, 0, 0]	-999	PAL1	1	R1263C
1283.541	1.843	711681	REC_START	n/a	n/a	4	-999	n/a	ELF	n/a	n/a	10	[0, 0, 0]	-999	PAL1	1	R1263C
1285.384	0.65	712602	REC_EVENT	1.843	n/a	4	2	CLOWN	ELF	CLOWN	ELF	10	[0, 0, 0]	-999	PAL1	1	R1263C
1286.034	1.755	712927	REC_EVENT	2.493	n/a	4	2	CLOWN	<>	CLOWN	ELF	10	[0, 0, 0]	-999	PAL1	1	R1263C
1287.789	0.768	713805	REC_EVENT	4.248	n/a	4	2	CLOWN	<>	CLOWN	ELF	10	[0, 0, 0]	-999	PAL1	1	R1263C
1288.557	0.017	714189	REC_END	n/a	n/a	4	-999	n/a	n/a	n/a	n/a	10	[0, 0, 0]	-999	PAL1	1	R1263C
1288.574	0.275	714197	TEST_ORIENT	n/a	n/a	1	3	FLOOR	STREET	FLOOR	SHOE	10	[0, 0, 0]	-999	PAL1	1	R1263C
1289.442	4.0	714631	TEST_PROBE	n/a	wordpools/wordpool_EN.txt	1	3	FLOOR	STREET	FLOOR	SHOE	10	[0, 0, 0]	-999	PAL1	1	R1263C
1289.442	1.559	714631	REC_START	n/a	n/a	1	-999	n/a	STREET	n/a	n/a	10	[0, 0, 0]	-999	PAL1	1	R1263C
1291.001	0.5	715411	REC_EVENT	1.559	n/a	1	3	FLOOR	STREET	FLOOR	SHOE	10	[0, 0, 0]	-999	PAL1	1	R1263C
1291.501	2.958	715660	REC_EVENT	2.059	n/a	1	3	FLOOR	<>	FLOOR	SHOE	10	[0, 0, 0]	-999	PAL1	1	R1263C
1294.459	0.017	717139	REC_END	n/a	n/a	1	-999	n/a	n/a	n/a	n/a	10	[0, 0, 0]	-999	PAL1	1	R1263C
1294.476	0.275	717148	TEST_ORIENT	n/a	n/a	2	4	STREET	KEY	KEY	STREET	10	[0, 0, 0]	-999	PAL1	1	R1263C
1295.476	4.0	717648	TEST_PROBE	n/a	wordpools/wordpool_EN.txt	2	4	STREET	KEY	KEY	STREET	10	[0, 0, 0]	-999	PAL1	1	R1263C
1295.477	1.998	717648	REC_START	n/a	n/a	2	-999	n/a	KEY	n/a	n/a	10	[0, 0, 0]	-999	PAL1	1	R1263C
1297.475	0.3	718647	REC_EVENT	1.998	n/a	2	4	STREET	KEY	KEY	STREET	10	[0, 0, 0]	-999	PAL1	1	R1263C
1297.775	2.713	718797	REC_EVENT	2.298	n/a	2	4	STREET	<>	KEY	STREET	10	[0, 0, 0]	-999	PAL1	1	R1263C
1300.488	0.023	720154	REC_END	n/a	n/a	2	-999	n/a	n/a	n/a	n/a	10	[0, 0, 0]	-999	PAL1	1	R1263C
1300.511	0.275	720165	TEST_ORIENT	n/a	n/a	5	5	MAIL	DRESS	MAIL	DRESS	10	[0, 0, 0]	-999	PAL1	1	R1263C
1301.494	4.0	720657	TEST_PROBE	n/a	wordpools/wordpool_EN.txt	5	5	MAIL	DRESS	MAIL	DRESS	10	[0, 0, 0]	-999	PAL1	1	R1263C
1301.495	1.479	720657	REC_START	n/a	n/a	5	-999	n/a	DRESS	n/a	n/a	10	[0, 0, 0]	-999	PAL1	1	R1263C
1302.974	0.65	721397	REC_EVENT	1.479	n/a	5	5	MAIL	DRESS	MAIL	DRESS	10	[0, 0, 0]	-999	PAL1	1	R1263C
1303.624	2.887	721721	REC_EVENT	2.129	n/a	5	5	MAIL	<>	MAIL	DRESS	10	[0, 0, 0]	-999	PAL1	1	R1263C
1306.511	0.017	723165	REC_END	n/a	n/a	5	-999	n/a	n/a	n/a	n/a	10	[0, 0, 0]	-999	PAL1	1	R1263C
1306.528	0.275	723173	TEST_ORIENT	n/a	n/a	6	6	SHIELD	n/a	SHIELD	WHEEL	10	[0, 0, 0]	-999	PAL1	1	R1263C
1307.429	4.0	723624	TEST_PROBE	n/a	wordpools/wordpool_EN.txt	6	6	SHIELD	n/a	SHIELD	WHEEL	10	[0, 0, 0]	-999	PAL1	1	R1263C
1307.429	5.017	723624	REC_START	n/a	n/a	6	-999	n/a	n/a	n/a	n/a	10	[0, 0, 0]	-999	PAL1	1	R1263C
1312.446	0.004	726132	REC_END	n/a	n/a	6	-999	n/a	n/a	n/a	n/a	10	[0, 0, 0]	-999	PAL1	1	R1263C
1312.45	1.662	726134	REC_EVENT	5.021	n/a	6	6	SHIELD	<>	SHIELD	WHEEL	10	[0, 0, 0]	-999	PAL1	1	R1263C
1314.112	10.452	726965	ENCODING_START	n/a	n/a	0	-999	n/a	n/a	n/a	n/a	11	[0, 0, 0]	-999	PAL1	1	R1263C
1324.564	0.275	732191	STUDY_ORIENT	n/a	n/a	1	3	FISH	BATH	FISH	BATH	11	[0, 0, 0]	-999	PAL1	1	R1263C
1325.382	4.0	732600	STUDY_PAIR	n/a	wordpools/wordpool_EN.txt	1	3	FISH	BATH	FISH	BATH	11	[0, 0, 0]	-999	PAL1	1	R1263C
1330.416	0.275	735116	STUDY_ORIENT	n/a	n/a	2	4	STORM	YARD	STORM	YARD	11	[0, 0, 0]	-999	PAL1	1	R1263C
1331.2	4.0	735508	STUDY_PAIR	n/a	wordpools/wordpool_EN.txt	2	4	STORM	YARD	STORM	YARD	11	[0, 0, 0]	-999	PAL1	1	R1263C
1336.234	0.275	738025	STUDY_ORIENT	n/a	n/a	3	1	GOAT	FARM	FARM	GOAT	11	[0, 0, 0]	-999	PAL1	1	R1263C
1337.101	4.0	738459	STUDY_PAIR	n/a	wordpools/wordpool_EN.txt	3	1	GOAT	FARM	FARM	GOAT	11	[0, 0, 0]	-999	PAL1	1	R1263C
1342.135	0.275	740975	STUDY_ORIENT	n/a	n/a	4	6	TRUCK	BALL	BALL	TRUCK	11	[0, 0, 0]	-999	PAL1	1	R1263C
1342.952	4.0	741384	STUDY_PAIR	n/a	wordpools/wordpool_EN.txt	4	6	TRUCK	BALL	BALL	TRUCK	11	[0, 0, 0]	-999	PAL1	1	R1263C
1347.986	0.275	743901	STUDY_ORIENT	n/a	n/a	5	5	DIME	NOSE	DIME	NOSE	11	[0, 0, 0]	-999	PAL1	1	R1263C
1348.97	4.0	744393	STUDY_PAIR	n/a	wordpools/wordpool_EN.txt	5	5	DIME	NOSE	DIME	NOSE	11	[0, 0, 0]	-999	PAL1	1	R1263C
1354.004	0.275	746909	STUDY_ORIENT	n/a	n/a	6	2	OAR	n/a	OAR	PANTS	11	[0, 0, 0]	-999	PAL1	1	R1263C
1354.988	4.0	747401	STUDY_PAIR	n/a	wordpools/wordpool_EN.txt	6	2	OAR	n/a	OAR	PANTS	11	[0, 0, 0]	-999	PAL1	1	R1263C
1359.006	0.999	749410	START	n/a	n/a	-999	-999	n/a	n/a	n/a	n/a	11	[-999, -999, -999]	-999	PAL1	1	R1263C
1360.005	0.017	749910	MATH_START	n/a	n/a	-999	-999	n/a	n/a	n/a	n/a	11	[0, 0, 0]	-999	PAL1	1	R1263C
1360.022	5.768	749918	PROB	5.738	n/a	-999	-999	n/a	n/a	n/a	n/a	11	[4, 7, 2]	13	PAL1	1	R1263C
1365.79	5.6	752802	PROB	5.57	n/a	-999	-999	n/a	n/a	n/a	n/a	11	[4, 2, 4]	10	PAL1	1	R1263C
1371.39	9.978	755602	PROB	9.978	n/a	-999	-999	n/a	n/a	n/a	n/a	11	[6, 5, 6]	17	PAL1	1	R1263C
1381.368	0.008	760590	STOP	n/a	n/a	-999	-999	n/a	n/a	n/a	n/a	11	[-999, -999, -999]	-999	PAL1	1	R1263C
1381.376	0.0	760594	MATH_END	n/a	n/a	-999	-999	n/a	n/a	n/a	n/a	11	[0, 0, 0]	-999	PAL1	1	R1263C
1381.376	0.017	760594	TEST_START	n/a	n/a	-999	-999	n/a	n/a	n/a	n/a	11	[0, 0, 0]	-999	PAL1	1	R1263C
1381.393	0.275	760603	TEST_ORIENT	n/a	n/a	3	1	GOAT	FARM	FARM	GOAT	11	[0, 0, 0]	-999	PAL1	1	R1263C
1382.393	4.0	761103	TEST_PROBE	n/a	wordpools/wordpool_EN.txt	3	1	GOAT	FARM	FARM	GOAT	11	[0, 0, 0]	-999	PAL1	1	R1263C
1382.393	1.456	761103	REC_START	n/a	n/a	3	-999	n/a	FARM	n/a	n/a	11	[0, 0, 0]	-999	PAL1	1	R1263C
1383.849	0.61	761831	REC_EVENT	1.456	n/a	3	1	GOAT	FARM	FARM	GOAT	11	[0, 0, 0]	-999	PAL1	1	R1263C
1384.459	2.951	762136	REC_EVENT	2.066	n/a	3	1	GOAT	<>	FARM	GOAT	11	[0, 0, 0]	-999	PAL1	1	R1263C
1387.41	0.017	763611	REC_END	n/a	n/a	3	-999	n/a	n/a	n/a	n/a	11	[0, 0, 0]	-999	PAL1	1	R1263C
1387.427	0.275	763620	TEST_ORIENT	n/a	n/a	6	2	OAR	n/a	OAR	PANTS	11	[0, 0, 0]	-999	PAL1	1	R1263C
1388.244	4.0	764028	TEST_PROBE	n/a	wordpools/wordpool_EN.txt	6	2	OAR	n/a	OAR	PANTS	11	[0, 0, 0]	-999	PAL1	1	R1263C
1388.244	5.015	764028	REC_START	n/a	n/a	6	-999	n/a	n/a	n/a	n/a	11	[0, 0, 0]	-999	PAL1	1	R1263C
1393.259	0.002	766535	REC_EVENT	5.015	n/a	6	2	OAR	<>	OAR	PANTS	11	[0, 0, 0]	-999	PAL1	1	R1263C
1393.261	0.017	766536	REC_END	n/a	n/a	6	-999	n/a	n/a	n/a	n/a	11	[0, 0, 0]	-999	PAL1	1	R1263C
1393.278	0.275	766545	TEST_ORIENT	n/a	n/a	1	3	FISH	BATH	FISH	BATH	11	[0, 0, 0]	-999	PAL1	1	R1263C
1394.228	4.0	767020	TEST_PROBE	n/a	wordpools/wordpool_EN.txt	1	3	FISH	BATH	FISH	BATH	11	[0, 0, 0]	-999	PAL1	1	R1263C
1394.229	1.096	767020	REC_START	n/a	n/a	1	-999	n/a	BATH	n/a	n/a	11	[0, 0, 0]	-999	PAL1	1	R1263C
1395.325	0.575	767568	REC_EVENT	1.096	n/a	1	3	FISH	BATH	FISH	BATH	11	[0, 0, 0]	-999	PAL1	1	R1263C
1395.9	3.346	767856	REC_EVENT	1.671	n/a	1	3	FISH	<>	FISH	BATH	11	[0, 0, 0]	-999	PAL1	1	R1263C
1399.246	0.017	769529	REC_END	n/a	n/a	1	-999	n/a	n/a	n/a	n/a	11	[0, 0, 0]	-999	PAL1	1	R1263C
1399.263	0.275	769537	TEST_ORIENT	n/a	n/a	2	4	STORM	YARD	STORM	YARD	11	[0, 0, 0]	-999	PAL1	1	R1263C
1400.23	4.0	770021	TEST_PROBE	n/a	wordpools/wordpool_EN.txt	2	4	STORM	YARD	STORM	YARD	11	[0, 0, 0]	-999	PAL1	1	R1263C
1400.23	1.777	770021	REC_START	n/a	n/a	2	-999	n/a	YARD	n/a	n/a	11	[0, 0, 0]	-999	PAL1	1	R1263C
1402.007	0.72	770909	REC_EVENT	1.777	n/a	2	4	STORM	YARD	STORM	YARD	11	[0, 0, 0]	-999	PAL1	1	R1263C
1402.727	2.52	771269	REC_EVENT	2.497	n/a	2	4	STORM	<>	STORM	YARD	11	[0, 0, 0]	-999	PAL1	1	R1263C
1405.247	0.017	772529	REC_END	n/a	n/a	2	-999	n/a	n/a	n/a	n/a	11	[0, 0, 0]	-999	PAL1	1	R1263C
1405.264	0.275	772537	TEST_ORIENT	n/a	n/a	5	5	DIME	NOSE	DIME	NOSE	11	[0, 0, 0]	-999	PAL1	1	R1263C
1406.164	4.0	772987	TEST_PROBE	n/a	wordpools/wordpool_EN.txt	5	5	DIME	NOSE	DIME	NOSE	11	[0, 0, 0]	-999	PAL1	1	R1263C
1406.164	1.087	772987	REC_START	n/a	n/a	5	-999	n/a	NOSE	n/a	n/a	11	[0, 0, 0]	-999	PAL1	1	R1263C
1407.251	0.87	773531	REC_EVENT	1.087	n/a	5	5	DIME	NOSE	DIME	NOSE	11	[0, 0, 0]	-999	PAL1	1	R1263C
1408.121	3.06	773966	REC_EVENT	1.957	n/a	5	5	DIME	<>	DIME	NOSE	11	[0, 0, 0]	-999	PAL1	1	R1263C
1411.181	0.017	775496	REC_END	n/a	n/a	5	-999	n/a	n/a	n/a	n/a	11	[0, 0, 0]	-999	PAL1	1	R1263C
1411.198	0.275	775504	TEST_ORIENT	n/a	n/a	4	6	TRUCK	BALL	BALL	TRUCK	11	[0, 0, 0]	-999	PAL1	1	R1263C
1412.232	4.0	776021	TEST_PROBE	n/a	wordpools/wordpool_EN.txt	4	6	TRUCK	BALL	BALL	TRUCK	11	[0, 0, 0]	-999	PAL1	1	R1263C
1412.232	1.568	776021	REC_START	n/a	n/a	4	-999	n/a	BALL	n/a	n/a	11	[0, 0, 0]	-999	PAL1	1	R1263C
1413.8	0.59	776805	REC_EVENT	1.568	n/a	4	6	TRUCK	BALL	BALL	TRUCK	11	[0, 0, 0]	-999	PAL1	1	R1263C
1414.39	2.859	777100	REC_EVENT	2.158	n/a	4	6	TRUCK	<>	BALL	TRUCK	11	[0, 0, 0]	-999	PAL1	1	R1263C
1417.249	1.663	778529	REC_END	n/a	n/a	4	-999	n/a	n/a	n/a	n/a	11	[0, 0, 0]	-999	PAL1	1	R1263C
1418.912	10.44	779361	ENCODING_START	n/a	n/a	0	-999	n/a	n/a	n/a	n/a	12	[0, 0, 0]	-999	PAL1	1	R1263C
1429.352	0.275	784580	STUDY_ORIENT	n/a	n/a	1	1	SUIT	n/a	SUIT	WEB	12	[0, 0, 0]	-999	PAL1	1	R1263C
1430.135	4.0	784972	STUDY_PAIR	n/a	wordpools/wordpool_EN.txt	1	1	SUIT	n/a	SUIT	WEB	12	[0, 0, 0]	-999	PAL1	1	R1263C
1435.153	0.275	787481	STUDY_ORIENT	n/a	n/a	2	6	LAMB	n/a	LAMB	LAND	12	[0, 0, 0]	-999	PAL1	1	R1263C
1435.953	4.0	787881	STUDY_PAIR	n/a	wordpools/wordpool_EN.txt	2	6	LAMB	n/a	LAMB	LAND	12	[0, 0, 0]	-999	PAL1	1	R1263C
1440.987	0.275	790397	STUDY_ORIENT	n/a	n/a	3	5	BRANCH	n/a	ROOT	BRANCH	12	[0, 0, 0]	-999	PAL1	1	R1263C
1441.988	4.0	790898	STUDY_PAIR	n/a	wordpools/wordpool_EN.txt	3	5	BRANCH	n/a	ROOT	BRANCH	12	[0, 0, 0]	-999	PAL1	1	R1263C
1447.022	0.275	793415	STUDY_ORIENT	n/a	n/a	4	4	TOAST	BALL	TOAST	BOWL	12	[0, 0, 0]	-999	PAL1	1	R1263C
1447.972	4.0	793890	STUDY_PAIR	n/a	wordpools/wordpool_EN.txt	4	4	TOAST	BALL	TOAST	BOWL	12	[0, 0, 0]	-999	PAL1	1	R1263C
1453.006	0.275	796406	STUDY_ORIENT	n/a	n/a	5	3	BOY	PEA	PEA	BOY	12	[0, 0, 0]	-999	PAL1	1	R1263C
1454.007	4.0	796907	STUDY_PAIR	n/a	wordpools/wordpool_EN.txt	5	3	BOY	PEA	PEA	BOY	12	[0, 0, 0]	-999	PAL1	1	R1263C
1459.041	0.275	799424	STUDY_ORIENT	n/a	n/a	6	2	TEETH	HEND	HEN	TEETH	12	[0, 0, 0]	-999	PAL1	1	R1263C
1459.974	4.0	799890	STUDY_PAIR	n/a	wordpools/wordpool_EN.txt	6	2	TEETH	HEND	HEN	TEETH	12	[0, 0, 0]	-999	PAL1	1	R1263C
1463.975	1.0	801890	START	n/a	n/a	-999	-999	n/a	n/a	n/a	n/a	12	[-999, -999, -999]	-999	PAL1	1	R1263C
1464.975	0.017	802390	MATH_START	n/a	n/a	-999	-999	n/a	n/a	n/a	n/a	12	[0, 0, 0]	-999	PAL1	1	R1263C
1464.992	4.267	802399	PROB	4.24	n/a	-999	-999	n/a	n/a	n/a	n/a	12	[8, 1, 1]	10	PAL1	1	R1263C
1469.259	3.968	804532	PROB	3.933	n/a	-999	-999	n/a	n/a	n/a	n/a	12	[4, 9, 9]	22	PAL1	1	R1263C
1473.227	3.483	806516	PROB	3.46	n/a	-999	-999	n/a	n/a	n/a	n/a	12	[9, 1, 2]	12	PAL1	1	R1263C
1476.71	4.685	808257	PROB	4.666	n/a	-999	-999	n/a	n/a	n/a	n/a	12	[5, 5, 6]	16	PAL1	1	R1263C
1481.395	8.109	810600	PROB	8.109	n/a	-999	-999	n/a	n/a	n/a	n/a	12	[3, 9, 8]	20	PAL1	1	R1263C
1489.504	0.009	814654	STOP	n/a	n/a	-999	-999	n/a	n/a	n/a	n/a	12	[-999, -999, -999]	-999	PAL1	1	R1263C
1489.513	0.0	814658	MATH_END	n/a	n/a	-999	-999	n/a	n/a	n/a	n/a	12	[0, 0, 0]	-999	PAL1	1	R1263C
1489.513	0.017	814658	TEST_START	n/a	n/a	-999	-999	n/a	n/a	n/a	n/a	12	[0, 0, 0]	-999	PAL1	1	R1263C
1489.53	0.275	814667	TEST_ORIENT	n/a	n/a	1	1	SUIT	n/a	SUIT	WEB	12	[0, 0, 0]	-999	PAL1	1	R1263C
1490.53	4.0	815167	TEST_PROBE	n/a	wordpools/wordpool_EN.txt	1	1	SUIT	n/a	SUIT	WEB	12	[0, 0, 0]	-999	PAL1	1	R1263C
1490.531	5.009	815167	REC_START	n/a	n/a	1	-999	n/a	n/a	n/a	n/a	12	[0, 0, 0]	-999	PAL1	1	R1263C
1495.54	0.002	817672	REC_EVENT	5.009	n/a	1	1	SUIT	<>	SUIT	WEB	12	[0, 0, 0]	-999	PAL1	1	R1263C
1495.542	0.021	817673	REC_END	n/a	n/a	1	-999	n/a	n/a	n/a	n/a	12	[0, 0, 0]	-999	PAL1	1	R1263C
1495.563	0.275	817683	TEST_ORIENT	n/a	n/a	6	2	TEETH	HEND	HEN	TEETH	12	[0, 0, 0]	-999	PAL1	1	R1263C
1496.515	4.0	818159	TEST_PROBE	n/a	wordpools/wordpool_EN.txt	6	2	TEETH	HEND	HEN	TEETH	12	[0, 0, 0]	-999	PAL1	1	R1263C
1496.515	2.496	818159	REC_START	n/a	n/a	6	-999	n/a	HEND	n/a	n/a	12	[0, 0, 0]	-999	PAL1	1	R1263C
1499.011	0.531	819407	REC_EVENT	2.496	n/a	6	2	TEETH	HEND	HEN	TEETH	12	[0, 0, 0]	-999	PAL1	1	R1263C
1499.542	1.99	819672	REC_EVENT	3.027	n/a	6	2	TEETH	<>	HEN	TEETH	12	[0, 0, 0]	-999	PAL1	1	R1263C
1501.532	0.017	820667	REC_END	n/a	n/a	6	-999	n/a	n/a	n/a	n/a	12	[0, 0, 0]	-999	PAL1	1	R1263C
1501.549	0.275	820676	TEST_ORIENT	n/a	n/a	5	3	BOY	PEA	PEA	BOY	12	[0, 0, 0]	-999	PAL1	1	R1263C
1502.449	4.0	821126	TEST_PROBE	n/a	wordpools/wordpool_EN.txt	5	3	BOY	PEA	PEA	BOY	12	[0, 0, 0]	-999	PAL1	1	R1263C
1502.45	1.367	821126	REC_START	n/a	n/a	5	-999	n/a	PEA	n/a	n/a	12	[0, 0, 0]	-999	PAL1	1	R1263C
1503.817	0.35	821810	REC_EVENT	1.367	n/a	5	3	BOY	PEA	PEA	BOY	12	[0, 0, 0]	-999	PAL1	1	R1263C
1504.167	3.294	821985	REC_EVENT	1.717	n/a	5	3	BOY	<>	PEA	BOY	12	[0, 0, 0]	-999	PAL1	1	R1263C
1507.461	0.022	823632	REC_END	n/a	n/a	5	-999	n/a	n/a	n/a	n/a	12	[0, 0, 0]	-999	PAL1	1	R1263C
1507.483	0.275	823643	TEST_ORIENT	n/a	n/a	4	4	TOAST	BALL	TOAST	BOWL	12	[0, 0, 0]	-999	PAL1	1	R1263C
1508.434	4.0	824118	TEST_PROBE	n/a	wordpools/wordpool_EN.txt	4	4	TOAST	BALL	TOAST	BOWL	12	[0, 0, 0]	-999	PAL1	1	R1263C
1508.434	1.393	824118	REC_START	n/a	n/a	4	-999	n/a	BALL	n/a	n/a	12	[0, 0, 0]	-999	PAL1	1	R1263C
1509.827	0.655	824815	REC_EVENT	1.393	n/a	4	4	TOAST	BALL	TOAST	BOWL	12	[0, 0, 0]	-999	PAL1	1	R1263C
1510.482	2.969	825142	REC_EVENT	2.048	n/a	4	4	TOAST	<>	TOAST	BOWL	12	[0, 0, 0]	-999	PAL1	1	R1263C
1513.451	0.017	826626	REC_END	n/a	n/a	4	-999	n/a	n/a	n/a	n/a	12	[0, 0, 0]	-999	PAL1	1	R1263C
1513.468	0.275	826635	TEST_ORIENT	n/a	n/a	3	5	BRANCH	n/a	ROOT	BRANCH	12	[0, 0, 0]	-999	PAL1	1	R1263C
1514.368	4.0	827085	TEST_PROBE	n/a	wordpools/wordpool_EN.txt	3	5	BRANCH	n/a	ROOT	BRANCH	12	[0, 0, 0]	-999	PAL1	1	R1263C
1514.369	5.027	827085	REC_START	n/a	n/a	3	-999	n/a	n/a	n/a	n/a	12	[0, 0, 0]	-999	PAL1	1	R1263C
1519.396	0.001	829599	REC_EVENT	5.027	n/a	3	5	BRANCH	<>	ROOT	BRANCH	12	[0, 0, 0]	-999	PAL1	1	R1263C
1519.397	0.022	829599	REC_END	n/a	n/a	3	-999	n/a	n/a	n/a	n/a	12	[0, 0, 0]	-999	PAL1	1	R1263C
1519.419	0.275	829610	TEST_ORIENT	n/a	n/a	2	6	LAMB	n/a	LAMB	LAND	12	[0, 0, 0]	-999	PAL1	1	R1263C
1520.353	4.0	830077	TEST_PROBE	n/a	wordpools/wordpool_EN.txt	2	6	LAMB	n/a	LAMB	LAND	12	[0, 0, 0]	-999	PAL1	1	R1263C
1520.353	5.015	830077	REC_START	n/a	n/a	2	-999	n/a	n/a	n/a	n/a	12	[0, 0, 0]	-999	PAL1	1	R1263C
1525.368	0.002	832584	REC_EVENT	5.015	n/a	2	6	LAMB	<>	LAMB	LAND	12	[0, 0, 0]	-999	PAL1	1	R1263C
1525.37	1.598	832585	REC_END	n/a	n/a	2	-999	n/a	n/a	n/a	n/a	12	[0, 0, 0]	-999	PAL1	1	R1263C
1526.968	10.438	833384	ENCODING_START	n/a	n/a	0	-999	n/a	n/a	n/a	n/a	13	[0, 0, 0]	-999	PAL1	1	R1263C
1537.406	0.275	838603	STUDY_ORIENT	n/a	n/a	1	3	ROSE	POLE	ROSE	POLE	13	[0, 0, 0]	-999	PAL1	1	R1263C
1538.406	4.0	839103	STUDY_PAIR	n/a	wordpools/wordpool_EN.txt	1	3	ROSE	POLE	ROSE	POLE	13	[0, 0, 0]	-999	PAL1	1	R1263C
1543.44	0.275	841620	STUDY_ORIENT	n/a	n/a	2	2	LEAF	GRASS	GRASS	LEAF	13	[0, 0, 0]	-999	PAL1	1	R1263C
1544.44	4.0	842120	STUDY_PAIR	n/a	wordpools/wordpool_EN.txt	2	2	LEAF	GRASS	GRASS	LEAF	13	[0, 0, 0]	-999	PAL1	1	R1263C
1549.458	0.275	844628	STUDY_ORIENT	n/a	n/a	3	5	CLIFF	n/a	APE	CLIFF	13	[0, 0, 0]	-999	PAL1	1	R1263C
1550.442	4.0	845120	STUDY_PAIR	n/a	wordpools/wordpool_EN.txt	3	5	CLIFF	n/a	APE	CLIFF	13	[0, 0, 0]	-999	PAL1	1	R1263C
1555.476	0.275	847637	STUDY_ORIENT	n/a	n/a	4	4	FROG	PHONE	FROG	PHONE	13	[0, 0, 0]	-999	PAL1	1	R1263C
1556.393	4.0	848096	STUDY_PAIR	n/a	wordpools/wordpool_EN.txt	4	4	FROG	PHONE	FROG	PHONE	13	[0, 0, 0]	-999	PAL1	1	R1263C
1561.427	0.275	850612	STUDY_ORIENT	n/a	n/a	5	1	TREE	n/a	BEE	TREE	13	[0, 0, 0]	-999	PAL1	1	R1263C
1562.361	4.0	851079	STUDY_PAIR	n/a	wordpools/wordpool_EN.txt	5	1	TREE	n/a	BEE	TREE	13	[0, 0, 0]	-999	PAL1	1	R1263C
1567.395	0.275	853596	STUDY_ORIENT	n/a	n/a	6	6	GOLD	POND	GOLD	POND	13	[0, 0, 0]	-999	PAL1	1	R1263C
1568.262	4.0	854030	STUDY_PAIR	n/a	wordpools/wordpool_EN.txt	6	6	GOLD	POND	GOLD	POND	13	[0, 0, 0]	-999	PAL1	1	R1263C
1572.28	0.999	856038	START	n/a	n/a	-999	-999	n/a	n/a	n/a	n/a	13	[-999, -999, -999]	-999	PAL1	1	R1263C
1573.279	0.017	856538	MATH_START	n/a	n/a	-999	-999	n/a	n/a	n/a	n/a	13	[0, 0, 0]	-999	PAL1	1	R1263C
1573.296	10.819	856546	PROB	10.8	n/a	-999	-999	n/a	n/a	n/a	n/a	13	[3, 6, 4]	13	PAL1	1	R1263C
1584.115	4.184	861955	PROB	4.165	n/a	-999	-999	n/a	n/a	n/a	n/a	13	[6, 5, 5]	16	PAL1	1	R1263C
1588.299	3.684	864047	PROB	3.661	n/a	-999	-999	n/a	n/a	n/a	n/a	13	[3, 2, 1]	6	PAL1	1	R1263C
1591.983	4.473	865889	PROB	4.473	n/a	-999	-999	n/a	n/a	n/a	n/a	13	[1, 9, 6]	16	PAL1	1	R1263C
1596.456	0.011	868125	STOP	n/a	n/a	-999	-999	n/a	n/a	n/a	n/a	13	[-999, -999, -999]	-999	PAL1	1	R1263C
1596.467	0.0	868131	MATH_END	n/a	n/a	-999	-999	n/a	n/a	n/a	n/a	13	[0, 0, 0]	-999	PAL1	1	R1263C
1596.467	0.017	868131	TEST_START	n/a	n/a	-999	-999	n/a	n/a	n/a	n/a	13	[0, 0, 0]	-999	PAL1	1	R1263C
1596.484	0.275	868139	TEST_ORIENT	n/a	n/a	5	1	TREE	n/a	BEE	TREE	13	[0, 0, 0]	-999	PAL1	1	R1263C
1597.367	4.0	868581	TEST_PROBE	n/a	wordpools/wordpool_EN.txt	5	1	TREE	n/a	BEE	TREE	13	[0, 0, 0]	-999	PAL1	1	R1263C
1597.372	4.992	868583	REC_START	n/a	n/a	5	-999	n/a	n/a	n/a	n/a	13	[0, 0, 0]	-999	PAL1	1	R1263C
1602.364	0.004	871079	REC_EVENT	4.992	n/a	5	1	TREE	<>	BEE	TREE	13	[0, 0, 0]	-999	PAL1	1	R1263C
1602.368	0.017	871081	REC_END	n/a	n/a	5	-999	n/a	n/a	n/a	n/a	13	[0, 0, 0]	-999	PAL1	1	R1263C
1602.385	0.275	871090	TEST_ORIENT	n/a	n/a	2	2	LEAF	GRASS	GRASS	LEAF	13	[0, 0, 0]	-999	PAL1	1	R1263C
1603.252	4.0	871523	TEST_PROBE	n/a	wordpools/wordpool_EN.txt	2	2	LEAF	GRASS	GRASS	LEAF	13	[0, 0, 0]	-999	PAL1	1	R1263C
1603.252	2.385	871523	REC_START	n/a	n/a	2	-999	n/a	GRASS	n/a	n/a	13	[0, 0, 0]	-999	PAL1	1	R1263C
1605.637	0.97	872716	REC_EVENT	2.385	n/a	2	2	LEAF	GRASS	GRASS	LEAF	13	[0, 0, 0]	-999	PAL1	1	R1263C
1606.607	1.662	873201	REC_EVENT	3.355	n/a	2	2	LEAF	<>	GRASS	LEAF	13	[0, 0, 0]	-999	PAL1	1	R1263C
1608.269	0.017	874032	REC_END	n/a	n/a	2	-999	n/a	n/a	n/a	n/a	13	[0, 0, 0]	-999	PAL1	1	R1263C
1608.286	0.275	874040	TEST_ORIENT	n/a	n/a	1	3	ROSE	POLE	ROSE	POLE	13	[0, 0, 0]	-999	PAL1	1	R1263C
1609.086	4.0	874440	TEST_PROBE	n/a	wordpools/wordpool_EN.txt	1	3	ROSE	POLE	ROSE	POLE	13	[0, 0, 0]	-999	PAL1	1	R1263C
1609.087	1.741	874440	REC_START	n/a	n/a	1	-999	n/a	POLE	n/a	n/a	13	[0, 0, 0]	-999	PAL1	1	R1263C
1610.828	0.35	875311	REC_EVENT	1.741	n/a	1	3	ROSE	POLE	ROSE	POLE	13	[0, 0, 0]	-999	PAL1	1	R1263C
1611.178	2.918	875486	REC_EVENT	2.091	n/a	1	3	ROSE	<>	ROSE	POLE	13	[0, 0, 0]	-999	PAL1	1	R1263C
1614.096	0.008	876945	REC_END	n/a	n/a	1	-999	n/a	n/a	n/a	n/a	13	[0, 0, 0]	-999	PAL1	1	R1263C
1614.104	0.275	876949	TEST_ORIENT	n/a	n/a	4	4	FROG	PHONE	FROG	PHONE	13	[0, 0, 0]	-999	PAL1	1	R1263C
1615.037	4.0	877415	TEST_PROBE	n/a	wordpools/wordpool_EN.txt	4	4	FROG	PHONE	FROG	PHONE	13	[0, 0, 0]	-999	PAL1	1	R1263C
1615.038	2.547	877416	REC_START	n/a	n/a	4	-999	n/a	PHONE	n/a	n/a	13	[0, 0, 0]	-999	PAL1	1	R1263C
1617.585	0.5	878689	REC_EVENT	2.547	n/a	4	4	FROG	PHONE	FROG	PHONE	13	[0, 0, 0]	-999	PAL1	1	R1263C
1618.085	1.962	878939	REC_EVENT	3.047	n/a	4	4	FROG	<>	FROG	PHONE	13	[0, 0, 0]	-999	PAL1	1	R1263C
1620.047	0.008	879920	REC_END	n/a	n/a	4	-999	n/a	n/a	n/a	n/a	13	[0, 0, 0]	-999	PAL1	1	R1263C
1620.055	0.275	879924	TEST_ORIENT	n/a	n/a	3	5	CLIFF	n/a	APE	CLIFF	13	[0, 0, 0]	-999	PAL1	1	R1263C
1620.905	4.0	880349	TEST_PROBE	n/a	wordpools/wordpool_EN.txt	3	5	CLIFF	n/a	APE	CLIFF	13	[0, 0, 0]	-999	PAL1	1	R1263C
1620.906	1.84	880349	REC_START	n/a	n/a	3	-999	n/a	n/a	n/a	n/a	13	[0, 0, 0]	-999	PAL1	1	R1263C
1622.746	0.7	881269	REC_EVENT	1.84	n/a	3	5	CLIFF	<>	APE	CLIFF	13	[0, 0, 0]	-999	PAL1	1	R1263C
1623.446	2.469	881619	REC_EVENT	2.54	n/a	3	5	CLIFF	<>	APE	CLIFF	13	[0, 0, 0]	-999	PAL1	1	R1263C
1625.915	0.007	882854	REC_END	n/a	n/a	3	-999	n/a	n/a	n/a	n/a	13	[0, 0, 0]	-999	PAL1	1	R1263C
1625.922	0.275	882857	TEST_ORIENT	n/a	n/a	6	6	GOLD	POND	GOLD	POND	13	[0, 0, 0]	-999	PAL1	1	R1263C
1626.956	4.0	883374	TEST_PROBE	n/a	wordpools/wordpool_EN.txt	6	6	GOLD	POND	GOLD	POND	13	[0, 0, 0]	-999	PAL1	1	R1263C
1626.957	3.629	883375	REC_START	n/a	n/a	6	-999	n/a	POND	n/a	n/a	13	[0, 0, 0]	-999	PAL1	1	R1263C
1630.586	0.65	885189	REC_EVENT	3.629	n/a	6	6	GOLD	POND	GOLD	POND	13	[0, 0, 0]	-999	PAL1	1	R1263C
1631.236	0.73	885514	REC_EVENT	4.279	n/a	6	6	GOLD	<>	GOLD	POND	13	[0, 0, 0]	-999	PAL1	1	R1263C
1631.966	1.554	885879	REC_END	n/a	n/a	6	-999	n/a	n/a	n/a	n/a	13	[0, 0, 0]	-999	PAL1	1	R1263C
1633.52	10.439	886656	ENCODING_START	n/a	n/a	0	-999	n/a	n/a	n/a	n/a	14	[0, 0, 0]	-999	PAL1	1	R1263C
1643.959	0.275	891875	STUDY_ORIENT	n/a	n/a	1	3	VASE	n/a	BRUSH	VASE	14	[0, 0, 0]	-999	PAL1	1	R1263C
1644.876	4.0	892334	STUDY_PAIR	n/a	wordpools/wordpool_EN.txt	1	3	VASE	n/a	BRUSH	VASE	14	[0, 0, 0]	-999	PAL1	1	R1263C
1649.894	0.275	894842	STUDY_ORIENT	n/a	n/a	2	2	HOUSE	SNAIL	SNAIL	HOUSE	14	[0, 0, 0]	-999	PAL1	1	R1263C
1650.693	4.0	895242	STUDY_PAIR	n/a	wordpools/wordpool_EN.txt	2	2	HOUSE	SNAIL	SNAIL	HOUSE	14	[0, 0, 0]	-999	PAL1	1	R1263C
1655.711	0.275	897751	STUDY_ORIENT	n/a	n/a	3	5	STONE	TOY	TOY	STONE	14	[0, 0, 0]	-999	PAL1	1	R1263C
1656.561	4.0	898176	STUDY_PAIR	n/a	wordpools/wordpool_EN.txt	3	5	STONE	TOY	TOY	STONE	14	[0, 0, 0]	-999	PAL1	1	R1263C
1661.595	0.275	900692	STUDY_ORIENT	n/a	n/a	4	6	ANT	n/a	ANT	CLAY	14	[0, 0, 0]	-999	PAL1	1	R1263C
1662.38	4.0	901085	STUDY_PAIR	n/a	wordpools/wordpool_EN.txt	4	6	ANT	n/a	ANT	CLAY	14	[0, 0, 0]	-999	PAL1	1	R1263C
1667.414	0.275	903602	STUDY_ORIENT	n/a	n/a	5	1	LAMP	TRAY	TRAY	LAMP	14	[0, 0, 0]	-999	PAL1	1	R1263C
1668.331	4.0	904060	STUDY_PAIR	n/a	wordpools/wordpool_EN.txt	5	1	LAMP	TRAY	TRAY	LAMP	14	[0, 0, 0]	-999	PAL1	1	R1263C
1673.365	0.275	906577	STUDY_ORIENT	n/a	n/a	6	4	CLOUD	KITE	CLOUD	KITE	14	[0, 0, 0]	-999	PAL1	1	R1263C
1674.149	4.0	906969	STUDY_PAIR	n/a	wordpools/wordpool_EN.txt	6	4	CLOUD	KITE	CLOUD	KITE	14	[0, 0, 0]	-999	PAL1	1	R1263C
1678.167	0.999	908978	START	n/a	n/a	-999	-999	n/a	n/a	n/a	n/a	14	[-999, -999, -999]	-999	PAL1	1	R1263C
1679.166	0.017	909477	MATH_START	n/a	n/a	-999	-999	n/a	n/a	n/a	n/a	14	[0, 0, 0]	-999	PAL1	1	R1263C
1679.183	9.235	909486	PROB	9.209	n/a	-999	-999	n/a	n/a	n/a	n/a	14	[9, 7, 6]	22	PAL1	1	R1263C
1688.418	5.884	914103	PROB	5.854	n/a	-999	-999	n/a	n/a	n/a	n/a	14	[8, 2, 1]	11	PAL1	1	R1263C
1694.302	10.458	917044	PROB	10.458	n/a	-999	-999	n/a	n/a	n/a	n/a	14	[8, 3, 3]	14	PAL1	1	R1263C
1704.76	0.011	922273	STOP	n/a	n/a	-999	-999	n/a	n/a	n/a	n/a	14	[-999, -999, -999]	-999	PAL1	1	R1263C
1704.771	0.0	922279	MATH_END	n/a	n/a	-999	-999	n/a	n/a	n/a	n/a	14	[0, 0, 0]	-999	PAL1	1	R1263C
1704.771	0.017	922279	TEST_START	n/a	n/a	-999	-999	n/a	n/a	n/a	n/a	14	[0, 0, 0]	-999	PAL1	1	R1263C
1704.788	0.275	922287	TEST_ORIENT	n/a	n/a	5	1	LAMP	TRAY	TRAY	LAMP	14	[0, 0, 0]	-999	PAL1	1	R1263C
1705.637	4.0	922712	TEST_PROBE	n/a	wordpools/wordpool_EN.txt	5	1	LAMP	TRAY	TRAY	LAMP	14	[0, 0, 0]	-999	PAL1	1	R1263C
1705.637	2.546	922712	REC_START	n/a	n/a	5	-999	n/a	TRAY	n/a	n/a	14	[0, 0, 0]	-999	PAL1	1	R1263C
1708.183	0.55	923984	REC_EVENT	2.546	n/a	5	1	LAMP	TRAY	TRAY	LAMP	14	[0, 0, 0]	-999	PAL1	1	R1263C
1708.733	1.921	924259	REC_EVENT	3.096	n/a	5	1	LAMP	<>	TRAY	LAMP	14	[0, 0, 0]	-999	PAL1	1	R1263C
1710.654	0.017	925220	REC_END	n/a	n/a	5	-999	n/a	n/a	n/a	n/a	14	[0, 0, 0]	-999	PAL1	1	R1263C
1710.671	0.275	925228	TEST_ORIENT	n/a	n/a	2	2	HOUSE	SNAIL	SNAIL	HOUSE	14	[0, 0, 0]	-999	PAL1	1	R1263C
1711.506	4.0	925646	TEST_PROBE	n/a	wordpools/wordpool_EN.txt	2	2	HOUSE	SNAIL	SNAIL	HOUSE	14	[0, 0, 0]	-999	PAL1	1	R1263C
1711.506	1.19	925646	REC_START	n/a	n/a	2	-999	n/a	SNAIL	n/a	n/a	14	[0, 0, 0]	-999	PAL1	1	R1263C
1712.696	0.65	926241	REC_EVENT	1.19	n/a	2	2	HOUSE	SNAIL	SNAIL	HOUSE	14	[0, 0, 0]	-999	PAL1	1	R1263C
1713.346	3.177	926566	REC_EVENT	1.84	n/a	2	2	HOUSE	<>	SNAIL	HOUSE	14	[0, 0, 0]	-999	PAL1	1	R1263C
1716.523	0.017	928154	REC_END	n/a	n/a	2	-999	n/a	n/a	n/a	n/a	14	[0, 0, 0]	-999	PAL1	1	R1263C
1716.54	0.275	928163	TEST_ORIENT	n/a	n/a	1	3	VASE	n/a	BRUSH	VASE	14	[0, 0, 0]	-999	PAL1	1	R1263C
1717.374	4.0	928580	TEST_PROBE	n/a	wordpools/wordpool_EN.txt	1	3	VASE	n/a	BRUSH	VASE	14	[0, 0, 0]	-999	PAL1	1	R1263C
1717.374	5.015	928580	REC_START	n/a	n/a	1	-999	n/a	n/a	n/a	n/a	14	[0, 0, 0]	-999	PAL1	1	R1263C
1722.389	0.002	931087	REC_EVENT	5.015	n/a	1	3	VASE	<>	BRUSH	VASE	14	[0, 0, 0]	-999	PAL1	1	R1263C
1722.391	0.017	931088	REC_END	n/a	n/a	1	-999	n/a	n/a	n/a	n/a	14	[0, 0, 0]	-999	PAL1	1	R1263C
1722.408	0.275	931096	TEST_ORIENT	n/a	n/a	6	4	CLOUD	KITE	CLOUD	KITE	14	[0, 0, 0]	-999	PAL1	1	R1263C
1723.341	4.0	931563	TEST_PROBE	n/a	wordpools/wordpool_EN.txt	6	4	CLOUD	KITE	CLOUD	KITE	14	[0, 0, 0]	-999	PAL1	1	R1263C
1723.342	1.536	931563	REC_START	n/a	n/a	6	-999	n/a	KITE	n/a	n/a	14	[0, 0, 0]	-999	PAL1	1	R1263C
1724.878	1.0	932331	REC_EVENT	1.536	n/a	6	4	CLOUD	KITE	CLOUD	KITE	14	[0, 0, 0]	-999	PAL1	1	R1263C
1725.878	2.464	932831	REC_EVENT	2.536	n/a	6	4	CLOUD	<>	CLOUD	KITE	14	[0, 0, 0]	-999	PAL1	1	R1263C
1728.342	0.017	934063	REC_END	n/a	n/a	6	-999	n/a	n/a	n/a	n/a	14	[0, 0, 0]	-999	PAL1	1	R1263C
1728.359	0.275	934072	TEST_ORIENT	n/a	n/a	3	5	STONE	TOY	TOY	STONE	14	[0, 0, 0]	-999	PAL1	1	R1263C
1729.309	4.0	934547	TEST_PROBE	n/a	wordpools/wordpool_EN.txt	3	5	STONE	TOY	TOY	STONE	14	[0, 0, 0]	-999	PAL1	1	R1263C
1729.31	2.792	934547	REC_START	n/a	n/a	3	-999	n/a	TOY	n/a	n/a	14	[0, 0, 0]	-999	PAL1	1	R1263C
1732.102	0.6	935943	REC_EVENT	2.792	n/a	3	5	STONE	TOY	TOY	STONE	14	[0, 0, 0]	-999	PAL1	1	R1263C
1732.702	1.616	936243	REC_EVENT	3.392	n/a	3	5	STONE	<>	TOY	STONE	14	[0, 0, 0]	-999	PAL1	1	R1263C
1734.318	0.009	937051	REC_END	n/a	n/a	3	-999	n/a	n/a	n/a	n/a	14	[0, 0, 0]	-999	PAL1	1	R1263C
1734.327	0.275	937055	TEST_ORIENT	n/a	n/a	4	6	ANT	n/a	ANT	CLAY	14	[0, 0, 0]	-999	PAL1	1	R1263C
1735.144	4.0	937464	TEST_PROBE	n/a	wordpools/wordpool_EN.txt	4	6	ANT	n/a	ANT	CLAY	14	[0, 0, 0]	-999	PAL1	1	R1263C
1735.144	5.015	937464	REC_START	n/a	n/a	4	-999	n/a	n/a	n/a	n/a	14	[0, 0, 0]	-999	PAL1	1	R1263C
1740.159	0.002	939971	REC_EVENT	5.015	n/a	4	6	ANT	<>	ANT	CLAY	14	[0, 0, 0]	-999	PAL1	1	R1263C
1740.161	1.51	939972	REC_END	n/a	n/a	4	-999	n/a	n/a	n/a	n/a	14	[0, 0, 0]	-999	PAL1	1	R1263C
1741.671	10.443	940727	ENCODING_START	n/a	n/a	0	-999	n/a	n/a	n/a	n/a	15	[0, 0, 0]	-999	PAL1	1	R1263C
1752.114	0.275	945948	STUDY_ORIENT	n/a	n/a	1	1	DART	COUCH	COUCH	DART	15	[0, 0, 0]	-999	PAL1	1	R1263C
1753.097	4.0	946440	STUDY_PAIR	n/a	wordpools/wordpool_EN.txt	1	1	DART	COUCH	COUCH	DART	15	[0, 0, 0]	-999	PAL1	1	R1263C
1758.115	0.275	948948	STUDY_ORIENT	n/a	n/a	2	6	SAIL	n/a	THREAD	SAIL	15	[0, 0, 0]	-999	PAL1	1	R1263C
1758.915	4.0	949348	STUDY_PAIR	n/a	wordpools/wordpool_EN.txt	2	6	SAIL	n/a	THREAD	SAIL	15	[0, 0, 0]	-999	PAL1	1	R1263C
1763.949	0.275	951865	STUDY_ORIENT	n/a	n/a	3	5	PLANT	n/a	PLANT	GEESE	15	[0, 0, 0]	-999	PAL1	1	R1263C
1764.833	4.0	952307	STUDY_PAIR	n/a	wordpools/wordpool_EN.txt	3	5	PLANT	n/a	PLANT	GEESE	15	[0, 0, 0]	-999	PAL1	1	R1263C
1769.867	0.275	954824	STUDY_ORIENT	n/a	n/a	4	4	MOUSE	DESK	MOUSE	DESK	15	[0, 0, 0]	-999	PAL1	1	R1263C
1770.666	4.0	955223	STUDY_PAIR	n/a	wordpools/wordpool_EN.txt	4	4	MOUSE	DESK	MOUSE	DESK	15	[0, 0, 0]	-999	PAL1	1	R1263C
1775.684	0.275	957732	STUDY_ORIENT	n/a	n/a	5	3	BROOM	CHAIR	SEAT	BROOM	15	[0, 0, 0]	-999	PAL1	1	R1263C
1776.701	4.0	958241	STUDY_PAIR	n/a	wordpools/wordpool_EN.txt	5	3	BROOM	CHAIR	SEAT	BROOM	15	[0, 0, 0]	-999	PAL1	1	R1263C
1781.735	0.275	960757	STUDY_ORIENT	n/a	n/a	6	2	SLUSH	MOUTH	SLUSH	MOUTH	15	[0, 0, 0]	-999	PAL1	1	R1263C
1782.585	4.0	961182	STUDY_PAIR	n/a	wordpools/wordpool_EN.txt	6	2	SLUSH	MOUTH	SLUSH	MOUTH	15	[0, 0, 0]	-999	PAL1	1	R1263C
1786.603	1.0	963191	START	n/a	n/a	-999	-999	n/a	n/a	n/a	n/a	15	[-999, -999, -999]	-999	PAL1	1	R1263C
1787.603	0.016	963691	MATH_START	n/a	n/a	-999	-999	n/a	n/a	n/a	n/a	15	[0, 0, 0]	-999	PAL1	1	R1263C
1787.619	5.536	963699	PROB	5.517	n/a	-999	-999	n/a	n/a	n/a	n/a	15	[5, 2, 6]	13	PAL1	1	R1263C
1793.155	6.851	966467	PROB	6.829	n/a	-999	-999	n/a	n/a	n/a	n/a	15	[5, 4, 7]	16	PAL1	1	R1263C
1800.006	4.101	969892	PROB	4.066	n/a	-999	-999	n/a	n/a	n/a	n/a	15	[5, 2, 7]	14	PAL1	1	R1263C
1804.107	4.556	971942	PROB	4.556	n/a	-999	-999	n/a	n/a	n/a	n/a	15	[1, 9, 8]	18	PAL1	1	R1263C
1808.663	0.01	974220	STOP	n/a	n/a	-999	-999	n/a	n/a	n/a	n/a	15	[-999, -999, -999]	-999	PAL1	1	R1263C
1808.673	0.0	974225	MATH_END	n/a	n/a	-999	-999	n/a	n/a	n/a	n/a	15	[0, 0, 0]	-999	PAL1	1	R1263C
1808.673	0.017	974225	TEST_START	n/a	n/a	-999	-999	n/a	n/a	n/a	n/a	15	[0, 0, 0]	-999	PAL1	1	R1263C
1808.69	0.275	974234	TEST_ORIENT	n/a	n/a	1	1	DART	COUCH	COUCH	DART	15	[0, 0, 0]	-999	PAL1	1	R1263C
1809.624	4.0	974701	TEST_PROBE	n/a	wordpools/wordpool_EN.txt	1	1	DART	COUCH	COUCH	DART	15	[0, 0, 0]	-999	PAL1	1	R1263C
1809.624	3.048	974701	REC_START	n/a	n/a	1	-999	n/a	COUCH	n/a	n/a	15	[0, 0, 0]	-999	PAL1	1	R1263C
1812.672	0.81	976225	REC_EVENT	3.048	n/a	1	1	DART	COUCH	COUCH	DART	15	[0, 0, 0]	-999	PAL1	1	R1263C
1813.482	1.159	976630	REC_EVENT	3.858	n/a	1	1	DART	<>	COUCH	DART	15	[0, 0, 0]	-999	PAL1	1	R1263C
1814.641	0.017	977209	REC_END	n/a	n/a	1	-999	n/a	n/a	n/a	n/a	15	[0, 0, 0]	-999	PAL1	1	R1263C
1814.658	0.275	977218	TEST_ORIENT	n/a	n/a	6	2	SLUSH	MOUTH	SLUSH	MOUTH	15	[0, 0, 0]	-999	PAL1	1	R1263C
1815.509	4.0	977643	TEST_PROBE	n/a	wordpools/wordpool_EN.txt	6	2	SLUSH	MOUTH	SLUSH	MOUTH	15	[0, 0, 0]	-999	PAL1	1	R1263C
1815.509	1.013	977643	REC_START	n/a	n/a	6	-999	n/a	MOUTH	n/a	n/a	15	[0, 0, 0]	-999	PAL1	1	R1263C
1816.522	0.895	978149	REC_EVENT	1.013	n/a	6	2	SLUSH	MOUTH	SLUSH	MOUTH	15	[0, 0, 0]	-999	PAL1	1	R1263C
1817.417	3.109	978597	REC_EVENT	1.908	n/a	6	2	SLUSH	<>	SLUSH	MOUTH	15	[0, 0, 0]	-999	PAL1	1	R1263C
1820.526	0.017	980151	REC_END	n/a	n/a	6	-999	n/a	n/a	n/a	n/a	15	[0, 0, 0]	-999	PAL1	1	R1263C
1820.543	0.275	980160	TEST_ORIENT	n/a	n/a	5	3	BROOM	CHAIR	SEAT	BROOM	15	[0, 0, 0]	-999	PAL1	1	R1263C
1821.36	4.0	980568	TEST_PROBE	n/a	wordpools/wordpool_EN.txt	5	3	BROOM	CHAIR	SEAT	BROOM	15	[0, 0, 0]	-999	PAL1	1	R1263C
1821.361	2.677	980569	REC_START	n/a	n/a	5	-999	n/a	CHAIR	n/a	n/a	15	[0, 0, 0]	-999	PAL1	1	R1263C
1824.038	0.7	981907	REC_EVENT	2.677	n/a	5	3	BROOM	SEAT	SEAT	BROOM	15	[0, 0, 0]	-999	PAL1	1	R1263C
1824.738	1.357	982257	REC_EVENT	3.377	n/a	5	3	BROOM	<>	SEAT	BROOM	15	[0, 0, 0]	-999	PAL1	1	R1263C
1826.095	0.275	982936	REC_EVENT	4.734	n/a	5	3	BROOM	CHAIR	SEAT	BROOM	15	[0, 0, 0]	-999	PAL1	1	R1263C
1826.37	0.0	983073	REC_EVENT	5.009	n/a	5	3	BROOM	<>	SEAT	BROOM	15	[0, 0, 0]	-999	PAL1	1	R1263C
1826.37	0.008	983073	REC_END	n/a	n/a	5	-999	n/a	n/a	n/a	n/a	15	[0, 0, 0]	-999	PAL1	1	R1263C
1826.378	0.275	983077	TEST_ORIENT	n/a	n/a	4	4	MOUSE	DESK	MOUSE	DESK	15	[0, 0, 0]	-999	PAL1	1	R1263C
1827.278	0.0	983527	REC_START	n/a	n/a	4	-999	n/a	DESK	n/a	n/a	15	[0, 0, 0]	-999	PAL1	1	R1263C
1827.278	4.0	983527	TEST_PROBE	n/a	wordpools/wordpool_EN.txt	4	4	MOUSE	DESK	MOUSE	DESK	15	[0, 0, 0]	-999	PAL1	1	R1263C
1828.772	1.0	984274	REC_EVENT	1.494	n/a	4	4	MOUSE	DESK	MOUSE	DESK	15	[0, 0, 0]	-999	PAL1	1	R1263C
1829.772	2.523	984774	REC_EVENT	2.494	n/a	4	4	MOUSE	<>	MOUSE	DESK	15	[0, 0, 0]	-999	PAL1	1	R1263C
1832.295	0.017	986035	REC_END	n/a	n/a	4	-999	n/a	n/a	n/a	n/a	15	[0, 0, 0]	-999	PAL1	1	R1263C
1832.312	0.275	986044	TEST_ORIENT	n/a	n/a	3	5	PLANT	n/a	PLANT	GEESE	15	[0, 0, 0]	-999	PAL1	1	R1263C
1833.162	4.0	986469	TEST_PROBE	n/a	wordpools/wordpool_EN.txt	3	5	PLANT	n/a	PLANT	GEESE	15	[0, 0, 0]	-999	PAL1	1	R1263C
1833.163	5.0	986469	REC_START	n/a	n/a	3	-999	n/a	n/a	n/a	n/a	15	[0, 0, 0]	-999	PAL1	1	R1263C
1838.163	0.003	988969	REC_END	n/a	n/a	3	-999	n/a	n/a	n/a	n/a	15	[0, 0, 0]	-999	PAL1	1	R1263C
1838.166	0.014	988971	REC_EVENT	5.003	n/a	3	5	PLANT	<>	PLANT	GEESE	15	[0, 0, 0]	-999	PAL1	1	R1263C
1838.18	0.275	988978	TEST_ORIENT	n/a	n/a	2	6	SAIL	n/a	THREAD	SAIL	15	[0, 0, 0]	-999	PAL1	1	R1263C
1839.114	4.0	989445	TEST_PROBE	n/a	wordpools/wordpool_EN.txt	2	6	SAIL	n/a	THREAD	SAIL	15	[0, 0, 0]	-999	PAL1	1	R1263C
1839.114	5.017	989445	REC_START	n/a	n/a	2	-999	n/a	n/a	n/a	n/a	15	[0, 0, 0]	-999	PAL1	1	R1263C
1844.131	0.004	991953	REC_END	n/a	n/a	2	-999	n/a	n/a	n/a	n/a	15	[0, 0, 0]	-999	PAL1	1	R1263C
1844.135	3.681	991955	REC_EVENT	5.021	n/a	2	6	SAIL	<>	THREAD	SAIL	15	[0, 0, 0]	-999	PAL1	1	R1263C
1847.816	10.451	993795	ENCODING_START	n/a	n/a	0	-999	n/a	n/a	n/a	n/a	16	[0, 0, 0]	-999	PAL1	1	R1263C
1858.267	0.275	999020	STUDY_ORIENT	n/a	n/a	1	1	BAG	CORN	BAG	CORN	16	[0, 0, 0]	-999	PAL1	1	R1263C
1859.084	4.0	999429	STUDY_PAIR	n/a	wordpools/wordpool_EN.txt	1	1	BAG	CORN	BAG	CORN	16	[0, 0, 0]	-999	PAL1	1	R1263C
1864.118	0.275	1001946	STUDY_ORIENT	n/a	n/a	2	6	TANK	GUARD	GUARD	TANK	16	[0, 0, 0]	-999	PAL1	1	R1263C
1865.035	4.0	1002404	STUDY_PAIR	n/a	wordpools/wordpool_EN.txt	2	6	TANK	GUARD	GUARD	TANK	16	[0, 0, 0]	-999	PAL1	1	R1263C
1870.053	0.275	1004913	STUDY_ORIENT	n/a	n/a	3	5	BEAN	ROOF	ROOF	BEAN	16	[0, 0, 0]	-999	PAL1	1	R1263C
1870.986	4.0	1005379	STUDY_PAIR	n/a	wordpools/wordpool_EN.txt	3	5	BEAN	ROOF	ROOF	BEAN	16	[0, 0, 0]	-999	PAL1	1	R1263C
1876.004	0.275	1007888	STUDY_ORIENT	n/a	n/a	4	2	CONE	n/a	CART	CONE	16	[0, 0, 0]	-999	PAL1	1	R1263C
1876.804	4.0	1008288	STUDY_PAIR	n/a	wordpools/wordpool_EN.txt	4	2	CONE	n/a	CART	CONE	16	[0, 0, 0]	-999	PAL1	1	R1263C
1881.822	0.275	1010797	STUDY_ORIENT	n/a	n/a	5	3	JAIL	CUBE	JAIL	CUBE	16	[0, 0, 0]	-999	PAL1	1	R1263C
1882.755	4.0	1011263	STUDY_PAIR	n/a	wordpools/wordpool_EN.txt	5	3	JAIL	CUBE	JAIL	CUBE	16	[0, 0, 0]	-999	PAL1	1	R1263C
1887.773	0.275	1013772	STUDY_ORIENT	n/a	n/a	6	4	RAKE	n/a	BRICK	RAKE	16	[0, 0, 0]	-999	PAL1	1	R1263C
1888.639	4.0	1014205	STUDY_PAIR	n/a	wordpools/wordpool_EN.txt	6	4	RAKE	n/a	BRICK	RAKE	16	[0, 0, 0]	-999	PAL1	1	R1263C
1892.657	0.999	1016214	START	n/a	n/a	-999	-999	n/a	n/a	n/a	n/a	16	[-999, -999, -999]	-999	PAL1	1	R1263C
1893.656	0.017	1016713	MATH_START	n/a	n/a	-999	-999	n/a	n/a	n/a	n/a	16	[0, 0, 0]	-999	PAL1	1	R1263C
1893.673	5.419	1016722	PROB	5.399	n/a	-999	-999	n/a	n/a	n/a	n/a	16	[8, 4, 8]	20	PAL1	1	R1263C
1899.092	4.884	1019431	PROB	4.852	n/a	-999	-999	n/a	n/a	n/a	n/a	16	[8, 1, 7]	16	PAL1	1	R1263C
1903.976	3.766	1021873	PROB	3.735	n/a	-999	-999	n/a	n/a	n/a	n/a	16	[2, 1, 2]	5	PAL1	1	R1263C
1907.742	6.754	1023756	PROB	6.754	n/a	-999	-999	n/a	n/a	n/a	n/a	16	[8, 9, 5]	20	PAL1	1	R1263C
1914.496	0.015	1027132	STOP	n/a	n/a	-999	-999	n/a	n/a	n/a	n/a	16	[-999, -999, -999]	-999	PAL1	1	R1263C
1914.511	0.0	1027140	MATH_END	n/a	n/a	-999	-999	n/a	n/a	n/a	n/a	16	[0, 0, 0]	-999	PAL1	1	R1263C
1914.511	0.017	1027140	TEST_START	n/a	n/a	-999	-999	n/a	n/a	n/a	n/a	16	[0, 0, 0]	-999	PAL1	1	R1263C
1914.528	0.275	1027148	TEST_ORIENT	n/a	n/a	1	1	BAG	CORN	BAG	CORN	16	[0, 0, 0]	-999	PAL1	1	R1263C
1915.511	4.0	1027640	TEST_PROBE	n/a	wordpools/wordpool_EN.txt	1	1	BAG	CORN	BAG	CORN	16	[0, 0, 0]	-999	PAL1	1	R1263C
1915.512	2.318	1027640	REC_START	n/a	n/a	1	-999	n/a	CORN	n/a	n/a	16	[0, 0, 0]	-999	PAL1	1	R1263C
1917.83	0.5	1028799	REC_EVENT	2.318	n/a	1	1	BAG	CORN	BAG	CORN	16	[0, 0, 0]	-999	PAL1	1	R1263C
1918.33	2.192	1029049	REC_EVENT	2.818	n/a	1	1	BAG	<>	BAG	CORN	16	[0, 0, 0]	-999	PAL1	1	R1263C
1920.522	0.007	1030145	REC_END	n/a	n/a	1	-999	n/a	n/a	n/a	n/a	16	[0, 0, 0]	-999	PAL1	1	R1263C
1920.529	0.275	1030149	TEST_ORIENT	n/a	n/a	4	2	CONE	n/a	CART	CONE	16	[0, 0, 0]	-999	PAL1	1	R1263C
1921.562	0.0	1030665	REC_START	n/a	n/a	4	-999	n/a	n/a	n/a	n/a	16	[0, 0, 0]	-999	PAL1	1	R1263C
1921.562	4.0	1030665	TEST_PROBE	n/a	wordpools/wordpool_EN.txt	4	2	CONE	n/a	CART	CONE	16	[0, 0, 0]	-999	PAL1	1	R1263C
1926.577	0.002	1033172	REC_EVENT	5.015	n/a	4	2	CONE	<>	CART	CONE	16	[0, 0, 0]	-999	PAL1	1	R1263C
1926.579	0.017	1033173	REC_END	n/a	n/a	4	-999	n/a	n/a	n/a	n/a	16	[0, 0, 0]	-999	PAL1	1	R1263C
1926.596	0.275	1033182	TEST_ORIENT	n/a	n/a	5	3	JAIL	CUBE	JAIL	CUBE	16	[0, 0, 0]	-999	PAL1	1	R1263C
1927.562	4.0	1033665	TEST_PROBE	n/a	wordpools/wordpool_EN.txt	5	3	JAIL	CUBE	JAIL	CUBE	16	[0, 0, 0]	-999	PAL1	1	R1263C
1927.563	2.856	1033665	REC_START	n/a	n/a	5	-999	n/a	CUBE	n/a	n/a	16	[0, 0, 0]	-999	PAL1	1	R1263C
1930.419	0.5	1035093	REC_EVENT	2.856	n/a	5	3	JAIL	CUBE	JAIL	CUBE	16	[0, 0, 0]	-999	PAL1	1	R1263C
1930.919	1.644	1035343	REC_EVENT	3.356	n/a	5	3	JAIL	<>	JAIL	CUBE	16	[0, 0, 0]	-999	PAL1	1	R1263C
1932.563	0.017	1036165	REC_END	n/a	n/a	5	-999	n/a	n/a	n/a	n/a	16	[0, 0, 0]	-999	PAL1	1	R1263C
1932.58	0.275	1036174	TEST_ORIENT	n/a	n/a	6	4	RAKE	n/a	BRICK	RAKE	16	[0, 0, 0]	-999	PAL1	1	R1263C
1933.482	4.0	1036625	TEST_PROBE	n/a	wordpools/wordpool_EN.txt	6	4	RAKE	n/a	BRICK	RAKE	16	[0, 0, 0]	-999	PAL1	1	R1263C
1933.482	5.015	1036625	REC_START	n/a	n/a	6	-999	n/a	n/a	n/a	n/a	16	[0, 0, 0]	-999	PAL1	1	R1263C
1938.497	0.002	1039132	REC_EVENT	5.015	n/a	6	4	RAKE	<>	BRICK	RAKE	16	[0, 0, 0]	-999	PAL1	1	R1263C
1938.499	0.017	1039133	REC_END	n/a	n/a	6	-999	n/a	n/a	n/a	n/a	16	[0, 0, 0]	-999	PAL1	1	R1263C
1938.516	0.275	1039141	TEST_ORIENT	n/a	n/a	3	5	BEAN	ROOF	ROOF	BEAN	16	[0, 0, 0]	-999	PAL1	1	R1263C
1939.349	4.0	1039558	TEST_PROBE	n/a	wordpools/wordpool_EN.txt	3	5	BEAN	ROOF	ROOF	BEAN	16	[0, 0, 0]	-999	PAL1	1	R1263C
1939.35	3.475	1039558	REC_START	n/a	n/a	3	-999	n/a	ROOF	n/a	n/a	16	[0, 0, 0]	-999	PAL1	1	R1263C
1942.825	0.6	1041296	REC_EVENT	3.475	n/a	3	5	BEAN	ROOF	ROOF	BEAN	16	[0, 0, 0]	-999	PAL1	1	R1263C
1943.425	0.934	1041596	REC_EVENT	4.075	n/a	3	5	BEAN	<>	ROOF	BEAN	16	[0, 0, 0]	-999	PAL1	1	R1263C
1944.359	0.008	1042063	REC_END	n/a	n/a	3	-999	n/a	n/a	n/a	n/a	16	[0, 0, 0]	-999	PAL1	1	R1263C
1944.367	0.275	1042067	TEST_ORIENT	n/a	n/a	2	6	TANK	GUARD	GUARD	TANK	16	[0, 0, 0]	-999	PAL1	1	R1263C
1945.267	4.0	1042517	TEST_PROBE	n/a	wordpools/wordpool_EN.txt	2	6	TANK	GUARD	GUARD	TANK	16	[0, 0, 0]	-999	PAL1	1	R1263C
1945.268	2.327	1042517	REC_START	n/a	n/a	2	-999	n/a	GUARD	n/a	n/a	16	[0, 0, 0]	-999	PAL1	1	R1263C
1947.595	0.65	1043681	REC_EVENT	2.327	n/a	2	6	TANK	GUARD	GUARD	TANK	16	[0, 0, 0]	-999	PAL1	1	R1263C
1948.245	2.032	1044006	REC_EVENT	2.977	n/a	2	6	TANK	<>	GUARD	TANK	16	[0, 0, 0]	-999	PAL1	1	R1263C
1950.277	0.0	1045021	REC_END	n/a	n/a	2	-999	n/a	n/a	n/a	n/a	16	[0, 0, 0]	-999	PAL1	1	R1263C
