onset	duration	sample	trial_type	response_time	serialpos	probepos	probe_word	resp_word	study_1	study_2	list	test	answer	experiment	session	subject
0.0	317.125	430	INSTRUCT_START	n/a	-999	-999	n/a	n/a	n/a	n/a	-1	[0, 0, 0]	-999	PAL1	5	R1318N
317.125	2.184	317545	INSTRUCT_END	n/a	-999	-999	n/a	n/a	n/a	n/a	-1	[0, 0, 0]	-999	PAL1	5	R1318N
319.309	8.646	319729	MIC TEST_START	n/a	-999	-999	n/a	n/a	n/a	n/a	-1	[0, 0, 0]	-999	PAL1	5	R1318N
327.955	0.011	328375	MIC TEST_END	n/a	-999	-999	n/a	n/a	n/a	n/a	-1	[0, 0, 0]	-999	PAL1	5	R1318N
327.966	0.0	328386	TRIAL_START	n/a	-999	-999	n/a	n/a	n/a	n/a	-1	[0, 0, 0]	-999	PAL1	5	R1318N
327.966	0.001	328386	TRIAL	n/a	-999	-999	n/a	n/a	n/a	n/a	-1	[0, 0, 0]	-999	PAL1	5	R1318N
327.967	1.244	328387	WAITING_START	n/a	-999	-999	n/a	n/a	n/a	n/a	-1	[0, 0, 0]	-999	PAL1	5	R1318N
329.211	0.001	329631	WAITING_END	n/a	-999	-999	n/a	n/a	n/a	n/a	-1	[0, 0, 0]	-999	PAL1	5	R1318N
329.212	10.428	329632	COUNTDOWN_START	n/a	-999	-999	n/a	n/a	n/a	n/a	-1	[0, 0, 0]	-999	PAL1	5	R1318N
339.64	0.001	340060	COUNTDOWN_END	n/a	-999	-999	n/a	n/a	n/a	n/a	-1	[0, 0, 0]	-999	PAL1	5	R1318N
339.641	0.622	340061	ORIENT_START	n/a	-999	-999	n/a	n/a	n/a	n/a	-1	[0, 0, 0]	-999	PAL1	5	R1318N
340.263	0.0	340683	ORIENT_END	n/a	-999	-999	n/a	n/a	n/a	n/a	-1	[0, 0, 0]	-999	PAL1	5	R1318N
340.263	1.033	340683	ENCODING_START	n/a	-999	-999	n/a	n/a	n/a	n/a	-1	[0, 0, 0]	-999	PAL1	5	R1318N
341.296	4.032	341716	STUDY_PAIR	n/a	1	-999	n/a	n/a	WATCH	BABY	-1	[0, 0, 0]	-999	PAL1	5	R1318N
345.328	0.587	345748	STUDY_PAIR_OFF	n/a	1	-999	n/a	n/a	WATCH	BABY	-1	[0, 0, 0]	-999	PAL1	5	R1318N
345.915	4.032	346335	STUDY_PAIR	n/a	2	-999	n/a	FLOOD	WAGON	CAMEL	-1	[0, 0, 0]	-999	PAL1	5	R1318N
349.947	0.718	350366	STUDY_PAIR_OFF	n/a	2	-999	n/a	FLOOD	WAGON	CAMEL	-1	[0, 0, 0]	-999	PAL1	5	R1318N
350.665	4.033	351084	STUDY_PAIR	n/a	3	-999	n/a	MITCH	RING	TONGUE	-1	[0, 0, 0]	-999	PAL1	5	R1318N
354.698	0.678	355117	STUDY_PAIR_OFF	n/a	3	-999	n/a	MITCH	RING	TONGUE	-1	[0, 0, 0]	-999	PAL1	5	R1318N
355.376	4.039	355795	STUDY_PAIR	n/a	4	-999	n/a	BEAM	COTTON	BEAM	-1	[0, 0, 0]	-999	PAL1	5	R1318N
359.415	0.583	359834	STUDY_PAIR_OFF	n/a	4	-999	n/a	BEAM	COTTON	BEAM	-1	[0, 0, 0]	-999	PAL1	5	R1318N
359.998	4.034	360417	STUDY_PAIR	n/a	5	-999	n/a	FLOOD	RHINO	FLOOD	-1	[0, 0, 0]	-999	PAL1	5	R1318N
364.032	0.745	364451	STUDY_PAIR_OFF	n/a	5	-999	n/a	FLOOD	RHINO	FLOOD	-1	[0, 0, 0]	-999	PAL1	5	R1318N
364.777	4.04	365196	STUDY_PAIR	n/a	6	-999	n/a	WATCH	CHEST	IMAGE	-1	[0, 0, 0]	-999	PAL1	5	R1318N
368.817	0.0	369236	STUDY_PAIR_OFF	n/a	6	-999	n/a	WATCH	CHEST	IMAGE	-1	[0, 0, 0]	-999	PAL1	5	R1318N
368.817	0.001	369236	ENCODING_END	n/a	-999	-999	n/a	n/a	n/a	n/a	-1	[0, 0, 0]	-999	PAL1	5	R1318N
368.818	0.0	369237	MATH_START	n/a	-999	-999	n/a	n/a	n/a	n/a	-1	[0, 0, 0]	-999	PAL1	5	R1318N
368.818	0.015	369237	START	n/a	-999	-999	n/a	n/a	n/a	n/a	-1	[-999, -999, -999]	-999	PAL1	5	R1318N
368.833	3.484	369252	PROB	3454	-999	-999	n/a	n/a	n/a	n/a	-1	[2, 5, 8]	15	PAL1	5	R1318N
372.317	5.017	372736	PROB	4993	-999	-999	n/a	n/a	n/a	n/a	-1	[6, 5, 9]	20	PAL1	5	R1318N
377.334	1.567	377753	PROB	1545	-999	-999	n/a	n/a	n/a	n/a	-1	[1, 1, 1]	3	PAL1	5	R1318N
378.901	2.001	379320	PROB	1977	-999	-999	n/a	n/a	n/a	n/a	-1	[5, 5, 2]	12	PAL1	5	R1318N
380.902	4.517	381321	PROB	4487	-999	-999	n/a	n/a	n/a	n/a	-1	[6, 8, 1]	15	PAL1	5	R1318N
385.419	1.751	385837	PROB	1715	-999	-999	n/a	n/a	n/a	n/a	-1	[1, 5, 5]	11	PAL1	5	R1318N
387.17	2.876	387588	PROB	2876	-999	-999	n/a	n/a	n/a	n/a	-1	[7, 7, 2]	16	PAL1	5	R1318N
390.046	0.008	390464	STOP	n/a	-999	-999	n/a	n/a	n/a	n/a	-1	[-999, -999, -999]	-999	PAL1	5	R1318N
390.054	0.552	390472	MATH_END	n/a	-999	-999	n/a	n/a	n/a	n/a	-1	[0, 0, 0]	-999	PAL1	5	R1318N
390.606	0.001	391024	RETRIEVAL_START	n/a	-999	-999	n/a	n/a	n/a	n/a	-1	[0, 0, 0]	-999	PAL1	5	R1318N
390.607	0.28	391025	ORIENT_START	n/a	-999	-999	n/a	n/a	n/a	n/a	-1	[0, 0, 0]	-999	PAL1	5	R1318N
390.887	0.735	391305	ORIENT_END	n/a	-999	-999	n/a	n/a	n/a	n/a	-1	[0, 0, 0]	-999	PAL1	5	R1318N
391.622	0.001	392040	REC_START	n/a	1	1	WATCH	n/a	WATCH	BABY	-1	[0, 0, 0]	-999	PAL1	5	R1318N
391.623	3.984	392041	PROBE_START	n/a	1	1	WATCH	n/a	WATCH	BABY	-1	[0, 0, 0]	-999	PAL1	5	R1318N
395.607	0.047	396025	REC_EVENT	3984	1	1	WATCH	<>	WATCH	BABY	-1	[0, 0, 0]	-999	PAL1	5	R1318N
395.654	1.0	396072	PROBE_END	n/a	1	1	WATCH	n/a	WATCH	BABY	-1	[0, 0, 0]	-999	PAL1	5	R1318N
396.654	0.008	397072	REC_END	n/a	1	1	WATCH	n/a	WATCH	BABY	-1	[0, 0, 0]	-999	PAL1	5	R1318N
396.662	0.276	397080	ORIENT_START	n/a	-999	-999	n/a	n/a	n/a	n/a	-1	[0, 0, 0]	-999	PAL1	5	R1318N
396.938	0.739	397356	ORIENT_END	n/a	-999	-999	n/a	n/a	n/a	n/a	-1	[0, 0, 0]	-999	PAL1	5	R1318N
397.677	0.0	398095	REC_START	n/a	2	2	CAMEL	FLOOD	WAGON	CAMEL	-1	[0, 0, 0]	-999	PAL1	5	R1318N
397.677	2.307	398095	PROBE_START	n/a	2	2	CAMEL	FLOOD	WAGON	CAMEL	-1	[0, 0, 0]	-999	PAL1	5	R1318N
399.984	1.721	400402	REC_EVENT	2307	2	2	CAMEL	FLOOD	WAGON	CAMEL	-1	[0, 0, 0]	-999	PAL1	5	R1318N
401.705	1.0	402123	PROBE_END	n/a	2	2	CAMEL	n/a	WAGON	CAMEL	-1	[0, 0, 0]	-999	PAL1	5	R1318N
402.705	0.009	403123	REC_END	n/a	2	2	CAMEL	n/a	WAGON	CAMEL	-1	[0, 0, 0]	-999	PAL1	5	R1318N
402.714	0.275	403132	ORIENT_START	n/a	-999	-999	n/a	n/a	n/a	n/a	-1	[0, 0, 0]	-999	PAL1	5	R1318N
402.989	0.702	403407	ORIENT_END	n/a	-999	-999	n/a	n/a	n/a	n/a	-1	[0, 0, 0]	-999	PAL1	5	R1318N
403.691	0.001	404109	REC_START	n/a	5	3	RHINO	FLOOD	RHINO	FLOOD	-1	[0, 0, 0]	-999	PAL1	5	R1318N
403.692	2.066	404110	PROBE_START	n/a	5	3	RHINO	FLOOD	RHINO	FLOOD	-1	[0, 0, 0]	-999	PAL1	5	R1318N
405.758	0.25	406176	REC_EVENT	2066	5	3	RHINO	<>	RHINO	FLOOD	-1	[0, 0, 0]	-999	PAL1	5	R1318N
406.008	1.715	406426	REC_EVENT	2316	5	3	RHINO	FLOOD	RHINO	FLOOD	-1	[0, 0, 0]	-999	PAL1	5	R1318N
407.723	1.001	408141	PROBE_END	n/a	5	3	RHINO	n/a	RHINO	FLOOD	-1	[0, 0, 0]	-999	PAL1	5	R1318N
408.724	0.012	409142	REC_END	n/a	5	3	RHINO	n/a	RHINO	FLOOD	-1	[0, 0, 0]	-999	PAL1	5	R1318N
408.736	0.271	409154	ORIENT_START	n/a	-999	-999	n/a	n/a	n/a	n/a	-1	[0, 0, 0]	-999	PAL1	5	R1318N
409.007	0.644	409425	ORIENT_END	n/a	-999	-999	n/a	n/a	n/a	n/a	-1	[0, 0, 0]	-999	PAL1	5	R1318N
409.651	0.0	410069	REC_START	n/a	6	4	IMAGE	WATCH	CHEST	IMAGE	-1	[0, 0, 0]	-999	PAL1	5	R1318N
409.651	2.564	410069	PROBE_START	n/a	6	4	IMAGE	WATCH	CHEST	IMAGE	-1	[0, 0, 0]	-999	PAL1	5	R1318N
412.215	1.442	412633	REC_EVENT	2564	6	4	IMAGE	WATCH	CHEST	IMAGE	-1	[0, 0, 0]	-999	PAL1	5	R1318N
413.657	1.0	414075	PROBE_END	n/a	6	4	IMAGE	n/a	CHEST	IMAGE	-1	[0, 0, 0]	-999	PAL1	5	R1318N
414.657	0.014	415075	REC_END	n/a	6	4	IMAGE	n/a	CHEST	IMAGE	-1	[0, 0, 0]	-999	PAL1	5	R1318N
414.671	0.27	415089	ORIENT_START	n/a	-999	-999	n/a	n/a	n/a	n/a	-1	[0, 0, 0]	-999	PAL1	5	R1318N
414.941	0.561	415359	ORIENT_END	n/a	-999	-999	n/a	n/a	n/a	n/a	-1	[0, 0, 0]	-999	PAL1	5	R1318N
415.502	0.001	415920	REC_START	n/a	3	5	TONGUE	MITCH	RING	TONGUE	-1	[0, 0, 0]	-999	PAL1	5	R1318N
415.503	3.665	415921	PROBE_START	n/a	3	5	TONGUE	MITCH	RING	TONGUE	-1	[0, 0, 0]	-999	PAL1	5	R1318N
419.168	0.374	419585	REC_EVENT	3665	3	5	TONGUE	MITCH	RING	TONGUE	-1	[0, 0, 0]	-999	PAL1	5	R1318N
419.542	1.0	419959	PROBE_END	n/a	3	5	TONGUE	n/a	RING	TONGUE	-1	[0, 0, 0]	-999	PAL1	5	R1318N
420.542	0.014	420959	REC_END	n/a	3	5	TONGUE	n/a	RING	TONGUE	-1	[0, 0, 0]	-999	PAL1	5	R1318N
420.556	0.269	420973	ORIENT_START	n/a	-999	-999	n/a	n/a	n/a	n/a	-1	[0, 0, 0]	-999	PAL1	5	R1318N
420.825	0.695	421242	ORIENT_END	n/a	-999	-999	n/a	n/a	n/a	n/a	-1	[0, 0, 0]	-999	PAL1	5	R1318N
421.52	0.001	421937	REC_START	n/a	4	6	COTTON	BEAM	COTTON	BEAM	-1	[0, 0, 0]	-999	PAL1	5	R1318N
421.521	3.233	421938	PROBE_START	n/a	4	6	COTTON	BEAM	COTTON	BEAM	-1	[0, 0, 0]	-999	PAL1	5	R1318N
424.754	0.805	425171	REC_EVENT	3233	4	6	COTTON	BEAM	COTTON	BEAM	-1	[0, 0, 0]	-999	PAL1	5	R1318N
425.559	1.001	425976	PROBE_END	n/a	4	6	COTTON	n/a	COTTON	BEAM	-1	[0, 0, 0]	-999	PAL1	5	R1318N
426.56	0.013	426977	REC_END	n/a	4	6	COTTON	n/a	COTTON	BEAM	-1	[0, 0, 0]	-999	PAL1	5	R1318N
426.573	0.0	426990	RETRIEVAL_END	n/a	-999	-999	n/a	n/a	n/a	n/a	-1	[0, 0, 0]	-999	PAL1	5	R1318N
426.573	7.472	426990	PRACTICE_POST_INSTRUCT_START	n/a	-999	-999	n/a	n/a	n/a	n/a	-1	[0, 0, 0]	-999	PAL1	5	R1318N
434.045	0.0	434462	PRACTICE_POST_INSTRUCT_END	n/a	-999	-999	n/a	n/a	n/a	n/a	-1	[0, 0, 0]	-999	PAL1	5	R1318N
434.045	0.023	434462	TRIAL_END	n/a	-999	-999	n/a	n/a	n/a	n/a	-1	[0, 0, 0]	-999	PAL1	5	R1318N
434.068	0.0	434485	TRIAL_START	n/a	-999	-999	n/a	n/a	n/a	n/a	-1	[0, 0, 0]	-999	PAL1	5	R1318N
434.068	0.0	434485	TRIAL	n/a	-999	-999	n/a	n/a	n/a	n/a	1	[0, 0, 0]	-999	PAL1	5	R1318N
434.068	1.093	434485	WAITING_START	n/a	-999	-999	n/a	n/a	n/a	n/a	1	[0, 0, 0]	-999	PAL1	5	R1318N
435.161	0.0	435578	WAITING_END	n/a	-999	-999	n/a	n/a	n/a	n/a	1	[0, 0, 0]	-999	PAL1	5	R1318N
435.161	10.429	435578	COUNTDOWN_START	n/a	-999	-999	n/a	n/a	n/a	n/a	1	[0, 0, 0]	-999	PAL1	5	R1318N
445.59	0.001	446007	COUNTDOWN_END	n/a	-999	-999	n/a	n/a	n/a	n/a	1	[0, 0, 0]	-999	PAL1	5	R1318N
445.591	0.572	446008	ORIENT_START	n/a	-999	-999	n/a	n/a	n/a	n/a	1	[0, 0, 0]	-999	PAL1	5	R1318N
446.163	0.001	446580	ORIENT_END	n/a	-999	-999	n/a	n/a	n/a	n/a	1	[0, 0, 0]	-999	PAL1	5	R1318N
446.164	1.046	446581	ENCODING_START	n/a	-999	-999	n/a	n/a	n/a	n/a	1	[0, 0, 0]	-999	PAL1	5	R1318N
447.21	4.037	447627	STUDY_PAIR	n/a	1	-999	n/a	GUARD	GUARD	CHAIR	1	[0, 0, 0]	-999	PAL1	5	R1318N
451.247	0.642	451664	STUDY_PAIR_OFF	n/a	1	-999	n/a	GUARD	GUARD	CHAIR	1	[0, 0, 0]	-999	PAL1	5	R1318N
451.889	4.026	452305	STUDY_PAIR	n/a	2	-999	n/a	DITCH	SPEAR	DITCH	1	[0, 0, 0]	-999	PAL1	5	R1318N
455.915	0.552	456331	STUDY_PAIR_OFF	n/a	2	-999	n/a	DITCH	SPEAR	DITCH	1	[0, 0, 0]	-999	PAL1	5	R1318N
456.467	4.032	456883	STUDY_PAIR	n/a	3	-999	n/a	TENT	YARD	TENT	1	[0, 0, 0]	-999	PAL1	5	R1318N
460.499	0.525	460915	STUDY_PAIR_OFF	n/a	3	-999	n/a	TENT	YARD	TENT	1	[0, 0, 0]	-999	PAL1	5	R1318N
461.024	4.025	461440	STUDY_PAIR	n/a	4	-999	n/a	SPONGE	TOOL	SPONGE	1	[0, 0, 0]	-999	PAL1	5	R1318N
465.049	0.63	465465	STUDY_PAIR_OFF	n/a	4	-999	n/a	SPONGE	TOOL	SPONGE	1	[0, 0, 0]	-999	PAL1	5	R1318N
465.679	4.038	466095	STUDY_PAIR	n/a	5	-999	n/a	STEAK	STEAK	STORE	1	[0, 0, 0]	-999	PAL1	5	R1318N
469.717	0.539	470133	STUDY_PAIR_OFF	n/a	5	-999	n/a	STEAK	STEAK	STORE	1	[0, 0, 0]	-999	PAL1	5	R1318N
470.256	4.028	470672	STUDY_PAIR	n/a	6	-999	n/a	CHIN	CHIN	BRIDGE	1	[0, 0, 0]	-999	PAL1	5	R1318N
474.284	0.001	474700	STUDY_PAIR_OFF	n/a	6	-999	n/a	CHIN	CHIN	BRIDGE	1	[0, 0, 0]	-999	PAL1	5	R1318N
474.285	0.0	474701	MATH_START	n/a	-999	-999	n/a	n/a	n/a	n/a	1	[0, 0, 0]	-999	PAL1	5	R1318N
474.285	0.0	474701	ENCODING_END	n/a	-999	-999	n/a	n/a	n/a	n/a	1	[0, 0, 0]	-999	PAL1	5	R1318N
474.285	0.016	474701	START	n/a	-999	-999	n/a	n/a	n/a	n/a	1	[-999, -999, -999]	-999	PAL1	5	R1318N
474.301	2.7	474717	PROB	2673	-999	-999	n/a	n/a	n/a	n/a	1	[6, 8, 5]	19	PAL1	5	R1318N
477.001	3.167	477417	PROB	3142	-999	-999	n/a	n/a	n/a	n/a	1	[7, 4, 5]	16	PAL1	5	R1318N
480.168	2.801	480584	PROB	2774	-999	-999	n/a	n/a	n/a	n/a	1	[1, 2, 5]	8	PAL1	5	R1318N
482.969	3.416	483385	PROB	3380	-999	-999	n/a	n/a	n/a	n/a	1	[2, 8, 6]	16	PAL1	5	R1318N
486.385	2.051	486800	PROB	2012	-999	-999	n/a	n/a	n/a	n/a	1	[9, 3, 1]	13	PAL1	5	R1318N
488.436	2.767	488851	PROB	2731	-999	-999	n/a	n/a	n/a	n/a	1	[1, 8, 6]	15	PAL1	5	R1318N
491.203	3.403	491618	PROB	3403	-999	-999	n/a	n/a	n/a	n/a	1	[6, 9, 2]	17	PAL1	5	R1318N
494.606	0.015	495021	STOP	n/a	-999	-999	n/a	n/a	n/a	n/a	1	[-999, -999, -999]	-999	PAL1	5	R1318N
494.621	0.596	495036	MATH_END	n/a	-999	-999	n/a	n/a	n/a	n/a	1	[0, 0, 0]	-999	PAL1	5	R1318N
495.217	0.001	495632	RETRIEVAL_START	n/a	-999	-999	n/a	n/a	n/a	n/a	1	[0, 0, 0]	-999	PAL1	5	R1318N
495.218	0.27	495633	ORIENT_START	n/a	-999	-999	n/a	n/a	n/a	n/a	1	[0, 0, 0]	-999	PAL1	5	R1318N
495.488	0.725	495903	ORIENT_END	n/a	-999	-999	n/a	n/a	n/a	n/a	1	[0, 0, 0]	-999	PAL1	5	R1318N
496.213	0.0	496628	REC_START	n/a	3	1	YARD	TENT	YARD	TENT	1	[0, 0, 0]	-999	PAL1	5	R1318N
496.213	2.041	496628	PROBE_START	n/a	3	1	YARD	TENT	YARD	TENT	1	[0, 0, 0]	-999	PAL1	5	R1318N
498.254	1.984	498669	REC_EVENT	2041	3	1	YARD	TENT	YARD	TENT	1	[0, 0, 0]	-999	PAL1	5	R1318N
500.238	1.0	500653	PROBE_END	n/a	3	1	YARD	n/a	YARD	TENT	1	[0, 0, 0]	-999	PAL1	5	R1318N
501.238	0.014	501653	REC_END	n/a	3	1	YARD	n/a	YARD	TENT	1	[0, 0, 0]	-999	PAL1	5	R1318N
501.252	0.27	501667	ORIENT_START	n/a	-999	-999	n/a	n/a	n/a	n/a	1	[0, 0, 0]	-999	PAL1	5	R1318N
501.522	0.603	501937	ORIENT_END	n/a	-999	-999	n/a	n/a	n/a	n/a	1	[0, 0, 0]	-999	PAL1	5	R1318N
502.125	0.001	502540	REC_START	n/a	2	2	SPEAR	DITCH	SPEAR	DITCH	1	[0, 0, 0]	-999	PAL1	5	R1318N
502.126	2.02	502541	PROBE_START	n/a	2	2	SPEAR	DITCH	SPEAR	DITCH	1	[0, 0, 0]	-999	PAL1	5	R1318N
504.146	2.01	504561	REC_EVENT	2020	2	2	SPEAR	DITCH	SPEAR	DITCH	1	[0, 0, 0]	-999	PAL1	5	R1318N
506.156	1.001	506571	PROBE_END	n/a	2	2	SPEAR	n/a	SPEAR	DITCH	1	[0, 0, 0]	-999	PAL1	5	R1318N
507.157	0.013	507572	REC_END	n/a	2	2	SPEAR	n/a	SPEAR	DITCH	1	[0, 0, 0]	-999	PAL1	5	R1318N
507.17	0.27	507585	ORIENT_START	n/a	-999	-999	n/a	n/a	n/a	n/a	1	[0, 0, 0]	-999	PAL1	5	R1318N
507.44	0.744	507855	ORIENT_END	n/a	-999	-999	n/a	n/a	n/a	n/a	1	[0, 0, 0]	-999	PAL1	5	R1318N
508.184	0.0	508599	REC_START	n/a	1	3	CHAIR	GUARD	GUARD	CHAIR	1	[0, 0, 0]	-999	PAL1	5	R1318N
508.184	4.023	508599	PROBE_START	n/a	1	3	CHAIR	GUARD	GUARD	CHAIR	1	[0, 0, 0]	-999	PAL1	5	R1318N
512.207	0.553	512622	PROBE_END	n/a	1	3	CHAIR	n/a	GUARD	CHAIR	1	[0, 0, 0]	-999	PAL1	5	R1318N
512.76	0.447	513175	REC_EVENT	4576	1	3	CHAIR	GUARD	GUARD	CHAIR	1	[0, 0, 0]	-999	PAL1	5	R1318N
513.207	0.007	513622	REC_END	n/a	1	3	CHAIR	n/a	GUARD	CHAIR	1	[0, 0, 0]	-999	PAL1	5	R1318N
513.214	0.277	513629	ORIENT_START	n/a	-999	-999	n/a	n/a	n/a	n/a	1	[0, 0, 0]	-999	PAL1	5	R1318N
513.491	0.582	513906	ORIENT_END	n/a	-999	-999	n/a	n/a	n/a	n/a	1	[0, 0, 0]	-999	PAL1	5	R1318N
514.073	0.0	514488	REC_START	n/a	6	4	BRIDGE	CHIN	CHIN	BRIDGE	1	[0, 0, 0]	-999	PAL1	5	R1318N
514.073	2.778	514488	PROBE_START	n/a	6	4	BRIDGE	CHIN	CHIN	BRIDGE	1	[0, 0, 0]	-999	PAL1	5	R1318N
516.851	1.24	517266	REC_EVENT	2778	6	4	BRIDGE	CHIN	CHIN	BRIDGE	1	[0, 0, 0]	-999	PAL1	5	R1318N
518.091	1.001	518506	PROBE_END	n/a	6	4	BRIDGE	n/a	CHIN	BRIDGE	1	[0, 0, 0]	-999	PAL1	5	R1318N
519.092	0.011	519507	REC_END	n/a	6	4	BRIDGE	n/a	CHIN	BRIDGE	1	[0, 0, 0]	-999	PAL1	5	R1318N
519.103	0.271	519518	ORIENT_START	n/a	-999	-999	n/a	n/a	n/a	n/a	1	[0, 0, 0]	-999	PAL1	5	R1318N
519.374	0.71	519789	ORIENT_END	n/a	-999	-999	n/a	n/a	n/a	n/a	1	[0, 0, 0]	-999	PAL1	5	R1318N
520.084	0.001	520498	REC_START	n/a	5	5	STORE	STEAK	STEAK	STORE	1	[0, 0, 0]	-999	PAL1	5	R1318N
520.085	2.135	520499	PROBE_START	n/a	5	5	STORE	STEAK	STEAK	STORE	1	[0, 0, 0]	-999	PAL1	5	R1318N
522.22	1.889	522634	REC_EVENT	2135	5	5	STORE	STEAK	STEAK	STORE	1	[0, 0, 0]	-999	PAL1	5	R1318N
524.109	1.001	524523	PROBE_END	n/a	5	5	STORE	n/a	STEAK	STORE	1	[0, 0, 0]	-999	PAL1	5	R1318N
525.11	0.012	525524	REC_END	n/a	5	5	STORE	n/a	STEAK	STORE	1	[0, 0, 0]	-999	PAL1	5	R1318N
525.122	0.27	525536	ORIENT_START	n/a	-999	-999	n/a	n/a	n/a	n/a	1	[0, 0, 0]	-999	PAL1	5	R1318N
525.392	0.592	525806	ORIENT_END	n/a	-999	-999	n/a	n/a	n/a	n/a	1	[0, 0, 0]	-999	PAL1	5	R1318N
525.984	0.001	526398	REC_START	n/a	4	6	TOOL	SPONGE	TOOL	SPONGE	1	[0, 0, 0]	-999	PAL1	5	R1318N
525.985	1.687	526399	PROBE_START	n/a	4	6	TOOL	SPONGE	TOOL	SPONGE	1	[0, 0, 0]	-999	PAL1	5	R1318N
527.672	2.338	528086	REC_EVENT	1687	4	6	TOOL	SPONGE	TOOL	SPONGE	1	[0, 0, 0]	-999	PAL1	5	R1318N
530.01	1.0	530424	PROBE_END	n/a	4	6	TOOL	n/a	TOOL	SPONGE	1	[0, 0, 0]	-999	PAL1	5	R1318N
531.01	0.011	531424	REC_END	n/a	4	6	TOOL	n/a	TOOL	SPONGE	1	[0, 0, 0]	-999	PAL1	5	R1318N
531.021	0.0	531435	RETRIEVAL_END	n/a	-999	-999	n/a	n/a	n/a	n/a	1	[0, 0, 0]	-999	PAL1	5	R1318N
531.021	0.019	531435	TRIAL_END	n/a	-999	-999	n/a	n/a	n/a	n/a	1	[0, 0, 0]	-999	PAL1	5	R1318N
531.04	0.0	531454	TRIAL_START	n/a	-999	-999	n/a	n/a	n/a	n/a	1	[0, 0, 0]	-999	PAL1	5	R1318N
531.04	0.0	531454	TRIAL	n/a	-999	-999	n/a	n/a	n/a	n/a	2	[0, 0, 0]	-999	PAL1	5	R1318N
531.04	1.22	531454	WAITING_START	n/a	-999	-999	n/a	n/a	n/a	n/a	2	[0, 0, 0]	-999	PAL1	5	R1318N
532.26	0.001	532674	WAITING_END	n/a	-999	-999	n/a	n/a	n/a	n/a	2	[0, 0, 0]	-999	PAL1	5	R1318N
532.261	10.429	532675	COUNTDOWN_START	n/a	-999	-999	n/a	n/a	n/a	n/a	2	[0, 0, 0]	-999	PAL1	5	R1318N
542.69	0.0	543104	COUNTDOWN_END	n/a	-999	-999	n/a	n/a	n/a	n/a	2	[0, 0, 0]	-999	PAL1	5	R1318N
542.69	0.654	543104	ORIENT_START	n/a	-999	-999	n/a	n/a	n/a	n/a	2	[0, 0, 0]	-999	PAL1	5	R1318N
543.344	0.001	543758	ORIENT_END	n/a	-999	-999	n/a	n/a	n/a	n/a	2	[0, 0, 0]	-999	PAL1	5	R1318N
543.345	1.093	543759	ENCODING_START	n/a	-999	-999	n/a	n/a	n/a	n/a	2	[0, 0, 0]	-999	PAL1	5	R1318N
544.438	4.025	544852	STUDY_PAIR	n/a	1	-999	n/a	FUR	SNAIL	FUR	2	[0, 0, 0]	-999	PAL1	5	R1318N
548.463	0.713	548877	STUDY_PAIR_OFF	n/a	1	-999	n/a	FUR	SNAIL	FUR	2	[0, 0, 0]	-999	PAL1	5	R1318N
549.176	4.038	549590	STUDY_PAIR	n/a	2	-999	n/a	BANK	BANK	SHELL	2	[0, 0, 0]	-999	PAL1	5	R1318N
553.214	0.644	553628	STUDY_PAIR_OFF	n/a	2	-999	n/a	BANK	BANK	SHELL	2	[0, 0, 0]	-999	PAL1	5	R1318N
553.858	4.04	554271	STUDY_PAIR	n/a	3	-999	n/a	KEY	KEY	PLANE	2	[0, 0, 0]	-999	PAL1	5	R1318N
557.898	0.658	558311	STUDY_PAIR_OFF	n/a	3	-999	n/a	KEY	KEY	PLANE	2	[0, 0, 0]	-999	PAL1	5	R1318N
558.556	4.026	558969	STUDY_PAIR	n/a	4	-999	n/a	n/a	FAN	BARN	2	[0, 0, 0]	-999	PAL1	5	R1318N
562.582	0.648	562995	STUDY_PAIR_OFF	n/a	4	-999	n/a	n/a	FAN	BARN	2	[0, 0, 0]	-999	PAL1	5	R1318N
563.23	4.036	563643	STUDY_PAIR	n/a	5	-999	n/a	BLUSH	SUN	BLUSH	2	[0, 0, 0]	-999	PAL1	5	R1318N
567.266	0.615	567679	STUDY_PAIR_OFF	n/a	5	-999	n/a	BLUSH	SUN	BLUSH	2	[0, 0, 0]	-999	PAL1	5	R1318N
567.881	4.036	568294	STUDY_PAIR	n/a	6	-999	n/a	SEED	MOOSE	SEED	2	[0, 0, 0]	-999	PAL1	5	R1318N
571.917	0.001	572330	STUDY_PAIR_OFF	n/a	6	-999	n/a	SEED	MOOSE	SEED	2	[0, 0, 0]	-999	PAL1	5	R1318N
571.918	0.0	572331	ENCODING_END	n/a	-999	-999	n/a	n/a	n/a	n/a	2	[0, 0, 0]	-999	PAL1	5	R1318N
571.918	0.0	572331	MATH_START	n/a	-999	-999	n/a	n/a	n/a	n/a	2	[0, 0, 0]	-999	PAL1	5	R1318N
571.918	0.015	572331	START	n/a	-999	-999	n/a	n/a	n/a	n/a	2	[-999, -999, -999]	-999	PAL1	5	R1318N
571.933	2.651	572346	PROB	2626	-999	-999	n/a	n/a	n/a	n/a	2	[1, 7, 1]	9	PAL1	5	R1318N
574.584	2.667	574997	PROB	2630	-999	-999	n/a	n/a	n/a	n/a	2	[8, 2, 6]	16	PAL1	5	R1318N
577.251	3.967	577664	PROB	3932	-999	-999	n/a	n/a	n/a	n/a	2	[4, 4, 2]	10	PAL1	5	R1318N
581.218	1.934	581631	PROB	1901	-999	-999	n/a	n/a	n/a	n/a	2	[3, 7, 2]	12	PAL1	5	R1318N
583.152	2.434	583565	PROB	2398	-999	-999	n/a	n/a	n/a	n/a	2	[9, 6, 1]	16	PAL1	5	R1318N
585.586	2.367	585999	PROB	2333	-999	-999	n/a	n/a	n/a	n/a	2	[6, 1, 1]	8	PAL1	5	R1318N
587.953	3.483	588365	PROB	3452	-999	-999	n/a	n/a	n/a	n/a	2	[9, 4, 2]	15	PAL1	5	R1318N
591.436	2.674	591848	PROB	2674	-999	-999	n/a	n/a	n/a	n/a	2	[4, 5, 4]	13	PAL1	5	R1318N
594.11	0.011	594522	STOP	n/a	-999	-999	n/a	n/a	n/a	n/a	2	[-999, -999, -999]	-999	PAL1	5	R1318N
594.121	0.637	594533	MATH_END	n/a	-999	-999	n/a	n/a	n/a	n/a	2	[0, 0, 0]	-999	PAL1	5	R1318N
594.758	0.001	595170	RETRIEVAL_START	n/a	-999	-999	n/a	n/a	n/a	n/a	2	[0, 0, 0]	-999	PAL1	5	R1318N
594.759	0.278	595171	ORIENT_START	n/a	-999	-999	n/a	n/a	n/a	n/a	2	[0, 0, 0]	-999	PAL1	5	R1318N
595.037	0.671	595449	ORIENT_END	n/a	-999	-999	n/a	n/a	n/a	n/a	2	[0, 0, 0]	-999	PAL1	5	R1318N
595.708	0.0	596120	REC_START	n/a	1	1	SNAIL	FUR	SNAIL	FUR	2	[0, 0, 0]	-999	PAL1	5	R1318N
595.708	2.671	596120	PROBE_START	n/a	1	1	SNAIL	FUR	SNAIL	FUR	2	[0, 0, 0]	-999	PAL1	5	R1318N
598.379	1.359	598791	REC_EVENT	2671	1	1	SNAIL	FUR	SNAIL	FUR	2	[0, 0, 0]	-999	PAL1	5	R1318N
599.738	1.001	600150	PROBE_END	n/a	1	1	SNAIL	n/a	SNAIL	FUR	2	[0, 0, 0]	-999	PAL1	5	R1318N
600.739	0.011	601151	REC_END	n/a	1	1	SNAIL	n/a	SNAIL	FUR	2	[0, 0, 0]	-999	PAL1	5	R1318N
600.75	0.272	601162	ORIENT_START	n/a	-999	-999	n/a	n/a	n/a	n/a	2	[0, 0, 0]	-999	PAL1	5	R1318N
601.022	0.677	601434	ORIENT_END	n/a	-999	-999	n/a	n/a	n/a	n/a	2	[0, 0, 0]	-999	PAL1	5	R1318N
601.699	0.001	602111	REC_START	n/a	2	2	SHELL	BANK	BANK	SHELL	2	[0, 0, 0]	-999	PAL1	5	R1318N
601.7	2.272	602112	PROBE_START	n/a	2	2	SHELL	BANK	BANK	SHELL	2	[0, 0, 0]	-999	PAL1	5	R1318N
603.972	1.75	604384	REC_EVENT	2272	2	2	SHELL	BANK	BANK	SHELL	2	[0, 0, 0]	-999	PAL1	5	R1318N
605.722	1.0	606134	PROBE_END	n/a	2	2	SHELL	n/a	BANK	SHELL	2	[0, 0, 0]	-999	PAL1	5	R1318N
606.722	0.011	607134	REC_END	n/a	2	2	SHELL	n/a	BANK	SHELL	2	[0, 0, 0]	-999	PAL1	5	R1318N
606.733	0.273	607145	ORIENT_START	n/a	-999	-999	n/a	n/a	n/a	n/a	2	[0, 0, 0]	-999	PAL1	5	R1318N
607.006	0.568	607418	ORIENT_END	n/a	-999	-999	n/a	n/a	n/a	n/a	2	[0, 0, 0]	-999	PAL1	5	R1318N
607.574	0.001	607986	REC_START	n/a	5	3	SUN	BLUSH	SUN	BLUSH	2	[0, 0, 0]	-999	PAL1	5	R1318N
607.575	1.705	607987	PROBE_START	n/a	5	3	SUN	BLUSH	SUN	BLUSH	2	[0, 0, 0]	-999	PAL1	5	R1318N
609.28	2.327	609692	REC_EVENT	1705	5	3	SUN	BLUSH	SUN	BLUSH	2	[0, 0, 0]	-999	PAL1	5	R1318N
611.607	0.999	612019	PROBE_END	n/a	5	3	SUN	n/a	SUN	BLUSH	2	[0, 0, 0]	-999	PAL1	5	R1318N
612.606	0.01	613018	REC_END	n/a	5	3	SUN	n/a	SUN	BLUSH	2	[0, 0, 0]	-999	PAL1	5	R1318N
612.616	0.274	613028	ORIENT_START	n/a	-999	-999	n/a	n/a	n/a	n/a	2	[0, 0, 0]	-999	PAL1	5	R1318N
612.89	0.643	613302	ORIENT_END	n/a	-999	-999	n/a	n/a	n/a	n/a	2	[0, 0, 0]	-999	PAL1	5	R1318N
613.533	0.0	613945	REC_START	n/a	6	4	MOOSE	SEED	MOOSE	SEED	2	[0, 0, 0]	-999	PAL1	5	R1318N
613.533	1.713	613945	PROBE_START	n/a	6	4	MOOSE	SEED	MOOSE	SEED	2	[0, 0, 0]	-999	PAL1	5	R1318N
615.246	1.487	615658	REC_EVENT	1713	6	4	MOOSE	SEED	MOOSE	SEED	2	[0, 0, 0]	-999	PAL1	5	R1318N
616.733	0.825	617145	REC_EVENT	3200	6	4	MOOSE	<>	MOOSE	SEED	2	[0, 0, 0]	-999	PAL1	5	R1318N
617.558	1.0	617970	PROBE_END	n/a	6	4	MOOSE	n/a	MOOSE	SEED	2	[0, 0, 0]	-999	PAL1	5	R1318N
618.558	0.012	618970	REC_END	n/a	6	4	MOOSE	n/a	MOOSE	SEED	2	[0, 0, 0]	-999	PAL1	5	R1318N
618.57	0.271	618982	ORIENT_START	n/a	-999	-999	n/a	n/a	n/a	n/a	2	[0, 0, 0]	-999	PAL1	5	R1318N
618.841	0.595	619253	ORIENT_END	n/a	-999	-999	n/a	n/a	n/a	n/a	2	[0, 0, 0]	-999	PAL1	5	R1318N
619.436	0.0	619848	REC_START	n/a	3	5	PLANE	KEY	KEY	PLANE	2	[0, 0, 0]	-999	PAL1	5	R1318N
619.436	1.903	619848	PROBE_START	n/a	3	5	PLANE	KEY	KEY	PLANE	2	[0, 0, 0]	-999	PAL1	5	R1318N
621.339	2.12	621751	REC_EVENT	1903	3	5	PLANE	KEY	KEY	PLANE	2	[0, 0, 0]	-999	PAL1	5	R1318N
623.459	1.0	623870	PROBE_END	n/a	3	5	PLANE	n/a	KEY	PLANE	2	[0, 0, 0]	-999	PAL1	5	R1318N
624.459	0.012	624870	REC_END	n/a	3	5	PLANE	n/a	KEY	PLANE	2	[0, 0, 0]	-999	PAL1	5	R1318N
624.471	0.271	624882	ORIENT_START	n/a	-999	-999	n/a	n/a	n/a	n/a	2	[0, 0, 0]	-999	PAL1	5	R1318N
624.742	0.715	625153	ORIENT_END	n/a	-999	-999	n/a	n/a	n/a	n/a	2	[0, 0, 0]	-999	PAL1	5	R1318N
625.457	0.0	625868	REC_START	n/a	4	6	BARN	n/a	FAN	BARN	2	[0, 0, 0]	-999	PAL1	5	R1318N
625.457	4.036	625868	PROBE_START	n/a	4	6	BARN	n/a	FAN	BARN	2	[0, 0, 0]	-999	PAL1	5	R1318N
629.493	1.0	629904	PROBE_END	n/a	4	6	BARN	n/a	FAN	BARN	2	[0, 0, 0]	-999	PAL1	5	R1318N
630.493	0.011	630904	REC_END	n/a	4	6	BARN	n/a	FAN	BARN	2	[0, 0, 0]	-999	PAL1	5	R1318N
630.504	0.001	630915	RETRIEVAL_END	n/a	-999	-999	n/a	n/a	n/a	n/a	2	[0, 0, 0]	-999	PAL1	5	R1318N
630.505	0.018	630916	TRIAL_END	n/a	-999	-999	n/a	n/a	n/a	n/a	2	[0, 0, 0]	-999	PAL1	5	R1318N
630.523	0.001	630934	TRIAL_START	n/a	-999	-999	n/a	n/a	n/a	n/a	2	[0, 0, 0]	-999	PAL1	5	R1318N
630.524	0.0	630935	WAITING_START	n/a	-999	-999	n/a	n/a	n/a	n/a	3	[0, 0, 0]	-999	PAL1	5	R1318N
630.524	0.912	630935	TRIAL	n/a	-999	-999	n/a	n/a	n/a	n/a	3	[0, 0, 0]	-999	PAL1	5	R1318N
631.436	1.141	631847	REC_EVENT	5979	4	6	BARN	<>	FAN	BARN	2	[0, 0, 0]	-999	PAL1	5	R1318N
632.577	0.0	632988	WAITING_END	n/a	-999	-999	n/a	n/a	n/a	n/a	3	[0, 0, 0]	-999	PAL1	5	R1318N
632.577	10.43	632988	COUNTDOWN_START	n/a	-999	-999	n/a	n/a	n/a	n/a	3	[0, 0, 0]	-999	PAL1	5	R1318N
643.007	0.001	643418	COUNTDOWN_END	n/a	-999	-999	n/a	n/a	n/a	n/a	3	[0, 0, 0]	-999	PAL1	5	R1318N
643.008	0.704	643419	ORIENT_START	n/a	-999	-999	n/a	n/a	n/a	n/a	3	[0, 0, 0]	-999	PAL1	5	R1318N
643.712	0.001	644123	ORIENT_END	n/a	-999	-999	n/a	n/a	n/a	n/a	3	[0, 0, 0]	-999	PAL1	5	R1318N
643.713	1.124	644124	ENCODING_START	n/a	-999	-999	n/a	n/a	n/a	n/a	3	[0, 0, 0]	-999	PAL1	5	R1318N
644.837	4.026	645248	STUDY_PAIR	n/a	1	-999	n/a	BRICK	SHEEP	BRICK	3	[0, 0, 0]	-999	PAL1	5	R1318N
648.863	0.639	649274	STUDY_PAIR_OFF	n/a	1	-999	n/a	BRICK	SHEEP	BRICK	3	[0, 0, 0]	-999	PAL1	5	R1318N
649.502	4.028	649913	STUDY_PAIR	n/a	2	-999	n/a	LEAF	LEAF	WOLF	3	[0, 0, 0]	-999	PAL1	5	R1318N
653.53	0.605	653941	STUDY_PAIR_OFF	n/a	2	-999	n/a	LEAF	LEAF	WOLF	3	[0, 0, 0]	-999	PAL1	5	R1318N
654.135	4.029	654546	STUDY_PAIR	n/a	3	-999	n/a	BLAND	HOSE	LAND	3	[0, 0, 0]	-999	PAL1	5	R1318N
658.164	0.557	658574	STUDY_PAIR_OFF	n/a	3	-999	n/a	BLAND	HOSE	LAND	3	[0, 0, 0]	-999	PAL1	5	R1318N
658.721	4.028	659131	STUDY_PAIR	n/a	4	-999	n/a	KICK	CAKE	SHIP	3	[0, 0, 0]	-999	PAL1	5	R1318N
662.749	0.531	663159	STUDY_PAIR_OFF	n/a	4	-999	n/a	KICK	CAKE	SHIP	3	[0, 0, 0]	-999	PAL1	5	R1318N
663.28	4.036	663690	STUDY_PAIR	n/a	5	-999	n/a	WHEEL	SWAMP	WHEEL	3	[0, 0, 0]	-999	PAL1	5	R1318N
667.316	0.646	667726	STUDY_PAIR_OFF	n/a	5	-999	n/a	WHEEL	SWAMP	WHEEL	3	[0, 0, 0]	-999	PAL1	5	R1318N
667.962	4.038	668372	STUDY_PAIR	n/a	6	-999	n/a	BRAT	GOAT	DART	3	[0, 0, 0]	-999	PAL1	5	R1318N
672.0	0.0	672410	STUDY_PAIR_OFF	n/a	6	-999	n/a	BRAT	GOAT	DART	3	[0, 0, 0]	-999	PAL1	5	R1318N
672.0	0.001	672410	ENCODING_END	n/a	-999	-999	n/a	n/a	n/a	n/a	3	[0, 0, 0]	-999	PAL1	5	R1318N
672.001	0.0	672411	MATH_START	n/a	-999	-999	n/a	n/a	n/a	n/a	3	[0, 0, 0]	-999	PAL1	5	R1318N
672.001	0.015	672411	START	n/a	-999	-999	n/a	n/a	n/a	n/a	3	[-999, -999, -999]	-999	PAL1	5	R1318N
672.016	2.951	672426	PROB	2926	-999	-999	n/a	n/a	n/a	n/a	3	[9, 7, 3]	19	PAL1	5	R1318N
674.967	6.068	675377	PROB	6039	-999	-999	n/a	n/a	n/a	n/a	3	[9, 7, 6]	22	PAL1	5	R1318N
681.035	3.9	681445	PROB	3876	-999	-999	n/a	n/a	n/a	n/a	3	[8, 4, 4]	16	PAL1	5	R1318N
684.935	3.101	685345	PROB	3063	-999	-999	n/a	n/a	n/a	n/a	3	[2, 4, 8]	14	PAL1	5	R1318N
688.036	3.534	688446	PROB	3499	-999	-999	n/a	n/a	n/a	n/a	3	[6, 5, 9]	20	PAL1	5	R1318N
691.57	7.005	691979	PROB	7005	-999	-999	n/a	n/a	n/a	n/a	3	[5, 3, 3]	12	PAL1	5	R1318N
698.575	0.013	698984	STOP	n/a	-999	-999	n/a	n/a	n/a	n/a	3	[-999, -999, -999]	-999	PAL1	5	R1318N
698.588	0.558	698997	MATH_END	n/a	-999	-999	n/a	n/a	n/a	n/a	3	[0, 0, 0]	-999	PAL1	5	R1318N
699.146	0.001	699555	RETRIEVAL_START	n/a	-999	-999	n/a	n/a	n/a	n/a	3	[0, 0, 0]	-999	PAL1	5	R1318N
699.147	0.274	699556	ORIENT_START	n/a	-999	-999	n/a	n/a	n/a	n/a	3	[0, 0, 0]	-999	PAL1	5	R1318N
699.421	0.547	699830	ORIENT_END	n/a	-999	-999	n/a	n/a	n/a	n/a	3	[0, 0, 0]	-999	PAL1	5	R1318N
699.968	0.0	700377	REC_START	n/a	5	1	SWAMP	WHEEL	SWAMP	WHEEL	3	[0, 0, 0]	-999	PAL1	5	R1318N
699.968	1.812	700377	PROBE_START	n/a	5	1	SWAMP	WHEEL	SWAMP	WHEEL	3	[0, 0, 0]	-999	PAL1	5	R1318N
701.78	2.225	702189	REC_EVENT	1812	5	1	SWAMP	WHEEL	SWAMP	WHEEL	3	[0, 0, 0]	-999	PAL1	5	R1318N
704.005	1.0	704414	PROBE_END	n/a	5	1	SWAMP	n/a	SWAMP	WHEEL	3	[0, 0, 0]	-999	PAL1	5	R1318N
705.005	0.01	705414	REC_END	n/a	5	1	SWAMP	n/a	SWAMP	WHEEL	3	[0, 0, 0]	-999	PAL1	5	R1318N
705.015	0.274	705424	ORIENT_START	n/a	-999	-999	n/a	n/a	n/a	n/a	3	[0, 0, 0]	-999	PAL1	5	R1318N
705.289	0.658	705698	ORIENT_END	n/a	-999	-999	n/a	n/a	n/a	n/a	3	[0, 0, 0]	-999	PAL1	5	R1318N
705.947	0.0	706356	REC_START	n/a	6	2	DART	BRAT	GOAT	DART	3	[0, 0, 0]	-999	PAL1	5	R1318N
705.947	3.74	706356	PROBE_START	n/a	6	2	DART	BRAT	GOAT	DART	3	[0, 0, 0]	-999	PAL1	5	R1318N
709.687	0.286	710096	REC_EVENT	3740	6	2	DART	BRAT	GOAT	DART	3	[0, 0, 0]	-999	PAL1	5	R1318N
709.973	1.0	710382	PROBE_END	n/a	6	2	DART	n/a	GOAT	DART	3	[0, 0, 0]	-999	PAL1	5	R1318N
710.973	0.012	711382	REC_END	n/a	6	2	DART	n/a	GOAT	DART	3	[0, 0, 0]	-999	PAL1	5	R1318N
710.985	0.271	711394	ORIENT_START	n/a	-999	-999	n/a	n/a	n/a	n/a	3	[0, 0, 0]	-999	PAL1	5	R1318N
711.256	0.506	711665	ORIENT_END	n/a	-999	-999	n/a	n/a	n/a	n/a	3	[0, 0, 0]	-999	PAL1	5	R1318N
711.762	0.001	712171	REC_START	n/a	3	3	HOSE	BLAND	HOSE	LAND	3	[0, 0, 0]	-999	PAL1	5	R1318N
711.763	2.066	712172	PROBE_START	n/a	3	3	HOSE	BLAND	HOSE	LAND	3	[0, 0, 0]	-999	PAL1	5	R1318N
713.829	1.962	714238	REC_EVENT	2066	3	3	HOSE	BLAND	HOSE	LAND	3	[0, 0, 0]	-999	PAL1	5	R1318N
715.791	1.0	716200	PROBE_END	n/a	3	3	HOSE	n/a	HOSE	LAND	3	[0, 0, 0]	-999	PAL1	5	R1318N
716.791	0.01	717200	REC_END	n/a	3	3	HOSE	n/a	HOSE	LAND	3	[0, 0, 0]	-999	PAL1	5	R1318N
716.801	0.273	717210	ORIENT_START	n/a	-999	-999	n/a	n/a	n/a	n/a	3	[0, 0, 0]	-999	PAL1	5	R1318N
717.074	0.525	717483	ORIENT_END	n/a	-999	-999	n/a	n/a	n/a	n/a	3	[0, 0, 0]	-999	PAL1	5	R1318N
717.599	0.001	718008	REC_START	n/a	2	4	WOLF	LEAF	LEAF	WOLF	3	[0, 0, 0]	-999	PAL1	5	R1318N
717.6	1.927	718009	PROBE_START	n/a	2	4	WOLF	LEAF	LEAF	WOLF	3	[0, 0, 0]	-999	PAL1	5	R1318N
719.527	2.098	719936	REC_EVENT	1927	2	4	WOLF	LEAF	LEAF	WOLF	3	[0, 0, 0]	-999	PAL1	5	R1318N
721.625	1.001	722034	PROBE_END	n/a	2	4	WOLF	n/a	LEAF	WOLF	3	[0, 0, 0]	-999	PAL1	5	R1318N
722.626	0.011	723035	REC_END	n/a	2	4	WOLF	n/a	LEAF	WOLF	3	[0, 0, 0]	-999	PAL1	5	R1318N
722.637	0.271	723046	ORIENT_START	n/a	-999	-999	n/a	n/a	n/a	n/a	3	[0, 0, 0]	-999	PAL1	5	R1318N
722.908	0.563	723317	ORIENT_END	n/a	-999	-999	n/a	n/a	n/a	n/a	3	[0, 0, 0]	-999	PAL1	5	R1318N
723.471	0.0	723879	REC_START	n/a	1	5	SHEEP	BRICK	SHEEP	BRICK	3	[0, 0, 0]	-999	PAL1	5	R1318N
723.471	2.94	723879	PROBE_START	n/a	1	5	SHEEP	BRICK	SHEEP	BRICK	3	[0, 0, 0]	-999	PAL1	5	R1318N
726.411	1.098	726819	REC_EVENT	2940	1	5	SHEEP	BRICK	SHEEP	BRICK	3	[0, 0, 0]	-999	PAL1	5	R1318N
727.509	1.0	727917	PROBE_END	n/a	1	5	SHEEP	n/a	SHEEP	BRICK	3	[0, 0, 0]	-999	PAL1	5	R1318N
728.509	0.01	728917	REC_END	n/a	1	5	SHEEP	n/a	SHEEP	BRICK	3	[0, 0, 0]	-999	PAL1	5	R1318N
728.519	0.274	728927	ORIENT_START	n/a	-999	-999	n/a	n/a	n/a	n/a	3	[0, 0, 0]	-999	PAL1	5	R1318N
728.793	0.738	729201	ORIENT_END	n/a	-999	-999	n/a	n/a	n/a	n/a	3	[0, 0, 0]	-999	PAL1	5	R1318N
729.531	0.001	729939	REC_START	n/a	4	6	SHIP	KICK	CAKE	SHIP	3	[0, 0, 0]	-999	PAL1	5	R1318N
729.532	3.015	729940	PROBE_START	n/a	4	6	SHIP	KICK	CAKE	SHIP	3	[0, 0, 0]	-999	PAL1	5	R1318N
732.547	1.013	732955	REC_EVENT	3015	4	6	SHIP	KICK	CAKE	SHIP	3	[0, 0, 0]	-999	PAL1	5	R1318N
733.56	1.0	733968	PROBE_END	n/a	4	6	SHIP	n/a	CAKE	SHIP	3	[0, 0, 0]	-999	PAL1	5	R1318N
734.56	0.005	734968	REC_END	n/a	4	6	SHIP	n/a	CAKE	SHIP	3	[0, 0, 0]	-999	PAL1	5	R1318N
734.565	0.0	734973	RETRIEVAL_END	n/a	-999	-999	n/a	n/a	n/a	n/a	3	[0, 0, 0]	-999	PAL1	5	R1318N
734.565	0.019	734973	TRIAL_END	n/a	-999	-999	n/a	n/a	n/a	n/a	3	[0, 0, 0]	-999	PAL1	5	R1318N
734.584	0.0	734992	TRIAL_START	n/a	-999	-999	n/a	n/a	n/a	n/a	3	[0, 0, 0]	-999	PAL1	5	R1318N
734.584	0.001	734992	TRIAL	n/a	-999	-999	n/a	n/a	n/a	n/a	4	[0, 0, 0]	-999	PAL1	5	R1318N
734.585	1.292	734993	WAITING_START	n/a	-999	-999	n/a	n/a	n/a	n/a	4	[0, 0, 0]	-999	PAL1	5	R1318N
735.877	0.001	736285	WAITING_END	n/a	-999	-999	n/a	n/a	n/a	n/a	4	[0, 0, 0]	-999	PAL1	5	R1318N
735.878	10.429	736286	COUNTDOWN_START	n/a	-999	-999	n/a	n/a	n/a	n/a	4	[0, 0, 0]	-999	PAL1	5	R1318N
746.307	0.0	746715	COUNTDOWN_END	n/a	-999	-999	n/a	n/a	n/a	n/a	4	[0, 0, 0]	-999	PAL1	5	R1318N
746.307	0.589	746715	ORIENT_START	n/a	-999	-999	n/a	n/a	n/a	n/a	4	[0, 0, 0]	-999	PAL1	5	R1318N
746.896	0.0	747304	ORIENT_END	n/a	-999	-999	n/a	n/a	n/a	n/a	4	[0, 0, 0]	-999	PAL1	5	R1318N
746.896	1.219	747304	ENCODING_START	n/a	-999	-999	n/a	n/a	n/a	n/a	4	[0, 0, 0]	-999	PAL1	5	R1318N
748.115	4.032	748523	STUDY_PAIR	n/a	1	-999	n/a	GRAPE	GRAPE	BALL	4	[0, 0, 0]	-999	PAL1	5	R1318N
752.147	0.723	752555	STUDY_PAIR_OFF	n/a	1	-999	n/a	GRAPE	GRAPE	BALL	4	[0, 0, 0]	-999	PAL1	5	R1318N
752.87	4.027	753278	STUDY_PAIR	n/a	2	-999	n/a	BARK	GEESE	PARK	4	[0, 0, 0]	-999	PAL1	5	R1318N
756.897	0.609	757305	STUDY_PAIR_OFF	n/a	2	-999	n/a	BARK	GEESE	PARK	4	[0, 0, 0]	-999	PAL1	5	R1318N
757.506	4.025	757913	STUDY_PAIR	n/a	3	-999	n/a	LAMB	LAMB	DOG	4	[0, 0, 0]	-999	PAL1	5	R1318N
761.531	0.551	761938	STUDY_PAIR_OFF	n/a	3	-999	n/a	LAMB	LAMB	DOG	4	[0, 0, 0]	-999	PAL1	5	R1318N
762.082	4.034	762489	STUDY_PAIR	n/a	4	-999	n/a	HOOF	ROOF	HOOF	4	[0, 0, 0]	-999	PAL1	5	R1318N
766.116	0.727	766523	STUDY_PAIR_OFF	n/a	4	-999	n/a	HOOF	ROOF	HOOF	4	[0, 0, 0]	-999	PAL1	5	R1318N
766.843	4.04	767250	STUDY_PAIR	n/a	5	-999	n/a	WOOD	SHRIMP	WOOD	4	[0, 0, 0]	-999	PAL1	5	R1318N
770.883	0.52	771290	STUDY_PAIR_OFF	n/a	5	-999	n/a	WOOD	SHRIMP	WOOD	4	[0, 0, 0]	-999	PAL1	5	R1318N
771.403	4.031	771810	STUDY_PAIR	n/a	6	-999	n/a	MAT	MAZE	JAR	4	[0, 0, 0]	-999	PAL1	5	R1318N
775.434	0.0	775841	STUDY_PAIR_OFF	n/a	6	-999	n/a	MAT	MAZE	JAR	4	[0, 0, 0]	-999	PAL1	5	R1318N
775.434	0.001	775841	ENCODING_END	n/a	-999	-999	n/a	n/a	n/a	n/a	4	[0, 0, 0]	-999	PAL1	5	R1318N
775.435	0.0	775842	MATH_START	n/a	-999	-999	n/a	n/a	n/a	n/a	4	[0, 0, 0]	-999	PAL1	5	R1318N
775.435	0.015	775842	START	n/a	-999	-999	n/a	n/a	n/a	n/a	4	[-999, -999, -999]	-999	PAL1	5	R1318N
775.45	2.867	775857	PROB	2836	-999	-999	n/a	n/a	n/a	n/a	4	[2, 1, 6]	9	PAL1	5	R1318N
778.317	2.567	778724	PROB	2529	-999	-999	n/a	n/a	n/a	n/a	4	[2, 1, 6]	9	PAL1	5	R1318N
780.884	2.751	781291	PROB	2714	-999	-999	n/a	n/a	n/a	n/a	4	[6, 3, 4]	13	PAL1	5	R1318N
783.635	3.267	784042	PROB	3244	-999	-999	n/a	n/a	n/a	n/a	4	[6, 9, 6]	21	PAL1	5	R1318N
786.902	2.884	787309	PROB	2856	-999	-999	n/a	n/a	n/a	n/a	4	[6, 3, 9]	18	PAL1	5	R1318N
789.786	3.184	790193	PROB	3156	-999	-999	n/a	n/a	n/a	n/a	4	[4, 8, 6]	18	PAL1	5	R1318N
792.97	3.636	793376	PROB	3636	-999	-999	n/a	n/a	n/a	n/a	4	[9, 8, 7]	24	PAL1	5	R1318N
796.606	0.016	797012	STOP	n/a	-999	-999	n/a	n/a	n/a	n/a	4	[-999, -999, -999]	-999	PAL1	5	R1318N
796.622	0.672	797028	MATH_END	n/a	-999	-999	n/a	n/a	n/a	n/a	4	[0, 0, 0]	-999	PAL1	5	R1318N
797.294	0.001	797700	RETRIEVAL_START	n/a	-999	-999	n/a	n/a	n/a	n/a	4	[0, 0, 0]	-999	PAL1	5	R1318N
797.295	0.276	797701	ORIENT_START	n/a	-999	-999	n/a	n/a	n/a	n/a	4	[0, 0, 0]	-999	PAL1	5	R1318N
797.571	0.65	797977	ORIENT_END	n/a	-999	-999	n/a	n/a	n/a	n/a	4	[0, 0, 0]	-999	PAL1	5	R1318N
798.221	0.0	798627	REC_START	n/a	3	1	DOG	LAMB	LAMB	DOG	4	[0, 0, 0]	-999	PAL1	5	R1318N
798.221	2.06	798627	PROBE_START	n/a	3	1	DOG	LAMB	LAMB	DOG	4	[0, 0, 0]	-999	PAL1	5	R1318N
800.281	1.974	800687	REC_EVENT	2060	3	1	DOG	LAMB	LAMB	DOG	4	[0, 0, 0]	-999	PAL1	5	R1318N
802.255	1.001	802661	PROBE_END	n/a	3	1	DOG	n/a	LAMB	DOG	4	[0, 0, 0]	-999	PAL1	5	R1318N
803.256	0.012	803662	REC_END	n/a	3	1	DOG	n/a	LAMB	DOG	4	[0, 0, 0]	-999	PAL1	5	R1318N
803.268	0.27	803674	ORIENT_START	n/a	-999	-999	n/a	n/a	n/a	n/a	4	[0, 0, 0]	-999	PAL1	5	R1318N
803.538	0.573	803944	ORIENT_END	n/a	-999	-999	n/a	n/a	n/a	n/a	4	[0, 0, 0]	-999	PAL1	5	R1318N
804.111	0.0	804517	REC_START	n/a	6	2	JAR	MAT	MAZE	JAR	4	[0, 0, 0]	-999	PAL1	5	R1318N
804.111	1.685	804517	PROBE_START	n/a	6	2	JAR	MAT	MAZE	JAR	4	[0, 0, 0]	-999	PAL1	5	R1318N
805.796	2.343	806202	REC_EVENT	1685	6	2	JAR	MAT	MAZE	JAR	4	[0, 0, 0]	-999	PAL1	5	R1318N
808.139	1.0	808545	PROBE_END	n/a	6	2	JAR	n/a	MAZE	JAR	4	[0, 0, 0]	-999	PAL1	5	R1318N
809.139	0.01	809545	REC_END	n/a	6	2	JAR	n/a	MAZE	JAR	4	[0, 0, 0]	-999	PAL1	5	R1318N
809.149	0.274	809555	ORIENT_START	n/a	-999	-999	n/a	n/a	n/a	n/a	4	[0, 0, 0]	-999	PAL1	5	R1318N
809.423	0.52	809829	ORIENT_END	n/a	-999	-999	n/a	n/a	n/a	n/a	4	[0, 0, 0]	-999	PAL1	5	R1318N
809.943	0.0	810349	REC_START	n/a	5	3	SHRIMP	WOOD	SHRIMP	WOOD	4	[0, 0, 0]	-999	PAL1	5	R1318N
809.943	2.159	810349	PROBE_START	n/a	5	3	SHRIMP	WOOD	SHRIMP	WOOD	4	[0, 0, 0]	-999	PAL1	5	R1318N
812.102	1.871	812508	REC_EVENT	2159	5	3	SHRIMP	WOOD	SHRIMP	WOOD	4	[0, 0, 0]	-999	PAL1	5	R1318N
813.973	1.0	814379	PROBE_END	n/a	5	3	SHRIMP	n/a	SHRIMP	WOOD	4	[0, 0, 0]	-999	PAL1	5	R1318N
814.973	0.01	815379	REC_END	n/a	5	3	SHRIMP	n/a	SHRIMP	WOOD	4	[0, 0, 0]	-999	PAL1	5	R1318N
814.983	0.274	815389	ORIENT_START	n/a	-999	-999	n/a	n/a	n/a	n/a	4	[0, 0, 0]	-999	PAL1	5	R1318N
815.257	0.719	815663	ORIENT_END	n/a	-999	-999	n/a	n/a	n/a	n/a	4	[0, 0, 0]	-999	PAL1	5	R1318N
815.976	0.001	816382	REC_START	n/a	4	4	ROOF	HOOF	ROOF	HOOF	4	[0, 0, 0]	-999	PAL1	5	R1318N
815.977	2.294	816383	PROBE_START	n/a	4	4	ROOF	HOOF	ROOF	HOOF	4	[0, 0, 0]	-999	PAL1	5	R1318N
818.271	1.737	818677	REC_EVENT	2294	4	4	ROOF	HOOF	ROOF	HOOF	4	[0, 0, 0]	-999	PAL1	5	R1318N
820.008	1.001	820414	PROBE_END	n/a	4	4	ROOF	n/a	ROOF	HOOF	4	[0, 0, 0]	-999	PAL1	5	R1318N
821.009	0.011	821415	REC_END	n/a	4	4	ROOF	n/a	ROOF	HOOF	4	[0, 0, 0]	-999	PAL1	5	R1318N
821.02	0.271	821426	ORIENT_START	n/a	-999	-999	n/a	n/a	n/a	n/a	4	[0, 0, 0]	-999	PAL1	5	R1318N
821.291	0.64	821697	ORIENT_END	n/a	-999	-999	n/a	n/a	n/a	n/a	4	[0, 0, 0]	-999	PAL1	5	R1318N
821.931	0.0	822337	REC_START	n/a	1	5	BALL	GRAPE	GRAPE	BALL	4	[0, 0, 0]	-999	PAL1	5	R1318N
821.931	3.728	822337	PROBE_START	n/a	1	5	BALL	GRAPE	GRAPE	BALL	4	[0, 0, 0]	-999	PAL1	5	R1318N
825.659	0.3	826064	REC_EVENT	3728	1	5	BALL	GRAPE	GRAPE	BALL	4	[0, 0, 0]	-999	PAL1	5	R1318N
825.959	1.0	826364	PROBE_END	n/a	1	5	BALL	n/a	GRAPE	BALL	4	[0, 0, 0]	-999	PAL1	5	R1318N
826.959	0.013	827364	REC_END	n/a	1	5	BALL	n/a	GRAPE	BALL	4	[0, 0, 0]	-999	PAL1	5	R1318N
826.972	0.27	827377	ORIENT_START	n/a	-999	-999	n/a	n/a	n/a	n/a	4	[0, 0, 0]	-999	PAL1	5	R1318N
827.242	0.697	827647	ORIENT_END	n/a	-999	-999	n/a	n/a	n/a	n/a	4	[0, 0, 0]	-999	PAL1	5	R1318N
827.939	0.0	828344	REC_START	n/a	2	6	GEESE	BARK	GEESE	PARK	4	[0, 0, 0]	-999	PAL1	5	R1318N
827.939	1.914	828344	PROBE_START	n/a	2	6	GEESE	BARK	GEESE	PARK	4	[0, 0, 0]	-999	PAL1	5	R1318N
829.853	2.123	830258	REC_EVENT	1914	2	6	GEESE	BARK	GEESE	PARK	4	[0, 0, 0]	-999	PAL1	5	R1318N
831.976	1.0	832381	PROBE_END	n/a	2	6	GEESE	n/a	GEESE	PARK	4	[0, 0, 0]	-999	PAL1	5	R1318N
832.976	0.011	833381	REC_END	n/a	2	6	GEESE	n/a	GEESE	PARK	4	[0, 0, 0]	-999	PAL1	5	R1318N
832.987	0.001	833392	RETRIEVAL_END	n/a	-999	-999	n/a	n/a	n/a	n/a	4	[0, 0, 0]	-999	PAL1	5	R1318N
832.988	0.02	833393	TRIAL_END	n/a	-999	-999	n/a	n/a	n/a	n/a	4	[0, 0, 0]	-999	PAL1	5	R1318N
833.008	0.0	833413	TRIAL_START	n/a	-999	-999	n/a	n/a	n/a	n/a	4	[0, 0, 0]	-999	PAL1	5	R1318N
833.008	0.0	833413	TRIAL	n/a	-999	-999	n/a	n/a	n/a	n/a	5	[0, 0, 0]	-999	PAL1	5	R1318N
833.008	1.135	833413	WAITING_START	n/a	-999	-999	n/a	n/a	n/a	n/a	5	[0, 0, 0]	-999	PAL1	5	R1318N
834.143	0.001	834548	WAITING_END	n/a	-999	-999	n/a	n/a	n/a	n/a	5	[0, 0, 0]	-999	PAL1	5	R1318N
834.144	10.429	834549	COUNTDOWN_START	n/a	-999	-999	n/a	n/a	n/a	n/a	5	[0, 0, 0]	-999	PAL1	5	R1318N
844.573	0.001	844978	COUNTDOWN_END	n/a	-999	-999	n/a	n/a	n/a	n/a	5	[0, 0, 0]	-999	PAL1	5	R1318N
844.574	0.588	844979	ORIENT_START	n/a	-999	-999	n/a	n/a	n/a	n/a	5	[0, 0, 0]	-999	PAL1	5	R1318N
845.162	0.001	845567	ORIENT_END	n/a	-999	-999	n/a	n/a	n/a	n/a	5	[0, 0, 0]	-999	PAL1	5	R1318N
845.163	1.04	845568	ENCODING_START	n/a	-999	-999	n/a	n/a	n/a	n/a	5	[0, 0, 0]	-999	PAL1	5	R1318N
846.203	4.026	846608	STUDY_PAIR	n/a	1	-999	n/a	WAR	JET	OAR	5	[0, 0, 0]	-999	PAL1	5	R1318N
850.229	0.633	850634	STUDY_PAIR_OFF	n/a	1	-999	n/a	WAR	JET	OAR	5	[0, 0, 0]	-999	PAL1	5	R1318N
850.862	4.035	851267	STUDY_PAIR	n/a	2	-999	n/a	HOLE	HOLE	SOUP	5	[0, 0, 0]	-999	PAL1	5	R1318N
854.897	0.659	855302	STUDY_PAIR_OFF	n/a	2	-999	n/a	HOLE	HOLE	SOUP	5	[0, 0, 0]	-999	PAL1	5	R1318N
855.556	4.008	855961	STUDY_PAIR	n/a	3	-999	n/a	n/a	LOCK	SLUSH	5	[0, 0, 0]	-999	PAL1	5	R1318N
859.564	0.702	859968	STUDY_PAIR_OFF	n/a	3	-999	n/a	n/a	LOCK	SLUSH	5	[0, 0, 0]	-999	PAL1	5	R1318N
860.266	4.032	860670	STUDY_PAIR	n/a	4	-999	n/a	MILK	NEST	MILK	5	[0, 0, 0]	-999	PAL1	5	R1318N
864.298	0.501	864702	STUDY_PAIR_OFF	n/a	4	-999	n/a	MILK	NEST	MILK	5	[0, 0, 0]	-999	PAL1	5	R1318N
864.799	4.033	865203	STUDY_PAIR	n/a	5	-999	n/a	MOLE	MOLE	SNAKE	5	[0, 0, 0]	-999	PAL1	5	R1318N
868.832	0.733	869236	STUDY_PAIR_OFF	n/a	5	-999	n/a	MOLE	MOLE	SNAKE	5	[0, 0, 0]	-999	PAL1	5	R1318N
869.565	4.035	869969	STUDY_PAIR	n/a	6	-999	n/a	EAR	EAR	PIG	5	[0, 0, 0]	-999	PAL1	5	R1318N
873.6	0.001	874004	STUDY_PAIR_OFF	n/a	6	-999	n/a	EAR	EAR	PIG	5	[0, 0, 0]	-999	PAL1	5	R1318N
873.601	0.0	874005	ENCODING_END	n/a	-999	-999	n/a	n/a	n/a	n/a	5	[0, 0, 0]	-999	PAL1	5	R1318N
873.601	0.0	874005	MATH_START	n/a	-999	-999	n/a	n/a	n/a	n/a	5	[0, 0, 0]	-999	PAL1	5	R1318N
873.601	0.015	874005	START	n/a	-999	-999	n/a	n/a	n/a	n/a	5	[-999, -999, -999]	-999	PAL1	5	R1318N
873.616	2.968	874020	PROB	2942	-999	-999	n/a	n/a	n/a	n/a	5	[5, 3, 1]	9	PAL1	5	R1318N
876.584	1.983	876988	PROB	1958	-999	-999	n/a	n/a	n/a	n/a	5	[4, 1, 1]	6	PAL1	5	R1318N
878.567	4.201	878971	PROB	4167	-999	-999	n/a	n/a	n/a	n/a	5	[5, 7, 1]	13	PAL1	5	R1318N
882.768	2.917	883172	PROB	2894	-999	-999	n/a	n/a	n/a	n/a	5	[7, 2, 8]	17	PAL1	5	R1318N
885.685	2.683	886089	PROB	2648	-999	-999	n/a	n/a	n/a	n/a	5	[8, 2, 5]	15	PAL1	5	R1318N
888.368	2.451	888772	PROB	2415	-999	-999	n/a	n/a	n/a	n/a	5	[8, 5, 2]	15	PAL1	5	R1318N
890.819	2.566	891223	PROB	2538	-999	-999	n/a	n/a	n/a	n/a	5	[9, 8, 1]	18	PAL1	5	R1318N
893.385	3.861	893788	PROB	3861	-999	-999	n/a	n/a	n/a	n/a	5	[4, 6, 9]	19	PAL1	5	R1318N
897.246	0.008	897649	STOP	n/a	-999	-999	n/a	n/a	n/a	n/a	5	[-999, -999, -999]	-999	PAL1	5	R1318N
897.254	0.535	897657	MATH_END	n/a	-999	-999	n/a	n/a	n/a	n/a	5	[0, 0, 0]	-999	PAL1	5	R1318N
897.789	0.002	898192	RETRIEVAL_START	n/a	-999	-999	n/a	n/a	n/a	n/a	5	[0, 0, 0]	-999	PAL1	5	R1318N
897.791	0.28	898194	ORIENT_START	n/a	-999	-999	n/a	n/a	n/a	n/a	5	[0, 0, 0]	-999	PAL1	5	R1318N
898.071	0.622	898474	ORIENT_END	n/a	-999	-999	n/a	n/a	n/a	n/a	5	[0, 0, 0]	-999	PAL1	5	R1318N
898.693	0.0	899096	PROBE_START	n/a	1	1	JET	WAR	JET	OAR	5	[0, 0, 0]	-999	PAL1	5	R1318N
898.693	2.14	899096	REC_START	n/a	1	1	JET	WAR	JET	OAR	5	[0, 0, 0]	-999	PAL1	5	R1318N
900.833	1.888	901236	REC_EVENT	2140	1	1	JET	WAR	JET	OAR	5	[0, 0, 0]	-999	PAL1	5	R1318N
902.721	1.0	903124	PROBE_END	n/a	1	1	JET	n/a	JET	OAR	5	[0, 0, 0]	-999	PAL1	5	R1318N
903.721	0.012	904124	REC_END	n/a	1	1	JET	n/a	JET	OAR	5	[0, 0, 0]	-999	PAL1	5	R1318N
903.733	0.272	904136	ORIENT_START	n/a	-999	-999	n/a	n/a	n/a	n/a	5	[0, 0, 0]	-999	PAL1	5	R1318N
904.005	0.574	904408	ORIENT_END	n/a	-999	-999	n/a	n/a	n/a	n/a	5	[0, 0, 0]	-999	PAL1	5	R1318N
904.579	0.001	904982	REC_START	n/a	2	2	SOUP	HOLE	HOLE	SOUP	5	[0, 0, 0]	-999	PAL1	5	R1318N
904.58	2.5	904983	PROBE_START	n/a	2	2	SOUP	HOLE	HOLE	SOUP	5	[0, 0, 0]	-999	PAL1	5	R1318N
907.08	1.526	907483	REC_EVENT	2500	2	2	SOUP	HOLE	HOLE	SOUP	5	[0, 0, 0]	-999	PAL1	5	R1318N
908.606	0.999	909009	PROBE_END	n/a	2	2	SOUP	n/a	HOLE	SOUP	5	[0, 0, 0]	-999	PAL1	5	R1318N
909.605	0.011	910008	REC_END	n/a	2	2	SOUP	n/a	HOLE	SOUP	5	[0, 0, 0]	-999	PAL1	5	R1318N
909.616	0.273	910019	ORIENT_START	n/a	-999	-999	n/a	n/a	n/a	n/a	5	[0, 0, 0]	-999	PAL1	5	R1318N
909.889	0.697	910292	ORIENT_END	n/a	-999	-999	n/a	n/a	n/a	n/a	5	[0, 0, 0]	-999	PAL1	5	R1318N
910.586	0.0	910989	PROBE_START	n/a	5	3	SNAKE	MOLE	MOLE	SNAKE	5	[0, 0, 0]	-999	PAL1	5	R1318N
910.586	3.148	910989	REC_START	n/a	5	3	SNAKE	MOLE	MOLE	SNAKE	5	[0, 0, 0]	-999	PAL1	5	R1318N
913.734	0.889	914137	REC_EVENT	3148	5	3	SNAKE	MOLE	MOLE	SNAKE	5	[0, 0, 0]	-999	PAL1	5	R1318N
914.623	1.0	915026	PROBE_END	n/a	5	3	SNAKE	n/a	MOLE	SNAKE	5	[0, 0, 0]	-999	PAL1	5	R1318N
915.623	0.012	916026	REC_END	n/a	5	3	SNAKE	n/a	MOLE	SNAKE	5	[0, 0, 0]	-999	PAL1	5	R1318N
915.635	0.272	916038	ORIENT_START	n/a	-999	-999	n/a	n/a	n/a	n/a	5	[0, 0, 0]	-999	PAL1	5	R1318N
915.907	0.573	916310	ORIENT_END	n/a	-999	-999	n/a	n/a	n/a	n/a	5	[0, 0, 0]	-999	PAL1	5	R1318N
916.48	0.0	916883	REC_START	n/a	6	4	PIG	EAR	EAR	PIG	5	[0, 0, 0]	-999	PAL1	5	R1318N
916.48	1.687	916883	PROBE_START	n/a	6	4	PIG	EAR	EAR	PIG	5	[0, 0, 0]	-999	PAL1	5	R1318N
918.167	2.341	918570	REC_EVENT	1687	6	4	PIG	EAR	EAR	PIG	5	[0, 0, 0]	-999	PAL1	5	R1318N
920.508	1.0	920911	PROBE_END	n/a	6	4	PIG	n/a	EAR	PIG	5	[0, 0, 0]	-999	PAL1	5	R1318N
921.508	0.011	921911	REC_END	n/a	6	4	PIG	n/a	EAR	PIG	5	[0, 0, 0]	-999	PAL1	5	R1318N
921.519	0.272	921922	ORIENT_START	n/a	-999	-999	n/a	n/a	n/a	n/a	5	[0, 0, 0]	-999	PAL1	5	R1318N
921.791	0.578	922194	ORIENT_END	n/a	-999	-999	n/a	n/a	n/a	n/a	5	[0, 0, 0]	-999	PAL1	5	R1318N
922.369	0.0	922772	PROBE_START	n/a	3	5	LOCK	n/a	LOCK	SLUSH	5	[0, 0, 0]	-999	PAL1	5	R1318N
922.369	4.005	922772	REC_START	n/a	3	5	LOCK	n/a	LOCK	SLUSH	5	[0, 0, 0]	-999	PAL1	5	R1318N
926.374	1.0	926777	PROBE_END	n/a	3	5	LOCK	n/a	LOCK	SLUSH	5	[0, 0, 0]	-999	PAL1	5	R1318N
927.374	0.011	927776	REC_END	n/a	3	5	LOCK	n/a	LOCK	SLUSH	5	[0, 0, 0]	-999	PAL1	5	R1318N
927.385	0.274	927787	ORIENT_START	n/a	-999	-999	n/a	n/a	n/a	n/a	5	[0, 0, 0]	-999	PAL1	5	R1318N
927.659	0.398	928061	ORIENT_END	n/a	-999	-999	n/a	n/a	n/a	n/a	5	[0, 0, 0]	-999	PAL1	5	R1318N
928.057	0.275	928459	REC_EVENT	5688	3	5	LOCK	<>	LOCK	SLUSH	5	[0, 0, 0]	-999	PAL1	5	R1318N
928.332	0.001	928734	REC_START	n/a	4	6	NEST	MILK	NEST	MILK	5	[0, 0, 0]	-999	PAL1	5	R1318N
928.333	2.68	928735	PROBE_START	n/a	4	6	NEST	MILK	NEST	MILK	5	[0, 0, 0]	-999	PAL1	5	R1318N
931.013	1.346	931415	REC_EVENT	2680	4	6	NEST	MILK	NEST	MILK	5	[0, 0, 0]	-999	PAL1	5	R1318N
932.359	1.0	932761	PROBE_END	n/a	4	6	NEST	n/a	NEST	MILK	5	[0, 0, 0]	-999	PAL1	5	R1318N
933.359	0.01	933761	REC_END	n/a	4	6	NEST	n/a	NEST	MILK	5	[0, 0, 0]	-999	PAL1	5	R1318N
933.369	0.0	933771	TRIAL_END	n/a	-999	-999	n/a	n/a	n/a	n/a	5	[0, 0, 0]	-999	PAL1	5	R1318N
933.369	0.021	933771	RETRIEVAL_END	n/a	-999	-999	n/a	n/a	n/a	n/a	5	[0, 0, 0]	-999	PAL1	5	R1318N
933.39	0.0	933792	WAITING_START	n/a	-999	-999	n/a	n/a	n/a	n/a	6	[0, 0, 0]	-999	PAL1	5	R1318N
933.39	0.0	933792	TRIAL	n/a	-999	-999	n/a	n/a	n/a	n/a	6	[0, 0, 0]	-999	PAL1	5	R1318N
933.39	1.77	933792	TRIAL_START	n/a	-999	-999	n/a	n/a	n/a	n/a	5	[0, 0, 0]	-999	PAL1	5	R1318N
935.16	0.001	935562	WAITING_END	n/a	-999	-999	n/a	n/a	n/a	n/a	6	[0, 0, 0]	-999	PAL1	5	R1318N
935.161	10.429	935563	COUNTDOWN_START	n/a	-999	-999	n/a	n/a	n/a	n/a	6	[0, 0, 0]	-999	PAL1	5	R1318N
945.59	0.001	945992	COUNTDOWN_END	n/a	-999	-999	n/a	n/a	n/a	n/a	6	[0, 0, 0]	-999	PAL1	5	R1318N
945.591	0.671	945993	ORIENT_START	n/a	-999	-999	n/a	n/a	n/a	n/a	6	[0, 0, 0]	-999	PAL1	5	R1318N
946.262	0.001	946664	ORIENT_END	n/a	-999	-999	n/a	n/a	n/a	n/a	6	[0, 0, 0]	-999	PAL1	5	R1318N
946.263	1.239	946665	ENCODING_START	n/a	-999	-999	n/a	n/a	n/a	n/a	6	[0, 0, 0]	-999	PAL1	5	R1318N
947.502	4.027	947904	STUDY_PAIR	n/a	1	-999	n/a	CORD	CORD	ANT	6	[0, 0, 0]	-999	PAL1	5	R1318N
951.529	0.628	951931	STUDY_PAIR_OFF	n/a	1	-999	n/a	CORD	CORD	ANT	6	[0, 0, 0]	-999	PAL1	5	R1318N
952.157	4.04	952559	STUDY_PAIR	n/a	2	-999	n/a	STRING	STRING	CAPE	6	[0, 0, 0]	-999	PAL1	5	R1318N
956.197	0.506	956599	STUDY_PAIR_OFF	n/a	2	-999	n/a	STRING	STRING	CAPE	6	[0, 0, 0]	-999	PAL1	5	R1318N
956.703	4.028	957105	STUDY_PAIR	n/a	3	-999	n/a	RUG	RUG	NAIL	6	[0, 0, 0]	-999	PAL1	5	R1318N
960.731	0.601	961133	STUDY_PAIR_OFF	n/a	3	-999	n/a	RUG	RUG	NAIL	6	[0, 0, 0]	-999	PAL1	5	R1318N
961.332	4.032	961733	STUDY_PAIR	n/a	4	-999	n/a	OAK	HEN	ROCK	6	[0, 0, 0]	-999	PAL1	5	R1318N
965.364	0.744	965765	STUDY_PAIR_OFF	n/a	4	-999	n/a	OAK	HEN	ROCK	6	[0, 0, 0]	-999	PAL1	5	R1318N
966.108	4.024	966509	STUDY_PAIR	n/a	5	-999	n/a	CRANE	COIN	CRANE	6	[0, 0, 0]	-999	PAL1	5	R1318N
970.132	0.681	970533	STUDY_PAIR_OFF	n/a	5	-999	n/a	CRANE	COIN	CRANE	6	[0, 0, 0]	-999	PAL1	5	R1318N
970.813	4.037	971214	STUDY_PAIR	n/a	6	-999	n/a	HOLE	THREAD	WORLD	6	[0, 0, 0]	-999	PAL1	5	R1318N
974.85	0.001	975251	STUDY_PAIR_OFF	n/a	6	-999	n/a	HOLE	THREAD	WORLD	6	[0, 0, 0]	-999	PAL1	5	R1318N
974.851	0.0	975252	ENCODING_END	n/a	-999	-999	n/a	n/a	n/a	n/a	6	[0, 0, 0]	-999	PAL1	5	R1318N
974.851	0.0	975252	MATH_START	n/a	-999	-999	n/a	n/a	n/a	n/a	6	[0, 0, 0]	-999	PAL1	5	R1318N
974.851	0.015	975252	START	n/a	-999	-999	n/a	n/a	n/a	n/a	6	[-999, -999, -999]	-999	PAL1	5	R1318N
974.866	3.651	975267	PROB	3628	-999	-999	n/a	n/a	n/a	n/a	6	[9, 6, 2]	17	PAL1	5	R1318N
978.517	2.951	978918	PROB	2921	-999	-999	n/a	n/a	n/a	n/a	6	[2, 3, 1]	6	PAL1	5	R1318N
981.468	2.633	981869	PROB	2610	-999	-999	n/a	n/a	n/a	n/a	6	[9, 7, 8]	24	PAL1	5	R1318N
984.101	2.867	984502	PROB	2842	-999	-999	n/a	n/a	n/a	n/a	6	[2, 1, 4]	7	PAL1	5	R1318N
986.968	2.601	987369	PROB	2566	-999	-999	n/a	n/a	n/a	n/a	6	[9, 7, 3]	19	PAL1	5	R1318N
989.569	3.967	989970	PROB	3933	-999	-999	n/a	n/a	n/a	n/a	6	[5, 9, 4]	18	PAL1	5	R1318N
993.536	2.494	993937	PROB	2494	-999	-999	n/a	n/a	n/a	n/a	6	[3, 4, 7]	14	PAL1	5	R1318N
996.03	0.007	996430	STOP	n/a	-999	-999	n/a	n/a	n/a	n/a	6	[-999, -999, -999]	-999	PAL1	5	R1318N
996.037	0.556	996437	MATH_END	n/a	-999	-999	n/a	n/a	n/a	n/a	6	[0, 0, 0]	-999	PAL1	5	R1318N
996.593	0.001	996993	RETRIEVAL_START	n/a	-999	-999	n/a	n/a	n/a	n/a	6	[0, 0, 0]	-999	PAL1	5	R1318N
996.594	0.276	996994	ORIENT_START	n/a	-999	-999	n/a	n/a	n/a	n/a	6	[0, 0, 0]	-999	PAL1	5	R1318N
996.87	0.611	997270	ORIENT_END	n/a	-999	-999	n/a	n/a	n/a	n/a	6	[0, 0, 0]	-999	PAL1	5	R1318N
997.481	0.0	997881	REC_START	n/a	1	1	ANT	CORD	CORD	ANT	6	[0, 0, 0]	-999	PAL1	5	R1318N
997.481	3.055	997881	PROBE_START	n/a	1	1	ANT	CORD	CORD	ANT	6	[0, 0, 0]	-999	PAL1	5	R1318N
1000.536	0.968	1000936	REC_EVENT	3055	1	1	ANT	CORD	CORD	ANT	6	[0, 0, 0]	-999	PAL1	5	R1318N
1001.504	1.0	1001904	PROBE_END	n/a	1	1	ANT	n/a	CORD	ANT	6	[0, 0, 0]	-999	PAL1	5	R1318N
1002.504	0.012	1002904	REC_END	n/a	1	1	ANT	n/a	CORD	ANT	6	[0, 0, 0]	-999	PAL1	5	R1318N
1002.516	0.272	1002916	ORIENT_START	n/a	-999	-999	n/a	n/a	n/a	n/a	6	[0, 0, 0]	-999	PAL1	5	R1318N
1002.788	0.601	1003188	ORIENT_END	n/a	-999	-999	n/a	n/a	n/a	n/a	6	[0, 0, 0]	-999	PAL1	5	R1318N
1003.389	0.001	1003789	REC_START	n/a	4	2	HEN	OAK	HEN	ROCK	6	[0, 0, 0]	-999	PAL1	5	R1318N
1003.39	4.032	1003790	PROBE_START	n/a	4	2	HEN	OAK	HEN	ROCK	6	[0, 0, 0]	-999	PAL1	5	R1318N
1007.422	0.023	1007822	PROBE_END	n/a	4	2	HEN	n/a	HEN	ROCK	6	[0, 0, 0]	-999	PAL1	5	R1318N
1007.445	0.977	1007845	REC_EVENT	4055	4	2	HEN	OAK	HEN	ROCK	6	[0, 0, 0]	-999	PAL1	5	R1318N
1008.422	0.011	1008822	REC_END	n/a	4	2	HEN	n/a	HEN	ROCK	6	[0, 0, 0]	-999	PAL1	5	R1318N
1008.433	0.272	1008833	ORIENT_START	n/a	-999	-999	n/a	n/a	n/a	n/a	6	[0, 0, 0]	-999	PAL1	5	R1318N
1008.705	0.713	1009105	ORIENT_END	n/a	-999	-999	n/a	n/a	n/a	n/a	6	[0, 0, 0]	-999	PAL1	5	R1318N
1009.418	0.0	1009818	REC_START	n/a	3	3	NAIL	RUG	RUG	NAIL	6	[0, 0, 0]	-999	PAL1	5	R1318N
1009.418	1.945	1009818	PROBE_START	n/a	3	3	NAIL	RUG	RUG	NAIL	6	[0, 0, 0]	-999	PAL1	5	R1318N
1011.363	2.077	1011763	REC_EVENT	1945	3	3	NAIL	RUG	RUG	NAIL	6	[0, 0, 0]	-999	PAL1	5	R1318N
1013.44	1.0	1013840	PROBE_END	n/a	3	3	NAIL	n/a	RUG	NAIL	6	[0, 0, 0]	-999	PAL1	5	R1318N
1014.44	0.012	1014840	REC_END	n/a	3	3	NAIL	n/a	RUG	NAIL	6	[0, 0, 0]	-999	PAL1	5	R1318N
1014.452	0.271	1014852	ORIENT_START	n/a	-999	-999	n/a	n/a	n/a	n/a	6	[0, 0, 0]	-999	PAL1	5	R1318N
1014.723	0.657	1015123	ORIENT_END	n/a	-999	-999	n/a	n/a	n/a	n/a	6	[0, 0, 0]	-999	PAL1	5	R1318N
1015.38	0.0	1015780	REC_START	n/a	6	4	THREAD	HOLE	THREAD	WORLD	6	[0, 0, 0]	-999	PAL1	5	R1318N
1015.38	1.899	1015780	PROBE_START	n/a	6	4	THREAD	HOLE	THREAD	WORLD	6	[0, 0, 0]	-999	PAL1	5	R1318N
1017.279	2.127	1017679	REC_EVENT	1899	6	4	THREAD	HOLE	THREAD	WORLD	6	[0, 0, 0]	-999	PAL1	5	R1318N
1019.406	1.001	1019806	PROBE_END	n/a	6	4	THREAD	n/a	THREAD	WORLD	6	[0, 0, 0]	-999	PAL1	5	R1318N
1020.407	0.012	1020807	REC_END	n/a	6	4	THREAD	n/a	THREAD	WORLD	6	[0, 0, 0]	-999	PAL1	5	R1318N
1020.419	0.272	1020819	ORIENT_START	n/a	-999	-999	n/a	n/a	n/a	n/a	6	[0, 0, 0]	-999	PAL1	5	R1318N
1020.691	0.597	1021091	ORIENT_END	n/a	-999	-999	n/a	n/a	n/a	n/a	6	[0, 0, 0]	-999	PAL1	5	R1318N
1021.288	0.0	1021688	REC_START	n/a	5	5	COIN	CRANE	COIN	CRANE	6	[0, 0, 0]	-999	PAL1	5	R1318N
1021.288	1.734	1021688	PROBE_START	n/a	5	5	COIN	CRANE	COIN	CRANE	6	[0, 0, 0]	-999	PAL1	5	R1318N
1023.022	2.303	1023422	REC_EVENT	1734	5	5	COIN	CRANE	COIN	CRANE	6	[0, 0, 0]	-999	PAL1	5	R1318N
1025.325	1.001	1025725	PROBE_END	n/a	5	5	COIN	n/a	COIN	CRANE	6	[0, 0, 0]	-999	PAL1	5	R1318N
1026.326	0.011	1026726	REC_END	n/a	5	5	COIN	n/a	COIN	CRANE	6	[0, 0, 0]	-999	PAL1	5	R1318N
1026.337	0.271	1026737	ORIENT_START	n/a	-999	-999	n/a	n/a	n/a	n/a	6	[0, 0, 0]	-999	PAL1	5	R1318N
1026.608	0.597	1027008	ORIENT_END	n/a	-999	-999	n/a	n/a	n/a	n/a	6	[0, 0, 0]	-999	PAL1	5	R1318N
1027.205	0.0	1027605	REC_START	n/a	2	6	CAPE	STRING	STRING	CAPE	6	[0, 0, 0]	-999	PAL1	5	R1318N
1027.205	1.732	1027605	PROBE_START	n/a	2	6	CAPE	STRING	STRING	CAPE	6	[0, 0, 0]	-999	PAL1	5	R1318N
1028.937	2.287	1029337	REC_EVENT	1732	2	6	CAPE	THREAD	STRING	CAPE	6	[0, 0, 0]	-999	PAL1	5	R1318N
1031.224	0.019	1031623	REC_EVENT	4019	2	6	CAPE	<>	STRING	CAPE	6	[0, 0, 0]	-999	PAL1	5	R1318N
1031.243	0.354	1031642	PROBE_END	n/a	2	6	CAPE	n/a	STRING	CAPE	6	[0, 0, 0]	-999	PAL1	5	R1318N
1031.597	0.645	1031996	REC_EVENT	4392	2	6	CAPE	STRING	STRING	CAPE	6	[0, 0, 0]	-999	PAL1	5	R1318N
1032.242	0.011	1032641	REC_END	n/a	2	6	CAPE	n/a	STRING	CAPE	6	[0, 0, 0]	-999	PAL1	5	R1318N
1032.253	0.001	1032652	RETRIEVAL_END	n/a	-999	-999	n/a	n/a	n/a	n/a	6	[0, 0, 0]	-999	PAL1	5	R1318N
1032.254	0.021	1032653	TRIAL_END	n/a	-999	-999	n/a	n/a	n/a	n/a	6	[0, 0, 0]	-999	PAL1	5	R1318N
1032.275	0.0	1032674	TRIAL	n/a	-999	-999	n/a	n/a	n/a	n/a	7	[0, 0, 0]	-999	PAL1	5	R1318N
1032.275	0.001	1032674	TRIAL_START	n/a	-999	-999	n/a	n/a	n/a	n/a	6	[0, 0, 0]	-999	PAL1	5	R1318N
1032.276	1.967	1032675	WAITING_START	n/a	-999	-999	n/a	n/a	n/a	n/a	7	[0, 0, 0]	-999	PAL1	5	R1318N
1034.243	0.0	1034642	WAITING_END	n/a	-999	-999	n/a	n/a	n/a	n/a	7	[0, 0, 0]	-999	PAL1	5	R1318N
1034.243	10.43	1034642	COUNTDOWN_START	n/a	-999	-999	n/a	n/a	n/a	n/a	7	[0, 0, 0]	-999	PAL1	5	R1318N
1044.673	0.0	1045072	COUNTDOWN_END	n/a	-999	-999	n/a	n/a	n/a	n/a	7	[0, 0, 0]	-999	PAL1	5	R1318N
1044.673	0.755	1045072	ORIENT_START	n/a	-999	-999	n/a	n/a	n/a	n/a	7	[0, 0, 0]	-999	PAL1	5	R1318N
1045.428	0.001	1045827	ORIENT_END	n/a	-999	-999	n/a	n/a	n/a	n/a	7	[0, 0, 0]	-999	PAL1	5	R1318N
1045.429	1.172	1045828	ENCODING_START	n/a	-999	-999	n/a	n/a	n/a	n/a	7	[0, 0, 0]	-999	PAL1	5	R1318N
1046.601	4.028	1047000	STUDY_PAIR	n/a	1	-999	n/a	SOAP	BADGE	SOAP	7	[0, 0, 0]	-999	PAL1	5	R1318N
1050.629	0.692	1051028	STUDY_PAIR_OFF	n/a	1	-999	n/a	SOAP	BADGE	SOAP	7	[0, 0, 0]	-999	PAL1	5	R1318N
1051.321	4.024	1051720	STUDY_PAIR	n/a	2	-999	n/a	BROOM	BROOM	BEAK	7	[0, 0, 0]	-999	PAL1	5	R1318N
1055.345	0.634	1055744	STUDY_PAIR_OFF	n/a	2	-999	n/a	BROOM	BROOM	BEAK	7	[0, 0, 0]	-999	PAL1	5	R1318N
1055.979	4.035	1056378	STUDY_PAIR	n/a	3	-999	n/a	BROOM	CROWN	FOAM	7	[0, 0, 0]	-999	PAL1	5	R1318N
1060.014	0.519	1060413	STUDY_PAIR_OFF	n/a	3	-999	n/a	BROOM	CROWN	FOAM	7	[0, 0, 0]	-999	PAL1	5	R1318N
1060.533	4.032	1060932	STUDY_PAIR	n/a	4	-999	n/a	PURSE	PURSE	STOVE	7	[0, 0, 0]	-999	PAL1	5	R1318N
1064.565	0.566	1064963	STUDY_PAIR_OFF	n/a	4	-999	n/a	PURSE	PURSE	STOVE	7	[0, 0, 0]	-999	PAL1	5	R1318N
1065.131	4.035	1065529	STUDY_PAIR	n/a	5	-999	n/a	HIGH	PIE	VASE	7	[0, 0, 0]	-999	PAL1	5	R1318N
1069.166	0.674	1069564	STUDY_PAIR_OFF	n/a	5	-999	n/a	HIGH	PIE	VASE	7	[0, 0, 0]	-999	PAL1	5	R1318N
1069.84	4.026	1070238	STUDY_PAIR	n/a	6	-999	n/a	CUP	HOUSE	CUP	7	[0, 0, 0]	-999	PAL1	5	R1318N
1073.866	0.001	1074264	STUDY_PAIR_OFF	n/a	6	-999	n/a	CUP	HOUSE	CUP	7	[0, 0, 0]	-999	PAL1	5	R1318N
1073.867	0.0	1074265	ENCODING_END	n/a	-999	-999	n/a	n/a	n/a	n/a	7	[0, 0, 0]	-999	PAL1	5	R1318N
1073.867	0.001	1074265	MATH_START	n/a	-999	-999	n/a	n/a	n/a	n/a	7	[0, 0, 0]	-999	PAL1	5	R1318N
1073.868	0.015	1074266	START	n/a	-999	-999	n/a	n/a	n/a	n/a	7	[-999, -999, -999]	-999	PAL1	5	R1318N
1073.883	2.267	1074281	PROB	2243	-999	-999	n/a	n/a	n/a	n/a	7	[1, 5, 1]	7	PAL1	5	R1318N
1076.15	1.933	1076548	PROB	1896	-999	-999	n/a	n/a	n/a	n/a	7	[7, 1, 3]	11	PAL1	5	R1318N
1078.083	2.418	1078481	PROB	2379	-999	-999	n/a	n/a	n/a	n/a	7	[4, 3, 6]	13	PAL1	5	R1318N
1080.501	3.017	1080899	PROB	2985	-999	-999	n/a	n/a	n/a	n/a	7	[9, 4, 6]	19	PAL1	5	R1318N
1083.518	2.517	1083916	PROB	2480	-999	-999	n/a	n/a	n/a	n/a	7	[5, 4, 5]	14	PAL1	5	R1318N
1086.035	3.299	1086433	PROB	3274	-999	-999	n/a	n/a	n/a	n/a	7	[5, 7, 7]	19	PAL1	5	R1318N
1089.334	2.852	1089732	PROB	2825	-999	-999	n/a	n/a	n/a	n/a	7	[4, 1, 8]	13	PAL1	5	R1318N
1092.186	4.692	1092584	PROB	4692	-999	-999	n/a	n/a	n/a	n/a	7	[3, 5, 9]	17	PAL1	5	R1318N
1096.878	0.009	1097276	STOP	n/a	-999	-999	n/a	n/a	n/a	n/a	7	[-999, -999, -999]	-999	PAL1	5	R1318N
1096.887	0.55	1097285	MATH_END	n/a	-999	-999	n/a	n/a	n/a	n/a	7	[0, 0, 0]	-999	PAL1	5	R1318N
1097.437	0.001	1097834	RETRIEVAL_START	n/a	-999	-999	n/a	n/a	n/a	n/a	7	[0, 0, 0]	-999	PAL1	5	R1318N
1097.438	0.282	1097835	ORIENT_START	n/a	-999	-999	n/a	n/a	n/a	n/a	7	[0, 0, 0]	-999	PAL1	5	R1318N
1097.72	0.551	1098117	ORIENT_END	n/a	-999	-999	n/a	n/a	n/a	n/a	7	[0, 0, 0]	-999	PAL1	5	R1318N
1098.271	0.001	1098668	REC_START	n/a	1	1	BADGE	SOAP	BADGE	SOAP	7	[0, 0, 0]	-999	PAL1	5	R1318N
1098.272	2.337	1098669	PROBE_START	n/a	1	1	BADGE	SOAP	BADGE	SOAP	7	[0, 0, 0]	-999	PAL1	5	R1318N
1100.609	1.695	1101006	REC_EVENT	2337	1	1	BADGE	SOAP	BADGE	SOAP	7	[0, 0, 0]	-999	PAL1	5	R1318N
1102.304	1.0	1102701	PROBE_END	n/a	1	1	BADGE	n/a	BADGE	SOAP	7	[0, 0, 0]	-999	PAL1	5	R1318N
1103.304	0.012	1103701	REC_END	n/a	1	1	BADGE	n/a	BADGE	SOAP	7	[0, 0, 0]	-999	PAL1	5	R1318N
1103.316	0.272	1103713	ORIENT_START	n/a	-999	-999	n/a	n/a	n/a	n/a	7	[0, 0, 0]	-999	PAL1	5	R1318N
1103.588	0.608	1103985	ORIENT_END	n/a	-999	-999	n/a	n/a	n/a	n/a	7	[0, 0, 0]	-999	PAL1	5	R1318N
1104.196	0.0	1104593	REC_START	n/a	6	2	HOUSE	CUP	HOUSE	CUP	7	[0, 0, 0]	-999	PAL1	5	R1318N
1104.196	1.858	1104593	PROBE_START	n/a	6	2	HOUSE	CUP	HOUSE	CUP	7	[0, 0, 0]	-999	PAL1	5	R1318N
1106.054	2.168	1106451	REC_EVENT	1858	6	2	HOUSE	CUP	HOUSE	CUP	7	[0, 0, 0]	-999	PAL1	5	R1318N
1108.222	1.0	1108619	PROBE_END	n/a	6	2	HOUSE	n/a	HOUSE	CUP	7	[0, 0, 0]	-999	PAL1	5	R1318N
1109.222	0.012	1109619	REC_END	n/a	6	2	HOUSE	n/a	HOUSE	CUP	7	[0, 0, 0]	-999	PAL1	5	R1318N
1109.234	0.272	1109631	ORIENT_START	n/a	-999	-999	n/a	n/a	n/a	n/a	7	[0, 0, 0]	-999	PAL1	5	R1318N
1109.506	0.558	1109903	ORIENT_END	n/a	-999	-999	n/a	n/a	n/a	n/a	7	[0, 0, 0]	-999	PAL1	5	R1318N
1110.064	0.0	1110461	PROBE_START	n/a	5	3	VASE	HIGH	PIE	VASE	7	[0, 0, 0]	-999	PAL1	5	R1318N
1110.064	2.727	1110461	REC_START	n/a	5	3	VASE	HIGH	PIE	VASE	7	[0, 0, 0]	-999	PAL1	5	R1318N
1112.791	1.299	1113188	REC_EVENT	2727	5	3	VASE	HIGH	PIE	VASE	7	[0, 0, 0]	-999	PAL1	5	R1318N
1114.09	1.0	1114487	PROBE_END	n/a	5	3	VASE	n/a	PIE	VASE	7	[0, 0, 0]	-999	PAL1	5	R1318N
1115.09	0.01	1115487	REC_END	n/a	5	3	VASE	n/a	PIE	VASE	7	[0, 0, 0]	-999	PAL1	5	R1318N
1115.1	0.272	1115497	ORIENT_START	n/a	-999	-999	n/a	n/a	n/a	n/a	7	[0, 0, 0]	-999	PAL1	5	R1318N
1115.372	0.541	1115769	ORIENT_END	n/a	-999	-999	n/a	n/a	n/a	n/a	7	[0, 0, 0]	-999	PAL1	5	R1318N
1115.913	0.0	1116310	REC_START	n/a	4	4	STOVE	PURSE	PURSE	STOVE	7	[0, 0, 0]	-999	PAL1	5	R1318N
1115.913	2.376	1116310	PROBE_START	n/a	4	4	STOVE	PURSE	PURSE	STOVE	7	[0, 0, 0]	-999	PAL1	5	R1318N
1118.289	1.652	1118686	REC_EVENT	2376	4	4	STOVE	PURSE	PURSE	STOVE	7	[0, 0, 0]	-999	PAL1	5	R1318N
1119.941	0.999	1120338	PROBE_END	n/a	4	4	STOVE	n/a	PURSE	STOVE	7	[0, 0, 0]	-999	PAL1	5	R1318N
1120.94	0.012	1121337	REC_END	n/a	4	4	STOVE	n/a	PURSE	STOVE	7	[0, 0, 0]	-999	PAL1	5	R1318N
1120.952	0.272	1121349	ORIENT_START	n/a	-999	-999	n/a	n/a	n/a	n/a	7	[0, 0, 0]	-999	PAL1	5	R1318N
1121.224	0.644	1121621	ORIENT_END	n/a	-999	-999	n/a	n/a	n/a	n/a	7	[0, 0, 0]	-999	PAL1	5	R1318N
1121.868	0.0	1122265	PROBE_START	n/a	3	5	CROWN	BROOM	CROWN	FOAM	7	[0, 0, 0]	-999	PAL1	5	R1318N
1121.868	1.817	1122265	REC_START	n/a	3	5	CROWN	BROOM	CROWN	FOAM	7	[0, 0, 0]	-999	PAL1	5	R1318N
1123.685	2.206	1124082	REC_EVENT	1817	3	5	CROWN	BROOM	CROWN	FOAM	7	[0, 0, 0]	-999	PAL1	5	R1318N
1125.891	1.001	1126288	PROBE_END	n/a	3	5	CROWN	n/a	CROWN	FOAM	7	[0, 0, 0]	-999	PAL1	5	R1318N
1126.892	0.01	1127289	REC_END	n/a	3	5	CROWN	n/a	CROWN	FOAM	7	[0, 0, 0]	-999	PAL1	5	R1318N
1126.902	0.273	1127299	ORIENT_START	n/a	-999	-999	n/a	n/a	n/a	n/a	7	[0, 0, 0]	-999	PAL1	5	R1318N
1127.175	0.592	1127572	ORIENT_END	n/a	-999	-999	n/a	n/a	n/a	n/a	7	[0, 0, 0]	-999	PAL1	5	R1318N
1127.767	0.001	1128164	REC_START	n/a	2	6	BEAK	BROOM	BROOM	BEAK	7	[0, 0, 0]	-999	PAL1	5	R1318N
1127.768	2.815	1128165	PROBE_START	n/a	2	6	BEAK	BROOM	BROOM	BEAK	7	[0, 0, 0]	-999	PAL1	5	R1318N
1130.583	0.855	1130980	REC_EVENT	2815	2	6	BEAK	BROOM	BROOM	BEAK	7	[0, 0, 0]	-999	PAL1	5	R1318N
1131.438	0.354	1131834	REC_EVENT	3670	2	6	BEAK	<>	BROOM	BEAK	7	[0, 0, 0]	-999	PAL1	5	R1318N
1131.792	1.001	1132188	PROBE_END	n/a	2	6	BEAK	n/a	BROOM	BEAK	7	[0, 0, 0]	-999	PAL1	5	R1318N
1132.793	0.011	1133189	REC_END	n/a	2	6	BEAK	n/a	BROOM	BEAK	7	[0, 0, 0]	-999	PAL1	5	R1318N
1132.804	0.0	1133200	TRIAL_END	n/a	-999	-999	n/a	n/a	n/a	n/a	7	[0, 0, 0]	-999	PAL1	5	R1318N
1132.804	0.019	1133200	RETRIEVAL_END	n/a	-999	-999	n/a	n/a	n/a	n/a	7	[0, 0, 0]	-999	PAL1	5	R1318N
1132.823	0.0	1133219	WAITING_START	n/a	-999	-999	n/a	n/a	n/a	n/a	8	[0, 0, 0]	-999	PAL1	5	R1318N
1132.823	0.0	1133219	TRIAL	n/a	-999	-999	n/a	n/a	n/a	n/a	8	[0, 0, 0]	-999	PAL1	5	R1318N
1132.823	1.853	1133219	TRIAL_START	n/a	-999	-999	n/a	n/a	n/a	n/a	7	[0, 0, 0]	-999	PAL1	5	R1318N
1134.676	0.001	1135072	WAITING_END	n/a	-999	-999	n/a	n/a	n/a	n/a	8	[0, 0, 0]	-999	PAL1	5	R1318N
1134.677	10.428	1135073	COUNTDOWN_START	n/a	-999	-999	n/a	n/a	n/a	n/a	8	[0, 0, 0]	-999	PAL1	5	R1318N
1145.105	0.001	1145501	COUNTDOWN_END	n/a	-999	-999	n/a	n/a	n/a	n/a	8	[0, 0, 0]	-999	PAL1	5	R1318N
1145.106	0.756	1145502	ORIENT_START	n/a	-999	-999	n/a	n/a	n/a	n/a	8	[0, 0, 0]	-999	PAL1	5	R1318N
1145.862	0.0	1146258	ORIENT_END	n/a	-999	-999	n/a	n/a	n/a	n/a	8	[0, 0, 0]	-999	PAL1	5	R1318N
1145.862	1.077	1146258	ENCODING_START	n/a	-999	-999	n/a	n/a	n/a	n/a	8	[0, 0, 0]	-999	PAL1	5	R1318N
1146.939	4.023	1147335	STUDY_PAIR	n/a	1	-999	n/a	n/a	STAR	TOAD	8	[0, 0, 0]	-999	PAL1	5	R1318N
1150.962	0.706	1151358	STUDY_PAIR_OFF	n/a	1	-999	n/a	n/a	STAR	TOAD	8	[0, 0, 0]	-999	PAL1	5	R1318N
1151.668	4.029	1152064	STUDY_PAIR	n/a	2	-999	n/a	SEAT	LAWN	SEAT	8	[0, 0, 0]	-999	PAL1	5	R1318N
1155.697	0.643	1156093	STUDY_PAIR_OFF	n/a	2	-999	n/a	SEAT	LAWN	SEAT	8	[0, 0, 0]	-999	PAL1	5	R1318N
1156.34	4.04	1156736	STUDY_PAIR	n/a	3	-999	n/a	n/a	GLASS	PASTE	8	[0, 0, 0]	-999	PAL1	5	R1318N
1160.38	0.649	1160776	STUDY_PAIR_OFF	n/a	3	-999	n/a	n/a	GLASS	PASTE	8	[0, 0, 0]	-999	PAL1	5	R1318N
1161.029	4.036	1161425	STUDY_PAIR	n/a	4	-999	n/a	GLOVE	FUDGE	GLOVE	8	[0, 0, 0]	-999	PAL1	5	R1318N
1165.065	0.623	1165460	STUDY_PAIR_OFF	n/a	4	-999	n/a	GLOVE	FUDGE	GLOVE	8	[0, 0, 0]	-999	PAL1	5	R1318N
1165.688	4.027	1166083	STUDY_PAIR	n/a	5	-999	n/a	n/a	ARK	STRAW	8	[0, 0, 0]	-999	PAL1	5	R1318N
1169.715	0.707	1170110	STUDY_PAIR_OFF	n/a	5	-999	n/a	n/a	ARK	STRAW	8	[0, 0, 0]	-999	PAL1	5	R1318N
1170.422	4.027	1170817	STUDY_PAIR	n/a	6	-999	n/a	MEN	MAT	STEM	8	[0, 0, 0]	-999	PAL1	5	R1318N
1174.449	0.001	1174844	STUDY_PAIR_OFF	n/a	6	-999	n/a	MEN	MAT	STEM	8	[0, 0, 0]	-999	PAL1	5	R1318N
1174.45	0.0	1174845	ENCODING_END	n/a	-999	-999	n/a	n/a	n/a	n/a	8	[0, 0, 0]	-999	PAL1	5	R1318N
1174.45	0.0	1174845	MATH_START	n/a	-999	-999	n/a	n/a	n/a	n/a	8	[0, 0, 0]	-999	PAL1	5	R1318N
1174.45	0.016	1174845	START	n/a	-999	-999	n/a	n/a	n/a	n/a	8	[-999, -999, -999]	-999	PAL1	5	R1318N
1174.466	2.767	1174861	PROB	2732	-999	-999	n/a	n/a	n/a	n/a	8	[3, 3, 7]	13	PAL1	5	R1318N
1177.233	4.401	1177628	PROB	4366	-999	-999	n/a	n/a	n/a	n/a	8	[8, 9, 9]	26	PAL1	5	R1318N
1181.634	2.417	1182029	PROB	2380	-999	-999	n/a	n/a	n/a	n/a	8	[3, 6, 4]	13	PAL1	5	R1318N
1184.051	2.784	1184446	PROB	2747	-999	-999	n/a	n/a	n/a	n/a	8	[1, 8, 5]	14	PAL1	5	R1318N
1186.835	3.234	1187230	PROB	3195	-999	-999	n/a	n/a	n/a	n/a	8	[6, 6, 5]	17	PAL1	5	R1318N
1190.069	3.117	1190464	PROB	3082	-999	-999	n/a	n/a	n/a	n/a	8	[9, 5, 4]	18	PAL1	5	R1318N
1193.186	2.572	1193581	PROB	2572	-999	-999	n/a	n/a	n/a	n/a	8	[1, 2, 2]	5	PAL1	5	R1318N
1195.758	0.012	1196153	STOP	n/a	-999	-999	n/a	n/a	n/a	n/a	8	[-999, -999, -999]	-999	PAL1	5	R1318N
1195.77	0.593	1196165	MATH_END	n/a	-999	-999	n/a	n/a	n/a	n/a	8	[0, 0, 0]	-999	PAL1	5	R1318N
1196.363	0.001	1196758	RETRIEVAL_START	n/a	-999	-999	n/a	n/a	n/a	n/a	8	[0, 0, 0]	-999	PAL1	5	R1318N
1196.364	0.273	1196759	ORIENT_START	n/a	-999	-999	n/a	n/a	n/a	n/a	8	[0, 0, 0]	-999	PAL1	5	R1318N
1196.637	0.624	1197032	ORIENT_END	n/a	-999	-999	n/a	n/a	n/a	n/a	8	[0, 0, 0]	-999	PAL1	5	R1318N
1197.261	0.0	1197656	REC_START	n/a	3	1	PASTE	n/a	GLASS	PASTE	8	[0, 0, 0]	-999	PAL1	5	R1318N
1197.261	4.026	1197656	PROBE_START	n/a	3	1	PASTE	n/a	GLASS	PASTE	8	[0, 0, 0]	-999	PAL1	5	R1318N
1201.287	1.001	1201681	PROBE_END	n/a	3	1	PASTE	n/a	GLASS	PASTE	8	[0, 0, 0]	-999	PAL1	5	R1318N
1202.288	0.011	1202682	REC_END	n/a	3	1	PASTE	n/a	GLASS	PASTE	8	[0, 0, 0]	-999	PAL1	5	R1318N
1202.299	0.272	1202693	ORIENT_START	n/a	-999	-999	n/a	n/a	n/a	n/a	8	[0, 0, 0]	-999	PAL1	5	R1318N
1202.571	0.491	1202965	ORIENT_END	n/a	-999	-999	n/a	n/a	n/a	n/a	8	[0, 0, 0]	-999	PAL1	5	R1318N
1203.062	0.205	1203456	REC_EVENT	5801	3	1	PASTE	<>	GLASS	PASTE	8	[0, 0, 0]	-999	PAL1	5	R1318N
1203.267	0.0	1203661	REC_START	n/a	6	2	STEM	MEN	MAT	STEM	8	[0, 0, 0]	-999	PAL1	5	R1318N
1203.267	2.3	1203661	PROBE_START	n/a	6	2	STEM	MEN	MAT	STEM	8	[0, 0, 0]	-999	PAL1	5	R1318N
1205.567	1.738	1205961	REC_EVENT	2300	6	2	STEM	MEN	MAT	STEM	8	[0, 0, 0]	-999	PAL1	5	R1318N
1207.305	1.0	1207699	PROBE_END	n/a	6	2	STEM	n/a	MAT	STEM	8	[0, 0, 0]	-999	PAL1	5	R1318N
1208.305	0.012	1208699	REC_END	n/a	6	2	STEM	n/a	MAT	STEM	8	[0, 0, 0]	-999	PAL1	5	R1318N
1208.317	0.272	1208711	ORIENT_START	n/a	-999	-999	n/a	n/a	n/a	n/a	8	[0, 0, 0]	-999	PAL1	5	R1318N
1208.589	0.656	1208983	ORIENT_END	n/a	-999	-999	n/a	n/a	n/a	n/a	8	[0, 0, 0]	-999	PAL1	5	R1318N
1209.245	0.0	1209639	REC_START	n/a	1	3	TOAD	n/a	STAR	TOAD	8	[0, 0, 0]	-999	PAL1	5	R1318N
1209.245	4.028	1209639	PROBE_START	n/a	1	3	TOAD	n/a	STAR	TOAD	8	[0, 0, 0]	-999	PAL1	5	R1318N
1213.273	0.999	1213667	PROBE_END	n/a	1	3	TOAD	n/a	STAR	TOAD	8	[0, 0, 0]	-999	PAL1	5	R1318N
1214.272	0.012	1214666	REC_END	n/a	1	3	TOAD	n/a	STAR	TOAD	8	[0, 0, 0]	-999	PAL1	5	R1318N
1214.284	0.272	1214678	ORIENT_START	n/a	-999	-999	n/a	n/a	n/a	n/a	8	[0, 0, 0]	-999	PAL1	5	R1318N
1214.556	0.586	1214950	ORIENT_END	n/a	-999	-999	n/a	n/a	n/a	n/a	8	[0, 0, 0]	-999	PAL1	5	R1318N
1215.142	0.003	1215536	REC_EVENT	5897	1	3	TOAD	<>	STAR	TOAD	8	[0, 0, 0]	-999	PAL1	5	R1318N
1215.145	0.001	1215539	REC_START	n/a	2	4	LAWN	SEAT	LAWN	SEAT	8	[0, 0, 0]	-999	PAL1	5	R1318N
1215.146	2.548	1215540	PROBE_START	n/a	2	4	LAWN	SEAT	LAWN	SEAT	8	[0, 0, 0]	-999	PAL1	5	R1318N
1217.694	1.48	1218088	REC_EVENT	2548	2	4	LAWN	SEAT	LAWN	SEAT	8	[0, 0, 0]	-999	PAL1	5	R1318N
1219.174	0.999	1219568	PROBE_END	n/a	2	4	LAWN	n/a	LAWN	SEAT	8	[0, 0, 0]	-999	PAL1	5	R1318N
1220.173	0.013	1220567	REC_END	n/a	2	4	LAWN	n/a	LAWN	SEAT	8	[0, 0, 0]	-999	PAL1	5	R1318N
1220.186	0.271	1220580	ORIENT_START	n/a	-999	-999	n/a	n/a	n/a	n/a	8	[0, 0, 0]	-999	PAL1	5	R1318N
1220.457	0.715	1220851	ORIENT_END	n/a	-999	-999	n/a	n/a	n/a	n/a	8	[0, 0, 0]	-999	PAL1	5	R1318N
1221.172	0.0	1221566	REC_START	n/a	5	5	ARK	n/a	ARK	STRAW	8	[0, 0, 0]	-999	PAL1	5	R1318N
1221.172	4.036	1221566	PROBE_START	n/a	5	5	ARK	n/a	ARK	STRAW	8	[0, 0, 0]	-999	PAL1	5	R1318N
1225.208	1.001	1225602	PROBE_END	n/a	5	5	ARK	n/a	ARK	STRAW	8	[0, 0, 0]	-999	PAL1	5	R1318N
1226.209	0.012	1226603	REC_END	n/a	5	5	ARK	n/a	ARK	STRAW	8	[0, 0, 0]	-999	PAL1	5	R1318N
1226.221	0.271	1226615	ORIENT_START	n/a	-999	-999	n/a	n/a	n/a	n/a	8	[0, 0, 0]	-999	PAL1	5	R1318N
1226.492	0.723	1226886	ORIENT_END	n/a	-999	-999	n/a	n/a	n/a	n/a	8	[0, 0, 0]	-999	PAL1	5	R1318N
1227.215	0.001	1227609	REC_START	n/a	4	6	FUDGE	GLOVE	FUDGE	GLOVE	8	[0, 0, 0]	-999	PAL1	5	R1318N
1227.216	1.985	1227610	PROBE_START	n/a	4	6	FUDGE	GLOVE	FUDGE	GLOVE	8	[0, 0, 0]	-999	PAL1	5	R1318N
1229.201	2.041	1229595	REC_EVENT	1985	4	6	FUDGE	GLOVE	FUDGE	GLOVE	8	[0, 0, 0]	-999	PAL1	5	R1318N
1231.242	1.0	1231636	PROBE_END	n/a	4	6	FUDGE	n/a	FUDGE	GLOVE	8	[0, 0, 0]	-999	PAL1	5	R1318N
1232.242	0.012	1232636	REC_END	n/a	4	6	FUDGE	n/a	FUDGE	GLOVE	8	[0, 0, 0]	-999	PAL1	5	R1318N
1232.254	0.0	1232648	RETRIEVAL_END	n/a	-999	-999	n/a	n/a	n/a	n/a	8	[0, 0, 0]	-999	PAL1	5	R1318N
1232.254	0.053	1232648	TRIAL_END	n/a	-999	-999	n/a	n/a	n/a	n/a	8	[0, 0, 0]	-999	PAL1	5	R1318N
1232.307	0.0	1232701	TRIAL_START	n/a	-999	-999	n/a	n/a	n/a	n/a	8	[0, 0, 0]	-999	PAL1	5	R1318N
1232.307	0.0	1232701	TRIAL	n/a	-999	-999	n/a	n/a	n/a	n/a	9	[0, 0, 0]	-999	PAL1	5	R1318N
1232.307	1.953	1232701	WAITING_START	n/a	-999	-999	n/a	n/a	n/a	n/a	9	[0, 0, 0]	-999	PAL1	5	R1318N
1234.26	0.0	1234653	COUNTDOWN_START	n/a	-999	-999	n/a	n/a	n/a	n/a	9	[0, 0, 0]	-999	PAL1	5	R1318N
1234.26	10.428	1234653	WAITING_END	n/a	-999	-999	n/a	n/a	n/a	n/a	9	[0, 0, 0]	-999	PAL1	5	R1318N
1244.688	0.001	1245081	COUNTDOWN_END	n/a	-999	-999	n/a	n/a	n/a	n/a	9	[0, 0, 0]	-999	PAL1	5	R1318N
1244.689	0.539	1245082	ORIENT_START	n/a	-999	-999	n/a	n/a	n/a	n/a	9	[0, 0, 0]	-999	PAL1	5	R1318N
1245.228	0.001	1245621	ORIENT_END	n/a	-999	-999	n/a	n/a	n/a	n/a	9	[0, 0, 0]	-999	PAL1	5	R1318N
1245.229	1.061	1245622	ENCODING_START	n/a	-999	-999	n/a	n/a	n/a	n/a	9	[0, 0, 0]	-999	PAL1	5	R1318N
1246.29	4.038	1246683	STUDY_PAIR	n/a	1	-999	n/a	TOAD	BLOOM	TRUCK	9	[0, 0, 0]	-999	PAL1	5	R1318N
1250.328	0.575	1250721	STUDY_PAIR_OFF	n/a	1	-999	n/a	TOAD	BLOOM	TRUCK	9	[0, 0, 0]	-999	PAL1	5	R1318N
1250.903	4.026	1251296	STUDY_PAIR	n/a	2	-999	n/a	BEE	BEE	VAN	9	[0, 0, 0]	-999	PAL1	5	R1318N
1254.929	0.727	1255322	STUDY_PAIR_OFF	n/a	2	-999	n/a	BEE	BEE	VAN	9	[0, 0, 0]	-999	PAL1	5	R1318N
1255.656	4.041	1256049	STUDY_PAIR	n/a	3	-999	n/a	FLAG	FENCE	FLAG	9	[0, 0, 0]	-999	PAL1	5	R1318N
1259.697	0.592	1260090	STUDY_PAIR_OFF	n/a	3	-999	n/a	FLAG	FENCE	FLAG	9	[0, 0, 0]	-999	PAL1	5	R1318N
1260.289	4.025	1260682	STUDY_PAIR	n/a	4	-999	n/a	STICK	STICK	APE	9	[0, 0, 0]	-999	PAL1	5	R1318N
1264.314	0.501	1264707	STUDY_PAIR_OFF	n/a	4	-999	n/a	STICK	STICK	APE	9	[0, 0, 0]	-999	PAL1	5	R1318N
1264.815	4.033	1265208	STUDY_PAIR	n/a	5	-999	n/a	n/a	MOON	CLOCK	9	[0, 0, 0]	-999	PAL1	5	R1318N
1268.848	0.52	1269240	STUDY_PAIR_OFF	n/a	5	-999	n/a	n/a	MOON	CLOCK	9	[0, 0, 0]	-999	PAL1	5	R1318N
1269.368	4.03	1269760	STUDY_PAIR	n/a	6	-999	n/a	PEN	FILM	PEN	9	[0, 0, 0]	-999	PAL1	5	R1318N
1273.398	0.001	1273790	STUDY_PAIR_OFF	n/a	6	-999	n/a	PEN	FILM	PEN	9	[0, 0, 0]	-999	PAL1	5	R1318N
1273.399	0.0	1273791	ENCODING_END	n/a	-999	-999	n/a	n/a	n/a	n/a	9	[0, 0, 0]	-999	PAL1	5	R1318N
1273.399	0.001	1273791	MATH_START	n/a	-999	-999	n/a	n/a	n/a	n/a	9	[0, 0, 0]	-999	PAL1	5	R1318N
1273.4	0.016	1273792	START	n/a	-999	-999	n/a	n/a	n/a	n/a	9	[-999, -999, -999]	-999	PAL1	5	R1318N
1273.416	2.1	1273808	PROB	2070	-999	-999	n/a	n/a	n/a	n/a	9	[9, 1, 2]	12	PAL1	5	R1318N
1275.516	2.866	1275908	PROB	2834	-999	-999	n/a	n/a	n/a	n/a	9	[6, 2, 6]	14	PAL1	5	R1318N
1278.382	2.935	1278774	PROB	2912	-999	-999	n/a	n/a	n/a	n/a	9	[5, 3, 4]	12	PAL1	5	R1318N
1281.317	2.417	1281709	PROB	2378	-999	-999	n/a	n/a	n/a	n/a	9	[1, 6, 1]	8	PAL1	5	R1318N
1283.734	2.7	1284126	PROB	2663	-999	-999	n/a	n/a	n/a	n/a	9	[4, 1, 5]	10	PAL1	5	R1318N
1286.434	3.95	1286826	PROB	3916	-999	-999	n/a	n/a	n/a	n/a	9	[5, 3, 9]	17	PAL1	5	R1318N
1290.384	3.086	1290776	PROB	3086	-999	-999	n/a	n/a	n/a	n/a	9	[5, 3, 6]	14	PAL1	5	R1318N
1293.47	0.016	1293862	STOP	n/a	-999	-999	n/a	n/a	n/a	n/a	9	[-999, -999, -999]	-999	PAL1	5	R1318N
1293.486	0.609	1293878	MATH_END	n/a	-999	-999	n/a	n/a	n/a	n/a	9	[0, 0, 0]	-999	PAL1	5	R1318N
1294.095	0.001	1294487	RETRIEVAL_START	n/a	-999	-999	n/a	n/a	n/a	n/a	9	[0, 0, 0]	-999	PAL1	5	R1318N
1294.096	0.272	1294488	ORIENT_START	n/a	-999	-999	n/a	n/a	n/a	n/a	9	[0, 0, 0]	-999	PAL1	5	R1318N
1294.368	0.528	1294760	ORIENT_END	n/a	-999	-999	n/a	n/a	n/a	n/a	9	[0, 0, 0]	-999	PAL1	5	R1318N
1294.896	0.001	1295288	REC_START	n/a	5	1	MOON	n/a	MOON	CLOCK	9	[0, 0, 0]	-999	PAL1	5	R1318N
1294.897	1.865	1295289	PROBE_START	n/a	5	1	MOON	n/a	MOON	CLOCK	9	[0, 0, 0]	-999	PAL1	5	R1318N
1296.762	2.158	1297154	REC_EVENT	1865	5	1	MOON	<>	MOON	CLOCK	9	[0, 0, 0]	-999	PAL1	5	R1318N
1298.92	1.001	1299312	PROBE_END	n/a	5	1	MOON	n/a	MOON	CLOCK	9	[0, 0, 0]	-999	PAL1	5	R1318N
1299.921	0.011	1300313	REC_END	n/a	5	1	MOON	n/a	MOON	CLOCK	9	[0, 0, 0]	-999	PAL1	5	R1318N
1299.932	0.272	1300324	ORIENT_START	n/a	-999	-999	n/a	n/a	n/a	n/a	9	[0, 0, 0]	-999	PAL1	5	R1318N
1300.204	0.549	1300596	ORIENT_END	n/a	-999	-999	n/a	n/a	n/a	n/a	9	[0, 0, 0]	-999	PAL1	5	R1318N
1300.753	0.0	1301145	REC_START	n/a	6	2	FILM	PEN	FILM	PEN	9	[0, 0, 0]	-999	PAL1	5	R1318N
1300.753	1.875	1301145	PROBE_START	n/a	6	2	FILM	PEN	FILM	PEN	9	[0, 0, 0]	-999	PAL1	5	R1318N
1302.628	2.16	1303019	REC_EVENT	1875	6	2	FILM	PEN	FILM	PEN	9	[0, 0, 0]	-999	PAL1	5	R1318N
1304.788	1.0	1305179	PROBE_END	n/a	6	2	FILM	n/a	FILM	PEN	9	[0, 0, 0]	-999	PAL1	5	R1318N
1305.788	0.011	1306179	REC_END	n/a	6	2	FILM	n/a	FILM	PEN	9	[0, 0, 0]	-999	PAL1	5	R1318N
1305.799	0.272	1306190	ORIENT_START	n/a	-999	-999	n/a	n/a	n/a	n/a	9	[0, 0, 0]	-999	PAL1	5	R1318N
1306.071	0.681	1306462	ORIENT_END	n/a	-999	-999	n/a	n/a	n/a	n/a	9	[0, 0, 0]	-999	PAL1	5	R1318N
1306.752	0.001	1307143	REC_START	n/a	1	3	TRUCK	TOAD	BLOOM	TRUCK	9	[0, 0, 0]	-999	PAL1	5	R1318N
1306.753	3.036	1307144	PROBE_START	n/a	1	3	TRUCK	TOAD	BLOOM	TRUCK	9	[0, 0, 0]	-999	PAL1	5	R1318N
1309.789	1.0	1310180	REC_EVENT	3036	1	3	TRUCK	TOAD	BLOOM	TRUCK	9	[0, 0, 0]	-999	PAL1	5	R1318N
1310.789	1.0	1311180	PROBE_END	n/a	1	3	TRUCK	n/a	BLOOM	TRUCK	9	[0, 0, 0]	-999	PAL1	5	R1318N
1311.789	0.012	1312180	REC_END	n/a	1	3	TRUCK	n/a	BLOOM	TRUCK	9	[0, 0, 0]	-999	PAL1	5	R1318N
1311.801	0.271	1312192	ORIENT_START	n/a	-999	-999	n/a	n/a	n/a	n/a	9	[0, 0, 0]	-999	PAL1	5	R1318N
1312.072	0.573	1312463	ORIENT_END	n/a	-999	-999	n/a	n/a	n/a	n/a	9	[0, 0, 0]	-999	PAL1	5	R1318N
1312.645	0.0	1313036	REC_START	n/a	4	4	APE	STICK	STICK	APE	9	[0, 0, 0]	-999	PAL1	5	R1318N
1312.645	1.675	1313036	PROBE_START	n/a	4	4	APE	STICK	STICK	APE	9	[0, 0, 0]	-999	PAL1	5	R1318N
1314.32	2.353	1314711	REC_EVENT	1675	4	4	APE	STICK	STICK	APE	9	[0, 0, 0]	-999	PAL1	5	R1318N
1316.673	1.0	1317064	PROBE_END	n/a	4	4	APE	n/a	STICK	APE	9	[0, 0, 0]	-999	PAL1	5	R1318N
1317.673	0.011	1318064	REC_END	n/a	4	4	APE	n/a	STICK	APE	9	[0, 0, 0]	-999	PAL1	5	R1318N
1317.684	0.272	1318075	ORIENT_START	n/a	-999	-999	n/a	n/a	n/a	n/a	9	[0, 0, 0]	-999	PAL1	5	R1318N
1317.956	0.609	1318347	ORIENT_END	n/a	-999	-999	n/a	n/a	n/a	n/a	9	[0, 0, 0]	-999	PAL1	5	R1318N
1318.565	0.0	1318956	REC_START	n/a	3	5	FENCE	FLAG	FENCE	FLAG	9	[0, 0, 0]	-999	PAL1	5	R1318N
1318.565	2.001	1318956	PROBE_START	n/a	3	5	FENCE	FLAG	FENCE	FLAG	9	[0, 0, 0]	-999	PAL1	5	R1318N
1320.566	2.025	1320957	REC_EVENT	2001	3	5	FENCE	FLAG	FENCE	FLAG	9	[0, 0, 0]	-999	PAL1	5	R1318N
1322.591	0.999	1322982	PROBE_END	n/a	3	5	FENCE	n/a	FENCE	FLAG	9	[0, 0, 0]	-999	PAL1	5	R1318N
1323.59	0.012	1323981	REC_END	n/a	3	5	FENCE	n/a	FENCE	FLAG	9	[0, 0, 0]	-999	PAL1	5	R1318N
1323.602	0.272	1323993	ORIENT_START	n/a	-999	-999	n/a	n/a	n/a	n/a	9	[0, 0, 0]	-999	PAL1	5	R1318N
1323.874	0.719	1324265	ORIENT_END	n/a	-999	-999	n/a	n/a	n/a	n/a	9	[0, 0, 0]	-999	PAL1	5	R1318N
1324.593	0.001	1324984	REC_START	n/a	2	6	VAN	BEE	BEE	VAN	9	[0, 0, 0]	-999	PAL1	5	R1318N
1324.594	3.198	1324985	PROBE_START	n/a	2	6	VAN	BEE	BEE	VAN	9	[0, 0, 0]	-999	PAL1	5	R1318N
1327.792	0.816	1328183	REC_EVENT	3198	2	6	VAN	BEE	BEE	VAN	9	[0, 0, 0]	-999	PAL1	5	R1318N
1328.608	1.001	1328999	PROBE_END	n/a	2	6	VAN	n/a	BEE	VAN	9	[0, 0, 0]	-999	PAL1	5	R1318N
1329.609	0.012	1330000	REC_END	n/a	2	6	VAN	n/a	BEE	VAN	9	[0, 0, 0]	-999	PAL1	5	R1318N
1329.621	0.0	1330012	RETRIEVAL_END	n/a	-999	-999	n/a	n/a	n/a	n/a	9	[0, 0, 0]	-999	PAL1	5	R1318N
1329.621	0.021	1330012	TRIAL_END	n/a	-999	-999	n/a	n/a	n/a	n/a	9	[0, 0, 0]	-999	PAL1	5	R1318N
1329.642	0.0	1330033	TRIAL_START	n/a	-999	-999	n/a	n/a	n/a	n/a	9	[0, 0, 0]	-999	PAL1	5	R1318N
1329.642	0.0	1330033	TRIAL	n/a	-999	-999	n/a	n/a	n/a	n/a	10	[0, 0, 0]	-999	PAL1	5	R1318N
1329.642	1.4	1330033	WAITING_START	n/a	-999	-999	n/a	n/a	n/a	n/a	10	[0, 0, 0]	-999	PAL1	5	R1318N
1331.042	0.001	1331433	WAITING_END	n/a	-999	-999	n/a	n/a	n/a	n/a	10	[0, 0, 0]	-999	PAL1	5	R1318N
1331.043	10.429	1331434	COUNTDOWN_START	n/a	-999	-999	n/a	n/a	n/a	n/a	10	[0, 0, 0]	-999	PAL1	5	R1318N
1341.472	0.0	1341862	COUNTDOWN_END	n/a	-999	-999	n/a	n/a	n/a	n/a	10	[0, 0, 0]	-999	PAL1	5	R1318N
1341.472	0.672	1341862	ORIENT_START	n/a	-999	-999	n/a	n/a	n/a	n/a	10	[0, 0, 0]	-999	PAL1	5	R1318N
1342.144	0.0	1342534	ORIENT_END	n/a	-999	-999	n/a	n/a	n/a	n/a	10	[0, 0, 0]	-999	PAL1	5	R1318N
1342.144	1.098	1342534	ENCODING_START	n/a	-999	-999	n/a	n/a	n/a	n/a	10	[0, 0, 0]	-999	PAL1	5	R1318N
1343.242	4.036	1343632	STUDY_PAIR	n/a	1	-999	n/a	n/a	BUSH	WEED	10	[0, 0, 0]	-999	PAL1	5	R1318N
1347.278	0.554	1347668	STUDY_PAIR_OFF	n/a	1	-999	n/a	n/a	BUSH	WEED	10	[0, 0, 0]	-999	PAL1	5	R1318N
1347.832	4.03	1348222	STUDY_PAIR	n/a	2	-999	n/a	n/a	TOOTH	BOAT	10	[0, 0, 0]	-999	PAL1	5	R1318N
1351.862	0.725	1352252	STUDY_PAIR_OFF	n/a	2	-999	n/a	n/a	TOOTH	BOAT	10	[0, 0, 0]	-999	PAL1	5	R1318N
1352.587	4.026	1352977	STUDY_PAIR	n/a	3	-999	n/a	ROPE	SLIME	ROOM	10	[0, 0, 0]	-999	PAL1	5	R1318N
1356.613	0.504	1357003	STUDY_PAIR_OFF	n/a	3	-999	n/a	ROPE	SLIME	ROOM	10	[0, 0, 0]	-999	PAL1	5	R1318N
1357.117	4.03	1357507	STUDY_PAIR	n/a	4	-999	n/a	DOOR	CUBE	DOOR	10	[0, 0, 0]	-999	PAL1	5	R1318N
1361.147	0.591	1361537	STUDY_PAIR_OFF	n/a	4	-999	n/a	DOOR	CUBE	DOOR	10	[0, 0, 0]	-999	PAL1	5	R1318N
1361.738	4.026	1362128	STUDY_PAIR	n/a	5	-999	n/a	CALF	CALF	WALL	10	[0, 0, 0]	-999	PAL1	5	R1318N
1365.764	0.64	1366154	STUDY_PAIR_OFF	n/a	5	-999	n/a	CALF	CALF	WALL	10	[0, 0, 0]	-999	PAL1	5	R1318N
1366.404	4.028	1366794	STUDY_PAIR	n/a	6	-999	n/a	PLANT	SPOON	PLANT	10	[0, 0, 0]	-999	PAL1	5	R1318N
1370.432	0.001	1370821	STUDY_PAIR_OFF	n/a	6	-999	n/a	PLANT	SPOON	PLANT	10	[0, 0, 0]	-999	PAL1	5	R1318N
1370.433	0.0	1370822	ENCODING_END	n/a	-999	-999	n/a	n/a	n/a	n/a	10	[0, 0, 0]	-999	PAL1	5	R1318N
1370.433	0.0	1370822	MATH_START	n/a	-999	-999	n/a	n/a	n/a	n/a	10	[0, 0, 0]	-999	PAL1	5	R1318N
1370.433	0.015	1370822	START	n/a	-999	-999	n/a	n/a	n/a	n/a	10	[-999, -999, -999]	-999	PAL1	5	R1318N
1370.448	3.067	1370837	PROB	3038	-999	-999	n/a	n/a	n/a	n/a	10	[4, 3, 8]	15	PAL1	5	R1318N
1373.515	3.001	1373904	PROB	2963	-999	-999	n/a	n/a	n/a	n/a	10	[5, 9, 6]	20	PAL1	5	R1318N
1376.516	3.151	1376905	PROB	3114	-999	-999	n/a	n/a	n/a	n/a	10	[4, 3, 3]	10	PAL1	5	R1318N
1379.667	3.5	1380056	PROB	3468	-999	-999	n/a	n/a	n/a	n/a	10	[4, 7, 2]	13	PAL1	5	R1318N
1383.167	2.451	1383556	PROB	2415	-999	-999	n/a	n/a	n/a	n/a	10	[4, 6, 6]	16	PAL1	5	R1318N
1385.618	1.666	1386007	PROB	1628	-999	-999	n/a	n/a	n/a	n/a	10	[9, 1, 1]	11	PAL1	5	R1318N
1387.284	4.362	1387673	PROB	4362	-999	-999	n/a	n/a	n/a	n/a	10	[9, 4, 7]	20	PAL1	5	R1318N
1391.646	0.023	1392035	STOP	n/a	-999	-999	n/a	n/a	n/a	n/a	10	[-999, -999, -999]	-999	PAL1	5	R1318N
1391.669	0.619	1392058	MATH_END	n/a	-999	-999	n/a	n/a	n/a	n/a	10	[0, 0, 0]	-999	PAL1	5	R1318N
1392.288	0.001	1392677	RETRIEVAL_START	n/a	-999	-999	n/a	n/a	n/a	n/a	10	[0, 0, 0]	-999	PAL1	5	R1318N
1392.289	0.28	1392678	ORIENT_START	n/a	-999	-999	n/a	n/a	n/a	n/a	10	[0, 0, 0]	-999	PAL1	5	R1318N
1392.569	0.622	1392958	ORIENT_END	n/a	-999	-999	n/a	n/a	n/a	n/a	10	[0, 0, 0]	-999	PAL1	5	R1318N
1393.191	0.001	1393580	REC_START	n/a	1	1	WEED	n/a	BUSH	WEED	10	[0, 0, 0]	-999	PAL1	5	R1318N
1393.192	4.028	1393581	PROBE_START	n/a	1	1	WEED	n/a	BUSH	WEED	10	[0, 0, 0]	-999	PAL1	5	R1318N
1397.22	0.999	1397609	PROBE_END	n/a	1	1	WEED	n/a	BUSH	WEED	10	[0, 0, 0]	-999	PAL1	5	R1318N
1398.219	0.01	1398608	REC_END	n/a	1	1	WEED	n/a	BUSH	WEED	10	[0, 0, 0]	-999	PAL1	5	R1318N
1398.229	0.274	1398618	ORIENT_START	n/a	-999	-999	n/a	n/a	n/a	n/a	10	[0, 0, 0]	-999	PAL1	5	R1318N
1398.503	0.563	1398892	ORIENT_END	n/a	-999	-999	n/a	n/a	n/a	n/a	10	[0, 0, 0]	-999	PAL1	5	R1318N
1399.066	0.131	1399455	REC_EVENT	5874	1	1	WEED	<>	BUSH	WEED	10	[0, 0, 0]	-999	PAL1	5	R1318N
1399.197	0.001	1399586	REC_START	n/a	4	2	CUBE	DOOR	CUBE	DOOR	10	[0, 0, 0]	-999	PAL1	5	R1318N
1399.198	2.625	1399587	PROBE_START	n/a	4	2	CUBE	DOOR	CUBE	DOOR	10	[0, 0, 0]	-999	PAL1	5	R1318N
1401.823	1.398	1402212	REC_EVENT	2625	4	2	CUBE	DOOR	CUBE	DOOR	10	[0, 0, 0]	-999	PAL1	5	R1318N
1403.221	1.0	1403609	PROBE_END	n/a	4	2	CUBE	n/a	CUBE	DOOR	10	[0, 0, 0]	-999	PAL1	5	R1318N
1404.221	0.012	1404609	REC_END	n/a	4	2	CUBE	n/a	CUBE	DOOR	10	[0, 0, 0]	-999	PAL1	5	R1318N
1404.233	0.271	1404621	ORIENT_START	n/a	-999	-999	n/a	n/a	n/a	n/a	10	[0, 0, 0]	-999	PAL1	5	R1318N
1404.504	0.627	1404892	ORIENT_END	n/a	-999	-999	n/a	n/a	n/a	n/a	10	[0, 0, 0]	-999	PAL1	5	R1318N
1405.131	0.0	1405519	REC_START	n/a	5	3	WALL	CALF	CALF	WALL	10	[0, 0, 0]	-999	PAL1	5	R1318N
1405.131	2.176	1405519	PROBE_START	n/a	5	3	WALL	CALF	CALF	WALL	10	[0, 0, 0]	-999	PAL1	5	R1318N
1407.307	1.848	1407695	REC_EVENT	2176	5	3	WALL	CALF	CALF	WALL	10	[0, 0, 0]	-999	PAL1	5	R1318N
1409.155	1.001	1409543	PROBE_END	n/a	5	3	WALL	n/a	CALF	WALL	10	[0, 0, 0]	-999	PAL1	5	R1318N
1410.156	0.01	1410544	REC_END	n/a	5	3	WALL	n/a	CALF	WALL	10	[0, 0, 0]	-999	PAL1	5	R1318N
1410.166	0.273	1410554	ORIENT_START	n/a	-999	-999	n/a	n/a	n/a	n/a	10	[0, 0, 0]	-999	PAL1	5	R1318N
1410.439	0.545	1410827	ORIENT_END	n/a	-999	-999	n/a	n/a	n/a	n/a	10	[0, 0, 0]	-999	PAL1	5	R1318N
1410.984	0.001	1411372	REC_START	n/a	2	4	BOAT	n/a	TOOTH	BOAT	10	[0, 0, 0]	-999	PAL1	5	R1318N
1410.985	4.037	1411373	PROBE_START	n/a	2	4	BOAT	n/a	TOOTH	BOAT	10	[0, 0, 0]	-999	PAL1	5	R1318N
1415.022	1.001	1415410	PROBE_END	n/a	2	4	BOAT	n/a	TOOTH	BOAT	10	[0, 0, 0]	-999	PAL1	5	R1318N
1416.023	0.01	1416411	REC_END	n/a	2	4	BOAT	n/a	TOOTH	BOAT	10	[0, 0, 0]	-999	PAL1	5	R1318N
1416.033	0.273	1416421	ORIENT_START	n/a	-999	-999	n/a	n/a	n/a	n/a	10	[0, 0, 0]	-999	PAL1	5	R1318N
1416.306	0.46	1416694	ORIENT_END	n/a	-999	-999	n/a	n/a	n/a	n/a	10	[0, 0, 0]	-999	PAL1	5	R1318N
1416.766	0.241	1417154	REC_EVENT	5781	2	4	BOAT	<>	TOOTH	BOAT	10	[0, 0, 0]	-999	PAL1	5	R1318N
1417.007	0.0	1417395	REC_START	n/a	3	5	SLIME	ROPE	SLIME	ROOM	10	[0, 0, 0]	-999	PAL1	5	R1318N
1417.007	2.559	1417395	PROBE_START	n/a	3	5	SLIME	ROPE	SLIME	ROOM	10	[0, 0, 0]	-999	PAL1	5	R1318N
1419.566	1.474	1419954	REC_EVENT	2559	3	5	SLIME	ROPE	SLIME	ROOM	10	[0, 0, 0]	-999	PAL1	5	R1318N
1421.04	1.0	1421428	PROBE_END	n/a	3	5	SLIME	n/a	SLIME	ROOM	10	[0, 0, 0]	-999	PAL1	5	R1318N
1422.04	0.011	1422428	REC_END	n/a	3	5	SLIME	n/a	SLIME	ROOM	10	[0, 0, 0]	-999	PAL1	5	R1318N
1422.051	0.273	1422439	ORIENT_START	n/a	-999	-999	n/a	n/a	n/a	n/a	10	[0, 0, 0]	-999	PAL1	5	R1318N
1422.324	0.571	1422712	ORIENT_END	n/a	-999	-999	n/a	n/a	n/a	n/a	10	[0, 0, 0]	-999	PAL1	5	R1318N
1422.895	0.0	1423283	REC_START	n/a	6	6	SPOON	PLANT	SPOON	PLANT	10	[0, 0, 0]	-999	PAL1	5	R1318N
1422.895	3.763	1423283	PROBE_START	n/a	6	6	SPOON	PLANT	SPOON	PLANT	10	[0, 0, 0]	-999	PAL1	5	R1318N
1426.658	0.266	1427046	REC_EVENT	3763	6	6	SPOON	PLANT	SPOON	PLANT	10	[0, 0, 0]	-999	PAL1	5	R1318N
1426.924	1.001	1427312	PROBE_END	n/a	6	6	SPOON	n/a	SPOON	PLANT	10	[0, 0, 0]	-999	PAL1	5	R1318N
1427.925	0.01	1428313	REC_END	n/a	6	6	SPOON	n/a	SPOON	PLANT	10	[0, 0, 0]	-999	PAL1	5	R1318N
1427.935	0.0	1428323	RETRIEVAL_END	n/a	-999	-999	n/a	n/a	n/a	n/a	10	[0, 0, 0]	-999	PAL1	5	R1318N
1427.935	0.021	1428323	TRIAL_END	n/a	-999	-999	n/a	n/a	n/a	n/a	10	[0, 0, 0]	-999	PAL1	5	R1318N
1427.956	0.001	1428344	TRIAL_START	n/a	-999	-999	n/a	n/a	n/a	n/a	10	[0, 0, 0]	-999	PAL1	5	R1318N
1427.957	0.0	1428345	TRIAL	n/a	-999	-999	n/a	n/a	n/a	n/a	11	[0, 0, 0]	-999	PAL1	5	R1318N
1427.957	1.968	1428345	WAITING_START	n/a	-999	-999	n/a	n/a	n/a	n/a	11	[0, 0, 0]	-999	PAL1	5	R1318N
1429.925	0.001	1430313	WAITING_END	n/a	-999	-999	n/a	n/a	n/a	n/a	11	[0, 0, 0]	-999	PAL1	5	R1318N
1429.926	10.429	1430314	COUNTDOWN_START	n/a	-999	-999	n/a	n/a	n/a	n/a	11	[0, 0, 0]	-999	PAL1	5	R1318N
1440.355	0.0	1440742	ORIENT_START	n/a	-999	-999	n/a	n/a	n/a	n/a	11	[0, 0, 0]	-999	PAL1	5	R1318N
1440.355	0.655	1440742	COUNTDOWN_END	n/a	-999	-999	n/a	n/a	n/a	n/a	11	[0, 0, 0]	-999	PAL1	5	R1318N
1441.01	0.001	1441397	ORIENT_END	n/a	-999	-999	n/a	n/a	n/a	n/a	11	[0, 0, 0]	-999	PAL1	5	R1318N
1441.011	1.194	1441398	ENCODING_START	n/a	-999	-999	n/a	n/a	n/a	n/a	11	[0, 0, 0]	-999	PAL1	5	R1318N
1442.205	4.039	1442592	STUDY_PAIR	n/a	1	-999	n/a	CLOWN	RAT	CLOWN	11	[0, 0, 0]	-999	PAL1	5	R1318N
1446.244	0.743	1446631	STUDY_PAIR_OFF	n/a	1	-999	n/a	CLOWN	RAT	CLOWN	11	[0, 0, 0]	-999	PAL1	5	R1318N
1446.987	4.025	1447374	STUDY_PAIR	n/a	2	-999	n/a	FLOOR	FLOOR	RICE	11	[0, 0, 0]	-999	PAL1	5	R1318N
1451.012	0.682	1451399	STUDY_PAIR_OFF	n/a	2	-999	n/a	FLOOR	FLOOR	RICE	11	[0, 0, 0]	-999	PAL1	5	R1318N
1451.694	4.035	1452081	STUDY_PAIR	n/a	3	-999	n/a	TEA	TEA	FOOT	11	[0, 0, 0]	-999	PAL1	5	R1318N
1455.729	0.637	1456116	STUDY_PAIR_OFF	n/a	3	-999	n/a	TEA	TEA	FOOT	11	[0, 0, 0]	-999	PAL1	5	R1318N
1456.366	4.03	1456753	STUDY_PAIR	n/a	4	-999	n/a	BRANCH	CAT	BRANCH	11	[0, 0, 0]	-999	PAL1	5	R1318N
1460.396	0.662	1460783	STUDY_PAIR_OFF	n/a	4	-999	n/a	BRANCH	CAT	BRANCH	11	[0, 0, 0]	-999	PAL1	5	R1318N
1461.058	4.023	1461445	STUDY_PAIR	n/a	5	-999	n/a	CAR	CAR	MAP	11	[0, 0, 0]	-999	PAL1	5	R1318N
1465.081	0.724	1465468	STUDY_PAIR_OFF	n/a	5	-999	n/a	CAR	CAR	MAP	11	[0, 0, 0]	-999	PAL1	5	R1318N
1465.805	4.027	1466192	STUDY_PAIR	n/a	6	-999	n/a	PEARL	SAIL	PEARL	11	[0, 0, 0]	-999	PAL1	5	R1318N
1469.832	0.0	1470219	MATH_START	n/a	-999	-999	n/a	n/a	n/a	n/a	11	[0, 0, 0]	-999	PAL1	5	R1318N
1469.832	0.0	1470219	ENCODING_END	n/a	-999	-999	n/a	n/a	n/a	n/a	11	[0, 0, 0]	-999	PAL1	5	R1318N
1469.832	0.001	1470219	STUDY_PAIR_OFF	n/a	6	-999	n/a	PEARL	SAIL	PEARL	11	[0, 0, 0]	-999	PAL1	5	R1318N
1469.833	0.015	1470220	START	n/a	-999	-999	n/a	n/a	n/a	n/a	11	[-999, -999, -999]	-999	PAL1	5	R1318N
1469.848	2.184	1470235	PROB	2150	-999	-999	n/a	n/a	n/a	n/a	11	[1, 3, 1]	5	PAL1	5	R1318N
1472.032	3.4	1472418	PROB	3373	-999	-999	n/a	n/a	n/a	n/a	11	[4, 4, 3]	11	PAL1	5	R1318N
1475.432	3.367	1475818	PROB	3334	-999	-999	n/a	n/a	n/a	n/a	11	[3, 8, 8]	19	PAL1	5	R1318N
1478.799	2.55	1479185	PROB	2527	-999	-999	n/a	n/a	n/a	n/a	11	[2, 2, 8]	12	PAL1	5	R1318N
1481.349	4.802	1481735	PROB	4777	-999	-999	n/a	n/a	n/a	n/a	11	[4, 8, 2]	14	PAL1	5	R1318N
1486.151	4.167	1486537	PROB	4167	-999	-999	n/a	n/a	n/a	n/a	11	[4, 5, 7]	16	PAL1	5	R1318N
1490.318	0.016	1490704	STOP	n/a	-999	-999	n/a	n/a	n/a	n/a	11	[-999, -999, -999]	-999	PAL1	5	R1318N
1490.334	0.675	1490720	MATH_END	n/a	-999	-999	n/a	n/a	n/a	n/a	11	[0, 0, 0]	-999	PAL1	5	R1318N
1491.009	0.001	1491395	RETRIEVAL_START	n/a	-999	-999	n/a	n/a	n/a	n/a	11	[0, 0, 0]	-999	PAL1	5	R1318N
1491.01	0.275	1491396	ORIENT_START	n/a	-999	-999	n/a	n/a	n/a	n/a	11	[0, 0, 0]	-999	PAL1	5	R1318N
1491.285	0.568	1491671	ORIENT_END	n/a	-999	-999	n/a	n/a	n/a	n/a	11	[0, 0, 0]	-999	PAL1	5	R1318N
1491.853	0.0	1492239	REC_START	n/a	3	1	FOOT	TEA	TEA	FOOT	11	[0, 0, 0]	-999	PAL1	5	R1318N
1491.853	2.011	1492239	PROBE_START	n/a	3	1	FOOT	TEA	TEA	FOOT	11	[0, 0, 0]	-999	PAL1	5	R1318N
1493.864	2.022	1494250	REC_EVENT	2011	3	1	FOOT	TEA	TEA	FOOT	11	[0, 0, 0]	-999	PAL1	5	R1318N
1495.886	1.0	1496272	PROBE_END	n/a	3	1	FOOT	n/a	TEA	FOOT	11	[0, 0, 0]	-999	PAL1	5	R1318N
1496.886	0.012	1497272	REC_END	n/a	3	1	FOOT	n/a	TEA	FOOT	11	[0, 0, 0]	-999	PAL1	5	R1318N
1496.898	0.271	1497284	ORIENT_START	n/a	-999	-999	n/a	n/a	n/a	n/a	11	[0, 0, 0]	-999	PAL1	5	R1318N
1497.169	0.516	1497555	ORIENT_END	n/a	-999	-999	n/a	n/a	n/a	n/a	11	[0, 0, 0]	-999	PAL1	5	R1318N
1497.685	0.0	1498071	PROBE_START	n/a	6	2	SAIL	PEARL	SAIL	PEARL	11	[0, 0, 0]	-999	PAL1	5	R1318N
1497.685	1.923	1498071	REC_START	n/a	6	2	SAIL	PEARL	SAIL	PEARL	11	[0, 0, 0]	-999	PAL1	5	R1318N
1499.608	2.112	1499994	REC_EVENT	1923	6	2	SAIL	PEARL	SAIL	PEARL	11	[0, 0, 0]	-999	PAL1	5	R1318N
1501.72	1.001	1502106	PROBE_END	n/a	6	2	SAIL	n/a	SAIL	PEARL	11	[0, 0, 0]	-999	PAL1	5	R1318N
1502.721	0.011	1503107	REC_END	n/a	6	2	SAIL	n/a	SAIL	PEARL	11	[0, 0, 0]	-999	PAL1	5	R1318N
1502.732	0.272	1503118	ORIENT_START	n/a	-999	-999	n/a	n/a	n/a	n/a	11	[0, 0, 0]	-999	PAL1	5	R1318N
1503.004	0.701	1503390	ORIENT_END	n/a	-999	-999	n/a	n/a	n/a	n/a	11	[0, 0, 0]	-999	PAL1	5	R1318N
1503.705	0.0	1504091	REC_START	n/a	1	3	RAT	CLOWN	RAT	CLOWN	11	[0, 0, 0]	-999	PAL1	5	R1318N
1503.705	1.878	1504091	PROBE_START	n/a	1	3	RAT	CLOWN	RAT	CLOWN	11	[0, 0, 0]	-999	PAL1	5	R1318N
1505.583	2.155	1505968	REC_EVENT	1878	1	3	RAT	CLOWN	RAT	CLOWN	11	[0, 0, 0]	-999	PAL1	5	R1318N
1507.738	1.0	1508123	PROBE_END	n/a	1	3	RAT	n/a	RAT	CLOWN	11	[0, 0, 0]	-999	PAL1	5	R1318N
1508.738	0.013	1509123	REC_END	n/a	1	3	RAT	n/a	RAT	CLOWN	11	[0, 0, 0]	-999	PAL1	5	R1318N
1508.751	0.27	1509136	ORIENT_START	n/a	-999	-999	n/a	n/a	n/a	n/a	11	[0, 0, 0]	-999	PAL1	5	R1318N
1509.021	0.527	1509406	ORIENT_END	n/a	-999	-999	n/a	n/a	n/a	n/a	11	[0, 0, 0]	-999	PAL1	5	R1318N
1509.548	0.0	1509933	PROBE_START	n/a	4	4	CAT	BRANCH	CAT	BRANCH	11	[0, 0, 0]	-999	PAL1	5	R1318N
1509.548	1.996	1509933	REC_START	n/a	4	4	CAT	BRANCH	CAT	BRANCH	11	[0, 0, 0]	-999	PAL1	5	R1318N
1511.544	2.028	1511929	REC_EVENT	1996	4	4	CAT	BRANCH	CAT	BRANCH	11	[0, 0, 0]	-999	PAL1	5	R1318N
1513.572	1.0	1513957	PROBE_END	n/a	4	4	CAT	n/a	CAT	BRANCH	11	[0, 0, 0]	-999	PAL1	5	R1318N
1514.572	0.01	1514957	REC_END	n/a	4	4	CAT	n/a	CAT	BRANCH	11	[0, 0, 0]	-999	PAL1	5	R1318N
1514.582	0.274	1514967	ORIENT_START	n/a	-999	-999	n/a	n/a	n/a	n/a	11	[0, 0, 0]	-999	PAL1	5	R1318N
1514.856	0.628	1515241	ORIENT_END	n/a	-999	-999	n/a	n/a	n/a	n/a	11	[0, 0, 0]	-999	PAL1	5	R1318N
1515.484	0.001	1515869	REC_START	n/a	5	5	MAP	CAR	CAR	MAP	11	[0, 0, 0]	-999	PAL1	5	R1318N
1515.485	1.975	1515870	PROBE_START	n/a	5	5	MAP	CAR	CAR	MAP	11	[0, 0, 0]	-999	PAL1	5	R1318N
1517.46	2.063	1517845	REC_EVENT	1975	5	5	MAP	CAR	CAR	MAP	11	[0, 0, 0]	-999	PAL1	5	R1318N
1519.523	1.001	1519908	PROBE_END	n/a	5	5	MAP	n/a	CAR	MAP	11	[0, 0, 0]	-999	PAL1	5	R1318N
1520.524	0.012	1520909	REC_END	n/a	5	5	MAP	n/a	CAR	MAP	11	[0, 0, 0]	-999	PAL1	5	R1318N
1520.536	0.271	1520921	ORIENT_START	n/a	-999	-999	n/a	n/a	n/a	n/a	11	[0, 0, 0]	-999	PAL1	5	R1318N
1520.807	0.717	1521192	ORIENT_END	n/a	-999	-999	n/a	n/a	n/a	n/a	11	[0, 0, 0]	-999	PAL1	5	R1318N
1521.524	0.0	1521909	PROBE_START	n/a	2	6	RICE	FLOOR	FLOOR	RICE	11	[0, 0, 0]	-999	PAL1	5	R1318N
1521.524	2.121	1521909	REC_START	n/a	2	6	RICE	FLOOR	FLOOR	RICE	11	[0, 0, 0]	-999	PAL1	5	R1318N
1523.645	1.912	1524030	REC_EVENT	2121	2	6	RICE	FLOOR	FLOOR	RICE	11	[0, 0, 0]	-999	PAL1	5	R1318N
1525.557	1.0	1525942	PROBE_END	n/a	2	6	RICE	n/a	FLOOR	RICE	11	[0, 0, 0]	-999	PAL1	5	R1318N
1526.557	0.01	1526942	REC_END	n/a	2	6	RICE	n/a	FLOOR	RICE	11	[0, 0, 0]	-999	PAL1	5	R1318N
1526.567	0.0	1526952	RETRIEVAL_END	n/a	-999	-999	n/a	n/a	n/a	n/a	11	[0, 0, 0]	-999	PAL1	5	R1318N
1526.567	0.019	1526952	TRIAL_END	n/a	-999	-999	n/a	n/a	n/a	n/a	11	[0, 0, 0]	-999	PAL1	5	R1318N
1526.586	0.0	1526971	TRIAL_START	n/a	-999	-999	n/a	n/a	n/a	n/a	11	[0, 0, 0]	-999	PAL1	5	R1318N
1526.586	0.0	1526971	TRIAL	n/a	-999	-999	n/a	n/a	n/a	n/a	12	[0, 0, 0]	-999	PAL1	5	R1318N
1526.586	1.905	1526971	WAITING_START	n/a	-999	-999	n/a	n/a	n/a	n/a	12	[0, 0, 0]	-999	PAL1	5	R1318N
1528.491	0.001	1528876	WAITING_END	n/a	-999	-999	n/a	n/a	n/a	n/a	12	[0, 0, 0]	-999	PAL1	5	R1318N
1528.492	10.43	1528877	COUNTDOWN_START	n/a	-999	-999	n/a	n/a	n/a	n/a	12	[0, 0, 0]	-999	PAL1	5	R1318N
1538.922	0.0	1539306	COUNTDOWN_END	n/a	-999	-999	n/a	n/a	n/a	n/a	12	[0, 0, 0]	-999	PAL1	5	R1318N
1538.922	0.755	1539306	ORIENT_START	n/a	-999	-999	n/a	n/a	n/a	n/a	12	[0, 0, 0]	-999	PAL1	5	R1318N
1539.677	0.0	1540061	ENCODING_START	n/a	-999	-999	n/a	n/a	n/a	n/a	12	[0, 0, 0]	-999	PAL1	5	R1318N
1539.677	1.048	1540061	ORIENT_END	n/a	-999	-999	n/a	n/a	n/a	n/a	12	[0, 0, 0]	-999	PAL1	5	R1318N
1540.725	4.036	1541109	STUDY_PAIR	n/a	1	-999	n/a	WEB	OAK	WEB	12	[0, 0, 0]	-999	PAL1	5	R1318N
1544.761	0.553	1545145	STUDY_PAIR_OFF	n/a	1	-999	n/a	WEB	OAK	WEB	12	[0, 0, 0]	-999	PAL1	5	R1318N
1545.314	4.03	1545698	STUDY_PAIR	n/a	2	-999	n/a	HAT	HAT	WAVE	12	[0, 0, 0]	-999	PAL1	5	R1318N
1549.344	0.698	1549728	STUDY_PAIR_OFF	n/a	2	-999	n/a	HAT	HAT	WAVE	12	[0, 0, 0]	-999	PAL1	5	R1318N
1550.042	4.037	1550426	STUDY_PAIR	n/a	3	-999	n/a	n/a	SMOKE	MUD	12	[0, 0, 0]	-999	PAL1	5	R1318N
1554.079	0.513	1554463	STUDY_PAIR_OFF	n/a	3	-999	n/a	n/a	SMOKE	MUD	12	[0, 0, 0]	-999	PAL1	5	R1318N
1554.592	4.038	1554976	STUDY_PAIR	n/a	4	-999	n/a	TOY	TOY	LAMP	12	[0, 0, 0]	-999	PAL1	5	R1318N
1558.63	0.669	1559014	STUDY_PAIR_OFF	n/a	4	-999	n/a	TOY	TOY	LAMP	12	[0, 0, 0]	-999	PAL1	5	R1318N
1559.299	4.03	1559683	STUDY_PAIR	n/a	5	-999	n/a	BOOK	HAWK	BOOK	12	[0, 0, 0]	-999	PAL1	5	R1318N
1563.329	0.669	1563713	STUDY_PAIR_OFF	n/a	5	-999	n/a	BOOK	HAWK	BOOK	12	[0, 0, 0]	-999	PAL1	5	R1318N
1563.998	4.033	1564382	STUDY_PAIR	n/a	6	-999	n/a	SKI	SKI	BEAN	12	[0, 0, 0]	-999	PAL1	5	R1318N
1568.031	0.001	1568415	STUDY_PAIR_OFF	n/a	6	-999	n/a	SKI	SKI	BEAN	12	[0, 0, 0]	-999	PAL1	5	R1318N
1568.032	0.0	1568416	MATH_START	n/a	-999	-999	n/a	n/a	n/a	n/a	12	[0, 0, 0]	-999	PAL1	5	R1318N
1568.032	0.0	1568416	ENCODING_END	n/a	-999	-999	n/a	n/a	n/a	n/a	12	[0, 0, 0]	-999	PAL1	5	R1318N
1568.032	0.016	1568416	START	n/a	-999	-999	n/a	n/a	n/a	n/a	12	[-999, -999, -999]	-999	PAL1	5	R1318N
1568.048	2.833	1568432	PROB	2799	-999	-999	n/a	n/a	n/a	n/a	12	[7, 1, 8]	16	PAL1	5	R1318N
1570.881	3.151	1571265	PROB	3117	-999	-999	n/a	n/a	n/a	n/a	12	[9, 8, 7]	24	PAL1	5	R1318N
1574.032	3.234	1574415	PROB	3198	-999	-999	n/a	n/a	n/a	n/a	12	[4, 4, 9]	17	PAL1	5	R1318N
1577.266	2.082	1577649	PROB	2060	-999	-999	n/a	n/a	n/a	n/a	12	[1, 7, 1]	9	PAL1	5	R1318N
1579.348	4.885	1579731	PROB	4858	-999	-999	n/a	n/a	n/a	n/a	12	[1, 1, 2]	4	PAL1	5	R1318N
1584.233	4.501	1584616	PROB	4501	-999	-999	n/a	n/a	n/a	n/a	12	[8, 3, 1]	12	PAL1	5	R1318N
1588.734	0.017	1589117	STOP	n/a	-999	-999	n/a	n/a	n/a	n/a	12	[-999, -999, -999]	-999	PAL1	5	R1318N
1588.751	0.553	1589134	MATH_END	n/a	-999	-999	n/a	n/a	n/a	n/a	12	[0, 0, 0]	-999	PAL1	5	R1318N
1589.304	0.002	1589687	RETRIEVAL_START	n/a	-999	-999	n/a	n/a	n/a	n/a	12	[0, 0, 0]	-999	PAL1	5	R1318N
1589.306	0.279	1589689	ORIENT_START	n/a	-999	-999	n/a	n/a	n/a	n/a	12	[0, 0, 0]	-999	PAL1	5	R1318N
1589.585	0.616	1589968	ORIENT_END	n/a	-999	-999	n/a	n/a	n/a	n/a	12	[0, 0, 0]	-999	PAL1	5	R1318N
1590.201	0.0	1590584	REC_START	n/a	1	1	OAK	WEB	OAK	WEB	12	[0, 0, 0]	-999	PAL1	5	R1318N
1590.201	2.261	1590584	PROBE_START	n/a	1	1	OAK	WEB	OAK	WEB	12	[0, 0, 0]	-999	PAL1	5	R1318N
1592.462	1.773	1592845	REC_EVENT	2261	1	1	OAK	WEB	OAK	WEB	12	[0, 0, 0]	-999	PAL1	5	R1318N
1594.235	1.0	1594618	PROBE_END	n/a	1	1	OAK	n/a	OAK	WEB	12	[0, 0, 0]	-999	PAL1	5	R1318N
1595.235	0.01	1595618	REC_END	n/a	1	1	OAK	n/a	OAK	WEB	12	[0, 0, 0]	-999	PAL1	5	R1318N
1595.245	0.274	1595628	ORIENT_START	n/a	-999	-999	n/a	n/a	n/a	n/a	12	[0, 0, 0]	-999	PAL1	5	R1318N
1595.519	0.658	1595902	ORIENT_END	n/a	-999	-999	n/a	n/a	n/a	n/a	12	[0, 0, 0]	-999	PAL1	5	R1318N
1596.177	0.0	1596560	REC_START	n/a	6	2	BEAN	SKI	SKI	BEAN	12	[0, 0, 0]	-999	PAL1	5	R1318N
1596.177	1.88	1596560	PROBE_START	n/a	6	2	BEAN	SKI	SKI	BEAN	12	[0, 0, 0]	-999	PAL1	5	R1318N
1598.057	2.146	1598440	REC_EVENT	1880	6	2	BEAN	SKI	SKI	BEAN	12	[0, 0, 0]	-999	PAL1	5	R1318N
1600.203	1.001	1600586	PROBE_END	n/a	6	2	BEAN	n/a	SKI	BEAN	12	[0, 0, 0]	-999	PAL1	5	R1318N
1601.204	0.012	1601587	REC_END	n/a	6	2	BEAN	n/a	SKI	BEAN	12	[0, 0, 0]	-999	PAL1	5	R1318N
1601.216	0.271	1601599	ORIENT_START	n/a	-999	-999	n/a	n/a	n/a	n/a	12	[0, 0, 0]	-999	PAL1	5	R1318N
1601.487	0.53	1601870	ORIENT_END	n/a	-999	-999	n/a	n/a	n/a	n/a	12	[0, 0, 0]	-999	PAL1	5	R1318N
1602.017	0.0	1602400	REC_START	n/a	5	3	HAWK	BOOK	HAWK	BOOK	12	[0, 0, 0]	-999	PAL1	5	R1318N
1602.017	1.785	1602400	PROBE_START	n/a	5	3	HAWK	BOOK	HAWK	BOOK	12	[0, 0, 0]	-999	PAL1	5	R1318N
1603.802	2.252	1604185	REC_EVENT	1785	5	3	HAWK	BOOK	HAWK	BOOK	12	[0, 0, 0]	-999	PAL1	5	R1318N
1606.054	1.001	1606437	PROBE_END	n/a	5	3	HAWK	n/a	HAWK	BOOK	12	[0, 0, 0]	-999	PAL1	5	R1318N
1607.055	0.011	1607437	REC_END	n/a	5	3	HAWK	n/a	HAWK	BOOK	12	[0, 0, 0]	-999	PAL1	5	R1318N
1607.066	0.27	1607448	ORIENT_START	n/a	-999	-999	n/a	n/a	n/a	n/a	12	[0, 0, 0]	-999	PAL1	5	R1318N
1607.336	0.723	1607718	ORIENT_END	n/a	-999	-999	n/a	n/a	n/a	n/a	12	[0, 0, 0]	-999	PAL1	5	R1318N
1608.059	0.0	1608441	PROBE_START	n/a	2	4	WAVE	HAT	HAT	WAVE	12	[0, 0, 0]	-999	PAL1	5	R1318N
1608.059	1.898	1608441	REC_START	n/a	2	4	WAVE	HAT	HAT	WAVE	12	[0, 0, 0]	-999	PAL1	5	R1318N
1609.957	2.131	1610339	REC_EVENT	1898	2	4	WAVE	HAT	HAT	WAVE	12	[0, 0, 0]	-999	PAL1	5	R1318N
1612.088	1.001	1612470	PROBE_END	n/a	2	4	WAVE	n/a	HAT	WAVE	12	[0, 0, 0]	-999	PAL1	5	R1318N
1613.089	0.012	1613471	REC_END	n/a	2	4	WAVE	n/a	HAT	WAVE	12	[0, 0, 0]	-999	PAL1	5	R1318N
1613.101	0.27	1613483	ORIENT_START	n/a	-999	-999	n/a	n/a	n/a	n/a	12	[0, 0, 0]	-999	PAL1	5	R1318N
1613.371	0.562	1613753	ORIENT_END	n/a	-999	-999	n/a	n/a	n/a	n/a	12	[0, 0, 0]	-999	PAL1	5	R1318N
1613.933	0.0	1614315	REC_START	n/a	3	5	SMOKE	n/a	SMOKE	MUD	12	[0, 0, 0]	-999	PAL1	5	R1318N
1613.933	4.04	1614315	PROBE_START	n/a	3	5	SMOKE	n/a	SMOKE	MUD	12	[0, 0, 0]	-999	PAL1	5	R1318N
1617.973	1.0	1618355	PROBE_END	n/a	3	5	SMOKE	n/a	SMOKE	MUD	12	[0, 0, 0]	-999	PAL1	5	R1318N
1618.973	0.01	1619355	REC_END	n/a	3	5	SMOKE	n/a	SMOKE	MUD	12	[0, 0, 0]	-999	PAL1	5	R1318N
1618.983	0.273	1619365	ORIENT_START	n/a	-999	-999	n/a	n/a	n/a	n/a	12	[0, 0, 0]	-999	PAL1	5	R1318N
1619.256	0.531	1619638	ORIENT_END	n/a	-999	-999	n/a	n/a	n/a	n/a	12	[0, 0, 0]	-999	PAL1	5	R1318N
1619.787	0.18	1620169	REC_EVENT	5854	3	5	SMOKE	<>	SMOKE	MUD	12	[0, 0, 0]	-999	PAL1	5	R1318N
1619.967	0.001	1620349	REC_START	n/a	4	6	LAMP	TOY	TOY	LAMP	12	[0, 0, 0]	-999	PAL1	5	R1318N
1619.968	2.194	1620350	PROBE_START	n/a	4	6	LAMP	TOY	TOY	LAMP	12	[0, 0, 0]	-999	PAL1	5	R1318N
1622.162	1.828	1622544	REC_EVENT	2194	4	6	LAMP	TOY	TOY	LAMP	12	[0, 0, 0]	-999	PAL1	5	R1318N
1623.99	1.0	1624372	PROBE_END	n/a	4	6	LAMP	n/a	TOY	LAMP	12	[0, 0, 0]	-999	PAL1	5	R1318N
1624.99	0.011	1625372	REC_END	n/a	4	6	LAMP	n/a	TOY	LAMP	12	[0, 0, 0]	-999	PAL1	5	R1318N
1625.001	0.0	1625383	RETRIEVAL_END	n/a	-999	-999	n/a	n/a	n/a	n/a	12	[0, 0, 0]	-999	PAL1	5	R1318N
1625.001	0.019	1625383	TRIAL_END	n/a	-999	-999	n/a	n/a	n/a	n/a	12	[0, 0, 0]	-999	PAL1	5	R1318N
1625.02	0.0	1625402	TRIAL_START	n/a	-999	-999	n/a	n/a	n/a	n/a	12	[0, 0, 0]	-999	PAL1	5	R1318N
1625.02	0.0	1625402	TRIAL	n/a	-999	-999	n/a	n/a	n/a	n/a	13	[0, 0, 0]	-999	PAL1	5	R1318N
1625.02	1.504	1625402	WAITING_START	n/a	-999	-999	n/a	n/a	n/a	n/a	13	[0, 0, 0]	-999	PAL1	5	R1318N
1626.524	0.001	1626906	WAITING_END	n/a	-999	-999	n/a	n/a	n/a	n/a	13	[0, 0, 0]	-999	PAL1	5	R1318N
1626.525	10.429	1626907	COUNTDOWN_START	n/a	-999	-999	n/a	n/a	n/a	n/a	13	[0, 0, 0]	-999	PAL1	5	R1318N
1636.954	0.001	1637336	COUNTDOWN_END	n/a	-999	-999	n/a	n/a	n/a	n/a	13	[0, 0, 0]	-999	PAL1	5	R1318N
1636.955	0.654	1637337	ORIENT_START	n/a	-999	-999	n/a	n/a	n/a	n/a	13	[0, 0, 0]	-999	PAL1	5	R1318N
1637.609	0.001	1637991	ORIENT_END	n/a	-999	-999	n/a	n/a	n/a	n/a	13	[0, 0, 0]	-999	PAL1	5	R1318N
1637.61	1.172	1637992	ENCODING_START	n/a	-999	-999	n/a	n/a	n/a	n/a	13	[0, 0, 0]	-999	PAL1	5	R1318N
1638.782	4.028	1639164	STUDY_PAIR	n/a	1	-999	n/a	DRUM	DRUM	PIT	13	[0, 0, 0]	-999	PAL1	5	R1318N
1642.81	0.584	1643191	STUDY_PAIR_OFF	n/a	1	-999	n/a	DRUM	DRUM	PIT	13	[0, 0, 0]	-999	PAL1	5	R1318N
1643.394	4.034	1643775	STUDY_PAIR	n/a	2	-999	n/a	EEL	JEEP	EEL	13	[0, 0, 0]	-999	PAL1	5	R1318N
1647.428	0.581	1647809	STUDY_PAIR_OFF	n/a	2	-999	n/a	EEL	JEEP	EEL	13	[0, 0, 0]	-999	PAL1	5	R1318N
1648.009	4.036	1648390	STUDY_PAIR	n/a	3	-999	n/a	KITE	KITE	AXE	13	[0, 0, 0]	-999	PAL1	5	R1318N
1652.045	0.722	1652426	STUDY_PAIR_OFF	n/a	3	-999	n/a	KITE	KITE	AXE	13	[0, 0, 0]	-999	PAL1	5	R1318N
1652.767	4.029	1653148	STUDY_PAIR	n/a	4	-999	n/a	BANK	TOAST	INK	13	[0, 0, 0]	-999	PAL1	5	R1318N
1656.796	0.522	1657177	STUDY_PAIR_OFF	n/a	4	-999	n/a	BANK	TOAST	INK	13	[0, 0, 0]	-999	PAL1	5	R1318N
1657.318	4.027	1657699	STUDY_PAIR	n/a	5	-999	n/a	n/a	PEA	HOOK	13	[0, 0, 0]	-999	PAL1	5	R1318N
1661.345	0.536	1661726	STUDY_PAIR_OFF	n/a	5	-999	n/a	n/a	PEA	HOOK	13	[0, 0, 0]	-999	PAL1	5	R1318N
1661.881	4.033	1662262	STUDY_PAIR	n/a	6	-999	n/a	FLEA	FLEA	GRASS	13	[0, 0, 0]	-999	PAL1	5	R1318N
1665.914	0.001	1666295	STUDY_PAIR_OFF	n/a	6	-999	n/a	FLEA	FLEA	GRASS	13	[0, 0, 0]	-999	PAL1	5	R1318N
1665.915	0.0	1666296	ENCODING_END	n/a	-999	-999	n/a	n/a	n/a	n/a	13	[0, 0, 0]	-999	PAL1	5	R1318N
1665.915	0.0	1666296	MATH_START	n/a	-999	-999	n/a	n/a	n/a	n/a	13	[0, 0, 0]	-999	PAL1	5	R1318N
1665.915	0.015	1666296	START	n/a	-999	-999	n/a	n/a	n/a	n/a	13	[-999, -999, -999]	-999	PAL1	5	R1318N
1665.93	3.001	1666311	PROB	2965	-999	-999	n/a	n/a	n/a	n/a	13	[2, 2, 6]	10	PAL1	5	R1318N
1668.931	4.151	1669312	PROB	4123	-999	-999	n/a	n/a	n/a	n/a	13	[9, 4, 3]	16	PAL1	5	R1318N
1673.082	2.667	1673463	PROB	2629	-999	-999	n/a	n/a	n/a	n/a	13	[2, 1, 5]	8	PAL1	5	R1318N
1675.749	5.417	1676129	PROB	5385	-999	-999	n/a	n/a	n/a	n/a	13	[2, 7, 5]	14	PAL1	5	R1318N
1681.166	2.717	1681546	PROB	2689	-999	-999	n/a	n/a	n/a	n/a	13	[7, 6, 7]	20	PAL1	5	R1318N
1683.883	3.731	1684263	PROB	3731	-999	-999	n/a	n/a	n/a	n/a	13	[6, 3, 9]	18	PAL1	5	R1318N
1687.614	0.02	1687994	STOP	n/a	-999	-999	n/a	n/a	n/a	n/a	13	[-999, -999, -999]	-999	PAL1	5	R1318N
1687.634	0.623	1688014	MATH_END	n/a	-999	-999	n/a	n/a	n/a	n/a	13	[0, 0, 0]	-999	PAL1	5	R1318N
1688.257	0.002	1688637	RETRIEVAL_START	n/a	-999	-999	n/a	n/a	n/a	n/a	13	[0, 0, 0]	-999	PAL1	5	R1318N
1688.259	0.275	1688639	ORIENT_START	n/a	-999	-999	n/a	n/a	n/a	n/a	13	[0, 0, 0]	-999	PAL1	5	R1318N
1688.534	0.556	1688914	ORIENT_END	n/a	-999	-999	n/a	n/a	n/a	n/a	13	[0, 0, 0]	-999	PAL1	5	R1318N
1689.09	0.0	1689470	REC_START	n/a	3	1	AXE	KITE	KITE	AXE	13	[0, 0, 0]	-999	PAL1	5	R1318N
1689.09	2.278	1689470	PROBE_START	n/a	3	1	AXE	KITE	KITE	AXE	13	[0, 0, 0]	-999	PAL1	5	R1318N
1691.368	1.75	1691748	REC_EVENT	2278	3	1	AXE	KITE	KITE	AXE	13	[0, 0, 0]	-999	PAL1	5	R1318N
1693.118	1.001	1693498	PROBE_END	n/a	3	1	AXE	n/a	KITE	AXE	13	[0, 0, 0]	-999	PAL1	5	R1318N
1694.119	0.011	1694499	REC_END	n/a	3	1	AXE	n/a	KITE	AXE	13	[0, 0, 0]	-999	PAL1	5	R1318N
1694.13	0.271	1694510	ORIENT_START	n/a	-999	-999	n/a	n/a	n/a	n/a	13	[0, 0, 0]	-999	PAL1	5	R1318N
1694.401	0.717	1694781	ORIENT_END	n/a	-999	-999	n/a	n/a	n/a	n/a	13	[0, 0, 0]	-999	PAL1	5	R1318N
1695.118	0.0	1695498	REC_START	n/a	6	2	GRASS	FLEA	FLEA	GRASS	13	[0, 0, 0]	-999	PAL1	5	R1318N
1695.118	2.851	1695498	PROBE_START	n/a	6	2	GRASS	FLEA	FLEA	GRASS	13	[0, 0, 0]	-999	PAL1	5	R1318N
1697.969	1.184	1698349	REC_EVENT	2851	6	2	GRASS	FLEA	FLEA	GRASS	13	[0, 0, 0]	-999	PAL1	5	R1318N
1699.153	0.999	1699533	PROBE_END	n/a	6	2	GRASS	n/a	FLEA	GRASS	13	[0, 0, 0]	-999	PAL1	5	R1318N
1700.152	0.011	1700532	REC_END	n/a	6	2	GRASS	n/a	FLEA	GRASS	13	[0, 0, 0]	-999	PAL1	5	R1318N
