onset	duration	sample	trial_type	response_time	stim_file	serialpos	probepos	probe_word	resp_word	study_1	study_2	list	test	answer	experiment	session	subject
0.0	88.003	124072	SESS_START	n/a	n/a	-999	-999	n/a	n/a	n/a	n/a	-999	[0, 0, 0]	-999	PAL1	1	R1100D
88.003	1.016	264870	START	n/a	n/a	-999	-999	n/a	n/a	n/a	n/a	-1	[-999, -999, -999]	-999	PAL1	1	R1100D
89.019	4.285	266496	PROB	4.255	n/a	-999	-999	n/a	n/a	n/a	n/a	-1	[8, 5, 2]	15	PAL1	1	R1100D
93.304	3.051	273352	PROB	3.018	n/a	-999	-999	n/a	n/a	n/a	n/a	-1	[8, 8, 8]	24	PAL1	1	R1100D
96.355	3.566	278233	PROB	3.542	n/a	-999	-999	n/a	n/a	n/a	n/a	-1	[6, 1, 7]	14	PAL1	1	R1100D
99.921	3.268	283938	PROB	3.232	n/a	-999	-999	n/a	n/a	n/a	n/a	-1	[4, 4, 8]	16	PAL1	1	R1100D
103.189	3.633	289167	PROB	3.612	n/a	-999	-999	n/a	n/a	n/a	n/a	-1	[7, 5, 6]	18	PAL1	1	R1100D
106.822	3.099	294979	PROB	3.099	n/a	-999	-999	n/a	n/a	n/a	n/a	-1	[3, 1, 8]	12	PAL1	1	R1100D
109.921	44.257	299938	STOP	n/a	n/a	-999	-999	n/a	n/a	n/a	n/a	-1	[-999, -999, -999]	-999	PAL1	1	R1100D
154.178	10.439	370745	ENCODING_START	n/a	n/a	0	-999	n/a	n/a	n/a	n/a	1	[0, 0, 0]	-999	PAL1	1	R1100D
164.617	0.275	387447	STUDY_ORIENT	n/a	n/a	1	3	DOCK	n/a	DOCK	CAGE	1	[0, 0, 0]	-999	PAL1	1	R1100D
165.401	4.0	388701	STUDY_PAIR	n/a	wordpools/wordpool_EN.txt	1	3	DOCK	n/a	DOCK	CAGE	1	[0, 0, 0]	-999	PAL1	1	R1100D
170.435	0.275	396755	STUDY_ORIENT	n/a	n/a	2	4	PURSE	PASS	PEN	PURSE	1	[0, 0, 0]	-999	PAL1	1	R1100D
171.419	4.0	398330	STUDY_PAIR	n/a	wordpools/wordpool_EN.txt	2	4	PURSE	PASS	PEN	PURSE	1	[0, 0, 0]	-999	PAL1	1	R1100D
176.453	0.275	406384	STUDY_ORIENT	n/a	n/a	3	5	SHIELD	n/a	SHIELD	TOAD	1	[0, 0, 0]	-999	PAL1	1	R1100D
177.437	4.0	407958	STUDY_PAIR	n/a	wordpools/wordpool_EN.txt	3	5	SHIELD	n/a	SHIELD	TOAD	1	[0, 0, 0]	-999	PAL1	1	R1100D
182.471	0.275	416012	STUDY_ORIENT	n/a	n/a	4	2	JUICE	PASS	JUICE	LIP	1	[0, 0, 0]	-999	PAL1	1	R1100D
183.371	4.0	417452	STUDY_PAIR	n/a	wordpools/wordpool_EN.txt	4	2	JUICE	PASS	JUICE	LIP	1	[0, 0, 0]	-999	PAL1	1	R1100D
188.405	0.275	425506	STUDY_ORIENT	n/a	n/a	5	1	MILK	n/a	MILK	LAMP	1	[0, 0, 0]	-999	PAL1	1	R1100D
189.305	4.0	426946	STUDY_PAIR	n/a	wordpools/wordpool_EN.txt	5	1	MILK	n/a	MILK	LAMP	1	[0, 0, 0]	-999	PAL1	1	R1100D
194.323	0.275	434974	STUDY_ORIENT	n/a	n/a	6	6	KITE	n/a	WAVE	KITE	1	[0, 0, 0]	-999	PAL1	1	R1100D
195.223	4.0	436414	STUDY_PAIR	n/a	wordpools/wordpool_EN.txt	6	6	KITE	n/a	WAVE	KITE	1	[0, 0, 0]	-999	PAL1	1	R1100D
199.224	1.0	442815	START	n/a	n/a	-999	-999	n/a	n/a	n/a	n/a	1	[-999, -999, -999]	-999	PAL1	1	R1100D
200.224	0.017	444415	MATH_START	n/a	n/a	-999	-999	n/a	n/a	n/a	n/a	1	[0, 0, 0]	-999	PAL1	1	R1100D
200.241	4.6	444443	PROB	4.568	n/a	-999	-999	n/a	n/a	n/a	n/a	1	[8, 9, 1]	18	PAL1	1	R1100D
204.841	3.784	451802	PROB	3.76	n/a	-999	-999	n/a	n/a	n/a	n/a	1	[8, 9, 4]	21	PAL1	1	R1100D
208.625	3.618	457856	PROB	3.585	n/a	-999	-999	n/a	n/a	n/a	n/a	1	[5, 1, 7]	14	PAL1	1	R1100D
212.243	3.55	463645	PROB	3.526	n/a	-999	-999	n/a	n/a	n/a	n/a	1	[1, 4, 3]	8	PAL1	1	R1100D
215.793	2.635	469325	PROB	2.601	n/a	-999	-999	n/a	n/a	n/a	n/a	1	[5, 5, 1]	11	PAL1	1	R1100D
218.428	3.758	473540	PROB	3.758	n/a	-999	-999	n/a	n/a	n/a	n/a	1	[2, 7, 5]	12	PAL1	1	R1100D
222.186	0.009	479553	STOP	n/a	n/a	-999	-999	n/a	n/a	n/a	n/a	1	[-999, -999, -999]	-999	PAL1	1	R1100D
222.195	0.0	479567	MATH_END	n/a	n/a	-999	-999	n/a	n/a	n/a	n/a	1	[0, 0, 0]	-999	PAL1	1	R1100D
222.195	0.017	479567	TEST_START	n/a	n/a	-999	-999	n/a	n/a	n/a	n/a	1	[0, 0, 0]	-999	PAL1	1	R1100D
222.212	0.275	479594	TEST_ORIENT	n/a	n/a	5	1	MILK	n/a	MILK	LAMP	1	[0, 0, 0]	-999	PAL1	1	R1100D
223.161	4.0	481113	TEST_PROBE	n/a	wordpools/wordpool_EN.txt	5	1	MILK	n/a	MILK	LAMP	1	[0, 0, 0]	-999	PAL1	1	R1100D
223.162	5.021	481114	REC_START	n/a	n/a	5	-999	n/a	n/a	n/a	n/a	1	[0, 0, 0]	-999	PAL1	1	R1100D
228.183	0.004	489148	REC_EVENT	5.021	n/a	5	1	MILK	<>	MILK	LAMP	1	[0, 0, 0]	-999	PAL1	1	R1100D
228.187	0.009	489154	REC_END	n/a	n/a	5	-999	n/a	n/a	n/a	n/a	1	[0, 0, 0]	-999	PAL1	1	R1100D
228.196	0.275	489168	TEST_ORIENT	n/a	n/a	4	2	JUICE	PASS	JUICE	LIP	1	[0, 0, 0]	-999	PAL1	1	R1100D
229.095	4.0	490607	TEST_PROBE	n/a	wordpools/wordpool_EN.txt	4	2	JUICE	PASS	JUICE	LIP	1	[0, 0, 0]	-999	PAL1	1	R1100D
229.096	1.919	490608	REC_START	n/a	n/a	4	-999	n/a	PASS	n/a	n/a	1	[0, 0, 0]	-999	PAL1	1	R1100D
231.015	3.089	493679	REC_EVENT	1.919	n/a	4	2	JUICE	PASS	JUICE	LIP	1	[0, 0, 0]	-999	PAL1	1	R1100D
234.104	0.009	498621	REC_END	n/a	n/a	4	-999	n/a	n/a	n/a	n/a	1	[0, 0, 0]	-999	PAL1	1	R1100D
234.113	0.275	498635	TEST_ORIENT	n/a	n/a	1	3	DOCK	n/a	DOCK	CAGE	1	[0, 0, 0]	-999	PAL1	1	R1100D
234.98	4.0	500022	TEST_PROBE	n/a	wordpools/wordpool_EN.txt	1	3	DOCK	n/a	DOCK	CAGE	1	[0, 0, 0]	-999	PAL1	1	R1100D
234.98	5.015	500022	REC_START	n/a	n/a	1	-999	n/a	n/a	n/a	n/a	1	[0, 0, 0]	-999	PAL1	1	R1100D
239.995	0.002	508046	REC_EVENT	5.015	n/a	1	3	DOCK	<>	DOCK	CAGE	1	[0, 0, 0]	-999	PAL1	1	R1100D
239.997	0.017	508049	REC_END	n/a	n/a	1	-999	n/a	n/a	n/a	n/a	1	[0, 0, 0]	-999	PAL1	1	R1100D
240.014	0.275	508076	TEST_ORIENT	n/a	n/a	2	4	PURSE	PASS	PEN	PURSE	1	[0, 0, 0]	-999	PAL1	1	R1100D
240.964	4.0	509596	TEST_PROBE	n/a	wordpools/wordpool_EN.txt	2	4	PURSE	PASS	PEN	PURSE	1	[0, 0, 0]	-999	PAL1	1	R1100D
240.965	3.101	509598	REC_START	n/a	n/a	2	-999	n/a	PASS	n/a	n/a	1	[0, 0, 0]	-999	PAL1	1	R1100D
244.066	1.924	514559	REC_EVENT	3.101	n/a	2	4	PURSE	PASS	PEN	PURSE	1	[0, 0, 0]	-999	PAL1	1	R1100D
245.99	0.008	517637	REC_END	n/a	n/a	2	-999	n/a	n/a	n/a	n/a	1	[0, 0, 0]	-999	PAL1	1	R1100D
245.998	0.275	517650	TEST_ORIENT	n/a	n/a	3	5	SHIELD	n/a	SHIELD	TOAD	1	[0, 0, 0]	-999	PAL1	1	R1100D
246.965	4.0	519197	TEST_PROBE	n/a	wordpools/wordpool_EN.txt	3	5	SHIELD	n/a	SHIELD	TOAD	1	[0, 0, 0]	-999	PAL1	1	R1100D
246.966	5.008	519199	REC_START	n/a	n/a	3	-999	n/a	n/a	n/a	n/a	1	[0, 0, 0]	-999	PAL1	1	R1100D
251.974	0.001	527211	REC_END	n/a	n/a	3	-999	n/a	n/a	n/a	n/a	1	[0, 0, 0]	-999	PAL1	1	R1100D
251.975	0.008	527213	REC_EVENT	5.009	n/a	3	5	SHIELD	<>	SHIELD	TOAD	1	[0, 0, 0]	-999	PAL1	1	R1100D
251.983	0.275	527226	TEST_ORIENT	n/a	n/a	6	6	KITE	n/a	WAVE	KITE	1	[0, 0, 0]	-999	PAL1	1	R1100D
252.933	4.0	528746	TEST_PROBE	n/a	wordpools/wordpool_EN.txt	6	6	KITE	n/a	WAVE	KITE	1	[0, 0, 0]	-999	PAL1	1	R1100D
252.934	5.016	528747	REC_START	n/a	n/a	6	-999	n/a	n/a	n/a	n/a	1	[0, 0, 0]	-999	PAL1	1	R1100D
257.95	0.005	536772	REC_END	n/a	n/a	6	-999	n/a	n/a	n/a	n/a	1	[0, 0, 0]	-999	PAL1	1	R1100D
257.955	7.543	536780	REC_EVENT	5.021	n/a	6	6	KITE	<>	WAVE	KITE	1	[0, 0, 0]	-999	PAL1	1	R1100D
265.498	10.439	548849	ENCODING_START	n/a	n/a	0	-999	n/a	n/a	n/a	n/a	2	[0, 0, 0]	-999	PAL1	1	R1100D
275.937	0.275	565550	STUDY_ORIENT	n/a	n/a	1	5	CUP	CLOWN	CLOWN	CUP	2	[0, 0, 0]	-999	PAL1	1	R1100D
276.804	4.0	566937	STUDY_PAIR	n/a	wordpools/wordpool_EN.txt	1	5	CUP	CLOWN	CLOWN	CUP	2	[0, 0, 0]	-999	PAL1	1	R1100D
281.838	0.275	574991	STUDY_ORIENT	n/a	n/a	2	6	STAIR	PASS	EAR	STAIR	2	[0, 0, 0]	-999	PAL1	1	R1100D
282.805	4.0	576539	STUDY_PAIR	n/a	wordpools/wordpool_EN.txt	2	6	STAIR	PASS	EAR	STAIR	2	[0, 0, 0]	-999	PAL1	1	R1100D
287.823	0.275	584567	STUDY_ORIENT	n/a	n/a	3	1	CANE	n/a	CANE	DRESS	2	[0, 0, 0]	-999	PAL1	1	R1100D
288.69	4.0	585954	STUDY_PAIR	n/a	wordpools/wordpool_EN.txt	3	1	CANE	n/a	CANE	DRESS	2	[0, 0, 0]	-999	PAL1	1	R1100D
293.724	0.275	594008	STUDY_ORIENT	n/a	n/a	4	2	LOCK	n/a	LOCK	SNAKE	2	[0, 0, 0]	-999	PAL1	1	R1100D
294.574	4.0	595368	STUDY_PAIR	n/a	wordpools/wordpool_EN.txt	4	2	LOCK	n/a	LOCK	SNAKE	2	[0, 0, 0]	-999	PAL1	1	R1100D
299.608	0.275	603422	STUDY_ORIENT	n/a	n/a	5	3	STORM	GRAPE	STORM	GRAPE	2	[0, 0, 0]	-999	PAL1	1	R1100D
300.41	4.0	604705	STUDY_PAIR	n/a	wordpools/wordpool_EN.txt	5	3	STORM	GRAPE	STORM	GRAPE	2	[0, 0, 0]	-999	PAL1	1	R1100D
305.444	0.275	612759	STUDY_ORIENT	n/a	n/a	6	4	SPOON	OWL	OWL	SPOON	2	[0, 0, 0]	-999	PAL1	1	R1100D
306.344	4.0	614199	STUDY_PAIR	n/a	wordpools/wordpool_EN.txt	6	4	SPOON	OWL	OWL	SPOON	2	[0, 0, 0]	-999	PAL1	1	R1100D
310.362	0.999	620628	START	n/a	n/a	-999	-999	n/a	n/a	n/a	n/a	2	[-999, -999, -999]	-999	PAL1	1	R1100D
311.361	0.017	622226	MATH_START	n/a	n/a	-999	-999	n/a	n/a	n/a	n/a	2	[0, 0, 0]	-999	PAL1	1	R1100D
311.378	5.084	622253	PROB	5.064	n/a	-999	-999	n/a	n/a	n/a	n/a	2	[3, 8, 7]	18	PAL1	1	R1100D
316.462	3.35	630387	PROB	3.315	n/a	-999	-999	n/a	n/a	n/a	n/a	2	[6, 4, 4]	14	PAL1	1	R1100D
319.812	3.784	635747	PROB	3.749	n/a	-999	-999	n/a	n/a	n/a	n/a	2	[3, 4, 7]	14	PAL1	1	R1100D
323.596	4.218	641801	PROB	4.197	n/a	-999	-999	n/a	n/a	n/a	n/a	2	[9, 2, 5]	16	PAL1	1	R1100D
327.814	3.971	648549	PROB	3.971	n/a	-999	-999	n/a	n/a	n/a	n/a	2	[3, 6, 8]	17	PAL1	1	R1100D
331.785	0.013	654903	STOP	n/a	n/a	-999	-999	n/a	n/a	n/a	n/a	2	[-999, -999, -999]	-999	PAL1	1	R1100D
331.798	0.0	654924	TEST_START	n/a	n/a	-999	-999	n/a	n/a	n/a	n/a	2	[0, 0, 0]	-999	PAL1	1	R1100D
331.798	0.016	654924	MATH_END	n/a	n/a	-999	-999	n/a	n/a	n/a	n/a	2	[0, 0, 0]	-999	PAL1	1	R1100D
331.814	0.275	654949	TEST_ORIENT	n/a	n/a	3	1	CANE	n/a	CANE	DRESS	2	[0, 0, 0]	-999	PAL1	1	R1100D
332.698	4.0	656363	TEST_PROBE	n/a	wordpools/wordpool_EN.txt	3	1	CANE	n/a	CANE	DRESS	2	[0, 0, 0]	-999	PAL1	1	R1100D
332.7	5.023	656367	REC_START	n/a	n/a	3	-999	n/a	n/a	n/a	n/a	2	[0, 0, 0]	-999	PAL1	1	R1100D
337.723	0.004	664403	REC_END	n/a	n/a	3	-999	n/a	n/a	n/a	n/a	2	[0, 0, 0]	-999	PAL1	1	R1100D
337.727	0.005	664409	REC_EVENT	5.027	n/a	3	1	CANE	<>	CANE	DRESS	2	[0, 0, 0]	-999	PAL1	1	R1100D
337.732	0.275	664417	TEST_ORIENT	n/a	n/a	4	2	LOCK	n/a	LOCK	SNAKE	2	[0, 0, 0]	-999	PAL1	1	R1100D
338.566	4.0	665752	TEST_PROBE	n/a	wordpools/wordpool_EN.txt	4	2	LOCK	n/a	LOCK	SNAKE	2	[0, 0, 0]	-999	PAL1	1	R1100D
338.566	5.015	665752	REC_START	n/a	n/a	4	-999	n/a	n/a	n/a	n/a	2	[0, 0, 0]	-999	PAL1	1	R1100D
343.581	0.002	673775	REC_EVENT	5.015	n/a	4	2	LOCK	<>	LOCK	SNAKE	2	[0, 0, 0]	-999	PAL1	1	R1100D
343.583	0.017	673779	REC_END	n/a	n/a	4	-999	n/a	n/a	n/a	n/a	2	[0, 0, 0]	-999	PAL1	1	R1100D
343.6	0.275	673806	TEST_ORIENT	n/a	n/a	5	3	STORM	GRAPE	STORM	GRAPE	2	[0, 0, 0]	-999	PAL1	1	R1100D
344.583	4.0	675379	TEST_PROBE	n/a	wordpools/wordpool_EN.txt	5	3	STORM	GRAPE	STORM	GRAPE	2	[0, 0, 0]	-999	PAL1	1	R1100D
344.584	3.263	675380	REC_START	n/a	n/a	5	-999	n/a	GRAPE	n/a	n/a	2	[0, 0, 0]	-999	PAL1	1	R1100D
347.847	1.745	680601	REC_EVENT	3.263	n/a	5	3	STORM	GRAPE	STORM	GRAPE	2	[0, 0, 0]	-999	PAL1	1	R1100D
349.592	0.009	683393	REC_END	n/a	n/a	5	-999	n/a	n/a	n/a	n/a	2	[0, 0, 0]	-999	PAL1	1	R1100D
349.601	0.275	683407	TEST_ORIENT	n/a	n/a	6	4	SPOON	OWL	OWL	SPOON	2	[0, 0, 0]	-999	PAL1	1	R1100D
350.519	0.0	684876	REC_START	n/a	n/a	6	-999	n/a	OWL	n/a	n/a	2	[0, 0, 0]	-999	PAL1	1	R1100D
350.519	4.0	684876	TEST_PROBE	n/a	wordpools/wordpool_EN.txt	6	4	SPOON	OWL	OWL	SPOON	2	[0, 0, 0]	-999	PAL1	1	R1100D
351.964	3.572	687188	REC_EVENT	1.445	n/a	6	4	SPOON	OWL	OWL	SPOON	2	[0, 0, 0]	-999	PAL1	1	R1100D
355.536	0.016	692903	REC_END	n/a	n/a	6	-999	n/a	n/a	n/a	n/a	2	[0, 0, 0]	-999	PAL1	1	R1100D
355.552	0.275	692928	TEST_ORIENT	n/a	n/a	1	5	CUP	CLOWN	CLOWN	CUP	2	[0, 0, 0]	-999	PAL1	1	R1100D
356.586	4.0	694582	TEST_PROBE	n/a	wordpools/wordpool_EN.txt	1	5	CUP	CLOWN	CLOWN	CUP	2	[0, 0, 0]	-999	PAL1	1	R1100D
356.586	1.05	694582	REC_START	n/a	n/a	1	-999	n/a	CLOWN	n/a	n/a	2	[0, 0, 0]	-999	PAL1	1	R1100D
357.636	3.967	696262	REC_EVENT	1.05	n/a	1	5	CUP	CLOWN	CLOWN	CUP	2	[0, 0, 0]	-999	PAL1	1	R1100D
361.603	0.017	702609	REC_END	n/a	n/a	1	-999	n/a	n/a	n/a	n/a	2	[0, 0, 0]	-999	PAL1	1	R1100D
361.62	0.275	702636	TEST_ORIENT	n/a	n/a	2	6	STAIR	PASS	EAR	STAIR	2	[0, 0, 0]	-999	PAL1	1	R1100D
362.637	4.0	704264	TEST_PROBE	n/a	wordpools/wordpool_EN.txt	2	6	STAIR	PASS	EAR	STAIR	2	[0, 0, 0]	-999	PAL1	1	R1100D
362.638	2.668	704265	REC_START	n/a	n/a	2	-999	n/a	PASS	n/a	n/a	2	[0, 0, 0]	-999	PAL1	1	R1100D
365.306	2.348	708534	REC_EVENT	2.668	n/a	2	6	STAIR	PASS	EAR	STAIR	2	[0, 0, 0]	-999	PAL1	1	R1100D
367.654	10.131	712290	REC_END	n/a	n/a	2	-999	n/a	n/a	n/a	n/a	2	[0, 0, 0]	-999	PAL1	1	R1100D
377.785	10.441	728499	ENCODING_START	n/a	n/a	0	-999	n/a	n/a	n/a	n/a	3	[0, 0, 0]	-999	PAL1	1	R1100D
388.226	0.275	745204	STUDY_ORIENT	n/a	n/a	1	1	PLANT	n/a	TOOL	PLANT	3	[0, 0, 0]	-999	PAL1	1	R1100D
389.025	4.0	746482	STUDY_PAIR	n/a	wordpools/wordpool_EN.txt	1	1	PLANT	n/a	TOOL	PLANT	3	[0, 0, 0]	-999	PAL1	1	R1100D
394.059	0.275	754536	STUDY_ORIENT	n/a	n/a	2	6	CROW	PASS	CROW	ZOO	3	[0, 0, 0]	-999	PAL1	1	R1100D
395.026	4.0	756083	STUDY_PAIR	n/a	wordpools/wordpool_EN.txt	2	6	CROW	PASS	CROW	ZOO	3	[0, 0, 0]	-999	PAL1	1	R1100D
400.044	0.275	764112	STUDY_ORIENT	n/a	n/a	3	3	PIG	KEY	KEY	PIG	3	[0, 0, 0]	-999	PAL1	1	R1100D
400.894	4.0	765472	STUDY_PAIR	n/a	wordpools/wordpool_EN.txt	3	3	PIG	KEY	KEY	PIG	3	[0, 0, 0]	-999	PAL1	1	R1100D
405.928	0.275	773526	STUDY_ORIENT	n/a	n/a	4	2	BAND	PASS	ROSE	BAND	3	[0, 0, 0]	-999	PAL1	1	R1100D
406.845	4.0	774993	STUDY_PAIR	n/a	wordpools/wordpool_EN.txt	4	2	BAND	PASS	ROSE	BAND	3	[0, 0, 0]	-999	PAL1	1	R1100D
411.879	0.275	783047	STUDY_ORIENT	n/a	n/a	5	5	CAKE	n/a	CAKE	POOL	3	[0, 0, 0]	-999	PAL1	1	R1100D
412.679	4.0	784327	STUDY_PAIR	n/a	wordpools/wordpool_EN.txt	5	5	CAKE	n/a	CAKE	POOL	3	[0, 0, 0]	-999	PAL1	1	R1100D
417.697	0.275	792355	STUDY_ORIENT	n/a	n/a	6	4	FORK	ROAD	FORK	MOUTH	3	[0, 0, 0]	-999	PAL1	1	R1100D
418.482	4.0	793611	STUDY_PAIR	n/a	wordpools/wordpool_EN.txt	6	4	FORK	ROAD	FORK	MOUTH	3	[0, 0, 0]	-999	PAL1	1	R1100D
422.499	1.0	800038	START	n/a	n/a	-999	-999	n/a	n/a	n/a	n/a	3	[-999, -999, -999]	-999	PAL1	1	R1100D
423.499	0.017	801638	MATH_START	n/a	n/a	-999	-999	n/a	n/a	n/a	n/a	3	[0, 0, 0]	-999	PAL1	1	R1100D
423.516	3.499	801665	PROB	3.469	n/a	-999	-999	n/a	n/a	n/a	n/a	3	[3, 8, 4]	15	PAL1	1	R1100D
427.015	3.801	807263	PROB	3.778	n/a	-999	-999	n/a	n/a	n/a	n/a	3	[2, 2, 3]	7	PAL1	1	R1100D
430.816	2.917	813345	PROB	2.897	n/a	-999	-999	n/a	n/a	n/a	n/a	3	[2, 1, 4]	7	PAL1	1	R1100D
433.733	5.835	818012	PROB	5.805	n/a	-999	-999	n/a	n/a	n/a	n/a	3	[9, 4, 4]	15	PAL1	1	R1100D
439.568	5.057	827347	PROB	5.057	n/a	-999	-999	n/a	n/a	n/a	n/a	3	[9, 4, 2]	15	PAL1	1	R1100D
444.625	0.01	835438	STOP	n/a	n/a	-999	-999	n/a	n/a	n/a	n/a	3	[-999, -999, -999]	-999	PAL1	1	R1100D
444.635	0.0	835454	TEST_START	n/a	n/a	-999	-999	n/a	n/a	n/a	n/a	3	[0, 0, 0]	-999	PAL1	1	R1100D
444.635	0.017	835454	MATH_END	n/a	n/a	-999	-999	n/a	n/a	n/a	n/a	3	[0, 0, 0]	-999	PAL1	1	R1100D
444.652	0.275	835481	TEST_ORIENT	n/a	n/a	1	1	PLANT	n/a	TOOL	PLANT	3	[0, 0, 0]	-999	PAL1	1	R1100D
445.669	4.0	837108	TEST_PROBE	n/a	wordpools/wordpool_EN.txt	1	1	PLANT	n/a	TOOL	PLANT	3	[0, 0, 0]	-999	PAL1	1	R1100D
445.67	5.015	837110	REC_START	n/a	n/a	1	-999	n/a	n/a	n/a	n/a	3	[0, 0, 0]	-999	PAL1	1	R1100D
450.685	0.001	845134	REC_EVENT	5.015	n/a	1	1	PLANT	<>	TOOL	PLANT	3	[0, 0, 0]	-999	PAL1	1	R1100D
450.686	0.017	845135	REC_END	n/a	n/a	1	-999	n/a	n/a	n/a	n/a	3	[0, 0, 0]	-999	PAL1	1	R1100D
450.703	0.275	845162	TEST_ORIENT	n/a	n/a	4	2	BAND	PASS	ROSE	BAND	3	[0, 0, 0]	-999	PAL1	1	R1100D
451.62	4.0	846629	TEST_PROBE	n/a	wordpools/wordpool_EN.txt	4	2	BAND	PASS	ROSE	BAND	3	[0, 0, 0]	-999	PAL1	1	R1100D
451.62	4.131	846629	REC_START	n/a	n/a	4	-999	n/a	PASS	n/a	n/a	3	[0, 0, 0]	-999	PAL1	1	R1100D
455.751	0.886	853239	REC_EVENT	4.131	n/a	4	2	BAND	PASS	ROSE	BAND	3	[0, 0, 0]	-999	PAL1	1	R1100D
456.637	0.017	854656	REC_END	n/a	n/a	4	-999	n/a	n/a	n/a	n/a	3	[0, 0, 0]	-999	PAL1	1	R1100D
456.654	0.275	854683	TEST_ORIENT	n/a	n/a	3	3	PIG	KEY	KEY	PIG	3	[0, 0, 0]	-999	PAL1	1	R1100D
457.489	4.0	856019	TEST_PROBE	n/a	wordpools/wordpool_EN.txt	3	3	PIG	KEY	KEY	PIG	3	[0, 0, 0]	-999	PAL1	1	R1100D
457.489	1.582	856019	REC_START	n/a	n/a	3	-999	n/a	KEY	n/a	n/a	3	[0, 0, 0]	-999	PAL1	1	R1100D
459.071	3.435	858551	REC_EVENT	1.582	n/a	3	3	PIG	KEY	KEY	PIG	3	[0, 0, 0]	-999	PAL1	1	R1100D
462.506	0.017	864046	REC_END	n/a	n/a	3	-999	n/a	n/a	n/a	n/a	3	[0, 0, 0]	-999	PAL1	1	R1100D
462.523	0.275	864073	TEST_ORIENT	n/a	n/a	6	4	FORK	ROAD	FORK	MOUTH	3	[0, 0, 0]	-999	PAL1	1	R1100D
463.373	4.0	865433	TEST_PROBE	n/a	wordpools/wordpool_EN.txt	6	4	FORK	ROAD	FORK	MOUTH	3	[0, 0, 0]	-999	PAL1	1	R1100D
463.374	2.739	865435	REC_START	n/a	n/a	6	-999	n/a	ROAD	n/a	n/a	3	[0, 0, 0]	-999	PAL1	1	R1100D
466.113	2.269	869817	REC_EVENT	2.739	n/a	6	4	FORK	ROAD	FORK	MOUTH	3	[0, 0, 0]	-999	PAL1	1	R1100D
468.382	0.009	873447	REC_END	n/a	n/a	6	-999	n/a	n/a	n/a	n/a	3	[0, 0, 0]	-999	PAL1	1	R1100D
468.391	0.275	873462	TEST_ORIENT	n/a	n/a	5	5	CAKE	n/a	CAKE	POOL	3	[0, 0, 0]	-999	PAL1	1	R1100D
469.258	4.0	874849	TEST_PROBE	n/a	wordpools/wordpool_EN.txt	5	5	CAKE	n/a	CAKE	POOL	3	[0, 0, 0]	-999	PAL1	1	R1100D
469.258	5.015	874849	REC_START	n/a	n/a	5	-999	n/a	n/a	n/a	n/a	3	[0, 0, 0]	-999	PAL1	1	R1100D
474.273	0.002	882873	REC_EVENT	5.015	n/a	5	5	CAKE	<>	CAKE	POOL	3	[0, 0, 0]	-999	PAL1	1	R1100D
474.275	0.017	882876	REC_END	n/a	n/a	5	-999	n/a	n/a	n/a	n/a	3	[0, 0, 0]	-999	PAL1	1	R1100D
474.292	0.275	882903	TEST_ORIENT	n/a	n/a	2	6	CROW	PASS	CROW	ZOO	3	[0, 0, 0]	-999	PAL1	1	R1100D
475.325	4.0	884556	TEST_PROBE	n/a	wordpools/wordpool_EN.txt	2	6	CROW	PASS	CROW	ZOO	3	[0, 0, 0]	-999	PAL1	1	R1100D
475.326	3.558	884557	REC_START	n/a	n/a	2	-999	n/a	PASS	n/a	n/a	3	[0, 0, 0]	-999	PAL1	1	R1100D
478.884	1.45	890250	REC_EVENT	3.558	n/a	2	6	CROW	PASS	CROW	ZOO	3	[0, 0, 0]	-999	PAL1	1	R1100D
480.334	3.94	892570	REC_END	n/a	n/a	2	-999	n/a	n/a	n/a	n/a	3	[0, 0, 0]	-999	PAL1	1	R1100D
484.274	10.437	898873	ENCODING_START	n/a	n/a	0	-999	n/a	n/a	n/a	n/a	4	[0, 0, 0]	-999	PAL1	1	R1100D
494.711	0.275	915572	STUDY_ORIENT	n/a	n/a	1	5	STEM	n/a	STEM	SOCK	4	[0, 0, 0]	-999	PAL1	1	R1100D
495.612	4.0	917013	STUDY_PAIR	n/a	wordpools/wordpool_EN.txt	1	5	STEM	n/a	STEM	SOCK	4	[0, 0, 0]	-999	PAL1	1	R1100D
500.646	0.275	925067	STUDY_ORIENT	n/a	n/a	2	4	BOARD	n/a	TEA	BOARD	4	[0, 0, 0]	-999	PAL1	1	R1100D
501.613	4.0	926614	STUDY_PAIR	n/a	wordpools/wordpool_EN.txt	2	4	BOARD	n/a	TEA	BOARD	4	[0, 0, 0]	-999	PAL1	1	R1100D
506.647	0.275	934668	STUDY_ORIENT	n/a	n/a	3	3	TAIL	VEST	VEST	TAIL	4	[0, 0, 0]	-999	PAL1	1	R1100D
507.481	4.0	936003	STUDY_PAIR	n/a	wordpools/wordpool_EN.txt	3	3	TAIL	VEST	VEST	TAIL	4	[0, 0, 0]	-999	PAL1	1	R1100D
512.499	0.275	944031	STUDY_ORIENT	n/a	n/a	4	6	FOOD	n/a	PANTS	FOOD	4	[0, 0, 0]	-999	PAL1	1	R1100D
513.433	4.0	945526	STUDY_PAIR	n/a	wordpools/wordpool_EN.txt	4	6	FOOD	n/a	PANTS	FOOD	4	[0, 0, 0]	-999	PAL1	1	R1100D
518.467	0.275	953580	STUDY_ORIENT	n/a	n/a	5	1	CART	CROWN	CROWN	CART	4	[0, 0, 0]	-999	PAL1	1	R1100D
519.434	4.0	955127	STUDY_PAIR	n/a	wordpools/wordpool_EN.txt	5	1	CART	CROWN	CROWN	CART	4	[0, 0, 0]	-999	PAL1	1	R1100D
524.468	0.275	963181	STUDY_ORIENT	n/a	n/a	6	2	COUCH	PASS	BARN	COUCH	4	[0, 0, 0]	-999	PAL1	1	R1100D
525.485	4.0	964808	STUDY_PAIR	n/a	wordpools/wordpool_EN.txt	6	2	COUCH	PASS	BARN	COUCH	4	[0, 0, 0]	-999	PAL1	1	R1100D
529.503	0.999	971236	START	n/a	n/a	-999	-999	n/a	n/a	n/a	n/a	4	[-999, -999, -999]	-999	PAL1	1	R1100D
530.502	0.017	972835	MATH_START	n/a	n/a	-999	-999	n/a	n/a	n/a	n/a	4	[0, 0, 0]	-999	PAL1	1	R1100D
530.519	4.317	972862	PROB	4.282	n/a	-999	-999	n/a	n/a	n/a	n/a	4	[8, 4, 4]	16	PAL1	1	R1100D
534.836	3.518	979769	PROB	3.486	n/a	-999	-999	n/a	n/a	n/a	n/a	4	[9, 7, 5]	21	PAL1	1	R1100D
538.354	3.05	985397	PROB	3.024	n/a	-999	-999	n/a	n/a	n/a	n/a	4	[3, 1, 4]	8	PAL1	1	R1100D
541.404	2.001	990277	PROB	1.966	n/a	-999	-999	n/a	n/a	n/a	n/a	4	[1, 1, 1]	3	PAL1	1	R1100D
543.405	3.233	993478	PROB	3.212	n/a	-999	-999	n/a	n/a	n/a	n/a	4	[1, 5, 4]	10	PAL1	1	R1100D
546.638	2.4	998651	PROB	2.379	n/a	-999	-999	n/a	n/a	n/a	n/a	4	[1, 7, 1]	9	PAL1	1	R1100D
549.038	3.659	1002491	PROB	3.659	n/a	-999	-999	n/a	n/a	n/a	n/a	4	[2, 9, 4]	15	PAL1	1	R1100D
552.697	0.009	1008345	STOP	n/a	n/a	-999	-999	n/a	n/a	n/a	n/a	4	[-999, -999, -999]	-999	PAL1	1	R1100D
552.706	0.0	1008359	MATH_END	n/a	n/a	-999	-999	n/a	n/a	n/a	n/a	4	[0, 0, 0]	-999	PAL1	1	R1100D
552.706	0.016	1008359	TEST_START	n/a	n/a	-999	-999	n/a	n/a	n/a	n/a	4	[0, 0, 0]	-999	PAL1	1	R1100D
552.722	0.275	1008385	TEST_ORIENT	n/a	n/a	5	1	CART	CROWN	CROWN	CART	4	[0, 0, 0]	-999	PAL1	1	R1100D
553.672	4.0	1009905	TEST_PROBE	n/a	wordpools/wordpool_EN.txt	5	1	CART	CROWN	CROWN	CART	4	[0, 0, 0]	-999	PAL1	1	R1100D
553.673	1.42	1009906	REC_START	n/a	n/a	5	-999	n/a	CROWN	n/a	n/a	4	[0, 0, 0]	-999	PAL1	1	R1100D
555.093	3.58	1012178	REC_EVENT	1.42	n/a	5	1	CART	CROWN	CROWN	CART	4	[0, 0, 0]	-999	PAL1	1	R1100D
558.673	0.017	1017906	REC_END	n/a	n/a	5	-999	n/a	n/a	n/a	n/a	4	[0, 0, 0]	-999	PAL1	1	R1100D
558.69	0.275	1017933	TEST_ORIENT	n/a	n/a	6	2	COUCH	PASS	BARN	COUCH	4	[0, 0, 0]	-999	PAL1	1	R1100D
559.64	4.0	1019453	TEST_PROBE	n/a	wordpools/wordpool_EN.txt	6	2	COUCH	PASS	BARN	COUCH	4	[0, 0, 0]	-999	PAL1	1	R1100D
559.64	2.565	1019453	REC_START	n/a	n/a	6	-999	n/a	PASS	n/a	n/a	4	[0, 0, 0]	-999	PAL1	1	R1100D
562.205	2.453	1023557	REC_EVENT	2.565	n/a	6	2	COUCH	PASS	BARN	COUCH	4	[0, 0, 0]	-999	PAL1	1	R1100D
564.658	0.016	1027482	REC_END	n/a	n/a	6	-999	n/a	n/a	n/a	n/a	4	[0, 0, 0]	-999	PAL1	1	R1100D
564.674	0.275	1027507	TEST_ORIENT	n/a	n/a	3	3	TAIL	VEST	VEST	TAIL	4	[0, 0, 0]	-999	PAL1	1	R1100D
565.608	4.0	1029001	TEST_PROBE	n/a	wordpools/wordpool_EN.txt	3	3	TAIL	VEST	VEST	TAIL	4	[0, 0, 0]	-999	PAL1	1	R1100D
565.608	1.111	1029001	REC_START	n/a	n/a	3	-999	n/a	VEST	n/a	n/a	4	[0, 0, 0]	-999	PAL1	1	R1100D
566.719	3.906	1030779	REC_EVENT	1.111	n/a	3	3	TAIL	VEST	VEST	TAIL	4	[0, 0, 0]	-999	PAL1	1	R1100D
570.625	0.017	1037028	REC_END	n/a	n/a	3	-999	n/a	n/a	n/a	n/a	4	[0, 0, 0]	-999	PAL1	1	R1100D
570.642	0.275	1037055	TEST_ORIENT	n/a	n/a	2	4	BOARD	n/a	TEA	BOARD	4	[0, 0, 0]	-999	PAL1	1	R1100D
571.676	4.0	1038710	TEST_PROBE	n/a	wordpools/wordpool_EN.txt	2	4	BOARD	n/a	TEA	BOARD	4	[0, 0, 0]	-999	PAL1	1	R1100D
571.676	5.015	1038710	REC_START	n/a	n/a	2	-999	n/a	n/a	n/a	n/a	4	[0, 0, 0]	-999	PAL1	1	R1100D
576.691	0.002	1046733	REC_EVENT	5.015	n/a	2	4	BOARD	<>	TEA	BOARD	4	[0, 0, 0]	-999	PAL1	1	R1100D
576.693	0.017	1046737	REC_END	n/a	n/a	2	-999	n/a	n/a	n/a	n/a	4	[0, 0, 0]	-999	PAL1	1	R1100D
576.71	0.275	1046764	TEST_ORIENT	n/a	n/a	1	5	STEM	n/a	STEM	SOCK	4	[0, 0, 0]	-999	PAL1	1	R1100D
577.61	4.0	1048204	TEST_PROBE	n/a	wordpools/wordpool_EN.txt	1	5	STEM	n/a	STEM	SOCK	4	[0, 0, 0]	-999	PAL1	1	R1100D
577.611	5.008	1048205	REC_START	n/a	n/a	1	-999	n/a	n/a	n/a	n/a	4	[0, 0, 0]	-999	PAL1	1	R1100D
582.619	0.001	1056218	REC_END	n/a	n/a	1	-999	n/a	n/a	n/a	n/a	4	[0, 0, 0]	-999	PAL1	1	R1100D
582.62	0.008	1056219	REC_EVENT	5.009	n/a	1	5	STEM	<>	STEM	SOCK	4	[0, 0, 0]	-999	PAL1	1	R1100D
582.628	0.275	1056232	TEST_ORIENT	n/a	n/a	4	6	FOOD	n/a	PANTS	FOOD	4	[0, 0, 0]	-999	PAL1	1	R1100D
583.628	4.0	1057832	TEST_PROBE	n/a	wordpools/wordpool_EN.txt	4	6	FOOD	n/a	PANTS	FOOD	4	[0, 0, 0]	-999	PAL1	1	R1100D
583.629	5.015	1057834	REC_START	n/a	n/a	4	-999	n/a	n/a	n/a	n/a	4	[0, 0, 0]	-999	PAL1	1	R1100D
588.644	0.001	1065857	REC_EVENT	5.015	n/a	4	6	FOOD	<>	PANTS	FOOD	4	[0, 0, 0]	-999	PAL1	1	R1100D
588.645	4.46	1065859	REC_END	n/a	n/a	4	-999	n/a	n/a	n/a	n/a	4	[0, 0, 0]	-999	PAL1	1	R1100D
593.105	10.443	1072995	ENCODING_START	n/a	n/a	0	-999	n/a	n/a	n/a	n/a	5	[0, 0, 0]	-999	PAL1	1	R1100D
603.548	0.275	1089703	STUDY_ORIENT	n/a	n/a	1	3	VAN	n/a	VAN	BANK	5	[0, 0, 0]	-999	PAL1	1	R1100D
604.35	4.0	1090986	STUDY_PAIR	n/a	wordpools/wordpool_EN.txt	1	3	VAN	n/a	VAN	BANK	5	[0, 0, 0]	-999	PAL1	1	R1100D
609.384	0.275	1099040	STUDY_ORIENT	n/a	n/a	2	4	FLOOR	n/a	MOTH	FLOOR	5	[0, 0, 0]	-999	PAL1	1	R1100D
610.25	4.0	1100425	STUDY_PAIR	n/a	wordpools/wordpool_EN.txt	2	4	FLOOR	n/a	MOTH	FLOOR	5	[0, 0, 0]	-999	PAL1	1	R1100D
615.268	0.275	1108454	STUDY_ORIENT	n/a	n/a	3	1	FAN	PASS	FAN	JET	5	[0, 0, 0]	-999	PAL1	1	R1100D
616.202	4.0	1109948	STUDY_PAIR	n/a	wordpools/wordpool_EN.txt	3	1	FAN	PASS	FAN	JET	5	[0, 0, 0]	-999	PAL1	1	R1100D
621.236	0.275	1118002	STUDY_ORIENT	n/a	n/a	4	6	WOLF	PASS	WOLF	CLOTH	5	[0, 0, 0]	-999	PAL1	1	R1100D
622.186	4.0	1119522	STUDY_PAIR	n/a	wordpools/wordpool_EN.txt	4	6	WOLF	PASS	WOLF	CLOTH	5	[0, 0, 0]	-999	PAL1	1	R1100D
627.204	0.275	1127550	STUDY_ORIENT	n/a	n/a	5	5	SOAP	ROPE	ROPE	SOAP	5	[0, 0, 0]	-999	PAL1	1	R1100D
628.136	4.0	1129041	STUDY_PAIR	n/a	wordpools/wordpool_EN.txt	5	5	SOAP	ROPE	ROPE	SOAP	5	[0, 0, 0]	-999	PAL1	1	R1100D
633.154	0.275	1137070	STUDY_ORIENT	n/a	n/a	6	2	PASTE	PASS	PASTE	LEG	5	[0, 0, 0]	-999	PAL1	1	R1100D
634.154	4.0	1138670	STUDY_PAIR	n/a	wordpools/wordpool_EN.txt	6	2	PASTE	PASS	PASTE	LEG	5	[0, 0, 0]	-999	PAL1	1	R1100D
638.173	1.0	1145100	START	n/a	n/a	-999	-999	n/a	n/a	n/a	n/a	5	[-999, -999, -999]	-999	PAL1	1	R1100D
639.173	0.016	1146700	MATH_START	n/a	n/a	-999	-999	n/a	n/a	n/a	n/a	5	[0, 0, 0]	-999	PAL1	1	R1100D
639.189	3.084	1146725	PROB	3.053	n/a	-999	-999	n/a	n/a	n/a	n/a	5	[9, 1, 9]	19	PAL1	1	R1100D
642.273	5.135	1151660	PROB	5.113	n/a	-999	-999	n/a	n/a	n/a	n/a	5	[8, 9, 8]	25	PAL1	1	R1100D
647.408	3.282	1159875	PROB	3.249	n/a	-999	-999	n/a	n/a	n/a	n/a	5	[9, 1, 6]	16	PAL1	1	R1100D
650.69	4.251	1165126	PROB	4.223	n/a	-999	-999	n/a	n/a	n/a	n/a	5	[7, 6, 8]	21	PAL1	1	R1100D
654.941	3.565	1171927	PROB	3.565	n/a	-999	-999	n/a	n/a	n/a	n/a	5	[5, 8, 5]	18	PAL1	1	R1100D
658.506	0.004	1177631	STOP	n/a	n/a	-999	-999	n/a	n/a	n/a	n/a	5	[-999, -999, -999]	-999	PAL1	1	R1100D
658.51	0.0	1177637	MATH_END	n/a	n/a	-999	-999	n/a	n/a	n/a	n/a	5	[0, 0, 0]	-999	PAL1	1	R1100D
658.51	0.016	1177637	TEST_START	n/a	n/a	-999	-999	n/a	n/a	n/a	n/a	5	[0, 0, 0]	-999	PAL1	1	R1100D
658.526	0.275	1177663	TEST_ORIENT	n/a	n/a	3	1	FAN	PASS	FAN	JET	5	[0, 0, 0]	-999	PAL1	1	R1100D
659.559	4.0	1179316	TEST_PROBE	n/a	wordpools/wordpool_EN.txt	3	1	FAN	PASS	FAN	JET	5	[0, 0, 0]	-999	PAL1	1	R1100D
659.559	3.519	1179316	REC_START	n/a	n/a	3	-999	n/a	PASS	n/a	n/a	5	[0, 0, 0]	-999	PAL1	1	R1100D
663.078	1.498	1184946	REC_EVENT	3.519	n/a	3	1	FAN	PASS	FAN	JET	5	[0, 0, 0]	-999	PAL1	1	R1100D
664.576	0.017	1187343	REC_END	n/a	n/a	3	-999	n/a	n/a	n/a	n/a	5	[0, 0, 0]	-999	PAL1	1	R1100D
664.593	0.275	1187370	TEST_ORIENT	n/a	n/a	6	2	PASTE	PASS	PASTE	LEG	5	[0, 0, 0]	-999	PAL1	1	R1100D
665.411	4.0	1188679	TEST_PROBE	n/a	wordpools/wordpool_EN.txt	6	2	PASTE	PASS	PASTE	LEG	5	[0, 0, 0]	-999	PAL1	1	R1100D
665.411	3.271	1188679	REC_START	n/a	n/a	6	-999	n/a	PASS	n/a	n/a	5	[0, 0, 0]	-999	PAL1	1	R1100D
668.682	1.746	1193912	REC_EVENT	3.271	n/a	6	2	PASTE	PASS	PASTE	LEG	5	[0, 0, 0]	-999	PAL1	1	R1100D
670.428	0.017	1196705	REC_END	n/a	n/a	6	-999	n/a	n/a	n/a	n/a	5	[0, 0, 0]	-999	PAL1	1	R1100D
670.445	0.275	1196733	TEST_ORIENT	n/a	n/a	1	3	VAN	n/a	VAN	BANK	5	[0, 0, 0]	-999	PAL1	1	R1100D
671.295	4.0	1198092	TEST_PROBE	n/a	wordpools/wordpool_EN.txt	1	3	VAN	n/a	VAN	BANK	5	[0, 0, 0]	-999	PAL1	1	R1100D
671.296	4.998	1198094	REC_START	n/a	n/a	1	-999	n/a	n/a	n/a	n/a	5	[0, 0, 0]	-999	PAL1	1	R1100D
676.294	0.002	1206091	REC_EVENT	4.998	n/a	1	3	VAN	<>	VAN	BANK	5	[0, 0, 0]	-999	PAL1	1	R1100D
676.296	0.017	1206094	REC_END	n/a	n/a	1	-999	n/a	n/a	n/a	n/a	5	[0, 0, 0]	-999	PAL1	1	R1100D
676.313	0.275	1206121	TEST_ORIENT	n/a	n/a	2	4	FLOOR	n/a	MOTH	FLOOR	5	[0, 0, 0]	-999	PAL1	1	R1100D
677.18	4.0	1207508	TEST_PROBE	n/a	wordpools/wordpool_EN.txt	2	4	FLOOR	n/a	MOTH	FLOOR	5	[0, 0, 0]	-999	PAL1	1	R1100D
677.18	5.025	1207508	REC_START	n/a	n/a	2	-999	n/a	n/a	n/a	n/a	5	[0, 0, 0]	-999	PAL1	1	R1100D
682.205	0.002	1215548	REC_END	n/a	n/a	2	-999	n/a	n/a	n/a	n/a	5	[0, 0, 0]	-999	PAL1	1	R1100D
682.207	0.007	1215551	REC_EVENT	5.027	n/a	2	4	FLOOR	<>	MOTH	FLOOR	5	[0, 0, 0]	-999	PAL1	1	R1100D
682.214	0.275	1215562	TEST_ORIENT	n/a	n/a	5	5	SOAP	ROPE	ROPE	SOAP	5	[0, 0, 0]	-999	PAL1	1	R1100D
683.181	4.0	1217109	TEST_PROBE	n/a	wordpools/wordpool_EN.txt	5	5	SOAP	ROPE	ROPE	SOAP	5	[0, 0, 0]	-999	PAL1	1	R1100D
683.182	1.753	1217111	REC_START	n/a	n/a	5	-999	n/a	ROPE	n/a	n/a	5	[0, 0, 0]	-999	PAL1	1	R1100D
684.935	3.263	1219915	REC_EVENT	1.753	n/a	5	5	SOAP	ROPE	ROPE	SOAP	5	[0, 0, 0]	-999	PAL1	1	R1100D
688.198	0.017	1225136	REC_END	n/a	n/a	5	-999	n/a	n/a	n/a	n/a	5	[0, 0, 0]	-999	PAL1	1	R1100D
688.215	0.275	1225163	TEST_ORIENT	n/a	n/a	4	6	WOLF	PASS	WOLF	CLOTH	5	[0, 0, 0]	-999	PAL1	1	R1100D
689.232	4.0	1226790	TEST_PROBE	n/a	wordpools/wordpool_EN.txt	4	6	WOLF	PASS	WOLF	CLOTH	5	[0, 0, 0]	-999	PAL1	1	R1100D
689.233	1.888	1226792	REC_START	n/a	n/a	4	-999	n/a	PASS	n/a	n/a	5	[0, 0, 0]	-999	PAL1	1	R1100D
691.121	3.128	1229813	REC_EVENT	1.888	n/a	4	6	WOLF	PASS	WOLF	CLOTH	5	[0, 0, 0]	-999	PAL1	1	R1100D
694.249	6.065	1234817	REC_END	n/a	n/a	4	-999	n/a	n/a	n/a	n/a	5	[0, 0, 0]	-999	PAL1	1	R1100D
700.314	10.438	1244521	ENCODING_START	n/a	n/a	0	-999	n/a	n/a	n/a	n/a	6	[0, 0, 0]	-999	PAL1	1	R1100D
710.752	0.275	1261221	STUDY_ORIENT	n/a	n/a	1	1	FOAM	WHALE	FOAM	WHALE	6	[0, 0, 0]	-999	PAL1	1	R1100D
711.752	4.0	1262821	STUDY_PAIR	n/a	wordpools/wordpool_EN.txt	1	1	FOAM	WHALE	FOAM	WHALE	6	[0, 0, 0]	-999	PAL1	1	R1100D
716.786	0.275	1270875	STUDY_ORIENT	n/a	n/a	2	2	CHALK	PASS	HOOK	CHALK	6	[0, 0, 0]	-999	PAL1	1	R1100D
717.57	4.0	1272129	STUDY_PAIR	n/a	wordpools/wordpool_EN.txt	2	2	CHALK	PASS	HOOK	CHALK	6	[0, 0, 0]	-999	PAL1	1	R1100D
722.604	0.275	1280183	STUDY_ORIENT	n/a	n/a	3	3	MAIL	PASS	JEEP	MAIL	6	[0, 0, 0]	-999	PAL1	1	R1100D
723.388	4.0	1281437	STUDY_PAIR	n/a	wordpools/wordpool_EN.txt	3	3	MAIL	PASS	JEEP	MAIL	6	[0, 0, 0]	-999	PAL1	1	R1100D
728.406	0.275	1289466	STUDY_ORIENT	n/a	n/a	4	4	HOUSE	PASS	HOUSE	PET	6	[0, 0, 0]	-999	PAL1	1	R1100D
729.323	4.0	1290933	STUDY_PAIR	n/a	wordpools/wordpool_EN.txt	4	4	HOUSE	PASS	HOUSE	PET	6	[0, 0, 0]	-999	PAL1	1	R1100D
734.357	0.275	1298987	STUDY_ORIENT	n/a	n/a	5	5	THREAD	NOSE	NOSE	THREAD	6	[0, 0, 0]	-999	PAL1	1	R1100D
735.207	4.0	1300347	STUDY_PAIR	n/a	wordpools/wordpool_EN.txt	5	5	THREAD	NOSE	NOSE	THREAD	6	[0, 0, 0]	-999	PAL1	1	R1100D
740.225	0.275	1308375	STUDY_ORIENT	n/a	n/a	6	6	BEAR	PASS	ARM	BEAR	6	[0, 0, 0]	-999	PAL1	1	R1100D
741.024	4.0	1309654	STUDY_PAIR	n/a	wordpools/wordpool_EN.txt	6	6	BEAR	PASS	ARM	BEAR	6	[0, 0, 0]	-999	PAL1	1	R1100D
745.042	1.0	1316082	START	n/a	n/a	-999	-999	n/a	n/a	n/a	n/a	6	[-999, -999, -999]	-999	PAL1	1	R1100D
746.042	0.016	1317682	MATH_START	n/a	n/a	-999	-999	n/a	n/a	n/a	n/a	6	[0, 0, 0]	-999	PAL1	1	R1100D
746.058	3.185	1317708	PROB	3.152	n/a	-999	-999	n/a	n/a	n/a	n/a	6	[1, 3, 7]	11	PAL1	1	R1100D
749.243	2.433	1322803	PROB	2.414	n/a	-999	-999	n/a	n/a	n/a	n/a	6	[2, 5, 5]	12	PAL1	1	R1100D
751.676	4.234	1326696	PROB	4.213	n/a	-999	-999	n/a	n/a	n/a	n/a	6	[3, 8, 3]	14	PAL1	1	R1100D
755.91	3.618	1333470	PROB	3.596	n/a	-999	-999	n/a	n/a	n/a	n/a	6	[2, 4, 7]	13	PAL1	1	R1100D
759.528	2.367	1339258	PROB	2.337	n/a	-999	-999	n/a	n/a	n/a	n/a	6	[1, 5, 5]	11	PAL1	1	R1100D
761.895	2.767	1343045	PROB	2.738	n/a	-999	-999	n/a	n/a	n/a	n/a	6	[2, 7, 6]	15	PAL1	1	R1100D
764.662	2.612	1347472	PROB	2.612	n/a	-999	-999	n/a	n/a	n/a	n/a	6	[1, 7, 7]	15	PAL1	1	R1100D
767.274	0.006	1351651	STOP	n/a	n/a	-999	-999	n/a	n/a	n/a	n/a	6	[-999, -999, -999]	-999	PAL1	1	R1100D
767.28	0.0	1351661	MATH_END	n/a	n/a	-999	-999	n/a	n/a	n/a	n/a	6	[0, 0, 0]	-999	PAL1	1	R1100D
767.28	0.017	1351661	TEST_START	n/a	n/a	-999	-999	n/a	n/a	n/a	n/a	6	[0, 0, 0]	-999	PAL1	1	R1100D
767.297	0.275	1351688	TEST_ORIENT	n/a	n/a	1	1	FOAM	WHALE	FOAM	WHALE	6	[0, 0, 0]	-999	PAL1	1	R1100D
768.263	4.0	1353234	TEST_PROBE	n/a	wordpools/wordpool_EN.txt	1	1	FOAM	WHALE	FOAM	WHALE	6	[0, 0, 0]	-999	PAL1	1	R1100D
768.264	1.394	1353235	REC_START	n/a	n/a	1	-999	n/a	WHALE	n/a	n/a	6	[0, 0, 0]	-999	PAL1	1	R1100D
769.658	3.615	1355466	REC_EVENT	1.394	n/a	1	1	FOAM	WHALE	FOAM	WHALE	6	[0, 0, 0]	-999	PAL1	1	R1100D
773.273	0.008	1361249	REC_END	n/a	n/a	1	-999	n/a	n/a	n/a	n/a	6	[0, 0, 0]	-999	PAL1	1	R1100D
773.281	0.275	1361262	TEST_ORIENT	n/a	n/a	2	2	CHALK	PASS	HOOK	CHALK	6	[0, 0, 0]	-999	PAL1	1	R1100D
774.231	4.0	1362782	TEST_PROBE	n/a	wordpools/wordpool_EN.txt	2	2	CHALK	PASS	HOOK	CHALK	6	[0, 0, 0]	-999	PAL1	1	R1100D
774.232	3.081	1362784	REC_START	n/a	n/a	2	-999	n/a	PASS	n/a	n/a	6	[0, 0, 0]	-999	PAL1	1	R1100D
777.313	1.927	1367713	REC_EVENT	3.081	n/a	2	2	CHALK	PASS	HOOK	CHALK	6	[0, 0, 0]	-999	PAL1	1	R1100D
779.24	0.009	1370796	REC_END	n/a	n/a	2	-999	n/a	n/a	n/a	n/a	6	[0, 0, 0]	-999	PAL1	1	R1100D
779.249	0.275	1370811	TEST_ORIENT	n/a	n/a	3	3	MAIL	PASS	JEEP	MAIL	6	[0, 0, 0]	-999	PAL1	1	R1100D
780.081	4.0	1372142	TEST_PROBE	n/a	wordpools/wordpool_EN.txt	3	3	MAIL	PASS	JEEP	MAIL	6	[0, 0, 0]	-999	PAL1	1	R1100D
780.082	3.919	1372143	REC_START	n/a	n/a	3	-999	n/a	PASS	n/a	n/a	6	[0, 0, 0]	-999	PAL1	1	R1100D
784.001	1.09	1378413	REC_EVENT	3.919	n/a	3	3	MAIL	PASS	JEEP	MAIL	6	[0, 0, 0]	-999	PAL1	1	R1100D
785.091	0.008	1380157	REC_END	n/a	n/a	3	-999	n/a	n/a	n/a	n/a	6	[0, 0, 0]	-999	PAL1	1	R1100D
785.099	0.275	1380170	TEST_ORIENT	n/a	n/a	4	4	HOUSE	PASS	HOUSE	PET	6	[0, 0, 0]	-999	PAL1	1	R1100D
785.882	4.0	1381423	TEST_PROBE	n/a	wordpools/wordpool_EN.txt	4	4	HOUSE	PASS	HOUSE	PET	6	[0, 0, 0]	-999	PAL1	1	R1100D
785.883	4.025	1381424	REC_START	n/a	n/a	4	-999	n/a	PASS	n/a	n/a	6	[0, 0, 0]	-999	PAL1	1	R1100D
789.908	0.984	1387864	REC_EVENT	4.025	n/a	4	4	HOUSE	PASS	HOUSE	PET	6	[0, 0, 0]	-999	PAL1	1	R1100D
790.892	0.008	1389438	REC_END	n/a	n/a	4	-999	n/a	n/a	n/a	n/a	6	[0, 0, 0]	-999	PAL1	1	R1100D
790.9	0.275	1389451	TEST_ORIENT	n/a	n/a	5	5	THREAD	NOSE	NOSE	THREAD	6	[0, 0, 0]	-999	PAL1	1	R1100D
791.833	4.0	1390944	TEST_PROBE	n/a	wordpools/wordpool_EN.txt	5	5	THREAD	NOSE	NOSE	THREAD	6	[0, 0, 0]	-999	PAL1	1	R1100D
791.834	2.261	1390946	REC_START	n/a	n/a	5	-999	n/a	NOSE	n/a	n/a	6	[0, 0, 0]	-999	PAL1	1	R1100D
794.095	2.747	1394563	REC_EVENT	2.261	n/a	5	5	THREAD	NOSE	NOSE	THREAD	6	[0, 0, 0]	-999	PAL1	1	R1100D
796.842	0.009	1398958	REC_END	n/a	n/a	5	-999	n/a	n/a	n/a	n/a	6	[0, 0, 0]	-999	PAL1	1	R1100D
796.851	0.275	1398972	TEST_ORIENT	n/a	n/a	6	6	BEAR	PASS	ARM	BEAR	6	[0, 0, 0]	-999	PAL1	1	R1100D
797.651	4.0	1400252	TEST_PROBE	n/a	wordpools/wordpool_EN.txt	6	6	BEAR	PASS	ARM	BEAR	6	[0, 0, 0]	-999	PAL1	1	R1100D
797.652	2.935	1400254	REC_START	n/a	n/a	6	-999	n/a	PASS	n/a	n/a	6	[0, 0, 0]	-999	PAL1	1	R1100D
800.587	2.073	1404950	REC_EVENT	2.935	n/a	6	6	BEAR	PASS	ARM	BEAR	6	[0, 0, 0]	-999	PAL1	1	R1100D
802.66	4.237	1408266	REC_END	n/a	n/a	6	-999	n/a	n/a	n/a	n/a	6	[0, 0, 0]	-999	PAL1	1	R1100D
806.897	10.442	1415045	ENCODING_START	n/a	n/a	0	-999	n/a	n/a	n/a	n/a	7	[0, 0, 0]	-999	PAL1	1	R1100D
817.339	0.275	1431752	STUDY_ORIENT	n/a	n/a	1	5	HILL	PASS	CAVE	HILL	7	[0, 0, 0]	-999	PAL1	1	R1100D
818.289	4.0	1433272	STUDY_PAIR	n/a	wordpools/wordpool_EN.txt	1	5	HILL	PASS	CAVE	HILL	7	[0, 0, 0]	-999	PAL1	1	R1100D
823.307	0.275	1441300	STUDY_ORIENT	n/a	n/a	2	2	FOG	n/a	FOG	MOUSE	7	[0, 0, 0]	-999	PAL1	1	R1100D
824.156	4.0	1442658	STUDY_PAIR	n/a	wordpools/wordpool_EN.txt	2	2	FOG	n/a	FOG	MOUSE	7	[0, 0, 0]	-999	PAL1	1	R1100D
829.175	0.275	1450688	STUDY_ORIENT	n/a	n/a	3	3	BEAN	HILL	BEAN	MOLE	7	[0, 0, 0]	-999	PAL1	1	R1100D
830.074	4.0	1452127	STUDY_PAIR	n/a	wordpools/wordpool_EN.txt	3	3	BEAN	HILL	BEAN	MOLE	7	[0, 0, 0]	-999	PAL1	1	R1100D
835.108	0.275	1460181	STUDY_ORIENT	n/a	n/a	4	4	PEAR	PASS	PEAR	SEED	7	[0, 0, 0]	-999	PAL1	1	R1100D
835.908	4.0	1461461	STUDY_PAIR	n/a	wordpools/wordpool_EN.txt	4	4	PEAR	PASS	PEAR	SEED	7	[0, 0, 0]	-999	PAL1	1	R1100D
840.926	0.275	1469489	STUDY_ORIENT	n/a	n/a	5	1	FUR	n/a	SWORD	FUR	7	[0, 0, 0]	-999	PAL1	1	R1100D
841.793	4.0	1470876	STUDY_PAIR	n/a	wordpools/wordpool_EN.txt	5	1	FUR	n/a	SWORD	FUR	7	[0, 0, 0]	-999	PAL1	1	R1100D
846.827	0.275	1478930	STUDY_ORIENT	n/a	n/a	6	6	HEART	PASS	HEART	ANT	7	[0, 0, 0]	-999	PAL1	1	R1100D
847.827	4.0	1480530	STUDY_PAIR	n/a	wordpools/wordpool_EN.txt	6	6	HEART	PASS	HEART	ANT	7	[0, 0, 0]	-999	PAL1	1	R1100D
851.828	1.0	1486931	START	n/a	n/a	-999	-999	n/a	n/a	n/a	n/a	7	[-999, -999, -999]	-999	PAL1	1	R1100D
852.828	0.017	1488531	MATH_START	n/a	n/a	-999	-999	n/a	n/a	n/a	n/a	7	[0, 0, 0]	-999	PAL1	1	R1100D
852.845	3.602	1488558	PROB	3.573	n/a	-999	-999	n/a	n/a	n/a	n/a	7	[3, 9, 3]	15	PAL1	1	R1100D
856.447	3.8	1494321	PROB	3.779	n/a	-999	-999	n/a	n/a	n/a	n/a	7	[1, 7, 2]	10	PAL1	1	R1100D
860.247	4.467	1500401	PROB	4.442	n/a	-999	-999	n/a	n/a	n/a	n/a	7	[7, 1, 5]	13	PAL1	1	R1100D
864.714	2.884	1507548	PROB	2.863	n/a	-999	-999	n/a	n/a	n/a	n/a	7	[7, 1, 4]	12	PAL1	1	R1100D
867.598	3.284	1512162	PROB	3.259	n/a	-999	-999	n/a	n/a	n/a	n/a	7	[9, 2, 5]	16	PAL1	1	R1100D
870.882	2.143	1517416	PROB	2.143	n/a	-999	-999	n/a	n/a	n/a	n/a	7	[1, 1, 4]	6	PAL1	1	R1100D
873.025	0.007	1520845	STOP	n/a	n/a	-999	-999	n/a	n/a	n/a	n/a	7	[-999, -999, -999]	-999	PAL1	1	R1100D
873.032	0.0	1520856	MATH_END	n/a	n/a	-999	-999	n/a	n/a	n/a	n/a	7	[0, 0, 0]	-999	PAL1	1	R1100D
873.032	0.017	1520856	TEST_START	n/a	n/a	-999	-999	n/a	n/a	n/a	n/a	7	[0, 0, 0]	-999	PAL1	1	R1100D
873.049	0.275	1520883	TEST_ORIENT	n/a	n/a	5	1	FUR	n/a	SWORD	FUR	7	[0, 0, 0]	-999	PAL1	1	R1100D
874.032	4.0	1522456	TEST_PROBE	n/a	wordpools/wordpool_EN.txt	5	1	FUR	n/a	SWORD	FUR	7	[0, 0, 0]	-999	PAL1	1	R1100D
874.033	5.0	1522458	REC_START	n/a	n/a	5	-999	n/a	n/a	n/a	n/a	7	[0, 0, 0]	-999	PAL1	1	R1100D
879.033	0.003	1530457	REC_END	n/a	n/a	5	-999	n/a	n/a	n/a	n/a	7	[0, 0, 0]	-999	PAL1	1	R1100D
879.036	0.014	1530462	REC_EVENT	5.003	n/a	5	1	FUR	<>	SWORD	FUR	7	[0, 0, 0]	-999	PAL1	1	R1100D
879.05	0.275	1530484	TEST_ORIENT	n/a	n/a	2	2	FOG	n/a	FOG	MOUSE	7	[0, 0, 0]	-999	PAL1	1	R1100D
880.017	4.0	1532032	TEST_PROBE	n/a	wordpools/wordpool_EN.txt	2	2	FOG	n/a	FOG	MOUSE	7	[0, 0, 0]	-999	PAL1	1	R1100D
880.017	5.017	1532032	REC_START	n/a	n/a	2	-999	n/a	n/a	n/a	n/a	7	[0, 0, 0]	-999	PAL1	1	R1100D
885.034	0.004	1540058	REC_END	n/a	n/a	2	-999	n/a	n/a	n/a	n/a	7	[0, 0, 0]	-999	PAL1	1	R1100D
885.038	0.013	1540065	REC_EVENT	5.021	n/a	2	2	FOG	<>	FOG	MOUSE	7	[0, 0, 0]	-999	PAL1	1	R1100D
885.051	0.275	1540086	TEST_ORIENT	n/a	n/a	3	3	BEAN	HILL	BEAN	MOLE	7	[0, 0, 0]	-999	PAL1	1	R1100D
886.018	0.0	1541633	REC_START	n/a	n/a	3	-999	n/a	HILL	n/a	n/a	7	[0, 0, 0]	-999	PAL1	1	R1100D
886.018	4.0	1541633	TEST_PROBE	n/a	wordpools/wordpool_EN.txt	3	3	BEAN	HILL	BEAN	MOLE	7	[0, 0, 0]	-999	PAL1	1	R1100D
888.199	2.836	1545122	REC_EVENT	2.181	n/a	3	3	BEAN	HILL	BEAN	MOLE	7	[0, 0, 0]	-999	PAL1	1	R1100D
891.035	0.017	1549660	REC_END	n/a	n/a	3	-999	n/a	n/a	n/a	n/a	7	[0, 0, 0]	-999	PAL1	1	R1100D
891.052	0.275	1549687	TEST_ORIENT	n/a	n/a	4	4	PEAR	PASS	PEAR	SEED	7	[0, 0, 0]	-999	PAL1	1	R1100D
892.019	4.0	1551234	TEST_PROBE	n/a	wordpools/wordpool_EN.txt	4	4	PEAR	PASS	PEAR	SEED	7	[0, 0, 0]	-999	PAL1	1	R1100D
892.019	1.868	1551234	REC_START	n/a	n/a	4	-999	n/a	PASS	n/a	n/a	7	[0, 0, 0]	-999	PAL1	1	R1100D
893.887	3.149	1554222	REC_EVENT	1.868	n/a	4	4	PEAR	PASS	PEAR	SEED	7	[0, 0, 0]	-999	PAL1	1	R1100D
897.036	0.017	1559261	REC_END	n/a	n/a	4	-999	n/a	n/a	n/a	n/a	7	[0, 0, 0]	-999	PAL1	1	R1100D
897.053	0.275	1559288	TEST_ORIENT	n/a	n/a	1	5	HILL	PASS	CAVE	HILL	7	[0, 0, 0]	-999	PAL1	1	R1100D
897.953	4.0	1560728	TEST_PROBE	n/a	wordpools/wordpool_EN.txt	1	5	HILL	PASS	CAVE	HILL	7	[0, 0, 0]	-999	PAL1	1	R1100D
897.954	4.029	1560729	REC_START	n/a	n/a	1	-999	n/a	PASS	n/a	n/a	7	[0, 0, 0]	-999	PAL1	1	R1100D
901.983	0.979	1567175	REC_EVENT	4.029	n/a	1	5	HILL	PASS	CAVE	HILL	7	[0, 0, 0]	-999	PAL1	1	R1100D
902.962	0.009	1568742	REC_END	n/a	n/a	1	-999	n/a	n/a	n/a	n/a	7	[0, 0, 0]	-999	PAL1	1	R1100D
902.971	0.275	1568756	TEST_ORIENT	n/a	n/a	6	6	HEART	PASS	HEART	ANT	7	[0, 0, 0]	-999	PAL1	1	R1100D
903.938	4.0	1570303	TEST_PROBE	n/a	wordpools/wordpool_EN.txt	6	6	HEART	PASS	HEART	ANT	7	[0, 0, 0]	-999	PAL1	1	R1100D
903.938	2.483	1570303	REC_START	n/a	n/a	6	-999	n/a	PASS	n/a	n/a	7	[0, 0, 0]	-999	PAL1	1	R1100D
906.421	2.534	1574276	REC_EVENT	2.483	n/a	6	6	HEART	PASS	HEART	ANT	7	[0, 0, 0]	-999	PAL1	1	R1100D
908.955	123.038	1578330	REC_END	n/a	n/a	6	-999	n/a	n/a	n/a	n/a	7	[0, 0, 0]	-999	PAL1	1	R1100D
1031.993	10.455	1775181	ENCODING_START	n/a	n/a	0	-999	n/a	n/a	n/a	n/a	8	[0, 0, 0]	-999	PAL1	1	R1100D
1042.448	0.275	1791909	STUDY_ORIENT	n/a	n/a	1	3	FROG	PASS	GLOVE	FROG	8	[0, 0, 0]	-999	PAL1	1	R1100D
1043.365	4.0	1793376	STUDY_PAIR	n/a	wordpools/wordpool_EN.txt	1	3	FROG	PASS	GLOVE	FROG	8	[0, 0, 0]	-999	PAL1	1	R1100D
1048.399	0.275	1801430	STUDY_ORIENT	n/a	n/a	2	6	MAP	PASS	MAP	MUG	8	[0, 0, 0]	-999	PAL1	1	R1100D
1049.399	4.0	1803030	STUDY_PAIR	n/a	wordpools/wordpool_EN.txt	2	6	MAP	PASS	MAP	MUG	8	[0, 0, 0]	-999	PAL1	1	R1100D
1054.417	0.275	1811058	STUDY_ORIENT	n/a	n/a	3	1	MAT	n/a	SMOKE	MAT	8	[0, 0, 0]	-999	PAL1	1	R1100D
1055.267	4.0	1812418	STUDY_PAIR	n/a	wordpools/wordpool_EN.txt	3	1	MAT	n/a	SMOKE	MAT	8	[0, 0, 0]	-999	PAL1	1	R1100D
1060.301	0.275	1820472	STUDY_ORIENT	n/a	n/a	4	2	SIGN	n/a	CHIN	SIGN	8	[0, 0, 0]	-999	PAL1	1	R1100D
1061.185	4.0	1821886	STUDY_PAIR	n/a	wordpools/wordpool_EN.txt	4	2	SIGN	n/a	CHIN	SIGN	8	[0, 0, 0]	-999	PAL1	1	R1100D
1066.219	0.275	1829940	STUDY_ORIENT	n/a	n/a	5	5	CASH	PASS	CASH	BRICK	8	[0, 0, 0]	-999	PAL1	1	R1100D
1067.085	4.0	1831326	STUDY_PAIR	n/a	wordpools/wordpool_EN.txt	5	5	CASH	PASS	CASH	BRICK	8	[0, 0, 0]	-999	PAL1	1	R1100D
1072.119	0.275	1839380	STUDY_ORIENT	n/a	n/a	6	4	CHEEK	n/a	CHEEK	RICE	8	[0, 0, 0]	-999	PAL1	1	R1100D
1072.952	4.0	1840713	STUDY_PAIR	n/a	wordpools/wordpool_EN.txt	6	4	CHEEK	n/a	CHEEK	RICE	8	[0, 0, 0]	-999	PAL1	1	R1100D
1076.953	1.0	1847114	START	n/a	n/a	-999	-999	n/a	n/a	n/a	n/a	8	[-999, -999, -999]	-999	PAL1	1	R1100D
1077.953	0.017	1848714	MATH_START	n/a	n/a	-999	-999	n/a	n/a	n/a	n/a	8	[0, 0, 0]	-999	PAL1	1	R1100D
1077.97	4.134	1848741	PROB	4.103	n/a	-999	-999	n/a	n/a	n/a	n/a	8	[9, 8, 3]	20	PAL1	1	R1100D
1082.104	3.684	1855355	PROB	3.657	n/a	-999	-999	n/a	n/a	n/a	n/a	8	[3, 1, 5]	9	PAL1	1	R1100D
1085.788	3.818	1861249	PROB	3.789	n/a	-999	-999	n/a	n/a	n/a	n/a	8	[1, 6, 8]	15	PAL1	1	R1100D
1089.606	4.635	1867358	PROB	4.604	n/a	-999	-999	n/a	n/a	n/a	n/a	8	[8, 8, 9]	25	PAL1	1	R1100D
1094.241	4.752	1874773	PROB	4.752	n/a	-999	-999	n/a	n/a	n/a	n/a	8	[7, 1, 3]	11	PAL1	1	R1100D
1098.993	0.014	1882376	STOP	n/a	n/a	-999	-999	n/a	n/a	n/a	n/a	8	[-999, -999, -999]	-999	PAL1	1	R1100D
1099.007	0.0	1882399	MATH_END	n/a	n/a	-999	-999	n/a	n/a	n/a	n/a	8	[0, 0, 0]	-999	PAL1	1	R1100D
1099.007	0.017	1882399	TEST_START	n/a	n/a	-999	-999	n/a	n/a	n/a	n/a	8	[0, 0, 0]	-999	PAL1	1	R1100D
1099.024	0.275	1882426	TEST_ORIENT	n/a	n/a	3	1	MAT	n/a	SMOKE	MAT	8	[0, 0, 0]	-999	PAL1	1	R1100D
1099.841	0.0	1883733	REC_START	n/a	n/a	3	-999	n/a	n/a	n/a	n/a	8	[0, 0, 0]	-999	PAL1	1	R1100D
1099.841	4.0	1883733	TEST_PROBE	n/a	wordpools/wordpool_EN.txt	3	1	MAT	n/a	SMOKE	MAT	8	[0, 0, 0]	-999	PAL1	1	R1100D
1104.856	0.002	1891757	REC_EVENT	5.015	n/a	3	1	MAT	<>	SMOKE	MAT	8	[0, 0, 0]	-999	PAL1	1	R1100D
1104.858	0.017	1891760	REC_END	n/a	n/a	3	-999	n/a	n/a	n/a	n/a	8	[0, 0, 0]	-999	PAL1	1	R1100D
1104.875	0.275	1891787	TEST_ORIENT	n/a	n/a	4	2	SIGN	n/a	CHIN	SIGN	8	[0, 0, 0]	-999	PAL1	1	R1100D
1105.759	4.0	1893201	TEST_PROBE	n/a	wordpools/wordpool_EN.txt	4	2	SIGN	n/a	CHIN	SIGN	8	[0, 0, 0]	-999	PAL1	1	R1100D
1105.759	5.015	1893201	REC_START	n/a	n/a	4	-999	n/a	n/a	n/a	n/a	8	[0, 0, 0]	-999	PAL1	1	R1100D
1110.774	0.002	1901225	REC_EVENT	5.015	n/a	4	2	SIGN	<>	CHIN	SIGN	8	[0, 0, 0]	-999	PAL1	1	R1100D
1110.776	0.017	1901228	REC_END	n/a	n/a	4	-999	n/a	n/a	n/a	n/a	8	[0, 0, 0]	-999	PAL1	1	R1100D
1110.793	0.275	1901255	TEST_ORIENT	n/a	n/a	1	3	FROG	PASS	GLOVE	FROG	8	[0, 0, 0]	-999	PAL1	1	R1100D
1111.793	4.0	1902855	TEST_PROBE	n/a	wordpools/wordpool_EN.txt	1	3	FROG	PASS	GLOVE	FROG	8	[0, 0, 0]	-999	PAL1	1	R1100D
1111.794	4.46	1902857	REC_START	n/a	n/a	1	-999	n/a	PASS	n/a	n/a	8	[0, 0, 0]	-999	PAL1	1	R1100D
1116.254	0.556	1909992	REC_EVENT	4.46	n/a	1	3	FROG	PASS	GLOVE	FROG	8	[0, 0, 0]	-999	PAL1	1	R1100D
1116.81	0.017	1910882	REC_END	n/a	n/a	1	-999	n/a	n/a	n/a	n/a	8	[0, 0, 0]	-999	PAL1	1	R1100D
1116.827	0.275	1910909	TEST_ORIENT	n/a	n/a	6	4	CHEEK	n/a	CHEEK	RICE	8	[0, 0, 0]	-999	PAL1	1	R1100D
1117.644	4.0	1912216	TEST_PROBE	n/a	wordpools/wordpool_EN.txt	6	4	CHEEK	n/a	CHEEK	RICE	8	[0, 0, 0]	-999	PAL1	1	R1100D
1117.645	5.008	1912218	REC_START	n/a	n/a	6	-999	n/a	n/a	n/a	n/a	8	[0, 0, 0]	-999	PAL1	1	R1100D
1122.653	0.001	1920230	REC_END	n/a	n/a	6	-999	n/a	n/a	n/a	n/a	8	[0, 0, 0]	-999	PAL1	1	R1100D
1122.654	0.008	1920232	REC_EVENT	5.009	n/a	6	4	CHEEK	<>	CHEEK	RICE	8	[0, 0, 0]	-999	PAL1	1	R1100D
1122.662	0.275	1920245	TEST_ORIENT	n/a	n/a	5	5	CASH	PASS	CASH	BRICK	8	[0, 0, 0]	-999	PAL1	1	R1100D
1123.679	4.0	1921872	TEST_PROBE	n/a	wordpools/wordpool_EN.txt	5	5	CASH	PASS	CASH	BRICK	8	[0, 0, 0]	-999	PAL1	1	R1100D
1123.679	2.183	1921872	REC_START	n/a	n/a	5	-999	n/a	PASS	n/a	n/a	8	[0, 0, 0]	-999	PAL1	1	R1100D
1125.862	2.834	1925365	REC_EVENT	2.183	n/a	5	5	CASH	PASS	CASH	BRICK	8	[0, 0, 0]	-999	PAL1	1	R1100D
1128.696	0.017	1929899	REC_END	n/a	n/a	5	-999	n/a	n/a	n/a	n/a	8	[0, 0, 0]	-999	PAL1	1	R1100D
1128.713	0.275	1929926	TEST_ORIENT	n/a	n/a	2	6	MAP	PASS	MAP	MUG	8	[0, 0, 0]	-999	PAL1	1	R1100D
1129.663	4.0	1931446	TEST_PROBE	n/a	wordpools/wordpool_EN.txt	2	6	MAP	PASS	MAP	MUG	8	[0, 0, 0]	-999	PAL1	1	R1100D
1129.664	4.308	1931447	REC_START	n/a	n/a	2	-999	n/a	PASS	n/a	n/a	8	[0, 0, 0]	-999	PAL1	1	R1100D
1133.972	0.718	1938340	REC_EVENT	4.308	n/a	2	6	MAP	PASS	MAP	MUG	8	[0, 0, 0]	-999	PAL1	1	R1100D
1134.69	212.471	1939489	REC_END	n/a	n/a	2	-999	n/a	n/a	n/a	n/a	8	[0, 0, 0]	-999	PAL1	1	R1100D
1347.161	10.445	2279426	ENCODING_START	n/a	n/a	0	-999	n/a	n/a	n/a	n/a	9	[0, 0, 0]	-999	PAL1	1	R1100D
1357.606	0.275	2296137	STUDY_ORIENT	n/a	n/a	1	1	BEAK	HEN	HEN	BEAK	9	[0, 0, 0]	-999	PAL1	1	R1100D
1358.407	4.0	2297419	STUDY_PAIR	n/a	wordpools/wordpool_EN.txt	1	1	BEAK	HEN	HEN	BEAK	9	[0, 0, 0]	-999	PAL1	1	R1100D
1363.441	0.275	2305473	STUDY_ORIENT	n/a	n/a	2	4	STRAW	n/a	AXE	STRAW	9	[0, 0, 0]	-999	PAL1	1	R1100D
1364.424	4.0	2307045	STUDY_PAIR	n/a	wordpools/wordpool_EN.txt	2	4	STRAW	n/a	AXE	STRAW	9	[0, 0, 0]	-999	PAL1	1	R1100D
1369.442	0.275	2315074	STUDY_ORIENT	n/a	n/a	3	3	FORT	n/a	FORT	PIPE	9	[0, 0, 0]	-999	PAL1	1	R1100D
1370.459	4.0	2316701	STUDY_PAIR	n/a	wordpools/wordpool_EN.txt	3	3	FORT	n/a	FORT	PIPE	9	[0, 0, 0]	-999	PAL1	1	R1100D
1375.493	0.275	2324755	STUDY_ORIENT	n/a	n/a	4	6	CUBE	n/a	SOUP	CUBE	9	[0, 0, 0]	-999	PAL1	1	R1100D
1376.276	4.0	2326008	STUDY_PAIR	n/a	wordpools/wordpool_EN.txt	4	6	CUBE	n/a	SOUP	CUBE	9	[0, 0, 0]	-999	PAL1	1	R1100D
1381.294	0.275	2334036	STUDY_ORIENT	n/a	n/a	5	5	PIT	HAND	HAND	PIT	9	[0, 0, 0]	-999	PAL1	1	R1100D
1382.211	4.0	2335503	STUDY_PAIR	n/a	wordpools/wordpool_EN.txt	5	5	PIT	HAND	HAND	PIT	9	[0, 0, 0]	-999	PAL1	1	R1100D
1387.245	0.275	2343557	STUDY_ORIENT	n/a	n/a	6	2	CLIFF	PASS	COIN	CLIFF	9	[0, 0, 0]	-999	PAL1	1	R1100D
1388.095	4.0	2344917	STUDY_PAIR	n/a	wordpools/wordpool_EN.txt	6	2	CLIFF	PASS	COIN	CLIFF	9	[0, 0, 0]	-999	PAL1	1	R1100D
1392.112	1.0	2351344	START	n/a	n/a	-999	-999	n/a	n/a	n/a	n/a	9	[-999, -999, -999]	-999	PAL1	1	R1100D
1393.112	0.017	2352944	MATH_START	n/a	n/a	-999	-999	n/a	n/a	n/a	n/a	9	[0, 0, 0]	-999	PAL1	1	R1100D
1393.129	3.351	2352971	PROB	3.321	n/a	-999	-999	n/a	n/a	n/a	n/a	9	[6, 5, 1]	12	PAL1	1	R1100D
1396.48	6.035	2358332	PROB	6.002	n/a	-999	-999	n/a	n/a	n/a	n/a	9	[5, 6, 7]	18	PAL1	1	R1100D
1402.515	3.934	2367988	PROB	3.911	n/a	-999	-999	n/a	n/a	n/a	n/a	9	[6, 3, 7]	16	PAL1	1	R1100D
1406.449	4.751	2374282	PROB	4.729	n/a	-999	-999	n/a	n/a	n/a	n/a	9	[3, 4, 7]	14	PAL1	1	R1100D
1411.2	8.673	2381883	PROB	8.673	n/a	-999	-999	n/a	n/a	n/a	n/a	9	[2, 5, 9]	16	PAL1	1	R1100D
1419.873	0.011	2395759	STOP	n/a	n/a	-999	-999	n/a	n/a	n/a	n/a	9	[-999, -999, -999]	-999	PAL1	1	R1100D
1419.884	0.0	2395777	MATH_END	n/a	n/a	-999	-999	n/a	n/a	n/a	n/a	9	[0, 0, 0]	-999	PAL1	1	R1100D
1419.884	0.016	2395777	TEST_START	n/a	n/a	-999	-999	n/a	n/a	n/a	n/a	9	[0, 0, 0]	-999	PAL1	1	R1100D
1419.9	0.275	2395803	TEST_ORIENT	n/a	n/a	1	1	BEAK	HEN	HEN	BEAK	9	[0, 0, 0]	-999	PAL1	1	R1100D
1420.751	0.0	2397164	REC_START	n/a	n/a	1	-999	n/a	HEN	n/a	n/a	9	[0, 0, 0]	-999	PAL1	1	R1100D
1420.751	4.0	2397164	TEST_PROBE	n/a	wordpools/wordpool_EN.txt	1	1	BEAK	HEN	HEN	BEAK	9	[0, 0, 0]	-999	PAL1	1	R1100D
1421.723	4.045	2398719	REC_EVENT	0.972	n/a	1	1	BEAK	HEN	HEN	BEAK	9	[0, 0, 0]	-999	PAL1	1	R1100D
1425.768	0.017	2405191	REC_END	n/a	n/a	1	-999	n/a	n/a	n/a	n/a	9	[0, 0, 0]	-999	PAL1	1	R1100D
1425.785	0.275	2405218	TEST_ORIENT	n/a	n/a	6	2	CLIFF	PASS	COIN	CLIFF	9	[0, 0, 0]	-999	PAL1	1	R1100D
1426.785	4.0	2406818	TEST_PROBE	n/a	wordpools/wordpool_EN.txt	6	2	CLIFF	PASS	COIN	CLIFF	9	[0, 0, 0]	-999	PAL1	1	R1100D
1426.786	3.291	2406820	REC_START	n/a	n/a	6	-999	n/a	PASS	n/a	n/a	9	[0, 0, 0]	-999	PAL1	1	R1100D
1430.077	1.725	2412085	REC_EVENT	3.291	n/a	6	2	CLIFF	PASS	COIN	CLIFF	9	[0, 0, 0]	-999	PAL1	1	R1100D
1431.802	0.017	2414845	REC_END	n/a	n/a	6	-999	n/a	n/a	n/a	n/a	9	[0, 0, 0]	-999	PAL1	1	R1100D
1431.819	0.275	2414872	TEST_ORIENT	n/a	n/a	3	3	FORT	n/a	FORT	PIPE	9	[0, 0, 0]	-999	PAL1	1	R1100D
1432.82	4.0	2416474	TEST_PROBE	n/a	wordpools/wordpool_EN.txt	3	3	FORT	n/a	FORT	PIPE	9	[0, 0, 0]	-999	PAL1	1	R1100D
1432.82	5.017	2416474	REC_START	n/a	n/a	3	-999	n/a	n/a	n/a	n/a	9	[0, 0, 0]	-999	PAL1	1	R1100D
1437.837	0.004	2424500	REC_END	n/a	n/a	3	-999	n/a	n/a	n/a	n/a	9	[0, 0, 0]	-999	PAL1	1	R1100D
1437.841	0.013	2424507	REC_EVENT	5.021	n/a	3	3	FORT	<>	FORT	PIPE	9	[0, 0, 0]	-999	PAL1	1	R1100D
1437.854	0.275	2424528	TEST_ORIENT	n/a	n/a	2	4	STRAW	n/a	AXE	STRAW	9	[0, 0, 0]	-999	PAL1	1	R1100D
1438.671	4.0	2425835	TEST_PROBE	n/a	wordpools/wordpool_EN.txt	2	4	STRAW	n/a	AXE	STRAW	9	[0, 0, 0]	-999	PAL1	1	R1100D
1438.671	5.015	2425835	REC_START	n/a	n/a	2	-999	n/a	n/a	n/a	n/a	9	[0, 0, 0]	-999	PAL1	1	R1100D
1443.686	0.002	2433858	REC_EVENT	5.015	n/a	2	4	STRAW	<>	AXE	STRAW	9	[0, 0, 0]	-999	PAL1	1	R1100D
1443.688	0.017	2433862	REC_END	n/a	n/a	2	-999	n/a	n/a	n/a	n/a	9	[0, 0, 0]	-999	PAL1	1	R1100D
1443.705	0.275	2433889	TEST_ORIENT	n/a	n/a	5	5	PIT	HAND	HAND	PIT	9	[0, 0, 0]	-999	PAL1	1	R1100D
1444.506	4.0	2435170	TEST_PROBE	n/a	wordpools/wordpool_EN.txt	5	5	PIT	HAND	HAND	PIT	9	[0, 0, 0]	-999	PAL1	1	R1100D
1444.507	1.131	2435172	REC_START	n/a	n/a	5	-999	n/a	HAND	n/a	n/a	9	[0, 0, 0]	-999	PAL1	1	R1100D
1445.638	3.9	2436981	REC_EVENT	1.131	n/a	5	5	PIT	HAND	HAND	PIT	9	[0, 0, 0]	-999	PAL1	1	R1100D
1449.538	0.018	2443221	REC_END	n/a	n/a	5	-999	n/a	n/a	n/a	n/a	9	[0, 0, 0]	-999	PAL1	1	R1100D
1449.556	0.275	2443250	TEST_ORIENT	n/a	n/a	4	6	CUBE	n/a	SOUP	CUBE	9	[0, 0, 0]	-999	PAL1	1	R1100D
1450.374	4.0	2444559	TEST_PROBE	n/a	wordpools/wordpool_EN.txt	4	6	CUBE	n/a	SOUP	CUBE	9	[0, 0, 0]	-999	PAL1	1	R1100D
1450.374	5.015	2444559	REC_START	n/a	n/a	4	-999	n/a	n/a	n/a	n/a	9	[0, 0, 0]	-999	PAL1	1	R1100D
1455.389	0.002	2452582	REC_EVENT	5.015	n/a	4	6	CUBE	<>	SOUP	CUBE	9	[0, 0, 0]	-999	PAL1	1	R1100D
1455.391	14.827	2452585	REC_END	n/a	n/a	4	-999	n/a	n/a	n/a	n/a	9	[0, 0, 0]	-999	PAL1	1	R1100D
1470.218	10.444	2476308	ENCODING_START	n/a	n/a	0	-999	n/a	n/a	n/a	n/a	10	[0, 0, 0]	-999	PAL1	1	R1100D
1480.662	0.275	2493017	STUDY_ORIENT	n/a	n/a	1	3	PALM	n/a	PALM	DOLL	10	[0, 0, 0]	-999	PAL1	1	R1100D
1481.513	4.0	2494379	STUDY_PAIR	n/a	wordpools/wordpool_EN.txt	1	3	PALM	n/a	PALM	DOLL	10	[0, 0, 0]	-999	PAL1	1	R1100D
1486.547	0.275	2502433	STUDY_ORIENT	n/a	n/a	2	6	TENT	GLOVE	TENT	GEESE	10	[0, 0, 0]	-999	PAL1	1	R1100D
1487.447	4.0	2503873	STUDY_PAIR	n/a	wordpools/wordpool_EN.txt	2	6	TENT	GLOVE	TENT	GEESE	10	[0, 0, 0]	-999	PAL1	1	R1100D
1492.465	0.275	2511901	STUDY_ORIENT	n/a	n/a	3	1	DITCH	PASS	DITCH	CALF	10	[0, 0, 0]	-999	PAL1	1	R1100D
1493.465	4.0	2513501	STUDY_PAIR	n/a	wordpools/wordpool_EN.txt	3	1	DITCH	PASS	DITCH	CALF	10	[0, 0, 0]	-999	PAL1	1	R1100D
1498.499	0.275	2521555	STUDY_ORIENT	n/a	n/a	4	4	BLOOM	PASS	BLOOM	VASE	10	[0, 0, 0]	-999	PAL1	1	R1100D
1499.433	4.0	2523049	STUDY_PAIR	n/a	wordpools/wordpool_EN.txt	4	4	BLOOM	PASS	BLOOM	VASE	10	[0, 0, 0]	-999	PAL1	1	R1100D
1504.467	0.275	2531103	STUDY_ORIENT	n/a	n/a	5	5	TRAIN	CAT	TRAIN	CAT	10	[0, 0, 0]	-999	PAL1	1	R1100D
1505.417	4.0	2532623	STUDY_PAIR	n/a	wordpools/wordpool_EN.txt	5	5	TRAIN	CAT	TRAIN	CAT	10	[0, 0, 0]	-999	PAL1	1	R1100D
1510.435	0.275	2540652	STUDY_ORIENT	n/a	n/a	6	2	STONE	ARK	ARK	STONE	10	[0, 0, 0]	-999	PAL1	1	R1100D
1511.402	4.0	2542199	STUDY_PAIR	n/a	wordpools/wordpool_EN.txt	6	2	STONE	ARK	ARK	STONE	10	[0, 0, 0]	-999	PAL1	1	R1100D
1515.42	0.999	2548627	START	n/a	n/a	-999	-999	n/a	n/a	n/a	n/a	10	[-999, -999, -999]	-999	PAL1	1	R1100D
1516.419	0.017	2550226	MATH_START	n/a	n/a	-999	-999	n/a	n/a	n/a	n/a	10	[0, 0, 0]	-999	PAL1	1	R1100D
1516.436	3.751	2550253	PROB	3.717	n/a	-999	-999	n/a	n/a	n/a	n/a	10	[5, 3, 9]	17	PAL1	1	R1100D
1520.187	3.849	2556254	PROB	3.822	n/a	-999	-999	n/a	n/a	n/a	n/a	10	[5, 2, 5]	12	PAL1	1	R1100D
1524.036	3.352	2562412	PROB	3.318	n/a	-999	-999	n/a	n/a	n/a	n/a	10	[4, 6, 6]	16	PAL1	1	R1100D
1527.388	2.7	2567775	PROB	2.677	n/a	-999	-999	n/a	n/a	n/a	n/a	10	[2, 8, 2]	12	PAL1	1	R1100D
1530.088	3.0	2572095	PROB	2.969	n/a	-999	-999	n/a	n/a	n/a	n/a	10	[6, 1, 2]	9	PAL1	1	R1100D
1533.088	2.825	2576895	PROB	2.825	n/a	-999	-999	n/a	n/a	n/a	n/a	10	[2, 1, 4]	7	PAL1	1	R1100D
1535.913	0.009	2581414	STOP	n/a	n/a	-999	-999	n/a	n/a	n/a	n/a	10	[-999, -999, -999]	-999	PAL1	1	R1100D
1535.922	0.0	2581429	MATH_END	n/a	n/a	-999	-999	n/a	n/a	n/a	n/a	10	[0, 0, 0]	-999	PAL1	1	R1100D
1535.922	0.017	2581429	TEST_START	n/a	n/a	-999	-999	n/a	n/a	n/a	n/a	10	[0, 0, 0]	-999	PAL1	1	R1100D
1535.939	0.275	2581456	TEST_ORIENT	n/a	n/a	3	1	DITCH	PASS	DITCH	CALF	10	[0, 0, 0]	-999	PAL1	1	R1100D
1536.939	4.0	2583056	TEST_PROBE	n/a	wordpools/wordpool_EN.txt	3	1	DITCH	PASS	DITCH	CALF	10	[0, 0, 0]	-999	PAL1	1	R1100D
1536.94	2.922	2583058	REC_START	n/a	n/a	3	-999	n/a	PASS	n/a	n/a	10	[0, 0, 0]	-999	PAL1	1	R1100D
1539.862	2.094	2587733	REC_EVENT	2.922	n/a	3	1	DITCH	PASS	DITCH	CALF	10	[0, 0, 0]	-999	PAL1	1	R1100D
1541.956	0.017	2591083	REC_END	n/a	n/a	3	-999	n/a	n/a	n/a	n/a	10	[0, 0, 0]	-999	PAL1	1	R1100D
1541.973	0.275	2591110	TEST_ORIENT	n/a	n/a	6	2	STONE	ARK	ARK	STONE	10	[0, 0, 0]	-999	PAL1	1	R1100D
1542.79	4.0	2592417	TEST_PROBE	n/a	wordpools/wordpool_EN.txt	6	2	STONE	ARK	ARK	STONE	10	[0, 0, 0]	-999	PAL1	1	R1100D
1542.79	1.325	2592417	REC_START	n/a	n/a	6	-999	n/a	ARK	n/a	n/a	10	[0, 0, 0]	-999	PAL1	1	R1100D
1544.115	3.692	2594537	REC_EVENT	1.325	n/a	6	2	STONE	ARK	ARK	STONE	10	[0, 0, 0]	-999	PAL1	1	R1100D
1547.807	0.017	2600444	REC_END	n/a	n/a	6	-999	n/a	n/a	n/a	n/a	10	[0, 0, 0]	-999	PAL1	1	R1100D
1547.824	0.275	2600471	TEST_ORIENT	n/a	n/a	1	3	PALM	n/a	PALM	DOLL	10	[0, 0, 0]	-999	PAL1	1	R1100D
1548.641	4.0	2601778	TEST_PROBE	n/a	wordpools/wordpool_EN.txt	1	3	PALM	n/a	PALM	DOLL	10	[0, 0, 0]	-999	PAL1	1	R1100D
1548.641	5.015	2601778	REC_START	n/a	n/a	1	-999	n/a	n/a	n/a	n/a	10	[0, 0, 0]	-999	PAL1	1	R1100D
1553.656	0.002	2609802	REC_EVENT	5.015	n/a	1	3	PALM	<>	PALM	DOLL	10	[0, 0, 0]	-999	PAL1	1	R1100D
1553.658	0.017	2609805	REC_END	n/a	n/a	1	-999	n/a	n/a	n/a	n/a	10	[0, 0, 0]	-999	PAL1	1	R1100D
1553.675	0.275	2609832	TEST_ORIENT	n/a	n/a	4	4	BLOOM	PASS	BLOOM	VASE	10	[0, 0, 0]	-999	PAL1	1	R1100D
1554.559	4.0	2611247	TEST_PROBE	n/a	wordpools/wordpool_EN.txt	4	4	BLOOM	PASS	BLOOM	VASE	10	[0, 0, 0]	-999	PAL1	1	R1100D
1554.559	2.886	2611247	REC_START	n/a	n/a	4	-999	n/a	PASS	n/a	n/a	10	[0, 0, 0]	-999	PAL1	1	R1100D
1557.445	2.131	2615864	REC_EVENT	2.886	n/a	4	4	BLOOM	PASS	BLOOM	VASE	10	[0, 0, 0]	-999	PAL1	1	R1100D
1559.576	0.017	2619273	REC_END	n/a	n/a	4	-999	n/a	n/a	n/a	n/a	10	[0, 0, 0]	-999	PAL1	1	R1100D
1559.593	0.275	2619301	TEST_ORIENT	n/a	n/a	5	5	TRAIN	CAT	TRAIN	CAT	10	[0, 0, 0]	-999	PAL1	1	R1100D
1560.461	4.0	2620689	TEST_PROBE	n/a	wordpools/wordpool_EN.txt	5	5	TRAIN	CAT	TRAIN	CAT	10	[0, 0, 0]	-999	PAL1	1	R1100D
1560.462	2.683	2620691	REC_START	n/a	n/a	5	-999	n/a	CAT	n/a	n/a	10	[0, 0, 0]	-999	PAL1	1	R1100D
1563.145	2.333	2624984	REC_EVENT	2.683	n/a	5	5	TRAIN	CAT	TRAIN	CAT	10	[0, 0, 0]	-999	PAL1	1	R1100D
1565.478	0.017	2628716	REC_END	n/a	n/a	5	-999	n/a	n/a	n/a	n/a	10	[0, 0, 0]	-999	PAL1	1	R1100D
1565.495	0.275	2628743	TEST_ORIENT	n/a	n/a	2	6	TENT	GLOVE	TENT	GEESE	10	[0, 0, 0]	-999	PAL1	1	R1100D
1566.329	0.0	2630078	REC_START	n/a	n/a	2	-999	n/a	GLOVE	n/a	n/a	10	[0, 0, 0]	-999	PAL1	1	R1100D
1566.329	4.0	2630078	TEST_PROBE	n/a	wordpools/wordpool_EN.txt	2	6	TENT	GLOVE	TENT	GEESE	10	[0, 0, 0]	-999	PAL1	1	R1100D
1568.362	2.993	2633330	REC_EVENT	2.033	n/a	2	6	TENT	GLOVE	TENT	GEESE	10	[0, 0, 0]	-999	PAL1	1	R1100D
1571.355	13.31	2638119	REC_END	n/a	n/a	2	-999	n/a	n/a	n/a	n/a	10	[0, 0, 0]	-999	PAL1	1	R1100D
1584.665	10.451	2659414	ENCODING_START	n/a	n/a	0	-999	n/a	n/a	n/a	n/a	11	[0, 0, 0]	-999	PAL1	1	R1100D
1595.116	0.275	2676135	STUDY_ORIENT	n/a	n/a	1	5	STORE	n/a	STORE	FOX	11	[0, 0, 0]	-999	PAL1	1	R1100D
1596.0	4.0	2677549	STUDY_PAIR	n/a	wordpools/wordpool_EN.txt	1	5	STORE	n/a	STORE	FOX	11	[0, 0, 0]	-999	PAL1	1	R1100D
1601.034	0.275	2685603	STUDY_ORIENT	n/a	n/a	2	2	SNOW	n/a	SNOW	CHIEF	11	[0, 0, 0]	-999	PAL1	1	R1100D
1601.818	4.0	2686857	STUDY_PAIR	n/a	wordpools/wordpool_EN.txt	2	2	SNOW	n/a	SNOW	CHIEF	11	[0, 0, 0]	-999	PAL1	1	R1100D
1606.852	0.275	2694911	STUDY_ORIENT	n/a	n/a	3	3	HOOF	n/a	SKI	HOOF	11	[0, 0, 0]	-999	PAL1	1	R1100D
1607.785	4.0	2696404	STUDY_PAIR	n/a	wordpools/wordpool_EN.txt	3	3	HOOF	n/a	SKI	HOOF	11	[0, 0, 0]	-999	PAL1	1	R1100D
1612.803	0.275	2704432	STUDY_ORIENT	n/a	n/a	4	6	DOG	n/a	DOG	HORSE	11	[0, 0, 0]	-999	PAL1	1	R1100D
1613.686	4.0	2705845	STUDY_PAIR	n/a	wordpools/wordpool_EN.txt	4	6	DOG	n/a	DOG	HORSE	11	[0, 0, 0]	-999	PAL1	1	R1100D
1618.704	0.275	2713874	STUDY_ORIENT	n/a	n/a	5	1	MOON	n/a	MOON	MULE	11	[0, 0, 0]	-999	PAL1	1	R1100D
1619.587	4.0	2715286	STUDY_PAIR	n/a	wordpools/wordpool_EN.txt	5	1	MOON	n/a	MOON	MULE	11	[0, 0, 0]	-999	PAL1	1	R1100D
1624.605	0.275	2723315	STUDY_ORIENT	n/a	n/a	6	4	OAR	n/a	OAR	SHIRT	11	[0, 0, 0]	-999	PAL1	1	R1100D
1625.555	4.0	2724835	STUDY_PAIR	n/a	wordpools/wordpool_EN.txt	6	4	OAR	n/a	OAR	SHIRT	11	[0, 0, 0]	-999	PAL1	1	R1100D
1629.556	1.0	2731236	START	n/a	n/a	-999	-999	n/a	n/a	n/a	n/a	11	[-999, -999, -999]	-999	PAL1	1	R1100D
1630.556	0.017	2732836	MATH_START	n/a	n/a	-999	-999	n/a	n/a	n/a	n/a	11	[0, 0, 0]	-999	PAL1	1	R1100D
1630.573	4.567	2732863	PROB	4.548	n/a	-999	-999	n/a	n/a	n/a	n/a	11	[9, 5, 7]	21	PAL1	1	R1100D
1635.14	8.802	2740170	PROB	8.773	n/a	-999	-999	n/a	n/a	n/a	n/a	11	[2, 7, 8]	17	PAL1	1	R1100D
1643.942	13.147	2754252	PROB	13.147	n/a	-999	-999	n/a	n/a	n/a	n/a	11	[7, 8, 4]	19	PAL1	1	R1100D
1657.089	0.006	2775287	STOP	n/a	n/a	-999	-999	n/a	n/a	n/a	n/a	11	[-999, -999, -999]	-999	PAL1	1	R1100D
1657.095	0.0	2775296	TEST_START	n/a	n/a	-999	-999	n/a	n/a	n/a	n/a	11	[0, 0, 0]	-999	PAL1	1	R1100D
1657.095	0.016	2775296	MATH_END	n/a	n/a	-999	-999	n/a	n/a	n/a	n/a	11	[0, 0, 0]	-999	PAL1	1	R1100D
1657.111	0.275	2775322	TEST_ORIENT	n/a	n/a	5	1	MOON	n/a	MOON	MULE	11	[0, 0, 0]	-999	PAL1	1	R1100D
1657.995	4.0	2776736	TEST_PROBE	n/a	wordpools/wordpool_EN.txt	5	1	MOON	n/a	MOON	MULE	11	[0, 0, 0]	-999	PAL1	1	R1100D
1657.995	5.015	2776736	REC_START	n/a	n/a	5	-999	n/a	n/a	n/a	n/a	11	[0, 0, 0]	-999	PAL1	1	R1100D
1663.01	0.002	2784760	REC_EVENT	5.015	n/a	5	1	MOON	<>	MOON	MULE	11	[0, 0, 0]	-999	PAL1	1	R1100D
1663.012	0.017	2784763	REC_END	n/a	n/a	5	-999	n/a	n/a	n/a	n/a	11	[0, 0, 0]	-999	PAL1	1	R1100D
1663.029	0.275	2784790	TEST_ORIENT	n/a	n/a	2	2	SNOW	n/a	SNOW	CHIEF	11	[0, 0, 0]	-999	PAL1	1	R1100D
1663.912	4.0	2786203	TEST_PROBE	n/a	wordpools/wordpool_EN.txt	2	2	SNOW	n/a	SNOW	CHIEF	11	[0, 0, 0]	-999	PAL1	1	R1100D
1663.913	5.003	2786205	REC_START	n/a	n/a	2	-999	n/a	n/a	n/a	n/a	11	[0, 0, 0]	-999	PAL1	1	R1100D
1668.916	0.005	2794209	REC_EVENT	5.003	n/a	2	2	SNOW	<>	SNOW	CHIEF	11	[0, 0, 0]	-999	PAL1	1	R1100D
1668.921	0.009	2794217	REC_END	n/a	n/a	2	-999	n/a	n/a	n/a	n/a	11	[0, 0, 0]	-999	PAL1	1	R1100D
1668.93	0.275	2794231	TEST_ORIENT	n/a	n/a	3	3	HOOF	n/a	SKI	HOOF	11	[0, 0, 0]	-999	PAL1	1	R1100D
1669.814	4.0	2795646	TEST_PROBE	n/a	wordpools/wordpool_EN.txt	3	3	HOOF	n/a	SKI	HOOF	11	[0, 0, 0]	-999	PAL1	1	R1100D
1669.815	5.024	2795647	REC_START	n/a	n/a	3	-999	n/a	n/a	n/a	n/a	11	[0, 0, 0]	-999	PAL1	1	R1100D
1674.839	0.003	2803685	REC_END	n/a	n/a	3	-999	n/a	n/a	n/a	n/a	11	[0, 0, 0]	-999	PAL1	1	R1100D
1674.842	0.006	2803690	REC_EVENT	5.027	n/a	3	3	HOOF	<>	SKI	HOOF	11	[0, 0, 0]	-999	PAL1	1	R1100D
1674.848	0.275	2803700	TEST_ORIENT	n/a	n/a	6	4	OAR	n/a	OAR	SHIRT	11	[0, 0, 0]	-999	PAL1	1	R1100D
1675.748	0.0	2805140	REC_START	n/a	n/a	6	-999	n/a	n/a	n/a	n/a	11	[0, 0, 0]	-999	PAL1	1	R1100D
1675.748	4.0	2805140	TEST_PROBE	n/a	wordpools/wordpool_EN.txt	6	4	OAR	n/a	OAR	SHIRT	11	[0, 0, 0]	-999	PAL1	1	R1100D
1680.763	0.002	2813163	REC_EVENT	5.015	n/a	6	4	OAR	<>	OAR	SHIRT	11	[0, 0, 0]	-999	PAL1	1	R1100D
1680.765	0.017	2813166	REC_END	n/a	n/a	6	-999	n/a	n/a	n/a	n/a	11	[0, 0, 0]	-999	PAL1	1	R1100D
1680.782	0.275	2813194	TEST_ORIENT	n/a	n/a	1	5	STORE	n/a	STORE	FOX	11	[0, 0, 0]	-999	PAL1	1	R1100D
1681.599	4.0	2814501	TEST_PROBE	n/a	wordpools/wordpool_EN.txt	1	5	STORE	n/a	STORE	FOX	11	[0, 0, 0]	-999	PAL1	1	R1100D
1681.599	5.018	2814501	REC_START	n/a	n/a	1	-999	n/a	n/a	n/a	n/a	11	[0, 0, 0]	-999	PAL1	1	R1100D
1686.617	0.003	2822529	REC_END	n/a	n/a	1	-999	n/a	n/a	n/a	n/a	11	[0, 0, 0]	-999	PAL1	1	R1100D
1686.62	0.013	2822534	REC_EVENT	5.021	n/a	1	5	STORE	<>	STORE	FOX	11	[0, 0, 0]	-999	PAL1	1	R1100D
1686.633	0.275	2822555	TEST_ORIENT	n/a	n/a	4	6	DOG	n/a	DOG	HORSE	11	[0, 0, 0]	-999	PAL1	1	R1100D
1687.484	4.0	2823916	TEST_PROBE	n/a	wordpools/wordpool_EN.txt	4	6	DOG	n/a	DOG	HORSE	11	[0, 0, 0]	-999	PAL1	1	R1100D
1687.485	4.998	2823918	REC_START	n/a	n/a	4	-999	n/a	n/a	n/a	n/a	11	[0, 0, 0]	-999	PAL1	1	R1100D
1692.483	0.002	2831914	REC_EVENT	4.998	n/a	4	6	DOG	<>	DOG	HORSE	11	[0, 0, 0]	-999	PAL1	1	R1100D
1692.485	118.861	2831918	REC_END	n/a	n/a	4	-999	n/a	n/a	n/a	n/a	11	[0, 0, 0]	-999	PAL1	1	R1100D
1811.346	10.446	3022086	ENCODING_START	n/a	n/a	0	-999	n/a	n/a	n/a	n/a	12	[0, 0, 0]	-999	PAL1	1	R1100D
1821.792	0.275	3038799	STUDY_ORIENT	n/a	n/a	1	5	SUN	PASS	SLUSH	SUN	12	[0, 0, 0]	-999	PAL1	1	R1100D
1822.625	4.0	3040131	STUDY_PAIR	n/a	wordpools/wordpool_EN.txt	1	5	SUN	PASS	SLUSH	SUN	12	[0, 0, 0]	-999	PAL1	1	R1100D
1827.643	0.275	3048160	STUDY_ORIENT	n/a	n/a	2	6	SPEAR	n/a	SPEAR	HAT	12	[0, 0, 0]	-999	PAL1	1	R1100D
1828.544	4.0	3049601	STUDY_PAIR	n/a	wordpools/wordpool_EN.txt	2	6	SPEAR	n/a	SPEAR	HAT	12	[0, 0, 0]	-999	PAL1	1	R1100D
1833.577	0.275	3057654	STUDY_ORIENT	n/a	n/a	3	3	SHARK	PASS	SHARK	RUG	12	[0, 0, 0]	-999	PAL1	1	R1100D
1834.512	4.0	3059150	STUDY_PAIR	n/a	wordpools/wordpool_EN.txt	3	3	SHARK	PASS	SHARK	RUG	12	[0, 0, 0]	-999	PAL1	1	R1100D
1839.546	0.275	3067204	STUDY_ORIENT	n/a	n/a	4	2	SLIME	PASS	SLIME	WEED	12	[0, 0, 0]	-999	PAL1	1	R1100D
1840.546	4.0	3068804	STUDY_PAIR	n/a	wordpools/wordpool_EN.txt	4	2	SLIME	PASS	SLIME	WEED	12	[0, 0, 0]	-999	PAL1	1	R1100D
1845.563	0.275	3076830	STUDY_ORIENT	n/a	n/a	5	1	PLANE	FLEA	PLANE	FLEA	12	[0, 0, 0]	-999	PAL1	1	R1100D
1846.514	4.0	3078352	STUDY_PAIR	n/a	wordpools/wordpool_EN.txt	5	1	PLANE	FLEA	PLANE	FLEA	12	[0, 0, 0]	-999	PAL1	1	R1100D
1851.547	0.275	3086404	STUDY_ORIENT	n/a	n/a	6	4	RIB	CHEST	DESK	RIB	12	[0, 0, 0]	-999	PAL1	1	R1100D
1852.482	4.0	3087900	STUDY_PAIR	n/a	wordpools/wordpool_EN.txt	6	4	RIB	CHEST	DESK	RIB	12	[0, 0, 0]	-999	PAL1	1	R1100D
1856.5	0.999	3094329	START	n/a	n/a	-999	-999	n/a	n/a	n/a	n/a	12	[-999, -999, -999]	-999	PAL1	1	R1100D
1857.499	0.017	3095927	MATH_START	n/a	n/a	-999	-999	n/a	n/a	n/a	n/a	12	[0, 0, 0]	-999	PAL1	1	R1100D
1857.516	4.818	3095954	PROB	4.798	n/a	-999	-999	n/a	n/a	n/a	n/a	12	[9, 7, 3]	19	PAL1	1	R1100D
1862.334	3.2	3103663	PROB	3.172	n/a	-999	-999	n/a	n/a	n/a	n/a	12	[3, 2, 4]	9	PAL1	1	R1100D
1865.534	3.417	3108783	PROB	3.387	n/a	-999	-999	n/a	n/a	n/a	n/a	12	[8, 2, 8]	18	PAL1	1	R1100D
1868.951	5.285	3114249	PROB	5.259	n/a	-999	-999	n/a	n/a	n/a	n/a	12	[3, 6, 8]	17	PAL1	1	R1100D
1874.236	3.286	3122705	PROB	3.286	n/a	-999	-999	n/a	n/a	n/a	n/a	12	[1, 8, 3]	12	PAL1	1	R1100D
1877.522	0.014	3127962	STOP	n/a	n/a	-999	-999	n/a	n/a	n/a	n/a	12	[-999, -999, -999]	-999	PAL1	1	R1100D
1877.536	0.0	3127985	TEST_START	n/a	n/a	-999	-999	n/a	n/a	n/a	n/a	12	[0, 0, 0]	-999	PAL1	1	R1100D
1877.536	0.016	3127985	MATH_END	n/a	n/a	-999	-999	n/a	n/a	n/a	n/a	12	[0, 0, 0]	-999	PAL1	1	R1100D
1877.552	0.275	3128010	TEST_ORIENT	n/a	n/a	5	1	PLANE	FLEA	PLANE	FLEA	12	[0, 0, 0]	-999	PAL1	1	R1100D
1878.47	4.0	3129479	TEST_PROBE	n/a	wordpools/wordpool_EN.txt	5	1	PLANE	FLEA	PLANE	FLEA	12	[0, 0, 0]	-999	PAL1	1	R1100D
1878.471	1.471	3129481	REC_START	n/a	n/a	5	-999	n/a	FLEA	n/a	n/a	12	[0, 0, 0]	-999	PAL1	1	R1100D
1879.942	3.545	3131834	REC_EVENT	1.471	n/a	5	1	PLANE	FLEA	PLANE	FLEA	12	[0, 0, 0]	-999	PAL1	1	R1100D
1883.487	0.017	3137506	REC_END	n/a	n/a	5	-999	n/a	n/a	n/a	n/a	12	[0, 0, 0]	-999	PAL1	1	R1100D
1883.504	0.275	3137533	TEST_ORIENT	n/a	n/a	4	2	SLIME	PASS	SLIME	WEED	12	[0, 0, 0]	-999	PAL1	1	R1100D
1884.388	4.0	3138947	TEST_PROBE	n/a	wordpools/wordpool_EN.txt	4	2	SLIME	PASS	SLIME	WEED	12	[0, 0, 0]	-999	PAL1	1	R1100D
1884.388	2.218	3138947	REC_START	n/a	n/a	4	-999	n/a	PASS	n/a	n/a	12	[0, 0, 0]	-999	PAL1	1	R1100D
1886.606	2.799	3142496	REC_EVENT	2.218	n/a	4	2	SLIME	PASS	SLIME	WEED	12	[0, 0, 0]	-999	PAL1	1	R1100D
1889.405	0.017	3146974	REC_END	n/a	n/a	4	-999	n/a	n/a	n/a	n/a	12	[0, 0, 0]	-999	PAL1	1	R1100D
1889.422	0.275	3147002	TEST_ORIENT	n/a	n/a	3	3	SHARK	PASS	SHARK	RUG	12	[0, 0, 0]	-999	PAL1	1	R1100D
1890.422	4.0	3148601	TEST_PROBE	n/a	wordpools/wordpool_EN.txt	3	3	SHARK	PASS	SHARK	RUG	12	[0, 0, 0]	-999	PAL1	1	R1100D
1890.423	3.107	3148603	REC_START	n/a	n/a	3	-999	n/a	PASS	n/a	n/a	12	[0, 0, 0]	-999	PAL1	1	R1100D
1893.53	1.902	3153574	REC_EVENT	3.107	n/a	3	3	SHARK	PASS	SHARK	RUG	12	[0, 0, 0]	-999	PAL1	1	R1100D
1895.432	0.008	3156617	REC_END	n/a	n/a	3	-999	n/a	n/a	n/a	n/a	12	[0, 0, 0]	-999	PAL1	1	R1100D
1895.44	0.275	3156630	TEST_ORIENT	n/a	n/a	6	4	RIB	CHEST	DESK	RIB	12	[0, 0, 0]	-999	PAL1	1	R1100D
1896.39	0.0	3158150	REC_START	n/a	n/a	6	-999	n/a	CHEST	n/a	n/a	12	[0, 0, 0]	-999	PAL1	1	R1100D
1896.39	4.0	3158150	TEST_PROBE	n/a	wordpools/wordpool_EN.txt	6	4	RIB	CHEST	DESK	RIB	12	[0, 0, 0]	-999	PAL1	1	R1100D
1897.337	4.07	3159665	REC_EVENT	0.947	n/a	6	4	RIB	CHEST	DESK	RIB	12	[0, 0, 0]	-999	PAL1	1	R1100D
1901.407	0.017	3166177	REC_END	n/a	n/a	6	-999	n/a	n/a	n/a	n/a	12	[0, 0, 0]	-999	PAL1	1	R1100D
1901.424	0.275	3166204	TEST_ORIENT	n/a	n/a	1	5	SUN	PASS	SLUSH	SUN	12	[0, 0, 0]	-999	PAL1	1	R1100D
1902.391	4.0	3167751	TEST_PROBE	n/a	wordpools/wordpool_EN.txt	1	5	SUN	PASS	SLUSH	SUN	12	[0, 0, 0]	-999	PAL1	1	R1100D
1902.392	2.686	3167752	REC_START	n/a	n/a	1	-999	n/a	PASS	n/a	n/a	12	[0, 0, 0]	-999	PAL1	1	R1100D
1905.078	2.33	3172050	REC_EVENT	2.686	n/a	1	5	SUN	PASS	SLUSH	SUN	12	[0, 0, 0]	-999	PAL1	1	R1100D
1907.408	0.017	3175778	REC_END	n/a	n/a	1	-999	n/a	n/a	n/a	n/a	12	[0, 0, 0]	-999	PAL1	1	R1100D
1907.425	0.275	3175805	TEST_ORIENT	n/a	n/a	2	6	SPEAR	n/a	SPEAR	HAT	12	[0, 0, 0]	-999	PAL1	1	R1100D
1908.392	4.0	3177352	TEST_PROBE	n/a	wordpools/wordpool_EN.txt	2	6	SPEAR	n/a	SPEAR	HAT	12	[0, 0, 0]	-999	PAL1	1	R1100D
1908.393	5.008	3177354	REC_START	n/a	n/a	2	-999	n/a	n/a	n/a	n/a	12	[0, 0, 0]	-999	PAL1	1	R1100D
1913.401	0.001	3185366	REC_END	n/a	n/a	2	-999	n/a	n/a	n/a	n/a	12	[0, 0, 0]	-999	PAL1	1	R1100D
1913.402	10.928	3185368	REC_EVENT	5.009	n/a	2	6	SPEAR	<>	SPEAR	HAT	12	[0, 0, 0]	-999	PAL1	1	R1100D
1924.33	10.449	3202852	ENCODING_START	n/a	n/a	0	-999	n/a	n/a	n/a	n/a	13	[0, 0, 0]	-999	PAL1	1	R1100D
1934.779	0.275	3219569	STUDY_ORIENT	n/a	n/a	1	5	BOMB	PASS	BOMB	SWAMP	13	[0, 0, 0]	-999	PAL1	1	R1100D
1935.763	4.0	3221144	STUDY_PAIR	n/a	wordpools/wordpool_EN.txt	1	5	BOMB	PASS	BOMB	SWAMP	13	[0, 0, 0]	-999	PAL1	1	R1100D
1940.797	0.275	3229198	STUDY_ORIENT	n/a	n/a	2	4	DOOR	n/a	DOOR	BAT	13	[0, 0, 0]	-999	PAL1	1	R1100D
1941.731	4.0	3230692	STUDY_PAIR	n/a	wordpools/wordpool_EN.txt	2	4	DOOR	n/a	DOOR	BAT	13	[0, 0, 0]	-999	PAL1	1	R1100D
1946.765	0.275	3238746	STUDY_ORIENT	n/a	n/a	3	1	CORN	GOLD	CORN	GOLD	13	[0, 0, 0]	-999	PAL1	1	R1100D
1947.748	4.0	3240319	STUDY_PAIR	n/a	wordpools/wordpool_EN.txt	3	1	CORN	GOLD	CORN	GOLD	13	[0, 0, 0]	-999	PAL1	1	R1100D
1952.766	0.275	3248347	STUDY_ORIENT	n/a	n/a	4	2	SHIP	MUD	SHIP	ROOT	13	[0, 0, 0]	-999	PAL1	1	R1100D
1953.75	4.0	3249921	STUDY_PAIR	n/a	wordpools/wordpool_EN.txt	4	2	SHIP	MUD	SHIP	ROOT	13	[0, 0, 0]	-999	PAL1	1	R1100D
1958.784	0.275	3257975	STUDY_ORIENT	n/a	n/a	5	3	MUD	PASS	MUD	GOAT	13	[0, 0, 0]	-999	PAL1	1	R1100D
1959.634	4.0	3259335	STUDY_PAIR	n/a	wordpools/wordpool_EN.txt	5	3	MUD	PASS	MUD	GOAT	13	[0, 0, 0]	-999	PAL1	1	R1100D
1964.668	0.275	3267389	STUDY_ORIENT	n/a	n/a	6	6	NAIL	PASS	EEL	NAIL	13	[0, 0, 0]	-999	PAL1	1	R1100D
1965.469	4.0	3268671	STUDY_PAIR	n/a	wordpools/wordpool_EN.txt	6	6	NAIL	PASS	EEL	NAIL	13	[0, 0, 0]	-999	PAL1	1	R1100D
1969.47	1.0	3275072	START	n/a	n/a	-999	-999	n/a	n/a	n/a	n/a	13	[-999, -999, -999]	-999	PAL1	1	R1100D
1970.47	0.017	3276672	MATH_START	n/a	n/a	-999	-999	n/a	n/a	n/a	n/a	13	[0, 0, 0]	-999	PAL1	1	R1100D
1970.487	3.817	3276699	PROB	3.795	n/a	-999	-999	n/a	n/a	n/a	n/a	13	[6, 1, 4]	11	PAL1	1	R1100D
1974.304	2.868	3282806	PROB	2.833	n/a	-999	-999	n/a	n/a	n/a	n/a	13	[1, 7, 3]	11	PAL1	1	R1100D
1977.172	3.067	3287395	PROB	3.046	n/a	-999	-999	n/a	n/a	n/a	n/a	13	[6, 1, 5]	12	PAL1	1	R1100D
1980.239	5.383	3292302	PROB	5.362	n/a	-999	-999	n/a	n/a	n/a	n/a	13	[6, 8, 9]	23	PAL1	1	R1100D
1985.622	2.868	3300914	PROB	2.844	n/a	-999	-999	n/a	n/a	n/a	n/a	13	[4, 4, 4]	12	PAL1	1	R1100D
1988.49	3.84	3305503	PROB	3.84	n/a	-999	-999	n/a	n/a	n/a	n/a	13	[1, 9, 4]	14	PAL1	1	R1100D
1992.33	0.011	3311646	STOP	n/a	n/a	-999	-999	n/a	n/a	n/a	n/a	13	[-999, -999, -999]	-999	PAL1	1	R1100D
1992.341	0.0	3311664	MATH_END	n/a	n/a	-999	-999	n/a	n/a	n/a	n/a	13	[0, 0, 0]	-999	PAL1	1	R1100D
1992.341	0.017	3311664	TEST_START	n/a	n/a	-999	-999	n/a	n/a	n/a	n/a	13	[0, 0, 0]	-999	PAL1	1	R1100D
1992.358	0.275	3311691	TEST_ORIENT	n/a	n/a	3	1	CORN	GOLD	CORN	GOLD	13	[0, 0, 0]	-999	PAL1	1	R1100D
1993.225	4.0	3313078	TEST_PROBE	n/a	wordpools/wordpool_EN.txt	3	1	CORN	GOLD	CORN	GOLD	13	[0, 0, 0]	-999	PAL1	1	R1100D
1993.226	1.12	3313080	REC_START	n/a	n/a	3	-999	n/a	GOLD	n/a	n/a	13	[0, 0, 0]	-999	PAL1	1	R1100D
1994.346	3.904	3314872	REC_EVENT	1.12	n/a	3	1	CORN	GOLD	CORN	GOLD	13	[0, 0, 0]	-999	PAL1	1	R1100D
1998.25	0.009	3321118	REC_END	n/a	n/a	3	-999	n/a	n/a	n/a	n/a	13	[0, 0, 0]	-999	PAL1	1	R1100D
1998.259	0.275	3321132	TEST_ORIENT	n/a	n/a	4	2	SHIP	MUD	SHIP	ROOT	13	[0, 0, 0]	-999	PAL1	1	R1100D
1999.259	4.0	3322732	TEST_PROBE	n/a	wordpools/wordpool_EN.txt	4	2	SHIP	MUD	SHIP	ROOT	13	[0, 0, 0]	-999	PAL1	1	R1100D
1999.26	3.909	3322734	REC_START	n/a	n/a	4	-999	n/a	MUD	n/a	n/a	13	[0, 0, 0]	-999	PAL1	1	R1100D
2003.169	1.107	3328988	REC_EVENT	3.909	n/a	4	2	SHIP	MUD	SHIP	ROOT	13	[0, 0, 0]	-999	PAL1	1	R1100D
2004.276	0.017	3330759	REC_END	n/a	n/a	4	-999	n/a	n/a	n/a	n/a	13	[0, 0, 0]	-999	PAL1	1	R1100D
2004.293	0.275	3330786	TEST_ORIENT	n/a	n/a	5	3	MUD	PASS	MUD	GOAT	13	[0, 0, 0]	-999	PAL1	1	R1100D
2005.126	4.0	3332119	TEST_PROBE	n/a	wordpools/wordpool_EN.txt	5	3	MUD	PASS	MUD	GOAT	13	[0, 0, 0]	-999	PAL1	1	R1100D
2005.126	2.319	3332119	REC_START	n/a	n/a	5	-999	n/a	PASS	n/a	n/a	13	[0, 0, 0]	-999	PAL1	1	R1100D
2007.445	2.698	3335829	REC_EVENT	2.319	n/a	5	3	MUD	PASS	MUD	GOAT	13	[0, 0, 0]	-999	PAL1	1	R1100D
2010.143	0.017	3340146	REC_END	n/a	n/a	5	-999	n/a	n/a	n/a	n/a	13	[0, 0, 0]	-999	PAL1	1	R1100D
2010.16	0.275	3340173	TEST_ORIENT	n/a	n/a	2	4	DOOR	n/a	DOOR	BAT	13	[0, 0, 0]	-999	PAL1	1	R1100D
2010.977	4.0	3341480	TEST_PROBE	n/a	wordpools/wordpool_EN.txt	2	4	DOOR	n/a	DOOR	BAT	13	[0, 0, 0]	-999	PAL1	1	R1100D
2010.978	5.024	3341482	REC_START	n/a	n/a	2	-999	n/a	n/a	n/a	n/a	13	[0, 0, 0]	-999	PAL1	1	R1100D
2016.002	0.003	3349520	REC_END	n/a	n/a	2	-999	n/a	n/a	n/a	n/a	13	[0, 0, 0]	-999	PAL1	1	R1100D
2016.005	0.006	3349525	REC_EVENT	5.027	n/a	2	4	DOOR	<>	DOOR	BAT	13	[0, 0, 0]	-999	PAL1	1	R1100D
2016.011	0.275	3349534	TEST_ORIENT	n/a	n/a	1	5	BOMB	PASS	BOMB	SWAMP	13	[0, 0, 0]	-999	PAL1	1	R1100D
2016.845	4.0	3350868	TEST_PROBE	n/a	wordpools/wordpool_EN.txt	1	5	BOMB	PASS	BOMB	SWAMP	13	[0, 0, 0]	-999	PAL1	1	R1100D
2016.845	2.557	3350868	REC_START	n/a	n/a	1	-999	n/a	PASS	n/a	n/a	13	[0, 0, 0]	-999	PAL1	1	R1100D
2019.402	2.46	3354959	REC_EVENT	2.557	n/a	1	5	BOMB	PASS	BOMB	SWAMP	13	[0, 0, 0]	-999	PAL1	1	R1100D
2021.862	0.017	3358895	REC_END	n/a	n/a	1	-999	n/a	n/a	n/a	n/a	13	[0, 0, 0]	-999	PAL1	1	R1100D
2021.879	0.275	3358922	TEST_ORIENT	n/a	n/a	6	6	NAIL	PASS	EEL	NAIL	13	[0, 0, 0]	-999	PAL1	1	R1100D
2022.679	4.0	3360202	TEST_PROBE	n/a	wordpools/wordpool_EN.txt	6	6	NAIL	PASS	EEL	NAIL	13	[0, 0, 0]	-999	PAL1	1	R1100D
2022.679	2.578	3360202	REC_START	n/a	n/a	6	-999	n/a	PASS	n/a	n/a	13	[0, 0, 0]	-999	PAL1	1	R1100D
2025.257	2.44	3364327	REC_EVENT	2.578	n/a	6	6	NAIL	PASS	EEL	NAIL	13	[0, 0, 0]	-999	PAL1	1	R1100D
2027.697	96.984	3368231	REC_END	n/a	n/a	6	-999	n/a	n/a	n/a	n/a	13	[0, 0, 0]	-999	PAL1	1	R1100D
2124.681	10.452	3523398	ENCODING_START	n/a	n/a	0	-999	n/a	n/a	n/a	n/a	14	[0, 0, 0]	-999	PAL1	1	R1100D
2135.133	0.275	3540120	STUDY_ORIENT	n/a	n/a	1	3	GLASS	n/a	SHEEP	GLASS	14	[0, 0, 0]	-999	PAL1	1	R1100D
2136.15	4.0	3541747	STUDY_PAIR	n/a	wordpools/wordpool_EN.txt	1	3	GLASS	n/a	SHEEP	GLASS	14	[0, 0, 0]	-999	PAL1	1	R1100D
2141.169	0.275	3549777	STUDY_ORIENT	n/a	n/a	2	6	STREET	PASS	STREET	HORN	14	[0, 0, 0]	-999	PAL1	1	R1100D
2141.968	4.0	3551056	STUDY_PAIR	n/a	wordpools/wordpool_EN.txt	2	6	STREET	PASS	STREET	HORN	14	[0, 0, 0]	-999	PAL1	1	R1100D
2147.002	0.275	3559110	STUDY_ORIENT	n/a	n/a	3	5	SAIL	PASS	POND	SAIL	14	[0, 0, 0]	-999	PAL1	1	R1100D
2147.902	4.0	3560550	STUDY_PAIR	n/a	wordpools/wordpool_EN.txt	3	5	SAIL	PASS	POND	SAIL	14	[0, 0, 0]	-999	PAL1	1	R1100D
2152.92	0.275	3568578	STUDY_ORIENT	n/a	n/a	4	2	BRUSH	PASS	OAK	BRUSH	14	[0, 0, 0]	-999	PAL1	1	R1100D
2153.87	4.0	3570098	STUDY_PAIR	n/a	wordpools/wordpool_EN.txt	4	2	BRUSH	PASS	OAK	BRUSH	14	[0, 0, 0]	-999	PAL1	1	R1100D
2158.904	0.275	3578152	STUDY_ORIENT	n/a	n/a	5	1	PEARL	PASS	STAR	PEARL	14	[0, 0, 0]	-999	PAL1	1	R1100D
2159.838	4.0	3579646	STUDY_PAIR	n/a	wordpools/wordpool_EN.txt	5	1	PEARL	PASS	STAR	PEARL	14	[0, 0, 0]	-999	PAL1	1	R1100D
2164.872	0.275	3587700	STUDY_ORIENT	n/a	n/a	6	4	RAT	LAWN	RAT	LAWN	14	[0, 0, 0]	-999	PAL1	1	R1100D
2165.656	4.0	3588955	STUDY_PAIR	n/a	wordpools/wordpool_EN.txt	6	4	RAT	LAWN	RAT	LAWN	14	[0, 0, 0]	-999	PAL1	1	R1100D
2169.674	0.999	3595383	START	n/a	n/a	-999	-999	n/a	n/a	n/a	n/a	14	[-999, -999, -999]	-999	PAL1	1	R1100D
2170.673	0.017	3596981	MATH_START	n/a	n/a	-999	-999	n/a	n/a	n/a	n/a	14	[0, 0, 0]	-999	PAL1	1	R1100D
2170.69	3.585	3597009	PROB	3.56	n/a	-999	-999	n/a	n/a	n/a	n/a	14	[6, 4, 2]	12	PAL1	1	R1100D
2174.275	4.616	3602744	PROB	4.582	n/a	-999	-999	n/a	n/a	n/a	n/a	14	[6, 8, 8]	22	PAL1	1	R1100D
2178.891	4.419	3610130	PROB	4.399	n/a	-999	-999	n/a	n/a	n/a	n/a	14	[5, 6, 1]	12	PAL1	1	R1100D
2183.31	5.833	3617200	PROB	5.803	n/a	-999	-999	n/a	n/a	n/a	n/a	14	[2, 2, 7]	11	PAL1	1	R1100D
2189.143	4.498	3626532	PROB	4.498	n/a	-999	-999	n/a	n/a	n/a	n/a	14	[4, 4, 4]	12	PAL1	1	R1100D
2193.641	0.003	3633728	STOP	n/a	n/a	-999	-999	n/a	n/a	n/a	n/a	14	[-999, -999, -999]	-999	PAL1	1	R1100D
2193.644	0.0	3633733	MATH_END	n/a	n/a	-999	-999	n/a	n/a	n/a	n/a	14	[0, 0, 0]	-999	PAL1	1	R1100D
2193.644	0.017	3633733	TEST_START	n/a	n/a	-999	-999	n/a	n/a	n/a	n/a	14	[0, 0, 0]	-999	PAL1	1	R1100D
2193.661	0.275	3633760	TEST_ORIENT	n/a	n/a	5	1	PEARL	PASS	STAR	PEARL	14	[0, 0, 0]	-999	PAL1	1	R1100D
2194.661	4.0	3635360	TEST_PROBE	n/a	wordpools/wordpool_EN.txt	5	1	PEARL	PASS	STAR	PEARL	14	[0, 0, 0]	-999	PAL1	1	R1100D
2194.662	4.681	3635362	REC_START	n/a	n/a	5	-999	n/a	PASS	n/a	n/a	14	[0, 0, 0]	-999	PAL1	1	R1100D
2199.343	0.335	3642851	REC_EVENT	4.681	n/a	5	1	PEARL	PASS	STAR	PEARL	14	[0, 0, 0]	-999	PAL1	1	R1100D
2199.678	0.017	3643387	REC_END	n/a	n/a	5	-999	n/a	n/a	n/a	n/a	14	[0, 0, 0]	-999	PAL1	1	R1100D
2199.695	0.275	3643414	TEST_ORIENT	n/a	n/a	4	2	BRUSH	PASS	OAK	BRUSH	14	[0, 0, 0]	-999	PAL1	1	R1100D
2200.53	4.0	3644750	TEST_PROBE	n/a	wordpools/wordpool_EN.txt	4	2	BRUSH	PASS	OAK	BRUSH	14	[0, 0, 0]	-999	PAL1	1	R1100D
2200.53	3.12	3644750	REC_START	n/a	n/a	4	-999	n/a	PASS	n/a	n/a	14	[0, 0, 0]	-999	PAL1	1	R1100D
2203.65	1.897	3649742	REC_EVENT	3.12	n/a	4	2	BRUSH	PASS	OAK	BRUSH	14	[0, 0, 0]	-999	PAL1	1	R1100D
2205.547	0.016	3652777	REC_END	n/a	n/a	4	-999	n/a	n/a	n/a	n/a	14	[0, 0, 0]	-999	PAL1	1	R1100D
2205.563	0.275	3652803	TEST_ORIENT	n/a	n/a	1	3	GLASS	n/a	SHEEP	GLASS	14	[0, 0, 0]	-999	PAL1	1	R1100D
2206.563	4.0	3654403	TEST_PROBE	n/a	wordpools/wordpool_EN.txt	1	3	GLASS	n/a	SHEEP	GLASS	14	[0, 0, 0]	-999	PAL1	1	R1100D
2206.564	5.003	3654404	REC_START	n/a	n/a	1	-999	n/a	n/a	n/a	n/a	14	[0, 0, 0]	-999	PAL1	1	R1100D
2211.567	0.005	3662409	REC_EVENT	5.003	n/a	1	3	GLASS	<>	SHEEP	GLASS	14	[0, 0, 0]	-999	PAL1	1	R1100D
2211.572	0.009	3662417	REC_END	n/a	n/a	1	-999	n/a	n/a	n/a	n/a	14	[0, 0, 0]	-999	PAL1	1	R1100D
2211.581	0.275	3662431	TEST_ORIENT	n/a	n/a	6	4	RAT	LAWN	RAT	LAWN	14	[0, 0, 0]	-999	PAL1	1	R1100D
2212.415	4.0	3663765	TEST_PROBE	n/a	wordpools/wordpool_EN.txt	6	4	RAT	LAWN	RAT	LAWN	14	[0, 0, 0]	-999	PAL1	1	R1100D
2212.416	2.126	3663767	REC_START	n/a	n/a	6	-999	n/a	LAWN	n/a	n/a	14	[0, 0, 0]	-999	PAL1	1	R1100D
2214.542	2.882	3667168	REC_EVENT	2.126	n/a	6	4	RAT	LAWN	RAT	LAWN	14	[0, 0, 0]	-999	PAL1	1	R1100D
2217.424	0.009	3671779	REC_END	n/a	n/a	6	-999	n/a	n/a	n/a	n/a	14	[0, 0, 0]	-999	PAL1	1	R1100D
2217.433	0.275	3671794	TEST_ORIENT	n/a	n/a	3	5	SAIL	PASS	POND	SAIL	14	[0, 0, 0]	-999	PAL1	1	R1100D
2218.3	4.0	3673181	TEST_PROBE	n/a	wordpools/wordpool_EN.txt	3	5	SAIL	PASS	POND	SAIL	14	[0, 0, 0]	-999	PAL1	1	R1100D
2218.3	2.98	3673181	REC_START	n/a	n/a	3	-999	n/a	PASS	n/a	n/a	14	[0, 0, 0]	-999	PAL1	1	R1100D
2221.28	2.037	3677949	REC_EVENT	2.98	n/a	3	5	SAIL	PASS	POND	SAIL	14	[0, 0, 0]	-999	PAL1	1	R1100D
2223.317	0.017	3681208	REC_END	n/a	n/a	3	-999	n/a	n/a	n/a	n/a	14	[0, 0, 0]	-999	PAL1	1	R1100D
2223.334	0.275	3681235	TEST_ORIENT	n/a	n/a	2	6	STREET	PASS	STREET	HORN	14	[0, 0, 0]	-999	PAL1	1	R1100D
2224.368	4.0	3682889	TEST_PROBE	n/a	wordpools/wordpool_EN.txt	2	6	STREET	PASS	STREET	HORN	14	[0, 0, 0]	-999	PAL1	1	R1100D
2224.368	4.192	3682889	REC_START	n/a	n/a	2	-999	n/a	PASS	n/a	n/a	14	[0, 0, 0]	-999	PAL1	1	R1100D
2228.56	0.825	3689596	REC_EVENT	4.192	n/a	2	6	STREET	PASS	STREET	HORN	14	[0, 0, 0]	-999	PAL1	1	R1100D
2229.385	17.113	3690916	REC_END	n/a	n/a	2	-999	n/a	n/a	n/a	n/a	14	[0, 0, 0]	-999	PAL1	1	R1100D
2246.498	10.441	3718295	ENCODING_START	n/a	n/a	0	-999	n/a	n/a	n/a	n/a	15	[0, 0, 0]	-999	PAL1	1	R1100D
2256.939	0.275	3735000	STUDY_ORIENT	n/a	n/a	1	1	HOSE	n/a	TREE	HOSE	15	[0, 0, 0]	-999	PAL1	1	R1100D
2257.889	4.0	3736520	STUDY_PAIR	n/a	wordpools/wordpool_EN.txt	1	1	HOSE	n/a	TREE	HOSE	15	[0, 0, 0]	-999	PAL1	1	R1100D
2262.907	0.275	3744549	STUDY_ORIENT	n/a	n/a	2	6	FILM	PASS	BOOK	FILM	15	[0, 0, 0]	-999	PAL1	1	R1100D
2263.841	4.0	3746043	STUDY_PAIR	n/a	wordpools/wordpool_EN.txt	2	6	FILM	PASS	BOOK	FILM	15	[0, 0, 0]	-999	PAL1	1	R1100D
2268.875	0.275	3754097	STUDY_ORIENT	n/a	n/a	3	5	CAR	PASS	SHELL	CAR	15	[0, 0, 0]	-999	PAL1	1	R1100D
2269.758	4.0	3755510	STUDY_PAIR	n/a	wordpools/wordpool_EN.txt	3	5	CAR	PASS	SHELL	CAR	15	[0, 0, 0]	-999	PAL1	1	R1100D
2274.776	0.275	3763538	STUDY_ORIENT	n/a	n/a	4	4	WING	n/a	JAIL	WING	15	[0, 0, 0]	-999	PAL1	1	R1100D
2275.776	4.0	3765138	STUDY_PAIR	n/a	wordpools/wordpool_EN.txt	4	4	WING	n/a	JAIL	WING	15	[0, 0, 0]	-999	PAL1	1	R1100D
2280.81	0.275	3773192	STUDY_ORIENT	n/a	n/a	5	3	BEE	PASS	CLOCK	BEE	15	[0, 0, 0]	-999	PAL1	1	R1100D
2281.66	4.0	3774552	STUDY_PAIR	n/a	wordpools/wordpool_EN.txt	5	3	BEE	PASS	CLOCK	BEE	15	[0, 0, 0]	-999	PAL1	1	R1100D
2286.678	0.275	3782580	STUDY_ORIENT	n/a	n/a	6	2	RAIN	PASS	SKY	RAIN	15	[0, 0, 0]	-999	PAL1	1	R1100D
2287.479	4.0	3783862	STUDY_PAIR	n/a	wordpools/wordpool_EN.txt	6	2	RAIN	PASS	SKY	RAIN	15	[0, 0, 0]	-999	PAL1	1	R1100D
2291.48	1.0	3790263	START	n/a	n/a	-999	-999	n/a	n/a	n/a	n/a	15	[-999, -999, -999]	-999	PAL1	1	R1100D
2292.48	0.017	3791863	MATH_START	n/a	n/a	-999	-999	n/a	n/a	n/a	n/a	15	[0, 0, 0]	-999	PAL1	1	R1100D
2292.497	5.1	3791890	PROB	5.072	n/a	-999	-999	n/a	n/a	n/a	n/a	15	[1, 5, 3]	9	PAL1	1	R1100D
2297.597	4.818	3800050	PROB	4.797	n/a	-999	-999	n/a	n/a	n/a	n/a	15	[4, 3, 2]	9	PAL1	1	R1100D
2302.415	4.968	3807758	PROB	4.939	n/a	-999	-999	n/a	n/a	n/a	n/a	15	[3, 7, 8]	18	PAL1	1	R1100D
2307.383	5.618	3815707	PROB	5.618	n/a	-999	-999	n/a	n/a	n/a	n/a	15	[5, 7, 6]	18	PAL1	1	R1100D
2313.001	0.015	3824695	STOP	n/a	n/a	-999	-999	n/a	n/a	n/a	n/a	15	[-999, -999, -999]	-999	PAL1	1	R1100D
2313.016	0.0	3824719	MATH_END	n/a	n/a	-999	-999	n/a	n/a	n/a	n/a	15	[0, 0, 0]	-999	PAL1	1	R1100D
2313.016	0.017	3824719	TEST_START	n/a	n/a	-999	-999	n/a	n/a	n/a	n/a	15	[0, 0, 0]	-999	PAL1	1	R1100D
2313.033	0.275	3824746	TEST_ORIENT	n/a	n/a	1	1	HOSE	n/a	TREE	HOSE	15	[0, 0, 0]	-999	PAL1	1	R1100D
2313.95	4.0	3826213	TEST_PROBE	n/a	wordpools/wordpool_EN.txt	1	1	HOSE	n/a	TREE	HOSE	15	[0, 0, 0]	-999	PAL1	1	R1100D
2313.95	5.015	3826213	REC_START	n/a	n/a	1	-999	n/a	n/a	n/a	n/a	15	[0, 0, 0]	-999	PAL1	1	R1100D
2318.965	0.002	3834237	REC_EVENT	5.015	n/a	1	1	HOSE	<>	TREE	HOSE	15	[0, 0, 0]	-999	PAL1	1	R1100D
2318.967	0.017	3834240	REC_END	n/a	n/a	1	-999	n/a	n/a	n/a	n/a	15	[0, 0, 0]	-999	PAL1	1	R1100D
2318.984	0.275	3834267	TEST_ORIENT	n/a	n/a	6	2	RAIN	PASS	SKY	RAIN	15	[0, 0, 0]	-999	PAL1	1	R1100D
2319.834	4.0	3835627	TEST_PROBE	n/a	wordpools/wordpool_EN.txt	6	2	RAIN	PASS	SKY	RAIN	15	[0, 0, 0]	-999	PAL1	1	R1100D
2319.835	2.365	3835629	REC_START	n/a	n/a	6	-999	n/a	PASS	n/a	n/a	15	[0, 0, 0]	-999	PAL1	1	R1100D
2322.2	2.643	3839413	REC_EVENT	2.365	n/a	6	2	RAIN	PASS	SKY	RAIN	15	[0, 0, 0]	-999	PAL1	1	R1100D
2324.843	0.009	3843641	REC_END	n/a	n/a	6	-999	n/a	n/a	n/a	n/a	15	[0, 0, 0]	-999	PAL1	1	R1100D
2324.852	0.275	3843656	TEST_ORIENT	n/a	n/a	5	3	BEE	PASS	CLOCK	BEE	15	[0, 0, 0]	-999	PAL1	1	R1100D
2325.735	4.0	3845069	TEST_PROBE	n/a	wordpools/wordpool_EN.txt	5	3	BEE	PASS	CLOCK	BEE	15	[0, 0, 0]	-999	PAL1	1	R1100D
2325.736	2.794	3845070	REC_START	n/a	n/a	5	-999	n/a	PASS	n/a	n/a	15	[0, 0, 0]	-999	PAL1	1	R1100D
2328.53	2.214	3849540	REC_EVENT	2.794	n/a	5	3	BEE	PASS	CLOCK	BEE	15	[0, 0, 0]	-999	PAL1	1	R1100D
2330.744	0.009	3853083	REC_END	n/a	n/a	5	-999	n/a	n/a	n/a	n/a	15	[0, 0, 0]	-999	PAL1	1	R1100D
2330.753	0.275	3853097	TEST_ORIENT	n/a	n/a	4	4	WING	n/a	JAIL	WING	15	[0, 0, 0]	-999	PAL1	1	R1100D
2331.653	4.0	3854537	TEST_PROBE	n/a	wordpools/wordpool_EN.txt	4	4	WING	n/a	JAIL	WING	15	[0, 0, 0]	-999	PAL1	1	R1100D
2331.654	5.025	3854539	REC_START	n/a	n/a	4	-999	n/a	n/a	n/a	n/a	15	[0, 0, 0]	-999	PAL1	1	R1100D
2336.679	0.002	3862578	REC_END	n/a	n/a	4	-999	n/a	n/a	n/a	n/a	15	[0, 0, 0]	-999	PAL1	1	R1100D
2336.681	0.006	3862581	REC_EVENT	5.027	n/a	4	4	WING	<>	JAIL	WING	15	[0, 0, 0]	-999	PAL1	1	R1100D
2336.687	0.275	3862591	TEST_ORIENT	n/a	n/a	3	5	CAR	PASS	SHELL	CAR	15	[0, 0, 0]	-999	PAL1	1	R1100D
2337.604	4.0	3864058	TEST_PROBE	n/a	wordpools/wordpool_EN.txt	3	5	CAR	PASS	SHELL	CAR	15	[0, 0, 0]	-999	PAL1	1	R1100D
2337.605	4.052	3864060	REC_START	n/a	n/a	3	-999	n/a	PASS	n/a	n/a	15	[0, 0, 0]	-999	PAL1	1	R1100D
2341.657	0.956	3870543	REC_EVENT	4.052	n/a	3	5	CAR	PASS	SHELL	CAR	15	[0, 0, 0]	-999	PAL1	1	R1100D
2342.613	0.009	3872072	REC_END	n/a	n/a	3	-999	n/a	n/a	n/a	n/a	15	[0, 0, 0]	-999	PAL1	1	R1100D
2342.622	0.275	3872086	TEST_ORIENT	n/a	n/a	2	6	FILM	PASS	BOOK	FILM	15	[0, 0, 0]	-999	PAL1	1	R1100D
2343.456	4.0	3873421	TEST_PROBE	n/a	wordpools/wordpool_EN.txt	2	6	FILM	PASS	BOOK	FILM	15	[0, 0, 0]	-999	PAL1	1	R1100D
2343.457	2.092	3873422	REC_START	n/a	n/a	2	-999	n/a	PASS	n/a	n/a	15	[0, 0, 0]	-999	PAL1	1	R1100D
2345.549	2.916	3876769	REC_EVENT	2.092	n/a	2	6	FILM	PASS	BOOK	FILM	15	[0, 0, 0]	-999	PAL1	1	R1100D
2348.465	20.664	3881435	REC_END	n/a	n/a	2	-999	n/a	n/a	n/a	n/a	15	[0, 0, 0]	-999	PAL1	1	R1100D
2369.129	10.45	3914496	ENCODING_START	n/a	n/a	0	-999	n/a	n/a	n/a	n/a	16	[0, 0, 0]	-999	PAL1	1	R1100D
2379.579	0.275	3931215	STUDY_ORIENT	n/a	n/a	1	1	WORM	YARD	WORM	YARD	16	[0, 0, 0]	-999	PAL1	1	R1100D
2380.396	4.0	3932522	STUDY_PAIR	n/a	wordpools/wordpool_EN.txt	1	1	WORM	YARD	WORM	YARD	16	[0, 0, 0]	-999	PAL1	1	R1100D
2385.414	0.275	3940550	STUDY_ORIENT	n/a	n/a	2	4	SALT	INK	INK	SALT	16	[0, 0, 0]	-999	PAL1	1	R1100D
2386.264	4.0	3941910	STUDY_PAIR	n/a	wordpools/wordpool_EN.txt	2	4	SALT	INK	INK	SALT	16	[0, 0, 0]	-999	PAL1	1	R1100D
2391.282	0.275	3949939	STUDY_ORIENT	n/a	n/a	3	3	SHEET	n/a	SHEET	WAND	16	[0, 0, 0]	-999	PAL1	1	R1100D
2392.098	4.0	3951244	STUDY_PAIR	n/a	wordpools/wordpool_EN.txt	3	3	SHEET	n/a	SHEET	WAND	16	[0, 0, 0]	-999	PAL1	1	R1100D
2397.132	0.275	3959298	STUDY_ORIENT	n/a	n/a	4	6	DART	PASS	DART	ELF	16	[0, 0, 0]	-999	PAL1	1	R1100D
2397.932	4.0	3960578	STUDY_PAIR	n/a	wordpools/wordpool_EN.txt	4	6	DART	PASS	DART	ELF	16	[0, 0, 0]	-999	PAL1	1	R1100D
2402.966	0.275	3968632	STUDY_ORIENT	n/a	n/a	5	5	DIME	BOOT	BOOT	DIME	16	[0, 0, 0]	-999	PAL1	1	R1100D
2403.883	4.0	3970099	STUDY_PAIR	n/a	wordpools/wordpool_EN.txt	5	5	DIME	BOOT	BOOT	DIME	16	[0, 0, 0]	-999	PAL1	1	R1100D
2408.901	0.275	3978128	STUDY_ORIENT	n/a	n/a	6	2	LAND	PASS	TRUCK	LAND	16	[0, 0, 0]	-999	PAL1	1	R1100D
2409.701	4.0	3979408	STUDY_PAIR	n/a	wordpools/wordpool_EN.txt	6	2	LAND	PASS	TRUCK	LAND	16	[0, 0, 0]	-999	PAL1	1	R1100D
2413.719	0.999	3985836	START	n/a	n/a	-999	-999	n/a	n/a	n/a	n/a	16	[-999, -999, -999]	-999	PAL1	1	R1100D
2414.718	0.017	3987434	MATH_START	n/a	n/a	-999	-999	n/a	n/a	n/a	n/a	16	[0, 0, 0]	-999	PAL1	1	R1100D
2414.735	5.418	3987462	PROB	5.386	n/a	-999	-999	n/a	n/a	n/a	n/a	16	[7, 3, 7]	17	PAL1	1	R1100D
2420.153	4.534	3996130	PROB	4.504	n/a	-999	-999	n/a	n/a	n/a	n/a	16	[4, 9, 1]	14	PAL1	1	R1100D
2424.687	3.818	4003384	PROB	3.795	n/a	-999	-999	n/a	n/a	n/a	n/a	16	[2, 1, 8]	11	PAL1	1	R1100D
2428.505	4.2	4009493	PROB	4.176	n/a	-999	-999	n/a	n/a	n/a	n/a	16	[7, 3, 8]	18	PAL1	1	R1100D
2432.705	3.912	4016212	PROB	3.912	n/a	-999	-999	n/a	n/a	n/a	n/a	16	[9, 3, 1]	13	PAL1	1	R1100D
2436.617	0.006	4022471	STOP	n/a	n/a	-999	-999	n/a	n/a	n/a	n/a	16	[-999, -999, -999]	-999	PAL1	1	R1100D
2436.623	0.0	4022481	MATH_END	n/a	n/a	-999	-999	n/a	n/a	n/a	n/a	16	[0, 0, 0]	-999	PAL1	1	R1100D
2436.623	0.016	4022481	TEST_START	n/a	n/a	-999	-999	n/a	n/a	n/a	n/a	16	[0, 0, 0]	-999	PAL1	1	R1100D
2436.639	0.275	4022506	TEST_ORIENT	n/a	n/a	1	1	WORM	YARD	WORM	YARD	16	[0, 0, 0]	-999	PAL1	1	R1100D
2437.524	4.0	4023922	TEST_PROBE	n/a	wordpools/wordpool_EN.txt	1	1	WORM	YARD	WORM	YARD	16	[0, 0, 0]	-999	PAL1	1	R1100D
2437.524	4.405	4023922	REC_START	n/a	n/a	1	-999	n/a	YARD	n/a	n/a	16	[0, 0, 0]	-999	PAL1	1	R1100D
2441.929	0.612	4030970	REC_EVENT	4.405	n/a	1	1	WORM	YARD	WORM	YARD	16	[0, 0, 0]	-999	PAL1	1	R1100D
2442.541	0.016	4031949	REC_END	n/a	n/a	1	-999	n/a	n/a	n/a	n/a	16	[0, 0, 0]	-999	PAL1	1	R1100D
2442.557	0.275	4031975	TEST_ORIENT	n/a	n/a	6	2	LAND	PASS	TRUCK	LAND	16	[0, 0, 0]	-999	PAL1	1	R1100D
2443.574	4.0	4033602	TEST_PROBE	n/a	wordpools/wordpool_EN.txt	6	2	LAND	PASS	TRUCK	LAND	16	[0, 0, 0]	-999	PAL1	1	R1100D
2443.575	3.857	4033603	REC_START	n/a	n/a	6	-999	n/a	PASS	n/a	n/a	16	[0, 0, 0]	-999	PAL1	1	R1100D
2447.432	1.159	4039774	REC_EVENT	3.857	n/a	6	2	LAND	PASS	TRUCK	LAND	16	[0, 0, 0]	-999	PAL1	1	R1100D
2448.591	0.017	4041629	REC_END	n/a	n/a	6	-999	n/a	n/a	n/a	n/a	16	[0, 0, 0]	-999	PAL1	1	R1100D
2448.608	0.275	4041656	TEST_ORIENT	n/a	n/a	3	3	SHEET	n/a	SHEET	WAND	16	[0, 0, 0]	-999	PAL1	1	R1100D
2449.509	4.0	4043097	TEST_PROBE	n/a	wordpools/wordpool_EN.txt	3	3	SHEET	n/a	SHEET	WAND	16	[0, 0, 0]	-999	PAL1	1	R1100D
2449.51	5.009	4043099	REC_START	n/a	n/a	3	-999	n/a	n/a	n/a	n/a	16	[0, 0, 0]	-999	PAL1	1	R1100D
2454.519	0.0	4051113	REC_EVENT	5.009	n/a	3	3	SHEET	<>	SHEET	WAND	16	[0, 0, 0]	-999	PAL1	1	R1100D
2454.519	0.008	4051113	REC_END	n/a	n/a	3	-999	n/a	n/a	n/a	n/a	16	[0, 0, 0]	-999	PAL1	1	R1100D
2454.527	0.275	4051126	TEST_ORIENT	n/a	n/a	2	4	SALT	INK	INK	SALT	16	[0, 0, 0]	-999	PAL1	1	R1100D
2455.494	4.0	4052673	TEST_PROBE	n/a	wordpools/wordpool_EN.txt	2	4	SALT	INK	INK	SALT	16	[0, 0, 0]	-999	PAL1	1	R1100D
2455.494	1.26	4052673	REC_START	n/a	n/a	2	-999	n/a	INK	n/a	n/a	16	[0, 0, 0]	-999	PAL1	1	R1100D
2456.754	3.757	4054689	REC_EVENT	1.26	n/a	2	4	SALT	INK	INK	SALT	16	[0, 0, 0]	-999	PAL1	1	R1100D
2460.511	0.017	4060700	REC_END	n/a	n/a	2	-999	n/a	n/a	n/a	n/a	16	[0, 0, 0]	-999	PAL1	1	R1100D
2460.528	0.275	4060727	TEST_ORIENT	n/a	n/a	5	5	DIME	BOOT	BOOT	DIME	16	[0, 0, 0]	-999	PAL1	1	R1100D
2461.528	4.0	4062327	TEST_PROBE	n/a	wordpools/wordpool_EN.txt	5	5	DIME	BOOT	BOOT	DIME	16	[0, 0, 0]	-999	PAL1	1	R1100D
2461.529	4.306	4062328	REC_START	n/a	n/a	5	-999	n/a	BOOT	n/a	n/a	16	[0, 0, 0]	-999	PAL1	1	R1100D
2465.835	0.702	4069218	REC_EVENT	4.306	n/a	5	5	DIME	BOOT	BOOT	DIME	16	[0, 0, 0]	-999	PAL1	1	R1100D
2466.537	0.009	4070341	REC_END	n/a	n/a	5	-999	n/a	n/a	n/a	n/a	16	[0, 0, 0]	-999	PAL1	1	R1100D
2466.546	0.275	4070355	TEST_ORIENT	n/a	n/a	4	6	DART	PASS	DART	ELF	16	[0, 0, 0]	-999	PAL1	1	R1100D
2467.429	4.0	4071768	TEST_PROBE	n/a	wordpools/wordpool_EN.txt	4	6	DART	PASS	DART	ELF	16	[0, 0, 0]	-999	PAL1	1	R1100D
2467.429	2.472	4071768	REC_START	n/a	n/a	4	-999	n/a	PASS	n/a	n/a	16	[0, 0, 0]	-999	PAL1	1	R1100D
2469.901	2.546	4075723	REC_EVENT	2.472	n/a	4	6	DART	PASS	DART	ELF	16	[0, 0, 0]	-999	PAL1	1	R1100D
2472.447	28.899	4079796	REC_END	n/a	n/a	4	-999	n/a	n/a	n/a	n/a	16	[0, 0, 0]	-999	PAL1	1	R1100D
2501.346	10.441	4126033	ENCODING_START	n/a	n/a	0	-999	n/a	n/a	n/a	n/a	17	[0, 0, 0]	-999	PAL1	1	R1100D
2511.787	0.275	4142737	STUDY_ORIENT	n/a	n/a	1	5	PRINCE	BOWL	PRINCE	BOWL	17	[0, 0, 0]	-999	PAL1	1	R1100D
2512.753	4.0	4144283	STUDY_PAIR	n/a	wordpools/wordpool_EN.txt	1	5	PRINCE	BOWL	PRINCE	BOWL	17	[0, 0, 0]	-999	PAL1	1	R1100D
2517.771	0.275	4152311	STUDY_ORIENT	n/a	n/a	2	4	TANK	n/a	STOVE	TANK	17	[0, 0, 0]	-999	PAL1	1	R1100D
2518.705	4.0	4153806	STUDY_PAIR	n/a	wordpools/wordpool_EN.txt	2	4	TANK	n/a	STOVE	TANK	17	[0, 0, 0]	-999	PAL1	1	R1100D
2523.739	0.275	4161860	STUDY_ORIENT	n/a	n/a	3	1	STICK	BROOM	STICK	BROOM	17	[0, 0, 0]	-999	PAL1	1	R1100D
2524.672	4.0	4163352	STUDY_PAIR	n/a	wordpools/wordpool_EN.txt	3	1	STICK	BROOM	STICK	BROOM	17	[0, 0, 0]	-999	PAL1	1	R1100D
2529.69	0.275	4171381	STUDY_ORIENT	n/a	n/a	4	6	TOOTH	PASS	SNAIL	TOOTH	17	[0, 0, 0]	-999	PAL1	1	R1100D
2530.606	4.0	4172846	STUDY_PAIR	n/a	wordpools/wordpool_EN.txt	4	6	TOOTH	PASS	SNAIL	TOOTH	17	[0, 0, 0]	-999	PAL1	1	R1100D
2535.624	0.275	4180875	STUDY_ORIENT	n/a	n/a	5	3	PIN	PASS	SLEEVE	PIN	17	[0, 0, 0]	-999	PAL1	1	R1100D
2536.542	4.0	4182343	STUDY_PAIR	n/a	wordpools/wordpool_EN.txt	5	3	PIN	PASS	SLEEVE	PIN	17	[0, 0, 0]	-999	PAL1	1	R1100D
2541.559	0.275	4190370	STUDY_ORIENT	n/a	n/a	6	2	APE	PASS	BADGE	APE	17	[0, 0, 0]	-999	PAL1	1	R1100D
2542.477	4.0	4191839	STUDY_PAIR	n/a	wordpools/wordpool_EN.txt	6	2	APE	PASS	BADGE	APE	17	[0, 0, 0]	-999	PAL1	1	R1100D
2546.494	1.0	4198266	START	n/a	n/a	-999	-999	n/a	n/a	n/a	n/a	17	[-999, -999, -999]	-999	PAL1	1	R1100D
2547.494	0.017	4199866	MATH_START	n/a	n/a	-999	-999	n/a	n/a	n/a	n/a	17	[0, 0, 0]	-999	PAL1	1	R1100D
2547.511	5.718	4199893	PROB	5.699	n/a	-999	-999	n/a	n/a	n/a	n/a	17	[2, 6, 4]	12	PAL1	1	R1100D
2553.229	7.65	4209041	PROB	7.62	n/a	-999	-999	n/a	n/a	n/a	n/a	17	[3, 9, 4]	16	PAL1	1	R1100D
2560.879	3.485	4221281	PROB	3.451	n/a	-999	-999	n/a	n/a	n/a	n/a	17	[6, 1, 3]	10	PAL1	1	R1100D
2564.364	6.637	4226857	PROB	6.637	n/a	-999	-999	n/a	n/a	n/a	n/a	17	[4, 3, 9]	15	PAL1	1	R1100D
2571.001	0.013	4237475	STOP	n/a	n/a	-999	-999	n/a	n/a	n/a	n/a	17	[-999, -999, -999]	-999	PAL1	1	R1100D
2571.014	0.0	4237496	MATH_END	n/a	n/a	-999	-999	n/a	n/a	n/a	n/a	17	[0, 0, 0]	-999	PAL1	1	R1100D
2571.014	0.017	4237496	TEST_START	n/a	n/a	-999	-999	n/a	n/a	n/a	n/a	17	[0, 0, 0]	-999	PAL1	1	R1100D
2571.031	0.275	4237523	TEST_ORIENT	n/a	n/a	3	1	STICK	BROOM	STICK	BROOM	17	[0, 0, 0]	-999	PAL1	1	R1100D
2571.881	0.0	4238883	REC_START	n/a	n/a	3	-999	n/a	BROOM	n/a	n/a	17	[0, 0, 0]	-999	PAL1	1	R1100D
2571.881	4.0	4238883	TEST_PROBE	n/a	wordpools/wordpool_EN.txt	3	1	STICK	BROOM	STICK	BROOM	17	[0, 0, 0]	-999	PAL1	1	R1100D
2574.068	2.83	4242382	REC_EVENT	2.187	n/a	3	1	STICK	BROOM	STICK	BROOM	17	[0, 0, 0]	-999	PAL1	1	R1100D
2576.898	0.017	4246910	REC_END	n/a	n/a	3	-999	n/a	n/a	n/a	n/a	17	[0, 0, 0]	-999	PAL1	1	R1100D
2576.915	0.275	4246937	TEST_ORIENT	n/a	n/a	6	2	APE	PASS	BADGE	APE	17	[0, 0, 0]	-999	PAL1	1	R1100D
2577.732	4.0	4248244	TEST_PROBE	n/a	wordpools/wordpool_EN.txt	6	2	APE	PASS	BADGE	APE	17	[0, 0, 0]	-999	PAL1	1	R1100D
2577.733	3.386	4248246	REC_START	n/a	n/a	6	-999	n/a	PASS	n/a	n/a	17	[0, 0, 0]	-999	PAL1	1	R1100D
2581.119	1.639	4253663	REC_EVENT	3.386	n/a	6	2	APE	PASS	BADGE	APE	17	[0, 0, 0]	-999	PAL1	1	R1100D
2582.758	0.008	4256285	REC_END	n/a	n/a	6	-999	n/a	n/a	n/a	n/a	17	[0, 0, 0]	-999	PAL1	1	R1100D
2582.766	0.275	4256298	TEST_ORIENT	n/a	n/a	5	3	PIN	PASS	SLEEVE	PIN	17	[0, 0, 0]	-999	PAL1	1	R1100D
2583.683	4.0	4257765	TEST_PROBE	n/a	wordpools/wordpool_EN.txt	5	3	PIN	PASS	SLEEVE	PIN	17	[0, 0, 0]	-999	PAL1	1	R1100D
2583.684	3.453	4257767	REC_START	n/a	n/a	5	-999	n/a	PASS	n/a	n/a	17	[0, 0, 0]	-999	PAL1	1	R1100D
2587.137	1.555	4263292	REC_EVENT	3.453	n/a	5	3	PIN	PASS	SLEEVE	PIN	17	[0, 0, 0]	-999	PAL1	1	R1100D
2588.692	0.009	4265779	REC_END	n/a	n/a	5	-999	n/a	n/a	n/a	n/a	17	[0, 0, 0]	-999	PAL1	1	R1100D
2588.701	0.275	4265794	TEST_ORIENT	n/a	n/a	2	4	TANK	n/a	STOVE	TANK	17	[0, 0, 0]	-999	PAL1	1	R1100D
2589.701	4.0	4267394	TEST_PROBE	n/a	wordpools/wordpool_EN.txt	2	4	TANK	n/a	STOVE	TANK	17	[0, 0, 0]	-999	PAL1	1	R1100D
2589.702	5.015	4267395	REC_START	n/a	n/a	2	-999	n/a	n/a	n/a	n/a	17	[0, 0, 0]	-999	PAL1	1	R1100D
2594.717	0.001	4275419	REC_EVENT	5.015	n/a	2	4	TANK	<>	STOVE	TANK	17	[0, 0, 0]	-999	PAL1	1	R1100D
2594.718	0.017	4275421	REC_END	n/a	n/a	2	-999	n/a	n/a	n/a	n/a	17	[0, 0, 0]	-999	PAL1	1	R1100D
2594.735	0.275	4275448	TEST_ORIENT	n/a	n/a	1	5	PRINCE	BOWL	PRINCE	BOWL	17	[0, 0, 0]	-999	PAL1	1	R1100D
2595.702	4.0	4276995	TEST_PROBE	n/a	wordpools/wordpool_EN.txt	1	5	PRINCE	BOWL	PRINCE	BOWL	17	[0, 0, 0]	-999	PAL1	1	R1100D
2595.703	1.084	4276996	REC_START	n/a	n/a	1	-999	n/a	BOWL	n/a	n/a	17	[0, 0, 0]	-999	PAL1	1	R1100D
2596.787	3.941	4278731	REC_EVENT	1.084	n/a	1	5	PRINCE	BOWL	PRINCE	BOWL	17	[0, 0, 0]	-999	PAL1	1	R1100D
2600.728	0.008	4285036	REC_END	n/a	n/a	1	-999	n/a	n/a	n/a	n/a	17	[0, 0, 0]	-999	PAL1	1	R1100D
2600.736	0.275	4285049	TEST_ORIENT	n/a	n/a	4	6	TOOTH	PASS	SNAIL	TOOTH	17	[0, 0, 0]	-999	PAL1	1	R1100D
2601.72	4.0	4286623	TEST_PROBE	n/a	wordpools/wordpool_EN.txt	4	6	TOOTH	PASS	SNAIL	TOOTH	17	[0, 0, 0]	-999	PAL1	1	R1100D
2601.721	3.212	4286625	REC_START	n/a	n/a	4	-999	n/a	PASS	n/a	n/a	17	[0, 0, 0]	-999	PAL1	1	R1100D
2604.933	1.804	4291764	REC_EVENT	3.212	n/a	4	6	TOOTH	PASS	SNAIL	TOOTH	17	[0, 0, 0]	-999	PAL1	1	R1100D
2606.737	18.056	4294650	REC_END	n/a	n/a	4	-999	n/a	n/a	n/a	n/a	17	[0, 0, 0]	-999	PAL1	1	R1100D
2624.793	10.451	4323538	ENCODING_START	n/a	n/a	0	-999	n/a	n/a	n/a	n/a	18	[0, 0, 0]	-999	PAL1	1	R1100D
2635.244	0.275	4340259	STUDY_ORIENT	n/a	n/a	1	5	FOOT	VINE	VINE	FOOT	18	[0, 0, 0]	-999	PAL1	1	R1100D
2636.076	4.0	4341590	STUDY_PAIR	n/a	wordpools/wordpool_EN.txt	1	5	FOOT	VINE	VINE	FOOT	18	[0, 0, 0]	-999	PAL1	1	R1100D
2641.094	0.275	4349619	STUDY_ORIENT	n/a	n/a	2	4	FACE	SMILE	SMILE	FACE	18	[0, 0, 0]	-999	PAL1	1	R1100D
2641.877	4.0	4350871	STUDY_PAIR	n/a	wordpools/wordpool_EN.txt	2	4	FACE	SMILE	SMILE	FACE	18	[0, 0, 0]	-999	PAL1	1	R1100D
2646.895	0.275	4358900	STUDY_ORIENT	n/a	n/a	3	3	SHRIMP	SEA	SEA	SHRIMP	18	[0, 0, 0]	-999	PAL1	1	R1100D
2647.845	4.0	4360420	STUDY_PAIR	n/a	wordpools/wordpool_EN.txt	3	3	SHRIMP	SEA	SEA	SHRIMP	18	[0, 0, 0]	-999	PAL1	1	R1100D
2652.863	0.275	4368448	STUDY_ORIENT	n/a	n/a	4	2	NEST	PASS	NEST	RAKE	18	[0, 0, 0]	-999	PAL1	1	R1100D
2653.663	4.0	4369728	STUDY_PAIR	n/a	wordpools/wordpool_EN.txt	4	2	NEST	PASS	NEST	RAKE	18	[0, 0, 0]	-999	PAL1	1	R1100D
2658.697	0.275	4377782	STUDY_ORIENT	n/a	n/a	5	1	TRAY	PASS	TRAY	FENCE	18	[0, 0, 0]	-999	PAL1	1	R1100D
2659.697	4.0	4379382	STUDY_PAIR	n/a	wordpools/wordpool_EN.txt	5	1	TRAY	PASS	TRAY	FENCE	18	[0, 0, 0]	-999	PAL1	1	R1100D
2664.715	0.275	4387410	STUDY_ORIENT	n/a	n/a	6	6	DEER	ICE	ICE	DEER	18	[0, 0, 0]	-999	PAL1	1	R1100D
2665.732	4.0	4389037	STUDY_PAIR	n/a	wordpools/wordpool_EN.txt	6	6	DEER	ICE	ICE	DEER	18	[0, 0, 0]	-999	PAL1	1	R1100D
2669.75	0.999	4395466	START	n/a	n/a	-999	-999	n/a	n/a	n/a	n/a	18	[-999, -999, -999]	-999	PAL1	1	R1100D
2670.749	0.017	4397064	MATH_START	n/a	n/a	-999	-999	n/a	n/a	n/a	n/a	18	[0, 0, 0]	-999	PAL1	1	R1100D
2670.766	5.702	4397091	PROB	5.676	n/a	-999	-999	n/a	n/a	n/a	n/a	18	[4, 8, 2]	14	PAL1	1	R1100D
2676.468	4.083	4406214	PROB	4.054	n/a	-999	-999	n/a	n/a	n/a	n/a	18	[1, 6, 6]	13	PAL1	1	R1100D
2680.551	3.902	4412747	PROB	3.883	n/a	-999	-999	n/a	n/a	n/a	n/a	18	[8, 1, 1]	10	PAL1	1	R1100D
2684.453	4.416	4418990	PROB	4.388	n/a	-999	-999	n/a	n/a	n/a	n/a	18	[8, 3, 7]	18	PAL1	1	R1100D
2688.869	4.389	4426055	PROB	4.389	n/a	-999	-999	n/a	n/a	n/a	n/a	18	[3, 1, 3]	7	PAL1	1	R1100D
2693.258	0.013	4433077	STOP	n/a	n/a	-999	-999	n/a	n/a	n/a	n/a	18	[-999, -999, -999]	-999	PAL1	1	R1100D
2693.271	0.0	4433098	MATH_END	n/a	n/a	-999	-999	n/a	n/a	n/a	n/a	18	[0, 0, 0]	-999	PAL1	1	R1100D
2693.271	0.017	4433098	TEST_START	n/a	n/a	-999	-999	n/a	n/a	n/a	n/a	18	[0, 0, 0]	-999	PAL1	1	R1100D
2693.288	0.275	4433125	TEST_ORIENT	n/a	n/a	5	1	TRAY	PASS	TRAY	FENCE	18	[0, 0, 0]	-999	PAL1	1	R1100D
2694.305	0.0	4434752	REC_START	n/a	n/a	5	-999	n/a	PASS	n/a	n/a	18	[0, 0, 0]	-999	PAL1	1	R1100D
2694.305	4.0	4434752	TEST_PROBE	n/a	wordpools/wordpool_EN.txt	5	1	TRAY	PASS	TRAY	FENCE	18	[0, 0, 0]	-999	PAL1	1	R1100D
2698.595	0.727	4441616	REC_EVENT	4.29	n/a	5	1	TRAY	PASS	TRAY	FENCE	18	[0, 0, 0]	-999	PAL1	1	R1100D
2699.322	0.017	4442779	REC_END	n/a	n/a	5	-999	n/a	n/a	n/a	n/a	18	[0, 0, 0]	-999	PAL1	1	R1100D
2699.339	0.275	4442806	TEST_ORIENT	n/a	n/a	4	2	NEST	PASS	NEST	RAKE	18	[0, 0, 0]	-999	PAL1	1	R1100D
2700.272	4.0	4444299	TEST_PROBE	n/a	wordpools/wordpool_EN.txt	4	2	NEST	PASS	NEST	RAKE	18	[0, 0, 0]	-999	PAL1	1	R1100D
2700.273	4.692	4444300	REC_START	n/a	n/a	4	-999	n/a	PASS	n/a	n/a	18	[0, 0, 0]	-999	PAL1	1	R1100D
2704.965	0.342	4451807	REC_EVENT	4.692	n/a	4	2	NEST	PASS	NEST	RAKE	18	[0, 0, 0]	-999	PAL1	1	R1100D
2705.307	0.016	4452354	REC_END	n/a	n/a	4	-999	n/a	n/a	n/a	n/a	18	[0, 0, 0]	-999	PAL1	1	R1100D
2705.323	0.275	4452380	TEST_ORIENT	n/a	n/a	3	3	SHRIMP	SEA	SEA	SHRIMP	18	[0, 0, 0]	-999	PAL1	1	R1100D
2706.257	4.0	4453874	TEST_PROBE	n/a	wordpools/wordpool_EN.txt	3	3	SHRIMP	SEA	SEA	SHRIMP	18	[0, 0, 0]	-999	PAL1	1	R1100D
2706.257	1.382	4453874	REC_START	n/a	n/a	3	-999	n/a	SEA	n/a	n/a	18	[0, 0, 0]	-999	PAL1	1	R1100D
2707.639	3.635	4456085	REC_EVENT	1.382	n/a	3	3	SHRIMP	SEA	SEA	SHRIMP	18	[0, 0, 0]	-999	PAL1	1	R1100D
2711.274	0.017	4461901	REC_END	n/a	n/a	3	-999	n/a	n/a	n/a	n/a	18	[0, 0, 0]	-999	PAL1	1	R1100D
2711.291	0.275	4461928	TEST_ORIENT	n/a	n/a	2	4	FACE	SMILE	SMILE	FACE	18	[0, 0, 0]	-999	PAL1	1	R1100D
2712.225	4.0	4463423	TEST_PROBE	n/a	wordpools/wordpool_EN.txt	2	4	FACE	SMILE	SMILE	FACE	18	[0, 0, 0]	-999	PAL1	1	R1100D
2712.225	0.8	4463423	REC_START	n/a	n/a	2	-999	n/a	SMILE	n/a	n/a	18	[0, 0, 0]	-999	PAL1	1	R1100D
2713.025	4.217	4464703	REC_EVENT	0.8	n/a	2	4	FACE	SMILE	SMILE	FACE	18	[0, 0, 0]	-999	PAL1	1	R1100D
2717.242	0.017	4471449	REC_END	n/a	n/a	2	-999	n/a	n/a	n/a	n/a	18	[0, 0, 0]	-999	PAL1	1	R1100D
2717.259	0.275	4471477	TEST_ORIENT	n/a	n/a	1	5	FOOT	VINE	VINE	FOOT	18	[0, 0, 0]	-999	PAL1	1	R1100D
2718.091	4.0	4472808	TEST_PROBE	n/a	wordpools/wordpool_EN.txt	1	5	FOOT	VINE	VINE	FOOT	18	[0, 0, 0]	-999	PAL1	1	R1100D
2718.092	2.565	4472809	REC_START	n/a	n/a	1	-999	n/a	VINE	n/a	n/a	18	[0, 0, 0]	-999	PAL1	1	R1100D
2720.657	2.443	4476913	REC_EVENT	2.565	n/a	1	5	FOOT	VINE	VINE	FOOT	18	[0, 0, 0]	-999	PAL1	1	R1100D
2723.1	0.009	4480822	REC_END	n/a	n/a	1	-999	n/a	n/a	n/a	n/a	18	[0, 0, 0]	-999	PAL1	1	R1100D
2723.109	0.275	4480836	TEST_ORIENT	n/a	n/a	6	6	DEER	ICE	ICE	DEER	18	[0, 0, 0]	-999	PAL1	1	R1100D
2724.093	4.0	4482411	TEST_PROBE	n/a	wordpools/wordpool_EN.txt	6	6	DEER	ICE	ICE	DEER	18	[0, 0, 0]	-999	PAL1	1	R1100D
2724.093	1.087	4482411	REC_START	n/a	n/a	6	-999	n/a	ICE	n/a	n/a	18	[0, 0, 0]	-999	PAL1	1	R1100D
2725.18	3.93	4484150	REC_EVENT	1.087	n/a	6	6	DEER	ICE	ICE	DEER	18	[0, 0, 0]	-999	PAL1	1	R1100D
2729.11	6.779	4490437	REC_END	n/a	n/a	6	-999	n/a	n/a	n/a	n/a	18	[0, 0, 0]	-999	PAL1	1	R1100D
2735.889	10.442	4501283	ENCODING_START	n/a	n/a	0	-999	n/a	n/a	n/a	n/a	19	[0, 0, 0]	-999	PAL1	1	R1100D
2746.331	0.275	4517990	STUDY_ORIENT	n/a	n/a	1	1	TRASH	n/a	TRASH	SINK	19	[0, 0, 0]	-999	PAL1	1	R1100D
2747.298	4.0	4519537	STUDY_PAIR	n/a	wordpools/wordpool_EN.txt	1	1	TRASH	n/a	TRASH	SINK	19	[0, 0, 0]	-999	PAL1	1	R1100D
2752.332	0.275	4527591	STUDY_ORIENT	n/a	n/a	2	4	BED	PASS	BED	CONE	19	[0, 0, 0]	-999	PAL1	1	R1100D
2753.115	4.0	4528844	STUDY_PAIR	n/a	wordpools/wordpool_EN.txt	2	4	BED	PASS	BED	CONE	19	[0, 0, 0]	-999	PAL1	1	R1100D
2758.149	0.275	4536898	STUDY_ORIENT	n/a	n/a	3	3	GRASS	n/a	GRASS	SEAL	19	[0, 0, 0]	-999	PAL1	1	R1100D
2758.916	4.0	4538125	STUDY_PAIR	n/a	wordpools/wordpool_EN.txt	3	3	GRASS	n/a	GRASS	SEAL	19	[0, 0, 0]	-999	PAL1	1	R1100D
2763.95	0.275	4546179	STUDY_ORIENT	n/a	n/a	4	6	PEA	n/a	FRUIT	PEA	19	[0, 0, 0]	-999	PAL1	1	R1100D
2764.867	4.0	4547646	STUDY_PAIR	n/a	wordpools/wordpool_EN.txt	4	6	PEA	n/a	FRUIT	PEA	19	[0, 0, 0]	-999	PAL1	1	R1100D
2769.901	0.275	4555700	STUDY_ORIENT	n/a	n/a	5	5	GUARD	PASS	SPONGE	GUARD	19	[0, 0, 0]	-999	PAL1	1	R1100D
2770.751	4.0	4557060	STUDY_PAIR	n/a	wordpools/wordpool_EN.txt	5	5	GUARD	PASS	SPONGE	GUARD	19	[0, 0, 0]	-999	PAL1	1	R1100D
2775.769	0.275	4565088	STUDY_ORIENT	n/a	n/a	6	2	TOY	n/a	HOLE	TOY	19	[0, 0, 0]	-999	PAL1	1	R1100D
2776.736	4.0	4566635	STUDY_PAIR	n/a	wordpools/wordpool_EN.txt	6	2	TOY	n/a	HOLE	TOY	19	[0, 0, 0]	-999	PAL1	1	R1100D
2780.754	0.999	4573064	START	n/a	n/a	-999	-999	n/a	n/a	n/a	n/a	19	[-999, -999, -999]	-999	PAL1	1	R1100D
2781.753	0.017	4574662	MATH_START	n/a	n/a	-999	-999	n/a	n/a	n/a	n/a	19	[0, 0, 0]	-999	PAL1	1	R1100D
2781.77	4.934	4574689	PROB	4.903	n/a	-999	-999	n/a	n/a	n/a	n/a	19	[1, 8, 8]	17	PAL1	1	R1100D
2786.704	4.552	4582583	PROB	4.53	n/a	-999	-999	n/a	n/a	n/a	n/a	19	[4, 1, 5]	10	PAL1	1	R1100D
2791.256	4.867	4589866	PROB	4.833	n/a	-999	-999	n/a	n/a	n/a	n/a	19	[4, 4, 3]	12	PAL1	1	R1100D
2796.123	5.247	4597653	PROB	5.247	n/a	-999	-999	n/a	n/a	n/a	n/a	19	[4, 6, 7]	17	PAL1	1	R1100D
2801.37	0.005	4606048	STOP	n/a	n/a	-999	-999	n/a	n/a	n/a	n/a	19	[-999, -999, -999]	-999	PAL1	1	R1100D
2801.375	0.0	4606056	MATH_END	n/a	n/a	-999	-999	n/a	n/a	n/a	n/a	19	[0, 0, 0]	-999	PAL1	1	R1100D
