onset	duration	sample	trial_type	response_time	stim_file	serialpos	probepos	probe_word	resp_word	study_1	study_2	list	test	answer	experiment	session	subject
0.0	69.06	198092	SESS_START	n/a	n/a	-999	-999	n/a	n/a	n/a	n/a	-999	[0, 0, 0]	-999	PAL1	0	R1028M
69.06	1.016	232619	START	n/a	n/a	-999	-999	n/a	n/a	n/a	n/a	-1	[-999, -999, -999]	-999	PAL1	0	R1028M
70.076	6.201	233127	PROB	6169.0	n/a	-999	-999	n/a	n/a	n/a	n/a	-1	[4, 4, 8]	16	PAL1	0	R1028M
76.277	4.551	236227	PROB	4528.0	n/a	-999	-999	n/a	n/a	n/a	n/a	-1	[6, 2, 8]	16	PAL1	0	R1028M
80.828	4.685	238502	PROB	4665.0	n/a	-999	-999	n/a	n/a	n/a	n/a	-1	[4, 3, 3]	10	PAL1	0	R1028M
85.513	3.533	240845	PROB	3500.0	n/a	-999	-999	n/a	n/a	n/a	n/a	-1	[2, 1, 8]	11	PAL1	0	R1028M
89.046	4.287	242611	PROB	4287.0	n/a	-999	-999	n/a	n/a	n/a	n/a	-1	[7, 4, 3]	14	PAL1	0	R1028M
93.333	83.256	244754	STOP	n/a	n/a	-999	-999	n/a	n/a	n/a	n/a	-1	[-999, -999, -999]	-999	PAL1	0	R1028M
176.589	10.444	286378	ENCODING_START	n/a	n/a	0	-999	n/a	n/a	n/a	n/a	1	[0, 0, 0]	-999	PAL1	0	R1028M
187.033	0.275	291599	STUDY_ORIENT	n/a	n/a	1	3	STAIR	KEY	STAIR	KEY	1	[0, 0, 0]	-999	PAL1	0	R1028M
188.05	4.0	292108	STUDY_PAIR	n/a	wordpools/wordpool_EN.txt	1	3	STAIR	KEY	STAIR	KEY	1	[0, 0, 0]	-999	PAL1	0	R1028M
193.084	0.275	294625	STUDY_ORIENT	n/a	n/a	2	2	MOON	BLOOM	MOON	BLOOM	1	[0, 0, 0]	-999	PAL1	0	R1028M
193.934	4.0	295049	STUDY_PAIR	n/a	wordpools/wordpool_EN.txt	2	2	MOON	BLOOM	MOON	BLOOM	1	[0, 0, 0]	-999	PAL1	0	R1028M
198.968	0.275	297566	STUDY_ORIENT	n/a	n/a	3	5	OWL	STEAM	STEAM	OWL	1	[0, 0, 0]	-999	PAL1	0	R1028M
199.802	4.0	297983	STUDY_PAIR	n/a	wordpools/wordpool_EN.txt	3	5	OWL	STEAM	STEAM	OWL	1	[0, 0, 0]	-999	PAL1	0	R1028M
204.836	0.275	300500	STUDY_ORIENT	n/a	n/a	4	6	FLAME	COIN	FLAME	COIN	1	[0, 0, 0]	-999	PAL1	0	R1028M
205.836	4.0	301000	STUDY_PAIR	n/a	wordpools/wordpool_EN.txt	4	6	FLAME	COIN	FLAME	COIN	1	[0, 0, 0]	-999	PAL1	0	R1028M
210.854	0.275	303509	STUDY_ORIENT	n/a	n/a	5	1	DRESS	CHEEK	CHEEK	DRESS	1	[0, 0, 0]	-999	PAL1	0	R1028M
211.721	4.0	303942	STUDY_PAIR	n/a	wordpools/wordpool_EN.txt	5	1	DRESS	CHEEK	CHEEK	DRESS	1	[0, 0, 0]	-999	PAL1	0	R1028M
216.755	0.275	306459	STUDY_ORIENT	n/a	n/a	6	4	FISH	BENCH	FISH	BENCH	1	[0, 0, 0]	-999	PAL1	0	R1028M
217.589	4.0	306876	STUDY_PAIR	n/a	wordpools/wordpool_EN.txt	6	4	FISH	BENCH	FISH	BENCH	1	[0, 0, 0]	-999	PAL1	0	R1028M
221.607	0.999	308885	START	n/a	n/a	-999	-999	n/a	n/a	n/a	n/a	1	[-999, -999, -999]	-999	PAL1	0	R1028M
222.606	0.017	309384	MATH_START	n/a	n/a	-999	-999	n/a	n/a	n/a	n/a	1	[0, 0, 0]	-999	PAL1	0	R1028M
222.623	6.268	309393	PROB	6238.0	n/a	-999	-999	n/a	n/a	n/a	n/a	1	[3, 9, 3]	15	PAL1	0	R1028M
228.891	3.384	312526	PROB	3362.0	n/a	-999	-999	n/a	n/a	n/a	n/a	1	[5, 5, 2]	12	PAL1	0	R1028M
232.275	4.318	314218	PROB	4298.0	n/a	-999	-999	n/a	n/a	n/a	n/a	1	[5, 5, 8]	18	PAL1	0	R1028M
236.593	4.634	316377	PROB	4612.0	n/a	-999	-999	n/a	n/a	n/a	n/a	1	[3, 3, 7]	13	PAL1	0	R1028M
241.227	9.138	318694	PROB	9138.0	n/a	-999	-999	n/a	n/a	n/a	n/a	1	[3, 9, 5]	17	PAL1	0	R1028M
250.365	0.014	323262	STOP	n/a	n/a	-999	-999	n/a	n/a	n/a	n/a	1	[-999, -999, -999]	-999	PAL1	0	R1028M
250.379	0.0	323269	MATH_END	n/a	n/a	-999	-999	n/a	n/a	n/a	n/a	1	[0, 0, 0]	-999	PAL1	0	R1028M
250.379	0.016	323269	TEST_START	n/a	n/a	-999	-999	n/a	n/a	n/a	n/a	1	[0, 0, 0]	-999	PAL1	0	R1028M
250.395	0.275	323277	TEST_ORIENT	n/a	n/a	5	1	DRESS	CHEEK	CHEEK	DRESS	1	[0, 0, 0]	-999	PAL1	0	R1028M
251.262	4.0	323711	TEST_PROBE	n/a	wordpools/wordpool_EN.txt	5	1	DRESS	CHEEK	CHEEK	DRESS	1	[0, 0, 0]	-999	PAL1	0	R1028M
251.263	1.389	323711	REC_START	n/a	n/a	5	-999	n/a	CHEEK	n/a	n/a	1	[0, 0, 0]	-999	PAL1	0	R1028M
252.652	3.619	324405	REC_EVENT	1389.0	n/a	5	1	DRESS	CHEEK	CHEEK	DRESS	1	[0, 0, 0]	-999	PAL1	0	R1028M
256.271	0.009	326215	REC_END	n/a	n/a	5	-999	n/a	n/a	n/a	n/a	1	[0, 0, 0]	-999	PAL1	0	R1028M
256.28	0.275	326219	TEST_ORIENT	n/a	n/a	2	2	MOON	BLOOM	MOON	BLOOM	1	[0, 0, 0]	-999	PAL1	0	R1028M
257.08	4.0	326619	TEST_PROBE	n/a	wordpools/wordpool_EN.txt	2	2	MOON	BLOOM	MOON	BLOOM	1	[0, 0, 0]	-999	PAL1	0	R1028M
257.08	1.019	326619	REC_START	n/a	n/a	2	-999	n/a	BLOOM	n/a	n/a	1	[0, 0, 0]	-999	PAL1	0	R1028M
258.099	3.998	327129	REC_EVENT	1019.0	n/a	2	2	MOON	BLOOM	MOON	BLOOM	1	[0, 0, 0]	-999	PAL1	0	R1028M
262.097	0.017	329128	REC_END	n/a	n/a	2	-999	n/a	n/a	n/a	n/a	1	[0, 0, 0]	-999	PAL1	0	R1028M
262.114	0.275	329136	TEST_ORIENT	n/a	n/a	1	3	STAIR	KEY	STAIR	KEY	1	[0, 0, 0]	-999	PAL1	0	R1028M
263.047	4.0	329602	TEST_PROBE	n/a	wordpools/wordpool_EN.txt	1	3	STAIR	KEY	STAIR	KEY	1	[0, 0, 0]	-999	PAL1	0	R1028M
263.048	1.025	329603	REC_START	n/a	n/a	1	-999	n/a	KEY	n/a	n/a	1	[0, 0, 0]	-999	PAL1	0	R1028M
264.073	3.975	330115	REC_EVENT	1025.0	n/a	1	3	STAIR	KEY	STAIR	KEY	1	[0, 0, 0]	-999	PAL1	0	R1028M
268.048	0.017	332103	REC_END	n/a	n/a	1	-999	n/a	n/a	n/a	n/a	1	[0, 0, 0]	-999	PAL1	0	R1028M
268.065	0.275	332111	TEST_ORIENT	n/a	n/a	6	4	FISH	BENCH	FISH	BENCH	1	[0, 0, 0]	-999	PAL1	0	R1028M
268.932	4.0	332545	TEST_PROBE	n/a	wordpools/wordpool_EN.txt	6	4	FISH	BENCH	FISH	BENCH	1	[0, 0, 0]	-999	PAL1	0	R1028M
268.933	1.857	332545	REC_START	n/a	n/a	6	-999	n/a	BENCH	n/a	n/a	1	[0, 0, 0]	-999	PAL1	0	R1028M
270.79	3.152	333474	REC_EVENT	1857.0	n/a	6	4	FISH	BENCH	FISH	BENCH	1	[0, 0, 0]	-999	PAL1	0	R1028M
273.942	0.008	335049	REC_END	n/a	n/a	6	-999	n/a	n/a	n/a	n/a	1	[0, 0, 0]	-999	PAL1	0	R1028M
273.95	0.275	335053	TEST_ORIENT	n/a	n/a	3	5	OWL	STEAM	STEAM	OWL	1	[0, 0, 0]	-999	PAL1	0	R1028M
274.833	4.0	335495	TEST_PROBE	n/a	wordpools/wordpool_EN.txt	3	5	OWL	STEAM	STEAM	OWL	1	[0, 0, 0]	-999	PAL1	0	R1028M
274.834	1.538	335495	REC_START	n/a	n/a	3	-999	n/a	STEAM	n/a	n/a	1	[0, 0, 0]	-999	PAL1	0	R1028M
276.372	3.47	336264	REC_EVENT	1538.0	n/a	3	5	OWL	STEAM	STEAM	OWL	1	[0, 0, 0]	-999	PAL1	0	R1028M
279.842	0.009	337999	REC_END	n/a	n/a	3	-999	n/a	n/a	n/a	n/a	1	[0, 0, 0]	-999	PAL1	0	R1028M
279.851	0.275	338004	TEST_ORIENT	n/a	n/a	4	6	FLAME	COIN	FLAME	COIN	1	[0, 0, 0]	-999	PAL1	0	R1028M
280.651	4.0	338404	TEST_PROBE	n/a	wordpools/wordpool_EN.txt	4	6	FLAME	COIN	FLAME	COIN	1	[0, 0, 0]	-999	PAL1	0	R1028M
280.652	1.775	338404	REC_START	n/a	n/a	4	-999	n/a	COIN	n/a	n/a	1	[0, 0, 0]	-999	PAL1	0	R1028M
282.427	3.233	339291	REC_EVENT	1775.0	n/a	4	6	FLAME	COIN	FLAME	COIN	1	[0, 0, 0]	-999	PAL1	0	R1028M
285.66	20.817	340908	REC_END	n/a	n/a	4	-999	n/a	n/a	n/a	n/a	1	[0, 0, 0]	-999	PAL1	0	R1028M
306.477	10.448	351315	ENCODING_START	n/a	n/a	0	-999	n/a	n/a	n/a	n/a	2	[0, 0, 0]	-999	PAL1	0	R1028M
316.925	0.275	356539	STUDY_ORIENT	n/a	n/a	1	1	BARN	JAIL	BARN	JAIL	2	[0, 0, 0]	-999	PAL1	0	R1028M
317.892	4.0	357022	STUDY_PAIR	n/a	wordpools/wordpool_EN.txt	1	1	BARN	JAIL	BARN	JAIL	2	[0, 0, 0]	-999	PAL1	0	R1028M
322.926	0.275	359539	STUDY_ORIENT	n/a	n/a	2	4	ROPE	DOLL	ROPE	DOLL	2	[0, 0, 0]	-999	PAL1	0	R1028M
323.743	4.0	359947	STUDY_PAIR	n/a	wordpools/wordpool_EN.txt	2	4	ROPE	DOLL	ROPE	DOLL	2	[0, 0, 0]	-999	PAL1	0	R1028M
328.761	0.275	362456	STUDY_ORIENT	n/a	n/a	3	5	RAT	SHEET	RAT	SHEET	2	[0, 0, 0]	-999	PAL1	0	R1028M
329.561	4.0	362856	STUDY_PAIR	n/a	wordpools/wordpool_EN.txt	3	5	RAT	SHEET	RAT	SHEET	2	[0, 0, 0]	-999	PAL1	0	R1028M
334.595	0.275	365373	STUDY_ORIENT	n/a	n/a	4	6	WHALE	PARK	PARK	WHALE	2	[0, 0, 0]	-999	PAL1	0	R1028M
335.596	4.0	365873	STUDY_PAIR	n/a	wordpools/wordpool_EN.txt	4	6	WHALE	PARK	PARK	WHALE	2	[0, 0, 0]	-999	PAL1	0	R1028M
340.63	0.275	368390	STUDY_ORIENT	n/a	n/a	5	3	ARK	RAIN	ARK	RAIN	2	[0, 0, 0]	-999	PAL1	0	R1028M
341.63	4.0	368890	STUDY_PAIR	n/a	wordpools/wordpool_EN.txt	5	3	ARK	RAIN	ARK	RAIN	2	[0, 0, 0]	-999	PAL1	0	R1028M
346.664	0.275	371407	STUDY_ORIENT	n/a	n/a	6	2	CAVE	BALL	BALL	CAVE	2	[0, 0, 0]	-999	PAL1	0	R1028M
347.465	4.0	371807	STUDY_PAIR	n/a	wordpools/wordpool_EN.txt	6	2	CAVE	BALL	BALL	CAVE	2	[0, 0, 0]	-999	PAL1	0	R1028M
351.482	1.0	373815	START	n/a	n/a	-999	-999	n/a	n/a	n/a	n/a	2	[-999, -999, -999]	-999	PAL1	0	R1028M
352.482	0.017	374315	MATH_START	n/a	n/a	-999	-999	n/a	n/a	n/a	n/a	2	[0, 0, 0]	-999	PAL1	0	R1028M
352.499	4.601	374324	PROB	4578.0	n/a	-999	-999	n/a	n/a	n/a	n/a	2	[4, 4, 2]	10	PAL1	0	R1028M
357.1	4.034	376624	PROB	4009.0	n/a	-999	-999	n/a	n/a	n/a	n/a	2	[1, 8, 7]	16	PAL1	0	R1028M
361.134	8.835	378641	PROB	8815.0	n/a	-999	-999	n/a	n/a	n/a	n/a	2	[8, 7, 8]	23	PAL1	0	R1028M
369.969	5.268	383058	PROB	5268.0	n/a	-999	-999	n/a	n/a	n/a	n/a	2	[6, 8, 3]	17	PAL1	0	R1028M
375.237	0.016	385692	STOP	n/a	n/a	-999	-999	n/a	n/a	n/a	n/a	2	[-999, -999, -999]	-999	PAL1	0	R1028M
375.253	0.0	385700	TEST_START	n/a	n/a	-999	-999	n/a	n/a	n/a	n/a	2	[0, 0, 0]	-999	PAL1	0	R1028M
375.253	0.017	385700	MATH_END	n/a	n/a	-999	-999	n/a	n/a	n/a	n/a	2	[0, 0, 0]	-999	PAL1	0	R1028M
375.27	0.275	385708	TEST_ORIENT	n/a	n/a	1	1	BARN	JAIL	BARN	JAIL	2	[0, 0, 0]	-999	PAL1	0	R1028M
376.137	4.0	386142	TEST_PROBE	n/a	wordpools/wordpool_EN.txt	1	1	BARN	JAIL	BARN	JAIL	2	[0, 0, 0]	-999	PAL1	0	R1028M
376.137	1.184	386142	REC_START	n/a	n/a	1	-999	n/a	JAIL	n/a	n/a	2	[0, 0, 0]	-999	PAL1	0	R1028M
377.321	3.833	386734	REC_EVENT	1184.0	n/a	1	1	BARN	JAIL	BARN	JAIL	2	[0, 0, 0]	-999	PAL1	0	R1028M
381.154	0.017	388650	REC_END	n/a	n/a	1	-999	n/a	n/a	n/a	n/a	2	[0, 0, 0]	-999	PAL1	0	R1028M
381.171	0.275	388658	TEST_ORIENT	n/a	n/a	6	2	CAVE	BALL	BALL	CAVE	2	[0, 0, 0]	-999	PAL1	0	R1028M
381.971	4.0	389058	TEST_PROBE	n/a	wordpools/wordpool_EN.txt	6	2	CAVE	BALL	BALL	CAVE	2	[0, 0, 0]	-999	PAL1	0	R1028M
381.972	1.437	389059	REC_START	n/a	n/a	6	-999	n/a	BALL	n/a	n/a	2	[0, 0, 0]	-999	PAL1	0	R1028M
383.409	3.563	389777	REC_EVENT	1437.0	n/a	6	2	CAVE	BALL	BALL	CAVE	2	[0, 0, 0]	-999	PAL1	0	R1028M
386.972	0.017	391559	REC_END	n/a	n/a	6	-999	n/a	n/a	n/a	n/a	2	[0, 0, 0]	-999	PAL1	0	R1028M
386.989	0.275	391567	TEST_ORIENT	n/a	n/a	5	3	ARK	RAIN	ARK	RAIN	2	[0, 0, 0]	-999	PAL1	0	R1028M
387.956	4.0	392051	TEST_PROBE	n/a	wordpools/wordpool_EN.txt	5	3	ARK	RAIN	ARK	RAIN	2	[0, 0, 0]	-999	PAL1	0	R1028M
387.956	1.181	392051	REC_START	n/a	n/a	5	-999	n/a	RAIN	n/a	n/a	2	[0, 0, 0]	-999	PAL1	0	R1028M
389.137	3.836	392641	REC_EVENT	1181.0	n/a	5	3	ARK	RAIN	ARK	RAIN	2	[0, 0, 0]	-999	PAL1	0	R1028M
392.973	0.017	394559	REC_END	n/a	n/a	5	-999	n/a	n/a	n/a	n/a	2	[0, 0, 0]	-999	PAL1	0	R1028M
392.99	0.275	394567	TEST_ORIENT	n/a	n/a	2	4	ROPE	DOLL	ROPE	DOLL	2	[0, 0, 0]	-999	PAL1	0	R1028M
393.79	4.0	394967	TEST_PROBE	n/a	wordpools/wordpool_EN.txt	2	4	ROPE	DOLL	ROPE	DOLL	2	[0, 0, 0]	-999	PAL1	0	R1028M
393.791	1.538	394968	REC_START	n/a	n/a	2	-999	n/a	DOLL	n/a	n/a	2	[0, 0, 0]	-999	PAL1	0	R1028M
395.329	3.47	395737	REC_EVENT	1538.0	n/a	2	4	ROPE	DOLL	ROPE	DOLL	2	[0, 0, 0]	-999	PAL1	0	R1028M
398.799	0.009	397472	REC_END	n/a	n/a	2	-999	n/a	n/a	n/a	n/a	2	[0, 0, 0]	-999	PAL1	0	R1028M
398.808	0.275	397476	TEST_ORIENT	n/a	n/a	3	5	RAT	SHEET	RAT	SHEET	2	[0, 0, 0]	-999	PAL1	0	R1028M
399.691	4.0	397917	TEST_PROBE	n/a	wordpools/wordpool_EN.txt	3	5	RAT	SHEET	RAT	SHEET	2	[0, 0, 0]	-999	PAL1	0	R1028M
399.691	0.922	397917	REC_START	n/a	n/a	3	-999	n/a	SHEET	n/a	n/a	2	[0, 0, 0]	-999	PAL1	0	R1028M
400.613	4.095	398378	REC_EVENT	922.0	n/a	3	5	RAT	SHEET	RAT	SHEET	2	[0, 0, 0]	-999	PAL1	0	R1028M
404.708	0.018	400426	REC_END	n/a	n/a	3	-999	n/a	n/a	n/a	n/a	2	[0, 0, 0]	-999	PAL1	0	R1028M
404.726	0.275	400435	TEST_ORIENT	n/a	n/a	4	6	WHALE	PARK	PARK	WHALE	2	[0, 0, 0]	-999	PAL1	0	R1028M
405.759	4.0	400951	TEST_PROBE	n/a	wordpools/wordpool_EN.txt	4	6	WHALE	PARK	PARK	WHALE	2	[0, 0, 0]	-999	PAL1	0	R1028M
405.76	1.196	400952	REC_START	n/a	n/a	4	-999	n/a	PARK	n/a	n/a	2	[0, 0, 0]	-999	PAL1	0	R1028M
406.956	3.812	401550	REC_EVENT	1196.0	n/a	4	6	WHALE	PARK	PARK	WHALE	2	[0, 0, 0]	-999	PAL1	0	R1028M
410.768	8.029	403455	REC_END	n/a	n/a	4	-999	n/a	n/a	n/a	n/a	2	[0, 0, 0]	-999	PAL1	0	R1028M
418.797	10.45	407470	ENCODING_START	n/a	n/a	0	-999	n/a	n/a	n/a	n/a	3	[0, 0, 0]	-999	PAL1	0	R1028M
429.247	0.275	412694	STUDY_ORIENT	n/a	n/a	1	5	MAP	TOAD	TOAD	MAP	3	[0, 0, 0]	-999	PAL1	0	R1028M
430.231	4.0	413186	STUDY_PAIR	n/a	wordpools/wordpool_EN.txt	1	5	MAP	TOAD	TOAD	MAP	3	[0, 0, 0]	-999	PAL1	0	R1028M
435.265	0.275	415703	STUDY_ORIENT	n/a	n/a	2	6	ROAD	ICE	ICE	ROAD	3	[0, 0, 0]	-999	PAL1	0	R1028M
436.132	4.0	416136	STUDY_PAIR	n/a	wordpools/wordpool_EN.txt	2	6	ROAD	ICE	ICE	ROAD	3	[0, 0, 0]	-999	PAL1	0	R1028M
441.15	0.275	418645	STUDY_ORIENT	n/a	n/a	3	1	HEART	SMILE	SMILE	HEART	3	[0, 0, 0]	-999	PAL1	0	R1028M
442.017	4.0	419078	STUDY_PAIR	n/a	wordpools/wordpool_EN.txt	3	1	HEART	SMILE	SMILE	HEART	3	[0, 0, 0]	-999	PAL1	0	R1028M
447.051	0.275	421595	STUDY_ORIENT	n/a	n/a	4	4	DESK	FLUTE	FLUTE	DESK	3	[0, 0, 0]	-999	PAL1	0	R1028M
447.968	4.0	422054	STUDY_PAIR	n/a	wordpools/wordpool_EN.txt	4	4	DESK	FLUTE	FLUTE	DESK	3	[0, 0, 0]	-999	PAL1	0	R1028M
453.002	0.275	424570	STUDY_ORIENT	n/a	n/a	5	3	HEN	NET	HEN	NET	3	[0, 0, 0]	-999	PAL1	0	R1028M
453.836	4.0	424987	STUDY_PAIR	n/a	wordpools/wordpool_EN.txt	5	3	HEN	NET	HEN	NET	3	[0, 0, 0]	-999	PAL1	0	R1028M
458.87	0.275	427504	STUDY_ORIENT	n/a	n/a	6	2	HAND	FORK	HAND	FORK	3	[0, 0, 0]	-999	PAL1	0	R1028M
459.787	4.0	427962	STUDY_PAIR	n/a	wordpools/wordpool_EN.txt	6	2	HAND	FORK	HAND	FORK	3	[0, 0, 0]	-999	PAL1	0	R1028M
463.805	0.999	429971	START	n/a	n/a	-999	-999	n/a	n/a	n/a	n/a	3	[-999, -999, -999]	-999	PAL1	0	R1028M
464.804	0.017	430471	MATH_START	n/a	n/a	-999	-999	n/a	n/a	n/a	n/a	3	[0, 0, 0]	-999	PAL1	0	R1028M
464.821	8.502	430479	PROB	8472.0	n/a	-999	-999	n/a	n/a	n/a	n/a	3	[5, 2, 1]	8	PAL1	0	R1028M
473.323	6.101	434730	PROB	6074.0	n/a	-999	-999	n/a	n/a	n/a	n/a	3	[8, 4, 3]	15	PAL1	0	R1028M
479.424	4.301	437780	PROB	4268.0	n/a	-999	-999	n/a	n/a	n/a	n/a	3	[3, 2, 1]	6	PAL1	0	R1028M
483.725	5.456	439930	PROB	5456.0	n/a	-999	-999	n/a	n/a	n/a	n/a	3	[9, 3, 3]	15	PAL1	0	R1028M
489.181	0.012	442658	STOP	n/a	n/a	-999	-999	n/a	n/a	n/a	n/a	3	[-999, -999, -999]	-999	PAL1	0	R1028M
489.193	0.0	442664	TEST_START	n/a	n/a	-999	-999	n/a	n/a	n/a	n/a	3	[0, 0, 0]	-999	PAL1	0	R1028M
489.193	0.016	442664	MATH_END	n/a	n/a	-999	-999	n/a	n/a	n/a	n/a	3	[0, 0, 0]	-999	PAL1	0	R1028M
489.209	0.275	442672	TEST_ORIENT	n/a	n/a	3	1	HEART	SMILE	SMILE	HEART	3	[0, 0, 0]	-999	PAL1	0	R1028M
490.143	4.0	443139	TEST_PROBE	n/a	wordpools/wordpool_EN.txt	3	1	HEART	SMILE	SMILE	HEART	3	[0, 0, 0]	-999	PAL1	0	R1028M
490.143	1.023	443139	REC_START	n/a	n/a	3	-999	n/a	SMILE	n/a	n/a	3	[0, 0, 0]	-999	PAL1	0	R1028M
491.166	3.994	443650	REC_EVENT	1023.0	n/a	3	1	HEART	SMILE	SMILE	HEART	3	[0, 0, 0]	-999	PAL1	0	R1028M
495.16	0.017	445647	REC_END	n/a	n/a	3	-999	n/a	n/a	n/a	n/a	3	[0, 0, 0]	-999	PAL1	0	R1028M
495.177	0.275	445656	TEST_ORIENT	n/a	n/a	6	2	HAND	FORK	HAND	FORK	3	[0, 0, 0]	-999	PAL1	0	R1028M
496.144	4.0	446139	TEST_PROBE	n/a	wordpools/wordpool_EN.txt	6	2	HAND	FORK	HAND	FORK	3	[0, 0, 0]	-999	PAL1	0	R1028M
496.145	1.352	446140	REC_START	n/a	n/a	6	-999	n/a	FORK	n/a	n/a	3	[0, 0, 0]	-999	PAL1	0	R1028M
497.497	3.656	446816	REC_EVENT	1352.0	n/a	6	2	HAND	FORK	HAND	FORK	3	[0, 0, 0]	-999	PAL1	0	R1028M
501.153	0.009	448643	REC_END	n/a	n/a	6	-999	n/a	n/a	n/a	n/a	3	[0, 0, 0]	-999	PAL1	0	R1028M
501.162	0.275	448648	TEST_ORIENT	n/a	n/a	5	3	HEN	NET	HEN	NET	3	[0, 0, 0]	-999	PAL1	0	R1028M
502.045	4.0	449089	TEST_PROBE	n/a	wordpools/wordpool_EN.txt	5	3	HEN	NET	HEN	NET	3	[0, 0, 0]	-999	PAL1	0	R1028M
502.046	1.236	449090	REC_START	n/a	n/a	5	-999	n/a	NET	n/a	n/a	3	[0, 0, 0]	-999	PAL1	0	R1028M
503.282	3.772	449708	REC_EVENT	1236.0	n/a	5	3	HEN	NET	HEN	NET	3	[0, 0, 0]	-999	PAL1	0	R1028M
507.054	0.009	451594	REC_END	n/a	n/a	5	-999	n/a	n/a	n/a	n/a	3	[0, 0, 0]	-999	PAL1	0	R1028M
507.063	0.275	451598	TEST_ORIENT	n/a	n/a	4	4	DESK	FLUTE	FLUTE	DESK	3	[0, 0, 0]	-999	PAL1	0	R1028M
507.863	4.0	451998	TEST_PROBE	n/a	wordpools/wordpool_EN.txt	4	4	DESK	FLUTE	FLUTE	DESK	3	[0, 0, 0]	-999	PAL1	0	R1028M
507.864	2.166	451998	REC_START	n/a	n/a	4	-999	n/a	FLUTE	n/a	n/a	3	[0, 0, 0]	-999	PAL1	0	R1028M
510.03	2.842	453081	REC_EVENT	2166.0	n/a	4	4	DESK	FLUTE	FLUTE	DESK	3	[0, 0, 0]	-999	PAL1	0	R1028M
512.872	0.009	454502	REC_END	n/a	n/a	4	-999	n/a	n/a	n/a	n/a	3	[0, 0, 0]	-999	PAL1	0	R1028M
512.881	0.275	454507	TEST_ORIENT	n/a	n/a	1	5	MAP	TOAD	TOAD	MAP	3	[0, 0, 0]	-999	PAL1	0	R1028M
513.714	4.0	454923	TEST_PROBE	n/a	wordpools/wordpool_EN.txt	1	5	MAP	TOAD	TOAD	MAP	3	[0, 0, 0]	-999	PAL1	0	R1028M
513.715	1.062	454924	REC_START	n/a	n/a	1	-999	n/a	TOAD	n/a	n/a	3	[0, 0, 0]	-999	PAL1	0	R1028M
514.777	3.946	455455	REC_EVENT	1062.0	n/a	1	5	MAP	TOAD	TOAD	MAP	3	[0, 0, 0]	-999	PAL1	0	R1028M
518.723	0.009	457427	REC_END	n/a	n/a	1	-999	n/a	n/a	n/a	n/a	3	[0, 0, 0]	-999	PAL1	0	R1028M
518.732	0.275	457432	TEST_ORIENT	n/a	n/a	2	6	ROAD	ICE	ICE	ROAD	3	[0, 0, 0]	-999	PAL1	0	R1028M
519.682	4.0	457907	TEST_PROBE	n/a	wordpools/wordpool_EN.txt	2	6	ROAD	ICE	ICE	ROAD	3	[0, 0, 0]	-999	PAL1	0	R1028M
519.683	1.221	457907	REC_START	n/a	n/a	2	-999	n/a	ICE	n/a	n/a	3	[0, 0, 0]	-999	PAL1	0	R1028M
520.904	3.786	458518	REC_EVENT	1221.0	n/a	2	6	ROAD	ICE	ICE	ROAD	3	[0, 0, 0]	-999	PAL1	0	R1028M
524.69	12.819	460411	REC_END	n/a	n/a	2	-999	n/a	n/a	n/a	n/a	3	[0, 0, 0]	-999	PAL1	0	R1028M
537.509	10.445	466819	ENCODING_START	n/a	n/a	0	-999	n/a	n/a	n/a	n/a	4	[0, 0, 0]	-999	PAL1	0	R1028M
547.954	0.275	472041	STUDY_ORIENT	n/a	n/a	1	3	PET	RAKE	PET	RAKE	4	[0, 0, 0]	-999	PAL1	0	R1028M
548.971	4.0	472550	STUDY_PAIR	n/a	wordpools/wordpool_EN.txt	1	3	PET	RAKE	PET	RAKE	4	[0, 0, 0]	-999	PAL1	0	R1028M
553.989	0.275	475059	STUDY_ORIENT	n/a	n/a	2	4	HAWK	TRAIL	HAWK	TAIL	4	[0, 0, 0]	-999	PAL1	0	R1028M
554.956	4.0	475542	STUDY_PAIR	n/a	wordpools/wordpool_EN.txt	2	4	HAWK	TRAIL	HAWK	TAIL	4	[0, 0, 0]	-999	PAL1	0	R1028M
559.99	0.275	478059	STUDY_ORIENT	n/a	n/a	3	5	SEED	MILK	MILK	SEED	4	[0, 0, 0]	-999	PAL1	0	R1028M
560.99	4.0	478559	STUDY_PAIR	n/a	wordpools/wordpool_EN.txt	3	5	SEED	MILK	MILK	SEED	4	[0, 0, 0]	-999	PAL1	0	R1028M
566.008	0.275	481068	STUDY_ORIENT	n/a	n/a	4	2	BREAD	CAGE	CAGE	BREAD	4	[0, 0, 0]	-999	PAL1	0	R1028M
566.825	4.0	481476	STUDY_PAIR	n/a	wordpools/wordpool_EN.txt	4	2	BREAD	CAGE	CAGE	BREAD	4	[0, 0, 0]	-999	PAL1	0	R1028M
571.859	0.275	483993	STUDY_ORIENT	n/a	n/a	5	1	TOOL	SCHOOL	TOOL	SCHOOL	4	[0, 0, 0]	-999	PAL1	0	R1028M
572.726	4.0	484426	STUDY_PAIR	n/a	wordpools/wordpool_EN.txt	5	1	TOOL	SCHOOL	TOOL	SCHOOL	4	[0, 0, 0]	-999	PAL1	0	R1028M
577.76	0.275	486943	STUDY_ORIENT	n/a	n/a	6	6	TOY	CHAIR	CHAIR	TOY	4	[0, 0, 0]	-999	PAL1	0	R1028M
578.577	4.0	487351	STUDY_PAIR	n/a	wordpools/wordpool_EN.txt	6	6	TOY	CHAIR	CHAIR	TOY	4	[0, 0, 0]	-999	PAL1	0	R1028M
582.578	1.0	489352	START	n/a	n/a	-999	-999	n/a	n/a	n/a	n/a	4	[-999, -999, -999]	-999	PAL1	0	R1028M
583.578	0.017	489852	MATH_START	n/a	n/a	-999	-999	n/a	n/a	n/a	n/a	4	[0, 0, 0]	-999	PAL1	0	R1028M
583.595	7.035	489860	PROB	7002.0	n/a	-999	-999	n/a	n/a	n/a	n/a	4	[8, 5, 6]	19	PAL1	0	R1028M
590.63	4.867	493377	PROB	4839.0	n/a	-999	-999	n/a	n/a	n/a	n/a	4	[2, 5, 3]	10	PAL1	0	R1028M
595.497	5.251	495811	PROB	5220.0	n/a	-999	-999	n/a	n/a	n/a	n/a	4	[1, 5, 4]	10	PAL1	0	R1028M
600.748	4.497	498436	PROB	4497.0	n/a	-999	-999	n/a	n/a	n/a	n/a	4	[4, 9, 4]	17	PAL1	0	R1028M
605.245	0.004	500684	STOP	n/a	n/a	-999	-999	n/a	n/a	n/a	n/a	4	[-999, -999, -999]	-999	PAL1	0	R1028M
605.249	0.0	500686	MATH_END	n/a	n/a	-999	-999	n/a	n/a	n/a	n/a	4	[0, 0, 0]	-999	PAL1	0	R1028M
605.249	0.017	500686	TEST_START	n/a	n/a	-999	-999	n/a	n/a	n/a	n/a	4	[0, 0, 0]	-999	PAL1	0	R1028M
605.266	0.275	500695	TEST_ORIENT	n/a	n/a	5	1	TOOL	SCHOOL	TOOL	SCHOOL	4	[0, 0, 0]	-999	PAL1	0	R1028M
606.116	4.0	501119	TEST_PROBE	n/a	wordpools/wordpool_EN.txt	5	1	TOOL	SCHOOL	TOOL	SCHOOL	4	[0, 0, 0]	-999	PAL1	0	R1028M
606.116	1.021	501119	REC_START	n/a	n/a	5	-999	n/a	SCHOOL	n/a	n/a	4	[0, 0, 0]	-999	PAL1	0	R1028M
607.137	3.997	501630	REC_EVENT	1021.0	n/a	5	1	TOOL	SCHOOL	TOOL	SCHOOL	4	[0, 0, 0]	-999	PAL1	0	R1028M
611.134	0.016	503628	REC_END	n/a	n/a	5	-999	n/a	n/a	n/a	n/a	4	[0, 0, 0]	-999	PAL1	0	R1028M
611.15	0.275	503636	TEST_ORIENT	n/a	n/a	4	2	BREAD	CAGE	CAGE	BREAD	4	[0, 0, 0]	-999	PAL1	0	R1028M
612.034	0.0	504078	REC_START	n/a	n/a	4	-999	n/a	CAGE	n/a	n/a	4	[0, 0, 0]	-999	PAL1	0	R1028M
612.034	4.0	504078	TEST_PROBE	n/a	wordpools/wordpool_EN.txt	4	2	BREAD	CAGE	CAGE	BREAD	4	[0, 0, 0]	-999	PAL1	0	R1028M
613.27	3.781	504696	REC_EVENT	1236.0	n/a	4	2	BREAD	CAGE	CAGE	BREAD	4	[0, 0, 0]	-999	PAL1	0	R1028M
617.051	0.017	506586	REC_END	n/a	n/a	4	-999	n/a	n/a	n/a	n/a	4	[0, 0, 0]	-999	PAL1	0	R1028M
617.068	0.275	506595	TEST_ORIENT	n/a	n/a	1	3	PET	RAKE	PET	RAKE	4	[0, 0, 0]	-999	PAL1	0	R1028M
617.952	4.0	507037	TEST_PROBE	n/a	wordpools/wordpool_EN.txt	1	3	PET	RAKE	PET	RAKE	4	[0, 0, 0]	-999	PAL1	0	R1028M
617.952	1.021	507037	REC_START	n/a	n/a	1	-999	n/a	RAKE	n/a	n/a	4	[0, 0, 0]	-999	PAL1	0	R1028M
618.973	3.996	507547	REC_EVENT	1021.0	n/a	1	3	PET	RAKE	PET	RAKE	4	[0, 0, 0]	-999	PAL1	0	R1028M
622.969	0.017	509545	REC_END	n/a	n/a	1	-999	n/a	n/a	n/a	n/a	4	[0, 0, 0]	-999	PAL1	0	R1028M
622.986	0.275	509554	TEST_ORIENT	n/a	n/a	2	4	HAWK	TRAIL	HAWK	TAIL	4	[0, 0, 0]	-999	PAL1	0	R1028M
623.886	4.0	510004	TEST_PROBE	n/a	wordpools/wordpool_EN.txt	2	4	HAWK	TRAIL	HAWK	TAIL	4	[0, 0, 0]	-999	PAL1	0	R1028M
623.887	1.027	510004	REC_START	n/a	n/a	2	-999	n/a	TRAIL	n/a	n/a	4	[0, 0, 0]	-999	PAL1	0	R1028M
624.914	3.981	510518	REC_EVENT	1027.0	n/a	2	4	HAWK	TRAIL	HAWK	TAIL	4	[0, 0, 0]	-999	PAL1	0	R1028M
628.895	0.009	512508	REC_END	n/a	n/a	2	-999	n/a	n/a	n/a	n/a	4	[0, 0, 0]	-999	PAL1	0	R1028M
628.904	0.275	512512	TEST_ORIENT	n/a	n/a	3	5	SEED	MILK	MILK	SEED	4	[0, 0, 0]	-999	PAL1	0	R1028M
629.904	4.0	513012	TEST_PROBE	n/a	wordpools/wordpool_EN.txt	3	5	SEED	MILK	MILK	SEED	4	[0, 0, 0]	-999	PAL1	0	R1028M
629.904	1.225	513012	REC_START	n/a	n/a	3	-999	n/a	MILK	n/a	n/a	4	[0, 0, 0]	-999	PAL1	0	R1028M
631.129	3.793	513625	REC_EVENT	1225.0	n/a	3	5	SEED	MILK	MILK	SEED	4	[0, 0, 0]	-999	PAL1	0	R1028M
634.922	0.016	515521	REC_END	n/a	n/a	3	-999	n/a	n/a	n/a	n/a	4	[0, 0, 0]	-999	PAL1	0	R1028M
634.938	0.275	515529	TEST_ORIENT	n/a	n/a	6	6	TOY	CHAIR	CHAIR	TOY	4	[0, 0, 0]	-999	PAL1	0	R1028M
635.772	4.0	515946	TEST_PROBE	n/a	wordpools/wordpool_EN.txt	6	6	TOY	CHAIR	CHAIR	TOY	4	[0, 0, 0]	-999	PAL1	0	R1028M
635.773	1.039	515946	REC_START	n/a	n/a	6	-999	n/a	CHAIR	n/a	n/a	4	[0, 0, 0]	-999	PAL1	0	R1028M
636.812	3.977	516466	REC_EVENT	1039.0	n/a	6	6	TOY	CHAIR	CHAIR	TOY	4	[0, 0, 0]	-999	PAL1	0	R1028M
640.789	25.432	518454	REC_END	n/a	n/a	6	-999	n/a	n/a	n/a	n/a	4	[0, 0, 0]	-999	PAL1	0	R1028M
666.221	10.442	531169	ENCODING_START	n/a	n/a	0	-999	n/a	n/a	n/a	n/a	5	[0, 0, 0]	-999	PAL1	0	R1028M
676.663	0.275	536389	STUDY_ORIENT	n/a	n/a	1	5	SPOON	MAT	SPOON	MAT	5	[0, 0, 0]	-999	PAL1	0	R1028M
677.53	4.0	536823	STUDY_PAIR	n/a	wordpools/wordpool_EN.txt	1	5	SPOON	MAT	SPOON	MAT	5	[0, 0, 0]	-999	PAL1	0	R1028M
682.548	0.275	539332	STUDY_ORIENT	n/a	n/a	2	4	SAIL	FOOT	FOOT	SAIL	5	[0, 0, 0]	-999	PAL1	0	R1028M
683.332	4.0	539724	STUDY_PAIR	n/a	wordpools/wordpool_EN.txt	2	4	SAIL	FOOT	FOOT	SAIL	5	[0, 0, 0]	-999	PAL1	0	R1028M
688.366	0.275	542240	STUDY_ORIENT	n/a	n/a	3	3	EGG	STAR	STAR	EGG	5	[0, 0, 0]	-999	PAL1	0	R1028M
689.316	4.0	542715	STUDY_PAIR	n/a	wordpools/wordpool_EN.txt	3	3	EGG	STAR	STAR	EGG	5	[0, 0, 0]	-999	PAL1	0	R1028M
694.35	0.275	545232	STUDY_ORIENT	n/a	n/a	4	2	WOLF	SHOE	SHOE	WOLF	5	[0, 0, 0]	-999	PAL1	0	R1028M
695.167	4.0	545640	STUDY_PAIR	n/a	wordpools/wordpool_EN.txt	4	2	WOLF	SHOE	SHOE	WOLF	5	[0, 0, 0]	-999	PAL1	0	R1028M
700.185	0.275	548149	STUDY_ORIENT	n/a	n/a	5	1	PEAR	BEE	BEE	PEAR	5	[0, 0, 0]	-999	PAL1	0	R1028M
701.185	4.0	548649	STUDY_PAIR	n/a	wordpools/wordpool_EN.txt	5	1	PEAR	BEE	BEE	PEAR	5	[0, 0, 0]	-999	PAL1	0	R1028M
706.219	0.275	551166	STUDY_ORIENT	n/a	n/a	6	6	RICE	FACE	RICE	FACE	5	[0, 0, 0]	-999	PAL1	0	R1028M
707.203	4.0	551658	STUDY_PAIR	n/a	wordpools/wordpool_EN.txt	6	6	RICE	FACE	RICE	FACE	5	[0, 0, 0]	-999	PAL1	0	R1028M
711.221	0.999	553667	START	n/a	n/a	-999	-999	n/a	n/a	n/a	n/a	5	[-999, -999, -999]	-999	PAL1	0	R1028M
712.22	0.017	554166	MATH_START	n/a	n/a	-999	-999	n/a	n/a	n/a	n/a	5	[0, 0, 0]	-999	PAL1	0	R1028M
712.237	3.918	554175	PROB	3888.0	n/a	-999	-999	n/a	n/a	n/a	n/a	5	[1, 2, 3]	6	PAL1	0	R1028M
716.155	3.817	556133	PROB	3794.0	n/a	-999	-999	n/a	n/a	n/a	n/a	5	[2, 4, 5]	11	PAL1	0	R1028M
719.972	7.185	558042	PROB	7153.0	n/a	-999	-999	n/a	n/a	n/a	n/a	5	[9, 7, 5]	21	PAL1	0	R1028M
727.157	5.28	561634	PROB	5280.0	n/a	-999	-999	n/a	n/a	n/a	n/a	5	[8, 3, 4]	15	PAL1	0	R1028M
732.437	0.004	564274	STOP	n/a	n/a	-999	-999	n/a	n/a	n/a	n/a	5	[-999, -999, -999]	-999	PAL1	0	R1028M
732.441	0.0	564276	MATH_END	n/a	n/a	-999	-999	n/a	n/a	n/a	n/a	5	[0, 0, 0]	-999	PAL1	0	R1028M
732.441	0.017	564276	TEST_START	n/a	n/a	-999	-999	n/a	n/a	n/a	n/a	5	[0, 0, 0]	-999	PAL1	0	R1028M
732.458	0.275	564284	TEST_ORIENT	n/a	n/a	5	1	PEAR	BEE	BEE	PEAR	5	[0, 0, 0]	-999	PAL1	0	R1028M
733.441	4.0	564775	TEST_PROBE	n/a	wordpools/wordpool_EN.txt	5	1	PEAR	BEE	BEE	PEAR	5	[0, 0, 0]	-999	PAL1	0	R1028M
733.442	1.669	564776	REC_START	n/a	n/a	5	-999	n/a	BEE	n/a	n/a	5	[0, 0, 0]	-999	PAL1	0	R1028M
735.111	3.339	565610	REC_EVENT	1669.0	n/a	5	1	PEAR	BEE	BEE	PEAR	5	[0, 0, 0]	-999	PAL1	0	R1028M
738.45	0.009	567280	REC_END	n/a	n/a	5	-999	n/a	n/a	n/a	n/a	5	[0, 0, 0]	-999	PAL1	0	R1028M
738.459	0.275	567284	TEST_ORIENT	n/a	n/a	4	2	WOLF	SHOE	SHOE	WOLF	5	[0, 0, 0]	-999	PAL1	0	R1028M
739.476	4.0	567793	TEST_PROBE	n/a	wordpools/wordpool_EN.txt	4	2	WOLF	SHOE	SHOE	WOLF	5	[0, 0, 0]	-999	PAL1	0	R1028M
739.476	1.364	567793	REC_START	n/a	n/a	4	-999	n/a	SHOE	n/a	n/a	5	[0, 0, 0]	-999	PAL1	0	R1028M
740.84	3.653	568475	REC_EVENT	1364.0	n/a	4	2	WOLF	SHOE	SHOE	WOLF	5	[0, 0, 0]	-999	PAL1	0	R1028M
744.493	0.067	570301	REC_END	n/a	n/a	4	-999	n/a	n/a	n/a	n/a	5	[0, 0, 0]	-999	PAL1	0	R1028M
744.56	0.275	570334	TEST_ORIENT	n/a	n/a	3	3	EGG	STAR	STAR	EGG	5	[0, 0, 0]	-999	PAL1	0	R1028M
745.56	4.0	570834	TEST_PROBE	n/a	wordpools/wordpool_EN.txt	3	3	EGG	STAR	STAR	EGG	5	[0, 0, 0]	-999	PAL1	0	R1028M
745.561	0.93	570835	REC_START	n/a	n/a	3	-999	n/a	STAR	n/a	n/a	5	[0, 0, 0]	-999	PAL1	0	R1028M
746.491	4.078	571300	REC_EVENT	930.0	n/a	3	3	EGG	STAR	STAR	EGG	5	[0, 0, 0]	-999	PAL1	0	R1028M
750.569	0.009	573339	REC_END	n/a	n/a	3	-999	n/a	n/a	n/a	n/a	5	[0, 0, 0]	-999	PAL1	0	R1028M
750.578	0.275	573343	TEST_ORIENT	n/a	n/a	2	4	SAIL	FOOT	FOOT	SAIL	5	[0, 0, 0]	-999	PAL1	0	R1028M
751.395	4.0	573752	TEST_PROBE	n/a	wordpools/wordpool_EN.txt	2	4	SAIL	FOOT	FOOT	SAIL	5	[0, 0, 0]	-999	PAL1	0	R1028M
751.396	2.546	573752	REC_START	n/a	n/a	2	-999	n/a	FOOT	n/a	n/a	5	[0, 0, 0]	-999	PAL1	0	R1028M
753.942	2.479	575025	REC_EVENT	2546.0	n/a	2	4	SAIL	FOOT	FOOT	SAIL	5	[0, 0, 0]	-999	PAL1	0	R1028M
756.421	0.008	576264	REC_END	n/a	n/a	2	-999	n/a	n/a	n/a	n/a	5	[0, 0, 0]	-999	PAL1	0	R1028M
756.429	0.275	576268	TEST_ORIENT	n/a	n/a	1	5	SPOON	MAT	SPOON	MAT	5	[0, 0, 0]	-999	PAL1	0	R1028M
757.429	4.0	576768	TEST_PROBE	n/a	wordpools/wordpool_EN.txt	1	5	SPOON	MAT	SPOON	MAT	5	[0, 0, 0]	-999	PAL1	0	R1028M
757.43	1.231	576769	REC_START	n/a	n/a	1	-999	n/a	MAT	n/a	n/a	5	[0, 0, 0]	-999	PAL1	0	R1028M
758.661	3.777	577384	REC_EVENT	1231.0	n/a	1	5	SPOON	MAT	SPOON	MAT	5	[0, 0, 0]	-999	PAL1	0	R1028M
762.438	0.009	579272	REC_END	n/a	n/a	1	-999	n/a	n/a	n/a	n/a	5	[0, 0, 0]	-999	PAL1	0	R1028M
762.447	0.275	579277	TEST_ORIENT	n/a	n/a	6	6	RICE	FACE	RICE	FACE	5	[0, 0, 0]	-999	PAL1	0	R1028M
763.381	4.0	579744	TEST_PROBE	n/a	wordpools/wordpool_EN.txt	6	6	RICE	FACE	RICE	FACE	5	[0, 0, 0]	-999	PAL1	0	R1028M
763.381	1.316	579744	REC_START	n/a	n/a	6	-999	n/a	FACE	n/a	n/a	5	[0, 0, 0]	-999	PAL1	0	R1028M
764.697	3.701	580402	REC_EVENT	1316.0	n/a	6	6	RICE	FACE	RICE	FACE	5	[0, 0, 0]	-999	PAL1	0	R1028M
768.398	4.135	582252	REC_END	n/a	n/a	6	-999	n/a	n/a	n/a	n/a	5	[0, 0, 0]	-999	PAL1	0	R1028M
772.533	10.452	584319	ENCODING_START	n/a	n/a	0	-999	n/a	n/a	n/a	n/a	6	[0, 0, 0]	-999	PAL1	0	R1028M
782.985	0.275	589545	STUDY_ORIENT	n/a	n/a	1	1	COW	SHELL	SHELL	COW	6	[0, 0, 0]	-999	PAL1	0	R1028M
783.901	4.0	590003	STUDY_PAIR	n/a	wordpools/wordpool_EN.txt	1	1	COW	SHELL	SHELL	COW	6	[0, 0, 0]	-999	PAL1	0	R1028M
788.919	0.275	592512	STUDY_ORIENT	n/a	n/a	2	2	PASTE	MOUSE	PASTE	MOUSE	6	[0, 0, 0]	-999	PAL1	0	R1028M
789.919	4.0	593012	STUDY_PAIR	n/a	wordpools/wordpool_EN.txt	2	2	PASTE	MOUSE	PASTE	MOUSE	6	[0, 0, 0]	-999	PAL1	0	R1028M
794.937	0.275	595520	STUDY_ORIENT	n/a	n/a	3	5	CONE	GRAPE	CONE	GRAPE	6	[0, 0, 0]	-999	PAL1	0	R1028M
795.921	4.0	596012	STUDY_PAIR	n/a	wordpools/wordpool_EN.txt	3	5	CONE	GRAPE	CONE	GRAPE	6	[0, 0, 0]	-999	PAL1	0	R1028M
800.955	0.275	598529	STUDY_ORIENT	n/a	n/a	4	6	HOLE	n/a	HOLE	BRUSH	6	[0, 0, 0]	-999	PAL1	0	R1028M
801.788	4.0	598945	STUDY_PAIR	n/a	wordpools/wordpool_EN.txt	4	6	HOLE	n/a	HOLE	BRUSH	6	[0, 0, 0]	-999	PAL1	0	R1028M
806.806	0.275	601454	STUDY_ORIENT	n/a	n/a	5	3	BUSH	HOLE	BUSH	PLANE	6	[0, 0, 0]	-999	PAL1	0	R1028M
807.589	4.0	601846	STUDY_PAIR	n/a	wordpools/wordpool_EN.txt	5	3	BUSH	HOLE	BUSH	PLANE	6	[0, 0, 0]	-999	PAL1	0	R1028M
812.607	0.275	604354	STUDY_ORIENT	n/a	n/a	6	4	ZOO	SNAKE	ZOO	SNAKE	6	[0, 0, 0]	-999	PAL1	0	R1028M
813.407	4.0	604754	STUDY_PAIR	n/a	wordpools/wordpool_EN.txt	6	4	ZOO	SNAKE	ZOO	SNAKE	6	[0, 0, 0]	-999	PAL1	0	R1028M
817.408	1.0	606755	START	n/a	n/a	-999	-999	n/a	n/a	n/a	n/a	6	[-999, -999, -999]	-999	PAL1	0	R1028M
818.408	0.017	607255	MATH_START	n/a	n/a	-999	-999	n/a	n/a	n/a	n/a	6	[0, 0, 0]	-999	PAL1	0	R1028M
818.425	3.901	607263	PROB	3876.0	n/a	-999	-999	n/a	n/a	n/a	n/a	6	[5, 3, 3]	11	PAL1	0	R1028M
822.326	8.201	609213	PROB	8167.0	n/a	-999	-999	n/a	n/a	n/a	n/a	6	[6, 3, 8]	17	PAL1	0	R1028M
830.527	5.868	613314	PROB	5846.0	n/a	-999	-999	n/a	n/a	n/a	n/a	6	[6, 5, 2]	13	PAL1	0	R1028M
836.395	5.386	616247	PROB	5386.0	n/a	-999	-999	n/a	n/a	n/a	n/a	6	[2, 7, 9]	18	PAL1	0	R1028M
841.781	0.015	618940	STOP	n/a	n/a	-999	-999	n/a	n/a	n/a	n/a	6	[-999, -999, -999]	-999	PAL1	0	R1028M
841.796	0.0	618947	MATH_END	n/a	n/a	-999	-999	n/a	n/a	n/a	n/a	6	[0, 0, 0]	-999	PAL1	0	R1028M
841.796	0.017	618947	TEST_START	n/a	n/a	-999	-999	n/a	n/a	n/a	n/a	6	[0, 0, 0]	-999	PAL1	0	R1028M
841.813	0.275	618956	TEST_ORIENT	n/a	n/a	1	1	COW	SHELL	SHELL	COW	6	[0, 0, 0]	-999	PAL1	0	R1028M
842.847	4.0	619473	TEST_PROBE	n/a	wordpools/wordpool_EN.txt	1	1	COW	SHELL	SHELL	COW	6	[0, 0, 0]	-999	PAL1	0	R1028M
842.847	0.959	619473	REC_START	n/a	n/a	1	-999	n/a	SHELL	n/a	n/a	6	[0, 0, 0]	-999	PAL1	0	R1028M
843.806	4.058	619952	REC_EVENT	959.0	n/a	1	1	COW	SHELL	SHELL	COW	6	[0, 0, 0]	-999	PAL1	0	R1028M
847.864	0.017	621981	REC_END	n/a	n/a	1	-999	n/a	n/a	n/a	n/a	6	[0, 0, 0]	-999	PAL1	0	R1028M
847.881	0.275	621990	TEST_ORIENT	n/a	n/a	2	2	PASTE	MOUSE	PASTE	MOUSE	6	[0, 0, 0]	-999	PAL1	0	R1028M
848.731	4.0	622415	TEST_PROBE	n/a	wordpools/wordpool_EN.txt	2	2	PASTE	MOUSE	PASTE	MOUSE	6	[0, 0, 0]	-999	PAL1	0	R1028M
848.731	3.615	622415	REC_START	n/a	n/a	2	-999	n/a	MOUSE	n/a	n/a	6	[0, 0, 0]	-999	PAL1	0	R1028M
852.346	1.403	624222	REC_EVENT	3615.0	n/a	2	2	PASTE	MOUSE	PASTE	MOUSE	6	[0, 0, 0]	-999	PAL1	0	R1028M
853.749	0.016	624923	REC_END	n/a	n/a	2	-999	n/a	n/a	n/a	n/a	6	[0, 0, 0]	-999	PAL1	0	R1028M
853.765	0.275	624931	TEST_ORIENT	n/a	n/a	5	3	BUSH	HOLE	BUSH	PLANE	6	[0, 0, 0]	-999	PAL1	0	R1028M
854.582	4.0	625340	TEST_PROBE	n/a	wordpools/wordpool_EN.txt	5	3	BUSH	HOLE	BUSH	PLANE	6	[0, 0, 0]	-999	PAL1	0	R1028M
854.583	1.248	625340	REC_START	n/a	n/a	5	-999	n/a	HOLE	n/a	n/a	6	[0, 0, 0]	-999	PAL1	0	R1028M
855.831	3.76	625964	REC_EVENT	1248.0	n/a	5	3	BUSH	HOLE	BUSH	PLANE	6	[0, 0, 0]	-999	PAL1	0	R1028M
859.591	0.009	627844	REC_END	n/a	n/a	5	-999	n/a	n/a	n/a	n/a	6	[0, 0, 0]	-999	PAL1	0	R1028M
859.6	0.275	627849	TEST_ORIENT	n/a	n/a	6	4	ZOO	SNAKE	ZOO	SNAKE	6	[0, 0, 0]	-999	PAL1	0	R1028M
860.5	4.0	628298	TEST_PROBE	n/a	wordpools/wordpool_EN.txt	6	4	ZOO	SNAKE	ZOO	SNAKE	6	[0, 0, 0]	-999	PAL1	0	R1028M
860.501	1.384	628299	REC_START	n/a	n/a	6	-999	n/a	SNAKE	n/a	n/a	6	[0, 0, 0]	-999	PAL1	0	R1028M
861.885	3.641	628991	REC_EVENT	1384.0	n/a	6	4	ZOO	SNAKE	ZOO	SNAKE	6	[0, 0, 0]	-999	PAL1	0	R1028M
865.526	0.008	630811	REC_END	n/a	n/a	6	-999	n/a	n/a	n/a	n/a	6	[0, 0, 0]	-999	PAL1	0	R1028M
865.534	0.275	630815	TEST_ORIENT	n/a	n/a	3	5	CONE	GRAPE	CONE	GRAPE	6	[0, 0, 0]	-999	PAL1	0	R1028M
866.568	4.0	631332	TEST_PROBE	n/a	wordpools/wordpool_EN.txt	3	5	CONE	GRAPE	CONE	GRAPE	6	[0, 0, 0]	-999	PAL1	0	R1028M
866.569	1.244	631333	REC_START	n/a	n/a	3	-999	n/a	GRAPE	n/a	n/a	6	[0, 0, 0]	-999	PAL1	0	R1028M
867.813	1.157	631955	REC_EVENT	1244.0	n/a	3	5	CONE	GRAPE	CONE	GRAPE	6	[0, 0, 0]	-999	PAL1	0	R1028M
868.97	2.623	632533	REC_EVENT	2401.0	n/a	3	5	CONE	<>	CONE	GRAPE	6	[0, 0, 0]	-999	PAL1	0	R1028M
871.593	0.009	633844	REC_END	n/a	n/a	3	-999	n/a	n/a	n/a	n/a	6	[0, 0, 0]	-999	PAL1	0	R1028M
871.602	0.275	633849	TEST_ORIENT	n/a	n/a	4	6	HOLE	n/a	HOLE	BRUSH	6	[0, 0, 0]	-999	PAL1	0	R1028M
872.519	4.0	634307	TEST_PROBE	n/a	wordpools/wordpool_EN.txt	4	6	HOLE	n/a	HOLE	BRUSH	6	[0, 0, 0]	-999	PAL1	0	R1028M
872.519	5.018	634307	REC_START	n/a	n/a	4	-999	n/a	n/a	n/a	n/a	6	[0, 0, 0]	-999	PAL1	0	R1028M
877.537	0.003	636816	REC_END	n/a	n/a	4	-999	n/a	n/a	n/a	n/a	6	[0, 0, 0]	-999	PAL1	0	R1028M
877.54	55.433	636818	REC_EVENT	5021.0	n/a	4	6	HOLE	<>	HOLE	BRUSH	6	[0, 0, 0]	-999	PAL1	0	R1028M
932.973	10.444	664531	ENCODING_START	n/a	n/a	0	-999	n/a	n/a	n/a	n/a	7	[0, 0, 0]	-999	PAL1	0	R1028M
943.417	0.275	669753	STUDY_ORIENT	n/a	n/a	1	5	STREET	PIE	PIE	STREET	7	[0, 0, 0]	-999	PAL1	0	R1028M
944.283	4.0	670186	STUDY_PAIR	n/a	wordpools/wordpool_EN.txt	1	5	STREET	PIE	PIE	STREET	7	[0, 0, 0]	-999	PAL1	0	R1028M
949.301	0.275	672694	STUDY_ORIENT	n/a	n/a	2	4	ARM	GEESE	ARM	GEESE	7	[0, 0, 0]	-999	PAL1	0	R1028M
950.185	4.0	673136	STUDY_PAIR	n/a	wordpools/wordpool_EN.txt	2	4	ARM	GEESE	ARM	GEESE	7	[0, 0, 0]	-999	PAL1	0	R1028M
955.219	0.275	675653	STUDY_ORIENT	n/a	n/a	3	3	SEAL	SWORD	SEAL	SWORD	7	[0, 0, 0]	-999	PAL1	0	R1028M
956.202	4.0	676145	STUDY_PAIR	n/a	wordpools/wordpool_EN.txt	3	3	SEAL	SWORD	SEAL	SWORD	7	[0, 0, 0]	-999	PAL1	0	R1028M
961.22	0.275	678653	STUDY_ORIENT	n/a	n/a	4	6	PURSE	MAZE	MAZE	PURSE	7	[0, 0, 0]	-999	PAL1	0	R1028M
962.104	4.0	679095	STUDY_PAIR	n/a	wordpools/wordpool_EN.txt	4	6	PURSE	MAZE	MAZE	PURSE	7	[0, 0, 0]	-999	PAL1	0	R1028M
967.138	0.275	681612	STUDY_ORIENT	n/a	n/a	5	1	BEAN	THUMB	THUMB	BEAN	7	[0, 0, 0]	-999	PAL1	0	R1028M
968.121	4.0	682104	STUDY_PAIR	n/a	wordpools/wordpool_EN.txt	5	1	BEAN	THUMB	THUMB	BEAN	7	[0, 0, 0]	-999	PAL1	0	R1028M
973.139	0.275	684612	STUDY_ORIENT	n/a	n/a	6	2	BEACH	GATE	GATE	BEACH	7	[0, 0, 0]	-999	PAL1	0	R1028M
974.106	4.0	685096	STUDY_PAIR	n/a	wordpools/wordpool_EN.txt	6	2	BEACH	GATE	GATE	BEACH	7	[0, 0, 0]	-999	PAL1	0	R1028M
978.124	0.999	687104	START	n/a	n/a	-999	-999	n/a	n/a	n/a	n/a	7	[-999, -999, -999]	-999	PAL1	0	R1028M
979.123	0.017	687604	MATH_START	n/a	n/a	-999	-999	n/a	n/a	n/a	n/a	7	[0, 0, 0]	-999	PAL1	0	R1028M
979.14	3.451	687612	PROB	3417.0	n/a	-999	-999	n/a	n/a	n/a	n/a	7	[7, 1, 1]	9	PAL1	0	R1028M
982.591	4.734	689338	PROB	4702.0	n/a	-999	-999	n/a	n/a	n/a	n/a	7	[5, 3, 8]	16	PAL1	0	R1028M
987.325	5.701	691705	PROB	5672.0	n/a	-999	-999	n/a	n/a	n/a	n/a	7	[7, 5, 7]	19	PAL1	0	R1028M
993.026	3.651	694555	PROB	3627.0	n/a	-999	-999	n/a	n/a	n/a	n/a	7	[5, 5, 8]	18	PAL1	0	R1028M
996.677	3.8	696380	PROB	3800.0	n/a	-999	-999	n/a	n/a	n/a	n/a	7	[4, 1, 7]	12	PAL1	0	R1028M
1000.477	0.018	698280	STOP	n/a	n/a	-999	-999	n/a	n/a	n/a	n/a	7	[-999, -999, -999]	-999	PAL1	0	R1028M
1000.495	0.0	698289	MATH_END	n/a	n/a	-999	-999	n/a	n/a	n/a	n/a	7	[0, 0, 0]	-999	PAL1	0	R1028M
1000.495	0.016	698289	TEST_START	n/a	n/a	-999	-999	n/a	n/a	n/a	n/a	7	[0, 0, 0]	-999	PAL1	0	R1028M
1000.511	0.275	698297	TEST_ORIENT	n/a	n/a	5	1	BEAN	THUMB	THUMB	BEAN	7	[0, 0, 0]	-999	PAL1	0	R1028M
1001.428	4.0	698755	TEST_PROBE	n/a	wordpools/wordpool_EN.txt	5	1	BEAN	THUMB	THUMB	BEAN	7	[0, 0, 0]	-999	PAL1	0	R1028M
1001.428	1.045	698755	REC_START	n/a	n/a	5	-999	n/a	THUMB	n/a	n/a	7	[0, 0, 0]	-999	PAL1	0	R1028M
1002.473	3.973	699278	REC_EVENT	1045.0	n/a	5	1	BEAN	THUMB	THUMB	BEAN	7	[0, 0, 0]	-999	PAL1	0	R1028M
1006.446	0.016	701264	REC_END	n/a	n/a	5	-999	n/a	n/a	n/a	n/a	7	[0, 0, 0]	-999	PAL1	0	R1028M
1006.462	0.275	701272	TEST_ORIENT	n/a	n/a	6	2	BEACH	GATE	GATE	BEACH	7	[0, 0, 0]	-999	PAL1	0	R1028M
1007.379	4.0	701730	TEST_PROBE	n/a	wordpools/wordpool_EN.txt	6	2	BEACH	GATE	GATE	BEACH	7	[0, 0, 0]	-999	PAL1	0	R1028M
1007.38	0.959	701731	REC_START	n/a	n/a	6	-999	n/a	GATE	n/a	n/a	7	[0, 0, 0]	-999	PAL1	0	R1028M
1008.339	4.049	702210	REC_EVENT	959.0	n/a	6	2	BEACH	GATE	GATE	BEACH	7	[0, 0, 0]	-999	PAL1	0	R1028M
1012.388	0.009	704235	REC_END	n/a	n/a	6	-999	n/a	n/a	n/a	n/a	7	[0, 0, 0]	-999	PAL1	0	R1028M
1012.397	0.275	704239	TEST_ORIENT	n/a	n/a	3	3	SEAL	SWORD	SEAL	SWORD	7	[0, 0, 0]	-999	PAL1	0	R1028M
1013.347	4.0	704714	TEST_PROBE	n/a	wordpools/wordpool_EN.txt	3	3	SEAL	SWORD	SEAL	SWORD	7	[0, 0, 0]	-999	PAL1	0	R1028M
1013.348	1.01	704715	REC_START	n/a	n/a	3	-999	n/a	SWORD	n/a	n/a	7	[0, 0, 0]	-999	PAL1	0	R1028M
1014.358	3.999	705220	REC_EVENT	1010.0	n/a	3	3	SEAL	SWORD	SEAL	SWORD	7	[0, 0, 0]	-999	PAL1	0	R1028M
1018.357	0.008	707219	REC_END	n/a	n/a	3	-999	n/a	n/a	n/a	n/a	7	[0, 0, 0]	-999	PAL1	0	R1028M
1018.365	0.275	707223	TEST_ORIENT	n/a	n/a	2	4	ARM	GEESE	ARM	GEESE	7	[0, 0, 0]	-999	PAL1	0	R1028M
1019.232	4.0	707656	TEST_PROBE	n/a	wordpools/wordpool_EN.txt	2	4	ARM	GEESE	ARM	GEESE	7	[0, 0, 0]	-999	PAL1	0	R1028M
1019.232	1.43	707656	REC_START	n/a	n/a	2	-999	n/a	GEESE	n/a	n/a	7	[0, 0, 0]	-999	PAL1	0	R1028M
1020.662	3.587	708371	REC_EVENT	1430.0	n/a	2	4	ARM	GEESE	ARM	GEESE	7	[0, 0, 0]	-999	PAL1	0	R1028M
1024.249	0.017	710165	REC_END	n/a	n/a	2	-999	n/a	n/a	n/a	n/a	7	[0, 0, 0]	-999	PAL1	0	R1028M
1024.266	0.275	710173	TEST_ORIENT	n/a	n/a	1	5	STREET	PIE	PIE	STREET	7	[0, 0, 0]	-999	PAL1	0	R1028M
1025.183	4.0	710632	TEST_PROBE	n/a	wordpools/wordpool_EN.txt	1	5	STREET	PIE	PIE	STREET	7	[0, 0, 0]	-999	PAL1	0	R1028M
1025.183	1.191	710632	REC_START	n/a	n/a	1	-999	n/a	PIE	n/a	n/a	7	[0, 0, 0]	-999	PAL1	0	R1028M
1026.374	3.826	711227	REC_EVENT	1191.0	n/a	1	5	STREET	PIE	PIE	STREET	7	[0, 0, 0]	-999	PAL1	0	R1028M
1030.2	0.017	713140	REC_END	n/a	n/a	1	-999	n/a	n/a	n/a	n/a	7	[0, 0, 0]	-999	PAL1	0	R1028M
1030.217	0.275	713148	TEST_ORIENT	n/a	n/a	4	6	PURSE	MAZE	MAZE	PURSE	7	[0, 0, 0]	-999	PAL1	0	R1028M
1031.134	4.0	713607	TEST_PROBE	n/a	wordpools/wordpool_EN.txt	4	6	PURSE	MAZE	MAZE	PURSE	7	[0, 0, 0]	-999	PAL1	0	R1028M
1031.134	2.337	713607	REC_START	n/a	n/a	4	-999	n/a	MAZE	n/a	n/a	7	[0, 0, 0]	-999	PAL1	0	R1028M
1033.471	1.779	714775	REC_EVENT	2337.0	n/a	4	6	PURSE	MAZE	MAZE	PURSE	7	[0, 0, 0]	-999	PAL1	0	R1028M
1035.25	0.901	715665	REC_EVENT	4116.0	n/a	4	6	PURSE	<>	MAZE	PURSE	7	[0, 0, 0]	-999	PAL1	0	R1028M
1036.151	2.654	716115	REC_END	n/a	n/a	4	-999	n/a	n/a	n/a	n/a	7	[0, 0, 0]	-999	PAL1	0	R1028M
1038.805	10.449	717442	ENCODING_START	n/a	n/a	0	-999	n/a	n/a	n/a	n/a	8	[0, 0, 0]	-999	PAL1	0	R1028M
1049.254	0.275	722666	STUDY_ORIENT	n/a	n/a	1	3	SHEEP	DOCK	DOCK	SHEEP	8	[0, 0, 0]	-999	PAL1	0	R1028M
1050.038	4.0	723058	STUDY_PAIR	n/a	wordpools/wordpool_EN.txt	1	3	SHEEP	DOCK	DOCK	SHEEP	8	[0, 0, 0]	-999	PAL1	0	R1028M
1055.072	0.275	725575	STUDY_ORIENT	n/a	n/a	2	4	BOY	RUG	RUG	BOY	8	[0, 0, 0]	-999	PAL1	0	R1028M
1055.956	4.0	726017	STUDY_PAIR	n/a	wordpools/wordpool_EN.txt	2	4	BOY	RUG	RUG	BOY	8	[0, 0, 0]	-999	PAL1	0	R1028M
1060.99	0.275	728533	STUDY_ORIENT	n/a	n/a	3	1	KITE	COUCH	KITE	COUCH	8	[0, 0, 0]	-999	PAL1	0	R1028M
1061.89	4.0	728983	STUDY_PAIR	n/a	wordpools/wordpool_EN.txt	3	1	KITE	COUCH	KITE	COUCH	8	[0, 0, 0]	-999	PAL1	0	R1028M
1066.908	0.275	731492	STUDY_ORIENT	n/a	n/a	4	6	TRASH	MOTH	TRASH	MOTH	8	[0, 0, 0]	-999	PAL1	0	R1028M
1067.741	4.0	731908	STUDY_PAIR	n/a	wordpools/wordpool_EN.txt	4	6	TRASH	MOTH	TRASH	MOTH	8	[0, 0, 0]	-999	PAL1	0	R1028M
1072.759	0.275	734417	STUDY_ORIENT	n/a	n/a	5	5	HORSE	LIP	LIP	HORSE	8	[0, 0, 0]	-999	PAL1	0	R1028M
1073.676	4.0	734876	STUDY_PAIR	n/a	wordpools/wordpool_EN.txt	5	5	HORSE	LIP	LIP	HORSE	8	[0, 0, 0]	-999	PAL1	0	R1028M
1078.71	0.275	737392	STUDY_ORIENT	n/a	n/a	6	2	CHIEF	SEA	CHIEF	SEA	8	[0, 0, 0]	-999	PAL1	0	R1028M
1079.51	4.0	737792	STUDY_PAIR	n/a	wordpools/wordpool_EN.txt	6	2	CHIEF	SEA	CHIEF	SEA	8	[0, 0, 0]	-999	PAL1	0	R1028M
1083.512	0.999	739793	START	n/a	n/a	-999	-999	n/a	n/a	n/a	n/a	8	[-999, -999, -999]	-999	PAL1	0	R1028M
1084.511	0.017	740293	MATH_START	n/a	n/a	-999	-999	n/a	n/a	n/a	n/a	8	[0, 0, 0]	-999	PAL1	0	R1028M
1084.528	6.385	740301	PROB	6357.0	n/a	-999	-999	n/a	n/a	n/a	n/a	8	[6, 9, 8]	23	PAL1	0	R1028M
1090.913	4.551	743493	PROB	4516.0	n/a	-999	-999	n/a	n/a	n/a	n/a	8	[1, 4, 8]	13	PAL1	0	R1028M
1095.464	5.284	745769	PROB	5253.0	n/a	-999	-999	n/a	n/a	n/a	n/a	8	[6, 3, 2]	11	PAL1	0	R1028M
1100.748	4.489	748410	PROB	4489.0	n/a	-999	-999	n/a	n/a	n/a	n/a	8	[9, 5, 4]	18	PAL1	0	R1028M
1105.237	0.012	750655	STOP	n/a	n/a	-999	-999	n/a	n/a	n/a	n/a	8	[-999, -999, -999]	-999	PAL1	0	R1028M
1105.249	0.0	750661	MATH_END	n/a	n/a	-999	-999	n/a	n/a	n/a	n/a	8	[0, 0, 0]	-999	PAL1	0	R1028M
1105.249	0.016	750661	TEST_START	n/a	n/a	-999	-999	n/a	n/a	n/a	n/a	8	[0, 0, 0]	-999	PAL1	0	R1028M
1105.265	0.275	750669	TEST_ORIENT	n/a	n/a	3	1	KITE	COUCH	KITE	COUCH	8	[0, 0, 0]	-999	PAL1	0	R1028M
1106.082	4.0	751077	TEST_PROBE	n/a	wordpools/wordpool_EN.txt	3	1	KITE	COUCH	KITE	COUCH	8	[0, 0, 0]	-999	PAL1	0	R1028M
1106.083	1.215	751077	REC_START	n/a	n/a	3	-999	n/a	COUCH	n/a	n/a	8	[0, 0, 0]	-999	PAL1	0	R1028M
1107.298	3.793	751685	REC_EVENT	1215.0	n/a	3	1	KITE	COUCH	KITE	COUCH	8	[0, 0, 0]	-999	PAL1	0	R1028M
1111.091	0.009	753581	REC_END	n/a	n/a	3	-999	n/a	n/a	n/a	n/a	8	[0, 0, 0]	-999	PAL1	0	R1028M
1111.1	0.275	753586	TEST_ORIENT	n/a	n/a	6	2	CHIEF	SEA	CHIEF	SEA	8	[0, 0, 0]	-999	PAL1	0	R1028M
1112.117	4.0	754094	TEST_PROBE	n/a	wordpools/wordpool_EN.txt	6	2	CHIEF	SEA	CHIEF	SEA	8	[0, 0, 0]	-999	PAL1	0	R1028M
1112.117	1.081	754094	REC_START	n/a	n/a	6	-999	n/a	SEA	n/a	n/a	8	[0, 0, 0]	-999	PAL1	0	R1028M
1113.198	3.936	754635	REC_EVENT	1081.0	n/a	6	2	CHIEF	SEA	CHIEF	SEA	8	[0, 0, 0]	-999	PAL1	0	R1028M
1117.134	0.017	756602	REC_END	n/a	n/a	6	-999	n/a	n/a	n/a	n/a	8	[0, 0, 0]	-999	PAL1	0	R1028M
1117.151	0.275	756611	TEST_ORIENT	n/a	n/a	1	3	SHEEP	DOCK	DOCK	SHEEP	8	[0, 0, 0]	-999	PAL1	0	R1028M
1118.034	4.0	757052	TEST_PROBE	n/a	wordpools/wordpool_EN.txt	1	3	SHEEP	DOCK	DOCK	SHEEP	8	[0, 0, 0]	-999	PAL1	0	R1028M
1118.035	1.113	757053	REC_START	n/a	n/a	1	-999	n/a	DOCK	n/a	n/a	8	[0, 0, 0]	-999	PAL1	0	R1028M
1119.148	3.887	757609	REC_EVENT	1113.0	n/a	1	3	SHEEP	DOCK	DOCK	SHEEP	8	[0, 0, 0]	-999	PAL1	0	R1028M
1123.035	0.017	759553	REC_END	n/a	n/a	1	-999	n/a	n/a	n/a	n/a	8	[0, 0, 0]	-999	PAL1	0	R1028M
1123.052	0.275	759561	TEST_ORIENT	n/a	n/a	2	4	BOY	RUG	RUG	BOY	8	[0, 0, 0]	-999	PAL1	0	R1028M
1123.919	4.0	759995	TEST_PROBE	n/a	wordpools/wordpool_EN.txt	2	4	BOY	RUG	RUG	BOY	8	[0, 0, 0]	-999	PAL1	0	R1028M
1123.92	1.377	759995	REC_START	n/a	n/a	2	-999	n/a	RUG	n/a	n/a	8	[0, 0, 0]	-999	PAL1	0	R1028M
1125.297	3.631	760683	REC_EVENT	1377.0	n/a	2	4	BOY	RUG	RUG	BOY	8	[0, 0, 0]	-999	PAL1	0	R1028M
1128.928	0.009	762499	REC_END	n/a	n/a	2	-999	n/a	n/a	n/a	n/a	8	[0, 0, 0]	-999	PAL1	0	R1028M
1128.937	0.275	762503	TEST_ORIENT	n/a	n/a	5	5	HORSE	LIP	LIP	HORSE	8	[0, 0, 0]	-999	PAL1	0	R1028M
1129.954	4.0	763012	TEST_PROBE	n/a	wordpools/wordpool_EN.txt	5	5	HORSE	LIP	LIP	HORSE	8	[0, 0, 0]	-999	PAL1	0	R1028M
1129.954	0.97	763012	REC_START	n/a	n/a	5	-999	n/a	LIP	n/a	n/a	8	[0, 0, 0]	-999	PAL1	0	R1028M
1130.924	4.047	763497	REC_EVENT	970.0	n/a	5	5	HORSE	LIP	LIP	HORSE	8	[0, 0, 0]	-999	PAL1	0	R1028M
1134.971	0.017	765520	REC_END	n/a	n/a	5	-999	n/a	n/a	n/a	n/a	8	[0, 0, 0]	-999	PAL1	0	R1028M
1134.988	0.275	765528	TEST_ORIENT	n/a	n/a	4	6	TRASH	MOTH	TRASH	MOTH	8	[0, 0, 0]	-999	PAL1	0	R1028M
1135.888	4.0	765978	TEST_PROBE	n/a	wordpools/wordpool_EN.txt	4	6	TRASH	MOTH	TRASH	MOTH	8	[0, 0, 0]	-999	PAL1	0	R1028M
1135.889	1.076	765979	REC_START	n/a	n/a	4	-999	n/a	MOTH	n/a	n/a	8	[0, 0, 0]	-999	PAL1	0	R1028M
1136.965	3.932	766517	REC_EVENT	1076.0	n/a	4	6	TRASH	MOTH	TRASH	MOTH	8	[0, 0, 0]	-999	PAL1	0	R1028M
1140.897	2.276	768483	REC_END	n/a	n/a	4	-999	n/a	n/a	n/a	n/a	8	[0, 0, 0]	-999	PAL1	0	R1028M
1143.173	10.452	769621	ENCODING_START	n/a	n/a	0	-999	n/a	n/a	n/a	n/a	9	[0, 0, 0]	-999	PAL1	0	R1028M
1153.625	0.275	774846	STUDY_ORIENT	n/a	n/a	1	3	LAMP	THREAD	LAMP	THREAD	9	[0, 0, 0]	-999	PAL1	0	R1028M
1154.609	4.0	775338	STUDY_PAIR	n/a	wordpools/wordpool_EN.txt	1	3	LAMP	THREAD	LAMP	THREAD	9	[0, 0, 0]	-999	PAL1	0	R1028M
1159.643	0.275	777855	STUDY_ORIENT	n/a	n/a	2	2	CUBE	BOX	CUBE	BOX	9	[0, 0, 0]	-999	PAL1	0	R1028M
1160.593	4.0	778330	STUDY_PAIR	n/a	wordpools/wordpool_EN.txt	2	2	CUBE	BOX	CUBE	BOX	9	[0, 0, 0]	-999	PAL1	0	R1028M
1165.611	0.275	780838	STUDY_ORIENT	n/a	n/a	3	1	SHARK	BLUSH	SHARK	BLUSH	9	[0, 0, 0]	-999	PAL1	0	R1028M
1166.578	4.0	781322	STUDY_PAIR	n/a	wordpools/wordpool_EN.txt	3	1	SHARK	BLUSH	SHARK	BLUSH	9	[0, 0, 0]	-999	PAL1	0	R1028M
1171.612	0.275	783839	STUDY_ORIENT	n/a	n/a	4	6	PEACH	BATH	BATH	PEACH	9	[0, 0, 0]	-999	PAL1	0	R1028M
1172.446	4.0	784256	STUDY_PAIR	n/a	wordpools/wordpool_EN.txt	4	6	PEACH	BATH	BATH	PEACH	9	[0, 0, 0]	-999	PAL1	0	R1028M
1177.48	0.275	786772	STUDY_ORIENT	n/a	n/a	5	5	LEAF	GOLD	LEAF	GOLD	9	[0, 0, 0]	-999	PAL1	0	R1028M
1178.413	4.0	787239	STUDY_PAIR	n/a	wordpools/wordpool_EN.txt	5	5	LEAF	GOLD	LEAF	GOLD	9	[0, 0, 0]	-999	PAL1	0	R1028M
1183.431	0.275	789748	STUDY_ORIENT	n/a	n/a	6	4	GOAT	n/a	DRUM	GOAT	9	[0, 0, 0]	-999	PAL1	0	R1028M
1184.215	4.0	790139	STUDY_PAIR	n/a	wordpools/wordpool_EN.txt	6	4	GOAT	n/a	DRUM	GOAT	9	[0, 0, 0]	-999	PAL1	0	R1028M
1188.233	0.999	792148	START	n/a	n/a	-999	-999	n/a	n/a	n/a	n/a	9	[-999, -999, -999]	-999	PAL1	0	R1028M
1189.232	0.017	792648	MATH_START	n/a	n/a	-999	-999	n/a	n/a	n/a	n/a	9	[0, 0, 0]	-999	PAL1	0	R1028M
1189.249	6.818	792656	PROB	6788.0	n/a	-999	-999	n/a	n/a	n/a	n/a	9	[2, 4, 7]	13	PAL1	0	R1028M
1196.067	4.751	796065	PROB	4730.0	n/a	-999	-999	n/a	n/a	n/a	n/a	9	[1, 2, 1]	4	PAL1	0	R1028M
1200.818	10.283	798440	PROB	10283.0	n/a	-999	-999	n/a	n/a	n/a	n/a	9	[9, 8, 4]	21	PAL1	0	R1028M
1211.101	0.002	803581	STOP	n/a	n/a	-999	-999	n/a	n/a	n/a	n/a	9	[-999, -999, -999]	-999	PAL1	0	R1028M
1211.103	0.0	803582	TEST_START	n/a	n/a	-999	-999	n/a	n/a	n/a	n/a	9	[0, 0, 0]	-999	PAL1	0	R1028M
1211.103	0.017	803582	MATH_END	n/a	n/a	-999	-999	n/a	n/a	n/a	n/a	9	[0, 0, 0]	-999	PAL1	0	R1028M
1211.12	0.275	803591	TEST_ORIENT	n/a	n/a	3	1	SHARK	BLUSH	SHARK	BLUSH	9	[0, 0, 0]	-999	PAL1	0	R1028M
1211.987	4.0	804024	TEST_PROBE	n/a	wordpools/wordpool_EN.txt	3	1	SHARK	BLUSH	SHARK	BLUSH	9	[0, 0, 0]	-999	PAL1	0	R1028M
1211.987	1.297	804024	REC_START	n/a	n/a	3	-999	n/a	BLUSH	n/a	n/a	9	[0, 0, 0]	-999	PAL1	0	R1028M
1213.284	3.72	804672	REC_EVENT	1297.0	n/a	3	1	SHARK	BLUSH	SHARK	BLUSH	9	[0, 0, 0]	-999	PAL1	0	R1028M
1217.004	0.017	806532	REC_END	n/a	n/a	3	-999	n/a	n/a	n/a	n/a	9	[0, 0, 0]	-999	PAL1	0	R1028M
1217.021	0.275	806541	TEST_ORIENT	n/a	n/a	2	2	CUBE	BOX	CUBE	BOX	9	[0, 0, 0]	-999	PAL1	0	R1028M
1217.938	4.0	806999	TEST_PROBE	n/a	wordpools/wordpool_EN.txt	2	2	CUBE	BOX	CUBE	BOX	9	[0, 0, 0]	-999	PAL1	0	R1028M
1217.938	0.916	806999	REC_START	n/a	n/a	2	-999	n/a	BOX	n/a	n/a	9	[0, 0, 0]	-999	PAL1	0	R1028M
1218.854	4.101	807457	REC_EVENT	916.0	n/a	2	2	CUBE	BOX	CUBE	BOX	9	[0, 0, 0]	-999	PAL1	0	R1028M
1222.955	0.017	809508	REC_END	n/a	n/a	2	-999	n/a	n/a	n/a	n/a	9	[0, 0, 0]	-999	PAL1	0	R1028M
1222.972	0.275	809516	TEST_ORIENT	n/a	n/a	1	3	LAMP	THREAD	LAMP	THREAD	9	[0, 0, 0]	-999	PAL1	0	R1028M
1223.939	4.0	809999	TEST_PROBE	n/a	wordpools/wordpool_EN.txt	1	3	LAMP	THREAD	LAMP	THREAD	9	[0, 0, 0]	-999	PAL1	0	R1028M
1223.939	1.211	809999	REC_START	n/a	n/a	1	-999	n/a	THREAD	n/a	n/a	9	[0, 0, 0]	-999	PAL1	0	R1028M
1225.15	3.807	810605	REC_EVENT	1211.0	n/a	1	3	LAMP	THREAD	LAMP	THREAD	9	[0, 0, 0]	-999	PAL1	0	R1028M
1228.957	0.017	812508	REC_END	n/a	n/a	1	-999	n/a	n/a	n/a	n/a	9	[0, 0, 0]	-999	PAL1	0	R1028M
1228.974	0.275	812517	TEST_ORIENT	n/a	n/a	6	4	GOAT	n/a	DRUM	GOAT	9	[0, 0, 0]	-999	PAL1	0	R1028M
1229.957	4.0	813008	TEST_PROBE	n/a	wordpools/wordpool_EN.txt	6	4	GOAT	n/a	DRUM	GOAT	9	[0, 0, 0]	-999	PAL1	0	R1028M
1229.958	4.921	813009	REC_START	n/a	n/a	6	-999	n/a	n/a	n/a	n/a	9	[0, 0, 0]	-999	PAL1	0	R1028M
1234.879	0.104	815469	REC_EVENT	4921.0	n/a	6	4	GOAT	<>	DRUM	GOAT	9	[0, 0, 0]	-999	PAL1	0	R1028M
1234.983	0.008	815521	REC_END	n/a	n/a	6	-999	n/a	n/a	n/a	n/a	9	[0, 0, 0]	-999	PAL1	0	R1028M
1234.991	0.275	815525	TEST_ORIENT	n/a	n/a	5	5	LEAF	GOLD	LEAF	GOLD	9	[0, 0, 0]	-999	PAL1	0	R1028M
1235.941	4.0	816000	TEST_PROBE	n/a	wordpools/wordpool_EN.txt	5	5	LEAF	GOLD	LEAF	GOLD	9	[0, 0, 0]	-999	PAL1	0	R1028M
1235.942	1.004	816000	REC_START	n/a	n/a	5	-999	n/a	GOLD	n/a	n/a	9	[0, 0, 0]	-999	PAL1	0	R1028M
1236.946	3.996	816502	REC_EVENT	1004.0	n/a	5	5	LEAF	GOLD	LEAF	GOLD	9	[0, 0, 0]	-999	PAL1	0	R1028M
1240.942	0.017	818500	REC_END	n/a	n/a	5	-999	n/a	n/a	n/a	n/a	9	[0, 0, 0]	-999	PAL1	0	R1028M
1240.959	0.275	818509	TEST_ORIENT	n/a	n/a	4	6	PEACH	BATH	BATH	PEACH	9	[0, 0, 0]	-999	PAL1	0	R1028M
1242.01	0.0	819034	REC_START	n/a	n/a	4	-999	n/a	BATH	n/a	n/a	9	[0, 0, 0]	-999	PAL1	0	R1028M
1242.01	4.0	819034	TEST_PROBE	n/a	wordpools/wordpool_EN.txt	4	6	PEACH	BATH	BATH	PEACH	9	[0, 0, 0]	-999	PAL1	0	R1028M
1243.1	3.927	819579	REC_EVENT	1090.0	n/a	4	6	PEACH	BATH	BATH	PEACH	9	[0, 0, 0]	-999	PAL1	0	R1028M
1247.027	17.018	821542	REC_END	n/a	n/a	4	-999	n/a	n/a	n/a	n/a	9	[0, 0, 0]	-999	PAL1	0	R1028M
1264.045	10.438	830050	ENCODING_START	n/a	n/a	0	-999	n/a	n/a	n/a	n/a	10	[0, 0, 0]	-999	PAL1	0	R1028M
1274.483	0.275	835269	STUDY_ORIENT	n/a	n/a	1	1	PIT	BEAR	BEAR	PIT	10	[0, 0, 0]	-999	PAL1	0	R1028M
1275.349	4.0	835702	STUDY_PAIR	n/a	wordpools/wordpool_EN.txt	1	1	PIT	BEAR	BEAR	PIT	10	[0, 0, 0]	-999	PAL1	0	R1028M
1280.367	0.275	838211	STUDY_ORIENT	n/a	n/a	2	6	SOUP	n/a	JET	SOUP	10	[0, 0, 0]	-999	PAL1	0	R1028M
1281.301	4.0	838678	STUDY_PAIR	n/a	wordpools/wordpool_EN.txt	2	6	SOUP	n/a	JET	SOUP	10	[0, 0, 0]	-999	PAL1	0	R1028M
1286.335	0.275	841194	STUDY_ORIENT	n/a	n/a	3	3	PIN	TENT	PIN	TENT	10	[0, 0, 0]	-999	PAL1	0	R1028M
1287.335	4.0	841694	STUDY_PAIR	n/a	wordpools/wordpool_EN.txt	3	3	PIN	TENT	PIN	TENT	10	[0, 0, 0]	-999	PAL1	0	R1028M
1292.353	0.275	844203	STUDY_ORIENT	n/a	n/a	4	4	JEEP	OAK	JEEP	OAK	10	[0, 0, 0]	-999	PAL1	0	R1028M
1293.17	4.0	844611	STUDY_PAIR	n/a	wordpools/wordpool_EN.txt	4	4	JEEP	OAK	JEEP	OAK	10	[0, 0, 0]	-999	PAL1	0	R1028M
1298.204	0.275	847128	STUDY_ORIENT	n/a	n/a	5	5	LAMB	JUDGE	JUDGE	LAMB	10	[0, 0, 0]	-999	PAL1	0	R1028M
1299.104	4.0	847578	STUDY_PAIR	n/a	wordpools/wordpool_EN.txt	5	5	LAMB	JUDGE	JUDGE	LAMB	10	[0, 0, 0]	-999	PAL1	0	R1028M
1304.122	0.275	850087	STUDY_ORIENT	n/a	n/a	6	2	SPRING	JAR	JAR	SPRING	10	[0, 0, 0]	-999	PAL1	0	R1028M
1305.105	4.0	850578	STUDY_PAIR	n/a	wordpools/wordpool_EN.txt	6	2	SPRING	JAR	JAR	SPRING	10	[0, 0, 0]	-999	PAL1	0	R1028M
1309.106	1.0	852579	START	n/a	n/a	-999	-999	n/a	n/a	n/a	n/a	10	[-999, -999, -999]	-999	PAL1	0	R1028M
1310.106	0.017	853079	MATH_START	n/a	n/a	-999	-999	n/a	n/a	n/a	n/a	10	[0, 0, 0]	-999	PAL1	0	R1028M
1310.123	4.434	853087	PROB	4410.0	n/a	-999	-999	n/a	n/a	n/a	n/a	10	[7, 3, 9]	19	PAL1	0	R1028M
1314.557	4.968	855304	PROB	4944.0	n/a	-999	-999	n/a	n/a	n/a	n/a	10	[4, 7, 1]	12	PAL1	0	R1028M
1319.525	3.417	857788	PROB	3384.0	n/a	-999	-999	n/a	n/a	n/a	n/a	10	[1, 9, 9]	19	PAL1	0	R1028M
1322.942	7.303	859496	PROB	7303.0	n/a	-999	-999	n/a	n/a	n/a	n/a	10	[3, 6, 9]	18	PAL1	0	R1028M
1330.245	0.015	863147	STOP	n/a	n/a	-999	-999	n/a	n/a	n/a	n/a	10	[-999, -999, -999]	-999	PAL1	0	R1028M
1330.26	0.0	863155	TEST_START	n/a	n/a	-999	-999	n/a	n/a	n/a	n/a	10	[0, 0, 0]	-999	PAL1	0	R1028M
1330.26	0.017	863155	MATH_END	n/a	n/a	-999	-999	n/a	n/a	n/a	n/a	10	[0, 0, 0]	-999	PAL1	0	R1028M
1330.277	0.275	863163	TEST_ORIENT	n/a	n/a	1	1	PIT	BEAR	BEAR	PIT	10	[0, 0, 0]	-999	PAL1	0	R1028M
1331.144	4.0	863596	TEST_PROBE	n/a	wordpools/wordpool_EN.txt	1	1	PIT	BEAR	BEAR	PIT	10	[0, 0, 0]	-999	PAL1	0	R1028M
1331.144	1.216	863596	REC_START	n/a	n/a	1	-999	n/a	BEAR	n/a	n/a	10	[0, 0, 0]	-999	PAL1	0	R1028M
1332.36	3.801	864204	REC_EVENT	1216.0	n/a	1	1	PIT	BEAR	BEAR	PIT	10	[0, 0, 0]	-999	PAL1	0	R1028M
1336.161	0.017	866105	REC_END	n/a	n/a	1	-999	n/a	n/a	n/a	n/a	10	[0, 0, 0]	-999	PAL1	0	R1028M
1336.178	0.275	866113	TEST_ORIENT	n/a	n/a	6	2	SPRING	JAR	JAR	SPRING	10	[0, 0, 0]	-999	PAL1	0	R1028M
1337.028	4.0	866538	TEST_PROBE	n/a	wordpools/wordpool_EN.txt	6	2	SPRING	JAR	JAR	SPRING	10	[0, 0, 0]	-999	PAL1	0	R1028M
1337.029	1.253	866539	REC_START	n/a	n/a	6	-999	n/a	JAR	n/a	n/a	10	[0, 0, 0]	-999	PAL1	0	R1028M
1338.282	3.755	867165	REC_EVENT	1253.0	n/a	6	2	SPRING	JAR	JAR	SPRING	10	[0, 0, 0]	-999	PAL1	0	R1028M
1342.037	0.009	869042	REC_END	n/a	n/a	6	-999	n/a	n/a	n/a	n/a	10	[0, 0, 0]	-999	PAL1	0	R1028M
1342.046	0.275	869047	TEST_ORIENT	n/a	n/a	3	3	PIN	TENT	PIN	TENT	10	[0, 0, 0]	-999	PAL1	0	R1028M
1342.913	4.0	869480	TEST_PROBE	n/a	wordpools/wordpool_EN.txt	3	3	PIN	TENT	PIN	TENT	10	[0, 0, 0]	-999	PAL1	0	R1028M
1342.913	3.11	869480	REC_START	n/a	n/a	3	-999	n/a	TENT	n/a	n/a	10	[0, 0, 0]	-999	PAL1	0	R1028M
1346.023	1.907	871035	REC_EVENT	3110.0	n/a	3	3	PIN	TENT	PIN	TENT	10	[0, 0, 0]	-999	PAL1	0	R1028M
1347.93	0.017	871989	REC_END	n/a	n/a	3	-999	n/a	n/a	n/a	n/a	10	[0, 0, 0]	-999	PAL1	0	R1028M
1347.947	0.275	871997	TEST_ORIENT	n/a	n/a	4	4	JEEP	OAK	JEEP	OAK	10	[0, 0, 0]	-999	PAL1	0	R1028M
1348.964	4.0	872506	TEST_PROBE	n/a	wordpools/wordpool_EN.txt	4	4	JEEP	OAK	JEEP	OAK	10	[0, 0, 0]	-999	PAL1	0	R1028M
1348.965	1.233	872506	REC_START	n/a	n/a	4	-999	n/a	OAK	n/a	n/a	10	[0, 0, 0]	-999	PAL1	0	R1028M
1350.198	0.287	873123	REC_EVENT	1233.0	n/a	4	4	JEEP	OAK	JEEP	OAK	10	[0, 0, 0]	-999	PAL1	0	R1028M
1350.485	3.488	873266	REC_EVENT	1520.0	n/a	4	4	JEEP	<>	JEEP	OAK	10	[0, 0, 0]	-999	PAL1	0	R1028M
1353.973	0.009	875010	REC_END	n/a	n/a	4	-999	n/a	n/a	n/a	n/a	10	[0, 0, 0]	-999	PAL1	0	R1028M
1353.982	0.275	875014	TEST_ORIENT	n/a	n/a	5	5	LAMB	JUDGE	JUDGE	LAMB	10	[0, 0, 0]	-999	PAL1	0	R1028M
1354.832	4.0	875439	TEST_PROBE	n/a	wordpools/wordpool_EN.txt	5	5	LAMB	JUDGE	JUDGE	LAMB	10	[0, 0, 0]	-999	PAL1	0	R1028M
1354.833	1.245	875440	REC_START	n/a	n/a	5	-999	n/a	JUDGE	n/a	n/a	10	[0, 0, 0]	-999	PAL1	0	R1028M
1356.078	3.771	876062	REC_EVENT	1245.0	n/a	5	5	LAMB	JUDGE	JUDGE	LAMB	10	[0, 0, 0]	-999	PAL1	0	R1028M
1359.849	0.017	877948	REC_END	n/a	n/a	5	-999	n/a	n/a	n/a	n/a	10	[0, 0, 0]	-999	PAL1	0	R1028M
1359.866	0.275	877956	TEST_ORIENT	n/a	n/a	2	6	SOUP	n/a	JET	SOUP	10	[0, 0, 0]	-999	PAL1	0	R1028M
1360.883	4.0	878464	TEST_PROBE	n/a	wordpools/wordpool_EN.txt	2	6	SOUP	n/a	JET	SOUP	10	[0, 0, 0]	-999	PAL1	0	R1028M
1360.884	4.903	878465	REC_START	n/a	n/a	2	-999	n/a	n/a	n/a	n/a	10	[0, 0, 0]	-999	PAL1	0	R1028M
1365.787	0.105	880916	REC_EVENT	4903.0	n/a	2	6	SOUP	<>	JET	SOUP	10	[0, 0, 0]	-999	PAL1	0	R1028M
1365.892	6.545	880969	REC_END	n/a	n/a	2	-999	n/a	n/a	n/a	n/a	10	[0, 0, 0]	-999	PAL1	0	R1028M
1372.437	10.451	884241	ENCODING_START	n/a	n/a	0	-999	n/a	n/a	n/a	n/a	11	[0, 0, 0]	-999	PAL1	0	R1028M
1382.888	0.275	889466	STUDY_ORIENT	n/a	n/a	1	1	FLEA	HAT	FLEA	HAT	11	[0, 0, 0]	-999	PAL1	0	R1028M
1383.738	4.0	889891	STUDY_PAIR	n/a	wordpools/wordpool_EN.txt	1	1	FLEA	HAT	FLEA	HAT	11	[0, 0, 0]	-999	PAL1	0	R1028M
1388.772	0.275	892408	STUDY_ORIENT	n/a	n/a	2	6	SQUARE	CROWN	CROWN	SQUARE	11	[0, 0, 0]	-999	PAL1	0	R1028M
1389.622	4.0	892833	STUDY_PAIR	n/a	wordpools/wordpool_EN.txt	2	6	SQUARE	CROWN	CROWN	SQUARE	11	[0, 0, 0]	-999	PAL1	0	R1028M
1394.64	0.275	895341	STUDY_ORIENT	n/a	n/a	3	5	CORD	n/a	CORD	GUARD	11	[0, 0, 0]	-999	PAL1	0	R1028M
1395.573	4.0	895808	STUDY_PAIR	n/a	wordpools/wordpool_EN.txt	3	5	CORD	n/a	CORD	GUARD	11	[0, 0, 0]	-999	PAL1	0	R1028M
1400.591	0.275	898316	STUDY_ORIENT	n/a	n/a	4	2	SALT	EAR	SALT	EAR	11	[0, 0, 0]	-999	PAL1	0	R1028M
1401.608	4.0	898825	STUDY_PAIR	n/a	wordpools/wordpool_EN.txt	4	2	SALT	EAR	SALT	EAR	11	[0, 0, 0]	-999	PAL1	0	R1028M
1406.642	0.275	901342	STUDY_ORIENT	n/a	n/a	5	3	FILM	HOOK	FILM	HOOK	11	[0, 0, 0]	-999	PAL1	0	R1028M
1407.509	4.0	901775	STUDY_PAIR	n/a	wordpools/wordpool_EN.txt	5	3	FILM	HOOK	FILM	HOOK	11	[0, 0, 0]	-999	PAL1	0	R1028M
1412.527	0.275	904284	STUDY_ORIENT	n/a	n/a	6	4	SHIELD	n/a	SHIELD	WEB	11	[0, 0, 0]	-999	PAL1	0	R1028M
1413.41	4.0	904725	STUDY_PAIR	n/a	wordpools/wordpool_EN.txt	6	4	SHIELD	n/a	SHIELD	WEB	11	[0, 0, 0]	-999	PAL1	0	R1028M
1417.411	1.0	906726	START	n/a	n/a	-999	-999	n/a	n/a	n/a	n/a	11	[-999, -999, -999]	-999	PAL1	0	R1028M
1418.411	0.017	907226	MATH_START	n/a	n/a	-999	-999	n/a	n/a	n/a	n/a	11	[0, 0, 0]	-999	PAL1	0	R1028M
1418.428	3.434	907234	PROB	3409.0	n/a	-999	-999	n/a	n/a	n/a	n/a	11	[1, 1, 5]	7	PAL1	0	R1028M
1421.862	4.868	908951	PROB	4838.0	n/a	-999	-999	n/a	n/a	n/a	n/a	11	[2, 4, 9]	15	PAL1	0	R1028M
1426.73	4.35	911385	PROB	4331.0	n/a	-999	-999	n/a	n/a	n/a	n/a	11	[5, 1, 3]	9	PAL1	0	R1028M
1431.08	3.701	913559	PROB	3669.0	n/a	-999	-999	n/a	n/a	n/a	n/a	11	[1, 2, 5]	8	PAL1	0	R1028M
1434.781	7.264	915410	PROB	7264.0	n/a	-999	-999	n/a	n/a	n/a	n/a	11	[5, 8, 4]	17	PAL1	0	R1028M
1442.045	0.004	919041	STOP	n/a	n/a	-999	-999	n/a	n/a	n/a	n/a	11	[-999, -999, -999]	-999	PAL1	0	R1028M
1442.049	0.0	919043	MATH_END	n/a	n/a	-999	-999	n/a	n/a	n/a	n/a	11	[0, 0, 0]	-999	PAL1	0	R1028M
1442.049	0.017	919043	TEST_START	n/a	n/a	-999	-999	n/a	n/a	n/a	n/a	11	[0, 0, 0]	-999	PAL1	0	R1028M
1442.066	0.275	919052	TEST_ORIENT	n/a	n/a	1	1	FLEA	HAT	FLEA	HAT	11	[0, 0, 0]	-999	PAL1	0	R1028M
1442.983	4.0	919510	TEST_PROBE	n/a	wordpools/wordpool_EN.txt	1	1	FLEA	HAT	FLEA	HAT	11	[0, 0, 0]	-999	PAL1	0	R1028M
1442.983	0.879	919510	REC_START	n/a	n/a	1	-999	n/a	HAT	n/a	n/a	11	[0, 0, 0]	-999	PAL1	0	R1028M
1443.862	4.138	919950	REC_EVENT	879.0	n/a	1	1	FLEA	HAT	FLEA	HAT	11	[0, 0, 0]	-999	PAL1	0	R1028M
1448.0	0.017	922019	REC_END	n/a	n/a	1	-999	n/a	n/a	n/a	n/a	11	[0, 0, 0]	-999	PAL1	0	R1028M
1448.017	0.275	922027	TEST_ORIENT	n/a	n/a	4	2	SALT	EAR	SALT	EAR	11	[0, 0, 0]	-999	PAL1	0	R1028M
1449.017	4.0	922527	TEST_PROBE	n/a	wordpools/wordpool_EN.txt	4	2	SALT	EAR	SALT	EAR	11	[0, 0, 0]	-999	PAL1	0	R1028M
1449.018	1.054	922527	REC_START	n/a	n/a	4	-999	n/a	EAR	n/a	n/a	11	[0, 0, 0]	-999	PAL1	0	R1028M
1450.072	3.953	923054	REC_EVENT	1054.0	n/a	4	2	SALT	EAR	SALT	EAR	11	[0, 0, 0]	-999	PAL1	0	R1028M
1454.025	0.01	925031	REC_END	n/a	n/a	4	-999	n/a	n/a	n/a	n/a	11	[0, 0, 0]	-999	PAL1	0	R1028M
1454.035	0.275	925036	TEST_ORIENT	n/a	n/a	5	3	FILM	HOOK	FILM	HOOK	11	[0, 0, 0]	-999	PAL1	0	R1028M
1455.052	4.0	925544	TEST_PROBE	n/a	wordpools/wordpool_EN.txt	5	3	FILM	HOOK	FILM	HOOK	11	[0, 0, 0]	-999	PAL1	0	R1028M
1455.052	1.373	925544	REC_START	n/a	n/a	5	-999	n/a	HOOK	n/a	n/a	11	[0, 0, 0]	-999	PAL1	0	R1028M
1456.425	3.644	926231	REC_EVENT	1373.0	n/a	5	3	FILM	HOOK	FILM	HOOK	11	[0, 0, 0]	-999	PAL1	0	R1028M
1460.069	0.017	928052	REC_END	n/a	n/a	5	-999	n/a	n/a	n/a	n/a	11	[0, 0, 0]	-999	PAL1	0	R1028M
1460.086	0.275	928061	TEST_ORIENT	n/a	n/a	6	4	SHIELD	n/a	SHIELD	WEB	11	[0, 0, 0]	-999	PAL1	0	R1028M
1461.086	4.0	928561	TEST_PROBE	n/a	wordpools/wordpool_EN.txt	6	4	SHIELD	n/a	SHIELD	WEB	11	[0, 0, 0]	-999	PAL1	0	R1028M
1461.087	4.959	928561	REC_START	n/a	n/a	6	-999	n/a	n/a	n/a	n/a	11	[0, 0, 0]	-999	PAL1	0	R1028M
1466.046	0.048	931041	REC_EVENT	4959.0	n/a	6	4	SHIELD	<>	SHIELD	WEB	11	[0, 0, 0]	-999	PAL1	0	R1028M
1466.094	0.01	931065	REC_END	n/a	n/a	6	-999	n/a	n/a	n/a	n/a	11	[0, 0, 0]	-999	PAL1	0	R1028M
1466.104	0.275	931070	TEST_ORIENT	n/a	n/a	3	5	CORD	n/a	CORD	GUARD	11	[0, 0, 0]	-999	PAL1	0	R1028M
1466.988	4.0	931512	TEST_PROBE	n/a	wordpools/wordpool_EN.txt	3	5	CORD	n/a	CORD	GUARD	11	[0, 0, 0]	-999	PAL1	0	R1028M
1466.988	3.515	931512	REC_START	n/a	n/a	3	-999	n/a	n/a	n/a	n/a	11	[0, 0, 0]	-999	PAL1	0	R1028M
1470.503	1.502	933269	REC_EVENT	3515.0	n/a	3	5	CORD	<>	CORD	GUARD	11	[0, 0, 0]	-999	PAL1	0	R1028M
1472.005	0.017	934020	REC_END	n/a	n/a	3	-999	n/a	n/a	n/a	n/a	11	[0, 0, 0]	-999	PAL1	0	R1028M
1472.022	0.275	934028	TEST_ORIENT	n/a	n/a	2	6	SQUARE	CROWN	CROWN	SQUARE	11	[0, 0, 0]	-999	PAL1	0	R1028M
1472.922	4.0	934478	TEST_PROBE	n/a	wordpools/wordpool_EN.txt	2	6	SQUARE	CROWN	CROWN	SQUARE	11	[0, 0, 0]	-999	PAL1	0	R1028M
1472.923	1.134	934479	REC_START	n/a	n/a	2	-999	n/a	CROWN	n/a	n/a	11	[0, 0, 0]	-999	PAL1	0	R1028M
1474.057	3.873	935046	REC_EVENT	1134.0	n/a	2	6	SQUARE	CROWN	CROWN	SQUARE	11	[0, 0, 0]	-999	PAL1	0	R1028M
1477.93	23.683	936982	REC_END	n/a	n/a	2	-999	n/a	n/a	n/a	n/a	11	[0, 0, 0]	-999	PAL1	0	R1028M
1501.613	10.45	948822	ENCODING_START	n/a	n/a	0	-999	n/a	n/a	n/a	n/a	12	[0, 0, 0]	-999	PAL1	0	R1028M
1512.063	0.275	954047	STUDY_ORIENT	n/a	n/a	1	1	PIPE	GLASS	PIPE	GLASS	12	[0, 0, 0]	-999	PAL1	0	R1028M
1512.947	4.0	954489	STUDY_PAIR	n/a	wordpools/wordpool_EN.txt	1	1	PIPE	GLASS	PIPE	GLASS	12	[0, 0, 0]	-999	PAL1	0	R1028M
1517.981	0.275	957005	STUDY_ORIENT	n/a	n/a	2	6	MUG	BAND	MUG	BAND	12	[0, 0, 0]	-999	PAL1	0	R1028M
1518.865	4.0	957447	STUDY_PAIR	n/a	wordpools/wordpool_EN.txt	2	6	MUG	BAND	MUG	BAND	12	[0, 0, 0]	-999	PAL1	0	R1028M
1523.899	0.275	959964	STUDY_ORIENT	n/a	n/a	3	5	CALF	PLATE	PLATE	CALF	12	[0, 0, 0]	-999	PAL1	0	R1028M
1524.883	4.0	960456	STUDY_PAIR	n/a	wordpools/wordpool_EN.txt	3	5	CALF	PLATE	PLATE	CALF	12	[0, 0, 0]	-999	PAL1	0	R1028M
1529.917	0.275	962973	STUDY_ORIENT	n/a	n/a	4	2	STICK	TRAIN	STICK	TRAIN	12	[0, 0, 0]	-999	PAL1	0	R1028M
1530.934	4.0	963481	STUDY_PAIR	n/a	wordpools/wordpool_EN.txt	4	2	STICK	TRAIN	STICK	TRAIN	12	[0, 0, 0]	-999	PAL1	0	R1028M
1535.968	0.275	965998	STUDY_ORIENT	n/a	n/a	5	3	PANTS	SPONGE	PANTS	SPONGE	12	[0, 0, 0]	-999	PAL1	0	R1028M
1536.785	4.0	966406	STUDY_PAIR	n/a	wordpools/wordpool_EN.txt	5	3	PANTS	SPONGE	PANTS	SPONGE	12	[0, 0, 0]	-999	PAL1	0	R1028M
1541.819	0.275	968923	STUDY_ORIENT	n/a	n/a	6	4	VINE	SINK	SINK	VINE	12	[0, 0, 0]	-999	PAL1	0	R1028M
1542.836	4.0	969432	STUDY_PAIR	n/a	wordpools/wordpool_EN.txt	6	4	VINE	SINK	SINK	VINE	12	[0, 0, 0]	-999	PAL1	0	R1028M
1546.837	1.0	971432	START	n/a	n/a	-999	-999	n/a	n/a	n/a	n/a	12	[-999, -999, -999]	-999	PAL1	0	R1028M
1547.837	0.017	971932	MATH_START	n/a	n/a	-999	-999	n/a	n/a	n/a	n/a	12	[0, 0, 0]	-999	PAL1	0	R1028M
1547.854	5.234	971940	PROB	5215.0	n/a	-999	-999	n/a	n/a	n/a	n/a	12	[6, 8, 6]	20	PAL1	0	R1028M
1553.088	7.118	974557	PROB	7085.0	n/a	-999	-999	n/a	n/a	n/a	n/a	12	[8, 5, 2]	15	PAL1	0	R1028M
1560.206	4.868	978116	PROB	4839.0	n/a	-999	-999	n/a	n/a	n/a	n/a	12	[8, 4, 7]	19	PAL1	0	R1028M
1565.074	6.539	980550	PROB	6539.0	n/a	-999	-999	n/a	n/a	n/a	n/a	12	[6, 7, 2]	21	PAL1	0	R1028M
1571.613	0.012	983819	STOP	n/a	n/a	-999	-999	n/a	n/a	n/a	n/a	12	[-999, -999, -999]	-999	PAL1	0	R1028M
1571.625	0.0	983825	MATH_END	n/a	n/a	-999	-999	n/a	n/a	n/a	n/a	12	[0, 0, 0]	-999	PAL1	0	R1028M
1571.625	0.017	983825	TEST_START	n/a	n/a	-999	-999	n/a	n/a	n/a	n/a	12	[0, 0, 0]	-999	PAL1	0	R1028M
1571.642	0.275	983833	TEST_ORIENT	n/a	n/a	1	1	PIPE	GLASS	PIPE	GLASS	12	[0, 0, 0]	-999	PAL1	0	R1028M
1572.592	4.0	984308	TEST_PROBE	n/a	wordpools/wordpool_EN.txt	1	1	PIPE	GLASS	PIPE	GLASS	12	[0, 0, 0]	-999	PAL1	0	R1028M
1572.592	1.381	984308	REC_START	n/a	n/a	1	-999	n/a	GLASS	n/a	n/a	12	[0, 0, 0]	-999	PAL1	0	R1028M
1573.973	3.637	984999	REC_EVENT	1381.0	n/a	1	1	PIPE	GLASS	PIPE	GLASS	12	[0, 0, 0]	-999	PAL1	0	R1028M
1577.61	0.016	986817	REC_END	n/a	n/a	1	-999	n/a	n/a	n/a	n/a	12	[0, 0, 0]	-999	PAL1	0	R1028M
1577.626	0.275	986825	TEST_ORIENT	n/a	n/a	4	2	STICK	TRAIN	STICK	TRAIN	12	[0, 0, 0]	-999	PAL1	0	R1028M
1578.51	4.0	987267	TEST_PROBE	n/a	wordpools/wordpool_EN.txt	4	2	STICK	TRAIN	STICK	TRAIN	12	[0, 0, 0]	-999	PAL1	0	R1028M
1578.51	1.434	987267	REC_START	n/a	n/a	4	-999	n/a	TRAIN	n/a	n/a	12	[0, 0, 0]	-999	PAL1	0	R1028M
1579.944	3.583	987984	REC_EVENT	1434.0	n/a	4	2	STICK	TRAIN	STICK	TRAIN	12	[0, 0, 0]	-999	PAL1	0	R1028M
1583.527	0.017	989775	REC_END	n/a	n/a	4	-999	n/a	n/a	n/a	n/a	12	[0, 0, 0]	-999	PAL1	0	R1028M
1583.544	0.275	989784	TEST_ORIENT	n/a	n/a	5	3	PANTS	SPONGE	PANTS	SPONGE	12	[0, 0, 0]	-999	PAL1	0	R1028M
1584.461	4.0	990242	TEST_PROBE	n/a	wordpools/wordpool_EN.txt	5	3	PANTS	SPONGE	PANTS	SPONGE	12	[0, 0, 0]	-999	PAL1	0	R1028M
1584.462	1.109	990243	REC_START	n/a	n/a	5	-999	n/a	SPONGE	n/a	n/a	12	[0, 0, 0]	-999	PAL1	0	R1028M
1585.571	3.899	990797	REC_EVENT	1109.0	n/a	5	3	PANTS	SPONGE	PANTS	SPONGE	12	[0, 0, 0]	-999	PAL1	0	R1028M
1589.47	0.009	992746	REC_END	n/a	n/a	5	-999	n/a	n/a	n/a	n/a	12	[0, 0, 0]	-999	PAL1	0	R1028M
1589.479	0.275	992751	TEST_ORIENT	n/a	n/a	6	4	VINE	SINK	SINK	VINE	12	[0, 0, 0]	-999	PAL1	0	R1028M
1590.296	4.0	993159	TEST_PROBE	n/a	wordpools/wordpool_EN.txt	6	4	VINE	SINK	SINK	VINE	12	[0, 0, 0]	-999	PAL1	0	R1028M
1590.296	1.018	993159	REC_START	n/a	n/a	6	-999	n/a	SINK	n/a	n/a	12	[0, 0, 0]	-999	PAL1	0	R1028M
1591.314	3.999	993668	REC_EVENT	1018.0	n/a	6	4	VINE	SINK	SINK	VINE	12	[0, 0, 0]	-999	PAL1	0	R1028M
1595.313	0.017	995668	REC_END	n/a	n/a	6	-999	n/a	n/a	n/a	n/a	12	[0, 0, 0]	-999	PAL1	0	R1028M
1595.33	0.275	995676	TEST_ORIENT	n/a	n/a	3	5	CALF	PLATE	PLATE	CALF	12	[0, 0, 0]	-999	PAL1	0	R1028M
1596.33	4.0	996176	TEST_PROBE	n/a	wordpools/wordpool_EN.txt	3	5	CALF	PLATE	PLATE	CALF	12	[0, 0, 0]	-999	PAL1	0	R1028M
1596.331	1.205	996176	REC_START	n/a	n/a	3	-999	n/a	PLATE	n/a	n/a	12	[0, 0, 0]	-999	PAL1	0	R1028M
1597.536	3.804	996779	REC_EVENT	1205.0	n/a	3	5	CALF	PLATE	PLATE	CALF	12	[0, 0, 0]	-999	PAL1	0	R1028M
1601.34	0.008	998681	REC_END	n/a	n/a	3	-999	n/a	n/a	n/a	n/a	12	[0, 0, 0]	-999	PAL1	0	R1028M
1601.348	0.275	998685	TEST_ORIENT	n/a	n/a	2	6	MUG	BAND	MUG	BAND	12	[0, 0, 0]	-999	PAL1	0	R1028M
1602.248	4.0	999135	TEST_PROBE	n/a	wordpools/wordpool_EN.txt	2	6	MUG	BAND	MUG	BAND	12	[0, 0, 0]	-999	PAL1	0	R1028M
1602.248	1.594	999135	REC_START	n/a	n/a	2	-999	n/a	BAND	n/a	n/a	12	[0, 0, 0]	-999	PAL1	0	R1028M
1603.842	3.423	999932	REC_EVENT	1594.0	n/a	2	6	MUG	BAND	MUG	BAND	12	[0, 0, 0]	-999	PAL1	0	R1028M
1607.265	6.172	1001643	REC_END	n/a	n/a	2	-999	n/a	n/a	n/a	n/a	12	[0, 0, 0]	-999	PAL1	0	R1028M
1613.437	10.449	1004729	ENCODING_START	n/a	n/a	0	-999	n/a	n/a	n/a	n/a	13	[0, 0, 0]	-999	PAL1	0	R1028M
1623.886	0.275	1009953	STUDY_ORIENT	n/a	n/a	1	5	STEM	MUD	MUD	STEM	13	[0, 0, 0]	-999	PAL1	0	R1028M
1624.819	4.0	1010419	STUDY_PAIR	n/a	wordpools/wordpool_EN.txt	1	5	STEM	MUD	MUD	STEM	13	[0, 0, 0]	-999	PAL1	0	R1028M
1629.837	0.275	1012928	STUDY_ORIENT	n/a	n/a	2	2	BOARD	BAG	BAG	BOARD	13	[0, 0, 0]	-999	PAL1	0	R1028M
1630.637	4.0	1013328	STUDY_PAIR	n/a	wordpools/wordpool_EN.txt	2	2	BOARD	BAG	BAG	BOARD	13	[0, 0, 0]	-999	PAL1	0	R1028M
1635.671	0.275	1015844	STUDY_ORIENT	n/a	n/a	3	1	SPEAR	CANE	CANE	SPEAR	13	[0, 0, 0]	-999	PAL1	0	R1028M
1636.605	4.0	1016311	STUDY_PAIR	n/a	wordpools/wordpool_EN.txt	3	1	SPEAR	CANE	CANE	SPEAR	13	[0, 0, 0]	-999	PAL1	0	R1028M
1641.639	0.275	1018828	STUDY_ORIENT	n/a	n/a	4	4	ROCK	STEM	BRANCH	ROCK	13	[0, 0, 0]	-999	PAL1	0	R1028M
1642.423	4.0	1019220	STUDY_PAIR	n/a	wordpools/wordpool_EN.txt	4	4	ROCK	STEM	BRANCH	ROCK	13	[0, 0, 0]	-999	PAL1	0	R1028M
1647.457	0.275	1021737	STUDY_ORIENT	n/a	n/a	5	3	SIGN	SNOW	SIGN	SNOW	13	[0, 0, 0]	-999	PAL1	0	R1028M
1648.29	4.0	1022153	STUDY_PAIR	n/a	wordpools/wordpool_EN.txt	5	3	SIGN	SNOW	SIGN	SNOW	13	[0, 0, 0]	-999	PAL1	0	R1028M
1653.308	0.275	1024662	STUDY_ORIENT	n/a	n/a	6	6	ROOM	PEN	PEN	ROOM	13	[0, 0, 0]	-999	PAL1	0	R1028M
1654.108	4.0	1025062	STUDY_PAIR	n/a	wordpools/wordpool_EN.txt	6	6	ROOM	PEN	PEN	ROOM	13	[0, 0, 0]	-999	PAL1	0	R1028M
1658.109	1.0	1027062	START	n/a	n/a	-999	-999	n/a	n/a	n/a	n/a	13	[-999, -999, -999]	-999	PAL1	0	R1028M
1659.109	0.017	1027562	MATH_START	n/a	n/a	-999	-999	n/a	n/a	n/a	n/a	13	[0, 0, 0]	-999	PAL1	0	R1028M
1659.126	3.951	1027571	PROB	3927.0	n/a	-999	-999	n/a	n/a	n/a	n/a	13	[4, 6, 3]	13	PAL1	0	R1028M
1663.077	6.151	1029546	PROB	6128.0	n/a	-999	-999	n/a	n/a	n/a	n/a	13	[9, 7, 4]	20	PAL1	0	R1028M
1669.228	6.951	1032621	PROB	6921.0	n/a	-999	-999	n/a	n/a	n/a	n/a	13	[8, 9, 4]	20	PAL1	0	R1028M
1676.179	6.186	1036096	PROB	6186.0	n/a	-999	-999	n/a	n/a	n/a	n/a	13	[5, 7, 5]	17	PAL1	0	R1028M
1682.365	0.016	1039189	STOP	n/a	n/a	-999	-999	n/a	n/a	n/a	n/a	13	[-999, -999, -999]	-999	PAL1	0	R1028M
1682.381	0.0	1039197	MATH_END	n/a	n/a	-999	-999	n/a	n/a	n/a	n/a	13	[0, 0, 0]	-999	PAL1	0	R1028M
1682.381	0.016	1039197	TEST_START	n/a	n/a	-999	-999	n/a	n/a	n/a	n/a	13	[0, 0, 0]	-999	PAL1	0	R1028M
1682.397	0.275	1039205	TEST_ORIENT	n/a	n/a	3	1	SPEAR	CANE	CANE	SPEAR	13	[0, 0, 0]	-999	PAL1	0	R1028M
1683.414	4.0	1039714	TEST_PROBE	n/a	wordpools/wordpool_EN.txt	3	1	SPEAR	CANE	CANE	SPEAR	13	[0, 0, 0]	-999	PAL1	0	R1028M
1683.415	2.309	1039714	REC_START	n/a	n/a	3	-999	n/a	CANE	n/a	n/a	13	[0, 0, 0]	-999	PAL1	0	R1028M
1685.724	2.699	1040868	REC_EVENT	2309.0	n/a	3	1	SPEAR	CANE	CANE	SPEAR	13	[0, 0, 0]	-999	PAL1	0	R1028M
1688.423	0.009	1042218	REC_END	n/a	n/a	3	-999	n/a	n/a	n/a	n/a	13	[0, 0, 0]	-999	PAL1	0	R1028M
1688.432	0.275	1042222	TEST_ORIENT	n/a	n/a	2	2	BOARD	BAG	BAG	BOARD	13	[0, 0, 0]	-999	PAL1	0	R1028M
1689.232	4.0	1042622	TEST_PROBE	n/a	wordpools/wordpool_EN.txt	2	2	BOARD	BAG	BAG	BOARD	13	[0, 0, 0]	-999	PAL1	0	R1028M
1689.232	1.407	1042622	REC_START	n/a	n/a	2	-999	n/a	BAG	n/a	n/a	13	[0, 0, 0]	-999	PAL1	0	R1028M
1690.639	3.61	1043326	REC_EVENT	1407.0	n/a	2	2	BOARD	BAG	BAG	BOARD	13	[0, 0, 0]	-999	PAL1	0	R1028M
1694.249	0.017	1045130	REC_END	n/a	n/a	2	-999	n/a	n/a	n/a	n/a	13	[0, 0, 0]	-999	PAL1	0	R1028M
1694.266	0.275	1045139	TEST_ORIENT	n/a	n/a	5	3	SIGN	SNOW	SIGN	SNOW	13	[0, 0, 0]	-999	PAL1	0	R1028M
1695.183	4.0	1045597	TEST_PROBE	n/a	wordpools/wordpool_EN.txt	5	3	SIGN	SNOW	SIGN	SNOW	13	[0, 0, 0]	-999	PAL1	0	R1028M
1695.184	0.946	1045598	REC_START	n/a	n/a	5	-999	n/a	SNOW	n/a	n/a	13	[0, 0, 0]	-999	PAL1	0	R1028M
1696.13	4.054	1046071	REC_EVENT	946.0	n/a	5	3	SIGN	SNOW	SIGN	SNOW	13	[0, 0, 0]	-999	PAL1	0	R1028M
1700.184	0.017	1048098	REC_END	n/a	n/a	5	-999	n/a	n/a	n/a	n/a	13	[0, 0, 0]	-999	PAL1	0	R1028M
1700.201	0.275	1048106	TEST_ORIENT	n/a	n/a	4	4	ROCK	STEM	BRANCH	ROCK	13	[0, 0, 0]	-999	PAL1	0	R1028M
1701.067	4.0	1048539	TEST_PROBE	n/a	wordpools/wordpool_EN.txt	4	4	ROCK	STEM	BRANCH	ROCK	13	[0, 0, 0]	-999	PAL1	0	R1028M
1701.068	2.043	1048540	REC_START	n/a	n/a	4	-999	n/a	STEM	n/a	n/a	13	[0, 0, 0]	-999	PAL1	0	R1028M
1703.111	2.957	1049561	REC_EVENT	2043.0	n/a	4	4	ROCK	STEM	BRANCH	ROCK	13	[0, 0, 0]	-999	PAL1	0	R1028M
1706.068	0.017	1051039	REC_END	n/a	n/a	4	-999	n/a	n/a	n/a	n/a	13	[0, 0, 0]	-999	PAL1	0	R1028M
1706.085	0.275	1051048	TEST_ORIENT	n/a	n/a	1	5	STEM	MUD	MUD	STEM	13	[0, 0, 0]	-999	PAL1	0	R1028M
1706.919	4.0	1051465	TEST_PROBE	n/a	wordpools/wordpool_EN.txt	1	5	STEM	MUD	MUD	STEM	13	[0, 0, 0]	-999	PAL1	0	R1028M
1706.919	1.111	1051465	REC_START	n/a	n/a	1	-999	n/a	MUD	n/a	n/a	13	[0, 0, 0]	-999	PAL1	0	R1028M
1708.03	3.906	1052020	REC_EVENT	1111.0	n/a	1	5	STEM	MUD	MUD	STEM	13	[0, 0, 0]	-999	PAL1	0	R1028M
1711.936	0.017	1053973	REC_END	n/a	n/a	1	-999	n/a	n/a	n/a	n/a	13	[0, 0, 0]	-999	PAL1	0	R1028M
1711.953	0.275	1053982	TEST_ORIENT	n/a	n/a	6	6	ROOM	PEN	PEN	ROOM	13	[0, 0, 0]	-999	PAL1	0	R1028M
1712.753	4.0	1054382	TEST_PROBE	n/a	wordpools/wordpool_EN.txt	6	6	ROOM	PEN	PEN	ROOM	13	[0, 0, 0]	-999	PAL1	0	R1028M
1712.754	1.039	1054382	REC_START	n/a	n/a	6	-999	n/a	PEN	n/a	n/a	13	[0, 0, 0]	-999	PAL1	0	R1028M
1713.793	3.961	1054901	REC_EVENT	1039.0	n/a	6	6	ROOM	PEN	PEN	ROOM	13	[0, 0, 0]	-999	PAL1	0	R1028M
1717.754	9.587	1056882	REC_END	n/a	n/a	6	-999	n/a	n/a	n/a	n/a	13	[0, 0, 0]	-999	PAL1	0	R1028M
1727.341	10.451	1061675	ENCODING_START	n/a	n/a	0	-999	n/a	n/a	n/a	n/a	14	[0, 0, 0]	-999	PAL1	0	R1028M
1737.792	0.275	1066900	STUDY_ORIENT	n/a	n/a	1	5	MOUTH	BROOM	BROOM	MOUTH	14	[0, 0, 0]	-999	PAL1	0	R1028M
1738.759	4.0	1067383	STUDY_PAIR	n/a	wordpools/wordpool_EN.txt	1	5	MOUTH	BROOM	BROOM	MOUTH	14	[0, 0, 0]	-999	PAL1	0	R1028M
1743.793	0.275	1069900	STUDY_ORIENT	n/a	n/a	2	2	DEER	WING	WING	DEER	14	[0, 0, 0]	-999	PAL1	0	R1028M
1744.576	4.0	1070291	STUDY_PAIR	n/a	wordpools/wordpool_EN.txt	2	2	DEER	WING	WING	DEER	14	[0, 0, 0]	-999	PAL1	0	R1028M
1749.594	0.275	1072800	STUDY_ORIENT	n/a	n/a	3	1	APE	FROG	APE	FROG	14	[0, 0, 0]	-999	PAL1	0	R1028M
1750.378	4.0	1073192	STUDY_PAIR	n/a	wordpools/wordpool_EN.txt	3	1	APE	FROG	APE	FROG	14	[0, 0, 0]	-999	PAL1	0	R1028M
1755.412	0.275	1075709	STUDY_ORIENT	n/a	n/a	4	4	FLOOR	ROOT	ROOT	FLOOR	14	[0, 0, 0]	-999	PAL1	0	R1028M
1756.379	4.0	1076192	STUDY_PAIR	n/a	wordpools/wordpool_EN.txt	4	4	FLOOR	ROOT	ROOT	FLOOR	14	[0, 0, 0]	-999	PAL1	0	R1028M
1761.413	0.275	1078709	STUDY_ORIENT	n/a	n/a	5	3	BOOT	VAN	VAN	BOOT	14	[0, 0, 0]	-999	PAL1	0	R1028M
1762.28	4.0	1079142	STUDY_PAIR	n/a	wordpools/wordpool_EN.txt	5	3	BOOT	VAN	VAN	BOOT	14	[0, 0, 0]	-999	PAL1	0	R1028M
1767.314	0.275	1081659	STUDY_ORIENT	n/a	n/a	6	6	CLOUD	n/a	CLOUD	LAKE	14	[0, 0, 0]	-999	PAL1	0	R1028M
1768.214	4.0	1082109	STUDY_PAIR	n/a	wordpools/wordpool_EN.txt	6	6	CLOUD	n/a	CLOUD	LAKE	14	[0, 0, 0]	-999	PAL1	0	R1028M
1772.215	1.0	1084109	START	n/a	n/a	-999	-999	n/a	n/a	n/a	n/a	14	[-999, -999, -999]	-999	PAL1	0	R1028M
1773.215	0.017	1084609	MATH_START	n/a	n/a	-999	-999	n/a	n/a	n/a	n/a	14	[0, 0, 0]	-999	PAL1	0	R1028M
1773.232	3.767	1084618	PROB	3733.0	n/a	-999	-999	n/a	n/a	n/a	n/a	14	[6, 1, 2]	9	PAL1	0	R1028M
1776.999	3.951	1086501	PROB	3918.0	n/a	-999	-999	n/a	n/a	n/a	n/a	14	[5, 1, 9]	15	PAL1	0	R1028M
1780.95	4.001	1088477	PROB	3967.0	n/a	-999	-999	n/a	n/a	n/a	n/a	14	[2, 5, 3]	10	PAL1	0	R1028M
1784.951	5.501	1090477	PROB	5470.0	n/a	-999	-999	n/a	n/a	n/a	n/a	14	[3, 7, 6]	16	PAL1	0	R1028M
1790.452	4.873	1093227	PROB	4873.0	n/a	-999	-999	n/a	n/a	n/a	n/a	14	[8, 4, 3]	15	PAL1	0	R1028M
1795.325	0.012	1095663	STOP	n/a	n/a	-999	-999	n/a	n/a	n/a	n/a	14	[-999, -999, -999]	-999	PAL1	0	R1028M
1795.337	0.0	1095669	MATH_END	n/a	n/a	-999	-999	n/a	n/a	n/a	n/a	14	[0, 0, 0]	-999	PAL1	0	R1028M
1795.337	0.016	1095669	TEST_START	n/a	n/a	-999	-999	n/a	n/a	n/a	n/a	14	[0, 0, 0]	-999	PAL1	0	R1028M
1795.353	0.275	1095677	TEST_ORIENT	n/a	n/a	3	1	APE	FROG	APE	FROG	14	[0, 0, 0]	-999	PAL1	0	R1028M
1796.203	4.0	1096102	TEST_PROBE	n/a	wordpools/wordpool_EN.txt	3	1	APE	FROG	APE	FROG	14	[0, 0, 0]	-999	PAL1	0	R1028M
1796.204	1.772	1096103	REC_START	n/a	n/a	3	-999	n/a	FROG	n/a	n/a	14	[0, 0, 0]	-999	PAL1	0	R1028M
1797.976	3.236	1096989	REC_EVENT	1772.0	n/a	3	1	APE	FROG	APE	FROG	14	[0, 0, 0]	-999	PAL1	0	R1028M
1801.212	0.009	1098607	REC_END	n/a	n/a	3	-999	n/a	n/a	n/a	n/a	14	[0, 0, 0]	-999	PAL1	0	R1028M
1801.221	0.275	1098611	TEST_ORIENT	n/a	n/a	2	2	DEER	WING	WING	DEER	14	[0, 0, 0]	-999	PAL1	0	R1028M
1802.271	4.0	1099136	TEST_PROBE	n/a	wordpools/wordpool_EN.txt	2	2	DEER	WING	WING	DEER	14	[0, 0, 0]	-999	PAL1	0	R1028M
1802.272	1.477	1099136	REC_START	n/a	n/a	2	-999	n/a	WING	n/a	n/a	14	[0, 0, 0]	-999	PAL1	0	R1028M
1803.749	3.531	1099875	REC_EVENT	1477.0	n/a	2	2	DEER	WING	WING	DEER	14	[0, 0, 0]	-999	PAL1	0	R1028M
1807.28	0.009	1101640	REC_END	n/a	n/a	2	-999	n/a	n/a	n/a	n/a	14	[0, 0, 0]	-999	PAL1	0	R1028M
1807.289	0.275	1101645	TEST_ORIENT	n/a	n/a	5	3	BOOT	VAN	VAN	BOOT	14	[0, 0, 0]	-999	PAL1	0	R1028M
1808.206	4.0	1102103	TEST_PROBE	n/a	wordpools/wordpool_EN.txt	5	3	BOOT	VAN	VAN	BOOT	14	[0, 0, 0]	-999	PAL1	0	R1028M
1808.206	1.111	1102103	REC_START	n/a	n/a	5	-999	n/a	VAN	n/a	n/a	14	[0, 0, 0]	-999	PAL1	0	R1028M
1809.317	3.906	1102659	REC_EVENT	1111.0	n/a	5	3	BOOT	VAN	VAN	BOOT	14	[0, 0, 0]	-999	PAL1	0	R1028M
1813.223	0.017	1104611	REC_END	n/a	n/a	5	-999	n/a	n/a	n/a	n/a	14	[0, 0, 0]	-999	PAL1	0	R1028M
1813.24	0.275	1104620	TEST_ORIENT	n/a	n/a	4	4	FLOOR	ROOT	ROOT	FLOOR	14	[0, 0, 0]	-999	PAL1	0	R1028M
1814.157	4.0	1105078	TEST_PROBE	n/a	wordpools/wordpool_EN.txt	4	4	FLOOR	ROOT	ROOT	FLOOR	14	[0, 0, 0]	-999	PAL1	0	R1028M
1814.157	2.367	1105078	REC_START	n/a	n/a	4	-999	n/a	ROOT	n/a	n/a	14	[0, 0, 0]	-999	PAL1	0	R1028M
1816.524	2.65	1106262	REC_EVENT	2367.0	n/a	4	4	FLOOR	ROOT	ROOT	FLOOR	14	[0, 0, 0]	-999	PAL1	0	R1028M
1819.174	0.017	1107587	REC_END	n/a	n/a	4	-999	n/a	n/a	n/a	n/a	14	[0, 0, 0]	-999	PAL1	0	R1028M
1819.191	0.275	1107595	TEST_ORIENT	n/a	n/a	1	5	MOUTH	BROOM	BROOM	MOUTH	14	[0, 0, 0]	-999	PAL1	0	R1028M
1820.158	4.0	1108079	TEST_PROBE	n/a	wordpools/wordpool_EN.txt	1	5	MOUTH	BROOM	BROOM	MOUTH	14	[0, 0, 0]	-999	PAL1	0	R1028M
1820.159	4.974	1108079	REC_START	n/a	n/a	1	-999	n/a	BROOM	n/a	n/a	14	[0, 0, 0]	-999	PAL1	0	R1028M
1825.133	0.034	1110566	REC_EVENT	4974.0	n/a	1	5	MOUTH	BROOM	BROOM	MOUTH	14	[0, 0, 0]	-999	PAL1	0	R1028M
1825.167	0.009	1110583	REC_END	n/a	n/a	1	-999	n/a	n/a	n/a	n/a	14	[0, 0, 0]	-999	PAL1	0	R1028M
1825.176	0.275	1110587	TEST_ORIENT	n/a	n/a	6	6	CLOUD	n/a	CLOUD	LAKE	14	[0, 0, 0]	-999	PAL1	0	R1028M
1826.093	4.0	1111046	TEST_PROBE	n/a	wordpools/wordpool_EN.txt	6	6	CLOUD	n/a	CLOUD	LAKE	14	[0, 0, 0]	-999	PAL1	0	R1028M
1826.093	4.965	1111046	REC_START	n/a	n/a	6	-999	n/a	n/a	n/a	n/a	14	[0, 0, 0]	-999	PAL1	0	R1028M
1831.058	0.052	1113528	REC_EVENT	4965.0	n/a	6	6	CLOUD	<>	CLOUD	LAKE	14	[0, 0, 0]	-999	PAL1	0	R1028M
1831.11	405.151	1113554	REC_END	n/a	n/a	6	-999	n/a	n/a	n/a	n/a	14	[0, 0, 0]	-999	PAL1	0	R1028M
2236.261	10.449	1316109	ENCODING_START	n/a	n/a	0	-999	n/a	n/a	n/a	n/a	15	[0, 0, 0]	-999	PAL1	0	R1028M
2246.71	0.275	1321333	STUDY_ORIENT	n/a	n/a	1	3	VEST	SLEEVE	VEST	SLEEVE	15	[0, 0, 0]	-999	PAL1	0	R1028M
2247.61	4.0	1321783	STUDY_PAIR	n/a	wordpools/wordpool_EN.txt	1	3	VEST	SLEEVE	VEST	SLEEVE	15	[0, 0, 0]	-999	PAL1	0	R1028M
2252.628	0.275	1324291	STUDY_ORIENT	n/a	n/a	2	4	SPARK	SUIT	SUIT	SPARK	15	[0, 0, 0]	-999	PAL1	0	R1028M
2253.528	4.0	1324741	STUDY_PAIR	n/a	wordpools/wordpool_EN.txt	2	4	SPARK	SUIT	SUIT	SPARK	15	[0, 0, 0]	-999	PAL1	0	R1028M
2258.562	0.275	1327258	STUDY_ORIENT	n/a	n/a	3	5	SUN	BAT	BAT	SUN	15	[0, 0, 0]	-999	PAL1	0	R1028M
2259.579	4.0	1327767	STUDY_PAIR	n/a	wordpools/wordpool_EN.txt	3	5	SUN	BAT	BAT	SUN	15	[0, 0, 0]	-999	PAL1	0	R1028M
2264.597	0.275	1330275	STUDY_ORIENT	n/a	n/a	4	6	ROSE	TRAY	TRAY	ROSE	15	[0, 0, 0]	-999	PAL1	0	R1028M
2265.43	4.0	1330692	STUDY_PAIR	n/a	wordpools/wordpool_EN.txt	4	6	ROSE	TRAY	TRAY	ROSE	15	[0, 0, 0]	-999	PAL1	0	R1028M
2270.448	0.275	1333201	STUDY_ORIENT	n/a	n/a	5	1	GLOVE	BRIDGE	GLOVE	BRIDGE	15	[0, 0, 0]	-999	PAL1	0	R1028M
2271.465	4.0	1333709	STUDY_PAIR	n/a	wordpools/wordpool_EN.txt	5	1	GLOVE	BRIDGE	GLOVE	BRIDGE	15	[0, 0, 0]	-999	PAL1	0	R1028M
2276.499	0.275	1336226	STUDY_ORIENT	n/a	n/a	6	2	CAPE	MOOSE	MOOSE	CAPE	15	[0, 0, 0]	-999	PAL1	0	R1028M
2277.499	4.0	1336726	STUDY_PAIR	n/a	wordpools/wordpool_EN.txt	6	2	CAPE	MOOSE	MOOSE	CAPE	15	[0, 0, 0]	-999	PAL1	0	R1028M
2281.5	1.0	1338726	START	n/a	n/a	-999	-999	n/a	n/a	n/a	n/a	15	[-999, -999, -999]	-999	PAL1	0	R1028M
2282.5	0.017	1339226	MATH_START	n/a	n/a	-999	-999	n/a	n/a	n/a	n/a	15	[0, 0, 0]	-999	PAL1	0	R1028M
2282.517	6.268	1339234	PROB	6248.0	n/a	-999	-999	n/a	n/a	n/a	n/a	15	[4, 8, 6]	18	PAL1	0	R1028M
2288.785	3.417	1342368	PROB	3388.0	n/a	-999	-999	n/a	n/a	n/a	n/a	15	[9, 9, 1]	19	PAL1	0	R1028M
2292.202	4.301	1344076	PROB	4267.0	n/a	-999	-999	n/a	n/a	n/a	n/a	15	[8, 4, 1]	13	PAL1	0	R1028M
2296.503	6.094	1346227	PROB	6094.0	n/a	-999	-999	n/a	n/a	n/a	n/a	15	[7, 4, 1]	12	PAL1	0	R1028M
2302.597	0.008	1349273	STOP	n/a	n/a	-999	-999	n/a	n/a	n/a	n/a	15	[-999, -999, -999]	-999	PAL1	0	R1028M
2302.605	0.0	1349277	MATH_END	n/a	n/a	-999	-999	n/a	n/a	n/a	n/a	15	[0, 0, 0]	-999	PAL1	0	R1028M
2302.605	0.016	1349277	TEST_START	n/a	n/a	-999	-999	n/a	n/a	n/a	n/a	15	[0, 0, 0]	-999	PAL1	0	R1028M
2302.621	0.275	1349285	TEST_ORIENT	n/a	n/a	5	1	GLOVE	BRIDGE	GLOVE	BRIDGE	15	[0, 0, 0]	-999	PAL1	0	R1028M
2303.638	4.0	1349794	TEST_PROBE	n/a	wordpools/wordpool_EN.txt	5	1	GLOVE	BRIDGE	GLOVE	BRIDGE	15	[0, 0, 0]	-999	PAL1	0	R1028M
2303.639	1.278	1349794	REC_START	n/a	n/a	5	-999	n/a	BRIDGE	n/a	n/a	15	[0, 0, 0]	-999	PAL1	0	R1028M
2304.917	3.738	1350433	REC_EVENT	1278.0	n/a	5	1	GLOVE	BRIDGE	GLOVE	BRIDGE	15	[0, 0, 0]	-999	PAL1	0	R1028M
2308.655	0.017	1352302	REC_END	n/a	n/a	5	-999	n/a	n/a	n/a	n/a	15	[0, 0, 0]	-999	PAL1	0	R1028M
2308.672	0.275	1352311	TEST_ORIENT	n/a	n/a	6	2	CAPE	MOOSE	MOOSE	CAPE	15	[0, 0, 0]	-999	PAL1	0	R1028M
2309.573	4.0	1352761	TEST_PROBE	n/a	wordpools/wordpool_EN.txt	6	2	CAPE	MOOSE	MOOSE	CAPE	15	[0, 0, 0]	-999	PAL1	0	R1028M
2309.573	1.07	1352761	REC_START	n/a	n/a	6	-999	n/a	MOOSE	n/a	n/a	15	[0, 0, 0]	-999	PAL1	0	R1028M
2310.643	3.947	1353296	REC_EVENT	1070.0	n/a	6	2	CAPE	MOOSE	MOOSE	CAPE	15	[0, 0, 0]	-999	PAL1	0	R1028M
2314.59	0.017	1355269	REC_END	n/a	n/a	6	-999	n/a	n/a	n/a	n/a	15	[0, 0, 0]	-999	PAL1	0	R1028M
2314.607	0.275	1355278	TEST_ORIENT	n/a	n/a	1	3	VEST	SLEEVE	VEST	SLEEVE	15	[0, 0, 0]	-999	PAL1	0	R1028M
2315.474	0.0	1355711	REC_START	n/a	n/a	1	-999	n/a	SLEEVE	n/a	n/a	15	[0, 0, 0]	-999	PAL1	0	R1028M
2315.474	4.0	1355711	TEST_PROBE	n/a	wordpools/wordpool_EN.txt	1	3	VEST	SLEEVE	VEST	SLEEVE	15	[0, 0, 0]	-999	PAL1	0	R1028M
2316.406	4.093	1356177	REC_EVENT	932.0	n/a	1	3	VEST	SLEEVE	VEST	SLEEVE	15	[0, 0, 0]	-999	PAL1	0	R1028M
2320.499	0.009	1358224	REC_END	n/a	n/a	1	-999	n/a	n/a	n/a	n/a	15	[0, 0, 0]	-999	PAL1	0	R1028M
2320.508	0.275	1358228	TEST_ORIENT	n/a	n/a	2	4	SPARK	SUIT	SUIT	SPARK	15	[0, 0, 0]	-999	PAL1	0	R1028M
2321.358	4.0	1358653	TEST_PROBE	n/a	wordpools/wordpool_EN.txt	2	4	SPARK	SUIT	SUIT	SPARK	15	[0, 0, 0]	-999	PAL1	0	R1028M
2321.359	1.79	1358653	REC_START	n/a	n/a	2	-999	n/a	SUIT	n/a	n/a	15	[0, 0, 0]	-999	PAL1	0	R1028M
2323.149	3.218	1359548	REC_EVENT	1790.0	n/a	2	4	SPARK	SUIT	SUIT	SPARK	15	[0, 0, 0]	-999	PAL1	0	R1028M
2326.367	0.009	1361157	REC_END	n/a	n/a	2	-999	n/a	n/a	n/a	n/a	15	[0, 0, 0]	-999	PAL1	0	R1028M
2326.376	0.275	1361162	TEST_ORIENT	n/a	n/a	3	5	SUN	BAT	BAT	SUN	15	[0, 0, 0]	-999	PAL1	0	R1028M
2327.226	0.0	1361587	REC_START	n/a	n/a	3	-999	n/a	BAT	n/a	n/a	15	[0, 0, 0]	-999	PAL1	0	R1028M
2327.226	4.0	1361587	TEST_PROBE	n/a	wordpools/wordpool_EN.txt	3	5	SUN	BAT	BAT	SUN	15	[0, 0, 0]	-999	PAL1	0	R1028M
2328.376	3.868	1362162	REC_EVENT	1150.0	n/a	3	5	SUN	BAT	BAT	SUN	15	[0, 0, 0]	-999	PAL1	0	R1028M
2332.244	0.016	1364095	REC_END	n/a	n/a	3	-999	n/a	n/a	n/a	n/a	15	[0, 0, 0]	-999	PAL1	0	R1028M
2332.26	0.275	1364103	TEST_ORIENT	n/a	n/a	4	6	ROSE	TRAY	TRAY	ROSE	15	[0, 0, 0]	-999	PAL1	0	R1028M
2333.094	4.0	1364520	TEST_PROBE	n/a	wordpools/wordpool_EN.txt	4	6	ROSE	TRAY	TRAY	ROSE	15	[0, 0, 0]	-999	PAL1	0	R1028M
2333.094	1.05	1364520	REC_START	n/a	n/a	4	-999	n/a	TRAY	n/a	n/a	15	[0, 0, 0]	-999	PAL1	0	R1028M
2334.144	3.967	1365045	REC_EVENT	1050.0	n/a	4	6	ROSE	TRAY	TRAY	ROSE	15	[0, 0, 0]	-999	PAL1	0	R1028M
2338.111	3.054	1367029	REC_END	n/a	n/a	4	-999	n/a	n/a	n/a	n/a	15	[0, 0, 0]	-999	PAL1	0	R1028M
2341.165	10.449	1368555	ENCODING_START	n/a	n/a	0	-999	n/a	n/a	n/a	n/a	16	[0, 0, 0]	-999	PAL1	0	R1028M
2351.614	0.275	1373779	STUDY_ORIENT	n/a	n/a	1	5	HORN	LAND	HORN	LAND	16	[0, 0, 0]	-999	PAL1	0	R1028M
2352.398	4.0	1374171	STUDY_PAIR	n/a	wordpools/wordpool_EN.txt	1	5	HORN	LAND	HORN	LAND	16	[0, 0, 0]	-999	PAL1	0	R1028M
2357.432	0.275	1376688	STUDY_ORIENT	n/a	n/a	2	6	FAN	WAVE	FAN	WAVE	16	[0, 0, 0]	-999	PAL1	0	R1028M
2358.349	4.0	1377147	STUDY_PAIR	n/a	wordpools/wordpool_EN.txt	2	6	FAN	WAVE	FAN	WAVE	16	[0, 0, 0]	-999	PAL1	0	R1028M
2363.383	0.275	1379663	STUDY_ORIENT	n/a	n/a	3	1	TOAST	TEA	TEA	TOAST	16	[0, 0, 0]	-999	PAL1	0	R1028M
2364.383	4.0	1380163	STUDY_PAIR	n/a	wordpools/wordpool_EN.txt	3	1	TOAST	TEA	TEA	TOAST	16	[0, 0, 0]	-999	PAL1	0	R1028M
2369.401	0.275	1382672	STUDY_ORIENT	n/a	n/a	4	4	OAR	FENCE	OAR	FENCE	16	[0, 0, 0]	-999	PAL1	0	R1028M
2370.218	4.0	1383080	STUDY_PAIR	n/a	wordpools/wordpool_EN.txt	4	4	OAR	FENCE	OAR	FENCE	16	[0, 0, 0]	-999	PAL1	0	R1028M
2375.252	0.275	1385597	STUDY_ORIENT	n/a	n/a	5	3	PIG	HOSE	PIG	HOSE	16	[0, 0, 0]	-999	PAL1	0	R1028M
2376.069	4.0	1386006	STUDY_PAIR	n/a	wordpools/wordpool_EN.txt	5	3	PIG	HOSE	PIG	HOSE	16	[0, 0, 0]	-999	PAL1	0	R1028M
2381.087	0.275	1388514	STUDY_ORIENT	n/a	n/a	6	2	BRICK	CASH	CASH	BRICK	16	[0, 0, 0]	-999	PAL1	0	R1028M
2382.004	4.0	1388973	STUDY_PAIR	n/a	wordpools/wordpool_EN.txt	6	2	BRICK	CASH	CASH	BRICK	16	[0, 0, 0]	-999	PAL1	0	R1028M
2386.021	1.0	1390981	START	n/a	n/a	-999	-999	n/a	n/a	n/a	n/a	16	[-999, -999, -999]	-999	PAL1	0	R1028M
2387.021	0.017	1391481	MATH_START	n/a	n/a	-999	-999	n/a	n/a	n/a	n/a	16	[0, 0, 0]	-999	PAL1	0	R1028M
2387.038	7.251	1391490	PROB	7231.0	n/a	-999	-999	n/a	n/a	n/a	n/a	16	[6, 8, 3]	17	PAL1	0	R1028M
2394.289	4.135	1395115	PROB	4100.0	n/a	-999	-999	n/a	n/a	n/a	n/a	16	[1, 5, 1]	7	PAL1	0	R1028M
2398.424	4.801	1397182	PROB	4781.0	n/a	-999	-999	n/a	n/a	n/a	n/a	16	[9, 5, 7]	21	PAL1	0	R1028M
2403.225	3.42	1399582	PROB	3420.0	n/a	-999	-999	n/a	n/a	n/a	n/a	16	[7, 4, 6]	17	PAL1	0	R1028M
2406.645	0.014	1401292	STOP	n/a	n/a	-999	-999	n/a	n/a	n/a	n/a	16	[-999, -999, -999]	-999	PAL1	0	R1028M
2406.659	0.0	1401299	MATH_END	n/a	n/a	-999	-999	n/a	n/a	n/a	n/a	16	[0, 0, 0]	-999	PAL1	0	R1028M
2406.659	0.016	1401299	TEST_START	n/a	n/a	-999	-999	n/a	n/a	n/a	n/a	16	[0, 0, 0]	-999	PAL1	0	R1028M
2406.675	0.275	1401307	TEST_ORIENT	n/a	n/a	3	1	TOAST	TEA	TEA	TOAST	16	[0, 0, 0]	-999	PAL1	0	R1028M
2407.708	4.0	1401824	TEST_PROBE	n/a	wordpools/wordpool_EN.txt	3	1	TOAST	TEA	TEA	TOAST	16	[0, 0, 0]	-999	PAL1	0	R1028M
2407.708	1.308	1401824	REC_START	n/a	n/a	3	-999	n/a	TEA	n/a	n/a	16	[0, 0, 0]	-999	PAL1	0	R1028M
2409.016	3.71	1402478	REC_EVENT	1308.0	n/a	3	1	TOAST	TEA	TEA	TOAST	16	[0, 0, 0]	-999	PAL1	0	R1028M
2412.726	0.017	1404332	REC_END	n/a	n/a	3	-999	n/a	n/a	n/a	n/a	16	[0, 0, 0]	-999	PAL1	0	R1028M
2412.743	0.275	1404341	TEST_ORIENT	n/a	n/a	6	2	BRICK	CASH	CASH	BRICK	16	[0, 0, 0]	-999	PAL1	0	R1028M
2413.743	4.0	1404841	TEST_PROBE	n/a	wordpools/wordpool_EN.txt	6	2	BRICK	CASH	CASH	BRICK	16	[0, 0, 0]	-999	PAL1	0	R1028M
2413.744	1.011	1404841	REC_START	n/a	n/a	6	-999	n/a	CASH	n/a	n/a	16	[0, 0, 0]	-999	PAL1	0	R1028M
2414.755	3.997	1405347	REC_EVENT	1011.0	n/a	6	2	BRICK	CASH	CASH	BRICK	16	[0, 0, 0]	-999	PAL1	0	R1028M
2418.752	0.009	1407345	REC_END	n/a	n/a	6	-999	n/a	n/a	n/a	n/a	16	[0, 0, 0]	-999	PAL1	0	R1028M
2418.761	0.275	1407350	TEST_ORIENT	n/a	n/a	5	3	PIG	HOSE	PIG	HOSE	16	[0, 0, 0]	-999	PAL1	0	R1028M
2419.628	0.0	1407783	REC_START	n/a	n/a	5	-999	n/a	HOSE	n/a	n/a	16	[0, 0, 0]	-999	PAL1	0	R1028M
2419.628	4.0	1407783	TEST_PROBE	n/a	wordpools/wordpool_EN.txt	5	3	PIG	HOSE	PIG	HOSE	16	[0, 0, 0]	-999	PAL1	0	R1028M
2420.66	3.985	1408299	REC_EVENT	1032.0	n/a	5	3	PIG	HOSE	PIG	HOSE	16	[0, 0, 0]	-999	PAL1	0	R1028M
2424.645	0.017	1410291	REC_END	n/a	n/a	5	-999	n/a	n/a	n/a	n/a	16	[0, 0, 0]	-999	PAL1	0	R1028M
2424.662	0.275	1410300	TEST_ORIENT	n/a	n/a	4	4	OAR	FENCE	OAR	FENCE	16	[0, 0, 0]	-999	PAL1	0	R1028M
2425.695	4.0	1410816	TEST_PROBE	n/a	wordpools/wordpool_EN.txt	4	4	OAR	FENCE	OAR	FENCE	16	[0, 0, 0]	-999	PAL1	0	R1028M
2425.695	1.114	1410816	REC_START	n/a	n/a	4	-999	n/a	FENCE	n/a	n/a	16	[0, 0, 0]	-999	PAL1	0	R1028M
2426.809	3.904	1411373	REC_EVENT	1114.0	n/a	4	4	OAR	FENCE	OAR	FENCE	16	[0, 0, 0]	-999	PAL1	0	R1028M
2430.713	0.017	1413325	REC_END	n/a	n/a	4	-999	n/a	n/a	n/a	n/a	16	[0, 0, 0]	-999	PAL1	0	R1028M
2430.73	0.275	1413333	TEST_ORIENT	n/a	n/a	1	5	HORN	LAND	HORN	LAND	16	[0, 0, 0]	-999	PAL1	0	R1028M
2431.747	0.0	1413842	REC_START	n/a	n/a	1	-999	n/a	LAND	n/a	n/a	16	[0, 0, 0]	-999	PAL1	0	R1028M
2431.747	4.0	1413842	TEST_PROBE	n/a	wordpools/wordpool_EN.txt	1	5	HORN	LAND	HORN	LAND	16	[0, 0, 0]	-999	PAL1	0	R1028M
2432.915	3.849	1414426	REC_EVENT	1168.0	n/a	1	5	HORN	LAND	HORN	LAND	16	[0, 0, 0]	-999	PAL1	0	R1028M
2436.764	0.017	1416350	REC_END	n/a	n/a	1	-999	n/a	n/a	n/a	n/a	16	[0, 0, 0]	-999	PAL1	0	R1028M
2436.781	0.275	1416359	TEST_ORIENT	n/a	n/a	2	6	FAN	WAVE	FAN	WAVE	16	[0, 0, 0]	-999	PAL1	0	R1028M
2437.648	4.0	1416792	TEST_PROBE	n/a	wordpools/wordpool_EN.txt	2	6	FAN	WAVE	FAN	WAVE	16	[0, 0, 0]	-999	PAL1	0	R1028M
2437.648	1.774	1416792	REC_START	n/a	n/a	2	-999	n/a	WAVE	n/a	n/a	16	[0, 0, 0]	-999	PAL1	0	R1028M
2439.422	3.244	1417679	REC_EVENT	1774.0	n/a	2	6	FAN	WAVE	FAN	WAVE	16	[0, 0, 0]	-999	PAL1	0	R1028M
2442.666	10.835	1419301	REC_END	n/a	n/a	2	-999	n/a	n/a	n/a	n/a	16	[0, 0, 0]	-999	PAL1	0	R1028M
2453.501	10.452	1424718	ENCODING_START	n/a	n/a	0	-999	n/a	n/a	n/a	n/a	17	[0, 0, 0]	-999	PAL1	0	R1028M
2463.953	0.275	1429943	STUDY_ORIENT	n/a	n/a	1	5	STORE	STOOL	STORE	STOOL	17	[0, 0, 0]	-999	PAL1	0	R1028M
2464.804	4.0	1430369	STUDY_PAIR	n/a	wordpools/wordpool_EN.txt	1	5	STORE	STOOL	STORE	STOOL	17	[0, 0, 0]	-999	PAL1	0	R1028M
2469.838	0.275	1432885	STUDY_ORIENT	n/a	n/a	2	6	FOX	DUCK	FOX	DUCK	17	[0, 0, 0]	-999	PAL1	0	R1028M
2470.855	4.0	1433394	STUDY_PAIR	n/a	wordpools/wordpool_EN.txt	2	6	FOX	DUCK	FOX	DUCK	17	[0, 0, 0]	-999	PAL1	0	R1028M
2475.889	0.275	1435911	STUDY_ORIENT	n/a	n/a	3	1	SLIME	BEAK	SLIME	BEAK	17	[0, 0, 0]	-999	PAL1	0	R1028M
2476.773	4.0	1436353	STUDY_PAIR	n/a	wordpools/wordpool_EN.txt	3	1	SLIME	BEAK	SLIME	BEAK	17	[0, 0, 0]	-999	PAL1	0	R1028M
2481.807	0.275	1438869	STUDY_ORIENT	n/a	n/a	4	2	CART	CAT	CAT	CART	17	[0, 0, 0]	-999	PAL1	0	R1028M
2482.706	4.0	1439319	STUDY_PAIR	n/a	wordpools/wordpool_EN.txt	4	2	CART	CAT	CAT	CART	17	[0, 0, 0]	-999	PAL1	0	R1028M
2487.725	0.275	1441828	STUDY_ORIENT	n/a	n/a	5	3	FARM	SKY	FARM	SKY	17	[0, 0, 0]	-999	PAL1	0	R1028M
2488.675	4.0	1442303	STUDY_PAIR	n/a	wordpools/wordpool_EN.txt	5	3	FARM	SKY	FARM	SKY	17	[0, 0, 0]	-999	PAL1	0	R1028M
2493.708	0.275	1444819	STUDY_ORIENT	n/a	n/a	6	4	ELF	SNAIL	ELF	SNAIL	17	[0, 0, 0]	-999	PAL1	0	R1028M
2494.51	4.0	1445220	STUDY_PAIR	n/a	wordpools/wordpool_EN.txt	6	4	ELF	SNAIL	ELF	SNAIL	17	[0, 0, 0]	-999	PAL1	0	R1028M
2498.528	0.999	1447229	START	n/a	n/a	-999	-999	n/a	n/a	n/a	n/a	17	[-999, -999, -999]	-999	PAL1	0	R1028M
2499.527	0.017	1447728	MATH_START	n/a	n/a	-999	-999	n/a	n/a	n/a	n/a	17	[0, 0, 0]	-999	PAL1	0	R1028M
2499.544	5.651	1447737	PROB	5629.0	n/a	-999	-999	n/a	n/a	n/a	n/a	17	[5, 8, 5]	18	PAL1	0	R1028M
2505.195	4.234	1450562	PROB	4210.0	n/a	-999	-999	n/a	n/a	n/a	n/a	17	[8, 2, 1]	11	PAL1	0	R1028M
2509.429	5.418	1452679	PROB	5392.0	n/a	-999	-999	n/a	n/a	n/a	n/a	17	[3, 6, 6]	15	PAL1	0	R1028M
2514.847	4.222	1455388	PROB	4222.0	n/a	-999	-999	n/a	n/a	n/a	n/a	17	[9, 2, 5]	16	PAL1	0	R1028M
2519.069	0.012	1457498	STOP	n/a	n/a	-999	-999	n/a	n/a	n/a	n/a	17	[-999, -999, -999]	-999	PAL1	0	R1028M
2519.081	0.0	1457504	MATH_END	n/a	n/a	-999	-999	n/a	n/a	n/a	n/a	17	[0, 0, 0]	-999	PAL1	0	R1028M
2519.081	0.017	1457504	TEST_START	n/a	n/a	-999	-999	n/a	n/a	n/a	n/a	17	[0, 0, 0]	-999	PAL1	0	R1028M
2519.098	0.275	1457513	TEST_ORIENT	n/a	n/a	3	1	SLIME	BEAK	SLIME	BEAK	17	[0, 0, 0]	-999	PAL1	0	R1028M
2519.998	0.0	1457963	REC_START	n/a	n/a	3	-999	n/a	BEAK	n/a	n/a	17	[0, 0, 0]	-999	PAL1	0	R1028M
2519.998	4.0	1457963	TEST_PROBE	n/a	wordpools/wordpool_EN.txt	3	1	SLIME	BEAK	SLIME	BEAK	17	[0, 0, 0]	-999	PAL1	0	R1028M
2522.961	2.054	1459444	REC_EVENT	2963.0	n/a	3	1	SLIME	BEAK	SLIME	BEAK	17	[0, 0, 0]	-999	PAL1	0	R1028M
2525.015	0.017	1460471	REC_END	n/a	n/a	3	-999	n/a	n/a	n/a	n/a	17	[0, 0, 0]	-999	PAL1	0	R1028M
2525.032	0.275	1460480	TEST_ORIENT	n/a	n/a	4	2	CART	CAT	CAT	CART	17	[0, 0, 0]	-999	PAL1	0	R1028M
2525.932	4.0	1460930	TEST_PROBE	n/a	wordpools/wordpool_EN.txt	4	2	CART	CAT	CAT	CART	17	[0, 0, 0]	-999	PAL1	0	R1028M
2525.933	0.974	1460930	REC_START	n/a	n/a	4	-999	n/a	CAT	n/a	n/a	17	[0, 0, 0]	-999	PAL1	0	R1028M
2526.907	4.026	1461417	REC_EVENT	974.0	n/a	4	2	CART	CAT	CAT	CART	17	[0, 0, 0]	-999	PAL1	0	R1028M
2530.933	0.017	1463430	REC_END	n/a	n/a	4	-999	n/a	n/a	n/a	n/a	17	[0, 0, 0]	-999	PAL1	0	R1028M
2530.95	0.275	1463438	TEST_ORIENT	n/a	n/a	5	3	FARM	SKY	FARM	SKY	17	[0, 0, 0]	-999	PAL1	0	R1028M
2531.8	4.0	1463863	TEST_PROBE	n/a	wordpools/wordpool_EN.txt	5	3	FARM	SKY	FARM	SKY	17	[0, 0, 0]	-999	PAL1	0	R1028M
2531.801	0.96	1463864	REC_START	n/a	n/a	5	-999	n/a	SKY	n/a	n/a	17	[0, 0, 0]	-999	PAL1	0	R1028M
2532.761	4.048	1464344	REC_EVENT	960.0	n/a	5	3	FARM	SKY	FARM	SKY	17	[0, 0, 0]	-999	PAL1	0	R1028M
2536.809	0.009	1466367	REC_END	n/a	n/a	5	-999	n/a	n/a	n/a	n/a	17	[0, 0, 0]	-999	PAL1	0	R1028M
2536.818	0.275	1466372	TEST_ORIENT	n/a	n/a	6	4	ELF	SNAIL	ELF	SNAIL	17	[0, 0, 0]	-999	PAL1	0	R1028M
2537.818	4.0	1466872	TEST_PROBE	n/a	wordpools/wordpool_EN.txt	6	4	ELF	SNAIL	ELF	SNAIL	17	[0, 0, 0]	-999	PAL1	0	R1028M
2537.819	1.287	1466872	REC_START	n/a	n/a	6	-999	n/a	SNAIL	n/a	n/a	17	[0, 0, 0]	-999	PAL1	0	R1028M
2539.106	3.721	1467516	REC_EVENT	1287.0	n/a	6	4	ELF	SNAIL	ELF	SNAIL	17	[0, 0, 0]	-999	PAL1	0	R1028M
2542.827	0.009	1469376	REC_END	n/a	n/a	6	-999	n/a	n/a	n/a	n/a	17	[0, 0, 0]	-999	PAL1	0	R1028M
2542.836	0.275	1469381	TEST_ORIENT	n/a	n/a	1	5	STORE	STOOL	STORE	STOOL	17	[0, 0, 0]	-999	PAL1	0	R1028M
2543.786	4.0	1469856	TEST_PROBE	n/a	wordpools/wordpool_EN.txt	1	5	STORE	STOOL	STORE	STOOL	17	[0, 0, 0]	-999	PAL1	0	R1028M
2543.786	1.762	1469856	REC_START	n/a	n/a	1	-999	n/a	STOOL	n/a	n/a	17	[0, 0, 0]	-999	PAL1	0	R1028M
2545.548	3.255	1470737	REC_EVENT	1762.0	n/a	1	5	STORE	STOOL	STORE	STOOL	17	[0, 0, 0]	-999	PAL1	0	R1028M
2548.803	0.017	1472364	REC_END	n/a	n/a	1	-999	n/a	n/a	n/a	n/a	17	[0, 0, 0]	-999	PAL1	0	R1028M
2548.82	0.275	1472372	TEST_ORIENT	n/a	n/a	2	6	FOX	DUCK	FOX	DUCK	17	[0, 0, 0]	-999	PAL1	0	R1028M
2549.703	4.0	1472814	TEST_PROBE	n/a	wordpools/wordpool_EN.txt	2	6	FOX	DUCK	FOX	DUCK	17	[0, 0, 0]	-999	PAL1	0	R1028M
2549.703	1.165	1472814	REC_START	n/a	n/a	2	-999	n/a	DUCK	n/a	n/a	17	[0, 0, 0]	-999	PAL1	0	R1028M
2550.868	3.853	1473396	REC_EVENT	1165.0	n/a	2	6	FOX	DUCK	FOX	DUCK	17	[0, 0, 0]	-999	PAL1	0	R1028M
2554.721	2.963	1475323	REC_END	n/a	n/a	2	-999	n/a	n/a	n/a	n/a	17	[0, 0, 0]	-999	PAL1	0	R1028M
2557.684	10.44	1476804	ENCODING_START	n/a	n/a	0	-999	n/a	n/a	n/a	n/a	18	[0, 0, 0]	-999	PAL1	0	R1028M
2568.124	0.275	1482023	STUDY_ORIENT	n/a	n/a	1	3	STOVE	BOOK	BOOK	STOVE	18	[0, 0, 0]	-999	PAL1	0	R1028M
2568.974	4.0	1482448	STUDY_PAIR	n/a	wordpools/wordpool_EN.txt	1	3	STOVE	BOOK	BOOK	STOVE	18	[0, 0, 0]	-999	PAL1	0	R1028M
2573.992	0.275	1484957	STUDY_ORIENT	n/a	n/a	2	4	PEARL	PLANT	PEARL	PLANT	18	[0, 0, 0]	-999	PAL1	0	R1028M
2574.825	4.0	1485374	STUDY_PAIR	n/a	wordpools/wordpool_EN.txt	2	4	PEARL	PLANT	PEARL	PLANT	18	[0, 0, 0]	-999	PAL1	0	R1028M
2579.843	0.275	1487882	STUDY_ORIENT	n/a	n/a	3	5	PEA	WAND	WAND	PEA	18	[0, 0, 0]	-999	PAL1	0	R1028M
2580.743	4.0	1488332	STUDY_PAIR	n/a	wordpools/wordpool_EN.txt	3	5	PEA	WAND	WAND	PEA	18	[0, 0, 0]	-999	PAL1	0	R1028M
2585.761	0.275	1490841	STUDY_ORIENT	n/a	n/a	4	2	ROOF	ANT	ANT	ROOF	18	[0, 0, 0]	-999	PAL1	0	R1028M
2586.728	4.0	1491324	STUDY_PAIR	n/a	wordpools/wordpool_EN.txt	4	2	ROOF	ANT	ANT	ROOF	18	[0, 0, 0]	-999	PAL1	0	R1028M
2591.762	0.275	1493841	STUDY_ORIENT	n/a	n/a	5	1	CAR	WEED	WEED	CAR	18	[0, 0, 0]	-999	PAL1	0	R1028M
2592.779	4.0	1494350	STUDY_PAIR	n/a	wordpools/wordpool_EN.txt	5	1	CAR	WEED	WEED	CAR	18	[0, 0, 0]	-999	PAL1	0	R1028M
2597.797	0.275	1496858	STUDY_ORIENT	n/a	n/a	6	6	BED	CORN	CORN	BED	18	[0, 0, 0]	-999	PAL1	0	R1028M
2598.664	4.0	1497292	STUDY_PAIR	n/a	wordpools/wordpool_EN.txt	6	6	BED	CORN	CORN	BED	18	[0, 0, 0]	-999	PAL1	0	R1028M
2602.682	0.999	1499301	START	n/a	n/a	-999	-999	n/a	n/a	n/a	n/a	18	[-999, -999, -999]	-999	PAL1	0	R1028M
2603.681	0.016	1499800	MATH_START	n/a	n/a	-999	-999	n/a	n/a	n/a	n/a	18	[0, 0, 0]	-999	PAL1	0	R1028M
2603.697	4.819	1499808	PROB	4796.0	n/a	-999	-999	n/a	n/a	n/a	n/a	18	[5, 8, 1]	14	PAL1	0	R1028M
2608.516	4.55	1502217	PROB	4521.0	n/a	-999	-999	n/a	n/a	n/a	n/a	18	[4, 3, 9]	16	PAL1	0	R1028M
2613.066	4.551	1504492	PROB	4531.0	n/a	-999	-999	n/a	n/a	n/a	n/a	18	[5, 7, 5]	17	PAL1	0	R1028M
2617.617	2.951	1506767	PROB	2916.0	n/a	-999	-999	n/a	n/a	n/a	n/a	18	[1, 7, 9]	17	PAL1	0	R1028M
2620.568	7.733	1508243	PROB	7733.0	n/a	-999	-999	n/a	n/a	n/a	n/a	18	[6, 2, 9]	17	PAL1	0	R1028M
2628.301	0.019	1512109	STOP	n/a	n/a	-999	-999	n/a	n/a	n/a	n/a	18	[-999, -999, -999]	-999	PAL1	0	R1028M
2628.32	0.0	1512118	MATH_END	n/a	n/a	-999	-999	n/a	n/a	n/a	n/a	18	[0, 0, 0]	-999	PAL1	0	R1028M
2628.32	0.016	1512118	TEST_START	n/a	n/a	-999	-999	n/a	n/a	n/a	n/a	18	[0, 0, 0]	-999	PAL1	0	R1028M
2628.336	0.275	1512126	TEST_ORIENT	n/a	n/a	5	1	CAR	WEED	WEED	CAR	18	[0, 0, 0]	-999	PAL1	0	R1028M
2629.17	4.0	1512543	TEST_PROBE	n/a	wordpools/wordpool_EN.txt	5	1	CAR	WEED	WEED	CAR	18	[0, 0, 0]	-999	PAL1	0	R1028M
2629.17	1.476	1512543	REC_START	n/a	n/a	5	-999	n/a	WEED	n/a	n/a	18	[0, 0, 0]	-999	PAL1	0	R1028M
2630.646	3.541	1513281	REC_EVENT	1476.0	n/a	5	1	CAR	WEED	WEED	CAR	18	[0, 0, 0]	-999	PAL1	0	R1028M
2634.187	0.017	1515052	REC_END	n/a	n/a	5	-999	n/a	n/a	n/a	n/a	18	[0, 0, 0]	-999	PAL1	0	R1028M
2634.204	0.275	1515060	TEST_ORIENT	n/a	n/a	4	2	ROOF	ANT	ANT	ROOF	18	[0, 0, 0]	-999	PAL1	0	R1028M
2635.138	4.0	1515527	TEST_PROBE	n/a	wordpools/wordpool_EN.txt	4	2	ROOF	ANT	ANT	ROOF	18	[0, 0, 0]	-999	PAL1	0	R1028M
2635.138	1.088	1515527	REC_START	n/a	n/a	4	-999	n/a	ANT	n/a	n/a	18	[0, 0, 0]	-999	PAL1	0	R1028M
2636.226	3.929	1516071	REC_EVENT	1088.0	n/a	4	2	ROOF	ANT	ANT	ROOF	18	[0, 0, 0]	-999	PAL1	0	R1028M
2640.155	0.017	1518035	REC_END	n/a	n/a	4	-999	n/a	n/a	n/a	n/a	18	[0, 0, 0]	-999	PAL1	0	R1028M
2640.172	0.275	1518044	TEST_ORIENT	n/a	n/a	1	3	STOVE	BOOK	BOOK	STOVE	18	[0, 0, 0]	-999	PAL1	0	R1028M
2641.105	4.0	1518510	TEST_PROBE	n/a	wordpools/wordpool_EN.txt	1	3	STOVE	BOOK	BOOK	STOVE	18	[0, 0, 0]	-999	PAL1	0	R1028M
2641.106	1.133	1518511	REC_START	n/a	n/a	1	-999	n/a	BOOK	n/a	n/a	18	[0, 0, 0]	-999	PAL1	0	R1028M
2642.239	3.88	1519077	REC_EVENT	1133.0	n/a	1	3	STOVE	BOOK	BOOK	STOVE	18	[0, 0, 0]	-999	PAL1	0	R1028M
2646.119	0.021	1521017	REC_END	n/a	n/a	1	-999	n/a	n/a	n/a	n/a	18	[0, 0, 0]	-999	PAL1	0	R1028M
2646.14	0.275	1521027	TEST_ORIENT	n/a	n/a	2	4	PEARL	PLANT	PEARL	PLANT	18	[0, 0, 0]	-999	PAL1	0	R1028M
2647.09	4.0	1521502	TEST_PROBE	n/a	wordpools/wordpool_EN.txt	2	4	PEARL	PLANT	PEARL	PLANT	18	[0, 0, 0]	-999	PAL1	0	R1028M
2647.09	1.198	1521502	REC_START	n/a	n/a	2	-999	n/a	PLANT	n/a	n/a	18	[0, 0, 0]	-999	PAL1	0	R1028M
2648.288	3.819	1522101	REC_EVENT	1198.0	n/a	2	4	PEARL	PLANT	PEARL	PLANT	18	[0, 0, 0]	-999	PAL1	0	R1028M
2652.107	0.017	1524011	REC_END	n/a	n/a	2	-999	n/a	n/a	n/a	n/a	18	[0, 0, 0]	-999	PAL1	0	R1028M
2652.124	0.275	1524019	TEST_ORIENT	n/a	n/a	3	5	PEA	WAND	WAND	PEA	18	[0, 0, 0]	-999	PAL1	0	R1028M
2653.008	4.0	1524461	TEST_PROBE	n/a	wordpools/wordpool_EN.txt	3	5	PEA	WAND	WAND	PEA	18	[0, 0, 0]	-999	PAL1	0	R1028M
2653.008	1.218	1524461	REC_START	n/a	n/a	3	-999	n/a	WAND	n/a	n/a	18	[0, 0, 0]	-999	PAL1	0	R1028M
2654.226	3.799	1525070	REC_EVENT	1218.0	n/a	3	5	PEA	WAND	WAND	PEA	18	[0, 0, 0]	-999	PAL1	0	R1028M
2658.025	0.017	1526969	REC_END	n/a	n/a	3	-999	n/a	n/a	n/a	n/a	18	[0, 0, 0]	-999	PAL1	0	R1028M
2658.042	0.275	1526978	TEST_ORIENT	n/a	n/a	6	6	BED	CORN	CORN	BED	18	[0, 0, 0]	-999	PAL1	0	R1028M
2658.942	4.0	1527428	TEST_PROBE	n/a	wordpools/wordpool_EN.txt	6	6	BED	CORN	CORN	BED	18	[0, 0, 0]	-999	PAL1	0	R1028M
2658.943	1.0	1527428	REC_START	n/a	n/a	6	-999	n/a	CORN	n/a	n/a	18	[0, 0, 0]	-999	PAL1	0	R1028M
2659.943	1.695	1527928	REC_EVENT	1000.0	n/a	6	6	BED	CORN	CORN	BED	18	[0, 0, 0]	-999	PAL1	0	R1028M
2661.638	2.305	1528776	REC_EVENT	2695.0	n/a	6	6	BED	<>	CORN	BED	18	[0, 0, 0]	-999	PAL1	0	R1028M
2663.943	2.246	1529928	REC_END	n/a	n/a	6	-999	n/a	n/a	n/a	n/a	18	[0, 0, 0]	-999	PAL1	0	R1028M
2666.189	10.44	1531051	ENCODING_START	n/a	n/a	0	-999	n/a	n/a	n/a	n/a	19	[0, 0, 0]	-999	PAL1	0	R1028M
2676.629	0.275	1536270	STUDY_ORIENT	n/a	n/a	1	1	SHRIMP	WOOD	WOOD	SHRIMP	19	[0, 0, 0]	-999	PAL1	0	R1028M
2677.513	4.0	1536712	STUDY_PAIR	n/a	wordpools/wordpool_EN.txt	1	1	SHRIMP	WOOD	WOOD	SHRIMP	19	[0, 0, 0]	-999	PAL1	0	R1028M
2682.547	0.275	1539229	STUDY_ORIENT	n/a	n/a	2	4	INK	STORM	INK	STORM	19	[0, 0, 0]	-999	PAL1	0	R1028M
2683.414	4.0	1539663	STUDY_PAIR	n/a	wordpools/wordpool_EN.txt	2	4	INK	STORM	INK	STORM	19	[0, 0, 0]	-999	PAL1	0	R1028M
2688.448	0.275	1542179	STUDY_ORIENT	n/a	n/a	3	5	CRANE	FRUIT	CRANE	FRUIT	19	[0, 0, 0]	-999	PAL1	0	R1028M
2689.348	4.0	1542629	STUDY_PAIR	n/a	wordpools/wordpool_EN.txt	3	5	CRANE	FRUIT	CRANE	FRUIT	19	[0, 0, 0]	-999	PAL1	0	R1028M
2694.366	0.275	1545138	STUDY_ORIENT	n/a	n/a	4	6	YARD	CHIN	YARD	CHIN	19	[0, 0, 0]	-999	PAL1	0	R1028M
2695.3	4.0	1545605	STUDY_PAIR	n/a	wordpools/wordpool_EN.txt	4	6	YARD	CHIN	YARD	CHIN	19	[0, 0, 0]	-999	PAL1	0	R1028M
2700.334	0.275	1548122	STUDY_ORIENT	n/a	n/a	5	3	CUP	HOOF	CUP	HOOF	19	[0, 0, 0]	-999	PAL1	0	R1028M
2701.317	4.0	1548613	STUDY_PAIR	n/a	wordpools/wordpool_EN.txt	5	3	CUP	HOOF	CUP	HOOF	19	[0, 0, 0]	-999	PAL1	0	R1028M
2706.335	0.275	1551122	STUDY_ORIENT	n/a	n/a	6	2	CLOCK	JUICE	JUICE	CLOCK	19	[0, 0, 0]	-999	PAL1	0	R1028M
2707.302	4.0	1551605	STUDY_PAIR	n/a	wordpools/wordpool_EN.txt	6	2	CLOCK	JUICE	JUICE	CLOCK	19	[0, 0, 0]	-999	PAL1	0	R1028M
2711.32	0.999	1553614	START	n/a	n/a	-999	-999	n/a	n/a	n/a	n/a	19	[-999, -999, -999]	-999	PAL1	0	R1028M
2712.319	0.017	1554114	MATH_START	n/a	n/a	-999	-999	n/a	n/a	n/a	n/a	19	[0, 0, 0]	-999	PAL1	0	R1028M
2712.336	11.936	1554122	PROB	11901.0	n/a	-999	-999	n/a	n/a	n/a	n/a	19	[7, 8, 9]	24	PAL1	0	R1028M
2724.272	6.351	1560089	PROB	6325.0	n/a	-999	-999	n/a	n/a	n/a	n/a	19	[9, 9, 7]	25	PAL1	0	R1028M
2730.623	4.446	1563265	PROB	4446.0	n/a	-999	-999	n/a	n/a	n/a	n/a	19	[4, 1, 2]	7	PAL1	0	R1028M
2735.069	0.005	1565487	STOP	n/a	n/a	-999	-999	n/a	n/a	n/a	n/a	19	[-999, -999, -999]	-999	PAL1	0	R1028M
2735.074	0.0	1565490	TEST_START	n/a	n/a	-999	-999	n/a	n/a	n/a	n/a	19	[0, 0, 0]	-999	PAL1	0	R1028M
2735.074	0.017	1565490	MATH_END	n/a	n/a	-999	-999	n/a	n/a	n/a	n/a	19	[0, 0, 0]	-999	PAL1	0	R1028M
2735.091	0.275	1565498	TEST_ORIENT	n/a	n/a	1	1	SHRIMP	WOOD	WOOD	SHRIMP	19	[0, 0, 0]	-999	PAL1	0	R1028M
2735.991	4.0	1565948	TEST_PROBE	n/a	wordpools/wordpool_EN.txt	1	1	SHRIMP	WOOD	WOOD	SHRIMP	19	[0, 0, 0]	-999	PAL1	0	R1028M
2735.992	1.22	1565949	REC_START	n/a	n/a	1	-999	n/a	WOOD	n/a	n/a	19	[0, 0, 0]	-999	PAL1	0	R1028M
2737.212	3.796	1566559	REC_EVENT	1220.0	n/a	1	1	SHRIMP	WOOD	WOOD	SHRIMP	19	[0, 0, 0]	-999	PAL1	0	R1028M
2741.008	0.018	1568457	REC_END	n/a	n/a	1	-999	n/a	n/a	n/a	n/a	19	[0, 0, 0]	-999	PAL1	0	R1028M
2741.026	0.275	1568466	TEST_ORIENT	n/a	n/a	6	2	CLOCK	JUICE	JUICE	CLOCK	19	[0, 0, 0]	-999	PAL1	0	R1028M
2742.042	4.0	1568974	TEST_PROBE	n/a	wordpools/wordpool_EN.txt	6	2	CLOCK	JUICE	JUICE	CLOCK	19	[0, 0, 0]	-999	PAL1	0	R1028M
2742.042	1.501	1568974	REC_START	n/a	n/a	6	-999	n/a	JUICE	n/a	n/a	19	[0, 0, 0]	-999	PAL1	0	R1028M
2743.543	3.517	1569724	REC_EVENT	1501.0	n/a	6	2	CLOCK	JUICE	JUICE	CLOCK	19	[0, 0, 0]	-999	PAL1	0	R1028M
2747.06	0.017	1571482	REC_END	n/a	n/a	6	-999	n/a	n/a	n/a	n/a	19	[0, 0, 0]	-999	PAL1	0	R1028M
2747.077	0.275	1571491	TEST_ORIENT	n/a	n/a	5	3	CUP	HOOF	CUP	HOOF	19	[0, 0, 0]	-999	PAL1	0	R1028M
2748.01	4.0	1571957	TEST_PROBE	n/a	wordpools/wordpool_EN.txt	5	3	CUP	HOOF	CUP	HOOF	19	[0, 0, 0]	-999	PAL1	0	R1028M
