onset	duration	sample	trial_type	response_time	stim_file	serialpos	probepos	probe_word	resp_word	study_1	study_2	list	test	answer	experiment	session	subject
0.0	339.467	28567	SESS_START	n/a	n/a	-999	-999	n/a	n/a	n/a	n/a	-999	[0, 0, 0]	-999	PAL1	2	R1121M
339.467	10.451	198286	STUDY_START	n/a	n/a	-999	-999	n/a	n/a	n/a	n/a	19	[0, 0, 0]	-999	PAL1	2	R1121M
349.918	0.275	203512	STUDY_ORIENT	n/a	n/a	1	5	BATH	n/a	LIP	BATH	19	[0, 0, 0]	-999	PAL1	2	R1121M
350.719	4.0	203912	STUDY_PAIR	n/a	wordpools/wordpool_EN.txt	1	5	BATH	n/a	LIP	BATH	19	[0, 0, 0]	-999	PAL1	2	R1121M
355.753	0.275	206429	STUDY_ORIENT	n/a	n/a	2	4	GLASS	EEL	EEL	GLASS	19	[0, 0, 0]	-999	PAL1	2	R1121M
356.703	4.0	206904	STUDY_PAIR	n/a	wordpools/wordpool_EN.txt	2	4	GLASS	EEL	EEL	GLASS	19	[0, 0, 0]	-999	PAL1	2	R1121M
361.721	0.275	209413	STUDY_ORIENT	n/a	n/a	3	3	SPONGE	n/a	SPONGE	STOVE	19	[0, 0, 0]	-999	PAL1	2	R1121M
362.721	4.0	209913	STUDY_PAIR	n/a	wordpools/wordpool_EN.txt	3	3	SPONGE	n/a	SPONGE	STOVE	19	[0, 0, 0]	-999	PAL1	2	R1121M
367.755	0.275	212429	STUDY_ORIENT	n/a	n/a	4	6	SHOE	n/a	SHOE	MOLE	19	[0, 0, 0]	-999	PAL1	2	R1121M
368.59	4.0	212847	STUDY_PAIR	n/a	wordpools/wordpool_EN.txt	4	6	SHOE	n/a	SHOE	MOLE	19	[0, 0, 0]	-999	PAL1	2	R1121M
373.624	0.275	215364	STUDY_ORIENT	n/a	n/a	5	1	PARK	SHOE	PARK	STEAK	19	[0, 0, 0]	-999	PAL1	2	R1121M
374.508	4.0	215806	STUDY_PAIR	n/a	wordpools/wordpool_EN.txt	5	1	PARK	SHOE	PARK	STEAK	19	[0, 0, 0]	-999	PAL1	2	R1121M
379.542	0.275	218322	STUDY_ORIENT	n/a	n/a	6	2	OAK	n/a	HOUSE	OAK	19	[0, 0, 0]	-999	PAL1	2	R1121M
380.325	4.0	218714	STUDY_PAIR	n/a	wordpools/wordpool_EN.txt	6	2	OAK	n/a	HOUSE	OAK	19	[0, 0, 0]	-999	PAL1	2	R1121M
384.326	1.0	220714	START	n/a	n/a	-999	-999	n/a	n/a	n/a	n/a	1	[-999, -999, -999]	-999	PAL1	2	R1121M
385.326	0.017	221214	MATH_START	n/a	n/a	-999	-999	n/a	n/a	n/a	n/a	19	[0, 0, 0]	-999	PAL1	2	R1121M
385.343	4.034	221223	PROB	4012.0	n/a	-999	-999	n/a	n/a	n/a	n/a	1	[1, 8, 1]	9	PAL1	2	R1121M
389.377	2.117	223239	PROB	2098.0	n/a	-999	-999	n/a	n/a	n/a	n/a	1	[1, 1, 8]	9	PAL1	2	R1121M
391.494	1.784	224298	PROB	1749.0	n/a	-999	-999	n/a	n/a	n/a	n/a	1	[8, 5, 5]	9	PAL1	2	R1121M
393.278	1.884	225190	PROB	1853.0	n/a	-999	-999	n/a	n/a	n/a	n/a	1	[1, 4, 6]	9	PAL1	2	R1121M
395.162	2.083	226132	PROB	2057.0	n/a	-999	-999	n/a	n/a	n/a	n/a	1	[5, 5, 3]	9	PAL1	2	R1121M
397.245	2.034	227173	PROB	2006.0	n/a	-999	-999	n/a	n/a	n/a	n/a	1	[9, 5, 2]	9	PAL1	2	R1121M
399.279	1.967	228190	PROB	1940.0	n/a	-999	-999	n/a	n/a	n/a	n/a	1	[9, 7, 6]	9	PAL1	2	R1121M
401.246	1.951	229173	PROB	1925.0	n/a	-999	-999	n/a	n/a	n/a	n/a	1	[5, 5, 9]	9	PAL1	2	R1121M
403.197	1.894	230149	PROB	1894.0	n/a	-999	-999	n/a	n/a	n/a	n/a	1	[7, 4, 7]	9	PAL1	2	R1121M
405.091	0.006	231096	STOP	n/a	n/a	-999	-999	n/a	n/a	n/a	n/a	1	[-999, -999, -999]	-999	PAL1	2	R1121M
405.097	0.0	231099	MATH_END	n/a	n/a	-999	-999	n/a	n/a	n/a	n/a	19	[0, 0, 0]	-999	PAL1	2	R1121M
405.097	0.017	231099	TEST_START	n/a	n/a	-999	-999	n/a	n/a	n/a	n/a	19	[0, 0, 0]	-999	PAL1	2	R1121M
405.114	0.275	231107	TEST_ORIENT	n/a	n/a	5	1	PARK	SHOE	PARK	STEAK	19	[0, 0, 0]	-999	PAL1	2	R1121M
406.064	4.0	231582	TEST_PROBE	n/a	wordpools/wordpool_EN.txt	5	1	PARK	SHOE	PARK	STEAK	19	[0, 0, 0]	-999	PAL1	2	R1121M
406.064	3.56	231582	REC_START	n/a	n/a	5	-999	n/a	SHOE	n/a	n/a	19	[0, 0, 0]	-999	PAL1	2	R1121M
409.624	1.457	233362	REC_EVENT	3560.0	n/a	5	1	PARK	SHOE	PARK	STEAK	19	[0, 0, 0]	-999	PAL1	2	R1121M
411.081	0.017	234091	REC_END	n/a	n/a	5	-999	n/a	n/a	n/a	n/a	19	[0, 0, 0]	-999	PAL1	2	R1121M
411.098	0.275	234099	TEST_ORIENT	n/a	n/a	6	2	OAK	n/a	HOUSE	OAK	19	[0, 0, 0]	-999	PAL1	2	R1121M
411.982	4.0	234541	TEST_PROBE	n/a	wordpools/wordpool_EN.txt	6	2	OAK	n/a	HOUSE	OAK	19	[0, 0, 0]	-999	PAL1	2	R1121M
411.982	0.0	234541	REC_START	n/a	n/a	6	-999	n/a	<>	n/a	n/a	19	[0, 0, 0]	-999	PAL1	2	R1121M
411.982	5.017	234541	REC_EVENT	0.0	n/a	6	2	OAK	<>	HOUSE	OAK	19	[0, 0, 0]	-999	PAL1	2	R1121M
416.999	0.017	237049	REC_END	n/a	n/a	6	-999	n/a	n/a	n/a	n/a	19	[0, 0, 0]	-999	PAL1	2	R1121M
417.016	0.275	237058	TEST_ORIENT	n/a	n/a	3	3	SPONGE	n/a	SPONGE	STOVE	19	[0, 0, 0]	-999	PAL1	2	R1121M
417.983	4.0	237541	TEST_PROBE	n/a	wordpools/wordpool_EN.txt	3	3	SPONGE	n/a	SPONGE	STOVE	19	[0, 0, 0]	-999	PAL1	2	R1121M
417.983	0.0	237541	REC_START	n/a	n/a	3	-999	n/a	<>	n/a	n/a	19	[0, 0, 0]	-999	PAL1	2	R1121M
417.983	5.017	237541	REC_EVENT	0.0	n/a	3	3	SPONGE	<>	SPONGE	STOVE	19	[0, 0, 0]	-999	PAL1	2	R1121M
423.0	0.017	240050	REC_END	n/a	n/a	3	-999	n/a	n/a	n/a	n/a	19	[0, 0, 0]	-999	PAL1	2	R1121M
423.017	0.275	240058	TEST_ORIENT	n/a	n/a	2	4	GLASS	EEL	EEL	GLASS	19	[0, 0, 0]	-999	PAL1	2	R1121M
424.034	4.0	240567	TEST_PROBE	n/a	wordpools/wordpool_EN.txt	2	4	GLASS	EEL	EEL	GLASS	19	[0, 0, 0]	-999	PAL1	2	R1121M
424.034	3.072	240567	REC_START	n/a	n/a	2	-999	n/a	EEL	n/a	n/a	19	[0, 0, 0]	-999	PAL1	2	R1121M
427.106	1.946	242102	REC_EVENT	3072.0	n/a	2	4	GLASS	EEL	EEL	GLASS	19	[0, 0, 0]	-999	PAL1	2	R1121M
429.052	0.016	243075	REC_END	n/a	n/a	2	-999	n/a	n/a	n/a	n/a	19	[0, 0, 0]	-999	PAL1	2	R1121M
429.068	0.275	243083	TEST_ORIENT	n/a	n/a	1	5	BATH	n/a	LIP	BATH	19	[0, 0, 0]	-999	PAL1	2	R1121M
430.052	4.0	243575	TEST_PROBE	n/a	wordpools/wordpool_EN.txt	1	5	BATH	n/a	LIP	BATH	19	[0, 0, 0]	-999	PAL1	2	R1121M
430.052	0.0	243575	REC_START	n/a	n/a	1	-999	n/a	<>	n/a	n/a	19	[0, 0, 0]	-999	PAL1	2	R1121M
430.052	5.017	243575	REC_EVENT	0.0	n/a	1	5	BATH	<>	LIP	BATH	19	[0, 0, 0]	-999	PAL1	2	R1121M
435.069	0.017	246084	REC_END	n/a	n/a	1	-999	n/a	n/a	n/a	n/a	19	[0, 0, 0]	-999	PAL1	2	R1121M
435.086	0.275	246092	TEST_ORIENT	n/a	n/a	4	6	SHOE	n/a	SHOE	MOLE	19	[0, 0, 0]	-999	PAL1	2	R1121M
436.036	4.0	246567	TEST_PROBE	n/a	wordpools/wordpool_EN.txt	4	6	SHOE	n/a	SHOE	MOLE	19	[0, 0, 0]	-999	PAL1	2	R1121M
436.037	0.0	246568	REC_START	n/a	n/a	4	-999	n/a	<>	n/a	n/a	19	[0, 0, 0]	-999	PAL1	2	R1121M
436.037	5.008	246568	REC_EVENT	0.0	n/a	4	6	SHOE	<>	SHOE	MOLE	19	[0, 0, 0]	-999	PAL1	2	R1121M
441.045	12.454	249071	REC_END	n/a	n/a	4	-999	n/a	n/a	n/a	n/a	19	[0, 0, 0]	-999	PAL1	2	R1121M
453.499	10.443	255298	STUDY_START	n/a	n/a	-999	-999	n/a	n/a	n/a	n/a	20	[0, 0, 0]	-999	PAL1	2	R1121M
463.942	0.275	260519	STUDY_ORIENT	n/a	n/a	1	5	LOCK	DRUM	DRUM	LOCK	20	[0, 0, 0]	-999	PAL1	2	R1121M
464.741	4.0	260918	STUDY_PAIR	n/a	wordpools/wordpool_EN.txt	1	5	LOCK	DRUM	DRUM	LOCK	20	[0, 0, 0]	-999	PAL1	2	R1121M
469.759	0.275	263427	STUDY_ORIENT	n/a	n/a	2	2	FLOOR	n/a	SLEEVE	FLOOR	20	[0, 0, 0]	-999	PAL1	2	R1121M
470.692	4.0	263894	STUDY_PAIR	n/a	wordpools/wordpool_EN.txt	2	2	FLOOR	n/a	SLEEVE	FLOOR	20	[0, 0, 0]	-999	PAL1	2	R1121M
475.71	0.275	266403	STUDY_ORIENT	n/a	n/a	3	1	PEA	n/a	STICK	PEA	20	[0, 0, 0]	-999	PAL1	2	R1121M
476.495	4.0	266795	STUDY_PAIR	n/a	wordpools/wordpool_EN.txt	3	1	PEA	n/a	STICK	PEA	20	[0, 0, 0]	-999	PAL1	2	R1121M
481.529	0.275	269312	STUDY_ORIENT	n/a	n/a	4	4	APE	n/a	GUARD	APE	20	[0, 0, 0]	-999	PAL1	2	R1121M
482.396	4.0	269745	STUDY_PAIR	n/a	wordpools/wordpool_EN.txt	4	4	APE	n/a	GUARD	APE	20	[0, 0, 0]	-999	PAL1	2	R1121M
487.43	0.275	272262	STUDY_ORIENT	n/a	n/a	5	3	PEN	n/a	SHRIMP	PEN	20	[0, 0, 0]	-999	PAL1	2	R1121M
488.397	4.0	272746	STUDY_PAIR	n/a	wordpools/wordpool_EN.txt	5	3	PEN	n/a	SHRIMP	PEN	20	[0, 0, 0]	-999	PAL1	2	R1121M
493.431	0.275	275262	STUDY_ORIENT	n/a	n/a	6	6	COUCH	n/a	HILL	COUCH	20	[0, 0, 0]	-999	PAL1	2	R1121M
494.365	4.0	275729	STUDY_PAIR	n/a	wordpools/wordpool_EN.txt	6	6	COUCH	n/a	HILL	COUCH	20	[0, 0, 0]	-999	PAL1	2	R1121M
498.383	0.999	277738	START	n/a	n/a	-999	-999	n/a	n/a	n/a	n/a	2	[-999, -999, -999]	-999	PAL1	2	R1121M
499.382	0.017	278238	MATH_START	n/a	n/a	-999	-999	n/a	n/a	n/a	n/a	20	[0, 0, 0]	-999	PAL1	2	R1121M
499.399	4.001	278246	PROB	3980.0	n/a	-999	-999	n/a	n/a	n/a	n/a	2	[4, 7, 1]	9	PAL1	2	R1121M
503.4	1.767	280246	PROB	1739.0	n/a	-999	-999	n/a	n/a	n/a	n/a	2	[8, 6, 6]	9	PAL1	2	R1121M
505.167	1.633	281130	PROB	1611.0	n/a	-999	-999	n/a	n/a	n/a	n/a	2	[1, 7, 6]	9	PAL1	2	R1121M
506.8	1.834	281946	PROB	1803.0	n/a	-999	-999	n/a	n/a	n/a	n/a	2	[4, 6, 2]	9	PAL1	2	R1121M
508.634	1.601	282863	PROB	1577.0	n/a	-999	-999	n/a	n/a	n/a	n/a	2	[9, 6, 7]	9	PAL1	2	R1121M
510.235	1.933	283664	PROB	1912.0	n/a	-999	-999	n/a	n/a	n/a	n/a	2	[7, 3, 5]	9	PAL1	2	R1121M
512.168	1.951	284630	PROB	1923.0	n/a	-999	-999	n/a	n/a	n/a	n/a	2	[7, 4, 8]	9	PAL1	2	R1121M
514.119	1.817	285605	PROB	1795.0	n/a	-999	-999	n/a	n/a	n/a	n/a	2	[6, 8, 7]	9	PAL1	2	R1121M
515.936	1.849	286514	PROB	1826.0	n/a	-999	-999	n/a	n/a	n/a	n/a	2	[3, 2, 6]	9	PAL1	2	R1121M
517.785	1.626	287438	PROB	1626.0	n/a	-999	-999	n/a	n/a	n/a	n/a	2	[2, 5, 8]	9	PAL1	2	R1121M
519.411	0.009	288251	STOP	n/a	n/a	-999	-999	n/a	n/a	n/a	n/a	2	[-999, -999, -999]	-999	PAL1	2	R1121M
519.42	0.0	288256	MATH_END	n/a	n/a	-999	-999	n/a	n/a	n/a	n/a	20	[0, 0, 0]	-999	PAL1	2	R1121M
519.42	0.016	288256	TEST_START	n/a	n/a	-999	-999	n/a	n/a	n/a	n/a	20	[0, 0, 0]	-999	PAL1	2	R1121M
519.436	0.275	288264	TEST_ORIENT	n/a	n/a	3	1	PEA	n/a	STICK	PEA	20	[0, 0, 0]	-999	PAL1	2	R1121M
520.303	4.0	288697	TEST_PROBE	n/a	wordpools/wordpool_EN.txt	3	1	PEA	n/a	STICK	PEA	20	[0, 0, 0]	-999	PAL1	2	R1121M
520.304	0.0	288698	REC_START	n/a	n/a	3	-999	n/a	<>	n/a	n/a	20	[0, 0, 0]	-999	PAL1	2	R1121M
520.304	5.009	288698	REC_EVENT	0.0	n/a	3	1	PEA	<>	STICK	PEA	20	[0, 0, 0]	-999	PAL1	2	R1121M
525.313	0.008	291202	REC_END	n/a	n/a	3	-999	n/a	n/a	n/a	n/a	20	[0, 0, 0]	-999	PAL1	2	R1121M
525.321	0.275	291206	TEST_ORIENT	n/a	n/a	2	2	FLOOR	n/a	SLEEVE	FLOOR	20	[0, 0, 0]	-999	PAL1	2	R1121M
526.288	4.0	291689	TEST_PROBE	n/a	wordpools/wordpool_EN.txt	2	2	FLOOR	n/a	SLEEVE	FLOOR	20	[0, 0, 0]	-999	PAL1	2	R1121M
526.288	0.0	291689	REC_START	n/a	n/a	2	-999	n/a	<>	n/a	n/a	20	[0, 0, 0]	-999	PAL1	2	R1121M
526.288	5.017	291689	REC_EVENT	0.0	n/a	2	2	FLOOR	<>	SLEEVE	FLOOR	20	[0, 0, 0]	-999	PAL1	2	R1121M
531.305	0.017	294198	REC_END	n/a	n/a	2	-999	n/a	n/a	n/a	n/a	20	[0, 0, 0]	-999	PAL1	2	R1121M
531.322	0.275	294206	TEST_ORIENT	n/a	n/a	5	3	PEN	n/a	SHRIMP	PEN	20	[0, 0, 0]	-999	PAL1	2	R1121M
532.306	4.0	294698	TEST_PROBE	n/a	wordpools/wordpool_EN.txt	5	3	PEN	n/a	SHRIMP	PEN	20	[0, 0, 0]	-999	PAL1	2	R1121M
532.306	0.0	294698	REC_START	n/a	n/a	5	-999	n/a	<>	n/a	n/a	20	[0, 0, 0]	-999	PAL1	2	R1121M
532.306	5.017	294698	REC_EVENT	0.0	n/a	5	3	PEN	<>	SHRIMP	PEN	20	[0, 0, 0]	-999	PAL1	2	R1121M
537.323	0.017	297207	REC_END	n/a	n/a	5	-999	n/a	n/a	n/a	n/a	20	[0, 0, 0]	-999	PAL1	2	R1121M
537.34	0.275	297215	TEST_ORIENT	n/a	n/a	4	4	APE	n/a	GUARD	APE	20	[0, 0, 0]	-999	PAL1	2	R1121M
538.223	4.0	297657	TEST_PROBE	n/a	wordpools/wordpool_EN.txt	4	4	APE	n/a	GUARD	APE	20	[0, 0, 0]	-999	PAL1	2	R1121M
538.224	0.0	297657	REC_START	n/a	n/a	4	-999	n/a	<>	n/a	n/a	20	[0, 0, 0]	-999	PAL1	2	R1121M
538.224	5.009	297657	REC_EVENT	0.0	n/a	4	4	APE	<>	GUARD	APE	20	[0, 0, 0]	-999	PAL1	2	R1121M
543.233	0.008	300161	REC_END	n/a	n/a	4	-999	n/a	n/a	n/a	n/a	20	[0, 0, 0]	-999	PAL1	2	R1121M
543.241	0.275	300165	TEST_ORIENT	n/a	n/a	1	5	LOCK	DRUM	DRUM	LOCK	20	[0, 0, 0]	-999	PAL1	2	R1121M
544.141	4.0	300615	TEST_PROBE	n/a	wordpools/wordpool_EN.txt	1	5	LOCK	DRUM	DRUM	LOCK	20	[0, 0, 0]	-999	PAL1	2	R1121M
544.142	1.901	300616	REC_START	n/a	n/a	1	-999	n/a	DRUM	n/a	n/a	20	[0, 0, 0]	-999	PAL1	2	R1121M
546.043	3.108	301566	REC_EVENT	1901.0	n/a	1	5	LOCK	DRUM	DRUM	LOCK	20	[0, 0, 0]	-999	PAL1	2	R1121M
549.151	0.008	303120	REC_END	n/a	n/a	1	-999	n/a	n/a	n/a	n/a	20	[0, 0, 0]	-999	PAL1	2	R1121M
549.159	0.275	303124	TEST_ORIENT	n/a	n/a	6	6	COUCH	n/a	HILL	COUCH	20	[0, 0, 0]	-999	PAL1	2	R1121M
550.026	4.0	303558	TEST_PROBE	n/a	wordpools/wordpool_EN.txt	6	6	COUCH	n/a	HILL	COUCH	20	[0, 0, 0]	-999	PAL1	2	R1121M
550.027	0.0	303558	REC_START	n/a	n/a	6	-999	n/a	<>	n/a	n/a	20	[0, 0, 0]	-999	PAL1	2	R1121M
550.027	5.025	303558	REC_EVENT	0.0	n/a	6	6	COUCH	<>	HILL	COUCH	20	[0, 0, 0]	-999	PAL1	2	R1121M
555.052	14.431	306070	REC_END	n/a	n/a	6	-999	n/a	n/a	n/a	n/a	20	[0, 0, 0]	-999	PAL1	2	R1121M
569.483	10.449	313285	STUDY_START	n/a	n/a	-999	-999	n/a	n/a	n/a	n/a	21	[0, 0, 0]	-999	PAL1	2	R1121M
579.932	0.275	318509	STUDY_ORIENT	n/a	n/a	1	1	BOAT	n/a	DITCH	BOAT	21	[0, 0, 0]	-999	PAL1	2	R1121M
580.914	4.0	319000	STUDY_PAIR	n/a	wordpools/wordpool_EN.txt	1	1	BOAT	n/a	DITCH	BOAT	21	[0, 0, 0]	-999	PAL1	2	R1121M
585.933	0.275	321510	STUDY_ORIENT	n/a	n/a	2	6	SQUARE	n/a	FOOD	SQUARE	21	[0, 0, 0]	-999	PAL1	2	R1121M
586.765	4.0	321926	STUDY_PAIR	n/a	wordpools/wordpool_EN.txt	2	6	SQUARE	n/a	FOOD	SQUARE	21	[0, 0, 0]	-999	PAL1	2	R1121M
591.783	0.275	324434	STUDY_ORIENT	n/a	n/a	3	3	DART	n/a	DART	STAIR	21	[0, 0, 0]	-999	PAL1	2	R1121M
592.7	4.0	324893	STUDY_PAIR	n/a	wordpools/wordpool_EN.txt	3	3	DART	n/a	DART	STAIR	21	[0, 0, 0]	-999	PAL1	2	R1121M
597.734	0.275	327410	STUDY_ORIENT	n/a	n/a	4	2	SMILE	n/a	COW	SMILE	21	[0, 0, 0]	-999	PAL1	2	R1121M
598.668	4.0	327877	STUDY_PAIR	n/a	wordpools/wordpool_EN.txt	4	2	SMILE	n/a	COW	SMILE	21	[0, 0, 0]	-999	PAL1	2	R1121M
603.702	0.275	330393	STUDY_ORIENT	n/a	n/a	5	5	NOSE	n/a	BIRD	NOSE	21	[0, 0, 0]	-999	PAL1	2	R1121M
604.62	4.0	330852	STUDY_PAIR	n/a	wordpools/wordpool_EN.txt	5	5	NOSE	n/a	BIRD	NOSE	21	[0, 0, 0]	-999	PAL1	2	R1121M
609.654	0.275	333369	STUDY_ORIENT	n/a	n/a	6	4	FOAM	SCHOOL	SCHOOL	FOAM	21	[0, 0, 0]	-999	PAL1	2	R1121M
610.604	4.0	333844	STUDY_PAIR	n/a	wordpools/wordpool_EN.txt	6	4	FOAM	SCHOOL	SCHOOL	FOAM	21	[0, 0, 0]	-999	PAL1	2	R1121M
614.605	1.0	335844	START	n/a	n/a	-999	-999	n/a	n/a	n/a	n/a	3	[-999, -999, -999]	-999	PAL1	2	R1121M
615.605	0.017	336344	MATH_START	n/a	n/a	-999	-999	n/a	n/a	n/a	n/a	21	[0, 0, 0]	-999	PAL1	2	R1121M
615.622	4.601	336353	PROB	4581.0	n/a	-999	-999	n/a	n/a	n/a	n/a	3	[7, 8, 1]	9	PAL1	2	R1121M
620.223	1.699	338653	PROB	1667.0	n/a	-999	-999	n/a	n/a	n/a	n/a	3	[3, 6, 4]	9	PAL1	2	R1121M
621.922	1.668	339503	PROB	1641.0	n/a	-999	-999	n/a	n/a	n/a	n/a	3	[1, 8, 8]	9	PAL1	2	R1121M
623.59	1.901	340337	PROB	1877.0	n/a	-999	-999	n/a	n/a	n/a	n/a	3	[1, 6, 2]	9	PAL1	2	R1121M
625.491	2.134	341287	PROB	2112.0	n/a	-999	-999	n/a	n/a	n/a	n/a	3	[9, 8, 4]	9	PAL1	2	R1121M
627.625	1.767	342354	PROB	1746.0	n/a	-999	-999	n/a	n/a	n/a	n/a	3	[1, 9, 9]	9	PAL1	2	R1121M
629.392	1.617	343237	PROB	1587.0	n/a	-999	-999	n/a	n/a	n/a	n/a	3	[2, 5, 4]	9	PAL1	2	R1121M
631.009	1.617	344046	PROB	1594.0	n/a	-999	-999	n/a	n/a	n/a	n/a	3	[2, 1, 3]	9	PAL1	2	R1121M
632.626	1.85	344854	PROB	1825.0	n/a	-999	-999	n/a	n/a	n/a	n/a	3	[4, 1, 2]	9	PAL1	2	R1121M
634.476	1.855	345779	PROB	1855.0	n/a	-999	-999	n/a	n/a	n/a	n/a	3	[3, 3, 6]	9	PAL1	2	R1121M
636.331	0.012	346707	STOP	n/a	n/a	-999	-999	n/a	n/a	n/a	n/a	3	[-999, -999, -999]	-999	PAL1	2	R1121M
636.343	0.0	346713	MATH_END	n/a	n/a	-999	-999	n/a	n/a	n/a	n/a	21	[0, 0, 0]	-999	PAL1	2	R1121M
636.343	0.017	346713	TEST_START	n/a	n/a	-999	-999	n/a	n/a	n/a	n/a	21	[0, 0, 0]	-999	PAL1	2	R1121M
636.36	0.275	346721	TEST_ORIENT	n/a	n/a	1	1	BOAT	n/a	DITCH	BOAT	21	[0, 0, 0]	-999	PAL1	2	R1121M
637.31	4.0	347196	TEST_PROBE	n/a	wordpools/wordpool_EN.txt	1	1	BOAT	n/a	DITCH	BOAT	21	[0, 0, 0]	-999	PAL1	2	R1121M
637.311	0.0	347197	REC_START	n/a	n/a	1	-999	n/a	<>	n/a	n/a	21	[0, 0, 0]	-999	PAL1	2	R1121M
637.311	5.024	347197	REC_EVENT	0.0	n/a	1	1	BOAT	<>	DITCH	BOAT	21	[0, 0, 0]	-999	PAL1	2	R1121M
642.335	0.009	349708	REC_END	n/a	n/a	1	-999	n/a	n/a	n/a	n/a	21	[0, 0, 0]	-999	PAL1	2	R1121M
642.344	0.275	349713	TEST_ORIENT	n/a	n/a	4	2	SMILE	n/a	COW	SMILE	21	[0, 0, 0]	-999	PAL1	2	R1121M
643.294	4.0	350188	TEST_PROBE	n/a	wordpools/wordpool_EN.txt	4	2	SMILE	n/a	COW	SMILE	21	[0, 0, 0]	-999	PAL1	2	R1121M
643.295	0.0	350188	REC_START	n/a	n/a	4	-999	n/a	<>	n/a	n/a	21	[0, 0, 0]	-999	PAL1	2	R1121M
643.295	5.008	350188	REC_EVENT	0.0	n/a	4	2	SMILE	<>	COW	SMILE	21	[0, 0, 0]	-999	PAL1	2	R1121M
648.303	0.009	352692	REC_END	n/a	n/a	4	-999	n/a	n/a	n/a	n/a	21	[0, 0, 0]	-999	PAL1	2	R1121M
648.312	0.275	352697	TEST_ORIENT	n/a	n/a	3	3	DART	n/a	DART	STAIR	21	[0, 0, 0]	-999	PAL1	2	R1121M
649.229	4.0	353155	TEST_PROBE	n/a	wordpools/wordpool_EN.txt	3	3	DART	n/a	DART	STAIR	21	[0, 0, 0]	-999	PAL1	2	R1121M
649.23	0.0	353156	REC_START	n/a	n/a	3	-999	n/a	<>	n/a	n/a	21	[0, 0, 0]	-999	PAL1	2	R1121M
649.23	5.016	353156	REC_EVENT	0.0	n/a	3	3	DART	<>	DART	STAIR	21	[0, 0, 0]	-999	PAL1	2	R1121M
654.246	0.017	355663	REC_END	n/a	n/a	3	-999	n/a	n/a	n/a	n/a	21	[0, 0, 0]	-999	PAL1	2	R1121M
654.263	0.275	355672	TEST_ORIENT	n/a	n/a	6	4	FOAM	SCHOOL	SCHOOL	FOAM	21	[0, 0, 0]	-999	PAL1	2	R1121M
655.113	4.0	356097	TEST_PROBE	n/a	wordpools/wordpool_EN.txt	6	4	FOAM	SCHOOL	SCHOOL	FOAM	21	[0, 0, 0]	-999	PAL1	2	R1121M
655.114	1.886	356097	REC_START	n/a	n/a	6	-999	n/a	SCHOOL	n/a	n/a	21	[0, 0, 0]	-999	PAL1	2	R1121M
657.0	3.114	357040	REC_EVENT	1886.0	n/a	6	4	FOAM	SCHOOL	SCHOOL	FOAM	21	[0, 0, 0]	-999	PAL1	2	R1121M
660.114	0.017	358597	REC_END	n/a	n/a	6	-999	n/a	n/a	n/a	n/a	21	[0, 0, 0]	-999	PAL1	2	R1121M
660.131	0.275	358606	TEST_ORIENT	n/a	n/a	5	5	NOSE	n/a	BIRD	NOSE	21	[0, 0, 0]	-999	PAL1	2	R1121M
661.031	4.0	359056	TEST_PROBE	n/a	wordpools/wordpool_EN.txt	5	5	NOSE	n/a	BIRD	NOSE	21	[0, 0, 0]	-999	PAL1	2	R1121M
661.032	0.0	359056	REC_START	n/a	n/a	5	-999	n/a	<>	n/a	n/a	21	[0, 0, 0]	-999	PAL1	2	R1121M
661.032	5.009	359056	REC_EVENT	0.0	n/a	5	5	NOSE	<>	BIRD	NOSE	21	[0, 0, 0]	-999	PAL1	2	R1121M
666.041	0.008	361560	REC_END	n/a	n/a	5	-999	n/a	n/a	n/a	n/a	21	[0, 0, 0]	-999	PAL1	2	R1121M
666.049	0.275	361564	TEST_ORIENT	n/a	n/a	2	6	SQUARE	n/a	FOOD	SQUARE	21	[0, 0, 0]	-999	PAL1	2	R1121M
667.049	4.0	362064	TEST_PROBE	n/a	wordpools/wordpool_EN.txt	2	6	SQUARE	n/a	FOOD	SQUARE	21	[0, 0, 0]	-999	PAL1	2	R1121M
667.049	0.0	362064	REC_START	n/a	n/a	2	-999	n/a	<>	n/a	n/a	21	[0, 0, 0]	-999	PAL1	2	R1121M
667.049	5.018	362064	REC_EVENT	0.0	n/a	2	6	SQUARE	<>	FOOD	SQUARE	21	[0, 0, 0]	-999	PAL1	2	R1121M
672.067	12.576	364573	REC_END	n/a	n/a	2	-999	n/a	n/a	n/a	n/a	21	[0, 0, 0]	-999	PAL1	2	R1121M
684.643	10.445	370861	STUDY_START	n/a	n/a	-999	-999	n/a	n/a	n/a	n/a	22	[0, 0, 0]	-999	PAL1	2	R1121M
695.088	0.275	376083	STUDY_ORIENT	n/a	n/a	1	1	SKY	EAR	SKY	EAR	22	[0, 0, 0]	-999	PAL1	2	R1121M
695.904	4.0	376491	STUDY_PAIR	n/a	wordpools/wordpool_EN.txt	1	1	SKY	EAR	SKY	EAR	22	[0, 0, 0]	-999	PAL1	2	R1121M
700.939	0.275	379008	STUDY_ORIENT	n/a	n/a	2	6	BRANCH	n/a	SHEET	BRANCH	22	[0, 0, 0]	-999	PAL1	2	R1121M
701.888	4.0	379482	STUDY_PAIR	n/a	wordpools/wordpool_EN.txt	2	6	BRANCH	n/a	SHEET	BRANCH	22	[0, 0, 0]	-999	PAL1	2	R1121M
706.906	0.275	381991	STUDY_ORIENT	n/a	n/a	3	5	ROOT	n/a	ROOT	SEAL	22	[0, 0, 0]	-999	PAL1	2	R1121M
707.84	4.0	382458	STUDY_PAIR	n/a	wordpools/wordpool_EN.txt	3	5	ROOT	n/a	ROOT	SEAL	22	[0, 0, 0]	-999	PAL1	2	R1121M
712.874	0.275	384975	STUDY_ORIENT	n/a	n/a	4	4	CLIFF	n/a	TRASH	CLIFF	22	[0, 0, 0]	-999	PAL1	2	R1121M
713.741	4.0	385408	STUDY_PAIR	n/a	wordpools/wordpool_EN.txt	4	4	CLIFF	n/a	TRASH	CLIFF	22	[0, 0, 0]	-999	PAL1	2	R1121M
718.775	0.275	387925	STUDY_ORIENT	n/a	n/a	5	3	SNAIL	n/a	YARD	SNAIL	22	[0, 0, 0]	-999	PAL1	2	R1121M
719.709	4.0	388392	STUDY_PAIR	n/a	wordpools/wordpool_EN.txt	5	3	SNAIL	n/a	YARD	SNAIL	22	[0, 0, 0]	-999	PAL1	2	R1121M
724.743	0.275	390909	STUDY_ORIENT	n/a	n/a	6	2	BEAK	BEACH	BEAK	BEACH	22	[0, 0, 0]	-999	PAL1	2	R1121M
725.743	4.0	391409	STUDY_PAIR	n/a	wordpools/wordpool_EN.txt	6	2	BEAK	BEACH	BEAK	BEACH	22	[0, 0, 0]	-999	PAL1	2	R1121M
729.745	0.999	393410	START	n/a	n/a	-999	-999	n/a	n/a	n/a	n/a	4	[-999, -999, -999]	-999	PAL1	2	R1121M
730.744	0.017	393909	MATH_START	n/a	n/a	-999	-999	n/a	n/a	n/a	n/a	22	[0, 0, 0]	-999	PAL1	2	R1121M
730.761	4.485	393918	PROB	4450.0	n/a	-999	-999	n/a	n/a	n/a	n/a	4	[2, 9, 8]	9	PAL1	2	R1121M
735.246	2.35	396160	PROB	2317.0	n/a	-999	-999	n/a	n/a	n/a	n/a	4	[8, 6, 8]	9	PAL1	2	R1121M
737.596	1.934	397335	PROB	1903.0	n/a	-999	-999	n/a	n/a	n/a	n/a	4	[2, 4, 9]	9	PAL1	2	R1121M
739.53	1.851	398302	PROB	1825.0	n/a	-999	-999	n/a	n/a	n/a	n/a	4	[6, 8, 1]	9	PAL1	2	R1121M
741.381	2.15	399227	PROB	2118.0	n/a	-999	-999	n/a	n/a	n/a	n/a	4	[9, 3, 6]	9	PAL1	2	R1121M
743.531	2.05	400302	PROB	2024.0	n/a	-999	-999	n/a	n/a	n/a	n/a	4	[9, 7, 9]	9	PAL1	2	R1121M
745.581	1.967	401327	PROB	1934.0	n/a	-999	-999	n/a	n/a	n/a	n/a	4	[1, 9, 5]	9	PAL1	2	R1121M
747.548	2.001	402311	PROB	1975.0	n/a	-999	-999	n/a	n/a	n/a	n/a	4	[2, 6, 8]	9	PAL1	2	R1121M
749.549	2.006	403311	PROB	2006.0	n/a	-999	-999	n/a	n/a	n/a	n/a	4	[2, 6, 7]	9	PAL1	2	R1121M
751.555	0.011	404314	STOP	n/a	n/a	-999	-999	n/a	n/a	n/a	n/a	4	[-999, -999, -999]	-999	PAL1	2	R1121M
751.566	0.0	404319	MATH_END	n/a	n/a	-999	-999	n/a	n/a	n/a	n/a	22	[0, 0, 0]	-999	PAL1	2	R1121M
751.566	0.017	404319	TEST_START	n/a	n/a	-999	-999	n/a	n/a	n/a	n/a	22	[0, 0, 0]	-999	PAL1	2	R1121M
751.583	0.275	404328	TEST_ORIENT	n/a	n/a	1	1	SKY	EAR	SKY	EAR	22	[0, 0, 0]	-999	PAL1	2	R1121M
752.6	4.0	404836	TEST_PROBE	n/a	wordpools/wordpool_EN.txt	1	1	SKY	EAR	SKY	EAR	22	[0, 0, 0]	-999	PAL1	2	R1121M
752.6	1.485	404836	REC_START	n/a	n/a	1	-999	n/a	EAR	n/a	n/a	22	[0, 0, 0]	-999	PAL1	2	R1121M
754.085	3.532	405579	REC_EVENT	1485.0	n/a	1	1	SKY	EAR	SKY	EAR	22	[0, 0, 0]	-999	PAL1	2	R1121M
757.617	0.017	407345	REC_END	n/a	n/a	1	-999	n/a	n/a	n/a	n/a	22	[0, 0, 0]	-999	PAL1	2	R1121M
757.634	0.275	407353	TEST_ORIENT	n/a	n/a	6	2	BEAK	BEACH	BEAK	BEACH	22	[0, 0, 0]	-999	PAL1	2	R1121M
758.617	4.0	407845	TEST_PROBE	n/a	wordpools/wordpool_EN.txt	6	2	BEAK	BEACH	BEAK	BEACH	22	[0, 0, 0]	-999	PAL1	2	R1121M
758.618	3.493	407845	REC_START	n/a	n/a	6	-999	n/a	BEACH	n/a	n/a	22	[0, 0, 0]	-999	PAL1	2	R1121M
762.111	1.516	409592	REC_EVENT	3493.0	n/a	6	2	BEAK	BEACH	BEAK	BEACH	22	[0, 0, 0]	-999	PAL1	2	R1121M
763.627	0.008	410349	REC_END	n/a	n/a	6	-999	n/a	n/a	n/a	n/a	22	[0, 0, 0]	-999	PAL1	2	R1121M
763.635	0.275	410353	TEST_ORIENT	n/a	n/a	5	3	SNAIL	n/a	YARD	SNAIL	22	[0, 0, 0]	-999	PAL1	2	R1121M
764.452	4.0	410762	TEST_PROBE	n/a	wordpools/wordpool_EN.txt	5	3	SNAIL	n/a	YARD	SNAIL	22	[0, 0, 0]	-999	PAL1	2	R1121M
764.452	0.0	410762	REC_START	n/a	n/a	5	-999	n/a	<>	n/a	n/a	22	[0, 0, 0]	-999	PAL1	2	R1121M
764.452	5.017	410762	REC_EVENT	0.0	n/a	5	3	SNAIL	<>	YARD	SNAIL	22	[0, 0, 0]	-999	PAL1	2	R1121M
769.469	0.017	413270	REC_END	n/a	n/a	5	-999	n/a	n/a	n/a	n/a	22	[0, 0, 0]	-999	PAL1	2	R1121M
769.486	0.275	413279	TEST_ORIENT	n/a	n/a	4	4	CLIFF	n/a	TRASH	CLIFF	22	[0, 0, 0]	-999	PAL1	2	R1121M
770.42	4.0	413746	TEST_PROBE	n/a	wordpools/wordpool_EN.txt	4	4	CLIFF	n/a	TRASH	CLIFF	22	[0, 0, 0]	-999	PAL1	2	R1121M
770.42	0.0	413746	REC_START	n/a	n/a	4	-999	n/a	<>	n/a	n/a	22	[0, 0, 0]	-999	PAL1	2	R1121M
770.42	5.026	413746	REC_EVENT	0.0	n/a	4	4	CLIFF	<>	TRASH	CLIFF	22	[0, 0, 0]	-999	PAL1	2	R1121M
775.446	0.008	416259	REC_END	n/a	n/a	4	-999	n/a	n/a	n/a	n/a	22	[0, 0, 0]	-999	PAL1	2	R1121M
775.454	0.275	416262	TEST_ORIENT	n/a	n/a	3	5	ROOT	n/a	ROOT	SEAL	22	[0, 0, 0]	-999	PAL1	2	R1121M
776.454	4.0	416762	TEST_PROBE	n/a	wordpools/wordpool_EN.txt	3	5	ROOT	n/a	ROOT	SEAL	22	[0, 0, 0]	-999	PAL1	2	R1121M
776.455	0.0	416763	REC_START	n/a	n/a	3	-999	n/a	<>	n/a	n/a	22	[0, 0, 0]	-999	PAL1	2	R1121M
776.455	5.009	416763	REC_EVENT	0.0	n/a	3	5	ROOT	<>	ROOT	SEAL	22	[0, 0, 0]	-999	PAL1	2	R1121M
781.464	0.008	419267	REC_END	n/a	n/a	3	-999	n/a	n/a	n/a	n/a	22	[0, 0, 0]	-999	PAL1	2	R1121M
781.472	0.275	419271	TEST_ORIENT	n/a	n/a	2	6	BRANCH	n/a	SHEET	BRANCH	22	[0, 0, 0]	-999	PAL1	2	R1121M
782.355	4.0	419713	TEST_PROBE	n/a	wordpools/wordpool_EN.txt	2	6	BRANCH	n/a	SHEET	BRANCH	22	[0, 0, 0]	-999	PAL1	2	R1121M
782.356	0.0	419713	REC_START	n/a	n/a	2	-999	n/a	<>	n/a	n/a	22	[0, 0, 0]	-999	PAL1	2	R1121M
782.356	5.009	419713	REC_EVENT	0.0	n/a	2	6	BRANCH	<>	SHEET	BRANCH	22	[0, 0, 0]	-999	PAL1	2	R1121M
787.365	8.286	422218	REC_END	n/a	n/a	2	-999	n/a	n/a	n/a	n/a	22	[0, 0, 0]	-999	PAL1	2	R1121M
795.651	10.443	426360	STUDY_START	n/a	n/a	-999	-999	n/a	n/a	n/a	n/a	23	[0, 0, 0]	-999	PAL1	2	R1121M
806.094	0.275	431581	STUDY_ORIENT	n/a	n/a	1	5	WORLD	LAMB	WORLD	LAMB	23	[0, 0, 0]	-999	PAL1	2	R1121M
806.944	4.0	432006	STUDY_PAIR	n/a	wordpools/wordpool_EN.txt	1	5	WORLD	LAMB	WORLD	LAMB	23	[0, 0, 0]	-999	PAL1	2	R1121M
811.978	0.275	434523	STUDY_ORIENT	n/a	n/a	2	2	DESK	FROG	DESK	FROG	23	[0, 0, 0]	-999	PAL1	2	R1121M
812.995	4.0	435031	STUDY_PAIR	n/a	wordpools/wordpool_EN.txt	2	2	DESK	FROG	DESK	FROG	23	[0, 0, 0]	-999	PAL1	2	R1121M
818.029	0.275	437548	STUDY_ORIENT	n/a	n/a	3	1	POLE	n/a	VASE	POLE	23	[0, 0, 0]	-999	PAL1	2	R1121M
819.046	4.0	438057	STUDY_PAIR	n/a	wordpools/wordpool_EN.txt	3	1	POLE	n/a	VASE	POLE	23	[0, 0, 0]	-999	PAL1	2	R1121M
824.08	0.275	440574	STUDY_ORIENT	n/a	n/a	4	6	CART	n/a	THUMB	CART	23	[0, 0, 0]	-999	PAL1	2	R1121M
824.896	4.0	440982	STUDY_PAIR	n/a	wordpools/wordpool_EN.txt	4	6	CART	n/a	THUMB	CART	23	[0, 0, 0]	-999	PAL1	2	R1121M
829.914	0.275	443490	STUDY_ORIENT	n/a	n/a	5	3	JAIL	PANTS	JAIL	PANTS	23	[0, 0, 0]	-999	PAL1	2	R1121M
830.764	4.0	443915	STUDY_PAIR	n/a	wordpools/wordpool_EN.txt	5	3	JAIL	PANTS	JAIL	PANTS	23	[0, 0, 0]	-999	PAL1	2	R1121M
835.798	0.275	446432	STUDY_ORIENT	n/a	n/a	6	4	PRINCE	FACE	FACE	PRINCE	23	[0, 0, 0]	-999	PAL1	2	R1121M
836.665	4.0	446866	STUDY_PAIR	n/a	wordpools/wordpool_EN.txt	6	4	PRINCE	FACE	FACE	PRINCE	23	[0, 0, 0]	-999	PAL1	2	R1121M
840.683	1.0	448874	START	n/a	n/a	-999	-999	n/a	n/a	n/a	n/a	5	[-999, -999, -999]	-999	PAL1	2	R1121M
841.683	0.017	449374	MATH_START	n/a	n/a	-999	-999	n/a	n/a	n/a	n/a	23	[0, 0, 0]	-999	PAL1	2	R1121M
841.7	3.851	449383	PROB	3831.0	n/a	-999	-999	n/a	n/a	n/a	n/a	5	[8, 6, 4]	9	PAL1	2	R1121M
845.551	1.767	451308	PROB	1740.0	n/a	-999	-999	n/a	n/a	n/a	n/a	5	[2, 8, 9]	9	PAL1	2	R1121M
847.318	1.667	452192	PROB	1645.0	n/a	-999	-999	n/a	n/a	n/a	n/a	5	[6, 4, 1]	9	PAL1	2	R1121M
848.985	1.501	453025	PROB	1474.0	n/a	-999	-999	n/a	n/a	n/a	n/a	5	[7, 2, 4]	9	PAL1	2	R1121M
850.486	1.432	453775	PROB	1412.0	n/a	-999	-999	n/a	n/a	n/a	n/a	5	[1, 1, 5]	9	PAL1	2	R1121M
851.918	1.602	454491	PROB	1581.0	n/a	-999	-999	n/a	n/a	n/a	n/a	5	[8, 9, 2]	9	PAL1	2	R1121M
853.52	1.483	455292	PROB	1451.0	n/a	-999	-999	n/a	n/a	n/a	n/a	5	[2, 2, 1]	9	PAL1	2	R1121M
855.003	1.934	456034	PROB	1911.0	n/a	-999	-999	n/a	n/a	n/a	n/a	5	[3, 7, 7]	9	PAL1	2	R1121M
856.937	1.899	457001	PROB	1873.0	n/a	-999	-999	n/a	n/a	n/a	n/a	5	[2, 4, 5]	9	PAL1	2	R1121M
858.836	1.685	457950	PROB	1663.0	n/a	-999	-999	n/a	n/a	n/a	n/a	5	[1, 8, 1]	9	PAL1	2	R1121M
860.521	2.13	458793	PROB	2130.0	n/a	-999	-999	n/a	n/a	n/a	n/a	5	[6, 5, 8]	9	PAL1	2	R1121M
862.651	0.004	459858	STOP	n/a	n/a	-999	-999	n/a	n/a	n/a	n/a	5	[-999, -999, -999]	-999	PAL1	2	R1121M
862.655	0.0	459860	MATH_END	n/a	n/a	-999	-999	n/a	n/a	n/a	n/a	23	[0, 0, 0]	-999	PAL1	2	R1121M
862.655	0.015	459860	TEST_START	n/a	n/a	-999	-999	n/a	n/a	n/a	n/a	23	[0, 0, 0]	-999	PAL1	2	R1121M
862.67	0.275	459867	TEST_ORIENT	n/a	n/a	3	1	POLE	n/a	VASE	POLE	23	[0, 0, 0]	-999	PAL1	2	R1121M
863.704	4.0	460384	TEST_PROBE	n/a	wordpools/wordpool_EN.txt	3	1	POLE	n/a	VASE	POLE	23	[0, 0, 0]	-999	PAL1	2	R1121M
863.704	0.0	460384	REC_START	n/a	n/a	3	-999	n/a	<>	n/a	n/a	23	[0, 0, 0]	-999	PAL1	2	R1121M
863.704	5.017	460384	REC_EVENT	0.0	n/a	3	1	POLE	<>	VASE	POLE	23	[0, 0, 0]	-999	PAL1	2	R1121M
868.721	0.017	462892	REC_END	n/a	n/a	3	-999	n/a	n/a	n/a	n/a	23	[0, 0, 0]	-999	PAL1	2	R1121M
868.738	0.275	462901	TEST_ORIENT	n/a	n/a	2	2	DESK	FROG	DESK	FROG	23	[0, 0, 0]	-999	PAL1	2	R1121M
869.656	4.0	463360	TEST_PROBE	n/a	wordpools/wordpool_EN.txt	2	2	DESK	FROG	DESK	FROG	23	[0, 0, 0]	-999	PAL1	2	R1121M
869.657	1.709	463360	REC_START	n/a	n/a	2	-999	n/a	FROG	n/a	n/a	23	[0, 0, 0]	-999	PAL1	2	R1121M
871.366	3.316	464215	REC_EVENT	1709.0	n/a	2	2	DESK	FROG	DESK	FROG	23	[0, 0, 0]	-999	PAL1	2	R1121M
874.682	0.007	465873	REC_END	n/a	n/a	2	-999	n/a	n/a	n/a	n/a	23	[0, 0, 0]	-999	PAL1	2	R1121M
874.689	0.275	465876	TEST_ORIENT	n/a	n/a	5	3	JAIL	PANTS	JAIL	PANTS	23	[0, 0, 0]	-999	PAL1	2	R1121M
875.673	4.0	466368	TEST_PROBE	n/a	wordpools/wordpool_EN.txt	5	3	JAIL	PANTS	JAIL	PANTS	23	[0, 0, 0]	-999	PAL1	2	R1121M
875.674	1.813	466368	REC_START	n/a	n/a	5	-999	n/a	PANTS	n/a	n/a	23	[0, 0, 0]	-999	PAL1	2	R1121M
877.487	3.203	467275	REC_EVENT	1813.0	n/a	5	3	JAIL	PANTS	JAIL	PANTS	23	[0, 0, 0]	-999	PAL1	2	R1121M
880.69	0.017	468876	REC_END	n/a	n/a	5	-999	n/a	n/a	n/a	n/a	23	[0, 0, 0]	-999	PAL1	2	R1121M
880.707	0.275	468885	TEST_ORIENT	n/a	n/a	6	4	PRINCE	FACE	FACE	PRINCE	23	[0, 0, 0]	-999	PAL1	2	R1121M
881.592	4.0	469327	TEST_PROBE	n/a	wordpools/wordpool_EN.txt	6	4	PRINCE	FACE	FACE	PRINCE	23	[0, 0, 0]	-999	PAL1	2	R1121M
881.592	2.447	469327	REC_START	n/a	n/a	6	-999	n/a	FACE	n/a	n/a	23	[0, 0, 0]	-999	PAL1	2	R1121M
884.039	2.57	470551	REC_EVENT	2447.0	n/a	6	4	PRINCE	FACE	FACE	PRINCE	23	[0, 0, 0]	-999	PAL1	2	R1121M
886.609	0.017	471836	REC_END	n/a	n/a	6	-999	n/a	n/a	n/a	n/a	23	[0, 0, 0]	-999	PAL1	2	R1121M
886.626	0.275	471844	TEST_ORIENT	n/a	n/a	1	5	WORLD	LAMB	WORLD	LAMB	23	[0, 0, 0]	-999	PAL1	2	R1121M
887.626	4.0	472344	TEST_PROBE	n/a	wordpools/wordpool_EN.txt	1	5	WORLD	LAMB	WORLD	LAMB	23	[0, 0, 0]	-999	PAL1	2	R1121M
887.627	2.227	472345	REC_START	n/a	n/a	1	-999	n/a	LAMB	n/a	n/a	23	[0, 0, 0]	-999	PAL1	2	R1121M
889.854	2.782	473458	REC_EVENT	2227.0	n/a	1	5	WORLD	LAMB	WORLD	LAMB	23	[0, 0, 0]	-999	PAL1	2	R1121M
892.636	0.008	474849	REC_END	n/a	n/a	1	-999	n/a	n/a	n/a	n/a	23	[0, 0, 0]	-999	PAL1	2	R1121M
892.644	0.275	474853	TEST_ORIENT	n/a	n/a	4	6	CART	n/a	THUMB	CART	23	[0, 0, 0]	-999	PAL1	2	R1121M
893.628	4.0	475345	TEST_PROBE	n/a	wordpools/wordpool_EN.txt	4	6	CART	n/a	THUMB	CART	23	[0, 0, 0]	-999	PAL1	2	R1121M
893.628	0.0	475345	REC_START	n/a	n/a	4	-999	n/a	<>	n/a	n/a	23	[0, 0, 0]	-999	PAL1	2	R1121M
893.628	5.017	475345	REC_EVENT	0.0	n/a	4	6	CART	<>	THUMB	CART	23	[0, 0, 0]	-999	PAL1	2	R1121M
898.645	21.502	477853	REC_END	n/a	n/a	4	-999	n/a	n/a	n/a	n/a	23	[0, 0, 0]	-999	PAL1	2	R1121M
920.147	10.438	488603	STUDY_START	n/a	n/a	-999	-999	n/a	n/a	n/a	n/a	24	[0, 0, 0]	-999	PAL1	2	R1121M
930.585	0.275	493822	STUDY_ORIENT	n/a	n/a	1	5	FENCE	n/a	FISH	FENCE	24	[0, 0, 0]	-999	PAL1	2	R1121M
931.602	4.0	494330	STUDY_PAIR	n/a	wordpools/wordpool_EN.txt	1	5	FENCE	n/a	FISH	FENCE	24	[0, 0, 0]	-999	PAL1	2	R1121M
936.636	0.275	496847	STUDY_ORIENT	n/a	n/a	2	2	BROOM	n/a	BROOM	MAZE	24	[0, 0, 0]	-999	PAL1	2	R1121M
937.52	4.0	497289	STUDY_PAIR	n/a	wordpools/wordpool_EN.txt	2	2	BROOM	n/a	BROOM	MAZE	24	[0, 0, 0]	-999	PAL1	2	R1121M
942.554	0.275	499806	STUDY_ORIENT	n/a	n/a	3	3	AXE	FAN	FAN	AXE	24	[0, 0, 0]	-999	PAL1	2	R1121M
943.571	4.0	500314	STUDY_PAIR	n/a	wordpools/wordpool_EN.txt	3	3	AXE	FAN	FAN	AXE	24	[0, 0, 0]	-999	PAL1	2	R1121M
948.605	0.275	502831	STUDY_ORIENT	n/a	n/a	4	6	WEED	n/a	WEED	SHARK	24	[0, 0, 0]	-999	PAL1	2	R1121M
949.472	4.0	503265	STUDY_PAIR	n/a	wordpools/wordpool_EN.txt	4	6	WEED	n/a	WEED	SHARK	24	[0, 0, 0]	-999	PAL1	2	R1121M
954.506	0.275	505781	STUDY_ORIENT	n/a	n/a	5	1	KITE	LAND	KITE	BOOK	24	[0, 0, 0]	-999	PAL1	2	R1121M
955.29	4.0	506173	STUDY_PAIR	n/a	wordpools/wordpool_EN.txt	5	1	KITE	LAND	KITE	BOOK	24	[0, 0, 0]	-999	PAL1	2	R1121M
960.324	0.275	508690	STUDY_ORIENT	n/a	n/a	6	4	LAND	MOON	MOON	LAND	24	[0, 0, 0]	-999	PAL1	2	R1121M
961.191	4.0	509124	STUDY_PAIR	n/a	wordpools/wordpool_EN.txt	6	4	LAND	MOON	MOON	LAND	24	[0, 0, 0]	-999	PAL1	2	R1121M
965.209	0.999	511132	START	n/a	n/a	-999	-999	n/a	n/a	n/a	n/a	6	[-999, -999, -999]	-999	PAL1	2	R1121M
966.208	0.017	511632	MATH_START	n/a	n/a	-999	-999	n/a	n/a	n/a	n/a	24	[0, 0, 0]	-999	PAL1	2	R1121M
966.225	2.968	511640	PROB	2938.0	n/a	-999	-999	n/a	n/a	n/a	n/a	6	[2, 3, 5]	9	PAL1	2	R1121M
969.193	1.482	513124	PROB	1458.0	n/a	-999	-999	n/a	n/a	n/a	n/a	6	[8, 7, 9]	9	PAL1	2	R1121M
970.675	1.602	513865	PROB	1576.0	n/a	-999	-999	n/a	n/a	n/a	n/a	6	[3, 2, 5]	9	PAL1	2	R1121M
972.277	1.867	514666	PROB	1846.0	n/a	-999	-999	n/a	n/a	n/a	n/a	6	[3, 2, 3]	9	PAL1	2	R1121M
974.144	1.85	515600	PROB	1819.0	n/a	-999	-999	n/a	n/a	n/a	n/a	6	[5, 4, 7]	9	PAL1	2	R1121M
975.994	1.766	516524	PROB	1744.0	n/a	-999	-999	n/a	n/a	n/a	n/a	6	[2, 5, 7]	9	PAL1	2	R1121M
977.76	1.785	517407	PROB	1755.0	n/a	-999	-999	n/a	n/a	n/a	n/a	6	[8, 7, 7]	9	PAL1	2	R1121M
979.545	1.783	518300	PROB	1762.0	n/a	-999	-999	n/a	n/a	n/a	n/a	6	[2, 6, 3]	9	PAL1	2	R1121M
981.328	1.934	519191	PROB	1899.0	n/a	-999	-999	n/a	n/a	n/a	n/a	6	[5, 1, 8]	9	PAL1	2	R1121M
983.262	1.973	520158	PROB	1973.0	n/a	-999	-999	n/a	n/a	n/a	n/a	6	[4, 1, 4]	9	PAL1	2	R1121M
985.235	0.011	521145	STOP	n/a	n/a	-999	-999	n/a	n/a	n/a	n/a	6	[-999, -999, -999]	-999	PAL1	2	R1121M
985.246	0.0	521150	MATH_END	n/a	n/a	-999	-999	n/a	n/a	n/a	n/a	24	[0, 0, 0]	-999	PAL1	2	R1121M
985.246	0.016	521150	TEST_START	n/a	n/a	-999	-999	n/a	n/a	n/a	n/a	24	[0, 0, 0]	-999	PAL1	2	R1121M
985.262	0.275	521158	TEST_ORIENT	n/a	n/a	5	1	KITE	LAND	KITE	BOOK	24	[0, 0, 0]	-999	PAL1	2	R1121M
986.129	4.0	521592	TEST_PROBE	n/a	wordpools/wordpool_EN.txt	5	1	KITE	LAND	KITE	BOOK	24	[0, 0, 0]	-999	PAL1	2	R1121M
986.129	2.4	521592	REC_START	n/a	n/a	5	-999	n/a	LAND	n/a	n/a	24	[0, 0, 0]	-999	PAL1	2	R1121M
988.529	2.618	522791	REC_EVENT	2400.0	n/a	5	1	KITE	LAND	KITE	BOOK	24	[0, 0, 0]	-999	PAL1	2	R1121M
991.147	0.017	524100	REC_END	n/a	n/a	5	-999	n/a	n/a	n/a	n/a	24	[0, 0, 0]	-999	PAL1	2	R1121M
991.164	0.275	524109	TEST_ORIENT	n/a	n/a	2	2	BROOM	n/a	BROOM	MAZE	24	[0, 0, 0]	-999	PAL1	2	R1121M
991.98	4.0	524517	TEST_PROBE	n/a	wordpools/wordpool_EN.txt	2	2	BROOM	n/a	BROOM	MAZE	24	[0, 0, 0]	-999	PAL1	2	R1121M
991.981	0.0	524517	REC_START	n/a	n/a	2	-999	n/a	<>	n/a	n/a	24	[0, 0, 0]	-999	PAL1	2	R1121M
991.981	5.009	524517	REC_EVENT	0.0	n/a	2	2	BROOM	<>	BROOM	MAZE	24	[0, 0, 0]	-999	PAL1	2	R1121M
996.99	0.008	527022	REC_END	n/a	n/a	2	-999	n/a	n/a	n/a	n/a	24	[0, 0, 0]	-999	PAL1	2	R1121M
996.998	0.275	527026	TEST_ORIENT	n/a	n/a	3	3	AXE	FAN	FAN	AXE	24	[0, 0, 0]	-999	PAL1	2	R1121M
997.897	4.0	527475	TEST_PROBE	n/a	wordpools/wordpool_EN.txt	3	3	AXE	FAN	FAN	AXE	24	[0, 0, 0]	-999	PAL1	2	R1121M
997.898	2.693	527476	REC_START	n/a	n/a	3	-999	n/a	FAN	n/a	n/a	24	[0, 0, 0]	-999	PAL1	2	R1121M
1000.591	2.315	528822	REC_EVENT	2693.0	n/a	3	3	AXE	FAN	FAN	AXE	24	[0, 0, 0]	-999	PAL1	2	R1121M
1002.906	0.009	529979	REC_END	n/a	n/a	3	-999	n/a	n/a	n/a	n/a	24	[0, 0, 0]	-999	PAL1	2	R1121M
1002.915	0.275	529984	TEST_ORIENT	n/a	n/a	6	4	LAND	MOON	MOON	LAND	24	[0, 0, 0]	-999	PAL1	2	R1121M
1003.698	4.0	530375	TEST_PROBE	n/a	wordpools/wordpool_EN.txt	6	4	LAND	MOON	MOON	LAND	24	[0, 0, 0]	-999	PAL1	2	R1121M
1003.699	1.441	530376	REC_START	n/a	n/a	6	-999	n/a	MOON	n/a	n/a	24	[0, 0, 0]	-999	PAL1	2	R1121M
1005.14	3.567	531096	REC_EVENT	1441.0	n/a	6	4	LAND	MOON	MOON	LAND	24	[0, 0, 0]	-999	PAL1	2	R1121M
1008.707	0.009	532880	REC_END	n/a	n/a	6	-999	n/a	n/a	n/a	n/a	24	[0, 0, 0]	-999	PAL1	2	R1121M
1008.716	0.275	532884	TEST_ORIENT	n/a	n/a	1	5	FENCE	n/a	FISH	FENCE	24	[0, 0, 0]	-999	PAL1	2	R1121M
1009.716	4.0	533384	TEST_PROBE	n/a	wordpools/wordpool_EN.txt	1	5	FENCE	n/a	FISH	FENCE	24	[0, 0, 0]	-999	PAL1	2	R1121M
1009.717	0.0	533385	REC_START	n/a	n/a	1	-999	n/a	<>	n/a	n/a	24	[0, 0, 0]	-999	PAL1	2	R1121M
1009.717	5.008	533385	REC_EVENT	0.0	n/a	1	5	FENCE	<>	FISH	FENCE	24	[0, 0, 0]	-999	PAL1	2	R1121M
1014.725	0.009	535888	REC_END	n/a	n/a	1	-999	n/a	n/a	n/a	n/a	24	[0, 0, 0]	-999	PAL1	2	R1121M
1014.734	0.275	535893	TEST_ORIENT	n/a	n/a	4	6	WEED	n/a	WEED	SHARK	24	[0, 0, 0]	-999	PAL1	2	R1121M
1015.684	4.0	536368	TEST_PROBE	n/a	wordpools/wordpool_EN.txt	4	6	WEED	n/a	WEED	SHARK	24	[0, 0, 0]	-999	PAL1	2	R1121M
1015.685	0.0	536368	REC_START	n/a	n/a	4	-999	n/a	<>	n/a	n/a	24	[0, 0, 0]	-999	PAL1	2	R1121M
1015.685	5.008	536368	REC_EVENT	0.0	n/a	4	6	WEED	<>	WEED	SHARK	24	[0, 0, 0]	-999	PAL1	2	R1121M
1020.693	25.662	538872	REC_END	n/a	n/a	4	-999	n/a	n/a	n/a	n/a	24	[0, 0, 0]	-999	PAL1	2	R1121M
1046.355	10.437	551702	STUDY_START	n/a	n/a	-999	-999	n/a	n/a	n/a	n/a	25	[0, 0, 0]	-999	PAL1	2	R1121M
1056.792	0.275	556920	STUDY_ORIENT	n/a	n/a	1	3	CORD	n/a	DOCK	CORD	25	[0, 0, 0]	-999	PAL1	2	R1121M
1057.793	4.0	557421	STUDY_PAIR	n/a	wordpools/wordpool_EN.txt	1	3	CORD	n/a	DOCK	CORD	25	[0, 0, 0]	-999	PAL1	2	R1121M
1062.827	0.275	559937	STUDY_ORIENT	n/a	n/a	2	2	TRAY	n/a	TRAY	SNAKE	25	[0, 0, 0]	-999	PAL1	2	R1121M
1063.645	4.0	560346	STUDY_PAIR	n/a	wordpools/wordpool_EN.txt	2	2	TRAY	n/a	TRAY	SNAKE	25	[0, 0, 0]	-999	PAL1	2	R1121M
1068.661	0.275	562854	STUDY_ORIENT	n/a	n/a	3	1	SHELL	n/a	SHELL	WOOD	25	[0, 0, 0]	-999	PAL1	2	R1121M
1069.695	4.0	563371	STUDY_PAIR	n/a	wordpools/wordpool_EN.txt	3	1	SHELL	n/a	SHELL	WOOD	25	[0, 0, 0]	-999	PAL1	2	R1121M
1074.729	0.275	565888	STUDY_ORIENT	n/a	n/a	4	6	GATE	SEAM	GATE	SUN	25	[0, 0, 0]	-999	PAL1	2	R1121M
1075.647	4.0	566347	STUDY_PAIR	n/a	wordpools/wordpool_EN.txt	4	6	GATE	SEAM	GATE	SUN	25	[0, 0, 0]	-999	PAL1	2	R1121M
1080.664	0.275	568855	STUDY_ORIENT	n/a	n/a	5	5	GRAPE	SEED	GRAPE	STREET	25	[0, 0, 0]	-999	PAL1	2	R1121M
1081.615	4.0	569331	STUDY_PAIR	n/a	wordpools/wordpool_EN.txt	5	5	GRAPE	SEED	GRAPE	STREET	25	[0, 0, 0]	-999	PAL1	2	R1121M
1086.649	0.275	571848	STUDY_ORIENT	n/a	n/a	6	4	STEAM	n/a	SEED	STEAM	25	[0, 0, 0]	-999	PAL1	2	R1121M
1087.616	4.0	572331	STUDY_PAIR	n/a	wordpools/wordpool_EN.txt	6	4	STEAM	n/a	SEED	STEAM	25	[0, 0, 0]	-999	PAL1	2	R1121M
1091.617	1.0	574331	START	n/a	n/a	-999	-999	n/a	n/a	n/a	n/a	7	[-999, -999, -999]	-999	PAL1	2	R1121M
1092.617	0.017	574831	MATH_START	n/a	n/a	-999	-999	n/a	n/a	n/a	n/a	25	[0, 0, 0]	-999	PAL1	2	R1121M
1092.634	4.334	574840	PROB	4313.0	n/a	-999	-999	n/a	n/a	n/a	n/a	7	[7, 3, 4]	9	PAL1	2	R1121M
1096.968	1.816	577007	PROB	1786.0	n/a	-999	-999	n/a	n/a	n/a	n/a	7	[2, 6, 2]	9	PAL1	2	R1121M
1098.784	1.9	577915	PROB	1875.0	n/a	-999	-999	n/a	n/a	n/a	n/a	7	[6, 4, 2]	9	PAL1	2	R1121M
1100.684	2.435	578864	PROB	2415.0	n/a	-999	-999	n/a	n/a	n/a	n/a	7	[1, 2, 5]	9	PAL1	2	R1121M
1103.119	2.017	580082	PROB	1988.0	n/a	-999	-999	n/a	n/a	n/a	n/a	7	[3, 8, 5]	9	PAL1	2	R1121M
1105.136	2.384	581090	PROB	2363.0	n/a	-999	-999	n/a	n/a	n/a	n/a	7	[5, 2, 8]	9	PAL1	2	R1121M
1107.52	2.134	582282	PROB	2099.0	n/a	-999	-999	n/a	n/a	n/a	n/a	7	[2, 6, 2]	9	PAL1	2	R1121M
1109.654	2.196	583349	PROB	2196.0	n/a	-999	-999	n/a	n/a	n/a	n/a	7	[7, 4, 7]	9	PAL1	2	R1121M
1111.85	0.003	584447	STOP	n/a	n/a	-999	-999	n/a	n/a	n/a	n/a	7	[-999, -999, -999]	-999	PAL1	2	R1121M
1111.853	0.0	584449	MATH_END	n/a	n/a	-999	-999	n/a	n/a	n/a	n/a	25	[0, 0, 0]	-999	PAL1	2	R1121M
1111.853	0.017	584449	TEST_START	n/a	n/a	-999	-999	n/a	n/a	n/a	n/a	25	[0, 0, 0]	-999	PAL1	2	R1121M
1111.87	0.275	584457	TEST_ORIENT	n/a	n/a	3	1	SHELL	n/a	SHELL	WOOD	25	[0, 0, 0]	-999	PAL1	2	R1121M
1112.837	4.0	584940	TEST_PROBE	n/a	wordpools/wordpool_EN.txt	3	1	SHELL	n/a	SHELL	WOOD	25	[0, 0, 0]	-999	PAL1	2	R1121M
1112.837	0.0	584940	REC_START	n/a	n/a	3	-999	n/a	<>	n/a	n/a	25	[0, 0, 0]	-999	PAL1	2	R1121M
1112.837	5.017	584940	REC_EVENT	0.0	n/a	3	1	SHELL	<>	SHELL	WOOD	25	[0, 0, 0]	-999	PAL1	2	R1121M
1117.854	0.017	587449	REC_END	n/a	n/a	3	-999	n/a	n/a	n/a	n/a	25	[0, 0, 0]	-999	PAL1	2	R1121M
1117.871	0.275	587457	TEST_ORIENT	n/a	n/a	2	2	TRAY	n/a	TRAY	SNAKE	25	[0, 0, 0]	-999	PAL1	2	R1121M
1118.738	4.0	587891	TEST_PROBE	n/a	wordpools/wordpool_EN.txt	2	2	TRAY	n/a	TRAY	SNAKE	25	[0, 0, 0]	-999	PAL1	2	R1121M
1118.739	0.0	587891	REC_START	n/a	n/a	2	-999	n/a	<>	n/a	n/a	25	[0, 0, 0]	-999	PAL1	2	R1121M
1118.739	5.026	587891	REC_EVENT	0.0	n/a	2	2	TRAY	<>	TRAY	SNAKE	25	[0, 0, 0]	-999	PAL1	2	R1121M
1123.765	0.007	590404	REC_END	n/a	n/a	2	-999	n/a	n/a	n/a	n/a	25	[0, 0, 0]	-999	PAL1	2	R1121M
1123.772	0.275	590408	TEST_ORIENT	n/a	n/a	1	3	CORD	n/a	DOCK	CORD	25	[0, 0, 0]	-999	PAL1	2	R1121M
1124.573	4.0	590808	TEST_PROBE	n/a	wordpools/wordpool_EN.txt	1	3	CORD	n/a	DOCK	CORD	25	[0, 0, 0]	-999	PAL1	2	R1121M
1124.574	0.0	590809	REC_START	n/a	n/a	1	-999	n/a	<>	n/a	n/a	25	[0, 0, 0]	-999	PAL1	2	R1121M
1124.574	5.009	590809	REC_EVENT	0.0	n/a	1	3	CORD	<>	DOCK	CORD	25	[0, 0, 0]	-999	PAL1	2	R1121M
1129.583	0.008	593313	REC_END	n/a	n/a	1	-999	n/a	n/a	n/a	n/a	25	[0, 0, 0]	-999	PAL1	2	R1121M
1129.591	0.275	593317	TEST_ORIENT	n/a	n/a	6	4	STEAM	n/a	SEED	STEAM	25	[0, 0, 0]	-999	PAL1	2	R1121M
1130.541	4.0	593792	TEST_PROBE	n/a	wordpools/wordpool_EN.txt	6	4	STEAM	n/a	SEED	STEAM	25	[0, 0, 0]	-999	PAL1	2	R1121M
1130.542	0.0	593792	REC_START	n/a	n/a	6	-999	n/a	<>	n/a	n/a	25	[0, 0, 0]	-999	PAL1	2	R1121M
1130.542	5.009	593792	REC_EVENT	0.0	n/a	6	4	STEAM	<>	SEED	STEAM	25	[0, 0, 0]	-999	PAL1	2	R1121M
1135.551	0.008	596297	REC_END	n/a	n/a	6	-999	n/a	n/a	n/a	n/a	25	[0, 0, 0]	-999	PAL1	2	R1121M
1135.559	0.275	596301	TEST_ORIENT	n/a	n/a	5	5	GRAPE	SEED	GRAPE	STREET	25	[0, 0, 0]	-999	PAL1	2	R1121M
1136.493	4.0	596768	TEST_PROBE	n/a	wordpools/wordpool_EN.txt	5	5	GRAPE	SEED	GRAPE	STREET	25	[0, 0, 0]	-999	PAL1	2	R1121M
1136.493	2.689	596768	REC_START	n/a	n/a	5	-999	n/a	SEED	n/a	n/a	25	[0, 0, 0]	-999	PAL1	2	R1121M
1139.182	2.328	598112	REC_EVENT	2689.0	n/a	5	5	GRAPE	SEED	GRAPE	STREET	25	[0, 0, 0]	-999	PAL1	2	R1121M
1141.51	0.017	599276	REC_END	n/a	n/a	5	-999	n/a	n/a	n/a	n/a	25	[0, 0, 0]	-999	PAL1	2	R1121M
1141.527	0.275	599284	TEST_ORIENT	n/a	n/a	4	6	GATE	SEAM	GATE	SUN	25	[0, 0, 0]	-999	PAL1	2	R1121M
1142.51	4.0	599776	TEST_PROBE	n/a	wordpools/wordpool_EN.txt	4	6	GATE	SEAM	GATE	SUN	25	[0, 0, 0]	-999	PAL1	2	R1121M
1142.511	3.722	599776	REC_START	n/a	n/a	4	-999	n/a	SEAM	n/a	n/a	25	[0, 0, 0]	-999	PAL1	2	R1121M
1146.233	1.278	601637	REC_EVENT	3722.0	n/a	4	6	GATE	SEAM	GATE	SUN	25	[0, 0, 0]	-999	PAL1	2	R1121M
1147.511	0.0	602276	REC_END	n/a	n/a	4	-999	n/a	n/a	n/a	n/a	25	[0, 0, 0]	-999	PAL1	2	R1121M
