onset	duration	sample	trial_type	response_time	stim_file	serialpos	probepos	probe_word	resp_word	study_1	study_2	list	test	answer	experiment	session	subject
0.0	62.161	469831	SESS_START	n/a	n/a	-999	-999	n/a	n/a	n/a	n/a	-999	[0, 0, 0]	-999	PAL1	0	R1131M
62.161	1.016	500910	START	n/a	n/a	-999	-999	n/a	n/a	n/a	n/a	-1	[-999, -999, -999]	-999	PAL1	0	R1131M
63.177	4.634	501418	PROB	4608.0	n/a	-999	-999	n/a	n/a	n/a	n/a	-1	[7, 7, 7]	21	PAL1	0	R1131M
67.811	2.868	503735	PROB	2838.0	n/a	-999	-999	n/a	n/a	n/a	n/a	-1	[7, 1, 1]	9	PAL1	0	R1131M
70.679	4.034	505168	PROB	4002.0	n/a	-999	-999	n/a	n/a	n/a	n/a	-1	[7, 3, 3]	13	PAL1	0	R1131M
74.713	4.584	507185	PROB	4560.0	n/a	-999	-999	n/a	n/a	n/a	n/a	-1	[8, 4, 8]	20	PAL1	0	R1131M
79.297	3.952	509477	PROB	3952.0	n/a	-999	-999	n/a	n/a	n/a	n/a	-1	[7, 5, 7]	19	PAL1	0	R1131M
83.249	50.688	511453	STOP	n/a	n/a	-999	-999	n/a	n/a	n/a	n/a	-1	[-999, -999, -999]	-999	PAL1	0	R1131M
133.937	10.44	536795	ENCODING_START	n/a	n/a	0	-999	n/a	n/a	n/a	n/a	1	[0, 0, 0]	-999	PAL1	0	R1131M
144.377	0.275	542015	STUDY_ORIENT	n/a	n/a	1	5	PASTE	LEG	PASTE	LEG	1	[0, 0, 0]	-999	PAL1	0	R1131M
145.227	4.0	542440	STUDY_PAIR	n/a	wordpools/wordpool_EN.txt	1	5	PASTE	LEG	PASTE	LEG	1	[0, 0, 0]	-999	PAL1	0	R1131M
150.261	0.275	544957	STUDY_ORIENT	n/a	n/a	2	6	DOG	CROWN	DOG	CROWN	1	[0, 0, 0]	-999	PAL1	0	R1131M
151.111	4.0	545382	STUDY_PAIR	n/a	wordpools/wordpool_EN.txt	2	6	DOG	CROWN	DOG	CROWN	1	[0, 0, 0]	-999	PAL1	0	R1131M
156.129	0.275	547891	STUDY_ORIENT	n/a	n/a	3	3	SQUARE	STAR	SQUARE	STAR	1	[0, 0, 0]	-999	PAL1	0	R1131M
157.012	4.0	548332	STUDY_PAIR	n/a	wordpools/wordpool_EN.txt	3	3	SQUARE	STAR	SQUARE	STAR	1	[0, 0, 0]	-999	PAL1	0	R1131M
162.03	0.275	550841	STUDY_ORIENT	n/a	n/a	4	4	SMOKE	n/a	PEN	SMOKE	1	[0, 0, 0]	-999	PAL1	0	R1131M
162.83	4.0	551241	STUDY_PAIR	n/a	wordpools/wordpool_EN.txt	4	4	SMOKE	n/a	PEN	SMOKE	1	[0, 0, 0]	-999	PAL1	0	R1131M
167.848	0.275	553750	STUDY_ORIENT	n/a	n/a	5	1	BOX	STAR	ANT	BOX	1	[0, 0, 0]	-999	PAL1	0	R1131M
168.632	4.0	554142	STUDY_PAIR	n/a	wordpools/wordpool_EN.txt	5	1	BOX	STAR	ANT	BOX	1	[0, 0, 0]	-999	PAL1	0	R1131M
173.666	0.275	556658	STUDY_ORIENT	n/a	n/a	6	2	GOAT	n/a	GOAT	STOVE	1	[0, 0, 0]	-999	PAL1	0	R1131M
174.633	4.0	557142	STUDY_PAIR	n/a	wordpools/wordpool_EN.txt	6	2	GOAT	n/a	GOAT	STOVE	1	[0, 0, 0]	-999	PAL1	0	R1131M
178.651	0.999	559151	START	n/a	n/a	-999	-999	n/a	n/a	n/a	n/a	1	[-999, -999, -999]	-999	PAL1	0	R1131M
179.65	0.017	559650	MATH_START	n/a	n/a	-999	-999	n/a	n/a	n/a	n/a	1	[0, 0, 0]	-999	PAL1	0	R1131M
179.667	4.351	559659	PROB	4318.0	n/a	-999	-999	n/a	n/a	n/a	n/a	1	[1, 4, 7]	12	PAL1	0	R1131M
184.018	3.851	561834	PROB	3831.0	n/a	-999	-999	n/a	n/a	n/a	n/a	1	[2, 3, 2]	7	PAL1	0	R1131M
187.869	4.4	563759	PROB	4380.0	n/a	-999	-999	n/a	n/a	n/a	n/a	1	[9, 7, 1]	17	PAL1	0	R1131M
192.269	3.951	565959	PROB	3924.0	n/a	-999	-999	n/a	n/a	n/a	n/a	1	[5, 9, 5]	19	PAL1	0	R1131M
196.22	3.174	567935	PROB	3174.0	n/a	-999	-999	n/a	n/a	n/a	n/a	1	[4, 4, 3]	11	PAL1	0	R1131M
199.394	0.011	569522	STOP	n/a	n/a	-999	-999	n/a	n/a	n/a	n/a	1	[-999, -999, -999]	-999	PAL1	0	R1131M
199.405	0.0	569527	MATH_END	n/a	n/a	-999	-999	n/a	n/a	n/a	n/a	1	[0, 0, 0]	-999	PAL1	0	R1131M
199.405	0.017	569527	TEST_START	n/a	n/a	-999	-999	n/a	n/a	n/a	n/a	1	[0, 0, 0]	-999	PAL1	0	R1131M
199.422	0.275	569536	TEST_ORIENT	n/a	n/a	5	1	BOX	STAR	ANT	BOX	1	[0, 0, 0]	-999	PAL1	0	R1131M
200.456	4.0	570053	TEST_PROBE	n/a	wordpools/wordpool_EN.txt	5	1	BOX	STAR	ANT	BOX	1	[0, 0, 0]	-999	PAL1	0	R1131M
200.456	1.706	570053	REC_START	n/a	n/a	5	-999	n/a	STAR	n/a	n/a	1	[0, 0, 0]	-999	PAL1	0	R1131M
202.162	3.311	570905	REC_EVENT	1706.0	n/a	5	1	BOX	STAR	ANT	BOX	1	[0, 0, 0]	-999	PAL1	0	R1131M
205.473	0.017	572561	REC_END	n/a	n/a	5	-999	n/a	n/a	n/a	n/a	1	[0, 0, 0]	-999	PAL1	0	R1131M
205.49	0.275	572569	TEST_ORIENT	n/a	n/a	6	2	GOAT	n/a	GOAT	STOVE	1	[0, 0, 0]	-999	PAL1	0	R1131M
206.407	4.0	573028	TEST_PROBE	n/a	wordpools/wordpool_EN.txt	6	2	GOAT	n/a	GOAT	STOVE	1	[0, 0, 0]	-999	PAL1	0	R1131M
206.407	5.015	573028	REC_START	n/a	n/a	6	-999	n/a	n/a	n/a	n/a	1	[0, 0, 0]	-999	PAL1	0	R1131M
211.422	0.002	575535	REC_EVENT	5015.0	n/a	6	2	GOAT	<>	GOAT	STOVE	1	[0, 0, 0]	-999	PAL1	0	R1131M
211.424	0.017	575536	REC_END	n/a	n/a	6	-999	n/a	n/a	n/a	n/a	1	[0, 0, 0]	-999	PAL1	0	R1131M
211.441	0.275	575545	TEST_ORIENT	n/a	n/a	3	3	SQUARE	STAR	SQUARE	STAR	1	[0, 0, 0]	-999	PAL1	0	R1131M
212.441	4.0	576045	TEST_PROBE	n/a	wordpools/wordpool_EN.txt	3	3	SQUARE	STAR	SQUARE	STAR	1	[0, 0, 0]	-999	PAL1	0	R1131M
212.442	1.419	576045	REC_START	n/a	n/a	3	-999	n/a	STAR	n/a	n/a	1	[0, 0, 0]	-999	PAL1	0	R1131M
213.861	3.59	576755	REC_EVENT	1419.0	n/a	3	3	SQUARE	STAR	SQUARE	STAR	1	[0, 0, 0]	-999	PAL1	0	R1131M
217.451	0.008	578549	REC_END	n/a	n/a	3	-999	n/a	n/a	n/a	n/a	1	[0, 0, 0]	-999	PAL1	0	R1131M
217.459	0.275	578553	TEST_ORIENT	n/a	n/a	4	4	SMOKE	n/a	PEN	SMOKE	1	[0, 0, 0]	-999	PAL1	0	R1131M
218.442	4.0	579045	TEST_PROBE	n/a	wordpools/wordpool_EN.txt	4	4	SMOKE	n/a	PEN	SMOKE	1	[0, 0, 0]	-999	PAL1	0	R1131M
218.443	5.009	579045	REC_START	n/a	n/a	4	-999	n/a	n/a	n/a	n/a	1	[0, 0, 0]	-999	PAL1	0	R1131M
223.452	0.0	581550	REC_EVENT	5009.0	n/a	4	4	SMOKE	<>	PEN	SMOKE	1	[0, 0, 0]	-999	PAL1	0	R1131M
223.452	0.008	581550	REC_END	n/a	n/a	4	-999	n/a	n/a	n/a	n/a	1	[0, 0, 0]	-999	PAL1	0	R1131M
223.46	0.275	581554	TEST_ORIENT	n/a	n/a	1	5	PASTE	LEG	PASTE	LEG	1	[0, 0, 0]	-999	PAL1	0	R1131M
224.259	4.0	581953	TEST_PROBE	n/a	wordpools/wordpool_EN.txt	1	5	PASTE	LEG	PASTE	LEG	1	[0, 0, 0]	-999	PAL1	0	R1131M
224.26	2.575	581954	REC_START	n/a	n/a	1	-999	n/a	LEG	n/a	n/a	1	[0, 0, 0]	-999	PAL1	0	R1131M
226.835	2.434	583241	REC_EVENT	2575.0	n/a	1	5	PASTE	LEG	PASTE	LEG	1	[0, 0, 0]	-999	PAL1	0	R1131M
229.269	0.008	584458	REC_END	n/a	n/a	1	-999	n/a	n/a	n/a	n/a	1	[0, 0, 0]	-999	PAL1	0	R1131M
229.277	0.275	584462	TEST_ORIENT	n/a	n/a	2	6	DOG	CROWN	DOG	CROWN	1	[0, 0, 0]	-999	PAL1	0	R1131M
230.261	4.0	584954	TEST_PROBE	n/a	wordpools/wordpool_EN.txt	2	6	DOG	CROWN	DOG	CROWN	1	[0, 0, 0]	-999	PAL1	0	R1131M
230.261	1.206	584954	REC_START	n/a	n/a	2	-999	n/a	CROWN	n/a	n/a	1	[0, 0, 0]	-999	PAL1	0	R1131M
231.467	3.811	585557	REC_EVENT	1206.0	n/a	2	6	DOG	CROWN	DOG	CROWN	1	[0, 0, 0]	-999	PAL1	0	R1131M
235.278	8.715	587462	REC_END	n/a	n/a	2	-999	n/a	n/a	n/a	n/a	1	[0, 0, 0]	-999	PAL1	0	R1131M
243.993	10.44	591820	ENCODING_START	n/a	n/a	0	-999	n/a	n/a	n/a	n/a	2	[0, 0, 0]	-999	PAL1	0	R1131M
254.433	0.275	597039	STUDY_ORIENT	n/a	n/a	1	5	BATH	n/a	BATH	DITCH	2	[0, 0, 0]	-999	PAL1	0	R1131M
255.215	4.0	597430	STUDY_PAIR	n/a	wordpools/wordpool_EN.txt	1	5	BATH	n/a	BATH	DITCH	2	[0, 0, 0]	-999	PAL1	0	R1131M
260.233	0.275	599939	STUDY_ORIENT	n/a	n/a	2	6	WORM	TAIL	WORM	TAIL	2	[0, 0, 0]	-999	PAL1	0	R1131M
261.1	4.0	600372	STUDY_PAIR	n/a	wordpools/wordpool_EN.txt	2	6	WORM	TAIL	WORM	TAIL	2	[0, 0, 0]	-999	PAL1	0	R1131M
266.134	0.275	602889	STUDY_ORIENT	n/a	n/a	3	1	TENT	CHAIR	CHAIR	TENT	2	[0, 0, 0]	-999	PAL1	0	R1131M
267.084	4.0	603364	STUDY_PAIR	n/a	wordpools/wordpool_EN.txt	3	1	TENT	CHAIR	CHAIR	TENT	2	[0, 0, 0]	-999	PAL1	0	R1131M
272.102	0.275	605873	STUDY_ORIENT	n/a	n/a	4	2	PALM	HOOF	HOOF	PALM	2	[0, 0, 0]	-999	PAL1	0	R1131M
273.052	4.0	606348	STUDY_PAIR	n/a	wordpools/wordpool_EN.txt	4	2	PALM	HOOF	HOOF	PALM	2	[0, 0, 0]	-999	PAL1	0	R1131M
278.07	0.275	608857	STUDY_ORIENT	n/a	n/a	5	3	LIP	BED	LIP	BED	2	[0, 0, 0]	-999	PAL1	0	R1131M
279.07	4.0	609357	STUDY_PAIR	n/a	wordpools/wordpool_EN.txt	5	3	LIP	BED	LIP	BED	2	[0, 0, 0]	-999	PAL1	0	R1131M
284.088	0.275	611866	STUDY_ORIENT	n/a	n/a	6	4	BALL	LAKE	BALL	LAKE	2	[0, 0, 0]	-999	PAL1	0	R1131M
284.888	4.0	612266	STUDY_PAIR	n/a	wordpools/wordpool_EN.txt	6	4	BALL	LAKE	BALL	LAKE	2	[0, 0, 0]	-999	PAL1	0	R1131M
288.906	0.999	614274	START	n/a	n/a	-999	-999	n/a	n/a	n/a	n/a	2	[-999, -999, -999]	-999	PAL1	0	R1131M
289.905	0.017	614774	MATH_START	n/a	n/a	-999	-999	n/a	n/a	n/a	n/a	2	[0, 0, 0]	-999	PAL1	0	R1131M
289.922	4.634	614782	PROB	4599.0	n/a	-999	-999	n/a	n/a	n/a	n/a	2	[4, 8, 5]	17	PAL1	0	R1131M
294.556	13.938	617099	PROB	13910.0	n/a	-999	-999	n/a	n/a	n/a	n/a	2	[9, 6, 9]	24	PAL1	0	R1131M
308.494	5.98	624068	PROB	5980.0	n/a	-999	-999	n/a	n/a	n/a	n/a	2	[5, 6, 9]	20	PAL1	0	R1131M
314.474	0.004	627058	STOP	n/a	n/a	-999	-999	n/a	n/a	n/a	n/a	2	[-999, -999, -999]	-999	PAL1	0	R1131M
314.478	0.0	627060	MATH_END	n/a	n/a	-999	-999	n/a	n/a	n/a	n/a	2	[0, 0, 0]	-999	PAL1	0	R1131M
314.478	0.017	627060	TEST_START	n/a	n/a	-999	-999	n/a	n/a	n/a	n/a	2	[0, 0, 0]	-999	PAL1	0	R1131M
314.495	0.275	627068	TEST_ORIENT	n/a	n/a	3	1	TENT	CHAIR	CHAIR	TENT	2	[0, 0, 0]	-999	PAL1	0	R1131M
315.327	4.0	627484	TEST_PROBE	n/a	wordpools/wordpool_EN.txt	3	1	TENT	CHAIR	CHAIR	TENT	2	[0, 0, 0]	-999	PAL1	0	R1131M
315.328	3.263	627485	REC_START	n/a	n/a	3	-999	n/a	CHAIR	n/a	n/a	2	[0, 0, 0]	-999	PAL1	0	R1131M
318.591	1.746	629116	REC_EVENT	3263.0	n/a	3	1	TENT	CHAIR	CHAIR	TENT	2	[0, 0, 0]	-999	PAL1	0	R1131M
320.337	0.008	629989	REC_END	n/a	n/a	3	-999	n/a	n/a	n/a	n/a	2	[0, 0, 0]	-999	PAL1	0	R1131M
320.345	0.275	629993	TEST_ORIENT	n/a	n/a	4	2	PALM	HOOF	HOOF	PALM	2	[0, 0, 0]	-999	PAL1	0	R1131M
321.362	0.0	630501	REC_START	n/a	n/a	4	-999	n/a	HOOF	n/a	n/a	2	[0, 0, 0]	-999	PAL1	0	R1131M
321.362	4.0	630501	TEST_PROBE	n/a	wordpools/wordpool_EN.txt	4	2	PALM	HOOF	HOOF	PALM	2	[0, 0, 0]	-999	PAL1	0	R1131M
322.553	3.826	631097	REC_EVENT	1191.0	n/a	4	2	PALM	HOOF	HOOF	PALM	2	[0, 0, 0]	-999	PAL1	0	R1131M
326.379	0.018	633010	REC_END	n/a	n/a	4	-999	n/a	n/a	n/a	n/a	2	[0, 0, 0]	-999	PAL1	0	R1131M
326.397	0.275	633019	TEST_ORIENT	n/a	n/a	5	3	LIP	BED	LIP	BED	2	[0, 0, 0]	-999	PAL1	0	R1131M
327.263	4.0	633452	TEST_PROBE	n/a	wordpools/wordpool_EN.txt	5	3	LIP	BED	LIP	BED	2	[0, 0, 0]	-999	PAL1	0	R1131M
327.263	1.609	633452	REC_START	n/a	n/a	5	-999	n/a	BED	n/a	n/a	2	[0, 0, 0]	-999	PAL1	0	R1131M
328.872	3.408	634256	REC_EVENT	1609.0	n/a	5	3	LIP	BED	LIP	BED	2	[0, 0, 0]	-999	PAL1	0	R1131M
332.28	0.017	635960	REC_END	n/a	n/a	5	-999	n/a	n/a	n/a	n/a	2	[0, 0, 0]	-999	PAL1	0	R1131M
332.297	0.275	635969	TEST_ORIENT	n/a	n/a	6	4	BALL	LAKE	BALL	LAKE	2	[0, 0, 0]	-999	PAL1	0	R1131M
333.214	4.0	636427	TEST_PROBE	n/a	wordpools/wordpool_EN.txt	6	4	BALL	LAKE	BALL	LAKE	2	[0, 0, 0]	-999	PAL1	0	R1131M
333.215	1.514	636427	REC_START	n/a	n/a	6	-999	n/a	LAKE	n/a	n/a	2	[0, 0, 0]	-999	PAL1	0	R1131M
334.729	3.486	637184	REC_EVENT	1514.0	n/a	6	4	BALL	LAKE	BALL	LAKE	2	[0, 0, 0]	-999	PAL1	0	R1131M
338.215	0.017	638927	REC_END	n/a	n/a	6	-999	n/a	n/a	n/a	n/a	2	[0, 0, 0]	-999	PAL1	0	R1131M
338.232	0.275	638936	TEST_ORIENT	n/a	n/a	1	5	BATH	n/a	BATH	DITCH	2	[0, 0, 0]	-999	PAL1	0	R1131M
339.015	4.0	639327	TEST_PROBE	n/a	wordpools/wordpool_EN.txt	1	5	BATH	n/a	BATH	DITCH	2	[0, 0, 0]	-999	PAL1	0	R1131M
339.016	5.009	639328	REC_START	n/a	n/a	1	-999	n/a	n/a	n/a	n/a	2	[0, 0, 0]	-999	PAL1	0	R1131M
344.025	0.0	641832	REC_EVENT	5009.0	n/a	1	5	BATH	<>	BATH	DITCH	2	[0, 0, 0]	-999	PAL1	0	R1131M
344.025	0.008	641832	REC_END	n/a	n/a	1	-999	n/a	n/a	n/a	n/a	2	[0, 0, 0]	-999	PAL1	0	R1131M
344.033	0.275	641836	TEST_ORIENT	n/a	n/a	2	6	WORM	TAIL	WORM	TAIL	2	[0, 0, 0]	-999	PAL1	0	R1131M
344.983	4.0	642311	TEST_PROBE	n/a	wordpools/wordpool_EN.txt	2	6	WORM	TAIL	WORM	TAIL	2	[0, 0, 0]	-999	PAL1	0	R1131M
344.984	0.939	642312	REC_START	n/a	n/a	2	-999	n/a	TAIL	n/a	n/a	2	[0, 0, 0]	-999	PAL1	0	R1131M
345.923	4.07	642781	REC_EVENT	939.0	n/a	2	6	WORM	TAIL	WORM	TAIL	2	[0, 0, 0]	-999	PAL1	0	R1131M
349.993	2.896	644816	REC_END	n/a	n/a	2	-999	n/a	n/a	n/a	n/a	2	[0, 0, 0]	-999	PAL1	0	R1131M
352.889	10.448	646264	ENCODING_START	n/a	n/a	0	-999	n/a	n/a	n/a	n/a	3	[0, 0, 0]	-999	PAL1	0	R1131M
363.337	0.275	651487	STUDY_ORIENT	n/a	n/a	1	1	FLAME	ARM	ARM	FLAME	3	[0, 0, 0]	-999	PAL1	0	R1131M
364.137	4.0	651887	STUDY_PAIR	n/a	wordpools/wordpool_EN.txt	1	1	FLAME	ARM	ARM	FLAME	3	[0, 0, 0]	-999	PAL1	0	R1131M
369.171	0.275	654404	STUDY_ORIENT	n/a	n/a	2	4	STRING	THREAD	THREAD	STRING	3	[0, 0, 0]	-999	PAL1	0	R1131M
369.955	4.0	654796	STUDY_PAIR	n/a	wordpools/wordpool_EN.txt	2	4	STRING	THREAD	THREAD	STRING	3	[0, 0, 0]	-999	PAL1	0	R1131M
374.989	0.275	657313	STUDY_ORIENT	n/a	n/a	3	3	BLOOM	FOOT	BLOOM	FOOT	3	[0, 0, 0]	-999	PAL1	0	R1131M
375.839	4.0	657738	STUDY_PAIR	n/a	wordpools/wordpool_EN.txt	3	3	BLOOM	FOOT	BLOOM	FOOT	3	[0, 0, 0]	-999	PAL1	0	R1131M
380.857	0.275	660247	STUDY_ORIENT	n/a	n/a	4	6	SHIP	GRASS	SHIP	GRASS	3	[0, 0, 0]	-999	PAL1	0	R1131M
381.84	4.0	660738	STUDY_PAIR	n/a	wordpools/wordpool_EN.txt	4	6	SHIP	GRASS	SHIP	GRASS	3	[0, 0, 0]	-999	PAL1	0	R1131M
386.858	0.275	663247	STUDY_ORIENT	n/a	n/a	5	5	BEACH	n/a	LEAF	BEACH	3	[0, 0, 0]	-999	PAL1	0	R1131M
387.858	4.0	663747	STUDY_PAIR	n/a	wordpools/wordpool_EN.txt	5	5	BEACH	n/a	LEAF	BEACH	3	[0, 0, 0]	-999	PAL1	0	R1131M
392.876	0.275	666256	STUDY_ORIENT	n/a	n/a	6	2	PEAR	n/a	PANTS	PEAR	3	[0, 0, 0]	-999	PAL1	0	R1131M
393.726	4.0	666681	STUDY_PAIR	n/a	wordpools/wordpool_EN.txt	6	2	PEAR	n/a	PANTS	PEAR	3	[0, 0, 0]	-999	PAL1	0	R1131M
397.727	1.0	668681	START	n/a	n/a	-999	-999	n/a	n/a	n/a	n/a	3	[-999, -999, -999]	-999	PAL1	0	R1131M
398.727	0.017	669181	MATH_START	n/a	n/a	-999	-999	n/a	n/a	n/a	n/a	3	[0, 0, 0]	-999	PAL1	0	R1131M
398.744	3.951	669190	PROB	3929.0	n/a	-999	-999	n/a	n/a	n/a	n/a	3	[5, 5, 2]	12	PAL1	0	R1131M
402.695	3.95	671165	PROB	3930.0	n/a	-999	-999	n/a	n/a	n/a	n/a	3	[6, 3, 8]	17	PAL1	0	R1131M
406.645	3.351	673140	PROB	3316.0	n/a	-999	-999	n/a	n/a	n/a	n/a	3	[4, 6, 6]	16	PAL1	0	R1131M
409.996	3.418	674815	PROB	3398.0	n/a	-999	-999	n/a	n/a	n/a	n/a	3	[7, 1, 2]	10	PAL1	0	R1131M
413.414	3.133	676524	PROB	3107.0	n/a	-999	-999	n/a	n/a	n/a	n/a	3	[3, 7, 4]	14	PAL1	0	R1131M
416.547	4.238	678091	PROB	4238.0	n/a	-999	-999	n/a	n/a	n/a	n/a	3	[3, 3, 8]	14	PAL1	0	R1131M
420.785	0.013	680209	STOP	n/a	n/a	-999	-999	n/a	n/a	n/a	n/a	3	[-999, -999, -999]	-999	PAL1	0	R1131M
420.798	0.0	680216	MATH_END	n/a	n/a	-999	-999	n/a	n/a	n/a	n/a	3	[0, 0, 0]	-999	PAL1	0	R1131M
420.798	0.017	680216	TEST_START	n/a	n/a	-999	-999	n/a	n/a	n/a	n/a	3	[0, 0, 0]	-999	PAL1	0	R1131M
420.815	0.275	680224	TEST_ORIENT	n/a	n/a	1	1	FLAME	ARM	ARM	FLAME	3	[0, 0, 0]	-999	PAL1	0	R1131M
421.682	4.0	680658	TEST_PROBE	n/a	wordpools/wordpool_EN.txt	1	1	FLAME	ARM	ARM	FLAME	3	[0, 0, 0]	-999	PAL1	0	R1131M
421.682	4.185	680658	REC_START	n/a	n/a	1	-999	n/a	ARM	n/a	n/a	3	[0, 0, 0]	-999	PAL1	0	R1131M
425.867	0.832	682750	REC_EVENT	4185.0	n/a	1	1	FLAME	ARM	ARM	FLAME	3	[0, 0, 0]	-999	PAL1	0	R1131M
426.699	0.017	683166	REC_END	n/a	n/a	1	-999	n/a	n/a	n/a	n/a	3	[0, 0, 0]	-999	PAL1	0	R1131M
426.716	0.275	683175	TEST_ORIENT	n/a	n/a	6	2	PEAR	n/a	PANTS	PEAR	3	[0, 0, 0]	-999	PAL1	0	R1131M
427.633	4.0	683633	TEST_PROBE	n/a	wordpools/wordpool_EN.txt	6	2	PEAR	n/a	PANTS	PEAR	3	[0, 0, 0]	-999	PAL1	0	R1131M
427.633	5.015	683633	REC_START	n/a	n/a	6	-999	n/a	n/a	n/a	n/a	3	[0, 0, 0]	-999	PAL1	0	R1131M
432.648	0.002	686141	REC_EVENT	5015.0	n/a	6	2	PEAR	<>	PANTS	PEAR	3	[0, 0, 0]	-999	PAL1	0	R1131M
432.65	0.017	686142	REC_END	n/a	n/a	6	-999	n/a	n/a	n/a	n/a	3	[0, 0, 0]	-999	PAL1	0	R1131M
432.667	0.275	686150	TEST_ORIENT	n/a	n/a	3	3	BLOOM	FOOT	BLOOM	FOOT	3	[0, 0, 0]	-999	PAL1	0	R1131M
433.567	4.0	686600	TEST_PROBE	n/a	wordpools/wordpool_EN.txt	3	3	BLOOM	FOOT	BLOOM	FOOT	3	[0, 0, 0]	-999	PAL1	0	R1131M
433.568	3.181	686601	REC_START	n/a	n/a	3	-999	n/a	FOOT	n/a	n/a	3	[0, 0, 0]	-999	PAL1	0	R1131M
436.749	1.828	688191	REC_EVENT	3181.0	n/a	3	3	BLOOM	FOOT	BLOOM	FOOT	3	[0, 0, 0]	-999	PAL1	0	R1131M
438.577	0.008	689105	REC_END	n/a	n/a	3	-999	n/a	n/a	n/a	n/a	3	[0, 0, 0]	-999	PAL1	0	R1131M
438.585	0.275	689109	TEST_ORIENT	n/a	n/a	2	4	STRING	THREAD	THREAD	STRING	3	[0, 0, 0]	-999	PAL1	0	R1131M
439.42	4.0	689526	TEST_PROBE	n/a	wordpools/wordpool_EN.txt	2	4	STRING	THREAD	THREAD	STRING	3	[0, 0, 0]	-999	PAL1	0	R1131M
439.42	1.017	689526	REC_START	n/a	n/a	2	-999	n/a	THREAD	n/a	n/a	3	[0, 0, 0]	-999	PAL1	0	R1131M
440.437	4.0	690035	REC_EVENT	1017.0	n/a	2	4	STRING	THREAD	THREAD	STRING	3	[0, 0, 0]	-999	PAL1	0	R1131M
444.437	0.017	692035	REC_END	n/a	n/a	2	-999	n/a	n/a	n/a	n/a	3	[0, 0, 0]	-999	PAL1	0	R1131M
444.454	0.275	692043	TEST_ORIENT	n/a	n/a	5	5	BEACH	n/a	LEAF	BEACH	3	[0, 0, 0]	-999	PAL1	0	R1131M
445.303	4.0	692468	TEST_PROBE	n/a	wordpools/wordpool_EN.txt	5	5	BEACH	n/a	LEAF	BEACH	3	[0, 0, 0]	-999	PAL1	0	R1131M
445.303	5.018	692468	REC_START	n/a	n/a	5	-999	n/a	n/a	n/a	n/a	3	[0, 0, 0]	-999	PAL1	0	R1131M
450.321	0.003	694976	REC_END	n/a	n/a	5	-999	n/a	n/a	n/a	n/a	3	[0, 0, 0]	-999	PAL1	0	R1131M
450.324	0.013	694978	REC_EVENT	5021.0	n/a	5	5	BEACH	<>	LEAF	BEACH	3	[0, 0, 0]	-999	PAL1	0	R1131M
450.337	0.275	694984	TEST_ORIENT	n/a	n/a	4	6	SHIP	GRASS	SHIP	GRASS	3	[0, 0, 0]	-999	PAL1	0	R1131M
451.354	4.0	695493	TEST_PROBE	n/a	wordpools/wordpool_EN.txt	4	6	SHIP	GRASS	SHIP	GRASS	3	[0, 0, 0]	-999	PAL1	0	R1131M
451.354	1.18	695493	REC_START	n/a	n/a	4	-999	n/a	GRASS	n/a	n/a	3	[0, 0, 0]	-999	PAL1	0	R1131M
452.534	3.838	696083	REC_EVENT	1180.0	n/a	4	6	SHIP	GRASS	SHIP	GRASS	3	[0, 0, 0]	-999	PAL1	0	R1131M
456.372	2.773	698002	REC_END	n/a	n/a	4	-999	n/a	n/a	n/a	n/a	3	[0, 0, 0]	-999	PAL1	0	R1131M
459.145	10.446	699388	ENCODING_START	n/a	n/a	0	-999	n/a	n/a	n/a	n/a	4	[0, 0, 0]	-999	PAL1	0	R1131M
469.591	0.275	704611	STUDY_ORIENT	n/a	n/a	1	1	DRESS	TREE	DRESS	TREE	4	[0, 0, 0]	-999	PAL1	0	R1131M
470.509	4.0	705070	STUDY_PAIR	n/a	wordpools/wordpool_EN.txt	1	1	DRESS	TREE	DRESS	TREE	4	[0, 0, 0]	-999	PAL1	0	R1131M
475.526	0.275	707578	STUDY_ORIENT	n/a	n/a	2	4	BADGE	BOY	BOY	BADGE	4	[0, 0, 0]	-999	PAL1	0	R1131M
476.427	4.0	708029	STUDY_PAIR	n/a	wordpools/wordpool_EN.txt	2	4	BADGE	BOY	BOY	BADGE	4	[0, 0, 0]	-999	PAL1	0	R1131M
481.461	0.275	710545	STUDY_ORIENT	n/a	n/a	3	5	TEETH	CORD	CORD	TEETH	4	[0, 0, 0]	-999	PAL1	0	R1131M
482.277	4.0	710953	STUDY_PAIR	n/a	wordpools/wordpool_EN.txt	3	5	TEETH	CORD	CORD	TEETH	4	[0, 0, 0]	-999	PAL1	0	R1131M
487.295	0.275	713462	STUDY_ORIENT	n/a	n/a	4	2	FLEA	SHRIMP	SHRIMP	FLEA	4	[0, 0, 0]	-999	PAL1	0	R1131M
488.295	4.0	713962	STUDY_PAIR	n/a	wordpools/wordpool_EN.txt	4	2	FLEA	SHRIMP	SHRIMP	FLEA	4	[0, 0, 0]	-999	PAL1	0	R1131M
493.329	0.275	716479	STUDY_ORIENT	n/a	n/a	5	3	ROOT	JAIL	ROOT	JAIL	4	[0, 0, 0]	-999	PAL1	0	R1131M
494.33	4.0	716979	STUDY_PAIR	n/a	wordpools/wordpool_EN.txt	5	3	ROOT	JAIL	ROOT	JAIL	4	[0, 0, 0]	-999	PAL1	0	R1131M
499.364	0.275	719496	STUDY_ORIENT	n/a	n/a	6	6	CUBE	n/a	CUBE	PIE	4	[0, 0, 0]	-999	PAL1	0	R1131M
500.214	4.0	719921	STUDY_PAIR	n/a	wordpools/wordpool_EN.txt	6	6	CUBE	n/a	CUBE	PIE	4	[0, 0, 0]	-999	PAL1	0	R1131M
504.232	0.999	721930	START	n/a	n/a	-999	-999	n/a	n/a	n/a	n/a	4	[-999, -999, -999]	-999	PAL1	0	R1131M
505.231	0.017	722430	MATH_START	n/a	n/a	-999	-999	n/a	n/a	n/a	n/a	4	[0, 0, 0]	-999	PAL1	0	R1131M
505.248	4.968	722438	PROB	4937.0	n/a	-999	-999	n/a	n/a	n/a	n/a	4	[4, 3, 6]	13	PAL1	0	R1131M
510.216	3.734	724922	PROB	3713.0	n/a	-999	-999	n/a	n/a	n/a	n/a	4	[3, 3, 1]	7	PAL1	0	R1131M
513.95	3.401	726789	PROB	3371.0	n/a	-999	-999	n/a	n/a	n/a	n/a	4	[9, 7, 7]	23	PAL1	0	R1131M
517.351	3.801	728489	PROB	3770.0	n/a	-999	-999	n/a	n/a	n/a	n/a	4	[9, 5, 7]	21	PAL1	0	R1131M
521.152	3.801	730390	PROB	3801.0	n/a	-999	-999	n/a	n/a	n/a	n/a	4	[5, 7, 7]	19	PAL1	0	R1131M
524.953	0.016	732290	STOP	n/a	n/a	-999	-999	n/a	n/a	n/a	n/a	4	[-999, -999, -999]	-999	PAL1	0	R1131M
524.969	0.0	732298	MATH_END	n/a	n/a	-999	-999	n/a	n/a	n/a	n/a	4	[0, 0, 0]	-999	PAL1	0	R1131M
524.969	0.017	732298	TEST_START	n/a	n/a	-999	-999	n/a	n/a	n/a	n/a	4	[0, 0, 0]	-999	PAL1	0	R1131M
524.986	0.275	732306	TEST_ORIENT	n/a	n/a	1	1	DRESS	TREE	DRESS	TREE	4	[0, 0, 0]	-999	PAL1	0	R1131M
525.886	0.0	732756	REC_START	n/a	n/a	1	-999	n/a	TREE	n/a	n/a	4	[0, 0, 0]	-999	PAL1	0	R1131M
525.886	4.0	732756	TEST_PROBE	n/a	wordpools/wordpool_EN.txt	1	1	DRESS	TREE	DRESS	TREE	4	[0, 0, 0]	-999	PAL1	0	R1131M
528.063	2.84	733845	REC_EVENT	2177.0	n/a	1	1	DRESS	TREE	DRESS	TREE	4	[0, 0, 0]	-999	PAL1	0	R1131M
530.903	0.017	735265	REC_END	n/a	n/a	1	-999	n/a	n/a	n/a	n/a	4	[0, 0, 0]	-999	PAL1	0	R1131M
530.92	0.275	735273	TEST_ORIENT	n/a	n/a	4	2	FLEA	SHRIMP	SHRIMP	FLEA	4	[0, 0, 0]	-999	PAL1	0	R1131M
531.87	4.0	735748	TEST_PROBE	n/a	wordpools/wordpool_EN.txt	4	2	FLEA	SHRIMP	SHRIMP	FLEA	4	[0, 0, 0]	-999	PAL1	0	R1131M
531.871	4.719	735749	REC_START	n/a	n/a	4	-999	n/a	SHRIMP	n/a	n/a	4	[0, 0, 0]	-999	PAL1	0	R1131M
536.59	0.291	738108	REC_EVENT	4719.0	n/a	4	2	FLEA	SHRIMP	SHRIMP	FLEA	4	[0, 0, 0]	-999	PAL1	0	R1131M
536.881	0.007	738254	REC_END	n/a	n/a	4	-999	n/a	n/a	n/a	n/a	4	[0, 0, 0]	-999	PAL1	0	R1131M
536.888	0.275	738257	TEST_ORIENT	n/a	n/a	5	3	ROOT	JAIL	ROOT	JAIL	4	[0, 0, 0]	-999	PAL1	0	R1131M
537.788	4.0	738707	TEST_PROBE	n/a	wordpools/wordpool_EN.txt	5	3	ROOT	JAIL	ROOT	JAIL	4	[0, 0, 0]	-999	PAL1	0	R1131M
537.788	1.56	738707	REC_START	n/a	n/a	5	-999	n/a	JAIL	n/a	n/a	4	[0, 0, 0]	-999	PAL1	0	R1131M
539.348	3.458	739487	REC_EVENT	1560.0	n/a	5	3	ROOT	JAIL	ROOT	JAIL	4	[0, 0, 0]	-999	PAL1	0	R1131M
542.806	0.016	741216	REC_END	n/a	n/a	5	-999	n/a	n/a	n/a	n/a	4	[0, 0, 0]	-999	PAL1	0	R1131M
542.822	0.275	741224	TEST_ORIENT	n/a	n/a	2	4	BADGE	BOY	BOY	BADGE	4	[0, 0, 0]	-999	PAL1	0	R1131M
543.623	0.0	741624	REC_START	n/a	n/a	2	-999	n/a	BOY	n/a	n/a	4	[0, 0, 0]	-999	PAL1	0	R1131M
543.623	4.0	741624	TEST_PROBE	n/a	wordpools/wordpool_EN.txt	2	4	BADGE	BOY	BOY	BADGE	4	[0, 0, 0]	-999	PAL1	0	R1131M
544.62	4.02	742123	REC_EVENT	997.0	n/a	2	4	BADGE	BOY	BOY	BADGE	4	[0, 0, 0]	-999	PAL1	0	R1131M
548.64	0.017	744133	REC_END	n/a	n/a	2	-999	n/a	n/a	n/a	n/a	4	[0, 0, 0]	-999	PAL1	0	R1131M
548.657	0.275	744141	TEST_ORIENT	n/a	n/a	3	5	TEETH	CORD	CORD	TEETH	4	[0, 0, 0]	-999	PAL1	0	R1131M
549.657	4.0	744641	TEST_PROBE	n/a	wordpools/wordpool_EN.txt	3	5	TEETH	CORD	CORD	TEETH	4	[0, 0, 0]	-999	PAL1	0	R1131M
549.658	1.334	744642	REC_START	n/a	n/a	3	-999	n/a	CORD	n/a	n/a	4	[0, 0, 0]	-999	PAL1	0	R1131M
550.992	3.676	745309	REC_EVENT	1334.0	n/a	3	5	TEETH	CORD	CORD	TEETH	4	[0, 0, 0]	-999	PAL1	0	R1131M
554.668	0.007	747146	REC_END	n/a	n/a	3	-999	n/a	n/a	n/a	n/a	4	[0, 0, 0]	-999	PAL1	0	R1131M
554.675	0.275	747150	TEST_ORIENT	n/a	n/a	6	6	CUBE	n/a	CUBE	PIE	4	[0, 0, 0]	-999	PAL1	0	R1131M
555.675	4.0	747650	TEST_PROBE	n/a	wordpools/wordpool_EN.txt	6	6	CUBE	n/a	CUBE	PIE	4	[0, 0, 0]	-999	PAL1	0	R1131M
555.676	5.015	747650	REC_START	n/a	n/a	6	-999	n/a	n/a	n/a	n/a	4	[0, 0, 0]	-999	PAL1	0	R1131M
560.691	0.001	750158	REC_EVENT	5015.0	n/a	6	6	CUBE	<>	CUBE	PIE	4	[0, 0, 0]	-999	PAL1	0	R1131M
560.692	3.277	750158	REC_END	n/a	n/a	6	-999	n/a	n/a	n/a	n/a	4	[0, 0, 0]	-999	PAL1	0	R1131M
563.969	10.444	751797	ENCODING_START	n/a	n/a	0	-999	n/a	n/a	n/a	n/a	5	[0, 0, 0]	-999	PAL1	0	R1131M
574.413	0.275	757018	STUDY_ORIENT	n/a	n/a	1	5	GLOVE	TRUCK	GLOVE	TRUCK	5	[0, 0, 0]	-999	PAL1	0	R1131M
575.279	4.0	757451	STUDY_PAIR	n/a	wordpools/wordpool_EN.txt	1	5	GLOVE	TRUCK	GLOVE	TRUCK	5	[0, 0, 0]	-999	PAL1	0	R1131M
580.313	0.275	759968	STUDY_ORIENT	n/a	n/a	2	4	STEAM	HOSE	CALF	STEAM	5	[0, 0, 0]	-999	PAL1	0	R1131M
581.297	4.0	760460	STUDY_PAIR	n/a	wordpools/wordpool_EN.txt	2	4	STEAM	HOSE	CALF	STEAM	5	[0, 0, 0]	-999	PAL1	0	R1131M
586.331	0.275	762977	STUDY_ORIENT	n/a	n/a	3	3	GLASS	PHONE	GLASS	PHONE	5	[0, 0, 0]	-999	PAL1	0	R1131M
587.315	4.0	763469	STUDY_PAIR	n/a	wordpools/wordpool_EN.txt	3	3	GLASS	PHONE	GLASS	PHONE	5	[0, 0, 0]	-999	PAL1	0	R1131M
592.349	0.275	765986	STUDY_ORIENT	n/a	n/a	4	2	JET	HOSE	JET	HOSE	5	[0, 0, 0]	-999	PAL1	0	R1131M
593.349	4.0	766486	STUDY_PAIR	n/a	wordpools/wordpool_EN.txt	4	2	JET	HOSE	JET	HOSE	5	[0, 0, 0]	-999	PAL1	0	R1131M
598.367	0.275	768994	STUDY_ORIENT	n/a	n/a	5	1	MAIL	HAT	HAT	MAIL	5	[0, 0, 0]	-999	PAL1	0	R1131M
599.167	4.0	769394	STUDY_PAIR	n/a	wordpools/wordpool_EN.txt	5	1	MAIL	HAT	HAT	MAIL	5	[0, 0, 0]	-999	PAL1	0	R1131M
604.201	0.275	771911	STUDY_ORIENT	n/a	n/a	6	6	CONE	n/a	GOLD	CONE	5	[0, 0, 0]	-999	PAL1	0	R1131M
604.985	4.0	772303	STUDY_PAIR	n/a	wordpools/wordpool_EN.txt	6	6	CONE	n/a	GOLD	CONE	5	[0, 0, 0]	-999	PAL1	0	R1131M
609.003	0.999	774312	START	n/a	n/a	-999	-999	n/a	n/a	n/a	n/a	5	[-999, -999, -999]	-999	PAL1	0	R1131M
610.002	0.017	774812	MATH_START	n/a	n/a	-999	-999	n/a	n/a	n/a	n/a	5	[0, 0, 0]	-999	PAL1	0	R1131M
610.019	4.568	774820	PROB	4534.0	n/a	-999	-999	n/a	n/a	n/a	n/a	5	[8, 8, 8]	24	PAL1	0	R1131M
614.587	4.902	777104	PROB	4879.0	n/a	-999	-999	n/a	n/a	n/a	n/a	5	[9, 3, 6]	18	PAL1	0	R1131M
619.489	13.056	779555	PROB	13056.0	n/a	-999	-999	n/a	n/a	n/a	n/a	5	[9, 8, 8]	25	PAL1	0	R1131M
632.545	0.012	786082	STOP	n/a	n/a	-999	-999	n/a	n/a	n/a	n/a	5	[-999, -999, -999]	-999	PAL1	0	R1131M
632.557	0.0	786088	TEST_START	n/a	n/a	-999	-999	n/a	n/a	n/a	n/a	5	[0, 0, 0]	-999	PAL1	0	R1131M
632.557	0.017	786088	MATH_END	n/a	n/a	-999	-999	n/a	n/a	n/a	n/a	5	[0, 0, 0]	-999	PAL1	0	R1131M
632.574	0.275	786097	TEST_ORIENT	n/a	n/a	5	1	MAIL	HAT	HAT	MAIL	5	[0, 0, 0]	-999	PAL1	0	R1131M
633.574	4.0	786597	TEST_PROBE	n/a	wordpools/wordpool_EN.txt	5	1	MAIL	HAT	HAT	MAIL	5	[0, 0, 0]	-999	PAL1	0	R1131M
633.574	1.717	786597	REC_START	n/a	n/a	5	-999	n/a	HAT	n/a	n/a	5	[0, 0, 0]	-999	PAL1	0	R1131M
635.291	3.3	787455	REC_EVENT	1717.0	n/a	5	1	MAIL	HAT	HAT	MAIL	5	[0, 0, 0]	-999	PAL1	0	R1131M
638.591	0.017	789105	REC_END	n/a	n/a	5	-999	n/a	n/a	n/a	n/a	5	[0, 0, 0]	-999	PAL1	0	R1131M
638.608	0.275	789114	TEST_ORIENT	n/a	n/a	4	2	JET	HOSE	JET	HOSE	5	[0, 0, 0]	-999	PAL1	0	R1131M
639.426	4.0	789523	TEST_PROBE	n/a	wordpools/wordpool_EN.txt	4	2	JET	HOSE	JET	HOSE	5	[0, 0, 0]	-999	PAL1	0	R1131M
639.426	1.084	789523	REC_START	n/a	n/a	4	-999	n/a	HOSE	n/a	n/a	5	[0, 0, 0]	-999	PAL1	0	R1131M
640.51	3.933	790064	REC_EVENT	1084.0	n/a	4	2	JET	HOSE	JET	HOSE	5	[0, 0, 0]	-999	PAL1	0	R1131M
644.443	0.017	792031	REC_END	n/a	n/a	4	-999	n/a	n/a	n/a	n/a	5	[0, 0, 0]	-999	PAL1	0	R1131M
644.46	0.275	792039	TEST_ORIENT	n/a	n/a	3	3	GLASS	PHONE	GLASS	PHONE	5	[0, 0, 0]	-999	PAL1	0	R1131M
645.46	4.0	792539	TEST_PROBE	n/a	wordpools/wordpool_EN.txt	3	3	GLASS	PHONE	GLASS	PHONE	5	[0, 0, 0]	-999	PAL1	0	R1131M
645.461	1.735	792540	REC_START	n/a	n/a	3	-999	n/a	PHONE	n/a	n/a	5	[0, 0, 0]	-999	PAL1	0	R1131M
647.196	3.273	793407	REC_EVENT	1735.0	n/a	3	3	GLASS	PHONE	GLASS	PHONE	5	[0, 0, 0]	-999	PAL1	0	R1131M
650.469	0.009	795044	REC_END	n/a	n/a	3	-999	n/a	n/a	n/a	n/a	5	[0, 0, 0]	-999	PAL1	0	R1131M
650.478	0.275	795048	TEST_ORIENT	n/a	n/a	2	4	STEAM	HOSE	CALF	STEAM	5	[0, 0, 0]	-999	PAL1	0	R1131M
651.428	4.0	795523	TEST_PROBE	n/a	wordpools/wordpool_EN.txt	2	4	STEAM	HOSE	CALF	STEAM	5	[0, 0, 0]	-999	PAL1	0	R1131M
651.429	1.492	795524	REC_START	n/a	n/a	2	-999	n/a	HOSE	n/a	n/a	5	[0, 0, 0]	-999	PAL1	0	R1131M
652.921	3.517	796270	REC_EVENT	1492.0	n/a	2	4	STEAM	HOSE	CALF	STEAM	5	[0, 0, 0]	-999	PAL1	0	R1131M
656.438	0.008	798028	REC_END	n/a	n/a	2	-999	n/a	n/a	n/a	n/a	5	[0, 0, 0]	-999	PAL1	0	R1131M
656.446	0.275	798032	TEST_ORIENT	n/a	n/a	1	5	GLOVE	TRUCK	GLOVE	TRUCK	5	[0, 0, 0]	-999	PAL1	0	R1131M
657.329	4.0	798473	TEST_PROBE	n/a	wordpools/wordpool_EN.txt	1	5	GLOVE	TRUCK	GLOVE	TRUCK	5	[0, 0, 0]	-999	PAL1	0	R1131M
657.329	3.49	798473	REC_START	n/a	n/a	1	-999	n/a	TRUCK	n/a	n/a	5	[0, 0, 0]	-999	PAL1	0	R1131M
660.819	1.527	800218	REC_EVENT	3490.0	n/a	1	5	GLOVE	TRUCK	GLOVE	TRUCK	5	[0, 0, 0]	-999	PAL1	0	R1131M
662.346	0.017	800982	REC_END	n/a	n/a	1	-999	n/a	n/a	n/a	n/a	5	[0, 0, 0]	-999	PAL1	0	R1131M
662.363	0.275	800990	TEST_ORIENT	n/a	n/a	6	6	CONE	n/a	GOLD	CONE	5	[0, 0, 0]	-999	PAL1	0	R1131M
663.296	4.0	801457	TEST_PROBE	n/a	wordpools/wordpool_EN.txt	6	6	CONE	n/a	GOLD	CONE	5	[0, 0, 0]	-999	PAL1	0	R1131M
663.297	5.008	801457	REC_START	n/a	n/a	6	-999	n/a	n/a	n/a	n/a	5	[0, 0, 0]	-999	PAL1	0	R1131M
668.305	0.001	803961	REC_END	n/a	n/a	6	-999	n/a	n/a	n/a	n/a	5	[0, 0, 0]	-999	PAL1	0	R1131M
668.306	8.927	803962	REC_EVENT	5009.0	n/a	6	6	CONE	<>	GOLD	CONE	5	[0, 0, 0]	-999	PAL1	0	R1131M
677.233	10.452	808425	ENCODING_START	n/a	n/a	0	-999	n/a	n/a	n/a	n/a	6	[0, 0, 0]	-999	PAL1	0	R1131M
687.685	0.275	813650	STUDY_ORIENT	n/a	n/a	1	1	ROCK	FARM	ROCK	FARM	6	[0, 0, 0]	-999	PAL1	0	R1131M
688.635	4.0	814125	STUDY_PAIR	n/a	wordpools/wordpool_EN.txt	1	1	ROCK	FARM	ROCK	FARM	6	[0, 0, 0]	-999	PAL1	0	R1131M
693.669	0.275	816642	STUDY_ORIENT	n/a	n/a	2	2	MUG	TOOTH	MUG	TOOTH	6	[0, 0, 0]	-999	PAL1	0	R1131M
694.487	4.0	817051	STUDY_PAIR	n/a	wordpools/wordpool_EN.txt	2	2	MUG	TOOTH	MUG	TOOTH	6	[0, 0, 0]	-999	PAL1	0	R1131M
699.52	0.275	819567	STUDY_ORIENT	n/a	n/a	3	3	STEM	ROOM	STEM	ROOM	6	[0, 0, 0]	-999	PAL1	0	R1131M
700.438	4.0	820026	STUDY_PAIR	n/a	wordpools/wordpool_EN.txt	3	3	STEM	ROOM	STEM	ROOM	6	[0, 0, 0]	-999	PAL1	0	R1131M
705.456	0.275	822535	STUDY_ORIENT	n/a	n/a	4	6	BRIDGE	BOMB	BRIDGE	BOMB	6	[0, 0, 0]	-999	PAL1	0	R1131M
706.473	4.0	823044	STUDY_PAIR	n/a	wordpools/wordpool_EN.txt	4	6	BRIDGE	BOMB	BRIDGE	BOMB	6	[0, 0, 0]	-999	PAL1	0	R1131M
711.507	0.275	825561	STUDY_ORIENT	n/a	n/a	5	5	STRAW	CAPE	CAPE	STRAW	6	[0, 0, 0]	-999	PAL1	0	R1131M
712.306	4.0	825960	STUDY_PAIR	n/a	wordpools/wordpool_EN.txt	5	5	STRAW	CAPE	CAPE	STRAW	6	[0, 0, 0]	-999	PAL1	0	R1131M
717.324	0.275	828469	STUDY_ORIENT	n/a	n/a	6	4	WALL	RAKE	RAKE	WALL	6	[0, 0, 0]	-999	PAL1	0	R1131M
718.174	4.0	828894	STUDY_PAIR	n/a	wordpools/wordpool_EN.txt	6	4	WALL	RAKE	RAKE	WALL	6	[0, 0, 0]	-999	PAL1	0	R1131M
722.192	0.999	830903	START	n/a	n/a	-999	-999	n/a	n/a	n/a	n/a	6	[-999, -999, -999]	-999	PAL1	0	R1131M
723.191	0.017	831402	MATH_START	n/a	n/a	-999	-999	n/a	n/a	n/a	n/a	6	[0, 0, 0]	-999	PAL1	0	R1131M
723.208	4.835	831411	PROB	4801.0	n/a	-999	-999	n/a	n/a	n/a	n/a	6	[6, 5, 2]	13	PAL1	0	R1131M
728.043	4.351	833828	PROB	4326.0	n/a	-999	-999	n/a	n/a	n/a	n/a	6	[1, 8, 5]	14	PAL1	0	R1131M
732.394	3.25	836003	PROB	3223.0	n/a	-999	-999	n/a	n/a	n/a	n/a	6	[4, 6, 3]	13	PAL1	0	R1131M
735.644	6.235	837628	PROB	6205.0	n/a	-999	-999	n/a	n/a	n/a	n/a	6	[5, 6, 8]	19	PAL1	0	R1131M
741.879	4.386	840745	PROB	4386.0	n/a	-999	-999	n/a	n/a	n/a	n/a	6	[5, 9, 3]	17	PAL1	0	R1131M
746.265	0.015	842938	STOP	n/a	n/a	-999	-999	n/a	n/a	n/a	n/a	6	[-999, -999, -999]	-999	PAL1	0	R1131M
746.28	0.0	842946	MATH_END	n/a	n/a	-999	-999	n/a	n/a	n/a	n/a	6	[0, 0, 0]	-999	PAL1	0	R1131M
746.28	0.016	842946	TEST_START	n/a	n/a	-999	-999	n/a	n/a	n/a	n/a	6	[0, 0, 0]	-999	PAL1	0	R1131M
746.296	0.275	842954	TEST_ORIENT	n/a	n/a	1	1	ROCK	FARM	ROCK	FARM	6	[0, 0, 0]	-999	PAL1	0	R1131M
747.246	4.0	843429	TEST_PROBE	n/a	wordpools/wordpool_EN.txt	1	1	ROCK	FARM	ROCK	FARM	6	[0, 0, 0]	-999	PAL1	0	R1131M
747.247	1.55	843429	REC_START	n/a	n/a	1	-999	n/a	FARM	n/a	n/a	6	[0, 0, 0]	-999	PAL1	0	R1131M
748.797	3.459	844204	REC_EVENT	1550.0	n/a	1	1	ROCK	FARM	ROCK	FARM	6	[0, 0, 0]	-999	PAL1	0	R1131M
752.256	0.008	845934	REC_END	n/a	n/a	1	-999	n/a	n/a	n/a	n/a	6	[0, 0, 0]	-999	PAL1	0	R1131M
752.264	0.275	845938	TEST_ORIENT	n/a	n/a	2	2	MUG	TOOTH	MUG	TOOTH	6	[0, 0, 0]	-999	PAL1	0	R1131M
753.131	4.0	846371	TEST_PROBE	n/a	wordpools/wordpool_EN.txt	2	2	MUG	TOOTH	MUG	TOOTH	6	[0, 0, 0]	-999	PAL1	0	R1131M
753.131	2.504	846371	REC_START	n/a	n/a	2	-999	n/a	TOOTH	n/a	n/a	6	[0, 0, 0]	-999	PAL1	0	R1131M
755.635	2.513	847623	REC_EVENT	2504.0	n/a	2	2	MUG	TOOTH	MUG	TOOTH	6	[0, 0, 0]	-999	PAL1	0	R1131M
758.148	0.017	848879	REC_END	n/a	n/a	2	-999	n/a	n/a	n/a	n/a	6	[0, 0, 0]	-999	PAL1	0	R1131M
758.165	0.275	848888	TEST_ORIENT	n/a	n/a	3	3	STEM	ROOM	STEM	ROOM	6	[0, 0, 0]	-999	PAL1	0	R1131M
759.099	0.0	849355	REC_START	n/a	n/a	3	-999	n/a	ROOM	n/a	n/a	6	[0, 0, 0]	-999	PAL1	0	R1131M
759.099	4.0	849355	TEST_PROBE	n/a	wordpools/wordpool_EN.txt	3	3	STEM	ROOM	STEM	ROOM	6	[0, 0, 0]	-999	PAL1	0	R1131M
761.177	2.939	850394	REC_EVENT	2078.0	n/a	3	3	STEM	ROOM	STEM	ROOM	6	[0, 0, 0]	-999	PAL1	0	R1131M
764.116	0.017	851863	REC_END	n/a	n/a	3	-999	n/a	n/a	n/a	n/a	6	[0, 0, 0]	-999	PAL1	0	R1131M
764.133	0.275	851872	TEST_ORIENT	n/a	n/a	6	4	WALL	RAKE	RAKE	WALL	6	[0, 0, 0]	-999	PAL1	0	R1131M
765.166	4.0	852388	TEST_PROBE	n/a	wordpools/wordpool_EN.txt	6	4	WALL	RAKE	RAKE	WALL	6	[0, 0, 0]	-999	PAL1	0	R1131M
765.167	1.381	852389	REC_START	n/a	n/a	6	-999	n/a	RAKE	n/a	n/a	6	[0, 0, 0]	-999	PAL1	0	R1131M
766.548	3.628	853079	REC_EVENT	1381.0	n/a	6	4	WALL	RAKE	RAKE	WALL	6	[0, 0, 0]	-999	PAL1	0	R1131M
770.176	0.008	854893	REC_END	n/a	n/a	6	-999	n/a	n/a	n/a	n/a	6	[0, 0, 0]	-999	PAL1	0	R1131M
770.184	0.275	854897	TEST_ORIENT	n/a	n/a	5	5	STRAW	CAPE	CAPE	STRAW	6	[0, 0, 0]	-999	PAL1	0	R1131M
771.068	4.0	855339	TEST_PROBE	n/a	wordpools/wordpool_EN.txt	5	5	STRAW	CAPE	CAPE	STRAW	6	[0, 0, 0]	-999	PAL1	0	R1131M
771.068	2.333	855339	REC_START	n/a	n/a	5	-999	n/a	CAPE	n/a	n/a	6	[0, 0, 0]	-999	PAL1	0	R1131M
773.401	2.684	856505	REC_EVENT	2333.0	n/a	5	5	STRAW	CAPE	CAPE	STRAW	6	[0, 0, 0]	-999	PAL1	0	R1131M
776.085	0.017	857847	REC_END	n/a	n/a	5	-999	n/a	n/a	n/a	n/a	6	[0, 0, 0]	-999	PAL1	0	R1131M
776.102	0.275	857856	TEST_ORIENT	n/a	n/a	4	6	BRIDGE	BOMB	BRIDGE	BOMB	6	[0, 0, 0]	-999	PAL1	0	R1131M
777.136	0.0	858373	REC_START	n/a	n/a	4	-999	n/a	BOMB	n/a	n/a	6	[0, 0, 0]	-999	PAL1	0	R1131M
777.136	4.0	858373	TEST_PROBE	n/a	wordpools/wordpool_EN.txt	4	6	BRIDGE	BOMB	BRIDGE	BOMB	6	[0, 0, 0]	-999	PAL1	0	R1131M
778.502	3.651	859056	REC_EVENT	1366.0	n/a	4	6	BRIDGE	BOMB	BRIDGE	BOMB	6	[0, 0, 0]	-999	PAL1	0	R1131M
782.153	6.249	860881	REC_END	n/a	n/a	4	-999	n/a	n/a	n/a	n/a	6	[0, 0, 0]	-999	PAL1	0	R1131M
788.402	10.438	864005	ENCODING_START	n/a	n/a	0	-999	n/a	n/a	n/a	n/a	7	[0, 0, 0]	-999	PAL1	0	R1131M
798.84	0.275	869224	STUDY_ORIENT	n/a	n/a	1	5	FLUTE	n/a	FLUTE	CRANE	7	[0, 0, 0]	-999	PAL1	0	R1131M
799.64	4.0	869624	STUDY_PAIR	n/a	wordpools/wordpool_EN.txt	1	5	FLUTE	n/a	FLUTE	CRANE	7	[0, 0, 0]	-999	PAL1	0	R1131M
804.658	0.275	872133	STUDY_ORIENT	n/a	n/a	2	2	MOUSE	BENCH	BENCH	MOUSE	7	[0, 0, 0]	-999	PAL1	0	R1131M
805.509	4.0	872558	STUDY_PAIR	n/a	wordpools/wordpool_EN.txt	2	2	MOUSE	BENCH	BENCH	MOUSE	7	[0, 0, 0]	-999	PAL1	0	R1131M
810.542	0.275	875075	STUDY_ORIENT	n/a	n/a	3	3	CHIEF	SEA	SEA	CHIEF	7	[0, 0, 0]	-999	PAL1	0	R1131M
811.427	4.0	875517	STUDY_PAIR	n/a	wordpools/wordpool_EN.txt	3	3	CHIEF	SEA	SEA	CHIEF	7	[0, 0, 0]	-999	PAL1	0	R1131M
816.461	0.275	878034	STUDY_ORIENT	n/a	n/a	4	4	DOOR	n/a	SKUNK	DOOR	7	[0, 0, 0]	-999	PAL1	0	R1131M
817.344	4.0	878475	STUDY_PAIR	n/a	wordpools/wordpool_EN.txt	4	4	DOOR	n/a	SKUNK	DOOR	7	[0, 0, 0]	-999	PAL1	0	R1131M
822.378	0.275	880992	STUDY_ORIENT	n/a	n/a	5	1	BEAK	FOG	BEAK	FOG	7	[0, 0, 0]	-999	PAL1	0	R1131M
823.295	4.0	881451	STUDY_PAIR	n/a	wordpools/wordpool_EN.txt	5	1	BEAK	FOG	BEAK	FOG	7	[0, 0, 0]	-999	PAL1	0	R1131M
828.329	0.275	883968	STUDY_ORIENT	n/a	n/a	6	6	TRASH	BARN	TRASH	BARN	7	[0, 0, 0]	-999	PAL1	0	R1131M
829.163	4.0	884385	STUDY_PAIR	n/a	wordpools/wordpool_EN.txt	6	6	TRASH	BARN	TRASH	BARN	7	[0, 0, 0]	-999	PAL1	0	R1131M
833.181	0.999	886393	START	n/a	n/a	-999	-999	n/a	n/a	n/a	n/a	7	[-999, -999, -999]	-999	PAL1	0	R1131M
834.18	0.017	886893	MATH_START	n/a	n/a	-999	-999	n/a	n/a	n/a	n/a	7	[0, 0, 0]	-999	PAL1	0	R1131M
834.197	4.751	886901	PROB	4724.0	n/a	-999	-999	n/a	n/a	n/a	n/a	7	[3, 3, 9]	15	PAL1	0	R1131M
838.948	11.553	889277	PROB	11526.0	n/a	-999	-999	n/a	n/a	n/a	n/a	7	[3, 3, 9]	15	PAL1	0	R1131M
850.501	4.316	895053	PROB	4316.0	n/a	-999	-999	n/a	n/a	n/a	n/a	7	[5, 4, 8]	17	PAL1	0	R1131M
854.817	0.017	897211	STOP	n/a	n/a	-999	-999	n/a	n/a	n/a	n/a	7	[-999, -999, -999]	-999	PAL1	0	R1131M
854.834	0.0	897219	MATH_END	n/a	n/a	-999	-999	n/a	n/a	n/a	n/a	7	[0, 0, 0]	-999	PAL1	0	R1131M
854.834	0.017	897219	TEST_START	n/a	n/a	-999	-999	n/a	n/a	n/a	n/a	7	[0, 0, 0]	-999	PAL1	0	R1131M
854.851	0.275	897228	TEST_ORIENT	n/a	n/a	5	1	BEAK	FOG	BEAK	FOG	7	[0, 0, 0]	-999	PAL1	0	R1131M
855.835	4.0	897720	TEST_PROBE	n/a	wordpools/wordpool_EN.txt	5	1	BEAK	FOG	BEAK	FOG	7	[0, 0, 0]	-999	PAL1	0	R1131M
855.835	2.25	897720	REC_START	n/a	n/a	5	-999	n/a	FOG	n/a	n/a	7	[0, 0, 0]	-999	PAL1	0	R1131M
858.085	2.767	898845	REC_EVENT	2250.0	n/a	5	1	BEAK	FOG	BEAK	FOG	7	[0, 0, 0]	-999	PAL1	0	R1131M
860.852	0.017	900228	REC_END	n/a	n/a	5	-999	n/a	n/a	n/a	n/a	7	[0, 0, 0]	-999	PAL1	0	R1131M
860.869	0.275	900236	TEST_ORIENT	n/a	n/a	2	2	MOUSE	BENCH	BENCH	MOUSE	7	[0, 0, 0]	-999	PAL1	0	R1131M
861.886	0.0	900745	REC_START	n/a	n/a	2	-999	n/a	BENCH	n/a	n/a	7	[0, 0, 0]	-999	PAL1	0	R1131M
861.886	4.0	900745	TEST_PROBE	n/a	wordpools/wordpool_EN.txt	2	2	MOUSE	BENCH	BENCH	MOUSE	7	[0, 0, 0]	-999	PAL1	0	R1131M
863.071	3.832	901337	REC_EVENT	1185.0	n/a	2	2	MOUSE	BENCH	BENCH	MOUSE	7	[0, 0, 0]	-999	PAL1	0	R1131M
866.903	0.017	903253	REC_END	n/a	n/a	2	-999	n/a	n/a	n/a	n/a	7	[0, 0, 0]	-999	PAL1	0	R1131M
866.92	0.275	903262	TEST_ORIENT	n/a	n/a	3	3	CHIEF	SEA	SEA	CHIEF	7	[0, 0, 0]	-999	PAL1	0	R1131M
867.87	4.0	903737	TEST_PROBE	n/a	wordpools/wordpool_EN.txt	3	3	CHIEF	SEA	SEA	CHIEF	7	[0, 0, 0]	-999	PAL1	0	R1131M
867.871	1.239	903737	REC_START	n/a	n/a	3	-999	n/a	SEA	n/a	n/a	7	[0, 0, 0]	-999	PAL1	0	R1131M
869.11	3.77	904357	REC_EVENT	1239.0	n/a	3	3	CHIEF	SEA	SEA	CHIEF	7	[0, 0, 0]	-999	PAL1	0	R1131M
872.88	0.008	906242	REC_END	n/a	n/a	3	-999	n/a	n/a	n/a	n/a	7	[0, 0, 0]	-999	PAL1	0	R1131M
872.888	0.275	906246	TEST_ORIENT	n/a	n/a	4	4	DOOR	n/a	SKUNK	DOOR	7	[0, 0, 0]	-999	PAL1	0	R1131M
873.771	4.0	906687	TEST_PROBE	n/a	wordpools/wordpool_EN.txt	4	4	DOOR	n/a	SKUNK	DOOR	7	[0, 0, 0]	-999	PAL1	0	R1131M
873.772	5.009	906687	REC_START	n/a	n/a	4	-999	n/a	n/a	n/a	n/a	7	[0, 0, 0]	-999	PAL1	0	R1131M
878.781	0.0	909192	REC_END	n/a	n/a	4	-999	n/a	n/a	n/a	n/a	7	[0, 0, 0]	-999	PAL1	0	R1131M
878.781	0.008	909192	REC_EVENT	5009.0	n/a	4	4	DOOR	<>	SKUNK	DOOR	7	[0, 0, 0]	-999	PAL1	0	R1131M
878.789	0.275	909196	TEST_ORIENT	n/a	n/a	1	5	FLUTE	n/a	FLUTE	CRANE	7	[0, 0, 0]	-999	PAL1	0	R1131M
879.823	0.0	909713	REC_START	n/a	n/a	1	-999	n/a	n/a	n/a	n/a	7	[0, 0, 0]	-999	PAL1	0	R1131M
879.823	4.0	909713	TEST_PROBE	n/a	wordpools/wordpool_EN.txt	1	5	FLUTE	n/a	FLUTE	CRANE	7	[0, 0, 0]	-999	PAL1	0	R1131M
884.838	0.002	912220	REC_EVENT	5015.0	n/a	1	5	FLUTE	<>	FLUTE	CRANE	7	[0, 0, 0]	-999	PAL1	0	R1131M
884.84	0.017	912221	REC_END	n/a	n/a	1	-999	n/a	n/a	n/a	n/a	7	[0, 0, 0]	-999	PAL1	0	R1131M
884.857	0.275	912230	TEST_ORIENT	n/a	n/a	6	6	TRASH	BARN	TRASH	BARN	7	[0, 0, 0]	-999	PAL1	0	R1131M
885.874	4.0	912738	TEST_PROBE	n/a	wordpools/wordpool_EN.txt	6	6	TRASH	BARN	TRASH	BARN	7	[0, 0, 0]	-999	PAL1	0	R1131M
885.874	1.332	912738	REC_START	n/a	n/a	6	-999	n/a	BARN	n/a	n/a	7	[0, 0, 0]	-999	PAL1	0	R1131M
887.206	3.685	913404	REC_EVENT	1332.0	n/a	6	6	TRASH	BARN	TRASH	BARN	7	[0, 0, 0]	-999	PAL1	0	R1131M
890.891	3.622	915246	REC_END	n/a	n/a	6	-999	n/a	n/a	n/a	n/a	7	[0, 0, 0]	-999	PAL1	0	R1131M
894.513	10.448	917057	ENCODING_START	n/a	n/a	0	-999	n/a	n/a	n/a	n/a	8	[0, 0, 0]	-999	PAL1	0	R1131M
904.961	0.275	922281	STUDY_ORIENT	n/a	n/a	1	1	HOUSE	NOSE	NOSE	HOUSE	8	[0, 0, 0]	-999	PAL1	0	R1131M
905.845	4.0	922723	STUDY_PAIR	n/a	wordpools/wordpool_EN.txt	1	1	HOUSE	NOSE	NOSE	HOUSE	8	[0, 0, 0]	-999	PAL1	0	R1131M
910.879	0.275	925240	STUDY_ORIENT	n/a	n/a	2	6	FORK	ZOO	ZOO	FORK	8	[0, 0, 0]	-999	PAL1	0	R1131M
911.746	4.0	925673	STUDY_PAIR	n/a	wordpools/wordpool_EN.txt	2	6	FORK	ZOO	ZOO	FORK	8	[0, 0, 0]	-999	PAL1	0	R1131M
916.78	0.275	928190	STUDY_ORIENT	n/a	n/a	3	3	STONE	CAVE	STONE	CAVE	8	[0, 0, 0]	-999	PAL1	0	R1131M
917.747	4.0	928673	STUDY_PAIR	n/a	wordpools/wordpool_EN.txt	3	3	STONE	CAVE	STONE	CAVE	8	[0, 0, 0]	-999	PAL1	0	R1131M
922.781	0.275	931190	STUDY_ORIENT	n/a	n/a	4	2	BIRD	INK	BIRD	INK	8	[0, 0, 0]	-999	PAL1	0	R1131M
923.615	4.0	931607	STUDY_PAIR	n/a	wordpools/wordpool_EN.txt	4	2	BIRD	INK	BIRD	INK	8	[0, 0, 0]	-999	PAL1	0	R1131M
928.649	0.275	934124	STUDY_ORIENT	n/a	n/a	5	5	SNOW	ROAD	SNOW	ROAD	8	[0, 0, 0]	-999	PAL1	0	R1131M
929.666	4.0	934633	STUDY_PAIR	n/a	wordpools/wordpool_EN.txt	5	5	SNOW	ROAD	SNOW	ROAD	8	[0, 0, 0]	-999	PAL1	0	R1131M
934.7	0.275	937149	STUDY_ORIENT	n/a	n/a	6	4	JEEP	n/a	JEEP	FOAM	8	[0, 0, 0]	-999	PAL1	0	R1131M
935.501	4.0	937550	STUDY_PAIR	n/a	wordpools/wordpool_EN.txt	6	4	JEEP	n/a	JEEP	FOAM	8	[0, 0, 0]	-999	PAL1	0	R1131M
939.503	0.999	939551	START	n/a	n/a	-999	-999	n/a	n/a	n/a	n/a	8	[-999, -999, -999]	-999	PAL1	0	R1131M
940.502	0.016	940050	MATH_START	n/a	n/a	-999	-999	n/a	n/a	n/a	n/a	8	[0, 0, 0]	-999	PAL1	0	R1131M
940.518	4.251	940058	PROB	4219.0	n/a	-999	-999	n/a	n/a	n/a	n/a	8	[5, 4, 2]	11	PAL1	0	R1131M
944.769	3.702	942184	PROB	3681.0	n/a	-999	-999	n/a	n/a	n/a	n/a	8	[9, 6, 1]	16	PAL1	0	R1131M
948.471	2.766	944034	PROB	2738.0	n/a	-999	-999	n/a	n/a	n/a	n/a	8	[1, 4, 4]	9	PAL1	0	R1131M
951.237	3.284	945417	PROB	3253.0	n/a	-999	-999	n/a	n/a	n/a	n/a	8	[3, 2, 2]	7	PAL1	0	R1131M
954.521	5.104	947059	PROB	5104.0	n/a	-999	-999	n/a	n/a	n/a	n/a	8	[7, 9, 5]	21	PAL1	0	R1131M
959.625	0.014	949611	STOP	n/a	n/a	-999	-999	n/a	n/a	n/a	n/a	8	[-999, -999, -999]	-999	PAL1	0	R1131M
959.639	0.0	949618	MATH_END	n/a	n/a	-999	-999	n/a	n/a	n/a	n/a	8	[0, 0, 0]	-999	PAL1	0	R1131M
959.639	0.016	949618	TEST_START	n/a	n/a	-999	-999	n/a	n/a	n/a	n/a	8	[0, 0, 0]	-999	PAL1	0	R1131M
959.655	0.275	949626	TEST_ORIENT	n/a	n/a	1	1	HOUSE	NOSE	NOSE	HOUSE	8	[0, 0, 0]	-999	PAL1	0	R1131M
960.639	4.0	950118	TEST_PROBE	n/a	wordpools/wordpool_EN.txt	1	1	HOUSE	NOSE	NOSE	HOUSE	8	[0, 0, 0]	-999	PAL1	0	R1131M
960.64	4.512	950119	REC_START	n/a	n/a	1	-999	n/a	NOSE	n/a	n/a	8	[0, 0, 0]	-999	PAL1	0	R1131M
965.152	0.512	952374	REC_EVENT	4512.0	n/a	1	1	HOUSE	NOSE	NOSE	HOUSE	8	[0, 0, 0]	-999	PAL1	0	R1131M
965.664	0.009	952630	REC_END	n/a	n/a	1	-999	n/a	n/a	n/a	n/a	8	[0, 0, 0]	-999	PAL1	0	R1131M
965.673	0.275	952635	TEST_ORIENT	n/a	n/a	4	2	BIRD	INK	BIRD	INK	8	[0, 0, 0]	-999	PAL1	0	R1131M
966.623	4.0	953110	TEST_PROBE	n/a	wordpools/wordpool_EN.txt	4	2	BIRD	INK	BIRD	INK	8	[0, 0, 0]	-999	PAL1	0	R1131M
966.624	2.338	953110	REC_START	n/a	n/a	4	-999	n/a	INK	n/a	n/a	8	[0, 0, 0]	-999	PAL1	0	R1131M
968.962	2.67	954279	REC_EVENT	2338.0	n/a	4	2	BIRD	INK	BIRD	INK	8	[0, 0, 0]	-999	PAL1	0	R1131M
971.632	0.009	955614	REC_END	n/a	n/a	4	-999	n/a	n/a	n/a	n/a	8	[0, 0, 0]	-999	PAL1	0	R1131M
971.641	0.275	955619	TEST_ORIENT	n/a	n/a	3	3	STONE	CAVE	STONE	CAVE	8	[0, 0, 0]	-999	PAL1	0	R1131M
972.459	4.0	956028	TEST_PROBE	n/a	wordpools/wordpool_EN.txt	3	3	STONE	CAVE	STONE	CAVE	8	[0, 0, 0]	-999	PAL1	0	R1131M
972.459	1.274	956028	REC_START	n/a	n/a	3	-999	n/a	CAVE	n/a	n/a	8	[0, 0, 0]	-999	PAL1	0	R1131M
973.733	3.743	956665	REC_EVENT	1274.0	n/a	3	3	STONE	CAVE	STONE	CAVE	8	[0, 0, 0]	-999	PAL1	0	R1131M
977.476	0.017	958536	REC_END	n/a	n/a	3	-999	n/a	n/a	n/a	n/a	8	[0, 0, 0]	-999	PAL1	0	R1131M
977.493	0.275	958544	TEST_ORIENT	n/a	n/a	6	4	JEEP	n/a	JEEP	FOAM	8	[0, 0, 0]	-999	PAL1	0	R1131M
978.443	4.0	959019	TEST_PROBE	n/a	wordpools/wordpool_EN.txt	6	4	JEEP	n/a	JEEP	FOAM	8	[0, 0, 0]	-999	PAL1	0	R1131M
978.444	5.008	959020	REC_START	n/a	n/a	6	-999	n/a	n/a	n/a	n/a	8	[0, 0, 0]	-999	PAL1	0	R1131M
983.452	0.001	961524	REC_END	n/a	n/a	6	-999	n/a	n/a	n/a	n/a	8	[0, 0, 0]	-999	PAL1	0	R1131M
983.453	0.008	961524	REC_EVENT	5009.0	n/a	6	4	JEEP	<>	JEEP	FOAM	8	[0, 0, 0]	-999	PAL1	0	R1131M
983.461	0.275	961528	TEST_ORIENT	n/a	n/a	5	5	SNOW	ROAD	SNOW	ROAD	8	[0, 0, 0]	-999	PAL1	0	R1131M
984.343	4.0	961969	TEST_PROBE	n/a	wordpools/wordpool_EN.txt	5	5	SNOW	ROAD	SNOW	ROAD	8	[0, 0, 0]	-999	PAL1	0	R1131M
984.344	1.153	961970	REC_START	n/a	n/a	5	-999	n/a	ROAD	n/a	n/a	8	[0, 0, 0]	-999	PAL1	0	R1131M
985.497	3.855	962546	REC_EVENT	1153.0	n/a	5	5	SNOW	ROAD	SNOW	ROAD	8	[0, 0, 0]	-999	PAL1	0	R1131M
989.352	0.009	964474	REC_END	n/a	n/a	5	-999	n/a	n/a	n/a	n/a	8	[0, 0, 0]	-999	PAL1	0	R1131M
989.361	0.275	964478	TEST_ORIENT	n/a	n/a	2	6	FORK	ZOO	ZOO	FORK	8	[0, 0, 0]	-999	PAL1	0	R1131M
990.396	4.0	964995	TEST_PROBE	n/a	wordpools/wordpool_EN.txt	2	6	FORK	ZOO	ZOO	FORK	8	[0, 0, 0]	-999	PAL1	0	R1131M
990.396	1.86	964995	REC_START	n/a	n/a	2	-999	n/a	ZOO	n/a	n/a	8	[0, 0, 0]	-999	PAL1	0	R1131M
992.256	3.157	965925	REC_EVENT	1860.0	n/a	2	6	FORK	ZOO	ZOO	FORK	8	[0, 0, 0]	-999	PAL1	0	R1131M
995.413	10.356	967504	REC_END	n/a	n/a	2	-999	n/a	n/a	n/a	n/a	8	[0, 0, 0]	-999	PAL1	0	R1131M
1005.769	10.448	972681	ENCODING_START	n/a	n/a	0	-999	n/a	n/a	n/a	n/a	9	[0, 0, 0]	-999	PAL1	0	R1131M
1016.217	0.275	977905	STUDY_ORIENT	n/a	n/a	1	5	CHIN	n/a	CHIN	FLAG	9	[0, 0, 0]	-999	PAL1	0	R1131M
1017.083	4.0	978338	STUDY_PAIR	n/a	wordpools/wordpool_EN.txt	1	5	CHIN	n/a	CHIN	FLAG	9	[0, 0, 0]	-999	PAL1	0	R1131M
1022.101	0.275	980847	STUDY_ORIENT	n/a	n/a	2	6	STORE	n/a	STORE	MUD	9	[0, 0, 0]	-999	PAL1	0	R1131M
1023.035	4.0	981314	STUDY_PAIR	n/a	wordpools/wordpool_EN.txt	2	6	STORE	n/a	STORE	MUD	9	[0, 0, 0]	-999	PAL1	0	R1131M
1028.069	0.275	983831	STUDY_ORIENT	n/a	n/a	3	3	COUCH	n/a	FILM	COUCH	9	[0, 0, 0]	-999	PAL1	0	R1131M
1028.886	4.0	984239	STUDY_PAIR	n/a	wordpools/wordpool_EN.txt	3	3	COUCH	n/a	FILM	COUCH	9	[0, 0, 0]	-999	PAL1	0	R1131M
1033.92	0.275	986756	STUDY_ORIENT	n/a	n/a	4	4	CLOTH	n/a	CLOTH	SPOON	9	[0, 0, 0]	-999	PAL1	0	R1131M
1034.904	4.0	987248	STUDY_PAIR	n/a	wordpools/wordpool_EN.txt	4	4	CLOTH	n/a	CLOTH	SPOON	9	[0, 0, 0]	-999	PAL1	0	R1131M
1039.938	0.275	989765	STUDY_ORIENT	n/a	n/a	5	1	CART	n/a	CART	MOON	9	[0, 0, 0]	-999	PAL1	0	R1131M
1040.805	4.0	990198	STUDY_PAIR	n/a	wordpools/wordpool_EN.txt	5	1	CART	n/a	CART	MOON	9	[0, 0, 0]	-999	PAL1	0	R1131M
1045.839	0.275	992715	STUDY_ORIENT	n/a	n/a	6	2	TRAY	n/a	TRAY	RUG	9	[0, 0, 0]	-999	PAL1	0	R1131M
1046.639	4.0	993115	STUDY_PAIR	n/a	wordpools/wordpool_EN.txt	6	2	TRAY	n/a	TRAY	RUG	9	[0, 0, 0]	-999	PAL1	0	R1131M
1050.64	1.0	995115	START	n/a	n/a	-999	-999	n/a	n/a	n/a	n/a	9	[-999, -999, -999]	-999	PAL1	0	R1131M
1051.64	0.017	995615	MATH_START	n/a	n/a	-999	-999	n/a	n/a	n/a	n/a	9	[0, 0, 0]	-999	PAL1	0	R1131M
1051.657	4.067	995624	PROB	4040.0	n/a	-999	-999	n/a	n/a	n/a	n/a	9	[2, 6, 6]	14	PAL1	0	R1131M
1055.724	4.468	997657	PROB	4437.0	n/a	-999	-999	n/a	n/a	n/a	n/a	9	[9, 4, 8]	21	PAL1	0	R1131M
1060.192	3.984	999891	PROB	3953.0	n/a	-999	-999	n/a	n/a	n/a	n/a	9	[2, 3, 9]	14	PAL1	0	R1131M
1064.176	5.801	1001883	PROB	5769.0	n/a	-999	-999	n/a	n/a	n/a	n/a	9	[8, 7, 8]	23	PAL1	0	R1131M
1069.977	4.104	1004783	PROB	4104.0	n/a	-999	-999	n/a	n/a	n/a	n/a	9	[9, 5, 6]	20	PAL1	0	R1131M
1074.081	0.014	1006835	STOP	n/a	n/a	-999	-999	n/a	n/a	n/a	n/a	9	[-999, -999, -999]	-999	PAL1	0	R1131M
1074.095	0.0	1006842	MATH_END	n/a	n/a	-999	-999	n/a	n/a	n/a	n/a	9	[0, 0, 0]	-999	PAL1	0	R1131M
1074.095	0.016	1006842	TEST_START	n/a	n/a	-999	-999	n/a	n/a	n/a	n/a	9	[0, 0, 0]	-999	PAL1	0	R1131M
1074.111	0.275	1006850	TEST_ORIENT	n/a	n/a	5	1	CART	n/a	CART	MOON	9	[0, 0, 0]	-999	PAL1	0	R1131M
1075.062	0.0	1007326	REC_START	n/a	n/a	5	-999	n/a	n/a	n/a	n/a	9	[0, 0, 0]	-999	PAL1	0	R1131M
1075.062	4.0	1007326	TEST_PROBE	n/a	wordpools/wordpool_EN.txt	5	1	CART	n/a	CART	MOON	9	[0, 0, 0]	-999	PAL1	0	R1131M
1080.077	0.002	1009833	REC_EVENT	5015.0	n/a	5	1	CART	<>	CART	MOON	9	[0, 0, 0]	-999	PAL1	0	R1131M
1080.079	0.017	1009834	REC_END	n/a	n/a	5	-999	n/a	n/a	n/a	n/a	9	[0, 0, 0]	-999	PAL1	0	R1131M
1080.096	0.275	1009842	TEST_ORIENT	n/a	n/a	6	2	TRAY	n/a	TRAY	RUG	9	[0, 0, 0]	-999	PAL1	0	R1131M
1080.996	4.0	1010292	TEST_PROBE	n/a	wordpools/wordpool_EN.txt	6	2	TRAY	n/a	TRAY	RUG	9	[0, 0, 0]	-999	PAL1	0	R1131M
1080.997	5.003	1010293	REC_START	n/a	n/a	6	-999	n/a	n/a	n/a	n/a	9	[0, 0, 0]	-999	PAL1	0	R1131M
1086.0	0.006	1012794	REC_EVENT	5003.0	n/a	6	2	TRAY	<>	TRAY	RUG	9	[0, 0, 0]	-999	PAL1	0	R1131M
1086.006	0.008	1012797	REC_END	n/a	n/a	6	-999	n/a	n/a	n/a	n/a	9	[0, 0, 0]	-999	PAL1	0	R1131M
1086.014	0.275	1012801	TEST_ORIENT	n/a	n/a	3	3	COUCH	n/a	FILM	COUCH	9	[0, 0, 0]	-999	PAL1	0	R1131M
1086.881	4.0	1013235	TEST_PROBE	n/a	wordpools/wordpool_EN.txt	3	3	COUCH	n/a	FILM	COUCH	9	[0, 0, 0]	-999	PAL1	0	R1131M
1086.881	5.015	1013235	REC_START	n/a	n/a	3	-999	n/a	n/a	n/a	n/a	9	[0, 0, 0]	-999	PAL1	0	R1131M
1091.896	0.002	1015742	REC_EVENT	5015.0	n/a	3	3	COUCH	<>	FILM	COUCH	9	[0, 0, 0]	-999	PAL1	0	R1131M
1091.898	0.017	1015743	REC_END	n/a	n/a	3	-999	n/a	n/a	n/a	n/a	9	[0, 0, 0]	-999	PAL1	0	R1131M
1091.915	0.275	1015752	TEST_ORIENT	n/a	n/a	4	4	CLOTH	n/a	CLOTH	SPOON	9	[0, 0, 0]	-999	PAL1	0	R1131M
1092.715	0.0	1016151	REC_START	n/a	n/a	4	-999	n/a	n/a	n/a	n/a	9	[0, 0, 0]	-999	PAL1	0	R1131M
1092.715	4.0	1016151	TEST_PROBE	n/a	wordpools/wordpool_EN.txt	4	4	CLOTH	n/a	CLOTH	SPOON	9	[0, 0, 0]	-999	PAL1	0	R1131M
1097.733	0.003	1018660	REC_END	n/a	n/a	4	-999	n/a	n/a	n/a	n/a	9	[0, 0, 0]	-999	PAL1	0	R1131M
1097.736	0.013	1018662	REC_EVENT	5021.0	n/a	4	4	CLOTH	<>	CLOTH	SPOON	9	[0, 0, 0]	-999	PAL1	0	R1131M
1097.749	0.275	1018668	TEST_ORIENT	n/a	n/a	1	5	CHIN	n/a	CHIN	FLAG	9	[0, 0, 0]	-999	PAL1	0	R1131M
1098.633	4.0	1019110	TEST_PROBE	n/a	wordpools/wordpool_EN.txt	1	5	CHIN	n/a	CHIN	FLAG	9	[0, 0, 0]	-999	PAL1	0	R1131M
1098.633	5.015	1019110	REC_START	n/a	n/a	1	-999	n/a	n/a	n/a	n/a	9	[0, 0, 0]	-999	PAL1	0	R1131M
1103.648	0.002	1021618	REC_EVENT	5015.0	n/a	1	5	CHIN	<>	CHIN	FLAG	9	[0, 0, 0]	-999	PAL1	0	R1131M
1103.65	0.017	1021619	REC_END	n/a	n/a	1	-999	n/a	n/a	n/a	n/a	9	[0, 0, 0]	-999	PAL1	0	R1131M
1103.667	0.275	1021627	TEST_ORIENT	n/a	n/a	2	6	STORE	n/a	STORE	MUD	9	[0, 0, 0]	-999	PAL1	0	R1131M
1104.634	4.0	1022111	TEST_PROBE	n/a	wordpools/wordpool_EN.txt	2	6	STORE	n/a	STORE	MUD	9	[0, 0, 0]	-999	PAL1	0	R1131M
1104.635	5.021	1022111	REC_START	n/a	n/a	2	-999	n/a	n/a	n/a	n/a	9	[0, 0, 0]	-999	PAL1	0	R1131M
1109.656	0.005	1024621	REC_EVENT	5021.0	n/a	2	6	STORE	<>	STORE	MUD	9	[0, 0, 0]	-999	PAL1	0	R1131M
1109.661	5.948	1024624	REC_END	n/a	n/a	2	-999	n/a	n/a	n/a	n/a	9	[0, 0, 0]	-999	PAL1	0	R1131M
1115.609	10.446	1027598	ENCODING_START	n/a	n/a	0	-999	n/a	n/a	n/a	n/a	10	[0, 0, 0]	-999	PAL1	0	R1131M
1126.055	0.275	1032820	STUDY_ORIENT	n/a	n/a	1	5	ARK	n/a	LAWN	ARK	10	[0, 0, 0]	-999	PAL1	0	R1131M
1126.989	4.0	1033287	STUDY_PAIR	n/a	wordpools/wordpool_EN.txt	1	5	ARK	n/a	LAWN	ARK	10	[0, 0, 0]	-999	PAL1	0	R1131M
1132.023	0.275	1035804	STUDY_ORIENT	n/a	n/a	2	6	SHEEP	n/a	SHEEP	ELF	10	[0, 0, 0]	-999	PAL1	0	R1131M
1132.99	4.0	1036288	STUDY_PAIR	n/a	wordpools/wordpool_EN.txt	2	6	SHEEP	n/a	SHEEP	ELF	10	[0, 0, 0]	-999	PAL1	0	R1131M
1138.024	0.275	1038804	STUDY_ORIENT	n/a	n/a	3	3	SMILE	n/a	SMILE	CAR	10	[0, 0, 0]	-999	PAL1	0	R1131M
1138.874	4.0	1039229	STUDY_PAIR	n/a	wordpools/wordpool_EN.txt	3	3	SMILE	n/a	SMILE	CAR	10	[0, 0, 0]	-999	PAL1	0	R1131M
1143.892	0.275	1041738	STUDY_ORIENT	n/a	n/a	4	2	WING	STEAK	STEAK	WING	10	[0, 0, 0]	-999	PAL1	0	R1131M
1144.859	4.0	1042222	STUDY_PAIR	n/a	wordpools/wordpool_EN.txt	4	2	WING	STEAK	STEAK	WING	10	[0, 0, 0]	-999	PAL1	0	R1131M
1149.893	0.275	1044739	STUDY_ORIENT	n/a	n/a	5	1	SCHOOL	LAMP	SCHOOL	LAMP	10	[0, 0, 0]	-999	PAL1	0	R1131M
1150.893	4.0	1045239	STUDY_PAIR	n/a	wordpools/wordpool_EN.txt	5	1	SCHOOL	LAMP	SCHOOL	LAMP	10	[0, 0, 0]	-999	PAL1	0	R1131M
1155.911	0.275	1047747	STUDY_ORIENT	n/a	n/a	6	4	LAMB	HEART	LAMB	HEART	10	[0, 0, 0]	-999	PAL1	0	R1131M
1156.778	4.0	1048181	STUDY_PAIR	n/a	wordpools/wordpool_EN.txt	6	4	LAMB	HEART	LAMB	HEART	10	[0, 0, 0]	-999	PAL1	0	R1131M
1160.796	0.999	1050190	START	n/a	n/a	-999	-999	n/a	n/a	n/a	n/a	10	[-999, -999, -999]	-999	PAL1	0	R1131M
1161.795	0.017	1050689	MATH_START	n/a	n/a	-999	-999	n/a	n/a	n/a	n/a	10	[0, 0, 0]	-999	PAL1	0	R1131M
1161.812	5.418	1050698	PROB	5397.0	n/a	-999	-999	n/a	n/a	n/a	n/a	10	[7, 5, 9]	21	PAL1	0	R1131M
1167.23	5.801	1053406	PROB	5771.0	n/a	-999	-999	n/a	n/a	n/a	n/a	10	[8, 4, 6]	18	PAL1	0	R1131M
1173.031	3.217	1056307	PROB	3186.0	n/a	-999	-999	n/a	n/a	n/a	n/a	10	[3, 8, 3]	14	PAL1	0	R1131M
1176.248	4.537	1057915	PROB	4537.0	n/a	-999	-999	n/a	n/a	n/a	n/a	10	[8, 6, 1]	15	PAL1	0	R1131M
1180.785	0.014	1060183	STOP	n/a	n/a	-999	-999	n/a	n/a	n/a	n/a	10	[-999, -999, -999]	-999	PAL1	0	R1131M
1180.799	0.0	1060190	TEST_START	n/a	n/a	-999	-999	n/a	n/a	n/a	n/a	10	[0, 0, 0]	-999	PAL1	0	R1131M
1180.799	0.017	1060190	MATH_END	n/a	n/a	-999	-999	n/a	n/a	n/a	n/a	10	[0, 0, 0]	-999	PAL1	0	R1131M
1180.816	0.275	1060199	TEST_ORIENT	n/a	n/a	5	1	SCHOOL	LAMP	SCHOOL	LAMP	10	[0, 0, 0]	-999	PAL1	0	R1131M
1181.65	4.0	1060616	TEST_PROBE	n/a	wordpools/wordpool_EN.txt	5	1	SCHOOL	LAMP	SCHOOL	LAMP	10	[0, 0, 0]	-999	PAL1	0	R1131M
1181.65	1.282	1060616	REC_START	n/a	n/a	5	-999	n/a	LAMP	n/a	n/a	10	[0, 0, 0]	-999	PAL1	0	R1131M
1182.932	3.735	1061257	REC_EVENT	1282.0	n/a	5	1	SCHOOL	LAMP	SCHOOL	LAMP	10	[0, 0, 0]	-999	PAL1	0	R1131M
1186.667	0.017	1063124	REC_END	n/a	n/a	5	-999	n/a	n/a	n/a	n/a	10	[0, 0, 0]	-999	PAL1	0	R1131M
1186.684	0.275	1063133	TEST_ORIENT	n/a	n/a	4	2	WING	STEAK	STEAK	WING	10	[0, 0, 0]	-999	PAL1	0	R1131M
1187.534	4.0	1063558	TEST_PROBE	n/a	wordpools/wordpool_EN.txt	4	2	WING	STEAK	STEAK	WING	10	[0, 0, 0]	-999	PAL1	0	R1131M
1187.534	1.148	1063558	REC_START	n/a	n/a	4	-999	n/a	STEAK	n/a	n/a	10	[0, 0, 0]	-999	PAL1	0	R1131M
1188.682	3.869	1064132	REC_EVENT	1148.0	n/a	4	2	WING	STEAK	STEAK	WING	10	[0, 0, 0]	-999	PAL1	0	R1131M
1192.551	0.017	1066066	REC_END	n/a	n/a	4	-999	n/a	n/a	n/a	n/a	10	[0, 0, 0]	-999	PAL1	0	R1131M
1192.568	0.275	1066075	TEST_ORIENT	n/a	n/a	3	3	SMILE	n/a	SMILE	CAR	10	[0, 0, 0]	-999	PAL1	0	R1131M
1193.419	4.0	1066500	TEST_PROBE	n/a	wordpools/wordpool_EN.txt	3	3	SMILE	n/a	SMILE	CAR	10	[0, 0, 0]	-999	PAL1	0	R1131M
1193.42	5.009	1066501	REC_START	n/a	n/a	3	-999	n/a	n/a	n/a	n/a	10	[0, 0, 0]	-999	PAL1	0	R1131M
1198.429	0.0	1069005	REC_END	n/a	n/a	3	-999	n/a	n/a	n/a	n/a	10	[0, 0, 0]	-999	PAL1	0	R1131M
1198.429	0.008	1069005	REC_EVENT	5009.0	n/a	3	3	SMILE	<>	SMILE	CAR	10	[0, 0, 0]	-999	PAL1	0	R1131M
1198.437	0.275	1069009	TEST_ORIENT	n/a	n/a	6	4	LAMB	HEART	LAMB	HEART	10	[0, 0, 0]	-999	PAL1	0	R1131M
1199.286	4.0	1069433	TEST_PROBE	n/a	wordpools/wordpool_EN.txt	6	4	LAMB	HEART	LAMB	HEART	10	[0, 0, 0]	-999	PAL1	0	R1131M
1199.287	1.213	1069434	REC_START	n/a	n/a	6	-999	n/a	HEART	n/a	n/a	10	[0, 0, 0]	-999	PAL1	0	R1131M
1200.5	3.796	1070040	REC_EVENT	1213.0	n/a	6	4	LAMB	HEART	LAMB	HEART	10	[0, 0, 0]	-999	PAL1	0	R1131M
1204.296	0.008	1071938	REC_END	n/a	n/a	6	-999	n/a	n/a	n/a	n/a	10	[0, 0, 0]	-999	PAL1	0	R1131M
1204.304	0.275	1071942	TEST_ORIENT	n/a	n/a	1	5	ARK	n/a	LAWN	ARK	10	[0, 0, 0]	-999	PAL1	0	R1131M
1205.154	4.0	1072367	TEST_PROBE	n/a	wordpools/wordpool_EN.txt	1	5	ARK	n/a	LAWN	ARK	10	[0, 0, 0]	-999	PAL1	0	R1131M
1205.155	5.009	1072368	REC_START	n/a	n/a	1	-999	n/a	n/a	n/a	n/a	10	[0, 0, 0]	-999	PAL1	0	R1131M
1210.164	0.0	1074872	REC_EVENT	5009.0	n/a	1	5	ARK	<>	LAWN	ARK	10	[0, 0, 0]	-999	PAL1	0	R1131M
1210.164	0.008	1074872	REC_END	n/a	n/a	1	-999	n/a	n/a	n/a	n/a	10	[0, 0, 0]	-999	PAL1	0	R1131M
1210.172	0.275	1074876	TEST_ORIENT	n/a	n/a	2	6	SHEEP	n/a	SHEEP	ELF	10	[0, 0, 0]	-999	PAL1	0	R1131M
1211.039	4.0	1075309	TEST_PROBE	n/a	wordpools/wordpool_EN.txt	2	6	SHEEP	n/a	SHEEP	ELF	10	[0, 0, 0]	-999	PAL1	0	R1131M
1211.039	5.017	1075309	REC_START	n/a	n/a	2	-999	n/a	n/a	n/a	n/a	10	[0, 0, 0]	-999	PAL1	0	R1131M
1216.056	0.004	1077818	REC_END	n/a	n/a	2	-999	n/a	n/a	n/a	n/a	10	[0, 0, 0]	-999	PAL1	0	R1131M
1216.06	212.029	1077820	REC_EVENT	5021.0	n/a	2	6	SHEEP	<>	SHEEP	ELF	10	[0, 0, 0]	-999	PAL1	0	R1131M
1428.089	10.445	1183827	ENCODING_START	n/a	n/a	0	-999	n/a	n/a	n/a	n/a	11	[0, 0, 0]	-999	PAL1	0	R1131M
1438.534	0.275	1189049	STUDY_ORIENT	n/a	n/a	1	1	BOOT	BANK	BANK	BOOT	11	[0, 0, 0]	-999	PAL1	0	R1131M
1439.517	4.0	1189541	STUDY_PAIR	n/a	wordpools/wordpool_EN.txt	1	1	BOOT	BANK	BANK	BOOT	11	[0, 0, 0]	-999	PAL1	0	R1131M
1444.535	0.275	1192049	STUDY_ORIENT	n/a	n/a	2	6	VEST	HOLE	VEST	HOLE	11	[0, 0, 0]	-999	PAL1	0	R1131M
1445.47	4.0	1192517	STUDY_PAIR	n/a	wordpools/wordpool_EN.txt	2	6	VEST	HOLE	VEST	HOLE	11	[0, 0, 0]	-999	PAL1	0	R1131M
1450.504	0.275	1195034	STUDY_ORIENT	n/a	n/a	3	5	PEACH	n/a	SIGN	PEACH	11	[0, 0, 0]	-999	PAL1	0	R1131M
1451.286	4.0	1195425	STUDY_PAIR	n/a	wordpools/wordpool_EN.txt	3	5	PEACH	n/a	SIGN	PEACH	11	[0, 0, 0]	-999	PAL1	0	R1131M
1456.304	0.275	1197934	STUDY_ORIENT	n/a	n/a	4	4	CLAY	n/a	SPARK	CLAY	11	[0, 0, 0]	-999	PAL1	0	R1131M
1457.154	4.0	1198359	STUDY_PAIR	n/a	wordpools/wordpool_EN.txt	4	4	CLAY	n/a	SPARK	CLAY	11	[0, 0, 0]	-999	PAL1	0	R1131M
1462.172	0.275	1200867	STUDY_ORIENT	n/a	n/a	5	3	TOE	PEARL	TOE	PEARL	11	[0, 0, 0]	-999	PAL1	0	R1131M
1463.005	4.0	1201284	STUDY_PAIR	n/a	wordpools/wordpool_EN.txt	5	3	TOE	PEARL	TOE	PEARL	11	[0, 0, 0]	-999	PAL1	0	R1131M
1468.023	0.275	1203793	STUDY_ORIENT	n/a	n/a	6	2	HILL	TOY	TOY	HILL	11	[0, 0, 0]	-999	PAL1	0	R1131M
1468.923	4.0	1204243	STUDY_PAIR	n/a	wordpools/wordpool_EN.txt	6	2	HILL	TOY	TOY	HILL	11	[0, 0, 0]	-999	PAL1	0	R1131M
1472.924	1.0	1206243	START	n/a	n/a	-999	-999	n/a	n/a	n/a	n/a	11	[-999, -999, -999]	-999	PAL1	0	R1131M
1473.924	0.017	1206743	MATH_START	n/a	n/a	-999	-999	n/a	n/a	n/a	n/a	11	[0, 0, 0]	-999	PAL1	0	R1131M
1473.941	5.684	1206751	PROB	5644.0	n/a	-999	-999	n/a	n/a	n/a	n/a	11	[6, 3, 5]	14	PAL1	0	R1131M
1479.625	3.918	1209593	PROB	3896.0	n/a	-999	-999	n/a	n/a	n/a	n/a	11	[5, 7, 8]	20	PAL1	0	R1131M
1483.543	4.001	1211552	PROB	3978.0	n/a	-999	-999	n/a	n/a	n/a	n/a	11	[1, 3, 2]	6	PAL1	0	R1131M
1487.544	3.084	1213552	PROB	3049.0	n/a	-999	-999	n/a	n/a	n/a	n/a	11	[1, 4, 2]	7	PAL1	0	R1131M
1490.628	5.245	1215094	PROB	5245.0	n/a	-999	-999	n/a	n/a	n/a	n/a	11	[7, 4, 1]	12	PAL1	0	R1131M
1495.873	0.006	1217717	STOP	n/a	n/a	-999	-999	n/a	n/a	n/a	n/a	11	[-999, -999, -999]	-999	PAL1	0	R1131M
1495.879	0.0	1217720	MATH_END	n/a	n/a	-999	-999	n/a	n/a	n/a	n/a	11	[0, 0, 0]	-999	PAL1	0	R1131M
1495.879	0.016	1217720	TEST_START	n/a	n/a	-999	-999	n/a	n/a	n/a	n/a	11	[0, 0, 0]	-999	PAL1	0	R1131M
1495.895	0.275	1217728	TEST_ORIENT	n/a	n/a	1	1	BOOT	BANK	BANK	BOOT	11	[0, 0, 0]	-999	PAL1	0	R1131M
1496.862	4.0	1218211	TEST_PROBE	n/a	wordpools/wordpool_EN.txt	1	1	BOOT	BANK	BANK	BOOT	11	[0, 0, 0]	-999	PAL1	0	R1131M
1496.863	1.29	1218212	REC_START	n/a	n/a	1	-999	n/a	BANK	n/a	n/a	11	[0, 0, 0]	-999	PAL1	0	R1131M
1498.153	3.718	1218857	REC_EVENT	1290.0	n/a	1	1	BOOT	BANK	BANK	BOOT	11	[0, 0, 0]	-999	PAL1	0	R1131M
1501.871	0.009	1220715	REC_END	n/a	n/a	1	-999	n/a	n/a	n/a	n/a	11	[0, 0, 0]	-999	PAL1	0	R1131M
1501.88	0.275	1220720	TEST_ORIENT	n/a	n/a	6	2	HILL	TOY	TOY	HILL	11	[0, 0, 0]	-999	PAL1	0	R1131M
1502.713	4.0	1221136	TEST_PROBE	n/a	wordpools/wordpool_EN.txt	6	2	HILL	TOY	TOY	HILL	11	[0, 0, 0]	-999	PAL1	0	R1131M
1502.714	1.599	1221137	REC_START	n/a	n/a	6	-999	n/a	TOY	n/a	n/a	11	[0, 0, 0]	-999	PAL1	0	R1131M
1504.313	3.409	1221936	REC_EVENT	1599.0	n/a	6	2	HILL	TOY	TOY	HILL	11	[0, 0, 0]	-999	PAL1	0	R1131M
1507.722	0.009	1223641	REC_END	n/a	n/a	6	-999	n/a	n/a	n/a	n/a	11	[0, 0, 0]	-999	PAL1	0	R1131M
1507.731	0.275	1223645	TEST_ORIENT	n/a	n/a	5	3	TOE	PEARL	TOE	PEARL	11	[0, 0, 0]	-999	PAL1	0	R1131M
1508.548	4.0	1224054	TEST_PROBE	n/a	wordpools/wordpool_EN.txt	5	3	TOE	PEARL	TOE	PEARL	11	[0, 0, 0]	-999	PAL1	0	R1131M
1508.548	2.402	1224054	REC_START	n/a	n/a	5	-999	n/a	PEARL	n/a	n/a	11	[0, 0, 0]	-999	PAL1	0	R1131M
1510.95	2.615	1225255	REC_EVENT	2402.0	n/a	5	3	TOE	PEARL	TOE	PEARL	11	[0, 0, 0]	-999	PAL1	0	R1131M
1513.565	0.017	1226562	REC_END	n/a	n/a	5	-999	n/a	n/a	n/a	n/a	11	[0, 0, 0]	-999	PAL1	0	R1131M
1513.582	0.275	1226571	TEST_ORIENT	n/a	n/a	4	4	CLAY	n/a	SPARK	CLAY	11	[0, 0, 0]	-999	PAL1	0	R1131M
1514.45	4.0	1227005	TEST_PROBE	n/a	wordpools/wordpool_EN.txt	4	4	CLAY	n/a	SPARK	CLAY	11	[0, 0, 0]	-999	PAL1	0	R1131M
1514.45	5.015	1227005	REC_START	n/a	n/a	4	-999	n/a	n/a	n/a	n/a	11	[0, 0, 0]	-999	PAL1	0	R1131M
1519.465	0.002	1229512	REC_EVENT	5015.0	n/a	4	4	CLAY	<>	SPARK	CLAY	11	[0, 0, 0]	-999	PAL1	0	R1131M
1519.467	0.017	1229513	REC_END	n/a	n/a	4	-999	n/a	n/a	n/a	n/a	11	[0, 0, 0]	-999	PAL1	0	R1131M
1519.484	0.275	1229521	TEST_ORIENT	n/a	n/a	3	5	PEACH	n/a	SIGN	PEACH	11	[0, 0, 0]	-999	PAL1	0	R1131M
1520.317	4.0	1229938	TEST_PROBE	n/a	wordpools/wordpool_EN.txt	3	5	PEACH	n/a	SIGN	PEACH	11	[0, 0, 0]	-999	PAL1	0	R1131M
1520.317	5.017	1229938	REC_START	n/a	n/a	3	-999	n/a	n/a	n/a	n/a	11	[0, 0, 0]	-999	PAL1	0	R1131M
1525.334	0.004	1232446	REC_END	n/a	n/a	3	-999	n/a	n/a	n/a	n/a	11	[0, 0, 0]	-999	PAL1	0	R1131M
1525.338	0.013	1232448	REC_EVENT	5021.0	n/a	3	5	PEACH	<>	SIGN	PEACH	11	[0, 0, 0]	-999	PAL1	0	R1131M
1525.351	0.275	1232455	TEST_ORIENT	n/a	n/a	2	6	VEST	HOLE	VEST	HOLE	11	[0, 0, 0]	-999	PAL1	0	R1131M
1526.268	4.0	1232913	TEST_PROBE	n/a	wordpools/wordpool_EN.txt	2	6	VEST	HOLE	VEST	HOLE	11	[0, 0, 0]	-999	PAL1	0	R1131M
1526.268	1.077	1232913	REC_START	n/a	n/a	2	-999	n/a	HOLE	n/a	n/a	11	[0, 0, 0]	-999	PAL1	0	R1131M
1527.345	3.94	1233452	REC_EVENT	1077.0	n/a	2	6	VEST	HOLE	VEST	HOLE	11	[0, 0, 0]	-999	PAL1	0	R1131M
1531.285	6.284	1235421	REC_END	n/a	n/a	2	-999	n/a	n/a	n/a	n/a	11	[0, 0, 0]	-999	PAL1	0	R1131M
1537.569	10.47	1238563	ENCODING_START	n/a	n/a	0	-999	n/a	n/a	n/a	n/a	12	[0, 0, 0]	-999	PAL1	0	R1131M
1548.039	0.275	1243798	STUDY_ORIENT	n/a	n/a	1	3	SPEAR	SNAKE	SPEAR	SNAKE	12	[0, 0, 0]	-999	PAL1	0	R1131M
1548.822	4.0	1244189	STUDY_PAIR	n/a	wordpools/wordpool_EN.txt	1	3	SPEAR	SNAKE	SPEAR	SNAKE	12	[0, 0, 0]	-999	PAL1	0	R1131M
1553.84	0.275	1246698	STUDY_ORIENT	n/a	n/a	2	6	SOCK	TOAST	TOAST	SOCK	12	[0, 0, 0]	-999	PAL1	0	R1131M
1554.84	4.0	1247198	STUDY_PAIR	n/a	wordpools/wordpool_EN.txt	2	6	SOCK	TOAST	TOAST	SOCK	12	[0, 0, 0]	-999	PAL1	0	R1131M
1559.858	0.275	1249707	STUDY_ORIENT	n/a	n/a	3	5	SLEEVE	n/a	SLEEVE	ROPE	12	[0, 0, 0]	-999	PAL1	0	R1131M
1560.708	4.0	1250132	STUDY_PAIR	n/a	wordpools/wordpool_EN.txt	3	5	SLEEVE	n/a	SLEEVE	ROPE	12	[0, 0, 0]	-999	PAL1	0	R1131M
1565.726	0.275	1252641	STUDY_ORIENT	n/a	n/a	4	4	PIPE	SEED	SEED	PIPE	12	[0, 0, 0]	-999	PAL1	0	R1131M
1566.609	4.0	1253082	STUDY_PAIR	n/a	wordpools/wordpool_EN.txt	4	4	PIPE	SEED	SEED	PIPE	12	[0, 0, 0]	-999	PAL1	0	R1131M
1571.627	0.275	1255591	STUDY_ORIENT	n/a	n/a	5	1	FRUIT	CASH	CASH	FRUIT	12	[0, 0, 0]	-999	PAL1	0	R1131M
1572.577	4.0	1256066	STUDY_PAIR	n/a	wordpools/wordpool_EN.txt	5	1	FRUIT	CASH	CASH	FRUIT	12	[0, 0, 0]	-999	PAL1	0	R1131M
1577.595	0.275	1258575	STUDY_ORIENT	n/a	n/a	6	2	CLIFF	STREET	STREET	CLIFF	12	[0, 0, 0]	-999	PAL1	0	R1131M
1578.595	4.0	1259075	STUDY_PAIR	n/a	wordpools/wordpool_EN.txt	6	2	CLIFF	STREET	STREET	CLIFF	12	[0, 0, 0]	-999	PAL1	0	R1131M
1582.613	0.999	1261084	START	n/a	n/a	-999	-999	n/a	n/a	n/a	n/a	12	[-999, -999, -999]	-999	PAL1	0	R1131M
1583.612	0.017	1261583	MATH_START	n/a	n/a	-999	-999	n/a	n/a	n/a	n/a	12	[0, 0, 0]	-999	PAL1	0	R1131M
1583.629	4.401	1261592	PROB	4380.0	n/a	-999	-999	n/a	n/a	n/a	n/a	12	[4, 5, 4]	13	PAL1	0	R1131M
1588.03	2.934	1263792	PROB	2899.0	n/a	-999	-999	n/a	n/a	n/a	n/a	12	[8, 8, 6]	22	PAL1	0	R1131M
1590.964	2.417	1265259	PROB	2397.0	n/a	-999	-999	n/a	n/a	n/a	n/a	12	[6, 2, 3]	11	PAL1	0	R1131M
1593.381	2.618	1266467	PROB	2588.0	n/a	-999	-999	n/a	n/a	n/a	n/a	12	[7, 8, 9]	24	PAL1	0	R1131M
1595.999	3.434	1267776	PROB	3403.0	n/a	-999	-999	n/a	n/a	n/a	n/a	12	[9, 7, 6]	22	PAL1	0	R1131M
1599.433	4.104	1269493	PROB	4104.0	n/a	-999	-999	n/a	n/a	n/a	n/a	12	[4, 7, 8]	19	PAL1	0	R1131M
1603.537	0.013	1271545	STOP	n/a	n/a	-999	-999	n/a	n/a	n/a	n/a	12	[-999, -999, -999]	-999	PAL1	0	R1131M
1603.55	0.0	1271552	MATH_END	n/a	n/a	-999	-999	n/a	n/a	n/a	n/a	12	[0, 0, 0]	-999	PAL1	0	R1131M
1603.55	0.017	1271552	TEST_START	n/a	n/a	-999	-999	n/a	n/a	n/a	n/a	12	[0, 0, 0]	-999	PAL1	0	R1131M
1603.567	0.275	1271560	TEST_ORIENT	n/a	n/a	5	1	FRUIT	CASH	CASH	FRUIT	12	[0, 0, 0]	-999	PAL1	0	R1131M
1604.534	4.0	1272043	TEST_PROBE	n/a	wordpools/wordpool_EN.txt	5	1	FRUIT	CASH	CASH	FRUIT	12	[0, 0, 0]	-999	PAL1	0	R1131M
1604.534	1.077	1272043	REC_START	n/a	n/a	5	-999	n/a	CASH	n/a	n/a	12	[0, 0, 0]	-999	PAL1	0	R1131M
1605.611	3.94	1272582	REC_EVENT	1077.0	n/a	5	1	FRUIT	CASH	CASH	FRUIT	12	[0, 0, 0]	-999	PAL1	0	R1131M
1609.551	0.017	1274552	REC_END	n/a	n/a	5	-999	n/a	n/a	n/a	n/a	12	[0, 0, 0]	-999	PAL1	0	R1131M
1609.568	0.275	1274560	TEST_ORIENT	n/a	n/a	6	2	CLIFF	STREET	STREET	CLIFF	12	[0, 0, 0]	-999	PAL1	0	R1131M
1610.402	4.0	1274977	TEST_PROBE	n/a	wordpools/wordpool_EN.txt	6	2	CLIFF	STREET	STREET	CLIFF	12	[0, 0, 0]	-999	PAL1	0	R1131M
1610.403	1.45	1274978	REC_START	n/a	n/a	6	-999	n/a	STREET	n/a	n/a	12	[0, 0, 0]	-999	PAL1	0	R1131M
1611.853	3.559	1275703	REC_EVENT	1450.0	n/a	6	2	CLIFF	STREET	STREET	CLIFF	12	[0, 0, 0]	-999	PAL1	0	R1131M
1615.412	0.008	1277482	REC_END	n/a	n/a	6	-999	n/a	n/a	n/a	n/a	12	[0, 0, 0]	-999	PAL1	0	R1131M
1615.42	0.275	1277486	TEST_ORIENT	n/a	n/a	1	3	SPEAR	SNAKE	SPEAR	SNAKE	12	[0, 0, 0]	-999	PAL1	0	R1131M
1616.319	4.0	1277936	TEST_PROBE	n/a	wordpools/wordpool_EN.txt	1	3	SPEAR	SNAKE	SPEAR	SNAKE	12	[0, 0, 0]	-999	PAL1	0	R1131M
1616.32	0.917	1277936	REC_START	n/a	n/a	1	-999	n/a	SNAKE	n/a	n/a	12	[0, 0, 0]	-999	PAL1	0	R1131M
1617.237	4.091	1278395	REC_EVENT	917.0	n/a	1	3	SPEAR	SNAKE	SPEAR	SNAKE	12	[0, 0, 0]	-999	PAL1	0	R1131M
1621.328	0.009	1280440	REC_END	n/a	n/a	1	-999	n/a	n/a	n/a	n/a	12	[0, 0, 0]	-999	PAL1	0	R1131M
1621.337	0.275	1280444	TEST_ORIENT	n/a	n/a	4	4	PIPE	SEED	SEED	PIPE	12	[0, 0, 0]	-999	PAL1	0	R1131M
1622.204	4.0	1280878	TEST_PROBE	n/a	wordpools/wordpool_EN.txt	4	4	PIPE	SEED	SEED	PIPE	12	[0, 0, 0]	-999	PAL1	0	R1131M
1622.204	1.062	1280878	REC_START	n/a	n/a	4	-999	n/a	SEED	n/a	n/a	12	[0, 0, 0]	-999	PAL1	0	R1131M
1623.266	3.955	1281409	REC_EVENT	1062.0	n/a	4	4	PIPE	SEED	SEED	PIPE	12	[0, 0, 0]	-999	PAL1	0	R1131M
1627.221	0.017	1283386	REC_END	n/a	n/a	4	-999	n/a	n/a	n/a	n/a	12	[0, 0, 0]	-999	PAL1	0	R1131M
1627.238	0.275	1283395	TEST_ORIENT	n/a	n/a	3	5	SLEEVE	n/a	SLEEVE	ROPE	12	[0, 0, 0]	-999	PAL1	0	R1131M
1628.138	0.0	1283845	REC_START	n/a	n/a	3	-999	n/a	n/a	n/a	n/a	12	[0, 0, 0]	-999	PAL1	0	R1131M
1628.138	4.0	1283845	TEST_PROBE	n/a	wordpools/wordpool_EN.txt	3	5	SLEEVE	n/a	SLEEVE	ROPE	12	[0, 0, 0]	-999	PAL1	0	R1131M
1633.156	0.003	1286354	REC_END	n/a	n/a	3	-999	n/a	n/a	n/a	n/a	12	[0, 0, 0]	-999	PAL1	0	R1131M
1633.159	0.013	1286355	REC_EVENT	5021.0	n/a	3	5	SLEEVE	<>	SLEEVE	ROPE	12	[0, 0, 0]	-999	PAL1	0	R1131M
1633.172	0.275	1286362	TEST_ORIENT	n/a	n/a	2	6	SOCK	TOAST	TOAST	SOCK	12	[0, 0, 0]	-999	PAL1	0	R1131M
1634.089	4.0	1286820	TEST_PROBE	n/a	wordpools/wordpool_EN.txt	2	6	SOCK	TOAST	TOAST	SOCK	12	[0, 0, 0]	-999	PAL1	0	R1131M
1634.09	0.907	1286820	REC_START	n/a	n/a	2	-999	n/a	TOAST	n/a	n/a	12	[0, 0, 0]	-999	PAL1	0	R1131M
1634.997	4.102	1287274	REC_EVENT	907.0	n/a	2	6	SOCK	TOAST	TOAST	SOCK	12	[0, 0, 0]	-999	PAL1	0	R1131M
1639.099	9.359	1289325	REC_END	n/a	n/a	2	-999	n/a	n/a	n/a	n/a	12	[0, 0, 0]	-999	PAL1	0	R1131M
1648.458	10.453	1294004	ENCODING_START	n/a	n/a	0	-999	n/a	n/a	n/a	n/a	13	[0, 0, 0]	-999	PAL1	0	R1131M
1658.911	0.275	1299230	STUDY_ORIENT	n/a	n/a	1	5	CLOWN	FOX	FOX	CLOWN	13	[0, 0, 0]	-999	PAL1	0	R1131M
1659.861	4.0	1299705	STUDY_PAIR	n/a	wordpools/wordpool_EN.txt	1	5	CLOWN	FOX	FOX	CLOWN	13	[0, 0, 0]	-999	PAL1	0	R1131M
1664.879	0.275	1302214	STUDY_ORIENT	n/a	n/a	2	2	ICE	OAR	ICE	OAR	13	[0, 0, 0]	-999	PAL1	0	R1131M
1665.729	4.0	1302639	STUDY_PAIR	n/a	wordpools/wordpool_EN.txt	2	2	ICE	OAR	ICE	OAR	13	[0, 0, 0]	-999	PAL1	0	R1131M
1670.763	0.275	1305156	STUDY_ORIENT	n/a	n/a	3	1	FENCE	HORSE	FENCE	HORSE	13	[0, 0, 0]	-999	PAL1	0	R1131M
1671.664	4.0	1305606	STUDY_PAIR	n/a	wordpools/wordpool_EN.txt	3	1	FENCE	HORSE	FENCE	HORSE	13	[0, 0, 0]	-999	PAL1	0	R1131M
1676.698	0.275	1308123	STUDY_ORIENT	n/a	n/a	4	4	CLOCK	PRINCE	CLOCK	FROG	13	[0, 0, 0]	-999	PAL1	0	R1131M
1677.548	4.0	1308548	STUDY_PAIR	n/a	wordpools/wordpool_EN.txt	4	4	CLOCK	PRINCE	CLOCK	FROG	13	[0, 0, 0]	-999	PAL1	0	R1131M
1682.582	0.275	1311065	STUDY_ORIENT	n/a	n/a	5	3	TIE	JAR	TIE	JAR	13	[0, 0, 0]	-999	PAL1	0	R1131M
1683.5	4.0	1311524	STUDY_PAIR	n/a	wordpools/wordpool_EN.txt	5	3	TIE	JAR	TIE	JAR	13	[0, 0, 0]	-999	PAL1	0	R1131M
1688.517	0.275	1314032	STUDY_ORIENT	n/a	n/a	6	6	BUSH	PRINCE	BUSH	PRINCE	13	[0, 0, 0]	-999	PAL1	0	R1131M
1689.3	4.0	1314424	STUDY_PAIR	n/a	wordpools/wordpool_EN.txt	6	6	BUSH	PRINCE	BUSH	PRINCE	13	[0, 0, 0]	-999	PAL1	0	R1131M
1693.301	1.0	1316424	START	n/a	n/a	-999	-999	n/a	n/a	n/a	n/a	13	[-999, -999, -999]	-999	PAL1	0	R1131M
1694.301	0.017	1316924	MATH_START	n/a	n/a	-999	-999	n/a	n/a	n/a	n/a	13	[0, 0, 0]	-999	PAL1	0	R1131M
1694.318	4.434	1316932	PROB	4403.0	n/a	-999	-999	n/a	n/a	n/a	n/a	13	[2, 8, 1]	11	PAL1	0	R1131M
1698.752	3.484	1319149	PROB	3457.0	n/a	-999	-999	n/a	n/a	n/a	n/a	13	[2, 6, 6]	14	PAL1	0	R1131M
1702.236	3.918	1320891	PROB	3893.0	n/a	-999	-999	n/a	n/a	n/a	n/a	13	[3, 9, 5]	17	PAL1	0	R1131M
1706.154	2.65	1322850	PROB	2623.0	n/a	-999	-999	n/a	n/a	n/a	n/a	13	[4, 1, 4]	9	PAL1	0	R1131M
1708.804	4.853	1324175	PROB	4853.0	n/a	-999	-999	n/a	n/a	n/a	n/a	13	[2, 6, 9]	17	PAL1	0	R1131M
1713.657	0.015	1326601	STOP	n/a	n/a	-999	-999	n/a	n/a	n/a	n/a	13	[-999, -999, -999]	-999	PAL1	0	R1131M
1713.672	0.0	1326609	MATH_END	n/a	n/a	-999	-999	n/a	n/a	n/a	n/a	13	[0, 0, 0]	-999	PAL1	0	R1131M
1713.672	0.016	1326609	TEST_START	n/a	n/a	-999	-999	n/a	n/a	n/a	n/a	13	[0, 0, 0]	-999	PAL1	0	R1131M
1713.688	0.275	1326617	TEST_ORIENT	n/a	n/a	3	1	FENCE	HORSE	FENCE	HORSE	13	[0, 0, 0]	-999	PAL1	0	R1131M
1714.555	4.0	1327050	TEST_PROBE	n/a	wordpools/wordpool_EN.txt	3	1	FENCE	HORSE	FENCE	HORSE	13	[0, 0, 0]	-999	PAL1	0	R1131M
1714.556	0.93	1327051	REC_START	n/a	n/a	3	-999	n/a	HORSE	n/a	n/a	13	[0, 0, 0]	-999	PAL1	0	R1131M
1715.486	4.079	1327516	REC_EVENT	930.0	n/a	3	1	FENCE	HORSE	FENCE	HORSE	13	[0, 0, 0]	-999	PAL1	0	R1131M
1719.565	0.008	1329555	REC_END	n/a	n/a	3	-999	n/a	n/a	n/a	n/a	13	[0, 0, 0]	-999	PAL1	0	R1131M
1719.573	0.275	1329559	TEST_ORIENT	n/a	n/a	2	2	ICE	OAR	ICE	OAR	13	[0, 0, 0]	-999	PAL1	0	R1131M
1720.508	4.0	1330027	TEST_PROBE	n/a	wordpools/wordpool_EN.txt	2	2	ICE	OAR	ICE	OAR	13	[0, 0, 0]	-999	PAL1	0	R1131M
1720.508	1.175	1330027	REC_START	n/a	n/a	2	-999	n/a	OAR	n/a	n/a	13	[0, 0, 0]	-999	PAL1	0	R1131M
1721.683	3.841	1330614	REC_EVENT	1175.0	n/a	2	2	ICE	OAR	ICE	OAR	13	[0, 0, 0]	-999	PAL1	0	R1131M
1725.524	0.017	1332534	REC_END	n/a	n/a	2	-999	n/a	n/a	n/a	n/a	13	[0, 0, 0]	-999	PAL1	0	R1131M
1725.541	0.275	1332543	TEST_ORIENT	n/a	n/a	5	3	TIE	JAR	TIE	JAR	13	[0, 0, 0]	-999	PAL1	0	R1131M
1726.374	4.0	1332959	TEST_PROBE	n/a	wordpools/wordpool_EN.txt	5	3	TIE	JAR	TIE	JAR	13	[0, 0, 0]	-999	PAL1	0	R1131M
1726.375	2.389	1332960	REC_START	n/a	n/a	5	-999	n/a	JAR	n/a	n/a	13	[0, 0, 0]	-999	PAL1	0	R1131M
1728.764	2.62	1334154	REC_EVENT	2389.0	n/a	5	3	TIE	JAR	TIE	JAR	13	[0, 0, 0]	-999	PAL1	0	R1131M
1731.384	0.009	1335464	REC_END	n/a	n/a	5	-999	n/a	n/a	n/a	n/a	13	[0, 0, 0]	-999	PAL1	0	R1131M
1731.393	0.275	1335469	TEST_ORIENT	n/a	n/a	4	4	CLOCK	PRINCE	CLOCK	FROG	13	[0, 0, 0]	-999	PAL1	0	R1131M
1732.309	4.0	1335927	TEST_PROBE	n/a	wordpools/wordpool_EN.txt	4	4	CLOCK	PRINCE	CLOCK	FROG	13	[0, 0, 0]	-999	PAL1	0	R1131M
1732.309	3.275	1335927	REC_START	n/a	n/a	4	-999	n/a	PRINCE	n/a	n/a	13	[0, 0, 0]	-999	PAL1	0	R1131M
1735.584	1.742	1337564	REC_EVENT	3275.0	n/a	4	4	CLOCK	PRINCE	CLOCK	FROG	13	[0, 0, 0]	-999	PAL1	0	R1131M
1737.326	0.017	1338435	REC_END	n/a	n/a	4	-999	n/a	n/a	n/a	n/a	13	[0, 0, 0]	-999	PAL1	0	R1131M
1737.343	0.275	1338443	TEST_ORIENT	n/a	n/a	1	5	CLOWN	FOX	FOX	CLOWN	13	[0, 0, 0]	-999	PAL1	0	R1131M
1738.16	4.0	1338852	TEST_PROBE	n/a	wordpools/wordpool_EN.txt	1	5	CLOWN	FOX	FOX	CLOWN	13	[0, 0, 0]	-999	PAL1	0	R1131M
1738.161	2.256	1338852	REC_START	n/a	n/a	1	-999	n/a	FOX	n/a	n/a	13	[0, 0, 0]	-999	PAL1	0	R1131M
1740.417	2.77	1339980	REC_EVENT	2256.0	n/a	1	5	CLOWN	FOX	FOX	CLOWN	13	[0, 0, 0]	-999	PAL1	0	R1131M
1743.187	0.007	1341365	REC_END	n/a	n/a	1	-999	n/a	n/a	n/a	n/a	13	[0, 0, 0]	-999	PAL1	0	R1131M
1743.194	0.275	1341369	TEST_ORIENT	n/a	n/a	6	6	BUSH	PRINCE	BUSH	PRINCE	13	[0, 0, 0]	-999	PAL1	0	R1131M
1744.211	4.0	1341877	TEST_PROBE	n/a	wordpools/wordpool_EN.txt	6	6	BUSH	PRINCE	BUSH	PRINCE	13	[0, 0, 0]	-999	PAL1	0	R1131M
1744.212	3.996	1341878	REC_START	n/a	n/a	6	-999	n/a	PRINCE	n/a	n/a	13	[0, 0, 0]	-999	PAL1	0	R1131M
1748.208	1.014	1343876	REC_EVENT	3996.0	n/a	6	6	BUSH	PRINCE	BUSH	PRINCE	13	[0, 0, 0]	-999	PAL1	0	R1131M
1749.222	6.531	1344383	REC_END	n/a	n/a	6	-999	n/a	n/a	n/a	n/a	13	[0, 0, 0]	-999	PAL1	0	R1131M
1755.753	10.446	1347648	ENCODING_START	n/a	n/a	0	-999	n/a	n/a	n/a	n/a	14	[0, 0, 0]	-999	PAL1	0	R1131M
1766.199	0.275	1352870	STUDY_ORIENT	n/a	n/a	1	1	FORT	EAR	EAR	FORT	14	[0, 0, 0]	-999	PAL1	0	R1131M
1766.999	4.0	1353270	STUDY_PAIR	n/a	wordpools/wordpool_EN.txt	1	1	FORT	EAR	EAR	FORT	14	[0, 0, 0]	-999	PAL1	0	R1131M
1772.017	0.275	1355779	STUDY_ORIENT	n/a	n/a	2	4	SLUSH	n/a	OWL	SLUSH	14	[0, 0, 0]	-999	PAL1	0	R1131M
1773.0	4.0	1356271	STUDY_PAIR	n/a	wordpools/wordpool_EN.txt	2	4	SLUSH	n/a	OWL	SLUSH	14	[0, 0, 0]	-999	PAL1	0	R1131M
1778.018	0.275	1358780	STUDY_ORIENT	n/a	n/a	3	3	SOUP	BEE	BEE	SOUP	14	[0, 0, 0]	-999	PAL1	0	R1131M
1778.918	4.0	1359230	STUDY_PAIR	n/a	wordpools/wordpool_EN.txt	3	3	SOUP	BEE	BEE	SOUP	14	[0, 0, 0]	-999	PAL1	0	R1131M
1783.936	0.275	1361738	STUDY_ORIENT	n/a	n/a	4	2	DART	GRAPE	GRAPE	DART	14	[0, 0, 0]	-999	PAL1	0	R1131M
1784.869	4.0	1362205	STUDY_PAIR	n/a	wordpools/wordpool_EN.txt	4	2	DART	GRAPE	GRAPE	DART	14	[0, 0, 0]	-999	PAL1	0	R1131M
1789.887	0.275	1364714	STUDY_ORIENT	n/a	n/a	5	5	RICE	ROSE	ROSE	RICE	14	[0, 0, 0]	-999	PAL1	0	R1131M
1790.854	4.0	1365197	STUDY_PAIR	n/a	wordpools/wordpool_EN.txt	5	5	RICE	ROSE	ROSE	RICE	14	[0, 0, 0]	-999	PAL1	0	R1131M
1795.888	0.275	1367714	STUDY_ORIENT	n/a	n/a	6	6	BOWL	TRAIN	TRAIN	BOWL	14	[0, 0, 0]	-999	PAL1	0	R1131M
1796.738	4.0	1368139	STUDY_PAIR	n/a	wordpools/wordpool_EN.txt	6	6	BOWL	TRAIN	TRAIN	BOWL	14	[0, 0, 0]	-999	PAL1	0	R1131M
1800.74	0.999	1370140	START	n/a	n/a	-999	-999	n/a	n/a	n/a	n/a	14	[-999, -999, -999]	-999	PAL1	0	R1131M
1801.739	0.017	1370639	MATH_START	n/a	n/a	-999	-999	n/a	n/a	n/a	n/a	14	[0, 0, 0]	-999	PAL1	0	R1131M
1801.756	5.018	1370648	PROB	4997.0	n/a	-999	-999	n/a	n/a	n/a	n/a	14	[1, 5, 7]	13	PAL1	0	R1131M
1806.774	2.817	1373157	PROB	2795.0	n/a	-999	-999	n/a	n/a	n/a	n/a	14	[1, 4, 1]	6	PAL1	0	R1131M
1809.591	3.918	1374565	PROB	3891.0	n/a	-999	-999	n/a	n/a	n/a	n/a	14	[4, 9, 5]	18	PAL1	0	R1131M
1813.509	3.283	1376524	PROB	3252.0	n/a	-999	-999	n/a	n/a	n/a	n/a	14	[3, 5, 4]	12	PAL1	0	R1131M
1816.792	4.217	1378165	PROB	4217.0	n/a	-999	-999	n/a	n/a	n/a	n/a	14	[6, 3, 6]	15	PAL1	0	R1131M
1821.009	0.018	1380274	STOP	n/a	n/a	-999	-999	n/a	n/a	n/a	n/a	14	[-999, -999, -999]	-999	PAL1	0	R1131M
1821.027	0.0	1380283	MATH_END	n/a	n/a	-999	-999	n/a	n/a	n/a	n/a	14	[0, 0, 0]	-999	PAL1	0	R1131M
1821.027	0.016	1380283	TEST_START	n/a	n/a	-999	-999	n/a	n/a	n/a	n/a	14	[0, 0, 0]	-999	PAL1	0	R1131M
1821.043	0.275	1380291	TEST_ORIENT	n/a	n/a	1	1	FORT	EAR	EAR	FORT	14	[0, 0, 0]	-999	PAL1	0	R1131M
1821.877	0.0	1380708	REC_START	n/a	n/a	1	-999	n/a	EAR	n/a	n/a	14	[0, 0, 0]	-999	PAL1	0	R1131M
1821.877	4.0	1380708	TEST_PROBE	n/a	wordpools/wordpool_EN.txt	1	1	FORT	EAR	EAR	FORT	14	[0, 0, 0]	-999	PAL1	0	R1131M
1823.276	3.618	1381407	REC_EVENT	1399.0	n/a	1	1	FORT	EAR	EAR	FORT	14	[0, 0, 0]	-999	PAL1	0	R1131M
1826.894	0.017	1383216	REC_END	n/a	n/a	1	-999	n/a	n/a	n/a	n/a	14	[0, 0, 0]	-999	PAL1	0	R1131M
1826.911	0.275	1383224	TEST_ORIENT	n/a	n/a	4	2	DART	GRAPE	GRAPE	DART	14	[0, 0, 0]	-999	PAL1	0	R1131M
1827.744	4.0	1383641	TEST_PROBE	n/a	wordpools/wordpool_EN.txt	4	2	DART	GRAPE	GRAPE	DART	14	[0, 0, 0]	-999	PAL1	0	R1131M
1827.745	1.254	1383641	REC_START	n/a	n/a	4	-999	n/a	GRAPE	n/a	n/a	14	[0, 0, 0]	-999	PAL1	0	R1131M
1828.999	3.755	1384268	REC_EVENT	1254.0	n/a	4	2	DART	GRAPE	GRAPE	DART	14	[0, 0, 0]	-999	PAL1	0	R1131M
1832.754	0.008	1386146	REC_END	n/a	n/a	4	-999	n/a	n/a	n/a	n/a	14	[0, 0, 0]	-999	PAL1	0	R1131M
1832.762	0.275	1386150	TEST_ORIENT	n/a	n/a	3	3	SOUP	BEE	BEE	SOUP	14	[0, 0, 0]	-999	PAL1	0	R1131M
1833.596	4.0	1386567	TEST_PROBE	n/a	wordpools/wordpool_EN.txt	3	3	SOUP	BEE	BEE	SOUP	14	[0, 0, 0]	-999	PAL1	0	R1131M
1833.596	1.987	1386567	REC_START	n/a	n/a	3	-999	n/a	BEE	n/a	n/a	14	[0, 0, 0]	-999	PAL1	0	R1131M
1835.583	3.03	1387560	REC_EVENT	1987.0	n/a	3	3	SOUP	BEE	BEE	SOUP	14	[0, 0, 0]	-999	PAL1	0	R1131M
1838.613	0.017	1389075	REC_END	n/a	n/a	3	-999	n/a	n/a	n/a	n/a	14	[0, 0, 0]	-999	PAL1	0	R1131M
1838.63	0.275	1389083	TEST_ORIENT	n/a	n/a	2	4	SLUSH	n/a	OWL	SLUSH	14	[0, 0, 0]	-999	PAL1	0	R1131M
1839.563	4.0	1389550	TEST_PROBE	n/a	wordpools/wordpool_EN.txt	2	4	SLUSH	n/a	OWL	SLUSH	14	[0, 0, 0]	-999	PAL1	0	R1131M
1839.564	4.998	1389550	REC_START	n/a	n/a	2	-999	n/a	n/a	n/a	n/a	14	[0, 0, 0]	-999	PAL1	0	R1131M
1844.562	0.002	1392049	REC_EVENT	4998.0	n/a	2	4	SLUSH	<>	OWL	SLUSH	14	[0, 0, 0]	-999	PAL1	0	R1131M
1844.564	0.017	1392050	REC_END	n/a	n/a	2	-999	n/a	n/a	n/a	n/a	14	[0, 0, 0]	-999	PAL1	0	R1131M
1844.581	0.275	1392059	TEST_ORIENT	n/a	n/a	5	5	RICE	ROSE	ROSE	RICE	14	[0, 0, 0]	-999	PAL1	0	R1131M
1845.482	4.0	1392509	TEST_PROBE	n/a	wordpools/wordpool_EN.txt	5	5	RICE	ROSE	ROSE	RICE	14	[0, 0, 0]	-999	PAL1	0	R1131M
1845.483	1.313	1392510	REC_START	n/a	n/a	5	-999	n/a	ROSE	n/a	n/a	14	[0, 0, 0]	-999	PAL1	0	R1131M
1846.796	3.687	1393166	REC_EVENT	1313.0	n/a	5	5	RICE	ROSE	ROSE	RICE	14	[0, 0, 0]	-999	PAL1	0	R1131M
1850.483	0.017	1395010	REC_END	n/a	n/a	5	-999	n/a	n/a	n/a	n/a	14	[0, 0, 0]	-999	PAL1	0	R1131M
1850.5	0.275	1395018	TEST_ORIENT	n/a	n/a	6	6	BOWL	TRAIN	TRAIN	BOWL	14	[0, 0, 0]	-999	PAL1	0	R1131M
1851.45	4.0	1395493	TEST_PROBE	n/a	wordpools/wordpool_EN.txt	6	6	BOWL	TRAIN	TRAIN	BOWL	14	[0, 0, 0]	-999	PAL1	0	R1131M
1851.451	1.299	1395494	REC_START	n/a	n/a	6	-999	n/a	TRAIN	n/a	n/a	14	[0, 0, 0]	-999	PAL1	0	R1131M
1852.75	3.71	1396143	REC_EVENT	1299.0	n/a	6	6	BOWL	TRAIN	TRAIN	BOWL	14	[0, 0, 0]	-999	PAL1	0	R1131M
1856.46	6.341	1397998	REC_END	n/a	n/a	6	-999	n/a	n/a	n/a	n/a	14	[0, 0, 0]	-999	PAL1	0	R1131M
1862.801	10.453	1401168	ENCODING_START	n/a	n/a	0	-999	n/a	n/a	n/a	n/a	15	[0, 0, 0]	-999	PAL1	0	R1131M
1873.254	0.275	1406394	STUDY_ORIENT	n/a	n/a	1	3	SWORD	SHARK	SHARK	SWORD	15	[0, 0, 0]	-999	PAL1	0	R1131M
1874.07	4.0	1406802	STUDY_PAIR	n/a	wordpools/wordpool_EN.txt	1	3	SWORD	SHARK	SHARK	SWORD	15	[0, 0, 0]	-999	PAL1	0	R1131M
1879.088	0.275	1409311	STUDY_ORIENT	n/a	n/a	2	4	WEED	YARD	YARD	WEED	15	[0, 0, 0]	-999	PAL1	0	R1131M
1879.955	4.0	1409745	STUDY_PAIR	n/a	wordpools/wordpool_EN.txt	2	4	WEED	YARD	YARD	WEED	15	[0, 0, 0]	-999	PAL1	0	R1131M
1884.989	0.275	1412261	STUDY_ORIENT	n/a	n/a	3	5	GEESE	n/a	GEESE	VASE	15	[0, 0, 0]	-999	PAL1	0	R1131M
1885.939	4.0	1412736	STUDY_PAIR	n/a	wordpools/wordpool_EN.txt	3	5	GEESE	n/a	GEESE	VASE	15	[0, 0, 0]	-999	PAL1	0	R1131M
1890.957	0.275	1415245	STUDY_ORIENT	n/a	n/a	4	2	WAND	PLANT	WAND	PLANT	15	[0, 0, 0]	-999	PAL1	0	R1131M
1891.991	4.0	1415762	STUDY_PAIR	n/a	wordpools/wordpool_EN.txt	4	2	WAND	PLANT	WAND	PLANT	15	[0, 0, 0]	-999	PAL1	0	R1131M
1897.025	0.275	1418279	STUDY_ORIENT	n/a	n/a	5	1	LOCK	n/a	SEAL	LOCK	15	[0, 0, 0]	-999	PAL1	0	R1131M
1897.875	4.0	1418704	STUDY_PAIR	n/a	wordpools/wordpool_EN.txt	5	1	LOCK	n/a	SEAL	LOCK	15	[0, 0, 0]	-999	PAL1	0	R1131M
1902.893	0.275	1421213	STUDY_ORIENT	n/a	n/a	6	6	JUICE	n/a	TANK	JUICE	15	[0, 0, 0]	-999	PAL1	0	R1131M
1903.676	4.0	1421604	STUDY_PAIR	n/a	wordpools/wordpool_EN.txt	6	6	JUICE	n/a	TANK	JUICE	15	[0, 0, 0]	-999	PAL1	0	R1131M
1907.677	1.0	1423605	START	n/a	n/a	-999	-999	n/a	n/a	n/a	n/a	15	[-999, -999, -999]	-999	PAL1	0	R1131M
1908.677	0.017	1424105	MATH_START	n/a	n/a	-999	-999	n/a	n/a	n/a	n/a	15	[0, 0, 0]	-999	PAL1	0	R1131M
1908.694	4.785	1424113	PROB	4764.0	n/a	-999	-999	n/a	n/a	n/a	n/a	15	[8, 4, 8]	20	PAL1	0	R1131M
1913.479	5.6	1426505	PROB	5570.0	n/a	-999	-999	n/a	n/a	n/a	n/a	15	[4, 4, 6]	14	PAL1	0	R1131M
1919.079	2.818	1429305	PROB	2786.0	n/a	-999	-999	n/a	n/a	n/a	n/a	15	[3, 2, 2]	7	PAL1	0	R1131M
1921.897	2.8	1430714	PROB	2768.0	n/a	-999	-999	n/a	n/a	n/a	n/a	15	[3, 5, 4]	12	PAL1	0	R1131M
1924.697	2.976	1432114	PROB	2976.0	n/a	-999	-999	n/a	n/a	n/a	n/a	15	[7, 7, 1]	15	PAL1	0	R1131M
1927.673	0.008	1433602	STOP	n/a	n/a	-999	-999	n/a	n/a	n/a	n/a	15	[-999, -999, -999]	-999	PAL1	0	R1131M
1927.681	0.0	1433606	MATH_END	n/a	n/a	-999	-999	n/a	n/a	n/a	n/a	15	[0, 0, 0]	-999	PAL1	0	R1131M
1927.681	0.017	1433606	TEST_START	n/a	n/a	-999	-999	n/a	n/a	n/a	n/a	15	[0, 0, 0]	-999	PAL1	0	R1131M
1927.698	0.275	1433614	TEST_ORIENT	n/a	n/a	5	1	LOCK	n/a	SEAL	LOCK	15	[0, 0, 0]	-999	PAL1	0	R1131M
1928.615	4.0	1434073	TEST_PROBE	n/a	wordpools/wordpool_EN.txt	5	1	LOCK	n/a	SEAL	LOCK	15	[0, 0, 0]	-999	PAL1	0	R1131M
1928.615	5.015	1434073	REC_START	n/a	n/a	5	-999	n/a	n/a	n/a	n/a	15	[0, 0, 0]	-999	PAL1	0	R1131M
1933.63	0.002	1436580	REC_EVENT	5015.0	n/a	5	1	LOCK	<>	SEAL	LOCK	15	[0, 0, 0]	-999	PAL1	0	R1131M
1933.632	0.017	1436581	REC_END	n/a	n/a	5	-999	n/a	n/a	n/a	n/a	15	[0, 0, 0]	-999	PAL1	0	R1131M
1933.649	0.275	1436590	TEST_ORIENT	n/a	n/a	4	2	WAND	PLANT	WAND	PLANT	15	[0, 0, 0]	-999	PAL1	0	R1131M
1934.649	4.0	1437090	TEST_PROBE	n/a	wordpools/wordpool_EN.txt	4	2	WAND	PLANT	WAND	PLANT	15	[0, 0, 0]	-999	PAL1	0	R1131M
1934.65	3.641	1437090	REC_START	n/a	n/a	4	-999	n/a	PLANT	n/a	n/a	15	[0, 0, 0]	-999	PAL1	0	R1131M
1938.291	1.368	1438911	REC_EVENT	3641.0	n/a	4	2	WAND	PLANT	WAND	PLANT	15	[0, 0, 0]	-999	PAL1	0	R1131M
1939.659	0.008	1439595	REC_END	n/a	n/a	4	-999	n/a	n/a	n/a	n/a	15	[0, 0, 0]	-999	PAL1	0	R1131M
1939.667	0.275	1439599	TEST_ORIENT	n/a	n/a	1	3	SWORD	SHARK	SHARK	SWORD	15	[0, 0, 0]	-999	PAL1	0	R1131M
1940.617	4.0	1440073	TEST_PROBE	n/a	wordpools/wordpool_EN.txt	1	3	SWORD	SHARK	SHARK	SWORD	15	[0, 0, 0]	-999	PAL1	0	R1131M
1940.617	1.445	1440073	REC_START	n/a	n/a	1	-999	n/a	SHARK	n/a	n/a	15	[0, 0, 0]	-999	PAL1	0	R1131M
1942.062	3.572	1440796	REC_EVENT	1445.0	n/a	1	3	SWORD	SHARK	SHARK	SWORD	15	[0, 0, 0]	-999	PAL1	0	R1131M
1945.634	0.017	1442582	REC_END	n/a	n/a	1	-999	n/a	n/a	n/a	n/a	15	[0, 0, 0]	-999	PAL1	0	R1131M
1945.651	0.275	1442590	TEST_ORIENT	n/a	n/a	2	4	WEED	YARD	YARD	WEED	15	[0, 0, 0]	-999	PAL1	0	R1131M
1946.486	4.0	1443008	TEST_PROBE	n/a	wordpools/wordpool_EN.txt	2	4	WEED	YARD	YARD	WEED	15	[0, 0, 0]	-999	PAL1	0	R1131M
1946.486	4.219	1443008	REC_START	n/a	n/a	2	-999	n/a	YARD	n/a	n/a	15	[0, 0, 0]	-999	PAL1	0	R1131M
1950.705	0.807	1445117	REC_EVENT	4219.0	n/a	2	4	WEED	YARD	YARD	WEED	15	[0, 0, 0]	-999	PAL1	0	R1131M
1951.512	0.007	1445521	REC_END	n/a	n/a	2	-999	n/a	n/a	n/a	n/a	15	[0, 0, 0]	-999	PAL1	0	R1131M
1951.519	0.275	1445524	TEST_ORIENT	n/a	n/a	3	5	GEESE	n/a	GEESE	VASE	15	[0, 0, 0]	-999	PAL1	0	R1131M
1952.369	4.0	1445949	TEST_PROBE	n/a	wordpools/wordpool_EN.txt	3	5	GEESE	n/a	GEESE	VASE	15	[0, 0, 0]	-999	PAL1	0	R1131M
1952.37	5.009	1445950	REC_START	n/a	n/a	3	-999	n/a	n/a	n/a	n/a	15	[0, 0, 0]	-999	PAL1	0	R1131M
1957.379	0.0	1448454	REC_EVENT	5009.0	n/a	3	5	GEESE	<>	GEESE	VASE	15	[0, 0, 0]	-999	PAL1	0	R1131M
1957.379	0.008	1448454	REC_END	n/a	n/a	3	-999	n/a	n/a	n/a	n/a	15	[0, 0, 0]	-999	PAL1	0	R1131M
1957.387	0.275	1448458	TEST_ORIENT	n/a	n/a	6	6	JUICE	n/a	TANK	JUICE	15	[0, 0, 0]	-999	PAL1	0	R1131M
1958.187	4.0	1448858	TEST_PROBE	n/a	wordpools/wordpool_EN.txt	6	6	JUICE	n/a	TANK	JUICE	15	[0, 0, 0]	-999	PAL1	0	R1131M
1958.188	5.009	1448858	REC_START	n/a	n/a	6	-999	n/a	n/a	n/a	n/a	15	[0, 0, 0]	-999	PAL1	0	R1131M
1963.197	0.0	1451363	REC_END	n/a	n/a	6	-999	n/a	n/a	n/a	n/a	15	[0, 0, 0]	-999	PAL1	0	R1131M
1963.197	416.492	1451363	REC_EVENT	5009.0	n/a	6	6	JUICE	<>	TANK	JUICE	15	[0, 0, 0]	-999	PAL1	0	R1131M
2379.689	10.451	1659594	ENCODING_START	n/a	n/a	0	-999	n/a	n/a	n/a	n/a	16	[0, 0, 0]	-999	PAL1	0	R1131M
2390.14	0.275	1664820	STUDY_ORIENT	n/a	n/a	1	3	CORN	n/a	PIN	CORN	16	[0, 0, 0]	-999	PAL1	0	R1131M
2391.023	4.0	1665261	STUDY_PAIR	n/a	wordpools/wordpool_EN.txt	1	3	CORN	n/a	PIN	CORN	16	[0, 0, 0]	-999	PAL1	0	R1131M
2396.041	0.275	1667770	STUDY_ORIENT	n/a	n/a	2	2	SPRING	n/a	SPRING	WAVE	16	[0, 0, 0]	-999	PAL1	0	R1131M
2397.041	4.0	1668270	STUDY_PAIR	n/a	wordpools/wordpool_EN.txt	2	2	SPRING	n/a	SPRING	WAVE	16	[0, 0, 0]	-999	PAL1	0	R1131M
2402.059	0.275	1670779	STUDY_ORIENT	n/a	n/a	3	1	POLE	n/a	POLE	CAT	16	[0, 0, 0]	-999	PAL1	0	R1131M
2403.059	4.0	1671279	STUDY_PAIR	n/a	wordpools/wordpool_EN.txt	3	1	POLE	n/a	POLE	CAT	16	[0, 0, 0]	-999	PAL1	0	R1131M
2408.093	0.275	1673795	STUDY_ORIENT	n/a	n/a	4	4	BAG	n/a	TOAD	BAG	16	[0, 0, 0]	-999	PAL1	0	R1131M
2409.11	4.0	1674304	STUDY_PAIR	n/a	wordpools/wordpool_EN.txt	4	4	BAG	n/a	TOAD	BAG	16	[0, 0, 0]	-999	PAL1	0	R1131M
2414.128	0.275	1676813	STUDY_ORIENT	n/a	n/a	5	5	SUIT	n/a	BLUSH	SUIT	16	[0, 0, 0]	-999	PAL1	0	R1131M
2415.145	4.0	1677321	STUDY_PAIR	n/a	wordpools/wordpool_EN.txt	5	5	SUIT	n/a	BLUSH	SUIT	16	[0, 0, 0]	-999	PAL1	0	R1131M
2420.179	0.275	1679838	STUDY_ORIENT	n/a	n/a	6	6	BAT	PLANE	BAT	PLANE	16	[0, 0, 0]	-999	PAL1	0	R1131M
2420.963	4.0	1680230	STUDY_PAIR	n/a	wordpools/wordpool_EN.txt	6	6	BAT	PLANE	BAT	PLANE	16	[0, 0, 0]	-999	PAL1	0	R1131M
2424.981	0.999	1682239	START	n/a	n/a	-999	-999	n/a	n/a	n/a	n/a	16	[-999, -999, -999]	-999	PAL1	0	R1131M
2425.98	0.017	1682738	MATH_START	n/a	n/a	-999	-999	n/a	n/a	n/a	n/a	16	[0, 0, 0]	-999	PAL1	0	R1131M
2425.997	4.618	1682747	PROB	4588.0	n/a	-999	-999	n/a	n/a	n/a	n/a	16	[4, 9, 9]	22	PAL1	0	R1131M
2430.615	3.434	1685056	PROB	3410.0	n/a	-999	-999	n/a	n/a	n/a	n/a	16	[8, 3, 2]	13	PAL1	0	R1131M
2434.049	3.217	1686773	PROB	3192.0	n/a	-999	-999	n/a	n/a	n/a	n/a	16	[7, 1, 2]	10	PAL1	0	R1131M
2437.266	2.884	1688381	PROB	2855.0	n/a	-999	-999	n/a	n/a	n/a	n/a	16	[3, 6, 1]	10	PAL1	0	R1131M
2440.15	3.05	1689823	PROB	3019.0	n/a	-999	-999	n/a	n/a	n/a	n/a	16	[2, 9, 6]	17	PAL1	0	R1131M
2443.2	2.953	1691348	PROB	2953.0	n/a	-999	-999	n/a	n/a	n/a	n/a	16	[5, 3, 7]	15	PAL1	0	R1131M
2446.153	0.015	1692824	STOP	n/a	n/a	-999	-999	n/a	n/a	n/a	n/a	16	[-999, -999, -999]	-999	PAL1	0	R1131M
2446.168	0.0	1692832	MATH_END	n/a	n/a	-999	-999	n/a	n/a	n/a	n/a	16	[0, 0, 0]	-999	PAL1	0	R1131M
2446.168	0.016	1692832	TEST_START	n/a	n/a	-999	-999	n/a	n/a	n/a	n/a	16	[0, 0, 0]	-999	PAL1	0	R1131M
2446.184	0.275	1692840	TEST_ORIENT	n/a	n/a	3	1	POLE	n/a	POLE	CAT	16	[0, 0, 0]	-999	PAL1	0	R1131M
2447.034	4.0	1693265	TEST_PROBE	n/a	wordpools/wordpool_EN.txt	3	1	POLE	n/a	POLE	CAT	16	[0, 0, 0]	-999	PAL1	0	R1131M
2447.035	5.009	1693265	REC_START	n/a	n/a	3	-999	n/a	n/a	n/a	n/a	16	[0, 0, 0]	-999	PAL1	0	R1131M
2452.044	0.001	1695769	REC_EVENT	5009.0	n/a	3	1	POLE	<>	POLE	CAT	16	[0, 0, 0]	-999	PAL1	0	R1131M
2452.045	0.007	1695770	REC_END	n/a	n/a	3	-999	n/a	n/a	n/a	n/a	16	[0, 0, 0]	-999	PAL1	0	R1131M
2452.052	0.275	1695773	TEST_ORIENT	n/a	n/a	2	2	SPRING	n/a	SPRING	WAVE	16	[0, 0, 0]	-999	PAL1	0	R1131M
2452.969	4.0	1696232	TEST_PROBE	n/a	wordpools/wordpool_EN.txt	2	2	SPRING	n/a	SPRING	WAVE	16	[0, 0, 0]	-999	PAL1	0	R1131M
2452.969	5.015	1696232	REC_START	n/a	n/a	2	-999	n/a	n/a	n/a	n/a	16	[0, 0, 0]	-999	PAL1	0	R1131M
2457.984	0.002	1698739	REC_EVENT	5015.0	n/a	2	2	SPRING	<>	SPRING	WAVE	16	[0, 0, 0]	-999	PAL1	0	R1131M
2457.986	0.017	1698740	REC_END	n/a	n/a	2	-999	n/a	n/a	n/a	n/a	16	[0, 0, 0]	-999	PAL1	0	R1131M
2458.003	0.275	1698749	TEST_ORIENT	n/a	n/a	1	3	CORN	n/a	PIN	CORN	16	[0, 0, 0]	-999	PAL1	0	R1131M
2458.92	4.0	1699207	TEST_PROBE	n/a	wordpools/wordpool_EN.txt	1	3	CORN	n/a	PIN	CORN	16	[0, 0, 0]	-999	PAL1	0	R1131M
2458.921	5.009	1699208	REC_START	n/a	n/a	1	-999	n/a	n/a	n/a	n/a	16	[0, 0, 0]	-999	PAL1	0	R1131M
2463.93	0.0	1701712	REC_EVENT	5009.0	n/a	1	3	CORN	<>	PIN	CORN	16	[0, 0, 0]	-999	PAL1	0	R1131M
2463.93	0.008	1701712	REC_END	n/a	n/a	1	-999	n/a	n/a	n/a	n/a	16	[0, 0, 0]	-999	PAL1	0	R1131M
2463.938	0.275	1701716	TEST_ORIENT	n/a	n/a	4	4	BAG	n/a	TOAD	BAG	16	[0, 0, 0]	-999	PAL1	0	R1131M
2464.921	4.0	1702208	TEST_PROBE	n/a	wordpools/wordpool_EN.txt	4	4	BAG	n/a	TOAD	BAG	16	[0, 0, 0]	-999	PAL1	0	R1131M
2464.922	5.008	1702208	REC_START	n/a	n/a	4	-999	n/a	n/a	n/a	n/a	16	[0, 0, 0]	-999	PAL1	0	R1131M
2469.93	0.001	1704712	REC_END	n/a	n/a	4	-999	n/a	n/a	n/a	n/a	16	[0, 0, 0]	-999	PAL1	0	R1131M
2469.931	0.008	1704712	REC_EVENT	5009.0	n/a	4	4	BAG	<>	TOAD	BAG	16	[0, 0, 0]	-999	PAL1	0	R1131M
2469.939	0.275	1704716	TEST_ORIENT	n/a	n/a	5	5	SUIT	n/a	BLUSH	SUIT	16	[0, 0, 0]	-999	PAL1	0	R1131M
2470.856	4.0	1705175	TEST_PROBE	n/a	wordpools/wordpool_EN.txt	5	5	SUIT	n/a	BLUSH	SUIT	16	[0, 0, 0]	-999	PAL1	0	R1131M
2470.857	5.021	1705175	REC_START	n/a	n/a	5	-999	n/a	n/a	n/a	n/a	16	[0, 0, 0]	-999	PAL1	0	R1131M
2475.878	0.004	1707686	REC_EVENT	5021.0	n/a	5	5	SUIT	<>	BLUSH	SUIT	16	[0, 0, 0]	-999	PAL1	0	R1131M
2475.882	0.008	1707688	REC_END	n/a	n/a	5	-999	n/a	n/a	n/a	n/a	16	[0, 0, 0]	-999	PAL1	0	R1131M
2475.89	0.275	1707692	TEST_ORIENT	n/a	n/a	6	6	BAT	PLANE	BAT	PLANE	16	[0, 0, 0]	-999	PAL1	0	R1131M
2476.69	4.0	1708092	TEST_PROBE	n/a	wordpools/wordpool_EN.txt	6	6	BAT	PLANE	BAT	PLANE	16	[0, 0, 0]	-999	PAL1	0	R1131M
2476.691	0.794	1708092	REC_START	n/a	n/a	6	-999	n/a	PLANE	n/a	n/a	16	[0, 0, 0]	-999	PAL1	0	R1131M
2477.485	4.215	1708489	REC_EVENT	794.0	n/a	6	6	BAT	PLANE	BAT	PLANE	16	[0, 0, 0]	-999	PAL1	0	R1131M
2481.7	8.053	1710596	REC_END	n/a	n/a	6	-999	n/a	n/a	n/a	n/a	16	[0, 0, 0]	-999	PAL1	0	R1131M
2489.753	10.442	1714623	ENCODING_START	n/a	n/a	0	-999	n/a	n/a	n/a	n/a	17	[0, 0, 0]	-999	PAL1	0	R1131M
2500.195	0.275	1719843	STUDY_ORIENT	n/a	n/a	1	1	MAP	DIME	DIME	MAP	17	[0, 0, 0]	-999	PAL1	0	R1131M
2500.995	4.0	1720243	STUDY_PAIR	n/a	wordpools/wordpool_EN.txt	1	1	MAP	DIME	DIME	MAP	17	[0, 0, 0]	-999	PAL1	0	R1131M
2506.013	0.275	1722752	STUDY_ORIENT	n/a	n/a	2	2	THUMB	BRICK	THUMB	BRICK	17	[0, 0, 0]	-999	PAL1	0	R1131M
2507.013	4.0	1723252	STUDY_PAIR	n/a	wordpools/wordpool_EN.txt	2	2	THUMB	BRICK	THUMB	BRICK	17	[0, 0, 0]	-999	PAL1	0	R1131M
2512.031	0.275	1725761	STUDY_ORIENT	n/a	n/a	3	5	WORLD	BEAR	BEAR	WORLD	17	[0, 0, 0]	-999	PAL1	0	R1131M
2513.031	4.0	1726261	STUDY_PAIR	n/a	wordpools/wordpool_EN.txt	3	5	WORLD	BEAR	BEAR	WORLD	17	[0, 0, 0]	-999	PAL1	0	R1131M
2518.065	0.275	1728778	STUDY_ORIENT	n/a	n/a	4	6	CHALK	DUCK	DUCK	CHALK	17	[0, 0, 0]	-999	PAL1	0	R1131M
2519.065	4.0	1729278	STUDY_PAIR	n/a	wordpools/wordpool_EN.txt	4	6	CHALK	DUCK	DUCK	CHALK	17	[0, 0, 0]	-999	PAL1	0	R1131M
2524.083	0.275	1731787	STUDY_ORIENT	n/a	n/a	5	3	HEN	BOARD	BOARD	HEN	17	[0, 0, 0]	-999	PAL1	0	R1131M
2525.033	4.0	1732261	STUDY_PAIR	n/a	wordpools/wordpool_EN.txt	5	3	HEN	BOARD	BOARD	HEN	17	[0, 0, 0]	-999	PAL1	0	R1131M
2530.051	0.275	1734770	STUDY_ORIENT	n/a	n/a	6	4	FOOD	BRUSH	FOOD	BRUSH	17	[0, 0, 0]	-999	PAL1	0	R1131M
2531.035	4.0	1735262	STUDY_PAIR	n/a	wordpools/wordpool_EN.txt	6	4	FOOD	BRUSH	FOOD	BRUSH	17	[0, 0, 0]	-999	PAL1	0	R1131M
2535.053	0.999	1737271	START	n/a	n/a	-999	-999	n/a	n/a	n/a	n/a	17	[-999, -999, -999]	-999	PAL1	0	R1131M
2536.052	0.017	1737771	MATH_START	n/a	n/a	-999	-999	n/a	n/a	n/a	n/a	17	[0, 0, 0]	-999	PAL1	0	R1131M
2536.069	4.117	1737779	PROB	4092.0	n/a	-999	-999	n/a	n/a	n/a	n/a	17	[7, 3, 5]	15	PAL1	0	R1131M
2540.186	4.068	1739837	PROB	4039.0	n/a	-999	-999	n/a	n/a	n/a	n/a	17	[7, 6, 2]	15	PAL1	0	R1131M
2544.254	4.801	1741871	PROB	4779.0	n/a	-999	-999	n/a	n/a	n/a	n/a	17	[7, 3, 7]	17	PAL1	0	R1131M
2549.055	3.484	1744272	PROB	3458.0	n/a	-999	-999	n/a	n/a	n/a	n/a	17	[5, 4, 4]	13	PAL1	0	R1131M
2552.539	3.959	1746014	PROB	3959.0	n/a	-999	-999	n/a	n/a	n/a	n/a	17	[7, 6, 8]	21	PAL1	0	R1131M
2556.498	0.009	1747993	STOP	n/a	n/a	-999	-999	n/a	n/a	n/a	n/a	17	[-999, -999, -999]	-999	PAL1	0	R1131M
2556.507	0.0	1747997	MATH_END	n/a	n/a	-999	-999	n/a	n/a	n/a	n/a	17	[0, 0, 0]	-999	PAL1	0	R1131M
2556.507	0.016	1747997	TEST_START	n/a	n/a	-999	-999	n/a	n/a	n/a	n/a	17	[0, 0, 0]	-999	PAL1	0	R1131M
2556.523	0.275	1748005	TEST_ORIENT	n/a	n/a	1	1	MAP	DIME	DIME	MAP	17	[0, 0, 0]	-999	PAL1	0	R1131M
2557.556	4.0	1748522	TEST_PROBE	n/a	wordpools/wordpool_EN.txt	1	1	MAP	DIME	DIME	MAP	17	[0, 0, 0]	-999	PAL1	0	R1131M
2557.557	1.15	1748522	REC_START	n/a	n/a	1	-999	n/a	DIME	n/a	n/a	17	[0, 0, 0]	-999	PAL1	0	R1131M
2558.707	3.859	1749097	REC_EVENT	1150.0	n/a	1	1	MAP	DIME	DIME	MAP	17	[0, 0, 0]	-999	PAL1	0	R1131M
2562.566	0.008	1751027	REC_END	n/a	n/a	1	-999	n/a	n/a	n/a	n/a	17	[0, 0, 0]	-999	PAL1	0	R1131M
2562.574	0.275	1751031	TEST_ORIENT	n/a	n/a	2	2	THUMB	BRICK	THUMB	BRICK	17	[0, 0, 0]	-999	PAL1	0	R1131M
2563.425	4.0	1751456	TEST_PROBE	n/a	wordpools/wordpool_EN.txt	2	2	THUMB	BRICK	THUMB	BRICK	17	[0, 0, 0]	-999	PAL1	0	R1131M
2563.426	1.557	1751457	REC_START	n/a	n/a	2	-999	n/a	BRICK	n/a	n/a	17	[0, 0, 0]	-999	PAL1	0	R1131M
2564.983	3.452	1752235	REC_EVENT	1557.0	n/a	2	2	THUMB	BRICK	THUMB	BRICK	17	[0, 0, 0]	-999	PAL1	0	R1131M
2568.435	0.008	1753961	REC_END	n/a	n/a	2	-999	n/a	n/a	n/a	n/a	17	[0, 0, 0]	-999	PAL1	0	R1131M
2568.443	0.275	1753965	TEST_ORIENT	n/a	n/a	5	3	HEN	BOARD	BOARD	HEN	17	[0, 0, 0]	-999	PAL1	0	R1131M
2569.46	4.0	1754473	TEST_PROBE	n/a	wordpools/wordpool_EN.txt	5	3	HEN	BOARD	BOARD	HEN	17	[0, 0, 0]	-999	PAL1	0	R1131M
2569.46	1.366	1754473	REC_START	n/a	n/a	5	-999	n/a	BOARD	n/a	n/a	17	[0, 0, 0]	-999	PAL1	0	R1131M
2570.826	3.651	1755156	REC_EVENT	1366.0	n/a	5	3	HEN	BOARD	BOARD	HEN	17	[0, 0, 0]	-999	PAL1	0	R1131M
2574.477	0.017	1756982	REC_END	n/a	n/a	5	-999	n/a	n/a	n/a	n/a	17	[0, 0, 0]	-999	PAL1	0	R1131M
2574.494	0.275	1756990	TEST_ORIENT	n/a	n/a	6	4	FOOD	BRUSH	FOOD	BRUSH	17	[0, 0, 0]	-999	PAL1	0	R1131M
2575.428	4.0	1757457	TEST_PROBE	n/a	wordpools/wordpool_EN.txt	6	4	FOOD	BRUSH	FOOD	BRUSH	17	[0, 0, 0]	-999	PAL1	0	R1131M
2575.428	1.255	1757457	REC_START	n/a	n/a	6	-999	n/a	BRUSH	n/a	n/a	17	[0, 0, 0]	-999	PAL1	0	R1131M
2576.683	3.762	1758085	REC_EVENT	1255.0	n/a	6	4	FOOD	BRUSH	FOOD	BRUSH	17	[0, 0, 0]	-999	PAL1	0	R1131M
2580.445	0.017	1759966	REC_END	n/a	n/a	6	-999	n/a	n/a	n/a	n/a	17	[0, 0, 0]	-999	PAL1	0	R1131M
2580.462	0.275	1759974	TEST_ORIENT	n/a	n/a	3	5	WORLD	BEAR	BEAR	WORLD	17	[0, 0, 0]	-999	PAL1	0	R1131M
2581.479	0.0	1760483	REC_START	n/a	n/a	3	-999	n/a	BEAR	n/a	n/a	17	[0, 0, 0]	-999	PAL1	0	R1131M
2581.479	4.0	1760483	TEST_PROBE	n/a	wordpools/wordpool_EN.txt	3	5	WORLD	BEAR	BEAR	WORLD	17	[0, 0, 0]	-999	PAL1	0	R1131M
2583.288	3.208	1761387	REC_EVENT	1809.0	n/a	3	5	WORLD	BEAR	BEAR	WORLD	17	[0, 0, 0]	-999	PAL1	0	R1131M
2586.496	0.016	1762991	REC_END	n/a	n/a	3	-999	n/a	n/a	n/a	n/a	17	[0, 0, 0]	-999	PAL1	0	R1131M
2586.512	0.275	1762999	TEST_ORIENT	n/a	n/a	4	6	CHALK	DUCK	DUCK	CHALK	17	[0, 0, 0]	-999	PAL1	0	R1131M
2587.312	4.0	1763399	TEST_PROBE	n/a	wordpools/wordpool_EN.txt	4	6	CHALK	DUCK	DUCK	CHALK	17	[0, 0, 0]	-999	PAL1	0	R1131M
2587.313	1.757	1763399	REC_START	n/a	n/a	4	-999	n/a	DUCK	n/a	n/a	17	[0, 0, 0]	-999	PAL1	0	R1131M
2589.07	3.252	1764278	REC_EVENT	1757.0	n/a	4	6	CHALK	DUCK	DUCK	CHALK	17	[0, 0, 0]	-999	PAL1	0	R1131M
2592.322	46.543	1765904	REC_END	n/a	n/a	4	-999	n/a	n/a	n/a	n/a	17	[0, 0, 0]	-999	PAL1	0	R1131M
2638.865	10.443	1789174	ENCODING_START	n/a	n/a	0	-999	n/a	n/a	n/a	n/a	18	[0, 0, 0]	-999	PAL1	0	R1131M
2649.308	0.275	1794395	STUDY_ORIENT	n/a	n/a	1	3	JUDGE	SHOE	JUDGE	SHOE	18	[0, 0, 0]	-999	PAL1	0	R1131M
2650.142	4.0	1794812	STUDY_PAIR	n/a	wordpools/wordpool_EN.txt	1	3	JUDGE	SHOE	JUDGE	SHOE	18	[0, 0, 0]	-999	PAL1	0	R1131M
2655.176	0.275	1797329	STUDY_ORIENT	n/a	n/a	2	2	CHEEK	n/a	CHEEK	DOLL	18	[0, 0, 0]	-999	PAL1	0	R1131M
2655.959	4.0	1797720	STUDY_PAIR	n/a	wordpools/wordpool_EN.txt	2	2	CHEEK	n/a	CHEEK	DOLL	18	[0, 0, 0]	-999	PAL1	0	R1131M
2660.977	0.275	1800229	STUDY_ORIENT	n/a	n/a	3	1	APE	DESK	DESK	APE	18	[0, 0, 0]	-999	PAL1	0	R1131M
2661.961	4.0	1800721	STUDY_PAIR	n/a	wordpools/wordpool_EN.txt	3	1	APE	DESK	DESK	APE	18	[0, 0, 0]	-999	PAL1	0	R1131M
2666.995	0.275	1803238	STUDY_ORIENT	n/a	n/a	4	4	MILK	PEA	MILK	PEA	18	[0, 0, 0]	-999	PAL1	0	R1131M
2667.778	4.0	1803629	STUDY_PAIR	n/a	wordpools/wordpool_EN.txt	4	4	MILK	PEA	MILK	PEA	18	[0, 0, 0]	-999	PAL1	0	R1131M
2672.796	0.275	1806138	STUDY_ORIENT	n/a	n/a	5	5	SOAP	BROOM	BROOM	SOAP	18	[0, 0, 0]	-999	PAL1	0	R1131M
2673.629	4.0	1806554	STUDY_PAIR	n/a	wordpools/wordpool_EN.txt	5	5	SOAP	BROOM	BROOM	SOAP	18	[0, 0, 0]	-999	PAL1	0	R1131M
2678.647	0.275	1809063	STUDY_ORIENT	n/a	n/a	6	6	TOOL	FUR	TOOL	FUR	18	[0, 0, 0]	-999	PAL1	0	R1131M
2679.448	4.0	1809464	STUDY_PAIR	n/a	wordpools/wordpool_EN.txt	6	6	TOOL	FUR	TOOL	FUR	18	[0, 0, 0]	-999	PAL1	0	R1131M
2683.449	1.0	1811464	START	n/a	n/a	-999	-999	n/a	n/a	n/a	n/a	18	[-999, -999, -999]	-999	PAL1	0	R1131M
2684.449	0.017	1811964	MATH_START	n/a	n/a	-999	-999	n/a	n/a	n/a	n/a	18	[0, 0, 0]	-999	PAL1	0	R1131M
2684.466	3.366	1811973	PROB	3343.0	n/a	-999	-999	n/a	n/a	n/a	n/a	18	[1, 2, 8]	11	PAL1	0	R1131M
2687.832	3.051	1813655	PROB	3025.0	n/a	-999	-999	n/a	n/a	n/a	n/a	18	[4, 5, 9]	18	PAL1	0	R1131M
2690.883	3.401	1815181	PROB	3374.0	n/a	-999	-999	n/a	n/a	n/a	n/a	18	[5, 1, 2]	8	PAL1	0	R1131M
2694.284	2.917	1816881	PROB	2885.0	n/a	-999	-999	n/a	n/a	n/a	n/a	18	[7, 2, 7]	16	PAL1	0	R1131M
2697.201	4.467	1818340	PROB	4448.0	n/a	-999	-999	n/a	n/a	n/a	n/a	18	[6, 3, 9]	18	PAL1	0	R1131M
2701.668	2.901	1820573	PROB	2901.0	n/a	-999	-999	n/a	n/a	n/a	n/a	18	[7, 5, 3]	15	PAL1	0	R1131M
2704.569	0.017	1822023	STOP	n/a	n/a	-999	-999	n/a	n/a	n/a	n/a	18	[-999, -999, -999]	-999	PAL1	0	R1131M
2704.586	0.0	1822032	MATH_END	n/a	n/a	-999	-999	n/a	n/a	n/a	n/a	18	[0, 0, 0]	-999	PAL1	0	R1131M
2704.586	0.017	1822032	TEST_START	n/a	n/a	-999	-999	n/a	n/a	n/a	n/a	18	[0, 0, 0]	-999	PAL1	0	R1131M
2704.603	0.275	1822040	TEST_ORIENT	n/a	n/a	3	1	APE	DESK	DESK	APE	18	[0, 0, 0]	-999	PAL1	0	R1131M
2705.619	4.0	1822548	TEST_PROBE	n/a	wordpools/wordpool_EN.txt	3	1	APE	DESK	DESK	APE	18	[0, 0, 0]	-999	PAL1	0	R1131M
2705.62	1.349	1822549	REC_START	n/a	n/a	3	-999	n/a	DESK	n/a	n/a	18	[0, 0, 0]	-999	PAL1	0	R1131M
2706.969	3.66	1823223	REC_EVENT	1349.0	n/a	3	1	APE	DESK	DESK	APE	18	[0, 0, 0]	-999	PAL1	0	R1131M
2710.629	0.008	1825053	REC_END	n/a	n/a	3	-999	n/a	n/a	n/a	n/a	18	[0, 0, 0]	-999	PAL1	0	R1131M
2710.637	0.275	1825057	TEST_ORIENT	n/a	n/a	2	2	CHEEK	n/a	CHEEK	DOLL	18	[0, 0, 0]	-999	PAL1	0	R1131M
2711.438	4.0	1825458	TEST_PROBE	n/a	wordpools/wordpool_EN.txt	2	2	CHEEK	n/a	CHEEK	DOLL	18	[0, 0, 0]	-999	PAL1	0	R1131M
2711.438	5.018	1825458	REC_START	n/a	n/a	2	-999	n/a	n/a	n/a	n/a	18	[0, 0, 0]	-999	PAL1	0	R1131M
2716.456	0.003	1827966	REC_END	n/a	n/a	2	-999	n/a	n/a	n/a	n/a	18	[0, 0, 0]	-999	PAL1	0	R1131M
2716.459	0.013	1827968	REC_EVENT	5021.0	n/a	2	2	CHEEK	<>	CHEEK	DOLL	18	[0, 0, 0]	-999	PAL1	0	R1131M
2716.472	0.275	1827974	TEST_ORIENT	n/a	n/a	1	3	JUDGE	SHOE	JUDGE	SHOE	18	[0, 0, 0]	-999	PAL1	0	R1131M
2717.322	4.0	1828399	TEST_PROBE	n/a	wordpools/wordpool_EN.txt	1	3	JUDGE	SHOE	JUDGE	SHOE	18	[0, 0, 0]	-999	PAL1	0	R1131M
2717.322	1.341	1828399	REC_START	n/a	n/a	1	-999	n/a	SHOE	n/a	n/a	18	[0, 0, 0]	-999	PAL1	0	R1131M
2718.663	3.685	1829070	REC_EVENT	1341.0	n/a	1	3	JUDGE	SHOE	JUDGE	SHOE	18	[0, 0, 0]	-999	PAL1	0	R1131M
2722.348	0.008	1830912	REC_END	n/a	n/a	1	-999	n/a	n/a	n/a	n/a	18	[0, 0, 0]	-999	PAL1	0	R1131M
2722.356	0.275	1830916	TEST_ORIENT	n/a	n/a	4	4	MILK	PEA	MILK	PEA	18	[0, 0, 0]	-999	PAL1	0	R1131M
2723.356	4.0	1831416	TEST_PROBE	n/a	wordpools/wordpool_EN.txt	4	4	MILK	PEA	MILK	PEA	18	[0, 0, 0]	-999	PAL1	0	R1131M
2723.357	1.288	1831417	REC_START	n/a	n/a	4	-999	n/a	PEA	n/a	n/a	18	[0, 0, 0]	-999	PAL1	0	R1131M
2724.645	3.72	1832061	REC_EVENT	1288.0	n/a	4	4	MILK	PEA	MILK	PEA	18	[0, 0, 0]	-999	PAL1	0	R1131M
2728.365	0.009	1833921	REC_END	n/a	n/a	4	-999	n/a	n/a	n/a	n/a	18	[0, 0, 0]	-999	PAL1	0	R1131M
2728.374	0.275	1833925	TEST_ORIENT	n/a	n/a	5	5	SOAP	BROOM	BROOM	SOAP	18	[0, 0, 0]	-999	PAL1	0	R1131M
2729.392	4.0	1834434	TEST_PROBE	n/a	wordpools/wordpool_EN.txt	5	5	SOAP	BROOM	BROOM	SOAP	18	[0, 0, 0]	-999	PAL1	0	R1131M
2729.392	1.376	1834434	REC_START	n/a	n/a	5	-999	n/a	BROOM	n/a	n/a	18	[0, 0, 0]	-999	PAL1	0	R1131M
2730.768	3.641	1835122	REC_EVENT	1376.0	n/a	5	5	SOAP	BROOM	BROOM	SOAP	18	[0, 0, 0]	-999	PAL1	0	R1131M
2734.409	0.017	1836942	REC_END	n/a	n/a	5	-999	n/a	n/a	n/a	n/a	18	[0, 0, 0]	-999	PAL1	0	R1131M
2734.426	0.275	1836951	TEST_ORIENT	n/a	n/a	6	6	TOOL	FUR	TOOL	FUR	18	[0, 0, 0]	-999	PAL1	0	R1131M
2735.325	4.0	1837400	TEST_PROBE	n/a	wordpools/wordpool_EN.txt	6	6	TOOL	FUR	TOOL	FUR	18	[0, 0, 0]	-999	PAL1	0	R1131M
2735.326	1.316	1837401	REC_START	n/a	n/a	6	-999	n/a	FUR	n/a	n/a	18	[0, 0, 0]	-999	PAL1	0	R1131M
2736.642	3.693	1838059	REC_EVENT	1316.0	n/a	6	6	TOOL	FUR	TOOL	FUR	18	[0, 0, 0]	-999	PAL1	0	R1131M
2740.335	9.794	1839905	REC_END	n/a	n/a	6	-999	n/a	n/a	n/a	n/a	18	[0, 0, 0]	-999	PAL1	0	R1131M
2750.129	10.451	1844802	ENCODING_START	n/a	n/a	0	-999	n/a	n/a	n/a	n/a	19	[0, 0, 0]	-999	PAL1	0	R1131M
2760.58	0.275	1850027	STUDY_ORIENT	n/a	n/a	1	5	RAIN	STAIR	STAIR	RAIN	19	[0, 0, 0]	-999	PAL1	0	R1131M
2761.514	4.0	1850494	STUDY_PAIR	n/a	wordpools/wordpool_EN.txt	1	5	RAIN	STAIR	STAIR	RAIN	19	[0, 0, 0]	-999	PAL1	0	R1131M
2766.548	0.275	1853011	STUDY_ORIENT	n/a	n/a	2	6	POND	HORN	POND	HORN	19	[0, 0, 0]	-999	PAL1	0	R1131M
2767.548	4.0	1853511	STUDY_PAIR	n/a	wordpools/wordpool_EN.txt	2	6	POND	HORN	POND	HORN	19	[0, 0, 0]	-999	PAL1	0	R1131M
2772.566	0.275	1856020	STUDY_ORIENT	n/a	n/a	3	1	STORM	KITE	KITE	STORM	19	[0, 0, 0]	-999	PAL1	0	R1131M
2773.583	4.0	1856528	STUDY_PAIR	n/a	wordpools/wordpool_EN.txt	3	1	STORM	KITE	KITE	STORM	19	[0, 0, 0]	-999	PAL1	0	R1131M
2778.617	0.275	1859045	STUDY_ORIENT	n/a	n/a	4	2	EEL	AXE	EEL	AXE	19	[0, 0, 0]	-999	PAL1	0	R1131M
2779.534	4.0	1859503	STUDY_PAIR	n/a	wordpools/wordpool_EN.txt	4	2	EEL	AXE	EEL	AXE	19	[0, 0, 0]	-999	PAL1	0	R1131M
2784.568	0.275	1862020	STUDY_ORIENT	n/a	n/a	5	3	KEY	n/a	KEY	TEA	19	[0, 0, 0]	-999	PAL1	0	R1131M
2785.403	4.0	1862438	STUDY_PAIR	n/a	wordpools/wordpool_EN.txt	5	3	KEY	n/a	KEY	TEA	19	[0, 0, 0]	-999	PAL1	0	R1131M
2790.437	0.275	1864954	STUDY_ORIENT	n/a	n/a	6	4	CAGE	VAN	VAN	CAGE	19	[0, 0, 0]	-999	PAL1	0	R1131M
2791.22	4.0	1865346	STUDY_PAIR	n/a	wordpools/wordpool_EN.txt	6	4	CAGE	VAN	VAN	CAGE	19	[0, 0, 0]	-999	PAL1	0	R1131M
2795.238	0.999	1867355	START	n/a	n/a	-999	-999	n/a	n/a	n/a	n/a	19	[-999, -999, -999]	-999	PAL1	0	R1131M
2796.237	0.017	1867854	MATH_START	n/a	n/a	-999	-999	n/a	n/a	n/a	n/a	19	[0, 0, 0]	-999	PAL1	0	R1131M
2796.254	4.135	1867863	PROB	4107.0	n/a	-999	-999	n/a	n/a	n/a	n/a	19	[7, 1, 8]	16	PAL1	0	R1131M
2800.389	3.216	1869930	PROB	3196.0	n/a	-999	-999	n/a	n/a	n/a	n/a	19	[3, 6, 9]	18	PAL1	0	R1131M
2803.605	4.886	1871538	PROB	4861.0	n/a	-999	-999	n/a	n/a	n/a	n/a	19	[3, 5, 9]	17	PAL1	0	R1131M
2808.491	2.816	1873981	PROB	2790.0	n/a	-999	-999	n/a	n/a	n/a	n/a	19	[9, 5, 4]	18	PAL1	0	R1131M
2811.307	3.851	1875389	PROB	3822.0	n/a	-999	-999	n/a	n/a	n/a	n/a	19	[3, 4, 1]	8	PAL1	0	R1131M
2815.158	5.931	1877314	PROB	5931.0	n/a	-999	-999	n/a	n/a	n/a	n/a	19	[8, 9, 8]	25	PAL1	0	R1131M
2821.089	0.003	1880279	STOP	n/a	n/a	-999	-999	n/a	n/a	n/a	n/a	19	[-999, -999, -999]	-999	PAL1	0	R1131M
2821.092	0.0	1880281	MATH_END	n/a	n/a	-999	-999	n/a	n/a	n/a	n/a	19	[0, 0, 0]	-999	PAL1	0	R1131M
2821.092	0.017	1880281	TEST_START	n/a	n/a	-999	-999	n/a	n/a	n/a	n/a	19	[0, 0, 0]	-999	PAL1	0	R1131M
2821.109	0.275	1880289	TEST_ORIENT	n/a	n/a	3	1	STORM	KITE	KITE	STORM	19	[0, 0, 0]	-999	PAL1	0	R1131M
2822.126	0.0	1880798	REC_START	n/a	n/a	3	-999	n/a	KITE	n/a	n/a	19	[0, 0, 0]	-999	PAL1	0	R1131M
