onset	duration	sample	trial_type	response_time	stim_file	serialpos	probepos	probe_word	resp_word	study_1	study_2	list	test	answer	experiment	session	subject
0.0	0.0	7542	INSTRUCT_VIDEO_ON	n/a	n/a	-999	-999	n/a	n/a	n/a	n/a	-999	[0, 0, 0]	-999	PAL1	1	R1278E
0.0	5.407	7542	INSTRUCT_VIDEO_OFF	n/a	n/a	-999	-999	n/a	n/a	n/a	n/a	-999	[0, 0, 0]	-999	PAL1	1	R1278E
5.407	0.0	12949	SESS_START	n/a	n/a	-999	-999	n/a	n/a	n/a	n/a	-999	[0, 0, 0]	-999	PAL1	1	R1278E
5.407	124.461	12949	MIC_TEST	n/a	n/a	-999	-999	n/a	n/a	n/a	n/a	-999	[0, 0, 0]	-999	PAL1	1	R1278E
129.868	15.852	137405	PRACTICE_TRIAL	n/a	n/a	-999	-999	n/a	n/a	n/a	n/a	-1	[0, 0, 0]	-999	PAL1	1	R1278E
145.72	0.006	153256	ENCODING_START	n/a	n/a	-999	-999	n/a	n/a	n/a	n/a	-1	[0, 0, 0]	-999	PAL1	1	R1278E
145.726	0.266	153262	PRACTICE_ORIENT	n/a	n/a	1	5	RHINO	n/a	RHINO	ATTIC	-1	[0, 0, 0]	-999	PAL1	1	R1278E
145.992	0.7	153528	PRACTICE_ORIENT_OFF	n/a	n/a	1	5	RHINO	n/a	RHINO	ATTIC	-1	[0, 0, 0]	-999	PAL1	1	R1278E
146.692	4.0	154228	PRACTICE_PAIR	n/a	n/a	1	5	RHINO	n/a	RHINO	ATTIC	-1	[0, 0, 0]	-999	PAL1	1	R1278E
150.71	1.017	158246	PRACTICE_PAIR_OFF	n/a	n/a	1	5	RHINO	n/a	RHINO	ATTIC	-1	[0, 0, 0]	-999	PAL1	1	R1278E
151.727	0.266	159263	PRACTICE_ORIENT	n/a	n/a	2	6	WAGON	PASS	IRON	WAGON	-1	[0, 0, 0]	-999	PAL1	1	R1278E
151.993	0.667	159529	PRACTICE_ORIENT_OFF	n/a	n/a	2	6	WAGON	PASS	IRON	WAGON	-1	[0, 0, 0]	-999	PAL1	1	R1278E
152.66	4.0	160196	PRACTICE_PAIR	n/a	n/a	2	6	WAGON	PASS	IRON	WAGON	-1	[0, 0, 0]	-999	PAL1	1	R1278E
156.677	1.017	164213	PRACTICE_PAIR_OFF	n/a	n/a	2	6	WAGON	PASS	IRON	WAGON	-1	[0, 0, 0]	-999	PAL1	1	R1278E
157.694	0.267	165230	PRACTICE_ORIENT	n/a	n/a	3	3	COTTON	PASS	TONGUE	COTTON	-1	[0, 0, 0]	-999	PAL1	1	R1278E
157.961	0.633	165497	PRACTICE_ORIENT_OFF	n/a	n/a	3	3	COTTON	PASS	TONGUE	COTTON	-1	[0, 0, 0]	-999	PAL1	1	R1278E
158.594	4.0	166130	PRACTICE_PAIR	n/a	n/a	3	3	COTTON	PASS	TONGUE	COTTON	-1	[0, 0, 0]	-999	PAL1	1	R1278E
162.612	1.017	170147	PRACTICE_PAIR_OFF	n/a	n/a	3	3	COTTON	PASS	TONGUE	COTTON	-1	[0, 0, 0]	-999	PAL1	1	R1278E
163.629	0.266	171164	PRACTICE_ORIENT	n/a	n/a	4	4	CAMEL	n/a	CHEST	CAMEL	-1	[0, 0, 0]	-999	PAL1	1	R1278E
163.895	0.65	171430	PRACTICE_ORIENT_OFF	n/a	n/a	4	4	CAMEL	n/a	CHEST	CAMEL	-1	[0, 0, 0]	-999	PAL1	1	R1278E
164.545	4.0	172080	PRACTICE_PAIR	n/a	n/a	4	4	CAMEL	n/a	CHEST	CAMEL	-1	[0, 0, 0]	-999	PAL1	1	R1278E
168.563	1.017	176098	PRACTICE_PAIR_OFF	n/a	n/a	4	4	CAMEL	n/a	CHEST	CAMEL	-1	[0, 0, 0]	-999	PAL1	1	R1278E
169.58	0.266	177115	PRACTICE_ORIENT	n/a	n/a	5	1	WATCH	PASS	WATCH	RING	-1	[0, 0, 0]	-999	PAL1	1	R1278E
169.846	0.599	177381	PRACTICE_ORIENT_OFF	n/a	n/a	5	1	WATCH	PASS	WATCH	RING	-1	[0, 0, 0]	-999	PAL1	1	R1278E
170.445	4.0	177980	PRACTICE_PAIR	n/a	n/a	5	1	WATCH	PASS	WATCH	RING	-1	[0, 0, 0]	-999	PAL1	1	R1278E
174.463	1.017	181998	PRACTICE_PAIR_OFF	n/a	n/a	5	1	WATCH	PASS	WATCH	RING	-1	[0, 0, 0]	-999	PAL1	1	R1278E
175.48	0.267	183015	PRACTICE_ORIENT	n/a	n/a	6	2	FLOOD	BEAM	FLOOD	BEAM	-1	[0, 0, 0]	-999	PAL1	1	R1278E
175.747	0.533	183282	PRACTICE_ORIENT_OFF	n/a	n/a	6	2	FLOOD	BEAM	FLOOD	BEAM	-1	[0, 0, 0]	-999	PAL1	1	R1278E
176.28	4.0	183815	PRACTICE_PAIR	n/a	n/a	6	2	FLOOD	BEAM	FLOOD	BEAM	-1	[0, 0, 0]	-999	PAL1	1	R1278E
180.297	1.001	187832	PRACTICE_PAIR_OFF	n/a	n/a	6	2	FLOOD	BEAM	FLOOD	BEAM	-1	[0, 0, 0]	-999	PAL1	1	R1278E
181.298	0.0	188833	ENCODING_END	n/a	n/a	-999	-999	n/a	n/a	n/a	n/a	-1	[0, 0, 0]	-999	PAL1	1	R1278E
181.298	0.0	188833	MATH_START	n/a	n/a	-999	-999	n/a	n/a	n/a	n/a	-1	[0, 0, 0]	-999	PAL1	1	R1278E
181.298	0.016	188833	START	n/a	n/a	-999	-999	n/a	n/a	n/a	n/a	-1	[-999, -999, -999]	-999	PAL1	1	R1278E
181.314	4.568	188849	PROB	4546.0	n/a	-999	-999	n/a	n/a	n/a	n/a	-1	[8, 1, 9]	18	PAL1	1	R1278E
185.882	2.317	193416	PROB	2288.0	n/a	-999	-999	n/a	n/a	n/a	n/a	-1	[5, 5, 2]	12	PAL1	1	R1278E
188.199	4.635	195733	PROB	4612.0	n/a	-999	-999	n/a	n/a	n/a	n/a	-1	[6, 8, 3]	17	PAL1	1	R1278E
192.834	3.117	200368	PROB	3082.0	n/a	-999	-999	n/a	n/a	n/a	n/a	-1	[3, 5, 4]	12	PAL1	1	R1278E
195.951	3.034	203485	PROB	2997.0	n/a	-999	-999	n/a	n/a	n/a	n/a	-1	[2, 7, 7]	16	PAL1	1	R1278E
198.985	4.513	206519	PROB	4513.0	n/a	-999	-999	n/a	n/a	n/a	n/a	-1	[5, 2, 8]	15	PAL1	1	R1278E
203.498	0.02	211032	STOP	n/a	n/a	-999	-999	n/a	n/a	n/a	n/a	-1	[-999, -999, -999]	-999	PAL1	1	R1278E
203.518	0.0	211052	MATH_END	n/a	n/a	-999	-999	n/a	n/a	n/a	n/a	-1	[0, 0, 0]	-999	PAL1	1	R1278E
203.518	0.017	211052	RECALL_START	n/a	n/a	-999	-999	n/a	n/a	n/a	n/a	-1	[0, 0, 0]	-999	PAL1	1	R1278E
203.535	0.267	211069	PRACTICE_RETRIEVAL_ORIENT	n/a	n/a	5	1	WATCH	PASS	WATCH	RING	-1	[0, 0, 0]	-999	PAL1	1	R1278E
203.802	0.616	211336	PRACTICE_RETRIEVAL_ORIENT_OFF	n/a	n/a	5	1	WATCH	PASS	WATCH	RING	-1	[0, 0, 0]	-999	PAL1	1	R1278E
204.418	4.0	211952	PRACTICE_PROBE	n/a	n/a	5	1	WATCH	PASS	WATCH	RING	-1	[0, 0, 0]	-999	PAL1	1	R1278E
204.419	3.114	211953	REC_START	n/a	n/a	5	-999	n/a	PASS	n/a	n/a	-1	[0, 0, 0]	-999	PAL1	1	R1278E
207.533	0.902	215067	REC_EVENT	3114.0	n/a	5	1	WATCH	PASS	WATCH	RING	-1	[0, 0, 0]	-999	PAL1	1	R1278E
208.435	1.0	215969	PROBE_OFF	n/a	n/a	5	-999	n/a	n/a	n/a	n/a	-1	[0, 0, 0]	-999	PAL1	1	R1278E
209.435	0.017	216969	REC_END	n/a	n/a	5	-999	n/a	n/a	n/a	n/a	-1	[0, 0, 0]	-999	PAL1	1	R1278E
209.452	0.268	216986	PRACTICE_RETRIEVAL_ORIENT	n/a	n/a	6	2	FLOOD	BEAM	FLOOD	BEAM	-1	[0, 0, 0]	-999	PAL1	1	R1278E
209.72	0.515	217254	PRACTICE_RETRIEVAL_ORIENT_OFF	n/a	n/a	6	2	FLOOD	BEAM	FLOOD	BEAM	-1	[0, 0, 0]	-999	PAL1	1	R1278E
210.235	4.0	217768	PRACTICE_PROBE	n/a	n/a	6	2	FLOOD	BEAM	FLOOD	BEAM	-1	[0, 0, 0]	-999	PAL1	1	R1278E
210.236	1.2	217769	REC_START	n/a	n/a	6	-999	n/a	BEAM	n/a	n/a	-1	[0, 0, 0]	-999	PAL1	1	R1278E
211.436	2.8	218969	REC_EVENT	1200.0	n/a	6	2	FLOOD	BEAM	FLOOD	BEAM	-1	[0, 0, 0]	-999	PAL1	1	R1278E
214.236	1.0	221769	PROBE_OFF	n/a	n/a	6	-999	n/a	n/a	n/a	n/a	-1	[0, 0, 0]	-999	PAL1	1	R1278E
215.236	0.017	222769	REC_END	n/a	n/a	6	-999	n/a	n/a	n/a	n/a	-1	[0, 0, 0]	-999	PAL1	1	R1278E
215.253	0.267	222786	PRACTICE_RETRIEVAL_ORIENT	n/a	n/a	3	3	COTTON	PASS	TONGUE	COTTON	-1	[0, 0, 0]	-999	PAL1	1	R1278E
215.52	0.533	223053	PRACTICE_RETRIEVAL_ORIENT_OFF	n/a	n/a	3	3	COTTON	PASS	TONGUE	COTTON	-1	[0, 0, 0]	-999	PAL1	1	R1278E
216.053	4.0	223586	PRACTICE_PROBE	n/a	n/a	3	3	COTTON	PASS	TONGUE	COTTON	-1	[0, 0, 0]	-999	PAL1	1	R1278E
216.054	3.164	223587	REC_START	n/a	n/a	3	-999	n/a	PASS	n/a	n/a	-1	[0, 0, 0]	-999	PAL1	1	R1278E
219.218	0.853	226751	REC_EVENT	3164.0	n/a	3	3	COTTON	PASS	TONGUE	COTTON	-1	[0, 0, 0]	-999	PAL1	1	R1278E
220.071	1.0	227604	PROBE_OFF	n/a	n/a	3	-999	n/a	n/a	n/a	n/a	-1	[0, 0, 0]	-999	PAL1	1	R1278E
221.071	0.017	228604	REC_END	n/a	n/a	3	-999	n/a	n/a	n/a	n/a	-1	[0, 0, 0]	-999	PAL1	1	R1278E
221.088	0.266	228621	PRACTICE_RETRIEVAL_ORIENT	n/a	n/a	4	4	CAMEL	n/a	CHEST	CAMEL	-1	[0, 0, 0]	-999	PAL1	1	R1278E
221.354	0.518	228887	PRACTICE_RETRIEVAL_ORIENT_OFF	n/a	n/a	4	4	CAMEL	n/a	CHEST	CAMEL	-1	[0, 0, 0]	-999	PAL1	1	R1278E
221.872	4.0	229405	PRACTICE_PROBE	n/a	n/a	4	4	CAMEL	n/a	CHEST	CAMEL	-1	[0, 0, 0]	-999	PAL1	1	R1278E
221.873	4.016	229406	REC_START	n/a	n/a	4	-999	n/a	n/a	n/a	n/a	-1	[0, 0, 0]	-999	PAL1	1	R1278E
225.889	0.093	233422	PROBE_OFF	n/a	n/a	4	-999	n/a	n/a	n/a	n/a	-1	[0, 0, 0]	-999	PAL1	1	R1278E
225.982	0.907	233515	REC_EVENT	4109.0	n/a	4	4	CAMEL	<>	CHEST	CAMEL	-1	[0, 0, 0]	-999	PAL1	1	R1278E
226.889	0.017	234422	REC_END	n/a	n/a	4	-999	n/a	n/a	n/a	n/a	-1	[0, 0, 0]	-999	PAL1	1	R1278E
226.906	0.266	234439	PRACTICE_RETRIEVAL_ORIENT	n/a	n/a	1	5	RHINO	n/a	RHINO	ATTIC	-1	[0, 0, 0]	-999	PAL1	1	R1278E
227.172	0.718	234705	PRACTICE_RETRIEVAL_ORIENT_OFF	n/a	n/a	1	5	RHINO	n/a	RHINO	ATTIC	-1	[0, 0, 0]	-999	PAL1	1	R1278E
227.89	4.0	235423	PRACTICE_PROBE	n/a	n/a	1	5	RHINO	n/a	RHINO	ATTIC	-1	[0, 0, 0]	-999	PAL1	1	R1278E
227.89	4.017	235423	REC_START	n/a	n/a	1	-999	n/a	n/a	n/a	n/a	-1	[0, 0, 0]	-999	PAL1	1	R1278E
231.907	1.001	239440	PROBE_OFF	n/a	n/a	1	-999	n/a	n/a	n/a	n/a	-1	[0, 0, 0]	-999	PAL1	1	R1278E
232.908	0.003	240441	REC_END	n/a	n/a	1	-999	n/a	n/a	n/a	n/a	-1	[0, 0, 0]	-999	PAL1	1	R1278E
232.911	0.013	240444	REC_EVENT	5021.0	n/a	1	5	RHINO	<>	RHINO	ATTIC	-1	[0, 0, 0]	-999	PAL1	1	R1278E
232.924	0.266	240457	PRACTICE_RETRIEVAL_ORIENT	n/a	n/a	2	6	WAGON	PASS	IRON	WAGON	-1	[0, 0, 0]	-999	PAL1	1	R1278E
233.19	0.734	240723	PRACTICE_RETRIEVAL_ORIENT_OFF	n/a	n/a	2	6	WAGON	PASS	IRON	WAGON	-1	[0, 0, 0]	-999	PAL1	1	R1278E
233.924	4.0	241457	PRACTICE_PROBE	n/a	n/a	2	6	WAGON	PASS	IRON	WAGON	-1	[0, 0, 0]	-999	PAL1	1	R1278E
233.925	3.449	241458	REC_START	n/a	n/a	2	-999	n/a	PASS	n/a	n/a	-1	[0, 0, 0]	-999	PAL1	1	R1278E
237.374	0.568	244906	REC_EVENT	3449.0	n/a	2	6	WAGON	PASS	IRON	WAGON	-1	[0, 0, 0]	-999	PAL1	1	R1278E
237.942	1.0	245474	PROBE_OFF	n/a	n/a	2	-999	n/a	n/a	n/a	n/a	-1	[0, 0, 0]	-999	PAL1	1	R1278E
238.942	0.009	246474	REC_END	n/a	n/a	2	-999	n/a	n/a	n/a	n/a	-1	[0, 0, 0]	-999	PAL1	1	R1278E
238.951	12.026	246483	RECALL_END	n/a	n/a	-999	-999	n/a	n/a	n/a	n/a	-1	[0, 0, 0]	-999	PAL1	1	R1278E
250.977	10.929	258509	TRIAL	n/a	n/a	-999	-999	n/a	n/a	n/a	n/a	1	[0, 0, 0]	-999	PAL1	1	R1278E
261.906	0.006	269437	ENCODING_START	n/a	n/a	-999	-999	n/a	n/a	n/a	n/a	1	[0, 0, 0]	-999	PAL1	1	R1278E
261.912	0.266	269443	STUDY_ORIENT	n/a	n/a	1	3	THUMB	TRAIN	TRAIN	THUMB	1	[0, 0, 0]	-999	PAL1	1	R1278E
262.178	0.568	269709	STUDY_ORIENT_OFF	n/a	n/a	1	3	THUMB	TRAIN	TRAIN	THUMB	1	[0, 0, 0]	-999	PAL1	1	R1278E
262.746	4.0	270277	STUDY_PAIR	n/a	wordpools/wordpool_EN.txt	1	3	THUMB	TRAIN	TRAIN	THUMB	1	[0, 0, 0]	-999	PAL1	1	R1278E
266.763	1.017	274294	PAIR_OFF	n/a	n/a	1	3	THUMB	TRAIN	TRAIN	THUMB	1	[0, 0, 0]	-999	PAL1	1	R1278E
267.78	0.267	275311	STUDY_ORIENT	n/a	n/a	2	4	BOMB	PASS	MAT	BOMB	1	[0, 0, 0]	-999	PAL1	1	R1278E
268.047	0.683	275578	STUDY_ORIENT_OFF	n/a	n/a	2	4	BOMB	PASS	MAT	BOMB	1	[0, 0, 0]	-999	PAL1	1	R1278E
268.73	4.0	276261	STUDY_PAIR	n/a	wordpools/wordpool_EN.txt	2	4	BOMB	PASS	MAT	BOMB	1	[0, 0, 0]	-999	PAL1	1	R1278E
272.748	1.016	280279	PAIR_OFF	n/a	n/a	2	4	BOMB	PASS	MAT	BOMB	1	[0, 0, 0]	-999	PAL1	1	R1278E
273.764	0.267	281295	STUDY_ORIENT	n/a	n/a	3	5	SMILE	PASS	LEAF	SMILE	1	[0, 0, 0]	-999	PAL1	1	R1278E
274.031	0.567	281562	STUDY_ORIENT_OFF	n/a	n/a	3	5	SMILE	PASS	LEAF	SMILE	1	[0, 0, 0]	-999	PAL1	1	R1278E
274.598	4.0	282129	STUDY_PAIR	n/a	wordpools/wordpool_EN.txt	3	5	SMILE	PASS	LEAF	SMILE	1	[0, 0, 0]	-999	PAL1	1	R1278E
278.615	1.017	286146	PAIR_OFF	n/a	n/a	3	5	SMILE	PASS	LEAF	SMILE	1	[0, 0, 0]	-999	PAL1	1	R1278E
279.632	0.267	287163	STUDY_ORIENT	n/a	n/a	4	6	ROOM	GRASS	GRASS	ROOM	1	[0, 0, 0]	-999	PAL1	1	R1278E
279.899	0.549	287430	STUDY_ORIENT_OFF	n/a	n/a	4	6	ROOM	GRASS	GRASS	ROOM	1	[0, 0, 0]	-999	PAL1	1	R1278E
280.448	4.0	287979	STUDY_PAIR	n/a	wordpools/wordpool_EN.txt	4	6	ROOM	GRASS	GRASS	ROOM	1	[0, 0, 0]	-999	PAL1	1	R1278E
284.465	1.017	291996	PAIR_OFF	n/a	n/a	4	6	ROOM	GRASS	GRASS	ROOM	1	[0, 0, 0]	-999	PAL1	1	R1278E
285.482	0.251	293012	STUDY_ORIENT	n/a	n/a	5	1	FLUTE	PASS	LOCK	FLUTE	1	[0, 0, 0]	-999	PAL1	1	R1278E
285.733	0.616	293263	STUDY_ORIENT_OFF	n/a	n/a	5	1	FLUTE	PASS	LOCK	FLUTE	1	[0, 0, 0]	-999	PAL1	1	R1278E
286.349	4.0	293879	STUDY_PAIR	n/a	wordpools/wordpool_EN.txt	5	1	FLUTE	PASS	LOCK	FLUTE	1	[0, 0, 0]	-999	PAL1	1	R1278E
290.366	1.017	297896	PAIR_OFF	n/a	n/a	5	1	FLUTE	PASS	LOCK	FLUTE	1	[0, 0, 0]	-999	PAL1	1	R1278E
291.383	0.268	298913	STUDY_ORIENT	n/a	n/a	6	2	SEAT	PASS	DART	SEAT	1	[0, 0, 0]	-999	PAL1	1	R1278E
291.651	0.566	299181	STUDY_ORIENT_OFF	n/a	n/a	6	2	SEAT	PASS	DART	SEAT	1	[0, 0, 0]	-999	PAL1	1	R1278E
292.217	4.0	299747	STUDY_PAIR	n/a	wordpools/wordpool_EN.txt	6	2	SEAT	PASS	DART	SEAT	1	[0, 0, 0]	-999	PAL1	1	R1278E
296.234	1.0	303764	PAIR_OFF	n/a	n/a	6	2	SEAT	PASS	DART	SEAT	1	[0, 0, 0]	-999	PAL1	1	R1278E
297.234	0.0	304764	MATH_START	n/a	n/a	-999	-999	n/a	n/a	n/a	n/a	1	[0, 0, 0]	-999	PAL1	1	R1278E
297.234	0.0	304764	ENCODING_END	n/a	n/a	-999	-999	n/a	n/a	n/a	n/a	1	[0, 0, 0]	-999	PAL1	1	R1278E
297.234	0.017	304764	START	n/a	n/a	-999	-999	n/a	n/a	n/a	n/a	1	[-999, -999, -999]	-999	PAL1	1	R1278E
297.251	4.251	304781	PROB	4228.0	n/a	-999	-999	n/a	n/a	n/a	n/a	1	[5, 8, 2]	15	PAL1	1	R1278E
301.502	3.884	309032	PROB	3857.0	n/a	-999	-999	n/a	n/a	n/a	n/a	1	[4, 5, 5]	14	PAL1	1	R1278E
305.386	3.15	312916	PROB	3125.0	n/a	-999	-999	n/a	n/a	n/a	n/a	1	[6, 6, 3]	15	PAL1	1	R1278E
308.536	4.518	316066	PROB	4481.0	n/a	-999	-999	n/a	n/a	n/a	n/a	1	[1, 9, 6]	16	PAL1	1	R1278E
313.054	4.892	320583	PROB	4892.0	n/a	-999	-999	n/a	n/a	n/a	n/a	1	[7, 8, 2]	17	PAL1	1	R1278E
317.946	0.009	325475	STOP	n/a	n/a	-999	-999	n/a	n/a	n/a	n/a	1	[-999, -999, -999]	-999	PAL1	1	R1278E
317.955	0.001	325484	MATH_END	n/a	n/a	-999	-999	n/a	n/a	n/a	n/a	1	[0, 0, 0]	-999	PAL1	1	R1278E
317.956	0.016	325485	RECALL_START	n/a	n/a	-999	-999	n/a	n/a	n/a	n/a	1	[0, 0, 0]	-999	PAL1	1	R1278E
317.972	0.266	325501	TEST_ORIENT	n/a	n/a	5	1	FLUTE	PASS	LOCK	FLUTE	1	[0, 0, 0]	-999	PAL1	1	R1278E
318.238	0.568	325767	RETRIEVAL_ORIENT_OFF	n/a	n/a	-999	-999	n/a	n/a	n/a	n/a	1	[0, 0, 0]	-999	PAL1	1	R1278E
318.806	4.0	326335	TEST_PROBE	n/a	wordpools/wordpool_EN.txt	5	1	FLUTE	PASS	LOCK	FLUTE	1	[0, 0, 0]	-999	PAL1	1	R1278E
318.806	3.174	326335	REC_START	n/a	n/a	5	-999	n/a	PASS	n/a	n/a	1	[0, 0, 0]	-999	PAL1	1	R1278E
321.98	0.843	329509	REC_EVENT	3174.0	n/a	5	1	FLUTE	PASS	LOCK	FLUTE	1	[0, 0, 0]	-999	PAL1	1	R1278E
322.823	1.0	330352	PROBE_OFF	n/a	n/a	5	-999	n/a	n/a	n/a	n/a	1	[0, 0, 0]	-999	PAL1	1	R1278E
323.823	0.017	331352	REC_END	n/a	n/a	5	-999	n/a	n/a	n/a	n/a	1	[0, 0, 0]	-999	PAL1	1	R1278E
323.84	0.266	331369	TEST_ORIENT	n/a	n/a	6	2	SEAT	PASS	DART	SEAT	1	[0, 0, 0]	-999	PAL1	1	R1278E
324.106	0.584	331635	RETRIEVAL_ORIENT_OFF	n/a	n/a	5	-999	n/a	n/a	n/a	n/a	1	[0, 0, 0]	-999	PAL1	1	R1278E
324.69	4.0	332219	TEST_PROBE	n/a	wordpools/wordpool_EN.txt	6	2	SEAT	PASS	DART	SEAT	1	[0, 0, 0]	-999	PAL1	1	R1278E
324.691	3.859	332220	REC_START	n/a	n/a	6	-999	n/a	PASS	n/a	n/a	1	[0, 0, 0]	-999	PAL1	1	R1278E
328.55	0.157	336079	REC_EVENT	3859.0	n/a	6	2	SEAT	PASS	DART	SEAT	1	[0, 0, 0]	-999	PAL1	1	R1278E
328.707	1.0	336236	PROBE_OFF	n/a	n/a	6	-999	n/a	n/a	n/a	n/a	1	[0, 0, 0]	-999	PAL1	1	R1278E
329.707	0.017	337236	REC_END	n/a	n/a	6	-999	n/a	n/a	n/a	n/a	1	[0, 0, 0]	-999	PAL1	1	R1278E
329.724	0.267	337253	TEST_ORIENT	n/a	n/a	1	3	THUMB	TRAIN	TRAIN	THUMB	1	[0, 0, 0]	-999	PAL1	1	R1278E
329.991	0.549	337520	RETRIEVAL_ORIENT_OFF	n/a	n/a	6	-999	n/a	n/a	n/a	n/a	1	[0, 0, 0]	-999	PAL1	1	R1278E
330.54	4.0	338069	TEST_PROBE	n/a	wordpools/wordpool_EN.txt	1	3	THUMB	TRAIN	TRAIN	THUMB	1	[0, 0, 0]	-999	PAL1	1	R1278E
330.541	3.554	338070	REC_START	n/a	n/a	1	-999	n/a	TRAIN	n/a	n/a	1	[0, 0, 0]	-999	PAL1	1	R1278E
334.095	0.463	341624	REC_EVENT	3554.0	n/a	1	3	THUMB	TRAIN	TRAIN	THUMB	1	[0, 0, 0]	-999	PAL1	1	R1278E
334.558	1.001	342087	PROBE_OFF	n/a	n/a	1	-999	n/a	n/a	n/a	n/a	1	[0, 0, 0]	-999	PAL1	1	R1278E
335.559	0.016	343087	REC_END	n/a	n/a	1	-999	n/a	n/a	n/a	n/a	1	[0, 0, 0]	-999	PAL1	1	R1278E
335.575	0.267	343103	TEST_ORIENT	n/a	n/a	2	4	BOMB	PASS	MAT	BOMB	1	[0, 0, 0]	-999	PAL1	1	R1278E
335.842	0.699	343370	RETRIEVAL_ORIENT_OFF	n/a	n/a	1	-999	n/a	n/a	n/a	n/a	1	[0, 0, 0]	-999	PAL1	1	R1278E
336.541	4.0	344069	TEST_PROBE	n/a	wordpools/wordpool_EN.txt	2	4	BOMB	PASS	MAT	BOMB	1	[0, 0, 0]	-999	PAL1	1	R1278E
336.542	4.017	344070	REC_START	n/a	n/a	2	-999	n/a	PASS	n/a	n/a	1	[0, 0, 0]	-999	PAL1	1	R1278E
340.559	0.077	348087	PROBE_OFF	n/a	n/a	2	-999	n/a	n/a	n/a	n/a	1	[0, 0, 0]	-999	PAL1	1	R1278E
340.636	0.923	348164	REC_EVENT	4094.0	n/a	2	4	BOMB	PASS	MAT	BOMB	1	[0, 0, 0]	-999	PAL1	1	R1278E
341.559	0.017	349087	REC_END	n/a	n/a	2	-999	n/a	n/a	n/a	n/a	1	[0, 0, 0]	-999	PAL1	1	R1278E
341.576	0.267	349104	TEST_ORIENT	n/a	n/a	3	5	SMILE	PASS	LEAF	SMILE	1	[0, 0, 0]	-999	PAL1	1	R1278E
341.843	0.733	349371	RETRIEVAL_ORIENT_OFF	n/a	n/a	2	-999	n/a	n/a	n/a	n/a	1	[0, 0, 0]	-999	PAL1	1	R1278E
342.576	4.0	350104	TEST_PROBE	n/a	wordpools/wordpool_EN.txt	3	5	SMILE	PASS	LEAF	SMILE	1	[0, 0, 0]	-999	PAL1	1	R1278E
342.577	3.215	350105	REC_START	n/a	n/a	3	-999	n/a	PASS	n/a	n/a	1	[0, 0, 0]	-999	PAL1	1	R1278E
345.792	0.802	353320	REC_EVENT	3215.0	n/a	3	5	SMILE	PASS	LEAF	SMILE	1	[0, 0, 0]	-999	PAL1	1	R1278E
346.594	1.0	354122	PROBE_OFF	n/a	n/a	3	-999	n/a	n/a	n/a	n/a	1	[0, 0, 0]	-999	PAL1	1	R1278E
347.594	0.017	355122	REC_END	n/a	n/a	3	-999	n/a	n/a	n/a	n/a	1	[0, 0, 0]	-999	PAL1	1	R1278E
347.611	0.266	355139	TEST_ORIENT	n/a	n/a	4	6	ROOM	GRASS	GRASS	ROOM	1	[0, 0, 0]	-999	PAL1	1	R1278E
347.877	0.684	355405	RETRIEVAL_ORIENT_OFF	n/a	n/a	3	-999	n/a	n/a	n/a	n/a	1	[0, 0, 0]	-999	PAL1	1	R1278E
348.561	4.0	356089	TEST_PROBE	n/a	wordpools/wordpool_EN.txt	4	6	ROOM	GRASS	GRASS	ROOM	1	[0, 0, 0]	-999	PAL1	1	R1278E
348.561	1.264	356089	REC_START	n/a	n/a	4	-999	n/a	GRASS	n/a	n/a	1	[0, 0, 0]	-999	PAL1	1	R1278E
349.825	1.47	357353	REC_EVENT	1264.0	n/a	4	6	ROOM	<>	GRASS	ROOM	1	[0, 0, 0]	-999	PAL1	1	R1278E
351.295	1.283	358823	REC_EVENT	2734.0	n/a	4	6	ROOM	GRASS	GRASS	ROOM	1	[0, 0, 0]	-999	PAL1	1	R1278E
352.578	1.0	360106	PROBE_OFF	n/a	n/a	4	-999	n/a	n/a	n/a	n/a	1	[0, 0, 0]	-999	PAL1	1	R1278E
353.578	0.004	361106	REC_END	n/a	n/a	4	-999	n/a	n/a	n/a	n/a	1	[0, 0, 0]	-999	PAL1	1	R1278E
353.582	6.081	361110	RECALL_END	n/a	n/a	-999	-999	n/a	n/a	n/a	n/a	1	[0, 0, 0]	-999	PAL1	1	R1278E
359.663	10.929	367191	TRIAL	n/a	n/a	-999	-999	n/a	n/a	n/a	n/a	2	[0, 0, 0]	-999	PAL1	1	R1278E
370.592	0.006	378119	ENCODING_START	n/a	n/a	-999	-999	n/a	n/a	n/a	n/a	2	[0, 0, 0]	-999	PAL1	1	R1278E
370.598	0.267	378125	STUDY_ORIENT	n/a	n/a	1	3	EEL	PET	EEL	PET	2	[0, 0, 0]	-999	PAL1	1	R1278E
370.865	0.566	378392	STUDY_ORIENT_OFF	n/a	n/a	1	3	EEL	PET	EEL	PET	2	[0, 0, 0]	-999	PAL1	1	R1278E
371.431	4.0	378958	STUDY_PAIR	n/a	wordpools/wordpool_EN.txt	1	3	EEL	PET	EEL	PET	2	[0, 0, 0]	-999	PAL1	1	R1278E
375.448	1.017	382975	PAIR_OFF	n/a	n/a	1	3	EEL	PET	EEL	PET	2	[0, 0, 0]	-999	PAL1	1	R1278E
376.465	0.267	383992	STUDY_ORIENT	n/a	n/a	2	2	SOUP	PASS	COIN	SOUP	2	[0, 0, 0]	-999	PAL1	1	R1278E
376.732	0.549	384259	STUDY_ORIENT_OFF	n/a	n/a	2	2	SOUP	PASS	COIN	SOUP	2	[0, 0, 0]	-999	PAL1	1	R1278E
377.281	4.0	384808	STUDY_PAIR	n/a	wordpools/wordpool_EN.txt	2	2	SOUP	PASS	COIN	SOUP	2	[0, 0, 0]	-999	PAL1	1	R1278E
381.299	1.017	388826	PAIR_OFF	n/a	n/a	2	2	SOUP	PASS	COIN	SOUP	2	[0, 0, 0]	-999	PAL1	1	R1278E
382.316	0.267	389843	STUDY_ORIENT	n/a	n/a	3	1	WHALE	PASS	SAIL	WHALE	2	[0, 0, 0]	-999	PAL1	1	R1278E
382.583	0.699	390110	STUDY_ORIENT_OFF	n/a	n/a	3	1	WHALE	PASS	SAIL	WHALE	2	[0, 0, 0]	-999	PAL1	1	R1278E
383.282	4.0	390809	STUDY_PAIR	n/a	wordpools/wordpool_EN.txt	3	1	WHALE	PASS	SAIL	WHALE	2	[0, 0, 0]	-999	PAL1	1	R1278E
387.283	1.017	394809	PAIR_OFF	n/a	n/a	3	1	WHALE	PASS	SAIL	WHALE	2	[0, 0, 0]	-999	PAL1	1	R1278E
388.3	0.268	395826	STUDY_ORIENT	n/a	n/a	4	6	FORT	BOY	BOY	FORT	2	[0, 0, 0]	-999	PAL1	1	R1278E
388.568	0.582	396094	STUDY_ORIENT_OFF	n/a	n/a	4	6	FORT	BOY	BOY	FORT	2	[0, 0, 0]	-999	PAL1	1	R1278E
389.15	4.0	396676	STUDY_PAIR	n/a	wordpools/wordpool_EN.txt	4	6	FORT	BOY	BOY	FORT	2	[0, 0, 0]	-999	PAL1	1	R1278E
393.168	1.016	400694	PAIR_OFF	n/a	n/a	4	6	FORT	BOY	BOY	FORT	2	[0, 0, 0]	-999	PAL1	1	R1278E
394.184	0.267	401710	STUDY_ORIENT	n/a	n/a	5	5	GLASS	PASS	DRUM	GLASS	2	[0, 0, 0]	-999	PAL1	1	R1278E
394.451	0.601	401977	STUDY_ORIENT_OFF	n/a	n/a	5	5	GLASS	PASS	DRUM	GLASS	2	[0, 0, 0]	-999	PAL1	1	R1278E
395.052	4.0	402578	STUDY_PAIR	n/a	wordpools/wordpool_EN.txt	5	5	GLASS	PASS	DRUM	GLASS	2	[0, 0, 0]	-999	PAL1	1	R1278E
399.069	1.016	406595	PAIR_OFF	n/a	n/a	5	5	GLASS	PASS	DRUM	GLASS	2	[0, 0, 0]	-999	PAL1	1	R1278E
400.085	0.267	407611	STUDY_ORIENT	n/a	n/a	6	4	CHAIR	PURSE	PURSE	CHAIR	2	[0, 0, 0]	-999	PAL1	1	R1278E
400.352	0.651	407878	STUDY_ORIENT_OFF	n/a	n/a	6	4	CHAIR	PURSE	PURSE	CHAIR	2	[0, 0, 0]	-999	PAL1	1	R1278E
401.003	4.0	408529	STUDY_PAIR	n/a	wordpools/wordpool_EN.txt	6	4	CHAIR	PURSE	PURSE	CHAIR	2	[0, 0, 0]	-999	PAL1	1	R1278E
405.021	1.001	412547	PAIR_OFF	n/a	n/a	6	4	CHAIR	PURSE	PURSE	CHAIR	2	[0, 0, 0]	-999	PAL1	1	R1278E
406.022	0.0	413548	ENCODING_END	n/a	n/a	-999	-999	n/a	n/a	n/a	n/a	2	[0, 0, 0]	-999	PAL1	1	R1278E
406.022	0.001	413548	MATH_START	n/a	n/a	-999	-999	n/a	n/a	n/a	n/a	2	[0, 0, 0]	-999	PAL1	1	R1278E
406.023	0.015	413549	START	n/a	n/a	-999	-999	n/a	n/a	n/a	n/a	2	[-999, -999, -999]	-999	PAL1	1	R1278E
406.038	6.567	413564	PROB	6536.0	n/a	-999	-999	n/a	n/a	n/a	n/a	2	[6, 8, 7]	21	PAL1	1	R1278E
412.605	3.117	420130	PROB	3090.0	n/a	-999	-999	n/a	n/a	n/a	n/a	2	[7, 2, 1]	10	PAL1	1	R1278E
415.722	3.634	423247	PROB	3604.0	n/a	-999	-999	n/a	n/a	n/a	n/a	2	[6, 6, 4]	16	PAL1	1	R1278E
419.356	4.134	426881	PROB	4105.0	n/a	-999	-999	n/a	n/a	n/a	n/a	2	[5, 4, 4]	13	PAL1	1	R1278E
423.49	3.86	431015	PROB	3860.0	n/a	-999	-999	n/a	n/a	n/a	n/a	2	[7, 7, 4]	18	PAL1	1	R1278E
427.35	0.007	434875	STOP	n/a	n/a	-999	-999	n/a	n/a	n/a	n/a	2	[-999, -999, -999]	-999	PAL1	1	R1278E
427.357	0.0	434882	MATH_END	n/a	n/a	-999	-999	n/a	n/a	n/a	n/a	2	[0, 0, 0]	-999	PAL1	1	R1278E
427.357	0.017	434882	RECALL_START	n/a	n/a	-999	-999	n/a	n/a	n/a	n/a	2	[0, 0, 0]	-999	PAL1	1	R1278E
427.374	0.267	434899	TEST_ORIENT	n/a	n/a	3	1	WHALE	PASS	SAIL	WHALE	2	[0, 0, 0]	-999	PAL1	1	R1278E
427.641	0.516	435166	RETRIEVAL_ORIENT_OFF	n/a	n/a	-999	-999	n/a	n/a	n/a	n/a	2	[0, 0, 0]	-999	PAL1	1	R1278E
428.157	4.0	435682	TEST_PROBE	n/a	wordpools/wordpool_EN.txt	3	1	WHALE	PASS	SAIL	WHALE	2	[0, 0, 0]	-999	PAL1	1	R1278E
428.158	3.424	435683	REC_START	n/a	n/a	3	-999	n/a	PASS	n/a	n/a	2	[0, 0, 0]	-999	PAL1	1	R1278E
431.582	0.592	439107	REC_EVENT	3424.0	n/a	3	1	WHALE	PASS	SAIL	WHALE	2	[0, 0, 0]	-999	PAL1	1	R1278E
432.174	1.0	439699	PROBE_OFF	n/a	n/a	3	-999	n/a	n/a	n/a	n/a	2	[0, 0, 0]	-999	PAL1	1	R1278E
433.174	0.017	440699	REC_END	n/a	n/a	3	-999	n/a	n/a	n/a	n/a	2	[0, 0, 0]	-999	PAL1	1	R1278E
433.191	0.267	440716	TEST_ORIENT	n/a	n/a	2	2	SOUP	PASS	COIN	SOUP	2	[0, 0, 0]	-999	PAL1	1	R1278E
433.458	0.75	440983	RETRIEVAL_ORIENT_OFF	n/a	n/a	3	-999	n/a	n/a	n/a	n/a	2	[0, 0, 0]	-999	PAL1	1	R1278E
434.208	4.0	441733	TEST_PROBE	n/a	wordpools/wordpool_EN.txt	2	2	SOUP	PASS	COIN	SOUP	2	[0, 0, 0]	-999	PAL1	1	R1278E
434.209	0.9	441734	REC_START	n/a	n/a	2	-999	n/a	PASS	n/a	n/a	2	[0, 0, 0]	-999	PAL1	1	R1278E
435.109	3.116	442633	REC_EVENT	900.0	n/a	2	2	SOUP	<>	COIN	SOUP	2	[0, 0, 0]	-999	PAL1	1	R1278E
438.225	0.282	445749	PROBE_OFF	n/a	n/a	2	-999	n/a	n/a	n/a	n/a	2	[0, 0, 0]	-999	PAL1	1	R1278E
438.507	0.719	446031	REC_EVENT	4298.0	n/a	2	2	SOUP	PASS	COIN	SOUP	2	[0, 0, 0]	-999	PAL1	1	R1278E
439.226	0.016	446750	REC_END	n/a	n/a	2	-999	n/a	n/a	n/a	n/a	2	[0, 0, 0]	-999	PAL1	1	R1278E
439.242	0.267	446766	TEST_ORIENT	n/a	n/a	1	3	EEL	PET	EEL	PET	2	[0, 0, 0]	-999	PAL1	1	R1278E
439.509	0.534	447033	RETRIEVAL_ORIENT_OFF	n/a	n/a	2	-999	n/a	n/a	n/a	n/a	2	[0, 0, 0]	-999	PAL1	1	R1278E
440.043	4.0	447567	TEST_PROBE	n/a	wordpools/wordpool_EN.txt	1	3	EEL	PET	EEL	PET	2	[0, 0, 0]	-999	PAL1	1	R1278E
440.044	1.784	447568	REC_START	n/a	n/a	1	-999	n/a	PET	n/a	n/a	2	[0, 0, 0]	-999	PAL1	1	R1278E
441.828	2.232	449352	REC_EVENT	1784.0	n/a	1	3	EEL	PET	EEL	PET	2	[0, 0, 0]	-999	PAL1	1	R1278E
444.06	1.0	451584	PROBE_OFF	n/a	n/a	1	-999	n/a	n/a	n/a	n/a	2	[0, 0, 0]	-999	PAL1	1	R1278E
445.06	0.017	452584	REC_END	n/a	n/a	1	-999	n/a	n/a	n/a	n/a	2	[0, 0, 0]	-999	PAL1	1	R1278E
445.077	0.266	452601	TEST_ORIENT	n/a	n/a	6	4	CHAIR	PURSE	PURSE	CHAIR	2	[0, 0, 0]	-999	PAL1	1	R1278E
445.343	0.535	452867	RETRIEVAL_ORIENT_OFF	n/a	n/a	1	-999	n/a	n/a	n/a	n/a	2	[0, 0, 0]	-999	PAL1	1	R1278E
445.878	4.0	453402	TEST_PROBE	n/a	wordpools/wordpool_EN.txt	6	4	CHAIR	PURSE	PURSE	CHAIR	2	[0, 0, 0]	-999	PAL1	1	R1278E
445.878	1.614	453402	REC_START	n/a	n/a	6	-999	n/a	PURSE	n/a	n/a	2	[0, 0, 0]	-999	PAL1	1	R1278E
447.492	2.403	455016	REC_EVENT	1614.0	n/a	6	4	CHAIR	PURSE	PURSE	CHAIR	2	[0, 0, 0]	-999	PAL1	1	R1278E
449.895	1.0	457419	PROBE_OFF	n/a	n/a	6	-999	n/a	n/a	n/a	n/a	2	[0, 0, 0]	-999	PAL1	1	R1278E
450.895	0.017	458419	REC_END	n/a	n/a	6	-999	n/a	n/a	n/a	n/a	2	[0, 0, 0]	-999	PAL1	1	R1278E
450.912	0.266	458436	TEST_ORIENT	n/a	n/a	5	5	GLASS	PASS	DRUM	GLASS	2	[0, 0, 0]	-999	PAL1	1	R1278E
451.178	0.667	458702	RETRIEVAL_ORIENT_OFF	n/a	n/a	6	-999	n/a	n/a	n/a	n/a	2	[0, 0, 0]	-999	PAL1	1	R1278E
451.845	4.0	459369	TEST_PROBE	n/a	wordpools/wordpool_EN.txt	5	5	GLASS	PASS	DRUM	GLASS	2	[0, 0, 0]	-999	PAL1	1	R1278E
451.846	3.859	459370	REC_START	n/a	n/a	5	-999	n/a	PASS	n/a	n/a	2	[0, 0, 0]	-999	PAL1	1	R1278E
455.705	0.158	463229	REC_EVENT	3859.0	n/a	5	5	GLASS	PASS	DRUM	GLASS	2	[0, 0, 0]	-999	PAL1	1	R1278E
455.863	1.01	463387	PROBE_OFF	n/a	n/a	5	-999	n/a	n/a	n/a	n/a	2	[0, 0, 0]	-999	PAL1	1	R1278E
456.873	0.023	464397	REC_END	n/a	n/a	5	-999	n/a	n/a	n/a	n/a	2	[0, 0, 0]	-999	PAL1	1	R1278E
456.896	0.266	464420	TEST_ORIENT	n/a	n/a	4	6	FORT	BOY	BOY	FORT	2	[0, 0, 0]	-999	PAL1	1	R1278E
457.162	0.701	464686	RETRIEVAL_ORIENT_OFF	n/a	n/a	5	-999	n/a	n/a	n/a	n/a	2	[0, 0, 0]	-999	PAL1	1	R1278E
457.863	4.0	465387	TEST_PROBE	n/a	wordpools/wordpool_EN.txt	4	6	FORT	BOY	BOY	FORT	2	[0, 0, 0]	-999	PAL1	1	R1278E
457.864	1.254	465388	REC_START	n/a	n/a	4	-999	n/a	BOY	n/a	n/a	2	[0, 0, 0]	-999	PAL1	1	R1278E
459.118	2.763	466642	REC_EVENT	1254.0	n/a	4	6	FORT	BOY	BOY	FORT	2	[0, 0, 0]	-999	PAL1	1	R1278E
461.881	1.0	469404	PROBE_OFF	n/a	n/a	4	-999	n/a	n/a	n/a	n/a	2	[0, 0, 0]	-999	PAL1	1	R1278E
462.881	0.009	470404	REC_END	n/a	n/a	4	-999	n/a	n/a	n/a	n/a	2	[0, 0, 0]	-999	PAL1	1	R1278E
462.89	5.025	470413	RECALL_END	n/a	n/a	-999	-999	n/a	n/a	n/a	n/a	2	[0, 0, 0]	-999	PAL1	1	R1278E
467.915	10.929	475438	TRIAL	n/a	n/a	-999	-999	n/a	n/a	n/a	n/a	3	[0, 0, 0]	-999	PAL1	1	R1278E
478.844	0.006	486367	ENCODING_START	n/a	n/a	-999	-999	n/a	n/a	n/a	n/a	3	[0, 0, 0]	-999	PAL1	1	R1278E
478.85	0.266	486373	STUDY_ORIENT	n/a	n/a	1	3	BEAN	PASS	BEAN	FLEA	3	[0, 0, 0]	-999	PAL1	1	R1278E
479.116	0.701	486639	STUDY_ORIENT_OFF	n/a	n/a	1	3	BEAN	PASS	BEAN	FLEA	3	[0, 0, 0]	-999	PAL1	1	R1278E
479.817	4.0	487340	STUDY_PAIR	n/a	wordpools/wordpool_EN.txt	1	3	BEAN	PASS	BEAN	FLEA	3	[0, 0, 0]	-999	PAL1	1	R1278E
483.834	1.017	491357	PAIR_OFF	n/a	n/a	1	3	BEAN	PASS	BEAN	FLEA	3	[0, 0, 0]	-999	PAL1	1	R1278E
484.851	0.266	492373	STUDY_ORIENT	n/a	n/a	2	2	CHEEK	n/a	CAGE	CHEEK	3	[0, 0, 0]	-999	PAL1	1	R1278E
485.117	0.751	492639	STUDY_ORIENT_OFF	n/a	n/a	2	2	CHEEK	n/a	CAGE	CHEEK	3	[0, 0, 0]	-999	PAL1	1	R1278E
485.868	4.0	493390	STUDY_PAIR	n/a	wordpools/wordpool_EN.txt	2	2	CHEEK	n/a	CAGE	CHEEK	3	[0, 0, 0]	-999	PAL1	1	R1278E
489.886	1.016	497408	PAIR_OFF	n/a	n/a	2	2	CHEEK	n/a	CAGE	CHEEK	3	[0, 0, 0]	-999	PAL1	1	R1278E
490.902	0.266	498424	STUDY_ORIENT	n/a	n/a	3	1	PEAR	PASS	CROW	PEAR	3	[0, 0, 0]	-999	PAL1	1	R1278E
491.168	0.601	498690	STUDY_ORIENT_OFF	n/a	n/a	3	1	PEAR	PASS	CROW	PEAR	3	[0, 0, 0]	-999	PAL1	1	R1278E
491.769	4.0	499291	STUDY_PAIR	n/a	wordpools/wordpool_EN.txt	3	1	PEAR	PASS	CROW	PEAR	3	[0, 0, 0]	-999	PAL1	1	R1278E
495.786	1.017	503308	PAIR_OFF	n/a	n/a	3	1	PEAR	PASS	CROW	PEAR	3	[0, 0, 0]	-999	PAL1	1	R1278E
496.803	0.266	504325	STUDY_ORIENT	n/a	n/a	4	6	LAND	BAND	BAND	LAND	3	[0, 0, 0]	-999	PAL1	1	R1278E
497.069	0.685	504591	STUDY_ORIENT_OFF	n/a	n/a	4	6	LAND	BAND	BAND	LAND	3	[0, 0, 0]	-999	PAL1	1	R1278E
497.754	4.0	505276	STUDY_PAIR	n/a	wordpools/wordpool_EN.txt	4	6	LAND	BAND	BAND	LAND	3	[0, 0, 0]	-999	PAL1	1	R1278E
501.771	1.017	509293	PAIR_OFF	n/a	n/a	4	6	LAND	BAND	BAND	LAND	3	[0, 0, 0]	-999	PAL1	1	R1278E
502.788	0.265	510310	STUDY_ORIENT	n/a	n/a	5	5	SPEAR	BED	SPEAR	BED	3	[0, 0, 0]	-999	PAL1	1	R1278E
503.053	0.651	510575	STUDY_ORIENT_OFF	n/a	n/a	5	5	SPEAR	BED	SPEAR	BED	3	[0, 0, 0]	-999	PAL1	1	R1278E
503.704	4.0	511226	STUDY_PAIR	n/a	wordpools/wordpool_EN.txt	5	5	SPEAR	BED	SPEAR	BED	3	[0, 0, 0]	-999	PAL1	1	R1278E
507.722	1.017	515244	PAIR_OFF	n/a	n/a	5	5	SPEAR	BED	SPEAR	BED	3	[0, 0, 0]	-999	PAL1	1	R1278E
508.739	0.267	516261	STUDY_ORIENT	n/a	n/a	6	4	SKI	CLOCK	CLOCK	SKI	3	[0, 0, 0]	-999	PAL1	1	R1278E
509.006	0.6	516528	STUDY_ORIENT_OFF	n/a	n/a	6	4	SKI	CLOCK	CLOCK	SKI	3	[0, 0, 0]	-999	PAL1	1	R1278E
509.606	4.0	517127	STUDY_PAIR	n/a	wordpools/wordpool_EN.txt	6	4	SKI	CLOCK	CLOCK	SKI	3	[0, 0, 0]	-999	PAL1	1	R1278E
513.623	1.001	521144	PAIR_OFF	n/a	n/a	6	4	SKI	CLOCK	CLOCK	SKI	3	[0, 0, 0]	-999	PAL1	1	R1278E
514.624	0.0	522145	ENCODING_END	n/a	n/a	-999	-999	n/a	n/a	n/a	n/a	3	[0, 0, 0]	-999	PAL1	1	R1278E
514.624	0.0	522145	MATH_START	n/a	n/a	-999	-999	n/a	n/a	n/a	n/a	3	[0, 0, 0]	-999	PAL1	1	R1278E
514.624	0.016	522145	START	n/a	n/a	-999	-999	n/a	n/a	n/a	n/a	3	[-999, -999, -999]	-999	PAL1	1	R1278E
514.64	4.9	522161	PROB	4871.0	n/a	-999	-999	n/a	n/a	n/a	n/a	3	[9, 9, 7]	25	PAL1	1	R1278E
519.54	5.717	527061	PROB	5692.0	n/a	-999	-999	n/a	n/a	n/a	n/a	3	[6, 7, 3]	16	PAL1	1	R1278E
525.257	4.051	532778	PROB	4022.0	n/a	-999	-999	n/a	n/a	n/a	n/a	3	[8, 6, 8]	22	PAL1	1	R1278E
529.308	4.435	536829	PROB	4412.0	n/a	-999	-999	n/a	n/a	n/a	n/a	3	[9, 1, 6]	16	PAL1	1	R1278E
533.743	7.733	541264	PROB	7733.0	n/a	-999	-999	n/a	n/a	n/a	n/a	3	[9, 9, 8]	26	PAL1	1	R1278E
541.476	0.018	548996	STOP	n/a	n/a	-999	-999	n/a	n/a	n/a	n/a	3	[-999, -999, -999]	-999	PAL1	1	R1278E
541.494	0.0	549014	MATH_END	n/a	n/a	-999	-999	n/a	n/a	n/a	n/a	3	[0, 0, 0]	-999	PAL1	1	R1278E
541.494	0.016	549014	RECALL_START	n/a	n/a	-999	-999	n/a	n/a	n/a	n/a	3	[0, 0, 0]	-999	PAL1	1	R1278E
541.51	0.268	549030	TEST_ORIENT	n/a	n/a	3	1	PEAR	PASS	CROW	PEAR	3	[0, 0, 0]	-999	PAL1	1	R1278E
541.778	0.732	549298	RETRIEVAL_ORIENT_OFF	n/a	n/a	-999	-999	n/a	n/a	n/a	n/a	3	[0, 0, 0]	-999	PAL1	1	R1278E
542.51	4.0	550030	TEST_PROBE	n/a	wordpools/wordpool_EN.txt	3	1	PEAR	PASS	CROW	PEAR	3	[0, 0, 0]	-999	PAL1	1	R1278E
542.511	3.409	550031	REC_START	n/a	n/a	3	-999	n/a	PASS	n/a	n/a	3	[0, 0, 0]	-999	PAL1	1	R1278E
545.92	0.608	553440	REC_EVENT	3409.0	n/a	3	1	PEAR	<>	CROW	PEAR	3	[0, 0, 0]	-999	PAL1	1	R1278E
546.528	0.217	554048	PROBE_OFF	n/a	n/a	3	-999	n/a	n/a	n/a	n/a	3	[0, 0, 0]	-999	PAL1	1	R1278E
546.745	0.783	554265	REC_EVENT	4234.0	n/a	3	1	PEAR	PASS	CROW	PEAR	3	[0, 0, 0]	-999	PAL1	1	R1278E
547.528	0.018	555048	REC_END	n/a	n/a	3	-999	n/a	n/a	n/a	n/a	3	[0, 0, 0]	-999	PAL1	1	R1278E
547.546	0.266	555066	TEST_ORIENT	n/a	n/a	2	2	CHEEK	n/a	CAGE	CHEEK	3	[0, 0, 0]	-999	PAL1	1	R1278E
547.812	0.734	555332	RETRIEVAL_ORIENT_OFF	n/a	n/a	3	-999	n/a	n/a	n/a	n/a	3	[0, 0, 0]	-999	PAL1	1	R1278E
548.546	4.0	556066	TEST_PROBE	n/a	wordpools/wordpool_EN.txt	2	2	CHEEK	n/a	CAGE	CHEEK	3	[0, 0, 0]	-999	PAL1	1	R1278E
548.546	4.017	556066	REC_START	n/a	n/a	2	-999	n/a	n/a	n/a	n/a	3	[0, 0, 0]	-999	PAL1	1	R1278E
552.563	0.482	560083	PROBE_OFF	n/a	n/a	2	-999	n/a	n/a	n/a	n/a	3	[0, 0, 0]	-999	PAL1	1	R1278E
553.045	0.518	560565	REC_EVENT	4499.0	n/a	2	2	CHEEK	<>	CAGE	CHEEK	3	[0, 0, 0]	-999	PAL1	1	R1278E
553.563	0.017	561083	REC_END	n/a	n/a	2	-999	n/a	n/a	n/a	n/a	3	[0, 0, 0]	-999	PAL1	1	R1278E
553.58	0.267	561100	TEST_ORIENT	n/a	n/a	1	3	BEAN	PASS	BEAN	FLEA	3	[0, 0, 0]	-999	PAL1	1	R1278E
553.847	0.549	561367	RETRIEVAL_ORIENT_OFF	n/a	n/a	2	-999	n/a	n/a	n/a	n/a	3	[0, 0, 0]	-999	PAL1	1	R1278E
554.396	0.0	561916	REC_START	n/a	n/a	1	-999	n/a	PASS	n/a	n/a	3	[0, 0, 0]	-999	PAL1	1	R1278E
554.396	4.0	561916	TEST_PROBE	n/a	wordpools/wordpool_EN.txt	1	3	BEAN	PASS	BEAN	FLEA	3	[0, 0, 0]	-999	PAL1	1	R1278E
555.665	2.748	563185	REC_EVENT	1269.0	n/a	1	3	BEAN	PASS	BEAN	FLEA	3	[0, 0, 0]	-999	PAL1	1	R1278E
558.413	1.0	565933	PROBE_OFF	n/a	n/a	1	-999	n/a	n/a	n/a	n/a	3	[0, 0, 0]	-999	PAL1	1	R1278E
559.413	0.017	566933	REC_END	n/a	n/a	1	-999	n/a	n/a	n/a	n/a	3	[0, 0, 0]	-999	PAL1	1	R1278E
559.43	0.268	566950	TEST_ORIENT	n/a	n/a	6	4	SKI	CLOCK	CLOCK	SKI	3	[0, 0, 0]	-999	PAL1	1	R1278E
559.698	0.532	567217	RETRIEVAL_ORIENT_OFF	n/a	n/a	1	-999	n/a	n/a	n/a	n/a	3	[0, 0, 0]	-999	PAL1	1	R1278E
560.23	4.0	567749	TEST_PROBE	n/a	wordpools/wordpool_EN.txt	6	4	SKI	CLOCK	CLOCK	SKI	3	[0, 0, 0]	-999	PAL1	1	R1278E
560.231	0.879	567750	REC_START	n/a	n/a	6	-999	n/a	CLOCK	n/a	n/a	3	[0, 0, 0]	-999	PAL1	1	R1278E
561.11	1.255	568629	REC_EVENT	879.0	n/a	6	4	SKI	<>	CLOCK	SKI	3	[0, 0, 0]	-999	PAL1	1	R1278E
562.365	1.882	569884	REC_EVENT	2134.0	n/a	6	4	SKI	CLOCK	CLOCK	SKI	3	[0, 0, 0]	-999	PAL1	1	R1278E
564.247	1.0	571766	PROBE_OFF	n/a	n/a	6	-999	n/a	n/a	n/a	n/a	3	[0, 0, 0]	-999	PAL1	1	R1278E
565.247	0.017	572766	REC_END	n/a	n/a	6	-999	n/a	n/a	n/a	n/a	3	[0, 0, 0]	-999	PAL1	1	R1278E
565.264	0.267	572783	TEST_ORIENT	n/a	n/a	5	5	SPEAR	BED	SPEAR	BED	3	[0, 0, 0]	-999	PAL1	1	R1278E
565.531	0.717	573050	RETRIEVAL_ORIENT_OFF	n/a	n/a	6	-999	n/a	n/a	n/a	n/a	3	[0, 0, 0]	-999	PAL1	1	R1278E
566.248	0.0	573767	REC_START	n/a	n/a	5	-999	n/a	BED	n/a	n/a	3	[0, 0, 0]	-999	PAL1	1	R1278E
566.248	4.0	573767	TEST_PROBE	n/a	wordpools/wordpool_EN.txt	5	5	SPEAR	BED	SPEAR	BED	3	[0, 0, 0]	-999	PAL1	1	R1278E
568.012	2.253	575531	REC_EVENT	1764.0	n/a	5	5	SPEAR	BED	SPEAR	BED	3	[0, 0, 0]	-999	PAL1	1	R1278E
570.265	1.0	577784	PROBE_OFF	n/a	n/a	5	-999	n/a	n/a	n/a	n/a	3	[0, 0, 0]	-999	PAL1	1	R1278E
571.265	0.017	578784	REC_END	n/a	n/a	5	-999	n/a	n/a	n/a	n/a	3	[0, 0, 0]	-999	PAL1	1	R1278E
571.282	0.268	578801	TEST_ORIENT	n/a	n/a	4	6	LAND	BAND	BAND	LAND	3	[0, 0, 0]	-999	PAL1	1	R1278E
571.55	0.715	579069	RETRIEVAL_ORIENT_OFF	n/a	n/a	5	-999	n/a	n/a	n/a	n/a	3	[0, 0, 0]	-999	PAL1	1	R1278E
572.265	4.0	579784	TEST_PROBE	n/a	wordpools/wordpool_EN.txt	4	6	LAND	BAND	BAND	LAND	3	[0, 0, 0]	-999	PAL1	1	R1278E
572.266	2.279	579785	REC_START	n/a	n/a	4	-999	n/a	BAND	n/a	n/a	3	[0, 0, 0]	-999	PAL1	1	R1278E
574.545	1.738	582064	REC_EVENT	2279.0	n/a	4	6	LAND	BAND	BAND	LAND	3	[0, 0, 0]	-999	PAL1	1	R1278E
576.283	1.0	583802	PROBE_OFF	n/a	n/a	4	-999	n/a	n/a	n/a	n/a	3	[0, 0, 0]	-999	PAL1	1	R1278E
577.283	0.009	584802	REC_END	n/a	n/a	4	-999	n/a	n/a	n/a	n/a	3	[0, 0, 0]	-999	PAL1	1	R1278E
577.292	19.679	584811	RECALL_END	n/a	n/a	-999	-999	n/a	n/a	n/a	n/a	3	[0, 0, 0]	-999	PAL1	1	R1278E
596.971	10.929	604489	TRIAL	n/a	n/a	-999	-999	n/a	n/a	n/a	n/a	4	[0, 0, 0]	-999	PAL1	1	R1278E
607.9	0.006	615418	ENCODING_START	n/a	n/a	-999	-999	n/a	n/a	n/a	n/a	4	[0, 0, 0]	-999	PAL1	1	R1278E
607.906	0.266	615424	STUDY_ORIENT	n/a	n/a	1	3	FORK	TIE	FORK	TIE	4	[0, 0, 0]	-999	PAL1	1	R1278E
608.172	0.668	615690	STUDY_ORIENT_OFF	n/a	n/a	1	3	FORK	TIE	FORK	TIE	4	[0, 0, 0]	-999	PAL1	1	R1278E
608.84	4.0	616358	STUDY_PAIR	n/a	wordpools/wordpool_EN.txt	1	3	FORK	TIE	FORK	TIE	4	[0, 0, 0]	-999	PAL1	1	R1278E
612.857	1.017	620374	PAIR_OFF	n/a	n/a	1	3	FORK	TIE	FORK	TIE	4	[0, 0, 0]	-999	PAL1	1	R1278E
613.874	0.265	621391	STUDY_ORIENT	n/a	n/a	2	6	SLUSH	PASS	VEST	SLUSH	4	[0, 0, 0]	-999	PAL1	1	R1278E
614.139	0.652	621656	STUDY_ORIENT_OFF	n/a	n/a	2	6	SLUSH	PASS	VEST	SLUSH	4	[0, 0, 0]	-999	PAL1	1	R1278E
614.791	4.0	622308	STUDY_PAIR	n/a	wordpools/wordpool_EN.txt	2	6	SLUSH	PASS	VEST	SLUSH	4	[0, 0, 0]	-999	PAL1	1	R1278E
618.808	1.017	626325	PAIR_OFF	n/a	n/a	2	6	SLUSH	PASS	VEST	SLUSH	4	[0, 0, 0]	-999	PAL1	1	R1278E
619.825	0.266	627342	STUDY_ORIENT	n/a	n/a	3	1	CLOUD	n/a	CLOUD	SHARK	4	[0, 0, 0]	-999	PAL1	1	R1278E
620.091	0.567	627608	STUDY_ORIENT_OFF	n/a	n/a	3	1	CLOUD	n/a	CLOUD	SHARK	4	[0, 0, 0]	-999	PAL1	1	R1278E
620.658	4.0	628175	STUDY_PAIR	n/a	wordpools/wordpool_EN.txt	3	1	CLOUD	n/a	CLOUD	SHARK	4	[0, 0, 0]	-999	PAL1	1	R1278E
624.676	1.017	632193	PAIR_OFF	n/a	n/a	3	1	CLOUD	n/a	CLOUD	SHARK	4	[0, 0, 0]	-999	PAL1	1	R1278E
625.693	0.266	633210	STUDY_ORIENT	n/a	n/a	4	4	LIP	TOAST	LIP	TOAST	4	[0, 0, 0]	-999	PAL1	1	R1278E
625.959	0.516	633476	STUDY_ORIENT_OFF	n/a	n/a	4	4	LIP	TOAST	LIP	TOAST	4	[0, 0, 0]	-999	PAL1	1	R1278E
626.475	4.0	633992	STUDY_PAIR	n/a	wordpools/wordpool_EN.txt	4	4	LIP	TOAST	LIP	TOAST	4	[0, 0, 0]	-999	PAL1	1	R1278E
630.492	1.017	638009	PAIR_OFF	n/a	n/a	4	4	LIP	TOAST	LIP	TOAST	4	[0, 0, 0]	-999	PAL1	1	R1278E
631.509	0.268	639026	STUDY_ORIENT	n/a	n/a	5	5	WAND	GUARD	GUARD	WAND	4	[0, 0, 0]	-999	PAL1	1	R1278E
631.777	0.766	639294	STUDY_ORIENT_OFF	n/a	n/a	5	5	WAND	GUARD	GUARD	WAND	4	[0, 0, 0]	-999	PAL1	1	R1278E
632.543	4.0	640060	STUDY_PAIR	n/a	wordpools/wordpool_EN.txt	5	5	WAND	GUARD	GUARD	WAND	4	[0, 0, 0]	-999	PAL1	1	R1278E
636.561	1.017	644077	PAIR_OFF	n/a	n/a	5	5	WAND	GUARD	GUARD	WAND	4	[0, 0, 0]	-999	PAL1	1	R1278E
637.578	0.267	645094	STUDY_ORIENT	n/a	n/a	6	2	MAIL	TOE	MAIL	TOE	4	[0, 0, 0]	-999	PAL1	1	R1278E
637.845	0.565	645361	STUDY_ORIENT_OFF	n/a	n/a	6	2	MAIL	TOE	MAIL	TOE	4	[0, 0, 0]	-999	PAL1	1	R1278E
638.41	4.0	645926	STUDY_PAIR	n/a	wordpools/wordpool_EN.txt	6	2	MAIL	TOE	MAIL	TOE	4	[0, 0, 0]	-999	PAL1	1	R1278E
642.428	1.001	649944	PAIR_OFF	n/a	n/a	6	2	MAIL	TOE	MAIL	TOE	4	[0, 0, 0]	-999	PAL1	1	R1278E
643.429	0.0	650945	ENCODING_END	n/a	n/a	-999	-999	n/a	n/a	n/a	n/a	4	[0, 0, 0]	-999	PAL1	1	R1278E
643.429	0.0	650945	MATH_START	n/a	n/a	-999	-999	n/a	n/a	n/a	n/a	4	[0, 0, 0]	-999	PAL1	1	R1278E
643.429	0.016	650945	START	n/a	n/a	-999	-999	n/a	n/a	n/a	n/a	4	[-999, -999, -999]	-999	PAL1	1	R1278E
643.445	4.468	650961	PROB	4443.0	n/a	-999	-999	n/a	n/a	n/a	n/a	4	[9, 4, 3]	16	PAL1	1	R1278E
647.913	4.183	655429	PROB	4150.0	n/a	-999	-999	n/a	n/a	n/a	n/a	4	[4, 7, 3]	14	PAL1	1	R1278E
652.096	2.1	659612	PROB	2078.0	n/a	-999	-999	n/a	n/a	n/a	n/a	4	[5, 2, 1]	8	PAL1	1	R1278E
654.196	4.352	661712	PROB	4315.0	n/a	-999	-999	n/a	n/a	n/a	n/a	4	[9, 7, 1]	17	PAL1	1	R1278E
658.548	4.451	666064	PROB	4419.0	n/a	-999	-999	n/a	n/a	n/a	n/a	4	[8, 1, 7]	16	PAL1	1	R1278E
662.999	4.456	670514	PROB	4456.0	n/a	-999	-999	n/a	n/a	n/a	n/a	4	[3, 8, 2]	13	PAL1	1	R1278E
667.455	0.01	674970	STOP	n/a	n/a	-999	-999	n/a	n/a	n/a	n/a	4	[-999, -999, -999]	-999	PAL1	1	R1278E
667.465	0.001	674980	MATH_END	n/a	n/a	-999	-999	n/a	n/a	n/a	n/a	4	[0, 0, 0]	-999	PAL1	1	R1278E
667.466	0.016	674981	RECALL_START	n/a	n/a	-999	-999	n/a	n/a	n/a	n/a	4	[0, 0, 0]	-999	PAL1	1	R1278E
667.482	0.251	674997	TEST_ORIENT	n/a	n/a	3	1	CLOUD	n/a	CLOUD	SHARK	4	[0, 0, 0]	-999	PAL1	1	R1278E
667.733	0.566	675248	RETRIEVAL_ORIENT_OFF	n/a	n/a	-999	-999	n/a	n/a	n/a	n/a	4	[0, 0, 0]	-999	PAL1	1	R1278E
668.299	4.0	675814	TEST_PROBE	n/a	wordpools/wordpool_EN.txt	3	1	CLOUD	n/a	CLOUD	SHARK	4	[0, 0, 0]	-999	PAL1	1	R1278E
668.299	2.944	675814	REC_START	n/a	n/a	3	-999	n/a	n/a	n/a	n/a	4	[0, 0, 0]	-999	PAL1	1	R1278E
671.243	1.073	678758	REC_EVENT	2944.0	n/a	3	1	CLOUD	<>	CLOUD	SHARK	4	[0, 0, 0]	-999	PAL1	1	R1278E
672.316	1.0	679831	PROBE_OFF	n/a	n/a	3	-999	n/a	n/a	n/a	n/a	4	[0, 0, 0]	-999	PAL1	1	R1278E
673.316	0.017	680831	REC_END	n/a	n/a	3	-999	n/a	n/a	n/a	n/a	4	[0, 0, 0]	-999	PAL1	1	R1278E
673.333	0.268	680848	TEST_ORIENT	n/a	n/a	6	2	MAIL	TOE	MAIL	TOE	4	[0, 0, 0]	-999	PAL1	1	R1278E
673.601	0.516	681116	RETRIEVAL_ORIENT_OFF	n/a	n/a	3	-999	n/a	n/a	n/a	n/a	4	[0, 0, 0]	-999	PAL1	1	R1278E
674.117	4.0	681632	TEST_PROBE	n/a	wordpools/wordpool_EN.txt	6	2	MAIL	TOE	MAIL	TOE	4	[0, 0, 0]	-999	PAL1	1	R1278E
674.117	1.859	681632	REC_START	n/a	n/a	6	-999	n/a	TOE	n/a	n/a	4	[0, 0, 0]	-999	PAL1	1	R1278E
675.976	2.158	683491	REC_EVENT	1859.0	n/a	6	2	MAIL	TOE	MAIL	TOE	4	[0, 0, 0]	-999	PAL1	1	R1278E
678.134	1.001	685649	PROBE_OFF	n/a	n/a	6	-999	n/a	n/a	n/a	n/a	4	[0, 0, 0]	-999	PAL1	1	R1278E
679.135	0.016	686650	REC_END	n/a	n/a	6	-999	n/a	n/a	n/a	n/a	4	[0, 0, 0]	-999	PAL1	1	R1278E
679.151	0.267	686666	TEST_ORIENT	n/a	n/a	1	3	FORK	TIE	FORK	TIE	4	[0, 0, 0]	-999	PAL1	1	R1278E
679.418	0.634	686933	RETRIEVAL_ORIENT_OFF	n/a	n/a	6	-999	n/a	n/a	n/a	n/a	4	[0, 0, 0]	-999	PAL1	1	R1278E
680.052	4.0	687567	TEST_PROBE	n/a	wordpools/wordpool_EN.txt	1	3	FORK	TIE	FORK	TIE	4	[0, 0, 0]	-999	PAL1	1	R1278E
680.052	2.819	687567	REC_START	n/a	n/a	1	-999	n/a	TIE	n/a	n/a	4	[0, 0, 0]	-999	PAL1	1	R1278E
682.871	0.45	690386	REC_EVENT	2819.0	n/a	1	3	FORK	PASS	FORK	TIE	4	[0, 0, 0]	-999	PAL1	1	R1278E
683.321	0.747	690836	REC_EVENT	3269.0	n/a	1	3	FORK	TIE	FORK	TIE	4	[0, 0, 0]	-999	PAL1	1	R1278E
684.068	1.0	691583	PROBE_OFF	n/a	n/a	1	-999	n/a	n/a	n/a	n/a	4	[0, 0, 0]	-999	PAL1	1	R1278E
685.068	0.017	692582	REC_END	n/a	n/a	1	-999	n/a	n/a	n/a	n/a	4	[0, 0, 0]	-999	PAL1	1	R1278E
685.085	0.267	692599	TEST_ORIENT	n/a	n/a	4	4	LIP	TOAST	LIP	TOAST	4	[0, 0, 0]	-999	PAL1	1	R1278E
685.352	0.651	692866	RETRIEVAL_ORIENT_OFF	n/a	n/a	1	-999	n/a	n/a	n/a	n/a	4	[0, 0, 0]	-999	PAL1	1	R1278E
686.003	4.0	693517	TEST_PROBE	n/a	wordpools/wordpool_EN.txt	4	4	LIP	TOAST	LIP	TOAST	4	[0, 0, 0]	-999	PAL1	1	R1278E
686.004	1.739	693518	REC_START	n/a	n/a	4	-999	n/a	TOAST	n/a	n/a	4	[0, 0, 0]	-999	PAL1	1	R1278E
687.743	2.277	695257	REC_EVENT	1739.0	n/a	4	4	LIP	TOAST	LIP	TOAST	4	[0, 0, 0]	-999	PAL1	1	R1278E
690.02	1.0	697534	PROBE_OFF	n/a	n/a	4	-999	n/a	n/a	n/a	n/a	4	[0, 0, 0]	-999	PAL1	1	R1278E
691.02	0.017	698534	REC_END	n/a	n/a	4	-999	n/a	n/a	n/a	n/a	4	[0, 0, 0]	-999	PAL1	1	R1278E
691.037	0.266	698551	TEST_ORIENT	n/a	n/a	5	5	WAND	GUARD	GUARD	WAND	4	[0, 0, 0]	-999	PAL1	1	R1278E
691.303	0.734	698817	RETRIEVAL_ORIENT_OFF	n/a	n/a	4	-999	n/a	n/a	n/a	n/a	4	[0, 0, 0]	-999	PAL1	1	R1278E
692.037	4.0	699551	TEST_PROBE	n/a	wordpools/wordpool_EN.txt	5	5	WAND	GUARD	GUARD	WAND	4	[0, 0, 0]	-999	PAL1	1	R1278E
692.038	1.095	699552	REC_START	n/a	n/a	5	-999	n/a	GUARD	n/a	n/a	4	[0, 0, 0]	-999	PAL1	1	R1278E
693.133	2.921	700647	REC_EVENT	1095.0	n/a	5	5	WAND	GUARD	GUARD	WAND	4	[0, 0, 0]	-999	PAL1	1	R1278E
696.054	1.0	703568	PROBE_OFF	n/a	n/a	5	-999	n/a	n/a	n/a	n/a	4	[0, 0, 0]	-999	PAL1	1	R1278E
697.054	0.017	704568	REC_END	n/a	n/a	5	-999	n/a	n/a	n/a	n/a	4	[0, 0, 0]	-999	PAL1	1	R1278E
697.071	0.266	704585	TEST_ORIENT	n/a	n/a	2	6	SLUSH	PASS	VEST	SLUSH	4	[0, 0, 0]	-999	PAL1	1	R1278E
697.337	0.535	704851	RETRIEVAL_ORIENT_OFF	n/a	n/a	5	-999	n/a	n/a	n/a	n/a	4	[0, 0, 0]	-999	PAL1	1	R1278E
697.872	4.0	705386	TEST_PROBE	n/a	wordpools/wordpool_EN.txt	2	6	SLUSH	PASS	VEST	SLUSH	4	[0, 0, 0]	-999	PAL1	1	R1278E
697.872	0.909	705386	REC_START	n/a	n/a	2	-999	n/a	PASS	n/a	n/a	4	[0, 0, 0]	-999	PAL1	1	R1278E
698.781	0.555	706295	REC_EVENT	909.0	n/a	2	6	SLUSH	<>	VEST	SLUSH	4	[0, 0, 0]	-999	PAL1	1	R1278E
699.336	2.553	706850	REC_EVENT	1464.0	n/a	2	6	SLUSH	<>	VEST	SLUSH	4	[0, 0, 0]	-999	PAL1	1	R1278E
701.889	0.077	709403	PROBE_OFF	n/a	n/a	2	-999	n/a	n/a	n/a	n/a	4	[0, 0, 0]	-999	PAL1	1	R1278E
701.966	0.923	709480	REC_EVENT	4094.0	n/a	2	6	SLUSH	PASS	VEST	SLUSH	4	[0, 0, 0]	-999	PAL1	1	R1278E
702.889	0.004	710403	REC_END	n/a	n/a	2	-999	n/a	n/a	n/a	n/a	4	[0, 0, 0]	-999	PAL1	1	R1278E
702.893	5.496	710407	RECALL_END	n/a	n/a	-999	-999	n/a	n/a	n/a	n/a	4	[0, 0, 0]	-999	PAL1	1	R1278E
708.389	10.929	715903	TRIAL	n/a	n/a	-999	-999	n/a	n/a	n/a	n/a	5	[0, 0, 0]	-999	PAL1	1	R1278E
719.318	0.007	726831	ENCODING_START	n/a	n/a	-999	-999	n/a	n/a	n/a	n/a	5	[0, 0, 0]	-999	PAL1	1	R1278E
719.325	0.267	726838	STUDY_ORIENT	n/a	n/a	1	3	CLOWN	PASS	CLOWN	BOX	5	[0, 0, 0]	-999	PAL1	1	R1278E
719.592	0.516	727105	STUDY_ORIENT_OFF	n/a	n/a	1	3	CLOWN	PASS	CLOWN	BOX	5	[0, 0, 0]	-999	PAL1	1	R1278E
720.108	4.0	727621	STUDY_PAIR	n/a	wordpools/wordpool_EN.txt	1	3	CLOWN	PASS	CLOWN	BOX	5	[0, 0, 0]	-999	PAL1	1	R1278E
724.125	1.017	731638	PAIR_OFF	n/a	n/a	1	3	CLOWN	PASS	CLOWN	BOX	5	[0, 0, 0]	-999	PAL1	1	R1278E
725.142	0.267	732655	STUDY_ORIENT	n/a	n/a	2	6	POND	n/a	HOUSE	POND	5	[0, 0, 0]	-999	PAL1	1	R1278E
725.409	0.568	732922	STUDY_ORIENT_OFF	n/a	n/a	2	6	POND	n/a	HOUSE	POND	5	[0, 0, 0]	-999	PAL1	1	R1278E
725.977	4.0	733490	STUDY_PAIR	n/a	wordpools/wordpool_EN.txt	2	6	POND	n/a	HOUSE	POND	5	[0, 0, 0]	-999	PAL1	1	R1278E
729.994	1.017	737507	PAIR_OFF	n/a	n/a	2	6	POND	n/a	HOUSE	POND	5	[0, 0, 0]	-999	PAL1	1	R1278E
731.011	0.266	738524	STUDY_ORIENT	n/a	n/a	3	1	SWORD	COW	COW	SWORD	5	[0, 0, 0]	-999	PAL1	1	R1278E
731.277	0.701	738790	STUDY_ORIENT_OFF	n/a	n/a	3	1	SWORD	COW	COW	SWORD	5	[0, 0, 0]	-999	PAL1	1	R1278E
731.978	4.0	739491	STUDY_PAIR	n/a	wordpools/wordpool_EN.txt	3	1	SWORD	COW	COW	SWORD	5	[0, 0, 0]	-999	PAL1	1	R1278E
735.995	1.017	743507	PAIR_OFF	n/a	n/a	3	1	SWORD	COW	COW	SWORD	5	[0, 0, 0]	-999	PAL1	1	R1278E
737.012	0.266	744524	STUDY_ORIENT	n/a	n/a	4	2	HOOK	MOON	BADGE	HOOK	5	[0, 0, 0]	-999	PAL1	1	R1278E
737.278	0.634	744790	STUDY_ORIENT_OFF	n/a	n/a	4	2	HOOK	MOON	BADGE	HOOK	5	[0, 0, 0]	-999	PAL1	1	R1278E
737.912	4.0	745424	STUDY_PAIR	n/a	wordpools/wordpool_EN.txt	4	2	HOOK	MOON	BADGE	HOOK	5	[0, 0, 0]	-999	PAL1	1	R1278E
741.93	1.016	749442	PAIR_OFF	n/a	n/a	4	2	HOOK	MOON	BADGE	HOOK	5	[0, 0, 0]	-999	PAL1	1	R1278E
742.946	0.266	750458	STUDY_ORIENT	n/a	n/a	5	5	SNOW	PASS	SNOW	INK	5	[0, 0, 0]	-999	PAL1	1	R1278E
743.212	0.551	750724	STUDY_ORIENT_OFF	n/a	n/a	5	5	SNOW	PASS	SNOW	INK	5	[0, 0, 0]	-999	PAL1	1	R1278E
743.763	4.0	751275	STUDY_PAIR	n/a	wordpools/wordpool_EN.txt	5	5	SNOW	PASS	SNOW	INK	5	[0, 0, 0]	-999	PAL1	1	R1278E
747.781	1.016	755293	PAIR_OFF	n/a	n/a	5	5	SNOW	PASS	SNOW	INK	5	[0, 0, 0]	-999	PAL1	1	R1278E
748.797	0.266	756309	STUDY_ORIENT	n/a	n/a	6	4	BOOK	n/a	MOON	BOOK	5	[0, 0, 0]	-999	PAL1	1	R1278E
749.063	0.534	756575	STUDY_ORIENT_OFF	n/a	n/a	6	4	BOOK	n/a	MOON	BOOK	5	[0, 0, 0]	-999	PAL1	1	R1278E
749.597	4.0	757109	STUDY_PAIR	n/a	wordpools/wordpool_EN.txt	6	4	BOOK	n/a	MOON	BOOK	5	[0, 0, 0]	-999	PAL1	1	R1278E
753.615	1.0	761127	PAIR_OFF	n/a	n/a	6	4	BOOK	n/a	MOON	BOOK	5	[0, 0, 0]	-999	PAL1	1	R1278E
754.615	0.0	762127	ENCODING_END	n/a	n/a	-999	-999	n/a	n/a	n/a	n/a	5	[0, 0, 0]	-999	PAL1	1	R1278E
754.615	0.0	762127	MATH_START	n/a	n/a	-999	-999	n/a	n/a	n/a	n/a	5	[0, 0, 0]	-999	PAL1	1	R1278E
754.615	0.017	762127	START	n/a	n/a	-999	-999	n/a	n/a	n/a	n/a	5	[-999, -999, -999]	-999	PAL1	1	R1278E
754.632	6.466	762144	PROB	6442.0	n/a	-999	-999	n/a	n/a	n/a	n/a	5	[8, 3, 9]	20	PAL1	1	R1278E
761.098	3.051	768609	PROB	3016.0	n/a	-999	-999	n/a	n/a	n/a	n/a	5	[4, 7, 1]	12	PAL1	1	R1278E
764.149	3.735	771660	PROB	3702.0	n/a	-999	-999	n/a	n/a	n/a	n/a	5	[5, 9, 4]	18	PAL1	1	R1278E
767.884	5.001	775395	PROB	4973.0	n/a	-999	-999	n/a	n/a	n/a	n/a	5	[9, 3, 7]	19	PAL1	1	R1278E
772.885	7.975	780396	PROB	7975.0	n/a	-999	-999	n/a	n/a	n/a	n/a	5	[8, 9, 9]	26	PAL1	1	R1278E
780.86	0.01	788371	STOP	n/a	n/a	-999	-999	n/a	n/a	n/a	n/a	5	[-999, -999, -999]	-999	PAL1	1	R1278E
780.87	0.0	788381	MATH_END	n/a	n/a	-999	-999	n/a	n/a	n/a	n/a	5	[0, 0, 0]	-999	PAL1	1	R1278E
780.87	0.016	788381	RECALL_START	n/a	n/a	-999	-999	n/a	n/a	n/a	n/a	5	[0, 0, 0]	-999	PAL1	1	R1278E
780.886	0.266	788397	TEST_ORIENT	n/a	n/a	3	1	SWORD	COW	COW	SWORD	5	[0, 0, 0]	-999	PAL1	1	R1278E
781.152	0.751	788663	RETRIEVAL_ORIENT_OFF	n/a	n/a	-999	-999	n/a	n/a	n/a	n/a	5	[0, 0, 0]	-999	PAL1	1	R1278E
781.903	4.0	789414	TEST_PROBE	n/a	wordpools/wordpool_EN.txt	3	1	SWORD	COW	COW	SWORD	5	[0, 0, 0]	-999	PAL1	1	R1278E
781.904	1.8	789415	REC_START	n/a	n/a	3	-999	n/a	COW	n/a	n/a	5	[0, 0, 0]	-999	PAL1	1	R1278E
783.704	2.217	791215	REC_EVENT	1800.0	n/a	3	1	SWORD	COW	COW	SWORD	5	[0, 0, 0]	-999	PAL1	1	R1278E
785.921	1.01	793431	PROBE_OFF	n/a	n/a	3	-999	n/a	n/a	n/a	n/a	5	[0, 0, 0]	-999	PAL1	1	R1278E
786.931	0.023	794441	REC_END	n/a	n/a	3	-999	n/a	n/a	n/a	n/a	5	[0, 0, 0]	-999	PAL1	1	R1278E
786.954	0.266	794464	TEST_ORIENT	n/a	n/a	4	2	HOOK	MOON	BADGE	HOOK	5	[0, 0, 0]	-999	PAL1	1	R1278E
787.22	0.517	794730	RETRIEVAL_ORIENT_OFF	n/a	n/a	3	-999	n/a	n/a	n/a	n/a	5	[0, 0, 0]	-999	PAL1	1	R1278E
787.737	4.0	795247	TEST_PROBE	n/a	wordpools/wordpool_EN.txt	4	2	HOOK	MOON	BADGE	HOOK	5	[0, 0, 0]	-999	PAL1	1	R1278E
787.738	2.985	795248	REC_START	n/a	n/a	4	-999	n/a	MOON	n/a	n/a	5	[0, 0, 0]	-999	PAL1	1	R1278E
790.723	1.032	798233	REC_EVENT	2985.0	n/a	4	2	HOOK	MOON	BADGE	HOOK	5	[0, 0, 0]	-999	PAL1	1	R1278E
791.755	1.01	799265	PROBE_OFF	n/a	n/a	4	-999	n/a	n/a	n/a	n/a	5	[0, 0, 0]	-999	PAL1	1	R1278E
792.765	0.007	800275	REC_END	n/a	n/a	4	-999	n/a	n/a	n/a	n/a	5	[0, 0, 0]	-999	PAL1	1	R1278E
792.772	0.266	800282	TEST_ORIENT	n/a	n/a	1	3	CLOWN	PASS	CLOWN	BOX	5	[0, 0, 0]	-999	PAL1	1	R1278E
793.038	0.534	800548	RETRIEVAL_ORIENT_OFF	n/a	n/a	4	-999	n/a	n/a	n/a	n/a	5	[0, 0, 0]	-999	PAL1	1	R1278E
793.572	4.0	801082	TEST_PROBE	n/a	wordpools/wordpool_EN.txt	1	3	CLOWN	PASS	CLOWN	BOX	5	[0, 0, 0]	-999	PAL1	1	R1278E
793.572	2.859	801082	REC_START	n/a	n/a	1	-999	n/a	PASS	n/a	n/a	5	[0, 0, 0]	-999	PAL1	1	R1278E
796.431	1.158	803941	REC_EVENT	2859.0	n/a	1	3	CLOWN	PASS	CLOWN	BOX	5	[0, 0, 0]	-999	PAL1	1	R1278E
797.589	1.0	805099	PROBE_OFF	n/a	n/a	1	-999	n/a	n/a	n/a	n/a	5	[0, 0, 0]	-999	PAL1	1	R1278E
798.589	0.017	806099	REC_END	n/a	n/a	1	-999	n/a	n/a	n/a	n/a	5	[0, 0, 0]	-999	PAL1	1	R1278E
798.606	0.267	806116	TEST_ORIENT	n/a	n/a	6	4	BOOK	n/a	MOON	BOOK	5	[0, 0, 0]	-999	PAL1	1	R1278E
798.873	0.666	806383	RETRIEVAL_ORIENT_OFF	n/a	n/a	1	-999	n/a	n/a	n/a	n/a	5	[0, 0, 0]	-999	PAL1	1	R1278E
799.539	4.0	807049	TEST_PROBE	n/a	wordpools/wordpool_EN.txt	6	4	BOOK	n/a	MOON	BOOK	5	[0, 0, 0]	-999	PAL1	1	R1278E
799.539	4.018	807049	REC_START	n/a	n/a	6	-999	n/a	n/a	n/a	n/a	5	[0, 0, 0]	-999	PAL1	1	R1278E
803.557	0.997	811067	PROBE_OFF	n/a	n/a	6	-999	n/a	n/a	n/a	n/a	5	[0, 0, 0]	-999	PAL1	1	R1278E
804.554	0.003	812064	REC_EVENT	5015.0	n/a	6	4	BOOK	<>	MOON	BOOK	5	[0, 0, 0]	-999	PAL1	1	R1278E
804.557	0.017	812067	REC_END	n/a	n/a	6	-999	n/a	n/a	n/a	n/a	5	[0, 0, 0]	-999	PAL1	1	R1278E
804.574	0.266	812084	TEST_ORIENT	n/a	n/a	5	5	SNOW	PASS	SNOW	INK	5	[0, 0, 0]	-999	PAL1	1	R1278E
804.84	0.533	812350	RETRIEVAL_ORIENT_OFF	n/a	n/a	6	-999	n/a	n/a	n/a	n/a	5	[0, 0, 0]	-999	PAL1	1	R1278E
805.373	4.0	812883	TEST_PROBE	n/a	wordpools/wordpool_EN.txt	5	5	SNOW	PASS	SNOW	INK	5	[0, 0, 0]	-999	PAL1	1	R1278E
805.373	2.759	812883	REC_START	n/a	n/a	5	-999	n/a	PASS	n/a	n/a	5	[0, 0, 0]	-999	PAL1	1	R1278E
808.132	1.258	815642	REC_EVENT	2759.0	n/a	5	5	SNOW	PASS	SNOW	INK	5	[0, 0, 0]	-999	PAL1	1	R1278E
809.39	1.001	816899	PROBE_OFF	n/a	n/a	5	-999	n/a	n/a	n/a	n/a	5	[0, 0, 0]	-999	PAL1	1	R1278E
810.391	0.016	817900	REC_END	n/a	n/a	5	-999	n/a	n/a	n/a	n/a	5	[0, 0, 0]	-999	PAL1	1	R1278E
810.407	0.268	817916	TEST_ORIENT	n/a	n/a	2	6	POND	n/a	HOUSE	POND	5	[0, 0, 0]	-999	PAL1	1	R1278E
810.675	0.582	818184	RETRIEVAL_ORIENT_OFF	n/a	n/a	5	-999	n/a	n/a	n/a	n/a	5	[0, 0, 0]	-999	PAL1	1	R1278E
811.257	4.0	818766	TEST_PROBE	n/a	wordpools/wordpool_EN.txt	2	6	POND	n/a	HOUSE	POND	5	[0, 0, 0]	-999	PAL1	1	R1278E
811.258	4.017	818767	REC_START	n/a	n/a	2	-999	n/a	n/a	n/a	n/a	5	[0, 0, 0]	-999	PAL1	1	R1278E
815.275	0.998	822784	PROBE_OFF	n/a	n/a	2	-999	n/a	n/a	n/a	n/a	5	[0, 0, 0]	-999	PAL1	1	R1278E
816.273	0.002	823782	REC_EVENT	5015.0	n/a	2	6	POND	<>	HOUSE	POND	5	[0, 0, 0]	-999	PAL1	1	R1278E
816.275	0.009	823784	REC_END	n/a	n/a	2	-999	n/a	n/a	n/a	n/a	5	[0, 0, 0]	-999	PAL1	1	R1278E
816.284	8.36	823793	RECALL_END	n/a	n/a	-999	-999	n/a	n/a	n/a	n/a	5	[0, 0, 0]	-999	PAL1	1	R1278E
824.644	10.929	832153	TRIAL	n/a	n/a	-999	-999	n/a	n/a	n/a	n/a	6	[0, 0, 0]	-999	PAL1	1	R1278E
835.573	0.006	843081	ENCODING_START	n/a	n/a	-999	-999	n/a	n/a	n/a	n/a	6	[0, 0, 0]	-999	PAL1	1	R1278E
835.579	0.267	843087	STUDY_ORIENT	n/a	n/a	1	5	SOCK	PARK	SOCK	PARK	6	[0, 0, 0]	-999	PAL1	1	R1278E
835.846	0.532	843354	STUDY_ORIENT_OFF	n/a	n/a	1	5	SOCK	PARK	SOCK	PARK	6	[0, 0, 0]	-999	PAL1	1	R1278E
836.378	4.0	843886	STUDY_PAIR	n/a	wordpools/wordpool_EN.txt	1	5	SOCK	PARK	SOCK	PARK	6	[0, 0, 0]	-999	PAL1	1	R1278E
840.396	1.017	847904	PAIR_OFF	n/a	n/a	1	5	SOCK	PARK	SOCK	PARK	6	[0, 0, 0]	-999	PAL1	1	R1278E
841.413	0.267	848921	STUDY_ORIENT	n/a	n/a	2	2	RICE	WOOD	WOOD	RICE	6	[0, 0, 0]	-999	PAL1	1	R1278E
841.68	0.699	849188	STUDY_ORIENT_OFF	n/a	n/a	2	2	RICE	WOOD	WOOD	RICE	6	[0, 0, 0]	-999	PAL1	1	R1278E
842.379	4.0	849887	STUDY_PAIR	n/a	wordpools/wordpool_EN.txt	2	2	RICE	WOOD	WOOD	RICE	6	[0, 0, 0]	-999	PAL1	1	R1278E
846.397	1.017	853905	PAIR_OFF	n/a	n/a	2	2	RICE	WOOD	WOOD	RICE	6	[0, 0, 0]	-999	PAL1	1	R1278E
847.414	0.267	854922	STUDY_ORIENT	n/a	n/a	3	1	FAN	PASS	FAN	CLAY	6	[0, 0, 0]	-999	PAL1	1	R1278E
847.681	0.649	855189	STUDY_ORIENT_OFF	n/a	n/a	3	1	FAN	PASS	FAN	CLAY	6	[0, 0, 0]	-999	PAL1	1	R1278E
848.33	4.0	855838	STUDY_PAIR	n/a	wordpools/wordpool_EN.txt	3	1	FAN	PASS	FAN	CLAY	6	[0, 0, 0]	-999	PAL1	1	R1278E
852.348	1.017	859856	PAIR_OFF	n/a	n/a	3	1	FAN	PASS	FAN	CLAY	6	[0, 0, 0]	-999	PAL1	1	R1278E
853.365	0.267	860873	STUDY_ORIENT	n/a	n/a	4	4	CUP	LEG	LEG	CUP	6	[0, 0, 0]	-999	PAL1	1	R1278E
853.632	0.649	861140	STUDY_ORIENT_OFF	n/a	n/a	4	4	CUP	LEG	LEG	CUP	6	[0, 0, 0]	-999	PAL1	1	R1278E
854.281	4.0	861789	STUDY_PAIR	n/a	wordpools/wordpool_EN.txt	4	4	CUP	LEG	LEG	CUP	6	[0, 0, 0]	-999	PAL1	1	R1278E
858.299	1.017	865807	PAIR_OFF	n/a	n/a	4	4	CUP	LEG	LEG	CUP	6	[0, 0, 0]	-999	PAL1	1	R1278E
859.316	0.267	866823	STUDY_ORIENT	n/a	n/a	5	3	AXE	n/a	AXE	PEN	6	[0, 0, 0]	-999	PAL1	1	R1278E
859.583	0.549	867090	STUDY_ORIENT_OFF	n/a	n/a	5	3	AXE	n/a	AXE	PEN	6	[0, 0, 0]	-999	PAL1	1	R1278E
860.132	4.0	867639	STUDY_PAIR	n/a	wordpools/wordpool_EN.txt	5	3	AXE	n/a	AXE	PEN	6	[0, 0, 0]	-999	PAL1	1	R1278E
864.15	1.017	871657	PAIR_OFF	n/a	n/a	5	3	AXE	n/a	AXE	PEN	6	[0, 0, 0]	-999	PAL1	1	R1278E
865.167	0.266	872674	STUDY_ORIENT	n/a	n/a	6	6	TENT	CUBE	TENT	CUBE	6	[0, 0, 0]	-999	PAL1	1	R1278E
865.433	0.717	872940	STUDY_ORIENT_OFF	n/a	n/a	6	6	TENT	CUBE	TENT	CUBE	6	[0, 0, 0]	-999	PAL1	1	R1278E
866.15	4.0	873657	STUDY_PAIR	n/a	wordpools/wordpool_EN.txt	6	6	TENT	CUBE	TENT	CUBE	6	[0, 0, 0]	-999	PAL1	1	R1278E
870.168	1.001	877675	PAIR_OFF	n/a	n/a	6	6	TENT	CUBE	TENT	CUBE	6	[0, 0, 0]	-999	PAL1	1	R1278E
871.169	0.0	878676	ENCODING_END	n/a	n/a	-999	-999	n/a	n/a	n/a	n/a	6	[0, 0, 0]	-999	PAL1	1	R1278E
871.169	0.0	878676	MATH_START	n/a	n/a	-999	-999	n/a	n/a	n/a	n/a	6	[0, 0, 0]	-999	PAL1	1	R1278E
871.169	0.015	878676	START	n/a	n/a	-999	-999	n/a	n/a	n/a	n/a	6	[-999, -999, -999]	-999	PAL1	1	R1278E
871.184	4.602	878691	PROB	4572.0	n/a	-999	-999	n/a	n/a	n/a	n/a	6	[2, 6, 5]	13	PAL1	1	R1278E
875.786	2.951	883293	PROB	2915.0	n/a	-999	-999	n/a	n/a	n/a	n/a	6	[2, 1, 1]	4	PAL1	1	R1278E
878.737	2.766	886244	PROB	2731.0	n/a	-999	-999	n/a	n/a	n/a	n/a	6	[3, 5, 1]	9	PAL1	1	R1278E
881.503	2.168	889010	PROB	2134.0	n/a	-999	-999	n/a	n/a	n/a	n/a	6	[1, 1, 7]	9	PAL1	1	R1278E
883.671	3.516	891178	PROB	3485.0	n/a	-999	-999	n/a	n/a	n/a	n/a	6	[3, 6, 6]	15	PAL1	1	R1278E
887.187	6.742	894693	PROB	6742.0	n/a	-999	-999	n/a	n/a	n/a	n/a	6	[8, 5, 5]	18	PAL1	1	R1278E
893.929	0.01	901435	STOP	n/a	n/a	-999	-999	n/a	n/a	n/a	n/a	6	[-999, -999, -999]	-999	PAL1	1	R1278E
893.939	0.001	901445	MATH_END	n/a	n/a	-999	-999	n/a	n/a	n/a	n/a	6	[0, 0, 0]	-999	PAL1	1	R1278E
893.94	0.016	901446	RECALL_START	n/a	n/a	-999	-999	n/a	n/a	n/a	n/a	6	[0, 0, 0]	-999	PAL1	1	R1278E
893.956	0.266	901462	TEST_ORIENT	n/a	n/a	3	1	FAN	PASS	FAN	CLAY	6	[0, 0, 0]	-999	PAL1	1	R1278E
894.222	0.568	901728	RETRIEVAL_ORIENT_OFF	n/a	n/a	-999	-999	n/a	n/a	n/a	n/a	6	[0, 0, 0]	-999	PAL1	1	R1278E
894.79	4.0	902296	TEST_PROBE	n/a	wordpools/wordpool_EN.txt	3	1	FAN	PASS	FAN	CLAY	6	[0, 0, 0]	-999	PAL1	1	R1278E
894.79	2.869	902296	REC_START	n/a	n/a	3	-999	n/a	PASS	n/a	n/a	6	[0, 0, 0]	-999	PAL1	1	R1278E
897.659	1.148	905165	REC_EVENT	2869.0	n/a	3	1	FAN	PASS	FAN	CLAY	6	[0, 0, 0]	-999	PAL1	1	R1278E
898.807	1.0	906313	PROBE_OFF	n/a	n/a	3	-999	n/a	n/a	n/a	n/a	6	[0, 0, 0]	-999	PAL1	1	R1278E
899.807	0.017	907313	REC_END	n/a	n/a	3	-999	n/a	n/a	n/a	n/a	6	[0, 0, 0]	-999	PAL1	1	R1278E
899.824	0.266	907330	TEST_ORIENT	n/a	n/a	2	2	RICE	WOOD	WOOD	RICE	6	[0, 0, 0]	-999	PAL1	1	R1278E
900.09	0.534	907596	RETRIEVAL_ORIENT_OFF	n/a	n/a	3	-999	n/a	n/a	n/a	n/a	6	[0, 0, 0]	-999	PAL1	1	R1278E
900.624	4.0	908130	TEST_PROBE	n/a	wordpools/wordpool_EN.txt	2	2	RICE	WOOD	WOOD	RICE	6	[0, 0, 0]	-999	PAL1	1	R1278E
900.625	1.57	908131	REC_START	n/a	n/a	2	-999	n/a	WOOD	n/a	n/a	6	[0, 0, 0]	-999	PAL1	1	R1278E
902.195	2.446	909701	REC_EVENT	1570.0	n/a	2	2	RICE	WOOD	WOOD	RICE	6	[0, 0, 0]	-999	PAL1	1	R1278E
904.641	1.0	912147	PROBE_OFF	n/a	n/a	2	-999	n/a	n/a	n/a	n/a	6	[0, 0, 0]	-999	PAL1	1	R1278E
905.641	0.017	913147	REC_END	n/a	n/a	2	-999	n/a	n/a	n/a	n/a	6	[0, 0, 0]	-999	PAL1	1	R1278E
905.658	0.267	913164	TEST_ORIENT	n/a	n/a	5	3	AXE	n/a	AXE	PEN	6	[0, 0, 0]	-999	PAL1	1	R1278E
905.925	0.582	913431	RETRIEVAL_ORIENT_OFF	n/a	n/a	2	-999	n/a	n/a	n/a	n/a	6	[0, 0, 0]	-999	PAL1	1	R1278E
906.507	4.0	914013	TEST_PROBE	n/a	wordpools/wordpool_EN.txt	5	3	AXE	n/a	AXE	PEN	6	[0, 0, 0]	-999	PAL1	1	R1278E
906.508	4.017	914014	REC_START	n/a	n/a	5	-999	n/a	n/a	n/a	n/a	6	[0, 0, 0]	-999	PAL1	1	R1278E
910.525	0.287	918030	PROBE_OFF	n/a	n/a	5	-999	n/a	n/a	n/a	n/a	6	[0, 0, 0]	-999	PAL1	1	R1278E
910.812	0.713	918317	REC_EVENT	4304.0	n/a	5	3	AXE	<>	AXE	PEN	6	[0, 0, 0]	-999	PAL1	1	R1278E
911.525	0.016	919030	REC_END	n/a	n/a	5	-999	n/a	n/a	n/a	n/a	6	[0, 0, 0]	-999	PAL1	1	R1278E
911.541	0.268	919046	TEST_ORIENT	n/a	n/a	4	4	CUP	LEG	LEG	CUP	6	[0, 0, 0]	-999	PAL1	1	R1278E
911.809	0.549	919314	RETRIEVAL_ORIENT_OFF	n/a	n/a	5	-999	n/a	n/a	n/a	n/a	6	[0, 0, 0]	-999	PAL1	1	R1278E
912.358	4.0	919863	TEST_PROBE	n/a	wordpools/wordpool_EN.txt	4	4	CUP	LEG	LEG	CUP	6	[0, 0, 0]	-999	PAL1	1	R1278E
912.359	2.035	919864	REC_START	n/a	n/a	4	-999	n/a	LEG	n/a	n/a	6	[0, 0, 0]	-999	PAL1	1	R1278E
914.394	1.982	921899	REC_EVENT	2035.0	n/a	4	4	CUP	LEG	LEG	CUP	6	[0, 0, 0]	-999	PAL1	1	R1278E
916.376	1.0	923881	PROBE_OFF	n/a	n/a	4	-999	n/a	n/a	n/a	n/a	6	[0, 0, 0]	-999	PAL1	1	R1278E
917.376	0.017	924881	REC_END	n/a	n/a	4	-999	n/a	n/a	n/a	n/a	6	[0, 0, 0]	-999	PAL1	1	R1278E
917.393	0.267	924898	TEST_ORIENT	n/a	n/a	1	5	SOCK	PARK	SOCK	PARK	6	[0, 0, 0]	-999	PAL1	1	R1278E
917.66	0.533	925165	RETRIEVAL_ORIENT_OFF	n/a	n/a	4	-999	n/a	n/a	n/a	n/a	6	[0, 0, 0]	-999	PAL1	1	R1278E
918.193	4.0	925698	TEST_PROBE	n/a	wordpools/wordpool_EN.txt	1	5	SOCK	PARK	SOCK	PARK	6	[0, 0, 0]	-999	PAL1	1	R1278E
918.193	0.909	925698	REC_START	n/a	n/a	1	-999	n/a	PARK	n/a	n/a	6	[0, 0, 0]	-999	PAL1	1	R1278E
919.102	0.812	926607	REC_EVENT	909.0	n/a	1	5	SOCK	<>	SOCK	PARK	6	[0, 0, 0]	-999	PAL1	1	R1278E
919.914	2.296	927419	REC_EVENT	1721.0	n/a	1	5	SOCK	PARK	SOCK	PARK	6	[0, 0, 0]	-999	PAL1	1	R1278E
922.21	1.001	929715	PROBE_OFF	n/a	n/a	1	-999	n/a	n/a	n/a	n/a	6	[0, 0, 0]	-999	PAL1	1	R1278E
923.211	0.016	930716	REC_END	n/a	n/a	1	-999	n/a	n/a	n/a	n/a	6	[0, 0, 0]	-999	PAL1	1	R1278E
923.227	0.267	930732	TEST_ORIENT	n/a	n/a	6	6	TENT	CUBE	TENT	CUBE	6	[0, 0, 0]	-999	PAL1	1	R1278E
923.494	0.75	930999	RETRIEVAL_ORIENT_OFF	n/a	n/a	1	-999	n/a	n/a	n/a	n/a	6	[0, 0, 0]	-999	PAL1	1	R1278E
924.244	4.0	931749	TEST_PROBE	n/a	wordpools/wordpool_EN.txt	6	6	TENT	CUBE	TENT	CUBE	6	[0, 0, 0]	-999	PAL1	1	R1278E
924.244	1.424	931749	REC_START	n/a	n/a	6	-999	n/a	CUBE	n/a	n/a	6	[0, 0, 0]	-999	PAL1	1	R1278E
925.668	2.593	933173	REC_EVENT	1424.0	n/a	6	6	TENT	CUBE	TENT	CUBE	6	[0, 0, 0]	-999	PAL1	1	R1278E
928.261	1.001	935766	PROBE_OFF	n/a	n/a	6	-999	n/a	n/a	n/a	n/a	6	[0, 0, 0]	-999	PAL1	1	R1278E
929.262	0.004	936767	REC_END	n/a	n/a	6	-999	n/a	n/a	n/a	n/a	6	[0, 0, 0]	-999	PAL1	1	R1278E
929.266	5.063	936771	RECALL_END	n/a	n/a	-999	-999	n/a	n/a	n/a	n/a	6	[0, 0, 0]	-999	PAL1	1	R1278E
934.329	10.929	941833	TRIAL	n/a	n/a	-999	-999	n/a	n/a	n/a	n/a	7	[0, 0, 0]	-999	PAL1	1	R1278E
945.258	0.006	952762	ENCODING_START	n/a	n/a	-999	-999	n/a	n/a	n/a	n/a	7	[0, 0, 0]	-999	PAL1	1	R1278E
945.264	0.267	952768	STUDY_ORIENT	n/a	n/a	1	3	GLOVE	n/a	APE	GLOVE	7	[0, 0, 0]	-999	PAL1	1	R1278E
945.531	0.6	953035	STUDY_ORIENT_OFF	n/a	n/a	1	3	GLOVE	n/a	APE	GLOVE	7	[0, 0, 0]	-999	PAL1	1	R1278E
946.131	4.0	953635	STUDY_PAIR	n/a	wordpools/wordpool_EN.txt	1	3	GLOVE	n/a	APE	GLOVE	7	[0, 0, 0]	-999	PAL1	1	R1278E
950.148	1.017	957652	PAIR_OFF	n/a	n/a	1	3	GLOVE	n/a	APE	GLOVE	7	[0, 0, 0]	-999	PAL1	1	R1278E
951.165	0.267	958669	STUDY_ORIENT	n/a	n/a	2	4	STORM	FUR	FUR	STORM	7	[0, 0, 0]	-999	PAL1	1	R1278E
951.432	0.601	958936	STUDY_ORIENT_OFF	n/a	n/a	2	4	STORM	FUR	FUR	STORM	7	[0, 0, 0]	-999	PAL1	1	R1278E
952.033	4.0	959537	STUDY_PAIR	n/a	wordpools/wordpool_EN.txt	2	4	STORM	FUR	FUR	STORM	7	[0, 0, 0]	-999	PAL1	1	R1278E
956.05	1.016	963554	PAIR_OFF	n/a	n/a	2	4	STORM	FUR	FUR	STORM	7	[0, 0, 0]	-999	PAL1	1	R1278E
957.066	0.267	964570	STUDY_ORIENT	n/a	n/a	3	5	CAT	PASS	SEA	CAT	7	[0, 0, 0]	-999	PAL1	1	R1278E
957.333	0.684	964837	STUDY_ORIENT_OFF	n/a	n/a	3	5	CAT	PASS	SEA	CAT	7	[0, 0, 0]	-999	PAL1	1	R1278E
958.017	4.0	965521	STUDY_PAIR	n/a	wordpools/wordpool_EN.txt	3	5	CAT	PASS	SEA	CAT	7	[0, 0, 0]	-999	PAL1	1	R1278E
962.035	1.016	969538	PAIR_OFF	n/a	n/a	3	5	CAT	PASS	SEA	CAT	7	[0, 0, 0]	-999	PAL1	1	R1278E
963.051	0.266	970554	STUDY_ORIENT	n/a	n/a	4	2	POLE	PASS	ROOT	POLE	7	[0, 0, 0]	-999	PAL1	1	R1278E
963.317	0.767	970820	STUDY_ORIENT_OFF	n/a	n/a	4	2	POLE	PASS	ROOT	POLE	7	[0, 0, 0]	-999	PAL1	1	R1278E
964.084	4.0	971587	STUDY_PAIR	n/a	wordpools/wordpool_EN.txt	4	2	POLE	PASS	ROOT	POLE	7	[0, 0, 0]	-999	PAL1	1	R1278E
968.101	1.017	975604	PAIR_OFF	n/a	n/a	4	2	POLE	PASS	ROOT	POLE	7	[0, 0, 0]	-999	PAL1	1	R1278E
969.118	0.267	976621	STUDY_ORIENT	n/a	n/a	5	1	HOOF	CASH	HOOF	CASH	7	[0, 0, 0]	-999	PAL1	1	R1278E
969.385	0.716	976888	STUDY_ORIENT_OFF	n/a	n/a	5	1	HOOF	CASH	HOOF	CASH	7	[0, 0, 0]	-999	PAL1	1	R1278E
970.101	4.0	977604	STUDY_PAIR	n/a	wordpools/wordpool_EN.txt	5	1	HOOF	CASH	HOOF	CASH	7	[0, 0, 0]	-999	PAL1	1	R1278E
974.119	1.017	981622	PAIR_OFF	n/a	n/a	5	1	HOOF	CASH	HOOF	CASH	7	[0, 0, 0]	-999	PAL1	1	R1278E
975.136	0.267	982639	STUDY_ORIENT	n/a	n/a	6	6	JAIL	SHIP	JAIL	SHIP	7	[0, 0, 0]	-999	PAL1	1	R1278E
975.403	0.534	982906	STUDY_ORIENT_OFF	n/a	n/a	6	6	JAIL	SHIP	JAIL	SHIP	7	[0, 0, 0]	-999	PAL1	1	R1278E
975.937	4.0	983440	STUDY_PAIR	n/a	wordpools/wordpool_EN.txt	6	6	JAIL	SHIP	JAIL	SHIP	7	[0, 0, 0]	-999	PAL1	1	R1278E
979.954	1.0	987457	PAIR_OFF	n/a	n/a	6	6	JAIL	SHIP	JAIL	SHIP	7	[0, 0, 0]	-999	PAL1	1	R1278E
980.954	0.0	988457	MATH_START	n/a	n/a	-999	-999	n/a	n/a	n/a	n/a	7	[0, 0, 0]	-999	PAL1	1	R1278E
980.954	0.001	988457	ENCODING_END	n/a	n/a	-999	-999	n/a	n/a	n/a	n/a	7	[0, 0, 0]	-999	PAL1	1	R1278E
980.955	0.016	988458	START	n/a	n/a	-999	-999	n/a	n/a	n/a	n/a	7	[-999, -999, -999]	-999	PAL1	1	R1278E
980.971	8.802	988474	PROB	8780.0	n/a	-999	-999	n/a	n/a	n/a	n/a	7	[8, 9, 6]	23	PAL1	1	R1278E
989.773	2.967	997275	PROB	2939.0	n/a	-999	-999	n/a	n/a	n/a	n/a	7	[5, 6, 5]	16	PAL1	1	R1278E
992.74	6.201	1000242	PROB	6168.0	n/a	-999	-999	n/a	n/a	n/a	n/a	7	[9, 2, 8]	19	PAL1	1	R1278E
998.941	3.815	1006443	PROB	3815.0	n/a	-999	-999	n/a	n/a	n/a	n/a	7	[4, 3, 8]	15	PAL1	1	R1278E
1002.756	0.019	1010258	STOP	n/a	n/a	-999	-999	n/a	n/a	n/a	n/a	7	[-999, -999, -999]	-999	PAL1	1	R1278E
1002.775	0.0	1010277	MATH_END	n/a	n/a	-999	-999	n/a	n/a	n/a	n/a	7	[0, 0, 0]	-999	PAL1	1	R1278E
1002.775	0.017	1010277	RECALL_START	n/a	n/a	-999	-999	n/a	n/a	n/a	n/a	7	[0, 0, 0]	-999	PAL1	1	R1278E
1002.792	0.266	1010294	TEST_ORIENT	n/a	n/a	5	1	HOOF	CASH	HOOF	CASH	7	[0, 0, 0]	-999	PAL1	1	R1278E
1003.058	0.534	1010560	RETRIEVAL_ORIENT_OFF	n/a	n/a	-999	-999	n/a	n/a	n/a	n/a	7	[0, 0, 0]	-999	PAL1	1	R1278E
1003.592	4.0	1011094	TEST_PROBE	n/a	wordpools/wordpool_EN.txt	5	1	HOOF	CASH	HOOF	CASH	7	[0, 0, 0]	-999	PAL1	1	R1278E
1003.592	2.434	1011094	REC_START	n/a	n/a	5	-999	n/a	CASH	n/a	n/a	7	[0, 0, 0]	-999	PAL1	1	R1278E
1006.026	1.583	1013528	REC_EVENT	2434.0	n/a	5	1	HOOF	CASH	HOOF	CASH	7	[0, 0, 0]	-999	PAL1	1	R1278E
1007.609	1.0	1015111	PROBE_OFF	n/a	n/a	5	-999	n/a	n/a	n/a	n/a	7	[0, 0, 0]	-999	PAL1	1	R1278E
1008.609	0.017	1016111	REC_END	n/a	n/a	5	-999	n/a	n/a	n/a	n/a	7	[0, 0, 0]	-999	PAL1	1	R1278E
1008.626	0.267	1016128	TEST_ORIENT	n/a	n/a	4	2	POLE	PASS	ROOT	POLE	7	[0, 0, 0]	-999	PAL1	1	R1278E
1008.893	0.582	1016395	RETRIEVAL_ORIENT_OFF	n/a	n/a	5	-999	n/a	n/a	n/a	n/a	7	[0, 0, 0]	-999	PAL1	1	R1278E
1009.475	4.0	1016976	TEST_PROBE	n/a	wordpools/wordpool_EN.txt	4	2	POLE	PASS	ROOT	POLE	7	[0, 0, 0]	-999	PAL1	1	R1278E
1009.476	2.419	1016977	REC_START	n/a	n/a	4	-999	n/a	PASS	n/a	n/a	7	[0, 0, 0]	-999	PAL1	1	R1278E
1011.895	0.995	1019396	REC_EVENT	2419.0	n/a	4	2	POLE	ROOT	ROOT	POLE	7	[0, 0, 0]	-999	PAL1	1	R1278E
1012.89	0.603	1020391	REC_EVENT	3414.0	n/a	4	2	POLE	<>	ROOT	POLE	7	[0, 0, 0]	-999	PAL1	1	R1278E
1013.493	0.557	1020994	PROBE_OFF	n/a	n/a	4	-999	n/a	n/a	n/a	n/a	7	[0, 0, 0]	-999	PAL1	1	R1278E
1014.05	0.443	1021551	REC_EVENT	4574.0	n/a	4	2	POLE	PASS	ROOT	POLE	7	[0, 0, 0]	-999	PAL1	1	R1278E
1014.493	0.016	1021994	REC_END	n/a	n/a	4	-999	n/a	n/a	n/a	n/a	7	[0, 0, 0]	-999	PAL1	1	R1278E
1014.509	0.251	1022010	TEST_ORIENT	n/a	n/a	1	3	GLOVE	n/a	APE	GLOVE	7	[0, 0, 0]	-999	PAL1	1	R1278E
1014.76	0.633	1022261	RETRIEVAL_ORIENT_OFF	n/a	n/a	4	-999	n/a	n/a	n/a	n/a	7	[0, 0, 0]	-999	PAL1	1	R1278E
1015.393	4.0	1022894	TEST_PROBE	n/a	wordpools/wordpool_EN.txt	1	3	GLOVE	n/a	APE	GLOVE	7	[0, 0, 0]	-999	PAL1	1	R1278E
1015.394	2.1	1022895	REC_START	n/a	n/a	1	-999	n/a	n/a	n/a	n/a	7	[0, 0, 0]	-999	PAL1	1	R1278E
1017.494	1.916	1024995	REC_EVENT	2100.0	n/a	1	3	GLOVE	<>	APE	GLOVE	7	[0, 0, 0]	-999	PAL1	1	R1278E
1019.41	1.0	1026911	PROBE_OFF	n/a	n/a	1	-999	n/a	n/a	n/a	n/a	7	[0, 0, 0]	-999	PAL1	1	R1278E
1020.41	0.017	1027911	REC_END	n/a	n/a	1	-999	n/a	n/a	n/a	n/a	7	[0, 0, 0]	-999	PAL1	1	R1278E
1020.427	0.268	1027928	TEST_ORIENT	n/a	n/a	2	4	STORM	FUR	FUR	STORM	7	[0, 0, 0]	-999	PAL1	1	R1278E
1020.695	0.616	1028196	RETRIEVAL_ORIENT_OFF	n/a	n/a	1	-999	n/a	n/a	n/a	n/a	7	[0, 0, 0]	-999	PAL1	1	R1278E
1021.311	4.0	1028812	TEST_PROBE	n/a	wordpools/wordpool_EN.txt	2	4	STORM	FUR	FUR	STORM	7	[0, 0, 0]	-999	PAL1	1	R1278E
1021.311	1.859	1028812	REC_START	n/a	n/a	2	-999	n/a	FUR	n/a	n/a	7	[0, 0, 0]	-999	PAL1	1	R1278E
1023.17	2.158	1030671	REC_EVENT	1859.0	n/a	2	4	STORM	FUR	FUR	STORM	7	[0, 0, 0]	-999	PAL1	1	R1278E
1025.328	1.0	1032829	PROBE_OFF	n/a	n/a	2	-999	n/a	n/a	n/a	n/a	7	[0, 0, 0]	-999	PAL1	1	R1278E
1026.328	0.017	1033829	REC_END	n/a	n/a	2	-999	n/a	n/a	n/a	n/a	7	[0, 0, 0]	-999	PAL1	1	R1278E
1026.345	0.268	1033846	TEST_ORIENT	n/a	n/a	3	5	CAT	PASS	SEA	CAT	7	[0, 0, 0]	-999	PAL1	1	R1278E
1026.613	0.565	1034114	RETRIEVAL_ORIENT_OFF	n/a	n/a	2	-999	n/a	n/a	n/a	n/a	7	[0, 0, 0]	-999	PAL1	1	R1278E
1027.178	4.0	1034679	TEST_PROBE	n/a	wordpools/wordpool_EN.txt	3	5	CAT	PASS	SEA	CAT	7	[0, 0, 0]	-999	PAL1	1	R1278E
1027.179	2.319	1034680	REC_START	n/a	n/a	3	-999	n/a	PASS	n/a	n/a	7	[0, 0, 0]	-999	PAL1	1	R1278E
1029.498	1.698	1036999	REC_EVENT	2319.0	n/a	3	5	CAT	PASS	SEA	CAT	7	[0, 0, 0]	-999	PAL1	1	R1278E
1031.196	1.0	1038697	PROBE_OFF	n/a	n/a	3	-999	n/a	n/a	n/a	n/a	7	[0, 0, 0]	-999	PAL1	1	R1278E
1032.196	0.017	1039697	REC_END	n/a	n/a	3	-999	n/a	n/a	n/a	n/a	7	[0, 0, 0]	-999	PAL1	1	R1278E
1032.213	0.266	1039714	TEST_ORIENT	n/a	n/a	6	6	JAIL	SHIP	JAIL	SHIP	7	[0, 0, 0]	-999	PAL1	1	R1278E
1032.479	0.751	1039980	RETRIEVAL_ORIENT_OFF	n/a	n/a	3	-999	n/a	n/a	n/a	n/a	7	[0, 0, 0]	-999	PAL1	1	R1278E
1033.23	4.0	1040731	TEST_PROBE	n/a	wordpools/wordpool_EN.txt	6	6	JAIL	SHIP	JAIL	SHIP	7	[0, 0, 0]	-999	PAL1	1	R1278E
1033.23	1.279	1040731	REC_START	n/a	n/a	6	-999	n/a	SHIP	n/a	n/a	7	[0, 0, 0]	-999	PAL1	1	R1278E
1034.509	2.738	1042009	REC_EVENT	1279.0	n/a	6	6	JAIL	SHIP	JAIL	SHIP	7	[0, 0, 0]	-999	PAL1	1	R1278E
1037.247	1.001	1044747	PROBE_OFF	n/a	n/a	6	-999	n/a	n/a	n/a	n/a	7	[0, 0, 0]	-999	PAL1	1	R1278E
1038.248	0.004	1045748	REC_END	n/a	n/a	6	-999	n/a	n/a	n/a	n/a	7	[0, 0, 0]	-999	PAL1	1	R1278E
1038.252	17.399	1045752	RECALL_END	n/a	n/a	-999	-999	n/a	n/a	n/a	n/a	7	[0, 0, 0]	-999	PAL1	1	R1278E
1055.651	10.928	1063151	TRIAL	n/a	n/a	-999	-999	n/a	n/a	n/a	n/a	8	[0, 0, 0]	-999	PAL1	1	R1278E
1066.579	0.007	1074078	ENCODING_START	n/a	n/a	-999	-999	n/a	n/a	n/a	n/a	8	[0, 0, 0]	-999	PAL1	1	R1278E
1066.586	0.267	1074085	STUDY_ORIENT	n/a	n/a	1	5	VAN	PASS	VAN	MOOSE	8	[0, 0, 0]	-999	PAL1	1	R1278E
1066.853	0.683	1074352	STUDY_ORIENT_OFF	n/a	n/a	1	5	VAN	PASS	VAN	MOOSE	8	[0, 0, 0]	-999	PAL1	1	R1278E
1067.536	4.0	1075035	STUDY_PAIR	n/a	wordpools/wordpool_EN.txt	1	5	VAN	PASS	VAN	MOOSE	8	[0, 0, 0]	-999	PAL1	1	R1278E
1071.554	1.017	1079053	PAIR_OFF	n/a	n/a	1	5	VAN	PASS	VAN	MOOSE	8	[0, 0, 0]	-999	PAL1	1	R1278E
1072.571	0.266	1080070	STUDY_ORIENT	n/a	n/a	2	6	PLANE	JUICE	PLANE	JUICE	8	[0, 0, 0]	-999	PAL1	1	R1278E
1072.837	0.683	1080336	STUDY_ORIENT_OFF	n/a	n/a	2	6	PLANE	JUICE	PLANE	JUICE	8	[0, 0, 0]	-999	PAL1	1	R1278E
1073.52	4.0	1081019	STUDY_PAIR	n/a	wordpools/wordpool_EN.txt	2	6	PLANE	JUICE	PLANE	JUICE	8	[0, 0, 0]	-999	PAL1	1	R1278E
1077.537	1.018	1085036	PAIR_OFF	n/a	n/a	2	6	PLANE	JUICE	PLANE	JUICE	8	[0, 0, 0]	-999	PAL1	1	R1278E
1078.555	0.267	1086054	STUDY_ORIENT	n/a	n/a	3	1	ZOO	n/a	SLEEVE	ZOO	8	[0, 0, 0]	-999	PAL1	1	R1278E
1078.822	0.516	1086321	STUDY_ORIENT_OFF	n/a	n/a	3	1	ZOO	n/a	SLEEVE	ZOO	8	[0, 0, 0]	-999	PAL1	1	R1278E
1079.338	4.0	1086837	STUDY_PAIR	n/a	wordpools/wordpool_EN.txt	3	1	ZOO	n/a	SLEEVE	ZOO	8	[0, 0, 0]	-999	PAL1	1	R1278E
1083.355	1.017	1090854	PAIR_OFF	n/a	n/a	3	1	ZOO	n/a	SLEEVE	ZOO	8	[0, 0, 0]	-999	PAL1	1	R1278E
1084.372	0.267	1091870	STUDY_ORIENT	n/a	n/a	4	4	WORLD	PASS	HEN	WORLD	8	[0, 0, 0]	-999	PAL1	1	R1278E
1084.639	0.716	1092137	STUDY_ORIENT_OFF	n/a	n/a	4	4	WORLD	PASS	HEN	WORLD	8	[0, 0, 0]	-999	PAL1	1	R1278E
1085.355	4.0	1092853	STUDY_PAIR	n/a	wordpools/wordpool_EN.txt	4	4	WORLD	PASS	HEN	WORLD	8	[0, 0, 0]	-999	PAL1	1	R1278E
1089.373	1.016	1096871	PAIR_OFF	n/a	n/a	4	4	WORLD	PASS	HEN	WORLD	8	[0, 0, 0]	-999	PAL1	1	R1278E
1090.389	0.268	1097887	STUDY_ORIENT	n/a	n/a	5	3	BOWL	DITCH	BOWL	DITCH	8	[0, 0, 0]	-999	PAL1	1	R1278E
1090.657	0.716	1098155	STUDY_ORIENT_OFF	n/a	n/a	5	3	BOWL	DITCH	BOWL	DITCH	8	[0, 0, 0]	-999	PAL1	1	R1278E
1091.373	4.0	1098871	STUDY_PAIR	n/a	wordpools/wordpool_EN.txt	5	3	BOWL	DITCH	BOWL	DITCH	8	[0, 0, 0]	-999	PAL1	1	R1278E
1095.39	1.017	1102888	PAIR_OFF	n/a	n/a	5	3	BOWL	DITCH	BOWL	DITCH	8	[0, 0, 0]	-999	PAL1	1	R1278E
1096.407	0.268	1103905	STUDY_ORIENT	n/a	n/a	6	2	FOOT	PASS	FOOT	SPRING	8	[0, 0, 0]	-999	PAL1	1	R1278E
1096.675	0.766	1104173	STUDY_ORIENT_OFF	n/a	n/a	6	2	FOOT	PASS	FOOT	SPRING	8	[0, 0, 0]	-999	PAL1	1	R1278E
1097.441	4.0	1104939	STUDY_PAIR	n/a	wordpools/wordpool_EN.txt	6	2	FOOT	PASS	FOOT	SPRING	8	[0, 0, 0]	-999	PAL1	1	R1278E
1101.458	1.0	1108956	PAIR_OFF	n/a	n/a	6	2	FOOT	PASS	FOOT	SPRING	8	[0, 0, 0]	-999	PAL1	1	R1278E
1102.458	0.0	1109956	MATH_START	n/a	n/a	-999	-999	n/a	n/a	n/a	n/a	8	[0, 0, 0]	-999	PAL1	1	R1278E
1102.458	0.001	1109956	ENCODING_END	n/a	n/a	-999	-999	n/a	n/a	n/a	n/a	8	[0, 0, 0]	-999	PAL1	1	R1278E
1102.459	0.016	1109957	START	n/a	n/a	-999	-999	n/a	n/a	n/a	n/a	8	[-999, -999, -999]	-999	PAL1	1	R1278E
1102.475	5.402	1109973	PROB	5377.0	n/a	-999	-999	n/a	n/a	n/a	n/a	8	[6, 6, 7]	19	PAL1	1	R1278E
1107.877	4.917	1115375	PROB	4887.0	n/a	-999	-999	n/a	n/a	n/a	n/a	8	[7, 6, 3]	16	PAL1	1	R1278E
1112.794	1.984	1120291	PROB	1962.0	n/a	-999	-999	n/a	n/a	n/a	n/a	8	[5, 1, 1]	7	PAL1	1	R1278E
1114.778	2.699	1122275	PROB	2665.0	n/a	-999	-999	n/a	n/a	n/a	n/a	8	[4, 5, 5]	14	PAL1	1	R1278E
1117.477	3.884	1124974	PROB	3847.0	n/a	-999	-999	n/a	n/a	n/a	n/a	8	[1, 9, 5]	15	PAL1	1	R1278E
1121.361	6.135	1128858	PROB	6135.0	n/a	-999	-999	n/a	n/a	n/a	n/a	8	[8, 7, 7]	22	PAL1	1	R1278E
1127.496	0.017	1134993	STOP	n/a	n/a	-999	-999	n/a	n/a	n/a	n/a	8	[-999, -999, -999]	-999	PAL1	1	R1278E
1127.513	0.0	1135010	MATH_END	n/a	n/a	-999	-999	n/a	n/a	n/a	n/a	8	[0, 0, 0]	-999	PAL1	1	R1278E
1127.513	0.016	1135010	RECALL_START	n/a	n/a	-999	-999	n/a	n/a	n/a	n/a	8	[0, 0, 0]	-999	PAL1	1	R1278E
1127.529	0.251	1135026	TEST_ORIENT	n/a	n/a	3	1	ZOO	n/a	SLEEVE	ZOO	8	[0, 0, 0]	-999	PAL1	1	R1278E
1127.78	0.516	1135277	RETRIEVAL_ORIENT_OFF	n/a	n/a	-999	-999	n/a	n/a	n/a	n/a	8	[0, 0, 0]	-999	PAL1	1	R1278E
1128.296	4.0	1135793	TEST_PROBE	n/a	wordpools/wordpool_EN.txt	3	1	ZOO	n/a	SLEEVE	ZOO	8	[0, 0, 0]	-999	PAL1	1	R1278E
1128.296	3.65	1135793	REC_START	n/a	n/a	3	-999	n/a	n/a	n/a	n/a	8	[0, 0, 0]	-999	PAL1	1	R1278E
1131.946	0.367	1139443	REC_EVENT	3650.0	n/a	3	1	ZOO	<>	SLEEVE	ZOO	8	[0, 0, 0]	-999	PAL1	1	R1278E
1132.313	1.0	1139810	PROBE_OFF	n/a	n/a	3	-999	n/a	n/a	n/a	n/a	8	[0, 0, 0]	-999	PAL1	1	R1278E
1133.313	0.017	1140810	REC_END	n/a	n/a	3	-999	n/a	n/a	n/a	n/a	8	[0, 0, 0]	-999	PAL1	1	R1278E
1133.33	0.268	1140827	TEST_ORIENT	n/a	n/a	6	2	FOOT	PASS	FOOT	SPRING	8	[0, 0, 0]	-999	PAL1	1	R1278E
1133.598	0.582	1141095	RETRIEVAL_ORIENT_OFF	n/a	n/a	3	-999	n/a	n/a	n/a	n/a	8	[0, 0, 0]	-999	PAL1	1	R1278E
1134.18	4.0	1141676	TEST_PROBE	n/a	wordpools/wordpool_EN.txt	6	2	FOOT	PASS	FOOT	SPRING	8	[0, 0, 0]	-999	PAL1	1	R1278E
1134.181	3.244	1141677	REC_START	n/a	n/a	6	-999	n/a	PASS	n/a	n/a	8	[0, 0, 0]	-999	PAL1	1	R1278E
1137.425	0.773	1144921	REC_EVENT	3244.0	n/a	6	2	FOOT	PASS	FOOT	SPRING	8	[0, 0, 0]	-999	PAL1	1	R1278E
1138.198	1.0	1145694	PROBE_OFF	n/a	n/a	6	-999	n/a	n/a	n/a	n/a	8	[0, 0, 0]	-999	PAL1	1	R1278E
1139.198	0.017	1146694	REC_END	n/a	n/a	6	-999	n/a	n/a	n/a	n/a	8	[0, 0, 0]	-999	PAL1	1	R1278E
1139.215	0.266	1146711	TEST_ORIENT	n/a	n/a	5	3	BOWL	DITCH	BOWL	DITCH	8	[0, 0, 0]	-999	PAL1	1	R1278E
1139.481	0.518	1146977	RETRIEVAL_ORIENT_OFF	n/a	n/a	6	-999	n/a	n/a	n/a	n/a	8	[0, 0, 0]	-999	PAL1	1	R1278E
1139.999	4.0	1147495	TEST_PROBE	n/a	wordpools/wordpool_EN.txt	5	3	BOWL	DITCH	BOWL	DITCH	8	[0, 0, 0]	-999	PAL1	1	R1278E
1140.0	2.35	1147496	REC_START	n/a	n/a	5	-999	n/a	DITCH	n/a	n/a	8	[0, 0, 0]	-999	PAL1	1	R1278E
1142.35	1.667	1149846	REC_EVENT	2350.0	n/a	5	3	BOWL	DITCH	BOWL	DITCH	8	[0, 0, 0]	-999	PAL1	1	R1278E
1144.017	1.0	1151513	PROBE_OFF	n/a	n/a	5	-999	n/a	n/a	n/a	n/a	8	[0, 0, 0]	-999	PAL1	1	R1278E
1145.017	0.016	1152513	REC_END	n/a	n/a	5	-999	n/a	n/a	n/a	n/a	8	[0, 0, 0]	-999	PAL1	1	R1278E
1145.033	0.266	1152529	TEST_ORIENT	n/a	n/a	4	4	WORLD	PASS	HEN	WORLD	8	[0, 0, 0]	-999	PAL1	1	R1278E
1145.299	0.568	1152795	RETRIEVAL_ORIENT_OFF	n/a	n/a	5	-999	n/a	n/a	n/a	n/a	8	[0, 0, 0]	-999	PAL1	1	R1278E
1145.867	4.0	1153363	TEST_PROBE	n/a	wordpools/wordpool_EN.txt	4	4	WORLD	PASS	HEN	WORLD	8	[0, 0, 0]	-999	PAL1	1	R1278E
1145.867	3.684	1153363	REC_START	n/a	n/a	4	-999	n/a	PASS	n/a	n/a	8	[0, 0, 0]	-999	PAL1	1	R1278E
1149.551	0.333	1157047	REC_EVENT	3684.0	n/a	4	4	WORLD	PASS	HEN	WORLD	8	[0, 0, 0]	-999	PAL1	1	R1278E
1149.884	1.0	1157380	PROBE_OFF	n/a	n/a	4	-999	n/a	n/a	n/a	n/a	8	[0, 0, 0]	-999	PAL1	1	R1278E
1150.884	0.017	1158380	REC_END	n/a	n/a	4	-999	n/a	n/a	n/a	n/a	8	[0, 0, 0]	-999	PAL1	1	R1278E
1150.901	0.266	1158397	TEST_ORIENT	n/a	n/a	1	5	VAN	PASS	VAN	MOOSE	8	[0, 0, 0]	-999	PAL1	1	R1278E
1151.167	0.668	1158663	RETRIEVAL_ORIENT_OFF	n/a	n/a	4	-999	n/a	n/a	n/a	n/a	8	[0, 0, 0]	-999	PAL1	1	R1278E
1151.835	4.0	1159331	TEST_PROBE	n/a	wordpools/wordpool_EN.txt	1	5	VAN	PASS	VAN	MOOSE	8	[0, 0, 0]	-999	PAL1	1	R1278E
1151.835	3.784	1159331	REC_START	n/a	n/a	1	-999	n/a	PASS	n/a	n/a	8	[0, 0, 0]	-999	PAL1	1	R1278E
1155.619	0.233	1163115	REC_EVENT	3784.0	n/a	1	5	VAN	PASS	VAN	MOOSE	8	[0, 0, 0]	-999	PAL1	1	R1278E
1155.852	1.0	1163348	PROBE_OFF	n/a	n/a	1	-999	n/a	n/a	n/a	n/a	8	[0, 0, 0]	-999	PAL1	1	R1278E
1156.852	0.017	1164348	REC_END	n/a	n/a	1	-999	n/a	n/a	n/a	n/a	8	[0, 0, 0]	-999	PAL1	1	R1278E
1156.869	0.266	1164365	TEST_ORIENT	n/a	n/a	2	6	PLANE	JUICE	PLANE	JUICE	8	[0, 0, 0]	-999	PAL1	1	R1278E
1157.135	0.567	1164631	RETRIEVAL_ORIENT_OFF	n/a	n/a	1	-999	n/a	n/a	n/a	n/a	8	[0, 0, 0]	-999	PAL1	1	R1278E
1157.702	4.0	1165198	TEST_PROBE	n/a	wordpools/wordpool_EN.txt	2	6	PLANE	JUICE	PLANE	JUICE	8	[0, 0, 0]	-999	PAL1	1	R1278E
1157.703	1.819	1165199	REC_START	n/a	n/a	2	-999	n/a	JUICE	n/a	n/a	8	[0, 0, 0]	-999	PAL1	1	R1278E
1159.522	2.198	1167017	REC_EVENT	1819.0	n/a	2	6	PLANE	JUICE	PLANE	JUICE	8	[0, 0, 0]	-999	PAL1	1	R1278E
1161.72	1.0	1169215	PROBE_OFF	n/a	n/a	2	-999	n/a	n/a	n/a	n/a	8	[0, 0, 0]	-999	PAL1	1	R1278E
1162.72	0.009	1170215	REC_END	n/a	n/a	2	-999	n/a	n/a	n/a	n/a	8	[0, 0, 0]	-999	PAL1	1	R1278E
1162.729	7.859	1170224	RECALL_END	n/a	n/a	-999	-999	n/a	n/a	n/a	n/a	8	[0, 0, 0]	-999	PAL1	1	R1278E
1170.588	10.929	1178083	TRIAL	n/a	n/a	-999	-999	n/a	n/a	n/a	n/a	9	[0, 0, 0]	-999	PAL1	1	R1278E
1181.517	0.005	1189012	ENCODING_START	n/a	n/a	-999	-999	n/a	n/a	n/a	n/a	9	[0, 0, 0]	-999	PAL1	1	R1278E
1181.522	0.268	1189017	STUDY_ORIENT	n/a	n/a	1	3	DOCK	n/a	DOCK	FOAM	9	[0, 0, 0]	-999	PAL1	1	R1278E
1181.79	0.632	1189285	STUDY_ORIENT_OFF	n/a	n/a	1	3	DOCK	n/a	DOCK	FOAM	9	[0, 0, 0]	-999	PAL1	1	R1278E
1182.422	4.0	1189917	STUDY_PAIR	n/a	wordpools/wordpool_EN.txt	1	3	DOCK	n/a	DOCK	FOAM	9	[0, 0, 0]	-999	PAL1	1	R1278E
1186.44	1.016	1193934	PAIR_OFF	n/a	n/a	1	3	DOCK	n/a	DOCK	FOAM	9	[0, 0, 0]	-999	PAL1	1	R1278E
1187.456	0.268	1194950	STUDY_ORIENT	n/a	n/a	2	2	MOLE	PASS	TREE	MOLE	9	[0, 0, 0]	-999	PAL1	1	R1278E
1187.724	0.549	1195218	STUDY_ORIENT_OFF	n/a	n/a	2	2	MOLE	PASS	TREE	MOLE	9	[0, 0, 0]	-999	PAL1	1	R1278E
1188.273	4.0	1195767	STUDY_PAIR	n/a	wordpools/wordpool_EN.txt	2	2	MOLE	PASS	TREE	MOLE	9	[0, 0, 0]	-999	PAL1	1	R1278E
1192.291	1.017	1199785	PAIR_OFF	n/a	n/a	2	2	MOLE	PASS	TREE	MOLE	9	[0, 0, 0]	-999	PAL1	1	R1278E
1193.308	0.267	1200802	STUDY_ORIENT	n/a	n/a	3	1	FISH	CALF	CALF	FISH	9	[0, 0, 0]	-999	PAL1	1	R1278E
1193.575	0.766	1201069	STUDY_ORIENT_OFF	n/a	n/a	3	1	FISH	CALF	CALF	FISH	9	[0, 0, 0]	-999	PAL1	1	R1278E
1194.341	4.0	1201835	STUDY_PAIR	n/a	wordpools/wordpool_EN.txt	3	1	FISH	CALF	CALF	FISH	9	[0, 0, 0]	-999	PAL1	1	R1278E
1198.358	1.017	1205852	PAIR_OFF	n/a	n/a	3	1	FISH	CALF	CALF	FISH	9	[0, 0, 0]	-999	PAL1	1	R1278E
1199.375	0.268	1206869	STUDY_ORIENT	n/a	n/a	4	4	JEEP	n/a	JEEP	OAK	9	[0, 0, 0]	-999	PAL1	1	R1278E
1199.643	0.732	1207137	STUDY_ORIENT_OFF	n/a	n/a	4	4	JEEP	n/a	JEEP	OAK	9	[0, 0, 0]	-999	PAL1	1	R1278E
1200.375	4.0	1207869	STUDY_PAIR	n/a	wordpools/wordpool_EN.txt	4	4	JEEP	n/a	JEEP	OAK	9	[0, 0, 0]	-999	PAL1	1	R1278E
1204.393	1.017	1211887	PAIR_OFF	n/a	n/a	4	4	JEEP	n/a	JEEP	OAK	9	[0, 0, 0]	-999	PAL1	1	R1278E
1205.41	0.267	1212904	STUDY_ORIENT	n/a	n/a	5	5	PEARL	PASS	SPOON	PEARL	9	[0, 0, 0]	-999	PAL1	1	R1278E
1205.677	0.616	1213171	STUDY_ORIENT_OFF	n/a	n/a	5	5	PEARL	PASS	SPOON	PEARL	9	[0, 0, 0]	-999	PAL1	1	R1278E
1206.293	4.0	1213787	STUDY_PAIR	n/a	wordpools/wordpool_EN.txt	5	5	PEARL	PASS	SPOON	PEARL	9	[0, 0, 0]	-999	PAL1	1	R1278E
1210.31	1.017	1217803	PAIR_OFF	n/a	n/a	5	5	PEARL	PASS	SPOON	PEARL	9	[0, 0, 0]	-999	PAL1	1	R1278E
1211.327	0.251	1218820	STUDY_ORIENT	n/a	n/a	6	6	TAIL	n/a	NOSE	TAIL	9	[0, 0, 0]	-999	PAL1	1	R1278E
1211.578	0.749	1219071	STUDY_ORIENT_OFF	n/a	n/a	6	6	TAIL	n/a	NOSE	TAIL	9	[0, 0, 0]	-999	PAL1	1	R1278E
1212.327	4.0	1219820	STUDY_PAIR	n/a	wordpools/wordpool_EN.txt	6	6	TAIL	n/a	NOSE	TAIL	9	[0, 0, 0]	-999	PAL1	1	R1278E
1216.345	1.0	1223838	PAIR_OFF	n/a	n/a	6	6	TAIL	n/a	NOSE	TAIL	9	[0, 0, 0]	-999	PAL1	1	R1278E
1217.345	0.0	1224838	ENCODING_END	n/a	n/a	-999	-999	n/a	n/a	n/a	n/a	9	[0, 0, 0]	-999	PAL1	1	R1278E
1217.345	0.0	1224838	MATH_START	n/a	n/a	-999	-999	n/a	n/a	n/a	n/a	9	[0, 0, 0]	-999	PAL1	1	R1278E
1217.345	0.017	1224838	START	n/a	n/a	-999	-999	n/a	n/a	n/a	n/a	9	[-999, -999, -999]	-999	PAL1	1	R1278E
1217.362	6.718	1224855	PROB	6685.0	n/a	-999	-999	n/a	n/a	n/a	n/a	9	[6, 7, 8]	21	PAL1	1	R1278E
1224.08	4.35	1231573	PROB	4318.0	n/a	-999	-999	n/a	n/a	n/a	n/a	9	[1, 8, 5]	14	PAL1	1	R1278E
1228.43	4.784	1235923	PROB	4753.0	n/a	-999	-999	n/a	n/a	n/a	n/a	9	[2, 5, 7]	14	PAL1	1	R1278E
1233.214	5.267	1240707	PROB	5267.0	n/a	-999	-999	n/a	n/a	n/a	n/a	9	[8, 3, 7]	18	PAL1	1	R1278E
1238.481	0.018	1245973	STOP	n/a	n/a	-999	-999	n/a	n/a	n/a	n/a	9	[-999, -999, -999]	-999	PAL1	1	R1278E
1238.499	0.0	1245991	MATH_END	n/a	n/a	-999	-999	n/a	n/a	n/a	n/a	9	[0, 0, 0]	-999	PAL1	1	R1278E
1238.499	0.016	1245991	RECALL_START	n/a	n/a	-999	-999	n/a	n/a	n/a	n/a	9	[0, 0, 0]	-999	PAL1	1	R1278E
1238.515	0.251	1246007	TEST_ORIENT	n/a	n/a	3	1	FISH	CALF	CALF	FISH	9	[0, 0, 0]	-999	PAL1	1	R1278E
1238.766	0.7	1246258	RETRIEVAL_ORIENT_OFF	n/a	n/a	-999	-999	n/a	n/a	n/a	n/a	9	[0, 0, 0]	-999	PAL1	1	R1278E
1239.466	4.0	1246958	TEST_PROBE	n/a	wordpools/wordpool_EN.txt	3	1	FISH	CALF	CALF	FISH	9	[0, 0, 0]	-999	PAL1	1	R1278E
1239.466	4.017	1246958	REC_START	n/a	n/a	3	-999	n/a	CALF	n/a	n/a	9	[0, 0, 0]	-999	PAL1	1	R1278E
1243.483	0.002	1250975	PROBE_OFF	n/a	n/a	3	-999	n/a	n/a	n/a	n/a	9	[0, 0, 0]	-999	PAL1	1	R1278E
1243.485	0.998	1250977	REC_EVENT	4019.0	n/a	3	1	FISH	CALF	CALF	FISH	9	[0, 0, 0]	-999	PAL1	1	R1278E
1244.483	0.017	1251975	REC_END	n/a	n/a	3	-999	n/a	n/a	n/a	n/a	9	[0, 0, 0]	-999	PAL1	1	R1278E
1244.5	0.267	1251992	TEST_ORIENT	n/a	n/a	2	2	MOLE	PASS	TREE	MOLE	9	[0, 0, 0]	-999	PAL1	1	R1278E
1244.767	0.516	1252259	RETRIEVAL_ORIENT_OFF	n/a	n/a	3	-999	n/a	n/a	n/a	n/a	9	[0, 0, 0]	-999	PAL1	1	R1278E
1245.283	4.0	1252775	TEST_PROBE	n/a	wordpools/wordpool_EN.txt	2	2	MOLE	PASS	TREE	MOLE	9	[0, 0, 0]	-999	PAL1	1	R1278E
1245.284	3.884	1252776	REC_START	n/a	n/a	2	-999	n/a	PASS	n/a	n/a	9	[0, 0, 0]	-999	PAL1	1	R1278E
1249.168	0.133	1256660	REC_EVENT	3884.0	n/a	2	2	MOLE	PASS	TREE	MOLE	9	[0, 0, 0]	-999	PAL1	1	R1278E
1249.301	1.0	1256793	PROBE_OFF	n/a	n/a	2	-999	n/a	n/a	n/a	n/a	9	[0, 0, 0]	-999	PAL1	1	R1278E
1250.301	0.016	1257793	REC_END	n/a	n/a	2	-999	n/a	n/a	n/a	n/a	9	[0, 0, 0]	-999	PAL1	1	R1278E
1250.317	0.268	1257809	TEST_ORIENT	n/a	n/a	1	3	DOCK	n/a	DOCK	FOAM	9	[0, 0, 0]	-999	PAL1	1	R1278E
1250.585	0.749	1258077	RETRIEVAL_ORIENT_OFF	n/a	n/a	2	-999	n/a	n/a	n/a	n/a	9	[0, 0, 0]	-999	PAL1	1	R1278E
1251.334	4.0	1258826	TEST_PROBE	n/a	wordpools/wordpool_EN.txt	1	3	DOCK	n/a	DOCK	FOAM	9	[0, 0, 0]	-999	PAL1	1	R1278E
1251.335	4.017	1258827	REC_START	n/a	n/a	1	-999	n/a	n/a	n/a	n/a	9	[0, 0, 0]	-999	PAL1	1	R1278E
1255.352	0.647	1262844	PROBE_OFF	n/a	n/a	1	-999	n/a	n/a	n/a	n/a	9	[0, 0, 0]	-999	PAL1	1	R1278E
1255.999	0.363	1263491	REC_EVENT	4664.0	n/a	1	3	DOCK	<>	DOCK	FOAM	9	[0, 0, 0]	-999	PAL1	1	R1278E
1256.362	0.006	1263854	REC_END	n/a	n/a	1	-999	n/a	n/a	n/a	n/a	9	[0, 0, 0]	-999	PAL1	1	R1278E
1256.368	0.251	1263860	TEST_ORIENT	n/a	n/a	4	4	JEEP	n/a	JEEP	OAK	9	[0, 0, 0]	-999	PAL1	1	R1278E
1256.619	0.75	1264111	RETRIEVAL_ORIENT_OFF	n/a	n/a	1	-999	n/a	n/a	n/a	n/a	9	[0, 0, 0]	-999	PAL1	1	R1278E
1257.369	4.0	1264861	TEST_PROBE	n/a	wordpools/wordpool_EN.txt	4	4	JEEP	n/a	JEEP	OAK	9	[0, 0, 0]	-999	PAL1	1	R1278E
1257.369	4.017	1264861	REC_START	n/a	n/a	4	-999	n/a	n/a	n/a	n/a	9	[0, 0, 0]	-999	PAL1	1	R1278E
1261.386	1.001	1268877	PROBE_OFF	n/a	n/a	4	-999	n/a	n/a	n/a	n/a	9	[0, 0, 0]	-999	PAL1	1	R1278E
1262.387	0.003	1269878	REC_END	n/a	n/a	4	-999	n/a	n/a	n/a	n/a	9	[0, 0, 0]	-999	PAL1	1	R1278E
1262.39	0.013	1269881	REC_EVENT	5021.0	n/a	4	4	JEEP	<>	JEEP	OAK	9	[0, 0, 0]	-999	PAL1	1	R1278E
1262.403	0.268	1269894	TEST_ORIENT	n/a	n/a	5	5	PEARL	PASS	SPOON	PEARL	9	[0, 0, 0]	-999	PAL1	1	R1278E
1262.671	0.665	1270162	RETRIEVAL_ORIENT_OFF	n/a	n/a	4	-999	n/a	n/a	n/a	n/a	9	[0, 0, 0]	-999	PAL1	1	R1278E
1263.336	4.0	1270827	TEST_PROBE	n/a	wordpools/wordpool_EN.txt	5	5	PEARL	PASS	SPOON	PEARL	9	[0, 0, 0]	-999	PAL1	1	R1278E
1263.337	3.169	1270828	REC_START	n/a	n/a	5	-999	n/a	PASS	n/a	n/a	9	[0, 0, 0]	-999	PAL1	1	R1278E
1266.506	0.848	1273997	REC_EVENT	3169.0	n/a	5	5	PEARL	PASS	SPOON	PEARL	9	[0, 0, 0]	-999	PAL1	1	R1278E
1267.354	1.01	1274845	PROBE_OFF	n/a	n/a	5	-999	n/a	n/a	n/a	n/a	9	[0, 0, 0]	-999	PAL1	1	R1278E
1268.364	0.023	1275855	REC_END	n/a	n/a	5	-999	n/a	n/a	n/a	n/a	9	[0, 0, 0]	-999	PAL1	1	R1278E
1268.387	0.268	1275878	TEST_ORIENT	n/a	n/a	6	6	TAIL	n/a	NOSE	TAIL	9	[0, 0, 0]	-999	PAL1	1	R1278E
1268.655	0.682	1276146	RETRIEVAL_ORIENT_OFF	n/a	n/a	5	-999	n/a	n/a	n/a	n/a	9	[0, 0, 0]	-999	PAL1	1	R1278E
1269.337	4.0	1276828	TEST_PROBE	n/a	wordpools/wordpool_EN.txt	6	6	TAIL	n/a	NOSE	TAIL	9	[0, 0, 0]	-999	PAL1	1	R1278E
1269.338	1.269	1276829	REC_START	n/a	n/a	6	-999	n/a	n/a	n/a	n/a	9	[0, 0, 0]	-999	PAL1	1	R1278E
1270.607	0.925	1278098	REC_EVENT	1269.0	n/a	6	6	TAIL	<>	NOSE	TAIL	9	[0, 0, 0]	-999	PAL1	1	R1278E
1271.532	1.823	1279023	REC_EVENT	2194.0	n/a	6	6	TAIL	<>	NOSE	TAIL	9	[0, 0, 0]	-999	PAL1	1	R1278E
1273.355	1.0	1280846	PROBE_OFF	n/a	n/a	6	-999	n/a	n/a	n/a	n/a	9	[0, 0, 0]	-999	PAL1	1	R1278E
1274.355	0.004	1281846	REC_END	n/a	n/a	6	-999	n/a	n/a	n/a	n/a	9	[0, 0, 0]	-999	PAL1	1	R1278E
1274.359	27.851	1281850	RECALL_END	n/a	n/a	-999	-999	n/a	n/a	n/a	n/a	9	[0, 0, 0]	-999	PAL1	1	R1278E
1302.21	10.929	1309700	TRIAL	n/a	n/a	-999	-999	n/a	n/a	n/a	n/a	10	[0, 0, 0]	-999	PAL1	1	R1278E
1313.139	0.006	1320628	ENCODING_START	n/a	n/a	-999	-999	n/a	n/a	n/a	n/a	10	[0, 0, 0]	-999	PAL1	1	R1278E
1313.145	0.267	1320634	STUDY_ORIENT	n/a	n/a	1	3	POOL	PHONE	POOL	PHONE	10	[0, 0, 0]	-999	PAL1	1	R1278E
1313.412	0.767	1320901	STUDY_ORIENT_OFF	n/a	n/a	1	3	POOL	PHONE	POOL	PHONE	10	[0, 0, 0]	-999	PAL1	1	R1278E
1314.179	4.0	1321668	STUDY_PAIR	n/a	wordpools/wordpool_EN.txt	1	3	POOL	PHONE	POOL	PHONE	10	[0, 0, 0]	-999	PAL1	1	R1278E
1318.196	1.017	1325685	PAIR_OFF	n/a	n/a	1	3	POOL	PHONE	POOL	PHONE	10	[0, 0, 0]	-999	PAL1	1	R1278E
1319.213	0.267	1326702	STUDY_ORIENT	n/a	n/a	2	2	STONE	PASS	STONE	FRUIT	10	[0, 0, 0]	-999	PAL1	1	R1278E
1319.48	0.65	1326969	STUDY_ORIENT_OFF	n/a	n/a	2	2	STONE	PASS	STONE	FRUIT	10	[0, 0, 0]	-999	PAL1	1	R1278E
1320.13	4.0	1327619	STUDY_PAIR	n/a	wordpools/wordpool_EN.txt	2	2	STONE	PASS	STONE	FRUIT	10	[0, 0, 0]	-999	PAL1	1	R1278E
1324.147	1.017	1331636	PAIR_OFF	n/a	n/a	2	2	STONE	PASS	STONE	FRUIT	10	[0, 0, 0]	-999	PAL1	1	R1278E
1325.164	0.267	1332653	STUDY_ORIENT	n/a	n/a	3	5	TOY	PASS	TOY	HOSE	10	[0, 0, 0]	-999	PAL1	1	R1278E
1325.431	0.683	1332920	STUDY_ORIENT_OFF	n/a	n/a	3	5	TOY	PASS	TOY	HOSE	10	[0, 0, 0]	-999	PAL1	1	R1278E
1326.114	4.0	1333603	STUDY_PAIR	n/a	wordpools/wordpool_EN.txt	3	5	TOY	PASS	TOY	HOSE	10	[0, 0, 0]	-999	PAL1	1	R1278E
1330.131	1.017	1337620	PAIR_OFF	n/a	n/a	3	5	TOY	PASS	TOY	HOSE	10	[0, 0, 0]	-999	PAL1	1	R1278E
1331.148	0.267	1338637	STUDY_ORIENT	n/a	n/a	4	6	STEM	CART	CART	STEM	10	[0, 0, 0]	-999	PAL1	1	R1278E
1331.415	0.683	1338904	STUDY_ORIENT_OFF	n/a	n/a	4	6	STEM	CART	CART	STEM	10	[0, 0, 0]	-999	PAL1	1	R1278E
1332.098	4.0	1339587	STUDY_PAIR	n/a	wordpools/wordpool_EN.txt	4	6	STEM	CART	CART	STEM	10	[0, 0, 0]	-999	PAL1	1	R1278E
1336.116	1.017	1343604	PAIR_OFF	n/a	n/a	4	6	STEM	CART	CART	STEM	10	[0, 0, 0]	-999	PAL1	1	R1278E
1337.133	0.266	1344621	STUDY_ORIENT	n/a	n/a	5	1	ELF	HAT	ELF	HAT	10	[0, 0, 0]	-999	PAL1	1	R1278E
1337.399	0.635	1344887	STUDY_ORIENT_OFF	n/a	n/a	5	1	ELF	HAT	ELF	HAT	10	[0, 0, 0]	-999	PAL1	1	R1278E
1338.034	4.0	1345522	STUDY_PAIR	n/a	wordpools/wordpool_EN.txt	5	1	ELF	HAT	ELF	HAT	10	[0, 0, 0]	-999	PAL1	1	R1278E
1342.051	1.016	1349539	PAIR_OFF	n/a	n/a	5	1	ELF	HAT	ELF	HAT	10	[0, 0, 0]	-999	PAL1	1	R1278E
1343.067	0.267	1350555	STUDY_ORIENT	n/a	n/a	6	4	SPONGE	BOARD	SPONGE	BOARD	10	[0, 0, 0]	-999	PAL1	1	R1278E
1343.334	0.534	1350822	STUDY_ORIENT_OFF	n/a	n/a	6	4	SPONGE	BOARD	SPONGE	BOARD	10	[0, 0, 0]	-999	PAL1	1	R1278E
1343.868	4.0	1351356	STUDY_PAIR	n/a	wordpools/wordpool_EN.txt	6	4	SPONGE	BOARD	SPONGE	BOARD	10	[0, 0, 0]	-999	PAL1	1	R1278E
1347.886	1.001	1355374	PAIR_OFF	n/a	n/a	6	4	SPONGE	BOARD	SPONGE	BOARD	10	[0, 0, 0]	-999	PAL1	1	R1278E
1348.887	0.0	1356375	ENCODING_END	n/a	n/a	-999	-999	n/a	n/a	n/a	n/a	10	[0, 0, 0]	-999	PAL1	1	R1278E
1348.887	0.0	1356375	MATH_START	n/a	n/a	-999	-999	n/a	n/a	n/a	n/a	10	[0, 0, 0]	-999	PAL1	1	R1278E
1348.887	0.015	1356375	START	n/a	n/a	-999	-999	n/a	n/a	n/a	n/a	10	[-999, -999, -999]	-999	PAL1	1	R1278E
1348.902	6.534	1356390	PROB	6501.0	n/a	-999	-999	n/a	n/a	n/a	n/a	10	[6, 7, 4]	17	PAL1	1	R1278E
1355.436	3.7	1362924	PROB	3664.0	n/a	-999	-999	n/a	n/a	n/a	n/a	10	[8, 5, 1]	14	PAL1	1	R1278E
1359.136	3.118	1366623	PROB	3084.0	n/a	-999	-999	n/a	n/a	n/a	n/a	10	[7, 1, 7]	15	PAL1	1	R1278E
1362.254	3.685	1369741	PROB	3655.0	n/a	-999	-999	n/a	n/a	n/a	n/a	10	[5, 7, 1]	13	PAL1	1	R1278E
1365.939	4.48	1373426	PROB	4480.0	n/a	-999	-999	n/a	n/a	n/a	n/a	10	[7, 9, 9]	25	PAL1	1	R1278E
1370.419	0.019	1377906	STOP	n/a	n/a	-999	-999	n/a	n/a	n/a	n/a	10	[-999, -999, -999]	-999	PAL1	1	R1278E
1370.438	0.001	1377925	MATH_END	n/a	n/a	-999	-999	n/a	n/a	n/a	n/a	10	[0, 0, 0]	-999	PAL1	1	R1278E
1370.439	0.016	1377926	RECALL_START	n/a	n/a	-999	-999	n/a	n/a	n/a	n/a	10	[0, 0, 0]	-999	PAL1	1	R1278E
1370.455	0.268	1377942	TEST_ORIENT	n/a	n/a	5	1	ELF	HAT	ELF	HAT	10	[0, 0, 0]	-999	PAL1	1	R1278E
1370.723	0.699	1378210	RETRIEVAL_ORIENT_OFF	n/a	n/a	-999	-999	n/a	n/a	n/a	n/a	10	[0, 0, 0]	-999	PAL1	1	R1278E
1371.422	4.0	1378909	TEST_PROBE	n/a	wordpools/wordpool_EN.txt	5	1	ELF	HAT	ELF	HAT	10	[0, 0, 0]	-999	PAL1	1	R1278E
1371.423	1.515	1378910	REC_START	n/a	n/a	5	-999	n/a	HAT	n/a	n/a	10	[0, 0, 0]	-999	PAL1	1	R1278E
1372.938	2.501	1380425	REC_EVENT	1515.0	n/a	5	1	ELF	HAT	ELF	HAT	10	[0, 0, 0]	-999	PAL1	1	R1278E
1375.439	1.0	1382926	PROBE_OFF	n/a	n/a	5	-999	n/a	n/a	n/a	n/a	10	[0, 0, 0]	-999	PAL1	1	R1278E
1376.439	0.017	1383926	REC_END	n/a	n/a	5	-999	n/a	n/a	n/a	n/a	10	[0, 0, 0]	-999	PAL1	1	R1278E
1376.456	0.268	1383943	TEST_ORIENT	n/a	n/a	2	2	STONE	PASS	STONE	FRUIT	10	[0, 0, 0]	-999	PAL1	1	R1278E
1376.724	0.716	1384211	RETRIEVAL_ORIENT_OFF	n/a	n/a	5	-999	n/a	n/a	n/a	n/a	10	[0, 0, 0]	-999	PAL1	1	R1278E
1377.44	4.0	1384927	TEST_PROBE	n/a	wordpools/wordpool_EN.txt	2	2	STONE	PASS	STONE	FRUIT	10	[0, 0, 0]	-999	PAL1	1	R1278E
1377.44	3.15	1384927	REC_START	n/a	n/a	2	-999	n/a	PASS	n/a	n/a	10	[0, 0, 0]	-999	PAL1	1	R1278E
1380.59	0.867	1388077	REC_EVENT	3150.0	n/a	2	2	STONE	PASS	STONE	FRUIT	10	[0, 0, 0]	-999	PAL1	1	R1278E
1381.457	1.001	1388944	PROBE_OFF	n/a	n/a	2	-999	n/a	n/a	n/a	n/a	10	[0, 0, 0]	-999	PAL1	1	R1278E
1382.458	0.016	1389945	REC_END	n/a	n/a	2	-999	n/a	n/a	n/a	n/a	10	[0, 0, 0]	-999	PAL1	1	R1278E
1382.474	0.268	1389961	TEST_ORIENT	n/a	n/a	1	3	POOL	PHONE	POOL	PHONE	10	[0, 0, 0]	-999	PAL1	1	R1278E
1382.742	0.582	1390229	RETRIEVAL_ORIENT_OFF	n/a	n/a	2	-999	n/a	n/a	n/a	n/a	10	[0, 0, 0]	-999	PAL1	1	R1278E
1383.324	4.0	1390811	TEST_PROBE	n/a	wordpools/wordpool_EN.txt	1	3	POOL	PHONE	POOL	PHONE	10	[0, 0, 0]	-999	PAL1	1	R1278E
1383.325	1.349	1390812	REC_START	n/a	n/a	1	-999	n/a	PHONE	n/a	n/a	10	[0, 0, 0]	-999	PAL1	1	R1278E
1384.674	1.0	1392160	REC_EVENT	1349.0	n/a	1	3	POOL	PHONE	POOL	PHONE	10	[0, 0, 0]	-999	PAL1	1	R1278E
1385.674	1.667	1393160	REC_EVENT	2349.0	n/a	1	3	POOL	<>	POOL	PHONE	10	[0, 0, 0]	-999	PAL1	1	R1278E
1387.341	1.001	1394827	PROBE_OFF	n/a	n/a	1	-999	n/a	n/a	n/a	n/a	10	[0, 0, 0]	-999	PAL1	1	R1278E
1388.342	0.016	1395828	REC_END	n/a	n/a	1	-999	n/a	n/a	n/a	n/a	10	[0, 0, 0]	-999	PAL1	1	R1278E
1388.358	0.268	1395844	TEST_ORIENT	n/a	n/a	6	4	SPONGE	BOARD	SPONGE	BOARD	10	[0, 0, 0]	-999	PAL1	1	R1278E
1388.626	0.665	1396112	RETRIEVAL_ORIENT_OFF	n/a	n/a	1	-999	n/a	n/a	n/a	n/a	10	[0, 0, 0]	-999	PAL1	1	R1278E
1389.291	4.0	1396777	TEST_PROBE	n/a	wordpools/wordpool_EN.txt	6	4	SPONGE	BOARD	SPONGE	BOARD	10	[0, 0, 0]	-999	PAL1	1	R1278E
1389.292	1.354	1396778	REC_START	n/a	n/a	6	-999	n/a	BOARD	n/a	n/a	10	[0, 0, 0]	-999	PAL1	1	R1278E
1390.646	1.185	1398132	REC_EVENT	1354.0	n/a	6	4	SPONGE	<>	SPONGE	BOARD	10	[0, 0, 0]	-999	PAL1	1	R1278E
1391.831	1.461	1399317	REC_EVENT	2539.0	n/a	6	4	SPONGE	BOARD	SPONGE	BOARD	10	[0, 0, 0]	-999	PAL1	1	R1278E
1393.292	1.0	1400778	PROBE_OFF	n/a	n/a	6	-999	n/a	n/a	n/a	n/a	10	[0, 0, 0]	-999	PAL1	1	R1278E
1394.292	0.017	1401778	REC_END	n/a	n/a	6	-999	n/a	n/a	n/a	n/a	10	[0, 0, 0]	-999	PAL1	1	R1278E
1394.309	0.268	1401795	TEST_ORIENT	n/a	n/a	3	5	TOY	PASS	TOY	HOSE	10	[0, 0, 0]	-999	PAL1	1	R1278E
1394.577	0.549	1402063	RETRIEVAL_ORIENT_OFF	n/a	n/a	6	-999	n/a	n/a	n/a	n/a	10	[0, 0, 0]	-999	PAL1	1	R1278E
1395.126	4.0	1402612	TEST_PROBE	n/a	wordpools/wordpool_EN.txt	3	5	TOY	PASS	TOY	HOSE	10	[0, 0, 0]	-999	PAL1	1	R1278E
1395.127	3.184	1402613	REC_START	n/a	n/a	3	-999	n/a	PASS	n/a	n/a	10	[0, 0, 0]	-999	PAL1	1	R1278E
1398.311	0.832	1405797	REC_EVENT	3184.0	n/a	3	5	TOY	PASS	TOY	HOSE	10	[0, 0, 0]	-999	PAL1	1	R1278E
1399.143	1.0	1406629	PROBE_OFF	n/a	n/a	3	-999	n/a	n/a	n/a	n/a	10	[0, 0, 0]	-999	PAL1	1	R1278E
1400.143	0.017	1407629	REC_END	n/a	n/a	3	-999	n/a	n/a	n/a	n/a	10	[0, 0, 0]	-999	PAL1	1	R1278E
1400.16	0.267	1407646	TEST_ORIENT	n/a	n/a	4	6	STEM	CART	CART	STEM	10	[0, 0, 0]	-999	PAL1	1	R1278E
1400.427	0.534	1407913	RETRIEVAL_ORIENT_OFF	n/a	n/a	3	-999	n/a	n/a	n/a	n/a	10	[0, 0, 0]	-999	PAL1	1	R1278E
1400.961	4.0	1408447	TEST_PROBE	n/a	wordpools/wordpool_EN.txt	4	6	STEM	CART	CART	STEM	10	[0, 0, 0]	-999	PAL1	1	R1278E
1400.962	1.669	1408448	REC_START	n/a	n/a	4	-999	n/a	CART	n/a	n/a	10	[0, 0, 0]	-999	PAL1	1	R1278E
1402.631	2.348	1410117	REC_EVENT	1669.0	n/a	4	6	STEM	CART	CART	STEM	10	[0, 0, 0]	-999	PAL1	1	R1278E
1404.979	1.0	1412465	PROBE_OFF	n/a	n/a	4	-999	n/a	n/a	n/a	n/a	10	[0, 0, 0]	-999	PAL1	1	R1278E
1405.979	0.009	1413465	REC_END	n/a	n/a	4	-999	n/a	n/a	n/a	n/a	10	[0, 0, 0]	-999	PAL1	1	R1278E
1405.988	10.208	1413474	RECALL_END	n/a	n/a	-999	-999	n/a	n/a	n/a	n/a	10	[0, 0, 0]	-999	PAL1	1	R1278E
1416.196	10.929	1423681	TRIAL	n/a	n/a	-999	-999	n/a	n/a	n/a	n/a	11	[0, 0, 0]	-999	PAL1	1	R1278E
1427.125	0.007	1434610	ENCODING_START	n/a	n/a	-999	-999	n/a	n/a	n/a	n/a	11	[0, 0, 0]	-999	PAL1	1	R1278E
1427.132	0.267	1434617	STUDY_ORIENT	n/a	n/a	1	1	RIB	n/a	RIB	CONE	11	[0, 0, 0]	-999	PAL1	1	R1278E
1427.399	0.567	1434884	STUDY_ORIENT_OFF	n/a	n/a	1	1	RIB	n/a	RIB	CONE	11	[0, 0, 0]	-999	PAL1	1	R1278E
1427.966	4.0	1435451	STUDY_PAIR	n/a	wordpools/wordpool_EN.txt	1	1	RIB	n/a	RIB	CONE	11	[0, 0, 0]	-999	PAL1	1	R1278E
1431.984	1.016	1439469	PAIR_OFF	n/a	n/a	1	1	RIB	n/a	RIB	CONE	11	[0, 0, 0]	-999	PAL1	1	R1278E
1433.0	0.266	1440485	STUDY_ORIENT	n/a	n/a	2	2	PIG	PASS	CORN	PIG	11	[0, 0, 0]	-999	PAL1	1	R1278E
1433.266	0.735	1440751	STUDY_ORIENT_OFF	n/a	n/a	2	2	PIG	PASS	CORN	PIG	11	[0, 0, 0]	-999	PAL1	1	R1278E
1434.001	4.0	1441485	STUDY_PAIR	n/a	wordpools/wordpool_EN.txt	2	2	PIG	PASS	CORN	PIG	11	[0, 0, 0]	-999	PAL1	1	R1278E
1438.018	1.017	1445502	PAIR_OFF	n/a	n/a	2	2	PIG	PASS	CORN	PIG	11	[0, 0, 0]	-999	PAL1	1	R1278E
1439.035	0.266	1446519	STUDY_ORIENT	n/a	n/a	3	5	FILM	PASS	FILM	STAIR	11	[0, 0, 0]	-999	PAL1	1	R1278E
1439.301	0.567	1446785	STUDY_ORIENT_OFF	n/a	n/a	3	5	FILM	PASS	FILM	STAIR	11	[0, 0, 0]	-999	PAL1	1	R1278E
1439.868	4.0	1447352	STUDY_PAIR	n/a	wordpools/wordpool_EN.txt	3	5	FILM	PASS	FILM	STAIR	11	[0, 0, 0]	-999	PAL1	1	R1278E
1443.886	1.016	1451370	PAIR_OFF	n/a	n/a	3	5	FILM	PASS	FILM	STAIR	11	[0, 0, 0]	-999	PAL1	1	R1278E
1444.902	0.266	1452386	STUDY_ORIENT	n/a	n/a	4	6	TOAD	PASS	EAR	TOAD	11	[0, 0, 0]	-999	PAL1	1	R1278E
1445.168	0.668	1452652	STUDY_ORIENT_OFF	n/a	n/a	4	6	TOAD	PASS	EAR	TOAD	11	[0, 0, 0]	-999	PAL1	1	R1278E
1445.836	4.0	1453320	STUDY_PAIR	n/a	wordpools/wordpool_EN.txt	4	6	TOAD	PASS	EAR	TOAD	11	[0, 0, 0]	-999	PAL1	1	R1278E
1449.853	1.017	1457337	PAIR_OFF	n/a	n/a	4	6	TOAD	PASS	EAR	TOAD	11	[0, 0, 0]	-999	PAL1	1	R1278E
1450.87	0.266	1458354	STUDY_ORIENT	n/a	n/a	5	3	DOOR	DOG	DOG	DOOR	11	[0, 0, 0]	-999	PAL1	1	R1278E
1451.136	0.601	1458620	STUDY_ORIENT_OFF	n/a	n/a	5	3	DOOR	DOG	DOG	DOOR	11	[0, 0, 0]	-999	PAL1	1	R1278E
1451.737	4.0	1459221	STUDY_PAIR	n/a	wordpools/wordpool_EN.txt	5	3	DOOR	DOG	DOG	DOOR	11	[0, 0, 0]	-999	PAL1	1	R1278E
1455.754	1.017	1463238	PAIR_OFF	n/a	n/a	5	3	DOOR	DOG	DOG	DOOR	11	[0, 0, 0]	-999	PAL1	1	R1278E
1456.771	0.267	1464255	STUDY_ORIENT	n/a	n/a	6	4	FENCE	SCHOOL	SCHOOL	FENCE	11	[0, 0, 0]	-999	PAL1	1	R1278E
1457.038	0.65	1464522	STUDY_ORIENT_OFF	n/a	n/a	6	4	FENCE	SCHOOL	SCHOOL	FENCE	11	[0, 0, 0]	-999	PAL1	1	R1278E
1457.688	4.0	1465172	STUDY_PAIR	n/a	wordpools/wordpool_EN.txt	6	4	FENCE	SCHOOL	SCHOOL	FENCE	11	[0, 0, 0]	-999	PAL1	1	R1278E
1461.706	1.001	1469189	PAIR_OFF	n/a	n/a	6	4	FENCE	SCHOOL	SCHOOL	FENCE	11	[0, 0, 0]	-999	PAL1	1	R1278E
1462.707	0.0	1470190	ENCODING_END	n/a	n/a	-999	-999	n/a	n/a	n/a	n/a	11	[0, 0, 0]	-999	PAL1	1	R1278E
1462.707	0.0	1470190	MATH_START	n/a	n/a	-999	-999	n/a	n/a	n/a	n/a	11	[0, 0, 0]	-999	PAL1	1	R1278E
1462.707	0.015	1470190	START	n/a	n/a	-999	-999	n/a	n/a	n/a	n/a	11	[-999, -999, -999]	-999	PAL1	1	R1278E
1462.722	2.716	1470205	PROB	2690.0	n/a	-999	-999	n/a	n/a	n/a	n/a	11	[3, 3, 1]	7	PAL1	1	R1278E
1465.438	4.486	1472921	PROB	4454.0	n/a	-999	-999	n/a	n/a	n/a	n/a	11	[7, 8, 2]	17	PAL1	1	R1278E
1469.924	4.483	1477407	PROB	4447.0	n/a	-999	-999	n/a	n/a	n/a	n/a	11	[8, 1, 7]	16	PAL1	1	R1278E
1474.407	2.551	1481890	PROB	2518.0	n/a	-999	-999	n/a	n/a	n/a	n/a	11	[2, 1, 3]	6	PAL1	1	R1278E
1476.958	3.3	1484441	PROB	3269.0	n/a	-999	-999	n/a	n/a	n/a	n/a	11	[1, 6, 4]	11	PAL1	1	R1278E
1480.258	4.81	1487741	PROB	4810.0	n/a	-999	-999	n/a	n/a	n/a	n/a	11	[3, 3, 6]	12	PAL1	1	R1278E
1485.068	0.007	1492550	STOP	n/a	n/a	-999	-999	n/a	n/a	n/a	n/a	11	[-999, -999, -999]	-999	PAL1	1	R1278E
1485.075	0.0	1492557	MATH_END	n/a	n/a	-999	-999	n/a	n/a	n/a	n/a	11	[0, 0, 0]	-999	PAL1	1	R1278E
1485.075	0.017	1492557	RECALL_START	n/a	n/a	-999	-999	n/a	n/a	n/a	n/a	11	[0, 0, 0]	-999	PAL1	1	R1278E
1485.092	0.267	1492574	TEST_ORIENT	n/a	n/a	1	1	RIB	n/a	RIB	CONE	11	[0, 0, 0]	-999	PAL1	1	R1278E
1485.359	0.684	1492841	RETRIEVAL_ORIENT_OFF	n/a	n/a	-999	-999	n/a	n/a	n/a	n/a	11	[0, 0, 0]	-999	PAL1	1	R1278E
1486.043	4.0	1493525	TEST_PROBE	n/a	wordpools/wordpool_EN.txt	1	1	RIB	n/a	RIB	CONE	11	[0, 0, 0]	-999	PAL1	1	R1278E
1486.043	3.294	1493525	REC_START	n/a	n/a	1	-999	n/a	n/a	n/a	n/a	11	[0, 0, 0]	-999	PAL1	1	R1278E
1489.337	0.722	1496819	REC_EVENT	3294.0	n/a	1	1	RIB	<>	RIB	CONE	11	[0, 0, 0]	-999	PAL1	1	R1278E
1490.059	0.416	1497541	PROBE_OFF	n/a	n/a	1	-999	n/a	n/a	n/a	n/a	11	[0, 0, 0]	-999	PAL1	1	R1278E
1490.475	0.584	1497957	REC_EVENT	4432.0	n/a	1	1	RIB	<>	RIB	CONE	11	[0, 0, 0]	-999	PAL1	1	R1278E
1491.059	0.017	1498541	REC_END	n/a	n/a	1	-999	n/a	n/a	n/a	n/a	11	[0, 0, 0]	-999	PAL1	1	R1278E
1491.076	0.267	1498558	TEST_ORIENT	n/a	n/a	2	2	PIG	PASS	CORN	PIG	11	[0, 0, 0]	-999	PAL1	1	R1278E
1491.343	0.75	1498825	RETRIEVAL_ORIENT_OFF	n/a	n/a	1	-999	n/a	n/a	n/a	n/a	11	[0, 0, 0]	-999	PAL1	1	R1278E
1492.093	4.0	1499575	TEST_PROBE	n/a	wordpools/wordpool_EN.txt	2	2	PIG	PASS	CORN	PIG	11	[0, 0, 0]	-999	PAL1	1	R1278E
1492.094	3.139	1499576	REC_START	n/a	n/a	2	-999	n/a	PASS	n/a	n/a	11	[0, 0, 0]	-999	PAL1	1	R1278E
1495.233	0.877	1502715	REC_EVENT	3139.0	n/a	2	2	PIG	PASS	CORN	PIG	11	[0, 0, 0]	-999	PAL1	1	R1278E
1496.11	1.0	1503592	PROBE_OFF	n/a	n/a	2	-999	n/a	n/a	n/a	n/a	11	[0, 0, 0]	-999	PAL1	1	R1278E
1497.11	0.017	1504592	REC_END	n/a	n/a	2	-999	n/a	n/a	n/a	n/a	11	[0, 0, 0]	-999	PAL1	1	R1278E
1497.127	0.267	1504609	TEST_ORIENT	n/a	n/a	5	3	DOOR	DOG	DOG	DOOR	11	[0, 0, 0]	-999	PAL1	1	R1278E
1497.394	0.684	1504876	RETRIEVAL_ORIENT_OFF	n/a	n/a	2	-999	n/a	n/a	n/a	n/a	11	[0, 0, 0]	-999	PAL1	1	R1278E
1498.078	4.0	1505560	TEST_PROBE	n/a	wordpools/wordpool_EN.txt	5	3	DOOR	DOG	DOG	DOOR	11	[0, 0, 0]	-999	PAL1	1	R1278E
1498.078	1.304	1505560	REC_START	n/a	n/a	5	-999	n/a	DOG	n/a	n/a	11	[0, 0, 0]	-999	PAL1	1	R1278E
1499.382	0.666	1506864	REC_EVENT	1304.0	n/a	5	3	DOOR	<>	DOG	DOOR	11	[0, 0, 0]	-999	PAL1	1	R1278E
1500.048	2.047	1507530	REC_EVENT	1970.0	n/a	5	3	DOOR	DOG	DOG	DOOR	11	[0, 0, 0]	-999	PAL1	1	R1278E
1502.095	1.0	1509577	PROBE_OFF	n/a	n/a	5	-999	n/a	n/a	n/a	n/a	11	[0, 0, 0]	-999	PAL1	1	R1278E
1503.095	0.017	1510577	REC_END	n/a	n/a	5	-999	n/a	n/a	n/a	n/a	11	[0, 0, 0]	-999	PAL1	1	R1278E
1503.112	0.266	1510594	TEST_ORIENT	n/a	n/a	6	4	FENCE	SCHOOL	SCHOOL	FENCE	11	[0, 0, 0]	-999	PAL1	1	R1278E
1503.378	0.518	1510860	RETRIEVAL_ORIENT_OFF	n/a	n/a	5	-999	n/a	n/a	n/a	n/a	11	[0, 0, 0]	-999	PAL1	1	R1278E
1503.896	4.0	1511378	TEST_PROBE	n/a	wordpools/wordpool_EN.txt	6	4	FENCE	SCHOOL	SCHOOL	FENCE	11	[0, 0, 0]	-999	PAL1	1	R1278E
1503.896	1.079	1511378	REC_START	n/a	n/a	6	-999	n/a	SCHOOL	n/a	n/a	11	[0, 0, 0]	-999	PAL1	1	R1278E
1504.975	1.0	1512457	REC_EVENT	1079.0	n/a	6	4	FENCE	SCHOOL	SCHOOL	FENCE	11	[0, 0, 0]	-999	PAL1	1	R1278E
1505.975	1.939	1513457	REC_EVENT	2079.0	n/a	6	4	FENCE	<>	SCHOOL	FENCE	11	[0, 0, 0]	-999	PAL1	1	R1278E
1507.914	1.0	1515396	PROBE_OFF	n/a	n/a	6	-999	n/a	n/a	n/a	n/a	11	[0, 0, 0]	-999	PAL1	1	R1278E
1508.914	0.016	1516395	REC_END	n/a	n/a	6	-999	n/a	n/a	n/a	n/a	11	[0, 0, 0]	-999	PAL1	1	R1278E
1508.93	0.266	1516411	TEST_ORIENT	n/a	n/a	3	5	FILM	PASS	FILM	STAIR	11	[0, 0, 0]	-999	PAL1	1	R1278E
1509.196	0.751	1516677	RETRIEVAL_ORIENT_OFF	n/a	n/a	6	-999	n/a	n/a	n/a	n/a	11	[0, 0, 0]	-999	PAL1	1	R1278E
1509.947	4.0	1517428	TEST_PROBE	n/a	wordpools/wordpool_EN.txt	3	5	FILM	PASS	FILM	STAIR	11	[0, 0, 0]	-999	PAL1	1	R1278E
1509.948	2.304	1517429	REC_START	n/a	n/a	3	-999	n/a	PASS	n/a	n/a	11	[0, 0, 0]	-999	PAL1	1	R1278E
1512.252	1.713	1519733	REC_EVENT	2304.0	n/a	3	5	FILM	PASS	FILM	STAIR	11	[0, 0, 0]	-999	PAL1	1	R1278E
1513.965	1.0	1521446	PROBE_OFF	n/a	n/a	3	-999	n/a	n/a	n/a	n/a	11	[0, 0, 0]	-999	PAL1	1	R1278E
1514.965	0.017	1522446	REC_END	n/a	n/a	3	-999	n/a	n/a	n/a	n/a	11	[0, 0, 0]	-999	PAL1	1	R1278E
1514.982	0.265	1522463	TEST_ORIENT	n/a	n/a	4	6	TOAD	PASS	EAR	TOAD	11	[0, 0, 0]	-999	PAL1	1	R1278E
1515.247	0.551	1522728	RETRIEVAL_ORIENT_OFF	n/a	n/a	3	-999	n/a	n/a	n/a	n/a	11	[0, 0, 0]	-999	PAL1	1	R1278E
1515.798	4.0	1523279	TEST_PROBE	n/a	wordpools/wordpool_EN.txt	4	6	TOAD	PASS	EAR	TOAD	11	[0, 0, 0]	-999	PAL1	1	R1278E
1515.799	3.424	1523280	REC_START	n/a	n/a	4	-999	n/a	PASS	n/a	n/a	11	[0, 0, 0]	-999	PAL1	1	R1278E
1519.223	0.593	1526704	REC_EVENT	3424.0	n/a	4	6	TOAD	PASS	EAR	TOAD	11	[0, 0, 0]	-999	PAL1	1	R1278E
1519.816	1.0	1527297	PROBE_OFF	n/a	n/a	4	-999	n/a	n/a	n/a	n/a	11	[0, 0, 0]	-999	PAL1	1	R1278E
1520.816	0.01	1528297	REC_END	n/a	n/a	4	-999	n/a	n/a	n/a	n/a	11	[0, 0, 0]	-999	PAL1	1	R1278E
1520.826	7.54	1528307	RECALL_END	n/a	n/a	-999	-999	n/a	n/a	n/a	n/a	11	[0, 0, 0]	-999	PAL1	1	R1278E
1528.366	10.928	1535847	TRIAL	n/a	n/a	-999	-999	n/a	n/a	n/a	n/a	12	[0, 0, 0]	-999	PAL1	1	R1278E
1539.294	0.007	1546774	ENCODING_START	n/a	n/a	-999	-999	n/a	n/a	n/a	n/a	12	[0, 0, 0]	-999	PAL1	1	R1278E
1539.301	0.268	1546781	STUDY_ORIENT	n/a	n/a	1	3	FOG	CHIN	CHIN	FOG	12	[0, 0, 0]	-999	PAL1	1	R1278E
1539.569	0.599	1547049	STUDY_ORIENT_OFF	n/a	n/a	1	3	FOG	CHIN	CHIN	FOG	12	[0, 0, 0]	-999	PAL1	1	R1278E
1540.168	4.0	1547648	STUDY_PAIR	n/a	wordpools/wordpool_EN.txt	1	3	FOG	CHIN	CHIN	FOG	12	[0, 0, 0]	-999	PAL1	1	R1278E
1544.186	1.016	1551666	PAIR_OFF	n/a	n/a	1	3	FOG	CHIN	CHIN	FOG	12	[0, 0, 0]	-999	PAL1	1	R1278E
1545.202	0.267	1552682	STUDY_ORIENT	n/a	n/a	2	2	CRANE	HOLE	HOLE	CRANE	12	[0, 0, 0]	-999	PAL1	1	R1278E
1545.469	0.551	1552949	STUDY_ORIENT_OFF	n/a	n/a	2	2	CRANE	HOLE	HOLE	CRANE	12	[0, 0, 0]	-999	PAL1	1	R1278E
1546.02	4.0	1553500	STUDY_PAIR	n/a	wordpools/wordpool_EN.txt	2	2	CRANE	HOLE	HOLE	CRANE	12	[0, 0, 0]	-999	PAL1	1	R1278E
1550.038	1.015	1557518	PAIR_OFF	n/a	n/a	2	2	CRANE	HOLE	HOLE	CRANE	12	[0, 0, 0]	-999	PAL1	1	R1278E
1551.053	0.267	1558533	STUDY_ORIENT	n/a	n/a	3	1	MUG	WEED	MUG	WEED	12	[0, 0, 0]	-999	PAL1	1	R1278E
1551.32	0.75	1558800	STUDY_ORIENT_OFF	n/a	n/a	3	1	MUG	WEED	MUG	WEED	12	[0, 0, 0]	-999	PAL1	1	R1278E
1552.07	4.0	1559550	STUDY_PAIR	n/a	wordpools/wordpool_EN.txt	3	1	MUG	WEED	MUG	WEED	12	[0, 0, 0]	-999	PAL1	1	R1278E
1556.088	1.017	1563568	PAIR_OFF	n/a	n/a	3	1	MUG	WEED	MUG	WEED	12	[0, 0, 0]	-999	PAL1	1	R1278E
1557.105	0.266	1564585	STUDY_ORIENT	n/a	n/a	4	6	TOOL	PASS	WAVE	TOOL	12	[0, 0, 0]	-999	PAL1	1	R1278E
1557.371	0.684	1564851	STUDY_ORIENT_OFF	n/a	n/a	4	6	TOOL	PASS	WAVE	TOOL	12	[0, 0, 0]	-999	PAL1	1	R1278E
