onset	duration	sample	trial_type	response_time	stim_file	serialpos	probepos	probe_word	resp_word	study_1	study_2	list	test	answer	experiment	session	subject
0.0	7.865	-1	INSTRUCT_START	n/a	n/a	-999	-999	n/a	n/a	n/a	n/a	-1	[0, 0, 0]	-999	PAL1	4	R1365N
7.865	2.4	-1	INSTRUCT_END	n/a	n/a	-999	-999	n/a	n/a	n/a	n/a	-1	[0, 0, 0]	-999	PAL1	4	R1365N
10.265	9.372	-1	MIC TEST_START	n/a	n/a	-999	-999	n/a	n/a	n/a	n/a	-1	[0, 0, 0]	-999	PAL1	4	R1365N
19.637	0.01	-1	MIC TEST_END	n/a	n/a	-999	-999	n/a	n/a	n/a	n/a	-1	[0, 0, 0]	-999	PAL1	4	R1365N
19.647	0.0	-1	TRIAL_START	n/a	n/a	-999	-999	n/a	n/a	n/a	n/a	-1	[0, 0, 0]	-999	PAL1	4	R1365N
19.647	0.001	-1	TRIAL	n/a	n/a	-999	-999	n/a	n/a	n/a	n/a	-1	[0, 0, 0]	-999	PAL1	4	R1365N
19.648	77.68	-1	WAITING_START	n/a	n/a	-999	-999	n/a	n/a	n/a	n/a	-1	[0, 0, 0]	-999	PAL1	4	R1365N
97.328	2.268	-1	INSTRUCT_START	n/a	n/a	-999	-999	n/a	n/a	n/a	n/a	-1	[0, 0, 0]	-999	PAL1	4	R1365N
99.596	1.984	-1	INSTRUCT_END	n/a	n/a	-999	-999	n/a	n/a	n/a	n/a	-1	[0, 0, 0]	-999	PAL1	4	R1365N
101.58	9.616	-1	MIC TEST_START	n/a	n/a	-999	-999	n/a	n/a	n/a	n/a	-1	[0, 0, 0]	-999	PAL1	4	R1365N
111.196	0.015	-1	MIC TEST_END	n/a	n/a	-999	-999	n/a	n/a	n/a	n/a	-1	[0, 0, 0]	-999	PAL1	4	R1365N
111.211	0.0	-1	WAITING_START	n/a	n/a	-999	-999	n/a	n/a	n/a	n/a	-1	[0, 0, 0]	-999	PAL1	4	R1365N
111.211	0.0	-1	TRIAL	n/a	n/a	-999	-999	n/a	n/a	n/a	n/a	-1	[0, 0, 0]	-999	PAL1	4	R1365N
111.211	2.437	-1	TRIAL_START	n/a	n/a	-999	-999	n/a	n/a	n/a	n/a	-1	[0, 0, 0]	-999	PAL1	4	R1365N
113.648	0.0	-1	WAITING_END	n/a	n/a	-999	-999	n/a	n/a	n/a	n/a	-1	[0, 0, 0]	-999	PAL1	4	R1365N
113.648	10.432	-1	COUNTDOWN_START	n/a	n/a	-999	-999	n/a	n/a	n/a	n/a	-1	[0, 0, 0]	-999	PAL1	4	R1365N
124.08	0.0	-1	COUNTDOWN_END	n/a	n/a	-999	-999	n/a	n/a	n/a	n/a	-1	[0, 0, 0]	-999	PAL1	4	R1365N
124.08	0.654	-1	ORIENT_START	n/a	n/a	-999	-999	n/a	n/a	n/a	n/a	-1	[0, 0, 0]	-999	PAL1	4	R1365N
124.734	0.001	-1	ORIENT_END	n/a	n/a	-999	-999	n/a	n/a	n/a	n/a	-1	[0, 0, 0]	-999	PAL1	4	R1365N
124.735	1.184	-1	ENCODING_START	n/a	n/a	-999	-999	n/a	n/a	n/a	n/a	-1	[0, 0, 0]	-999	PAL1	4	R1365N
125.919	4.032	-1	STUDY_PAIR	n/a	n/a	1	-999	n/a	TONGUE	FLOOD	TONGUE	-1	[0, 0, 0]	-999	PAL1	4	R1365N
129.951	0.705	-1	STUDY_PAIR_OFF	n/a	n/a	1	-999	n/a	TONGUE	FLOOD	TONGUE	-1	[0, 0, 0]	-999	PAL1	4	R1365N
130.656	4.03	-1	STUDY_PAIR	n/a	n/a	2	-999	n/a	CAMEL	CAMEL	BABY	-1	[0, 0, 0]	-999	PAL1	4	R1365N
134.686	0.548	-1	STUDY_PAIR_OFF	n/a	n/a	2	-999	n/a	CAMEL	CAMEL	BABY	-1	[0, 0, 0]	-999	PAL1	4	R1365N
135.234	4.035	-1	STUDY_PAIR	n/a	n/a	3	-999	n/a	COTTON	BEAM	RING	-1	[0, 0, 0]	-999	PAL1	4	R1365N
139.269	0.589	-1	STUDY_PAIR_OFF	n/a	n/a	3	-999	n/a	COTTON	BEAM	RING	-1	[0, 0, 0]	-999	PAL1	4	R1365N
139.858	4.028	-1	STUDY_PAIR	n/a	n/a	4	-999	n/a	IMAGE	IMAGE	WAGON	-1	[0, 0, 0]	-999	PAL1	4	R1365N
143.886	0.724	-1	STUDY_PAIR_OFF	n/a	n/a	4	-999	n/a	IMAGE	IMAGE	WAGON	-1	[0, 0, 0]	-999	PAL1	4	R1365N
144.61	4.027	-1	STUDY_PAIR	n/a	n/a	5	-999	n/a	COTTON	WATCH	COTTON	-1	[0, 0, 0]	-999	PAL1	4	R1365N
148.637	0.601	-1	STUDY_PAIR_OFF	n/a	n/a	5	-999	n/a	COTTON	WATCH	COTTON	-1	[0, 0, 0]	-999	PAL1	4	R1365N
149.238	4.033	-1	STUDY_PAIR	n/a	n/a	6	-999	n/a	CHEST	RHINO	CHEST	-1	[0, 0, 0]	-999	PAL1	4	R1365N
153.271	0.001	-1	STUDY_PAIR_OFF	n/a	n/a	6	-999	n/a	CHEST	RHINO	CHEST	-1	[0, 0, 0]	-999	PAL1	4	R1365N
153.272	0.0	-1	ENCODING_END	n/a	n/a	-999	-999	n/a	n/a	n/a	n/a	-1	[0, 0, 0]	-999	PAL1	4	R1365N
153.272	0.0	-1	MATH_START	n/a	n/a	-999	-999	n/a	n/a	n/a	n/a	-1	[0, 0, 0]	-999	PAL1	4	R1365N
153.272	0.016	-1	START	n/a	n/a	-999	-999	n/a	n/a	n/a	n/a	-1	[-999, -999, -999]	-999	PAL1	4	R1365N
153.288	5.801	-1	PROB	5776	n/a	-999	-999	n/a	n/a	n/a	n/a	-1	[3, 1, 2]	5	PAL1	4	R1365N
159.089	9.652	-1	PROB	9616	n/a	-999	-999	n/a	n/a	n/a	n/a	-1	[8, 8, 7]	21	PAL1	4	R1365N
168.741	6.37	-1	PROB	6370	n/a	-999	-999	n/a	n/a	n/a	n/a	-1	[3, 8, 4]	15	PAL1	4	R1365N
175.111	0.014	-1	STOP	n/a	n/a	-999	-999	n/a	n/a	n/a	n/a	-1	[-999, -999, -999]	-999	PAL1	4	R1365N
175.125	0.591	-1	MATH_END	n/a	n/a	-999	-999	n/a	n/a	n/a	n/a	-1	[0, 0, 0]	-999	PAL1	4	R1365N
175.716	0.001	-1	RETRIEVAL_START	n/a	n/a	-999	-999	n/a	n/a	n/a	n/a	-1	[0, 0, 0]	-999	PAL1	4	R1365N
175.717	0.275	-1	ORIENT_START	n/a	n/a	-999	-999	n/a	n/a	n/a	n/a	-1	[0, 0, 0]	-999	PAL1	4	R1365N
175.992	0.744	-1	ORIENT_END	n/a	n/a	-999	-999	n/a	n/a	n/a	n/a	-1	[0, 0, 0]	-999	PAL1	4	R1365N
176.736	0.001	-1	REC_START	n/a	n/a	5	1	WATCH	COTTON	WATCH	COTTON	-1	[0, 0, 0]	-999	PAL1	4	R1365N
176.737	4.023	-1	PROBE_START	n/a	n/a	5	1	WATCH	COTTON	WATCH	COTTON	-1	[0, 0, 0]	-999	PAL1	4	R1365N
180.76	1.001	-1	PROBE_END	n/a	n/a	5	1	WATCH	COTTON	WATCH	COTTON	-1	[0, 0, 0]	-999	PAL1	4	R1365N
181.761	0.007	-1	REC_END	n/a	n/a	5	1	WATCH	COTTON	WATCH	COTTON	-1	[0, 0, 0]	-999	PAL1	4	R1365N
181.768	0.275	-1	ORIENT_START	n/a	n/a	-999	-999	n/a	n/a	n/a	n/a	-1	[0, 0, 0]	-999	PAL1	4	R1365N
182.043	0.696	-1	ORIENT_END	n/a	n/a	-999	-999	n/a	n/a	n/a	n/a	-1	[0, 0, 0]	-999	PAL1	4	R1365N
182.739	0.0	-1	REC_START	n/a	n/a	6	2	RHINO	CHEST	RHINO	CHEST	-1	[0, 0, 0]	-999	PAL1	4	R1365N
182.739	1.947	-1	PROBE_START	n/a	n/a	6	2	RHINO	CHEST	RHINO	CHEST	-1	[0, 0, 0]	-999	PAL1	4	R1365N
184.686	2.092	-1	REC_EVENT	1947	n/a	6	2	RHINO	IMAGE	RHINO	CHEST	-1	[0, 0, 0]	-999	PAL1	4	R1365N
186.778	1.001	-1	PROBE_END	n/a	n/a	6	2	RHINO	CHEST	RHINO	CHEST	-1	[0, 0, 0]	-999	PAL1	4	R1365N
187.779	0.013	-1	REC_END	n/a	n/a	6	2	RHINO	CHEST	RHINO	CHEST	-1	[0, 0, 0]	-999	PAL1	4	R1365N
187.792	0.285	-1	ORIENT_START	n/a	n/a	-999	-999	n/a	n/a	n/a	n/a	-1	[0, 0, 0]	-999	PAL1	4	R1365N
188.077	0.74	-1	ORIENT_END	n/a	n/a	-999	-999	n/a	n/a	n/a	n/a	-1	[0, 0, 0]	-999	PAL1	4	R1365N
188.817	0.0	-1	PROBE_START	n/a	n/a	1	3	FLOOD	TONGUE	FLOOD	TONGUE	-1	[0, 0, 0]	-999	PAL1	4	R1365N
188.817	2.009	-1	REC_START	n/a	n/a	1	3	FLOOD	TONGUE	FLOOD	TONGUE	-1	[0, 0, 0]	-999	PAL1	4	R1365N
190.826	2.018	-1	REC_EVENT	2009	n/a	1	3	FLOOD	TONGUE	FLOOD	TONGUE	-1	[0, 0, 0]	-999	PAL1	4	R1365N
192.844	1.0	-1	PROBE_END	n/a	n/a	1	3	FLOOD	TONGUE	FLOOD	TONGUE	-1	[0, 0, 0]	-999	PAL1	4	R1365N
193.844	0.006	-1	REC_END	n/a	n/a	1	3	FLOOD	TONGUE	FLOOD	TONGUE	-1	[0, 0, 0]	-999	PAL1	4	R1365N
193.85	0.278	-1	ORIENT_START	n/a	n/a	-999	-999	n/a	n/a	n/a	n/a	-1	[0, 0, 0]	-999	PAL1	4	R1365N
194.128	0.562	-1	ORIENT_END	n/a	n/a	-999	-999	n/a	n/a	n/a	n/a	-1	[0, 0, 0]	-999	PAL1	4	R1365N
194.69	0.0	-1	REC_START	n/a	n/a	2	4	BABY	CAMEL	CAMEL	BABY	-1	[0, 0, 0]	-999	PAL1	4	R1365N
194.69	1.682	-1	PROBE_START	n/a	n/a	2	4	BABY	CAMEL	CAMEL	BABY	-1	[0, 0, 0]	-999	PAL1	4	R1365N
196.372	2.324	-1	REC_EVENT	1682	n/a	2	4	BABY	CAMEL	CAMEL	BABY	-1	[0, 0, 0]	-999	PAL1	4	R1365N
198.696	1.0	-1	PROBE_END	n/a	n/a	2	4	BABY	CAMEL	CAMEL	BABY	-1	[0, 0, 0]	-999	PAL1	4	R1365N
199.696	0.011	-1	REC_END	n/a	n/a	2	4	BABY	CAMEL	CAMEL	BABY	-1	[0, 0, 0]	-999	PAL1	4	R1365N
199.707	0.272	-1	ORIENT_START	n/a	n/a	-999	-999	n/a	n/a	n/a	n/a	-1	[0, 0, 0]	-999	PAL1	4	R1365N
199.979	0.671	-1	ORIENT_END	n/a	n/a	-999	-999	n/a	n/a	n/a	n/a	-1	[0, 0, 0]	-999	PAL1	4	R1365N
200.65	0.0	-1	REC_START	n/a	n/a	3	5	RING	COTTON	BEAM	RING	-1	[0, 0, 0]	-999	PAL1	4	R1365N
200.65	1.434	-1	PROBE_START	n/a	n/a	3	5	RING	COTTON	BEAM	RING	-1	[0, 0, 0]	-999	PAL1	4	R1365N
202.084	2.596	-1	REC_EVENT	1434	n/a	3	5	RING	COTTON	BEAM	RING	-1	[0, 0, 0]	-999	PAL1	4	R1365N
204.68	0.999	-1	PROBE_END	n/a	n/a	3	5	RING	n/a	BEAM	RING	-1	[0, 0, 0]	-999	PAL1	4	R1365N
205.679	0.013	-1	REC_END	n/a	n/a	3	5	RING	n/a	BEAM	RING	-1	[0, 0, 0]	-999	PAL1	4	R1365N
205.692	0.271	-1	ORIENT_START	n/a	n/a	-999	-999	n/a	n/a	n/a	n/a	-1	[0, 0, 0]	-999	PAL1	4	R1365N
205.963	0.719	-1	ORIENT_END	n/a	n/a	-999	-999	n/a	n/a	n/a	n/a	-1	[0, 0, 0]	-999	PAL1	4	R1365N
206.682	0.001	-1	REC_START	n/a	n/a	4	6	WAGON	IMAGE	IMAGE	WAGON	-1	[0, 0, 0]	-999	PAL1	4	R1365N
206.683	1.825	-1	PROBE_START	n/a	n/a	4	6	WAGON	IMAGE	IMAGE	WAGON	-1	[0, 0, 0]	-999	PAL1	4	R1365N
208.508	2.19	-1	REC_EVENT	1825	n/a	4	6	WAGON	CHEST	IMAGE	WAGON	-1	[0, 0, 0]	-999	PAL1	4	R1365N
210.698	1.0	-1	PROBE_END	n/a	n/a	4	6	WAGON	IMAGE	IMAGE	WAGON	-1	[0, 0, 0]	-999	PAL1	4	R1365N
211.698	0.011	-1	REC_END	n/a	n/a	4	6	WAGON	IMAGE	IMAGE	WAGON	-1	[0, 0, 0]	-999	PAL1	4	R1365N
211.709	0.0	-1	PRACTICE_POST_INSTRUCT_START	n/a	n/a	-999	-999	n/a	n/a	n/a	n/a	-1	[0, 0, 0]	-999	PAL1	4	R1365N
211.709	253.931	-1	RETRIEVAL_END	n/a	n/a	-999	-999	n/a	n/a	n/a	n/a	-1	[0, 0, 0]	-999	PAL1	4	R1365N
465.64	2.367	1473	INSTRUCT_START	n/a	n/a	-999	-999	n/a	n/a	n/a	n/a	-1	[0, 0, 0]	-999	PAL1	4	R1365N
468.007	2.017	3840	INSTRUCT_END	n/a	n/a	-999	-999	n/a	n/a	n/a	n/a	-1	[0, 0, 0]	-999	PAL1	4	R1365N
470.024	6.989	5857	MIC TEST_START	n/a	n/a	-999	-999	n/a	n/a	n/a	n/a	-1	[0, 0, 0]	-999	PAL1	4	R1365N
477.013	0.012	12846	MIC TEST_END	n/a	n/a	-999	-999	n/a	n/a	n/a	n/a	-1	[0, 0, 0]	-999	PAL1	4	R1365N
477.025	0.0	12858	TRIAL_START	n/a	n/a	-999	-999	n/a	n/a	n/a	n/a	-1	[0, 0, 0]	-999	PAL1	4	R1365N
477.025	0.001	12858	TRIAL	n/a	n/a	-999	-999	n/a	n/a	n/a	n/a	-1	[0, 0, 0]	-999	PAL1	4	R1365N
477.026	1.099	12859	WAITING_START	n/a	n/a	-999	-999	n/a	n/a	n/a	n/a	-1	[0, 0, 0]	-999	PAL1	4	R1365N
478.125	0.0	13958	WAITING_END	n/a	n/a	-999	-999	n/a	n/a	n/a	n/a	-1	[0, 0, 0]	-999	PAL1	4	R1365N
478.125	10.431	13958	COUNTDOWN_START	n/a	n/a	-999	-999	n/a	n/a	n/a	n/a	-1	[0, 0, 0]	-999	PAL1	4	R1365N
488.556	0.001	24389	COUNTDOWN_END	n/a	n/a	-999	-999	n/a	n/a	n/a	n/a	-1	[0, 0, 0]	-999	PAL1	4	R1365N
488.557	0.653	24390	ORIENT_START	n/a	n/a	-999	-999	n/a	n/a	n/a	n/a	-1	[0, 0, 0]	-999	PAL1	4	R1365N
489.21	0.0	25043	ENCODING_START	n/a	n/a	-999	-999	n/a	n/a	n/a	n/a	-1	[0, 0, 0]	-999	PAL1	4	R1365N
489.21	1.054	25043	ORIENT_END	n/a	n/a	-999	-999	n/a	n/a	n/a	n/a	-1	[0, 0, 0]	-999	PAL1	4	R1365N
490.264	4.03	26097	STUDY_PAIR	n/a	n/a	1	-999	n/a	TONGUE	FLOOD	TONGUE	-1	[0, 0, 0]	-999	PAL1	4	R1365N
494.294	0.744	30127	STUDY_PAIR_OFF	n/a	n/a	1	-999	n/a	TONGUE	FLOOD	TONGUE	-1	[0, 0, 0]	-999	PAL1	4	R1365N
495.038	4.024	30871	STUDY_PAIR	n/a	n/a	2	-999	n/a	CAMEL	CAMEL	BABY	-1	[0, 0, 0]	-999	PAL1	4	R1365N
499.062	0.714	34894	STUDY_PAIR_OFF	n/a	n/a	2	-999	n/a	CAMEL	CAMEL	BABY	-1	[0, 0, 0]	-999	PAL1	4	R1365N
499.776	4.036	35608	STUDY_PAIR	n/a	n/a	3	-999	n/a	n/a	BEAM	RING	-1	[0, 0, 0]	-999	PAL1	4	R1365N
503.812	0.651	39644	STUDY_PAIR_OFF	n/a	n/a	3	-999	n/a	n/a	BEAM	RING	-1	[0, 0, 0]	-999	PAL1	4	R1365N
504.463	4.033	40295	STUDY_PAIR	n/a	n/a	4	-999	n/a	IMAGE	IMAGE	WAGON	-1	[0, 0, 0]	-999	PAL1	4	R1365N
508.496	0.618	44328	STUDY_PAIR_OFF	n/a	n/a	4	-999	n/a	IMAGE	IMAGE	WAGON	-1	[0, 0, 0]	-999	PAL1	4	R1365N
509.114	4.033	44946	STUDY_PAIR	n/a	n/a	5	-999	n/a	COTTON	WATCH	COTTON	-1	[0, 0, 0]	-999	PAL1	4	R1365N
513.147	0.656	48979	STUDY_PAIR_OFF	n/a	n/a	5	-999	n/a	COTTON	WATCH	COTTON	-1	[0, 0, 0]	-999	PAL1	4	R1365N
513.803	4.028	49635	STUDY_PAIR	n/a	n/a	6	-999	n/a	CHEST	RHINO	CHEST	-1	[0, 0, 0]	-999	PAL1	4	R1365N
517.831	0.001	53663	STUDY_PAIR_OFF	n/a	n/a	6	-999	n/a	CHEST	RHINO	CHEST	-1	[0, 0, 0]	-999	PAL1	4	R1365N
517.832	0.0	53664	MATH_START	n/a	n/a	-999	-999	n/a	n/a	n/a	n/a	-1	[0, 0, 0]	-999	PAL1	4	R1365N
517.832	0.0	53664	ENCODING_END	n/a	n/a	-999	-999	n/a	n/a	n/a	n/a	-1	[0, 0, 0]	-999	PAL1	4	R1365N
517.832	0.016	53664	START	n/a	n/a	-999	-999	n/a	n/a	n/a	n/a	1	[-999, -999, -999]	-999	PAL1	4	R1365N
517.848	7.518	53680	PROB	7480	n/a	-999	-999	n/a	n/a	n/a	n/a	1	[8, 2, 5]	15	PAL1	4	R1365N
525.366	8.685	61198	PROB	8650	n/a	-999	-999	n/a	n/a	n/a	n/a	1	[7, 8, 9]	17	PAL1	4	R1365N
534.051	4.933	69882	PROB	4933	n/a	-999	-999	n/a	n/a	n/a	n/a	1	[1, 8, 7]	16	PAL1	4	R1365N
538.984	0.017	74815	STOP	n/a	n/a	-999	-999	n/a	n/a	n/a	n/a	1	[-999, -999, -999]	-999	PAL1	4	R1365N
539.001	0.609	74832	MATH_END	n/a	n/a	-999	-999	n/a	n/a	n/a	n/a	-1	[0, 0, 0]	-999	PAL1	4	R1365N
539.61	0.002	75441	RETRIEVAL_START	n/a	n/a	-999	-999	n/a	n/a	n/a	n/a	-1	[0, 0, 0]	-999	PAL1	4	R1365N
539.612	0.273	75443	ORIENT_START	n/a	n/a	-999	-999	n/a	n/a	n/a	n/a	-1	[0, 0, 0]	-999	PAL1	4	R1365N
539.885	0.629	75716	ORIENT_END	n/a	n/a	-999	-999	n/a	n/a	n/a	n/a	-1	[0, 0, 0]	-999	PAL1	4	R1365N
540.514	0.001	76345	REC_START	n/a	n/a	3	1	RING	n/a	BEAM	RING	-1	[0, 0, 0]	-999	PAL1	4	R1365N
540.515	4.037	76346	PROBE_START	n/a	n/a	3	1	RING	n/a	BEAM	RING	-1	[0, 0, 0]	-999	PAL1	4	R1365N
544.552	1.0	80383	PROBE_END	n/a	n/a	3	1	RING	n/a	BEAM	RING	-1	[0, 0, 0]	-999	PAL1	4	R1365N
545.552	0.013	81383	REC_END	n/a	n/a	3	1	RING	n/a	BEAM	RING	-1	[0, 0, 0]	-999	PAL1	4	R1365N
545.565	0.271	81396	ORIENT_START	n/a	n/a	-999	-999	n/a	n/a	n/a	n/a	-1	[0, 0, 0]	-999	PAL1	4	R1365N
545.836	0.643	81667	ORIENT_END	n/a	n/a	-999	-999	n/a	n/a	n/a	n/a	-1	[0, 0, 0]	-999	PAL1	4	R1365N
546.479	0.0	82310	REC_START	n/a	n/a	4	2	WAGON	IMAGE	IMAGE	WAGON	-1	[0, 0, 0]	-999	PAL1	4	R1365N
546.479	1.947	82310	PROBE_START	n/a	n/a	4	2	WAGON	IMAGE	IMAGE	WAGON	-1	[0, 0, 0]	-999	PAL1	4	R1365N
548.426	2.077	84257	REC_EVENT	1947	n/a	4	2	WAGON	IMAGE	IMAGE	WAGON	-1	[0, 0, 0]	-999	PAL1	4	R1365N
550.503	1.001	86334	PROBE_END	n/a	n/a	4	2	WAGON	n/a	IMAGE	WAGON	-1	[0, 0, 0]	-999	PAL1	4	R1365N
551.504	0.012	87335	REC_END	n/a	n/a	4	2	WAGON	n/a	IMAGE	WAGON	-1	[0, 0, 0]	-999	PAL1	4	R1365N
551.516	0.272	87347	ORIENT_START	n/a	n/a	-999	-999	n/a	n/a	n/a	n/a	-1	[0, 0, 0]	-999	PAL1	4	R1365N
551.788	0.751	87619	ORIENT_END	n/a	n/a	-999	-999	n/a	n/a	n/a	n/a	-1	[0, 0, 0]	-999	PAL1	4	R1365N
552.539	0.0	88370	REC_START	n/a	n/a	1	3	FLOOD	TONGUE	FLOOD	TONGUE	-1	[0, 0, 0]	-999	PAL1	4	R1365N
552.539	2.009	88370	PROBE_START	n/a	n/a	1	3	FLOOD	TONGUE	FLOOD	TONGUE	-1	[0, 0, 0]	-999	PAL1	4	R1365N
554.548	2.023	90379	REC_EVENT	2009	n/a	1	3	FLOOD	TONGUE	FLOOD	TONGUE	-1	[0, 0, 0]	-999	PAL1	4	R1365N
556.571	1.0	92402	PROBE_END	n/a	n/a	1	3	FLOOD	n/a	FLOOD	TONGUE	-1	[0, 0, 0]	-999	PAL1	4	R1365N
557.571	0.008	93402	REC_END	n/a	n/a	1	3	FLOOD	n/a	FLOOD	TONGUE	-1	[0, 0, 0]	-999	PAL1	4	R1365N
557.579	0.276	93410	ORIENT_START	n/a	n/a	-999	-999	n/a	n/a	n/a	n/a	-1	[0, 0, 0]	-999	PAL1	4	R1365N
557.855	0.573	93686	ORIENT_END	n/a	n/a	-999	-999	n/a	n/a	n/a	n/a	-1	[0, 0, 0]	-999	PAL1	4	R1365N
558.428	0.0	94259	PROBE_START	n/a	n/a	2	4	BABY	CAMEL	CAMEL	BABY	-1	[0, 0, 0]	-999	PAL1	4	R1365N
558.428	1.682	94259	REC_START	n/a	n/a	2	4	BABY	CAMEL	CAMEL	BABY	-1	[0, 0, 0]	-999	PAL1	4	R1365N
560.11	2.345	95941	REC_EVENT	1682	n/a	2	4	BABY	CAMEL	CAMEL	BABY	-1	[0, 0, 0]	-999	PAL1	4	R1365N
562.455	1.0	98286	PROBE_END	n/a	n/a	2	4	BABY	n/a	CAMEL	BABY	-1	[0, 0, 0]	-999	PAL1	4	R1365N
563.455	0.011	99286	REC_END	n/a	n/a	2	4	BABY	n/a	CAMEL	BABY	-1	[0, 0, 0]	-999	PAL1	4	R1365N
563.466	0.274	99297	ORIENT_START	n/a	n/a	-999	-999	n/a	n/a	n/a	n/a	-1	[0, 0, 0]	-999	PAL1	4	R1365N
563.74	0.551	99571	ORIENT_END	n/a	n/a	-999	-999	n/a	n/a	n/a	n/a	-1	[0, 0, 0]	-999	PAL1	4	R1365N
564.291	0.0	100122	REC_START	n/a	n/a	5	5	WATCH	COTTON	WATCH	COTTON	-1	[0, 0, 0]	-999	PAL1	4	R1365N
564.291	1.434	100122	PROBE_START	n/a	n/a	5	5	WATCH	COTTON	WATCH	COTTON	-1	[0, 0, 0]	-999	PAL1	4	R1365N
565.725	2.598	101556	REC_EVENT	1434	n/a	5	5	WATCH	COTTON	WATCH	COTTON	-1	[0, 0, 0]	-999	PAL1	4	R1365N
568.323	1.0	104154	PROBE_END	n/a	n/a	5	5	WATCH	n/a	WATCH	COTTON	-1	[0, 0, 0]	-999	PAL1	4	R1365N
569.323	0.013	105154	REC_END	n/a	n/a	5	5	WATCH	n/a	WATCH	COTTON	-1	[0, 0, 0]	-999	PAL1	4	R1365N
569.336	0.271	105167	ORIENT_START	n/a	n/a	-999	-999	n/a	n/a	n/a	n/a	-1	[0, 0, 0]	-999	PAL1	4	R1365N
569.607	0.65	105438	ORIENT_END	n/a	n/a	-999	-999	n/a	n/a	n/a	n/a	-1	[0, 0, 0]	-999	PAL1	4	R1365N
570.257	0.0	106087	REC_START	n/a	n/a	6	6	RHINO	CHEST	RHINO	CHEST	-1	[0, 0, 0]	-999	PAL1	4	R1365N
570.257	1.825	106087	PROBE_START	n/a	n/a	6	6	RHINO	CHEST	RHINO	CHEST	-1	[0, 0, 0]	-999	PAL1	4	R1365N
572.082	2.209	107912	REC_EVENT	1825	n/a	6	6	RHINO	CHEST	RHINO	CHEST	-1	[0, 0, 0]	-999	PAL1	4	R1365N
574.291	1.0	110121	PROBE_END	n/a	n/a	6	6	RHINO	n/a	RHINO	CHEST	-1	[0, 0, 0]	-999	PAL1	4	R1365N
575.291	0.013	111121	REC_END	n/a	n/a	6	6	RHINO	n/a	RHINO	CHEST	-1	[0, 0, 0]	-999	PAL1	4	R1365N
575.304	0.0	111134	RETRIEVAL_END	n/a	n/a	-999	-999	n/a	n/a	n/a	n/a	-1	[0, 0, 0]	-999	PAL1	4	R1365N
575.304	4.389	111134	PRACTICE_POST_INSTRUCT_START	n/a	n/a	-999	-999	n/a	n/a	n/a	n/a	-1	[0, 0, 0]	-999	PAL1	4	R1365N
579.693	0.0	115523	PRACTICE_POST_INSTRUCT_END	n/a	n/a	-999	-999	n/a	n/a	n/a	n/a	-1	[0, 0, 0]	-999	PAL1	4	R1365N
579.693	0.024	115523	TRIAL_END	n/a	n/a	-999	-999	n/a	n/a	n/a	n/a	-1	[0, 0, 0]	-999	PAL1	4	R1365N
579.717	0.0	115547	TRIAL_START	n/a	n/a	-999	-999	n/a	n/a	n/a	n/a	-1	[0, 0, 0]	-999	PAL1	4	R1365N
579.717	0.0	115547	TRIAL	n/a	n/a	-999	-999	n/a	n/a	n/a	n/a	1	[0, 0, 0]	-999	PAL1	4	R1365N
579.717	1.725	115547	WAITING_START	n/a	n/a	-999	-999	n/a	n/a	n/a	n/a	1	[0, 0, 0]	-999	PAL1	4	R1365N
581.442	0.0	117272	COUNTDOWN_START	n/a	n/a	-999	-999	n/a	n/a	n/a	n/a	1	[0, 0, 0]	-999	PAL1	4	R1365N
581.442	10.429	117272	WAITING_END	n/a	n/a	-999	-999	n/a	n/a	n/a	n/a	1	[0, 0, 0]	-999	PAL1	4	R1365N
591.871	0.001	127701	COUNTDOWN_END	n/a	n/a	-999	-999	n/a	n/a	n/a	n/a	1	[0, 0, 0]	-999	PAL1	4	R1365N
591.872	0.605	127702	ORIENT_START	n/a	n/a	-999	-999	n/a	n/a	n/a	n/a	1	[0, 0, 0]	-999	PAL1	4	R1365N
592.477	0.001	128307	ORIENT_END	n/a	n/a	-999	-999	n/a	n/a	n/a	n/a	1	[0, 0, 0]	-999	PAL1	4	R1365N
592.478	1.247	128308	ENCODING_START	n/a	n/a	-999	-999	n/a	n/a	n/a	n/a	1	[0, 0, 0]	-999	PAL1	4	R1365N
593.725	4.037	129555	STUDY_PAIR	n/a	wordpools/wordpool_EN.txt	1	-999	n/a	BED	BED	CAR	1	[0, 0, 0]	-999	PAL1	4	R1365N
597.762	0.596	133592	STUDY_PAIR_OFF	n/a	n/a	1	-999	n/a	BED	BED	CAR	1	[0, 0, 0]	-999	PAL1	4	R1365N
598.358	4.037	134188	STUDY_PAIR	n/a	wordpools/wordpool_EN.txt	2	-999	n/a	DIME	DIME	PIE	1	[0, 0, 0]	-999	PAL1	4	R1365N
602.395	0.558	138225	STUDY_PAIR_OFF	n/a	n/a	2	-999	n/a	DIME	DIME	PIE	1	[0, 0, 0]	-999	PAL1	4	R1365N
602.953	4.026	138783	STUDY_PAIR	n/a	wordpools/wordpool_EN.txt	3	-999	n/a	n/a	WAND	CLOCK	1	[0, 0, 0]	-999	PAL1	4	R1365N
606.979	0.642	142808	STUDY_PAIR_OFF	n/a	n/a	3	-999	n/a	n/a	WAND	CLOCK	1	[0, 0, 0]	-999	PAL1	4	R1365N
607.621	4.026	143450	STUDY_PAIR	n/a	wordpools/wordpool_EN.txt	4	-999	n/a	n/a	WING	PARK	1	[0, 0, 0]	-999	PAL1	4	R1365N
611.647	0.679	147476	STUDY_PAIR_OFF	n/a	n/a	4	-999	n/a	n/a	WING	PARK	1	[0, 0, 0]	-999	PAL1	4	R1365N
612.326	4.038	148155	STUDY_PAIR	n/a	wordpools/wordpool_EN.txt	5	-999	n/a	n/a	SKUNK	STRAW	1	[0, 0, 0]	-999	PAL1	4	R1365N
616.364	0.512	152193	STUDY_PAIR_OFF	n/a	n/a	5	-999	n/a	n/a	SKUNK	STRAW	1	[0, 0, 0]	-999	PAL1	4	R1365N
616.876	4.039	152705	STUDY_PAIR	n/a	wordpools/wordpool_EN.txt	6	-999	n/a	GOLD	SUN	GOLD	1	[0, 0, 0]	-999	PAL1	4	R1365N
620.915	0.001	156744	STUDY_PAIR_OFF	n/a	n/a	6	-999	n/a	GOLD	SUN	GOLD	1	[0, 0, 0]	-999	PAL1	4	R1365N
620.916	0.0	156745	ENCODING_END	n/a	n/a	-999	-999	n/a	n/a	n/a	n/a	1	[0, 0, 0]	-999	PAL1	4	R1365N
620.916	0.0	156745	MATH_START	n/a	n/a	-999	-999	n/a	n/a	n/a	n/a	1	[0, 0, 0]	-999	PAL1	4	R1365N
620.916	0.015	156745	START	n/a	n/a	-999	-999	n/a	n/a	n/a	n/a	2	[-999, -999, -999]	-999	PAL1	4	R1365N
620.931	9.352	156760	PROB	9318	n/a	-999	-999	n/a	n/a	n/a	n/a	2	[6, 9, 6]	21	PAL1	4	R1365N
630.283	5.768	166112	PROB	5742	n/a	-999	-999	n/a	n/a	n/a	n/a	2	[4, 8, 1]	13	PAL1	4	R1365N
636.051	7.093	171880	PROB	7093	n/a	-999	-999	n/a	n/a	n/a	n/a	2	[5, 1, 6]	12	PAL1	4	R1365N
643.144	0.008	178973	STOP	n/a	n/a	-999	-999	n/a	n/a	n/a	n/a	2	[-999, -999, -999]	-999	PAL1	4	R1365N
643.152	0.586	178981	MATH_END	n/a	n/a	-999	-999	n/a	n/a	n/a	n/a	1	[0, 0, 0]	-999	PAL1	4	R1365N
643.738	0.001	179566	RETRIEVAL_START	n/a	n/a	-999	-999	n/a	n/a	n/a	n/a	1	[0, 0, 0]	-999	PAL1	4	R1365N
643.739	0.28	179567	ORIENT_START	n/a	n/a	-999	-999	n/a	n/a	n/a	n/a	1	[0, 0, 0]	-999	PAL1	4	R1365N
644.019	0.74	179847	ORIENT_END	n/a	n/a	-999	-999	n/a	n/a	n/a	n/a	1	[0, 0, 0]	-999	PAL1	4	R1365N
644.759	0.0	180587	REC_START	n/a	n/a	3	1	WAND	n/a	WAND	CLOCK	1	[0, 0, 0]	-999	PAL1	4	R1365N
644.759	4.028	180587	PROBE_START	n/a	wordpools/wordpool_EN.txt	3	1	WAND	n/a	WAND	CLOCK	1	[0, 0, 0]	-999	PAL1	4	R1365N
648.787	1.0	184615	PROBE_END	n/a	n/a	3	1	WAND	n/a	WAND	CLOCK	1	[0, 0, 0]	-999	PAL1	4	R1365N
649.787	0.008	185615	REC_END	n/a	n/a	3	1	WAND	n/a	WAND	CLOCK	1	[0, 0, 0]	-999	PAL1	4	R1365N
649.795	0.275	185623	ORIENT_START	n/a	n/a	-999	-999	n/a	n/a	n/a	n/a	1	[0, 0, 0]	-999	PAL1	4	R1365N
650.07	0.621	185898	ORIENT_END	n/a	n/a	-999	-999	n/a	n/a	n/a	n/a	1	[0, 0, 0]	-999	PAL1	4	R1365N
650.691	0.0	186519	PROBE_START	n/a	wordpools/wordpool_EN.txt	6	2	SUN	GOLD	SUN	GOLD	1	[0, 0, 0]	-999	PAL1	4	R1365N
650.691	0.116	186519	REC_START	n/a	n/a	6	2	SUN	GOLD	SUN	GOLD	1	[0, 0, 0]	-999	PAL1	4	R1365N
650.807	1.77	186635	REC_EVENT	6048	n/a	3	1	WAND	<>	WAND	CLOCK	1	[0, 0, 0]	-999	PAL1	4	R1365N
652.577	2.145	188405	REC_EVENT	1886	n/a	6	2	SUN	GOLD	SUN	GOLD	1	[0, 0, 0]	-999	PAL1	4	R1365N
654.722	1.0	190550	PROBE_END	n/a	n/a	6	2	SUN	n/a	SUN	GOLD	1	[0, 0, 0]	-999	PAL1	4	R1365N
655.722	0.013	191550	REC_END	n/a	n/a	6	2	SUN	n/a	SUN	GOLD	1	[0, 0, 0]	-999	PAL1	4	R1365N
655.735	0.269	191563	ORIENT_START	n/a	n/a	-999	-999	n/a	n/a	n/a	n/a	1	[0, 0, 0]	-999	PAL1	4	R1365N
656.004	0.58	191832	ORIENT_END	n/a	n/a	-999	-999	n/a	n/a	n/a	n/a	1	[0, 0, 0]	-999	PAL1	4	R1365N
656.584	0.001	192412	REC_START	n/a	n/a	5	3	STRAW	n/a	SKUNK	STRAW	1	[0, 0, 0]	-999	PAL1	4	R1365N
656.585	4.036	192413	PROBE_START	n/a	wordpools/wordpool_EN.txt	5	3	STRAW	n/a	SKUNK	STRAW	1	[0, 0, 0]	-999	PAL1	4	R1365N
660.621	1.0	196449	PROBE_END	n/a	n/a	5	3	STRAW	n/a	SKUNK	STRAW	1	[0, 0, 0]	-999	PAL1	4	R1365N
661.621	0.012	197449	REC_END	n/a	n/a	5	3	STRAW	n/a	SKUNK	STRAW	1	[0, 0, 0]	-999	PAL1	4	R1365N
661.633	0.272	197461	ORIENT_START	n/a	n/a	-999	-999	n/a	n/a	n/a	n/a	1	[0, 0, 0]	-999	PAL1	4	R1365N
661.905	0.566	197733	ORIENT_END	n/a	n/a	-999	-999	n/a	n/a	n/a	n/a	1	[0, 0, 0]	-999	PAL1	4	R1365N
662.471	0.002	198299	REC_EVENT	5886	n/a	5	3	STRAW	<>	SKUNK	STRAW	1	[0, 0, 0]	-999	PAL1	4	R1365N
662.473	0.0	198301	REC_START	n/a	n/a	2	4	PIE	DIME	DIME	PIE	1	[0, 0, 0]	-999	PAL1	4	R1365N
662.473	2.273	198301	PROBE_START	n/a	wordpools/wordpool_EN.txt	2	4	PIE	DIME	DIME	PIE	1	[0, 0, 0]	-999	PAL1	4	R1365N
664.746	1.76	200574	REC_EVENT	2273	n/a	2	4	PIE	DIME	DIME	PIE	1	[0, 0, 0]	-999	PAL1	4	R1365N
666.506	1.0	202334	PROBE_END	n/a	n/a	2	4	PIE	n/a	DIME	PIE	1	[0, 0, 0]	-999	PAL1	4	R1365N
667.506	0.012	203334	REC_END	n/a	n/a	2	4	PIE	n/a	DIME	PIE	1	[0, 0, 0]	-999	PAL1	4	R1365N
667.518	0.272	203346	ORIENT_START	n/a	n/a	-999	-999	n/a	n/a	n/a	n/a	1	[0, 0, 0]	-999	PAL1	4	R1365N
667.79	0.635	203618	ORIENT_END	n/a	n/a	-999	-999	n/a	n/a	n/a	n/a	1	[0, 0, 0]	-999	PAL1	4	R1365N
668.425	0.001	204253	REC_START	n/a	n/a	1	5	CAR	BED	BED	CAR	1	[0, 0, 0]	-999	PAL1	4	R1365N
668.426	2.129	204254	PROBE_START	n/a	wordpools/wordpool_EN.txt	1	5	CAR	BED	BED	CAR	1	[0, 0, 0]	-999	PAL1	4	R1365N
670.555	1.902	206383	REC_EVENT	2129	n/a	1	5	CAR	BED	BED	CAR	1	[0, 0, 0]	-999	PAL1	4	R1365N
672.457	1.0	208285	PROBE_END	n/a	n/a	1	5	CAR	n/a	BED	CAR	1	[0, 0, 0]	-999	PAL1	4	R1365N
673.457	0.012	209285	REC_END	n/a	n/a	1	5	CAR	n/a	BED	CAR	1	[0, 0, 0]	-999	PAL1	4	R1365N
673.469	0.272	209297	ORIENT_START	n/a	n/a	-999	-999	n/a	n/a	n/a	n/a	1	[0, 0, 0]	-999	PAL1	4	R1365N
673.741	0.52	209569	ORIENT_END	n/a	n/a	-999	-999	n/a	n/a	n/a	n/a	1	[0, 0, 0]	-999	PAL1	4	R1365N
674.261	0.001	210089	REC_START	n/a	n/a	4	6	WING	n/a	WING	PARK	1	[0, 0, 0]	-999	PAL1	4	R1365N
674.262	4.029	210090	PROBE_START	n/a	wordpools/wordpool_EN.txt	4	6	WING	n/a	WING	PARK	1	[0, 0, 0]	-999	PAL1	4	R1365N
678.291	1.0	214119	PROBE_END	n/a	n/a	4	6	WING	n/a	WING	PARK	1	[0, 0, 0]	-999	PAL1	4	R1365N
679.291	0.013	215119	REC_END	n/a	n/a	4	6	WING	n/a	WING	PARK	1	[0, 0, 0]	-999	PAL1	4	R1365N
679.304	0.0	215132	RETRIEVAL_END	n/a	n/a	-999	-999	n/a	n/a	n/a	n/a	1	[0, 0, 0]	-999	PAL1	4	R1365N
679.304	0.021	215132	TRIAL_END	n/a	n/a	-999	-999	n/a	n/a	n/a	n/a	1	[0, 0, 0]	-999	PAL1	4	R1365N
679.325	0.0	215153	WAITING_START	n/a	n/a	-999	-999	n/a	n/a	n/a	n/a	2	[0, 0, 0]	-999	PAL1	4	R1365N
679.325	0.0	215153	TRIAL	n/a	n/a	-999	-999	n/a	n/a	n/a	n/a	2	[0, 0, 0]	-999	PAL1	4	R1365N
679.325	0.759	215153	TRIAL_START	n/a	n/a	-999	-999	n/a	n/a	n/a	n/a	1	[0, 0, 0]	-999	PAL1	4	R1365N
680.084	2.541	215912	REC_EVENT	5822	n/a	4	6	WING	<>	WING	PARK	1	[0, 0, 0]	-999	PAL1	4	R1365N
682.625	0.0	218452	WAITING_END	n/a	n/a	-999	-999	n/a	n/a	n/a	n/a	2	[0, 0, 0]	-999	PAL1	4	R1365N
682.625	10.429	218452	COUNTDOWN_START	n/a	n/a	-999	-999	n/a	n/a	n/a	n/a	2	[0, 0, 0]	-999	PAL1	4	R1365N
693.054	0.001	228881	COUNTDOWN_END	n/a	n/a	-999	-999	n/a	n/a	n/a	n/a	2	[0, 0, 0]	-999	PAL1	4	R1365N
693.055	0.656	228882	ORIENT_START	n/a	n/a	-999	-999	n/a	n/a	n/a	n/a	2	[0, 0, 0]	-999	PAL1	4	R1365N
693.711	0.001	229538	ORIENT_END	n/a	n/a	-999	-999	n/a	n/a	n/a	n/a	2	[0, 0, 0]	-999	PAL1	4	R1365N
693.712	1.182	229539	ENCODING_START	n/a	n/a	-999	-999	n/a	n/a	n/a	n/a	2	[0, 0, 0]	-999	PAL1	4	R1365N
694.894	4.034	230721	STUDY_PAIR	n/a	wordpools/wordpool_EN.txt	1	-999	n/a	ROOM	SKY	ROOM	2	[0, 0, 0]	-999	PAL1	4	R1365N
698.928	0.626	234755	STUDY_PAIR_OFF	n/a	n/a	1	-999	n/a	ROOM	SKY	ROOM	2	[0, 0, 0]	-999	PAL1	4	R1365N
699.554	4.025	235381	STUDY_PAIR	n/a	wordpools/wordpool_EN.txt	2	-999	n/a	PLACE	CLAY	PASTE	2	[0, 0, 0]	-999	PAL1	4	R1365N
703.579	0.53	239406	STUDY_PAIR_OFF	n/a	n/a	2	-999	n/a	PLACE	CLAY	PASTE	2	[0, 0, 0]	-999	PAL1	4	R1365N
704.109	4.037	239936	STUDY_PAIR	n/a	wordpools/wordpool_EN.txt	3	-999	n/a	BRICK	BEAN	STONE	2	[0, 0, 0]	-999	PAL1	4	R1365N
708.146	0.635	243973	STUDY_PAIR_OFF	n/a	n/a	3	-999	n/a	BRICK	BEAN	STONE	2	[0, 0, 0]	-999	PAL1	4	R1365N
708.781	4.032	244608	STUDY_PAIR	n/a	wordpools/wordpool_EN.txt	4	-999	n/a	HOOK	HOOK	BRICK	2	[0, 0, 0]	-999	PAL1	4	R1365N
712.813	0.549	248640	STUDY_PAIR_OFF	n/a	n/a	4	-999	n/a	HOOK	HOOK	BRICK	2	[0, 0, 0]	-999	PAL1	4	R1365N
713.362	4.036	249189	STUDY_PAIR	n/a	wordpools/wordpool_EN.txt	5	-999	n/a	FLAME	VAN	FLAME	2	[0, 0, 0]	-999	PAL1	4	R1365N
717.398	0.508	253224	STUDY_PAIR_OFF	n/a	n/a	5	-999	n/a	FLAME	VAN	FLAME	2	[0, 0, 0]	-999	PAL1	4	R1365N
717.906	4.026	253732	STUDY_PAIR	n/a	wordpools/wordpool_EN.txt	6	-999	n/a	WEED	WEED	GLOVE	2	[0, 0, 0]	-999	PAL1	4	R1365N
721.932	0.0	257758	STUDY_PAIR_OFF	n/a	n/a	6	-999	n/a	WEED	WEED	GLOVE	2	[0, 0, 0]	-999	PAL1	4	R1365N
721.932	0.0	257758	ENCODING_END	n/a	n/a	-999	-999	n/a	n/a	n/a	n/a	2	[0, 0, 0]	-999	PAL1	4	R1365N
721.932	0.001	257758	MATH_START	n/a	n/a	-999	-999	n/a	n/a	n/a	n/a	2	[0, 0, 0]	-999	PAL1	4	R1365N
721.933	0.015	257759	START	n/a	n/a	-999	-999	n/a	n/a	n/a	n/a	3	[-999, -999, -999]	-999	PAL1	4	R1365N
721.948	10.719	257774	PROB	10685	n/a	-999	-999	n/a	n/a	n/a	n/a	3	[9, 9, 7]	23	PAL1	4	R1365N
732.667	6.167	268493	PROB	6141	n/a	-999	-999	n/a	n/a	n/a	n/a	3	[5, 8, 5]	18	PAL1	4	R1365N
738.834	8.174	274660	PROB	8174	n/a	-999	-999	n/a	n/a	n/a	n/a	3	[8, 5, 9]	19	PAL1	4	R1365N
747.008	0.011	282834	STOP	n/a	n/a	-999	-999	n/a	n/a	n/a	n/a	3	[-999, -999, -999]	-999	PAL1	4	R1365N
747.019	0.653	282845	MATH_END	n/a	n/a	-999	-999	n/a	n/a	n/a	n/a	2	[0, 0, 0]	-999	PAL1	4	R1365N
747.672	0.001	283498	RETRIEVAL_START	n/a	n/a	-999	-999	n/a	n/a	n/a	n/a	2	[0, 0, 0]	-999	PAL1	4	R1365N
747.673	0.28	283499	ORIENT_START	n/a	n/a	-999	-999	n/a	n/a	n/a	n/a	2	[0, 0, 0]	-999	PAL1	4	R1365N
747.953	0.609	283779	ORIENT_END	n/a	n/a	-999	-999	n/a	n/a	n/a	n/a	2	[0, 0, 0]	-999	PAL1	4	R1365N
748.562	0.0	284388	PROBE_START	n/a	wordpools/wordpool_EN.txt	3	1	STONE	BRICK	BEAN	STONE	2	[0, 0, 0]	-999	PAL1	4	R1365N
748.562	3.097	284388	REC_START	n/a	n/a	3	1	STONE	BRICK	BEAN	STONE	2	[0, 0, 0]	-999	PAL1	4	R1365N
751.659	0.928	287485	REC_EVENT	3097	n/a	3	1	STONE	BRICK	BEAN	STONE	2	[0, 0, 0]	-999	PAL1	4	R1365N
752.587	0.999	288413	PROBE_END	n/a	n/a	3	1	STONE	n/a	BEAN	STONE	2	[0, 0, 0]	-999	PAL1	4	R1365N
753.586	0.011	289412	REC_END	n/a	n/a	3	1	STONE	n/a	BEAN	STONE	2	[0, 0, 0]	-999	PAL1	4	R1365N
753.597	0.273	289423	ORIENT_START	n/a	n/a	-999	-999	n/a	n/a	n/a	n/a	2	[0, 0, 0]	-999	PAL1	4	R1365N
753.87	0.518	289696	ORIENT_END	n/a	n/a	-999	-999	n/a	n/a	n/a	n/a	2	[0, 0, 0]	-999	PAL1	4	R1365N
754.388	0.001	290213	REC_START	n/a	n/a	2	2	CLAY	PLACE	CLAY	PASTE	2	[0, 0, 0]	-999	PAL1	4	R1365N
754.389	1.763	290214	PROBE_START	n/a	wordpools/wordpool_EN.txt	2	2	CLAY	PLACE	CLAY	PASTE	2	[0, 0, 0]	-999	PAL1	4	R1365N
756.152	1.302	291977	REC_EVENT	1763	n/a	2	2	CLAY	<>	CLAY	PASTE	2	[0, 0, 0]	-999	PAL1	4	R1365N
757.454	0.243	293279	REC_EVENT	3065	n/a	2	2	CLAY	<>	CLAY	PASTE	2	[0, 0, 0]	-999	PAL1	4	R1365N
757.697	0.724	293522	REC_EVENT	3308	n/a	2	2	CLAY	PLACE	CLAY	PASTE	2	[0, 0, 0]	-999	PAL1	4	R1365N
758.421	1.0	294246	PROBE_END	n/a	n/a	2	2	CLAY	n/a	CLAY	PASTE	2	[0, 0, 0]	-999	PAL1	4	R1365N
759.421	0.011	295246	REC_END	n/a	n/a	2	2	CLAY	n/a	CLAY	PASTE	2	[0, 0, 0]	-999	PAL1	4	R1365N
759.432	0.274	295257	ORIENT_START	n/a	n/a	-999	-999	n/a	n/a	n/a	n/a	2	[0, 0, 0]	-999	PAL1	4	R1365N
759.706	0.512	295531	ORIENT_END	n/a	n/a	-999	-999	n/a	n/a	n/a	n/a	2	[0, 0, 0]	-999	PAL1	4	R1365N
760.218	0.0	296043	REC_START	n/a	n/a	1	3	SKY	ROOM	SKY	ROOM	2	[0, 0, 0]	-999	PAL1	4	R1365N
760.218	1.9	296043	PROBE_START	n/a	wordpools/wordpool_EN.txt	1	3	SKY	ROOM	SKY	ROOM	2	[0, 0, 0]	-999	PAL1	4	R1365N
762.118	2.137	297943	REC_EVENT	1900	n/a	1	3	SKY	ROOM	SKY	ROOM	2	[0, 0, 0]	-999	PAL1	4	R1365N
764.255	1.001	300080	PROBE_END	n/a	n/a	1	3	SKY	n/a	SKY	ROOM	2	[0, 0, 0]	-999	PAL1	4	R1365N
765.256	0.01	301081	REC_END	n/a	n/a	1	3	SKY	n/a	SKY	ROOM	2	[0, 0, 0]	-999	PAL1	4	R1365N
765.266	0.273	301091	ORIENT_START	n/a	n/a	-999	-999	n/a	n/a	n/a	n/a	2	[0, 0, 0]	-999	PAL1	4	R1365N
765.539	0.543	301364	ORIENT_END	n/a	n/a	-999	-999	n/a	n/a	n/a	n/a	2	[0, 0, 0]	-999	PAL1	4	R1365N
766.082	0.0	301907	REC_START	n/a	n/a	6	4	GLOVE	WEED	WEED	GLOVE	2	[0, 0, 0]	-999	PAL1	4	R1365N
766.082	1.906	301907	PROBE_START	n/a	wordpools/wordpool_EN.txt	6	4	GLOVE	WEED	WEED	GLOVE	2	[0, 0, 0]	-999	PAL1	4	R1365N
767.988	2.118	303813	REC_EVENT	1906	n/a	6	4	GLOVE	WEED	WEED	GLOVE	2	[0, 0, 0]	-999	PAL1	4	R1365N
770.106	1.0	305931	PROBE_END	n/a	n/a	6	4	GLOVE	n/a	WEED	GLOVE	2	[0, 0, 0]	-999	PAL1	4	R1365N
771.106	0.012	306931	REC_END	n/a	n/a	6	4	GLOVE	n/a	WEED	GLOVE	2	[0, 0, 0]	-999	PAL1	4	R1365N
771.118	0.272	306943	ORIENT_START	n/a	n/a	-999	-999	n/a	n/a	n/a	n/a	2	[0, 0, 0]	-999	PAL1	4	R1365N
771.39	0.63	307215	ORIENT_END	n/a	n/a	-999	-999	n/a	n/a	n/a	n/a	2	[0, 0, 0]	-999	PAL1	4	R1365N
772.02	0.001	307845	REC_START	n/a	n/a	5	5	VAN	FLAME	VAN	FLAME	2	[0, 0, 0]	-999	PAL1	4	R1365N
772.021	2.029	307846	PROBE_START	n/a	wordpools/wordpool_EN.txt	5	5	VAN	FLAME	VAN	FLAME	2	[0, 0, 0]	-999	PAL1	4	R1365N
774.05	2.007	309875	REC_EVENT	2029	n/a	5	5	VAN	FLAME	VAN	FLAME	2	[0, 0, 0]	-999	PAL1	4	R1365N
776.057	1.0	311882	PROBE_END	n/a	n/a	5	5	VAN	n/a	VAN	FLAME	2	[0, 0, 0]	-999	PAL1	4	R1365N
777.057	0.011	312882	REC_END	n/a	n/a	5	5	VAN	n/a	VAN	FLAME	2	[0, 0, 0]	-999	PAL1	4	R1365N
777.068	0.273	312893	ORIENT_START	n/a	n/a	-999	-999	n/a	n/a	n/a	n/a	2	[0, 0, 0]	-999	PAL1	4	R1365N
777.341	0.557	313166	ORIENT_END	n/a	n/a	-999	-999	n/a	n/a	n/a	n/a	2	[0, 0, 0]	-999	PAL1	4	R1365N
777.898	0.0	313723	REC_START	n/a	n/a	4	6	BRICK	HOOK	HOOK	BRICK	2	[0, 0, 0]	-999	PAL1	4	R1365N
777.898	2.443	313723	PROBE_START	n/a	wordpools/wordpool_EN.txt	4	6	BRICK	HOOK	HOOK	BRICK	2	[0, 0, 0]	-999	PAL1	4	R1365N
780.341	1.584	316166	REC_EVENT	2443	n/a	4	6	BRICK	HOOK	HOOK	BRICK	2	[0, 0, 0]	-999	PAL1	4	R1365N
781.925	1.001	317750	PROBE_END	n/a	n/a	4	6	BRICK	n/a	HOOK	BRICK	2	[0, 0, 0]	-999	PAL1	4	R1365N
782.926	0.011	318751	REC_END	n/a	n/a	4	6	BRICK	n/a	HOOK	BRICK	2	[0, 0, 0]	-999	PAL1	4	R1365N
782.937	0.001	318762	RETRIEVAL_END	n/a	n/a	-999	-999	n/a	n/a	n/a	n/a	2	[0, 0, 0]	-999	PAL1	4	R1365N
782.938	0.021	318763	TRIAL_END	n/a	n/a	-999	-999	n/a	n/a	n/a	n/a	2	[0, 0, 0]	-999	PAL1	4	R1365N
782.959	0.0	318784	TRIAL_START	n/a	n/a	-999	-999	n/a	n/a	n/a	n/a	2	[0, 0, 0]	-999	PAL1	4	R1365N
782.959	0.0	318784	TRIAL	n/a	n/a	-999	-999	n/a	n/a	n/a	n/a	3	[0, 0, 0]	-999	PAL1	4	R1365N
782.959	1.516	318784	WAITING_START	n/a	n/a	-999	-999	n/a	n/a	n/a	n/a	3	[0, 0, 0]	-999	PAL1	4	R1365N
784.475	0.001	320300	WAITING_END	n/a	n/a	-999	-999	n/a	n/a	n/a	n/a	3	[0, 0, 0]	-999	PAL1	4	R1365N
784.476	10.428	320301	COUNTDOWN_START	n/a	n/a	-999	-999	n/a	n/a	n/a	n/a	3	[0, 0, 0]	-999	PAL1	4	R1365N
794.904	0.001	330728	COUNTDOWN_END	n/a	n/a	-999	-999	n/a	n/a	n/a	n/a	3	[0, 0, 0]	-999	PAL1	4	R1365N
794.905	0.639	330729	ORIENT_START	n/a	n/a	-999	-999	n/a	n/a	n/a	n/a	3	[0, 0, 0]	-999	PAL1	4	R1365N
795.544	0.0	331368	ORIENT_END	n/a	n/a	-999	-999	n/a	n/a	n/a	n/a	3	[0, 0, 0]	-999	PAL1	4	R1365N
795.544	1.099	331368	ENCODING_START	n/a	n/a	-999	-999	n/a	n/a	n/a	n/a	3	[0, 0, 0]	-999	PAL1	4	R1365N
796.643	4.035	332467	STUDY_PAIR	n/a	wordpools/wordpool_EN.txt	1	-999	n/a	PIT	PIT	BOOT	3	[0, 0, 0]	-999	PAL1	4	R1365N
800.678	0.649	336502	STUDY_PAIR_OFF	n/a	n/a	1	-999	n/a	PIT	PIT	BOOT	3	[0, 0, 0]	-999	PAL1	4	R1365N
801.327	4.035	337151	STUDY_PAIR	n/a	wordpools/wordpool_EN.txt	2	-999	n/a	n/a	MULE	PEN	3	[0, 0, 0]	-999	PAL1	4	R1365N
805.362	0.544	341186	STUDY_PAIR_OFF	n/a	n/a	2	-999	n/a	n/a	MULE	PEN	3	[0, 0, 0]	-999	PAL1	4	R1365N
805.906	4.04	341730	STUDY_PAIR	n/a	wordpools/wordpool_EN.txt	3	-999	n/a	BOARD	BOARD	BLUSH	3	[0, 0, 0]	-999	PAL1	4	R1365N
809.946	0.592	345770	STUDY_PAIR_OFF	n/a	n/a	3	-999	n/a	BOARD	BOARD	BLUSH	3	[0, 0, 0]	-999	PAL1	4	R1365N
810.538	4.026	346362	STUDY_PAIR	n/a	wordpools/wordpool_EN.txt	4	-999	n/a	TRAY	TRAY	APE	3	[0, 0, 0]	-999	PAL1	4	R1365N
814.564	0.588	350388	STUDY_PAIR_OFF	n/a	n/a	4	-999	n/a	TRAY	TRAY	APE	3	[0, 0, 0]	-999	PAL1	4	R1365N
815.152	4.029	350976	STUDY_PAIR	n/a	wordpools/wordpool_EN.txt	5	-999	n/a	SALT	DUCK	SALT	3	[0, 0, 0]	-999	PAL1	4	R1365N
819.181	0.67	355005	STUDY_PAIR_OFF	n/a	n/a	5	-999	n/a	SALT	DUCK	SALT	3	[0, 0, 0]	-999	PAL1	4	R1365N
819.851	4.031	355675	STUDY_PAIR	n/a	wordpools/wordpool_EN.txt	6	-999	n/a	SPONGE	NEST	SPONGE	3	[0, 0, 0]	-999	PAL1	4	R1365N
823.882	0.001	359706	STUDY_PAIR_OFF	n/a	n/a	6	-999	n/a	SPONGE	NEST	SPONGE	3	[0, 0, 0]	-999	PAL1	4	R1365N
823.883	0.0	359707	ENCODING_END	n/a	n/a	-999	-999	n/a	n/a	n/a	n/a	3	[0, 0, 0]	-999	PAL1	4	R1365N
823.883	0.0	359707	MATH_START	n/a	n/a	-999	-999	n/a	n/a	n/a	n/a	3	[0, 0, 0]	-999	PAL1	4	R1365N
823.883	0.015	359707	START	n/a	n/a	-999	-999	n/a	n/a	n/a	n/a	4	[-999, -999, -999]	-999	PAL1	4	R1365N
823.898	4.785	359722	PROB	4751	n/a	-999	-999	n/a	n/a	n/a	n/a	4	[3, 2, 4]	9	PAL1	4	R1365N
828.683	6.684	364506	PROB	6662	n/a	-999	-999	n/a	n/a	n/a	n/a	4	[2, 5, 6]	13	PAL1	4	R1365N
835.367	11.745	371190	PROB	11745	n/a	-999	-999	n/a	n/a	n/a	n/a	4	[6, 4, 7]	17	PAL1	4	R1365N
847.112	0.007	382935	STOP	n/a	n/a	-999	-999	n/a	n/a	n/a	n/a	4	[-999, -999, -999]	-999	PAL1	4	R1365N
847.119	0.548	382942	MATH_END	n/a	n/a	-999	-999	n/a	n/a	n/a	n/a	3	[0, 0, 0]	-999	PAL1	4	R1365N
847.667	0.001	383490	RETRIEVAL_START	n/a	n/a	-999	-999	n/a	n/a	n/a	n/a	3	[0, 0, 0]	-999	PAL1	4	R1365N
847.668	0.284	383491	ORIENT_START	n/a	n/a	-999	-999	n/a	n/a	n/a	n/a	3	[0, 0, 0]	-999	PAL1	4	R1365N
847.952	0.684	383775	ORIENT_END	n/a	n/a	-999	-999	n/a	n/a	n/a	n/a	3	[0, 0, 0]	-999	PAL1	4	R1365N
848.636	0.001	384459	REC_START	n/a	n/a	3	1	BLUSH	BOARD	BOARD	BLUSH	3	[0, 0, 0]	-999	PAL1	4	R1365N
848.637	2.445	384460	PROBE_START	n/a	wordpools/wordpool_EN.txt	3	1	BLUSH	BOARD	BOARD	BLUSH	3	[0, 0, 0]	-999	PAL1	4	R1365N
851.082	1.571	386905	REC_EVENT	2445	n/a	3	1	BLUSH	BOARD	BOARD	BLUSH	3	[0, 0, 0]	-999	PAL1	4	R1365N
852.653	1.0	388476	PROBE_END	n/a	n/a	3	1	BLUSH	n/a	BOARD	BLUSH	3	[0, 0, 0]	-999	PAL1	4	R1365N
853.653	0.012	389476	REC_END	n/a	n/a	3	1	BLUSH	n/a	BOARD	BLUSH	3	[0, 0, 0]	-999	PAL1	4	R1365N
853.665	0.272	389488	ORIENT_START	n/a	n/a	-999	-999	n/a	n/a	n/a	n/a	3	[0, 0, 0]	-999	PAL1	4	R1365N
853.937	0.746	389760	ORIENT_END	n/a	n/a	-999	-999	n/a	n/a	n/a	n/a	3	[0, 0, 0]	-999	PAL1	4	R1365N
854.683	0.0	390506	REC_START	n/a	n/a	2	2	MULE	n/a	MULE	PEN	3	[0, 0, 0]	-999	PAL1	4	R1365N
854.683	4.022	390506	PROBE_START	n/a	wordpools/wordpool_EN.txt	2	2	MULE	n/a	MULE	PEN	3	[0, 0, 0]	-999	PAL1	4	R1365N
858.705	1.001	394528	PROBE_END	n/a	n/a	2	2	MULE	n/a	MULE	PEN	3	[0, 0, 0]	-999	PAL1	4	R1365N
859.706	0.007	395529	REC_END	n/a	n/a	2	2	MULE	n/a	MULE	PEN	3	[0, 0, 0]	-999	PAL1	4	R1365N
859.713	0.275	395536	ORIENT_START	n/a	n/a	-999	-999	n/a	n/a	n/a	n/a	3	[0, 0, 0]	-999	PAL1	4	R1365N
859.988	0.732	395811	ORIENT_END	n/a	n/a	-999	-999	n/a	n/a	n/a	n/a	3	[0, 0, 0]	-999	PAL1	4	R1365N
860.72	0.017	396543	REC_EVENT	6037	n/a	2	2	MULE	<>	MULE	PEN	3	[0, 0, 0]	-999	PAL1	4	R1365N
860.737	0.0	396560	REC_START	n/a	n/a	5	3	DUCK	SALT	DUCK	SALT	3	[0, 0, 0]	-999	PAL1	4	R1365N
860.737	1.908	396560	PROBE_START	n/a	wordpools/wordpool_EN.txt	5	3	DUCK	SALT	DUCK	SALT	3	[0, 0, 0]	-999	PAL1	4	R1365N
862.645	2.128	398468	REC_EVENT	1908	n/a	5	3	DUCK	SALT	DUCK	SALT	3	[0, 0, 0]	-999	PAL1	4	R1365N
864.773	1.0	400595	PROBE_END	n/a	n/a	5	3	DUCK	n/a	DUCK	SALT	3	[0, 0, 0]	-999	PAL1	4	R1365N
865.773	0.007	401595	REC_END	n/a	n/a	5	3	DUCK	n/a	DUCK	SALT	3	[0, 0, 0]	-999	PAL1	4	R1365N
865.78	0.275	401602	ORIENT_START	n/a	n/a	-999	-999	n/a	n/a	n/a	n/a	3	[0, 0, 0]	-999	PAL1	4	R1365N
866.055	0.531	401877	ORIENT_END	n/a	n/a	-999	-999	n/a	n/a	n/a	n/a	3	[0, 0, 0]	-999	PAL1	4	R1365N
866.586	0.0	402408	REC_START	n/a	n/a	6	4	NEST	SPONGE	NEST	SPONGE	3	[0, 0, 0]	-999	PAL1	4	R1365N
866.586	3.639	402408	PROBE_START	n/a	wordpools/wordpool_EN.txt	6	4	NEST	SPONGE	NEST	SPONGE	3	[0, 0, 0]	-999	PAL1	4	R1365N
870.225	0.398	406047	REC_EVENT	3639	n/a	6	4	NEST	SPONGE	NEST	SPONGE	3	[0, 0, 0]	-999	PAL1	4	R1365N
870.623	1.001	406445	PROBE_END	n/a	n/a	6	4	NEST	n/a	NEST	SPONGE	3	[0, 0, 0]	-999	PAL1	4	R1365N
871.624	0.011	407446	REC_END	n/a	n/a	6	4	NEST	n/a	NEST	SPONGE	3	[0, 0, 0]	-999	PAL1	4	R1365N
871.635	0.271	407457	ORIENT_START	n/a	n/a	-999	-999	n/a	n/a	n/a	n/a	3	[0, 0, 0]	-999	PAL1	4	R1365N
871.906	0.585	407728	ORIENT_END	n/a	n/a	-999	-999	n/a	n/a	n/a	n/a	3	[0, 0, 0]	-999	PAL1	4	R1365N
872.491	0.0	408313	REC_START	n/a	n/a	1	5	BOOT	PIT	PIT	BOOT	3	[0, 0, 0]	-999	PAL1	4	R1365N
872.491	2.544	408313	PROBE_START	n/a	wordpools/wordpool_EN.txt	1	5	BOOT	PIT	PIT	BOOT	3	[0, 0, 0]	-999	PAL1	4	R1365N
875.035	1.489	410857	REC_EVENT	2544	n/a	1	5	BOOT	PIT	PIT	BOOT	3	[0, 0, 0]	-999	PAL1	4	R1365N
876.524	1.0	412346	PROBE_END	n/a	n/a	1	5	BOOT	n/a	PIT	BOOT	3	[0, 0, 0]	-999	PAL1	4	R1365N
877.524	0.012	413346	REC_END	n/a	n/a	1	5	BOOT	n/a	PIT	BOOT	3	[0, 0, 0]	-999	PAL1	4	R1365N
877.536	0.271	413358	ORIENT_START	n/a	n/a	-999	-999	n/a	n/a	n/a	n/a	3	[0, 0, 0]	-999	PAL1	4	R1365N
877.807	0.56	413629	ORIENT_END	n/a	n/a	-999	-999	n/a	n/a	n/a	n/a	3	[0, 0, 0]	-999	PAL1	4	R1365N
878.367	0.001	414189	REC_START	n/a	n/a	4	6	APE	TRAY	TRAY	APE	3	[0, 0, 0]	-999	PAL1	4	R1365N
878.368	2.559	414190	PROBE_START	n/a	wordpools/wordpool_EN.txt	4	6	APE	TRAY	TRAY	APE	3	[0, 0, 0]	-999	PAL1	4	R1365N
880.927	1.465	416749	REC_EVENT	2559	n/a	4	6	APE	TRAY	TRAY	APE	3	[0, 0, 0]	-999	PAL1	4	R1365N
882.392	0.999	418214	PROBE_END	n/a	n/a	4	6	APE	n/a	TRAY	APE	3	[0, 0, 0]	-999	PAL1	4	R1365N
883.391	0.012	419213	REC_END	n/a	n/a	4	6	APE	n/a	TRAY	APE	3	[0, 0, 0]	-999	PAL1	4	R1365N
883.403	0.0	419225	RETRIEVAL_END	n/a	n/a	-999	-999	n/a	n/a	n/a	n/a	3	[0, 0, 0]	-999	PAL1	4	R1365N
883.403	0.02	419225	TRIAL_END	n/a	n/a	-999	-999	n/a	n/a	n/a	n/a	3	[0, 0, 0]	-999	PAL1	4	R1365N
883.423	0.001	419245	TRIAL_START	n/a	n/a	-999	-999	n/a	n/a	n/a	n/a	3	[0, 0, 0]	-999	PAL1	4	R1365N
883.424	0.0	419246	TRIAL	n/a	n/a	-999	-999	n/a	n/a	n/a	n/a	4	[0, 0, 0]	-999	PAL1	4	R1365N
883.424	7.502	419246	WAITING_START	n/a	n/a	-999	-999	n/a	n/a	n/a	n/a	4	[0, 0, 0]	-999	PAL1	4	R1365N
890.926	0.001	426748	WAITING_END	n/a	n/a	-999	-999	n/a	n/a	n/a	n/a	4	[0, 0, 0]	-999	PAL1	4	R1365N
890.927	10.428	426749	COUNTDOWN_START	n/a	n/a	-999	-999	n/a	n/a	n/a	n/a	4	[0, 0, 0]	-999	PAL1	4	R1365N
901.355	0.001	437176	COUNTDOWN_END	n/a	n/a	-999	-999	n/a	n/a	n/a	n/a	4	[0, 0, 0]	-999	PAL1	4	R1365N
901.356	0.556	437177	ORIENT_START	n/a	n/a	-999	-999	n/a	n/a	n/a	n/a	4	[0, 0, 0]	-999	PAL1	4	R1365N
901.912	0.0	437733	ENCODING_START	n/a	n/a	-999	-999	n/a	n/a	n/a	n/a	4	[0, 0, 0]	-999	PAL1	4	R1365N
901.912	1.218	437733	ORIENT_END	n/a	n/a	-999	-999	n/a	n/a	n/a	n/a	4	[0, 0, 0]	-999	PAL1	4	R1365N
903.13	4.032	438951	STUDY_PAIR	n/a	wordpools/wordpool_EN.txt	1	-999	n/a	HAWK	HAWK	SWORD	4	[0, 0, 0]	-999	PAL1	4	R1365N
907.162	0.621	442983	STUDY_PAIR_OFF	n/a	n/a	1	-999	n/a	HAWK	HAWK	SWORD	4	[0, 0, 0]	-999	PAL1	4	R1365N
907.783	4.03	443604	STUDY_PAIR	n/a	wordpools/wordpool_EN.txt	2	-999	n/a	COW	COW	HORN	4	[0, 0, 0]	-999	PAL1	4	R1365N
911.813	0.62	447634	STUDY_PAIR_OFF	n/a	n/a	2	-999	n/a	COW	COW	HORN	4	[0, 0, 0]	-999	PAL1	4	R1365N
912.433	4.031	448254	STUDY_PAIR	n/a	wordpools/wordpool_EN.txt	3	-999	n/a	BARN	BARN	STOOL	4	[0, 0, 0]	-999	PAL1	4	R1365N
916.464	0.748	452285	STUDY_PAIR_OFF	n/a	n/a	3	-999	n/a	BARN	BARN	STOOL	4	[0, 0, 0]	-999	PAL1	4	R1365N
917.212	4.019	453033	STUDY_PAIR	n/a	wordpools/wordpool_EN.txt	4	-999	n/a	SLIME	BANK	SLIME	4	[0, 0, 0]	-999	PAL1	4	R1365N
921.231	0.58	457052	STUDY_PAIR_OFF	n/a	n/a	4	-999	n/a	SLIME	BANK	SLIME	4	[0, 0, 0]	-999	PAL1	4	R1365N
921.811	4.038	457632	STUDY_PAIR	n/a	wordpools/wordpool_EN.txt	5	-999	n/a	PURSE	CORD	PURSE	4	[0, 0, 0]	-999	PAL1	4	R1365N
925.849	0.559	461670	STUDY_PAIR_OFF	n/a	n/a	5	-999	n/a	PURSE	CORD	PURSE	4	[0, 0, 0]	-999	PAL1	4	R1365N
926.408	4.025	462229	STUDY_PAIR	n/a	wordpools/wordpool_EN.txt	6	-999	n/a	DITCH	ELF	DITCH	4	[0, 0, 0]	-999	PAL1	4	R1365N
930.433	0.001	466254	STUDY_PAIR_OFF	n/a	n/a	6	-999	n/a	DITCH	ELF	DITCH	4	[0, 0, 0]	-999	PAL1	4	R1365N
930.434	0.0	466255	MATH_START	n/a	n/a	-999	-999	n/a	n/a	n/a	n/a	4	[0, 0, 0]	-999	PAL1	4	R1365N
930.434	0.0	466255	ENCODING_END	n/a	n/a	-999	-999	n/a	n/a	n/a	n/a	4	[0, 0, 0]	-999	PAL1	4	R1365N
930.434	0.015	466255	START	n/a	n/a	-999	-999	n/a	n/a	n/a	n/a	5	[-999, -999, -999]	-999	PAL1	4	R1365N
930.449	5.384	466270	PROB	5351	n/a	-999	-999	n/a	n/a	n/a	n/a	5	[1, 9, 3]	13	PAL1	4	R1365N
935.833	6.001	471654	PROB	5976	n/a	-999	-999	n/a	n/a	n/a	n/a	5	[8, 6, 5]	19	PAL1	4	R1365N
941.834	20.166	477654	PROB	20166	n/a	-999	-999	n/a	n/a	n/a	n/a	5	[9, 6, 1]	16	PAL1	4	R1365N
962.0	0.021	497820	STOP	n/a	n/a	-999	-999	n/a	n/a	n/a	n/a	5	[-999, -999, -999]	-999	PAL1	4	R1365N
962.021	0.52	497841	MATH_END	n/a	n/a	-999	-999	n/a	n/a	n/a	n/a	4	[0, 0, 0]	-999	PAL1	4	R1365N
962.541	0.002	498361	RETRIEVAL_START	n/a	n/a	-999	-999	n/a	n/a	n/a	n/a	4	[0, 0, 0]	-999	PAL1	4	R1365N
962.543	0.279	498363	ORIENT_START	n/a	n/a	-999	-999	n/a	n/a	n/a	n/a	4	[0, 0, 0]	-999	PAL1	4	R1365N
962.822	0.731	498642	ORIENT_END	n/a	n/a	-999	-999	n/a	n/a	n/a	n/a	4	[0, 0, 0]	-999	PAL1	4	R1365N
963.553	0.0	499373	REC_START	n/a	n/a	1	1	SWORD	HAWK	HAWK	SWORD	4	[0, 0, 0]	-999	PAL1	4	R1365N
963.553	2.956	499373	PROBE_START	n/a	wordpools/wordpool_EN.txt	1	1	SWORD	HAWK	HAWK	SWORD	4	[0, 0, 0]	-999	PAL1	4	R1365N
966.509	1.08	502329	REC_EVENT	2956	n/a	1	1	SWORD	HAWK	HAWK	SWORD	4	[0, 0, 0]	-999	PAL1	4	R1365N
967.589	1.0	503409	PROBE_END	n/a	n/a	1	1	SWORD	n/a	HAWK	SWORD	4	[0, 0, 0]	-999	PAL1	4	R1365N
968.589	0.007	504409	REC_END	n/a	n/a	1	1	SWORD	n/a	HAWK	SWORD	4	[0, 0, 0]	-999	PAL1	4	R1365N
968.596	0.276	504416	ORIENT_START	n/a	n/a	-999	-999	n/a	n/a	n/a	n/a	4	[0, 0, 0]	-999	PAL1	4	R1365N
968.872	0.669	504692	ORIENT_END	n/a	n/a	-999	-999	n/a	n/a	n/a	n/a	4	[0, 0, 0]	-999	PAL1	4	R1365N
969.541	0.0	505361	PROBE_START	n/a	wordpools/wordpool_EN.txt	4	2	BANK	SLIME	BANK	SLIME	4	[0, 0, 0]	-999	PAL1	4	R1365N
969.541	2.244	505361	REC_START	n/a	n/a	4	2	BANK	SLIME	BANK	SLIME	4	[0, 0, 0]	-999	PAL1	4	R1365N
971.785	1.788	507605	REC_EVENT	2244	n/a	4	2	BANK	SLIME	BANK	SLIME	4	[0, 0, 0]	-999	PAL1	4	R1365N
973.573	1.0	509393	PROBE_END	n/a	n/a	4	2	BANK	n/a	BANK	SLIME	4	[0, 0, 0]	-999	PAL1	4	R1365N
974.573	0.013	510393	REC_END	n/a	n/a	4	2	BANK	n/a	BANK	SLIME	4	[0, 0, 0]	-999	PAL1	4	R1365N
974.586	0.271	510406	ORIENT_START	n/a	n/a	-999	-999	n/a	n/a	n/a	n/a	4	[0, 0, 0]	-999	PAL1	4	R1365N
974.857	0.576	510676	ORIENT_END	n/a	n/a	-999	-999	n/a	n/a	n/a	n/a	4	[0, 0, 0]	-999	PAL1	4	R1365N
975.433	0.0	511252	REC_START	n/a	n/a	3	3	STOOL	BARN	BARN	STOOL	4	[0, 0, 0]	-999	PAL1	4	R1365N
975.433	2.309	511252	PROBE_START	n/a	wordpools/wordpool_EN.txt	3	3	STOOL	BARN	BARN	STOOL	4	[0, 0, 0]	-999	PAL1	4	R1365N
977.742	1.716	513561	REC_EVENT	2309	n/a	3	3	STOOL	BARN	BARN	STOOL	4	[0, 0, 0]	-999	PAL1	4	R1365N
979.458	0.999	515277	PROBE_END	n/a	n/a	3	3	STOOL	n/a	BARN	STOOL	4	[0, 0, 0]	-999	PAL1	4	R1365N
980.457	0.011	516276	REC_END	n/a	n/a	3	3	STOOL	n/a	BARN	STOOL	4	[0, 0, 0]	-999	PAL1	4	R1365N
980.468	0.257	516287	ORIENT_START	n/a	n/a	-999	-999	n/a	n/a	n/a	n/a	4	[0, 0, 0]	-999	PAL1	4	R1365N
980.725	0.558	516544	ORIENT_END	n/a	n/a	-999	-999	n/a	n/a	n/a	n/a	4	[0, 0, 0]	-999	PAL1	4	R1365N
981.283	0.001	517102	REC_START	n/a	n/a	2	4	HORN	COW	COW	HORN	4	[0, 0, 0]	-999	PAL1	4	R1365N
981.284	2.211	517103	PROBE_START	n/a	wordpools/wordpool_EN.txt	2	4	HORN	COW	COW	HORN	4	[0, 0, 0]	-999	PAL1	4	R1365N
983.495	1.813	519314	REC_EVENT	2211	n/a	2	4	HORN	COW	COW	HORN	4	[0, 0, 0]	-999	PAL1	4	R1365N
985.308	1.001	521127	PROBE_END	n/a	n/a	2	4	HORN	n/a	COW	HORN	4	[0, 0, 0]	-999	PAL1	4	R1365N
986.309	0.009	522128	REC_END	n/a	n/a	2	4	HORN	n/a	COW	HORN	4	[0, 0, 0]	-999	PAL1	4	R1365N
986.318	0.274	522137	ORIENT_START	n/a	n/a	-999	-999	n/a	n/a	n/a	n/a	4	[0, 0, 0]	-999	PAL1	4	R1365N
986.592	0.58	522411	ORIENT_END	n/a	n/a	-999	-999	n/a	n/a	n/a	n/a	4	[0, 0, 0]	-999	PAL1	4	R1365N
987.172	0.001	522991	REC_START	n/a	n/a	5	5	CORD	PURSE	CORD	PURSE	4	[0, 0, 0]	-999	PAL1	4	R1365N
987.173	4.036	522992	PROBE_START	n/a	wordpools/wordpool_EN.txt	5	5	CORD	PURSE	CORD	PURSE	4	[0, 0, 0]	-999	PAL1	4	R1365N
991.209	0.846	527028	PROBE_END	n/a	n/a	5	5	CORD	n/a	CORD	PURSE	4	[0, 0, 0]	-999	PAL1	4	R1365N
992.055	0.155	527874	REC_EVENT	4882	n/a	5	5	CORD	PURSE	CORD	PURSE	4	[0, 0, 0]	-999	PAL1	4	R1365N
992.21	0.013	528029	REC_END	n/a	n/a	5	5	CORD	n/a	CORD	PURSE	4	[0, 0, 0]	-999	PAL1	4	R1365N
992.223	0.27	528042	ORIENT_START	n/a	n/a	-999	-999	n/a	n/a	n/a	n/a	4	[0, 0, 0]	-999	PAL1	4	R1365N
992.493	0.644	528312	ORIENT_END	n/a	n/a	-999	-999	n/a	n/a	n/a	n/a	4	[0, 0, 0]	-999	PAL1	4	R1365N
993.137	0.0	528956	REC_START	n/a	n/a	6	6	ELF	DITCH	ELF	DITCH	4	[0, 0, 0]	-999	PAL1	4	R1365N
993.137	2.444	528956	PROBE_START	n/a	wordpools/wordpool_EN.txt	6	6	ELF	DITCH	ELF	DITCH	4	[0, 0, 0]	-999	PAL1	4	R1365N
995.581	1.579	531400	REC_EVENT	2444	n/a	6	6	ELF	DITCH	ELF	DITCH	4	[0, 0, 0]	-999	PAL1	4	R1365N
997.16	1.0	532979	PROBE_END	n/a	n/a	6	6	ELF	n/a	ELF	DITCH	4	[0, 0, 0]	-999	PAL1	4	R1365N
998.16	0.012	533979	REC_END	n/a	n/a	6	6	ELF	n/a	ELF	DITCH	4	[0, 0, 0]	-999	PAL1	4	R1365N
998.172	0.0	533991	RETRIEVAL_END	n/a	n/a	-999	-999	n/a	n/a	n/a	n/a	4	[0, 0, 0]	-999	PAL1	4	R1365N
998.172	0.021	533991	TRIAL_END	n/a	n/a	-999	-999	n/a	n/a	n/a	n/a	4	[0, 0, 0]	-999	PAL1	4	R1365N
998.193	0.001	534012	TRIAL_START	n/a	n/a	-999	-999	n/a	n/a	n/a	n/a	4	[0, 0, 0]	-999	PAL1	4	R1365N
998.194	0.0	534013	TRIAL	n/a	n/a	-999	-999	n/a	n/a	n/a	n/a	5	[0, 0, 0]	-999	PAL1	4	R1365N
998.194	2.334	534013	WAITING_START	n/a	n/a	-999	-999	n/a	n/a	n/a	n/a	5	[0, 0, 0]	-999	PAL1	4	R1365N
1000.528	0.0	536347	COUNTDOWN_START	n/a	n/a	-999	-999	n/a	n/a	n/a	n/a	5	[0, 0, 0]	-999	PAL1	4	R1365N
1000.528	10.428	536347	WAITING_END	n/a	n/a	-999	-999	n/a	n/a	n/a	n/a	5	[0, 0, 0]	-999	PAL1	4	R1365N
1010.956	0.001	546775	COUNTDOWN_END	n/a	n/a	-999	-999	n/a	n/a	n/a	n/a	5	[0, 0, 0]	-999	PAL1	4	R1365N
1010.957	0.623	546776	ORIENT_START	n/a	n/a	-999	-999	n/a	n/a	n/a	n/a	5	[0, 0, 0]	-999	PAL1	4	R1365N
1011.58	0.0	547398	ORIENT_END	n/a	n/a	-999	-999	n/a	n/a	n/a	n/a	5	[0, 0, 0]	-999	PAL1	4	R1365N
1011.58	1.091	547398	ENCODING_START	n/a	n/a	-999	-999	n/a	n/a	n/a	n/a	5	[0, 0, 0]	-999	PAL1	4	R1365N
1012.671	4.027	548489	STUDY_PAIR	n/a	wordpools/wordpool_EN.txt	1	-999	n/a	BOWL	BOWL	BOOK	5	[0, 0, 0]	-999	PAL1	4	R1365N
1016.698	0.634	552516	STUDY_PAIR_OFF	n/a	n/a	1	-999	n/a	BOWL	BOWL	BOOK	5	[0, 0, 0]	-999	PAL1	4	R1365N
1017.332	4.032	553150	STUDY_PAIR	n/a	wordpools/wordpool_EN.txt	2	-999	n/a	LEG	CROW	LEG	5	[0, 0, 0]	-999	PAL1	4	R1365N
1021.364	0.634	557182	STUDY_PAIR_OFF	n/a	n/a	2	-999	n/a	LEG	CROW	LEG	5	[0, 0, 0]	-999	PAL1	4	R1365N
1021.998	4.034	557816	STUDY_PAIR	n/a	wordpools/wordpool_EN.txt	3	-999	n/a	HAND	HAND	EAR	5	[0, 0, 0]	-999	PAL1	4	R1365N
1026.032	0.521	561850	STUDY_PAIR_OFF	n/a	n/a	3	-999	n/a	HAND	HAND	EAR	5	[0, 0, 0]	-999	PAL1	4	R1365N
1026.553	4.03	562371	STUDY_PAIR	n/a	wordpools/wordpool_EN.txt	4	-999	n/a	TEA	TEA	FLUTE	5	[0, 0, 0]	-999	PAL1	4	R1365N
1030.583	0.572	566401	STUDY_PAIR_OFF	n/a	n/a	4	-999	n/a	TEA	TEA	FLUTE	5	[0, 0, 0]	-999	PAL1	4	R1365N
1031.155	4.028	566973	STUDY_PAIR	n/a	wordpools/wordpool_EN.txt	5	-999	n/a	HEART	JET	HEART	5	[0, 0, 0]	-999	PAL1	4	R1365N
1035.183	0.716	571001	STUDY_PAIR_OFF	n/a	n/a	5	-999	n/a	HEART	JET	HEART	5	[0, 0, 0]	-999	PAL1	4	R1365N
1035.899	4.035	571717	STUDY_PAIR	n/a	wordpools/wordpool_EN.txt	6	-999	n/a	n/a	CLIFF	DOCK	5	[0, 0, 0]	-999	PAL1	4	R1365N
1039.934	0.001	575752	STUDY_PAIR_OFF	n/a	n/a	6	-999	n/a	n/a	CLIFF	DOCK	5	[0, 0, 0]	-999	PAL1	4	R1365N
1039.935	0.0	575753	ENCODING_END	n/a	n/a	-999	-999	n/a	n/a	n/a	n/a	5	[0, 0, 0]	-999	PAL1	4	R1365N
1039.935	0.0	575753	MATH_START	n/a	n/a	-999	-999	n/a	n/a	n/a	n/a	5	[0, 0, 0]	-999	PAL1	4	R1365N
1039.935	0.016	575753	START	n/a	n/a	-999	-999	n/a	n/a	n/a	n/a	6	[-999, -999, -999]	-999	PAL1	4	R1365N
1039.951	4.667	575769	PROB	4641	n/a	-999	-999	n/a	n/a	n/a	n/a	6	[1, 9, 4]	14	PAL1	4	R1365N
1044.618	5.918	580436	PROB	5895	n/a	-999	-999	n/a	n/a	n/a	n/a	6	[5, 8, 1]	12	PAL1	4	R1365N
1050.536	3.934	586353	PROB	3897	n/a	-999	-999	n/a	n/a	n/a	n/a	6	[4, 6, 1]	11	PAL1	4	R1365N
1054.47	11.323	590287	PROB	11323	n/a	-999	-999	n/a	n/a	n/a	n/a	6	[8, 7, 1]	16	PAL1	4	R1365N
1065.793	0.012	601610	STOP	n/a	n/a	-999	-999	n/a	n/a	n/a	n/a	6	[-999, -999, -999]	-999	PAL1	4	R1365N
1065.805	0.584	601622	MATH_END	n/a	n/a	-999	-999	n/a	n/a	n/a	n/a	5	[0, 0, 0]	-999	PAL1	4	R1365N
1066.389	0.001	602206	RETRIEVAL_START	n/a	n/a	-999	-999	n/a	n/a	n/a	n/a	5	[0, 0, 0]	-999	PAL1	4	R1365N
1066.39	0.282	602207	ORIENT_START	n/a	n/a	-999	-999	n/a	n/a	n/a	n/a	5	[0, 0, 0]	-999	PAL1	4	R1365N
1066.672	0.688	602489	ORIENT_END	n/a	n/a	-999	-999	n/a	n/a	n/a	n/a	5	[0, 0, 0]	-999	PAL1	4	R1365N
1067.36	0.001	603177	REC_START	n/a	n/a	5	1	JET	HEART	JET	HEART	5	[0, 0, 0]	-999	PAL1	4	R1365N
1067.361	2.073	603178	PROBE_START	n/a	wordpools/wordpool_EN.txt	5	1	JET	HEART	JET	HEART	5	[0, 0, 0]	-999	PAL1	4	R1365N
1069.434	1.955	605251	REC_EVENT	2073	n/a	5	1	JET	HEART	JET	HEART	5	[0, 0, 0]	-999	PAL1	4	R1365N
1071.389	1.001	607206	PROBE_END	n/a	n/a	5	1	JET	n/a	JET	HEART	5	[0, 0, 0]	-999	PAL1	4	R1365N
1072.39	0.011	608207	REC_END	n/a	n/a	5	1	JET	n/a	JET	HEART	5	[0, 0, 0]	-999	PAL1	4	R1365N
1072.401	0.272	608218	ORIENT_START	n/a	n/a	-999	-999	n/a	n/a	n/a	n/a	5	[0, 0, 0]	-999	PAL1	4	R1365N
1072.673	0.63	608490	ORIENT_END	n/a	n/a	-999	-999	n/a	n/a	n/a	n/a	5	[0, 0, 0]	-999	PAL1	4	R1365N
1073.303	0.001	609120	REC_START	n/a	n/a	6	2	CLIFF	n/a	CLIFF	DOCK	5	[0, 0, 0]	-999	PAL1	4	R1365N
1073.304	4.036	609121	PROBE_START	n/a	wordpools/wordpool_EN.txt	6	2	CLIFF	n/a	CLIFF	DOCK	5	[0, 0, 0]	-999	PAL1	4	R1365N
1077.34	1.001	613157	PROBE_END	n/a	n/a	6	2	CLIFF	n/a	CLIFF	DOCK	5	[0, 0, 0]	-999	PAL1	4	R1365N
1078.341	0.015	614158	REC_END	n/a	n/a	6	2	CLIFF	n/a	CLIFF	DOCK	5	[0, 0, 0]	-999	PAL1	4	R1365N
1078.356	0.285	614173	ORIENT_START	n/a	n/a	-999	-999	n/a	n/a	n/a	n/a	5	[0, 0, 0]	-999	PAL1	4	R1365N
1078.641	0.597	614458	ORIENT_END	n/a	n/a	-999	-999	n/a	n/a	n/a	n/a	5	[0, 0, 0]	-999	PAL1	4	R1365N
1079.238	0.0	615055	REC_START	n/a	n/a	1	3	BOOK	BOWL	BOWL	BOOK	5	[0, 0, 0]	-999	PAL1	4	R1365N
1079.238	0.01	615055	PROBE_START	n/a	wordpools/wordpool_EN.txt	1	3	BOOK	BOWL	BOWL	BOOK	5	[0, 0, 0]	-999	PAL1	4	R1365N
1079.248	2.043	615065	REC_EVENT	5944	n/a	6	2	CLIFF	<>	CLIFF	DOCK	5	[0, 0, 0]	-999	PAL1	4	R1365N
1081.291	1.984	617108	REC_EVENT	2053	n/a	1	3	BOOK	BOWL	BOWL	BOOK	5	[0, 0, 0]	-999	PAL1	4	R1365N
1083.275	1.0	619092	PROBE_END	n/a	n/a	1	3	BOOK	n/a	BOWL	BOOK	5	[0, 0, 0]	-999	PAL1	4	R1365N
1084.275	0.013	620092	REC_END	n/a	n/a	1	3	BOOK	n/a	BOWL	BOOK	5	[0, 0, 0]	-999	PAL1	4	R1365N
1084.288	0.27	620105	ORIENT_START	n/a	n/a	-999	-999	n/a	n/a	n/a	n/a	5	[0, 0, 0]	-999	PAL1	4	R1365N
1084.558	0.724	620375	ORIENT_END	n/a	n/a	-999	-999	n/a	n/a	n/a	n/a	5	[0, 0, 0]	-999	PAL1	4	R1365N
1085.282	0.0	621098	REC_START	n/a	n/a	2	4	CROW	LEG	CROW	LEG	5	[0, 0, 0]	-999	PAL1	4	R1365N
1085.282	2.962	621098	PROBE_START	n/a	wordpools/wordpool_EN.txt	2	4	CROW	LEG	CROW	LEG	5	[0, 0, 0]	-999	PAL1	4	R1365N
1088.244	1.065	624060	REC_EVENT	2962	n/a	2	4	CROW	LEG	CROW	LEG	5	[0, 0, 0]	-999	PAL1	4	R1365N
1089.309	1.0	625125	PROBE_END	n/a	n/a	2	4	CROW	n/a	CROW	LEG	5	[0, 0, 0]	-999	PAL1	4	R1365N
1090.309	0.011	626125	REC_END	n/a	n/a	2	4	CROW	n/a	CROW	LEG	5	[0, 0, 0]	-999	PAL1	4	R1365N
1090.32	0.273	626136	ORIENT_START	n/a	n/a	-999	-999	n/a	n/a	n/a	n/a	5	[0, 0, 0]	-999	PAL1	4	R1365N
1090.593	0.62	626409	ORIENT_END	n/a	n/a	-999	-999	n/a	n/a	n/a	n/a	5	[0, 0, 0]	-999	PAL1	4	R1365N
1091.213	0.0	627029	REC_START	n/a	n/a	3	5	EAR	HAND	HAND	EAR	5	[0, 0, 0]	-999	PAL1	4	R1365N
1091.213	2.056	627029	PROBE_START	n/a	wordpools/wordpool_EN.txt	3	5	EAR	HAND	HAND	EAR	5	[0, 0, 0]	-999	PAL1	4	R1365N
1093.269	1.974	629085	REC_EVENT	2056	n/a	3	5	EAR	HAND	HAND	EAR	5	[0, 0, 0]	-999	PAL1	4	R1365N
1095.243	1.0	631059	PROBE_END	n/a	n/a	3	5	EAR	n/a	HAND	EAR	5	[0, 0, 0]	-999	PAL1	4	R1365N
1096.243	0.013	632059	REC_END	n/a	n/a	3	5	EAR	n/a	HAND	EAR	5	[0, 0, 0]	-999	PAL1	4	R1365N
1096.256	0.271	632072	ORIENT_START	n/a	n/a	-999	-999	n/a	n/a	n/a	n/a	5	[0, 0, 0]	-999	PAL1	4	R1365N
1096.527	0.603	632343	ORIENT_END	n/a	n/a	-999	-999	n/a	n/a	n/a	n/a	5	[0, 0, 0]	-999	PAL1	4	R1365N
1097.13	0.001	632946	REC_START	n/a	n/a	4	6	FLUTE	TEA	TEA	FLUTE	5	[0, 0, 0]	-999	PAL1	4	R1365N
1097.131	1.96	632947	PROBE_START	n/a	wordpools/wordpool_EN.txt	4	6	FLUTE	TEA	TEA	FLUTE	5	[0, 0, 0]	-999	PAL1	4	R1365N
1099.091	2.07	634907	REC_EVENT	1960	n/a	4	6	FLUTE	TEA	TEA	FLUTE	5	[0, 0, 0]	-999	PAL1	4	R1365N
1101.161	1.0	636977	PROBE_END	n/a	n/a	4	6	FLUTE	n/a	TEA	FLUTE	5	[0, 0, 0]	-999	PAL1	4	R1365N
1102.161	0.012	637977	REC_END	n/a	n/a	4	6	FLUTE	n/a	TEA	FLUTE	5	[0, 0, 0]	-999	PAL1	4	R1365N
1102.173	0.0	637989	RETRIEVAL_END	n/a	n/a	-999	-999	n/a	n/a	n/a	n/a	5	[0, 0, 0]	-999	PAL1	4	R1365N
1102.173	0.022	637989	TRIAL_END	n/a	n/a	-999	-999	n/a	n/a	n/a	n/a	5	[0, 0, 0]	-999	PAL1	4	R1365N
1102.195	0.001	638011	TRIAL_START	n/a	n/a	-999	-999	n/a	n/a	n/a	n/a	5	[0, 0, 0]	-999	PAL1	4	R1365N
1102.196	0.0	638012	WAITING_START	n/a	n/a	-999	-999	n/a	n/a	n/a	n/a	6	[0, 0, 0]	-999	PAL1	4	R1365N
1102.196	1.916	638012	TRIAL	n/a	n/a	-999	-999	n/a	n/a	n/a	n/a	6	[0, 0, 0]	-999	PAL1	4	R1365N
1104.112	0.0	639928	WAITING_END	n/a	n/a	-999	-999	n/a	n/a	n/a	n/a	6	[0, 0, 0]	-999	PAL1	4	R1365N
1104.112	10.429	639928	COUNTDOWN_START	n/a	n/a	-999	-999	n/a	n/a	n/a	n/a	6	[0, 0, 0]	-999	PAL1	4	R1365N
1114.541	0.001	650357	COUNTDOWN_END	n/a	n/a	-999	-999	n/a	n/a	n/a	n/a	6	[0, 0, 0]	-999	PAL1	4	R1365N
1114.542	0.688	650358	ORIENT_START	n/a	n/a	-999	-999	n/a	n/a	n/a	n/a	6	[0, 0, 0]	-999	PAL1	4	R1365N
1115.23	0.001	651046	ORIENT_END	n/a	n/a	-999	-999	n/a	n/a	n/a	n/a	6	[0, 0, 0]	-999	PAL1	4	R1365N
1115.231	1.237	651047	ENCODING_START	n/a	n/a	-999	-999	n/a	n/a	n/a	n/a	6	[0, 0, 0]	-999	PAL1	4	R1365N
1116.468	4.03	652284	STUDY_PAIR	n/a	wordpools/wordpool_EN.txt	1	-999	n/a	TOE	TOE	TRASH	6	[0, 0, 0]	-999	PAL1	4	R1365N
1120.498	0.695	656314	STUDY_PAIR_OFF	n/a	n/a	1	-999	n/a	TOE	TOE	TRASH	6	[0, 0, 0]	-999	PAL1	4	R1365N
1121.193	4.039	657009	STUDY_PAIR	n/a	wordpools/wordpool_EN.txt	2	-999	n/a	n/a	POLE	NOSE	6	[0, 0, 0]	-999	PAL1	4	R1365N
1125.232	0.599	661047	STUDY_PAIR_OFF	n/a	n/a	2	-999	n/a	n/a	POLE	NOSE	6	[0, 0, 0]	-999	PAL1	4	R1365N
1125.831	4.035	661646	STUDY_PAIR	n/a	wordpools/wordpool_EN.txt	3	-999	n/a	n/a	WAVE	STEAK	6	[0, 0, 0]	-999	PAL1	4	R1365N
1129.866	0.74	665681	STUDY_PAIR_OFF	n/a	n/a	3	-999	n/a	n/a	WAVE	STEAK	6	[0, 0, 0]	-999	PAL1	4	R1365N
1130.606	4.027	666421	STUDY_PAIR	n/a	wordpools/wordpool_EN.txt	4	-999	n/a	INK	STAR	INK	6	[0, 0, 0]	-999	PAL1	4	R1365N
1134.633	0.714	670448	STUDY_PAIR_OFF	n/a	n/a	4	-999	n/a	INK	STAR	INK	6	[0, 0, 0]	-999	PAL1	4	R1365N
1135.347	4.02	671162	STUDY_PAIR	n/a	wordpools/wordpool_EN.txt	5	-999	n/a	SLUSH	COUCH	SLUSH	6	[0, 0, 0]	-999	PAL1	4	R1365N
1139.367	0.734	675182	STUDY_PAIR_OFF	n/a	n/a	5	-999	n/a	SLUSH	COUCH	SLUSH	6	[0, 0, 0]	-999	PAL1	4	R1365N
1140.101	4.034	675916	STUDY_PAIR	n/a	wordpools/wordpool_EN.txt	6	-999	n/a	OAR	CHALK	OAR	6	[0, 0, 0]	-999	PAL1	4	R1365N
1144.135	0.0	679950	STUDY_PAIR_OFF	n/a	n/a	6	-999	n/a	OAR	CHALK	OAR	6	[0, 0, 0]	-999	PAL1	4	R1365N
1144.135	0.001	679950	ENCODING_END	n/a	n/a	-999	-999	n/a	n/a	n/a	n/a	6	[0, 0, 0]	-999	PAL1	4	R1365N
1144.136	0.0	679951	MATH_START	n/a	n/a	-999	-999	n/a	n/a	n/a	n/a	6	[0, 0, 0]	-999	PAL1	4	R1365N
1144.136	0.015	679951	START	n/a	n/a	-999	-999	n/a	n/a	n/a	n/a	7	[-999, -999, -999]	-999	PAL1	4	R1365N
1144.151	9.368	679966	PROB	9345	n/a	-999	-999	n/a	n/a	n/a	n/a	7	[7, 5, 7]	19	PAL1	4	R1365N
1153.519	6.768	689334	PROB	6737	n/a	-999	-999	n/a	n/a	n/a	n/a	7	[6, 8, 9]	23	PAL1	4	R1365N
1160.287	5.617	696101	PROB	5617	n/a	-999	-999	n/a	n/a	n/a	n/a	7	[3, 9, 4]	16	PAL1	4	R1365N
1165.904	0.018	701718	STOP	n/a	n/a	-999	-999	n/a	n/a	n/a	n/a	7	[-999, -999, -999]	-999	PAL1	4	R1365N
1165.922	0.636	701736	MATH_END	n/a	n/a	-999	-999	n/a	n/a	n/a	n/a	6	[0, 0, 0]	-999	PAL1	4	R1365N
1166.558	0.001	702372	RETRIEVAL_START	n/a	n/a	-999	-999	n/a	n/a	n/a	n/a	6	[0, 0, 0]	-999	PAL1	4	R1365N
1166.559	0.279	702373	ORIENT_START	n/a	n/a	-999	-999	n/a	n/a	n/a	n/a	6	[0, 0, 0]	-999	PAL1	4	R1365N
1166.838	0.68	702652	ORIENT_END	n/a	n/a	-999	-999	n/a	n/a	n/a	n/a	6	[0, 0, 0]	-999	PAL1	4	R1365N
1167.518	0.0	703332	PROBE_START	n/a	wordpools/wordpool_EN.txt	1	1	TRASH	TOE	TOE	TRASH	6	[0, 0, 0]	-999	PAL1	4	R1365N
1167.518	2.037	703332	REC_START	n/a	n/a	1	1	TRASH	TOE	TOE	TRASH	6	[0, 0, 0]	-999	PAL1	4	R1365N
1169.555	2.001	705369	REC_EVENT	2037	n/a	1	1	TRASH	TOE	TOE	TRASH	6	[0, 0, 0]	-999	PAL1	4	R1365N
1171.556	1.0	707370	PROBE_END	n/a	n/a	1	1	TRASH	n/a	TOE	TRASH	6	[0, 0, 0]	-999	PAL1	4	R1365N
1172.556	0.012	708370	REC_END	n/a	n/a	1	1	TRASH	n/a	TOE	TRASH	6	[0, 0, 0]	-999	PAL1	4	R1365N
1172.568	0.271	708382	ORIENT_START	n/a	n/a	-999	-999	n/a	n/a	n/a	n/a	6	[0, 0, 0]	-999	PAL1	4	R1365N
1172.839	0.604	708653	ORIENT_END	n/a	n/a	-999	-999	n/a	n/a	n/a	n/a	6	[0, 0, 0]	-999	PAL1	4	R1365N
1173.443	0.0	709257	REC_START	n/a	n/a	4	2	STAR	INK	STAR	INK	6	[0, 0, 0]	-999	PAL1	4	R1365N
1173.443	2.07	709257	PROBE_START	n/a	wordpools/wordpool_EN.txt	4	2	STAR	INK	STAR	INK	6	[0, 0, 0]	-999	PAL1	4	R1365N
1175.513	1.961	711327	REC_EVENT	2070	n/a	4	2	STAR	INK	STAR	INK	6	[0, 0, 0]	-999	PAL1	4	R1365N
1177.474	0.999	713288	PROBE_END	n/a	n/a	4	2	STAR	n/a	STAR	INK	6	[0, 0, 0]	-999	PAL1	4	R1365N
1178.473	0.011	714287	REC_END	n/a	n/a	4	2	STAR	n/a	STAR	INK	6	[0, 0, 0]	-999	PAL1	4	R1365N
1178.484	0.257	714298	ORIENT_START	n/a	n/a	-999	-999	n/a	n/a	n/a	n/a	6	[0, 0, 0]	-999	PAL1	4	R1365N
1178.741	0.59	714555	ORIENT_END	n/a	n/a	-999	-999	n/a	n/a	n/a	n/a	6	[0, 0, 0]	-999	PAL1	4	R1365N
1179.331	0.0	715145	PROBE_START	n/a	wordpools/wordpool_EN.txt	5	3	COUCH	SLUSH	COUCH	SLUSH	6	[0, 0, 0]	-999	PAL1	4	R1365N
1179.331	2.188	715145	REC_START	n/a	n/a	5	3	COUCH	SLUSH	COUCH	SLUSH	6	[0, 0, 0]	-999	PAL1	4	R1365N
1181.519	1.822	717333	REC_EVENT	2188	n/a	5	3	COUCH	SLUSH	COUCH	SLUSH	6	[0, 0, 0]	-999	PAL1	4	R1365N
1183.341	1.0	719155	PROBE_END	n/a	n/a	5	3	COUCH	n/a	COUCH	SLUSH	6	[0, 0, 0]	-999	PAL1	4	R1365N
1184.341	0.011	720155	REC_END	n/a	n/a	5	3	COUCH	n/a	COUCH	SLUSH	6	[0, 0, 0]	-999	PAL1	4	R1365N
1184.352	0.273	720166	ORIENT_START	n/a	n/a	-999	-999	n/a	n/a	n/a	n/a	6	[0, 0, 0]	-999	PAL1	4	R1365N
1184.625	0.682	720439	ORIENT_END	n/a	n/a	-999	-999	n/a	n/a	n/a	n/a	6	[0, 0, 0]	-999	PAL1	4	R1365N
1185.307	0.0	721121	REC_START	n/a	n/a	6	4	CHALK	OAR	CHALK	OAR	6	[0, 0, 0]	-999	PAL1	4	R1365N
1185.307	2.208	721121	PROBE_START	n/a	wordpools/wordpool_EN.txt	6	4	CHALK	OAR	CHALK	OAR	6	[0, 0, 0]	-999	PAL1	4	R1365N
1187.515	1.827	723329	REC_EVENT	2208	n/a	6	4	CHALK	OAR	CHALK	OAR	6	[0, 0, 0]	-999	PAL1	4	R1365N
1189.342	1.001	725156	PROBE_END	n/a	n/a	6	4	CHALK	n/a	CHALK	OAR	6	[0, 0, 0]	-999	PAL1	4	R1365N
1190.343	0.012	726157	REC_END	n/a	n/a	6	4	CHALK	n/a	CHALK	OAR	6	[0, 0, 0]	-999	PAL1	4	R1365N
1190.355	0.271	726169	ORIENT_START	n/a	n/a	-999	-999	n/a	n/a	n/a	n/a	6	[0, 0, 0]	-999	PAL1	4	R1365N
1190.626	0.642	726440	ORIENT_END	n/a	n/a	-999	-999	n/a	n/a	n/a	n/a	6	[0, 0, 0]	-999	PAL1	4	R1365N
1191.268	0.001	727082	REC_START	n/a	n/a	3	5	STEAK	n/a	WAVE	STEAK	6	[0, 0, 0]	-999	PAL1	4	R1365N
1191.269	4.024	727083	PROBE_START	n/a	wordpools/wordpool_EN.txt	3	5	STEAK	n/a	WAVE	STEAK	6	[0, 0, 0]	-999	PAL1	4	R1365N
1195.293	1.0	731107	PROBE_END	n/a	n/a	3	5	STEAK	n/a	WAVE	STEAK	6	[0, 0, 0]	-999	PAL1	4	R1365N
1196.293	0.013	732106	REC_END	n/a	n/a	3	5	STEAK	n/a	WAVE	STEAK	6	[0, 0, 0]	-999	PAL1	4	R1365N
1196.306	0.271	732119	ORIENT_START	n/a	n/a	-999	-999	n/a	n/a	n/a	n/a	6	[0, 0, 0]	-999	PAL1	4	R1365N
1196.577	0.527	732390	ORIENT_END	n/a	n/a	-999	-999	n/a	n/a	n/a	n/a	6	[0, 0, 0]	-999	PAL1	4	R1365N
1197.104	0.0	732917	REC_START	n/a	n/a	2	6	NOSE	n/a	POLE	NOSE	6	[0, 0, 0]	-999	PAL1	4	R1365N
1197.104	0.103	732917	PROBE_START	n/a	wordpools/wordpool_EN.txt	2	6	NOSE	n/a	POLE	NOSE	6	[0, 0, 0]	-999	PAL1	4	R1365N
1197.207	3.92	733020	REC_EVENT	5938	n/a	3	5	STEAK	<>	WAVE	STEAK	6	[0, 0, 0]	-999	PAL1	4	R1365N
1201.127	1.0	736940	PROBE_END	n/a	n/a	2	6	NOSE	n/a	POLE	NOSE	6	[0, 0, 0]	-999	PAL1	4	R1365N
1202.127	0.011	737940	REC_END	n/a	n/a	2	6	NOSE	n/a	POLE	NOSE	6	[0, 0, 0]	-999	PAL1	4	R1365N
1202.138	0.0	737951	TRIAL_END	n/a	n/a	-999	-999	n/a	n/a	n/a	n/a	6	[0, 0, 0]	-999	PAL1	4	R1365N
1202.138	0.021	737951	RETRIEVAL_END	n/a	n/a	-999	-999	n/a	n/a	n/a	n/a	6	[0, 0, 0]	-999	PAL1	4	R1365N
1202.159	0.0	737972	TRIAL_START	n/a	n/a	-999	-999	n/a	n/a	n/a	n/a	6	[0, 0, 0]	-999	PAL1	4	R1365N
1202.159	0.0	737972	TRIAL	n/a	n/a	-999	-999	n/a	n/a	n/a	n/a	7	[0, 0, 0]	-999	PAL1	4	R1365N
1202.159	14.938	737972	WAITING_START	n/a	n/a	-999	-999	n/a	n/a	n/a	n/a	7	[0, 0, 0]	-999	PAL1	4	R1365N
1217.097	0.0	752910	WAITING_END	n/a	n/a	-999	-999	n/a	n/a	n/a	n/a	7	[0, 0, 0]	-999	PAL1	4	R1365N
1217.097	10.429	752910	COUNTDOWN_START	n/a	n/a	-999	-999	n/a	n/a	n/a	n/a	7	[0, 0, 0]	-999	PAL1	4	R1365N
1227.526	0.0	763339	COUNTDOWN_END	n/a	n/a	-999	-999	n/a	n/a	n/a	n/a	7	[0, 0, 0]	-999	PAL1	4	R1365N
1227.526	0.673	763339	ORIENT_START	n/a	n/a	-999	-999	n/a	n/a	n/a	n/a	7	[0, 0, 0]	-999	PAL1	4	R1365N
1228.199	0.0	764012	ORIENT_END	n/a	n/a	-999	-999	n/a	n/a	n/a	n/a	7	[0, 0, 0]	-999	PAL1	4	R1365N
1228.199	1.091	764012	ENCODING_START	n/a	n/a	-999	-999	n/a	n/a	n/a	n/a	7	[0, 0, 0]	-999	PAL1	4	R1365N
1229.29	4.026	765103	STUDY_PAIR	n/a	wordpools/wordpool_EN.txt	1	-999	n/a	LAWN	POND	LAWN	7	[0, 0, 0]	-999	PAL1	4	R1365N
1233.316	0.653	769128	STUDY_PAIR_OFF	n/a	n/a	1	-999	n/a	LAWN	POND	LAWN	7	[0, 0, 0]	-999	PAL1	4	R1365N
1233.969	4.031	769781	STUDY_PAIR	n/a	wordpools/wordpool_EN.txt	2	-999	n/a	n/a	SQUARE	SNAKE	7	[0, 0, 0]	-999	PAL1	4	R1365N
1238.0	0.549	773812	STUDY_PAIR_OFF	n/a	n/a	2	-999	n/a	n/a	SQUARE	SNAKE	7	[0, 0, 0]	-999	PAL1	4	R1365N
1238.549	4.035	774361	STUDY_PAIR	n/a	wordpools/wordpool_EN.txt	3	-999	n/a	THUMB	THUMB	DART	7	[0, 0, 0]	-999	PAL1	4	R1365N
1242.584	0.75	778396	STUDY_PAIR_OFF	n/a	n/a	3	-999	n/a	THUMB	THUMB	DART	7	[0, 0, 0]	-999	PAL1	4	R1365N
1243.334	4.035	779146	STUDY_PAIR	n/a	wordpools/wordpool_EN.txt	4	-999	n/a	PEN	PIN	BRIDGE	7	[0, 0, 0]	-999	PAL1	4	R1365N
1247.369	0.565	783181	STUDY_PAIR_OFF	n/a	n/a	4	-999	n/a	PEN	PIN	BRIDGE	7	[0, 0, 0]	-999	PAL1	4	R1365N
1247.934	4.035	783746	STUDY_PAIR	n/a	wordpools/wordpool_EN.txt	5	-999	n/a	FOX	SPRING	FOX	7	[0, 0, 0]	-999	PAL1	4	R1365N
1251.969	0.647	787781	STUDY_PAIR_OFF	n/a	n/a	5	-999	n/a	FOX	SPRING	FOX	7	[0, 0, 0]	-999	PAL1	4	R1365N
1252.616	4.037	788428	STUDY_PAIR	n/a	wordpools/wordpool_EN.txt	6	-999	n/a	n/a	GEESE	CROWN	7	[0, 0, 0]	-999	PAL1	4	R1365N
1256.653	0.001	792465	STUDY_PAIR_OFF	n/a	n/a	6	-999	n/a	n/a	GEESE	CROWN	7	[0, 0, 0]	-999	PAL1	4	R1365N
1256.654	0.0	792466	ENCODING_END	n/a	n/a	-999	-999	n/a	n/a	n/a	n/a	7	[0, 0, 0]	-999	PAL1	4	R1365N
1256.654	0.0	792466	MATH_START	n/a	n/a	-999	-999	n/a	n/a	n/a	n/a	7	[0, 0, 0]	-999	PAL1	4	R1365N
1256.654	0.016	792466	START	n/a	n/a	-999	-999	n/a	n/a	n/a	n/a	8	[-999, -999, -999]	-999	PAL1	4	R1365N
1256.67	5.784	792482	PROB	5747	n/a	-999	-999	n/a	n/a	n/a	n/a	8	[2, 8, 4]	14	PAL1	4	R1365N
1262.454	11.286	798266	PROB	11259	n/a	-999	-999	n/a	n/a	n/a	n/a	8	[6, 1, 9]	16	PAL1	4	R1365N
1273.74	7.908	809551	PROB	7908	n/a	-999	-999	n/a	n/a	n/a	n/a	8	[5, 6, 2]	11	PAL1	4	R1365N
1281.648	0.009	817459	STOP	n/a	n/a	-999	-999	n/a	n/a	n/a	n/a	8	[-999, -999, -999]	-999	PAL1	4	R1365N
1281.657	0.556	817468	MATH_END	n/a	n/a	-999	-999	n/a	n/a	n/a	n/a	7	[0, 0, 0]	-999	PAL1	4	R1365N
1282.213	0.002	818024	RETRIEVAL_START	n/a	n/a	-999	-999	n/a	n/a	n/a	n/a	7	[0, 0, 0]	-999	PAL1	4	R1365N
1282.215	0.276	818026	ORIENT_START	n/a	n/a	-999	-999	n/a	n/a	n/a	n/a	7	[0, 0, 0]	-999	PAL1	4	R1365N
1282.491	0.666	818302	ORIENT_END	n/a	n/a	-999	-999	n/a	n/a	n/a	n/a	7	[0, 0, 0]	-999	PAL1	4	R1365N
1283.157	0.0	818968	REC_START	n/a	n/a	1	1	POND	LAWN	POND	LAWN	7	[0, 0, 0]	-999	PAL1	4	R1365N
1283.157	2.331	818968	PROBE_START	n/a	wordpools/wordpool_EN.txt	1	1	POND	LAWN	POND	LAWN	7	[0, 0, 0]	-999	PAL1	4	R1365N
1285.488	1.704	821299	REC_EVENT	2331	n/a	1	1	POND	LAWN	POND	LAWN	7	[0, 0, 0]	-999	PAL1	4	R1365N
1287.192	0.999	823003	PROBE_END	n/a	n/a	1	1	POND	n/a	POND	LAWN	7	[0, 0, 0]	-999	PAL1	4	R1365N
1288.191	0.014	824002	REC_END	n/a	n/a	1	1	POND	n/a	POND	LAWN	7	[0, 0, 0]	-999	PAL1	4	R1365N
1288.205	0.27	824016	ORIENT_START	n/a	n/a	-999	-999	n/a	n/a	n/a	n/a	7	[0, 0, 0]	-999	PAL1	4	R1365N
1288.475	0.527	824286	ORIENT_END	n/a	n/a	-999	-999	n/a	n/a	n/a	n/a	7	[0, 0, 0]	-999	PAL1	4	R1365N
1289.002	0.0	824813	REC_START	n/a	n/a	2	2	SNAKE	n/a	SQUARE	SNAKE	7	[0, 0, 0]	-999	PAL1	4	R1365N
1289.002	4.024	824813	PROBE_START	n/a	wordpools/wordpool_EN.txt	2	2	SNAKE	n/a	SQUARE	SNAKE	7	[0, 0, 0]	-999	PAL1	4	R1365N
1293.026	1.0	828837	PROBE_END	n/a	n/a	2	2	SNAKE	n/a	SQUARE	SNAKE	7	[0, 0, 0]	-999	PAL1	4	R1365N
1294.026	0.011	829837	REC_END	n/a	n/a	2	2	SNAKE	n/a	SQUARE	SNAKE	7	[0, 0, 0]	-999	PAL1	4	R1365N
1294.037	0.273	829848	ORIENT_START	n/a	n/a	-999	-999	n/a	n/a	n/a	n/a	7	[0, 0, 0]	-999	PAL1	4	R1365N
1294.31	0.514	830121	ORIENT_END	n/a	n/a	-999	-999	n/a	n/a	n/a	n/a	7	[0, 0, 0]	-999	PAL1	4	R1365N
1294.824	0.009	830635	REC_EVENT	5822	n/a	2	2	SNAKE	<>	SQUARE	SNAKE	7	[0, 0, 0]	-999	PAL1	4	R1365N
1294.833	0.001	830644	REC_START	n/a	n/a	5	3	SPRING	FOX	SPRING	FOX	7	[0, 0, 0]	-999	PAL1	4	R1365N
1294.834	1.696	830645	PROBE_START	n/a	wordpools/wordpool_EN.txt	5	3	SPRING	FOX	SPRING	FOX	7	[0, 0, 0]	-999	PAL1	4	R1365N
1296.53	2.33	832341	REC_EVENT	1696	n/a	5	3	SPRING	FOX	SPRING	FOX	7	[0, 0, 0]	-999	PAL1	4	R1365N
1298.86	1.0	834671	PROBE_END	n/a	n/a	5	3	SPRING	n/a	SPRING	FOX	7	[0, 0, 0]	-999	PAL1	4	R1365N
1299.86	0.01	835671	REC_END	n/a	n/a	5	3	SPRING	n/a	SPRING	FOX	7	[0, 0, 0]	-999	PAL1	4	R1365N
1299.87	0.274	835681	ORIENT_START	n/a	n/a	-999	-999	n/a	n/a	n/a	n/a	7	[0, 0, 0]	-999	PAL1	4	R1365N
1300.144	0.56	835955	ORIENT_END	n/a	n/a	-999	-999	n/a	n/a	n/a	n/a	7	[0, 0, 0]	-999	PAL1	4	R1365N
1300.704	0.0	836515	PROBE_START	n/a	wordpools/wordpool_EN.txt	4	4	BRIDGE	PEN	PIN	BRIDGE	7	[0, 0, 0]	-999	PAL1	4	R1365N
1300.704	2.562	836515	REC_START	n/a	n/a	4	4	BRIDGE	PEN	PIN	BRIDGE	7	[0, 0, 0]	-999	PAL1	4	R1365N
1303.266	1.463	839077	REC_EVENT	2562	n/a	4	4	BRIDGE	PEN	PIN	BRIDGE	7	[0, 0, 0]	-999	PAL1	4	R1365N
1304.729	1.001	840540	PROBE_END	n/a	n/a	4	4	BRIDGE	n/a	PIN	BRIDGE	7	[0, 0, 0]	-999	PAL1	4	R1365N
1305.73	0.01	841541	REC_END	n/a	n/a	4	4	BRIDGE	n/a	PIN	BRIDGE	7	[0, 0, 0]	-999	PAL1	4	R1365N
1305.74	0.271	841551	ORIENT_START	n/a	n/a	-999	-999	n/a	n/a	n/a	n/a	7	[0, 0, 0]	-999	PAL1	4	R1365N
1306.011	0.518	841822	ORIENT_END	n/a	n/a	-999	-999	n/a	n/a	n/a	n/a	7	[0, 0, 0]	-999	PAL1	4	R1365N
1306.529	0.001	842339	REC_START	n/a	n/a	3	5	DART	THUMB	THUMB	DART	7	[0, 0, 0]	-999	PAL1	4	R1365N
1306.53	2.149	842340	PROBE_START	n/a	wordpools/wordpool_EN.txt	3	5	DART	THUMB	THUMB	DART	7	[0, 0, 0]	-999	PAL1	4	R1365N
1308.679	1.883	844489	REC_EVENT	2149	n/a	3	5	DART	THUMB	THUMB	DART	7	[0, 0, 0]	-999	PAL1	4	R1365N
1310.562	1.0	846372	PROBE_END	n/a	n/a	3	5	DART	n/a	THUMB	DART	7	[0, 0, 0]	-999	PAL1	4	R1365N
1311.562	0.012	847372	REC_END	n/a	n/a	3	5	DART	n/a	THUMB	DART	7	[0, 0, 0]	-999	PAL1	4	R1365N
1311.574	0.272	847384	ORIENT_START	n/a	n/a	-999	-999	n/a	n/a	n/a	n/a	7	[0, 0, 0]	-999	PAL1	4	R1365N
1311.846	0.683	847656	ORIENT_END	n/a	n/a	-999	-999	n/a	n/a	n/a	n/a	7	[0, 0, 0]	-999	PAL1	4	R1365N
1312.529	0.0	848339	PROBE_START	n/a	wordpools/wordpool_EN.txt	6	6	GEESE	n/a	GEESE	CROWN	7	[0, 0, 0]	-999	PAL1	4	R1365N
1312.529	4.034	848339	REC_START	n/a	n/a	6	6	GEESE	n/a	GEESE	CROWN	7	[0, 0, 0]	-999	PAL1	4	R1365N
1316.563	1.001	852373	PROBE_END	n/a	n/a	6	6	GEESE	n/a	GEESE	CROWN	7	[0, 0, 0]	-999	PAL1	4	R1365N
1317.564	0.011	853374	REC_END	n/a	n/a	6	6	GEESE	n/a	GEESE	CROWN	7	[0, 0, 0]	-999	PAL1	4	R1365N
1317.575	0.0	853385	RETRIEVAL_END	n/a	n/a	-999	-999	n/a	n/a	n/a	n/a	7	[0, 0, 0]	-999	PAL1	4	R1365N
1317.575	0.024	853385	TRIAL_END	n/a	n/a	-999	-999	n/a	n/a	n/a	n/a	7	[0, 0, 0]	-999	PAL1	4	R1365N
1317.599	0.0	853409	TRIAL_START	n/a	n/a	-999	-999	n/a	n/a	n/a	n/a	7	[0, 0, 0]	-999	PAL1	4	R1365N
1317.599	0.0	853409	TRIAL	n/a	n/a	-999	-999	n/a	n/a	n/a	n/a	8	[0, 0, 0]	-999	PAL1	4	R1365N
1317.599	4.632	853409	WAITING_START	n/a	n/a	-999	-999	n/a	n/a	n/a	n/a	8	[0, 0, 0]	-999	PAL1	4	R1365N
1322.231	0.0	858041	WAITING_END	n/a	n/a	-999	-999	n/a	n/a	n/a	n/a	8	[0, 0, 0]	-999	PAL1	4	R1365N
1322.231	10.43	858041	COUNTDOWN_START	n/a	n/a	-999	-999	n/a	n/a	n/a	n/a	8	[0, 0, 0]	-999	PAL1	4	R1365N
1332.661	0.0	868471	COUNTDOWN_END	n/a	n/a	-999	-999	n/a	n/a	n/a	n/a	8	[0, 0, 0]	-999	PAL1	4	R1365N
1332.661	0.672	868471	ORIENT_START	n/a	n/a	-999	-999	n/a	n/a	n/a	n/a	8	[0, 0, 0]	-999	PAL1	4	R1365N
1333.333	0.0	869143	ORIENT_END	n/a	n/a	-999	-999	n/a	n/a	n/a	n/a	8	[0, 0, 0]	-999	PAL1	4	R1365N
1333.333	1.162	869143	ENCODING_START	n/a	n/a	-999	-999	n/a	n/a	n/a	n/a	8	[0, 0, 0]	-999	PAL1	4	R1365N
1334.495	4.039	870305	STUDY_PAIR	n/a	wordpools/wordpool_EN.txt	1	-999	n/a	BOX	ICE	BOX	8	[0, 0, 0]	-999	PAL1	4	R1365N
1338.534	0.758	874344	STUDY_PAIR_OFF	n/a	n/a	1	-999	n/a	BOX	ICE	BOX	8	[0, 0, 0]	-999	PAL1	4	R1365N
1339.292	4.026	875102	STUDY_PAIR	n/a	wordpools/wordpool_EN.txt	2	-999	n/a	n/a	MAP	BREAD	8	[0, 0, 0]	-999	PAL1	4	R1365N
1343.318	0.602	879127	STUDY_PAIR_OFF	n/a	n/a	2	-999	n/a	n/a	MAP	BREAD	8	[0, 0, 0]	-999	PAL1	4	R1365N
1343.92	4.032	879729	STUDY_PAIR	n/a	wordpools/wordpool_EN.txt	3	-999	n/a	SHEEP	SHEEP	FLEA	8	[0, 0, 0]	-999	PAL1	4	R1365N
1347.952	0.571	883761	STUDY_PAIR_OFF	n/a	n/a	3	-999	n/a	SHEEP	SHEEP	FLEA	8	[0, 0, 0]	-999	PAL1	4	R1365N
1348.523	4.03	884332	STUDY_PAIR	n/a	wordpools/wordpool_EN.txt	4	-999	n/a	CAVE	DOLL	CAVE	8	[0, 0, 0]	-999	PAL1	4	R1365N
1352.553	0.747	888362	STUDY_PAIR_OFF	n/a	n/a	4	-999	n/a	CAVE	DOLL	CAVE	8	[0, 0, 0]	-999	PAL1	4	R1365N
1353.3	4.037	889109	STUDY_PAIR	n/a	wordpools/wordpool_EN.txt	5	-999	n/a	n/a	BEACH	JUDGE	8	[0, 0, 0]	-999	PAL1	4	R1365N
1357.337	0.671	893146	STUDY_PAIR_OFF	n/a	n/a	5	-999	n/a	n/a	BEACH	JUDGE	8	[0, 0, 0]	-999	PAL1	4	R1365N
1358.008	4.029	893817	STUDY_PAIR	n/a	wordpools/wordpool_EN.txt	6	-999	n/a	SEED	CAKE	SEED	8	[0, 0, 0]	-999	PAL1	4	R1365N
1362.037	0.001	897846	STUDY_PAIR_OFF	n/a	n/a	6	-999	n/a	SEED	CAKE	SEED	8	[0, 0, 0]	-999	PAL1	4	R1365N
1362.038	0.0	897847	ENCODING_END	n/a	n/a	-999	-999	n/a	n/a	n/a	n/a	8	[0, 0, 0]	-999	PAL1	4	R1365N
1362.038	0.001	897847	MATH_START	n/a	n/a	-999	-999	n/a	n/a	n/a	n/a	8	[0, 0, 0]	-999	PAL1	4	R1365N
1362.039	0.015	897848	START	n/a	n/a	-999	-999	n/a	n/a	n/a	n/a	9	[-999, -999, -999]	-999	PAL1	4	R1365N
1362.054	7.884	897863	PROB	7850	n/a	-999	-999	n/a	n/a	n/a	n/a	9	[1, 6, 1]	8	PAL1	4	R1365N
1369.938	3.168	905747	PROB	3134	n/a	-999	-999	n/a	n/a	n/a	n/a	9	[1, 4, 6]	11	PAL1	4	R1365N
1373.106	7.001	908915	PROB	6974	n/a	-999	-999	n/a	n/a	n/a	n/a	9	[7, 1, 8]	16	PAL1	4	R1365N
1380.107	5.67	915915	PROB	5670	n/a	-999	-999	n/a	n/a	n/a	n/a	9	[7, 3, 4]	14	PAL1	4	R1365N
1385.777	0.015	921585	STOP	n/a	n/a	-999	-999	n/a	n/a	n/a	n/a	9	[-999, -999, -999]	-999	PAL1	4	R1365N
1385.792	0.559	921600	MATH_END	n/a	n/a	-999	-999	n/a	n/a	n/a	n/a	8	[0, 0, 0]	-999	PAL1	4	R1365N
1386.351	0.001	922159	RETRIEVAL_START	n/a	n/a	-999	-999	n/a	n/a	n/a	n/a	8	[0, 0, 0]	-999	PAL1	4	R1365N
1386.352	0.273	922160	ORIENT_START	n/a	n/a	-999	-999	n/a	n/a	n/a	n/a	8	[0, 0, 0]	-999	PAL1	4	R1365N
1386.625	0.702	922433	ORIENT_END	n/a	n/a	-999	-999	n/a	n/a	n/a	n/a	8	[0, 0, 0]	-999	PAL1	4	R1365N
1387.327	0.0	923135	REC_START	n/a	n/a	1	1	ICE	BOX	ICE	BOX	8	[0, 0, 0]	-999	PAL1	4	R1365N
1387.327	2.034	923135	PROBE_START	n/a	wordpools/wordpool_EN.txt	1	1	ICE	BOX	ICE	BOX	8	[0, 0, 0]	-999	PAL1	4	R1365N
1389.361	1.998	925169	REC_EVENT	2034	n/a	1	1	ICE	BOX	ICE	BOX	8	[0, 0, 0]	-999	PAL1	4	R1365N
1391.359	1.001	927167	PROBE_END	n/a	n/a	1	1	ICE	n/a	ICE	BOX	8	[0, 0, 0]	-999	PAL1	4	R1365N
1392.36	0.012	928168	REC_END	n/a	n/a	1	1	ICE	n/a	ICE	BOX	8	[0, 0, 0]	-999	PAL1	4	R1365N
1392.372	0.27	928180	ORIENT_START	n/a	n/a	-999	-999	n/a	n/a	n/a	n/a	8	[0, 0, 0]	-999	PAL1	4	R1365N
1392.642	0.596	928450	ORIENT_END	n/a	n/a	-999	-999	n/a	n/a	n/a	n/a	8	[0, 0, 0]	-999	PAL1	4	R1365N
1393.238	0.0	929046	REC_START	n/a	n/a	6	2	CAKE	SEED	CAKE	SEED	8	[0, 0, 0]	-999	PAL1	4	R1365N
1393.238	1.723	929046	PROBE_START	n/a	wordpools/wordpool_EN.txt	6	2	CAKE	SEED	CAKE	SEED	8	[0, 0, 0]	-999	PAL1	4	R1365N
1394.961	2.316	930769	REC_EVENT	1723	n/a	6	2	CAKE	SEED	CAKE	SEED	8	[0, 0, 0]	-999	PAL1	4	R1365N
1397.277	1.0	933085	PROBE_END	n/a	n/a	6	2	CAKE	n/a	CAKE	SEED	8	[0, 0, 0]	-999	PAL1	4	R1365N
1398.277	0.011	934085	REC_END	n/a	n/a	6	2	CAKE	n/a	CAKE	SEED	8	[0, 0, 0]	-999	PAL1	4	R1365N
1398.288	0.272	934096	ORIENT_START	n/a	n/a	-999	-999	n/a	n/a	n/a	n/a	8	[0, 0, 0]	-999	PAL1	4	R1365N
1398.56	0.618	934368	ORIENT_END	n/a	n/a	-999	-999	n/a	n/a	n/a	n/a	8	[0, 0, 0]	-999	PAL1	4	R1365N
1399.178	0.0	934986	PROBE_START	n/a	wordpools/wordpool_EN.txt	3	3	FLEA	SHEEP	SHEEP	FLEA	8	[0, 0, 0]	-999	PAL1	4	R1365N
1399.178	2.67	934986	REC_START	n/a	n/a	3	3	FLEA	SHEEP	SHEEP	FLEA	8	[0, 0, 0]	-999	PAL1	4	R1365N
1401.848	1.346	937656	REC_EVENT	2670	n/a	3	3	FLEA	SHEEP	SHEEP	FLEA	8	[0, 0, 0]	-999	PAL1	4	R1365N
1403.194	1.001	939002	PROBE_END	n/a	n/a	3	3	FLEA	n/a	SHEEP	FLEA	8	[0, 0, 0]	-999	PAL1	4	R1365N
1404.195	0.012	940003	REC_END	n/a	n/a	3	3	FLEA	n/a	SHEEP	FLEA	8	[0, 0, 0]	-999	PAL1	4	R1365N
1404.207	0.271	940015	ORIENT_START	n/a	n/a	-999	-999	n/a	n/a	n/a	n/a	8	[0, 0, 0]	-999	PAL1	4	R1365N
1404.478	0.692	940286	ORIENT_END	n/a	n/a	-999	-999	n/a	n/a	n/a	n/a	8	[0, 0, 0]	-999	PAL1	4	R1365N
1405.17	0.0	940978	REC_START	n/a	n/a	2	4	BREAD	n/a	MAP	BREAD	8	[0, 0, 0]	-999	PAL1	4	R1365N
1405.17	4.025	940978	PROBE_START	n/a	wordpools/wordpool_EN.txt	2	4	BREAD	n/a	MAP	BREAD	8	[0, 0, 0]	-999	PAL1	4	R1365N
1409.195	1.0	945003	PROBE_END	n/a	n/a	2	4	BREAD	n/a	MAP	BREAD	8	[0, 0, 0]	-999	PAL1	4	R1365N
1410.195	0.01	946003	REC_END	n/a	n/a	2	4	BREAD	n/a	MAP	BREAD	8	[0, 0, 0]	-999	PAL1	4	R1365N
1410.205	0.274	946013	ORIENT_START	n/a	n/a	-999	-999	n/a	n/a	n/a	n/a	8	[0, 0, 0]	-999	PAL1	4	R1365N
1410.479	0.626	946287	ORIENT_END	n/a	n/a	-999	-999	n/a	n/a	n/a	n/a	8	[0, 0, 0]	-999	PAL1	4	R1365N
1411.105	0.001	946913	REC_START	n/a	n/a	5	5	JUDGE	n/a	BEACH	JUDGE	8	[0, 0, 0]	-999	PAL1	4	R1365N
1411.106	0.054	946914	PROBE_START	n/a	wordpools/wordpool_EN.txt	5	5	JUDGE	n/a	BEACH	JUDGE	8	[0, 0, 0]	-999	PAL1	4	R1365N
1411.16	3.969	946968	REC_EVENT	5990	n/a	2	4	BREAD	<>	MAP	BREAD	8	[0, 0, 0]	-999	PAL1	4	R1365N
1415.129	1.0	950937	PROBE_END	n/a	n/a	5	5	JUDGE	n/a	BEACH	JUDGE	8	[0, 0, 0]	-999	PAL1	4	R1365N
1416.129	0.012	951937	REC_END	n/a	n/a	5	5	JUDGE	n/a	BEACH	JUDGE	8	[0, 0, 0]	-999	PAL1	4	R1365N
1416.141	0.272	951949	ORIENT_START	n/a	n/a	-999	-999	n/a	n/a	n/a	n/a	8	[0, 0, 0]	-999	PAL1	4	R1365N
1416.413	0.682	952221	ORIENT_END	n/a	n/a	-999	-999	n/a	n/a	n/a	n/a	8	[0, 0, 0]	-999	PAL1	4	R1365N
1417.095	0.001	952902	REC_START	n/a	n/a	4	6	DOLL	CAVE	DOLL	CAVE	8	[0, 0, 0]	-999	PAL1	4	R1365N
1417.096	2.23	952903	PROBE_START	n/a	wordpools/wordpool_EN.txt	4	6	DOLL	CAVE	DOLL	CAVE	8	[0, 0, 0]	-999	PAL1	4	R1365N
1419.326	1.119	955133	REC_EVENT	2230	n/a	4	6	DOLL	<>	DOLL	CAVE	8	[0, 0, 0]	-999	PAL1	4	R1365N
1420.445	0.686	956252	REC_EVENT	3349	n/a	4	6	DOLL	CAVE	DOLL	CAVE	8	[0, 0, 0]	-999	PAL1	4	R1365N
1421.131	1.0	956938	PROBE_END	n/a	n/a	4	6	DOLL	n/a	DOLL	CAVE	8	[0, 0, 0]	-999	PAL1	4	R1365N
1422.131	0.01	957938	REC_END	n/a	n/a	4	6	DOLL	n/a	DOLL	CAVE	8	[0, 0, 0]	-999	PAL1	4	R1365N
1422.141	0.001	957948	RETRIEVAL_END	n/a	n/a	-999	-999	n/a	n/a	n/a	n/a	8	[0, 0, 0]	-999	PAL1	4	R1365N
1422.142	0.021	957949	TRIAL_END	n/a	n/a	-999	-999	n/a	n/a	n/a	n/a	8	[0, 0, 0]	-999	PAL1	4	R1365N
1422.163	0.0	957970	TRIAL_START	n/a	n/a	-999	-999	n/a	n/a	n/a	n/a	8	[0, 0, 0]	-999	PAL1	4	R1365N
1422.163	0.0	957970	TRIAL	n/a	n/a	-999	-999	n/a	n/a	n/a	n/a	9	[0, 0, 0]	-999	PAL1	4	R1365N
1422.163	2.569	957970	WAITING_START	n/a	n/a	-999	-999	n/a	n/a	n/a	n/a	9	[0, 0, 0]	-999	PAL1	4	R1365N
1424.732	0.001	960539	WAITING_END	n/a	n/a	-999	-999	n/a	n/a	n/a	n/a	9	[0, 0, 0]	-999	PAL1	4	R1365N
1424.733	10.429	960540	COUNTDOWN_START	n/a	n/a	-999	-999	n/a	n/a	n/a	n/a	9	[0, 0, 0]	-999	PAL1	4	R1365N
1435.162	0.001	970969	COUNTDOWN_END	n/a	n/a	-999	-999	n/a	n/a	n/a	n/a	9	[0, 0, 0]	-999	PAL1	4	R1365N
1435.163	0.604	970970	ORIENT_START	n/a	n/a	-999	-999	n/a	n/a	n/a	n/a	9	[0, 0, 0]	-999	PAL1	4	R1365N
1435.767	0.001	971574	ORIENT_END	n/a	n/a	-999	-999	n/a	n/a	n/a	n/a	9	[0, 0, 0]	-999	PAL1	4	R1365N
1435.768	1.149	971575	ENCODING_START	n/a	n/a	-999	-999	n/a	n/a	n/a	n/a	9	[0, 0, 0]	-999	PAL1	4	R1365N
1436.917	4.033	972724	STUDY_PAIR	n/a	wordpools/wordpool_EN.txt	1	-999	n/a	SLEEVE	SLEEVE	PEAR	9	[0, 0, 0]	-999	PAL1	4	R1365N
1440.95	0.707	976757	STUDY_PAIR_OFF	n/a	n/a	1	-999	n/a	SLEEVE	SLEEVE	PEAR	9	[0, 0, 0]	-999	PAL1	4	R1365N
1441.657	4.029	977464	STUDY_PAIR	n/a	wordpools/wordpool_EN.txt	2	-999	n/a	n/a	PLANE	PANTS	9	[0, 0, 0]	-999	PAL1	4	R1365N
1445.686	0.565	981493	STUDY_PAIR_OFF	n/a	n/a	2	-999	n/a	n/a	PLANE	PANTS	9	[0, 0, 0]	-999	PAL1	4	R1365N
1446.251	4.034	982058	STUDY_PAIR	n/a	wordpools/wordpool_EN.txt	3	-999	n/a	n/a	EEL	ARK	9	[0, 0, 0]	-999	PAL1	4	R1365N
1450.285	0.585	986092	STUDY_PAIR_OFF	n/a	n/a	3	-999	n/a	n/a	EEL	ARK	9	[0, 0, 0]	-999	PAL1	4	R1365N
1450.87	4.033	986677	STUDY_PAIR	n/a	wordpools/wordpool_EN.txt	4	-999	n/a	n/a	JAR	CASH	9	[0, 0, 0]	-999	PAL1	4	R1365N
1454.903	0.723	990709	STUDY_PAIR_OFF	n/a	n/a	4	-999	n/a	n/a	JAR	CASH	9	[0, 0, 0]	-999	PAL1	4	R1365N
1455.626	4.028	991432	STUDY_PAIR	n/a	wordpools/wordpool_EN.txt	5	-999	n/a	BAG	ROCK	BAG	9	[0, 0, 0]	-999	PAL1	4	R1365N
1459.654	0.611	995460	STUDY_PAIR_OFF	n/a	n/a	5	-999	n/a	BAG	ROCK	BAG	9	[0, 0, 0]	-999	PAL1	4	R1365N
1460.265	4.039	996071	STUDY_PAIR	n/a	wordpools/wordpool_EN.txt	6	-999	n/a	PIG	TAIL	PIG	9	[0, 0, 0]	-999	PAL1	4	R1365N
1464.304	0.001	1000110	STUDY_PAIR_OFF	n/a	n/a	6	-999	n/a	PIG	TAIL	PIG	9	[0, 0, 0]	-999	PAL1	4	R1365N
1464.305	0.0	1000111	ENCODING_END	n/a	n/a	-999	-999	n/a	n/a	n/a	n/a	9	[0, 0, 0]	-999	PAL1	4	R1365N
1464.305	0.001	1000111	MATH_START	n/a	n/a	-999	-999	n/a	n/a	n/a	n/a	9	[0, 0, 0]	-999	PAL1	4	R1365N
1464.306	0.015	1000112	START	n/a	n/a	-999	-999	n/a	n/a	n/a	n/a	10	[-999, -999, -999]	-999	PAL1	4	R1365N
1464.321	5.317	1000127	PROB	5287	n/a	-999	-999	n/a	n/a	n/a	n/a	10	[6, 7, 3]	16	PAL1	4	R1365N
1469.638	4.152	1005444	PROB	4115	n/a	-999	-999	n/a	n/a	n/a	n/a	10	[8, 5, 9]	22	PAL1	4	R1365N
1473.79	5.683	1009596	PROB	5650	n/a	-999	-999	n/a	n/a	n/a	n/a	10	[2, 4, 4]	10	PAL1	4	R1365N
1479.473	6.112	1015279	PROB	6112	n/a	-999	-999	n/a	n/a	n/a	n/a	10	[1, 5, 9]	15	PAL1	4	R1365N
1485.585	0.006	1021391	STOP	n/a	n/a	-999	-999	n/a	n/a	n/a	n/a	10	[-999, -999, -999]	-999	PAL1	4	R1365N
1485.591	0.69	1021397	MATH_END	n/a	n/a	-999	-999	n/a	n/a	n/a	n/a	9	[0, 0, 0]	-999	PAL1	4	R1365N
1486.281	0.002	1022087	RETRIEVAL_START	n/a	n/a	-999	-999	n/a	n/a	n/a	n/a	9	[0, 0, 0]	-999	PAL1	4	R1365N
1486.283	0.275	1022089	ORIENT_START	n/a	n/a	-999	-999	n/a	n/a	n/a	n/a	9	[0, 0, 0]	-999	PAL1	4	R1365N
1486.558	0.655	1022364	ORIENT_END	n/a	n/a	-999	-999	n/a	n/a	n/a	n/a	9	[0, 0, 0]	-999	PAL1	4	R1365N
1487.213	0.001	1023019	REC_START	n/a	n/a	5	1	ROCK	BAG	ROCK	BAG	9	[0, 0, 0]	-999	PAL1	4	R1365N
1487.214	3.323	1023020	PROBE_START	n/a	wordpools/wordpool_EN.txt	5	1	ROCK	BAG	ROCK	BAG	9	[0, 0, 0]	-999	PAL1	4	R1365N
1490.537	0.705	1026342	REC_EVENT	3323	n/a	5	1	ROCK	BAG	ROCK	BAG	9	[0, 0, 0]	-999	PAL1	4	R1365N
1491.242	1.0	1027047	PROBE_END	n/a	n/a	5	1	ROCK	n/a	ROCK	BAG	9	[0, 0, 0]	-999	PAL1	4	R1365N
1492.242	0.014	1028047	REC_END	n/a	n/a	5	1	ROCK	n/a	ROCK	BAG	9	[0, 0, 0]	-999	PAL1	4	R1365N
1492.256	0.27	1028061	ORIENT_START	n/a	n/a	-999	-999	n/a	n/a	n/a	n/a	9	[0, 0, 0]	-999	PAL1	4	R1365N
1492.526	0.743	1028331	ORIENT_END	n/a	n/a	-999	-999	n/a	n/a	n/a	n/a	9	[0, 0, 0]	-999	PAL1	4	R1365N
1493.269	0.0	1029074	PROBE_START	n/a	wordpools/wordpool_EN.txt	2	2	PLANE	n/a	PLANE	PANTS	9	[0, 0, 0]	-999	PAL1	4	R1365N
1493.269	4.024	1029074	REC_START	n/a	n/a	2	2	PLANE	n/a	PLANE	PANTS	9	[0, 0, 0]	-999	PAL1	4	R1365N
1497.293	1.0	1033098	PROBE_END	n/a	n/a	2	2	PLANE	n/a	PLANE	PANTS	9	[0, 0, 0]	-999	PAL1	4	R1365N
1498.293	0.007	1034098	REC_END	n/a	n/a	2	2	PLANE	n/a	PLANE	PANTS	9	[0, 0, 0]	-999	PAL1	4	R1365N
1498.3	0.277	1034105	ORIENT_START	n/a	n/a	-999	-999	n/a	n/a	n/a	n/a	9	[0, 0, 0]	-999	PAL1	4	R1365N
1498.577	0.609	1034382	ORIENT_END	n/a	n/a	-999	-999	n/a	n/a	n/a	n/a	9	[0, 0, 0]	-999	PAL1	4	R1365N
1499.186	0.0	1034991	REC_START	n/a	n/a	1	3	PEAR	SLEEVE	SLEEVE	PEAR	9	[0, 0, 0]	-999	PAL1	4	R1365N
1499.186	2.056	1034991	PROBE_START	n/a	wordpools/wordpool_EN.txt	1	3	PEAR	SLEEVE	SLEEVE	PEAR	9	[0, 0, 0]	-999	PAL1	4	R1365N
1501.242	1.969	1037047	REC_EVENT	2056	n/a	1	3	PEAR	SLEEVE	SLEEVE	PEAR	9	[0, 0, 0]	-999	PAL1	4	R1365N
1503.211	1.001	1039016	PROBE_END	n/a	n/a	1	3	PEAR	n/a	SLEEVE	PEAR	9	[0, 0, 0]	-999	PAL1	4	R1365N
1504.212	0.011	1040017	REC_END	n/a	n/a	1	3	PEAR	n/a	SLEEVE	PEAR	9	[0, 0, 0]	-999	PAL1	4	R1365N
1504.223	0.271	1040028	ORIENT_START	n/a	n/a	-999	-999	n/a	n/a	n/a	n/a	9	[0, 0, 0]	-999	PAL1	4	R1365N
1504.494	0.618	1040299	ORIENT_END	n/a	n/a	-999	-999	n/a	n/a	n/a	n/a	9	[0, 0, 0]	-999	PAL1	4	R1365N
1505.112	0.001	1040917	REC_START	n/a	n/a	4	4	CASH	n/a	JAR	CASH	9	[0, 0, 0]	-999	PAL1	4	R1365N
1505.113	4.032	1040918	PROBE_START	n/a	wordpools/wordpool_EN.txt	4	4	CASH	n/a	JAR	CASH	9	[0, 0, 0]	-999	PAL1	4	R1365N
1509.145	1.001	1044950	PROBE_END	n/a	n/a	4	4	CASH	n/a	JAR	CASH	9	[0, 0, 0]	-999	PAL1	4	R1365N
1510.146	0.013	1045951	REC_END	n/a	n/a	4	4	CASH	n/a	JAR	CASH	9	[0, 0, 0]	-999	PAL1	4	R1365N
1510.159	0.27	1045964	ORIENT_START	n/a	n/a	-999	-999	n/a	n/a	n/a	n/a	9	[0, 0, 0]	-999	PAL1	4	R1365N
1510.429	0.598	1046234	ORIENT_END	n/a	n/a	-999	-999	n/a	n/a	n/a	n/a	9	[0, 0, 0]	-999	PAL1	4	R1365N
1511.027	0.001	1046832	REC_START	n/a	n/a	3	5	ARK	n/a	EEL	ARK	9	[0, 0, 0]	-999	PAL1	4	R1365N
1511.028	0.011	1046833	PROBE_START	n/a	wordpools/wordpool_EN.txt	3	5	ARK	n/a	EEL	ARK	9	[0, 0, 0]	-999	PAL1	4	R1365N
1511.039	4.024	1046844	REC_EVENT	5926	n/a	4	4	CASH	<>	JAR	CASH	9	[0, 0, 0]	-999	PAL1	4	R1365N
1515.063	0.999	1050868	PROBE_END	n/a	n/a	3	5	ARK	n/a	EEL	ARK	9	[0, 0, 0]	-999	PAL1	4	R1365N
1516.062	0.011	1051867	REC_END	n/a	n/a	3	5	ARK	n/a	EEL	ARK	9	[0, 0, 0]	-999	PAL1	4	R1365N
1516.073	0.273	1051878	ORIENT_START	n/a	n/a	-999	-999	n/a	n/a	n/a	n/a	9	[0, 0, 0]	-999	PAL1	4	R1365N
1516.346	0.72	1052151	ORIENT_END	n/a	n/a	-999	-999	n/a	n/a	n/a	n/a	9	[0, 0, 0]	-999	PAL1	4	R1365N
1517.066	0.0	1052871	PROBE_START	n/a	wordpools/wordpool_EN.txt	6	6	TAIL	PIG	TAIL	PIG	9	[0, 0, 0]	-999	PAL1	4	R1365N
1517.066	2.108	1052871	REC_START	n/a	n/a	6	6	TAIL	PIG	TAIL	PIG	9	[0, 0, 0]	-999	PAL1	4	R1365N
1519.174	1.923	1054979	REC_EVENT	2108	n/a	6	6	TAIL	PIG	TAIL	PIG	9	[0, 0, 0]	-999	PAL1	4	R1365N
1521.097	1.0	1056902	PROBE_END	n/a	n/a	6	6	TAIL	n/a	TAIL	PIG	9	[0, 0, 0]	-999	PAL1	4	R1365N
1522.097	0.011	1057902	REC_END	n/a	n/a	6	6	TAIL	n/a	TAIL	PIG	9	[0, 0, 0]	-999	PAL1	4	R1365N
1522.108	0.0	1057913	RETRIEVAL_END	n/a	n/a	-999	-999	n/a	n/a	n/a	n/a	9	[0, 0, 0]	-999	PAL1	4	R1365N
1522.108	0.021	1057913	TRIAL_END	n/a	n/a	-999	-999	n/a	n/a	n/a	n/a	9	[0, 0, 0]	-999	PAL1	4	R1365N
1522.129	0.0	1057934	TRIAL_START	n/a	n/a	-999	-999	n/a	n/a	n/a	n/a	9	[0, 0, 0]	-999	PAL1	4	R1365N
1522.129	0.001	1057934	TRIAL	n/a	n/a	-999	-999	n/a	n/a	n/a	n/a	10	[0, 0, 0]	-999	PAL1	4	R1365N
1522.13	2.885	1057935	WAITING_START	n/a	n/a	-999	-999	n/a	n/a	n/a	n/a	10	[0, 0, 0]	-999	PAL1	4	R1365N
1525.015	0.0	1060820	WAITING_END	n/a	n/a	-999	-999	n/a	n/a	n/a	n/a	10	[0, 0, 0]	-999	PAL1	4	R1365N
1525.015	10.428	1060820	COUNTDOWN_START	n/a	n/a	-999	-999	n/a	n/a	n/a	n/a	10	[0, 0, 0]	-999	PAL1	4	R1365N
1535.443	0.0	1071247	ORIENT_START	n/a	n/a	-999	-999	n/a	n/a	n/a	n/a	10	[0, 0, 0]	-999	PAL1	4	R1365N
1535.443	0.607	1071247	COUNTDOWN_END	n/a	n/a	-999	-999	n/a	n/a	n/a	n/a	10	[0, 0, 0]	-999	PAL1	4	R1365N
1536.05	0.0	1071854	ENCODING_START	n/a	n/a	-999	-999	n/a	n/a	n/a	n/a	10	[0, 0, 0]	-999	PAL1	4	R1365N
1536.05	1.206	1071854	ORIENT_END	n/a	n/a	-999	-999	n/a	n/a	n/a	n/a	10	[0, 0, 0]	-999	PAL1	4	R1365N
1537.256	4.028	1073060	STUDY_PAIR	n/a	wordpools/wordpool_EN.txt	1	-999	n/a	SOUP	SOUP	ROOT	10	[0, 0, 0]	-999	PAL1	4	R1365N
1541.284	0.717	1077088	STUDY_PAIR_OFF	n/a	n/a	1	-999	n/a	SOUP	SOUP	ROOT	10	[0, 0, 0]	-999	PAL1	4	R1365N
1542.001	4.034	1077805	STUDY_PAIR	n/a	wordpools/wordpool_EN.txt	2	-999	n/a	n/a	MUD	PALM	10	[0, 0, 0]	-999	PAL1	4	R1365N
1546.035	0.549	1081839	STUDY_PAIR_OFF	n/a	n/a	2	-999	n/a	n/a	MUD	PALM	10	[0, 0, 0]	-999	PAL1	4	R1365N
1546.584	4.035	1082388	STUDY_PAIR	n/a	wordpools/wordpool_EN.txt	3	-999	n/a	EGG	EGG	NET	10	[0, 0, 0]	-999	PAL1	4	R1365N
1550.619	0.56	1086423	STUDY_PAIR_OFF	n/a	n/a	3	-999	n/a	EGG	EGG	NET	10	[0, 0, 0]	-999	PAL1	4	R1365N
1551.179	4.04	1086983	STUDY_PAIR	n/a	wordpools/wordpool_EN.txt	4	-999	n/a	n/a	CHAIR	FORT	10	[0, 0, 0]	-999	PAL1	4	R1365N
1555.219	0.635	1091023	STUDY_PAIR_OFF	n/a	n/a	4	-999	n/a	n/a	CHAIR	FORT	10	[0, 0, 0]	-999	PAL1	4	R1365N
1555.854	4.033	1091658	STUDY_PAIR	n/a	wordpools/wordpool_EN.txt	5	-999	n/a	COIN	ZOO	COIN	10	[0, 0, 0]	-999	PAL1	4	R1365N
1559.887	0.609	1095691	STUDY_PAIR_OFF	n/a	n/a	5	-999	n/a	COIN	ZOO	COIN	10	[0, 0, 0]	-999	PAL1	4	R1365N
1560.496	4.025	1096300	STUDY_PAIR	n/a	wordpools/wordpool_EN.txt	6	-999	n/a	n/a	VINE	FUDGE	10	[0, 0, 0]	-999	PAL1	4	R1365N
1564.521	0.0	1100324	ENCODING_END	n/a	n/a	-999	-999	n/a	n/a	n/a	n/a	10	[0, 0, 0]	-999	PAL1	4	R1365N
1564.521	0.001	1100324	STUDY_PAIR_OFF	n/a	n/a	6	-999	n/a	n/a	VINE	FUDGE	10	[0, 0, 0]	-999	PAL1	4	R1365N
1564.522	0.0	1100325	MATH_START	n/a	n/a	-999	-999	n/a	n/a	n/a	n/a	10	[0, 0, 0]	-999	PAL1	4	R1365N
1564.522	0.015	1100325	START	n/a	n/a	-999	-999	n/a	n/a	n/a	n/a	11	[-999, -999, -999]	-999	PAL1	4	R1365N
1564.537	9.186	1100340	PROB	9160	n/a	-999	-999	n/a	n/a	n/a	n/a	11	[2, 6, 7]	15	PAL1	4	R1365N
1573.723	7.584	1109526	PROB	7557	n/a	-999	-999	n/a	n/a	n/a	n/a	11	[1, 6, 8]	15	PAL1	4	R1365N
1581.307	6.447	1117110	PROB	6447	n/a	-999	-999	n/a	n/a	n/a	n/a	11	[3, 9, 3]	15	PAL1	4	R1365N
1587.754	0.022	1123557	STOP	n/a	n/a	-999	-999	n/a	n/a	n/a	n/a	11	[-999, -999, -999]	-999	PAL1	4	R1365N
1587.776	0.67	1123579	MATH_END	n/a	n/a	-999	-999	n/a	n/a	n/a	n/a	10	[0, 0, 0]	-999	PAL1	4	R1365N
1588.446	0.002	1124249	RETRIEVAL_START	n/a	n/a	-999	-999	n/a	n/a	n/a	n/a	10	[0, 0, 0]	-999	PAL1	4	R1365N
1588.448	0.278	1124251	ORIENT_START	n/a	n/a	-999	-999	n/a	n/a	n/a	n/a	10	[0, 0, 0]	-999	PAL1	4	R1365N
1588.726	0.575	1124529	ORIENT_END	n/a	n/a	-999	-999	n/a	n/a	n/a	n/a	10	[0, 0, 0]	-999	PAL1	4	R1365N
1589.301	0.0	1125104	REC_START	n/a	n/a	3	1	NET	EGG	EGG	NET	10	[0, 0, 0]	-999	PAL1	4	R1365N
1589.301	2.194	1125104	PROBE_START	n/a	wordpools/wordpool_EN.txt	3	1	NET	EGG	EGG	NET	10	[0, 0, 0]	-999	PAL1	4	R1365N
1591.495	1.831	1127298	REC_EVENT	2194	n/a	3	1	NET	EGG	EGG	NET	10	[0, 0, 0]	-999	PAL1	4	R1365N
1593.326	0.999	1129129	PROBE_END	n/a	n/a	3	1	NET	n/a	EGG	NET	10	[0, 0, 0]	-999	PAL1	4	R1365N
1594.325	0.012	1130128	REC_END	n/a	n/a	3	1	NET	n/a	EGG	NET	10	[0, 0, 0]	-999	PAL1	4	R1365N
1594.337	0.272	1130140	ORIENT_START	n/a	n/a	-999	-999	n/a	n/a	n/a	n/a	10	[0, 0, 0]	-999	PAL1	4	R1365N
1594.609	0.613	1130412	ORIENT_END	n/a	n/a	-999	-999	n/a	n/a	n/a	n/a	10	[0, 0, 0]	-999	PAL1	4	R1365N
1595.222	0.001	1131025	REC_START	n/a	n/a	4	2	CHAIR	n/a	CHAIR	FORT	10	[0, 0, 0]	-999	PAL1	4	R1365N
1595.223	4.02	1131026	PROBE_START	n/a	wordpools/wordpool_EN.txt	4	2	CHAIR	n/a	CHAIR	FORT	10	[0, 0, 0]	-999	PAL1	4	R1365N
1599.243	1.0	1135046	PROBE_END	n/a	n/a	4	2	CHAIR	n/a	CHAIR	FORT	10	[0, 0, 0]	-999	PAL1	4	R1365N
1600.243	0.013	1136046	REC_END	n/a	n/a	4	2	CHAIR	n/a	CHAIR	FORT	10	[0, 0, 0]	-999	PAL1	4	R1365N
1600.256	0.271	1136059	ORIENT_START	n/a	n/a	-999	-999	n/a	n/a	n/a	n/a	10	[0, 0, 0]	-999	PAL1	4	R1365N
1600.527	0.599	1136329	ORIENT_END	n/a	n/a	-999	-999	n/a	n/a	n/a	n/a	10	[0, 0, 0]	-999	PAL1	4	R1365N
1601.126	0.044	1136928	REC_EVENT	5903	n/a	4	2	CHAIR	<>	CHAIR	FORT	10	[0, 0, 0]	-999	PAL1	4	R1365N
1601.17	0.0	1136972	REC_START	n/a	n/a	5	3	ZOO	COIN	ZOO	COIN	10	[0, 0, 0]	-999	PAL1	4	R1365N
1601.17	2.132	1136972	PROBE_START	n/a	wordpools/wordpool_EN.txt	5	3	ZOO	COIN	ZOO	COIN	10	[0, 0, 0]	-999	PAL1	4	R1365N
1603.302	1.892	1139104	REC_EVENT	2132	n/a	5	3	ZOO	COIN	ZOO	COIN	10	[0, 0, 0]	-999	PAL1	4	R1365N
1605.194	1.0	1140996	PROBE_END	n/a	n/a	5	3	ZOO	n/a	ZOO	COIN	10	[0, 0, 0]	-999	PAL1	4	R1365N
1606.194	0.011	1141996	REC_END	n/a	n/a	5	3	ZOO	n/a	ZOO	COIN	10	[0, 0, 0]	-999	PAL1	4	R1365N
1606.205	0.273	1142007	ORIENT_START	n/a	n/a	-999	-999	n/a	n/a	n/a	n/a	10	[0, 0, 0]	-999	PAL1	4	R1365N
1606.478	0.615	1142280	ORIENT_END	n/a	n/a	-999	-999	n/a	n/a	n/a	n/a	10	[0, 0, 0]	-999	PAL1	4	R1365N
1607.093	0.0	1142895	REC_START	n/a	n/a	2	4	PALM	n/a	MUD	PALM	10	[0, 0, 0]	-999	PAL1	4	R1365N
1607.093	4.036	1142895	PROBE_START	n/a	wordpools/wordpool_EN.txt	2	4	PALM	n/a	MUD	PALM	10	[0, 0, 0]	-999	PAL1	4	R1365N
1611.129	0.999	1146931	PROBE_END	n/a	n/a	2	4	PALM	n/a	MUD	PALM	10	[0, 0, 0]	-999	PAL1	4	R1365N
1612.128	0.012	1147930	REC_END	n/a	n/a	2	4	PALM	n/a	MUD	PALM	10	[0, 0, 0]	-999	PAL1	4	R1365N
1612.14	0.272	1147942	ORIENT_START	n/a	n/a	-999	-999	n/a	n/a	n/a	n/a	10	[0, 0, 0]	-999	PAL1	4	R1365N
1612.412	0.629	1148214	ORIENT_END	n/a	n/a	-999	-999	n/a	n/a	n/a	n/a	10	[0, 0, 0]	-999	PAL1	4	R1365N
1613.041	0.0	1148843	REC_START	n/a	n/a	1	5	ROOT	SOUP	SOUP	ROOT	10	[0, 0, 0]	-999	PAL1	4	R1365N
1613.041	2.804	1148843	PROBE_START	n/a	wordpools/wordpool_EN.txt	1	5	ROOT	SOUP	SOUP	ROOT	10	[0, 0, 0]	-999	PAL1	4	R1365N
1615.845	1.235	1151647	REC_EVENT	2804	n/a	1	5	ROOT	SOUP	SOUP	ROOT	10	[0, 0, 0]	-999	PAL1	4	R1365N
1617.08	0.999	1152882	PROBE_END	n/a	n/a	1	5	ROOT	n/a	SOUP	ROOT	10	[0, 0, 0]	-999	PAL1	4	R1365N
1618.079	0.011	1153881	REC_END	n/a	n/a	1	5	ROOT	n/a	SOUP	ROOT	10	[0, 0, 0]	-999	PAL1	4	R1365N
1618.09	0.273	1153892	ORIENT_START	n/a	n/a	-999	-999	n/a	n/a	n/a	n/a	10	[0, 0, 0]	-999	PAL1	4	R1365N
1618.363	0.529	1154165	ORIENT_END	n/a	n/a	-999	-999	n/a	n/a	n/a	n/a	10	[0, 0, 0]	-999	PAL1	4	R1365N
1618.892	0.001	1154694	REC_START	n/a	n/a	6	6	VINE	n/a	VINE	FUDGE	10	[0, 0, 0]	-999	PAL1	4	R1365N
1618.893	4.038	1154695	PROBE_START	n/a	wordpools/wordpool_EN.txt	6	6	VINE	n/a	VINE	FUDGE	10	[0, 0, 0]	-999	PAL1	4	R1365N
1622.931	1.0	1158733	PROBE_END	n/a	n/a	6	6	VINE	n/a	VINE	FUDGE	10	[0, 0, 0]	-999	PAL1	4	R1365N
1623.931	0.01	1159733	REC_END	n/a	n/a	6	6	VINE	n/a	VINE	FUDGE	10	[0, 0, 0]	-999	PAL1	4	R1365N
1623.941	0.0	1159743	RETRIEVAL_END	n/a	n/a	-999	-999	n/a	n/a	n/a	n/a	10	[0, 0, 0]	-999	PAL1	4	R1365N
1623.941	0.021	1159743	TRIAL_END	n/a	n/a	-999	-999	n/a	n/a	n/a	n/a	10	[0, 0, 0]	-999	PAL1	4	R1365N
1623.962	0.0	1159764	TRIAL_START	n/a	n/a	-999	-999	n/a	n/a	n/a	n/a	10	[0, 0, 0]	-999	PAL1	4	R1365N
1623.962	0.0	1159764	TRIAL	n/a	n/a	-999	-999	n/a	n/a	n/a	n/a	11	[0, 0, 0]	-999	PAL1	4	R1365N
1623.962	0.77	1159764	WAITING_START	n/a	n/a	-999	-999	n/a	n/a	n/a	n/a	11	[0, 0, 0]	-999	PAL1	4	R1365N
1624.732	26.137	1160534	REC_EVENT	5839	n/a	6	6	VINE	<>	VINE	FUDGE	10	[0, 0, 0]	-999	PAL1	4	R1365N
1650.869	0.0	1186670	WAITING_END	n/a	n/a	-999	-999	n/a	n/a	n/a	n/a	11	[0, 0, 0]	-999	PAL1	4	R1365N
1650.869	0.0	1186670	COUNTDOWN_START	n/a	n/a	-999	-999	n/a	n/a	n/a	n/a	11	[0, 0, 0]	-999	PAL1	4	R1365N
