onset	duration	sample	trial_type	response_time	stim_file	serialpos	probepos	probe_word	resp_word	study_1	study_2	list	test	answer	experiment	session	subject
0.0	67.583	1901	INSTRUCT_START	n/a	n/a	-999	-999	n/a	n/a	n/a	n/a	-1	[0, 0, 0]	-999	PAL1	0	R1333N
67.583	2.601	69482	INSTRUCT_END	n/a	n/a	-999	-999	n/a	n/a	n/a	n/a	-1	[0, 0, 0]	-999	PAL1	0	R1333N
70.184	7.233	72083	MIC TEST_START	n/a	n/a	-999	-999	n/a	n/a	n/a	n/a	-1	[0, 0, 0]	-999	PAL1	0	R1333N
77.417	0.012	79315	MIC TEST_END	n/a	n/a	-999	-999	n/a	n/a	n/a	n/a	-1	[0, 0, 0]	-999	PAL1	0	R1333N
77.429	0.0	79327	TRIAL_START	n/a	n/a	-999	-999	n/a	n/a	n/a	n/a	-1	[0, 0, 0]	-999	PAL1	0	R1333N
77.429	0.0	79327	TRIAL	n/a	n/a	-999	-999	n/a	n/a	n/a	n/a	-1	[0, 0, 0]	-999	PAL1	0	R1333N
77.429	2.456	79327	WAITING_START	n/a	n/a	-999	-999	n/a	n/a	n/a	n/a	-1	[0, 0, 0]	-999	PAL1	0	R1333N
79.885	0.0	81783	WAITING_END	n/a	n/a	-999	-999	n/a	n/a	n/a	n/a	-1	[0, 0, 0]	-999	PAL1	0	R1333N
79.885	10.0	81783	COUNTDOWN_START	n/a	n/a	-999	-999	n/a	n/a	n/a	n/a	-1	[0, 0, 0]	-999	PAL1	0	R1333N
90.315	0.001	92213	COUNTDOWN_END	n/a	n/a	-999	-999	n/a	n/a	n/a	n/a	-1	[0, 0, 0]	-999	PAL1	0	R1333N
90.316	0.622	92214	ORIENT_START	n/a	n/a	-999	-999	n/a	n/a	n/a	n/a	-1	[0, 0, 0]	-999	PAL1	0	R1333N
90.938	0.001	92836	ORIENT_END	n/a	n/a	-999	-999	n/a	n/a	n/a	n/a	-1	[0, 0, 0]	-999	PAL1	0	R1333N
90.939	1.016	92837	ENCODING_START	n/a	n/a	-999	-999	n/a	n/a	n/a	n/a	-1	[0, 0, 0]	-999	PAL1	0	R1333N
91.955	4.0	93853	STUDY_PAIR	n/a	n/a	1	-999	n/a	n/a	WAGON	RING	-1	[0, 0, 0]	-999	PAL1	0	R1333N
95.988	0.565	97886	STUDY_PAIR_OFF	n/a	n/a	1	-999	n/a	n/a	WAGON	RING	-1	[0, 0, 0]	-999	PAL1	0	R1333N
96.553	4.0	98451	STUDY_PAIR	n/a	n/a	2	-999	n/a	n/a	CAMEL	CHEST	-1	[0, 0, 0]	-999	PAL1	0	R1333N
100.588	0.537	102486	STUDY_PAIR_OFF	n/a	n/a	2	-999	n/a	n/a	CAMEL	CHEST	-1	[0, 0, 0]	-999	PAL1	0	R1333N
101.125	4.0	103023	STUDY_PAIR	n/a	n/a	3	-999	n/a	n/a	BEAM	FLOOD	-1	[0, 0, 0]	-999	PAL1	0	R1333N
105.156	0.709	107053	STUDY_PAIR_OFF	n/a	n/a	3	-999	n/a	n/a	BEAM	FLOOD	-1	[0, 0, 0]	-999	PAL1	0	R1333N
105.865	4.0	107762	STUDY_PAIR	n/a	n/a	4	-999	n/a	n/a	TONGUE	IMAGE	-1	[0, 0, 0]	-999	PAL1	0	R1333N
109.906	0.721	111803	STUDY_PAIR_OFF	n/a	n/a	4	-999	n/a	n/a	TONGUE	IMAGE	-1	[0, 0, 0]	-999	PAL1	0	R1333N
110.627	4.0	112524	STUDY_PAIR	n/a	n/a	5	-999	n/a	n/a	BABY	WATCH	-1	[0, 0, 0]	-999	PAL1	0	R1333N
114.657	0.529	116554	STUDY_PAIR_OFF	n/a	n/a	5	-999	n/a	n/a	BABY	WATCH	-1	[0, 0, 0]	-999	PAL1	0	R1333N
115.186	4.0	117083	STUDY_PAIR	n/a	n/a	6	-999	n/a	n/a	COTTON	RHINO	-1	[0, 0, 0]	-999	PAL1	0	R1333N
119.225	0.001	121122	STUDY_PAIR_OFF	n/a	n/a	6	-999	n/a	n/a	COTTON	RHINO	-1	[0, 0, 0]	-999	PAL1	0	R1333N
119.226	0.0	121123	MATH_START	n/a	n/a	-999	-999	n/a	n/a	n/a	n/a	-1	[0, 0, 0]	-999	PAL1	0	R1333N
119.226	0.0	121123	ENCODING_END	n/a	n/a	-999	-999	n/a	n/a	n/a	n/a	-1	[0, 0, 0]	-999	PAL1	0	R1333N
119.226	0.016	121123	START	n/a	n/a	-999	-999	n/a	n/a	n/a	n/a	-1	[-999, -999, -999]	-999	PAL1	0	R1333N
119.242	8.184	121139	PROB	8.154	n/a	-999	-999	n/a	n/a	n/a	n/a	-1	[6, 3, 5]	14	PAL1	0	R1333N
127.426	3.568	129323	PROB	3.539	n/a	-999	-999	n/a	n/a	n/a	n/a	-1	[5, 5, 4]	14	PAL1	0	R1333N
130.994	5.666	132891	PROB	5.642	n/a	-999	-999	n/a	n/a	n/a	n/a	-1	[2, 4, 3]	9	PAL1	0	R1333N
136.66	8.2	138556	PROB	8.2	n/a	-999	-999	n/a	n/a	n/a	n/a	-1	[8, 2, 3]	13	PAL1	0	R1333N
144.86	0.019	146756	STOP	n/a	n/a	-999	-999	n/a	n/a	n/a	n/a	-1	[-999, -999, -999]	-999	PAL1	0	R1333N
144.879	0.522	146775	MATH_END	n/a	n/a	-999	-999	n/a	n/a	n/a	n/a	-1	[0, 0, 0]	-999	PAL1	0	R1333N
145.401	0.005	147297	RETRIEVAL_START	n/a	n/a	-999	-999	n/a	n/a	n/a	n/a	-1	[0, 0, 0]	-999	PAL1	0	R1333N
145.406	0.273	147302	ORIENT_START	n/a	n/a	-999	-999	n/a	n/a	n/a	n/a	-1	[0, 0, 0]	-999	PAL1	0	R1333N
145.679	0.563	147575	ORIENT_END	n/a	n/a	-999	-999	n/a	n/a	n/a	n/a	-1	[0, 0, 0]	-999	PAL1	0	R1333N
146.242	0.0	148138	REC_START	n/a	n/a	3	1	FLOOD	n/a	BEAM	FLOOD	-1	[0, 0, 0]	-999	PAL1	0	R1333N
146.242	4.0	148138	PROBE_START	n/a	n/a	3	1	FLOOD	n/a	BEAM	FLOOD	-1	[0, 0, 0]	-999	PAL1	0	R1333N
150.264	1.0	152160	PROBE_END	n/a	n/a	3	1	FLOOD	n/a	BEAM	FLOOD	-1	[0, 0, 0]	-999	PAL1	0	R1333N
151.264	0.011	153160	REC_END	n/a	n/a	3	1	FLOOD	n/a	BEAM	FLOOD	-1	[0, 0, 0]	-999	PAL1	0	R1333N
151.275	0.271	153171	ORIENT_START	n/a	n/a	-999	-999	n/a	n/a	n/a	n/a	-1	[0, 0, 0]	-999	PAL1	0	R1333N
151.546	0.477	153442	ORIENT_END	n/a	n/a	-999	-999	n/a	n/a	n/a	n/a	-1	[0, 0, 0]	-999	PAL1	0	R1333N
152.023	0.267	153919	REC_EVENT	5.781	n/a	3	1	FLOOD	<>	BEAM	FLOOD	-1	[0, 0, 0]	-999	PAL1	0	R1333N
152.29	4.0	154186	PROBE_START	n/a	n/a	4	2	TONGUE	n/a	TONGUE	IMAGE	-1	[0, 0, 0]	-999	PAL1	0	R1333N
152.29	4.025	154186	REC_START	n/a	n/a	4	2	TONGUE	n/a	TONGUE	IMAGE	-1	[0, 0, 0]	-999	PAL1	0	R1333N
156.315	1.0	158211	PROBE_END	n/a	n/a	4	2	TONGUE	n/a	TONGUE	IMAGE	-1	[0, 0, 0]	-999	PAL1	0	R1333N
157.315	0.005	159211	REC_END	n/a	n/a	4	2	TONGUE	n/a	TONGUE	IMAGE	-1	[0, 0, 0]	-999	PAL1	0	R1333N
157.32	0.278	159216	ORIENT_START	n/a	n/a	-999	-999	n/a	n/a	n/a	n/a	-1	[0, 0, 0]	-999	PAL1	0	R1333N
157.598	0.539	159494	ORIENT_END	n/a	n/a	-999	-999	n/a	n/a	n/a	n/a	-1	[0, 0, 0]	-999	PAL1	0	R1333N
158.137	0.0	160033	REC_START	n/a	n/a	5	3	WATCH	n/a	BABY	WATCH	-1	[0, 0, 0]	-999	PAL1	0	R1333N
158.137	4.0	160033	PROBE_START	n/a	n/a	5	3	WATCH	n/a	BABY	WATCH	-1	[0, 0, 0]	-999	PAL1	0	R1333N
158.308	3.858	160204	REC_EVENT	6.018	n/a	4	2	TONGUE	<>	TONGUE	IMAGE	-1	[0, 0, 0]	-999	PAL1	0	R1333N
162.166	1.0	164061	PROBE_END	n/a	n/a	5	3	WATCH	n/a	BABY	WATCH	-1	[0, 0, 0]	-999	PAL1	0	R1333N
163.166	0.01	165061	REC_END	n/a	n/a	5	3	WATCH	n/a	BABY	WATCH	-1	[0, 0, 0]	-999	PAL1	0	R1333N
163.176	0.273	165071	ORIENT_START	n/a	n/a	-999	-999	n/a	n/a	n/a	n/a	-1	[0, 0, 0]	-999	PAL1	0	R1333N
163.449	0.516	165344	ORIENT_END	n/a	n/a	-999	-999	n/a	n/a	n/a	n/a	-1	[0, 0, 0]	-999	PAL1	0	R1333N
163.965	0.118	165860	REC_EVENT	5.828	n/a	5	3	WATCH	<>	BABY	WATCH	-1	[0, 0, 0]	-999	PAL1	0	R1333N
164.083	0.001	165978	REC_START	n/a	n/a	6	4	COTTON	n/a	COTTON	RHINO	-1	[0, 0, 0]	-999	PAL1	0	R1333N
164.084	4.0	165979	PROBE_START	n/a	n/a	6	4	COTTON	n/a	COTTON	RHINO	-1	[0, 0, 0]	-999	PAL1	0	R1333N
168.117	1.001	170012	PROBE_END	n/a	n/a	6	4	COTTON	n/a	COTTON	RHINO	-1	[0, 0, 0]	-999	PAL1	0	R1333N
169.118	0.012	171013	REC_END	n/a	n/a	6	4	COTTON	n/a	COTTON	RHINO	-1	[0, 0, 0]	-999	PAL1	0	R1333N
169.13	0.269	171025	ORIENT_START	n/a	n/a	-999	-999	n/a	n/a	n/a	n/a	-1	[0, 0, 0]	-999	PAL1	0	R1333N
169.399	0.513	171294	ORIENT_END	n/a	n/a	-999	-999	n/a	n/a	n/a	n/a	-1	[0, 0, 0]	-999	PAL1	0	R1333N
169.912	0.014	171807	REC_EVENT	5.828	n/a	6	4	COTTON	<>	COTTON	RHINO	-1	[0, 0, 0]	-999	PAL1	0	R1333N
169.926	0.0	171821	REC_START	n/a	n/a	1	5	WAGON	n/a	WAGON	RING	-1	[0, 0, 0]	-999	PAL1	0	R1333N
169.926	4.0	171821	PROBE_START	n/a	n/a	1	5	WAGON	n/a	WAGON	RING	-1	[0, 0, 0]	-999	PAL1	0	R1333N
173.951	0.723	175846	PROBE_END	n/a	n/a	1	5	WAGON	n/a	WAGON	RING	-1	[0, 0, 0]	-999	PAL1	0	R1333N
174.674	0.277	176569	REC_EVENT	4.748	n/a	1	5	WAGON	<>	WAGON	RING	-1	[0, 0, 0]	-999	PAL1	0	R1333N
174.951	0.012	176846	REC_END	n/a	n/a	1	5	WAGON	n/a	WAGON	RING	-1	[0, 0, 0]	-999	PAL1	0	R1333N
174.963	0.272	176858	ORIENT_START	n/a	n/a	-999	-999	n/a	n/a	n/a	n/a	-1	[0, 0, 0]	-999	PAL1	0	R1333N
175.235	0.615	177130	ORIENT_END	n/a	n/a	-999	-999	n/a	n/a	n/a	n/a	-1	[0, 0, 0]	-999	PAL1	0	R1333N
175.85	0.0	177745	REC_START	n/a	n/a	2	6	CHEST	n/a	CAMEL	CHEST	-1	[0, 0, 0]	-999	PAL1	0	R1333N
175.85	4.0	177745	PROBE_START	n/a	n/a	2	6	CHEST	n/a	CAMEL	CHEST	-1	[0, 0, 0]	-999	PAL1	0	R1333N
179.885	1.0	181780	PROBE_END	n/a	n/a	2	6	CHEST	n/a	CAMEL	CHEST	-1	[0, 0, 0]	-999	PAL1	0	R1333N
180.885	0.012	182780	REC_END	n/a	n/a	2	6	CHEST	n/a	CAMEL	CHEST	-1	[0, 0, 0]	-999	PAL1	0	R1333N
180.897	0.0	182792	PRACTICE_POST_INSTRUCT_START	n/a	n/a	-999	-999	n/a	n/a	n/a	n/a	-1	[0, 0, 0]	-999	PAL1	0	R1333N
180.897	0.827	182792	RETRIEVAL_END	n/a	n/a	-999	-999	n/a	n/a	n/a	n/a	-1	[0, 0, 0]	-999	PAL1	0	R1333N
181.724	47.119	183619	REC_EVENT	5.874	n/a	2	6	CHEST	<>	CAMEL	CHEST	-1	[0, 0, 0]	-999	PAL1	0	R1333N
228.843	0.0	230736	PRACTICE_POST_INSTRUCT_END	n/a	n/a	-999	-999	n/a	n/a	n/a	n/a	-1	[0, 0, 0]	-999	PAL1	0	R1333N
228.843	0.023	230736	TRIAL_END	n/a	n/a	-999	-999	n/a	n/a	n/a	n/a	-1	[0, 0, 0]	-999	PAL1	0	R1333N
228.866	0.0	230759	TRIAL_START	n/a	n/a	-999	-999	n/a	n/a	n/a	n/a	-1	[0, 0, 0]	-999	PAL1	0	R1333N
228.866	0.0	230759	TRIAL	n/a	n/a	-999	-999	n/a	n/a	n/a	n/a	1	[0, 0, 0]	-999	PAL1	0	R1333N
228.866	1.261	230759	WAITING_START	n/a	n/a	-999	-999	n/a	n/a	n/a	n/a	1	[0, 0, 0]	-999	PAL1	0	R1333N
230.127	0.0	232020	WAITING_END	n/a	n/a	-999	-999	n/a	n/a	n/a	n/a	1	[0, 0, 0]	-999	PAL1	0	R1333N
230.127	10.0	232020	COUNTDOWN_START	n/a	n/a	-999	-999	n/a	n/a	n/a	n/a	1	[0, 0, 0]	-999	PAL1	0	R1333N
240.559	0.0	242452	COUNTDOWN_END	n/a	n/a	-999	-999	n/a	n/a	n/a	n/a	1	[0, 0, 0]	-999	PAL1	0	R1333N
240.559	0.637	242452	ORIENT_START	n/a	n/a	-999	-999	n/a	n/a	n/a	n/a	1	[0, 0, 0]	-999	PAL1	0	R1333N
241.196	0.0	243089	ENCODING_START	n/a	n/a	-999	-999	n/a	n/a	n/a	n/a	1	[0, 0, 0]	-999	PAL1	0	R1333N
241.196	1.213	243089	ORIENT_END	n/a	n/a	-999	-999	n/a	n/a	n/a	n/a	1	[0, 0, 0]	-999	PAL1	0	R1333N
242.409	4.0	244302	STUDY_PAIR	n/a	wordpools/wordpool_EN.txt	1	-999	n/a	n/a	ROOM	BRIDGE	1	[0, 0, 0]	-999	PAL1	0	R1333N
246.445	0.532	248337	STUDY_PAIR_OFF	n/a	n/a	1	-999	n/a	n/a	ROOM	BRIDGE	1	[0, 0, 0]	-999	PAL1	0	R1333N
246.977	4.0	248869	STUDY_PAIR	n/a	wordpools/wordpool_EN.txt	2	-999	n/a	n/a	WORLD	TOAD	1	[0, 0, 0]	-999	PAL1	0	R1333N
251.014	0.67	252906	STUDY_PAIR_OFF	n/a	n/a	2	-999	n/a	n/a	WORLD	TOAD	1	[0, 0, 0]	-999	PAL1	0	R1333N
251.684	4.0	253576	STUDY_PAIR	n/a	wordpools/wordpool_EN.txt	3	-999	n/a	WEB	WEB	NET	1	[0, 0, 0]	-999	PAL1	0	R1333N
255.714	0.73	257606	STUDY_PAIR_OFF	n/a	n/a	3	-999	n/a	WEB	WEB	NET	1	[0, 0, 0]	-999	PAL1	0	R1333N
256.444	4.0	258336	STUDY_PAIR	n/a	wordpools/wordpool_EN.txt	4	-999	n/a	MAIL	INK	MAIL	1	[0, 0, 0]	-999	PAL1	0	R1333N
260.481	0.509	262373	STUDY_PAIR_OFF	n/a	n/a	4	-999	n/a	MAIL	INK	MAIL	1	[0, 0, 0]	-999	PAL1	0	R1333N
260.99	4.0	262882	STUDY_PAIR	n/a	wordpools/wordpool_EN.txt	5	-999	n/a	n/a	SOAP	RAT	1	[0, 0, 0]	-999	PAL1	0	R1333N
265.016	0.572	266908	STUDY_PAIR_OFF	n/a	n/a	5	-999	n/a	n/a	SOAP	RAT	1	[0, 0, 0]	-999	PAL1	0	R1333N
265.588	4.0	267480	STUDY_PAIR	n/a	wordpools/wordpool_EN.txt	6	-999	n/a	n/a	YARD	ROOT	1	[0, 0, 0]	-999	PAL1	0	R1333N
269.599	0.001	271491	STUDY_PAIR_OFF	n/a	n/a	6	-999	n/a	n/a	YARD	ROOT	1	[0, 0, 0]	-999	PAL1	0	R1333N
269.6	0.0	271492	MATH_START	n/a	n/a	-999	-999	n/a	n/a	n/a	n/a	1	[0, 0, 0]	-999	PAL1	0	R1333N
269.6	0.0	271492	ENCODING_END	n/a	n/a	-999	-999	n/a	n/a	n/a	n/a	1	[0, 0, 0]	-999	PAL1	0	R1333N
269.6	0.016	271492	START	n/a	n/a	-999	-999	n/a	n/a	n/a	n/a	1	[-999, -999, -999]	-999	PAL1	0	R1333N
269.616	4.85	271508	PROB	4.82	n/a	-999	-999	n/a	n/a	n/a	n/a	1	[8, 1, 3]	12	PAL1	0	R1333N
274.466	5.469	276357	PROB	5.434	n/a	-999	-999	n/a	n/a	n/a	n/a	1	[6, 5, 1]	12	PAL1	0	R1333N
279.935	3.301	281826	PROB	3.262	n/a	-999	-999	n/a	n/a	n/a	n/a	1	[5, 1, 6]	12	PAL1	0	R1333N
283.236	5.05	285127	PROB	5.017	n/a	-999	-999	n/a	n/a	n/a	n/a	1	[6, 5, 8]	19	PAL1	0	R1333N
288.286	3.847	290177	PROB	3.847	n/a	-999	-999	n/a	n/a	n/a	n/a	1	[1, 6, 7]	14	PAL1	0	R1333N
292.133	0.021	294024	STOP	n/a	n/a	-999	-999	n/a	n/a	n/a	n/a	1	[-999, -999, -999]	-999	PAL1	0	R1333N
292.154	0.648	294045	MATH_END	n/a	n/a	-999	-999	n/a	n/a	n/a	n/a	1	[0, 0, 0]	-999	PAL1	0	R1333N
292.802	0.002	294693	RETRIEVAL_START	n/a	n/a	-999	-999	n/a	n/a	n/a	n/a	1	[0, 0, 0]	-999	PAL1	0	R1333N
292.804	0.284	294695	ORIENT_START	n/a	n/a	-999	-999	n/a	n/a	n/a	n/a	1	[0, 0, 0]	-999	PAL1	0	R1333N
293.088	0.682	294979	ORIENT_END	n/a	n/a	-999	-999	n/a	n/a	n/a	n/a	1	[0, 0, 0]	-999	PAL1	0	R1333N
293.77	0.0	295661	REC_START	n/a	n/a	3	1	NET	WEB	WEB	NET	1	[0, 0, 0]	-999	PAL1	0	R1333N
293.77	4.0	295661	PROBE_START	n/a	wordpools/wordpool_EN.txt	3	1	NET	WEB	WEB	NET	1	[0, 0, 0]	-999	PAL1	0	R1333N
296.58	1.224	298471	REC_EVENT	2.81	n/a	3	1	NET	WEB	WEB	NET	1	[0, 0, 0]	-999	PAL1	0	R1333N
297.804	1.0	299695	PROBE_END	n/a	n/a	3	1	NET	n/a	WEB	NET	1	[0, 0, 0]	-999	PAL1	0	R1333N
298.804	0.013	300695	REC_END	n/a	n/a	3	1	NET	n/a	WEB	NET	1	[0, 0, 0]	-999	PAL1	0	R1333N
298.817	0.271	300708	ORIENT_START	n/a	n/a	-999	-999	n/a	n/a	n/a	n/a	1	[0, 0, 0]	-999	PAL1	0	R1333N
299.088	0.675	300979	ORIENT_END	n/a	n/a	-999	-999	n/a	n/a	n/a	n/a	1	[0, 0, 0]	-999	PAL1	0	R1333N
299.763	0.0	301654	REC_START	n/a	n/a	2	2	WORLD	n/a	WORLD	TOAD	1	[0, 0, 0]	-999	PAL1	0	R1333N
299.763	4.0	301654	PROBE_START	n/a	wordpools/wordpool_EN.txt	2	2	WORLD	n/a	WORLD	TOAD	1	[0, 0, 0]	-999	PAL1	0	R1333N
303.788	0.425	305678	PROBE_END	n/a	n/a	2	2	WORLD	n/a	WORLD	TOAD	1	[0, 0, 0]	-999	PAL1	0	R1333N
304.213	0.575	306103	REC_EVENT	4.45	n/a	2	2	WORLD	<>	WORLD	TOAD	1	[0, 0, 0]	-999	PAL1	0	R1333N
304.788	0.012	306678	REC_END	n/a	n/a	2	2	WORLD	n/a	WORLD	TOAD	1	[0, 0, 0]	-999	PAL1	0	R1333N
304.8	0.273	306690	ORIENT_START	n/a	n/a	-999	-999	n/a	n/a	n/a	n/a	1	[0, 0, 0]	-999	PAL1	0	R1333N
305.073	0.574	306963	ORIENT_END	n/a	n/a	-999	-999	n/a	n/a	n/a	n/a	1	[0, 0, 0]	-999	PAL1	0	R1333N
305.647	0.001	307537	REC_START	n/a	n/a	1	3	ROOM	n/a	ROOM	BRIDGE	1	[0, 0, 0]	-999	PAL1	0	R1333N
305.648	4.0	307538	PROBE_START	n/a	wordpools/wordpool_EN.txt	1	3	ROOM	n/a	ROOM	BRIDGE	1	[0, 0, 0]	-999	PAL1	0	R1333N
308.503	1.169	310393	REC_EVENT	2.855	n/a	1	3	ROOM	<>	ROOM	BRIDGE	1	[0, 0, 0]	-999	PAL1	0	R1333N
309.672	1.0	311562	PROBE_END	n/a	n/a	1	3	ROOM	n/a	ROOM	BRIDGE	1	[0, 0, 0]	-999	PAL1	0	R1333N
310.672	0.012	312562	REC_END	n/a	n/a	1	3	ROOM	n/a	ROOM	BRIDGE	1	[0, 0, 0]	-999	PAL1	0	R1333N
310.684	0.273	312574	ORIENT_START	n/a	n/a	-999	-999	n/a	n/a	n/a	n/a	1	[0, 0, 0]	-999	PAL1	0	R1333N
310.957	0.529	312847	ORIENT_END	n/a	n/a	-999	-999	n/a	n/a	n/a	n/a	1	[0, 0, 0]	-999	PAL1	0	R1333N
311.486	0.0	313376	REC_START	n/a	n/a	6	4	ROOT	n/a	YARD	ROOT	1	[0, 0, 0]	-999	PAL1	0	R1333N
311.486	4.0	313376	PROBE_START	n/a	wordpools/wordpool_EN.txt	6	4	ROOT	n/a	YARD	ROOT	1	[0, 0, 0]	-999	PAL1	0	R1333N
314.518	1.006	316408	REC_EVENT	3.032	n/a	6	4	ROOT	<>	YARD	ROOT	1	[0, 0, 0]	-999	PAL1	0	R1333N
315.524	1.0	317414	PROBE_END	n/a	n/a	6	4	ROOT	n/a	YARD	ROOT	1	[0, 0, 0]	-999	PAL1	0	R1333N
316.524	0.01	318414	REC_END	n/a	n/a	6	4	ROOT	n/a	YARD	ROOT	1	[0, 0, 0]	-999	PAL1	0	R1333N
316.534	0.273	318424	ORIENT_START	n/a	n/a	-999	-999	n/a	n/a	n/a	n/a	1	[0, 0, 0]	-999	PAL1	0	R1333N
316.807	0.715	318697	ORIENT_END	n/a	n/a	-999	-999	n/a	n/a	n/a	n/a	1	[0, 0, 0]	-999	PAL1	0	R1333N
317.522	0.001	319412	REC_START	n/a	n/a	5	5	RAT	n/a	SOAP	RAT	1	[0, 0, 0]	-999	PAL1	0	R1333N
317.523	4.0	319413	PROBE_START	n/a	wordpools/wordpool_EN.txt	5	5	RAT	n/a	SOAP	RAT	1	[0, 0, 0]	-999	PAL1	0	R1333N
320.585	0.973	322475	REC_EVENT	3.062	n/a	5	5	RAT	<>	SOAP	RAT	1	[0, 0, 0]	-999	PAL1	0	R1333N
321.558	1.0	323448	PROBE_END	n/a	n/a	5	5	RAT	n/a	SOAP	RAT	1	[0, 0, 0]	-999	PAL1	0	R1333N
322.558	0.011	324448	REC_END	n/a	n/a	5	5	RAT	n/a	SOAP	RAT	1	[0, 0, 0]	-999	PAL1	0	R1333N
322.569	0.272	324459	ORIENT_START	n/a	n/a	-999	-999	n/a	n/a	n/a	n/a	1	[0, 0, 0]	-999	PAL1	0	R1333N
322.841	0.608	324731	ORIENT_END	n/a	n/a	-999	-999	n/a	n/a	n/a	n/a	1	[0, 0, 0]	-999	PAL1	0	R1333N
323.449	0.0	325339	REC_START	n/a	n/a	4	6	INK	MAIL	INK	MAIL	1	[0, 0, 0]	-999	PAL1	0	R1333N
323.449	4.0	325339	PROBE_START	n/a	wordpools/wordpool_EN.txt	4	6	INK	MAIL	INK	MAIL	1	[0, 0, 0]	-999	PAL1	0	R1333N
326.061	0.673	327951	REC_EVENT	2.612	n/a	4	6	INK	<>	INK	MAIL	1	[0, 0, 0]	-999	PAL1	0	R1333N
326.734	0.742	328624	REC_EVENT	3.285	n/a	4	6	INK	MAIL	INK	MAIL	1	[0, 0, 0]	-999	PAL1	0	R1333N
327.476	0.999	329366	PROBE_END	n/a	n/a	4	6	INK	n/a	INK	MAIL	1	[0, 0, 0]	-999	PAL1	0	R1333N
328.475	0.01	330365	REC_END	n/a	n/a	4	6	INK	n/a	INK	MAIL	1	[0, 0, 0]	-999	PAL1	0	R1333N
328.485	0.001	330375	RETRIEVAL_END	n/a	n/a	-999	-999	n/a	n/a	n/a	n/a	1	[0, 0, 0]	-999	PAL1	0	R1333N
328.486	0.018	330376	TRIAL_END	n/a	n/a	-999	-999	n/a	n/a	n/a	n/a	1	[0, 0, 0]	-999	PAL1	0	R1333N
328.504	0.0	330394	TRIAL_START	n/a	n/a	-999	-999	n/a	n/a	n/a	n/a	1	[0, 0, 0]	-999	PAL1	0	R1333N
328.504	0.0	330394	TRIAL	n/a	n/a	-999	-999	n/a	n/a	n/a	n/a	2	[0, 0, 0]	-999	PAL1	0	R1333N
328.504	7.873	330394	WAITING_START	n/a	n/a	-999	-999	n/a	n/a	n/a	n/a	2	[0, 0, 0]	-999	PAL1	0	R1333N
336.377	0.0	338266	WAITING_END	n/a	n/a	-999	-999	n/a	n/a	n/a	n/a	2	[0, 0, 0]	-999	PAL1	0	R1333N
336.377	10.0	338266	COUNTDOWN_START	n/a	n/a	-999	-999	n/a	n/a	n/a	n/a	2	[0, 0, 0]	-999	PAL1	0	R1333N
346.807	0.0	348696	COUNTDOWN_END	n/a	n/a	-999	-999	n/a	n/a	n/a	n/a	2	[0, 0, 0]	-999	PAL1	0	R1333N
346.807	0.555	348696	ORIENT_START	n/a	n/a	-999	-999	n/a	n/a	n/a	n/a	2	[0, 0, 0]	-999	PAL1	0	R1333N
347.362	0.001	349251	ORIENT_END	n/a	n/a	-999	-999	n/a	n/a	n/a	n/a	2	[0, 0, 0]	-999	PAL1	0	R1333N
347.363	1.169	349252	ENCODING_START	n/a	n/a	-999	-999	n/a	n/a	n/a	n/a	2	[0, 0, 0]	-999	PAL1	0	R1333N
348.532	4.0	350421	STUDY_PAIR	n/a	wordpools/wordpool_EN.txt	1	-999	n/a	n/a	PEARL	SCHOOL	2	[0, 0, 0]	-999	PAL1	0	R1333N
352.563	0.676	354452	STUDY_PAIR_OFF	n/a	n/a	1	-999	n/a	n/a	PEARL	SCHOOL	2	[0, 0, 0]	-999	PAL1	0	R1333N
353.239	4.0	355128	STUDY_PAIR	n/a	wordpools/wordpool_EN.txt	2	-999	n/a	HILL	HOOK	BOAT	2	[0, 0, 0]	-999	PAL1	0	R1333N
357.265	0.541	359154	STUDY_PAIR_OFF	n/a	n/a	2	-999	n/a	HILL	HOOK	BOAT	2	[0, 0, 0]	-999	PAL1	0	R1333N
357.806	4.0	359695	STUDY_PAIR	n/a	wordpools/wordpool_EN.txt	3	-999	n/a	n/a	DITCH	SEAL	2	[0, 0, 0]	-999	PAL1	0	R1333N
361.831	0.707	363719	STUDY_PAIR_OFF	n/a	n/a	3	-999	n/a	n/a	DITCH	SEAL	2	[0, 0, 0]	-999	PAL1	0	R1333N
362.538	4.0	364426	STUDY_PAIR	n/a	wordpools/wordpool_EN.txt	4	-999	n/a	NOSE	NOSE	PASTE	2	[0, 0, 0]	-999	PAL1	0	R1333N
366.565	0.688	368453	STUDY_PAIR_OFF	n/a	n/a	4	-999	n/a	NOSE	NOSE	PASTE	2	[0, 0, 0]	-999	PAL1	0	R1333N
367.253	4.0	369141	STUDY_PAIR	n/a	wordpools/wordpool_EN.txt	5	-999	n/a	n/a	HILL	POLE	2	[0, 0, 0]	-999	PAL1	0	R1333N
371.284	0.692	373172	STUDY_PAIR_OFF	n/a	n/a	5	-999	n/a	n/a	HILL	POLE	2	[0, 0, 0]	-999	PAL1	0	R1333N
371.976	4.0	373864	STUDY_PAIR	n/a	wordpools/wordpool_EN.txt	6	-999	n/a	n/a	GATE	SPOON	2	[0, 0, 0]	-999	PAL1	0	R1333N
376.001	0.001	377889	STUDY_PAIR_OFF	n/a	n/a	6	-999	n/a	n/a	GATE	SPOON	2	[0, 0, 0]	-999	PAL1	0	R1333N
376.002	0.0	377890	ENCODING_END	n/a	n/a	-999	-999	n/a	n/a	n/a	n/a	2	[0, 0, 0]	-999	PAL1	0	R1333N
376.002	0.0	377890	MATH_START	n/a	n/a	-999	-999	n/a	n/a	n/a	n/a	2	[0, 0, 0]	-999	PAL1	0	R1333N
376.002	0.016	377890	START	n/a	n/a	-999	-999	n/a	n/a	n/a	n/a	2	[-999, -999, -999]	-999	PAL1	0	R1333N
376.018	4.167	377906	PROB	4.131	n/a	-999	-999	n/a	n/a	n/a	n/a	2	[9, 9, 3]	21	PAL1	0	R1333N
380.185	6.6	382073	PROB	6.563	n/a	-999	-999	n/a	n/a	n/a	n/a	2	[4, 6, 9]	19	PAL1	0	R1333N
386.785	4.651	388673	PROB	4.626	n/a	-999	-999	n/a	n/a	n/a	n/a	2	[1, 6, 8]	15	PAL1	0	R1333N
391.436	5.601	393323	PROB	5.601	n/a	-999	-999	n/a	n/a	n/a	n/a	2	[7, 8, 1]	16	PAL1	0	R1333N
397.037	0.018	398924	STOP	n/a	n/a	-999	-999	n/a	n/a	n/a	n/a	2	[-999, -999, -999]	-999	PAL1	0	R1333N
397.055	0.601	398942	MATH_END	n/a	n/a	-999	-999	n/a	n/a	n/a	n/a	2	[0, 0, 0]	-999	PAL1	0	R1333N
397.656	0.001	399543	RETRIEVAL_START	n/a	n/a	-999	-999	n/a	n/a	n/a	n/a	2	[0, 0, 0]	-999	PAL1	0	R1333N
397.657	0.281	399544	ORIENT_START	n/a	n/a	-999	-999	n/a	n/a	n/a	n/a	2	[0, 0, 0]	-999	PAL1	0	R1333N
397.938	0.509	399825	ORIENT_END	n/a	n/a	-999	-999	n/a	n/a	n/a	n/a	2	[0, 0, 0]	-999	PAL1	0	R1333N
398.447	0.001	400334	REC_START	n/a	n/a	5	1	HILL	n/a	HILL	POLE	2	[0, 0, 0]	-999	PAL1	0	R1333N
398.448	4.0	400335	PROBE_START	n/a	wordpools/wordpool_EN.txt	5	1	HILL	n/a	HILL	POLE	2	[0, 0, 0]	-999	PAL1	0	R1333N
401.283	1.188	403170	REC_EVENT	2.835	n/a	5	1	HILL	<>	HILL	POLE	2	[0, 0, 0]	-999	PAL1	0	R1333N
402.471	1.0	404358	PROBE_END	n/a	n/a	5	1	HILL	n/a	HILL	POLE	2	[0, 0, 0]	-999	PAL1	0	R1333N
403.471	0.011	405358	REC_END	n/a	n/a	5	1	HILL	n/a	HILL	POLE	2	[0, 0, 0]	-999	PAL1	0	R1333N
403.482	0.273	405369	ORIENT_START	n/a	n/a	-999	-999	n/a	n/a	n/a	n/a	2	[0, 0, 0]	-999	PAL1	0	R1333N
403.755	0.555	405642	ORIENT_END	n/a	n/a	-999	-999	n/a	n/a	n/a	n/a	2	[0, 0, 0]	-999	PAL1	0	R1333N
404.31	0.0	406197	REC_START	n/a	n/a	4	2	PASTE	NOSE	NOSE	PASTE	2	[0, 0, 0]	-999	PAL1	0	R1333N
404.31	4.0	406197	PROBE_START	n/a	wordpools/wordpool_EN.txt	4	2	PASTE	NOSE	NOSE	PASTE	2	[0, 0, 0]	-999	PAL1	0	R1333N
406.249	2.09	408136	REC_EVENT	1.939	n/a	4	2	PASTE	NOSE	NOSE	PASTE	2	[0, 0, 0]	-999	PAL1	0	R1333N
408.339	1.001	410226	PROBE_END	n/a	n/a	4	2	PASTE	n/a	NOSE	PASTE	2	[0, 0, 0]	-999	PAL1	0	R1333N
409.34	0.012	411227	REC_END	n/a	n/a	4	2	PASTE	n/a	NOSE	PASTE	2	[0, 0, 0]	-999	PAL1	0	R1333N
409.352	0.27	411239	ORIENT_START	n/a	n/a	-999	-999	n/a	n/a	n/a	n/a	2	[0, 0, 0]	-999	PAL1	0	R1333N
409.622	0.588	411509	ORIENT_END	n/a	n/a	-999	-999	n/a	n/a	n/a	n/a	2	[0, 0, 0]	-999	PAL1	0	R1333N
410.21	0.0	412097	REC_START	n/a	n/a	3	3	DITCH	n/a	DITCH	SEAL	2	[0, 0, 0]	-999	PAL1	0	R1333N
410.21	4.0	412097	PROBE_START	n/a	wordpools/wordpool_EN.txt	3	3	DITCH	n/a	DITCH	SEAL	2	[0, 0, 0]	-999	PAL1	0	R1333N
412.352	1.889	414239	REC_EVENT	2.142	n/a	3	3	DITCH	<>	DITCH	SEAL	2	[0, 0, 0]	-999	PAL1	0	R1333N
414.241	1.001	416128	PROBE_END	n/a	n/a	3	3	DITCH	n/a	DITCH	SEAL	2	[0, 0, 0]	-999	PAL1	0	R1333N
415.242	0.012	417129	REC_END	n/a	n/a	3	3	DITCH	n/a	DITCH	SEAL	2	[0, 0, 0]	-999	PAL1	0	R1333N
415.254	0.269	417141	ORIENT_START	n/a	n/a	-999	-999	n/a	n/a	n/a	n/a	2	[0, 0, 0]	-999	PAL1	0	R1333N
415.523	0.61	417410	ORIENT_END	n/a	n/a	-999	-999	n/a	n/a	n/a	n/a	2	[0, 0, 0]	-999	PAL1	0	R1333N
416.133	0.0	418019	REC_START	n/a	n/a	6	4	SPOON	n/a	GATE	SPOON	2	[0, 0, 0]	-999	PAL1	0	R1333N
416.133	4.0	418019	PROBE_START	n/a	wordpools/wordpool_EN.txt	6	4	SPOON	n/a	GATE	SPOON	2	[0, 0, 0]	-999	PAL1	0	R1333N
419.199	0.959	421085	REC_EVENT	3.066	n/a	6	4	SPOON	<>	GATE	SPOON	2	[0, 0, 0]	-999	PAL1	0	R1333N
420.158	1.0	422044	PROBE_END	n/a	n/a	6	4	SPOON	n/a	GATE	SPOON	2	[0, 0, 0]	-999	PAL1	0	R1333N
421.158	0.012	423044	REC_END	n/a	n/a	6	4	SPOON	n/a	GATE	SPOON	2	[0, 0, 0]	-999	PAL1	0	R1333N
421.17	0.271	423056	ORIENT_START	n/a	n/a	-999	-999	n/a	n/a	n/a	n/a	2	[0, 0, 0]	-999	PAL1	0	R1333N
421.441	0.744	423327	ORIENT_END	n/a	n/a	-999	-999	n/a	n/a	n/a	n/a	2	[0, 0, 0]	-999	PAL1	0	R1333N
422.185	0.0	424071	REC_START	n/a	n/a	1	5	PEARL	n/a	PEARL	SCHOOL	2	[0, 0, 0]	-999	PAL1	0	R1333N
422.185	4.0	424071	PROBE_START	n/a	wordpools/wordpool_EN.txt	1	5	PEARL	n/a	PEARL	SCHOOL	2	[0, 0, 0]	-999	PAL1	0	R1333N
425.629	0.581	427515	REC_EVENT	3.444	n/a	1	5	PEARL	<>	PEARL	SCHOOL	2	[0, 0, 0]	-999	PAL1	0	R1333N
426.21	1.0	428096	PROBE_END	n/a	n/a	1	5	PEARL	n/a	PEARL	SCHOOL	2	[0, 0, 0]	-999	PAL1	0	R1333N
427.21	0.006	429096	REC_END	n/a	n/a	1	5	PEARL	n/a	PEARL	SCHOOL	2	[0, 0, 0]	-999	PAL1	0	R1333N
427.216	0.276	429102	ORIENT_START	n/a	n/a	-999	-999	n/a	n/a	n/a	n/a	2	[0, 0, 0]	-999	PAL1	0	R1333N
427.492	0.66	429378	ORIENT_END	n/a	n/a	-999	-999	n/a	n/a	n/a	n/a	2	[0, 0, 0]	-999	PAL1	0	R1333N
428.152	0.001	430038	REC_START	n/a	n/a	2	6	BOAT	HILL	HOOK	BOAT	2	[0, 0, 0]	-999	PAL1	0	R1333N
428.153	4.0	430039	PROBE_START	n/a	wordpools/wordpool_EN.txt	2	6	BOAT	HILL	HOOK	BOAT	2	[0, 0, 0]	-999	PAL1	0	R1333N
430.615	1.562	432501	REC_EVENT	2.462	n/a	2	6	BOAT	HILL	HOOK	BOAT	2	[0, 0, 0]	-999	PAL1	0	R1333N
432.177	1.0	434063	PROBE_END	n/a	n/a	2	6	BOAT	n/a	HOOK	BOAT	2	[0, 0, 0]	-999	PAL1	0	R1333N
433.177	0.012	435063	REC_END	n/a	n/a	2	6	BOAT	n/a	HOOK	BOAT	2	[0, 0, 0]	-999	PAL1	0	R1333N
433.189	0.0	435075	RETRIEVAL_END	n/a	n/a	-999	-999	n/a	n/a	n/a	n/a	2	[0, 0, 0]	-999	PAL1	0	R1333N
433.189	0.02	435075	TRIAL_END	n/a	n/a	-999	-999	n/a	n/a	n/a	n/a	2	[0, 0, 0]	-999	PAL1	0	R1333N
433.209	0.0	435095	TRIAL_START	n/a	n/a	-999	-999	n/a	n/a	n/a	n/a	2	[0, 0, 0]	-999	PAL1	0	R1333N
433.209	0.001	435095	TRIAL	n/a	n/a	-999	-999	n/a	n/a	n/a	n/a	3	[0, 0, 0]	-999	PAL1	0	R1333N
433.21	3.001	435096	WAITING_START	n/a	n/a	-999	-999	n/a	n/a	n/a	n/a	3	[0, 0, 0]	-999	PAL1	0	R1333N
436.211	0.0	438097	WAITING_END	n/a	n/a	-999	-999	n/a	n/a	n/a	n/a	3	[0, 0, 0]	-999	PAL1	0	R1333N
436.211	10.0	438097	COUNTDOWN_START	n/a	n/a	-999	-999	n/a	n/a	n/a	n/a	3	[0, 0, 0]	-999	PAL1	0	R1333N
446.641	0.0	448526	COUNTDOWN_END	n/a	n/a	-999	-999	n/a	n/a	n/a	n/a	3	[0, 0, 0]	-999	PAL1	0	R1333N
446.641	0.522	448526	ORIENT_START	n/a	n/a	-999	-999	n/a	n/a	n/a	n/a	3	[0, 0, 0]	-999	PAL1	0	R1333N
447.163	0.001	449048	ORIENT_END	n/a	n/a	-999	-999	n/a	n/a	n/a	n/a	3	[0, 0, 0]	-999	PAL1	0	R1333N
447.164	1.009	449049	ENCODING_START	n/a	n/a	-999	-999	n/a	n/a	n/a	n/a	3	[0, 0, 0]	-999	PAL1	0	R1333N
448.173	4.0	450058	STUDY_PAIR	n/a	wordpools/wordpool_EN.txt	1	-999	n/a	n/a	HAWK	DOLL	3	[0, 0, 0]	-999	PAL1	0	R1333N
452.214	0.712	454099	STUDY_PAIR_OFF	n/a	n/a	1	-999	n/a	n/a	HAWK	DOLL	3	[0, 0, 0]	-999	PAL1	0	R1333N
452.926	4.0	454811	STUDY_PAIR	n/a	wordpools/wordpool_EN.txt	2	-999	n/a	n/a	PIT	SWORD	3	[0, 0, 0]	-999	PAL1	0	R1333N
456.965	0.54	458850	STUDY_PAIR_OFF	n/a	n/a	2	-999	n/a	n/a	PIT	SWORD	3	[0, 0, 0]	-999	PAL1	0	R1333N
457.505	4.0	459390	STUDY_PAIR	n/a	wordpools/wordpool_EN.txt	3	-999	n/a	MAZE	CLAY	SUN	3	[0, 0, 0]	-999	PAL1	0	R1333N
461.531	0.681	463416	STUDY_PAIR_OFF	n/a	n/a	3	-999	n/a	MAZE	CLAY	SUN	3	[0, 0, 0]	-999	PAL1	0	R1333N
462.212	4.0	464097	STUDY_PAIR	n/a	wordpools/wordpool_EN.txt	4	-999	n/a	n/a	PARK	MAZE	3	[0, 0, 0]	-999	PAL1	0	R1333N
466.249	0.559	468134	STUDY_PAIR_OFF	n/a	n/a	4	-999	n/a	n/a	PARK	MAZE	3	[0, 0, 0]	-999	PAL1	0	R1333N
466.808	4.0	468693	STUDY_PAIR	n/a	wordpools/wordpool_EN.txt	5	-999	n/a	PLANE	WORM	PLANE	3	[0, 0, 0]	-999	PAL1	0	R1333N
470.832	0.504	472717	STUDY_PAIR_OFF	n/a	n/a	5	-999	n/a	PLANE	WORM	PLANE	3	[0, 0, 0]	-999	PAL1	0	R1333N
471.336	4.0	473221	STUDY_PAIR	n/a	wordpools/wordpool_EN.txt	6	-999	n/a	n/a	TREE	CLOUD	3	[0, 0, 0]	-999	PAL1	0	R1333N
475.367	0.0	477251	STUDY_PAIR_OFF	n/a	n/a	6	-999	n/a	n/a	TREE	CLOUD	3	[0, 0, 0]	-999	PAL1	0	R1333N
475.367	0.001	477251	ENCODING_END	n/a	n/a	-999	-999	n/a	n/a	n/a	n/a	3	[0, 0, 0]	-999	PAL1	0	R1333N
475.368	0.0	477252	MATH_START	n/a	n/a	-999	-999	n/a	n/a	n/a	n/a	3	[0, 0, 0]	-999	PAL1	0	R1333N
475.368	0.015	477252	START	n/a	n/a	-999	-999	n/a	n/a	n/a	n/a	3	[-999, -999, -999]	-999	PAL1	0	R1333N
475.383	4.201	477267	PROB	4.165	n/a	-999	-999	n/a	n/a	n/a	n/a	3	[1, 3, 5]	9	PAL1	0	R1333N
479.584	5.435	481468	PROB	5.413	n/a	-999	-999	n/a	n/a	n/a	n/a	3	[6, 9, 2]	17	PAL1	0	R1333N
485.019	6.301	486903	PROB	6.274	n/a	-999	-999	n/a	n/a	n/a	n/a	3	[9, 6, 9]	24	PAL1	0	R1333N
491.32	4.925	493204	PROB	4.925	n/a	-999	-999	n/a	n/a	n/a	n/a	3	[4, 2, 1]	7	PAL1	0	R1333N
496.245	0.009	498129	STOP	n/a	n/a	-999	-999	n/a	n/a	n/a	n/a	3	[-999, -999, -999]	-999	PAL1	0	R1333N
496.254	0.664	498138	MATH_END	n/a	n/a	-999	-999	n/a	n/a	n/a	n/a	3	[0, 0, 0]	-999	PAL1	0	R1333N
496.918	0.001	498802	RETRIEVAL_START	n/a	n/a	-999	-999	n/a	n/a	n/a	n/a	3	[0, 0, 0]	-999	PAL1	0	R1333N
496.919	0.286	498803	ORIENT_START	n/a	n/a	-999	-999	n/a	n/a	n/a	n/a	3	[0, 0, 0]	-999	PAL1	0	R1333N
497.205	0.735	499089	ORIENT_END	n/a	n/a	-999	-999	n/a	n/a	n/a	n/a	3	[0, 0, 0]	-999	PAL1	0	R1333N
497.94	0.001	499824	REC_START	n/a	n/a	1	1	HAWK	n/a	HAWK	DOLL	3	[0, 0, 0]	-999	PAL1	0	R1333N
497.941	4.0	499825	PROBE_START	n/a	wordpools/wordpool_EN.txt	1	1	HAWK	n/a	HAWK	DOLL	3	[0, 0, 0]	-999	PAL1	0	R1333N
500.375	1.597	502259	REC_EVENT	2.434	n/a	1	1	HAWK	<>	HAWK	DOLL	3	[0, 0, 0]	-999	PAL1	0	R1333N
501.972	1.0	503855	PROBE_END	n/a	n/a	1	1	HAWK	n/a	HAWK	DOLL	3	[0, 0, 0]	-999	PAL1	0	R1333N
502.972	0.006	504855	REC_END	n/a	n/a	1	1	HAWK	n/a	HAWK	DOLL	3	[0, 0, 0]	-999	PAL1	0	R1333N
502.978	0.278	504861	ORIENT_START	n/a	n/a	-999	-999	n/a	n/a	n/a	n/a	3	[0, 0, 0]	-999	PAL1	0	R1333N
503.256	0.668	505139	ORIENT_END	n/a	n/a	-999	-999	n/a	n/a	n/a	n/a	3	[0, 0, 0]	-999	PAL1	0	R1333N
503.924	0.0	505807	REC_START	n/a	n/a	6	2	CLOUD	n/a	TREE	CLOUD	3	[0, 0, 0]	-999	PAL1	0	R1333N
503.924	4.0	505807	PROBE_START	n/a	wordpools/wordpool_EN.txt	6	2	CLOUD	n/a	TREE	CLOUD	3	[0, 0, 0]	-999	PAL1	0	R1333N
506.761	1.195	508644	REC_EVENT	2.837	n/a	6	2	CLOUD	<>	TREE	CLOUD	3	[0, 0, 0]	-999	PAL1	0	R1333N
507.956	1.0	509839	PROBE_END	n/a	n/a	6	2	CLOUD	n/a	TREE	CLOUD	3	[0, 0, 0]	-999	PAL1	0	R1333N
508.956	0.012	510839	REC_END	n/a	n/a	6	2	CLOUD	n/a	TREE	CLOUD	3	[0, 0, 0]	-999	PAL1	0	R1333N
508.968	0.272	510851	ORIENT_START	n/a	n/a	-999	-999	n/a	n/a	n/a	n/a	3	[0, 0, 0]	-999	PAL1	0	R1333N
509.24	0.647	511123	ORIENT_END	n/a	n/a	-999	-999	n/a	n/a	n/a	n/a	3	[0, 0, 0]	-999	PAL1	0	R1333N
509.887	0.001	511770	REC_START	n/a	n/a	3	3	SUN	MAZE	CLAY	SUN	3	[0, 0, 0]	-999	PAL1	0	R1333N
509.888	4.0	511771	PROBE_START	n/a	wordpools/wordpool_EN.txt	3	3	SUN	MAZE	CLAY	SUN	3	[0, 0, 0]	-999	PAL1	0	R1333N
512.023	0.398	513906	REC_EVENT	2.135	n/a	3	3	SUN	<>	CLAY	SUN	3	[0, 0, 0]	-999	PAL1	0	R1333N
512.421	1.254	514304	REC_EVENT	2.533	n/a	3	3	SUN	<>	CLAY	SUN	3	[0, 0, 0]	-999	PAL1	0	R1333N
513.675	0.249	515558	REC_EVENT	3.787	n/a	3	3	SUN	MAZE	CLAY	SUN	3	[0, 0, 0]	-999	PAL1	0	R1333N
513.924	1.001	515807	PROBE_END	n/a	n/a	3	3	SUN	n/a	CLAY	SUN	3	[0, 0, 0]	-999	PAL1	0	R1333N
514.925	0.012	516808	REC_END	n/a	n/a	3	3	SUN	n/a	CLAY	SUN	3	[0, 0, 0]	-999	PAL1	0	R1333N
514.937	0.271	516820	ORIENT_START	n/a	n/a	-999	-999	n/a	n/a	n/a	n/a	3	[0, 0, 0]	-999	PAL1	0	R1333N
515.208	0.501	517091	ORIENT_END	n/a	n/a	-999	-999	n/a	n/a	n/a	n/a	3	[0, 0, 0]	-999	PAL1	0	R1333N
515.709	0.001	517592	REC_START	n/a	n/a	4	4	MAZE	n/a	PARK	MAZE	3	[0, 0, 0]	-999	PAL1	0	R1333N
515.71	4.0	517593	PROBE_START	n/a	wordpools/wordpool_EN.txt	4	4	MAZE	n/a	PARK	MAZE	3	[0, 0, 0]	-999	PAL1	0	R1333N
519.741	0.523	521624	PROBE_END	n/a	n/a	4	4	MAZE	n/a	PARK	MAZE	3	[0, 0, 0]	-999	PAL1	0	R1333N
520.264	0.477	522147	REC_EVENT	4.554	n/a	4	4	MAZE	<>	PARK	MAZE	3	[0, 0, 0]	-999	PAL1	0	R1333N
520.741	0.012	522624	REC_END	n/a	n/a	4	4	MAZE	n/a	PARK	MAZE	3	[0, 0, 0]	-999	PAL1	0	R1333N
520.753	0.255	522636	ORIENT_START	n/a	n/a	-999	-999	n/a	n/a	n/a	n/a	3	[0, 0, 0]	-999	PAL1	0	R1333N
521.008	0.732	522891	ORIENT_END	n/a	n/a	-999	-999	n/a	n/a	n/a	n/a	3	[0, 0, 0]	-999	PAL1	0	R1333N
521.74	0.001	523623	REC_START	n/a	n/a	5	5	WORM	PLANE	WORM	PLANE	3	[0, 0, 0]	-999	PAL1	0	R1333N
521.741	4.0	523624	PROBE_START	n/a	wordpools/wordpool_EN.txt	5	5	WORM	PLANE	WORM	PLANE	3	[0, 0, 0]	-999	PAL1	0	R1333N
524.08	1.695	525963	REC_EVENT	2.339	n/a	5	5	WORM	PLANE	WORM	PLANE	3	[0, 0, 0]	-999	PAL1	0	R1333N
525.775	1.0	527658	PROBE_END	n/a	n/a	5	5	WORM	n/a	WORM	PLANE	3	[0, 0, 0]	-999	PAL1	0	R1333N
526.775	0.012	528658	REC_END	n/a	n/a	5	5	WORM	n/a	WORM	PLANE	3	[0, 0, 0]	-999	PAL1	0	R1333N
526.787	0.272	528670	ORIENT_START	n/a	n/a	-999	-999	n/a	n/a	n/a	n/a	3	[0, 0, 0]	-999	PAL1	0	R1333N
527.059	0.646	528942	ORIENT_END	n/a	n/a	-999	-999	n/a	n/a	n/a	n/a	3	[0, 0, 0]	-999	PAL1	0	R1333N
527.705	0.0	529588	REC_START	n/a	n/a	2	6	PIT	n/a	PIT	SWORD	3	[0, 0, 0]	-999	PAL1	0	R1333N
527.705	4.0	529588	PROBE_START	n/a	wordpools/wordpool_EN.txt	2	6	PIT	n/a	PIT	SWORD	3	[0, 0, 0]	-999	PAL1	0	R1333N
531.072	0.671	532954	REC_EVENT	3.367	n/a	2	6	PIT	<>	PIT	SWORD	3	[0, 0, 0]	-999	PAL1	0	R1333N
531.743	1.0	533625	PROBE_END	n/a	n/a	2	6	PIT	n/a	PIT	SWORD	3	[0, 0, 0]	-999	PAL1	0	R1333N
532.743	0.011	534625	REC_END	n/a	n/a	2	6	PIT	n/a	PIT	SWORD	3	[0, 0, 0]	-999	PAL1	0	R1333N
532.754	0.0	534636	TRIAL_END	n/a	n/a	-999	-999	n/a	n/a	n/a	n/a	3	[0, 0, 0]	-999	PAL1	0	R1333N
532.754	0.023	534636	RETRIEVAL_END	n/a	n/a	-999	-999	n/a	n/a	n/a	n/a	3	[0, 0, 0]	-999	PAL1	0	R1333N
532.777	0.0	534659	TRIAL_START	n/a	n/a	-999	-999	n/a	n/a	n/a	n/a	3	[0, 0, 0]	-999	PAL1	0	R1333N
532.777	0.0	534659	TRIAL	n/a	n/a	-999	-999	n/a	n/a	n/a	n/a	4	[0, 0, 0]	-999	PAL1	0	R1333N
532.777	1.699	534659	WAITING_START	n/a	n/a	-999	-999	n/a	n/a	n/a	n/a	4	[0, 0, 0]	-999	PAL1	0	R1333N
534.476	0.001	536358	WAITING_END	n/a	n/a	-999	-999	n/a	n/a	n/a	n/a	4	[0, 0, 0]	-999	PAL1	0	R1333N
534.477	10.0	536359	COUNTDOWN_START	n/a	n/a	-999	-999	n/a	n/a	n/a	n/a	4	[0, 0, 0]	-999	PAL1	0	R1333N
544.906	0.0	546788	COUNTDOWN_END	n/a	n/a	-999	-999	n/a	n/a	n/a	n/a	4	[0, 0, 0]	-999	PAL1	0	R1333N
544.906	0.656	546788	ORIENT_START	n/a	n/a	-999	-999	n/a	n/a	n/a	n/a	4	[0, 0, 0]	-999	PAL1	0	R1333N
545.562	0.0	547444	ORIENT_END	n/a	n/a	-999	-999	n/a	n/a	n/a	n/a	4	[0, 0, 0]	-999	PAL1	0	R1333N
545.562	1.223	547444	ENCODING_START	n/a	n/a	-999	-999	n/a	n/a	n/a	n/a	4	[0, 0, 0]	-999	PAL1	0	R1333N
546.785	4.0	548667	STUDY_PAIR	n/a	wordpools/wordpool_EN.txt	1	-999	n/a	n/a	DIME	BLUSH	4	[0, 0, 0]	-999	PAL1	0	R1333N
550.812	0.56	552694	STUDY_PAIR_OFF	n/a	n/a	1	-999	n/a	n/a	DIME	BLUSH	4	[0, 0, 0]	-999	PAL1	0	R1333N
551.372	4.0	553254	STUDY_PAIR	n/a	wordpools/wordpool_EN.txt	2	-999	n/a	n/a	FOG	SIGN	4	[0, 0, 0]	-999	PAL1	0	R1333N
555.396	0.527	557278	STUDY_PAIR_OFF	n/a	n/a	2	-999	n/a	n/a	FOG	SIGN	4	[0, 0, 0]	-999	PAL1	0	R1333N
555.923	4.0	557805	STUDY_PAIR	n/a	wordpools/wordpool_EN.txt	3	-999	n/a	STAND	CAPE	CART	4	[0, 0, 0]	-999	PAL1	0	R1333N
559.948	0.616	561829	STUDY_PAIR_OFF	n/a	n/a	3	-999	n/a	STAND	CAPE	CART	4	[0, 0, 0]	-999	PAL1	0	R1333N
560.564	4.0	562445	STUDY_PAIR	n/a	wordpools/wordpool_EN.txt	4	-999	n/a	BOY	BOY	ARK	4	[0, 0, 0]	-999	PAL1	0	R1333N
564.598	0.573	566479	STUDY_PAIR_OFF	n/a	n/a	4	-999	n/a	BOY	BOY	ARK	4	[0, 0, 0]	-999	PAL1	0	R1333N
565.171	4.0	567052	STUDY_PAIR	n/a	wordpools/wordpool_EN.txt	5	-999	n/a	VAN	STEAM	VAN	4	[0, 0, 0]	-999	PAL1	0	R1333N
569.2	0.729	571081	STUDY_PAIR_OFF	n/a	n/a	5	-999	n/a	VAN	STEAM	VAN	4	[0, 0, 0]	-999	PAL1	0	R1333N
569.929	4.0	571810	STUDY_PAIR	n/a	wordpools/wordpool_EN.txt	6	-999	n/a	n/a	RIB	TAIL	4	[0, 0, 0]	-999	PAL1	0	R1333N
573.967	0.001	575848	STUDY_PAIR_OFF	n/a	n/a	6	-999	n/a	n/a	RIB	TAIL	4	[0, 0, 0]	-999	PAL1	0	R1333N
573.968	0.0	575849	ENCODING_END	n/a	n/a	-999	-999	n/a	n/a	n/a	n/a	4	[0, 0, 0]	-999	PAL1	0	R1333N
573.968	0.0	575849	MATH_START	n/a	n/a	-999	-999	n/a	n/a	n/a	n/a	4	[0, 0, 0]	-999	PAL1	0	R1333N
573.968	0.016	575849	START	n/a	n/a	-999	-999	n/a	n/a	n/a	n/a	4	[-999, -999, -999]	-999	PAL1	0	R1333N
573.984	5.117	575865	PROB	5.085	n/a	-999	-999	n/a	n/a	n/a	n/a	4	[3, 5, 2]	10	PAL1	0	R1333N
579.101	6.051	580982	PROB	6.024	n/a	-999	-999	n/a	n/a	n/a	n/a	4	[5, 3, 4]	12	PAL1	0	R1333N
585.152	4.45	587033	PROB	4.412	n/a	-999	-999	n/a	n/a	n/a	n/a	4	[4, 3, 8]	15	PAL1	0	R1333N
589.602	4.691	591482	PROB	4.691	n/a	-999	-999	n/a	n/a	n/a	n/a	4	[9, 8, 2]	19	PAL1	0	R1333N
594.293	0.011	596173	STOP	n/a	n/a	-999	-999	n/a	n/a	n/a	n/a	4	[-999, -999, -999]	-999	PAL1	0	R1333N
594.304	0.589	596184	MATH_END	n/a	n/a	-999	-999	n/a	n/a	n/a	n/a	4	[0, 0, 0]	-999	PAL1	0	R1333N
594.893	0.002	596773	RETRIEVAL_START	n/a	n/a	-999	-999	n/a	n/a	n/a	n/a	4	[0, 0, 0]	-999	PAL1	0	R1333N
594.895	0.276	596775	ORIENT_START	n/a	n/a	-999	-999	n/a	n/a	n/a	n/a	4	[0, 0, 0]	-999	PAL1	0	R1333N
595.171	0.627	597051	ORIENT_END	n/a	n/a	-999	-999	n/a	n/a	n/a	n/a	4	[0, 0, 0]	-999	PAL1	0	R1333N
595.798	0.001	597678	REC_START	n/a	n/a	1	1	BLUSH	n/a	DIME	BLUSH	4	[0, 0, 0]	-999	PAL1	0	R1333N
595.799	4.0	597679	PROBE_START	n/a	wordpools/wordpool_EN.txt	1	1	BLUSH	n/a	DIME	BLUSH	4	[0, 0, 0]	-999	PAL1	0	R1333N
599.82	0.064	601700	PROBE_END	n/a	n/a	1	1	BLUSH	n/a	DIME	BLUSH	4	[0, 0, 0]	-999	PAL1	0	R1333N
599.884	0.937	601764	REC_EVENT	4.085	n/a	1	1	BLUSH	<>	DIME	BLUSH	4	[0, 0, 0]	-999	PAL1	0	R1333N
600.821	0.011	602701	REC_END	n/a	n/a	1	1	BLUSH	n/a	DIME	BLUSH	4	[0, 0, 0]	-999	PAL1	0	R1333N
600.832	0.257	602712	ORIENT_START	n/a	n/a	-999	-999	n/a	n/a	n/a	n/a	4	[0, 0, 0]	-999	PAL1	0	R1333N
601.089	0.673	602969	ORIENT_END	n/a	n/a	-999	-999	n/a	n/a	n/a	n/a	4	[0, 0, 0]	-999	PAL1	0	R1333N
601.762	0.0	603642	REC_START	n/a	n/a	2	2	FOG	n/a	FOG	SIGN	4	[0, 0, 0]	-999	PAL1	0	R1333N
601.762	4.0	603642	PROBE_START	n/a	wordpools/wordpool_EN.txt	2	2	FOG	n/a	FOG	SIGN	4	[0, 0, 0]	-999	PAL1	0	R1333N
603.797	1.991	605677	REC_EVENT	2.035	n/a	2	2	FOG	<>	FOG	SIGN	4	[0, 0, 0]	-999	PAL1	0	R1333N
605.788	1.001	607668	PROBE_END	n/a	n/a	2	2	FOG	n/a	FOG	SIGN	4	[0, 0, 0]	-999	PAL1	0	R1333N
606.789	0.012	608669	REC_END	n/a	n/a	2	2	FOG	n/a	FOG	SIGN	4	[0, 0, 0]	-999	PAL1	0	R1333N
606.801	0.272	608681	ORIENT_START	n/a	n/a	-999	-999	n/a	n/a	n/a	n/a	4	[0, 0, 0]	-999	PAL1	0	R1333N
607.073	0.697	608953	ORIENT_END	n/a	n/a	-999	-999	n/a	n/a	n/a	n/a	4	[0, 0, 0]	-999	PAL1	0	R1333N
607.77	4.0	609650	PROBE_START	n/a	wordpools/wordpool_EN.txt	5	3	STEAM	VAN	STEAM	VAN	4	[0, 0, 0]	-999	PAL1	0	R1333N
607.77	3.061	609650	REC_START	n/a	n/a	5	3	STEAM	VAN	STEAM	VAN	4	[0, 0, 0]	-999	PAL1	0	R1333N
610.831	0.323	612711	REC_EVENT	3.061	n/a	5	3	STEAM	<>	STEAM	VAN	4	[0, 0, 0]	-999	PAL1	0	R1333N
611.154	0.652	613034	REC_EVENT	3.384	n/a	5	3	STEAM	VAN	STEAM	VAN	4	[0, 0, 0]	-999	PAL1	0	R1333N
611.806	1.0	613686	PROBE_END	n/a	n/a	5	3	STEAM	n/a	STEAM	VAN	4	[0, 0, 0]	-999	PAL1	0	R1333N
612.806	0.012	614686	REC_END	n/a	n/a	5	3	STEAM	n/a	STEAM	VAN	4	[0, 0, 0]	-999	PAL1	0	R1333N
612.818	0.272	614698	ORIENT_START	n/a	n/a	-999	-999	n/a	n/a	n/a	n/a	4	[0, 0, 0]	-999	PAL1	0	R1333N
613.09	0.706	614970	ORIENT_END	n/a	n/a	-999	-999	n/a	n/a	n/a	n/a	4	[0, 0, 0]	-999	PAL1	0	R1333N
613.796	0.0	615675	REC_START	n/a	n/a	6	4	TAIL	n/a	RIB	TAIL	4	[0, 0, 0]	-999	PAL1	0	R1333N
613.796	4.0	615675	PROBE_START	n/a	wordpools/wordpool_EN.txt	6	4	TAIL	n/a	RIB	TAIL	4	[0, 0, 0]	-999	PAL1	0	R1333N
616.874	0.949	618753	REC_EVENT	3.078	n/a	6	4	TAIL	<>	RIB	TAIL	4	[0, 0, 0]	-999	PAL1	0	R1333N
617.823	1.001	619702	PROBE_END	n/a	n/a	6	4	TAIL	n/a	RIB	TAIL	4	[0, 0, 0]	-999	PAL1	0	R1333N
618.824	0.01	620703	REC_END	n/a	n/a	6	4	TAIL	n/a	RIB	TAIL	4	[0, 0, 0]	-999	PAL1	0	R1333N
618.834	0.257	620713	ORIENT_START	n/a	n/a	-999	-999	n/a	n/a	n/a	n/a	4	[0, 0, 0]	-999	PAL1	0	R1333N
619.091	0.58	620970	ORIENT_END	n/a	n/a	-999	-999	n/a	n/a	n/a	n/a	4	[0, 0, 0]	-999	PAL1	0	R1333N
619.671	0.0	621550	REC_START	n/a	n/a	3	5	CAPE	STAND	CAPE	CART	4	[0, 0, 0]	-999	PAL1	0	R1333N
619.671	4.0	621550	PROBE_START	n/a	wordpools/wordpool_EN.txt	3	5	CAPE	STAND	CAPE	CART	4	[0, 0, 0]	-999	PAL1	0	R1333N
623.096	0.376	624975	REC_EVENT	3.425	n/a	3	5	CAPE	<>	CAPE	CART	4	[0, 0, 0]	-999	PAL1	0	R1333N
623.472	0.236	625351	REC_EVENT	3.801	n/a	3	5	CAPE	STAND	CAPE	CART	4	[0, 0, 0]	-999	PAL1	0	R1333N
623.708	1.001	625587	PROBE_END	n/a	n/a	3	5	CAPE	n/a	CAPE	CART	4	[0, 0, 0]	-999	PAL1	0	R1333N
624.709	0.011	626588	REC_END	n/a	n/a	3	5	CAPE	n/a	CAPE	CART	4	[0, 0, 0]	-999	PAL1	0	R1333N
624.72	0.272	626599	ORIENT_START	n/a	n/a	-999	-999	n/a	n/a	n/a	n/a	4	[0, 0, 0]	-999	PAL1	0	R1333N
624.992	0.562	626871	ORIENT_END	n/a	n/a	-999	-999	n/a	n/a	n/a	n/a	4	[0, 0, 0]	-999	PAL1	0	R1333N
625.554	0.001	627433	REC_START	n/a	n/a	4	6	ARK	BOY	BOY	ARK	4	[0, 0, 0]	-999	PAL1	0	R1333N
625.555	4.0	627434	PROBE_START	n/a	wordpools/wordpool_EN.txt	4	6	ARK	BOY	BOY	ARK	4	[0, 0, 0]	-999	PAL1	0	R1333N
627.87	1.722	629749	REC_EVENT	2.315	n/a	4	6	ARK	BOY	BOY	ARK	4	[0, 0, 0]	-999	PAL1	0	R1333N
629.592	1.001	631471	PROBE_END	n/a	n/a	4	6	ARK	n/a	BOY	ARK	4	[0, 0, 0]	-999	PAL1	0	R1333N
630.593	0.011	632472	REC_END	n/a	n/a	4	6	ARK	n/a	BOY	ARK	4	[0, 0, 0]	-999	PAL1	0	R1333N
630.604	0.0	632483	TRIAL_END	n/a	n/a	-999	-999	n/a	n/a	n/a	n/a	4	[0, 0, 0]	-999	PAL1	0	R1333N
630.604	0.02	632483	RETRIEVAL_END	n/a	n/a	-999	-999	n/a	n/a	n/a	n/a	4	[0, 0, 0]	-999	PAL1	0	R1333N
630.624	0.001	632503	TRIAL_START	n/a	n/a	-999	-999	n/a	n/a	n/a	n/a	4	[0, 0, 0]	-999	PAL1	0	R1333N
630.625	0.0	632504	TRIAL	n/a	n/a	-999	-999	n/a	n/a	n/a	n/a	5	[0, 0, 0]	-999	PAL1	0	R1333N
630.625	1.951	632504	WAITING_START	n/a	n/a	-999	-999	n/a	n/a	n/a	n/a	5	[0, 0, 0]	-999	PAL1	0	R1333N
632.576	0.0	634455	WAITING_END	n/a	n/a	-999	-999	n/a	n/a	n/a	n/a	5	[0, 0, 0]	-999	PAL1	0	R1333N
632.576	10.0	634455	COUNTDOWN_START	n/a	n/a	-999	-999	n/a	n/a	n/a	n/a	5	[0, 0, 0]	-999	PAL1	0	R1333N
643.005	0.0	644883	COUNTDOWN_END	n/a	n/a	-999	-999	n/a	n/a	n/a	n/a	5	[0, 0, 0]	-999	PAL1	0	R1333N
643.005	0.69	644883	ORIENT_START	n/a	n/a	-999	-999	n/a	n/a	n/a	n/a	5	[0, 0, 0]	-999	PAL1	0	R1333N
643.695	0.0	645573	ORIENT_END	n/a	n/a	-999	-999	n/a	n/a	n/a	n/a	5	[0, 0, 0]	-999	PAL1	0	R1333N
643.695	1.056	645573	ENCODING_START	n/a	n/a	-999	-999	n/a	n/a	n/a	n/a	5	[0, 0, 0]	-999	PAL1	0	R1333N
644.751	4.0	646629	STUDY_PAIR	n/a	wordpools/wordpool_EN.txt	1	-999	n/a	n/a	SHELL	CALF	5	[0, 0, 0]	-999	PAL1	0	R1333N
648.779	0.501	650657	STUDY_PAIR_OFF	n/a	n/a	1	-999	n/a	n/a	SHELL	CALF	5	[0, 0, 0]	-999	PAL1	0	R1333N
649.28	4.0	651158	STUDY_PAIR	n/a	wordpools/wordpool_EN.txt	2	-999	n/a	n/a	BOARD	LIP	5	[0, 0, 0]	-999	PAL1	0	R1333N
653.314	0.534	655192	STUDY_PAIR_OFF	n/a	n/a	2	-999	n/a	n/a	BOARD	LIP	5	[0, 0, 0]	-999	PAL1	0	R1333N
653.848	4.0	655726	STUDY_PAIR	n/a	wordpools/wordpool_EN.txt	3	-999	n/a	CHIEF	SMILE	CHIEF	5	[0, 0, 0]	-999	PAL1	0	R1333N
657.88	0.745	659758	STUDY_PAIR_OFF	n/a	n/a	3	-999	n/a	CHIEF	SMILE	CHIEF	5	[0, 0, 0]	-999	PAL1	0	R1333N
658.625	4.0	660503	STUDY_PAIR	n/a	wordpools/wordpool_EN.txt	4	-999	n/a	PIPE	PIPE	THUMB	5	[0, 0, 0]	-999	PAL1	0	R1333N
662.664	0.602	664542	STUDY_PAIR_OFF	n/a	n/a	4	-999	n/a	PIPE	PIPE	THUMB	5	[0, 0, 0]	-999	PAL1	0	R1333N
663.266	4.0	665144	STUDY_PAIR	n/a	wordpools/wordpool_EN.txt	5	-999	n/a	n/a	LAKE	SLEEVE	5	[0, 0, 0]	-999	PAL1	0	R1333N
667.299	0.627	669177	STUDY_PAIR_OFF	n/a	n/a	5	-999	n/a	n/a	LAKE	SLEEVE	5	[0, 0, 0]	-999	PAL1	0	R1333N
667.926	4.0	669804	STUDY_PAIR	n/a	wordpools/wordpool_EN.txt	6	-999	n/a	n/a	VEST	CLOTH	5	[0, 0, 0]	-999	PAL1	0	R1333N
671.967	0.0	673844	STUDY_PAIR_OFF	n/a	n/a	6	-999	n/a	n/a	VEST	CLOTH	5	[0, 0, 0]	-999	PAL1	0	R1333N
671.967	0.001	673844	ENCODING_END	n/a	n/a	-999	-999	n/a	n/a	n/a	n/a	5	[0, 0, 0]	-999	PAL1	0	R1333N
671.968	0.0	673845	MATH_START	n/a	n/a	-999	-999	n/a	n/a	n/a	n/a	5	[0, 0, 0]	-999	PAL1	0	R1333N
671.968	0.015	673845	START	n/a	n/a	-999	-999	n/a	n/a	n/a	n/a	5	[-999, -999, -999]	-999	PAL1	0	R1333N
671.983	4.9	673860	PROB	4.877	n/a	-999	-999	n/a	n/a	n/a	n/a	5	[2, 2, 3]	7	PAL1	0	R1333N
676.883	4.967	678760	PROB	4.945	n/a	-999	-999	n/a	n/a	n/a	n/a	5	[5, 3, 5]	13	PAL1	0	R1333N
681.85	3.718	683727	PROB	3.69	n/a	-999	-999	n/a	n/a	n/a	n/a	5	[4, 7, 2]	13	PAL1	0	R1333N
685.568	3.618	687445	PROB	3.589	n/a	-999	-999	n/a	n/a	n/a	n/a	5	[7, 5, 5]	17	PAL1	0	R1333N
689.186	4.402	691063	PROB	4.402	n/a	-999	-999	n/a	n/a	n/a	n/a	5	[4, 2, 5]	12	PAL1	0	R1333N
693.588	0.015	695465	STOP	n/a	n/a	-999	-999	n/a	n/a	n/a	n/a	5	[-999, -999, -999]	-999	PAL1	0	R1333N
693.603	0.663	695480	MATH_END	n/a	n/a	-999	-999	n/a	n/a	n/a	n/a	5	[0, 0, 0]	-999	PAL1	0	R1333N
694.266	0.002	696143	RETRIEVAL_START	n/a	n/a	-999	-999	n/a	n/a	n/a	n/a	5	[0, 0, 0]	-999	PAL1	0	R1333N
694.268	0.285	696145	ORIENT_START	n/a	n/a	-999	-999	n/a	n/a	n/a	n/a	5	[0, 0, 0]	-999	PAL1	0	R1333N
694.553	0.703	696430	ORIENT_END	n/a	n/a	-999	-999	n/a	n/a	n/a	n/a	5	[0, 0, 0]	-999	PAL1	0	R1333N
695.256	0.0	697133	REC_START	n/a	n/a	3	1	SMILE	CHIEF	SMILE	CHIEF	5	[0, 0, 0]	-999	PAL1	0	R1333N
695.256	4.0	697133	PROBE_START	n/a	wordpools/wordpool_EN.txt	3	1	SMILE	CHIEF	SMILE	CHIEF	5	[0, 0, 0]	-999	PAL1	0	R1333N
698.147	1.124	700024	REC_EVENT	2.891	n/a	3	1	SMILE	<>	SMILE	CHIEF	5	[0, 0, 0]	-999	PAL1	0	R1333N
699.271	0.257	701147	PROBE_END	n/a	n/a	3	1	SMILE	n/a	SMILE	CHIEF	5	[0, 0, 0]	-999	PAL1	0	R1333N
699.528	0.744	701404	REC_EVENT	4.272	n/a	3	1	SMILE	CHIEF	SMILE	CHIEF	5	[0, 0, 0]	-999	PAL1	0	R1333N
700.272	0.012	702148	REC_END	n/a	n/a	3	1	SMILE	n/a	SMILE	CHIEF	5	[0, 0, 0]	-999	PAL1	0	R1333N
700.284	0.27	702160	ORIENT_START	n/a	n/a	-999	-999	n/a	n/a	n/a	n/a	5	[0, 0, 0]	-999	PAL1	0	R1333N
700.554	0.644	702430	ORIENT_END	n/a	n/a	-999	-999	n/a	n/a	n/a	n/a	5	[0, 0, 0]	-999	PAL1	0	R1333N
701.198	0.0	703074	REC_START	n/a	n/a	2	2	LIP	n/a	BOARD	LIP	5	[0, 0, 0]	-999	PAL1	0	R1333N
701.198	4.0	703074	PROBE_START	n/a	wordpools/wordpool_EN.txt	2	2	LIP	n/a	BOARD	LIP	5	[0, 0, 0]	-999	PAL1	0	R1333N
704.426	0.796	706302	REC_EVENT	3.228	n/a	2	2	LIP	<>	BOARD	LIP	5	[0, 0, 0]	-999	PAL1	0	R1333N
705.222	1.0	707098	PROBE_END	n/a	n/a	2	2	LIP	n/a	BOARD	LIP	5	[0, 0, 0]	-999	PAL1	0	R1333N
706.222	0.013	708098	REC_END	n/a	n/a	2	2	LIP	n/a	BOARD	LIP	5	[0, 0, 0]	-999	PAL1	0	R1333N
706.235	0.27	708111	ORIENT_START	n/a	n/a	-999	-999	n/a	n/a	n/a	n/a	5	[0, 0, 0]	-999	PAL1	0	R1333N
706.505	0.722	708381	ORIENT_END	n/a	n/a	-999	-999	n/a	n/a	n/a	n/a	5	[0, 0, 0]	-999	PAL1	0	R1333N
707.227	0.001	709103	REC_START	n/a	n/a	5	3	SLEEVE	n/a	LAKE	SLEEVE	5	[0, 0, 0]	-999	PAL1	0	R1333N
707.228	4.0	709104	PROBE_START	n/a	wordpools/wordpool_EN.txt	5	3	SLEEVE	n/a	LAKE	SLEEVE	5	[0, 0, 0]	-999	PAL1	0	R1333N
709.667	1.59	711543	REC_EVENT	2.439	n/a	5	3	SLEEVE	<>	LAKE	SLEEVE	5	[0, 0, 0]	-999	PAL1	0	R1333N
711.257	0.999	713133	PROBE_END	n/a	n/a	5	3	SLEEVE	n/a	LAKE	SLEEVE	5	[0, 0, 0]	-999	PAL1	0	R1333N
712.256	0.012	714132	REC_END	n/a	n/a	5	3	SLEEVE	n/a	LAKE	SLEEVE	5	[0, 0, 0]	-999	PAL1	0	R1333N
712.268	0.271	714144	ORIENT_START	n/a	n/a	-999	-999	n/a	n/a	n/a	n/a	5	[0, 0, 0]	-999	PAL1	0	R1333N
712.539	0.577	714415	ORIENT_END	n/a	n/a	-999	-999	n/a	n/a	n/a	n/a	5	[0, 0, 0]	-999	PAL1	0	R1333N
713.116	0.0	714992	REC_START	n/a	n/a	6	4	VEST	n/a	VEST	CLOTH	5	[0, 0, 0]	-999	PAL1	0	R1333N
713.116	4.0	714992	PROBE_START	n/a	wordpools/wordpool_EN.txt	6	4	VEST	n/a	VEST	CLOTH	5	[0, 0, 0]	-999	PAL1	0	R1333N
715.355	1.786	717231	REC_EVENT	2.239	n/a	6	4	VEST	<>	VEST	CLOTH	5	[0, 0, 0]	-999	PAL1	0	R1333N
717.141	1.0	719017	PROBE_END	n/a	n/a	6	4	VEST	n/a	VEST	CLOTH	5	[0, 0, 0]	-999	PAL1	0	R1333N
718.141	0.012	720017	REC_END	n/a	n/a	6	4	VEST	n/a	VEST	CLOTH	5	[0, 0, 0]	-999	PAL1	0	R1333N
718.153	0.27	720029	ORIENT_START	n/a	n/a	-999	-999	n/a	n/a	n/a	n/a	5	[0, 0, 0]	-999	PAL1	0	R1333N
718.423	0.603	720299	ORIENT_END	n/a	n/a	-999	-999	n/a	n/a	n/a	n/a	5	[0, 0, 0]	-999	PAL1	0	R1333N
719.026	0.001	720902	REC_START	n/a	n/a	1	5	SHELL	n/a	SHELL	CALF	5	[0, 0, 0]	-999	PAL1	0	R1333N
719.027	4.0	720903	PROBE_START	n/a	wordpools/wordpool_EN.txt	1	5	SHELL	n/a	SHELL	CALF	5	[0, 0, 0]	-999	PAL1	0	R1333N
721.912	1.147	723788	REC_EVENT	2.885	n/a	1	5	SHELL	<>	SHELL	CALF	5	[0, 0, 0]	-999	PAL1	0	R1333N
723.059	0.999	724935	PROBE_END	n/a	n/a	1	5	SHELL	n/a	SHELL	CALF	5	[0, 0, 0]	-999	PAL1	0	R1333N
724.058	0.012	725934	REC_END	n/a	n/a	1	5	SHELL	n/a	SHELL	CALF	5	[0, 0, 0]	-999	PAL1	0	R1333N
724.07	0.271	725946	ORIENT_START	n/a	n/a	-999	-999	n/a	n/a	n/a	n/a	5	[0, 0, 0]	-999	PAL1	0	R1333N
724.341	0.601	726217	ORIENT_END	n/a	n/a	-999	-999	n/a	n/a	n/a	n/a	5	[0, 0, 0]	-999	PAL1	0	R1333N
724.942	0.0	726818	REC_START	n/a	n/a	4	6	THUMB	PIPE	PIPE	THUMB	5	[0, 0, 0]	-999	PAL1	0	R1333N
724.942	4.0	726818	PROBE_START	n/a	wordpools/wordpool_EN.txt	4	6	THUMB	PIPE	PIPE	THUMB	5	[0, 0, 0]	-999	PAL1	0	R1333N
728.4	0.576	730275	REC_EVENT	3.458	n/a	4	6	THUMB	PIPE	PIPE	THUMB	5	[0, 0, 0]	-999	PAL1	0	R1333N
728.976	1.001	730851	PROBE_END	n/a	n/a	4	6	THUMB	n/a	PIPE	THUMB	5	[0, 0, 0]	-999	PAL1	0	R1333N
729.977	0.01	731852	REC_END	n/a	n/a	4	6	THUMB	n/a	PIPE	THUMB	5	[0, 0, 0]	-999	PAL1	0	R1333N
729.987	0.001	731862	RETRIEVAL_END	n/a	n/a	-999	-999	n/a	n/a	n/a	n/a	5	[0, 0, 0]	-999	PAL1	0	R1333N
729.988	0.018	731863	TRIAL_END	n/a	n/a	-999	-999	n/a	n/a	n/a	n/a	5	[0, 0, 0]	-999	PAL1	0	R1333N
730.006	0.0	731881	TRIAL_START	n/a	n/a	-999	-999	n/a	n/a	n/a	n/a	5	[0, 0, 0]	-999	PAL1	0	R1333N
730.006	0.0	731881	TRIAL	n/a	n/a	-999	-999	n/a	n/a	n/a	n/a	6	[0, 0, 0]	-999	PAL1	0	R1333N
730.006	2.736	731881	WAITING_START	n/a	n/a	-999	-999	n/a	n/a	n/a	n/a	6	[0, 0, 0]	-999	PAL1	0	R1333N
732.742	0.001	734617	WAITING_END	n/a	n/a	-999	-999	n/a	n/a	n/a	n/a	6	[0, 0, 0]	-999	PAL1	0	R1333N
732.743	10.0	734618	COUNTDOWN_START	n/a	n/a	-999	-999	n/a	n/a	n/a	n/a	6	[0, 0, 0]	-999	PAL1	0	R1333N
743.172	0.0	745047	COUNTDOWN_END	n/a	n/a	-999	-999	n/a	n/a	n/a	n/a	6	[0, 0, 0]	-999	PAL1	0	R1333N
743.172	0.689	745047	ORIENT_START	n/a	n/a	-999	-999	n/a	n/a	n/a	n/a	6	[0, 0, 0]	-999	PAL1	0	R1333N
743.861	0.001	745736	ORIENT_END	n/a	n/a	-999	-999	n/a	n/a	n/a	n/a	6	[0, 0, 0]	-999	PAL1	0	R1333N
743.862	1.232	745737	ENCODING_START	n/a	n/a	-999	-999	n/a	n/a	n/a	n/a	6	[0, 0, 0]	-999	PAL1	0	R1333N
745.094	4.0	746969	STUDY_PAIR	n/a	wordpools/wordpool_EN.txt	1	-999	n/a	n/a	CHALK	STEM	6	[0, 0, 0]	-999	PAL1	0	R1333N
749.13	0.541	751005	STUDY_PAIR_OFF	n/a	n/a	1	-999	n/a	n/a	CHALK	STEM	6	[0, 0, 0]	-999	PAL1	0	R1333N
749.671	4.0	751546	STUDY_PAIR	n/a	wordpools/wordpool_EN.txt	2	-999	n/a	GRAPE	SKY	GRAPE	6	[0, 0, 0]	-999	PAL1	0	R1333N
753.696	0.702	755571	STUDY_PAIR_OFF	n/a	n/a	2	-999	n/a	GRAPE	SKY	GRAPE	6	[0, 0, 0]	-999	PAL1	0	R1333N
754.398	4.0	756273	STUDY_PAIR	n/a	wordpools/wordpool_EN.txt	3	-999	n/a	n/a	BOX	COUCH	6	[0, 0, 0]	-999	PAL1	0	R1333N
758.43	0.631	760304	STUDY_PAIR_OFF	n/a	n/a	3	-999	n/a	n/a	BOX	COUCH	6	[0, 0, 0]	-999	PAL1	0	R1333N
759.061	4.0	760935	STUDY_PAIR	n/a	wordpools/wordpool_EN.txt	4	-999	n/a	n/a	MAT	ARM	6	[0, 0, 0]	-999	PAL1	0	R1333N
763.098	0.675	764972	STUDY_PAIR_OFF	n/a	n/a	4	-999	n/a	n/a	MAT	ARM	6	[0, 0, 0]	-999	PAL1	0	R1333N
763.773	4.0	765647	STUDY_PAIR	n/a	wordpools/wordpool_EN.txt	5	-999	n/a	APE	PLANT	BIRD	6	[0, 0, 0]	-999	PAL1	0	R1333N
767.798	0.589	769672	STUDY_PAIR_OFF	n/a	n/a	5	-999	n/a	APE	PLANT	BIRD	6	[0, 0, 0]	-999	PAL1	0	R1333N
768.387	4.0	770261	STUDY_PAIR	n/a	wordpools/wordpool_EN.txt	6	-999	n/a	n/a	TRUCK	APE	6	[0, 0, 0]	-999	PAL1	0	R1333N
772.416	0.0	774290	STUDY_PAIR_OFF	n/a	n/a	6	-999	n/a	n/a	TRUCK	APE	6	[0, 0, 0]	-999	PAL1	0	R1333N
772.416	0.001	774290	ENCODING_END	n/a	n/a	-999	-999	n/a	n/a	n/a	n/a	6	[0, 0, 0]	-999	PAL1	0	R1333N
772.417	0.0	774291	MATH_START	n/a	n/a	-999	-999	n/a	n/a	n/a	n/a	6	[0, 0, 0]	-999	PAL1	0	R1333N
772.417	0.015	774291	START	n/a	n/a	-999	-999	n/a	n/a	n/a	n/a	6	[-999, -999, -999]	-999	PAL1	0	R1333N
772.432	4.101	774306	PROB	4.068	n/a	-999	-999	n/a	n/a	n/a	n/a	6	[1, 8, 1]	10	PAL1	0	R1333N
776.533	4.334	778407	PROB	4.311	n/a	-999	-999	n/a	n/a	n/a	n/a	6	[5, 4, 6]	15	PAL1	0	R1333N
780.867	3.734	782741	PROB	3.696	n/a	-999	-999	n/a	n/a	n/a	n/a	6	[9, 2, 4]	15	PAL1	0	R1333N
784.601	3.601	786474	PROB	3.572	n/a	-999	-999	n/a	n/a	n/a	n/a	6	[8, 7, 6]	21	PAL1	0	R1333N
788.202	4.314	790075	PROB	4.314	n/a	-999	-999	n/a	n/a	n/a	n/a	6	[6, 1, 3]	12	PAL1	0	R1333N
792.516	0.02	794389	STOP	n/a	n/a	-999	-999	n/a	n/a	n/a	n/a	6	[-999, -999, -999]	-999	PAL1	0	R1333N
792.536	0.531	794409	MATH_END	n/a	n/a	-999	-999	n/a	n/a	n/a	n/a	6	[0, 0, 0]	-999	PAL1	0	R1333N
793.067	0.001	794940	RETRIEVAL_START	n/a	n/a	-999	-999	n/a	n/a	n/a	n/a	6	[0, 0, 0]	-999	PAL1	0	R1333N
793.068	0.284	794941	ORIENT_START	n/a	n/a	-999	-999	n/a	n/a	n/a	n/a	6	[0, 0, 0]	-999	PAL1	0	R1333N
793.352	0.526	795225	ORIENT_END	n/a	n/a	-999	-999	n/a	n/a	n/a	n/a	6	[0, 0, 0]	-999	PAL1	0	R1333N
793.878	4.0	795751	PROBE_START	n/a	wordpools/wordpool_EN.txt	1	1	STEM	n/a	CHALK	STEM	6	[0, 0, 0]	-999	PAL1	0	R1333N
793.878	3.963	795751	REC_START	n/a	n/a	1	1	STEM	n/a	CHALK	STEM	6	[0, 0, 0]	-999	PAL1	0	R1333N
797.841	0.062	799714	REC_EVENT	3.963	n/a	1	1	STEM	<>	CHALK	STEM	6	[0, 0, 0]	-999	PAL1	0	R1333N
797.903	1.001	799776	PROBE_END	n/a	n/a	1	1	STEM	n/a	CHALK	STEM	6	[0, 0, 0]	-999	PAL1	0	R1333N
798.904	0.012	800777	REC_END	n/a	n/a	1	1	STEM	n/a	CHALK	STEM	6	[0, 0, 0]	-999	PAL1	0	R1333N
798.916	0.272	800789	ORIENT_START	n/a	n/a	-999	-999	n/a	n/a	n/a	n/a	6	[0, 0, 0]	-999	PAL1	0	R1333N
799.188	0.556	801061	ORIENT_END	n/a	n/a	-999	-999	n/a	n/a	n/a	n/a	6	[0, 0, 0]	-999	PAL1	0	R1333N
799.744	0.0	801617	REC_START	n/a	n/a	6	2	APE	n/a	TRUCK	APE	6	[0, 0, 0]	-999	PAL1	0	R1333N
799.744	4.0	801617	PROBE_START	n/a	wordpools/wordpool_EN.txt	6	2	APE	n/a	TRUCK	APE	6	[0, 0, 0]	-999	PAL1	0	R1333N
803.303	0.468	805176	REC_EVENT	3.559	n/a	6	2	APE	<>	TRUCK	APE	6	[0, 0, 0]	-999	PAL1	0	R1333N
803.771	1.0	805644	PROBE_END	n/a	n/a	6	2	APE	n/a	TRUCK	APE	6	[0, 0, 0]	-999	PAL1	0	R1333N
804.771	0.012	806644	REC_END	n/a	n/a	6	2	APE	n/a	TRUCK	APE	6	[0, 0, 0]	-999	PAL1	0	R1333N
804.783	0.272	806656	ORIENT_START	n/a	n/a	-999	-999	n/a	n/a	n/a	n/a	6	[0, 0, 0]	-999	PAL1	0	R1333N
805.055	0.677	806928	ORIENT_END	n/a	n/a	-999	-999	n/a	n/a	n/a	n/a	6	[0, 0, 0]	-999	PAL1	0	R1333N
805.732	0.001	807605	REC_START	n/a	n/a	3	3	BOX	n/a	BOX	COUCH	6	[0, 0, 0]	-999	PAL1	0	R1333N
805.733	4.0	807606	PROBE_START	n/a	wordpools/wordpool_EN.txt	3	3	BOX	n/a	BOX	COUCH	6	[0, 0, 0]	-999	PAL1	0	R1333N
809.445	0.31	811318	REC_EVENT	3.712	n/a	3	3	BOX	<>	BOX	COUCH	6	[0, 0, 0]	-999	PAL1	0	R1333N
809.755	1.0	811628	PROBE_END	n/a	n/a	3	3	BOX	n/a	BOX	COUCH	6	[0, 0, 0]	-999	PAL1	0	R1333N
810.755	0.011	812628	REC_END	n/a	n/a	3	3	BOX	n/a	BOX	COUCH	6	[0, 0, 0]	-999	PAL1	0	R1333N
810.766	0.274	812639	ORIENT_START	n/a	n/a	-999	-999	n/a	n/a	n/a	n/a	6	[0, 0, 0]	-999	PAL1	0	R1333N
811.04	0.533	812913	ORIENT_END	n/a	n/a	-999	-999	n/a	n/a	n/a	n/a	6	[0, 0, 0]	-999	PAL1	0	R1333N
811.573	0.0	813446	REC_START	n/a	n/a	4	4	MAT	n/a	MAT	ARM	6	[0, 0, 0]	-999	PAL1	0	R1333N
811.573	4.0	813446	PROBE_START	n/a	wordpools/wordpool_EN.txt	4	4	MAT	n/a	MAT	ARM	6	[0, 0, 0]	-999	PAL1	0	R1333N
814.112	1.494	815984	REC_EVENT	2.539	n/a	4	4	MAT	<>	MAT	ARM	6	[0, 0, 0]	-999	PAL1	0	R1333N
815.606	1.0	817478	PROBE_END	n/a	n/a	4	4	MAT	n/a	MAT	ARM	6	[0, 0, 0]	-999	PAL1	0	R1333N
816.606	0.012	818478	REC_END	n/a	n/a	4	4	MAT	n/a	MAT	ARM	6	[0, 0, 0]	-999	PAL1	0	R1333N
816.618	0.272	818490	ORIENT_START	n/a	n/a	-999	-999	n/a	n/a	n/a	n/a	6	[0, 0, 0]	-999	PAL1	0	R1333N
816.89	0.535	818762	ORIENT_END	n/a	n/a	-999	-999	n/a	n/a	n/a	n/a	6	[0, 0, 0]	-999	PAL1	0	R1333N
817.425	4.0	819297	PROBE_START	n/a	wordpools/wordpool_EN.txt	5	5	BIRD	APE	PLANT	BIRD	6	[0, 0, 0]	-999	PAL1	0	R1333N
817.425	2.142	819297	REC_START	n/a	n/a	5	5	BIRD	APE	PLANT	BIRD	6	[0, 0, 0]	-999	PAL1	0	R1333N
819.567	1.89	821439	REC_EVENT	2.142	n/a	5	5	BIRD	APE	PLANT	BIRD	6	[0, 0, 0]	-999	PAL1	0	R1333N
821.457	1.0	823329	PROBE_END	n/a	n/a	5	5	BIRD	n/a	PLANT	BIRD	6	[0, 0, 0]	-999	PAL1	0	R1333N
822.457	0.01	824329	REC_END	n/a	n/a	5	5	BIRD	n/a	PLANT	BIRD	6	[0, 0, 0]	-999	PAL1	0	R1333N
822.467	0.274	824339	ORIENT_START	n/a	n/a	-999	-999	n/a	n/a	n/a	n/a	6	[0, 0, 0]	-999	PAL1	0	R1333N
822.741	0.614	824613	ORIENT_END	n/a	n/a	-999	-999	n/a	n/a	n/a	n/a	6	[0, 0, 0]	-999	PAL1	0	R1333N
823.355	0.001	825227	REC_START	n/a	n/a	2	6	SKY	GRAPE	SKY	GRAPE	6	[0, 0, 0]	-999	PAL1	0	R1333N
823.356	4.0	825228	PROBE_START	n/a	wordpools/wordpool_EN.txt	2	6	SKY	GRAPE	SKY	GRAPE	6	[0, 0, 0]	-999	PAL1	0	R1333N
827.391	0.323	829263	PROBE_END	n/a	n/a	2	6	SKY	n/a	SKY	GRAPE	6	[0, 0, 0]	-999	PAL1	0	R1333N
827.714	0.677	829586	REC_EVENT	4.358	n/a	2	6	SKY	GRAPE	SKY	GRAPE	6	[0, 0, 0]	-999	PAL1	0	R1333N
828.391	0.011	830263	REC_END	n/a	n/a	2	6	SKY	n/a	SKY	GRAPE	6	[0, 0, 0]	-999	PAL1	0	R1333N
828.402	0.0	830274	TRIAL_END	n/a	n/a	-999	-999	n/a	n/a	n/a	n/a	6	[0, 0, 0]	-999	PAL1	0	R1333N
828.402	0.019	830274	RETRIEVAL_END	n/a	n/a	-999	-999	n/a	n/a	n/a	n/a	6	[0, 0, 0]	-999	PAL1	0	R1333N
828.421	0.0	830293	TRIAL	n/a	n/a	-999	-999	n/a	n/a	n/a	n/a	7	[0, 0, 0]	-999	PAL1	0	R1333N
828.421	0.001	830293	TRIAL_START	n/a	n/a	-999	-999	n/a	n/a	n/a	n/a	6	[0, 0, 0]	-999	PAL1	0	R1333N
828.422	40.811	830294	WAITING_START	n/a	n/a	-999	-999	n/a	n/a	n/a	n/a	7	[0, 0, 0]	-999	PAL1	0	R1333N
869.233	0.0	871103	WAITING_END	n/a	n/a	-999	-999	n/a	n/a	n/a	n/a	7	[0, 0, 0]	-999	PAL1	0	R1333N
869.233	10.0	871103	COUNTDOWN_START	n/a	n/a	-999	-999	n/a	n/a	n/a	n/a	7	[0, 0, 0]	-999	PAL1	0	R1333N
879.663	0.0	881533	COUNTDOWN_END	n/a	n/a	-999	-999	n/a	n/a	n/a	n/a	7	[0, 0, 0]	-999	PAL1	0	R1333N
879.663	0.687	881533	ORIENT_START	n/a	n/a	-999	-999	n/a	n/a	n/a	n/a	7	[0, 0, 0]	-999	PAL1	0	R1333N
880.35	0.001	882220	ORIENT_END	n/a	n/a	-999	-999	n/a	n/a	n/a	n/a	7	[0, 0, 0]	-999	PAL1	0	R1333N
880.351	1.122	882221	ENCODING_START	n/a	n/a	-999	-999	n/a	n/a	n/a	n/a	7	[0, 0, 0]	-999	PAL1	0	R1333N
881.473	4.0	883343	STUDY_PAIR	n/a	wordpools/wordpool_EN.txt	1	-999	n/a	n/a	PLATE	CANE	7	[0, 0, 0]	-999	PAL1	0	R1333N
885.484	0.547	887354	STUDY_PAIR_OFF	n/a	n/a	1	-999	n/a	n/a	PLATE	CANE	7	[0, 0, 0]	-999	PAL1	0	R1333N
886.031	4.0	887901	STUDY_PAIR	n/a	wordpools/wordpool_EN.txt	2	-999	n/a	n/a	WEED	FUR	7	[0, 0, 0]	-999	PAL1	0	R1333N
890.069	0.577	891939	STUDY_PAIR_OFF	n/a	n/a	2	-999	n/a	n/a	WEED	FUR	7	[0, 0, 0]	-999	PAL1	0	R1333N
890.646	4.0	892516	STUDY_PAIR	n/a	wordpools/wordpool_EN.txt	3	-999	n/a	n/a	AXE	MILK	7	[0, 0, 0]	-999	PAL1	0	R1333N
894.669	0.562	896539	STUDY_PAIR_OFF	n/a	n/a	3	-999	n/a	n/a	AXE	MILK	7	[0, 0, 0]	-999	PAL1	0	R1333N
895.231	4.0	897101	STUDY_PAIR	n/a	wordpools/wordpool_EN.txt	4	-999	n/a	n/a	BRUSH	BEAR	7	[0, 0, 0]	-999	PAL1	0	R1333N
899.271	0.502	901140	STUDY_PAIR_OFF	n/a	n/a	4	-999	n/a	n/a	BRUSH	BEAR	7	[0, 0, 0]	-999	PAL1	0	R1333N
899.773	4.0	901642	STUDY_PAIR	n/a	wordpools/wordpool_EN.txt	5	-999	n/a	n/a	BAT	JUICE	7	[0, 0, 0]	-999	PAL1	0	R1333N
903.804	0.558	905673	STUDY_PAIR_OFF	n/a	n/a	5	-999	n/a	n/a	BAT	JUICE	7	[0, 0, 0]	-999	PAL1	0	R1333N
904.362	4.0	906231	STUDY_PAIR	n/a	wordpools/wordpool_EN.txt	6	-999	n/a	FOOT	BALL	FOOT	7	[0, 0, 0]	-999	PAL1	0	R1333N
908.388	0.001	910257	STUDY_PAIR_OFF	n/a	n/a	6	-999	n/a	FOOT	BALL	FOOT	7	[0, 0, 0]	-999	PAL1	0	R1333N
908.389	0.0	910258	ENCODING_END	n/a	n/a	-999	-999	n/a	n/a	n/a	n/a	7	[0, 0, 0]	-999	PAL1	0	R1333N
908.389	0.0	910258	MATH_START	n/a	n/a	-999	-999	n/a	n/a	n/a	n/a	7	[0, 0, 0]	-999	PAL1	0	R1333N
908.389	0.016	910258	START	n/a	n/a	-999	-999	n/a	n/a	n/a	n/a	7	[-999, -999, -999]	-999	PAL1	0	R1333N
908.405	4.851	910274	PROB	4.824	n/a	-999	-999	n/a	n/a	n/a	n/a	7	[6, 4, 1]	11	PAL1	0	R1333N
913.256	4.617	915125	PROB	4.58	n/a	-999	-999	n/a	n/a	n/a	n/a	7	[4, 2, 8]	14	PAL1	0	R1333N
917.873	8.052	919742	PROB	8.019	n/a	-999	-999	n/a	n/a	n/a	n/a	7	[9, 1, 6]	16	PAL1	0	R1333N
925.925	2.839	927793	PROB	2.839	n/a	-999	-999	n/a	n/a	n/a	n/a	7	[2, 1, 1]	4	PAL1	0	R1333N
928.764	0.011	930632	STOP	n/a	n/a	-999	-999	n/a	n/a	n/a	n/a	7	[-999, -999, -999]	-999	PAL1	0	R1333N
928.775	0.662	930643	MATH_END	n/a	n/a	-999	-999	n/a	n/a	n/a	n/a	7	[0, 0, 0]	-999	PAL1	0	R1333N
929.437	0.002	931305	RETRIEVAL_START	n/a	n/a	-999	-999	n/a	n/a	n/a	n/a	7	[0, 0, 0]	-999	PAL1	0	R1333N
929.439	0.286	931307	ORIENT_START	n/a	n/a	-999	-999	n/a	n/a	n/a	n/a	7	[0, 0, 0]	-999	PAL1	0	R1333N
929.725	0.742	931593	ORIENT_END	n/a	n/a	-999	-999	n/a	n/a	n/a	n/a	7	[0, 0, 0]	-999	PAL1	0	R1333N
930.467	0.0	932335	REC_START	n/a	n/a	1	1	CANE	n/a	PLATE	CANE	7	[0, 0, 0]	-999	PAL1	0	R1333N
930.467	4.0	932335	PROBE_START	n/a	wordpools/wordpool_EN.txt	1	1	CANE	n/a	PLATE	CANE	7	[0, 0, 0]	-999	PAL1	0	R1333N
932.902	1.59	934770	REC_EVENT	2.435	n/a	1	1	CANE	<>	PLATE	CANE	7	[0, 0, 0]	-999	PAL1	0	R1333N
934.492	1.0	936360	PROBE_END	n/a	n/a	1	1	CANE	n/a	PLATE	CANE	7	[0, 0, 0]	-999	PAL1	0	R1333N
935.492	0.007	937360	REC_END	n/a	n/a	1	1	CANE	n/a	PLATE	CANE	7	[0, 0, 0]	-999	PAL1	0	R1333N
935.499	0.277	937367	ORIENT_START	n/a	n/a	-999	-999	n/a	n/a	n/a	n/a	7	[0, 0, 0]	-999	PAL1	0	R1333N
935.776	0.734	937644	ORIENT_END	n/a	n/a	-999	-999	n/a	n/a	n/a	n/a	7	[0, 0, 0]	-999	PAL1	0	R1333N
936.51	0.0	938378	REC_START	n/a	n/a	4	2	BEAR	n/a	BRUSH	BEAR	7	[0, 0, 0]	-999	PAL1	0	R1333N
936.51	4.0	938378	PROBE_START	n/a	wordpools/wordpool_EN.txt	4	2	BEAR	n/a	BRUSH	BEAR	7	[0, 0, 0]	-999	PAL1	0	R1333N
940.543	1.0	942411	PROBE_END	n/a	n/a	4	2	BEAR	n/a	BRUSH	BEAR	7	[0, 0, 0]	-999	PAL1	0	R1333N
941.543	0.006	943411	REC_END	n/a	n/a	4	2	BEAR	n/a	BRUSH	BEAR	7	[0, 0, 0]	-999	PAL1	0	R1333N
941.549	0.278	943417	ORIENT_START	n/a	n/a	-999	-999	n/a	n/a	n/a	n/a	7	[0, 0, 0]	-999	PAL1	0	R1333N
941.827	0.471	943695	ORIENT_END	n/a	n/a	-999	-999	n/a	n/a	n/a	n/a	7	[0, 0, 0]	-999	PAL1	0	R1333N
942.298	0.124	944166	REC_EVENT	5.788	n/a	4	2	BEAR	<>	BRUSH	BEAR	7	[0, 0, 0]	-999	PAL1	0	R1333N
942.422	0.001	944290	REC_START	n/a	n/a	3	3	AXE	n/a	AXE	MILK	7	[0, 0, 0]	-999	PAL1	0	R1333N
942.423	4.0	944291	PROBE_START	n/a	wordpools/wordpool_EN.txt	3	3	AXE	n/a	AXE	MILK	7	[0, 0, 0]	-999	PAL1	0	R1333N
942.525	3.224	944393	REC_EVENT	0.102	n/a	3	3	AXE	<>	AXE	MILK	7	[0, 0, 0]	-999	PAL1	0	R1333N
945.749	0.695	947617	REC_EVENT	3.326	n/a	3	3	AXE	<>	AXE	MILK	7	[0, 0, 0]	-999	PAL1	0	R1333N
946.444	1.0	948312	PROBE_END	n/a	n/a	3	3	AXE	n/a	AXE	MILK	7	[0, 0, 0]	-999	PAL1	0	R1333N
947.444	0.011	949312	REC_END	n/a	n/a	3	3	AXE	n/a	AXE	MILK	7	[0, 0, 0]	-999	PAL1	0	R1333N
947.455	0.273	949323	ORIENT_START	n/a	n/a	-999	-999	n/a	n/a	n/a	n/a	7	[0, 0, 0]	-999	PAL1	0	R1333N
947.728	0.564	949596	ORIENT_END	n/a	n/a	-999	-999	n/a	n/a	n/a	n/a	7	[0, 0, 0]	-999	PAL1	0	R1333N
948.292	0.001	950160	REC_START	n/a	n/a	6	4	BALL	FOOT	BALL	FOOT	7	[0, 0, 0]	-999	PAL1	0	R1333N
948.293	4.0	950161	PROBE_START	n/a	wordpools/wordpool_EN.txt	6	4	BALL	FOOT	BALL	FOOT	7	[0, 0, 0]	-999	PAL1	0	R1333N
950.728	1.602	952596	REC_EVENT	2.435	n/a	6	4	BALL	FOOT	BALL	FOOT	7	[0, 0, 0]	-999	PAL1	0	R1333N
952.33	1.001	954198	PROBE_END	n/a	n/a	6	4	BALL	n/a	BALL	FOOT	7	[0, 0, 0]	-999	PAL1	0	R1333N
953.331	0.01	955198	REC_END	n/a	n/a	6	4	BALL	n/a	BALL	FOOT	7	[0, 0, 0]	-999	PAL1	0	R1333N
953.341	0.271	955208	ORIENT_START	n/a	n/a	-999	-999	n/a	n/a	n/a	n/a	7	[0, 0, 0]	-999	PAL1	0	R1333N
953.612	0.703	955479	ORIENT_END	n/a	n/a	-999	-999	n/a	n/a	n/a	n/a	7	[0, 0, 0]	-999	PAL1	0	R1333N
954.315	4.0	956182	PROBE_START	n/a	wordpools/wordpool_EN.txt	5	5	BAT	n/a	BAT	JUICE	7	[0, 0, 0]	-999	PAL1	0	R1333N
954.315	4.031	956182	REC_START	n/a	n/a	5	5	BAT	n/a	BAT	JUICE	7	[0, 0, 0]	-999	PAL1	0	R1333N
958.346	0.758	960213	PROBE_END	n/a	n/a	5	5	BAT	n/a	BAT	JUICE	7	[0, 0, 0]	-999	PAL1	0	R1333N
959.104	0.243	960971	REC_EVENT	4.789	n/a	5	5	BAT	<>	BAT	JUICE	7	[0, 0, 0]	-999	PAL1	0	R1333N
959.347	0.012	961214	REC_END	n/a	n/a	5	5	BAT	n/a	BAT	JUICE	7	[0, 0, 0]	-999	PAL1	0	R1333N
959.359	0.271	961226	ORIENT_START	n/a	n/a	-999	-999	n/a	n/a	n/a	n/a	7	[0, 0, 0]	-999	PAL1	0	R1333N
959.63	0.75	961497	ORIENT_END	n/a	n/a	-999	-999	n/a	n/a	n/a	n/a	7	[0, 0, 0]	-999	PAL1	0	R1333N
960.38	0.0	962247	REC_START	n/a	n/a	2	6	FUR	n/a	WEED	FUR	7	[0, 0, 0]	-999	PAL1	0	R1333N
960.38	4.0	962247	PROBE_START	n/a	wordpools/wordpool_EN.txt	2	6	FUR	n/a	WEED	FUR	7	[0, 0, 0]	-999	PAL1	0	R1333N
963.005	1.409	964872	REC_EVENT	2.625	n/a	2	6	FUR	<>	WEED	FUR	7	[0, 0, 0]	-999	PAL1	0	R1333N
964.414	1.001	966281	PROBE_END	n/a	n/a	2	6	FUR	n/a	WEED	FUR	7	[0, 0, 0]	-999	PAL1	0	R1333N
965.415	0.006	967282	REC_END	n/a	n/a	2	6	FUR	n/a	WEED	FUR	7	[0, 0, 0]	-999	PAL1	0	R1333N
965.421	0.0	967288	TRIAL_END	n/a	n/a	-999	-999	n/a	n/a	n/a	n/a	7	[0, 0, 0]	-999	PAL1	0	R1333N
965.421	0.022	967288	RETRIEVAL_END	n/a	n/a	-999	-999	n/a	n/a	n/a	n/a	7	[0, 0, 0]	-999	PAL1	0	R1333N
965.443	0.0	967310	TRIAL	n/a	n/a	-999	-999	n/a	n/a	n/a	n/a	8	[0, 0, 0]	-999	PAL1	0	R1333N
965.443	0.0	967310	WAITING_START	n/a	n/a	-999	-999	n/a	n/a	n/a	n/a	8	[0, 0, 0]	-999	PAL1	0	R1333N
965.443	1.489	967310	TRIAL_START	n/a	n/a	-999	-999	n/a	n/a	n/a	n/a	7	[0, 0, 0]	-999	PAL1	0	R1333N
966.932	0.001	968799	WAITING_END	n/a	n/a	-999	-999	n/a	n/a	n/a	n/a	8	[0, 0, 0]	-999	PAL1	0	R1333N
966.933	10.0	968800	COUNTDOWN_START	n/a	n/a	-999	-999	n/a	n/a	n/a	n/a	8	[0, 0, 0]	-999	PAL1	0	R1333N
977.362	0.0	979229	COUNTDOWN_END	n/a	n/a	-999	-999	n/a	n/a	n/a	n/a	8	[0, 0, 0]	-999	PAL1	0	R1333N
977.362	0.705	979229	ORIENT_START	n/a	n/a	-999	-999	n/a	n/a	n/a	n/a	8	[0, 0, 0]	-999	PAL1	0	R1333N
978.067	0.001	979934	ORIENT_END	n/a	n/a	-999	-999	n/a	n/a	n/a	n/a	8	[0, 0, 0]	-999	PAL1	0	R1333N
978.068	1.15	979935	ENCODING_START	n/a	n/a	-999	-999	n/a	n/a	n/a	n/a	8	[0, 0, 0]	-999	PAL1	0	R1333N
979.218	4.0	981085	STUDY_PAIR	n/a	wordpools/wordpool_EN.txt	1	-999	n/a	n/a	STORE	STRAW	8	[0, 0, 0]	-999	PAL1	0	R1333N
983.252	0.54	985118	STUDY_PAIR_OFF	n/a	n/a	1	-999	n/a	n/a	STORE	STRAW	8	[0, 0, 0]	-999	PAL1	0	R1333N
983.792	4.0	985658	STUDY_PAIR	n/a	wordpools/wordpool_EN.txt	2	-999	n/a	n/a	POND	MOLE	8	[0, 0, 0]	-999	PAL1	0	R1333N
987.818	0.68	989684	STUDY_PAIR_OFF	n/a	n/a	2	-999	n/a	n/a	POND	MOLE	8	[0, 0, 0]	-999	PAL1	0	R1333N
988.498	4.0	990364	STUDY_PAIR	n/a	wordpools/wordpool_EN.txt	3	-999	n/a	HEN	HEN	SUIT	8	[0, 0, 0]	-999	PAL1	0	R1333N
992.535	0.592	994401	STUDY_PAIR_OFF	n/a	n/a	3	-999	n/a	HEN	HEN	SUIT	8	[0, 0, 0]	-999	PAL1	0	R1333N
993.127	4.0	994993	STUDY_PAIR	n/a	wordpools/wordpool_EN.txt	4	-999	n/a	SINK	SINK	CLIFF	8	[0, 0, 0]	-999	PAL1	0	R1333N
997.154	0.624	999020	STUDY_PAIR_OFF	n/a	n/a	4	-999	n/a	SINK	SINK	CLIFF	8	[0, 0, 0]	-999	PAL1	0	R1333N
997.778	4.0	999644	STUDY_PAIR	n/a	wordpools/wordpool_EN.txt	5	-999	n/a	n/a	FUDGE	FISH	8	[0, 0, 0]	-999	PAL1	0	R1333N
1001.804	0.606	1003670	STUDY_PAIR_OFF	n/a	n/a	5	-999	n/a	n/a	FUDGE	FISH	8	[0, 0, 0]	-999	PAL1	0	R1333N
1002.41	4.0	1004276	STUDY_PAIR	n/a	wordpools/wordpool_EN.txt	6	-999	n/a	SKY	SOUP	KITE	8	[0, 0, 0]	-999	PAL1	0	R1333N
1006.438	0.0	1008304	STUDY_PAIR_OFF	n/a	n/a	6	-999	n/a	SKY	SOUP	KITE	8	[0, 0, 0]	-999	PAL1	0	R1333N
1006.438	0.001	1008304	ENCODING_END	n/a	n/a	-999	-999	n/a	n/a	n/a	n/a	8	[0, 0, 0]	-999	PAL1	0	R1333N
1006.439	0.0	1008305	MATH_START	n/a	n/a	-999	-999	n/a	n/a	n/a	n/a	8	[0, 0, 0]	-999	PAL1	0	R1333N
1006.439	0.015	1008305	START	n/a	n/a	-999	-999	n/a	n/a	n/a	n/a	8	[-999, -999, -999]	-999	PAL1	0	R1333N
1006.454	4.451	1008320	PROB	4.414	n/a	-999	-999	n/a	n/a	n/a	n/a	8	[5, 9, 1]	15	PAL1	0	R1333N
1010.905	5.152	1012770	PROB	5.124	n/a	-999	-999	n/a	n/a	n/a	n/a	8	[4, 7, 7]	18	PAL1	0	R1333N
1016.057	5.766	1017922	PROB	5.74	n/a	-999	-999	n/a	n/a	n/a	n/a	8	[2, 7, 1]	10	PAL1	0	R1333N
1021.823	3.951	1023688	PROB	3.917	n/a	-999	-999	n/a	n/a	n/a	n/a	8	[5, 1, 9]	15	PAL1	0	R1333N
1025.774	4.926	1027639	PROB	4.926	n/a	-999	-999	n/a	n/a	n/a	n/a	8	[1, 2, 5]	8	PAL1	0	R1333N
1030.7	0.009	1032565	STOP	n/a	n/a	-999	-999	n/a	n/a	n/a	n/a	8	[-999, -999, -999]	-999	PAL1	0	R1333N
1030.709	0.637	1032574	MATH_END	n/a	n/a	-999	-999	n/a	n/a	n/a	n/a	8	[0, 0, 0]	-999	PAL1	0	R1333N
1031.346	0.001	1033211	RETRIEVAL_START	n/a	n/a	-999	-999	n/a	n/a	n/a	n/a	8	[0, 0, 0]	-999	PAL1	0	R1333N
1031.347	0.278	1033212	ORIENT_START	n/a	n/a	-999	-999	n/a	n/a	n/a	n/a	8	[0, 0, 0]	-999	PAL1	0	R1333N
1031.625	0.545	1033490	ORIENT_END	n/a	n/a	-999	-999	n/a	n/a	n/a	n/a	8	[0, 0, 0]	-999	PAL1	0	R1333N
1032.17	0.0	1034035	REC_START	n/a	n/a	1	1	STORE	n/a	STORE	STRAW	8	[0, 0, 0]	-999	PAL1	0	R1333N
1032.17	4.0	1034035	PROBE_START	n/a	wordpools/wordpool_EN.txt	1	1	STORE	n/a	STORE	STRAW	8	[0, 0, 0]	-999	PAL1	0	R1333N
1035.282	0.911	1037147	REC_EVENT	3.112	n/a	1	1	STORE	<>	STORE	STRAW	8	[0, 0, 0]	-999	PAL1	0	R1333N
1036.193	1.0	1038058	PROBE_END	n/a	n/a	1	1	STORE	n/a	STORE	STRAW	8	[0, 0, 0]	-999	PAL1	0	R1333N
1037.193	0.011	1039058	REC_END	n/a	n/a	1	1	STORE	n/a	STORE	STRAW	8	[0, 0, 0]	-999	PAL1	0	R1333N
1037.204	0.272	1039069	ORIENT_START	n/a	n/a	-999	-999	n/a	n/a	n/a	n/a	8	[0, 0, 0]	-999	PAL1	0	R1333N
1037.476	0.74	1039341	ORIENT_END	n/a	n/a	-999	-999	n/a	n/a	n/a	n/a	8	[0, 0, 0]	-999	PAL1	0	R1333N
1038.216	0.0	1040080	REC_START	n/a	n/a	4	2	CLIFF	SINK	SINK	CLIFF	8	[0, 0, 0]	-999	PAL1	0	R1333N
1038.216	4.0	1040080	PROBE_START	n/a	wordpools/wordpool_EN.txt	4	2	CLIFF	SINK	SINK	CLIFF	8	[0, 0, 0]	-999	PAL1	0	R1333N
1042.244	0.061	1044108	PROBE_END	n/a	n/a	4	2	CLIFF	n/a	SINK	CLIFF	8	[0, 0, 0]	-999	PAL1	0	R1333N
1042.305	0.939	1044169	REC_EVENT	4.089	n/a	4	2	CLIFF	SINK	SINK	CLIFF	8	[0, 0, 0]	-999	PAL1	0	R1333N
1043.244	0.006	1045108	REC_END	n/a	n/a	4	2	CLIFF	n/a	SINK	CLIFF	8	[0, 0, 0]	-999	PAL1	0	R1333N
1043.25	0.277	1045114	ORIENT_START	n/a	n/a	-999	-999	n/a	n/a	n/a	n/a	8	[0, 0, 0]	-999	PAL1	0	R1333N
1043.527	0.546	1045391	ORIENT_END	n/a	n/a	-999	-999	n/a	n/a	n/a	n/a	8	[0, 0, 0]	-999	PAL1	0	R1333N
1044.073	0.0	1045937	REC_START	n/a	n/a	5	3	FUDGE	n/a	FUDGE	FISH	8	[0, 0, 0]	-999	PAL1	0	R1333N
1044.073	4.0	1045937	PROBE_START	n/a	wordpools/wordpool_EN.txt	5	3	FUDGE	n/a	FUDGE	FISH	8	[0, 0, 0]	-999	PAL1	0	R1333N
1048.096	0.999	1049960	PROBE_END	n/a	n/a	5	3	FUDGE	n/a	FUDGE	FISH	8	[0, 0, 0]	-999	PAL1	0	R1333N
1049.095	0.01	1050959	REC_END	n/a	n/a	5	3	FUDGE	n/a	FUDGE	FISH	8	[0, 0, 0]	-999	PAL1	0	R1333N
1049.105	0.053	1050969	ORIENT_START	n/a	n/a	-999	-999	n/a	n/a	n/a	n/a	8	[0, 0, 0]	-999	PAL1	0	R1333N
1049.158	0.22	1051022	REC_EVENT	5.085	n/a	5	3	FUDGE	<>	FUDGE	FISH	8	[0, 0, 0]	-999	PAL1	0	R1333N
1049.378	0.62	1051242	ORIENT_END	n/a	n/a	-999	-999	n/a	n/a	n/a	n/a	8	[0, 0, 0]	-999	PAL1	0	R1333N
1049.998	0.0	1051862	REC_START	n/a	n/a	2	4	POND	n/a	POND	MOLE	8	[0, 0, 0]	-999	PAL1	0	R1333N
1049.998	4.0	1051862	PROBE_START	n/a	wordpools/wordpool_EN.txt	2	4	POND	n/a	POND	MOLE	8	[0, 0, 0]	-999	PAL1	0	R1333N
1053.808	0.222	1055672	REC_EVENT	3.81	n/a	2	4	POND	<>	POND	MOLE	8	[0, 0, 0]	-999	PAL1	0	R1333N
1054.03	0.219	1055894	PROBE_END	n/a	n/a	2	4	POND	n/a	POND	MOLE	8	[0, 0, 0]	-999	PAL1	0	R1333N
1054.249	0.782	1056113	REC_EVENT	4.251	n/a	2	4	POND	<>	POND	MOLE	8	[0, 0, 0]	-999	PAL1	0	R1333N
1055.031	0.011	1056895	REC_END	n/a	n/a	2	4	POND	n/a	POND	MOLE	8	[0, 0, 0]	-999	PAL1	0	R1333N
1055.042	0.271	1056906	ORIENT_START	n/a	n/a	-999	-999	n/a	n/a	n/a	n/a	8	[0, 0, 0]	-999	PAL1	0	R1333N
1055.313	0.58	1057177	ORIENT_END	n/a	n/a	-999	-999	n/a	n/a	n/a	n/a	8	[0, 0, 0]	-999	PAL1	0	R1333N
1055.893	0.001	1057757	REC_START	n/a	n/a	3	5	SUIT	HEN	HEN	SUIT	8	[0, 0, 0]	-999	PAL1	0	R1333N
1055.894	4.0	1057758	PROBE_START	n/a	wordpools/wordpool_EN.txt	3	5	SUIT	HEN	HEN	SUIT	8	[0, 0, 0]	-999	PAL1	0	R1333N
1058.413	1.518	1060277	REC_EVENT	2.519	n/a	3	5	SUIT	HEN	HEN	SUIT	8	[0, 0, 0]	-999	PAL1	0	R1333N
1059.931	1.0	1061795	PROBE_END	n/a	n/a	3	5	SUIT	n/a	HEN	SUIT	8	[0, 0, 0]	-999	PAL1	0	R1333N
1060.931	0.012	1062795	REC_END	n/a	n/a	3	5	SUIT	n/a	HEN	SUIT	8	[0, 0, 0]	-999	PAL1	0	R1333N
1060.943	0.271	1062807	ORIENT_START	n/a	n/a	-999	-999	n/a	n/a	n/a	n/a	8	[0, 0, 0]	-999	PAL1	0	R1333N
1061.214	0.649	1063078	ORIENT_END	n/a	n/a	-999	-999	n/a	n/a	n/a	n/a	8	[0, 0, 0]	-999	PAL1	0	R1333N
1061.863	0.0	1063727	REC_START	n/a	n/a	6	6	KITE	SKY	SOUP	KITE	8	[0, 0, 0]	-999	PAL1	0	R1333N
1061.863	4.0	1063727	PROBE_START	n/a	wordpools/wordpool_EN.txt	6	6	KITE	SKY	SOUP	KITE	8	[0, 0, 0]	-999	PAL1	0	R1333N
1064.018	1.879	1065882	REC_EVENT	2.155	n/a	6	6	KITE	SKY	SOUP	KITE	8	[0, 0, 0]	-999	PAL1	0	R1333N
1065.897	1.001	1067761	PROBE_END	n/a	n/a	6	6	KITE	n/a	SOUP	KITE	8	[0, 0, 0]	-999	PAL1	0	R1333N
1066.898	0.011	1068761	REC_END	n/a	n/a	6	6	KITE	n/a	SOUP	KITE	8	[0, 0, 0]	-999	PAL1	0	R1333N
1066.909	0.0	1068772	RETRIEVAL_END	n/a	n/a	-999	-999	n/a	n/a	n/a	n/a	8	[0, 0, 0]	-999	PAL1	0	R1333N
1066.909	0.02	1068772	TRIAL_END	n/a	n/a	-999	-999	n/a	n/a	n/a	n/a	8	[0, 0, 0]	-999	PAL1	0	R1333N
1066.929	0.0	1068792	WAITING_START	n/a	n/a	-999	-999	n/a	n/a	n/a	n/a	9	[0, 0, 0]	-999	PAL1	0	R1333N
1066.929	0.0	1068792	TRIAL	n/a	n/a	-999	-999	n/a	n/a	n/a	n/a	9	[0, 0, 0]	-999	PAL1	0	R1333N
1066.929	3.22	1068792	TRIAL_START	n/a	n/a	-999	-999	n/a	n/a	n/a	n/a	8	[0, 0, 0]	-999	PAL1	0	R1333N
1070.149	0.001	1072012	WAITING_END	n/a	n/a	-999	-999	n/a	n/a	n/a	n/a	9	[0, 0, 0]	-999	PAL1	0	R1333N
1070.15	10.0	1072013	COUNTDOWN_START	n/a	n/a	-999	-999	n/a	n/a	n/a	n/a	9	[0, 0, 0]	-999	PAL1	0	R1333N
1080.578	0.001	1082441	COUNTDOWN_END	n/a	n/a	-999	-999	n/a	n/a	n/a	n/a	9	[0, 0, 0]	-999	PAL1	0	R1333N
1080.579	0.722	1082442	ORIENT_START	n/a	n/a	-999	-999	n/a	n/a	n/a	n/a	9	[0, 0, 0]	-999	PAL1	0	R1333N
1081.301	0.001	1083164	ORIENT_END	n/a	n/a	-999	-999	n/a	n/a	n/a	n/a	9	[0, 0, 0]	-999	PAL1	0	R1333N
1081.302	1.185	1083165	ENCODING_START	n/a	n/a	-999	-999	n/a	n/a	n/a	n/a	9	[0, 0, 0]	-999	PAL1	0	R1333N
1082.487	4.0	1084350	STUDY_PAIR	n/a	wordpools/wordpool_EN.txt	1	-999	n/a	LAND	LAND	SKUNK	9	[0, 0, 0]	-999	PAL1	0	R1333N
1086.518	0.625	1088381	STUDY_PAIR_OFF	n/a	n/a	1	-999	n/a	LAND	LAND	SKUNK	9	[0, 0, 0]	-999	PAL1	0	R1333N
1087.143	4.0	1089006	STUDY_PAIR	n/a	wordpools/wordpool_EN.txt	2	-999	n/a	n/a	HEART	GRASS	9	[0, 0, 0]	-999	PAL1	0	R1333N
1091.169	0.638	1093032	STUDY_PAIR_OFF	n/a	n/a	2	-999	n/a	n/a	HEART	GRASS	9	[0, 0, 0]	-999	PAL1	0	R1333N
1091.807	4.0	1093670	STUDY_PAIR	n/a	wordpools/wordpool_EN.txt	3	-999	n/a	ZOO	SHEEP	ZOO	9	[0, 0, 0]	-999	PAL1	0	R1333N
1095.836	0.514	1097698	STUDY_PAIR_OFF	n/a	n/a	3	-999	n/a	ZOO	SHEEP	ZOO	9	[0, 0, 0]	-999	PAL1	0	R1333N
1096.35	4.0	1098212	STUDY_PAIR	n/a	wordpools/wordpool_EN.txt	4	-999	n/a	n/a	ROCK	STORM	9	[0, 0, 0]	-999	PAL1	0	R1333N
1100.387	0.577	1102249	STUDY_PAIR_OFF	n/a	n/a	4	-999	n/a	n/a	ROCK	STORM	9	[0, 0, 0]	-999	PAL1	0	R1333N
1100.964	4.0	1102826	STUDY_PAIR	n/a	wordpools/wordpool_EN.txt	5	-999	n/a	n/a	HOOF	DRUM	9	[0, 0, 0]	-999	PAL1	0	R1333N
1104.971	0.641	1106833	STUDY_PAIR_OFF	n/a	n/a	5	-999	n/a	n/a	HOOF	DRUM	9	[0, 0, 0]	-999	PAL1	0	R1333N
1105.612	4.0	1107474	STUDY_PAIR	n/a	wordpools/wordpool_EN.txt	6	-999	n/a	n/a	BOMB	SALT	9	[0, 0, 0]	-999	PAL1	0	R1333N
1109.638	0.001	1111500	STUDY_PAIR_OFF	n/a	n/a	6	-999	n/a	n/a	BOMB	SALT	9	[0, 0, 0]	-999	PAL1	0	R1333N
1109.639	0.0	1111501	ENCODING_END	n/a	n/a	-999	-999	n/a	n/a	n/a	n/a	9	[0, 0, 0]	-999	PAL1	0	R1333N
1109.639	0.0	1111501	MATH_START	n/a	n/a	-999	-999	n/a	n/a	n/a	n/a	9	[0, 0, 0]	-999	PAL1	0	R1333N
1109.639	0.015	1111501	START	n/a	n/a	-999	-999	n/a	n/a	n/a	n/a	9	[-999, -999, -999]	-999	PAL1	0	R1333N
1109.654	3.669	1111516	PROB	3.631	n/a	-999	-999	n/a	n/a	n/a	n/a	9	[4, 6, 1]	11	PAL1	0	R1333N
1113.323	4.651	1115185	PROB	4.617	n/a	-999	-999	n/a	n/a	n/a	n/a	9	[7, 9, 5]	21	PAL1	0	R1333N
1117.974	3.217	1119836	PROB	3.191	n/a	-999	-999	n/a	n/a	n/a	n/a	9	[5, 1, 5]	11	PAL1	0	R1333N
1121.191	2.9	1123053	PROB	2.878	n/a	-999	-999	n/a	n/a	n/a	n/a	9	[6, 4, 1]	11	PAL1	0	R1333N
1124.091	8.194	1125952	PROB	8.194	n/a	-999	-999	n/a	n/a	n/a	n/a	9	[4, 7, 6]	17	PAL1	0	R1333N
1132.285	0.008	1134146	STOP	n/a	n/a	-999	-999	n/a	n/a	n/a	n/a	9	[-999, -999, -999]	-999	PAL1	0	R1333N
1132.293	0.616	1134154	MATH_END	n/a	n/a	-999	-999	n/a	n/a	n/a	n/a	9	[0, 0, 0]	-999	PAL1	0	R1333N
1132.909	0.001	1134770	RETRIEVAL_START	n/a	n/a	-999	-999	n/a	n/a	n/a	n/a	9	[0, 0, 0]	-999	PAL1	0	R1333N
1132.91	0.283	1134771	ORIENT_START	n/a	n/a	-999	-999	n/a	n/a	n/a	n/a	9	[0, 0, 0]	-999	PAL1	0	R1333N
1133.193	0.649	1135054	ORIENT_END	n/a	n/a	-999	-999	n/a	n/a	n/a	n/a	9	[0, 0, 0]	-999	PAL1	0	R1333N
1133.842	0.0	1135703	REC_START	n/a	n/a	3	1	SHEEP	ZOO	SHEEP	ZOO	9	[0, 0, 0]	-999	PAL1	0	R1333N
1133.842	4.0	1135703	PROBE_START	n/a	wordpools/wordpool_EN.txt	3	1	SHEEP	ZOO	SHEEP	ZOO	9	[0, 0, 0]	-999	PAL1	0	R1333N
1137.876	0.674	1139737	PROBE_END	n/a	n/a	3	1	SHEEP	n/a	SHEEP	ZOO	9	[0, 0, 0]	-999	PAL1	0	R1333N
1138.55	0.326	1140411	REC_EVENT	4.708	n/a	3	1	SHEEP	ZOO	SHEEP	ZOO	9	[0, 0, 0]	-999	PAL1	0	R1333N
1138.876	0.012	1140737	REC_END	n/a	n/a	3	1	SHEEP	n/a	SHEEP	ZOO	9	[0, 0, 0]	-999	PAL1	0	R1333N
1138.888	0.273	1140749	ORIENT_START	n/a	n/a	-999	-999	n/a	n/a	n/a	n/a	9	[0, 0, 0]	-999	PAL1	0	R1333N
1139.161	0.673	1141022	ORIENT_END	n/a	n/a	-999	-999	n/a	n/a	n/a	n/a	9	[0, 0, 0]	-999	PAL1	0	R1333N
1139.834	0.0	1141695	REC_START	n/a	n/a	4	2	ROCK	n/a	ROCK	STORM	9	[0, 0, 0]	-999	PAL1	0	R1333N
1139.834	4.0	1141695	PROBE_START	n/a	wordpools/wordpool_EN.txt	4	2	ROCK	n/a	ROCK	STORM	9	[0, 0, 0]	-999	PAL1	0	R1333N
1143.86	0.106	1145721	PROBE_END	n/a	n/a	4	2	ROCK	n/a	ROCK	STORM	9	[0, 0, 0]	-999	PAL1	0	R1333N
1143.966	0.895	1145827	REC_EVENT	4.132	n/a	4	2	ROCK	<>	ROCK	STORM	9	[0, 0, 0]	-999	PAL1	0	R1333N
1144.861	0.011	1146722	REC_END	n/a	n/a	4	2	ROCK	n/a	ROCK	STORM	9	[0, 0, 0]	-999	PAL1	0	R1333N
1144.872	0.273	1146733	ORIENT_START	n/a	n/a	-999	-999	n/a	n/a	n/a	n/a	9	[0, 0, 0]	-999	PAL1	0	R1333N
1145.145	0.565	1147006	ORIENT_END	n/a	n/a	-999	-999	n/a	n/a	n/a	n/a	9	[0, 0, 0]	-999	PAL1	0	R1333N
1145.71	0.001	1147571	REC_START	n/a	n/a	1	3	SKUNK	LAND	LAND	SKUNK	9	[0, 0, 0]	-999	PAL1	0	R1333N
1145.711	4.0	1147572	PROBE_START	n/a	wordpools/wordpool_EN.txt	1	3	SKUNK	LAND	LAND	SKUNK	9	[0, 0, 0]	-999	PAL1	0	R1333N
1149.196	0.549	1151057	REC_EVENT	3.485	n/a	1	3	SKUNK	LAND	LAND	SKUNK	9	[0, 0, 0]	-999	PAL1	0	R1333N
1149.745	0.999	1151606	PROBE_END	n/a	n/a	1	3	SKUNK	n/a	LAND	SKUNK	9	[0, 0, 0]	-999	PAL1	0	R1333N
1150.744	0.012	1152605	REC_END	n/a	n/a	1	3	SKUNK	n/a	LAND	SKUNK	9	[0, 0, 0]	-999	PAL1	0	R1333N
1150.756	0.256	1152617	ORIENT_START	n/a	n/a	-999	-999	n/a	n/a	n/a	n/a	9	[0, 0, 0]	-999	PAL1	0	R1333N
1151.012	0.667	1152873	ORIENT_END	n/a	n/a	-999	-999	n/a	n/a	n/a	n/a	9	[0, 0, 0]	-999	PAL1	0	R1333N
1151.679	0.001	1153539	REC_START	n/a	n/a	6	4	SALT	n/a	BOMB	SALT	9	[0, 0, 0]	-999	PAL1	0	R1333N
1151.68	4.0	1153540	PROBE_START	n/a	wordpools/wordpool_EN.txt	6	4	SALT	n/a	BOMB	SALT	9	[0, 0, 0]	-999	PAL1	0	R1333N
1155.688	0.024	1157548	REC_EVENT	4.008	n/a	6	4	SALT	<>	BOMB	SALT	9	[0, 0, 0]	-999	PAL1	0	R1333N
1155.712	1.001	1157572	PROBE_END	n/a	n/a	6	4	SALT	n/a	BOMB	SALT	9	[0, 0, 0]	-999	PAL1	0	R1333N
1156.713	0.012	1158573	REC_END	n/a	n/a	6	4	SALT	n/a	BOMB	SALT	9	[0, 0, 0]	-999	PAL1	0	R1333N
1156.725	0.255	1158585	ORIENT_START	n/a	n/a	-999	-999	n/a	n/a	n/a	n/a	9	[0, 0, 0]	-999	PAL1	0	R1333N
1156.98	0.712	1158840	ORIENT_END	n/a	n/a	-999	-999	n/a	n/a	n/a	n/a	9	[0, 0, 0]	-999	PAL1	0	R1333N
1157.692	0.0	1159552	REC_START	n/a	n/a	5	5	HOOF	n/a	HOOF	DRUM	9	[0, 0, 0]	-999	PAL1	0	R1333N
1157.692	4.0	1159552	PROBE_START	n/a	wordpools/wordpool_EN.txt	5	5	HOOF	n/a	HOOF	DRUM	9	[0, 0, 0]	-999	PAL1	0	R1333N
1161.73	1.0	1163590	PROBE_END	n/a	n/a	5	5	HOOF	n/a	HOOF	DRUM	9	[0, 0, 0]	-999	PAL1	0	R1333N
1162.73	0.011	1164590	REC_END	n/a	n/a	5	5	HOOF	n/a	HOOF	DRUM	9	[0, 0, 0]	-999	PAL1	0	R1333N
1162.741	0.273	1164601	ORIENT_START	n/a	n/a	-999	-999	n/a	n/a	n/a	n/a	9	[0, 0, 0]	-999	PAL1	0	R1333N
1163.014	0.117	1164874	ORIENT_END	n/a	n/a	-999	-999	n/a	n/a	n/a	n/a	9	[0, 0, 0]	-999	PAL1	0	R1333N
1163.131	0.478	1164991	REC_EVENT	5.439	n/a	5	5	HOOF	<>	HOOF	DRUM	9	[0, 0, 0]	-999	PAL1	0	R1333N
1163.609	0.0	1165469	REC_START	n/a	n/a	2	6	GRASS	n/a	HEART	GRASS	9	[0, 0, 0]	-999	PAL1	0	R1333N
1163.609	4.0	1165469	PROBE_START	n/a	wordpools/wordpool_EN.txt	2	6	GRASS	n/a	HEART	GRASS	9	[0, 0, 0]	-999	PAL1	0	R1333N
1165.621	2.027	1167481	REC_EVENT	2.012	n/a	2	6	GRASS	<>	HEART	GRASS	9	[0, 0, 0]	-999	PAL1	0	R1333N
1167.648	0.999	1169508	PROBE_END	n/a	n/a	2	6	GRASS	n/a	HEART	GRASS	9	[0, 0, 0]	-999	PAL1	0	R1333N
1168.647	0.011	1170507	REC_END	n/a	n/a	2	6	GRASS	n/a	HEART	GRASS	9	[0, 0, 0]	-999	PAL1	0	R1333N
1168.658	0.001	1170518	RETRIEVAL_END	n/a	n/a	-999	-999	n/a	n/a	n/a	n/a	9	[0, 0, 0]	-999	PAL1	0	R1333N
1168.659	0.018	1170519	TRIAL_END	n/a	n/a	-999	-999	n/a	n/a	n/a	n/a	9	[0, 0, 0]	-999	PAL1	0	R1333N
1168.677	0.001	1170537	TRIAL_START	n/a	n/a	-999	-999	n/a	n/a	n/a	n/a	9	[0, 0, 0]	-999	PAL1	0	R1333N
1168.678	0.0	1170538	WAITING_START	n/a	n/a	-999	-999	n/a	n/a	n/a	n/a	10	[0, 0, 0]	-999	PAL1	0	R1333N
1168.678	5.104	1170538	TRIAL	n/a	n/a	-999	-999	n/a	n/a	n/a	n/a	10	[0, 0, 0]	-999	PAL1	0	R1333N
1173.782	0.001	1175642	WAITING_END	n/a	n/a	-999	-999	n/a	n/a	n/a	n/a	10	[0, 0, 0]	-999	PAL1	0	R1333N
1173.783	10.0	1175643	COUNTDOWN_START	n/a	n/a	-999	-999	n/a	n/a	n/a	n/a	10	[0, 0, 0]	-999	PAL1	0	R1333N
1184.212	0.0	1186071	COUNTDOWN_END	n/a	n/a	-999	-999	n/a	n/a	n/a	n/a	10	[0, 0, 0]	-999	PAL1	0	R1333N
1184.212	0.672	1186071	ORIENT_START	n/a	n/a	-999	-999	n/a	n/a	n/a	n/a	10	[0, 0, 0]	-999	PAL1	0	R1333N
1184.884	0.0	1186743	ORIENT_END	n/a	n/a	-999	-999	n/a	n/a	n/a	n/a	10	[0, 0, 0]	-999	PAL1	0	R1333N
1184.884	1.107	1186743	ENCODING_START	n/a	n/a	-999	-999	n/a	n/a	n/a	n/a	10	[0, 0, 0]	-999	PAL1	0	R1333N
1185.991	4.0	1187850	STUDY_PAIR	n/a	wordpools/wordpool_EN.txt	1	-999	n/a	n/a	LAMP	FOOD	10	[0, 0, 0]	-999	PAL1	0	R1333N
1190.019	0.599	1191878	STUDY_PAIR_OFF	n/a	n/a	1	-999	n/a	n/a	LAMP	FOOD	10	[0, 0, 0]	-999	PAL1	0	R1333N
1190.618	4.0	1192477	STUDY_PAIR	n/a	wordpools/wordpool_EN.txt	2	-999	n/a	n/a	FARM	HAT	10	[0, 0, 0]	-999	PAL1	0	R1333N
1194.652	0.736	1196511	STUDY_PAIR_OFF	n/a	n/a	2	-999	n/a	n/a	FARM	HAT	10	[0, 0, 0]	-999	PAL1	0	R1333N
1195.388	4.0	1197247	STUDY_PAIR	n/a	wordpools/wordpool_EN.txt	3	-999	n/a	n/a	BEAK	DRESS	10	[0, 0, 0]	-999	PAL1	0	R1333N
1199.419	0.551	1201278	STUDY_PAIR_OFF	n/a	n/a	3	-999	n/a	n/a	BEAK	DRESS	10	[0, 0, 0]	-999	PAL1	0	R1333N
1199.97	4.0	1201829	STUDY_PAIR	n/a	wordpools/wordpool_EN.txt	4	-999	n/a	JAIL	JAIL	HOSE	10	[0, 0, 0]	-999	PAL1	0	R1333N
1204.005	0.723	1205864	STUDY_PAIR_OFF	n/a	n/a	4	-999	n/a	JAIL	JAIL	HOSE	10	[0, 0, 0]	-999	PAL1	0	R1333N
1204.728	4.0	1206587	STUDY_PAIR	n/a	wordpools/wordpool_EN.txt	5	-999	n/a	n/a	SQUARE	BANK	10	[0, 0, 0]	-999	PAL1	0	R1333N
1208.754	0.618	1210612	STUDY_PAIR_OFF	n/a	n/a	5	-999	n/a	n/a	SQUARE	BANK	10	[0, 0, 0]	-999	PAL1	0	R1333N
1209.372	4.0	1211230	STUDY_PAIR	n/a	wordpools/wordpool_EN.txt	6	-999	n/a	OWL	EEL	OWL	10	[0, 0, 0]	-999	PAL1	0	R1333N
1213.405	0.001	1215263	STUDY_PAIR_OFF	n/a	n/a	6	-999	n/a	OWL	EEL	OWL	10	[0, 0, 0]	-999	PAL1	0	R1333N
1213.406	0.0	1215264	ENCODING_END	n/a	n/a	-999	-999	n/a	n/a	n/a	n/a	10	[0, 0, 0]	-999	PAL1	0	R1333N
1213.406	0.0	1215264	MATH_START	n/a	n/a	-999	-999	n/a	n/a	n/a	n/a	10	[0, 0, 0]	-999	PAL1	0	R1333N
1213.406	0.016	1215264	START	n/a	n/a	-999	-999	n/a	n/a	n/a	n/a	10	[-999, -999, -999]	-999	PAL1	0	R1333N
1213.422	6.902	1215280	PROB	6.871	n/a	-999	-999	n/a	n/a	n/a	n/a	10	[7, 1, 8]	16	PAL1	0	R1333N
1220.324	4.283	1222182	PROB	4.257	n/a	-999	-999	n/a	n/a	n/a	n/a	10	[2, 5, 3]	10	PAL1	0	R1333N
1224.607	3.351	1226465	PROB	3.318	n/a	-999	-999	n/a	n/a	n/a	n/a	10	[7, 4, 2]	13	PAL1	0	R1333N
1227.958	3.084	1229816	PROB	3.047	n/a	-999	-999	n/a	n/a	n/a	n/a	10	[5, 5, 5]	15	PAL1	0	R1333N
1231.042	5.026	1232900	PROB	5.026	n/a	-999	-999	n/a	n/a	n/a	n/a	10	[5, 7, 8]	20	PAL1	0	R1333N
1236.068	0.009	1237925	STOP	n/a	n/a	-999	-999	n/a	n/a	n/a	n/a	10	[-999, -999, -999]	-999	PAL1	0	R1333N
1236.077	0.696	1237934	MATH_END	n/a	n/a	-999	-999	n/a	n/a	n/a	n/a	10	[0, 0, 0]	-999	PAL1	0	R1333N
1236.773	0.002	1238630	RETRIEVAL_START	n/a	n/a	-999	-999	n/a	n/a	n/a	n/a	10	[0, 0, 0]	-999	PAL1	0	R1333N
1236.775	0.285	1238632	ORIENT_START	n/a	n/a	-999	-999	n/a	n/a	n/a	n/a	10	[0, 0, 0]	-999	PAL1	0	R1333N
1237.06	0.735	1238917	ORIENT_END	n/a	n/a	-999	-999	n/a	n/a	n/a	n/a	10	[0, 0, 0]	-999	PAL1	0	R1333N
1237.795	0.0	1239652	REC_START	n/a	n/a	5	1	BANK	n/a	SQUARE	BANK	10	[0, 0, 0]	-999	PAL1	0	R1333N
1237.795	4.0	1239652	PROBE_START	n/a	wordpools/wordpool_EN.txt	5	1	BANK	n/a	SQUARE	BANK	10	[0, 0, 0]	-999	PAL1	0	R1333N
1241.827	0.008	1243684	PROBE_END	n/a	n/a	5	1	BANK	n/a	SQUARE	BANK	10	[0, 0, 0]	-999	PAL1	0	R1333N
1241.835	0.991	1243692	REC_EVENT	4.04	n/a	5	1	BANK	<>	SQUARE	BANK	10	[0, 0, 0]	-999	PAL1	0	R1333N
1242.826	0.006	1244683	REC_END	n/a	n/a	5	1	BANK	n/a	SQUARE	BANK	10	[0, 0, 0]	-999	PAL1	0	R1333N
1242.832	0.262	1244689	ORIENT_START	n/a	n/a	-999	-999	n/a	n/a	n/a	n/a	10	[0, 0, 0]	-999	PAL1	0	R1333N
1243.094	0.567	1244951	ORIENT_END	n/a	n/a	-999	-999	n/a	n/a	n/a	n/a	10	[0, 0, 0]	-999	PAL1	0	R1333N
1243.661	0.0	1245518	REC_START	n/a	n/a	4	2	HOSE	JAIL	JAIL	HOSE	10	[0, 0, 0]	-999	PAL1	0	R1333N
1243.661	4.0	1245518	PROBE_START	n/a	wordpools/wordpool_EN.txt	4	2	HOSE	JAIL	JAIL	HOSE	10	[0, 0, 0]	-999	PAL1	0	R1333N
1247.199	0.495	1249056	REC_EVENT	3.538	n/a	4	2	HOSE	JAIL	JAIL	HOSE	10	[0, 0, 0]	-999	PAL1	0	R1333N
1247.694	1.0	1249551	PROBE_END	n/a	n/a	4	2	HOSE	n/a	JAIL	HOSE	10	[0, 0, 0]	-999	PAL1	0	R1333N
1248.694	0.011	1250551	REC_END	n/a	n/a	4	2	HOSE	n/a	JAIL	HOSE	10	[0, 0, 0]	-999	PAL1	0	R1333N
1248.705	0.274	1250562	ORIENT_START	n/a	n/a	-999	-999	n/a	n/a	n/a	n/a	10	[0, 0, 0]	-999	PAL1	0	R1333N
1248.979	0.59	1250836	ORIENT_END	n/a	n/a	-999	-999	n/a	n/a	n/a	n/a	10	[0, 0, 0]	-999	PAL1	0	R1333N
1249.569	0.0	1251426	REC_START	n/a	n/a	1	3	FOOD	n/a	LAMP	FOOD	10	[0, 0, 0]	-999	PAL1	0	R1333N
1249.569	4.0	1251426	PROBE_START	n/a	wordpools/wordpool_EN.txt	1	3	FOOD	n/a	LAMP	FOOD	10	[0, 0, 0]	-999	PAL1	0	R1333N
1252.635	0.96	1254492	REC_EVENT	3.066	n/a	1	3	FOOD	<>	LAMP	FOOD	10	[0, 0, 0]	-999	PAL1	0	R1333N
1253.595	1.001	1255452	PROBE_END	n/a	n/a	1	3	FOOD	n/a	LAMP	FOOD	10	[0, 0, 0]	-999	PAL1	0	R1333N
1254.596	0.01	1256453	REC_END	n/a	n/a	1	3	FOOD	n/a	LAMP	FOOD	10	[0, 0, 0]	-999	PAL1	0	R1333N
1254.606	0.273	1256463	ORIENT_START	n/a	n/a	-999	-999	n/a	n/a	n/a	n/a	10	[0, 0, 0]	-999	PAL1	0	R1333N
1254.879	0.559	1256736	ORIENT_END	n/a	n/a	-999	-999	n/a	n/a	n/a	n/a	10	[0, 0, 0]	-999	PAL1	0	R1333N
1255.438	0.0	1257295	REC_START	n/a	n/a	6	4	EEL	OWL	EEL	OWL	10	[0, 0, 0]	-999	PAL1	0	R1333N
1255.438	4.0	1257295	PROBE_START	n/a	wordpools/wordpool_EN.txt	6	4	EEL	OWL	EEL	OWL	10	[0, 0, 0]	-999	PAL1	0	R1333N
1257.223	2.24	1259080	REC_EVENT	1.785	n/a	6	4	EEL	OWL	EEL	OWL	10	[0, 0, 0]	-999	PAL1	0	R1333N
1259.463	1.0	1261320	PROBE_END	n/a	n/a	6	4	EEL	n/a	EEL	OWL	10	[0, 0, 0]	-999	PAL1	0	R1333N
1260.463	0.01	1262320	REC_END	n/a	n/a	6	4	EEL	n/a	EEL	OWL	10	[0, 0, 0]	-999	PAL1	0	R1333N
1260.473	0.273	1262330	ORIENT_START	n/a	n/a	-999	-999	n/a	n/a	n/a	n/a	10	[0, 0, 0]	-999	PAL1	0	R1333N
1260.746	0.629	1262603	ORIENT_END	n/a	n/a	-999	-999	n/a	n/a	n/a	n/a	10	[0, 0, 0]	-999	PAL1	0	R1333N
1261.375	0.0	1263232	REC_START	n/a	n/a	3	5	BEAK	n/a	BEAK	DRESS	10	[0, 0, 0]	-999	PAL1	0	R1333N
1261.375	4.0	1263232	PROBE_START	n/a	wordpools/wordpool_EN.txt	3	5	BEAK	n/a	BEAK	DRESS	10	[0, 0, 0]	-999	PAL1	0	R1333N
1264.207	1.207	1266063	REC_EVENT	2.832	n/a	3	5	BEAK	<>	BEAK	DRESS	10	[0, 0, 0]	-999	PAL1	0	R1333N
1265.414	1.001	1267270	PROBE_END	n/a	n/a	3	5	BEAK	n/a	BEAK	DRESS	10	[0, 0, 0]	-999	PAL1	0	R1333N
1266.415	0.012	1268271	REC_END	n/a	n/a	3	5	BEAK	n/a	BEAK	DRESS	10	[0, 0, 0]	-999	PAL1	0	R1333N
1266.427	0.27	1268283	ORIENT_START	n/a	n/a	-999	-999	n/a	n/a	n/a	n/a	10	[0, 0, 0]	-999	PAL1	0	R1333N
1266.697	0.649	1268553	ORIENT_END	n/a	n/a	-999	-999	n/a	n/a	n/a	n/a	10	[0, 0, 0]	-999	PAL1	0	R1333N
1267.346	0.0	1269202	REC_START	n/a	n/a	2	6	FARM	n/a	FARM	HAT	10	[0, 0, 0]	-999	PAL1	0	R1333N
1267.346	4.0	1269202	PROBE_START	n/a	wordpools/wordpool_EN.txt	2	6	FARM	n/a	FARM	HAT	10	[0, 0, 0]	-999	PAL1	0	R1333N
1271.381	0.47	1273237	PROBE_END	n/a	n/a	2	6	FARM	n/a	FARM	HAT	10	[0, 0, 0]	-999	PAL1	0	R1333N
1271.851	0.531	1273707	REC_EVENT	4.505	n/a	2	6	FARM	<>	FARM	HAT	10	[0, 0, 0]	-999	PAL1	0	R1333N
1272.382	0.012	1274238	REC_END	n/a	n/a	2	6	FARM	n/a	FARM	HAT	10	[0, 0, 0]	-999	PAL1	0	R1333N
1272.394	0.0	1274250	RETRIEVAL_END	n/a	n/a	-999	-999	n/a	n/a	n/a	n/a	10	[0, 0, 0]	-999	PAL1	0	R1333N
1272.394	0.021	1274250	TRIAL_END	n/a	n/a	-999	-999	n/a	n/a	n/a	n/a	10	[0, 0, 0]	-999	PAL1	0	R1333N
1272.415	0.0	1274271	TRIAL_START	n/a	n/a	-999	-999	n/a	n/a	n/a	n/a	10	[0, 0, 0]	-999	PAL1	0	R1333N
1272.415	0.0	1274271	TRIAL	n/a	n/a	-999	-999	n/a	n/a	n/a	n/a	11	[0, 0, 0]	-999	PAL1	0	R1333N
1272.415	7.852	1274271	WAITING_START	n/a	n/a	-999	-999	n/a	n/a	n/a	n/a	11	[0, 0, 0]	-999	PAL1	0	R1333N
1280.267	0.001	1282123	WAITING_END	n/a	n/a	-999	-999	n/a	n/a	n/a	n/a	11	[0, 0, 0]	-999	PAL1	0	R1333N
1280.268	10.0	1282124	COUNTDOWN_START	n/a	n/a	-999	-999	n/a	n/a	n/a	n/a	11	[0, 0, 0]	-999	PAL1	0	R1333N
1290.697	0.0	1292553	ORIENT_START	n/a	n/a	-999	-999	n/a	n/a	n/a	n/a	11	[0, 0, 0]	-999	PAL1	0	R1333N
1290.697	0.638	1292553	COUNTDOWN_END	n/a	n/a	-999	-999	n/a	n/a	n/a	n/a	11	[0, 0, 0]	-999	PAL1	0	R1333N
1291.335	0.0	1293191	ORIENT_END	n/a	n/a	-999	-999	n/a	n/a	n/a	n/a	11	[0, 0, 0]	-999	PAL1	0	R1333N
1291.335	1.175	1293191	ENCODING_START	n/a	n/a	-999	-999	n/a	n/a	n/a	n/a	11	[0, 0, 0]	-999	PAL1	0	R1333N
1292.51	4.0	1294365	STUDY_PAIR	n/a	wordpools/wordpool_EN.txt	1	-999	n/a	n/a	CLOWN	BEACH	11	[0, 0, 0]	-999	PAL1	0	R1333N
1296.536	0.73	1298391	STUDY_PAIR_OFF	n/a	n/a	1	-999	n/a	n/a	CLOWN	BEACH	11	[0, 0, 0]	-999	PAL1	0	R1333N
1297.266	4.0	1299121	STUDY_PAIR	n/a	wordpools/wordpool_EN.txt	2	-999	n/a	TEA	SPONGE	TEA	11	[0, 0, 0]	-999	PAL1	0	R1333N
1301.304	0.524	1303159	STUDY_PAIR_OFF	n/a	n/a	2	-999	n/a	TEA	SPONGE	TEA	11	[0, 0, 0]	-999	PAL1	0	R1333N
1301.828	4.0	1303683	STUDY_PAIR	n/a	wordpools/wordpool_EN.txt	3	-999	n/a	n/a	PRINCE	NAIL	11	[0, 0, 0]	-999	PAL1	0	R1333N
1305.854	0.713	1307709	STUDY_PAIR_OFF	n/a	n/a	3	-999	n/a	n/a	PRINCE	NAIL	11	[0, 0, 0]	-999	PAL1	0	R1333N
1306.567	4.0	1308422	STUDY_PAIR	n/a	wordpools/wordpool_EN.txt	4	-999	n/a	n/a	FLEA	POOL	11	[0, 0, 0]	-999	PAL1	0	R1333N
1310.605	0.569	1312460	STUDY_PAIR_OFF	n/a	n/a	4	-999	n/a	n/a	FLEA	POOL	11	[0, 0, 0]	-999	PAL1	0	R1333N
1311.174	4.0	1313029	STUDY_PAIR	n/a	wordpools/wordpool_EN.txt	5	-999	n/a	n/a	FORK	CROW	11	[0, 0, 0]	-999	PAL1	0	R1333N
1315.206	0.666	1317061	STUDY_PAIR_OFF	n/a	n/a	5	-999	n/a	n/a	FORK	CROW	11	[0, 0, 0]	-999	PAL1	0	R1333N
1315.872	4.0	1317727	STUDY_PAIR	n/a	wordpools/wordpool_EN.txt	6	-999	n/a	n/a	TRAIN	BRICK	11	[0, 0, 0]	-999	PAL1	0	R1333N
1319.906	0.001	1321761	STUDY_PAIR_OFF	n/a	n/a	6	-999	n/a	n/a	TRAIN	BRICK	11	[0, 0, 0]	-999	PAL1	0	R1333N
1319.907	0.0	1321762	ENCODING_END	n/a	n/a	-999	-999	n/a	n/a	n/a	n/a	11	[0, 0, 0]	-999	PAL1	0	R1333N
1319.907	0.0	1321762	MATH_START	n/a	n/a	-999	-999	n/a	n/a	n/a	n/a	11	[0, 0, 0]	-999	PAL1	0	R1333N
1319.907	0.017	1321762	START	n/a	n/a	-999	-999	n/a	n/a	n/a	n/a	11	[-999, -999, -999]	-999	PAL1	0	R1333N
1319.924	3.732	1321779	PROB	3.697	n/a	-999	-999	n/a	n/a	n/a	n/a	11	[8, 2, 4]	14	PAL1	0	R1333N
1323.656	4.402	1325510	PROB	4.374	n/a	-999	-999	n/a	n/a	n/a	n/a	11	[2, 2, 4]	8	PAL1	0	R1333N
1328.058	4.617	1329912	PROB	4.585	n/a	-999	-999	n/a	n/a	n/a	n/a	11	[6, 8, 3]	17	PAL1	0	R1333N
1332.675	5.352	1334529	PROB	5.314	n/a	-999	-999	n/a	n/a	n/a	n/a	11	[5, 1, 3]	9	PAL1	0	R1333N
1338.027	5.282	1339881	PROB	5.282	n/a	-999	-999	n/a	n/a	n/a	n/a	11	[6, 8, 7]	22	PAL1	0	R1333N
1343.309	0.019	1345163	STOP	n/a	n/a	-999	-999	n/a	n/a	n/a	n/a	11	[-999, -999, -999]	-999	PAL1	0	R1333N
1343.328	0.609	1345182	MATH_END	n/a	n/a	-999	-999	n/a	n/a	n/a	n/a	11	[0, 0, 0]	-999	PAL1	0	R1333N
1343.937	0.002	1345791	RETRIEVAL_START	n/a	n/a	-999	-999	n/a	n/a	n/a	n/a	11	[0, 0, 0]	-999	PAL1	0	R1333N
1343.939	0.272	1345793	ORIENT_START	n/a	n/a	-999	-999	n/a	n/a	n/a	n/a	11	[0, 0, 0]	-999	PAL1	0	R1333N
1344.211	0.502	1346065	ORIENT_END	n/a	n/a	-999	-999	n/a	n/a	n/a	n/a	11	[0, 0, 0]	-999	PAL1	0	R1333N
1344.713	0.0	1346567	REC_START	n/a	n/a	5	1	CROW	n/a	FORK	CROW	11	[0, 0, 0]	-999	PAL1	0	R1333N
1344.713	4.0	1346567	PROBE_START	n/a	wordpools/wordpool_EN.txt	5	1	CROW	n/a	FORK	CROW	11	[0, 0, 0]	-999	PAL1	0	R1333N
1348.744	1.0	1350598	PROBE_END	n/a	n/a	5	1	CROW	n/a	FORK	CROW	11	[0, 0, 0]	-999	PAL1	0	R1333N
1349.744	0.01	1351597	REC_END	n/a	n/a	5	1	CROW	n/a	FORK	CROW	11	[0, 0, 0]	-999	PAL1	0	R1333N
1349.754	0.275	1351607	ORIENT_START	n/a	n/a	-999	-999	n/a	n/a	n/a	n/a	11	[0, 0, 0]	-999	PAL1	0	R1333N
1350.029	0.199	1351882	ORIENT_END	n/a	n/a	-999	-999	n/a	n/a	n/a	n/a	11	[0, 0, 0]	-999	PAL1	0	R1333N
1350.228	0.488	1352081	REC_EVENT	5.515	n/a	5	1	CROW	<>	FORK	CROW	11	[0, 0, 0]	-999	PAL1	0	R1333N
1350.716	0.001	1352569	REC_START	n/a	n/a	4	2	FLEA	n/a	FLEA	POOL	11	[0, 0, 0]	-999	PAL1	0	R1333N
1350.717	4.0	1352570	PROBE_START	n/a	wordpools/wordpool_EN.txt	4	2	FLEA	n/a	FLEA	POOL	11	[0, 0, 0]	-999	PAL1	0	R1333N
1353.755	0.99	1355608	REC_EVENT	3.038	n/a	4	2	FLEA	<>	FLEA	POOL	11	[0, 0, 0]	-999	PAL1	0	R1333N
1354.745	1.001	1356598	PROBE_END	n/a	n/a	4	2	FLEA	n/a	FLEA	POOL	11	[0, 0, 0]	-999	PAL1	0	R1333N
1355.746	0.011	1357599	REC_END	n/a	n/a	4	2	FLEA	n/a	FLEA	POOL	11	[0, 0, 0]	-999	PAL1	0	R1333N
1355.757	0.273	1357610	ORIENT_START	n/a	n/a	-999	-999	n/a	n/a	n/a	n/a	11	[0, 0, 0]	-999	PAL1	0	R1333N
1356.03	0.661	1357883	ORIENT_END	n/a	n/a	-999	-999	n/a	n/a	n/a	n/a	11	[0, 0, 0]	-999	PAL1	0	R1333N
1356.691	0.0	1358544	REC_START	n/a	n/a	1	3	CLOWN	n/a	CLOWN	BEACH	11	[0, 0, 0]	-999	PAL1	0	R1333N
1356.691	4.0	1358544	PROBE_START	n/a	wordpools/wordpool_EN.txt	1	3	CLOWN	n/a	CLOWN	BEACH	11	[0, 0, 0]	-999	PAL1	0	R1333N
1360.73	1.0	1362583	PROBE_END	n/a	n/a	1	3	CLOWN	n/a	CLOWN	BEACH	11	[0, 0, 0]	-999	PAL1	0	R1333N
1361.73	0.012	1363583	REC_END	n/a	n/a	1	3	CLOWN	n/a	CLOWN	BEACH	11	[0, 0, 0]	-999	PAL1	0	R1333N
1361.742	0.252	1363595	ORIENT_START	n/a	n/a	-999	-999	n/a	n/a	n/a	n/a	11	[0, 0, 0]	-999	PAL1	0	R1333N
1361.994	0.02	1363847	REC_EVENT	5.303	n/a	1	3	CLOWN	<>	CLOWN	BEACH	11	[0, 0, 0]	-999	PAL1	0	R1333N
1362.014	0.579	1363867	ORIENT_END	n/a	n/a	-999	-999	n/a	n/a	n/a	n/a	11	[0, 0, 0]	-999	PAL1	0	R1333N
1362.593	0.001	1364446	REC_START	n/a	n/a	2	4	SPONGE	TEA	SPONGE	TEA	11	[0, 0, 0]	-999	PAL1	0	R1333N
1362.594	4.0	1364447	PROBE_START	n/a	wordpools/wordpool_EN.txt	2	4	SPONGE	TEA	SPONGE	TEA	11	[0, 0, 0]	-999	PAL1	0	R1333N
1365.058	1.573	1366911	REC_EVENT	2.464	n/a	2	4	SPONGE	TEA	SPONGE	TEA	11	[0, 0, 0]	-999	PAL1	0	R1333N
1366.631	0.999	1368484	PROBE_END	n/a	n/a	2	4	SPONGE	n/a	SPONGE	TEA	11	[0, 0, 0]	-999	PAL1	0	R1333N
1367.63	0.011	1369483	REC_END	n/a	n/a	2	4	SPONGE	n/a	SPONGE	TEA	11	[0, 0, 0]	-999	PAL1	0	R1333N
1367.641	0.273	1369494	ORIENT_START	n/a	n/a	-999	-999	n/a	n/a	n/a	n/a	11	[0, 0, 0]	-999	PAL1	0	R1333N
1367.914	0.602	1369767	ORIENT_END	n/a	n/a	-999	-999	n/a	n/a	n/a	n/a	11	[0, 0, 0]	-999	PAL1	0	R1333N
1368.516	0.0	1370369	REC_START	n/a	n/a	3	5	NAIL	n/a	PRINCE	NAIL	11	[0, 0, 0]	-999	PAL1	0	R1333N
1368.516	4.0	1370369	PROBE_START	n/a	wordpools/wordpool_EN.txt	3	5	NAIL	n/a	PRINCE	NAIL	11	[0, 0, 0]	-999	PAL1	0	R1333N
1372.041	0.507	1373894	REC_EVENT	3.525	n/a	3	5	NAIL	<>	PRINCE	NAIL	11	[0, 0, 0]	-999	PAL1	0	R1333N
1372.548	1.0	1374401	PROBE_END	n/a	n/a	3	5	NAIL	n/a	PRINCE	NAIL	11	[0, 0, 0]	-999	PAL1	0	R1333N
1373.548	0.012	1375401	REC_END	n/a	n/a	3	5	NAIL	n/a	PRINCE	NAIL	11	[0, 0, 0]	-999	PAL1	0	R1333N
1373.56	0.272	1375413	ORIENT_START	n/a	n/a	-999	-999	n/a	n/a	n/a	n/a	11	[0, 0, 0]	-999	PAL1	0	R1333N
1373.832	0.516	1375685	ORIENT_END	n/a	n/a	-999	-999	n/a	n/a	n/a	n/a	11	[0, 0, 0]	-999	PAL1	0	R1333N
1374.348	4.0	1376201	PROBE_START	n/a	wordpools/wordpool_EN.txt	6	6	BRICK	n/a	TRAIN	BRICK	11	[0, 0, 0]	-999	PAL1	0	R1333N
1374.348	4.034	1376201	REC_START	n/a	n/a	6	6	BRICK	n/a	TRAIN	BRICK	11	[0, 0, 0]	-999	PAL1	0	R1333N
1378.382	0.257	1380234	PROBE_END	n/a	n/a	6	6	BRICK	n/a	TRAIN	BRICK	11	[0, 0, 0]	-999	PAL1	0	R1333N
1378.639	0.743	1380491	REC_EVENT	4.291	n/a	6	6	BRICK	<>	TRAIN	BRICK	11	[0, 0, 0]	-999	PAL1	0	R1333N
1379.382	0.011	1381234	REC_END	n/a	n/a	6	6	BRICK	n/a	TRAIN	BRICK	11	[0, 0, 0]	-999	PAL1	0	R1333N
1379.393	0.001	1381245	RETRIEVAL_END	n/a	n/a	-999	-999	n/a	n/a	n/a	n/a	11	[0, 0, 0]	-999	PAL1	0	R1333N
1379.394	0.019	1381246	TRIAL_END	n/a	n/a	-999	-999	n/a	n/a	n/a	n/a	11	[0, 0, 0]	-999	PAL1	0	R1333N
1379.413	0.0	1381265	TRIAL_START	n/a	n/a	-999	-999	n/a	n/a	n/a	n/a	11	[0, 0, 0]	-999	PAL1	0	R1333N
1379.413	0.0	1381265	TRIAL	n/a	n/a	-999	-999	n/a	n/a	n/a	n/a	12	[0, 0, 0]	-999	PAL1	0	R1333N
1379.413	4.671	1381265	WAITING_START	n/a	n/a	-999	-999	n/a	n/a	n/a	n/a	12	[0, 0, 0]	-999	PAL1	0	R1333N
1384.084	0.001	1385936	WAITING_END	n/a	n/a	-999	-999	n/a	n/a	n/a	n/a	12	[0, 0, 0]	-999	PAL1	0	R1333N
1384.085	10.0	1385937	COUNTDOWN_START	n/a	n/a	-999	-999	n/a	n/a	n/a	n/a	12	[0, 0, 0]	-999	PAL1	0	R1333N
1394.514	0.0	1396366	COUNTDOWN_END	n/a	n/a	-999	-999	n/a	n/a	n/a	n/a	12	[0, 0, 0]	-999	PAL1	0	R1333N
1394.514	0.572	1396366	ORIENT_START	n/a	n/a	-999	-999	n/a	n/a	n/a	n/a	12	[0, 0, 0]	-999	PAL1	0	R1333N
1395.086	0.001	1396938	ORIENT_END	n/a	n/a	-999	-999	n/a	n/a	n/a	n/a	12	[0, 0, 0]	-999	PAL1	0	R1333N
1395.087	1.07	1396939	ENCODING_START	n/a	n/a	-999	-999	n/a	n/a	n/a	n/a	12	[0, 0, 0]	-999	PAL1	0	R1333N
1396.157	4.0	1398009	STUDY_PAIR	n/a	wordpools/wordpool_EN.txt	1	-999	n/a	n/a	ROSE	DART	12	[0, 0, 0]	-999	PAL1	0	R1333N
1400.187	0.591	1402039	STUDY_PAIR_OFF	n/a	n/a	1	-999	n/a	n/a	ROSE	DART	12	[0, 0, 0]	-999	PAL1	0	R1333N
1400.778	4.0	1402630	STUDY_PAIR	n/a	wordpools/wordpool_EN.txt	2	-999	n/a	n/a	PALM	TOY	12	[0, 0, 0]	-999	PAL1	0	R1333N
1404.803	0.619	1406655	STUDY_PAIR_OFF	n/a	n/a	2	-999	n/a	n/a	PALM	TOY	12	[0, 0, 0]	-999	PAL1	0	R1333N
1405.422	4.0	1407274	STUDY_PAIR	n/a	wordpools/wordpool_EN.txt	3	-999	n/a	n/a	BEAN	TOOL	12	[0, 0, 0]	-999	PAL1	0	R1333N
1409.454	0.521	1411305	STUDY_PAIR_OFF	n/a	n/a	3	-999	n/a	n/a	BEAN	TOOL	12	[0, 0, 0]	-999	PAL1	0	R1333N
1409.975	4.0	1411826	STUDY_PAIR	n/a	wordpools/wordpool_EN.txt	4	-999	n/a	GLOVE	EAR	GLOVE	12	[0, 0, 0]	-999	PAL1	0	R1333N
1414.006	0.733	1415857	STUDY_PAIR_OFF	n/a	n/a	4	-999	n/a	GLOVE	EAR	GLOVE	12	[0, 0, 0]	-999	PAL1	0	R1333N
1414.739	4.0	1416590	STUDY_PAIR	n/a	wordpools/wordpool_EN.txt	5	-999	n/a	n/a	PEACH	CAR	12	[0, 0, 0]	-999	PAL1	0	R1333N
1418.772	0.563	1420623	STUDY_PAIR_OFF	n/a	n/a	5	-999	n/a	n/a	PEACH	CAR	12	[0, 0, 0]	-999	PAL1	0	R1333N
1419.335	4.0	1421186	STUDY_PAIR	n/a	wordpools/wordpool_EN.txt	6	-999	n/a	n/a	MOUSE	KEY	12	[0, 0, 0]	-999	PAL1	0	R1333N
1423.373	0.001	1425224	STUDY_PAIR_OFF	n/a	n/a	6	-999	n/a	n/a	MOUSE	KEY	12	[0, 0, 0]	-999	PAL1	0	R1333N
1423.374	0.0	1425225	MATH_START	n/a	n/a	-999	-999	n/a	n/a	n/a	n/a	12	[0, 0, 0]	-999	PAL1	0	R1333N
1423.374	0.0	1425225	ENCODING_END	n/a	n/a	-999	-999	n/a	n/a	n/a	n/a	12	[0, 0, 0]	-999	PAL1	0	R1333N
1423.374	0.016	1425225	START	n/a	n/a	-999	-999	n/a	n/a	n/a	n/a	12	[-999, -999, -999]	-999	PAL1	0	R1333N
1423.39	6.935	1425241	PROB	6.902	n/a	-999	-999	n/a	n/a	n/a	n/a	12	[8, 9, 5]	22	PAL1	0	R1333N
1430.325	3.566	1432176	PROB	3.543	n/a	-999	-999	n/a	n/a	n/a	n/a	12	[8, 8, 5]	21	PAL1	0	R1333N
1433.891	4.685	1435741	PROB	4.649	n/a	-999	-999	n/a	n/a	n/a	n/a	12	[8, 4, 9]	22	PAL1	0	R1333N
1438.576	5.076	1440426	PROB	5.076	n/a	-999	-999	n/a	n/a	n/a	n/a	12	[8, 4, 2]	12	PAL1	0	R1333N
1443.652	0.008	1445502	STOP	n/a	n/a	-999	-999	n/a	n/a	n/a	n/a	12	[-999, -999, -999]	-999	PAL1	0	R1333N
1443.66	0.609	1445510	MATH_END	n/a	n/a	-999	-999	n/a	n/a	n/a	n/a	12	[0, 0, 0]	-999	PAL1	0	R1333N
1444.269	0.001	1446119	RETRIEVAL_START	n/a	n/a	-999	-999	n/a	n/a	n/a	n/a	12	[0, 0, 0]	-999	PAL1	0	R1333N
1444.27	0.273	1446120	ORIENT_START	n/a	n/a	-999	-999	n/a	n/a	n/a	n/a	12	[0, 0, 0]	-999	PAL1	0	R1333N
1444.543	0.738	1446393	ORIENT_END	n/a	n/a	-999	-999	n/a	n/a	n/a	n/a	12	[0, 0, 0]	-999	PAL1	0	R1333N
1445.281	0.0	1447131	REC_START	n/a	n/a	5	1	CAR	n/a	PEACH	CAR	12	[0, 0, 0]	-999	PAL1	0	R1333N
1445.281	4.0	1447131	PROBE_START	n/a	wordpools/wordpool_EN.txt	5	1	CAR	n/a	PEACH	CAR	12	[0, 0, 0]	-999	PAL1	0	R1333N
1449.312	0.708	1451162	PROBE_END	n/a	n/a	5	1	CAR	n/a	PEACH	CAR	12	[0, 0, 0]	-999	PAL1	0	R1333N
1450.02	0.293	1451870	REC_EVENT	4.739	n/a	5	1	CAR	<>	PEACH	CAR	12	[0, 0, 0]	-999	PAL1	0	R1333N
1450.313	0.005	1452163	REC_END	n/a	n/a	5	1	CAR	n/a	PEACH	CAR	12	[0, 0, 0]	-999	PAL1	0	R1333N
1450.318	0.276	1452168	ORIENT_START	n/a	n/a	-999	-999	n/a	n/a	n/a	n/a	12	[0, 0, 0]	-999	PAL1	0	R1333N
1450.594	0.654	1452444	ORIENT_END	n/a	n/a	-999	-999	n/a	n/a	n/a	n/a	12	[0, 0, 0]	-999	PAL1	0	R1333N
1451.248	0.001	1453098	REC_START	n/a	n/a	4	2	EAR	GLOVE	EAR	GLOVE	12	[0, 0, 0]	-999	PAL1	0	R1333N
1451.249	4.0	1453099	PROBE_START	n/a	wordpools/wordpool_EN.txt	4	2	EAR	GLOVE	EAR	GLOVE	12	[0, 0, 0]	-999	PAL1	0	R1333N
1453.879	0.58	1455729	REC_EVENT	2.63	n/a	4	2	EAR	<>	EAR	GLOVE	12	[0, 0, 0]	-999	PAL1	0	R1333N
1454.459	0.821	1456309	REC_EVENT	3.21	n/a	4	2	EAR	GLOVE	EAR	GLOVE	12	[0, 0, 0]	-999	PAL1	0	R1333N
1455.28	0.999	1457130	PROBE_END	n/a	n/a	4	2	EAR	n/a	EAR	GLOVE	12	[0, 0, 0]	-999	PAL1	0	R1333N
1456.279	0.014	1458129	REC_END	n/a	n/a	4	2	EAR	n/a	EAR	GLOVE	12	[0, 0, 0]	-999	PAL1	0	R1333N
1456.293	0.269	1458143	ORIENT_START	n/a	n/a	-999	-999	n/a	n/a	n/a	n/a	12	[0, 0, 0]	-999	PAL1	0	R1333N
1456.562	0.582	1458412	ORIENT_END	n/a	n/a	-999	-999	n/a	n/a	n/a	n/a	12	[0, 0, 0]	-999	PAL1	0	R1333N
1457.144	0.0	1458994	REC_START	n/a	n/a	1	3	ROSE	n/a	ROSE	DART	12	[0, 0, 0]	-999	PAL1	0	R1333N
1457.144	4.0	1458994	PROBE_START	n/a	wordpools/wordpool_EN.txt	1	3	ROSE	n/a	ROSE	DART	12	[0, 0, 0]	-999	PAL1	0	R1333N
1461.18	0.315	1463030	PROBE_END	n/a	n/a	1	3	ROSE	n/a	ROSE	DART	12	[0, 0, 0]	-999	PAL1	0	R1333N
1461.495	0.685	1463345	REC_EVENT	4.351	n/a	1	3	ROSE	<>	ROSE	DART	12	[0, 0, 0]	-999	PAL1	0	R1333N
1462.18	0.011	1464029	REC_END	n/a	n/a	1	3	ROSE	n/a	ROSE	DART	12	[0, 0, 0]	-999	PAL1	0	R1333N
1462.191	0.272	1464040	ORIENT_START	n/a	n/a	-999	-999	n/a	n/a	n/a	n/a	12	[0, 0, 0]	-999	PAL1	0	R1333N
1462.463	0.739	1464312	ORIENT_END	n/a	n/a	-999	-999	n/a	n/a	n/a	n/a	12	[0, 0, 0]	-999	PAL1	0	R1333N
1463.202	0.001	1465051	REC_START	n/a	n/a	2	4	TOY	n/a	PALM	TOY	12	[0, 0, 0]	-999	PAL1	0	R1333N
1463.203	4.0	1465052	PROBE_START	n/a	wordpools/wordpool_EN.txt	2	4	TOY	n/a	PALM	TOY	12	[0, 0, 0]	-999	PAL1	0	R1333N
1466.733	0.498	1468582	REC_EVENT	3.53	n/a	2	4	TOY	<>	PALM	TOY	12	[0, 0, 0]	-999	PAL1	0	R1333N
1467.231	1.001	1469080	PROBE_END	n/a	n/a	2	4	TOY	n/a	PALM	TOY	12	[0, 0, 0]	-999	PAL1	0	R1333N
1468.232	0.006	1470081	REC_END	n/a	n/a	2	4	TOY	n/a	PALM	TOY	12	[0, 0, 0]	-999	PAL1	0	R1333N
1468.238	0.276	1470087	ORIENT_START	n/a	n/a	-999	-999	n/a	n/a	n/a	n/a	12	[0, 0, 0]	-999	PAL1	0	R1333N
1468.514	0.569	1470363	ORIENT_END	n/a	n/a	-999	-999	n/a	n/a	n/a	n/a	12	[0, 0, 0]	-999	PAL1	0	R1333N
1469.083	0.0	1470932	REC_START	n/a	n/a	3	5	BEAN	n/a	BEAN	TOOL	12	[0, 0, 0]	-999	PAL1	0	R1333N
1469.083	4.0	1470932	PROBE_START	n/a	wordpools/wordpool_EN.txt	3	5	BEAN	n/a	BEAN	TOOL	12	[0, 0, 0]	-999	PAL1	0	R1333N
1472.134	0.982	1473983	REC_EVENT	3.051	n/a	3	5	BEAN	<>	BEAN	TOOL	12	[0, 0, 0]	-999	PAL1	0	R1333N
1473.116	1.0	1474965	PROBE_END	n/a	n/a	3	5	BEAN	n/a	BEAN	TOOL	12	[0, 0, 0]	-999	PAL1	0	R1333N
1474.116	0.012	1475965	REC_END	n/a	n/a	3	5	BEAN	n/a	BEAN	TOOL	12	[0, 0, 0]	-999	PAL1	0	R1333N
1474.128	0.27	1475977	ORIENT_START	n/a	n/a	-999	-999	n/a	n/a	n/a	n/a	12	[0, 0, 0]	-999	PAL1	0	R1333N
1474.398	0.742	1476247	ORIENT_END	n/a	n/a	-999	-999	n/a	n/a	n/a	n/a	12	[0, 0, 0]	-999	PAL1	0	R1333N
1475.14	0.0	1476989	REC_START	n/a	n/a	6	6	KEY	n/a	MOUSE	KEY	12	[0, 0, 0]	-999	PAL1	0	R1333N
1475.14	4.0	1476989	PROBE_START	n/a	wordpools/wordpool_EN.txt	6	6	KEY	n/a	MOUSE	KEY	12	[0, 0, 0]	-999	PAL1	0	R1333N
1479.167	0.721	1481016	PROBE_END	n/a	n/a	6	6	KEY	n/a	MOUSE	KEY	12	[0, 0, 0]	-999	PAL1	0	R1333N
1479.888	0.28	1481737	REC_EVENT	4.748	n/a	6	6	KEY	<>	MOUSE	KEY	12	[0, 0, 0]	-999	PAL1	0	R1333N
1480.168	0.005	1482017	REC_END	n/a	n/a	6	6	KEY	n/a	MOUSE	KEY	12	[0, 0, 0]	-999	PAL1	0	R1333N
1480.173	0.0	1482022	RETRIEVAL_END	n/a	n/a	-999	-999	n/a	n/a	n/a	n/a	12	[0, 0, 0]	-999	PAL1	0	R1333N
1480.173	0.02	1482022	TRIAL_END	n/a	n/a	-999	-999	n/a	n/a	n/a	n/a	12	[0, 0, 0]	-999	PAL1	0	R1333N
1480.193	0.0	1482042	TRIAL_START	n/a	n/a	-999	-999	n/a	n/a	n/a	n/a	12	[0, 0, 0]	-999	PAL1	0	R1333N
1480.193	0.0	1482042	TRIAL	n/a	n/a	-999	-999	n/a	n/a	n/a	n/a	13	[0, 0, 0]	-999	PAL1	0	R1333N
1480.193	30.211	1482042	WAITING_START	n/a	n/a	-999	-999	n/a	n/a	n/a	n/a	13	[0, 0, 0]	-999	PAL1	0	R1333N
1510.404	0.001	1512252	WAITING_END	n/a	n/a	-999	-999	n/a	n/a	n/a	n/a	13	[0, 0, 0]	-999	PAL1	0	R1333N
1510.405	10.0	1512253	COUNTDOWN_START	n/a	n/a	-999	-999	n/a	n/a	n/a	n/a	13	[0, 0, 0]	-999	PAL1	0	R1333N
