onset	duration	sample	trial_type	response_time	stim_file	serialpos	probepos	probe_word	resp_word	study_1	study_2	list	test	answer	experiment	session	subject
0.0	64.934	738358	SESS_START	n/a	n/a	-999	-999	n/a	n/a	n/a	n/a	-999	[0, 0, 0]	-999	PAL1	0	R1162N
64.934	1.016	803289	START	n/a	n/a	-999	-999	n/a	n/a	n/a	n/a	-1	[-999, -999, -999]	-999	PAL1	0	R1162N
65.95	3.801	804305	PROB	3775.0	n/a	-999	-999	n/a	n/a	n/a	n/a	-1	[3, 7, 1]	11	PAL1	0	R1162N
69.751	3.8	808105	PROB	3773.0	n/a	-999	-999	n/a	n/a	n/a	n/a	-1	[3, 1, 8]	12	PAL1	0	R1162N
73.551	4.185	811905	PROB	4150.0	n/a	-999	-999	n/a	n/a	n/a	n/a	-1	[5, 5, 8]	18	PAL1	0	R1162N
77.736	3.1	816090	PROB	3069.0	n/a	-999	-999	n/a	n/a	n/a	n/a	-1	[7, 9, 2]	18	PAL1	0	R1162N
80.836	2.934	819190	PROB	2913.0	n/a	-999	-999	n/a	n/a	n/a	n/a	-1	[5, 9, 2]	16	PAL1	0	R1162N
83.77	3.443	822124	PROB	3443.0	n/a	-999	-999	n/a	n/a	n/a	n/a	-1	[8, 4, 5]	14	PAL1	0	R1162N
87.213	43.88	825567	STOP	n/a	n/a	-999	-999	n/a	n/a	n/a	n/a	-1	[-999, -999, -999]	-999	PAL1	0	R1162N
131.093	10.452	869444	ENCODING_START	n/a	n/a	0	-999	n/a	n/a	n/a	n/a	1	[0, 0, 0]	-999	PAL1	0	R1162N
141.545	0.275	879896	STUDY_ORIENT	n/a	n/a	1	1	JAR	COIN	SWORD	JAR	1	[0, 0, 0]	-999	PAL1	0	R1162N
142.496	4.0	880847	STUDY_PAIR	n/a	wordpools/wordpool_EN.txt	1	1	JAR	COIN	SWORD	JAR	1	[0, 0, 0]	-999	PAL1	0	R1162N
147.53	0.275	885880	STUDY_ORIENT	n/a	n/a	2	4	PLANE	n/a	COIN	PLANE	1	[0, 0, 0]	-999	PAL1	0	R1162N
148.447	4.0	886797	STUDY_PAIR	n/a	wordpools/wordpool_EN.txt	2	4	PLANE	n/a	COIN	PLANE	1	[0, 0, 0]	-999	PAL1	0	R1162N
153.481	0.275	891831	STUDY_ORIENT	n/a	n/a	3	5	RICE	SWAMP	SWAMP	RICE	1	[0, 0, 0]	-999	PAL1	0	R1162N
154.464	4.0	892814	STUDY_PAIR	n/a	wordpools/wordpool_EN.txt	3	5	RICE	SWAMP	SWAMP	RICE	1	[0, 0, 0]	-999	PAL1	0	R1162N
159.482	0.275	897832	STUDY_ORIENT	n/a	n/a	4	2	BOARD	PLANE	WHEEL	BOARD	1	[0, 0, 0]	-999	PAL1	0	R1162N
160.482	4.0	898832	STUDY_PAIR	n/a	wordpools/wordpool_EN.txt	4	2	BOARD	PLANE	WHEEL	BOARD	1	[0, 0, 0]	-999	PAL1	0	R1162N
165.516	0.275	903865	STUDY_ORIENT	n/a	n/a	5	3	ROAD	HOSE	ROAD	HOSE	1	[0, 0, 0]	-999	PAL1	0	R1162N
166.45	4.0	904799	STUDY_PAIR	n/a	wordpools/wordpool_EN.txt	5	3	ROAD	HOSE	ROAD	HOSE	1	[0, 0, 0]	-999	PAL1	0	R1162N
171.484	0.275	909833	STUDY_ORIENT	n/a	n/a	6	6	MOUSE	n/a	FILM	MOUSE	1	[0, 0, 0]	-999	PAL1	0	R1162N
172.317	4.0	910666	STUDY_PAIR	n/a	wordpools/wordpool_EN.txt	6	6	MOUSE	n/a	FILM	MOUSE	1	[0, 0, 0]	-999	PAL1	0	R1162N
176.318	1.0	914667	START	n/a	n/a	-999	-999	n/a	n/a	n/a	n/a	1	[-999, -999, -999]	-999	PAL1	0	R1162N
177.318	0.017	915667	MATH_START	n/a	n/a	-999	-999	n/a	n/a	n/a	n/a	1	[0, 0, 0]	-999	PAL1	0	R1162N
177.335	2.351	915684	PROB	2326.0	n/a	-999	-999	n/a	n/a	n/a	n/a	1	[4, 2, 1]	7	PAL1	0	R1162N
179.686	2.65	918035	PROB	2630.0	n/a	-999	-999	n/a	n/a	n/a	n/a	1	[3, 6, 4]	13	PAL1	0	R1162N
182.336	3.501	920684	PROB	3477.0	n/a	-999	-999	n/a	n/a	n/a	n/a	1	[8, 6, 1]	15	PAL1	0	R1162N
185.837	3.234	924185	PROB	3208.0	n/a	-999	-999	n/a	n/a	n/a	n/a	1	[3, 4, 9]	16	PAL1	0	R1162N
189.071	3.151	927419	PROB	3126.0	n/a	-999	-999	n/a	n/a	n/a	n/a	1	[9, 5, 2]	16	PAL1	0	R1162N
192.222	2.332	930570	PROB	2310.0	n/a	-999	-999	n/a	n/a	n/a	n/a	1	[1, 6, 3]	10	PAL1	0	R1162N
194.554	2.395	932902	PROB	2395.0	n/a	-999	-999	n/a	n/a	n/a	n/a	1	[4, 5, 1]	10	PAL1	0	R1162N
196.949	0.007	935297	STOP	n/a	n/a	-999	-999	n/a	n/a	n/a	n/a	1	[-999, -999, -999]	-999	PAL1	0	R1162N
196.956	0.0	935304	MATH_END	n/a	n/a	-999	-999	n/a	n/a	n/a	n/a	1	[0, 0, 0]	-999	PAL1	0	R1162N
196.956	0.016	935304	TEST_START	n/a	n/a	-999	-999	n/a	n/a	n/a	n/a	1	[0, 0, 0]	-999	PAL1	0	R1162N
196.972	0.275	935320	TEST_ORIENT	n/a	n/a	1	1	JAR	COIN	SWORD	JAR	1	[0, 0, 0]	-999	PAL1	0	R1162N
197.939	4.0	936287	TEST_PROBE	n/a	wordpools/wordpool_EN.txt	1	1	JAR	COIN	SWORD	JAR	1	[0, 0, 0]	-999	PAL1	0	R1162N
197.94	1.452	936288	REC_START	n/a	n/a	1	-999	n/a	COIN	n/a	n/a	1	[0, 0, 0]	-999	PAL1	0	R1162N
199.392	3.556	937740	REC_EVENT	1452.0	n/a	1	1	JAR	COIN	SWORD	JAR	1	[0, 0, 0]	-999	PAL1	0	R1162N
202.948	0.009	941295	REC_END	n/a	n/a	1	-999	n/a	n/a	n/a	n/a	1	[0, 0, 0]	-999	PAL1	0	R1162N
202.957	0.275	941304	TEST_ORIENT	n/a	n/a	4	2	BOARD	PLANE	WHEEL	BOARD	1	[0, 0, 0]	-999	PAL1	0	R1162N
203.874	4.0	942221	TEST_PROBE	n/a	wordpools/wordpool_EN.txt	4	2	BOARD	PLANE	WHEEL	BOARD	1	[0, 0, 0]	-999	PAL1	0	R1162N
203.874	3.08	942221	REC_START	n/a	n/a	4	-999	n/a	PLANE	n/a	n/a	1	[0, 0, 0]	-999	PAL1	0	R1162N
206.954	1.937	945301	REC_EVENT	3080.0	n/a	4	2	BOARD	PLANE	WHEEL	BOARD	1	[0, 0, 0]	-999	PAL1	0	R1162N
208.891	0.017	947238	REC_END	n/a	n/a	4	-999	n/a	n/a	n/a	n/a	1	[0, 0, 0]	-999	PAL1	0	R1162N
208.908	0.275	947255	TEST_ORIENT	n/a	n/a	5	3	ROAD	HOSE	ROAD	HOSE	1	[0, 0, 0]	-999	PAL1	0	R1162N
209.908	4.0	948255	TEST_PROBE	n/a	wordpools/wordpool_EN.txt	5	3	ROAD	HOSE	ROAD	HOSE	1	[0, 0, 0]	-999	PAL1	0	R1162N
209.909	1.859	948256	REC_START	n/a	n/a	5	-999	n/a	HOSE	n/a	n/a	1	[0, 0, 0]	-999	PAL1	0	R1162N
211.768	3.165	950115	REC_EVENT	1859.0	n/a	5	3	ROAD	HOSE	ROAD	HOSE	1	[0, 0, 0]	-999	PAL1	0	R1162N
214.933	0.009	953280	REC_END	n/a	n/a	5	-999	n/a	n/a	n/a	n/a	1	[0, 0, 0]	-999	PAL1	0	R1162N
214.942	0.275	953289	TEST_ORIENT	n/a	n/a	2	4	PLANE	n/a	COIN	PLANE	1	[0, 0, 0]	-999	PAL1	0	R1162N
215.825	4.0	954172	TEST_PROBE	n/a	wordpools/wordpool_EN.txt	2	4	PLANE	n/a	COIN	PLANE	1	[0, 0, 0]	-999	PAL1	0	R1162N
215.826	4.998	954173	REC_START	n/a	n/a	2	-999	n/a	n/a	n/a	n/a	1	[0, 0, 0]	-999	PAL1	0	R1162N
220.824	0.002	959170	REC_EVENT	4998.0	n/a	2	4	PLANE	<>	COIN	PLANE	1	[0, 0, 0]	-999	PAL1	0	R1162N
220.826	0.017	959172	REC_END	n/a	n/a	2	-999	n/a	n/a	n/a	n/a	1	[0, 0, 0]	-999	PAL1	0	R1162N
220.843	0.275	959189	TEST_ORIENT	n/a	n/a	3	5	RICE	SWAMP	SWAMP	RICE	1	[0, 0, 0]	-999	PAL1	0	R1162N
221.86	4.0	960206	TEST_PROBE	n/a	wordpools/wordpool_EN.txt	3	5	RICE	SWAMP	SWAMP	RICE	1	[0, 0, 0]	-999	PAL1	0	R1162N
221.86	1.383	960206	REC_START	n/a	n/a	3	-999	n/a	SWAMP	n/a	n/a	1	[0, 0, 0]	-999	PAL1	0	R1162N
223.243	3.634	961589	REC_EVENT	1383.0	n/a	3	5	RICE	SWAMP	SWAMP	RICE	1	[0, 0, 0]	-999	PAL1	0	R1162N
226.877	0.017	965223	REC_END	n/a	n/a	3	-999	n/a	n/a	n/a	n/a	1	[0, 0, 0]	-999	PAL1	0	R1162N
226.894	0.275	965240	TEST_ORIENT	n/a	n/a	6	6	MOUSE	n/a	FILM	MOUSE	1	[0, 0, 0]	-999	PAL1	0	R1162N
227.894	4.0	966240	TEST_PROBE	n/a	wordpools/wordpool_EN.txt	6	6	MOUSE	n/a	FILM	MOUSE	1	[0, 0, 0]	-999	PAL1	0	R1162N
227.895	5.015	966241	REC_START	n/a	n/a	6	-999	n/a	n/a	n/a	n/a	1	[0, 0, 0]	-999	PAL1	0	R1162N
232.91	0.001	971256	REC_EVENT	5015.0	n/a	6	6	MOUSE	<>	FILM	MOUSE	1	[0, 0, 0]	-999	PAL1	0	R1162N
232.911	4.134	971257	REC_END	n/a	n/a	6	-999	n/a	n/a	n/a	n/a	1	[0, 0, 0]	-999	PAL1	0	R1162N
237.045	10.452	975391	ENCODING_START	n/a	n/a	0	-999	n/a	n/a	n/a	n/a	2	[0, 0, 0]	-999	PAL1	0	R1162N
247.497	0.275	985842	STUDY_ORIENT	n/a	n/a	1	3	MOTH	n/a	ROOF	MOTH	2	[0, 0, 0]	-999	PAL1	0	R1162N
248.414	4.0	986759	STUDY_PAIR	n/a	wordpools/wordpool_EN.txt	1	3	MOTH	n/a	ROOF	MOTH	2	[0, 0, 0]	-999	PAL1	0	R1162N
253.448	0.275	991793	STUDY_ORIENT	n/a	n/a	2	6	ROOM	TOAD	ROOM	TOAD	2	[0, 0, 0]	-999	PAL1	0	R1162N
254.381	4.0	992726	STUDY_PAIR	n/a	wordpools/wordpool_EN.txt	2	6	ROOM	TOAD	ROOM	TOAD	2	[0, 0, 0]	-999	PAL1	0	R1162N
259.415	0.275	997759	STUDY_ORIENT	n/a	n/a	3	5	STONE	LIP	STONE	LIP	2	[0, 0, 0]	-999	PAL1	0	R1162N
260.416	4.0	998760	STUDY_PAIR	n/a	wordpools/wordpool_EN.txt	3	5	STONE	LIP	STONE	LIP	2	[0, 0, 0]	-999	PAL1	0	R1162N
265.45	0.275	1003794	STUDY_ORIENT	n/a	n/a	4	4	DESK	n/a	STEM	DESK	2	[0, 0, 0]	-999	PAL1	0	R1162N
266.333	4.0	1004677	STUDY_PAIR	n/a	wordpools/wordpool_EN.txt	4	4	DESK	n/a	STEM	DESK	2	[0, 0, 0]	-999	PAL1	0	R1162N
271.367	0.275	1009711	STUDY_ORIENT	n/a	n/a	5	1	CAT	PIT	PIT	CAT	2	[0, 0, 0]	-999	PAL1	0	R1162N
272.252	4.0	1010596	STUDY_PAIR	n/a	wordpools/wordpool_EN.txt	5	1	CAT	PIT	PIT	CAT	2	[0, 0, 0]	-999	PAL1	0	R1162N
277.286	0.275	1015629	STUDY_ORIENT	n/a	n/a	6	2	POOL	FLAME	POOL	FLAME	2	[0, 0, 0]	-999	PAL1	0	R1162N
278.119	4.0	1016462	STUDY_PAIR	n/a	wordpools/wordpool_EN.txt	6	2	POOL	FLAME	POOL	FLAME	2	[0, 0, 0]	-999	PAL1	0	R1162N
282.12	1.0	1020463	START	n/a	n/a	-999	-999	n/a	n/a	n/a	n/a	2	[-999, -999, -999]	-999	PAL1	0	R1162N
283.12	0.017	1021463	MATH_START	n/a	n/a	-999	-999	n/a	n/a	n/a	n/a	2	[0, 0, 0]	-999	PAL1	0	R1162N
283.137	3.35	1021480	PROB	3331.0	n/a	-999	-999	n/a	n/a	n/a	n/a	2	[3, 9, 6]	18	PAL1	0	R1162N
286.487	2.551	1024830	PROB	2526.0	n/a	-999	-999	n/a	n/a	n/a	n/a	2	[7, 3, 1]	11	PAL1	0	R1162N
289.038	2.967	1027381	PROB	2943.0	n/a	-999	-999	n/a	n/a	n/a	n/a	2	[5, 2, 9]	16	PAL1	0	R1162N
292.005	2.051	1030348	PROB	2016.0	n/a	-999	-999	n/a	n/a	n/a	n/a	2	[1, 5, 4]	10	PAL1	0	R1162N
294.056	4.584	1032399	PROB	4549.0	n/a	-999	-999	n/a	n/a	n/a	n/a	2	[9, 4, 7]	20	PAL1	0	R1162N
298.64	4.205	1036982	PROB	4205.0	n/a	-999	-999	n/a	n/a	n/a	n/a	2	[9, 2, 4]	15	PAL1	0	R1162N
302.845	0.012	1041187	STOP	n/a	n/a	-999	-999	n/a	n/a	n/a	n/a	2	[-999, -999, -999]	-999	PAL1	0	R1162N
302.857	0.0	1041199	TEST_START	n/a	n/a	-999	-999	n/a	n/a	n/a	n/a	2	[0, 0, 0]	-999	PAL1	0	R1162N
302.857	0.017	1041199	MATH_END	n/a	n/a	-999	-999	n/a	n/a	n/a	n/a	2	[0, 0, 0]	-999	PAL1	0	R1162N
302.874	0.275	1041216	TEST_ORIENT	n/a	n/a	5	1	CAT	PIT	PIT	CAT	2	[0, 0, 0]	-999	PAL1	0	R1162N
303.724	4.0	1042066	TEST_PROBE	n/a	wordpools/wordpool_EN.txt	5	1	CAT	PIT	PIT	CAT	2	[0, 0, 0]	-999	PAL1	0	R1162N
303.724	1.496	1042066	REC_START	n/a	n/a	5	-999	n/a	PIT	n/a	n/a	2	[0, 0, 0]	-999	PAL1	0	R1162N
305.22	3.521	1043562	REC_EVENT	1496.0	n/a	5	1	CAT	PIT	PIT	CAT	2	[0, 0, 0]	-999	PAL1	0	R1162N
308.741	0.017	1047083	REC_END	n/a	n/a	5	-999	n/a	n/a	n/a	n/a	2	[0, 0, 0]	-999	PAL1	0	R1162N
308.758	0.275	1047100	TEST_ORIENT	n/a	n/a	6	2	POOL	FLAME	POOL	FLAME	2	[0, 0, 0]	-999	PAL1	0	R1162N
309.708	4.0	1048050	TEST_PROBE	n/a	wordpools/wordpool_EN.txt	6	2	POOL	FLAME	POOL	FLAME	2	[0, 0, 0]	-999	PAL1	0	R1162N
309.709	1.112	1048051	REC_START	n/a	n/a	6	-999	n/a	FLAME	n/a	n/a	2	[0, 0, 0]	-999	PAL1	0	R1162N
310.821	3.888	1049163	REC_EVENT	1112.0	n/a	6	2	POOL	FLAME	POOL	FLAME	2	[0, 0, 0]	-999	PAL1	0	R1162N
314.709	0.017	1053050	REC_END	n/a	n/a	6	-999	n/a	n/a	n/a	n/a	2	[0, 0, 0]	-999	PAL1	0	R1162N
314.726	0.275	1053067	TEST_ORIENT	n/a	n/a	1	3	MOTH	n/a	ROOF	MOTH	2	[0, 0, 0]	-999	PAL1	0	R1162N
315.709	4.0	1054050	TEST_PROBE	n/a	wordpools/wordpool_EN.txt	1	3	MOTH	n/a	ROOF	MOTH	2	[0, 0, 0]	-999	PAL1	0	R1162N
315.71	5.003	1054051	REC_START	n/a	n/a	1	-999	n/a	n/a	n/a	n/a	2	[0, 0, 0]	-999	PAL1	0	R1162N
320.713	0.005	1059054	REC_EVENT	5003.0	n/a	1	3	MOTH	<>	ROOF	MOTH	2	[0, 0, 0]	-999	PAL1	0	R1162N
320.718	0.009	1059059	REC_END	n/a	n/a	1	-999	n/a	n/a	n/a	n/a	2	[0, 0, 0]	-999	PAL1	0	R1162N
320.727	0.275	1059068	TEST_ORIENT	n/a	n/a	4	4	DESK	n/a	STEM	DESK	2	[0, 0, 0]	-999	PAL1	0	R1162N
321.66	0.0	1060001	REC_START	n/a	n/a	4	-999	n/a	n/a	n/a	n/a	2	[0, 0, 0]	-999	PAL1	0	R1162N
321.66	4.0	1060001	TEST_PROBE	n/a	wordpools/wordpool_EN.txt	4	4	DESK	n/a	STEM	DESK	2	[0, 0, 0]	-999	PAL1	0	R1162N
326.675	0.003	1065016	REC_EVENT	5015.0	n/a	4	4	DESK	<>	STEM	DESK	2	[0, 0, 0]	-999	PAL1	0	R1162N
326.678	0.016	1065019	REC_END	n/a	n/a	4	-999	n/a	n/a	n/a	n/a	2	[0, 0, 0]	-999	PAL1	0	R1162N
326.694	0.275	1065035	TEST_ORIENT	n/a	n/a	3	5	STONE	LIP	STONE	LIP	2	[0, 0, 0]	-999	PAL1	0	R1162N
327.527	4.0	1065868	TEST_PROBE	n/a	wordpools/wordpool_EN.txt	3	5	STONE	LIP	STONE	LIP	2	[0, 0, 0]	-999	PAL1	0	R1162N
327.527	1.872	1065868	REC_START	n/a	n/a	3	-999	n/a	LIP	n/a	n/a	2	[0, 0, 0]	-999	PAL1	0	R1162N
329.399	3.145	1067740	REC_EVENT	1872.0	n/a	3	5	STONE	LIP	STONE	LIP	2	[0, 0, 0]	-999	PAL1	0	R1162N
332.544	0.017	1070884	REC_END	n/a	n/a	3	-999	n/a	n/a	n/a	n/a	2	[0, 0, 0]	-999	PAL1	0	R1162N
332.561	0.275	1070901	TEST_ORIENT	n/a	n/a	2	6	ROOM	TOAD	ROOM	TOAD	2	[0, 0, 0]	-999	PAL1	0	R1162N
333.444	4.0	1071784	TEST_PROBE	n/a	wordpools/wordpool_EN.txt	2	6	ROOM	TOAD	ROOM	TOAD	2	[0, 0, 0]	-999	PAL1	0	R1162N
333.445	1.835	1071785	REC_START	n/a	n/a	2	-999	n/a	TOAD	n/a	n/a	2	[0, 0, 0]	-999	PAL1	0	R1162N
335.28	3.173	1073620	REC_EVENT	1835.0	n/a	2	6	ROOM	TOAD	ROOM	TOAD	2	[0, 0, 0]	-999	PAL1	0	R1162N
338.453	3.015	1076793	REC_END	n/a	n/a	2	-999	n/a	n/a	n/a	n/a	2	[0, 0, 0]	-999	PAL1	0	R1162N
341.468	10.447	1079808	ENCODING_START	n/a	n/a	0	-999	n/a	n/a	n/a	n/a	3	[0, 0, 0]	-999	PAL1	0	R1162N
351.915	0.275	1090254	STUDY_ORIENT	n/a	n/a	1	5	SAIL	n/a	STOVE	SAIL	3	[0, 0, 0]	-999	PAL1	0	R1162N
352.715	4.0	1091054	STUDY_PAIR	n/a	wordpools/wordpool_EN.txt	1	5	SAIL	n/a	STOVE	SAIL	3	[0, 0, 0]	-999	PAL1	0	R1162N
357.733	0.275	1096072	STUDY_ORIENT	n/a	n/a	2	6	FOOD	CORD	CORD	FOOD	3	[0, 0, 0]	-999	PAL1	0	R1162N
358.633	4.0	1096972	STUDY_PAIR	n/a	wordpools/wordpool_EN.txt	2	6	FOOD	CORD	CORD	FOOD	3	[0, 0, 0]	-999	PAL1	0	R1162N
363.667	0.275	1102006	STUDY_ORIENT	n/a	n/a	3	1	FORT	n/a	TRUCK	FORT	3	[0, 0, 0]	-999	PAL1	0	R1162N
364.5	4.0	1102839	STUDY_PAIR	n/a	wordpools/wordpool_EN.txt	3	1	FORT	n/a	TRUCK	FORT	3	[0, 0, 0]	-999	PAL1	0	R1162N
369.534	0.275	1107873	STUDY_ORIENT	n/a	n/a	4	4	DOOR	n/a	DOOR	BARN	3	[0, 0, 0]	-999	PAL1	0	R1162N
370.517	4.0	1108855	STUDY_PAIR	n/a	wordpools/wordpool_EN.txt	4	4	DOOR	n/a	DOOR	BARN	3	[0, 0, 0]	-999	PAL1	0	R1162N
375.535	0.275	1113873	STUDY_ORIENT	n/a	n/a	5	3	DOG	FOX	DOG	FOX	3	[0, 0, 0]	-999	PAL1	0	R1162N
376.385	4.0	1114723	STUDY_PAIR	n/a	wordpools/wordpool_EN.txt	5	3	DOG	FOX	DOG	FOX	3	[0, 0, 0]	-999	PAL1	0	R1162N
381.419	0.275	1119757	STUDY_ORIENT	n/a	n/a	6	2	PURSE	n/a	PURSE	BATH	3	[0, 0, 0]	-999	PAL1	0	R1162N
382.287	4.0	1120625	STUDY_PAIR	n/a	wordpools/wordpool_EN.txt	6	2	PURSE	n/a	PURSE	BATH	3	[0, 0, 0]	-999	PAL1	0	R1162N
386.304	0.999	1124642	START	n/a	n/a	-999	-999	n/a	n/a	n/a	n/a	3	[-999, -999, -999]	-999	PAL1	0	R1162N
387.303	0.017	1125641	MATH_START	n/a	n/a	-999	-999	n/a	n/a	n/a	n/a	3	[0, 0, 0]	-999	PAL1	0	R1162N
387.32	2.552	1125658	PROB	2533.0	n/a	-999	-999	n/a	n/a	n/a	n/a	3	[6, 1, 4]	11	PAL1	0	R1162N
389.872	2.8	1128209	PROB	2781.0	n/a	-999	-999	n/a	n/a	n/a	n/a	3	[5, 6, 3]	14	PAL1	0	R1162N
392.672	2.584	1131009	PROB	2565.0	n/a	-999	-999	n/a	n/a	n/a	n/a	3	[8, 5, 1]	14	PAL1	0	R1162N
395.256	6.267	1133593	PROB	6236.0	n/a	-999	-999	n/a	n/a	n/a	n/a	3	[2, 1, 9]	12	PAL1	0	R1162N
401.523	2.651	1139860	PROB	2626.0	n/a	-999	-999	n/a	n/a	n/a	n/a	3	[4, 5, 6]	15	PAL1	0	R1162N
404.174	2.447	1142511	PROB	2447.0	n/a	-999	-999	n/a	n/a	n/a	n/a	3	[6, 4, 2]	12	PAL1	0	R1162N
406.621	0.004	1144958	STOP	n/a	n/a	-999	-999	n/a	n/a	n/a	n/a	3	[-999, -999, -999]	-999	PAL1	0	R1162N
406.625	0.0	1144962	TEST_START	n/a	n/a	-999	-999	n/a	n/a	n/a	n/a	3	[0, 0, 0]	-999	PAL1	0	R1162N
406.625	0.016	1144962	MATH_END	n/a	n/a	-999	-999	n/a	n/a	n/a	n/a	3	[0, 0, 0]	-999	PAL1	0	R1162N
406.641	0.275	1144978	TEST_ORIENT	n/a	n/a	3	1	FORT	n/a	TRUCK	FORT	3	[0, 0, 0]	-999	PAL1	0	R1162N
407.591	4.0	1145927	TEST_PROBE	n/a	wordpools/wordpool_EN.txt	3	1	FORT	n/a	TRUCK	FORT	3	[0, 0, 0]	-999	PAL1	0	R1162N
407.592	5.003	1145928	REC_START	n/a	n/a	3	-999	n/a	n/a	n/a	n/a	3	[0, 0, 0]	-999	PAL1	0	R1162N
412.595	0.005	1150931	REC_EVENT	5003.0	n/a	3	1	FORT	<>	TRUCK	FORT	3	[0, 0, 0]	-999	PAL1	0	R1162N
412.6	0.009	1150936	REC_END	n/a	n/a	3	-999	n/a	n/a	n/a	n/a	3	[0, 0, 0]	-999	PAL1	0	R1162N
412.609	0.275	1150945	TEST_ORIENT	n/a	n/a	6	2	PURSE	n/a	PURSE	BATH	3	[0, 0, 0]	-999	PAL1	0	R1162N
413.542	4.0	1151878	TEST_PROBE	n/a	wordpools/wordpool_EN.txt	6	2	PURSE	n/a	PURSE	BATH	3	[0, 0, 0]	-999	PAL1	0	R1162N
413.542	5.015	1151878	REC_START	n/a	n/a	6	-999	n/a	n/a	n/a	n/a	3	[0, 0, 0]	-999	PAL1	0	R1162N
418.557	0.002	1156893	REC_EVENT	5015.0	n/a	6	2	PURSE	<>	PURSE	BATH	3	[0, 0, 0]	-999	PAL1	0	R1162N
418.559	0.017	1156895	REC_END	n/a	n/a	6	-999	n/a	n/a	n/a	n/a	3	[0, 0, 0]	-999	PAL1	0	R1162N
418.576	0.275	1156912	TEST_ORIENT	n/a	n/a	5	3	DOG	FOX	DOG	FOX	3	[0, 0, 0]	-999	PAL1	0	R1162N
419.426	4.0	1157762	TEST_PROBE	n/a	wordpools/wordpool_EN.txt	5	3	DOG	FOX	DOG	FOX	3	[0, 0, 0]	-999	PAL1	0	R1162N
419.427	0.903	1157763	REC_START	n/a	n/a	5	-999	n/a	FOX	n/a	n/a	3	[0, 0, 0]	-999	PAL1	0	R1162N
420.33	4.113	1158666	REC_EVENT	903.0	n/a	5	3	DOG	FOX	DOG	FOX	3	[0, 0, 0]	-999	PAL1	0	R1162N
424.443	0.017	1162779	REC_END	n/a	n/a	5	-999	n/a	n/a	n/a	n/a	3	[0, 0, 0]	-999	PAL1	0	R1162N
424.46	0.275	1162796	TEST_ORIENT	n/a	n/a	4	4	DOOR	n/a	DOOR	BARN	3	[0, 0, 0]	-999	PAL1	0	R1162N
425.31	4.0	1163646	TEST_PROBE	n/a	wordpools/wordpool_EN.txt	4	4	DOOR	n/a	DOOR	BARN	3	[0, 0, 0]	-999	PAL1	0	R1162N
425.311	5.015	1163647	REC_START	n/a	n/a	4	-999	n/a	n/a	n/a	n/a	3	[0, 0, 0]	-999	PAL1	0	R1162N
430.326	0.001	1168661	REC_EVENT	5015.0	n/a	4	4	DOOR	<>	DOOR	BARN	3	[0, 0, 0]	-999	PAL1	0	R1162N
430.327	0.017	1168662	REC_END	n/a	n/a	4	-999	n/a	n/a	n/a	n/a	3	[0, 0, 0]	-999	PAL1	0	R1162N
430.344	0.275	1168679	TEST_ORIENT	n/a	n/a	1	5	SAIL	n/a	STOVE	SAIL	3	[0, 0, 0]	-999	PAL1	0	R1162N
431.162	4.0	1169497	TEST_PROBE	n/a	wordpools/wordpool_EN.txt	1	5	SAIL	n/a	STOVE	SAIL	3	[0, 0, 0]	-999	PAL1	0	R1162N
431.162	5.015	1169497	REC_START	n/a	n/a	1	-999	n/a	n/a	n/a	n/a	3	[0, 0, 0]	-999	PAL1	0	R1162N
436.177	0.002	1174512	REC_EVENT	5015.0	n/a	1	5	SAIL	<>	STOVE	SAIL	3	[0, 0, 0]	-999	PAL1	0	R1162N
436.179	0.017	1174514	REC_END	n/a	n/a	1	-999	n/a	n/a	n/a	n/a	3	[0, 0, 0]	-999	PAL1	0	R1162N
436.196	0.275	1174531	TEST_ORIENT	n/a	n/a	2	6	FOOD	CORD	CORD	FOOD	3	[0, 0, 0]	-999	PAL1	0	R1162N
437.029	4.0	1175364	TEST_PROBE	n/a	wordpools/wordpool_EN.txt	2	6	FOOD	CORD	CORD	FOOD	3	[0, 0, 0]	-999	PAL1	0	R1162N
437.03	1.191	1175365	REC_START	n/a	n/a	2	-999	n/a	CORD	n/a	n/a	3	[0, 0, 0]	-999	PAL1	0	R1162N
438.221	3.809	1176556	REC_EVENT	1191.0	n/a	2	6	FOOD	CORD	CORD	FOOD	3	[0, 0, 0]	-999	PAL1	0	R1162N
442.03	1.342	1180365	REC_END	n/a	n/a	2	-999	n/a	n/a	n/a	n/a	3	[0, 0, 0]	-999	PAL1	0	R1162N
443.372	10.444	1181707	ENCODING_START	n/a	n/a	0	-999	n/a	n/a	n/a	n/a	4	[0, 0, 0]	-999	PAL1	0	R1162N
453.816	0.275	1192150	STUDY_ORIENT	n/a	n/a	1	1	SIGN	HOLE	SIGN	HOLE	4	[0, 0, 0]	-999	PAL1	0	R1162N
454.733	4.0	1193067	STUDY_PAIR	n/a	wordpools/wordpool_EN.txt	1	1	SIGN	HOLE	SIGN	HOLE	4	[0, 0, 0]	-999	PAL1	0	R1162N
459.767	0.275	1198101	STUDY_ORIENT	n/a	n/a	2	6	SEED	GRAPE	SEED	GRAPE	4	[0, 0, 0]	-999	PAL1	0	R1162N
460.6	4.0	1198934	STUDY_PAIR	n/a	wordpools/wordpool_EN.txt	2	6	SEED	GRAPE	SEED	GRAPE	4	[0, 0, 0]	-999	PAL1	0	R1162N
465.618	0.275	1203951	STUDY_ORIENT	n/a	n/a	3	5	FACE	n/a	MILK	FACE	4	[0, 0, 0]	-999	PAL1	0	R1162N
466.585	4.0	1204918	STUDY_PAIR	n/a	wordpools/wordpool_EN.txt	3	5	FACE	n/a	MILK	FACE	4	[0, 0, 0]	-999	PAL1	0	R1162N
471.619	0.275	1209952	STUDY_ORIENT	n/a	n/a	4	2	BLUSH	PURSE	BLUSH	SHOE	4	[0, 0, 0]	-999	PAL1	0	R1162N
472.501	4.0	1210834	STUDY_PAIR	n/a	wordpools/wordpool_EN.txt	4	2	BLUSH	PURSE	BLUSH	SHOE	4	[0, 0, 0]	-999	PAL1	0	R1162N
477.519	0.275	1215852	STUDY_ORIENT	n/a	n/a	5	3	NAIL	TOY	NAIL	TOY	4	[0, 0, 0]	-999	PAL1	0	R1162N
478.402	4.0	1216735	STUDY_PAIR	n/a	wordpools/wordpool_EN.txt	5	3	NAIL	TOY	NAIL	TOY	4	[0, 0, 0]	-999	PAL1	0	R1162N
483.42	0.275	1221752	STUDY_ORIENT	n/a	n/a	6	4	LAMB	n/a	CAVE	LAMB	4	[0, 0, 0]	-999	PAL1	0	R1162N
484.387	4.0	1222719	STUDY_PAIR	n/a	wordpools/wordpool_EN.txt	6	4	LAMB	n/a	CAVE	LAMB	4	[0, 0, 0]	-999	PAL1	0	R1162N
488.404	1.0	1226736	START	n/a	n/a	-999	-999	n/a	n/a	n/a	n/a	4	[-999, -999, -999]	-999	PAL1	0	R1162N
489.404	0.017	1227736	MATH_START	n/a	n/a	-999	-999	n/a	n/a	n/a	n/a	4	[0, 0, 0]	-999	PAL1	0	R1162N
489.421	3.301	1227753	PROB	3272.0	n/a	-999	-999	n/a	n/a	n/a	n/a	4	[9, 1, 5]	15	PAL1	0	R1162N
492.722	2.65	1231054	PROB	2618.0	n/a	-999	-999	n/a	n/a	n/a	n/a	4	[2, 8, 6]	16	PAL1	0	R1162N
495.372	2.851	1233704	PROB	2817.0	n/a	-999	-999	n/a	n/a	n/a	n/a	4	[5, 6, 7]	18	PAL1	0	R1162N
498.223	2.884	1236555	PROB	2854.0	n/a	-999	-999	n/a	n/a	n/a	n/a	4	[1, 6, 8]	15	PAL1	0	R1162N
501.107	2.084	1239439	PROB	2058.0	n/a	-999	-999	n/a	n/a	n/a	n/a	4	[5, 5, 4]	14	PAL1	0	R1162N
503.191	6.229	1241522	PROB	6229.0	n/a	-999	-999	n/a	n/a	n/a	n/a	4	[9, 5, 6]	18	PAL1	0	R1162N
509.42	0.004	1247751	STOP	n/a	n/a	-999	-999	n/a	n/a	n/a	n/a	4	[-999, -999, -999]	-999	PAL1	0	R1162N
509.424	0.0	1247755	MATH_END	n/a	n/a	-999	-999	n/a	n/a	n/a	n/a	4	[0, 0, 0]	-999	PAL1	0	R1162N
509.424	0.017	1247755	TEST_START	n/a	n/a	-999	-999	n/a	n/a	n/a	n/a	4	[0, 0, 0]	-999	PAL1	0	R1162N
509.441	0.275	1247772	TEST_ORIENT	n/a	n/a	1	1	SIGN	HOLE	SIGN	HOLE	4	[0, 0, 0]	-999	PAL1	0	R1162N
510.358	4.0	1248689	TEST_PROBE	n/a	wordpools/wordpool_EN.txt	1	1	SIGN	HOLE	SIGN	HOLE	4	[0, 0, 0]	-999	PAL1	0	R1162N
510.358	2.92	1248689	REC_START	n/a	n/a	1	-999	n/a	HOLE	n/a	n/a	4	[0, 0, 0]	-999	PAL1	0	R1162N
513.278	2.097	1251609	REC_EVENT	2920.0	n/a	1	1	SIGN	HOLE	SIGN	HOLE	4	[0, 0, 0]	-999	PAL1	0	R1162N
515.375	0.017	1253706	REC_END	n/a	n/a	1	-999	n/a	n/a	n/a	n/a	4	[0, 0, 0]	-999	PAL1	0	R1162N
515.392	0.275	1253723	TEST_ORIENT	n/a	n/a	4	2	BLUSH	PURSE	BLUSH	SHOE	4	[0, 0, 0]	-999	PAL1	0	R1162N
516.392	4.0	1254723	TEST_PROBE	n/a	wordpools/wordpool_EN.txt	4	2	BLUSH	PURSE	BLUSH	SHOE	4	[0, 0, 0]	-999	PAL1	0	R1162N
516.393	2.906	1254724	REC_START	n/a	n/a	4	-999	n/a	PURSE	n/a	n/a	4	[0, 0, 0]	-999	PAL1	0	R1162N
519.299	2.11	1257630	REC_EVENT	2906.0	n/a	4	2	BLUSH	PURSE	BLUSH	SHOE	4	[0, 0, 0]	-999	PAL1	0	R1162N
521.409	0.017	1259739	REC_END	n/a	n/a	4	-999	n/a	n/a	n/a	n/a	4	[0, 0, 0]	-999	PAL1	0	R1162N
521.426	0.275	1259756	TEST_ORIENT	n/a	n/a	5	3	NAIL	TOY	NAIL	TOY	4	[0, 0, 0]	-999	PAL1	0	R1162N
522.277	4.0	1260607	TEST_PROBE	n/a	wordpools/wordpool_EN.txt	5	3	NAIL	TOY	NAIL	TOY	4	[0, 0, 0]	-999	PAL1	0	R1162N
522.278	1.503	1260608	REC_START	n/a	n/a	5	-999	n/a	TOY	n/a	n/a	4	[0, 0, 0]	-999	PAL1	0	R1162N
523.781	3.505	1262111	REC_EVENT	1503.0	n/a	5	3	NAIL	TOY	NAIL	TOY	4	[0, 0, 0]	-999	PAL1	0	R1162N
527.286	0.008	1265616	REC_END	n/a	n/a	5	-999	n/a	n/a	n/a	n/a	4	[0, 0, 0]	-999	PAL1	0	R1162N
527.294	0.275	1265624	TEST_ORIENT	n/a	n/a	6	4	LAMB	n/a	CAVE	LAMB	4	[0, 0, 0]	-999	PAL1	0	R1162N
528.228	4.0	1266558	TEST_PROBE	n/a	wordpools/wordpool_EN.txt	6	4	LAMB	n/a	CAVE	LAMB	4	[0, 0, 0]	-999	PAL1	0	R1162N
528.229	5.008	1266559	REC_START	n/a	n/a	6	-999	n/a	n/a	n/a	n/a	4	[0, 0, 0]	-999	PAL1	0	R1162N
533.237	0.001	1271567	REC_END	n/a	n/a	6	-999	n/a	n/a	n/a	n/a	4	[0, 0, 0]	-999	PAL1	0	R1162N
533.238	0.008	1271568	REC_EVENT	5009.0	n/a	6	4	LAMB	<>	CAVE	LAMB	4	[0, 0, 0]	-999	PAL1	0	R1162N
533.246	0.275	1271576	TEST_ORIENT	n/a	n/a	3	5	FACE	n/a	MILK	FACE	4	[0, 0, 0]	-999	PAL1	0	R1162N
534.213	4.0	1272543	TEST_PROBE	n/a	wordpools/wordpool_EN.txt	3	5	FACE	n/a	MILK	FACE	4	[0, 0, 0]	-999	PAL1	0	R1162N
534.213	5.015	1272543	REC_START	n/a	n/a	3	-999	n/a	n/a	n/a	n/a	4	[0, 0, 0]	-999	PAL1	0	R1162N
539.228	0.002	1277557	REC_EVENT	5015.0	n/a	3	5	FACE	<>	MILK	FACE	4	[0, 0, 0]	-999	PAL1	0	R1162N
539.23	0.017	1277559	REC_END	n/a	n/a	3	-999	n/a	n/a	n/a	n/a	4	[0, 0, 0]	-999	PAL1	0	R1162N
539.247	0.275	1277576	TEST_ORIENT	n/a	n/a	2	6	SEED	GRAPE	SEED	GRAPE	4	[0, 0, 0]	-999	PAL1	0	R1162N
540.214	4.0	1278543	TEST_PROBE	n/a	wordpools/wordpool_EN.txt	2	6	SEED	GRAPE	SEED	GRAPE	4	[0, 0, 0]	-999	PAL1	0	R1162N
540.214	1.552	1278543	REC_START	n/a	n/a	2	-999	n/a	GRAPE	n/a	n/a	4	[0, 0, 0]	-999	PAL1	0	R1162N
541.766	3.465	1280095	REC_EVENT	1552.0	n/a	2	6	SEED	GRAPE	SEED	GRAPE	4	[0, 0, 0]	-999	PAL1	0	R1162N
545.231	1.454	1283560	REC_END	n/a	n/a	2	-999	n/a	n/a	n/a	n/a	4	[0, 0, 0]	-999	PAL1	0	R1162N
546.685	10.448	1285014	ENCODING_START	n/a	n/a	0	-999	n/a	n/a	n/a	n/a	5	[0, 0, 0]	-999	PAL1	0	R1162N
557.133	0.275	1295462	STUDY_ORIENT	n/a	n/a	1	1	SLIME	GOAT	SLIME	GOAT	5	[0, 0, 0]	-999	PAL1	0	R1162N
558.117	4.0	1296445	STUDY_PAIR	n/a	wordpools/wordpool_EN.txt	1	1	SLIME	GOAT	SLIME	GOAT	5	[0, 0, 0]	-999	PAL1	0	R1162N
563.151	0.275	1301479	STUDY_ORIENT	n/a	n/a	2	6	FARM	n/a	FARM	TIE	5	[0, 0, 0]	-999	PAL1	0	R1162N
564.118	4.0	1302446	STUDY_PAIR	n/a	wordpools/wordpool_EN.txt	2	6	FARM	n/a	FARM	TIE	5	[0, 0, 0]	-999	PAL1	0	R1162N
569.152	0.275	1307480	STUDY_ORIENT	n/a	n/a	3	5	FAN	n/a	FAN	RUG	5	[0, 0, 0]	-999	PAL1	0	R1162N
569.986	4.0	1308314	STUDY_PAIR	n/a	wordpools/wordpool_EN.txt	3	5	FAN	n/a	FAN	RUG	5	[0, 0, 0]	-999	PAL1	0	R1162N
575.02	0.275	1313348	STUDY_ORIENT	n/a	n/a	4	2	SHEET	n/a	INK	SHEET	5	[0, 0, 0]	-999	PAL1	0	R1162N
575.903	4.0	1314231	STUDY_PAIR	n/a	wordpools/wordpool_EN.txt	4	2	SHEET	n/a	INK	SHEET	5	[0, 0, 0]	-999	PAL1	0	R1162N
580.921	0.275	1319248	STUDY_ORIENT	n/a	n/a	5	3	HORN	n/a	NOSE	HORN	5	[0, 0, 0]	-999	PAL1	0	R1162N
581.738	4.0	1320065	STUDY_PAIR	n/a	wordpools/wordpool_EN.txt	5	3	HORN	n/a	NOSE	HORN	5	[0, 0, 0]	-999	PAL1	0	R1162N
586.772	0.275	1325099	STUDY_ORIENT	n/a	n/a	6	4	FOAM	n/a	STAR	FOAM	5	[0, 0, 0]	-999	PAL1	0	R1162N
587.589	4.0	1325916	STUDY_PAIR	n/a	wordpools/wordpool_EN.txt	6	4	FOAM	n/a	STAR	FOAM	5	[0, 0, 0]	-999	PAL1	0	R1162N
591.606	1.0	1329933	START	n/a	n/a	-999	-999	n/a	n/a	n/a	n/a	5	[-999, -999, -999]	-999	PAL1	0	R1162N
592.606	0.017	1330933	MATH_START	n/a	n/a	-999	-999	n/a	n/a	n/a	n/a	5	[0, 0, 0]	-999	PAL1	0	R1162N
592.623	2.933	1330950	PROB	2909.0	n/a	-999	-999	n/a	n/a	n/a	n/a	5	[2, 4, 2]	8	PAL1	0	R1162N
595.556	2.368	1333882	PROB	2345.0	n/a	-999	-999	n/a	n/a	n/a	n/a	5	[8, 2, 1]	11	PAL1	0	R1162N
597.924	2.783	1336250	PROB	2753.0	n/a	-999	-999	n/a	n/a	n/a	n/a	5	[2, 7, 1]	10	PAL1	0	R1162N
600.707	4.435	1339033	PROB	4402.0	n/a	-999	-999	n/a	n/a	n/a	n/a	5	[7, 4, 4]	15	PAL1	0	R1162N
605.142	2.282	1343468	PROB	2262.0	n/a	-999	-999	n/a	n/a	n/a	n/a	5	[3, 2, 5]	10	PAL1	0	R1162N
607.424	2.468	1345750	PROB	2445.0	n/a	-999	-999	n/a	n/a	n/a	n/a	5	[3, 1, 8]	12	PAL1	0	R1162N
609.892	2.273	1348218	PROB	2273.0	n/a	-999	-999	n/a	n/a	n/a	n/a	5	[6, 1, 9]	16	PAL1	0	R1162N
612.165	0.011	1350491	STOP	n/a	n/a	-999	-999	n/a	n/a	n/a	n/a	5	[-999, -999, -999]	-999	PAL1	0	R1162N
612.176	0.0	1350502	MATH_END	n/a	n/a	-999	-999	n/a	n/a	n/a	n/a	5	[0, 0, 0]	-999	PAL1	0	R1162N
612.176	0.017	1350502	TEST_START	n/a	n/a	-999	-999	n/a	n/a	n/a	n/a	5	[0, 0, 0]	-999	PAL1	0	R1162N
612.193	0.275	1350519	TEST_ORIENT	n/a	n/a	1	1	SLIME	GOAT	SLIME	GOAT	5	[0, 0, 0]	-999	PAL1	0	R1162N
613.076	4.0	1351402	TEST_PROBE	n/a	wordpools/wordpool_EN.txt	1	1	SLIME	GOAT	SLIME	GOAT	5	[0, 0, 0]	-999	PAL1	0	R1162N
613.076	1.019	1351402	REC_START	n/a	n/a	1	-999	n/a	GOAT	n/a	n/a	5	[0, 0, 0]	-999	PAL1	0	R1162N
614.095	3.999	1352421	REC_EVENT	1019.0	n/a	1	1	SLIME	GOAT	SLIME	GOAT	5	[0, 0, 0]	-999	PAL1	0	R1162N
618.094	0.016	1356419	REC_END	n/a	n/a	1	-999	n/a	n/a	n/a	n/a	5	[0, 0, 0]	-999	PAL1	0	R1162N
618.11	0.275	1356435	TEST_ORIENT	n/a	n/a	4	2	SHEET	n/a	INK	SHEET	5	[0, 0, 0]	-999	PAL1	0	R1162N
619.044	4.0	1357369	TEST_PROBE	n/a	wordpools/wordpool_EN.txt	4	2	SHEET	n/a	INK	SHEET	5	[0, 0, 0]	-999	PAL1	0	R1162N
619.045	5.015	1357370	REC_START	n/a	n/a	4	-999	n/a	n/a	n/a	n/a	5	[0, 0, 0]	-999	PAL1	0	R1162N
624.06	0.001	1362385	REC_EVENT	5015.0	n/a	4	2	SHEET	<>	INK	SHEET	5	[0, 0, 0]	-999	PAL1	0	R1162N
624.061	0.017	1362386	REC_END	n/a	n/a	4	-999	n/a	n/a	n/a	n/a	5	[0, 0, 0]	-999	PAL1	0	R1162N
624.078	0.275	1362403	TEST_ORIENT	n/a	n/a	5	3	HORN	n/a	NOSE	HORN	5	[0, 0, 0]	-999	PAL1	0	R1162N
625.078	4.0	1363403	TEST_PROBE	n/a	wordpools/wordpool_EN.txt	5	3	HORN	n/a	NOSE	HORN	5	[0, 0, 0]	-999	PAL1	0	R1162N
625.078	5.015	1363403	REC_START	n/a	n/a	5	-999	n/a	n/a	n/a	n/a	5	[0, 0, 0]	-999	PAL1	0	R1162N
630.093	0.002	1368418	REC_EVENT	5015.0	n/a	5	3	HORN	<>	NOSE	HORN	5	[0, 0, 0]	-999	PAL1	0	R1162N
630.095	0.017	1368420	REC_END	n/a	n/a	5	-999	n/a	n/a	n/a	n/a	5	[0, 0, 0]	-999	PAL1	0	R1162N
630.112	0.275	1368437	TEST_ORIENT	n/a	n/a	6	4	FOAM	n/a	STAR	FOAM	5	[0, 0, 0]	-999	PAL1	0	R1162N
631.113	4.0	1369438	TEST_PROBE	n/a	wordpools/wordpool_EN.txt	6	4	FOAM	n/a	STAR	FOAM	5	[0, 0, 0]	-999	PAL1	0	R1162N
631.113	5.021	1369438	REC_START	n/a	n/a	6	-999	n/a	n/a	n/a	n/a	5	[0, 0, 0]	-999	PAL1	0	R1162N
636.134	0.004	1374458	REC_EVENT	5021.0	n/a	6	4	FOAM	<>	STAR	FOAM	5	[0, 0, 0]	-999	PAL1	0	R1162N
636.138	0.009	1374462	REC_END	n/a	n/a	6	-999	n/a	n/a	n/a	n/a	5	[0, 0, 0]	-999	PAL1	0	R1162N
636.147	0.275	1374471	TEST_ORIENT	n/a	n/a	3	5	FAN	n/a	FAN	RUG	5	[0, 0, 0]	-999	PAL1	0	R1162N
636.964	4.0	1375288	TEST_PROBE	n/a	wordpools/wordpool_EN.txt	3	5	FAN	n/a	FAN	RUG	5	[0, 0, 0]	-999	PAL1	0	R1162N
636.964	5.015	1375288	REC_START	n/a	n/a	3	-999	n/a	n/a	n/a	n/a	5	[0, 0, 0]	-999	PAL1	0	R1162N
641.979	0.002	1380303	REC_EVENT	5015.0	n/a	3	5	FAN	<>	FAN	RUG	5	[0, 0, 0]	-999	PAL1	0	R1162N
641.981	0.017	1380305	REC_END	n/a	n/a	3	-999	n/a	n/a	n/a	n/a	5	[0, 0, 0]	-999	PAL1	0	R1162N
641.998	0.275	1380322	TEST_ORIENT	n/a	n/a	2	6	FARM	n/a	FARM	TIE	5	[0, 0, 0]	-999	PAL1	0	R1162N
642.914	4.0	1381238	TEST_PROBE	n/a	wordpools/wordpool_EN.txt	2	6	FARM	n/a	FARM	TIE	5	[0, 0, 0]	-999	PAL1	0	R1162N
642.915	5.003	1381239	REC_START	n/a	n/a	2	-999	n/a	n/a	n/a	n/a	5	[0, 0, 0]	-999	PAL1	0	R1162N
647.918	0.005	1386242	REC_EVENT	5003.0	n/a	2	6	FARM	<>	FARM	TIE	5	[0, 0, 0]	-999	PAL1	0	R1162N
647.923	1.122	1386247	REC_END	n/a	n/a	2	-999	n/a	n/a	n/a	n/a	5	[0, 0, 0]	-999	PAL1	0	R1162N
649.045	10.438	1387369	ENCODING_START	n/a	n/a	0	-999	n/a	n/a	n/a	n/a	6	[0, 0, 0]	-999	PAL1	0	R1162N
659.483	0.275	1397806	STUDY_ORIENT	n/a	n/a	1	3	GOLD	TEA	TEA	GOLD	6	[0, 0, 0]	-999	PAL1	0	R1162N
660.284	4.0	1398607	STUDY_PAIR	n/a	wordpools/wordpool_EN.txt	1	3	GOLD	TEA	TEA	GOLD	6	[0, 0, 0]	-999	PAL1	0	R1162N
665.301	0.275	1403624	STUDY_ORIENT	n/a	n/a	2	2	DEER	n/a	DEER	PLATE	6	[0, 0, 0]	-999	PAL1	0	R1162N
666.152	4.0	1404475	STUDY_PAIR	n/a	wordpools/wordpool_EN.txt	2	2	DEER	n/a	DEER	PLATE	6	[0, 0, 0]	-999	PAL1	0	R1162N
671.186	0.275	1409508	STUDY_ORIENT	n/a	n/a	3	5	CHIEF	BREAD	CHIEF	BREAD	6	[0, 0, 0]	-999	PAL1	0	R1162N
672.103	4.0	1410425	STUDY_PAIR	n/a	wordpools/wordpool_EN.txt	3	5	CHIEF	BREAD	CHIEF	BREAD	6	[0, 0, 0]	-999	PAL1	0	R1162N
677.137	0.275	1415459	STUDY_ORIENT	n/a	n/a	4	6	MULE	n/a	MULE	ELF	6	[0, 0, 0]	-999	PAL1	0	R1162N
678.104	4.0	1416426	STUDY_PAIR	n/a	wordpools/wordpool_EN.txt	4	6	MULE	n/a	MULE	ELF	6	[0, 0, 0]	-999	PAL1	0	R1162N
683.138	0.275	1421460	STUDY_ORIENT	n/a	n/a	5	1	OAK	n/a	BRIDGE	OAK	6	[0, 0, 0]	-999	PAL1	0	R1162N
684.055	4.0	1422377	STUDY_PAIR	n/a	wordpools/wordpool_EN.txt	5	1	OAK	n/a	BRIDGE	OAK	6	[0, 0, 0]	-999	PAL1	0	R1162N
689.089	0.275	1427411	STUDY_ORIENT	n/a	n/a	6	4	BOX	n/a	HAWK	BOX	6	[0, 0, 0]	-999	PAL1	0	R1162N
690.089	4.0	1428410	STUDY_PAIR	n/a	wordpools/wordpool_EN.txt	6	4	BOX	n/a	HAWK	BOX	6	[0, 0, 0]	-999	PAL1	0	R1162N
694.09	1.0	1432411	START	n/a	n/a	-999	-999	n/a	n/a	n/a	n/a	6	[-999, -999, -999]	-999	PAL1	0	R1162N
695.09	0.017	1433411	MATH_START	n/a	n/a	-999	-999	n/a	n/a	n/a	n/a	6	[0, 0, 0]	-999	PAL1	0	R1162N
695.107	4.517	1433428	PROB	4498.0	n/a	-999	-999	n/a	n/a	n/a	n/a	6	[6, 5, 5]	16	PAL1	0	R1162N
699.624	3.184	1437945	PROB	3149.0	n/a	-999	-999	n/a	n/a	n/a	n/a	6	[7, 8, 4]	19	PAL1	0	R1162N
702.808	3.483	1441129	PROB	3461.0	n/a	-999	-999	n/a	n/a	n/a	n/a	6	[6, 3, 1]	10	PAL1	0	R1162N
706.291	4.635	1444612	PROB	4602.0	n/a	-999	-999	n/a	n/a	n/a	n/a	6	[9, 4, 1]	14	PAL1	0	R1162N
710.926	3.743	1449246	PROB	3743.0	n/a	-999	-999	n/a	n/a	n/a	n/a	6	[9, 8, 3]	20	PAL1	0	R1162N
714.669	0.008	1452989	STOP	n/a	n/a	-999	-999	n/a	n/a	n/a	n/a	6	[-999, -999, -999]	-999	PAL1	0	R1162N
714.677	0.0	1452997	MATH_END	n/a	n/a	-999	-999	n/a	n/a	n/a	n/a	6	[0, 0, 0]	-999	PAL1	0	R1162N
714.677	0.016	1452997	TEST_START	n/a	n/a	-999	-999	n/a	n/a	n/a	n/a	6	[0, 0, 0]	-999	PAL1	0	R1162N
714.693	0.275	1453013	TEST_ORIENT	n/a	n/a	5	1	OAK	n/a	BRIDGE	OAK	6	[0, 0, 0]	-999	PAL1	0	R1162N
715.61	4.0	1453930	TEST_PROBE	n/a	wordpools/wordpool_EN.txt	5	1	OAK	n/a	BRIDGE	OAK	6	[0, 0, 0]	-999	PAL1	0	R1162N
715.611	5.008	1453931	REC_START	n/a	n/a	5	-999	n/a	n/a	n/a	n/a	6	[0, 0, 0]	-999	PAL1	0	R1162N
720.619	0.001	1458939	REC_END	n/a	n/a	5	-999	n/a	n/a	n/a	n/a	6	[0, 0, 0]	-999	PAL1	0	R1162N
720.62	0.008	1458940	REC_EVENT	5009.0	n/a	5	1	OAK	<>	BRIDGE	OAK	6	[0, 0, 0]	-999	PAL1	0	R1162N
720.628	0.275	1458948	TEST_ORIENT	n/a	n/a	2	2	DEER	n/a	DEER	PLATE	6	[0, 0, 0]	-999	PAL1	0	R1162N
721.661	4.0	1459981	TEST_PROBE	n/a	wordpools/wordpool_EN.txt	2	2	DEER	n/a	DEER	PLATE	6	[0, 0, 0]	-999	PAL1	0	R1162N
721.662	5.008	1459982	REC_START	n/a	n/a	2	-999	n/a	n/a	n/a	n/a	6	[0, 0, 0]	-999	PAL1	0	R1162N
726.67	0.001	1464990	REC_END	n/a	n/a	2	-999	n/a	n/a	n/a	n/a	6	[0, 0, 0]	-999	PAL1	0	R1162N
726.671	0.008	1464991	REC_EVENT	5009.0	n/a	2	2	DEER	<>	DEER	PLATE	6	[0, 0, 0]	-999	PAL1	0	R1162N
726.679	0.275	1464999	TEST_ORIENT	n/a	n/a	1	3	GOLD	TEA	TEA	GOLD	6	[0, 0, 0]	-999	PAL1	0	R1162N
727.596	0.0	1465915	REC_START	n/a	n/a	1	-999	n/a	TEA	n/a	n/a	6	[0, 0, 0]	-999	PAL1	0	R1162N
727.596	4.0	1465915	TEST_PROBE	n/a	wordpools/wordpool_EN.txt	1	3	GOLD	TEA	TEA	GOLD	6	[0, 0, 0]	-999	PAL1	0	R1162N
729.41	3.203	1467729	REC_EVENT	1814.0	n/a	1	3	GOLD	TEA	TEA	GOLD	6	[0, 0, 0]	-999	PAL1	0	R1162N
732.613	0.017	1470932	REC_END	n/a	n/a	1	-999	n/a	n/a	n/a	n/a	6	[0, 0, 0]	-999	PAL1	0	R1162N
732.63	0.275	1470949	TEST_ORIENT	n/a	n/a	6	4	BOX	n/a	HAWK	BOX	6	[0, 0, 0]	-999	PAL1	0	R1162N
733.446	4.0	1471765	TEST_PROBE	n/a	wordpools/wordpool_EN.txt	6	4	BOX	n/a	HAWK	BOX	6	[0, 0, 0]	-999	PAL1	0	R1162N
733.446	5.017	1471765	REC_START	n/a	n/a	6	-999	n/a	n/a	n/a	n/a	6	[0, 0, 0]	-999	PAL1	0	R1162N
738.463	0.004	1476782	REC_END	n/a	n/a	6	-999	n/a	n/a	n/a	n/a	6	[0, 0, 0]	-999	PAL1	0	R1162N
738.467	0.013	1476786	REC_EVENT	5021.0	n/a	6	4	BOX	<>	HAWK	BOX	6	[0, 0, 0]	-999	PAL1	0	R1162N
738.48	0.275	1476799	TEST_ORIENT	n/a	n/a	3	5	CHIEF	BREAD	CHIEF	BREAD	6	[0, 0, 0]	-999	PAL1	0	R1162N
739.497	0.0	1477816	REC_START	n/a	n/a	3	-999	n/a	BREAD	n/a	n/a	6	[0, 0, 0]	-999	PAL1	0	R1162N
739.497	4.0	1477816	TEST_PROBE	n/a	wordpools/wordpool_EN.txt	3	5	CHIEF	BREAD	CHIEF	BREAD	6	[0, 0, 0]	-999	PAL1	0	R1162N
741.102	3.412	1479421	REC_EVENT	1605.0	n/a	3	5	CHIEF	BREAD	CHIEF	BREAD	6	[0, 0, 0]	-999	PAL1	0	R1162N
744.514	0.017	1482833	REC_END	n/a	n/a	3	-999	n/a	n/a	n/a	n/a	6	[0, 0, 0]	-999	PAL1	0	R1162N
744.531	0.275	1482850	TEST_ORIENT	n/a	n/a	4	6	MULE	n/a	MULE	ELF	6	[0, 0, 0]	-999	PAL1	0	R1162N
745.331	4.0	1483650	TEST_PROBE	n/a	wordpools/wordpool_EN.txt	4	6	MULE	n/a	MULE	ELF	6	[0, 0, 0]	-999	PAL1	0	R1162N
745.331	5.015	1483650	REC_START	n/a	n/a	4	-999	n/a	n/a	n/a	n/a	6	[0, 0, 0]	-999	PAL1	0	R1162N
750.346	0.002	1488664	REC_EVENT	5015.0	n/a	4	6	MULE	<>	MULE	ELF	6	[0, 0, 0]	-999	PAL1	0	R1162N
750.348	1.553	1488666	REC_END	n/a	n/a	4	-999	n/a	n/a	n/a	n/a	6	[0, 0, 0]	-999	PAL1	0	R1162N
751.901	10.449	1490219	ENCODING_START	n/a	n/a	0	-999	n/a	n/a	n/a	n/a	7	[0, 0, 0]	-999	PAL1	0	R1162N
762.35	0.275	1500668	STUDY_ORIENT	n/a	n/a	1	5	POLE	n/a	BALL	POLE	7	[0, 0, 0]	-999	PAL1	0	R1162N
763.168	4.0	1501486	STUDY_PAIR	n/a	wordpools/wordpool_EN.txt	1	5	POLE	n/a	BALL	POLE	7	[0, 0, 0]	-999	PAL1	0	R1162N
768.186	0.275	1506503	STUDY_ORIENT	n/a	n/a	2	2	HILL	BIRD	HILL	TOAST	7	[0, 0, 0]	-999	PAL1	0	R1162N
769.169	4.0	1507486	STUDY_PAIR	n/a	wordpools/wordpool_EN.txt	2	2	HILL	BIRD	HILL	TOAST	7	[0, 0, 0]	-999	PAL1	0	R1162N
774.187	0.275	1512504	STUDY_ORIENT	n/a	n/a	3	3	LAMP	n/a	LAMP	FLAG	7	[0, 0, 0]	-999	PAL1	0	R1162N
775.02	4.0	1513337	STUDY_PAIR	n/a	wordpools/wordpool_EN.txt	3	3	LAMP	n/a	LAMP	FLAG	7	[0, 0, 0]	-999	PAL1	0	R1162N
780.038	0.275	1518355	STUDY_ORIENT	n/a	n/a	4	6	MOLE	n/a	HEART	MOLE	7	[0, 0, 0]	-999	PAL1	0	R1162N
780.971	4.0	1519288	STUDY_PAIR	n/a	wordpools/wordpool_EN.txt	4	6	MOLE	n/a	HEART	MOLE	7	[0, 0, 0]	-999	PAL1	0	R1162N
785.989	0.275	1524305	STUDY_ORIENT	n/a	n/a	5	1	SPRING	STORM	SPRING	STORM	7	[0, 0, 0]	-999	PAL1	0	R1162N
786.955	4.0	1525271	STUDY_PAIR	n/a	wordpools/wordpool_EN.txt	5	1	SPRING	STORM	SPRING	STORM	7	[0, 0, 0]	-999	PAL1	0	R1162N
791.973	0.275	1530289	STUDY_ORIENT	n/a	n/a	6	4	TREE	n/a	MAP	TREE	7	[0, 0, 0]	-999	PAL1	0	R1162N
792.873	4.0	1531189	STUDY_PAIR	n/a	wordpools/wordpool_EN.txt	6	4	TREE	n/a	MAP	TREE	7	[0, 0, 0]	-999	PAL1	0	R1162N
796.874	1.0	1535190	START	n/a	n/a	-999	-999	n/a	n/a	n/a	n/a	7	[-999, -999, -999]	-999	PAL1	0	R1162N
797.874	0.017	1536190	MATH_START	n/a	n/a	-999	-999	n/a	n/a	n/a	n/a	7	[0, 0, 0]	-999	PAL1	0	R1162N
797.891	3.449	1536207	PROB	3417.0	n/a	-999	-999	n/a	n/a	n/a	n/a	7	[2, 9, 7]	18	PAL1	0	R1162N
801.34	3.569	1539656	PROB	3545.0	n/a	-999	-999	n/a	n/a	n/a	n/a	7	[6, 5, 5]	16	PAL1	0	R1162N
804.909	3.633	1543224	PROB	3607.0	n/a	-999	-999	n/a	n/a	n/a	n/a	7	[9, 3, 3]	15	PAL1	0	R1162N
808.542	3.118	1546857	PROB	3095.0	n/a	-999	-999	n/a	n/a	n/a	n/a	7	[8, 3, 7]	18	PAL1	0	R1162N
811.66	2.649	1549975	PROB	2625.0	n/a	-999	-999	n/a	n/a	n/a	n/a	7	[9, 1, 1]	11	PAL1	0	R1162N
814.309	3.696	1552624	PROB	3696.0	n/a	-999	-999	n/a	n/a	n/a	n/a	7	[5, 7, 6]	20	PAL1	0	R1162N
818.005	0.006	1556320	STOP	n/a	n/a	-999	-999	n/a	n/a	n/a	n/a	7	[-999, -999, -999]	-999	PAL1	0	R1162N
818.011	0.0	1556326	MATH_END	n/a	n/a	-999	-999	n/a	n/a	n/a	n/a	7	[0, 0, 0]	-999	PAL1	0	R1162N
818.011	0.017	1556326	TEST_START	n/a	n/a	-999	-999	n/a	n/a	n/a	n/a	7	[0, 0, 0]	-999	PAL1	0	R1162N
818.028	0.275	1556343	TEST_ORIENT	n/a	n/a	5	1	SPRING	STORM	SPRING	STORM	7	[0, 0, 0]	-999	PAL1	0	R1162N
819.061	4.0	1557376	TEST_PROBE	n/a	wordpools/wordpool_EN.txt	5	1	SPRING	STORM	SPRING	STORM	7	[0, 0, 0]	-999	PAL1	0	R1162N
819.061	1.109	1557376	REC_START	n/a	n/a	5	-999	n/a	STORM	n/a	n/a	7	[0, 0, 0]	-999	PAL1	0	R1162N
820.17	3.908	1558485	REC_EVENT	1109.0	n/a	5	1	SPRING	STORM	SPRING	STORM	7	[0, 0, 0]	-999	PAL1	0	R1162N
824.078	0.017	1562392	REC_END	n/a	n/a	5	-999	n/a	n/a	n/a	n/a	7	[0, 0, 0]	-999	PAL1	0	R1162N
824.095	0.275	1562409	TEST_ORIENT	n/a	n/a	2	2	HILL	BIRD	HILL	TOAST	7	[0, 0, 0]	-999	PAL1	0	R1162N
825.079	4.0	1563393	TEST_PROBE	n/a	wordpools/wordpool_EN.txt	2	2	HILL	BIRD	HILL	TOAST	7	[0, 0, 0]	-999	PAL1	0	R1162N
825.08	3.804	1563394	REC_START	n/a	n/a	2	-999	n/a	BIRD	n/a	n/a	7	[0, 0, 0]	-999	PAL1	0	R1162N
828.884	1.221	1567198	REC_EVENT	3804.0	n/a	2	2	HILL	BIRD	HILL	TOAST	7	[0, 0, 0]	-999	PAL1	0	R1162N
830.105	0.008	1568419	REC_END	n/a	n/a	2	-999	n/a	n/a	n/a	n/a	7	[0, 0, 0]	-999	PAL1	0	R1162N
830.113	0.275	1568427	TEST_ORIENT	n/a	n/a	3	3	LAMP	n/a	LAMP	FLAG	7	[0, 0, 0]	-999	PAL1	0	R1162N
830.979	4.0	1569293	TEST_PROBE	n/a	wordpools/wordpool_EN.txt	3	3	LAMP	n/a	LAMP	FLAG	7	[0, 0, 0]	-999	PAL1	0	R1162N
830.98	5.008	1569294	REC_START	n/a	n/a	3	-999	n/a	n/a	n/a	n/a	7	[0, 0, 0]	-999	PAL1	0	R1162N
835.988	0.001	1574302	REC_END	n/a	n/a	3	-999	n/a	n/a	n/a	n/a	7	[0, 0, 0]	-999	PAL1	0	R1162N
835.989	0.008	1574303	REC_EVENT	5009.0	n/a	3	3	LAMP	<>	LAMP	FLAG	7	[0, 0, 0]	-999	PAL1	0	R1162N
835.997	0.275	1574311	TEST_ORIENT	n/a	n/a	6	4	TREE	n/a	MAP	TREE	7	[0, 0, 0]	-999	PAL1	0	R1162N
837.031	4.0	1575345	TEST_PROBE	n/a	wordpools/wordpool_EN.txt	6	4	TREE	n/a	MAP	TREE	7	[0, 0, 0]	-999	PAL1	0	R1162N
837.031	5.015	1575345	REC_START	n/a	n/a	6	-999	n/a	n/a	n/a	n/a	7	[0, 0, 0]	-999	PAL1	0	R1162N
842.046	0.002	1580359	REC_EVENT	5015.0	n/a	6	4	TREE	<>	MAP	TREE	7	[0, 0, 0]	-999	PAL1	0	R1162N
842.048	0.017	1580361	REC_END	n/a	n/a	6	-999	n/a	n/a	n/a	n/a	7	[0, 0, 0]	-999	PAL1	0	R1162N
842.065	0.275	1580378	TEST_ORIENT	n/a	n/a	1	5	POLE	n/a	BALL	POLE	7	[0, 0, 0]	-999	PAL1	0	R1162N
843.032	4.0	1581345	TEST_PROBE	n/a	wordpools/wordpool_EN.txt	1	5	POLE	n/a	BALL	POLE	7	[0, 0, 0]	-999	PAL1	0	R1162N
843.033	5.024	1581346	REC_START	n/a	n/a	1	-999	n/a	n/a	n/a	n/a	7	[0, 0, 0]	-999	PAL1	0	R1162N
848.057	0.003	1586370	REC_END	n/a	n/a	1	-999	n/a	n/a	n/a	n/a	7	[0, 0, 0]	-999	PAL1	0	R1162N
848.06	0.006	1586373	REC_EVENT	5027.0	n/a	1	5	POLE	<>	BALL	POLE	7	[0, 0, 0]	-999	PAL1	0	R1162N
848.066	0.275	1586379	TEST_ORIENT	n/a	n/a	4	6	MOLE	n/a	HEART	MOLE	7	[0, 0, 0]	-999	PAL1	0	R1162N
849.066	4.0	1587379	TEST_PROBE	n/a	wordpools/wordpool_EN.txt	4	6	MOLE	n/a	HEART	MOLE	7	[0, 0, 0]	-999	PAL1	0	R1162N
849.067	5.015	1587380	REC_START	n/a	n/a	4	-999	n/a	n/a	n/a	n/a	7	[0, 0, 0]	-999	PAL1	0	R1162N
854.082	0.001	1592395	REC_EVENT	5015.0	n/a	4	6	MOLE	<>	HEART	MOLE	7	[0, 0, 0]	-999	PAL1	0	R1162N
854.083	1.69	1592396	REC_END	n/a	n/a	4	-999	n/a	n/a	n/a	n/a	7	[0, 0, 0]	-999	PAL1	0	R1162N
855.773	10.446	1594086	ENCODING_START	n/a	n/a	0	-999	n/a	n/a	n/a	n/a	8	[0, 0, 0]	-999	PAL1	0	R1162N
866.219	0.275	1604531	STUDY_ORIENT	n/a	n/a	1	3	PIG	n/a	PIG	CLOCK	8	[0, 0, 0]	-999	PAL1	0	R1162N
867.203	4.0	1605515	STUDY_PAIR	n/a	wordpools/wordpool_EN.txt	1	3	PIG	n/a	PIG	CLOCK	8	[0, 0, 0]	-999	PAL1	0	R1162N
872.237	0.275	1610549	STUDY_ORIENT	n/a	n/a	2	4	HOUSE	n/a	HOUSE	KITE	8	[0, 0, 0]	-999	PAL1	0	R1162N
873.02	4.0	1611332	STUDY_PAIR	n/a	wordpools/wordpool_EN.txt	2	4	HOUSE	n/a	HOUSE	KITE	8	[0, 0, 0]	-999	PAL1	0	R1162N
878.054	0.275	1616365	STUDY_ORIENT	n/a	n/a	3	1	CHIN	THUMB	THUMB	CHIN	8	[0, 0, 0]	-999	PAL1	0	R1162N
879.038	4.0	1617349	STUDY_PAIR	n/a	wordpools/wordpool_EN.txt	3	1	CHIN	THUMB	THUMB	CHIN	8	[0, 0, 0]	-999	PAL1	0	R1162N
884.072	0.275	1622383	STUDY_ORIENT	n/a	n/a	4	2	PHONE	SEA	PHONE	SEA	8	[0, 0, 0]	-999	PAL1	0	R1162N
884.905	4.0	1623216	STUDY_PAIR	n/a	wordpools/wordpool_EN.txt	4	2	PHONE	SEA	PHONE	SEA	8	[0, 0, 0]	-999	PAL1	0	R1162N
889.923	0.275	1628234	STUDY_ORIENT	n/a	n/a	5	5	ROCK	THUMB	MOOSE	ROCK	8	[0, 0, 0]	-999	PAL1	0	R1162N
890.773	4.0	1629084	STUDY_PAIR	n/a	wordpools/wordpool_EN.txt	5	5	ROCK	THUMB	MOOSE	ROCK	8	[0, 0, 0]	-999	PAL1	0	R1162N
895.807	0.275	1634118	STUDY_ORIENT	n/a	n/a	6	6	CAR	NET	NET	CAR	8	[0, 0, 0]	-999	PAL1	0	R1162N
896.808	4.0	1635118	STUDY_PAIR	n/a	wordpools/wordpool_EN.txt	6	6	CAR	NET	NET	CAR	8	[0, 0, 0]	-999	PAL1	0	R1162N
900.825	1.0	1639135	START	n/a	n/a	-999	-999	n/a	n/a	n/a	n/a	8	[-999, -999, -999]	-999	PAL1	0	R1162N
901.825	0.017	1640135	MATH_START	n/a	n/a	-999	-999	n/a	n/a	n/a	n/a	8	[0, 0, 0]	-999	PAL1	0	R1162N
901.842	2.884	1640152	PROB	2859.0	n/a	-999	-999	n/a	n/a	n/a	n/a	8	[1, 4, 3]	8	PAL1	0	R1162N
904.726	3.2	1643036	PROB	3167.0	n/a	-999	-999	n/a	n/a	n/a	n/a	8	[7, 2, 6]	15	PAL1	0	R1162N
907.926	2.516	1646236	PROB	2494.0	n/a	-999	-999	n/a	n/a	n/a	n/a	8	[8, 4, 1]	13	PAL1	0	R1162N
910.442	2.435	1648752	PROB	2411.0	n/a	-999	-999	n/a	n/a	n/a	n/a	8	[6, 4, 4]	14	PAL1	0	R1162N
912.877	2.234	1651187	PROB	2200.0	n/a	-999	-999	n/a	n/a	n/a	n/a	8	[5, 5, 7]	17	PAL1	0	R1162N
915.111	2.667	1653420	PROB	2646.0	n/a	-999	-999	n/a	n/a	n/a	n/a	8	[6, 4, 2]	12	PAL1	0	R1162N
917.778	2.033	1656087	PROB	2003.0	n/a	-999	-999	n/a	n/a	n/a	n/a	8	[1, 1, 6]	8	PAL1	0	R1162N
919.811	2.818	1658120	PROB	2818.0	n/a	-999	-999	n/a	n/a	n/a	n/a	8	[3, 8, 8]	19	PAL1	0	R1162N
922.629	0.016	1660938	STOP	n/a	n/a	-999	-999	n/a	n/a	n/a	n/a	8	[-999, -999, -999]	-999	PAL1	0	R1162N
922.645	0.0	1660954	MATH_END	n/a	n/a	-999	-999	n/a	n/a	n/a	n/a	8	[0, 0, 0]	-999	PAL1	0	R1162N
922.645	0.017	1660954	TEST_START	n/a	n/a	-999	-999	n/a	n/a	n/a	n/a	8	[0, 0, 0]	-999	PAL1	0	R1162N
922.662	0.275	1660971	TEST_ORIENT	n/a	n/a	3	1	CHIN	THUMB	THUMB	CHIN	8	[0, 0, 0]	-999	PAL1	0	R1162N
923.679	0.0	1661988	REC_START	n/a	n/a	3	-999	n/a	THUMB	n/a	n/a	8	[0, 0, 0]	-999	PAL1	0	R1162N
923.679	4.0	1661988	TEST_PROBE	n/a	wordpools/wordpool_EN.txt	3	1	CHIN	THUMB	THUMB	CHIN	8	[0, 0, 0]	-999	PAL1	0	R1162N
924.904	3.792	1663213	REC_EVENT	1225.0	n/a	3	1	CHIN	THUMB	THUMB	CHIN	8	[0, 0, 0]	-999	PAL1	0	R1162N
928.696	0.017	1667005	REC_END	n/a	n/a	3	-999	n/a	n/a	n/a	n/a	8	[0, 0, 0]	-999	PAL1	0	R1162N
928.713	0.275	1667022	TEST_ORIENT	n/a	n/a	4	2	PHONE	SEA	PHONE	SEA	8	[0, 0, 0]	-999	PAL1	0	R1162N
929.596	4.0	1667905	TEST_PROBE	n/a	wordpools/wordpool_EN.txt	4	2	PHONE	SEA	PHONE	SEA	8	[0, 0, 0]	-999	PAL1	0	R1162N
929.596	1.005	1667905	REC_START	n/a	n/a	4	-999	n/a	SEA	n/a	n/a	8	[0, 0, 0]	-999	PAL1	0	R1162N
930.601	4.013	1668910	REC_EVENT	1005.0	n/a	4	2	PHONE	SEA	PHONE	SEA	8	[0, 0, 0]	-999	PAL1	0	R1162N
934.614	0.017	1672922	REC_END	n/a	n/a	4	-999	n/a	n/a	n/a	n/a	8	[0, 0, 0]	-999	PAL1	0	R1162N
934.631	0.275	1672939	TEST_ORIENT	n/a	n/a	1	3	PIG	n/a	PIG	CLOCK	8	[0, 0, 0]	-999	PAL1	0	R1162N
935.664	4.0	1673972	TEST_PROBE	n/a	wordpools/wordpool_EN.txt	1	3	PIG	n/a	PIG	CLOCK	8	[0, 0, 0]	-999	PAL1	0	R1162N
935.665	5.016	1673973	REC_START	n/a	n/a	1	-999	n/a	n/a	n/a	n/a	8	[0, 0, 0]	-999	PAL1	0	R1162N
940.681	0.005	1678989	REC_END	n/a	n/a	1	-999	n/a	n/a	n/a	n/a	8	[0, 0, 0]	-999	PAL1	0	R1162N
940.686	0.012	1678994	REC_EVENT	5021.0	n/a	1	3	PIG	<>	PIG	CLOCK	8	[0, 0, 0]	-999	PAL1	0	R1162N
940.698	0.275	1679006	TEST_ORIENT	n/a	n/a	2	4	HOUSE	n/a	HOUSE	KITE	8	[0, 0, 0]	-999	PAL1	0	R1162N
941.531	4.0	1679839	TEST_PROBE	n/a	wordpools/wordpool_EN.txt	2	4	HOUSE	n/a	HOUSE	KITE	8	[0, 0, 0]	-999	PAL1	0	R1162N
941.531	5.015	1679839	REC_START	n/a	n/a	2	-999	n/a	n/a	n/a	n/a	8	[0, 0, 0]	-999	PAL1	0	R1162N
946.546	0.002	1684854	REC_EVENT	5015.0	n/a	2	4	HOUSE	<>	HOUSE	KITE	8	[0, 0, 0]	-999	PAL1	0	R1162N
946.548	0.017	1684856	REC_END	n/a	n/a	2	-999	n/a	n/a	n/a	n/a	8	[0, 0, 0]	-999	PAL1	0	R1162N
946.565	0.275	1684873	TEST_ORIENT	n/a	n/a	5	5	ROCK	THUMB	MOOSE	ROCK	8	[0, 0, 0]	-999	PAL1	0	R1162N
947.365	4.0	1685673	TEST_PROBE	n/a	wordpools/wordpool_EN.txt	5	5	ROCK	THUMB	MOOSE	ROCK	8	[0, 0, 0]	-999	PAL1	0	R1162N
947.366	2.921	1685674	REC_START	n/a	n/a	5	-999	n/a	THUMB	n/a	n/a	8	[0, 0, 0]	-999	PAL1	0	R1162N
950.287	2.095	1688595	REC_EVENT	2921.0	n/a	5	5	ROCK	THUMB	MOOSE	ROCK	8	[0, 0, 0]	-999	PAL1	0	R1162N
952.382	0.017	1690689	REC_END	n/a	n/a	5	-999	n/a	n/a	n/a	n/a	8	[0, 0, 0]	-999	PAL1	0	R1162N
952.399	0.275	1690706	TEST_ORIENT	n/a	n/a	6	6	CAR	NET	NET	CAR	8	[0, 0, 0]	-999	PAL1	0	R1162N
953.316	4.0	1691623	TEST_PROBE	n/a	wordpools/wordpool_EN.txt	6	6	CAR	NET	NET	CAR	8	[0, 0, 0]	-999	PAL1	0	R1162N
953.316	1.207	1691623	REC_START	n/a	n/a	6	-999	n/a	NET	n/a	n/a	8	[0, 0, 0]	-999	PAL1	0	R1162N
954.523	3.81	1692830	REC_EVENT	1207.0	n/a	6	6	CAR	NET	NET	CAR	8	[0, 0, 0]	-999	PAL1	0	R1162N
958.333	1.56	1696640	REC_END	n/a	n/a	6	-999	n/a	n/a	n/a	n/a	8	[0, 0, 0]	-999	PAL1	0	R1162N
959.893	10.443	1698200	ENCODING_START	n/a	n/a	0	-999	n/a	n/a	n/a	n/a	9	[0, 0, 0]	-999	PAL1	0	R1162N
970.336	0.275	1708643	STUDY_ORIENT	n/a	n/a	1	3	SHIRT	TENT	TENT	SHIRT	9	[0, 0, 0]	-999	PAL1	0	R1162N
971.17	4.0	1709476	STUDY_PAIR	n/a	wordpools/wordpool_EN.txt	1	3	SHIRT	TENT	TENT	SHIRT	9	[0, 0, 0]	-999	PAL1	0	R1162N
976.204	0.275	1714510	STUDY_ORIENT	n/a	n/a	2	2	WAVE	ROPE	ROPE	WAVE	9	[0, 0, 0]	-999	PAL1	0	R1162N
977.071	4.0	1715377	STUDY_PAIR	n/a	wordpools/wordpool_EN.txt	2	2	WAVE	ROPE	ROPE	WAVE	9	[0, 0, 0]	-999	PAL1	0	R1162N
982.105	0.275	1720411	STUDY_ORIENT	n/a	n/a	3	5	SHEEP	n/a	SMILE	SHEEP	9	[0, 0, 0]	-999	PAL1	0	R1162N
983.005	4.0	1721311	STUDY_PAIR	n/a	wordpools/wordpool_EN.txt	3	5	SHEEP	n/a	SMILE	SHEEP	9	[0, 0, 0]	-999	PAL1	0	R1162N
988.023	0.275	1726329	STUDY_ORIENT	n/a	n/a	4	4	BUSH	n/a	PASTE	BUSH	9	[0, 0, 0]	-999	PAL1	0	R1162N
988.99	4.0	1727296	STUDY_PAIR	n/a	wordpools/wordpool_EN.txt	4	4	BUSH	n/a	PASTE	BUSH	9	[0, 0, 0]	-999	PAL1	0	R1162N
994.024	0.275	1732329	STUDY_ORIENT	n/a	n/a	5	1	BAT	n/a	ARM	BAT	9	[0, 0, 0]	-999	PAL1	0	R1162N
995.041	4.0	1733346	STUDY_PAIR	n/a	wordpools/wordpool_EN.txt	5	1	BAT	n/a	ARM	BAT	9	[0, 0, 0]	-999	PAL1	0	R1162N
1000.075	0.275	1738380	STUDY_ORIENT	n/a	n/a	6	6	COUCH	GATE	GATE	COUCH	9	[0, 0, 0]	-999	PAL1	0	R1162N
1001.075	4.0	1739380	STUDY_PAIR	n/a	wordpools/wordpool_EN.txt	6	6	COUCH	GATE	GATE	COUCH	9	[0, 0, 0]	-999	PAL1	0	R1162N
1005.093	1.0	1743398	START	n/a	n/a	-999	-999	n/a	n/a	n/a	n/a	9	[-999, -999, -999]	-999	PAL1	0	R1162N
1006.093	0.016	1744398	MATH_START	n/a	n/a	-999	-999	n/a	n/a	n/a	n/a	9	[0, 0, 0]	-999	PAL1	0	R1162N
1006.109	3.168	1744414	PROB	3144.0	n/a	-999	-999	n/a	n/a	n/a	n/a	9	[7, 3, 3]	13	PAL1	0	R1162N
1009.277	3.266	1747581	PROB	3231.0	n/a	-999	-999	n/a	n/a	n/a	n/a	9	[4, 8, 8]	20	PAL1	0	R1162N
1012.543	4.652	1750847	PROB	4622.0	n/a	-999	-999	n/a	n/a	n/a	n/a	9	[7, 4, 4]	15	PAL1	0	R1162N
1017.195	2.5	1755499	PROB	2466.0	n/a	-999	-999	n/a	n/a	n/a	n/a	9	[6, 1, 7]	14	PAL1	0	R1162N
1019.695	2.234	1757999	PROB	2206.0	n/a	-999	-999	n/a	n/a	n/a	n/a	9	[1, 6, 1]	8	PAL1	0	R1162N
1021.929	3.1	1760233	PROB	3076.0	n/a	-999	-999	n/a	n/a	n/a	n/a	9	[7, 2, 8]	17	PAL1	0	R1162N
1025.029	2.808	1763333	PROB	2808.0	n/a	-999	-999	n/a	n/a	n/a	n/a	9	[2, 7, 6]	15	PAL1	0	R1162N
1027.837	0.009	1766140	STOP	n/a	n/a	-999	-999	n/a	n/a	n/a	n/a	9	[-999, -999, -999]	-999	PAL1	0	R1162N
1027.846	0.0	1766149	MATH_END	n/a	n/a	-999	-999	n/a	n/a	n/a	n/a	9	[0, 0, 0]	-999	PAL1	0	R1162N
1027.846	0.017	1766149	TEST_START	n/a	n/a	-999	-999	n/a	n/a	n/a	n/a	9	[0, 0, 0]	-999	PAL1	0	R1162N
1027.863	0.275	1766166	TEST_ORIENT	n/a	n/a	5	1	BAT	n/a	ARM	BAT	9	[0, 0, 0]	-999	PAL1	0	R1162N
1028.897	0.0	1767200	REC_START	n/a	n/a	5	-999	n/a	n/a	n/a	n/a	9	[0, 0, 0]	-999	PAL1	0	R1162N
1028.897	4.0	1767200	TEST_PROBE	n/a	wordpools/wordpool_EN.txt	5	1	BAT	n/a	ARM	BAT	9	[0, 0, 0]	-999	PAL1	0	R1162N
1033.912	0.002	1772215	REC_EVENT	5015.0	n/a	5	1	BAT	<>	ARM	BAT	9	[0, 0, 0]	-999	PAL1	0	R1162N
1033.914	0.017	1772217	REC_END	n/a	n/a	5	-999	n/a	n/a	n/a	n/a	9	[0, 0, 0]	-999	PAL1	0	R1162N
1033.931	0.275	1772234	TEST_ORIENT	n/a	n/a	2	2	WAVE	ROPE	ROPE	WAVE	9	[0, 0, 0]	-999	PAL1	0	R1162N
1034.914	4.0	1773217	TEST_PROBE	n/a	wordpools/wordpool_EN.txt	2	2	WAVE	ROPE	ROPE	WAVE	9	[0, 0, 0]	-999	PAL1	0	R1162N
1034.915	1.666	1773218	REC_START	n/a	n/a	2	-999	n/a	ROPE	n/a	n/a	9	[0, 0, 0]	-999	PAL1	0	R1162N
1036.581	3.342	1774884	REC_EVENT	1666.0	n/a	2	2	WAVE	ROPE	ROPE	WAVE	9	[0, 0, 0]	-999	PAL1	0	R1162N
1039.923	0.009	1778226	REC_END	n/a	n/a	2	-999	n/a	n/a	n/a	n/a	9	[0, 0, 0]	-999	PAL1	0	R1162N
1039.932	0.275	1778235	TEST_ORIENT	n/a	n/a	1	3	SHIRT	TENT	TENT	SHIRT	9	[0, 0, 0]	-999	PAL1	0	R1162N
1040.849	4.0	1779152	TEST_PROBE	n/a	wordpools/wordpool_EN.txt	1	3	SHIRT	TENT	TENT	SHIRT	9	[0, 0, 0]	-999	PAL1	0	R1162N
1040.849	2.488	1779152	REC_START	n/a	n/a	1	-999	n/a	TENT	n/a	n/a	9	[0, 0, 0]	-999	PAL1	0	R1162N
1043.337	2.529	1781640	REC_EVENT	2488.0	n/a	1	3	SHIRT	TENT	TENT	SHIRT	9	[0, 0, 0]	-999	PAL1	0	R1162N
1045.866	0.017	1784169	REC_END	n/a	n/a	1	-999	n/a	n/a	n/a	n/a	9	[0, 0, 0]	-999	PAL1	0	R1162N
1045.883	0.275	1784186	TEST_ORIENT	n/a	n/a	4	4	BUSH	n/a	PASTE	BUSH	9	[0, 0, 0]	-999	PAL1	0	R1162N
1046.733	4.0	1785035	TEST_PROBE	n/a	wordpools/wordpool_EN.txt	4	4	BUSH	n/a	PASTE	BUSH	9	[0, 0, 0]	-999	PAL1	0	R1162N
1046.733	5.015	1785035	REC_START	n/a	n/a	4	-999	n/a	n/a	n/a	n/a	9	[0, 0, 0]	-999	PAL1	0	R1162N
1051.748	0.002	1790050	REC_EVENT	5015.0	n/a	4	4	BUSH	<>	PASTE	BUSH	9	[0, 0, 0]	-999	PAL1	0	R1162N
1051.75	0.017	1790052	REC_END	n/a	n/a	4	-999	n/a	n/a	n/a	n/a	9	[0, 0, 0]	-999	PAL1	0	R1162N
1051.767	0.275	1790069	TEST_ORIENT	n/a	n/a	3	5	SHEEP	n/a	SMILE	SHEEP	9	[0, 0, 0]	-999	PAL1	0	R1162N
1052.684	4.0	1790986	TEST_PROBE	n/a	wordpools/wordpool_EN.txt	3	5	SHEEP	n/a	SMILE	SHEEP	9	[0, 0, 0]	-999	PAL1	0	R1162N
1052.684	5.015	1790986	REC_START	n/a	n/a	3	-999	n/a	n/a	n/a	n/a	9	[0, 0, 0]	-999	PAL1	0	R1162N
1057.699	0.002	1796001	REC_EVENT	5015.0	n/a	3	5	SHEEP	<>	SMILE	SHEEP	9	[0, 0, 0]	-999	PAL1	0	R1162N
1057.701	0.017	1796003	REC_END	n/a	n/a	3	-999	n/a	n/a	n/a	n/a	9	[0, 0, 0]	-999	PAL1	0	R1162N
1057.718	0.275	1796020	TEST_ORIENT	n/a	n/a	6	6	COUCH	GATE	GATE	COUCH	9	[0, 0, 0]	-999	PAL1	0	R1162N
1058.718	4.0	1797020	TEST_PROBE	n/a	wordpools/wordpool_EN.txt	6	6	COUCH	GATE	GATE	COUCH	9	[0, 0, 0]	-999	PAL1	0	R1162N
1058.719	4.178	1797021	REC_START	n/a	n/a	6	-999	n/a	GATE	n/a	n/a	9	[0, 0, 0]	-999	PAL1	0	R1162N
1062.897	0.83	1801199	REC_EVENT	4178.0	n/a	6	6	COUCH	GATE	GATE	COUCH	9	[0, 0, 0]	-999	PAL1	0	R1162N
1063.727	1.406	1802029	REC_END	n/a	n/a	6	-999	n/a	n/a	n/a	n/a	9	[0, 0, 0]	-999	PAL1	0	R1162N
1065.133	10.437	1803434	ENCODING_START	n/a	n/a	0	-999	n/a	n/a	n/a	n/a	10	[0, 0, 0]	-999	PAL1	0	R1162N
1075.57	0.275	1813871	STUDY_ORIENT	n/a	n/a	1	1	HEN	n/a	ANT	HEN	10	[0, 0, 0]	-999	PAL1	0	R1162N
1076.57	4.0	1814871	STUDY_PAIR	n/a	wordpools/wordpool_EN.txt	1	1	HEN	n/a	ANT	HEN	10	[0, 0, 0]	-999	PAL1	0	R1162N
1081.589	0.275	1819890	STUDY_ORIENT	n/a	n/a	2	4	VASE	BOOK	VASE	GUARD	10	[0, 0, 0]	-999	PAL1	0	R1162N
1082.521	4.0	1820822	STUDY_PAIR	n/a	wordpools/wordpool_EN.txt	2	4	VASE	BOOK	VASE	GUARD	10	[0, 0, 0]	-999	PAL1	0	R1162N
1087.539	0.275	1825839	STUDY_ORIENT	n/a	n/a	3	3	BOOK	RAIN	BOOK	RAIN	10	[0, 0, 0]	-999	PAL1	0	R1162N
1088.506	4.0	1826806	STUDY_PAIR	n/a	wordpools/wordpool_EN.txt	3	3	BOOK	RAIN	BOOK	RAIN	10	[0, 0, 0]	-999	PAL1	0	R1162N
1093.54	0.275	1831840	STUDY_ORIENT	n/a	n/a	4	6	PEAR	SHRIMP	PEAR	SHRIMP	10	[0, 0, 0]	-999	PAL1	0	R1162N
1094.44	4.0	1832740	STUDY_PAIR	n/a	wordpools/wordpool_EN.txt	4	6	PEAR	SHRIMP	PEAR	SHRIMP	10	[0, 0, 0]	-999	PAL1	0	R1162N
1099.474	0.275	1837774	STUDY_ORIENT	n/a	n/a	5	5	DOCK	HAT	DOCK	HAT	10	[0, 0, 0]	-999	PAL1	0	R1162N
1100.358	4.0	1838658	STUDY_PAIR	n/a	wordpools/wordpool_EN.txt	5	5	DOCK	HAT	DOCK	HAT	10	[0, 0, 0]	-999	PAL1	0	R1162N
1105.392	0.275	1843691	STUDY_ORIENT	n/a	n/a	6	2	STREET	n/a	STREET	BOWL	10	[0, 0, 0]	-999	PAL1	0	R1162N
1106.392	4.0	1844691	STUDY_PAIR	n/a	wordpools/wordpool_EN.txt	6	2	STREET	n/a	STREET	BOWL	10	[0, 0, 0]	-999	PAL1	0	R1162N
1110.41	0.999	1848709	START	n/a	n/a	-999	-999	n/a	n/a	n/a	n/a	10	[-999, -999, -999]	-999	PAL1	0	R1162N
1111.409	0.017	1849708	MATH_START	n/a	n/a	-999	-999	n/a	n/a	n/a	n/a	10	[0, 0, 0]	-999	PAL1	0	R1162N
1111.426	3.435	1849725	PROB	3403.0	n/a	-999	-999	n/a	n/a	n/a	n/a	10	[3, 2, 6]	11	PAL1	0	R1162N
1114.861	4.466	1853160	PROB	4439.0	n/a	-999	-999	n/a	n/a	n/a	n/a	10	[8, 5, 9]	22	PAL1	0	R1162N
1119.327	5.886	1857626	PROB	5862.0	n/a	-999	-999	n/a	n/a	n/a	n/a	10	[8, 7, 8]	23	PAL1	0	R1162N
1125.213	4.116	1863511	PROB	4095.0	n/a	-999	-999	n/a	n/a	n/a	n/a	10	[6, 8, 8]	22	PAL1	0	R1162N
1129.329	6.34	1867627	PROB	6340.0	n/a	-999	-999	n/a	n/a	n/a	n/a	10	[9, 3, 4]	16	PAL1	0	R1162N
1135.669	0.012	1873967	STOP	n/a	n/a	-999	-999	n/a	n/a	n/a	n/a	10	[-999, -999, -999]	-999	PAL1	0	R1162N
1135.681	0.0	1873979	MATH_END	n/a	n/a	-999	-999	n/a	n/a	n/a	n/a	10	[0, 0, 0]	-999	PAL1	0	R1162N
1135.681	0.017	1873979	TEST_START	n/a	n/a	-999	-999	n/a	n/a	n/a	n/a	10	[0, 0, 0]	-999	PAL1	0	R1162N
1135.698	0.275	1873996	TEST_ORIENT	n/a	n/a	1	1	HEN	n/a	ANT	HEN	10	[0, 0, 0]	-999	PAL1	0	R1162N
1136.715	4.0	1875013	TEST_PROBE	n/a	wordpools/wordpool_EN.txt	1	1	HEN	n/a	ANT	HEN	10	[0, 0, 0]	-999	PAL1	0	R1162N
1136.715	5.015	1875013	REC_START	n/a	n/a	1	-999	n/a	n/a	n/a	n/a	10	[0, 0, 0]	-999	PAL1	0	R1162N
1141.73	0.002	1880027	REC_EVENT	5015.0	n/a	1	1	HEN	<>	ANT	HEN	10	[0, 0, 0]	-999	PAL1	0	R1162N
1141.732	0.017	1880029	REC_END	n/a	n/a	1	-999	n/a	n/a	n/a	n/a	10	[0, 0, 0]	-999	PAL1	0	R1162N
1141.749	0.275	1880046	TEST_ORIENT	n/a	n/a	6	2	STREET	n/a	STREET	BOWL	10	[0, 0, 0]	-999	PAL1	0	R1162N
1142.599	4.0	1880896	TEST_PROBE	n/a	wordpools/wordpool_EN.txt	6	2	STREET	n/a	STREET	BOWL	10	[0, 0, 0]	-999	PAL1	0	R1162N
1142.6	5.015	1880897	REC_START	n/a	n/a	6	-999	n/a	n/a	n/a	n/a	10	[0, 0, 0]	-999	PAL1	0	R1162N
1147.615	0.001	1885912	REC_EVENT	5015.0	n/a	6	2	STREET	<>	STREET	BOWL	10	[0, 0, 0]	-999	PAL1	0	R1162N
1147.616	0.017	1885913	REC_END	n/a	n/a	6	-999	n/a	n/a	n/a	n/a	10	[0, 0, 0]	-999	PAL1	0	R1162N
1147.633	0.275	1885930	TEST_ORIENT	n/a	n/a	3	3	BOOK	RAIN	BOOK	RAIN	10	[0, 0, 0]	-999	PAL1	0	R1162N
1148.549	4.0	1886846	TEST_PROBE	n/a	wordpools/wordpool_EN.txt	3	3	BOOK	RAIN	BOOK	RAIN	10	[0, 0, 0]	-999	PAL1	0	R1162N
1148.549	1.524	1886846	REC_START	n/a	n/a	3	-999	n/a	RAIN	n/a	n/a	10	[0, 0, 0]	-999	PAL1	0	R1162N
1150.073	3.493	1888370	REC_EVENT	1524.0	n/a	3	3	BOOK	RAIN	BOOK	RAIN	10	[0, 0, 0]	-999	PAL1	0	R1162N
1153.566	0.018	1891863	REC_END	n/a	n/a	3	-999	n/a	n/a	n/a	n/a	10	[0, 0, 0]	-999	PAL1	0	R1162N
1153.584	0.275	1891881	TEST_ORIENT	n/a	n/a	2	4	VASE	BOOK	VASE	GUARD	10	[0, 0, 0]	-999	PAL1	0	R1162N
1154.45	4.0	1892747	TEST_PROBE	n/a	wordpools/wordpool_EN.txt	2	4	VASE	BOOK	VASE	GUARD	10	[0, 0, 0]	-999	PAL1	0	R1162N
1154.45	3.68	1892747	REC_START	n/a	n/a	2	-999	n/a	BOOK	n/a	n/a	10	[0, 0, 0]	-999	PAL1	0	R1162N
1158.13	1.338	1896427	REC_EVENT	3680.0	n/a	2	4	VASE	BOOK	VASE	GUARD	10	[0, 0, 0]	-999	PAL1	0	R1162N
1159.468	0.016	1897764	REC_END	n/a	n/a	2	-999	n/a	n/a	n/a	n/a	10	[0, 0, 0]	-999	PAL1	0	R1162N
1159.484	0.275	1897780	TEST_ORIENT	n/a	n/a	5	5	DOCK	HAT	DOCK	HAT	10	[0, 0, 0]	-999	PAL1	0	R1162N
1160.301	4.0	1898597	TEST_PROBE	n/a	wordpools/wordpool_EN.txt	5	5	DOCK	HAT	DOCK	HAT	10	[0, 0, 0]	-999	PAL1	0	R1162N
1160.302	1.472	1898598	REC_START	n/a	n/a	5	-999	n/a	HAT	n/a	n/a	10	[0, 0, 0]	-999	PAL1	0	R1162N
1161.774	3.544	1900070	REC_EVENT	1472.0	n/a	5	5	DOCK	HAT	DOCK	HAT	10	[0, 0, 0]	-999	PAL1	0	R1162N
1165.318	0.017	1903614	REC_END	n/a	n/a	5	-999	n/a	n/a	n/a	n/a	10	[0, 0, 0]	-999	PAL1	0	R1162N
1165.335	0.275	1903631	TEST_ORIENT	n/a	n/a	4	6	PEAR	SHRIMP	PEAR	SHRIMP	10	[0, 0, 0]	-999	PAL1	0	R1162N
1166.352	4.0	1904648	TEST_PROBE	n/a	wordpools/wordpool_EN.txt	4	6	PEAR	SHRIMP	PEAR	SHRIMP	10	[0, 0, 0]	-999	PAL1	0	R1162N
1166.353	1.344	1904649	REC_START	n/a	n/a	4	-999	n/a	SHRIMP	n/a	n/a	10	[0, 0, 0]	-999	PAL1	0	R1162N
1167.697	3.681	1905993	REC_EVENT	1344.0	n/a	4	6	PEAR	SHRIMP	PEAR	SHRIMP	10	[0, 0, 0]	-999	PAL1	0	R1162N
1171.378	1.715	1909674	REC_END	n/a	n/a	4	-999	n/a	n/a	n/a	n/a	10	[0, 0, 0]	-999	PAL1	0	R1162N
1173.093	10.445	1911389	ENCODING_START	n/a	n/a	0	-999	n/a	n/a	n/a	n/a	11	[0, 0, 0]	-999	PAL1	0	R1162N
1183.538	0.275	1921833	STUDY_ORIENT	n/a	n/a	1	3	EEL	SMOKE	EEL	SMOKE	11	[0, 0, 0]	-999	PAL1	0	R1162N
1184.389	4.0	1922684	STUDY_PAIR	n/a	wordpools/wordpool_EN.txt	1	3	EEL	SMOKE	EEL	SMOKE	11	[0, 0, 0]	-999	PAL1	0	R1162N
1189.423	0.275	1927718	STUDY_ORIENT	n/a	n/a	2	2	CALF	LAND	CALF	LAND	11	[0, 0, 0]	-999	PAL1	0	R1162N
1190.423	4.0	1928718	STUDY_PAIR	n/a	wordpools/wordpool_EN.txt	2	2	CALF	LAND	CALF	LAND	11	[0, 0, 0]	-999	PAL1	0	R1162N
1195.457	0.275	1933752	STUDY_ORIENT	n/a	n/a	3	5	BOY	SNOW	SNOW	BOY	11	[0, 0, 0]	-999	PAL1	0	R1162N
1196.225	4.0	1934520	STUDY_PAIR	n/a	wordpools/wordpool_EN.txt	3	5	BOY	SNOW	SNOW	BOY	11	[0, 0, 0]	-999	PAL1	0	R1162N
1201.259	0.275	1939553	STUDY_ORIENT	n/a	n/a	4	6	SEAL	n/a	SEAL	ROSE	11	[0, 0, 0]	-999	PAL1	0	R1162N
1202.042	4.0	1940336	STUDY_PAIR	n/a	wordpools/wordpool_EN.txt	4	6	SEAL	n/a	SEAL	ROSE	11	[0, 0, 0]	-999	PAL1	0	R1162N
1207.06	0.275	1945354	STUDY_ORIENT	n/a	n/a	5	1	BOMB	EGG	EGG	BOMB	11	[0, 0, 0]	-999	PAL1	0	R1162N
1207.943	4.0	1946237	STUDY_PAIR	n/a	wordpools/wordpool_EN.txt	5	1	BOMB	EGG	EGG	BOMB	11	[0, 0, 0]	-999	PAL1	0	R1162N
1212.961	0.275	1951255	STUDY_ORIENT	n/a	n/a	6	4	LEAF	n/a	SKY	LEAF	11	[0, 0, 0]	-999	PAL1	0	R1162N
1213.861	4.0	1952155	STUDY_PAIR	n/a	wordpools/wordpool_EN.txt	6	4	LEAF	n/a	SKY	LEAF	11	[0, 0, 0]	-999	PAL1	0	R1162N
1217.862	1.0	1956155	START	n/a	n/a	-999	-999	n/a	n/a	n/a	n/a	11	[-999, -999, -999]	-999	PAL1	0	R1162N
1218.862	0.017	1957155	MATH_START	n/a	n/a	-999	-999	n/a	n/a	n/a	n/a	11	[0, 0, 0]	-999	PAL1	0	R1162N
1218.879	2.917	1957172	PROB	2894.0	n/a	-999	-999	n/a	n/a	n/a	n/a	11	[8, 4, 8]	20	PAL1	0	R1162N
1221.796	2.467	1960089	PROB	2441.0	n/a	-999	-999	n/a	n/a	n/a	n/a	11	[3, 1, 8]	12	PAL1	0	R1162N
1224.263	4.567	1962556	PROB	4534.0	n/a	-999	-999	n/a	n/a	n/a	n/a	11	[5, 8, 9]	22	PAL1	0	R1162N
1228.83	2.834	1967123	PROB	2807.0	n/a	-999	-999	n/a	n/a	n/a	n/a	11	[2, 8, 7]	17	PAL1	0	R1162N
1231.664	2.683	1969957	PROB	2660.0	n/a	-999	-999	n/a	n/a	n/a	n/a	11	[5, 9, 9]	23	PAL1	0	R1162N
1234.347	2.802	1972639	PROB	2778.0	n/a	-999	-999	n/a	n/a	n/a	n/a	11	[6, 1, 1]	8	PAL1	0	R1162N
1237.149	3.808	1975441	PROB	3808.0	n/a	-999	-999	n/a	n/a	n/a	n/a	11	[3, 9, 6]	18	PAL1	0	R1162N
1240.957	0.009	1979249	STOP	n/a	n/a	-999	-999	n/a	n/a	n/a	n/a	11	[-999, -999, -999]	-999	PAL1	0	R1162N
1240.966	0.0	1979258	TEST_START	n/a	n/a	-999	-999	n/a	n/a	n/a	n/a	11	[0, 0, 0]	-999	PAL1	0	R1162N
1240.966	0.016	1979258	MATH_END	n/a	n/a	-999	-999	n/a	n/a	n/a	n/a	11	[0, 0, 0]	-999	PAL1	0	R1162N
1240.982	0.275	1979274	TEST_ORIENT	n/a	n/a	5	1	BOMB	EGG	EGG	BOMB	11	[0, 0, 0]	-999	PAL1	0	R1162N
1242.016	4.0	1980308	TEST_PROBE	n/a	wordpools/wordpool_EN.txt	5	1	BOMB	EGG	EGG	BOMB	11	[0, 0, 0]	-999	PAL1	0	R1162N
1242.016	1.031	1980308	REC_START	n/a	n/a	5	-999	n/a	EGG	n/a	n/a	11	[0, 0, 0]	-999	PAL1	0	R1162N
1243.047	3.986	1981339	REC_EVENT	1031.0	n/a	5	1	BOMB	EGG	EGG	BOMB	11	[0, 0, 0]	-999	PAL1	0	R1162N
1247.033	0.017	1985325	REC_END	n/a	n/a	5	-999	n/a	n/a	n/a	n/a	11	[0, 0, 0]	-999	PAL1	0	R1162N
1247.05	0.275	1985342	TEST_ORIENT	n/a	n/a	2	2	CALF	LAND	CALF	LAND	11	[0, 0, 0]	-999	PAL1	0	R1162N
1247.85	4.0	1986142	TEST_PROBE	n/a	wordpools/wordpool_EN.txt	2	2	CALF	LAND	CALF	LAND	11	[0, 0, 0]	-999	PAL1	0	R1162N
1247.851	2.195	1986143	REC_START	n/a	n/a	2	-999	n/a	LAND	n/a	n/a	11	[0, 0, 0]	-999	PAL1	0	R1162N
1250.046	2.821	1988338	REC_EVENT	2195.0	n/a	2	2	CALF	LAND	CALF	LAND	11	[0, 0, 0]	-999	PAL1	0	R1162N
1252.867	0.017	1991158	REC_END	n/a	n/a	2	-999	n/a	n/a	n/a	n/a	11	[0, 0, 0]	-999	PAL1	0	R1162N
1252.884	0.275	1991175	TEST_ORIENT	n/a	n/a	1	3	EEL	SMOKE	EEL	SMOKE	11	[0, 0, 0]	-999	PAL1	0	R1162N
1253.701	4.0	1991992	TEST_PROBE	n/a	wordpools/wordpool_EN.txt	1	3	EEL	SMOKE	EEL	SMOKE	11	[0, 0, 0]	-999	PAL1	0	R1162N
1253.702	1.012	1991993	REC_START	n/a	n/a	1	-999	n/a	SMOKE	n/a	n/a	11	[0, 0, 0]	-999	PAL1	0	R1162N
1254.714	3.999	1993005	REC_EVENT	1012.0	n/a	1	3	EEL	SMOKE	EEL	SMOKE	11	[0, 0, 0]	-999	PAL1	0	R1162N
1258.713	0.022	1997004	REC_END	n/a	n/a	1	-999	n/a	n/a	n/a	n/a	11	[0, 0, 0]	-999	PAL1	0	R1162N
1258.735	0.275	1997026	TEST_ORIENT	n/a	n/a	6	4	LEAF	n/a	SKY	LEAF	11	[0, 0, 0]	-999	PAL1	0	R1162N
1259.719	4.0	1998010	TEST_PROBE	n/a	wordpools/wordpool_EN.txt	6	4	LEAF	n/a	SKY	LEAF	11	[0, 0, 0]	-999	PAL1	0	R1162N
1259.72	5.024	1998011	REC_START	n/a	n/a	6	-999	n/a	n/a	n/a	n/a	11	[0, 0, 0]	-999	PAL1	0	R1162N
1264.744	0.003	2003035	REC_END	n/a	n/a	6	-999	n/a	n/a	n/a	n/a	11	[0, 0, 0]	-999	PAL1	0	R1162N
1264.747	0.006	2003038	REC_EVENT	5027.0	n/a	6	4	LEAF	<>	SKY	LEAF	11	[0, 0, 0]	-999	PAL1	0	R1162N
1264.753	0.275	2003044	TEST_ORIENT	n/a	n/a	3	5	BOY	SNOW	SNOW	BOY	11	[0, 0, 0]	-999	PAL1	0	R1162N
1265.637	4.0	2003928	TEST_PROBE	n/a	wordpools/wordpool_EN.txt	3	5	BOY	SNOW	SNOW	BOY	11	[0, 0, 0]	-999	PAL1	0	R1162N
1265.637	1.055	2003928	REC_START	n/a	n/a	3	-999	n/a	SNOW	n/a	n/a	11	[0, 0, 0]	-999	PAL1	0	R1162N
1266.692	3.962	2004983	REC_EVENT	1055.0	n/a	3	5	BOY	SNOW	SNOW	BOY	11	[0, 0, 0]	-999	PAL1	0	R1162N
1270.654	0.017	2008945	REC_END	n/a	n/a	3	-999	n/a	n/a	n/a	n/a	11	[0, 0, 0]	-999	PAL1	0	R1162N
1270.671	0.275	2008962	TEST_ORIENT	n/a	n/a	4	6	SEAL	n/a	SEAL	ROSE	11	[0, 0, 0]	-999	PAL1	0	R1162N
1271.604	4.0	2009894	TEST_PROBE	n/a	wordpools/wordpool_EN.txt	4	6	SEAL	n/a	SEAL	ROSE	11	[0, 0, 0]	-999	PAL1	0	R1162N
1271.605	5.008	2009895	REC_START	n/a	n/a	4	-999	n/a	n/a	n/a	n/a	11	[0, 0, 0]	-999	PAL1	0	R1162N
1276.613	0.001	2014903	REC_END	n/a	n/a	4	-999	n/a	n/a	n/a	n/a	11	[0, 0, 0]	-999	PAL1	0	R1162N
1276.614	1.279	2014904	REC_EVENT	5009.0	n/a	4	6	SEAL	<>	SEAL	ROSE	11	[0, 0, 0]	-999	PAL1	0	R1162N
1277.893	10.446	2016183	ENCODING_START	n/a	n/a	0	-999	n/a	n/a	n/a	n/a	12	[0, 0, 0]	-999	PAL1	0	R1162N
1288.339	0.275	2026629	STUDY_ORIENT	n/a	n/a	1	5	DART	n/a	WORLD	DART	12	[0, 0, 0]	-999	PAL1	0	R1162N
1289.323	4.0	2027613	STUDY_PAIR	n/a	wordpools/wordpool_EN.txt	1	5	DART	n/a	WORLD	DART	12	[0, 0, 0]	-999	PAL1	0	R1162N
1294.357	0.275	2032646	STUDY_ORIENT	n/a	n/a	2	2	FLOOR	TOE	FLOOR	TOE	12	[0, 0, 0]	-999	PAL1	0	R1162N
1295.357	4.0	2033646	STUDY_PAIR	n/a	wordpools/wordpool_EN.txt	2	2	FLOOR	TOE	FLOOR	TOE	12	[0, 0, 0]	-999	PAL1	0	R1162N
1300.375	0.275	2038664	STUDY_ORIENT	n/a	n/a	3	1	SUIT	n/a	TEETH	SUIT	12	[0, 0, 0]	-999	PAL1	0	R1162N
1301.276	4.0	2039565	STUDY_PAIR	n/a	wordpools/wordpool_EN.txt	3	1	SUIT	n/a	TEETH	SUIT	12	[0, 0, 0]	-999	PAL1	0	R1162N
1306.309	0.275	2044598	STUDY_ORIENT	n/a	n/a	4	4	WING	SPEAR	WING	SPEAR	12	[0, 0, 0]	-999	PAL1	0	R1162N
1307.26	4.0	2045549	STUDY_PAIR	n/a	wordpools/wordpool_EN.txt	4	4	WING	SPEAR	WING	SPEAR	12	[0, 0, 0]	-999	PAL1	0	R1162N
1312.278	0.275	2050566	STUDY_ORIENT	n/a	n/a	5	3	STICK	CALF	CRANE	STICK	12	[0, 0, 0]	-999	PAL1	0	R1162N
1313.145	4.0	2051433	STUDY_PAIR	n/a	wordpools/wordpool_EN.txt	5	3	STICK	CALF	CRANE	STICK	12	[0, 0, 0]	-999	PAL1	0	R1162N
1318.179	0.275	2056467	STUDY_ORIENT	n/a	n/a	6	6	VAN	DIME	VAN	DIME	12	[0, 0, 0]	-999	PAL1	0	R1162N
1319.029	4.0	2057317	STUDY_PAIR	n/a	wordpools/wordpool_EN.txt	6	6	VAN	DIME	VAN	DIME	12	[0, 0, 0]	-999	PAL1	0	R1162N
1323.047	0.999	2061335	START	n/a	n/a	-999	-999	n/a	n/a	n/a	n/a	12	[-999, -999, -999]	-999	PAL1	0	R1162N
1324.046	0.017	2062334	MATH_START	n/a	n/a	-999	-999	n/a	n/a	n/a	n/a	12	[0, 0, 0]	-999	PAL1	0	R1162N
1324.063	3.751	2062351	PROB	3726.0	n/a	-999	-999	n/a	n/a	n/a	n/a	12	[9, 4, 2]	15	PAL1	0	R1162N
1327.814	4.251	2066102	PROB	4223.0	n/a	-999	-999	n/a	n/a	n/a	n/a	12	[4, 9, 5]	18	PAL1	0	R1162N
1332.065	2.583	2070352	PROB	2556.0	n/a	-999	-999	n/a	n/a	n/a	n/a	12	[3, 7, 3]	15	PAL1	0	R1162N
1334.648	4.451	2072935	PROB	4429.0	n/a	-999	-999	n/a	n/a	n/a	n/a	12	[3, 9, 1]	13	PAL1	0	R1162N
1339.099	3.283	2077386	PROB	3249.0	n/a	-999	-999	n/a	n/a	n/a	n/a	12	[2, 9, 4]	15	PAL1	0	R1162N
1342.382	2.623	2080669	PROB	2623.0	n/a	-999	-999	n/a	n/a	n/a	n/a	12	[1, 6, 4]	11	PAL1	0	R1162N
1345.005	0.012	2083292	STOP	n/a	n/a	-999	-999	n/a	n/a	n/a	n/a	12	[-999, -999, -999]	-999	PAL1	0	R1162N
1345.017	0.0	2083304	TEST_START	n/a	n/a	-999	-999	n/a	n/a	n/a	n/a	12	[0, 0, 0]	-999	PAL1	0	R1162N
1345.017	0.016	2083304	MATH_END	n/a	n/a	-999	-999	n/a	n/a	n/a	n/a	12	[0, 0, 0]	-999	PAL1	0	R1162N
1345.033	0.275	2083320	TEST_ORIENT	n/a	n/a	3	1	SUIT	n/a	TEETH	SUIT	12	[0, 0, 0]	-999	PAL1	0	R1162N
1346.05	4.0	2084337	TEST_PROBE	n/a	wordpools/wordpool_EN.txt	3	1	SUIT	n/a	TEETH	SUIT	12	[0, 0, 0]	-999	PAL1	0	R1162N
1346.051	4.998	2084338	REC_START	n/a	n/a	3	-999	n/a	n/a	n/a	n/a	12	[0, 0, 0]	-999	PAL1	0	R1162N
1351.049	0.002	2089335	REC_EVENT	4998.0	n/a	3	1	SUIT	<>	TEETH	SUIT	12	[0, 0, 0]	-999	PAL1	0	R1162N
1351.051	0.017	2089337	REC_END	n/a	n/a	3	-999	n/a	n/a	n/a	n/a	12	[0, 0, 0]	-999	PAL1	0	R1162N
1351.068	0.275	2089354	TEST_ORIENT	n/a	n/a	2	2	FLOOR	TOE	FLOOR	TOE	12	[0, 0, 0]	-999	PAL1	0	R1162N
1352.035	4.0	2090321	TEST_PROBE	n/a	wordpools/wordpool_EN.txt	2	2	FLOOR	TOE	FLOOR	TOE	12	[0, 0, 0]	-999	PAL1	0	R1162N
1352.035	3.432	2090321	REC_START	n/a	n/a	2	-999	n/a	TOE	n/a	n/a	12	[0, 0, 0]	-999	PAL1	0	R1162N
1355.467	1.585	2093753	REC_EVENT	3432.0	n/a	2	2	FLOOR	TOE	FLOOR	TOE	12	[0, 0, 0]	-999	PAL1	0	R1162N
1357.052	0.017	2095338	REC_END	n/a	n/a	2	-999	n/a	n/a	n/a	n/a	12	[0, 0, 0]	-999	PAL1	0	R1162N
1357.069	0.275	2095355	TEST_ORIENT	n/a	n/a	5	3	STICK	CALF	CRANE	STICK	12	[0, 0, 0]	-999	PAL1	0	R1162N
1357.902	4.0	2096188	TEST_PROBE	n/a	wordpools/wordpool_EN.txt	5	3	STICK	CALF	CRANE	STICK	12	[0, 0, 0]	-999	PAL1	0	R1162N
1357.903	2.313	2096189	REC_START	n/a	n/a	5	-999	n/a	CALF	n/a	n/a	12	[0, 0, 0]	-999	PAL1	0	R1162N
1360.216	2.687	2098502	REC_EVENT	2313.0	n/a	5	3	STICK	CALF	CRANE	STICK	12	[0, 0, 0]	-999	PAL1	0	R1162N
1362.903	0.017	2101189	REC_END	n/a	n/a	5	-999	n/a	n/a	n/a	n/a	12	[0, 0, 0]	-999	PAL1	0	R1162N
1362.92	0.275	2101206	TEST_ORIENT	n/a	n/a	4	4	WING	SPEAR	WING	SPEAR	12	[0, 0, 0]	-999	PAL1	0	R1162N
1363.787	0.0	2102073	REC_START	n/a	n/a	4	-999	n/a	SPEAR	n/a	n/a	12	[0, 0, 0]	-999	PAL1	0	R1162N
1363.787	4.0	2102073	TEST_PROBE	n/a	wordpools/wordpool_EN.txt	4	4	WING	SPEAR	WING	SPEAR	12	[0, 0, 0]	-999	PAL1	0	R1162N
1364.921	3.883	2103207	REC_EVENT	1134.0	n/a	4	4	WING	SPEAR	WING	SPEAR	12	[0, 0, 0]	-999	PAL1	0	R1162N
1368.804	0.017	2107089	REC_END	n/a	n/a	4	-999	n/a	n/a	n/a	n/a	12	[0, 0, 0]	-999	PAL1	0	R1162N
1368.821	0.275	2107106	TEST_ORIENT	n/a	n/a	1	5	DART	n/a	WORLD	DART	12	[0, 0, 0]	-999	PAL1	0	R1162N
1369.754	4.0	2108039	TEST_PROBE	n/a	wordpools/wordpool_EN.txt	1	5	DART	n/a	WORLD	DART	12	[0, 0, 0]	-999	PAL1	0	R1162N
1369.755	5.008	2108040	REC_START	n/a	n/a	1	-999	n/a	n/a	n/a	n/a	12	[0, 0, 0]	-999	PAL1	0	R1162N
1374.763	0.001	2113048	REC_END	n/a	n/a	1	-999	n/a	n/a	n/a	n/a	12	[0, 0, 0]	-999	PAL1	0	R1162N
1374.764	0.008	2113049	REC_EVENT	5009.0	n/a	1	5	DART	<>	WORLD	DART	12	[0, 0, 0]	-999	PAL1	0	R1162N
1374.772	0.275	2113057	TEST_ORIENT	n/a	n/a	6	6	VAN	DIME	VAN	DIME	12	[0, 0, 0]	-999	PAL1	0	R1162N
1375.605	4.0	2113890	TEST_PROBE	n/a	wordpools/wordpool_EN.txt	6	6	VAN	DIME	VAN	DIME	12	[0, 0, 0]	-999	PAL1	0	R1162N
1375.606	1.603	2113891	REC_START	n/a	n/a	6	-999	n/a	DIME	n/a	n/a	12	[0, 0, 0]	-999	PAL1	0	R1162N
1377.209	3.397	2115494	REC_EVENT	1603.0	n/a	6	6	VAN	DIME	VAN	DIME	12	[0, 0, 0]	-999	PAL1	0	R1162N
1380.606	1.319	2118891	REC_END	n/a	n/a	6	-999	n/a	n/a	n/a	n/a	12	[0, 0, 0]	-999	PAL1	0	R1162N
1381.925	10.449	2120210	ENCODING_START	n/a	n/a	0	-999	n/a	n/a	n/a	n/a	13	[0, 0, 0]	-999	PAL1	0	R1162N
1392.374	0.275	2130658	STUDY_ORIENT	n/a	n/a	1	3	CASH	JUDGE	CASH	JUDGE	13	[0, 0, 0]	-999	PAL1	0	R1162N
1393.291	4.0	2131575	STUDY_PAIR	n/a	wordpools/wordpool_EN.txt	1	3	CASH	JUDGE	CASH	JUDGE	13	[0, 0, 0]	-999	PAL1	0	R1162N
1398.291	0.275	2136575	STUDY_ORIENT	n/a	n/a	2	2	CHALK	SCHOOL	CHALK	SCHOOL	13	[0, 0, 0]	-999	PAL1	0	R1162N
1399.308	4.0	2137592	STUDY_PAIR	n/a	wordpools/wordpool_EN.txt	2	2	CHALK	SCHOOL	CHALK	SCHOOL	13	[0, 0, 0]	-999	PAL1	0	R1162N
1404.326	0.275	2142609	STUDY_ORIENT	n/a	n/a	3	5	GLASS	n/a	GLASS	MAT	13	[0, 0, 0]	-999	PAL1	0	R1162N
1405.244	4.0	2143527	STUDY_PAIR	n/a	wordpools/wordpool_EN.txt	3	5	GLASS	n/a	GLASS	MAT	13	[0, 0, 0]	-999	PAL1	0	R1162N
1410.278	0.275	2148561	STUDY_ORIENT	n/a	n/a	4	4	GRASS	WEED	WEED	GRASS	13	[0, 0, 0]	-999	PAL1	0	R1162N
1411.161	4.0	2149444	STUDY_PAIR	n/a	wordpools/wordpool_EN.txt	4	4	GRASS	WEED	WEED	GRASS	13	[0, 0, 0]	-999	PAL1	0	R1162N
1416.179	0.275	2154462	STUDY_ORIENT	n/a	n/a	5	1	CAPE	JAIL	CAPE	JAIL	13	[0, 0, 0]	-999	PAL1	0	R1162N
1417.179	4.0	2155462	STUDY_PAIR	n/a	wordpools/wordpool_EN.txt	5	1	CAPE	JAIL	CAPE	JAIL	13	[0, 0, 0]	-999	PAL1	0	R1162N
1422.213	0.275	2160495	STUDY_ORIENT	n/a	n/a	6	6	FISH	n/a	FISH	BOOT	13	[0, 0, 0]	-999	PAL1	0	R1162N
1423.18	4.0	2161462	STUDY_PAIR	n/a	wordpools/wordpool_EN.txt	6	6	FISH	n/a	FISH	BOOT	13	[0, 0, 0]	-999	PAL1	0	R1162N
1427.198	0.999	2165480	START	n/a	n/a	-999	-999	n/a	n/a	n/a	n/a	13	[-999, -999, -999]	-999	PAL1	0	R1162N
1428.197	0.017	2166479	MATH_START	n/a	n/a	-999	-999	n/a	n/a	n/a	n/a	13	[0, 0, 0]	-999	PAL1	0	R1162N
1428.214	5.834	2166496	PROB	5815.0	n/a	-999	-999	n/a	n/a	n/a	n/a	13	[5, 9, 6]	20	PAL1	0	R1162N
1434.048	2.951	2172330	PROB	2925.0	n/a	-999	-999	n/a	n/a	n/a	n/a	13	[5, 8, 6]	19	PAL1	0	R1162N
1436.999	2.8	2175281	PROB	2774.0	n/a	-999	-999	n/a	n/a	n/a	n/a	13	[5, 1, 2]	8	PAL1	0	R1162N
1439.799	2.001	2178081	PROB	1982.0	n/a	-999	-999	n/a	n/a	n/a	n/a	13	[1, 4, 3]	8	PAL1	0	R1162N
1441.8	2.683	2180081	PROB	2652.0	n/a	-999	-999	n/a	n/a	n/a	n/a	13	[6, 6, 6]	18	PAL1	0	R1162N
1444.483	3.738	2182764	PROB	3738.0	n/a	-999	-999	n/a	n/a	n/a	n/a	13	[3, 8, 5]	16	PAL1	0	R1162N
1448.221	0.013	2186502	STOP	n/a	n/a	-999	-999	n/a	n/a	n/a	n/a	13	[-999, -999, -999]	-999	PAL1	0	R1162N
1448.234	0.0	2186515	TEST_START	n/a	n/a	-999	-999	n/a	n/a	n/a	n/a	13	[0, 0, 0]	-999	PAL1	0	R1162N
1448.234	0.017	2186515	MATH_END	n/a	n/a	-999	-999	n/a	n/a	n/a	n/a	13	[0, 0, 0]	-999	PAL1	0	R1162N
1448.251	0.275	2186532	TEST_ORIENT	n/a	n/a	5	1	CAPE	JAIL	CAPE	JAIL	13	[0, 0, 0]	-999	PAL1	0	R1162N
1449.134	4.0	2187415	TEST_PROBE	n/a	wordpools/wordpool_EN.txt	5	1	CAPE	JAIL	CAPE	JAIL	13	[0, 0, 0]	-999	PAL1	0	R1162N
1449.135	1.831	2187416	REC_START	n/a	n/a	5	-999	n/a	JAIL	n/a	n/a	13	[0, 0, 0]	-999	PAL1	0	R1162N
1450.966	3.177	2189247	REC_EVENT	1831.0	n/a	5	1	CAPE	JAIL	CAPE	JAIL	13	[0, 0, 0]	-999	PAL1	0	R1162N
1454.143	0.009	2192424	REC_END	n/a	n/a	5	-999	n/a	n/a	n/a	n/a	13	[0, 0, 0]	-999	PAL1	0	R1162N
1454.152	0.275	2192433	TEST_ORIENT	n/a	n/a	2	2	CHALK	SCHOOL	CHALK	SCHOOL	13	[0, 0, 0]	-999	PAL1	0	R1162N
1454.969	0.0	2193250	REC_START	n/a	n/a	2	-999	n/a	SCHOOL	n/a	n/a	13	[0, 0, 0]	-999	PAL1	0	R1162N
1454.969	4.0	2193250	TEST_PROBE	n/a	wordpools/wordpool_EN.txt	2	2	CHALK	SCHOOL	CHALK	SCHOOL	13	[0, 0, 0]	-999	PAL1	0	R1162N
1455.919	4.067	2194200	REC_EVENT	950.0	n/a	2	2	CHALK	SCHOOL	CHALK	SCHOOL	13	[0, 0, 0]	-999	PAL1	0	R1162N
1459.986	0.017	2198266	REC_END	n/a	n/a	2	-999	n/a	n/a	n/a	n/a	13	[0, 0, 0]	-999	PAL1	0	R1162N
1460.003	0.275	2198283	TEST_ORIENT	n/a	n/a	1	3	CASH	JUDGE	CASH	JUDGE	13	[0, 0, 0]	-999	PAL1	0	R1162N
1461.003	4.0	2199283	TEST_PROBE	n/a	wordpools/wordpool_EN.txt	1	3	CASH	JUDGE	CASH	JUDGE	13	[0, 0, 0]	-999	PAL1	0	R1162N
1461.004	0.998	2199284	REC_START	n/a	n/a	1	-999	n/a	JUDGE	n/a	n/a	13	[0, 0, 0]	-999	PAL1	0	R1162N
1462.002	4.026	2200282	REC_EVENT	998.0	n/a	1	3	CASH	JUDGE	CASH	JUDGE	13	[0, 0, 0]	-999	PAL1	0	R1162N
1466.028	0.009	2204308	REC_END	n/a	n/a	1	-999	n/a	n/a	n/a	n/a	13	[0, 0, 0]	-999	PAL1	0	R1162N
1466.037	0.275	2204317	TEST_ORIENT	n/a	n/a	4	4	GRASS	WEED	WEED	GRASS	13	[0, 0, 0]	-999	PAL1	0	R1162N
1466.937	4.0	2205217	TEST_PROBE	n/a	wordpools/wordpool_EN.txt	4	4	GRASS	WEED	WEED	GRASS	13	[0, 0, 0]	-999	PAL1	0	R1162N
1466.938	1.005	2205218	REC_START	n/a	n/a	4	-999	n/a	WEED	n/a	n/a	13	[0, 0, 0]	-999	PAL1	0	R1162N
1467.943	3.995	2206223	REC_EVENT	1005.0	n/a	4	4	GRASS	WEED	WEED	GRASS	13	[0, 0, 0]	-999	PAL1	0	R1162N
1471.938	0.017	2210218	REC_END	n/a	n/a	4	-999	n/a	n/a	n/a	n/a	13	[0, 0, 0]	-999	PAL1	0	R1162N
1471.955	0.275	2210235	TEST_ORIENT	n/a	n/a	3	5	GLASS	n/a	GLASS	MAT	13	[0, 0, 0]	-999	PAL1	0	R1162N
1472.838	4.0	2211118	TEST_PROBE	n/a	wordpools/wordpool_EN.txt	3	5	GLASS	n/a	GLASS	MAT	13	[0, 0, 0]	-999	PAL1	0	R1162N
1472.839	5.008	2211119	REC_START	n/a	n/a	3	-999	n/a	n/a	n/a	n/a	13	[0, 0, 0]	-999	PAL1	0	R1162N
1477.847	0.001	2216127	REC_END	n/a	n/a	3	-999	n/a	n/a	n/a	n/a	13	[0, 0, 0]	-999	PAL1	0	R1162N
1477.848	0.008	2216128	REC_EVENT	5009.0	n/a	3	5	GLASS	<>	GLASS	MAT	13	[0, 0, 0]	-999	PAL1	0	R1162N
1477.856	0.275	2216136	TEST_ORIENT	n/a	n/a	6	6	FISH	n/a	FISH	BOOT	13	[0, 0, 0]	-999	PAL1	0	R1162N
1478.689	4.0	2216968	TEST_PROBE	n/a	wordpools/wordpool_EN.txt	6	6	FISH	n/a	FISH	BOOT	13	[0, 0, 0]	-999	PAL1	0	R1162N
1478.69	5.008	2216969	REC_START	n/a	n/a	6	-999	n/a	n/a	n/a	n/a	13	[0, 0, 0]	-999	PAL1	0	R1162N
1483.698	0.001	2221977	REC_END	n/a	n/a	6	-999	n/a	n/a	n/a	n/a	13	[0, 0, 0]	-999	PAL1	0	R1162N
1483.699	1.258	2221978	REC_EVENT	5009.0	n/a	6	6	FISH	<>	FISH	BOOT	13	[0, 0, 0]	-999	PAL1	0	R1162N
1484.957	10.451	2223236	ENCODING_START	n/a	n/a	0	-999	n/a	n/a	n/a	n/a	14	[0, 0, 0]	-999	PAL1	0	R1162N
1495.408	0.275	2233687	STUDY_ORIENT	n/a	n/a	1	5	OAR	CORD	STRAW	OAR	14	[0, 0, 0]	-999	PAL1	0	R1162N
1496.209	4.0	2234488	STUDY_PAIR	n/a	wordpools/wordpool_EN.txt	1	5	OAR	CORD	STRAW	OAR	14	[0, 0, 0]	-999	PAL1	0	R1162N
1501.243	0.275	2239521	STUDY_ORIENT	n/a	n/a	2	4	PRINCE	SKI	PRINCE	SKI	14	[0, 0, 0]	-999	PAL1	0	R1162N
1502.06	4.0	2240338	STUDY_PAIR	n/a	wordpools/wordpool_EN.txt	2	4	PRINCE	SKI	PRINCE	SKI	14	[0, 0, 0]	-999	PAL1	0	R1162N
1507.094	0.275	2245372	STUDY_ORIENT	n/a	n/a	3	3	BEAN	STICK	BEAN	RIB	14	[0, 0, 0]	-999	PAL1	0	R1162N
1507.928	4.0	2246206	STUDY_PAIR	n/a	wordpools/wordpool_EN.txt	3	3	BEAN	STICK	BEAN	RIB	14	[0, 0, 0]	-999	PAL1	0	R1162N
1512.962	0.275	2251240	STUDY_ORIENT	n/a	n/a	4	6	BRUSH	n/a	PLANT	BRUSH	14	[0, 0, 0]	-999	PAL1	0	R1162N
1513.745	4.0	2252023	STUDY_PAIR	n/a	wordpools/wordpool_EN.txt	4	6	BRUSH	n/a	PLANT	BRUSH	14	[0, 0, 0]	-999	PAL1	0	R1162N
1518.763	0.275	2257040	STUDY_ORIENT	n/a	n/a	5	1	THREAD	POND	THREAD	PARK	14	[0, 0, 0]	-999	PAL1	0	R1162N
1519.746	4.0	2258023	STUDY_PAIR	n/a	wordpools/wordpool_EN.txt	5	1	THREAD	POND	THREAD	PARK	14	[0, 0, 0]	-999	PAL1	0	R1162N
1524.764	0.275	2263041	STUDY_ORIENT	n/a	n/a	6	2	POND	n/a	POND	BRANCH	14	[0, 0, 0]	-999	PAL1	0	R1162N
1525.597	4.0	2263874	STUDY_PAIR	n/a	wordpools/wordpool_EN.txt	6	2	POND	n/a	POND	BRANCH	14	[0, 0, 0]	-999	PAL1	0	R1162N
1529.598	1.0	2267875	START	n/a	n/a	-999	-999	n/a	n/a	n/a	n/a	14	[-999, -999, -999]	-999	PAL1	0	R1162N
1530.598	0.017	2268875	MATH_START	n/a	n/a	-999	-999	n/a	n/a	n/a	n/a	14	[0, 0, 0]	-999	PAL1	0	R1162N
1530.615	3.484	2268892	PROB	3462.0	n/a	-999	-999	n/a	n/a	n/a	n/a	14	[6, 6, 3]	15	PAL1	0	R1162N
1534.099	4.767	2272376	PROB	4746.0	n/a	-999	-999	n/a	n/a	n/a	n/a	14	[8, 7, 5]	20	PAL1	0	R1162N
1538.866	3.967	2277142	PROB	3939.0	n/a	-999	-999	n/a	n/a	n/a	n/a	14	[8, 1, 6]	15	PAL1	0	R1162N
1542.833	2.868	2281109	PROB	2836.0	n/a	-999	-999	n/a	n/a	n/a	n/a	14	[7, 8, 3]	18	PAL1	0	R1162N
1545.701	3.25	2283977	PROB	3216.0	n/a	-999	-999	n/a	n/a	n/a	n/a	14	[6, 1, 7]	14	PAL1	0	R1162N
1548.951	2.581	2287227	PROB	2581.0	n/a	-999	-999	n/a	n/a	n/a	n/a	14	[6, 4, 5]	15	PAL1	0	R1162N
1551.532	0.002	2289808	STOP	n/a	n/a	-999	-999	n/a	n/a	n/a	n/a	14	[-999, -999, -999]	-999	PAL1	0	R1162N
1551.534	0.0	2289810	MATH_END	n/a	n/a	-999	-999	n/a	n/a	n/a	n/a	14	[0, 0, 0]	-999	PAL1	0	R1162N
1551.534	0.017	2289810	TEST_START	n/a	n/a	-999	-999	n/a	n/a	n/a	n/a	14	[0, 0, 0]	-999	PAL1	0	R1162N
1551.551	0.275	2289827	TEST_ORIENT	n/a	n/a	5	1	THREAD	POND	THREAD	PARK	14	[0, 0, 0]	-999	PAL1	0	R1162N
1552.417	4.0	2290693	TEST_PROBE	n/a	wordpools/wordpool_EN.txt	5	1	THREAD	POND	THREAD	PARK	14	[0, 0, 0]	-999	PAL1	0	R1162N
1552.418	2.758	2290694	REC_START	n/a	n/a	5	-999	n/a	POND	n/a	n/a	14	[0, 0, 0]	-999	PAL1	0	R1162N
1555.176	2.242	2293451	REC_EVENT	2758.0	n/a	5	1	THREAD	POND	THREAD	PARK	14	[0, 0, 0]	-999	PAL1	0	R1162N
1557.418	0.017	2295693	REC_END	n/a	n/a	5	-999	n/a	n/a	n/a	n/a	14	[0, 0, 0]	-999	PAL1	0	R1162N
1557.435	0.275	2295710	TEST_ORIENT	n/a	n/a	6	2	POND	n/a	POND	BRANCH	14	[0, 0, 0]	-999	PAL1	0	R1162N
1558.219	4.0	2296494	TEST_PROBE	n/a	wordpools/wordpool_EN.txt	6	2	POND	n/a	POND	BRANCH	14	[0, 0, 0]	-999	PAL1	0	R1162N
1558.22	5.008	2296495	REC_START	n/a	n/a	6	-999	n/a	n/a	n/a	n/a	14	[0, 0, 0]	-999	PAL1	0	R1162N
1563.228	0.001	2301503	REC_END	n/a	n/a	6	-999	n/a	n/a	n/a	n/a	14	[0, 0, 0]	-999	PAL1	0	R1162N
1563.229	0.008	2301504	REC_EVENT	5009.0	n/a	6	2	POND	<>	POND	BRANCH	14	[0, 0, 0]	-999	PAL1	0	R1162N
1563.237	0.275	2301512	TEST_ORIENT	n/a	n/a	3	3	BEAN	STICK	BEAN	RIB	14	[0, 0, 0]	-999	PAL1	0	R1162N
1564.17	4.0	2302445	TEST_PROBE	n/a	wordpools/wordpool_EN.txt	3	3	BEAN	STICK	BEAN	RIB	14	[0, 0, 0]	-999	PAL1	0	R1162N
1564.171	2.372	2302446	REC_START	n/a	n/a	3	-999	n/a	STICK	n/a	n/a	14	[0, 0, 0]	-999	PAL1	0	R1162N
1566.543	2.636	2304818	REC_EVENT	2372.0	n/a	3	3	BEAN	STICK	BEAN	RIB	14	[0, 0, 0]	-999	PAL1	0	R1162N
1569.179	0.009	2307454	REC_END	n/a	n/a	3	-999	n/a	n/a	n/a	n/a	14	[0, 0, 0]	-999	PAL1	0	R1162N
1569.188	0.275	2307463	TEST_ORIENT	n/a	n/a	2	4	PRINCE	SKI	PRINCE	SKI	14	[0, 0, 0]	-999	PAL1	0	R1162N
1570.055	4.0	2308330	TEST_PROBE	n/a	wordpools/wordpool_EN.txt	2	4	PRINCE	SKI	PRINCE	SKI	14	[0, 0, 0]	-999	PAL1	0	R1162N
1570.055	1.646	2308330	REC_START	n/a	n/a	2	-999	n/a	SKI	n/a	n/a	14	[0, 0, 0]	-999	PAL1	0	R1162N
1571.701	3.371	2309976	REC_EVENT	1646.0	n/a	2	4	PRINCE	SKI	PRINCE	SKI	14	[0, 0, 0]	-999	PAL1	0	R1162N
1575.072	0.017	2313346	REC_END	n/a	n/a	2	-999	n/a	n/a	n/a	n/a	14	[0, 0, 0]	-999	PAL1	0	R1162N
1575.089	0.275	2313363	TEST_ORIENT	n/a	n/a	1	5	OAR	CORD	STRAW	OAR	14	[0, 0, 0]	-999	PAL1	0	R1162N
1575.906	4.0	2314180	TEST_PROBE	n/a	wordpools/wordpool_EN.txt	1	5	OAR	CORD	STRAW	OAR	14	[0, 0, 0]	-999	PAL1	0	R1162N
1575.906	2.502	2314180	REC_START	n/a	n/a	1	-999	n/a	CORD	n/a	n/a	14	[0, 0, 0]	-999	PAL1	0	R1162N
1578.408	2.515	2316682	REC_EVENT	2502.0	n/a	1	5	OAR	CORD	STRAW	OAR	14	[0, 0, 0]	-999	PAL1	0	R1162N
1580.923	0.017	2319197	REC_END	n/a	n/a	1	-999	n/a	n/a	n/a	n/a	14	[0, 0, 0]	-999	PAL1	0	R1162N
1580.94	0.275	2319214	TEST_ORIENT	n/a	n/a	4	6	BRUSH	n/a	PLANT	BRUSH	14	[0, 0, 0]	-999	PAL1	0	R1162N
1581.89	4.0	2320164	TEST_PROBE	n/a	wordpools/wordpool_EN.txt	4	6	BRUSH	n/a	PLANT	BRUSH	14	[0, 0, 0]	-999	PAL1	0	R1162N
1581.891	5.032	2320165	REC_START	n/a	n/a	4	-999	n/a	n/a	n/a	n/a	14	[0, 0, 0]	-999	PAL1	0	R1162N
1586.923	0.001	2325197	REC_EVENT	5032.0	n/a	4	6	BRUSH	<>	PLANT	BRUSH	14	[0, 0, 0]	-999	PAL1	0	R1162N
1586.924	1.48	2325198	REC_END	n/a	n/a	4	-999	n/a	n/a	n/a	n/a	14	[0, 0, 0]	-999	PAL1	0	R1162N
1588.404	10.439	2326678	ENCODING_START	n/a	n/a	0	-999	n/a	n/a	n/a	n/a	15	[0, 0, 0]	-999	PAL1	0	R1162N
1598.843	0.275	2337116	STUDY_ORIENT	n/a	n/a	1	1	NEST	n/a	BAND	NEST	15	[0, 0, 0]	-999	PAL1	0	R1162N
1599.81	4.0	2338083	STUDY_PAIR	n/a	wordpools/wordpool_EN.txt	1	1	NEST	n/a	BAND	NEST	15	[0, 0, 0]	-999	PAL1	0	R1162N
1604.844	0.275	2343117	STUDY_ORIENT	n/a	n/a	2	2	SOCK	n/a	PIPE	SOCK	15	[0, 0, 0]	-999	PAL1	0	R1162N
1605.761	4.0	2344034	STUDY_PAIR	n/a	wordpools/wordpool_EN.txt	2	2	SOCK	n/a	PIPE	SOCK	15	[0, 0, 0]	-999	PAL1	0	R1162N
1610.795	0.275	2349067	STUDY_ORIENT	n/a	n/a	3	5	LOCK	n/a	BEACH	LOCK	15	[0, 0, 0]	-999	PAL1	0	R1162N
1611.695	4.0	2349967	STUDY_PAIR	n/a	wordpools/wordpool_EN.txt	3	5	LOCK	n/a	BEACH	LOCK	15	[0, 0, 0]	-999	PAL1	0	R1162N
1616.729	0.275	2355001	STUDY_ORIENT	n/a	n/a	4	4	SHARK	SHARK	SHARK	SNAIL	15	[0, 0, 0]	-999	PAL1	0	R1162N
1617.596	4.0	2355868	STUDY_PAIR	n/a	wordpools/wordpool_EN.txt	4	4	SHARK	SHARK	SHARK	SNAIL	15	[0, 0, 0]	-999	PAL1	0	R1162N
1622.63	0.275	2360902	STUDY_ORIENT	n/a	n/a	5	3	BED	LAWN	BED	LAWN	15	[0, 0, 0]	-999	PAL1	0	R1162N
1623.614	4.0	2361886	STUDY_PAIR	n/a	wordpools/wordpool_EN.txt	5	3	BED	LAWN	BED	LAWN	15	[0, 0, 0]	-999	PAL1	0	R1162N
1628.648	0.275	2366919	STUDY_ORIENT	n/a	n/a	6	6	BENCH	ZOO	ZOO	BENCH	15	[0, 0, 0]	-999	PAL1	0	R1162N
1629.431	4.0	2367702	STUDY_PAIR	n/a	wordpools/wordpool_EN.txt	6	6	BENCH	ZOO	ZOO	BENCH	15	[0, 0, 0]	-999	PAL1	0	R1162N
1633.448	1.0	2371719	START	n/a	n/a	-999	-999	n/a	n/a	n/a	n/a	15	[-999, -999, -999]	-999	PAL1	0	R1162N
1634.448	0.017	2372719	MATH_START	n/a	n/a	-999	-999	n/a	n/a	n/a	n/a	15	[0, 0, 0]	-999	PAL1	0	R1162N
1634.465	3.385	2372736	PROB	3356.0	n/a	-999	-999	n/a	n/a	n/a	n/a	15	[9, 6, 5]	20	PAL1	0	R1162N
1637.85	2.167	2376121	PROB	2139.0	n/a	-999	-999	n/a	n/a	n/a	n/a	15	[1, 3, 3]	7	PAL1	0	R1162N
1640.017	2.817	2378288	PROB	2788.0	n/a	-999	-999	n/a	n/a	n/a	n/a	15	[2, 6, 2]	10	PAL1	0	R1162N
1642.834	2.516	2381105	PROB	2490.0	n/a	-999	-999	n/a	n/a	n/a	n/a	15	[7, 3, 4]	14	PAL1	0	R1162N
1645.35	2.901	2383621	PROB	2871.0	n/a	-999	-999	n/a	n/a	n/a	n/a	15	[1, 6, 8]	15	PAL1	0	R1162N
1648.251	3.3	2386521	PROB	3273.0	n/a	-999	-999	n/a	n/a	n/a	n/a	15	[3, 5, 9]	18	PAL1	0	R1162N
1651.551	4.765	2389821	PROB	4765.0	n/a	-999	-999	n/a	n/a	n/a	n/a	15	[6, 8, 5]	19	PAL1	0	R1162N
1656.316	0.002	2394586	STOP	n/a	n/a	-999	-999	n/a	n/a	n/a	n/a	15	[-999, -999, -999]	-999	PAL1	0	R1162N
1656.318	0.0	2394588	MATH_END	n/a	n/a	-999	-999	n/a	n/a	n/a	n/a	15	[0, 0, 0]	-999	PAL1	0	R1162N
1656.318	0.017	2394588	TEST_START	n/a	n/a	-999	-999	n/a	n/a	n/a	n/a	15	[0, 0, 0]	-999	PAL1	0	R1162N
1656.335	0.275	2394605	TEST_ORIENT	n/a	n/a	1	1	NEST	n/a	BAND	NEST	15	[0, 0, 0]	-999	PAL1	0	R1162N
1657.253	4.0	2395523	TEST_PROBE	n/a	wordpools/wordpool_EN.txt	1	1	NEST	n/a	BAND	NEST	15	[0, 0, 0]	-999	PAL1	0	R1162N
1657.253	5.017	2395523	REC_START	n/a	n/a	1	-999	n/a	n/a	n/a	n/a	15	[0, 0, 0]	-999	PAL1	0	R1162N
1662.27	0.004	2400540	REC_END	n/a	n/a	1	-999	n/a	n/a	n/a	n/a	15	[0, 0, 0]	-999	PAL1	0	R1162N
1662.274	0.013	2400544	REC_EVENT	5021.0	n/a	1	1	NEST	<>	BAND	NEST	15	[0, 0, 0]	-999	PAL1	0	R1162N
1662.287	0.275	2400557	TEST_ORIENT	n/a	n/a	2	2	SOCK	n/a	PIPE	SOCK	15	[0, 0, 0]	-999	PAL1	0	R1162N
1663.187	4.0	2401457	TEST_PROBE	n/a	wordpools/wordpool_EN.txt	2	2	SOCK	n/a	PIPE	SOCK	15	[0, 0, 0]	-999	PAL1	0	R1162N
1663.188	4.998	2401458	REC_START	n/a	n/a	2	-999	n/a	n/a	n/a	n/a	15	[0, 0, 0]	-999	PAL1	0	R1162N
1668.186	0.002	2406455	REC_EVENT	4998.0	n/a	2	2	SOCK	<>	PIPE	SOCK	15	[0, 0, 0]	-999	PAL1	0	R1162N
1668.188	0.017	2406457	REC_END	n/a	n/a	2	-999	n/a	n/a	n/a	n/a	15	[0, 0, 0]	-999	PAL1	0	R1162N
1668.205	0.275	2406474	TEST_ORIENT	n/a	n/a	5	3	BED	LAWN	BED	LAWN	15	[0, 0, 0]	-999	PAL1	0	R1162N
1669.138	4.0	2407407	TEST_PROBE	n/a	wordpools/wordpool_EN.txt	5	3	BED	LAWN	BED	LAWN	15	[0, 0, 0]	-999	PAL1	0	R1162N
1669.139	3.23	2407408	REC_START	n/a	n/a	5	-999	n/a	LAWN	n/a	n/a	15	[0, 0, 0]	-999	PAL1	0	R1162N
1672.369	1.782	2410638	REC_EVENT	3230.0	n/a	5	3	BED	LAWN	BED	LAWN	15	[0, 0, 0]	-999	PAL1	0	R1162N
1674.151	0.021	2412420	REC_END	n/a	n/a	5	-999	n/a	n/a	n/a	n/a	15	[0, 0, 0]	-999	PAL1	0	R1162N
1674.172	0.275	2412441	TEST_ORIENT	n/a	n/a	4	4	SHARK	SHARK	SHARK	SNAIL	15	[0, 0, 0]	-999	PAL1	0	R1162N
1675.006	4.0	2413275	TEST_PROBE	n/a	wordpools/wordpool_EN.txt	4	4	SHARK	SHARK	SHARK	SNAIL	15	[0, 0, 0]	-999	PAL1	0	R1162N
1675.006	1.286	2413275	REC_START	n/a	n/a	4	-999	n/a	SHARK	n/a	n/a	15	[0, 0, 0]	-999	PAL1	0	R1162N
1676.292	3.731	2414561	REC_EVENT	1286.0	n/a	4	4	SHARK	SHARK	SHARK	SNAIL	15	[0, 0, 0]	-999	PAL1	0	R1162N
1680.023	0.017	2418292	REC_END	n/a	n/a	4	-999	n/a	n/a	n/a	n/a	15	[0, 0, 0]	-999	PAL1	0	R1162N
1680.04	0.275	2418309	TEST_ORIENT	n/a	n/a	3	5	LOCK	n/a	BEACH	LOCK	15	[0, 0, 0]	-999	PAL1	0	R1162N
1681.04	4.0	2419309	TEST_PROBE	n/a	wordpools/wordpool_EN.txt	3	5	LOCK	n/a	BEACH	LOCK	15	[0, 0, 0]	-999	PAL1	0	R1162N
1681.041	5.009	2419310	REC_START	n/a	n/a	3	-999	n/a	n/a	n/a	n/a	15	[0, 0, 0]	-999	PAL1	0	R1162N
1686.05	0.0	2424318	REC_EVENT	5009.0	n/a	3	5	LOCK	<>	BEACH	LOCK	15	[0, 0, 0]	-999	PAL1	0	R1162N
1686.05	0.008	2424318	REC_END	n/a	n/a	3	-999	n/a	n/a	n/a	n/a	15	[0, 0, 0]	-999	PAL1	0	R1162N
1686.058	0.275	2424326	TEST_ORIENT	n/a	n/a	6	6	BENCH	ZOO	ZOO	BENCH	15	[0, 0, 0]	-999	PAL1	0	R1162N
1686.975	4.0	2425243	TEST_PROBE	n/a	wordpools/wordpool_EN.txt	6	6	BENCH	ZOO	ZOO	BENCH	15	[0, 0, 0]	-999	PAL1	0	R1162N
1686.975	1.669	2425243	REC_START	n/a	n/a	6	-999	n/a	ZOO	n/a	n/a	15	[0, 0, 0]	-999	PAL1	0	R1162N
1688.644	3.348	2426912	REC_EVENT	1669.0	n/a	6	6	BENCH	ZOO	ZOO	BENCH	15	[0, 0, 0]	-999	PAL1	0	R1162N
1691.992	1.468	2430260	REC_END	n/a	n/a	6	-999	n/a	n/a	n/a	n/a	15	[0, 0, 0]	-999	PAL1	0	R1162N
1693.46	10.451	2431728	ENCODING_START	n/a	n/a	0	-999	n/a	n/a	n/a	n/a	16	[0, 0, 0]	-999	PAL1	0	R1162N
1703.911	0.275	2442178	STUDY_ORIENT	n/a	n/a	1	5	STORE	n/a	STORE	BEAR	16	[0, 0, 0]	-999	PAL1	0	R1162N
1704.778	4.0	2443045	STUDY_PAIR	n/a	wordpools/wordpool_EN.txt	1	5	STORE	n/a	STORE	BEAR	16	[0, 0, 0]	-999	PAL1	0	R1162N
1709.812	0.275	2448079	STUDY_ORIENT	n/a	n/a	2	2	BROOM	BUSH	BAG	BROOM	16	[0, 0, 0]	-999	PAL1	0	R1162N
1710.762	4.0	2449029	STUDY_PAIR	n/a	wordpools/wordpool_EN.txt	2	2	BROOM	BUSH	BAG	BROOM	16	[0, 0, 0]	-999	PAL1	0	R1162N
1715.796	0.275	2454063	STUDY_ORIENT	n/a	n/a	3	1	MUD	CART	CART	MUD	16	[0, 0, 0]	-999	PAL1	0	R1162N
1716.613	4.0	2454880	STUDY_PAIR	n/a	wordpools/wordpool_EN.txt	3	1	MUD	CART	CART	MUD	16	[0, 0, 0]	-999	PAL1	0	R1162N
1721.647	0.275	2459914	STUDY_ORIENT	n/a	n/a	4	6	MOUTH	HOOF	HOOF	MOUTH	16	[0, 0, 0]	-999	PAL1	0	R1162N
1722.614	4.0	2460880	STUDY_PAIR	n/a	wordpools/wordpool_EN.txt	4	6	MOUTH	HOOF	HOOF	MOUTH	16	[0, 0, 0]	-999	PAL1	0	R1162N
1727.648	0.275	2465914	STUDY_ORIENT	n/a	n/a	5	3	BOAT	JET	BOAT	JET	16	[0, 0, 0]	-999	PAL1	0	R1162N
1728.598	4.0	2466864	STUDY_PAIR	n/a	wordpools/wordpool_EN.txt	5	3	BOAT	JET	BOAT	JET	16	[0, 0, 0]	-999	PAL1	0	R1162N
1733.616	0.275	2471882	STUDY_ORIENT	n/a	n/a	6	4	WORM	SQUARE	WORM	SQUARE	16	[0, 0, 0]	-999	PAL1	0	R1162N
1734.515	4.0	2472781	STUDY_PAIR	n/a	wordpools/wordpool_EN.txt	6	4	WORM	SQUARE	WORM	SQUARE	16	[0, 0, 0]	-999	PAL1	0	R1162N
1738.533	0.999	2476799	START	n/a	n/a	-999	-999	n/a	n/a	n/a	n/a	16	[-999, -999, -999]	-999	PAL1	0	R1162N
1739.532	0.017	2477798	MATH_START	n/a	n/a	-999	-999	n/a	n/a	n/a	n/a	16	[0, 0, 0]	-999	PAL1	0	R1162N
1739.549	3.385	2477815	PROB	3360.0	n/a	-999	-999	n/a	n/a	n/a	n/a	16	[2, 8, 9]	19	PAL1	0	R1162N
1742.934	3.951	2481199	PROB	3927.0	n/a	-999	-999	n/a	n/a	n/a	n/a	16	[8, 5, 3]	15	PAL1	0	R1162N
1746.885	4.817	2485150	PROB	4792.0	n/a	-999	-999	n/a	n/a	n/a	n/a	16	[9, 7, 4]	20	PAL1	0	R1162N
1751.702	6.201	2489967	PROB	6167.0	n/a	-999	-999	n/a	n/a	n/a	n/a	16	[4, 5, 5]	14	PAL1	0	R1162N
1757.903	3.429	2496168	PROB	3429.0	n/a	-999	-999	n/a	n/a	n/a	n/a	16	[2, 6, 9]	17	PAL1	0	R1162N
1761.332	0.004	2499596	STOP	n/a	n/a	-999	-999	n/a	n/a	n/a	n/a	16	[-999, -999, -999]	-999	PAL1	0	R1162N
1761.336	0.0	2499600	MATH_END	n/a	n/a	-999	-999	n/a	n/a	n/a	n/a	16	[0, 0, 0]	-999	PAL1	0	R1162N
1761.336	0.017	2499600	TEST_START	n/a	n/a	-999	-999	n/a	n/a	n/a	n/a	16	[0, 0, 0]	-999	PAL1	0	R1162N
1761.353	0.275	2499617	TEST_ORIENT	n/a	n/a	3	1	MUD	CART	CART	MUD	16	[0, 0, 0]	-999	PAL1	0	R1162N
1762.171	0.0	2500435	REC_START	n/a	n/a	3	-999	n/a	CART	n/a	n/a	16	[0, 0, 0]	-999	PAL1	0	R1162N
1762.171	4.0	2500435	TEST_PROBE	n/a	wordpools/wordpool_EN.txt	3	1	MUD	CART	CART	MUD	16	[0, 0, 0]	-999	PAL1	0	R1162N
1763.456	3.732	2501720	REC_EVENT	1285.0	n/a	3	1	MUD	CART	CART	MUD	16	[0, 0, 0]	-999	PAL1	0	R1162N
1767.188	0.017	2505452	REC_END	n/a	n/a	3	-999	n/a	n/a	n/a	n/a	16	[0, 0, 0]	-999	PAL1	0	R1162N
1767.205	0.275	2505469	TEST_ORIENT	n/a	n/a	2	2	BROOM	BUSH	BAG	BROOM	16	[0, 0, 0]	-999	PAL1	0	R1162N
1768.038	4.0	2506302	TEST_PROBE	n/a	wordpools/wordpool_EN.txt	2	2	BROOM	BUSH	BAG	BROOM	16	[0, 0, 0]	-999	PAL1	0	R1162N
1768.039	3.1	2506303	REC_START	n/a	n/a	2	-999	n/a	BUSH	n/a	n/a	16	[0, 0, 0]	-999	PAL1	0	R1162N
1771.139	1.908	2509403	REC_EVENT	3100.0	n/a	2	2	BROOM	BUSH	BAG	BROOM	16	[0, 0, 0]	-999	PAL1	0	R1162N
1773.047	0.009	2511311	REC_END	n/a	n/a	2	-999	n/a	n/a	n/a	n/a	16	[0, 0, 0]	-999	PAL1	0	R1162N
1773.056	0.275	2511320	TEST_ORIENT	n/a	n/a	5	3	BOAT	JET	BOAT	JET	16	[0, 0, 0]	-999	PAL1	0	R1162N
1773.873	0.0	2512137	REC_START	n/a	n/a	5	-999	n/a	JET	n/a	n/a	16	[0, 0, 0]	-999	PAL1	0	R1162N
1773.873	4.0	2512137	TEST_PROBE	n/a	wordpools/wordpool_EN.txt	5	3	BOAT	JET	BOAT	JET	16	[0, 0, 0]	-999	PAL1	0	R1162N
1775.097	3.801	2513361	REC_EVENT	1224.0	n/a	5	3	BOAT	JET	BOAT	JET	16	[0, 0, 0]	-999	PAL1	0	R1162N
1778.898	0.009	2517161	REC_END	n/a	n/a	5	-999	n/a	n/a	n/a	n/a	16	[0, 0, 0]	-999	PAL1	0	R1162N
1778.907	0.275	2517170	TEST_ORIENT	n/a	n/a	6	4	WORM	SQUARE	WORM	SQUARE	16	[0, 0, 0]	-999	PAL1	0	R1162N
1779.857	4.0	2518120	TEST_PROBE	n/a	wordpools/wordpool_EN.txt	6	4	WORM	SQUARE	WORM	SQUARE	16	[0, 0, 0]	-999	PAL1	0	R1162N
1779.858	0.88	2518121	REC_START	n/a	n/a	6	-999	n/a	SQUARE	n/a	n/a	16	[0, 0, 0]	-999	PAL1	0	R1162N
1780.738	4.136	2519001	REC_EVENT	880.0	n/a	6	4	WORM	SQUARE	WORM	SQUARE	16	[0, 0, 0]	-999	PAL1	0	R1162N
1784.874	0.017	2523137	REC_END	n/a	n/a	6	-999	n/a	n/a	n/a	n/a	16	[0, 0, 0]	-999	PAL1	0	R1162N
1784.891	0.275	2523154	TEST_ORIENT	n/a	n/a	1	5	STORE	n/a	STORE	BEAR	16	[0, 0, 0]	-999	PAL1	0	R1162N
1785.791	4.0	2524054	TEST_PROBE	n/a	wordpools/wordpool_EN.txt	1	5	STORE	n/a	STORE	BEAR	16	[0, 0, 0]	-999	PAL1	0	R1162N
1785.792	5.008	2524055	REC_START	n/a	n/a	1	-999	n/a	n/a	n/a	n/a	16	[0, 0, 0]	-999	PAL1	0	R1162N
1790.8	0.001	2529063	REC_END	n/a	n/a	1	-999	n/a	n/a	n/a	n/a	16	[0, 0, 0]	-999	PAL1	0	R1162N
1790.801	0.008	2529064	REC_EVENT	5009.0	n/a	1	5	STORE	<>	STORE	BEAR	16	[0, 0, 0]	-999	PAL1	0	R1162N
1790.809	0.275	2529072	TEST_ORIENT	n/a	n/a	4	6	MOUTH	HOOF	HOOF	MOUTH	16	[0, 0, 0]	-999	PAL1	0	R1162N
1791.776	4.0	2530039	TEST_PROBE	n/a	wordpools/wordpool_EN.txt	4	6	MOUTH	HOOF	HOOF	MOUTH	16	[0, 0, 0]	-999	PAL1	0	R1162N
1791.776	1.377	2530039	REC_START	n/a	n/a	4	-999	n/a	HOOF	n/a	n/a	16	[0, 0, 0]	-999	PAL1	0	R1162N
1793.153	3.64	2531416	REC_EVENT	1377.0	n/a	4	6	MOUTH	HOOF	HOOF	MOUTH	16	[0, 0, 0]	-999	PAL1	0	R1162N
1796.793	1.404	2535056	REC_END	n/a	n/a	4	-999	n/a	n/a	n/a	n/a	16	[0, 0, 0]	-999	PAL1	0	R1162N
1798.197	10.448	2536459	ENCODING_START	n/a	n/a	0	-999	n/a	n/a	n/a	n/a	17	[0, 0, 0]	-999	PAL1	0	R1162N
1808.645	0.275	2546907	STUDY_ORIENT	n/a	n/a	1	5	CUBE	SEAT	CUBE	SEAT	17	[0, 0, 0]	-999	PAL1	0	R1162N
1809.612	4.0	2547874	STUDY_PAIR	n/a	wordpools/wordpool_EN.txt	1	5	CUBE	SEAT	CUBE	SEAT	17	[0, 0, 0]	-999	PAL1	0	R1162N
1814.646	0.275	2552908	STUDY_ORIENT	n/a	n/a	2	6	TRAIN	JET	SPONGE	TRAIN	17	[0, 0, 0]	-999	PAL1	0	R1162N
1815.428	4.0	2553690	STUDY_PAIR	n/a	wordpools/wordpool_EN.txt	2	6	TRAIN	JET	SPONGE	TRAIN	17	[0, 0, 0]	-999	PAL1	0	R1162N
1820.446	0.275	2558707	STUDY_ORIENT	n/a	n/a	3	3	COW	KEY	KEY	COW	17	[0, 0, 0]	-999	PAL1	0	R1162N
1821.247	4.0	2559508	STUDY_PAIR	n/a	wordpools/wordpool_EN.txt	3	3	COW	KEY	KEY	COW	17	[0, 0, 0]	-999	PAL1	0	R1162N
1826.265	0.275	2564526	STUDY_ORIENT	n/a	n/a	4	4	SHIELD	COLOR	CLOTH	SHIELD	17	[0, 0, 0]	-999	PAL1	0	R1162N
1827.132	4.0	2565393	STUDY_PAIR	n/a	wordpools/wordpool_EN.txt	4	4	SHIELD	COLOR	CLOTH	SHIELD	17	[0, 0, 0]	-999	PAL1	0	R1162N
1832.166	0.275	2570427	STUDY_ORIENT	n/a	n/a	5	1	ARK	DUCK	DUCK	ARK	17	[0, 0, 0]	-999	PAL1	0	R1162N
1833.149	4.0	2571410	STUDY_PAIR	n/a	wordpools/wordpool_EN.txt	5	1	ARK	DUCK	DUCK	ARK	17	[0, 0, 0]	-999	PAL1	0	R1162N
1838.167	0.275	2576427	STUDY_ORIENT	n/a	n/a	6	2	TOOL	n/a	TOOL	CORN	17	[0, 0, 0]	-999	PAL1	0	R1162N
1838.95	4.0	2577210	STUDY_PAIR	n/a	wordpools/wordpool_EN.txt	6	2	TOOL	n/a	TOOL	CORN	17	[0, 0, 0]	-999	PAL1	0	R1162N
1842.951	1.0	2581211	START	n/a	n/a	-999	-999	n/a	n/a	n/a	n/a	17	[-999, -999, -999]	-999	PAL1	0	R1162N
1843.951	0.017	2582211	MATH_START	n/a	n/a	-999	-999	n/a	n/a	n/a	n/a	17	[0, 0, 0]	-999	PAL1	0	R1162N
1843.968	2.984	2582228	PROB	2957.0	n/a	-999	-999	n/a	n/a	n/a	n/a	17	[8, 6, 4]	18	PAL1	0	R1162N
1846.952	1.933	2585212	PROB	1901.0	n/a	-999	-999	n/a	n/a	n/a	n/a	17	[6, 6, 6]	18	PAL1	0	R1162N
1848.885	2.834	2587145	PROB	2800.0	n/a	-999	-999	n/a	n/a	n/a	n/a	17	[8, 5, 3]	16	PAL1	0	R1162N
1851.719	3.101	2589979	PROB	3078.0	n/a	-999	-999	n/a	n/a	n/a	n/a	17	[7, 4, 5]	16	PAL1	0	R1162N
1854.82	4.384	2593079	PROB	4361.0	n/a	-999	-999	n/a	n/a	n/a	n/a	17	[9, 7, 2]	18	PAL1	0	R1162N
1859.204	1.983	2597463	PROB	1961.0	n/a	-999	-999	n/a	n/a	n/a	n/a	17	[4, 1, 4]	9	PAL1	0	R1162N
1861.187	3.066	2599446	PROB	3066.0	n/a	-999	-999	n/a	n/a	n/a	n/a	17	[5, 9, 6]	20	PAL1	0	R1162N
1864.253	0.018	2602512	STOP	n/a	n/a	-999	-999	n/a	n/a	n/a	n/a	17	[-999, -999, -999]	-999	PAL1	0	R1162N
1864.271	0.0	2602530	MATH_END	n/a	n/a	-999	-999	n/a	n/a	n/a	n/a	17	[0, 0, 0]	-999	PAL1	0	R1162N
1864.271	0.017	2602530	TEST_START	n/a	n/a	-999	-999	n/a	n/a	n/a	n/a	17	[0, 0, 0]	-999	PAL1	0	R1162N
1864.288	0.275	2602547	TEST_ORIENT	n/a	n/a	5	1	ARK	DUCK	DUCK	ARK	17	[0, 0, 0]	-999	PAL1	0	R1162N
1865.32	4.0	2603579	TEST_PROBE	n/a	wordpools/wordpool_EN.txt	5	1	ARK	DUCK	DUCK	ARK	17	[0, 0, 0]	-999	PAL1	0	R1162N
1865.321	1.405	2603580	REC_START	n/a	n/a	5	-999	n/a	DUCK	n/a	n/a	17	[0, 0, 0]	-999	PAL1	0	R1162N
1866.726	3.603	2604985	REC_EVENT	1405.0	n/a	5	1	ARK	DUCK	DUCK	ARK	17	[0, 0, 0]	-999	PAL1	0	R1162N
1870.329	0.009	2608588	REC_END	n/a	n/a	5	-999	n/a	n/a	n/a	n/a	17	[0, 0, 0]	-999	PAL1	0	R1162N
1870.338	0.275	2608597	TEST_ORIENT	n/a	n/a	6	2	TOOL	n/a	TOOL	CORN	17	[0, 0, 0]	-999	PAL1	0	R1162N
1871.139	4.0	2609398	TEST_PROBE	n/a	wordpools/wordpool_EN.txt	6	2	TOOL	n/a	TOOL	CORN	17	[0, 0, 0]	-999	PAL1	0	R1162N
1871.14	5.015	2609399	REC_START	n/a	n/a	6	-999	n/a	n/a	n/a	n/a	17	[0, 0, 0]	-999	PAL1	0	R1162N
1876.155	0.001	2614413	REC_EVENT	5015.0	n/a	6	2	TOOL	<>	TOOL	CORN	17	[0, 0, 0]	-999	PAL1	0	R1162N
1876.156	0.017	2614414	REC_END	n/a	n/a	6	-999	n/a	n/a	n/a	n/a	17	[0, 0, 0]	-999	PAL1	0	R1162N
1876.173	0.275	2614431	TEST_ORIENT	n/a	n/a	3	3	COW	KEY	KEY	COW	17	[0, 0, 0]	-999	PAL1	0	R1162N
1877.057	4.0	2615315	TEST_PROBE	n/a	wordpools/wordpool_EN.txt	3	3	COW	KEY	KEY	COW	17	[0, 0, 0]	-999	PAL1	0	R1162N
1877.057	2.375	2615315	REC_START	n/a	n/a	3	-999	n/a	KEY	n/a	n/a	17	[0, 0, 0]	-999	PAL1	0	R1162N
1879.432	2.642	2617690	REC_EVENT	2375.0	n/a	3	3	COW	KEY	KEY	COW	17	[0, 0, 0]	-999	PAL1	0	R1162N
1882.074	0.017	2620332	REC_END	n/a	n/a	3	-999	n/a	n/a	n/a	n/a	17	[0, 0, 0]	-999	PAL1	0	R1162N
1882.091	0.275	2620349	TEST_ORIENT	n/a	n/a	4	4	SHIELD	COLOR	CLOTH	SHIELD	17	[0, 0, 0]	-999	PAL1	0	R1162N
1882.908	4.0	2621166	TEST_PROBE	n/a	wordpools/wordpool_EN.txt	4	4	SHIELD	COLOR	CLOTH	SHIELD	17	[0, 0, 0]	-999	PAL1	0	R1162N
1882.908	3.024	2621166	REC_START	n/a	n/a	4	-999	n/a	COLOR	n/a	n/a	17	[0, 0, 0]	-999	PAL1	0	R1162N
1885.932	1.993	2624190	REC_EVENT	3024.0	n/a	4	4	SHIELD	COLOR	CLOTH	SHIELD	17	[0, 0, 0]	-999	PAL1	0	R1162N
1887.925	0.017	2626183	REC_END	n/a	n/a	4	-999	n/a	n/a	n/a	n/a	17	[0, 0, 0]	-999	PAL1	0	R1162N
1887.942	0.275	2626200	TEST_ORIENT	n/a	n/a	1	5	CUBE	SEAT	CUBE	SEAT	17	[0, 0, 0]	-999	PAL1	0	R1162N
1888.742	4.0	2627000	TEST_PROBE	n/a	wordpools/wordpool_EN.txt	1	5	CUBE	SEAT	CUBE	SEAT	17	[0, 0, 0]	-999	PAL1	0	R1162N
1888.742	1.309	2627000	REC_START	n/a	n/a	1	-999	n/a	SEAT	n/a	n/a	17	[0, 0, 0]	-999	PAL1	0	R1162N
1890.051	3.708	2628309	REC_EVENT	1309.0	n/a	1	5	CUBE	SEAT	CUBE	SEAT	17	[0, 0, 0]	-999	PAL1	0	R1162N
1893.759	0.017	2632016	REC_END	n/a	n/a	1	-999	n/a	n/a	n/a	n/a	17	[0, 0, 0]	-999	PAL1	0	R1162N
1893.776	0.275	2632033	TEST_ORIENT	n/a	n/a	2	6	TRAIN	JET	SPONGE	TRAIN	17	[0, 0, 0]	-999	PAL1	0	R1162N
1894.643	4.0	2632900	TEST_PROBE	n/a	wordpools/wordpool_EN.txt	2	6	TRAIN	JET	SPONGE	TRAIN	17	[0, 0, 0]	-999	PAL1	0	R1162N
1894.643	2.054	2632900	REC_START	n/a	n/a	2	-999	n/a	JET	n/a	n/a	17	[0, 0, 0]	-999	PAL1	0	R1162N
1896.697	2.963	2634954	REC_EVENT	2054.0	n/a	2	6	TRAIN	JET	SPONGE	TRAIN	17	[0, 0, 0]	-999	PAL1	0	R1162N
1899.66	1.656	2637917	REC_END	n/a	n/a	2	-999	n/a	n/a	n/a	n/a	17	[0, 0, 0]	-999	PAL1	0	R1162N
1901.316	10.447	2639573	ENCODING_START	n/a	n/a	0	-999	n/a	n/a	n/a	n/a	18	[0, 0, 0]	-999	PAL1	0	R1162N
1911.763	0.275	2650019	STUDY_ORIENT	n/a	n/a	1	5	PIN	EAR	EAR	PIN	18	[0, 0, 0]	-999	PAL1	0	R1162N
1912.613	4.0	2650869	STUDY_PAIR	n/a	wordpools/wordpool_EN.txt	1	5	PIN	EAR	EAR	PIN	18	[0, 0, 0]	-999	PAL1	0	R1162N
1917.647	0.275	2655903	STUDY_ORIENT	n/a	n/a	2	2	CAKE	n/a	CAKE	BANK	18	[0, 0, 0]	-999	PAL1	0	R1162N
1918.597	4.0	2656853	STUDY_PAIR	n/a	wordpools/wordpool_EN.txt	2	2	CAKE	n/a	CAKE	BANK	18	[0, 0, 0]	-999	PAL1	0	R1162N
1923.631	0.275	2661887	STUDY_ORIENT	n/a	n/a	3	3	CLOUD	SNAKE	SNAKE	CLOUD	18	[0, 0, 0]	-999	PAL1	0	R1162N
1924.564	4.0	2662820	STUDY_PAIR	n/a	wordpools/wordpool_EN.txt	3	3	CLOUD	SNAKE	SNAKE	CLOUD	18	[0, 0, 0]	-999	PAL1	0	R1162N
1929.599	0.275	2667854	STUDY_ORIENT	n/a	n/a	4	4	BEAK	n/a	BEAK	PET	18	[0, 0, 0]	-999	PAL1	0	R1162N
1930.581	4.0	2668836	STUDY_PAIR	n/a	wordpools/wordpool_EN.txt	4	4	BEAK	n/a	BEAK	PET	18	[0, 0, 0]	-999	PAL1	0	R1162N
1935.6	0.275	2673855	STUDY_ORIENT	n/a	n/a	5	1	FRUIT	CROWN	SOAP	FRUIT	18	[0, 0, 0]	-999	PAL1	0	R1162N
1936.6	4.0	2674855	STUDY_PAIR	n/a	wordpools/wordpool_EN.txt	5	1	FRUIT	CROWN	SOAP	FRUIT	18	[0, 0, 0]	-999	PAL1	0	R1162N
1941.634	0.275	2679889	STUDY_ORIENT	n/a	n/a	6	6	STAIR	n/a	CROWN	STAIR	18	[0, 0, 0]	-999	PAL1	0	R1162N
1942.5	4.0	2680755	STUDY_PAIR	n/a	wordpools/wordpool_EN.txt	6	6	STAIR	n/a	CROWN	STAIR	18	[0, 0, 0]	-999	PAL1	0	R1162N
1946.519	0.999	2684774	START	n/a	n/a	-999	-999	n/a	n/a	n/a	n/a	18	[-999, -999, -999]	-999	PAL1	0	R1162N
1947.518	0.016	2685773	MATH_START	n/a	n/a	-999	-999	n/a	n/a	n/a	n/a	18	[0, 0, 0]	-999	PAL1	0	R1162N
1947.534	2.518	2685789	PROB	2495.0	n/a	-999	-999	n/a	n/a	n/a	n/a	18	[5, 2, 5]	12	PAL1	0	R1162N
1950.052	2.584	2688306	PROB	2553.0	n/a	-999	-999	n/a	n/a	n/a	n/a	18	[5, 4, 9]	18	PAL1	0	R1162N
1952.636	2.267	2690890	PROB	2241.0	n/a	-999	-999	n/a	n/a	n/a	n/a	18	[3, 6, 1]	10	PAL1	0	R1162N
1954.903	3.918	2693157	PROB	3886.0	n/a	-999	-999	n/a	n/a	n/a	n/a	18	[8, 5, 1]	14	PAL1	0	R1162N
1958.821	2.317	2697075	PROB	2288.0	n/a	-999	-999	n/a	n/a	n/a	n/a	18	[6, 4, 6]	14	PAL1	0	R1162N
1961.138	4.567	2699392	PROB	4547.0	n/a	-999	-999	n/a	n/a	n/a	n/a	18	[9, 2, 3]	14	PAL1	0	R1162N
1965.705	2.755	2703959	PROB	2755.0	n/a	-999	-999	n/a	n/a	n/a	n/a	18	[8, 8, 3]	19	PAL1	0	R1162N
1968.46	0.011	2706713	STOP	n/a	n/a	-999	-999	n/a	n/a	n/a	n/a	18	[-999, -999, -999]	-999	PAL1	0	R1162N
1968.471	0.0	2706724	MATH_END	n/a	n/a	-999	-999	n/a	n/a	n/a	n/a	18	[0, 0, 0]	-999	PAL1	0	R1162N
1968.471	0.017	2706724	TEST_START	n/a	n/a	-999	-999	n/a	n/a	n/a	n/a	18	[0, 0, 0]	-999	PAL1	0	R1162N
1968.488	0.275	2706741	TEST_ORIENT	n/a	n/a	5	1	FRUIT	CROWN	SOAP	FRUIT	18	[0, 0, 0]	-999	PAL1	0	R1162N
1969.321	4.0	2707574	TEST_PROBE	n/a	wordpools/wordpool_EN.txt	5	1	FRUIT	CROWN	SOAP	FRUIT	18	[0, 0, 0]	-999	PAL1	0	R1162N
1969.322	1.866	2707575	REC_START	n/a	n/a	5	-999	n/a	CROWN	n/a	n/a	18	[0, 0, 0]	-999	PAL1	0	R1162N
1971.188	3.151	2709441	REC_EVENT	1866.0	n/a	5	1	FRUIT	CROWN	SOAP	FRUIT	18	[0, 0, 0]	-999	PAL1	0	R1162N
1974.339	0.017	2712592	REC_END	n/a	n/a	5	-999	n/a	n/a	n/a	n/a	18	[0, 0, 0]	-999	PAL1	0	R1162N
1974.356	0.275	2712609	TEST_ORIENT	n/a	n/a	2	2	CAKE	n/a	CAKE	BANK	18	[0, 0, 0]	-999	PAL1	0	R1162N
1975.29	4.0	2713543	TEST_PROBE	n/a	wordpools/wordpool_EN.txt	2	2	CAKE	n/a	CAKE	BANK	18	[0, 0, 0]	-999	PAL1	0	R1162N
1975.29	5.015	2713543	REC_START	n/a	n/a	2	-999	n/a	n/a	n/a	n/a	18	[0, 0, 0]	-999	PAL1	0	R1162N
1980.305	0.001	2718558	REC_EVENT	5015.0	n/a	2	2	CAKE	<>	CAKE	BANK	18	[0, 0, 0]	-999	PAL1	0	R1162N
1980.306	0.017	2718559	REC_END	n/a	n/a	2	-999	n/a	n/a	n/a	n/a	18	[0, 0, 0]	-999	PAL1	0	R1162N
1980.323	0.275	2718576	TEST_ORIENT	n/a	n/a	3	3	CLOUD	SNAKE	SNAKE	CLOUD	18	[0, 0, 0]	-999	PAL1	0	R1162N
1981.34	4.0	2719593	TEST_PROBE	n/a	wordpools/wordpool_EN.txt	3	3	CLOUD	SNAKE	SNAKE	CLOUD	18	[0, 0, 0]	-999	PAL1	0	R1162N
1981.341	1.485	2719594	REC_START	n/a	n/a	3	-999	n/a	SNAKE	n/a	n/a	18	[0, 0, 0]	-999	PAL1	0	R1162N
1982.826	3.531	2721079	REC_EVENT	1485.0	n/a	3	3	CLOUD	SNAKE	SNAKE	CLOUD	18	[0, 0, 0]	-999	PAL1	0	R1162N
1986.357	0.017	2724609	REC_END	n/a	n/a	3	-999	n/a	n/a	n/a	n/a	18	[0, 0, 0]	-999	PAL1	0	R1162N
1986.374	0.275	2724626	TEST_ORIENT	n/a	n/a	4	4	BEAK	n/a	BEAK	PET	18	[0, 0, 0]	-999	PAL1	0	R1162N
1987.242	0.0	2725494	REC_START	n/a	n/a	4	-999	n/a	n/a	n/a	n/a	18	[0, 0, 0]	-999	PAL1	0	R1162N
1987.242	4.0	2725494	TEST_PROBE	n/a	wordpools/wordpool_EN.txt	4	4	BEAK	n/a	BEAK	PET	18	[0, 0, 0]	-999	PAL1	0	R1162N
1992.257	0.002	2730509	REC_EVENT	5015.0	n/a	4	4	BEAK	<>	BEAK	PET	18	[0, 0, 0]	-999	PAL1	0	R1162N
1992.259	0.017	2730511	REC_END	n/a	n/a	4	-999	n/a	n/a	n/a	n/a	18	[0, 0, 0]	-999	PAL1	0	R1162N
1992.276	0.275	2730528	TEST_ORIENT	n/a	n/a	1	5	PIN	EAR	EAR	PIN	18	[0, 0, 0]	-999	PAL1	0	R1162N
1993.26	4.0	2731512	TEST_PROBE	n/a	wordpools/wordpool_EN.txt	1	5	PIN	EAR	EAR	PIN	18	[0, 0, 0]	-999	PAL1	0	R1162N
1993.26	1.768	2731512	REC_START	n/a	n/a	1	-999	n/a	EAR	n/a	n/a	18	[0, 0, 0]	-999	PAL1	0	R1162N
1995.028	3.249	2733280	REC_EVENT	1768.0	n/a	1	5	PIN	EAR	EAR	PIN	18	[0, 0, 0]	-999	PAL1	0	R1162N
1998.277	0.016	2736529	REC_END	n/a	n/a	1	-999	n/a	n/a	n/a	n/a	18	[0, 0, 0]	-999	PAL1	0	R1162N
1998.293	0.275	2736545	TEST_ORIENT	n/a	n/a	6	6	STAIR	n/a	CROWN	STAIR	18	[0, 0, 0]	-999	PAL1	0	R1162N
1999.277	4.0	2737529	TEST_PROBE	n/a	wordpools/wordpool_EN.txt	6	6	STAIR	n/a	CROWN	STAIR	18	[0, 0, 0]	-999	PAL1	0	R1162N
1999.278	5.008	2737530	REC_START	n/a	n/a	6	-999	n/a	n/a	n/a	n/a	18	[0, 0, 0]	-999	PAL1	0	R1162N
2004.286	0.001	2742537	REC_END	n/a	n/a	6	-999	n/a	n/a	n/a	n/a	18	[0, 0, 0]	-999	PAL1	0	R1162N
2004.287	1.558	2742538	REC_EVENT	5009.0	n/a	6	6	STAIR	<>	CROWN	STAIR	18	[0, 0, 0]	-999	PAL1	0	R1162N
