onset	duration	sample	trial_type	response_time	serialpos	probepos	probe_word	resp_word	study_1	study_2	list	test	answer	experiment	session	subject
0.0	68.744	160235	SESS_START	n/a	-999	-999	n/a	n/a	n/a	n/a	-999	[0, 0, 0]	-999	PAL1	0	R1031M
68.744	1.017	194603	START	n/a	-999	-999	n/a	n/a	n/a	n/a	-1	[-999, -999, -999]	-999	PAL1	0	R1031M
69.761	4.851	195112	PROB	4823	-999	-999	n/a	n/a	n/a	n/a	-1	[2, 5, 5]	12	PAL1	0	R1031M
74.612	5.319	197537	PROB	5299	-999	-999	n/a	n/a	n/a	n/a	-1	[5, 4, 2]	11	PAL1	0	R1031M
79.931	6.118	200196	PROB	6093	-999	-999	n/a	n/a	n/a	n/a	-1	[2, 5, 9]	16	PAL1	0	R1031M
86.049	3.399	203255	PROB	3399	-999	-999	n/a	n/a	n/a	n/a	-1	[1, 1, 7]	9	PAL1	0	R1031M
89.448	61.423	204954	STOP	n/a	-999	-999	n/a	n/a	n/a	n/a	-1	[-999, -999, -999]	-999	PAL1	0	R1031M
150.871	10.442	235663	ENCODING_START	n/a	0	-999	n/a	n/a	n/a	n/a	1	[0, 0, 0]	-999	PAL1	0	R1031M
161.313	1.017	240883	STUDY_ORIENT	n/a	1	5	CHEEK	SUN	SUN	CHEEK	1	[0, 0, 0]	-999	PAL1	0	R1031M
162.33	5.018	241392	STUDY_PAIR	n/a	1	5	CHEEK	SUN	SUN	CHEEK	1	[0, 0, 0]	-999	PAL1	0	R1031M
167.348	0.85	243900	STUDY_ORIENT	n/a	2	4	BEAN	SIGN	BEAN	SIGN	1	[0, 0, 0]	-999	PAL1	0	R1031M
168.198	5.018	244325	STUDY_PAIR	n/a	2	4	BEAN	SIGN	BEAN	SIGN	1	[0, 0, 0]	-999	PAL1	0	R1031M
173.216	0.933	246834	STUDY_ORIENT	n/a	3	1	SPRING	LAWN	SPRING	LAWN	1	[0, 0, 0]	-999	PAL1	0	R1031M
174.149	5.018	247301	STUDY_PAIR	n/a	3	1	SPRING	LAWN	SPRING	LAWN	1	[0, 0, 0]	-999	PAL1	0	R1031M
179.167	0.817	249809	STUDY_ORIENT	n/a	4	2	SHIRT	n/a	SHIRT	CHIEF	1	[0, 0, 0]	-999	PAL1	0	R1031M
179.984	5.034	250218	STUDY_PAIR	n/a	4	2	SHIRT	n/a	SHIRT	CHIEF	1	[0, 0, 0]	-999	PAL1	0	R1031M
185.018	0.899	252734	STUDY_ORIENT	n/a	5	3	MOLE	PET	MOLE	PET	1	[0, 0, 0]	-999	PAL1	0	R1031M
185.917	5.019	253184	STUDY_PAIR	n/a	5	3	MOLE	PET	MOLE	PET	1	[0, 0, 0]	-999	PAL1	0	R1031M
190.936	0.816	255693	STUDY_ORIENT	n/a	6	6	BOOT	FLUTE	BOOT	FLUTE	1	[0, 0, 0]	-999	PAL1	0	R1031M
191.752	4.018	256101	STUDY_PAIR	n/a	6	6	BOOT	FLUTE	BOOT	FLUTE	1	[0, 0, 0]	-999	PAL1	0	R1031M
195.77	0.999	258110	START	n/a	-999	-999	n/a	n/a	n/a	n/a	1	[-999, -999, -999]	-999	PAL1	0	R1031M
196.769	0.017	258609	MATH_START	n/a	-999	-999	n/a	n/a	n/a	n/a	1	[0, 0, 0]	-999	PAL1	0	R1031M
196.786	4.785	258618	PROB	4758	-999	-999	n/a	n/a	n/a	n/a	1	[3, 2, 5]	10	PAL1	0	R1031M
201.571	5.868	261010	PROB	5837	-999	-999	n/a	n/a	n/a	n/a	1	[8, 7, 8]	23	PAL1	0	R1031M
207.439	3.968	263944	PROB	3945	-999	-999	n/a	n/a	n/a	n/a	1	[9, 4, 7]	20	PAL1	0	R1031M
211.407	4.2	265928	PROB	4177	-999	-999	n/a	n/a	n/a	n/a	1	[3, 5, 7]	15	PAL1	0	R1031M
215.607	3.921	268027	PROB	3921	-999	-999	n/a	n/a	n/a	n/a	1	[1, 4, 8]	13	PAL1	0	R1031M
219.528	0.014	269988	STOP	n/a	-999	-999	n/a	n/a	n/a	n/a	1	[-999, -999, -999]	-999	PAL1	0	R1031M
219.542	0.0	269995	MATH_END	n/a	-999	-999	n/a	n/a	n/a	n/a	1	[0, 0, 0]	-999	PAL1	0	R1031M
219.542	0.016	269995	TEST_START	n/a	-999	-999	n/a	n/a	n/a	n/a	1	[0, 0, 0]	-999	PAL1	0	R1031M
219.558	1.017	270003	TEST_ORIENT	n/a	3	1	SPRING	LAWN	SPRING	LAWN	1	[0, 0, 0]	-999	PAL1	0	R1031M
220.575	0.001	270511	TEST_PROBE	n/a	3	1	SPRING	LAWN	SPRING	LAWN	1	[0, 0, 0]	-999	PAL1	0	R1031M
220.576	2.046	270512	REC_START	n/a	3	-999	n/a	LAWN	n/a	n/a	1	[0, 0, 0]	-999	PAL1	0	R1031M
222.622	2.962	271535	REC_EVENT	2046	3	1	SPRING	LAWN	SPRING	LAWN	1	[0, 0, 0]	-999	PAL1	0	R1031M
225.584	0.008	273015	REC_END	n/a	3	-999	n/a	n/a	n/a	n/a	1	[0, 0, 0]	-999	PAL1	0	R1031M
225.592	0.801	273019	TEST_ORIENT	n/a	4	2	SHIRT	n/a	SHIRT	CHIEF	1	[0, 0, 0]	-999	PAL1	0	R1031M
226.393	0.0	273420	TEST_PROBE	n/a	4	2	SHIRT	n/a	SHIRT	CHIEF	1	[0, 0, 0]	-999	PAL1	0	R1031M
226.393	5.026	273420	REC_START	n/a	4	-999	n/a	n/a	n/a	n/a	1	[0, 0, 0]	-999	PAL1	0	R1031M
231.419	0.001	275933	REC_END	n/a	4	-999	n/a	n/a	n/a	n/a	1	[0, 0, 0]	-999	PAL1	0	R1031M
231.42	0.007	275933	REC_EVENT	5027	4	2	SHIRT	<>	SHIRT	CHIEF	1	[0, 0, 0]	-999	PAL1	0	R1031M
231.427	0.8	275937	TEST_ORIENT	n/a	5	3	MOLE	PET	MOLE	PET	1	[0, 0, 0]	-999	PAL1	0	R1031M
232.227	0.001	276337	TEST_PROBE	n/a	5	3	MOLE	PET	MOLE	PET	1	[0, 0, 0]	-999	PAL1	0	R1031M
232.228	1.191	276337	REC_START	n/a	5	-999	n/a	PET	n/a	n/a	1	[0, 0, 0]	-999	PAL1	0	R1031M
233.419	3.817	276932	REC_EVENT	1191	5	3	MOLE	PET	MOLE	PET	1	[0, 0, 0]	-999	PAL1	0	R1031M
237.236	0.009	278841	REC_END	n/a	5	-999	n/a	n/a	n/a	n/a	1	[0, 0, 0]	-999	PAL1	0	R1031M
237.245	0.9	278845	TEST_ORIENT	n/a	2	4	BEAN	SIGN	BEAN	SIGN	1	[0, 0, 0]	-999	PAL1	0	R1031M
238.145	0.001	279295	TEST_PROBE	n/a	2	4	BEAN	SIGN	BEAN	SIGN	1	[0, 0, 0]	-999	PAL1	0	R1031M
238.146	1.4	279296	REC_START	n/a	2	-999	n/a	SIGN	n/a	n/a	1	[0, 0, 0]	-999	PAL1	0	R1031M
239.546	3.6	279996	REC_EVENT	1400	2	4	BEAN	SIGN	BEAN	SIGN	1	[0, 0, 0]	-999	PAL1	0	R1031M
243.146	0.017	281795	REC_END	n/a	2	-999	n/a	n/a	n/a	n/a	1	[0, 0, 0]	-999	PAL1	0	R1031M
243.163	1.034	281804	TEST_ORIENT	n/a	1	5	CHEEK	SUN	SUN	CHEEK	1	[0, 0, 0]	-999	PAL1	0	R1031M
244.197	0.0	282321	TEST_PROBE	n/a	1	5	CHEEK	SUN	SUN	CHEEK	1	[0, 0, 0]	-999	PAL1	0	R1031M
244.197	4.196	282321	REC_START	n/a	1	-999	n/a	SUN	n/a	n/a	1	[0, 0, 0]	-999	PAL1	0	R1031M
248.393	0.821	284419	REC_EVENT	4196	1	5	CHEEK	SUN	SUN	CHEEK	1	[0, 0, 0]	-999	PAL1	0	R1031M
249.214	0.017	284829	REC_END	n/a	1	-999	n/a	n/a	n/a	n/a	1	[0, 0, 0]	-999	PAL1	0	R1031M
249.231	0.867	284838	TEST_ORIENT	n/a	6	6	BOOT	FLUTE	BOOT	FLUTE	1	[0, 0, 0]	-999	PAL1	0	R1031M
250.098	0.0	285271	REC_START	n/a	6	-999	n/a	FLUTE	n/a	n/a	1	[0, 0, 0]	-999	PAL1	0	R1031M
250.098	2.068	285271	TEST_PROBE	n/a	6	6	BOOT	FLUTE	BOOT	FLUTE	1	[0, 0, 0]	-999	PAL1	0	R1031M
252.166	2.949	286305	REC_EVENT	2068	6	6	BOOT	FLUTE	BOOT	FLUTE	1	[0, 0, 0]	-999	PAL1	0	R1031M
255.115	10.732	287779	REC_END	n/a	6	-999	n/a	n/a	n/a	n/a	1	[0, 0, 0]	-999	PAL1	0	R1031M
265.847	10.439	293145	ENCODING_START	n/a	0	-999	n/a	n/a	n/a	n/a	2	[0, 0, 0]	-999	PAL1	0	R1031M
276.286	1.017	298364	STUDY_ORIENT	n/a	1	1	PRINCE	DOLL	PRINCE	DOLL	2	[0, 0, 0]	-999	PAL1	0	R1031M
277.303	5.018	298872	STUDY_PAIR	n/a	1	1	PRINCE	DOLL	PRINCE	DOLL	2	[0, 0, 0]	-999	PAL1	0	R1031M
282.321	0.833	301381	STUDY_ORIENT	n/a	2	2	SEAL	FAN	SEAL	FAN	2	[0, 0, 0]	-999	PAL1	0	R1031M
283.154	5.018	301797	STUDY_PAIR	n/a	2	2	SEAL	FAN	SEAL	FAN	2	[0, 0, 0]	-999	PAL1	0	R1031M
288.172	0.783	304306	STUDY_ORIENT	n/a	3	5	FARM	n/a	BOX	FARM	2	[0, 0, 0]	-999	PAL1	0	R1031M
288.955	5.018	304698	STUDY_PAIR	n/a	3	5	FARM	n/a	BOX	FARM	2	[0, 0, 0]	-999	PAL1	0	R1031M
293.973	0.782	307206	STUDY_ORIENT	n/a	4	4	JAIL	STONE	STONE	JAIL	2	[0, 0, 0]	-999	PAL1	0	R1031M
294.755	5.018	307597	STUDY_PAIR	n/a	4	4	JAIL	STONE	STONE	JAIL	2	[0, 0, 0]	-999	PAL1	0	R1031M
299.773	0.984	310106	STUDY_ORIENT	n/a	5	3	NEST	n/a	SHELL	NEST	2	[0, 0, 0]	-999	PAL1	0	R1031M
300.757	5.034	310598	STUDY_PAIR	n/a	5	3	NEST	n/a	SHELL	NEST	2	[0, 0, 0]	-999	PAL1	0	R1031M
305.791	0.834	313115	STUDY_ORIENT	n/a	6	6	LAMP	n/a	LAMP	PEACH	2	[0, 0, 0]	-999	PAL1	0	R1031M
306.625	4.018	313532	STUDY_PAIR	n/a	6	6	LAMP	n/a	LAMP	PEACH	2	[0, 0, 0]	-999	PAL1	0	R1031M
310.643	0.999	315541	START	n/a	-999	-999	n/a	n/a	n/a	n/a	2	[-999, -999, -999]	-999	PAL1	0	R1031M
311.642	0.017	316040	MATH_START	n/a	-999	-999	n/a	n/a	n/a	n/a	2	[0, 0, 0]	-999	PAL1	0	R1031M
311.659	6.935	316048	PROB	6909	-999	-999	n/a	n/a	n/a	n/a	2	[6, 2, 3]	11	PAL1	0	R1031M
318.594	3.651	319516	PROB	3622	-999	-999	n/a	n/a	n/a	n/a	2	[4, 9, 3]	16	PAL1	0	R1031M
322.245	3.751	321341	PROB	3723	-999	-999	n/a	n/a	n/a	n/a	2	[2, 6, 8]	16	PAL1	0	R1031M
325.996	3.817	323216	PROB	3795	-999	-999	n/a	n/a	n/a	n/a	2	[9, 1, 7]	17	PAL1	0	R1031M
329.813	3.355	325125	PROB	3355	-999	-999	n/a	n/a	n/a	n/a	2	[3, 9, 1]	13	PAL1	0	R1031M
333.168	0.013	326802	STOP	n/a	-999	-999	n/a	n/a	n/a	n/a	2	[-999, -999, -999]	-999	PAL1	0	R1031M
333.181	0.0	326808	TEST_START	n/a	-999	-999	n/a	n/a	n/a	n/a	2	[0, 0, 0]	-999	PAL1	0	R1031M
333.181	0.017	326808	MATH_END	n/a	-999	-999	n/a	n/a	n/a	n/a	2	[0, 0, 0]	-999	PAL1	0	R1031M
333.198	0.85	326817	TEST_ORIENT	n/a	1	1	PRINCE	DOLL	PRINCE	DOLL	2	[0, 0, 0]	-999	PAL1	0	R1031M
334.048	0.0	327242	TEST_PROBE	n/a	1	1	PRINCE	DOLL	PRINCE	DOLL	2	[0, 0, 0]	-999	PAL1	0	R1031M
334.048	1.229	327242	REC_START	n/a	1	-999	n/a	DOLL	n/a	n/a	2	[0, 0, 0]	-999	PAL1	0	R1031M
335.277	3.788	327856	REC_EVENT	1229	1	1	PRINCE	DOLL	PRINCE	DOLL	2	[0, 0, 0]	-999	PAL1	0	R1031M
339.065	0.017	329750	REC_END	n/a	1	-999	n/a	n/a	n/a	n/a	2	[0, 0, 0]	-999	PAL1	0	R1031M
339.082	0.799	329759	TEST_ORIENT	n/a	2	2	SEAL	FAN	SEAL	FAN	2	[0, 0, 0]	-999	PAL1	0	R1031M
339.881	0.0	330158	TEST_PROBE	n/a	2	2	SEAL	FAN	SEAL	FAN	2	[0, 0, 0]	-999	PAL1	0	R1031M
339.881	1.148	330158	REC_START	n/a	2	-999	n/a	FAN	n/a	n/a	2	[0, 0, 0]	-999	PAL1	0	R1031M
341.029	3.87	330732	REC_EVENT	1148	2	2	SEAL	FAN	SEAL	FAN	2	[0, 0, 0]	-999	PAL1	0	R1031M
344.899	0.017	332667	REC_END	n/a	2	-999	n/a	n/a	n/a	n/a	2	[0, 0, 0]	-999	PAL1	0	R1031M
344.916	0.8	332675	TEST_ORIENT	n/a	5	3	NEST	n/a	SHELL	NEST	2	[0, 0, 0]	-999	PAL1	0	R1031M
345.716	0.0	333075	TEST_PROBE	n/a	5	3	NEST	n/a	SHELL	NEST	2	[0, 0, 0]	-999	PAL1	0	R1031M
345.716	0.557	333075	REC_START	n/a	5	-999	n/a	n/a	n/a	n/a	2	[0, 0, 0]	-999	PAL1	0	R1031M
346.273	4.46	333354	REC_EVENT	557	5	3	NEST	<>	SHELL	NEST	2	[0, 0, 0]	-999	PAL1	0	R1031M
350.733	0.017	335583	REC_END	n/a	5	-999	n/a	n/a	n/a	n/a	2	[0, 0, 0]	-999	PAL1	0	R1031M
350.75	0.95	335592	TEST_ORIENT	n/a	4	4	JAIL	STONE	STONE	JAIL	2	[0, 0, 0]	-999	PAL1	0	R1031M
351.7	0.001	336067	TEST_PROBE	n/a	4	4	JAIL	STONE	STONE	JAIL	2	[0, 0, 0]	-999	PAL1	0	R1031M
351.701	0.983	336067	REC_START	n/a	4	-999	n/a	STONE	n/a	n/a	2	[0, 0, 0]	-999	PAL1	0	R1031M
352.684	4.025	336559	REC_EVENT	983	4	4	JAIL	STONE	STONE	JAIL	2	[0, 0, 0]	-999	PAL1	0	R1031M
356.709	0.009	338571	REC_END	n/a	4	-999	n/a	n/a	n/a	n/a	2	[0, 0, 0]	-999	PAL1	0	R1031M
356.718	0.784	338576	TEST_ORIENT	n/a	3	5	FARM	n/a	BOX	FARM	2	[0, 0, 0]	-999	PAL1	0	R1031M
357.502	0.001	338968	TEST_PROBE	n/a	3	5	FARM	n/a	BOX	FARM	2	[0, 0, 0]	-999	PAL1	0	R1031M
357.503	0.278	338968	REC_START	n/a	3	-999	n/a	n/a	n/a	n/a	2	[0, 0, 0]	-999	PAL1	0	R1031M
357.781	4.73	339107	REC_EVENT	278	3	5	FARM	<>	BOX	FARM	2	[0, 0, 0]	-999	PAL1	0	R1031M
362.511	0.009	341472	REC_END	n/a	3	-999	n/a	n/a	n/a	n/a	2	[0, 0, 0]	-999	PAL1	0	R1031M
362.52	0.8	341476	TEST_ORIENT	n/a	6	6	LAMP	n/a	LAMP	PEACH	2	[0, 0, 0]	-999	PAL1	0	R1031M
363.32	0.001	341876	TEST_PROBE	n/a	6	6	LAMP	n/a	LAMP	PEACH	2	[0, 0, 0]	-999	PAL1	0	R1031M
363.321	0.0	341877	REC_START	n/a	6	-999	n/a	n/a	n/a	n/a	2	[0, 0, 0]	-999	PAL1	0	R1031M
363.321	5.008	341877	REC_EVENT	0	6	6	LAMP	<>	LAMP	PEACH	2	[0, 0, 0]	-999	PAL1	0	R1031M
368.329	16.542	344381	REC_END	n/a	6	-999	n/a	n/a	n/a	n/a	2	[0, 0, 0]	-999	PAL1	0	R1031M
384.871	10.439	352651	ENCODING_START	n/a	0	-999	n/a	n/a	n/a	n/a	3	[0, 0, 0]	-999	PAL1	0	R1031M
395.31	0.983	357870	STUDY_ORIENT	n/a	1	1	PIT	TRUCK	TRUCK	PIT	3	[0, 0, 0]	-999	PAL1	0	R1031M
396.293	5.018	358361	STUDY_PAIR	n/a	1	1	PIT	TRUCK	TRUCK	PIT	3	[0, 0, 0]	-999	PAL1	0	R1031M
401.311	0.834	360870	STUDY_ORIENT	n/a	2	6	THREAD	LIP	THREAD	LIP	3	[0, 0, 0]	-999	PAL1	0	R1031M
402.145	5.034	361287	STUDY_PAIR	n/a	2	6	THREAD	LIP	THREAD	LIP	3	[0, 0, 0]	-999	PAL1	0	R1031M
407.179	0.95	363804	STUDY_ORIENT	n/a	3	3	SMILE	n/a	TOAST	SMILE	3	[0, 0, 0]	-999	PAL1	0	R1031M
408.129	5.018	364279	STUDY_PAIR	n/a	3	3	SMILE	n/a	TOAST	SMILE	3	[0, 0, 0]	-999	PAL1	0	R1031M
413.147	0.866	366787	STUDY_ORIENT	n/a	4	2	LAKE	n/a	LAKE	CONE	3	[0, 0, 0]	-999	PAL1	0	R1031M
414.013	5.018	367220	STUDY_PAIR	n/a	4	2	LAKE	n/a	LAKE	CONE	3	[0, 0, 0]	-999	PAL1	0	R1031M
419.031	1.034	369729	STUDY_ORIENT	n/a	5	5	BATH	n/a	BATH	SWORD	3	[0, 0, 0]	-999	PAL1	0	R1031M
420.065	5.034	370246	STUDY_PAIR	n/a	5	5	BATH	n/a	BATH	SWORD	3	[0, 0, 0]	-999	PAL1	0	R1031M
425.099	0.799	372763	STUDY_ORIENT	n/a	6	4	ROSE	SUN	ROSE	SNOW	3	[0, 0, 0]	-999	PAL1	0	R1031M
425.898	4.001	373162	STUDY_PAIR	n/a	6	4	ROSE	SUN	ROSE	SNOW	3	[0, 0, 0]	-999	PAL1	0	R1031M
429.899	1.0	375162	START	n/a	-999	-999	n/a	n/a	n/a	n/a	3	[-999, -999, -999]	-999	PAL1	0	R1031M
430.899	0.017	375662	MATH_START	n/a	-999	-999	n/a	n/a	n/a	n/a	3	[0, 0, 0]	-999	PAL1	0	R1031M
430.916	3.984	375671	PROB	3963	-999	-999	n/a	n/a	n/a	n/a	3	[6, 5, 1]	12	PAL1	0	R1031M
434.9	4.868	377663	PROB	4843	-999	-999	n/a	n/a	n/a	n/a	3	[9, 7, 8]	24	PAL1	0	R1031M
439.768	3.568	380096	PROB	3544	-999	-999	n/a	n/a	n/a	n/a	3	[5, 8, 7]	20	PAL1	0	R1031M
443.336	3.601	381880	PROB	3567	-999	-999	n/a	n/a	n/a	n/a	3	[5, 9, 2]	16	PAL1	0	R1031M
446.937	2.749	383681	PROB	2718	-999	-999	n/a	n/a	n/a	n/a	3	[5, 3, 1]	9	PAL1	0	R1031M
449.686	3.217	385055	PROB	3217	-999	-999	n/a	n/a	n/a	n/a	3	[1, 2, 9]	12	PAL1	0	R1031M
452.903	0.017	386663	STOP	n/a	-999	-999	n/a	n/a	n/a	n/a	3	[-999, -999, -999]	-999	PAL1	0	R1031M
452.92	0.0	386672	TEST_START	n/a	-999	-999	n/a	n/a	n/a	n/a	3	[0, 0, 0]	-999	PAL1	0	R1031M
452.92	0.018	386672	MATH_END	n/a	-999	-999	n/a	n/a	n/a	n/a	3	[0, 0, 0]	-999	PAL1	0	R1031M
452.938	1.034	386681	TEST_ORIENT	n/a	1	1	PIT	TRUCK	TRUCK	PIT	3	[0, 0, 0]	-999	PAL1	0	R1031M
453.972	0.0	387198	TEST_PROBE	n/a	1	1	PIT	TRUCK	TRUCK	PIT	3	[0, 0, 0]	-999	PAL1	0	R1031M
453.972	2.133	387198	REC_START	n/a	1	-999	n/a	TRUCK	n/a	n/a	3	[0, 0, 0]	-999	PAL1	0	R1031M
456.105	2.884	388264	REC_EVENT	2133	1	1	PIT	TRUCK	TRUCK	PIT	3	[0, 0, 0]	-999	PAL1	0	R1031M
458.989	0.017	389706	REC_END	n/a	1	-999	n/a	n/a	n/a	n/a	3	[0, 0, 0]	-999	PAL1	0	R1031M
459.006	1.05	389714	TEST_ORIENT	n/a	4	2	LAKE	n/a	LAKE	CONE	3	[0, 0, 0]	-999	PAL1	0	R1031M
460.056	0.001	390239	TEST_PROBE	n/a	4	2	LAKE	n/a	LAKE	CONE	3	[0, 0, 0]	-999	PAL1	0	R1031M
460.057	0.464	390240	REC_START	n/a	4	-999	n/a	n/a	n/a	n/a	3	[0, 0, 0]	-999	PAL1	0	R1031M
460.521	4.545	390472	REC_EVENT	464	4	2	LAKE	<>	LAKE	CONE	3	[0, 0, 0]	-999	PAL1	0	R1031M
465.066	0.008	392744	REC_END	n/a	4	-999	n/a	n/a	n/a	n/a	3	[0, 0, 0]	-999	PAL1	0	R1031M
465.074	0.917	392748	TEST_ORIENT	n/a	3	3	SMILE	n/a	TOAST	SMILE	3	[0, 0, 0]	-999	PAL1	0	R1031M
465.991	0.0	393207	TEST_PROBE	n/a	3	3	SMILE	n/a	TOAST	SMILE	3	[0, 0, 0]	-999	PAL1	0	R1031M
465.991	0.0	393207	REC_START	n/a	3	-999	n/a	n/a	n/a	n/a	3	[0, 0, 0]	-999	PAL1	0	R1031M
465.991	5.026	393207	REC_EVENT	0	3	3	SMILE	<>	TOAST	SMILE	3	[0, 0, 0]	-999	PAL1	0	R1031M
471.017	0.008	395719	REC_END	n/a	3	-999	n/a	n/a	n/a	n/a	3	[0, 0, 0]	-999	PAL1	0	R1031M
471.025	0.849	395723	TEST_ORIENT	n/a	6	4	ROSE	SUN	ROSE	SNOW	3	[0, 0, 0]	-999	PAL1	0	R1031M
471.874	0.001	396148	TEST_PROBE	n/a	6	4	ROSE	SUN	ROSE	SNOW	3	[0, 0, 0]	-999	PAL1	0	R1031M
471.875	2.532	396148	REC_START	n/a	6	-999	n/a	SUN	n/a	n/a	3	[0, 0, 0]	-999	PAL1	0	R1031M
474.407	2.468	397414	REC_EVENT	2532	6	4	ROSE	SUN	ROSE	SNOW	3	[0, 0, 0]	-999	PAL1	0	R1031M
476.875	0.017	398648	REC_END	n/a	6	-999	n/a	n/a	n/a	n/a	3	[0, 0, 0]	-999	PAL1	0	R1031M
476.892	0.9	398657	TEST_ORIENT	n/a	5	5	BATH	n/a	BATH	SWORD	3	[0, 0, 0]	-999	PAL1	0	R1031M
477.792	0.001	399106	TEST_PROBE	n/a	5	5	BATH	n/a	BATH	SWORD	3	[0, 0, 0]	-999	PAL1	0	R1031M
477.793	0.975	399107	REC_START	n/a	5	-999	n/a	n/a	n/a	n/a	3	[0, 0, 0]	-999	PAL1	0	R1031M
478.768	4.041	399594	REC_EVENT	975	5	5	BATH	<>	BATH	SWORD	3	[0, 0, 0]	-999	PAL1	0	R1031M
482.809	0.017	401615	REC_END	n/a	5	-999	n/a	n/a	n/a	n/a	3	[0, 0, 0]	-999	PAL1	0	R1031M
482.826	0.917	401623	TEST_ORIENT	n/a	2	6	THREAD	LIP	THREAD	LIP	3	[0, 0, 0]	-999	PAL1	0	R1031M
483.743	0.001	402082	TEST_PROBE	n/a	2	6	THREAD	LIP	THREAD	LIP	3	[0, 0, 0]	-999	PAL1	0	R1031M
483.744	1.806	402082	REC_START	n/a	2	-999	n/a	LIP	n/a	n/a	3	[0, 0, 0]	-999	PAL1	0	R1031M
485.55	3.202	402985	REC_EVENT	1806	2	6	THREAD	LIP	THREAD	LIP	3	[0, 0, 0]	-999	PAL1	0	R1031M
488.752	20.584	404586	REC_END	n/a	2	-999	n/a	n/a	n/a	n/a	3	[0, 0, 0]	-999	PAL1	0	R1031M
509.336	10.448	414877	ENCODING_START	n/a	0	-999	n/a	n/a	n/a	n/a	4	[0, 0, 0]	-999	PAL1	0	R1031M
519.784	0.933	420100	STUDY_ORIENT	n/a	1	5	CAVE	NAIL	NAIL	CAVE	4	[0, 0, 0]	-999	PAL1	0	R1031M
520.717	5.018	420567	STUDY_PAIR	n/a	1	5	CAVE	NAIL	NAIL	CAVE	4	[0, 0, 0]	-999	PAL1	0	R1031M
525.735	0.784	423076	STUDY_ORIENT	n/a	2	2	STICK	SWAMP	STICK	SEA	4	[0, 0, 0]	-999	PAL1	0	R1031M
526.519	5.018	423467	STUDY_PAIR	n/a	2	2	STICK	SWAMP	STICK	SEA	4	[0, 0, 0]	-999	PAL1	0	R1031M
531.537	0.967	425976	STUDY_ORIENT	n/a	3	3	SWAMP	BOARD	BOARD	SWAMP	4	[0, 0, 0]	-999	PAL1	0	R1031M
532.504	5.034	426460	STUDY_PAIR	n/a	3	3	SWAMP	BOARD	BOARD	SWAMP	4	[0, 0, 0]	-999	PAL1	0	R1031M
537.538	0.867	428976	STUDY_ORIENT	n/a	4	6	TENT	CAVE	KITE	TENT	4	[0, 0, 0]	-999	PAL1	0	R1031M
538.405	5.018	429410	STUDY_PAIR	n/a	4	6	TENT	CAVE	KITE	TENT	4	[0, 0, 0]	-999	PAL1	0	R1031M
543.423	0.833	431919	STUDY_ORIENT	n/a	5	1	RICE	SPEAR	RICE	SPEAR	4	[0, 0, 0]	-999	PAL1	0	R1031M
544.256	5.018	432335	STUDY_PAIR	n/a	5	1	RICE	SPEAR	RICE	SPEAR	4	[0, 0, 0]	-999	PAL1	0	R1031M
549.274	0.8	434844	STUDY_ORIENT	n/a	6	4	BRANCH	SPARK	SPARK	BRANCH	4	[0, 0, 0]	-999	PAL1	0	R1031M
550.074	4.018	435244	STUDY_PAIR	n/a	6	4	BRANCH	SPARK	SPARK	BRANCH	4	[0, 0, 0]	-999	PAL1	0	R1031M
554.092	0.999	437253	START	n/a	-999	-999	n/a	n/a	n/a	n/a	4	[-999, -999, -999]	-999	PAL1	0	R1031M
555.091	0.017	437752	MATH_START	n/a	-999	-999	n/a	n/a	n/a	n/a	4	[0, 0, 0]	-999	PAL1	0	R1031M
555.108	4.8	437761	PROB	4771	-999	-999	n/a	n/a	n/a	n/a	4	[1, 8, 1]	10	PAL1	0	R1031M
559.908	2.668	440160	PROB	2644	-999	-999	n/a	n/a	n/a	n/a	4	[2, 2, 1]	5	PAL1	0	R1031M
562.576	4.501	441494	PROB	4480	-999	-999	n/a	n/a	n/a	n/a	4	[6, 8, 2]	16	PAL1	0	R1031M
567.077	3.251	443744	PROB	3227	-999	-999	n/a	n/a	n/a	n/a	4	[3, 2, 3]	8	PAL1	0	R1031M
570.328	4.192	445370	PROB	4192	-999	-999	n/a	n/a	n/a	n/a	4	[3, 1, 6]	10	PAL1	0	R1031M
574.52	0.009	447466	STOP	n/a	-999	-999	n/a	n/a	n/a	n/a	4	[-999, -999, -999]	-999	PAL1	0	R1031M
574.529	0.0	447470	MATH_END	n/a	-999	-999	n/a	n/a	n/a	n/a	4	[0, 0, 0]	-999	PAL1	0	R1031M
574.529	0.017	447470	TEST_START	n/a	-999	-999	n/a	n/a	n/a	n/a	4	[0, 0, 0]	-999	PAL1	0	R1031M
574.546	0.8	447479	TEST_ORIENT	n/a	5	1	RICE	SPEAR	RICE	SPEAR	4	[0, 0, 0]	-999	PAL1	0	R1031M
575.346	0.0	447878	TEST_PROBE	n/a	5	1	RICE	SPEAR	RICE	SPEAR	4	[0, 0, 0]	-999	PAL1	0	R1031M
575.346	3.73	447878	REC_START	n/a	5	-999	n/a	SPEAR	n/a	n/a	4	[0, 0, 0]	-999	PAL1	0	R1031M
579.076	1.287	449743	REC_EVENT	3730	5	1	RICE	SPEAR	RICE	SPEAR	4	[0, 0, 0]	-999	PAL1	0	R1031M
580.363	0.017	450387	REC_END	n/a	5	-999	n/a	n/a	n/a	n/a	4	[0, 0, 0]	-999	PAL1	0	R1031M
580.38	0.817	450395	TEST_ORIENT	n/a	2	2	STICK	SWAMP	STICK	SEA	4	[0, 0, 0]	-999	PAL1	0	R1031M
581.197	0.0	450804	REC_START	n/a	2	-999	n/a	SWAMP	n/a	n/a	4	[0, 0, 0]	-999	PAL1	0	R1031M
581.197	3.126	450804	TEST_PROBE	n/a	2	2	STICK	SWAMP	STICK	SEA	4	[0, 0, 0]	-999	PAL1	0	R1031M
584.323	1.891	452367	REC_EVENT	3126	2	2	STICK	SWAMP	STICK	SEA	4	[0, 0, 0]	-999	PAL1	0	R1031M
586.214	0.017	453312	REC_END	n/a	2	-999	n/a	n/a	n/a	n/a	4	[0, 0, 0]	-999	PAL1	0	R1031M
586.231	0.984	453320	TEST_ORIENT	n/a	3	3	SWAMP	BOARD	BOARD	SWAMP	4	[0, 0, 0]	-999	PAL1	0	R1031M
587.215	0.0	453812	TEST_PROBE	n/a	3	3	SWAMP	BOARD	BOARD	SWAMP	4	[0, 0, 0]	-999	PAL1	0	R1031M
587.215	3.231	453812	REC_START	n/a	3	-999	n/a	BOARD	n/a	n/a	4	[0, 0, 0]	-999	PAL1	0	R1031M
590.446	1.794	455428	REC_EVENT	3231	3	3	SWAMP	BOARD	BOARD	SWAMP	4	[0, 0, 0]	-999	PAL1	0	R1031M
592.24	0.009	456325	REC_END	n/a	3	-999	n/a	n/a	n/a	n/a	4	[0, 0, 0]	-999	PAL1	0	R1031M
592.249	0.8	456329	TEST_ORIENT	n/a	6	4	BRANCH	SPARK	SPARK	BRANCH	4	[0, 0, 0]	-999	PAL1	0	R1031M
593.049	0.001	456729	TEST_PROBE	n/a	6	4	BRANCH	SPARK	SPARK	BRANCH	4	[0, 0, 0]	-999	PAL1	0	R1031M
593.05	2.812	456730	REC_START	n/a	6	-999	n/a	SPARK	n/a	n/a	4	[0, 0, 0]	-999	PAL1	0	R1031M
595.862	2.196	458135	REC_EVENT	2812	6	4	BRANCH	SPARK	SPARK	BRANCH	4	[0, 0, 0]	-999	PAL1	0	R1031M
598.058	0.009	459233	REC_END	n/a	6	-999	n/a	n/a	n/a	n/a	4	[0, 0, 0]	-999	PAL1	0	R1031M
598.067	0.867	459238	TEST_ORIENT	n/a	1	5	CAVE	NAIL	NAIL	CAVE	4	[0, 0, 0]	-999	PAL1	0	R1031M
598.934	0.0	459671	TEST_PROBE	n/a	1	5	CAVE	NAIL	NAIL	CAVE	4	[0, 0, 0]	-999	PAL1	0	R1031M
598.934	1.136	459671	REC_START	n/a	1	-999	n/a	NAIL	n/a	n/a	4	[0, 0, 0]	-999	PAL1	0	R1031M
600.07	3.881	460239	REC_EVENT	1136	1	5	CAVE	NAIL	NAIL	CAVE	4	[0, 0, 0]	-999	PAL1	0	R1031M
603.951	0.017	462180	REC_END	n/a	1	-999	n/a	n/a	n/a	n/a	4	[0, 0, 0]	-999	PAL1	0	R1031M
603.968	0.882	462188	TEST_ORIENT	n/a	4	6	TENT	CAVE	KITE	TENT	4	[0, 0, 0]	-999	PAL1	0	R1031M
604.85	0.001	462629	TEST_PROBE	n/a	4	6	TENT	CAVE	KITE	TENT	4	[0, 0, 0]	-999	PAL1	0	R1031M
604.851	1.815	462629	REC_START	n/a	4	-999	n/a	CAVE	n/a	n/a	4	[0, 0, 0]	-999	PAL1	0	R1031M
606.666	3.185	463537	REC_EVENT	1815	4	6	TENT	CAVE	KITE	TENT	4	[0, 0, 0]	-999	PAL1	0	R1031M
609.851	3.876	465129	REC_END	n/a	4	-999	n/a	n/a	n/a	n/a	4	[0, 0, 0]	-999	PAL1	0	R1031M
613.727	10.445	467067	ENCODING_START	n/a	0	-999	n/a	n/a	n/a	n/a	5	[0, 0, 0]	-999	PAL1	0	R1031M
624.172	0.967	472289	STUDY_ORIENT	n/a	1	3	BOMB	ARM	ARM	BOMB	5	[0, 0, 0]	-999	PAL1	0	R1031M
625.139	5.034	472772	STUDY_PAIR	n/a	1	3	BOMB	ARM	ARM	BOMB	5	[0, 0, 0]	-999	PAL1	0	R1031M
630.173	0.917	475289	STUDY_ORIENT	n/a	2	2	SLUSH	BEE	SLUSH	BEE	5	[0, 0, 0]	-999	PAL1	0	R1031M
631.09	5.018	475748	STUDY_PAIR	n/a	2	2	SLUSH	BEE	SLUSH	BEE	5	[0, 0, 0]	-999	PAL1	0	R1031M
636.108	0.883	478256	STUDY_ORIENT	n/a	3	1	WAND	GEESE	WAND	GEESE	5	[0, 0, 0]	-999	PAL1	0	R1031M
636.991	5.018	478698	STUDY_PAIR	n/a	3	1	WAND	GEESE	WAND	GEESE	5	[0, 0, 0]	-999	PAL1	0	R1031M
642.009	0.934	481207	STUDY_ORIENT	n/a	4	6	DITCH	BED	DITCH	BED	5	[0, 0, 0]	-999	PAL1	0	R1031M
642.943	5.034	481674	STUDY_PAIR	n/a	4	6	DITCH	BED	DITCH	BED	5	[0, 0, 0]	-999	PAL1	0	R1031M
647.977	0.967	484190	STUDY_ORIENT	n/a	5	5	OWL	HORSE	HORSE	OWL	5	[0, 0, 0]	-999	PAL1	0	R1031M
648.944	5.034	484674	STUDY_PAIR	n/a	5	5	OWL	HORSE	HORSE	OWL	5	[0, 0, 0]	-999	PAL1	0	R1031M
653.978	0.799	487190	STUDY_ORIENT	n/a	6	4	ROCK	PIPE	ROCK	PIPE	5	[0, 0, 0]	-999	PAL1	0	R1031M
654.777	4.001	487590	STUDY_PAIR	n/a	6	4	ROCK	PIPE	ROCK	PIPE	5	[0, 0, 0]	-999	PAL1	0	R1031M
658.778	1.0	489590	START	n/a	-999	-999	n/a	n/a	n/a	n/a	5	[-999, -999, -999]	-999	PAL1	0	R1031M
659.778	0.017	490090	MATH_START	n/a	-999	-999	n/a	n/a	n/a	n/a	5	[0, 0, 0]	-999	PAL1	0	R1031M
659.795	4.168	490099	PROB	4141	-999	-999	n/a	n/a	n/a	n/a	5	[6, 1, 2]	9	PAL1	0	R1031M
663.963	4.684	492182	PROB	4660	-999	-999	n/a	n/a	n/a	n/a	5	[6, 3, 8]	17	PAL1	0	R1031M
668.647	3.535	494524	PROB	3513	-999	-999	n/a	n/a	n/a	n/a	5	[2, 2, 6]	10	PAL1	0	R1031M
672.182	2.767	496292	PROB	2745	-999	-999	n/a	n/a	n/a	n/a	5	[3, 2, 2]	7	PAL1	0	R1031M
674.949	3.501	497675	PROB	3475	-999	-999	n/a	n/a	n/a	n/a	5	[9, 9, 2]	20	PAL1	0	R1031M
678.45	3.534	499425	PROB	3534	-999	-999	n/a	n/a	n/a	n/a	5	[7, 6, 7]	20	PAL1	0	R1031M
681.984	0.016	501192	STOP	n/a	-999	-999	n/a	n/a	n/a	n/a	5	[-999, -999, -999]	-999	PAL1	0	R1031M
682.0	0.0	501200	MATH_END	n/a	-999	-999	n/a	n/a	n/a	n/a	5	[0, 0, 0]	-999	PAL1	0	R1031M
682.0	0.017	501200	TEST_START	n/a	-999	-999	n/a	n/a	n/a	n/a	5	[0, 0, 0]	-999	PAL1	0	R1031M
682.017	0.967	501209	TEST_ORIENT	n/a	3	1	WAND	GEESE	WAND	GEESE	5	[0, 0, 0]	-999	PAL1	0	R1031M
682.984	0.001	501692	TEST_PROBE	n/a	3	1	WAND	GEESE	WAND	GEESE	5	[0, 0, 0]	-999	PAL1	0	R1031M
682.985	3.129	501692	REC_START	n/a	3	-999	n/a	GEESE	n/a	n/a	5	[0, 0, 0]	-999	PAL1	0	R1031M
686.114	1.887	503257	REC_EVENT	3129	3	1	WAND	GEESE	WAND	GEESE	5	[0, 0, 0]	-999	PAL1	0	R1031M
688.001	0.017	504200	REC_END	n/a	3	-999	n/a	n/a	n/a	n/a	5	[0, 0, 0]	-999	PAL1	0	R1031M
688.018	1.017	504209	TEST_ORIENT	n/a	2	2	SLUSH	BEE	SLUSH	BEE	5	[0, 0, 0]	-999	PAL1	0	R1031M
689.035	0.001	504717	TEST_PROBE	n/a	2	2	SLUSH	BEE	SLUSH	BEE	5	[0, 0, 0]	-999	PAL1	0	R1031M
689.036	1.397	504718	REC_START	n/a	2	-999	n/a	BEE	n/a	n/a	5	[0, 0, 0]	-999	PAL1	0	R1031M
690.433	3.611	505416	REC_EVENT	1397	2	2	SLUSH	BEE	SLUSH	BEE	5	[0, 0, 0]	-999	PAL1	0	R1031M
694.044	0.009	507221	REC_END	n/a	2	-999	n/a	n/a	n/a	n/a	5	[0, 0, 0]	-999	PAL1	0	R1031M
694.053	0.9	507226	TEST_ORIENT	n/a	1	3	BOMB	ARM	ARM	BOMB	5	[0, 0, 0]	-999	PAL1	0	R1031M
694.953	0.0	507676	TEST_PROBE	n/a	1	3	BOMB	ARM	ARM	BOMB	5	[0, 0, 0]	-999	PAL1	0	R1031M
694.953	0.988	507676	REC_START	n/a	1	-999	n/a	ARM	n/a	n/a	5	[0, 0, 0]	-999	PAL1	0	R1031M
695.941	4.029	508170	REC_EVENT	988	1	3	BOMB	ARM	ARM	BOMB	5	[0, 0, 0]	-999	PAL1	0	R1031M
699.97	0.017	510184	REC_END	n/a	1	-999	n/a	n/a	n/a	n/a	5	[0, 0, 0]	-999	PAL1	0	R1031M
699.987	0.799	510193	TEST_ORIENT	n/a	6	4	ROCK	PIPE	ROCK	PIPE	5	[0, 0, 0]	-999	PAL1	0	R1031M
700.786	0.001	510592	TEST_PROBE	n/a	6	4	ROCK	PIPE	ROCK	PIPE	5	[0, 0, 0]	-999	PAL1	0	R1031M
700.787	2.526	510593	REC_START	n/a	6	-999	n/a	PIPE	n/a	n/a	5	[0, 0, 0]	-999	PAL1	0	R1031M
703.313	2.482	511855	REC_EVENT	2526	6	4	ROCK	PIPE	ROCK	PIPE	5	[0, 0, 0]	-999	PAL1	0	R1031M
705.795	0.009	513096	REC_END	n/a	6	-999	n/a	n/a	n/a	n/a	5	[0, 0, 0]	-999	PAL1	0	R1031M
705.804	0.917	513101	TEST_ORIENT	n/a	5	5	OWL	HORSE	HORSE	OWL	5	[0, 0, 0]	-999	PAL1	0	R1031M
706.721	0.001	513559	TEST_PROBE	n/a	5	5	OWL	HORSE	HORSE	OWL	5	[0, 0, 0]	-999	PAL1	0	R1031M
706.722	2.276	513560	REC_START	n/a	5	-999	n/a	HORSE	n/a	n/a	5	[0, 0, 0]	-999	PAL1	0	R1031M
708.998	2.74	514698	REC_EVENT	2276	5	5	OWL	HORSE	HORSE	OWL	5	[0, 0, 0]	-999	PAL1	0	R1031M
711.738	0.017	516068	REC_END	n/a	5	-999	n/a	n/a	n/a	n/a	5	[0, 0, 0]	-999	PAL1	0	R1031M
711.755	0.785	516076	TEST_ORIENT	n/a	4	6	DITCH	BED	DITCH	BED	5	[0, 0, 0]	-999	PAL1	0	R1031M
712.54	0.0	516468	TEST_PROBE	n/a	4	6	DITCH	BED	DITCH	BED	5	[0, 0, 0]	-999	PAL1	0	R1031M
712.54	1.877	516468	REC_START	n/a	4	-999	n/a	BED	n/a	n/a	5	[0, 0, 0]	-999	PAL1	0	R1031M
714.417	3.14	517407	REC_EVENT	1877	4	6	DITCH	BED	DITCH	BED	5	[0, 0, 0]	-999	PAL1	0	R1031M
717.557	5.042	518977	REC_END	n/a	4	-999	n/a	n/a	n/a	n/a	5	[0, 0, 0]	-999	PAL1	0	R1031M
722.599	10.445	521497	ENCODING_START	n/a	0	-999	n/a	n/a	n/a	n/a	6	[0, 0, 0]	-999	PAL1	0	R1031M
733.044	0.799	526719	STUDY_ORIENT	n/a	1	5	BARN	n/a	BARN	PANTS	6	[0, 0, 0]	-999	PAL1	0	R1031M
733.843	5.034	527119	STUDY_PAIR	n/a	1	5	BARN	n/a	BARN	PANTS	6	[0, 0, 0]	-999	PAL1	0	R1031M
738.877	0.934	529636	STUDY_ORIENT	n/a	2	6	SALT	PEAR	SALT	PEAR	6	[0, 0, 0]	-999	PAL1	0	R1031M
739.811	5.034	530103	STUDY_PAIR	n/a	2	6	SALT	PEAR	SALT	PEAR	6	[0, 0, 0]	-999	PAL1	0	R1031M
744.845	0.834	532619	STUDY_ORIENT	n/a	3	1	STAR	STEM	STEM	STAR	6	[0, 0, 0]	-999	PAL1	0	R1031M
745.679	5.034	533036	STUDY_PAIR	n/a	3	1	STAR	STEM	STEM	STAR	6	[0, 0, 0]	-999	PAL1	0	R1031M
750.713	0.883	535553	STUDY_ORIENT	n/a	4	4	HEART	FOOT	FOOT	HEART	6	[0, 0, 0]	-999	PAL1	0	R1031M
751.596	5.018	535994	STUDY_PAIR	n/a	4	4	HEART	FOOT	FOOT	HEART	6	[0, 0, 0]	-999	PAL1	0	R1031M
756.614	0.835	538503	STUDY_ORIENT	n/a	5	3	BEAK	CLOWN	CLOWN	BEAK	6	[0, 0, 0]	-999	PAL1	0	R1031M
757.449	5.034	538921	STUDY_PAIR	n/a	5	3	BEAK	CLOWN	CLOWN	BEAK	6	[0, 0, 0]	-999	PAL1	0	R1031M
762.483	0.967	541437	STUDY_ORIENT	n/a	6	2	TEETH	CLOTH	TEETH	CLOTH	6	[0, 0, 0]	-999	PAL1	0	R1031M
763.45	4.018	541921	STUDY_PAIR	n/a	6	2	TEETH	CLOTH	TEETH	CLOTH	6	[0, 0, 0]	-999	PAL1	0	R1031M
767.468	0.999	543930	START	n/a	-999	-999	n/a	n/a	n/a	n/a	6	[-999, -999, -999]	-999	PAL1	0	R1031M
768.467	0.017	544429	MATH_START	n/a	-999	-999	n/a	n/a	n/a	n/a	6	[0, 0, 0]	-999	PAL1	0	R1031M
768.484	6.401	544438	PROB	6371	-999	-999	n/a	n/a	n/a	n/a	6	[8, 6, 7]	21	PAL1	0	R1031M
774.885	2.983	547638	PROB	2954	-999	-999	n/a	n/a	n/a	n/a	6	[2, 1, 5]	8	PAL1	0	R1031M
777.868	3.669	549129	PROB	3636	-999	-999	n/a	n/a	n/a	n/a	6	[6, 4, 3]	13	PAL1	0	R1031M
781.537	3.934	550963	PROB	3911	-999	-999	n/a	n/a	n/a	n/a	6	[9, 1, 4]	14	PAL1	0	R1031M
785.471	3.809	552930	PROB	3809	-999	-999	n/a	n/a	n/a	n/a	6	[4, 2, 9]	16	PAL1	0	R1031M
789.28	0.008	554835	STOP	n/a	-999	-999	n/a	n/a	n/a	n/a	6	[-999, -999, -999]	-999	PAL1	0	R1031M
789.288	0.0	554839	MATH_END	n/a	-999	-999	n/a	n/a	n/a	n/a	6	[0, 0, 0]	-999	PAL1	0	R1031M
789.288	0.017	554839	TEST_START	n/a	-999	-999	n/a	n/a	n/a	n/a	6	[0, 0, 0]	-999	PAL1	0	R1031M
789.305	1.0	554847	TEST_ORIENT	n/a	3	1	STAR	STEM	STEM	STAR	6	[0, 0, 0]	-999	PAL1	0	R1031M
790.305	0.001	555347	TEST_PROBE	n/a	3	1	STAR	STEM	STEM	STAR	6	[0, 0, 0]	-999	PAL1	0	R1031M
790.306	2.033	555348	REC_START	n/a	3	-999	n/a	STEM	n/a	n/a	6	[0, 0, 0]	-999	PAL1	0	R1031M
792.339	2.976	556364	REC_EVENT	2033	3	1	STAR	STEM	STEM	STAR	6	[0, 0, 0]	-999	PAL1	0	R1031M
795.315	0.008	557852	REC_END	n/a	3	-999	n/a	n/a	n/a	n/a	6	[0, 0, 0]	-999	PAL1	0	R1031M
795.323	0.9	557856	TEST_ORIENT	n/a	6	2	TEETH	CLOTH	TEETH	CLOTH	6	[0, 0, 0]	-999	PAL1	0	R1031M
796.223	0.001	558306	TEST_PROBE	n/a	6	2	TEETH	CLOTH	TEETH	CLOTH	6	[0, 0, 0]	-999	PAL1	0	R1031M
796.224	1.474	558306	REC_START	n/a	6	-999	n/a	CLOTH	n/a	n/a	6	[0, 0, 0]	-999	PAL1	0	R1031M
797.698	3.535	559043	REC_EVENT	1474	6	2	TEETH	CLOTH	TEETH	CLOTH	6	[0, 0, 0]	-999	PAL1	0	R1031M
801.233	0.008	560810	REC_END	n/a	6	-999	n/a	n/a	n/a	n/a	6	[0, 0, 0]	-999	PAL1	0	R1031M
801.241	0.817	560814	TEST_ORIENT	n/a	5	3	BEAK	CLOWN	CLOWN	BEAK	6	[0, 0, 0]	-999	PAL1	0	R1031M
802.058	0.0	561223	TEST_PROBE	n/a	5	3	BEAK	CLOWN	CLOWN	BEAK	6	[0, 0, 0]	-999	PAL1	0	R1031M
802.058	1.841	561223	REC_START	n/a	5	-999	n/a	CLOWN	n/a	n/a	6	[0, 0, 0]	-999	PAL1	0	R1031M
803.899	3.176	562143	REC_EVENT	1841	5	3	BEAK	CLOWN	CLOWN	BEAK	6	[0, 0, 0]	-999	PAL1	0	R1031M
807.075	0.017	563731	REC_END	n/a	5	-999	n/a	n/a	n/a	n/a	6	[0, 0, 0]	-999	PAL1	0	R1031M
807.092	1.0	563740	TEST_ORIENT	n/a	4	4	HEART	FOOT	FOOT	HEART	6	[0, 0, 0]	-999	PAL1	0	R1031M
808.092	0.001	564240	TEST_PROBE	n/a	4	4	HEART	FOOT	FOOT	HEART	6	[0, 0, 0]	-999	PAL1	0	R1031M
808.093	2.252	564240	REC_START	n/a	4	-999	n/a	FOOT	n/a	n/a	6	[0, 0, 0]	-999	PAL1	0	R1031M
810.345	2.756	565366	REC_EVENT	2252	4	4	HEART	FOOT	FOOT	HEART	6	[0, 0, 0]	-999	PAL1	0	R1031M
813.101	0.009	566744	REC_END	n/a	4	-999	n/a	n/a	n/a	n/a	6	[0, 0, 0]	-999	PAL1	0	R1031M
813.11	0.867	566748	TEST_ORIENT	n/a	1	5	BARN	n/a	BARN	PANTS	6	[0, 0, 0]	-999	PAL1	0	R1031M
813.977	0.0	567182	REC_START	n/a	1	-999	n/a	n/a	n/a	n/a	6	[0, 0, 0]	-999	PAL1	0	R1031M
813.977	0.696	567182	TEST_PROBE	n/a	1	5	BARN	n/a	BARN	PANTS	6	[0, 0, 0]	-999	PAL1	0	R1031M
814.673	4.321	567530	REC_EVENT	696	1	5	BARN	<>	BARN	PANTS	6	[0, 0, 0]	-999	PAL1	0	R1031M
818.994	0.017	569690	REC_END	n/a	1	-999	n/a	n/a	n/a	n/a	6	[0, 0, 0]	-999	PAL1	0	R1031M
819.011	0.934	569699	TEST_ORIENT	n/a	2	6	SALT	PEAR	SALT	PEAR	6	[0, 0, 0]	-999	PAL1	0	R1031M
819.945	0.0	570165	TEST_PROBE	n/a	2	6	SALT	PEAR	SALT	PEAR	6	[0, 0, 0]	-999	PAL1	0	R1031M
819.945	1.868	570165	REC_START	n/a	2	-999	n/a	PEAR	n/a	n/a	6	[0, 0, 0]	-999	PAL1	0	R1031M
821.813	3.149	571099	REC_EVENT	1868	2	6	SALT	PEAR	SALT	PEAR	6	[0, 0, 0]	-999	PAL1	0	R1031M
824.962	3.574	572674	REC_END	n/a	2	-999	n/a	n/a	n/a	n/a	6	[0, 0, 0]	-999	PAL1	0	R1031M
828.536	10.446	574461	ENCODING_START	n/a	0	-999	n/a	n/a	n/a	n/a	7	[0, 0, 0]	-999	PAL1	0	R1031M
838.982	0.832	579683	STUDY_ORIENT	n/a	1	5	CRANE	SLIME	SLIME	CRANE	7	[0, 0, 0]	-999	PAL1	0	R1031M
839.814	5.018	580099	STUDY_PAIR	n/a	1	5	CRANE	SLIME	SLIME	CRANE	7	[0, 0, 0]	-999	PAL1	0	R1031M
844.832	1.0	582608	STUDY_ORIENT	n/a	2	6	STEAM	FORT	FORT	STEAM	7	[0, 0, 0]	-999	PAL1	0	R1031M
845.832	5.034	583108	STUDY_PAIR	n/a	2	6	STEAM	FORT	FORT	STEAM	7	[0, 0, 0]	-999	PAL1	0	R1031M
850.866	0.884	585624	STUDY_ORIENT	n/a	3	3	BIRD	STOOL	BIRD	STOOL	7	[0, 0, 0]	-999	PAL1	0	R1031M
851.75	5.034	586066	STUDY_PAIR	n/a	3	3	BIRD	STOOL	BIRD	STOOL	7	[0, 0, 0]	-999	PAL1	0	R1031M
856.784	0.967	588583	STUDY_ORIENT	n/a	4	2	WORM	SPONGE	WORM	SPONGE	7	[0, 0, 0]	-999	PAL1	0	R1031M
857.751	5.018	589067	STUDY_PAIR	n/a	4	2	WORM	SPONGE	WORM	SPONGE	7	[0, 0, 0]	-999	PAL1	0	R1031M
862.769	0.818	591575	STUDY_ORIENT	n/a	5	1	VASE	n/a	VASE	MULE	7	[0, 0, 0]	-999	PAL1	0	R1031M
863.587	5.033	591984	STUDY_PAIR	n/a	5	1	VASE	n/a	VASE	MULE	7	[0, 0, 0]	-999	PAL1	0	R1031M
868.62	0.918	594500	STUDY_ORIENT	n/a	6	4	MOTH	FLAME	MOTH	FLAME	7	[0, 0, 0]	-999	PAL1	0	R1031M
869.538	4.018	594959	STUDY_PAIR	n/a	6	4	MOTH	FLAME	MOTH	FLAME	7	[0, 0, 0]	-999	PAL1	0	R1031M
873.556	0.999	596968	START	n/a	-999	-999	n/a	n/a	n/a	n/a	7	[-999, -999, -999]	-999	PAL1	0	R1031M
874.555	0.017	597468	MATH_START	n/a	-999	-999	n/a	n/a	n/a	n/a	7	[0, 0, 0]	-999	PAL1	0	R1031M
874.572	4.1	597476	PROB	4067	-999	-999	n/a	n/a	n/a	n/a	7	[3, 8, 6]	17	PAL1	0	R1031M
878.672	3.852	599526	PROB	3824	-999	-999	n/a	n/a	n/a	n/a	7	[8, 1, 9]	18	PAL1	0	R1031M
882.524	3.917	601452	PROB	3884	-999	-999	n/a	n/a	n/a	n/a	7	[7, 5, 6]	18	PAL1	0	R1031M
886.441	3.333	603410	PROB	3310	-999	-999	n/a	n/a	n/a	n/a	7	[7, 5, 2]	14	PAL1	0	R1031M
889.774	3.101	605076	PROB	3081	-999	-999	n/a	n/a	n/a	n/a	7	[3, 6, 3]	12	PAL1	0	R1031M
892.875	2.956	606627	PROB	2956	-999	-999	n/a	n/a	n/a	n/a	7	[3, 1, 4]	8	PAL1	0	R1031M
895.831	0.011	608105	STOP	n/a	-999	-999	n/a	n/a	n/a	n/a	7	[-999, -999, -999]	-999	PAL1	0	R1031M
895.842	0.0	608110	MATH_END	n/a	-999	-999	n/a	n/a	n/a	n/a	7	[0, 0, 0]	-999	PAL1	0	R1031M
895.842	0.017	608110	TEST_START	n/a	-999	-999	n/a	n/a	n/a	n/a	7	[0, 0, 0]	-999	PAL1	0	R1031M
895.859	0.867	608119	TEST_ORIENT	n/a	5	1	VASE	n/a	VASE	MULE	7	[0, 0, 0]	-999	PAL1	0	R1031M
896.726	0.0	608552	TEST_PROBE	n/a	5	1	VASE	n/a	VASE	MULE	7	[0, 0, 0]	-999	PAL1	0	R1031M
896.726	1.277	608552	REC_START	n/a	5	-999	n/a	n/a	n/a	n/a	7	[0, 0, 0]	-999	PAL1	0	R1031M
898.003	3.74	609190	REC_EVENT	1277	5	1	VASE	<>	VASE	MULE	7	[0, 0, 0]	-999	PAL1	0	R1031M
901.743	0.017	611060	REC_END	n/a	5	-999	n/a	n/a	n/a	n/a	7	[0, 0, 0]	-999	PAL1	0	R1031M
901.76	0.983	611069	TEST_ORIENT	n/a	4	2	WORM	SPONGE	WORM	SPONGE	7	[0, 0, 0]	-999	PAL1	0	R1031M
902.743	0.001	611560	TEST_PROBE	n/a	4	2	WORM	SPONGE	WORM	SPONGE	7	[0, 0, 0]	-999	PAL1	0	R1031M
902.744	1.281	611561	REC_START	n/a	4	-999	n/a	SPONGE	n/a	n/a	7	[0, 0, 0]	-999	PAL1	0	R1031M
904.025	3.727	612201	REC_EVENT	1281	4	2	WORM	SPONGE	WORM	SPONGE	7	[0, 0, 0]	-999	PAL1	0	R1031M
907.752	0.009	614064	REC_END	n/a	4	-999	n/a	n/a	n/a	n/a	7	[0, 0, 0]	-999	PAL1	0	R1031M
907.761	0.867	614069	TEST_ORIENT	n/a	3	3	BIRD	STOOL	BIRD	STOOL	7	[0, 0, 0]	-999	PAL1	0	R1031M
908.628	0.0	614502	REC_START	n/a	3	-999	n/a	STOOL	n/a	n/a	7	[0, 0, 0]	-999	PAL1	0	R1031M
908.628	1.196	614502	TEST_PROBE	n/a	3	3	BIRD	STOOL	BIRD	STOOL	7	[0, 0, 0]	-999	PAL1	0	R1031M
909.824	3.821	615100	REC_EVENT	1196	3	3	BIRD	STOOL	BIRD	STOOL	7	[0, 0, 0]	-999	PAL1	0	R1031M
913.645	0.017	617011	REC_END	n/a	3	-999	n/a	n/a	n/a	n/a	7	[0, 0, 0]	-999	PAL1	0	R1031M
913.662	0.885	617019	TEST_ORIENT	n/a	6	4	MOTH	FLAME	MOTH	FLAME	7	[0, 0, 0]	-999	PAL1	0	R1031M
914.547	0.0	617462	TEST_PROBE	n/a	6	4	MOTH	FLAME	MOTH	FLAME	7	[0, 0, 0]	-999	PAL1	0	R1031M
914.547	1.076	617462	REC_START	n/a	6	-999	n/a	FLAME	n/a	n/a	7	[0, 0, 0]	-999	PAL1	0	R1031M
915.623	3.941	618000	REC_EVENT	1076	6	4	MOTH	FLAME	MOTH	FLAME	7	[0, 0, 0]	-999	PAL1	0	R1031M
919.564	0.017	619970	REC_END	n/a	6	-999	n/a	n/a	n/a	n/a	7	[0, 0, 0]	-999	PAL1	0	R1031M
919.581	0.85	619978	TEST_ORIENT	n/a	1	5	CRANE	SLIME	SLIME	CRANE	7	[0, 0, 0]	-999	PAL1	0	R1031M
920.431	0.001	620403	TEST_PROBE	n/a	1	5	CRANE	SLIME	SLIME	CRANE	7	[0, 0, 0]	-999	PAL1	0	R1031M
920.432	1.061	620404	REC_START	n/a	1	-999	n/a	SLIME	n/a	n/a	7	[0, 0, 0]	-999	PAL1	0	R1031M
921.493	3.947	620934	REC_EVENT	1061	1	5	CRANE	SLIME	SLIME	CRANE	7	[0, 0, 0]	-999	PAL1	0	R1031M
925.44	0.009	622908	REC_END	n/a	1	-999	n/a	n/a	n/a	n/a	7	[0, 0, 0]	-999	PAL1	0	R1031M
925.449	0.917	622912	TEST_ORIENT	n/a	2	6	STEAM	FORT	FORT	STEAM	7	[0, 0, 0]	-999	PAL1	0	R1031M
926.366	0.0	623371	TEST_PROBE	n/a	2	6	STEAM	FORT	FORT	STEAM	7	[0, 0, 0]	-999	PAL1	0	R1031M
926.366	2.834	623371	REC_START	n/a	2	-999	n/a	FORT	n/a	n/a	7	[0, 0, 0]	-999	PAL1	0	R1031M
929.2	2.183	624787	REC_EVENT	2834	2	6	STEAM	FORT	FORT	STEAM	7	[0, 0, 0]	-999	PAL1	0	R1031M
931.383	3.761	625879	REC_END	n/a	2	-999	n/a	n/a	n/a	n/a	7	[0, 0, 0]	-999	PAL1	0	R1031M
935.144	10.442	627759	ENCODING_START	n/a	0	-999	n/a	n/a	n/a	n/a	8	[0, 0, 0]	-999	PAL1	0	R1031M
945.586	0.967	632980	STUDY_ORIENT	n/a	1	3	SKI	BEAN	PEA	SKI	8	[0, 0, 0]	-999	PAL1	0	R1031M
946.553	5.018	633463	STUDY_PAIR	n/a	1	3	SKI	BEAN	PEA	SKI	8	[0, 0, 0]	-999	PAL1	0	R1031M
951.571	0.85	635972	STUDY_ORIENT	n/a	2	2	MUD	BENCH	BENCH	MUD	8	[0, 0, 0]	-999	PAL1	0	R1031M
952.421	5.034	636397	STUDY_PAIR	n/a	2	2	MUD	BENCH	BENCH	MUD	8	[0, 0, 0]	-999	PAL1	0	R1031M
957.455	0.817	638913	STUDY_ORIENT	n/a	3	1	SHARK	PHONE	PHONE	SHARK	8	[0, 0, 0]	-999	PAL1	0	R1031M
958.272	5.018	639322	STUDY_PAIR	n/a	3	1	SHARK	PHONE	PHONE	SHARK	8	[0, 0, 0]	-999	PAL1	0	R1031M
963.29	0.783	641831	STUDY_ORIENT	n/a	4	6	STREET	FUDGE	FUDGE	STREET	8	[0, 0, 0]	-999	PAL1	0	R1031M
964.073	5.018	642222	STUDY_PAIR	n/a	4	6	STREET	FUDGE	FUDGE	STREET	8	[0, 0, 0]	-999	PAL1	0	R1031M
969.091	0.9	644731	STUDY_ORIENT	n/a	5	5	DRESS	DUCK	DUCK	DRESS	8	[0, 0, 0]	-999	PAL1	0	R1031M
969.991	5.018	645181	STUDY_PAIR	n/a	5	5	DRESS	DUCK	DUCK	DRESS	8	[0, 0, 0]	-999	PAL1	0	R1031M
975.009	0.933	647690	STUDY_ORIENT	n/a	6	4	STORM	JUDGE	JUDGE	STORM	8	[0, 0, 0]	-999	PAL1	0	R1031M
975.942	4.001	648156	STUDY_PAIR	n/a	6	4	STORM	JUDGE	JUDGE	STORM	8	[0, 0, 0]	-999	PAL1	0	R1031M
979.943	1.0	650156	START	n/a	-999	-999	n/a	n/a	n/a	n/a	8	[-999, -999, -999]	-999	PAL1	0	R1031M
980.943	0.017	650656	MATH_START	n/a	-999	-999	n/a	n/a	n/a	n/a	8	[0, 0, 0]	-999	PAL1	0	R1031M
980.96	4.101	650665	PROB	4080	-999	-999	n/a	n/a	n/a	n/a	8	[5, 5, 7]	17	PAL1	0	R1031M
985.061	2.849	652715	PROB	2826	-999	-999	n/a	n/a	n/a	n/a	8	[2, 2, 1]	5	PAL1	0	R1031M
987.91	3.718	654139	PROB	3697	-999	-999	n/a	n/a	n/a	n/a	8	[6, 7, 1]	14	PAL1	0	R1031M
991.628	3.468	655998	PROB	3444	-999	-999	n/a	n/a	n/a	n/a	8	[1, 8, 3]	12	PAL1	0	R1031M
995.096	3.7	657732	PROB	3671	-999	-999	n/a	n/a	n/a	n/a	8	[8, 7, 3]	18	PAL1	0	R1031M
998.796	3.244	659582	PROB	3244	-999	-999	n/a	n/a	n/a	n/a	8	[1, 6, 4]	11	PAL1	0	R1031M
1002.04	0.008	661204	STOP	n/a	-999	-999	n/a	n/a	n/a	n/a	8	[-999, -999, -999]	-999	PAL1	0	R1031M
1002.048	0.0	661208	MATH_END	n/a	-999	-999	n/a	n/a	n/a	n/a	8	[0, 0, 0]	-999	PAL1	0	R1031M
1002.048	0.016	661208	TEST_START	n/a	-999	-999	n/a	n/a	n/a	n/a	8	[0, 0, 0]	-999	PAL1	0	R1031M
1002.064	0.884	661216	TEST_ORIENT	n/a	3	1	SHARK	PHONE	PHONE	SHARK	8	[0, 0, 0]	-999	PAL1	0	R1031M
1002.948	0.0	661658	REC_START	n/a	3	-999	n/a	PHONE	n/a	n/a	8	[0, 0, 0]	-999	PAL1	0	R1031M
1002.948	1.136	661658	TEST_PROBE	n/a	3	1	SHARK	PHONE	PHONE	SHARK	8	[0, 0, 0]	-999	PAL1	0	R1031M
1004.084	3.881	662226	REC_EVENT	1136	3	1	SHARK	PHONE	PHONE	SHARK	8	[0, 0, 0]	-999	PAL1	0	R1031M
1007.965	0.017	664166	REC_END	n/a	3	-999	n/a	n/a	n/a	n/a	8	[0, 0, 0]	-999	PAL1	0	R1031M
1007.982	1.034	664174	TEST_ORIENT	n/a	2	2	MUD	BENCH	BENCH	MUD	8	[0, 0, 0]	-999	PAL1	0	R1031M
1009.016	0.0	664691	TEST_PROBE	n/a	2	2	MUD	BENCH	BENCH	MUD	8	[0, 0, 0]	-999	PAL1	0	R1031M
1009.016	2.848	664691	REC_START	n/a	2	-999	n/a	BENCH	n/a	n/a	8	[0, 0, 0]	-999	PAL1	0	R1031M
1011.864	2.169	666115	REC_EVENT	2848	2	2	MUD	BENCH	BENCH	MUD	8	[0, 0, 0]	-999	PAL1	0	R1031M
1014.033	0.017	667200	REC_END	n/a	2	-999	n/a	n/a	n/a	n/a	8	[0, 0, 0]	-999	PAL1	0	R1031M
1014.05	0.883	667208	TEST_ORIENT	n/a	1	3	SKI	BEAN	PEA	SKI	8	[0, 0, 0]	-999	PAL1	0	R1031M
1014.933	0.001	667650	TEST_PROBE	n/a	1	3	SKI	BEAN	PEA	SKI	8	[0, 0, 0]	-999	PAL1	0	R1031M
1014.934	1.201	667650	REC_START	n/a	1	-999	n/a	BEAN	n/a	n/a	8	[0, 0, 0]	-999	PAL1	0	R1031M
1016.135	3.807	668250	REC_EVENT	1201	1	3	SKI	BEAN	PEA	SKI	8	[0, 0, 0]	-999	PAL1	0	R1031M
1019.942	0.009	670154	REC_END	n/a	1	-999	n/a	n/a	n/a	n/a	8	[0, 0, 0]	-999	PAL1	0	R1031M
1019.951	0.833	670158	TEST_ORIENT	n/a	6	4	STORM	JUDGE	JUDGE	STORM	8	[0, 0, 0]	-999	PAL1	0	R1031M
1020.784	0.0	670575	TEST_PROBE	n/a	6	4	STORM	JUDGE	JUDGE	STORM	8	[0, 0, 0]	-999	PAL1	0	R1031M
1020.784	1.873	670575	REC_START	n/a	6	-999	n/a	JUDGE	n/a	n/a	8	[0, 0, 0]	-999	PAL1	0	R1031M
1022.657	3.144	671511	REC_EVENT	1873	6	4	STORM	JUDGE	JUDGE	STORM	8	[0, 0, 0]	-999	PAL1	0	R1031M
1025.801	0.017	673083	REC_END	n/a	6	-999	n/a	n/a	n/a	n/a	8	[0, 0, 0]	-999	PAL1	0	R1031M
1025.818	0.9	673091	TEST_ORIENT	n/a	5	5	DRESS	DUCK	DUCK	DRESS	8	[0, 0, 0]	-999	PAL1	0	R1031M
1026.718	0.001	673541	TEST_PROBE	n/a	5	5	DRESS	DUCK	DUCK	DRESS	8	[0, 0, 0]	-999	PAL1	0	R1031M
1026.719	2.735	673542	REC_START	n/a	5	-999	n/a	DUCK	n/a	n/a	8	[0, 0, 0]	-999	PAL1	0	R1031M
1029.454	2.273	674909	REC_EVENT	2735	5	5	DRESS	DUCK	DUCK	DRESS	8	[0, 0, 0]	-999	PAL1	0	R1031M
1031.727	0.009	676046	REC_END	n/a	5	-999	n/a	n/a	n/a	n/a	8	[0, 0, 0]	-999	PAL1	0	R1031M
1031.736	0.883	676050	TEST_ORIENT	n/a	4	6	STREET	FUDGE	FUDGE	STREET	8	[0, 0, 0]	-999	PAL1	0	R1031M
1032.619	0.001	676492	TEST_PROBE	n/a	4	6	STREET	FUDGE	FUDGE	STREET	8	[0, 0, 0]	-999	PAL1	0	R1031M
1032.62	1.546	676492	REC_START	n/a	4	-999	n/a	FUDGE	n/a	n/a	8	[0, 0, 0]	-999	PAL1	0	R1031M
1034.166	3.462	677265	REC_EVENT	1546	4	6	STREET	FUDGE	FUDGE	STREET	8	[0, 0, 0]	-999	PAL1	0	R1031M
1037.628	2.652	678996	REC_END	n/a	4	-999	n/a	n/a	n/a	n/a	8	[0, 0, 0]	-999	PAL1	0	R1031M
1040.28	10.443	680322	ENCODING_START	n/a	0	-999	n/a	n/a	n/a	n/a	9	[0, 0, 0]	-999	PAL1	0	R1031M
1050.723	0.867	685543	STUDY_ORIENT	n/a	1	5	SHEET	n/a	MUG	SHEET	9	[0, 0, 0]	-999	PAL1	0	R1031M
1051.59	5.034	685976	STUDY_PAIR	n/a	1	5	SHEET	n/a	MUG	SHEET	9	[0, 0, 0]	-999	PAL1	0	R1031M
1056.624	0.918	688493	STUDY_ORIENT	n/a	2	6	SCHOOL	n/a	WOLF	SCHOOL	9	[0, 0, 0]	-999	PAL1	0	R1031M
1057.542	5.034	688952	STUDY_PAIR	n/a	2	6	SCHOOL	n/a	WOLF	SCHOOL	9	[0, 0, 0]	-999	PAL1	0	R1031M
1062.576	0.934	691469	STUDY_ORIENT	n/a	3	1	HORN	HOUSE	HORN	HOUSE	9	[0, 0, 0]	-999	PAL1	0	R1031M
1063.51	5.034	691936	STUDY_PAIR	n/a	3	1	HORN	HOUSE	HORN	HOUSE	9	[0, 0, 0]	-999	PAL1	0	R1031M
1068.544	0.867	694452	STUDY_ORIENT	n/a	4	4	MOOSE	FLAG	FLAG	MOOSE	9	[0, 0, 0]	-999	PAL1	0	R1031M
1069.411	5.034	694886	STUDY_PAIR	n/a	4	4	MOOSE	FLAG	FLAG	MOOSE	9	[0, 0, 0]	-999	PAL1	0	R1031M
1074.445	0.784	697402	STUDY_ORIENT	n/a	5	3	GRAPE	n/a	GRAPE	BANK	9	[0, 0, 0]	-999	PAL1	0	R1031M
1075.229	5.034	697794	STUDY_PAIR	n/a	5	3	GRAPE	n/a	GRAPE	BANK	9	[0, 0, 0]	-999	PAL1	0	R1031M
1080.263	0.834	700311	STUDY_ORIENT	n/a	6	2	HILL	MOUTH	HILL	MOUTH	9	[0, 0, 0]	-999	PAL1	0	R1031M
1081.097	4.018	700728	STUDY_PAIR	n/a	6	2	HILL	MOUTH	HILL	MOUTH	9	[0, 0, 0]	-999	PAL1	0	R1031M
1085.115	0.999	702737	START	n/a	-999	-999	n/a	n/a	n/a	n/a	9	[-999, -999, -999]	-999	PAL1	0	R1031M
1086.114	0.017	703236	MATH_START	n/a	-999	-999	n/a	n/a	n/a	n/a	9	[0, 0, 0]	-999	PAL1	0	R1031M
1086.131	3.184	703245	PROB	3149	-999	-999	n/a	n/a	n/a	n/a	9	[9, 1, 1]	11	PAL1	0	R1031M
1089.315	3.167	704837	PROB	3133	-999	-999	n/a	n/a	n/a	n/a	9	[8, 6, 2]	16	PAL1	0	R1031M
1092.482	3.183	706420	PROB	3157	-999	-999	n/a	n/a	n/a	n/a	9	[5, 5, 7]	17	PAL1	0	R1031M
1095.665	3.419	708011	PROB	3391	-999	-999	n/a	n/a	n/a	n/a	9	[3, 3, 8]	14	PAL1	0	R1031M
1099.084	3.334	709721	PROB	3300	-999	-999	n/a	n/a	n/a	n/a	9	[4, 7, 8]	19	PAL1	0	R1031M
1102.418	3.189	711388	PROB	3189	-999	-999	n/a	n/a	n/a	n/a	9	[3, 1, 5]	9	PAL1	0	R1031M
1105.607	0.01	712982	STOP	n/a	-999	-999	n/a	n/a	n/a	n/a	9	[-999, -999, -999]	-999	PAL1	0	R1031M
1105.617	0.0	712987	MATH_END	n/a	-999	-999	n/a	n/a	n/a	n/a	9	[0, 0, 0]	-999	PAL1	0	R1031M
1105.617	0.017	712987	TEST_START	n/a	-999	-999	n/a	n/a	n/a	n/a	9	[0, 0, 0]	-999	PAL1	0	R1031M
1105.634	0.851	712995	TEST_ORIENT	n/a	3	1	HORN	HOUSE	HORN	HOUSE	9	[0, 0, 0]	-999	PAL1	0	R1031M
1106.485	0.001	713421	TEST_PROBE	n/a	3	1	HORN	HOUSE	HORN	HOUSE	9	[0, 0, 0]	-999	PAL1	0	R1031M
1106.486	1.596	713421	REC_START	n/a	3	-999	n/a	HOUSE	n/a	n/a	9	[0, 0, 0]	-999	PAL1	0	R1031M
1108.082	3.429	714219	REC_EVENT	1596	3	1	HORN	HOUSE	HORN	HOUSE	9	[0, 0, 0]	-999	PAL1	0	R1031M
1111.511	0.008	715934	REC_END	n/a	3	-999	n/a	n/a	n/a	n/a	9	[0, 0, 0]	-999	PAL1	0	R1031M
1111.519	0.917	715938	TEST_ORIENT	n/a	6	2	HILL	MOUTH	HILL	MOUTH	9	[0, 0, 0]	-999	PAL1	0	R1031M
1112.436	0.0	716396	TEST_PROBE	n/a	6	2	HILL	MOUTH	HILL	MOUTH	9	[0, 0, 0]	-999	PAL1	0	R1031M
1112.436	3.266	716396	REC_START	n/a	6	-999	n/a	MOUTH	n/a	n/a	9	[0, 0, 0]	-999	PAL1	0	R1031M
1115.702	1.752	718029	REC_EVENT	3266	6	2	HILL	MOUTH	HILL	MOUTH	9	[0, 0, 0]	-999	PAL1	0	R1031M
1117.454	0.017	718905	REC_END	n/a	6	-999	n/a	n/a	n/a	n/a	9	[0, 0, 0]	-999	PAL1	0	R1031M
1117.471	1.016	718913	TEST_ORIENT	n/a	5	3	GRAPE	n/a	GRAPE	BANK	9	[0, 0, 0]	-999	PAL1	0	R1031M
1118.487	0.001	719421	TEST_PROBE	n/a	5	3	GRAPE	n/a	GRAPE	BANK	9	[0, 0, 0]	-999	PAL1	0	R1031M
1118.488	0.348	719422	REC_START	n/a	5	-999	n/a	n/a	n/a	n/a	9	[0, 0, 0]	-999	PAL1	0	R1031M
1118.836	4.66	719596	REC_EVENT	348	5	3	GRAPE	<>	GRAPE	BANK	9	[0, 0, 0]	-999	PAL1	0	R1031M
1123.496	0.009	721925	REC_END	n/a	5	-999	n/a	n/a	n/a	n/a	9	[0, 0, 0]	-999	PAL1	0	R1031M
1123.505	0.884	721930	TEST_ORIENT	n/a	4	4	MOOSE	FLAG	FLAG	MOOSE	9	[0, 0, 0]	-999	PAL1	0	R1031M
1124.389	0.0	722372	TEST_PROBE	n/a	4	4	MOOSE	FLAG	FLAG	MOOSE	9	[0, 0, 0]	-999	PAL1	0	R1031M
1124.389	2.08	722372	REC_START	n/a	4	-999	n/a	FLAG	n/a	n/a	9	[0, 0, 0]	-999	PAL1	0	R1031M
1126.469	2.937	723412	REC_EVENT	2080	4	4	MOOSE	FLAG	FLAG	MOOSE	9	[0, 0, 0]	-999	PAL1	0	R1031M
1129.406	0.017	724880	REC_END	n/a	4	-999	n/a	n/a	n/a	n/a	9	[0, 0, 0]	-999	PAL1	0	R1031M
1129.423	1.033	724889	TEST_ORIENT	n/a	1	5	SHEET	n/a	MUG	SHEET	9	[0, 0, 0]	-999	PAL1	0	R1031M
1130.456	0.001	725405	TEST_PROBE	n/a	1	5	SHEET	n/a	MUG	SHEET	9	[0, 0, 0]	-999	PAL1	0	R1031M
1130.457	1.114	725406	REC_START	n/a	1	-999	n/a	n/a	n/a	n/a	9	[0, 0, 0]	-999	PAL1	0	R1031M
1131.571	3.894	725963	REC_EVENT	1114	1	5	SHEET	<>	MUG	SHEET	9	[0, 0, 0]	-999	PAL1	0	R1031M
1135.465	0.009	727909	REC_END	n/a	1	-999	n/a	n/a	n/a	n/a	9	[0, 0, 0]	-999	PAL1	0	R1031M
1135.474	0.884	727914	TEST_ORIENT	n/a	2	6	SCHOOL	n/a	WOLF	SCHOOL	9	[0, 0, 0]	-999	PAL1	0	R1031M
1136.358	0.0	728356	TEST_PROBE	n/a	2	6	SCHOOL	n/a	WOLF	SCHOOL	9	[0, 0, 0]	-999	PAL1	0	R1031M
1136.358	0.394	728356	REC_START	n/a	2	-999	n/a	n/a	n/a	n/a	9	[0, 0, 0]	-999	PAL1	0	R1031M
1136.752	4.623	728553	REC_EVENT	394	2	6	SCHOOL	<>	WOLF	SCHOOL	9	[0, 0, 0]	-999	PAL1	0	R1031M
1141.375	2.52	730864	REC_END	n/a	2	-999	n/a	n/a	n/a	n/a	9	[0, 0, 0]	-999	PAL1	0	R1031M
1143.895	10.45	732124	ENCODING_START	n/a	0	-999	n/a	n/a	n/a	n/a	10	[0, 0, 0]	-999	PAL1	0	R1031M
1154.345	0.983	737348	STUDY_ORIENT	n/a	1	1	SOUP	n/a	TOY	SOUP	10	[0, 0, 0]	-999	PAL1	0	R1031M
1155.328	5.018	737840	STUDY_PAIR	n/a	1	1	SOUP	n/a	TOY	SOUP	10	[0, 0, 0]	-999	PAL1	0	R1031M
1160.346	0.783	740349	STUDY_ORIENT	n/a	2	6	BAT	CLOUD	CLOUD	BAT	10	[0, 0, 0]	-999	PAL1	0	R1031M
1161.129	5.018	740740	STUDY_PAIR	n/a	2	6	BAT	CLOUD	CLOUD	BAT	10	[0, 0, 0]	-999	PAL1	0	R1031M
1166.147	0.9	743249	STUDY_ORIENT	n/a	3	5	SUIT	FOG	SUIT	PARK	10	[0, 0, 0]	-999	PAL1	0	R1031M
1167.047	5.034	743699	STUDY_PAIR	n/a	3	5	SUIT	FOG	SUIT	PARK	10	[0, 0, 0]	-999	PAL1	0	R1031M
1172.081	0.816	746215	STUDY_ORIENT	n/a	4	2	CAKE	n/a	ZOO	CAKE	10	[0, 0, 0]	-999	PAL1	0	R1031M
1172.897	5.018	746623	STUDY_PAIR	n/a	4	2	CAKE	n/a	ZOO	CAKE	10	[0, 0, 0]	-999	PAL1	0	R1031M
1177.915	0.917	749132	STUDY_ORIENT	n/a	5	3	FLEA	AXE	FLEA	FOG	10	[0, 0, 0]	-999	PAL1	0	R1031M
1178.832	5.034	749591	STUDY_PAIR	n/a	5	3	FLEA	AXE	FLEA	FOG	10	[0, 0, 0]	-999	PAL1	0	R1031M
1183.866	0.8	752107	STUDY_ORIENT	n/a	6	4	SNAKE	AXE	AXE	SNAKE	10	[0, 0, 0]	-999	PAL1	0	R1031M
1184.666	4.001	752507	STUDY_PAIR	n/a	6	4	SNAKE	AXE	AXE	SNAKE	10	[0, 0, 0]	-999	PAL1	0	R1031M
1188.667	1.0	754508	START	n/a	-999	-999	n/a	n/a	n/a	n/a	10	[-999, -999, -999]	-999	PAL1	0	R1031M
1189.667	0.017	755008	MATH_START	n/a	-999	-999	n/a	n/a	n/a	n/a	10	[0, 0, 0]	-999	PAL1	0	R1031M
1189.684	3.502	755016	PROB	3476	-999	-999	n/a	n/a	n/a	n/a	10	[6, 1, 1]	8	PAL1	0	R1031M
1193.186	3.516	756767	PROB	3485	-999	-999	n/a	n/a	n/a	n/a	10	[8, 2, 6]	16	PAL1	0	R1031M
1196.702	3.452	758525	PROB	3418	-999	-999	n/a	n/a	n/a	n/a	10	[4, 4, 5]	13	PAL1	0	R1031M
1200.154	3.65	760251	PROB	3629	-999	-999	n/a	n/a	n/a	n/a	10	[1, 5, 8]	14	PAL1	0	R1031M
1203.804	3.05	762075	PROB	3027	-999	-999	n/a	n/a	n/a	n/a	10	[2, 1, 8]	11	PAL1	0	R1031M
1206.854	3.001	763600	PROB	3001	-999	-999	n/a	n/a	n/a	n/a	10	[5, 9, 8]	22	PAL1	0	R1031M
1209.855	0.016	765101	STOP	n/a	-999	-999	n/a	n/a	n/a	n/a	10	[-999, -999, -999]	-999	PAL1	0	R1031M
1209.871	0.0	765109	MATH_END	n/a	-999	-999	n/a	n/a	n/a	n/a	10	[0, 0, 0]	-999	PAL1	0	R1031M
1209.871	0.017	765109	TEST_START	n/a	-999	-999	n/a	n/a	n/a	n/a	10	[0, 0, 0]	-999	PAL1	0	R1031M
1209.888	0.834	765117	TEST_ORIENT	n/a	1	1	SOUP	n/a	TOY	SOUP	10	[0, 0, 0]	-999	PAL1	0	R1031M
1210.722	0.0	765534	TEST_PROBE	n/a	1	1	SOUP	n/a	TOY	SOUP	10	[0, 0, 0]	-999	PAL1	0	R1031M
1210.722	1.718	765534	REC_START	n/a	1	-999	n/a	n/a	n/a	n/a	10	[0, 0, 0]	-999	PAL1	0	R1031M
1212.44	3.299	766393	REC_EVENT	1718	1	1	SOUP	<>	TOY	SOUP	10	[0, 0, 0]	-999	PAL1	0	R1031M
1215.739	0.017	768042	REC_END	n/a	1	-999	n/a	n/a	n/a	n/a	10	[0, 0, 0]	-999	PAL1	0	R1031M
1215.756	1.0	768051	TEST_ORIENT	n/a	4	2	CAKE	n/a	ZOO	CAKE	10	[0, 0, 0]	-999	PAL1	0	R1031M
1216.756	0.001	768551	TEST_PROBE	n/a	4	2	CAKE	n/a	ZOO	CAKE	10	[0, 0, 0]	-999	PAL1	0	R1031M
1216.757	0.859	768551	REC_START	n/a	4	-999	n/a	n/a	n/a	n/a	10	[0, 0, 0]	-999	PAL1	0	R1031M
1217.616	4.15	768981	REC_EVENT	859	4	2	CAKE	<>	ZOO	CAKE	10	[0, 0, 0]	-999	PAL1	0	R1031M
1221.766	0.008	771055	REC_END	n/a	4	-999	n/a	n/a	n/a	n/a	10	[0, 0, 0]	-999	PAL1	0	R1031M
1221.774	0.917	771059	TEST_ORIENT	n/a	5	3	FLEA	AXE	FLEA	FOG	10	[0, 0, 0]	-999	PAL1	0	R1031M
1222.691	0.0	771518	TEST_PROBE	n/a	5	3	FLEA	AXE	FLEA	FOG	10	[0, 0, 0]	-999	PAL1	0	R1031M
1222.691	2.277	771518	REC_START	n/a	5	-999	n/a	AXE	n/a	n/a	10	[0, 0, 0]	-999	PAL1	0	R1031M
1224.968	2.74	772656	REC_EVENT	2277	5	3	FLEA	AXE	FLEA	FOG	10	[0, 0, 0]	-999	PAL1	0	R1031M
1227.708	0.017	774026	REC_END	n/a	5	-999	n/a	n/a	n/a	n/a	10	[0, 0, 0]	-999	PAL1	0	R1031M
1227.725	0.801	774035	TEST_ORIENT	n/a	6	4	SNAKE	AXE	AXE	SNAKE	10	[0, 0, 0]	-999	PAL1	0	R1031M
1228.526	0.001	774435	TEST_PROBE	n/a	6	4	SNAKE	AXE	AXE	SNAKE	10	[0, 0, 0]	-999	PAL1	0	R1031M
1228.527	1.972	774436	REC_START	n/a	6	-999	n/a	AXE	n/a	n/a	10	[0, 0, 0]	-999	PAL1	0	R1031M
1230.499	3.036	775421	REC_EVENT	1972	6	4	SNAKE	AXE	AXE	SNAKE	10	[0, 0, 0]	-999	PAL1	0	R1031M
1233.535	0.009	776939	REC_END	n/a	6	-999	n/a	n/a	n/a	n/a	10	[0, 0, 0]	-999	PAL1	0	R1031M
1233.544	0.8	776944	TEST_ORIENT	n/a	3	5	SUIT	FOG	SUIT	PARK	10	[0, 0, 0]	-999	PAL1	0	R1031M
1234.344	0.0	777344	TEST_PROBE	n/a	3	5	SUIT	FOG	SUIT	PARK	10	[0, 0, 0]	-999	PAL1	0	R1031M
1234.344	2.099	777344	REC_START	n/a	3	-999	n/a	FOG	n/a	n/a	10	[0, 0, 0]	-999	PAL1	0	R1031M
1236.443	2.918	778393	REC_EVENT	2099	3	5	SUIT	FOG	SUIT	PARK	10	[0, 0, 0]	-999	PAL1	0	R1031M
1239.361	0.017	779852	REC_END	n/a	3	-999	n/a	n/a	n/a	n/a	10	[0, 0, 0]	-999	PAL1	0	R1031M
1239.378	0.85	779861	TEST_ORIENT	n/a	2	6	BAT	CLOUD	CLOUD	BAT	10	[0, 0, 0]	-999	PAL1	0	R1031M
1240.228	0.001	780285	TEST_PROBE	n/a	2	6	BAT	CLOUD	CLOUD	BAT	10	[0, 0, 0]	-999	PAL1	0	R1031M
1240.229	2.013	780286	REC_START	n/a	2	-999	n/a	CLOUD	n/a	n/a	10	[0, 0, 0]	-999	PAL1	0	R1031M
1242.242	2.995	781292	REC_EVENT	2013	2	6	BAT	CLOUD	CLOUD	BAT	10	[0, 0, 0]	-999	PAL1	0	R1031M
1245.237	2.035	782790	REC_END	n/a	2	-999	n/a	n/a	n/a	n/a	10	[0, 0, 0]	-999	PAL1	0	R1031M
1247.272	10.442	783807	ENCODING_START	n/a	0	-999	n/a	n/a	n/a	n/a	11	[0, 0, 0]	-999	PAL1	0	R1031M
1257.714	0.835	789028	STUDY_ORIENT	n/a	1	1	TREE	n/a	TREE	VEST	11	[0, 0, 0]	-999	PAL1	0	R1031M
1258.549	5.034	789445	STUDY_PAIR	n/a	1	1	TREE	n/a	TREE	VEST	11	[0, 0, 0]	-999	PAL1	0	R1031M
1263.583	0.817	791962	STUDY_ORIENT	n/a	2	4	PIE	TRASH	PIE	TRASH	11	[0, 0, 0]	-999	PAL1	0	R1031M
1264.4	5.034	792370	STUDY_PAIR	n/a	2	4	PIE	TRASH	PIE	TRASH	11	[0, 0, 0]	-999	PAL1	0	R1031M
1269.434	0.85	794887	STUDY_ORIENT	n/a	3	5	SQUARE	ARK	ARK	SQUARE	11	[0, 0, 0]	-999	PAL1	0	R1031M
1270.284	5.018	795312	STUDY_PAIR	n/a	3	5	SQUARE	ARK	ARK	SQUARE	11	[0, 0, 0]	-999	PAL1	0	R1031M
1275.302	0.934	797821	STUDY_ORIENT	n/a	4	2	DOCK	n/a	DOCK	ANT	11	[0, 0, 0]	-999	PAL1	0	R1031M
1276.236	5.034	798288	STUDY_PAIR	n/a	4	2	DOCK	n/a	DOCK	ANT	11	[0, 0, 0]	-999	PAL1	0	R1031M
1281.27	0.95	800804	STUDY_ORIENT	n/a	5	3	ROOM	TOOL	TOOL	ROOM	11	[0, 0, 0]	-999	PAL1	0	R1031M
1282.22	5.018	801279	STUDY_PAIR	n/a	5	3	ROOM	TOOL	TOOL	ROOM	11	[0, 0, 0]	-999	PAL1	0	R1031M
1287.238	0.933	803788	STUDY_ORIENT	n/a	6	6	CHALK	SOCK	SOCK	CHALK	11	[0, 0, 0]	-999	PAL1	0	R1031M
1288.171	4.002	804255	STUDY_PAIR	n/a	6	6	CHALK	SOCK	SOCK	CHALK	11	[0, 0, 0]	-999	PAL1	0	R1031M
1292.173	0.999	806255	START	n/a	-999	-999	n/a	n/a	n/a	n/a	11	[-999, -999, -999]	-999	PAL1	0	R1031M
1293.172	0.017	806755	MATH_START	n/a	-999	-999	n/a	n/a	n/a	n/a	11	[0, 0, 0]	-999	PAL1	0	R1031M
1293.189	3.533	806763	PROB	3514	-999	-999	n/a	n/a	n/a	n/a	11	[1, 1, 8]	10	PAL1	0	R1031M
1296.722	2.835	808530	PROB	2806	-999	-999	n/a	n/a	n/a	n/a	11	[2, 4, 1]	7	PAL1	0	R1031M
1299.557	3.283	809947	PROB	3250	-999	-999	n/a	n/a	n/a	n/a	11	[5, 8, 2]	15	PAL1	0	R1031M
1302.84	3.051	811588	PROB	3023	-999	-999	n/a	n/a	n/a	n/a	11	[5, 7, 2]	14	PAL1	0	R1031M
1305.891	2.85	813114	PROB	2828	-999	-999	n/a	n/a	n/a	n/a	11	[1, 6, 4]	11	PAL1	0	R1031M
1308.741	3.101	814538	PROB	3082	-999	-999	n/a	n/a	n/a	n/a	11	[2, 7, 1]	10	PAL1	0	R1031M
1311.842	2.646	816089	PROB	2646	-999	-999	n/a	n/a	n/a	n/a	11	[5, 2, 4]	11	PAL1	0	R1031M
1314.488	0.005	817412	STOP	n/a	-999	-999	n/a	n/a	n/a	n/a	11	[-999, -999, -999]	-999	PAL1	0	R1031M
1314.493	0.0	817414	MATH_END	n/a	-999	-999	n/a	n/a	n/a	n/a	11	[0, 0, 0]	-999	PAL1	0	R1031M
1314.493	0.017	817414	TEST_START	n/a	-999	-999	n/a	n/a	n/a	n/a	11	[0, 0, 0]	-999	PAL1	0	R1031M
1314.51	0.934	817423	TEST_ORIENT	n/a	1	1	TREE	n/a	TREE	VEST	11	[0, 0, 0]	-999	PAL1	0	R1031M
1315.444	0.0	817890	TEST_PROBE	n/a	1	1	TREE	n/a	TREE	VEST	11	[0, 0, 0]	-999	PAL1	0	R1031M
1315.444	0.0	817890	REC_START	n/a	1	-999	n/a	n/a	n/a	n/a	11	[0, 0, 0]	-999	PAL1	0	R1031M
1315.444	5.017	817890	REC_EVENT	0	1	1	TREE	<>	TREE	VEST	11	[0, 0, 0]	-999	PAL1	0	R1031M
1320.461	0.017	820398	REC_END	n/a	1	-999	n/a	n/a	n/a	n/a	11	[0, 0, 0]	-999	PAL1	0	R1031M
1320.478	0.933	820406	TEST_ORIENT	n/a	4	2	DOCK	n/a	DOCK	ANT	11	[0, 0, 0]	-999	PAL1	0	R1031M
1321.411	0.001	820873	TEST_PROBE	n/a	4	2	DOCK	n/a	DOCK	ANT	11	[0, 0, 0]	-999	PAL1	0	R1031M
1321.412	0.0	820873	REC_EVENT	0	4	2	DOCK	<>	DOCK	ANT	11	[0, 0, 0]	-999	PAL1	0	R1031M
1321.412	5.007	820873	REC_START	n/a	4	-999	n/a	n/a	n/a	n/a	11	[0, 0, 0]	-999	PAL1	0	R1031M
1326.419	0.01	823377	REC_END	n/a	4	-999	n/a	n/a	n/a	n/a	11	[0, 0, 0]	-999	PAL1	0	R1031M
1326.429	0.95	823382	TEST_ORIENT	n/a	5	3	ROOM	TOOL	TOOL	ROOM	11	[0, 0, 0]	-999	PAL1	0	R1031M
1327.379	0.001	823857	TEST_PROBE	n/a	5	3	ROOM	TOOL	TOOL	ROOM	11	[0, 0, 0]	-999	PAL1	0	R1031M
1327.38	1.761	823857	REC_START	n/a	5	-999	n/a	TOOL	n/a	n/a	11	[0, 0, 0]	-999	PAL1	0	R1031M
1329.141	3.246	824737	REC_EVENT	1761	5	3	ROOM	TOOL	TOOL	ROOM	11	[0, 0, 0]	-999	PAL1	0	R1031M
1332.387	0.01	826360	REC_END	n/a	5	-999	n/a	n/a	n/a	n/a	11	[0, 0, 0]	-999	PAL1	0	R1031M
1332.397	0.833	826365	TEST_ORIENT	n/a	2	4	PIE	TRASH	PIE	TRASH	11	[0, 0, 0]	-999	PAL1	0	R1031M
1333.23	0.001	826782	TEST_PROBE	n/a	2	4	PIE	TRASH	PIE	TRASH	11	[0, 0, 0]	-999	PAL1	0	R1031M
1333.231	1.712	826782	REC_START	n/a	2	-999	n/a	TRASH	n/a	n/a	11	[0, 0, 0]	-999	PAL1	0	R1031M
1334.943	3.296	827638	REC_EVENT	1712	2	4	PIE	TRASH	PIE	TRASH	11	[0, 0, 0]	-999	PAL1	0	R1031M
1338.239	0.009	829286	REC_END	n/a	2	-999	n/a	n/a	n/a	n/a	11	[0, 0, 0]	-999	PAL1	0	R1031M
1338.248	0.967	829290	TEST_ORIENT	n/a	3	5	SQUARE	ARK	ARK	SQUARE	11	[0, 0, 0]	-999	PAL1	0	R1031M
1339.215	0.0	829774	TEST_PROBE	n/a	3	5	SQUARE	ARK	ARK	SQUARE	11	[0, 0, 0]	-999	PAL1	0	R1031M
1339.215	1.503	829774	REC_START	n/a	3	-999	n/a	ARK	n/a	n/a	11	[0, 0, 0]	-999	PAL1	0	R1031M
1340.718	3.514	830525	REC_EVENT	1503	3	5	SQUARE	ARK	ARK	SQUARE	11	[0, 0, 0]	-999	PAL1	0	R1031M
1344.232	0.017	832282	REC_END	n/a	3	-999	n/a	n/a	n/a	n/a	11	[0, 0, 0]	-999	PAL1	0	R1031M
1344.249	1.017	832291	TEST_ORIENT	n/a	6	6	CHALK	SOCK	SOCK	CHALK	11	[0, 0, 0]	-999	PAL1	0	R1031M
1345.266	0.0	832799	REC_START	n/a	6	-999	n/a	SOCK	n/a	n/a	11	[0, 0, 0]	-999	PAL1	0	R1031M
1345.266	1.495	832799	TEST_PROBE	n/a	6	6	CHALK	SOCK	SOCK	CHALK	11	[0, 0, 0]	-999	PAL1	0	R1031M
1346.761	3.523	833547	REC_EVENT	1495	6	6	CHALK	SOCK	SOCK	CHALK	11	[0, 0, 0]	-999	PAL1	0	R1031M
1350.284	1.9	835308	REC_END	n/a	6	-999	n/a	n/a	n/a	n/a	11	[0, 0, 0]	-999	PAL1	0	R1031M
1352.184	10.451	836258	ENCODING_START	n/a	0	-999	n/a	n/a	n/a	n/a	12	[0, 0, 0]	-999	PAL1	0	R1031M
1362.635	0.835	841483	STUDY_ORIENT	n/a	1	5	BUSH	CHAIR	BUSH	CHAIR	12	[0, 0, 0]	-999	PAL1	0	R1031M
1363.47	5.034	841900	STUDY_PAIR	n/a	1	5	BUSH	CHAIR	BUSH	CHAIR	12	[0, 0, 0]	-999	PAL1	0	R1031M
1368.504	0.884	844417	STUDY_ORIENT	n/a	2	6	GOAT	POOL	POOL	GOAT	12	[0, 0, 0]	-999	PAL1	0	R1031M
1369.388	5.034	844859	STUDY_PAIR	n/a	2	6	GOAT	POOL	POOL	GOAT	12	[0, 0, 0]	-999	PAL1	0	R1031M
1374.422	0.9	847376	STUDY_ORIENT	n/a	3	1	SOAP	DOG	SOAP	DOG	12	[0, 0, 0]	-999	PAL1	0	R1031M
1375.322	5.018	847826	STUDY_PAIR	n/a	3	1	SOAP	DOG	SOAP	DOG	12	[0, 0, 0]	-999	PAL1	0	R1031M
1380.34	0.833	850334	STUDY_ORIENT	n/a	4	4	TOE	WEB	TOE	WEB	12	[0, 0, 0]	-999	PAL1	0	R1031M
1381.173	5.018	850751	STUDY_PAIR	n/a	4	4	TOE	WEB	TOE	WEB	12	[0, 0, 0]	-999	PAL1	0	R1031M
1386.191	0.916	853260	STUDY_ORIENT	n/a	5	3	APE	SPONGE	FOAM	APE	12	[0, 0, 0]	-999	PAL1	0	R1031M
1387.107	5.002	853717	STUDY_PAIR	n/a	5	3	APE	SPONGE	FOAM	APE	12	[0, 0, 0]	-999	PAL1	0	R1031M
1392.109	0.85	856218	STUDY_ORIENT	n/a	6	2	CROWN	FROG	CROWN	FROG	12	[0, 0, 0]	-999	PAL1	0	R1031M
1392.959	4.018	856643	STUDY_PAIR	n/a	6	2	CROWN	FROG	CROWN	FROG	12	[0, 0, 0]	-999	PAL1	0	R1031M
1396.977	0.999	858652	START	n/a	-999	-999	n/a	n/a	n/a	n/a	12	[-999, -999, -999]	-999	PAL1	0	R1031M
1397.976	0.017	859151	MATH_START	n/a	-999	-999	n/a	n/a	n/a	n/a	12	[0, 0, 0]	-999	PAL1	0	R1031M
1397.993	3.034	859160	PROB	3015	-999	-999	n/a	n/a	n/a	n/a	12	[6, 4, 2]	12	PAL1	0	R1031M
1401.027	2.951	860677	PROB	2925	-999	-999	n/a	n/a	n/a	n/a	12	[3, 8, 6]	17	PAL1	0	R1031M
1403.978	3.234	862152	PROB	3214	-999	-999	n/a	n/a	n/a	n/a	12	[9, 5, 7]	22	PAL1	0	R1031M
1407.212	3.751	863769	PROB	3715	-999	-999	n/a	n/a	n/a	n/a	12	[8, 3, 2]	13	PAL1	0	R1031M
1410.963	3.084	865644	PROB	3053	-999	-999	n/a	n/a	n/a	n/a	12	[8, 6, 4]	18	PAL1	0	R1031M
1414.047	2.849	867186	PROB	2816	-999	-999	n/a	n/a	n/a	n/a	12	[6, 1, 5]	12	PAL1	0	R1031M
1416.896	6.048	868610	PROB	6048	-999	-999	n/a	n/a	n/a	n/a	12	[8, 8, 7]	23	PAL1	0	R1031M
1422.944	0.004	871634	STOP	n/a	-999	-999	n/a	n/a	n/a	n/a	12	[-999, -999, -999]	-999	PAL1	0	R1031M
1422.948	0.0	871636	TEST_START	n/a	-999	-999	n/a	n/a	n/a	n/a	12	[0, 0, 0]	-999	PAL1	0	R1031M
1422.948	0.017	871636	MATH_END	n/a	-999	-999	n/a	n/a	n/a	n/a	12	[0, 0, 0]	-999	PAL1	0	R1031M
1422.965	0.816	871645	TEST_ORIENT	n/a	3	1	SOAP	DOG	SOAP	DOG	12	[0, 0, 0]	-999	PAL1	0	R1031M
1423.781	0.0	872053	TEST_PROBE	n/a	3	1	SOAP	DOG	SOAP	DOG	12	[0, 0, 0]	-999	PAL1	0	R1031M
1423.781	2.687	872053	REC_START	n/a	3	-999	n/a	DOG	n/a	n/a	12	[0, 0, 0]	-999	PAL1	0	R1031M
1426.468	2.33	873396	REC_EVENT	2687	3	1	SOAP	DOG	SOAP	DOG	12	[0, 0, 0]	-999	PAL1	0	R1031M
1428.798	0.017	874561	REC_END	n/a	3	-999	n/a	n/a	n/a	n/a	12	[0, 0, 0]	-999	PAL1	0	R1031M
1428.815	0.934	874569	TEST_ORIENT	n/a	6	2	CROWN	FROG	CROWN	FROG	12	[0, 0, 0]	-999	PAL1	0	R1031M
1429.749	0.0	875036	TEST_PROBE	n/a	6	2	CROWN	FROG	CROWN	FROG	12	[0, 0, 0]	-999	PAL1	0	R1031M
1429.749	1.095	875036	REC_START	n/a	6	-999	n/a	FROG	n/a	n/a	12	[0, 0, 0]	-999	PAL1	0	R1031M
1430.844	3.93	875584	REC_EVENT	1095	6	2	CROWN	FROG	CROWN	FROG	12	[0, 0, 0]	-999	PAL1	0	R1031M
1434.774	0.009	877549	REC_END	n/a	6	-999	n/a	n/a	n/a	n/a	12	[0, 0, 0]	-999	PAL1	0	R1031M
1434.783	0.967	877553	TEST_ORIENT	n/a	5	3	APE	SPONGE	FOAM	APE	12	[0, 0, 0]	-999	PAL1	0	R1031M
1435.75	0.0	878036	TEST_PROBE	n/a	5	3	APE	SPONGE	FOAM	APE	12	[0, 0, 0]	-999	PAL1	0	R1031M
1435.75	1.821	878036	REC_START	n/a	5	-999	n/a	SPONGE	n/a	n/a	12	[0, 0, 0]	-999	PAL1	0	R1031M
1437.571	3.196	878947	REC_EVENT	1821	5	3	APE	SPONGE	FOAM	APE	12	[0, 0, 0]	-999	PAL1	0	R1031M
1440.767	0.017	880545	REC_END	n/a	5	-999	n/a	n/a	n/a	n/a	12	[0, 0, 0]	-999	PAL1	0	R1031M
1440.784	0.834	880553	TEST_ORIENT	n/a	4	4	TOE	WEB	TOE	WEB	12	[0, 0, 0]	-999	PAL1	0	R1031M
1441.618	0.0	880970	REC_START	n/a	4	-999	n/a	WEB	n/a	n/a	12	[0, 0, 0]	-999	PAL1	0	R1031M
1441.618	1.625	880970	TEST_PROBE	n/a	4	4	TOE	WEB	TOE	WEB	12	[0, 0, 0]	-999	PAL1	0	R1031M
1443.243	3.392	881783	REC_EVENT	1625	4	4	TOE	WEB	TOE	WEB	12	[0, 0, 0]	-999	PAL1	0	R1031M
1446.635	0.017	883478	REC_END	n/a	4	-999	n/a	n/a	n/a	n/a	12	[0, 0, 0]	-999	PAL1	0	R1031M
1446.652	0.835	883487	TEST_ORIENT	n/a	1	5	BUSH	CHAIR	BUSH	CHAIR	12	[0, 0, 0]	-999	PAL1	0	R1031M
1447.487	0.0	883904	TEST_PROBE	n/a	1	5	BUSH	CHAIR	BUSH	CHAIR	12	[0, 0, 0]	-999	PAL1	0	R1031M
1447.487	2.33	883904	REC_START	n/a	1	-999	n/a	CHAIR	n/a	n/a	12	[0, 0, 0]	-999	PAL1	0	R1031M
1449.817	2.687	885069	REC_EVENT	2330	1	5	BUSH	CHAIR	BUSH	CHAIR	12	[0, 0, 0]	-999	PAL1	0	R1031M
1452.504	0.017	886413	REC_END	n/a	1	-999	n/a	n/a	n/a	n/a	12	[0, 0, 0]	-999	PAL1	0	R1031M
1452.521	1.017	886421	TEST_ORIENT	n/a	2	6	GOAT	POOL	POOL	GOAT	12	[0, 0, 0]	-999	PAL1	0	R1031M
1453.538	0.0	886930	TEST_PROBE	n/a	2	6	GOAT	POOL	POOL	GOAT	12	[0, 0, 0]	-999	PAL1	0	R1031M
1453.538	2.35	886930	REC_START	n/a	2	-999	n/a	POOL	n/a	n/a	12	[0, 0, 0]	-999	PAL1	0	R1031M
1455.888	2.667	888104	REC_EVENT	2350	2	6	GOAT	POOL	POOL	GOAT	12	[0, 0, 0]	-999	PAL1	0	R1031M
1458.555	1.789	889438	REC_END	n/a	2	-999	n/a	n/a	n/a	n/a	12	[0, 0, 0]	-999	PAL1	0	R1031M
1460.344	10.446	890332	ENCODING_START	n/a	0	-999	n/a	n/a	n/a	n/a	13	[0, 0, 0]	-999	PAL1	0	R1031M
1470.79	0.917	895555	STUDY_ORIENT	n/a	1	1	EAR	STOVE	STOVE	EAR	13	[0, 0, 0]	-999	PAL1	0	R1031M
1471.707	5.034	896013	STUDY_PAIR	n/a	1	1	EAR	STOVE	STOVE	EAR	13	[0, 0, 0]	-999	PAL1	0	R1031M
1476.741	0.984	898530	STUDY_ORIENT	n/a	2	2	WOOD	COIN	COIN	WOOD	13	[0, 0, 0]	-999	PAL1	0	R1031M
1477.725	5.034	899022	STUDY_PAIR	n/a	2	2	WOOD	COIN	COIN	WOOD	13	[0, 0, 0]	-999	PAL1	0	R1031M
1482.759	0.801	901539	STUDY_ORIENT	n/a	3	3	TRAIN	STAIR	TRAIN	STAIR	13	[0, 0, 0]	-999	PAL1	0	R1031M
1483.56	5.018	901939	STUDY_PAIR	n/a	3	3	TRAIN	STAIR	TRAIN	STAIR	13	[0, 0, 0]	-999	PAL1	0	R1031M
1488.578	0.934	904448	STUDY_ORIENT	n/a	4	6	CORD	NOSE	CORD	NOSE	13	[0, 0, 0]	-999	PAL1	0	R1031M
1489.512	5.034	904915	STUDY_PAIR	n/a	4	6	CORD	NOSE	CORD	NOSE	13	[0, 0, 0]	-999	PAL1	0	R1031M
1494.546	0.917	907431	STUDY_ORIENT	n/a	5	5	TRAY	FISH	TRAY	FISH	13	[0, 0, 0]	-999	PAL1	0	R1031M
1495.463	5.034	907890	STUDY_PAIR	n/a	5	5	TRAY	FISH	TRAY	FISH	13	[0, 0, 0]	-999	PAL1	0	R1031M
1500.497	0.817	910407	STUDY_ORIENT	n/a	6	4	NET	n/a	LAND	NET	13	[0, 0, 0]	-999	PAL1	0	R1031M
1501.314	4.018	910815	STUDY_PAIR	n/a	6	4	NET	n/a	LAND	NET	13	[0, 0, 0]	-999	PAL1	0	R1031M
1505.332	0.999	912824	START	n/a	-999	-999	n/a	n/a	n/a	n/a	13	[-999, -999, -999]	-999	PAL1	0	R1031M
1506.331	0.017	913323	MATH_START	n/a	-999	-999	n/a	n/a	n/a	n/a	13	[0, 0, 0]	-999	PAL1	0	R1031M
1506.348	3.851	913332	PROB	3820	-999	-999	n/a	n/a	n/a	n/a	13	[6, 4, 6]	16	PAL1	0	R1031M
1510.199	3.683	915257	PROB	3664	-999	-999	n/a	n/a	n/a	n/a	13	[8, 5, 5]	18	PAL1	0	R1031M
1513.882	3.734	917098	PROB	3702	-999	-999	n/a	n/a	n/a	n/a	13	[6, 3, 1]	10	PAL1	0	R1031M
1517.616	4.134	918965	PROB	4103	-999	-999	n/a	n/a	n/a	n/a	13	[6, 7, 5]	18	PAL1	0	R1031M
1521.75	3.285	921032	PROB	3258	-999	-999	n/a	n/a	n/a	n/a	13	[1, 5, 3]	9	PAL1	0	R1031M
1525.035	3.173	922674	PROB	3173	-999	-999	n/a	n/a	n/a	n/a	13	[4, 6, 7]	17	PAL1	0	R1031M
1528.208	0.011	924261	STOP	n/a	-999	-999	n/a	n/a	n/a	n/a	13	[-999, -999, -999]	-999	PAL1	0	R1031M
1528.219	0.0	924266	MATH_END	n/a	-999	-999	n/a	n/a	n/a	n/a	13	[0, 0, 0]	-999	PAL1	0	R1031M
1528.219	0.017	924266	TEST_START	n/a	-999	-999	n/a	n/a	n/a	n/a	13	[0, 0, 0]	-999	PAL1	0	R1031M
1528.236	0.934	924275	TEST_ORIENT	n/a	1	1	EAR	STOVE	STOVE	EAR	13	[0, 0, 0]	-999	PAL1	0	R1031M
1529.17	0.0	924742	TEST_PROBE	n/a	1	1	EAR	STOVE	STOVE	EAR	13	[0, 0, 0]	-999	PAL1	0	R1031M
1529.17	2.632	924742	REC_START	n/a	1	-999	n/a	STOVE	n/a	n/a	13	[0, 0, 0]	-999	PAL1	0	R1031M
1531.802	2.385	926058	REC_EVENT	2632	1	1	EAR	STOVE	STOVE	EAR	13	[0, 0, 0]	-999	PAL1	0	R1031M
1534.187	0.017	927250	REC_END	n/a	1	-999	n/a	n/a	n/a	n/a	13	[0, 0, 0]	-999	PAL1	0	R1031M
1534.204	1.017	927258	TEST_ORIENT	n/a	2	2	WOOD	COIN	COIN	WOOD	13	[0, 0, 0]	-999	PAL1	0	R1031M
1535.221	0.0	927767	REC_START	n/a	2	-999	n/a	COIN	n/a	n/a	13	[0, 0, 0]	-999	PAL1	0	R1031M
1535.221	1.572	927767	TEST_PROBE	n/a	2	2	WOOD	COIN	COIN	WOOD	13	[0, 0, 0]	-999	PAL1	0	R1031M
1536.793	3.445	928553	REC_EVENT	1572	2	2	WOOD	COIN	COIN	WOOD	13	[0, 0, 0]	-999	PAL1	0	R1031M
1540.238	0.017	930275	REC_END	n/a	2	-999	n/a	n/a	n/a	n/a	13	[0, 0, 0]	-999	PAL1	0	R1031M
1540.255	0.85	930284	TEST_ORIENT	n/a	3	3	TRAIN	STAIR	TRAIN	STAIR	13	[0, 0, 0]	-999	PAL1	0	R1031M
1541.105	0.001	930709	TEST_PROBE	n/a	3	3	TRAIN	STAIR	TRAIN	STAIR	13	[0, 0, 0]	-999	PAL1	0	R1031M
1541.106	1.625	930709	REC_START	n/a	3	-999	n/a	STAIR	n/a	n/a	13	[0, 0, 0]	-999	PAL1	0	R1031M
1542.731	3.383	931522	REC_EVENT	1625	3	3	TRAIN	STAIR	TRAIN	STAIR	13	[0, 0, 0]	-999	PAL1	0	R1031M
1546.114	0.009	933213	REC_END	n/a	3	-999	n/a	n/a	n/a	n/a	13	[0, 0, 0]	-999	PAL1	0	R1031M
1546.123	0.817	933217	TEST_ORIENT	n/a	6	4	NET	n/a	LAND	NET	13	[0, 0, 0]	-999	PAL1	0	R1031M
1546.94	0.0	933626	TEST_PROBE	n/a	6	4	NET	n/a	LAND	NET	13	[0, 0, 0]	-999	PAL1	0	R1031M
1546.94	0.301	933626	REC_START	n/a	6	-999	n/a	n/a	n/a	n/a	13	[0, 0, 0]	-999	PAL1	0	R1031M
1547.241	4.724	933776	REC_EVENT	301	6	4	NET	<>	LAND	NET	13	[0, 0, 0]	-999	PAL1	0	R1031M
1551.965	0.009	936138	REC_END	n/a	6	-999	n/a	n/a	n/a	n/a	13	[0, 0, 0]	-999	PAL1	0	R1031M
1551.974	0.933	936143	TEST_ORIENT	n/a	5	5	TRAY	FISH	TRAY	FISH	13	[0, 0, 0]	-999	PAL1	0	R1031M
1552.907	0.0	936609	TEST_PROBE	n/a	5	5	TRAY	FISH	TRAY	FISH	13	[0, 0, 0]	-999	PAL1	0	R1031M
1552.907	1.227	936609	REC_START	n/a	5	-999	n/a	FISH	n/a	n/a	13	[0, 0, 0]	-999	PAL1	0	R1031M
1554.134	3.79	937222	REC_EVENT	1227	5	5	TRAY	FISH	TRAY	FISH	13	[0, 0, 0]	-999	PAL1	0	R1031M
1557.924	0.018	939117	REC_END	n/a	5	-999	n/a	n/a	n/a	n/a	13	[0, 0, 0]	-999	PAL1	0	R1031M
1557.942	0.932	939126	TEST_ORIENT	n/a	4	6	CORD	NOSE	CORD	NOSE	13	[0, 0, 0]	-999	PAL1	0	R1031M
1558.874	0.001	939592	TEST_PROBE	n/a	4	6	CORD	NOSE	CORD	NOSE	13	[0, 0, 0]	-999	PAL1	0	R1031M
1558.875	1.584	939593	REC_START	n/a	4	-999	n/a	NOSE	n/a	n/a	13	[0, 0, 0]	-999	PAL1	0	R1031M
1560.459	3.424	940385	REC_EVENT	1584	4	6	CORD	NOSE	CORD	NOSE	13	[0, 0, 0]	-999	PAL1	0	R1031M
1563.883	1.788	942096	REC_END	n/a	4	-999	n/a	n/a	n/a	n/a	13	[0, 0, 0]	-999	PAL1	0	R1031M
1565.671	10.441	942990	ENCODING_START	n/a	0	-999	n/a	n/a	n/a	n/a	14	[0, 0, 0]	-999	PAL1	0	R1031M
1576.112	0.783	948210	STUDY_ORIENT	n/a	1	5	BOAT	CAR	BOAT	CAR	14	[0, 0, 0]	-999	PAL1	0	R1031M
1576.895	5.034	948602	STUDY_PAIR	n/a	1	5	BOAT	CAR	BOAT	CAR	14	[0, 0, 0]	-999	PAL1	0	R1031M
1581.929	0.934	951119	STUDY_ORIENT	n/a	2	2	OAR	n/a	HOOF	OAR	14	[0, 0, 0]	-999	PAL1	0	R1031M
1582.863	5.034	951585	STUDY_PAIR	n/a	2	2	OAR	n/a	HOOF	OAR	14	[0, 0, 0]	-999	PAL1	0	R1031M
1587.897	1.0	954102	STUDY_ORIENT	n/a	3	1	FRUIT	CLOCK	FRUIT	CLOCK	14	[0, 0, 0]	-999	PAL1	0	R1031M
1588.897	5.018	954602	STUDY_PAIR	n/a	3	1	FRUIT	CLOCK	FRUIT	CLOCK	14	[0, 0, 0]	-999	PAL1	0	R1031M
1593.915	0.95	957111	STUDY_ORIENT	n/a	4	6	TANK	PURSE	PURSE	TANK	14	[0, 0, 0]	-999	PAL1	0	R1031M
1594.865	5.034	957586	STUDY_PAIR	n/a	4	6	TANK	PURSE	PURSE	TANK	14	[0, 0, 0]	-999	PAL1	0	R1031M
1599.899	0.834	960103	STUDY_ORIENT	n/a	5	3	PLATE	n/a	SEAT	PLATE	14	[0, 0, 0]	-999	PAL1	0	R1031M
1600.733	5.034	960520	STUDY_PAIR	n/a	5	3	PLATE	n/a	SEAT	PLATE	14	[0, 0, 0]	-999	PAL1	0	R1031M
1605.767	0.834	963036	STUDY_ORIENT	n/a	6	4	CROW	HORSE	BEAR	CROW	14	[0, 0, 0]	-999	PAL1	0	R1031M
1606.601	4.018	963453	STUDY_PAIR	n/a	6	4	CROW	HORSE	BEAR	CROW	14	[0, 0, 0]	-999	PAL1	0	R1031M
1610.619	0.999	965462	START	n/a	-999	-999	n/a	n/a	n/a	n/a	14	[-999, -999, -999]	-999	PAL1	0	R1031M
1611.618	0.017	965961	MATH_START	n/a	-999	-999	n/a	n/a	n/a	n/a	14	[0, 0, 0]	-999	PAL1	0	R1031M
1611.635	3.735	965970	PROB	3709	-999	-999	n/a	n/a	n/a	n/a	14	[7, 1, 8]	16	PAL1	0	R1031M
1615.37	3.101	967837	PROB	3070	-999	-999	n/a	n/a	n/a	n/a	14	[3, 5, 6]	14	PAL1	0	R1031M
1618.471	3.067	969388	PROB	3041	-999	-999	n/a	n/a	n/a	n/a	14	[2, 4, 4]	10	PAL1	0	R1031M
1621.538	2.6	970921	PROB	2566	-999	-999	n/a	n/a	n/a	n/a	14	[1, 1, 3]	5	PAL1	0	R1031M
1624.138	2.934	972221	PROB	2902	-999	-999	n/a	n/a	n/a	n/a	14	[8, 7, 7]	22	PAL1	0	R1031M
1627.072	2.951	973688	PROB	2920	-999	-999	n/a	n/a	n/a	n/a	14	[5, 2, 5]	12	PAL1	0	R1031M
1630.023	3.033	975163	PROB	3033	-999	-999	n/a	n/a	n/a	n/a	14	[7, 4, 5]	16	PAL1	0	R1031M
1633.056	0.018	976679	STOP	n/a	-999	-999	n/a	n/a	n/a	n/a	14	[-999, -999, -999]	-999	PAL1	0	R1031M
1633.074	0.0	976688	MATH_END	n/a	-999	-999	n/a	n/a	n/a	n/a	14	[0, 0, 0]	-999	PAL1	0	R1031M
1633.074	0.016	976688	TEST_START	n/a	-999	-999	n/a	n/a	n/a	n/a	14	[0, 0, 0]	-999	PAL1	0	R1031M
1633.09	0.9	976696	TEST_ORIENT	n/a	3	1	FRUIT	CLOCK	FRUIT	CLOCK	14	[0, 0, 0]	-999	PAL1	0	R1031M
1633.99	0.001	977146	TEST_PROBE	n/a	3	1	FRUIT	CLOCK	FRUIT	CLOCK	14	[0, 0, 0]	-999	PAL1	0	R1031M
1633.991	2.007	977147	REC_START	n/a	3	-999	n/a	CLOCK	n/a	n/a	14	[0, 0, 0]	-999	PAL1	0	R1031M
1635.998	3.002	978150	REC_EVENT	2007	3	1	FRUIT	CLOCK	FRUIT	CLOCK	14	[0, 0, 0]	-999	PAL1	0	R1031M
1639.0	0.008	979651	REC_END	n/a	3	-999	n/a	n/a	n/a	n/a	14	[0, 0, 0]	-999	PAL1	0	R1031M
1639.008	0.799	979655	TEST_ORIENT	n/a	2	2	OAR	n/a	HOOF	OAR	14	[0, 0, 0]	-999	PAL1	0	R1031M
1639.807	0.001	980055	TEST_PROBE	n/a	2	2	OAR	n/a	HOOF	OAR	14	[0, 0, 0]	-999	PAL1	0	R1031M
1639.808	0.0	980055	REC_START	n/a	2	-999	n/a	n/a	n/a	n/a	14	[0, 0, 0]	-999	PAL1	0	R1031M
1639.808	5.008	980055	REC_EVENT	0	2	2	OAR	<>	HOOF	OAR	14	[0, 0, 0]	-999	PAL1	0	R1031M
1644.816	0.009	982559	REC_END	n/a	2	-999	n/a	n/a	n/a	n/a	14	[0, 0, 0]	-999	PAL1	0	R1031M
1644.825	0.867	982563	TEST_ORIENT	n/a	5	3	PLATE	n/a	SEAT	PLATE	14	[0, 0, 0]	-999	PAL1	0	R1031M
1645.692	0.0	982997	TEST_PROBE	n/a	5	3	PLATE	n/a	SEAT	PLATE	14	[0, 0, 0]	-999	PAL1	0	R1031M
1645.692	0.0	982997	REC_START	n/a	5	-999	n/a	n/a	n/a	n/a	14	[0, 0, 0]	-999	PAL1	0	R1031M
1645.692	5.017	982997	REC_EVENT	0	5	3	PLATE	<>	SEAT	PLATE	14	[0, 0, 0]	-999	PAL1	0	R1031M
1650.709	0.017	985505	REC_END	n/a	5	-999	n/a	n/a	n/a	n/a	14	[0, 0, 0]	-999	PAL1	0	R1031M
1650.726	0.851	985513	TEST_ORIENT	n/a	6	4	CROW	HORSE	BEAR	CROW	14	[0, 0, 0]	-999	PAL1	0	R1031M
1651.577	0.001	985939	TEST_PROBE	n/a	6	4	CROW	HORSE	BEAR	CROW	14	[0, 0, 0]	-999	PAL1	0	R1031M
1651.578	2.842	985939	REC_START	n/a	6	-999	n/a	HORSE	n/a	n/a	14	[0, 0, 0]	-999	PAL1	0	R1031M
1654.42	2.166	987360	REC_EVENT	2842	6	4	CROW	HORSE	BEAR	CROW	14	[0, 0, 0]	-999	PAL1	0	R1031M
1656.586	0.008	988443	REC_END	n/a	6	-999	n/a	n/a	n/a	n/a	14	[0, 0, 0]	-999	PAL1	0	R1031M
1656.594	0.985	988447	TEST_ORIENT	n/a	1	5	BOAT	CAR	BOAT	CAR	14	[0, 0, 0]	-999	PAL1	0	R1031M
1657.579	0.0	988940	TEST_PROBE	n/a	1	5	BOAT	CAR	BOAT	CAR	14	[0, 0, 0]	-999	PAL1	0	R1031M
1657.579	1.126	988940	REC_START	n/a	1	-999	n/a	CAR	n/a	n/a	14	[0, 0, 0]	-999	PAL1	0	R1031M
1658.705	3.89	989503	REC_EVENT	1126	1	5	BOAT	CAR	BOAT	CAR	14	[0, 0, 0]	-999	PAL1	0	R1031M
1662.595	0.017	991447	REC_END	n/a	1	-999	n/a	n/a	n/a	n/a	14	[0, 0, 0]	-999	PAL1	0	R1031M
1662.612	0.951	991456	TEST_ORIENT	n/a	4	6	TANK	PURSE	PURSE	TANK	14	[0, 0, 0]	-999	PAL1	0	R1031M
1663.563	0.0	991931	TEST_PROBE	n/a	4	6	TANK	PURSE	PURSE	TANK	14	[0, 0, 0]	-999	PAL1	0	R1031M
1663.563	1.615	991931	REC_START	n/a	4	-999	n/a	PURSE	n/a	n/a	14	[0, 0, 0]	-999	PAL1	0	R1031M
1665.178	3.403	992739	REC_EVENT	1615	4	6	TANK	PURSE	PURSE	TANK	14	[0, 0, 0]	-999	PAL1	0	R1031M
1668.581	2.003	994440	REC_END	n/a	4	-999	n/a	n/a	n/a	n/a	14	[0, 0, 0]	-999	PAL1	0	R1031M
1670.584	10.449	995441	ENCODING_START	n/a	0	-999	n/a	n/a	n/a	n/a	15	[0, 0, 0]	-999	PAL1	0	R1031M
1681.033	0.849	1000665	STUDY_ORIENT	n/a	1	1	DIME	SLEEVE	DIME	SLEEVE	15	[0, 0, 0]	-999	PAL1	0	R1031M
1681.882	5.018	1001090	STUDY_PAIR	n/a	1	1	DIME	SLEEVE	DIME	SLEEVE	15	[0, 0, 0]	-999	PAL1	0	R1031M
1686.9	0.767	1003599	STUDY_ORIENT	n/a	2	2	CUBE	DART	CUBE	DART	15	[0, 0, 0]	-999	PAL1	0	R1031M
1687.667	5.034	1003982	STUDY_PAIR	n/a	2	2	CUBE	DART	CUBE	DART	15	[0, 0, 0]	-999	PAL1	0	R1031M
1692.701	0.801	1006499	STUDY_ORIENT	n/a	3	5	STEAK	CASH	STEAK	CASH	15	[0, 0, 0]	-999	PAL1	0	R1031M
1693.502	5.018	1006899	STUDY_PAIR	n/a	3	5	STEAK	CASH	STEAK	CASH	15	[0, 0, 0]	-999	PAL1	0	R1031M
1698.52	0.867	1009408	STUDY_ORIENT	n/a	4	4	SHIELD	ROOF	SHIELD	ROOF	15	[0, 0, 0]	-999	PAL1	0	R1031M
1699.387	5.034	1009841	STUDY_PAIR	n/a	4	4	SHIELD	ROOF	SHIELD	ROOF	15	[0, 0, 0]	-999	PAL1	0	R1031M
1704.421	1.017	1012358	STUDY_ORIENT	n/a	5	3	CAPE	MAT	MAT	CAPE	15	[0, 0, 0]	-999	PAL1	0	R1031M
1705.438	5.018	1012867	STUDY_PAIR	n/a	5	3	CAPE	MAT	MAT	CAPE	15	[0, 0, 0]	-999	PAL1	0	R1031M
1710.456	0.783	1015375	STUDY_ORIENT	n/a	6	6	THUMB	HOLE	THUMB	HOLE	15	[0, 0, 0]	-999	PAL1	0	R1031M
1711.239	4.001	1015767	STUDY_PAIR	n/a	6	6	THUMB	HOLE	THUMB	HOLE	15	[0, 0, 0]	-999	PAL1	0	R1031M
1715.24	1.0	1017767	START	n/a	-999	-999	n/a	n/a	n/a	n/a	15	[-999, -999, -999]	-999	PAL1	0	R1031M
1716.24	0.017	1018267	MATH_START	n/a	-999	-999	n/a	n/a	n/a	n/a	15	[0, 0, 0]	-999	PAL1	0	R1031M
1716.257	3.717	1018276	PROB	3695	-999	-999	n/a	n/a	n/a	n/a	15	[2, 5, 3]	10	PAL1	0	R1031M
1719.974	3.284	1020134	PROB	3250	-999	-999	n/a	n/a	n/a	n/a	15	[1, 7, 7]	15	PAL1	0	R1031M
1723.258	3.35	1021776	PROB	3326	-999	-999	n/a	n/a	n/a	n/a	15	[9, 4, 7]	20	PAL1	0	R1031M
1726.608	3.101	1023451	PROB	3079	-999	-999	n/a	n/a	n/a	n/a	15	[4, 5, 4]	13	PAL1	0	R1031M
1729.709	3.117	1025001	PROB	3082	-999	-999	n/a	n/a	n/a	n/a	15	[6, 1, 2]	9	PAL1	0	R1031M
1732.826	3.021	1026559	PROB	3021	-999	-999	n/a	n/a	n/a	n/a	15	[4, 4, 1]	9	PAL1	0	R1031M
1735.847	0.013	1028070	STOP	n/a	-999	-999	n/a	n/a	n/a	n/a	15	[-999, -999, -999]	-999	PAL1	0	R1031M
1735.86	0.0	1028076	MATH_END	n/a	-999	-999	n/a	n/a	n/a	n/a	15	[0, 0, 0]	-999	PAL1	0	R1031M
1735.86	0.016	1028076	TEST_START	n/a	-999	-999	n/a	n/a	n/a	n/a	15	[0, 0, 0]	-999	PAL1	0	R1031M
1735.876	1.017	1028084	TEST_ORIENT	n/a	1	1	DIME	SLEEVE	DIME	SLEEVE	15	[0, 0, 0]	-999	PAL1	0	R1031M
1736.893	0.001	1028593	TEST_PROBE	n/a	1	1	DIME	SLEEVE	DIME	SLEEVE	15	[0, 0, 0]	-999	PAL1	0	R1031M
1736.894	1.196	1028593	REC_START	n/a	1	-999	n/a	SLEEVE	n/a	n/a	15	[0, 0, 0]	-999	PAL1	0	R1031M
1738.09	3.813	1029191	REC_EVENT	1196	1	1	DIME	SLEEVE	DIME	SLEEVE	15	[0, 0, 0]	-999	PAL1	0	R1031M
1741.903	0.008	1031097	REC_END	n/a	1	-999	n/a	n/a	n/a	n/a	15	[0, 0, 0]	-999	PAL1	0	R1031M
1741.911	1.0	1031101	TEST_ORIENT	n/a	2	2	CUBE	DART	CUBE	DART	15	[0, 0, 0]	-999	PAL1	0	R1031M
1742.911	0.001	1031601	TEST_PROBE	n/a	2	2	CUBE	DART	CUBE	DART	15	[0, 0, 0]	-999	PAL1	0	R1031M
1742.912	2.251	1031602	REC_START	n/a	2	-999	n/a	DART	n/a	n/a	15	[0, 0, 0]	-999	PAL1	0	R1031M
1745.163	2.757	1032727	REC_EVENT	2251	2	2	CUBE	DART	CUBE	DART	15	[0, 0, 0]	-999	PAL1	0	R1031M
1747.92	0.009	1034106	REC_END	n/a	2	-999	n/a	n/a	n/a	n/a	15	[0, 0, 0]	-999	PAL1	0	R1031M
1747.929	0.8	1034110	TEST_ORIENT	n/a	5	3	CAPE	MAT	MAT	CAPE	15	[0, 0, 0]	-999	PAL1	0	R1031M
1748.729	0.003	1034510	TEST_PROBE	n/a	5	3	CAPE	MAT	MAT	CAPE	15	[0, 0, 0]	-999	PAL1	0	R1031M
1748.732	1.337	1034511	REC_START	n/a	5	-999	n/a	MAT	n/a	n/a	15	[0, 0, 0]	-999	PAL1	0	R1031M
1750.069	3.661	1035180	REC_EVENT	1337	5	3	CAPE	MAT	MAT	CAPE	15	[0, 0, 0]	-999	PAL1	0	R1031M
1753.73	0.017	1037010	REC_END	n/a	5	-999	n/a	n/a	n/a	n/a	15	[0, 0, 0]	-999	PAL1	0	R1031M
1753.747	0.883	1037019	TEST_ORIENT	n/a	4	4	SHIELD	ROOF	SHIELD	ROOF	15	[0, 0, 0]	-999	PAL1	0	R1031M
1754.63	0.001	1037460	TEST_PROBE	n/a	4	4	SHIELD	ROOF	SHIELD	ROOF	15	[0, 0, 0]	-999	PAL1	0	R1031M
1754.631	1.649	1037461	REC_START	n/a	4	-999	n/a	ROOF	n/a	n/a	15	[0, 0, 0]	-999	PAL1	0	R1031M
1756.28	3.359	1038285	REC_EVENT	1649	4	4	SHIELD	ROOF	SHIELD	ROOF	15	[0, 0, 0]	-999	PAL1	0	R1031M
1759.639	0.009	1039964	REC_END	n/a	4	-999	n/a	n/a	n/a	n/a	15	[0, 0, 0]	-999	PAL1	0	R1031M
1759.648	0.918	1039969	TEST_ORIENT	n/a	3	5	STEAK	CASH	STEAK	CASH	15	[0, 0, 0]	-999	PAL1	0	R1031M
1760.566	0.0	1040428	REC_START	n/a	3	-999	n/a	CASH	n/a	n/a	15	[0, 0, 0]	-999	PAL1	0	R1031M
1760.566	0.919	1040428	TEST_PROBE	n/a	3	5	STEAK	CASH	STEAK	CASH	15	[0, 0, 0]	-999	PAL1	0	R1031M
1761.485	4.098	1040887	REC_EVENT	919	3	5	STEAK	CASH	STEAK	CASH	15	[0, 0, 0]	-999	PAL1	0	R1031M
1765.583	0.016	1042936	REC_END	n/a	3	-999	n/a	n/a	n/a	n/a	15	[0, 0, 0]	-999	PAL1	0	R1031M
1765.599	0.985	1042944	TEST_ORIENT	n/a	6	6	THUMB	HOLE	THUMB	HOLE	15	[0, 0, 0]	-999	PAL1	0	R1031M
1766.584	0.0	1043437	TEST_PROBE	n/a	6	6	THUMB	HOLE	THUMB	HOLE	15	[0, 0, 0]	-999	PAL1	0	R1031M
1766.584	0.914	1043437	REC_START	n/a	6	-999	n/a	HOLE	n/a	n/a	15	[0, 0, 0]	-999	PAL1	0	R1031M
1767.498	4.102	1043894	REC_EVENT	914	6	6	THUMB	HOLE	THUMB	HOLE	15	[0, 0, 0]	-999	PAL1	0	R1031M
1771.6	1.712	1045944	REC_END	n/a	6	-999	n/a	n/a	n/a	n/a	15	[0, 0, 0]	-999	PAL1	0	R1031M
1773.312	10.441	1046800	ENCODING_START	n/a	0	-999	n/a	n/a	n/a	n/a	16	[0, 0, 0]	-999	PAL1	0	R1031M
1783.753	0.818	1052020	STUDY_ORIENT	n/a	1	5	CLAY	BLUSH	BLUSH	CLAY	16	[0, 0, 0]	-999	PAL1	0	R1031M
1784.571	5.016	1052429	STUDY_PAIR	n/a	1	5	CLAY	BLUSH	BLUSH	CLAY	16	[0, 0, 0]	-999	PAL1	0	R1031M
1789.587	0.985	1054937	STUDY_ORIENT	n/a	2	2	JET	n/a	CAT	JET	16	[0, 0, 0]	-999	PAL1	0	R1031M
1790.572	5.033	1055429	STUDY_PAIR	n/a	2	2	JET	n/a	CAT	JET	16	[0, 0, 0]	-999	PAL1	0	R1031M
1795.605	1.0	1057946	STUDY_ORIENT	n/a	3	3	BLOOM	ROOT	BLOOM	ROOT	16	[0, 0, 0]	-999	PAL1	0	R1031M
1796.605	5.018	1058446	STUDY_PAIR	n/a	3	3	BLOOM	ROOT	BLOOM	ROOT	16	[0, 0, 0]	-999	PAL1	0	R1031M
1801.623	0.967	1060954	STUDY_ORIENT	n/a	4	4	TAIL	GRASS	GRASS	TAIL	16	[0, 0, 0]	-999	PAL1	0	R1031M
1802.59	5.034	1061438	STUDY_PAIR	n/a	4	4	TAIL	GRASS	GRASS	TAIL	16	[0, 0, 0]	-999	PAL1	0	R1031M
1807.624	0.984	1063954	STUDY_ORIENT	n/a	5	1	WHEEL	STRING	STRING	WHEEL	16	[0, 0, 0]	-999	PAL1	0	R1031M
1808.608	5.034	1064446	STUDY_PAIR	n/a	5	1	WHEEL	STRING	STRING	WHEEL	16	[0, 0, 0]	-999	PAL1	0	R1031M
1813.642	1.0	1066963	STUDY_ORIENT	n/a	6	6	FOX	LAWN	FOX	MOON	16	[0, 0, 0]	-999	PAL1	0	R1031M
1814.642	4.001	1067463	STUDY_PAIR	n/a	6	6	FOX	LAWN	FOX	MOON	16	[0, 0, 0]	-999	PAL1	0	R1031M
1818.643	1.0	1069463	START	n/a	-999	-999	n/a	n/a	n/a	n/a	16	[-999, -999, -999]	-999	PAL1	0	R1031M
1819.643	0.017	1069963	MATH_START	n/a	-999	-999	n/a	n/a	n/a	n/a	16	[0, 0, 0]	-999	PAL1	0	R1031M
1819.66	3.635	1069972	PROB	3604	-999	-999	n/a	n/a	n/a	n/a	16	[5, 6, 2]	13	PAL1	0	R1031M
1823.295	3.35	1071789	PROB	3328	-999	-999	n/a	n/a	n/a	n/a	16	[5, 7, 6]	18	PAL1	0	R1031M
1826.645	3.25	1073464	PROB	3218	-999	-999	n/a	n/a	n/a	n/a	16	[9, 8, 1]	18	PAL1	0	R1031M
1829.895	3.685	1075089	PROB	3665	-999	-999	n/a	n/a	n/a	n/a	16	[4, 4, 6]	14	PAL1	0	R1031M
1833.58	3.2	1076931	PROB	3179	-999	-999	n/a	n/a	n/a	n/a	16	[1, 5, 8]	14	PAL1	0	R1031M
1836.78	3.083	1078531	PROB	3083	-999	-999	n/a	n/a	n/a	n/a	16	[8, 8, 8]	24	PAL1	0	R1031M
1839.863	0.018	1080072	STOP	n/a	-999	-999	n/a	n/a	n/a	n/a	16	[-999, -999, -999]	-999	PAL1	0	R1031M
1839.881	0.0	1080081	MATH_END	n/a	-999	-999	n/a	n/a	n/a	n/a	16	[0, 0, 0]	-999	PAL1	0	R1031M
1839.881	0.016	1080081	TEST_START	n/a	-999	-999	n/a	n/a	n/a	n/a	16	[0, 0, 0]	-999	PAL1	0	R1031M
1839.897	0.784	1080089	TEST_ORIENT	n/a	5	1	WHEEL	STRING	STRING	WHEEL	16	[0, 0, 0]	-999	PAL1	0	R1031M
1840.681	0.0	1080481	TEST_PROBE	n/a	5	1	WHEEL	STRING	STRING	WHEEL	16	[0, 0, 0]	-999	PAL1	0	R1031M
1840.681	1.804	1080481	REC_START	n/a	5	-999	n/a	STRING	n/a	n/a	16	[0, 0, 0]	-999	PAL1	0	R1031M
1842.485	3.213	1081383	REC_EVENT	1804	5	1	WHEEL	STRING	STRING	WHEEL	16	[0, 0, 0]	-999	PAL1	0	R1031M
1845.698	0.017	1082990	REC_END	n/a	5	-999	n/a	n/a	n/a	n/a	16	[0, 0, 0]	-999	PAL1	0	R1031M
1845.715	0.967	1082998	TEST_ORIENT	n/a	2	2	JET	n/a	CAT	JET	16	[0, 0, 0]	-999	PAL1	0	R1031M
1846.682	0.0	1083481	TEST_PROBE	n/a	2	2	JET	n/a	CAT	JET	16	[0, 0, 0]	-999	PAL1	0	R1031M
1846.682	0.348	1083481	REC_START	n/a	2	-999	n/a	n/a	n/a	n/a	16	[0, 0, 0]	-999	PAL1	0	R1031M
1847.03	4.67	1083655	REC_EVENT	348	2	2	JET	<>	CAT	JET	16	[0, 0, 0]	-999	PAL1	0	R1031M
1851.7	0.016	1085990	REC_END	n/a	2	-999	n/a	n/a	n/a	n/a	16	[0, 0, 0]	-999	PAL1	0	R1031M
1851.716	0.818	1085998	TEST_ORIENT	n/a	3	3	BLOOM	ROOT	BLOOM	ROOT	16	[0, 0, 0]	-999	PAL1	0	R1031M
1852.534	0.001	1086407	TEST_PROBE	n/a	3	3	BLOOM	ROOT	BLOOM	ROOT	16	[0, 0, 0]	-999	PAL1	0	R1031M
1852.535	1.588	1086408	REC_START	n/a	3	-999	n/a	ROOT	n/a	n/a	16	[0, 0, 0]	-999	PAL1	0	R1031M
1854.123	3.42	1087202	REC_EVENT	1588	3	3	BLOOM	ROOT	BLOOM	ROOT	16	[0, 0, 0]	-999	PAL1	0	R1031M
1857.543	0.009	1088911	REC_END	n/a	3	-999	n/a	n/a	n/a	n/a	16	[0, 0, 0]	-999	PAL1	0	R1031M
1857.552	0.867	1088916	TEST_ORIENT	n/a	4	4	TAIL	GRASS	GRASS	TAIL	16	[0, 0, 0]	-999	PAL1	0	R1031M
1858.419	0.0	1089349	TEST_PROBE	n/a	4	4	TAIL	GRASS	GRASS	TAIL	16	[0, 0, 0]	-999	PAL1	0	R1031M
1858.419	2.753	1089349	REC_START	n/a	4	-999	n/a	GRASS	n/a	n/a	16	[0, 0, 0]	-999	PAL1	0	R1031M
1861.172	2.264	1090726	REC_EVENT	2753	4	4	TAIL	GRASS	GRASS	TAIL	16	[0, 0, 0]	-999	PAL1	0	R1031M
1863.436	0.017	1091858	REC_END	n/a	4	-999	n/a	n/a	n/a	n/a	16	[0, 0, 0]	-999	PAL1	0	R1031M
1863.453	0.85	1091866	TEST_ORIENT	n/a	1	5	CLAY	BLUSH	BLUSH	CLAY	16	[0, 0, 0]	-999	PAL1	0	R1031M
1864.303	0.001	1092291	TEST_PROBE	n/a	1	5	CLAY	BLUSH	BLUSH	CLAY	16	[0, 0, 0]	-999	PAL1	0	R1031M
1864.304	1.917	1092292	REC_START	n/a	1	-999	n/a	BLUSH	n/a	n/a	16	[0, 0, 0]	-999	PAL1	0	R1031M
1866.221	3.091	1093250	REC_EVENT	1917	1	5	CLAY	BLUSH	BLUSH	CLAY	16	[0, 0, 0]	-999	PAL1	0	R1031M
1869.312	0.009	1094795	REC_END	n/a	1	-999	n/a	n/a	n/a	n/a	16	[0, 0, 0]	-999	PAL1	0	R1031M
1869.321	0.817	1094800	TEST_ORIENT	n/a	6	6	FOX	LAWN	FOX	MOON	16	[0, 0, 0]	-999	PAL1	0	R1031M
1870.138	0.0	1095208	TEST_PROBE	n/a	6	6	FOX	LAWN	FOX	MOON	16	[0, 0, 0]	-999	PAL1	0	R1031M
1870.138	2.836	1095208	REC_START	n/a	6	-999	n/a	LAWN	n/a	n/a	16	[0, 0, 0]	-999	PAL1	0	R1031M
1872.974	2.181	1096626	REC_EVENT	2836	6	6	FOX	LAWN	FOX	MOON	16	[0, 0, 0]	-999	PAL1	0	R1031M
1875.155	2.772	1097717	REC_END	n/a	6	-999	n/a	n/a	n/a	n/a	16	[0, 0, 0]	-999	PAL1	0	R1031M
1877.927	10.464	1099102	ENCODING_START	n/a	0	-999	n/a	n/a	n/a	n/a	17	[0, 0, 0]	-999	PAL1	0	R1031M
1888.391	0.817	1104334	STUDY_ORIENT	n/a	1	1	BOOK	FUR	BOOK	FUR	17	[0, 0, 0]	-999	PAL1	0	R1031M
1889.208	5.018	1104742	STUDY_PAIR	n/a	1	1	BOOK	FUR	BOOK	FUR	17	[0, 0, 0]	-999	PAL1	0	R1031M
1894.226	0.8	1107251	STUDY_ORIENT	n/a	2	2	FLOOR	n/a	CANE	FLOOR	17	[0, 0, 0]	-999	PAL1	0	R1031M
1895.026	5.034	1107651	STUDY_PAIR	n/a	2	2	FLOOR	n/a	CANE	FLOOR	17	[0, 0, 0]	-999	PAL1	0	R1031M
1900.06	1.001	1110168	STUDY_ORIENT	n/a	3	3	VINE	n/a	BREAD	VINE	17	[0, 0, 0]	-999	PAL1	0	R1031M
1901.061	5.034	1110668	STUDY_PAIR	n/a	3	3	VINE	n/a	BREAD	VINE	17	[0, 0, 0]	-999	PAL1	0	R1031M
1906.095	0.933	1113185	STUDY_ORIENT	n/a	4	4	SMOKE	HAND	HAND	SMOKE	17	[0, 0, 0]	-999	PAL1	0	R1031M
1907.028	5.018	1113651	STUDY_PAIR	n/a	4	4	SMOKE	HAND	HAND	SMOKE	17	[0, 0, 0]	-999	PAL1	0	R1031M
1912.046	0.783	1116160	STUDY_ORIENT	n/a	5	5	VAN	WAVE	VAN	WAVE	17	[0, 0, 0]	-999	PAL1	0	R1031M
1912.829	5.034	1116552	STUDY_PAIR	n/a	5	5	VAN	WAVE	VAN	WAVE	17	[0, 0, 0]	-999	PAL1	0	R1031M
1917.863	0.95	1119068	STUDY_ORIENT	n/a	6	6	SPOON	LEG	LEG	SPOON	17	[0, 0, 0]	-999	PAL1	0	R1031M
1918.813	4.002	1119543	STUDY_PAIR	n/a	6	6	SPOON	LEG	LEG	SPOON	17	[0, 0, 0]	-999	PAL1	0	R1031M
1922.815	0.999	1121544	START	n/a	-999	-999	n/a	n/a	n/a	n/a	17	[-999, -999, -999]	-999	PAL1	0	R1031M
1923.814	0.017	1122044	MATH_START	n/a	-999	-999	n/a	n/a	n/a	n/a	17	[0, 0, 0]	-999	PAL1	0	R1031M
1923.831	3.418	1122052	PROB	3393	-999	-999	n/a	n/a	n/a	n/a	17	[7, 2, 3]	12	PAL1	0	R1031M
1927.249	2.851	1123761	PROB	2831	-999	-999	n/a	n/a	n/a	n/a	17	[8, 7, 7]	22	PAL1	0	R1031M
1930.1	3.4	1125186	PROB	3372	-999	-999	n/a	n/a	n/a	n/a	17	[6, 6, 7]	19	PAL1	0	R1031M
1933.5	2.984	1126886	PROB	2964	-999	-999	n/a	n/a	n/a	n/a	17	[1, 9, 8]	18	PAL1	0	R1031M
1936.484	4.551	1128378	PROB	4524	-999	-999	n/a	n/a	n/a	n/a	17	[2, 9, 1]	12	PAL1	0	R1031M
1941.035	3.533	1130653	PROB	3533	-999	-999	n/a	n/a	n/a	n/a	17	[8, 1, 8]	17	PAL1	0	R1031M
1944.568	0.018	1132419	STOP	n/a	-999	-999	n/a	n/a	n/a	n/a	17	[-999, -999, -999]	-999	PAL1	0	R1031M
1944.586	0.0	1132428	MATH_END	n/a	-999	-999	n/a	n/a	n/a	n/a	17	[0, 0, 0]	-999	PAL1	0	R1031M
1944.586	0.016	1132428	TEST_START	n/a	-999	-999	n/a	n/a	n/a	n/a	17	[0, 0, 0]	-999	PAL1	0	R1031M
1944.602	0.951	1132436	TEST_ORIENT	n/a	1	1	BOOK	FUR	BOOK	FUR	17	[0, 0, 0]	-999	PAL1	0	R1031M
1945.553	0.001	1132912	TEST_PROBE	n/a	1	1	BOOK	FUR	BOOK	FUR	17	[0, 0, 0]	-999	PAL1	0	R1031M
1945.554	1.077	1132912	REC_START	n/a	1	-999	n/a	FUR	n/a	n/a	17	[0, 0, 0]	-999	PAL1	0	R1031M
1946.631	3.939	1133451	REC_EVENT	1077	1	1	BOOK	FUR	BOOK	FUR	17	[0, 0, 0]	-999	PAL1	0	R1031M
1950.57	0.017	1135420	REC_END	n/a	1	-999	n/a	n/a	n/a	n/a	17	[0, 0, 0]	-999	PAL1	0	R1031M
1950.587	0.85	1135429	TEST_ORIENT	n/a	2	2	FLOOR	n/a	CANE	FLOOR	17	[0, 0, 0]	-999	PAL1	0	R1031M
1951.437	0.001	1135854	TEST_PROBE	n/a	2	2	FLOOR	n/a	CANE	FLOOR	17	[0, 0, 0]	-999	PAL1	0	R1031M
1951.438	0.0	1135854	REC_START	n/a	2	-999	n/a	n/a	n/a	n/a	17	[0, 0, 0]	-999	PAL1	0	R1031M
1951.438	5.008	1135854	REC_EVENT	0	2	2	FLOOR	<>	CANE	FLOOR	17	[0, 0, 0]	-999	PAL1	0	R1031M
1956.446	0.009	1138358	REC_END	n/a	2	-999	n/a	n/a	n/a	n/a	17	[0, 0, 0]	-999	PAL1	0	R1031M
1956.455	0.95	1138362	TEST_ORIENT	n/a	3	3	VINE	n/a	BREAD	VINE	17	[0, 0, 0]	-999	PAL1	0	R1031M
1957.405	0.001	1138837	TEST_PROBE	n/a	3	3	VINE	n/a	BREAD	VINE	17	[0, 0, 0]	-999	PAL1	0	R1031M
1957.406	0.0	1138838	REC_START	n/a	3	-999	n/a	n/a	n/a	n/a	17	[0, 0, 0]	-999	PAL1	0	R1031M
1957.406	5.008	1138838	REC_EVENT	0	3	3	VINE	<>	BREAD	VINE	17	[0, 0, 0]	-999	PAL1	0	R1031M
1962.414	0.009	1141342	REC_END	n/a	3	-999	n/a	n/a	n/a	n/a	17	[0, 0, 0]	-999	PAL1	0	R1031M
1962.423	0.95	1141346	TEST_ORIENT	n/a	4	4	SMOKE	HAND	HAND	SMOKE	17	[0, 0, 0]	-999	PAL1	0	R1031M
1963.373	0.0	1141821	TEST_PROBE	n/a	4	4	SMOKE	HAND	HAND	SMOKE	17	[0, 0, 0]	-999	PAL1	0	R1031M
1963.373	1.361	1141821	REC_START	n/a	4	-999	n/a	HAND	n/a	n/a	17	[0, 0, 0]	-999	PAL1	0	R1031M
1964.734	3.656	1142501	REC_EVENT	1361	4	4	SMOKE	HAND	HAND	SMOKE	17	[0, 0, 0]	-999	PAL1	0	R1031M
1968.39	0.017	1144329	REC_END	n/a	4	-999	n/a	n/a	n/a	n/a	17	[0, 0, 0]	-999	PAL1	0	R1031M
1968.407	0.867	1144338	TEST_ORIENT	n/a	5	5	VAN	WAVE	VAN	WAVE	17	[0, 0, 0]	-999	PAL1	0	R1031M
1969.274	0.001	1144771	TEST_PROBE	n/a	5	5	VAN	WAVE	VAN	WAVE	17	[0, 0, 0]	-999	PAL1	0	R1031M
1969.275	1.4	1144772	REC_START	n/a	5	-999	n/a	WAVE	n/a	n/a	17	[0, 0, 0]	-999	PAL1	0	R1031M
1970.675	3.609	1145472	REC_EVENT	1400	5	5	VAN	WAVE	VAN	WAVE	17	[0, 0, 0]	-999	PAL1	0	R1031M
1974.284	0.008	1147276	REC_END	n/a	5	-999	n/a	n/a	n/a	n/a	17	[0, 0, 0]	-999	PAL1	0	R1031M
1974.292	0.9	1147280	TEST_ORIENT	n/a	6	6	SPOON	LEG	LEG	SPOON	17	[0, 0, 0]	-999	PAL1	0	R1031M
1975.192	0.001	1147730	TEST_PROBE	n/a	6	6	SPOON	LEG	LEG	SPOON	17	[0, 0, 0]	-999	PAL1	0	R1031M
1975.193	1.889	1147730	REC_START	n/a	6	-999	n/a	LEG	n/a	n/a	17	[0, 0, 0]	-999	PAL1	0	R1031M
1977.082	3.128	1148675	REC_EVENT	1889	6	6	SPOON	LEG	LEG	SPOON	17	[0, 0, 0]	-999	PAL1	0	R1031M
1980.21	1.87	1150239	REC_END	n/a	6	-999	n/a	n/a	n/a	n/a	17	[0, 0, 0]	-999	PAL1	0	R1031M
1982.08	10.449	1151174	ENCODING_START	n/a	0	-999	n/a	n/a	n/a	n/a	18	[0, 0, 0]	-999	PAL1	0	R1031M
1992.529	0.95	1156397	STUDY_ORIENT	n/a	1	3	KEY	BROOM	KEY	BROOM	18	[0, 0, 0]	-999	PAL1	0	R1031M
1993.479	5.034	1156872	STUDY_PAIR	n/a	1	3	KEY	BROOM	KEY	BROOM	18	[0, 0, 0]	-999	PAL1	0	R1031M
1998.513	0.901	1159389	STUDY_ORIENT	n/a	2	4	STRAW	SHIP	STRAW	SHIP	18	[0, 0, 0]	-999	PAL1	0	R1031M
1999.414	5.034	1159840	STUDY_PAIR	n/a	2	4	STRAW	SHIP	STRAW	SHIP	18	[0, 0, 0]	-999	PAL1	0	R1031M
2004.448	0.8	1162356	STUDY_ORIENT	n/a	3	5	PEN	JEEP	JEEP	PEN	18	[0, 0, 0]	-999	PAL1	0	R1031M
2005.248	5.018	1162756	STUDY_PAIR	n/a	3	5	PEN	JEEP	JEEP	PEN	18	[0, 0, 0]	-999	PAL1	0	R1031M
2010.266	0.8	1165265	STUDY_ORIENT	n/a	4	2	JUICE	BAND	BAND	JUICE	18	[0, 0, 0]	-999	PAL1	0	R1031M
2011.066	5.034	1165665	STUDY_PAIR	n/a	4	2	JUICE	BAND	BAND	JUICE	18	[0, 0, 0]	-999	PAL1	0	R1031M
2016.1	0.884	1168182	STUDY_ORIENT	n/a	5	1	SAIL	EEL	SAIL	EEL	18	[0, 0, 0]	-999	PAL1	0	R1031M
2016.984	5.034	1168624	STUDY_PAIR	n/a	5	1	SAIL	EEL	SAIL	EEL	18	[0, 0, 0]	-999	PAL1	0	R1031M
2022.018	0.917	1171140	STUDY_ORIENT	n/a	6	6	FOOD	n/a	FILM	FOOD	18	[0, 0, 0]	-999	PAL1	0	R1031M
2022.935	4.018	1171599	STUDY_PAIR	n/a	6	6	FOOD	n/a	FILM	FOOD	18	[0, 0, 0]	-999	PAL1	0	R1031M
2026.953	0.999	1173608	START	n/a	-999	-999	n/a	n/a	n/a	n/a	18	[-999, -999, -999]	-999	PAL1	0	R1031M
2027.952	0.017	1174107	MATH_START	n/a	-999	-999	n/a	n/a	n/a	n/a	18	[0, 0, 0]	-999	PAL1	0	R1031M
2027.969	3.251	1174116	PROB	3231	-999	-999	n/a	n/a	n/a	n/a	18	[5, 7, 2]	14	PAL1	0	R1031M
2031.22	3.134	1175741	PROB	3108	-999	-999	n/a	n/a	n/a	n/a	18	[4, 2, 6]	12	PAL1	0	R1031M
2034.354	3.067	1177308	PROB	3038	-999	-999	n/a	n/a	n/a	n/a	18	[9, 5, 4]	17	PAL1	0	R1031M
2037.421	3.868	1178841	PROB	3835	-999	-999	n/a	n/a	n/a	n/a	18	[3, 2, 8]	13	PAL1	0	R1031M
2041.289	3.299	1180775	PROB	3271	-999	-999	n/a	n/a	n/a	n/a	18	[7, 2, 6]	15	PAL1	0	R1031M
2044.588	3.035	1182424	PROB	3035	-999	-999	n/a	n/a	n/a	n/a	18	[4, 9, 8]	21	PAL1	0	R1031M
2047.623	0.016	1183942	STOP	n/a	-999	-999	n/a	n/a	n/a	n/a	18	[-999, -999, -999]	-999	PAL1	0	R1031M
2047.639	0.0	1183950	MATH_END	n/a	-999	-999	n/a	n/a	n/a	n/a	18	[0, 0, 0]	-999	PAL1	0	R1031M
2047.639	0.017	1183950	TEST_START	n/a	-999	-999	n/a	n/a	n/a	n/a	18	[0, 0, 0]	-999	PAL1	0	R1031M
2047.656	1.033	1183958	TEST_ORIENT	n/a	5	1	SAIL	EEL	SAIL	EEL	18	[0, 0, 0]	-999	PAL1	0	R1031M
2048.689	0.0	1184475	REC_START	n/a	5	-999	n/a	EEL	n/a	n/a	18	[0, 0, 0]	-999	PAL1	0	R1031M
2048.689	2.465	1184475	TEST_PROBE	n/a	5	1	SAIL	EEL	SAIL	EEL	18	[0, 0, 0]	-999	PAL1	0	R1031M
2051.154	2.553	1185707	REC_EVENT	2465	5	1	SAIL	EEL	SAIL	EEL	18	[0, 0, 0]	-999	PAL1	0	R1031M
2053.707	0.016	1186983	REC_END	n/a	5	-999	n/a	n/a	n/a	n/a	18	[0, 0, 0]	-999	PAL1	0	R1031M
2053.723	0.818	1186991	TEST_ORIENT	n/a	4	2	JUICE	BAND	BAND	JUICE	18	[0, 0, 0]	-999	PAL1	0	R1031M
2054.541	0.001	1187400	TEST_PROBE	n/a	4	2	JUICE	BAND	BAND	JUICE	18	[0, 0, 0]	-999	PAL1	0	R1031M
2054.542	2.122	1187401	REC_START	n/a	4	-999	n/a	BAND	n/a	n/a	18	[0, 0, 0]	-999	PAL1	0	R1031M
2056.664	2.886	1188462	REC_EVENT	2122	4	2	JUICE	BAND	BAND	JUICE	18	[0, 0, 0]	-999	PAL1	0	R1031M
2059.55	0.009	1189905	REC_END	n/a	4	-999	n/a	n/a	n/a	n/a	18	[0, 0, 0]	-999	PAL1	0	R1031M
2059.559	0.85	1189909	TEST_ORIENT	n/a	1	3	KEY	BROOM	KEY	BROOM	18	[0, 0, 0]	-999	PAL1	0	R1031M
2060.409	0.001	1190334	TEST_PROBE	n/a	1	3	KEY	BROOM	KEY	BROOM	18	[0, 0, 0]	-999	PAL1	0	R1031M
2060.41	1.82	1190335	REC_START	n/a	1	-999	n/a	BROOM	n/a	n/a	18	[0, 0, 0]	-999	PAL1	0	R1031M
2062.23	3.188	1191244	REC_EVENT	1820	1	3	KEY	BROOM	KEY	BROOM	18	[0, 0, 0]	-999	PAL1	0	R1031M
2065.418	0.009	1192838	REC_END	n/a	1	-999	n/a	n/a	n/a	n/a	18	[0, 0, 0]	-999	PAL1	0	R1031M
2065.427	0.8	1192843	TEST_ORIENT	n/a	2	4	STRAW	SHIP	STRAW	SHIP	18	[0, 0, 0]	-999	PAL1	0	R1031M
2066.227	0.0	1193243	TEST_PROBE	n/a	2	4	STRAW	SHIP	STRAW	SHIP	18	[0, 0, 0]	-999	PAL1	0	R1031M
2066.227	1.164	1193243	REC_START	n/a	2	-999	n/a	SHIP	n/a	n/a	18	[0, 0, 0]	-999	PAL1	0	R1031M
2067.391	3.853	1193825	REC_EVENT	1164	2	4	STRAW	SHIP	STRAW	SHIP	18	[0, 0, 0]	-999	PAL1	0	R1031M
2071.244	0.017	1195751	REC_END	n/a	2	-999	n/a	n/a	n/a	n/a	18	[0, 0, 0]	-999	PAL1	0	R1031M
2071.261	1.034	1195759	TEST_ORIENT	n/a	3	5	PEN	JEEP	JEEP	PEN	18	[0, 0, 0]	-999	PAL1	0	R1031M
2072.295	0.0	1196276	TEST_PROBE	n/a	3	5	PEN	JEEP	JEEP	PEN	18	[0, 0, 0]	-999	PAL1	0	R1031M
2072.295	2.199	1196276	REC_START	n/a	3	-999	n/a	JEEP	n/a	n/a	18	[0, 0, 0]	-999	PAL1	0	R1031M
2074.494	2.818	1197376	REC_EVENT	2199	3	5	PEN	JEEP	JEEP	PEN	18	[0, 0, 0]	-999	PAL1	0	R1031M
2077.312	0.017	1198785	REC_END	n/a	3	-999	n/a	n/a	n/a	n/a	18	[0, 0, 0]	-999	PAL1	0	R1031M
2077.329	0.95	1198793	TEST_ORIENT	n/a	6	6	FOOD	n/a	FILM	FOOD	18	[0, 0, 0]	-999	PAL1	0	R1031M
2078.279	0.0	1199268	TEST_PROBE	n/a	6	6	FOOD	n/a	FILM	FOOD	18	[0, 0, 0]	-999	PAL1	0	R1031M
2078.279	0.348	1199268	REC_START	n/a	6	-999	n/a	n/a	n/a	n/a	18	[0, 0, 0]	-999	PAL1	0	R1031M
2078.627	4.67	1199442	REC_EVENT	348	6	6	FOOD	<>	FILM	FOOD	18	[0, 0, 0]	-999	PAL1	0	R1031M
2083.297	1.735	1201777	REC_END	n/a	6	-999	n/a	n/a	n/a	n/a	18	[0, 0, 0]	-999	PAL1	0	R1031M
2085.032	10.451	1202644	ENCODING_START	n/a	0	-999	n/a	n/a	n/a	n/a	19	[0, 0, 0]	-999	PAL1	0	R1031M
2095.483	0.933	1207869	STUDY_ORIENT	n/a	1	1	FENCE	YARD	YARD	FENCE	19	[0, 0, 0]	-999	PAL1	0	R1031M
2096.416	5.018	1208336	STUDY_PAIR	n/a	1	1	FENCE	YARD	YARD	FENCE	19	[0, 0, 0]	-999	PAL1	0	R1031M
2101.434	0.783	1210844	STUDY_ORIENT	n/a	2	2	RAIN	PIG	PIG	RAIN	19	[0, 0, 0]	-999	PAL1	0	R1031M
2102.217	5.018	1211236	STUDY_PAIR	n/a	2	2	RAIN	PIG	PIG	RAIN	19	[0, 0, 0]	-999	PAL1	0	R1031M
2107.235	1.0	1213745	STUDY_ORIENT	n/a	3	3	MAZE	TIE	MAZE	TIE	19	[0, 0, 0]	-999	PAL1	0	R1031M
2108.235	5.018	1214245	STUDY_PAIR	n/a	3	3	MAZE	TIE	MAZE	TIE	19	[0, 0, 0]	-999	PAL1	0	R1031M
2113.253	0.867	1216753	STUDY_ORIENT	n/a	4	6	SKUNK	SHEEP	SHEEP	SKUNK	19	[0, 0, 0]	-999	PAL1	0	R1031M
2114.12	5.034	1217187	STUDY_PAIR	n/a	4	6	SKUNK	SHEEP	SHEEP	SKUNK	19	[0, 0, 0]	-999	PAL1	0	R1031M
2119.154	0.984	1219704	STUDY_ORIENT	n/a	5	5	DOOR	n/a	MAIL	DOOR	19	[0, 0, 0]	-999	PAL1	0	R1031M
2120.138	5.034	1220195	STUDY_PAIR	n/a	5	5	DOOR	n/a	MAIL	DOOR	19	[0, 0, 0]	-999	PAL1	0	R1031M
2125.172	1.0	1222712	STUDY_ORIENT	n/a	6	4	DESK	PLANE	DESK	PLANE	19	[0, 0, 0]	-999	PAL1	0	R1031M
2126.172	4.001	1223212	STUDY_PAIR	n/a	6	4	DESK	PLANE	DESK	PLANE	19	[0, 0, 0]	-999	PAL1	0	R1031M
2130.173	1.0	1225212	START	n/a	-999	-999	n/a	n/a	n/a	n/a	19	[-999, -999, -999]	-999	PAL1	0	R1031M
2131.173	0.017	1225712	MATH_START	n/a	-999	-999	n/a	n/a	n/a	n/a	19	[0, 0, 0]	-999	PAL1	0	R1031M
2131.19	3.416	1225721	PROB	3394	-999	-999	n/a	n/a	n/a	n/a	19	[5, 6, 9]	20	PAL1	0	R1031M
2134.606	2.668	1227429	PROB	2642	-999	-999	n/a	n/a	n/a	n/a	19	[7, 4, 1]	12	PAL1	0	R1031M
2137.274	3.068	1228763	PROB	3046	-999	-999	n/a	n/a	n/a	n/a	19	[9, 6, 4]	19	PAL1	0	R1031M
2140.342	3.034	1230296	PROB	3010	-999	-999	n/a	n/a	n/a	n/a	19	[3, 3, 5]	11	PAL1	0	R1031M
2143.376	2.634	1231813	PROB	2600	-999	-999	n/a	n/a	n/a	n/a	19	[4, 7, 1]	12	PAL1	0	R1031M
2146.01	3.0	1233130	PROB	2966	-999	-999	n/a	n/a	n/a	n/a	19	[1, 9, 6]	16	PAL1	0	R1031M
2149.01	3.166	1234630	PROB	3166	-999	-999	n/a	n/a	n/a	n/a	19	[3, 2, 4]	9	PAL1	0	R1031M
2152.176	0.018	1236213	STOP	n/a	-999	-999	n/a	n/a	n/a	n/a	19	[-999, -999, -999]	-999	PAL1	0	R1031M
2152.194	0.0	1236222	MATH_END	n/a	-999	-999	n/a	n/a	n/a	n/a	19	[0, 0, 0]	-999	PAL1	0	R1031M
2152.194	0.017	1236222	TEST_START	n/a	-999	-999	n/a	n/a	n/a	n/a	19	[0, 0, 0]	-999	PAL1	0	R1031M
2152.211	0.967	1236230	TEST_ORIENT	n/a	1	1	FENCE	YARD	YARD	FENCE	19	[0, 0, 0]	-999	PAL1	0	R1031M
2153.178	0.0	1236714	TEST_PROBE	n/a	1	1	FENCE	YARD	YARD	FENCE	19	[0, 0, 0]	-999	PAL1	0	R1031M
2153.178	1.853	1236714	REC_START	n/a	1	-999	n/a	YARD	n/a	n/a	19	[0, 0, 0]	-999	PAL1	0	R1031M
2155.031	3.164	1237640	REC_EVENT	1853	1	1	FENCE	YARD	YARD	FENCE	19	[0, 0, 0]	-999	PAL1	0	R1031M
2158.195	0.017	1239222	REC_END	n/a	1	-999	n/a	n/a	n/a	n/a	19	[0, 0, 0]	-999	PAL1	0	R1031M
2158.212	0.917	1239231	TEST_ORIENT	n/a	2	2	RAIN	PIG	PIG	RAIN	19	[0, 0, 0]	-999	PAL1	0	R1031M
2159.129	0.001	1239689	TEST_PROBE	n/a	2	2	RAIN	PIG	PIG	RAIN	19	[0, 0, 0]	-999	PAL1	0	R1031M
2159.13	1.317	1239689	REC_START	n/a	2	-999	n/a	PIG	n/a	n/a	19	[0, 0, 0]	-999	PAL1	0	R1031M
2160.447	3.699	1240348	REC_EVENT	1317	2	2	RAIN	PIG	PIG	RAIN	19	[0, 0, 0]	-999	PAL1	0	R1031M
2164.146	0.017	1242197	REC_END	n/a	2	-999	n/a	n/a	n/a	n/a	19	[0, 0, 0]	-999	PAL1	0	R1031M
2164.163	0.934	1242206	TEST_ORIENT	n/a	3	3	MAZE	TIE	MAZE	TIE	19	[0, 0, 0]	-999	PAL1	0	R1031M
2165.097	0.0	1242673	TEST_PROBE	n/a	3	3	MAZE	TIE	MAZE	TIE	19	[0, 0, 0]	-999	PAL1	0	R1031M
2165.097	1.078	1242673	REC_START	n/a	3	-999	n/a	TIE	n/a	n/a	19	[0, 0, 0]	-999	PAL1	0	R1031M
2166.175	3.939	1243212	REC_EVENT	1078	3	3	MAZE	TIE	MAZE	TIE	19	[0, 0, 0]	-999	PAL1	0	R1031M
2170.114	0.017	1245181	REC_END	n/a	3	-999	n/a	n/a	n/a	n/a	19	[0, 0, 0]	-999	PAL1	0	R1031M
2170.131	0.95	1245189	TEST_ORIENT	n/a	6	4	DESK	PLANE	DESK	PLANE	19	[0, 0, 0]	-999	PAL1	0	R1031M
2171.081	0.001	1245664	TEST_PROBE	n/a	6	4	DESK	PLANE	DESK	PLANE	19	[0, 0, 0]	-999	PAL1	0	R1031M
2171.082	1.16	1245665	REC_START	n/a	6	-999	n/a	PLANE	n/a	n/a	19	[0, 0, 0]	-999	PAL1	0	R1031M
2172.242	3.848	1246245	REC_EVENT	1160	6	4	DESK	PLANE	DESK	PLANE	19	[0, 0, 0]	-999	PAL1	0	R1031M
2176.09	0.009	1248169	REC_END	n/a	6	-999	n/a	n/a	n/a	n/a	19	[0, 0, 0]	-999	PAL1	0	R1031M
2176.099	1.0	1248173	TEST_ORIENT	n/a	5	5	DOOR	n/a	MAIL	DOOR	19	[0, 0, 0]	-999	PAL1	0	R1031M
2177.099	0.0	1248673	TEST_PROBE	n/a	5	5	DOOR	n/a	MAIL	DOOR	19	[0, 0, 0]	-999	PAL1	0	R1031M
2177.099	0.232	1248673	REC_START	n/a	5	-999	n/a	n/a	n/a	n/a	19	[0, 0, 0]	-999	PAL1	0	R1031M
2177.331	4.786	1248789	REC_EVENT	232	5	5	DOOR	<>	MAIL	DOOR	19	[0, 0, 0]	-999	PAL1	0	R1031M
2182.117	0.016	1251182	REC_END	n/a	5	-999	n/a	n/a	n/a	n/a	19	[0, 0, 0]	-999	PAL1	0	R1031M
2182.133	1.017	1251190	TEST_ORIENT	n/a	4	6	SKUNK	SHEEP	SHEEP	SKUNK	19	[0, 0, 0]	-999	PAL1	0	R1031M
2183.15	0.001	1251698	TEST_PROBE	n/a	4	6	SKUNK	SHEEP	SHEEP	SKUNK	19	[0, 0, 0]	-999	PAL1	0	R1031M
2183.151	0.995	1251699	REC_START	n/a	4	-999	n/a	SHEEP	n/a	n/a	19	[0, 0, 0]	-999	PAL1	0	R1031M
2184.146	4.013	1252196	REC_EVENT	995	4	6	SKUNK	SHEEP	SHEEP	SKUNK	19	[0, 0, 0]	-999	PAL1	0	R1031M
2188.159	2.017	1254202	REC_END	n/a	4	-999	n/a	n/a	n/a	n/a	19	[0, 0, 0]	-999	PAL1	0	R1031M
2190.176	10.444	1255211	ENCODING_START	n/a	0	-999	n/a	n/a	n/a	n/a	20	[0, 0, 0]	-999	PAL1	0	R1031M
2200.62	0.951	1260432	STUDY_ORIENT	n/a	1	1	HOSE	CORN	HOSE	CORN	20	[0, 0, 0]	-999	PAL1	0	R1031M
2201.571	5.016	1260908	STUDY_PAIR	n/a	1	1	HOSE	CORN	HOSE	CORN	20	[0, 0, 0]	-999	PAL1	0	R1031M
2206.587	0.835	1263416	STUDY_ORIENT	n/a	2	2	BOWL	LEAF	BOWL	LEAF	20	[0, 0, 0]	-999	PAL1	0	R1031M
2207.422	5.034	1263833	STUDY_PAIR	n/a	2	2	BOWL	LEAF	BOWL	LEAF	20	[0, 0, 0]	-999	PAL1	0	R1031M
2212.456	1.0	1266350	STUDY_ORIENT	n/a	3	5	WORLD	JAR	JAR	WORLD	20	[0, 0, 0]	-999	PAL1	0	R1031M
2213.456	5.018	1266850	STUDY_PAIR	n/a	3	5	WORLD	JAR	JAR	WORLD	20	[0, 0, 0]	-999	PAL1	0	R1031M
2218.474	0.984	1269358	STUDY_ORIENT	n/a	4	4	MILK	PLANT	PLANT	MILK	20	[0, 0, 0]	-999	PAL1	0	R1031M
2219.458	5.034	1269850	STUDY_PAIR	n/a	4	4	MILK	PLANT	PLANT	MILK	20	[0, 0, 0]	-999	PAL1	0	R1031M
2224.492	0.817	1272367	STUDY_ORIENT	n/a	5	3	POLE	MOUSE	MOUSE	POLE	20	[0, 0, 0]	-999	PAL1	0	R1031M
2225.309	5.034	1272776	STUDY_PAIR	n/a	5	3	POLE	MOUSE	MOUSE	POLE	20	[0, 0, 0]	-999	PAL1	0	R1031M
2230.343	0.85	1275292	STUDY_ORIENT	n/a	6	6	TOOTH	n/a	LAMB	TOOTH	20	[0, 0, 0]	-999	PAL1	0	R1031M
2231.193	4.002	1275717	STUDY_PAIR	n/a	6	6	TOOTH	n/a	LAMB	TOOTH	20	[0, 0, 0]	-999	PAL1	0	R1031M
2235.195	0.999	1277718	START	n/a	-999	-999	n/a	n/a	n/a	n/a	20	[-999, -999, -999]	-999	PAL1	0	R1031M
2236.194	0.017	1278218	MATH_START	n/a	-999	-999	n/a	n/a	n/a	n/a	20	[0, 0, 0]	-999	PAL1	0	R1031M
2236.211	3.55	1278226	PROB	3524	-999	-999	n/a	n/a	n/a	n/a	20	[4, 5, 7]	16	PAL1	0	R1031M
2239.761	4.802	1280001	PROB	4775	-999	-999	n/a	n/a	n/a	n/a	20	[7, 9, 8]	24	PAL1	0	R1031M
2244.563	3.149	1282402	PROB	3124	-999	-999	n/a	n/a	n/a	n/a	20	[6, 3, 5]	14	PAL1	0	R1031M
2247.712	3.719	1283976	PROB	3688	-999	-999	n/a	n/a	n/a	n/a	20	[2, 7, 4]	13	PAL1	0	R1031M
2251.431	3.913	1285835	PROB	3913	-999	-999	n/a	n/a	n/a	n/a	20	[3, 8, 9]	20	PAL1	0	R1031M
2255.344	0.004	1287792	STOP	n/a	-999	-999	n/a	n/a	n/a	n/a	20	[-999, -999, -999]	-999	PAL1	0	R1031M
2255.348	0.0	1287794	TEST_START	n/a	-999	-999	n/a	n/a	n/a	n/a	20	[0, 0, 0]	-999	PAL1	0	R1031M
2255.348	0.017	1287794	MATH_END	n/a	-999	-999	n/a	n/a	n/a	n/a	20	[0, 0, 0]	-999	PAL1	0	R1031M
2255.365	1.0	1287802	TEST_ORIENT	n/a	1	1	HOSE	CORN	HOSE	CORN	20	[0, 0, 0]	-999	PAL1	0	R1031M
2256.365	0.0	1288302	TEST_PROBE	n/a	1	1	HOSE	CORN	HOSE	CORN	20	[0, 0, 0]	-999	PAL1	0	R1031M
2256.365	1.471	1288302	REC_START	n/a	1	-999	n/a	CORN	n/a	n/a	20	[0, 0, 0]	-999	PAL1	0	R1031M
2257.836	3.546	1289037	REC_EVENT	1471	1	1	HOSE	CORN	HOSE	CORN	20	[0, 0, 0]	-999	PAL1	0	R1031M
2261.382	0.017	1290810	REC_END	n/a	1	-999	n/a	n/a	n/a	n/a	20	[0, 0, 0]	-999	PAL1	0	R1031M
2261.399	0.851	1290819	TEST_ORIENT	n/a	2	2	BOWL	LEAF	BOWL	LEAF	20	[0, 0, 0]	-999	PAL1	0	R1031M
2262.25	0.0	1291244	TEST_PROBE	n/a	2	2	BOWL	LEAF	BOWL	LEAF	20	[0, 0, 0]	-999	PAL1	0	R1031M
2262.25	2.436	1291244	REC_START	n/a	2	-999	n/a	LEAF	n/a	n/a	20	[0, 0, 0]	-999	PAL1	0	R1031M
2264.686	2.581	1292462	REC_EVENT	2436	2	2	BOWL	LEAF	BOWL	LEAF	20	[0, 0, 0]	-999	PAL1	0	R1031M
2267.267	0.017	1293752	REC_END	n/a	2	-999	n/a	n/a	n/a	n/a	20	[0, 0, 0]	-999	PAL1	0	R1031M
2267.284	0.85	1293761	TEST_ORIENT	n/a	5	3	POLE	MOUSE	MOUSE	POLE	20	[0, 0, 0]	-999	PAL1	0	R1031M
2268.134	0.001	1294186	TEST_PROBE	n/a	5	3	POLE	MOUSE	MOUSE	POLE	20	[0, 0, 0]	-999	PAL1	0	R1031M
2268.135	0.975	1294186	REC_START	n/a	5	-999	n/a	MOUSE	n/a	n/a	20	[0, 0, 0]	-999	PAL1	0	R1031M
2269.11	4.041	1294674	REC_EVENT	975	5	3	POLE	MOUSE	MOUSE	POLE	20	[0, 0, 0]	-999	PAL1	0	R1031M
2273.151	0.017	1296694	REC_END	n/a	5	-999	n/a	n/a	n/a	n/a	20	[0, 0, 0]	-999	PAL1	0	R1031M
2273.168	0.984	1296703	TEST_ORIENT	n/a	4	4	MILK	PLANT	PLANT	MILK	20	[0, 0, 0]	-999	PAL1	0	R1031M
2274.152	0.0	1297195	REC_START	n/a	4	-999	n/a	PLANT	n/a	n/a	20	[0, 0, 0]	-999	PAL1	0	R1031M
2274.152	1.259	1297195	TEST_PROBE	n/a	4	4	MILK	PLANT	PLANT	MILK	20	[0, 0, 0]	-999	PAL1	0	R1031M
2275.411	3.758	1297824	REC_EVENT	1259	4	4	MILK	PLANT	PLANT	MILK	20	[0, 0, 0]	-999	PAL1	0	R1031M
2279.169	0.017	1299703	REC_END	n/a	4	-999	n/a	n/a	n/a	n/a	20	[0, 0, 0]	-999	PAL1	0	R1031M
2279.186	0.9	1299711	TEST_ORIENT	n/a	3	5	WORLD	JAR	JAR	WORLD	20	[0, 0, 0]	-999	PAL1	0	R1031M
2280.086	0.001	1300161	TEST_PROBE	n/a	3	5	WORLD	JAR	JAR	WORLD	20	[0, 0, 0]	-999	PAL1	0	R1031M
2280.087	0.944	1300162	REC_START	n/a	3	-999	n/a	JAR	n/a	n/a	20	[0, 0, 0]	-999	PAL1	0	R1031M
2281.031	4.075	1300634	REC_EVENT	944	3	5	WORLD	JAR	JAR	WORLD	20	[0, 0, 0]	-999	PAL1	0	R1031M
2285.106	0.015	1302671	REC_END	n/a	3	-999	n/a	n/a	n/a	n/a	20	[0, 0, 0]	-999	PAL1	0	R1031M
2285.121	0.883	1302679	TEST_ORIENT	n/a	6	6	TOOTH	n/a	LAMB	TOOTH	20	[0, 0, 0]	-999	PAL1	0	R1031M
2286.004	0.001	1303120	TEST_PROBE	n/a	6	6	TOOTH	n/a	LAMB	TOOTH	20	[0, 0, 0]	-999	PAL1	0	R1031M
2286.005	0.208	1303120	REC_START	n/a	6	-999	n/a	n/a	n/a	n/a	20	[0, 0, 0]	-999	PAL1	0	R1031M
2286.213	4.8	1303224	REC_EVENT	208	6	6	TOOTH	<>	LAMB	TOOTH	20	[0, 0, 0]	-999	PAL1	0	R1031M
2291.013	1.834	1305624	REC_END	n/a	6	-999	n/a	n/a	n/a	n/a	20	[0, 0, 0]	-999	PAL1	0	R1031M
