onset	duration	sample	trial_type	response_time	stim_file	serialpos	probepos	probe_word	resp_word	study_1	study_2	list	test	answer	experiment	session	subject
0.0	0.0	7445	INSTRUCT_VIDEO_ON	n/a	n/a	-999	-999	n/a	n/a	n/a	n/a	-999	[0, 0, 0]	-999	PAL1	0	R1276D
0.0	5.423	7445	INSTRUCT_VIDEO_OFF	n/a	n/a	-999	-999	n/a	n/a	n/a	n/a	-999	[0, 0, 0]	-999	PAL1	0	R1276D
5.423	0.0	12867	SESS_START	n/a	n/a	-999	-999	n/a	n/a	n/a	n/a	-999	[0, 0, 0]	-999	PAL1	0	R1276D
5.423	205.308	12867	MIC_TEST	n/a	n/a	-999	-999	n/a	n/a	n/a	n/a	-999	[0, 0, 0]	-999	PAL1	0	R1276D
210.731	13.804	218164	PRACTICE_TRIAL	n/a	n/a	-999	-999	n/a	n/a	n/a	n/a	-1	[0, 0, 0]	-999	PAL1	0	R1276D
224.535	0.007	231967	ENCODING_START	n/a	n/a	-999	-999	n/a	n/a	n/a	n/a	-1	[0, 0, 0]	-999	PAL1	0	R1276D
224.542	0.266	231974	PRACTICE_ORIENT	n/a	n/a	1	3	WATCH	IRON	IRON	WATCH	-1	[0, 0, 0]	-999	PAL1	0	R1276D
224.808	0.717	232240	PRACTICE_ORIENT_OFF	n/a	n/a	1	3	WATCH	IRON	IRON	WATCH	-1	[0, 0, 0]	-999	PAL1	0	R1276D
225.525	4.0	232957	PRACTICE_PAIR	n/a	n/a	1	3	WATCH	IRON	IRON	WATCH	-1	[0, 0, 0]	-999	PAL1	0	R1276D
229.543	1.016	236975	PRACTICE_PAIR_OFF	n/a	n/a	1	3	WATCH	IRON	IRON	WATCH	-1	[0, 0, 0]	-999	PAL1	0	R1276D
230.559	0.267	237991	PRACTICE_ORIENT	n/a	n/a	2	6	RHINO	COTTON	RHINO	COTTON	-1	[0, 0, 0]	-999	PAL1	0	R1276D
230.826	0.684	238258	PRACTICE_ORIENT_OFF	n/a	n/a	2	6	RHINO	COTTON	RHINO	COTTON	-1	[0, 0, 0]	-999	PAL1	0	R1276D
231.51	4.0	238942	PRACTICE_PAIR	n/a	n/a	2	6	RHINO	COTTON	RHINO	COTTON	-1	[0, 0, 0]	-999	PAL1	0	R1276D
235.527	1.017	242959	PRACTICE_PAIR_OFF	n/a	n/a	2	6	RHINO	COTTON	RHINO	COTTON	-1	[0, 0, 0]	-999	PAL1	0	R1276D
236.544	0.266	243976	PRACTICE_ORIENT	n/a	n/a	3	5	WAGON	CHEST	CHEST	WAGON	-1	[0, 0, 0]	-999	PAL1	0	R1276D
236.81	0.601	244242	PRACTICE_ORIENT_OFF	n/a	n/a	3	5	WAGON	CHEST	CHEST	WAGON	-1	[0, 0, 0]	-999	PAL1	0	R1276D
237.411	4.0	244843	PRACTICE_PAIR	n/a	n/a	3	5	WAGON	CHEST	CHEST	WAGON	-1	[0, 0, 0]	-999	PAL1	0	R1276D
241.428	1.017	248859	PRACTICE_PAIR_OFF	n/a	n/a	3	5	WAGON	CHEST	CHEST	WAGON	-1	[0, 0, 0]	-999	PAL1	0	R1276D
242.445	0.267	249876	PRACTICE_ORIENT	n/a	n/a	4	4	BEAM	RAIN	BEAM	RING	-1	[0, 0, 0]	-999	PAL1	0	R1276D
242.712	0.716	250143	PRACTICE_ORIENT_OFF	n/a	n/a	4	4	BEAM	RAIN	BEAM	RING	-1	[0, 0, 0]	-999	PAL1	0	R1276D
243.428	4.0	250859	PRACTICE_PAIR	n/a	n/a	4	4	BEAM	RAIN	BEAM	RING	-1	[0, 0, 0]	-999	PAL1	0	R1276D
247.446	1.017	254877	PRACTICE_PAIR_OFF	n/a	n/a	4	4	BEAM	RAIN	BEAM	RING	-1	[0, 0, 0]	-999	PAL1	0	R1276D
248.463	0.266	255894	PRACTICE_ORIENT	n/a	n/a	5	1	ATTIC	FLOOD	FLOOD	ATTIC	-1	[0, 0, 0]	-999	PAL1	0	R1276D
248.729	0.566	256160	PRACTICE_ORIENT_OFF	n/a	n/a	5	1	ATTIC	FLOOD	FLOOD	ATTIC	-1	[0, 0, 0]	-999	PAL1	0	R1276D
249.295	4.0	256726	PRACTICE_PAIR	n/a	n/a	5	1	ATTIC	FLOOD	FLOOD	ATTIC	-1	[0, 0, 0]	-999	PAL1	0	R1276D
253.313	1.016	260744	PRACTICE_PAIR_OFF	n/a	n/a	5	1	ATTIC	FLOOD	FLOOD	ATTIC	-1	[0, 0, 0]	-999	PAL1	0	R1276D
254.329	0.251	261760	PRACTICE_ORIENT	n/a	n/a	6	2	TONGUE	CAMEL	TONGUE	CAMEL	-1	[0, 0, 0]	-999	PAL1	0	R1276D
254.58	0.55	262011	PRACTICE_ORIENT_OFF	n/a	n/a	6	2	TONGUE	CAMEL	TONGUE	CAMEL	-1	[0, 0, 0]	-999	PAL1	0	R1276D
255.13	4.0	262561	PRACTICE_PAIR	n/a	n/a	6	2	TONGUE	CAMEL	TONGUE	CAMEL	-1	[0, 0, 0]	-999	PAL1	0	R1276D
259.147	1.0	266578	PRACTICE_PAIR_OFF	n/a	n/a	6	2	TONGUE	CAMEL	TONGUE	CAMEL	-1	[0, 0, 0]	-999	PAL1	0	R1276D
260.147	0.0	267577	ENCODING_END	n/a	n/a	-999	-999	n/a	n/a	n/a	n/a	-1	[0, 0, 0]	-999	PAL1	0	R1276D
260.147	0.0	267577	MATH_START	n/a	n/a	-999	-999	n/a	n/a	n/a	n/a	-1	[0, 0, 0]	-999	PAL1	0	R1276D
260.147	0.017	267577	START	n/a	n/a	-999	-999	n/a	n/a	n/a	n/a	1	[-999, -999, -999]	-999	PAL1	0	R1276D
260.164	10.57	267594	PROB	10.547	n/a	-999	-999	n/a	n/a	n/a	n/a	1	[6, 1, 9]	16	PAL1	0	R1276D
270.734	4.934	278164	PROB	4.896	n/a	-999	-999	n/a	n/a	n/a	n/a	1	[3, 3, 5]	11	PAL1	0	R1276D
275.668	2.25	283098	PROB	2.227	n/a	-999	-999	n/a	n/a	n/a	n/a	1	[5, 1, 5]	11	PAL1	0	R1276D
277.918	6.881	285347	PROB	6.881	n/a	-999	-999	n/a	n/a	n/a	n/a	1	[6, 8, 5]	19	PAL1	0	R1276D
284.799	0.02	292228	STOP	n/a	n/a	-999	-999	n/a	n/a	n/a	n/a	1	[-999, -999, -999]	-999	PAL1	0	R1276D
284.819	0.001	292248	MATH_END	n/a	n/a	-999	-999	n/a	n/a	n/a	n/a	-1	[0, 0, 0]	-999	PAL1	0	R1276D
284.82	0.016	292249	RECALL_START	n/a	n/a	-999	-999	n/a	n/a	n/a	n/a	-1	[0, 0, 0]	-999	PAL1	0	R1276D
284.836	0.266	292265	PRACTICE_RETRIEVAL_ORIENT	n/a	n/a	5	1	ATTIC	FLOOD	FLOOD	ATTIC	-1	[0, 0, 0]	-999	PAL1	0	R1276D
285.102	0.634	292531	PRACTICE_RETRIEVAL_ORIENT_OFF	n/a	n/a	5	1	ATTIC	FLOOD	FLOOD	ATTIC	-1	[0, 0, 0]	-999	PAL1	0	R1276D
285.736	4.0	293165	PRACTICE_PROBE	n/a	n/a	5	1	ATTIC	FLOOD	FLOOD	ATTIC	-1	[0, 0, 0]	-999	PAL1	0	R1276D
285.737	1.384	293166	REC_START	n/a	n/a	5	-999	n/a	FLOOD	n/a	n/a	-1	[0, 0, 0]	-999	PAL1	0	R1276D
287.121	2.633	294550	REC_EVENT	1.384	n/a	5	1	ATTIC	FLOOD	FLOOD	ATTIC	-1	[0, 0, 0]	-999	PAL1	0	R1276D
289.754	0.175	297183	PROBE_OFF	n/a	n/a	5	-999	n/a	n/a	n/a	n/a	-1	[0, 0, 0]	-999	PAL1	0	R1276D
289.929	0.835	297358	REC_EVENT	4.192	n/a	5	1	ATTIC	<>	FLOOD	ATTIC	-1	[0, 0, 0]	-999	PAL1	0	R1276D
290.764	0.023	298193	REC_END	n/a	n/a	5	-999	n/a	n/a	n/a	n/a	-1	[0, 0, 0]	-999	PAL1	0	R1276D
290.787	0.266	298216	PRACTICE_RETRIEVAL_ORIENT	n/a	n/a	6	2	TONGUE	CAMEL	TONGUE	CAMEL	-1	[0, 0, 0]	-999	PAL1	0	R1276D
291.053	0.618	298482	PRACTICE_RETRIEVAL_ORIENT_OFF	n/a	n/a	6	2	TONGUE	CAMEL	TONGUE	CAMEL	-1	[0, 0, 0]	-999	PAL1	0	R1276D
291.671	4.0	299100	PRACTICE_PROBE	n/a	n/a	6	2	TONGUE	CAMEL	TONGUE	CAMEL	-1	[0, 0, 0]	-999	PAL1	0	R1276D
291.671	0.969	299100	REC_START	n/a	n/a	6	-999	n/a	CAMEL	n/a	n/a	-1	[0, 0, 0]	-999	PAL1	0	R1276D
292.64	3.048	300069	REC_EVENT	0.969	n/a	6	2	TONGUE	CAMEL	TONGUE	CAMEL	-1	[0, 0, 0]	-999	PAL1	0	R1276D
295.688	1.001	303117	PROBE_OFF	n/a	n/a	6	-999	n/a	n/a	n/a	n/a	-1	[0, 0, 0]	-999	PAL1	0	R1276D
296.689	0.016	304117	REC_END	n/a	n/a	6	-999	n/a	n/a	n/a	n/a	-1	[0, 0, 0]	-999	PAL1	0	R1276D
296.705	0.267	304133	PRACTICE_RETRIEVAL_ORIENT	n/a	n/a	1	3	WATCH	IRON	IRON	WATCH	-1	[0, 0, 0]	-999	PAL1	0	R1276D
296.972	0.633	304400	PRACTICE_RETRIEVAL_ORIENT_OFF	n/a	n/a	1	3	WATCH	IRON	IRON	WATCH	-1	[0, 0, 0]	-999	PAL1	0	R1276D
297.605	4.0	305033	PRACTICE_PROBE	n/a	n/a	1	3	WATCH	IRON	IRON	WATCH	-1	[0, 0, 0]	-999	PAL1	0	R1276D
297.606	0.977	305034	REC_START	n/a	n/a	1	-999	n/a	IRON	n/a	n/a	-1	[0, 0, 0]	-999	PAL1	0	R1276D
298.583	3.04	306011	REC_EVENT	0.977	n/a	1	3	WATCH	IRON	IRON	WATCH	-1	[0, 0, 0]	-999	PAL1	0	R1276D
301.623	1.0	309051	PROBE_OFF	n/a	n/a	1	-999	n/a	n/a	n/a	n/a	-1	[0, 0, 0]	-999	PAL1	0	R1276D
302.623	0.016	310051	REC_END	n/a	n/a	1	-999	n/a	n/a	n/a	n/a	-1	[0, 0, 0]	-999	PAL1	0	R1276D
302.639	0.267	310067	PRACTICE_RETRIEVAL_ORIENT	n/a	n/a	4	4	BEAM	RAIN	BEAM	RING	-1	[0, 0, 0]	-999	PAL1	0	R1276D
302.906	0.55	310334	PRACTICE_RETRIEVAL_ORIENT_OFF	n/a	n/a	4	4	BEAM	RAIN	BEAM	RING	-1	[0, 0, 0]	-999	PAL1	0	R1276D
303.456	4.0	310884	PRACTICE_PROBE	n/a	n/a	4	4	BEAM	RAIN	BEAM	RING	-1	[0, 0, 0]	-999	PAL1	0	R1276D
303.457	1.066	310885	REC_START	n/a	n/a	4	-999	n/a	RAIN	n/a	n/a	-1	[0, 0, 0]	-999	PAL1	0	R1276D
304.523	2.951	311951	REC_EVENT	1.066	n/a	4	4	BEAM	RAIN	BEAM	RING	-1	[0, 0, 0]	-999	PAL1	0	R1276D
307.474	1.0	314902	PROBE_OFF	n/a	n/a	4	-999	n/a	n/a	n/a	n/a	-1	[0, 0, 0]	-999	PAL1	0	R1276D
308.474	0.016	315902	REC_END	n/a	n/a	4	-999	n/a	n/a	n/a	n/a	-1	[0, 0, 0]	-999	PAL1	0	R1276D
308.49	0.267	315918	PRACTICE_RETRIEVAL_ORIENT	n/a	n/a	3	5	WAGON	CHEST	CHEST	WAGON	-1	[0, 0, 0]	-999	PAL1	0	R1276D
308.757	0.583	316185	PRACTICE_RETRIEVAL_ORIENT_OFF	n/a	n/a	3	5	WAGON	CHEST	CHEST	WAGON	-1	[0, 0, 0]	-999	PAL1	0	R1276D
309.34	4.0	316768	PRACTICE_PROBE	n/a	n/a	3	5	WAGON	CHEST	CHEST	WAGON	-1	[0, 0, 0]	-999	PAL1	0	R1276D
309.34	0.983	316768	REC_START	n/a	n/a	3	-999	n/a	CHEST	n/a	n/a	-1	[0, 0, 0]	-999	PAL1	0	R1276D
310.323	3.034	317751	REC_EVENT	0.983	n/a	3	5	WAGON	CHEST	CHEST	WAGON	-1	[0, 0, 0]	-999	PAL1	0	R1276D
313.357	1.0	320785	PROBE_OFF	n/a	n/a	3	-999	n/a	n/a	n/a	n/a	-1	[0, 0, 0]	-999	PAL1	0	R1276D
314.357	0.018	321784	REC_END	n/a	n/a	3	-999	n/a	n/a	n/a	n/a	-1	[0, 0, 0]	-999	PAL1	0	R1276D
314.375	0.267	321802	PRACTICE_RETRIEVAL_ORIENT	n/a	n/a	2	6	RHINO	COTTON	RHINO	COTTON	-1	[0, 0, 0]	-999	PAL1	0	R1276D
314.642	0.665	322069	PRACTICE_RETRIEVAL_ORIENT_OFF	n/a	n/a	2	6	RHINO	COTTON	RHINO	COTTON	-1	[0, 0, 0]	-999	PAL1	0	R1276D
315.307	4.0	322734	PRACTICE_PROBE	n/a	n/a	2	6	RHINO	COTTON	RHINO	COTTON	-1	[0, 0, 0]	-999	PAL1	0	R1276D
315.308	0.992	322735	REC_START	n/a	n/a	2	-999	n/a	COTTON	n/a	n/a	-1	[0, 0, 0]	-999	PAL1	0	R1276D
316.3	3.025	323727	REC_EVENT	0.992	n/a	2	6	RHINO	COTTON	RHINO	COTTON	-1	[0, 0, 0]	-999	PAL1	0	R1276D
319.325	1.0	326752	PROBE_OFF	n/a	n/a	2	-999	n/a	n/a	n/a	n/a	-1	[0, 0, 0]	-999	PAL1	0	R1276D
320.325	0.011	327752	REC_END	n/a	n/a	2	-999	n/a	n/a	n/a	n/a	-1	[0, 0, 0]	-999	PAL1	0	R1276D
320.336	50.948	327763	RECALL_END	n/a	n/a	-999	-999	n/a	n/a	n/a	n/a	-1	[0, 0, 0]	-999	PAL1	0	R1276D
371.284	10.929	378708	TRIAL	n/a	n/a	-999	-999	n/a	n/a	n/a	n/a	1	[0, 0, 0]	-999	PAL1	0	R1276D
382.213	0.007	389637	ENCODING_START	n/a	n/a	-999	-999	n/a	n/a	n/a	n/a	1	[0, 0, 0]	-999	PAL1	0	R1276D
382.22	0.267	389644	STUDY_ORIENT	n/a	n/a	1	1	FILM	BEACH	BEACH	FILM	1	[0, 0, 0]	-999	PAL1	0	R1276D
382.487	0.7	389911	STUDY_ORIENT_OFF	n/a	n/a	1	1	FILM	BEACH	BEACH	FILM	1	[0, 0, 0]	-999	PAL1	0	R1276D
383.187	4.0	390611	STUDY_PAIR	n/a	wordpools/wordpool_EN.txt	1	1	FILM	BEACH	BEACH	FILM	1	[0, 0, 0]	-999	PAL1	0	R1276D
387.204	1.017	394627	PAIR_OFF	n/a	n/a	1	1	FILM	BEACH	BEACH	FILM	1	[0, 0, 0]	-999	PAL1	0	R1276D
388.221	0.268	395644	STUDY_ORIENT	n/a	n/a	2	2	FOOD	STEM	STEM	FOOD	1	[0, 0, 0]	-999	PAL1	0	R1276D
388.489	0.682	395912	STUDY_ORIENT_OFF	n/a	n/a	2	2	FOOD	STEM	STEM	FOOD	1	[0, 0, 0]	-999	PAL1	0	R1276D
389.171	4.0	396594	STUDY_PAIR	n/a	wordpools/wordpool_EN.txt	2	2	FOOD	STEM	STEM	FOOD	1	[0, 0, 0]	-999	PAL1	0	R1276D
393.188	1.017	400611	PAIR_OFF	n/a	n/a	2	2	FOOD	STEM	STEM	FOOD	1	[0, 0, 0]	-999	PAL1	0	R1276D
394.205	0.251	401628	STUDY_ORIENT	n/a	n/a	3	3	COW	RICE	COW	RICE	1	[0, 0, 0]	-999	PAL1	0	R1276D
394.456	0.616	401879	STUDY_ORIENT_OFF	n/a	n/a	3	3	COW	RICE	COW	RICE	1	[0, 0, 0]	-999	PAL1	0	R1276D
395.072	4.0	402495	STUDY_PAIR	n/a	wordpools/wordpool_EN.txt	3	3	COW	RICE	COW	RICE	1	[0, 0, 0]	-999	PAL1	0	R1276D
399.089	1.017	406512	PAIR_OFF	n/a	n/a	3	3	COW	RICE	COW	RICE	1	[0, 0, 0]	-999	PAL1	0	R1276D
400.106	0.268	407529	STUDY_ORIENT	n/a	n/a	4	6	CORD	TOAD	CORD	TOAD	1	[0, 0, 0]	-999	PAL1	0	R1276D
400.374	0.517	407797	STUDY_ORIENT_OFF	n/a	n/a	4	6	CORD	TOAD	CORD	TOAD	1	[0, 0, 0]	-999	PAL1	0	R1276D
400.891	4.0	408314	STUDY_PAIR	n/a	wordpools/wordpool_EN.txt	4	6	CORD	TOAD	CORD	TOAD	1	[0, 0, 0]	-999	PAL1	0	R1276D
404.908	1.017	412330	PAIR_OFF	n/a	n/a	4	6	CORD	TOAD	CORD	TOAD	1	[0, 0, 0]	-999	PAL1	0	R1276D
405.925	0.266	413347	STUDY_ORIENT	n/a	n/a	5	5	BLUSH	BEE	BEE	BLUSH	1	[0, 0, 0]	-999	PAL1	0	R1276D
406.191	0.718	413613	STUDY_ORIENT_OFF	n/a	n/a	5	5	BLUSH	BEE	BEE	BLUSH	1	[0, 0, 0]	-999	PAL1	0	R1276D
406.909	4.0	414331	STUDY_PAIR	n/a	wordpools/wordpool_EN.txt	5	5	BLUSH	BEE	BEE	BLUSH	1	[0, 0, 0]	-999	PAL1	0	R1276D
410.926	1.017	418348	PAIR_OFF	n/a	n/a	5	5	BLUSH	BEE	BEE	BLUSH	1	[0, 0, 0]	-999	PAL1	0	R1276D
411.943	0.266	419365	STUDY_ORIENT	n/a	n/a	6	4	SKUNK	SOCK	SOCK	SKUNK	1	[0, 0, 0]	-999	PAL1	0	R1276D
412.209	0.601	419631	STUDY_ORIENT_OFF	n/a	n/a	6	4	SKUNK	SOCK	SOCK	SKUNK	1	[0, 0, 0]	-999	PAL1	0	R1276D
412.81	4.0	420232	STUDY_PAIR	n/a	wordpools/wordpool_EN.txt	6	4	SKUNK	SOCK	SOCK	SKUNK	1	[0, 0, 0]	-999	PAL1	0	R1276D
416.827	1.0	424249	PAIR_OFF	n/a	n/a	6	4	SKUNK	SOCK	SOCK	SKUNK	1	[0, 0, 0]	-999	PAL1	0	R1276D
417.827	0.0	425249	ENCODING_END	n/a	n/a	-999	-999	n/a	n/a	n/a	n/a	1	[0, 0, 0]	-999	PAL1	0	R1276D
417.827	0.001	425249	MATH_START	n/a	n/a	-999	-999	n/a	n/a	n/a	n/a	1	[0, 0, 0]	-999	PAL1	0	R1276D
417.828	0.016	425250	START	n/a	n/a	-999	-999	n/a	n/a	n/a	n/a	2	[-999, -999, -999]	-999	PAL1	0	R1276D
417.844	5.25	425266	PROB	5.226	n/a	-999	-999	n/a	n/a	n/a	n/a	2	[8, 8, 2]	18	PAL1	0	R1276D
423.094	3.034	430515	PROB	3.0	n/a	-999	-999	n/a	n/a	n/a	n/a	2	[4, 1, 5]	10	PAL1	0	R1276D
426.128	3.651	433549	PROB	3.623	n/a	-999	-999	n/a	n/a	n/a	n/a	2	[3, 5, 8]	16	PAL1	0	R1276D
429.779	4.635	437200	PROB	4.604	n/a	-999	-999	n/a	n/a	n/a	n/a	2	[9, 4, 6]	19	PAL1	0	R1276D
434.414	7.768	441835	PROB	7.768	n/a	-999	-999	n/a	n/a	n/a	n/a	2	[4, 3, 2]	9	PAL1	0	R1276D
442.182	0.015	449602	STOP	n/a	n/a	-999	-999	n/a	n/a	n/a	n/a	2	[-999, -999, -999]	-999	PAL1	0	R1276D
442.197	0.001	449617	MATH_END	n/a	n/a	-999	-999	n/a	n/a	n/a	n/a	1	[0, 0, 0]	-999	PAL1	0	R1276D
442.198	0.016	449618	RECALL_START	n/a	n/a	-999	-999	n/a	n/a	n/a	n/a	1	[0, 0, 0]	-999	PAL1	0	R1276D
442.214	0.268	449634	TEST_ORIENT	n/a	n/a	1	1	FILM	BEACH	BEACH	FILM	1	[0, 0, 0]	-999	PAL1	0	R1276D
442.482	0.732	449902	RETRIEVAL_ORIENT_OFF	n/a	n/a	-999	-999	n/a	n/a	n/a	n/a	1	[0, 0, 0]	-999	PAL1	0	R1276D
443.214	4.0	450634	TEST_PROBE	n/a	wordpools/wordpool_EN.txt	1	1	FILM	BEACH	BEACH	FILM	1	[0, 0, 0]	-999	PAL1	0	R1276D
443.215	1.117	450635	REC_START	n/a	n/a	1	-999	n/a	BEACH	n/a	n/a	1	[0, 0, 0]	-999	PAL1	0	R1276D
444.332	2.9	451752	REC_EVENT	1.117	n/a	1	1	FILM	BEACH	BEACH	FILM	1	[0, 0, 0]	-999	PAL1	0	R1276D
447.232	1.0	454652	PROBE_OFF	n/a	n/a	1	-999	n/a	n/a	n/a	n/a	1	[0, 0, 0]	-999	PAL1	0	R1276D
448.232	0.017	455652	REC_END	n/a	n/a	1	-999	n/a	n/a	n/a	n/a	1	[0, 0, 0]	-999	PAL1	0	R1276D
448.249	0.267	455669	TEST_ORIENT	n/a	n/a	2	2	FOOD	STEM	STEM	FOOD	1	[0, 0, 0]	-999	PAL1	0	R1276D
448.516	0.699	455936	RETRIEVAL_ORIENT_OFF	n/a	n/a	1	-999	n/a	n/a	n/a	n/a	1	[0, 0, 0]	-999	PAL1	0	R1276D
449.215	4.0	456635	TEST_PROBE	n/a	wordpools/wordpool_EN.txt	2	2	FOOD	STEM	STEM	FOOD	1	[0, 0, 0]	-999	PAL1	0	R1276D
449.216	1.278	456636	REC_START	n/a	n/a	2	-999	n/a	STEM	n/a	n/a	1	[0, 0, 0]	-999	PAL1	0	R1276D
450.494	2.739	457914	REC_EVENT	1.278	n/a	2	2	FOOD	STEM	STEM	FOOD	1	[0, 0, 0]	-999	PAL1	0	R1276D
453.233	1.0	460653	PROBE_OFF	n/a	n/a	2	-999	n/a	n/a	n/a	n/a	1	[0, 0, 0]	-999	PAL1	0	R1276D
454.233	0.017	461653	REC_END	n/a	n/a	2	-999	n/a	n/a	n/a	n/a	1	[0, 0, 0]	-999	PAL1	0	R1276D
454.25	0.267	461670	TEST_ORIENT	n/a	n/a	3	3	COW	RICE	COW	RICE	1	[0, 0, 0]	-999	PAL1	0	R1276D
454.517	0.517	461937	RETRIEVAL_ORIENT_OFF	n/a	n/a	2	-999	n/a	n/a	n/a	n/a	1	[0, 0, 0]	-999	PAL1	0	R1276D
455.034	4.0	462454	TEST_PROBE	n/a	wordpools/wordpool_EN.txt	3	3	COW	RICE	COW	RICE	1	[0, 0, 0]	-999	PAL1	0	R1276D
455.035	0.989	462455	REC_START	n/a	n/a	3	-999	n/a	RICE	n/a	n/a	1	[0, 0, 0]	-999	PAL1	0	R1276D
456.024	3.027	463444	REC_EVENT	0.989	n/a	3	3	COW	RICE	COW	RICE	1	[0, 0, 0]	-999	PAL1	0	R1276D
459.051	1.0	466471	PROBE_OFF	n/a	n/a	3	-999	n/a	n/a	n/a	n/a	1	[0, 0, 0]	-999	PAL1	0	R1276D
460.051	0.016	467470	REC_END	n/a	n/a	3	-999	n/a	n/a	n/a	n/a	1	[0, 0, 0]	-999	PAL1	0	R1276D
460.067	0.267	467486	TEST_ORIENT	n/a	n/a	6	4	SKUNK	SOCK	SOCK	SKUNK	1	[0, 0, 0]	-999	PAL1	0	R1276D
460.334	0.717	467753	RETRIEVAL_ORIENT_OFF	n/a	n/a	3	-999	n/a	n/a	n/a	n/a	1	[0, 0, 0]	-999	PAL1	0	R1276D
461.051	0.0	468470	REC_START	n/a	n/a	6	-999	n/a	SOCK	n/a	n/a	1	[0, 0, 0]	-999	PAL1	0	R1276D
461.051	4.0	468470	TEST_PROBE	n/a	wordpools/wordpool_EN.txt	6	4	SKUNK	SOCK	SOCK	SKUNK	1	[0, 0, 0]	-999	PAL1	0	R1276D
461.969	3.099	469388	REC_EVENT	0.918	n/a	6	4	SKUNK	SOCK	SOCK	SKUNK	1	[0, 0, 0]	-999	PAL1	0	R1276D
465.068	1.0	472487	PROBE_OFF	n/a	n/a	6	-999	n/a	n/a	n/a	n/a	1	[0, 0, 0]	-999	PAL1	0	R1276D
466.068	0.017	473487	REC_END	n/a	n/a	6	-999	n/a	n/a	n/a	n/a	1	[0, 0, 0]	-999	PAL1	0	R1276D
466.085	0.267	473504	TEST_ORIENT	n/a	n/a	5	5	BLUSH	BEE	BEE	BLUSH	1	[0, 0, 0]	-999	PAL1	0	R1276D
466.352	0.75	473771	RETRIEVAL_ORIENT_OFF	n/a	n/a	6	-999	n/a	n/a	n/a	n/a	1	[0, 0, 0]	-999	PAL1	0	R1276D
467.102	4.0	474521	TEST_PROBE	n/a	wordpools/wordpool_EN.txt	5	5	BLUSH	BEE	BEE	BLUSH	1	[0, 0, 0]	-999	PAL1	0	R1276D
467.103	0.963	474522	REC_START	n/a	n/a	5	-999	n/a	BEE	n/a	n/a	1	[0, 0, 0]	-999	PAL1	0	R1276D
468.066	3.053	475485	REC_EVENT	0.963	n/a	5	5	BLUSH	BEE	BEE	BLUSH	1	[0, 0, 0]	-999	PAL1	0	R1276D
471.119	1.0	478538	PROBE_OFF	n/a	n/a	5	-999	n/a	n/a	n/a	n/a	1	[0, 0, 0]	-999	PAL1	0	R1276D
472.119	0.017	479538	REC_END	n/a	n/a	5	-999	n/a	n/a	n/a	n/a	1	[0, 0, 0]	-999	PAL1	0	R1276D
472.136	0.251	479555	TEST_ORIENT	n/a	n/a	4	6	CORD	TOAD	CORD	TOAD	1	[0, 0, 0]	-999	PAL1	0	R1276D
472.387	0.55	479806	RETRIEVAL_ORIENT_OFF	n/a	n/a	5	-999	n/a	n/a	n/a	n/a	1	[0, 0, 0]	-999	PAL1	0	R1276D
472.937	4.0	480356	TEST_PROBE	n/a	wordpools/wordpool_EN.txt	4	6	CORD	TOAD	CORD	TOAD	1	[0, 0, 0]	-999	PAL1	0	R1276D
472.938	2.117	480357	REC_START	n/a	n/a	4	-999	n/a	TOAD	n/a	n/a	1	[0, 0, 0]	-999	PAL1	0	R1276D
475.055	1.883	482474	REC_EVENT	2.117	n/a	4	6	CORD	TOAD	CORD	TOAD	1	[0, 0, 0]	-999	PAL1	0	R1276D
476.938	1.0	484357	PROBE_OFF	n/a	n/a	4	-999	n/a	n/a	n/a	n/a	1	[0, 0, 0]	-999	PAL1	0	R1276D
477.938	0.01	485356	REC_END	n/a	n/a	4	-999	n/a	n/a	n/a	n/a	1	[0, 0, 0]	-999	PAL1	0	R1276D
477.948	26.028	485366	RECALL_END	n/a	n/a	-999	-999	n/a	n/a	n/a	n/a	1	[0, 0, 0]	-999	PAL1	0	R1276D
503.976	10.929	511393	TRIAL	n/a	n/a	-999	-999	n/a	n/a	n/a	n/a	2	[0, 0, 0]	-999	PAL1	0	R1276D
514.905	0.007	522321	ENCODING_START	n/a	n/a	-999	-999	n/a	n/a	n/a	n/a	2	[0, 0, 0]	-999	PAL1	0	R1276D
514.912	0.265	522328	STUDY_ORIENT	n/a	n/a	1	5	POOL	PIN	PIN	POOL	2	[0, 0, 0]	-999	PAL1	0	R1276D
515.177	0.702	522593	STUDY_ORIENT_OFF	n/a	n/a	1	5	POOL	PIN	PIN	POOL	2	[0, 0, 0]	-999	PAL1	0	R1276D
515.879	4.0	523295	STUDY_PAIR	n/a	wordpools/wordpool_EN.txt	1	5	POOL	PIN	PIN	POOL	2	[0, 0, 0]	-999	PAL1	0	R1276D
519.896	1.017	527312	PAIR_OFF	n/a	n/a	1	5	POOL	PIN	PIN	POOL	2	[0, 0, 0]	-999	PAL1	0	R1276D
520.913	0.266	528329	STUDY_ORIENT	n/a	n/a	2	4	BOY	HAND	BOY	HAND	2	[0, 0, 0]	-999	PAL1	0	R1276D
521.179	0.717	528595	STUDY_ORIENT_OFF	n/a	n/a	2	4	BOY	HAND	BOY	HAND	2	[0, 0, 0]	-999	PAL1	0	R1276D
521.896	4.0	529312	STUDY_PAIR	n/a	wordpools/wordpool_EN.txt	2	4	BOY	HAND	BOY	HAND	2	[0, 0, 0]	-999	PAL1	0	R1276D
525.914	1.017	533330	PAIR_OFF	n/a	n/a	2	4	BOY	HAND	BOY	HAND	2	[0, 0, 0]	-999	PAL1	0	R1276D
526.931	0.265	534347	STUDY_ORIENT	n/a	n/a	3	3	SAIL	THREAD	SAIL	THREAD	2	[0, 0, 0]	-999	PAL1	0	R1276D
527.196	0.618	534612	STUDY_ORIENT_OFF	n/a	n/a	3	3	SAIL	THREAD	SAIL	THREAD	2	[0, 0, 0]	-999	PAL1	0	R1276D
527.814	4.0	535230	STUDY_PAIR	n/a	wordpools/wordpool_EN.txt	3	3	SAIL	THREAD	SAIL	THREAD	2	[0, 0, 0]	-999	PAL1	0	R1276D
531.832	1.016	539248	PAIR_OFF	n/a	n/a	3	3	SAIL	THREAD	SAIL	THREAD	2	[0, 0, 0]	-999	PAL1	0	R1276D
532.848	0.266	540263	STUDY_ORIENT	n/a	n/a	4	6	SPOON	DEER	SPOON	DEER	2	[0, 0, 0]	-999	PAL1	0	R1276D
533.114	0.685	540529	STUDY_ORIENT_OFF	n/a	n/a	4	6	SPOON	DEER	SPOON	DEER	2	[0, 0, 0]	-999	PAL1	0	R1276D
533.799	4.0	541214	STUDY_PAIR	n/a	wordpools/wordpool_EN.txt	4	6	SPOON	DEER	SPOON	DEER	2	[0, 0, 0]	-999	PAL1	0	R1276D
537.816	1.017	545231	PAIR_OFF	n/a	n/a	4	6	SPOON	DEER	SPOON	DEER	2	[0, 0, 0]	-999	PAL1	0	R1276D
538.833	0.266	546248	STUDY_ORIENT	n/a	n/a	5	1	CLOTH	PALM	PALM	CLOTH	2	[0, 0, 0]	-999	PAL1	0	R1276D
539.099	0.534	546514	STUDY_ORIENT_OFF	n/a	n/a	5	1	CLOTH	PALM	PALM	CLOTH	2	[0, 0, 0]	-999	PAL1	0	R1276D
539.633	4.0	547048	STUDY_PAIR	n/a	wordpools/wordpool_EN.txt	5	1	CLOTH	PALM	PALM	CLOTH	2	[0, 0, 0]	-999	PAL1	0	R1276D
543.65	1.017	551065	PAIR_OFF	n/a	n/a	5	1	CLOTH	PALM	PALM	CLOTH	2	[0, 0, 0]	-999	PAL1	0	R1276D
544.667	0.267	552082	STUDY_ORIENT	n/a	n/a	6	2	WHEEL	n/a	WHEEL	INK	2	[0, 0, 0]	-999	PAL1	0	R1276D
544.934	0.583	552349	STUDY_ORIENT_OFF	n/a	n/a	6	2	WHEEL	n/a	WHEEL	INK	2	[0, 0, 0]	-999	PAL1	0	R1276D
545.517	4.0	552932	STUDY_PAIR	n/a	wordpools/wordpool_EN.txt	6	2	WHEEL	n/a	WHEEL	INK	2	[0, 0, 0]	-999	PAL1	0	R1276D
549.535	1.0	556950	PAIR_OFF	n/a	n/a	6	2	WHEEL	n/a	WHEEL	INK	2	[0, 0, 0]	-999	PAL1	0	R1276D
550.535	0.0	557949	MATH_START	n/a	n/a	-999	-999	n/a	n/a	n/a	n/a	2	[0, 0, 0]	-999	PAL1	0	R1276D
550.535	0.001	557949	ENCODING_END	n/a	n/a	-999	-999	n/a	n/a	n/a	n/a	2	[0, 0, 0]	-999	PAL1	0	R1276D
550.536	0.016	557950	START	n/a	n/a	-999	-999	n/a	n/a	n/a	n/a	3	[-999, -999, -999]	-999	PAL1	0	R1276D
550.552	3.649	557966	PROB	3.622	n/a	-999	-999	n/a	n/a	n/a	n/a	3	[1, 7, 6]	14	PAL1	0	R1276D
554.201	3.785	561615	PROB	3.75	n/a	-999	-999	n/a	n/a	n/a	n/a	3	[1, 5, 1]	7	PAL1	0	R1276D
557.986	4.985	565400	PROB	4.957	n/a	-999	-999	n/a	n/a	n/a	n/a	3	[2, 8, 7]	17	PAL1	0	R1276D
562.971	2.817	570385	PROB	2.78	n/a	-999	-999	n/a	n/a	n/a	n/a	3	[1, 1, 5]	7	PAL1	0	R1276D
565.788	4.858	573202	PROB	4.858	n/a	-999	-999	n/a	n/a	n/a	n/a	3	[1, 9, 6]	17	PAL1	0	R1276D
570.646	0.009	578059	STOP	n/a	n/a	-999	-999	n/a	n/a	n/a	n/a	3	[-999, -999, -999]	-999	PAL1	0	R1276D
570.655	0.001	578068	MATH_END	n/a	n/a	-999	-999	n/a	n/a	n/a	n/a	2	[0, 0, 0]	-999	PAL1	0	R1276D
570.656	0.016	578069	RECALL_START	n/a	n/a	-999	-999	n/a	n/a	n/a	n/a	2	[0, 0, 0]	-999	PAL1	0	R1276D
570.672	0.267	578085	TEST_ORIENT	n/a	n/a	5	1	CLOTH	PALM	PALM	CLOTH	2	[0, 0, 0]	-999	PAL1	0	R1276D
570.939	0.766	578352	RETRIEVAL_ORIENT_OFF	n/a	n/a	-999	-999	n/a	n/a	n/a	n/a	2	[0, 0, 0]	-999	PAL1	0	R1276D
571.705	4.0	579118	TEST_PROBE	n/a	wordpools/wordpool_EN.txt	5	1	CLOTH	PALM	PALM	CLOTH	2	[0, 0, 0]	-999	PAL1	0	R1276D
571.706	4.0	579119	REC_START	n/a	n/a	5	-999	n/a	PALM	n/a	n/a	2	[0, 0, 0]	-999	PAL1	0	R1276D
575.706	0.201	583119	PROBE_OFF	n/a	n/a	5	-999	n/a	n/a	n/a	n/a	2	[0, 0, 0]	-999	PAL1	0	R1276D
575.907	0.8	583320	REC_EVENT	4.201	n/a	5	1	CLOTH	PALM	PALM	CLOTH	2	[0, 0, 0]	-999	PAL1	0	R1276D
576.707	0.016	584120	REC_END	n/a	n/a	5	-999	n/a	n/a	n/a	n/a	2	[0, 0, 0]	-999	PAL1	0	R1276D
576.723	0.267	584136	TEST_ORIENT	n/a	n/a	6	2	WHEEL	n/a	WHEEL	INK	2	[0, 0, 0]	-999	PAL1	0	R1276D
576.99	0.733	584403	RETRIEVAL_ORIENT_OFF	n/a	n/a	5	-999	n/a	n/a	n/a	n/a	2	[0, 0, 0]	-999	PAL1	0	R1276D
577.723	4.0	585136	TEST_PROBE	n/a	wordpools/wordpool_EN.txt	6	2	WHEEL	n/a	WHEEL	INK	2	[0, 0, 0]	-999	PAL1	0	R1276D
577.724	4.017	585137	REC_START	n/a	n/a	6	-999	n/a	n/a	n/a	n/a	2	[0, 0, 0]	-999	PAL1	0	R1276D
581.741	0.998	589154	PROBE_OFF	n/a	n/a	6	-999	n/a	n/a	n/a	n/a	2	[0, 0, 0]	-999	PAL1	0	R1276D
582.739	0.002	590152	REC_EVENT	5.015	n/a	6	2	WHEEL	<>	WHEEL	INK	2	[0, 0, 0]	-999	PAL1	0	R1276D
582.741	0.017	590154	REC_END	n/a	n/a	6	-999	n/a	n/a	n/a	n/a	2	[0, 0, 0]	-999	PAL1	0	R1276D
582.758	0.266	590171	TEST_ORIENT	n/a	n/a	3	3	SAIL	THREAD	SAIL	THREAD	2	[0, 0, 0]	-999	PAL1	0	R1276D
583.024	0.55	590437	RETRIEVAL_ORIENT_OFF	n/a	n/a	6	-999	n/a	n/a	n/a	n/a	2	[0, 0, 0]	-999	PAL1	0	R1276D
583.574	4.0	590987	TEST_PROBE	n/a	wordpools/wordpool_EN.txt	3	3	SAIL	THREAD	SAIL	THREAD	2	[0, 0, 0]	-999	PAL1	0	R1276D
583.575	1.334	590988	REC_START	n/a	n/a	3	-999	n/a	THREAD	n/a	n/a	2	[0, 0, 0]	-999	PAL1	0	R1276D
584.909	2.683	592322	REC_EVENT	1.334	n/a	3	3	SAIL	THREAD	SAIL	THREAD	2	[0, 0, 0]	-999	PAL1	0	R1276D
587.592	1.0	595004	PROBE_OFF	n/a	n/a	3	-999	n/a	n/a	n/a	n/a	2	[0, 0, 0]	-999	PAL1	0	R1276D
588.592	0.017	596004	REC_END	n/a	n/a	3	-999	n/a	n/a	n/a	n/a	2	[0, 0, 0]	-999	PAL1	0	R1276D
588.609	0.266	596021	TEST_ORIENT	n/a	n/a	2	4	BOY	HAND	BOY	HAND	2	[0, 0, 0]	-999	PAL1	0	R1276D
588.875	0.634	596287	RETRIEVAL_ORIENT_OFF	n/a	n/a	3	-999	n/a	n/a	n/a	n/a	2	[0, 0, 0]	-999	PAL1	0	R1276D
589.509	4.0	596921	TEST_PROBE	n/a	wordpools/wordpool_EN.txt	2	4	BOY	HAND	BOY	HAND	2	[0, 0, 0]	-999	PAL1	0	R1276D
589.509	1.179	596921	REC_START	n/a	n/a	2	-999	n/a	HAND	n/a	n/a	2	[0, 0, 0]	-999	PAL1	0	R1276D
590.688	2.838	598100	REC_EVENT	1.179	n/a	2	4	BOY	HAND	BOY	HAND	2	[0, 0, 0]	-999	PAL1	0	R1276D
593.526	1.001	600938	PROBE_OFF	n/a	n/a	2	-999	n/a	n/a	n/a	n/a	2	[0, 0, 0]	-999	PAL1	0	R1276D
594.527	0.016	601939	REC_END	n/a	n/a	2	-999	n/a	n/a	n/a	n/a	2	[0, 0, 0]	-999	PAL1	0	R1276D
594.543	0.267	601955	TEST_ORIENT	n/a	n/a	1	5	POOL	PIN	PIN	POOL	2	[0, 0, 0]	-999	PAL1	0	R1276D
594.81	0.7	602222	RETRIEVAL_ORIENT_OFF	n/a	n/a	2	-999	n/a	n/a	n/a	n/a	2	[0, 0, 0]	-999	PAL1	0	R1276D
595.51	4.0	602922	TEST_PROBE	n/a	wordpools/wordpool_EN.txt	1	5	POOL	PIN	PIN	POOL	2	[0, 0, 0]	-999	PAL1	0	R1276D
595.51	1.108	602922	REC_START	n/a	n/a	1	-999	n/a	PIN	n/a	n/a	2	[0, 0, 0]	-999	PAL1	0	R1276D
596.618	2.909	604030	REC_EVENT	1.108	n/a	1	5	POOL	PIN	PIN	POOL	2	[0, 0, 0]	-999	PAL1	0	R1276D
599.527	1.001	606939	PROBE_OFF	n/a	n/a	1	-999	n/a	n/a	n/a	n/a	2	[0, 0, 0]	-999	PAL1	0	R1276D
600.528	0.016	607940	REC_END	n/a	n/a	1	-999	n/a	n/a	n/a	n/a	2	[0, 0, 0]	-999	PAL1	0	R1276D
600.544	0.267	607956	TEST_ORIENT	n/a	n/a	4	6	SPOON	DEER	SPOON	DEER	2	[0, 0, 0]	-999	PAL1	0	R1276D
600.811	0.65	608223	RETRIEVAL_ORIENT_OFF	n/a	n/a	1	-999	n/a	n/a	n/a	n/a	2	[0, 0, 0]	-999	PAL1	0	R1276D
601.461	4.0	608873	TEST_PROBE	n/a	wordpools/wordpool_EN.txt	4	6	SPOON	DEER	SPOON	DEER	2	[0, 0, 0]	-999	PAL1	0	R1276D
601.462	1.256	608874	REC_START	n/a	n/a	4	-999	n/a	DEER	n/a	n/a	2	[0, 0, 0]	-999	PAL1	0	R1276D
602.718	2.76	610130	REC_EVENT	1.256	n/a	4	6	SPOON	DEER	SPOON	DEER	2	[0, 0, 0]	-999	PAL1	0	R1276D
605.478	1.001	612889	PROBE_OFF	n/a	n/a	4	-999	n/a	n/a	n/a	n/a	2	[0, 0, 0]	-999	PAL1	0	R1276D
606.479	0.01	613890	REC_END	n/a	n/a	4	-999	n/a	n/a	n/a	n/a	2	[0, 0, 0]	-999	PAL1	0	R1276D
606.489	8.857	613900	RECALL_END	n/a	n/a	-999	-999	n/a	n/a	n/a	n/a	2	[0, 0, 0]	-999	PAL1	0	R1276D
615.346	10.928	622757	TRIAL	n/a	n/a	-999	-999	n/a	n/a	n/a	n/a	3	[0, 0, 0]	-999	PAL1	0	R1276D
626.274	0.007	633684	ENCODING_START	n/a	n/a	-999	-999	n/a	n/a	n/a	n/a	3	[0, 0, 0]	-999	PAL1	0	R1276D
626.281	0.268	633691	STUDY_ORIENT	n/a	n/a	1	3	FARM	RIB	FARM	RIB	3	[0, 0, 0]	-999	PAL1	0	R1276D
626.549	0.582	633959	STUDY_ORIENT_OFF	n/a	n/a	1	3	FARM	RIB	FARM	RIB	3	[0, 0, 0]	-999	PAL1	0	R1276D
627.131	4.0	634541	STUDY_PAIR	n/a	wordpools/wordpool_EN.txt	1	3	FARM	RIB	FARM	RIB	3	[0, 0, 0]	-999	PAL1	0	R1276D
631.149	1.017	638559	PAIR_OFF	n/a	n/a	1	3	FARM	RIB	FARM	RIB	3	[0, 0, 0]	-999	PAL1	0	R1276D
632.166	0.267	639576	STUDY_ORIENT	n/a	n/a	2	2	PARK	MILK	PARK	MILK	3	[0, 0, 0]	-999	PAL1	0	R1276D
632.433	0.633	639843	STUDY_ORIENT_OFF	n/a	n/a	2	2	PARK	MILK	PARK	MILK	3	[0, 0, 0]	-999	PAL1	0	R1276D
633.066	4.0	640476	STUDY_PAIR	n/a	wordpools/wordpool_EN.txt	2	2	PARK	MILK	PARK	MILK	3	[0, 0, 0]	-999	PAL1	0	R1276D
637.083	1.017	644493	PAIR_OFF	n/a	n/a	2	2	PARK	MILK	PARK	MILK	3	[0, 0, 0]	-999	PAL1	0	R1276D
638.1	0.268	645510	STUDY_ORIENT	n/a	n/a	3	5	SKY	ROOT	SKY	ROOT	3	[0, 0, 0]	-999	PAL1	0	R1276D
638.368	0.583	645778	STUDY_ORIENT_OFF	n/a	n/a	3	5	SKY	ROOT	SKY	ROOT	3	[0, 0, 0]	-999	PAL1	0	R1276D
638.951	4.0	646361	STUDY_PAIR	n/a	wordpools/wordpool_EN.txt	3	5	SKY	ROOT	SKY	ROOT	3	[0, 0, 0]	-999	PAL1	0	R1276D
642.969	1.017	650378	PAIR_OFF	n/a	n/a	3	5	SKY	ROOT	SKY	ROOT	3	[0, 0, 0]	-999	PAL1	0	R1276D
643.986	0.265	651395	STUDY_ORIENT	n/a	n/a	4	4	HEN	SHIRT	SHIRT	HEN	3	[0, 0, 0]	-999	PAL1	0	R1276D
644.251	0.701	651660	STUDY_ORIENT_OFF	n/a	n/a	4	4	HEN	SHIRT	SHIRT	HEN	3	[0, 0, 0]	-999	PAL1	0	R1276D
644.952	4.0	652361	STUDY_PAIR	n/a	wordpools/wordpool_EN.txt	4	4	HEN	SHIRT	SHIRT	HEN	3	[0, 0, 0]	-999	PAL1	0	R1276D
648.953	1.017	656362	PAIR_OFF	n/a	n/a	4	4	HEN	SHIRT	SHIRT	HEN	3	[0, 0, 0]	-999	PAL1	0	R1276D
649.97	0.266	657379	STUDY_ORIENT	n/a	n/a	5	1	SWAMP	LAWN	LAWN	SWAMP	3	[0, 0, 0]	-999	PAL1	0	R1276D
650.236	0.617	657645	STUDY_ORIENT_OFF	n/a	n/a	5	1	SWAMP	LAWN	LAWN	SWAMP	3	[0, 0, 0]	-999	PAL1	0	R1276D
650.853	4.0	658262	STUDY_PAIR	n/a	wordpools/wordpool_EN.txt	5	1	SWAMP	LAWN	LAWN	SWAMP	3	[0, 0, 0]	-999	PAL1	0	R1276D
654.854	1.017	662263	PAIR_OFF	n/a	n/a	5	1	SWAMP	LAWN	LAWN	SWAMP	3	[0, 0, 0]	-999	PAL1	0	R1276D
655.871	0.266	663280	STUDY_ORIENT	n/a	n/a	6	6	SNOW	SALT	SNOW	SALT	3	[0, 0, 0]	-999	PAL1	0	R1276D
656.137	0.568	663546	STUDY_ORIENT_OFF	n/a	n/a	6	6	SNOW	SALT	SNOW	SALT	3	[0, 0, 0]	-999	PAL1	0	R1276D
656.705	4.0	664114	STUDY_PAIR	n/a	wordpools/wordpool_EN.txt	6	6	SNOW	SALT	SNOW	SALT	3	[0, 0, 0]	-999	PAL1	0	R1276D
660.722	1.001	668130	PAIR_OFF	n/a	n/a	6	6	SNOW	SALT	SNOW	SALT	3	[0, 0, 0]	-999	PAL1	0	R1276D
661.723	0.0	669131	ENCODING_END	n/a	n/a	-999	-999	n/a	n/a	n/a	n/a	3	[0, 0, 0]	-999	PAL1	0	R1276D
661.723	0.0	669131	MATH_START	n/a	n/a	-999	-999	n/a	n/a	n/a	n/a	3	[0, 0, 0]	-999	PAL1	0	R1276D
661.723	0.016	669131	START	n/a	n/a	-999	-999	n/a	n/a	n/a	n/a	4	[-999, -999, -999]	-999	PAL1	0	R1276D
661.739	3.483	669147	PROB	3.458	n/a	-999	-999	n/a	n/a	n/a	n/a	4	[2, 4, 6]	12	PAL1	0	R1276D
665.222	3.85	672630	PROB	3.817	n/a	-999	-999	n/a	n/a	n/a	n/a	4	[1, 8, 5]	14	PAL1	0	R1276D
669.072	4.736	676480	PROB	4.711	n/a	-999	-999	n/a	n/a	n/a	n/a	4	[9, 4, 3]	16	PAL1	0	R1276D
673.808	3.366	681216	PROB	3.334	n/a	-999	-999	n/a	n/a	n/a	n/a	4	[1, 6, 8]	15	PAL1	0	R1276D
677.174	3.352	684582	PROB	3.321	n/a	-999	-999	n/a	n/a	n/a	n/a	4	[6, 4, 8]	18	PAL1	0	R1276D
680.526	3.361	687933	PROB	3.361	n/a	-999	-999	n/a	n/a	n/a	n/a	4	[1, 4, 3]	8	PAL1	0	R1276D
683.887	0.006	691294	STOP	n/a	n/a	-999	-999	n/a	n/a	n/a	n/a	4	[-999, -999, -999]	-999	PAL1	0	R1276D
683.893	0.0	691300	RECALL_START	n/a	n/a	-999	-999	n/a	n/a	n/a	n/a	3	[0, 0, 0]	-999	PAL1	0	R1276D
683.893	0.017	691300	MATH_END	n/a	n/a	-999	-999	n/a	n/a	n/a	n/a	3	[0, 0, 0]	-999	PAL1	0	R1276D
683.91	0.265	691317	TEST_ORIENT	n/a	n/a	5	1	SWAMP	LAWN	LAWN	SWAMP	3	[0, 0, 0]	-999	PAL1	0	R1276D
684.175	0.751	691582	RETRIEVAL_ORIENT_OFF	n/a	n/a	-999	-999	n/a	n/a	n/a	n/a	3	[0, 0, 0]	-999	PAL1	0	R1276D
684.926	4.0	692333	TEST_PROBE	n/a	wordpools/wordpool_EN.txt	5	1	SWAMP	LAWN	LAWN	SWAMP	3	[0, 0, 0]	-999	PAL1	0	R1276D
684.927	1.05	692334	REC_START	n/a	n/a	5	-999	n/a	LAWN	n/a	n/a	3	[0, 0, 0]	-999	PAL1	0	R1276D
685.977	2.967	693384	REC_EVENT	1.05	n/a	5	1	SWAMP	LAWN	LAWN	SWAMP	3	[0, 0, 0]	-999	PAL1	0	R1276D
688.944	1.0	696351	PROBE_OFF	n/a	n/a	5	-999	n/a	n/a	n/a	n/a	3	[0, 0, 0]	-999	PAL1	0	R1276D
689.944	0.017	697351	REC_END	n/a	n/a	5	-999	n/a	n/a	n/a	n/a	3	[0, 0, 0]	-999	PAL1	0	R1276D
689.961	0.265	697368	TEST_ORIENT	n/a	n/a	2	2	PARK	MILK	PARK	MILK	3	[0, 0, 0]	-999	PAL1	0	R1276D
690.226	0.618	697633	RETRIEVAL_ORIENT_OFF	n/a	n/a	5	-999	n/a	n/a	n/a	n/a	3	[0, 0, 0]	-999	PAL1	0	R1276D
690.844	4.0	698251	TEST_PROBE	n/a	wordpools/wordpool_EN.txt	2	2	PARK	MILK	PARK	MILK	3	[0, 0, 0]	-999	PAL1	0	R1276D
690.845	1.052	698252	REC_START	n/a	n/a	2	-999	n/a	MILK	n/a	n/a	3	[0, 0, 0]	-999	PAL1	0	R1276D
691.897	2.965	699304	REC_EVENT	1.052	n/a	2	2	PARK	MILK	PARK	MILK	3	[0, 0, 0]	-999	PAL1	0	R1276D
694.862	1.0	702269	PROBE_OFF	n/a	n/a	2	-999	n/a	n/a	n/a	n/a	3	[0, 0, 0]	-999	PAL1	0	R1276D
695.862	0.016	703268	REC_END	n/a	n/a	2	-999	n/a	n/a	n/a	n/a	3	[0, 0, 0]	-999	PAL1	0	R1276D
695.878	0.266	703284	TEST_ORIENT	n/a	n/a	1	3	FARM	RIB	FARM	RIB	3	[0, 0, 0]	-999	PAL1	0	R1276D
696.144	0.618	703550	RETRIEVAL_ORIENT_OFF	n/a	n/a	2	-999	n/a	n/a	n/a	n/a	3	[0, 0, 0]	-999	PAL1	0	R1276D
696.762	4.0	704168	TEST_PROBE	n/a	wordpools/wordpool_EN.txt	1	3	FARM	RIB	FARM	RIB	3	[0, 0, 0]	-999	PAL1	0	R1276D
696.762	1.261	704168	REC_START	n/a	n/a	1	-999	n/a	RIB	n/a	n/a	3	[0, 0, 0]	-999	PAL1	0	R1276D
698.023	2.756	705429	REC_EVENT	1.261	n/a	1	3	FARM	RIB	FARM	RIB	3	[0, 0, 0]	-999	PAL1	0	R1276D
700.779	1.0	708185	PROBE_OFF	n/a	n/a	1	-999	n/a	n/a	n/a	n/a	3	[0, 0, 0]	-999	PAL1	0	R1276D
701.779	0.017	709185	REC_END	n/a	n/a	1	-999	n/a	n/a	n/a	n/a	3	[0, 0, 0]	-999	PAL1	0	R1276D
701.796	0.266	709202	TEST_ORIENT	n/a	n/a	4	4	HEN	SHIRT	SHIRT	HEN	3	[0, 0, 0]	-999	PAL1	0	R1276D
702.062	0.651	709468	RETRIEVAL_ORIENT_OFF	n/a	n/a	1	-999	n/a	n/a	n/a	n/a	3	[0, 0, 0]	-999	PAL1	0	R1276D
702.713	4.0	710119	TEST_PROBE	n/a	wordpools/wordpool_EN.txt	4	4	HEN	SHIRT	SHIRT	HEN	3	[0, 0, 0]	-999	PAL1	0	R1276D
702.714	1.674	710120	REC_START	n/a	n/a	4	-999	n/a	SHIRT	n/a	n/a	3	[0, 0, 0]	-999	PAL1	0	R1276D
704.388	2.342	711794	REC_EVENT	1.674	n/a	4	4	HEN	SHIRT	SHIRT	HEN	3	[0, 0, 0]	-999	PAL1	0	R1276D
706.73	1.0	714136	PROBE_OFF	n/a	n/a	4	-999	n/a	n/a	n/a	n/a	3	[0, 0, 0]	-999	PAL1	0	R1276D
707.73	0.017	715136	REC_END	n/a	n/a	4	-999	n/a	n/a	n/a	n/a	3	[0, 0, 0]	-999	PAL1	0	R1276D
707.747	0.267	715153	TEST_ORIENT	n/a	n/a	3	5	SKY	ROOT	SKY	ROOT	3	[0, 0, 0]	-999	PAL1	0	R1276D
708.014	0.683	715420	RETRIEVAL_ORIENT_OFF	n/a	n/a	4	-999	n/a	n/a	n/a	n/a	3	[0, 0, 0]	-999	PAL1	0	R1276D
708.697	4.0	716103	TEST_PROBE	n/a	wordpools/wordpool_EN.txt	3	5	SKY	ROOT	SKY	ROOT	3	[0, 0, 0]	-999	PAL1	0	R1276D
708.698	0.944	716104	REC_START	n/a	n/a	3	-999	n/a	ROOT	n/a	n/a	3	[0, 0, 0]	-999	PAL1	0	R1276D
709.642	3.073	717048	REC_EVENT	0.944	n/a	3	5	SKY	ROOT	SKY	ROOT	3	[0, 0, 0]	-999	PAL1	0	R1276D
712.715	1.0	720121	PROBE_OFF	n/a	n/a	3	-999	n/a	n/a	n/a	n/a	3	[0, 0, 0]	-999	PAL1	0	R1276D
713.715	0.017	721120	REC_END	n/a	n/a	3	-999	n/a	n/a	n/a	n/a	3	[0, 0, 0]	-999	PAL1	0	R1276D
713.732	0.266	721137	TEST_ORIENT	n/a	n/a	6	6	SNOW	SALT	SNOW	SALT	3	[0, 0, 0]	-999	PAL1	0	R1276D
713.998	0.601	721403	RETRIEVAL_ORIENT_OFF	n/a	n/a	3	-999	n/a	n/a	n/a	n/a	3	[0, 0, 0]	-999	PAL1	0	R1276D
714.599	4.0	722004	TEST_PROBE	n/a	wordpools/wordpool_EN.txt	6	6	SNOW	SALT	SNOW	SALT	3	[0, 0, 0]	-999	PAL1	0	R1276D
714.599	1.214	722004	REC_START	n/a	n/a	6	-999	n/a	SALT	n/a	n/a	3	[0, 0, 0]	-999	PAL1	0	R1276D
715.813	2.803	723218	REC_EVENT	1.214	n/a	6	6	SNOW	SALT	SNOW	SALT	3	[0, 0, 0]	-999	PAL1	0	R1276D
718.616	1.0	726021	PROBE_OFF	n/a	n/a	6	-999	n/a	n/a	n/a	n/a	3	[0, 0, 0]	-999	PAL1	0	R1276D
719.616	0.01	727021	REC_END	n/a	n/a	6	-999	n/a	n/a	n/a	n/a	3	[0, 0, 0]	-999	PAL1	0	R1276D
719.626	5.941	727031	RECALL_END	n/a	n/a	-999	-999	n/a	n/a	n/a	n/a	3	[0, 0, 0]	-999	PAL1	0	R1276D
725.567	10.929	732972	TRIAL	n/a	n/a	-999	-999	n/a	n/a	n/a	n/a	4	[0, 0, 0]	-999	PAL1	0	R1276D
736.496	0.006	743900	ENCODING_START	n/a	n/a	-999	-999	n/a	n/a	n/a	n/a	4	[0, 0, 0]	-999	PAL1	0	R1276D
736.502	0.267	743906	STUDY_ORIENT	n/a	n/a	1	1	NEST	CAVE	CAVE	NEST	4	[0, 0, 0]	-999	PAL1	0	R1276D
736.769	0.6	744173	STUDY_ORIENT_OFF	n/a	n/a	1	1	NEST	CAVE	CAVE	NEST	4	[0, 0, 0]	-999	PAL1	0	R1276D
737.369	4.0	744773	STUDY_PAIR	n/a	wordpools/wordpool_EN.txt	1	1	NEST	CAVE	CAVE	NEST	4	[0, 0, 0]	-999	PAL1	0	R1276D
741.387	1.017	748791	PAIR_OFF	n/a	n/a	1	1	NEST	CAVE	CAVE	NEST	4	[0, 0, 0]	-999	PAL1	0	R1276D
742.404	0.266	749808	STUDY_ORIENT	n/a	n/a	2	2	SHRIMP	CAKE	CAKE	SHRIMP	4	[0, 0, 0]	-999	PAL1	0	R1276D
742.67	0.599	750074	STUDY_ORIENT_OFF	n/a	n/a	2	2	SHRIMP	CAKE	CAKE	SHRIMP	4	[0, 0, 0]	-999	PAL1	0	R1276D
743.269	4.0	750673	STUDY_PAIR	n/a	wordpools/wordpool_EN.txt	2	2	SHRIMP	CAKE	CAKE	SHRIMP	4	[0, 0, 0]	-999	PAL1	0	R1276D
747.27	1.017	754674	PAIR_OFF	n/a	n/a	2	2	SHRIMP	CAKE	CAKE	SHRIMP	4	[0, 0, 0]	-999	PAL1	0	R1276D
748.287	0.251	755691	STUDY_ORIENT	n/a	n/a	3	3	ROOM	PASS	ROOM	SIGN	4	[0, 0, 0]	-999	PAL1	0	R1276D
748.538	0.716	755942	STUDY_ORIENT_OFF	n/a	n/a	3	3	ROOM	PASS	ROOM	SIGN	4	[0, 0, 0]	-999	PAL1	0	R1276D
749.254	4.0	756658	STUDY_PAIR	n/a	wordpools/wordpool_EN.txt	3	3	ROOM	PASS	ROOM	SIGN	4	[0, 0, 0]	-999	PAL1	0	R1276D
753.271	1.017	760674	PAIR_OFF	n/a	n/a	3	3	ROOM	PASS	ROOM	SIGN	4	[0, 0, 0]	-999	PAL1	0	R1276D
754.288	0.268	761691	STUDY_ORIENT	n/a	n/a	4	6	MOUTH	BRIDGE	BRIDGE	MOUTH	4	[0, 0, 0]	-999	PAL1	0	R1276D
754.556	0.616	761959	STUDY_ORIENT_OFF	n/a	n/a	4	6	MOUTH	BRIDGE	BRIDGE	MOUTH	4	[0, 0, 0]	-999	PAL1	0	R1276D
755.172	4.0	762575	STUDY_PAIR	n/a	wordpools/wordpool_EN.txt	4	6	MOUTH	BRIDGE	BRIDGE	MOUTH	4	[0, 0, 0]	-999	PAL1	0	R1276D
759.189	1.017	766592	PAIR_OFF	n/a	n/a	4	6	MOUTH	BRIDGE	BRIDGE	MOUTH	4	[0, 0, 0]	-999	PAL1	0	R1276D
760.206	0.268	767609	STUDY_ORIENT	n/a	n/a	5	5	GATE	SHARK	SHARK	GATE	4	[0, 0, 0]	-999	PAL1	0	R1276D
760.474	0.582	767877	STUDY_ORIENT_OFF	n/a	n/a	5	5	GATE	SHARK	SHARK	GATE	4	[0, 0, 0]	-999	PAL1	0	R1276D
761.056	4.0	768459	STUDY_PAIR	n/a	wordpools/wordpool_EN.txt	5	5	GATE	SHARK	SHARK	GATE	4	[0, 0, 0]	-999	PAL1	0	R1276D
765.073	1.017	772476	PAIR_OFF	n/a	n/a	5	5	GATE	SHARK	SHARK	GATE	4	[0, 0, 0]	-999	PAL1	0	R1276D
766.09	0.267	773493	STUDY_ORIENT	n/a	n/a	6	4	PLATE	FLEA	PLATE	FLEA	4	[0, 0, 0]	-999	PAL1	0	R1276D
766.357	0.535	773760	STUDY_ORIENT_OFF	n/a	n/a	6	4	PLATE	FLEA	PLATE	FLEA	4	[0, 0, 0]	-999	PAL1	0	R1276D
766.892	4.0	774295	STUDY_PAIR	n/a	wordpools/wordpool_EN.txt	6	4	PLATE	FLEA	PLATE	FLEA	4	[0, 0, 0]	-999	PAL1	0	R1276D
770.909	1.001	778311	PAIR_OFF	n/a	n/a	6	4	PLATE	FLEA	PLATE	FLEA	4	[0, 0, 0]	-999	PAL1	0	R1276D
771.91	0.0	779312	ENCODING_END	n/a	n/a	-999	-999	n/a	n/a	n/a	n/a	4	[0, 0, 0]	-999	PAL1	0	R1276D
771.91	0.0	779312	MATH_START	n/a	n/a	-999	-999	n/a	n/a	n/a	n/a	4	[0, 0, 0]	-999	PAL1	0	R1276D
771.91	0.016	779312	START	n/a	n/a	-999	-999	n/a	n/a	n/a	n/a	5	[-999, -999, -999]	-999	PAL1	0	R1276D
771.926	3.1	779328	PROB	3.073	n/a	-999	-999	n/a	n/a	n/a	n/a	5	[5, 1, 1]	7	PAL1	0	R1276D
775.026	3.501	782428	PROB	3.469	n/a	-999	-999	n/a	n/a	n/a	n/a	5	[7, 3, 9]	19	PAL1	0	R1276D
778.527	3.783	785929	PROB	3.751	n/a	-999	-999	n/a	n/a	n/a	n/a	5	[4, 4, 2]	10	PAL1	0	R1276D
782.31	2.468	789712	PROB	2.433	n/a	-999	-999	n/a	n/a	n/a	n/a	5	[4, 5, 3]	12	PAL1	0	R1276D
784.778	3.234	792180	PROB	3.204	n/a	-999	-999	n/a	n/a	n/a	n/a	5	[7, 8, 4]	19	PAL1	0	R1276D
788.012	2.934	795413	PROB	2.899	n/a	-999	-999	n/a	n/a	n/a	n/a	5	[6, 4, 6]	16	PAL1	0	R1276D
790.946	2.941	798347	PROB	2.941	n/a	-999	-999	n/a	n/a	n/a	n/a	5	[4, 8, 3]	15	PAL1	0	R1276D
793.887	0.009	801288	STOP	n/a	n/a	-999	-999	n/a	n/a	n/a	n/a	5	[-999, -999, -999]	-999	PAL1	0	R1276D
793.896	0.001	801297	MATH_END	n/a	n/a	-999	-999	n/a	n/a	n/a	n/a	4	[0, 0, 0]	-999	PAL1	0	R1276D
793.897	0.016	801298	RECALL_START	n/a	n/a	-999	-999	n/a	n/a	n/a	n/a	4	[0, 0, 0]	-999	PAL1	0	R1276D
793.913	0.266	801314	TEST_ORIENT	n/a	n/a	1	1	NEST	CAVE	CAVE	NEST	4	[0, 0, 0]	-999	PAL1	0	R1276D
794.179	0.684	801580	RETRIEVAL_ORIENT_OFF	n/a	n/a	-999	-999	n/a	n/a	n/a	n/a	4	[0, 0, 0]	-999	PAL1	0	R1276D
794.863	4.0	802264	TEST_PROBE	n/a	wordpools/wordpool_EN.txt	1	1	NEST	CAVE	CAVE	NEST	4	[0, 0, 0]	-999	PAL1	0	R1276D
794.864	0.984	802265	REC_START	n/a	n/a	1	-999	n/a	CAVE	n/a	n/a	4	[0, 0, 0]	-999	PAL1	0	R1276D
795.848	3.033	803249	REC_EVENT	0.984	n/a	1	1	NEST	CAVE	CAVE	NEST	4	[0, 0, 0]	-999	PAL1	0	R1276D
798.881	1.001	806282	PROBE_OFF	n/a	n/a	1	-999	n/a	n/a	n/a	n/a	4	[0, 0, 0]	-999	PAL1	0	R1276D
799.882	0.016	807283	REC_END	n/a	n/a	1	-999	n/a	n/a	n/a	n/a	4	[0, 0, 0]	-999	PAL1	0	R1276D
799.898	0.265	807299	TEST_ORIENT	n/a	n/a	2	2	SHRIMP	CAKE	CAKE	SHRIMP	4	[0, 0, 0]	-999	PAL1	0	R1276D
800.163	0.751	807564	RETRIEVAL_ORIENT_OFF	n/a	n/a	1	-999	n/a	n/a	n/a	n/a	4	[0, 0, 0]	-999	PAL1	0	R1276D
800.914	4.0	808315	TEST_PROBE	n/a	wordpools/wordpool_EN.txt	2	2	SHRIMP	CAKE	CAKE	SHRIMP	4	[0, 0, 0]	-999	PAL1	0	R1276D
800.915	1.161	808316	REC_START	n/a	n/a	2	-999	n/a	CAKE	n/a	n/a	4	[0, 0, 0]	-999	PAL1	0	R1276D
802.076	2.856	809477	REC_EVENT	1.161	n/a	2	2	SHRIMP	CAKE	CAKE	SHRIMP	4	[0, 0, 0]	-999	PAL1	0	R1276D
804.932	1.011	812332	PROBE_OFF	n/a	n/a	2	-999	n/a	n/a	n/a	n/a	4	[0, 0, 0]	-999	PAL1	0	R1276D
805.943	0.022	813343	REC_END	n/a	n/a	2	-999	n/a	n/a	n/a	n/a	4	[0, 0, 0]	-999	PAL1	0	R1276D
805.965	0.266	813365	TEST_ORIENT	n/a	n/a	3	3	ROOM	PASS	ROOM	SIGN	4	[0, 0, 0]	-999	PAL1	0	R1276D
806.231	0.601	813631	RETRIEVAL_ORIENT_OFF	n/a	n/a	2	-999	n/a	n/a	n/a	n/a	4	[0, 0, 0]	-999	PAL1	0	R1276D
806.832	4.0	814232	TEST_PROBE	n/a	wordpools/wordpool_EN.txt	3	3	ROOM	PASS	ROOM	SIGN	4	[0, 0, 0]	-999	PAL1	0	R1276D
806.833	2.013	814233	REC_START	n/a	n/a	3	-999	n/a	PASS	n/a	n/a	4	[0, 0, 0]	-999	PAL1	0	R1276D
808.846	1.874	816246	REC_EVENT	2.013	n/a	3	3	ROOM	<>	ROOM	SIGN	4	[0, 0, 0]	-999	PAL1	0	R1276D
810.72	0.146	818120	REC_EVENT	3.887	n/a	3	3	ROOM	PASS	ROOM	SIGN	4	[0, 0, 0]	-999	PAL1	0	R1276D
810.866	1.0	818266	PROBE_OFF	n/a	n/a	3	-999	n/a	n/a	n/a	n/a	4	[0, 0, 0]	-999	PAL1	0	R1276D
811.866	0.017	819266	REC_END	n/a	n/a	3	-999	n/a	n/a	n/a	n/a	4	[0, 0, 0]	-999	PAL1	0	R1276D
811.883	0.266	819283	TEST_ORIENT	n/a	n/a	6	4	PLATE	FLEA	PLATE	FLEA	4	[0, 0, 0]	-999	PAL1	0	R1276D
812.149	0.751	819549	RETRIEVAL_ORIENT_OFF	n/a	n/a	3	-999	n/a	n/a	n/a	n/a	4	[0, 0, 0]	-999	PAL1	0	R1276D
812.9	4.0	820300	TEST_PROBE	n/a	wordpools/wordpool_EN.txt	6	4	PLATE	FLEA	PLATE	FLEA	4	[0, 0, 0]	-999	PAL1	0	R1276D
812.901	1.318	820301	REC_START	n/a	n/a	6	-999	n/a	FLEA	n/a	n/a	4	[0, 0, 0]	-999	PAL1	0	R1276D
814.219	2.698	821619	REC_EVENT	1.318	n/a	6	4	PLATE	FLEA	PLATE	FLEA	4	[0, 0, 0]	-999	PAL1	0	R1276D
816.917	1.0	824317	PROBE_OFF	n/a	n/a	6	-999	n/a	n/a	n/a	n/a	4	[0, 0, 0]	-999	PAL1	0	R1276D
817.917	0.017	825317	REC_END	n/a	n/a	6	-999	n/a	n/a	n/a	n/a	4	[0, 0, 0]	-999	PAL1	0	R1276D
817.934	0.266	825334	TEST_ORIENT	n/a	n/a	5	5	GATE	SHARK	SHARK	GATE	4	[0, 0, 0]	-999	PAL1	0	R1276D
818.2	0.751	825600	RETRIEVAL_ORIENT_OFF	n/a	n/a	6	-999	n/a	n/a	n/a	n/a	4	[0, 0, 0]	-999	PAL1	0	R1276D
818.951	4.0	826351	TEST_PROBE	n/a	wordpools/wordpool_EN.txt	5	5	GATE	SHARK	SHARK	GATE	4	[0, 0, 0]	-999	PAL1	0	R1276D
818.952	0.75	826352	REC_START	n/a	n/a	5	-999	n/a	SHARK	n/a	n/a	4	[0, 0, 0]	-999	PAL1	0	R1276D
819.702	3.266	827102	REC_EVENT	0.75	n/a	5	5	GATE	SHARK	SHARK	GATE	4	[0, 0, 0]	-999	PAL1	0	R1276D
822.968	1.0	830367	PROBE_OFF	n/a	n/a	5	-999	n/a	n/a	n/a	n/a	4	[0, 0, 0]	-999	PAL1	0	R1276D
823.968	0.017	831367	REC_END	n/a	n/a	5	-999	n/a	n/a	n/a	n/a	4	[0, 0, 0]	-999	PAL1	0	R1276D
823.985	0.266	831384	TEST_ORIENT	n/a	n/a	4	6	MOUTH	BRIDGE	BRIDGE	MOUTH	4	[0, 0, 0]	-999	PAL1	0	R1276D
824.251	0.518	831650	RETRIEVAL_ORIENT_OFF	n/a	n/a	5	-999	n/a	n/a	n/a	n/a	4	[0, 0, 0]	-999	PAL1	0	R1276D
824.769	4.0	832168	TEST_PROBE	n/a	wordpools/wordpool_EN.txt	4	6	MOUTH	BRIDGE	BRIDGE	MOUTH	4	[0, 0, 0]	-999	PAL1	0	R1276D
824.77	1.529	832169	REC_START	n/a	n/a	4	-999	n/a	BRIDGE	n/a	n/a	4	[0, 0, 0]	-999	PAL1	0	R1276D
826.299	2.487	833698	REC_EVENT	1.529	n/a	4	6	MOUTH	BRIDGE	BRIDGE	MOUTH	4	[0, 0, 0]	-999	PAL1	0	R1276D
828.786	1.01	836185	PROBE_OFF	n/a	n/a	4	-999	n/a	n/a	n/a	n/a	4	[0, 0, 0]	-999	PAL1	0	R1276D
829.796	0.004	837195	REC_END	n/a	n/a	4	-999	n/a	n/a	n/a	n/a	4	[0, 0, 0]	-999	PAL1	0	R1276D
829.8	6.971	837199	RECALL_END	n/a	n/a	-999	-999	n/a	n/a	n/a	n/a	4	[0, 0, 0]	-999	PAL1	0	R1276D
836.771	10.928	844170	TRIAL	n/a	n/a	-999	-999	n/a	n/a	n/a	n/a	5	[0, 0, 0]	-999	PAL1	0	R1276D
847.699	0.007	855097	ENCODING_START	n/a	n/a	-999	-999	n/a	n/a	n/a	n/a	5	[0, 0, 0]	-999	PAL1	0	R1276D
847.706	0.267	855104	STUDY_ORIENT	n/a	n/a	1	3	SHIP	SLIME	SHIP	SLIME	5	[0, 0, 0]	-999	PAL1	0	R1276D
847.973	0.65	855371	STUDY_ORIENT_OFF	n/a	n/a	1	3	SHIP	SLIME	SHIP	SLIME	5	[0, 0, 0]	-999	PAL1	0	R1276D
848.623	4.0	856021	STUDY_PAIR	n/a	wordpools/wordpool_EN.txt	1	3	SHIP	SLIME	SHIP	SLIME	5	[0, 0, 0]	-999	PAL1	0	R1276D
852.641	1.016	860039	PAIR_OFF	n/a	n/a	1	3	SHIP	SLIME	SHIP	SLIME	5	[0, 0, 0]	-999	PAL1	0	R1276D
853.657	0.267	861055	STUDY_ORIENT	n/a	n/a	2	6	WORLD	DOG	WORLD	DOG	5	[0, 0, 0]	-999	PAL1	0	R1276D
853.924	0.734	861322	STUDY_ORIENT_OFF	n/a	n/a	2	6	WORLD	DOG	WORLD	DOG	5	[0, 0, 0]	-999	PAL1	0	R1276D
854.658	4.0	862056	STUDY_PAIR	n/a	wordpools/wordpool_EN.txt	2	6	WORLD	DOG	WORLD	DOG	5	[0, 0, 0]	-999	PAL1	0	R1276D
858.675	1.017	866073	PAIR_OFF	n/a	n/a	2	6	WORLD	DOG	WORLD	DOG	5	[0, 0, 0]	-999	PAL1	0	R1276D
859.692	0.267	867089	STUDY_ORIENT	n/a	n/a	3	1	JEEP	ROCK	ROCK	JEEP	5	[0, 0, 0]	-999	PAL1	0	R1276D
859.959	0.55	867356	STUDY_ORIENT_OFF	n/a	n/a	3	1	JEEP	ROCK	ROCK	JEEP	5	[0, 0, 0]	-999	PAL1	0	R1276D
860.509	4.0	867906	STUDY_PAIR	n/a	wordpools/wordpool_EN.txt	3	1	JEEP	ROCK	ROCK	JEEP	5	[0, 0, 0]	-999	PAL1	0	R1276D
864.526	1.017	871923	PAIR_OFF	n/a	n/a	3	1	JEEP	ROCK	ROCK	JEEP	5	[0, 0, 0]	-999	PAL1	0	R1276D
865.543	0.267	872940	STUDY_ORIENT	n/a	n/a	4	4	DIME	WALL	DIME	WALL	5	[0, 0, 0]	-999	PAL1	0	R1276D
865.81	0.666	873207	STUDY_ORIENT_OFF	n/a	n/a	4	4	DIME	WALL	DIME	WALL	5	[0, 0, 0]	-999	PAL1	0	R1276D
866.476	4.0	873873	STUDY_PAIR	n/a	wordpools/wordpool_EN.txt	4	4	DIME	WALL	DIME	WALL	5	[0, 0, 0]	-999	PAL1	0	R1276D
870.494	1.017	877891	PAIR_OFF	n/a	n/a	4	4	DIME	WALL	DIME	WALL	5	[0, 0, 0]	-999	PAL1	0	R1276D
871.511	0.267	878908	STUDY_ORIENT	n/a	n/a	5	5	ROPE	BOARD	ROPE	BOARD	5	[0, 0, 0]	-999	PAL1	0	R1276D
871.778	0.616	879175	STUDY_ORIENT_OFF	n/a	n/a	5	5	ROPE	BOARD	ROPE	BOARD	5	[0, 0, 0]	-999	PAL1	0	R1276D
872.394	4.0	879791	STUDY_PAIR	n/a	wordpools/wordpool_EN.txt	5	5	ROPE	BOARD	ROPE	BOARD	5	[0, 0, 0]	-999	PAL1	0	R1276D
876.412	1.017	883809	PAIR_OFF	n/a	n/a	5	5	ROPE	BOARD	ROPE	BOARD	5	[0, 0, 0]	-999	PAL1	0	R1276D
877.429	0.266	884825	STUDY_ORIENT	n/a	n/a	6	2	YARD	FISH	FISH	YARD	5	[0, 0, 0]	-999	PAL1	0	R1276D
877.695	0.632	885091	STUDY_ORIENT_OFF	n/a	n/a	6	2	YARD	FISH	FISH	YARD	5	[0, 0, 0]	-999	PAL1	0	R1276D
878.327	4.0	885723	STUDY_PAIR	n/a	wordpools/wordpool_EN.txt	6	2	YARD	FISH	FISH	YARD	5	[0, 0, 0]	-999	PAL1	0	R1276D
882.345	1.001	889741	PAIR_OFF	n/a	n/a	6	2	YARD	FISH	FISH	YARD	5	[0, 0, 0]	-999	PAL1	0	R1276D
883.346	0.0	890742	ENCODING_END	n/a	n/a	-999	-999	n/a	n/a	n/a	n/a	5	[0, 0, 0]	-999	PAL1	0	R1276D
883.346	0.0	890742	MATH_START	n/a	n/a	-999	-999	n/a	n/a	n/a	n/a	5	[0, 0, 0]	-999	PAL1	0	R1276D
883.346	0.017	890742	START	n/a	n/a	-999	-999	n/a	n/a	n/a	n/a	6	[-999, -999, -999]	-999	PAL1	0	R1276D
883.363	4.217	890759	PROB	4.196	n/a	-999	-999	n/a	n/a	n/a	n/a	6	[9, 7, 5]	21	PAL1	0	R1276D
887.58	3.533	894976	PROB	3.498	n/a	-999	-999	n/a	n/a	n/a	n/a	6	[9, 5, 9]	23	PAL1	0	R1276D
891.113	7.035	898509	PROB	6.997	n/a	-999	-999	n/a	n/a	n/a	n/a	6	[8, 3, 4]	15	PAL1	0	R1276D
898.148	2.768	905543	PROB	2.731	n/a	-999	-999	n/a	n/a	n/a	n/a	6	[1, 5, 1]	7	PAL1	0	R1276D
900.916	3.043	908311	PROB	3.043	n/a	-999	-999	n/a	n/a	n/a	n/a	6	[3, 4, 5]	12	PAL1	0	R1276D
903.959	0.008	911354	STOP	n/a	n/a	-999	-999	n/a	n/a	n/a	n/a	6	[-999, -999, -999]	-999	PAL1	0	R1276D
903.967	0.0	911362	MATH_END	n/a	n/a	-999	-999	n/a	n/a	n/a	n/a	5	[0, 0, 0]	-999	PAL1	0	R1276D
903.967	0.016	911362	RECALL_START	n/a	n/a	-999	-999	n/a	n/a	n/a	n/a	5	[0, 0, 0]	-999	PAL1	0	R1276D
903.983	0.266	911378	TEST_ORIENT	n/a	n/a	3	1	JEEP	ROCK	ROCK	JEEP	5	[0, 0, 0]	-999	PAL1	0	R1276D
904.249	0.634	911644	RETRIEVAL_ORIENT_OFF	n/a	n/a	-999	-999	n/a	n/a	n/a	n/a	5	[0, 0, 0]	-999	PAL1	0	R1276D
904.883	4.0	912278	TEST_PROBE	n/a	wordpools/wordpool_EN.txt	3	1	JEEP	ROCK	ROCK	JEEP	5	[0, 0, 0]	-999	PAL1	0	R1276D
904.884	0.794	912279	REC_START	n/a	n/a	3	-999	n/a	ROCK	n/a	n/a	5	[0, 0, 0]	-999	PAL1	0	R1276D
905.678	3.223	913073	REC_EVENT	0.794	n/a	3	1	JEEP	ROCK	ROCK	JEEP	5	[0, 0, 0]	-999	PAL1	0	R1276D
908.901	1.0	916296	PROBE_OFF	n/a	n/a	3	-999	n/a	n/a	n/a	n/a	5	[0, 0, 0]	-999	PAL1	0	R1276D
909.901	0.017	917296	REC_END	n/a	n/a	3	-999	n/a	n/a	n/a	n/a	5	[0, 0, 0]	-999	PAL1	0	R1276D
909.918	0.266	917313	TEST_ORIENT	n/a	n/a	6	2	YARD	FISH	FISH	YARD	5	[0, 0, 0]	-999	PAL1	0	R1276D
910.184	0.584	917579	RETRIEVAL_ORIENT_OFF	n/a	n/a	3	-999	n/a	n/a	n/a	n/a	5	[0, 0, 0]	-999	PAL1	0	R1276D
910.768	4.0	918163	TEST_PROBE	n/a	wordpools/wordpool_EN.txt	6	2	YARD	FISH	FISH	YARD	5	[0, 0, 0]	-999	PAL1	0	R1276D
910.769	1.042	918164	REC_START	n/a	n/a	6	-999	n/a	FISH	n/a	n/a	5	[0, 0, 0]	-999	PAL1	0	R1276D
911.811	2.974	919206	REC_EVENT	1.042	n/a	6	2	YARD	FISH	FISH	YARD	5	[0, 0, 0]	-999	PAL1	0	R1276D
914.785	1.0	922179	PROBE_OFF	n/a	n/a	6	-999	n/a	n/a	n/a	n/a	5	[0, 0, 0]	-999	PAL1	0	R1276D
915.785	0.017	923179	REC_END	n/a	n/a	6	-999	n/a	n/a	n/a	n/a	5	[0, 0, 0]	-999	PAL1	0	R1276D
915.802	0.266	923196	TEST_ORIENT	n/a	n/a	1	3	SHIP	SLIME	SHIP	SLIME	5	[0, 0, 0]	-999	PAL1	0	R1276D
916.068	0.534	923462	RETRIEVAL_ORIENT_OFF	n/a	n/a	6	-999	n/a	n/a	n/a	n/a	5	[0, 0, 0]	-999	PAL1	0	R1276D
916.602	4.0	923996	TEST_PROBE	n/a	wordpools/wordpool_EN.txt	1	3	SHIP	SLIME	SHIP	SLIME	5	[0, 0, 0]	-999	PAL1	0	R1276D
916.603	1.393	923997	REC_START	n/a	n/a	1	-999	n/a	SLIME	n/a	n/a	5	[0, 0, 0]	-999	PAL1	0	R1276D
917.996	2.624	925390	REC_EVENT	1.393	n/a	1	3	SHIP	SLIME	SHIP	SLIME	5	[0, 0, 0]	-999	PAL1	0	R1276D
920.62	1.011	928014	PROBE_OFF	n/a	n/a	1	-999	n/a	n/a	n/a	n/a	5	[0, 0, 0]	-999	PAL1	0	R1276D
921.631	0.022	929025	REC_END	n/a	n/a	1	-999	n/a	n/a	n/a	n/a	5	[0, 0, 0]	-999	PAL1	0	R1276D
921.653	0.267	929047	TEST_ORIENT	n/a	n/a	4	4	DIME	WALL	DIME	WALL	5	[0, 0, 0]	-999	PAL1	0	R1276D
921.92	0.75	929314	RETRIEVAL_ORIENT_OFF	n/a	n/a	1	-999	n/a	n/a	n/a	n/a	5	[0, 0, 0]	-999	PAL1	0	R1276D
922.67	4.0	930064	TEST_PROBE	n/a	wordpools/wordpool_EN.txt	4	4	DIME	WALL	DIME	WALL	5	[0, 0, 0]	-999	PAL1	0	R1276D
922.671	1.189	930065	REC_START	n/a	n/a	4	-999	n/a	WALL	n/a	n/a	5	[0, 0, 0]	-999	PAL1	0	R1276D
923.86	2.828	931254	REC_EVENT	1.189	n/a	4	4	DIME	WALL	DIME	WALL	5	[0, 0, 0]	-999	PAL1	0	R1276D
926.688	1.0	934082	PROBE_OFF	n/a	n/a	4	-999	n/a	n/a	n/a	n/a	5	[0, 0, 0]	-999	PAL1	0	R1276D
927.688	0.016	935082	REC_END	n/a	n/a	4	-999	n/a	n/a	n/a	n/a	5	[0, 0, 0]	-999	PAL1	0	R1276D
927.704	0.267	935098	TEST_ORIENT	n/a	n/a	5	5	ROPE	BOARD	ROPE	BOARD	5	[0, 0, 0]	-999	PAL1	0	R1276D
927.971	0.584	935365	RETRIEVAL_ORIENT_OFF	n/a	n/a	4	-999	n/a	n/a	n/a	n/a	5	[0, 0, 0]	-999	PAL1	0	R1276D
928.555	0.0	935949	REC_START	n/a	n/a	5	-999	n/a	BOARD	n/a	n/a	5	[0, 0, 0]	-999	PAL1	0	R1276D
928.555	4.0	935949	TEST_PROBE	n/a	wordpools/wordpool_EN.txt	5	5	ROPE	BOARD	ROPE	BOARD	5	[0, 0, 0]	-999	PAL1	0	R1276D
929.911	2.661	937305	REC_EVENT	1.356	n/a	5	5	ROPE	BOARD	ROPE	BOARD	5	[0, 0, 0]	-999	PAL1	0	R1276D
932.572	1.0	939965	PROBE_OFF	n/a	n/a	5	-999	n/a	n/a	n/a	n/a	5	[0, 0, 0]	-999	PAL1	0	R1276D
933.572	0.017	940965	REC_END	n/a	n/a	5	-999	n/a	n/a	n/a	n/a	5	[0, 0, 0]	-999	PAL1	0	R1276D
933.589	0.267	940982	TEST_ORIENT	n/a	n/a	2	6	WORLD	DOG	WORLD	DOG	5	[0, 0, 0]	-999	PAL1	0	R1276D
933.856	0.616	941249	RETRIEVAL_ORIENT_OFF	n/a	n/a	5	-999	n/a	n/a	n/a	n/a	5	[0, 0, 0]	-999	PAL1	0	R1276D
934.472	4.0	941865	TEST_PROBE	n/a	wordpools/wordpool_EN.txt	2	6	WORLD	DOG	WORLD	DOG	5	[0, 0, 0]	-999	PAL1	0	R1276D
934.473	1.686	941866	REC_START	n/a	n/a	2	-999	n/a	DOG	n/a	n/a	5	[0, 0, 0]	-999	PAL1	0	R1276D
936.159	2.331	943552	REC_EVENT	1.686	n/a	2	6	WORLD	DOG	WORLD	DOG	5	[0, 0, 0]	-999	PAL1	0	R1276D
938.49	1.0	945883	PROBE_OFF	n/a	n/a	2	-999	n/a	n/a	n/a	n/a	5	[0, 0, 0]	-999	PAL1	0	R1276D
939.49	0.005	946883	REC_END	n/a	n/a	2	-999	n/a	n/a	n/a	n/a	5	[0, 0, 0]	-999	PAL1	0	R1276D
939.495	6.513	946888	RECALL_END	n/a	n/a	-999	-999	n/a	n/a	n/a	n/a	5	[0, 0, 0]	-999	PAL1	0	R1276D
946.008	10.928	953401	TRIAL	n/a	n/a	-999	-999	n/a	n/a	n/a	n/a	6	[0, 0, 0]	-999	PAL1	0	R1276D
956.936	0.007	964328	ENCODING_START	n/a	n/a	-999	-999	n/a	n/a	n/a	n/a	6	[0, 0, 0]	-999	PAL1	0	R1276D
956.943	0.266	964335	STUDY_ORIENT	n/a	n/a	1	3	FOG	BATH	FOG	BAT	6	[0, 0, 0]	-999	PAL1	0	R1276D
957.209	0.734	964601	STUDY_ORIENT_OFF	n/a	n/a	1	3	FOG	BATH	FOG	BAT	6	[0, 0, 0]	-999	PAL1	0	R1276D
957.943	4.0	965335	STUDY_PAIR	n/a	wordpools/wordpool_EN.txt	1	3	FOG	BATH	FOG	BAT	6	[0, 0, 0]	-999	PAL1	0	R1276D
961.961	1.017	969353	PAIR_OFF	n/a	n/a	1	3	FOG	BATH	FOG	BAT	6	[0, 0, 0]	-999	PAL1	0	R1276D
962.978	0.265	970370	STUDY_ORIENT	n/a	n/a	2	6	BOOT	SQUARE	SQUARE	BOOT	6	[0, 0, 0]	-999	PAL1	0	R1276D
963.243	0.568	970635	STUDY_ORIENT_OFF	n/a	n/a	2	6	BOOT	SQUARE	SQUARE	BOOT	6	[0, 0, 0]	-999	PAL1	0	R1276D
963.811	4.0	971203	STUDY_PAIR	n/a	wordpools/wordpool_EN.txt	2	6	BOOT	SQUARE	SQUARE	BOOT	6	[0, 0, 0]	-999	PAL1	0	R1276D
967.829	1.016	975221	PAIR_OFF	n/a	n/a	2	6	BOOT	SQUARE	SQUARE	BOOT	6	[0, 0, 0]	-999	PAL1	0	R1276D
968.845	0.266	976236	STUDY_ORIENT	n/a	n/a	3	5	TEA	BRUSH	TEA	BRUSH	6	[0, 0, 0]	-999	PAL1	0	R1276D
969.111	0.568	976502	STUDY_ORIENT_OFF	n/a	n/a	3	5	TEA	BRUSH	TEA	BRUSH	6	[0, 0, 0]	-999	PAL1	0	R1276D
969.679	4.0	977070	STUDY_PAIR	n/a	wordpools/wordpool_EN.txt	3	5	TEA	BRUSH	TEA	BRUSH	6	[0, 0, 0]	-999	PAL1	0	R1276D
973.696	1.017	981087	PAIR_OFF	n/a	n/a	3	5	TEA	BRUSH	TEA	BRUSH	6	[0, 0, 0]	-999	PAL1	0	R1276D
974.713	0.267	982104	STUDY_ORIENT	n/a	n/a	4	2	SWORD	MUG	MUG	SWORD	6	[0, 0, 0]	-999	PAL1	0	R1276D
974.98	0.633	982371	STUDY_ORIENT_OFF	n/a	n/a	4	2	SWORD	MUG	MUG	SWORD	6	[0, 0, 0]	-999	PAL1	0	R1276D
975.613	4.0	983004	STUDY_PAIR	n/a	wordpools/wordpool_EN.txt	4	2	SWORD	MUG	MUG	SWORD	6	[0, 0, 0]	-999	PAL1	0	R1276D
979.631	1.016	987022	PAIR_OFF	n/a	n/a	4	2	SWORD	MUG	MUG	SWORD	6	[0, 0, 0]	-999	PAL1	0	R1276D
980.647	0.267	988038	STUDY_ORIENT	n/a	n/a	5	1	SHELL	CHEEK	SHELL	CHEEK	6	[0, 0, 0]	-999	PAL1	0	R1276D
980.914	0.684	988305	STUDY_ORIENT_OFF	n/a	n/a	5	1	SHELL	CHEEK	SHELL	CHEEK	6	[0, 0, 0]	-999	PAL1	0	R1276D
981.598	4.0	988989	STUDY_PAIR	n/a	wordpools/wordpool_EN.txt	5	1	SHELL	CHEEK	SHELL	CHEEK	6	[0, 0, 0]	-999	PAL1	0	R1276D
985.615	1.017	993006	PAIR_OFF	n/a	n/a	5	1	SHELL	CHEEK	SHELL	CHEEK	6	[0, 0, 0]	-999	PAL1	0	R1276D
986.632	0.267	994022	STUDY_ORIENT	n/a	n/a	6	4	BATH	PASS	FLUTE	BATH	6	[0, 0, 0]	-999	PAL1	0	R1276D
986.899	0.633	994289	STUDY_ORIENT_OFF	n/a	n/a	6	4	BATH	PASS	FLUTE	BATH	6	[0, 0, 0]	-999	PAL1	0	R1276D
987.532	4.0	994922	STUDY_PAIR	n/a	wordpools/wordpool_EN.txt	6	4	BATH	PASS	FLUTE	BATH	6	[0, 0, 0]	-999	PAL1	0	R1276D
991.549	1.0	998939	PAIR_OFF	n/a	n/a	6	4	BATH	PASS	FLUTE	BATH	6	[0, 0, 0]	-999	PAL1	0	R1276D
992.549	0.0	999939	ENCODING_END	n/a	n/a	-999	-999	n/a	n/a	n/a	n/a	6	[0, 0, 0]	-999	PAL1	0	R1276D
992.549	0.0	999939	MATH_START	n/a	n/a	-999	-999	n/a	n/a	n/a	n/a	6	[0, 0, 0]	-999	PAL1	0	R1276D
992.549	0.017	999939	START	n/a	n/a	-999	-999	n/a	n/a	n/a	n/a	7	[-999, -999, -999]	-999	PAL1	0	R1276D
992.566	2.65	999956	PROB	2.624	n/a	-999	-999	n/a	n/a	n/a	n/a	7	[1, 3, 8]	12	PAL1	0	R1276D
995.216	4.867	1002606	PROB	4.83	n/a	-999	-999	n/a	n/a	n/a	n/a	7	[7, 7, 3]	17	PAL1	0	R1276D
1000.083	5.352	1007473	PROB	5.324	n/a	-999	-999	n/a	n/a	n/a	n/a	7	[9, 7, 1]	17	PAL1	0	R1276D
1005.435	2.184	1012824	PROB	2.155	n/a	-999	-999	n/a	n/a	n/a	n/a	7	[4, 6, 2]	12	PAL1	0	R1276D
1007.619	4.384	1015008	PROB	4.356	n/a	-999	-999	n/a	n/a	n/a	n/a	7	[4, 9, 4]	17	PAL1	0	R1276D
1012.003	4.404	1019392	PROB	4.404	n/a	-999	-999	n/a	n/a	n/a	n/a	7	[4, 3, 7]	14	PAL1	0	R1276D
1016.407	0.014	1023796	STOP	n/a	n/a	-999	-999	n/a	n/a	n/a	n/a	7	[-999, -999, -999]	-999	PAL1	0	R1276D
1016.421	0.0	1023810	MATH_END	n/a	n/a	-999	-999	n/a	n/a	n/a	n/a	6	[0, 0, 0]	-999	PAL1	0	R1276D
1016.421	0.016	1023810	RECALL_START	n/a	n/a	-999	-999	n/a	n/a	n/a	n/a	6	[0, 0, 0]	-999	PAL1	0	R1276D
1016.437	0.267	1023826	TEST_ORIENT	n/a	n/a	5	1	SHELL	CHEEK	SHELL	CHEEK	6	[0, 0, 0]	-999	PAL1	0	R1276D
1016.704	0.633	1024093	RETRIEVAL_ORIENT_OFF	n/a	n/a	-999	-999	n/a	n/a	n/a	n/a	6	[0, 0, 0]	-999	PAL1	0	R1276D
1017.337	0.0	1024726	REC_START	n/a	n/a	5	-999	n/a	CHEEK	n/a	n/a	6	[0, 0, 0]	-999	PAL1	0	R1276D
1017.337	4.0	1024726	TEST_PROBE	n/a	wordpools/wordpool_EN.txt	5	1	SHELL	CHEEK	SHELL	CHEEK	6	[0, 0, 0]	-999	PAL1	0	R1276D
1018.473	2.881	1025862	REC_EVENT	1.136	n/a	5	1	SHELL	CHEEK	SHELL	CHEEK	6	[0, 0, 0]	-999	PAL1	0	R1276D
1021.354	1.0	1028743	PROBE_OFF	n/a	n/a	5	-999	n/a	n/a	n/a	n/a	6	[0, 0, 0]	-999	PAL1	0	R1276D
1022.354	0.018	1029743	REC_END	n/a	n/a	5	-999	n/a	n/a	n/a	n/a	6	[0, 0, 0]	-999	PAL1	0	R1276D
1022.372	0.266	1029761	TEST_ORIENT	n/a	n/a	4	2	SWORD	MUG	MUG	SWORD	6	[0, 0, 0]	-999	PAL1	0	R1276D
1022.638	0.716	1030026	RETRIEVAL_ORIENT_OFF	n/a	n/a	5	-999	n/a	n/a	n/a	n/a	6	[0, 0, 0]	-999	PAL1	0	R1276D
1023.354	4.0	1030742	TEST_PROBE	n/a	wordpools/wordpool_EN.txt	4	2	SWORD	MUG	MUG	SWORD	6	[0, 0, 0]	-999	PAL1	0	R1276D
1023.355	1.813	1030743	REC_START	n/a	n/a	4	-999	n/a	MUG	n/a	n/a	6	[0, 0, 0]	-999	PAL1	0	R1276D
1025.168	2.205	1032556	REC_EVENT	1.813	n/a	4	2	SWORD	MUG	MUG	SWORD	6	[0, 0, 0]	-999	PAL1	0	R1276D
1027.373	1.011	1034761	PROBE_OFF	n/a	n/a	4	-999	n/a	n/a	n/a	n/a	6	[0, 0, 0]	-999	PAL1	0	R1276D
1028.384	0.022	1035772	REC_END	n/a	n/a	4	-999	n/a	n/a	n/a	n/a	6	[0, 0, 0]	-999	PAL1	0	R1276D
1028.406	0.267	1035794	TEST_ORIENT	n/a	n/a	1	3	FOG	BATH	FOG	BAT	6	[0, 0, 0]	-999	PAL1	0	R1276D
1028.673	0.666	1036061	RETRIEVAL_ORIENT_OFF	n/a	n/a	4	-999	n/a	n/a	n/a	n/a	6	[0, 0, 0]	-999	PAL1	0	R1276D
1029.339	0.0	1036727	REC_START	n/a	n/a	1	-999	n/a	BATH	n/a	n/a	6	[0, 0, 0]	-999	PAL1	0	R1276D
1029.339	4.0	1036727	TEST_PROBE	n/a	wordpools/wordpool_EN.txt	1	3	FOG	BATH	FOG	BAT	6	[0, 0, 0]	-999	PAL1	0	R1276D
1030.837	2.519	1038225	REC_EVENT	1.498	n/a	1	3	FOG	BATH	FOG	BAT	6	[0, 0, 0]	-999	PAL1	0	R1276D
1033.356	1.0	1040744	PROBE_OFF	n/a	n/a	1	-999	n/a	n/a	n/a	n/a	6	[0, 0, 0]	-999	PAL1	0	R1276D
1034.356	0.018	1041744	REC_END	n/a	n/a	1	-999	n/a	n/a	n/a	n/a	6	[0, 0, 0]	-999	PAL1	0	R1276D
1034.374	0.267	1041762	TEST_ORIENT	n/a	n/a	6	4	BATH	PASS	FLUTE	BATH	6	[0, 0, 0]	-999	PAL1	0	R1276D
1034.641	0.615	1042029	RETRIEVAL_ORIENT_OFF	n/a	n/a	1	-999	n/a	n/a	n/a	n/a	6	[0, 0, 0]	-999	PAL1	0	R1276D
1035.256	4.0	1042644	TEST_PROBE	n/a	wordpools/wordpool_EN.txt	6	4	BATH	PASS	FLUTE	BATH	6	[0, 0, 0]	-999	PAL1	0	R1276D
1035.257	2.963	1042645	REC_START	n/a	n/a	6	-999	n/a	PASS	n/a	n/a	6	[0, 0, 0]	-999	PAL1	0	R1276D
1038.22	0.716	1045608	REC_EVENT	2.963	n/a	6	4	BATH	<>	FLUTE	BATH	6	[0, 0, 0]	-999	PAL1	0	R1276D
1038.936	0.338	1046324	REC_EVENT	3.679	n/a	6	4	BATH	PASS	FLUTE	BATH	6	[0, 0, 0]	-999	PAL1	0	R1276D
1039.274	1.0	1046662	PROBE_OFF	n/a	n/a	6	-999	n/a	n/a	n/a	n/a	6	[0, 0, 0]	-999	PAL1	0	R1276D
1040.274	0.017	1047662	REC_END	n/a	n/a	6	-999	n/a	n/a	n/a	n/a	6	[0, 0, 0]	-999	PAL1	0	R1276D
1040.291	0.268	1047679	TEST_ORIENT	n/a	n/a	3	5	TEA	BRUSH	TEA	BRUSH	6	[0, 0, 0]	-999	PAL1	0	R1276D
1040.559	0.632	1047947	RETRIEVAL_ORIENT_OFF	n/a	n/a	6	-999	n/a	n/a	n/a	n/a	6	[0, 0, 0]	-999	PAL1	0	R1276D
1041.191	0.0	1048578	REC_START	n/a	n/a	3	-999	n/a	BRUSH	n/a	n/a	6	[0, 0, 0]	-999	PAL1	0	R1276D
1041.191	4.0	1048578	TEST_PROBE	n/a	wordpools/wordpool_EN.txt	3	5	TEA	BRUSH	TEA	BRUSH	6	[0, 0, 0]	-999	PAL1	0	R1276D
1042.683	2.525	1050070	REC_EVENT	1.492	n/a	3	5	TEA	BRUSH	TEA	BRUSH	6	[0, 0, 0]	-999	PAL1	0	R1276D
1045.208	1.0	1052595	PROBE_OFF	n/a	n/a	3	-999	n/a	n/a	n/a	n/a	6	[0, 0, 0]	-999	PAL1	0	R1276D
1046.208	0.017	1053595	REC_END	n/a	n/a	3	-999	n/a	n/a	n/a	n/a	6	[0, 0, 0]	-999	PAL1	0	R1276D
1046.225	0.268	1053612	TEST_ORIENT	n/a	n/a	2	6	BOOT	SQUARE	SQUARE	BOOT	6	[0, 0, 0]	-999	PAL1	0	R1276D
1046.493	0.699	1053880	RETRIEVAL_ORIENT_OFF	n/a	n/a	3	-999	n/a	n/a	n/a	n/a	6	[0, 0, 0]	-999	PAL1	0	R1276D
1047.192	4.0	1054579	TEST_PROBE	n/a	wordpools/wordpool_EN.txt	2	6	BOOT	SQUARE	SQUARE	BOOT	6	[0, 0, 0]	-999	PAL1	0	R1276D
1047.193	1.227	1054580	REC_START	n/a	n/a	2	-999	n/a	SQUARE	n/a	n/a	6	[0, 0, 0]	-999	PAL1	0	R1276D
1048.42	2.789	1055807	REC_EVENT	1.227	n/a	2	6	BOOT	SQUARE	SQUARE	BOOT	6	[0, 0, 0]	-999	PAL1	0	R1276D
1051.209	1.0	1058596	PROBE_OFF	n/a	n/a	2	-999	n/a	n/a	n/a	n/a	6	[0, 0, 0]	-999	PAL1	0	R1276D
1052.209	0.011	1059596	REC_END	n/a	n/a	2	-999	n/a	n/a	n/a	n/a	6	[0, 0, 0]	-999	PAL1	0	R1276D
1052.22	6.709	1059607	RECALL_END	n/a	n/a	-999	-999	n/a	n/a	n/a	n/a	6	[0, 0, 0]	-999	PAL1	0	R1276D
1058.929	10.929	1066315	TRIAL	n/a	n/a	-999	-999	n/a	n/a	n/a	n/a	7	[0, 0, 0]	-999	PAL1	0	R1276D
1069.858	0.006	1077244	ENCODING_START	n/a	n/a	-999	-999	n/a	n/a	n/a	n/a	7	[0, 0, 0]	-999	PAL1	0	R1276D
1069.864	0.266	1077250	STUDY_ORIENT	n/a	n/a	1	1	POLE	RUG	RUG	POLE	7	[0, 0, 0]	-999	PAL1	0	R1276D
1070.13	0.617	1077516	STUDY_ORIENT_OFF	n/a	n/a	1	1	POLE	RUG	RUG	POLE	7	[0, 0, 0]	-999	PAL1	0	R1276D
1070.747	4.0	1078133	STUDY_PAIR	n/a	wordpools/wordpool_EN.txt	1	1	POLE	RUG	RUG	POLE	7	[0, 0, 0]	-999	PAL1	0	R1276D
1074.765	1.017	1082151	PAIR_OFF	n/a	n/a	1	1	POLE	RUG	RUG	POLE	7	[0, 0, 0]	-999	PAL1	0	R1276D
1075.782	0.265	1083168	STUDY_ORIENT	n/a	n/a	2	6	MAT	SPRING	SPRING	MAT	7	[0, 0, 0]	-999	PAL1	0	R1276D
1076.047	0.668	1083433	STUDY_ORIENT_OFF	n/a	n/a	2	6	MAT	SPRING	SPRING	MAT	7	[0, 0, 0]	-999	PAL1	0	R1276D
1076.715	4.0	1084101	STUDY_PAIR	n/a	wordpools/wordpool_EN.txt	2	6	MAT	SPRING	SPRING	MAT	7	[0, 0, 0]	-999	PAL1	0	R1276D
1080.733	1.016	1088118	PAIR_OFF	n/a	n/a	2	6	MAT	SPRING	SPRING	MAT	7	[0, 0, 0]	-999	PAL1	0	R1276D
1081.749	0.267	1089134	STUDY_ORIENT	n/a	n/a	3	3	BOOK	EEL	EEL	BOOK	7	[0, 0, 0]	-999	PAL1	0	R1276D
1082.016	0.684	1089401	STUDY_ORIENT_OFF	n/a	n/a	3	3	BOOK	EEL	EEL	BOOK	7	[0, 0, 0]	-999	PAL1	0	R1276D
1082.7	4.0	1090085	STUDY_PAIR	n/a	wordpools/wordpool_EN.txt	3	3	BOOK	EEL	EEL	BOOK	7	[0, 0, 0]	-999	PAL1	0	R1276D
1086.717	1.017	1094102	PAIR_OFF	n/a	n/a	3	3	BOOK	EEL	EEL	BOOK	7	[0, 0, 0]	-999	PAL1	0	R1276D
1087.734	0.267	1095119	STUDY_ORIENT	n/a	n/a	4	4	TOAST	COUCH	COUCH	TOAST	7	[0, 0, 0]	-999	PAL1	0	R1276D
1088.001	0.6	1095386	STUDY_ORIENT_OFF	n/a	n/a	4	4	TOAST	COUCH	COUCH	TOAST	7	[0, 0, 0]	-999	PAL1	0	R1276D
1088.601	4.0	1095986	STUDY_PAIR	n/a	wordpools/wordpool_EN.txt	4	4	TOAST	COUCH	COUCH	TOAST	7	[0, 0, 0]	-999	PAL1	0	R1276D
1092.618	1.017	1100003	PAIR_OFF	n/a	n/a	4	4	TOAST	COUCH	COUCH	TOAST	7	[0, 0, 0]	-999	PAL1	0	R1276D
1093.635	0.267	1101020	STUDY_ORIENT	n/a	n/a	5	5	ARK	FUR	FUR	ARK	7	[0, 0, 0]	-999	PAL1	0	R1276D
1093.902	0.633	1101287	STUDY_ORIENT_OFF	n/a	n/a	5	5	ARK	FUR	FUR	ARK	7	[0, 0, 0]	-999	PAL1	0	R1276D
1094.535	4.0	1101920	STUDY_PAIR	n/a	wordpools/wordpool_EN.txt	5	5	ARK	FUR	FUR	ARK	7	[0, 0, 0]	-999	PAL1	0	R1276D
1098.552	1.017	1105936	PAIR_OFF	n/a	n/a	5	5	ARK	FUR	FUR	ARK	7	[0, 0, 0]	-999	PAL1	0	R1276D
1099.569	0.267	1106953	STUDY_ORIENT	n/a	n/a	6	2	HOSE	PURSE	PURSE	HOSE	7	[0, 0, 0]	-999	PAL1	0	R1276D
1099.836	0.6	1107220	STUDY_ORIENT_OFF	n/a	n/a	6	2	HOSE	PURSE	PURSE	HOSE	7	[0, 0, 0]	-999	PAL1	0	R1276D
1100.436	4.0	1107820	STUDY_PAIR	n/a	wordpools/wordpool_EN.txt	6	2	HOSE	PURSE	PURSE	HOSE	7	[0, 0, 0]	-999	PAL1	0	R1276D
1104.454	1.0	1111838	PAIR_OFF	n/a	n/a	6	2	HOSE	PURSE	PURSE	HOSE	7	[0, 0, 0]	-999	PAL1	0	R1276D
1105.454	0.0	1112838	ENCODING_END	n/a	n/a	-999	-999	n/a	n/a	n/a	n/a	7	[0, 0, 0]	-999	PAL1	0	R1276D
1105.454	0.0	1112838	MATH_START	n/a	n/a	-999	-999	n/a	n/a	n/a	n/a	7	[0, 0, 0]	-999	PAL1	0	R1276D
1105.454	0.016	1112838	START	n/a	n/a	-999	-999	n/a	n/a	n/a	n/a	8	[-999, -999, -999]	-999	PAL1	0	R1276D
1105.47	5.535	1112854	PROB	5.512	n/a	-999	-999	n/a	n/a	n/a	n/a	8	[4, 7, 8]	19	PAL1	0	R1276D
1111.005	3.166	1118389	PROB	3.137	n/a	-999	-999	n/a	n/a	n/a	n/a	8	[4, 4, 4]	12	PAL1	0	R1276D
1114.171	3.752	1121554	PROB	3.716	n/a	-999	-999	n/a	n/a	n/a	n/a	8	[5, 1, 2]	8	PAL1	0	R1276D
1117.923	4.851	1125306	PROB	4.828	n/a	-999	-999	n/a	n/a	n/a	n/a	8	[2, 9, 8]	19	PAL1	0	R1276D
1122.774	2.856	1130157	PROB	2.856	n/a	-999	-999	n/a	n/a	n/a	n/a	8	[8, 6, 4]	18	PAL1	0	R1276D
1125.63	0.011	1133013	STOP	n/a	n/a	-999	-999	n/a	n/a	n/a	n/a	8	[-999, -999, -999]	-999	PAL1	0	R1276D
1125.641	0.0	1133024	MATH_END	n/a	n/a	-999	-999	n/a	n/a	n/a	n/a	7	[0, 0, 0]	-999	PAL1	0	R1276D
1125.641	0.016	1133024	RECALL_START	n/a	n/a	-999	-999	n/a	n/a	n/a	n/a	7	[0, 0, 0]	-999	PAL1	0	R1276D
1125.657	0.267	1133040	TEST_ORIENT	n/a	n/a	1	1	POLE	RUG	RUG	POLE	7	[0, 0, 0]	-999	PAL1	0	R1276D
1125.924	0.667	1133307	RETRIEVAL_ORIENT_OFF	n/a	n/a	-999	-999	n/a	n/a	n/a	n/a	7	[0, 0, 0]	-999	PAL1	0	R1276D
1126.591	4.0	1133974	TEST_PROBE	n/a	wordpools/wordpool_EN.txt	1	1	POLE	RUG	RUG	POLE	7	[0, 0, 0]	-999	PAL1	0	R1276D
1126.592	2.225	1133975	REC_START	n/a	n/a	1	-999	n/a	RUG	n/a	n/a	7	[0, 0, 0]	-999	PAL1	0	R1276D
1128.817	1.791	1136200	REC_EVENT	2.225	n/a	1	1	POLE	RUG	RUG	POLE	7	[0, 0, 0]	-999	PAL1	0	R1276D
1130.608	1.0	1137991	PROBE_OFF	n/a	n/a	1	-999	n/a	n/a	n/a	n/a	7	[0, 0, 0]	-999	PAL1	0	R1276D
1131.608	0.017	1138990	REC_END	n/a	n/a	1	-999	n/a	n/a	n/a	n/a	7	[0, 0, 0]	-999	PAL1	0	R1276D
1131.625	0.267	1139007	TEST_ORIENT	n/a	n/a	6	2	HOSE	PURSE	PURSE	HOSE	7	[0, 0, 0]	-999	PAL1	0	R1276D
1131.892	0.667	1139274	RETRIEVAL_ORIENT_OFF	n/a	n/a	1	-999	n/a	n/a	n/a	n/a	7	[0, 0, 0]	-999	PAL1	0	R1276D
1132.559	4.0	1139941	TEST_PROBE	n/a	wordpools/wordpool_EN.txt	6	2	HOSE	PURSE	PURSE	HOSE	7	[0, 0, 0]	-999	PAL1	0	R1276D
1132.559	2.011	1139941	REC_START	n/a	n/a	6	-999	n/a	PURSE	n/a	n/a	7	[0, 0, 0]	-999	PAL1	0	R1276D
1134.57	2.006	1141952	REC_EVENT	2.011	n/a	6	2	HOSE	PURSE	PURSE	HOSE	7	[0, 0, 0]	-999	PAL1	0	R1276D
1136.576	1.001	1143958	PROBE_OFF	n/a	n/a	6	-999	n/a	n/a	n/a	n/a	7	[0, 0, 0]	-999	PAL1	0	R1276D
1137.577	0.016	1144959	REC_END	n/a	n/a	6	-999	n/a	n/a	n/a	n/a	7	[0, 0, 0]	-999	PAL1	0	R1276D
1137.593	0.267	1144975	TEST_ORIENT	n/a	n/a	3	3	BOOK	EEL	EEL	BOOK	7	[0, 0, 0]	-999	PAL1	0	R1276D
1137.86	0.583	1145242	RETRIEVAL_ORIENT_OFF	n/a	n/a	6	-999	n/a	n/a	n/a	n/a	7	[0, 0, 0]	-999	PAL1	0	R1276D
1138.443	4.0	1145825	TEST_PROBE	n/a	wordpools/wordpool_EN.txt	3	3	BOOK	EEL	EEL	BOOK	7	[0, 0, 0]	-999	PAL1	0	R1276D
1138.443	1.574	1145825	REC_START	n/a	n/a	3	-999	n/a	EEL	n/a	n/a	7	[0, 0, 0]	-999	PAL1	0	R1276D
1140.017	2.444	1147399	REC_EVENT	1.574	n/a	3	3	BOOK	EEL	EEL	BOOK	7	[0, 0, 0]	-999	PAL1	0	R1276D
1142.461	1.0	1149843	PROBE_OFF	n/a	n/a	3	-999	n/a	n/a	n/a	n/a	7	[0, 0, 0]	-999	PAL1	0	R1276D
1143.461	0.016	1150843	REC_END	n/a	n/a	3	-999	n/a	n/a	n/a	n/a	7	[0, 0, 0]	-999	PAL1	0	R1276D
1143.477	0.267	1150859	TEST_ORIENT	n/a	n/a	4	4	TOAST	COUCH	COUCH	TOAST	7	[0, 0, 0]	-999	PAL1	0	R1276D
1143.744	0.634	1151126	RETRIEVAL_ORIENT_OFF	n/a	n/a	3	-999	n/a	n/a	n/a	n/a	7	[0, 0, 0]	-999	PAL1	0	R1276D
1144.378	4.0	1151760	TEST_PROBE	n/a	wordpools/wordpool_EN.txt	4	4	TOAST	COUCH	COUCH	TOAST	7	[0, 0, 0]	-999	PAL1	0	R1276D
1144.378	1.025	1151760	REC_START	n/a	n/a	4	-999	n/a	COUCH	n/a	n/a	7	[0, 0, 0]	-999	PAL1	0	R1276D
1145.403	2.992	1152785	REC_EVENT	1.025	n/a	4	4	TOAST	COUCH	COUCH	TOAST	7	[0, 0, 0]	-999	PAL1	0	R1276D
1148.395	1.0	1155777	PROBE_OFF	n/a	n/a	4	-999	n/a	n/a	n/a	n/a	7	[0, 0, 0]	-999	PAL1	0	R1276D
1149.395	0.017	1156777	REC_END	n/a	n/a	4	-999	n/a	n/a	n/a	n/a	7	[0, 0, 0]	-999	PAL1	0	R1276D
1149.412	0.267	1156794	TEST_ORIENT	n/a	n/a	5	5	ARK	FUR	FUR	ARK	7	[0, 0, 0]	-999	PAL1	0	R1276D
1149.679	0.683	1157060	RETRIEVAL_ORIENT_OFF	n/a	n/a	4	-999	n/a	n/a	n/a	n/a	7	[0, 0, 0]	-999	PAL1	0	R1276D
1150.362	4.0	1157743	TEST_PROBE	n/a	wordpools/wordpool_EN.txt	5	5	ARK	FUR	FUR	ARK	7	[0, 0, 0]	-999	PAL1	0	R1276D
1150.362	1.032	1157743	REC_START	n/a	n/a	5	-999	n/a	FUR	n/a	n/a	7	[0, 0, 0]	-999	PAL1	0	R1276D
1151.394	2.985	1158775	REC_EVENT	1.032	n/a	5	5	ARK	FUR	FUR	ARK	7	[0, 0, 0]	-999	PAL1	0	R1276D
1154.379	1.001	1161760	PROBE_OFF	n/a	n/a	5	-999	n/a	n/a	n/a	n/a	7	[0, 0, 0]	-999	PAL1	0	R1276D
1155.38	0.016	1162761	REC_END	n/a	n/a	5	-999	n/a	n/a	n/a	n/a	7	[0, 0, 0]	-999	PAL1	0	R1276D
1155.396	0.267	1162777	TEST_ORIENT	n/a	n/a	2	6	MAT	SPRING	SPRING	MAT	7	[0, 0, 0]	-999	PAL1	0	R1276D
1155.663	0.733	1163044	RETRIEVAL_ORIENT_OFF	n/a	n/a	5	-999	n/a	n/a	n/a	n/a	7	[0, 0, 0]	-999	PAL1	0	R1276D
1156.396	4.0	1163777	TEST_PROBE	n/a	wordpools/wordpool_EN.txt	2	6	MAT	SPRING	SPRING	MAT	7	[0, 0, 0]	-999	PAL1	0	R1276D
1156.397	1.506	1163778	REC_START	n/a	n/a	2	-999	n/a	SPRING	n/a	n/a	7	[0, 0, 0]	-999	PAL1	0	R1276D
1157.903	2.511	1165284	REC_EVENT	1.506	n/a	2	6	MAT	SPRING	SPRING	MAT	7	[0, 0, 0]	-999	PAL1	0	R1276D
1160.414	1.0	1167795	PROBE_OFF	n/a	n/a	2	-999	n/a	n/a	n/a	n/a	7	[0, 0, 0]	-999	PAL1	0	R1276D
1161.414	0.005	1168795	REC_END	n/a	n/a	2	-999	n/a	n/a	n/a	n/a	7	[0, 0, 0]	-999	PAL1	0	R1276D
1161.419	5.429	1168800	RECALL_END	n/a	n/a	-999	-999	n/a	n/a	n/a	n/a	7	[0, 0, 0]	-999	PAL1	0	R1276D
1166.848	10.928	1174229	TRIAL	n/a	n/a	-999	-999	n/a	n/a	n/a	n/a	8	[0, 0, 0]	-999	PAL1	0	R1276D
1177.776	0.008	1185156	ENCODING_START	n/a	n/a	-999	-999	n/a	n/a	n/a	n/a	8	[0, 0, 0]	-999	PAL1	0	R1276D
1177.784	0.266	1185164	STUDY_ORIENT	n/a	n/a	1	1	LIP	ANT	ANT	LIP	8	[0, 0, 0]	-999	PAL1	0	R1276D
1178.05	0.534	1185430	STUDY_ORIENT_OFF	n/a	n/a	1	1	LIP	ANT	ANT	LIP	8	[0, 0, 0]	-999	PAL1	0	R1276D
1178.584	4.0	1185964	STUDY_PAIR	n/a	wordpools/wordpool_EN.txt	1	1	LIP	ANT	ANT	LIP	8	[0, 0, 0]	-999	PAL1	0	R1276D
1182.601	1.017	1189981	PAIR_OFF	n/a	n/a	1	1	LIP	ANT	ANT	LIP	8	[0, 0, 0]	-999	PAL1	0	R1276D
1183.618	0.267	1190998	STUDY_ORIENT	n/a	n/a	2	4	FLOOR	PIT	FLOOR	PIT	8	[0, 0, 0]	-999	PAL1	0	R1276D
1183.885	0.567	1191265	STUDY_ORIENT_OFF	n/a	n/a	2	4	FLOOR	PIT	FLOOR	PIT	8	[0, 0, 0]	-999	PAL1	0	R1276D
1184.452	4.0	1191832	STUDY_PAIR	n/a	wordpools/wordpool_EN.txt	2	4	FLOOR	PIT	FLOOR	PIT	8	[0, 0, 0]	-999	PAL1	0	R1276D
1188.469	1.017	1195848	PAIR_OFF	n/a	n/a	2	4	FLOOR	PIT	FLOOR	PIT	8	[0, 0, 0]	-999	PAL1	0	R1276D
1189.486	0.267	1196865	STUDY_ORIENT	n/a	n/a	3	3	BIRD	MAZE	BIRD	MAZE	8	[0, 0, 0]	-999	PAL1	0	R1276D
1189.753	0.582	1197132	STUDY_ORIENT_OFF	n/a	n/a	3	3	BIRD	MAZE	BIRD	MAZE	8	[0, 0, 0]	-999	PAL1	0	R1276D
1190.335	4.0	1197714	STUDY_PAIR	n/a	wordpools/wordpool_EN.txt	3	3	BIRD	MAZE	BIRD	MAZE	8	[0, 0, 0]	-999	PAL1	0	R1276D
1194.352	1.018	1201731	PAIR_OFF	n/a	n/a	3	3	BIRD	MAZE	BIRD	MAZE	8	[0, 0, 0]	-999	PAL1	0	R1276D
1195.37	0.267	1202749	STUDY_ORIENT	n/a	n/a	4	6	WEB	LEAF	WEB	LEAF	8	[0, 0, 0]	-999	PAL1	0	R1276D
1195.637	0.532	1203016	STUDY_ORIENT_OFF	n/a	n/a	4	6	WEB	LEAF	WEB	LEAF	8	[0, 0, 0]	-999	PAL1	0	R1276D
1196.169	4.0	1203548	STUDY_PAIR	n/a	wordpools/wordpool_EN.txt	4	6	WEB	LEAF	WEB	LEAF	8	[0, 0, 0]	-999	PAL1	0	R1276D
1200.17	1.017	1207549	PAIR_OFF	n/a	n/a	4	6	WEB	LEAF	WEB	LEAF	8	[0, 0, 0]	-999	PAL1	0	R1276D
1201.187	0.268	1208566	STUDY_ORIENT	n/a	n/a	5	5	BAG	BOAT	BOAT	BAG	8	[0, 0, 0]	-999	PAL1	0	R1276D
1201.455	0.732	1208834	STUDY_ORIENT_OFF	n/a	n/a	5	5	BAG	BOAT	BOAT	BAG	8	[0, 0, 0]	-999	PAL1	0	R1276D
1202.187	4.0	1209566	STUDY_PAIR	n/a	wordpools/wordpool_EN.txt	5	5	BAG	BOAT	BOAT	BAG	8	[0, 0, 0]	-999	PAL1	0	R1276D
1206.188	1.017	1213566	PAIR_OFF	n/a	n/a	5	5	BAG	BOAT	BOAT	BAG	8	[0, 0, 0]	-999	PAL1	0	R1276D
1207.205	0.267	1214583	STUDY_ORIENT	n/a	n/a	6	2	CROWN	SPONGE	CROWN	SPONGE	8	[0, 0, 0]	-999	PAL1	0	R1276D
1207.472	0.666	1214850	STUDY_ORIENT_OFF	n/a	n/a	6	2	CROWN	SPONGE	CROWN	SPONGE	8	[0, 0, 0]	-999	PAL1	0	R1276D
1208.138	4.0	1215516	STUDY_PAIR	n/a	wordpools/wordpool_EN.txt	6	2	CROWN	SPONGE	CROWN	SPONGE	8	[0, 0, 0]	-999	PAL1	0	R1276D
1212.139	1.0	1219517	PAIR_OFF	n/a	n/a	6	2	CROWN	SPONGE	CROWN	SPONGE	8	[0, 0, 0]	-999	PAL1	0	R1276D
1213.139	0.0	1220517	ENCODING_END	n/a	n/a	-999	-999	n/a	n/a	n/a	n/a	8	[0, 0, 0]	-999	PAL1	0	R1276D
1213.139	0.001	1220517	MATH_START	n/a	n/a	-999	-999	n/a	n/a	n/a	n/a	8	[0, 0, 0]	-999	PAL1	0	R1276D
1213.14	0.016	1220518	START	n/a	n/a	-999	-999	n/a	n/a	n/a	n/a	9	[-999, -999, -999]	-999	PAL1	0	R1276D
1213.156	4.452	1220534	PROB	4.427	n/a	-999	-999	n/a	n/a	n/a	n/a	9	[2, 4, 1]	7	PAL1	0	R1276D
1217.608	3.616	1224986	PROB	3.59	n/a	-999	-999	n/a	n/a	n/a	n/a	9	[5, 2, 9]	16	PAL1	0	R1276D
1221.224	5.619	1228602	PROB	5.591	n/a	-999	-999	n/a	n/a	n/a	n/a	9	[9, 3, 6]	18	PAL1	0	R1276D
1226.843	4.801	1234220	PROB	4.764	n/a	-999	-999	n/a	n/a	n/a	n/a	9	[7, 5, 9]	21	PAL1	0	R1276D
1231.644	4.371	1239021	PROB	4.371	n/a	-999	-999	n/a	n/a	n/a	n/a	9	[4, 6, 7]	17	PAL1	0	R1276D
1236.015	0.013	1243392	STOP	n/a	n/a	-999	-999	n/a	n/a	n/a	n/a	9	[-999, -999, -999]	-999	PAL1	0	R1276D
1236.028	0.0	1243405	MATH_END	n/a	n/a	-999	-999	n/a	n/a	n/a	n/a	8	[0, 0, 0]	-999	PAL1	0	R1276D
1236.028	0.015	1243405	RECALL_START	n/a	n/a	-999	-999	n/a	n/a	n/a	n/a	8	[0, 0, 0]	-999	PAL1	0	R1276D
1236.043	0.267	1243420	TEST_ORIENT	n/a	n/a	1	1	LIP	ANT	ANT	LIP	8	[0, 0, 0]	-999	PAL1	0	R1276D
1236.31	0.75	1243687	RETRIEVAL_ORIENT_OFF	n/a	n/a	-999	-999	n/a	n/a	n/a	n/a	8	[0, 0, 0]	-999	PAL1	0	R1276D
1237.06	4.0	1244437	TEST_PROBE	n/a	wordpools/wordpool_EN.txt	1	1	LIP	ANT	ANT	LIP	8	[0, 0, 0]	-999	PAL1	0	R1276D
1237.061	1.155	1244438	REC_START	n/a	n/a	1	-999	n/a	ANT	n/a	n/a	8	[0, 0, 0]	-999	PAL1	0	R1276D
1238.216	2.862	1245593	REC_EVENT	1.155	n/a	1	1	LIP	ANT	ANT	LIP	8	[0, 0, 0]	-999	PAL1	0	R1276D
1241.078	1.0	1248454	PROBE_OFF	n/a	n/a	1	-999	n/a	n/a	n/a	n/a	8	[0, 0, 0]	-999	PAL1	0	R1276D
1242.078	0.017	1249454	REC_END	n/a	n/a	1	-999	n/a	n/a	n/a	n/a	8	[0, 0, 0]	-999	PAL1	0	R1276D
1242.095	0.267	1249471	TEST_ORIENT	n/a	n/a	6	2	CROWN	SPONGE	CROWN	SPONGE	8	[0, 0, 0]	-999	PAL1	0	R1276D
1242.362	0.517	1249738	RETRIEVAL_ORIENT_OFF	n/a	n/a	1	-999	n/a	n/a	n/a	n/a	8	[0, 0, 0]	-999	PAL1	0	R1276D
1242.879	4.0	1250255	TEST_PROBE	n/a	wordpools/wordpool_EN.txt	6	2	CROWN	SPONGE	CROWN	SPONGE	8	[0, 0, 0]	-999	PAL1	0	R1276D
1242.88	1.108	1250256	REC_START	n/a	n/a	6	-999	n/a	SPONGE	n/a	n/a	8	[0, 0, 0]	-999	PAL1	0	R1276D
1243.988	2.908	1251364	REC_EVENT	1.108	n/a	6	2	CROWN	SPONGE	CROWN	SPONGE	8	[0, 0, 0]	-999	PAL1	0	R1276D
1246.896	1.0	1254272	PROBE_OFF	n/a	n/a	6	-999	n/a	n/a	n/a	n/a	8	[0, 0, 0]	-999	PAL1	0	R1276D
1247.896	0.017	1255272	REC_END	n/a	n/a	6	-999	n/a	n/a	n/a	n/a	8	[0, 0, 0]	-999	PAL1	0	R1276D
1247.913	0.266	1255289	TEST_ORIENT	n/a	n/a	3	3	BIRD	MAZE	BIRD	MAZE	8	[0, 0, 0]	-999	PAL1	0	R1276D
1248.179	0.651	1255555	RETRIEVAL_ORIENT_OFF	n/a	n/a	6	-999	n/a	n/a	n/a	n/a	8	[0, 0, 0]	-999	PAL1	0	R1276D
1248.83	4.0	1256206	TEST_PROBE	n/a	wordpools/wordpool_EN.txt	3	3	BIRD	MAZE	BIRD	MAZE	8	[0, 0, 0]	-999	PAL1	0	R1276D
1248.831	1.125	1256207	REC_START	n/a	n/a	3	-999	n/a	MAZE	n/a	n/a	8	[0, 0, 0]	-999	PAL1	0	R1276D
1249.956	2.892	1257332	REC_EVENT	1.125	n/a	3	3	BIRD	MAZE	BIRD	MAZE	8	[0, 0, 0]	-999	PAL1	0	R1276D
1252.848	1.0	1260224	PROBE_OFF	n/a	n/a	3	-999	n/a	n/a	n/a	n/a	8	[0, 0, 0]	-999	PAL1	0	R1276D
1253.848	0.016	1261224	REC_END	n/a	n/a	3	-999	n/a	n/a	n/a	n/a	8	[0, 0, 0]	-999	PAL1	0	R1276D
1253.864	0.266	1261240	TEST_ORIENT	n/a	n/a	2	4	FLOOR	PIT	FLOOR	PIT	8	[0, 0, 0]	-999	PAL1	0	R1276D
1254.13	0.535	1261506	RETRIEVAL_ORIENT_OFF	n/a	n/a	3	-999	n/a	n/a	n/a	n/a	8	[0, 0, 0]	-999	PAL1	0	R1276D
1254.665	4.0	1262041	TEST_PROBE	n/a	wordpools/wordpool_EN.txt	2	4	FLOOR	PIT	FLOOR	PIT	8	[0, 0, 0]	-999	PAL1	0	R1276D
1254.665	1.709	1262041	REC_START	n/a	n/a	2	-999	n/a	PIT	n/a	n/a	8	[0, 0, 0]	-999	PAL1	0	R1276D
1256.374	2.308	1263750	REC_EVENT	1.709	n/a	2	4	FLOOR	PIT	FLOOR	PIT	8	[0, 0, 0]	-999	PAL1	0	R1276D
1258.682	1.01	1266057	PROBE_OFF	n/a	n/a	2	-999	n/a	n/a	n/a	n/a	8	[0, 0, 0]	-999	PAL1	0	R1276D
1259.692	0.024	1267067	REC_END	n/a	n/a	2	-999	n/a	n/a	n/a	n/a	8	[0, 0, 0]	-999	PAL1	0	R1276D
1259.716	0.266	1267091	TEST_ORIENT	n/a	n/a	5	5	BAG	BOAT	BOAT	BAG	8	[0, 0, 0]	-999	PAL1	0	R1276D
1259.982	0.569	1267357	RETRIEVAL_ORIENT_OFF	n/a	n/a	2	-999	n/a	n/a	n/a	n/a	8	[0, 0, 0]	-999	PAL1	0	R1276D
1260.551	4.0	1267926	TEST_PROBE	n/a	wordpools/wordpool_EN.txt	5	5	BAG	BOAT	BOAT	BAG	8	[0, 0, 0]	-999	PAL1	0	R1276D
1260.552	1.928	1267927	REC_START	n/a	n/a	5	-999	n/a	BOAT	n/a	n/a	8	[0, 0, 0]	-999	PAL1	0	R1276D
1262.48	2.086	1269855	REC_EVENT	1.928	n/a	5	5	BAG	BOAT	BOAT	BAG	8	[0, 0, 0]	-999	PAL1	0	R1276D
1264.566	1.0	1271941	PROBE_OFF	n/a	n/a	5	-999	n/a	n/a	n/a	n/a	8	[0, 0, 0]	-999	PAL1	0	R1276D
1265.566	0.017	1272941	REC_END	n/a	n/a	5	-999	n/a	n/a	n/a	n/a	8	[0, 0, 0]	-999	PAL1	0	R1276D
1265.583	0.267	1272958	TEST_ORIENT	n/a	n/a	4	6	WEB	LEAF	WEB	LEAF	8	[0, 0, 0]	-999	PAL1	0	R1276D
1265.85	0.733	1273225	RETRIEVAL_ORIENT_OFF	n/a	n/a	5	-999	n/a	n/a	n/a	n/a	8	[0, 0, 0]	-999	PAL1	0	R1276D
1266.583	4.0	1273958	TEST_PROBE	n/a	wordpools/wordpool_EN.txt	4	6	WEB	LEAF	WEB	LEAF	8	[0, 0, 0]	-999	PAL1	0	R1276D
1266.584	1.207	1273959	REC_START	n/a	n/a	4	-999	n/a	LEAF	n/a	n/a	8	[0, 0, 0]	-999	PAL1	0	R1276D
1267.791	2.81	1275166	REC_EVENT	1.207	n/a	4	6	WEB	LEAF	WEB	LEAF	8	[0, 0, 0]	-999	PAL1	0	R1276D
1270.601	1.0	1277976	PROBE_OFF	n/a	n/a	4	-999	n/a	n/a	n/a	n/a	8	[0, 0, 0]	-999	PAL1	0	R1276D
1271.601	0.004	1278976	REC_END	n/a	n/a	4	-999	n/a	n/a	n/a	n/a	8	[0, 0, 0]	-999	PAL1	0	R1276D
1271.605	7.131	1278980	RECALL_END	n/a	n/a	-999	-999	n/a	n/a	n/a	n/a	8	[0, 0, 0]	-999	PAL1	0	R1276D
1278.736	10.928	1286110	TRIAL	n/a	n/a	-999	-999	n/a	n/a	n/a	n/a	9	[0, 0, 0]	-999	PAL1	0	R1276D
1289.664	0.007	1297038	ENCODING_START	n/a	n/a	-999	-999	n/a	n/a	n/a	n/a	9	[0, 0, 0]	-999	PAL1	0	R1276D
1289.671	0.267	1297045	STUDY_ORIENT	n/a	n/a	1	5	VASE	BAND	BAND	VASE	9	[0, 0, 0]	-999	PAL1	0	R1276D
1289.938	0.75	1297312	STUDY_ORIENT_OFF	n/a	n/a	1	5	VASE	BAND	BAND	VASE	9	[0, 0, 0]	-999	PAL1	0	R1276D
1290.688	4.0	1298062	STUDY_PAIR	n/a	wordpools/wordpool_EN.txt	1	5	VASE	BAND	BAND	VASE	9	[0, 0, 0]	-999	PAL1	0	R1276D
1294.705	1.017	1302079	PAIR_OFF	n/a	n/a	1	5	VASE	BAND	BAND	VASE	9	[0, 0, 0]	-999	PAL1	0	R1276D
1295.722	0.267	1303095	STUDY_ORIENT	n/a	n/a	2	2	CHAIR	MOOSE	CHAIR	MOOSE	9	[0, 0, 0]	-999	PAL1	0	R1276D
1295.989	0.65	1303362	STUDY_ORIENT_OFF	n/a	n/a	2	2	CHAIR	MOOSE	CHAIR	MOOSE	9	[0, 0, 0]	-999	PAL1	0	R1276D
1296.639	4.0	1304012	STUDY_PAIR	n/a	wordpools/wordpool_EN.txt	2	2	CHAIR	MOOSE	CHAIR	MOOSE	9	[0, 0, 0]	-999	PAL1	0	R1276D
1300.656	1.017	1308029	PAIR_OFF	n/a	n/a	2	2	CHAIR	MOOSE	CHAIR	MOOSE	9	[0, 0, 0]	-999	PAL1	0	R1276D
1301.673	0.267	1309046	STUDY_ORIENT	n/a	n/a	3	1	DESK	COIN	DESK	COIN	9	[0, 0, 0]	-999	PAL1	0	R1276D
1301.94	0.617	1309313	STUDY_ORIENT_OFF	n/a	n/a	3	1	DESK	COIN	DESK	COIN	9	[0, 0, 0]	-999	PAL1	0	R1276D
1302.557	4.0	1309930	STUDY_PAIR	n/a	wordpools/wordpool_EN.txt	3	1	DESK	COIN	DESK	COIN	9	[0, 0, 0]	-999	PAL1	0	R1276D
1306.574	1.017	1313947	PAIR_OFF	n/a	n/a	3	1	DESK	COIN	DESK	COIN	9	[0, 0, 0]	-999	PAL1	0	R1276D
1307.591	0.267	1314964	STUDY_ORIENT	n/a	n/a	4	4	HORSE	FOX	FOX	HORSE	9	[0, 0, 0]	-999	PAL1	0	R1276D
1307.858	0.766	1315231	STUDY_ORIENT_OFF	n/a	n/a	4	4	HORSE	FOX	FOX	HORSE	9	[0, 0, 0]	-999	PAL1	0	R1276D
1308.624	4.0	1315997	STUDY_PAIR	n/a	wordpools/wordpool_EN.txt	4	4	HORSE	FOX	FOX	HORSE	9	[0, 0, 0]	-999	PAL1	0	R1276D
1312.642	1.017	1320015	PAIR_OFF	n/a	n/a	4	4	HORSE	FOX	FOX	HORSE	9	[0, 0, 0]	-999	PAL1	0	R1276D
1313.659	0.267	1321031	STUDY_ORIENT	n/a	n/a	5	3	TOY	FUDGE	TOY	FUDGE	9	[0, 0, 0]	-999	PAL1	0	R1276D
1313.926	0.7	1321298	STUDY_ORIENT_OFF	n/a	n/a	5	3	TOY	FUDGE	TOY	FUDGE	9	[0, 0, 0]	-999	PAL1	0	R1276D
1314.626	4.0	1321998	STUDY_PAIR	n/a	wordpools/wordpool_EN.txt	5	3	TOY	FUDGE	TOY	FUDGE	9	[0, 0, 0]	-999	PAL1	0	R1276D
1318.643	1.017	1326015	PAIR_OFF	n/a	n/a	5	3	TOY	FUDGE	TOY	FUDGE	9	[0, 0, 0]	-999	PAL1	0	R1276D
1319.66	0.267	1327032	STUDY_ORIENT	n/a	n/a	6	6	STICK	POLE	BRICK	STICK	9	[0, 0, 0]	-999	PAL1	0	R1276D
1319.927	0.583	1327299	STUDY_ORIENT_OFF	n/a	n/a	6	6	STICK	POLE	BRICK	STICK	9	[0, 0, 0]	-999	PAL1	0	R1276D
1320.51	4.0	1327882	STUDY_PAIR	n/a	wordpools/wordpool_EN.txt	6	6	STICK	POLE	BRICK	STICK	9	[0, 0, 0]	-999	PAL1	0	R1276D
1324.527	1.001	1331899	PAIR_OFF	n/a	n/a	6	6	STICK	POLE	BRICK	STICK	9	[0, 0, 0]	-999	PAL1	0	R1276D
1325.528	0.0	1332900	ENCODING_END	n/a	n/a	-999	-999	n/a	n/a	n/a	n/a	9	[0, 0, 0]	-999	PAL1	0	R1276D
1325.528	0.0	1332900	MATH_START	n/a	n/a	-999	-999	n/a	n/a	n/a	n/a	9	[0, 0, 0]	-999	PAL1	0	R1276D
1325.528	0.016	1332900	START	n/a	n/a	-999	-999	n/a	n/a	n/a	n/a	10	[-999, -999, -999]	-999	PAL1	0	R1276D
1325.544	3.451	1332916	PROB	3.423	n/a	-999	-999	n/a	n/a	n/a	n/a	10	[5, 4, 7]	16	PAL1	0	R1276D
1328.995	2.384	1336367	PROB	2.355	n/a	-999	-999	n/a	n/a	n/a	n/a	10	[2, 1, 6]	9	PAL1	0	R1276D
1331.379	3.05	1338750	PROB	3.028	n/a	-999	-999	n/a	n/a	n/a	n/a	10	[4, 5, 1]	10	PAL1	0	R1276D
1334.429	2.417	1341800	PROB	2.394	n/a	-999	-999	n/a	n/a	n/a	n/a	10	[2, 2, 2]	6	PAL1	0	R1276D
1336.846	3.134	1344217	PROB	3.112	n/a	-999	-999	n/a	n/a	n/a	n/a	10	[9, 5, 5]	19	PAL1	0	R1276D
1339.98	2.817	1347351	PROB	2.795	n/a	-999	-999	n/a	n/a	n/a	n/a	10	[4, 1, 6]	11	PAL1	0	R1276D
1342.797	3.066	1350168	PROB	3.066	n/a	-999	-999	n/a	n/a	n/a	n/a	10	[6, 1, 5]	12	PAL1	0	R1276D
1345.863	0.018	1353234	STOP	n/a	n/a	-999	-999	n/a	n/a	n/a	n/a	10	[-999, -999, -999]	-999	PAL1	0	R1276D
1345.881	0.001	1353252	MATH_END	n/a	n/a	-999	-999	n/a	n/a	n/a	n/a	9	[0, 0, 0]	-999	PAL1	0	R1276D
1345.882	0.016	1353253	RECALL_START	n/a	n/a	-999	-999	n/a	n/a	n/a	n/a	9	[0, 0, 0]	-999	PAL1	0	R1276D
1345.898	0.266	1353269	TEST_ORIENT	n/a	n/a	3	1	DESK	COIN	DESK	COIN	9	[0, 0, 0]	-999	PAL1	0	R1276D
1346.164	0.701	1353535	RETRIEVAL_ORIENT_OFF	n/a	n/a	-999	-999	n/a	n/a	n/a	n/a	9	[0, 0, 0]	-999	PAL1	0	R1276D
1346.865	4.0	1354236	TEST_PROBE	n/a	wordpools/wordpool_EN.txt	3	1	DESK	COIN	DESK	COIN	9	[0, 0, 0]	-999	PAL1	0	R1276D
1346.865	1.32	1354236	REC_START	n/a	n/a	3	-999	n/a	COIN	n/a	n/a	9	[0, 0, 0]	-999	PAL1	0	R1276D
1348.185	2.697	1355556	REC_EVENT	1.32	n/a	3	1	DESK	COIN	DESK	COIN	9	[0, 0, 0]	-999	PAL1	0	R1276D
1350.882	1.0	1358252	PROBE_OFF	n/a	n/a	3	-999	n/a	n/a	n/a	n/a	9	[0, 0, 0]	-999	PAL1	0	R1276D
1351.882	0.017	1359252	REC_END	n/a	n/a	3	-999	n/a	n/a	n/a	n/a	9	[0, 0, 0]	-999	PAL1	0	R1276D
1351.899	0.266	1359269	TEST_ORIENT	n/a	n/a	2	2	CHAIR	MOOSE	CHAIR	MOOSE	9	[0, 0, 0]	-999	PAL1	0	R1276D
1352.165	0.518	1359535	RETRIEVAL_ORIENT_OFF	n/a	n/a	3	-999	n/a	n/a	n/a	n/a	9	[0, 0, 0]	-999	PAL1	0	R1276D
1352.683	4.0	1360053	TEST_PROBE	n/a	wordpools/wordpool_EN.txt	2	2	CHAIR	MOOSE	CHAIR	MOOSE	9	[0, 0, 0]	-999	PAL1	0	R1276D
1352.683	1.369	1360053	REC_START	n/a	n/a	2	-999	n/a	MOOSE	n/a	n/a	9	[0, 0, 0]	-999	PAL1	0	R1276D
1354.052	2.648	1361422	REC_EVENT	1.369	n/a	2	2	CHAIR	MOOSE	CHAIR	MOOSE	9	[0, 0, 0]	-999	PAL1	0	R1276D
1356.7	1.0	1364070	PROBE_OFF	n/a	n/a	2	-999	n/a	n/a	n/a	n/a	9	[0, 0, 0]	-999	PAL1	0	R1276D
1357.7	0.017	1365070	REC_END	n/a	n/a	2	-999	n/a	n/a	n/a	n/a	9	[0, 0, 0]	-999	PAL1	0	R1276D
1357.717	0.267	1365087	TEST_ORIENT	n/a	n/a	5	3	TOY	FUDGE	TOY	FUDGE	9	[0, 0, 0]	-999	PAL1	0	R1276D
1357.984	0.633	1365354	RETRIEVAL_ORIENT_OFF	n/a	n/a	2	-999	n/a	n/a	n/a	n/a	9	[0, 0, 0]	-999	PAL1	0	R1276D
1358.617	4.0	1365987	TEST_PROBE	n/a	wordpools/wordpool_EN.txt	5	3	TOY	FUDGE	TOY	FUDGE	9	[0, 0, 0]	-999	PAL1	0	R1276D
1358.618	1.268	1365988	REC_START	n/a	n/a	5	-999	n/a	FUDGE	n/a	n/a	9	[0, 0, 0]	-999	PAL1	0	R1276D
1359.886	2.748	1367256	REC_EVENT	1.268	n/a	5	3	TOY	FUDGE	TOY	FUDGE	9	[0, 0, 0]	-999	PAL1	0	R1276D
1362.634	1.001	1370004	PROBE_OFF	n/a	n/a	5	-999	n/a	n/a	n/a	n/a	9	[0, 0, 0]	-999	PAL1	0	R1276D
1363.635	0.016	1371005	REC_END	n/a	n/a	5	-999	n/a	n/a	n/a	n/a	9	[0, 0, 0]	-999	PAL1	0	R1276D
1363.651	0.267	1371021	TEST_ORIENT	n/a	n/a	4	4	HORSE	FOX	FOX	HORSE	9	[0, 0, 0]	-999	PAL1	0	R1276D
1363.918	0.683	1371288	RETRIEVAL_ORIENT_OFF	n/a	n/a	5	-999	n/a	n/a	n/a	n/a	9	[0, 0, 0]	-999	PAL1	0	R1276D
1364.601	4.0	1371971	TEST_PROBE	n/a	wordpools/wordpool_EN.txt	4	4	HORSE	FOX	FOX	HORSE	9	[0, 0, 0]	-999	PAL1	0	R1276D
1364.602	1.173	1371972	REC_START	n/a	n/a	4	-999	n/a	FOX	n/a	n/a	9	[0, 0, 0]	-999	PAL1	0	R1276D
1365.775	2.844	1373145	REC_EVENT	1.173	n/a	4	4	HORSE	FOX	FOX	HORSE	9	[0, 0, 0]	-999	PAL1	0	R1276D
1368.619	1.01	1375988	PROBE_OFF	n/a	n/a	4	-999	n/a	n/a	n/a	n/a	9	[0, 0, 0]	-999	PAL1	0	R1276D
1369.629	0.023	1376998	REC_END	n/a	n/a	4	-999	n/a	n/a	n/a	n/a	9	[0, 0, 0]	-999	PAL1	0	R1276D
1369.652	0.267	1377021	TEST_ORIENT	n/a	n/a	1	5	VASE	BAND	BAND	VASE	9	[0, 0, 0]	-999	PAL1	0	R1276D
1369.919	0.7	1377288	RETRIEVAL_ORIENT_OFF	n/a	n/a	4	-999	n/a	n/a	n/a	n/a	9	[0, 0, 0]	-999	PAL1	0	R1276D
1370.619	4.0	1377988	TEST_PROBE	n/a	wordpools/wordpool_EN.txt	1	5	VASE	BAND	BAND	VASE	9	[0, 0, 0]	-999	PAL1	0	R1276D
1370.62	1.32	1377989	REC_START	n/a	n/a	1	-999	n/a	BAND	n/a	n/a	9	[0, 0, 0]	-999	PAL1	0	R1276D
1371.94	2.697	1379309	REC_EVENT	1.32	n/a	1	5	VASE	BAND	BAND	VASE	9	[0, 0, 0]	-999	PAL1	0	R1276D
1374.637	1.0	1382006	PROBE_OFF	n/a	n/a	1	-999	n/a	n/a	n/a	n/a	9	[0, 0, 0]	-999	PAL1	0	R1276D
1375.637	0.017	1383006	REC_END	n/a	n/a	1	-999	n/a	n/a	n/a	n/a	9	[0, 0, 0]	-999	PAL1	0	R1276D
1375.654	0.266	1383023	TEST_ORIENT	n/a	n/a	6	6	STICK	POLE	BRICK	STICK	9	[0, 0, 0]	-999	PAL1	0	R1276D
1375.92	0.717	1383289	RETRIEVAL_ORIENT_OFF	n/a	n/a	1	-999	n/a	n/a	n/a	n/a	9	[0, 0, 0]	-999	PAL1	0	R1276D
1376.637	4.0	1384006	TEST_PROBE	n/a	wordpools/wordpool_EN.txt	6	6	STICK	POLE	BRICK	STICK	9	[0, 0, 0]	-999	PAL1	0	R1276D
1376.637	3.666	1384006	REC_START	n/a	n/a	6	-999	n/a	POLE	n/a	n/a	9	[0, 0, 0]	-999	PAL1	0	R1276D
1380.303	0.351	1387672	REC_EVENT	3.666	n/a	6	6	STICK	POLE	BRICK	STICK	9	[0, 0, 0]	-999	PAL1	0	R1276D
1380.654	1.0	1388023	PROBE_OFF	n/a	n/a	6	-999	n/a	n/a	n/a	n/a	9	[0, 0, 0]	-999	PAL1	0	R1276D
1381.654	0.01	1389023	REC_END	n/a	n/a	6	-999	n/a	n/a	n/a	n/a	9	[0, 0, 0]	-999	PAL1	0	R1276D
1381.664	13.06	1389033	RECALL_END	n/a	n/a	-999	-999	n/a	n/a	n/a	n/a	9	[0, 0, 0]	-999	PAL1	0	R1276D
1394.724	10.929	1402092	TRIAL	n/a	n/a	-999	-999	n/a	n/a	n/a	n/a	10	[0, 0, 0]	-999	PAL1	0	R1276D
1405.653	0.006	1413020	ENCODING_START	n/a	n/a	-999	-999	n/a	n/a	n/a	n/a	10	[0, 0, 0]	-999	PAL1	0	R1276D
1405.659	0.267	1413026	STUDY_ORIENT	n/a	n/a	1	1	APE	TRASH	TRASH	APE	10	[0, 0, 0]	-999	PAL1	0	R1276D
1405.926	0.583	1413293	STUDY_ORIENT_OFF	n/a	n/a	1	1	APE	TRASH	TRASH	APE	10	[0, 0, 0]	-999	PAL1	0	R1276D
1406.509	4.0	1413876	STUDY_PAIR	n/a	wordpools/wordpool_EN.txt	1	1	APE	TRASH	TRASH	APE	10	[0, 0, 0]	-999	PAL1	0	R1276D
1410.527	1.016	1417894	PAIR_OFF	n/a	n/a	1	1	APE	TRASH	TRASH	APE	10	[0, 0, 0]	-999	PAL1	0	R1276D
1411.543	0.267	1418910	STUDY_ORIENT	n/a	n/a	2	4	GRASS	SNAIL	SNAIL	GRASS	10	[0, 0, 0]	-999	PAL1	0	R1276D
1411.81	0.7	1419177	STUDY_ORIENT_OFF	n/a	n/a	2	4	GRASS	SNAIL	SNAIL	GRASS	10	[0, 0, 0]	-999	PAL1	0	R1276D
1412.51	4.0	1419877	STUDY_PAIR	n/a	wordpools/wordpool_EN.txt	2	4	GRASS	SNAIL	SNAIL	GRASS	10	[0, 0, 0]	-999	PAL1	0	R1276D
1416.528	1.016	1423895	PAIR_OFF	n/a	n/a	2	4	GRASS	SNAIL	SNAIL	GRASS	10	[0, 0, 0]	-999	PAL1	0	R1276D
1417.544	0.267	1424911	STUDY_ORIENT	n/a	n/a	3	3	PEN	SUIT	SUIT	PEN	10	[0, 0, 0]	-999	PAL1	0	R1276D
1417.811	0.684	1425178	STUDY_ORIENT_OFF	n/a	n/a	3	3	PEN	SUIT	SUIT	PEN	10	[0, 0, 0]	-999	PAL1	0	R1276D
1418.495	4.0	1425862	STUDY_PAIR	n/a	wordpools/wordpool_EN.txt	3	3	PEN	SUIT	SUIT	PEN	10	[0, 0, 0]	-999	PAL1	0	R1276D
1422.512	1.017	1429878	PAIR_OFF	n/a	n/a	3	3	PEN	SUIT	SUIT	PEN	10	[0, 0, 0]	-999	PAL1	0	R1276D
1423.529	0.267	1430895	STUDY_ORIENT	n/a	n/a	4	2	TREE	BRANCH	BRANCH	TREE	10	[0, 0, 0]	-999	PAL1	0	R1276D
1423.796	0.683	1431162	STUDY_ORIENT_OFF	n/a	n/a	4	2	TREE	BRANCH	BRANCH	TREE	10	[0, 0, 0]	-999	PAL1	0	R1276D
1424.479	4.0	1431845	STUDY_PAIR	n/a	wordpools/wordpool_EN.txt	4	2	TREE	BRANCH	BRANCH	TREE	10	[0, 0, 0]	-999	PAL1	0	R1276D
1428.497	1.016	1435863	PAIR_OFF	n/a	n/a	4	2	TREE	BRANCH	BRANCH	TREE	10	[0, 0, 0]	-999	PAL1	0	R1276D
1429.513	0.267	1436879	STUDY_ORIENT	n/a	n/a	5	5	FRUIT	TRAY	FRUIT	TRAY	10	[0, 0, 0]	-999	PAL1	0	R1276D
1429.78	0.566	1437146	STUDY_ORIENT_OFF	n/a	n/a	5	5	FRUIT	TRAY	FRUIT	TRAY	10	[0, 0, 0]	-999	PAL1	0	R1276D
1430.346	4.0	1437712	STUDY_PAIR	n/a	wordpools/wordpool_EN.txt	5	5	FRUIT	TRAY	FRUIT	TRAY	10	[0, 0, 0]	-999	PAL1	0	R1276D
1434.364	1.017	1441730	PAIR_OFF	n/a	n/a	5	5	FRUIT	TRAY	FRUIT	TRAY	10	[0, 0, 0]	-999	PAL1	0	R1276D
1435.381	0.267	1442747	STUDY_ORIENT	n/a	n/a	6	6	STAIR	PEA	PEA	STAIR	10	[0, 0, 0]	-999	PAL1	0	R1276D
1435.648	0.75	1443014	STUDY_ORIENT_OFF	n/a	n/a	6	6	STAIR	PEA	PEA	STAIR	10	[0, 0, 0]	-999	PAL1	0	R1276D
1436.398	4.0	1443764	STUDY_PAIR	n/a	wordpools/wordpool_EN.txt	6	6	STAIR	PEA	PEA	STAIR	10	[0, 0, 0]	-999	PAL1	0	R1276D
1440.415	1.0	1447780	PAIR_OFF	n/a	n/a	6	6	STAIR	PEA	PEA	STAIR	10	[0, 0, 0]	-999	PAL1	0	R1276D
1441.415	0.0	1448780	ENCODING_END	n/a	n/a	-999	-999	n/a	n/a	n/a	n/a	10	[0, 0, 0]	-999	PAL1	0	R1276D
1441.415	0.0	1448780	MATH_START	n/a	n/a	-999	-999	n/a	n/a	n/a	n/a	10	[0, 0, 0]	-999	PAL1	0	R1276D
1441.415	0.017	1448780	START	n/a	n/a	-999	-999	n/a	n/a	n/a	n/a	11	[-999, -999, -999]	-999	PAL1	0	R1276D
1441.432	2.65	1448797	PROB	2.622	n/a	-999	-999	n/a	n/a	n/a	n/a	11	[1, 5, 5]	11	PAL1	0	R1276D
1444.082	3.951	1451447	PROB	3.917	n/a	-999	-999	n/a	n/a	n/a	n/a	11	[4, 2, 3]	9	PAL1	0	R1276D
1448.033	2.283	1455398	PROB	2.26	n/a	-999	-999	n/a	n/a	n/a	n/a	11	[4, 4, 4]	12	PAL1	0	R1276D
1450.316	3.219	1457681	PROB	3.195	n/a	-999	-999	n/a	n/a	n/a	n/a	11	[5, 1, 2]	8	PAL1	0	R1276D
1453.535	6.417	1460900	PROB	6.392	n/a	-999	-999	n/a	n/a	n/a	n/a	11	[9, 8, 6]	23	PAL1	0	R1276D
1459.952	4.679	1467316	PROB	4.679	n/a	-999	-999	n/a	n/a	n/a	n/a	11	[8, 6, 3]	17	PAL1	0	R1276D
1464.631	0.005	1471995	STOP	n/a	n/a	-999	-999	n/a	n/a	n/a	n/a	11	[-999, -999, -999]	-999	PAL1	0	R1276D
1464.636	0.0	1472000	MATH_END	n/a	n/a	-999	-999	n/a	n/a	n/a	n/a	10	[0, 0, 0]	-999	PAL1	0	R1276D
1464.636	0.017	1472000	RECALL_START	n/a	n/a	-999	-999	n/a	n/a	n/a	n/a	10	[0, 0, 0]	-999	PAL1	0	R1276D
1464.653	0.267	1472017	TEST_ORIENT	n/a	n/a	1	1	APE	TRASH	TRASH	APE	10	[0, 0, 0]	-999	PAL1	0	R1276D
1464.92	0.717	1472284	RETRIEVAL_ORIENT_OFF	n/a	n/a	-999	-999	n/a	n/a	n/a	n/a	10	[0, 0, 0]	-999	PAL1	0	R1276D
1465.637	4.0	1473001	TEST_PROBE	n/a	wordpools/wordpool_EN.txt	1	1	APE	TRASH	TRASH	APE	10	[0, 0, 0]	-999	PAL1	0	R1276D
1465.637	0.992	1473001	REC_START	n/a	n/a	1	-999	n/a	TRASH	n/a	n/a	10	[0, 0, 0]	-999	PAL1	0	R1276D
1466.629	3.025	1473993	REC_EVENT	0.992	n/a	1	1	APE	TRASH	TRASH	APE	10	[0, 0, 0]	-999	PAL1	0	R1276D
1469.654	1.001	1477018	PROBE_OFF	n/a	n/a	1	-999	n/a	n/a	n/a	n/a	10	[0, 0, 0]	-999	PAL1	0	R1276D
1470.655	0.016	1478019	REC_END	n/a	n/a	1	-999	n/a	n/a	n/a	n/a	10	[0, 0, 0]	-999	PAL1	0	R1276D
1470.671	0.267	1478035	TEST_ORIENT	n/a	n/a	4	2	TREE	BRANCH	BRANCH	TREE	10	[0, 0, 0]	-999	PAL1	0	R1276D
1470.938	0.716	1478302	RETRIEVAL_ORIENT_OFF	n/a	n/a	1	-999	n/a	n/a	n/a	n/a	10	[0, 0, 0]	-999	PAL1	0	R1276D
1471.654	4.0	1479018	TEST_PROBE	n/a	wordpools/wordpool_EN.txt	4	2	TREE	BRANCH	BRANCH	TREE	10	[0, 0, 0]	-999	PAL1	0	R1276D
1471.655	1.988	1479019	REC_START	n/a	n/a	4	-999	n/a	BRANCH	n/a	n/a	10	[0, 0, 0]	-999	PAL1	0	R1276D
1473.643	2.012	1481007	REC_EVENT	1.988	n/a	4	2	TREE	BRANCH	BRANCH	TREE	10	[0, 0, 0]	-999	PAL1	0	R1276D
1475.655	1.0	1483019	PROBE_OFF	n/a	n/a	4	-999	n/a	n/a	n/a	n/a	10	[0, 0, 0]	-999	PAL1	0	R1276D
1476.655	0.017	1484018	REC_END	n/a	n/a	4	-999	n/a	n/a	n/a	n/a	10	[0, 0, 0]	-999	PAL1	0	R1276D
1476.672	0.267	1484035	TEST_ORIENT	n/a	n/a	3	3	PEN	SUIT	SUIT	PEN	10	[0, 0, 0]	-999	PAL1	0	R1276D
1476.939	0.75	1484302	RETRIEVAL_ORIENT_OFF	n/a	n/a	4	-999	n/a	n/a	n/a	n/a	10	[0, 0, 0]	-999	PAL1	0	R1276D
1477.689	4.0	1485052	TEST_PROBE	n/a	wordpools/wordpool_EN.txt	3	3	PEN	SUIT	SUIT	PEN	10	[0, 0, 0]	-999	PAL1	0	R1276D
1477.689	0.987	1485052	REC_START	n/a	n/a	3	-999	n/a	SUIT	n/a	n/a	10	[0, 0, 0]	-999	PAL1	0	R1276D
1478.676	3.03	1486039	REC_EVENT	0.987	n/a	3	3	PEN	SUIT	SUIT	PEN	10	[0, 0, 0]	-999	PAL1	0	R1276D
1481.706	1.001	1489069	PROBE_OFF	n/a	n/a	3	-999	n/a	n/a	n/a	n/a	10	[0, 0, 0]	-999	PAL1	0	R1276D
1482.707	0.016	1490070	REC_END	n/a	n/a	3	-999	n/a	n/a	n/a	n/a	10	[0, 0, 0]	-999	PAL1	0	R1276D
1482.723	0.267	1490086	TEST_ORIENT	n/a	n/a	2	4	GRASS	SNAIL	SNAIL	GRASS	10	[0, 0, 0]	-999	PAL1	0	R1276D
1482.99	0.533	1490353	RETRIEVAL_ORIENT_OFF	n/a	n/a	3	-999	n/a	n/a	n/a	n/a	10	[0, 0, 0]	-999	PAL1	0	R1276D
1483.523	4.0	1490886	TEST_PROBE	n/a	wordpools/wordpool_EN.txt	2	4	GRASS	SNAIL	SNAIL	GRASS	10	[0, 0, 0]	-999	PAL1	0	R1276D
1483.524	0.72	1490887	REC_START	n/a	n/a	2	-999	n/a	SNAIL	n/a	n/a	10	[0, 0, 0]	-999	PAL1	0	R1276D
1484.244	3.28	1491607	REC_EVENT	0.72	n/a	2	4	GRASS	SNAIL	SNAIL	GRASS	10	[0, 0, 0]	-999	PAL1	0	R1276D
1487.524	1.0	1494887	PROBE_OFF	n/a	n/a	2	-999	n/a	n/a	n/a	n/a	10	[0, 0, 0]	-999	PAL1	0	R1276D
1488.524	0.017	1495887	REC_END	n/a	n/a	2	-999	n/a	n/a	n/a	n/a	10	[0, 0, 0]	-999	PAL1	0	R1276D
1488.541	0.267	1495904	TEST_ORIENT	n/a	n/a	5	5	FRUIT	TRAY	FRUIT	TRAY	10	[0, 0, 0]	-999	PAL1	0	R1276D
1488.808	0.566	1496171	RETRIEVAL_ORIENT_OFF	n/a	n/a	2	-999	n/a	n/a	n/a	n/a	10	[0, 0, 0]	-999	PAL1	0	R1276D
1489.374	4.0	1496737	TEST_PROBE	n/a	wordpools/wordpool_EN.txt	5	5	FRUIT	TRAY	FRUIT	TRAY	10	[0, 0, 0]	-999	PAL1	0	R1276D
1489.375	1.607	1496738	REC_START	n/a	n/a	5	-999	n/a	TRAY	n/a	n/a	10	[0, 0, 0]	-999	PAL1	0	R1276D
1490.982	2.41	1498345	REC_EVENT	1.607	n/a	5	5	FRUIT	TRAY	FRUIT	TRAY	10	[0, 0, 0]	-999	PAL1	0	R1276D
1493.392	1.0	1500755	PROBE_OFF	n/a	n/a	5	-999	n/a	n/a	n/a	n/a	10	[0, 0, 0]	-999	PAL1	0	R1276D
1494.392	0.017	1501755	REC_END	n/a	n/a	5	-999	n/a	n/a	n/a	n/a	10	[0, 0, 0]	-999	PAL1	0	R1276D
1494.409	0.266	1501772	TEST_ORIENT	n/a	n/a	6	6	STAIR	PEA	PEA	STAIR	10	[0, 0, 0]	-999	PAL1	0	R1276D
1494.675	0.717	1502038	RETRIEVAL_ORIENT_OFF	n/a	n/a	5	-999	n/a	n/a	n/a	n/a	10	[0, 0, 0]	-999	PAL1	0	R1276D
1495.392	4.0	1502754	TEST_PROBE	n/a	wordpools/wordpool_EN.txt	6	6	STAIR	PEA	PEA	STAIR	10	[0, 0, 0]	-999	PAL1	0	R1276D
1495.393	1.014	1502755	REC_START	n/a	n/a	6	-999	n/a	PEA	n/a	n/a	10	[0, 0, 0]	-999	PAL1	0	R1276D
1496.407	3.003	1503769	REC_EVENT	1.014	n/a	6	6	STAIR	PEA	PEA	STAIR	10	[0, 0, 0]	-999	PAL1	0	R1276D
1499.41	1.0	1506772	PROBE_OFF	n/a	n/a	6	-999	n/a	n/a	n/a	n/a	10	[0, 0, 0]	-999	PAL1	0	R1276D
1500.41	0.009	1507772	REC_END	n/a	n/a	6	-999	n/a	n/a	n/a	n/a	10	[0, 0, 0]	-999	PAL1	0	R1276D
1500.419	6.342	1507781	RECALL_END	n/a	n/a	-999	-999	n/a	n/a	n/a	n/a	10	[0, 0, 0]	-999	PAL1	0	R1276D
1506.761	10.929	1514123	TRIAL	n/a	n/a	-999	-999	n/a	n/a	n/a	n/a	11	[0, 0, 0]	-999	PAL1	0	R1276D
1517.69	0.006	1525051	ENCODING_START	n/a	n/a	-999	-999	n/a	n/a	n/a	n/a	11	[0, 0, 0]	-999	PAL1	0	R1276D
1517.696	0.267	1525057	STUDY_ORIENT	n/a	n/a	1	5	TOE	TANK	TANK	TOE	11	[0, 0, 0]	-999	PAL1	0	R1276D
1517.963	0.6	1525324	STUDY_ORIENT_OFF	n/a	n/a	1	5	TOE	TANK	TANK	TOE	11	[0, 0, 0]	-999	PAL1	0	R1276D
1518.563	4.0	1525924	STUDY_PAIR	n/a	wordpools/wordpool_EN.txt	1	5	TOE	TANK	TANK	TOE	11	[0, 0, 0]	-999	PAL1	0	R1276D
1522.581	1.016	1529942	PAIR_OFF	n/a	n/a	1	5	TOE	TANK	TANK	TOE	11	[0, 0, 0]	-999	PAL1	0	R1276D
1523.597	0.267	1530958	STUDY_ORIENT	n/a	n/a	2	6	SEA	COW	PIG	SEA	11	[0, 0, 0]	-999	PAL1	0	R1276D
1523.864	0.534	1531225	STUDY_ORIENT_OFF	n/a	n/a	2	6	SEA	COW	PIG	SEA	11	[0, 0, 0]	-999	PAL1	0	R1276D
1524.398	4.0	1531759	STUDY_PAIR	n/a	wordpools/wordpool_EN.txt	2	6	SEA	COW	PIG	SEA	11	[0, 0, 0]	-999	PAL1	0	R1276D
1528.415	1.017	1535776	PAIR_OFF	n/a	n/a	2	6	SEA	COW	PIG	SEA	11	[0, 0, 0]	-999	PAL1	0	R1276D
1529.432	0.267	1536793	STUDY_ORIENT	n/a	n/a	3	1	DRESS	CAGE	DRESS	CAGE	11	[0, 0, 0]	-999	PAL1	0	R1276D
1529.699	0.532	1537060	STUDY_ORIENT_OFF	n/a	n/a	3	1	DRESS	CAGE	DRESS	CAGE	11	[0, 0, 0]	-999	PAL1	0	R1276D
1530.231	4.0	1537592	STUDY_PAIR	n/a	wordpools/wordpool_EN.txt	3	1	DRESS	CAGE	DRESS	CAGE	11	[0, 0, 0]	-999	PAL1	0	R1276D
1534.248	1.017	1541608	PAIR_OFF	n/a	n/a	3	1	DRESS	CAGE	DRESS	CAGE	11	[0, 0, 0]	-999	PAL1	0	R1276D
1535.265	0.268	1542625	STUDY_ORIENT	n/a	n/a	4	2	CAPE	PASS	CAPE	SPEAR	11	[0, 0, 0]	-999	PAL1	0	R1276D
1535.533	0.649	1542893	STUDY_ORIENT_OFF	n/a	n/a	4	2	CAPE	PASS	CAPE	SPEAR	11	[0, 0, 0]	-999	PAL1	0	R1276D
1536.182	4.0	1543542	STUDY_PAIR	n/a	wordpools/wordpool_EN.txt	4	2	CAPE	PASS	CAPE	SPEAR	11	[0, 0, 0]	-999	PAL1	0	R1276D
1540.199	1.017	1547559	PAIR_OFF	n/a	n/a	4	2	CAPE	PASS	CAPE	SPEAR	11	[0, 0, 0]	-999	PAL1	0	R1276D
1541.216	0.268	1548576	STUDY_ORIENT	n/a	n/a	5	3	NOSE	PASS	NOSE	SKI	11	[0, 0, 0]	-999	PAL1	0	R1276D
1541.484	0.749	1548844	STUDY_ORIENT_OFF	n/a	n/a	5	3	NOSE	PASS	NOSE	SKI	11	[0, 0, 0]	-999	PAL1	0	R1276D
1542.233	4.0	1549593	STUDY_PAIR	n/a	wordpools/wordpool_EN.txt	5	3	NOSE	PASS	NOSE	SKI	11	[0, 0, 0]	-999	PAL1	0	R1276D
1546.251	1.017	1553611	PAIR_OFF	n/a	n/a	5	3	NOSE	PASS	NOSE	SKI	11	[0, 0, 0]	-999	PAL1	0	R1276D
1547.268	0.267	1554628	STUDY_ORIENT	n/a	n/a	6	4	HAWK	LAND	HAWK	LAND	11	[0, 0, 0]	-999	PAL1	0	R1276D
1547.535	0.633	1554895	STUDY_ORIENT_OFF	n/a	n/a	6	4	HAWK	LAND	HAWK	LAND	11	[0, 0, 0]	-999	PAL1	0	R1276D
1548.168	4.0	1555528	STUDY_PAIR	n/a	wordpools/wordpool_EN.txt	6	4	HAWK	LAND	HAWK	LAND	11	[0, 0, 0]	-999	PAL1	0	R1276D
1552.185	1.0	1559544	PAIR_OFF	n/a	n/a	6	4	HAWK	LAND	HAWK	LAND	11	[0, 0, 0]	-999	PAL1	0	R1276D
1553.185	0.0	1560544	ENCODING_END	n/a	n/a	-999	-999	n/a	n/a	n/a	n/a	11	[0, 0, 0]	-999	PAL1	0	R1276D
1553.185	0.001	1560544	MATH_START	n/a	n/a	-999	-999	n/a	n/a	n/a	n/a	11	[0, 0, 0]	-999	PAL1	0	R1276D
1553.186	0.016	1560545	START	n/a	n/a	-999	-999	n/a	n/a	n/a	n/a	12	[-999, -999, -999]	-999	PAL1	0	R1276D
1553.202	3.702	1560561	PROB	3.676	n/a	-999	-999	n/a	n/a	n/a	n/a	12	[7, 5, 8]	20	PAL1	0	R1276D
1556.904	2.449	1564263	PROB	2.414	n/a	-999	-999	n/a	n/a	n/a	n/a	12	[4, 6, 4]	14	PAL1	0	R1276D
1559.353	3.951	1566712	PROB	3.924	n/a	-999	-999	n/a	n/a	n/a	n/a	12	[1, 5, 8]	14	PAL1	0	R1276D
1563.304	3.75	1570663	PROB	3.719	n/a	-999	-999	n/a	n/a	n/a	n/a	12	[4, 7, 2]	13	PAL1	0	R1276D
1567.054	3.268	1574413	PROB	3.24	n/a	-999	-999	n/a	n/a	n/a	n/a	12	[9, 7, 3]	19	PAL1	0	R1276D
1570.322	3.157	1577680	PROB	3.157	n/a	-999	-999	n/a	n/a	n/a	n/a	12	[3, 9, 9]	21	PAL1	0	R1276D
1573.479	0.011	1580837	STOP	n/a	n/a	-999	-999	n/a	n/a	n/a	n/a	12	[-999, -999, -999]	-999	PAL1	0	R1276D
1573.49	0.0	1580848	MATH_END	n/a	n/a	-999	-999	n/a	n/a	n/a	n/a	11	[0, 0, 0]	-999	PAL1	0	R1276D
1573.49	0.017	1580848	RECALL_START	n/a	n/a	-999	-999	n/a	n/a	n/a	n/a	11	[0, 0, 0]	-999	PAL1	0	R1276D
1573.507	0.266	1580865	TEST_ORIENT	n/a	n/a	3	1	DRESS	CAGE	DRESS	CAGE	11	[0, 0, 0]	-999	PAL1	0	R1276D
1573.773	0.734	1581131	RETRIEVAL_ORIENT_OFF	n/a	n/a	-999	-999	n/a	n/a	n/a	n/a	11	[0, 0, 0]	-999	PAL1	0	R1276D
1574.507	4.0	1581865	TEST_PROBE	n/a	wordpools/wordpool_EN.txt	3	1	DRESS	CAGE	DRESS	CAGE	11	[0, 0, 0]	-999	PAL1	0	R1276D
1574.507	1.235	1581865	REC_START	n/a	n/a	3	-999	n/a	CAGE	n/a	n/a	11	[0, 0, 0]	-999	PAL1	0	R1276D
1575.742	2.782	1583100	REC_EVENT	1.235	n/a	3	1	DRESS	CAGE	DRESS	CAGE	11	[0, 0, 0]	-999	PAL1	0	R1276D
1578.524	1.0	1585882	PROBE_OFF	n/a	n/a	3	-999	n/a	n/a	n/a	n/a	11	[0, 0, 0]	-999	PAL1	0	R1276D
1579.524	0.017	1586882	REC_END	n/a	n/a	3	-999	n/a	n/a	n/a	n/a	11	[0, 0, 0]	-999	PAL1	0	R1276D
1579.541	0.267	1586899	TEST_ORIENT	n/a	n/a	4	2	CAPE	PASS	CAPE	SPEAR	11	[0, 0, 0]	-999	PAL1	0	R1276D
1579.808	0.583	1587166	RETRIEVAL_ORIENT_OFF	n/a	n/a	3	-999	n/a	n/a	n/a	n/a	11	[0, 0, 0]	-999	PAL1	0	R1276D
1580.391	4.0	1587749	TEST_PROBE	n/a	wordpools/wordpool_EN.txt	4	2	CAPE	PASS	CAPE	SPEAR	11	[0, 0, 0]	-999	PAL1	0	R1276D
1580.392	3.401	1587750	REC_START	n/a	n/a	4	-999	n/a	PASS	n/a	n/a	11	[0, 0, 0]	-999	PAL1	0	R1276D
1583.793	0.616	1591151	REC_EVENT	3.401	n/a	4	2	CAPE	PASS	CAPE	SPEAR	11	[0, 0, 0]	-999	PAL1	0	R1276D
1584.409	1.0	1591767	PROBE_OFF	n/a	n/a	4	-999	n/a	n/a	n/a	n/a	11	[0, 0, 0]	-999	PAL1	0	R1276D
1585.409	0.016	1592767	REC_END	n/a	n/a	4	-999	n/a	n/a	n/a	n/a	11	[0, 0, 0]	-999	PAL1	0	R1276D
1585.425	0.267	1592783	TEST_ORIENT	n/a	n/a	5	3	NOSE	PASS	NOSE	SKI	11	[0, 0, 0]	-999	PAL1	0	R1276D
1585.692	0.616	1593049	RETRIEVAL_ORIENT_OFF	n/a	n/a	4	-999	n/a	n/a	n/a	n/a	11	[0, 0, 0]	-999	PAL1	0	R1276D
1586.308	4.0	1593665	TEST_PROBE	n/a	wordpools/wordpool_EN.txt	5	3	NOSE	PASS	NOSE	SKI	11	[0, 0, 0]	-999	PAL1	0	R1276D
1586.309	4.016	1593666	REC_START	n/a	n/a	5	-999	n/a	PASS	n/a	n/a	11	[0, 0, 0]	-999	PAL1	0	R1276D
1590.325	0.536	1597682	PROBE_OFF	n/a	n/a	5	-999	n/a	n/a	n/a	n/a	11	[0, 0, 0]	-999	PAL1	0	R1276D
1590.861	0.465	1598218	REC_EVENT	4.552	n/a	5	3	NOSE	PASS	NOSE	SKI	11	[0, 0, 0]	-999	PAL1	0	R1276D
1591.326	0.016	1598683	REC_END	n/a	n/a	5	-999	n/a	n/a	n/a	n/a	11	[0, 0, 0]	-999	PAL1	0	R1276D
1591.342	0.268	1598699	TEST_ORIENT	n/a	n/a	6	4	HAWK	LAND	HAWK	LAND	11	[0, 0, 0]	-999	PAL1	0	R1276D
1591.61	0.682	1598967	RETRIEVAL_ORIENT_OFF	n/a	n/a	5	-999	n/a	n/a	n/a	n/a	11	[0, 0, 0]	-999	PAL1	0	R1276D
1592.292	4.0	1599649	TEST_PROBE	n/a	wordpools/wordpool_EN.txt	6	4	HAWK	LAND	HAWK	LAND	11	[0, 0, 0]	-999	PAL1	0	R1276D
1592.293	0.919	1599650	REC_START	n/a	n/a	6	-999	n/a	LAND	n/a	n/a	11	[0, 0, 0]	-999	PAL1	0	R1276D
1593.212	3.098	1600569	REC_EVENT	0.919	n/a	6	4	HAWK	LAND	HAWK	LAND	11	[0, 0, 0]	-999	PAL1	0	R1276D
1596.31	1.01	1603667	PROBE_OFF	n/a	n/a	6	-999	n/a	n/a	n/a	n/a	11	[0, 0, 0]	-999	PAL1	0	R1276D
1597.32	0.023	1604677	REC_END	n/a	n/a	6	-999	n/a	n/a	n/a	n/a	11	[0, 0, 0]	-999	PAL1	0	R1276D
1597.343	0.251	1604700	TEST_ORIENT	n/a	n/a	1	5	TOE	TANK	TANK	TOE	11	[0, 0, 0]	-999	PAL1	0	R1276D
1597.594	0.633	1604951	RETRIEVAL_ORIENT_OFF	n/a	n/a	6	-999	n/a	n/a	n/a	n/a	11	[0, 0, 0]	-999	PAL1	0	R1276D
1598.227	4.0	1605584	TEST_PROBE	n/a	wordpools/wordpool_EN.txt	1	5	TOE	TANK	TANK	TOE	11	[0, 0, 0]	-999	PAL1	0	R1276D
1598.227	1.057	1605584	REC_START	n/a	n/a	1	-999	n/a	TANK	n/a	n/a	11	[0, 0, 0]	-999	PAL1	0	R1276D
1599.284	2.96	1606641	REC_EVENT	1.057	n/a	1	5	TOE	TANK	TANK	TOE	11	[0, 0, 0]	-999	PAL1	0	R1276D
1602.244	1.0	1609601	PROBE_OFF	n/a	n/a	1	-999	n/a	n/a	n/a	n/a	11	[0, 0, 0]	-999	PAL1	0	R1276D
1603.244	0.017	1610601	REC_END	n/a	n/a	1	-999	n/a	n/a	n/a	n/a	11	[0, 0, 0]	-999	PAL1	0	R1276D
1603.261	0.251	1610618	TEST_ORIENT	n/a	n/a	2	6	SEA	COW	PIG	SEA	11	[0, 0, 0]	-999	PAL1	0	R1276D
1603.512	0.616	1610869	RETRIEVAL_ORIENT_OFF	n/a	n/a	1	-999	n/a	n/a	n/a	n/a	11	[0, 0, 0]	-999	PAL1	0	R1276D
1604.128	0.0	1611484	REC_START	n/a	n/a	2	-999	n/a	COW	n/a	n/a	11	[0, 0, 0]	-999	PAL1	0	R1276D
1604.128	4.0	1611484	TEST_PROBE	n/a	wordpools/wordpool_EN.txt	2	6	SEA	COW	PIG	SEA	11	[0, 0, 0]	-999	PAL1	0	R1276D
1606.656	1.489	1614012	REC_EVENT	2.528	n/a	2	6	SEA	COW	PIG	SEA	11	[0, 0, 0]	-999	PAL1	0	R1276D
1608.145	1.0	1615501	PROBE_OFF	n/a	n/a	2	-999	n/a	n/a	n/a	n/a	11	[0, 0, 0]	-999	PAL1	0	R1276D
1609.145	0.012	1616501	REC_END	n/a	n/a	2	-999	n/a	n/a	n/a	n/a	11	[0, 0, 0]	-999	PAL1	0	R1276D
1609.157	8.424	1616513	RECALL_END	n/a	n/a	-999	-999	n/a	n/a	n/a	n/a	11	[0, 0, 0]	-999	PAL1	0	R1276D
1617.581	10.929	1624937	TRIAL	n/a	n/a	-999	-999	n/a	n/a	n/a	n/a	12	[0, 0, 0]	-999	PAL1	0	R1276D
1628.51	0.007	1635865	ENCODING_START	n/a	n/a	-999	-999	n/a	n/a	n/a	n/a	12	[0, 0, 0]	-999	PAL1	0	R1276D
1628.517	0.266	1635872	STUDY_ORIENT	n/a	n/a	1	5	DOCK	MULE	DOCK	MULE	12	[0, 0, 0]	-999	PAL1	0	R1276D
1628.783	0.717	1636138	STUDY_ORIENT_OFF	n/a	n/a	1	5	DOCK	MULE	DOCK	MULE	12	[0, 0, 0]	-999	PAL1	0	R1276D
1629.5	4.0	1636855	STUDY_PAIR	n/a	wordpools/wordpool_EN.txt	1	5	DOCK	MULE	DOCK	MULE	12	[0, 0, 0]	-999	PAL1	0	R1276D
1633.518	1.016	1640873	PAIR_OFF	n/a	n/a	1	5	DOCK	MULE	DOCK	MULE	12	[0, 0, 0]	-999	PAL1	0	R1276D
1634.534	0.267	1641889	STUDY_ORIENT	n/a	n/a	2	4	KEY	SEAT	KEY	SEAT	12	[0, 0, 0]	-999	PAL1	0	R1276D
1634.801	0.767	1642156	STUDY_ORIENT_OFF	n/a	n/a	2	4	KEY	SEAT	KEY	SEAT	12	[0, 0, 0]	-999	PAL1	0	R1276D
1635.568	4.0	1642923	STUDY_PAIR	n/a	wordpools/wordpool_EN.txt	2	4	KEY	SEAT	KEY	SEAT	12	[0, 0, 0]	-999	PAL1	0	R1276D
1639.585	1.017	1646940	PAIR_OFF	n/a	n/a	2	4	KEY	SEAT	KEY	SEAT	12	[0, 0, 0]	-999	PAL1	0	R1276D
1640.602	0.267	1647956	STUDY_ORIENT	n/a	n/a	3	1	SPARK	PASS	SPARK	FACE	12	[0, 0, 0]	-999	PAL1	0	R1276D
1640.869	0.6	1648223	STUDY_ORIENT_OFF	n/a	n/a	3	1	SPARK	PASS	SPARK	FACE	12	[0, 0, 0]	-999	PAL1	0	R1276D
1641.469	4.0	1648823	STUDY_PAIR	n/a	wordpools/wordpool_EN.txt	3	1	SPARK	PASS	SPARK	FACE	12	[0, 0, 0]	-999	PAL1	0	R1276D
1645.487	1.016	1652841	PAIR_OFF	n/a	n/a	3	1	SPARK	PASS	SPARK	FACE	12	[0, 0, 0]	-999	PAL1	0	R1276D
1646.503	0.267	1653857	STUDY_ORIENT	n/a	n/a	4	2	TEETH	WORM	TEETH	WORM	12	[0, 0, 0]	-999	PAL1	0	R1276D
1646.77	0.549	1654124	STUDY_ORIENT_OFF	n/a	n/a	4	2	TEETH	WORM	TEETH	WORM	12	[0, 0, 0]	-999	PAL1	0	R1276D
1647.319	4.0	1654673	STUDY_PAIR	n/a	wordpools/wordpool_EN.txt	4	2	TEETH	WORM	TEETH	WORM	12	[0, 0, 0]	-999	PAL1	0	R1276D
1651.337	1.016	1658691	PAIR_OFF	n/a	n/a	4	2	TEETH	WORM	TEETH	WORM	12	[0, 0, 0]	-999	PAL1	0	R1276D
1652.353	0.268	1659707	STUDY_ORIENT	n/a	n/a	5	3	BED	BOWL	BED	BOWL	12	[0, 0, 0]	-999	PAL1	0	R1276D
1652.621	0.75	1659975	STUDY_ORIENT_OFF	n/a	n/a	5	3	BED	BOWL	BED	BOWL	12	[0, 0, 0]	-999	PAL1	0	R1276D
1653.371	4.0	1660725	STUDY_PAIR	n/a	wordpools/wordpool_EN.txt	5	3	BED	BOWL	BED	BOWL	12	[0, 0, 0]	-999	PAL1	0	R1276D
1657.389	1.017	1664743	PAIR_OFF	n/a	n/a	5	3	BED	BOWL	BED	BOWL	12	[0, 0, 0]	-999	PAL1	0	R1276D
