onset	duration	sample	trial_type	response_time	stim_file	serialpos	probepos	probe_word	resp_word	study_1	study_2	list	test	answer	experiment	session	subject
0.0	63.566	1389	SESS_START	n/a	n/a	-999	-999	n/a	n/a	n/a	n/a	-999	[0, 0, 0]	-999	PAL1	0	R1090C
63.566	1.017	33170	START	n/a	n/a	-999	-999	n/a	n/a	n/a	n/a	-1	[-999, -999, -999]	-999	PAL1	0	R1090C
64.583	114.497	33678	PROB	114497.0	n/a	-999	-999	n/a	n/a	n/a	n/a	-1	[3, 5, 9]	17	PAL1	0	R1090C
179.08	76.624	90922	STOP	n/a	n/a	-999	-999	n/a	n/a	n/a	n/a	-1	[-999, -999, -999]	-999	PAL1	0	R1090C
255.704	10.45	129230	ENCODING_START	n/a	n/a	0	-999	n/a	n/a	n/a	n/a	1	[0, 0, 0]	-999	PAL1	0	R1090C
266.154	0.275	134455	STUDY_ORIENT	n/a	n/a	1	3	VAN	NOSE	NOSE	VAN	1	[0, 0, 0]	-999	PAL1	0	R1090C
266.972	4.0	134864	STUDY_PAIR	n/a	wordpools/wordpool_EN.txt	1	3	VAN	NOSE	NOSE	VAN	1	[0, 0, 0]	-999	PAL1	0	R1090C
272.006	0.275	137381	STUDY_ORIENT	n/a	n/a	2	4	FOOT	WOLF	WOLF	FOOT	1	[0, 0, 0]	-999	PAL1	0	R1090C
272.806	4.0	137781	STUDY_PAIR	n/a	wordpools/wordpool_EN.txt	2	4	FOOT	WOLF	WOLF	FOOT	1	[0, 0, 0]	-999	PAL1	0	R1090C
277.84	0.275	140297	STUDY_ORIENT	n/a	n/a	3	5	OWL	n/a	THUMB	OWL	1	[0, 0, 0]	-999	PAL1	0	R1090C
278.84	4.0	140797	STUDY_PAIR	n/a	wordpools/wordpool_EN.txt	3	5	OWL	n/a	THUMB	OWL	1	[0, 0, 0]	-999	PAL1	0	R1090C
283.858	0.275	143306	STUDY_ORIENT	n/a	n/a	4	2	INK	FAIRY	INK	TOOTH	1	[0, 0, 0]	-999	PAL1	0	R1090C
284.742	4.0	143748	STUDY_PAIR	n/a	wordpools/wordpool_EN.txt	4	2	INK	FAIRY	INK	TOOTH	1	[0, 0, 0]	-999	PAL1	0	R1090C
289.776	0.275	146265	STUDY_ORIENT	n/a	n/a	5	1	MOOSE	GRAPE	MOOSE	GRAPE	1	[0, 0, 0]	-999	PAL1	0	R1090C
290.776	4.0	146765	STUDY_PAIR	n/a	wordpools/wordpool_EN.txt	5	1	MOOSE	GRAPE	MOOSE	GRAPE	1	[0, 0, 0]	-999	PAL1	0	R1090C
295.794	0.275	149274	STUDY_ORIENT	n/a	n/a	6	6	WORM	PAPER	MAIL	WORM	1	[0, 0, 0]	-999	PAL1	0	R1090C
296.744	4.0	149749	STUDY_PAIR	n/a	wordpools/wordpool_EN.txt	6	6	WORM	PAPER	MAIL	WORM	1	[0, 0, 0]	-999	PAL1	0	R1090C
300.762	0.999	151757	START	n/a	n/a	-999	-999	n/a	n/a	n/a	n/a	1	[-999, -999, -999]	-999	PAL1	0	R1090C
301.761	0.017	152257	MATH_START	n/a	n/a	-999	-999	n/a	n/a	n/a	n/a	1	[0, 0, 0]	-999	PAL1	0	R1090C
301.778	6.201	152265	PROB	6174.0	n/a	-999	-999	n/a	n/a	n/a	n/a	1	[5, 9, 9]	23	PAL1	0	R1090C
307.979	5.085	155366	PROB	5053.0	n/a	-999	-999	n/a	n/a	n/a	n/a	1	[7, 6, 4]	17	PAL1	0	R1090C
313.064	3.95	157908	PROB	3928.0	n/a	-999	-999	n/a	n/a	n/a	n/a	1	[3, 2, 2]	7	PAL1	0	R1090C
317.014	4.01	159883	PROB	4010.0	n/a	-999	-999	n/a	n/a	n/a	n/a	1	[1, 2, 3]	6	PAL1	0	R1090C
321.024	0.008	161888	STOP	n/a	n/a	-999	-999	n/a	n/a	n/a	n/a	1	[-999, -999, -999]	-999	PAL1	0	R1090C
321.032	0.0	161892	MATH_END	n/a	n/a	-999	-999	n/a	n/a	n/a	n/a	1	[0, 0, 0]	-999	PAL1	0	R1090C
321.032	0.017	161892	TEST_START	n/a	n/a	-999	-999	n/a	n/a	n/a	n/a	1	[0, 0, 0]	-999	PAL1	0	R1090C
321.049	0.275	161900	TEST_ORIENT	n/a	n/a	5	1	MOOSE	GRAPE	MOOSE	GRAPE	1	[0, 0, 0]	-999	PAL1	0	R1090C
321.965	4.0	162358	TEST_PROBE	n/a	wordpools/wordpool_EN.txt	5	1	MOOSE	GRAPE	MOOSE	GRAPE	1	[0, 0, 0]	-999	PAL1	0	R1090C
321.966	1.372	162359	REC_START	n/a	n/a	5	-999	n/a	GRAPE	n/a	n/a	1	[0, 0, 0]	-999	PAL1	0	R1090C
323.338	3.636	163044	REC_EVENT	1372.0	n/a	5	1	MOOSE	GRAPE	MOOSE	GRAPE	1	[0, 0, 0]	-999	PAL1	0	R1090C
326.974	0.009	164862	REC_END	n/a	n/a	5	-999	n/a	n/a	n/a	n/a	1	[0, 0, 0]	-999	PAL1	0	R1090C
326.983	0.275	164867	TEST_ORIENT	n/a	n/a	4	2	INK	FAIRY	INK	TOOTH	1	[0, 0, 0]	-999	PAL1	0	R1090C
327.967	4.0	165359	TEST_PROBE	n/a	wordpools/wordpool_EN.txt	4	2	INK	FAIRY	INK	TOOTH	1	[0, 0, 0]	-999	PAL1	0	R1090C
327.967	0.21	165359	REC_START	n/a	n/a	4	-999	n/a	FAIRY	n/a	n/a	1	[0, 0, 0]	-999	PAL1	0	R1090C
328.177	0.556	165464	REC_EVENT	210.0	n/a	4	2	INK	GRAPE	INK	TOOTH	1	[0, 0, 0]	-999	PAL1	0	R1090C
328.733	0.829	165742	REC_EVENT	766.0	n/a	4	2	INK	INK	INK	TOOTH	1	[0, 0, 0]	-999	PAL1	0	R1090C
329.562	0.678	166156	REC_EVENT	1595.0	n/a	4	2	INK	<>	INK	TOOTH	1	[0, 0, 0]	-999	PAL1	0	R1090C
330.24	0.739	166495	REC_EVENT	2273.0	n/a	4	2	INK	FAIRY	INK	TOOTH	1	[0, 0, 0]	-999	PAL1	0	R1090C
330.979	0.332	166865	REC_EVENT	3012.0	n/a	4	2	INK	TOOTH	INK	TOOTH	1	[0, 0, 0]	-999	PAL1	0	R1090C
331.311	1.673	167031	REC_EVENT	3344.0	n/a	4	2	INK	FAIRY	INK	TOOTH	1	[0, 0, 0]	-999	PAL1	0	R1090C
332.984	0.017	167867	REC_END	n/a	n/a	4	-999	n/a	n/a	n/a	n/a	1	[0, 0, 0]	-999	PAL1	0	R1090C
333.001	0.275	167876	TEST_ORIENT	n/a	n/a	1	3	VAN	NOSE	NOSE	VAN	1	[0, 0, 0]	-999	PAL1	0	R1090C
333.918	4.0	168334	TEST_PROBE	n/a	wordpools/wordpool_EN.txt	1	3	VAN	NOSE	NOSE	VAN	1	[0, 0, 0]	-999	PAL1	0	R1090C
333.918	1.81	168334	REC_START	n/a	n/a	1	-999	n/a	NOSE	n/a	n/a	1	[0, 0, 0]	-999	PAL1	0	R1090C
335.728	3.207	169239	REC_EVENT	1810.0	n/a	1	3	VAN	NOSE	NOSE	VAN	1	[0, 0, 0]	-999	PAL1	0	R1090C
338.935	0.017	170842	REC_END	n/a	n/a	1	-999	n/a	n/a	n/a	n/a	1	[0, 0, 0]	-999	PAL1	0	R1090C
338.952	0.275	170851	TEST_ORIENT	n/a	n/a	2	4	FOOT	WOLF	WOLF	FOOT	1	[0, 0, 0]	-999	PAL1	0	R1090C
339.952	4.0	171351	TEST_PROBE	n/a	wordpools/wordpool_EN.txt	2	4	FOOT	WOLF	WOLF	FOOT	1	[0, 0, 0]	-999	PAL1	0	R1090C
339.953	2.716	171351	REC_START	n/a	n/a	2	-999	n/a	WOLF	n/a	n/a	1	[0, 0, 0]	-999	PAL1	0	R1090C
342.669	2.293	172709	REC_EVENT	2716.0	n/a	2	4	FOOT	WOLF	WOLF	FOOT	1	[0, 0, 0]	-999	PAL1	0	R1090C
344.962	0.008	173856	REC_END	n/a	n/a	2	-999	n/a	n/a	n/a	n/a	1	[0, 0, 0]	-999	PAL1	0	R1090C
344.97	0.275	173860	TEST_ORIENT	n/a	n/a	3	5	OWL	n/a	THUMB	OWL	1	[0, 0, 0]	-999	PAL1	0	R1090C
345.787	4.0	174268	TEST_PROBE	n/a	wordpools/wordpool_EN.txt	3	5	OWL	n/a	THUMB	OWL	1	[0, 0, 0]	-999	PAL1	0	R1090C
345.787	5.015	174268	REC_START	n/a	n/a	3	-999	n/a	n/a	n/a	n/a	1	[0, 0, 0]	-999	PAL1	0	R1090C
350.802	0.002	176775	REC_EVENT	5015.0	n/a	3	5	OWL	<>	THUMB	OWL	1	[0, 0, 0]	-999	PAL1	0	R1090C
350.804	0.017	176776	REC_END	n/a	n/a	3	-999	n/a	n/a	n/a	n/a	1	[0, 0, 0]	-999	PAL1	0	R1090C
350.821	0.275	176785	TEST_ORIENT	n/a	n/a	6	6	WORM	PAPER	MAIL	WORM	1	[0, 0, 0]	-999	PAL1	0	R1090C
351.671	4.0	177210	TEST_PROBE	n/a	wordpools/wordpool_EN.txt	6	6	WORM	PAPER	MAIL	WORM	1	[0, 0, 0]	-999	PAL1	0	R1090C
351.672	0.845	177210	REC_START	n/a	n/a	6	-999	n/a	PAPER	n/a	n/a	1	[0, 0, 0]	-999	PAL1	0	R1090C
352.517	0.961	177633	REC_EVENT	845.0	n/a	6	6	WORM	<>	MAIL	WORM	1	[0, 0, 0]	-999	PAL1	0	R1090C
353.478	1.793	178113	REC_EVENT	1806.0	n/a	6	6	WORM	BOOK	MAIL	WORM	1	[0, 0, 0]	-999	PAL1	0	R1090C
355.271	1.41	179010	REC_EVENT	3599.0	n/a	6	6	WORM	PAPER	MAIL	WORM	1	[0, 0, 0]	-999	PAL1	0	R1090C
356.681	2.622	179715	REC_END	n/a	n/a	6	-999	n/a	n/a	n/a	n/a	1	[0, 0, 0]	-999	PAL1	0	R1090C
359.303	10.455	181025	ENCODING_START	n/a	n/a	0	-999	n/a	n/a	n/a	n/a	2	[0, 0, 0]	-999	PAL1	0	R1090C
369.758	0.275	186252	STUDY_ORIENT	n/a	n/a	1	5	FLOOR	ROCK	FLOOR	ROCK	2	[0, 0, 0]	-999	PAL1	0	R1090C
370.725	4.0	186736	STUDY_PAIR	n/a	wordpools/wordpool_EN.txt	1	5	FLOOR	ROCK	FLOOR	ROCK	2	[0, 0, 0]	-999	PAL1	0	R1090C
375.759	0.275	189253	STUDY_ORIENT	n/a	n/a	2	4	SAIL	OAR	SAIL	OAR	2	[0, 0, 0]	-999	PAL1	0	R1090C
376.759	4.0	189753	STUDY_PAIR	n/a	wordpools/wordpool_EN.txt	2	4	SAIL	OAR	SAIL	OAR	2	[0, 0, 0]	-999	PAL1	0	R1090C
381.777	0.275	192261	STUDY_ORIENT	n/a	n/a	3	1	STREET	PEACH	PEACH	STREET	2	[0, 0, 0]	-999	PAL1	0	R1090C
382.777	4.0	192761	STUDY_PAIR	n/a	wordpools/wordpool_EN.txt	3	1	STREET	PEACH	PEACH	STREET	2	[0, 0, 0]	-999	PAL1	0	R1090C
387.795	0.275	195270	STUDY_ORIENT	n/a	n/a	4	6	CUP	MOTH	CUP	MOTH	2	[0, 0, 0]	-999	PAL1	0	R1090C
388.612	4.0	195679	STUDY_PAIR	n/a	wordpools/wordpool_EN.txt	4	6	CUP	MOTH	CUP	MOTH	2	[0, 0, 0]	-999	PAL1	0	R1090C
393.646	0.275	198195	STUDY_ORIENT	n/a	n/a	5	3	GEESE	HEART	GEESE	HEART	2	[0, 0, 0]	-999	PAL1	0	R1090C
394.579	4.0	198662	STUDY_PAIR	n/a	wordpools/wordpool_EN.txt	5	3	GEESE	HEART	GEESE	HEART	2	[0, 0, 0]	-999	PAL1	0	R1090C
399.597	0.275	201171	STUDY_ORIENT	n/a	n/a	6	2	PIN	n/a	SKY	PIN	2	[0, 0, 0]	-999	PAL1	0	R1090C
400.53	4.0	201637	STUDY_PAIR	n/a	wordpools/wordpool_EN.txt	6	2	PIN	n/a	SKY	PIN	2	[0, 0, 0]	-999	PAL1	0	R1090C
404.548	1.0	203646	START	n/a	n/a	-999	-999	n/a	n/a	n/a	n/a	2	[-999, -999, -999]	-999	PAL1	0	R1090C
405.548	0.017	204146	MATH_START	n/a	n/a	-999	-999	n/a	n/a	n/a	n/a	2	[0, 0, 0]	-999	PAL1	0	R1090C
405.565	5.418	204154	PROB	5395.0	n/a	-999	-999	n/a	n/a	n/a	n/a	2	[5, 7, 1]	13	PAL1	0	R1090C
410.983	4.767	206863	PROB	4737.0	n/a	-999	-999	n/a	n/a	n/a	n/a	2	[6, 8, 8]	24	PAL1	0	R1090C
415.75	2.65	209247	PROB	2625.0	n/a	-999	-999	n/a	n/a	n/a	n/a	2	[1, 8, 2]	11	PAL1	0	R1090C
418.4	5.385	210571	PROB	5360.0	n/a	-999	-999	n/a	n/a	n/a	n/a	2	[1, 4, 8]	13	PAL1	0	R1090C
423.785	2.975	213264	PROB	2975.0	n/a	-999	-999	n/a	n/a	n/a	n/a	2	[5, 3, 7]	15	PAL1	0	R1090C
426.76	0.009	214751	STOP	n/a	n/a	-999	-999	n/a	n/a	n/a	n/a	2	[-999, -999, -999]	-999	PAL1	0	R1090C
426.769	0.0	214756	MATH_END	n/a	n/a	-999	-999	n/a	n/a	n/a	n/a	2	[0, 0, 0]	-999	PAL1	0	R1090C
426.769	0.017	214756	TEST_START	n/a	n/a	-999	-999	n/a	n/a	n/a	n/a	2	[0, 0, 0]	-999	PAL1	0	R1090C
426.786	0.275	214764	TEST_ORIENT	n/a	n/a	3	1	STREET	PEACH	PEACH	STREET	2	[0, 0, 0]	-999	PAL1	0	R1090C
427.619	4.0	215181	TEST_PROBE	n/a	wordpools/wordpool_EN.txt	3	1	STREET	PEACH	PEACH	STREET	2	[0, 0, 0]	-999	PAL1	0	R1090C
427.62	0.805	215181	REC_START	n/a	n/a	3	-999	n/a	PEACH	n/a	n/a	2	[0, 0, 0]	-999	PAL1	0	R1090C
428.425	4.211	215583	REC_EVENT	805.0	n/a	3	1	STREET	PEACH	PEACH	STREET	2	[0, 0, 0]	-999	PAL1	0	R1090C
432.636	0.017	217689	REC_END	n/a	n/a	3	-999	n/a	n/a	n/a	n/a	2	[0, 0, 0]	-999	PAL1	0	R1090C
432.653	0.275	217697	TEST_ORIENT	n/a	n/a	6	2	PIN	n/a	SKY	PIN	2	[0, 0, 0]	-999	PAL1	0	R1090C
433.67	4.0	218206	TEST_PROBE	n/a	wordpools/wordpool_EN.txt	6	2	PIN	n/a	SKY	PIN	2	[0, 0, 0]	-999	PAL1	0	R1090C
433.67	5.018	218206	REC_START	n/a	n/a	6	-999	n/a	n/a	n/a	n/a	2	[0, 0, 0]	-999	PAL1	0	R1090C
438.688	0.003	220715	REC_END	n/a	n/a	6	-999	n/a	n/a	n/a	n/a	2	[0, 0, 0]	-999	PAL1	0	R1090C
438.691	0.014	220716	REC_EVENT	5021.0	n/a	6	2	PIN	<>	SKY	PIN	2	[0, 0, 0]	-999	PAL1	0	R1090C
438.705	0.275	220723	TEST_ORIENT	n/a	n/a	5	3	GEESE	HEART	GEESE	HEART	2	[0, 0, 0]	-999	PAL1	0	R1090C
439.538	4.0	221139	TEST_PROBE	n/a	wordpools/wordpool_EN.txt	5	3	GEESE	HEART	GEESE	HEART	2	[0, 0, 0]	-999	PAL1	0	R1090C
439.538	1.359	221139	REC_START	n/a	n/a	5	-999	n/a	HEART	n/a	n/a	2	[0, 0, 0]	-999	PAL1	0	R1090C
440.897	0.203	221819	REC_EVENT	1359.0	n/a	5	3	GEESE	<>	GEESE	HEART	2	[0, 0, 0]	-999	PAL1	0	R1090C
441.1	3.456	221920	REC_EVENT	1562.0	n/a	5	3	GEESE	HEART	GEESE	HEART	2	[0, 0, 0]	-999	PAL1	0	R1090C
444.556	0.016	223648	REC_END	n/a	n/a	5	-999	n/a	n/a	n/a	n/a	2	[0, 0, 0]	-999	PAL1	0	R1090C
444.572	0.275	223656	TEST_ORIENT	n/a	n/a	2	4	SAIL	OAR	SAIL	OAR	2	[0, 0, 0]	-999	PAL1	0	R1090C
445.456	4.0	224098	TEST_PROBE	n/a	wordpools/wordpool_EN.txt	2	4	SAIL	OAR	SAIL	OAR	2	[0, 0, 0]	-999	PAL1	0	R1090C
445.456	0.819	224098	REC_START	n/a	n/a	2	-999	n/a	OAR	n/a	n/a	2	[0, 0, 0]	-999	PAL1	0	R1090C
446.275	4.198	224508	REC_EVENT	819.0	n/a	2	4	SAIL	OAR	SAIL	OAR	2	[0, 0, 0]	-999	PAL1	0	R1090C
450.473	0.017	226607	REC_END	n/a	n/a	2	-999	n/a	n/a	n/a	n/a	2	[0, 0, 0]	-999	PAL1	0	R1090C
450.49	0.275	226615	TEST_ORIENT	n/a	n/a	1	5	FLOOR	ROCK	FLOOR	ROCK	2	[0, 0, 0]	-999	PAL1	0	R1090C
451.356	0.0	227048	REC_START	n/a	n/a	1	-999	n/a	ROCK	n/a	n/a	2	[0, 0, 0]	-999	PAL1	0	R1090C
451.356	4.0	227048	TEST_PROBE	n/a	wordpools/wordpool_EN.txt	1	5	FLOOR	ROCK	FLOOR	ROCK	2	[0, 0, 0]	-999	PAL1	0	R1090C
452.632	3.741	227686	REC_EVENT	1276.0	n/a	1	5	FLOOR	ROCK	FLOOR	ROCK	2	[0, 0, 0]	-999	PAL1	0	R1090C
456.373	0.017	229556	REC_END	n/a	n/a	1	-999	n/a	n/a	n/a	n/a	2	[0, 0, 0]	-999	PAL1	0	R1090C
456.39	0.275	229565	TEST_ORIENT	n/a	n/a	4	6	CUP	MOTH	CUP	MOTH	2	[0, 0, 0]	-999	PAL1	0	R1090C
457.324	4.0	230032	TEST_PROBE	n/a	wordpools/wordpool_EN.txt	4	6	CUP	MOTH	CUP	MOTH	2	[0, 0, 0]	-999	PAL1	0	R1090C
457.324	1.131	230032	REC_START	n/a	n/a	4	-999	n/a	MOTH	n/a	n/a	2	[0, 0, 0]	-999	PAL1	0	R1090C
458.455	3.886	230597	REC_EVENT	1131.0	n/a	4	6	CUP	MOTH	CUP	MOTH	2	[0, 0, 0]	-999	PAL1	0	R1090C
462.341	2.106	232540	REC_END	n/a	n/a	4	-999	n/a	n/a	n/a	n/a	2	[0, 0, 0]	-999	PAL1	0	R1090C
464.447	10.448	233593	ENCODING_START	n/a	n/a	0	-999	n/a	n/a	n/a	n/a	3	[0, 0, 0]	-999	PAL1	0	R1090C
474.895	0.275	238816	STUDY_ORIENT	n/a	n/a	1	1	TRUCK	STOVE	TRUCK	STOVE	3	[0, 0, 0]	-999	PAL1	0	R1090C
475.812	4.0	239275	STUDY_PAIR	n/a	wordpools/wordpool_EN.txt	1	1	TRUCK	STOVE	TRUCK	STOVE	3	[0, 0, 0]	-999	PAL1	0	R1090C
480.846	0.275	241792	STUDY_ORIENT	n/a	n/a	2	4	CLAY	HOSE	CLAY	HOSE	3	[0, 0, 0]	-999	PAL1	0	R1090C
481.729	4.0	242233	STUDY_PAIR	n/a	wordpools/wordpool_EN.txt	2	4	CLAY	HOSE	CLAY	HOSE	3	[0, 0, 0]	-999	PAL1	0	R1090C
486.747	0.275	244742	STUDY_ORIENT	n/a	n/a	3	3	BOY	n/a	BOY	TOAST	3	[0, 0, 0]	-999	PAL1	0	R1090C
487.731	4.0	245234	STUDY_PAIR	n/a	wordpools/wordpool_EN.txt	3	3	BOY	n/a	BOY	TOAST	3	[0, 0, 0]	-999	PAL1	0	R1090C
492.765	0.275	247751	STUDY_ORIENT	n/a	n/a	4	2	ROPE	LIP	ROPE	LIP	3	[0, 0, 0]	-999	PAL1	0	R1090C
493.648	4.0	248192	STUDY_PAIR	n/a	wordpools/wordpool_EN.txt	4	2	ROPE	LIP	ROPE	LIP	3	[0, 0, 0]	-999	PAL1	0	R1090C
498.666	0.275	250701	STUDY_ORIENT	n/a	n/a	5	5	DUCK	n/a	DUCK	BAND	3	[0, 0, 0]	-999	PAL1	0	R1090C
499.633	4.0	251184	STUDY_PAIR	n/a	wordpools/wordpool_EN.txt	5	5	DUCK	n/a	DUCK	BAND	3	[0, 0, 0]	-999	PAL1	0	R1090C
504.667	0.275	253701	STUDY_ORIENT	n/a	n/a	6	6	CHAIR	n/a	STEAK	CHAIR	3	[0, 0, 0]	-999	PAL1	0	R1090C
505.584	4.0	254160	STUDY_PAIR	n/a	wordpools/wordpool_EN.txt	6	6	CHAIR	n/a	STEAK	CHAIR	3	[0, 0, 0]	-999	PAL1	0	R1090C
509.602	0.999	256168	START	n/a	n/a	-999	-999	n/a	n/a	n/a	n/a	3	[-999, -999, -999]	-999	PAL1	0	R1090C
510.601	0.017	256668	MATH_START	n/a	n/a	-999	-999	n/a	n/a	n/a	n/a	3	[0, 0, 0]	-999	PAL1	0	R1090C
510.618	5.251	256676	PROB	5230.0	n/a	-999	-999	n/a	n/a	n/a	n/a	3	[3, 1, 6]	10	PAL1	0	R1090C
515.869	4.151	259302	PROB	4123.0	n/a	-999	-999	n/a	n/a	n/a	n/a	3	[2, 9, 6]	17	PAL1	0	R1090C
520.02	3.484	261377	PROB	3460.0	n/a	-999	-999	n/a	n/a	n/a	n/a	3	[2, 2, 9]	13	PAL1	0	R1090C
523.504	3.317	263119	PROB	3280.0	n/a	-999	-999	n/a	n/a	n/a	n/a	3	[7, 1, 6]	14	PAL1	0	R1090C
526.821	2.567	264777	PROB	2538.0	n/a	-999	-999	n/a	n/a	n/a	n/a	3	[1, 7, 7]	15	PAL1	0	R1090C
529.388	4.059	266061	PROB	4059.0	n/a	-999	-999	n/a	n/a	n/a	n/a	3	[8, 5, 3]	16	PAL1	0	R1090C
533.447	0.009	268090	STOP	n/a	n/a	-999	-999	n/a	n/a	n/a	n/a	3	[-999, -999, -999]	-999	PAL1	0	R1090C
533.456	0.0	268094	MATH_END	n/a	n/a	-999	-999	n/a	n/a	n/a	n/a	3	[0, 0, 0]	-999	PAL1	0	R1090C
533.456	0.017	268094	TEST_START	n/a	n/a	-999	-999	n/a	n/a	n/a	n/a	3	[0, 0, 0]	-999	PAL1	0	R1090C
533.473	0.275	268103	TEST_ORIENT	n/a	n/a	1	1	TRUCK	STOVE	TRUCK	STOVE	3	[0, 0, 0]	-999	PAL1	0	R1090C
534.506	4.0	268619	TEST_PROBE	n/a	wordpools/wordpool_EN.txt	1	1	TRUCK	STOVE	TRUCK	STOVE	3	[0, 0, 0]	-999	PAL1	0	R1090C
534.507	2.171	268620	REC_START	n/a	n/a	1	-999	n/a	STOVE	n/a	n/a	3	[0, 0, 0]	-999	PAL1	0	R1090C
536.678	2.829	269705	REC_EVENT	2171.0	n/a	1	1	TRUCK	STOVE	TRUCK	STOVE	3	[0, 0, 0]	-999	PAL1	0	R1090C
539.507	0.017	271120	REC_END	n/a	n/a	1	-999	n/a	n/a	n/a	n/a	3	[0, 0, 0]	-999	PAL1	0	R1090C
539.524	0.275	271128	TEST_ORIENT	n/a	n/a	4	2	ROPE	LIP	ROPE	LIP	3	[0, 0, 0]	-999	PAL1	0	R1090C
540.323	4.0	271528	TEST_PROBE	n/a	wordpools/wordpool_EN.txt	4	2	ROPE	LIP	ROPE	LIP	3	[0, 0, 0]	-999	PAL1	0	R1090C
540.323	2.074	271528	REC_START	n/a	n/a	4	-999	n/a	LIP	n/a	n/a	3	[0, 0, 0]	-999	PAL1	0	R1090C
542.397	0.204	272565	REC_EVENT	2074.0	n/a	4	2	ROPE	<>	ROPE	LIP	3	[0, 0, 0]	-999	PAL1	0	R1090C
542.601	2.74	272667	REC_EVENT	2278.0	n/a	4	2	ROPE	LIP	ROPE	LIP	3	[0, 0, 0]	-999	PAL1	0	R1090C
545.341	0.016	274036	REC_END	n/a	n/a	4	-999	n/a	n/a	n/a	n/a	3	[0, 0, 0]	-999	PAL1	0	R1090C
545.357	0.275	274044	TEST_ORIENT	n/a	n/a	3	3	BOY	n/a	BOY	TOAST	3	[0, 0, 0]	-999	PAL1	0	R1090C
546.174	4.0	274453	TEST_PROBE	n/a	wordpools/wordpool_EN.txt	3	3	BOY	n/a	BOY	TOAST	3	[0, 0, 0]	-999	PAL1	0	R1090C
546.174	2.728	274453	REC_START	n/a	n/a	3	-999	n/a	n/a	n/a	n/a	3	[0, 0, 0]	-999	PAL1	0	R1090C
548.902	1.469	275817	REC_EVENT	2728.0	n/a	3	3	BOY	<>	BOY	TOAST	3	[0, 0, 0]	-999	PAL1	0	R1090C
550.371	0.821	276551	REC_EVENT	4197.0	n/a	3	3	BOY	<>	BOY	TOAST	3	[0, 0, 0]	-999	PAL1	0	R1090C
551.192	0.016	276962	REC_END	n/a	n/a	3	-999	n/a	n/a	n/a	n/a	3	[0, 0, 0]	-999	PAL1	0	R1090C
551.208	0.275	276970	TEST_ORIENT	n/a	n/a	2	4	CLAY	HOSE	CLAY	HOSE	3	[0, 0, 0]	-999	PAL1	0	R1090C
552.01	4.0	277371	TEST_PROBE	n/a	wordpools/wordpool_EN.txt	2	4	CLAY	HOSE	CLAY	HOSE	3	[0, 0, 0]	-999	PAL1	0	R1090C
552.01	1.193	277371	REC_START	n/a	n/a	2	-999	n/a	HOSE	n/a	n/a	3	[0, 0, 0]	-999	PAL1	0	R1090C
553.203	3.824	277967	REC_EVENT	1193.0	n/a	2	4	CLAY	HOSE	CLAY	HOSE	3	[0, 0, 0]	-999	PAL1	0	R1090C
557.027	0.017	279879	REC_END	n/a	n/a	2	-999	n/a	n/a	n/a	n/a	3	[0, 0, 0]	-999	PAL1	0	R1090C
557.044	0.275	279887	TEST_ORIENT	n/a	n/a	5	5	DUCK	n/a	DUCK	BAND	3	[0, 0, 0]	-999	PAL1	0	R1090C
558.011	0.0	280371	REC_START	n/a	n/a	5	-999	n/a	n/a	n/a	n/a	3	[0, 0, 0]	-999	PAL1	0	R1090C
558.011	4.0	280371	TEST_PROBE	n/a	wordpools/wordpool_EN.txt	5	5	DUCK	n/a	DUCK	BAND	3	[0, 0, 0]	-999	PAL1	0	R1090C
561.032	1.0	281881	REC_EVENT	3021.0	n/a	5	5	DUCK	<>	DUCK	BAND	3	[0, 0, 0]	-999	PAL1	0	R1090C
562.032	0.994	282381	REC_EVENT	4021.0	n/a	5	5	DUCK	<>	DUCK	BAND	3	[0, 0, 0]	-999	PAL1	0	R1090C
563.026	0.002	282878	REC_EVENT	5015.0	n/a	5	5	DUCK	<>	DUCK	BAND	3	[0, 0, 0]	-999	PAL1	0	R1090C
563.028	0.017	282879	REC_END	n/a	n/a	5	-999	n/a	n/a	n/a	n/a	3	[0, 0, 0]	-999	PAL1	0	R1090C
563.045	0.275	282888	TEST_ORIENT	n/a	n/a	6	6	CHAIR	n/a	STEAK	CHAIR	3	[0, 0, 0]	-999	PAL1	0	R1090C
563.929	4.0	283330	TEST_PROBE	n/a	wordpools/wordpool_EN.txt	6	6	CHAIR	n/a	STEAK	CHAIR	3	[0, 0, 0]	-999	PAL1	0	R1090C
563.929	4.174	283330	REC_START	n/a	n/a	6	-999	n/a	n/a	n/a	n/a	3	[0, 0, 0]	-999	PAL1	0	R1090C
568.103	0.843	285416	REC_EVENT	4174.0	n/a	6	6	CHAIR	<>	STEAK	CHAIR	3	[0, 0, 0]	-999	PAL1	0	R1090C
568.946	1.726	285838	REC_END	n/a	n/a	6	-999	n/a	n/a	n/a	n/a	3	[0, 0, 0]	-999	PAL1	0	R1090C
570.672	10.443	286701	ENCODING_START	n/a	n/a	0	-999	n/a	n/a	n/a	n/a	4	[0, 0, 0]	-999	PAL1	0	R1090C
581.115	0.275	291922	STUDY_ORIENT	n/a	n/a	1	3	TOE	n/a	TOE	WEED	4	[0, 0, 0]	-999	PAL1	0	R1090C
581.949	4.0	292339	STUDY_PAIR	n/a	wordpools/wordpool_EN.txt	1	3	TOE	n/a	TOE	WEED	4	[0, 0, 0]	-999	PAL1	0	R1090C
586.983	0.275	294856	STUDY_ORIENT	n/a	n/a	2	4	NAIL	n/a	HAND	NAIL	4	[0, 0, 0]	-999	PAL1	0	R1090C
587.833	4.0	295281	STUDY_PAIR	n/a	wordpools/wordpool_EN.txt	2	4	NAIL	n/a	HAND	NAIL	4	[0, 0, 0]	-999	PAL1	0	R1090C
592.867	0.275	297797	STUDY_ORIENT	n/a	n/a	3	1	SPEAR	FAN	FAN	SPEAR	4	[0, 0, 0]	-999	PAL1	0	R1090C
593.884	4.0	298306	STUDY_PAIR	n/a	wordpools/wordpool_EN.txt	3	1	SPEAR	FAN	FAN	SPEAR	4	[0, 0, 0]	-999	PAL1	0	R1090C
598.902	0.275	300815	STUDY_ORIENT	n/a	n/a	4	2	EAR	PEARL	PEARL	EAR	4	[0, 0, 0]	-999	PAL1	0	R1090C
599.719	4.0	301223	STUDY_PAIR	n/a	wordpools/wordpool_EN.txt	4	2	EAR	PEARL	PEARL	EAR	4	[0, 0, 0]	-999	PAL1	0	R1090C
604.753	0.275	303740	STUDY_ORIENT	n/a	n/a	5	5	SEAT	n/a	TOAD	SEAT	4	[0, 0, 0]	-999	PAL1	0	R1090C
605.77	4.0	304248	STUDY_PAIR	n/a	wordpools/wordpool_EN.txt	5	5	SEAT	n/a	TOAD	SEAT	4	[0, 0, 0]	-999	PAL1	0	R1090C
610.804	0.275	306765	STUDY_ORIENT	n/a	n/a	6	6	BRIDGE	n/a	BRIDGE	DOCK	4	[0, 0, 0]	-999	PAL1	0	R1090C
611.721	4.0	307224	STUDY_PAIR	n/a	wordpools/wordpool_EN.txt	6	6	BRIDGE	n/a	BRIDGE	DOCK	4	[0, 0, 0]	-999	PAL1	0	R1090C
615.739	1.0	309232	START	n/a	n/a	-999	-999	n/a	n/a	n/a	n/a	4	[-999, -999, -999]	-999	PAL1	0	R1090C
616.739	0.016	309732	MATH_START	n/a	n/a	-999	-999	n/a	n/a	n/a	n/a	4	[0, 0, 0]	-999	PAL1	0	R1090C
616.755	5.417	309740	PROB	5396.0	n/a	-999	-999	n/a	n/a	n/a	n/a	4	[6, 8, 5]	19	PAL1	0	R1090C
622.172	3.101	312449	PROB	3075.0	n/a	-999	-999	n/a	n/a	n/a	n/a	4	[9, 7, 1]	17	PAL1	0	R1090C
625.273	2.818	313999	PROB	2791.0	n/a	-999	-999	n/a	n/a	n/a	n/a	4	[4, 6, 4]	14	PAL1	0	R1090C
628.091	3.033	315408	PROB	3013.0	n/a	-999	-999	n/a	n/a	n/a	n/a	4	[5, 2, 7]	14	PAL1	0	R1090C
631.124	2.901	316924	PROB	2876.0	n/a	-999	-999	n/a	n/a	n/a	n/a	4	[4, 6, 4]	14	PAL1	0	R1090C
634.025	3.839	318375	PROB	3839.0	n/a	-999	-999	n/a	n/a	n/a	n/a	4	[3, 6, 5]	14	PAL1	0	R1090C
637.864	0.012	320294	STOP	n/a	n/a	-999	-999	n/a	n/a	n/a	n/a	4	[-999, -999, -999]	-999	PAL1	0	R1090C
637.876	0.0	320300	MATH_END	n/a	n/a	-999	-999	n/a	n/a	n/a	n/a	4	[0, 0, 0]	-999	PAL1	0	R1090C
637.876	0.017	320300	TEST_START	n/a	n/a	-999	-999	n/a	n/a	n/a	n/a	4	[0, 0, 0]	-999	PAL1	0	R1090C
637.893	0.275	320309	TEST_ORIENT	n/a	n/a	3	1	SPEAR	FAN	FAN	SPEAR	4	[0, 0, 0]	-999	PAL1	0	R1090C
638.843	0.0	320783	REC_START	n/a	n/a	3	-999	n/a	FAN	n/a	n/a	4	[0, 0, 0]	-999	PAL1	0	R1090C
638.843	4.0	320783	TEST_PROBE	n/a	wordpools/wordpool_EN.txt	3	1	SPEAR	FAN	FAN	SPEAR	4	[0, 0, 0]	-999	PAL1	0	R1090C
639.798	4.062	321261	REC_EVENT	955.0	n/a	3	1	SPEAR	FAN	FAN	SPEAR	4	[0, 0, 0]	-999	PAL1	0	R1090C
643.86	0.017	323292	REC_END	n/a	n/a	3	-999	n/a	n/a	n/a	n/a	4	[0, 0, 0]	-999	PAL1	0	R1090C
643.877	0.275	323300	TEST_ORIENT	n/a	n/a	4	2	EAR	PEARL	PEARL	EAR	4	[0, 0, 0]	-999	PAL1	0	R1090C
644.811	4.0	323767	TEST_PROBE	n/a	wordpools/wordpool_EN.txt	4	2	EAR	PEARL	PEARL	EAR	4	[0, 0, 0]	-999	PAL1	0	R1090C
644.811	4.165	323767	REC_START	n/a	n/a	4	-999	n/a	PEARL	n/a	n/a	4	[0, 0, 0]	-999	PAL1	0	R1090C
648.976	0.852	325850	REC_EVENT	4165.0	n/a	4	2	EAR	PEARL	PEARL	EAR	4	[0, 0, 0]	-999	PAL1	0	R1090C
649.828	0.017	326275	REC_END	n/a	n/a	4	-999	n/a	n/a	n/a	n/a	4	[0, 0, 0]	-999	PAL1	0	R1090C
649.845	0.275	326284	TEST_ORIENT	n/a	n/a	1	3	TOE	n/a	TOE	WEED	4	[0, 0, 0]	-999	PAL1	0	R1090C
650.762	0.0	326742	REC_START	n/a	n/a	1	-999	n/a	n/a	n/a	n/a	4	[0, 0, 0]	-999	PAL1	0	R1090C
650.762	4.0	326742	TEST_PROBE	n/a	wordpools/wordpool_EN.txt	1	3	TOE	n/a	TOE	WEED	4	[0, 0, 0]	-999	PAL1	0	R1090C
655.408	0.371	329065	REC_EVENT	4646.0	n/a	1	3	TOE	<>	TOE	WEED	4	[0, 0, 0]	-999	PAL1	0	R1090C
655.779	0.017	329251	REC_END	n/a	n/a	1	-999	n/a	n/a	n/a	n/a	4	[0, 0, 0]	-999	PAL1	0	R1090C
655.796	0.275	329259	TEST_ORIENT	n/a	n/a	2	4	NAIL	n/a	HAND	NAIL	4	[0, 0, 0]	-999	PAL1	0	R1090C
656.746	4.0	329734	TEST_PROBE	n/a	wordpools/wordpool_EN.txt	2	4	NAIL	n/a	HAND	NAIL	4	[0, 0, 0]	-999	PAL1	0	R1090C
656.747	4.998	329735	REC_START	n/a	n/a	2	-999	n/a	n/a	n/a	n/a	4	[0, 0, 0]	-999	PAL1	0	R1090C
661.745	0.002	332233	REC_EVENT	4998.0	n/a	2	4	NAIL	<>	HAND	NAIL	4	[0, 0, 0]	-999	PAL1	0	R1090C
661.747	0.017	332234	REC_END	n/a	n/a	2	-999	n/a	n/a	n/a	n/a	4	[0, 0, 0]	-999	PAL1	0	R1090C
661.764	0.275	332243	TEST_ORIENT	n/a	n/a	5	5	SEAT	n/a	TOAD	SEAT	4	[0, 0, 0]	-999	PAL1	0	R1090C
662.581	0.0	332651	REC_START	n/a	n/a	5	-999	n/a	n/a	n/a	n/a	4	[0, 0, 0]	-999	PAL1	0	R1090C
662.581	4.0	332651	TEST_PROBE	n/a	wordpools/wordpool_EN.txt	5	5	SEAT	n/a	TOAD	SEAT	4	[0, 0, 0]	-999	PAL1	0	R1090C
664.475	3.123	333598	REC_EVENT	1894.0	n/a	5	5	SEAT	<>	TOAD	SEAT	4	[0, 0, 0]	-999	PAL1	0	R1090C
667.598	0.017	335160	REC_END	n/a	n/a	5	-999	n/a	n/a	n/a	n/a	4	[0, 0, 0]	-999	PAL1	0	R1090C
667.615	0.275	335168	TEST_ORIENT	n/a	n/a	6	6	BRIDGE	n/a	BRIDGE	DOCK	4	[0, 0, 0]	-999	PAL1	0	R1090C
668.431	4.0	335576	TEST_PROBE	n/a	wordpools/wordpool_EN.txt	6	6	BRIDGE	n/a	BRIDGE	DOCK	4	[0, 0, 0]	-999	PAL1	0	R1090C
668.431	2.606	335576	REC_START	n/a	n/a	6	-999	n/a	n/a	n/a	n/a	4	[0, 0, 0]	-999	PAL1	0	R1090C
671.037	2.411	336879	REC_EVENT	2606.0	n/a	6	6	BRIDGE	<>	BRIDGE	DOCK	4	[0, 0, 0]	-999	PAL1	0	R1090C
673.448	1.624	338084	REC_END	n/a	n/a	6	-999	n/a	n/a	n/a	n/a	4	[0, 0, 0]	-999	PAL1	0	R1090C
675.072	10.447	338896	ENCODING_START	n/a	n/a	0	-999	n/a	n/a	n/a	n/a	5	[0, 0, 0]	-999	PAL1	0	R1090C
685.519	0.275	344119	STUDY_ORIENT	n/a	n/a	1	1	BED	ICE	ICE	BED	5	[0, 0, 0]	-999	PAL1	0	R1090C
686.318	4.0	344519	STUDY_PAIR	n/a	wordpools/wordpool_EN.txt	1	1	BED	ICE	ICE	BED	5	[0, 0, 0]	-999	PAL1	0	R1090C
691.352	0.275	347036	STUDY_ORIENT	n/a	n/a	2	2	FLAME	n/a	FLAME	SHELL	5	[0, 0, 0]	-999	PAL1	0	R1090C
692.269	4.0	347494	STUDY_PAIR	n/a	wordpools/wordpool_EN.txt	2	2	FLAME	n/a	FLAME	SHELL	5	[0, 0, 0]	-999	PAL1	0	R1090C
697.303	0.275	350011	STUDY_ORIENT	n/a	n/a	3	3	STONE	BED	STONE	CART	5	[0, 0, 0]	-999	PAL1	0	R1090C
698.237	4.0	350478	STUDY_PAIR	n/a	wordpools/wordpool_EN.txt	3	3	STONE	BED	STONE	CART	5	[0, 0, 0]	-999	PAL1	0	R1090C
703.271	0.275	352995	STUDY_ORIENT	n/a	n/a	4	4	CLOTH	n/a	BROOM	CLOTH	5	[0, 0, 0]	-999	PAL1	0	R1090C
704.188	4.0	353453	STUDY_PAIR	n/a	wordpools/wordpool_EN.txt	4	4	CLOTH	n/a	BROOM	CLOTH	5	[0, 0, 0]	-999	PAL1	0	R1090C
709.222	0.275	355970	STUDY_ORIENT	n/a	n/a	5	5	APE	AXE	AXE	APE	5	[0, 0, 0]	-999	PAL1	0	R1090C
710.107	4.0	356412	STUDY_PAIR	n/a	wordpools/wordpool_EN.txt	5	5	APE	AXE	AXE	APE	5	[0, 0, 0]	-999	PAL1	0	R1090C
715.14	0.275	358929	STUDY_ORIENT	n/a	n/a	6	6	SCHOOL	BRANCH	BRANCH	SCHOOL	5	[0, 0, 0]	-999	PAL1	0	R1090C
716.157	4.0	359437	STUDY_PAIR	n/a	wordpools/wordpool_EN.txt	6	6	SCHOOL	BRANCH	BRANCH	SCHOOL	5	[0, 0, 0]	-999	PAL1	0	R1090C
720.175	0.999	361446	START	n/a	n/a	-999	-999	n/a	n/a	n/a	n/a	5	[-999, -999, -999]	-999	PAL1	0	R1090C
721.174	0.017	361945	MATH_START	n/a	n/a	-999	-999	n/a	n/a	n/a	n/a	5	[0, 0, 0]	-999	PAL1	0	R1090C
721.191	5.051	361954	PROB	5016.0	n/a	-999	-999	n/a	n/a	n/a	n/a	5	[4, 6, 3]	13	PAL1	0	R1090C
726.242	5.552	364479	PROB	5526.0	n/a	-999	-999	n/a	n/a	n/a	n/a	5	[6, 3, 2]	11	PAL1	0	R1090C
731.794	4.901	367255	PROB	4870.0	n/a	-999	-999	n/a	n/a	n/a	n/a	5	[2, 7, 4]	12	PAL1	0	R1090C
736.695	2.817	369705	PROB	2793.0	n/a	-999	-999	n/a	n/a	n/a	n/a	5	[4, 7, 3]	14	PAL1	0	R1090C
739.512	3.751	371114	PROB	3751.0	n/a	-999	-999	n/a	n/a	n/a	n/a	5	[9, 9, 2]	20	PAL1	0	R1090C
743.263	0.016	372989	STOP	n/a	n/a	-999	-999	n/a	n/a	n/a	n/a	5	[-999, -999, -999]	-999	PAL1	0	R1090C
743.279	0.0	372997	MATH_END	n/a	n/a	-999	-999	n/a	n/a	n/a	n/a	5	[0, 0, 0]	-999	PAL1	0	R1090C
743.279	0.016	372997	TEST_START	n/a	n/a	-999	-999	n/a	n/a	n/a	n/a	5	[0, 0, 0]	-999	PAL1	0	R1090C
743.295	0.275	373005	TEST_ORIENT	n/a	n/a	1	1	BED	ICE	ICE	BED	5	[0, 0, 0]	-999	PAL1	0	R1090C
744.145	4.0	373430	TEST_PROBE	n/a	wordpools/wordpool_EN.txt	1	1	BED	ICE	ICE	BED	5	[0, 0, 0]	-999	PAL1	0	R1090C
744.146	1.846	373430	REC_START	n/a	n/a	1	-999	n/a	ICE	n/a	n/a	5	[0, 0, 0]	-999	PAL1	0	R1090C
745.992	3.154	374353	REC_EVENT	1846.0	n/a	1	1	BED	ICE	ICE	BED	5	[0, 0, 0]	-999	PAL1	0	R1090C
749.146	0.017	375930	REC_END	n/a	n/a	1	-999	n/a	n/a	n/a	n/a	5	[0, 0, 0]	-999	PAL1	0	R1090C
749.163	0.275	375939	TEST_ORIENT	n/a	n/a	2	2	FLAME	n/a	FLAME	SHELL	5	[0, 0, 0]	-999	PAL1	0	R1090C
750.014	4.0	376364	TEST_PROBE	n/a	wordpools/wordpool_EN.txt	2	2	FLAME	n/a	FLAME	SHELL	5	[0, 0, 0]	-999	PAL1	0	R1090C
750.015	3.426	376365	REC_START	n/a	n/a	2	-999	n/a	n/a	n/a	n/a	5	[0, 0, 0]	-999	PAL1	0	R1090C
753.441	1.0	378078	REC_EVENT	3426.0	n/a	2	2	FLAME	<>	FLAME	SHELL	5	[0, 0, 0]	-999	PAL1	0	R1090C
754.441	0.582	378578	REC_EVENT	4426.0	n/a	2	2	FLAME	<>	FLAME	SHELL	5	[0, 0, 0]	-999	PAL1	0	R1090C
755.023	0.009	378868	REC_END	n/a	n/a	2	-999	n/a	n/a	n/a	n/a	5	[0, 0, 0]	-999	PAL1	0	R1090C
755.032	0.275	378873	TEST_ORIENT	n/a	n/a	3	3	STONE	BED	STONE	CART	5	[0, 0, 0]	-999	PAL1	0	R1090C
756.049	0.0	379381	REC_START	n/a	n/a	3	-999	n/a	BED	n/a	n/a	5	[0, 0, 0]	-999	PAL1	0	R1090C
756.049	4.0	379381	TEST_PROBE	n/a	wordpools/wordpool_EN.txt	3	3	STONE	BED	STONE	CART	5	[0, 0, 0]	-999	PAL1	0	R1090C
759.288	1.778	381001	REC_EVENT	3239.0	n/a	3	3	STONE	BED	STONE	CART	5	[0, 0, 0]	-999	PAL1	0	R1090C
761.066	0.017	381890	REC_END	n/a	n/a	3	-999	n/a	n/a	n/a	n/a	5	[0, 0, 0]	-999	PAL1	0	R1090C
761.083	0.275	381898	TEST_ORIENT	n/a	n/a	4	4	CLOTH	n/a	BROOM	CLOTH	5	[0, 0, 0]	-999	PAL1	0	R1090C
762.0	4.0	382357	TEST_PROBE	n/a	wordpools/wordpool_EN.txt	4	4	CLOTH	n/a	BROOM	CLOTH	5	[0, 0, 0]	-999	PAL1	0	R1090C
762.0	5.015	382357	REC_START	n/a	n/a	4	-999	n/a	n/a	n/a	n/a	5	[0, 0, 0]	-999	PAL1	0	R1090C
767.015	0.002	384864	REC_EVENT	5015.0	n/a	4	4	CLOTH	<>	BROOM	CLOTH	5	[0, 0, 0]	-999	PAL1	0	R1090C
767.017	0.017	384865	REC_END	n/a	n/a	4	-999	n/a	n/a	n/a	n/a	5	[0, 0, 0]	-999	PAL1	0	R1090C
767.034	0.275	384873	TEST_ORIENT	n/a	n/a	5	5	APE	AXE	AXE	APE	5	[0, 0, 0]	-999	PAL1	0	R1090C
767.868	0.0	385290	REC_START	n/a	n/a	5	-999	n/a	AXE	n/a	n/a	5	[0, 0, 0]	-999	PAL1	0	R1090C
767.868	4.0	385290	TEST_PROBE	n/a	wordpools/wordpool_EN.txt	5	5	APE	AXE	AXE	APE	5	[0, 0, 0]	-999	PAL1	0	R1090C
768.721	4.164	385717	REC_EVENT	853.0	n/a	5	5	APE	AXE	AXE	APE	5	[0, 0, 0]	-999	PAL1	0	R1090C
772.885	0.017	387799	REC_END	n/a	n/a	5	-999	n/a	n/a	n/a	n/a	5	[0, 0, 0]	-999	PAL1	0	R1090C
772.902	0.275	387807	TEST_ORIENT	n/a	n/a	6	6	SCHOOL	BRANCH	BRANCH	SCHOOL	5	[0, 0, 0]	-999	PAL1	0	R1090C
773.902	4.0	388307	TEST_PROBE	n/a	wordpools/wordpool_EN.txt	6	6	SCHOOL	BRANCH	BRANCH	SCHOOL	5	[0, 0, 0]	-999	PAL1	0	R1090C
773.902	2.197	388307	REC_START	n/a	n/a	6	-999	n/a	BRANCH	n/a	n/a	5	[0, 0, 0]	-999	PAL1	0	R1090C
776.099	1.0	389406	REC_EVENT	2197.0	n/a	6	6	SCHOOL	<>	BRANCH	SCHOOL	5	[0, 0, 0]	-999	PAL1	0	R1090C
777.099	0.559	389906	REC_EVENT	3197.0	n/a	6	6	SCHOOL	<>	BRANCH	SCHOOL	5	[0, 0, 0]	-999	PAL1	0	R1090C
777.658	1.262	390185	REC_EVENT	3756.0	n/a	6	6	SCHOOL	BRANCH	BRANCH	SCHOOL	5	[0, 0, 0]	-999	PAL1	0	R1090C
778.92	2.032	390816	REC_END	n/a	n/a	6	-999	n/a	n/a	n/a	n/a	5	[0, 0, 0]	-999	PAL1	0	R1090C
780.952	10.453	391832	ENCODING_START	n/a	n/a	0	-999	n/a	n/a	n/a	n/a	6	[0, 0, 0]	-999	PAL1	0	R1090C
791.405	0.275	397058	STUDY_ORIENT	n/a	n/a	1	3	RIB	SNAIL	SNAIL	RIB	6	[0, 0, 0]	-999	PAL1	0	R1090C
792.238	4.0	397474	STUDY_PAIR	n/a	wordpools/wordpool_EN.txt	1	3	RIB	SNAIL	SNAIL	RIB	6	[0, 0, 0]	-999	PAL1	0	R1090C
797.272	0.275	399991	STUDY_ORIENT	n/a	n/a	2	4	SWORD	FROG	FROG	SWORD	6	[0, 0, 0]	-999	PAL1	0	R1090C
798.173	4.0	400442	STUDY_PAIR	n/a	wordpools/wordpool_EN.txt	2	4	SWORD	FROG	FROG	SWORD	6	[0, 0, 0]	-999	PAL1	0	R1090C
803.207	0.275	402958	STUDY_ORIENT	n/a	n/a	3	5	SUIT	n/a	SUIT	ANT	6	[0, 0, 0]	-999	PAL1	0	R1090C
804.058	4.0	403384	STUDY_PAIR	n/a	wordpools/wordpool_EN.txt	3	5	SUIT	n/a	SUIT	ANT	6	[0, 0, 0]	-999	PAL1	0	R1090C
809.092	0.275	405901	STUDY_ORIENT	n/a	n/a	4	6	JET	n/a	SHOE	JET	6	[0, 0, 0]	-999	PAL1	0	R1090C
809.976	4.0	406343	STUDY_PAIR	n/a	wordpools/wordpool_EN.txt	4	6	JET	n/a	SHOE	JET	6	[0, 0, 0]	-999	PAL1	0	R1090C
815.01	0.275	408859	STUDY_ORIENT	n/a	n/a	5	1	JAIL	WORLD	JAIL	WORLD	6	[0, 0, 0]	-999	PAL1	0	R1090C
816.01	4.0	409359	STUDY_PAIR	n/a	wordpools/wordpool_EN.txt	5	1	JAIL	WORLD	JAIL	WORLD	6	[0, 0, 0]	-999	PAL1	0	R1090C
821.028	0.275	411868	STUDY_ORIENT	n/a	n/a	6	2	BATH	n/a	BATH	HOLE	6	[0, 0, 0]	-999	PAL1	0	R1090C
821.878	4.0	412293	STUDY_PAIR	n/a	wordpools/wordpool_EN.txt	6	2	BATH	n/a	BATH	HOLE	6	[0, 0, 0]	-999	PAL1	0	R1090C
825.896	0.999	414302	START	n/a	n/a	-999	-999	n/a	n/a	n/a	n/a	6	[-999, -999, -999]	-999	PAL1	0	R1090C
826.895	0.017	414801	MATH_START	n/a	n/a	-999	-999	n/a	n/a	n/a	n/a	6	[0, 0, 0]	-999	PAL1	0	R1090C
826.912	5.602	414810	PROB	5576.0	n/a	-999	-999	n/a	n/a	n/a	n/a	6	[5, 4, 7]	16	PAL1	0	R1090C
832.514	7.917	417611	PROB	7893.0	n/a	-999	-999	n/a	n/a	n/a	n/a	6	[6, 7, 9]	21	PAL1	0	R1090C
840.431	3.051	421569	PROB	3016.0	n/a	-999	-999	n/a	n/a	n/a	n/a	6	[4, 1, 8]	13	PAL1	0	R1090C
843.482	3.829	423094	PROB	3829.0	n/a	-999	-999	n/a	n/a	n/a	n/a	6	[8, 8, 5]	21	PAL1	0	R1090C
847.311	0.004	425009	STOP	n/a	n/a	-999	-999	n/a	n/a	n/a	n/a	6	[-999, -999, -999]	-999	PAL1	0	R1090C
847.315	0.0	425011	MATH_END	n/a	n/a	-999	-999	n/a	n/a	n/a	n/a	6	[0, 0, 0]	-999	PAL1	0	R1090C
847.315	0.017	425011	TEST_START	n/a	n/a	-999	-999	n/a	n/a	n/a	n/a	6	[0, 0, 0]	-999	PAL1	0	R1090C
847.332	0.275	425019	TEST_ORIENT	n/a	n/a	5	1	JAIL	WORLD	JAIL	WORLD	6	[0, 0, 0]	-999	PAL1	0	R1090C
848.315	4.0	425510	TEST_PROBE	n/a	wordpools/wordpool_EN.txt	5	1	JAIL	WORLD	JAIL	WORLD	6	[0, 0, 0]	-999	PAL1	0	R1090C
848.317	2.101	425511	REC_START	n/a	n/a	5	-999	n/a	WORLD	n/a	n/a	6	[0, 0, 0]	-999	PAL1	0	R1090C
850.418	2.898	426562	REC_EVENT	2101.0	n/a	5	1	JAIL	WORLD	JAIL	WORLD	6	[0, 0, 0]	-999	PAL1	0	R1090C
853.316	0.017	428011	REC_END	n/a	n/a	5	-999	n/a	n/a	n/a	n/a	6	[0, 0, 0]	-999	PAL1	0	R1090C
853.333	0.275	428019	TEST_ORIENT	n/a	n/a	6	2	BATH	n/a	BATH	HOLE	6	[0, 0, 0]	-999	PAL1	0	R1090C
854.133	4.0	428419	TEST_PROBE	n/a	wordpools/wordpool_EN.txt	6	2	BATH	n/a	BATH	HOLE	6	[0, 0, 0]	-999	PAL1	0	R1090C
854.134	4.074	428420	REC_START	n/a	n/a	6	-999	n/a	n/a	n/a	n/a	6	[0, 0, 0]	-999	PAL1	0	R1090C
858.208	0.935	430457	REC_EVENT	4074.0	n/a	6	2	BATH	<>	BATH	HOLE	6	[0, 0, 0]	-999	PAL1	0	R1090C
859.143	0.0	430924	REC_END	n/a	n/a	6	-999	n/a	n/a	n/a	n/a	6	[0, 0, 0]	-999	PAL1	0	R1090C
859.143	0.008	430924	REC_EVENT	5009.0	n/a	6	2	BATH	<>	BATH	HOLE	6	[0, 0, 0]	-999	PAL1	0	R1090C
859.151	0.275	430928	TEST_ORIENT	n/a	n/a	1	3	RIB	SNAIL	SNAIL	RIB	6	[0, 0, 0]	-999	PAL1	0	R1090C
860.019	4.0	431362	TEST_PROBE	n/a	wordpools/wordpool_EN.txt	1	3	RIB	SNAIL	SNAIL	RIB	6	[0, 0, 0]	-999	PAL1	0	R1090C
860.019	2.419	431362	REC_START	n/a	n/a	1	-999	n/a	SNAIL	n/a	n/a	6	[0, 0, 0]	-999	PAL1	0	R1090C
862.438	2.598	432571	REC_EVENT	2419.0	n/a	1	3	RIB	SNAIL	SNAIL	RIB	6	[0, 0, 0]	-999	PAL1	0	R1090C
865.036	0.017	433870	REC_END	n/a	n/a	1	-999	n/a	n/a	n/a	n/a	6	[0, 0, 0]	-999	PAL1	0	R1090C
865.053	0.275	433879	TEST_ORIENT	n/a	n/a	2	4	SWORD	FROG	FROG	SWORD	6	[0, 0, 0]	-999	PAL1	0	R1090C
866.07	0.0	434387	REC_START	n/a	n/a	2	-999	n/a	FROG	n/a	n/a	6	[0, 0, 0]	-999	PAL1	0	R1090C
866.07	4.0	434387	TEST_PROBE	n/a	wordpools/wordpool_EN.txt	2	4	SWORD	FROG	FROG	SWORD	6	[0, 0, 0]	-999	PAL1	0	R1090C
867.021	4.066	434863	REC_EVENT	951.0	n/a	2	4	SWORD	FROG	FROG	SWORD	6	[0, 0, 0]	-999	PAL1	0	R1090C
871.087	0.017	436896	REC_END	n/a	n/a	2	-999	n/a	n/a	n/a	n/a	6	[0, 0, 0]	-999	PAL1	0	R1090C
871.104	0.275	436904	TEST_ORIENT	n/a	n/a	3	5	SUIT	n/a	SUIT	ANT	6	[0, 0, 0]	-999	PAL1	0	R1090C
872.038	4.0	437371	TEST_PROBE	n/a	wordpools/wordpool_EN.txt	3	5	SUIT	n/a	SUIT	ANT	6	[0, 0, 0]	-999	PAL1	0	R1090C
872.038	5.015	437371	REC_START	n/a	n/a	3	-999	n/a	n/a	n/a	n/a	6	[0, 0, 0]	-999	PAL1	0	R1090C
877.053	0.002	439878	REC_EVENT	5015.0	n/a	3	5	SUIT	<>	SUIT	ANT	6	[0, 0, 0]	-999	PAL1	0	R1090C
877.055	0.017	439879	REC_END	n/a	n/a	3	-999	n/a	n/a	n/a	n/a	6	[0, 0, 0]	-999	PAL1	0	R1090C
877.072	0.275	439888	TEST_ORIENT	n/a	n/a	4	6	JET	n/a	SHOE	JET	6	[0, 0, 0]	-999	PAL1	0	R1090C
877.905	4.0	440304	TEST_PROBE	n/a	wordpools/wordpool_EN.txt	4	6	JET	n/a	SHOE	JET	6	[0, 0, 0]	-999	PAL1	0	R1090C
877.906	1.02	440305	REC_START	n/a	n/a	4	-999	n/a	n/a	n/a	n/a	6	[0, 0, 0]	-999	PAL1	0	R1090C
878.926	3.989	440815	REC_EVENT	1020.0	n/a	4	6	JET	<>	SHOE	JET	6	[0, 0, 0]	-999	PAL1	0	R1090C
882.915	0.0	442809	REC_EVENT	5009.0	n/a	4	6	JET	<>	SHOE	JET	6	[0, 0, 0]	-999	PAL1	0	R1090C
882.915	1.749	442809	REC_END	n/a	n/a	4	-999	n/a	n/a	n/a	n/a	6	[0, 0, 0]	-999	PAL1	0	R1090C
884.664	10.445	443683	ENCODING_START	n/a	n/a	0	-999	n/a	n/a	n/a	n/a	7	[0, 0, 0]	-999	PAL1	0	R1090C
895.109	0.275	448905	STUDY_ORIENT	n/a	n/a	1	3	CROW	n/a	SINK	CROW	7	[0, 0, 0]	-999	PAL1	0	R1090C
895.959	4.0	449330	STUDY_PAIR	n/a	wordpools/wordpool_EN.txt	1	3	CROW	n/a	SINK	CROW	7	[0, 0, 0]	-999	PAL1	0	R1090C
900.993	0.275	451847	STUDY_ORIENT	n/a	n/a	2	6	TEETH	n/a	DART	TEETH	7	[0, 0, 0]	-999	PAL1	0	R1090C
901.91	4.0	452306	STUDY_PAIR	n/a	wordpools/wordpool_EN.txt	2	6	TEETH	n/a	DART	TEETH	7	[0, 0, 0]	-999	PAL1	0	R1090C
906.944	0.275	454822	STUDY_ORIENT	n/a	n/a	3	5	BRICK	n/a	SEED	BRICK	7	[0, 0, 0]	-999	PAL1	0	R1090C
907.828	4.0	455264	STUDY_PAIR	n/a	wordpools/wordpool_EN.txt	3	5	BRICK	n/a	SEED	BRICK	7	[0, 0, 0]	-999	PAL1	0	R1090C
912.862	0.275	457781	STUDY_ORIENT	n/a	n/a	4	2	PASTE	SEED	PASTE	STORE	7	[0, 0, 0]	-999	PAL1	0	R1090C
913.712	4.0	458206	STUDY_PAIR	n/a	wordpools/wordpool_EN.txt	4	2	PASTE	SEED	PASTE	STORE	7	[0, 0, 0]	-999	PAL1	0	R1090C
918.73	0.275	460715	STUDY_ORIENT	n/a	n/a	5	1	TRASH	n/a	TRASH	SHARK	7	[0, 0, 0]	-999	PAL1	0	R1090C
919.68	4.0	461190	STUDY_PAIR	n/a	wordpools/wordpool_EN.txt	5	1	TRASH	n/a	TRASH	SHARK	7	[0, 0, 0]	-999	PAL1	0	R1090C
924.698	0.275	463699	STUDY_ORIENT	n/a	n/a	6	4	RAIN	DEER	DEER	RAIN	7	[0, 0, 0]	-999	PAL1	0	R1090C
925.565	4.0	464132	STUDY_PAIR	n/a	wordpools/wordpool_EN.txt	6	4	RAIN	DEER	DEER	RAIN	7	[0, 0, 0]	-999	PAL1	0	R1090C
929.583	0.999	466141	START	n/a	n/a	-999	-999	n/a	n/a	n/a	n/a	7	[-999, -999, -999]	-999	PAL1	0	R1090C
930.582	0.017	466640	MATH_START	n/a	n/a	-999	-999	n/a	n/a	n/a	n/a	7	[0, 0, 0]	-999	PAL1	0	R1090C
930.599	12.851	466649	PROB	12824.0	n/a	-999	-999	n/a	n/a	n/a	n/a	7	[6, 9, 7]	22	PAL1	0	R1090C
943.45	6.837	473074	PROB	6837.0	n/a	-999	-999	n/a	n/a	n/a	n/a	7	[7, 4, 8]	17	PAL1	0	R1090C
950.287	0.015	476492	STOP	n/a	n/a	-999	-999	n/a	n/a	n/a	n/a	7	[-999, -999, -999]	-999	PAL1	0	R1090C
950.302	0.0	476500	MATH_END	n/a	n/a	-999	-999	n/a	n/a	n/a	n/a	7	[0, 0, 0]	-999	PAL1	0	R1090C
950.302	0.016	476500	TEST_START	n/a	n/a	-999	-999	n/a	n/a	n/a	n/a	7	[0, 0, 0]	-999	PAL1	0	R1090C
950.318	0.275	476508	TEST_ORIENT	n/a	n/a	5	1	TRASH	n/a	TRASH	SHARK	7	[0, 0, 0]	-999	PAL1	0	R1090C
951.285	4.0	476991	TEST_PROBE	n/a	wordpools/wordpool_EN.txt	5	1	TRASH	n/a	TRASH	SHARK	7	[0, 0, 0]	-999	PAL1	0	R1090C
951.285	2.369	476991	REC_START	n/a	n/a	5	-999	n/a	n/a	n/a	n/a	7	[0, 0, 0]	-999	PAL1	0	R1090C
953.654	1.504	478175	REC_EVENT	2369.0	n/a	5	1	TRASH	<>	TRASH	SHARK	7	[0, 0, 0]	-999	PAL1	0	R1090C
955.158	1.145	478927	REC_EVENT	3873.0	n/a	5	1	TRASH	<>	TRASH	SHARK	7	[0, 0, 0]	-999	PAL1	0	R1090C
956.303	0.016	479500	REC_END	n/a	n/a	5	-999	n/a	n/a	n/a	n/a	7	[0, 0, 0]	-999	PAL1	0	R1090C
956.319	0.275	479508	TEST_ORIENT	n/a	n/a	4	2	PASTE	SEED	PASTE	STORE	7	[0, 0, 0]	-999	PAL1	0	R1090C
957.153	4.0	479925	TEST_PROBE	n/a	wordpools/wordpool_EN.txt	4	2	PASTE	SEED	PASTE	STORE	7	[0, 0, 0]	-999	PAL1	0	R1090C
957.153	0.766	479925	REC_START	n/a	n/a	4	-999	n/a	SEED	n/a	n/a	7	[0, 0, 0]	-999	PAL1	0	R1090C
957.919	4.251	480308	REC_EVENT	766.0	n/a	4	2	PASTE	SEED	PASTE	STORE	7	[0, 0, 0]	-999	PAL1	0	R1090C
962.17	0.017	482433	REC_END	n/a	n/a	4	-999	n/a	n/a	n/a	n/a	7	[0, 0, 0]	-999	PAL1	0	R1090C
962.187	0.275	482442	TEST_ORIENT	n/a	n/a	1	3	CROW	n/a	SINK	CROW	7	[0, 0, 0]	-999	PAL1	0	R1090C
963.137	4.0	482917	TEST_PROBE	n/a	wordpools/wordpool_EN.txt	1	3	CROW	n/a	SINK	CROW	7	[0, 0, 0]	-999	PAL1	0	R1090C
963.138	3.652	482917	REC_START	n/a	n/a	1	-999	n/a	n/a	n/a	n/a	7	[0, 0, 0]	-999	PAL1	0	R1090C
966.79	1.357	484743	REC_EVENT	3652.0	n/a	1	3	CROW	<>	SINK	CROW	7	[0, 0, 0]	-999	PAL1	0	R1090C
968.147	0.008	485421	REC_END	n/a	n/a	1	-999	n/a	n/a	n/a	n/a	7	[0, 0, 0]	-999	PAL1	0	R1090C
968.155	0.275	485425	TEST_ORIENT	n/a	n/a	6	4	RAIN	DEER	DEER	RAIN	7	[0, 0, 0]	-999	PAL1	0	R1090C
969.04	0.0	485868	REC_START	n/a	n/a	6	-999	n/a	DEER	n/a	n/a	7	[0, 0, 0]	-999	PAL1	0	R1090C
969.04	4.0	485868	TEST_PROBE	n/a	wordpools/wordpool_EN.txt	6	4	RAIN	DEER	DEER	RAIN	7	[0, 0, 0]	-999	PAL1	0	R1090C
970.92	3.137	486808	REC_EVENT	1880.0	n/a	6	4	RAIN	DEER	DEER	RAIN	7	[0, 0, 0]	-999	PAL1	0	R1090C
974.057	0.017	488376	REC_END	n/a	n/a	6	-999	n/a	n/a	n/a	n/a	7	[0, 0, 0]	-999	PAL1	0	R1090C
974.074	0.275	488385	TEST_ORIENT	n/a	n/a	3	5	BRICK	n/a	SEED	BRICK	7	[0, 0, 0]	-999	PAL1	0	R1090C
975.024	4.0	488860	TEST_PROBE	n/a	wordpools/wordpool_EN.txt	3	5	BRICK	n/a	SEED	BRICK	7	[0, 0, 0]	-999	PAL1	0	R1090C
975.025	5.015	488860	REC_START	n/a	n/a	3	-999	n/a	n/a	n/a	n/a	7	[0, 0, 0]	-999	PAL1	0	R1090C
980.04	0.001	491367	REC_EVENT	5015.0	n/a	3	5	BRICK	<>	SEED	BRICK	7	[0, 0, 0]	-999	PAL1	0	R1090C
980.041	0.017	491368	REC_END	n/a	n/a	3	-999	n/a	n/a	n/a	n/a	7	[0, 0, 0]	-999	PAL1	0	R1090C
980.058	0.275	491376	TEST_ORIENT	n/a	n/a	2	6	TEETH	n/a	DART	TEETH	7	[0, 0, 0]	-999	PAL1	0	R1090C
981.075	4.0	491885	TEST_PROBE	n/a	wordpools/wordpool_EN.txt	2	6	TEETH	n/a	DART	TEETH	7	[0, 0, 0]	-999	PAL1	0	R1090C
981.076	1.39	491885	REC_START	n/a	n/a	2	-999	n/a	n/a	n/a	n/a	7	[0, 0, 0]	-999	PAL1	0	R1090C
982.466	3.619	492580	REC_EVENT	1390.0	n/a	2	6	TEETH	<>	DART	TEETH	7	[0, 0, 0]	-999	PAL1	0	R1090C
986.085	25.003	494390	REC_END	n/a	n/a	2	-999	n/a	n/a	n/a	n/a	7	[0, 0, 0]	-999	PAL1	0	R1090C
1011.088	10.445	506890	ENCODING_START	n/a	n/a	0	-999	n/a	n/a	n/a	n/a	8	[0, 0, 0]	-999	PAL1	0	R1090C
1021.533	0.275	512112	STUDY_ORIENT	n/a	n/a	1	1	COIN	BOX	COIN	BOX	8	[0, 0, 0]	-999	PAL1	0	R1090C
1022.315	4.0	512503	STUDY_PAIR	n/a	wordpools/wordpool_EN.txt	1	1	COIN	BOX	COIN	BOX	8	[0, 0, 0]	-999	PAL1	0	R1090C
1027.333	0.275	515012	STUDY_ORIENT	n/a	n/a	2	2	WING	n/a	WING	CASH	8	[0, 0, 0]	-999	PAL1	0	R1090C
1028.183	4.0	515437	STUDY_PAIR	n/a	wordpools/wordpool_EN.txt	2	2	WING	n/a	WING	CASH	8	[0, 0, 0]	-999	PAL1	0	R1090C
1033.201	0.275	517946	STUDY_ORIENT	n/a	n/a	3	3	LAWN	n/a	SHIP	LAWN	8	[0, 0, 0]	-999	PAL1	0	R1090C
1034.134	4.0	518412	STUDY_PAIR	n/a	wordpools/wordpool_EN.txt	3	3	LAWN	n/a	SHIP	LAWN	8	[0, 0, 0]	-999	PAL1	0	R1090C
1039.152	0.275	520921	STUDY_ORIENT	n/a	n/a	4	4	PIG	n/a	BOOT	PIG	8	[0, 0, 0]	-999	PAL1	0	R1090C
1039.937	4.0	521313	STUDY_PAIR	n/a	wordpools/wordpool_EN.txt	4	4	PIG	n/a	BOOT	PIG	8	[0, 0, 0]	-999	PAL1	0	R1090C
1044.971	0.275	523830	STUDY_ORIENT	n/a	n/a	5	5	SWAMP	n/a	NEST	SWAMP	8	[0, 0, 0]	-999	PAL1	0	R1090C
1045.771	4.0	524230	STUDY_PAIR	n/a	wordpools/wordpool_EN.txt	5	5	SWAMP	n/a	NEST	SWAMP	8	[0, 0, 0]	-999	PAL1	0	R1090C
1050.805	0.275	526747	STUDY_ORIENT	n/a	n/a	6	6	BOARD	PASTE	BOARD	SPONGE	8	[0, 0, 0]	-999	PAL1	0	R1090C
1051.839	4.0	527264	STUDY_PAIR	n/a	wordpools/wordpool_EN.txt	6	6	BOARD	PASTE	BOARD	SPONGE	8	[0, 0, 0]	-999	PAL1	0	R1090C
1055.857	0.999	529273	START	n/a	n/a	-999	-999	n/a	n/a	n/a	n/a	8	[-999, -999, -999]	-999	PAL1	0	R1090C
1056.856	0.017	529772	MATH_START	n/a	n/a	-999	-999	n/a	n/a	n/a	n/a	8	[0, 0, 0]	-999	PAL1	0	R1090C
1056.873	5.718	529781	PROB	5687.0	n/a	-999	-999	n/a	n/a	n/a	n/a	8	[9, 5, 4]	18	PAL1	0	R1090C
1062.591	6.284	532639	PROB	6265.0	n/a	-999	-999	n/a	n/a	n/a	n/a	8	[9, 5, 7]	21	PAL1	0	R1090C
1068.875	4.685	535781	PROB	4661.0	n/a	-999	-999	n/a	n/a	n/a	n/a	8	[6, 6, 8]	20	PAL1	0	R1090C
1073.56	3.671	538123	PROB	3671.0	n/a	-999	-999	n/a	n/a	n/a	n/a	8	[5, 8, 8]	21	PAL1	0	R1090C
1077.231	0.012	539959	STOP	n/a	n/a	-999	-999	n/a	n/a	n/a	n/a	8	[-999, -999, -999]	-999	PAL1	0	R1090C
1077.243	0.0	539965	MATH_END	n/a	n/a	-999	-999	n/a	n/a	n/a	n/a	8	[0, 0, 0]	-999	PAL1	0	R1090C
1077.243	0.016	539965	TEST_START	n/a	n/a	-999	-999	n/a	n/a	n/a	n/a	8	[0, 0, 0]	-999	PAL1	0	R1090C
1077.259	0.275	539973	TEST_ORIENT	n/a	n/a	1	1	COIN	BOX	COIN	BOX	8	[0, 0, 0]	-999	PAL1	0	R1090C
1078.044	4.0	540365	TEST_PROBE	n/a	wordpools/wordpool_EN.txt	1	1	COIN	BOX	COIN	BOX	8	[0, 0, 0]	-999	PAL1	0	R1090C
1078.044	1.053	540365	REC_START	n/a	n/a	1	-999	n/a	BOX	n/a	n/a	8	[0, 0, 0]	-999	PAL1	0	R1090C
1079.097	3.964	540892	REC_EVENT	1053.0	n/a	1	1	COIN	BOX	COIN	BOX	8	[0, 0, 0]	-999	PAL1	0	R1090C
1083.061	0.017	542873	REC_END	n/a	n/a	1	-999	n/a	n/a	n/a	n/a	8	[0, 0, 0]	-999	PAL1	0	R1090C
1083.078	0.275	542882	TEST_ORIENT	n/a	n/a	2	2	WING	n/a	WING	CASH	8	[0, 0, 0]	-999	PAL1	0	R1090C
1084.078	4.0	543382	TEST_PROBE	n/a	wordpools/wordpool_EN.txt	2	2	WING	n/a	WING	CASH	8	[0, 0, 0]	-999	PAL1	0	R1090C
1084.079	5.008	543382	REC_START	n/a	n/a	2	-999	n/a	n/a	n/a	n/a	8	[0, 0, 0]	-999	PAL1	0	R1090C
1089.087	0.001	545886	REC_END	n/a	n/a	2	-999	n/a	n/a	n/a	n/a	8	[0, 0, 0]	-999	PAL1	0	R1090C
1089.088	0.008	545887	REC_EVENT	5009.0	n/a	2	2	WING	<>	WING	CASH	8	[0, 0, 0]	-999	PAL1	0	R1090C
1089.096	0.275	545891	TEST_ORIENT	n/a	n/a	3	3	LAWN	n/a	SHIP	LAWN	8	[0, 0, 0]	-999	PAL1	0	R1090C
1090.113	4.0	546399	TEST_PROBE	n/a	wordpools/wordpool_EN.txt	3	3	LAWN	n/a	SHIP	LAWN	8	[0, 0, 0]	-999	PAL1	0	R1090C
1090.113	5.032	546399	REC_START	n/a	n/a	3	-999	n/a	n/a	n/a	n/a	8	[0, 0, 0]	-999	PAL1	0	R1090C
1095.145	0.001	548915	REC_EVENT	5032.0	n/a	3	3	LAWN	<>	SHIP	LAWN	8	[0, 0, 0]	-999	PAL1	0	R1090C
1095.146	0.017	548915	REC_END	n/a	n/a	3	-999	n/a	n/a	n/a	n/a	8	[0, 0, 0]	-999	PAL1	0	R1090C
1095.163	0.275	548924	TEST_ORIENT	n/a	n/a	4	4	PIG	n/a	BOOT	PIG	8	[0, 0, 0]	-999	PAL1	0	R1090C
1096.163	0.0	549424	REC_START	n/a	n/a	4	-999	n/a	n/a	n/a	n/a	8	[0, 0, 0]	-999	PAL1	0	R1090C
1096.163	4.0	549424	TEST_PROBE	n/a	wordpools/wordpool_EN.txt	4	4	PIG	n/a	BOOT	PIG	8	[0, 0, 0]	-999	PAL1	0	R1090C
1097.257	3.923	549971	REC_EVENT	1094.0	n/a	4	4	PIG	<>	BOOT	PIG	8	[0, 0, 0]	-999	PAL1	0	R1090C
1101.18	0.017	551932	REC_END	n/a	n/a	4	-999	n/a	n/a	n/a	n/a	8	[0, 0, 0]	-999	PAL1	0	R1090C
1101.197	0.275	551941	TEST_ORIENT	n/a	n/a	5	5	SWAMP	n/a	NEST	SWAMP	8	[0, 0, 0]	-999	PAL1	0	R1090C
1102.015	4.0	552350	TEST_PROBE	n/a	wordpools/wordpool_EN.txt	5	5	SWAMP	n/a	NEST	SWAMP	8	[0, 0, 0]	-999	PAL1	0	R1090C
1102.016	1.92	552350	REC_START	n/a	n/a	5	-999	n/a	n/a	n/a	n/a	8	[0, 0, 0]	-999	PAL1	0	R1090C
1103.936	2.181	553310	REC_EVENT	1920.0	n/a	5	5	SWAMP	<>	NEST	SWAMP	8	[0, 0, 0]	-999	PAL1	0	R1090C
1106.117	0.924	554400	REC_EVENT	4101.0	n/a	5	5	SWAMP	<>	NEST	SWAMP	8	[0, 0, 0]	-999	PAL1	0	R1090C
1107.041	0.008	554862	REC_END	n/a	n/a	5	-999	n/a	n/a	n/a	n/a	8	[0, 0, 0]	-999	PAL1	0	R1090C
1107.049	0.275	554866	TEST_ORIENT	n/a	n/a	6	6	BOARD	PASTE	BOARD	SPONGE	8	[0, 0, 0]	-999	PAL1	0	R1090C
1107.966	0.0	555325	REC_EVENT	0.0	n/a	6	6	BOARD	<>	BOARD	SPONGE	8	[0, 0, 0]	-999	PAL1	0	R1090C
1107.966	0.0	555325	REC_START	n/a	n/a	6	-999	n/a	PASTE	n/a	n/a	8	[0, 0, 0]	-999	PAL1	0	R1090C
1107.966	4.0	555325	TEST_PROBE	n/a	wordpools/wordpool_EN.txt	6	6	BOARD	PASTE	BOARD	SPONGE	8	[0, 0, 0]	-999	PAL1	0	R1090C
1108.966	1.0	555825	REC_EVENT	1000.0	n/a	6	6	BOARD	<>	BOARD	SPONGE	8	[0, 0, 0]	-999	PAL1	0	R1090C
1109.966	0.844	556325	REC_EVENT	2000.0	n/a	6	6	BOARD	<>	BOARD	SPONGE	8	[0, 0, 0]	-999	PAL1	0	R1090C
1110.81	0.525	556747	REC_EVENT	2844.0	n/a	6	6	BOARD	WIPE	BOARD	SPONGE	8	[0, 0, 0]	-999	PAL1	0	R1090C
1111.335	0.545	557009	REC_EVENT	3369.0	n/a	6	6	BOARD	PASTE	BOARD	SPONGE	8	[0, 0, 0]	-999	PAL1	0	R1090C
1111.88	1.104	557282	REC_EVENT	3914.0	n/a	6	6	BOARD	<>	BOARD	SPONGE	8	[0, 0, 0]	-999	PAL1	0	R1090C
1112.984	1.656	557834	REC_END	n/a	n/a	6	-999	n/a	n/a	n/a	n/a	8	[0, 0, 0]	-999	PAL1	0	R1090C
1114.64	10.446	558662	ENCODING_START	n/a	n/a	0	-999	n/a	n/a	n/a	n/a	9	[0, 0, 0]	-999	PAL1	0	R1090C
1125.086	0.275	563884	STUDY_ORIENT	n/a	n/a	1	3	SHEEP	n/a	SHEEP	ROOT	9	[0, 0, 0]	-999	PAL1	0	R1090C
1125.92	4.0	564301	STUDY_PAIR	n/a	wordpools/wordpool_EN.txt	1	3	SHEEP	n/a	SHEEP	ROOT	9	[0, 0, 0]	-999	PAL1	0	R1090C
1130.954	0.275	566818	STUDY_ORIENT	n/a	n/a	2	6	PHONE	n/a	PHONE	CALF	9	[0, 0, 0]	-999	PAL1	0	R1090C
1131.737	4.0	567209	STUDY_PAIR	n/a	wordpools/wordpool_EN.txt	2	6	PHONE	n/a	PHONE	CALF	9	[0, 0, 0]	-999	PAL1	0	R1090C
1136.755	0.275	569718	STUDY_ORIENT	n/a	n/a	3	1	STEAM	n/a	STEAM	BUSH	9	[0, 0, 0]	-999	PAL1	0	R1090C
1137.622	4.0	570152	STUDY_PAIR	n/a	wordpools/wordpool_EN.txt	3	1	STEAM	n/a	STEAM	BUSH	9	[0, 0, 0]	-999	PAL1	0	R1090C
1142.656	0.275	572668	STUDY_ORIENT	n/a	n/a	4	2	SOCK	SOCK	SOCK	CANE	9	[0, 0, 0]	-999	PAL1	0	R1090C
1143.523	4.0	573102	STUDY_PAIR	n/a	wordpools/wordpool_EN.txt	4	2	SOCK	SOCK	SOCK	CANE	9	[0, 0, 0]	-999	PAL1	0	R1090C
1148.557	0.275	575619	STUDY_ORIENT	n/a	n/a	5	5	DIME	LAWN	LAND	DIME	9	[0, 0, 0]	-999	PAL1	0	R1090C
1149.574	4.0	576127	STUDY_PAIR	n/a	wordpools/wordpool_EN.txt	5	5	DIME	LAWN	LAND	DIME	9	[0, 0, 0]	-999	PAL1	0	R1090C
1154.592	0.275	578636	STUDY_ORIENT	n/a	n/a	6	4	SKI	SALT	SKI	SALT	9	[0, 0, 0]	-999	PAL1	0	R1090C
1155.575	4.0	579127	STUDY_PAIR	n/a	wordpools/wordpool_EN.txt	6	4	SKI	SALT	SKI	SALT	9	[0, 0, 0]	-999	PAL1	0	R1090C
1159.576	1.0	581128	START	n/a	n/a	-999	-999	n/a	n/a	n/a	n/a	9	[-999, -999, -999]	-999	PAL1	0	R1090C
1160.576	0.017	581628	MATH_START	n/a	n/a	-999	-999	n/a	n/a	n/a	n/a	9	[0, 0, 0]	-999	PAL1	0	R1090C
1160.593	4.85	581636	PROB	4830.0	n/a	-999	-999	n/a	n/a	n/a	n/a	9	[8, 4, 8]	20	PAL1	0	R1090C
1165.443	3.867	584061	PROB	3836.0	n/a	-999	-999	n/a	n/a	n/a	n/a	9	[1, 2, 6]	9	PAL1	0	R1090C
1169.31	3.851	585994	PROB	3817.0	n/a	-999	-999	n/a	n/a	n/a	n/a	9	[5, 3, 7]	15	PAL1	0	R1090C
1173.161	8.166	587920	PROB	8166.0	n/a	-999	-999	n/a	n/a	n/a	n/a	9	[6, 6, 9]	23	PAL1	0	R1090C
1181.327	0.019	592002	STOP	n/a	n/a	-999	-999	n/a	n/a	n/a	n/a	9	[-999, -999, -999]	-999	PAL1	0	R1090C
1181.346	0.0	592012	MATH_END	n/a	n/a	-999	-999	n/a	n/a	n/a	n/a	9	[0, 0, 0]	-999	PAL1	0	R1090C
1181.346	0.017	592012	TEST_START	n/a	n/a	-999	-999	n/a	n/a	n/a	n/a	9	[0, 0, 0]	-999	PAL1	0	R1090C
1181.363	0.275	592020	TEST_ORIENT	n/a	n/a	3	1	STEAM	n/a	STEAM	BUSH	9	[0, 0, 0]	-999	PAL1	0	R1090C
1182.246	4.0	592462	TEST_PROBE	n/a	wordpools/wordpool_EN.txt	3	1	STEAM	n/a	STEAM	BUSH	9	[0, 0, 0]	-999	PAL1	0	R1090C
1182.247	5.003	592462	REC_START	n/a	n/a	3	-999	n/a	n/a	n/a	n/a	9	[0, 0, 0]	-999	PAL1	0	R1090C
1187.25	0.006	594963	REC_EVENT	5003.0	n/a	3	1	STEAM	<>	STEAM	BUSH	9	[0, 0, 0]	-999	PAL1	0	R1090C
1187.256	0.008	594966	REC_END	n/a	n/a	3	-999	n/a	n/a	n/a	n/a	9	[0, 0, 0]	-999	PAL1	0	R1090C
1187.264	0.275	594970	TEST_ORIENT	n/a	n/a	4	2	SOCK	SOCK	SOCK	CANE	9	[0, 0, 0]	-999	PAL1	0	R1090C
1188.197	4.0	595437	TEST_PROBE	n/a	wordpools/wordpool_EN.txt	4	2	SOCK	SOCK	SOCK	CANE	9	[0, 0, 0]	-999	PAL1	0	R1090C
1188.198	0.0	595437	REC_START	n/a	n/a	4	-999	n/a	SOCK	n/a	n/a	9	[0, 0, 0]	-999	PAL1	0	R1090C
1188.198	1.0	595437	REC_EVENT	0.0	n/a	4	2	SOCK	<>	SOCK	CANE	9	[0, 0, 0]	-999	PAL1	0	R1090C
1189.198	1.0	595937	REC_EVENT	1000.0	n/a	4	2	SOCK	<>	SOCK	CANE	9	[0, 0, 0]	-999	PAL1	0	R1090C
1190.198	1.0	596437	REC_EVENT	2000.0	n/a	4	2	SOCK	<>	SOCK	CANE	9	[0, 0, 0]	-999	PAL1	0	R1090C
1191.198	1.0	596937	REC_EVENT	3000.0	n/a	4	2	SOCK	<>	SOCK	CANE	9	[0, 0, 0]	-999	PAL1	0	R1090C
1192.198	0.574	597437	REC_EVENT	4000.0	n/a	4	2	SOCK	<>	SOCK	CANE	9	[0, 0, 0]	-999	PAL1	0	R1090C
1192.772	0.435	597724	REC_EVENT	4574.0	n/a	4	2	SOCK	SOCK	SOCK	CANE	9	[0, 0, 0]	-999	PAL1	0	R1090C
1193.207	0.008	597942	REC_END	n/a	n/a	4	-999	n/a	n/a	n/a	n/a	9	[0, 0, 0]	-999	PAL1	0	R1090C
1193.215	0.275	597946	TEST_ORIENT	n/a	n/a	1	3	SHEEP	n/a	SHEEP	ROOT	9	[0, 0, 0]	-999	PAL1	0	R1090C
1194.215	4.0	598446	TEST_PROBE	n/a	wordpools/wordpool_EN.txt	1	3	SHEEP	n/a	SHEEP	ROOT	9	[0, 0, 0]	-999	PAL1	0	R1090C
1194.216	3.151	598446	REC_START	n/a	n/a	1	-999	n/a	n/a	n/a	n/a	9	[0, 0, 0]	-999	PAL1	0	R1090C
1197.367	1.857	600022	REC_EVENT	3151.0	n/a	1	3	SHEEP	<>	SHEEP	ROOT	9	[0, 0, 0]	-999	PAL1	0	R1090C
1199.224	0.009	600950	REC_END	n/a	n/a	1	-999	n/a	n/a	n/a	n/a	9	[0, 0, 0]	-999	PAL1	0	R1090C
1199.233	0.275	600954	TEST_ORIENT	n/a	n/a	6	4	SKI	SALT	SKI	SALT	9	[0, 0, 0]	-999	PAL1	0	R1090C
1200.216	4.0	601446	TEST_PROBE	n/a	wordpools/wordpool_EN.txt	6	4	SKI	SALT	SKI	SALT	9	[0, 0, 0]	-999	PAL1	0	R1090C
1200.217	1.132	601446	REC_START	n/a	n/a	6	-999	n/a	SALT	n/a	n/a	9	[0, 0, 0]	-999	PAL1	0	R1090C
1201.349	3.877	602012	REC_EVENT	1132.0	n/a	6	4	SKI	SALT	SKI	SALT	9	[0, 0, 0]	-999	PAL1	0	R1090C
1205.226	0.008	603951	REC_END	n/a	n/a	6	-999	n/a	n/a	n/a	n/a	9	[0, 0, 0]	-999	PAL1	0	R1090C
1205.234	0.275	603955	TEST_ORIENT	n/a	n/a	5	5	DIME	LAWN	LAND	DIME	9	[0, 0, 0]	-999	PAL1	0	R1090C
1206.117	4.0	604396	TEST_PROBE	n/a	wordpools/wordpool_EN.txt	5	5	DIME	LAWN	LAND	DIME	9	[0, 0, 0]	-999	PAL1	0	R1090C
1206.118	1.034	604397	REC_START	n/a	n/a	5	-999	n/a	LAWN	n/a	n/a	9	[0, 0, 0]	-999	PAL1	0	R1090C
1207.152	3.975	604914	REC_EVENT	1034.0	n/a	5	5	DIME	LAWN	LAND	DIME	9	[0, 0, 0]	-999	PAL1	0	R1090C
1211.127	0.008	606901	REC_END	n/a	n/a	5	-999	n/a	n/a	n/a	n/a	9	[0, 0, 0]	-999	PAL1	0	R1090C
1211.135	0.275	606905	TEST_ORIENT	n/a	n/a	2	6	PHONE	n/a	PHONE	CALF	9	[0, 0, 0]	-999	PAL1	0	R1090C
1212.135	4.0	607405	TEST_PROBE	n/a	wordpools/wordpool_EN.txt	2	6	PHONE	n/a	PHONE	CALF	9	[0, 0, 0]	-999	PAL1	0	R1090C
1212.136	5.009	607405	REC_START	n/a	n/a	2	-999	n/a	n/a	n/a	n/a	9	[0, 0, 0]	-999	PAL1	0	R1090C
1217.145	0.0	609910	REC_END	n/a	n/a	2	-999	n/a	n/a	n/a	n/a	9	[0, 0, 0]	-999	PAL1	0	R1090C
1217.145	1.615	609910	REC_EVENT	5009.0	n/a	2	6	PHONE	<>	PHONE	CALF	9	[0, 0, 0]	-999	PAL1	0	R1090C
1218.76	10.445	610717	ENCODING_START	n/a	n/a	0	-999	n/a	n/a	n/a	n/a	10	[0, 0, 0]	-999	PAL1	0	R1090C
1229.205	0.275	615939	STUDY_ORIENT	n/a	n/a	1	5	MAT	GRASS	MAT	GRASS	10	[0, 0, 0]	-999	PAL1	0	R1090C
1230.189	4.0	616431	STUDY_PAIR	n/a	wordpools/wordpool_EN.txt	1	5	MAT	GRASS	MAT	GRASS	10	[0, 0, 0]	-999	PAL1	0	R1090C
1235.223	0.275	618948	STUDY_ORIENT	n/a	n/a	2	6	FOX	n/a	FOX	FILM	10	[0, 0, 0]	-999	PAL1	0	R1090C
1236.041	4.0	619357	STUDY_PAIR	n/a	wordpools/wordpool_EN.txt	2	6	FOX	n/a	FOX	FILM	10	[0, 0, 0]	-999	PAL1	0	R1090C
1241.075	0.275	621874	STUDY_ORIENT	n/a	n/a	3	1	HOUSE	n/a	HOUSE	GLASS	10	[0, 0, 0]	-999	PAL1	0	R1090C
1242.059	4.0	622366	STUDY_PAIR	n/a	wordpools/wordpool_EN.txt	3	1	HOUSE	n/a	HOUSE	GLASS	10	[0, 0, 0]	-999	PAL1	0	R1090C
1247.093	0.275	624882	STUDY_ORIENT	n/a	n/a	4	2	HAWK	n/a	ELF	HAWK	10	[0, 0, 0]	-999	PAL1	0	R1090C
1248.11	4.0	625391	STUDY_PAIR	n/a	wordpools/wordpool_EN.txt	4	2	HAWK	n/a	ELF	HAWK	10	[0, 0, 0]	-999	PAL1	0	R1090C
1253.143	0.275	627907	STUDY_ORIENT	n/a	n/a	5	3	CROWN	PRINCE	CROWN	PRINCE	10	[0, 0, 0]	-999	PAL1	0	R1090C
1254.078	4.0	628375	STUDY_PAIR	n/a	wordpools/wordpool_EN.txt	5	3	CROWN	PRINCE	CROWN	PRINCE	10	[0, 0, 0]	-999	PAL1	0	R1090C
1259.112	0.275	630891	STUDY_ORIENT	n/a	n/a	6	4	BLUSH	ROCK	WALL	BLUSH	10	[0, 0, 0]	-999	PAL1	0	R1090C
1260.095	4.0	631383	STUDY_PAIR	n/a	wordpools/wordpool_EN.txt	6	4	BLUSH	ROCK	WALL	BLUSH	10	[0, 0, 0]	-999	PAL1	0	R1090C
1264.096	1.0	633383	START	n/a	n/a	-999	-999	n/a	n/a	n/a	n/a	10	[-999, -999, -999]	-999	PAL1	0	R1090C
1265.096	0.017	633883	MATH_START	n/a	n/a	-999	-999	n/a	n/a	n/a	n/a	10	[0, 0, 0]	-999	PAL1	0	R1090C
1265.113	4.017	633892	PROB	3991.0	n/a	-999	-999	n/a	n/a	n/a	n/a	10	[8, 7, 3]	18	PAL1	0	R1090C
1269.13	4.401	635900	PROB	4366.0	n/a	-999	-999	n/a	n/a	n/a	n/a	10	[4, 4, 8]	16	PAL1	0	R1090C
1273.531	3.9	638100	PROB	3868.0	n/a	-999	-999	n/a	n/a	n/a	n/a	10	[3, 1, 9]	13	PAL1	0	R1090C
1277.431	8.688	640050	PROB	8688.0	n/a	-999	-999	n/a	n/a	n/a	n/a	10	[7, 8, 6]	25	PAL1	0	R1090C
1286.119	0.014	644394	STOP	n/a	n/a	-999	-999	n/a	n/a	n/a	n/a	10	[-999, -999, -999]	-999	PAL1	0	R1090C
1286.133	0.0	644401	MATH_END	n/a	n/a	-999	-999	n/a	n/a	n/a	n/a	10	[0, 0, 0]	-999	PAL1	0	R1090C
1286.133	0.016	644401	TEST_START	n/a	n/a	-999	-999	n/a	n/a	n/a	n/a	10	[0, 0, 0]	-999	PAL1	0	R1090C
1286.149	0.275	644409	TEST_ORIENT	n/a	n/a	3	1	HOUSE	n/a	HOUSE	GLASS	10	[0, 0, 0]	-999	PAL1	0	R1090C
1287.067	4.0	644868	TEST_PROBE	n/a	wordpools/wordpool_EN.txt	3	1	HOUSE	n/a	HOUSE	GLASS	10	[0, 0, 0]	-999	PAL1	0	R1090C
1287.075	2.988	644872	REC_START	n/a	n/a	3	-999	n/a	n/a	n/a	n/a	10	[0, 0, 0]	-999	PAL1	0	R1090C
1290.063	2.005	646366	REC_EVENT	2988.0	n/a	3	1	HOUSE	<>	HOUSE	GLASS	10	[0, 0, 0]	-999	PAL1	0	R1090C
1292.068	0.017	647368	REC_END	n/a	n/a	3	-999	n/a	n/a	n/a	n/a	10	[0, 0, 0]	-999	PAL1	0	R1090C
1292.085	0.275	647376	TEST_ORIENT	n/a	n/a	4	2	HAWK	n/a	ELF	HAWK	10	[0, 0, 0]	-999	PAL1	0	R1090C
1293.052	4.0	647860	TEST_PROBE	n/a	wordpools/wordpool_EN.txt	4	2	HAWK	n/a	ELF	HAWK	10	[0, 0, 0]	-999	PAL1	0	R1090C
1293.052	5.015	647860	REC_START	n/a	n/a	4	-999	n/a	n/a	n/a	n/a	10	[0, 0, 0]	-999	PAL1	0	R1090C
1298.067	0.002	650367	REC_EVENT	5015.0	n/a	4	2	HAWK	<>	ELF	HAWK	10	[0, 0, 0]	-999	PAL1	0	R1090C
1298.069	0.017	650368	REC_END	n/a	n/a	4	-999	n/a	n/a	n/a	n/a	10	[0, 0, 0]	-999	PAL1	0	R1090C
1298.086	0.275	650377	TEST_ORIENT	n/a	n/a	5	3	CROWN	PRINCE	CROWN	PRINCE	10	[0, 0, 0]	-999	PAL1	0	R1090C
1298.886	4.0	650777	TEST_PROBE	n/a	wordpools/wordpool_EN.txt	5	3	CROWN	PRINCE	CROWN	PRINCE	10	[0, 0, 0]	-999	PAL1	0	R1090C
1298.887	0.545	650777	REC_START	n/a	n/a	5	-999	n/a	PRINCE	n/a	n/a	10	[0, 0, 0]	-999	PAL1	0	R1090C
1299.432	4.464	651050	REC_EVENT	545.0	n/a	5	3	CROWN	PRINCE	CROWN	PRINCE	10	[0, 0, 0]	-999	PAL1	0	R1090C
1303.896	0.008	653281	REC_END	n/a	n/a	5	-999	n/a	n/a	n/a	n/a	10	[0, 0, 0]	-999	PAL1	0	R1090C
1303.904	0.275	653285	TEST_ORIENT	n/a	n/a	6	4	BLUSH	ROCK	WALL	BLUSH	10	[0, 0, 0]	-999	PAL1	0	R1090C
1304.854	4.0	653760	TEST_PROBE	n/a	wordpools/wordpool_EN.txt	6	4	BLUSH	ROCK	WALL	BLUSH	10	[0, 0, 0]	-999	PAL1	0	R1090C
1304.855	1.183	653761	REC_START	n/a	n/a	6	-999	n/a	ROCK	n/a	n/a	10	[0, 0, 0]	-999	PAL1	0	R1090C
1306.038	0.721	654352	REC_EVENT	1183.0	n/a	6	4	BLUSH	<>	WALL	BLUSH	10	[0, 0, 0]	-999	PAL1	0	R1090C
1306.759	1.097	654713	REC_EVENT	1904.0	n/a	6	4	BLUSH	BOWL	WALL	BLUSH	10	[0, 0, 0]	-999	PAL1	0	R1090C
1307.856	2.015	655261	REC_EVENT	3001.0	n/a	6	4	BLUSH	ROCK	WALL	BLUSH	10	[0, 0, 0]	-999	PAL1	0	R1090C
1309.871	0.017	656269	REC_END	n/a	n/a	6	-999	n/a	n/a	n/a	n/a	10	[0, 0, 0]	-999	PAL1	0	R1090C
1309.888	0.275	656277	TEST_ORIENT	n/a	n/a	1	5	MAT	GRASS	MAT	GRASS	10	[0, 0, 0]	-999	PAL1	0	R1090C
1310.922	4.0	656794	TEST_PROBE	n/a	wordpools/wordpool_EN.txt	1	5	MAT	GRASS	MAT	GRASS	10	[0, 0, 0]	-999	PAL1	0	R1090C
1310.922	1.214	656794	REC_START	n/a	n/a	1	-999	n/a	GRASS	n/a	n/a	10	[0, 0, 0]	-999	PAL1	0	R1090C
1312.136	3.812	657401	REC_EVENT	1214.0	n/a	1	5	MAT	GRASS	MAT	GRASS	10	[0, 0, 0]	-999	PAL1	0	R1090C
1315.948	0.008	659307	REC_END	n/a	n/a	1	-999	n/a	n/a	n/a	n/a	10	[0, 0, 0]	-999	PAL1	0	R1090C
1315.956	0.275	659311	TEST_ORIENT	n/a	n/a	2	6	FOX	n/a	FOX	FILM	10	[0, 0, 0]	-999	PAL1	0	R1090C
1316.89	0.0	659778	REC_START	n/a	n/a	2	-999	n/a	n/a	n/a	n/a	10	[0, 0, 0]	-999	PAL1	0	R1090C
1316.89	4.0	659778	TEST_PROBE	n/a	wordpools/wordpool_EN.txt	2	6	FOX	n/a	FOX	FILM	10	[0, 0, 0]	-999	PAL1	0	R1090C
1321.478	0.429	662072	REC_EVENT	4588.0	n/a	2	6	FOX	<>	FOX	FILM	10	[0, 0, 0]	-999	PAL1	0	R1090C
1321.907	1.388	662286	REC_END	n/a	n/a	2	-999	n/a	n/a	n/a	n/a	10	[0, 0, 0]	-999	PAL1	0	R1090C
1323.295	10.448	662980	ENCODING_START	n/a	n/a	0	-999	n/a	n/a	n/a	n/a	11	[0, 0, 0]	-999	PAL1	0	R1090C
1333.743	0.275	668204	STUDY_ORIENT	n/a	n/a	1	5	BARN	n/a	DOG	BARN	11	[0, 0, 0]	-999	PAL1	0	R1090C
1334.56	4.0	668612	STUDY_PAIR	n/a	wordpools/wordpool_EN.txt	1	5	BARN	n/a	DOG	BARN	11	[0, 0, 0]	-999	PAL1	0	R1090C
1339.594	0.275	671129	STUDY_ORIENT	n/a	n/a	2	4	WAND	SEA	WAND	SEA	11	[0, 0, 0]	-999	PAL1	0	R1090C
1340.561	4.0	671612	STUDY_PAIR	n/a	wordpools/wordpool_EN.txt	2	4	WAND	SEA	WAND	SEA	11	[0, 0, 0]	-999	PAL1	0	R1090C
1345.595	0.275	674129	STUDY_ORIENT	n/a	n/a	3	1	DOLL	OAK	OAK	DOLL	11	[0, 0, 0]	-999	PAL1	0	R1090C
1346.479	4.0	674571	STUDY_PAIR	n/a	wordpools/wordpool_EN.txt	3	1	DOLL	OAK	OAK	DOLL	11	[0, 0, 0]	-999	PAL1	0	R1090C
1351.513	0.275	677088	STUDY_ORIENT	n/a	n/a	4	6	CHEEK	BLUSH	CHEEK	SMILE	11	[0, 0, 0]	-999	PAL1	0	R1090C
1352.329	4.0	677496	STUDY_PAIR	n/a	wordpools/wordpool_EN.txt	4	6	CHEEK	BLUSH	CHEEK	SMILE	11	[0, 0, 0]	-999	PAL1	0	R1090C
1357.363	0.275	680013	STUDY_ORIENT	n/a	n/a	5	3	BIRD	n/a	BIRD	BLOOM	11	[0, 0, 0]	-999	PAL1	0	R1090C
1358.163	4.0	680413	STUDY_PAIR	n/a	wordpools/wordpool_EN.txt	5	3	BIRD	n/a	BIRD	BLOOM	11	[0, 0, 0]	-999	PAL1	0	R1090C
1363.181	0.275	682921	STUDY_ORIENT	n/a	n/a	6	2	GUARD	RAKE	GUARD	RAKE	11	[0, 0, 0]	-999	PAL1	0	R1090C
1364.115	4.0	683388	STUDY_PAIR	n/a	wordpools/wordpool_EN.txt	6	2	GUARD	RAKE	GUARD	RAKE	11	[0, 0, 0]	-999	PAL1	0	R1090C
1368.116	1.0	685389	START	n/a	n/a	-999	-999	n/a	n/a	n/a	n/a	11	[-999, -999, -999]	-999	PAL1	0	R1090C
1369.116	0.016	685889	MATH_START	n/a	n/a	-999	-999	n/a	n/a	n/a	n/a	11	[0, 0, 0]	-999	PAL1	0	R1090C
1369.132	6.419	685897	PROB	6388.0	n/a	-999	-999	n/a	n/a	n/a	n/a	11	[8, 7, 1]	16	PAL1	0	R1090C
1375.551	5.034	689106	PROB	5001.0	n/a	-999	-999	n/a	n/a	n/a	n/a	11	[5, 1, 7]	13	PAL1	0	R1090C
1380.585	5.55	691623	PROB	5519.0	n/a	-999	-999	n/a	n/a	n/a	n/a	11	[2, 6, 9]	17	PAL1	0	R1090C
1386.135	4.737	694397	PROB	4737.0	n/a	-999	-999	n/a	n/a	n/a	n/a	11	[7, 3, 9]	21	PAL1	0	R1090C
1390.872	0.015	696766	STOP	n/a	n/a	-999	-999	n/a	n/a	n/a	n/a	11	[-999, -999, -999]	-999	PAL1	0	R1090C
1390.887	0.0	696773	TEST_START	n/a	n/a	-999	-999	n/a	n/a	n/a	n/a	11	[0, 0, 0]	-999	PAL1	0	R1090C
1390.887	0.017	696773	MATH_END	n/a	n/a	-999	-999	n/a	n/a	n/a	n/a	11	[0, 0, 0]	-999	PAL1	0	R1090C
1390.904	0.275	696782	TEST_ORIENT	n/a	n/a	3	1	DOLL	OAK	OAK	DOLL	11	[0, 0, 0]	-999	PAL1	0	R1090C
1391.937	4.0	697298	TEST_PROBE	n/a	wordpools/wordpool_EN.txt	3	1	DOLL	OAK	OAK	DOLL	11	[0, 0, 0]	-999	PAL1	0	R1090C
1391.938	1.324	697299	REC_START	n/a	n/a	3	-999	n/a	OAK	n/a	n/a	11	[0, 0, 0]	-999	PAL1	0	R1090C
1393.262	3.676	697961	REC_EVENT	1324.0	n/a	3	1	DOLL	OAK	OAK	DOLL	11	[0, 0, 0]	-999	PAL1	0	R1090C
1396.938	0.017	699799	REC_END	n/a	n/a	3	-999	n/a	n/a	n/a	n/a	11	[0, 0, 0]	-999	PAL1	0	R1090C
1396.955	0.275	699807	TEST_ORIENT	n/a	n/a	6	2	GUARD	RAKE	GUARD	RAKE	11	[0, 0, 0]	-999	PAL1	0	R1090C
1397.855	4.0	700257	TEST_PROBE	n/a	wordpools/wordpool_EN.txt	6	2	GUARD	RAKE	GUARD	RAKE	11	[0, 0, 0]	-999	PAL1	0	R1090C
1397.856	1.823	700257	REC_START	n/a	n/a	6	-999	n/a	RAKE	n/a	n/a	11	[0, 0, 0]	-999	PAL1	0	R1090C
1399.679	3.185	701169	REC_EVENT	1823.0	n/a	6	2	GUARD	RAKE	GUARD	RAKE	11	[0, 0, 0]	-999	PAL1	0	R1090C
1402.864	0.009	702761	REC_END	n/a	n/a	6	-999	n/a	n/a	n/a	n/a	11	[0, 0, 0]	-999	PAL1	0	R1090C
1402.873	0.275	702766	TEST_ORIENT	n/a	n/a	5	3	BIRD	n/a	BIRD	BLOOM	11	[0, 0, 0]	-999	PAL1	0	R1090C
1403.706	4.0	703182	TEST_PROBE	n/a	wordpools/wordpool_EN.txt	5	3	BIRD	n/a	BIRD	BLOOM	11	[0, 0, 0]	-999	PAL1	0	R1090C
1403.707	2.804	703183	REC_START	n/a	n/a	5	-999	n/a	n/a	n/a	n/a	11	[0, 0, 0]	-999	PAL1	0	R1090C
1406.511	2.204	704585	REC_EVENT	2804.0	n/a	5	3	BIRD	<>	BIRD	BLOOM	11	[0, 0, 0]	-999	PAL1	0	R1090C
1408.715	0.009	705687	REC_END	n/a	n/a	5	-999	n/a	n/a	n/a	n/a	11	[0, 0, 0]	-999	PAL1	0	R1090C
1408.724	0.275	705691	TEST_ORIENT	n/a	n/a	2	4	WAND	SEA	WAND	SEA	11	[0, 0, 0]	-999	PAL1	0	R1090C
1409.724	0.0	706191	REC_START	n/a	n/a	2	-999	n/a	SEA	n/a	n/a	11	[0, 0, 0]	-999	PAL1	0	R1090C
1409.724	4.0	706191	TEST_PROBE	n/a	wordpools/wordpool_EN.txt	2	4	WAND	SEA	WAND	SEA	11	[0, 0, 0]	-999	PAL1	0	R1090C
1411.049	3.693	706853	REC_EVENT	1325.0	n/a	2	4	WAND	SEA	WAND	SEA	11	[0, 0, 0]	-999	PAL1	0	R1090C
1414.742	0.016	708700	REC_END	n/a	n/a	2	-999	n/a	n/a	n/a	n/a	11	[0, 0, 0]	-999	PAL1	0	R1090C
1414.758	0.275	708708	TEST_ORIENT	n/a	n/a	1	5	BARN	n/a	DOG	BARN	11	[0, 0, 0]	-999	PAL1	0	R1090C
1415.675	4.0	709166	TEST_PROBE	n/a	wordpools/wordpool_EN.txt	1	5	BARN	n/a	DOG	BARN	11	[0, 0, 0]	-999	PAL1	0	R1090C
1415.675	3.82	709166	REC_START	n/a	n/a	1	-999	n/a	n/a	n/a	n/a	11	[0, 0, 0]	-999	PAL1	0	R1090C
1419.495	1.198	711076	REC_EVENT	3820.0	n/a	1	5	BARN	<>	DOG	BARN	11	[0, 0, 0]	-999	PAL1	0	R1090C
1420.693	0.017	711675	REC_END	n/a	n/a	1	-999	n/a	n/a	n/a	n/a	11	[0, 0, 0]	-999	PAL1	0	R1090C
1420.71	0.275	711683	TEST_ORIENT	n/a	n/a	4	6	CHEEK	BLUSH	CHEEK	SMILE	11	[0, 0, 0]	-999	PAL1	0	R1090C
1421.643	4.0	712150	TEST_PROBE	n/a	wordpools/wordpool_EN.txt	4	6	CHEEK	BLUSH	CHEEK	SMILE	11	[0, 0, 0]	-999	PAL1	0	R1090C
1421.644	3.058	712150	REC_START	n/a	n/a	4	-999	n/a	BLUSH	n/a	n/a	11	[0, 0, 0]	-999	PAL1	0	R1090C
1424.702	1.0	713679	REC_EVENT	3058.0	n/a	4	6	CHEEK	<>	CHEEK	SMILE	11	[0, 0, 0]	-999	PAL1	0	R1090C
1425.702	0.958	714179	REC_EVENT	4058.0	n/a	4	6	CHEEK	BLUSH	CHEEK	SMILE	11	[0, 0, 0]	-999	PAL1	0	R1090C
1426.66	1.531	714658	REC_END	n/a	n/a	4	-999	n/a	n/a	n/a	n/a	11	[0, 0, 0]	-999	PAL1	0	R1090C
1428.191	10.455	715424	ENCODING_START	n/a	n/a	0	-999	n/a	n/a	n/a	n/a	12	[0, 0, 0]	-999	PAL1	0	R1090C
1438.646	0.275	720651	STUDY_ORIENT	n/a	n/a	1	3	SOUP	n/a	CLOWN	SOUP	12	[0, 0, 0]	-999	PAL1	0	R1090C
1439.496	4.0	721076	STUDY_PAIR	n/a	wordpools/wordpool_EN.txt	1	3	SOUP	n/a	CLOWN	SOUP	12	[0, 0, 0]	-999	PAL1	0	R1090C
1444.514	0.275	723584	STUDY_ORIENT	n/a	n/a	2	6	MAZE	MOLE	MOLE	MAZE	12	[0, 0, 0]	-999	PAL1	0	R1090C
1445.397	4.0	724026	STUDY_PAIR	n/a	wordpools/wordpool_EN.txt	2	6	MAZE	MOLE	MOLE	MAZE	12	[0, 0, 0]	-999	PAL1	0	R1090C
1450.431	0.275	726543	STUDY_ORIENT	n/a	n/a	3	1	MUD	DESK	DESK	MUD	12	[0, 0, 0]	-999	PAL1	0	R1090C
1451.281	4.0	726968	STUDY_PAIR	n/a	wordpools/wordpool_EN.txt	3	1	MUD	DESK	DESK	MUD	12	[0, 0, 0]	-999	PAL1	0	R1090C
1456.315	0.275	729484	STUDY_ORIENT	n/a	n/a	4	2	FRUIT	ROOM	ROOM	FRUIT	12	[0, 0, 0]	-999	PAL1	0	R1090C
1457.182	4.0	729918	STUDY_PAIR	n/a	wordpools/wordpool_EN.txt	4	2	FRUIT	ROOM	ROOM	FRUIT	12	[0, 0, 0]	-999	PAL1	0	R1090C
1462.2	0.275	732427	STUDY_ORIENT	n/a	n/a	5	5	VASE	SIGN	VASE	SIGN	12	[0, 0, 0]	-999	PAL1	0	R1090C
1462.984	4.0	732819	STUDY_PAIR	n/a	wordpools/wordpool_EN.txt	5	5	VASE	SIGN	VASE	SIGN	12	[0, 0, 0]	-999	PAL1	0	R1090C
1468.002	0.275	735327	STUDY_ORIENT	n/a	n/a	6	4	ARM	BAND	CHIEF	ARM	12	[0, 0, 0]	-999	PAL1	0	R1090C
1468.936	4.0	735794	STUDY_PAIR	n/a	wordpools/wordpool_EN.txt	6	4	ARM	BAND	CHIEF	ARM	12	[0, 0, 0]	-999	PAL1	0	R1090C
1472.954	0.999	737803	START	n/a	n/a	-999	-999	n/a	n/a	n/a	n/a	12	[-999, -999, -999]	-999	PAL1	0	R1090C
1473.953	0.017	738303	MATH_START	n/a	n/a	-999	-999	n/a	n/a	n/a	n/a	12	[0, 0, 0]	-999	PAL1	0	R1090C
1473.97	4.517	738311	PROB	4494.0	n/a	-999	-999	n/a	n/a	n/a	n/a	12	[6, 8, 1]	15	PAL1	0	R1090C
1478.487	3.251	740570	PROB	3225.0	n/a	-999	-999	n/a	n/a	n/a	n/a	12	[5, 7, 1]	13	PAL1	0	R1090C
1481.738	5.018	742195	PROB	4982.0	n/a	-999	-999	n/a	n/a	n/a	n/a	12	[7, 1, 2]	10	PAL1	0	R1090C
1486.756	2.783	744704	PROB	2756.0	n/a	-999	-999	n/a	n/a	n/a	n/a	12	[2, 4, 7]	13	PAL1	0	R1090C
1489.539	5.245	746095	PROB	5245.0	n/a	-999	-999	n/a	n/a	n/a	n/a	12	[8, 9, 9]	26	PAL1	0	R1090C
1494.784	0.006	748717	STOP	n/a	n/a	-999	-999	n/a	n/a	n/a	n/a	12	[-999, -999, -999]	-999	PAL1	0	R1090C
1494.79	0.0	748720	MATH_END	n/a	n/a	-999	-999	n/a	n/a	n/a	n/a	12	[0, 0, 0]	-999	PAL1	0	R1090C
1494.79	0.017	748720	TEST_START	n/a	n/a	-999	-999	n/a	n/a	n/a	n/a	12	[0, 0, 0]	-999	PAL1	0	R1090C
1494.807	0.275	748729	TEST_ORIENT	n/a	n/a	3	1	MUD	DESK	DESK	MUD	12	[0, 0, 0]	-999	PAL1	0	R1090C
1495.657	4.0	749154	TEST_PROBE	n/a	wordpools/wordpool_EN.txt	3	1	MUD	DESK	DESK	MUD	12	[0, 0, 0]	-999	PAL1	0	R1090C
1495.662	2.335	749156	REC_START	n/a	n/a	3	-999	n/a	DESK	n/a	n/a	12	[0, 0, 0]	-999	PAL1	0	R1090C
1497.997	2.661	750324	REC_EVENT	2335.0	n/a	3	1	MUD	DESK	DESK	MUD	12	[0, 0, 0]	-999	PAL1	0	R1090C
1500.658	0.017	751654	REC_END	n/a	n/a	3	-999	n/a	n/a	n/a	n/a	12	[0, 0, 0]	-999	PAL1	0	R1090C
1500.675	0.275	751663	TEST_ORIENT	n/a	n/a	4	2	FRUIT	ROOM	ROOM	FRUIT	12	[0, 0, 0]	-999	PAL1	0	R1090C
1501.525	4.0	752088	TEST_PROBE	n/a	wordpools/wordpool_EN.txt	4	2	FRUIT	ROOM	ROOM	FRUIT	12	[0, 0, 0]	-999	PAL1	0	R1090C
1501.525	2.379	752088	REC_START	n/a	n/a	4	-999	n/a	ROOM	n/a	n/a	12	[0, 0, 0]	-999	PAL1	0	R1090C
1503.904	0.376	753277	REC_EVENT	2379.0	n/a	4	2	FRUIT	<>	ROOM	FRUIT	12	[0, 0, 0]	-999	PAL1	0	R1090C
1504.28	2.272	753465	REC_EVENT	2755.0	n/a	4	2	FRUIT	ROOM	ROOM	FRUIT	12	[0, 0, 0]	-999	PAL1	0	R1090C
1506.552	0.007	754601	REC_END	n/a	n/a	4	-999	n/a	n/a	n/a	n/a	12	[0, 0, 0]	-999	PAL1	0	R1090C
1506.559	0.275	754604	TEST_ORIENT	n/a	n/a	1	3	SOUP	n/a	CLOWN	SOUP	12	[0, 0, 0]	-999	PAL1	0	R1090C
1507.51	4.0	755080	TEST_PROBE	n/a	wordpools/wordpool_EN.txt	1	3	SOUP	n/a	CLOWN	SOUP	12	[0, 0, 0]	-999	PAL1	0	R1090C
1507.51	2.603	755080	REC_START	n/a	n/a	1	-999	n/a	n/a	n/a	n/a	12	[0, 0, 0]	-999	PAL1	0	R1090C
1510.113	1.403	756381	REC_EVENT	2603.0	n/a	1	3	SOUP	<>	CLOWN	SOUP	12	[0, 0, 0]	-999	PAL1	0	R1090C
1511.516	1.011	757083	REC_EVENT	4006.0	n/a	1	3	SOUP	<>	CLOWN	SOUP	12	[0, 0, 0]	-999	PAL1	0	R1090C
1512.527	0.017	757588	REC_END	n/a	n/a	1	-999	n/a	n/a	n/a	n/a	12	[0, 0, 0]	-999	PAL1	0	R1090C
1512.544	0.275	757597	TEST_ORIENT	n/a	n/a	6	4	ARM	BAND	CHIEF	ARM	12	[0, 0, 0]	-999	PAL1	0	R1090C
1513.376	4.0	758013	TEST_PROBE	n/a	wordpools/wordpool_EN.txt	6	4	ARM	BAND	CHIEF	ARM	12	[0, 0, 0]	-999	PAL1	0	R1090C
1513.377	2.826	758013	REC_START	n/a	n/a	6	-999	n/a	BAND	n/a	n/a	12	[0, 0, 0]	-999	PAL1	0	R1090C
1516.203	2.183	759426	REC_EVENT	2826.0	n/a	6	4	ARM	BAND	CHIEF	ARM	12	[0, 0, 0]	-999	PAL1	0	R1090C
1518.386	0.008	760517	REC_END	n/a	n/a	6	-999	n/a	n/a	n/a	n/a	12	[0, 0, 0]	-999	PAL1	0	R1090C
1518.394	0.275	760521	TEST_ORIENT	n/a	n/a	5	5	VASE	SIGN	VASE	SIGN	12	[0, 0, 0]	-999	PAL1	0	R1090C
1519.394	4.0	761021	TEST_PROBE	n/a	wordpools/wordpool_EN.txt	5	5	VASE	SIGN	VASE	SIGN	12	[0, 0, 0]	-999	PAL1	0	R1090C
1519.395	2.602	761022	REC_START	n/a	n/a	5	-999	n/a	SIGN	n/a	n/a	12	[0, 0, 0]	-999	PAL1	0	R1090C
1521.997	0.451	762323	REC_EVENT	2602.0	n/a	5	5	VASE	<>	VASE	SIGN	12	[0, 0, 0]	-999	PAL1	0	R1090C
1522.448	1.956	762548	REC_EVENT	3053.0	n/a	5	5	VASE	SIGN	VASE	SIGN	12	[0, 0, 0]	-999	PAL1	0	R1090C
1524.404	0.008	763526	REC_END	n/a	n/a	5	-999	n/a	n/a	n/a	n/a	12	[0, 0, 0]	-999	PAL1	0	R1090C
1524.412	0.275	763530	TEST_ORIENT	n/a	n/a	2	6	MAZE	MOLE	MOLE	MAZE	12	[0, 0, 0]	-999	PAL1	0	R1090C
1525.212	0.0	763930	REC_START	n/a	n/a	2	-999	n/a	MOLE	n/a	n/a	12	[0, 0, 0]	-999	PAL1	0	R1090C
1525.212	4.0	763930	TEST_PROBE	n/a	wordpools/wordpool_EN.txt	2	6	MAZE	MOLE	MOLE	MAZE	12	[0, 0, 0]	-999	PAL1	0	R1090C
1526.492	1.857	764570	REC_EVENT	1280.0	n/a	2	6	MAZE	SIGN	MOLE	MAZE	12	[0, 0, 0]	-999	PAL1	0	R1090C
1528.349	1.88	765498	REC_EVENT	3137.0	n/a	2	6	MAZE	MOLE	MOLE	MAZE	12	[0, 0, 0]	-999	PAL1	0	R1090C
1530.229	1.283	766438	REC_END	n/a	n/a	2	-999	n/a	n/a	n/a	n/a	12	[0, 0, 0]	-999	PAL1	0	R1090C
1531.512	10.454	767080	ENCODING_START	n/a	n/a	0	-999	n/a	n/a	n/a	n/a	13	[0, 0, 0]	-999	PAL1	0	R1090C
1541.966	0.275	772306	STUDY_ORIENT	n/a	n/a	1	5	DOOR	n/a	BOWL	DOOR	13	[0, 0, 0]	-999	PAL1	0	R1090C
1542.85	4.0	772748	STUDY_PAIR	n/a	wordpools/wordpool_EN.txt	1	5	DOOR	n/a	BOWL	DOOR	13	[0, 0, 0]	-999	PAL1	0	R1090C
1547.884	0.275	775265	STUDY_ORIENT	n/a	n/a	2	2	SPRING	n/a	FLUTE	SPRING	13	[0, 0, 0]	-999	PAL1	0	R1090C
1548.701	4.0	775674	STUDY_PAIR	n/a	wordpools/wordpool_EN.txt	2	2	SPRING	n/a	FLUTE	SPRING	13	[0, 0, 0]	-999	PAL1	0	R1090C
1553.735	0.275	778190	STUDY_ORIENT	n/a	n/a	3	1	CAGE	LAKE	CAGE	LAKE	13	[0, 0, 0]	-999	PAL1	0	R1090C
1554.702	4.0	778674	STUDY_PAIR	n/a	wordpools/wordpool_EN.txt	3	1	CAGE	LAKE	CAGE	LAKE	13	[0, 0, 0]	-999	PAL1	0	R1090C
1559.736	0.275	781191	STUDY_ORIENT	n/a	n/a	4	4	CAPE	SNOW	SNOW	CAPE	13	[0, 0, 0]	-999	PAL1	0	R1090C
1560.57	4.0	781608	STUDY_PAIR	n/a	wordpools/wordpool_EN.txt	4	4	CAPE	SNOW	SNOW	CAPE	13	[0, 0, 0]	-999	PAL1	0	R1090C
1565.604	0.275	784124	STUDY_ORIENT	n/a	n/a	5	3	TENT	SQUARE	SQUARE	TENT	13	[0, 0, 0]	-999	PAL1	0	R1090C
1566.387	4.0	784516	STUDY_PAIR	n/a	wordpools/wordpool_EN.txt	5	3	TENT	SQUARE	SQUARE	TENT	13	[0, 0, 0]	-999	PAL1	0	R1090C
1571.421	0.275	787033	STUDY_ORIENT	n/a	n/a	6	6	POOL	n/a	PIPE	POOL	13	[0, 0, 0]	-999	PAL1	0	R1090C
1572.221	4.0	787433	STUDY_PAIR	n/a	wordpools/wordpool_EN.txt	6	6	POOL	n/a	PIPE	POOL	13	[0, 0, 0]	-999	PAL1	0	R1090C
1576.239	0.999	789441	START	n/a	n/a	-999	-999	n/a	n/a	n/a	n/a	13	[-999, -999, -999]	-999	PAL1	0	R1090C
1577.238	0.017	789941	MATH_START	n/a	n/a	-999	-999	n/a	n/a	n/a	n/a	13	[0, 0, 0]	-999	PAL1	0	R1090C
1577.255	4.635	789949	PROB	4601.0	n/a	-999	-999	n/a	n/a	n/a	n/a	13	[2, 1, 2]	5	PAL1	0	R1090C
1581.89	3.317	792267	PROB	3293.0	n/a	-999	-999	n/a	n/a	n/a	n/a	13	[5, 1, 4]	10	PAL1	0	R1090C
1585.207	3.984	793925	PROB	3960.0	n/a	-999	-999	n/a	n/a	n/a	n/a	13	[9, 2, 3]	14	PAL1	0	R1090C
1589.191	3.502	795917	PROB	3473.0	n/a	-999	-999	n/a	n/a	n/a	n/a	13	[4, 3, 2]	9	PAL1	0	R1090C
1592.693	4.059	797668	PROB	4059.0	n/a	-999	-999	n/a	n/a	n/a	n/a	13	[3, 8, 5]	16	PAL1	0	R1090C
1596.752	0.008	799697	STOP	n/a	n/a	-999	-999	n/a	n/a	n/a	n/a	13	[-999, -999, -999]	-999	PAL1	0	R1090C
1596.76	0.0	799701	TEST_START	n/a	n/a	-999	-999	n/a	n/a	n/a	n/a	13	[0, 0, 0]	-999	PAL1	0	R1090C
1596.76	0.017	799701	MATH_END	n/a	n/a	-999	-999	n/a	n/a	n/a	n/a	13	[0, 0, 0]	-999	PAL1	0	R1090C
1596.777	0.275	799709	TEST_ORIENT	n/a	n/a	3	1	CAGE	LAKE	CAGE	LAKE	13	[0, 0, 0]	-999	PAL1	0	R1090C
1597.677	4.0	800159	TEST_PROBE	n/a	wordpools/wordpool_EN.txt	3	1	CAGE	LAKE	CAGE	LAKE	13	[0, 0, 0]	-999	PAL1	0	R1090C
1597.677	1.476	800159	REC_START	n/a	n/a	3	-999	n/a	LAKE	n/a	n/a	13	[0, 0, 0]	-999	PAL1	0	R1090C
1599.153	3.541	800897	REC_EVENT	1476.0	n/a	3	1	CAGE	LAKE	CAGE	LAKE	13	[0, 0, 0]	-999	PAL1	0	R1090C
1602.694	0.017	802668	REC_END	n/a	n/a	3	-999	n/a	n/a	n/a	n/a	13	[0, 0, 0]	-999	PAL1	0	R1090C
1602.711	0.275	802676	TEST_ORIENT	n/a	n/a	2	2	SPRING	n/a	FLUTE	SPRING	13	[0, 0, 0]	-999	PAL1	0	R1090C
1603.745	4.0	803193	TEST_PROBE	n/a	wordpools/wordpool_EN.txt	2	2	SPRING	n/a	FLUTE	SPRING	13	[0, 0, 0]	-999	PAL1	0	R1090C
1603.745	2.375	803193	REC_START	n/a	n/a	2	-999	n/a	n/a	n/a	n/a	13	[0, 0, 0]	-999	PAL1	0	R1090C
1606.12	0.768	804381	REC_EVENT	2375.0	n/a	2	2	SPRING	<>	FLUTE	SPRING	13	[0, 0, 0]	-999	PAL1	0	R1090C
1606.888	1.874	804765	REC_EVENT	3143.0	n/a	2	2	SPRING	<>	FLUTE	SPRING	13	[0, 0, 0]	-999	PAL1	0	R1090C
1608.762	0.017	805701	REC_END	n/a	n/a	2	-999	n/a	n/a	n/a	n/a	13	[0, 0, 0]	-999	PAL1	0	R1090C
1608.779	0.275	805710	TEST_ORIENT	n/a	n/a	5	3	TENT	SQUARE	SQUARE	TENT	13	[0, 0, 0]	-999	PAL1	0	R1090C
1609.662	4.0	806151	TEST_PROBE	n/a	wordpools/wordpool_EN.txt	5	3	TENT	SQUARE	SQUARE	TENT	13	[0, 0, 0]	-999	PAL1	0	R1090C
1609.663	0.996	806152	REC_START	n/a	n/a	5	-999	n/a	SQUARE	n/a	n/a	13	[0, 0, 0]	-999	PAL1	0	R1090C
1610.659	4.013	806650	REC_EVENT	996.0	n/a	5	3	TENT	SQUARE	SQUARE	TENT	13	[0, 0, 0]	-999	PAL1	0	R1090C
1614.672	0.008	808656	REC_END	n/a	n/a	5	-999	n/a	n/a	n/a	n/a	13	[0, 0, 0]	-999	PAL1	0	R1090C
1614.68	0.275	808660	TEST_ORIENT	n/a	n/a	4	4	CAPE	SNOW	SNOW	CAPE	13	[0, 0, 0]	-999	PAL1	0	R1090C
1615.647	0.0	809144	REC_START	n/a	n/a	4	-999	n/a	SNOW	n/a	n/a	13	[0, 0, 0]	-999	PAL1	0	R1090C
1615.647	4.0	809144	TEST_PROBE	n/a	wordpools/wordpool_EN.txt	4	4	CAPE	SNOW	SNOW	CAPE	13	[0, 0, 0]	-999	PAL1	0	R1090C
1617.219	3.445	809930	REC_EVENT	1572.0	n/a	4	4	CAPE	SNOW	SNOW	CAPE	13	[0, 0, 0]	-999	PAL1	0	R1090C
1620.664	0.017	811652	REC_END	n/a	n/a	4	-999	n/a	n/a	n/a	n/a	13	[0, 0, 0]	-999	PAL1	0	R1090C
1620.681	0.275	811660	TEST_ORIENT	n/a	n/a	1	5	DOOR	n/a	BOWL	DOOR	13	[0, 0, 0]	-999	PAL1	0	R1090C
1621.548	4.0	812094	TEST_PROBE	n/a	wordpools/wordpool_EN.txt	1	5	DOOR	n/a	BOWL	DOOR	13	[0, 0, 0]	-999	PAL1	0	R1090C
1621.548	2.751	812094	REC_START	n/a	n/a	1	-999	n/a	n/a	n/a	n/a	13	[0, 0, 0]	-999	PAL1	0	R1090C
1624.299	2.267	813469	REC_EVENT	2751.0	n/a	1	5	DOOR	<>	BOWL	DOOR	13	[0, 0, 0]	-999	PAL1	0	R1090C
1626.566	0.016	814603	REC_END	n/a	n/a	1	-999	n/a	n/a	n/a	n/a	13	[0, 0, 0]	-999	PAL1	0	R1090C
1626.582	0.275	814611	TEST_ORIENT	n/a	n/a	6	6	POOL	n/a	PIPE	POOL	13	[0, 0, 0]	-999	PAL1	0	R1090C
1627.398	4.0	815019	TEST_PROBE	n/a	wordpools/wordpool_EN.txt	6	6	POOL	n/a	PIPE	POOL	13	[0, 0, 0]	-999	PAL1	0	R1090C
1627.399	3.748	815019	REC_START	n/a	n/a	6	-999	n/a	n/a	n/a	n/a	13	[0, 0, 0]	-999	PAL1	0	R1090C
1631.147	1.261	816893	REC_EVENT	3748.0	n/a	6	6	POOL	<>	PIPE	POOL	13	[0, 0, 0]	-999	PAL1	0	R1090C
1632.408	1.288	817523	REC_END	n/a	n/a	6	-999	n/a	n/a	n/a	n/a	13	[0, 0, 0]	-999	PAL1	0	R1090C
1633.696	10.439	818167	ENCODING_START	n/a	n/a	0	-999	n/a	n/a	n/a	n/a	14	[0, 0, 0]	-999	PAL1	0	R1090C
1644.135	0.275	823386	STUDY_ORIENT	n/a	n/a	1	3	HOOK	CRANE	HOOK	CRANE	14	[0, 0, 0]	-999	PAL1	0	R1090C
1644.952	4.0	823795	STUDY_PAIR	n/a	wordpools/wordpool_EN.txt	1	3	HOOK	CRANE	HOOK	CRANE	14	[0, 0, 0]	-999	PAL1	0	R1090C
1649.97	0.275	826304	STUDY_ORIENT	n/a	n/a	2	4	BALL	PARK	PURSE	BALL	14	[0, 0, 0]	-999	PAL1	0	R1090C
1650.87	4.0	826754	STUDY_PAIR	n/a	wordpools/wordpool_EN.txt	2	4	BALL	PARK	PURSE	BALL	14	[0, 0, 0]	-999	PAL1	0	R1090C
1655.888	0.275	829262	STUDY_ORIENT	n/a	n/a	3	1	FORK	FOOD	FOOD	FORK	14	[0, 0, 0]	-999	PAL1	0	R1090C
1656.788	4.0	829712	STUDY_PAIR	n/a	wordpools/wordpool_EN.txt	3	1	FORK	FOOD	FOOD	FORK	14	[0, 0, 0]	-999	PAL1	0	R1090C
1661.806	0.275	832221	STUDY_ORIENT	n/a	n/a	4	6	SLIME	BOMB	BOMB	SLIME	14	[0, 0, 0]	-999	PAL1	0	R1090C
1662.639	4.0	832638	STUDY_PAIR	n/a	wordpools/wordpool_EN.txt	4	6	SLIME	BOMB	BOMB	SLIME	14	[0, 0, 0]	-999	PAL1	0	R1090C
1667.657	0.275	835146	STUDY_ORIENT	n/a	n/a	5	5	HAT	n/a	CAR	HAT	14	[0, 0, 0]	-999	PAL1	0	R1090C
1668.64	4.0	835638	STUDY_PAIR	n/a	wordpools/wordpool_EN.txt	5	5	HAT	n/a	CAR	HAT	14	[0, 0, 0]	-999	PAL1	0	R1090C
1673.658	0.275	838147	STUDY_ORIENT	n/a	n/a	6	2	PARK	STRAW	STRAW	PARK	14	[0, 0, 0]	-999	PAL1	0	R1090C
1674.508	4.0	838572	STUDY_PAIR	n/a	wordpools/wordpool_EN.txt	6	2	PARK	STRAW	STRAW	PARK	14	[0, 0, 0]	-999	PAL1	0	R1090C
1678.51	0.999	840572	START	n/a	n/a	-999	-999	n/a	n/a	n/a	n/a	14	[-999, -999, -999]	-999	PAL1	0	R1090C
1679.509	0.017	841072	MATH_START	n/a	n/a	-999	-999	n/a	n/a	n/a	n/a	14	[0, 0, 0]	-999	PAL1	0	R1090C
1679.526	3.484	841080	PROB	3450.0	n/a	-999	-999	n/a	n/a	n/a	n/a	14	[3, 6, 2]	11	PAL1	0	R1090C
1683.01	3.283	842822	PROB	3261.0	n/a	-999	-999	n/a	n/a	n/a	n/a	14	[5, 2, 4]	11	PAL1	0	R1090C
1686.293	3.335	844464	PROB	3307.0	n/a	-999	-999	n/a	n/a	n/a	n/a	14	[2, 6, 4]	12	PAL1	0	R1090C
1689.628	4.417	846131	PROB	4388.0	n/a	-999	-999	n/a	n/a	n/a	n/a	14	[1, 4, 4]	9	PAL1	0	R1090C
1694.045	2.784	848339	PROB	2763.0	n/a	-999	-999	n/a	n/a	n/a	n/a	14	[1, 3, 9]	13	PAL1	0	R1090C
1696.829	2.243	849731	PROB	2243.0	n/a	-999	-999	n/a	n/a	n/a	n/a	14	[7, 7, 7]	21	PAL1	0	R1090C
1699.072	0.008	850853	STOP	n/a	n/a	-999	-999	n/a	n/a	n/a	n/a	14	[-999, -999, -999]	-999	PAL1	0	R1090C
1699.08	0.0	850857	TEST_START	n/a	n/a	-999	-999	n/a	n/a	n/a	n/a	14	[0, 0, 0]	-999	PAL1	0	R1090C
1699.08	0.016	850857	MATH_END	n/a	n/a	-999	-999	n/a	n/a	n/a	n/a	14	[0, 0, 0]	-999	PAL1	0	R1090C
1699.096	0.275	850865	TEST_ORIENT	n/a	n/a	3	1	FORK	FOOD	FOOD	FORK	14	[0, 0, 0]	-999	PAL1	0	R1090C
1700.113	4.0	851373	TEST_PROBE	n/a	wordpools/wordpool_EN.txt	3	1	FORK	FOOD	FOOD	FORK	14	[0, 0, 0]	-999	PAL1	0	R1090C
1700.118	1.872	851376	REC_START	n/a	n/a	3	-999	n/a	FOOD	n/a	n/a	14	[0, 0, 0]	-999	PAL1	0	R1090C
1701.99	3.124	852311	REC_EVENT	1872.0	n/a	3	1	FORK	FOOD	FOOD	FORK	14	[0, 0, 0]	-999	PAL1	0	R1090C
1705.114	0.016	853873	REC_END	n/a	n/a	3	-999	n/a	n/a	n/a	n/a	14	[0, 0, 0]	-999	PAL1	0	R1090C
1705.13	0.275	853881	TEST_ORIENT	n/a	n/a	6	2	PARK	STRAW	STRAW	PARK	14	[0, 0, 0]	-999	PAL1	0	R1090C
1706.014	4.0	854323	TEST_PROBE	n/a	wordpools/wordpool_EN.txt	6	2	PARK	STRAW	STRAW	PARK	14	[0, 0, 0]	-999	PAL1	0	R1090C
1706.015	1.594	854324	REC_START	n/a	n/a	6	-999	n/a	STRAW	n/a	n/a	14	[0, 0, 0]	-999	PAL1	0	R1090C
1707.609	3.415	855121	REC_EVENT	1594.0	n/a	6	2	PARK	STRAW	STRAW	PARK	14	[0, 0, 0]	-999	PAL1	0	R1090C
1711.024	0.008	856828	REC_END	n/a	n/a	6	-999	n/a	n/a	n/a	n/a	14	[0, 0, 0]	-999	PAL1	0	R1090C
1711.032	0.275	856832	TEST_ORIENT	n/a	n/a	1	3	HOOK	CRANE	HOOK	CRANE	14	[0, 0, 0]	-999	PAL1	0	R1090C
1711.932	4.0	857282	TEST_PROBE	n/a	wordpools/wordpool_EN.txt	1	3	HOOK	CRANE	HOOK	CRANE	14	[0, 0, 0]	-999	PAL1	0	R1090C
1711.933	1.106	857283	REC_START	n/a	n/a	1	-999	n/a	CRANE	n/a	n/a	14	[0, 0, 0]	-999	PAL1	0	R1090C
1713.039	3.92	857835	REC_EVENT	1106.0	n/a	1	3	HOOK	CRANE	HOOK	CRANE	14	[0, 0, 0]	-999	PAL1	0	R1090C
1716.959	0.007	859795	REC_END	n/a	n/a	1	-999	n/a	n/a	n/a	n/a	14	[0, 0, 0]	-999	PAL1	0	R1090C
1716.966	0.275	859799	TEST_ORIENT	n/a	n/a	2	4	BALL	PARK	PURSE	BALL	14	[0, 0, 0]	-999	PAL1	0	R1090C
1717.8	0.0	860216	REC_START	n/a	n/a	2	-999	n/a	PARK	n/a	n/a	14	[0, 0, 0]	-999	PAL1	0	R1090C
1717.8	4.0	860216	TEST_PROBE	n/a	wordpools/wordpool_EN.txt	2	4	BALL	PARK	PURSE	BALL	14	[0, 0, 0]	-999	PAL1	0	R1090C
1719.755	3.062	861193	REC_EVENT	1955.0	n/a	2	4	BALL	PARK	PURSE	BALL	14	[0, 0, 0]	-999	PAL1	0	R1090C
1722.817	0.017	862724	REC_END	n/a	n/a	2	-999	n/a	n/a	n/a	n/a	14	[0, 0, 0]	-999	PAL1	0	R1090C
1722.834	0.275	862733	TEST_ORIENT	n/a	n/a	5	5	HAT	n/a	CAR	HAT	14	[0, 0, 0]	-999	PAL1	0	R1090C
1723.634	4.0	863133	TEST_PROBE	n/a	wordpools/wordpool_EN.txt	5	5	HAT	n/a	CAR	HAT	14	[0, 0, 0]	-999	PAL1	0	R1090C
1723.635	1.715	863133	REC_START	n/a	n/a	5	-999	n/a	n/a	n/a	n/a	14	[0, 0, 0]	-999	PAL1	0	R1090C
1725.35	3.294	863990	REC_EVENT	1715.0	n/a	5	5	HAT	<>	CAR	HAT	14	[0, 0, 0]	-999	PAL1	0	R1090C
1728.644	0.008	865637	REC_END	n/a	n/a	5	-999	n/a	n/a	n/a	n/a	14	[0, 0, 0]	-999	PAL1	0	R1090C
1728.652	0.275	865641	TEST_ORIENT	n/a	n/a	4	6	SLIME	BOMB	BOMB	SLIME	14	[0, 0, 0]	-999	PAL1	0	R1090C
1729.686	0.0	866158	REC_START	n/a	n/a	4	-999	n/a	BOMB	n/a	n/a	14	[0, 0, 0]	-999	PAL1	0	R1090C
1729.686	4.0	866158	TEST_PROBE	n/a	wordpools/wordpool_EN.txt	4	6	SLIME	BOMB	BOMB	SLIME	14	[0, 0, 0]	-999	PAL1	0	R1090C
1732.067	1.134	867349	REC_EVENT	2381.0	n/a	4	6	SLIME	<>	BOMB	SLIME	14	[0, 0, 0]	-999	PAL1	0	R1090C
1733.201	1.502	867916	REC_EVENT	3515.0	n/a	4	6	SLIME	BOMB	BOMB	SLIME	14	[0, 0, 0]	-999	PAL1	0	R1090C
1734.703	1.712	868667	REC_END	n/a	n/a	4	-999	n/a	n/a	n/a	n/a	14	[0, 0, 0]	-999	PAL1	0	R1090C
1736.415	10.457	869522	ENCODING_START	n/a	n/a	0	-999	n/a	n/a	n/a	n/a	15	[0, 0, 0]	-999	PAL1	0	R1090C
1746.872	0.275	874751	STUDY_ORIENT	n/a	n/a	1	3	LAMP	n/a	LAMP	BEAK	15	[0, 0, 0]	-999	PAL1	0	R1090C
1747.822	4.0	875225	STUDY_PAIR	n/a	wordpools/wordpool_EN.txt	1	3	LAMP	n/a	LAMP	BEAK	15	[0, 0, 0]	-999	PAL1	0	R1090C
1752.84	0.275	877734	STUDY_ORIENT	n/a	n/a	2	6	FARM	SEAL	SEAL	FARM	15	[0, 0, 0]	-999	PAL1	0	R1090C
1753.723	4.0	878176	STUDY_PAIR	n/a	wordpools/wordpool_EN.txt	2	6	FARM	SEAL	SEAL	FARM	15	[0, 0, 0]	-999	PAL1	0	R1090C
1758.741	0.275	880685	STUDY_ORIENT	n/a	n/a	3	5	CLOUD	SMOKE	CLOUD	SMOKE	15	[0, 0, 0]	-999	PAL1	0	R1090C
1759.558	4.0	881093	STUDY_PAIR	n/a	wordpools/wordpool_EN.txt	3	5	CLOUD	SMOKE	CLOUD	SMOKE	15	[0, 0, 0]	-999	PAL1	0	R1090C
1764.592	0.275	883610	STUDY_ORIENT	n/a	n/a	4	4	STEM	n/a	STEM	SHIRT	15	[0, 0, 0]	-999	PAL1	0	R1090C
1765.459	4.0	884043	STUDY_PAIR	n/a	wordpools/wordpool_EN.txt	4	4	STEM	n/a	STEM	SHIRT	15	[0, 0, 0]	-999	PAL1	0	R1090C
1770.493	0.275	886560	STUDY_ORIENT	n/a	n/a	5	1	FENCE	n/a	CLOCK	FENCE	15	[0, 0, 0]	-999	PAL1	0	R1090C
1771.342	4.0	886984	STUDY_PAIR	n/a	wordpools/wordpool_EN.txt	5	1	FENCE	n/a	CLOCK	FENCE	15	[0, 0, 0]	-999	PAL1	0	R1090C
1776.36	0.275	889493	STUDY_ORIENT	n/a	n/a	6	2	EGG	n/a	EGG	RAT	15	[0, 0, 0]	-999	PAL1	0	R1090C
1777.144	4.0	889885	STUDY_PAIR	n/a	wordpools/wordpool_EN.txt	6	2	EGG	n/a	EGG	RAT	15	[0, 0, 0]	-999	PAL1	0	R1090C
1781.161	1.0	891894	START	n/a	n/a	-999	-999	n/a	n/a	n/a	n/a	15	[-999, -999, -999]	-999	PAL1	0	R1090C
1782.161	0.017	892394	MATH_START	n/a	n/a	-999	-999	n/a	n/a	n/a	n/a	15	[0, 0, 0]	-999	PAL1	0	R1090C
1782.178	5.402	892402	PROB	5366.0	n/a	-999	-999	n/a	n/a	n/a	n/a	15	[6, 9, 9]	24	PAL1	0	R1090C
1787.58	9.867	895103	PROB	9843.0	n/a	-999	-999	n/a	n/a	n/a	n/a	15	[8, 7, 9]	25	PAL1	0	R1090C
1797.447	6.856	900036	PROB	6856.0	n/a	-999	-999	n/a	n/a	n/a	n/a	15	[9, 4, 7]	21	PAL1	0	R1090C
1804.303	0.012	903464	STOP	n/a	n/a	-999	-999	n/a	n/a	n/a	n/a	15	[-999, -999, -999]	-999	PAL1	0	R1090C
1804.315	0.0	903470	TEST_START	n/a	n/a	-999	-999	n/a	n/a	n/a	n/a	15	[0, 0, 0]	-999	PAL1	0	R1090C
1804.315	0.017	903470	MATH_END	n/a	n/a	-999	-999	n/a	n/a	n/a	n/a	15	[0, 0, 0]	-999	PAL1	0	R1090C
1804.332	0.275	903478	TEST_ORIENT	n/a	n/a	5	1	FENCE	n/a	CLOCK	FENCE	15	[0, 0, 0]	-999	PAL1	0	R1090C
1805.316	4.0	903970	TEST_PROBE	n/a	wordpools/wordpool_EN.txt	5	1	FENCE	n/a	CLOCK	FENCE	15	[0, 0, 0]	-999	PAL1	0	R1090C
1805.316	5.015	903970	REC_START	n/a	n/a	5	-999	n/a	n/a	n/a	n/a	15	[0, 0, 0]	-999	PAL1	0	R1090C
1810.331	0.002	906477	REC_EVENT	5015.0	n/a	5	1	FENCE	<>	CLOCK	FENCE	15	[0, 0, 0]	-999	PAL1	0	R1090C
1810.333	0.017	906478	REC_END	n/a	n/a	5	-999	n/a	n/a	n/a	n/a	15	[0, 0, 0]	-999	PAL1	0	R1090C
1810.35	0.275	906487	TEST_ORIENT	n/a	n/a	6	2	EGG	n/a	EGG	RAT	15	[0, 0, 0]	-999	PAL1	0	R1090C
1811.3	4.0	906962	TEST_PROBE	n/a	wordpools/wordpool_EN.txt	6	2	EGG	n/a	EGG	RAT	15	[0, 0, 0]	-999	PAL1	0	R1090C
1811.301	5.009	906962	REC_START	n/a	n/a	6	-999	n/a	n/a	n/a	n/a	15	[0, 0, 0]	-999	PAL1	0	R1090C
1816.31	0.0	909467	REC_END	n/a	n/a	6	-999	n/a	n/a	n/a	n/a	15	[0, 0, 0]	-999	PAL1	0	R1090C
1816.31	0.008	909467	REC_EVENT	5009.0	n/a	6	2	EGG	<>	EGG	RAT	15	[0, 0, 0]	-999	PAL1	0	R1090C
1816.318	0.275	909471	TEST_ORIENT	n/a	n/a	1	3	LAMP	n/a	LAMP	BEAK	15	[0, 0, 0]	-999	PAL1	0	R1090C
1817.201	4.0	909912	TEST_PROBE	n/a	wordpools/wordpool_EN.txt	1	3	LAMP	n/a	LAMP	BEAK	15	[0, 0, 0]	-999	PAL1	0	R1090C
1817.201	1.513	909912	REC_START	n/a	n/a	1	-999	n/a	n/a	n/a	n/a	15	[0, 0, 0]	-999	PAL1	0	R1090C
1818.714	3.505	910668	REC_EVENT	1513.0	n/a	1	3	LAMP	<>	LAMP	BEAK	15	[0, 0, 0]	-999	PAL1	0	R1090C
1822.219	0.017	912421	REC_END	n/a	n/a	1	-999	n/a	n/a	n/a	n/a	15	[0, 0, 0]	-999	PAL1	0	R1090C
1822.236	0.275	912429	TEST_ORIENT	n/a	n/a	4	4	STEM	n/a	STEM	SHIRT	15	[0, 0, 0]	-999	PAL1	0	R1090C
1823.119	4.0	912871	TEST_PROBE	n/a	wordpools/wordpool_EN.txt	4	4	STEM	n/a	STEM	SHIRT	15	[0, 0, 0]	-999	PAL1	0	R1090C
1823.12	2.426	912871	REC_START	n/a	n/a	4	-999	n/a	n/a	n/a	n/a	15	[0, 0, 0]	-999	PAL1	0	R1090C
1825.546	2.59	914084	REC_EVENT	2426.0	n/a	4	4	STEM	<>	STEM	SHIRT	15	[0, 0, 0]	-999	PAL1	0	R1090C
1828.136	0.017	915379	REC_END	n/a	n/a	4	-999	n/a	n/a	n/a	n/a	15	[0, 0, 0]	-999	PAL1	0	R1090C
1828.153	0.275	915388	TEST_ORIENT	n/a	n/a	3	5	CLOUD	SMOKE	CLOUD	SMOKE	15	[0, 0, 0]	-999	PAL1	0	R1090C
1829.055	4.0	915839	TEST_PROBE	n/a	wordpools/wordpool_EN.txt	3	5	CLOUD	SMOKE	CLOUD	SMOKE	15	[0, 0, 0]	-999	PAL1	0	R1090C
1829.055	3.211	915839	REC_START	n/a	n/a	3	-999	n/a	SMOKE	n/a	n/a	15	[0, 0, 0]	-999	PAL1	0	R1090C
1832.266	1.294	917444	REC_EVENT	3211.0	n/a	3	5	CLOUD	FOG	CLOUD	SMOKE	15	[0, 0, 0]	-999	PAL1	0	R1090C
1833.56	0.512	918091	REC_EVENT	4505.0	n/a	3	5	CLOUD	SMOKE	CLOUD	SMOKE	15	[0, 0, 0]	-999	PAL1	0	R1090C
1834.072	0.017	918347	REC_END	n/a	n/a	3	-999	n/a	n/a	n/a	n/a	15	[0, 0, 0]	-999	PAL1	0	R1090C
1834.089	0.275	918355	TEST_ORIENT	n/a	n/a	2	6	FARM	SEAL	SEAL	FARM	15	[0, 0, 0]	-999	PAL1	0	R1090C
1835.006	4.0	918814	TEST_PROBE	n/a	wordpools/wordpool_EN.txt	2	6	FARM	SEAL	SEAL	FARM	15	[0, 0, 0]	-999	PAL1	0	R1090C
1835.006	2.043	918814	REC_START	n/a	n/a	2	-999	n/a	SEAL	n/a	n/a	15	[0, 0, 0]	-999	PAL1	0	R1090C
1837.049	2.974	919835	REC_EVENT	2043.0	n/a	2	6	FARM	SEAL	SEAL	FARM	15	[0, 0, 0]	-999	PAL1	0	R1090C
1840.023	15.073	921322	REC_END	n/a	n/a	2	-999	n/a	n/a	n/a	n/a	15	[0, 0, 0]	-999	PAL1	0	R1090C
1855.096	10.449	928858	ENCODING_START	n/a	n/a	0	-999	n/a	n/a	n/a	n/a	16	[0, 0, 0]	-999	PAL1	0	R1090C
1865.545	0.275	934082	STUDY_ORIENT	n/a	n/a	1	5	PANTS	n/a	PANTS	GOAT	16	[0, 0, 0]	-999	PAL1	0	R1090C
1866.444	4.0	934531	STUDY_PAIR	n/a	wordpools/wordpool_EN.txt	1	5	PANTS	n/a	PANTS	GOAT	16	[0, 0, 0]	-999	PAL1	0	R1090C
1871.479	0.275	937049	STUDY_ORIENT	n/a	n/a	2	2	ROAD	n/a	CORN	ROAD	16	[0, 0, 0]	-999	PAL1	0	R1090C
1872.445	4.0	937532	STUDY_PAIR	n/a	wordpools/wordpool_EN.txt	2	2	ROAD	n/a	CORN	ROAD	16	[0, 0, 0]	-999	PAL1	0	R1090C
1877.464	0.275	940041	STUDY_ORIENT	n/a	n/a	3	1	PLANE	n/a	PLANE	BEAR	16	[0, 0, 0]	-999	PAL1	0	R1090C
1878.481	4.0	940549	STUDY_PAIR	n/a	wordpools/wordpool_EN.txt	3	1	PLANE	n/a	PLANE	BEAR	16	[0, 0, 0]	-999	PAL1	0	R1090C
1883.515	0.275	943066	STUDY_ORIENT	n/a	n/a	4	4	BRUSH	n/a	BRUSH	BEAN	16	[0, 0, 0]	-999	PAL1	0	R1090C
1884.331	4.0	943474	STUDY_PAIR	n/a	wordpools/wordpool_EN.txt	4	4	BRUSH	n/a	BRUSH	BEAN	16	[0, 0, 0]	-999	PAL1	0	R1090C
1889.365	0.275	945991	STUDY_ORIENT	n/a	n/a	5	3	CLIFF	STOOL	CLIFF	STOOL	16	[0, 0, 0]	-999	PAL1	0	R1090C
1890.199	4.0	946408	STUDY_PAIR	n/a	wordpools/wordpool_EN.txt	5	3	CLIFF	STOOL	CLIFF	STOOL	16	[0, 0, 0]	-999	PAL1	0	R1090C
1895.233	0.275	948925	STUDY_ORIENT	n/a	n/a	6	6	CHIN	n/a	CHIN	BOAT	16	[0, 0, 0]	-999	PAL1	0	R1090C
1896.216	4.0	949416	STUDY_PAIR	n/a	wordpools/wordpool_EN.txt	6	6	CHIN	n/a	CHIN	BOAT	16	[0, 0, 0]	-999	PAL1	0	R1090C
1900.217	1.0	951416	START	n/a	n/a	-999	-999	n/a	n/a	n/a	n/a	16	[-999, -999, -999]	-999	PAL1	0	R1090C
1901.217	0.017	951916	MATH_START	n/a	n/a	-999	-999	n/a	n/a	n/a	n/a	16	[0, 0, 0]	-999	PAL1	0	R1090C
1901.234	5.869	951925	PROB	5838.0	n/a	-999	-999	n/a	n/a	n/a	n/a	16	[5, 3, 6]	14	PAL1	0	R1090C
1907.103	3.517	954859	PROB	3489.0	n/a	-999	-999	n/a	n/a	n/a	n/a	16	[8, 5, 3]	16	PAL1	0	R1090C
1910.62	4.65	956618	PROB	4627.0	n/a	-999	-999	n/a	n/a	n/a	n/a	16	[7, 5, 4]	16	PAL1	0	R1090C
1915.27	4.118	958942	PROB	4097.0	n/a	-999	-999	n/a	n/a	n/a	n/a	16	[6, 5, 7]	18	PAL1	0	R1090C
1919.388	3.58	961001	PROB	3580.0	n/a	-999	-999	n/a	n/a	n/a	n/a	16	[9, 9, 9]	27	PAL1	0	R1090C
1922.968	0.004	962791	STOP	n/a	n/a	-999	-999	n/a	n/a	n/a	n/a	16	[-999, -999, -999]	-999	PAL1	0	R1090C
1922.972	0.0	962793	TEST_START	n/a	n/a	-999	-999	n/a	n/a	n/a	n/a	16	[0, 0, 0]	-999	PAL1	0	R1090C
1922.972	0.017	962793	MATH_END	n/a	n/a	-999	-999	n/a	n/a	n/a	n/a	16	[0, 0, 0]	-999	PAL1	0	R1090C
1922.989	0.275	962801	TEST_ORIENT	n/a	n/a	3	1	PLANE	n/a	PLANE	BEAR	16	[0, 0, 0]	-999	PAL1	0	R1090C
1923.973	4.0	963293	TEST_PROBE	n/a	wordpools/wordpool_EN.txt	3	1	PLANE	n/a	PLANE	BEAR	16	[0, 0, 0]	-999	PAL1	0	R1090C
1923.978	1.882	963296	REC_START	n/a	n/a	3	-999	n/a	n/a	n/a	n/a	16	[0, 0, 0]	-999	PAL1	0	R1090C
1925.86	3.139	964237	REC_EVENT	1882.0	n/a	3	1	PLANE	<>	PLANE	BEAR	16	[0, 0, 0]	-999	PAL1	0	R1090C
1928.999	0.008	965806	REC_END	n/a	n/a	3	-999	n/a	n/a	n/a	n/a	16	[0, 0, 0]	-999	PAL1	0	R1090C
1929.007	0.275	965810	TEST_ORIENT	n/a	n/a	2	2	ROAD	n/a	CORN	ROAD	16	[0, 0, 0]	-999	PAL1	0	R1090C
1930.007	4.0	966310	TEST_PROBE	n/a	wordpools/wordpool_EN.txt	2	2	ROAD	n/a	CORN	ROAD	16	[0, 0, 0]	-999	PAL1	0	R1090C
1930.008	2.867	966311	REC_START	n/a	n/a	2	-999	n/a	n/a	n/a	n/a	16	[0, 0, 0]	-999	PAL1	0	R1090C
1932.875	2.142	967744	REC_EVENT	2867.0	n/a	2	2	ROAD	<>	CORN	ROAD	16	[0, 0, 0]	-999	PAL1	0	R1090C
1935.017	0.008	968815	REC_END	n/a	n/a	2	-999	n/a	n/a	n/a	n/a	16	[0, 0, 0]	-999	PAL1	0	R1090C
1935.025	0.275	968819	TEST_ORIENT	n/a	n/a	5	3	CLIFF	STOOL	CLIFF	STOOL	16	[0, 0, 0]	-999	PAL1	0	R1090C
1935.925	4.0	969269	TEST_PROBE	n/a	wordpools/wordpool_EN.txt	5	3	CLIFF	STOOL	CLIFF	STOOL	16	[0, 0, 0]	-999	PAL1	0	R1090C
1935.926	1.438	969269	REC_START	n/a	n/a	5	-999	n/a	STOOL	n/a	n/a	16	[0, 0, 0]	-999	PAL1	0	R1090C
1937.364	0.689	969988	REC_EVENT	1438.0	n/a	5	3	CLIFF	<>	CLIFF	STOOL	16	[0, 0, 0]	-999	PAL1	0	R1090C
1938.053	0.879	970333	REC_EVENT	2127.0	n/a	5	3	CLIFF	STOOL	CLIFF	STOOL	16	[0, 0, 0]	-999	PAL1	0	R1090C
1938.932	1.0	970772	REC_EVENT	3006.0	n/a	5	3	CLIFF	<>	CLIFF	STOOL	16	[0, 0, 0]	-999	PAL1	0	R1090C
1939.932	1.011	971272	REC_EVENT	4006.0	n/a	5	3	CLIFF	<>	CLIFF	STOOL	16	[0, 0, 0]	-999	PAL1	0	R1090C
1940.943	0.016	971778	REC_END	n/a	n/a	5	-999	n/a	n/a	n/a	n/a	16	[0, 0, 0]	-999	PAL1	0	R1090C
1940.959	0.275	971786	TEST_ORIENT	n/a	n/a	4	4	BRUSH	n/a	BRUSH	BEAN	16	[0, 0, 0]	-999	PAL1	0	R1090C
1941.993	4.0	972303	TEST_PROBE	n/a	wordpools/wordpool_EN.txt	4	4	BRUSH	n/a	BRUSH	BEAN	16	[0, 0, 0]	-999	PAL1	0	R1090C
1941.993	1.441	972303	REC_START	n/a	n/a	4	-999	n/a	n/a	n/a	n/a	16	[0, 0, 0]	-999	PAL1	0	R1090C
1943.434	3.576	973023	REC_EVENT	1441.0	n/a	4	4	BRUSH	<>	BRUSH	BEAN	16	[0, 0, 0]	-999	PAL1	0	R1090C
1947.01	0.017	974811	REC_END	n/a	n/a	4	-999	n/a	n/a	n/a	n/a	16	[0, 0, 0]	-999	PAL1	0	R1090C
1947.027	0.275	974819	TEST_ORIENT	n/a	n/a	1	5	PANTS	n/a	PANTS	GOAT	16	[0, 0, 0]	-999	PAL1	0	R1090C
1948.011	4.0	975311	TEST_PROBE	n/a	wordpools/wordpool_EN.txt	1	5	PANTS	n/a	PANTS	GOAT	16	[0, 0, 0]	-999	PAL1	0	R1090C
1948.011	2.274	975311	REC_START	n/a	n/a	1	-999	n/a	n/a	n/a	n/a	16	[0, 0, 0]	-999	PAL1	0	R1090C
1950.285	2.752	976448	REC_EVENT	2274.0	n/a	1	5	PANTS	<>	PANTS	GOAT	16	[0, 0, 0]	-999	PAL1	0	R1090C
1953.037	0.008	977824	REC_END	n/a	n/a	1	-999	n/a	n/a	n/a	n/a	16	[0, 0, 0]	-999	PAL1	0	R1090C
1953.045	0.275	977828	TEST_ORIENT	n/a	n/a	6	6	CHIN	n/a	CHIN	BOAT	16	[0, 0, 0]	-999	PAL1	0	R1090C
1953.895	4.0	978253	TEST_PROBE	n/a	wordpools/wordpool_EN.txt	6	6	CHIN	n/a	CHIN	BOAT	16	[0, 0, 0]	-999	PAL1	0	R1090C
1953.895	5.009	978253	REC_START	n/a	n/a	6	-999	n/a	n/a	n/a	n/a	16	[0, 0, 0]	-999	PAL1	0	R1090C
1958.904	0.0	980757	REC_EVENT	5009.0	n/a	6	6	CHIN	<>	CHIN	BOAT	16	[0, 0, 0]	-999	PAL1	0	R1090C
1958.904	1.56	980757	REC_END	n/a	n/a	6	-999	n/a	n/a	n/a	n/a	16	[0, 0, 0]	-999	PAL1	0	R1090C
1960.464	10.451	981537	ENCODING_START	n/a	n/a	0	-999	n/a	n/a	n/a	n/a	17	[0, 0, 0]	-999	PAL1	0	R1090C
1970.915	0.275	986762	STUDY_ORIENT	n/a	n/a	1	1	BAG	JUICE	JUICE	BAG	17	[0, 0, 0]	-999	PAL1	0	R1090C
1971.799	4.0	987204	STUDY_PAIR	n/a	wordpools/wordpool_EN.txt	1	1	BAG	JUICE	JUICE	BAG	17	[0, 0, 0]	-999	PAL1	0	R1090C
1976.833	0.275	989721	STUDY_ORIENT	n/a	n/a	2	2	TRAIN	n/a	TRAIN	TOOL	17	[0, 0, 0]	-999	PAL1	0	R1090C
1977.85	4.0	990230	STUDY_PAIR	n/a	wordpools/wordpool_EN.txt	2	2	TRAIN	n/a	TRAIN	TOOL	17	[0, 0, 0]	-999	PAL1	0	R1090C
1982.884	0.275	992746	STUDY_ORIENT	n/a	n/a	3	5	SKUNK	BREAD	BREAD	SKUNK	17	[0, 0, 0]	-999	PAL1	0	R1090C
1983.784	4.0	993196	STUDY_PAIR	n/a	wordpools/wordpool_EN.txt	3	5	SKUNK	BREAD	BREAD	SKUNK	17	[0, 0, 0]	-999	PAL1	0	R1090C
1988.802	0.275	995705	STUDY_ORIENT	n/a	n/a	4	6	JAR	TIE	TIE	JAR	17	[0, 0, 0]	-999	PAL1	0	R1090C
1989.752	4.0	996180	STUDY_PAIR	n/a	wordpools/wordpool_EN.txt	4	6	JAR	TIE	TIE	JAR	17	[0, 0, 0]	-999	PAL1	0	R1090C
1994.786	0.275	998697	STUDY_ORIENT	n/a	n/a	5	3	BENCH	FUDGE	NET	BENCH	17	[0, 0, 0]	-999	PAL1	0	R1090C
1995.62	4.0	999114	STUDY_PAIR	n/a	wordpools/wordpool_EN.txt	5	3	BENCH	FUDGE	NET	BENCH	17	[0, 0, 0]	-999	PAL1	0	R1090C
2000.654	0.275	1001631	STUDY_ORIENT	n/a	n/a	6	4	FUDGE	LAMB	LAMB	FUDGE	17	[0, 0, 0]	-999	PAL1	0	R1090C
2001.671	4.0	1002139	STUDY_PAIR	n/a	wordpools/wordpool_EN.txt	6	4	FUDGE	LAMB	LAMB	FUDGE	17	[0, 0, 0]	-999	PAL1	0	R1090C
2005.689	0.999	1004148	START	n/a	n/a	-999	-999	n/a	n/a	n/a	n/a	17	[-999, -999, -999]	-999	PAL1	0	R1090C
2006.688	0.017	1004647	MATH_START	n/a	n/a	-999	-999	n/a	n/a	n/a	n/a	17	[0, 0, 0]	-999	PAL1	0	R1090C
2006.705	5.251	1004656	PROB	5231.0	n/a	-999	-999	n/a	n/a	n/a	n/a	17	[7, 9, 5]	21	PAL1	0	R1090C
2011.956	3.167	1007281	PROB	3148.0	n/a	-999	-999	n/a	n/a	n/a	n/a	17	[5, 5, 8]	18	PAL1	0	R1090C
2015.123	4.585	1008865	PROB	4557.0	n/a	-999	-999	n/a	n/a	n/a	n/a	17	[2, 2, 3]	7	PAL1	0	R1090C
2019.708	6.092	1011157	PROB	6092.0	n/a	-999	-999	n/a	n/a	n/a	n/a	17	[7, 8, 7]	22	PAL1	0	R1090C
2025.8	0.009	1014203	STOP	n/a	n/a	-999	-999	n/a	n/a	n/a	n/a	17	[-999, -999, -999]	-999	PAL1	0	R1090C
2025.809	0.0	1014207	MATH_END	n/a	n/a	-999	-999	n/a	n/a	n/a	n/a	17	[0, 0, 0]	-999	PAL1	0	R1090C
2025.809	0.017	1014207	TEST_START	n/a	n/a	-999	-999	n/a	n/a	n/a	n/a	17	[0, 0, 0]	-999	PAL1	0	R1090C
2025.826	0.275	1014216	TEST_ORIENT	n/a	n/a	1	1	BAG	JUICE	JUICE	BAG	17	[0, 0, 0]	-999	PAL1	0	R1090C
2026.842	4.0	1014724	TEST_PROBE	n/a	wordpools/wordpool_EN.txt	1	1	BAG	JUICE	JUICE	BAG	17	[0, 0, 0]	-999	PAL1	0	R1090C
2026.843	3.162	1014724	REC_START	n/a	n/a	1	-999	n/a	JUICE	n/a	n/a	17	[0, 0, 0]	-999	PAL1	0	R1090C
2030.005	0.666	1016305	REC_EVENT	3162.0	n/a	1	1	BAG	<>	JUICE	BAG	17	[0, 0, 0]	-999	PAL1	0	R1090C
2030.671	1.181	1016638	REC_EVENT	3828.0	n/a	1	1	BAG	JUICE	JUICE	BAG	17	[0, 0, 0]	-999	PAL1	0	R1090C
2031.852	0.008	1017228	REC_END	n/a	n/a	1	-999	n/a	n/a	n/a	n/a	17	[0, 0, 0]	-999	PAL1	0	R1090C
2031.86	0.275	1017232	TEST_ORIENT	n/a	n/a	2	2	TRAIN	n/a	TRAIN	TOOL	17	[0, 0, 0]	-999	PAL1	0	R1090C
2032.71	4.0	1017657	TEST_PROBE	n/a	wordpools/wordpool_EN.txt	2	2	TRAIN	n/a	TRAIN	TOOL	17	[0, 0, 0]	-999	PAL1	0	R1090C
2032.711	0.769	1017658	REC_START	n/a	n/a	2	-999	n/a	n/a	n/a	n/a	17	[0, 0, 0]	-999	PAL1	0	R1090C
2033.48	1.871	1018042	REC_EVENT	769.0	n/a	2	2	TRAIN	<>	TRAIN	TOOL	17	[0, 0, 0]	-999	PAL1	0	R1090C
2035.351	2.369	1018978	REC_EVENT	2640.0	n/a	2	2	TRAIN	<>	TRAIN	TOOL	17	[0, 0, 0]	-999	PAL1	0	R1090C
2037.72	0.008	1020162	REC_END	n/a	n/a	2	-999	n/a	n/a	n/a	n/a	17	[0, 0, 0]	-999	PAL1	0	R1090C
2037.728	0.275	1020166	TEST_ORIENT	n/a	n/a	5	3	BENCH	FUDGE	NET	BENCH	17	[0, 0, 0]	-999	PAL1	0	R1090C
2038.678	4.0	1020641	TEST_PROBE	n/a	wordpools/wordpool_EN.txt	5	3	BENCH	FUDGE	NET	BENCH	17	[0, 0, 0]	-999	PAL1	0	R1090C
2038.678	1.587	1020641	REC_START	n/a	n/a	5	-999	n/a	FUDGE	n/a	n/a	17	[0, 0, 0]	-999	PAL1	0	R1090C
2040.265	1.774	1021434	REC_EVENT	1587.0	n/a	5	3	BENCH	LAMB	NET	BENCH	17	[0, 0, 0]	-999	PAL1	0	R1090C
2042.039	0.296	1022321	REC_EVENT	3361.0	n/a	5	3	BENCH	<>	NET	BENCH	17	[0, 0, 0]	-999	PAL1	0	R1090C
2042.335	0.704	1022469	REC_EVENT	3657.0	n/a	5	3	BENCH	FUDGE	NET	BENCH	17	[0, 0, 0]	-999	PAL1	0	R1090C
2043.039	0.656	1022821	REC_EVENT	4361.0	n/a	5	3	BENCH	<>	NET	BENCH	17	[0, 0, 0]	-999	PAL1	0	R1090C
2043.695	0.017	1023149	REC_END	n/a	n/a	5	-999	n/a	n/a	n/a	n/a	17	[0, 0, 0]	-999	PAL1	0	R1090C
2043.712	0.275	1023158	TEST_ORIENT	n/a	n/a	6	4	FUDGE	LAMB	LAMB	FUDGE	17	[0, 0, 0]	-999	PAL1	0	R1090C
2044.513	4.0	1023558	TEST_PROBE	n/a	wordpools/wordpool_EN.txt	6	4	FUDGE	LAMB	LAMB	FUDGE	17	[0, 0, 0]	-999	PAL1	0	R1090C
2044.513	0.746	1023558	REC_START	n/a	n/a	6	-999	n/a	LAMB	n/a	n/a	17	[0, 0, 0]	-999	PAL1	0	R1090C
2045.259	4.271	1023931	REC_EVENT	746.0	n/a	6	4	FUDGE	LAMB	LAMB	FUDGE	17	[0, 0, 0]	-999	PAL1	0	R1090C
2049.53	0.017	1026067	REC_END	n/a	n/a	6	-999	n/a	n/a	n/a	n/a	17	[0, 0, 0]	-999	PAL1	0	R1090C
2049.547	0.275	1026075	TEST_ORIENT	n/a	n/a	3	5	SKUNK	BREAD	BREAD	SKUNK	17	[0, 0, 0]	-999	PAL1	0	R1090C
2050.446	4.0	1026525	TEST_PROBE	n/a	wordpools/wordpool_EN.txt	3	5	SKUNK	BREAD	BREAD	SKUNK	17	[0, 0, 0]	-999	PAL1	0	R1090C
2050.446	1.118	1026525	REC_START	n/a	n/a	3	-999	n/a	BREAD	n/a	n/a	17	[0, 0, 0]	-999	PAL1	0	R1090C
2051.564	3.9	1027083	REC_EVENT	1118.0	n/a	3	5	SKUNK	BREAD	BREAD	SKUNK	17	[0, 0, 0]	-999	PAL1	0	R1090C
2055.464	0.017	1029033	REC_END	n/a	n/a	3	-999	n/a	n/a	n/a	n/a	17	[0, 0, 0]	-999	PAL1	0	R1090C
2055.481	0.275	1029042	TEST_ORIENT	n/a	n/a	4	6	JAR	TIE	TIE	JAR	17	[0, 0, 0]	-999	PAL1	0	R1090C
2056.482	4.0	1029542	TEST_PROBE	n/a	wordpools/wordpool_EN.txt	4	6	JAR	TIE	TIE	JAR	17	[0, 0, 0]	-999	PAL1	0	R1090C
2056.482	1.461	1029542	REC_START	n/a	n/a	4	-999	n/a	TIE	n/a	n/a	17	[0, 0, 0]	-999	PAL1	0	R1090C
2057.943	3.556	1030273	REC_EVENT	1461.0	n/a	4	6	JAR	TIE	TIE	JAR	17	[0, 0, 0]	-999	PAL1	0	R1090C
2061.499	2.509	1032051	REC_END	n/a	n/a	4	-999	n/a	n/a	n/a	n/a	17	[0, 0, 0]	-999	PAL1	0	R1090C
2064.008	10.443	1033305	ENCODING_START	n/a	n/a	0	-999	n/a	n/a	n/a	n/a	18	[0, 0, 0]	-999	PAL1	0	R1090C
2074.451	0.275	1038526	STUDY_ORIENT	n/a	n/a	1	3	HILL	STICK	STICK	HILL	18	[0, 0, 0]	-999	PAL1	0	R1090C
2075.234	4.0	1038917	STUDY_PAIR	n/a	wordpools/wordpool_EN.txt	1	3	HILL	STICK	STICK	HILL	18	[0, 0, 0]	-999	PAL1	0	R1090C
2080.268	0.275	1041434	STUDY_ORIENT	n/a	n/a	2	2	MULE	TEA	TEA	MULE	18	[0, 0, 0]	-999	PAL1	0	R1090C
2081.235	4.0	1041918	STUDY_PAIR	n/a	wordpools/wordpool_EN.txt	2	2	MULE	TEA	TEA	MULE	18	[0, 0, 0]	-999	PAL1	0	R1090C
2086.253	0.275	1044427	STUDY_ORIENT	n/a	n/a	3	1	THREAD	n/a	YARD	THREAD	18	[0, 0, 0]	-999	PAL1	0	R1090C
2087.087	4.0	1044843	STUDY_PAIR	n/a	wordpools/wordpool_EN.txt	3	1	THREAD	n/a	YARD	THREAD	18	[0, 0, 0]	-999	PAL1	0	R1090C
2092.105	0.275	1047352	STUDY_ORIENT	n/a	n/a	4	4	PALM	n/a	PALM	TANK	18	[0, 0, 0]	-999	PAL1	0	R1090C
2093.039	4.0	1047819	STUDY_PAIR	n/a	wordpools/wordpool_EN.txt	4	4	PALM	n/a	PALM	TANK	18	[0, 0, 0]	-999	PAL1	0	R1090C
2098.073	0.275	1050336	STUDY_ORIENT	n/a	n/a	5	5	VEST	n/a	VEST	KITE	18	[0, 0, 0]	-999	PAL1	0	R1090C
2098.956	4.0	1050777	STUDY_PAIR	n/a	wordpools/wordpool_EN.txt	5	5	VEST	n/a	VEST	KITE	18	[0, 0, 0]	-999	PAL1	0	R1090C
2103.974	0.275	1053286	STUDY_ORIENT	n/a	n/a	6	6	CAKE	CAKE	CAVE	CAKE	18	[0, 0, 0]	-999	PAL1	0	R1090C
2104.891	4.0	1053745	STUDY_PAIR	n/a	wordpools/wordpool_EN.txt	6	6	CAKE	CAKE	CAVE	CAKE	18	[0, 0, 0]	-999	PAL1	0	R1090C
2108.909	0.999	1055754	START	n/a	n/a	-999	-999	n/a	n/a	n/a	n/a	18	[-999, -999, -999]	-999	PAL1	0	R1090C
2109.908	0.017	1056253	MATH_START	n/a	n/a	-999	-999	n/a	n/a	n/a	n/a	18	[0, 0, 0]	-999	PAL1	0	R1090C
2109.925	5.884	1056261	PROB	5851.0	n/a	-999	-999	n/a	n/a	n/a	n/a	18	[8, 9, 9]	26	PAL1	0	R1090C
2115.809	6.885	1059203	PROB	6855.0	n/a	-999	-999	n/a	n/a	n/a	n/a	18	[9, 8, 4]	21	PAL1	0	R1090C
2122.694	3.067	1062645	PROB	3034.0	n/a	-999	-999	n/a	n/a	n/a	n/a	18	[2, 3, 4]	9	PAL1	0	R1090C
2125.761	2.433	1064179	PROB	2398.0	n/a	-999	-999	n/a	n/a	n/a	n/a	18	[2, 4, 6]	12	PAL1	0	R1090C
2128.194	2.55	1065395	PROB	2550.0	n/a	-999	-999	n/a	n/a	n/a	n/a	18	[6, 4, 2]	12	PAL1	0	R1090C
2130.744	0.018	1066670	STOP	n/a	n/a	-999	-999	n/a	n/a	n/a	n/a	18	[-999, -999, -999]	-999	PAL1	0	R1090C
2130.762	0.0	1066679	MATH_END	n/a	n/a	-999	-999	n/a	n/a	n/a	n/a	18	[0, 0, 0]	-999	PAL1	0	R1090C
2130.762	0.017	1066679	TEST_START	n/a	n/a	-999	-999	n/a	n/a	n/a	n/a	18	[0, 0, 0]	-999	PAL1	0	R1090C
2130.779	0.275	1066688	TEST_ORIENT	n/a	n/a	3	1	THREAD	n/a	YARD	THREAD	18	[0, 0, 0]	-999	PAL1	0	R1090C
2131.596	4.0	1067096	TEST_PROBE	n/a	wordpools/wordpool_EN.txt	3	1	THREAD	n/a	YARD	THREAD	18	[0, 0, 0]	-999	PAL1	0	R1090C
2131.596	3.006	1067096	REC_START	n/a	n/a	3	-999	n/a	n/a	n/a	n/a	18	[0, 0, 0]	-999	PAL1	0	R1090C
2134.602	2.011	1068599	REC_EVENT	3006.0	n/a	3	1	THREAD	<>	YARD	THREAD	18	[0, 0, 0]	-999	PAL1	0	R1090C
2136.613	0.017	1069604	REC_END	n/a	n/a	3	-999	n/a	n/a	n/a	n/a	18	[0, 0, 0]	-999	PAL1	0	R1090C
2136.63	0.275	1069613	TEST_ORIENT	n/a	n/a	2	2	MULE	TEA	TEA	MULE	18	[0, 0, 0]	-999	PAL1	0	R1090C
2137.647	4.0	1070121	TEST_PROBE	n/a	wordpools/wordpool_EN.txt	2	2	MULE	TEA	TEA	MULE	18	[0, 0, 0]	-999	PAL1	0	R1090C
2137.647	1.529	1070121	REC_START	n/a	n/a	2	-999	n/a	TEA	n/a	n/a	18	[0, 0, 0]	-999	PAL1	0	R1090C
2139.176	3.488	1070886	REC_EVENT	1529.0	n/a	2	2	MULE	TEA	TEA	MULE	18	[0, 0, 0]	-999	PAL1	0	R1090C
2142.664	0.017	1072630	REC_END	n/a	n/a	2	-999	n/a	n/a	n/a	n/a	18	[0, 0, 0]	-999	PAL1	0	R1090C
2142.681	0.275	1072638	TEST_ORIENT	n/a	n/a	1	3	HILL	STICK	STICK	HILL	18	[0, 0, 0]	-999	PAL1	0	R1090C
2143.648	4.0	1073122	TEST_PROBE	n/a	wordpools/wordpool_EN.txt	1	3	HILL	STICK	STICK	HILL	18	[0, 0, 0]	-999	PAL1	0	R1090C
2143.649	1.17	1073122	REC_START	n/a	n/a	1	-999	n/a	STICK	n/a	n/a	18	[0, 0, 0]	-999	PAL1	0	R1090C
2144.819	3.839	1073707	REC_EVENT	1170.0	n/a	1	3	HILL	STICK	STICK	HILL	18	[0, 0, 0]	-999	PAL1	0	R1090C
2148.658	0.008	1075626	REC_END	n/a	n/a	1	-999	n/a	n/a	n/a	n/a	18	[0, 0, 0]	-999	PAL1	0	R1090C
2148.666	0.275	1075630	TEST_ORIENT	n/a	n/a	4	4	PALM	n/a	PALM	TANK	18	[0, 0, 0]	-999	PAL1	0	R1090C
2149.699	4.0	1076147	TEST_PROBE	n/a	wordpools/wordpool_EN.txt	4	4	PALM	n/a	PALM	TANK	18	[0, 0, 0]	-999	PAL1	0	R1090C
2149.7	2.844	1076147	REC_START	n/a	n/a	4	-999	n/a	n/a	n/a	n/a	18	[0, 0, 0]	-999	PAL1	0	R1090C
2152.544	1.0	1077569	REC_EVENT	2844.0	n/a	4	4	PALM	<>	PALM	TANK	18	[0, 0, 0]	-999	PAL1	0	R1090C
2153.544	1.0	1078069	REC_EVENT	3844.0	n/a	4	4	PALM	<>	PALM	TANK	18	[0, 0, 0]	-999	PAL1	0	R1090C
2154.544	0.165	1078569	REC_EVENT	4844.0	n/a	4	4	PALM	<>	PALM	TANK	18	[0, 0, 0]	-999	PAL1	0	R1090C
2154.709	0.008	1078652	REC_END	n/a	n/a	4	-999	n/a	n/a	n/a	n/a	18	[0, 0, 0]	-999	PAL1	0	R1090C
2154.717	0.275	1078656	TEST_ORIENT	n/a	n/a	5	5	VEST	n/a	VEST	KITE	18	[0, 0, 0]	-999	PAL1	0	R1090C
2155.734	4.0	1079164	TEST_PROBE	n/a	wordpools/wordpool_EN.txt	5	5	VEST	n/a	VEST	KITE	18	[0, 0, 0]	-999	PAL1	0	R1090C
2155.734	4.363	1079164	REC_START	n/a	n/a	5	-999	n/a	n/a	n/a	n/a	18	[0, 0, 0]	-999	PAL1	0	R1090C
2160.097	0.654	1081345	REC_EVENT	4363.0	n/a	5	5	VEST	<>	VEST	KITE	18	[0, 0, 0]	-999	PAL1	0	R1090C
