onset	duration	sample	trial_type	response_time	stim_file	serialpos	probepos	probe_word	resp_word	study_1	study_2	list	test	answer	experiment	session	subject
0.0	66.087	102509	SESS_START	n/a	n/a	-999	-999	n/a	n/a	n/a	n/a	-999	[0, 0, 0]	-999	PAL1	1	R1003P
66.087	1.016	135551	START	n/a	n/a	-999	-999	n/a	n/a	n/a	n/a	-1	[-999, -999, -999]	-999	PAL1	1	R1003P
67.103	5.467	136059	PROB	5432.0	n/a	-999	-999	n/a	n/a	n/a	n/a	-1	[7, 6, 3]	16	PAL1	1	R1003P
72.57	7.152	138792	PROB	7126.0	n/a	-999	-999	n/a	n/a	n/a	n/a	-1	[7, 5, 3]	15	PAL1	1	R1003P
79.722	3.867	142368	PROB	3845.0	n/a	-999	-999	n/a	n/a	n/a	n/a	-1	[9, 8, 2]	19	PAL1	1	R1003P
83.589	6.155	144302	PROB	6155.0	n/a	-999	-999	n/a	n/a	n/a	n/a	-1	[6, 6, 8]	20	PAL1	1	R1003P
89.744	62.368	147379	STOP	n/a	n/a	-999	-999	n/a	n/a	n/a	n/a	-1	[-999, -999, -999]	-999	PAL1	1	R1003P
152.112	10.442	178561	ENCODING_START	n/a	n/a	0	-999	n/a	n/a	n/a	n/a	1	[0, 0, 0]	-999	PAL1	1	R1003P
162.554	0.275	183782	STUDY_ORIENT	n/a	n/a	1	5	CLOCK	PASS	WHALE	CLOCK	1	[0, 0, 0]	-999	PAL1	1	R1003P
163.554	4.0	184282	STUDY_PAIR	n/a	wordpools/wordpool_EN.txt	1	5	CLOCK	PASS	WHALE	CLOCK	1	[0, 0, 0]	-999	PAL1	1	R1003P
168.572	0.275	186791	STUDY_ORIENT	n/a	n/a	2	4	SOUP	NUT	MULE	SOUP	1	[0, 0, 0]	-999	PAL1	1	R1003P
169.555	4.0	187282	STUDY_PAIR	n/a	wordpools/wordpool_EN.txt	2	4	SOUP	NUT	MULE	SOUP	1	[0, 0, 0]	-999	PAL1	1	R1003P
174.573	0.275	189791	STUDY_ORIENT	n/a	n/a	3	1	TIE	NECK	TIE	VASE	1	[0, 0, 0]	-999	PAL1	1	R1003P
175.573	4.0	190291	STUDY_PAIR	n/a	wordpools/wordpool_EN.txt	3	1	TIE	NECK	TIE	VASE	1	[0, 0, 0]	-999	PAL1	1	R1003P
180.591	0.275	192800	STUDY_ORIENT	n/a	n/a	4	6	HAT	PASS	HAWK	HAT	1	[0, 0, 0]	-999	PAL1	1	R1003P
181.524	4.0	193267	STUDY_PAIR	n/a	wordpools/wordpool_EN.txt	4	6	HAT	PASS	HAWK	HAT	1	[0, 0, 0]	-999	PAL1	1	R1003P
186.542	0.275	195775	STUDY_ORIENT	n/a	n/a	5	3	DART	PASS	BAND	DART	1	[0, 0, 0]	-999	PAL1	1	R1003P
187.36	4.0	196184	STUDY_PAIR	n/a	wordpools/wordpool_EN.txt	5	3	DART	PASS	BAND	DART	1	[0, 0, 0]	-999	PAL1	1	R1003P
192.394	0.275	198701	STUDY_ORIENT	n/a	n/a	6	2	RUG	TONGUE	CAGE	RUG	1	[0, 0, 0]	-999	PAL1	1	R1003P
193.261	4.0	199135	STUDY_PAIR	n/a	wordpools/wordpool_EN.txt	6	2	RUG	TONGUE	CAGE	RUG	1	[0, 0, 0]	-999	PAL1	1	R1003P
197.279	0.999	201144	START	n/a	n/a	-999	-999	n/a	n/a	n/a	n/a	1	[-999, -999, -999]	-999	PAL1	1	R1003P
198.278	0.017	201643	MATH_START	n/a	n/a	-999	-999	n/a	n/a	n/a	n/a	1	[0, 0, 0]	-999	PAL1	1	R1003P
198.295	3.734	201652	PROB	3713.0	n/a	-999	-999	n/a	n/a	n/a	n/a	1	[4, 8, 1]	13	PAL1	1	R1003P
202.029	3.018	203519	PROB	2987.0	n/a	-999	-999	n/a	n/a	n/a	n/a	1	[1, 1, 6]	8	PAL1	1	R1003P
205.047	12.488	205028	PROB	12488.0	n/a	-999	-999	n/a	n/a	n/a	n/a	1	[9, 6, 5]	20	PAL1	1	R1003P
217.535	0.013	211271	STOP	n/a	n/a	-999	-999	n/a	n/a	n/a	n/a	1	[-999, -999, -999]	-999	PAL1	1	R1003P
217.548	0.0	211278	MATH_END	n/a	n/a	-999	-999	n/a	n/a	n/a	n/a	1	[0, 0, 0]	-999	PAL1	1	R1003P
217.548	0.017	211278	TEST_START	n/a	n/a	-999	-999	n/a	n/a	n/a	n/a	1	[0, 0, 0]	-999	PAL1	1	R1003P
217.565	0.275	211286	TEST_ORIENT	n/a	n/a	3	1	TIE	NECK	TIE	VASE	1	[0, 0, 0]	-999	PAL1	1	R1003P
218.366	4.0	211687	TEST_PROBE	n/a	wordpools/wordpool_EN.txt	3	1	TIE	NECK	TIE	VASE	1	[0, 0, 0]	-999	PAL1	1	R1003P
218.366	2.046	211687	REC_START	n/a	n/a	3	-999	n/a	NECK	n/a	n/a	1	[0, 0, 0]	-999	PAL1	1	R1003P
220.412	2.971	212710	REC_EVENT	2046.0	n/a	3	1	TIE	NECK	TIE	VASE	1	[0, 0, 0]	-999	PAL1	1	R1003P
223.383	0.017	214195	REC_END	n/a	n/a	3	-999	n/a	n/a	n/a	n/a	1	[0, 0, 0]	-999	PAL1	1	R1003P
223.4	0.275	214204	TEST_ORIENT	n/a	n/a	6	2	RUG	TONGUE	CAGE	RUG	1	[0, 0, 0]	-999	PAL1	1	R1003P
224.3	4.0	214654	TEST_PROBE	n/a	wordpools/wordpool_EN.txt	6	2	RUG	TONGUE	CAGE	RUG	1	[0, 0, 0]	-999	PAL1	1	R1003P
224.301	2.096	214654	REC_START	n/a	n/a	6	-999	n/a	TONGUE	n/a	n/a	1	[0, 0, 0]	-999	PAL1	1	R1003P
226.397	2.912	215702	REC_EVENT	2096.0	n/a	6	2	RUG	TONGUE	CAGE	RUG	1	[0, 0, 0]	-999	PAL1	1	R1003P
229.309	0.009	217158	REC_END	n/a	n/a	6	-999	n/a	n/a	n/a	n/a	1	[0, 0, 0]	-999	PAL1	1	R1003P
229.318	0.275	217162	TEST_ORIENT	n/a	n/a	5	3	DART	PASS	BAND	DART	1	[0, 0, 0]	-999	PAL1	1	R1003P
230.235	4.0	217621	TEST_PROBE	n/a	wordpools/wordpool_EN.txt	5	3	DART	PASS	BAND	DART	1	[0, 0, 0]	-999	PAL1	1	R1003P
230.235	1.536	217621	REC_START	n/a	n/a	5	-999	n/a	PASS	n/a	n/a	1	[0, 0, 0]	-999	PAL1	1	R1003P
231.771	3.481	218389	REC_EVENT	1536.0	n/a	5	3	DART	PASS	BAND	DART	1	[0, 0, 0]	-999	PAL1	1	R1003P
235.252	0.017	220129	REC_END	n/a	n/a	5	-999	n/a	n/a	n/a	n/a	1	[0, 0, 0]	-999	PAL1	1	R1003P
235.269	0.275	220138	TEST_ORIENT	n/a	n/a	2	4	SOUP	NUT	MULE	SOUP	1	[0, 0, 0]	-999	PAL1	1	R1003P
236.186	4.0	220596	TEST_PROBE	n/a	wordpools/wordpool_EN.txt	2	4	SOUP	NUT	MULE	SOUP	1	[0, 0, 0]	-999	PAL1	1	R1003P
236.186	2.072	220596	REC_START	n/a	n/a	2	-999	n/a	NUT	n/a	n/a	1	[0, 0, 0]	-999	PAL1	1	R1003P
238.258	2.945	221632	REC_EVENT	2072.0	n/a	2	4	SOUP	NUT	MULE	SOUP	1	[0, 0, 0]	-999	PAL1	1	R1003P
241.203	0.017	223105	REC_END	n/a	n/a	2	-999	n/a	n/a	n/a	n/a	1	[0, 0, 0]	-999	PAL1	1	R1003P
241.22	0.275	223113	TEST_ORIENT	n/a	n/a	1	5	CLOCK	PASS	WHALE	CLOCK	1	[0, 0, 0]	-999	PAL1	1	R1003P
242.054	4.0	223530	TEST_PROBE	n/a	wordpools/wordpool_EN.txt	1	5	CLOCK	PASS	WHALE	CLOCK	1	[0, 0, 0]	-999	PAL1	1	R1003P
242.054	1.716	223530	REC_START	n/a	n/a	1	-999	n/a	PASS	n/a	n/a	1	[0, 0, 0]	-999	PAL1	1	R1003P
243.77	3.301	224388	REC_EVENT	1716.0	n/a	1	5	CLOCK	PASS	WHALE	CLOCK	1	[0, 0, 0]	-999	PAL1	1	R1003P
247.071	0.017	226038	REC_END	n/a	n/a	1	-999	n/a	n/a	n/a	n/a	1	[0, 0, 0]	-999	PAL1	1	R1003P
247.088	0.275	226047	TEST_ORIENT	n/a	n/a	4	6	HAT	PASS	HAWK	HAT	1	[0, 0, 0]	-999	PAL1	1	R1003P
247.955	4.0	226480	TEST_PROBE	n/a	wordpools/wordpool_EN.txt	4	6	HAT	PASS	HAWK	HAT	1	[0, 0, 0]	-999	PAL1	1	R1003P
247.956	2.64	226481	REC_START	n/a	n/a	4	-999	n/a	PASS	n/a	n/a	1	[0, 0, 0]	-999	PAL1	1	R1003P
250.596	2.376	227801	REC_EVENT	2640.0	n/a	4	6	HAT	PASS	HAWK	HAT	1	[0, 0, 0]	-999	PAL1	1	R1003P
252.972	1.028	228989	REC_END	n/a	n/a	4	-999	n/a	n/a	n/a	n/a	1	[0, 0, 0]	-999	PAL1	1	R1003P
254.0	10.441	229503	ENCODING_START	n/a	n/a	0	-999	n/a	n/a	n/a	n/a	2	[0, 0, 0]	-999	PAL1	1	R1003P
264.441	0.275	234723	STUDY_ORIENT	n/a	n/a	1	5	BOAT	TUG	EEL	BOAT	2	[0, 0, 0]	-999	PAL1	1	R1003P
265.442	4.0	235223	STUDY_PAIR	n/a	wordpools/wordpool_EN.txt	1	5	BOAT	TUG	EEL	BOAT	2	[0, 0, 0]	-999	PAL1	1	R1003P
270.476	0.275	237740	STUDY_ORIENT	n/a	n/a	2	4	JAR	PASS	DOCK	JAR	2	[0, 0, 0]	-999	PAL1	1	R1003P
271.476	4.0	238240	STUDY_PAIR	n/a	wordpools/wordpool_EN.txt	2	4	JAR	PASS	DOCK	JAR	2	[0, 0, 0]	-999	PAL1	1	R1003P
276.493	0.275	240749	STUDY_ORIENT	n/a	n/a	3	3	DRESS	TOOL	HORN	DRESS	2	[0, 0, 0]	-999	PAL1	1	R1003P
277.294	4.0	241149	STUDY_PAIR	n/a	wordpools/wordpool_EN.txt	3	3	DRESS	TOOL	HORN	DRESS	2	[0, 0, 0]	-999	PAL1	1	R1003P
282.328	0.275	243666	STUDY_ORIENT	n/a	n/a	4	6	FARM	PASS	BALL	FARM	2	[0, 0, 0]	-999	PAL1	1	R1003P
283.195	4.0	244099	STUDY_PAIR	n/a	wordpools/wordpool_EN.txt	4	6	FARM	PASS	BALL	FARM	2	[0, 0, 0]	-999	PAL1	1	R1003P
288.229	0.275	246616	STUDY_ORIENT	n/a	n/a	5	1	FLEA	RUG	SHOE	FLEA	2	[0, 0, 0]	-999	PAL1	1	R1003P
289.146	4.0	247075	STUDY_PAIR	n/a	wordpools/wordpool_EN.txt	5	1	FLEA	RUG	SHOE	FLEA	2	[0, 0, 0]	-999	PAL1	1	R1003P
294.164	0.275	249584	STUDY_ORIENT	n/a	n/a	6	2	CRANE	TRAIN	CUP	CRANE	2	[0, 0, 0]	-999	PAL1	1	R1003P
295.114	4.0	250059	STUDY_PAIR	n/a	wordpools/wordpool_EN.txt	6	2	CRANE	TRAIN	CUP	CRANE	2	[0, 0, 0]	-999	PAL1	1	R1003P
299.132	0.999	252068	START	n/a	n/a	-999	-999	n/a	n/a	n/a	n/a	2	[-999, -999, -999]	-999	PAL1	1	R1003P
300.131	0.017	252567	MATH_START	n/a	n/a	-999	-999	n/a	n/a	n/a	n/a	2	[0, 0, 0]	-999	PAL1	1	R1003P
300.148	3.868	252576	PROB	3836.0	n/a	-999	-999	n/a	n/a	n/a	n/a	2	[2, 1, 8]	11	PAL1	1	R1003P
304.016	2.667	254509	PROB	2647.0	n/a	-999	-999	n/a	n/a	n/a	n/a	2	[1, 1, 4]	6	PAL1	1	R1003P
306.683	5.501	255843	PROB	5477.0	n/a	-999	-999	n/a	n/a	n/a	n/a	2	[5, 6, 3]	14	PAL1	1	R1003P
312.184	3.951	258593	PROB	3920.0	n/a	-999	-999	n/a	n/a	n/a	n/a	2	[3, 1, 3]	7	PAL1	1	R1003P
316.135	2.483	260569	PROB	2456.0	n/a	-999	-999	n/a	n/a	n/a	n/a	2	[1, 5, 4]	10	PAL1	1	R1003P
318.618	5.102	261810	PROB	5102.0	n/a	-999	-999	n/a	n/a	n/a	n/a	2	[9, 2, 6]	17	PAL1	1	R1003P
323.72	0.016	264361	STOP	n/a	n/a	-999	-999	n/a	n/a	n/a	n/a	2	[-999, -999, -999]	-999	PAL1	1	R1003P
323.736	0.0	264369	TEST_START	n/a	n/a	-999	-999	n/a	n/a	n/a	n/a	2	[0, 0, 0]	-999	PAL1	1	R1003P
323.736	0.017	264369	MATH_END	n/a	n/a	-999	-999	n/a	n/a	n/a	n/a	2	[0, 0, 0]	-999	PAL1	1	R1003P
323.753	0.275	264377	TEST_ORIENT	n/a	n/a	5	1	FLEA	RUG	SHOE	FLEA	2	[0, 0, 0]	-999	PAL1	1	R1003P
324.753	4.0	264877	TEST_PROBE	n/a	wordpools/wordpool_EN.txt	5	1	FLEA	RUG	SHOE	FLEA	2	[0, 0, 0]	-999	PAL1	1	R1003P
324.754	1.496	264878	REC_START	n/a	n/a	5	-999	n/a	RUG	n/a	n/a	2	[0, 0, 0]	-999	PAL1	1	R1003P
326.25	3.52	265626	REC_EVENT	1496.0	n/a	5	1	FLEA	RUG	SHOE	FLEA	2	[0, 0, 0]	-999	PAL1	1	R1003P
329.77	0.017	267386	REC_END	n/a	n/a	5	-999	n/a	n/a	n/a	n/a	2	[0, 0, 0]	-999	PAL1	1	R1003P
329.787	0.275	267394	TEST_ORIENT	n/a	n/a	6	2	CRANE	TRAIN	CUP	CRANE	2	[0, 0, 0]	-999	PAL1	1	R1003P
330.586	4.0	267794	TEST_PROBE	n/a	wordpools/wordpool_EN.txt	6	2	CRANE	TRAIN	CUP	CRANE	2	[0, 0, 0]	-999	PAL1	1	R1003P
330.587	2.171	267794	REC_START	n/a	n/a	6	-999	n/a	TRAIN	n/a	n/a	2	[0, 0, 0]	-999	PAL1	1	R1003P
332.758	2.838	268880	REC_EVENT	2171.0	n/a	6	2	CRANE	TRAIN	CUP	CRANE	2	[0, 0, 0]	-999	PAL1	1	R1003P
335.596	0.008	270299	REC_END	n/a	n/a	6	-999	n/a	n/a	n/a	n/a	2	[0, 0, 0]	-999	PAL1	1	R1003P
335.604	0.275	270303	TEST_ORIENT	n/a	n/a	3	3	DRESS	TOOL	HORN	DRESS	2	[0, 0, 0]	-999	PAL1	1	R1003P
336.472	4.0	270737	TEST_PROBE	n/a	wordpools/wordpool_EN.txt	3	3	DRESS	TOOL	HORN	DRESS	2	[0, 0, 0]	-999	PAL1	1	R1003P
336.473	2.916	270737	REC_START	n/a	n/a	3	-999	n/a	TOOL	n/a	n/a	2	[0, 0, 0]	-999	PAL1	1	R1003P
339.389	2.099	272195	REC_EVENT	2916.0	n/a	3	3	DRESS	TOOL	HORN	DRESS	2	[0, 0, 0]	-999	PAL1	1	R1003P
341.488	0.017	273245	REC_END	n/a	n/a	3	-999	n/a	n/a	n/a	n/a	2	[0, 0, 0]	-999	PAL1	1	R1003P
341.505	0.275	273253	TEST_ORIENT	n/a	n/a	2	4	JAR	PASS	DOCK	JAR	2	[0, 0, 0]	-999	PAL1	1	R1003P
342.522	4.0	273761	TEST_PROBE	n/a	wordpools/wordpool_EN.txt	2	4	JAR	PASS	DOCK	JAR	2	[0, 0, 0]	-999	PAL1	1	R1003P
342.523	1.675	273762	REC_START	n/a	n/a	2	-999	n/a	PASS	n/a	n/a	2	[0, 0, 0]	-999	PAL1	1	R1003P
344.198	3.334	274599	REC_EVENT	1675.0	n/a	2	4	JAR	PASS	DOCK	JAR	2	[0, 0, 0]	-999	PAL1	1	R1003P
347.532	0.008	276266	REC_END	n/a	n/a	2	-999	n/a	n/a	n/a	n/a	2	[0, 0, 0]	-999	PAL1	1	R1003P
347.54	0.275	276270	TEST_ORIENT	n/a	n/a	1	5	BOAT	TUG	EEL	BOAT	2	[0, 0, 0]	-999	PAL1	1	R1003P
348.507	4.0	276754	TEST_PROBE	n/a	wordpools/wordpool_EN.txt	1	5	BOAT	TUG	EEL	BOAT	2	[0, 0, 0]	-999	PAL1	1	R1003P
348.507	1.987	276754	REC_START	n/a	n/a	1	-999	n/a	TUG	n/a	n/a	2	[0, 0, 0]	-999	PAL1	1	R1003P
350.494	3.03	277747	REC_EVENT	1987.0	n/a	1	5	BOAT	TUG	EEL	BOAT	2	[0, 0, 0]	-999	PAL1	1	R1003P
353.524	0.017	279262	REC_END	n/a	n/a	1	-999	n/a	n/a	n/a	n/a	2	[0, 0, 0]	-999	PAL1	1	R1003P
353.541	0.275	279271	TEST_ORIENT	n/a	n/a	4	6	FARM	PASS	BALL	FARM	2	[0, 0, 0]	-999	PAL1	1	R1003P
354.491	4.0	279746	TEST_PROBE	n/a	wordpools/wordpool_EN.txt	4	6	FARM	PASS	BALL	FARM	2	[0, 0, 0]	-999	PAL1	1	R1003P
354.492	2.163	279746	REC_START	n/a	n/a	4	-999	n/a	PASS	n/a	n/a	2	[0, 0, 0]	-999	PAL1	1	R1003P
356.655	2.846	280828	REC_EVENT	2163.0	n/a	4	6	FARM	PASS	BALL	FARM	2	[0, 0, 0]	-999	PAL1	1	R1003P
359.501	1.034	282251	REC_END	n/a	n/a	4	-999	n/a	n/a	n/a	n/a	2	[0, 0, 0]	-999	PAL1	1	R1003P
360.535	10.444	282768	ENCODING_START	n/a	n/a	0	-999	n/a	n/a	n/a	n/a	3	[0, 0, 0]	-999	PAL1	1	R1003P
370.979	0.275	287989	STUDY_ORIENT	n/a	n/a	1	3	STRAW	PASS	LEG	STRAW	3	[0, 0, 0]	-999	PAL1	1	R1003P
371.762	4.0	288381	STUDY_PAIR	n/a	wordpools/wordpool_EN.txt	1	3	STRAW	PASS	LEG	STRAW	3	[0, 0, 0]	-999	PAL1	1	R1003P
376.78	0.275	290890	STUDY_ORIENT	n/a	n/a	2	6	BEE	ANT	BEE	ANT	3	[0, 0, 0]	-999	PAL1	1	R1003P
377.629	4.0	291314	STUDY_PAIR	n/a	wordpools/wordpool_EN.txt	2	6	BEE	ANT	BEE	ANT	3	[0, 0, 0]	-999	PAL1	1	R1003P
382.663	0.275	293831	STUDY_ORIENT	n/a	n/a	3	1	TOE	STEEL	SHIELD	TOE	3	[0, 0, 0]	-999	PAL1	1	R1003P
383.647	4.0	294323	STUDY_PAIR	n/a	wordpools/wordpool_EN.txt	3	1	TOE	STEEL	SHIELD	TOE	3	[0, 0, 0]	-999	PAL1	1	R1003P
388.681	0.275	296840	STUDY_ORIENT	n/a	n/a	4	2	FAN	PASS	SKY	FAN	3	[0, 0, 0]	-999	PAL1	1	R1003P
389.548	4.0	297273	STUDY_PAIR	n/a	wordpools/wordpool_EN.txt	4	2	FAN	PASS	SKY	FAN	3	[0, 0, 0]	-999	PAL1	1	R1003P
394.582	0.275	299790	STUDY_ORIENT	n/a	n/a	5	5	WAND	STRAW	WAND	BLOOM	3	[0, 0, 0]	-999	PAL1	1	R1003P
395.515	4.0	300257	STUDY_PAIR	n/a	wordpools/wordpool_EN.txt	5	5	WAND	STRAW	WAND	BLOOM	3	[0, 0, 0]	-999	PAL1	1	R1003P
400.533	0.275	302765	STUDY_ORIENT	n/a	n/a	6	4	SHELL	PASS	SHELL	ARM	3	[0, 0, 0]	-999	PAL1	1	R1003P
401.5	4.0	303249	STUDY_PAIR	n/a	wordpools/wordpool_EN.txt	6	4	SHELL	PASS	SHELL	ARM	3	[0, 0, 0]	-999	PAL1	1	R1003P
405.501	1.0	305249	START	n/a	n/a	-999	-999	n/a	n/a	n/a	n/a	3	[-999, -999, -999]	-999	PAL1	1	R1003P
406.501	0.017	305749	MATH_START	n/a	n/a	-999	-999	n/a	n/a	n/a	n/a	3	[0, 0, 0]	-999	PAL1	1	R1003P
406.518	3.034	305758	PROB	3009.0	n/a	-999	-999	n/a	n/a	n/a	n/a	3	[6, 7, 2]	15	PAL1	1	R1003P
409.552	3.485	307275	PROB	3456.0	n/a	-999	-999	n/a	n/a	n/a	n/a	3	[2, 2, 7]	8	PAL1	1	R1003P
413.037	2.667	309017	PROB	2634.0	n/a	-999	-999	n/a	n/a	n/a	n/a	3	[1, 3, 6]	10	PAL1	1	R1003P
415.704	3.667	310351	PROB	3648.0	n/a	-999	-999	n/a	n/a	n/a	n/a	3	[2, 6, 1]	9	PAL1	1	R1003P
419.371	2.634	312184	PROB	2605.0	n/a	-999	-999	n/a	n/a	n/a	n/a	3	[4, 1, 5]	10	PAL1	1	R1003P
422.005	2.967	313501	PROB	2947.0	n/a	-999	-999	n/a	n/a	n/a	n/a	3	[3, 2, 4]	9	PAL1	1	R1003P
424.972	4.084	314984	PROB	4084.0	n/a	-999	-999	n/a	n/a	n/a	n/a	3	[9, 3, 3]	15	PAL1	1	R1003P
429.056	0.017	317026	STOP	n/a	n/a	-999	-999	n/a	n/a	n/a	n/a	3	[-999, -999, -999]	-999	PAL1	1	R1003P
429.073	0.0	317035	TEST_START	n/a	n/a	-999	-999	n/a	n/a	n/a	n/a	3	[0, 0, 0]	-999	PAL1	1	R1003P
429.073	0.017	317035	MATH_END	n/a	n/a	-999	-999	n/a	n/a	n/a	n/a	3	[0, 0, 0]	-999	PAL1	1	R1003P
429.09	0.275	317043	TEST_ORIENT	n/a	n/a	3	1	TOE	STEEL	SHIELD	TOE	3	[0, 0, 0]	-999	PAL1	1	R1003P
430.023	4.0	317510	TEST_PROBE	n/a	wordpools/wordpool_EN.txt	3	1	TOE	STEEL	SHIELD	TOE	3	[0, 0, 0]	-999	PAL1	1	R1003P
430.024	1.36	317510	REC_START	n/a	n/a	3	-999	n/a	STEEL	n/a	n/a	3	[0, 0, 0]	-999	PAL1	1	R1003P
431.384	3.648	318190	REC_EVENT	1360.0	n/a	3	1	TOE	STEEL	SHIELD	TOE	3	[0, 0, 0]	-999	PAL1	1	R1003P
435.032	0.009	320014	REC_END	n/a	n/a	3	-999	n/a	n/a	n/a	n/a	3	[0, 0, 0]	-999	PAL1	1	R1003P
435.041	0.275	320019	TEST_ORIENT	n/a	n/a	4	2	FAN	PASS	SKY	FAN	3	[0, 0, 0]	-999	PAL1	1	R1003P
436.041	4.0	320519	TEST_PROBE	n/a	wordpools/wordpool_EN.txt	4	2	FAN	PASS	SKY	FAN	3	[0, 0, 0]	-999	PAL1	1	R1003P
436.042	1.886	320519	REC_START	n/a	n/a	4	-999	n/a	PASS	n/a	n/a	3	[0, 0, 0]	-999	PAL1	1	R1003P
437.928	3.122	321462	REC_EVENT	1886.0	n/a	4	2	FAN	PASS	SKY	FAN	3	[0, 0, 0]	-999	PAL1	1	R1003P
441.05	0.009	323023	REC_END	n/a	n/a	4	-999	n/a	n/a	n/a	n/a	3	[0, 0, 0]	-999	PAL1	1	R1003P
441.059	0.275	323027	TEST_ORIENT	n/a	n/a	1	3	STRAW	PASS	LEG	STRAW	3	[0, 0, 0]	-999	PAL1	1	R1003P
442.042	4.0	323519	TEST_PROBE	n/a	wordpools/wordpool_EN.txt	1	3	STRAW	PASS	LEG	STRAW	3	[0, 0, 0]	-999	PAL1	1	R1003P
442.043	3.115	323519	REC_START	n/a	n/a	1	-999	n/a	PASS	n/a	n/a	3	[0, 0, 0]	-999	PAL1	1	R1003P
445.158	1.893	325077	REC_EVENT	3115.0	n/a	1	3	STRAW	PASS	LEG	STRAW	3	[0, 0, 0]	-999	PAL1	1	R1003P
447.051	0.009	326023	REC_END	n/a	n/a	1	-999	n/a	n/a	n/a	n/a	3	[0, 0, 0]	-999	PAL1	1	R1003P
447.06	0.275	326028	TEST_ORIENT	n/a	n/a	6	4	SHELL	PASS	SHELL	ARM	3	[0, 0, 0]	-999	PAL1	1	R1003P
447.877	4.0	326436	TEST_PROBE	n/a	wordpools/wordpool_EN.txt	6	4	SHELL	PASS	SHELL	ARM	3	[0, 0, 0]	-999	PAL1	1	R1003P
447.878	1.75	326437	REC_START	n/a	n/a	6	-999	n/a	PASS	n/a	n/a	3	[0, 0, 0]	-999	PAL1	1	R1003P
449.628	3.274	327312	REC_EVENT	1750.0	n/a	6	4	SHELL	PASS	SHELL	ARM	3	[0, 0, 0]	-999	PAL1	1	R1003P
452.902	0.009	328949	REC_END	n/a	n/a	6	-999	n/a	n/a	n/a	n/a	3	[0, 0, 0]	-999	PAL1	1	R1003P
452.911	0.275	328953	TEST_ORIENT	n/a	n/a	5	5	WAND	STRAW	WAND	BLOOM	3	[0, 0, 0]	-999	PAL1	1	R1003P
453.911	4.0	329453	TEST_PROBE	n/a	wordpools/wordpool_EN.txt	5	5	WAND	STRAW	WAND	BLOOM	3	[0, 0, 0]	-999	PAL1	1	R1003P
453.912	1.497	329454	REC_START	n/a	n/a	5	-999	n/a	STRAW	n/a	n/a	3	[0, 0, 0]	-999	PAL1	1	R1003P
455.409	3.511	330202	REC_EVENT	1497.0	n/a	5	5	WAND	STRAW	WAND	BLOOM	3	[0, 0, 0]	-999	PAL1	1	R1003P
458.92	0.009	331957	REC_END	n/a	n/a	5	-999	n/a	n/a	n/a	n/a	3	[0, 0, 0]	-999	PAL1	1	R1003P
458.929	0.275	331962	TEST_ORIENT	n/a	n/a	2	6	BEE	ANT	BEE	ANT	3	[0, 0, 0]	-999	PAL1	1	R1003P
459.862	4.0	332428	TEST_PROBE	n/a	wordpools/wordpool_EN.txt	2	6	BEE	ANT	BEE	ANT	3	[0, 0, 0]	-999	PAL1	1	R1003P
459.863	1.041	332429	REC_START	n/a	n/a	2	-999	n/a	ANT	n/a	n/a	3	[0, 0, 0]	-999	PAL1	1	R1003P
460.904	3.967	332949	REC_EVENT	1041.0	n/a	2	6	BEE	ANT	BEE	ANT	3	[0, 0, 0]	-999	PAL1	1	R1003P
464.871	0.929	334933	REC_END	n/a	n/a	2	-999	n/a	n/a	n/a	n/a	3	[0, 0, 0]	-999	PAL1	1	R1003P
465.8	10.449	335397	ENCODING_START	n/a	n/a	0	-999	n/a	n/a	n/a	n/a	4	[0, 0, 0]	-999	PAL1	1	R1003P
476.249	0.275	340622	STUDY_ORIENT	n/a	n/a	1	5	BED	ROCK	BED	ROCK	4	[0, 0, 0]	-999	PAL1	1	R1003P
477.149	4.0	341072	STUDY_PAIR	n/a	wordpools/wordpool_EN.txt	1	5	BED	ROCK	BED	ROCK	4	[0, 0, 0]	-999	PAL1	1	R1003P
482.167	0.275	343580	STUDY_ORIENT	n/a	n/a	2	6	GRASS	NEST	BRUSH	GRASS	4	[0, 0, 0]	-999	PAL1	1	R1003P
483.1	4.0	344047	STUDY_PAIR	n/a	wordpools/wordpool_EN.txt	2	6	GRASS	NEST	BRUSH	GRASS	4	[0, 0, 0]	-999	PAL1	1	R1003P
488.118	0.275	346556	STUDY_ORIENT	n/a	n/a	3	1	JAIL	ROCK	JAIL	BARN	4	[0, 0, 0]	-999	PAL1	1	R1003P
488.918	4.0	346956	STUDY_PAIR	n/a	wordpools/wordpool_EN.txt	3	1	JAIL	ROCK	JAIL	BARN	4	[0, 0, 0]	-999	PAL1	1	R1003P
493.952	0.275	349473	STUDY_ORIENT	n/a	n/a	4	4	MUG	n/a	WOLF	MUG	4	[0, 0, 0]	-999	PAL1	1	R1003P
494.786	4.0	349890	STUDY_PAIR	n/a	wordpools/wordpool_EN.txt	4	4	MUG	n/a	WOLF	MUG	4	[0, 0, 0]	-999	PAL1	1	R1003P
499.82	0.275	352406	STUDY_ORIENT	n/a	n/a	5	3	NEST	PEAR	PEAR	NEST	4	[0, 0, 0]	-999	PAL1	1	R1003P
500.737	4.0	352865	STUDY_PAIR	n/a	wordpools/wordpool_EN.txt	5	3	NEST	PEAR	PEAR	NEST	4	[0, 0, 0]	-999	PAL1	1	R1003P
505.771	0.275	355382	STUDY_ORIENT	n/a	n/a	6	2	SHIP	n/a	SHIP	TOOL	4	[0, 0, 0]	-999	PAL1	1	R1003P
506.688	4.0	355840	STUDY_PAIR	n/a	wordpools/wordpool_EN.txt	6	2	SHIP	n/a	SHIP	TOOL	4	[0, 0, 0]	-999	PAL1	1	R1003P
510.689	1.0	357841	START	n/a	n/a	-999	-999	n/a	n/a	n/a	n/a	4	[-999, -999, -999]	-999	PAL1	1	R1003P
511.689	0.017	358341	MATH_START	n/a	n/a	-999	-999	n/a	n/a	n/a	n/a	4	[0, 0, 0]	-999	PAL1	1	R1003P
511.706	7.585	358349	PROB	7558.0	n/a	-999	-999	n/a	n/a	n/a	n/a	4	[4, 8, 5]	17	PAL1	1	R1003P
519.291	7.051	362141	PROB	7029.0	n/a	-999	-999	n/a	n/a	n/a	n/a	4	[8, 5, 6]	20	PAL1	1	R1003P
526.342	2.717	365667	PROB	2682.0	n/a	-999	-999	n/a	n/a	n/a	n/a	4	[6, 3, 5]	14	PAL1	1	R1003P
529.059	2.293	367025	PROB	2293.0	n/a	-999	-999	n/a	n/a	n/a	n/a	4	[4, 6, 7]	17	PAL1	1	R1003P
531.352	0.008	368172	STOP	n/a	n/a	-999	-999	n/a	n/a	n/a	n/a	4	[-999, -999, -999]	-999	PAL1	1	R1003P
531.36	0.0	368176	MATH_END	n/a	n/a	-999	-999	n/a	n/a	n/a	n/a	4	[0, 0, 0]	-999	PAL1	1	R1003P
531.36	0.016	368176	TEST_START	n/a	n/a	-999	-999	n/a	n/a	n/a	n/a	4	[0, 0, 0]	-999	PAL1	1	R1003P
531.376	0.275	368184	TEST_ORIENT	n/a	n/a	3	1	JAIL	ROCK	JAIL	BARN	4	[0, 0, 0]	-999	PAL1	1	R1003P
532.21	4.0	368601	TEST_PROBE	n/a	wordpools/wordpool_EN.txt	3	1	JAIL	ROCK	JAIL	BARN	4	[0, 0, 0]	-999	PAL1	1	R1003P
532.21	1.587	368601	REC_START	n/a	n/a	3	-999	n/a	ROCK	n/a	n/a	4	[0, 0, 0]	-999	PAL1	1	R1003P
533.797	3.43	369394	REC_EVENT	1587.0	n/a	3	1	JAIL	ROCK	JAIL	BARN	4	[0, 0, 0]	-999	PAL1	1	R1003P
537.227	0.017	371109	REC_END	n/a	n/a	3	-999	n/a	n/a	n/a	n/a	4	[0, 0, 0]	-999	PAL1	1	R1003P
537.244	0.275	371117	TEST_ORIENT	n/a	n/a	6	2	SHIP	n/a	SHIP	TOOL	4	[0, 0, 0]	-999	PAL1	1	R1003P
538.178	0.0	371584	REC_START	n/a	n/a	6	-999	n/a	n/a	n/a	n/a	4	[0, 0, 0]	-999	PAL1	1	R1003P
538.178	4.0	371584	TEST_PROBE	n/a	wordpools/wordpool_EN.txt	6	2	SHIP	n/a	SHIP	TOOL	4	[0, 0, 0]	-999	PAL1	1	R1003P
540.258	2.937	372624	REC_EVENT	2080.0	n/a	6	2	SHIP	<>	SHIP	TOOL	4	[0, 0, 0]	-999	PAL1	1	R1003P
543.195	0.017	374093	REC_END	n/a	n/a	6	-999	n/a	n/a	n/a	n/a	4	[0, 0, 0]	-999	PAL1	1	R1003P
543.212	0.275	374101	TEST_ORIENT	n/a	n/a	5	3	NEST	PEAR	PEAR	NEST	4	[0, 0, 0]	-999	PAL1	1	R1003P
544.212	4.0	374601	TEST_PROBE	n/a	wordpools/wordpool_EN.txt	5	3	NEST	PEAR	PEAR	NEST	4	[0, 0, 0]	-999	PAL1	1	R1003P
544.213	1.187	374602	REC_START	n/a	n/a	5	-999	n/a	PEAR	n/a	n/a	4	[0, 0, 0]	-999	PAL1	1	R1003P
545.4	3.838	375195	REC_EVENT	1187.0	n/a	5	3	NEST	PEAR	PEAR	NEST	4	[0, 0, 0]	-999	PAL1	1	R1003P
549.238	0.008	377114	REC_END	n/a	n/a	5	-999	n/a	n/a	n/a	n/a	4	[0, 0, 0]	-999	PAL1	1	R1003P
549.246	0.275	377118	TEST_ORIENT	n/a	n/a	4	4	MUG	n/a	WOLF	MUG	4	[0, 0, 0]	-999	PAL1	1	R1003P
550.046	4.0	377518	TEST_PROBE	n/a	wordpools/wordpool_EN.txt	4	4	MUG	n/a	WOLF	MUG	4	[0, 0, 0]	-999	PAL1	1	R1003P
550.047	3.449	377519	REC_START	n/a	n/a	4	-999	n/a	n/a	n/a	n/a	4	[0, 0, 0]	-999	PAL1	1	R1003P
553.496	1.56	379243	REC_EVENT	3449.0	n/a	4	4	MUG	<>	WOLF	MUG	4	[0, 0, 0]	-999	PAL1	1	R1003P
555.056	0.008	380023	REC_END	n/a	n/a	4	-999	n/a	n/a	n/a	n/a	4	[0, 0, 0]	-999	PAL1	1	R1003P
555.064	0.275	380027	TEST_ORIENT	n/a	n/a	1	5	BED	ROCK	BED	ROCK	4	[0, 0, 0]	-999	PAL1	1	R1003P
555.931	4.0	380461	TEST_PROBE	n/a	wordpools/wordpool_EN.txt	1	5	BED	ROCK	BED	ROCK	4	[0, 0, 0]	-999	PAL1	1	R1003P
555.932	1.229	380461	REC_START	n/a	n/a	1	-999	n/a	ROCK	n/a	n/a	4	[0, 0, 0]	-999	PAL1	1	R1003P
557.161	3.787	381075	REC_EVENT	1229.0	n/a	1	5	BED	ROCK	BED	ROCK	4	[0, 0, 0]	-999	PAL1	1	R1003P
560.948	0.017	382969	REC_END	n/a	n/a	1	-999	n/a	n/a	n/a	n/a	4	[0, 0, 0]	-999	PAL1	1	R1003P
560.965	0.275	382977	TEST_ORIENT	n/a	n/a	2	6	GRASS	NEST	BRUSH	GRASS	4	[0, 0, 0]	-999	PAL1	1	R1003P
561.849	4.0	383419	TEST_PROBE	n/a	wordpools/wordpool_EN.txt	2	6	GRASS	NEST	BRUSH	GRASS	4	[0, 0, 0]	-999	PAL1	1	R1003P
561.849	2.045	383419	REC_START	n/a	n/a	2	-999	n/a	NEST	n/a	n/a	4	[0, 0, 0]	-999	PAL1	1	R1003P
563.894	2.972	384442	REC_EVENT	2045.0	n/a	2	6	GRASS	NEST	BRUSH	GRASS	4	[0, 0, 0]	-999	PAL1	1	R1003P
566.866	0.91	385928	REC_END	n/a	n/a	2	-999	n/a	n/a	n/a	n/a	4	[0, 0, 0]	-999	PAL1	1	R1003P
567.776	10.443	386383	ENCODING_START	n/a	n/a	0	-999	n/a	n/a	n/a	n/a	5	[0, 0, 0]	-999	PAL1	1	R1003P
578.219	0.275	391604	STUDY_ORIENT	n/a	n/a	1	1	CHEEK	JET	CHEEK	JET	5	[0, 0, 0]	-999	PAL1	1	R1003P
579.069	4.0	392029	STUDY_PAIR	n/a	wordpools/wordpool_EN.txt	1	1	CHEEK	JET	CHEEK	JET	5	[0, 0, 0]	-999	PAL1	1	R1003P
584.103	0.275	394546	STUDY_ORIENT	n/a	n/a	2	4	WEED	n/a	WEED	MAP	5	[0, 0, 0]	-999	PAL1	1	R1003P
584.987	4.0	394988	STUDY_PAIR	n/a	wordpools/wordpool_EN.txt	2	4	WEED	n/a	WEED	MAP	5	[0, 0, 0]	-999	PAL1	1	R1003P
590.021	0.275	397505	STUDY_ORIENT	n/a	n/a	3	5	HOSE	PASS	HOSE	WALL	5	[0, 0, 0]	-999	PAL1	1	R1003P
590.804	4.0	397896	STUDY_PAIR	n/a	wordpools/wordpool_EN.txt	3	5	HOSE	PASS	HOSE	WALL	5	[0, 0, 0]	-999	PAL1	1	R1003P
595.822	0.275	400405	STUDY_ORIENT	n/a	n/a	4	6	TRUCK	JET	SNOW	TRUCK	5	[0, 0, 0]	-999	PAL1	1	R1003P
596.789	4.0	400888	STUDY_PAIR	n/a	wordpools/wordpool_EN.txt	4	6	TRUCK	JET	SNOW	TRUCK	5	[0, 0, 0]	-999	PAL1	1	R1003P
601.823	0.275	403405	STUDY_ORIENT	n/a	n/a	5	3	ELF	n/a	ELF	TEETH	5	[0, 0, 0]	-999	PAL1	1	R1003P
602.69	4.0	403839	STUDY_PAIR	n/a	wordpools/wordpool_EN.txt	5	3	ELF	n/a	ELF	TEETH	5	[0, 0, 0]	-999	PAL1	1	R1003P
607.724	0.275	406356	STUDY_ORIENT	n/a	n/a	6	2	SHIRT	PASS	SHIRT	LOCK	5	[0, 0, 0]	-999	PAL1	1	R1003P
608.657	4.0	406822	STUDY_PAIR	n/a	wordpools/wordpool_EN.txt	6	2	SHIRT	PASS	SHIRT	LOCK	5	[0, 0, 0]	-999	PAL1	1	R1003P
612.675	0.999	408831	START	n/a	n/a	-999	-999	n/a	n/a	n/a	n/a	5	[-999, -999, -999]	-999	PAL1	1	R1003P
613.674	0.018	409331	MATH_START	n/a	n/a	-999	-999	n/a	n/a	n/a	n/a	5	[0, 0, 0]	-999	PAL1	1	R1003P
613.692	3.034	409340	PROB	3012.0	n/a	-999	-999	n/a	n/a	n/a	n/a	5	[5, 5, 8]	18	PAL1	1	R1003P
616.726	3.401	410856	PROB	3378.0	n/a	-999	-999	n/a	n/a	n/a	n/a	5	[9, 7, 3]	19	PAL1	1	R1003P
620.127	2.383	412557	PROB	2360.0	n/a	-999	-999	n/a	n/a	n/a	n/a	5	[5, 8, 5]	18	PAL1	1	R1003P
622.51	6.034	413748	PROB	6001.0	n/a	-999	-999	n/a	n/a	n/a	n/a	5	[4, 8, 7]	19	PAL1	1	R1003P
628.544	5.368	416765	PROB	5368.0	n/a	-999	-999	n/a	n/a	n/a	n/a	5	[8, 9, 7]	24	PAL1	1	R1003P
633.912	0.017	419449	STOP	n/a	n/a	-999	-999	n/a	n/a	n/a	n/a	5	[-999, -999, -999]	-999	PAL1	1	R1003P
633.929	0.0	419458	MATH_END	n/a	n/a	-999	-999	n/a	n/a	n/a	n/a	5	[0, 0, 0]	-999	PAL1	1	R1003P
633.929	0.017	419458	TEST_START	n/a	n/a	-999	-999	n/a	n/a	n/a	n/a	5	[0, 0, 0]	-999	PAL1	1	R1003P
633.946	0.275	419466	TEST_ORIENT	n/a	n/a	1	1	CHEEK	JET	CHEEK	JET	5	[0, 0, 0]	-999	PAL1	1	R1003P
634.913	4.0	419949	TEST_PROBE	n/a	wordpools/wordpool_EN.txt	1	1	CHEEK	JET	CHEEK	JET	5	[0, 0, 0]	-999	PAL1	1	R1003P
634.916	1.581	419951	REC_START	n/a	n/a	1	-999	n/a	JET	n/a	n/a	5	[0, 0, 0]	-999	PAL1	1	R1003P
636.497	3.443	420741	REC_EVENT	1581.0	n/a	1	1	CHEEK	JET	CHEEK	JET	5	[0, 0, 0]	-999	PAL1	1	R1003P
639.94	0.007	422463	REC_END	n/a	n/a	1	-999	n/a	n/a	n/a	n/a	5	[0, 0, 0]	-999	PAL1	1	R1003P
639.947	0.275	422466	TEST_ORIENT	n/a	n/a	6	2	SHIRT	PASS	SHIRT	LOCK	5	[0, 0, 0]	-999	PAL1	1	R1003P
640.814	4.0	422900	TEST_PROBE	n/a	wordpools/wordpool_EN.txt	6	2	SHIRT	PASS	SHIRT	LOCK	5	[0, 0, 0]	-999	PAL1	1	R1003P
640.814	2.216	422900	REC_START	n/a	n/a	6	-999	n/a	PASS	n/a	n/a	5	[0, 0, 0]	-999	PAL1	1	R1003P
643.03	2.802	424008	REC_EVENT	2216.0	n/a	6	2	SHIRT	PASS	SHIRT	LOCK	5	[0, 0, 0]	-999	PAL1	1	R1003P
645.832	0.016	425409	REC_END	n/a	n/a	6	-999	n/a	n/a	n/a	n/a	5	[0, 0, 0]	-999	PAL1	1	R1003P
645.848	0.275	425417	TEST_ORIENT	n/a	n/a	5	3	ELF	n/a	ELF	TEETH	5	[0, 0, 0]	-999	PAL1	1	R1003P
646.799	4.0	425892	TEST_PROBE	n/a	wordpools/wordpool_EN.txt	5	3	ELF	n/a	ELF	TEETH	5	[0, 0, 0]	-999	PAL1	1	R1003P
646.799	3.937	425892	REC_START	n/a	n/a	5	-999	n/a	n/a	n/a	n/a	5	[0, 0, 0]	-999	PAL1	1	R1003P
650.736	1.08	427861	REC_EVENT	3937.0	n/a	5	3	ELF	<>	ELF	TEETH	5	[0, 0, 0]	-999	PAL1	1	R1003P
651.816	0.017	428401	REC_END	n/a	n/a	5	-999	n/a	n/a	n/a	n/a	5	[0, 0, 0]	-999	PAL1	1	R1003P
651.833	0.275	428409	TEST_ORIENT	n/a	n/a	2	4	WEED	n/a	WEED	MAP	5	[0, 0, 0]	-999	PAL1	1	R1003P
652.7	4.0	428843	TEST_PROBE	n/a	wordpools/wordpool_EN.txt	2	4	WEED	n/a	WEED	MAP	5	[0, 0, 0]	-999	PAL1	1	R1003P
652.7	3.231	428843	REC_START	n/a	n/a	2	-999	n/a	n/a	n/a	n/a	5	[0, 0, 0]	-999	PAL1	1	R1003P
655.931	1.786	430458	REC_EVENT	3231.0	n/a	2	4	WEED	<>	WEED	MAP	5	[0, 0, 0]	-999	PAL1	1	R1003P
657.717	0.017	431351	REC_END	n/a	n/a	2	-999	n/a	n/a	n/a	n/a	5	[0, 0, 0]	-999	PAL1	1	R1003P
657.734	0.275	431359	TEST_ORIENT	n/a	n/a	3	5	HOSE	PASS	HOSE	WALL	5	[0, 0, 0]	-999	PAL1	1	R1003P
658.768	4.0	431876	TEST_PROBE	n/a	wordpools/wordpool_EN.txt	3	5	HOSE	PASS	HOSE	WALL	5	[0, 0, 0]	-999	PAL1	1	R1003P
658.768	2.133	431876	REC_START	n/a	n/a	3	-999	n/a	PASS	n/a	n/a	5	[0, 0, 0]	-999	PAL1	1	R1003P
660.901	2.884	432943	REC_EVENT	2133.0	n/a	3	5	HOSE	PASS	HOSE	WALL	5	[0, 0, 0]	-999	PAL1	1	R1003P
663.785	0.017	434385	REC_END	n/a	n/a	3	-999	n/a	n/a	n/a	n/a	5	[0, 0, 0]	-999	PAL1	1	R1003P
663.802	0.275	434393	TEST_ORIENT	n/a	n/a	4	6	TRUCK	JET	SNOW	TRUCK	5	[0, 0, 0]	-999	PAL1	1	R1003P
664.719	4.0	434852	TEST_PROBE	n/a	wordpools/wordpool_EN.txt	4	6	TRUCK	JET	SNOW	TRUCK	5	[0, 0, 0]	-999	PAL1	1	R1003P
664.719	2.468	434852	REC_START	n/a	n/a	4	-999	n/a	JET	n/a	n/a	5	[0, 0, 0]	-999	PAL1	1	R1003P
667.187	2.549	436086	REC_EVENT	2468.0	n/a	4	6	TRUCK	JET	SNOW	TRUCK	5	[0, 0, 0]	-999	PAL1	1	R1003P
669.736	0.968	437360	REC_END	n/a	n/a	4	-999	n/a	n/a	n/a	n/a	5	[0, 0, 0]	-999	PAL1	1	R1003P
670.704	10.451	437844	ENCODING_START	n/a	n/a	0	-999	n/a	n/a	n/a	n/a	6	[0, 0, 0]	-999	PAL1	1	R1003P
681.155	0.275	443069	STUDY_ORIENT	n/a	n/a	1	1	HOUSE	SEAL	HOUSE	WHEEL	6	[0, 0, 0]	-999	PAL1	1	R1003P
681.972	4.0	443478	STUDY_PAIR	n/a	wordpools/wordpool_EN.txt	1	1	HOUSE	SEAL	HOUSE	WHEEL	6	[0, 0, 0]	-999	PAL1	1	R1003P
687.006	0.275	445995	STUDY_ORIENT	n/a	n/a	2	4	TAIL	PASS	TAIL	GRAPE	6	[0, 0, 0]	-999	PAL1	1	R1003P
687.823	4.0	446403	STUDY_PAIR	n/a	wordpools/wordpool_EN.txt	2	4	TAIL	PASS	TAIL	GRAPE	6	[0, 0, 0]	-999	PAL1	1	R1003P
692.841	0.275	448912	STUDY_ORIENT	n/a	n/a	3	5	STREET	PASS	FLAME	STREET	6	[0, 0, 0]	-999	PAL1	1	R1003P
693.708	4.0	449345	STUDY_PAIR	n/a	wordpools/wordpool_EN.txt	3	5	STREET	PASS	FLAME	STREET	6	[0, 0, 0]	-999	PAL1	1	R1003P
698.742	0.275	451862	STUDY_ORIENT	n/a	n/a	4	6	GOLD	PASS	GOLD	SOAP	6	[0, 0, 0]	-999	PAL1	1	R1003P
699.524	4.0	452253	STUDY_PAIR	n/a	wordpools/wordpool_EN.txt	4	6	GOLD	PASS	GOLD	SOAP	6	[0, 0, 0]	-999	PAL1	1	R1003P
704.542	0.275	454762	STUDY_ORIENT	n/a	n/a	5	3	BOWL	PASS	BOWL	TEA	6	[0, 0, 0]	-999	PAL1	1	R1003P
705.443	4.0	455213	STUDY_PAIR	n/a	wordpools/wordpool_EN.txt	5	3	BOWL	PASS	BOWL	TEA	6	[0, 0, 0]	-999	PAL1	1	R1003P
710.461	0.275	457722	STUDY_ORIENT	n/a	n/a	6	2	ROOM	TASTE	SEAL	ROOM	6	[0, 0, 0]	-999	PAL1	1	R1003P
711.461	4.0	458222	STUDY_PAIR	n/a	wordpools/wordpool_EN.txt	6	2	ROOM	TASTE	SEAL	ROOM	6	[0, 0, 0]	-999	PAL1	1	R1003P
715.479	0.999	460230	START	n/a	n/a	-999	-999	n/a	n/a	n/a	n/a	6	[-999, -999, -999]	-999	PAL1	1	R1003P
716.478	0.016	460730	MATH_START	n/a	n/a	-999	-999	n/a	n/a	n/a	n/a	6	[0, 0, 0]	-999	PAL1	1	R1003P
716.494	2.869	460738	PROB	2834.0	n/a	-999	-999	n/a	n/a	n/a	n/a	6	[4, 6, 8]	18	PAL1	1	R1003P
719.363	3.634	462172	PROB	3605.0	n/a	-999	-999	n/a	n/a	n/a	n/a	6	[7, 3, 8]	18	PAL1	1	R1003P
722.997	7.434	463989	PROB	7411.0	n/a	-999	-999	n/a	n/a	n/a	n/a	6	[7, 8, 5]	21	PAL1	1	R1003P
730.431	3.851	467706	PROB	3817.0	n/a	-999	-999	n/a	n/a	n/a	n/a	6	[3, 3, 4]	10	PAL1	1	R1003P
734.282	5.182	469631	PROB	5182.0	n/a	-999	-999	n/a	n/a	n/a	n/a	6	[9, 2, 7]	18	PAL1	1	R1003P
739.464	0.002	472222	STOP	n/a	n/a	-999	-999	n/a	n/a	n/a	n/a	6	[-999, -999, -999]	-999	PAL1	1	R1003P
739.466	0.0	472223	MATH_END	n/a	n/a	-999	-999	n/a	n/a	n/a	n/a	6	[0, 0, 0]	-999	PAL1	1	R1003P
739.466	0.016	472223	TEST_START	n/a	n/a	-999	-999	n/a	n/a	n/a	n/a	6	[0, 0, 0]	-999	PAL1	1	R1003P
739.482	0.275	472231	TEST_ORIENT	n/a	n/a	1	1	HOUSE	SEAL	HOUSE	WHEEL	6	[0, 0, 0]	-999	PAL1	1	R1003P
740.35	4.0	472665	TEST_PROBE	n/a	wordpools/wordpool_EN.txt	1	1	HOUSE	SEAL	HOUSE	WHEEL	6	[0, 0, 0]	-999	PAL1	1	R1003P
740.351	1.083	472666	REC_START	n/a	n/a	1	-999	n/a	SEAL	n/a	n/a	6	[0, 0, 0]	-999	PAL1	1	R1003P
741.434	3.933	473207	REC_EVENT	1083.0	n/a	1	1	HOUSE	SEAL	HOUSE	WHEEL	6	[0, 0, 0]	-999	PAL1	1	R1003P
745.367	0.017	475174	REC_END	n/a	n/a	1	-999	n/a	n/a	n/a	n/a	6	[0, 0, 0]	-999	PAL1	1	R1003P
745.384	0.275	475182	TEST_ORIENT	n/a	n/a	6	2	ROOM	TASTE	SEAL	ROOM	6	[0, 0, 0]	-999	PAL1	1	R1003P
746.368	4.0	475674	TEST_PROBE	n/a	wordpools/wordpool_EN.txt	6	2	ROOM	TASTE	SEAL	ROOM	6	[0, 0, 0]	-999	PAL1	1	R1003P
746.369	3.138	475675	REC_START	n/a	n/a	6	-999	n/a	TASTE	n/a	n/a	6	[0, 0, 0]	-999	PAL1	1	R1003P
749.507	1.887	477244	REC_EVENT	3138.0	n/a	6	2	ROOM	TASTE	SEAL	ROOM	6	[0, 0, 0]	-999	PAL1	1	R1003P
751.394	0.008	478187	REC_END	n/a	n/a	6	-999	n/a	n/a	n/a	n/a	6	[0, 0, 0]	-999	PAL1	1	R1003P
751.402	0.275	478191	TEST_ORIENT	n/a	n/a	5	3	BOWL	PASS	BOWL	TEA	6	[0, 0, 0]	-999	PAL1	1	R1003P
752.236	4.0	478608	TEST_PROBE	n/a	wordpools/wordpool_EN.txt	5	3	BOWL	PASS	BOWL	TEA	6	[0, 0, 0]	-999	PAL1	1	R1003P
752.236	1.423	478608	REC_START	n/a	n/a	5	-999	n/a	PASS	n/a	n/a	6	[0, 0, 0]	-999	PAL1	1	R1003P
753.659	3.594	479319	REC_EVENT	1423.0	n/a	5	3	BOWL	PASS	BOWL	TEA	6	[0, 0, 0]	-999	PAL1	1	R1003P
757.253	0.017	481116	REC_END	n/a	n/a	5	-999	n/a	n/a	n/a	n/a	6	[0, 0, 0]	-999	PAL1	1	R1003P
757.27	0.275	481125	TEST_ORIENT	n/a	n/a	2	4	TAIL	PASS	TAIL	GRAPE	6	[0, 0, 0]	-999	PAL1	1	R1003P
758.22	4.0	481600	TEST_PROBE	n/a	wordpools/wordpool_EN.txt	2	4	TAIL	PASS	TAIL	GRAPE	6	[0, 0, 0]	-999	PAL1	1	R1003P
758.221	1.498	481600	REC_START	n/a	n/a	2	-999	n/a	PASS	n/a	n/a	6	[0, 0, 0]	-999	PAL1	1	R1003P
759.719	3.528	482349	REC_EVENT	1498.0	n/a	2	4	TAIL	PASS	TAIL	GRAPE	6	[0, 0, 0]	-999	PAL1	1	R1003P
763.247	0.007	484113	REC_END	n/a	n/a	2	-999	n/a	n/a	n/a	n/a	6	[0, 0, 0]	-999	PAL1	1	R1003P
763.254	0.275	484117	TEST_ORIENT	n/a	n/a	3	5	STREET	PASS	FLAME	STREET	6	[0, 0, 0]	-999	PAL1	1	R1003P
764.271	4.0	484625	TEST_PROBE	n/a	wordpools/wordpool_EN.txt	3	5	STREET	PASS	FLAME	STREET	6	[0, 0, 0]	-999	PAL1	1	R1003P
764.272	2.009	484626	REC_START	n/a	n/a	3	-999	n/a	PASS	n/a	n/a	6	[0, 0, 0]	-999	PAL1	1	R1003P
766.281	3.0	485630	REC_EVENT	2009.0	n/a	3	5	STREET	PASS	FLAME	STREET	6	[0, 0, 0]	-999	PAL1	1	R1003P
769.281	0.008	487130	REC_END	n/a	n/a	3	-999	n/a	n/a	n/a	n/a	6	[0, 0, 0]	-999	PAL1	1	R1003P
769.289	0.275	487134	TEST_ORIENT	n/a	n/a	4	6	GOLD	PASS	GOLD	SOAP	6	[0, 0, 0]	-999	PAL1	1	R1003P
770.322	4.0	487651	TEST_PROBE	n/a	wordpools/wordpool_EN.txt	4	6	GOLD	PASS	GOLD	SOAP	6	[0, 0, 0]	-999	PAL1	1	R1003P
770.323	2.816	487651	REC_START	n/a	n/a	4	-999	n/a	PASS	n/a	n/a	6	[0, 0, 0]	-999	PAL1	1	R1003P
773.139	2.184	489059	REC_EVENT	2816.0	n/a	4	6	GOLD	PASS	GOLD	SOAP	6	[0, 0, 0]	-999	PAL1	1	R1003P
775.323	1.037	490151	REC_END	n/a	n/a	4	-999	n/a	n/a	n/a	n/a	6	[0, 0, 0]	-999	PAL1	1	R1003P
776.36	10.449	490669	ENCODING_START	n/a	n/a	0	-999	n/a	n/a	n/a	n/a	7	[0, 0, 0]	-999	PAL1	1	R1003P
786.809	0.275	495894	STUDY_ORIENT	n/a	n/a	1	5	POLE	PASS	ROSE	POLE	7	[0, 0, 0]	-999	PAL1	1	R1003P
787.776	4.0	496377	STUDY_PAIR	n/a	wordpools/wordpool_EN.txt	1	5	POLE	PASS	ROSE	POLE	7	[0, 0, 0]	-999	PAL1	1	R1003P
792.81	0.275	498894	STUDY_ORIENT	n/a	n/a	2	4	FROG	NAIL	COIN	FROG	7	[0, 0, 0]	-999	PAL1	1	R1003P
793.643	4.0	499310	STUDY_PAIR	n/a	wordpools/wordpool_EN.txt	2	4	FROG	NAIL	COIN	FROG	7	[0, 0, 0]	-999	PAL1	1	R1003P
798.677	0.275	501827	STUDY_ORIENT	n/a	n/a	3	1	TOOTH	STEW	STEM	TOOTH	7	[0, 0, 0]	-999	PAL1	1	R1003P
799.56	4.0	502269	STUDY_PAIR	n/a	wordpools/wordpool_EN.txt	3	1	TOOTH	STEW	STEM	TOOTH	7	[0, 0, 0]	-999	PAL1	1	R1003P
804.578	0.275	504778	STUDY_ORIENT	n/a	n/a	4	2	SAIL	PASS	TREE	SAIL	7	[0, 0, 0]	-999	PAL1	1	R1003P
805.462	4.0	505220	STUDY_PAIR	n/a	wordpools/wordpool_EN.txt	4	2	SAIL	PASS	TREE	SAIL	7	[0, 0, 0]	-999	PAL1	1	R1003P
810.479	0.275	507728	STUDY_ORIENT	n/a	n/a	5	3	TRASH	PASS	BATH	TRASH	7	[0, 0, 0]	-999	PAL1	1	R1003P
811.464	4.0	508220	STUDY_PAIR	n/a	wordpools/wordpool_EN.txt	5	3	TRASH	PASS	BATH	TRASH	7	[0, 0, 0]	-999	PAL1	1	R1003P
816.497	0.275	510737	STUDY_ORIENT	n/a	n/a	6	6	PURSE	PASS	SPOON	PURSE	7	[0, 0, 0]	-999	PAL1	1	R1003P
817.315	4.0	511146	STUDY_PAIR	n/a	wordpools/wordpool_EN.txt	6	6	PURSE	PASS	SPOON	PURSE	7	[0, 0, 0]	-999	PAL1	1	R1003P
821.333	0.999	513155	START	n/a	n/a	-999	-999	n/a	n/a	n/a	n/a	7	[-999, -999, -999]	-999	PAL1	1	R1003P
822.332	0.017	513654	MATH_START	n/a	n/a	-999	-999	n/a	n/a	n/a	n/a	7	[0, 0, 0]	-999	PAL1	1	R1003P
822.349	5.968	513663	PROB	5939.0	n/a	-999	-999	n/a	n/a	n/a	n/a	7	[8, 9, 9]	26	PAL1	1	R1003P
828.317	2.384	516647	PROB	2362.0	n/a	-999	-999	n/a	n/a	n/a	n/a	7	[6, 4, 1]	11	PAL1	1	R1003P
830.701	4.367	517838	PROB	4347.0	n/a	-999	-999	n/a	n/a	n/a	n/a	7	[2, 8, 5]	15	PAL1	1	R1003P
835.068	5.835	520022	PROB	5812.0	n/a	-999	-999	n/a	n/a	n/a	n/a	7	[3, 9, 4]	17	PAL1	1	R1003P
840.903	3.465	522939	PROB	3465.0	n/a	-999	-999	n/a	n/a	n/a	n/a	7	[5, 8, 2]	15	PAL1	1	R1003P
844.368	0.002	524672	STOP	n/a	n/a	-999	-999	n/a	n/a	n/a	n/a	7	[-999, -999, -999]	-999	PAL1	1	R1003P
844.37	0.0	524673	MATH_END	n/a	n/a	-999	-999	n/a	n/a	n/a	n/a	7	[0, 0, 0]	-999	PAL1	1	R1003P
844.37	0.017	524673	TEST_START	n/a	n/a	-999	-999	n/a	n/a	n/a	n/a	7	[0, 0, 0]	-999	PAL1	1	R1003P
844.387	0.275	524681	TEST_ORIENT	n/a	n/a	3	1	TOOTH	STEW	STEM	TOOTH	7	[0, 0, 0]	-999	PAL1	1	R1003P
845.404	4.0	525190	TEST_PROBE	n/a	wordpools/wordpool_EN.txt	3	1	TOOTH	STEW	STEM	TOOTH	7	[0, 0, 0]	-999	PAL1	1	R1003P
845.407	2.024	525191	REC_START	n/a	n/a	3	-999	n/a	STEW	n/a	n/a	7	[0, 0, 0]	-999	PAL1	1	R1003P
847.431	2.999	526203	REC_EVENT	2024.0	n/a	3	1	TOOTH	STEW	STEM	TOOTH	7	[0, 0, 0]	-999	PAL1	1	R1003P
850.43	0.008	527702	REC_END	n/a	n/a	3	-999	n/a	n/a	n/a	n/a	7	[0, 0, 0]	-999	PAL1	1	R1003P
850.438	0.275	527706	TEST_ORIENT	n/a	n/a	4	2	SAIL	PASS	TREE	SAIL	7	[0, 0, 0]	-999	PAL1	1	R1003P
851.355	4.0	528165	TEST_PROBE	n/a	wordpools/wordpool_EN.txt	4	2	SAIL	PASS	TREE	SAIL	7	[0, 0, 0]	-999	PAL1	1	R1003P
851.355	2.398	528165	REC_START	n/a	n/a	4	-999	n/a	PASS	n/a	n/a	7	[0, 0, 0]	-999	PAL1	1	R1003P
853.753	2.619	529364	REC_EVENT	2398.0	n/a	4	2	SAIL	PASS	TREE	SAIL	7	[0, 0, 0]	-999	PAL1	1	R1003P
856.372	0.017	530673	REC_END	n/a	n/a	4	-999	n/a	n/a	n/a	n/a	7	[0, 0, 0]	-999	PAL1	1	R1003P
856.389	0.275	530682	TEST_ORIENT	n/a	n/a	5	3	TRASH	PASS	BATH	TRASH	7	[0, 0, 0]	-999	PAL1	1	R1003P
857.422	4.0	531198	TEST_PROBE	n/a	wordpools/wordpool_EN.txt	5	3	TRASH	PASS	BATH	TRASH	7	[0, 0, 0]	-999	PAL1	1	R1003P
857.423	1.936	531199	REC_START	n/a	n/a	5	-999	n/a	PASS	n/a	n/a	7	[0, 0, 0]	-999	PAL1	1	R1003P
859.359	3.073	532167	REC_EVENT	1936.0	n/a	5	3	TRASH	PASS	BATH	TRASH	7	[0, 0, 0]	-999	PAL1	1	R1003P
862.432	0.008	533703	REC_END	n/a	n/a	5	-999	n/a	n/a	n/a	n/a	7	[0, 0, 0]	-999	PAL1	1	R1003P
862.44	0.275	533707	TEST_ORIENT	n/a	n/a	2	4	FROG	NAIL	COIN	FROG	7	[0, 0, 0]	-999	PAL1	1	R1003P
863.374	4.0	534174	TEST_PROBE	n/a	wordpools/wordpool_EN.txt	2	4	FROG	NAIL	COIN	FROG	7	[0, 0, 0]	-999	PAL1	1	R1003P
863.374	1.607	534174	REC_START	n/a	n/a	2	-999	n/a	NAIL	n/a	n/a	7	[0, 0, 0]	-999	PAL1	1	R1003P
864.981	3.416	534978	REC_EVENT	1607.0	n/a	2	4	FROG	NAIL	COIN	FROG	7	[0, 0, 0]	-999	PAL1	1	R1003P
868.397	0.011	536686	REC_END	n/a	n/a	2	-999	n/a	n/a	n/a	n/a	7	[0, 0, 0]	-999	PAL1	1	R1003P
868.408	0.275	536691	TEST_ORIENT	n/a	n/a	1	5	POLE	PASS	ROSE	POLE	7	[0, 0, 0]	-999	PAL1	1	R1003P
869.325	0.0	537149	REC_START	n/a	n/a	1	-999	n/a	PASS	n/a	n/a	7	[0, 0, 0]	-999	PAL1	1	R1003P
869.325	4.0	537149	TEST_PROBE	n/a	wordpools/wordpool_EN.txt	1	5	POLE	PASS	ROSE	POLE	7	[0, 0, 0]	-999	PAL1	1	R1003P
871.867	2.475	538420	REC_EVENT	2542.0	n/a	1	5	POLE	PASS	ROSE	POLE	7	[0, 0, 0]	-999	PAL1	1	R1003P
874.342	0.017	539658	REC_END	n/a	n/a	1	-999	n/a	n/a	n/a	n/a	7	[0, 0, 0]	-999	PAL1	1	R1003P
874.359	0.275	539666	TEST_ORIENT	n/a	n/a	6	6	PURSE	PASS	SPOON	PURSE	7	[0, 0, 0]	-999	PAL1	1	R1003P
875.293	4.0	540133	TEST_PROBE	n/a	wordpools/wordpool_EN.txt	6	6	PURSE	PASS	SPOON	PURSE	7	[0, 0, 0]	-999	PAL1	1	R1003P
875.293	1.83	540133	REC_START	n/a	n/a	6	-999	n/a	PASS	n/a	n/a	7	[0, 0, 0]	-999	PAL1	1	R1003P
877.123	3.187	541048	REC_EVENT	1830.0	n/a	6	6	PURSE	PASS	SPOON	PURSE	7	[0, 0, 0]	-999	PAL1	1	R1003P
880.31	0.994	542642	REC_END	n/a	n/a	6	-999	n/a	n/a	n/a	n/a	7	[0, 0, 0]	-999	PAL1	1	R1003P
881.304	10.442	543139	ENCODING_START	n/a	n/a	0	-999	n/a	n/a	n/a	n/a	8	[0, 0, 0]	-999	PAL1	1	R1003P
891.746	0.275	548359	STUDY_ORIENT	n/a	n/a	1	3	PHONE	PASS	ROPE	PHONE	8	[0, 0, 0]	-999	PAL1	1	R1003P
892.763	4.0	548868	STUDY_PAIR	n/a	wordpools/wordpool_EN.txt	1	3	PHONE	PASS	ROPE	PHONE	8	[0, 0, 0]	-999	PAL1	1	R1003P
897.797	0.275	551385	STUDY_ORIENT	n/a	n/a	2	4	PALM	TREE	PALM	FILM	8	[0, 0, 0]	-999	PAL1	1	R1003P
898.63	4.0	551801	STUDY_PAIR	n/a	wordpools/wordpool_EN.txt	2	4	PALM	TREE	PALM	FILM	8	[0, 0, 0]	-999	PAL1	1	R1003P
903.664	0.275	554318	STUDY_ORIENT	n/a	n/a	3	5	POOL	BOOT	BOOT	POOL	8	[0, 0, 0]	-999	PAL1	1	R1003P
904.597	4.0	554785	STUDY_PAIR	n/a	wordpools/wordpool_EN.txt	3	5	POOL	BOOT	BOOT	POOL	8	[0, 0, 0]	-999	PAL1	1	R1003P
909.615	0.275	557293	STUDY_ORIENT	n/a	n/a	4	2	LEAF	PASS	LEAF	SHEEP	8	[0, 0, 0]	-999	PAL1	1	R1003P
910.416	4.0	557694	STUDY_PAIR	n/a	wordpools/wordpool_EN.txt	4	2	LEAF	PASS	LEAF	SHEEP	8	[0, 0, 0]	-999	PAL1	1	R1003P
915.45	0.275	560211	STUDY_ORIENT	n/a	n/a	5	1	FISH	STOOL	FISH	ZOO	8	[0, 0, 0]	-999	PAL1	1	R1003P
916.401	4.0	560686	STUDY_PAIR	n/a	wordpools/wordpool_EN.txt	5	1	FISH	STOOL	FISH	ZOO	8	[0, 0, 0]	-999	PAL1	1	R1003P
921.435	0.275	563203	STUDY_ORIENT	n/a	n/a	6	6	STORM	WIND	STORM	BANK	8	[0, 0, 0]	-999	PAL1	1	R1003P
922.419	4.0	563695	STUDY_PAIR	n/a	wordpools/wordpool_EN.txt	6	6	STORM	WIND	STORM	BANK	8	[0, 0, 0]	-999	PAL1	1	R1003P
926.436	1.0	565704	START	n/a	n/a	-999	-999	n/a	n/a	n/a	n/a	8	[-999, -999, -999]	-999	PAL1	1	R1003P
927.436	0.017	566203	MATH_START	n/a	n/a	-999	-999	n/a	n/a	n/a	n/a	8	[0, 0, 0]	-999	PAL1	1	R1003P
927.453	3.434	566212	PROB	3403.0	n/a	-999	-999	n/a	n/a	n/a	n/a	8	[4, 7, 6]	17	PAL1	1	R1003P
930.887	4.084	567929	PROB	4065.0	n/a	-999	-999	n/a	n/a	n/a	n/a	8	[5, 3, 2]	10	PAL1	1	R1003P
934.971	6.134	569971	PROB	6109.0	n/a	-999	-999	n/a	n/a	n/a	n/a	8	[9, 2, 7]	18	PAL1	1	R1003P
941.105	6.887	573038	PROB	6887.0	n/a	-999	-999	n/a	n/a	n/a	n/a	8	[8, 7, 5]	20	PAL1	1	R1003P
947.992	0.015	576481	STOP	n/a	n/a	-999	-999	n/a	n/a	n/a	n/a	8	[-999, -999, -999]	-999	PAL1	1	R1003P
948.007	0.0	576488	MATH_END	n/a	n/a	-999	-999	n/a	n/a	n/a	n/a	8	[0, 0, 0]	-999	PAL1	1	R1003P
948.007	0.016	576488	TEST_START	n/a	n/a	-999	-999	n/a	n/a	n/a	n/a	8	[0, 0, 0]	-999	PAL1	1	R1003P
948.023	0.275	576496	TEST_ORIENT	n/a	n/a	5	1	FISH	STOOL	FISH	ZOO	8	[0, 0, 0]	-999	PAL1	1	R1003P
948.99	0.0	576980	REC_START	n/a	n/a	5	-999	n/a	STOOL	n/a	n/a	8	[0, 0, 0]	-999	PAL1	1	R1003P
948.99	4.0	576980	TEST_PROBE	n/a	wordpools/wordpool_EN.txt	5	1	FISH	STOOL	FISH	ZOO	8	[0, 0, 0]	-999	PAL1	1	R1003P
950.996	3.012	577983	REC_EVENT	2006.0	n/a	5	1	FISH	STOOL	FISH	ZOO	8	[0, 0, 0]	-999	PAL1	1	R1003P
954.008	0.016	579489	REC_END	n/a	n/a	5	-999	n/a	n/a	n/a	n/a	8	[0, 0, 0]	-999	PAL1	1	R1003P
954.024	0.275	579497	TEST_ORIENT	n/a	n/a	4	2	LEAF	PASS	LEAF	SHEEP	8	[0, 0, 0]	-999	PAL1	1	R1003P
955.025	4.0	579997	TEST_PROBE	n/a	wordpools/wordpool_EN.txt	4	2	LEAF	PASS	LEAF	SHEEP	8	[0, 0, 0]	-999	PAL1	1	R1003P
955.025	2.692	579997	REC_START	n/a	n/a	4	-999	n/a	PASS	n/a	n/a	8	[0, 0, 0]	-999	PAL1	1	R1003P
957.717	2.325	581343	REC_EVENT	2692.0	n/a	4	2	LEAF	PASS	LEAF	SHEEP	8	[0, 0, 0]	-999	PAL1	1	R1003P
960.042	0.017	582506	REC_END	n/a	n/a	4	-999	n/a	n/a	n/a	n/a	8	[0, 0, 0]	-999	PAL1	1	R1003P
960.059	0.275	582514	TEST_ORIENT	n/a	n/a	1	3	PHONE	PASS	ROPE	PHONE	8	[0, 0, 0]	-999	PAL1	1	R1003P
960.926	4.0	582948	TEST_PROBE	n/a	wordpools/wordpool_EN.txt	1	3	PHONE	PASS	ROPE	PHONE	8	[0, 0, 0]	-999	PAL1	1	R1003P
960.926	1.706	582948	REC_START	n/a	n/a	1	-999	n/a	PASS	n/a	n/a	8	[0, 0, 0]	-999	PAL1	1	R1003P
962.632	3.311	583801	REC_EVENT	1706.0	n/a	1	3	PHONE	PASS	ROPE	PHONE	8	[0, 0, 0]	-999	PAL1	1	R1003P
965.943	0.017	585456	REC_END	n/a	n/a	1	-999	n/a	n/a	n/a	n/a	8	[0, 0, 0]	-999	PAL1	1	R1003P
965.96	0.275	585465	TEST_ORIENT	n/a	n/a	2	4	PALM	TREE	PALM	FILM	8	[0, 0, 0]	-999	PAL1	1	R1003P
966.977	4.0	585973	TEST_PROBE	n/a	wordpools/wordpool_EN.txt	2	4	PALM	TREE	PALM	FILM	8	[0, 0, 0]	-999	PAL1	1	R1003P
966.978	1.987	585973	REC_START	n/a	n/a	2	-999	n/a	TREE	n/a	n/a	8	[0, 0, 0]	-999	PAL1	1	R1003P
968.965	3.029	586967	REC_EVENT	1987.0	n/a	2	4	PALM	TREE	PALM	FILM	8	[0, 0, 0]	-999	PAL1	1	R1003P
971.994	0.017	588481	REC_END	n/a	n/a	2	-999	n/a	n/a	n/a	n/a	8	[0, 0, 0]	-999	PAL1	1	R1003P
972.011	0.275	588490	TEST_ORIENT	n/a	n/a	3	5	POOL	BOOT	BOOT	POOL	8	[0, 0, 0]	-999	PAL1	1	R1003P
972.945	4.0	588957	TEST_PROBE	n/a	wordpools/wordpool_EN.txt	3	5	POOL	BOOT	BOOT	POOL	8	[0, 0, 0]	-999	PAL1	1	R1003P
972.945	1.135	588957	REC_START	n/a	n/a	3	-999	n/a	BOOT	n/a	n/a	8	[0, 0, 0]	-999	PAL1	1	R1003P
974.08	3.884	589524	REC_EVENT	1135.0	n/a	3	5	POOL	BOOT	BOOT	POOL	8	[0, 0, 0]	-999	PAL1	1	R1003P
977.964	0.015	591466	REC_END	n/a	n/a	3	-999	n/a	n/a	n/a	n/a	8	[0, 0, 0]	-999	PAL1	1	R1003P
977.979	0.275	591474	TEST_ORIENT	n/a	n/a	6	6	STORM	WIND	STORM	BANK	8	[0, 0, 0]	-999	PAL1	1	R1003P
979.013	4.0	591991	TEST_PROBE	n/a	wordpools/wordpool_EN.txt	6	6	STORM	WIND	STORM	BANK	8	[0, 0, 0]	-999	PAL1	1	R1003P
979.013	2.251	591991	REC_START	n/a	n/a	6	-999	n/a	WIND	n/a	n/a	8	[0, 0, 0]	-999	PAL1	1	R1003P
981.264	2.766	593116	REC_EVENT	2251.0	n/a	6	6	STORM	WIND	STORM	BANK	8	[0, 0, 0]	-999	PAL1	1	R1003P
984.03	1.034	594499	REC_END	n/a	n/a	6	-999	n/a	n/a	n/a	n/a	8	[0, 0, 0]	-999	PAL1	1	R1003P
985.064	10.451	595016	ENCODING_START	n/a	n/a	0	-999	n/a	n/a	n/a	n/a	9	[0, 0, 0]	-999	PAL1	1	R1003P
995.515	0.275	600241	STUDY_ORIENT	n/a	n/a	1	3	GATE	PASS	GATE	PEACH	9	[0, 0, 0]	-999	PAL1	1	R1003P
996.366	4.0	600667	STUDY_PAIR	n/a	wordpools/wordpool_EN.txt	1	3	GATE	PASS	GATE	PEACH	9	[0, 0, 0]	-999	PAL1	1	R1003P
1001.4	0.275	603184	STUDY_ORIENT	n/a	n/a	2	6	BROOM	VASE	BROOM	MOTH	9	[0, 0, 0]	-999	PAL1	1	R1003P
1002.367	4.0	603667	STUDY_PAIR	n/a	wordpools/wordpool_EN.txt	2	6	BROOM	VASE	BROOM	MOTH	9	[0, 0, 0]	-999	PAL1	1	R1003P
1007.385	0.275	606176	STUDY_ORIENT	n/a	n/a	3	1	YARD	STOOL	YARD	FOG	9	[0, 0, 0]	-999	PAL1	1	R1003P
1008.185	4.0	606576	STUDY_PAIR	n/a	wordpools/wordpool_EN.txt	3	1	YARD	STOOL	YARD	FOG	9	[0, 0, 0]	-999	PAL1	1	R1003P
1013.219	0.275	609093	STUDY_ORIENT	n/a	n/a	4	4	PIPE	PASS	EGG	PIPE	9	[0, 0, 0]	-999	PAL1	1	R1003P
1014.236	4.0	609601	STUDY_PAIR	n/a	wordpools/wordpool_EN.txt	4	4	PIPE	PASS	EGG	PIPE	9	[0, 0, 0]	-999	PAL1	1	R1003P
1019.254	0.275	612110	STUDY_ORIENT	n/a	n/a	5	5	THREAD	VINE	THREAD	SUN	9	[0, 0, 0]	-999	PAL1	1	R1003P
1020.054	4.0	612510	STUDY_PAIR	n/a	wordpools/wordpool_EN.txt	5	5	THREAD	VINE	THREAD	SUN	9	[0, 0, 0]	-999	PAL1	1	R1003P
1025.088	0.275	615027	STUDY_ORIENT	n/a	n/a	6	2	HEN	PASS	HEN	CORN	9	[0, 0, 0]	-999	PAL1	1	R1003P
1025.972	4.0	615469	STUDY_PAIR	n/a	wordpools/wordpool_EN.txt	6	2	HEN	PASS	HEN	CORN	9	[0, 0, 0]	-999	PAL1	1	R1003P
1029.99	0.999	617478	START	n/a	n/a	-999	-999	n/a	n/a	n/a	n/a	9	[-999, -999, -999]	-999	PAL1	1	R1003P
1030.989	0.017	617977	MATH_START	n/a	n/a	-999	-999	n/a	n/a	n/a	n/a	9	[0, 0, 0]	-999	PAL1	1	R1003P
1031.006	3.951	617986	PROB	3930.0	n/a	-999	-999	n/a	n/a	n/a	n/a	9	[1, 5, 9]	15	PAL1	1	R1003P
1034.957	4.267	619961	PROB	4235.0	n/a	-999	-999	n/a	n/a	n/a	n/a	9	[2, 5, 3]	19	PAL1	1	R1003P
1039.224	5.068	622095	PROB	5040.0	n/a	-999	-999	n/a	n/a	n/a	n/a	9	[7, 4, 4]	15	PAL1	1	R1003P
1044.292	3.167	624629	PROB	3140.0	n/a	-999	-999	n/a	n/a	n/a	n/a	9	[4, 3, 4]	11	PAL1	1	R1003P
1047.459	3.597	626212	PROB	3597.0	n/a	-999	-999	n/a	n/a	n/a	n/a	9	[4, 4, 2]	10	PAL1	1	R1003P
1051.056	0.004	628010	STOP	n/a	n/a	-999	-999	n/a	n/a	n/a	n/a	9	[-999, -999, -999]	-999	PAL1	1	R1003P
1051.06	0.0	628012	MATH_END	n/a	n/a	-999	-999	n/a	n/a	n/a	n/a	9	[0, 0, 0]	-999	PAL1	1	R1003P
1051.06	0.017	628012	TEST_START	n/a	n/a	-999	-999	n/a	n/a	n/a	n/a	9	[0, 0, 0]	-999	PAL1	1	R1003P
1051.077	0.275	628021	TEST_ORIENT	n/a	n/a	3	1	YARD	STOOL	YARD	FOG	9	[0, 0, 0]	-999	PAL1	1	R1003P
1052.01	4.0	628487	TEST_PROBE	n/a	wordpools/wordpool_EN.txt	3	1	YARD	STOOL	YARD	FOG	9	[0, 0, 0]	-999	PAL1	1	R1003P
1052.011	1.875	628488	REC_START	n/a	n/a	3	-999	n/a	STOOL	n/a	n/a	9	[0, 0, 0]	-999	PAL1	1	R1003P
1053.886	3.152	629425	REC_EVENT	1875.0	n/a	3	1	YARD	STOOL	YARD	FOG	9	[0, 0, 0]	-999	PAL1	1	R1003P
1057.038	0.006	631001	REC_END	n/a	n/a	3	-999	n/a	n/a	n/a	n/a	9	[0, 0, 0]	-999	PAL1	1	R1003P
1057.044	0.275	631004	TEST_ORIENT	n/a	n/a	6	2	HEN	PASS	HEN	CORN	9	[0, 0, 0]	-999	PAL1	1	R1003P
1057.928	4.0	631446	TEST_PROBE	n/a	wordpools/wordpool_EN.txt	6	2	HEN	PASS	HEN	CORN	9	[0, 0, 0]	-999	PAL1	1	R1003P
1057.928	2.833	631446	REC_START	n/a	n/a	6	-999	n/a	PASS	n/a	n/a	9	[0, 0, 0]	-999	PAL1	1	R1003P
1060.761	2.184	632863	REC_EVENT	2833.0	n/a	6	2	HEN	PASS	HEN	CORN	9	[0, 0, 0]	-999	PAL1	1	R1003P
1062.945	0.017	633955	REC_END	n/a	n/a	6	-999	n/a	n/a	n/a	n/a	9	[0, 0, 0]	-999	PAL1	1	R1003P
1062.962	0.275	633963	TEST_ORIENT	n/a	n/a	1	3	GATE	PASS	GATE	PEACH	9	[0, 0, 0]	-999	PAL1	1	R1003P
1063.762	4.0	634363	TEST_PROBE	n/a	wordpools/wordpool_EN.txt	1	3	GATE	PASS	GATE	PEACH	9	[0, 0, 0]	-999	PAL1	1	R1003P
1063.763	1.729	634364	REC_START	n/a	n/a	1	-999	n/a	PASS	n/a	n/a	9	[0, 0, 0]	-999	PAL1	1	R1003P
1065.492	3.28	635228	REC_EVENT	1729.0	n/a	1	3	GATE	PASS	GATE	PEACH	9	[0, 0, 0]	-999	PAL1	1	R1003P
1068.772	0.008	636868	REC_END	n/a	n/a	1	-999	n/a	n/a	n/a	n/a	9	[0, 0, 0]	-999	PAL1	1	R1003P
1068.78	0.275	636872	TEST_ORIENT	n/a	n/a	4	4	PIPE	PASS	EGG	PIPE	9	[0, 0, 0]	-999	PAL1	1	R1003P
1069.763	4.0	637363	TEST_PROBE	n/a	wordpools/wordpool_EN.txt	4	4	PIPE	PASS	EGG	PIPE	9	[0, 0, 0]	-999	PAL1	1	R1003P
1069.764	1.924	637364	REC_START	n/a	n/a	4	-999	n/a	PASS	n/a	n/a	9	[0, 0, 0]	-999	PAL1	1	R1003P
1071.688	3.084	638326	REC_EVENT	1924.0	n/a	4	4	PIPE	PASS	EGG	PIPE	9	[0, 0, 0]	-999	PAL1	1	R1003P
1074.772	0.009	639868	REC_END	n/a	n/a	4	-999	n/a	n/a	n/a	n/a	9	[0, 0, 0]	-999	PAL1	1	R1003P
1074.781	0.275	639872	TEST_ORIENT	n/a	n/a	5	5	THREAD	VINE	THREAD	SUN	9	[0, 0, 0]	-999	PAL1	1	R1003P
1075.597	4.0	640280	TEST_PROBE	n/a	wordpools/wordpool_EN.txt	5	5	THREAD	VINE	THREAD	SUN	9	[0, 0, 0]	-999	PAL1	1	R1003P
1075.598	2.035	640281	REC_START	n/a	n/a	5	-999	n/a	VINE	n/a	n/a	9	[0, 0, 0]	-999	PAL1	1	R1003P
1077.633	2.981	641298	REC_EVENT	2035.0	n/a	5	5	THREAD	VINE	THREAD	SUN	9	[0, 0, 0]	-999	PAL1	1	R1003P
1080.614	0.017	642789	REC_END	n/a	n/a	5	-999	n/a	n/a	n/a	n/a	9	[0, 0, 0]	-999	PAL1	1	R1003P
1080.631	0.275	642797	TEST_ORIENT	n/a	n/a	2	6	BROOM	VASE	BROOM	MOTH	9	[0, 0, 0]	-999	PAL1	1	R1003P
1081.565	4.0	643264	TEST_PROBE	n/a	wordpools/wordpool_EN.txt	2	6	BROOM	VASE	BROOM	MOTH	9	[0, 0, 0]	-999	PAL1	1	R1003P
1081.565	1.433	643264	REC_START	n/a	n/a	2	-999	n/a	VASE	n/a	n/a	9	[0, 0, 0]	-999	PAL1	1	R1003P
1082.998	3.584	643981	REC_EVENT	1433.0	n/a	2	6	BROOM	VASE	BROOM	MOTH	9	[0, 0, 0]	-999	PAL1	1	R1003P
1086.582	1.162	645772	REC_END	n/a	n/a	2	-999	n/a	n/a	n/a	n/a	9	[0, 0, 0]	-999	PAL1	1	R1003P
1087.744	10.442	646353	ENCODING_START	n/a	n/a	0	-999	n/a	n/a	n/a	n/a	10	[0, 0, 0]	-999	PAL1	1	R1003P
1098.186	0.275	651574	STUDY_ORIENT	n/a	n/a	1	3	CHALK	SIDEWALK	SINK	CHALK	10	[0, 0, 0]	-999	PAL1	1	R1003P
1099.069	4.0	652016	STUDY_PAIR	n/a	wordpools/wordpool_EN.txt	1	3	CHALK	SIDEWALK	SINK	CHALK	10	[0, 0, 0]	-999	PAL1	1	R1003P
1104.087	0.275	654524	STUDY_ORIENT	n/a	n/a	2	4	SHEET	PASS	SHEET	HILL	10	[0, 0, 0]	-999	PAL1	1	R1003P
1105.02	4.0	654991	STUDY_PAIR	n/a	wordpools/wordpool_EN.txt	2	4	SHEET	PASS	SHEET	HILL	10	[0, 0, 0]	-999	PAL1	1	R1003P
1110.038	0.275	657500	STUDY_ORIENT	n/a	n/a	3	5	PIG	PASS	PIG	MUD	10	[0, 0, 0]	-999	PAL1	1	R1003P
1110.938	4.0	657950	STUDY_PAIR	n/a	wordpools/wordpool_EN.txt	3	5	PIG	PASS	PIG	MUD	10	[0, 0, 0]	-999	PAL1	1	R1003P
1115.956	0.275	660459	STUDY_ORIENT	n/a	n/a	4	2	CART	SLUSH	CART	TOY	10	[0, 0, 0]	-999	PAL1	1	R1003P
1116.739	4.0	660850	STUDY_PAIR	n/a	wordpools/wordpool_EN.txt	4	2	CART	SLUSH	CART	TOY	10	[0, 0, 0]	-999	PAL1	1	R1003P
1121.757	0.275	663359	STUDY_ORIENT	n/a	n/a	5	1	SLUSH	ICE	SLUSH	CHAIR	10	[0, 0, 0]	-999	PAL1	1	R1003P
1122.639	4.0	663800	STUDY_PAIR	n/a	wordpools/wordpool_EN.txt	5	1	SLUSH	ICE	SLUSH	CHAIR	10	[0, 0, 0]	-999	PAL1	1	R1003P
1127.657	0.275	666309	STUDY_ORIENT	n/a	n/a	6	6	MILK	PASS	CROWN	MILK	10	[0, 0, 0]	-999	PAL1	1	R1003P
1128.507	4.0	666734	STUDY_PAIR	n/a	wordpools/wordpool_EN.txt	6	6	MILK	PASS	CROWN	MILK	10	[0, 0, 0]	-999	PAL1	1	R1003P
1132.508	1.0	668734	START	n/a	n/a	-999	-999	n/a	n/a	n/a	n/a	10	[-999, -999, -999]	-999	PAL1	1	R1003P
1133.508	0.017	669234	MATH_START	n/a	n/a	-999	-999	n/a	n/a	n/a	n/a	10	[0, 0, 0]	-999	PAL1	1	R1003P
1133.525	3.285	669243	PROB	3251.0	n/a	-999	-999	n/a	n/a	n/a	n/a	10	[6, 6, 2]	14	PAL1	1	R1003P
1136.81	4.334	670885	PROB	4302.0	n/a	-999	-999	n/a	n/a	n/a	n/a	10	[9, 5, 9]	23	PAL1	1	R1003P
1141.144	5.284	673052	PROB	5256.0	n/a	-999	-999	n/a	n/a	n/a	n/a	10	[2, 2, 5]	9	PAL1	1	R1003P
1146.428	3.083	675694	PROB	3059.0	n/a	-999	-999	n/a	n/a	n/a	n/a	10	[1, 1, 5]	7	PAL1	1	R1003P
1149.511	3.273	677235	PROB	3273.0	n/a	-999	-999	n/a	n/a	n/a	n/a	10	[2, 8, 4]	14	PAL1	1	R1003P
1152.784	0.012	678872	STOP	n/a	n/a	-999	-999	n/a	n/a	n/a	n/a	10	[-999, -999, -999]	-999	PAL1	1	R1003P
1152.796	0.0	678878	MATH_END	n/a	n/a	-999	-999	n/a	n/a	n/a	n/a	10	[0, 0, 0]	-999	PAL1	1	R1003P
1152.796	0.017	678878	TEST_START	n/a	n/a	-999	-999	n/a	n/a	n/a	n/a	10	[0, 0, 0]	-999	PAL1	1	R1003P
1152.813	0.275	678886	TEST_ORIENT	n/a	n/a	5	1	SLUSH	ICE	SLUSH	CHAIR	10	[0, 0, 0]	-999	PAL1	1	R1003P
1153.73	4.0	679345	TEST_PROBE	n/a	wordpools/wordpool_EN.txt	5	1	SLUSH	ICE	SLUSH	CHAIR	10	[0, 0, 0]	-999	PAL1	1	R1003P
1153.731	1.205	679345	REC_START	n/a	n/a	5	-999	n/a	ICE	n/a	n/a	10	[0, 0, 0]	-999	PAL1	1	R1003P
1154.936	3.82	679948	REC_EVENT	1205.0	n/a	5	1	SLUSH	ICE	SLUSH	CHAIR	10	[0, 0, 0]	-999	PAL1	1	R1003P
1158.756	0.008	681858	REC_END	n/a	n/a	5	-999	n/a	n/a	n/a	n/a	10	[0, 0, 0]	-999	PAL1	1	R1003P
1158.764	0.275	681862	TEST_ORIENT	n/a	n/a	4	2	CART	SLUSH	CART	TOY	10	[0, 0, 0]	-999	PAL1	1	R1003P
1159.798	4.0	682379	TEST_PROBE	n/a	wordpools/wordpool_EN.txt	4	2	CART	SLUSH	CART	TOY	10	[0, 0, 0]	-999	PAL1	1	R1003P
1159.798	2.379	682379	REC_START	n/a	n/a	4	-999	n/a	SLUSH	n/a	n/a	10	[0, 0, 0]	-999	PAL1	1	R1003P
1162.177	2.638	683568	REC_EVENT	2379.0	n/a	4	2	CART	SLUSH	CART	TOY	10	[0, 0, 0]	-999	PAL1	1	R1003P
1164.815	0.017	684887	REC_END	n/a	n/a	4	-999	n/a	n/a	n/a	n/a	10	[0, 0, 0]	-999	PAL1	1	R1003P
1164.832	0.275	684895	TEST_ORIENT	n/a	n/a	1	3	CHALK	SIDEWALK	SINK	CHALK	10	[0, 0, 0]	-999	PAL1	1	R1003P
1165.782	4.0	685370	TEST_PROBE	n/a	wordpools/wordpool_EN.txt	1	3	CHALK	SIDEWALK	SINK	CHALK	10	[0, 0, 0]	-999	PAL1	1	R1003P
1165.782	2.186	685370	REC_START	n/a	n/a	1	-999	n/a	SIDEWALK	n/a	n/a	10	[0, 0, 0]	-999	PAL1	1	R1003P
1167.968	2.831	686463	REC_EVENT	2186.0	n/a	1	3	CHALK	SIDEWALK	SINK	CHALK	10	[0, 0, 0]	-999	PAL1	1	R1003P
1170.799	0.017	687879	REC_END	n/a	n/a	1	-999	n/a	n/a	n/a	n/a	10	[0, 0, 0]	-999	PAL1	1	R1003P
1170.816	0.275	687887	TEST_ORIENT	n/a	n/a	2	4	SHEET	PASS	SHEET	HILL	10	[0, 0, 0]	-999	PAL1	1	R1003P
1171.833	4.0	688396	TEST_PROBE	n/a	wordpools/wordpool_EN.txt	2	4	SHEET	PASS	SHEET	HILL	10	[0, 0, 0]	-999	PAL1	1	R1003P
1171.834	1.784	688396	REC_START	n/a	n/a	2	-999	n/a	PASS	n/a	n/a	10	[0, 0, 0]	-999	PAL1	1	R1003P
1173.618	3.216	689288	REC_EVENT	1784.0	n/a	2	4	SHEET	PASS	SHEET	HILL	10	[0, 0, 0]	-999	PAL1	1	R1003P
1176.834	0.017	690896	REC_END	n/a	n/a	2	-999	n/a	n/a	n/a	n/a	10	[0, 0, 0]	-999	PAL1	1	R1003P
1176.851	0.275	690905	TEST_ORIENT	n/a	n/a	3	5	PIG	PASS	PIG	MUD	10	[0, 0, 0]	-999	PAL1	1	R1003P
1177.734	4.0	691346	TEST_PROBE	n/a	wordpools/wordpool_EN.txt	3	5	PIG	PASS	PIG	MUD	10	[0, 0, 0]	-999	PAL1	1	R1003P
1177.735	1.69	691347	REC_START	n/a	n/a	3	-999	n/a	PASS	n/a	n/a	10	[0, 0, 0]	-999	PAL1	1	R1003P
1179.425	3.32	692192	REC_EVENT	1690.0	n/a	3	5	PIG	PASS	PIG	MUD	10	[0, 0, 0]	-999	PAL1	1	R1003P
1182.745	0.007	693851	REC_END	n/a	n/a	3	-999	n/a	n/a	n/a	n/a	10	[0, 0, 0]	-999	PAL1	1	R1003P
1182.752	0.275	693855	TEST_ORIENT	n/a	n/a	6	6	MILK	PASS	CROWN	MILK	10	[0, 0, 0]	-999	PAL1	1	R1003P
1183.551	4.0	694254	TEST_PROBE	n/a	wordpools/wordpool_EN.txt	6	6	MILK	PASS	CROWN	MILK	10	[0, 0, 0]	-999	PAL1	1	R1003P
1183.552	2.853	694255	REC_START	n/a	n/a	6	-999	n/a	PASS	n/a	n/a	10	[0, 0, 0]	-999	PAL1	1	R1003P
1186.405	2.156	695681	REC_EVENT	2853.0	n/a	6	6	MILK	PASS	CROWN	MILK	10	[0, 0, 0]	-999	PAL1	1	R1003P
1188.561	1.022	696759	REC_END	n/a	n/a	6	-999	n/a	n/a	n/a	n/a	10	[0, 0, 0]	-999	PAL1	1	R1003P
1189.583	10.439	697270	ENCODING_START	n/a	n/a	0	-999	n/a	n/a	n/a	n/a	11	[0, 0, 0]	-999	PAL1	1	R1003P
1200.022	0.275	702490	STUDY_ORIENT	n/a	n/a	1	5	SMOKE	PASS	SMOKE	MAIL	11	[0, 0, 0]	-999	PAL1	1	R1003P
1201.006	4.0	702981	STUDY_PAIR	n/a	wordpools/wordpool_EN.txt	1	5	SMOKE	PASS	SMOKE	MAIL	11	[0, 0, 0]	-999	PAL1	1	R1003P
1206.04	0.275	705498	STUDY_ORIENT	n/a	n/a	2	4	FUDGE	ICE	INK	FUDGE	11	[0, 0, 0]	-999	PAL1	1	R1003P
1206.94	4.0	705948	STUDY_PAIR	n/a	wordpools/wordpool_EN.txt	2	4	FUDGE	ICE	INK	FUDGE	11	[0, 0, 0]	-999	PAL1	1	R1003P
1211.974	0.275	708465	STUDY_ORIENT	n/a	n/a	3	1	HOOK	TAPE	CAT	HOOK	11	[0, 0, 0]	-999	PAL1	1	R1003P
1212.758	4.0	708857	STUDY_PAIR	n/a	wordpools/wordpool_EN.txt	3	1	HOOK	TAPE	CAT	HOOK	11	[0, 0, 0]	-999	PAL1	1	R1003P
1217.792	0.275	711374	STUDY_ORIENT	n/a	n/a	4	6	RICE	PASS	RICE	FOAM	11	[0, 0, 0]	-999	PAL1	1	R1003P
1218.759	4.0	711858	STUDY_PAIR	n/a	wordpools/wordpool_EN.txt	4	6	RICE	PASS	RICE	FOAM	11	[0, 0, 0]	-999	PAL1	1	R1003P
1223.793	0.275	714374	STUDY_ORIENT	n/a	n/a	5	3	SWAMP	TRASH	SWAMP	STAIR	11	[0, 0, 0]	-999	PAL1	1	R1003P
1224.642	4.0	714799	STUDY_PAIR	n/a	wordpools/wordpool_EN.txt	5	3	SWAMP	TRASH	SWAMP	STAIR	11	[0, 0, 0]	-999	PAL1	1	R1003P
1229.66	0.275	717308	STUDY_ORIENT	n/a	n/a	6	2	SKI	PASS	CAPE	SKI	11	[0, 0, 0]	-999	PAL1	1	R1003P
1230.644	4.0	717800	STUDY_PAIR	n/a	wordpools/wordpool_EN.txt	6	2	SKI	PASS	CAPE	SKI	11	[0, 0, 0]	-999	PAL1	1	R1003P
1234.662	0.999	719809	START	n/a	n/a	-999	-999	n/a	n/a	n/a	n/a	11	[-999, -999, -999]	-999	PAL1	1	R1003P
1235.661	0.017	720308	MATH_START	n/a	n/a	-999	-999	n/a	n/a	n/a	n/a	11	[0, 0, 0]	-999	PAL1	1	R1003P
1235.678	2.751	720317	PROB	2730.0	n/a	-999	-999	n/a	n/a	n/a	n/a	11	[4, 1, 1]	6	PAL1	1	R1003P
1238.429	4.901	721692	PROB	4867.0	n/a	-999	-999	n/a	n/a	n/a	n/a	11	[5, 7, 7]	19	PAL1	1	R1003P
1243.33	6.668	724142	PROB	6646.0	n/a	-999	-999	n/a	n/a	n/a	n/a	11	[9, 4, 3]	16	PAL1	1	R1003P
1249.998	5.01	727476	PROB	5010.0	n/a	-999	-999	n/a	n/a	n/a	n/a	11	[2, 6, 5]	13	PAL1	1	R1003P
1255.008	0.008	729981	STOP	n/a	n/a	-999	-999	n/a	n/a	n/a	n/a	11	[-999, -999, -999]	-999	PAL1	1	R1003P
1255.016	0.0	729985	TEST_START	n/a	n/a	-999	-999	n/a	n/a	n/a	n/a	11	[0, 0, 0]	-999	PAL1	1	R1003P
1255.016	0.017	729985	MATH_END	n/a	n/a	-999	-999	n/a	n/a	n/a	n/a	11	[0, 0, 0]	-999	PAL1	1	R1003P
1255.033	0.275	729994	TEST_ORIENT	n/a	n/a	3	1	HOOK	TAPE	CAT	HOOK	11	[0, 0, 0]	-999	PAL1	1	R1003P
1256.016	4.0	730485	TEST_PROBE	n/a	wordpools/wordpool_EN.txt	3	1	HOOK	TAPE	CAT	HOOK	11	[0, 0, 0]	-999	PAL1	1	R1003P
1256.017	2.068	730486	REC_START	n/a	n/a	3	-999	n/a	TAPE	n/a	n/a	11	[0, 0, 0]	-999	PAL1	1	R1003P
1258.085	2.94	731520	REC_EVENT	2068.0	n/a	3	1	HOOK	TAPE	CAT	HOOK	11	[0, 0, 0]	-999	PAL1	1	R1003P
1261.025	0.009	732989	REC_END	n/a	n/a	3	-999	n/a	n/a	n/a	n/a	11	[0, 0, 0]	-999	PAL1	1	R1003P
1261.034	0.275	732994	TEST_ORIENT	n/a	n/a	6	2	SKI	PASS	CAPE	SKI	11	[0, 0, 0]	-999	PAL1	1	R1003P
1261.851	4.0	733402	TEST_PROBE	n/a	wordpools/wordpool_EN.txt	6	2	SKI	PASS	CAPE	SKI	11	[0, 0, 0]	-999	PAL1	1	R1003P
1261.851	2.743	733402	REC_START	n/a	n/a	6	-999	n/a	PASS	n/a	n/a	11	[0, 0, 0]	-999	PAL1	1	R1003P
1264.594	2.274	734774	REC_EVENT	2743.0	n/a	6	2	SKI	PASS	CAPE	SKI	11	[0, 0, 0]	-999	PAL1	1	R1003P
1266.868	0.017	735911	REC_END	n/a	n/a	6	-999	n/a	n/a	n/a	n/a	11	[0, 0, 0]	-999	PAL1	1	R1003P
1266.885	0.275	735919	TEST_ORIENT	n/a	n/a	5	3	SWAMP	TRASH	SWAMP	STAIR	11	[0, 0, 0]	-999	PAL1	1	R1003P
1267.768	4.0	736361	TEST_PROBE	n/a	wordpools/wordpool_EN.txt	5	3	SWAMP	TRASH	SWAMP	STAIR	11	[0, 0, 0]	-999	PAL1	1	R1003P
1267.769	2.526	736361	REC_START	n/a	n/a	5	-999	n/a	TRASH	n/a	n/a	11	[0, 0, 0]	-999	PAL1	1	R1003P
1270.295	2.483	737624	REC_EVENT	2526.0	n/a	5	3	SWAMP	TRASH	SWAMP	STAIR	11	[0, 0, 0]	-999	PAL1	1	R1003P
1272.778	0.008	738866	REC_END	n/a	n/a	5	-999	n/a	n/a	n/a	n/a	11	[0, 0, 0]	-999	PAL1	1	R1003P
1272.786	0.275	738870	TEST_ORIENT	n/a	n/a	2	4	FUDGE	ICE	INK	FUDGE	11	[0, 0, 0]	-999	PAL1	1	R1003P
1273.803	4.0	739378	TEST_PROBE	n/a	wordpools/wordpool_EN.txt	2	4	FUDGE	ICE	INK	FUDGE	11	[0, 0, 0]	-999	PAL1	1	R1003P
1273.804	1.28	739379	REC_START	n/a	n/a	2	-999	n/a	ICE	n/a	n/a	11	[0, 0, 0]	-999	PAL1	1	R1003P
1275.084	3.744	740019	REC_EVENT	1280.0	n/a	2	4	FUDGE	ICE	INK	FUDGE	11	[0, 0, 0]	-999	PAL1	1	R1003P
1278.828	0.009	741890	REC_END	n/a	n/a	2	-999	n/a	n/a	n/a	n/a	11	[0, 0, 0]	-999	PAL1	1	R1003P
1278.837	0.275	741895	TEST_ORIENT	n/a	n/a	1	5	SMOKE	PASS	SMOKE	MAIL	11	[0, 0, 0]	-999	PAL1	1	R1003P
1279.854	4.0	742403	TEST_PROBE	n/a	wordpools/wordpool_EN.txt	1	5	SMOKE	PASS	SMOKE	MAIL	11	[0, 0, 0]	-999	PAL1	1	R1003P
1279.855	1.917	742404	REC_START	n/a	n/a	1	-999	n/a	PASS	n/a	n/a	11	[0, 0, 0]	-999	PAL1	1	R1003P
1281.772	3.1	743362	REC_EVENT	1917.0	n/a	1	5	SMOKE	PASS	SMOKE	MAIL	11	[0, 0, 0]	-999	PAL1	1	R1003P
1284.872	0.016	744912	REC_END	n/a	n/a	1	-999	n/a	n/a	n/a	n/a	11	[0, 0, 0]	-999	PAL1	1	R1003P
1284.888	0.275	744920	TEST_ORIENT	n/a	n/a	4	6	RICE	PASS	RICE	FOAM	11	[0, 0, 0]	-999	PAL1	1	R1003P
1285.705	4.0	745329	TEST_PROBE	n/a	wordpools/wordpool_EN.txt	4	6	RICE	PASS	RICE	FOAM	11	[0, 0, 0]	-999	PAL1	1	R1003P
1285.706	2.087	745329	REC_START	n/a	n/a	4	-999	n/a	PASS	n/a	n/a	11	[0, 0, 0]	-999	PAL1	1	R1003P
1287.793	2.913	746373	REC_EVENT	2087.0	n/a	4	6	RICE	PASS	RICE	FOAM	11	[0, 0, 0]	-999	PAL1	1	R1003P
1290.706	1.086	747829	REC_END	n/a	n/a	4	-999	n/a	n/a	n/a	n/a	11	[0, 0, 0]	-999	PAL1	1	R1003P
1291.792	10.45	748372	ENCODING_START	n/a	n/a	0	-999	n/a	n/a	n/a	n/a	12	[0, 0, 0]	-999	PAL1	1	R1003P
1302.242	0.275	753597	STUDY_ORIENT	n/a	n/a	1	1	SALT	PASS	DIME	SALT	12	[0, 0, 0]	-999	PAL1	1	R1003P
1303.108	4.0	754030	STUDY_PAIR	n/a	wordpools/wordpool_EN.txt	1	1	SALT	PASS	DIME	SALT	12	[0, 0, 0]	-999	PAL1	1	R1003P
1308.126	0.275	756539	STUDY_ORIENT	n/a	n/a	2	4	RAKE	PASS	RAKE	SLIME	12	[0, 0, 0]	-999	PAL1	1	R1003P
1308.976	4.0	756964	STUDY_PAIR	n/a	wordpools/wordpool_EN.txt	2	4	RAKE	PASS	RAKE	SLIME	12	[0, 0, 0]	-999	PAL1	1	R1003P
1313.994	0.275	759473	STUDY_ORIENT	n/a	n/a	3	3	HAND	PASS	LAMP	HAND	12	[0, 0, 0]	-999	PAL1	1	R1003P
1314.777	4.0	759864	STUDY_PAIR	n/a	wordpools/wordpool_EN.txt	3	3	HAND	PASS	LAMP	HAND	12	[0, 0, 0]	-999	PAL1	1	R1003P
1319.795	0.275	762373	STUDY_ORIENT	n/a	n/a	4	6	SOCK	SHOE	SOCK	CUBE	12	[0, 0, 0]	-999	PAL1	1	R1003P
1320.644	4.0	762797	STUDY_PAIR	n/a	wordpools/wordpool_EN.txt	4	6	SOCK	SHOE	SOCK	CUBE	12	[0, 0, 0]	-999	PAL1	1	R1003P
1325.662	0.275	765306	STUDY_ORIENT	n/a	n/a	5	5	BEACH	CHAIR	BEACH	WING	12	[0, 0, 0]	-999	PAL1	1	R1003P
1326.446	4.0	765698	STUDY_PAIR	n/a	wordpools/wordpool_EN.txt	5	5	BEACH	CHAIR	BEACH	WING	12	[0, 0, 0]	-999	PAL1	1	R1003P
1331.464	0.275	768207	STUDY_ORIENT	n/a	n/a	6	2	THUMB	NAIL	BREAD	THUMB	12	[0, 0, 0]	-999	PAL1	1	R1003P
1332.414	4.0	768682	STUDY_PAIR	n/a	wordpools/wordpool_EN.txt	6	2	THUMB	NAIL	BREAD	THUMB	12	[0, 0, 0]	-999	PAL1	1	R1003P
1336.415	1.0	770683	START	n/a	n/a	-999	-999	n/a	n/a	n/a	n/a	12	[-999, -999, -999]	-999	PAL1	1	R1003P
1337.415	0.017	771182	MATH_START	n/a	n/a	-999	-999	n/a	n/a	n/a	n/a	12	[0, 0, 0]	-999	PAL1	1	R1003P
1337.432	4.133	771191	PROB	4111.0	n/a	-999	-999	n/a	n/a	n/a	n/a	12	[2, 3, 4]	9	PAL1	1	R1003P
1341.565	2.351	773257	PROB	2331.0	n/a	-999	-999	n/a	n/a	n/a	n/a	12	[9, 1, 2]	12	PAL1	1	R1003P
1343.916	5.318	774433	PROB	5284.0	n/a	-999	-999	n/a	n/a	n/a	n/a	12	[8, 3, 2]	13	PAL1	1	R1003P
1349.234	3.684	777092	PROB	3662.0	n/a	-999	-999	n/a	n/a	n/a	n/a	12	[2, 7, 1]	10	PAL1	1	R1003P
1352.918	6.074	778934	PROB	6074.0	n/a	-999	-999	n/a	n/a	n/a	n/a	12	[8, 6, 7]	21	PAL1	1	R1003P
1358.992	0.011	781970	STOP	n/a	n/a	-999	-999	n/a	n/a	n/a	n/a	12	[-999, -999, -999]	-999	PAL1	1	R1003P
1359.003	0.0	781976	TEST_START	n/a	n/a	-999	-999	n/a	n/a	n/a	n/a	12	[0, 0, 0]	-999	PAL1	1	R1003P
1359.003	0.016	781976	MATH_END	n/a	n/a	-999	-999	n/a	n/a	n/a	n/a	12	[0, 0, 0]	-999	PAL1	1	R1003P
1359.019	0.275	781984	TEST_ORIENT	n/a	n/a	1	1	SALT	PASS	DIME	SALT	12	[0, 0, 0]	-999	PAL1	1	R1003P
1359.903	4.0	782426	TEST_PROBE	n/a	wordpools/wordpool_EN.txt	1	1	SALT	PASS	DIME	SALT	12	[0, 0, 0]	-999	PAL1	1	R1003P
1359.904	2.87	782426	REC_START	n/a	n/a	1	-999	n/a	PASS	n/a	n/a	12	[0, 0, 0]	-999	PAL1	1	R1003P
1362.774	2.155	783861	REC_EVENT	2870.0	n/a	1	1	SALT	PASS	DIME	SALT	12	[0, 0, 0]	-999	PAL1	1	R1003P
1364.929	0.008	784939	REC_END	n/a	n/a	1	-999	n/a	n/a	n/a	n/a	12	[0, 0, 0]	-999	PAL1	1	R1003P
1364.937	0.275	784943	TEST_ORIENT	n/a	n/a	6	2	THUMB	NAIL	BREAD	THUMB	12	[0, 0, 0]	-999	PAL1	1	R1003P
1365.937	4.0	785443	TEST_PROBE	n/a	wordpools/wordpool_EN.txt	6	2	THUMB	NAIL	BREAD	THUMB	12	[0, 0, 0]	-999	PAL1	1	R1003P
1365.938	1.542	785443	REC_START	n/a	n/a	6	-999	n/a	NAIL	n/a	n/a	12	[0, 0, 0]	-999	PAL1	1	R1003P
1367.48	3.467	786214	REC_EVENT	1542.0	n/a	6	2	THUMB	NAIL	BREAD	THUMB	12	[0, 0, 0]	-999	PAL1	1	R1003P
1370.947	0.008	787948	REC_END	n/a	n/a	6	-999	n/a	n/a	n/a	n/a	12	[0, 0, 0]	-999	PAL1	1	R1003P
1370.955	0.275	787952	TEST_ORIENT	n/a	n/a	3	3	HAND	PASS	LAMP	HAND	12	[0, 0, 0]	-999	PAL1	1	R1003P
1371.989	4.0	788469	TEST_PROBE	n/a	wordpools/wordpool_EN.txt	3	3	HAND	PASS	LAMP	HAND	12	[0, 0, 0]	-999	PAL1	1	R1003P
1371.989	2.846	788469	REC_START	n/a	n/a	3	-999	n/a	PASS	n/a	n/a	12	[0, 0, 0]	-999	PAL1	1	R1003P
1374.835	2.18	789892	REC_EVENT	2846.0	n/a	3	3	HAND	PASS	LAMP	HAND	12	[0, 0, 0]	-999	PAL1	1	R1003P
1377.015	0.008	790981	REC_END	n/a	n/a	3	-999	n/a	n/a	n/a	n/a	12	[0, 0, 0]	-999	PAL1	1	R1003P
1377.023	0.275	790985	TEST_ORIENT	n/a	n/a	2	4	RAKE	PASS	RAKE	SLIME	12	[0, 0, 0]	-999	PAL1	1	R1003P
1377.99	0.0	791469	REC_START	n/a	n/a	2	-999	n/a	PASS	n/a	n/a	12	[0, 0, 0]	-999	PAL1	1	R1003P
1377.99	4.0	791469	TEST_PROBE	n/a	wordpools/wordpool_EN.txt	2	4	RAKE	PASS	RAKE	SLIME	12	[0, 0, 0]	-999	PAL1	1	R1003P
1380.65	2.357	792799	REC_EVENT	2660.0	n/a	2	4	RAKE	PASS	RAKE	SLIME	12	[0, 0, 0]	-999	PAL1	1	R1003P
1383.007	0.017	793977	REC_END	n/a	n/a	2	-999	n/a	n/a	n/a	n/a	12	[0, 0, 0]	-999	PAL1	1	R1003P
1383.024	0.275	793986	TEST_ORIENT	n/a	n/a	5	5	BEACH	CHAIR	BEACH	WING	12	[0, 0, 0]	-999	PAL1	1	R1003P
1384.041	4.0	794494	TEST_PROBE	n/a	wordpools/wordpool_EN.txt	5	5	BEACH	CHAIR	BEACH	WING	12	[0, 0, 0]	-999	PAL1	1	R1003P
1384.041	1.63	794494	REC_START	n/a	n/a	5	-999	n/a	CHAIR	n/a	n/a	12	[0, 0, 0]	-999	PAL1	1	R1003P
1385.671	3.389	795309	REC_EVENT	1630.0	n/a	5	5	BEACH	CHAIR	BEACH	WING	12	[0, 0, 0]	-999	PAL1	1	R1003P
1389.06	0.015	797004	REC_END	n/a	n/a	5	-999	n/a	n/a	n/a	n/a	12	[0, 0, 0]	-999	PAL1	1	R1003P
1389.075	0.275	797011	TEST_ORIENT	n/a	n/a	4	6	SOCK	SHOE	SOCK	CUBE	12	[0, 0, 0]	-999	PAL1	1	R1003P
1390.075	4.0	797511	TEST_PROBE	n/a	wordpools/wordpool_EN.txt	4	6	SOCK	SHOE	SOCK	CUBE	12	[0, 0, 0]	-999	PAL1	1	R1003P
1390.076	2.034	797512	REC_START	n/a	n/a	4	-999	n/a	SHOE	n/a	n/a	12	[0, 0, 0]	-999	PAL1	1	R1003P
1392.11	2.975	798529	REC_EVENT	2034.0	n/a	4	6	SOCK	SHOE	SOCK	CUBE	12	[0, 0, 0]	-999	PAL1	1	R1003P
1395.085	1.043	800016	REC_END	n/a	n/a	4	-999	n/a	n/a	n/a	n/a	12	[0, 0, 0]	-999	PAL1	1	R1003P
1396.128	10.45	800537	ENCODING_START	n/a	n/a	0	-999	n/a	n/a	n/a	n/a	13	[0, 0, 0]	-999	PAL1	1	R1003P
1406.578	0.275	805762	STUDY_ORIENT	n/a	n/a	1	1	SCHOOL	PASS	JUDGE	SCHOOL	13	[0, 0, 0]	-999	PAL1	1	R1003P
1407.395	4.0	806171	STUDY_PAIR	n/a	wordpools/wordpool_EN.txt	1	1	SCHOOL	PASS	JUDGE	SCHOOL	13	[0, 0, 0]	-999	PAL1	1	R1003P
1412.413	0.275	808680	STUDY_ORIENT	n/a	n/a	2	6	GEESE	ROAD	GEESE	WOOD	13	[0, 0, 0]	-999	PAL1	1	R1003P
1413.347	4.0	809147	STUDY_PAIR	n/a	wordpools/wordpool_EN.txt	2	6	GEESE	ROAD	GEESE	WOOD	13	[0, 0, 0]	-999	PAL1	1	R1003P
1418.381	0.275	811663	STUDY_ORIENT	n/a	n/a	3	5	HORSE	DESK	DESK	HORSE	13	[0, 0, 0]	-999	PAL1	1	R1003P
1419.214	4.0	812080	STUDY_PAIR	n/a	wordpools/wordpool_EN.txt	3	5	HORSE	DESK	DESK	HORSE	13	[0, 0, 0]	-999	PAL1	1	R1003P
1424.232	0.275	814589	STUDY_ORIENT	n/a	n/a	4	4	SIGN	PASS	SIGN	PANTS	13	[0, 0, 0]	-999	PAL1	1	R1003P
1425.099	4.0	815022	STUDY_PAIR	n/a	wordpools/wordpool_EN.txt	4	4	SIGN	PASS	SIGN	PANTS	13	[0, 0, 0]	-999	PAL1	1	R1003P
1430.133	0.275	817539	STUDY_ORIENT	n/a	n/a	5	3	FLUTE	PASS	TRAY	FLUTE	13	[0, 0, 0]	-999	PAL1	1	R1003P
1431.15	4.0	818048	STUDY_PAIR	n/a	wordpools/wordpool_EN.txt	5	3	FLUTE	PASS	TRAY	FLUTE	13	[0, 0, 0]	-999	PAL1	1	R1003P
1436.184	0.275	820564	STUDY_ORIENT	n/a	n/a	6	2	TOAD	ROAD	TOAD	JUICE	13	[0, 0, 0]	-999	PAL1	1	R1003P
1437.135	4.0	821040	STUDY_PAIR	n/a	wordpools/wordpool_EN.txt	6	2	TOAD	ROAD	TOAD	JUICE	13	[0, 0, 0]	-999	PAL1	1	R1003P
1441.152	1.0	823048	START	n/a	n/a	-999	-999	n/a	n/a	n/a	n/a	13	[-999, -999, -999]	-999	PAL1	1	R1003P
1442.152	0.017	823548	MATH_START	n/a	n/a	-999	-999	n/a	n/a	n/a	n/a	13	[0, 0, 0]	-999	PAL1	1	R1003P
1442.169	6.118	823557	PROB	6087.0	n/a	-999	-999	n/a	n/a	n/a	n/a	13	[7, 8, 3]	17	PAL1	1	R1003P
1448.287	2.817	826616	PROB	2785.0	n/a	-999	-999	n/a	n/a	n/a	n/a	13	[8, 2, 5]	15	PAL1	1	R1003P
1451.104	3.167	828024	PROB	3136.0	n/a	-999	-999	n/a	n/a	n/a	n/a	13	[7, 2, 5]	14	PAL1	1	R1003P
1454.271	3.117	829607	PROB	3097.0	n/a	-999	-999	n/a	n/a	n/a	n/a	13	[8, 8, 8]	24	PAL1	1	R1003P
1457.388	7.98	831166	PROB	7980.0	n/a	-999	-999	n/a	n/a	n/a	n/a	13	[9, 5, 6]	20	PAL1	1	R1003P
1465.368	0.005	835156	STOP	n/a	n/a	-999	-999	n/a	n/a	n/a	n/a	13	[-999, -999, -999]	-999	PAL1	1	R1003P
1465.373	0.0	835158	TEST_START	n/a	n/a	-999	-999	n/a	n/a	n/a	n/a	13	[0, 0, 0]	-999	PAL1	1	R1003P
1465.373	0.017	835158	MATH_END	n/a	n/a	-999	-999	n/a	n/a	n/a	n/a	13	[0, 0, 0]	-999	PAL1	1	R1003P
1465.39	0.275	835167	TEST_ORIENT	n/a	n/a	1	1	SCHOOL	PASS	JUDGE	SCHOOL	13	[0, 0, 0]	-999	PAL1	1	R1003P
1466.407	4.0	835675	TEST_PROBE	n/a	wordpools/wordpool_EN.txt	1	1	SCHOOL	PASS	JUDGE	SCHOOL	13	[0, 0, 0]	-999	PAL1	1	R1003P
1466.408	2.698	835676	REC_START	n/a	n/a	1	-999	n/a	PASS	n/a	n/a	13	[0, 0, 0]	-999	PAL1	1	R1003P
1469.106	2.327	837025	REC_EVENT	2698.0	n/a	1	1	SCHOOL	PASS	JUDGE	SCHOOL	13	[0, 0, 0]	-999	PAL1	1	R1003P
1471.433	0.008	838188	REC_END	n/a	n/a	1	-999	n/a	n/a	n/a	n/a	13	[0, 0, 0]	-999	PAL1	1	R1003P
1471.441	0.275	838192	TEST_ORIENT	n/a	n/a	6	2	TOAD	ROAD	TOAD	JUICE	13	[0, 0, 0]	-999	PAL1	1	R1003P
1472.425	0.0	838684	REC_START	n/a	n/a	6	-999	n/a	ROAD	n/a	n/a	13	[0, 0, 0]	-999	PAL1	1	R1003P
1472.425	4.0	838684	TEST_PROBE	n/a	wordpools/wordpool_EN.txt	6	2	TOAD	ROAD	TOAD	JUICE	13	[0, 0, 0]	-999	PAL1	1	R1003P
1474.443	2.999	839693	REC_EVENT	2018.0	n/a	6	2	TOAD	ROAD	TOAD	JUICE	13	[0, 0, 0]	-999	PAL1	1	R1003P
1477.442	0.017	841192	REC_END	n/a	n/a	6	-999	n/a	n/a	n/a	n/a	13	[0, 0, 0]	-999	PAL1	1	R1003P
1477.459	0.275	841201	TEST_ORIENT	n/a	n/a	5	3	FLUTE	PASS	TRAY	FLUTE	13	[0, 0, 0]	-999	PAL1	1	R1003P
1478.508	4.0	841725	TEST_PROBE	n/a	wordpools/wordpool_EN.txt	5	3	FLUTE	PASS	TRAY	FLUTE	13	[0, 0, 0]	-999	PAL1	1	R1003P
1478.509	1.625	841726	REC_START	n/a	n/a	5	-999	n/a	PASS	n/a	n/a	13	[0, 0, 0]	-999	PAL1	1	R1003P
1480.134	3.401	842538	REC_EVENT	1625.0	n/a	5	3	FLUTE	PASS	TRAY	FLUTE	13	[0, 0, 0]	-999	PAL1	1	R1003P
1483.535	0.007	844239	REC_END	n/a	n/a	5	-999	n/a	n/a	n/a	n/a	13	[0, 0, 0]	-999	PAL1	1	R1003P
1483.542	0.275	844242	TEST_ORIENT	n/a	n/a	4	4	SIGN	PASS	SIGN	PANTS	13	[0, 0, 0]	-999	PAL1	1	R1003P
1484.327	4.0	844635	TEST_PROBE	n/a	wordpools/wordpool_EN.txt	4	4	SIGN	PASS	SIGN	PANTS	13	[0, 0, 0]	-999	PAL1	1	R1003P
1484.328	1.748	844635	REC_START	n/a	n/a	4	-999	n/a	PASS	n/a	n/a	13	[0, 0, 0]	-999	PAL1	1	R1003P
1486.076	3.277	845509	REC_EVENT	1748.0	n/a	4	4	SIGN	PASS	SIGN	PANTS	13	[0, 0, 0]	-999	PAL1	1	R1003P
1489.353	0.008	847148	REC_END	n/a	n/a	4	-999	n/a	n/a	n/a	n/a	13	[0, 0, 0]	-999	PAL1	1	R1003P
1489.361	0.275	847152	TEST_ORIENT	n/a	n/a	3	5	HORSE	DESK	DESK	HORSE	13	[0, 0, 0]	-999	PAL1	1	R1003P
1490.278	4.0	847610	TEST_PROBE	n/a	wordpools/wordpool_EN.txt	3	5	HORSE	DESK	DESK	HORSE	13	[0, 0, 0]	-999	PAL1	1	R1003P
1490.278	1.501	847610	REC_START	n/a	n/a	3	-999	n/a	DESK	n/a	n/a	13	[0, 0, 0]	-999	PAL1	1	R1003P
1491.779	3.516	848361	REC_EVENT	1501.0	n/a	3	5	HORSE	DESK	DESK	HORSE	13	[0, 0, 0]	-999	PAL1	1	R1003P
1495.295	0.017	850118	REC_END	n/a	n/a	3	-999	n/a	n/a	n/a	n/a	13	[0, 0, 0]	-999	PAL1	1	R1003P
1495.312	0.275	850127	TEST_ORIENT	n/a	n/a	2	6	GEESE	ROAD	GEESE	WOOD	13	[0, 0, 0]	-999	PAL1	1	R1003P
1496.213	4.0	850577	TEST_PROBE	n/a	wordpools/wordpool_EN.txt	2	6	GEESE	ROAD	GEESE	WOOD	13	[0, 0, 0]	-999	PAL1	1	R1003P
1496.213	2.587	850577	REC_START	n/a	n/a	2	-999	n/a	ROAD	n/a	n/a	13	[0, 0, 0]	-999	PAL1	1	R1003P
1498.8	2.43	851871	REC_EVENT	2587.0	n/a	2	6	GEESE	ROAD	GEESE	WOOD	13	[0, 0, 0]	-999	PAL1	1	R1003P
1501.23	1.066	853086	REC_END	n/a	n/a	2	-999	n/a	n/a	n/a	n/a	13	[0, 0, 0]	-999	PAL1	1	R1003P
1502.296	10.453	853619	ENCODING_START	n/a	n/a	0	-999	n/a	n/a	n/a	n/a	14	[0, 0, 0]	-999	PAL1	1	R1003P
1512.749	0.275	858845	STUDY_ORIENT	n/a	n/a	1	1	LAMB	PASS	LAMB	BRIDGE	14	[0, 0, 0]	-999	PAL1	1	R1003P
1513.749	4.0	859345	STUDY_PAIR	n/a	wordpools/wordpool_EN.txt	1	1	LAMB	PASS	LAMB	BRIDGE	14	[0, 0, 0]	-999	PAL1	1	R1003P
1518.767	0.275	861854	STUDY_ORIENT	n/a	n/a	2	2	LAWN	CHAIR	LAWN	PEARL	14	[0, 0, 0]	-999	PAL1	1	R1003P
1519.684	4.0	862312	STUDY_PAIR	n/a	wordpools/wordpool_EN.txt	2	2	LAWN	CHAIR	LAWN	PEARL	14	[0, 0, 0]	-999	PAL1	1	R1003P
1524.718	0.275	864829	STUDY_ORIENT	n/a	n/a	3	5	CLIFF	PASS	WEB	CLIFF	14	[0, 0, 0]	-999	PAL1	1	R1003P
1525.551	4.0	865246	STUDY_PAIR	n/a	wordpools/wordpool_EN.txt	3	5	CLIFF	PASS	WEB	CLIFF	14	[0, 0, 0]	-999	PAL1	1	R1003P
1530.585	0.275	867763	STUDY_ORIENT	n/a	n/a	4	6	BOX	PASS	SHARK	BOX	14	[0, 0, 0]	-999	PAL1	1	R1003P
1531.369	4.0	868155	STUDY_PAIR	n/a	wordpools/wordpool_EN.txt	4	6	BOX	PASS	SHARK	BOX	14	[0, 0, 0]	-999	PAL1	1	R1003P
1536.387	0.275	870663	STUDY_ORIENT	n/a	n/a	5	3	HEART	BURN	CAKE	HEART	14	[0, 0, 0]	-999	PAL1	1	R1003P
1537.304	4.0	871122	STUDY_PAIR	n/a	wordpools/wordpool_EN.txt	5	3	HEART	BURN	CAKE	HEART	14	[0, 0, 0]	-999	PAL1	1	R1003P
1542.338	0.275	873639	STUDY_ORIENT	n/a	n/a	6	4	BOOK	DESK	BOOK	BAG	14	[0, 0, 0]	-999	PAL1	1	R1003P
1543.255	4.0	874097	STUDY_PAIR	n/a	wordpools/wordpool_EN.txt	6	4	BOOK	DESK	BOOK	BAG	14	[0, 0, 0]	-999	PAL1	1	R1003P
1547.273	0.999	876106	START	n/a	n/a	-999	-999	n/a	n/a	n/a	n/a	14	[-999, -999, -999]	-999	PAL1	1	R1003P
1548.272	0.017	876606	MATH_START	n/a	n/a	-999	-999	n/a	n/a	n/a	n/a	14	[0, 0, 0]	-999	PAL1	1	R1003P
1548.289	7.435	876614	PROB	7407.0	n/a	-999	-999	n/a	n/a	n/a	n/a	14	[3, 4, 8]	15	PAL1	1	R1003P
1555.724	8.002	880331	PROB	7980.0	n/a	-999	-999	n/a	n/a	n/a	n/a	14	[6, 7, 8]	21	PAL1	1	R1003P
1563.726	4.01	884332	PROB	4010.0	n/a	-999	-999	n/a	n/a	n/a	n/a	14	[5, 3, 3]	11	PAL1	1	R1003P
1567.736	0.007	886337	STOP	n/a	n/a	-999	-999	n/a	n/a	n/a	n/a	14	[-999, -999, -999]	-999	PAL1	1	R1003P
1567.743	0.0	886341	MATH_END	n/a	n/a	-999	-999	n/a	n/a	n/a	n/a	14	[0, 0, 0]	-999	PAL1	1	R1003P
1567.743	0.017	886341	TEST_START	n/a	n/a	-999	-999	n/a	n/a	n/a	n/a	14	[0, 0, 0]	-999	PAL1	1	R1003P
1567.76	0.275	886349	TEST_ORIENT	n/a	n/a	1	1	LAMB	PASS	LAMB	BRIDGE	14	[0, 0, 0]	-999	PAL1	1	R1003P
1568.625	4.0	886782	TEST_PROBE	n/a	wordpools/wordpool_EN.txt	1	1	LAMB	PASS	LAMB	BRIDGE	14	[0, 0, 0]	-999	PAL1	1	R1003P
1568.626	2.242	886782	REC_START	n/a	n/a	1	-999	n/a	PASS	n/a	n/a	14	[0, 0, 0]	-999	PAL1	1	R1003P
1570.868	2.766	887903	REC_EVENT	2242.0	n/a	1	1	LAMB	PASS	LAMB	BRIDGE	14	[0, 0, 0]	-999	PAL1	1	R1003P
1573.634	0.009	889286	REC_END	n/a	n/a	1	-999	n/a	n/a	n/a	n/a	14	[0, 0, 0]	-999	PAL1	1	R1003P
1573.643	0.275	889290	TEST_ORIENT	n/a	n/a	2	2	LAWN	CHAIR	LAWN	PEARL	14	[0, 0, 0]	-999	PAL1	1	R1003P
1574.428	0.0	889683	REC_START	n/a	n/a	2	-999	n/a	CHAIR	n/a	n/a	14	[0, 0, 0]	-999	PAL1	1	R1003P
1574.428	4.0	889683	TEST_PROBE	n/a	wordpools/wordpool_EN.txt	2	2	LAWN	CHAIR	LAWN	PEARL	14	[0, 0, 0]	-999	PAL1	1	R1003P
1576.39	3.055	890664	REC_EVENT	1962.0	n/a	2	2	LAWN	CHAIR	LAWN	PEARL	14	[0, 0, 0]	-999	PAL1	1	R1003P
1579.445	0.017	892191	REC_END	n/a	n/a	2	-999	n/a	n/a	n/a	n/a	14	[0, 0, 0]	-999	PAL1	1	R1003P
1579.462	0.275	892200	TEST_ORIENT	n/a	n/a	5	3	HEART	BURN	CAKE	HEART	14	[0, 0, 0]	-999	PAL1	1	R1003P
1580.312	4.0	892625	TEST_PROBE	n/a	wordpools/wordpool_EN.txt	5	3	HEART	BURN	CAKE	HEART	14	[0, 0, 0]	-999	PAL1	1	R1003P
1580.313	2.854	892625	REC_START	n/a	n/a	5	-999	n/a	BURN	n/a	n/a	14	[0, 0, 0]	-999	PAL1	1	R1003P
1583.167	2.154	894052	REC_EVENT	2854.0	n/a	5	3	HEART	BURN	CAKE	HEART	14	[0, 0, 0]	-999	PAL1	1	R1003P
1585.321	0.009	895129	REC_END	n/a	n/a	5	-999	n/a	n/a	n/a	n/a	14	[0, 0, 0]	-999	PAL1	1	R1003P
1585.33	0.275	895134	TEST_ORIENT	n/a	n/a	6	4	BOOK	DESK	BOOK	BAG	14	[0, 0, 0]	-999	PAL1	1	R1003P
1586.297	4.0	895617	TEST_PROBE	n/a	wordpools/wordpool_EN.txt	6	4	BOOK	DESK	BOOK	BAG	14	[0, 0, 0]	-999	PAL1	1	R1003P
1586.297	2.998	895617	REC_START	n/a	n/a	6	-999	n/a	DESK	n/a	n/a	14	[0, 0, 0]	-999	PAL1	1	R1003P
1589.295	2.027	897116	REC_EVENT	2998.0	n/a	6	4	BOOK	DESK	BOOK	BAG	14	[0, 0, 0]	-999	PAL1	1	R1003P
1591.322	0.009	898129	REC_END	n/a	n/a	6	-999	n/a	n/a	n/a	n/a	14	[0, 0, 0]	-999	PAL1	1	R1003P
1591.331	0.275	898134	TEST_ORIENT	n/a	n/a	3	5	CLIFF	PASS	WEB	CLIFF	14	[0, 0, 0]	-999	PAL1	1	R1003P
1592.247	4.0	898592	TEST_PROBE	n/a	wordpools/wordpool_EN.txt	3	5	CLIFF	PASS	WEB	CLIFF	14	[0, 0, 0]	-999	PAL1	1	R1003P
1592.248	1.364	898592	REC_START	n/a	n/a	3	-999	n/a	PASS	n/a	n/a	14	[0, 0, 0]	-999	PAL1	1	R1003P
1593.612	3.636	899274	REC_EVENT	1364.0	n/a	3	5	CLIFF	PASS	WEB	CLIFF	14	[0, 0, 0]	-999	PAL1	1	R1003P
1597.248	0.017	901092	REC_END	n/a	n/a	3	-999	n/a	n/a	n/a	n/a	14	[0, 0, 0]	-999	PAL1	1	R1003P
1597.265	0.275	901101	TEST_ORIENT	n/a	n/a	4	6	BOX	PASS	SHARK	BOX	14	[0, 0, 0]	-999	PAL1	1	R1003P
1598.149	4.0	901543	TEST_PROBE	n/a	wordpools/wordpool_EN.txt	4	6	BOX	PASS	SHARK	BOX	14	[0, 0, 0]	-999	PAL1	1	R1003P
1598.15	1.146	901543	REC_START	n/a	n/a	4	-999	n/a	PASS	n/a	n/a	14	[0, 0, 0]	-999	PAL1	1	R1003P
1599.296	3.87	902116	REC_EVENT	1146.0	n/a	4	6	BOX	PASS	SHARK	BOX	14	[0, 0, 0]	-999	PAL1	1	R1003P
1603.166	1.018	904051	REC_END	n/a	n/a	4	-999	n/a	n/a	n/a	n/a	14	[0, 0, 0]	-999	PAL1	1	R1003P
1604.184	10.45	904560	ENCODING_START	n/a	n/a	0	-999	n/a	n/a	n/a	n/a	15	[0, 0, 0]	-999	PAL1	1	R1003P
1614.634	0.275	909785	STUDY_ORIENT	n/a	n/a	1	5	CORD	PASS	CROW	CORD	15	[0, 0, 0]	-999	PAL1	1	R1003P
1615.485	4.0	910210	STUDY_PAIR	n/a	wordpools/wordpool_EN.txt	1	5	CORD	PASS	CROW	CORD	15	[0, 0, 0]	-999	PAL1	1	R1003P
1620.519	0.275	912727	STUDY_ORIENT	n/a	n/a	2	2	STOVE	ICE	ROAD	STOVE	15	[0, 0, 0]	-999	PAL1	1	R1003P
1621.486	4.0	913211	STUDY_PAIR	n/a	wordpools/wordpool_EN.txt	2	2	STOVE	ICE	ROAD	STOVE	15	[0, 0, 0]	-999	PAL1	1	R1003P
1626.52	0.275	915728	STUDY_ORIENT	n/a	n/a	3	3	ROOT	PASS	STONE	ROOT	15	[0, 0, 0]	-999	PAL1	1	R1003P
1627.355	4.0	916145	STUDY_PAIR	n/a	wordpools/wordpool_EN.txt	3	3	ROOT	PASS	STONE	ROOT	15	[0, 0, 0]	-999	PAL1	1	R1003P
1632.389	0.275	918662	STUDY_ORIENT	n/a	n/a	4	6	JEEP	PASS	FACE	JEEP	15	[0, 0, 0]	-999	PAL1	1	R1003P
1633.372	4.0	919153	STUDY_PAIR	n/a	wordpools/wordpool_EN.txt	4	6	JEEP	PASS	FACE	JEEP	15	[0, 0, 0]	-999	PAL1	1	R1003P
1638.39	0.275	921662	STUDY_ORIENT	n/a	n/a	5	1	CHIEF	TEA	CHIEF	ICE	15	[0, 0, 0]	-999	PAL1	1	R1003P
1639.407	4.0	922171	STUDY_PAIR	n/a	wordpools/wordpool_EN.txt	5	1	CHIEF	TEA	CHIEF	ICE	15	[0, 0, 0]	-999	PAL1	1	R1003P
1644.441	0.275	924688	STUDY_ORIENT	n/a	n/a	6	4	SQUARE	ROOT	SQUARE	FOX	15	[0, 0, 0]	-999	PAL1	1	R1003P
1645.391	4.0	925163	STUDY_PAIR	n/a	wordpools/wordpool_EN.txt	6	4	SQUARE	ROOT	SQUARE	FOX	15	[0, 0, 0]	-999	PAL1	1	R1003P
1649.392	1.0	927163	START	n/a	n/a	-999	-999	n/a	n/a	n/a	n/a	15	[-999, -999, -999]	-999	PAL1	1	R1003P
1650.392	0.017	927663	MATH_START	n/a	n/a	-999	-999	n/a	n/a	n/a	n/a	15	[0, 0, 0]	-999	PAL1	1	R1003P
1650.409	3.934	927671	PROB	3903.0	n/a	-999	-999	n/a	n/a	n/a	n/a	15	[7, 3, 7]	17	PAL1	1	R1003P
1654.343	4.868	929638	PROB	4833.0	n/a	-999	-999	n/a	n/a	n/a	n/a	15	[2, 4, 5]	11	PAL1	1	R1003P
1659.211	7.084	932072	PROB	7061.0	n/a	-999	-999	n/a	n/a	n/a	n/a	15	[5, 1, 6]	12	PAL1	1	R1003P
1666.295	2.918	935614	PROB	2889.0	n/a	-999	-999	n/a	n/a	n/a	n/a	15	[9, 5, 5]	19	PAL1	1	R1003P
1669.213	5.507	937073	PROB	5507.0	n/a	-999	-999	n/a	n/a	n/a	n/a	15	[4, 9, 8]	21	PAL1	1	R1003P
1674.72	0.01	939826	STOP	n/a	n/a	-999	-999	n/a	n/a	n/a	n/a	15	[-999, -999, -999]	-999	PAL1	1	R1003P
1674.73	0.0	939831	MATH_END	n/a	n/a	-999	-999	n/a	n/a	n/a	n/a	15	[0, 0, 0]	-999	PAL1	1	R1003P
1674.73	0.017	939831	TEST_START	n/a	n/a	-999	-999	n/a	n/a	n/a	n/a	15	[0, 0, 0]	-999	PAL1	1	R1003P
1674.747	0.275	939840	TEST_ORIENT	n/a	n/a	5	1	CHIEF	TEA	CHIEF	ICE	15	[0, 0, 0]	-999	PAL1	1	R1003P
1675.731	4.0	940332	TEST_PROBE	n/a	wordpools/wordpool_EN.txt	5	1	CHIEF	TEA	CHIEF	ICE	15	[0, 0, 0]	-999	PAL1	1	R1003P
1675.733	1.778	940333	REC_START	n/a	n/a	5	-999	n/a	TEA	n/a	n/a	15	[0, 0, 0]	-999	PAL1	1	R1003P
1677.511	3.246	941222	REC_EVENT	1778.0	n/a	5	1	CHIEF	TEA	CHIEF	ICE	15	[0, 0, 0]	-999	PAL1	1	R1003P
1680.757	0.008	942845	REC_END	n/a	n/a	5	-999	n/a	n/a	n/a	n/a	15	[0, 0, 0]	-999	PAL1	1	R1003P
1680.765	0.275	942849	TEST_ORIENT	n/a	n/a	2	2	STOVE	ICE	ROAD	STOVE	15	[0, 0, 0]	-999	PAL1	1	R1003P
1681.748	4.0	943340	TEST_PROBE	n/a	wordpools/wordpool_EN.txt	2	2	STOVE	ICE	ROAD	STOVE	15	[0, 0, 0]	-999	PAL1	1	R1003P
1681.749	2.817	943341	REC_START	n/a	n/a	2	-999	n/a	ICE	n/a	n/a	15	[0, 0, 0]	-999	PAL1	1	R1003P
1684.566	2.192	944749	REC_EVENT	2817.0	n/a	2	2	STOVE	ICE	ROAD	STOVE	15	[0, 0, 0]	-999	PAL1	1	R1003P
1686.758	0.008	945845	REC_END	n/a	n/a	2	-999	n/a	n/a	n/a	n/a	15	[0, 0, 0]	-999	PAL1	1	R1003P
1686.766	0.275	945849	TEST_ORIENT	n/a	n/a	3	3	ROOT	PASS	STONE	ROOT	15	[0, 0, 0]	-999	PAL1	1	R1003P
1687.565	4.0	946249	TEST_PROBE	n/a	wordpools/wordpool_EN.txt	3	3	ROOT	PASS	STONE	ROOT	15	[0, 0, 0]	-999	PAL1	1	R1003P
1687.566	1.642	946249	REC_START	n/a	n/a	3	-999	n/a	PASS	n/a	n/a	15	[0, 0, 0]	-999	PAL1	1	R1003P
1689.208	3.367	947070	REC_EVENT	1642.0	n/a	3	3	ROOT	PASS	STONE	ROOT	15	[0, 0, 0]	-999	PAL1	1	R1003P
1692.575	0.008	948753	REC_END	n/a	n/a	3	-999	n/a	n/a	n/a	n/a	15	[0, 0, 0]	-999	PAL1	1	R1003P
1692.583	0.275	948757	TEST_ORIENT	n/a	n/a	6	4	SQUARE	ROOT	SQUARE	FOX	15	[0, 0, 0]	-999	PAL1	1	R1003P
1693.583	4.0	949257	TEST_PROBE	n/a	wordpools/wordpool_EN.txt	6	4	SQUARE	ROOT	SQUARE	FOX	15	[0, 0, 0]	-999	PAL1	1	R1003P
1693.584	1.855	949258	REC_START	n/a	n/a	6	-999	n/a	ROOT	n/a	n/a	15	[0, 0, 0]	-999	PAL1	1	R1003P
1695.439	3.161	950185	REC_EVENT	1855.0	n/a	6	4	SQUARE	ROOT	SQUARE	FOX	15	[0, 0, 0]	-999	PAL1	1	R1003P
1698.6	0.017	951766	REC_END	n/a	n/a	6	-999	n/a	n/a	n/a	n/a	15	[0, 0, 0]	-999	PAL1	1	R1003P
1698.617	0.275	951774	TEST_ORIENT	n/a	n/a	1	5	CORD	PASS	CROW	CORD	15	[0, 0, 0]	-999	PAL1	1	R1003P
1699.55	4.0	952241	TEST_PROBE	n/a	wordpools/wordpool_EN.txt	1	5	CORD	PASS	CROW	CORD	15	[0, 0, 0]	-999	PAL1	1	R1003P
1699.551	1.365	952241	REC_START	n/a	n/a	1	-999	n/a	PASS	n/a	n/a	15	[0, 0, 0]	-999	PAL1	1	R1003P
1700.916	3.644	952924	REC_EVENT	1365.0	n/a	1	5	CORD	PASS	CROW	CORD	15	[0, 0, 0]	-999	PAL1	1	R1003P
1704.56	0.009	954746	REC_END	n/a	n/a	1	-999	n/a	n/a	n/a	n/a	15	[0, 0, 0]	-999	PAL1	1	R1003P
1704.569	0.275	954750	TEST_ORIENT	n/a	n/a	4	6	JEEP	PASS	FACE	JEEP	15	[0, 0, 0]	-999	PAL1	1	R1003P
1705.386	4.0	955159	TEST_PROBE	n/a	wordpools/wordpool_EN.txt	4	6	JEEP	PASS	FACE	JEEP	15	[0, 0, 0]	-999	PAL1	1	R1003P
1705.387	1.456	955159	REC_START	n/a	n/a	4	-999	n/a	PASS	n/a	n/a	15	[0, 0, 0]	-999	PAL1	1	R1003P
1706.843	3.544	955887	REC_EVENT	1456.0	n/a	4	6	JEEP	PASS	FACE	JEEP	15	[0, 0, 0]	-999	PAL1	1	R1003P
1710.387	1.1	957659	REC_END	n/a	n/a	4	-999	n/a	n/a	n/a	n/a	15	[0, 0, 0]	-999	PAL1	1	R1003P
1711.487	10.452	958209	ENCODING_START	n/a	n/a	0	-999	n/a	n/a	n/a	n/a	16	[0, 0, 0]	-999	PAL1	1	R1003P
1721.939	0.275	963435	STUDY_ORIENT	n/a	n/a	1	5	VEST	PASS	PET	VEST	16	[0, 0, 0]	-999	PAL1	1	R1003P
1722.856	4.0	963893	STUDY_PAIR	n/a	wordpools/wordpool_EN.txt	1	5	VEST	PASS	PET	VEST	16	[0, 0, 0]	-999	PAL1	1	R1003P
1727.874	0.275	966402	STUDY_ORIENT	n/a	n/a	2	2	KITE	CLOUD	KITE	PIE	16	[0, 0, 0]	-999	PAL1	1	R1003P
1728.673	4.0	966801	STUDY_PAIR	n/a	wordpools/wordpool_EN.txt	2	2	KITE	CLOUD	KITE	PIE	16	[0, 0, 0]	-999	PAL1	1	R1003P
1733.692	0.275	969311	STUDY_ORIENT	n/a	n/a	3	3	DOG	PIT	DOG	PIT	16	[0, 0, 0]	-999	PAL1	1	R1003P
1734.641	4.0	969785	STUDY_PAIR	n/a	wordpools/wordpool_EN.txt	3	3	DOG	PIT	DOG	PIT	16	[0, 0, 0]	-999	PAL1	1	R1003P
1739.675	0.275	972302	STUDY_ORIENT	n/a	n/a	4	4	TRAIN	TRACK	TRAIN	ROOF	16	[0, 0, 0]	-999	PAL1	1	R1003P
1740.625	4.0	972777	STUDY_PAIR	n/a	wordpools/wordpool_EN.txt	4	4	TRAIN	TRACK	TRAIN	ROOF	16	[0, 0, 0]	-999	PAL1	1	R1003P
1745.643	0.275	975286	STUDY_ORIENT	n/a	n/a	5	1	CLOUD	PASS	CLOUD	ARK	16	[0, 0, 0]	-999	PAL1	1	R1003P
1746.444	4.0	975687	STUDY_PAIR	n/a	wordpools/wordpool_EN.txt	5	1	CLOUD	PASS	CLOUD	ARK	16	[0, 0, 0]	-999	PAL1	1	R1003P
1751.462	0.275	978195	STUDY_ORIENT	n/a	n/a	6	6	COUCH	PASS	CONE	COUCH	16	[0, 0, 0]	-999	PAL1	1	R1003P
1752.278	4.0	978603	STUDY_PAIR	n/a	wordpools/wordpool_EN.txt	6	6	COUCH	PASS	CONE	COUCH	16	[0, 0, 0]	-999	PAL1	1	R1003P
1756.28	0.999	980604	START	n/a	n/a	-999	-999	n/a	n/a	n/a	n/a	16	[-999, -999, -999]	-999	PAL1	1	R1003P
1757.279	0.017	981104	MATH_START	n/a	n/a	-999	-999	n/a	n/a	n/a	n/a	16	[0, 0, 0]	-999	PAL1	1	R1003P
1757.296	3.084	981112	PROB	3056.0	n/a	-999	-999	n/a	n/a	n/a	n/a	16	[6, 4, 7]	17	PAL1	1	R1003P
1760.38	2.917	982654	PROB	2892.0	n/a	-999	-999	n/a	n/a	n/a	n/a	16	[2, 1, 2]	5	PAL1	1	R1003P
1763.297	6.602	984113	PROB	6583.0	n/a	-999	-999	n/a	n/a	n/a	n/a	16	[8, 7, 7]	22	PAL1	1	R1003P
1769.899	3.434	987413	PROB	3413.0	n/a	-999	-999	n/a	n/a	n/a	n/a	16	[3, 6, 8]	17	PAL1	1	R1003P
1773.333	3.691	989130	PROB	3691.0	n/a	-999	-999	n/a	n/a	n/a	n/a	16	[3, 2, 5]	10	PAL1	1	R1003P
1777.024	0.009	990976	STOP	n/a	n/a	-999	-999	n/a	n/a	n/a	n/a	16	[-999, -999, -999]	-999	PAL1	1	R1003P
1777.033	0.0	990980	MATH_END	n/a	n/a	-999	-999	n/a	n/a	n/a	n/a	16	[0, 0, 0]	-999	PAL1	1	R1003P
1777.033	0.017	990980	TEST_START	n/a	n/a	-999	-999	n/a	n/a	n/a	n/a	16	[0, 0, 0]	-999	PAL1	1	R1003P
1777.05	0.275	990989	TEST_ORIENT	n/a	n/a	5	1	CLOUD	PASS	CLOUD	ARK	16	[0, 0, 0]	-999	PAL1	1	R1003P
1777.95	4.0	991439	TEST_PROBE	n/a	wordpools/wordpool_EN.txt	5	1	CLOUD	PASS	CLOUD	ARK	16	[0, 0, 0]	-999	PAL1	1	R1003P
1777.951	2.594	991439	REC_START	n/a	n/a	5	-999	n/a	PASS	n/a	n/a	16	[0, 0, 0]	-999	PAL1	1	R1003P
1780.545	2.415	992736	REC_EVENT	2594.0	n/a	5	1	CLOUD	PASS	CLOUD	ARK	16	[0, 0, 0]	-999	PAL1	1	R1003P
1782.96	0.008	993944	REC_END	n/a	n/a	5	-999	n/a	n/a	n/a	n/a	16	[0, 0, 0]	-999	PAL1	1	R1003P
1782.968	0.275	993948	TEST_ORIENT	n/a	n/a	2	2	KITE	CLOUD	KITE	PIE	16	[0, 0, 0]	-999	PAL1	1	R1003P
1783.835	4.0	994381	TEST_PROBE	n/a	wordpools/wordpool_EN.txt	2	2	KITE	CLOUD	KITE	PIE	16	[0, 0, 0]	-999	PAL1	1	R1003P
1783.835	2.756	994381	REC_START	n/a	n/a	2	-999	n/a	CLOUD	n/a	n/a	16	[0, 0, 0]	-999	PAL1	1	R1003P
1786.591	2.261	995759	REC_EVENT	2756.0	n/a	2	2	KITE	CLOUD	KITE	PIE	16	[0, 0, 0]	-999	PAL1	1	R1003P
1788.852	0.017	996889	REC_END	n/a	n/a	2	-999	n/a	n/a	n/a	n/a	16	[0, 0, 0]	-999	PAL1	1	R1003P
1788.869	0.275	996898	TEST_ORIENT	n/a	n/a	3	3	DOG	PIT	DOG	PIT	16	[0, 0, 0]	-999	PAL1	1	R1003P
1789.852	4.0	997389	TEST_PROBE	n/a	wordpools/wordpool_EN.txt	3	3	DOG	PIT	DOG	PIT	16	[0, 0, 0]	-999	PAL1	1	R1003P
1789.853	1.105	997390	REC_START	n/a	n/a	3	-999	n/a	PIT	n/a	n/a	16	[0, 0, 0]	-999	PAL1	1	R1003P
1790.958	3.904	997942	REC_EVENT	1105.0	n/a	3	3	DOG	PIT	DOG	PIT	16	[0, 0, 0]	-999	PAL1	1	R1003P
1794.862	0.008	999894	REC_END	n/a	n/a	3	-999	n/a	n/a	n/a	n/a	16	[0, 0, 0]	-999	PAL1	1	R1003P
1794.87	0.275	999898	TEST_ORIENT	n/a	n/a	4	4	TRAIN	TRACK	TRAIN	ROOF	16	[0, 0, 0]	-999	PAL1	1	R1003P
1795.82	4.0	1000373	TEST_PROBE	n/a	wordpools/wordpool_EN.txt	4	4	TRAIN	TRACK	TRAIN	ROOF	16	[0, 0, 0]	-999	PAL1	1	R1003P
1795.821	1.605	1000374	REC_START	n/a	n/a	4	-999	n/a	TRACK	n/a	n/a	16	[0, 0, 0]	-999	PAL1	1	R1003P
1797.426	3.395	1001176	REC_EVENT	1605.0	n/a	4	4	TRAIN	TRACK	TRAIN	ROOF	16	[0, 0, 0]	-999	PAL1	1	R1003P
1800.821	0.017	1002874	REC_END	n/a	n/a	4	-999	n/a	n/a	n/a	n/a	16	[0, 0, 0]	-999	PAL1	1	R1003P
1800.838	0.275	1002882	TEST_ORIENT	n/a	n/a	1	5	VEST	PASS	PET	VEST	16	[0, 0, 0]	-999	PAL1	1	R1003P
1801.705	4.0	1003316	TEST_PROBE	n/a	wordpools/wordpool_EN.txt	1	5	VEST	PASS	PET	VEST	16	[0, 0, 0]	-999	PAL1	1	R1003P
1801.706	1.819	1003316	REC_START	n/a	n/a	1	-999	n/a	PASS	n/a	n/a	16	[0, 0, 0]	-999	PAL1	1	R1003P
1803.525	3.197	1004226	REC_EVENT	1819.0	n/a	1	5	VEST	PASS	PET	VEST	16	[0, 0, 0]	-999	PAL1	1	R1003P
1806.722	0.017	1005824	REC_END	n/a	n/a	1	-999	n/a	n/a	n/a	n/a	16	[0, 0, 0]	-999	PAL1	1	R1003P
1806.739	0.275	1005832	TEST_ORIENT	n/a	n/a	6	6	COUCH	PASS	CONE	COUCH	16	[0, 0, 0]	-999	PAL1	1	R1003P
1807.655	4.0	1006290	TEST_PROBE	n/a	wordpools/wordpool_EN.txt	6	6	COUCH	PASS	CONE	COUCH	16	[0, 0, 0]	-999	PAL1	1	R1003P
1807.655	1.998	1006290	REC_START	n/a	n/a	6	-999	n/a	PASS	n/a	n/a	16	[0, 0, 0]	-999	PAL1	1	R1003P
1809.653	3.02	1007289	REC_EVENT	1998.0	n/a	6	6	COUCH	PASS	CONE	COUCH	16	[0, 0, 0]	-999	PAL1	1	R1003P
1812.673	1.087	1008799	REC_END	n/a	n/a	6	-999	n/a	n/a	n/a	n/a	16	[0, 0, 0]	-999	PAL1	1	R1003P
1813.76	10.449	1009343	ENCODING_START	n/a	n/a	0	-999	n/a	n/a	n/a	n/a	17	[0, 0, 0]	-999	PAL1	1	R1003P
1824.209	0.275	1014567	STUDY_ORIENT	n/a	n/a	1	5	GOAT	SPONGE	GOAT	BADGE	17	[0, 0, 0]	-999	PAL1	1	R1003P
1825.076	4.0	1015001	STUDY_PAIR	n/a	wordpools/wordpool_EN.txt	1	5	GOAT	SPONGE	GOAT	BADGE	17	[0, 0, 0]	-999	PAL1	1	R1003P
1830.11	0.275	1017517	STUDY_ORIENT	n/a	n/a	2	2	NOSE	PASS	NOSE	BENCH	17	[0, 0, 0]	-999	PAL1	1	R1003P
1831.111	4.0	1018018	STUDY_PAIR	n/a	wordpools/wordpool_EN.txt	2	2	NOSE	PASS	NOSE	BENCH	17	[0, 0, 0]	-999	PAL1	1	R1003P
1836.145	0.275	1020535	STUDY_ORIENT	n/a	n/a	3	1	TOAST	PASS	TOAST	BUSH	17	[0, 0, 0]	-999	PAL1	1	R1003P
1836.928	4.0	1020926	STUDY_PAIR	n/a	wordpools/wordpool_EN.txt	3	1	TOAST	PASS	TOAST	BUSH	17	[0, 0, 0]	-999	PAL1	1	R1003P
1841.946	0.275	1023435	STUDY_ORIENT	n/a	n/a	4	6	MOLE	PASS	MOLE	SPONGE	17	[0, 0, 0]	-999	PAL1	1	R1003P
1842.813	4.0	1023869	STUDY_PAIR	n/a	wordpools/wordpool_EN.txt	4	6	MOLE	PASS	MOLE	SPONGE	17	[0, 0, 0]	-999	PAL1	1	R1003P
1847.847	0.275	1026385	STUDY_ORIENT	n/a	n/a	5	3	RIB	PASS	RIB	SPRING	17	[0, 0, 0]	-999	PAL1	1	R1003P
1848.847	4.0	1026885	STUDY_PAIR	n/a	wordpools/wordpool_EN.txt	5	3	RIB	PASS	RIB	SPRING	17	[0, 0, 0]	-999	PAL1	1	R1003P
1853.865	0.275	1029394	STUDY_ORIENT	n/a	n/a	6	4	NET	PASS	NET	POND	17	[0, 0, 0]	-999	PAL1	1	R1003P
1854.882	4.0	1029903	STUDY_PAIR	n/a	wordpools/wordpool_EN.txt	6	4	NET	PASS	NET	POND	17	[0, 0, 0]	-999	PAL1	1	R1003P
1858.9	0.999	1031912	START	n/a	n/a	-999	-999	n/a	n/a	n/a	n/a	17	[-999, -999, -999]	-999	PAL1	1	R1003P
1859.899	0.017	1032411	MATH_START	n/a	n/a	-999	-999	n/a	n/a	n/a	n/a	17	[0, 0, 0]	-999	PAL1	1	R1003P
1859.916	5.583	1032420	PROB	5563.0	n/a	-999	-999	n/a	n/a	n/a	n/a	17	[4, 5, 1]	10	PAL1	1	R1003P
1865.499	4.969	1035211	PROB	4949.0	n/a	-999	-999	n/a	n/a	n/a	n/a	17	[4, 2, 4]	10	PAL1	1	R1003P
1870.468	4.401	1037695	PROB	4372.0	n/a	-999	-999	n/a	n/a	n/a	n/a	17	[3, 4, 7]	14	PAL1	1	R1003P
1874.869	7.626	1039896	PROB	7626.0	n/a	-999	-999	n/a	n/a	n/a	n/a	17	[3, 7, 9]	19	PAL1	1	R1003P
1882.495	0.008	1043709	STOP	n/a	n/a	-999	-999	n/a	n/a	n/a	n/a	17	[-999, -999, -999]	-999	PAL1	1	R1003P
1882.503	0.0	1043713	MATH_END	n/a	n/a	-999	-999	n/a	n/a	n/a	n/a	17	[0, 0, 0]	-999	PAL1	1	R1003P
1882.503	0.016	1043713	TEST_START	n/a	n/a	-999	-999	n/a	n/a	n/a	n/a	17	[0, 0, 0]	-999	PAL1	1	R1003P
1882.519	0.275	1043721	TEST_ORIENT	n/a	n/a	3	1	TOAST	PASS	TOAST	BUSH	17	[0, 0, 0]	-999	PAL1	1	R1003P
1883.536	4.0	1044229	TEST_PROBE	n/a	wordpools/wordpool_EN.txt	3	1	TOAST	PASS	TOAST	BUSH	17	[0, 0, 0]	-999	PAL1	1	R1003P
1883.539	2.817	1044231	REC_START	n/a	n/a	3	-999	n/a	PASS	n/a	n/a	17	[0, 0, 0]	-999	PAL1	1	R1003P
1886.356	2.181	1045639	REC_EVENT	2817.0	n/a	3	1	TOAST	PASS	TOAST	BUSH	17	[0, 0, 0]	-999	PAL1	1	R1003P
1888.537	0.017	1046729	REC_END	n/a	n/a	3	-999	n/a	n/a	n/a	n/a	17	[0, 0, 0]	-999	PAL1	1	R1003P
1888.554	0.275	1046738	TEST_ORIENT	n/a	n/a	2	2	NOSE	PASS	NOSE	BENCH	17	[0, 0, 0]	-999	PAL1	1	R1003P
1889.504	4.0	1047213	TEST_PROBE	n/a	wordpools/wordpool_EN.txt	2	2	NOSE	PASS	NOSE	BENCH	17	[0, 0, 0]	-999	PAL1	1	R1003P
1889.505	1.89	1047213	REC_START	n/a	n/a	2	-999	n/a	PASS	n/a	n/a	17	[0, 0, 0]	-999	PAL1	1	R1003P
1891.395	3.119	1048158	REC_EVENT	1890.0	n/a	2	2	NOSE	PASS	NOSE	BENCH	17	[0, 0, 0]	-999	PAL1	1	R1003P
1894.514	0.008	1049718	REC_END	n/a	n/a	2	-999	n/a	n/a	n/a	n/a	17	[0, 0, 0]	-999	PAL1	1	R1003P
1894.522	0.275	1049722	TEST_ORIENT	n/a	n/a	5	3	RIB	PASS	RIB	SPRING	17	[0, 0, 0]	-999	PAL1	1	R1003P
1895.555	4.0	1050238	TEST_PROBE	n/a	wordpools/wordpool_EN.txt	5	3	RIB	PASS	RIB	SPRING	17	[0, 0, 0]	-999	PAL1	1	R1003P
1895.556	2.557	1050239	REC_START	n/a	n/a	5	-999	n/a	PASS	n/a	n/a	17	[0, 0, 0]	-999	PAL1	1	R1003P
1898.113	2.452	1051517	REC_EVENT	2557.0	n/a	5	3	RIB	PASS	RIB	SPRING	17	[0, 0, 0]	-999	PAL1	1	R1003P
1900.565	0.008	1052743	REC_END	n/a	n/a	5	-999	n/a	n/a	n/a	n/a	17	[0, 0, 0]	-999	PAL1	1	R1003P
1900.573	0.275	1052747	TEST_ORIENT	n/a	n/a	6	4	NET	PASS	NET	POND	17	[0, 0, 0]	-999	PAL1	1	R1003P
1901.357	4.0	1053139	TEST_PROBE	n/a	wordpools/wordpool_EN.txt	6	4	NET	PASS	NET	POND	17	[0, 0, 0]	-999	PAL1	1	R1003P
1901.358	1.687	1053140	REC_START	n/a	n/a	6	-999	n/a	PASS	n/a	n/a	17	[0, 0, 0]	-999	PAL1	1	R1003P
1903.045	3.323	1053983	REC_EVENT	1687.0	n/a	6	4	NET	PASS	NET	POND	17	[0, 0, 0]	-999	PAL1	1	R1003P
1906.368	0.007	1055644	REC_END	n/a	n/a	6	-999	n/a	n/a	n/a	n/a	17	[0, 0, 0]	-999	PAL1	1	R1003P
1906.375	0.275	1055648	TEST_ORIENT	n/a	n/a	1	5	GOAT	SPONGE	GOAT	BADGE	17	[0, 0, 0]	-999	PAL1	1	R1003P
1907.309	0.0	1056115	REC_START	n/a	n/a	1	-999	n/a	SPONGE	n/a	n/a	17	[0, 0, 0]	-999	PAL1	1	R1003P
1907.309	4.0	1056115	TEST_PROBE	n/a	wordpools/wordpool_EN.txt	1	5	GOAT	SPONGE	GOAT	BADGE	17	[0, 0, 0]	-999	PAL1	1	R1003P
1909.736	2.59	1057328	REC_EVENT	2427.0	n/a	1	5	GOAT	SPONGE	GOAT	BADGE	17	[0, 0, 0]	-999	PAL1	1	R1003P
1912.326	0.017	1058623	REC_END	n/a	n/a	1	-999	n/a	n/a	n/a	n/a	17	[0, 0, 0]	-999	PAL1	1	R1003P
1912.343	0.275	1058632	TEST_ORIENT	n/a	n/a	4	6	MOLE	PASS	MOLE	SPONGE	17	[0, 0, 0]	-999	PAL1	1	R1003P
1913.36	4.0	1059140	TEST_PROBE	n/a	wordpools/wordpool_EN.txt	4	6	MOLE	PASS	MOLE	SPONGE	17	[0, 0, 0]	-999	PAL1	1	R1003P
1913.36	1.916	1059140	REC_START	n/a	n/a	4	-999	n/a	PASS	n/a	n/a	17	[0, 0, 0]	-999	PAL1	1	R1003P
1915.276	3.101	1060098	REC_EVENT	1916.0	n/a	4	6	MOLE	PASS	MOLE	SPONGE	17	[0, 0, 0]	-999	PAL1	1	R1003P
1918.377	1.055	1061649	REC_END	n/a	n/a	4	-999	n/a	n/a	n/a	n/a	17	[0, 0, 0]	-999	PAL1	1	R1003P
1919.432	10.448	1062176	ENCODING_START	n/a	n/a	0	-999	n/a	n/a	n/a	n/a	18	[0, 0, 0]	-999	PAL1	1	R1003P
1929.88	0.275	1067400	STUDY_ORIENT	n/a	n/a	1	3	MOON	PASS	WAVE	MOON	18	[0, 0, 0]	-999	PAL1	1	R1003P
1930.896	4.0	1067908	STUDY_PAIR	n/a	wordpools/wordpool_EN.txt	1	3	MOON	PASS	WAVE	MOON	18	[0, 0, 0]	-999	PAL1	1	R1003P
1935.914	0.275	1070417	STUDY_ORIENT	n/a	n/a	2	4	AXE	LIP	AXE	LIP	18	[0, 0, 0]	-999	PAL1	1	R1003P
1936.898	4.0	1070909	STUDY_PAIR	n/a	wordpools/wordpool_EN.txt	2	4	AXE	LIP	AXE	LIP	18	[0, 0, 0]	-999	PAL1	1	R1003P
1941.932	0.275	1073426	STUDY_ORIENT	n/a	n/a	3	1	STICK	MUD	SPARK	STICK	18	[0, 0, 0]	-999	PAL1	1	R1003P
1942.866	4.0	1073892	STUDY_PAIR	n/a	wordpools/wordpool_EN.txt	3	1	STICK	MUD	SPARK	STICK	18	[0, 0, 0]	-999	PAL1	1	R1003P
1947.9	0.275	1076409	STUDY_ORIENT	n/a	n/a	4	2	LAND	PASS	DOLL	LAND	18	[0, 0, 0]	-999	PAL1	1	R1003P
1948.683	4.0	1076801	STUDY_PAIR	n/a	wordpools/wordpool_EN.txt	4	2	LAND	PASS	DOLL	LAND	18	[0, 0, 0]	-999	PAL1	1	R1003P
1953.701	0.275	1079310	STUDY_ORIENT	n/a	n/a	5	5	CLAY	PASS	SEA	CLAY	18	[0, 0, 0]	-999	PAL1	1	R1003P
1954.5	4.0	1079709	STUDY_PAIR	n/a	wordpools/wordpool_EN.txt	5	5	CLAY	PASS	SEA	CLAY	18	[0, 0, 0]	-999	PAL1	1	R1003P
1959.534	0.275	1082226	STUDY_ORIENT	n/a	n/a	6	6	VINE	PASS	PASTE	VINE	18	[0, 0, 0]	-999	PAL1	1	R1003P
1960.386	4.0	1082652	STUDY_PAIR	n/a	wordpools/wordpool_EN.txt	6	6	VINE	PASS	PASTE	VINE	18	[0, 0, 0]	-999	PAL1	1	R1003P
1964.404	0.999	1084661	START	n/a	n/a	-999	-999	n/a	n/a	n/a	n/a	18	[-999, -999, -999]	-999	PAL1	1	R1003P
1965.403	0.017	1085160	MATH_START	n/a	n/a	-999	-999	n/a	n/a	n/a	n/a	18	[0, 0, 0]	-999	PAL1	1	R1003P
1965.42	3.734	1085169	PROB	3708.0	n/a	-999	-999	n/a	n/a	n/a	n/a	18	[7, 4, 6]	17	PAL1	1	R1003P
1969.154	2.7	1087036	PROB	2678.0	n/a	-999	-999	n/a	n/a	n/a	n/a	18	[9, 2, 1]	12	PAL1	1	R1003P
1971.854	2.901	1088386	PROB	2874.0	n/a	-999	-999	n/a	n/a	n/a	n/a	18	[7, 6, 4]	17	PAL1	1	R1003P
1974.755	7.635	1089836	PROB	7605.0	n/a	-999	-999	n/a	n/a	n/a	n/a	18	[5, 9, 6]	20	PAL1	1	R1003P
1982.39	4.346	1093653	PROB	4346.0	n/a	-999	-999	n/a	n/a	n/a	n/a	18	[6, 8, 6]	20	PAL1	1	R1003P
1986.736	0.005	1095826	STOP	n/a	n/a	-999	-999	n/a	n/a	n/a	n/a	18	[-999, -999, -999]	-999	PAL1	1	R1003P
1986.741	0.0	1095829	MATH_END	n/a	n/a	-999	-999	n/a	n/a	n/a	n/a	18	[0, 0, 0]	-999	PAL1	1	R1003P
1986.741	0.016	1095829	TEST_START	n/a	n/a	-999	-999	n/a	n/a	n/a	n/a	18	[0, 0, 0]	-999	PAL1	1	R1003P
1986.757	0.275	1095837	TEST_ORIENT	n/a	n/a	3	1	STICK	MUD	SPARK	STICK	18	[0, 0, 0]	-999	PAL1	1	R1003P
1987.691	0.0	1096304	REC_START	n/a	n/a	3	-999	n/a	MUD	n/a	n/a	18	[0, 0, 0]	-999	PAL1	1	R1003P
1987.691	4.0	1096304	TEST_PROBE	n/a	wordpools/wordpool_EN.txt	3	1	STICK	MUD	SPARK	STICK	18	[0, 0, 0]	-999	PAL1	1	R1003P
1990.028	2.689	1097472	REC_EVENT	2337.0	n/a	3	1	STICK	MUD	SPARK	STICK	18	[0, 0, 0]	-999	PAL1	1	R1003P
1992.717	0.008	1098817	REC_END	n/a	n/a	3	-999	n/a	n/a	n/a	n/a	18	[0, 0, 0]	-999	PAL1	1	R1003P
1992.725	0.275	1098821	TEST_ORIENT	n/a	n/a	4	2	LAND	PASS	DOLL	LAND	18	[0, 0, 0]	-999	PAL1	1	R1003P
1993.574	4.0	1099245	TEST_PROBE	n/a	wordpools/wordpool_EN.txt	4	2	LAND	PASS	DOLL	LAND	18	[0, 0, 0]	-999	PAL1	1	R1003P
1993.575	1.336	1099246	REC_START	n/a	n/a	4	-999	n/a	PASS	n/a	n/a	18	[0, 0, 0]	-999	PAL1	1	R1003P
1994.911	3.673	1099914	REC_EVENT	1336.0	n/a	4	2	LAND	PASS	DOLL	LAND	18	[0, 0, 0]	-999	PAL1	1	R1003P
1998.584	0.008	1101750	REC_END	n/a	n/a	4	-999	n/a	n/a	n/a	n/a	18	[0, 0, 0]	-999	PAL1	1	R1003P
1998.592	0.275	1101754	TEST_ORIENT	n/a	n/a	1	3	MOON	PASS	WAVE	MOON	18	[0, 0, 0]	-999	PAL1	1	R1003P
1999.41	0.0	1102163	REC_START	n/a	n/a	1	-999	n/a	PASS	n/a	n/a	18	[0, 0, 0]	-999	PAL1	1	R1003P
1999.41	4.0	1102163	TEST_PROBE	n/a	wordpools/wordpool_EN.txt	1	3	MOON	PASS	WAVE	MOON	18	[0, 0, 0]	-999	PAL1	1	R1003P
2001.336	3.091	1103126	REC_EVENT	1926.0	n/a	1	3	MOON	PASS	WAVE	MOON	18	[0, 0, 0]	-999	PAL1	1	R1003P
2004.427	0.017	1104671	REC_END	n/a	n/a	1	-999	n/a	n/a	n/a	n/a	18	[0, 0, 0]	-999	PAL1	1	R1003P
2004.444	0.275	1104680	TEST_ORIENT	n/a	n/a	2	4	AXE	LIP	AXE	LIP	18	[0, 0, 0]	-999	PAL1	1	R1003P
2005.244	4.0	1105080	TEST_PROBE	n/a	wordpools/wordpool_EN.txt	2	4	AXE	LIP	AXE	LIP	18	[0, 0, 0]	-999	PAL1	1	R1003P
2005.245	2.164	1105080	REC_START	n/a	n/a	2	-999	n/a	LIP	n/a	n/a	18	[0, 0, 0]	-999	PAL1	1	R1003P
2007.409	2.836	1106162	REC_EVENT	2164.0	n/a	2	4	AXE	LIP	AXE	LIP	18	[0, 0, 0]	-999	PAL1	1	R1003P
2010.245	0.017	1107580	REC_END	n/a	n/a	2	-999	n/a	n/a	n/a	n/a	18	[0, 0, 0]	-999	PAL1	1	R1003P
2010.262	0.275	1107589	TEST_ORIENT	n/a	n/a	5	5	CLAY	PASS	SEA	CLAY	18	[0, 0, 0]	-999	PAL1	1	R1003P
2011.262	4.0	1108089	TEST_PROBE	n/a	wordpools/wordpool_EN.txt	5	5	CLAY	PASS	SEA	CLAY	18	[0, 0, 0]	-999	PAL1	1	R1003P
2011.263	1.722	1108089	REC_START	n/a	n/a	5	-999	n/a	PASS	n/a	n/a	18	[0, 0, 0]	-999	PAL1	1	R1003P
2012.985	3.294	1108950	REC_EVENT	1722.0	n/a	5	5	CLAY	PASS	SEA	CLAY	18	[0, 0, 0]	-999	PAL1	1	R1003P
2016.279	0.017	1110597	REC_END	n/a	n/a	5	-999	n/a	n/a	n/a	n/a	18	[0, 0, 0]	-999	PAL1	1	R1003P
2016.296	0.275	1110606	TEST_ORIENT	n/a	n/a	6	6	VINE	PASS	PASTE	VINE	18	[0, 0, 0]	-999	PAL1	1	R1003P
2017.13	4.0	1111023	TEST_PROBE	n/a	wordpools/wordpool_EN.txt	6	6	VINE	PASS	PASTE	VINE	18	[0, 0, 0]	-999	PAL1	1	R1003P
2017.13	2.125	1111023	REC_START	n/a	n/a	6	-999	n/a	PASS	n/a	n/a	18	[0, 0, 0]	-999	PAL1	1	R1003P
2019.255	2.892	1112085	REC_EVENT	2125.0	n/a	6	6	VINE	PASS	PASTE	VINE	18	[0, 0, 0]	-999	PAL1	1	R1003P
2022.147	1.077	1113531	REC_END	n/a	n/a	6	-999	n/a	n/a	n/a	n/a	18	[0, 0, 0]	-999	PAL1	1	R1003P
2023.224	10.441	1114069	ENCODING_START	n/a	n/a	0	-999	n/a	n/a	n/a	n/a	19	[0, 0, 0]	-999	PAL1	1	R1003P
2033.665	0.275	1119290	STUDY_ORIENT	n/a	n/a	1	5	FORT	FLAG	FORT	FORK	19	[0, 0, 0]	-999	PAL1	1	R1003P
2034.665	4.0	1119790	STUDY_PAIR	n/a	wordpools/wordpool_EN.txt	1	5	FORT	FLAG	FORT	FORK	19	[0, 0, 0]	-999	PAL1	1	R1003P
2039.684	0.275	1122299	STUDY_ORIENT	n/a	n/a	2	2	BIRD	PASS	STAR	BIRD	19	[0, 0, 0]	-999	PAL1	1	R1003P
2040.517	4.0	1122715	STUDY_PAIR	n/a	wordpools/wordpool_EN.txt	2	2	BIRD	PASS	STAR	BIRD	19	[0, 0, 0]	-999	PAL1	1	R1003P
2045.551	0.275	1125232	STUDY_ORIENT	n/a	n/a	3	3	FLAG	GRASS	FLAG	GLASS	19	[0, 0, 0]	-999	PAL1	1	R1003P
2046.518	4.0	1125716	STUDY_PAIR	n/a	wordpools/wordpool_EN.txt	3	3	FLAG	GRASS	FLAG	GLASS	19	[0, 0, 0]	-999	PAL1	1	R1003P
2051.552	0.275	1128233	STUDY_ORIENT	n/a	n/a	4	4	BEAN	PASS	CHIN	BEAN	19	[0, 0, 0]	-999	PAL1	1	R1003P
2052.353	4.0	1128633	STUDY_PAIR	n/a	wordpools/wordpool_EN.txt	4	4	BEAN	PASS	CHIN	BEAN	19	[0, 0, 0]	-999	PAL1	1	R1003P
2057.371	0.275	1131142	STUDY_ORIENT	n/a	n/a	5	1	OWL	PASS	VAN	OWL	19	[0, 0, 0]	-999	PAL1	1	R1003P
2058.388	4.0	1131651	STUDY_PAIR	n/a	wordpools/wordpool_EN.txt	5	1	OWL	PASS	VAN	OWL	19	[0, 0, 0]	-999	PAL1	1	R1003P
2063.422	0.275	1134167	STUDY_ORIENT	n/a	n/a	6	6	STRING	PASS	WORM	STRING	19	[0, 0, 0]	-999	PAL1	1	R1003P
2064.356	4.0	1134634	STUDY_PAIR	n/a	wordpools/wordpool_EN.txt	6	6	STRING	PASS	WORM	STRING	19	[0, 0, 0]	-999	PAL1	1	R1003P
2068.373	1.0	1136643	START	n/a	n/a	-999	-999	n/a	n/a	n/a	n/a	19	[-999, -999, -999]	-999	PAL1	1	R1003P
2069.373	0.017	1137143	MATH_START	n/a	n/a	-999	-999	n/a	n/a	n/a	n/a	19	[0, 0, 0]	-999	PAL1	1	R1003P
2069.39	4.301	1137151	PROB	4274.0	n/a	-999	-999	n/a	n/a	n/a	n/a	19	[5, 8, 3]	16	PAL1	1	R1003P
2073.691	4.001	1139302	PROB	3980.0	n/a	-999	-999	n/a	n/a	n/a	n/a	19	[5, 1, 3]	9	PAL1	1	R1003P
2077.692	4.4	1141302	PROB	4372.0	n/a	-999	-999	n/a	n/a	n/a	n/a	19	[8, 6, 1]	15	PAL1	1	R1003P
2082.092	2.934	1143502	PROB	2908.0	n/a	-999	-999	n/a	n/a	n/a	n/a	19	[6, 8, 4]	18	PAL1	1	R1003P
2085.026	3.653	1144969	PROB	3653.0	n/a	-999	-999	n/a	n/a	n/a	n/a	19	[2, 8, 4]	14	PAL1	1	R1003P
2088.679	0.015	1146795	STOP	n/a	n/a	-999	-999	n/a	n/a	n/a	n/a	19	[-999, -999, -999]	-999	PAL1	1	R1003P
2088.694	0.0	1146803	MATH_END	n/a	n/a	-999	-999	n/a	n/a	n/a	n/a	19	[0, 0, 0]	-999	PAL1	1	R1003P
2088.694	0.016	1146803	TEST_START	n/a	n/a	-999	-999	n/a	n/a	n/a	n/a	19	[0, 0, 0]	-999	PAL1	1	R1003P
2088.71	0.275	1146811	TEST_ORIENT	n/a	n/a	5	1	OWL	PASS	VAN	OWL	19	[0, 0, 0]	-999	PAL1	1	R1003P
2089.659	4.0	1147285	TEST_PROBE	n/a	wordpools/wordpool_EN.txt	5	1	OWL	PASS	VAN	OWL	19	[0, 0, 0]	-999	PAL1	1	R1003P
2089.661	2.418	1147286	REC_START	n/a	n/a	5	-999	n/a	PASS	n/a	n/a	19	[0, 0, 0]	-999	PAL1	1	R1003P
2092.079	2.581	1148495	REC_EVENT	2418.0	n/a	5	1	OWL	PASS	VAN	OWL	19	[0, 0, 0]	-999	PAL1	1	R1003P
2094.66	0.017	1149786	REC_END	n/a	n/a	5	-999	n/a	n/a	n/a	n/a	19	[0, 0, 0]	-999	PAL1	1	R1003P
2094.677	0.275	1149794	TEST_ORIENT	n/a	n/a	2	2	BIRD	PASS	STAR	BIRD	19	[0, 0, 0]	-999	PAL1	1	R1003P
2095.561	4.0	1150236	TEST_PROBE	n/a	wordpools/wordpool_EN.txt	2	2	BIRD	PASS	STAR	BIRD	19	[0, 0, 0]	-999	PAL1	1	R1003P
2095.561	2.117	1150236	REC_START	n/a	n/a	2	-999	n/a	PASS	n/a	n/a	19	[0, 0, 0]	-999	PAL1	1	R1003P
2097.678	2.909	1151295	REC_EVENT	2117.0	n/a	2	2	BIRD	PASS	STAR	BIRD	19	[0, 0, 0]	-999	PAL1	1	R1003P
2100.587	0.008	1152749	REC_END	n/a	n/a	2	-999	n/a	n/a	n/a	n/a	19	[0, 0, 0]	-999	PAL1	1	R1003P
