onset	duration	sample	trial_type	response_time	serialpos	probepos	probe_word	resp_word	study_1	study_2	list	test	answer	experiment	session	subject
0.0	63.352	407505	SESS_START	n/a	-999	-999	n/a	n/a	n/a	n/a	-999	[0, 0, 0]	-999	PAL1	1	R1091N
63.352	1.017	470854	START	n/a	-999	-999	n/a	n/a	n/a	n/a	-1	[-999, -999, -999]	-999	PAL1	1	R1091N
64.369	5.802	471871	PROB	5767	-999	-999	n/a	n/a	n/a	n/a	-1	[4, 4, 2]	10	PAL1	1	R1091N
70.171	5.383	477673	PROB	5356	-999	-999	n/a	n/a	n/a	n/a	-1	[1, 6, 6]	13	PAL1	1	R1091N
75.554	4.901	483056	PROB	4877	-999	-999	n/a	n/a	n/a	n/a	-1	[9, 6, 4]	19	PAL1	1	R1091N
80.455	10.392	487957	PROB	10392	-999	-999	n/a	n/a	n/a	n/a	-1	[4, 5, 7]	16	PAL1	1	R1091N
90.847	55.872	498348	STOP	n/a	-999	-999	n/a	n/a	n/a	n/a	-1	[-999, -999, -999]	-999	PAL1	1	R1091N
146.719	10.45	554218	ENCODING_START	n/a	0	-999	n/a	n/a	n/a	n/a	1	[0, 0, 0]	-999	PAL1	1	R1091N
157.169	0.95	564668	STUDY_ORIENT	n/a	1	5	PURSE	n/a	PEA	PURSE	1	[0, 0, 0]	-999	PAL1	1	R1091N
158.119	5.018	565618	STUDY_PAIR	n/a	1	5	PURSE	n/a	PEA	PURSE	1	[0, 0, 0]	-999	PAL1	1	R1091N
163.137	0.782	570636	STUDY_ORIENT	n/a	2	2	BEAK	n/a	CORN	BEAK	1	[0, 0, 0]	-999	PAL1	1	R1091N
163.919	5.018	571418	STUDY_PAIR	n/a	2	2	BEAK	n/a	CORN	BEAK	1	[0, 0, 0]	-999	PAL1	1	R1091N
168.937	0.833	576435	STUDY_ORIENT	n/a	3	1	POND	n/a	CAKE	POND	1	[0, 0, 0]	-999	PAL1	1	R1091N
169.77	5.034	577268	STUDY_PAIR	n/a	3	1	POND	n/a	CAKE	POND	1	[0, 0, 0]	-999	PAL1	1	R1091N
174.804	0.951	582302	STUDY_ORIENT	n/a	4	4	PEAR	n/a	PEAR	BOOT	1	[0, 0, 0]	-999	PAL1	1	R1091N
175.755	5.034	583253	STUDY_PAIR	n/a	4	4	PEAR	n/a	PEAR	BOOT	1	[0, 0, 0]	-999	PAL1	1	R1091N
180.789	0.917	588287	STUDY_ORIENT	n/a	5	3	STAR	n/a	TOE	STAR	1	[0, 0, 0]	-999	PAL1	1	R1091N
181.706	5.034	589204	STUDY_PAIR	n/a	5	3	STAR	n/a	TOE	STAR	1	[0, 0, 0]	-999	PAL1	1	R1091N
186.74	0.916	594238	STUDY_ORIENT	n/a	6	6	BROOM	n/a	BROOM	STRING	1	[0, 0, 0]	-999	PAL1	1	R1091N
187.656	4.002	595154	STUDY_PAIR	n/a	6	6	BROOM	n/a	BROOM	STRING	1	[0, 0, 0]	-999	PAL1	1	R1091N
191.658	0.999	599156	START	n/a	-999	-999	n/a	n/a	n/a	n/a	1	[-999, -999, -999]	-999	PAL1	1	R1091N
192.657	0.017	600155	MATH_START	n/a	-999	-999	n/a	n/a	n/a	n/a	1	[0, 0, 0]	-999	PAL1	1	R1091N
192.674	4.134	600172	PROB	4109	-999	-999	n/a	n/a	n/a	n/a	1	[1, 8, 2]	11	PAL1	1	R1091N
196.808	5.201	604305	PROB	5167	-999	-999	n/a	n/a	n/a	n/a	1	[6, 9, 3]	15	PAL1	1	R1091N
202.009	4.217	609506	PROB	4183	-999	-999	n/a	n/a	n/a	n/a	1	[8, 2, 5]	15	PAL1	1	R1091N
206.226	3.534	613723	PROB	3501	-999	-999	n/a	n/a	n/a	n/a	1	[1, 2, 3]	6	PAL1	1	R1091N
209.76	4.863	617257	PROB	4863	-999	-999	n/a	n/a	n/a	n/a	1	[4, 2, 9]	15	PAL1	1	R1091N
214.623	0.005	622120	STOP	n/a	-999	-999	n/a	n/a	n/a	n/a	1	[-999, -999, -999]	-999	PAL1	1	R1091N
214.628	0.0	622125	MATH_END	n/a	-999	-999	n/a	n/a	n/a	n/a	1	[0, 0, 0]	-999	PAL1	1	R1091N
214.628	0.016	622125	TEST_START	n/a	-999	-999	n/a	n/a	n/a	n/a	1	[0, 0, 0]	-999	PAL1	1	R1091N
214.644	0.984	622141	TEST_ORIENT	n/a	3	1	POND	n/a	CAKE	POND	1	[0, 0, 0]	-999	PAL1	1	R1091N
215.628	0.002	623125	TEST_PROBE	n/a	3	1	POND	n/a	CAKE	POND	1	[0, 0, 0]	-999	PAL1	1	R1091N
215.63	4.998	623127	REC_START	n/a	3	-999	n/a	n/a	n/a	n/a	1	[0, 0, 0]	-999	PAL1	1	R1091N
220.628	0.0	628124	REC_EVENT	4998	3	1	POND	<>	CAKE	POND	1	[0, 0, 0]	-999	PAL1	1	R1091N
220.628	0.017	628124	REC_END	n/a	3	-999	n/a	n/a	n/a	n/a	1	[0, 0, 0]	-999	PAL1	1	R1091N
220.645	0.817	628141	TEST_ORIENT	n/a	2	2	BEAK	n/a	CORN	BEAK	1	[0, 0, 0]	-999	PAL1	1	R1091N
221.462	0.001	628958	TEST_PROBE	n/a	2	2	BEAK	n/a	CORN	BEAK	1	[0, 0, 0]	-999	PAL1	1	R1091N
221.463	1.814	628959	REC_START	n/a	2	-999	n/a	n/a	n/a	n/a	1	[0, 0, 0]	-999	PAL1	1	R1091N
223.277	3.194	630773	REC_EVENT	1814	2	2	BEAK	<>	CORN	BEAK	1	[0, 0, 0]	-999	PAL1	1	R1091N
226.471	0.009	633967	REC_END	n/a	2	-999	n/a	n/a	n/a	n/a	1	[0, 0, 0]	-999	PAL1	1	R1091N
226.48	0.95	633976	TEST_ORIENT	n/a	5	3	STAR	n/a	TOE	STAR	1	[0, 0, 0]	-999	PAL1	1	R1091N
227.43	0.001	634926	TEST_PROBE	n/a	5	3	STAR	n/a	TOE	STAR	1	[0, 0, 0]	-999	PAL1	1	R1091N
227.431	0.84	634927	REC_START	n/a	5	-999	n/a	n/a	n/a	n/a	1	[0, 0, 0]	-999	PAL1	1	R1091N
228.271	1.0	635767	REC_EVENT	840	5	3	STAR	<>	TOE	STAR	1	[0, 0, 0]	-999	PAL1	1	R1091N
229.271	1.0	636767	REC_EVENT	1840	5	3	STAR	<>	TOE	STAR	1	[0, 0, 0]	-999	PAL1	1	R1091N
230.271	1.0	637767	REC_EVENT	2840	5	3	STAR	<>	TOE	STAR	1	[0, 0, 0]	-999	PAL1	1	R1091N
231.271	1.176	638767	REC_EVENT	3840	5	3	STAR	<>	TOE	STAR	1	[0, 0, 0]	-999	PAL1	1	R1091N
232.447	0.017	639943	REC_END	n/a	5	-999	n/a	n/a	n/a	n/a	1	[0, 0, 0]	-999	PAL1	1	R1091N
232.464	0.817	639960	TEST_ORIENT	n/a	4	4	PEAR	n/a	PEAR	BOOT	1	[0, 0, 0]	-999	PAL1	1	R1091N
233.281	0.0	640777	REC_START	n/a	4	-999	n/a	n/a	n/a	n/a	1	[0, 0, 0]	-999	PAL1	1	R1091N
233.281	2.442	640777	TEST_PROBE	n/a	4	4	PEAR	n/a	PEAR	BOOT	1	[0, 0, 0]	-999	PAL1	1	R1091N
235.723	2.575	643219	REC_EVENT	2442	4	4	PEAR	<>	PEAR	BOOT	1	[0, 0, 0]	-999	PAL1	1	R1091N
238.298	0.017	645794	REC_END	n/a	4	-999	n/a	n/a	n/a	n/a	1	[0, 0, 0]	-999	PAL1	1	R1091N
238.315	0.95	645811	TEST_ORIENT	n/a	1	5	PURSE	n/a	PEA	PURSE	1	[0, 0, 0]	-999	PAL1	1	R1091N
239.265	0.001	646761	TEST_PROBE	n/a	1	5	PURSE	n/a	PEA	PURSE	1	[0, 0, 0]	-999	PAL1	1	R1091N
239.266	0.0	646762	REC_START	n/a	1	-999	n/a	n/a	n/a	n/a	1	[0, 0, 0]	-999	PAL1	1	R1091N
239.266	1.0	646762	REC_EVENT	0	1	5	PURSE	<>	PEA	PURSE	1	[0, 0, 0]	-999	PAL1	1	R1091N
240.266	1.0	647762	REC_EVENT	1000	1	5	PURSE	<>	PEA	PURSE	1	[0, 0, 0]	-999	PAL1	1	R1091N
241.266	1.0	648762	REC_EVENT	2000	1	5	PURSE	<>	PEA	PURSE	1	[0, 0, 0]	-999	PAL1	1	R1091N
242.266	1.0	649762	REC_EVENT	3000	1	5	PURSE	<>	PEA	PURSE	1	[0, 0, 0]	-999	PAL1	1	R1091N
243.266	1.0	650762	REC_EVENT	4000	1	5	PURSE	<>	PEA	PURSE	1	[0, 0, 0]	-999	PAL1	1	R1091N
244.266	0.009	651762	REC_EVENT	5000	1	5	PURSE	<>	PEA	PURSE	1	[0, 0, 0]	-999	PAL1	1	R1091N
244.275	0.008	651771	REC_END	n/a	1	-999	n/a	n/a	n/a	n/a	1	[0, 0, 0]	-999	PAL1	1	R1091N
244.283	0.851	651779	TEST_ORIENT	n/a	6	6	BROOM	n/a	BROOM	STRING	1	[0, 0, 0]	-999	PAL1	1	R1091N
245.134	0.0	652630	TEST_PROBE	n/a	6	6	BROOM	n/a	BROOM	STRING	1	[0, 0, 0]	-999	PAL1	1	R1091N
245.134	0.0	652630	REC_START	n/a	6	-999	n/a	n/a	n/a	n/a	1	[0, 0, 0]	-999	PAL1	1	R1091N
245.134	1.0	652630	REC_EVENT	0	6	6	BROOM	<>	BROOM	STRING	1	[0, 0, 0]	-999	PAL1	1	R1091N
246.134	1.0	653630	REC_EVENT	1000	6	6	BROOM	<>	BROOM	STRING	1	[0, 0, 0]	-999	PAL1	1	R1091N
247.134	1.0	654630	REC_EVENT	2000	6	6	BROOM	<>	BROOM	STRING	1	[0, 0, 0]	-999	PAL1	1	R1091N
248.134	1.0	655629	REC_EVENT	3000	6	6	BROOM	<>	BROOM	STRING	1	[0, 0, 0]	-999	PAL1	1	R1091N
249.134	1.025	656629	REC_EVENT	4000	6	6	BROOM	<>	BROOM	STRING	1	[0, 0, 0]	-999	PAL1	1	R1091N
250.159	4.448	657654	REC_END	n/a	6	-999	n/a	n/a	n/a	n/a	1	[0, 0, 0]	-999	PAL1	1	R1091N
254.607	10.446	662102	ENCODING_START	n/a	0	-999	n/a	n/a	n/a	n/a	2	[0, 0, 0]	-999	PAL1	1	R1091N
265.053	0.817	672548	STUDY_ORIENT	n/a	1	1	FOAM	n/a	HAWK	FOAM	2	[0, 0, 0]	-999	PAL1	1	R1091N
265.87	5.034	673365	STUDY_PAIR	n/a	1	1	FOAM	n/a	HAWK	FOAM	2	[0, 0, 0]	-999	PAL1	1	R1091N
270.904	0.867	678399	STUDY_ORIENT	n/a	2	6	CLOTH	BADGE	BADGE	CLOTH	2	[0, 0, 0]	-999	PAL1	1	R1091N
271.771	5.034	679266	STUDY_PAIR	n/a	2	6	CLOTH	BADGE	BADGE	CLOTH	2	[0, 0, 0]	-999	PAL1	1	R1091N
276.805	0.817	684299	STUDY_ORIENT	n/a	3	5	MAT	TOY	MAT	TOY	2	[0, 0, 0]	-999	PAL1	1	R1091N
277.622	5.034	685116	STUDY_PAIR	n/a	3	5	MAT	TOY	MAT	TOY	2	[0, 0, 0]	-999	PAL1	1	R1091N
282.656	0.983	690150	STUDY_ORIENT	n/a	4	4	DOCK	n/a	SKY	DOCK	2	[0, 0, 0]	-999	PAL1	1	R1091N
283.639	5.018	691133	STUDY_PAIR	n/a	4	4	DOCK	n/a	SKY	DOCK	2	[0, 0, 0]	-999	PAL1	1	R1091N
288.657	0.867	696151	STUDY_ORIENT	n/a	5	3	HORSE	n/a	HORSE	LEG	2	[0, 0, 0]	-999	PAL1	1	R1091N
289.524	5.034	697018	STUDY_PAIR	n/a	5	3	HORSE	n/a	HORSE	LEG	2	[0, 0, 0]	-999	PAL1	1	R1091N
294.558	0.933	702052	STUDY_ORIENT	n/a	6	2	DART	DART	SKI	DART	2	[0, 0, 0]	-999	PAL1	1	R1091N
295.491	4.001	702985	STUDY_PAIR	n/a	6	2	DART	DART	SKI	DART	2	[0, 0, 0]	-999	PAL1	1	R1091N
299.492	1.0	706986	START	n/a	-999	-999	n/a	n/a	n/a	n/a	2	[-999, -999, -999]	-999	PAL1	1	R1091N
300.492	0.017	707986	MATH_START	n/a	-999	-999	n/a	n/a	n/a	n/a	2	[0, 0, 0]	-999	PAL1	1	R1091N
300.509	4.401	708003	PROB	4378	-999	-999	n/a	n/a	n/a	n/a	2	[7, 7, 7]	21	PAL1	1	R1091N
304.91	8.718	712403	PROB	8697	-999	-999	n/a	n/a	n/a	n/a	2	[6, 3, 8]	17	PAL1	1	R1091N
313.628	11.379	721121	PROB	11379	-999	-999	n/a	n/a	n/a	n/a	2	[6, 8, 7]	20	PAL1	1	R1091N
325.007	0.006	732500	STOP	n/a	-999	-999	n/a	n/a	n/a	n/a	2	[-999, -999, -999]	-999	PAL1	1	R1091N
325.013	0.0	732506	TEST_START	n/a	-999	-999	n/a	n/a	n/a	n/a	2	[0, 0, 0]	-999	PAL1	1	R1091N
325.013	0.017	732506	MATH_END	n/a	-999	-999	n/a	n/a	n/a	n/a	2	[0, 0, 0]	-999	PAL1	1	R1091N
325.03	1.0	732523	TEST_ORIENT	n/a	1	1	FOAM	n/a	HAWK	FOAM	2	[0, 0, 0]	-999	PAL1	1	R1091N
326.03	0.0	733523	REC_START	n/a	1	-999	n/a	n/a	n/a	n/a	2	[0, 0, 0]	-999	PAL1	1	R1091N
326.03	2.001	733523	TEST_PROBE	n/a	1	1	FOAM	n/a	HAWK	FOAM	2	[0, 0, 0]	-999	PAL1	1	R1091N
328.031	0.763	735524	REC_EVENT	2001	1	1	FOAM	<>	HAWK	FOAM	2	[0, 0, 0]	-999	PAL1	1	R1091N
328.794	0.697	736287	REC_EVENT	2764	1	1	FOAM	<>	HAWK	FOAM	2	[0, 0, 0]	-999	PAL1	1	R1091N
329.491	1.556	736983	REC_EVENT	3461	1	1	FOAM	<>	HAWK	FOAM	2	[0, 0, 0]	-999	PAL1	1	R1091N
331.047	0.017	738539	REC_END	n/a	1	-999	n/a	n/a	n/a	n/a	2	[0, 0, 0]	-999	PAL1	1	R1091N
331.064	0.817	738556	TEST_ORIENT	n/a	6	2	DART	DART	SKI	DART	2	[0, 0, 0]	-999	PAL1	1	R1091N
331.881	0.0	739373	TEST_PROBE	n/a	6	2	DART	DART	SKI	DART	2	[0, 0, 0]	-999	PAL1	1	R1091N
331.881	1.742	739373	REC_START	n/a	6	-999	n/a	DART	n/a	n/a	2	[0, 0, 0]	-999	PAL1	1	R1091N
333.623	3.275	741115	REC_EVENT	1742	6	2	DART	DART	SKI	DART	2	[0, 0, 0]	-999	PAL1	1	R1091N
336.898	0.017	744390	REC_END	n/a	6	-999	n/a	n/a	n/a	n/a	2	[0, 0, 0]	-999	PAL1	1	R1091N
336.915	0.8	744407	TEST_ORIENT	n/a	5	3	HORSE	n/a	HORSE	LEG	2	[0, 0, 0]	-999	PAL1	1	R1091N
337.715	0.001	745207	TEST_PROBE	n/a	5	3	HORSE	n/a	HORSE	LEG	2	[0, 0, 0]	-999	PAL1	1	R1091N
337.716	5.009	745208	REC_START	n/a	5	-999	n/a	n/a	n/a	n/a	2	[0, 0, 0]	-999	PAL1	1	R1091N
342.725	0.0	750217	REC_EVENT	5009	5	3	HORSE	<>	HORSE	LEG	2	[0, 0, 0]	-999	PAL1	1	R1091N
342.725	0.008	750217	REC_END	n/a	5	-999	n/a	n/a	n/a	n/a	2	[0, 0, 0]	-999	PAL1	1	R1091N
342.733	0.933	750225	TEST_ORIENT	n/a	4	4	DOCK	n/a	SKY	DOCK	2	[0, 0, 0]	-999	PAL1	1	R1091N
343.666	0.001	751158	TEST_PROBE	n/a	4	4	DOCK	n/a	SKY	DOCK	2	[0, 0, 0]	-999	PAL1	1	R1091N
343.667	5.003	751159	REC_START	n/a	4	-999	n/a	n/a	n/a	n/a	2	[0, 0, 0]	-999	PAL1	1	R1091N
348.67	0.005	756162	REC_EVENT	5003	4	4	DOCK	<>	SKY	DOCK	2	[0, 0, 0]	-999	PAL1	1	R1091N
348.675	0.009	756167	REC_END	n/a	4	-999	n/a	n/a	n/a	n/a	2	[0, 0, 0]	-999	PAL1	1	R1091N
348.684	0.967	756176	TEST_ORIENT	n/a	3	5	MAT	TOY	MAT	TOY	2	[0, 0, 0]	-999	PAL1	1	R1091N
349.651	0.0	757143	TEST_PROBE	n/a	3	5	MAT	TOY	MAT	TOY	2	[0, 0, 0]	-999	PAL1	1	R1091N
349.651	0.79	757143	REC_START	n/a	3	-999	n/a	TOY	n/a	n/a	2	[0, 0, 0]	-999	PAL1	1	R1091N
350.441	4.227	757933	REC_EVENT	790	3	5	MAT	TOY	MAT	TOY	2	[0, 0, 0]	-999	PAL1	1	R1091N
354.668	0.017	762160	REC_END	n/a	3	-999	n/a	n/a	n/a	n/a	2	[0, 0, 0]	-999	PAL1	1	R1091N
354.685	0.817	762177	TEST_ORIENT	n/a	2	6	CLOTH	BADGE	BADGE	CLOTH	2	[0, 0, 0]	-999	PAL1	1	R1091N
355.502	0.0	762994	TEST_PROBE	n/a	2	6	CLOTH	BADGE	BADGE	CLOTH	2	[0, 0, 0]	-999	PAL1	1	R1091N
355.502	1.428	762994	REC_START	n/a	2	-999	n/a	BADGE	n/a	n/a	2	[0, 0, 0]	-999	PAL1	1	R1091N
356.93	3.589	764421	REC_EVENT	1428	2	6	CLOTH	BADGE	BADGE	CLOTH	2	[0, 0, 0]	-999	PAL1	1	R1091N
360.519	2.488	768010	REC_END	n/a	2	-999	n/a	n/a	n/a	n/a	2	[0, 0, 0]	-999	PAL1	1	R1091N
363.007	10.448	770498	ENCODING_START	n/a	0	-999	n/a	n/a	n/a	n/a	3	[0, 0, 0]	-999	PAL1	1	R1091N
373.455	0.783	780946	STUDY_ORIENT	n/a	1	3	MAIL	POOL	POOL	MAIL	3	[0, 0, 0]	-999	PAL1	1	R1091N
374.238	5.034	781729	STUDY_PAIR	n/a	1	3	MAIL	POOL	POOL	MAIL	3	[0, 0, 0]	-999	PAL1	1	R1091N
379.272	0.918	786763	STUDY_ORIENT	n/a	2	6	EEL	n/a	TRAIN	EEL	3	[0, 0, 0]	-999	PAL1	1	R1091N
380.19	5.033	787681	STUDY_PAIR	n/a	2	6	EEL	n/a	TRAIN	EEL	3	[0, 0, 0]	-999	PAL1	1	R1091N
385.223	0.885	792713	STUDY_ORIENT	n/a	3	5	PALM	n/a	BED	PALM	3	[0, 0, 0]	-999	PAL1	1	R1091N
386.108	5.034	793598	STUDY_PAIR	n/a	3	5	PALM	n/a	BED	PALM	3	[0, 0, 0]	-999	PAL1	1	R1091N
391.142	0.983	798632	STUDY_ORIENT	n/a	4	2	MOUSE	n/a	MOUSE	CAR	3	[0, 0, 0]	-999	PAL1	1	R1091N
392.125	5.018	799615	STUDY_PAIR	n/a	4	2	MOUSE	n/a	MOUSE	CAR	3	[0, 0, 0]	-999	PAL1	1	R1091N
397.143	0.932	804633	STUDY_ORIENT	n/a	5	1	PLATE	n/a	LAMB	PLATE	3	[0, 0, 0]	-999	PAL1	1	R1091N
398.075	5.019	805565	STUDY_PAIR	n/a	5	1	PLATE	n/a	LAMB	PLATE	3	[0, 0, 0]	-999	PAL1	1	R1091N
403.094	1.017	810584	STUDY_ORIENT	n/a	6	4	SINK	n/a	SINK	FORK	3	[0, 0, 0]	-999	PAL1	1	R1091N
404.111	4.017	811601	STUDY_PAIR	n/a	6	4	SINK	n/a	SINK	FORK	3	[0, 0, 0]	-999	PAL1	1	R1091N
408.128	1.0	815618	START	n/a	-999	-999	n/a	n/a	n/a	n/a	3	[-999, -999, -999]	-999	PAL1	1	R1091N
409.128	0.017	816618	MATH_START	n/a	-999	-999	n/a	n/a	n/a	n/a	3	[0, 0, 0]	-999	PAL1	1	R1091N
409.145	4.666	816635	PROB	4646	-999	-999	n/a	n/a	n/a	n/a	3	[6, 5, 5]	16	PAL1	1	R1091N
413.811	5.768	821300	PROB	5740	-999	-999	n/a	n/a	n/a	n/a	3	[8, 3, 3]	15	PAL1	1	R1091N
419.579	7.351	827068	PROB	7324	-999	-999	n/a	n/a	n/a	n/a	3	[8, 9, 8]	18	PAL1	1	R1091N
426.93	6.781	834419	PROB	6781	-999	-999	n/a	n/a	n/a	n/a	3	[9, 9, 7]	26	PAL1	1	R1091N
433.711	0.004	841200	STOP	n/a	-999	-999	n/a	n/a	n/a	n/a	3	[-999, -999, -999]	-999	PAL1	1	R1091N
433.715	0.0	841204	MATH_END	n/a	-999	-999	n/a	n/a	n/a	n/a	3	[0, 0, 0]	-999	PAL1	1	R1091N
433.715	0.016	841204	TEST_START	n/a	-999	-999	n/a	n/a	n/a	n/a	3	[0, 0, 0]	-999	PAL1	1	R1091N
433.731	1.001	841220	TEST_ORIENT	n/a	5	1	PLATE	n/a	LAMB	PLATE	3	[0, 0, 0]	-999	PAL1	1	R1091N
434.732	0.0	842221	REC_START	n/a	5	-999	n/a	n/a	n/a	n/a	3	[0, 0, 0]	-999	PAL1	1	R1091N
434.732	5.025	842221	TEST_PROBE	n/a	5	1	PLATE	n/a	LAMB	PLATE	3	[0, 0, 0]	-999	PAL1	1	R1091N
439.757	0.002	847245	REC_END	n/a	5	-999	n/a	n/a	n/a	n/a	3	[0, 0, 0]	-999	PAL1	1	R1091N
439.759	0.007	847247	REC_EVENT	5027	5	1	PLATE	<>	LAMB	PLATE	3	[0, 0, 0]	-999	PAL1	1	R1091N
439.766	1.033	847254	TEST_ORIENT	n/a	4	2	MOUSE	n/a	MOUSE	CAR	3	[0, 0, 0]	-999	PAL1	1	R1091N
440.799	0.001	848287	TEST_PROBE	n/a	4	2	MOUSE	n/a	MOUSE	CAR	3	[0, 0, 0]	-999	PAL1	1	R1091N
440.8	1.396	848288	REC_START	n/a	4	-999	n/a	n/a	n/a	n/a	3	[0, 0, 0]	-999	PAL1	1	R1091N
442.196	3.612	849684	REC_EVENT	1396	4	2	MOUSE	<>	MOUSE	CAR	3	[0, 0, 0]	-999	PAL1	1	R1091N
445.808	0.009	853296	REC_END	n/a	4	-999	n/a	n/a	n/a	n/a	3	[0, 0, 0]	-999	PAL1	1	R1091N
445.817	1.033	853305	TEST_ORIENT	n/a	1	3	MAIL	POOL	POOL	MAIL	3	[0, 0, 0]	-999	PAL1	1	R1091N
446.85	0.001	854338	TEST_PROBE	n/a	1	3	MAIL	POOL	POOL	MAIL	3	[0, 0, 0]	-999	PAL1	1	R1091N
446.851	0.773	854339	REC_START	n/a	1	-999	n/a	POOL	n/a	n/a	3	[0, 0, 0]	-999	PAL1	1	R1091N
447.624	0.57	855112	REC_EVENT	773	1	3	MAIL	MAIL	POOL	MAIL	3	[0, 0, 0]	-999	PAL1	1	R1091N
448.194	3.665	855682	REC_EVENT	1343	1	3	MAIL	POOL	POOL	MAIL	3	[0, 0, 0]	-999	PAL1	1	R1091N
451.859	0.009	859347	REC_END	n/a	1	-999	n/a	n/a	n/a	n/a	3	[0, 0, 0]	-999	PAL1	1	R1091N
451.868	0.85	859356	TEST_ORIENT	n/a	6	4	SINK	n/a	SINK	FORK	3	[0, 0, 0]	-999	PAL1	1	R1091N
452.718	0.0	860206	TEST_PROBE	n/a	6	4	SINK	n/a	SINK	FORK	3	[0, 0, 0]	-999	PAL1	1	R1091N
452.718	5.017	860206	REC_START	n/a	6	-999	n/a	n/a	n/a	n/a	3	[0, 0, 0]	-999	PAL1	1	R1091N
457.735	0.004	865223	REC_END	n/a	6	-999	n/a	n/a	n/a	n/a	3	[0, 0, 0]	-999	PAL1	1	R1091N
457.739	0.013	865227	REC_EVENT	5021	6	4	SINK	<>	SINK	FORK	3	[0, 0, 0]	-999	PAL1	1	R1091N
457.752	0.967	865240	TEST_ORIENT	n/a	3	5	PALM	n/a	BED	PALM	3	[0, 0, 0]	-999	PAL1	1	R1091N
458.719	0.0	866207	TEST_PROBE	n/a	3	5	PALM	n/a	BED	PALM	3	[0, 0, 0]	-999	PAL1	1	R1091N
458.719	5.015	866207	REC_START	n/a	3	-999	n/a	n/a	n/a	n/a	3	[0, 0, 0]	-999	PAL1	1	R1091N
463.734	0.002	871222	REC_EVENT	5015	3	5	PALM	<>	BED	PALM	3	[0, 0, 0]	-999	PAL1	1	R1091N
463.736	0.017	871224	REC_END	n/a	3	-999	n/a	n/a	n/a	n/a	3	[0, 0, 0]	-999	PAL1	1	R1091N
463.753	0.884	871241	TEST_ORIENT	n/a	2	6	EEL	n/a	TRAIN	EEL	3	[0, 0, 0]	-999	PAL1	1	R1091N
464.637	0.0	872125	TEST_PROBE	n/a	2	6	EEL	n/a	TRAIN	EEL	3	[0, 0, 0]	-999	PAL1	1	R1091N
464.637	2.421	872125	REC_START	n/a	2	-999	n/a	n/a	n/a	n/a	3	[0, 0, 0]	-999	PAL1	1	R1091N
467.058	2.596	874545	REC_EVENT	2421	2	6	EEL	<>	TRAIN	EEL	3	[0, 0, 0]	-999	PAL1	1	R1091N
469.654	3.506	877141	REC_END	n/a	2	-999	n/a	n/a	n/a	n/a	3	[0, 0, 0]	-999	PAL1	1	R1091N
473.16	10.446	880647	ENCODING_START	n/a	0	-999	n/a	n/a	n/a	n/a	4	[0, 0, 0]	-999	PAL1	1	R1091N
483.606	0.884	891093	STUDY_ORIENT	n/a	1	1	BEAR	ALLEY	BEAR	ROOM	4	[0, 0, 0]	-999	PAL1	1	R1091N
484.49	5.034	891977	STUDY_PAIR	n/a	1	1	BEAR	ALLEY	BEAR	ROOM	4	[0, 0, 0]	-999	PAL1	1	R1091N
489.524	0.817	897011	STUDY_ORIENT	n/a	2	2	GRASS	n/a	TENT	GRASS	4	[0, 0, 0]	-999	PAL1	1	R1091N
490.341	5.034	897828	STUDY_PAIR	n/a	2	2	GRASS	n/a	TENT	GRASS	4	[0, 0, 0]	-999	PAL1	1	R1091N
495.375	1.0	902861	STUDY_ORIENT	n/a	3	3	BOY	n/a	BOY	YARD	4	[0, 0, 0]	-999	PAL1	1	R1091N
496.375	5.018	903861	STUDY_PAIR	n/a	3	3	BOY	n/a	BOY	YARD	4	[0, 0, 0]	-999	PAL1	1	R1091N
501.393	1.017	908879	STUDY_ORIENT	n/a	4	4	SNAIL	n/a	WEB	SNAIL	4	[0, 0, 0]	-999	PAL1	1	R1091N
502.41	5.034	909896	STUDY_PAIR	n/a	4	4	SNAIL	n/a	WEB	SNAIL	4	[0, 0, 0]	-999	PAL1	1	R1091N
507.444	1.0	914930	STUDY_ORIENT	n/a	5	5	LAWN	LLAMAS	LAWN	MOOSE	4	[0, 0, 0]	-999	PAL1	1	R1091N
508.444	5.034	915930	STUDY_PAIR	n/a	5	5	LAWN	LLAMAS	LAWN	MOOSE	4	[0, 0, 0]	-999	PAL1	1	R1091N
513.478	0.817	920964	STUDY_ORIENT	n/a	6	6	STONE	n/a	STONE	WALL	4	[0, 0, 0]	-999	PAL1	1	R1091N
514.295	4.018	921781	STUDY_PAIR	n/a	6	6	STONE	n/a	STONE	WALL	4	[0, 0, 0]	-999	PAL1	1	R1091N
518.313	0.999	925799	START	n/a	-999	-999	n/a	n/a	n/a	n/a	4	[-999, -999, -999]	-999	PAL1	1	R1091N
519.312	0.017	926798	MATH_START	n/a	-999	-999	n/a	n/a	n/a	n/a	4	[0, 0, 0]	-999	PAL1	1	R1091N
519.329	5.568	926815	PROB	5542	-999	-999	n/a	n/a	n/a	n/a	4	[9, 1, 6]	16	PAL1	1	R1091N
524.897	4.817	932382	PROB	4798	-999	-999	n/a	n/a	n/a	n/a	4	[6, 5, 8]	19	PAL1	1	R1091N
529.714	4.419	937199	PROB	4398	-999	-999	n/a	n/a	n/a	n/a	4	[6, 7, 5]	18	PAL1	1	R1091N
534.133	3.616	941618	PROB	3586	-999	-999	n/a	n/a	n/a	n/a	4	[5, 9, 1]	15	PAL1	1	R1091N
537.749	5.034	945234	PROB	5034	-999	-999	n/a	n/a	n/a	n/a	4	[3, 5, 2]	13	PAL1	1	R1091N
542.783	0.017	950268	STOP	n/a	-999	-999	n/a	n/a	n/a	n/a	4	[-999, -999, -999]	-999	PAL1	1	R1091N
542.8	0.0	950285	MATH_END	n/a	-999	-999	n/a	n/a	n/a	n/a	4	[0, 0, 0]	-999	PAL1	1	R1091N
542.8	0.017	950285	TEST_START	n/a	-999	-999	n/a	n/a	n/a	n/a	4	[0, 0, 0]	-999	PAL1	1	R1091N
542.817	0.8	950302	TEST_ORIENT	n/a	1	1	BEAR	ALLEY	BEAR	ROOM	4	[0, 0, 0]	-999	PAL1	1	R1091N
543.617	0.0	951102	TEST_PROBE	n/a	1	1	BEAR	ALLEY	BEAR	ROOM	4	[0, 0, 0]	-999	PAL1	1	R1091N
543.617	3.474	951102	REC_START	n/a	1	-999	n/a	ALLEY	n/a	n/a	4	[0, 0, 0]	-999	PAL1	1	R1091N
547.091	0.199	954575	REC_EVENT	3474	1	1	BEAR	BEAR	BEAR	ROOM	4	[0, 0, 0]	-999	PAL1	1	R1091N
547.29	0.457	954774	REC_EVENT	3673	1	1	BEAR	<>	BEAR	ROOM	4	[0, 0, 0]	-999	PAL1	1	R1091N
547.747	0.17	955231	REC_EVENT	4130	1	1	BEAR	BEAR	BEAR	ROOM	4	[0, 0, 0]	-999	PAL1	1	R1091N
547.917	0.717	955401	REC_EVENT	4300	1	1	BEAR	ALLEY	BEAR	ROOM	4	[0, 0, 0]	-999	PAL1	1	R1091N
548.634	0.017	956118	REC_END	n/a	1	-999	n/a	n/a	n/a	n/a	4	[0, 0, 0]	-999	PAL1	1	R1091N
548.651	0.967	956135	TEST_ORIENT	n/a	2	2	GRASS	n/a	TENT	GRASS	4	[0, 0, 0]	-999	PAL1	1	R1091N
549.618	0.0	957102	TEST_PROBE	n/a	2	2	GRASS	n/a	TENT	GRASS	4	[0, 0, 0]	-999	PAL1	1	R1091N
549.618	5.015	957102	REC_START	n/a	2	-999	n/a	n/a	n/a	n/a	4	[0, 0, 0]	-999	PAL1	1	R1091N
554.633	0.002	962117	REC_EVENT	5015	2	2	GRASS	<>	TENT	GRASS	4	[0, 0, 0]	-999	PAL1	1	R1091N
554.635	0.017	962119	REC_END	n/a	2	-999	n/a	n/a	n/a	n/a	4	[0, 0, 0]	-999	PAL1	1	R1091N
554.652	1.017	962136	TEST_ORIENT	n/a	3	3	BOY	n/a	BOY	YARD	4	[0, 0, 0]	-999	PAL1	1	R1091N
555.669	0.0	963153	REC_START	n/a	3	-999	n/a	n/a	n/a	n/a	4	[0, 0, 0]	-999	PAL1	1	R1091N
555.669	2.672	963153	TEST_PROBE	n/a	3	3	BOY	n/a	BOY	YARD	4	[0, 0, 0]	-999	PAL1	1	R1091N
558.341	2.345	965825	REC_EVENT	2672	3	3	BOY	<>	BOY	YARD	4	[0, 0, 0]	-999	PAL1	1	R1091N
560.686	0.017	968170	REC_END	n/a	3	-999	n/a	n/a	n/a	n/a	4	[0, 0, 0]	-999	PAL1	1	R1091N
560.703	0.8	968187	TEST_ORIENT	n/a	4	4	SNAIL	n/a	WEB	SNAIL	4	[0, 0, 0]	-999	PAL1	1	R1091N
561.503	0.001	968987	TEST_PROBE	n/a	4	4	SNAIL	n/a	WEB	SNAIL	4	[0, 0, 0]	-999	PAL1	1	R1091N
561.504	5.015	968988	REC_START	n/a	4	-999	n/a	n/a	n/a	n/a	4	[0, 0, 0]	-999	PAL1	1	R1091N
566.519	0.001	974003	REC_EVENT	5015	4	4	SNAIL	<>	WEB	SNAIL	4	[0, 0, 0]	-999	PAL1	1	R1091N
566.52	0.017	974004	REC_END	n/a	4	-999	n/a	n/a	n/a	n/a	4	[0, 0, 0]	-999	PAL1	1	R1091N
566.537	0.95	974021	TEST_ORIENT	n/a	5	5	LAWN	LLAMAS	LAWN	MOOSE	4	[0, 0, 0]	-999	PAL1	1	R1091N
567.487	0.001	974971	TEST_PROBE	n/a	5	5	LAWN	LLAMAS	LAWN	MOOSE	4	[0, 0, 0]	-999	PAL1	1	R1091N
567.488	0.96	974972	REC_START	n/a	5	-999	n/a	LLAMAS	n/a	n/a	4	[0, 0, 0]	-999	PAL1	1	R1091N
568.448	4.049	975932	REC_EVENT	960	5	5	LAWN	LLAMAS	LAWN	MOOSE	4	[0, 0, 0]	-999	PAL1	1	R1091N
572.497	0.008	979981	REC_END	n/a	5	-999	n/a	n/a	n/a	n/a	4	[0, 0, 0]	-999	PAL1	1	R1091N
572.505	0.9	979989	TEST_ORIENT	n/a	6	6	STONE	n/a	STONE	WALL	4	[0, 0, 0]	-999	PAL1	1	R1091N
573.405	0.0	980889	TEST_PROBE	n/a	6	6	STONE	n/a	STONE	WALL	4	[0, 0, 0]	-999	PAL1	1	R1091N
573.405	5.015	980889	REC_START	n/a	6	-999	n/a	n/a	n/a	n/a	4	[0, 0, 0]	-999	PAL1	1	R1091N
578.42	0.002	985903	REC_EVENT	5015	6	6	STONE	<>	STONE	WALL	4	[0, 0, 0]	-999	PAL1	1	R1091N
578.422	5.473	985905	REC_END	n/a	6	-999	n/a	n/a	n/a	n/a	4	[0, 0, 0]	-999	PAL1	1	R1091N
583.895	10.447	991378	ENCODING_START	n/a	0	-999	n/a	n/a	n/a	n/a	5	[0, 0, 0]	-999	PAL1	1	R1091N
594.342	0.834	1001825	STUDY_ORIENT	n/a	1	1	SKUNK	n/a	PEN	SKUNK	5	[0, 0, 0]	-999	PAL1	1	R1091N
595.176	5.018	1002659	STUDY_PAIR	n/a	1	1	SKUNK	n/a	PEN	SKUNK	5	[0, 0, 0]	-999	PAL1	1	R1091N
600.194	0.933	1007677	STUDY_ORIENT	n/a	2	4	SHEET	n/a	FOOT	SHEET	5	[0, 0, 0]	-999	PAL1	1	R1091N
601.127	5.018	1008610	STUDY_PAIR	n/a	2	4	SHEET	n/a	FOOT	SHEET	5	[0, 0, 0]	-999	PAL1	1	R1091N
606.145	0.882	1013627	STUDY_ORIENT	n/a	3	3	HOUSE	n/a	HOUSE	KITE	5	[0, 0, 0]	-999	PAL1	1	R1091N
607.027	5.018	1014509	STUDY_PAIR	n/a	3	3	HOUSE	n/a	HOUSE	KITE	5	[0, 0, 0]	-999	PAL1	1	R1091N
612.045	0.967	1019527	STUDY_ORIENT	n/a	4	2	FISH	n/a	FISH	SMILE	5	[0, 0, 0]	-999	PAL1	1	R1091N
613.012	5.034	1020494	STUDY_PAIR	n/a	4	2	FISH	n/a	FISH	SMILE	5	[0, 0, 0]	-999	PAL1	1	R1091N
618.046	0.883	1025528	STUDY_ORIENT	n/a	5	5	ROOT	n/a	ROOT	ARM	5	[0, 0, 0]	-999	PAL1	1	R1091N
618.929	5.018	1026411	STUDY_PAIR	n/a	5	5	ROOT	n/a	ROOT	ARM	5	[0, 0, 0]	-999	PAL1	1	R1091N
623.947	0.983	1031429	STUDY_ORIENT	n/a	6	6	CLIFF	BRUSH	BLUSH	CLIFF	5	[0, 0, 0]	-999	PAL1	1	R1091N
624.93	4.001	1032412	STUDY_PAIR	n/a	6	6	CLIFF	BRUSH	BLUSH	CLIFF	5	[0, 0, 0]	-999	PAL1	1	R1091N
628.931	1.0	1036412	START	n/a	-999	-999	n/a	n/a	n/a	n/a	5	[-999, -999, -999]	-999	PAL1	1	R1091N
629.931	0.017	1037412	MATH_START	n/a	-999	-999	n/a	n/a	n/a	n/a	5	[0, 0, 0]	-999	PAL1	1	R1091N
629.948	5.451	1037429	PROB	5427	-999	-999	n/a	n/a	n/a	n/a	5	[5, 1, 2]	8	PAL1	1	R1091N
635.399	25.464	1042880	PROB	25464	-999	-999	n/a	n/a	n/a	n/a	5	[9, 9, 8]	26	PAL1	1	R1091N
660.863	0.007	1068343	STOP	n/a	-999	-999	n/a	n/a	n/a	n/a	5	[-999, -999, -999]	-999	PAL1	1	R1091N
660.87	0.0	1068350	MATH_END	n/a	-999	-999	n/a	n/a	n/a	n/a	5	[0, 0, 0]	-999	PAL1	1	R1091N
660.87	0.017	1068350	TEST_START	n/a	-999	-999	n/a	n/a	n/a	n/a	5	[0, 0, 0]	-999	PAL1	1	R1091N
660.887	0.95	1068367	TEST_ORIENT	n/a	1	1	SKUNK	n/a	PEN	SKUNK	5	[0, 0, 0]	-999	PAL1	1	R1091N
661.837	0.0	1069317	TEST_PROBE	n/a	1	1	SKUNK	n/a	PEN	SKUNK	5	[0, 0, 0]	-999	PAL1	1	R1091N
661.837	3.223	1069317	REC_START	n/a	1	-999	n/a	n/a	n/a	n/a	5	[0, 0, 0]	-999	PAL1	1	R1091N
665.06	1.794	1072540	REC_EVENT	3223	1	1	SKUNK	<>	PEN	SKUNK	5	[0, 0, 0]	-999	PAL1	1	R1091N
666.854	0.017	1074334	REC_END	n/a	1	-999	n/a	n/a	n/a	n/a	5	[0, 0, 0]	-999	PAL1	1	R1091N
666.871	0.883	1074351	TEST_ORIENT	n/a	4	2	FISH	n/a	FISH	SMILE	5	[0, 0, 0]	-999	PAL1	1	R1091N
667.754	0.001	1075234	TEST_PROBE	n/a	4	2	FISH	n/a	FISH	SMILE	5	[0, 0, 0]	-999	PAL1	1	R1091N
667.755	5.008	1075235	REC_START	n/a	4	-999	n/a	n/a	n/a	n/a	5	[0, 0, 0]	-999	PAL1	1	R1091N
672.763	0.001	1080243	REC_END	n/a	4	-999	n/a	n/a	n/a	n/a	5	[0, 0, 0]	-999	PAL1	1	R1091N
672.764	0.008	1080244	REC_EVENT	5009	4	2	FISH	<>	FISH	SMILE	5	[0, 0, 0]	-999	PAL1	1	R1091N
672.772	0.933	1080252	TEST_ORIENT	n/a	3	3	HOUSE	n/a	HOUSE	KITE	5	[0, 0, 0]	-999	PAL1	1	R1091N
673.705	0.001	1081185	TEST_PROBE	n/a	3	3	HOUSE	n/a	HOUSE	KITE	5	[0, 0, 0]	-999	PAL1	1	R1091N
673.706	4.998	1081186	REC_START	n/a	3	-999	n/a	n/a	n/a	n/a	5	[0, 0, 0]	-999	PAL1	1	R1091N
678.704	0.002	1086184	REC_EVENT	4998	3	3	HOUSE	<>	HOUSE	KITE	5	[0, 0, 0]	-999	PAL1	1	R1091N
678.706	0.017	1086186	REC_END	n/a	3	-999	n/a	n/a	n/a	n/a	5	[0, 0, 0]	-999	PAL1	1	R1091N
678.723	0.967	1086203	TEST_ORIENT	n/a	2	4	SHEET	n/a	FOOT	SHEET	5	[0, 0, 0]	-999	PAL1	1	R1091N
679.69	0.0	1087170	TEST_PROBE	n/a	2	4	SHEET	n/a	FOOT	SHEET	5	[0, 0, 0]	-999	PAL1	1	R1091N
679.69	5.015	1087170	REC_START	n/a	2	-999	n/a	n/a	n/a	n/a	5	[0, 0, 0]	-999	PAL1	1	R1091N
684.705	0.002	1092184	REC_EVENT	5015	2	4	SHEET	<>	FOOT	SHEET	5	[0, 0, 0]	-999	PAL1	1	R1091N
684.707	0.017	1092186	REC_END	n/a	2	-999	n/a	n/a	n/a	n/a	5	[0, 0, 0]	-999	PAL1	1	R1091N
684.724	0.833	1092203	TEST_ORIENT	n/a	5	5	ROOT	n/a	ROOT	ARM	5	[0, 0, 0]	-999	PAL1	1	R1091N
685.557	0.001	1093036	TEST_PROBE	n/a	5	5	ROOT	n/a	ROOT	ARM	5	[0, 0, 0]	-999	PAL1	1	R1091N
685.558	5.003	1093037	REC_START	n/a	5	-999	n/a	n/a	n/a	n/a	5	[0, 0, 0]	-999	PAL1	1	R1091N
690.561	0.005	1098040	REC_EVENT	5003	5	5	ROOT	<>	ROOT	ARM	5	[0, 0, 0]	-999	PAL1	1	R1091N
690.566	0.009	1098045	REC_END	n/a	5	-999	n/a	n/a	n/a	n/a	5	[0, 0, 0]	-999	PAL1	1	R1091N
690.575	0.833	1098054	TEST_ORIENT	n/a	6	6	CLIFF	BRUSH	BLUSH	CLIFF	5	[0, 0, 0]	-999	PAL1	1	R1091N
691.408	0.001	1098887	TEST_PROBE	n/a	6	6	CLIFF	BRUSH	BLUSH	CLIFF	5	[0, 0, 0]	-999	PAL1	1	R1091N
691.409	1.646	1098888	REC_START	n/a	6	-999	n/a	BRUSH	n/a	n/a	5	[0, 0, 0]	-999	PAL1	1	R1091N
693.055	3.362	1100534	REC_EVENT	1646	6	6	CLIFF	BRUSH	BLUSH	CLIFF	5	[0, 0, 0]	-999	PAL1	1	R1091N
696.417	3.086	1103896	REC_END	n/a	6	-999	n/a	n/a	n/a	n/a	5	[0, 0, 0]	-999	PAL1	1	R1091N
699.503	10.442	1106982	ENCODING_START	n/a	0	-999	n/a	n/a	n/a	n/a	6	[0, 0, 0]	-999	PAL1	1	R1091N
709.945	0.916	1117424	STUDY_ORIENT	n/a	1	5	CHEEK	n/a	SHOE	CHEEK	6	[0, 0, 0]	-999	PAL1	1	R1091N
710.861	5.018	1118339	STUDY_PAIR	n/a	1	5	CHEEK	n/a	SHOE	CHEEK	6	[0, 0, 0]	-999	PAL1	1	R1091N
715.879	0.767	1123357	STUDY_ORIENT	n/a	2	6	FROG	n/a	FROG	SEAT	6	[0, 0, 0]	-999	PAL1	1	R1091N
716.646	5.034	1124124	STUDY_PAIR	n/a	2	6	FROG	n/a	FROG	SEAT	6	[0, 0, 0]	-999	PAL1	1	R1091N
721.68	0.85	1129158	STUDY_ORIENT	n/a	3	1	FLAME	n/a	HILL	FLAME	6	[0, 0, 0]	-999	PAL1	1	R1091N
722.53	5.018	1130008	STUDY_PAIR	n/a	3	1	FLAME	n/a	HILL	FLAME	6	[0, 0, 0]	-999	PAL1	1	R1091N
727.548	0.833	1135026	STUDY_ORIENT	n/a	4	4	BAG	n/a	BAG	SWORD	6	[0, 0, 0]	-999	PAL1	1	R1091N
728.381	5.018	1135859	STUDY_PAIR	n/a	4	4	BAG	n/a	BAG	SWORD	6	[0, 0, 0]	-999	PAL1	1	R1091N
733.399	1.017	1140877	STUDY_ORIENT	n/a	5	3	SPONGE	n/a	SPONGE	SIGN	6	[0, 0, 0]	-999	PAL1	1	R1091N
734.416	5.034	1141894	STUDY_PAIR	n/a	5	3	SPONGE	n/a	SPONGE	SIGN	6	[0, 0, 0]	-999	PAL1	1	R1091N
739.45	0.983	1146927	STUDY_ORIENT	n/a	6	2	FORT	n/a	FORT	SOUP	6	[0, 0, 0]	-999	PAL1	1	R1091N
740.433	4.001	1147910	STUDY_PAIR	n/a	6	2	FORT	n/a	FORT	SOUP	6	[0, 0, 0]	-999	PAL1	1	R1091N
744.434	1.0	1151911	START	n/a	-999	-999	n/a	n/a	n/a	n/a	6	[-999, -999, -999]	-999	PAL1	1	R1091N
745.434	0.017	1152911	MATH_START	n/a	-999	-999	n/a	n/a	n/a	n/a	6	[0, 0, 0]	-999	PAL1	1	R1091N
745.451	4.867	1152928	PROB	4836	-999	-999	n/a	n/a	n/a	n/a	6	[2, 3, 9]	14	PAL1	1	R1091N
750.318	3.401	1157795	PROB	3369	-999	-999	n/a	n/a	n/a	n/a	6	[5, 4, 3]	12	PAL1	1	R1091N
753.719	6.001	1161196	PROB	5968	-999	-999	n/a	n/a	n/a	n/a	6	[8, 8, 4]	20	PAL1	1	R1091N
759.72	4.334	1167197	PROB	4311	-999	-999	n/a	n/a	n/a	n/a	6	[3, 8, 9]	20	PAL1	1	R1091N
764.054	6.809	1171531	PROB	6809	-999	-999	n/a	n/a	n/a	n/a	6	[3, 5, 4]	12	PAL1	1	R1091N
770.863	0.009	1178339	STOP	n/a	-999	-999	n/a	n/a	n/a	n/a	6	[-999, -999, -999]	-999	PAL1	1	R1091N
770.872	0.0	1178348	TEST_START	n/a	-999	-999	n/a	n/a	n/a	n/a	6	[0, 0, 0]	-999	PAL1	1	R1091N
770.872	0.016	1178348	MATH_END	n/a	-999	-999	n/a	n/a	n/a	n/a	6	[0, 0, 0]	-999	PAL1	1	R1091N
770.888	0.867	1178364	TEST_ORIENT	n/a	3	1	FLAME	n/a	HILL	FLAME	6	[0, 0, 0]	-999	PAL1	1	R1091N
771.755	0.001	1179231	TEST_PROBE	n/a	3	1	FLAME	n/a	HILL	FLAME	6	[0, 0, 0]	-999	PAL1	1	R1091N
771.756	2.723	1179232	REC_START	n/a	3	-999	n/a	n/a	n/a	n/a	6	[0, 0, 0]	-999	PAL1	1	R1091N
774.479	2.285	1181955	REC_EVENT	2723	3	1	FLAME	<>	HILL	FLAME	6	[0, 0, 0]	-999	PAL1	1	R1091N
776.764	0.009	1184240	REC_END	n/a	3	-999	n/a	n/a	n/a	n/a	6	[0, 0, 0]	-999	PAL1	1	R1091N
776.773	0.933	1184249	TEST_ORIENT	n/a	6	2	FORT	n/a	FORT	SOUP	6	[0, 0, 0]	-999	PAL1	1	R1091N
777.706	0.001	1185182	TEST_PROBE	n/a	6	2	FORT	n/a	FORT	SOUP	6	[0, 0, 0]	-999	PAL1	1	R1091N
777.707	5.003	1185183	REC_START	n/a	6	-999	n/a	n/a	n/a	n/a	6	[0, 0, 0]	-999	PAL1	1	R1091N
782.71	0.005	1190186	REC_EVENT	5003	6	2	FORT	<>	FORT	SOUP	6	[0, 0, 0]	-999	PAL1	1	R1091N
782.715	0.009	1190191	REC_END	n/a	6	-999	n/a	n/a	n/a	n/a	6	[0, 0, 0]	-999	PAL1	1	R1091N
782.724	1.0	1190200	TEST_ORIENT	n/a	5	3	SPONGE	n/a	SPONGE	SIGN	6	[0, 0, 0]	-999	PAL1	1	R1091N
783.724	0.0	1191200	TEST_PROBE	n/a	5	3	SPONGE	n/a	SPONGE	SIGN	6	[0, 0, 0]	-999	PAL1	1	R1091N
783.724	5.017	1191200	REC_START	n/a	5	-999	n/a	n/a	n/a	n/a	6	[0, 0, 0]	-999	PAL1	1	R1091N
788.741	0.004	1196217	REC_END	n/a	5	-999	n/a	n/a	n/a	n/a	6	[0, 0, 0]	-999	PAL1	1	R1091N
788.745	0.013	1196221	REC_EVENT	5021	5	3	SPONGE	<>	SPONGE	SIGN	6	[0, 0, 0]	-999	PAL1	1	R1091N
788.758	0.917	1196234	TEST_ORIENT	n/a	4	4	BAG	n/a	BAG	SWORD	6	[0, 0, 0]	-999	PAL1	1	R1091N
789.675	0.0	1197151	TEST_PROBE	n/a	4	4	BAG	n/a	BAG	SWORD	6	[0, 0, 0]	-999	PAL1	1	R1091N
789.675	5.015	1197151	REC_START	n/a	4	-999	n/a	n/a	n/a	n/a	6	[0, 0, 0]	-999	PAL1	1	R1091N
794.69	0.002	1202165	REC_EVENT	5015	4	4	BAG	<>	BAG	SWORD	6	[0, 0, 0]	-999	PAL1	1	R1091N
794.692	0.017	1202167	REC_END	n/a	4	-999	n/a	n/a	n/a	n/a	6	[0, 0, 0]	-999	PAL1	1	R1091N
794.709	0.834	1202184	TEST_ORIENT	n/a	1	5	CHEEK	n/a	SHOE	CHEEK	6	[0, 0, 0]	-999	PAL1	1	R1091N
795.543	0.0	1203018	TEST_PROBE	n/a	1	5	CHEEK	n/a	SHOE	CHEEK	6	[0, 0, 0]	-999	PAL1	1	R1091N
795.543	2.1	1203018	REC_START	n/a	1	-999	n/a	n/a	n/a	n/a	6	[0, 0, 0]	-999	PAL1	1	R1091N
797.643	1.0	1205118	REC_EVENT	2100	1	5	CHEEK	<>	SHOE	CHEEK	6	[0, 0, 0]	-999	PAL1	1	R1091N
798.643	1.0	1206118	REC_EVENT	3100	1	5	CHEEK	<>	SHOE	CHEEK	6	[0, 0, 0]	-999	PAL1	1	R1091N
799.643	0.917	1207118	REC_EVENT	4100	1	5	CHEEK	<>	SHOE	CHEEK	6	[0, 0, 0]	-999	PAL1	1	R1091N
800.56	0.017	1208035	REC_END	n/a	1	-999	n/a	n/a	n/a	n/a	6	[0, 0, 0]	-999	PAL1	1	R1091N
800.577	1.033	1208052	TEST_ORIENT	n/a	2	6	FROG	n/a	FROG	SEAT	6	[0, 0, 0]	-999	PAL1	1	R1091N
801.61	0.001	1209085	TEST_PROBE	n/a	2	6	FROG	n/a	FROG	SEAT	6	[0, 0, 0]	-999	PAL1	1	R1091N
801.611	0.343	1209086	REC_START	n/a	2	-999	n/a	n/a	n/a	n/a	6	[0, 0, 0]	-999	PAL1	1	R1091N
801.954	1.43	1209429	REC_EVENT	343	2	6	FROG	<>	FROG	SEAT	6	[0, 0, 0]	-999	PAL1	1	R1091N
803.384	3.235	1210859	REC_EVENT	1773	2	6	FROG	<>	FROG	SEAT	6	[0, 0, 0]	-999	PAL1	1	R1091N
806.619	10.324	1214094	REC_END	n/a	2	-999	n/a	n/a	n/a	n/a	6	[0, 0, 0]	-999	PAL1	1	R1091N
816.943	10.438	1224418	ENCODING_START	n/a	0	-999	n/a	n/a	n/a	n/a	7	[0, 0, 0]	-999	PAL1	1	R1091N
827.381	1.001	1234855	STUDY_ORIENT	n/a	1	1	TOOL	n/a	TOOL	JUDGE	7	[0, 0, 0]	-999	PAL1	1	R1091N
828.382	5.034	1235856	STUDY_PAIR	n/a	1	1	TOOL	n/a	TOOL	JUDGE	7	[0, 0, 0]	-999	PAL1	1	R1091N
833.416	0.883	1240890	STUDY_ORIENT	n/a	2	6	COUCH	n/a	COIN	COUCH	7	[0, 0, 0]	-999	PAL1	1	R1091N
834.299	5.018	1241773	STUDY_PAIR	n/a	2	6	COUCH	n/a	COIN	COUCH	7	[0, 0, 0]	-999	PAL1	1	R1091N
839.317	0.917	1246791	STUDY_ORIENT	n/a	3	5	PIE	n/a	DRUM	PIE	7	[0, 0, 0]	-999	PAL1	1	R1091N
840.234	5.034	1247708	STUDY_PAIR	n/a	3	5	PIE	n/a	DRUM	PIE	7	[0, 0, 0]	-999	PAL1	1	R1091N
845.268	0.934	1252742	STUDY_ORIENT	n/a	4	4	STOOL	n/a	WHEEL	STOOL	7	[0, 0, 0]	-999	PAL1	1	R1091N
846.202	5.017	1253676	STUDY_PAIR	n/a	4	4	STOOL	n/a	WHEEL	STOOL	7	[0, 0, 0]	-999	PAL1	1	R1091N
851.219	0.984	1258692	STUDY_ORIENT	n/a	5	3	SHRIMP	n/a	SHRIMP	DUCK	7	[0, 0, 0]	-999	PAL1	1	R1091N
852.203	5.017	1259676	STUDY_PAIR	n/a	5	3	SHRIMP	n/a	SHRIMP	DUCK	7	[0, 0, 0]	-999	PAL1	1	R1091N
857.22	0.816	1264693	STUDY_ORIENT	n/a	6	2	ROCK	n/a	ROCK	NOSE	7	[0, 0, 0]	-999	PAL1	1	R1091N
858.036	4.018	1265509	STUDY_PAIR	n/a	6	2	ROCK	n/a	ROCK	NOSE	7	[0, 0, 0]	-999	PAL1	1	R1091N
862.054	1.0	1269527	START	n/a	-999	-999	n/a	n/a	n/a	n/a	7	[-999, -999, -999]	-999	PAL1	1	R1091N
863.054	0.017	1270527	MATH_START	n/a	-999	-999	n/a	n/a	n/a	n/a	7	[0, 0, 0]	-999	PAL1	1	R1091N
863.071	5.901	1270544	PROB	5872	-999	-999	n/a	n/a	n/a	n/a	7	[3, 1, 3]	7	PAL1	1	R1091N
868.972	8.601	1276445	PROB	8579	-999	-999	n/a	n/a	n/a	n/a	7	[6, 2, 6]	14	PAL1	1	R1091N
877.573	5.571	1285045	PROB	5571	-999	-999	n/a	n/a	n/a	n/a	7	[1, 6, 5]	12	PAL1	1	R1091N
883.144	0.014	1290616	STOP	n/a	-999	-999	n/a	n/a	n/a	n/a	7	[-999, -999, -999]	-999	PAL1	1	R1091N
883.158	0.0	1290630	TEST_START	n/a	-999	-999	n/a	n/a	n/a	n/a	7	[0, 0, 0]	-999	PAL1	1	R1091N
883.158	0.017	1290630	MATH_END	n/a	-999	-999	n/a	n/a	n/a	n/a	7	[0, 0, 0]	-999	PAL1	1	R1091N
883.175	1.0	1290647	TEST_ORIENT	n/a	1	1	TOOL	n/a	TOOL	JUDGE	7	[0, 0, 0]	-999	PAL1	1	R1091N
884.175	0.001	1291647	TEST_PROBE	n/a	1	1	TOOL	n/a	TOOL	JUDGE	7	[0, 0, 0]	-999	PAL1	1	R1091N
884.176	5.003	1291648	REC_START	n/a	1	-999	n/a	n/a	n/a	n/a	7	[0, 0, 0]	-999	PAL1	1	R1091N
889.179	0.005	1296651	REC_EVENT	5003	1	1	TOOL	<>	TOOL	JUDGE	7	[0, 0, 0]	-999	PAL1	1	R1091N
889.184	0.009	1296656	REC_END	n/a	1	-999	n/a	n/a	n/a	n/a	7	[0, 0, 0]	-999	PAL1	1	R1091N
889.193	0.882	1296665	TEST_ORIENT	n/a	6	2	ROCK	n/a	ROCK	NOSE	7	[0, 0, 0]	-999	PAL1	1	R1091N
890.075	0.001	1297547	TEST_PROBE	n/a	6	2	ROCK	n/a	ROCK	NOSE	7	[0, 0, 0]	-999	PAL1	1	R1091N
890.076	2.756	1297548	REC_START	n/a	6	-999	n/a	n/a	n/a	n/a	7	[0, 0, 0]	-999	PAL1	1	R1091N
892.832	2.255	1300304	REC_EVENT	2756	6	2	ROCK	<>	ROCK	NOSE	7	[0, 0, 0]	-999	PAL1	1	R1091N
895.087	0.023	1302559	REC_END	n/a	6	-999	n/a	n/a	n/a	n/a	7	[0, 0, 0]	-999	PAL1	1	R1091N
895.11	0.85	1302582	TEST_ORIENT	n/a	5	3	SHRIMP	n/a	SHRIMP	DUCK	7	[0, 0, 0]	-999	PAL1	1	R1091N
895.96	0.0	1303432	TEST_PROBE	n/a	5	3	SHRIMP	n/a	SHRIMP	DUCK	7	[0, 0, 0]	-999	PAL1	1	R1091N
895.96	0.995	1303432	REC_START	n/a	5	-999	n/a	n/a	n/a	n/a	7	[0, 0, 0]	-999	PAL1	1	R1091N
896.955	1.0	1304427	REC_EVENT	995	5	3	SHRIMP	<>	SHRIMP	DUCK	7	[0, 0, 0]	-999	PAL1	1	R1091N
897.955	3.022	1305427	REC_EVENT	1995	5	3	SHRIMP	<>	SHRIMP	DUCK	7	[0, 0, 0]	-999	PAL1	1	R1091N
900.977	0.017	1308448	REC_END	n/a	5	-999	n/a	n/a	n/a	n/a	7	[0, 0, 0]	-999	PAL1	1	R1091N
900.994	1.0	1308465	TEST_ORIENT	n/a	4	4	STOOL	n/a	WHEEL	STOOL	7	[0, 0, 0]	-999	PAL1	1	R1091N
901.994	0.001	1309465	TEST_PROBE	n/a	4	4	STOOL	n/a	WHEEL	STOOL	7	[0, 0, 0]	-999	PAL1	1	R1091N
901.995	1.17	1309466	REC_START	n/a	4	-999	n/a	n/a	n/a	n/a	7	[0, 0, 0]	-999	PAL1	1	R1091N
903.165	3.695	1310636	REC_EVENT	1170	4	4	STOOL	<>	WHEEL	STOOL	7	[0, 0, 0]	-999	PAL1	1	R1091N
906.86	0.151	1314331	REC_EVENT	4865	4	4	STOOL	<>	WHEEL	STOOL	7	[0, 0, 0]	-999	PAL1	1	R1091N
907.011	0.017	1314482	REC_END	n/a	4	-999	n/a	n/a	n/a	n/a	7	[0, 0, 0]	-999	PAL1	1	R1091N
907.028	1.017	1314499	TEST_ORIENT	n/a	3	5	PIE	n/a	DRUM	PIE	7	[0, 0, 0]	-999	PAL1	1	R1091N
908.045	0.001	1315516	TEST_PROBE	n/a	3	5	PIE	n/a	DRUM	PIE	7	[0, 0, 0]	-999	PAL1	1	R1091N
908.046	3.542	1315517	REC_START	n/a	3	-999	n/a	n/a	n/a	n/a	7	[0, 0, 0]	-999	PAL1	1	R1091N
911.588	1.482	1319059	REC_EVENT	3542	3	5	PIE	<>	DRUM	PIE	7	[0, 0, 0]	-999	PAL1	1	R1091N
913.07	0.009	1320541	REC_END	n/a	3	-999	n/a	n/a	n/a	n/a	7	[0, 0, 0]	-999	PAL1	1	R1091N
913.079	1.035	1320550	TEST_ORIENT	n/a	2	6	COUCH	n/a	COIN	COUCH	7	[0, 0, 0]	-999	PAL1	1	R1091N
914.114	0.0	1321585	REC_EVENT	0	2	6	COUCH	<>	COIN	COUCH	7	[0, 0, 0]	-999	PAL1	1	R1091N
914.114	0.0	1321585	TEST_PROBE	n/a	2	6	COUCH	n/a	COIN	COUCH	7	[0, 0, 0]	-999	PAL1	1	R1091N
914.114	2.54	1321585	REC_START	n/a	2	-999	n/a	n/a	n/a	n/a	7	[0, 0, 0]	-999	PAL1	1	R1091N
916.654	1.0	1324125	REC_EVENT	2540	2	6	COUCH	<>	COIN	COUCH	7	[0, 0, 0]	-999	PAL1	1	R1091N
917.654	1.477	1325125	REC_EVENT	3540	2	6	COUCH	<>	COIN	COUCH	7	[0, 0, 0]	-999	PAL1	1	R1091N
919.131	47.724	1326602	REC_END	n/a	2	-999	n/a	n/a	n/a	n/a	7	[0, 0, 0]	-999	PAL1	1	R1091N
966.855	10.452	1374324	ENCODING_START	n/a	0	-999	n/a	n/a	n/a	n/a	8	[0, 0, 0]	-999	PAL1	1	R1091N
977.307	0.901	1384776	STUDY_ORIENT	n/a	1	5	FOX	LAMP	HOOK	FOX	8	[0, 0, 0]	-999	PAL1	1	R1091N
978.208	5.033	1385677	STUDY_PAIR	n/a	1	5	FOX	LAMP	HOOK	FOX	8	[0, 0, 0]	-999	PAL1	1	R1091N
983.241	0.901	1390709	STUDY_ORIENT	n/a	2	4	FENCE	LAMP	FENCE	LAMP	8	[0, 0, 0]	-999	PAL1	1	R1091N
984.142	5.018	1391610	STUDY_PAIR	n/a	2	4	FENCE	LAMP	FENCE	LAMP	8	[0, 0, 0]	-999	PAL1	1	R1091N
989.16	0.899	1396628	STUDY_ORIENT	n/a	3	1	CHIN	n/a	CHIN	RAKE	8	[0, 0, 0]	-999	PAL1	1	R1091N
990.059	5.035	1397527	STUDY_PAIR	n/a	3	1	CHIN	n/a	CHIN	RAKE	8	[0, 0, 0]	-999	PAL1	1	R1091N
995.094	0.849	1402562	STUDY_ORIENT	n/a	4	2	STORE	SHIELD	STORE	SHIELD	8	[0, 0, 0]	-999	PAL1	1	R1091N
995.943	5.018	1403411	STUDY_PAIR	n/a	4	2	STORE	SHIELD	STORE	SHIELD	8	[0, 0, 0]	-999	PAL1	1	R1091N
1000.961	0.817	1408429	STUDY_ORIENT	n/a	5	3	ROOF	n/a	CORD	ROOF	8	[0, 0, 0]	-999	PAL1	1	R1091N
1001.778	5.034	1409246	STUDY_PAIR	n/a	5	3	ROOF	n/a	CORD	ROOF	8	[0, 0, 0]	-999	PAL1	1	R1091N
1006.812	1.0	1414280	STUDY_ORIENT	n/a	6	6	LOCK	LOCK	WOOD	LOCK	8	[0, 0, 0]	-999	PAL1	1	R1091N
1007.812	4.018	1415280	STUDY_PAIR	n/a	6	6	LOCK	LOCK	WOOD	LOCK	8	[0, 0, 0]	-999	PAL1	1	R1091N
1011.83	0.999	1419297	START	n/a	-999	-999	n/a	n/a	n/a	n/a	8	[-999, -999, -999]	-999	PAL1	1	R1091N
1012.829	0.017	1420296	MATH_START	n/a	-999	-999	n/a	n/a	n/a	n/a	8	[0, 0, 0]	-999	PAL1	1	R1091N
1012.846	8.868	1420313	PROB	8849	-999	-999	n/a	n/a	n/a	n/a	8	[2, 8, 4]	14	PAL1	1	R1091N
1021.714	4.452	1429181	PROB	4422	-999	-999	n/a	n/a	n/a	n/a	8	[3, 1, 9]	13	PAL1	1	R1091N
1026.166	3.733	1433633	PROB	3705	-999	-999	n/a	n/a	n/a	n/a	8	[8, 2, 4]	14	PAL1	1	R1091N
1029.899	4.412	1437366	PROB	4412	-999	-999	n/a	n/a	n/a	n/a	8	[7, 3, 5]	15	PAL1	1	R1091N
1034.311	0.005	1441778	STOP	n/a	-999	-999	n/a	n/a	n/a	n/a	8	[-999, -999, -999]	-999	PAL1	1	R1091N
1034.316	0.0	1441783	MATH_END	n/a	-999	-999	n/a	n/a	n/a	n/a	8	[0, 0, 0]	-999	PAL1	1	R1091N
1034.316	0.017	1441783	TEST_START	n/a	-999	-999	n/a	n/a	n/a	n/a	8	[0, 0, 0]	-999	PAL1	1	R1091N
1034.333	0.885	1441800	TEST_ORIENT	n/a	3	1	CHIN	n/a	CHIN	RAKE	8	[0, 0, 0]	-999	PAL1	1	R1091N
1035.218	0.0	1442685	TEST_PROBE	n/a	3	1	CHIN	n/a	CHIN	RAKE	8	[0, 0, 0]	-999	PAL1	1	R1091N
1035.218	5.015	1442685	REC_START	n/a	3	-999	n/a	n/a	n/a	n/a	8	[0, 0, 0]	-999	PAL1	1	R1091N
1040.233	0.001	1447699	REC_EVENT	5015	3	1	CHIN	<>	CHIN	RAKE	8	[0, 0, 0]	-999	PAL1	1	R1091N
1040.234	0.017	1447700	REC_END	n/a	3	-999	n/a	n/a	n/a	n/a	8	[0, 0, 0]	-999	PAL1	1	R1091N
1040.251	1.017	1447717	TEST_ORIENT	n/a	4	2	STORE	SHIELD	STORE	SHIELD	8	[0, 0, 0]	-999	PAL1	1	R1091N
1041.268	0.0	1448734	REC_START	n/a	4	-999	n/a	SHIELD	n/a	n/a	8	[0, 0, 0]	-999	PAL1	1	R1091N
1041.268	1.999	1448734	TEST_PROBE	n/a	4	2	STORE	SHIELD	STORE	SHIELD	8	[0, 0, 0]	-999	PAL1	1	R1091N
1043.267	0.073	1450733	REC_EVENT	1999	4	2	STORE	<>	STORE	SHIELD	8	[0, 0, 0]	-999	PAL1	1	R1091N
1043.34	0.32	1450806	REC_EVENT	2072	4	2	STORE	STORE	STORE	SHIELD	8	[0, 0, 0]	-999	PAL1	1	R1091N
1043.66	2.625	1451126	REC_EVENT	2392	4	2	STORE	SHIELD	STORE	SHIELD	8	[0, 0, 0]	-999	PAL1	1	R1091N
1046.285	0.017	1453751	REC_END	n/a	4	-999	n/a	n/a	n/a	n/a	8	[0, 0, 0]	-999	PAL1	1	R1091N
1046.302	0.818	1453768	TEST_ORIENT	n/a	5	3	ROOF	n/a	CORD	ROOF	8	[0, 0, 0]	-999	PAL1	1	R1091N
1047.12	0.0	1454586	TEST_PROBE	n/a	5	3	ROOF	n/a	CORD	ROOF	8	[0, 0, 0]	-999	PAL1	1	R1091N
1047.12	1.682	1454586	REC_START	n/a	5	-999	n/a	n/a	n/a	n/a	8	[0, 0, 0]	-999	PAL1	1	R1091N
1048.802	3.343	1456268	REC_EVENT	1682	5	3	ROOF	<>	CORD	ROOF	8	[0, 0, 0]	-999	PAL1	1	R1091N
1052.145	0.009	1459611	REC_END	n/a	5	-999	n/a	n/a	n/a	n/a	8	[0, 0, 0]	-999	PAL1	1	R1091N
1052.154	1.017	1459620	TEST_ORIENT	n/a	2	4	FENCE	LAMP	FENCE	LAMP	8	[0, 0, 0]	-999	PAL1	1	R1091N
1053.171	0.0	1460637	TEST_PROBE	n/a	2	4	FENCE	LAMP	FENCE	LAMP	8	[0, 0, 0]	-999	PAL1	1	R1091N
1053.171	1.094	1460637	REC_START	n/a	2	-999	n/a	LAMP	n/a	n/a	8	[0, 0, 0]	-999	PAL1	1	R1091N
1054.265	0.366	1461731	REC_EVENT	1094	2	4	FENCE	<>	FENCE	LAMP	8	[0, 0, 0]	-999	PAL1	1	R1091N
1054.631	1.291	1462097	REC_EVENT	1460	2	4	FENCE	FENCE	FENCE	LAMP	8	[0, 0, 0]	-999	PAL1	1	R1091N
1055.922	0.425	1463388	REC_EVENT	2751	2	4	FENCE	FENCE	FENCE	LAMP	8	[0, 0, 0]	-999	PAL1	1	R1091N
1056.347	1.841	1463813	REC_EVENT	3176	2	4	FENCE	LAMP	FENCE	LAMP	8	[0, 0, 0]	-999	PAL1	1	R1091N
1058.188	0.017	1465654	REC_END	n/a	2	-999	n/a	n/a	n/a	n/a	8	[0, 0, 0]	-999	PAL1	1	R1091N
1058.205	0.933	1465671	TEST_ORIENT	n/a	1	5	FOX	LAMP	HOOK	FOX	8	[0, 0, 0]	-999	PAL1	1	R1091N
1059.138	0.001	1466604	TEST_PROBE	n/a	1	5	FOX	LAMP	HOOK	FOX	8	[0, 0, 0]	-999	PAL1	1	R1091N
1059.139	1.572	1466605	REC_START	n/a	1	-999	n/a	LAMP	n/a	n/a	8	[0, 0, 0]	-999	PAL1	1	R1091N
1060.711	0.232	1468177	REC_EVENT	1572	1	5	FOX	<>	HOOK	FOX	8	[0, 0, 0]	-999	PAL1	1	R1091N
1060.943	1.388	1468409	REC_EVENT	1804	1	5	FOX	FOX	HOOK	FOX	8	[0, 0, 0]	-999	PAL1	1	R1091N
1062.331	1.816	1469797	REC_EVENT	3192	1	5	FOX	LAMP	HOOK	FOX	8	[0, 0, 0]	-999	PAL1	1	R1091N
1064.147	0.009	1471613	REC_END	n/a	1	-999	n/a	n/a	n/a	n/a	8	[0, 0, 0]	-999	PAL1	1	R1091N
1064.156	0.849	1471622	TEST_ORIENT	n/a	6	6	LOCK	LOCK	WOOD	LOCK	8	[0, 0, 0]	-999	PAL1	1	R1091N
1065.005	0.0	1472470	TEST_PROBE	n/a	6	6	LOCK	LOCK	WOOD	LOCK	8	[0, 0, 0]	-999	PAL1	1	R1091N
1065.005	2.489	1472470	REC_START	n/a	6	-999	n/a	LOCK	n/a	n/a	8	[0, 0, 0]	-999	PAL1	1	R1091N
1067.494	0.283	1474959	REC_EVENT	2489	6	6	LOCK	LOCK	WOOD	LOCK	8	[0, 0, 0]	-999	PAL1	1	R1091N
1067.777	0.215	1475242	REC_EVENT	2772	6	6	LOCK	WOOD	WOOD	LOCK	8	[0, 0, 0]	-999	PAL1	1	R1091N
1067.992	0.274	1475457	REC_EVENT	2987	6	6	LOCK	WOOD	WOOD	LOCK	8	[0, 0, 0]	-999	PAL1	1	R1091N
1068.266	1.756	1475731	REC_EVENT	3261	6	6	LOCK	LOCK	WOOD	LOCK	8	[0, 0, 0]	-999	PAL1	1	R1091N
1070.022	6.849	1477487	REC_END	n/a	6	-999	n/a	n/a	n/a	n/a	8	[0, 0, 0]	-999	PAL1	1	R1091N
1076.871	10.438	1484336	ENCODING_START	n/a	0	-999	n/a	n/a	n/a	n/a	9	[0, 0, 0]	-999	PAL1	1	R1091N
1087.309	0.801	1494774	STUDY_ORIENT	n/a	1	1	CHALK	DIME	CHALK	DIME	9	[0, 0, 0]	-999	PAL1	1	R1091N
1088.11	5.034	1495575	STUDY_PAIR	n/a	1	1	CHALK	DIME	CHALK	DIME	9	[0, 0, 0]	-999	PAL1	1	R1091N
1093.144	0.95	1500608	STUDY_ORIENT	n/a	2	2	ROSE	ICE	ICE	ROSE	9	[0, 0, 0]	-999	PAL1	1	R1091N
1094.094	5.018	1501558	STUDY_PAIR	n/a	2	2	ROSE	ICE	ICE	ROSE	9	[0, 0, 0]	-999	PAL1	1	R1091N
1099.112	0.983	1506576	STUDY_ORIENT	n/a	3	5	ARK	n/a	ARK	CLOCK	9	[0, 0, 0]	-999	PAL1	1	R1091N
1100.095	5.018	1507559	STUDY_PAIR	n/a	3	5	ARK	n/a	ARK	CLOCK	9	[0, 0, 0]	-999	PAL1	1	R1091N
1105.113	0.915	1512577	STUDY_ORIENT	n/a	4	6	GOLD	TEA	LEAF	GOLD	9	[0, 0, 0]	-999	PAL1	1	R1091N
1106.028	5.018	1513492	STUDY_PAIR	n/a	4	6	GOLD	TEA	LEAF	GOLD	9	[0, 0, 0]	-999	PAL1	1	R1091N
1111.046	1.0	1518510	STUDY_ORIENT	n/a	5	3	WORM	n/a	WORM	SHARK	9	[0, 0, 0]	-999	PAL1	1	R1091N
1112.046	5.018	1519510	STUDY_PAIR	n/a	5	3	WORM	n/a	WORM	SHARK	9	[0, 0, 0]	-999	PAL1	1	R1091N
1117.064	0.917	1524528	STUDY_ORIENT	n/a	6	4	DEER	n/a	TEA	DEER	9	[0, 0, 0]	-999	PAL1	1	R1091N
1117.981	4.017	1525445	STUDY_PAIR	n/a	6	4	DEER	n/a	TEA	DEER	9	[0, 0, 0]	-999	PAL1	1	R1091N
1121.998	1.0	1529461	START	n/a	-999	-999	n/a	n/a	n/a	n/a	9	[-999, -999, -999]	-999	PAL1	1	R1091N
1122.998	0.017	1530461	MATH_START	n/a	-999	-999	n/a	n/a	n/a	n/a	9	[0, 0, 0]	-999	PAL1	1	R1091N
1123.015	5.767	1530478	PROB	5744	-999	-999	n/a	n/a	n/a	n/a	9	[3, 4, 4]	11	PAL1	1	R1091N
1128.782	8.652	1536245	PROB	8633	-999	-999	n/a	n/a	n/a	n/a	9	[8, 8, 4]	20	PAL1	1	R1091N
1137.434	4.301	1544897	PROB	4277	-999	-999	n/a	n/a	n/a	n/a	9	[4, 1, 2]	7	PAL1	1	R1091N
1141.735	10.024	1549198	PROB	10024	-999	-999	n/a	n/a	n/a	n/a	9	[5, 7, 1]	13	PAL1	1	R1091N
1151.759	0.011	1559221	STOP	n/a	-999	-999	n/a	n/a	n/a	n/a	9	[-999, -999, -999]	-999	PAL1	1	R1091N
1151.77	0.0	1559232	MATH_END	n/a	-999	-999	n/a	n/a	n/a	n/a	9	[0, 0, 0]	-999	PAL1	1	R1091N
1151.77	0.016	1559232	TEST_START	n/a	-999	-999	n/a	n/a	n/a	n/a	9	[0, 0, 0]	-999	PAL1	1	R1091N
1151.786	1.0	1559248	TEST_ORIENT	n/a	1	1	CHALK	DIME	CHALK	DIME	9	[0, 0, 0]	-999	PAL1	1	R1091N
1152.786	0.001	1560248	TEST_PROBE	n/a	1	1	CHALK	DIME	CHALK	DIME	9	[0, 0, 0]	-999	PAL1	1	R1091N
1152.787	1.064	1560249	REC_START	n/a	1	-999	n/a	DIME	n/a	n/a	9	[0, 0, 0]	-999	PAL1	1	R1091N
1153.851	0.992	1561313	REC_EVENT	1064	1	1	CHALK	CHALK	CHALK	DIME	9	[0, 0, 0]	-999	PAL1	1	R1091N
1154.843	2.952	1562305	REC_EVENT	2056	1	1	CHALK	DIME	CHALK	DIME	9	[0, 0, 0]	-999	PAL1	1	R1091N
1157.795	0.009	1565257	REC_END	n/a	1	-999	n/a	n/a	n/a	n/a	9	[0, 0, 0]	-999	PAL1	1	R1091N
1157.804	0.984	1565266	TEST_ORIENT	n/a	2	2	ROSE	ICE	ICE	ROSE	9	[0, 0, 0]	-999	PAL1	1	R1091N
1158.788	0.0	1566250	TEST_PROBE	n/a	2	2	ROSE	ICE	ICE	ROSE	9	[0, 0, 0]	-999	PAL1	1	R1091N
1158.788	0.833	1566250	REC_START	n/a	2	-999	n/a	ICE	n/a	n/a	9	[0, 0, 0]	-999	PAL1	1	R1091N
1159.621	0.72	1567083	REC_EVENT	833	2	2	ROSE	ROSE	ICE	ROSE	9	[0, 0, 0]	-999	PAL1	1	R1091N
1160.341	0.244	1567803	REC_EVENT	1553	2	2	ROSE	<>	ICE	ROSE	9	[0, 0, 0]	-999	PAL1	1	R1091N
1160.585	3.22	1568047	REC_EVENT	1797	2	2	ROSE	ICE	ICE	ROSE	9	[0, 0, 0]	-999	PAL1	1	R1091N
1163.805	0.017	1571267	REC_END	n/a	2	-999	n/a	n/a	n/a	n/a	9	[0, 0, 0]	-999	PAL1	1	R1091N
1163.822	0.966	1571284	TEST_ORIENT	n/a	5	3	WORM	n/a	WORM	SHARK	9	[0, 0, 0]	-999	PAL1	1	R1091N
1164.788	0.001	1572250	TEST_PROBE	n/a	5	3	WORM	n/a	WORM	SHARK	9	[0, 0, 0]	-999	PAL1	1	R1091N
1164.789	5.009	1572251	REC_START	n/a	5	-999	n/a	n/a	n/a	n/a	9	[0, 0, 0]	-999	PAL1	1	R1091N
1169.798	0.0	1577260	REC_EVENT	5009	5	3	WORM	<>	WORM	SHARK	9	[0, 0, 0]	-999	PAL1	1	R1091N
1169.798	0.008	1577260	REC_END	n/a	5	-999	n/a	n/a	n/a	n/a	9	[0, 0, 0]	-999	PAL1	1	R1091N
1169.806	0.95	1577268	TEST_ORIENT	n/a	6	4	DEER	n/a	TEA	DEER	9	[0, 0, 0]	-999	PAL1	1	R1091N
1170.756	0.001	1578218	TEST_PROBE	n/a	6	4	DEER	n/a	TEA	DEER	9	[0, 0, 0]	-999	PAL1	1	R1091N
1170.757	5.021	1578219	REC_START	n/a	6	-999	n/a	n/a	n/a	n/a	9	[0, 0, 0]	-999	PAL1	1	R1091N
1175.778	0.004	1583239	REC_EVENT	5021	6	4	DEER	<>	TEA	DEER	9	[0, 0, 0]	-999	PAL1	1	R1091N
1175.782	0.008	1583243	REC_END	n/a	6	-999	n/a	n/a	n/a	n/a	9	[0, 0, 0]	-999	PAL1	1	R1091N
1175.79	0.8	1583251	TEST_ORIENT	n/a	3	5	ARK	n/a	ARK	CLOCK	9	[0, 0, 0]	-999	PAL1	1	R1091N
1176.59	0.001	1584051	TEST_PROBE	n/a	3	5	ARK	n/a	ARK	CLOCK	9	[0, 0, 0]	-999	PAL1	1	R1091N
1176.591	5.008	1584052	REC_START	n/a	3	-999	n/a	n/a	n/a	n/a	9	[0, 0, 0]	-999	PAL1	1	R1091N
1181.599	0.001	1589060	REC_END	n/a	3	-999	n/a	n/a	n/a	n/a	9	[0, 0, 0]	-999	PAL1	1	R1091N
1181.6	0.008	1589061	REC_EVENT	5009	3	5	ARK	<>	ARK	CLOCK	9	[0, 0, 0]	-999	PAL1	1	R1091N
1181.608	0.967	1589069	TEST_ORIENT	n/a	4	6	GOLD	TEA	LEAF	GOLD	9	[0, 0, 0]	-999	PAL1	1	R1091N
1182.575	0.0	1590036	REC_START	n/a	4	-999	n/a	TEA	n/a	n/a	9	[0, 0, 0]	-999	PAL1	1	R1091N
1182.575	2.467	1590036	TEST_PROBE	n/a	4	6	GOLD	TEA	LEAF	GOLD	9	[0, 0, 0]	-999	PAL1	1	R1091N
1185.042	2.55	1592503	REC_EVENT	2467	4	6	GOLD	TEA	LEAF	GOLD	9	[0, 0, 0]	-999	PAL1	1	R1091N
1187.592	5.855	1595053	REC_END	n/a	4	-999	n/a	n/a	n/a	n/a	9	[0, 0, 0]	-999	PAL1	1	R1091N
1193.447	10.448	1600908	ENCODING_START	n/a	0	-999	n/a	n/a	n/a	n/a	10	[0, 0, 0]	-999	PAL1	1	R1091N
1203.895	0.984	1611355	STUDY_ORIENT	n/a	1	5	PEACH	n/a	FILM	PEACH	10	[0, 0, 0]	-999	PAL1	1	R1091N
1204.879	5.034	1612339	STUDY_PAIR	n/a	1	5	PEACH	n/a	FILM	PEACH	10	[0, 0, 0]	-999	PAL1	1	R1091N
1209.913	0.867	1617373	STUDY_ORIENT	n/a	2	4	SLEEVE	n/a	DOLL	SLEEVE	10	[0, 0, 0]	-999	PAL1	1	R1091N
1210.78	5.034	1618240	STUDY_PAIR	n/a	2	4	SLEEVE	n/a	DOLL	SLEEVE	10	[0, 0, 0]	-999	PAL1	1	R1091N
1215.814	0.9	1623274	STUDY_ORIENT	n/a	3	3	HAT	n/a	WOLF	HAT	10	[0, 0, 0]	-999	PAL1	1	R1091N
1216.714	5.034	1624174	STUDY_PAIR	n/a	3	3	HAT	n/a	WOLF	HAT	10	[0, 0, 0]	-999	PAL1	1	R1091N
1221.748	1.0	1629208	STUDY_ORIENT	n/a	4	2	VEST	n/a	VEST	MULE	10	[0, 0, 0]	-999	PAL1	1	R1091N
1222.748	5.018	1630208	STUDY_PAIR	n/a	4	2	VEST	n/a	VEST	MULE	10	[0, 0, 0]	-999	PAL1	1	R1091N
1227.766	0.85	1635225	STUDY_ORIENT	n/a	5	1	AXE	n/a	TAIL	AXE	10	[0, 0, 0]	-999	PAL1	1	R1091N
1228.616	5.034	1636075	STUDY_PAIR	n/a	5	1	AXE	n/a	TAIL	AXE	10	[0, 0, 0]	-999	PAL1	1	R1091N
1233.65	1.017	1641109	STUDY_ORIENT	n/a	6	6	FAN	n/a	CUP	FAN	10	[0, 0, 0]	-999	PAL1	1	R1091N
1234.667	4.018	1642126	STUDY_PAIR	n/a	6	6	FAN	n/a	CUP	FAN	10	[0, 0, 0]	-999	PAL1	1	R1091N
1238.685	0.999	1646144	START	n/a	-999	-999	n/a	n/a	n/a	n/a	10	[-999, -999, -999]	-999	PAL1	1	R1091N
1239.684	0.017	1647143	MATH_START	n/a	-999	-999	n/a	n/a	n/a	n/a	10	[0, 0, 0]	-999	PAL1	1	R1091N
1239.701	8.768	1647160	PROB	8746	-999	-999	n/a	n/a	n/a	n/a	10	[7, 2, 9]	18	PAL1	1	R1091N
1248.469	20.602	1655928	PROB	20602	-999	-999	n/a	n/a	n/a	n/a	10	[9, 8, 8]	24	PAL1	1	R1091N
1269.071	0.018	1676529	STOP	n/a	-999	-999	n/a	n/a	n/a	n/a	10	[-999, -999, -999]	-999	PAL1	1	R1091N
1269.089	0.0	1676547	MATH_END	n/a	-999	-999	n/a	n/a	n/a	n/a	10	[0, 0, 0]	-999	PAL1	1	R1091N
1269.089	0.018	1676547	TEST_START	n/a	-999	-999	n/a	n/a	n/a	n/a	10	[0, 0, 0]	-999	PAL1	1	R1091N
1269.107	0.949	1676565	TEST_ORIENT	n/a	5	1	AXE	n/a	TAIL	AXE	10	[0, 0, 0]	-999	PAL1	1	R1091N
1270.056	0.001	1677514	TEST_PROBE	n/a	5	1	AXE	n/a	TAIL	AXE	10	[0, 0, 0]	-999	PAL1	1	R1091N
1270.057	0.0	1677515	REC_START	n/a	5	-999	n/a	n/a	n/a	n/a	10	[0, 0, 0]	-999	PAL1	1	R1091N
1270.057	1.0	1677515	REC_EVENT	0	5	1	AXE	<>	TAIL	AXE	10	[0, 0, 0]	-999	PAL1	1	R1091N
1271.057	2.584	1678515	REC_EVENT	1000	5	1	AXE	<>	TAIL	AXE	10	[0, 0, 0]	-999	PAL1	1	R1091N
1273.641	1.425	1681099	REC_EVENT	3584	5	1	AXE	<>	TAIL	AXE	10	[0, 0, 0]	-999	PAL1	1	R1091N
1275.066	0.008	1682524	REC_END	n/a	5	-999	n/a	n/a	n/a	n/a	10	[0, 0, 0]	-999	PAL1	1	R1091N
1275.074	0.95	1682532	TEST_ORIENT	n/a	4	2	VEST	n/a	VEST	MULE	10	[0, 0, 0]	-999	PAL1	1	R1091N
1276.024	0.0	1683482	REC_START	n/a	4	-999	n/a	n/a	n/a	n/a	10	[0, 0, 0]	-999	PAL1	1	R1091N
1276.024	0.391	1683482	TEST_PROBE	n/a	4	2	VEST	n/a	VEST	MULE	10	[0, 0, 0]	-999	PAL1	1	R1091N
1276.415	1.0	1683873	REC_EVENT	391	4	2	VEST	<>	VEST	MULE	10	[0, 0, 0]	-999	PAL1	1	R1091N
1277.415	1.0	1684873	REC_EVENT	1391	4	2	VEST	<>	VEST	MULE	10	[0, 0, 0]	-999	PAL1	1	R1091N
1278.415	1.0	1685873	REC_EVENT	2391	4	2	VEST	<>	VEST	MULE	10	[0, 0, 0]	-999	PAL1	1	R1091N
1279.415	1.626	1686873	REC_EVENT	3391	4	2	VEST	<>	VEST	MULE	10	[0, 0, 0]	-999	PAL1	1	R1091N
1281.041	0.017	1688499	REC_END	n/a	4	-999	n/a	n/a	n/a	n/a	10	[0, 0, 0]	-999	PAL1	1	R1091N
1281.058	0.95	1688516	TEST_ORIENT	n/a	3	3	HAT	n/a	WOLF	HAT	10	[0, 0, 0]	-999	PAL1	1	R1091N
1282.008	0.001	1689466	TEST_PROBE	n/a	3	3	HAT	n/a	WOLF	HAT	10	[0, 0, 0]	-999	PAL1	1	R1091N
1282.009	1.058	1689467	REC_START	n/a	3	-999	n/a	n/a	n/a	n/a	10	[0, 0, 0]	-999	PAL1	1	R1091N
1283.067	1.0	1690524	REC_EVENT	1058	3	3	HAT	<>	WOLF	HAT	10	[0, 0, 0]	-999	PAL1	1	R1091N
1284.067	2.95	1691524	REC_EVENT	2058	3	3	HAT	<>	WOLF	HAT	10	[0, 0, 0]	-999	PAL1	1	R1091N
1287.017	0.009	1694474	REC_END	n/a	3	-999	n/a	n/a	n/a	n/a	10	[0, 0, 0]	-999	PAL1	1	R1091N
1287.026	0.917	1694483	TEST_ORIENT	n/a	2	4	SLEEVE	n/a	DOLL	SLEEVE	10	[0, 0, 0]	-999	PAL1	1	R1091N
1287.943	0.0	1695400	TEST_PROBE	n/a	2	4	SLEEVE	n/a	DOLL	SLEEVE	10	[0, 0, 0]	-999	PAL1	1	R1091N
1287.943	3.229	1695400	REC_START	n/a	2	-999	n/a	n/a	n/a	n/a	10	[0, 0, 0]	-999	PAL1	1	R1091N
1291.172	1.0	1698629	REC_EVENT	3229	2	4	SLEEVE	<>	DOLL	SLEEVE	10	[0, 0, 0]	-999	PAL1	1	R1091N
1292.172	0.796	1699629	REC_EVENT	4229	2	4	SLEEVE	<>	DOLL	SLEEVE	10	[0, 0, 0]	-999	PAL1	1	R1091N
1292.968	0.009	1700425	REC_END	n/a	2	-999	n/a	n/a	n/a	n/a	10	[0, 0, 0]	-999	PAL1	1	R1091N
1292.977	1.033	1700434	TEST_ORIENT	n/a	1	5	PEACH	n/a	FILM	PEACH	10	[0, 0, 0]	-999	PAL1	1	R1091N
1294.01	0.0	1701467	REC_START	n/a	1	-999	n/a	n/a	n/a	n/a	10	[0, 0, 0]	-999	PAL1	1	R1091N
1294.01	0.43	1701467	TEST_PROBE	n/a	1	5	PEACH	n/a	FILM	PEACH	10	[0, 0, 0]	-999	PAL1	1	R1091N
1294.44	1.0	1701897	REC_EVENT	430	1	5	PEACH	<>	FILM	PEACH	10	[0, 0, 0]	-999	PAL1	1	R1091N
1295.44	1.0	1702897	REC_EVENT	1430	1	5	PEACH	<>	FILM	PEACH	10	[0, 0, 0]	-999	PAL1	1	R1091N
1296.44	1.0	1703897	REC_EVENT	2430	1	5	PEACH	<>	FILM	PEACH	10	[0, 0, 0]	-999	PAL1	1	R1091N
1297.44	1.588	1704897	REC_EVENT	3430	1	5	PEACH	<>	FILM	PEACH	10	[0, 0, 0]	-999	PAL1	1	R1091N
1299.028	0.016	1706485	REC_END	n/a	1	-999	n/a	n/a	n/a	n/a	10	[0, 0, 0]	-999	PAL1	1	R1091N
1299.044	0.8	1706501	TEST_ORIENT	n/a	6	6	FAN	n/a	CUP	FAN	10	[0, 0, 0]	-999	PAL1	1	R1091N
1299.844	0.001	1707301	TEST_PROBE	n/a	6	6	FAN	n/a	CUP	FAN	10	[0, 0, 0]	-999	PAL1	1	R1091N
1299.845	5.009	1707302	REC_START	n/a	6	-999	n/a	n/a	n/a	n/a	10	[0, 0, 0]	-999	PAL1	1	R1091N
1304.854	0.0	1712311	REC_END	n/a	6	-999	n/a	n/a	n/a	n/a	10	[0, 0, 0]	-999	PAL1	1	R1091N
1304.854	2.857	1712311	REC_EVENT	5009	6	6	FAN	<>	CUP	FAN	10	[0, 0, 0]	-999	PAL1	1	R1091N
1307.711	10.454	1715168	ENCODING_START	n/a	0	-999	n/a	n/a	n/a	n/a	11	[0, 0, 0]	-999	PAL1	1	R1091N
1318.165	0.9	1725621	STUDY_ORIENT	n/a	1	3	DESK	n/a	DESK	GRAPE	11	[0, 0, 0]	-999	PAL1	1	R1091N
1319.065	5.035	1726521	STUDY_PAIR	n/a	1	3	DESK	n/a	DESK	GRAPE	11	[0, 0, 0]	-999	PAL1	1	R1091N
1324.1	0.982	1731556	STUDY_ORIENT	n/a	2	4	TRASH	n/a	TRASH	JUICE	11	[0, 0, 0]	-999	PAL1	1	R1091N
1325.082	5.019	1732538	STUDY_PAIR	n/a	2	4	TRASH	n/a	TRASH	JUICE	11	[0, 0, 0]	-999	PAL1	1	R1091N
1330.101	1.0	1737557	STUDY_ORIENT	n/a	3	5	SCHOOL	n/a	COW	SCHOOL	11	[0, 0, 0]	-999	PAL1	1	R1091N
1331.101	5.034	1738557	STUDY_PAIR	n/a	3	5	SCHOOL	n/a	COW	SCHOOL	11	[0, 0, 0]	-999	PAL1	1	R1091N
1336.135	0.949	1743591	STUDY_ORIENT	n/a	4	6	BUSH	n/a	STOVE	BUSH	11	[0, 0, 0]	-999	PAL1	1	R1091N
1337.084	5.019	1744539	STUDY_PAIR	n/a	4	6	BUSH	n/a	STOVE	BUSH	11	[0, 0, 0]	-999	PAL1	1	R1091N
1342.103	0.799	1749558	STUDY_ORIENT	n/a	5	1	CAVE	n/a	TIE	CAVE	11	[0, 0, 0]	-999	PAL1	1	R1091N
1342.902	5.034	1750357	STUDY_PAIR	n/a	5	1	CAVE	n/a	TIE	CAVE	11	[0, 0, 0]	-999	PAL1	1	R1091N
1347.936	0.867	1755391	STUDY_ORIENT	n/a	6	2	APE	n/a	GOAT	APE	11	[0, 0, 0]	-999	PAL1	1	R1091N
1348.803	4.018	1756258	STUDY_PAIR	n/a	6	2	APE	n/a	GOAT	APE	11	[0, 0, 0]	-999	PAL1	1	R1091N
1352.821	0.999	1760276	START	n/a	-999	-999	n/a	n/a	n/a	n/a	11	[-999, -999, -999]	-999	PAL1	1	R1091N
1353.82	0.017	1761275	MATH_START	n/a	-999	-999	n/a	n/a	n/a	n/a	11	[0, 0, 0]	-999	PAL1	1	R1091N
1353.837	5.234	1761292	PROB	5210	-999	-999	n/a	n/a	n/a	n/a	11	[4, 6, 9]	19	PAL1	1	R1091N
1359.071	5.518	1766526	PROB	5488	-999	-999	n/a	n/a	n/a	n/a	11	[3, 5, 2]	10	PAL1	1	R1091N
1364.589	9.547	1772043	PROB	9547	-999	-999	n/a	n/a	n/a	n/a	11	[2, 7, 9]	18	PAL1	1	R1091N
1374.136	0.006	1781590	STOP	n/a	-999	-999	n/a	n/a	n/a	n/a	11	[-999, -999, -999]	-999	PAL1	1	R1091N
1374.142	0.0	1781596	MATH_END	n/a	-999	-999	n/a	n/a	n/a	n/a	11	[0, 0, 0]	-999	PAL1	1	R1091N
1374.142	0.016	1781596	TEST_START	n/a	-999	-999	n/a	n/a	n/a	n/a	11	[0, 0, 0]	-999	PAL1	1	R1091N
1374.158	0.933	1781612	TEST_ORIENT	n/a	5	1	CAVE	n/a	TIE	CAVE	11	[0, 0, 0]	-999	PAL1	1	R1091N
1375.091	0.001	1782545	TEST_PROBE	n/a	5	1	CAVE	n/a	TIE	CAVE	11	[0, 0, 0]	-999	PAL1	1	R1091N
1375.092	4.441	1782546	REC_START	n/a	5	-999	n/a	n/a	n/a	n/a	11	[0, 0, 0]	-999	PAL1	1	R1091N
1379.533	0.584	1786987	REC_EVENT	4441	5	1	CAVE	<>	TIE	CAVE	11	[0, 0, 0]	-999	PAL1	1	R1091N
1380.117	0.009	1787571	REC_END	n/a	5	-999	n/a	n/a	n/a	n/a	11	[0, 0, 0]	-999	PAL1	1	R1091N
1380.126	1.033	1787580	TEST_ORIENT	n/a	6	2	APE	n/a	GOAT	APE	11	[0, 0, 0]	-999	PAL1	1	R1091N
1381.159	0.001	1788613	TEST_PROBE	n/a	6	2	APE	n/a	GOAT	APE	11	[0, 0, 0]	-999	PAL1	1	R1091N
1381.16	5.008	1788614	REC_START	n/a	6	-999	n/a	n/a	n/a	n/a	11	[0, 0, 0]	-999	PAL1	1	R1091N
1386.168	0.001	1793622	REC_END	n/a	6	-999	n/a	n/a	n/a	n/a	11	[0, 0, 0]	-999	PAL1	1	R1091N
1386.169	0.008	1793623	REC_EVENT	5009	6	2	APE	<>	GOAT	APE	11	[0, 0, 0]	-999	PAL1	1	R1091N
1386.177	0.816	1793631	TEST_ORIENT	n/a	1	3	DESK	n/a	DESK	GRAPE	11	[0, 0, 0]	-999	PAL1	1	R1091N
1386.993	0.0	1794447	REC_START	n/a	1	-999	n/a	n/a	n/a	n/a	11	[0, 0, 0]	-999	PAL1	1	R1091N
1386.993	5.015	1794447	TEST_PROBE	n/a	1	3	DESK	n/a	DESK	GRAPE	11	[0, 0, 0]	-999	PAL1	1	R1091N
1392.008	0.002	1799461	REC_EVENT	5015	1	3	DESK	<>	DESK	GRAPE	11	[0, 0, 0]	-999	PAL1	1	R1091N
1392.01	0.017	1799463	REC_END	n/a	1	-999	n/a	n/a	n/a	n/a	11	[0, 0, 0]	-999	PAL1	1	R1091N
1392.027	0.967	1799480	TEST_ORIENT	n/a	2	4	TRASH	n/a	TRASH	JUICE	11	[0, 0, 0]	-999	PAL1	1	R1091N
1392.994	0.0	1800447	TEST_PROBE	n/a	2	4	TRASH	n/a	TRASH	JUICE	11	[0, 0, 0]	-999	PAL1	1	R1091N
1392.994	5.015	1800447	REC_START	n/a	2	-999	n/a	n/a	n/a	n/a	11	[0, 0, 0]	-999	PAL1	1	R1091N
1398.009	0.002	1805462	REC_EVENT	5015	2	4	TRASH	<>	TRASH	JUICE	11	[0, 0, 0]	-999	PAL1	1	R1091N
1398.011	0.017	1805464	REC_END	n/a	2	-999	n/a	n/a	n/a	n/a	11	[0, 0, 0]	-999	PAL1	1	R1091N
1398.028	0.95	1805481	TEST_ORIENT	n/a	3	5	SCHOOL	n/a	COW	SCHOOL	11	[0, 0, 0]	-999	PAL1	1	R1091N
1398.978	0.001	1806431	TEST_PROBE	n/a	3	5	SCHOOL	n/a	COW	SCHOOL	11	[0, 0, 0]	-999	PAL1	1	R1091N
1398.979	1.6	1806432	REC_START	n/a	3	-999	n/a	n/a	n/a	n/a	11	[0, 0, 0]	-999	PAL1	1	R1091N
1400.579	1.11	1808032	REC_EVENT	1600	3	5	SCHOOL	<>	COW	SCHOOL	11	[0, 0, 0]	-999	PAL1	1	R1091N
1401.689	1.0	1809142	REC_EVENT	2710	3	5	SCHOOL	<>	COW	SCHOOL	11	[0, 0, 0]	-999	PAL1	1	R1091N
1402.689	1.306	1810142	REC_EVENT	3710	3	5	SCHOOL	<>	COW	SCHOOL	11	[0, 0, 0]	-999	PAL1	1	R1091N
1403.995	0.017	1811448	REC_END	n/a	3	-999	n/a	n/a	n/a	n/a	11	[0, 0, 0]	-999	PAL1	1	R1091N
1404.012	0.984	1811465	TEST_ORIENT	n/a	4	6	BUSH	n/a	STOVE	BUSH	11	[0, 0, 0]	-999	PAL1	1	R1091N
1404.996	0.0	1812449	TEST_PROBE	n/a	4	6	BUSH	n/a	STOVE	BUSH	11	[0, 0, 0]	-999	PAL1	1	R1091N
1404.996	5.015	1812449	REC_START	n/a	4	-999	n/a	n/a	n/a	n/a	11	[0, 0, 0]	-999	PAL1	1	R1091N
1410.011	0.002	1817464	REC_EVENT	5015	4	6	BUSH	<>	STOVE	BUSH	11	[0, 0, 0]	-999	PAL1	1	R1091N
1410.013	1.514	1817466	REC_END	n/a	4	-999	n/a	n/a	n/a	n/a	11	[0, 0, 0]	-999	PAL1	1	R1091N
1411.527	10.438	1818980	ENCODING_START	n/a	0	-999	n/a	n/a	n/a	n/a	12	[0, 0, 0]	-999	PAL1	1	R1091N
1421.965	1.001	1829417	STUDY_ORIENT	n/a	1	1	JAR	SNOW	SNOW	JAR	12	[0, 0, 0]	-999	PAL1	1	R1091N
1422.966	5.034	1830418	STUDY_PAIR	n/a	1	1	JAR	SNOW	SNOW	JAR	12	[0, 0, 0]	-999	PAL1	1	R1091N
1428.0	0.8	1835452	STUDY_ORIENT	n/a	2	2	MOLE	n/a	RAIN	MOLE	12	[0, 0, 0]	-999	PAL1	1	R1091N
1428.8	5.034	1836252	STUDY_PAIR	n/a	2	2	MOLE	n/a	RAIN	MOLE	12	[0, 0, 0]	-999	PAL1	1	R1091N
1433.834	0.833	1841286	STUDY_ORIENT	n/a	3	5	BEACH	n/a	BEACH	FUDGE	12	[0, 0, 0]	-999	PAL1	1	R1091N
1434.667	5.018	1842119	STUDY_PAIR	n/a	3	5	BEACH	n/a	BEACH	FUDGE	12	[0, 0, 0]	-999	PAL1	1	R1091N
1439.685	0.983	1847137	STUDY_ORIENT	n/a	4	4	RICE	n/a	HOLE	RICE	12	[0, 0, 0]	-999	PAL1	1	R1091N
1440.668	5.018	1848120	STUDY_PAIR	n/a	4	4	RICE	n/a	HOLE	RICE	12	[0, 0, 0]	-999	PAL1	1	R1091N
1445.686	0.884	1853137	STUDY_ORIENT	n/a	5	3	FUR	n/a	FUR	CHAIR	12	[0, 0, 0]	-999	PAL1	1	R1091N
1446.57	5.034	1854021	STUDY_PAIR	n/a	5	3	FUR	n/a	FUR	CHAIR	12	[0, 0, 0]	-999	PAL1	1	R1091N
1451.604	0.966	1859055	STUDY_ORIENT	n/a	6	6	MUG	n/a	MUG	JAIL	12	[0, 0, 0]	-999	PAL1	1	R1091N
1452.57	4.001	1860021	STUDY_PAIR	n/a	6	6	MUG	n/a	MUG	JAIL	12	[0, 0, 0]	-999	PAL1	1	R1091N
1456.571	1.0	1864022	START	n/a	-999	-999	n/a	n/a	n/a	n/a	12	[-999, -999, -999]	-999	PAL1	1	R1091N
1457.571	0.017	1865022	MATH_START	n/a	-999	-999	n/a	n/a	n/a	n/a	12	[0, 0, 0]	-999	PAL1	1	R1091N
1457.588	4.334	1865039	PROB	4315	-999	-999	n/a	n/a	n/a	n/a	12	[7, 6, 4]	17	PAL1	1	R1091N
1461.922	4.351	1869373	PROB	4325	-999	-999	n/a	n/a	n/a	n/a	12	[6, 1, 7]	14	PAL1	1	R1091N
1466.273	9.685	1873724	PROB	9662	-999	-999	n/a	n/a	n/a	n/a	12	[4, 8, 5]	19	PAL1	1	R1091N
1475.958	6.441	1883408	PROB	6441	-999	-999	n/a	n/a	n/a	n/a	12	[5, 1, 7]	13	PAL1	1	R1091N
1482.399	0.01	1889849	STOP	n/a	-999	-999	n/a	n/a	n/a	n/a	12	[-999, -999, -999]	-999	PAL1	1	R1091N
1482.409	0.0	1889859	MATH_END	n/a	-999	-999	n/a	n/a	n/a	n/a	12	[0, 0, 0]	-999	PAL1	1	R1091N
1482.409	0.017	1889859	TEST_START	n/a	-999	-999	n/a	n/a	n/a	n/a	12	[0, 0, 0]	-999	PAL1	1	R1091N
1482.426	0.85	1889876	TEST_ORIENT	n/a	1	1	JAR	SNOW	SNOW	JAR	12	[0, 0, 0]	-999	PAL1	1	R1091N
1483.276	0.0	1890726	TEST_PROBE	n/a	1	1	JAR	SNOW	SNOW	JAR	12	[0, 0, 0]	-999	PAL1	1	R1091N
1483.276	1.677	1890726	REC_START	n/a	1	-999	n/a	SNOW	n/a	n/a	12	[0, 0, 0]	-999	PAL1	1	R1091N
1484.953	3.34	1892403	REC_EVENT	1677	1	1	JAR	SNOW	SNOW	JAR	12	[0, 0, 0]	-999	PAL1	1	R1091N
1488.293	0.017	1895743	REC_END	n/a	1	-999	n/a	n/a	n/a	n/a	12	[0, 0, 0]	-999	PAL1	1	R1091N
1488.31	0.917	1895760	TEST_ORIENT	n/a	2	2	MOLE	n/a	RAIN	MOLE	12	[0, 0, 0]	-999	PAL1	1	R1091N
1489.227	0.0	1896677	TEST_PROBE	n/a	2	2	MOLE	n/a	RAIN	MOLE	12	[0, 0, 0]	-999	PAL1	1	R1091N
1489.227	5.015	1896677	REC_START	n/a	2	-999	n/a	n/a	n/a	n/a	12	[0, 0, 0]	-999	PAL1	1	R1091N
1494.242	0.002	1901692	REC_EVENT	5015	2	2	MOLE	<>	RAIN	MOLE	12	[0, 0, 0]	-999	PAL1	1	R1091N
1494.244	0.017	1901694	REC_END	n/a	2	-999	n/a	n/a	n/a	n/a	12	[0, 0, 0]	-999	PAL1	1	R1091N
1494.261	0.901	1901711	TEST_ORIENT	n/a	5	3	FUR	n/a	FUR	CHAIR	12	[0, 0, 0]	-999	PAL1	1	R1091N
1495.162	0.0	1902612	TEST_PROBE	n/a	5	3	FUR	n/a	FUR	CHAIR	12	[0, 0, 0]	-999	PAL1	1	R1091N
1495.162	4.61	1902612	REC_START	n/a	5	-999	n/a	n/a	n/a	n/a	12	[0, 0, 0]	-999	PAL1	1	R1091N
1499.772	0.407	1907222	REC_EVENT	4610	5	3	FUR	<>	FUR	CHAIR	12	[0, 0, 0]	-999	PAL1	1	R1091N
1500.179	0.017	1907628	REC_END	n/a	5	-999	n/a	n/a	n/a	n/a	12	[0, 0, 0]	-999	PAL1	1	R1091N
1500.196	0.849	1907645	TEST_ORIENT	n/a	4	4	RICE	n/a	HOLE	RICE	12	[0, 0, 0]	-999	PAL1	1	R1091N
1501.045	0.001	1908494	TEST_PROBE	n/a	4	4	RICE	n/a	HOLE	RICE	12	[0, 0, 0]	-999	PAL1	1	R1091N
1501.046	1.718	1908495	REC_START	n/a	4	-999	n/a	n/a	n/a	n/a	12	[0, 0, 0]	-999	PAL1	1	R1091N
1502.764	1.0	1910213	REC_EVENT	1718	4	4	RICE	<>	HOLE	RICE	12	[0, 0, 0]	-999	PAL1	1	R1091N
1503.764	2.291	1911213	REC_EVENT	2718	4	4	RICE	<>	HOLE	RICE	12	[0, 0, 0]	-999	PAL1	1	R1091N
1506.055	0.008	1913504	REC_END	n/a	4	-999	n/a	n/a	n/a	n/a	12	[0, 0, 0]	-999	PAL1	1	R1091N
1506.063	0.817	1913512	TEST_ORIENT	n/a	3	5	BEACH	n/a	BEACH	FUDGE	12	[0, 0, 0]	-999	PAL1	1	R1091N
1506.88	0.0	1914329	REC_START	n/a	3	-999	n/a	n/a	n/a	n/a	12	[0, 0, 0]	-999	PAL1	1	R1091N
1506.88	5.015	1914329	TEST_PROBE	n/a	3	5	BEACH	n/a	BEACH	FUDGE	12	[0, 0, 0]	-999	PAL1	1	R1091N
1511.895	0.002	1919344	REC_EVENT	5015	3	5	BEACH	<>	BEACH	FUDGE	12	[0, 0, 0]	-999	PAL1	1	R1091N
1511.897	0.017	1919346	REC_END	n/a	3	-999	n/a	n/a	n/a	n/a	12	[0, 0, 0]	-999	PAL1	1	R1091N
1511.914	0.833	1919363	TEST_ORIENT	n/a	6	6	MUG	n/a	MUG	JAIL	12	[0, 0, 0]	-999	PAL1	1	R1091N
1512.747	0.001	1920196	TEST_PROBE	n/a	6	6	MUG	n/a	MUG	JAIL	12	[0, 0, 0]	-999	PAL1	1	R1091N
1512.748	5.008	1920197	REC_START	n/a	6	-999	n/a	n/a	n/a	n/a	12	[0, 0, 0]	-999	PAL1	1	R1091N
1517.756	0.001	1925205	REC_END	n/a	6	-999	n/a	n/a	n/a	n/a	12	[0, 0, 0]	-999	PAL1	1	R1091N
1517.757	1.49	1925206	REC_EVENT	5009	6	6	MUG	<>	MUG	JAIL	12	[0, 0, 0]	-999	PAL1	1	R1091N
1519.247	10.453	1926696	ENCODING_START	n/a	0	-999	n/a	n/a	n/a	n/a	13	[0, 0, 0]	-999	PAL1	1	R1091N
1529.7	0.95	1937148	STUDY_ORIENT	n/a	1	1	NEST	n/a	BANK	NEST	13	[0, 0, 0]	-999	PAL1	1	R1091N
1530.65	5.018	1938098	STUDY_PAIR	n/a	1	1	NEST	n/a	BANK	NEST	13	[0, 0, 0]	-999	PAL1	1	R1091N
1535.668	0.883	1943116	STUDY_ORIENT	n/a	2	4	OAR	n/a	OAR	OAK	13	[0, 0, 0]	-999	PAL1	1	R1091N
1536.551	5.018	1943999	STUDY_PAIR	n/a	2	4	OAR	n/a	OAR	OAK	13	[0, 0, 0]	-999	PAL1	1	R1091N
1541.569	0.983	1949017	STUDY_ORIENT	n/a	3	5	SLUSH	n/a	SLUSH	TEETH	13	[0, 0, 0]	-999	PAL1	1	R1091N
1542.552	5.018	1950000	STUDY_PAIR	n/a	3	5	SLUSH	n/a	SLUSH	TEETH	13	[0, 0, 0]	-999	PAL1	1	R1091N
1547.57	1.017	1955018	STUDY_ORIENT	n/a	4	6	SMOKE	n/a	SMOKE	BRANCH	13	[0, 0, 0]	-999	PAL1	1	R1091N
1548.587	5.034	1956035	STUDY_PAIR	n/a	4	6	SMOKE	n/a	SMOKE	BRANCH	13	[0, 0, 0]	-999	PAL1	1	R1091N
1553.621	0.783	1961069	STUDY_ORIENT	n/a	5	3	GATE	n/a	WORLD	GATE	13	[0, 0, 0]	-999	PAL1	1	R1091N
1554.404	5.018	1961852	STUDY_PAIR	n/a	5	3	GATE	n/a	WORLD	GATE	13	[0, 0, 0]	-999	PAL1	1	R1091N
1559.422	0.867	1966869	STUDY_ORIENT	n/a	6	2	STRAW	n/a	STRAW	PET	13	[0, 0, 0]	-999	PAL1	1	R1091N
1560.289	4.018	1967736	STUDY_PAIR	n/a	6	2	STRAW	n/a	STRAW	PET	13	[0, 0, 0]	-999	PAL1	1	R1091N
1564.307	0.999	1971754	START	n/a	-999	-999	n/a	n/a	n/a	n/a	13	[-999, -999, -999]	-999	PAL1	1	R1091N
1565.306	0.017	1972753	MATH_START	n/a	-999	-999	n/a	n/a	n/a	n/a	13	[0, 0, 0]	-999	PAL1	1	R1091N
1565.323	6.468	1972770	PROB	6444	-999	-999	n/a	n/a	n/a	n/a	13	[6, 3, 8]	17	PAL1	1	R1091N
1571.791	6.701	1979238	PROB	6672	-999	-999	n/a	n/a	n/a	n/a	13	[6, 3, 8]	17	PAL1	1	R1091N
1578.492	5.051	1985939	PROB	5019	-999	-999	n/a	n/a	n/a	n/a	13	[2, 7, 9]	18	PAL1	1	R1091N
1583.543	3.528	1990989	PROB	3528	-999	-999	n/a	n/a	n/a	n/a	13	[1, 3, 7]	11	PAL1	1	R1091N
1587.071	0.006	1994517	STOP	n/a	-999	-999	n/a	n/a	n/a	n/a	13	[-999, -999, -999]	-999	PAL1	1	R1091N
1587.077	0.0	1994523	MATH_END	n/a	-999	-999	n/a	n/a	n/a	n/a	13	[0, 0, 0]	-999	PAL1	1	R1091N
1587.077	0.017	1994523	TEST_START	n/a	-999	-999	n/a	n/a	n/a	n/a	13	[0, 0, 0]	-999	PAL1	1	R1091N
1587.094	1.0	1994540	TEST_ORIENT	n/a	1	1	NEST	n/a	BANK	NEST	13	[0, 0, 0]	-999	PAL1	1	R1091N
1588.094	0.0	1995540	TEST_PROBE	n/a	1	1	NEST	n/a	BANK	NEST	13	[0, 0, 0]	-999	PAL1	1	R1091N
1588.094	5.003	1995540	REC_START	n/a	1	-999	n/a	n/a	n/a	n/a	13	[0, 0, 0]	-999	PAL1	1	R1091N
1593.097	0.006	2000543	REC_EVENT	5003	1	1	NEST	<>	BANK	NEST	13	[0, 0, 0]	-999	PAL1	1	R1091N
1593.103	0.009	2000549	REC_END	n/a	1	-999	n/a	n/a	n/a	n/a	13	[0, 0, 0]	-999	PAL1	1	R1091N
1593.112	0.849	2000558	TEST_ORIENT	n/a	6	2	STRAW	n/a	STRAW	PET	13	[0, 0, 0]	-999	PAL1	1	R1091N
1593.961	0.001	2001407	TEST_PROBE	n/a	6	2	STRAW	n/a	STRAW	PET	13	[0, 0, 0]	-999	PAL1	1	R1091N
1593.962	2.855	2001408	REC_START	n/a	6	-999	n/a	n/a	n/a	n/a	13	[0, 0, 0]	-999	PAL1	1	R1091N
1596.817	1.0	2004263	REC_EVENT	2855	6	2	STRAW	<>	STRAW	PET	13	[0, 0, 0]	-999	PAL1	1	R1091N
1597.817	1.0	2005263	REC_EVENT	3855	6	2	STRAW	<>	STRAW	PET	13	[0, 0, 0]	-999	PAL1	1	R1091N
1598.817	0.161	2006263	REC_EVENT	4855	6	2	STRAW	<>	STRAW	PET	13	[0, 0, 0]	-999	PAL1	1	R1091N
1598.978	0.017	2006424	REC_END	n/a	6	-999	n/a	n/a	n/a	n/a	13	[0, 0, 0]	-999	PAL1	1	R1091N
1598.995	0.95	2006441	TEST_ORIENT	n/a	5	3	GATE	n/a	WORLD	GATE	13	[0, 0, 0]	-999	PAL1	1	R1091N
1599.945	0.001	2007391	TEST_PROBE	n/a	5	3	GATE	n/a	WORLD	GATE	13	[0, 0, 0]	-999	PAL1	1	R1091N
1599.946	0.295	2007392	REC_START	n/a	5	-999	n/a	n/a	n/a	n/a	13	[0, 0, 0]	-999	PAL1	1	R1091N
1600.241	2.78	2007687	REC_EVENT	295	5	3	GATE	<>	WORLD	GATE	13	[0, 0, 0]	-999	PAL1	1	R1091N
1603.021	1.0	2010467	REC_EVENT	3075	5	3	GATE	<>	WORLD	GATE	13	[0, 0, 0]	-999	PAL1	1	R1091N
1604.021	0.925	2011467	REC_EVENT	4075	5	3	GATE	<>	WORLD	GATE	13	[0, 0, 0]	-999	PAL1	1	R1091N
1604.946	0.017	2012392	REC_END	n/a	5	-999	n/a	n/a	n/a	n/a	13	[0, 0, 0]	-999	PAL1	1	R1091N
1604.963	1.0	2012409	TEST_ORIENT	n/a	2	4	OAR	n/a	OAR	OAK	13	[0, 0, 0]	-999	PAL1	1	R1091N
1605.963	0.001	2013409	TEST_PROBE	n/a	2	4	OAR	n/a	OAR	OAK	13	[0, 0, 0]	-999	PAL1	1	R1091N
1605.964	0.29	2013410	REC_START	n/a	2	-999	n/a	n/a	n/a	n/a	13	[0, 0, 0]	-999	PAL1	1	R1091N
1606.254	1.0	2013700	REC_EVENT	290	2	4	OAR	<>	OAR	OAK	13	[0, 0, 0]	-999	PAL1	1	R1091N
1607.254	1.0	2014700	REC_EVENT	1290	2	4	OAR	<>	OAR	OAK	13	[0, 0, 0]	-999	PAL1	1	R1091N
1608.254	2.726	2015700	REC_EVENT	2290	2	4	OAR	<>	OAR	OAK	13	[0, 0, 0]	-999	PAL1	1	R1091N
1610.98	0.017	2018425	REC_END	n/a	2	-999	n/a	n/a	n/a	n/a	13	[0, 0, 0]	-999	PAL1	1	R1091N
1610.997	1.0	2018442	TEST_ORIENT	n/a	3	5	SLUSH	n/a	SLUSH	TEETH	13	[0, 0, 0]	-999	PAL1	1	R1091N
1611.997	0.001	2019442	TEST_PROBE	n/a	3	5	SLUSH	n/a	SLUSH	TEETH	13	[0, 0, 0]	-999	PAL1	1	R1091N
1611.998	3.454	2019443	REC_START	n/a	3	-999	n/a	n/a	n/a	n/a	13	[0, 0, 0]	-999	PAL1	1	R1091N
1615.452	1.0	2022897	REC_EVENT	3454	3	5	SLUSH	<>	SLUSH	TEETH	13	[0, 0, 0]	-999	PAL1	1	R1091N
1616.452	0.555	2023897	REC_EVENT	4454	3	5	SLUSH	<>	SLUSH	TEETH	13	[0, 0, 0]	-999	PAL1	1	R1091N
1617.007	0.008	2024452	REC_END	n/a	3	-999	n/a	n/a	n/a	n/a	13	[0, 0, 0]	-999	PAL1	1	R1091N
1617.015	0.883	2024460	TEST_ORIENT	n/a	4	6	SMOKE	n/a	SMOKE	BRANCH	13	[0, 0, 0]	-999	PAL1	1	R1091N
1617.898	0.001	2025343	TEST_PROBE	n/a	4	6	SMOKE	n/a	SMOKE	BRANCH	13	[0, 0, 0]	-999	PAL1	1	R1091N
1617.899	0.56	2025344	REC_START	n/a	4	-999	n/a	n/a	n/a	n/a	13	[0, 0, 0]	-999	PAL1	1	R1091N
1618.459	1.0	2025904	REC_EVENT	560	4	6	SMOKE	<>	SMOKE	BRANCH	13	[0, 0, 0]	-999	PAL1	1	R1091N
1619.459	3.448	2026904	REC_EVENT	1560	4	6	SMOKE	<>	SMOKE	BRANCH	13	[0, 0, 0]	-999	PAL1	1	R1091N
1622.907	1.772	2030352	REC_END	n/a	4	-999	n/a	n/a	n/a	n/a	13	[0, 0, 0]	-999	PAL1	1	R1091N
1624.679	10.44	2032124	ENCODING_START	n/a	0	-999	n/a	n/a	n/a	n/a	14	[0, 0, 0]	-999	PAL1	1	R1091N
1635.119	0.882	2042564	STUDY_ORIENT	n/a	1	1	FRUIT	BRUSH	BRUSH	FRUIT	14	[0, 0, 0]	-999	PAL1	1	R1091N
1636.001	5.018	2043446	STUDY_PAIR	n/a	1	1	FRUIT	BRUSH	BRUSH	FRUIT	14	[0, 0, 0]	-999	PAL1	1	R1091N
1641.019	1.017	2048463	STUDY_ORIENT	n/a	2	2	INK	n/a	INK	DOOR	14	[0, 0, 0]	-999	PAL1	1	R1091N
1642.036	5.034	2049480	STUDY_PAIR	n/a	2	2	INK	n/a	INK	DOOR	14	[0, 0, 0]	-999	PAL1	1	R1091N
1647.07	0.85	2054514	STUDY_ORIENT	n/a	3	3	THREAD	MUD	MUD	THREAD	14	[0, 0, 0]	-999	PAL1	1	R1091N
1647.92	5.034	2055364	STUDY_PAIR	n/a	3	3	THREAD	MUD	MUD	THREAD	14	[0, 0, 0]	-999	PAL1	1	R1091N
1652.954	0.984	2060398	STUDY_ORIENT	n/a	4	6	LIP	n/a	LIP	BOOK	14	[0, 0, 0]	-999	PAL1	1	R1091N
1653.938	5.034	2061382	STUDY_PAIR	n/a	4	6	LIP	n/a	LIP	BOOK	14	[0, 0, 0]	-999	PAL1	1	R1091N
1658.972	0.867	2066416	STUDY_ORIENT	n/a	5	5	FLOOR	n/a	FLOOR	TOOTH	14	[0, 0, 0]	-999	PAL1	1	R1091N
1659.839	5.034	2067283	STUDY_PAIR	n/a	5	5	FLOOR	n/a	FLOOR	TOOTH	14	[0, 0, 0]	-999	PAL1	1	R1091N
1664.873	0.917	2072316	STUDY_ORIENT	n/a	6	4	DITCH	n/a	DITCH	FLAG	14	[0, 0, 0]	-999	PAL1	1	R1091N
1665.79	4.018	2073233	STUDY_PAIR	n/a	6	4	DITCH	n/a	DITCH	FLAG	14	[0, 0, 0]	-999	PAL1	1	R1091N
1669.808	0.999	2077251	START	n/a	-999	-999	n/a	n/a	n/a	n/a	14	[-999, -999, -999]	-999	PAL1	1	R1091N
1670.807	0.017	2078250	MATH_START	n/a	-999	-999	n/a	n/a	n/a	n/a	14	[0, 0, 0]	-999	PAL1	1	R1091N
1670.824	4.401	2078267	PROB	4368	-999	-999	n/a	n/a	n/a	n/a	14	[2, 1, 6]	9	PAL1	1	R1091N
1675.225	4.784	2082668	PROB	4758	-999	-999	n/a	n/a	n/a	n/a	14	[7, 6, 6]	13	PAL1	1	R1091N
1680.009	10.862	2087452	PROB	10862	-999	-999	n/a	n/a	n/a	n/a	14	[1, 8, 4]	11	PAL1	1	R1091N
1690.871	0.006	2098313	STOP	n/a	-999	-999	n/a	n/a	n/a	n/a	14	[-999, -999, -999]	-999	PAL1	1	R1091N
1690.877	0.0	2098319	TEST_START	n/a	-999	-999	n/a	n/a	n/a	n/a	14	[0, 0, 0]	-999	PAL1	1	R1091N
1690.877	0.017	2098319	MATH_END	n/a	-999	-999	n/a	n/a	n/a	n/a	14	[0, 0, 0]	-999	PAL1	1	R1091N
1690.894	0.917	2098336	TEST_ORIENT	n/a	1	1	FRUIT	BRUSH	BRUSH	FRUIT	14	[0, 0, 0]	-999	PAL1	1	R1091N
1691.811	0.0	2099253	TEST_PROBE	n/a	1	1	FRUIT	BRUSH	BRUSH	FRUIT	14	[0, 0, 0]	-999	PAL1	1	R1091N
1691.811	2.783	2099253	REC_START	n/a	1	-999	n/a	BRUSH	n/a	n/a	14	[0, 0, 0]	-999	PAL1	1	R1091N
1694.594	0.96	2102036	REC_EVENT	2783	1	1	FRUIT	FRUITCUP	BRUSH	FRUIT	14	[0, 0, 0]	-999	PAL1	1	R1091N
1695.554	1.274	2102996	REC_EVENT	3743	1	1	FRUIT	BRUSH	BRUSH	FRUIT	14	[0, 0, 0]	-999	PAL1	1	R1091N
1696.828	0.017	2104270	REC_END	n/a	1	-999	n/a	n/a	n/a	n/a	14	[0, 0, 0]	-999	PAL1	1	R1091N
1696.845	0.8	2104287	TEST_ORIENT	n/a	2	2	INK	n/a	INK	DOOR	14	[0, 0, 0]	-999	PAL1	1	R1091N
1697.645	0.001	2105087	TEST_PROBE	n/a	2	2	INK	n/a	INK	DOOR	14	[0, 0, 0]	-999	PAL1	1	R1091N
1697.646	1.339	2105088	REC_START	n/a	2	-999	n/a	n/a	n/a	n/a	14	[0, 0, 0]	-999	PAL1	1	R1091N
1698.985	3.669	2106427	REC_EVENT	1339	2	2	INK	<>	INK	DOOR	14	[0, 0, 0]	-999	PAL1	1	R1091N
1702.654	0.009	2110096	REC_END	n/a	2	-999	n/a	n/a	n/a	n/a	14	[0, 0, 0]	-999	PAL1	1	R1091N
1702.663	0.95	2110105	TEST_ORIENT	n/a	3	3	THREAD	MUD	MUD	THREAD	14	[0, 0, 0]	-999	PAL1	1	R1091N
1703.613	0.0	2111055	TEST_PROBE	n/a	3	3	THREAD	MUD	MUD	THREAD	14	[0, 0, 0]	-999	PAL1	1	R1091N
1703.613	1.195	2111055	REC_START	n/a	3	-999	n/a	MUD	n/a	n/a	14	[0, 0, 0]	-999	PAL1	1	R1091N
1704.808	1.685	2112250	REC_EVENT	1195	3	3	THREAD	MUD	MUD	THREAD	14	[0, 0, 0]	-999	PAL1	1	R1091N
1706.493	1.545	2113935	REC_EVENT	2880	3	3	THREAD	<>	MUD	THREAD	14	[0, 0, 0]	-999	PAL1	1	R1091N
1708.038	0.592	2115480	REC_EVENT	4425	3	3	THREAD	<>	MUD	THREAD	14	[0, 0, 0]	-999	PAL1	1	R1091N
1708.63	0.017	2116072	REC_END	n/a	3	-999	n/a	n/a	n/a	n/a	14	[0, 0, 0]	-999	PAL1	1	R1091N
1708.647	0.95	2116089	TEST_ORIENT	n/a	6	4	DITCH	n/a	DITCH	FLAG	14	[0, 0, 0]	-999	PAL1	1	R1091N
1709.597	0.001	2117039	TEST_PROBE	n/a	6	4	DITCH	n/a	DITCH	FLAG	14	[0, 0, 0]	-999	PAL1	1	R1091N
1709.598	5.003	2117040	REC_START	n/a	6	-999	n/a	n/a	n/a	n/a	14	[0, 0, 0]	-999	PAL1	1	R1091N
1714.601	0.005	2122043	REC_EVENT	5003	6	4	DITCH	<>	DITCH	FLAG	14	[0, 0, 0]	-999	PAL1	1	R1091N
1714.606	0.009	2122048	REC_END	n/a	6	-999	n/a	n/a	n/a	n/a	14	[0, 0, 0]	-999	PAL1	1	R1091N
1714.615	1.033	2122057	TEST_ORIENT	n/a	5	5	FLOOR	n/a	FLOOR	TOOTH	14	[0, 0, 0]	-999	PAL1	1	R1091N
1715.648	0.001	2123090	TEST_PROBE	n/a	5	5	FLOOR	n/a	FLOOR	TOOTH	14	[0, 0, 0]	-999	PAL1	1	R1091N
1715.649	5.008	2123091	REC_START	n/a	5	-999	n/a	n/a	n/a	n/a	14	[0, 0, 0]	-999	PAL1	1	R1091N
1720.657	0.001	2128098	REC_END	n/a	5	-999	n/a	n/a	n/a	n/a	14	[0, 0, 0]	-999	PAL1	1	R1091N
1720.658	0.008	2128099	REC_EVENT	5009	5	5	FLOOR	<>	FLOOR	TOOTH	14	[0, 0, 0]	-999	PAL1	1	R1091N
1720.666	0.8	2128107	TEST_ORIENT	n/a	4	6	LIP	n/a	LIP	BOOK	14	[0, 0, 0]	-999	PAL1	1	R1091N
1721.466	0.001	2128907	TEST_PROBE	n/a	4	6	LIP	n/a	LIP	BOOK	14	[0, 0, 0]	-999	PAL1	1	R1091N
1721.467	5.024	2128908	REC_START	n/a	4	-999	n/a	n/a	n/a	n/a	14	[0, 0, 0]	-999	PAL1	1	R1091N
1726.491	0.003	2133932	REC_END	n/a	4	-999	n/a	n/a	n/a	n/a	14	[0, 0, 0]	-999	PAL1	1	R1091N
1726.494	1.577	2133935	REC_EVENT	5027	4	6	LIP	<>	LIP	BOOK	14	[0, 0, 0]	-999	PAL1	1	R1091N
1728.071	10.448	2135512	ENCODING_START	n/a	0	-999	n/a	n/a	n/a	n/a	15	[0, 0, 0]	-999	PAL1	1	R1091N
1738.519	0.917	2145960	STUDY_ORIENT	n/a	1	3	CROW	n/a	ZOO	CROW	15	[0, 0, 0]	-999	PAL1	1	R1091N
1739.436	5.034	2146877	STUDY_PAIR	n/a	1	3	CROW	n/a	ZOO	CROW	15	[0, 0, 0]	-999	PAL1	1	R1091N
1744.47	0.817	2151911	STUDY_ORIENT	n/a	2	2	SOCK	n/a	SOCK	SQUARE	15	[0, 0, 0]	-999	PAL1	1	R1091N
1745.287	5.034	2152727	STUDY_PAIR	n/a	2	2	SOCK	n/a	SOCK	SQUARE	15	[0, 0, 0]	-999	PAL1	1	R1091N
1750.321	0.917	2157761	STUDY_ORIENT	n/a	3	1	WING	n/a	EAR	WING	15	[0, 0, 0]	-999	PAL1	1	R1091N
1751.238	5.034	2158678	STUDY_PAIR	n/a	3	1	WING	n/a	EAR	WING	15	[0, 0, 0]	-999	PAL1	1	R1091N
1756.272	0.884	2163712	STUDY_ORIENT	n/a	4	4	PANTS	n/a	PANTS	BOWL	15	[0, 0, 0]	-999	PAL1	1	R1091N
1757.156	5.018	2164596	STUDY_PAIR	n/a	4	4	PANTS	n/a	PANTS	BOWL	15	[0, 0, 0]	-999	PAL1	1	R1091N
1762.174	0.866	2169614	STUDY_ORIENT	n/a	5	5	CAT	n/a	BOX	CAT	15	[0, 0, 0]	-999	PAL1	1	R1091N
1763.04	5.034	2170480	STUDY_PAIR	n/a	5	5	CAT	n/a	BOX	CAT	15	[0, 0, 0]	-999	PAL1	1	R1091N
1768.074	0.783	2175514	STUDY_ORIENT	n/a	6	6	GEESE	n/a	SHELL	GEESE	15	[0, 0, 0]	-999	PAL1	1	R1091N
1768.857	4.001	2176297	STUDY_PAIR	n/a	6	6	GEESE	n/a	SHELL	GEESE	15	[0, 0, 0]	-999	PAL1	1	R1091N
1772.858	1.0	2180297	START	n/a	-999	-999	n/a	n/a	n/a	n/a	15	[-999, -999, -999]	-999	PAL1	1	R1091N
1773.858	0.017	2181297	MATH_START	n/a	-999	-999	n/a	n/a	n/a	n/a	15	[0, 0, 0]	-999	PAL1	1	R1091N
1773.875	5.734	2181314	PROB	5708	-999	-999	n/a	n/a	n/a	n/a	15	[6, 2, 9]	17	PAL1	1	R1091N
1779.609	11.235	2187048	PROB	11206	-999	-999	n/a	n/a	n/a	n/a	15	[9, 5, 1]	15	PAL1	1	R1091N
1790.844	16.691	2198283	PROB	16691	-999	-999	n/a	n/a	n/a	n/a	15	[8, 5, 7]	21	PAL1	1	R1091N
1807.535	0.012	2214973	STOP	n/a	-999	-999	n/a	n/a	n/a	n/a	15	[-999, -999, -999]	-999	PAL1	1	R1091N
1807.547	0.0	2214985	TEST_START	n/a	-999	-999	n/a	n/a	n/a	n/a	15	[0, 0, 0]	-999	PAL1	1	R1091N
1807.547	0.017	2214985	MATH_END	n/a	-999	-999	n/a	n/a	n/a	n/a	15	[0, 0, 0]	-999	PAL1	1	R1091N
1807.564	1.033	2215002	TEST_ORIENT	n/a	3	1	WING	n/a	EAR	WING	15	[0, 0, 0]	-999	PAL1	1	R1091N
1808.597	0.001	2216035	TEST_PROBE	n/a	3	1	WING	n/a	EAR	WING	15	[0, 0, 0]	-999	PAL1	1	R1091N
1808.598	1.108	2216036	REC_START	n/a	3	-999	n/a	n/a	n/a	n/a	15	[0, 0, 0]	-999	PAL1	1	R1091N
1809.706	3.9	2217144	REC_EVENT	1108	3	1	WING	<>	EAR	WING	15	[0, 0, 0]	-999	PAL1	1	R1091N
1813.606	0.009	2221044	REC_END	n/a	3	-999	n/a	n/a	n/a	n/a	15	[0, 0, 0]	-999	PAL1	1	R1091N
1813.615	1.033	2221053	TEST_ORIENT	n/a	2	2	SOCK	n/a	SOCK	SQUARE	15	[0, 0, 0]	-999	PAL1	1	R1091N
1814.648	0.001	2222086	TEST_PROBE	n/a	2	2	SOCK	n/a	SOCK	SQUARE	15	[0, 0, 0]	-999	PAL1	1	R1091N
1814.649	5.008	2222087	REC_START	n/a	2	-999	n/a	n/a	n/a	n/a	15	[0, 0, 0]	-999	PAL1	1	R1091N
1819.657	0.001	2227095	REC_END	n/a	2	-999	n/a	n/a	n/a	n/a	15	[0, 0, 0]	-999	PAL1	1	R1091N
1819.658	0.008	2227096	REC_EVENT	5009	2	2	SOCK	<>	SOCK	SQUARE	15	[0, 0, 0]	-999	PAL1	1	R1091N
1819.666	0.917	2227104	TEST_ORIENT	n/a	1	3	CROW	n/a	ZOO	CROW	15	[0, 0, 0]	-999	PAL1	1	R1091N
1820.583	0.0	2228021	TEST_PROBE	n/a	1	3	CROW	n/a	ZOO	CROW	15	[0, 0, 0]	-999	PAL1	1	R1091N
1820.583	5.015	2228021	REC_START	n/a	1	-999	n/a	n/a	n/a	n/a	15	[0, 0, 0]	-999	PAL1	1	R1091N
1825.598	0.002	2233036	REC_EVENT	5015	1	3	CROW	<>	ZOO	CROW	15	[0, 0, 0]	-999	PAL1	1	R1091N
1825.6	0.017	2233038	REC_END	n/a	1	-999	n/a	n/a	n/a	n/a	15	[0, 0, 0]	-999	PAL1	1	R1091N
1825.617	0.933	2233055	TEST_ORIENT	n/a	4	4	PANTS	n/a	PANTS	BOWL	15	[0, 0, 0]	-999	PAL1	1	R1091N
1826.55	0.001	2233988	TEST_PROBE	n/a	4	4	PANTS	n/a	PANTS	BOWL	15	[0, 0, 0]	-999	PAL1	1	R1091N
1826.551	5.01	2233989	REC_START	n/a	4	-999	n/a	n/a	n/a	n/a	15	[0, 0, 0]	-999	PAL1	1	R1091N
1831.561	0.005	2238998	REC_END	n/a	4	-999	n/a	n/a	n/a	n/a	15	[0, 0, 0]	-999	PAL1	1	R1091N
1831.566	0.002	2239003	REC_EVENT	5015	4	4	PANTS	<>	PANTS	BOWL	15	[0, 0, 0]	-999	PAL1	1	R1091N
1831.568	0.933	2239005	TEST_ORIENT	n/a	5	5	CAT	n/a	BOX	CAT	15	[0, 0, 0]	-999	PAL1	1	R1091N
1832.501	0.001	2239938	TEST_PROBE	n/a	5	5	CAT	n/a	BOX	CAT	15	[0, 0, 0]	-999	PAL1	1	R1091N
1832.502	5.009	2239939	REC_START	n/a	5	-999	n/a	n/a	n/a	n/a	15	[0, 0, 0]	-999	PAL1	1	R1091N
1837.511	0.002	2244948	REC_EVENT	5009	5	5	CAT	<>	BOX	CAT	15	[0, 0, 0]	-999	PAL1	1	R1091N
1837.513	0.023	2244950	REC_END	n/a	5	-999	n/a	n/a	n/a	n/a	15	[0, 0, 0]	-999	PAL1	1	R1091N
1837.536	0.933	2244973	TEST_ORIENT	n/a	6	6	GEESE	n/a	SHELL	GEESE	15	[0, 0, 0]	-999	PAL1	1	R1091N
1838.469	0.0	2245906	TEST_PROBE	n/a	6	6	GEESE	n/a	SHELL	GEESE	15	[0, 0, 0]	-999	PAL1	1	R1091N
1838.469	5.015	2245906	REC_START	n/a	6	-999	n/a	n/a	n/a	n/a	15	[0, 0, 0]	-999	PAL1	1	R1091N
1843.484	0.002	2250921	REC_EVENT	5015	6	6	GEESE	<>	SHELL	GEESE	15	[0, 0, 0]	-999	PAL1	1	R1091N
1843.486	2.329	2250923	REC_END	n/a	6	-999	n/a	n/a	n/a	n/a	15	[0, 0, 0]	-999	PAL1	1	R1091N
1845.815	10.44	2253252	ENCODING_START	n/a	0	-999	n/a	n/a	n/a	n/a	16	[0, 0, 0]	-999	PAL1	1	R1091N
1856.255	1.034	2263691	STUDY_ORIENT	n/a	1	1	THUMB	n/a	MAP	THUMB	16	[0, 0, 0]	-999	PAL1	1	R1091N
1857.289	5.034	2264725	STUDY_PAIR	n/a	1	1	THUMB	n/a	MAP	THUMB	16	[0, 0, 0]	-999	PAL1	1	R1091N
1862.323	0.868	2269759	STUDY_ORIENT	n/a	2	4	CLOUD	CLOUD	CLOUD	CONE	16	[0, 0, 0]	-999	PAL1	1	R1091N
1863.191	5.033	2270627	STUDY_PAIR	n/a	2	4	CLOUD	CLOUD	CLOUD	CONE	16	[0, 0, 0]	-999	PAL1	1	R1091N
1868.224	0.817	2275660	STUDY_ORIENT	n/a	3	3	SEAL	n/a	BAND	SEAL	16	[0, 0, 0]	-999	PAL1	1	R1091N
1869.041	5.034	2276477	STUDY_PAIR	n/a	3	3	SEAL	n/a	BAND	SEAL	16	[0, 0, 0]	-999	PAL1	1	R1091N
1874.075	0.984	2281511	STUDY_ORIENT	n/a	4	2	PARK	n/a	PARK	CLOWN	16	[0, 0, 0]	-999	PAL1	1	R1091N
1875.059	5.035	2282495	STUDY_PAIR	n/a	4	2	PARK	n/a	PARK	CLOWN	16	[0, 0, 0]	-999	PAL1	1	R1091N
1880.094	1.017	2287530	STUDY_ORIENT	n/a	5	5	CUBE	BOMB	CUBE	BOMB	16	[0, 0, 0]	-999	PAL1	1	R1091N
1881.111	5.034	2288547	STUDY_PAIR	n/a	5	5	CUBE	BOMB	CUBE	BOMB	16	[0, 0, 0]	-999	PAL1	1	R1091N
1886.145	0.899	2293580	STUDY_ORIENT	n/a	6	6	PRINCE	n/a	PRINCE	BOARD	16	[0, 0, 0]	-999	PAL1	1	R1091N
1887.044	4.018	2294479	STUDY_PAIR	n/a	6	6	PRINCE	n/a	PRINCE	BOARD	16	[0, 0, 0]	-999	PAL1	1	R1091N
1891.062	0.999	2298497	START	n/a	-999	-999	n/a	n/a	n/a	n/a	16	[-999, -999, -999]	-999	PAL1	1	R1091N
1892.061	0.017	2299496	MATH_START	n/a	-999	-999	n/a	n/a	n/a	n/a	16	[0, 0, 0]	-999	PAL1	1	R1091N
1892.078	4.418	2299513	PROB	4393	-999	-999	n/a	n/a	n/a	n/a	16	[3, 4, 7]	14	PAL1	1	R1091N
1896.496	4.534	2303931	PROB	4503	-999	-999	n/a	n/a	n/a	n/a	16	[3, 9, 1]	13	PAL1	1	R1091N
1901.03	9.119	2308465	PROB	9098	-999	-999	n/a	n/a	n/a	n/a	16	[2, 2, 8]	12	PAL1	1	R1091N
1910.149	10.226	2317583	PROB	10226	-999	-999	n/a	n/a	n/a	n/a	16	[6, 8, 7]	20	PAL1	1	R1091N
1920.375	0.008	2327809	STOP	n/a	-999	-999	n/a	n/a	n/a	n/a	16	[-999, -999, -999]	-999	PAL1	1	R1091N
1920.383	0.0	2327817	MATH_END	n/a	-999	-999	n/a	n/a	n/a	n/a	16	[0, 0, 0]	-999	PAL1	1	R1091N
1920.383	0.017	2327817	TEST_START	n/a	-999	-999	n/a	n/a	n/a	n/a	16	[0, 0, 0]	-999	PAL1	1	R1091N
1920.4	0.966	2327834	TEST_ORIENT	n/a	1	1	THUMB	n/a	MAP	THUMB	16	[0, 0, 0]	-999	PAL1	1	R1091N
1921.366	0.001	2328800	TEST_PROBE	n/a	1	1	THUMB	n/a	MAP	THUMB	16	[0, 0, 0]	-999	PAL1	1	R1091N
1921.367	2.767	2328801	REC_START	n/a	1	-999	n/a	n/a	n/a	n/a	16	[0, 0, 0]	-999	PAL1	1	R1091N
1924.134	1.0	2331568	REC_EVENT	2767	1	1	THUMB	<>	MAP	THUMB	16	[0, 0, 0]	-999	PAL1	1	R1091N
1925.134	1.244	2332568	REC_EVENT	3767	1	1	THUMB	<>	MAP	THUMB	16	[0, 0, 0]	-999	PAL1	1	R1091N
1926.378	0.023	2333812	REC_END	n/a	1	-999	n/a	n/a	n/a	n/a	16	[0, 0, 0]	-999	PAL1	1	R1091N
1926.401	1.0	2333835	TEST_ORIENT	n/a	4	2	PARK	n/a	PARK	CLOWN	16	[0, 0, 0]	-999	PAL1	1	R1091N
1927.401	0.0	2334835	TEST_PROBE	n/a	4	2	PARK	n/a	PARK	CLOWN	16	[0, 0, 0]	-999	PAL1	1	R1091N
1927.401	2.091	2334835	REC_START	n/a	4	-999	n/a	n/a	n/a	n/a	16	[0, 0, 0]	-999	PAL1	1	R1091N
1929.492	2.926	2336926	REC_EVENT	2091	4	2	PARK	<>	PARK	CLOWN	16	[0, 0, 0]	-999	PAL1	1	R1091N
1932.418	0.017	2339852	REC_END	n/a	4	-999	n/a	n/a	n/a	n/a	16	[0, 0, 0]	-999	PAL1	1	R1091N
1932.435	1.0	2339869	TEST_ORIENT	n/a	3	3	SEAL	n/a	BAND	SEAL	16	[0, 0, 0]	-999	PAL1	1	R1091N
1933.435	0.001	2340869	TEST_PROBE	n/a	3	3	SEAL	n/a	BAND	SEAL	16	[0, 0, 0]	-999	PAL1	1	R1091N
1933.436	2.556	2340870	REC_START	n/a	3	-999	n/a	n/a	n/a	n/a	16	[0, 0, 0]	-999	PAL1	1	R1091N
1935.992	2.471	2343425	REC_EVENT	2556	3	3	SEAL	<>	BAND	SEAL	16	[0, 0, 0]	-999	PAL1	1	R1091N
1938.463	0.023	2345896	REC_END	n/a	3	-999	n/a	n/a	n/a	n/a	16	[0, 0, 0]	-999	PAL1	1	R1091N
1938.486	0.867	2345919	TEST_ORIENT	n/a	2	4	CLOUD	CLOUD	CLOUD	CONE	16	[0, 0, 0]	-999	PAL1	1	R1091N
1939.353	0.0	2346786	TEST_PROBE	n/a	2	4	CLOUD	CLOUD	CLOUD	CONE	16	[0, 0, 0]	-999	PAL1	1	R1091N
1939.353	1.61	2346786	REC_START	n/a	2	-999	n/a	CLOUD	n/a	n/a	16	[0, 0, 0]	-999	PAL1	1	R1091N
1940.963	0.636	2348396	REC_EVENT	1610	2	4	CLOUD	CONE	CLOUD	CONE	16	[0, 0, 0]	-999	PAL1	1	R1091N
1941.599	0.419	2349032	REC_EVENT	2246	2	4	CLOUD	<>	CLOUD	CONE	16	[0, 0, 0]	-999	PAL1	1	R1091N
1942.018	0.325	2349451	REC_EVENT	2665	2	4	CLOUD	CLOUD	CLOUD	CONE	16	[0, 0, 0]	-999	PAL1	1	R1091N
1942.343	0.333	2349776	REC_EVENT	2990	2	4	CLOUD	CONE	CLOUD	CONE	16	[0, 0, 0]	-999	PAL1	1	R1091N
1942.676	0.305	2350109	REC_EVENT	3323	2	4	CLOUD	CONE	CLOUD	CONE	16	[0, 0, 0]	-999	PAL1	1	R1091N
1942.981	1.389	2350414	REC_EVENT	3628	2	4	CLOUD	CLOUD	CLOUD	CONE	16	[0, 0, 0]	-999	PAL1	1	R1091N
1944.37	0.017	2351803	REC_END	n/a	2	-999	n/a	n/a	n/a	n/a	16	[0, 0, 0]	-999	PAL1	1	R1091N
1944.387	0.818	2351820	TEST_ORIENT	n/a	5	5	CUBE	BOMB	CUBE	BOMB	16	[0, 0, 0]	-999	PAL1	1	R1091N
1945.205	0.0	2352638	TEST_PROBE	n/a	5	5	CUBE	BOMB	CUBE	BOMB	16	[0, 0, 0]	-999	PAL1	1	R1091N
1945.205	0.445	2352638	REC_START	n/a	5	-999	n/a	BOMB	n/a	n/a	16	[0, 0, 0]	-999	PAL1	1	R1091N
1945.65	1.071	2353083	REC_EVENT	445	5	5	CUBE	<>	CUBE	BOMB	16	[0, 0, 0]	-999	PAL1	1	R1091N
1946.721	0.43	2354154	REC_EVENT	1516	5	5	CUBE	BOMB	CUBE	BOMB	16	[0, 0, 0]	-999	PAL1	1	R1091N
1947.151	0.845	2354584	REC_EVENT	1946	5	5	CUBE	CUBE	CUBE	BOMB	16	[0, 0, 0]	-999	PAL1	1	R1091N
1947.996	0.33	2355429	REC_EVENT	2791	5	5	CUBE	CUBE	CUBE	BOMB	16	[0, 0, 0]	-999	PAL1	1	R1091N
1948.326	1.895	2355759	REC_EVENT	3121	5	5	CUBE	BOMB	CUBE	BOMB	16	[0, 0, 0]	-999	PAL1	1	R1091N
1950.221	0.017	2357654	REC_END	n/a	5	-999	n/a	n/a	n/a	n/a	16	[0, 0, 0]	-999	PAL1	1	R1091N
1950.238	0.934	2357671	TEST_ORIENT	n/a	6	6	PRINCE	n/a	PRINCE	BOARD	16	[0, 0, 0]	-999	PAL1	1	R1091N
1951.172	0.001	2358605	TEST_PROBE	n/a	6	6	PRINCE	n/a	PRINCE	BOARD	16	[0, 0, 0]	-999	PAL1	1	R1091N
1951.173	5.009	2358606	REC_START	n/a	6	-999	n/a	n/a	n/a	n/a	16	[0, 0, 0]	-999	PAL1	1	R1091N
1956.182	0.001	2363615	REC_EVENT	5009	6	6	PRINCE	<>	PRINCE	BOARD	16	[0, 0, 0]	-999	PAL1	1	R1091N
1956.183	691.384	2363616	REC_END	n/a	6	-999	n/a	n/a	n/a	n/a	16	[0, 0, 0]	-999	PAL1	1	R1091N
2647.567	10.441	3054974	ENCODING_START	n/a	0	-999	n/a	n/a	n/a	n/a	17	[0, 0, 0]	-999	PAL1	1	R1091N
2658.008	0.866	3065415	STUDY_ORIENT	n/a	1	1	JET	n/a	KEY	JET	17	[0, 0, 0]	-999	PAL1	1	R1091N
2658.874	5.018	3066281	STUDY_PAIR	n/a	1	1	JET	n/a	KEY	JET	17	[0, 0, 0]	-999	PAL1	1	R1091N
2663.892	0.9	3071299	STUDY_ORIENT	n/a	2	6	BALL	n/a	BALL	TOAD	17	[0, 0, 0]	-999	PAL1	1	R1091N
2664.792	5.034	3072199	STUDY_PAIR	n/a	2	6	BALL	n/a	BALL	TOAD	17	[0, 0, 0]	-999	PAL1	1	R1091N
2669.826	1.017	3077233	STUDY_ORIENT	n/a	3	5	VAN	n/a	VAN	BARN	17	[0, 0, 0]	-999	PAL1	1	R1091N
2670.843	5.034	3078250	STUDY_PAIR	n/a	3	5	VAN	n/a	VAN	BARN	17	[0, 0, 0]	-999	PAL1	1	R1091N
2675.877	0.934	3083283	STUDY_ORIENT	n/a	4	4	BOAT	n/a	BOAT	GLOVE	17	[0, 0, 0]	-999	PAL1	1	R1091N
2676.811	5.034	3084217	STUDY_PAIR	n/a	4	4	BOAT	n/a	BOAT	GLOVE	17	[0, 0, 0]	-999	PAL1	1	R1091N
2681.845	0.833	3089251	STUDY_ORIENT	n/a	5	3	SNAKE	n/a	SNAKE	PIG	17	[0, 0, 0]	-999	PAL1	1	R1091N
2682.678	5.018	3090084	STUDY_PAIR	n/a	5	3	SNAKE	n/a	SNAKE	PIG	17	[0, 0, 0]	-999	PAL1	1	R1091N
2687.696	0.783	3095102	STUDY_ORIENT	n/a	6	2	TRUCK	n/a	TRUCK	ROPE	17	[0, 0, 0]	-999	PAL1	1	R1091N
2688.479	4.001	3095885	STUDY_PAIR	n/a	6	2	TRUCK	n/a	TRUCK	ROPE	17	[0, 0, 0]	-999	PAL1	1	R1091N
2692.48	1.0	3099886	START	n/a	-999	-999	n/a	n/a	n/a	n/a	17	[-999, -999, -999]	-999	PAL1	1	R1091N
2693.48	0.017	3100886	MATH_START	n/a	-999	-999	n/a	n/a	n/a	n/a	17	[0, 0, 0]	-999	PAL1	1	R1091N
2693.497	21.79	3100903	PROB	21790	-999	-999	n/a	n/a	n/a	n/a	17	[8, 5, 2]	14	PAL1	1	R1091N
2715.287	0.014	3122692	STOP	n/a	-999	-999	n/a	n/a	n/a	n/a	17	[-999, -999, -999]	-999	PAL1	1	R1091N
2715.301	0.0	3122706	MATH_END	n/a	-999	-999	n/a	n/a	n/a	n/a	17	[0, 0, 0]	-999	PAL1	1	R1091N
2715.301	0.016	3122706	TEST_START	n/a	-999	-999	n/a	n/a	n/a	n/a	17	[0, 0, 0]	-999	PAL1	1	R1091N
2715.317	0.801	3122722	TEST_ORIENT	n/a	1	1	JET	n/a	KEY	JET	17	[0, 0, 0]	-999	PAL1	1	R1091N
2716.118	0.001	3123523	TEST_PROBE	n/a	1	1	JET	n/a	KEY	JET	17	[0, 0, 0]	-999	PAL1	1	R1091N
2716.119	5.009	3123524	REC_START	n/a	1	-999	n/a	n/a	n/a	n/a	17	[0, 0, 0]	-999	PAL1	1	R1091N
2721.128	0.001	3128533	REC_EVENT	5009	1	1	JET	<>	KEY	JET	17	[0, 0, 0]	-999	PAL1	1	R1091N
2721.129	0.007	3128534	REC_END	n/a	1	-999	n/a	n/a	n/a	n/a	17	[0, 0, 0]	-999	PAL1	1	R1091N
2721.136	0.849	3128541	TEST_ORIENT	n/a	6	2	TRUCK	n/a	TRUCK	ROPE	17	[0, 0, 0]	-999	PAL1	1	R1091N
2721.985	0.0	3129390	TEST_PROBE	n/a	6	2	TRUCK	n/a	TRUCK	ROPE	17	[0, 0, 0]	-999	PAL1	1	R1091N
2721.985	4.115	3129390	REC_START	n/a	6	-999	n/a	n/a	n/a	n/a	17	[0, 0, 0]	-999	PAL1	1	R1091N
2726.1	0.902	3133504	REC_EVENT	4115	6	2	TRUCK	<>	TRUCK	ROPE	17	[0, 0, 0]	-999	PAL1	1	R1091N
2727.002	0.017	3134406	REC_END	n/a	6	-999	n/a	n/a	n/a	n/a	17	[0, 0, 0]	-999	PAL1	1	R1091N
2727.019	0.817	3134423	TEST_ORIENT	n/a	5	3	SNAKE	n/a	SNAKE	PIG	17	[0, 0, 0]	-999	PAL1	1	R1091N
2727.836	0.0	3135240	TEST_PROBE	n/a	5	3	SNAKE	n/a	SNAKE	PIG	17	[0, 0, 0]	-999	PAL1	1	R1091N
2727.836	0.179	3135240	REC_START	n/a	5	-999	n/a	n/a	n/a	n/a	17	[0, 0, 0]	-999	PAL1	1	R1091N
2728.015	1.0	3135419	REC_EVENT	179	5	3	SNAKE	<>	SNAKE	PIG	17	[0, 0, 0]	-999	PAL1	1	R1091N
2729.015	1.0	3136419	REC_EVENT	1179	5	3	SNAKE	<>	SNAKE	PIG	17	[0, 0, 0]	-999	PAL1	1	R1091N
2730.015	1.0	3137419	REC_EVENT	2179	5	3	SNAKE	<>	SNAKE	PIG	17	[0, 0, 0]	-999	PAL1	1	R1091N
2731.015	1.0	3138419	REC_EVENT	3179	5	3	SNAKE	<>	SNAKE	PIG	17	[0, 0, 0]	-999	PAL1	1	R1091N
2732.015	0.838	3139419	REC_EVENT	4179	5	3	SNAKE	<>	SNAKE	PIG	17	[0, 0, 0]	-999	PAL1	1	R1091N
2732.853	0.017	3140257	REC_END	n/a	5	-999	n/a	n/a	n/a	n/a	17	[0, 0, 0]	-999	PAL1	1	R1091N
2732.87	0.95	3140274	TEST_ORIENT	n/a	4	4	BOAT	n/a	BOAT	GLOVE	17	[0, 0, 0]	-999	PAL1	1	R1091N
2733.82	0.001	3141224	TEST_PROBE	n/a	4	4	BOAT	n/a	BOAT	GLOVE	17	[0, 0, 0]	-999	PAL1	1	R1091N
2733.821	0.0	3141225	REC_START	n/a	4	-999	n/a	n/a	n/a	n/a	17	[0, 0, 0]	-999	PAL1	1	R1091N
2733.821	1.0	3141225	REC_EVENT	0	4	4	BOAT	<>	BOAT	GLOVE	17	[0, 0, 0]	-999	PAL1	1	R1091N
2734.821	1.0	3142225	REC_EVENT	1000	4	4	BOAT	<>	BOAT	GLOVE	17	[0, 0, 0]	-999	PAL1	1	R1091N
2735.821	3.01	3143225	REC_EVENT	2000	4	4	BOAT	<>	BOAT	GLOVE	17	[0, 0, 0]	-999	PAL1	1	R1091N
2738.831	0.007	3146235	REC_END	n/a	4	-999	n/a	n/a	n/a	n/a	17	[0, 0, 0]	-999	PAL1	1	R1091N
2738.838	0.917	3146242	TEST_ORIENT	n/a	3	5	VAN	n/a	VAN	BARN	17	[0, 0, 0]	-999	PAL1	1	R1091N
2739.755	0.0	3147159	TEST_PROBE	n/a	3	5	VAN	n/a	VAN	BARN	17	[0, 0, 0]	-999	PAL1	1	R1091N
2739.755	0.0	3147159	REC_START	n/a	3	-999	n/a	n/a	n/a	n/a	17	[0, 0, 0]	-999	PAL1	1	R1091N
2739.755	1.0	3147159	REC_EVENT	0	3	5	VAN	<>	VAN	BARN	17	[0, 0, 0]	-999	PAL1	1	R1091N
2740.755	1.0	3148159	REC_EVENT	1000	3	5	VAN	<>	VAN	BARN	17	[0, 0, 0]	-999	PAL1	1	R1091N
2741.755	1.0	3149159	REC_EVENT	2000	3	5	VAN	<>	VAN	BARN	17	[0, 0, 0]	-999	PAL1	1	R1091N
2742.755	1.0	3150159	REC_EVENT	3000	3	5	VAN	<>	VAN	BARN	17	[0, 0, 0]	-999	PAL1	1	R1091N
2743.755	1.017	3151159	REC_EVENT	4000	3	5	VAN	<>	VAN	BARN	17	[0, 0, 0]	-999	PAL1	1	R1091N
2744.772	0.017	3152176	REC_END	n/a	3	-999	n/a	n/a	n/a	n/a	17	[0, 0, 0]	-999	PAL1	1	R1091N
2744.789	1.033	3152193	TEST_ORIENT	n/a	2	6	BALL	n/a	BALL	TOAD	17	[0, 0, 0]	-999	PAL1	1	R1091N
2745.822	0.001	3153226	TEST_PROBE	n/a	2	6	BALL	n/a	BALL	TOAD	17	[0, 0, 0]	-999	PAL1	1	R1091N
2745.823	0.0	3153227	REC_START	n/a	2	-999	n/a	n/a	n/a	n/a	17	[0, 0, 0]	-999	PAL1	1	R1091N
2745.823	1.0	3153227	REC_EVENT	0	2	6	BALL	<>	BALL	TOAD	17	[0, 0, 0]	-999	PAL1	1	R1091N
2746.823	1.0	3154227	REC_EVENT	1000	2	6	BALL	<>	BALL	TOAD	17	[0, 0, 0]	-999	PAL1	1	R1091N
2747.823	1.539	3155227	REC_EVENT	2000	2	6	BALL	<>	BALL	TOAD	17	[0, 0, 0]	-999	PAL1	1	R1091N
2749.362	1.0	3156766	REC_EVENT	3539	2	6	BALL	<>	BALL	TOAD	17	[0, 0, 0]	-999	PAL1	1	R1091N
2750.362	0.471	3157766	REC_EVENT	4539	2	6	BALL	<>	BALL	TOAD	17	[0, 0, 0]	-999	PAL1	1	R1091N
2750.833	2.822	3158237	REC_END	n/a	2	-999	n/a	n/a	n/a	n/a	17	[0, 0, 0]	-999	PAL1	1	R1091N
2753.655	10.455	3161058	ENCODING_START	n/a	0	-999	n/a	n/a	n/a	n/a	18	[0, 0, 0]	-999	PAL1	1	R1091N
2764.11	0.782	3171513	STUDY_ORIENT	n/a	1	3	JEEP	n/a	JEEP	PLANT	18	[0, 0, 0]	-999	PAL1	1	R1091N
2764.892	5.018	3172295	STUDY_PAIR	n/a	1	3	JEEP	n/a	JEEP	PLANT	18	[0, 0, 0]	-999	PAL1	1	R1091N
2769.91	0.933	3177313	STUDY_ORIENT	n/a	2	2	FOG	n/a	SEA	FOG	18	[0, 0, 0]	-999	PAL1	1	R1091N
2770.843	5.018	3178246	STUDY_PAIR	n/a	2	2	FOG	n/a	SEA	FOG	18	[0, 0, 0]	-999	PAL1	1	R1091N
2775.861	0.767	3183264	STUDY_ORIENT	n/a	3	5	TANK	n/a	SPEAR	TANK	18	[0, 0, 0]	-999	PAL1	1	R1091N
2776.628	5.034	3184031	STUDY_PAIR	n/a	3	5	TANK	n/a	SPEAR	TANK	18	[0, 0, 0]	-999	PAL1	1	R1091N
2781.662	0.817	3189064	STUDY_ORIENT	n/a	4	6	MAZE	n/a	SEED	MAZE	18	[0, 0, 0]	-999	PAL1	1	R1091N
2782.479	5.034	3189881	STUDY_PAIR	n/a	4	6	MAZE	n/a	SEED	MAZE	18	[0, 0, 0]	-999	PAL1	1	R1091N
2787.513	0.85	3194915	STUDY_ORIENT	n/a	5	1	GLASS	n/a	GLASS	LAKE	18	[0, 0, 0]	-999	PAL1	1	R1091N
2788.363	5.034	3195765	STUDY_PAIR	n/a	5	1	GLASS	n/a	GLASS	LAKE	18	[0, 0, 0]	-999	PAL1	1	R1091N
2793.397	0.834	3200799	STUDY_ORIENT	n/a	6	4	MOTH	n/a	MOTH	BATH	18	[0, 0, 0]	-999	PAL1	1	R1091N
2794.231	4.017	3201633	STUDY_PAIR	n/a	6	4	MOTH	n/a	MOTH	BATH	18	[0, 0, 0]	-999	PAL1	1	R1091N
2798.248	1.0	3205650	START	n/a	-999	-999	n/a	n/a	n/a	n/a	18	[-999, -999, -999]	-999	PAL1	1	R1091N
2799.248	0.017	3206650	MATH_START	n/a	-999	-999	n/a	n/a	n/a	n/a	18	[0, 0, 0]	-999	PAL1	1	R1091N
2799.265	7.201	3206667	PROB	7166	-999	-999	n/a	n/a	n/a	n/a	18	[5, 7, 7]	19	PAL1	1	R1091N
2806.466	2.752	3213868	PROB	2718	-999	-999	n/a	n/a	n/a	n/a	18	[5, 5, 5]	15	PAL1	1	R1091N
2809.218	11.653	3216619	PROB	11653	-999	-999	n/a	n/a	n/a	n/a	18	[9, 9, 7]	19	PAL1	1	R1091N
2820.871	0.014	3228272	STOP	n/a	-999	-999	n/a	n/a	n/a	n/a	18	[-999, -999, -999]	-999	PAL1	1	R1091N
2820.885	0.0	3228286	MATH_END	n/a	-999	-999	n/a	n/a	n/a	n/a	18	[0, 0, 0]	-999	PAL1	1	R1091N
2820.885	0.017	3228286	TEST_START	n/a	-999	-999	n/a	n/a	n/a	n/a	18	[0, 0, 0]	-999	PAL1	1	R1091N
2820.902	1.033	3228303	TEST_ORIENT	n/a	5	1	GLASS	n/a	GLASS	LAKE	18	[0, 0, 0]	-999	PAL1	1	R1091N
2821.935	0.001	3229336	TEST_PROBE	n/a	5	1	GLASS	n/a	GLASS	LAKE	18	[0, 0, 0]	-999	PAL1	1	R1091N
2821.936	3.729	3229337	REC_START	n/a	5	-999	n/a	n/a	n/a	n/a	18	[0, 0, 0]	-999	PAL1	1	R1091N
2825.665	1.0	3233066	REC_EVENT	3729	5	1	GLASS	<>	GLASS	LAKE	18	[0, 0, 0]	-999	PAL1	1	R1091N
2826.665	0.281	3234066	REC_EVENT	4729	5	1	GLASS	<>	GLASS	LAKE	18	[0, 0, 0]	-999	PAL1	1	R1091N
2826.946	0.007	3234347	REC_END	n/a	5	-999	n/a	n/a	n/a	n/a	18	[0, 0, 0]	-999	PAL1	1	R1091N
2826.953	0.933	3234354	TEST_ORIENT	n/a	2	2	FOG	n/a	SEA	FOG	18	[0, 0, 0]	-999	PAL1	1	R1091N
2827.886	0.001	3235287	TEST_PROBE	n/a	2	2	FOG	n/a	SEA	FOG	18	[0, 0, 0]	-999	PAL1	1	R1091N
2827.887	5.009	3235288	REC_START	n/a	2	-999	n/a	n/a	n/a	n/a	18	[0, 0, 0]	-999	PAL1	1	R1091N
2832.896	0.001	3240297	REC_EVENT	5009	2	2	FOG	<>	SEA	FOG	18	[0, 0, 0]	-999	PAL1	1	R1091N
2832.897	0.007	3240298	REC_END	n/a	2	-999	n/a	n/a	n/a	n/a	18	[0, 0, 0]	-999	PAL1	1	R1091N
2832.904	1.0	3240305	TEST_ORIENT	n/a	1	3	JEEP	n/a	JEEP	PLANT	18	[0, 0, 0]	-999	PAL1	1	R1091N
2833.904	0.0	3241305	REC_START	n/a	1	-999	n/a	n/a	n/a	n/a	18	[0, 0, 0]	-999	PAL1	1	R1091N
2833.904	3.859	3241305	TEST_PROBE	n/a	1	3	JEEP	n/a	JEEP	PLANT	18	[0, 0, 0]	-999	PAL1	1	R1091N
2837.763	1.158	3245163	REC_EVENT	3859	1	3	JEEP	<>	JEEP	PLANT	18	[0, 0, 0]	-999	PAL1	1	R1091N
2838.921	0.017	3246321	REC_END	n/a	1	-999	n/a	n/a	n/a	n/a	18	[0, 0, 0]	-999	PAL1	1	R1091N
2838.938	0.983	3246338	TEST_ORIENT	n/a	6	4	MOTH	n/a	MOTH	BATH	18	[0, 0, 0]	-999	PAL1	1	R1091N
2839.921	0.001	3247321	TEST_PROBE	n/a	6	4	MOTH	n/a	MOTH	BATH	18	[0, 0, 0]	-999	PAL1	1	R1091N
2839.922	0.0	3247322	REC_START	n/a	6	-999	n/a	n/a	n/a	n/a	18	[0, 0, 0]	-999	PAL1	1	R1091N
2839.922	1.0	3247322	REC_EVENT	0	6	4	MOTH	<>	MOTH	BATH	18	[0, 0, 0]	-999	PAL1	1	R1091N
2840.922	1.0	3248322	REC_EVENT	1000	6	4	MOTH	<>	MOTH	BATH	18	[0, 0, 0]	-999	PAL1	1	R1091N
2841.922	1.619	3249322	REC_EVENT	2000	6	4	MOTH	<>	MOTH	BATH	18	[0, 0, 0]	-999	PAL1	1	R1091N
2843.541	1.0	3250941	REC_EVENT	3619	6	4	MOTH	<>	MOTH	BATH	18	[0, 0, 0]	-999	PAL1	1	R1091N
2844.541	0.391	3251941	REC_EVENT	4619	6	4	MOTH	<>	MOTH	BATH	18	[0, 0, 0]	-999	PAL1	1	R1091N
2844.932	0.007	3252332	REC_END	n/a	6	-999	n/a	n/a	n/a	n/a	18	[0, 0, 0]	-999	PAL1	1	R1091N
2844.939	0.984	3252339	TEST_ORIENT	n/a	3	5	TANK	n/a	SPEAR	TANK	18	[0, 0, 0]	-999	PAL1	1	R1091N
2845.923	0.0	3253323	TEST_PROBE	n/a	3	5	TANK	n/a	SPEAR	TANK	18	[0, 0, 0]	-999	PAL1	1	R1091N
2845.923	1.195	3253323	REC_START	n/a	3	-999	n/a	n/a	n/a	n/a	18	[0, 0, 0]	-999	PAL1	1	R1091N
2847.118	1.0	3254518	REC_EVENT	1195	3	5	TANK	<>	SPEAR	TANK	18	[0, 0, 0]	-999	PAL1	1	R1091N
2848.118	1.0	3255518	REC_EVENT	2195	3	5	TANK	<>	SPEAR	TANK	18	[0, 0, 0]	-999	PAL1	1	R1091N
2849.118	1.0	3256518	REC_EVENT	3195	3	5	TANK	<>	SPEAR	TANK	18	[0, 0, 0]	-999	PAL1	1	R1091N
2850.118	0.822	3257518	REC_EVENT	4195	3	5	TANK	<>	SPEAR	TANK	18	[0, 0, 0]	-999	PAL1	1	R1091N
2850.94	0.017	3258340	REC_END	n/a	3	-999	n/a	n/a	n/a	n/a	18	[0, 0, 0]	-999	PAL1	1	R1091N
2850.957	0.867	3258357	TEST_ORIENT	n/a	4	6	MAZE	n/a	SEED	MAZE	18	[0, 0, 0]	-999	PAL1	1	R1091N
2851.824	0.0	3259224	TEST_PROBE	n/a	4	6	MAZE	n/a	SEED	MAZE	18	[0, 0, 0]	-999	PAL1	1	R1091N
2851.824	0.0	3259224	REC_START	n/a	4	-999	n/a	n/a	n/a	n/a	18	[0, 0, 0]	-999	PAL1	1	R1091N
2851.824	1.0	3259224	REC_EVENT	0	4	6	MAZE	<>	SEED	MAZE	18	[0, 0, 0]	-999	PAL1	1	R1091N
2852.824	1.0	3260224	REC_EVENT	1000	4	6	MAZE	<>	SEED	MAZE	18	[0, 0, 0]	-999	PAL1	1	R1091N
2853.824	1.0	3261224	REC_EVENT	2000	4	6	MAZE	<>	SEED	MAZE	18	[0, 0, 0]	-999	PAL1	1	R1091N
2854.824	2.017	3262224	REC_EVENT	3000	4	6	MAZE	<>	SEED	MAZE	18	[0, 0, 0]	-999	PAL1	1	R1091N
2856.841	24.79	3264241	REC_END	n/a	4	-999	n/a	n/a	n/a	n/a	18	[0, 0, 0]	-999	PAL1	1	R1091N
2881.631	10.449	3289030	ENCODING_START	n/a	0	-999	n/a	n/a	n/a	n/a	19	[0, 0, 0]	-999	PAL1	1	R1091N
2892.08	0.834	3299478	STUDY_ORIENT	n/a	1	5	MILK	n/a	MILK	PASTE	19	[0, 0, 0]	-999	PAL1	1	R1091N
2892.914	5.034	3300312	STUDY_PAIR	n/a	1	5	MILK	n/a	MILK	PASTE	19	[0, 0, 0]	-999	PAL1	1	R1091N
2897.948	1.0	3305346	STUDY_ORIENT	n/a	2	6	STEAK	n/a	WAND	STEAK	19	[0, 0, 0]	-999	PAL1	1	R1091N
2898.948	5.018	3306346	STUDY_PAIR	n/a	2	6	STEAK	n/a	WAND	STEAK	19	[0, 0, 0]	-999	PAL1	1	R1091N
2903.966	0.8	3311364	STUDY_ORIENT	n/a	3	3	STORM	n/a	CRANE	STORM	19	[0, 0, 0]	-999	PAL1	1	R1091N
2904.766	5.034	3312164	STUDY_PAIR	n/a	3	3	STORM	n/a	CRANE	STORM	19	[0, 0, 0]	-999	PAL1	1	R1091N
2909.8	1.017	3317198	STUDY_ORIENT	n/a	4	2	VASE	n/a	VASE	BRICK	19	[0, 0, 0]	-999	PAL1	1	R1091N
2910.817	5.034	3318215	STUDY_PAIR	n/a	4	2	VASE	n/a	VASE	BRICK	19	[0, 0, 0]	-999	PAL1	1	R1091N
2915.851	1.0	3323249	STUDY_ORIENT	n/a	5	1	MOUTH	n/a	MOUTH	PLANE	19	[0, 0, 0]	-999	PAL1	1	R1091N
2916.851	5.018	3324248	STUDY_PAIR	n/a	5	1	MOUTH	n/a	MOUTH	PLANE	19	[0, 0, 0]	-999	PAL1	1	R1091N
2921.869	0.8	3329266	STUDY_ORIENT	n/a	6	4	BEE	BEE	BEE	BENCH	19	[0, 0, 0]	-999	PAL1	1	R1091N
2922.669	4.018	3330066	STUDY_PAIR	n/a	6	4	BEE	BEE	BEE	BENCH	19	[0, 0, 0]	-999	PAL1	1	R1091N
2926.687	0.999	3334084	START	n/a	-999	-999	n/a	n/a	n/a	n/a	19	[-999, -999, -999]	-999	PAL1	1	R1091N
2927.686	0.017	3335083	MATH_START	n/a	-999	-999	n/a	n/a	n/a	n/a	19	[0, 0, 0]	-999	PAL1	1	R1091N
2927.703	15.52	3335100	PROB	15497	-999	-999	n/a	n/a	n/a	n/a	19	[4, 4, 5]	13	PAL1	1	R1091N
2943.223	12.08	3350620	PROB	12080	-999	-999	n/a	n/a	n/a	n/a	19	[7, 5, 8]	20	PAL1	1	R1091N
2955.303	0.005	3362699	STOP	n/a	-999	-999	n/a	n/a	n/a	n/a	19	[-999, -999, -999]	-999	PAL1	1	R1091N
2955.308	0.0	3362704	MATH_END	n/a	-999	-999	n/a	n/a	n/a	n/a	19	[0, 0, 0]	-999	PAL1	1	R1091N
2955.308	0.016	3362704	TEST_START	n/a	-999	-999	n/a	n/a	n/a	n/a	19	[0, 0, 0]	-999	PAL1	1	R1091N
2955.324	0.934	3362720	TEST_ORIENT	n/a	5	1	MOUTH	n/a	MOUTH	PLANE	19	[0, 0, 0]	-999	PAL1	1	R1091N
2956.258	0.001	3363654	TEST_PROBE	n/a	5	1	MOUTH	n/a	MOUTH	PLANE	19	[0, 0, 0]	-999	PAL1	1	R1091N
2956.259	5.015	3363655	REC_START	n/a	5	-999	n/a	n/a	n/a	n/a	19	[0, 0, 0]	-999	PAL1	1	R1091N
2961.274	0.001	3368670	REC_EVENT	5015	5	1	MOUTH	<>	MOUTH	PLANE	19	[0, 0, 0]	-999	PAL1	1	R1091N
2961.275	0.017	3368671	REC_END	n/a	5	-999	n/a	n/a	n/a	n/a	19	[0, 0, 0]	-999	PAL1	1	R1091N
2961.292	1.034	3368688	TEST_ORIENT	n/a	4	2	VASE	n/a	VASE	BRICK	19	[0, 0, 0]	-999	PAL1	1	R1091N
2962.326	0.0	3369722	TEST_PROBE	n/a	4	2	VASE	n/a	VASE	BRICK	19	[0, 0, 0]	-999	PAL1	1	R1091N
2962.326	5.015	3369722	REC_START	n/a	4	-999	n/a	n/a	n/a	n/a	19	[0, 0, 0]	-999	PAL1	1	R1091N
2967.341	0.002	3374737	REC_EVENT	5015	4	2	VASE	<>	VASE	BRICK	19	[0, 0, 0]	-999	PAL1	1	R1091N
2967.343	0.017	3374739	REC_END	n/a	4	-999	n/a	n/a	n/a	n/a	19	[0, 0, 0]	-999	PAL1	1	R1091N
2967.36	1.033	3374756	TEST_ORIENT	n/a	3	3	STORM	n/a	CRANE	STORM	19	[0, 0, 0]	-999	PAL1	1	R1091N
2968.393	0.001	3375789	TEST_PROBE	n/a	3	3	STORM	n/a	CRANE	STORM	19	[0, 0, 0]	-999	PAL1	1	R1091N
2968.394	5.009	3375790	REC_START	n/a	3	-999	n/a	n/a	n/a	n/a	19	[0, 0, 0]	-999	PAL1	1	R1091N
2973.403	0.001	3380798	REC_EVENT	5009	3	3	STORM	<>	CRANE	STORM	19	[0, 0, 0]	-999	PAL1	1	R1091N
2973.404	0.007	3380799	REC_END	n/a	3	-999	n/a	n/a	n/a	n/a	19	[0, 0, 0]	-999	PAL1	1	R1091N
2973.411	0.967	3380806	TEST_ORIENT	n/a	6	4	BEE	BEE	BEE	BENCH	19	[0, 0, 0]	-999	PAL1	1	R1091N
2974.378	0.0	3381773	TEST_PROBE	n/a	6	4	BEE	BEE	BEE	BENCH	19	[0, 0, 0]	-999	PAL1	1	R1091N
2974.378	1.674	3381773	REC_START	n/a	6	-999	n/a	BEE	n/a	n/a	19	[0, 0, 0]	-999	PAL1	1	R1091N
2976.052	0.601	3383447	REC_EVENT	1674	6	4	BEE	BEE	BEE	BENCH	19	[0, 0, 0]	-999	PAL1	1	R1091N
2976.653	0.183	3384048	REC_EVENT	2275	6	4	BEE	BEE	BEE	BENCH	19	[0, 0, 0]	-999	PAL1	1	R1091N
2976.836	2.559	3384231	REC_EVENT	2458	6	4	BEE	<>	BEE	BENCH	19	[0, 0, 0]	-999	PAL1	1	R1091N
2979.395	0.017	3386790	REC_END	n/a	6	-999	n/a	n/a	n/a	n/a	19	[0, 0, 0]	-999	PAL1	1	R1091N
2979.412	0.833	3386807	TEST_ORIENT	n/a	1	5	MILK	n/a	MILK	PASTE	19	[0, 0, 0]	-999	PAL1	1	R1091N
2980.245	0.001	3387640	TEST_PROBE	n/a	1	5	MILK	n/a	MILK	PASTE	19	[0, 0, 0]	-999	PAL1	1	R1091N
2980.246	5.009	3387641	REC_START	n/a	1	-999	n/a	n/a	n/a	n/a	19	[0, 0, 0]	-999	PAL1	1	R1091N
2985.255	0.001	3392650	REC_EVENT	5009	1	5	MILK	<>	MILK	PASTE	19	[0, 0, 0]	-999	PAL1	1	R1091N
2985.256	0.024	3392651	REC_END	n/a	1	-999	n/a	n/a	n/a	n/a	19	[0, 0, 0]	-999	PAL1	1	R1091N
2985.28	0.949	3392675	TEST_ORIENT	n/a	2	6	STEAK	n/a	WAND	STEAK	19	[0, 0, 0]	-999	PAL1	1	R1091N
2986.229	0.001	3393624	TEST_PROBE	n/a	2	6	STEAK	n/a	WAND	STEAK	19	[0, 0, 0]	-999	PAL1	1	R1091N
2986.23	5.009	3393625	REC_START	n/a	2	-999	n/a	n/a	n/a	n/a	19	[0, 0, 0]	-999	PAL1	1	R1091N
2991.239	0.001	3398634	REC_EVENT	5009	2	6	STEAK	<>	WAND	STEAK	19	[0, 0, 0]	-999	PAL1	1	R1091N
2991.24	4.103	3398635	REC_END	n/a	2	-999	n/a	n/a	n/a	n/a	19	[0, 0, 0]	-999	PAL1	1	R1091N
2995.343	10.44	3402738	ENCODING_START	n/a	0	-999	n/a	n/a	n/a	n/a	20	[0, 0, 0]	-999	PAL1	1	R1091N
3005.783	0.95	3413177	STUDY_ORIENT	n/a	1	3	FACE	n/a	FACE	CHIEF	20	[0, 0, 0]	-999	PAL1	1	R1091N
3006.733	5.018	3414127	STUDY_PAIR	n/a	1	3	FACE	n/a	FACE	CHIEF	20	[0, 0, 0]	-999	PAL1	1	R1091N
3011.751	1.017	3419145	STUDY_ORIENT	n/a	2	4	HEART	n/a	EGG	HEART	20	[0, 0, 0]	-999	PAL1	1	R1091N
