onset	duration	sample	trial_type	response_time	stim_file	serialpos	probepos	probe_word	resp_word	study_1	study_2	list	test	answer	experiment	session	subject
0.0	74.395	8074	SESS_START	n/a	n/a	-999	-999	n/a	n/a	n/a	n/a	-999	[0, 0, 0]	-999	PAL1	0	R1036M
74.395	1.017	45269	START	n/a	n/a	-999	-999	n/a	n/a	n/a	n/a	-1	[-999, -999, -999]	-999	PAL1	0	R1036M
75.412	11.168	45778	PROB	11.146	n/a	-999	-999	n/a	n/a	n/a	n/a	-1	[4, 8, 7]	18	PAL1	0	R1036M
86.58	9.282	51361	PROB	9.282	n/a	-999	-999	n/a	n/a	n/a	n/a	-1	[3, 1, 8]	12	PAL1	0	R1036M
95.862	65.208	56002	STOP	n/a	n/a	-999	-999	n/a	n/a	n/a	n/a	-1	[-999, -999, -999]	-999	PAL1	0	R1036M
161.07	10.444	88604	ENCODING_START	n/a	n/a	0	-999	n/a	n/a	n/a	n/a	1	[0, 0, 0]	-999	PAL1	0	R1036M
171.514	0.275	93826	STUDY_ORIENT	n/a	n/a	1	3	HOOK	VEST	HOOK	VEST	1	[0, 0, 0]	-999	PAL1	0	R1036M
172.348	4.0	94243	STUDY_PAIR	n/a	wordpools/wordpool_EN.txt	1	3	HOOK	VEST	HOOK	VEST	1	[0, 0, 0]	-999	PAL1	0	R1036M
177.382	0.275	96760	STUDY_ORIENT	n/a	n/a	2	4	PLANT	n/a	HORSE	PLANT	1	[0, 0, 0]	-999	PAL1	0	R1036M
178.299	4.0	97218	STUDY_PAIR	n/a	wordpools/wordpool_EN.txt	2	4	PLANT	n/a	HORSE	PLANT	1	[0, 0, 0]	-999	PAL1	0	R1036M
183.333	0.275	99735	STUDY_ORIENT	n/a	n/a	3	1	POOL	n/a	PIPE	POOL	1	[0, 0, 0]	-999	PAL1	0	R1036M
184.333	4.0	100235	STUDY_PAIR	n/a	wordpools/wordpool_EN.txt	3	1	POOL	n/a	PIPE	POOL	1	[0, 0, 0]	-999	PAL1	0	R1036M
189.351	0.275	102744	STUDY_ORIENT	n/a	n/a	4	2	STOVE	n/a	COUCH	STOVE	1	[0, 0, 0]	-999	PAL1	0	R1036M
190.184	4.0	103160	STUDY_PAIR	n/a	wordpools/wordpool_EN.txt	4	2	STOVE	n/a	COUCH	STOVE	1	[0, 0, 0]	-999	PAL1	0	R1036M
195.218	0.275	105677	STUDY_ORIENT	n/a	n/a	5	5	CHAIR	ARM	CHAIR	BOOT	1	[0, 0, 0]	-999	PAL1	0	R1036M
196.152	4.0	106144	STUDY_PAIR	n/a	wordpools/wordpool_EN.txt	5	5	CHAIR	ARM	CHAIR	BOOT	1	[0, 0, 0]	-999	PAL1	0	R1036M
201.186	0.275	108661	STUDY_ORIENT	n/a	n/a	6	6	TOAD	PLANE	TOAD	PLANE	1	[0, 0, 0]	-999	PAL1	0	R1036M
202.103	4.0	109120	STUDY_PAIR	n/a	wordpools/wordpool_EN.txt	6	6	TOAD	PLANE	TOAD	PLANE	1	[0, 0, 0]	-999	PAL1	0	R1036M
206.121	0.999	111128	START	n/a	n/a	-999	-999	n/a	n/a	n/a	n/a	1	[-999, -999, -999]	-999	PAL1	0	R1036M
207.12	0.017	111628	MATH_START	n/a	n/a	-999	-999	n/a	n/a	n/a	n/a	1	[0, 0, 0]	-999	PAL1	0	R1036M
207.137	5.968	111636	PROB	5.949	n/a	-999	-999	n/a	n/a	n/a	n/a	1	[3, 1, 7]	11	PAL1	0	R1036M
213.105	5.501	114620	PROB	5.477	n/a	-999	-999	n/a	n/a	n/a	n/a	1	[2, 5, 3]	10	PAL1	0	R1036M
218.606	5.802	117371	PROB	5.769	n/a	-999	-999	n/a	n/a	n/a	n/a	1	[4, 7, 1]	12	PAL1	0	R1036M
224.408	7.222	120271	PROB	7.222	n/a	-999	-999	n/a	n/a	n/a	n/a	1	[6, 8, 2]	16	PAL1	0	R1036M
231.63	0.012	123882	STOP	n/a	n/a	-999	-999	n/a	n/a	n/a	n/a	1	[-999, -999, -999]	-999	PAL1	0	R1036M
231.642	0.0	123888	TEST_START	n/a	n/a	-999	-999	n/a	n/a	n/a	n/a	1	[0, 0, 0]	-999	PAL1	0	R1036M
231.642	0.016	123888	MATH_END	n/a	n/a	-999	-999	n/a	n/a	n/a	n/a	1	[0, 0, 0]	-999	PAL1	0	R1036M
231.658	0.275	123896	TEST_ORIENT	n/a	n/a	3	1	POOL	n/a	PIPE	POOL	1	[0, 0, 0]	-999	PAL1	0	R1036M
232.608	4.0	124371	TEST_PROBE	n/a	wordpools/wordpool_EN.txt	3	1	POOL	n/a	PIPE	POOL	1	[0, 0, 0]	-999	PAL1	0	R1036M
232.609	4.998	124372	REC_START	n/a	n/a	3	-999	n/a	n/a	n/a	n/a	1	[0, 0, 0]	-999	PAL1	0	R1036M
237.607	0.002	126871	REC_EVENT	4.998	n/a	3	1	POOL	<>	PIPE	POOL	1	[0, 0, 0]	-999	PAL1	0	R1036M
237.609	0.017	126872	REC_END	n/a	n/a	3	-999	n/a	n/a	n/a	n/a	1	[0, 0, 0]	-999	PAL1	0	R1036M
237.626	0.275	126880	TEST_ORIENT	n/a	n/a	4	2	STOVE	n/a	COUCH	STOVE	1	[0, 0, 0]	-999	PAL1	0	R1036M
238.593	4.0	127364	TEST_PROBE	n/a	wordpools/wordpool_EN.txt	4	2	STOVE	n/a	COUCH	STOVE	1	[0, 0, 0]	-999	PAL1	0	R1036M
238.594	0.0	127364	REC_START	n/a	n/a	4	-999	n/a	n/a	n/a	n/a	1	[0, 0, 0]	-999	PAL1	0	R1036M
238.594	5.009	127364	REC_EVENT	0.0	n/a	4	2	STOVE	<>	COUCH	STOVE	1	[0, 0, 0]	-999	PAL1	0	R1036M
243.603	0.008	129868	REC_END	n/a	n/a	4	-999	n/a	n/a	n/a	n/a	1	[0, 0, 0]	-999	PAL1	0	R1036M
243.611	0.275	129872	TEST_ORIENT	n/a	n/a	1	3	HOOK	VEST	HOOK	VEST	1	[0, 0, 0]	-999	PAL1	0	R1036M
244.462	4.0	130298	TEST_PROBE	n/a	wordpools/wordpool_EN.txt	1	3	HOOK	VEST	HOOK	VEST	1	[0, 0, 0]	-999	PAL1	0	R1036M
244.463	2.838	130298	REC_START	n/a	n/a	1	-999	n/a	VEST	n/a	n/a	1	[0, 0, 0]	-999	PAL1	0	R1036M
247.301	2.179	131717	REC_EVENT	2.838	n/a	1	3	HOOK	VEST	HOOK	VEST	1	[0, 0, 0]	-999	PAL1	0	R1036M
249.48	0.016	132807	REC_END	n/a	n/a	1	-999	n/a	n/a	n/a	n/a	1	[0, 0, 0]	-999	PAL1	0	R1036M
249.496	0.275	132815	TEST_ORIENT	n/a	n/a	2	4	PLANT	n/a	HORSE	PLANT	1	[0, 0, 0]	-999	PAL1	0	R1036M
250.38	4.0	133257	TEST_PROBE	n/a	wordpools/wordpool_EN.txt	2	4	PLANT	n/a	HORSE	PLANT	1	[0, 0, 0]	-999	PAL1	0	R1036M
250.381	0.0	133257	REC_EVENT	0.0	n/a	2	4	PLANT	<>	HORSE	PLANT	1	[0, 0, 0]	-999	PAL1	0	R1036M
250.381	5.016	133257	REC_START	n/a	n/a	2	-999	n/a	n/a	n/a	n/a	1	[0, 0, 0]	-999	PAL1	0	R1036M
255.397	0.017	135765	REC_END	n/a	n/a	2	-999	n/a	n/a	n/a	n/a	1	[0, 0, 0]	-999	PAL1	0	R1036M
255.414	0.275	135774	TEST_ORIENT	n/a	n/a	5	5	CHAIR	ARM	CHAIR	BOOT	1	[0, 0, 0]	-999	PAL1	0	R1036M
256.298	4.0	136216	TEST_PROBE	n/a	wordpools/wordpool_EN.txt	5	5	CHAIR	ARM	CHAIR	BOOT	1	[0, 0, 0]	-999	PAL1	0	R1036M
256.299	2.796	136216	REC_START	n/a	n/a	5	-999	n/a	ARM	n/a	n/a	1	[0, 0, 0]	-999	PAL1	0	R1036M
259.095	2.238	137614	REC_EVENT	2.796	n/a	5	5	CHAIR	ARM	CHAIR	BOOT	1	[0, 0, 0]	-999	PAL1	0	R1036M
261.333	0.016	138733	REC_END	n/a	n/a	5	-999	n/a	n/a	n/a	n/a	1	[0, 0, 0]	-999	PAL1	0	R1036M
261.349	0.275	138741	TEST_ORIENT	n/a	n/a	6	6	TOAD	PLANE	TOAD	PLANE	1	[0, 0, 0]	-999	PAL1	0	R1036M
262.165	0.0	139149	REC_START	n/a	n/a	6	-999	n/a	PLANE	n/a	n/a	1	[0, 0, 0]	-999	PAL1	0	R1036M
262.165	4.0	139149	TEST_PROBE	n/a	wordpools/wordpool_EN.txt	6	6	TOAD	PLANE	TOAD	PLANE	1	[0, 0, 0]	-999	PAL1	0	R1036M
264.819	2.363	140476	REC_EVENT	2.654	n/a	6	6	TOAD	PLANE	TOAD	PLANE	1	[0, 0, 0]	-999	PAL1	0	R1036M
267.182	15.408	141657	REC_END	n/a	n/a	6	-999	n/a	n/a	n/a	n/a	1	[0, 0, 0]	-999	PAL1	0	R1036M
282.59	10.447	149361	ENCODING_START	n/a	n/a	0	-999	n/a	n/a	n/a	n/a	2	[0, 0, 0]	-999	PAL1	0	R1036M
293.037	0.275	154584	STUDY_ORIENT	n/a	n/a	1	5	COW	BELL	COW	DEER	2	[0, 0, 0]	-999	PAL1	0	R1036M
293.971	4.0	155051	STUDY_PAIR	n/a	wordpools/wordpool_EN.txt	1	5	COW	BELL	COW	DEER	2	[0, 0, 0]	-999	PAL1	0	R1036M
299.005	0.275	157568	STUDY_ORIENT	n/a	n/a	2	2	CLAY	PIG	PIG	CLAY	2	[0, 0, 0]	-999	PAL1	0	R1036M
299.955	4.0	158043	STUDY_PAIR	n/a	wordpools/wordpool_EN.txt	2	2	CLAY	PIG	PIG	CLAY	2	[0, 0, 0]	-999	PAL1	0	R1036M
304.973	0.275	160552	STUDY_ORIENT	n/a	n/a	3	3	BEAR	FOX	BEAR	FOX	2	[0, 0, 0]	-999	PAL1	0	R1036M
305.757	4.0	160944	STUDY_PAIR	n/a	wordpools/wordpool_EN.txt	3	3	BEAR	FOX	BEAR	FOX	2	[0, 0, 0]	-999	PAL1	0	R1036M
310.791	0.275	163461	STUDY_ORIENT	n/a	n/a	4	6	STORE	n/a	STICK	STORE	2	[0, 0, 0]	-999	PAL1	0	R1036M
311.658	4.0	163894	STUDY_PAIR	n/a	wordpools/wordpool_EN.txt	4	6	STORE	n/a	STICK	STORE	2	[0, 0, 0]	-999	PAL1	0	R1036M
316.692	0.275	166411	STUDY_ORIENT	n/a	n/a	5	1	GLOVE	n/a	BLUSH	GLOVE	2	[0, 0, 0]	-999	PAL1	0	R1036M
317.709	4.0	166919	STUDY_PAIR	n/a	wordpools/wordpool_EN.txt	5	1	GLOVE	n/a	BLUSH	GLOVE	2	[0, 0, 0]	-999	PAL1	0	R1036M
322.743	0.275	169436	STUDY_ORIENT	n/a	n/a	6	4	GUARD	PANTS	GUARD	PANTS	2	[0, 0, 0]	-999	PAL1	0	R1036M
323.76	4.0	169945	STUDY_PAIR	n/a	wordpools/wordpool_EN.txt	6	4	GUARD	PANTS	GUARD	PANTS	2	[0, 0, 0]	-999	PAL1	0	R1036M
327.761	1.0	171945	START	n/a	n/a	-999	-999	n/a	n/a	n/a	n/a	2	[-999, -999, -999]	-999	PAL1	0	R1036M
328.761	0.017	172445	MATH_START	n/a	n/a	-999	-999	n/a	n/a	n/a	n/a	2	[0, 0, 0]	-999	PAL1	0	R1036M
328.778	9.753	172454	PROB	9.725	n/a	-999	-999	n/a	n/a	n/a	n/a	2	[3, 8, 5]	16	PAL1	0	R1036M
338.531	8.05	177330	PROB	8.027	n/a	-999	-999	n/a	n/a	n/a	n/a	2	[3, 2, 3]	8	PAL1	0	R1036M
346.581	9.81	181355	PROB	9.81	n/a	-999	-999	n/a	n/a	n/a	n/a	2	[9, 5, 3]	17	PAL1	0	R1036M
356.391	0.01	186259	STOP	n/a	n/a	-999	-999	n/a	n/a	n/a	n/a	2	[-999, -999, -999]	-999	PAL1	0	R1036M
356.401	0.0	186264	MATH_END	n/a	n/a	-999	-999	n/a	n/a	n/a	n/a	2	[0, 0, 0]	-999	PAL1	0	R1036M
356.401	0.017	186264	TEST_START	n/a	n/a	-999	-999	n/a	n/a	n/a	n/a	2	[0, 0, 0]	-999	PAL1	0	R1036M
356.418	0.275	186273	TEST_ORIENT	n/a	n/a	5	1	GLOVE	n/a	BLUSH	GLOVE	2	[0, 0, 0]	-999	PAL1	0	R1036M
357.384	4.0	186756	TEST_PROBE	n/a	wordpools/wordpool_EN.txt	5	1	GLOVE	n/a	BLUSH	GLOVE	2	[0, 0, 0]	-999	PAL1	0	R1036M
357.385	1.625	186756	REC_START	n/a	n/a	5	-999	n/a	n/a	n/a	n/a	2	[0, 0, 0]	-999	PAL1	0	R1036M
359.01	3.384	187569	REC_EVENT	1.625	n/a	5	1	GLOVE	<>	BLUSH	GLOVE	2	[0, 0, 0]	-999	PAL1	0	R1036M
362.394	0.008	189261	REC_END	n/a	n/a	5	-999	n/a	n/a	n/a	n/a	2	[0, 0, 0]	-999	PAL1	0	R1036M
362.402	0.275	189265	TEST_ORIENT	n/a	n/a	2	2	CLAY	PIG	PIG	CLAY	2	[0, 0, 0]	-999	PAL1	0	R1036M
363.369	4.0	189748	TEST_PROBE	n/a	wordpools/wordpool_EN.txt	2	2	CLAY	PIG	PIG	CLAY	2	[0, 0, 0]	-999	PAL1	0	R1036M
363.37	0.994	189749	REC_START	n/a	n/a	2	-999	n/a	PIG	n/a	n/a	2	[0, 0, 0]	-999	PAL1	0	R1036M
364.364	4.022	190246	REC_EVENT	0.994	n/a	2	2	CLAY	PIG	PIG	CLAY	2	[0, 0, 0]	-999	PAL1	0	R1036M
368.386	0.017	192257	REC_END	n/a	n/a	2	-999	n/a	n/a	n/a	n/a	2	[0, 0, 0]	-999	PAL1	0	R1036M
368.403	0.275	192265	TEST_ORIENT	n/a	n/a	3	3	BEAR	FOX	BEAR	FOX	2	[0, 0, 0]	-999	PAL1	0	R1036M
369.287	4.0	192707	TEST_PROBE	n/a	wordpools/wordpool_EN.txt	3	3	BEAR	FOX	BEAR	FOX	2	[0, 0, 0]	-999	PAL1	0	R1036M
369.287	2.706	192707	REC_START	n/a	n/a	3	-999	n/a	FOX	n/a	n/a	2	[0, 0, 0]	-999	PAL1	0	R1036M
371.993	2.311	194060	REC_EVENT	2.706	n/a	3	3	BEAR	FOX	BEAR	FOX	2	[0, 0, 0]	-999	PAL1	0	R1036M
374.304	0.017	195215	REC_END	n/a	n/a	3	-999	n/a	n/a	n/a	n/a	2	[0, 0, 0]	-999	PAL1	0	R1036M
374.321	0.275	195224	TEST_ORIENT	n/a	n/a	6	4	GUARD	PANTS	GUARD	PANTS	2	[0, 0, 0]	-999	PAL1	0	R1036M
375.321	4.0	195724	TEST_PROBE	n/a	wordpools/wordpool_EN.txt	6	4	GUARD	PANTS	GUARD	PANTS	2	[0, 0, 0]	-999	PAL1	0	R1036M
375.322	1.19	195724	REC_START	n/a	n/a	6	-999	n/a	PANTS	n/a	n/a	2	[0, 0, 0]	-999	PAL1	0	R1036M
376.512	3.819	196319	REC_EVENT	1.19	n/a	6	4	GUARD	PANTS	GUARD	PANTS	2	[0, 0, 0]	-999	PAL1	0	R1036M
380.331	0.008	198229	REC_END	n/a	n/a	6	-999	n/a	n/a	n/a	n/a	2	[0, 0, 0]	-999	PAL1	0	R1036M
380.339	0.275	198233	TEST_ORIENT	n/a	n/a	1	5	COW	BELL	COW	DEER	2	[0, 0, 0]	-999	PAL1	0	R1036M
381.289	4.0	198708	TEST_PROBE	n/a	wordpools/wordpool_EN.txt	1	5	COW	BELL	COW	DEER	2	[0, 0, 0]	-999	PAL1	0	R1036M
381.29	3.766	198708	REC_START	n/a	n/a	1	-999	n/a	BELL	n/a	n/a	2	[0, 0, 0]	-999	PAL1	0	R1036M
385.056	1.243	200591	REC_EVENT	3.766	n/a	1	5	COW	BELL	COW	DEER	2	[0, 0, 0]	-999	PAL1	0	R1036M
386.299	0.008	201213	REC_END	n/a	n/a	1	-999	n/a	n/a	n/a	n/a	2	[0, 0, 0]	-999	PAL1	0	R1036M
386.307	0.275	201217	TEST_ORIENT	n/a	n/a	4	6	STORE	n/a	STICK	STORE	2	[0, 0, 0]	-999	PAL1	0	R1036M
387.34	4.0	201733	TEST_PROBE	n/a	wordpools/wordpool_EN.txt	4	6	STORE	n/a	STICK	STORE	2	[0, 0, 0]	-999	PAL1	0	R1036M
387.341	0.0	201734	REC_START	n/a	n/a	4	-999	n/a	n/a	n/a	n/a	2	[0, 0, 0]	-999	PAL1	0	R1036M
387.341	5.008	201734	REC_EVENT	0.0	n/a	4	6	STORE	<>	STICK	STORE	2	[0, 0, 0]	-999	PAL1	0	R1036M
392.349	18.002	204237	REC_END	n/a	n/a	4	-999	n/a	n/a	n/a	n/a	2	[0, 0, 0]	-999	PAL1	0	R1036M
410.351	10.445	213238	ENCODING_START	n/a	n/a	0	-999	n/a	n/a	n/a	n/a	3	[0, 0, 0]	-999	PAL1	0	R1036M
420.796	0.275	218460	STUDY_ORIENT	n/a	n/a	1	1	MAIL	n/a	SHIRT	MAIL	3	[0, 0, 0]	-999	PAL1	0	R1036M
421.813	4.0	218969	STUDY_PAIR	n/a	wordpools/wordpool_EN.txt	1	1	MAIL	n/a	SHIRT	MAIL	3	[0, 0, 0]	-999	PAL1	0	R1036M
426.847	0.275	221485	STUDY_ORIENT	n/a	n/a	2	6	CLOCK	n/a	PLATE	CLOCK	3	[0, 0, 0]	-999	PAL1	0	R1036M
427.747	4.0	221935	STUDY_PAIR	n/a	wordpools/wordpool_EN.txt	2	6	CLOCK	n/a	PLATE	CLOCK	3	[0, 0, 0]	-999	PAL1	0	R1036M
432.765	0.275	224444	STUDY_ORIENT	n/a	n/a	3	3	SEAL	n/a	ROCK	SEAL	3	[0, 0, 0]	-999	PAL1	0	R1036M
433.682	4.0	224903	STUDY_PAIR	n/a	wordpools/wordpool_EN.txt	3	3	SEAL	n/a	ROCK	SEAL	3	[0, 0, 0]	-999	PAL1	0	R1036M
438.716	0.275	227420	STUDY_ORIENT	n/a	n/a	4	2	CORN	n/a	CORN	TAIL	3	[0, 0, 0]	-999	PAL1	0	R1036M
439.716	4.0	227920	STUDY_PAIR	n/a	wordpools/wordpool_EN.txt	4	2	CORN	n/a	CORN	TAIL	3	[0, 0, 0]	-999	PAL1	0	R1036M
444.734	0.275	230428	STUDY_ORIENT	n/a	n/a	5	5	WHEEL	n/a	SKI	WHEEL	3	[0, 0, 0]	-999	PAL1	0	R1036M
445.568	4.0	230845	STUDY_PAIR	n/a	wordpools/wordpool_EN.txt	5	5	WHEEL	n/a	SKI	WHEEL	3	[0, 0, 0]	-999	PAL1	0	R1036M
450.602	0.275	233362	STUDY_ORIENT	n/a	n/a	6	4	SNAKE	n/a	HEN	SNAKE	3	[0, 0, 0]	-999	PAL1	0	R1036M
451.436	4.0	233779	STUDY_PAIR	n/a	wordpools/wordpool_EN.txt	6	4	SNAKE	n/a	HEN	SNAKE	3	[0, 0, 0]	-999	PAL1	0	R1036M
455.438	0.999	235780	START	n/a	n/a	-999	-999	n/a	n/a	n/a	n/a	3	[-999, -999, -999]	-999	PAL1	0	R1036M
456.437	0.017	236280	MATH_START	n/a	n/a	-999	-999	n/a	n/a	n/a	n/a	3	[0, 0, 0]	-999	PAL1	0	R1036M
456.454	9.434	236288	PROB	9.4	n/a	-999	-999	n/a	n/a	n/a	n/a	3	[9, 5, 4]	18	PAL1	0	R1036M
465.888	10.926	241005	PROB	10.926	n/a	-999	-999	n/a	n/a	n/a	n/a	3	[6, 7, 2]	15	PAL1	0	R1036M
476.814	0.01	246468	STOP	n/a	n/a	-999	-999	n/a	n/a	n/a	n/a	3	[-999, -999, -999]	-999	PAL1	0	R1036M
476.824	0.0	246473	TEST_START	n/a	n/a	-999	-999	n/a	n/a	n/a	n/a	3	[0, 0, 0]	-999	PAL1	0	R1036M
476.824	0.016	246473	MATH_END	n/a	n/a	-999	-999	n/a	n/a	n/a	n/a	3	[0, 0, 0]	-999	PAL1	0	R1036M
476.84	0.275	246481	TEST_ORIENT	n/a	n/a	1	1	MAIL	n/a	SHIRT	MAIL	3	[0, 0, 0]	-999	PAL1	0	R1036M
477.69	4.0	246906	TEST_PROBE	n/a	wordpools/wordpool_EN.txt	1	1	MAIL	n/a	SHIRT	MAIL	3	[0, 0, 0]	-999	PAL1	0	R1036M
477.691	1.486	246906	REC_START	n/a	n/a	1	-999	n/a	n/a	n/a	n/a	3	[0, 0, 0]	-999	PAL1	0	R1036M
479.177	3.514	247649	REC_EVENT	1.486	n/a	1	1	MAIL	<>	SHIRT	MAIL	3	[0, 0, 0]	-999	PAL1	0	R1036M
482.691	0.017	249406	REC_END	n/a	n/a	1	-999	n/a	n/a	n/a	n/a	3	[0, 0, 0]	-999	PAL1	0	R1036M
482.708	0.275	249414	TEST_ORIENT	n/a	n/a	4	2	CORN	n/a	CORN	TAIL	3	[0, 0, 0]	-999	PAL1	0	R1036M
483.526	4.0	249823	TEST_PROBE	n/a	wordpools/wordpool_EN.txt	4	2	CORN	n/a	CORN	TAIL	3	[0, 0, 0]	-999	PAL1	0	R1036M
483.527	0.0	249824	REC_START	n/a	n/a	4	-999	n/a	n/a	n/a	n/a	3	[0, 0, 0]	-999	PAL1	0	R1036M
483.527	5.009	249824	REC_EVENT	0.0	n/a	4	2	CORN	<>	CORN	TAIL	3	[0, 0, 0]	-999	PAL1	0	R1036M
488.536	0.007	252328	REC_END	n/a	n/a	4	-999	n/a	n/a	n/a	n/a	3	[0, 0, 0]	-999	PAL1	0	R1036M
488.543	0.275	252332	TEST_ORIENT	n/a	n/a	3	3	SEAL	n/a	ROCK	SEAL	3	[0, 0, 0]	-999	PAL1	0	R1036M
489.576	4.0	252848	TEST_PROBE	n/a	wordpools/wordpool_EN.txt	3	3	SEAL	n/a	ROCK	SEAL	3	[0, 0, 0]	-999	PAL1	0	R1036M
489.577	0.0	252849	REC_START	n/a	n/a	3	-999	n/a	n/a	n/a	n/a	3	[0, 0, 0]	-999	PAL1	0	R1036M
489.577	5.008	252849	REC_EVENT	0.0	n/a	3	3	SEAL	<>	ROCK	SEAL	3	[0, 0, 0]	-999	PAL1	0	R1036M
494.585	0.009	255353	REC_END	n/a	n/a	3	-999	n/a	n/a	n/a	n/a	3	[0, 0, 0]	-999	PAL1	0	R1036M
494.594	0.275	255357	TEST_ORIENT	n/a	n/a	6	4	SNAKE	n/a	HEN	SNAKE	3	[0, 0, 0]	-999	PAL1	0	R1036M
495.495	4.0	255808	TEST_PROBE	n/a	wordpools/wordpool_EN.txt	6	4	SNAKE	n/a	HEN	SNAKE	3	[0, 0, 0]	-999	PAL1	0	R1036M
495.496	0.0	255808	REC_START	n/a	n/a	6	-999	n/a	n/a	n/a	n/a	3	[0, 0, 0]	-999	PAL1	0	R1036M
495.496	5.009	255808	REC_EVENT	0.0	n/a	6	4	SNAKE	<>	HEN	SNAKE	3	[0, 0, 0]	-999	PAL1	0	R1036M
500.505	0.008	258312	REC_END	n/a	n/a	6	-999	n/a	n/a	n/a	n/a	3	[0, 0, 0]	-999	PAL1	0	R1036M
500.513	0.275	258316	TEST_ORIENT	n/a	n/a	5	5	WHEEL	n/a	SKI	WHEEL	3	[0, 0, 0]	-999	PAL1	0	R1036M
501.396	4.0	258758	TEST_PROBE	n/a	wordpools/wordpool_EN.txt	5	5	WHEEL	n/a	SKI	WHEEL	3	[0, 0, 0]	-999	PAL1	0	R1036M
501.397	0.0	258758	REC_START	n/a	n/a	5	-999	n/a	n/a	n/a	n/a	3	[0, 0, 0]	-999	PAL1	0	R1036M
501.397	5.009	258758	REC_EVENT	0.0	n/a	5	5	WHEEL	<>	SKI	WHEEL	3	[0, 0, 0]	-999	PAL1	0	R1036M
506.406	0.008	261263	REC_END	n/a	n/a	5	-999	n/a	n/a	n/a	n/a	3	[0, 0, 0]	-999	PAL1	0	R1036M
506.414	0.275	261267	TEST_ORIENT	n/a	n/a	2	6	CLOCK	n/a	PLATE	CLOCK	3	[0, 0, 0]	-999	PAL1	0	R1036M
507.314	4.0	261717	TEST_PROBE	n/a	wordpools/wordpool_EN.txt	2	6	CLOCK	n/a	PLATE	CLOCK	3	[0, 0, 0]	-999	PAL1	0	R1036M
507.315	0.0	261717	REC_START	n/a	n/a	2	-999	n/a	n/a	n/a	n/a	3	[0, 0, 0]	-999	PAL1	0	R1036M
507.315	5.009	261717	REC_EVENT	0.0	n/a	2	6	CLOCK	<>	PLATE	CLOCK	3	[0, 0, 0]	-999	PAL1	0	R1036M
512.324	36.019	264222	REC_END	n/a	n/a	2	-999	n/a	n/a	n/a	n/a	3	[0, 0, 0]	-999	PAL1	0	R1036M
548.343	10.447	282230	ENCODING_START	n/a	n/a	0	-999	n/a	n/a	n/a	n/a	4	[0, 0, 0]	-999	PAL1	0	R1036M
558.79	0.275	287453	STUDY_ORIENT	n/a	n/a	1	3	DRESS	TOAD	DRESS	FISH	4	[0, 0, 0]	-999	PAL1	0	R1036M
559.757	4.0	287937	STUDY_PAIR	n/a	wordpools/wordpool_EN.txt	1	3	DRESS	TOAD	DRESS	FISH	4	[0, 0, 0]	-999	PAL1	0	R1036M
564.791	0.275	290454	STUDY_ORIENT	n/a	n/a	2	6	TOAST	n/a	TOAST	STEM	4	[0, 0, 0]	-999	PAL1	0	R1036M
565.758	4.0	290937	STUDY_PAIR	n/a	wordpools/wordpool_EN.txt	2	6	TOAST	n/a	TOAST	STEM	4	[0, 0, 0]	-999	PAL1	0	R1036M
570.776	0.275	293446	STUDY_ORIENT	n/a	n/a	3	1	STREET	KEY	STREET	KEY	4	[0, 0, 0]	-999	PAL1	0	R1036M
571.609	4.0	293862	STUDY_PAIR	n/a	wordpools/wordpool_EN.txt	3	1	STREET	KEY	STREET	KEY	4	[0, 0, 0]	-999	PAL1	0	R1036M
576.627	0.275	296371	STUDY_ORIENT	n/a	n/a	4	2	BUSH	VEST	BUSH	VASE	4	[0, 0, 0]	-999	PAL1	0	R1036M
577.462	4.0	296789	STUDY_PAIR	n/a	wordpools/wordpool_EN.txt	4	2	BUSH	VEST	BUSH	VASE	4	[0, 0, 0]	-999	PAL1	0	R1036M
582.496	0.275	299306	STUDY_ORIENT	n/a	n/a	5	5	FROG	n/a	FROG	KITE	4	[0, 0, 0]	-999	PAL1	0	R1036M
583.279	4.0	299697	STUDY_PAIR	n/a	wordpools/wordpool_EN.txt	5	5	FROG	n/a	FROG	KITE	4	[0, 0, 0]	-999	PAL1	0	R1036M
588.297	0.275	302206	STUDY_ORIENT	n/a	n/a	6	4	GOLD	n/a	GOLD	BLOOM	4	[0, 0, 0]	-999	PAL1	0	R1036M
589.113	4.0	302614	STUDY_PAIR	n/a	wordpools/wordpool_EN.txt	6	4	GOLD	n/a	GOLD	BLOOM	4	[0, 0, 0]	-999	PAL1	0	R1036M
593.131	0.999	304623	START	n/a	n/a	-999	-999	n/a	n/a	n/a	n/a	4	[-999, -999, -999]	-999	PAL1	0	R1036M
594.13	0.017	305122	MATH_START	n/a	n/a	-999	-999	n/a	n/a	n/a	n/a	4	[0, 0, 0]	-999	PAL1	0	R1036M
594.147	4.534	305131	PROB	4.507	n/a	-999	-999	n/a	n/a	n/a	n/a	4	[5, 1, 5]	11	PAL1	0	R1036M
598.681	13.804	307398	PROB	13.774	n/a	-999	-999	n/a	n/a	n/a	n/a	4	[6, 5, 7]	18	PAL1	0	R1036M
612.485	7.353	314299	PROB	7.353	n/a	-999	-999	n/a	n/a	n/a	n/a	4	[4, 2, 5]	11	PAL1	0	R1036M
619.838	0.014	317976	STOP	n/a	n/a	-999	-999	n/a	n/a	n/a	n/a	4	[-999, -999, -999]	-999	PAL1	0	R1036M
619.852	0.0	317983	MATH_END	n/a	n/a	-999	-999	n/a	n/a	n/a	n/a	4	[0, 0, 0]	-999	PAL1	0	R1036M
619.852	0.017	317983	TEST_START	n/a	n/a	-999	-999	n/a	n/a	n/a	n/a	4	[0, 0, 0]	-999	PAL1	0	R1036M
619.869	0.275	317991	TEST_ORIENT	n/a	n/a	3	1	STREET	KEY	STREET	KEY	4	[0, 0, 0]	-999	PAL1	0	R1036M
620.869	4.0	318491	TEST_PROBE	n/a	wordpools/wordpool_EN.txt	3	1	STREET	KEY	STREET	KEY	4	[0, 0, 0]	-999	PAL1	0	R1036M
620.87	1.159	318492	REC_START	n/a	n/a	3	-999	n/a	KEY	n/a	n/a	4	[0, 0, 0]	-999	PAL1	0	R1036M
622.029	3.867	319071	REC_EVENT	1.159	n/a	3	1	STREET	KEY	STREET	KEY	4	[0, 0, 0]	-999	PAL1	0	R1036M
625.896	0.007	321004	REC_END	n/a	n/a	3	-999	n/a	n/a	n/a	n/a	4	[0, 0, 0]	-999	PAL1	0	R1036M
625.903	0.275	321008	TEST_ORIENT	n/a	n/a	4	2	BUSH	VEST	BUSH	VASE	4	[0, 0, 0]	-999	PAL1	0	R1036M
626.837	0.0	321475	REC_START	n/a	n/a	4	-999	n/a	VEST	n/a	n/a	4	[0, 0, 0]	-999	PAL1	0	R1036M
626.837	4.0	321475	TEST_PROBE	n/a	wordpools/wordpool_EN.txt	4	2	BUSH	VEST	BUSH	VASE	4	[0, 0, 0]	-999	PAL1	0	R1036M
628.248	3.606	322180	REC_EVENT	1.411	n/a	4	2	BUSH	VEST	BUSH	VASE	4	[0, 0, 0]	-999	PAL1	0	R1036M
631.854	0.017	323983	REC_END	n/a	n/a	4	-999	n/a	n/a	n/a	n/a	4	[0, 0, 0]	-999	PAL1	0	R1036M
631.871	0.275	323992	TEST_ORIENT	n/a	n/a	1	3	DRESS	TOAD	DRESS	FISH	4	[0, 0, 0]	-999	PAL1	0	R1036M
632.705	4.0	324409	TEST_PROBE	n/a	wordpools/wordpool_EN.txt	1	3	DRESS	TOAD	DRESS	FISH	4	[0, 0, 0]	-999	PAL1	0	R1036M
632.705	3.93	324409	REC_START	n/a	n/a	1	-999	n/a	TOAD	n/a	n/a	4	[0, 0, 0]	-999	PAL1	0	R1036M
636.635	1.087	326374	REC_EVENT	3.93	n/a	1	3	DRESS	TOAD	DRESS	FISH	4	[0, 0, 0]	-999	PAL1	0	R1036M
637.722	0.017	326917	REC_END	n/a	n/a	1	-999	n/a	n/a	n/a	n/a	4	[0, 0, 0]	-999	PAL1	0	R1036M
637.739	0.275	326926	TEST_ORIENT	n/a	n/a	6	4	GOLD	n/a	GOLD	BLOOM	4	[0, 0, 0]	-999	PAL1	0	R1036M
638.539	4.0	327326	TEST_PROBE	n/a	wordpools/wordpool_EN.txt	6	4	GOLD	n/a	GOLD	BLOOM	4	[0, 0, 0]	-999	PAL1	0	R1036M
638.54	0.0	327326	REC_START	n/a	n/a	6	-999	n/a	n/a	n/a	n/a	4	[0, 0, 0]	-999	PAL1	0	R1036M
638.54	5.009	327326	REC_EVENT	0.0	n/a	6	4	GOLD	<>	GOLD	BLOOM	4	[0, 0, 0]	-999	PAL1	0	R1036M
643.549	0.008	329830	REC_END	n/a	n/a	6	-999	n/a	n/a	n/a	n/a	4	[0, 0, 0]	-999	PAL1	0	R1036M
643.557	0.275	329834	TEST_ORIENT	n/a	n/a	5	5	FROG	n/a	FROG	KITE	4	[0, 0, 0]	-999	PAL1	0	R1036M
644.54	4.0	330326	TEST_PROBE	n/a	wordpools/wordpool_EN.txt	5	5	FROG	n/a	FROG	KITE	4	[0, 0, 0]	-999	PAL1	0	R1036M
644.541	0.0	330326	REC_START	n/a	n/a	5	-999	n/a	n/a	n/a	n/a	4	[0, 0, 0]	-999	PAL1	0	R1036M
644.541	5.015	330326	REC_EVENT	0.0	n/a	5	5	FROG	<>	FROG	KITE	4	[0, 0, 0]	-999	PAL1	0	R1036M
649.556	0.019	332834	REC_END	n/a	n/a	5	-999	n/a	n/a	n/a	n/a	4	[0, 0, 0]	-999	PAL1	0	R1036M
649.575	0.275	332843	TEST_ORIENT	n/a	n/a	2	6	TOAST	n/a	TOAST	STEM	4	[0, 0, 0]	-999	PAL1	0	R1036M
650.493	4.0	333302	TEST_PROBE	n/a	wordpools/wordpool_EN.txt	2	6	TOAST	n/a	TOAST	STEM	4	[0, 0, 0]	-999	PAL1	0	R1036M
650.493	0.0	333302	REC_START	n/a	n/a	2	-999	n/a	n/a	n/a	n/a	4	[0, 0, 0]	-999	PAL1	0	R1036M
650.493	5.017	333302	REC_EVENT	0.0	n/a	2	6	TOAST	<>	TOAST	STEM	4	[0, 0, 0]	-999	PAL1	0	R1036M
655.51	22.376	335811	REC_END	n/a	n/a	2	-999	n/a	n/a	n/a	n/a	4	[0, 0, 0]	-999	PAL1	0	R1036M
677.886	10.447	346998	ENCODING_START	n/a	n/a	0	-999	n/a	n/a	n/a	n/a	5	[0, 0, 0]	-999	PAL1	0	R1036M
688.333	0.275	352221	STUDY_ORIENT	n/a	n/a	1	1	COIN	n/a	COIN	HAWK	5	[0, 0, 0]	-999	PAL1	0	R1036M
689.183	4.0	352646	STUDY_PAIR	n/a	wordpools/wordpool_EN.txt	1	1	COIN	n/a	COIN	HAWK	5	[0, 0, 0]	-999	PAL1	0	R1036M
694.217	0.275	355163	STUDY_ORIENT	n/a	n/a	2	2	MOON	n/a	MOON	CHIEF	5	[0, 0, 0]	-999	PAL1	0	R1036M
695.201	4.0	355655	STUDY_PAIR	n/a	wordpools/wordpool_EN.txt	2	2	MOON	n/a	MOON	CHIEF	5	[0, 0, 0]	-999	PAL1	0	R1036M
700.236	0.275	358172	STUDY_ORIENT	n/a	n/a	3	3	YARD	SNAIL	SLIME	YARD	5	[0, 0, 0]	-999	PAL1	0	R1036M
701.052	4.0	358580	STUDY_PAIR	n/a	wordpools/wordpool_EN.txt	3	3	YARD	SNAIL	SLIME	YARD	5	[0, 0, 0]	-999	PAL1	0	R1036M
706.086	0.275	361097	STUDY_ORIENT	n/a	n/a	4	6	FUDGE	n/a	ROOT	FUDGE	5	[0, 0, 0]	-999	PAL1	0	R1036M
707.07	4.0	361589	STUDY_PAIR	n/a	wordpools/wordpool_EN.txt	4	6	FUDGE	n/a	ROOT	FUDGE	5	[0, 0, 0]	-999	PAL1	0	R1036M
712.104	0.275	364106	STUDY_ORIENT	n/a	n/a	5	5	MILK	n/a	MILK	SNAIL	5	[0, 0, 0]	-999	PAL1	0	R1036M
713.004	4.0	364556	STUDY_PAIR	n/a	wordpools/wordpool_EN.txt	5	5	MILK	n/a	MILK	SNAIL	5	[0, 0, 0]	-999	PAL1	0	R1036M
718.022	0.275	367065	STUDY_ORIENT	n/a	n/a	6	4	TRAY	FOG	TRAY	EEL	5	[0, 0, 0]	-999	PAL1	0	R1036M
718.922	4.0	367515	STUDY_PAIR	n/a	wordpools/wordpool_EN.txt	6	4	TRAY	FOG	TRAY	EEL	5	[0, 0, 0]	-999	PAL1	0	R1036M
722.94	0.999	369524	START	n/a	n/a	-999	-999	n/a	n/a	n/a	n/a	5	[-999, -999, -999]	-999	PAL1	0	R1036M
723.939	0.017	370023	MATH_START	n/a	n/a	-999	-999	n/a	n/a	n/a	n/a	5	[0, 0, 0]	-999	PAL1	0	R1036M
723.956	6.453	370032	PROB	6.419	n/a	-999	-999	n/a	n/a	n/a	n/a	5	[2, 3, 4]	8	PAL1	0	R1036M
730.409	6.834	373258	PROB	6.813	n/a	-999	-999	n/a	n/a	n/a	n/a	5	[7, 8, 2]	17	PAL1	0	R1036M
737.243	6.196	376675	PROB	6.196	n/a	-999	-999	n/a	n/a	n/a	n/a	5	[2, 8, 4]	14	PAL1	0	R1036M
743.439	0.005	379773	STOP	n/a	n/a	-999	-999	n/a	n/a	n/a	n/a	5	[-999, -999, -999]	-999	PAL1	0	R1036M
743.444	0.0	379775	MATH_END	n/a	n/a	-999	-999	n/a	n/a	n/a	n/a	5	[0, 0, 0]	-999	PAL1	0	R1036M
743.444	0.017	379775	TEST_START	n/a	n/a	-999	-999	n/a	n/a	n/a	n/a	5	[0, 0, 0]	-999	PAL1	0	R1036M
743.461	0.275	379784	TEST_ORIENT	n/a	n/a	1	1	COIN	n/a	COIN	HAWK	5	[0, 0, 0]	-999	PAL1	0	R1036M
744.311	4.0	380209	TEST_PROBE	n/a	wordpools/wordpool_EN.txt	1	1	COIN	n/a	COIN	HAWK	5	[0, 0, 0]	-999	PAL1	0	R1036M
744.312	0.0	380209	REC_START	n/a	n/a	1	-999	n/a	n/a	n/a	n/a	5	[0, 0, 0]	-999	PAL1	0	R1036M
744.312	5.008	380209	REC_EVENT	0.0	n/a	1	1	COIN	<>	COIN	HAWK	5	[0, 0, 0]	-999	PAL1	0	R1036M
749.32	0.009	382713	REC_END	n/a	n/a	1	-999	n/a	n/a	n/a	n/a	5	[0, 0, 0]	-999	PAL1	0	R1036M
749.329	0.275	382718	TEST_ORIENT	n/a	n/a	2	2	MOON	n/a	MOON	CHIEF	5	[0, 0, 0]	-999	PAL1	0	R1036M
750.246	4.0	383176	TEST_PROBE	n/a	wordpools/wordpool_EN.txt	2	2	MOON	n/a	MOON	CHIEF	5	[0, 0, 0]	-999	PAL1	0	R1036M
750.246	0.0	383176	REC_START	n/a	n/a	2	-999	n/a	n/a	n/a	n/a	5	[0, 0, 0]	-999	PAL1	0	R1036M
750.246	5.017	383176	REC_EVENT	0.0	n/a	2	2	MOON	<>	MOON	CHIEF	5	[0, 0, 0]	-999	PAL1	0	R1036M
755.263	0.017	385684	REC_END	n/a	n/a	2	-999	n/a	n/a	n/a	n/a	5	[0, 0, 0]	-999	PAL1	0	R1036M
755.28	0.275	385693	TEST_ORIENT	n/a	n/a	3	3	YARD	SNAIL	SLIME	YARD	5	[0, 0, 0]	-999	PAL1	0	R1036M
756.113	4.0	386109	TEST_PROBE	n/a	wordpools/wordpool_EN.txt	3	3	YARD	SNAIL	SLIME	YARD	5	[0, 0, 0]	-999	PAL1	0	R1036M
756.113	1.772	386109	REC_START	n/a	n/a	3	-999	n/a	SNAIL	n/a	n/a	5	[0, 0, 0]	-999	PAL1	0	R1036M
757.885	3.245	386995	REC_EVENT	1.772	n/a	3	3	YARD	SNAIL	SLIME	YARD	5	[0, 0, 0]	-999	PAL1	0	R1036M
761.13	0.017	388618	REC_END	n/a	n/a	3	-999	n/a	n/a	n/a	n/a	5	[0, 0, 0]	-999	PAL1	0	R1036M
761.147	0.275	388626	TEST_ORIENT	n/a	n/a	6	4	TRAY	FOG	TRAY	EEL	5	[0, 0, 0]	-999	PAL1	0	R1036M
762.131	4.0	389118	TEST_PROBE	n/a	wordpools/wordpool_EN.txt	6	4	TRAY	FOG	TRAY	EEL	5	[0, 0, 0]	-999	PAL1	0	R1036M
762.131	3.36	389118	REC_START	n/a	n/a	6	-999	n/a	FOG	n/a	n/a	5	[0, 0, 0]	-999	PAL1	0	R1036M
765.491	1.665	390798	REC_EVENT	3.36	n/a	6	4	TRAY	FOG	TRAY	EEL	5	[0, 0, 0]	-999	PAL1	0	R1036M
767.156	0.009	391631	REC_END	n/a	n/a	6	-999	n/a	n/a	n/a	n/a	5	[0, 0, 0]	-999	PAL1	0	R1036M
767.165	0.275	391635	TEST_ORIENT	n/a	n/a	5	5	MILK	n/a	MILK	SNAIL	5	[0, 0, 0]	-999	PAL1	0	R1036M
768.165	4.0	392135	TEST_PROBE	n/a	wordpools/wordpool_EN.txt	5	5	MILK	n/a	MILK	SNAIL	5	[0, 0, 0]	-999	PAL1	0	R1036M
768.166	0.0	392136	REC_EVENT	0.0	n/a	5	5	MILK	<>	MILK	SNAIL	5	[0, 0, 0]	-999	PAL1	0	R1036M
768.166	5.026	392136	REC_START	n/a	n/a	5	-999	n/a	n/a	n/a	n/a	5	[0, 0, 0]	-999	PAL1	0	R1036M
773.192	0.007	394648	REC_END	n/a	n/a	5	-999	n/a	n/a	n/a	n/a	5	[0, 0, 0]	-999	PAL1	0	R1036M
773.199	0.275	394652	TEST_ORIENT	n/a	n/a	4	6	FUDGE	n/a	ROOT	FUDGE	5	[0, 0, 0]	-999	PAL1	0	R1036M
774.0	4.0	395052	TEST_PROBE	n/a	wordpools/wordpool_EN.txt	4	6	FUDGE	n/a	ROOT	FUDGE	5	[0, 0, 0]	-999	PAL1	0	R1036M
774.0	0.0	395052	REC_START	n/a	n/a	4	-999	n/a	n/a	n/a	n/a	5	[0, 0, 0]	-999	PAL1	0	R1036M
774.0	5.017	395052	REC_EVENT	0.0	n/a	4	6	FUDGE	<>	ROOT	FUDGE	5	[0, 0, 0]	-999	PAL1	0	R1036M
779.017	16.518	397561	REC_END	n/a	n/a	4	-999	n/a	n/a	n/a	n/a	5	[0, 0, 0]	-999	PAL1	0	R1036M
795.535	10.438	405819	ENCODING_START	n/a	n/a	0	-999	n/a	n/a	n/a	n/a	6	[0, 0, 0]	-999	PAL1	0	R1036M
805.973	0.275	411038	STUDY_ORIENT	n/a	n/a	1	1	MULE	CANE	MULE	TOOTH	6	[0, 0, 0]	-999	PAL1	0	R1036M
806.989	4.0	411546	STUDY_PAIR	n/a	wordpools/wordpool_EN.txt	1	1	MULE	CANE	MULE	TOOTH	6	[0, 0, 0]	-999	PAL1	0	R1036M
812.007	0.275	414055	STUDY_ORIENT	n/a	n/a	2	6	STEAK	HOSE	MOUSE	STEAK	6	[0, 0, 0]	-999	PAL1	0	R1036M
812.791	4.0	414447	STUDY_PAIR	n/a	wordpools/wordpool_EN.txt	2	6	STEAK	HOSE	MOUSE	STEAK	6	[0, 0, 0]	-999	PAL1	0	R1036M
817.825	0.275	416964	STUDY_ORIENT	n/a	n/a	3	3	SUN	n/a	SUN	HOSE	6	[0, 0, 0]	-999	PAL1	0	R1036M
818.642	4.0	417372	STUDY_PAIR	n/a	wordpools/wordpool_EN.txt	3	3	SUN	n/a	SUN	HOSE	6	[0, 0, 0]	-999	PAL1	0	R1036M
823.676	0.275	419889	STUDY_ORIENT	n/a	n/a	4	4	NOSE	n/a	NOSE	NEST	6	[0, 0, 0]	-999	PAL1	0	R1036M
824.56	4.0	420331	STUDY_PAIR	n/a	wordpools/wordpool_EN.txt	4	4	NOSE	n/a	NOSE	NEST	6	[0, 0, 0]	-999	PAL1	0	R1036M
829.594	0.275	422848	STUDY_ORIENT	n/a	n/a	5	5	PARK	PLACE	CANE	PARK	6	[0, 0, 0]	-999	PAL1	0	R1036M
830.512	4.0	423307	STUDY_PAIR	n/a	wordpools/wordpool_EN.txt	5	5	PARK	PLACE	CANE	PARK	6	[0, 0, 0]	-999	PAL1	0	R1036M
835.545	0.275	425823	STUDY_ORIENT	n/a	n/a	6	2	SAIL	n/a	SAIL	BEE	6	[0, 0, 0]	-999	PAL1	0	R1036M
836.463	4.0	426282	STUDY_PAIR	n/a	wordpools/wordpool_EN.txt	6	2	SAIL	n/a	SAIL	BEE	6	[0, 0, 0]	-999	PAL1	0	R1036M
840.481	0.999	428291	START	n/a	n/a	-999	-999	n/a	n/a	n/a	n/a	6	[-999, -999, -999]	-999	PAL1	0	R1036M
841.48	0.017	428790	MATH_START	n/a	n/a	-999	-999	n/a	n/a	n/a	n/a	6	[0, 0, 0]	-999	PAL1	0	R1036M
841.497	7.818	428799	PROB	7.79	n/a	-999	-999	n/a	n/a	n/a	n/a	6	[7, 5, 7]	19	PAL1	0	R1036M
849.315	5.901	432708	PROB	5.875	n/a	-999	-999	n/a	n/a	n/a	n/a	6	[6, 1, 9]	16	PAL1	0	R1036M
855.216	5.001	435658	PROB	4.974	n/a	-999	-999	n/a	n/a	n/a	n/a	6	[5, 1, 2]	8	PAL1	0	R1036M
860.217	6.134	438158	PROB	6.134	n/a	-999	-999	n/a	n/a	n/a	n/a	6	[8, 8, 2]	18	PAL1	0	R1036M
866.351	0.018	441225	STOP	n/a	n/a	-999	-999	n/a	n/a	n/a	n/a	6	[-999, -999, -999]	-999	PAL1	0	R1036M
866.369	0.0	441234	MATH_END	n/a	n/a	-999	-999	n/a	n/a	n/a	n/a	6	[0, 0, 0]	-999	PAL1	0	R1036M
866.369	0.017	441234	TEST_START	n/a	n/a	-999	-999	n/a	n/a	n/a	n/a	6	[0, 0, 0]	-999	PAL1	0	R1036M
866.386	0.275	441243	TEST_ORIENT	n/a	n/a	1	1	MULE	CANE	MULE	TOOTH	6	[0, 0, 0]	-999	PAL1	0	R1036M
867.319	4.0	441709	TEST_PROBE	n/a	wordpools/wordpool_EN.txt	1	1	MULE	CANE	MULE	TOOTH	6	[0, 0, 0]	-999	PAL1	0	R1036M
867.319	1.971	441709	REC_START	n/a	n/a	1	-999	n/a	CANE	n/a	n/a	6	[0, 0, 0]	-999	PAL1	0	R1036M
869.29	3.047	442695	REC_EVENT	1.971	n/a	1	1	MULE	CANE	MULE	TOOTH	6	[0, 0, 0]	-999	PAL1	0	R1036M
872.337	0.016	444218	REC_END	n/a	n/a	1	-999	n/a	n/a	n/a	n/a	6	[0, 0, 0]	-999	PAL1	0	R1036M
872.353	0.275	444226	TEST_ORIENT	n/a	n/a	6	2	SAIL	n/a	SAIL	BEE	6	[0, 0, 0]	-999	PAL1	0	R1036M
873.169	4.0	444634	TEST_PROBE	n/a	wordpools/wordpool_EN.txt	6	2	SAIL	n/a	SAIL	BEE	6	[0, 0, 0]	-999	PAL1	0	R1036M
873.17	0.0	444635	REC_START	n/a	n/a	6	-999	n/a	n/a	n/a	n/a	6	[0, 0, 0]	-999	PAL1	0	R1036M
873.17	5.009	444635	REC_EVENT	0.0	n/a	6	2	SAIL	<>	SAIL	BEE	6	[0, 0, 0]	-999	PAL1	0	R1036M
878.179	0.008	447139	REC_END	n/a	n/a	6	-999	n/a	n/a	n/a	n/a	6	[0, 0, 0]	-999	PAL1	0	R1036M
878.187	0.275	447143	TEST_ORIENT	n/a	n/a	3	3	SUN	n/a	SUN	HOSE	6	[0, 0, 0]	-999	PAL1	0	R1036M
879.104	0.0	447601	REC_START	n/a	n/a	3	-999	n/a	n/a	n/a	n/a	6	[0, 0, 0]	-999	PAL1	0	R1036M
879.104	0.0	447601	REC_EVENT	0.0	n/a	3	3	SUN	<>	SUN	HOSE	6	[0, 0, 0]	-999	PAL1	0	R1036M
879.104	4.0	447601	TEST_PROBE	n/a	wordpools/wordpool_EN.txt	3	3	SUN	n/a	SUN	HOSE	6	[0, 0, 0]	-999	PAL1	0	R1036M
884.121	0.017	450110	REC_END	n/a	n/a	3	-999	n/a	n/a	n/a	n/a	6	[0, 0, 0]	-999	PAL1	0	R1036M
884.138	0.275	450118	TEST_ORIENT	n/a	n/a	4	4	NOSE	n/a	NOSE	NEST	6	[0, 0, 0]	-999	PAL1	0	R1036M
885.172	4.0	450635	TEST_PROBE	n/a	wordpools/wordpool_EN.txt	4	4	NOSE	n/a	NOSE	NEST	6	[0, 0, 0]	-999	PAL1	0	R1036M
885.172	1.509	450635	REC_START	n/a	n/a	4	-999	n/a	n/a	n/a	n/a	6	[0, 0, 0]	-999	PAL1	0	R1036M
886.681	3.508	451390	REC_EVENT	1.509	n/a	4	4	NOSE	<>	NOSE	NEST	6	[0, 0, 0]	-999	PAL1	0	R1036M
890.189	0.017	453144	REC_END	n/a	n/a	4	-999	n/a	n/a	n/a	n/a	6	[0, 0, 0]	-999	PAL1	0	R1036M
890.206	0.275	453152	TEST_ORIENT	n/a	n/a	5	5	PARK	PLACE	CANE	PARK	6	[0, 0, 0]	-999	PAL1	0	R1036M
891.206	4.0	453652	TEST_PROBE	n/a	wordpools/wordpool_EN.txt	5	5	PARK	PLACE	CANE	PARK	6	[0, 0, 0]	-999	PAL1	0	R1036M
891.207	4.187	453653	REC_START	n/a	n/a	5	-999	n/a	PLACE	n/a	n/a	6	[0, 0, 0]	-999	PAL1	0	R1036M
895.394	0.813	455746	REC_EVENT	4.187	n/a	5	5	PARK	PLACE	CANE	PARK	6	[0, 0, 0]	-999	PAL1	0	R1036M
896.207	0.017	456152	REC_END	n/a	n/a	5	-999	n/a	n/a	n/a	n/a	6	[0, 0, 0]	-999	PAL1	0	R1036M
896.224	0.275	456161	TEST_ORIENT	n/a	n/a	2	6	STEAK	HOSE	MOUSE	STEAK	6	[0, 0, 0]	-999	PAL1	0	R1036M
897.024	4.0	456561	TEST_PROBE	n/a	wordpools/wordpool_EN.txt	2	6	STEAK	HOSE	MOUSE	STEAK	6	[0, 0, 0]	-999	PAL1	0	R1036M
897.024	3.601	456561	REC_START	n/a	n/a	2	-999	n/a	HOSE	n/a	n/a	6	[0, 0, 0]	-999	PAL1	0	R1036M
900.625	1.417	458361	REC_EVENT	3.601	n/a	2	6	STEAK	HOSE	MOUSE	STEAK	6	[0, 0, 0]	-999	PAL1	0	R1036M
902.042	47.516	459070	REC_END	n/a	n/a	2	-999	n/a	n/a	n/a	n/a	6	[0, 0, 0]	-999	PAL1	0	R1036M
949.558	10.445	482827	ENCODING_START	n/a	n/a	0	-999	n/a	n/a	n/a	n/a	7	[0, 0, 0]	-999	PAL1	0	R1036M
960.003	0.275	488049	STUDY_ORIENT	n/a	n/a	1	5	INK	PEN	RAT	INK	7	[0, 0, 0]	-999	PAL1	0	R1036M
960.97	4.0	488532	STUDY_PAIR	n/a	wordpools/wordpool_EN.txt	1	5	INK	PEN	RAT	INK	7	[0, 0, 0]	-999	PAL1	0	R1036M
966.004	0.275	491049	STUDY_ORIENT	n/a	n/a	2	4	SNOW	n/a	VINE	SNOW	7	[0, 0, 0]	-999	PAL1	0	R1036M
966.855	4.0	491475	STUDY_PAIR	n/a	wordpools/wordpool_EN.txt	2	4	SNOW	n/a	VINE	SNOW	7	[0, 0, 0]	-999	PAL1	0	R1036M
971.889	0.275	493991	STUDY_ORIENT	n/a	n/a	3	3	WING	n/a	TIE	WING	7	[0, 0, 0]	-999	PAL1	0	R1036M
972.872	4.0	494483	STUDY_PAIR	n/a	wordpools/wordpool_EN.txt	3	3	WING	n/a	TIE	WING	7	[0, 0, 0]	-999	PAL1	0	R1036M
977.89	0.275	496992	STUDY_ORIENT	n/a	n/a	4	2	PEN	n/a	PEAR	PEN	7	[0, 0, 0]	-999	PAL1	0	R1036M
978.724	4.0	497409	STUDY_PAIR	n/a	wordpools/wordpool_EN.txt	4	2	PEN	n/a	PEAR	PEN	7	[0, 0, 0]	-999	PAL1	0	R1036M
983.758	0.275	499926	STUDY_ORIENT	n/a	n/a	5	1	EGG	FARM	FARM	EGG	7	[0, 0, 0]	-999	PAL1	0	R1036M
984.658	4.0	500376	STUDY_PAIR	n/a	wordpools/wordpool_EN.txt	5	1	EGG	FARM	FARM	EGG	7	[0, 0, 0]	-999	PAL1	0	R1036M
989.676	0.275	502884	STUDY_ORIENT	n/a	n/a	6	6	WORLD	SHOW	WORLD	SPOON	7	[0, 0, 0]	-999	PAL1	0	R1036M
990.494	4.0	503293	STUDY_PAIR	n/a	wordpools/wordpool_EN.txt	6	6	WORLD	SHOW	WORLD	SPOON	7	[0, 0, 0]	-999	PAL1	0	R1036M
994.512	0.999	505302	START	n/a	n/a	-999	-999	n/a	n/a	n/a	n/a	7	[-999, -999, -999]	-999	PAL1	0	R1036M
995.511	0.017	505802	MATH_START	n/a	n/a	-999	-999	n/a	n/a	n/a	n/a	7	[0, 0, 0]	-999	PAL1	0	R1036M
995.528	5.667	505810	PROB	5.646	n/a	-999	-999	n/a	n/a	n/a	n/a	7	[8, 2, 8]	18	PAL1	0	R1036M
1001.195	9.086	508644	PROB	9.06	n/a	-999	-999	n/a	n/a	n/a	n/a	7	[7, 6, 2]	15	PAL1	0	R1036M
1010.281	4.917	513186	PROB	4.917	n/a	-999	-999	n/a	n/a	n/a	n/a	7	[8, 5, 5]	18	PAL1	0	R1036M
1015.198	0.016	515645	STOP	n/a	n/a	-999	-999	n/a	n/a	n/a	n/a	7	[-999, -999, -999]	-999	PAL1	0	R1036M
1015.214	0.0	515653	MATH_END	n/a	n/a	-999	-999	n/a	n/a	n/a	n/a	7	[0, 0, 0]	-999	PAL1	0	R1036M
1015.214	0.018	515653	TEST_START	n/a	n/a	-999	-999	n/a	n/a	n/a	n/a	7	[0, 0, 0]	-999	PAL1	0	R1036M
1015.232	0.275	515662	TEST_ORIENT	n/a	n/a	5	1	EGG	FARM	FARM	EGG	7	[0, 0, 0]	-999	PAL1	0	R1036M
1016.214	4.0	516153	TEST_PROBE	n/a	wordpools/wordpool_EN.txt	5	1	EGG	FARM	FARM	EGG	7	[0, 0, 0]	-999	PAL1	0	R1036M
1016.215	1.607	516153	REC_START	n/a	n/a	5	-999	n/a	FARM	n/a	n/a	7	[0, 0, 0]	-999	PAL1	0	R1036M
1017.822	3.405	516957	REC_EVENT	1.607	n/a	5	1	EGG	FARM	FARM	EGG	7	[0, 0, 0]	-999	PAL1	0	R1036M
1021.227	0.023	518659	REC_END	n/a	n/a	5	-999	n/a	n/a	n/a	n/a	7	[0, 0, 0]	-999	PAL1	0	R1036M
1021.25	0.275	518671	TEST_ORIENT	n/a	n/a	4	2	PEN	n/a	PEAR	PEN	7	[0, 0, 0]	-999	PAL1	0	R1036M
1022.266	4.0	519179	TEST_PROBE	n/a	wordpools/wordpool_EN.txt	4	2	PEN	n/a	PEAR	PEN	7	[0, 0, 0]	-999	PAL1	0	R1036M
1022.267	1.393	519179	REC_START	n/a	n/a	4	-999	n/a	n/a	n/a	n/a	7	[0, 0, 0]	-999	PAL1	0	R1036M
1023.66	3.607	519875	REC_EVENT	1.393	n/a	4	2	PEN	<>	PEAR	PEN	7	[0, 0, 0]	-999	PAL1	0	R1036M
1027.267	0.017	521679	REC_END	n/a	n/a	4	-999	n/a	n/a	n/a	n/a	7	[0, 0, 0]	-999	PAL1	0	R1036M
1027.284	0.275	521687	TEST_ORIENT	n/a	n/a	3	3	WING	n/a	TIE	WING	7	[0, 0, 0]	-999	PAL1	0	R1036M
1028.1	4.0	522095	TEST_PROBE	n/a	wordpools/wordpool_EN.txt	3	3	WING	n/a	TIE	WING	7	[0, 0, 0]	-999	PAL1	0	R1036M
1028.101	0.0	522096	REC_EVENT	0.0	n/a	3	3	WING	<>	TIE	WING	7	[0, 0, 0]	-999	PAL1	0	R1036M
1028.101	5.026	522096	REC_START	n/a	n/a	3	-999	n/a	n/a	n/a	n/a	7	[0, 0, 0]	-999	PAL1	0	R1036M
1033.127	0.007	524609	REC_END	n/a	n/a	3	-999	n/a	n/a	n/a	n/a	7	[0, 0, 0]	-999	PAL1	0	R1036M
1033.134	0.275	524612	TEST_ORIENT	n/a	n/a	2	4	SNOW	n/a	VINE	SNOW	7	[0, 0, 0]	-999	PAL1	0	R1036M
1033.918	4.0	525004	TEST_PROBE	n/a	wordpools/wordpool_EN.txt	2	4	SNOW	n/a	VINE	SNOW	7	[0, 0, 0]	-999	PAL1	0	R1036M
1033.918	0.0	525004	REC_START	n/a	n/a	2	-999	n/a	n/a	n/a	n/a	7	[0, 0, 0]	-999	PAL1	0	R1036M
1033.918	5.025	525004	REC_EVENT	0.0	n/a	2	4	SNOW	<>	VINE	SNOW	7	[0, 0, 0]	-999	PAL1	0	R1036M
1038.943	0.009	527517	REC_END	n/a	n/a	2	-999	n/a	n/a	n/a	n/a	7	[0, 0, 0]	-999	PAL1	0	R1036M
1038.952	0.275	527521	TEST_ORIENT	n/a	n/a	1	5	INK	PEN	RAT	INK	7	[0, 0, 0]	-999	PAL1	0	R1036M
1039.769	4.0	527930	TEST_PROBE	n/a	wordpools/wordpool_EN.txt	1	5	INK	PEN	RAT	INK	7	[0, 0, 0]	-999	PAL1	0	R1036M
1039.77	1.176	527930	REC_START	n/a	n/a	1	-999	n/a	PEN	n/a	n/a	7	[0, 0, 0]	-999	PAL1	0	R1036M
1040.946	3.85	528518	REC_EVENT	1.176	n/a	1	5	INK	PEN	RAT	INK	7	[0, 0, 0]	-999	PAL1	0	R1036M
1044.796	0.007	530443	REC_END	n/a	n/a	1	-999	n/a	n/a	n/a	n/a	7	[0, 0, 0]	-999	PAL1	0	R1036M
1044.803	0.275	530446	TEST_ORIENT	n/a	n/a	6	6	WORLD	SHOW	WORLD	SPOON	7	[0, 0, 0]	-999	PAL1	0	R1036M
1045.637	4.0	530863	TEST_PROBE	n/a	wordpools/wordpool_EN.txt	6	6	WORLD	SHOW	WORLD	SPOON	7	[0, 0, 0]	-999	PAL1	0	R1036M
1045.637	3.491	530863	REC_START	n/a	n/a	6	-999	n/a	SHOW	n/a	n/a	7	[0, 0, 0]	-999	PAL1	0	R1036M
1049.128	1.526	532609	REC_EVENT	3.491	n/a	6	6	WORLD	SHOW	WORLD	SPOON	7	[0, 0, 0]	-999	PAL1	0	R1036M
1050.654	32.52	533372	REC_END	n/a	n/a	6	-999	n/a	n/a	n/a	n/a	7	[0, 0, 0]	-999	PAL1	0	R1036M
1083.174	10.456	549631	ENCODING_START	n/a	n/a	0	-999	n/a	n/a	n/a	n/a	8	[0, 0, 0]	-999	PAL1	0	R1036M
1093.63	0.275	554859	STUDY_ORIENT	n/a	n/a	1	1	CLOTH	n/a	BANK	CLOTH	8	[0, 0, 0]	-999	PAL1	0	R1036M
1094.58	4.0	555334	STUDY_PAIR	n/a	wordpools/wordpool_EN.txt	1	1	CLOTH	n/a	BANK	CLOTH	8	[0, 0, 0]	-999	PAL1	0	R1036M
1099.614	0.275	557850	STUDY_ORIENT	n/a	n/a	2	2	DOOR	FLOOR	BOAT	DOOR	8	[0, 0, 0]	-999	PAL1	0	R1036M
1100.399	4.0	558243	STUDY_PAIR	n/a	wordpools/wordpool_EN.txt	2	2	DOOR	FLOOR	BOAT	DOOR	8	[0, 0, 0]	-999	PAL1	0	R1036M
1105.433	0.275	560760	STUDY_ORIENT	n/a	n/a	3	3	ARM	GRAPE	ARM	GRAPE	8	[0, 0, 0]	-999	PAL1	0	R1036M
1106.35	4.0	561218	STUDY_PAIR	n/a	wordpools/wordpool_EN.txt	3	3	ARM	GRAPE	ARM	GRAPE	8	[0, 0, 0]	-999	PAL1	0	R1036M
1111.384	0.275	563735	STUDY_ORIENT	n/a	n/a	4	4	BIRD	VINE	ROPE	BIRD	8	[0, 0, 0]	-999	PAL1	0	R1036M
1112.284	4.0	564185	STUDY_PAIR	n/a	wordpools/wordpool_EN.txt	4	4	BIRD	VINE	ROPE	BIRD	8	[0, 0, 0]	-999	PAL1	0	R1036M
1117.302	0.275	566694	STUDY_ORIENT	n/a	n/a	5	5	FLOOR	n/a	FLOOR	PEA	8	[0, 0, 0]	-999	PAL1	0	R1036M
1118.302	4.0	567194	STUDY_PAIR	n/a	wordpools/wordpool_EN.txt	5	5	FLOOR	n/a	FLOOR	PEA	8	[0, 0, 0]	-999	PAL1	0	R1036M
1123.32	0.275	569703	STUDY_ORIENT	n/a	n/a	6	6	SHEET	HOSE	BRUSH	SHEET	8	[0, 0, 0]	-999	PAL1	0	R1036M
1124.169	4.0	570127	STUDY_PAIR	n/a	wordpools/wordpool_EN.txt	6	6	SHEET	HOSE	BRUSH	SHEET	8	[0, 0, 0]	-999	PAL1	0	R1036M
1128.17	1.0	572128	START	n/a	n/a	-999	-999	n/a	n/a	n/a	n/a	8	[-999, -999, -999]	-999	PAL1	0	R1036M
1129.17	0.017	572628	MATH_START	n/a	n/a	-999	-999	n/a	n/a	n/a	n/a	8	[0, 0, 0]	-999	PAL1	0	R1036M
1129.187	4.767	572636	PROB	4.739	n/a	-999	-999	n/a	n/a	n/a	n/a	8	[2, 8, 2]	12	PAL1	0	R1036M
1133.954	6.018	575019	PROB	5.988	n/a	-999	-999	n/a	n/a	n/a	n/a	8	[7, 7, 4]	18	PAL1	0	R1036M
1139.972	6.918	578028	PROB	6.898	n/a	-999	-999	n/a	n/a	n/a	n/a	8	[4, 5, 1]	10	PAL1	0	R1036M
1146.89	8.116	581487	PROB	8.116	n/a	-999	-999	n/a	n/a	n/a	n/a	8	[5, 4, 8]	17	PAL1	0	R1036M
1155.006	0.002	585545	STOP	n/a	n/a	-999	-999	n/a	n/a	n/a	n/a	8	[-999, -999, -999]	-999	PAL1	0	R1036M
1155.008	0.0	585546	MATH_END	n/a	n/a	-999	-999	n/a	n/a	n/a	n/a	8	[0, 0, 0]	-999	PAL1	0	R1036M
1155.008	0.017	585546	TEST_START	n/a	n/a	-999	-999	n/a	n/a	n/a	n/a	8	[0, 0, 0]	-999	PAL1	0	R1036M
1155.025	0.275	585554	TEST_ORIENT	n/a	n/a	1	1	CLOTH	n/a	BANK	CLOTH	8	[0, 0, 0]	-999	PAL1	0	R1036M
1155.876	0.0	585980	REC_START	n/a	n/a	1	-999	n/a	n/a	n/a	n/a	8	[0, 0, 0]	-999	PAL1	0	R1036M
1155.876	4.0	585980	TEST_PROBE	n/a	wordpools/wordpool_EN.txt	1	1	CLOTH	n/a	BANK	CLOTH	8	[0, 0, 0]	-999	PAL1	0	R1036M
1156.99	3.911	586537	REC_EVENT	1.114	n/a	1	1	CLOTH	<>	BANK	CLOTH	8	[0, 0, 0]	-999	PAL1	0	R1036M
1160.901	0.009	588492	REC_END	n/a	n/a	1	-999	n/a	n/a	n/a	n/a	8	[0, 0, 0]	-999	PAL1	0	R1036M
1160.91	0.275	588497	TEST_ORIENT	n/a	n/a	2	2	DOOR	FLOOR	BOAT	DOOR	8	[0, 0, 0]	-999	PAL1	0	R1036M
1161.877	4.0	588980	TEST_PROBE	n/a	wordpools/wordpool_EN.txt	2	2	DOOR	FLOOR	BOAT	DOOR	8	[0, 0, 0]	-999	PAL1	0	R1036M
1161.877	2.59	588980	REC_START	n/a	n/a	2	-999	n/a	FLOOR	n/a	n/a	8	[0, 0, 0]	-999	PAL1	0	R1036M
1164.467	2.435	590275	REC_EVENT	2.59	n/a	2	2	DOOR	FLOOR	BOAT	DOOR	8	[0, 0, 0]	-999	PAL1	0	R1036M
1166.902	0.009	591493	REC_END	n/a	n/a	2	-999	n/a	n/a	n/a	n/a	8	[0, 0, 0]	-999	PAL1	0	R1036M
1166.911	0.275	591497	TEST_ORIENT	n/a	n/a	3	3	ARM	GRAPE	ARM	GRAPE	8	[0, 0, 0]	-999	PAL1	0	R1036M
1167.861	4.0	591972	TEST_PROBE	n/a	wordpools/wordpool_EN.txt	3	3	ARM	GRAPE	ARM	GRAPE	8	[0, 0, 0]	-999	PAL1	0	R1036M
1167.862	2.15	591972	REC_START	n/a	n/a	3	-999	n/a	GRAPE	n/a	n/a	8	[0, 0, 0]	-999	PAL1	0	R1036M
1170.012	2.858	593047	REC_EVENT	2.15	n/a	3	3	ARM	GRAPE	ARM	GRAPE	8	[0, 0, 0]	-999	PAL1	0	R1036M
1172.87	0.009	594476	REC_END	n/a	n/a	3	-999	n/a	n/a	n/a	n/a	8	[0, 0, 0]	-999	PAL1	0	R1036M
1172.879	0.275	594481	TEST_ORIENT	n/a	n/a	4	4	BIRD	VINE	ROPE	BIRD	8	[0, 0, 0]	-999	PAL1	0	R1036M
1173.779	4.0	594931	TEST_PROBE	n/a	wordpools/wordpool_EN.txt	4	4	BIRD	VINE	ROPE	BIRD	8	[0, 0, 0]	-999	PAL1	0	R1036M
1173.78	3.161	594931	REC_START	n/a	n/a	4	-999	n/a	VINE	n/a	n/a	8	[0, 0, 0]	-999	PAL1	0	R1036M
1176.941	1.864	596512	REC_EVENT	3.161	n/a	4	4	BIRD	VINE	ROPE	BIRD	8	[0, 0, 0]	-999	PAL1	0	R1036M
1178.805	0.008	597444	REC_END	n/a	n/a	4	-999	n/a	n/a	n/a	n/a	8	[0, 0, 0]	-999	PAL1	0	R1036M
1178.813	0.275	597448	TEST_ORIENT	n/a	n/a	5	5	FLOOR	n/a	FLOOR	PEA	8	[0, 0, 0]	-999	PAL1	0	R1036M
1179.78	4.0	597931	TEST_PROBE	n/a	wordpools/wordpool_EN.txt	5	5	FLOOR	n/a	FLOOR	PEA	8	[0, 0, 0]	-999	PAL1	0	R1036M
1179.781	0.0	597932	REC_START	n/a	n/a	5	-999	n/a	n/a	n/a	n/a	8	[0, 0, 0]	-999	PAL1	0	R1036M
1179.781	5.008	597932	REC_EVENT	0.0	n/a	5	5	FLOOR	<>	FLOOR	PEA	8	[0, 0, 0]	-999	PAL1	0	R1036M
1184.789	0.009	600436	REC_END	n/a	n/a	5	-999	n/a	n/a	n/a	n/a	8	[0, 0, 0]	-999	PAL1	0	R1036M
1184.798	0.275	600440	TEST_ORIENT	n/a	n/a	6	6	SHEET	HOSE	BRUSH	SHEET	8	[0, 0, 0]	-999	PAL1	0	R1036M
1185.814	4.0	600948	TEST_PROBE	n/a	wordpools/wordpool_EN.txt	6	6	SHEET	HOSE	BRUSH	SHEET	8	[0, 0, 0]	-999	PAL1	0	R1036M
1185.815	1.948	600949	REC_START	n/a	n/a	6	-999	n/a	HOSE	n/a	n/a	8	[0, 0, 0]	-999	PAL1	0	R1036M
1187.763	3.06	601922	REC_EVENT	1.948	n/a	6	6	SHEET	HOSE	BRUSH	SHEET	8	[0, 0, 0]	-999	PAL1	0	R1036M
1190.823	88.399	603452	REC_END	n/a	n/a	6	-999	n/a	n/a	n/a	n/a	8	[0, 0, 0]	-999	PAL1	0	R1036M
1279.222	10.447	647649	ENCODING_START	n/a	n/a	0	-999	n/a	n/a	n/a	n/a	9	[0, 0, 0]	-999	PAL1	0	R1036M
1289.669	0.275	652873	STUDY_ORIENT	n/a	n/a	1	3	STONE	n/a	STONE	SKY	9	[0, 0, 0]	-999	PAL1	0	R1036M
1290.619	4.0	653348	STUDY_PAIR	n/a	wordpools/wordpool_EN.txt	1	3	STONE	n/a	STONE	SKY	9	[0, 0, 0]	-999	PAL1	0	R1036M
1295.653	0.275	655864	STUDY_ORIENT	n/a	n/a	2	2	PASTE	n/a	PASTE	HAT	9	[0, 0, 0]	-999	PAL1	0	R1036M
1296.57	4.0	656323	STUDY_PAIR	n/a	wordpools/wordpool_EN.txt	2	2	PASTE	n/a	PASTE	HAT	9	[0, 0, 0]	-999	PAL1	0	R1036M
1301.588	0.275	658832	STUDY_ORIENT	n/a	n/a	3	5	FORK	n/a	CALF	FORK	9	[0, 0, 0]	-999	PAL1	0	R1036M
1302.372	4.0	659224	STUDY_PAIR	n/a	wordpools/wordpool_EN.txt	3	5	FORK	n/a	CALF	FORK	9	[0, 0, 0]	-999	PAL1	0	R1036M
1307.39	0.275	661733	STUDY_ORIENT	n/a	n/a	4	6	WAVE	CAKE	TRASH	WAVE	9	[0, 0, 0]	-999	PAL1	0	R1036M
1308.29	4.0	662183	STUDY_PAIR	n/a	wordpools/wordpool_EN.txt	4	6	WAVE	CAKE	TRASH	WAVE	9	[0, 0, 0]	-999	PAL1	0	R1036M
1313.308	0.275	664691	STUDY_ORIENT	n/a	n/a	5	1	CAVE	WAND	CAVE	CAKE	9	[0, 0, 0]	-999	PAL1	0	R1036M
1314.124	4.0	665099	STUDY_PAIR	n/a	wordpools/wordpool_EN.txt	5	1	CAVE	WAND	CAVE	CAKE	9	[0, 0, 0]	-999	PAL1	0	R1036M
1319.158	0.275	667616	STUDY_ORIENT	n/a	n/a	6	4	WAND	n/a	WAND	CHIN	9	[0, 0, 0]	-999	PAL1	0	R1036M
1320.058	4.0	668066	STUDY_PAIR	n/a	wordpools/wordpool_EN.txt	6	4	WAND	n/a	WAND	CHIN	9	[0, 0, 0]	-999	PAL1	0	R1036M
1324.059	1.0	670067	START	n/a	n/a	-999	-999	n/a	n/a	n/a	n/a	9	[-999, -999, -999]	-999	PAL1	0	R1036M
1325.059	0.017	670567	MATH_START	n/a	n/a	-999	-999	n/a	n/a	n/a	n/a	9	[0, 0, 0]	-999	PAL1	0	R1036M
1325.076	6.335	670575	PROB	6.307	n/a	-999	-999	n/a	n/a	n/a	n/a	9	[3, 2, 5]	19	PAL1	0	R1036M
1331.411	7.318	673742	PROB	7.291	n/a	-999	-999	n/a	n/a	n/a	n/a	9	[6, 5, 3]	14	PAL1	0	R1036M
1338.729	9.726	677401	PROB	9.726	n/a	-999	-999	n/a	n/a	n/a	n/a	9	[5, 9, 7]	21	PAL1	0	R1036M
1348.455	0.01	682264	STOP	n/a	n/a	-999	-999	n/a	n/a	n/a	n/a	9	[-999, -999, -999]	-999	PAL1	0	R1036M
1348.465	0.0	682269	MATH_END	n/a	n/a	-999	-999	n/a	n/a	n/a	n/a	9	[0, 0, 0]	-999	PAL1	0	R1036M
1348.465	0.017	682269	TEST_START	n/a	n/a	-999	-999	n/a	n/a	n/a	n/a	9	[0, 0, 0]	-999	PAL1	0	R1036M
1348.482	0.275	682278	TEST_ORIENT	n/a	n/a	5	1	CAVE	WAND	CAVE	CAKE	9	[0, 0, 0]	-999	PAL1	0	R1036M
1349.382	0.0	682727	REC_START	n/a	n/a	5	-999	n/a	WAND	n/a	n/a	9	[0, 0, 0]	-999	PAL1	0	R1036M
1349.382	4.0	682727	TEST_PROBE	n/a	wordpools/wordpool_EN.txt	5	1	CAVE	WAND	CAVE	CAKE	9	[0, 0, 0]	-999	PAL1	0	R1036M
1351.3	3.099	683686	REC_EVENT	1.918	n/a	5	1	CAVE	WAND	CAVE	CAKE	9	[0, 0, 0]	-999	PAL1	0	R1036M
1354.399	0.017	685236	REC_END	n/a	n/a	5	-999	n/a	n/a	n/a	n/a	9	[0, 0, 0]	-999	PAL1	0	R1036M
1354.416	0.275	685244	TEST_ORIENT	n/a	n/a	2	2	PASTE	n/a	PASTE	HAT	9	[0, 0, 0]	-999	PAL1	0	R1036M
1355.416	4.0	685744	TEST_PROBE	n/a	wordpools/wordpool_EN.txt	2	2	PASTE	n/a	PASTE	HAT	9	[0, 0, 0]	-999	PAL1	0	R1036M
1355.417	0.0	685745	REC_START	n/a	n/a	2	-999	n/a	n/a	n/a	n/a	9	[0, 0, 0]	-999	PAL1	0	R1036M
1355.417	5.008	685745	REC_EVENT	0.0	n/a	2	2	PASTE	<>	PASTE	HAT	9	[0, 0, 0]	-999	PAL1	0	R1036M
1360.425	0.009	688249	REC_END	n/a	n/a	2	-999	n/a	n/a	n/a	n/a	9	[0, 0, 0]	-999	PAL1	0	R1036M
1360.434	0.275	688253	TEST_ORIENT	n/a	n/a	1	3	STONE	n/a	STONE	SKY	9	[0, 0, 0]	-999	PAL1	0	R1036M
1361.284	4.0	688678	TEST_PROBE	n/a	wordpools/wordpool_EN.txt	1	3	STONE	n/a	STONE	SKY	9	[0, 0, 0]	-999	PAL1	0	R1036M
1361.285	0.0	688679	REC_START	n/a	n/a	1	-999	n/a	n/a	n/a	n/a	9	[0, 0, 0]	-999	PAL1	0	R1036M
1361.285	5.026	688679	REC_EVENT	0.0	n/a	1	3	STONE	<>	STONE	SKY	9	[0, 0, 0]	-999	PAL1	0	R1036M
1366.311	0.007	691192	REC_END	n/a	n/a	1	-999	n/a	n/a	n/a	n/a	9	[0, 0, 0]	-999	PAL1	0	R1036M
1366.318	0.275	691195	TEST_ORIENT	n/a	n/a	6	4	WAND	n/a	WAND	CHIN	9	[0, 0, 0]	-999	PAL1	0	R1036M
1367.285	4.0	691679	TEST_PROBE	n/a	wordpools/wordpool_EN.txt	6	4	WAND	n/a	WAND	CHIN	9	[0, 0, 0]	-999	PAL1	0	R1036M
1367.286	0.0	691679	REC_START	n/a	n/a	6	-999	n/a	n/a	n/a	n/a	9	[0, 0, 0]	-999	PAL1	0	R1036M
1367.286	5.009	691679	REC_EVENT	0.0	n/a	6	4	WAND	<>	WAND	CHIN	9	[0, 0, 0]	-999	PAL1	0	R1036M
1372.295	0.008	694183	REC_END	n/a	n/a	6	-999	n/a	n/a	n/a	n/a	9	[0, 0, 0]	-999	PAL1	0	R1036M
1372.303	0.275	694187	TEST_ORIENT	n/a	n/a	3	5	FORK	n/a	CALF	FORK	9	[0, 0, 0]	-999	PAL1	0	R1036M
1373.336	4.0	694704	TEST_PROBE	n/a	wordpools/wordpool_EN.txt	3	5	FORK	n/a	CALF	FORK	9	[0, 0, 0]	-999	PAL1	0	R1036M
1373.337	0.0	694704	REC_START	n/a	n/a	3	-999	n/a	n/a	n/a	n/a	9	[0, 0, 0]	-999	PAL1	0	R1036M
1373.337	5.009	694704	REC_EVENT	0.0	n/a	3	5	FORK	<>	CALF	FORK	9	[0, 0, 0]	-999	PAL1	0	R1036M
1378.346	0.008	697209	REC_END	n/a	n/a	3	-999	n/a	n/a	n/a	n/a	9	[0, 0, 0]	-999	PAL1	0	R1036M
1378.354	0.275	697213	TEST_ORIENT	n/a	n/a	4	6	WAVE	CAKE	TRASH	WAVE	9	[0, 0, 0]	-999	PAL1	0	R1036M
1379.153	4.0	697612	TEST_PROBE	n/a	wordpools/wordpool_EN.txt	4	6	WAVE	CAKE	TRASH	WAVE	9	[0, 0, 0]	-999	PAL1	0	R1036M
1379.154	1.693	697613	REC_START	n/a	n/a	4	-999	n/a	CAKE	n/a	n/a	9	[0, 0, 0]	-999	PAL1	0	R1036M
1380.847	3.316	698459	REC_EVENT	1.693	n/a	4	6	WAVE	CAKE	TRASH	WAVE	9	[0, 0, 0]	-999	PAL1	0	R1036M
1384.163	110.547	700117	REC_END	n/a	n/a	4	-999	n/a	n/a	n/a	n/a	9	[0, 0, 0]	-999	PAL1	0	R1036M
1494.71	10.452	755387	ENCODING_START	n/a	n/a	0	-999	n/a	n/a	n/a	n/a	10	[0, 0, 0]	-999	PAL1	0	R1036M
1505.162	0.275	760613	STUDY_ORIENT	n/a	n/a	1	3	SHARK	FAN	SLUSH	SHARK	10	[0, 0, 0]	-999	PAL1	0	R1036M
1505.979	4.0	761022	STUDY_PAIR	n/a	wordpools/wordpool_EN.txt	1	3	SHARK	FAN	SLUSH	SHARK	10	[0, 0, 0]	-999	PAL1	0	R1036M
1511.013	0.275	763539	STUDY_ORIENT	n/a	n/a	2	6	CROW	n/a	CROW	SEAT	10	[0, 0, 0]	-999	PAL1	0	R1036M
1511.963	4.0	764014	STUDY_PAIR	n/a	wordpools/wordpool_EN.txt	2	6	CROW	n/a	CROW	SEAT	10	[0, 0, 0]	-999	PAL1	0	R1036M
1516.981	0.275	766522	STUDY_ORIENT	n/a	n/a	3	1	SWAMP	n/a	SWAMP	FAN	10	[0, 0, 0]	-999	PAL1	0	R1036M
1517.881	4.0	766972	STUDY_PAIR	n/a	wordpools/wordpool_EN.txt	3	1	SWAMP	n/a	SWAMP	FAN	10	[0, 0, 0]	-999	PAL1	0	R1036M
1522.915	0.275	769489	STUDY_ORIENT	n/a	n/a	4	4	TOY	n/a	TOY	PET	10	[0, 0, 0]	-999	PAL1	0	R1036M
1523.849	4.0	769956	STUDY_PAIR	n/a	wordpools/wordpool_EN.txt	4	4	TOY	n/a	TOY	PET	10	[0, 0, 0]	-999	PAL1	0	R1036M
1528.883	0.275	772473	STUDY_ORIENT	n/a	n/a	5	5	HOOF	CALF	LAMB	HOOF	10	[0, 0, 0]	-999	PAL1	0	R1036M
1529.85	4.0	772957	STUDY_PAIR	n/a	wordpools/wordpool_EN.txt	5	5	HOOF	CALF	LAMB	HOOF	10	[0, 0, 0]	-999	PAL1	0	R1036M
1534.884	0.275	775473	STUDY_ORIENT	n/a	n/a	6	2	MUG	STREET	MUG	BROOM	10	[0, 0, 0]	-999	PAL1	0	R1036M
1535.718	4.0	775890	STUDY_PAIR	n/a	wordpools/wordpool_EN.txt	6	2	MUG	STREET	MUG	BROOM	10	[0, 0, 0]	-999	PAL1	0	R1036M
1539.736	0.999	777899	START	n/a	n/a	-999	-999	n/a	n/a	n/a	n/a	10	[-999, -999, -999]	-999	PAL1	0	R1036M
1540.735	0.017	778399	MATH_START	n/a	n/a	-999	-999	n/a	n/a	n/a	n/a	10	[0, 0, 0]	-999	PAL1	0	R1036M
1540.752	11.869	778407	PROB	11.846	n/a	-999	-999	n/a	n/a	n/a	n/a	10	[2, 9, 6]	17	PAL1	0	R1036M
1552.621	9.049	784341	PROB	9.049	n/a	-999	-999	n/a	n/a	n/a	n/a	10	[6, 5, 8]	19	PAL1	0	R1036M
1561.67	0.003	788866	STOP	n/a	n/a	-999	-999	n/a	n/a	n/a	n/a	10	[-999, -999, -999]	-999	PAL1	0	R1036M
1561.673	0.0	788867	MATH_END	n/a	n/a	-999	-999	n/a	n/a	n/a	n/a	10	[0, 0, 0]	-999	PAL1	0	R1036M
1561.673	0.017	788867	TEST_START	n/a	n/a	-999	-999	n/a	n/a	n/a	n/a	10	[0, 0, 0]	-999	PAL1	0	R1036M
1561.69	0.275	788876	TEST_ORIENT	n/a	n/a	3	1	SWAMP	n/a	SWAMP	FAN	10	[0, 0, 0]	-999	PAL1	0	R1036M
1562.491	4.0	789276	TEST_PROBE	n/a	wordpools/wordpool_EN.txt	3	1	SWAMP	n/a	SWAMP	FAN	10	[0, 0, 0]	-999	PAL1	0	R1036M
1562.491	0.487	789276	REC_START	n/a	n/a	3	-999	n/a	n/a	n/a	n/a	10	[0, 0, 0]	-999	PAL1	0	R1036M
1562.978	4.53	789520	REC_EVENT	0.487	n/a	3	1	SWAMP	<>	SWAMP	FAN	10	[0, 0, 0]	-999	PAL1	0	R1036M
1567.508	0.017	791784	REC_END	n/a	n/a	3	-999	n/a	n/a	n/a	n/a	10	[0, 0, 0]	-999	PAL1	0	R1036M
1567.525	0.275	791793	TEST_ORIENT	n/a	n/a	6	2	MUG	STREET	MUG	BROOM	10	[0, 0, 0]	-999	PAL1	0	R1036M
1568.392	4.0	792226	TEST_PROBE	n/a	wordpools/wordpool_EN.txt	6	2	MUG	STREET	MUG	BROOM	10	[0, 0, 0]	-999	PAL1	0	R1036M
1568.392	3.02	792226	REC_START	n/a	n/a	6	-999	n/a	STREET	n/a	n/a	10	[0, 0, 0]	-999	PAL1	0	R1036M
1571.412	1.997	793736	REC_EVENT	3.02	n/a	6	2	MUG	STREET	MUG	BROOM	10	[0, 0, 0]	-999	PAL1	0	R1036M
1573.409	0.017	794735	REC_END	n/a	n/a	6	-999	n/a	n/a	n/a	n/a	10	[0, 0, 0]	-999	PAL1	0	R1036M
1573.426	0.275	794743	TEST_ORIENT	n/a	n/a	1	3	SHARK	FAN	SLUSH	SHARK	10	[0, 0, 0]	-999	PAL1	0	R1036M
1574.427	4.0	795244	TEST_PROBE	n/a	wordpools/wordpool_EN.txt	1	3	SHARK	FAN	SLUSH	SHARK	10	[0, 0, 0]	-999	PAL1	0	R1036M
1574.427	3.419	795244	REC_START	n/a	n/a	1	-999	n/a	FAN	n/a	n/a	10	[0, 0, 0]	-999	PAL1	0	R1036M
1577.846	1.598	796953	REC_EVENT	3.419	n/a	1	3	SHARK	FAN	SLUSH	SHARK	10	[0, 0, 0]	-999	PAL1	0	R1036M
1579.444	0.017	797752	REC_END	n/a	n/a	1	-999	n/a	n/a	n/a	n/a	10	[0, 0, 0]	-999	PAL1	0	R1036M
1579.461	0.275	797761	TEST_ORIENT	n/a	n/a	4	4	TOY	n/a	TOY	PET	10	[0, 0, 0]	-999	PAL1	0	R1036M
1580.311	4.0	798186	TEST_PROBE	n/a	wordpools/wordpool_EN.txt	4	4	TOY	n/a	TOY	PET	10	[0, 0, 0]	-999	PAL1	0	R1036M
1580.312	0.0	798186	REC_EVENT	0.0	n/a	4	4	TOY	<>	TOY	PET	10	[0, 0, 0]	-999	PAL1	0	R1036M
1580.312	5.016	798186	REC_START	n/a	n/a	4	-999	n/a	n/a	n/a	n/a	10	[0, 0, 0]	-999	PAL1	0	R1036M
1585.328	0.017	800694	REC_END	n/a	n/a	4	-999	n/a	n/a	n/a	n/a	10	[0, 0, 0]	-999	PAL1	0	R1036M
1585.345	0.275	800702	TEST_ORIENT	n/a	n/a	5	5	HOOF	CALF	LAMB	HOOF	10	[0, 0, 0]	-999	PAL1	0	R1036M
1586.229	4.0	801144	TEST_PROBE	n/a	wordpools/wordpool_EN.txt	5	5	HOOF	CALF	LAMB	HOOF	10	[0, 0, 0]	-999	PAL1	0	R1036M
1586.229	1.245	801144	REC_START	n/a	n/a	5	-999	n/a	CALF	n/a	n/a	10	[0, 0, 0]	-999	PAL1	0	R1036M
1587.474	3.772	801767	REC_EVENT	1.245	n/a	5	5	HOOF	CALF	LAMB	HOOF	10	[0, 0, 0]	-999	PAL1	0	R1036M
1591.246	0.017	803653	REC_END	n/a	n/a	5	-999	n/a	n/a	n/a	n/a	10	[0, 0, 0]	-999	PAL1	0	R1036M
1591.263	0.275	803661	TEST_ORIENT	n/a	n/a	2	6	CROW	n/a	CROW	SEAT	10	[0, 0, 0]	-999	PAL1	0	R1036M
1592.23	4.0	804145	TEST_PROBE	n/a	wordpools/wordpool_EN.txt	2	6	CROW	n/a	CROW	SEAT	10	[0, 0, 0]	-999	PAL1	0	R1036M
1592.23	0.0	804145	REC_START	n/a	n/a	2	-999	n/a	n/a	n/a	n/a	10	[0, 0, 0]	-999	PAL1	0	R1036M
1592.23	5.018	804145	REC_EVENT	0.0	n/a	2	6	CROW	<>	CROW	SEAT	10	[0, 0, 0]	-999	PAL1	0	R1036M
1597.248	45.902	806654	REC_END	n/a	n/a	2	-999	n/a	n/a	n/a	n/a	10	[0, 0, 0]	-999	PAL1	0	R1036M
1643.15	10.441	829603	ENCODING_START	n/a	n/a	0	-999	n/a	n/a	n/a	n/a	11	[0, 0, 0]	-999	PAL1	0	R1036M
1653.591	0.275	834824	STUDY_ORIENT	n/a	n/a	1	5	DOLL	GIRL	DOLL	PIE	11	[0, 0, 0]	-999	PAL1	0	R1036M
1654.392	4.0	835224	STUDY_PAIR	n/a	wordpools/wordpool_EN.txt	1	5	DOLL	GIRL	DOLL	PIE	11	[0, 0, 0]	-999	PAL1	0	R1036M
1659.41	0.275	837733	STUDY_ORIENT	n/a	n/a	2	4	SHRIMP	CART	SHRIMP	CART	11	[0, 0, 0]	-999	PAL1	0	R1036M
1660.327	4.0	838191	STUDY_PAIR	n/a	wordpools/wordpool_EN.txt	2	4	SHRIMP	CART	SHRIMP	CART	11	[0, 0, 0]	-999	PAL1	0	R1036M
1665.361	0.275	840708	STUDY_ORIENT	n/a	n/a	3	1	DIME	TOE	SPONGE	DIME	11	[0, 0, 0]	-999	PAL1	0	R1036M
1666.278	4.0	841167	STUDY_PAIR	n/a	wordpools/wordpool_EN.txt	3	1	DIME	TOE	SPONGE	DIME	11	[0, 0, 0]	-999	PAL1	0	R1036M
1671.296	0.275	843676	STUDY_ORIENT	n/a	n/a	4	2	TOE	n/a	SMILE	TOE	11	[0, 0, 0]	-999	PAL1	0	R1036M
1672.178	4.0	844117	STUDY_PAIR	n/a	wordpools/wordpool_EN.txt	4	2	TOE	n/a	SMILE	TOE	11	[0, 0, 0]	-999	PAL1	0	R1036M
1677.196	0.275	846625	STUDY_ORIENT	n/a	n/a	5	3	FACE	BRUSH	FACE	PRINCE	11	[0, 0, 0]	-999	PAL1	0	R1036M
1678.146	4.0	847100	STUDY_PAIR	n/a	wordpools/wordpool_EN.txt	5	3	FACE	BRUSH	FACE	PRINCE	11	[0, 0, 0]	-999	PAL1	0	R1036M
1683.164	0.275	849609	STUDY_ORIENT	n/a	n/a	6	6	BRANCH	n/a	BRANCH	TOOL	11	[0, 0, 0]	-999	PAL1	0	R1036M
1684.114	4.0	850084	STUDY_PAIR	n/a	wordpools/wordpool_EN.txt	6	6	BRANCH	n/a	BRANCH	TOOL	11	[0, 0, 0]	-999	PAL1	0	R1036M
1688.132	1.0	852093	START	n/a	n/a	-999	-999	n/a	n/a	n/a	n/a	11	[-999, -999, -999]	-999	PAL1	0	R1036M
1689.132	0.016	852593	MATH_START	n/a	n/a	-999	-999	n/a	n/a	n/a	n/a	11	[0, 0, 0]	-999	PAL1	0	R1036M
1689.148	12.653	852601	PROB	12.618	n/a	-999	-999	n/a	n/a	n/a	n/a	11	[9, 3, 9]	21	PAL1	0	R1036M
1701.801	11.221	858927	PROB	11.221	n/a	-999	-999	n/a	n/a	n/a	n/a	11	[8, 5, 8]	23	PAL1	0	R1036M
1713.022	0.015	864537	STOP	n/a	n/a	-999	-999	n/a	n/a	n/a	n/a	11	[-999, -999, -999]	-999	PAL1	0	R1036M
1713.037	0.0	864545	TEST_START	n/a	n/a	-999	-999	n/a	n/a	n/a	n/a	11	[0, 0, 0]	-999	PAL1	0	R1036M
1713.037	0.016	864545	MATH_END	n/a	n/a	-999	-999	n/a	n/a	n/a	n/a	11	[0, 0, 0]	-999	PAL1	0	R1036M
1713.053	0.275	864553	TEST_ORIENT	n/a	n/a	3	1	DIME	TOE	SPONGE	DIME	11	[0, 0, 0]	-999	PAL1	0	R1036M
1713.987	4.0	865020	TEST_PROBE	n/a	wordpools/wordpool_EN.txt	3	1	DIME	TOE	SPONGE	DIME	11	[0, 0, 0]	-999	PAL1	0	R1036M
1713.987	1.346	865020	REC_START	n/a	n/a	3	-999	n/a	TOE	n/a	n/a	11	[0, 0, 0]	-999	PAL1	0	R1036M
1715.333	3.671	865693	REC_EVENT	1.346	n/a	3	1	DIME	TOE	SPONGE	DIME	11	[0, 0, 0]	-999	PAL1	0	R1036M
1719.004	0.017	867528	REC_END	n/a	n/a	3	-999	n/a	n/a	n/a	n/a	11	[0, 0, 0]	-999	PAL1	0	R1036M
1719.021	0.275	867537	TEST_ORIENT	n/a	n/a	4	2	TOE	n/a	SMILE	TOE	11	[0, 0, 0]	-999	PAL1	0	R1036M
1720.005	4.0	868029	TEST_PROBE	n/a	wordpools/wordpool_EN.txt	4	2	TOE	n/a	SMILE	TOE	11	[0, 0, 0]	-999	PAL1	0	R1036M
1720.005	1.114	868029	REC_START	n/a	n/a	4	-999	n/a	n/a	n/a	n/a	11	[0, 0, 0]	-999	PAL1	0	R1036M
1721.119	3.903	868586	REC_EVENT	1.114	n/a	4	2	TOE	<>	SMILE	TOE	11	[0, 0, 0]	-999	PAL1	0	R1036M
1725.022	0.017	870537	REC_END	n/a	n/a	4	-999	n/a	n/a	n/a	n/a	11	[0, 0, 0]	-999	PAL1	0	R1036M
1725.039	0.275	870546	TEST_ORIENT	n/a	n/a	5	3	FACE	BRUSH	FACE	PRINCE	11	[0, 0, 0]	-999	PAL1	0	R1036M
1726.056	4.0	871054	TEST_PROBE	n/a	wordpools/wordpool_EN.txt	5	3	FACE	BRUSH	FACE	PRINCE	11	[0, 0, 0]	-999	PAL1	0	R1036M
1726.056	2.764	871054	REC_START	n/a	n/a	5	-999	n/a	BRUSH	n/a	n/a	11	[0, 0, 0]	-999	PAL1	0	R1036M
1728.82	2.253	872436	REC_EVENT	2.764	n/a	5	3	FACE	BRUSH	FACE	PRINCE	11	[0, 0, 0]	-999	PAL1	0	R1036M
1731.073	0.017	873562	REC_END	n/a	n/a	5	-999	n/a	n/a	n/a	n/a	11	[0, 0, 0]	-999	PAL1	0	R1036M
1731.09	0.275	873571	TEST_ORIENT	n/a	n/a	2	4	SHRIMP	CART	SHRIMP	CART	11	[0, 0, 0]	-999	PAL1	0	R1036M
1732.09	4.0	874071	TEST_PROBE	n/a	wordpools/wordpool_EN.txt	2	4	SHRIMP	CART	SHRIMP	CART	11	[0, 0, 0]	-999	PAL1	0	R1036M
1732.091	2.906	874071	REC_START	n/a	n/a	2	-999	n/a	CART	n/a	n/a	11	[0, 0, 0]	-999	PAL1	0	R1036M
1734.997	2.101	875524	REC_EVENT	2.906	n/a	2	4	SHRIMP	CART	SHRIMP	CART	11	[0, 0, 0]	-999	PAL1	0	R1036M
1737.098	0.01	876575	REC_END	n/a	n/a	2	-999	n/a	n/a	n/a	n/a	11	[0, 0, 0]	-999	PAL1	0	R1036M
1737.108	0.275	876580	TEST_ORIENT	n/a	n/a	1	5	DOLL	GIRL	DOLL	PIE	11	[0, 0, 0]	-999	PAL1	0	R1036M
1737.908	4.0	876980	TEST_PROBE	n/a	wordpools/wordpool_EN.txt	1	5	DOLL	GIRL	DOLL	PIE	11	[0, 0, 0]	-999	PAL1	0	R1036M
1737.908	3.851	876980	REC_START	n/a	n/a	1	-999	n/a	GIRL	n/a	n/a	11	[0, 0, 0]	-999	PAL1	0	R1036M
1741.759	1.167	878905	REC_EVENT	3.851	n/a	1	5	DOLL	GIRL	DOLL	PIE	11	[0, 0, 0]	-999	PAL1	0	R1036M
1742.926	0.016	879489	REC_END	n/a	n/a	1	-999	n/a	n/a	n/a	n/a	11	[0, 0, 0]	-999	PAL1	0	R1036M
1742.942	0.275	879497	TEST_ORIENT	n/a	n/a	6	6	BRANCH	n/a	BRANCH	TOOL	11	[0, 0, 0]	-999	PAL1	0	R1036M
1743.959	4.0	880005	TEST_PROBE	n/a	wordpools/wordpool_EN.txt	6	6	BRANCH	n/a	BRANCH	TOOL	11	[0, 0, 0]	-999	PAL1	0	R1036M
1743.96	0.0	880006	REC_START	n/a	n/a	6	-999	n/a	n/a	n/a	n/a	11	[0, 0, 0]	-999	PAL1	0	R1036M
1743.96	5.007	880006	REC_EVENT	0.0	n/a	6	6	BRANCH	<>	BRANCH	TOOL	11	[0, 0, 0]	-999	PAL1	0	R1036M
1748.967	24.384	882509	REC_END	n/a	n/a	6	-999	n/a	n/a	n/a	n/a	11	[0, 0, 0]	-999	PAL1	0	R1036M
1773.351	10.45	894700	ENCODING_START	n/a	n/a	0	-999	n/a	n/a	n/a	n/a	12	[0, 0, 0]	-999	PAL1	0	R1036M
1783.801	0.275	899925	STUDY_ORIENT	n/a	n/a	1	5	RIB	n/a	RIB	CLIFF	12	[0, 0, 0]	-999	PAL1	0	R1036M
1784.617	4.0	900333	STUDY_PAIR	n/a	wordpools/wordpool_EN.txt	1	5	RIB	n/a	RIB	CLIFF	12	[0, 0, 0]	-999	PAL1	0	R1036M
1789.635	0.275	902842	STUDY_ORIENT	n/a	n/a	2	2	FLUTE	n/a	FLUTE	BAT	12	[0, 0, 0]	-999	PAL1	0	R1036M
1790.486	4.0	903267	STUDY_PAIR	n/a	wordpools/wordpool_EN.txt	2	2	FLUTE	n/a	FLUTE	BAT	12	[0, 0, 0]	-999	PAL1	0	R1036M
1795.504	0.275	905776	STUDY_ORIENT	n/a	n/a	3	3	POND	n/a	OWL	POND	12	[0, 0, 0]	-999	PAL1	0	R1036M
1796.387	4.0	906218	STUDY_PAIR	n/a	wordpools/wordpool_EN.txt	3	3	POND	n/a	OWL	POND	12	[0, 0, 0]	-999	PAL1	0	R1036M
1801.405	0.275	908727	STUDY_ORIENT	n/a	n/a	4	4	BOWL	n/a	BOWL	BRIDGE	12	[0, 0, 0]	-999	PAL1	0	R1036M
1802.255	4.0	909152	STUDY_PAIR	n/a	wordpools/wordpool_EN.txt	4	4	BOWL	n/a	BOWL	BRIDGE	12	[0, 0, 0]	-999	PAL1	0	R1036M
1807.273	0.275	911660	STUDY_ORIENT	n/a	n/a	5	1	LAWN	n/a	LAWN	LOCK	12	[0, 0, 0]	-999	PAL1	0	R1036M
1808.222	4.0	912135	STUDY_PAIR	n/a	wordpools/wordpool_EN.txt	5	1	LAWN	n/a	LAWN	LOCK	12	[0, 0, 0]	-999	PAL1	0	R1036M
1813.241	0.275	914644	STUDY_ORIENT	n/a	n/a	6	6	ROAD	STREET	ROAD	TRAIN	12	[0, 0, 0]	-999	PAL1	0	R1036M
1814.123	4.0	915085	STUDY_PAIR	n/a	wordpools/wordpool_EN.txt	6	6	ROAD	STREET	ROAD	TRAIN	12	[0, 0, 0]	-999	PAL1	0	R1036M
1818.124	1.0	917086	START	n/a	n/a	-999	-999	n/a	n/a	n/a	n/a	12	[-999, -999, -999]	-999	PAL1	0	R1036M
1819.124	0.017	917586	MATH_START	n/a	n/a	-999	-999	n/a	n/a	n/a	n/a	12	[0, 0, 0]	-999	PAL1	0	R1036M
1819.141	13.836	917594	PROB	13.809	n/a	-999	-999	n/a	n/a	n/a	n/a	12	[1, 7, 8]	16	PAL1	0	R1036M
1832.977	10.629	924512	PROB	10.629	n/a	-999	-999	n/a	n/a	n/a	n/a	12	[8, 9, 4]	21	PAL1	0	R1036M
1843.606	0.006	929826	STOP	n/a	n/a	-999	-999	n/a	n/a	n/a	n/a	12	[-999, -999, -999]	-999	PAL1	0	R1036M
1843.612	0.0	929829	TEST_START	n/a	n/a	-999	-999	n/a	n/a	n/a	n/a	12	[0, 0, 0]	-999	PAL1	0	R1036M
1843.612	0.017	929829	MATH_END	n/a	n/a	-999	-999	n/a	n/a	n/a	n/a	12	[0, 0, 0]	-999	PAL1	0	R1036M
1843.629	0.275	929837	TEST_ORIENT	n/a	n/a	5	1	LAWN	n/a	LAWN	LOCK	12	[0, 0, 0]	-999	PAL1	0	R1036M
1844.497	4.0	930271	TEST_PROBE	n/a	wordpools/wordpool_EN.txt	5	1	LAWN	n/a	LAWN	LOCK	12	[0, 0, 0]	-999	PAL1	0	R1036M
1844.497	0.0	930271	REC_START	n/a	n/a	5	-999	n/a	n/a	n/a	n/a	12	[0, 0, 0]	-999	PAL1	0	R1036M
1844.497	5.017	930271	REC_EVENT	0.0	n/a	5	1	LAWN	<>	LAWN	LOCK	12	[0, 0, 0]	-999	PAL1	0	R1036M
1849.514	0.017	932780	REC_END	n/a	n/a	5	-999	n/a	n/a	n/a	n/a	12	[0, 0, 0]	-999	PAL1	0	R1036M
1849.531	0.275	932788	TEST_ORIENT	n/a	n/a	2	2	FLUTE	n/a	FLUTE	BAT	12	[0, 0, 0]	-999	PAL1	0	R1036M
1850.448	4.0	933247	TEST_PROBE	n/a	wordpools/wordpool_EN.txt	2	2	FLUTE	n/a	FLUTE	BAT	12	[0, 0, 0]	-999	PAL1	0	R1036M
1850.449	0.0	933247	REC_EVENT	0.0	n/a	2	2	FLUTE	<>	FLUTE	BAT	12	[0, 0, 0]	-999	PAL1	0	R1036M
1850.449	5.011	933247	REC_START	n/a	n/a	2	-999	n/a	n/a	n/a	n/a	12	[0, 0, 0]	-999	PAL1	0	R1036M
1855.46	0.022	935753	REC_END	n/a	n/a	2	-999	n/a	n/a	n/a	n/a	12	[0, 0, 0]	-999	PAL1	0	R1036M
1855.482	0.275	935764	TEST_ORIENT	n/a	n/a	3	3	POND	n/a	OWL	POND	12	[0, 0, 0]	-999	PAL1	0	R1036M
1856.333	4.0	936189	TEST_PROBE	n/a	wordpools/wordpool_EN.txt	3	3	POND	n/a	OWL	POND	12	[0, 0, 0]	-999	PAL1	0	R1036M
1856.333	0.0	936189	REC_START	n/a	n/a	3	-999	n/a	n/a	n/a	n/a	12	[0, 0, 0]	-999	PAL1	0	R1036M
1856.333	5.017	936189	REC_EVENT	0.0	n/a	3	3	POND	<>	OWL	POND	12	[0, 0, 0]	-999	PAL1	0	R1036M
1861.35	0.017	938697	REC_END	n/a	n/a	3	-999	n/a	n/a	n/a	n/a	12	[0, 0, 0]	-999	PAL1	0	R1036M
1861.367	0.275	938706	TEST_ORIENT	n/a	n/a	4	4	BOWL	n/a	BOWL	BRIDGE	12	[0, 0, 0]	-999	PAL1	0	R1036M
1862.351	0.0	939198	REC_EVENT	0.0	n/a	4	4	BOWL	<>	BOWL	BRIDGE	12	[0, 0, 0]	-999	PAL1	0	R1036M
1862.351	4.0	939198	TEST_PROBE	n/a	wordpools/wordpool_EN.txt	4	4	BOWL	n/a	BOWL	BRIDGE	12	[0, 0, 0]	-999	PAL1	0	R1036M
1862.351	5.017	939198	REC_START	n/a	n/a	4	-999	n/a	n/a	n/a	n/a	12	[0, 0, 0]	-999	PAL1	0	R1036M
1867.368	0.017	941706	REC_END	n/a	n/a	4	-999	n/a	n/a	n/a	n/a	12	[0, 0, 0]	-999	PAL1	0	R1036M
1867.385	0.275	941715	TEST_ORIENT	n/a	n/a	1	5	RIB	n/a	RIB	CLIFF	12	[0, 0, 0]	-999	PAL1	0	R1036M
1868.268	4.0	942156	TEST_PROBE	n/a	wordpools/wordpool_EN.txt	1	5	RIB	n/a	RIB	CLIFF	12	[0, 0, 0]	-999	PAL1	0	R1036M
1868.269	0.0	942157	REC_START	n/a	n/a	1	-999	n/a	n/a	n/a	n/a	12	[0, 0, 0]	-999	PAL1	0	R1036M
1868.269	5.009	942157	REC_EVENT	0.0	n/a	1	5	RIB	<>	RIB	CLIFF	12	[0, 0, 0]	-999	PAL1	0	R1036M
1873.278	0.008	944661	REC_END	n/a	n/a	1	-999	n/a	n/a	n/a	n/a	12	[0, 0, 0]	-999	PAL1	0	R1036M
1873.286	0.275	944665	TEST_ORIENT	n/a	n/a	6	6	ROAD	STREET	ROAD	TRAIN	12	[0, 0, 0]	-999	PAL1	0	R1036M
1874.119	0.0	945082	REC_START	n/a	n/a	6	-999	n/a	STREET	n/a	n/a	12	[0, 0, 0]	-999	PAL1	0	R1036M
1874.119	4.0	945082	TEST_PROBE	n/a	wordpools/wordpool_EN.txt	6	6	ROAD	STREET	ROAD	TRAIN	12	[0, 0, 0]	-999	PAL1	0	R1036M
1877.552	1.584	946798	REC_EVENT	3.433	n/a	6	6	ROAD	STREET	ROAD	TRAIN	12	[0, 0, 0]	-999	PAL1	0	R1036M
1879.136	75.51	947590	REC_END	n/a	n/a	6	-999	n/a	n/a	n/a	n/a	12	[0, 0, 0]	-999	PAL1	0	R1036M
1954.646	10.441	985343	ENCODING_START	n/a	n/a	0	-999	n/a	n/a	n/a	n/a	13	[0, 0, 0]	-999	PAL1	0	R1036M
1965.087	0.275	990563	STUDY_ORIENT	n/a	n/a	1	3	AXE	n/a	AXE	HEART	13	[0, 0, 0]	-999	PAL1	0	R1036M
1965.987	4.0	991013	STUDY_PAIR	n/a	wordpools/wordpool_EN.txt	1	3	AXE	n/a	AXE	HEART	13	[0, 0, 0]	-999	PAL1	0	R1036M
1971.021	0.275	993530	STUDY_ORIENT	n/a	n/a	2	4	RAIN	n/a	RAIN	TRUCK	13	[0, 0, 0]	-999	PAL1	0	R1036M
1971.955	4.0	993997	STUDY_PAIR	n/a	wordpools/wordpool_EN.txt	2	4	RAIN	n/a	RAIN	TRUCK	13	[0, 0, 0]	-999	PAL1	0	R1036M
1976.989	0.275	996514	STUDY_ORIENT	n/a	n/a	3	5	WALL	n/a	STEAM	WALL	13	[0, 0, 0]	-999	PAL1	0	R1036M
1977.973	4.0	997006	STUDY_PAIR	n/a	wordpools/wordpool_EN.txt	3	5	WALL	n/a	STEAM	WALL	13	[0, 0, 0]	-999	PAL1	0	R1036M
1983.007	0.275	999523	STUDY_ORIENT	n/a	n/a	4	6	SIGN	n/a	CLOUD	SIGN	13	[0, 0, 0]	-999	PAL1	0	R1036M
1983.974	4.0	1000006	STUDY_PAIR	n/a	wordpools/wordpool_EN.txt	4	6	SIGN	n/a	CLOUD	SIGN	13	[0, 0, 0]	-999	PAL1	0	R1036M
1989.008	0.275	1002523	STUDY_ORIENT	n/a	n/a	5	1	CROWN	PIT	PIT	CROWN	13	[0, 0, 0]	-999	PAL1	0	R1036M
1989.792	4.0	1002915	STUDY_PAIR	n/a	wordpools/wordpool_EN.txt	5	1	CROWN	PIT	PIT	CROWN	13	[0, 0, 0]	-999	PAL1	0	R1036M
1994.826	0.275	1005432	STUDY_ORIENT	n/a	n/a	6	2	LAKE	n/a	SINK	LAKE	13	[0, 0, 0]	-999	PAL1	0	R1036M
1995.826	4.0	1005932	STUDY_PAIR	n/a	wordpools/wordpool_EN.txt	6	2	LAKE	n/a	SINK	LAKE	13	[0, 0, 0]	-999	PAL1	0	R1036M
1999.827	1.0	1007932	START	n/a	n/a	-999	-999	n/a	n/a	n/a	n/a	13	[-999, -999, -999]	-999	PAL1	0	R1036M
2000.827	0.017	1008432	MATH_START	n/a	n/a	-999	-999	n/a	n/a	n/a	n/a	13	[0, 0, 0]	-999	PAL1	0	R1036M
2000.844	10.403	1008441	PROB	10.378	n/a	-999	-999	n/a	n/a	n/a	n/a	13	[7, 4, 9]	20	PAL1	0	R1036M
2011.247	4.101	1013642	PROB	4.08	n/a	-999	-999	n/a	n/a	n/a	n/a	13	[5, 5, 1]	11	PAL1	0	R1036M
2015.348	11.21	1015692	PROB	11.21	n/a	-999	-999	n/a	n/a	n/a	n/a	13	[5, 2, 3]	10	PAL1	0	R1036M
2026.558	0.008	1021297	STOP	n/a	n/a	-999	-999	n/a	n/a	n/a	n/a	13	[-999, -999, -999]	-999	PAL1	0	R1036M
2026.566	0.0	1021301	MATH_END	n/a	n/a	-999	-999	n/a	n/a	n/a	n/a	13	[0, 0, 0]	-999	PAL1	0	R1036M
2026.566	0.016	1021301	TEST_START	n/a	n/a	-999	-999	n/a	n/a	n/a	n/a	13	[0, 0, 0]	-999	PAL1	0	R1036M
2026.582	0.275	1021309	TEST_ORIENT	n/a	n/a	5	1	CROWN	PIT	PIT	CROWN	13	[0, 0, 0]	-999	PAL1	0	R1036M
2027.417	4.0	1021726	TEST_PROBE	n/a	wordpools/wordpool_EN.txt	5	1	CROWN	PIT	PIT	CROWN	13	[0, 0, 0]	-999	PAL1	0	R1036M
2027.417	1.668	1021726	REC_START	n/a	n/a	5	-999	n/a	PIT	n/a	n/a	13	[0, 0, 0]	-999	PAL1	0	R1036M
2029.085	3.349	1022560	REC_EVENT	1.668	n/a	5	1	CROWN	PIT	PIT	CROWN	13	[0, 0, 0]	-999	PAL1	0	R1036M
2032.434	0.017	1024235	REC_END	n/a	n/a	5	-999	n/a	n/a	n/a	n/a	13	[0, 0, 0]	-999	PAL1	0	R1036M
2032.451	0.275	1024243	TEST_ORIENT	n/a	n/a	6	2	LAKE	n/a	SINK	LAKE	13	[0, 0, 0]	-999	PAL1	0	R1036M
2033.435	0.0	1024735	REC_EVENT	0.0	n/a	6	2	LAKE	<>	SINK	LAKE	13	[0, 0, 0]	-999	PAL1	0	R1036M
2033.435	4.0	1024735	TEST_PROBE	n/a	wordpools/wordpool_EN.txt	6	2	LAKE	n/a	SINK	LAKE	13	[0, 0, 0]	-999	PAL1	0	R1036M
2033.435	5.017	1024735	REC_START	n/a	n/a	6	-999	n/a	n/a	n/a	n/a	13	[0, 0, 0]	-999	PAL1	0	R1036M
2038.452	0.017	1027244	REC_END	n/a	n/a	6	-999	n/a	n/a	n/a	n/a	13	[0, 0, 0]	-999	PAL1	0	R1036M
2038.469	0.275	1027252	TEST_ORIENT	n/a	n/a	1	3	AXE	n/a	AXE	HEART	13	[0, 0, 0]	-999	PAL1	0	R1036M
2039.352	4.0	1027693	TEST_PROBE	n/a	wordpools/wordpool_EN.txt	1	3	AXE	n/a	AXE	HEART	13	[0, 0, 0]	-999	PAL1	0	R1036M
2039.353	0.0	1027694	REC_START	n/a	n/a	1	-999	n/a	n/a	n/a	n/a	13	[0, 0, 0]	-999	PAL1	0	R1036M
2039.353	5.009	1027694	REC_EVENT	0.0	n/a	1	3	AXE	<>	AXE	HEART	13	[0, 0, 0]	-999	PAL1	0	R1036M
2044.362	0.008	1030198	REC_END	n/a	n/a	1	-999	n/a	n/a	n/a	n/a	13	[0, 0, 0]	-999	PAL1	0	R1036M
2044.37	0.275	1030202	TEST_ORIENT	n/a	n/a	2	4	RAIN	n/a	RAIN	TRUCK	13	[0, 0, 0]	-999	PAL1	0	R1036M
2045.37	4.0	1030702	TEST_PROBE	n/a	wordpools/wordpool_EN.txt	2	4	RAIN	n/a	RAIN	TRUCK	13	[0, 0, 0]	-999	PAL1	0	R1036M
2045.371	0.0	1030703	REC_START	n/a	n/a	2	-999	n/a	n/a	n/a	n/a	13	[0, 0, 0]	-999	PAL1	0	R1036M
2045.371	5.009	1030703	REC_EVENT	0.0	n/a	2	4	RAIN	<>	RAIN	TRUCK	13	[0, 0, 0]	-999	PAL1	0	R1036M
2050.38	0.008	1033207	REC_END	n/a	n/a	2	-999	n/a	n/a	n/a	n/a	13	[0, 0, 0]	-999	PAL1	0	R1036M
2050.388	0.275	1033211	TEST_ORIENT	n/a	n/a	3	5	WALL	n/a	STEAM	WALL	13	[0, 0, 0]	-999	PAL1	0	R1036M
2051.272	4.0	1033653	TEST_PROBE	n/a	wordpools/wordpool_EN.txt	3	5	WALL	n/a	STEAM	WALL	13	[0, 0, 0]	-999	PAL1	0	R1036M
2051.272	0.0	1033653	REC_START	n/a	n/a	3	-999	n/a	n/a	n/a	n/a	13	[0, 0, 0]	-999	PAL1	0	R1036M
2051.272	5.017	1033653	REC_EVENT	0.0	n/a	3	5	WALL	<>	STEAM	WALL	13	[0, 0, 0]	-999	PAL1	0	R1036M
2056.289	0.017	1036162	REC_END	n/a	n/a	3	-999	n/a	n/a	n/a	n/a	13	[0, 0, 0]	-999	PAL1	0	R1036M
2056.306	0.275	1036170	TEST_ORIENT	n/a	n/a	4	6	SIGN	n/a	CLOUD	SIGN	13	[0, 0, 0]	-999	PAL1	0	R1036M
2057.256	4.0	1036645	TEST_PROBE	n/a	wordpools/wordpool_EN.txt	4	6	SIGN	n/a	CLOUD	SIGN	13	[0, 0, 0]	-999	PAL1	0	R1036M
2057.256	0.0	1036645	REC_START	n/a	n/a	4	-999	n/a	n/a	n/a	n/a	13	[0, 0, 0]	-999	PAL1	0	R1036M
2057.256	5.018	1036645	REC_EVENT	0.0	n/a	4	6	SIGN	<>	CLOUD	SIGN	13	[0, 0, 0]	-999	PAL1	0	R1036M
2062.274	46.924	1039154	REC_END	n/a	n/a	4	-999	n/a	n/a	n/a	n/a	13	[0, 0, 0]	-999	PAL1	0	R1036M
2109.198	10.453	1062615	ENCODING_START	n/a	n/a	0	-999	n/a	n/a	n/a	n/a	14	[0, 0, 0]	-999	PAL1	0	R1036M
2119.651	0.275	1067841	STUDY_ORIENT	n/a	n/a	1	1	BOOK	SHELF	LIP	BOOK	14	[0, 0, 0]	-999	PAL1	0	R1036M
2120.519	4.0	1068275	STUDY_PAIR	n/a	wordpools/wordpool_EN.txt	1	1	BOOK	SHELF	LIP	BOOK	14	[0, 0, 0]	-999	PAL1	0	R1036M
2125.552	0.275	1070791	STUDY_ORIENT	n/a	n/a	2	4	SHEEP	HERD	MUD	SHEEP	14	[0, 0, 0]	-999	PAL1	0	R1036M
2126.453	4.0	1071242	STUDY_PAIR	n/a	wordpools/wordpool_EN.txt	2	4	SHEEP	HERD	MUD	SHEEP	14	[0, 0, 0]	-999	PAL1	0	R1036M
2131.471	0.275	1073750	STUDY_ORIENT	n/a	n/a	3	5	BARN	n/a	FENCE	BARN	14	[0, 0, 0]	-999	PAL1	0	R1036M
2132.488	4.0	1074259	STUDY_PAIR	n/a	wordpools/wordpool_EN.txt	3	5	BARN	n/a	FENCE	BARN	14	[0, 0, 0]	-999	PAL1	0	R1036M
2137.522	0.275	1076776	STUDY_ORIENT	n/a	n/a	4	2	FRUIT	GLASS	FRUIT	GLASS	14	[0, 0, 0]	-999	PAL1	0	R1036M
2138.356	4.0	1077193	STUDY_PAIR	n/a	wordpools/wordpool_EN.txt	4	2	FRUIT	GLASS	FRUIT	GLASS	14	[0, 0, 0]	-999	PAL1	0	R1036M
2143.39	0.275	1079710	STUDY_ORIENT	n/a	n/a	5	3	BOMB	STREET	WHALE	BOMB	14	[0, 0, 0]	-999	PAL1	0	R1036M
2144.273	4.0	1080151	STUDY_PAIR	n/a	wordpools/wordpool_EN.txt	5	3	BOMB	STREET	WHALE	BOMB	14	[0, 0, 0]	-999	PAL1	0	R1036M
2149.291	0.275	1082660	STUDY_ORIENT	n/a	n/a	6	6	SALT	n/a	SALT	HOLE	14	[0, 0, 0]	-999	PAL1	0	R1036M
2150.157	4.0	1083093	STUDY_PAIR	n/a	wordpools/wordpool_EN.txt	6	6	SALT	n/a	SALT	HOLE	14	[0, 0, 0]	-999	PAL1	0	R1036M
2154.175	1.0	1085102	START	n/a	n/a	-999	-999	n/a	n/a	n/a	n/a	14	[-999, -999, -999]	-999	PAL1	0	R1036M
2155.175	0.016	1085602	MATH_START	n/a	n/a	-999	-999	n/a	n/a	n/a	n/a	14	[0, 0, 0]	-999	PAL1	0	R1036M
2155.191	5.219	1085610	PROB	5.184	n/a	-999	-999	n/a	n/a	n/a	n/a	14	[1, 9, 1]	11	PAL1	0	R1036M
2160.41	5.7	1088219	PROB	5.668	n/a	-999	-999	n/a	n/a	n/a	n/a	14	[6, 2, 3]	11	PAL1	0	R1036M
2166.11	13.576	1091069	PROB	13.576	n/a	-999	-999	n/a	n/a	n/a	n/a	14	[8, 6, 5]	20	PAL1	0	R1036M
2179.686	0.01	1097857	STOP	n/a	n/a	-999	-999	n/a	n/a	n/a	n/a	14	[-999, -999, -999]	-999	PAL1	0	R1036M
2179.696	0.0	1097862	MATH_END	n/a	n/a	-999	-999	n/a	n/a	n/a	n/a	14	[0, 0, 0]	-999	PAL1	0	R1036M
2179.696	0.017	1097862	TEST_START	n/a	n/a	-999	-999	n/a	n/a	n/a	n/a	14	[0, 0, 0]	-999	PAL1	0	R1036M
2179.713	0.275	1097870	TEST_ORIENT	n/a	n/a	1	1	BOOK	SHELF	LIP	BOOK	14	[0, 0, 0]	-999	PAL1	0	R1036M
2180.646	4.0	1098337	TEST_PROBE	n/a	wordpools/wordpool_EN.txt	1	1	BOOK	SHELF	LIP	BOOK	14	[0, 0, 0]	-999	PAL1	0	R1036M
2180.647	1.618	1098337	REC_START	n/a	n/a	1	-999	n/a	SHELF	n/a	n/a	14	[0, 0, 0]	-999	PAL1	0	R1036M
2182.265	3.391	1099146	REC_EVENT	1.618	n/a	1	1	BOOK	SHELF	LIP	BOOK	14	[0, 0, 0]	-999	PAL1	0	R1036M
2185.656	0.008	1100841	REC_END	n/a	n/a	1	-999	n/a	n/a	n/a	n/a	14	[0, 0, 0]	-999	PAL1	0	R1036M
2185.664	0.275	1100845	TEST_ORIENT	n/a	n/a	4	2	FRUIT	GLASS	FRUIT	GLASS	14	[0, 0, 0]	-999	PAL1	0	R1036M
2186.581	0.0	1101304	REC_START	n/a	n/a	4	-999	n/a	GLASS	n/a	n/a	14	[0, 0, 0]	-999	PAL1	0	R1036M
2186.581	4.0	1101304	TEST_PROBE	n/a	wordpools/wordpool_EN.txt	4	2	FRUIT	GLASS	FRUIT	GLASS	14	[0, 0, 0]	-999	PAL1	0	R1036M
2188.25	3.348	1102138	REC_EVENT	1.669	n/a	4	2	FRUIT	GLASS	FRUIT	GLASS	14	[0, 0, 0]	-999	PAL1	0	R1036M
2191.598	0.017	1103812	REC_END	n/a	n/a	4	-999	n/a	n/a	n/a	n/a	14	[0, 0, 0]	-999	PAL1	0	R1036M
2191.615	0.275	1103821	TEST_ORIENT	n/a	n/a	5	3	BOMB	STREET	WHALE	BOMB	14	[0, 0, 0]	-999	PAL1	0	R1036M
2192.416	4.0	1104221	TEST_PROBE	n/a	wordpools/wordpool_EN.txt	5	3	BOMB	STREET	WHALE	BOMB	14	[0, 0, 0]	-999	PAL1	0	R1036M
2192.417	3.549	1104222	REC_START	n/a	n/a	5	-999	n/a	STREET	n/a	n/a	14	[0, 0, 0]	-999	PAL1	0	R1036M
2195.966	1.46	1105996	REC_EVENT	3.549	n/a	5	3	BOMB	STREET	WHALE	BOMB	14	[0, 0, 0]	-999	PAL1	0	R1036M
2197.426	0.008	1106726	REC_END	n/a	n/a	5	-999	n/a	n/a	n/a	n/a	14	[0, 0, 0]	-999	PAL1	0	R1036M
2197.434	0.275	1106730	TEST_ORIENT	n/a	n/a	2	4	SHEEP	HERD	MUD	SHEEP	14	[0, 0, 0]	-999	PAL1	0	R1036M
2198.468	4.0	1107247	TEST_PROBE	n/a	wordpools/wordpool_EN.txt	2	4	SHEEP	HERD	MUD	SHEEP	14	[0, 0, 0]	-999	PAL1	0	R1036M
2198.468	4.177	1107247	REC_START	n/a	n/a	2	-999	n/a	HERD	n/a	n/a	14	[0, 0, 0]	-999	PAL1	0	R1036M
2202.645	0.84	1109335	REC_EVENT	4.177	n/a	2	4	SHEEP	HERD	MUD	SHEEP	14	[0, 0, 0]	-999	PAL1	0	R1036M
2203.485	0.017	1109755	REC_END	n/a	n/a	2	-999	n/a	n/a	n/a	n/a	14	[0, 0, 0]	-999	PAL1	0	R1036M
2203.502	0.275	1109764	TEST_ORIENT	n/a	n/a	3	5	BARN	n/a	FENCE	BARN	14	[0, 0, 0]	-999	PAL1	0	R1036M
2204.436	4.0	1110231	TEST_PROBE	n/a	wordpools/wordpool_EN.txt	3	5	BARN	n/a	FENCE	BARN	14	[0, 0, 0]	-999	PAL1	0	R1036M
2204.436	0.487	1110231	REC_START	n/a	n/a	3	-999	n/a	n/a	n/a	n/a	14	[0, 0, 0]	-999	PAL1	0	R1036M
2204.923	4.539	1110474	REC_EVENT	0.487	n/a	3	5	BARN	<>	FENCE	BARN	14	[0, 0, 0]	-999	PAL1	0	R1036M
2209.462	0.008	1112744	REC_END	n/a	n/a	3	-999	n/a	n/a	n/a	n/a	14	[0, 0, 0]	-999	PAL1	0	R1036M
2209.47	0.275	1112748	TEST_ORIENT	n/a	n/a	6	6	SALT	n/a	SALT	HOLE	14	[0, 0, 0]	-999	PAL1	0	R1036M
2210.403	4.0	1113214	TEST_PROBE	n/a	wordpools/wordpool_EN.txt	6	6	SALT	n/a	SALT	HOLE	14	[0, 0, 0]	-999	PAL1	0	R1036M
2210.404	0.0	1113215	REC_START	n/a	n/a	6	-999	n/a	n/a	n/a	n/a	14	[0, 0, 0]	-999	PAL1	0	R1036M
2210.404	5.009	1113215	REC_EVENT	0.0	n/a	6	6	SALT	<>	SALT	HOLE	14	[0, 0, 0]	-999	PAL1	0	R1036M
2215.413	25.106	1115719	REC_END	n/a	n/a	6	-999	n/a	n/a	n/a	n/a	14	[0, 0, 0]	-999	PAL1	0	R1036M
2240.519	10.441	1128271	ENCODING_START	n/a	n/a	0	-999	n/a	n/a	n/a	n/a	15	[0, 0, 0]	-999	PAL1	0	R1036M
2250.96	0.275	1133492	STUDY_ORIENT	n/a	n/a	1	3	ELF	n/a	ELF	OAK	15	[0, 0, 0]	-999	PAL1	0	R1036M
2251.777	4.0	1133900	STUDY_PAIR	n/a	wordpools/wordpool_EN.txt	1	3	ELF	n/a	ELF	OAK	15	[0, 0, 0]	-999	PAL1	0	R1036M
2256.812	0.275	1136417	STUDY_ORIENT	n/a	n/a	2	4	SKUNK	n/a	BEAN	SKUNK	15	[0, 0, 0]	-999	PAL1	0	R1036M
2257.762	4.0	1136892	STUDY_PAIR	n/a	wordpools/wordpool_EN.txt	2	4	SKUNK	n/a	BEAN	SKUNK	15	[0, 0, 0]	-999	PAL1	0	R1036M
2262.796	0.275	1139409	STUDY_ORIENT	n/a	n/a	3	5	CHALK	n/a	MOLE	CHALK	15	[0, 0, 0]	-999	PAL1	0	R1036M
2263.78	4.0	1139901	STUDY_PAIR	n/a	wordpools/wordpool_EN.txt	3	5	CHALK	n/a	MOLE	CHALK	15	[0, 0, 0]	-999	PAL1	0	R1036M
2268.814	0.275	1142418	STUDY_ORIENT	n/a	n/a	4	2	WOLF	n/a	WOLF	FOOD	15	[0, 0, 0]	-999	PAL1	0	R1036M
2269.797	4.0	1142910	STUDY_PAIR	n/a	wordpools/wordpool_EN.txt	4	2	WOLF	n/a	WOLF	FOOD	15	[0, 0, 0]	-999	PAL1	0	R1036M
2274.815	0.275	1145418	STUDY_ORIENT	n/a	n/a	5	1	CUBE	n/a	SOUP	CUBE	15	[0, 0, 0]	-999	PAL1	0	R1036M
2275.615	4.0	1145818	STUDY_PAIR	n/a	wordpools/wordpool_EN.txt	5	1	CUBE	n/a	SOUP	CUBE	15	[0, 0, 0]	-999	PAL1	0	R1036M
2280.633	0.275	1148327	STUDY_ORIENT	n/a	n/a	6	6	MAZE	n/a	MAZE	SPARK	15	[0, 0, 0]	-999	PAL1	0	R1036M
2281.617	4.0	1148819	STUDY_PAIR	n/a	wordpools/wordpool_EN.txt	6	6	MAZE	n/a	MAZE	SPARK	15	[0, 0, 0]	-999	PAL1	0	R1036M
2285.634	1.0	1150828	START	n/a	n/a	-999	-999	n/a	n/a	n/a	n/a	15	[-999, -999, -999]	-999	PAL1	0	R1036M
2286.634	0.017	1151328	MATH_START	n/a	n/a	-999	-999	n/a	n/a	n/a	n/a	15	[0, 0, 0]	-999	PAL1	0	R1036M
2286.651	6.418	1151336	PROB	6.395	n/a	-999	-999	n/a	n/a	n/a	n/a	15	[2, 4, 3]	9	PAL1	0	R1036M
2293.069	13.929	1154545	PROB	13.929	n/a	-999	-999	n/a	n/a	n/a	n/a	15	[8, 9, 7]	24	PAL1	0	R1036M
2306.998	0.007	1161509	STOP	n/a	n/a	-999	-999	n/a	n/a	n/a	n/a	15	[-999, -999, -999]	-999	PAL1	0	R1036M
2307.005	0.0	1161513	MATH_END	n/a	n/a	-999	-999	n/a	n/a	n/a	n/a	15	[0, 0, 0]	-999	PAL1	0	R1036M
2307.005	0.017	1161513	TEST_START	n/a	n/a	-999	-999	n/a	n/a	n/a	n/a	15	[0, 0, 0]	-999	PAL1	0	R1036M
2307.022	0.275	1161521	TEST_ORIENT	n/a	n/a	5	1	CUBE	n/a	SOUP	CUBE	15	[0, 0, 0]	-999	PAL1	0	R1036M
2308.038	4.0	1162029	TEST_PROBE	n/a	wordpools/wordpool_EN.txt	5	1	CUBE	n/a	SOUP	CUBE	15	[0, 0, 0]	-999	PAL1	0	R1036M
2308.039	0.0	1162030	REC_START	n/a	n/a	5	-999	n/a	n/a	n/a	n/a	15	[0, 0, 0]	-999	PAL1	0	R1036M
2308.039	5.009	1162030	REC_EVENT	0.0	n/a	5	1	CUBE	<>	SOUP	CUBE	15	[0, 0, 0]	-999	PAL1	0	R1036M
2313.048	0.008	1164534	REC_END	n/a	n/a	5	-999	n/a	n/a	n/a	n/a	15	[0, 0, 0]	-999	PAL1	0	R1036M
2313.056	0.275	1164538	TEST_ORIENT	n/a	n/a	4	2	WOLF	n/a	WOLF	FOOD	15	[0, 0, 0]	-999	PAL1	0	R1036M
2313.89	4.0	1164955	TEST_PROBE	n/a	wordpools/wordpool_EN.txt	4	2	WOLF	n/a	WOLF	FOOD	15	[0, 0, 0]	-999	PAL1	0	R1036M
2313.89	0.0	1164955	REC_START	n/a	n/a	4	-999	n/a	n/a	n/a	n/a	15	[0, 0, 0]	-999	PAL1	0	R1036M
2313.89	5.017	1164955	REC_EVENT	0.0	n/a	4	2	WOLF	<>	WOLF	FOOD	15	[0, 0, 0]	-999	PAL1	0	R1036M
2318.907	0.017	1167463	REC_END	n/a	n/a	4	-999	n/a	n/a	n/a	n/a	15	[0, 0, 0]	-999	PAL1	0	R1036M
2318.924	0.275	1167472	TEST_ORIENT	n/a	n/a	1	3	ELF	n/a	ELF	OAK	15	[0, 0, 0]	-999	PAL1	0	R1036M
2319.824	4.0	1167922	TEST_PROBE	n/a	wordpools/wordpool_EN.txt	1	3	ELF	n/a	ELF	OAK	15	[0, 0, 0]	-999	PAL1	0	R1036M
2319.825	0.0	1167922	REC_EVENT	0.0	n/a	1	3	ELF	<>	ELF	OAK	15	[0, 0, 0]	-999	PAL1	0	R1036M
2319.825	5.008	1167922	REC_START	n/a	n/a	1	-999	n/a	n/a	n/a	n/a	15	[0, 0, 0]	-999	PAL1	0	R1036M
2324.833	0.009	1170426	REC_END	n/a	n/a	1	-999	n/a	n/a	n/a	n/a	15	[0, 0, 0]	-999	PAL1	0	R1036M
2324.842	0.275	1170431	TEST_ORIENT	n/a	n/a	2	4	SKUNK	n/a	BEAN	SKUNK	15	[0, 0, 0]	-999	PAL1	0	R1036M
2325.758	4.0	1170889	TEST_PROBE	n/a	wordpools/wordpool_EN.txt	2	4	SKUNK	n/a	BEAN	SKUNK	15	[0, 0, 0]	-999	PAL1	0	R1036M
2325.759	0.0	1170889	REC_START	n/a	n/a	2	-999	n/a	n/a	n/a	n/a	15	[0, 0, 0]	-999	PAL1	0	R1036M
2325.759	5.0	1170889	REC_EVENT	0.0	n/a	2	4	SKUNK	<>	BEAN	SKUNK	15	[0, 0, 0]	-999	PAL1	0	R1036M
2330.759	0.017	1173389	REC_END	n/a	n/a	2	-999	n/a	n/a	n/a	n/a	15	[0, 0, 0]	-999	PAL1	0	R1036M
2330.776	0.275	1173397	TEST_ORIENT	n/a	n/a	3	5	CHALK	n/a	MOLE	CHALK	15	[0, 0, 0]	-999	PAL1	0	R1036M
2331.627	0.0	1173823	REC_START	n/a	n/a	3	-999	n/a	n/a	n/a	n/a	15	[0, 0, 0]	-999	PAL1	0	R1036M
2331.627	0.0	1173823	REC_EVENT	0.0	n/a	3	5	CHALK	<>	MOLE	CHALK	15	[0, 0, 0]	-999	PAL1	0	R1036M
2331.627	4.0	1173823	TEST_PROBE	n/a	wordpools/wordpool_EN.txt	3	5	CHALK	n/a	MOLE	CHALK	15	[0, 0, 0]	-999	PAL1	0	R1036M
2336.644	0.017	1176331	REC_END	n/a	n/a	3	-999	n/a	n/a	n/a	n/a	15	[0, 0, 0]	-999	PAL1	0	R1036M
2336.661	0.275	1176340	TEST_ORIENT	n/a	n/a	6	6	MAZE	n/a	MAZE	SPARK	15	[0, 0, 0]	-999	PAL1	0	R1036M
2337.512	4.0	1176765	TEST_PROBE	n/a	wordpools/wordpool_EN.txt	6	6	MAZE	n/a	MAZE	SPARK	15	[0, 0, 0]	-999	PAL1	0	R1036M
2337.512	0.0	1176765	REC_START	n/a	n/a	6	-999	n/a	n/a	n/a	n/a	15	[0, 0, 0]	-999	PAL1	0	R1036M
2337.512	5.017	1176765	REC_EVENT	0.0	n/a	6	6	MAZE	<>	MAZE	SPARK	15	[0, 0, 0]	-999	PAL1	0	R1036M
2342.529	235.253	1179274	REC_END	n/a	n/a	6	-999	n/a	n/a	n/a	n/a	15	[0, 0, 0]	-999	PAL1	0	R1036M
2577.782	10.447	1296894	ENCODING_START	n/a	n/a	0	-999	n/a	n/a	n/a	n/a	16	[0, 0, 0]	-999	PAL1	0	R1036M
2588.229	0.275	1302117	STUDY_ORIENT	n/a	n/a	1	1	BAND	MIND	BAND	FOAM	16	[0, 0, 0]	-999	PAL1	0	R1036M
2589.128	4.0	1302566	STUDY_PAIR	n/a	wordpools/wordpool_EN.txt	1	1	BAND	MIND	BAND	FOAM	16	[0, 0, 0]	-999	PAL1	0	R1036M
2594.162	0.275	1305083	STUDY_ORIENT	n/a	n/a	2	2	WEED	SUN	ROSE	WEED	16	[0, 0, 0]	-999	PAL1	0	R1036M
2594.929	4.0	1305467	STUDY_PAIR	n/a	wordpools/wordpool_EN.txt	2	2	WEED	SUN	ROSE	WEED	16	[0, 0, 0]	-999	PAL1	0	R1036M
2599.963	0.275	1307984	STUDY_ORIENT	n/a	n/a	3	5	SCHOOL	DAYS	DOCK	SCHOOL	16	[0, 0, 0]	-999	PAL1	0	R1036M
2600.863	4.0	1308434	STUDY_PAIR	n/a	wordpools/wordpool_EN.txt	3	5	SCHOOL	DAYS	DOCK	SCHOOL	16	[0, 0, 0]	-999	PAL1	0	R1036M
2605.881	0.275	1310942	STUDY_ORIENT	n/a	n/a	4	6	BATH	CAR	BATH	CUP	16	[0, 0, 0]	-999	PAL1	0	R1036M
2606.898	4.0	1311451	STUDY_PAIR	n/a	wordpools/wordpool_EN.txt	4	6	BATH	CAR	BATH	CUP	16	[0, 0, 0]	-999	PAL1	0	R1036M
2611.932	0.275	1313968	STUDY_ORIENT	n/a	n/a	5	3	HAND	n/a	LAND	HAND	16	[0, 0, 0]	-999	PAL1	0	R1036M
2612.716	4.0	1314360	STUDY_PAIR	n/a	wordpools/wordpool_EN.txt	5	3	HAND	n/a	LAND	HAND	16	[0, 0, 0]	-999	PAL1	0	R1036M
2617.75	0.275	1316877	STUDY_ORIENT	n/a	n/a	6	4	PURSE	n/a	PURSE	STAIR	16	[0, 0, 0]	-999	PAL1	0	R1036M
2618.784	4.0	1317394	STUDY_PAIR	n/a	wordpools/wordpool_EN.txt	6	4	PURSE	n/a	PURSE	STAIR	16	[0, 0, 0]	-999	PAL1	0	R1036M
2622.802	0.999	1319402	START	n/a	n/a	-999	-999	n/a	n/a	n/a	n/a	16	[-999, -999, -999]	-999	PAL1	0	R1036M
2623.801	0.017	1319902	MATH_START	n/a	n/a	-999	-999	n/a	n/a	n/a	n/a	16	[0, 0, 0]	-999	PAL1	0	R1036M
2623.818	8.952	1319910	PROB	8.924	n/a	-999	-999	n/a	n/a	n/a	n/a	16	[1, 9, 7]	17	PAL1	0	R1036M
2632.77	9.503	1324386	PROB	9.469	n/a	-999	-999	n/a	n/a	n/a	n/a	16	[6, 7, 3]	16	PAL1	0	R1036M
2642.273	10.341	1329137	PROB	10.341	n/a	-999	-999	n/a	n/a	n/a	n/a	16	[4, 7, 9]	20	PAL1	0	R1036M
2652.614	0.01	1334308	STOP	n/a	n/a	-999	-999	n/a	n/a	n/a	n/a	16	[-999, -999, -999]	-999	PAL1	0	R1036M
2652.624	0.0	1334313	MATH_END	n/a	n/a	-999	-999	n/a	n/a	n/a	n/a	16	[0, 0, 0]	-999	PAL1	0	R1036M
2652.624	0.016	1334313	TEST_START	n/a	n/a	-999	-999	n/a	n/a	n/a	n/a	16	[0, 0, 0]	-999	PAL1	0	R1036M
2652.64	0.275	1334321	TEST_ORIENT	n/a	n/a	1	1	BAND	MIND	BAND	FOAM	16	[0, 0, 0]	-999	PAL1	0	R1036M
2653.607	4.0	1334804	TEST_PROBE	n/a	wordpools/wordpool_EN.txt	1	1	BAND	MIND	BAND	FOAM	16	[0, 0, 0]	-999	PAL1	0	R1036M
2653.608	4.229	1334805	REC_START	n/a	n/a	1	-999	n/a	MIND	n/a	n/a	16	[0, 0, 0]	-999	PAL1	0	R1036M
2657.837	0.779	1336919	REC_EVENT	4.229	n/a	1	1	BAND	MIND	BAND	FOAM	16	[0, 0, 0]	-999	PAL1	0	R1036M
2658.616	0.009	1337308	REC_END	n/a	n/a	1	-999	n/a	n/a	n/a	n/a	16	[0, 0, 0]	-999	PAL1	0	R1036M
2658.625	0.275	1337313	TEST_ORIENT	n/a	n/a	2	2	WEED	SUN	ROSE	WEED	16	[0, 0, 0]	-999	PAL1	0	R1036M
2659.642	4.0	1337821	TEST_PROBE	n/a	wordpools/wordpool_EN.txt	2	2	WEED	SUN	ROSE	WEED	16	[0, 0, 0]	-999	PAL1	0	R1036M
2659.643	4.565	1337822	REC_START	n/a	n/a	2	-999	n/a	SUN	n/a	n/a	16	[0, 0, 0]	-999	PAL1	0	R1036M
2664.208	0.46	1340104	REC_EVENT	4.565	n/a	2	2	WEED	SUN	ROSE	WEED	16	[0, 0, 0]	-999	PAL1	0	R1036M
2664.668	0.008	1340334	REC_END	n/a	n/a	2	-999	n/a	n/a	n/a	n/a	16	[0, 0, 0]	-999	PAL1	0	R1036M
2664.676	0.275	1340338	TEST_ORIENT	n/a	n/a	5	3	HAND	n/a	LAND	HAND	16	[0, 0, 0]	-999	PAL1	0	R1036M
2665.576	4.0	1340788	TEST_PROBE	n/a	wordpools/wordpool_EN.txt	5	3	HAND	n/a	LAND	HAND	16	[0, 0, 0]	-999	PAL1	0	R1036M
2665.577	0.0	1340789	REC_EVENT	0.0	n/a	5	3	HAND	<>	LAND	HAND	16	[0, 0, 0]	-999	PAL1	0	R1036M
2665.577	5.009	1340789	REC_START	n/a	n/a	5	-999	n/a	n/a	n/a	n/a	16	[0, 0, 0]	-999	PAL1	0	R1036M
2670.586	0.008	1343293	REC_END	n/a	n/a	5	-999	n/a	n/a	n/a	n/a	16	[0, 0, 0]	-999	PAL1	0	R1036M
2670.594	0.275	1343297	TEST_ORIENT	n/a	n/a	6	4	PURSE	n/a	PURSE	STAIR	16	[0, 0, 0]	-999	PAL1	0	R1036M
2671.462	4.0	1343731	TEST_PROBE	n/a	wordpools/wordpool_EN.txt	6	4	PURSE	n/a	PURSE	STAIR	16	[0, 0, 0]	-999	PAL1	0	R1036M
2671.462	0.0	1343731	REC_START	n/a	n/a	6	-999	n/a	n/a	n/a	n/a	16	[0, 0, 0]	-999	PAL1	0	R1036M
2671.462	5.017	1343731	REC_EVENT	0.0	n/a	6	4	PURSE	<>	PURSE	STAIR	16	[0, 0, 0]	-999	PAL1	0	R1036M
2676.479	0.017	1346239	REC_END	n/a	n/a	6	-999	n/a	n/a	n/a	n/a	16	[0, 0, 0]	-999	PAL1	0	R1036M
2676.496	0.275	1346248	TEST_ORIENT	n/a	n/a	3	5	SCHOOL	DAYS	DOCK	SCHOOL	16	[0, 0, 0]	-999	PAL1	0	R1036M
2677.53	4.0	1346765	TEST_PROBE	n/a	wordpools/wordpool_EN.txt	3	5	SCHOOL	DAYS	DOCK	SCHOOL	16	[0, 0, 0]	-999	PAL1	0	R1036M
2677.53	2.756	1346765	REC_START	n/a	n/a	3	-999	n/a	DAYS	n/a	n/a	16	[0, 0, 0]	-999	PAL1	0	R1036M
2680.286	2.26	1348143	REC_EVENT	2.756	n/a	3	5	SCHOOL	DAYS	DOCK	SCHOOL	16	[0, 0, 0]	-999	PAL1	0	R1036M
2682.546	0.017	1349273	REC_END	n/a	n/a	3	-999	n/a	n/a	n/a	n/a	16	[0, 0, 0]	-999	PAL1	0	R1036M
2682.563	0.275	1349281	TEST_ORIENT	n/a	n/a	4	6	BATH	CAR	BATH	CUP	16	[0, 0, 0]	-999	PAL1	0	R1036M
2683.597	4.0	1349798	TEST_PROBE	n/a	wordpools/wordpool_EN.txt	4	6	BATH	CAR	BATH	CUP	16	[0, 0, 0]	-999	PAL1	0	R1036M
2683.597	2.822	1349798	REC_START	n/a	n/a	4	-999	n/a	CAR	n/a	n/a	16	[0, 0, 0]	-999	PAL1	0	R1036M
2686.419	2.195	1351209	REC_EVENT	2.822	n/a	4	6	BATH	CAR	BATH	CUP	16	[0, 0, 0]	-999	PAL1	0	R1036M
2688.614	29.608	1352307	REC_END	n/a	n/a	4	-999	n/a	n/a	n/a	n/a	16	[0, 0, 0]	-999	PAL1	0	R1036M
2718.222	10.45	1367110	ENCODING_START	n/a	n/a	0	-999	n/a	n/a	n/a	n/a	17	[0, 0, 0]	-999	PAL1	0	R1036M
2728.672	0.275	1372334	STUDY_ORIENT	n/a	n/a	1	5	HOUSE	CHAIR	HOUSE	JUICE	17	[0, 0, 0]	-999	PAL1	0	R1036M
2729.524	4.0	1372760	STUDY_PAIR	n/a	wordpools/wordpool_EN.txt	1	5	HOUSE	CHAIR	HOUSE	JUICE	17	[0, 0, 0]	-999	PAL1	0	R1036M
2734.557	0.275	1375277	STUDY_ORIENT	n/a	n/a	2	2	PIN	NAIL	LEAF	PIN	17	[0, 0, 0]	-999	PAL1	0	R1036M
2735.574	4.0	1375785	STUDY_PAIR	n/a	wordpools/wordpool_EN.txt	2	2	PIN	NAIL	LEAF	PIN	17	[0, 0, 0]	-999	PAL1	0	R1036M
2740.608	0.275	1378302	STUDY_ORIENT	n/a	n/a	3	1	HORN	CAR	HORN	JEEP	17	[0, 0, 0]	-999	PAL1	0	R1036M
2741.443	4.0	1378720	STUDY_PAIR	n/a	wordpools/wordpool_EN.txt	3	1	HORN	CAR	HORN	JEEP	17	[0, 0, 0]	-999	PAL1	0	R1036M
2746.477	0.275	1381237	STUDY_ORIENT	n/a	n/a	4	6	JAIL	n/a	BADGE	JAIL	17	[0, 0, 0]	-999	PAL1	0	R1036M
2747.344	4.0	1381670	STUDY_PAIR	n/a	wordpools/wordpool_EN.txt	4	6	JAIL	n/a	BADGE	JAIL	17	[0, 0, 0]	-999	PAL1	0	R1036M
2752.378	0.275	1384187	STUDY_ORIENT	n/a	n/a	5	3	ZOO	APE	ZOO	APE	17	[0, 0, 0]	-999	PAL1	0	R1036M
2753.245	4.0	1384620	STUDY_PAIR	n/a	wordpools/wordpool_EN.txt	5	3	ZOO	APE	ZOO	APE	17	[0, 0, 0]	-999	PAL1	0	R1036M
2758.279	0.275	1387137	STUDY_ORIENT	n/a	n/a	6	4	BOY	n/a	OAR	BOY	17	[0, 0, 0]	-999	PAL1	0	R1036M
2759.112	4.0	1387554	STUDY_PAIR	n/a	wordpools/wordpool_EN.txt	6	4	BOY	n/a	OAR	BOY	17	[0, 0, 0]	-999	PAL1	0	R1036M
2763.13	0.999	1389563	START	n/a	n/a	-999	-999	n/a	n/a	n/a	n/a	17	[-999, -999, -999]	-999	PAL1	0	R1036M
2764.129	0.017	1390062	MATH_START	n/a	n/a	-999	-999	n/a	n/a	n/a	n/a	17	[0, 0, 0]	-999	PAL1	0	R1036M
2764.146	12.387	1390071	PROB	12.365	n/a	-999	-999	n/a	n/a	n/a	n/a	17	[8, 9, 5]	23	PAL1	0	R1036M
2776.533	9.401	1396264	PROB	9.401	n/a	-999	-999	n/a	n/a	n/a	n/a	17	[8, 5, 4]	17	PAL1	0	R1036M
2785.934	0.016	1400964	STOP	n/a	n/a	-999	-999	n/a	n/a	n/a	n/a	17	[-999, -999, -999]	-999	PAL1	0	R1036M
2785.95	0.0	1400972	MATH_END	n/a	n/a	-999	-999	n/a	n/a	n/a	n/a	17	[0, 0, 0]	-999	PAL1	0	R1036M
2785.95	0.017	1400972	TEST_START	n/a	n/a	-999	-999	n/a	n/a	n/a	n/a	17	[0, 0, 0]	-999	PAL1	0	R1036M
2785.967	0.275	1400980	TEST_ORIENT	n/a	n/a	3	1	HORN	CAR	HORN	JEEP	17	[0, 0, 0]	-999	PAL1	0	R1036M
2786.867	4.0	1401430	TEST_PROBE	n/a	wordpools/wordpool_EN.txt	3	1	HORN	CAR	HORN	JEEP	17	[0, 0, 0]	-999	PAL1	0	R1036M
2786.868	2.482	1401431	REC_START	n/a	n/a	3	-999	n/a	CAR	n/a	n/a	17	[0, 0, 0]	-999	PAL1	0	R1036M
2789.35	2.526	1402672	REC_EVENT	2.482	n/a	3	1	HORN	CAR	HORN	JEEP	17	[0, 0, 0]	-999	PAL1	0	R1036M
2791.876	0.009	1403935	REC_END	n/a	n/a	3	-999	n/a	n/a	n/a	n/a	17	[0, 0, 0]	-999	PAL1	0	R1036M
2791.885	0.275	1403939	TEST_ORIENT	n/a	n/a	2	2	PIN	NAIL	LEAF	PIN	17	[0, 0, 0]	-999	PAL1	0	R1036M
2792.902	4.0	1404448	TEST_PROBE	n/a	wordpools/wordpool_EN.txt	2	2	PIN	NAIL	LEAF	PIN	17	[0, 0, 0]	-999	PAL1	0	R1036M
2792.902	4.315	1404448	REC_START	n/a	n/a	2	-999	n/a	NAIL	n/a	n/a	17	[0, 0, 0]	-999	PAL1	0	R1036M
2797.217	0.702	1406605	REC_EVENT	4.315	n/a	2	2	PIN	NAIL	LEAF	PIN	17	[0, 0, 0]	-999	PAL1	0	R1036M
2797.919	0.017	1406956	REC_END	n/a	n/a	2	-999	n/a	n/a	n/a	n/a	17	[0, 0, 0]	-999	PAL1	0	R1036M
2797.936	0.275	1406965	TEST_ORIENT	n/a	n/a	5	3	ZOO	APE	ZOO	APE	17	[0, 0, 0]	-999	PAL1	0	R1036M
2798.853	4.0	1407423	TEST_PROBE	n/a	wordpools/wordpool_EN.txt	5	3	ZOO	APE	ZOO	APE	17	[0, 0, 0]	-999	PAL1	0	R1036M
2798.854	1.253	1407424	REC_START	n/a	n/a	5	-999	n/a	APE	n/a	n/a	17	[0, 0, 0]	-999	PAL1	0	R1036M
2800.107	3.763	1408050	REC_EVENT	1.253	n/a	5	3	ZOO	APE	ZOO	APE	17	[0, 0, 0]	-999	PAL1	0	R1036M
2803.87	0.017	1409931	REC_END	n/a	n/a	5	-999	n/a	n/a	n/a	n/a	17	[0, 0, 0]	-999	PAL1	0	R1036M
2803.887	0.275	1409940	TEST_ORIENT	n/a	n/a	6	4	BOY	n/a	OAR	BOY	17	[0, 0, 0]	-999	PAL1	0	R1036M
2804.904	4.0	1410448	TEST_PROBE	n/a	wordpools/wordpool_EN.txt	6	4	BOY	n/a	OAR	BOY	17	[0, 0, 0]	-999	PAL1	0	R1036M
2804.905	0.0	1410449	REC_START	n/a	n/a	6	-999	n/a	n/a	n/a	n/a	17	[0, 0, 0]	-999	PAL1	0	R1036M
2804.905	5.009	1410449	REC_EVENT	0.0	n/a	6	4	BOY	<>	OAR	BOY	17	[0, 0, 0]	-999	PAL1	0	R1036M
2809.914	0.008	1412953	REC_END	n/a	n/a	6	-999	n/a	n/a	n/a	n/a	17	[0, 0, 0]	-999	PAL1	0	R1036M
2809.922	0.275	1412957	TEST_ORIENT	n/a	n/a	1	5	HOUSE	CHAIR	HOUSE	JUICE	17	[0, 0, 0]	-999	PAL1	0	R1036M
2810.789	4.0	1413391	TEST_PROBE	n/a	wordpools/wordpool_EN.txt	1	5	HOUSE	CHAIR	HOUSE	JUICE	17	[0, 0, 0]	-999	PAL1	0	R1036M
2810.789	3.285	1413391	REC_START	n/a	n/a	1	-999	n/a	CHAIR	n/a	n/a	17	[0, 0, 0]	-999	PAL1	0	R1036M
2814.074	1.732	1415033	REC_EVENT	3.285	n/a	1	5	HOUSE	CHAIR	HOUSE	JUICE	17	[0, 0, 0]	-999	PAL1	0	R1036M
2815.806	0.017	1415899	REC_END	n/a	n/a	1	-999	n/a	n/a	n/a	n/a	17	[0, 0, 0]	-999	PAL1	0	R1036M
2815.823	0.275	1415908	TEST_ORIENT	n/a	n/a	4	6	JAIL	n/a	BADGE	JAIL	17	[0, 0, 0]	-999	PAL1	0	R1036M
2816.757	4.0	1416375	TEST_PROBE	n/a	wordpools/wordpool_EN.txt	4	6	JAIL	n/a	BADGE	JAIL	17	[0, 0, 0]	-999	PAL1	0	R1036M
2816.757	0.0	1416375	REC_START	n/a	n/a	4	-999	n/a	n/a	n/a	n/a	17	[0, 0, 0]	-999	PAL1	0	R1036M
2816.757	5.026	1416375	REC_EVENT	0.0	n/a	4	6	JAIL	<>	BADGE	JAIL	17	[0, 0, 0]	-999	PAL1	0	R1036M
2821.783	24.295	1418887	REC_END	n/a	n/a	4	-999	n/a	n/a	n/a	n/a	17	[0, 0, 0]	-999	PAL1	0	R1036M
2846.078	10.454	1431034	ENCODING_START	n/a	n/a	0	-999	n/a	n/a	n/a	n/a	18	[0, 0, 0]	-999	PAL1	0	R1036M
2856.532	0.275	1436261	STUDY_ORIENT	n/a	n/a	1	3	CORD	n/a	CORD	SHELL	18	[0, 0, 0]	-999	PAL1	0	R1036M
2857.516	4.0	1436753	STUDY_PAIR	n/a	wordpools/wordpool_EN.txt	1	3	CORD	n/a	CORD	SHELL	18	[0, 0, 0]	-999	PAL1	0	R1036M
2862.549	0.275	1439269	STUDY_ORIENT	n/a	n/a	2	4	CAR	ARK	ARK	CAR	18	[0, 0, 0]	-999	PAL1	0	R1036M
2863.467	4.0	1439728	STUDY_PAIR	n/a	wordpools/wordpool_EN.txt	2	4	CAR	ARK	ARK	CAR	18	[0, 0, 0]	-999	PAL1	0	R1036M
2868.501	0.275	1442245	STUDY_ORIENT	n/a	n/a	3	5	EAR	n/a	EAR	FLAME	18	[0, 0, 0]	-999	PAL1	0	R1036M
2869.468	4.0	1442729	STUDY_PAIR	n/a	wordpools/wordpool_EN.txt	3	5	EAR	n/a	EAR	FLAME	18	[0, 0, 0]	-999	PAL1	0	R1036M
2874.486	0.275	1445237	STUDY_ORIENT	n/a	n/a	4	6	BOX	TAP	BOX	ROOF	18	[0, 0, 0]	-999	PAL1	0	R1036M
2875.403	4.0	1445696	STUDY_PAIR	n/a	wordpools/wordpool_EN.txt	4	6	BOX	TAP	BOX	ROOF	18	[0, 0, 0]	-999	PAL1	0	R1036M
2880.437	0.275	1448213	STUDY_ORIENT	n/a	n/a	5	1	MOUTH	n/a	DITCH	MOUTH	18	[0, 0, 0]	-999	PAL1	0	R1036M
2881.437	4.0	1448713	STUDY_PAIR	n/a	wordpools/wordpool_EN.txt	5	1	MOUTH	n/a	DITCH	MOUTH	18	[0, 0, 0]	-999	PAL1	0	R1036M
2886.455	0.275	1451222	STUDY_ORIENT	n/a	n/a	6	2	GOAT	n/a	MOOSE	GOAT	18	[0, 0, 0]	-999	PAL1	0	R1036M
2887.255	4.0	1451622	STUDY_PAIR	n/a	wordpools/wordpool_EN.txt	6	2	GOAT	n/a	MOOSE	GOAT	18	[0, 0, 0]	-999	PAL1	0	R1036M
2891.273	0.999	1453631	START	n/a	n/a	-999	-999	n/a	n/a	n/a	n/a	18	[-999, -999, -999]	-999	PAL1	0	R1036M
2892.272	0.017	1454130	MATH_START	n/a	n/a	-999	-999	n/a	n/a	n/a	n/a	18	[0, 0, 0]	-999	PAL1	0	R1036M
2892.289	5.3	1454138	PROB	5.277	n/a	-999	-999	n/a	n/a	n/a	n/a	18	[3, 2, 2]	7	PAL1	0	R1036M
2897.589	6.936	1456788	PROB	6.914	n/a	-999	-999	n/a	n/a	n/a	n/a	18	[8, 4, 1]	13	PAL1	0	R1036M
2904.525	4.918	1460256	PROB	4.89	n/a	-999	-999	n/a	n/a	n/a	n/a	18	[1, 5, 2]	8	PAL1	0	R1036M
2909.443	6.195	1462715	PROB	6.195	n/a	-999	-999	n/a	n/a	n/a	n/a	18	[7, 7, 6]	20	PAL1	0	R1036M
2915.638	0.005	1465812	STOP	n/a	n/a	-999	-999	n/a	n/a	n/a	n/a	18	[-999, -999, -999]	-999	PAL1	0	R1036M
2915.643	0.0	1465815	MATH_END	n/a	n/a	-999	-999	n/a	n/a	n/a	n/a	18	[0, 0, 0]	-999	PAL1	0	R1036M
2915.643	0.017	1465815	TEST_START	n/a	n/a	-999	-999	n/a	n/a	n/a	n/a	18	[0, 0, 0]	-999	PAL1	0	R1036M
2915.66	0.275	1465823	TEST_ORIENT	n/a	n/a	5	1	MOUTH	n/a	DITCH	MOUTH	18	[0, 0, 0]	-999	PAL1	0	R1036M
2916.527	4.0	1466257	TEST_PROBE	n/a	wordpools/wordpool_EN.txt	5	1	MOUTH	n/a	DITCH	MOUTH	18	[0, 0, 0]	-999	PAL1	0	R1036M
2916.528	0.0	1466257	REC_START	n/a	n/a	5	-999	n/a	n/a	n/a	n/a	18	[0, 0, 0]	-999	PAL1	0	R1036M
2916.528	5.009	1466257	REC_EVENT	0.0	n/a	5	1	MOUTH	<>	DITCH	MOUTH	18	[0, 0, 0]	-999	PAL1	0	R1036M
2921.537	0.007	1468762	REC_END	n/a	n/a	5	-999	n/a	n/a	n/a	n/a	18	[0, 0, 0]	-999	PAL1	0	R1036M
2921.544	0.275	1468765	TEST_ORIENT	n/a	n/a	6	2	GOAT	n/a	MOOSE	GOAT	18	[0, 0, 0]	-999	PAL1	0	R1036M
2922.395	4.0	1469191	TEST_PROBE	n/a	wordpools/wordpool_EN.txt	6	2	GOAT	n/a	MOOSE	GOAT	18	[0, 0, 0]	-999	PAL1	0	R1036M
2922.396	0.0	1469191	REC_START	n/a	n/a	6	-999	n/a	n/a	n/a	n/a	18	[0, 0, 0]	-999	PAL1	0	R1036M
2922.396	5.015	1469191	REC_EVENT	0.0	n/a	6	2	GOAT	<>	MOOSE	GOAT	18	[0, 0, 0]	-999	PAL1	0	R1036M
2927.411	0.019	1471699	REC_END	n/a	n/a	6	-999	n/a	n/a	n/a	n/a	18	[0, 0, 0]	-999	PAL1	0	R1036M
2927.43	0.275	1471708	TEST_ORIENT	n/a	n/a	1	3	CORD	n/a	CORD	SHELL	18	[0, 0, 0]	-999	PAL1	0	R1036M
2928.313	4.0	1472149	TEST_PROBE	n/a	wordpools/wordpool_EN.txt	1	3	CORD	n/a	CORD	SHELL	18	[0, 0, 0]	-999	PAL1	0	R1036M
2928.314	0.0	1472150	REC_START	n/a	n/a	1	-999	n/a	n/a	n/a	n/a	18	[0, 0, 0]	-999	PAL1	0	R1036M
2928.314	5.0	1472150	REC_EVENT	0.0	n/a	1	3	CORD	<>	CORD	SHELL	18	[0, 0, 0]	-999	PAL1	0	R1036M
2933.314	0.017	1474650	REC_END	n/a	n/a	1	-999	n/a	n/a	n/a	n/a	18	[0, 0, 0]	-999	PAL1	0	R1036M
2933.331	0.275	1474658	TEST_ORIENT	n/a	n/a	2	4	CAR	ARK	ARK	CAR	18	[0, 0, 0]	-999	PAL1	0	R1036M
2934.264	4.0	1475125	TEST_PROBE	n/a	wordpools/wordpool_EN.txt	2	4	CAR	ARK	ARK	CAR	18	[0, 0, 0]	-999	PAL1	0	R1036M
2934.265	0.908	1475125	REC_START	n/a	n/a	2	-999	n/a	ARK	n/a	n/a	18	[0, 0, 0]	-999	PAL1	0	R1036M
2935.173	4.1	1475579	REC_EVENT	0.908	n/a	2	4	CAR	ARK	ARK	CAR	18	[0, 0, 0]	-999	PAL1	0	R1036M
2939.273	0.009	1477629	REC_END	n/a	n/a	2	-999	n/a	n/a	n/a	n/a	18	[0, 0, 0]	-999	PAL1	0	R1036M
2939.282	0.275	1477634	TEST_ORIENT	n/a	n/a	3	5	EAR	n/a	EAR	FLAME	18	[0, 0, 0]	-999	PAL1	0	R1036M
2940.164	4.0	1478075	TEST_PROBE	n/a	wordpools/wordpool_EN.txt	3	5	EAR	n/a	EAR	FLAME	18	[0, 0, 0]	-999	PAL1	0	R1036M
2940.165	0.0	1478075	REC_START	n/a	n/a	3	-999	n/a	n/a	n/a	n/a	18	[0, 0, 0]	-999	PAL1	0	R1036M
2940.165	5.019	1478075	REC_EVENT	0.0	n/a	3	5	EAR	<>	EAR	FLAME	18	[0, 0, 0]	-999	PAL1	0	R1036M
2945.184	0.015	1480585	REC_END	n/a	n/a	3	-999	n/a	n/a	n/a	n/a	18	[0, 0, 0]	-999	PAL1	0	R1036M
2945.199	0.275	1480592	TEST_ORIENT	n/a	n/a	4	6	BOX	TAP	BOX	ROOF	18	[0, 0, 0]	-999	PAL1	0	R1036M
2946.166	4.0	1481076	TEST_PROBE	n/a	wordpools/wordpool_EN.txt	4	6	BOX	TAP	BOX	ROOF	18	[0, 0, 0]	-999	PAL1	0	R1036M
2946.166	1.643	1481076	REC_START	n/a	n/a	4	-999	n/a	TAP	n/a	n/a	18	[0, 0, 0]	-999	PAL1	0	R1036M
2947.809	3.374	1481897	REC_EVENT	1.643	n/a	4	6	BOX	TAP	BOX	ROOF	18	[0, 0, 0]	-999	PAL1	0	R1036M
2951.183	36.352	1483584	REC_END	n/a	n/a	4	-999	n/a	n/a	n/a	n/a	18	[0, 0, 0]	-999	PAL1	0	R1036M
2987.535	10.441	1501759	ENCODING_START	n/a	n/a	0	-999	n/a	n/a	n/a	n/a	19	[0, 0, 0]	-999	PAL1	0	R1036M
2997.976	0.275	1506979	STUDY_ORIENT	n/a	n/a	1	5	MOTH	n/a	NET	MOTH	19	[0, 0, 0]	-999	PAL1	0	R1036M
2998.876	4.0	1507429	STUDY_PAIR	n/a	wordpools/wordpool_EN.txt	1	5	MOTH	n/a	NET	MOTH	19	[0, 0, 0]	-999	PAL1	0	R1036M
3003.894	0.275	1509938	STUDY_ORIENT	n/a	n/a	2	2	SHOE	n/a	BRICK	SHOE	19	[0, 0, 0]	-999	PAL1	0	R1036M
3004.894	4.0	1510438	STUDY_PAIR	n/a	wordpools/wordpool_EN.txt	2	2	SHOE	n/a	BRICK	SHOE	19	[0, 0, 0]	-999	PAL1	0	R1036M
3009.912	0.275	1512947	STUDY_ORIENT	n/a	n/a	3	1	DOG	CONE	RUG	DOG	19	[0, 0, 0]	-999	PAL1	0	R1036M
3010.845	4.0	1513413	STUDY_PAIR	n/a	wordpools/wordpool_EN.txt	3	1	DOG	CONE	RUG	DOG	19	[0, 0, 0]	-999	PAL1	0	R1036M
3015.863	0.275	1515922	STUDY_ORIENT	n/a	n/a	4	6	DART	n/a	DART	CONE	19	[0, 0, 0]	-999	PAL1	0	R1036M
3016.663	4.0	1516322	STUDY_PAIR	n/a	wordpools/wordpool_EN.txt	4	6	DART	n/a	DART	CONE	19	[0, 0, 0]	-999	PAL1	0	R1036M
3021.681	0.275	1518831	STUDY_ORIENT	n/a	n/a	5	3	BALL	n/a	WORM	BALL	19	[0, 0, 0]	-999	PAL1	0	R1036M
3022.548	4.0	1519264	STUDY_PAIR	n/a	wordpools/wordpool_EN.txt	5	3	BALL	n/a	WORM	BALL	19	[0, 0, 0]	-999	PAL1	0	R1036M
3027.582	0.275	1521781	STUDY_ORIENT	n/a	n/a	6	4	ROOM	n/a	RICE	ROOM	19	[0, 0, 0]	-999	PAL1	0	R1036M
3028.483	4.0	1522232	STUDY_PAIR	n/a	wordpools/wordpool_EN.txt	6	4	ROOM	n/a	RICE	ROOM	19	[0, 0, 0]	-999	PAL1	0	R1036M
3032.485	0.999	1524233	START	n/a	n/a	-999	-999	n/a	n/a	n/a	n/a	19	[-999, -999, -999]	-999	PAL1	0	R1036M
3033.484	0.017	1524732	MATH_START	n/a	n/a	-999	-999	n/a	n/a	n/a	n/a	19	[0, 0, 0]	-999	PAL1	0	R1036M
3033.501	19.577	1524741	PROB	19.577	n/a	-999	-999	n/a	n/a	n/a	n/a	19	[9, 8, 7]	26	PAL1	0	R1036M
3053.078	0.009	1534529	STOP	n/a	n/a	-999	-999	n/a	n/a	n/a	n/a	19	[-999, -999, -999]	-999	PAL1	0	R1036M
3053.087	0.0	1534533	MATH_END	n/a	n/a	-999	-999	n/a	n/a	n/a	n/a	19	[0, 0, 0]	-999	PAL1	0	R1036M
3053.087	0.017	1534533	TEST_START	n/a	n/a	-999	-999	n/a	n/a	n/a	n/a	19	[0, 0, 0]	-999	PAL1	0	R1036M
3053.104	0.275	1534542	TEST_ORIENT	n/a	n/a	3	1	DOG	CONE	RUG	DOG	19	[0, 0, 0]	-999	PAL1	0	R1036M
3054.07	4.0	1535025	TEST_PROBE	n/a	wordpools/wordpool_EN.txt	3	1	DOG	CONE	RUG	DOG	19	[0, 0, 0]	-999	PAL1	0	R1036M
3054.071	4.014	1535025	REC_START	n/a	n/a	3	-999	n/a	CONE	n/a	n/a	19	[0, 0, 0]	-999	PAL1	0	R1036M
3058.085	0.994	1537032	REC_EVENT	4.014	n/a	3	1	DOG	CONE	RUG	DOG	19	[0, 0, 0]	-999	PAL1	0	R1036M
3059.079	0.009	1537529	REC_END	n/a	n/a	3	-999	n/a	n/a	n/a	n/a	19	[0, 0, 0]	-999	PAL1	0	R1036M
3059.088	0.275	1537533	TEST_ORIENT	n/a	n/a	2	2	SHOE	n/a	BRICK	SHOE	19	[0, 0, 0]	-999	PAL1	0	R1036M
3059.888	4.0	1537933	TEST_PROBE	n/a	wordpools/wordpool_EN.txt	2	2	SHOE	n/a	BRICK	SHOE	19	[0, 0, 0]	-999	PAL1	0	R1036M
3059.889	1.068	1537934	REC_START	n/a	n/a	2	-999	n/a	n/a	n/a	n/a	19	[0, 0, 0]	-999	PAL1	0	R1036M
3060.957	3.94	1538468	REC_EVENT	1.068	n/a	2	2	SHOE	<>	BRICK	SHOE	19	[0, 0, 0]	-999	PAL1	0	R1036M
3064.897	0.009	1540438	REC_END	n/a	n/a	2	-999	n/a	n/a	n/a	n/a	19	[0, 0, 0]	-999	PAL1	0	R1036M
3064.906	0.275	1540442	TEST_ORIENT	n/a	n/a	5	3	BALL	n/a	WORM	BALL	19	[0, 0, 0]	-999	PAL1	0	R1036M
3065.889	4.0	1540934	TEST_PROBE	n/a	wordpools/wordpool_EN.txt	5	3	BALL	n/a	WORM	BALL	19	[0, 0, 0]	-999	PAL1	0	R1036M
3065.89	0.0	1540934	REC_START	n/a	n/a	5	-999	n/a	n/a	n/a	n/a	19	[0, 0, 0]	-999	PAL1	0	R1036M
3065.89	5.008	1540934	REC_EVENT	0.0	n/a	5	3	BALL	<>	WORM	BALL	19	[0, 0, 0]	-999	PAL1	0	R1036M
3070.898	0.009	1543438	REC_END	n/a	n/a	5	-999	n/a	n/a	n/a	n/a	19	[0, 0, 0]	-999	PAL1	0	R1036M
3070.907	0.275	1543443	TEST_ORIENT	n/a	n/a	6	4	ROOM	n/a	RICE	ROOM	19	[0, 0, 0]	-999	PAL1	0	R1036M
3071.857	4.0	1543918	TEST_PROBE	n/a	wordpools/wordpool_EN.txt	6	4	ROOM	n/a	RICE	ROOM	19	[0, 0, 0]	-999	PAL1	0	R1036M
3071.858	0.0	1543918	REC_EVENT	0.0	n/a	6	4	ROOM	<>	RICE	ROOM	19	[0, 0, 0]	-999	PAL1	0	R1036M
3071.858	5.008	1543918	REC_START	n/a	n/a	6	-999	n/a	n/a	n/a	n/a	19	[0, 0, 0]	-999	PAL1	0	R1036M
3076.866	0.009	1546422	REC_END	n/a	n/a	6	-999	n/a	n/a	n/a	n/a	19	[0, 0, 0]	-999	PAL1	0	R1036M
3076.875	0.275	1546426	TEST_ORIENT	n/a	n/a	1	5	MOTH	n/a	NET	MOTH	19	[0, 0, 0]	-999	PAL1	0	R1036M
3077.675	4.0	1546826	TEST_PROBE	n/a	wordpools/wordpool_EN.txt	1	5	MOTH	n/a	NET	MOTH	19	[0, 0, 0]	-999	PAL1	0	R1036M
3077.676	0.0	1546827	REC_START	n/a	n/a	1	-999	n/a	n/a	n/a	n/a	19	[0, 0, 0]	-999	PAL1	0	R1036M
3077.676	5.008	1546827	REC_EVENT	0.0	n/a	1	5	MOTH	<>	NET	MOTH	19	[0, 0, 0]	-999	PAL1	0	R1036M
3082.684	0.009	1549331	REC_END	n/a	n/a	1	-999	n/a	n/a	n/a	n/a	19	[0, 0, 0]	-999	PAL1	0	R1036M
3082.693	0.275	1549335	TEST_ORIENT	n/a	n/a	4	6	DART	n/a	DART	CONE	19	[0, 0, 0]	-999	PAL1	0	R1036M
3083.494	4.0	1549736	TEST_PROBE	n/a	wordpools/wordpool_EN.txt	4	6	DART	n/a	DART	CONE	19	[0, 0, 0]	-999	PAL1	0	R1036M
3083.495	0.0	1549736	REC_START	n/a	n/a	4	-999	n/a	n/a	n/a	n/a	19	[0, 0, 0]	-999	PAL1	0	R1036M
3083.495	5.008	1549736	REC_EVENT	0.0	n/a	4	6	DART	<>	DART	CONE	19	[0, 0, 0]	-999	PAL1	0	R1036M
3088.503	31.824	1552240	REC_END	n/a	n/a	4	-999	n/a	n/a	n/a	n/a	19	[0, 0, 0]	-999	PAL1	0	R1036M
3120.327	10.442	1568151	ENCODING_START	n/a	n/a	0	-999	n/a	n/a	n/a	n/a	20	[0, 0, 0]	-999	PAL1	0	R1036M
3130.769	0.275	1573372	STUDY_ORIENT	n/a	n/a	1	5	FUR	DOG	FUR	PEARL	20	[0, 0, 0]	-999	PAL1	0	R1036M
3131.736	4.0	1573855	STUDY_PAIR	n/a	wordpools/wordpool_EN.txt	1	5	FUR	DOG	FUR	PEARL	20	[0, 0, 0]	-999	PAL1	0	R1036M
3136.754	0.275	1576364	STUDY_ORIENT	n/a	n/a	2	2	SMOKE	SNAIL	BEAK	SMOKE	20	[0, 0, 0]	-999	PAL1	0	R1036M
3137.604	4.0	1576789	STUDY_PAIR	n/a	wordpools/wordpool_EN.txt	2	2	SMOKE	SNAIL	BEAK	SMOKE	20	[0, 0, 0]	-999	PAL1	0	R1036M
3142.638	0.275	1579306	STUDY_ORIENT	n/a	n/a	3	3	BEACH	n/a	BEACH	DESK	20	[0, 0, 0]	-999	PAL1	0	R1036M
3143.655	4.0	1579815	STUDY_PAIR	n/a	wordpools/wordpool_EN.txt	3	3	BEACH	n/a	BEACH	DESK	20	[0, 0, 0]	-999	PAL1	0	R1036M
3148.673	0.275	1582323	STUDY_ORIENT	n/a	n/a	4	6	ANT	FARM	SLEEVE	ANT	20	[0, 0, 0]	-999	PAL1	0	R1036M
3149.457	4.0	1582715	STUDY_PAIR	n/a	wordpools/wordpool_EN.txt	4	6	ANT	FARM	SLEEVE	ANT	20	[0, 0, 0]	-999	PAL1	0	R1036M
3154.475	0.275	1585224	STUDY_ORIENT	n/a	n/a	5	1	RAKE	WOOD	RAKE	WOOD	20	[0, 0, 0]	-999	PAL1	0	R1036M
3155.342	4.0	1585658	STUDY_PAIR	n/a	wordpools/wordpool_EN.txt	5	1	RAKE	WOOD	RAKE	WOOD	20	[0, 0, 0]	-999	PAL1	0	R1036M
3160.376	0.275	1588175	STUDY_ORIENT	n/a	n/a	6	4	NAIL	ROOF	STORM	NAIL	20	[0, 0, 0]	-999	PAL1	0	R1036M
3161.243	4.0	1588608	STUDY_PAIR	n/a	wordpools/wordpool_EN.txt	6	4	NAIL	ROOF	STORM	NAIL	20	[0, 0, 0]	-999	PAL1	0	R1036M
3165.261	0.999	1590617	START	n/a	n/a	-999	-999	n/a	n/a	n/a	n/a	20	[-999, -999, -999]	-999	PAL1	0	R1036M
3166.26	0.017	1591116	MATH_START	n/a	n/a	-999	-999	n/a	n/a	n/a	n/a	20	[0, 0, 0]	-999	PAL1	0	R1036M
3166.277	6.284	1591125	PROB	6.265	n/a	-999	-999	n/a	n/a	n/a	n/a	20	[8, 3, 1]	12	PAL1	0	R1036M
3172.561	12.536	1594267	PROB	12.509	n/a	-999	-999	n/a	n/a	n/a	n/a	20	[9, 2, 6]	17	PAL1	0	R1036M
3185.097	4.701	1600534	PROB	4.701	n/a	-999	-999	n/a	n/a	n/a	n/a	20	[2, 1, 1]	4	PAL1	0	R1036M
3189.798	0.016	1602885	STOP	n/a	n/a	-999	-999	n/a	n/a	n/a	n/a	20	[-999, -999, -999]	-999	PAL1	0	R1036M
3189.814	0.0	1602893	TEST_START	n/a	n/a	-999	-999	n/a	n/a	n/a	n/a	20	[0, 0, 0]	-999	PAL1	0	R1036M
