onset	duration	sample	trial_type	response_time	stim_file	serialpos	probepos	probe_word	resp_word	study_1	study_2	list	test	answer	experiment	session	subject
0.0	194.749	114169	INSTRUCT_START	n/a	n/a	-999	-999	n/a	n/a	n/a	n/a	-1	[0, 0, 0]	-999	PAL1	0	R1307N
194.749	0.0	308926	INSTRUCT_END	n/a	n/a	-999	-999	n/a	n/a	n/a	n/a	-1	[0, 0, 0]	-999	PAL1	0	R1307N
194.749	0.0	308926	MIC	n/a	n/a	-999	-999	n/a	n/a	n/a	n/a	-1	[0, 0, 0]	-999	PAL1	0	R1307N
194.749	0.0	308926	MIC	n/a	n/a	-999	-999	n/a	n/a	n/a	n/a	-1	[0, 0, 0]	-999	PAL1	0	R1307N
194.749	0.0	308926	TRIAL_START	n/a	n/a	-999	-999	n/a	n/a	n/a	n/a	-1	[0, 0, 0]	-999	PAL1	0	R1307N
194.749	0.0	308926	TRIAL	n/a	n/a	-999	-999	n/a	n/a	n/a	n/a	-1	[0, 0, 0]	-999	PAL1	0	R1307N
194.749	273.612	308926	WAITING_START	n/a	n/a	-999	-999	n/a	n/a	n/a	n/a	-1	[0, 0, 0]	-999	PAL1	0	R1307N
468.361	0.0	582550	WAITING_END	n/a	n/a	-999	-999	n/a	n/a	n/a	n/a	-1	[0, 0, 0]	-999	PAL1	0	R1307N
468.361	0.0	582550	COUNTDOWN_START	n/a	n/a	-999	-999	n/a	n/a	n/a	n/a	-1	[0, 0, 0]	-999	PAL1	0	R1307N
468.361	0.0	582550	COUNTDOWN_END	n/a	n/a	-999	-999	n/a	n/a	n/a	n/a	-1	[0, 0, 0]	-999	PAL1	0	R1307N
468.361	11.469	582550	ORIENT_START	n/a	n/a	-999	-999	n/a	n/a	n/a	n/a	-1	[0, 0, 0]	-999	PAL1	0	R1307N
479.83	0.0	594019	ENCODING_START	n/a	n/a	-999	-999	n/a	n/a	n/a	n/a	-1	[0, 0, 0]	-999	PAL1	0	R1307N
479.83	0.502	594019	ORIENT_END	n/a	n/a	-999	-999	n/a	n/a	n/a	n/a	-1	[0, 0, 0]	-999	PAL1	0	R1307N
480.332	4.031	594521	STUDY_PAIR	n/a	n/a	1	-999	n/a	n/a	CHEST	CAMEL	-1	[0, 0, 0]	-999	PAL1	0	R1307N
484.363	0.728	598552	STUDY_PAIR_OFF	n/a	n/a	1	-999	n/a	n/a	CHEST	CAMEL	-1	[0, 0, 0]	-999	PAL1	0	R1307N
485.091	4.04	599280	STUDY_PAIR	n/a	n/a	2	-999	n/a	n/a	RHINO	RING	-1	[0, 0, 0]	-999	PAL1	0	R1307N
489.131	0.514	603320	STUDY_PAIR_OFF	n/a	n/a	2	-999	n/a	n/a	RHINO	RING	-1	[0, 0, 0]	-999	PAL1	0	R1307N
489.645	4.037	603834	STUDY_PAIR	n/a	n/a	3	-999	n/a	n/a	IMAGE	COTTON	-1	[0, 0, 0]	-999	PAL1	0	R1307N
493.682	0.604	607872	STUDY_PAIR_OFF	n/a	n/a	3	-999	n/a	n/a	IMAGE	COTTON	-1	[0, 0, 0]	-999	PAL1	0	R1307N
494.286	4.03	608476	STUDY_PAIR	n/a	n/a	4	-999	n/a	n/a	WAGON	WATCH	-1	[0, 0, 0]	-999	PAL1	0	R1307N
498.316	0.611	612506	STUDY_PAIR_OFF	n/a	n/a	4	-999	n/a	n/a	WAGON	WATCH	-1	[0, 0, 0]	-999	PAL1	0	R1307N
498.927	4.039	613117	STUDY_PAIR	n/a	n/a	5	-999	n/a	n/a	TONGUE	FLOOD	-1	[0, 0, 0]	-999	PAL1	0	R1307N
502.966	0.646	617156	STUDY_PAIR_OFF	n/a	n/a	5	-999	n/a	n/a	TONGUE	FLOOD	-1	[0, 0, 0]	-999	PAL1	0	R1307N
503.612	4.022	617802	STUDY_PAIR	n/a	n/a	6	-999	n/a	n/a	BABY	BEAM	-1	[0, 0, 0]	-999	PAL1	0	R1307N
507.634	0.0	621824	ENCODING_END	n/a	n/a	-999	-999	n/a	n/a	n/a	n/a	-1	[0, 0, 0]	-999	PAL1	0	R1307N
507.634	0.0	621824	MATH_START	n/a	n/a	-999	-999	n/a	n/a	n/a	n/a	-1	[0, 0, 0]	-999	PAL1	0	R1307N
507.634	0.001	621824	STUDY_PAIR_OFF	n/a	n/a	6	-999	n/a	n/a	BABY	BEAM	-1	[0, 0, 0]	-999	PAL1	0	R1307N
507.635	0.016	621825	START	n/a	n/a	-999	-999	n/a	n/a	n/a	n/a	-1	[-999, -999, -999]	-999	PAL1	0	R1307N
507.651	11.018	621841	PROB	10990	n/a	-999	-999	n/a	n/a	n/a	n/a	-1	[5, 1, 7]	13	PAL1	0	R1307N
518.669	4.367	632860	PROB	4341	n/a	-999	-999	n/a	n/a	n/a	n/a	-1	[6, 9, 1]	16	PAL1	0	R1307N
523.036	4.268	637227	PROB	4245	n/a	-999	-999	n/a	n/a	n/a	n/a	-1	[1, 7, 9]	17	PAL1	0	R1307N
527.304	9.433	641495	PROB	9433	n/a	-999	-999	n/a	n/a	n/a	n/a	-1	[4, 5, 4]	13	PAL1	0	R1307N
536.737	0.018	650928	STOP	n/a	n/a	-999	-999	n/a	n/a	n/a	n/a	-1	[-999, -999, -999]	-999	PAL1	0	R1307N
536.755	0.617	650946	MATH_END	n/a	n/a	-999	-999	n/a	n/a	n/a	n/a	-1	[0, 0, 0]	-999	PAL1	0	R1307N
537.372	0.0	651563	RETRIEVAL_START	n/a	n/a	-999	-999	n/a	n/a	n/a	n/a	-1	[0, 0, 0]	-999	PAL1	0	R1307N
537.372	0.284	651563	ORIENT_START	n/a	n/a	-999	-999	n/a	n/a	n/a	n/a	-1	[0, 0, 0]	-999	PAL1	0	R1307N
537.656	0.662	651847	ORIENT_END	n/a	n/a	-999	-999	n/a	n/a	n/a	n/a	-1	[0, 0, 0]	-999	PAL1	0	R1307N
538.318	0.0	652509	REC_START	n/a	n/a	5	1	TONGUE	n/a	TONGUE	FLOOD	-1	[0, 0, 0]	-999	PAL1	0	R1307N
538.318	4.038	652509	PROBE_START	n/a	n/a	5	1	TONGUE	n/a	TONGUE	FLOOD	-1	[0, 0, 0]	-999	PAL1	0	R1307N
542.356	1.0	656548	PROBE_END	n/a	n/a	5	1	TONGUE	n/a	TONGUE	FLOOD	-1	[0, 0, 0]	-999	PAL1	0	R1307N
543.356	0.0	657548	REC_END	n/a	n/a	5	1	TONGUE	n/a	TONGUE	FLOOD	-1	[0, 0, 0]	-999	PAL1	0	R1307N
543.356	0.284	657548	ORIENT_START	n/a	n/a	-999	-999	n/a	n/a	n/a	n/a	-1	[0, 0, 0]	-999	PAL1	0	R1307N
543.64	0.657	657832	ORIENT_END	n/a	n/a	-999	-999	n/a	n/a	n/a	n/a	-1	[0, 0, 0]	-999	PAL1	0	R1307N
544.297	0.047	658489	REC_EVENT	5979	n/a	5	1	TONGUE	<>	TONGUE	FLOOD	-1	[0, 0, 0]	-999	PAL1	0	R1307N
544.344	0.0	658536	PROBE_START	n/a	n/a	2	2	RING	n/a	RHINO	RING	-1	[0, 0, 0]	-999	PAL1	0	R1307N
544.344	4.03	658536	REC_START	n/a	n/a	2	2	RING	n/a	RHINO	RING	-1	[0, 0, 0]	-999	PAL1	0	R1307N
548.374	0.818	662566	PROBE_END	n/a	n/a	2	2	RING	n/a	RHINO	RING	-1	[0, 0, 0]	-999	PAL1	0	R1307N
549.192	0.182	663384	REC_EVENT	4848	n/a	2	2	RING	<>	RHINO	RING	-1	[0, 0, 0]	-999	PAL1	0	R1307N
549.374	0.0	663566	REC_END	n/a	n/a	2	2	RING	n/a	RHINO	RING	-1	[0, 0, 0]	-999	PAL1	0	R1307N
549.374	0.3	663566	ORIENT_START	n/a	n/a	-999	-999	n/a	n/a	n/a	n/a	-1	[0, 0, 0]	-999	PAL1	0	R1307N
549.674	0.631	663866	ORIENT_END	n/a	n/a	-999	-999	n/a	n/a	n/a	n/a	-1	[0, 0, 0]	-999	PAL1	0	R1307N
550.305	0.0	664497	REC_START	n/a	n/a	3	3	COTTON	n/a	IMAGE	COTTON	-1	[0, 0, 0]	-999	PAL1	0	R1307N
550.305	2.859	664497	PROBE_START	n/a	n/a	3	3	COTTON	n/a	IMAGE	COTTON	-1	[0, 0, 0]	-999	PAL1	0	R1307N
553.164	1.178	667356	REC_EVENT	2859	n/a	3	3	COTTON	<>	IMAGE	COTTON	-1	[0, 0, 0]	-999	PAL1	0	R1307N
554.342	1.0	668534	PROBE_END	n/a	n/a	3	3	COTTON	n/a	IMAGE	COTTON	-1	[0, 0, 0]	-999	PAL1	0	R1307N
555.342	0.0	669534	REC_END	n/a	n/a	3	3	COTTON	n/a	IMAGE	COTTON	-1	[0, 0, 0]	-999	PAL1	0	R1307N
555.342	0.283	669534	ORIENT_START	n/a	n/a	-999	-999	n/a	n/a	n/a	n/a	-1	[0, 0, 0]	-999	PAL1	0	R1307N
555.625	0.721	669817	ORIENT_END	n/a	n/a	-999	-999	n/a	n/a	n/a	n/a	-1	[0, 0, 0]	-999	PAL1	0	R1307N
556.346	0.0	670538	REC_START	n/a	n/a	6	4	BABY	n/a	BABY	BEAM	-1	[0, 0, 0]	-999	PAL1	0	R1307N
556.346	4.03	670538	PROBE_START	n/a	n/a	6	4	BABY	n/a	BABY	BEAM	-1	[0, 0, 0]	-999	PAL1	0	R1307N
560.376	1.0	674568	PROBE_END	n/a	n/a	6	4	BABY	n/a	BABY	BEAM	-1	[0, 0, 0]	-999	PAL1	0	R1307N
561.376	0.0	675568	REC_END	n/a	n/a	6	4	BABY	n/a	BABY	BEAM	-1	[0, 0, 0]	-999	PAL1	0	R1307N
561.376	0.284	675568	ORIENT_START	n/a	n/a	-999	-999	n/a	n/a	n/a	n/a	-1	[0, 0, 0]	-999	PAL1	0	R1307N
561.66	0.683	675852	ORIENT_END	n/a	n/a	-999	-999	n/a	n/a	n/a	n/a	-1	[0, 0, 0]	-999	PAL1	0	R1307N
562.343	0.0	676535	REC_START	n/a	n/a	1	5	CAMEL	n/a	CHEST	CAMEL	-1	[0, 0, 0]	-999	PAL1	0	R1307N
562.343	0.022	676535	PROBE_START	n/a	n/a	1	5	CAMEL	n/a	CHEST	CAMEL	-1	[0, 0, 0]	-999	PAL1	0	R1307N
562.365	4.012	676557	REC_EVENT	6019	n/a	6	4	BABY	<>	BABY	BEAM	-1	[0, 0, 0]	-999	PAL1	0	R1307N
566.377	1.0	680570	PROBE_END	n/a	n/a	1	5	CAMEL	n/a	CHEST	CAMEL	-1	[0, 0, 0]	-999	PAL1	0	R1307N
567.377	0.0	681570	ORIENT_START	n/a	n/a	-999	-999	n/a	n/a	n/a	n/a	-1	[0, 0, 0]	-999	PAL1	0	R1307N
567.377	0.284	681570	REC_END	n/a	n/a	1	5	CAMEL	n/a	CHEST	CAMEL	-1	[0, 0, 0]	-999	PAL1	0	R1307N
567.661	0.62	681854	ORIENT_END	n/a	n/a	-999	-999	n/a	n/a	n/a	n/a	-1	[0, 0, 0]	-999	PAL1	0	R1307N
568.281	0.0	682474	REC_START	n/a	n/a	4	6	WAGON	n/a	WAGON	WATCH	-1	[0, 0, 0]	-999	PAL1	0	R1307N
568.281	0.046	682474	PROBE_START	n/a	n/a	4	6	WAGON	n/a	WAGON	WATCH	-1	[0, 0, 0]	-999	PAL1	0	R1307N
568.327	3.984	682520	REC_EVENT	5984	n/a	1	5	CAMEL	<>	CHEST	CAMEL	-1	[0, 0, 0]	-999	PAL1	0	R1307N
572.311	1.0	686504	PROBE_END	n/a	n/a	4	6	WAGON	n/a	WAGON	WATCH	-1	[0, 0, 0]	-999	PAL1	0	R1307N
573.311	0.0	687504	PRACTICE_POST_INSTRUCT_START	n/a	n/a	-999	-999	n/a	n/a	n/a	n/a	-1	[0, 0, 0]	-999	PAL1	0	R1307N
573.311	0.0	687504	REC_END	n/a	n/a	4	6	WAGON	n/a	WAGON	WATCH	-1	[0, 0, 0]	-999	PAL1	0	R1307N
573.311	0.891	687504	RETRIEVAL_END	n/a	n/a	-999	-999	n/a	n/a	n/a	n/a	-1	[0, 0, 0]	-999	PAL1	0	R1307N
574.202	31.832	688395	REC_EVENT	5921	n/a	4	6	WAGON	<>	WAGON	WATCH	-1	[0, 0, 0]	-999	PAL1	0	R1307N
606.034	0.0	720228	PRACTICE_POST_INSTRUCT_END	n/a	n/a	-999	-999	n/a	n/a	n/a	n/a	-1	[0, 0, 0]	-999	PAL1	0	R1307N
606.034	0.0	720228	TRIAL_END	n/a	n/a	-999	-999	n/a	n/a	n/a	n/a	-1	[0, 0, 0]	-999	PAL1	0	R1307N
606.034	0.0	720228	TRIAL_START	n/a	n/a	-999	-999	n/a	n/a	n/a	n/a	-1	[0, 0, 0]	-999	PAL1	0	R1307N
606.034	0.0	720228	TRIAL	n/a	n/a	-999	-999	n/a	n/a	n/a	n/a	1	[0, 0, 0]	-999	PAL1	0	R1307N
606.034	7.418	720228	WAITING_START	n/a	n/a	-999	-999	n/a	n/a	n/a	n/a	1	[0, 0, 0]	-999	PAL1	0	R1307N
613.452	0.0	727647	WAITING_END	n/a	n/a	-999	-999	n/a	n/a	n/a	n/a	1	[0, 0, 0]	-999	PAL1	0	R1307N
613.452	0.0	727647	COUNTDOWN_START	n/a	n/a	-999	-999	n/a	n/a	n/a	n/a	1	[0, 0, 0]	-999	PAL1	0	R1307N
613.452	0.0	727647	COUNTDOWN_END	n/a	n/a	-999	-999	n/a	n/a	n/a	n/a	1	[0, 0, 0]	-999	PAL1	0	R1307N
613.452	11.602	727647	ORIENT_START	n/a	n/a	-999	-999	n/a	n/a	n/a	n/a	1	[0, 0, 0]	-999	PAL1	0	R1307N
625.054	0.0	739249	ENCODING_START	n/a	n/a	-999	-999	n/a	n/a	n/a	n/a	1	[0, 0, 0]	-999	PAL1	0	R1307N
625.054	0.531	739249	ORIENT_END	n/a	n/a	-999	-999	n/a	n/a	n/a	n/a	1	[0, 0, 0]	-999	PAL1	0	R1307N
625.585	4.036	739780	STUDY_PAIR	n/a	wordpools/wordpool_EN.txt	1	-999	n/a	n/a	EGG	SNOW	1	[0, 0, 0]	-999	PAL1	0	R1307N
629.621	0.607	743816	STUDY_PAIR_OFF	n/a	n/a	1	-999	n/a	n/a	EGG	SNOW	1	[0, 0, 0]	-999	PAL1	0	R1307N
630.228	4.026	744423	STUDY_PAIR	n/a	wordpools/wordpool_EN.txt	2	-999	n/a	n/a	RUG	INK	1	[0, 0, 0]	-999	PAL1	0	R1307N
634.254	0.536	748449	STUDY_PAIR_OFF	n/a	n/a	2	-999	n/a	n/a	RUG	INK	1	[0, 0, 0]	-999	PAL1	0	R1307N
634.79	4.032	748985	STUDY_PAIR	n/a	wordpools/wordpool_EN.txt	3	-999	n/a	n/a	NOSE	CLOTH	1	[0, 0, 0]	-999	PAL1	0	R1307N
638.822	0.658	753018	STUDY_PAIR_OFF	n/a	n/a	3	-999	n/a	n/a	NOSE	CLOTH	1	[0, 0, 0]	-999	PAL1	0	R1307N
639.48	4.026	753676	STUDY_PAIR	n/a	wordpools/wordpool_EN.txt	4	-999	n/a	n/a	STRAW	SLEEVE	1	[0, 0, 0]	-999	PAL1	0	R1307N
643.506	0.663	757702	STUDY_PAIR_OFF	n/a	n/a	4	-999	n/a	n/a	STRAW	SLEEVE	1	[0, 0, 0]	-999	PAL1	0	R1307N
644.169	4.038	758365	STUDY_PAIR	n/a	wordpools/wordpool_EN.txt	5	-999	n/a	n/a	MOON	SWORD	1	[0, 0, 0]	-999	PAL1	0	R1307N
648.207	0.672	762403	STUDY_PAIR_OFF	n/a	n/a	5	-999	n/a	n/a	MOON	SWORD	1	[0, 0, 0]	-999	PAL1	0	R1307N
648.879	4.029	763075	STUDY_PAIR	n/a	wordpools/wordpool_EN.txt	6	-999	n/a	n/a	CHALK	SEA	1	[0, 0, 0]	-999	PAL1	0	R1307N
652.908	0.0	767104	MATH_START	n/a	n/a	-999	-999	n/a	n/a	n/a	n/a	1	[0, 0, 0]	-999	PAL1	0	R1307N
652.908	0.0	767104	ENCODING_END	n/a	n/a	-999	-999	n/a	n/a	n/a	n/a	1	[0, 0, 0]	-999	PAL1	0	R1307N
652.908	0.001	767104	STUDY_PAIR_OFF	n/a	n/a	6	-999	n/a	n/a	CHALK	SEA	1	[0, 0, 0]	-999	PAL1	0	R1307N
652.909	0.016	767105	START	n/a	n/a	-999	-999	n/a	n/a	n/a	n/a	1	[-999, -999, -999]	-999	PAL1	0	R1307N
652.925	5.251	767121	PROB	5228	n/a	-999	-999	n/a	n/a	n/a	n/a	1	[6, 4, 3]	13	PAL1	0	R1307N
658.176	3.5	772372	PROB	3465	n/a	-999	-999	n/a	n/a	n/a	n/a	1	[2, 2, 2]	6	PAL1	0	R1307N
661.676	4.768	775873	PROB	4733	n/a	-999	-999	n/a	n/a	n/a	n/a	1	[5, 4, 6]	15	PAL1	0	R1307N
666.444	7.389	780641	PROB	7389	n/a	-999	-999	n/a	n/a	n/a	n/a	1	[4, 9, 8]	21	PAL1	0	R1307N
673.833	0.012	788030	STOP	n/a	n/a	-999	-999	n/a	n/a	n/a	n/a	1	[-999, -999, -999]	-999	PAL1	0	R1307N
673.845	0.602	788042	MATH_END	n/a	n/a	-999	-999	n/a	n/a	n/a	n/a	1	[0, 0, 0]	-999	PAL1	0	R1307N
674.447	0.0	788644	RETRIEVAL_START	n/a	n/a	-999	-999	n/a	n/a	n/a	n/a	1	[0, 0, 0]	-999	PAL1	0	R1307N
674.447	0.281	788644	ORIENT_START	n/a	n/a	-999	-999	n/a	n/a	n/a	n/a	1	[0, 0, 0]	-999	PAL1	0	R1307N
674.728	0.575	788925	ORIENT_END	n/a	n/a	-999	-999	n/a	n/a	n/a	n/a	1	[0, 0, 0]	-999	PAL1	0	R1307N
675.303	0.0	789500	REC_START	n/a	n/a	3	1	NOSE	n/a	NOSE	CLOTH	1	[0, 0, 0]	-999	PAL1	0	R1307N
675.303	4.026	789500	PROBE_START	n/a	wordpools/wordpool_EN.txt	3	1	NOSE	n/a	NOSE	CLOTH	1	[0, 0, 0]	-999	PAL1	0	R1307N
679.329	1.0	793526	PROBE_END	n/a	n/a	3	1	NOSE	n/a	NOSE	CLOTH	1	[0, 0, 0]	-999	PAL1	0	R1307N
680.329	0.0	794526	REC_END	n/a	n/a	3	1	NOSE	n/a	NOSE	CLOTH	1	[0, 0, 0]	-999	PAL1	0	R1307N
680.329	0.3	794526	ORIENT_START	n/a	n/a	-999	-999	n/a	n/a	n/a	n/a	1	[0, 0, 0]	-999	PAL1	0	R1307N
680.629	0.554	794826	ORIENT_END	n/a	n/a	-999	-999	n/a	n/a	n/a	n/a	1	[0, 0, 0]	-999	PAL1	0	R1307N
681.183	0.178	795380	REC_EVENT	5880	n/a	3	1	NOSE	<>	NOSE	CLOTH	1	[0, 0, 0]	-999	PAL1	0	R1307N
681.361	0.0	795558	REC_START	n/a	n/a	4	2	STRAW	n/a	STRAW	SLEEVE	1	[0, 0, 0]	-999	PAL1	0	R1307N
681.361	4.036	795558	PROBE_START	n/a	wordpools/wordpool_EN.txt	4	2	STRAW	n/a	STRAW	SLEEVE	1	[0, 0, 0]	-999	PAL1	0	R1307N
685.397	1.0	799595	PROBE_END	n/a	n/a	4	2	STRAW	n/a	STRAW	SLEEVE	1	[0, 0, 0]	-999	PAL1	0	R1307N
686.397	0.0	800595	REC_END	n/a	n/a	4	2	STRAW	n/a	STRAW	SLEEVE	1	[0, 0, 0]	-999	PAL1	0	R1307N
686.397	0.283	800595	ORIENT_START	n/a	n/a	-999	-999	n/a	n/a	n/a	n/a	1	[0, 0, 0]	-999	PAL1	0	R1307N
686.68	0.607	800878	ORIENT_END	n/a	n/a	-999	-999	n/a	n/a	n/a	n/a	1	[0, 0, 0]	-999	PAL1	0	R1307N
687.287	0.0	801485	REC_START	n/a	n/a	1	3	SNOW	n/a	EGG	SNOW	1	[0, 0, 0]	-999	PAL1	0	R1307N
687.287	0.128	801485	PROBE_START	n/a	wordpools/wordpool_EN.txt	1	3	SNOW	n/a	EGG	SNOW	1	[0, 0, 0]	-999	PAL1	0	R1307N
687.415	3.899	801613	REC_EVENT	6054	n/a	4	2	STRAW	<>	STRAW	SLEEVE	1	[0, 0, 0]	-999	PAL1	0	R1307N
691.314	1.0	805512	PROBE_END	n/a	n/a	1	3	SNOW	n/a	EGG	SNOW	1	[0, 0, 0]	-999	PAL1	0	R1307N
692.314	0.0	806512	REC_END	n/a	n/a	1	3	SNOW	n/a	EGG	SNOW	1	[0, 0, 0]	-999	PAL1	0	R1307N
692.314	0.284	806512	ORIENT_START	n/a	n/a	-999	-999	n/a	n/a	n/a	n/a	1	[0, 0, 0]	-999	PAL1	0	R1307N
692.598	0.598	806796	ORIENT_END	n/a	n/a	-999	-999	n/a	n/a	n/a	n/a	1	[0, 0, 0]	-999	PAL1	0	R1307N
693.196	0.068	807394	REC_EVENT	5909	n/a	1	3	SNOW	<>	EGG	SNOW	1	[0, 0, 0]	-999	PAL1	0	R1307N
693.264	0.0	807462	REC_START	n/a	n/a	6	4	SEA	n/a	CHALK	SEA	1	[0, 0, 0]	-999	PAL1	0	R1307N
693.264	4.035	807462	PROBE_START	n/a	wordpools/wordpool_EN.txt	6	4	SEA	n/a	CHALK	SEA	1	[0, 0, 0]	-999	PAL1	0	R1307N
697.299	1.0	811497	PROBE_END	n/a	n/a	6	4	SEA	n/a	CHALK	SEA	1	[0, 0, 0]	-999	PAL1	0	R1307N
698.299	0.0	812497	REC_END	n/a	n/a	6	4	SEA	n/a	CHALK	SEA	1	[0, 0, 0]	-999	PAL1	0	R1307N
698.299	0.283	812497	ORIENT_START	n/a	n/a	-999	-999	n/a	n/a	n/a	n/a	1	[0, 0, 0]	-999	PAL1	0	R1307N
698.582	0.5	812780	ORIENT_END	n/a	n/a	-999	-999	n/a	n/a	n/a	n/a	1	[0, 0, 0]	-999	PAL1	0	R1307N
699.082	0.0	813280	PROBE_START	n/a	wordpools/wordpool_EN.txt	5	5	MOON	n/a	MOON	SWORD	1	[0, 0, 0]	-999	PAL1	0	R1307N
699.082	0.155	813280	REC_START	n/a	n/a	5	5	MOON	n/a	MOON	SWORD	1	[0, 0, 0]	-999	PAL1	0	R1307N
699.237	3.879	813435	REC_EVENT	5973	n/a	6	4	SEA	<>	CHALK	SEA	1	[0, 0, 0]	-999	PAL1	0	R1307N
703.116	1.0	817314	PROBE_END	n/a	n/a	5	5	MOON	n/a	MOON	SWORD	1	[0, 0, 0]	-999	PAL1	0	R1307N
704.116	0.0	818314	REC_END	n/a	n/a	5	5	MOON	n/a	MOON	SWORD	1	[0, 0, 0]	-999	PAL1	0	R1307N
704.116	0.284	818314	ORIENT_START	n/a	n/a	-999	-999	n/a	n/a	n/a	n/a	1	[0, 0, 0]	-999	PAL1	0	R1307N
704.4	0.492	818598	ORIENT_END	n/a	n/a	-999	-999	n/a	n/a	n/a	n/a	1	[0, 0, 0]	-999	PAL1	0	R1307N
704.892	0.083	819090	REC_EVENT	5810	n/a	5	5	MOON	<>	MOON	SWORD	1	[0, 0, 0]	-999	PAL1	0	R1307N
704.975	0.0	819173	REC_START	n/a	n/a	2	6	INK	n/a	RUG	INK	1	[0, 0, 0]	-999	PAL1	0	R1307N
704.975	4.026	819173	PROBE_START	n/a	wordpools/wordpool_EN.txt	2	6	INK	n/a	RUG	INK	1	[0, 0, 0]	-999	PAL1	0	R1307N
709.001	1.0	823200	PROBE_END	n/a	n/a	2	6	INK	n/a	RUG	INK	1	[0, 0, 0]	-999	PAL1	0	R1307N
710.001	0.0	824200	REC_END	n/a	n/a	2	6	INK	n/a	RUG	INK	1	[0, 0, 0]	-999	PAL1	0	R1307N
710.001	0.0	824200	RETRIEVAL_END	n/a	n/a	-999	-999	n/a	n/a	n/a	n/a	1	[0, 0, 0]	-999	PAL1	0	R1307N
710.001	0.0	824200	TRIAL_END	n/a	n/a	-999	-999	n/a	n/a	n/a	n/a	1	[0, 0, 0]	-999	PAL1	0	R1307N
710.001	0.0	824200	TRIAL_START	n/a	n/a	-999	-999	n/a	n/a	n/a	n/a	1	[0, 0, 0]	-999	PAL1	0	R1307N
710.001	0.0	824200	TRIAL	n/a	n/a	-999	-999	n/a	n/a	n/a	n/a	2	[0, 0, 0]	-999	PAL1	0	R1307N
710.001	0.848	824200	WAITING_START	n/a	n/a	-999	-999	n/a	n/a	n/a	n/a	2	[0, 0, 0]	-999	PAL1	0	R1307N
710.849	24.388	825048	REC_EVENT	5874	n/a	2	6	INK	<>	RUG	INK	1	[0, 0, 0]	-999	PAL1	0	R1307N
735.237	0.0	849437	WAITING_END	n/a	n/a	-999	-999	n/a	n/a	n/a	n/a	2	[0, 0, 0]	-999	PAL1	0	R1307N
735.237	0.0	849437	COUNTDOWN_START	n/a	n/a	-999	-999	n/a	n/a	n/a	n/a	2	[0, 0, 0]	-999	PAL1	0	R1307N
735.237	0.0	849437	COUNTDOWN_END	n/a	n/a	-999	-999	n/a	n/a	n/a	n/a	2	[0, 0, 0]	-999	PAL1	0	R1307N
735.237	11.637	849437	ORIENT_START	n/a	n/a	-999	-999	n/a	n/a	n/a	n/a	2	[0, 0, 0]	-999	PAL1	0	R1307N
746.874	0.0	861074	ORIENT_END	n/a	n/a	-999	-999	n/a	n/a	n/a	n/a	2	[0, 0, 0]	-999	PAL1	0	R1307N
746.874	0.537	861074	ENCODING_START	n/a	n/a	-999	-999	n/a	n/a	n/a	n/a	2	[0, 0, 0]	-999	PAL1	0	R1307N
747.411	4.03	861611	STUDY_PAIR	n/a	wordpools/wordpool_EN.txt	1	-999	n/a	n/a	BREAD	KITE	2	[0, 0, 0]	-999	PAL1	0	R1307N
751.441	0.674	865641	STUDY_PAIR_OFF	n/a	n/a	1	-999	n/a	n/a	BREAD	KITE	2	[0, 0, 0]	-999	PAL1	0	R1307N
752.115	4.027	866315	STUDY_PAIR	n/a	wordpools/wordpool_EN.txt	2	-999	n/a	n/a	STEM	SWAMP	2	[0, 0, 0]	-999	PAL1	0	R1307N
756.142	0.683	870342	STUDY_PAIR_OFF	n/a	n/a	2	-999	n/a	n/a	STEM	SWAMP	2	[0, 0, 0]	-999	PAL1	0	R1307N
756.825	4.034	871026	STUDY_PAIR	n/a	wordpools/wordpool_EN.txt	3	-999	n/a	FLAG	ROAD	GOLD	2	[0, 0, 0]	-999	PAL1	0	R1307N
760.859	0.7	875060	STUDY_PAIR_OFF	n/a	n/a	3	-999	n/a	FLAG	ROAD	GOLD	2	[0, 0, 0]	-999	PAL1	0	R1307N
761.559	4.034	875760	STUDY_PAIR	n/a	wordpools/wordpool_EN.txt	4	-999	n/a	n/a	HEN	CROW	2	[0, 0, 0]	-999	PAL1	0	R1307N
765.593	0.713	879794	STUDY_PAIR_OFF	n/a	n/a	4	-999	n/a	n/a	HEN	CROW	2	[0, 0, 0]	-999	PAL1	0	R1307N
766.306	4.038	880507	STUDY_PAIR	n/a	wordpools/wordpool_EN.txt	5	-999	n/a	n/a	JAIL	PEAR	2	[0, 0, 0]	-999	PAL1	0	R1307N
770.344	0.615	884545	STUDY_PAIR_OFF	n/a	n/a	5	-999	n/a	n/a	JAIL	PEAR	2	[0, 0, 0]	-999	PAL1	0	R1307N
770.959	4.036	885160	STUDY_PAIR	n/a	wordpools/wordpool_EN.txt	6	-999	n/a	n/a	WAND	GRASS	2	[0, 0, 0]	-999	PAL1	0	R1307N
774.995	0.0	889196	STUDY_PAIR_OFF	n/a	n/a	6	-999	n/a	n/a	WAND	GRASS	2	[0, 0, 0]	-999	PAL1	0	R1307N
774.995	0.0	889196	ENCODING_END	n/a	n/a	-999	-999	n/a	n/a	n/a	n/a	2	[0, 0, 0]	-999	PAL1	0	R1307N
774.995	0.001	889196	MATH_START	n/a	n/a	-999	-999	n/a	n/a	n/a	n/a	2	[0, 0, 0]	-999	PAL1	0	R1307N
774.996	0.016	889197	START	n/a	n/a	-999	-999	n/a	n/a	n/a	n/a	2	[-999, -999, -999]	-999	PAL1	0	R1307N
775.012	6.967	889213	PROB	6941	n/a	-999	-999	n/a	n/a	n/a	n/a	2	[3, 2, 5]	10	PAL1	0	R1307N
781.979	8.052	896181	PROB	8014	n/a	-999	-999	n/a	n/a	n/a	n/a	2	[2, 5, 3]	10	PAL1	0	R1307N
790.031	7.027	904233	PROB	7027	n/a	-999	-999	n/a	n/a	n/a	n/a	2	[4, 4, 5]	13	PAL1	0	R1307N
797.058	0.007	911260	STOP	n/a	n/a	-999	-999	n/a	n/a	n/a	n/a	2	[-999, -999, -999]	-999	PAL1	0	R1307N
797.065	0.591	911267	MATH_END	n/a	n/a	-999	-999	n/a	n/a	n/a	n/a	2	[0, 0, 0]	-999	PAL1	0	R1307N
797.656	0.0	911858	ORIENT_START	n/a	n/a	-999	-999	n/a	n/a	n/a	n/a	2	[0, 0, 0]	-999	PAL1	0	R1307N
797.656	0.276	911858	RETRIEVAL_START	n/a	n/a	-999	-999	n/a	n/a	n/a	n/a	2	[0, 0, 0]	-999	PAL1	0	R1307N
797.932	0.598	912134	ORIENT_END	n/a	n/a	-999	-999	n/a	n/a	n/a	n/a	2	[0, 0, 0]	-999	PAL1	0	R1307N
798.53	0.0	912732	REC_START	n/a	n/a	1	1	KITE	n/a	BREAD	KITE	2	[0, 0, 0]	-999	PAL1	0	R1307N
798.53	4.036	912732	PROBE_START	n/a	wordpools/wordpool_EN.txt	1	1	KITE	n/a	BREAD	KITE	2	[0, 0, 0]	-999	PAL1	0	R1307N
802.566	1.0	916768	PROBE_END	n/a	n/a	1	1	KITE	n/a	BREAD	KITE	2	[0, 0, 0]	-999	PAL1	0	R1307N
803.566	0.0	917768	REC_END	n/a	n/a	1	1	KITE	n/a	BREAD	KITE	2	[0, 0, 0]	-999	PAL1	0	R1307N
803.566	0.284	917768	ORIENT_START	n/a	n/a	-999	-999	n/a	n/a	n/a	n/a	2	[0, 0, 0]	-999	PAL1	0	R1307N
803.85	0.57	918052	ORIENT_END	n/a	n/a	-999	-999	n/a	n/a	n/a	n/a	2	[0, 0, 0]	-999	PAL1	0	R1307N
804.42	0.0	918622	REC_START	n/a	n/a	2	2	STEM	n/a	STEM	SWAMP	2	[0, 0, 0]	-999	PAL1	0	R1307N
804.42	0.019	918622	PROBE_START	n/a	wordpools/wordpool_EN.txt	2	2	STEM	n/a	STEM	SWAMP	2	[0, 0, 0]	-999	PAL1	0	R1307N
804.439	4.011	918641	REC_EVENT	5909	n/a	1	1	KITE	<>	BREAD	KITE	2	[0, 0, 0]	-999	PAL1	0	R1307N
808.45	1.0	922653	PROBE_END	n/a	n/a	2	2	STEM	n/a	STEM	SWAMP	2	[0, 0, 0]	-999	PAL1	0	R1307N
809.45	0.0	923653	ORIENT_START	n/a	n/a	-999	-999	n/a	n/a	n/a	n/a	2	[0, 0, 0]	-999	PAL1	0	R1307N
809.45	0.284	923653	REC_END	n/a	n/a	2	2	STEM	n/a	STEM	SWAMP	2	[0, 0, 0]	-999	PAL1	0	R1307N
809.734	0.56	923937	ORIENT_END	n/a	n/a	-999	-999	n/a	n/a	n/a	n/a	2	[0, 0, 0]	-999	PAL1	0	R1307N
810.294	0.056	924497	REC_EVENT	5874	n/a	2	2	STEM	<>	STEM	SWAMP	2	[0, 0, 0]	-999	PAL1	0	R1307N
810.35	0.0	924553	REC_START	n/a	n/a	5	3	PEAR	n/a	JAIL	PEAR	2	[0, 0, 0]	-999	PAL1	0	R1307N
810.35	4.035	924553	PROBE_START	n/a	wordpools/wordpool_EN.txt	5	3	PEAR	n/a	JAIL	PEAR	2	[0, 0, 0]	-999	PAL1	0	R1307N
814.385	1.0	928588	PROBE_END	n/a	n/a	5	3	PEAR	n/a	JAIL	PEAR	2	[0, 0, 0]	-999	PAL1	0	R1307N
815.385	0.0	929588	REC_END	n/a	n/a	5	3	PEAR	n/a	JAIL	PEAR	2	[0, 0, 0]	-999	PAL1	0	R1307N
815.385	0.283	929588	ORIENT_START	n/a	n/a	-999	-999	n/a	n/a	n/a	n/a	2	[0, 0, 0]	-999	PAL1	0	R1307N
815.668	0.52	929871	ORIENT_END	n/a	n/a	-999	-999	n/a	n/a	n/a	n/a	2	[0, 0, 0]	-999	PAL1	0	R1307N
816.188	0.0	930391	REC_START	n/a	n/a	4	4	HEN	n/a	HEN	CROW	2	[0, 0, 0]	-999	PAL1	0	R1307N
816.188	0.083	930391	PROBE_START	n/a	wordpools/wordpool_EN.txt	4	4	HEN	n/a	HEN	CROW	2	[0, 0, 0]	-999	PAL1	0	R1307N
816.271	3.948	930474	REC_EVENT	5921	n/a	5	3	PEAR	<>	JAIL	PEAR	2	[0, 0, 0]	-999	PAL1	0	R1307N
820.219	1.0	934422	PROBE_END	n/a	n/a	4	4	HEN	n/a	HEN	CROW	2	[0, 0, 0]	-999	PAL1	0	R1307N
821.219	0.0	935422	ORIENT_START	n/a	n/a	-999	-999	n/a	n/a	n/a	n/a	2	[0, 0, 0]	-999	PAL1	0	R1307N
821.219	0.284	935422	REC_END	n/a	n/a	4	4	HEN	n/a	HEN	CROW	2	[0, 0, 0]	-999	PAL1	0	R1307N
821.503	0.507	935706	ORIENT_END	n/a	n/a	-999	-999	n/a	n/a	n/a	n/a	2	[0, 0, 0]	-999	PAL1	0	R1307N
822.01	0.172	936213	REC_EVENT	5822	n/a	4	4	HEN	<>	HEN	CROW	2	[0, 0, 0]	-999	PAL1	0	R1307N
822.182	0.0	936385	REC_START	n/a	n/a	3	5	GOLD	FLAG	ROAD	GOLD	2	[0, 0, 0]	-999	PAL1	0	R1307N
822.182	3.55	936385	PROBE_START	n/a	wordpools/wordpool_EN.txt	3	5	GOLD	FLAG	ROAD	GOLD	2	[0, 0, 0]	-999	PAL1	0	R1307N
825.732	0.488	939935	REC_EVENT	3550	n/a	3	5	GOLD	FLAG	ROAD	GOLD	2	[0, 0, 0]	-999	PAL1	0	R1307N
826.22	1.0	940423	PROBE_END	n/a	n/a	3	5	GOLD	n/a	ROAD	GOLD	2	[0, 0, 0]	-999	PAL1	0	R1307N
827.22	0.0	941423	REC_END	n/a	n/a	3	5	GOLD	n/a	ROAD	GOLD	2	[0, 0, 0]	-999	PAL1	0	R1307N
827.22	0.284	941423	ORIENT_START	n/a	n/a	-999	-999	n/a	n/a	n/a	n/a	2	[0, 0, 0]	-999	PAL1	0	R1307N
827.504	0.715	941707	ORIENT_END	n/a	n/a	-999	-999	n/a	n/a	n/a	n/a	2	[0, 0, 0]	-999	PAL1	0	R1307N
828.219	0.0	942422	REC_START	n/a	n/a	6	6	WAND	n/a	WAND	GRASS	2	[0, 0, 0]	-999	PAL1	0	R1307N
828.219	4.034	942422	PROBE_START	n/a	wordpools/wordpool_EN.txt	6	6	WAND	n/a	WAND	GRASS	2	[0, 0, 0]	-999	PAL1	0	R1307N
832.253	1.0	946457	PROBE_END	n/a	n/a	6	6	WAND	n/a	WAND	GRASS	2	[0, 0, 0]	-999	PAL1	0	R1307N
833.253	0.0	947457	WAITING_START	n/a	n/a	-999	-999	n/a	n/a	n/a	n/a	3	[0, 0, 0]	-999	PAL1	0	R1307N
833.253	0.0	947457	TRIAL	n/a	n/a	-999	-999	n/a	n/a	n/a	n/a	3	[0, 0, 0]	-999	PAL1	0	R1307N
833.253	0.0	947457	TRIAL_START	n/a	n/a	-999	-999	n/a	n/a	n/a	n/a	2	[0, 0, 0]	-999	PAL1	0	R1307N
833.253	0.0	947457	REC_END	n/a	n/a	6	6	WAND	n/a	WAND	GRASS	2	[0, 0, 0]	-999	PAL1	0	R1307N
833.253	0.0	947457	RETRIEVAL_END	n/a	n/a	-999	-999	n/a	n/a	n/a	n/a	2	[0, 0, 0]	-999	PAL1	0	R1307N
833.253	0.985	947457	TRIAL_END	n/a	n/a	-999	-999	n/a	n/a	n/a	n/a	2	[0, 0, 0]	-999	PAL1	0	R1307N
834.238	5.768	948442	REC_EVENT	6019	n/a	6	6	WAND	<>	WAND	GRASS	2	[0, 0, 0]	-999	PAL1	0	R1307N
840.006	0.0	954210	WAITING_END	n/a	n/a	-999	-999	n/a	n/a	n/a	n/a	3	[0, 0, 0]	-999	PAL1	0	R1307N
840.006	0.0	954210	COUNTDOWN_START	n/a	n/a	-999	-999	n/a	n/a	n/a	n/a	3	[0, 0, 0]	-999	PAL1	0	R1307N
840.006	0.0	954210	COUNTDOWN_END	n/a	n/a	-999	-999	n/a	n/a	n/a	n/a	3	[0, 0, 0]	-999	PAL1	0	R1307N
840.006	11.618	954210	ORIENT_START	n/a	n/a	-999	-999	n/a	n/a	n/a	n/a	3	[0, 0, 0]	-999	PAL1	0	R1307N
851.624	0.0	965828	ORIENT_END	n/a	n/a	-999	-999	n/a	n/a	n/a	n/a	3	[0, 0, 0]	-999	PAL1	0	R1307N
851.624	0.595	965828	ENCODING_START	n/a	n/a	-999	-999	n/a	n/a	n/a	n/a	3	[0, 0, 0]	-999	PAL1	0	R1307N
852.219	4.038	966423	STUDY_PAIR	n/a	wordpools/wordpool_EN.txt	1	-999	n/a	n/a	FOOD	HOUSE	3	[0, 0, 0]	-999	PAL1	0	R1307N
856.257	0.572	970462	STUDY_PAIR_OFF	n/a	n/a	1	-999	n/a	n/a	FOOD	HOUSE	3	[0, 0, 0]	-999	PAL1	0	R1307N
856.829	4.03	971034	STUDY_PAIR	n/a	wordpools/wordpool_EN.txt	2	-999	n/a	n/a	PEA	LAWN	3	[0, 0, 0]	-999	PAL1	0	R1307N
860.859	0.583	975064	STUDY_PAIR_OFF	n/a	n/a	2	-999	n/a	n/a	PEA	LAWN	3	[0, 0, 0]	-999	PAL1	0	R1307N
861.442	4.034	975647	STUDY_PAIR	n/a	wordpools/wordpool_EN.txt	3	-999	n/a	n/a	TENT	BOX	3	[0, 0, 0]	-999	PAL1	0	R1307N
865.476	0.512	979681	STUDY_PAIR_OFF	n/a	n/a	3	-999	n/a	n/a	TENT	BOX	3	[0, 0, 0]	-999	PAL1	0	R1307N
865.988	4.039	980193	STUDY_PAIR	n/a	wordpools/wordpool_EN.txt	4	-999	n/a	n/a	FOAM	CLAY	3	[0, 0, 0]	-999	PAL1	0	R1307N
870.027	0.619	984232	STUDY_PAIR_OFF	n/a	n/a	4	-999	n/a	n/a	FOAM	CLAY	3	[0, 0, 0]	-999	PAL1	0	R1307N
870.646	4.032	984851	STUDY_PAIR	n/a	wordpools/wordpool_EN.txt	5	-999	n/a	n/a	GRAPE	GUARD	3	[0, 0, 0]	-999	PAL1	0	R1307N
874.678	0.536	988883	STUDY_PAIR_OFF	n/a	n/a	5	-999	n/a	n/a	GRAPE	GUARD	3	[0, 0, 0]	-999	PAL1	0	R1307N
875.214	4.03	989419	STUDY_PAIR	n/a	wordpools/wordpool_EN.txt	6	-999	n/a	n/a	SNAKE	DRUM	3	[0, 0, 0]	-999	PAL1	0	R1307N
879.244	0.0	993450	STUDY_PAIR_OFF	n/a	n/a	6	-999	n/a	n/a	SNAKE	DRUM	3	[0, 0, 0]	-999	PAL1	0	R1307N
879.244	0.0	993450	ENCODING_END	n/a	n/a	-999	-999	n/a	n/a	n/a	n/a	3	[0, 0, 0]	-999	PAL1	0	R1307N
879.244	0.001	993450	MATH_START	n/a	n/a	-999	-999	n/a	n/a	n/a	n/a	3	[0, 0, 0]	-999	PAL1	0	R1307N
879.245	0.016	993451	START	n/a	n/a	-999	-999	n/a	n/a	n/a	n/a	3	[-999, -999, -999]	-999	PAL1	0	R1307N
879.261	9.719	993467	PROB	9684	n/a	-999	-999	n/a	n/a	n/a	n/a	3	[7, 9, 3]	19	PAL1	0	R1307N
888.98	4.318	1003186	PROB	4283	n/a	-999	-999	n/a	n/a	n/a	n/a	3	[6, 5, 4]	15	PAL1	0	R1307N
893.298	7.791	1007504	PROB	7791	n/a	-999	-999	n/a	n/a	n/a	n/a	3	[3, 1, 5]	9	PAL1	0	R1307N
901.089	0.01	1015295	STOP	n/a	n/a	-999	-999	n/a	n/a	n/a	n/a	3	[-999, -999, -999]	-999	PAL1	0	R1307N
901.099	0.574	1015305	MATH_END	n/a	n/a	-999	-999	n/a	n/a	n/a	n/a	3	[0, 0, 0]	-999	PAL1	0	R1307N
901.673	0.0	1015880	RETRIEVAL_START	n/a	n/a	-999	-999	n/a	n/a	n/a	n/a	3	[0, 0, 0]	-999	PAL1	0	R1307N
901.673	0.276	1015880	ORIENT_START	n/a	n/a	-999	-999	n/a	n/a	n/a	n/a	3	[0, 0, 0]	-999	PAL1	0	R1307N
901.949	0.57	1016156	ORIENT_END	n/a	n/a	-999	-999	n/a	n/a	n/a	n/a	3	[0, 0, 0]	-999	PAL1	0	R1307N
902.519	0.0	1016726	REC_START	n/a	n/a	3	1	TENT	n/a	TENT	BOX	3	[0, 0, 0]	-999	PAL1	0	R1307N
902.519	4.031	1016726	PROBE_START	n/a	wordpools/wordpool_EN.txt	3	1	TENT	n/a	TENT	BOX	3	[0, 0, 0]	-999	PAL1	0	R1307N
906.55	1.0	1020757	PROBE_END	n/a	n/a	3	1	TENT	n/a	TENT	BOX	3	[0, 0, 0]	-999	PAL1	0	R1307N
907.55	0.0	1021757	REC_END	n/a	n/a	3	1	TENT	n/a	TENT	BOX	3	[0, 0, 0]	-999	PAL1	0	R1307N
907.55	0.283	1021757	ORIENT_START	n/a	n/a	-999	-999	n/a	n/a	n/a	n/a	3	[0, 0, 0]	-999	PAL1	0	R1307N
907.833	0.56	1022040	ORIENT_END	n/a	n/a	-999	-999	n/a	n/a	n/a	n/a	3	[0, 0, 0]	-999	PAL1	0	R1307N
908.393	0.114	1022600	REC_EVENT	5874	n/a	3	1	TENT	<>	TENT	BOX	3	[0, 0, 0]	-999	PAL1	0	R1307N
908.507	0.0	1022714	REC_START	n/a	n/a	4	2	FOAM	n/a	FOAM	CLAY	3	[0, 0, 0]	-999	PAL1	0	R1307N
908.507	4.027	1022714	PROBE_START	n/a	wordpools/wordpool_EN.txt	4	2	FOAM	n/a	FOAM	CLAY	3	[0, 0, 0]	-999	PAL1	0	R1307N
912.534	1.0	1026741	PROBE_END	n/a	n/a	4	2	FOAM	n/a	FOAM	CLAY	3	[0, 0, 0]	-999	PAL1	0	R1307N
913.534	0.0	1027741	ORIENT_START	n/a	n/a	-999	-999	n/a	n/a	n/a	n/a	3	[0, 0, 0]	-999	PAL1	0	R1307N
913.534	0.284	1027741	REC_END	n/a	n/a	4	2	FOAM	n/a	FOAM	CLAY	3	[0, 0, 0]	-999	PAL1	0	R1307N
913.818	0.553	1028025	ORIENT_END	n/a	n/a	-999	-999	n/a	n/a	n/a	n/a	3	[0, 0, 0]	-999	PAL1	0	R1307N
914.371	0.0	1028578	REC_START	n/a	n/a	1	3	HOUSE	n/a	FOOD	HOUSE	3	[0, 0, 0]	-999	PAL1	0	R1307N
914.371	0.109	1028578	PROBE_START	n/a	wordpools/wordpool_EN.txt	1	3	HOUSE	n/a	FOOD	HOUSE	3	[0, 0, 0]	-999	PAL1	0	R1307N
914.48	3.922	1028687	REC_EVENT	5973	n/a	4	2	FOAM	<>	FOAM	CLAY	3	[0, 0, 0]	-999	PAL1	0	R1307N
918.402	1.0	1032609	PROBE_END	n/a	n/a	1	3	HOUSE	n/a	FOOD	HOUSE	3	[0, 0, 0]	-999	PAL1	0	R1307N
919.402	0.0	1033609	REC_END	n/a	n/a	1	3	HOUSE	n/a	FOOD	HOUSE	3	[0, 0, 0]	-999	PAL1	0	R1307N
919.402	0.283	1033609	ORIENT_START	n/a	n/a	-999	-999	n/a	n/a	n/a	n/a	3	[0, 0, 0]	-999	PAL1	0	R1307N
919.685	0.543	1033892	ORIENT_END	n/a	n/a	-999	-999	n/a	n/a	n/a	n/a	3	[0, 0, 0]	-999	PAL1	0	R1307N
920.228	0.106	1034435	REC_EVENT	5857	n/a	1	3	HOUSE	<>	FOOD	HOUSE	3	[0, 0, 0]	-999	PAL1	0	R1307N
920.334	0.0	1034541	REC_START	n/a	n/a	2	4	LAWN	n/a	PEA	LAWN	3	[0, 0, 0]	-999	PAL1	0	R1307N
920.334	4.035	1034541	PROBE_START	n/a	wordpools/wordpool_EN.txt	2	4	LAWN	n/a	PEA	LAWN	3	[0, 0, 0]	-999	PAL1	0	R1307N
924.369	1.0	1038576	PROBE_END	n/a	n/a	2	4	LAWN	n/a	PEA	LAWN	3	[0, 0, 0]	-999	PAL1	0	R1307N
925.369	0.0	1039576	ORIENT_START	n/a	n/a	-999	-999	n/a	n/a	n/a	n/a	3	[0, 0, 0]	-999	PAL1	0	R1307N
925.369	0.284	1039576	REC_END	n/a	n/a	2	4	LAWN	n/a	PEA	LAWN	3	[0, 0, 0]	-999	PAL1	0	R1307N
925.653	0.618	1039860	ORIENT_END	n/a	n/a	-999	-999	n/a	n/a	n/a	n/a	3	[0, 0, 0]	-999	PAL1	0	R1307N
926.271	0.0	1040479	REC_START	n/a	n/a	5	5	GUARD	n/a	GRAPE	GUARD	3	[0, 0, 0]	-999	PAL1	0	R1307N
926.271	0.018	1040479	PROBE_START	n/a	wordpools/wordpool_EN.txt	5	5	GUARD	n/a	GRAPE	GUARD	3	[0, 0, 0]	-999	PAL1	0	R1307N
926.289	4.015	1040497	REC_EVENT	5955	n/a	2	4	LAWN	<>	PEA	LAWN	3	[0, 0, 0]	-999	PAL1	0	R1307N
930.304	1.0	1044512	PROBE_END	n/a	n/a	5	5	GUARD	n/a	GRAPE	GUARD	3	[0, 0, 0]	-999	PAL1	0	R1307N
931.304	0.0	1045512	REC_END	n/a	n/a	5	5	GUARD	n/a	GRAPE	GUARD	3	[0, 0, 0]	-999	PAL1	0	R1307N
931.304	0.283	1045512	ORIENT_START	n/a	n/a	-999	-999	n/a	n/a	n/a	n/a	3	[0, 0, 0]	-999	PAL1	0	R1307N
931.587	0.605	1045795	ORIENT_END	n/a	n/a	-999	-999	n/a	n/a	n/a	n/a	3	[0, 0, 0]	-999	PAL1	0	R1307N
932.192	0.029	1046400	REC_EVENT	5921	n/a	5	5	GUARD	<>	GRAPE	GUARD	3	[0, 0, 0]	-999	PAL1	0	R1307N
932.221	0.0	1046429	REC_START	n/a	n/a	6	6	SNAKE	n/a	SNAKE	DRUM	3	[0, 0, 0]	-999	PAL1	0	R1307N
932.221	4.033	1046429	PROBE_START	n/a	wordpools/wordpool_EN.txt	6	6	SNAKE	n/a	SNAKE	DRUM	3	[0, 0, 0]	-999	PAL1	0	R1307N
936.254	1.0	1050462	PROBE_END	n/a	n/a	6	6	SNAKE	n/a	SNAKE	DRUM	3	[0, 0, 0]	-999	PAL1	0	R1307N
937.254	0.0	1051462	TRIAL	n/a	n/a	-999	-999	n/a	n/a	n/a	n/a	4	[0, 0, 0]	-999	PAL1	0	R1307N
937.254	0.0	1051462	WAITING_START	n/a	n/a	-999	-999	n/a	n/a	n/a	n/a	4	[0, 0, 0]	-999	PAL1	0	R1307N
937.254	0.0	1051462	TRIAL_END	n/a	n/a	-999	-999	n/a	n/a	n/a	n/a	3	[0, 0, 0]	-999	PAL1	0	R1307N
937.254	0.0	1051462	TRIAL_START	n/a	n/a	-999	-999	n/a	n/a	n/a	n/a	3	[0, 0, 0]	-999	PAL1	0	R1307N
937.254	0.0	1051462	RETRIEVAL_END	n/a	n/a	-999	-999	n/a	n/a	n/a	n/a	3	[0, 0, 0]	-999	PAL1	0	R1307N
937.254	0.905	1051462	REC_END	n/a	n/a	6	6	SNAKE	n/a	SNAKE	DRUM	3	[0, 0, 0]	-999	PAL1	0	R1307N
938.159	16.866	1052367	REC_EVENT	5938	n/a	6	6	SNAKE	<>	SNAKE	DRUM	3	[0, 0, 0]	-999	PAL1	0	R1307N
955.025	0.0	1069234	WAITING_END	n/a	n/a	-999	-999	n/a	n/a	n/a	n/a	4	[0, 0, 0]	-999	PAL1	0	R1307N
955.025	0.0	1069234	COUNTDOWN_START	n/a	n/a	-999	-999	n/a	n/a	n/a	n/a	4	[0, 0, 0]	-999	PAL1	0	R1307N
955.025	0.0	1069234	COUNTDOWN_END	n/a	n/a	-999	-999	n/a	n/a	n/a	n/a	4	[0, 0, 0]	-999	PAL1	0	R1307N
955.025	11.685	1069234	ORIENT_START	n/a	n/a	-999	-999	n/a	n/a	n/a	n/a	4	[0, 0, 0]	-999	PAL1	0	R1307N
966.71	0.0	1080919	ORIENT_END	n/a	n/a	-999	-999	n/a	n/a	n/a	n/a	4	[0, 0, 0]	-999	PAL1	0	R1307N
966.71	0.506	1080919	ENCODING_START	n/a	n/a	-999	-999	n/a	n/a	n/a	n/a	4	[0, 0, 0]	-999	PAL1	0	R1307N
967.216	4.027	1081425	STUDY_PAIR	n/a	wordpools/wordpool_EN.txt	1	-999	n/a	n/a	COUCH	PRINCE	4	[0, 0, 0]	-999	PAL1	0	R1307N
971.243	0.639	1085452	STUDY_PAIR_OFF	n/a	n/a	1	-999	n/a	n/a	COUCH	PRINCE	4	[0, 0, 0]	-999	PAL1	0	R1307N
971.882	4.029	1086091	STUDY_PAIR	n/a	wordpools/wordpool_EN.txt	2	-999	n/a	n/a	HOSE	STORM	4	[0, 0, 0]	-999	PAL1	0	R1307N
975.911	0.656	1090121	STUDY_PAIR_OFF	n/a	n/a	2	-999	n/a	n/a	HOSE	STORM	4	[0, 0, 0]	-999	PAL1	0	R1307N
976.567	4.028	1090777	STUDY_PAIR	n/a	wordpools/wordpool_EN.txt	3	-999	n/a	n/a	SHIP	JAR	4	[0, 0, 0]	-999	PAL1	0	R1307N
980.595	0.742	1094805	STUDY_PAIR_OFF	n/a	n/a	3	-999	n/a	n/a	SHIP	JAR	4	[0, 0, 0]	-999	PAL1	0	R1307N
981.337	4.026	1095547	STUDY_PAIR	n/a	wordpools/wordpool_EN.txt	4	-999	n/a	n/a	WOLF	CLIFF	4	[0, 0, 0]	-999	PAL1	0	R1307N
985.363	0.63	1099573	STUDY_PAIR_OFF	n/a	n/a	4	-999	n/a	n/a	WOLF	CLIFF	4	[0, 0, 0]	-999	PAL1	0	R1307N
985.993	4.037	1100203	STUDY_PAIR	n/a	wordpools/wordpool_EN.txt	5	-999	n/a	n/a	GLASS	BOWL	4	[0, 0, 0]	-999	PAL1	0	R1307N
990.03	0.725	1104240	STUDY_PAIR_OFF	n/a	n/a	5	-999	n/a	n/a	GLASS	BOWL	4	[0, 0, 0]	-999	PAL1	0	R1307N
990.755	4.026	1104965	STUDY_PAIR	n/a	wordpools/wordpool_EN.txt	6	-999	n/a	n/a	TAIL	ANT	4	[0, 0, 0]	-999	PAL1	0	R1307N
994.781	0.0	1108991	STUDY_PAIR_OFF	n/a	n/a	6	-999	n/a	n/a	TAIL	ANT	4	[0, 0, 0]	-999	PAL1	0	R1307N
994.781	0.0	1108991	ENCODING_END	n/a	n/a	-999	-999	n/a	n/a	n/a	n/a	4	[0, 0, 0]	-999	PAL1	0	R1307N
994.781	0.002	1108991	MATH_START	n/a	n/a	-999	-999	n/a	n/a	n/a	n/a	4	[0, 0, 0]	-999	PAL1	0	R1307N
994.783	0.015	1108993	START	n/a	n/a	-999	-999	n/a	n/a	n/a	n/a	4	[-999, -999, -999]	-999	PAL1	0	R1307N
994.798	6.501	1109008	PROB	6473	n/a	-999	-999	n/a	n/a	n/a	n/a	4	[7, 7, 3]	17	PAL1	0	R1307N
1001.299	6.967	1115510	PROB	6941	n/a	-999	-999	n/a	n/a	n/a	n/a	4	[7, 6, 7]	20	PAL1	0	R1307N
1008.266	9.327	1122477	PROB	9327	n/a	-999	-999	n/a	n/a	n/a	n/a	4	[7, 4, 8]	19	PAL1	0	R1307N
1017.593	0.009	1131804	STOP	n/a	n/a	-999	-999	n/a	n/a	n/a	n/a	4	[-999, -999, -999]	-999	PAL1	0	R1307N
1017.602	0.5	1131813	MATH_END	n/a	n/a	-999	-999	n/a	n/a	n/a	n/a	4	[0, 0, 0]	-999	PAL1	0	R1307N
1018.102	0.0	1132313	RETRIEVAL_START	n/a	n/a	-999	-999	n/a	n/a	n/a	n/a	4	[0, 0, 0]	-999	PAL1	0	R1307N
1018.102	0.283	1132313	ORIENT_START	n/a	n/a	-999	-999	n/a	n/a	n/a	n/a	4	[0, 0, 0]	-999	PAL1	0	R1307N
1018.385	0.581	1132596	ORIENT_END	n/a	n/a	-999	-999	n/a	n/a	n/a	n/a	4	[0, 0, 0]	-999	PAL1	0	R1307N
1018.966	0.0	1133177	PROBE_START	n/a	wordpools/wordpool_EN.txt	3	1	JAR	n/a	SHIP	JAR	4	[0, 0, 0]	-999	PAL1	0	R1307N
1018.966	4.036	1133177	REC_START	n/a	n/a	3	1	JAR	n/a	SHIP	JAR	4	[0, 0, 0]	-999	PAL1	0	R1307N
1023.002	1.0	1137214	PROBE_END	n/a	n/a	3	1	JAR	n/a	SHIP	JAR	4	[0, 0, 0]	-999	PAL1	0	R1307N
1024.002	0.0	1138214	REC_END	n/a	n/a	3	1	JAR	n/a	SHIP	JAR	4	[0, 0, 0]	-999	PAL1	0	R1307N
1024.002	0.283	1138214	ORIENT_START	n/a	n/a	-999	-999	n/a	n/a	n/a	n/a	4	[0, 0, 0]	-999	PAL1	0	R1307N
1024.285	0.578	1138497	ORIENT_END	n/a	n/a	-999	-999	n/a	n/a	n/a	n/a	4	[0, 0, 0]	-999	PAL1	0	R1307N
1024.863	0.007	1139075	REC_EVENT	5897	n/a	3	1	JAR	<>	SHIP	JAR	4	[0, 0, 0]	-999	PAL1	0	R1307N
1024.87	0.0	1139082	REC_START	n/a	n/a	4	2	WOLF	n/a	WOLF	CLIFF	4	[0, 0, 0]	-999	PAL1	0	R1307N
1024.87	4.033	1139082	PROBE_START	n/a	wordpools/wordpool_EN.txt	4	2	WOLF	n/a	WOLF	CLIFF	4	[0, 0, 0]	-999	PAL1	0	R1307N
1028.903	1.0	1143115	PROBE_END	n/a	n/a	4	2	WOLF	n/a	WOLF	CLIFF	4	[0, 0, 0]	-999	PAL1	0	R1307N
1029.903	0.0	1144115	REC_END	n/a	n/a	4	2	WOLF	n/a	WOLF	CLIFF	4	[0, 0, 0]	-999	PAL1	0	R1307N
1029.903	0.284	1144115	ORIENT_START	n/a	n/a	-999	-999	n/a	n/a	n/a	n/a	4	[0, 0, 0]	-999	PAL1	0	R1307N
1030.187	0.569	1144399	ORIENT_END	n/a	n/a	-999	-999	n/a	n/a	n/a	n/a	4	[0, 0, 0]	-999	PAL1	0	R1307N
1030.756	0.14	1144968	REC_EVENT	5886	n/a	4	2	WOLF	<>	WOLF	CLIFF	4	[0, 0, 0]	-999	PAL1	0	R1307N
1030.896	0.0	1145108	PROBE_START	n/a	wordpools/wordpool_EN.txt	1	3	COUCH	n/a	COUCH	PRINCE	4	[0, 0, 0]	-999	PAL1	0	R1307N
1030.896	4.025	1145108	REC_START	n/a	n/a	1	3	COUCH	n/a	COUCH	PRINCE	4	[0, 0, 0]	-999	PAL1	0	R1307N
1034.921	1.0	1149133	PROBE_END	n/a	n/a	1	3	COUCH	n/a	COUCH	PRINCE	4	[0, 0, 0]	-999	PAL1	0	R1307N
1035.921	0.0	1150133	REC_END	n/a	n/a	1	3	COUCH	n/a	COUCH	PRINCE	4	[0, 0, 0]	-999	PAL1	0	R1307N
1035.921	0.284	1150133	ORIENT_START	n/a	n/a	-999	-999	n/a	n/a	n/a	n/a	4	[0, 0, 0]	-999	PAL1	0	R1307N
1036.205	0.549	1150417	ORIENT_END	n/a	n/a	-999	-999	n/a	n/a	n/a	n/a	4	[0, 0, 0]	-999	PAL1	0	R1307N
1036.754	0.0	1150966	REC_START	n/a	n/a	2	4	HOSE	n/a	HOSE	STORM	4	[0, 0, 0]	-999	PAL1	0	R1307N
1036.754	0.15	1150966	PROBE_START	n/a	wordpools/wordpool_EN.txt	2	4	HOSE	n/a	HOSE	STORM	4	[0, 0, 0]	-999	PAL1	0	R1307N
1036.904	3.885	1151116	REC_EVENT	6008	n/a	1	3	COUCH	<>	COUCH	PRINCE	4	[0, 0, 0]	-999	PAL1	0	R1307N
1040.789	1.0	1155001	PROBE_END	n/a	n/a	2	4	HOSE	n/a	HOSE	STORM	4	[0, 0, 0]	-999	PAL1	0	R1307N
1041.789	0.0	1156001	REC_END	n/a	n/a	2	4	HOSE	n/a	HOSE	STORM	4	[0, 0, 0]	-999	PAL1	0	R1307N
1041.789	0.283	1156001	ORIENT_START	n/a	n/a	-999	-999	n/a	n/a	n/a	n/a	4	[0, 0, 0]	-999	PAL1	0	R1307N
1042.072	0.539	1156284	ORIENT_END	n/a	n/a	-999	-999	n/a	n/a	n/a	n/a	4	[0, 0, 0]	-999	PAL1	0	R1307N
1042.611	0.024	1156823	REC_EVENT	5857	n/a	2	4	HOSE	<>	HOSE	STORM	4	[0, 0, 0]	-999	PAL1	0	R1307N
1042.635	0.0	1156847	REC_START	n/a	n/a	5	5	BOWL	n/a	GLASS	BOWL	4	[0, 0, 0]	-999	PAL1	0	R1307N
1042.635	4.038	1156847	PROBE_START	n/a	wordpools/wordpool_EN.txt	5	5	BOWL	n/a	GLASS	BOWL	4	[0, 0, 0]	-999	PAL1	0	R1307N
1046.673	1.0	1160886	PROBE_END	n/a	n/a	5	5	BOWL	n/a	GLASS	BOWL	4	[0, 0, 0]	-999	PAL1	0	R1307N
1047.673	0.0	1161886	REC_END	n/a	n/a	5	5	BOWL	n/a	GLASS	BOWL	4	[0, 0, 0]	-999	PAL1	0	R1307N
1047.673	0.284	1161886	ORIENT_START	n/a	n/a	-999	-999	n/a	n/a	n/a	n/a	4	[0, 0, 0]	-999	PAL1	0	R1307N
1047.957	0.515	1162170	ORIENT_END	n/a	n/a	-999	-999	n/a	n/a	n/a	n/a	4	[0, 0, 0]	-999	PAL1	0	R1307N
1048.472	0.0	1162685	REC_START	n/a	n/a	6	6	ANT	n/a	TAIL	ANT	4	[0, 0, 0]	-999	PAL1	0	R1307N
1048.472	0.037	1162685	PROBE_START	n/a	wordpools/wordpool_EN.txt	6	6	ANT	n/a	TAIL	ANT	4	[0, 0, 0]	-999	PAL1	0	R1307N
1048.509	3.998	1162722	REC_EVENT	5874	n/a	5	5	BOWL	<>	GLASS	BOWL	4	[0, 0, 0]	-999	PAL1	0	R1307N
1052.507	1.0	1166720	PROBE_END	n/a	n/a	6	6	ANT	n/a	TAIL	ANT	4	[0, 0, 0]	-999	PAL1	0	R1307N
1053.507	0.0	1167720	TRIAL	n/a	n/a	-999	-999	n/a	n/a	n/a	n/a	5	[0, 0, 0]	-999	PAL1	0	R1307N
1053.507	0.0	1167720	TRIAL_START	n/a	n/a	-999	-999	n/a	n/a	n/a	n/a	4	[0, 0, 0]	-999	PAL1	0	R1307N
1053.507	0.0	1167720	TRIAL_END	n/a	n/a	-999	-999	n/a	n/a	n/a	n/a	4	[0, 0, 0]	-999	PAL1	0	R1307N
1053.507	0.0	1167720	WAITING_START	n/a	n/a	-999	-999	n/a	n/a	n/a	n/a	5	[0, 0, 0]	-999	PAL1	0	R1307N
1053.507	0.0	1167720	REC_END	n/a	n/a	6	6	ANT	n/a	TAIL	ANT	4	[0, 0, 0]	-999	PAL1	0	R1307N
1053.507	0.781	1167720	RETRIEVAL_END	n/a	n/a	-999	-999	n/a	n/a	n/a	n/a	4	[0, 0, 0]	-999	PAL1	0	R1307N
1054.288	8.97	1168501	REC_EVENT	5816	n/a	6	6	ANT	<>	TAIL	ANT	4	[0, 0, 0]	-999	PAL1	0	R1307N
1063.258	0.0	1177471	WAITING_END	n/a	n/a	-999	-999	n/a	n/a	n/a	n/a	5	[0, 0, 0]	-999	PAL1	0	R1307N
1063.258	0.0	1177471	COUNTDOWN_START	n/a	n/a	-999	-999	n/a	n/a	n/a	n/a	5	[0, 0, 0]	-999	PAL1	0	R1307N
1063.258	0.0	1177471	COUNTDOWN_END	n/a	n/a	-999	-999	n/a	n/a	n/a	n/a	5	[0, 0, 0]	-999	PAL1	0	R1307N
1063.258	11.62	1177471	ORIENT_START	n/a	n/a	-999	-999	n/a	n/a	n/a	n/a	5	[0, 0, 0]	-999	PAL1	0	R1307N
1074.878	0.0	1189092	ORIENT_END	n/a	n/a	-999	-999	n/a	n/a	n/a	n/a	5	[0, 0, 0]	-999	PAL1	0	R1307N
1074.878	0.516	1189092	ENCODING_START	n/a	n/a	-999	-999	n/a	n/a	n/a	n/a	5	[0, 0, 0]	-999	PAL1	0	R1307N
1075.394	4.034	1189608	STUDY_PAIR	n/a	wordpools/wordpool_EN.txt	1	-999	n/a	n/a	SKY	WHALE	5	[0, 0, 0]	-999	PAL1	0	R1307N
1079.428	0.654	1193642	STUDY_PAIR_OFF	n/a	n/a	1	-999	n/a	n/a	SKY	WHALE	5	[0, 0, 0]	-999	PAL1	0	R1307N
1080.082	4.031	1194296	STUDY_PAIR	n/a	wordpools/wordpool_EN.txt	2	-999	n/a	TEETH	TEETH	SHARK	5	[0, 0, 0]	-999	PAL1	0	R1307N
1084.113	0.685	1198327	STUDY_PAIR_OFF	n/a	n/a	2	-999	n/a	TEETH	TEETH	SHARK	5	[0, 0, 0]	-999	PAL1	0	R1307N
1084.798	4.032	1199012	STUDY_PAIR	n/a	wordpools/wordpool_EN.txt	3	-999	n/a	n/a	PIG	MOUTH	5	[0, 0, 0]	-999	PAL1	0	R1307N
1088.83	0.718	1203044	STUDY_PAIR_OFF	n/a	n/a	3	-999	n/a	n/a	PIG	MOUTH	5	[0, 0, 0]	-999	PAL1	0	R1307N
1089.548	4.033	1203762	STUDY_PAIR	n/a	wordpools/wordpool_EN.txt	4	-999	n/a	n/a	FOOT	COW	5	[0, 0, 0]	-999	PAL1	0	R1307N
1093.581	0.625	1207795	STUDY_PAIR_OFF	n/a	n/a	4	-999	n/a	n/a	FOOT	COW	5	[0, 0, 0]	-999	PAL1	0	R1307N
1094.206	4.025	1208420	STUDY_PAIR	n/a	wordpools/wordpool_EN.txt	5	-999	n/a	n/a	PLANT	LEAF	5	[0, 0, 0]	-999	PAL1	0	R1307N
1098.231	0.622	1212446	STUDY_PAIR_OFF	n/a	n/a	5	-999	n/a	n/a	PLANT	LEAF	5	[0, 0, 0]	-999	PAL1	0	R1307N
1098.853	4.029	1213068	STUDY_PAIR	n/a	wordpools/wordpool_EN.txt	6	-999	n/a	n/a	CROWN	PURSE	5	[0, 0, 0]	-999	PAL1	0	R1307N
1102.882	0.0	1217097	STUDY_PAIR_OFF	n/a	n/a	6	-999	n/a	n/a	CROWN	PURSE	5	[0, 0, 0]	-999	PAL1	0	R1307N
1102.882	0.0	1217097	ENCODING_END	n/a	n/a	-999	-999	n/a	n/a	n/a	n/a	5	[0, 0, 0]	-999	PAL1	0	R1307N
1102.882	0.002	1217097	MATH_START	n/a	n/a	-999	-999	n/a	n/a	n/a	n/a	5	[0, 0, 0]	-999	PAL1	0	R1307N
1102.884	0.015	1217099	START	n/a	n/a	-999	-999	n/a	n/a	n/a	n/a	5	[-999, -999, -999]	-999	PAL1	0	R1307N
1102.899	7.968	1217114	PROB	7941	n/a	-999	-999	n/a	n/a	n/a	n/a	5	[4, 7, 8]	19	PAL1	0	R1307N
1110.867	3.284	1225082	PROB	3246	n/a	-999	-999	n/a	n/a	n/a	n/a	5	[1, 1, 6]	8	PAL1	0	R1307N
1114.151	6.434	1228366	PROB	6410	n/a	-999	-999	n/a	n/a	n/a	n/a	5	[4, 9, 4]	17	PAL1	0	R1307N
1120.585	9.744	1234801	PROB	9744	n/a	-999	-999	n/a	n/a	n/a	n/a	5	[2, 9, 4]	15	PAL1	0	R1307N
1130.329	0.008	1244545	STOP	n/a	n/a	-999	-999	n/a	n/a	n/a	n/a	5	[-999, -999, -999]	-999	PAL1	0	R1307N
1130.337	0.66	1244553	MATH_END	n/a	n/a	-999	-999	n/a	n/a	n/a	n/a	5	[0, 0, 0]	-999	PAL1	0	R1307N
1130.997	0.0	1245213	RETRIEVAL_START	n/a	n/a	-999	-999	n/a	n/a	n/a	n/a	5	[0, 0, 0]	-999	PAL1	0	R1307N
1130.997	0.272	1245213	ORIENT_START	n/a	n/a	-999	-999	n/a	n/a	n/a	n/a	5	[0, 0, 0]	-999	PAL1	0	R1307N
1131.269	0.552	1245485	ORIENT_END	n/a	n/a	-999	-999	n/a	n/a	n/a	n/a	5	[0, 0, 0]	-999	PAL1	0	R1307N
1131.821	0.0	1246037	REC_START	n/a	n/a	3	1	PIG	n/a	PIG	MOUTH	5	[0, 0, 0]	-999	PAL1	0	R1307N
1131.821	4.033	1246037	PROBE_START	n/a	wordpools/wordpool_EN.txt	3	1	PIG	n/a	PIG	MOUTH	5	[0, 0, 0]	-999	PAL1	0	R1307N
1135.854	1.0	1250070	PROBE_END	n/a	n/a	3	1	PIG	n/a	PIG	MOUTH	5	[0, 0, 0]	-999	PAL1	0	R1307N
1136.854	0.0	1251070	REC_END	n/a	n/a	3	1	PIG	n/a	PIG	MOUTH	5	[0, 0, 0]	-999	PAL1	0	R1307N
1136.854	0.284	1251070	ORIENT_START	n/a	n/a	-999	-999	n/a	n/a	n/a	n/a	5	[0, 0, 0]	-999	PAL1	0	R1307N
1137.138	0.534	1251354	ORIENT_END	n/a	n/a	-999	-999	n/a	n/a	n/a	n/a	5	[0, 0, 0]	-999	PAL1	0	R1307N
1137.672	0.117	1251888	REC_EVENT	5851	n/a	3	1	PIG	<>	PIG	MOUTH	5	[0, 0, 0]	-999	PAL1	0	R1307N
1137.789	0.0	1252005	REC_START	n/a	n/a	6	2	CROWN	n/a	CROWN	PURSE	5	[0, 0, 0]	-999	PAL1	0	R1307N
1137.789	4.033	1252005	PROBE_START	n/a	wordpools/wordpool_EN.txt	6	2	CROWN	n/a	CROWN	PURSE	5	[0, 0, 0]	-999	PAL1	0	R1307N
1141.822	1.0	1256038	PROBE_END	n/a	n/a	6	2	CROWN	n/a	CROWN	PURSE	5	[0, 0, 0]	-999	PAL1	0	R1307N
1142.822	0.0	1257038	REC_END	n/a	n/a	6	2	CROWN	n/a	CROWN	PURSE	5	[0, 0, 0]	-999	PAL1	0	R1307N
1142.822	0.284	1257038	ORIENT_START	n/a	n/a	-999	-999	n/a	n/a	n/a	n/a	5	[0, 0, 0]	-999	PAL1	0	R1307N
1143.106	0.557	1257323	ORIENT_END	n/a	n/a	-999	-999	n/a	n/a	n/a	n/a	5	[0, 0, 0]	-999	PAL1	0	R1307N
1143.663	0.0	1257880	REC_START	n/a	n/a	5	3	LEAF	n/a	PLANT	LEAF	5	[0, 0, 0]	-999	PAL1	0	R1307N
1143.663	0.081	1257880	PROBE_START	n/a	wordpools/wordpool_EN.txt	5	3	LEAF	n/a	PLANT	LEAF	5	[0, 0, 0]	-999	PAL1	0	R1307N
1143.744	3.946	1257961	REC_EVENT	5955	n/a	6	2	CROWN	<>	CROWN	PURSE	5	[0, 0, 0]	-999	PAL1	0	R1307N
1147.69	1.0	1261907	PROBE_END	n/a	n/a	5	3	LEAF	n/a	PLANT	LEAF	5	[0, 0, 0]	-999	PAL1	0	R1307N
1148.69	0.0	1262907	ORIENT_START	n/a	n/a	-999	-999	n/a	n/a	n/a	n/a	5	[0, 0, 0]	-999	PAL1	0	R1307N
1148.69	0.283	1262907	REC_END	n/a	n/a	5	3	LEAF	n/a	PLANT	LEAF	5	[0, 0, 0]	-999	PAL1	0	R1307N
1148.973	0.547	1263190	ORIENT_END	n/a	n/a	-999	-999	n/a	n/a	n/a	n/a	5	[0, 0, 0]	-999	PAL1	0	R1307N
1149.52	0.153	1263737	REC_EVENT	5857	n/a	5	3	LEAF	<>	PLANT	LEAF	5	[0, 0, 0]	-999	PAL1	0	R1307N
1149.673	0.0	1263890	REC_START	n/a	n/a	2	4	SHARK	TEETH	TEETH	SHARK	5	[0, 0, 0]	-999	PAL1	0	R1307N
1149.673	4.035	1263890	PROBE_START	n/a	wordpools/wordpool_EN.txt	2	4	SHARK	TEETH	TEETH	SHARK	5	[0, 0, 0]	-999	PAL1	0	R1307N
1153.708	0.51	1267925	PROBE_END	n/a	n/a	2	4	SHARK	n/a	TEETH	SHARK	5	[0, 0, 0]	-999	PAL1	0	R1307N
1154.218	0.49	1268435	REC_EVENT	4545	n/a	2	4	SHARK	TEETH	TEETH	SHARK	5	[0, 0, 0]	-999	PAL1	0	R1307N
1154.708	0.0	1268925	REC_END	n/a	n/a	2	4	SHARK	n/a	TEETH	SHARK	5	[0, 0, 0]	-999	PAL1	0	R1307N
1154.708	0.283	1268925	ORIENT_START	n/a	n/a	-999	-999	n/a	n/a	n/a	n/a	5	[0, 0, 0]	-999	PAL1	0	R1307N
1154.991	0.69	1269208	ORIENT_END	n/a	n/a	-999	-999	n/a	n/a	n/a	n/a	5	[0, 0, 0]	-999	PAL1	0	R1307N
1155.681	0.054	1269898	REC_EVENT	6008	n/a	2	4	SHARK	<>	TEETH	SHARK	5	[0, 0, 0]	-999	PAL1	0	R1307N
1155.735	0.0	1269952	PROBE_START	n/a	wordpools/wordpool_EN.txt	1	5	WHALE	n/a	SKY	WHALE	5	[0, 0, 0]	-999	PAL1	0	R1307N
1155.735	4.023	1269952	REC_START	n/a	n/a	1	5	WHALE	n/a	SKY	WHALE	5	[0, 0, 0]	-999	PAL1	0	R1307N
1159.758	1.0	1273975	PROBE_END	n/a	n/a	1	5	WHALE	n/a	SKY	WHALE	5	[0, 0, 0]	-999	PAL1	0	R1307N
1160.758	0.0	1274975	REC_END	n/a	n/a	1	5	WHALE	n/a	SKY	WHALE	5	[0, 0, 0]	-999	PAL1	0	R1307N
1160.758	0.284	1274975	ORIENT_START	n/a	n/a	-999	-999	n/a	n/a	n/a	n/a	5	[0, 0, 0]	-999	PAL1	0	R1307N
1161.042	0.578	1275259	ORIENT_END	n/a	n/a	-999	-999	n/a	n/a	n/a	n/a	5	[0, 0, 0]	-999	PAL1	0	R1307N
1161.62	0.0	1275837	REC_START	n/a	n/a	4	6	FOOT	n/a	FOOT	COW	5	[0, 0, 0]	-999	PAL1	0	R1307N
1161.62	0.152	1275837	PROBE_START	n/a	wordpools/wordpool_EN.txt	4	6	FOOT	n/a	FOOT	COW	5	[0, 0, 0]	-999	PAL1	0	R1307N
1161.772	3.871	1275989	REC_EVENT	6037	n/a	1	5	WHALE	<>	SKY	WHALE	5	[0, 0, 0]	-999	PAL1	0	R1307N
1165.643	1.0	1279860	PROBE_END	n/a	n/a	4	6	FOOT	n/a	FOOT	COW	5	[0, 0, 0]	-999	PAL1	0	R1307N
1166.643	0.0	1280860	TRIAL_START	n/a	n/a	-999	-999	n/a	n/a	n/a	n/a	5	[0, 0, 0]	-999	PAL1	0	R1307N
1166.643	0.0	1280860	TRIAL	n/a	n/a	-999	-999	n/a	n/a	n/a	n/a	6	[0, 0, 0]	-999	PAL1	0	R1307N
1166.643	0.0	1280860	TRIAL_END	n/a	n/a	-999	-999	n/a	n/a	n/a	n/a	5	[0, 0, 0]	-999	PAL1	0	R1307N
1166.643	0.0	1280860	WAITING_START	n/a	n/a	-999	-999	n/a	n/a	n/a	n/a	6	[0, 0, 0]	-999	PAL1	0	R1307N
1166.643	0.0	1280860	REC_END	n/a	n/a	4	6	FOOT	n/a	FOOT	COW	5	[0, 0, 0]	-999	PAL1	0	R1307N
1166.643	0.857	1280860	RETRIEVAL_END	n/a	n/a	-999	-999	n/a	n/a	n/a	n/a	5	[0, 0, 0]	-999	PAL1	0	R1307N
1167.5	9.345	1281718	REC_EVENT	5880	n/a	4	6	FOOT	<>	FOOT	COW	5	[0, 0, 0]	-999	PAL1	0	R1307N
1176.845	0.0	1291063	WAITING_END	n/a	n/a	-999	-999	n/a	n/a	n/a	n/a	6	[0, 0, 0]	-999	PAL1	0	R1307N
1176.845	0.0	1291063	COUNTDOWN_START	n/a	n/a	-999	-999	n/a	n/a	n/a	n/a	6	[0, 0, 0]	-999	PAL1	0	R1307N
1176.845	0.0	1291063	COUNTDOWN_END	n/a	n/a	-999	-999	n/a	n/a	n/a	n/a	6	[0, 0, 0]	-999	PAL1	0	R1307N
1176.845	11.635	1291063	ORIENT_START	n/a	n/a	-999	-999	n/a	n/a	n/a	n/a	6	[0, 0, 0]	-999	PAL1	0	R1307N
1188.48	0.0	1302698	ORIENT_END	n/a	n/a	-999	-999	n/a	n/a	n/a	n/a	6	[0, 0, 0]	-999	PAL1	0	R1307N
1188.48	0.593	1302698	ENCODING_START	n/a	n/a	-999	-999	n/a	n/a	n/a	n/a	6	[0, 0, 0]	-999	PAL1	0	R1307N
1189.073	4.041	1303291	STUDY_PAIR	n/a	wordpools/wordpool_EN.txt	1	-999	n/a	n/a	POLE	LAMB	6	[0, 0, 0]	-999	PAL1	0	R1307N
1193.114	0.682	1307333	STUDY_PAIR_OFF	n/a	n/a	1	-999	n/a	n/a	POLE	LAMB	6	[0, 0, 0]	-999	PAL1	0	R1307N
1193.796	4.035	1308015	STUDY_PAIR	n/a	wordpools/wordpool_EN.txt	2	-999	n/a	n/a	SHOE	ELF	6	[0, 0, 0]	-999	PAL1	0	R1307N
1197.831	0.513	1312050	STUDY_PAIR_OFF	n/a	n/a	2	-999	n/a	n/a	SHOE	ELF	6	[0, 0, 0]	-999	PAL1	0	R1307N
1198.344	4.038	1312563	STUDY_PAIR	n/a	wordpools/wordpool_EN.txt	3	-999	n/a	n/a	WEB	COIN	6	[0, 0, 0]	-999	PAL1	0	R1307N
1202.382	0.611	1316601	STUDY_PAIR_OFF	n/a	n/a	3	-999	n/a	n/a	WEB	COIN	6	[0, 0, 0]	-999	PAL1	0	R1307N
1202.993	4.04	1317212	STUDY_PAIR	n/a	wordpools/wordpool_EN.txt	4	-999	n/a	n/a	CAR	BLOOM	6	[0, 0, 0]	-999	PAL1	0	R1307N
1207.033	0.717	1321252	STUDY_PAIR_OFF	n/a	n/a	4	-999	n/a	n/a	CAR	BLOOM	6	[0, 0, 0]	-999	PAL1	0	R1307N
1207.75	4.034	1321969	STUDY_PAIR	n/a	wordpools/wordpool_EN.txt	5	-999	n/a	n/a	HEART	PASTE	6	[0, 0, 0]	-999	PAL1	0	R1307N
1211.784	0.71	1326003	STUDY_PAIR_OFF	n/a	n/a	5	-999	n/a	n/a	HEART	PASTE	6	[0, 0, 0]	-999	PAL1	0	R1307N
1212.494	4.04	1326713	STUDY_PAIR	n/a	wordpools/wordpool_EN.txt	6	-999	n/a	n/a	SKUNK	FLAG	6	[0, 0, 0]	-999	PAL1	0	R1307N
1216.534	0.0	1330754	STUDY_PAIR_OFF	n/a	n/a	6	-999	n/a	n/a	SKUNK	FLAG	6	[0, 0, 0]	-999	PAL1	0	R1307N
1216.534	0.0	1330754	ENCODING_END	n/a	n/a	-999	-999	n/a	n/a	n/a	n/a	6	[0, 0, 0]	-999	PAL1	0	R1307N
1216.534	0.002	1330754	MATH_START	n/a	n/a	-999	-999	n/a	n/a	n/a	n/a	6	[0, 0, 0]	-999	PAL1	0	R1307N
1216.536	0.015	1330756	START	n/a	n/a	-999	-999	n/a	n/a	n/a	n/a	6	[-999, -999, -999]	-999	PAL1	0	R1307N
1216.551	9.717	1330771	PROB	9689	n/a	-999	-999	n/a	n/a	n/a	n/a	6	[5, 9, 1]	15	PAL1	0	R1307N
1226.268	6.069	1340488	PROB	6046	n/a	-999	-999	n/a	n/a	n/a	n/a	6	[4, 6, 9]	19	PAL1	0	R1307N
1232.337	8.056	1346557	PROB	8056	n/a	-999	-999	n/a	n/a	n/a	n/a	6	[1, 5, 7]	13	PAL1	0	R1307N
1240.393	0.012	1354614	STOP	n/a	n/a	-999	-999	n/a	n/a	n/a	n/a	6	[-999, -999, -999]	-999	PAL1	0	R1307N
1240.405	0.587	1354626	MATH_END	n/a	n/a	-999	-999	n/a	n/a	n/a	n/a	6	[0, 0, 0]	-999	PAL1	0	R1307N
1240.992	0.0	1355213	RETRIEVAL_START	n/a	n/a	-999	-999	n/a	n/a	n/a	n/a	6	[0, 0, 0]	-999	PAL1	0	R1307N
1240.992	0.279	1355213	ORIENT_START	n/a	n/a	-999	-999	n/a	n/a	n/a	n/a	6	[0, 0, 0]	-999	PAL1	0	R1307N
1241.271	0.61	1355492	ORIENT_END	n/a	n/a	-999	-999	n/a	n/a	n/a	n/a	6	[0, 0, 0]	-999	PAL1	0	R1307N
1241.881	0.0	1356102	REC_START	n/a	n/a	3	1	WEB	n/a	WEB	COIN	6	[0, 0, 0]	-999	PAL1	0	R1307N
1241.881	4.025	1356102	PROBE_START	n/a	wordpools/wordpool_EN.txt	3	1	WEB	n/a	WEB	COIN	6	[0, 0, 0]	-999	PAL1	0	R1307N
1245.906	1.0	1360127	PROBE_END	n/a	n/a	3	1	WEB	n/a	WEB	COIN	6	[0, 0, 0]	-999	PAL1	0	R1307N
1246.906	0.0	1361127	REC_END	n/a	n/a	3	1	WEB	n/a	WEB	COIN	6	[0, 0, 0]	-999	PAL1	0	R1307N
1246.906	0.284	1361127	ORIENT_START	n/a	n/a	-999	-999	n/a	n/a	n/a	n/a	6	[0, 0, 0]	-999	PAL1	0	R1307N
1247.19	0.6	1361411	ORIENT_END	n/a	n/a	-999	-999	n/a	n/a	n/a	n/a	6	[0, 0, 0]	-999	PAL1	0	R1307N
1247.79	0.09	1362011	REC_EVENT	5909	n/a	3	1	WEB	<>	WEB	COIN	6	[0, 0, 0]	-999	PAL1	0	R1307N
1247.88	0.0	1362101	REC_START	n/a	n/a	6	2	SKUNK	n/a	SKUNK	FLAG	6	[0, 0, 0]	-999	PAL1	0	R1307N
1247.88	4.027	1362101	PROBE_START	n/a	wordpools/wordpool_EN.txt	6	2	SKUNK	n/a	SKUNK	FLAG	6	[0, 0, 0]	-999	PAL1	0	R1307N
1251.907	1.0	1366128	PROBE_END	n/a	n/a	6	2	SKUNK	n/a	SKUNK	FLAG	6	[0, 0, 0]	-999	PAL1	0	R1307N
1252.907	0.0	1367128	REC_END	n/a	n/a	6	2	SKUNK	n/a	SKUNK	FLAG	6	[0, 0, 0]	-999	PAL1	0	R1307N
1252.907	0.283	1367128	ORIENT_START	n/a	n/a	-999	-999	n/a	n/a	n/a	n/a	6	[0, 0, 0]	-999	PAL1	0	R1307N
1253.19	0.587	1367411	ORIENT_END	n/a	n/a	-999	-999	n/a	n/a	n/a	n/a	6	[0, 0, 0]	-999	PAL1	0	R1307N
1253.777	0.0	1367998	REC_START	n/a	n/a	5	3	PASTE	n/a	HEART	PASTE	6	[0, 0, 0]	-999	PAL1	0	R1307N
1253.777	0.093	1367998	PROBE_START	n/a	wordpools/wordpool_EN.txt	5	3	PASTE	n/a	HEART	PASTE	6	[0, 0, 0]	-999	PAL1	0	R1307N
1253.87	3.938	1368091	REC_EVENT	5990	n/a	6	2	SKUNK	<>	SKUNK	FLAG	6	[0, 0, 0]	-999	PAL1	0	R1307N
1257.808	1.0	1372029	PROBE_END	n/a	n/a	5	3	PASTE	n/a	HEART	PASTE	6	[0, 0, 0]	-999	PAL1	0	R1307N
1258.808	0.0	1373029	REC_END	n/a	n/a	5	3	PASTE	n/a	HEART	PASTE	6	[0, 0, 0]	-999	PAL1	0	R1307N
1258.808	0.283	1373029	ORIENT_START	n/a	n/a	-999	-999	n/a	n/a	n/a	n/a	6	[0, 0, 0]	-999	PAL1	0	R1307N
1259.091	0.572	1373312	ORIENT_END	n/a	n/a	-999	-999	n/a	n/a	n/a	n/a	6	[0, 0, 0]	-999	PAL1	0	R1307N
1259.663	0.172	1373884	REC_EVENT	5886	n/a	5	3	PASTE	<>	HEART	PASTE	6	[0, 0, 0]	-999	PAL1	0	R1307N
1259.835	0.0	1374056	REC_START	n/a	n/a	4	4	CAR	n/a	CAR	BLOOM	6	[0, 0, 0]	-999	PAL1	0	R1307N
1259.835	4.024	1374056	PROBE_START	n/a	wordpools/wordpool_EN.txt	4	4	CAR	n/a	CAR	BLOOM	6	[0, 0, 0]	-999	PAL1	0	R1307N
1263.859	1.0	1378081	PROBE_END	n/a	n/a	4	4	CAR	n/a	CAR	BLOOM	6	[0, 0, 0]	-999	PAL1	0	R1307N
1264.859	0.0	1379081	REC_END	n/a	n/a	4	4	CAR	n/a	CAR	BLOOM	6	[0, 0, 0]	-999	PAL1	0	R1307N
1264.859	0.284	1379081	ORIENT_START	n/a	n/a	-999	-999	n/a	n/a	n/a	n/a	6	[0, 0, 0]	-999	PAL1	0	R1307N
1265.143	0.569	1379365	ORIENT_END	n/a	n/a	-999	-999	n/a	n/a	n/a	n/a	6	[0, 0, 0]	-999	PAL1	0	R1307N
1265.712	0.0	1379934	REC_START	n/a	n/a	1	5	LAMB	n/a	POLE	LAMB	6	[0, 0, 0]	-999	PAL1	0	R1307N
1265.712	0.16	1379934	PROBE_START	n/a	wordpools/wordpool_EN.txt	1	5	LAMB	n/a	POLE	LAMB	6	[0, 0, 0]	-999	PAL1	0	R1307N
1265.872	3.871	1380094	REC_EVENT	6037	n/a	4	4	CAR	<>	CAR	BLOOM	6	[0, 0, 0]	-999	PAL1	0	R1307N
1269.743	1.0	1383965	PROBE_END	n/a	n/a	1	5	LAMB	n/a	POLE	LAMB	6	[0, 0, 0]	-999	PAL1	0	R1307N
1270.743	0.0	1384965	REC_END	n/a	n/a	1	5	LAMB	n/a	POLE	LAMB	6	[0, 0, 0]	-999	PAL1	0	R1307N
1270.743	0.284	1384965	ORIENT_START	n/a	n/a	-999	-999	n/a	n/a	n/a	n/a	6	[0, 0, 0]	-999	PAL1	0	R1307N
1271.027	0.539	1385249	ORIENT_END	n/a	n/a	-999	-999	n/a	n/a	n/a	n/a	6	[0, 0, 0]	-999	PAL1	0	R1307N
1271.566	0.0	1385788	REC_START	n/a	n/a	2	6	ELF	n/a	SHOE	ELF	6	[0, 0, 0]	-999	PAL1	0	R1307N
1271.566	0.026	1385788	PROBE_START	n/a	wordpools/wordpool_EN.txt	2	6	ELF	n/a	SHOE	ELF	6	[0, 0, 0]	-999	PAL1	0	R1307N
1271.592	4.002	1385814	REC_EVENT	5880	n/a	1	5	LAMB	<>	POLE	LAMB	6	[0, 0, 0]	-999	PAL1	0	R1307N
1275.594	1.0	1389816	PROBE_END	n/a	n/a	2	6	ELF	n/a	SHOE	ELF	6	[0, 0, 0]	-999	PAL1	0	R1307N
1276.594	0.0	1390816	REC_END	n/a	n/a	2	6	ELF	n/a	SHOE	ELF	6	[0, 0, 0]	-999	PAL1	0	R1307N
1276.594	0.0	1390816	RETRIEVAL_END	n/a	n/a	-999	-999	n/a	n/a	n/a	n/a	6	[0, 0, 0]	-999	PAL1	0	R1307N
1276.594	0.0	1390816	TRIAL_END	n/a	n/a	-999	-999	n/a	n/a	n/a	n/a	6	[0, 0, 0]	-999	PAL1	0	R1307N
1276.594	0.0	1390816	TRIAL_START	n/a	n/a	-999	-999	n/a	n/a	n/a	n/a	6	[0, 0, 0]	-999	PAL1	0	R1307N
1276.594	0.0	1390816	TRIAL	n/a	n/a	-999	-999	n/a	n/a	n/a	n/a	7	[0, 0, 0]	-999	PAL1	0	R1307N
1276.594	0.817	1390816	WAITING_START	n/a	n/a	-999	-999	n/a	n/a	n/a	n/a	7	[0, 0, 0]	-999	PAL1	0	R1307N
1277.411	3.051	1391633	REC_EVENT	5845	n/a	2	6	ELF	<>	SHOE	ELF	6	[0, 0, 0]	-999	PAL1	0	R1307N
1280.462	0.0	1394684	COUNTDOWN_START	n/a	n/a	-999	-999	n/a	n/a	n/a	n/a	7	[0, 0, 0]	-999	PAL1	0	R1307N
1280.462	0.0	1394684	ORIENT_START	n/a	n/a	-999	-999	n/a	n/a	n/a	n/a	7	[0, 0, 0]	-999	PAL1	0	R1307N
1280.462	0.0	1394684	WAITING_END	n/a	n/a	-999	-999	n/a	n/a	n/a	n/a	7	[0, 0, 0]	-999	PAL1	0	R1307N
1280.462	11.552	1394684	COUNTDOWN_END	n/a	n/a	-999	-999	n/a	n/a	n/a	n/a	7	[0, 0, 0]	-999	PAL1	0	R1307N
1292.014	0.0	1406237	ORIENT_END	n/a	n/a	-999	-999	n/a	n/a	n/a	n/a	7	[0, 0, 0]	-999	PAL1	0	R1307N
1292.014	0.553	1406237	ENCODING_START	n/a	n/a	-999	-999	n/a	n/a	n/a	n/a	7	[0, 0, 0]	-999	PAL1	0	R1307N
1292.567	4.031	1406790	STUDY_PAIR	n/a	wordpools/wordpool_EN.txt	1	-999	n/a	n/a	NAIL	MULE	7	[0, 0, 0]	-999	PAL1	0	R1307N
1296.598	0.554	1410821	STUDY_PAIR_OFF	n/a	n/a	1	-999	n/a	n/a	NAIL	MULE	7	[0, 0, 0]	-999	PAL1	0	R1307N
1297.152	4.03	1411375	STUDY_PAIR	n/a	wordpools/wordpool_EN.txt	2	-999	n/a	VEST	VEST	BAND	7	[0, 0, 0]	-999	PAL1	0	R1307N
1301.182	0.528	1415405	STUDY_PAIR_OFF	n/a	n/a	2	-999	n/a	VEST	VEST	BAND	7	[0, 0, 0]	-999	PAL1	0	R1307N
1301.71	4.039	1415933	STUDY_PAIR	n/a	wordpools/wordpool_EN.txt	3	-999	n/a	n/a	SEAL	STRING	7	[0, 0, 0]	-999	PAL1	0	R1307N
1305.749	0.667	1419972	STUDY_PAIR_OFF	n/a	n/a	3	-999	n/a	n/a	SEAL	STRING	7	[0, 0, 0]	-999	PAL1	0	R1307N
1306.416	4.034	1420639	STUDY_PAIR	n/a	wordpools/wordpool_EN.txt	4	-999	n/a	n/a	WALL	THUMB	7	[0, 0, 0]	-999	PAL1	0	R1307N
1310.45	0.713	1424673	STUDY_PAIR_OFF	n/a	n/a	4	-999	n/a	n/a	WALL	THUMB	7	[0, 0, 0]	-999	PAL1	0	R1307N
1311.163	4.037	1425386	STUDY_PAIR	n/a	wordpools/wordpool_EN.txt	5	-999	n/a	n/a	MUD	SPONGE	7	[0, 0, 0]	-999	PAL1	0	R1307N
1315.2	0.588	1429424	STUDY_PAIR_OFF	n/a	n/a	5	-999	n/a	n/a	MUD	SPONGE	7	[0, 0, 0]	-999	PAL1	0	R1307N
1315.788	4.03	1430012	STUDY_PAIR	n/a	wordpools/wordpool_EN.txt	6	-999	n/a	WOLF	DOG	ROOF	7	[0, 0, 0]	-999	PAL1	0	R1307N
1319.818	0.0	1434042	STUDY_PAIR_OFF	n/a	n/a	6	-999	n/a	WOLF	DOG	ROOF	7	[0, 0, 0]	-999	PAL1	0	R1307N
1319.818	0.0	1434042	ENCODING_END	n/a	n/a	-999	-999	n/a	n/a	n/a	n/a	7	[0, 0, 0]	-999	PAL1	0	R1307N
1319.818	0.002	1434042	MATH_START	n/a	n/a	-999	-999	n/a	n/a	n/a	n/a	7	[0, 0, 0]	-999	PAL1	0	R1307N
1319.82	0.015	1434044	START	n/a	n/a	-999	-999	n/a	n/a	n/a	n/a	7	[-999, -999, -999]	-999	PAL1	0	R1307N
1319.835	5.134	1434059	PROB	5101	n/a	-999	-999	n/a	n/a	n/a	n/a	7	[2, 5, 1]	8	PAL1	0	R1307N
1324.969	6.535	1439193	PROB	6512	n/a	-999	-999	n/a	n/a	n/a	n/a	7	[3, 2, 2]	7	PAL1	0	R1307N
1331.504	6.801	1445728	PROB	6776	n/a	-999	-999	n/a	n/a	n/a	n/a	7	[5, 4, 9]	18	PAL1	0	R1307N
1338.305	3.344	1452530	PROB	3344	n/a	-999	-999	n/a	n/a	n/a	n/a	7	[5, 9, 1]	15	PAL1	0	R1307N
1341.649	0.006	1455874	STOP	n/a	n/a	-999	-999	n/a	n/a	n/a	n/a	7	[-999, -999, -999]	-999	PAL1	0	R1307N
1341.655	0.504	1455880	MATH_END	n/a	n/a	-999	-999	n/a	n/a	n/a	n/a	7	[0, 0, 0]	-999	PAL1	0	R1307N
1342.159	0.0	1456384	RETRIEVAL_START	n/a	n/a	-999	-999	n/a	n/a	n/a	n/a	7	[0, 0, 0]	-999	PAL1	0	R1307N
1342.159	0.28	1456384	ORIENT_START	n/a	n/a	-999	-999	n/a	n/a	n/a	n/a	7	[0, 0, 0]	-999	PAL1	0	R1307N
1342.439	0.674	1456664	ORIENT_END	n/a	n/a	-999	-999	n/a	n/a	n/a	n/a	7	[0, 0, 0]	-999	PAL1	0	R1307N
1343.113	0.0	1457338	REC_START	n/a	n/a	5	1	MUD	n/a	MUD	SPONGE	7	[0, 0, 0]	-999	PAL1	0	R1307N
1343.113	4.026	1457338	PROBE_START	n/a	wordpools/wordpool_EN.txt	5	1	MUD	n/a	MUD	SPONGE	7	[0, 0, 0]	-999	PAL1	0	R1307N
1347.139	1.0	1461364	PROBE_END	n/a	n/a	5	1	MUD	n/a	MUD	SPONGE	7	[0, 0, 0]	-999	PAL1	0	R1307N
1348.139	0.0	1462364	REC_END	n/a	n/a	5	1	MUD	n/a	MUD	SPONGE	7	[0, 0, 0]	-999	PAL1	0	R1307N
1348.139	0.284	1462364	ORIENT_START	n/a	n/a	-999	-999	n/a	n/a	n/a	n/a	7	[0, 0, 0]	-999	PAL1	0	R1307N
1348.423	0.587	1462648	ORIENT_END	n/a	n/a	-999	-999	n/a	n/a	n/a	n/a	7	[0, 0, 0]	-999	PAL1	0	R1307N
1349.01	0.0	1463235	REC_START	n/a	n/a	6	2	DOG	WOLF	DOG	ROOF	7	[0, 0, 0]	-999	PAL1	0	R1307N
1349.01	0.082	1463235	PROBE_START	n/a	wordpools/wordpool_EN.txt	6	2	DOG	WOLF	DOG	ROOF	7	[0, 0, 0]	-999	PAL1	0	R1307N
1349.092	3.948	1463317	REC_EVENT	5979	n/a	5	1	MUD	<>	MUD	SPONGE	7	[0, 0, 0]	-999	PAL1	0	R1307N
1353.04	1.0	1467265	PROBE_END	n/a	n/a	6	2	DOG	n/a	DOG	ROOF	7	[0, 0, 0]	-999	PAL1	0	R1307N
1354.04	0.0	1468265	REC_END	n/a	n/a	6	2	DOG	n/a	DOG	ROOF	7	[0, 0, 0]	-999	PAL1	0	R1307N
1354.04	0.088	1468265	ORIENT_START	n/a	n/a	-999	-999	n/a	n/a	n/a	n/a	7	[0, 0, 0]	-999	PAL1	0	R1307N
1354.128	0.196	1468353	REC_EVENT	5118	n/a	6	2	DOG	WOLF	DOG	ROOF	7	[0, 0, 0]	-999	PAL1	0	R1307N
1354.324	0.703	1468549	ORIENT_END	n/a	n/a	-999	-999	n/a	n/a	n/a	n/a	7	[0, 0, 0]	-999	PAL1	0	R1307N
1355.027	0.0	1469252	REC_START	n/a	n/a	3	3	STRING	n/a	SEAL	STRING	7	[0, 0, 0]	-999	PAL1	0	R1307N
1355.027	4.031	1469252	PROBE_START	n/a	wordpools/wordpool_EN.txt	3	3	STRING	n/a	SEAL	STRING	7	[0, 0, 0]	-999	PAL1	0	R1307N
1359.058	1.0	1473283	PROBE_END	n/a	n/a	3	3	STRING	n/a	SEAL	STRING	7	[0, 0, 0]	-999	PAL1	0	R1307N
1360.058	0.0	1474283	REC_END	n/a	n/a	3	3	STRING	n/a	SEAL	STRING	7	[0, 0, 0]	-999	PAL1	0	R1307N
1360.058	0.284	1474283	ORIENT_START	n/a	n/a	-999	-999	n/a	n/a	n/a	n/a	7	[0, 0, 0]	-999	PAL1	0	R1307N
1360.342	0.576	1474567	ORIENT_END	n/a	n/a	-999	-999	n/a	n/a	n/a	n/a	7	[0, 0, 0]	-999	PAL1	0	R1307N
1360.918	0.0	1475144	REC_START	n/a	n/a	2	4	BAND	VEST	VEST	BAND	7	[0, 0, 0]	-999	PAL1	0	R1307N
1360.918	0.117	1475144	PROBE_START	n/a	wordpools/wordpool_EN.txt	2	4	BAND	VEST	VEST	BAND	7	[0, 0, 0]	-999	PAL1	0	R1307N
1361.035	2.936	1475261	REC_EVENT	6008	n/a	3	3	STRING	<>	SEAL	STRING	7	[0, 0, 0]	-999	PAL1	0	R1307N
1363.971	0.971	1478197	REC_EVENT	3053	n/a	2	4	BAND	VEST	VEST	BAND	7	[0, 0, 0]	-999	PAL1	0	R1307N
1364.942	1.0	1479168	PROBE_END	n/a	n/a	2	4	BAND	n/a	VEST	BAND	7	[0, 0, 0]	-999	PAL1	0	R1307N
1365.942	0.0	1480168	REC_END	n/a	n/a	2	4	BAND	n/a	VEST	BAND	7	[0, 0, 0]	-999	PAL1	0	R1307N
1365.942	0.284	1480168	ORIENT_START	n/a	n/a	-999	-999	n/a	n/a	n/a	n/a	7	[0, 0, 0]	-999	PAL1	0	R1307N
1366.226	0.566	1480452	ORIENT_END	n/a	n/a	-999	-999	n/a	n/a	n/a	n/a	7	[0, 0, 0]	-999	PAL1	0	R1307N
1366.792	0.095	1481018	REC_EVENT	5874	n/a	2	4	BAND	<>	VEST	BAND	7	[0, 0, 0]	-999	PAL1	0	R1307N
1366.887	0.0	1481113	PROBE_START	n/a	wordpools/wordpool_EN.txt	1	5	NAIL	n/a	NAIL	MULE	7	[0, 0, 0]	-999	PAL1	0	R1307N
1366.887	4.023	1481113	REC_START	n/a	n/a	1	5	NAIL	n/a	NAIL	MULE	7	[0, 0, 0]	-999	PAL1	0	R1307N
1370.91	1.0	1485136	PROBE_END	n/a	n/a	1	5	NAIL	n/a	NAIL	MULE	7	[0, 0, 0]	-999	PAL1	0	R1307N
1371.91	0.0	1486136	REC_END	n/a	n/a	1	5	NAIL	n/a	NAIL	MULE	7	[0, 0, 0]	-999	PAL1	0	R1307N
1371.91	0.283	1486136	ORIENT_START	n/a	n/a	-999	-999	n/a	n/a	n/a	n/a	7	[0, 0, 0]	-999	PAL1	0	R1307N
1372.193	0.649	1486419	ORIENT_END	n/a	n/a	-999	-999	n/a	n/a	n/a	n/a	7	[0, 0, 0]	-999	PAL1	0	R1307N
1372.842	0.007	1487068	REC_EVENT	5955	n/a	1	5	NAIL	<>	NAIL	MULE	7	[0, 0, 0]	-999	PAL1	0	R1307N
1372.849	0.0	1487075	REC_START	n/a	n/a	4	6	THUMB	n/a	WALL	THUMB	7	[0, 0, 0]	-999	PAL1	0	R1307N
1372.849	4.029	1487075	PROBE_START	n/a	wordpools/wordpool_EN.txt	4	6	THUMB	n/a	WALL	THUMB	7	[0, 0, 0]	-999	PAL1	0	R1307N
1376.878	1.0	1491104	PROBE_END	n/a	n/a	4	6	THUMB	n/a	WALL	THUMB	7	[0, 0, 0]	-999	PAL1	0	R1307N
1377.878	0.0	1492104	TRIAL_START	n/a	n/a	-999	-999	n/a	n/a	n/a	n/a	7	[0, 0, 0]	-999	PAL1	0	R1307N
1377.878	0.0	1492104	TRIAL	n/a	n/a	-999	-999	n/a	n/a	n/a	n/a	8	[0, 0, 0]	-999	PAL1	0	R1307N
1377.878	0.0	1492104	TRIAL_END	n/a	n/a	-999	-999	n/a	n/a	n/a	n/a	7	[0, 0, 0]	-999	PAL1	0	R1307N
1377.878	0.0	1492104	WAITING_START	n/a	n/a	-999	-999	n/a	n/a	n/a	n/a	8	[0, 0, 0]	-999	PAL1	0	R1307N
1377.878	0.0	1492104	REC_END	n/a	n/a	4	6	THUMB	n/a	WALL	THUMB	7	[0, 0, 0]	-999	PAL1	0	R1307N
1377.878	0.932	1492104	RETRIEVAL_END	n/a	n/a	-999	-999	n/a	n/a	n/a	n/a	7	[0, 0, 0]	-999	PAL1	0	R1307N
1378.81	7.519	1493036	REC_EVENT	5961	n/a	4	6	THUMB	<>	WALL	THUMB	7	[0, 0, 0]	-999	PAL1	0	R1307N
1386.329	0.0	1500556	COUNTDOWN_END	n/a	n/a	-999	-999	n/a	n/a	n/a	n/a	8	[0, 0, 0]	-999	PAL1	0	R1307N
1386.329	0.0	1500556	ORIENT_START	n/a	n/a	-999	-999	n/a	n/a	n/a	n/a	8	[0, 0, 0]	-999	PAL1	0	R1307N
1386.329	0.0	1500556	WAITING_END	n/a	n/a	-999	-999	n/a	n/a	n/a	n/a	8	[0, 0, 0]	-999	PAL1	0	R1307N
1386.329	11.519	1500556	COUNTDOWN_START	n/a	n/a	-999	-999	n/a	n/a	n/a	n/a	8	[0, 0, 0]	-999	PAL1	0	R1307N
1397.848	0.0	1512075	ORIENT_END	n/a	n/a	-999	-999	n/a	n/a	n/a	n/a	8	[0, 0, 0]	-999	PAL1	0	R1307N
1397.848	0.545	1512075	ENCODING_START	n/a	n/a	-999	-999	n/a	n/a	n/a	n/a	8	[0, 0, 0]	-999	PAL1	0	R1307N
1398.393	4.039	1512620	STUDY_PAIR	n/a	wordpools/wordpool_EN.txt	1	-999	n/a	n/a	SLIME	CHIEF	8	[0, 0, 0]	-999	PAL1	0	R1307N
1402.432	0.603	1516659	STUDY_PAIR_OFF	n/a	n/a	1	-999	n/a	n/a	SLIME	CHIEF	8	[0, 0, 0]	-999	PAL1	0	R1307N
1403.035	4.031	1517262	STUDY_PAIR	n/a	wordpools/wordpool_EN.txt	2	-999	n/a	n/a	FUDGE	MOOSE	8	[0, 0, 0]	-999	PAL1	0	R1307N
1407.066	0.699	1521293	STUDY_PAIR_OFF	n/a	n/a	2	-999	n/a	n/a	FUDGE	MOOSE	8	[0, 0, 0]	-999	PAL1	0	R1307N
1407.765	4.035	1521992	STUDY_PAIR	n/a	wordpools/wordpool_EN.txt	3	-999	n/a	n/a	FARM	FUR	8	[0, 0, 0]	-999	PAL1	0	R1307N
1411.8	0.524	1526028	STUDY_PAIR_OFF	n/a	n/a	3	-999	n/a	n/a	FARM	FUR	8	[0, 0, 0]	-999	PAL1	0	R1307N
1412.324	4.027	1526552	STUDY_PAIR	n/a	wordpools/wordpool_EN.txt	4	-999	n/a	n/a	PARK	FORK	8	[0, 0, 0]	-999	PAL1	0	R1307N
1416.351	0.519	1530579	STUDY_PAIR_OFF	n/a	n/a	4	-999	n/a	n/a	PARK	FORK	8	[0, 0, 0]	-999	PAL1	0	R1307N
1416.87	4.032	1531098	STUDY_PAIR	n/a	wordpools/wordpool_EN.txt	5	-999	n/a	n/a	KEY	GOAT	8	[0, 0, 0]	-999	PAL1	0	R1307N
1420.902	0.748	1535130	STUDY_PAIR_OFF	n/a	n/a	5	-999	n/a	n/a	KEY	GOAT	8	[0, 0, 0]	-999	PAL1	0	R1307N
1421.65	4.036	1535878	STUDY_PAIR	n/a	wordpools/wordpool_EN.txt	6	-999	n/a	n/a	CUP	BOAT	8	[0, 0, 0]	-999	PAL1	0	R1307N
1425.686	0.0	1539914	STUDY_PAIR_OFF	n/a	n/a	6	-999	n/a	n/a	CUP	BOAT	8	[0, 0, 0]	-999	PAL1	0	R1307N
1425.686	0.0	1539914	ENCODING_END	n/a	n/a	-999	-999	n/a	n/a	n/a	n/a	8	[0, 0, 0]	-999	PAL1	0	R1307N
1425.686	0.001	1539914	MATH_START	n/a	n/a	-999	-999	n/a	n/a	n/a	n/a	8	[0, 0, 0]	-999	PAL1	0	R1307N
1425.687	0.015	1539915	START	n/a	n/a	-999	-999	n/a	n/a	n/a	n/a	8	[-999, -999, -999]	-999	PAL1	0	R1307N
1425.702	6.401	1539930	PROB	6379	n/a	-999	-999	n/a	n/a	n/a	n/a	8	[3, 9, 6]	18	PAL1	0	R1307N
1432.103	4.167	1546331	PROB	4137	n/a	-999	-999	n/a	n/a	n/a	n/a	8	[1, 5, 3]	9	PAL1	0	R1307N
1436.27	3.101	1550499	PROB	3074	n/a	-999	-999	n/a	n/a	n/a	n/a	8	[9, 8, 1]	18	PAL1	0	R1307N
1439.371	4.268	1553600	PROB	4246	n/a	-999	-999	n/a	n/a	n/a	n/a	8	[9, 4, 5]	18	PAL1	0	R1307N
1443.639	3.098	1557868	PROB	3098	n/a	-999	-999	n/a	n/a	n/a	n/a	8	[1, 6, 9]	16	PAL1	0	R1307N
1446.737	0.019	1560966	STOP	n/a	n/a	-999	-999	n/a	n/a	n/a	n/a	8	[-999, -999, -999]	-999	PAL1	0	R1307N
1446.756	0.609	1560985	MATH_END	n/a	n/a	-999	-999	n/a	n/a	n/a	n/a	8	[0, 0, 0]	-999	PAL1	0	R1307N
1447.365	0.0	1561594	RETRIEVAL_START	n/a	n/a	-999	-999	n/a	n/a	n/a	n/a	8	[0, 0, 0]	-999	PAL1	0	R1307N
1447.365	0.274	1561594	ORIENT_START	n/a	n/a	-999	-999	n/a	n/a	n/a	n/a	8	[0, 0, 0]	-999	PAL1	0	R1307N
1447.639	0.625	1561868	ORIENT_END	n/a	n/a	-999	-999	n/a	n/a	n/a	n/a	8	[0, 0, 0]	-999	PAL1	0	R1307N
1448.264	0.0	1562493	REC_START	n/a	n/a	3	1	FUR	n/a	FARM	FUR	8	[0, 0, 0]	-999	PAL1	0	R1307N
1448.264	4.026	1562493	PROBE_START	n/a	wordpools/wordpool_EN.txt	3	1	FUR	n/a	FARM	FUR	8	[0, 0, 0]	-999	PAL1	0	R1307N
1452.29	1.0	1566519	PROBE_END	n/a	n/a	3	1	FUR	n/a	FARM	FUR	8	[0, 0, 0]	-999	PAL1	0	R1307N
1453.29	0.0	1567519	REC_END	n/a	n/a	3	1	FUR	n/a	FARM	FUR	8	[0, 0, 0]	-999	PAL1	0	R1307N
1453.29	0.284	1567519	ORIENT_START	n/a	n/a	-999	-999	n/a	n/a	n/a	n/a	8	[0, 0, 0]	-999	PAL1	0	R1307N
1453.574	0.611	1567803	ORIENT_END	n/a	n/a	-999	-999	n/a	n/a	n/a	n/a	8	[0, 0, 0]	-999	PAL1	0	R1307N
1454.185	0.099	1568414	REC_EVENT	5921	n/a	3	1	FUR	<>	FARM	FUR	8	[0, 0, 0]	-999	PAL1	0	R1307N
1454.284	0.0	1568513	REC_START	n/a	n/a	4	2	PARK	n/a	PARK	FORK	8	[0, 0, 0]	-999	PAL1	0	R1307N
1454.284	4.024	1568513	PROBE_START	n/a	wordpools/wordpool_EN.txt	4	2	PARK	n/a	PARK	FORK	8	[0, 0, 0]	-999	PAL1	0	R1307N
1458.308	1.0	1572538	PROBE_END	n/a	n/a	4	2	PARK	n/a	PARK	FORK	8	[0, 0, 0]	-999	PAL1	0	R1307N
1459.308	0.0	1573538	REC_END	n/a	n/a	4	2	PARK	n/a	PARK	FORK	8	[0, 0, 0]	-999	PAL1	0	R1307N
1459.308	0.283	1573538	ORIENT_START	n/a	n/a	-999	-999	n/a	n/a	n/a	n/a	8	[0, 0, 0]	-999	PAL1	0	R1307N
1459.591	0.666	1573821	ORIENT_END	n/a	n/a	-999	-999	n/a	n/a	n/a	n/a	8	[0, 0, 0]	-999	PAL1	0	R1307N
1460.257	0.0	1574487	REC_START	n/a	n/a	5	3	KEY	n/a	KEY	GOAT	8	[0, 0, 0]	-999	PAL1	0	R1307N
1460.257	0.035	1574487	PROBE_START	n/a	wordpools/wordpool_EN.txt	5	3	KEY	n/a	KEY	GOAT	8	[0, 0, 0]	-999	PAL1	0	R1307N
1460.292	2.434	1574522	REC_EVENT	6008	n/a	4	2	PARK	<>	PARK	FORK	8	[0, 0, 0]	-999	PAL1	0	R1307N
1462.726	1.566	1576956	REC_EVENT	2469	n/a	5	3	KEY	<>	KEY	GOAT	8	[0, 0, 0]	-999	PAL1	0	R1307N
1464.292	1.0	1578522	PROBE_END	n/a	n/a	5	3	KEY	n/a	KEY	GOAT	8	[0, 0, 0]	-999	PAL1	0	R1307N
1465.292	0.0	1579522	REC_END	n/a	n/a	5	3	KEY	n/a	KEY	GOAT	8	[0, 0, 0]	-999	PAL1	0	R1307N
1465.292	0.284	1579522	ORIENT_START	n/a	n/a	-999	-999	n/a	n/a	n/a	n/a	8	[0, 0, 0]	-999	PAL1	0	R1307N
1465.576	0.628	1579806	ORIENT_END	n/a	n/a	-999	-999	n/a	n/a	n/a	n/a	8	[0, 0, 0]	-999	PAL1	0	R1307N
1466.204	0.0	1580434	PROBE_START	n/a	wordpools/wordpool_EN.txt	6	4	BOAT	n/a	CUP	BOAT	8	[0, 0, 0]	-999	PAL1	0	R1307N
1466.204	0.026	1580434	REC_START	n/a	n/a	6	4	BOAT	n/a	CUP	BOAT	8	[0, 0, 0]	-999	PAL1	0	R1307N
1466.23	3.996	1580460	REC_EVENT	5973	n/a	5	3	KEY	<>	KEY	GOAT	8	[0, 0, 0]	-999	PAL1	0	R1307N
1470.226	1.0	1584456	PROBE_END	n/a	n/a	6	4	BOAT	n/a	CUP	BOAT	8	[0, 0, 0]	-999	PAL1	0	R1307N
1471.226	0.0	1585456	REC_END	n/a	n/a	6	4	BOAT	n/a	CUP	BOAT	8	[0, 0, 0]	-999	PAL1	0	R1307N
1471.226	0.267	1585456	ORIENT_START	n/a	n/a	-999	-999	n/a	n/a	n/a	n/a	8	[0, 0, 0]	-999	PAL1	0	R1307N
1471.493	0.632	1585723	ORIENT_END	n/a	n/a	-999	-999	n/a	n/a	n/a	n/a	8	[0, 0, 0]	-999	PAL1	0	R1307N
1472.125	0.02	1586355	REC_EVENT	5921	n/a	6	4	BOAT	<>	CUP	BOAT	8	[0, 0, 0]	-999	PAL1	0	R1307N
1472.145	0.0	1586375	REC_START	n/a	n/a	1	5	CHIEF	n/a	SLIME	CHIEF	8	[0, 0, 0]	-999	PAL1	0	R1307N
1472.145	4.032	1586375	PROBE_START	n/a	wordpools/wordpool_EN.txt	1	5	CHIEF	n/a	SLIME	CHIEF	8	[0, 0, 0]	-999	PAL1	0	R1307N
1476.177	1.0	1590407	PROBE_END	n/a	n/a	1	5	CHIEF	n/a	SLIME	CHIEF	8	[0, 0, 0]	-999	PAL1	0	R1307N
1477.177	0.0	1591407	REC_END	n/a	n/a	1	5	CHIEF	n/a	SLIME	CHIEF	8	[0, 0, 0]	-999	PAL1	0	R1307N
1477.177	0.284	1591407	ORIENT_START	n/a	n/a	-999	-999	n/a	n/a	n/a	n/a	8	[0, 0, 0]	-999	PAL1	0	R1307N
1477.461	0.621	1591691	ORIENT_END	n/a	n/a	-999	-999	n/a	n/a	n/a	n/a	8	[0, 0, 0]	-999	PAL1	0	R1307N
1478.082	0.0	1592312	REC_START	n/a	n/a	2	6	FUDGE	n/a	FUDGE	MOOSE	8	[0, 0, 0]	-999	PAL1	0	R1307N
1478.082	0.001	1592312	PROBE_START	n/a	wordpools/wordpool_EN.txt	2	6	FUDGE	n/a	FUDGE	MOOSE	8	[0, 0, 0]	-999	PAL1	0	R1307N
1478.083	4.012	1592313	REC_EVENT	5938	n/a	1	5	CHIEF	<>	SLIME	CHIEF	8	[0, 0, 0]	-999	PAL1	0	R1307N
1482.095	1.0	1596326	PROBE_END	n/a	n/a	2	6	FUDGE	n/a	FUDGE	MOOSE	8	[0, 0, 0]	-999	PAL1	0	R1307N
1483.095	0.0	1597326	REC_END	n/a	n/a	2	6	FUDGE	n/a	FUDGE	MOOSE	8	[0, 0, 0]	-999	PAL1	0	R1307N
1483.095	0.0	1597326	RETRIEVAL_END	n/a	n/a	-999	-999	n/a	n/a	n/a	n/a	8	[0, 0, 0]	-999	PAL1	0	R1307N
1483.095	0.0	1597326	TRIAL_END	n/a	n/a	-999	-999	n/a	n/a	n/a	n/a	8	[0, 0, 0]	-999	PAL1	0	R1307N
1483.095	0.0	1597326	TRIAL_START	n/a	n/a	-999	-999	n/a	n/a	n/a	n/a	8	[0, 0, 0]	-999	PAL1	0	R1307N
1483.095	0.0	1597326	TRIAL	n/a	n/a	-999	-999	n/a	n/a	n/a	n/a	9	[0, 0, 0]	-999	PAL1	0	R1307N
1483.095	0.896	1597326	WAITING_START	n/a	n/a	-999	-999	n/a	n/a	n/a	n/a	9	[0, 0, 0]	-999	PAL1	0	R1307N
1483.991	1.221	1598222	REC_EVENT	5909	n/a	2	6	FUDGE	<>	FUDGE	MOOSE	8	[0, 0, 0]	-999	PAL1	0	R1307N
1485.212	0.0	1599443	COUNTDOWN_START	n/a	n/a	-999	-999	n/a	n/a	n/a	n/a	9	[0, 0, 0]	-999	PAL1	0	R1307N
1485.212	0.0	1599443	ORIENT_START	n/a	n/a	-999	-999	n/a	n/a	n/a	n/a	9	[0, 0, 0]	-999	PAL1	0	R1307N
1485.212	0.0	1599443	WAITING_END	n/a	n/a	-999	-999	n/a	n/a	n/a	n/a	9	[0, 0, 0]	-999	PAL1	0	R1307N
1485.212	11.535	1599443	COUNTDOWN_END	n/a	n/a	-999	-999	n/a	n/a	n/a	n/a	9	[0, 0, 0]	-999	PAL1	0	R1307N
1496.747	0.0	1610978	ORIENT_END	n/a	n/a	-999	-999	n/a	n/a	n/a	n/a	9	[0, 0, 0]	-999	PAL1	0	R1307N
1496.747	0.743	1610978	ENCODING_START	n/a	n/a	-999	-999	n/a	n/a	n/a	n/a	9	[0, 0, 0]	-999	PAL1	0	R1307N
1497.49	4.042	1611721	STUDY_PAIR	n/a	wordpools/wordpool_EN.txt	1	-999	n/a	n/a	BRIDGE	CANE	9	[0, 0, 0]	-999	PAL1	0	R1307N
1501.532	0.603	1615763	STUDY_PAIR_OFF	n/a	n/a	1	-999	n/a	n/a	BRIDGE	CANE	9	[0, 0, 0]	-999	PAL1	0	R1307N
1502.135	4.031	1616366	STUDY_PAIR	n/a	wordpools/wordpool_EN.txt	2	-999	n/a	n/a	CAKE	HORN	9	[0, 0, 0]	-999	PAL1	0	R1307N
1506.166	0.677	1620398	STUDY_PAIR_OFF	n/a	n/a	2	-999	n/a	n/a	CAKE	HORN	9	[0, 0, 0]	-999	PAL1	0	R1307N
1506.843	4.04	1621075	STUDY_PAIR	n/a	wordpools/wordpool_EN.txt	3	-999	n/a	n/a	APE	PET	9	[0, 0, 0]	-999	PAL1	0	R1307N
1510.883	0.709	1625115	STUDY_PAIR_OFF	n/a	n/a	3	-999	n/a	n/a	APE	PET	9	[0, 0, 0]	-999	PAL1	0	R1307N
1511.592	4.025	1625824	STUDY_PAIR	n/a	wordpools/wordpool_EN.txt	4	-999	n/a	NEST	NEST	BADGE	9	[0, 0, 0]	-999	PAL1	0	R1307N
1515.617	0.649	1629849	STUDY_PAIR_OFF	n/a	n/a	4	-999	n/a	NEST	NEST	BADGE	9	[0, 0, 0]	-999	PAL1	0	R1307N
1516.266	4.035	1630498	STUDY_PAIR	n/a	wordpools/wordpool_EN.txt	5	-999	n/a	n/a	STEAM	MAIL	9	[0, 0, 0]	-999	PAL1	0	R1307N
1520.301	0.643	1634533	STUDY_PAIR_OFF	n/a	n/a	5	-999	n/a	n/a	STEAM	MAIL	9	[0, 0, 0]	-999	PAL1	0	R1307N
1520.944	4.025	1635176	STUDY_PAIR	n/a	wordpools/wordpool_EN.txt	6	-999	n/a	n/a	VASE	PIT	9	[0, 0, 0]	-999	PAL1	0	R1307N
1524.969	0.0	1639201	STUDY_PAIR_OFF	n/a	n/a	6	-999	n/a	n/a	VASE	PIT	9	[0, 0, 0]	-999	PAL1	0	R1307N
1524.969	0.0	1639201	ENCODING_END	n/a	n/a	-999	-999	n/a	n/a	n/a	n/a	9	[0, 0, 0]	-999	PAL1	0	R1307N
1524.969	0.001	1639201	MATH_START	n/a	n/a	-999	-999	n/a	n/a	n/a	n/a	9	[0, 0, 0]	-999	PAL1	0	R1307N
1524.97	0.015	1639202	START	n/a	n/a	-999	-999	n/a	n/a	n/a	n/a	9	[-999, -999, -999]	-999	PAL1	0	R1307N
1524.985	8.035	1639217	PROB	8008	n/a	-999	-999	n/a	n/a	n/a	n/a	9	[8, 7, 2]	17	PAL1	0	R1307N
1533.02	7.651	1647253	PROB	7613	n/a	-999	-999	n/a	n/a	n/a	n/a	9	[4, 2, 9]	15	PAL1	0	R1307N
1540.671	11.186	1654904	PROB	11186	n/a	-999	-999	n/a	n/a	n/a	n/a	9	[5, 8, 7]	20	PAL1	0	R1307N
1551.857	0.016	1666090	STOP	n/a	n/a	-999	-999	n/a	n/a	n/a	n/a	9	[-999, -999, -999]	-999	PAL1	0	R1307N
1551.873	0.515	1666106	MATH_END	n/a	n/a	-999	-999	n/a	n/a	n/a	n/a	9	[0, 0, 0]	-999	PAL1	0	R1307N
1552.388	0.0	1666621	RETRIEVAL_START	n/a	n/a	-999	-999	n/a	n/a	n/a	n/a	9	[0, 0, 0]	-999	PAL1	0	R1307N
1552.388	0.285	1666621	ORIENT_START	n/a	n/a	-999	-999	n/a	n/a	n/a	n/a	9	[0, 0, 0]	-999	PAL1	0	R1307N
1552.673	0.563	1666906	ORIENT_END	n/a	n/a	-999	-999	n/a	n/a	n/a	n/a	9	[0, 0, 0]	-999	PAL1	0	R1307N
1553.236	0.0	1667469	REC_START	n/a	n/a	3	1	PET	n/a	APE	PET	9	[0, 0, 0]	-999	PAL1	0	R1307N
1553.236	4.037	1667469	PROBE_START	n/a	wordpools/wordpool_EN.txt	3	1	PET	n/a	APE	PET	9	[0, 0, 0]	-999	PAL1	0	R1307N
1557.273	1.0	1671507	PROBE_END	n/a	n/a	3	1	PET	n/a	APE	PET	9	[0, 0, 0]	-999	PAL1	0	R1307N
1558.273	0.0	1672507	REC_END	n/a	n/a	3	1	PET	n/a	APE	PET	9	[0, 0, 0]	-999	PAL1	0	R1307N
1558.273	0.285	1672507	ORIENT_START	n/a	n/a	-999	-999	n/a	n/a	n/a	n/a	9	[0, 0, 0]	-999	PAL1	0	R1307N
1558.558	0.558	1672792	ORIENT_END	n/a	n/a	-999	-999	n/a	n/a	n/a	n/a	9	[0, 0, 0]	-999	PAL1	0	R1307N
1559.116	0.086	1673350	REC_EVENT	5880	n/a	3	1	PET	<>	APE	PET	9	[0, 0, 0]	-999	PAL1	0	R1307N
1559.202	0.0	1673436	REC_START	n/a	n/a	6	2	PIT	n/a	VASE	PIT	9	[0, 0, 0]	-999	PAL1	0	R1307N
1559.202	4.023	1673436	PROBE_START	n/a	wordpools/wordpool_EN.txt	6	2	PIT	n/a	VASE	PIT	9	[0, 0, 0]	-999	PAL1	0	R1307N
1563.225	1.0	1677459	PROBE_END	n/a	n/a	6	2	PIT	n/a	VASE	PIT	9	[0, 0, 0]	-999	PAL1	0	R1307N
1564.225	0.0	1678459	REC_END	n/a	n/a	6	2	PIT	n/a	VASE	PIT	9	[0, 0, 0]	-999	PAL1	0	R1307N
1564.225	0.284	1678459	ORIENT_START	n/a	n/a	-999	-999	n/a	n/a	n/a	n/a	9	[0, 0, 0]	-999	PAL1	0	R1307N
1564.509	0.637	1678743	ORIENT_END	n/a	n/a	-999	-999	n/a	n/a	n/a	n/a	9	[0, 0, 0]	-999	PAL1	0	R1307N
1565.146	0.105	1679380	REC_EVENT	5944	n/a	6	2	PIT	<>	VASE	PIT	9	[0, 0, 0]	-999	PAL1	0	R1307N
1565.251	0.0	1679485	REC_START	n/a	n/a	1	3	BRIDGE	n/a	BRIDGE	CANE	9	[0, 0, 0]	-999	PAL1	0	R1307N
1565.251	4.024	1679485	PROBE_START	n/a	wordpools/wordpool_EN.txt	1	3	BRIDGE	n/a	BRIDGE	CANE	9	[0, 0, 0]	-999	PAL1	0	R1307N
1569.275	1.0	1683509	PROBE_END	n/a	n/a	1	3	BRIDGE	n/a	BRIDGE	CANE	9	[0, 0, 0]	-999	PAL1	0	R1307N
1570.275	0.0	1684509	REC_END	n/a	n/a	1	3	BRIDGE	n/a	BRIDGE	CANE	9	[0, 0, 0]	-999	PAL1	0	R1307N
1570.275	0.284	1684509	ORIENT_START	n/a	n/a	-999	-999	n/a	n/a	n/a	n/a	9	[0, 0, 0]	-999	PAL1	0	R1307N
1570.559	0.518	1684793	ORIENT_END	n/a	n/a	-999	-999	n/a	n/a	n/a	n/a	9	[0, 0, 0]	-999	PAL1	0	R1307N
1571.077	0.0	1685311	PROBE_START	n/a	wordpools/wordpool_EN.txt	4	4	NEST	NEST	NEST	BADGE	9	[0, 0, 0]	-999	PAL1	0	R1307N
1571.077	0.211	1685311	REC_START	n/a	n/a	4	4	NEST	NEST	NEST	BADGE	9	[0, 0, 0]	-999	PAL1	0	R1307N
1571.288	3.276	1685522	REC_EVENT	6037	n/a	1	3	BRIDGE	<>	BRIDGE	CANE	9	[0, 0, 0]	-999	PAL1	0	R1307N
1574.564	0.546	1688798	REC_EVENT	3487	n/a	4	4	NEST	NEST	NEST	BADGE	9	[0, 0, 0]	-999	PAL1	0	R1307N
1575.11	1.0	1689344	PROBE_END	n/a	n/a	4	4	NEST	n/a	NEST	BADGE	9	[0, 0, 0]	-999	PAL1	0	R1307N
1576.11	0.0	1690344	REC_END	n/a	n/a	4	4	NEST	n/a	NEST	BADGE	9	[0, 0, 0]	-999	PAL1	0	R1307N
1576.11	0.284	1690344	ORIENT_START	n/a	n/a	-999	-999	n/a	n/a	n/a	n/a	9	[0, 0, 0]	-999	PAL1	0	R1307N
1576.394	0.511	1690628	ORIENT_END	n/a	n/a	-999	-999	n/a	n/a	n/a	n/a	9	[0, 0, 0]	-999	PAL1	0	R1307N
1576.905	0.044	1691139	REC_EVENT	5828	n/a	4	4	NEST	<>	NEST	BADGE	9	[0, 0, 0]	-999	PAL1	0	R1307N
1576.949	0.0	1691183	REC_START	n/a	n/a	5	5	MAIL	n/a	STEAM	MAIL	9	[0, 0, 0]	-999	PAL1	0	R1307N
1576.949	4.029	1691183	PROBE_START	n/a	wordpools/wordpool_EN.txt	5	5	MAIL	n/a	STEAM	MAIL	9	[0, 0, 0]	-999	PAL1	0	R1307N
1580.978	1.0	1695213	PROBE_END	n/a	n/a	5	5	MAIL	n/a	STEAM	MAIL	9	[0, 0, 0]	-999	PAL1	0	R1307N
1581.978	0.0	1696213	REC_END	n/a	n/a	5	5	MAIL	n/a	STEAM	MAIL	9	[0, 0, 0]	-999	PAL1	0	R1307N
1581.978	0.283	1696213	ORIENT_START	n/a	n/a	-999	-999	n/a	n/a	n/a	n/a	9	[0, 0, 0]	-999	PAL1	0	R1307N
1582.261	0.522	1696496	ORIENT_END	n/a	n/a	-999	-999	n/a	n/a	n/a	n/a	9	[0, 0, 0]	-999	PAL1	0	R1307N
1582.783	0.0	1697018	REC_START	n/a	n/a	2	6	CAKE	n/a	CAKE	HORN	9	[0, 0, 0]	-999	PAL1	0	R1307N
1582.783	0.023	1697018	PROBE_START	n/a	wordpools/wordpool_EN.txt	2	6	CAKE	n/a	CAKE	HORN	9	[0, 0, 0]	-999	PAL1	0	R1307N
1582.806	4.006	1697041	REC_EVENT	5857	n/a	5	5	MAIL	<>	STEAM	MAIL	9	[0, 0, 0]	-999	PAL1	0	R1307N
1586.812	1.0	1701047	PROBE_END	n/a	n/a	2	6	CAKE	n/a	CAKE	HORN	9	[0, 0, 0]	-999	PAL1	0	R1307N
1587.812	0.0	1702047	WAITING_START	n/a	n/a	-999	-999	n/a	n/a	n/a	n/a	10	[0, 0, 0]	-999	PAL1	0	R1307N
1587.812	0.0	1702047	REC_END	n/a	n/a	2	6	CAKE	n/a	CAKE	HORN	9	[0, 0, 0]	-999	PAL1	0	R1307N
1587.812	0.0	1702047	RETRIEVAL_END	n/a	n/a	-999	-999	n/a	n/a	n/a	n/a	9	[0, 0, 0]	-999	PAL1	0	R1307N
1587.812	0.0	1702047	TRIAL_END	n/a	n/a	-999	-999	n/a	n/a	n/a	n/a	9	[0, 0, 0]	-999	PAL1	0	R1307N
1587.812	0.0	1702047	TRIAL_START	n/a	n/a	-999	-999	n/a	n/a	n/a	n/a	9	[0, 0, 0]	-999	PAL1	0	R1307N
1587.812	0.793	1702047	TRIAL	n/a	n/a	-999	-999	n/a	n/a	n/a	n/a	10	[0, 0, 0]	-999	PAL1	0	R1307N
1588.605	4.758	1702840	REC_EVENT	5822	n/a	2	6	CAKE	<>	CAKE	HORN	9	[0, 0, 0]	-999	PAL1	0	R1307N
1593.363	0.0	1707598	COUNTDOWN_END	n/a	n/a	-999	-999	n/a	n/a	n/a	n/a	10	[0, 0, 0]	-999	PAL1	0	R1307N
1593.363	0.0	1707598	ORIENT_START	n/a	n/a	-999	-999	n/a	n/a	n/a	n/a	10	[0, 0, 0]	-999	PAL1	0	R1307N
1593.363	0.0	1707598	WAITING_END	n/a	n/a	-999	-999	n/a	n/a	n/a	n/a	10	[0, 0, 0]	-999	PAL1	0	R1307N
1593.363	11.469	1707598	COUNTDOWN_START	n/a	n/a	-999	-999	n/a	n/a	n/a	n/a	10	[0, 0, 0]	-999	PAL1	0	R1307N
1604.832	0.0	1719068	ORIENT_END	n/a	n/a	-999	-999	n/a	n/a	n/a	n/a	10	[0, 0, 0]	-999	PAL1	0	R1307N
1604.832	0.631	1719068	ENCODING_START	n/a	n/a	-999	-999	n/a	n/a	n/a	n/a	10	[0, 0, 0]	-999	PAL1	0	R1307N
1605.463	4.036	1719699	STUDY_PAIR	n/a	wordpools/wordpool_EN.txt	1	-999	n/a	n/a	BANK	SIGN	10	[0, 0, 0]	-999	PAL1	0	R1307N
1609.499	0.626	1723735	STUDY_PAIR_OFF	n/a	n/a	1	-999	n/a	n/a	BANK	SIGN	10	[0, 0, 0]	-999	PAL1	0	R1307N
1610.125	4.025	1724361	STUDY_PAIR	n/a	wordpools/wordpool_EN.txt	2	-999	n/a	n/a	ROSE	EEL	10	[0, 0, 0]	-999	PAL1	0	R1307N
1614.15	0.612	1728386	STUDY_PAIR_OFF	n/a	n/a	2	-999	n/a	n/a	ROSE	EEL	10	[0, 0, 0]	-999	PAL1	0	R1307N
1614.762	4.039	1728998	STUDY_PAIR	n/a	wordpools/wordpool_EN.txt	3	-999	n/a	n/a	TRUCK	TOY	10	[0, 0, 0]	-999	PAL1	0	R1307N
1618.801	0.745	1733037	STUDY_PAIR_OFF	n/a	n/a	3	-999	n/a	n/a	TRUCK	TOY	10	[0, 0, 0]	-999	PAL1	0	R1307N
1619.546	4.039	1733782	STUDY_PAIR	n/a	wordpools/wordpool_EN.txt	4	-999	n/a	n/a	BENCH	STOOL	10	[0, 0, 0]	-999	PAL1	0	R1307N
1623.585	0.65	1737821	STUDY_PAIR_OFF	n/a	n/a	4	-999	n/a	n/a	BENCH	STOOL	10	[0, 0, 0]	-999	PAL1	0	R1307N
1624.235	4.033	1738471	STUDY_PAIR	n/a	wordpools/wordpool_EN.txt	5	-999	n/a	n/a	BIRD	STAIR	10	[0, 0, 0]	-999	PAL1	0	R1307N
1628.268	0.503	1742505	STUDY_PAIR_OFF	n/a	n/a	5	-999	n/a	n/a	BIRD	STAIR	10	[0, 0, 0]	-999	PAL1	0	R1307N
1628.771	4.032	1743008	STUDY_PAIR	n/a	wordpools/wordpool_EN.txt	6	-999	n/a	n/a	WAVE	SPEAR	10	[0, 0, 0]	-999	PAL1	0	R1307N
1632.803	0.0	1747040	STUDY_PAIR_OFF	n/a	n/a	6	-999	n/a	n/a	WAVE	SPEAR	10	[0, 0, 0]	-999	PAL1	0	R1307N
1632.803	0.0	1747040	ENCODING_END	n/a	n/a	-999	-999	n/a	n/a	n/a	n/a	10	[0, 0, 0]	-999	PAL1	0	R1307N
1632.803	0.001	1747040	MATH_START	n/a	n/a	-999	-999	n/a	n/a	n/a	n/a	10	[0, 0, 0]	-999	PAL1	0	R1307N
1632.804	0.016	1747041	START	n/a	n/a	-999	-999	n/a	n/a	n/a	n/a	10	[-999, -999, -999]	-999	PAL1	0	R1307N
1632.82	5.334	1747057	PROB	5301	n/a	-999	-999	n/a	n/a	n/a	n/a	10	[6, 4, 7]	17	PAL1	0	R1307N
1638.154	5.668	1752391	PROB	5632	n/a	-999	-999	n/a	n/a	n/a	n/a	10	[8, 5, 8]	21	PAL1	0	R1307N
1643.822	4.0	1758059	PROB	3962	n/a	-999	-999	n/a	n/a	n/a	n/a	10	[9, 3, 9]	21	PAL1	0	R1307N
1647.822	3.484	1762059	PROB	3458	n/a	-999	-999	n/a	n/a	n/a	n/a	10	[7, 3, 3]	13	PAL1	0	R1307N
1651.306	8.103	1765544	PROB	8103	n/a	-999	-999	n/a	n/a	n/a	n/a	10	[2, 5, 9]	16	PAL1	0	R1307N
1659.409	0.015	1773647	STOP	n/a	n/a	-999	-999	n/a	n/a	n/a	n/a	10	[-999, -999, -999]	-999	PAL1	0	R1307N
1659.424	0.547	1773662	MATH_END	n/a	n/a	-999	-999	n/a	n/a	n/a	n/a	10	[0, 0, 0]	-999	PAL1	0	R1307N
1659.971	0.0	1774209	RETRIEVAL_START	n/a	n/a	-999	-999	n/a	n/a	n/a	n/a	10	[0, 0, 0]	-999	PAL1	0	R1307N
1659.971	0.286	1774209	ORIENT_START	n/a	n/a	-999	-999	n/a	n/a	n/a	n/a	10	[0, 0, 0]	-999	PAL1	0	R1307N
1660.257	0.531	1774495	ORIENT_END	n/a	n/a	-999	-999	n/a	n/a	n/a	n/a	10	[0, 0, 0]	-999	PAL1	0	R1307N
1660.788	0.0	1775026	REC_START	n/a	n/a	5	1	BIRD	n/a	BIRD	STAIR	10	[0, 0, 0]	-999	PAL1	0	R1307N
1660.788	4.037	1775026	PROBE_START	n/a	wordpools/wordpool_EN.txt	5	1	BIRD	n/a	BIRD	STAIR	10	[0, 0, 0]	-999	PAL1	0	R1307N
1664.825	1.0	1779063	PROBE_END	n/a	n/a	5	1	BIRD	n/a	BIRD	STAIR	10	[0, 0, 0]	-999	PAL1	0	R1307N
1665.825	0.0	1780063	REC_END	n/a	n/a	5	1	BIRD	n/a	BIRD	STAIR	10	[0, 0, 0]	-999	PAL1	0	R1307N
1665.825	0.284	1780063	ORIENT_START	n/a	n/a	-999	-999	n/a	n/a	n/a	n/a	10	[0, 0, 0]	-999	PAL1	0	R1307N
1666.109	0.536	1780347	ORIENT_END	n/a	n/a	-999	-999	n/a	n/a	n/a	n/a	10	[0, 0, 0]	-999	PAL1	0	R1307N
1666.645	0.153	1780883	REC_EVENT	5857	n/a	5	1	BIRD	<>	BIRD	STAIR	10	[0, 0, 0]	-999	PAL1	0	R1307N
1666.798	0.0	1781036	PROBE_START	n/a	wordpools/wordpool_EN.txt	2	2	ROSE	n/a	ROSE	EEL	10	[0, 0, 0]	-999	PAL1	0	R1307N
1666.798	4.028	1781036	REC_START	n/a	n/a	2	2	ROSE	n/a	ROSE	EEL	10	[0, 0, 0]	-999	PAL1	0	R1307N
1670.826	1.0	1785064	PROBE_END	n/a	n/a	2	2	ROSE	n/a	ROSE	EEL	10	[0, 0, 0]	-999	PAL1	0	R1307N
1671.826	0.0	1786064	REC_END	n/a	n/a	2	2	ROSE	n/a	ROSE	EEL	10	[0, 0, 0]	-999	PAL1	0	R1307N
1671.826	0.284	1786064	ORIENT_START	n/a	n/a	-999	-999	n/a	n/a	n/a	n/a	10	[0, 0, 0]	-999	PAL1	0	R1307N
1672.11	0.678	1786348	ORIENT_END	n/a	n/a	-999	-999	n/a	n/a	n/a	n/a	10	[0, 0, 0]	-999	PAL1	0	R1307N
1672.788	0.053	1787026	REC_EVENT	5990	n/a	2	2	ROSE	<>	ROSE	EEL	10	[0, 0, 0]	-999	PAL1	0	R1307N
1672.841	0.0	1787079	REC_START	n/a	n/a	1	3	SIGN	n/a	BANK	SIGN	10	[0, 0, 0]	-999	PAL1	0	R1307N
1672.841	4.036	1787079	PROBE_START	n/a	wordpools/wordpool_EN.txt	1	3	SIGN	n/a	BANK	SIGN	10	[0, 0, 0]	-999	PAL1	0	R1307N
1676.877	1.0	1791116	PROBE_END	n/a	n/a	1	3	SIGN	n/a	BANK	SIGN	10	[0, 0, 0]	-999	PAL1	0	R1307N
1677.877	0.0	1792116	REC_END	n/a	n/a	1	3	SIGN	n/a	BANK	SIGN	10	[0, 0, 0]	-999	PAL1	0	R1307N
1677.877	0.284	1792116	ORIENT_START	n/a	n/a	-999	-999	n/a	n/a	n/a	n/a	10	[0, 0, 0]	-999	PAL1	0	R1307N
1678.161	0.709	1792400	ORIENT_END	n/a	n/a	-999	-999	n/a	n/a	n/a	n/a	10	[0, 0, 0]	-999	PAL1	0	R1307N
1678.87	0.0	1793109	PROBE_START	n/a	wordpools/wordpool_EN.txt	4	4	STOOL	n/a	BENCH	STOOL	10	[0, 0, 0]	-999	PAL1	0	R1307N
1678.87	0.008	1793109	REC_START	n/a	n/a	4	4	STOOL	n/a	BENCH	STOOL	10	[0, 0, 0]	-999	PAL1	0	R1307N
1678.878	4.017	1793117	REC_EVENT	6037	n/a	1	3	SIGN	<>	BANK	SIGN	10	[0, 0, 0]	-999	PAL1	0	R1307N
1682.895	1.0	1797134	PROBE_END	n/a	n/a	4	4	STOOL	n/a	BENCH	STOOL	10	[0, 0, 0]	-999	PAL1	0	R1307N
1683.895	0.0	1798134	REC_END	n/a	n/a	4	4	STOOL	n/a	BENCH	STOOL	10	[0, 0, 0]	-999	PAL1	0	R1307N
1683.895	0.283	1798134	ORIENT_START	n/a	n/a	-999	-999	n/a	n/a	n/a	n/a	10	[0, 0, 0]	-999	PAL1	0	R1307N
1684.178	0.665	1798417	ORIENT_END	n/a	n/a	-999	-999	n/a	n/a	n/a	n/a	10	[0, 0, 0]	-999	PAL1	0	R1307N
1684.843	0.0	1799082	REC_START	n/a	n/a	3	5	TRUCK	n/a	TRUCK	TOY	10	[0, 0, 0]	-999	PAL1	0	R1307N
1684.843	0.04	1799082	PROBE_START	n/a	wordpools/wordpool_EN.txt	3	5	TRUCK	n/a	TRUCK	TOY	10	[0, 0, 0]	-999	PAL1	0	R1307N
1684.883	3.996	1799122	REC_EVENT	6013	n/a	4	4	STOOL	<>	BENCH	STOOL	10	[0, 0, 0]	-999	PAL1	0	R1307N
1688.879	1.0	1803118	PROBE_END	n/a	n/a	3	5	TRUCK	n/a	TRUCK	TOY	10	[0, 0, 0]	-999	PAL1	0	R1307N
1689.879	0.0	1804118	REC_END	n/a	n/a	3	5	TRUCK	n/a	TRUCK	TOY	10	[0, 0, 0]	-999	PAL1	0	R1307N
1689.879	0.284	1804118	ORIENT_START	n/a	n/a	-999	-999	n/a	n/a	n/a	n/a	10	[0, 0, 0]	-999	PAL1	0	R1307N
1690.163	0.585	1804402	ORIENT_END	n/a	n/a	-999	-999	n/a	n/a	n/a	n/a	10	[0, 0, 0]	-999	PAL1	0	R1307N
1690.748	0.0	1804987	PROBE_START	n/a	wordpools/wordpool_EN.txt	6	6	SPEAR	n/a	WAVE	SPEAR	10	[0, 0, 0]	-999	PAL1	0	R1307N
1690.748	0.062	1804987	REC_START	n/a	n/a	6	6	SPEAR	n/a	WAVE	SPEAR	10	[0, 0, 0]	-999	PAL1	0	R1307N
1690.81	3.97	1805049	REC_EVENT	5967	n/a	3	5	TRUCK	<>	TRUCK	TOY	10	[0, 0, 0]	-999	PAL1	0	R1307N
1694.78	1.0	1809019	PROBE_END	n/a	n/a	6	6	SPEAR	n/a	WAVE	SPEAR	10	[0, 0, 0]	-999	PAL1	0	R1307N
1695.78	0.0	1810019	REC_END	n/a	n/a	6	6	SPEAR	n/a	WAVE	SPEAR	10	[0, 0, 0]	-999	PAL1	0	R1307N
1695.78	0.0	1810019	RETRIEVAL_END	n/a	n/a	-999	-999	n/a	n/a	n/a	n/a	10	[0, 0, 0]	-999	PAL1	0	R1307N
1695.78	0.0	1810019	TRIAL_END	n/a	n/a	-999	-999	n/a	n/a	n/a	n/a	10	[0, 0, 0]	-999	PAL1	0	R1307N
1695.78	0.0	1810019	TRIAL_START	n/a	n/a	-999	-999	n/a	n/a	n/a	n/a	10	[0, 0, 0]	-999	PAL1	0	R1307N
1695.78	0.0	1810019	TRIAL	n/a	n/a	-999	-999	n/a	n/a	n/a	n/a	11	[0, 0, 0]	-999	PAL1	0	R1307N
1695.78	0.86	1810019	WAITING_START	n/a	n/a	-999	-999	n/a	n/a	n/a	n/a	11	[0, 0, 0]	-999	PAL1	0	R1307N
1696.64	2.141	1810879	REC_EVENT	5892	n/a	6	6	SPEAR	<>	WAVE	SPEAR	10	[0, 0, 0]	-999	PAL1	0	R1307N
1698.781	0.0	1813021	WAITING_END	n/a	n/a	-999	-999	n/a	n/a	n/a	n/a	11	[0, 0, 0]	-999	PAL1	0	R1307N
1698.781	0.0	1813021	COUNTDOWN_START	n/a	n/a	-999	-999	n/a	n/a	n/a	n/a	11	[0, 0, 0]	-999	PAL1	0	R1307N
1698.781	0.0	1813021	COUNTDOWN_END	n/a	n/a	-999	-999	n/a	n/a	n/a	n/a	11	[0, 0, 0]	-999	PAL1	0	R1307N
1698.781	11.685	1813021	ORIENT_START	n/a	n/a	-999	-999	n/a	n/a	n/a	n/a	11	[0, 0, 0]	-999	PAL1	0	R1307N
1710.466	0.0	1824706	ENCODING_START	n/a	n/a	-999	-999	n/a	n/a	n/a	n/a	11	[0, 0, 0]	-999	PAL1	0	R1307N
1710.466	0.524	1824706	ORIENT_END	n/a	n/a	-999	-999	n/a	n/a	n/a	n/a	11	[0, 0, 0]	-999	PAL1	0	R1307N
1710.99	4.027	1825230	STUDY_PAIR	n/a	wordpools/wordpool_EN.txt	1	-999	n/a	n/a	HOOK	SEAT	11	[0, 0, 0]	-999	PAL1	0	R1307N
1715.017	0.73	1829257	STUDY_PAIR_OFF	n/a	n/a	1	-999	n/a	n/a	HOOK	SEAT	11	[0, 0, 0]	-999	PAL1	0	R1307N
1715.747	4.037	1829987	STUDY_PAIR	n/a	wordpools/wordpool_EN.txt	2	-999	n/a	n/a	CLOWN	TEA	11	[0, 0, 0]	-999	PAL1	0	R1307N
1719.784	0.692	1834024	STUDY_PAIR_OFF	n/a	n/a	2	-999	n/a	n/a	CLOWN	TEA	11	[0, 0, 0]	-999	PAL1	0	R1307N
1720.476	4.026	1834716	STUDY_PAIR	n/a	wordpools/wordpool_EN.txt	3	-999	n/a	n/a	TRASH	CRANE	11	[0, 0, 0]	-999	PAL1	0	R1307N
1724.502	0.739	1838743	STUDY_PAIR_OFF	n/a	n/a	3	-999	n/a	n/a	TRASH	CRANE	11	[0, 0, 0]	-999	PAL1	0	R1307N
1725.241	4.027	1839482	STUDY_PAIR	n/a	wordpools/wordpool_EN.txt	4	-999	n/a	n/a	JUICE	TOAST	11	[0, 0, 0]	-999	PAL1	0	R1307N
1729.268	0.514	1843509	STUDY_PAIR_OFF	n/a	n/a	4	-999	n/a	n/a	JUICE	TOAST	11	[0, 0, 0]	-999	PAL1	0	R1307N
1729.782	4.038	1844023	STUDY_PAIR	n/a	wordpools/wordpool_EN.txt	5	-999	n/a	n/a	ROOM	HAND	11	[0, 0, 0]	-999	PAL1	0	R1307N
1733.82	0.611	1848061	STUDY_PAIR_OFF	n/a	n/a	5	-999	n/a	n/a	ROOM	HAND	11	[0, 0, 0]	-999	PAL1	0	R1307N
1734.431	4.023	1848672	STUDY_PAIR	n/a	wordpools/wordpool_EN.txt	6	-999	n/a	n/a	FLUTE	ROPE	11	[0, 0, 0]	-999	PAL1	0	R1307N
1738.454	0.0	1852695	MATH_START	n/a	n/a	-999	-999	n/a	n/a	n/a	n/a	11	[0, 0, 0]	-999	PAL1	0	R1307N
1738.454	0.0	1852695	ENCODING_END	n/a	n/a	-999	-999	n/a	n/a	n/a	n/a	11	[0, 0, 0]	-999	PAL1	0	R1307N
1738.454	0.001	1852695	STUDY_PAIR_OFF	n/a	n/a	6	-999	n/a	n/a	FLUTE	ROPE	11	[0, 0, 0]	-999	PAL1	0	R1307N
1738.455	0.016	1852696	START	n/a	n/a	-999	-999	n/a	n/a	n/a	n/a	11	[-999, -999, -999]	-999	PAL1	0	R1307N
1738.471	4.15	1852712	PROB	4114	n/a	-999	-999	n/a	n/a	n/a	n/a	11	[3, 6, 4]	13	PAL1	0	R1307N
1742.621	3.584	1856862	PROB	3547	n/a	-999	-999	n/a	n/a	n/a	n/a	11	[1, 2, 2]	5	PAL1	0	R1307N
1746.205	3.401	1860446	PROB	3373	n/a	-999	-999	n/a	n/a	n/a	n/a	11	[6, 4, 5]	15	PAL1	0	R1307N
1749.606	5.067	1863848	PROB	5042	n/a	-999	-999	n/a	n/a	n/a	n/a	11	[2, 1, 6]	9	PAL1	0	R1307N
1754.673	16.64	1868915	PROB	16640	n/a	-999	-999	n/a	n/a	n/a	n/a	11	[8, 3, 6]	17	PAL1	0	R1307N
1771.313	0.013	1885556	STOP	n/a	n/a	-999	-999	n/a	n/a	n/a	n/a	11	[-999, -999, -999]	-999	PAL1	0	R1307N
1771.326	0.504	1885569	MATH_END	n/a	n/a	-999	-999	n/a	n/a	n/a	n/a	11	[0, 0, 0]	-999	PAL1	0	R1307N
1771.83	0.0	1886073	RETRIEVAL_START	n/a	n/a	-999	-999	n/a	n/a	n/a	n/a	11	[0, 0, 0]	-999	PAL1	0	R1307N
1771.83	0.28	1886073	ORIENT_START	n/a	n/a	-999	-999	n/a	n/a	n/a	n/a	11	[0, 0, 0]	-999	PAL1	0	R1307N
1772.11	0.661	1886353	ORIENT_END	n/a	n/a	-999	-999	n/a	n/a	n/a	n/a	11	[0, 0, 0]	-999	PAL1	0	R1307N
1772.771	0.0	1887014	REC_START	n/a	n/a	1	1	HOOK	n/a	HOOK	SEAT	11	[0, 0, 0]	-999	PAL1	0	R1307N
1772.771	4.039	1887014	PROBE_START	n/a	wordpools/wordpool_EN.txt	1	1	HOOK	n/a	HOOK	SEAT	11	[0, 0, 0]	-999	PAL1	0	R1307N
1776.81	1.0	1891053	PROBE_END	n/a	n/a	1	1	HOOK	n/a	HOOK	SEAT	11	[0, 0, 0]	-999	PAL1	0	R1307N
1777.81	0.0	1892053	REC_END	n/a	n/a	1	1	HOOK	n/a	HOOK	SEAT	11	[0, 0, 0]	-999	PAL1	0	R1307N
1777.81	0.284	1892053	ORIENT_START	n/a	n/a	-999	-999	n/a	n/a	n/a	n/a	11	[0, 0, 0]	-999	PAL1	0	R1307N
1778.094	0.644	1892337	ORIENT_END	n/a	n/a	-999	-999	n/a	n/a	n/a	n/a	11	[0, 0, 0]	-999	PAL1	0	R1307N
1778.738	0.0	1892981	REC_START	n/a	n/a	6	2	FLUTE	n/a	FLUTE	ROPE	11	[0, 0, 0]	-999	PAL1	0	R1307N
1778.738	0.012	1892981	PROBE_START	n/a	wordpools/wordpool_EN.txt	6	2	FLUTE	n/a	FLUTE	ROPE	11	[0, 0, 0]	-999	PAL1	0	R1307N
1778.75	4.011	1892993	REC_EVENT	5979	n/a	1	1	HOOK	<>	HOOK	SEAT	11	[0, 0, 0]	-999	PAL1	0	R1307N
1782.761	1.0	1897004	PROBE_END	n/a	n/a	6	2	FLUTE	n/a	FLUTE	ROPE	11	[0, 0, 0]	-999	PAL1	0	R1307N
1783.761	0.0	1898004	REC_END	n/a	n/a	6	2	FLUTE	n/a	FLUTE	ROPE	11	[0, 0, 0]	-999	PAL1	0	R1307N
1783.761	0.284	1898004	ORIENT_START	n/a	n/a	-999	-999	n/a	n/a	n/a	n/a	11	[0, 0, 0]	-999	PAL1	0	R1307N
1784.045	0.514	1898288	ORIENT_END	n/a	n/a	-999	-999	n/a	n/a	n/a	n/a	11	[0, 0, 0]	-999	PAL1	0	R1307N
1784.559	0.0	1898802	REC_START	n/a	n/a	3	3	CRANE	n/a	TRASH	CRANE	11	[0, 0, 0]	-999	PAL1	0	R1307N
1784.559	0.117	1898802	PROBE_START	n/a	wordpools/wordpool_EN.txt	3	3	CRANE	n/a	TRASH	CRANE	11	[0, 0, 0]	-999	PAL1	0	R1307N
1784.676	3.92	1898919	REC_EVENT	5938	n/a	6	2	FLUTE	<>	FLUTE	ROPE	11	[0, 0, 0]	-999	PAL1	0	R1307N
1788.596	1.0	1902839	PROBE_END	n/a	n/a	3	3	CRANE	n/a	TRASH	CRANE	11	[0, 0, 0]	-999	PAL1	0	R1307N
1789.596	0.0	1903839	REC_END	n/a	n/a	3	3	CRANE	n/a	TRASH	CRANE	11	[0, 0, 0]	-999	PAL1	0	R1307N
1789.596	0.283	1903839	ORIENT_START	n/a	n/a	-999	-999	n/a	n/a	n/a	n/a	11	[0, 0, 0]	-999	PAL1	0	R1307N
1789.879	0.502	1904122	ORIENT_END	n/a	n/a	-999	-999	n/a	n/a	n/a	n/a	11	[0, 0, 0]	-999	PAL1	0	R1307N
1790.381	0.112	1904624	REC_EVENT	5822	n/a	3	3	CRANE	<>	TRASH	CRANE	11	[0, 0, 0]	-999	PAL1	0	R1307N
1790.493	0.0	1904736	PROBE_START	n/a	wordpools/wordpool_EN.txt	2	4	CLOWN	n/a	CLOWN	TEA	11	[0, 0, 0]	-999	PAL1	0	R1307N
1790.493	4.037	1904736	REC_START	n/a	n/a	2	4	CLOWN	n/a	CLOWN	TEA	11	[0, 0, 0]	-999	PAL1	0	R1307N
1794.53	1.0	1908773	PROBE_END	n/a	n/a	2	4	CLOWN	n/a	CLOWN	TEA	11	[0, 0, 0]	-999	PAL1	0	R1307N
1795.53	0.0	1909774	REC_END	n/a	n/a	2	4	CLOWN	n/a	CLOWN	TEA	11	[0, 0, 0]	-999	PAL1	0	R1307N
1795.53	0.284	1909774	ORIENT_START	n/a	n/a	-999	-999	n/a	n/a	n/a	n/a	11	[0, 0, 0]	-999	PAL1	0	R1307N
1795.814	0.605	1910058	ORIENT_END	n/a	n/a	-999	-999	n/a	n/a	n/a	n/a	11	[0, 0, 0]	-999	PAL1	0	R1307N
1796.419	0.0	1910663	REC_EVENT	5926	n/a	2	4	CLOWN	<>	CLOWN	TEA	11	[0, 0, 0]	-999	PAL1	0	R1307N
1796.419	0.0	1910663	REC_START	n/a	n/a	5	5	HAND	n/a	ROOM	HAND	11	[0, 0, 0]	-999	PAL1	0	R1307N
1796.419	4.029	1910663	PROBE_START	n/a	wordpools/wordpool_EN.txt	5	5	HAND	n/a	ROOM	HAND	11	[0, 0, 0]	-999	PAL1	0	R1307N
1800.448	1.0	1914692	PROBE_END	n/a	n/a	5	5	HAND	n/a	ROOM	HAND	11	[0, 0, 0]	-999	PAL1	0	R1307N
1801.448	0.0	1915692	REC_END	n/a	n/a	5	5	HAND	n/a	ROOM	HAND	11	[0, 0, 0]	-999	PAL1	0	R1307N
1801.448	0.283	1915692	ORIENT_START	n/a	n/a	-999	-999	n/a	n/a	n/a	n/a	11	[0, 0, 0]	-999	PAL1	0	R1307N
1801.731	0.597	1915975	ORIENT_END	n/a	n/a	-999	-999	n/a	n/a	n/a	n/a	11	[0, 0, 0]	-999	PAL1	0	R1307N
1802.328	0.129	1916572	REC_EVENT	5909	n/a	5	5	HAND	<>	ROOM	HAND	11	[0, 0, 0]	-999	PAL1	0	R1307N
1802.457	0.0	1916701	PROBE_START	n/a	wordpools/wordpool_EN.txt	4	6	TOAST	n/a	JUICE	TOAST	11	[0, 0, 0]	-999	PAL1	0	R1307N
1802.457	4.025	1916701	REC_START	n/a	n/a	4	6	TOAST	n/a	JUICE	TOAST	11	[0, 0, 0]	-999	PAL1	0	R1307N
1806.482	1.0	1920726	PROBE_END	n/a	n/a	4	6	TOAST	n/a	JUICE	TOAST	11	[0, 0, 0]	-999	PAL1	0	R1307N
1807.482	0.0	1921726	REC_END	n/a	n/a	4	6	TOAST	n/a	JUICE	TOAST	11	[0, 0, 0]	-999	PAL1	0	R1307N
1807.482	0.0	1921726	RETRIEVAL_END	n/a	n/a	-999	-999	n/a	n/a	n/a	n/a	11	[0, 0, 0]	-999	PAL1	0	R1307N
1807.482	0.0	1921726	TRIAL_END	n/a	n/a	-999	-999	n/a	n/a	n/a	n/a	11	[0, 0, 0]	-999	PAL1	0	R1307N
1807.482	0.0	1921726	TRIAL_START	n/a	n/a	-999	-999	n/a	n/a	n/a	n/a	11	[0, 0, 0]	-999	PAL1	0	R1307N
1807.482	0.0	1921726	TRIAL	n/a	n/a	-999	-999	n/a	n/a	n/a	n/a	12	[0, 0, 0]	-999	PAL1	0	R1307N
1807.482	0.994	1921726	WAITING_START	n/a	n/a	-999	-999	n/a	n/a	n/a	n/a	12	[0, 0, 0]	-999	PAL1	0	R1307N
1808.476	4.14	1922720	REC_EVENT	6019	n/a	4	6	TOAST	<>	JUICE	TOAST	11	[0, 0, 0]	-999	PAL1	0	R1307N
1812.616	0.0	1926860	WAITING_END	n/a	n/a	-999	-999	n/a	n/a	n/a	n/a	12	[0, 0, 0]	-999	PAL1	0	R1307N
1812.616	0.0	1926860	COUNTDOWN_START	n/a	n/a	-999	-999	n/a	n/a	n/a	n/a	12	[0, 0, 0]	-999	PAL1	0	R1307N
1812.616	0.0	1926860	COUNTDOWN_END	n/a	n/a	-999	-999	n/a	n/a	n/a	n/a	12	[0, 0, 0]	-999	PAL1	0	R1307N
1812.616	11.452	1926860	ORIENT_START	n/a	n/a	-999	-999	n/a	n/a	n/a	n/a	12	[0, 0, 0]	-999	PAL1	0	R1307N
1824.068	0.0	1938313	ENCODING_START	n/a	n/a	-999	-999	n/a	n/a	n/a	n/a	12	[0, 0, 0]	-999	PAL1	0	R1307N
1824.068	0.572	1938313	ORIENT_END	n/a	n/a	-999	-999	n/a	n/a	n/a	n/a	12	[0, 0, 0]	-999	PAL1	0	R1307N
1824.64	4.029	1938885	STUDY_PAIR	n/a	wordpools/wordpool_EN.txt	1	-999	n/a	n/a	MOTH	BOOK	12	[0, 0, 0]	-999	PAL1	0	R1307N
1828.669	0.714	1942914	STUDY_PAIR_OFF	n/a	n/a	1	-999	n/a	n/a	MOTH	BOOK	12	[0, 0, 0]	-999	PAL1	0	R1307N
1829.383	4.037	1943628	STUDY_PAIR	n/a	wordpools/wordpool_EN.txt	2	-999	n/a	n/a	TANK	RIB	12	[0, 0, 0]	-999	PAL1	0	R1307N
1833.42	0.631	1947665	STUDY_PAIR_OFF	n/a	n/a	2	-999	n/a	n/a	TANK	RIB	12	[0, 0, 0]	-999	PAL1	0	R1307N
1834.051	4.036	1948296	STUDY_PAIR	n/a	wordpools/wordpool_EN.txt	3	-999	n/a	n/a	AXE	BOOT	12	[0, 0, 0]	-999	PAL1	0	R1307N
1838.087	0.706	1952332	STUDY_PAIR_OFF	n/a	n/a	3	-999	n/a	n/a	AXE	BOOT	12	[0, 0, 0]	-999	PAL1	0	R1307N
1838.793	4.028	1953038	STUDY_PAIR	n/a	wordpools/wordpool_EN.txt	4	-999	n/a	n/a	POND	ARK	12	[0, 0, 0]	-999	PAL1	0	R1307N
1842.821	0.605	1957066	STUDY_PAIR_OFF	n/a	n/a	4	-999	n/a	n/a	POND	ARK	12	[0, 0, 0]	-999	PAL1	0	R1307N
1843.426	4.029	1957671	STUDY_PAIR	n/a	wordpools/wordpool_EN.txt	5	-999	n/a	n/a	BOARD	WORM	12	[0, 0, 0]	-999	PAL1	0	R1307N
1847.455	0.679	1961701	STUDY_PAIR_OFF	n/a	n/a	5	-999	n/a	n/a	BOARD	WORM	12	[0, 0, 0]	-999	PAL1	0	R1307N
1848.134	4.039	1962380	STUDY_PAIR	n/a	wordpools/wordpool_EN.txt	6	-999	n/a	n/a	SQUARE	FACE	12	[0, 0, 0]	-999	PAL1	0	R1307N
1852.173	0.0	1966419	MATH_START	n/a	n/a	-999	-999	n/a	n/a	n/a	n/a	12	[0, 0, 0]	-999	PAL1	0	R1307N
1852.173	0.0	1966419	STUDY_PAIR_OFF	n/a	n/a	6	-999	n/a	n/a	SQUARE	FACE	12	[0, 0, 0]	-999	PAL1	0	R1307N
1852.173	0.001	1966419	ENCODING_END	n/a	n/a	-999	-999	n/a	n/a	n/a	n/a	12	[0, 0, 0]	-999	PAL1	0	R1307N
1852.174	0.016	1966420	START	n/a	n/a	-999	-999	n/a	n/a	n/a	n/a	12	[-999, -999, -999]	-999	PAL1	0	R1307N
1852.19	8.418	1966436	PROB	8387	n/a	-999	-999	n/a	n/a	n/a	n/a	12	[9, 3, 2]	14	PAL1	0	R1307N
1860.608	11.335	1974854	PROB	11297	n/a	-999	-999	n/a	n/a	n/a	n/a	12	[9, 7, 5]	21	PAL1	0	R1307N
1871.943	7.522	1986190	PROB	7522	n/a	-999	-999	n/a	n/a	n/a	n/a	12	[4, 3, 9]	16	PAL1	0	R1307N
1879.465	0.012	1993712	STOP	n/a	n/a	-999	-999	n/a	n/a	n/a	n/a	12	[-999, -999, -999]	-999	PAL1	0	R1307N
1879.477	0.573	1993724	MATH_END	n/a	n/a	-999	-999	n/a	n/a	n/a	n/a	12	[0, 0, 0]	-999	PAL1	0	R1307N
1880.05	0.0	1994297	RETRIEVAL_START	n/a	n/a	-999	-999	n/a	n/a	n/a	n/a	12	[0, 0, 0]	-999	PAL1	0	R1307N
1880.05	0.277	1994297	ORIENT_START	n/a	n/a	-999	-999	n/a	n/a	n/a	n/a	12	[0, 0, 0]	-999	PAL1	0	R1307N
1880.327	0.67	1994574	ORIENT_END	n/a	n/a	-999	-999	n/a	n/a	n/a	n/a	12	[0, 0, 0]	-999	PAL1	0	R1307N
1880.997	0.0	1995244	REC_START	n/a	n/a	5	1	WORM	n/a	BOARD	WORM	12	[0, 0, 0]	-999	PAL1	0	R1307N
1880.997	4.031	1995244	PROBE_START	n/a	wordpools/wordpool_EN.txt	5	1	WORM	n/a	BOARD	WORM	12	[0, 0, 0]	-999	PAL1	0	R1307N
1885.028	1.0	1999275	PROBE_END	n/a	n/a	5	1	WORM	n/a	BOARD	WORM	12	[0, 0, 0]	-999	PAL1	0	R1307N
1886.028	0.0	2000275	ORIENT_START	n/a	n/a	-999	-999	n/a	n/a	n/a	n/a	12	[0, 0, 0]	-999	PAL1	0	R1307N
1886.028	0.284	2000275	REC_END	n/a	n/a	5	1	WORM	n/a	BOARD	WORM	12	[0, 0, 0]	-999	PAL1	0	R1307N
1886.312	0.541	2000559	ORIENT_END	n/a	n/a	-999	-999	n/a	n/a	n/a	n/a	12	[0, 0, 0]	-999	PAL1	0	R1307N
1886.853	0.0	2001100	PROBE_START	n/a	wordpools/wordpool_EN.txt	2	2	TANK	n/a	TANK	RIB	12	[0, 0, 0]	-999	PAL1	0	R1307N
1886.853	0.117	2001100	REC_START	n/a	n/a	2	2	TANK	n/a	TANK	RIB	12	[0, 0, 0]	-999	PAL1	0	R1307N
1886.97	3.909	2001217	REC_EVENT	5973	n/a	5	1	WORM	<>	BOARD	WORM	12	[0, 0, 0]	-999	PAL1	0	R1307N
1890.879	1.0	2005126	PROBE_END	n/a	n/a	2	2	TANK	n/a	TANK	RIB	12	[0, 0, 0]	-999	PAL1	0	R1307N
1891.879	0.0	2006126	REC_END	n/a	n/a	2	2	TANK	n/a	TANK	RIB	12	[0, 0, 0]	-999	PAL1	0	R1307N
1891.879	0.284	2006126	ORIENT_START	n/a	n/a	-999	-999	n/a	n/a	n/a	n/a	12	[0, 0, 0]	-999	PAL1	0	R1307N
1892.163	0.529	2006411	ORIENT_END	n/a	n/a	-999	-999	n/a	n/a	n/a	n/a	12	[0, 0, 0]	-999	PAL1	0	R1307N
1892.692	0.193	2006940	REC_EVENT	5839	n/a	2	2	TANK	<>	TANK	RIB	12	[0, 0, 0]	-999	PAL1	0	R1307N
1892.885	0.0	2007133	REC_START	n/a	n/a	3	3	AXE	n/a	AXE	BOOT	12	[0, 0, 0]	-999	PAL1	0	R1307N
1892.885	4.029	2007133	PROBE_START	n/a	wordpools/wordpool_EN.txt	3	3	AXE	n/a	AXE	BOOT	12	[0, 0, 0]	-999	PAL1	0	R1307N
1896.914	1.0	2011162	PROBE_END	n/a	n/a	3	3	AXE	n/a	AXE	BOOT	12	[0, 0, 0]	-999	PAL1	0	R1307N
1897.914	0.0	2012162	ORIENT_START	n/a	n/a	-999	-999	n/a	n/a	n/a	n/a	12	[0, 0, 0]	-999	PAL1	0	R1307N
1897.914	0.283	2012162	REC_END	n/a	n/a	3	3	AXE	n/a	AXE	BOOT	12	[0, 0, 0]	-999	PAL1	0	R1307N
1898.197	0.568	2012445	ORIENT_END	n/a	n/a	-999	-999	n/a	n/a	n/a	n/a	12	[0, 0, 0]	-999	PAL1	0	R1307N
1898.765	0.0	2013013	REC_START	n/a	n/a	4	4	ARK	n/a	POND	ARK	12	[0, 0, 0]	-999	PAL1	0	R1307N
1898.765	0.145	2013013	PROBE_START	n/a	wordpools/wordpool_EN.txt	4	4	ARK	n/a	POND	ARK	12	[0, 0, 0]	-999	PAL1	0	R1307N
1898.91	3.888	2013158	REC_EVENT	6025	n/a	3	3	AXE	<>	AXE	BOOT	12	[0, 0, 0]	-999	PAL1	0	R1307N
1902.798	1.0	2017046	PROBE_END	n/a	n/a	4	4	ARK	n/a	POND	ARK	12	[0, 0, 0]	-999	PAL1	0	R1307N
1903.798	0.0	2018046	REC_END	n/a	n/a	4	4	ARK	n/a	POND	ARK	12	[0, 0, 0]	-999	PAL1	0	R1307N
1903.798	0.283	2018046	ORIENT_START	n/a	n/a	-999	-999	n/a	n/a	n/a	n/a	12	[0, 0, 0]	-999	PAL1	0	R1307N
1904.081	0.552	2018329	ORIENT_END	n/a	n/a	-999	-999	n/a	n/a	n/a	n/a	12	[0, 0, 0]	-999	PAL1	0	R1307N
1904.633	0.17	2018881	REC_EVENT	5868	n/a	4	4	ARK	<>	POND	ARK	12	[0, 0, 0]	-999	PAL1	0	R1307N
1904.803	0.0	2019051	REC_START	n/a	n/a	1	5	BOOK	n/a	MOTH	BOOK	12	[0, 0, 0]	-999	PAL1	0	R1307N
1904.803	4.029	2019051	PROBE_START	n/a	wordpools/wordpool_EN.txt	1	5	BOOK	n/a	MOTH	BOOK	12	[0, 0, 0]	-999	PAL1	0	R1307N
1908.832	1.0	2023080	PROBE_END	n/a	n/a	1	5	BOOK	n/a	MOTH	BOOK	12	[0, 0, 0]	-999	PAL1	0	R1307N
1909.832	0.0	2024080	REC_END	n/a	n/a	1	5	BOOK	n/a	MOTH	BOOK	12	[0, 0, 0]	-999	PAL1	0	R1307N
1909.832	0.284	2024080	ORIENT_START	n/a	n/a	-999	-999	n/a	n/a	n/a	n/a	12	[0, 0, 0]	-999	PAL1	0	R1307N
1910.116	0.545	2024364	ORIENT_END	n/a	n/a	-999	-999	n/a	n/a	n/a	n/a	12	[0, 0, 0]	-999	PAL1	0	R1307N
1910.661	0.0	2024909	REC_START	n/a	n/a	6	6	SQUARE	n/a	SQUARE	FACE	12	[0, 0, 0]	-999	PAL1	0	R1307N
1910.661	0.167	2024909	PROBE_START	n/a	wordpools/wordpool_EN.txt	6	6	SQUARE	n/a	SQUARE	FACE	12	[0, 0, 0]	-999	PAL1	0	R1307N
1910.828	3.872	2025076	REC_EVENT	6025	n/a	1	5	BOOK	<>	MOTH	BOOK	12	[0, 0, 0]	-999	PAL1	0	R1307N
1914.7	1.0	2028948	PROBE_END	n/a	n/a	6	6	SQUARE	n/a	SQUARE	FACE	12	[0, 0, 0]	-999	PAL1	0	R1307N
1915.7	0.0	2029948	REC_END	n/a	n/a	6	6	SQUARE	n/a	SQUARE	FACE	12	[0, 0, 0]	-999	PAL1	0	R1307N
1915.7	0.0	2029948	RETRIEVAL_END	n/a	n/a	-999	-999	n/a	n/a	n/a	n/a	12	[0, 0, 0]	-999	PAL1	0	R1307N
1915.7	0.0	2029948	TRIAL_END	n/a	n/a	-999	-999	n/a	n/a	n/a	n/a	12	[0, 0, 0]	-999	PAL1	0	R1307N
1915.7	0.0	2029948	TRIAL_START	n/a	n/a	-999	-999	n/a	n/a	n/a	n/a	12	[0, 0, 0]	-999	PAL1	0	R1307N
1915.7	0.0	2029948	TRIAL	n/a	n/a	-999	-999	n/a	n/a	n/a	n/a	13	[0, 0, 0]	-999	PAL1	0	R1307N
1915.7	0.818	2029948	WAITING_START	n/a	n/a	-999	-999	n/a	n/a	n/a	n/a	13	[0, 0, 0]	-999	PAL1	0	R1307N
1916.518	2.133	2030767	REC_EVENT	5857	n/a	6	6	SQUARE	<>	SQUARE	FACE	12	[0, 0, 0]	-999	PAL1	0	R1307N
1918.651	0.0	2032900	WAITING_END	n/a	n/a	-999	-999	n/a	n/a	n/a	n/a	13	[0, 0, 0]	-999	PAL1	0	R1307N
1918.651	0.0	2032900	COUNTDOWN_START	n/a	n/a	-999	-999	n/a	n/a	n/a	n/a	13	[0, 0, 0]	-999	PAL1	0	R1307N
1918.651	0.0	2032900	COUNTDOWN_END	n/a	n/a	-999	-999	n/a	n/a	n/a	n/a	13	[0, 0, 0]	-999	PAL1	0	R1307N
1918.651	11.468	2032900	ORIENT_START	n/a	n/a	-999	-999	n/a	n/a	n/a	n/a	13	[0, 0, 0]	-999	PAL1	0	R1307N
1930.119	0.0	2044368	ENCODING_START	n/a	n/a	-999	-999	n/a	n/a	n/a	n/a	13	[0, 0, 0]	-999	PAL1	0	R1307N
1930.119	0.639	2044368	ORIENT_END	n/a	n/a	-999	-999	n/a	n/a	n/a	n/a	13	[0, 0, 0]	-999	PAL1	0	R1307N
1930.758	4.028	2045007	STUDY_PAIR	n/a	wordpools/wordpool_EN.txt	1	-999	n/a	n/a	DRESS	FISH	13	[0, 0, 0]	-999	PAL1	0	R1307N
1934.786	0.601	2049035	STUDY_PAIR_OFF	n/a	n/a	1	-999	n/a	n/a	DRESS	FISH	13	[0, 0, 0]	-999	PAL1	0	R1307N
1935.387	4.034	2049636	STUDY_PAIR	n/a	wordpools/wordpool_EN.txt	2	-999	n/a	n/a	NET	DUCK	13	[0, 0, 0]	-999	PAL1	0	R1307N
1939.421	0.73	2053670	STUDY_PAIR_OFF	n/a	n/a	2	-999	n/a	n/a	NET	DUCK	13	[0, 0, 0]	-999	PAL1	0	R1307N
1940.151	4.037	2054400	STUDY_PAIR	n/a	wordpools/wordpool_EN.txt	3	-999	n/a	n/a	BEE	SUN	13	[0, 0, 0]	-999	PAL1	0	R1307N
