onset	duration	sample	trial_type	response_time	stim_file	serialpos	probepos	probe_word	resp_word	study_1	study_2	list	test	answer	experiment	session	subject
0.0	71.575	96	SESS_START	n/a	n/a	-999	-999	n/a	n/a	n/a	n/a	-999	[0, 0, 0]	-999	PAL1	0	R1016M
71.575	1.016	35882	START	n/a	n/a	-999	-999	n/a	n/a	n/a	n/a	-1	[-999, -999, -999]	-999	PAL1	0	R1016M
72.591	15.487	36390	PROB	15456	n/a	-999	-999	n/a	n/a	n/a	n/a	-1	[8, 7, 5]	20	PAL1	0	R1016M
88.078	5.105	44133	PROB	5105	n/a	-999	-999	n/a	n/a	n/a	n/a	-1	[5, 5, 1]	11	PAL1	0	R1016M
93.183	60.856	46685	STOP	n/a	n/a	-999	-999	n/a	n/a	n/a	n/a	-1	[-999, -999, -999]	-999	PAL1	0	R1016M
154.039	10.454	77111	ENCODING_START	n/a	n/a	0	-999	n/a	n/a	n/a	n/a	1	[0, 0, 0]	-999	PAL1	0	R1016M
164.493	0.9	82338	STUDY_ORIENT	n/a	n/a	1	5	STEAK	DESK	DESK	STEAK	1	[0, 0, 0]	-999	PAL1	0	R1016M
165.393	5.018	82788	STUDY_PAIR	n/a	wordpools/wordpool_EN.txt	1	5	STEAK	DESK	DESK	STEAK	1	[0, 0, 0]	-999	PAL1	0	R1016M
170.411	0.967	85297	STUDY_ORIENT	n/a	n/a	2	6	SKY	BUSH	BUSH	SKY	1	[0, 0, 0]	-999	PAL1	0	R1016M
171.378	5.034	85780	STUDY_PAIR	n/a	wordpools/wordpool_EN.txt	2	6	SKY	BUSH	BUSH	SKY	1	[0, 0, 0]	-999	PAL1	0	R1016M
176.412	0.884	88297	STUDY_ORIENT	n/a	n/a	3	3	SMOKE	DRESS	SMOKE	DRESS	1	[0, 0, 0]	-999	PAL1	0	R1016M
177.296	5.034	88739	STUDY_PAIR	n/a	wordpools/wordpool_EN.txt	3	3	SMOKE	DRESS	SMOKE	DRESS	1	[0, 0, 0]	-999	PAL1	0	R1016M
182.33	0.883	91256	STUDY_ORIENT	n/a	n/a	4	2	PRINCE	JUICE	JUICE	PRINCE	1	[0, 0, 0]	-999	PAL1	0	R1016M
183.213	5.018	91698	STUDY_PAIR	n/a	wordpools/wordpool_EN.txt	4	2	PRINCE	JUICE	JUICE	PRINCE	1	[0, 0, 0]	-999	PAL1	0	R1016M
188.231	0.884	94206	STUDY_ORIENT	n/a	n/a	5	1	ROAD	GLASS	GLASS	ROAD	1	[0, 0, 0]	-999	PAL1	0	R1016M
189.115	5.034	94648	STUDY_PAIR	n/a	wordpools/wordpool_EN.txt	5	1	ROAD	GLASS	GLASS	ROAD	1	[0, 0, 0]	-999	PAL1	0	R1016M
194.149	0.95	97165	STUDY_ORIENT	n/a	n/a	6	4	MOLE	COUCH	MOLE	COUCH	1	[0, 0, 0]	-999	PAL1	0	R1016M
195.099	4.001	97640	STUDY_PAIR	n/a	wordpools/wordpool_EN.txt	6	4	MOLE	COUCH	MOLE	COUCH	1	[0, 0, 0]	-999	PAL1	0	R1016M
199.1	1.0	99641	START	n/a	n/a	-999	-999	n/a	n/a	n/a	n/a	1	[-999, -999, -999]	-999	PAL1	0	R1016M
200.1	0.017	100141	MATH_START	n/a	n/a	-999	-999	n/a	n/a	n/a	n/a	1	[0, 0, 0]	-999	PAL1	0	R1016M
200.117	12.002	100149	PROB	11970	n/a	-999	-999	n/a	n/a	n/a	n/a	1	[2, 6, 7]	15	PAL1	0	R1016M
212.119	15.56	106150	PROB	15560	n/a	-999	-999	n/a	n/a	n/a	n/a	1	[8, 7, 7]	25	PAL1	0	R1016M
227.679	0.01	113929	STOP	n/a	n/a	-999	-999	n/a	n/a	n/a	n/a	1	[-999, -999, -999]	-999	PAL1	0	R1016M
227.689	0.0	113934	MATH_END	n/a	n/a	-999	-999	n/a	n/a	n/a	n/a	1	[0, 0, 0]	-999	PAL1	0	R1016M
227.689	0.017	113934	TEST_START	n/a	n/a	-999	-999	n/a	n/a	n/a	n/a	1	[0, 0, 0]	-999	PAL1	0	R1016M
227.706	0.883	113943	TEST_ORIENT	n/a	n/a	5	1	ROAD	GLASS	GLASS	ROAD	1	[0, 0, 0]	-999	PAL1	0	R1016M
228.589	0.001	114384	TEST_PROBE	n/a	wordpools/wordpool_EN.txt	5	1	ROAD	GLASS	GLASS	ROAD	1	[0, 0, 0]	-999	PAL1	0	R1016M
228.59	2.774	114385	REC_START	n/a	n/a	5	-999	n/a	GLASS	n/a	n/a	1	[0, 0, 0]	-999	PAL1	0	R1016M
231.364	2.234	115772	REC_EVENT	2774	n/a	5	1	ROAD	GLASS	GLASS	ROAD	1	[0, 0, 0]	-999	PAL1	0	R1016M
233.598	0.009	116889	REC_END	n/a	n/a	5	-999	n/a	n/a	n/a	n/a	1	[0, 0, 0]	-999	PAL1	0	R1016M
233.607	0.85	116893	TEST_ORIENT	n/a	n/a	4	2	PRINCE	JUICE	JUICE	PRINCE	1	[0, 0, 0]	-999	PAL1	0	R1016M
234.457	0.0	117318	TEST_PROBE	n/a	wordpools/wordpool_EN.txt	4	2	PRINCE	JUICE	JUICE	PRINCE	1	[0, 0, 0]	-999	PAL1	0	R1016M
234.457	1.389	117318	REC_START	n/a	n/a	4	-999	n/a	JUICE	n/a	n/a	1	[0, 0, 0]	-999	PAL1	0	R1016M
235.846	3.628	118013	REC_EVENT	1389	n/a	4	2	PRINCE	JUICE	JUICE	PRINCE	1	[0, 0, 0]	-999	PAL1	0	R1016M
239.474	0.017	119827	REC_END	n/a	n/a	4	-999	n/a	n/a	n/a	n/a	1	[0, 0, 0]	-999	PAL1	0	R1016M
239.491	0.801	119835	TEST_ORIENT	n/a	n/a	3	3	SMOKE	DRESS	SMOKE	DRESS	1	[0, 0, 0]	-999	PAL1	0	R1016M
240.292	0.0	120235	TEST_PROBE	n/a	wordpools/wordpool_EN.txt	3	3	SMOKE	DRESS	SMOKE	DRESS	1	[0, 0, 0]	-999	PAL1	0	R1016M
240.292	2.112	120235	REC_START	n/a	n/a	3	-999	n/a	DRESS	n/a	n/a	1	[0, 0, 0]	-999	PAL1	0	R1016M
242.404	2.905	121291	REC_EVENT	2112	n/a	3	3	SMOKE	DRESS	SMOKE	DRESS	1	[0, 0, 0]	-999	PAL1	0	R1016M
245.309	0.017	122744	REC_END	n/a	n/a	3	-999	n/a	n/a	n/a	n/a	1	[0, 0, 0]	-999	PAL1	0	R1016M
245.326	0.917	122752	TEST_ORIENT	n/a	n/a	6	4	MOLE	COUCH	MOLE	COUCH	1	[0, 0, 0]	-999	PAL1	0	R1016M
246.243	0.0	123211	TEST_PROBE	n/a	wordpools/wordpool_EN.txt	6	4	MOLE	COUCH	MOLE	COUCH	1	[0, 0, 0]	-999	PAL1	0	R1016M
246.243	1.607	123211	REC_START	n/a	n/a	6	-999	n/a	COUCH	n/a	n/a	1	[0, 0, 0]	-999	PAL1	0	R1016M
247.85	3.41	124014	REC_EVENT	1607	n/a	6	4	MOLE	COUCH	MOLE	COUCH	1	[0, 0, 0]	-999	PAL1	0	R1016M
251.26	0.017	125719	REC_END	n/a	n/a	6	-999	n/a	n/a	n/a	n/a	1	[0, 0, 0]	-999	PAL1	0	R1016M
251.277	1.0	125728	TEST_ORIENT	n/a	n/a	1	5	STEAK	DESK	DESK	STEAK	1	[0, 0, 0]	-999	PAL1	0	R1016M
252.277	0.001	126228	TEST_PROBE	n/a	wordpools/wordpool_EN.txt	1	5	STEAK	DESK	DESK	STEAK	1	[0, 0, 0]	-999	PAL1	0	R1016M
252.278	3.337	126228	REC_START	n/a	n/a	1	-999	n/a	DESK	n/a	n/a	1	[0, 0, 0]	-999	PAL1	0	R1016M
255.615	1.663	127897	REC_EVENT	3337	n/a	1	5	STEAK	DESK	DESK	STEAK	1	[0, 0, 0]	-999	PAL1	0	R1016M
257.278	0.017	128728	REC_END	n/a	n/a	1	-999	n/a	n/a	n/a	n/a	1	[0, 0, 0]	-999	PAL1	0	R1016M
257.295	0.833	128737	TEST_ORIENT	n/a	n/a	2	6	SKY	BUSH	BUSH	SKY	1	[0, 0, 0]	-999	PAL1	0	R1016M
258.128	0.001	129153	TEST_PROBE	n/a	wordpools/wordpool_EN.txt	2	6	SKY	BUSH	BUSH	SKY	1	[0, 0, 0]	-999	PAL1	0	R1016M
258.129	1.878	129153	REC_START	n/a	n/a	2	-999	n/a	BUSH	n/a	n/a	1	[0, 0, 0]	-999	PAL1	0	R1016M
260.007	3.13	130092	REC_EVENT	1878	n/a	2	6	SKY	BUSH	BUSH	SKY	1	[0, 0, 0]	-999	PAL1	0	R1016M
263.137	14.646	131657	REC_END	n/a	n/a	2	-999	n/a	n/a	n/a	n/a	1	[0, 0, 0]	-999	PAL1	0	R1016M
277.783	10.451	138980	ENCODING_START	n/a	n/a	0	-999	n/a	n/a	n/a	n/a	2	[0, 0, 0]	-999	PAL1	0	R1016M
288.234	0.801	144205	STUDY_ORIENT	n/a	n/a	1	5	CLOWN	PLATE	PLATE	CLOWN	2	[0, 0, 0]	-999	PAL1	0	R1016M
289.035	5.034	144606	STUDY_PAIR	n/a	wordpools/wordpool_EN.txt	1	5	CLOWN	PLATE	PLATE	CLOWN	2	[0, 0, 0]	-999	PAL1	0	R1016M
294.069	0.868	147122	STUDY_ORIENT	n/a	n/a	2	2	BLUSH	n/a	MULE	BLUSH	2	[0, 0, 0]	-999	PAL1	0	R1016M
294.937	5.034	147556	STUDY_PAIR	n/a	wordpools/wordpool_EN.txt	2	2	BLUSH	n/a	MULE	BLUSH	2	[0, 0, 0]	-999	PAL1	0	R1016M
299.971	0.984	150073	STUDY_ORIENT	n/a	n/a	3	3	PARK	WORLD	PARK	WORLD	2	[0, 0, 0]	-999	PAL1	0	R1016M
300.955	5.034	150565	STUDY_PAIR	n/a	wordpools/wordpool_EN.txt	3	3	PARK	WORLD	PARK	WORLD	2	[0, 0, 0]	-999	PAL1	0	R1016M
305.989	1.0	153082	STUDY_ORIENT	n/a	n/a	4	6	WOLF	BED	WOLF	BED	2	[0, 0, 0]	-999	PAL1	0	R1016M
306.989	5.017	153582	STUDY_PAIR	n/a	wordpools/wordpool_EN.txt	4	6	WOLF	BED	WOLF	BED	2	[0, 0, 0]	-999	PAL1	0	R1016M
312.006	0.934	156090	STUDY_ORIENT	n/a	n/a	5	1	CORN	n/a	TOE	CORN	2	[0, 0, 0]	-999	PAL1	0	R1016M
312.94	5.018	156557	STUDY_PAIR	n/a	wordpools/wordpool_EN.txt	5	1	CORN	n/a	TOE	CORN	2	[0, 0, 0]	-999	PAL1	0	R1016M
317.958	0.917	159066	STUDY_ORIENT	n/a	n/a	6	4	MUD	MOLE	MOON	MUD	2	[0, 0, 0]	-999	PAL1	0	R1016M
318.875	4.018	159525	STUDY_PAIR	n/a	wordpools/wordpool_EN.txt	6	4	MUD	MOLE	MOON	MUD	2	[0, 0, 0]	-999	PAL1	0	R1016M
322.893	0.999	161534	START	n/a	n/a	-999	-999	n/a	n/a	n/a	n/a	2	[-999, -999, -999]	-999	PAL1	0	R1016M
323.892	0.017	162033	MATH_START	n/a	n/a	-999	-999	n/a	n/a	n/a	n/a	2	[0, 0, 0]	-999	PAL1	0	R1016M
323.909	12.069	162042	PROB	12043	n/a	-999	-999	n/a	n/a	n/a	n/a	2	[6, 1, 9]	16	PAL1	0	R1016M
335.978	17.469	168076	PROB	17469	n/a	-999	-999	n/a	n/a	n/a	n/a	2	[8, 5, 7]	18	PAL1	0	R1016M
353.447	0.017	176810	STOP	n/a	n/a	-999	-999	n/a	n/a	n/a	n/a	2	[-999, -999, -999]	-999	PAL1	0	R1016M
353.464	0.0	176818	TEST_START	n/a	n/a	-999	-999	n/a	n/a	n/a	n/a	2	[0, 0, 0]	-999	PAL1	0	R1016M
353.464	0.017	176818	MATH_END	n/a	n/a	-999	-999	n/a	n/a	n/a	n/a	2	[0, 0, 0]	-999	PAL1	0	R1016M
353.481	0.8	176827	TEST_ORIENT	n/a	n/a	5	1	CORN	n/a	TOE	CORN	2	[0, 0, 0]	-999	PAL1	0	R1016M
354.281	0.001	177227	TEST_PROBE	n/a	wordpools/wordpool_EN.txt	5	1	CORN	n/a	TOE	CORN	2	[0, 0, 0]	-999	PAL1	0	R1016M
354.282	1.56	177227	REC_START	n/a	n/a	5	-999	n/a	n/a	n/a	n/a	2	[0, 0, 0]	-999	PAL1	0	R1016M
355.842	3.456	178007	REC_EVENT	1560	n/a	5	1	CORN	<>	TOE	CORN	2	[0, 0, 0]	-999	PAL1	0	R1016M
359.298	0.017	179735	REC_END	n/a	n/a	5	-999	n/a	n/a	n/a	n/a	2	[0, 0, 0]	-999	PAL1	0	R1016M
359.315	0.834	179744	TEST_ORIENT	n/a	n/a	2	2	BLUSH	n/a	MULE	BLUSH	2	[0, 0, 0]	-999	PAL1	0	R1016M
360.149	0.0	180161	TEST_PROBE	n/a	wordpools/wordpool_EN.txt	2	2	BLUSH	n/a	MULE	BLUSH	2	[0, 0, 0]	-999	PAL1	0	R1016M
360.149	1.223	180161	REC_START	n/a	n/a	2	-999	n/a	n/a	n/a	n/a	2	[0, 0, 0]	-999	PAL1	0	R1016M
361.372	3.794	180772	REC_EVENT	1223	n/a	2	2	BLUSH	<>	MULE	BLUSH	2	[0, 0, 0]	-999	PAL1	0	R1016M
365.166	0.017	182669	REC_END	n/a	n/a	2	-999	n/a	n/a	n/a	n/a	2	[0, 0, 0]	-999	PAL1	0	R1016M
365.183	0.834	182678	TEST_ORIENT	n/a	n/a	3	3	PARK	WORLD	PARK	WORLD	2	[0, 0, 0]	-999	PAL1	0	R1016M
366.017	0.0	183094	TEST_PROBE	n/a	wordpools/wordpool_EN.txt	3	3	PARK	WORLD	PARK	WORLD	2	[0, 0, 0]	-999	PAL1	0	R1016M
366.017	1.234	183094	REC_START	n/a	n/a	3	-999	n/a	WORLD	n/a	n/a	2	[0, 0, 0]	-999	PAL1	0	R1016M
367.251	3.783	183711	REC_EVENT	1234	n/a	3	3	PARK	WORLD	PARK	WORLD	2	[0, 0, 0]	-999	PAL1	0	R1016M
371.034	0.017	185603	REC_END	n/a	n/a	3	-999	n/a	n/a	n/a	n/a	2	[0, 0, 0]	-999	PAL1	0	R1016M
371.051	0.967	185611	TEST_ORIENT	n/a	n/a	6	4	MUD	MOLE	MOON	MUD	2	[0, 0, 0]	-999	PAL1	0	R1016M
372.018	0.001	186095	TEST_PROBE	n/a	wordpools/wordpool_EN.txt	6	4	MUD	MOLE	MOON	MUD	2	[0, 0, 0]	-999	PAL1	0	R1016M
372.019	2.233	186095	REC_START	n/a	n/a	6	-999	n/a	MOLE	n/a	n/a	2	[0, 0, 0]	-999	PAL1	0	R1016M
374.252	2.793	187212	REC_EVENT	2233	n/a	6	4	MUD	MOLE	MOON	MUD	2	[0, 0, 0]	-999	PAL1	0	R1016M
377.045	0.007	188608	REC_END	n/a	n/a	6	-999	n/a	n/a	n/a	n/a	2	[0, 0, 0]	-999	PAL1	0	R1016M
377.052	0.967	188612	TEST_ORIENT	n/a	n/a	1	5	CLOWN	PLATE	PLATE	CLOWN	2	[0, 0, 0]	-999	PAL1	0	R1016M
378.019	0.0	189095	TEST_PROBE	n/a	wordpools/wordpool_EN.txt	1	5	CLOWN	PLATE	PLATE	CLOWN	2	[0, 0, 0]	-999	PAL1	0	R1016M
378.019	1.156	189095	REC_START	n/a	n/a	1	-999	n/a	PLATE	n/a	n/a	2	[0, 0, 0]	-999	PAL1	0	R1016M
379.175	3.862	189673	REC_EVENT	1156	n/a	1	5	CLOWN	PLATE	PLATE	CLOWN	2	[0, 0, 0]	-999	PAL1	0	R1016M
383.037	0.017	191604	REC_END	n/a	n/a	1	-999	n/a	n/a	n/a	n/a	2	[0, 0, 0]	-999	PAL1	0	R1016M
383.054	0.934	191613	TEST_ORIENT	n/a	n/a	4	6	WOLF	BED	WOLF	BED	2	[0, 0, 0]	-999	PAL1	0	R1016M
383.988	0.001	192079	TEST_PROBE	n/a	wordpools/wordpool_EN.txt	4	6	WOLF	BED	WOLF	BED	2	[0, 0, 0]	-999	PAL1	0	R1016M
383.989	1.295	192080	REC_START	n/a	n/a	4	-999	n/a	BED	n/a	n/a	2	[0, 0, 0]	-999	PAL1	0	R1016M
385.284	3.72	192727	REC_EVENT	1295	n/a	4	6	WOLF	BED	WOLF	BED	2	[0, 0, 0]	-999	PAL1	0	R1016M
389.004	49.683	194587	REC_END	n/a	n/a	4	-999	n/a	n/a	n/a	n/a	2	[0, 0, 0]	-999	PAL1	0	R1016M
438.687	10.446	219427	ENCODING_START	n/a	n/a	0	-999	n/a	n/a	n/a	n/a	3	[0, 0, 0]	-999	PAL1	0	R1016M
449.133	0.884	224650	STUDY_ORIENT	n/a	n/a	1	3	TEETH	SHEET	TEETH	SHEET	3	[0, 0, 0]	-999	PAL1	0	R1016M
450.017	5.034	225092	STUDY_PAIR	n/a	wordpools/wordpool_EN.txt	1	3	TEETH	SHEET	TEETH	SHEET	3	[0, 0, 0]	-999	PAL1	0	R1016M
455.051	1.017	227609	STUDY_ORIENT	n/a	n/a	2	4	BARN	WORM	WORM	BARN	3	[0, 0, 0]	-999	PAL1	0	R1016M
456.068	5.034	228117	STUDY_PAIR	n/a	wordpools/wordpool_EN.txt	2	4	BARN	WORM	WORM	BARN	3	[0, 0, 0]	-999	PAL1	0	R1016M
461.102	0.934	230634	STUDY_ORIENT	n/a	n/a	3	1	CHEEK	PURSE	PURSE	CHEEK	3	[0, 0, 0]	-999	PAL1	0	R1016M
462.036	5.034	231101	STUDY_PAIR	n/a	wordpools/wordpool_EN.txt	3	1	CHEEK	PURSE	PURSE	CHEEK	3	[0, 0, 0]	-999	PAL1	0	R1016M
467.07	0.851	233618	STUDY_ORIENT	n/a	n/a	4	2	WING	HOOK	DART	WING	3	[0, 0, 0]	-999	PAL1	0	R1016M
467.921	5.018	234044	STUDY_PAIR	n/a	wordpools/wordpool_EN.txt	4	2	WING	HOOK	DART	WING	3	[0, 0, 0]	-999	PAL1	0	R1016M
472.939	0.816	236553	STUDY_ORIENT	n/a	n/a	5	5	HOOK	n/a	HOOK	HOOF	3	[0, 0, 0]	-999	PAL1	0	R1016M
473.755	5.034	236961	STUDY_PAIR	n/a	wordpools/wordpool_EN.txt	5	5	HOOK	n/a	HOOK	HOOF	3	[0, 0, 0]	-999	PAL1	0	R1016M
478.789	0.85	239477	STUDY_ORIENT	n/a	n/a	6	6	HILL	VASE	VASE	HILL	3	[0, 0, 0]	-999	PAL1	0	R1016M
479.639	4.001	239902	STUDY_PAIR	n/a	wordpools/wordpool_EN.txt	6	6	HILL	VASE	VASE	HILL	3	[0, 0, 0]	-999	PAL1	0	R1016M
483.64	1.0	241903	START	n/a	n/a	-999	-999	n/a	n/a	n/a	n/a	3	[-999, -999, -999]	-999	PAL1	0	R1016M
484.64	0.017	242403	MATH_START	n/a	n/a	-999	-999	n/a	n/a	n/a	n/a	3	[0, 0, 0]	-999	PAL1	0	R1016M
484.657	16.87	242411	PROB	16838	n/a	-999	-999	n/a	n/a	n/a	n/a	3	[8, 9, 6]	21	PAL1	0	R1016M
501.527	8.656	250846	PROB	8656	n/a	-999	-999	n/a	n/a	n/a	n/a	3	[3, 9, 3]	15	PAL1	0	R1016M
510.183	0.013	255173	STOP	n/a	n/a	-999	-999	n/a	n/a	n/a	n/a	3	[-999, -999, -999]	-999	PAL1	0	R1016M
510.196	0.0	255180	TEST_START	n/a	n/a	-999	-999	n/a	n/a	n/a	n/a	3	[0, 0, 0]	-999	PAL1	0	R1016M
510.196	0.016	255180	MATH_END	n/a	n/a	-999	-999	n/a	n/a	n/a	n/a	3	[0, 0, 0]	-999	PAL1	0	R1016M
510.212	0.9	255188	TEST_ORIENT	n/a	n/a	3	1	CHEEK	PURSE	PURSE	CHEEK	3	[0, 0, 0]	-999	PAL1	0	R1016M
511.112	0.001	255638	TEST_PROBE	n/a	wordpools/wordpool_EN.txt	3	1	CHEEK	PURSE	PURSE	CHEEK	3	[0, 0, 0]	-999	PAL1	0	R1016M
511.113	1.823	255638	REC_START	n/a	n/a	3	-999	n/a	PURSE	n/a	n/a	3	[0, 0, 0]	-999	PAL1	0	R1016M
512.936	3.187	256550	REC_EVENT	1823	n/a	3	1	CHEEK	PURSE	PURSE	CHEEK	3	[0, 0, 0]	-999	PAL1	0	R1016M
516.123	0.007	258143	REC_END	n/a	n/a	3	-999	n/a	n/a	n/a	n/a	3	[0, 0, 0]	-999	PAL1	0	R1016M
516.13	0.884	258147	TEST_ORIENT	n/a	n/a	4	2	WING	HOOK	DART	WING	3	[0, 0, 0]	-999	PAL1	0	R1016M
517.014	0.0	258589	TEST_PROBE	n/a	wordpools/wordpool_EN.txt	4	2	WING	HOOK	DART	WING	3	[0, 0, 0]	-999	PAL1	0	R1016M
517.014	2.087	258589	REC_START	n/a	n/a	4	-999	n/a	HOOK	n/a	n/a	3	[0, 0, 0]	-999	PAL1	0	R1016M
519.101	2.93	259632	REC_EVENT	2087	n/a	4	2	WING	HOOK	DART	WING	3	[0, 0, 0]	-999	PAL1	0	R1016M
522.031	0.017	261097	REC_END	n/a	n/a	4	-999	n/a	n/a	n/a	n/a	3	[0, 0, 0]	-999	PAL1	0	R1016M
522.048	0.901	261106	TEST_ORIENT	n/a	n/a	1	3	TEETH	SHEET	TEETH	SHEET	3	[0, 0, 0]	-999	PAL1	0	R1016M
522.949	0.001	261556	TEST_PROBE	n/a	wordpools/wordpool_EN.txt	1	3	TEETH	SHEET	TEETH	SHEET	3	[0, 0, 0]	-999	PAL1	0	R1016M
522.95	1.333	261557	REC_START	n/a	n/a	1	-999	n/a	SHEET	n/a	n/a	3	[0, 0, 0]	-999	PAL1	0	R1016M
524.283	3.667	262223	REC_EVENT	1333	n/a	1	3	TEETH	SHEET	TEETH	SHEET	3	[0, 0, 0]	-999	PAL1	0	R1016M
527.95	0.017	264056	REC_END	n/a	n/a	1	-999	n/a	n/a	n/a	n/a	3	[0, 0, 0]	-999	PAL1	0	R1016M
527.967	0.833	264065	TEST_ORIENT	n/a	n/a	2	4	BARN	WORM	WORM	BARN	3	[0, 0, 0]	-999	PAL1	0	R1016M
528.8	0.001	264481	TEST_PROBE	n/a	wordpools/wordpool_EN.txt	2	4	BARN	WORM	WORM	BARN	3	[0, 0, 0]	-999	PAL1	0	R1016M
528.801	3.771	264482	REC_START	n/a	n/a	2	-999	n/a	WORM	n/a	n/a	3	[0, 0, 0]	-999	PAL1	0	R1016M
532.572	1.229	266367	REC_EVENT	3771	n/a	2	4	BARN	WORM	WORM	BARN	3	[0, 0, 0]	-999	PAL1	0	R1016M
533.801	0.017	266982	REC_END	n/a	n/a	2	-999	n/a	n/a	n/a	n/a	3	[0, 0, 0]	-999	PAL1	0	R1016M
533.818	0.882	266990	TEST_ORIENT	n/a	n/a	5	5	HOOK	n/a	HOOK	HOOF	3	[0, 0, 0]	-999	PAL1	0	R1016M
534.7	0.001	267431	TEST_PROBE	n/a	wordpools/wordpool_EN.txt	5	5	HOOK	n/a	HOOK	HOOF	3	[0, 0, 0]	-999	PAL1	0	R1016M
534.701	0.0	267432	REC_START	n/a	n/a	5	-999	n/a	n/a	n/a	n/a	3	[0, 0, 0]	-999	PAL1	0	R1016M
534.701	5.011	267432	REC_EVENT	0	n/a	5	5	HOOK	<>	HOOK	HOOF	3	[0, 0, 0]	-999	PAL1	0	R1016M
539.712	0.023	269937	REC_END	n/a	n/a	5	-999	n/a	n/a	n/a	n/a	3	[0, 0, 0]	-999	PAL1	0	R1016M
539.735	0.933	269949	TEST_ORIENT	n/a	n/a	6	6	HILL	VASE	VASE	HILL	3	[0, 0, 0]	-999	PAL1	0	R1016M
540.668	0.001	270415	TEST_PROBE	n/a	wordpools/wordpool_EN.txt	6	6	HILL	VASE	VASE	HILL	3	[0, 0, 0]	-999	PAL1	0	R1016M
540.669	2.935	270416	REC_START	n/a	n/a	6	-999	n/a	VASE	n/a	n/a	3	[0, 0, 0]	-999	PAL1	0	R1016M
543.604	2.076	271883	REC_EVENT	2935	n/a	6	6	HILL	VASE	VASE	HILL	3	[0, 0, 0]	-999	PAL1	0	R1016M
545.68	5.319	272921	REC_END	n/a	n/a	6	-999	n/a	n/a	n/a	n/a	3	[0, 0, 0]	-999	PAL1	0	R1016M
550.999	10.44	275580	ENCODING_START	n/a	n/a	0	-999	n/a	n/a	n/a	n/a	4	[0, 0, 0]	-999	PAL1	0	R1016M
561.439	0.784	280800	STUDY_ORIENT	n/a	n/a	1	3	SPEAR	GRAPE	GRAPE	SPEAR	4	[0, 0, 0]	-999	PAL1	0	R1016M
562.223	5.034	281192	STUDY_PAIR	n/a	wordpools/wordpool_EN.txt	1	3	SPEAR	GRAPE	GRAPE	SPEAR	4	[0, 0, 0]	-999	PAL1	0	R1016M
567.257	0.817	283709	STUDY_ORIENT	n/a	n/a	2	2	SHIP	CORD	CORD	SHIP	4	[0, 0, 0]	-999	PAL1	0	R1016M
568.074	5.034	284117	STUDY_PAIR	n/a	wordpools/wordpool_EN.txt	2	2	SHIP	CORD	CORD	SHIP	4	[0, 0, 0]	-999	PAL1	0	R1016M
573.108	0.851	286634	STUDY_ORIENT	n/a	n/a	3	5	MOUTH	n/a	MOUTH	DOOR	4	[0, 0, 0]	-999	PAL1	0	R1016M
573.959	5.018	287060	STUDY_PAIR	n/a	wordpools/wordpool_EN.txt	3	5	MOUTH	n/a	MOUTH	DOOR	4	[0, 0, 0]	-999	PAL1	0	R1016M
578.977	0.967	289569	STUDY_ORIENT	n/a	n/a	4	6	BATH	BLOOM	BLOOM	BATH	4	[0, 0, 0]	-999	PAL1	0	R1016M
579.944	5.034	290052	STUDY_PAIR	n/a	wordpools/wordpool_EN.txt	4	6	BATH	BLOOM	BLOOM	BATH	4	[0, 0, 0]	-999	PAL1	0	R1016M
584.978	0.799	292569	STUDY_ORIENT	n/a	n/a	5	1	BADGE	ROCK	ROCK	BADGE	4	[0, 0, 0]	-999	PAL1	0	R1016M
585.777	5.019	292968	STUDY_PAIR	n/a	wordpools/wordpool_EN.txt	5	1	BADGE	ROCK	ROCK	BADGE	4	[0, 0, 0]	-999	PAL1	0	R1016M
590.796	0.816	295478	STUDY_ORIENT	n/a	n/a	6	4	STONE	n/a	STONE	SMILE	4	[0, 0, 0]	-999	PAL1	0	R1016M
591.612	4.018	295886	STUDY_PAIR	n/a	wordpools/wordpool_EN.txt	6	4	STONE	n/a	STONE	SMILE	4	[0, 0, 0]	-999	PAL1	0	R1016M
595.63	0.999	297895	START	n/a	n/a	-999	-999	n/a	n/a	n/a	n/a	4	[-999, -999, -999]	-999	PAL1	0	R1016M
596.629	0.017	298394	MATH_START	n/a	n/a	-999	-999	n/a	n/a	n/a	n/a	4	[0, 0, 0]	-999	PAL1	0	R1016M
596.646	6.918	298403	PROB	6889	n/a	-999	-999	n/a	n/a	n/a	n/a	4	[1, 4, 4]	9	PAL1	0	R1016M
603.564	21.667	301861	PROB	21667	n/a	-999	-999	n/a	n/a	n/a	n/a	4	[7, 6, 9]	22	PAL1	0	R1016M
625.231	0.004	312694	STOP	n/a	n/a	-999	-999	n/a	n/a	n/a	n/a	4	[-999, -999, -999]	-999	PAL1	0	R1016M
625.235	0.0	312696	MATH_END	n/a	n/a	-999	-999	n/a	n/a	n/a	n/a	4	[0, 0, 0]	-999	PAL1	0	R1016M
625.235	0.017	312696	TEST_START	n/a	n/a	-999	-999	n/a	n/a	n/a	n/a	4	[0, 0, 0]	-999	PAL1	0	R1016M
625.252	1.0	312705	TEST_ORIENT	n/a	n/a	5	1	BADGE	ROCK	ROCK	BADGE	4	[0, 0, 0]	-999	PAL1	0	R1016M
626.252	0.001	313205	TEST_PROBE	n/a	wordpools/wordpool_EN.txt	5	1	BADGE	ROCK	ROCK	BADGE	4	[0, 0, 0]	-999	PAL1	0	R1016M
626.253	2.104	313205	REC_START	n/a	n/a	5	-999	n/a	ROCK	n/a	n/a	4	[0, 0, 0]	-999	PAL1	0	R1016M
628.357	2.906	314257	REC_EVENT	2104	n/a	5	1	BADGE	ROCK	ROCK	BADGE	4	[0, 0, 0]	-999	PAL1	0	R1016M
631.263	0.023	315710	REC_END	n/a	n/a	5	-999	n/a	n/a	n/a	n/a	4	[0, 0, 0]	-999	PAL1	0	R1016M
631.286	0.817	315722	TEST_ORIENT	n/a	n/a	2	2	SHIP	CORD	CORD	SHIP	4	[0, 0, 0]	-999	PAL1	0	R1016M
632.103	0.001	316130	TEST_PROBE	n/a	wordpools/wordpool_EN.txt	2	2	SHIP	CORD	CORD	SHIP	4	[0, 0, 0]	-999	PAL1	0	R1016M
632.104	2.346	316131	REC_START	n/a	n/a	2	-999	n/a	CORD	n/a	n/a	4	[0, 0, 0]	-999	PAL1	0	R1016M
634.45	2.664	317304	REC_EVENT	2346	n/a	2	2	SHIP	CORD	CORD	SHIP	4	[0, 0, 0]	-999	PAL1	0	R1016M
637.114	0.024	318635	REC_END	n/a	n/a	2	-999	n/a	n/a	n/a	n/a	4	[0, 0, 0]	-999	PAL1	0	R1016M
637.138	1.016	318647	TEST_ORIENT	n/a	n/a	1	3	SPEAR	GRAPE	GRAPE	SPEAR	4	[0, 0, 0]	-999	PAL1	0	R1016M
638.154	0.001	319155	TEST_PROBE	n/a	wordpools/wordpool_EN.txt	1	3	SPEAR	GRAPE	GRAPE	SPEAR	4	[0, 0, 0]	-999	PAL1	0	R1016M
638.155	3.395	319156	REC_START	n/a	n/a	1	-999	n/a	GRAPE	n/a	n/a	4	[0, 0, 0]	-999	PAL1	0	R1016M
641.55	1.605	320853	REC_EVENT	3395	n/a	1	3	SPEAR	GRAPE	GRAPE	SPEAR	4	[0, 0, 0]	-999	PAL1	0	R1016M
643.155	0.017	321656	REC_END	n/a	n/a	1	-999	n/a	n/a	n/a	n/a	4	[0, 0, 0]	-999	PAL1	0	R1016M
643.172	0.9	321664	TEST_ORIENT	n/a	n/a	6	4	STONE	n/a	STONE	SMILE	4	[0, 0, 0]	-999	PAL1	0	R1016M
644.072	0.001	322114	TEST_PROBE	n/a	wordpools/wordpool_EN.txt	6	4	STONE	n/a	STONE	SMILE	4	[0, 0, 0]	-999	PAL1	0	R1016M
644.073	0.426	322115	REC_START	n/a	n/a	6	-999	n/a	n/a	n/a	n/a	4	[0, 0, 0]	-999	PAL1	0	R1016M
644.499	3.11	322328	REC_EVENT	426	n/a	6	4	STONE	<>	STONE	SMILE	4	[0, 0, 0]	-999	PAL1	0	R1016M
647.609	1.474	323883	REC_EVENT	3536	n/a	6	4	STONE	<>	STONE	SMILE	4	[0, 0, 0]	-999	PAL1	0	R1016M
649.083	0.024	324620	REC_END	n/a	n/a	6	-999	n/a	n/a	n/a	n/a	4	[0, 0, 0]	-999	PAL1	0	R1016M
649.107	1.0	324632	TEST_ORIENT	n/a	n/a	3	5	MOUTH	n/a	MOUTH	DOOR	4	[0, 0, 0]	-999	PAL1	0	R1016M
650.107	0.001	325132	TEST_PROBE	n/a	wordpools/wordpool_EN.txt	3	5	MOUTH	n/a	MOUTH	DOOR	4	[0, 0, 0]	-999	PAL1	0	R1016M
650.108	0.585	325132	REC_START	n/a	n/a	3	-999	n/a	n/a	n/a	n/a	4	[0, 0, 0]	-999	PAL1	0	R1016M
650.693	3.1	325425	REC_EVENT	585	n/a	3	5	MOUTH	<>	MOUTH	DOOR	4	[0, 0, 0]	-999	PAL1	0	R1016M
653.793	1.342	326975	REC_EVENT	3685	n/a	3	5	MOUTH	<>	MOUTH	DOOR	4	[0, 0, 0]	-999	PAL1	0	R1016M
655.135	0.023	327645	REC_END	n/a	n/a	3	-999	n/a	n/a	n/a	n/a	4	[0, 0, 0]	-999	PAL1	0	R1016M
655.158	0.818	327657	TEST_ORIENT	n/a	n/a	4	6	BATH	BLOOM	BLOOM	BATH	4	[0, 0, 0]	-999	PAL1	0	R1016M
655.976	0.0	328066	TEST_PROBE	n/a	wordpools/wordpool_EN.txt	4	6	BATH	BLOOM	BLOOM	BATH	4	[0, 0, 0]	-999	PAL1	0	R1016M
655.976	2.752	328066	REC_START	n/a	n/a	4	-999	n/a	BLOOM	n/a	n/a	4	[0, 0, 0]	-999	PAL1	0	R1016M
658.728	2.265	329442	REC_EVENT	2752	n/a	4	6	BATH	BLOOM	BLOOM	BATH	4	[0, 0, 0]	-999	PAL1	0	R1016M
660.993	5.478	330574	REC_END	n/a	n/a	4	-999	n/a	n/a	n/a	n/a	4	[0, 0, 0]	-999	PAL1	0	R1016M
666.471	10.442	333313	ENCODING_START	n/a	n/a	0	-999	n/a	n/a	n/a	n/a	5	[0, 0, 0]	-999	PAL1	0	R1016M
676.913	0.967	338534	STUDY_ORIENT	n/a	n/a	1	3	CAPE	SNAKE	CAPE	SNAKE	5	[0, 0, 0]	-999	PAL1	0	R1016M
677.88	5.018	339017	STUDY_PAIR	n/a	wordpools/wordpool_EN.txt	1	3	CAPE	SNAKE	CAPE	SNAKE	5	[0, 0, 0]	-999	PAL1	0	R1016M
682.898	1.017	341526	STUDY_ORIENT	n/a	n/a	2	4	KEY	STONE	KEY	CART	5	[0, 0, 0]	-999	PAL1	0	R1016M
683.915	5.034	342035	STUDY_PAIR	n/a	wordpools/wordpool_EN.txt	2	4	KEY	STONE	KEY	CART	5	[0, 0, 0]	-999	PAL1	0	R1016M
688.949	0.917	344552	STUDY_ORIENT	n/a	n/a	3	5	STORM	n/a	STORM	SEAT	5	[0, 0, 0]	-999	PAL1	0	R1016M
689.866	5.034	345010	STUDY_PAIR	n/a	wordpools/wordpool_EN.txt	3	5	STORM	n/a	STORM	SEAT	5	[0, 0, 0]	-999	PAL1	0	R1016M
694.9	0.799	347527	STUDY_ORIENT	n/a	n/a	4	2	PANTS	TOYS	PANTS	TOY	5	[0, 0, 0]	-999	PAL1	0	R1016M
695.699	5.018	347926	STUDY_PAIR	n/a	wordpools/wordpool_EN.txt	4	2	PANTS	TOYS	PANTS	TOY	5	[0, 0, 0]	-999	PAL1	0	R1016M
700.717	0.967	350435	STUDY_ORIENT	n/a	n/a	5	1	BRUSH	n/a	BRUSH	BOOT	5	[0, 0, 0]	-999	PAL1	0	R1016M
701.684	5.034	350919	STUDY_PAIR	n/a	wordpools/wordpool_EN.txt	5	1	BRUSH	n/a	BRUSH	BOOT	5	[0, 0, 0]	-999	PAL1	0	R1016M
706.718	0.934	353436	STUDY_ORIENT	n/a	n/a	6	6	PEACH	n/a	PEACH	SPONGE	5	[0, 0, 0]	-999	PAL1	0	R1016M
707.652	4.018	353903	STUDY_PAIR	n/a	wordpools/wordpool_EN.txt	6	6	PEACH	n/a	PEACH	SPONGE	5	[0, 0, 0]	-999	PAL1	0	R1016M
711.67	0.999	355911	START	n/a	n/a	-999	-999	n/a	n/a	n/a	n/a	5	[-999, -999, -999]	-999	PAL1	0	R1016M
712.669	0.017	356411	MATH_START	n/a	n/a	-999	-999	n/a	n/a	n/a	n/a	5	[0, 0, 0]	-999	PAL1	0	R1016M
712.686	8.919	356419	PROB	8897	n/a	-999	-999	n/a	n/a	n/a	n/a	5	[3, 7, 1]	11	PAL1	0	R1016M
721.605	11.602	360879	PROB	11602	n/a	-999	-999	n/a	n/a	n/a	n/a	5	[1, 9, 9]	19	PAL1	0	R1016M
733.207	0.017	366679	STOP	n/a	n/a	-999	-999	n/a	n/a	n/a	n/a	5	[-999, -999, -999]	-999	PAL1	0	R1016M
733.224	0.0	366688	MATH_END	n/a	n/a	-999	-999	n/a	n/a	n/a	n/a	5	[0, 0, 0]	-999	PAL1	0	R1016M
733.224	0.016	366688	TEST_START	n/a	n/a	-999	-999	n/a	n/a	n/a	n/a	5	[0, 0, 0]	-999	PAL1	0	R1016M
733.24	0.884	366696	TEST_ORIENT	n/a	n/a	5	1	BRUSH	n/a	BRUSH	BOOT	5	[0, 0, 0]	-999	PAL1	0	R1016M
734.124	0.001	367138	TEST_PROBE	n/a	wordpools/wordpool_EN.txt	5	1	BRUSH	n/a	BRUSH	BOOT	5	[0, 0, 0]	-999	PAL1	0	R1016M
734.125	2.634	367138	REC_START	n/a	n/a	5	-999	n/a	n/a	n/a	n/a	5	[0, 0, 0]	-999	PAL1	0	R1016M
736.759	2.382	368455	REC_EVENT	2634	n/a	5	1	BRUSH	<>	BRUSH	BOOT	5	[0, 0, 0]	-999	PAL1	0	R1016M
739.141	0.017	369646	REC_END	n/a	n/a	5	-999	n/a	n/a	n/a	n/a	5	[0, 0, 0]	-999	PAL1	0	R1016M
739.158	1.017	369655	TEST_ORIENT	n/a	n/a	4	2	PANTS	TOYS	PANTS	TOY	5	[0, 0, 0]	-999	PAL1	0	R1016M
740.175	0.0	370163	TEST_PROBE	n/a	wordpools/wordpool_EN.txt	4	2	PANTS	TOYS	PANTS	TOY	5	[0, 0, 0]	-999	PAL1	0	R1016M
740.175	2.567	370163	REC_START	n/a	n/a	4	-999	n/a	TOYS	n/a	n/a	5	[0, 0, 0]	-999	PAL1	0	R1016M
742.742	2.45	371447	REC_EVENT	2567	n/a	4	2	PANTS	TOYS	PANTS	TOY	5	[0, 0, 0]	-999	PAL1	0	R1016M
745.192	0.017	372671	REC_END	n/a	n/a	4	-999	n/a	n/a	n/a	n/a	5	[0, 0, 0]	-999	PAL1	0	R1016M
745.209	0.95	372680	TEST_ORIENT	n/a	n/a	1	3	CAPE	SNAKE	CAPE	SNAKE	5	[0, 0, 0]	-999	PAL1	0	R1016M
746.159	0.001	373155	TEST_PROBE	n/a	wordpools/wordpool_EN.txt	1	3	CAPE	SNAKE	CAPE	SNAKE	5	[0, 0, 0]	-999	PAL1	0	R1016M
746.16	1.888	373155	REC_START	n/a	n/a	1	-999	n/a	SNAKE	n/a	n/a	5	[0, 0, 0]	-999	PAL1	0	R1016M
748.048	1.34	374099	REC_EVENT	1888	n/a	1	3	CAPE	SNACK	CAPE	SNAKE	5	[0, 0, 0]	-999	PAL1	0	R1016M
749.388	1.772	374769	REC_EVENT	3228	n/a	1	3	CAPE	SNAKE	CAPE	SNAKE	5	[0, 0, 0]	-999	PAL1	0	R1016M
751.16	0.017	375655	REC_END	n/a	n/a	1	-999	n/a	n/a	n/a	n/a	5	[0, 0, 0]	-999	PAL1	0	R1016M
751.177	0.967	375664	TEST_ORIENT	n/a	n/a	2	4	KEY	STONE	KEY	CART	5	[0, 0, 0]	-999	PAL1	0	R1016M
752.144	0.001	376147	TEST_PROBE	n/a	wordpools/wordpool_EN.txt	2	4	KEY	STONE	KEY	CART	5	[0, 0, 0]	-999	PAL1	0	R1016M
752.145	3.338	376148	REC_START	n/a	n/a	2	-999	n/a	STONE	n/a	n/a	5	[0, 0, 0]	-999	PAL1	0	R1016M
755.483	1.678	377817	REC_EVENT	3338	n/a	2	4	KEY	STONE	KEY	CART	5	[0, 0, 0]	-999	PAL1	0	R1016M
757.161	0.017	378656	REC_END	n/a	n/a	2	-999	n/a	n/a	n/a	n/a	5	[0, 0, 0]	-999	PAL1	0	R1016M
757.178	0.917	378664	TEST_ORIENT	n/a	n/a	3	5	STORM	n/a	STORM	SEAT	5	[0, 0, 0]	-999	PAL1	0	R1016M
758.095	0.001	379123	TEST_PROBE	n/a	wordpools/wordpool_EN.txt	3	5	STORM	n/a	STORM	SEAT	5	[0, 0, 0]	-999	PAL1	0	R1016M
758.096	1.833	379123	REC_START	n/a	n/a	3	-999	n/a	n/a	n/a	n/a	5	[0, 0, 0]	-999	PAL1	0	R1016M
759.929	3.177	380040	REC_EVENT	1833	n/a	3	5	STORM	<>	STORM	SEAT	5	[0, 0, 0]	-999	PAL1	0	R1016M
763.106	0.024	381628	REC_END	n/a	n/a	3	-999	n/a	n/a	n/a	n/a	5	[0, 0, 0]	-999	PAL1	0	R1016M
763.13	1.033	381640	TEST_ORIENT	n/a	n/a	6	6	PEACH	n/a	PEACH	SPONGE	5	[0, 0, 0]	-999	PAL1	0	R1016M
764.163	0.0	382156	TEST_PROBE	n/a	wordpools/wordpool_EN.txt	6	6	PEACH	n/a	PEACH	SPONGE	5	[0, 0, 0]	-999	PAL1	0	R1016M
764.163	1.254	382156	REC_START	n/a	n/a	6	-999	n/a	n/a	n/a	n/a	5	[0, 0, 0]	-999	PAL1	0	R1016M
765.417	3.764	382783	REC_EVENT	1254	n/a	6	6	PEACH	<>	PEACH	SPONGE	5	[0, 0, 0]	-999	PAL1	0	R1016M
769.181	4.226	384665	REC_END	n/a	n/a	6	-999	n/a	n/a	n/a	n/a	5	[0, 0, 0]	-999	PAL1	0	R1016M
773.407	10.444	386778	ENCODING_START	n/a	n/a	0	-999	n/a	n/a	n/a	n/a	6	[0, 0, 0]	-999	PAL1	0	R1016M
783.851	0.984	392000	STUDY_ORIENT	n/a	n/a	1	3	SALT	CANE	YARD	SALT	6	[0, 0, 0]	-999	PAL1	0	R1016M
784.835	5.034	392492	STUDY_PAIR	n/a	wordpools/wordpool_EN.txt	1	3	SALT	CANE	YARD	SALT	6	[0, 0, 0]	-999	PAL1	0	R1016M
789.869	0.849	395009	STUDY_ORIENT	n/a	n/a	2	2	BAT	BOMB	BAT	SNAIL	6	[0, 0, 0]	-999	PAL1	0	R1016M
790.718	5.018	395433	STUDY_PAIR	n/a	wordpools/wordpool_EN.txt	2	2	BAT	BOMB	BAT	SNAIL	6	[0, 0, 0]	-999	PAL1	0	R1016M
795.736	0.967	397942	STUDY_ORIENT	n/a	n/a	3	5	TREE	ROCK	BRICK	TREE	6	[0, 0, 0]	-999	PAL1	0	R1016M
796.703	5.034	398426	STUDY_PAIR	n/a	wordpools/wordpool_EN.txt	3	5	TREE	ROCK	BRICK	TREE	6	[0, 0, 0]	-999	PAL1	0	R1016M
801.737	0.817	400942	STUDY_ORIENT	n/a	n/a	4	6	FISH	SPEAR	FISH	BIRD	6	[0, 0, 0]	-999	PAL1	0	R1016M
802.554	5.018	401351	STUDY_PAIR	n/a	wordpools/wordpool_EN.txt	4	6	FISH	SPEAR	FISH	BIRD	6	[0, 0, 0]	-999	PAL1	0	R1016M
807.572	0.883	403860	STUDY_ORIENT	n/a	n/a	5	1	SINK	n/a	SINK	SNOW	6	[0, 0, 0]	-999	PAL1	0	R1016M
808.455	5.018	404301	STUDY_PAIR	n/a	wordpools/wordpool_EN.txt	5	1	SINK	n/a	SINK	SNOW	6	[0, 0, 0]	-999	PAL1	0	R1016M
813.473	0.933	406810	STUDY_ORIENT	n/a	n/a	6	4	CANE	n/a	BALL	CANE	6	[0, 0, 0]	-999	PAL1	0	R1016M
814.406	4.002	407277	STUDY_PAIR	n/a	wordpools/wordpool_EN.txt	6	4	CANE	n/a	BALL	CANE	6	[0, 0, 0]	-999	PAL1	0	R1016M
818.408	0.999	409277	START	n/a	n/a	-999	-999	n/a	n/a	n/a	n/a	6	[-999, -999, -999]	-999	PAL1	0	R1016M
819.407	0.017	409777	MATH_START	n/a	n/a	-999	-999	n/a	n/a	n/a	n/a	6	[0, 0, 0]	-999	PAL1	0	R1016M
819.424	10.035	409785	PROB	10007	n/a	-999	-999	n/a	n/a	n/a	n/a	6	[4, 2, 8]	6	PAL1	0	R1016M
829.459	12.732	414803	PROB	12732	n/a	-999	-999	n/a	n/a	n/a	n/a	6	[4, 7, 5]	16	PAL1	0	R1016M
842.191	0.004	421168	STOP	n/a	n/a	-999	-999	n/a	n/a	n/a	n/a	6	[-999, -999, -999]	-999	PAL1	0	R1016M
842.195	0.0	421170	MATH_END	n/a	n/a	-999	-999	n/a	n/a	n/a	n/a	6	[0, 0, 0]	-999	PAL1	0	R1016M
842.195	0.017	421170	TEST_START	n/a	n/a	-999	-999	n/a	n/a	n/a	n/a	6	[0, 0, 0]	-999	PAL1	0	R1016M
842.212	1.034	421179	TEST_ORIENT	n/a	n/a	5	1	SINK	n/a	SINK	SNOW	6	[0, 0, 0]	-999	PAL1	0	R1016M
843.246	0.0	421696	REC_START	n/a	n/a	5	-999	n/a	n/a	n/a	n/a	6	[0, 0, 0]	-999	PAL1	0	R1016M
843.246	4.821	421696	TEST_PROBE	n/a	wordpools/wordpool_EN.txt	5	1	SINK	n/a	SINK	SNOW	6	[0, 0, 0]	-999	PAL1	0	R1016M
848.067	0.196	424106	REC_EVENT	4821	n/a	5	1	SINK	<>	SINK	SNOW	6	[0, 0, 0]	-999	PAL1	0	R1016M
848.263	0.017	424204	REC_END	n/a	n/a	5	-999	n/a	n/a	n/a	n/a	6	[0, 0, 0]	-999	PAL1	0	R1016M
848.28	1.0	424213	TEST_ORIENT	n/a	n/a	2	2	BAT	BOMB	BAT	SNAIL	6	[0, 0, 0]	-999	PAL1	0	R1016M
849.28	0.001	424713	TEST_PROBE	n/a	wordpools/wordpool_EN.txt	2	2	BAT	BOMB	BAT	SNAIL	6	[0, 0, 0]	-999	PAL1	0	R1016M
849.281	4.324	424713	REC_START	n/a	n/a	2	-999	n/a	BOMB	n/a	n/a	6	[0, 0, 0]	-999	PAL1	0	R1016M
853.605	0.686	426875	REC_EVENT	4324	n/a	2	2	BAT	BOMB	BAT	SNAIL	6	[0, 0, 0]	-999	PAL1	0	R1016M
854.291	0.023	427218	REC_END	n/a	n/a	2	-999	n/a	n/a	n/a	n/a	6	[0, 0, 0]	-999	PAL1	0	R1016M
854.314	0.984	427229	TEST_ORIENT	n/a	n/a	1	3	SALT	CANE	YARD	SALT	6	[0, 0, 0]	-999	PAL1	0	R1016M
855.298	0.001	427721	TEST_PROBE	n/a	wordpools/wordpool_EN.txt	1	3	SALT	CANE	YARD	SALT	6	[0, 0, 0]	-999	PAL1	0	R1016M
855.299	2.78	427722	REC_START	n/a	n/a	1	-999	n/a	CANE	n/a	n/a	6	[0, 0, 0]	-999	PAL1	0	R1016M
858.079	2.236	429112	REC_EVENT	2780	n/a	1	3	SALT	CANE	YARD	SALT	6	[0, 0, 0]	-999	PAL1	0	R1016M
860.315	0.017	430230	REC_END	n/a	n/a	1	-999	n/a	n/a	n/a	n/a	6	[0, 0, 0]	-999	PAL1	0	R1016M
860.332	0.967	430238	TEST_ORIENT	n/a	n/a	6	4	CANE	n/a	BALL	CANE	6	[0, 0, 0]	-999	PAL1	0	R1016M
861.299	0.001	430722	TEST_PROBE	n/a	wordpools/wordpool_EN.txt	6	4	CANE	n/a	BALL	CANE	6	[0, 0, 0]	-999	PAL1	0	R1016M
861.3	0.65	430722	REC_START	n/a	n/a	6	-999	n/a	n/a	n/a	n/a	6	[0, 0, 0]	-999	PAL1	0	R1016M
861.95	4.36	431047	REC_EVENT	650	n/a	6	4	CANE	<>	BALL	CANE	6	[0, 0, 0]	-999	PAL1	0	R1016M
866.31	0.024	433227	REC_END	n/a	n/a	6	-999	n/a	n/a	n/a	n/a	6	[0, 0, 0]	-999	PAL1	0	R1016M
866.334	0.85	433239	TEST_ORIENT	n/a	n/a	3	5	TREE	ROCK	BRICK	TREE	6	[0, 0, 0]	-999	PAL1	0	R1016M
867.184	0.0	433664	TEST_PROBE	n/a	wordpools/wordpool_EN.txt	3	5	TREE	ROCK	BRICK	TREE	6	[0, 0, 0]	-999	PAL1	0	R1016M
867.184	1.888	433664	REC_START	n/a	n/a	3	-999	n/a	ROCK	n/a	n/a	6	[0, 0, 0]	-999	PAL1	0	R1016M
869.072	3.129	434608	REC_EVENT	1888	n/a	3	5	TREE	ROCK	BRICK	TREE	6	[0, 0, 0]	-999	PAL1	0	R1016M
872.201	0.017	436172	REC_END	n/a	n/a	3	-999	n/a	n/a	n/a	n/a	6	[0, 0, 0]	-999	PAL1	0	R1016M
872.218	0.85	436181	TEST_ORIENT	n/a	n/a	4	6	FISH	SPEAR	FISH	BIRD	6	[0, 0, 0]	-999	PAL1	0	R1016M
873.068	0.001	436606	TEST_PROBE	n/a	wordpools/wordpool_EN.txt	4	6	FISH	SPEAR	FISH	BIRD	6	[0, 0, 0]	-999	PAL1	0	R1016M
873.069	3.248	436606	REC_START	n/a	n/a	4	-999	n/a	SPEAR	n/a	n/a	6	[0, 0, 0]	-999	PAL1	0	R1016M
876.317	1.763	438230	REC_EVENT	3248	n/a	4	6	FISH	SPEAR	FISH	BIRD	6	[0, 0, 0]	-999	PAL1	0	R1016M
878.08	16.383	439112	REC_END	n/a	n/a	4	-999	n/a	n/a	n/a	n/a	6	[0, 0, 0]	-999	PAL1	0	R1016M
894.463	10.446	447303	ENCODING_START	n/a	n/a	0	-999	n/a	n/a	n/a	n/a	7	[0, 0, 0]	-999	PAL1	0	R1016M
904.909	0.782	452526	STUDY_ORIENT	n/a	n/a	1	5	PIG	n/a	CLOUD	PIG	7	[0, 0, 0]	-999	PAL1	0	R1016M
905.691	5.018	452917	STUDY_PAIR	n/a	wordpools/wordpool_EN.txt	1	5	PIG	n/a	CLOUD	PIG	7	[0, 0, 0]	-999	PAL1	0	R1016M
910.709	0.917	455425	STUDY_ORIENT	n/a	n/a	2	4	CAGE	n/a	CAGE	WHALE	7	[0, 0, 0]	-999	PAL1	0	R1016M
911.626	5.034	455884	STUDY_PAIR	n/a	wordpools/wordpool_EN.txt	2	4	CAGE	n/a	CAGE	WHALE	7	[0, 0, 0]	-999	PAL1	0	R1016M
916.66	0.934	458401	STUDY_ORIENT	n/a	n/a	3	3	CHIN	n/a	WAND	CHIN	7	[0, 0, 0]	-999	PAL1	0	R1016M
917.594	5.034	458868	STUDY_PAIR	n/a	wordpools/wordpool_EN.txt	3	3	CHIN	n/a	WAND	CHIN	7	[0, 0, 0]	-999	PAL1	0	R1016M
922.628	0.9	461385	STUDY_ORIENT	n/a	n/a	4	2	TEA	SCHOOL	TEA	SCHOOL	7	[0, 0, 0]	-999	PAL1	0	R1016M
923.528	5.018	461835	STUDY_PAIR	n/a	wordpools/wordpool_EN.txt	4	2	TEA	SCHOOL	TEA	SCHOOL	7	[0, 0, 0]	-999	PAL1	0	R1016M
928.546	0.967	464343	STUDY_ORIENT	n/a	n/a	5	1	CROW	n/a	CROW	SHOE	7	[0, 0, 0]	-999	PAL1	0	R1016M
929.513	5.034	464827	STUDY_PAIR	n/a	wordpools/wordpool_EN.txt	5	1	CROW	n/a	CROW	SHOE	7	[0, 0, 0]	-999	PAL1	0	R1016M
934.547	0.85	467344	STUDY_ORIENT	n/a	n/a	6	6	PALM	n/a	NOSE	PALM	7	[0, 0, 0]	-999	PAL1	0	R1016M
935.397	4.001	467769	STUDY_PAIR	n/a	wordpools/wordpool_EN.txt	6	6	PALM	n/a	NOSE	PALM	7	[0, 0, 0]	-999	PAL1	0	R1016M
939.398	1.0	469769	START	n/a	n/a	-999	-999	n/a	n/a	n/a	n/a	7	[-999, -999, -999]	-999	PAL1	0	R1016M
940.398	0.017	470269	MATH_START	n/a	n/a	-999	-999	n/a	n/a	n/a	n/a	7	[0, 0, 0]	-999	PAL1	0	R1016M
940.415	17.521	470278	PROB	17497	n/a	-999	-999	n/a	n/a	n/a	n/a	7	[7, 8, 4]	19	PAL1	0	R1016M
957.936	8.207	479038	PROB	8207	n/a	-999	-999	n/a	n/a	n/a	n/a	7	[5, 3, 3]	11	PAL1	0	R1016M
966.143	0.01	483141	STOP	n/a	n/a	-999	-999	n/a	n/a	n/a	n/a	7	[-999, -999, -999]	-999	PAL1	0	R1016M
966.153	0.0	483146	MATH_END	n/a	n/a	-999	-999	n/a	n/a	n/a	n/a	7	[0, 0, 0]	-999	PAL1	0	R1016M
966.153	0.017	483146	TEST_START	n/a	n/a	-999	-999	n/a	n/a	n/a	n/a	7	[0, 0, 0]	-999	PAL1	0	R1016M
966.17	0.884	483154	TEST_ORIENT	n/a	n/a	5	1	CROW	n/a	CROW	SHOE	7	[0, 0, 0]	-999	PAL1	0	R1016M
967.054	0.0	483596	REC_EVENT	0	n/a	5	1	CROW	<>	CROW	SHOE	7	[0, 0, 0]	-999	PAL1	0	R1016M
967.054	0.0	483596	TEST_PROBE	n/a	wordpools/wordpool_EN.txt	5	1	CROW	n/a	CROW	SHOE	7	[0, 0, 0]	-999	PAL1	0	R1016M
967.054	5.017	483596	REC_START	n/a	n/a	5	-999	n/a	n/a	n/a	n/a	7	[0, 0, 0]	-999	PAL1	0	R1016M
972.071	0.017	486105	REC_END	n/a	n/a	5	-999	n/a	n/a	n/a	n/a	7	[0, 0, 0]	-999	PAL1	0	R1016M
972.088	1.017	486113	TEST_ORIENT	n/a	n/a	4	2	TEA	SCHOOL	TEA	SCHOOL	7	[0, 0, 0]	-999	PAL1	0	R1016M
973.105	0.001	486622	TEST_PROBE	n/a	wordpools/wordpool_EN.txt	4	2	TEA	SCHOOL	TEA	SCHOOL	7	[0, 0, 0]	-999	PAL1	0	R1016M
973.106	4.145	486622	REC_START	n/a	n/a	4	-999	n/a	SCHOOL	n/a	n/a	7	[0, 0, 0]	-999	PAL1	0	R1016M
977.251	0.871	488695	REC_EVENT	4145	n/a	4	2	TEA	SCHOOL	TEA	SCHOOL	7	[0, 0, 0]	-999	PAL1	0	R1016M
978.122	0.017	489130	REC_END	n/a	n/a	4	-999	n/a	n/a	n/a	n/a	7	[0, 0, 0]	-999	PAL1	0	R1016M
978.139	0.884	489138	TEST_ORIENT	n/a	n/a	3	3	CHIN	n/a	WAND	CHIN	7	[0, 0, 0]	-999	PAL1	0	R1016M
979.023	0.0	489580	TEST_PROBE	n/a	wordpools/wordpool_EN.txt	3	3	CHIN	n/a	WAND	CHIN	7	[0, 0, 0]	-999	PAL1	0	R1016M
979.023	1.236	489580	REC_START	n/a	n/a	3	-999	n/a	n/a	n/a	n/a	7	[0, 0, 0]	-999	PAL1	0	R1016M
980.259	3.781	490198	REC_EVENT	1236	n/a	3	3	CHIN	<>	WAND	CHIN	7	[0, 0, 0]	-999	PAL1	0	R1016M
984.04	0.017	492089	REC_END	n/a	n/a	3	-999	n/a	n/a	n/a	n/a	7	[0, 0, 0]	-999	PAL1	0	R1016M
984.057	0.935	492097	TEST_ORIENT	n/a	n/a	2	4	CAGE	n/a	CAGE	WHALE	7	[0, 0, 0]	-999	PAL1	0	R1016M
984.992	0.0	492565	TEST_PROBE	n/a	wordpools/wordpool_EN.txt	2	4	CAGE	n/a	CAGE	WHALE	7	[0, 0, 0]	-999	PAL1	0	R1016M
984.992	4.277	492565	REC_START	n/a	n/a	2	-999	n/a	n/a	n/a	n/a	7	[0, 0, 0]	-999	PAL1	0	R1016M
989.269	0.739	494703	REC_EVENT	4277	n/a	2	4	CAGE	<>	CAGE	WHALE	7	[0, 0, 0]	-999	PAL1	0	R1016M
990.008	0.017	495073	REC_END	n/a	n/a	2	-999	n/a	n/a	n/a	n/a	7	[0, 0, 0]	-999	PAL1	0	R1016M
990.025	1.034	495081	TEST_ORIENT	n/a	n/a	1	5	PIG	n/a	CLOUD	PIG	7	[0, 0, 0]	-999	PAL1	0	R1016M
991.059	0.0	495598	TEST_PROBE	n/a	wordpools/wordpool_EN.txt	1	5	PIG	n/a	CLOUD	PIG	7	[0, 0, 0]	-999	PAL1	0	R1016M
991.059	1.265	495598	REC_START	n/a	n/a	1	-999	n/a	n/a	n/a	n/a	7	[0, 0, 0]	-999	PAL1	0	R1016M
992.324	3.752	496231	REC_EVENT	1265	n/a	1	5	PIG	<>	CLOUD	PIG	7	[0, 0, 0]	-999	PAL1	0	R1016M
996.076	0.017	498106	REC_END	n/a	n/a	1	-999	n/a	n/a	n/a	n/a	7	[0, 0, 0]	-999	PAL1	0	R1016M
996.093	0.834	498115	TEST_ORIENT	n/a	n/a	6	6	PALM	n/a	NOSE	PALM	7	[0, 0, 0]	-999	PAL1	0	R1016M
996.927	0.001	498532	TEST_PROBE	n/a	wordpools/wordpool_EN.txt	6	6	PALM	n/a	NOSE	PALM	7	[0, 0, 0]	-999	PAL1	0	R1016M
996.928	2.497	498532	REC_START	n/a	n/a	6	-999	n/a	n/a	n/a	n/a	7	[0, 0, 0]	-999	PAL1	0	R1016M
999.425	2.514	499781	REC_EVENT	2497	n/a	6	6	PALM	<>	NOSE	PALM	7	[0, 0, 0]	-999	PAL1	0	R1016M
1001.939	6.444	501038	REC_END	n/a	n/a	6	-999	n/a	n/a	n/a	n/a	7	[0, 0, 0]	-999	PAL1	0	R1016M
1008.383	10.449	504260	ENCODING_START	n/a	n/a	0	-999	n/a	n/a	n/a	n/a	8	[0, 0, 0]	-999	PAL1	0	R1016M
1018.832	0.916	509484	STUDY_ORIENT	n/a	n/a	1	3	STORE	LAKE	STORE	LAKE	8	[0, 0, 0]	-999	PAL1	0	R1016M
1019.748	5.034	509942	STUDY_PAIR	n/a	wordpools/wordpool_EN.txt	1	3	STORE	LAKE	STORE	LAKE	8	[0, 0, 0]	-999	PAL1	0	R1016M
1024.782	0.85	512459	STUDY_ORIENT	n/a	n/a	2	2	COIN	n/a	COIN	BEAK	8	[0, 0, 0]	-999	PAL1	0	R1016M
1025.632	5.018	512884	STUDY_PAIR	n/a	wordpools/wordpool_EN.txt	2	2	COIN	n/a	COIN	BEAK	8	[0, 0, 0]	-999	PAL1	0	R1016M
1030.65	0.9	515393	STUDY_ORIENT	n/a	n/a	3	1	PEAR	n/a	CROWN	PEAR	8	[0, 0, 0]	-999	PAL1	0	R1016M
1031.55	5.034	515843	STUDY_PAIR	n/a	wordpools/wordpool_EN.txt	3	1	PEAR	n/a	CROWN	PEAR	8	[0, 0, 0]	-999	PAL1	0	R1016M
1036.584	0.8	518359	STUDY_ORIENT	n/a	n/a	4	4	DITCH	n/a	DITCH	JAR	8	[0, 0, 0]	-999	PAL1	0	R1016M
1037.384	5.018	518759	STUDY_PAIR	n/a	wordpools/wordpool_EN.txt	4	4	DITCH	n/a	DITCH	JAR	8	[0, 0, 0]	-999	PAL1	0	R1016M
1042.402	0.867	521268	STUDY_ORIENT	n/a	n/a	5	5	LAWN	THAT WAS LAKE	LAWN	TOOTH	8	[0, 0, 0]	-999	PAL1	0	R1016M
1043.269	5.034	521702	STUDY_PAIR	n/a	wordpools/wordpool_EN.txt	5	5	LAWN	THAT WAS LAKE	LAWN	TOOTH	8	[0, 0, 0]	-999	PAL1	0	R1016M
1048.303	0.834	524219	STUDY_ORIENT	n/a	n/a	6	6	CHIEF	CANE	STICK	CHIEF	8	[0, 0, 0]	-999	PAL1	0	R1016M
1049.137	4.018	524636	STUDY_PAIR	n/a	wordpools/wordpool_EN.txt	6	6	CHIEF	CANE	STICK	CHIEF	8	[0, 0, 0]	-999	PAL1	0	R1016M
1053.155	0.999	526644	START	n/a	n/a	-999	-999	n/a	n/a	n/a	n/a	8	[-999, -999, -999]	-999	PAL1	0	R1016M
1054.154	0.017	527144	MATH_START	n/a	n/a	-999	-999	n/a	n/a	n/a	n/a	8	[0, 0, 0]	-999	PAL1	0	R1016M
1054.171	15.12	527152	PROB	15092	n/a	-999	-999	n/a	n/a	n/a	n/a	8	[9, 7, 1]	16	PAL1	0	R1016M
1069.291	15.356	534712	PROB	15356	n/a	-999	-999	n/a	n/a	n/a	n/a	8	[7, 9, 9]	25	PAL1	0	R1016M
1084.647	0.014	542390	STOP	n/a	n/a	-999	-999	n/a	n/a	n/a	n/a	8	[-999, -999, -999]	-999	PAL1	0	R1016M
1084.661	0.0	542397	MATH_END	n/a	n/a	-999	-999	n/a	n/a	n/a	n/a	8	[0, 0, 0]	-999	PAL1	0	R1016M
1084.661	0.016	542397	TEST_START	n/a	n/a	-999	-999	n/a	n/a	n/a	n/a	8	[0, 0, 0]	-999	PAL1	0	R1016M
1084.677	0.784	542405	TEST_ORIENT	n/a	n/a	3	1	PEAR	n/a	CROWN	PEAR	8	[0, 0, 0]	-999	PAL1	0	R1016M
1085.461	0.0	542797	TEST_PROBE	n/a	wordpools/wordpool_EN.txt	3	1	PEAR	n/a	CROWN	PEAR	8	[0, 0, 0]	-999	PAL1	0	R1016M
1085.461	0.046	542797	REC_START	n/a	n/a	3	-999	n/a	n/a	n/a	n/a	8	[0, 0, 0]	-999	PAL1	0	R1016M
1085.507	4.971	542820	REC_EVENT	46	n/a	3	1	PEAR	<>	CROWN	PEAR	8	[0, 0, 0]	-999	PAL1	0	R1016M
1090.478	0.017	545305	REC_END	n/a	n/a	3	-999	n/a	n/a	n/a	n/a	8	[0, 0, 0]	-999	PAL1	0	R1016M
1090.495	0.95	545313	TEST_ORIENT	n/a	n/a	2	2	COIN	n/a	COIN	BEAK	8	[0, 0, 0]	-999	PAL1	0	R1016M
1091.445	0.0	545788	TEST_PROBE	n/a	wordpools/wordpool_EN.txt	2	2	COIN	n/a	COIN	BEAK	8	[0, 0, 0]	-999	PAL1	0	R1016M
1091.445	0.0	545788	REC_START	n/a	n/a	2	-999	n/a	n/a	n/a	n/a	8	[0, 0, 0]	-999	PAL1	0	R1016M
1091.445	5.018	545788	REC_EVENT	0	n/a	2	2	COIN	<>	COIN	BEAK	8	[0, 0, 0]	-999	PAL1	0	R1016M
1096.463	0.017	548297	REC_END	n/a	n/a	2	-999	n/a	n/a	n/a	n/a	8	[0, 0, 0]	-999	PAL1	0	R1016M
1096.48	1.016	548306	TEST_ORIENT	n/a	n/a	1	3	STORE	LAKE	STORE	LAKE	8	[0, 0, 0]	-999	PAL1	0	R1016M
1097.496	0.001	548814	TEST_PROBE	n/a	wordpools/wordpool_EN.txt	1	3	STORE	LAKE	STORE	LAKE	8	[0, 0, 0]	-999	PAL1	0	R1016M
1097.497	2.65	548814	REC_START	n/a	n/a	1	-999	n/a	LAKE	n/a	n/a	8	[0, 0, 0]	-999	PAL1	0	R1016M
1100.147	2.36	550139	REC_EVENT	2650	n/a	1	3	STORE	LAKE	STORE	LAKE	8	[0, 0, 0]	-999	PAL1	0	R1016M
1102.507	0.007	551319	REC_END	n/a	n/a	1	-999	n/a	n/a	n/a	n/a	8	[0, 0, 0]	-999	PAL1	0	R1016M
1102.514	0.867	551323	TEST_ORIENT	n/a	n/a	4	4	DITCH	n/a	DITCH	JAR	8	[0, 0, 0]	-999	PAL1	0	R1016M
1103.381	0.0	551756	TEST_PROBE	n/a	wordpools/wordpool_EN.txt	4	4	DITCH	n/a	DITCH	JAR	8	[0, 0, 0]	-999	PAL1	0	R1016M
1103.381	1.423	551756	REC_START	n/a	n/a	4	-999	n/a	n/a	n/a	n/a	8	[0, 0, 0]	-999	PAL1	0	R1016M
1104.804	3.594	552467	REC_EVENT	1423	n/a	4	4	DITCH	<>	DITCH	JAR	8	[0, 0, 0]	-999	PAL1	0	R1016M
1108.398	0.017	554264	REC_END	n/a	n/a	4	-999	n/a	n/a	n/a	n/a	8	[0, 0, 0]	-999	PAL1	0	R1016M
1108.415	0.951	554273	TEST_ORIENT	n/a	n/a	5	5	LAWN	THAT WAS LAKE	LAWN	TOOTH	8	[0, 0, 0]	-999	PAL1	0	R1016M
1109.366	0.0	554748	TEST_PROBE	n/a	wordpools/wordpool_EN.txt	5	5	LAWN	THAT WAS LAKE	LAWN	TOOTH	8	[0, 0, 0]	-999	PAL1	0	R1016M
1109.366	3.563	554748	REC_START	n/a	n/a	5	-999	n/a	THAT WAS LAKE	n/a	n/a	8	[0, 0, 0]	-999	PAL1	0	R1016M
1112.929	1.454	556530	REC_EVENT	3563	n/a	5	5	LAWN	THAT WAS LAKE	LAWN	TOOTH	8	[0, 0, 0]	-999	PAL1	0	R1016M
1114.383	0.017	557257	REC_END	n/a	n/a	5	-999	n/a	n/a	n/a	n/a	8	[0, 0, 0]	-999	PAL1	0	R1016M
1114.4	0.9	557265	TEST_ORIENT	n/a	n/a	6	6	CHIEF	CANE	STICK	CHIEF	8	[0, 0, 0]	-999	PAL1	0	R1016M
1115.3	0.001	557715	TEST_PROBE	n/a	wordpools/wordpool_EN.txt	6	6	CHIEF	CANE	STICK	CHIEF	8	[0, 0, 0]	-999	PAL1	0	R1016M
1115.301	2.331	557716	REC_START	n/a	n/a	6	-999	n/a	CANE	n/a	n/a	8	[0, 0, 0]	-999	PAL1	0	R1016M
1117.632	2.695	558881	REC_EVENT	2331	n/a	6	6	CHIEF	CANE	STICK	CHIEF	8	[0, 0, 0]	-999	PAL1	0	R1016M
1120.327	264.824	560229	REC_END	n/a	n/a	6	-999	n/a	n/a	n/a	n/a	8	[0, 0, 0]	-999	PAL1	0	R1016M
1385.151	10.439	692633	ENCODING_START	n/a	n/a	0	-999	n/a	n/a	n/a	n/a	9	[0, 0, 0]	-999	PAL1	0	R1016M
1395.59	0.85	697852	STUDY_ORIENT	n/a	n/a	1	3	TOAST	n/a	TOAST	GEESE	9	[0, 0, 0]	-999	PAL1	0	R1016M
1396.44	5.034	698277	STUDY_PAIR	n/a	wordpools/wordpool_EN.txt	1	3	TOAST	n/a	TOAST	GEESE	9	[0, 0, 0]	-999	PAL1	0	R1016M
1401.474	0.984	700794	STUDY_ORIENT	n/a	n/a	2	6	BANK	ROOM	ROOM	BANK	9	[0, 0, 0]	-999	PAL1	0	R1016M
1402.458	5.034	701286	STUDY_PAIR	n/a	wordpools/wordpool_EN.txt	2	6	BANK	ROOM	ROOM	BANK	9	[0, 0, 0]	-999	PAL1	0	R1016M
1407.492	0.934	703803	STUDY_ORIENT	n/a	n/a	3	5	TRAIN	n/a	HEART	TRAIN	9	[0, 0, 0]	-999	PAL1	0	R1016M
1408.426	5.034	704270	STUDY_PAIR	n/a	wordpools/wordpool_EN.txt	3	5	TRAIN	n/a	HEART	TRAIN	9	[0, 0, 0]	-999	PAL1	0	R1016M
1413.46	0.783	706787	STUDY_ORIENT	n/a	n/a	4	2	TRAY	n/a	TRAY	CHALK	9	[0, 0, 0]	-999	PAL1	0	R1016M
1414.243	5.018	707178	STUDY_PAIR	n/a	wordpools/wordpool_EN.txt	4	2	TRAY	n/a	TRAY	CHALK	9	[0, 0, 0]	-999	PAL1	0	R1016M
1419.261	0.817	709687	STUDY_ORIENT	n/a	n/a	5	1	JUDGE	SOUP	JUDGE	SOUP	9	[0, 0, 0]	-999	PAL1	0	R1016M
1420.078	5.034	710096	STUDY_PAIR	n/a	wordpools/wordpool_EN.txt	5	1	JUDGE	SOUP	JUDGE	SOUP	9	[0, 0, 0]	-999	PAL1	0	R1016M
1425.112	0.917	712613	STUDY_ORIENT	n/a	n/a	6	4	CRANE	PHONE	CRANE	PHONE	9	[0, 0, 0]	-999	PAL1	0	R1016M
1426.029	4.018	713071	STUDY_PAIR	n/a	wordpools/wordpool_EN.txt	6	4	CRANE	PHONE	CRANE	PHONE	9	[0, 0, 0]	-999	PAL1	0	R1016M
1430.047	0.999	715080	START	n/a	n/a	-999	-999	n/a	n/a	n/a	n/a	9	[-999, -999, -999]	-999	PAL1	0	R1016M
1431.046	0.017	715579	MATH_START	n/a	n/a	-999	-999	n/a	n/a	n/a	n/a	9	[0, 0, 0]	-999	PAL1	0	R1016M
1431.063	11.619	715588	PROB	11600	n/a	-999	-999	n/a	n/a	n/a	n/a	9	[5, 3, 3]	11	PAL1	0	R1016M
1442.682	11.317	721397	PROB	11317	n/a	-999	-999	n/a	n/a	n/a	n/a	9	[3, 8, 5]	16	PAL1	0	R1016M
1453.999	0.002	727055	STOP	n/a	n/a	-999	-999	n/a	n/a	n/a	n/a	9	[-999, -999, -999]	-999	PAL1	0	R1016M
1454.001	0.0	727056	TEST_START	n/a	n/a	-999	-999	n/a	n/a	n/a	n/a	9	[0, 0, 0]	-999	PAL1	0	R1016M
1454.001	0.017	727056	MATH_END	n/a	n/a	-999	-999	n/a	n/a	n/a	n/a	9	[0, 0, 0]	-999	PAL1	0	R1016M
1454.018	0.918	727065	TEST_ORIENT	n/a	n/a	5	1	JUDGE	SOUP	JUDGE	SOUP	9	[0, 0, 0]	-999	PAL1	0	R1016M
1454.936	0.001	727524	TEST_PROBE	n/a	wordpools/wordpool_EN.txt	5	1	JUDGE	SOUP	JUDGE	SOUP	9	[0, 0, 0]	-999	PAL1	0	R1016M
1454.937	4.333	727524	REC_START	n/a	n/a	5	-999	n/a	SOUP	n/a	n/a	9	[0, 0, 0]	-999	PAL1	0	R1016M
1459.27	0.694	729691	REC_EVENT	4333	n/a	5	1	JUDGE	SOUP	JUDGE	SOUP	9	[0, 0, 0]	-999	PAL1	0	R1016M
1459.964	0.023	730038	REC_END	n/a	n/a	5	-999	n/a	n/a	n/a	n/a	9	[0, 0, 0]	-999	PAL1	0	R1016M
1459.987	0.9	730049	TEST_ORIENT	n/a	n/a	4	2	TRAY	n/a	TRAY	CHALK	9	[0, 0, 0]	-999	PAL1	0	R1016M
1460.887	0.001	730499	TEST_PROBE	n/a	wordpools/wordpool_EN.txt	4	2	TRAY	n/a	TRAY	CHALK	9	[0, 0, 0]	-999	PAL1	0	R1016M
1460.888	1.879	730500	REC_START	n/a	n/a	4	-999	n/a	n/a	n/a	n/a	9	[0, 0, 0]	-999	PAL1	0	R1016M
1462.767	3.137	731439	REC_EVENT	1879	n/a	4	2	TRAY	<>	TRAY	CHALK	9	[0, 0, 0]	-999	PAL1	0	R1016M
1465.904	0.017	733007	REC_END	n/a	n/a	4	-999	n/a	n/a	n/a	n/a	9	[0, 0, 0]	-999	PAL1	0	R1016M
1465.921	0.849	733016	TEST_ORIENT	n/a	n/a	1	3	TOAST	n/a	TOAST	GEESE	9	[0, 0, 0]	-999	PAL1	0	R1016M
1466.77	0.001	733440	TEST_PROBE	n/a	wordpools/wordpool_EN.txt	1	3	TOAST	n/a	TOAST	GEESE	9	[0, 0, 0]	-999	PAL1	0	R1016M
1466.771	1.914	733441	REC_START	n/a	n/a	1	-999	n/a	n/a	n/a	n/a	9	[0, 0, 0]	-999	PAL1	0	R1016M
1468.685	3.096	734398	REC_EVENT	1914	n/a	1	3	TOAST	<>	TOAST	GEESE	9	[0, 0, 0]	-999	PAL1	0	R1016M
1471.781	0.007	735946	REC_END	n/a	n/a	1	-999	n/a	n/a	n/a	n/a	9	[0, 0, 0]	-999	PAL1	0	R1016M
1471.788	0.8	735949	TEST_ORIENT	n/a	n/a	6	4	CRANE	PHONE	CRANE	PHONE	9	[0, 0, 0]	-999	PAL1	0	R1016M
1472.588	0.001	736349	TEST_PROBE	n/a	wordpools/wordpool_EN.txt	6	4	CRANE	PHONE	CRANE	PHONE	9	[0, 0, 0]	-999	PAL1	0	R1016M
1472.589	1.773	736350	REC_START	n/a	n/a	6	-999	n/a	PHONE	n/a	n/a	9	[0, 0, 0]	-999	PAL1	0	R1016M
1474.362	3.237	737236	REC_EVENT	1773	n/a	6	4	CRANE	PHONE	CRANE	PHONE	9	[0, 0, 0]	-999	PAL1	0	R1016M
1477.599	0.007	738855	REC_END	n/a	n/a	6	-999	n/a	n/a	n/a	n/a	9	[0, 0, 0]	-999	PAL1	0	R1016M
1477.606	0.917	738858	TEST_ORIENT	n/a	n/a	3	5	TRAIN	n/a	HEART	TRAIN	9	[0, 0, 0]	-999	PAL1	0	R1016M
1478.523	0.0	739317	TEST_PROBE	n/a	wordpools/wordpool_EN.txt	3	5	TRAIN	n/a	HEART	TRAIN	9	[0, 0, 0]	-999	PAL1	0	R1016M
1478.523	0.0	739317	REC_START	n/a	n/a	3	-999	n/a	n/a	n/a	n/a	9	[0, 0, 0]	-999	PAL1	0	R1016M
1478.523	5.017	739317	REC_EVENT	0	n/a	3	5	TRAIN	<>	HEART	TRAIN	9	[0, 0, 0]	-999	PAL1	0	R1016M
1483.54	0.017	741825	REC_END	n/a	n/a	3	-999	n/a	n/a	n/a	n/a	9	[0, 0, 0]	-999	PAL1	0	R1016M
1483.557	0.917	741833	TEST_ORIENT	n/a	n/a	2	6	BANK	ROOM	ROOM	BANK	9	[0, 0, 0]	-999	PAL1	0	R1016M
1484.474	0.001	742292	TEST_PROBE	n/a	wordpools/wordpool_EN.txt	2	6	BANK	ROOM	ROOM	BANK	9	[0, 0, 0]	-999	PAL1	0	R1016M
1484.475	2.328	742292	REC_START	n/a	n/a	2	-999	n/a	ROOM	n/a	n/a	9	[0, 0, 0]	-999	PAL1	0	R1016M
1486.803	2.699	743456	REC_EVENT	2328	n/a	2	6	BANK	ROOM	ROOM	BANK	9	[0, 0, 0]	-999	PAL1	0	R1016M
1489.502	8.306	744806	REC_END	n/a	n/a	2	-999	n/a	n/a	n/a	n/a	9	[0, 0, 0]	-999	PAL1	0	R1016M
1497.808	10.437	748959	ENCODING_START	n/a	n/a	0	-999	n/a	n/a	n/a	n/a	10	[0, 0, 0]	-999	PAL1	0	R1016M
1508.245	0.967	754177	STUDY_ORIENT	n/a	n/a	1	5	RUG	n/a	CLIFF	RUG	10	[0, 0, 0]	-999	PAL1	0	R1016M
1509.212	5.018	754660	STUDY_PAIR	n/a	wordpools/wordpool_EN.txt	1	5	RUG	n/a	CLIFF	RUG	10	[0, 0, 0]	-999	PAL1	0	R1016M
1514.23	0.867	757169	STUDY_ORIENT	n/a	n/a	2	2	FUR	WAVE	FUR	WAVE	10	[0, 0, 0]	-999	PAL1	0	R1016M
1515.097	5.034	757603	STUDY_PAIR	n/a	wordpools/wordpool_EN.txt	2	2	FUR	WAVE	FUR	WAVE	10	[0, 0, 0]	-999	PAL1	0	R1016M
1520.131	0.884	760119	STUDY_ORIENT	n/a	n/a	3	3	FENCE	n/a	POOL	FENCE	10	[0, 0, 0]	-999	PAL1	0	R1016M
1521.015	5.034	760561	STUDY_PAIR	n/a	wordpools/wordpool_EN.txt	3	3	FENCE	n/a	POOL	FENCE	10	[0, 0, 0]	-999	PAL1	0	R1016M
1526.049	0.818	763078	STUDY_ORIENT	n/a	n/a	4	6	BREAD	n/a	BREAD	CASH	10	[0, 0, 0]	-999	PAL1	0	R1016M
1526.867	5.034	763487	STUDY_PAIR	n/a	wordpools/wordpool_EN.txt	4	6	BREAD	n/a	BREAD	CASH	10	[0, 0, 0]	-999	PAL1	0	R1016M
1531.901	0.799	766004	STUDY_ORIENT	n/a	n/a	5	1	BENCH	n/a	BENCH	STOOL	10	[0, 0, 0]	-999	PAL1	0	R1016M
1532.7	5.018	766404	STUDY_PAIR	n/a	wordpools/wordpool_EN.txt	5	1	BENCH	n/a	BENCH	STOOL	10	[0, 0, 0]	-999	PAL1	0	R1016M
1537.718	0.934	768912	STUDY_ORIENT	n/a	n/a	6	4	SHRIMP	n/a	SHRIMP	TENT	10	[0, 0, 0]	-999	PAL1	0	R1016M
1538.652	4.017	769379	STUDY_PAIR	n/a	wordpools/wordpool_EN.txt	6	4	SHRIMP	n/a	SHRIMP	TENT	10	[0, 0, 0]	-999	PAL1	0	R1016M
1542.669	1.0	771388	START	n/a	n/a	-999	-999	n/a	n/a	n/a	n/a	10	[-999, -999, -999]	-999	PAL1	0	R1016M
1543.669	0.017	771888	MATH_START	n/a	n/a	-999	-999	n/a	n/a	n/a	n/a	10	[0, 0, 0]	-999	PAL1	0	R1016M
1543.686	8.152	771896	PROB	8130	n/a	-999	-999	n/a	n/a	n/a	n/a	10	[5, 9, 5]	19	PAL1	0	R1016M
1551.838	15.537	775972	PROB	15537	n/a	-999	-999	n/a	n/a	n/a	n/a	10	[7, 2, 5]	18	PAL1	0	R1016M
1567.375	0.016	783740	STOP	n/a	n/a	-999	-999	n/a	n/a	n/a	n/a	10	[-999, -999, -999]	-999	PAL1	0	R1016M
1567.391	0.0	783748	TEST_START	n/a	n/a	-999	-999	n/a	n/a	n/a	n/a	10	[0, 0, 0]	-999	PAL1	0	R1016M
1567.391	0.016	783748	MATH_END	n/a	n/a	-999	-999	n/a	n/a	n/a	n/a	10	[0, 0, 0]	-999	PAL1	0	R1016M
1567.407	0.884	783756	TEST_ORIENT	n/a	n/a	5	1	BENCH	n/a	BENCH	STOOL	10	[0, 0, 0]	-999	PAL1	0	R1016M
1568.291	0.0	784198	TEST_PROBE	n/a	wordpools/wordpool_EN.txt	5	1	BENCH	n/a	BENCH	STOOL	10	[0, 0, 0]	-999	PAL1	0	R1016M
1568.291	0.0	784198	REC_START	n/a	n/a	5	-999	n/a	n/a	n/a	n/a	10	[0, 0, 0]	-999	PAL1	0	R1016M
1568.291	5.017	784198	REC_EVENT	0	n/a	5	1	BENCH	<>	BENCH	STOOL	10	[0, 0, 0]	-999	PAL1	0	R1016M
1573.308	0.017	786706	REC_END	n/a	n/a	5	-999	n/a	n/a	n/a	n/a	10	[0, 0, 0]	-999	PAL1	0	R1016M
1573.325	0.834	786715	TEST_ORIENT	n/a	n/a	2	2	FUR	WAVE	FUR	WAVE	10	[0, 0, 0]	-999	PAL1	0	R1016M
1574.159	0.0	787132	REC_START	n/a	n/a	2	-999	n/a	WAVE	n/a	n/a	10	[0, 0, 0]	-999	PAL1	0	R1016M
1574.159	1.483	787132	TEST_PROBE	n/a	wordpools/wordpool_EN.txt	2	2	FUR	WAVE	FUR	WAVE	10	[0, 0, 0]	-999	PAL1	0	R1016M
1575.642	3.534	787873	REC_EVENT	1483	n/a	2	2	FUR	WAVE	FUR	WAVE	10	[0, 0, 0]	-999	PAL1	0	R1016M
1579.176	0.017	789640	REC_END	n/a	n/a	2	-999	n/a	n/a	n/a	n/a	10	[0, 0, 0]	-999	PAL1	0	R1016M
1579.193	0.95	789649	TEST_ORIENT	n/a	n/a	3	3	FENCE	n/a	POOL	FENCE	10	[0, 0, 0]	-999	PAL1	0	R1016M
1580.143	0.001	790124	TEST_PROBE	n/a	wordpools/wordpool_EN.txt	3	3	FENCE	n/a	POOL	FENCE	10	[0, 0, 0]	-999	PAL1	0	R1016M
1580.144	3.556	790124	REC_START	n/a	n/a	3	-999	n/a	n/a	n/a	n/a	10	[0, 0, 0]	-999	PAL1	0	R1016M
1583.7	1.454	791902	REC_EVENT	3556	n/a	3	3	FENCE	<>	POOL	FENCE	10	[0, 0, 0]	-999	PAL1	0	R1016M
1585.154	0.024	792629	REC_END	n/a	n/a	3	-999	n/a	n/a	n/a	n/a	10	[0, 0, 0]	-999	PAL1	0	R1016M
1585.178	0.983	792641	TEST_ORIENT	n/a	n/a	6	4	SHRIMP	n/a	SHRIMP	TENT	10	[0, 0, 0]	-999	PAL1	0	R1016M
1586.161	0.0	793133	REC_START	n/a	n/a	6	-999	n/a	n/a	n/a	n/a	10	[0, 0, 0]	-999	PAL1	0	R1016M
1586.161	3.402	793133	TEST_PROBE	n/a	wordpools/wordpool_EN.txt	6	4	SHRIMP	n/a	SHRIMP	TENT	10	[0, 0, 0]	-999	PAL1	0	R1016M
1589.563	1.616	794834	REC_EVENT	3402	n/a	6	4	SHRIMP	<>	SHRIMP	TENT	10	[0, 0, 0]	-999	PAL1	0	R1016M
1591.179	0.016	795641	REC_END	n/a	n/a	6	-999	n/a	n/a	n/a	n/a	10	[0, 0, 0]	-999	PAL1	0	R1016M
1591.195	1.017	795649	TEST_ORIENT	n/a	n/a	1	5	RUG	n/a	CLIFF	RUG	10	[0, 0, 0]	-999	PAL1	0	R1016M
1592.212	0.001	796158	TEST_PROBE	n/a	wordpools/wordpool_EN.txt	1	5	RUG	n/a	CLIFF	RUG	10	[0, 0, 0]	-999	PAL1	0	R1016M
1592.213	2.112	796158	REC_START	n/a	n/a	1	-999	n/a	n/a	n/a	n/a	10	[0, 0, 0]	-999	PAL1	0	R1016M
1594.325	2.888	797214	REC_EVENT	2112	n/a	1	5	RUG	<>	CLIFF	RUG	10	[0, 0, 0]	-999	PAL1	0	R1016M
1597.213	0.017	798658	REC_END	n/a	n/a	1	-999	n/a	n/a	n/a	n/a	10	[0, 0, 0]	-999	PAL1	0	R1016M
1597.23	0.917	798667	TEST_ORIENT	n/a	n/a	4	6	BREAD	n/a	BREAD	CASH	10	[0, 0, 0]	-999	PAL1	0	R1016M
1598.147	0.0	799125	TEST_PROBE	n/a	wordpools/wordpool_EN.txt	4	6	BREAD	n/a	BREAD	CASH	10	[0, 0, 0]	-999	PAL1	0	R1016M
1598.147	0.0	799125	REC_START	n/a	n/a	4	-999	n/a	n/a	n/a	n/a	10	[0, 0, 0]	-999	PAL1	0	R1016M
1598.147	4.26	799125	REC_EVENT	0	n/a	4	6	BREAD	<>	BREAD	CASH	10	[0, 0, 0]	-999	PAL1	0	R1016M
1602.407	0.757	801255	REC_EVENT	4260	n/a	4	6	BREAD	<>	BREAD	CASH	10	[0, 0, 0]	-999	PAL1	0	R1016M
1603.164	8.772	801634	REC_END	n/a	n/a	4	-999	n/a	n/a	n/a	n/a	10	[0, 0, 0]	-999	PAL1	0	R1016M
1611.936	10.449	806019	ENCODING_START	n/a	n/a	0	-999	n/a	n/a	n/a	n/a	11	[0, 0, 0]	-999	PAL1	0	R1016M
1622.385	0.817	811244	STUDY_ORIENT	n/a	n/a	1	1	CUP	SOUP	LAMP	CUP	11	[0, 0, 0]	-999	PAL1	0	R1016M
1623.202	5.034	811652	STUDY_PAIR	n/a	wordpools/wordpool_EN.txt	1	1	CUP	SOUP	LAMP	CUP	11	[0, 0, 0]	-999	PAL1	0	R1016M
1628.236	0.934	814169	STUDY_ORIENT	n/a	n/a	2	4	FLAME	n/a	FLAME	GATE	11	[0, 0, 0]	-999	PAL1	0	R1016M
1629.17	5.034	814636	STUDY_PAIR	n/a	wordpools/wordpool_EN.txt	2	4	FLAME	n/a	FLAME	GATE	11	[0, 0, 0]	-999	PAL1	0	R1016M
1634.204	0.95	817153	STUDY_ORIENT	n/a	n/a	3	5	HAT	n/a	HAT	ROOT	11	[0, 0, 0]	-999	PAL1	0	R1016M
1635.154	5.018	817628	STUDY_PAIR	n/a	wordpools/wordpool_EN.txt	3	5	HAT	n/a	HAT	ROOT	11	[0, 0, 0]	-999	PAL1	0	R1016M
1640.172	0.9	820137	STUDY_ORIENT	n/a	n/a	4	2	BRANCH	n/a	BRANCH	BOX	11	[0, 0, 0]	-999	PAL1	0	R1016M
1641.072	5.018	820587	STUDY_PAIR	n/a	wordpools/wordpool_EN.txt	4	2	BRANCH	n/a	BRANCH	BOX	11	[0, 0, 0]	-999	PAL1	0	R1016M
1646.09	0.868	823095	STUDY_ORIENT	n/a	n/a	5	3	HOLE	ROSE	HOLE	ROSE	11	[0, 0, 0]	-999	PAL1	0	R1016M
1646.958	5.034	823529	STUDY_PAIR	n/a	wordpools/wordpool_EN.txt	5	3	HOLE	ROSE	HOLE	ROSE	11	[0, 0, 0]	-999	PAL1	0	R1016M
1651.992	0.884	826046	STUDY_ORIENT	n/a	n/a	6	6	RAT	n/a	LEG	RAT	11	[0, 0, 0]	-999	PAL1	0	R1016M
1652.876	4.017	826488	STUDY_PAIR	n/a	wordpools/wordpool_EN.txt	6	6	RAT	n/a	LEG	RAT	11	[0, 0, 0]	-999	PAL1	0	R1016M
1656.893	1.0	828497	START	n/a	n/a	-999	-999	n/a	n/a	n/a	n/a	11	[-999, -999, -999]	-999	PAL1	0	R1016M
1657.893	0.017	828997	MATH_START	n/a	n/a	-999	-999	n/a	n/a	n/a	n/a	11	[0, 0, 0]	-999	PAL1	0	R1016M
1657.91	10.684	829005	PROB	10657	n/a	-999	-999	n/a	n/a	n/a	n/a	11	[4, 7, 3]	14	PAL1	0	R1016M
1668.594	9.853	834347	PROB	9853	n/a	-999	-999	n/a	n/a	n/a	n/a	11	[2, 3, 8]	13	PAL1	0	R1016M
1678.447	0.016	839273	STOP	n/a	n/a	-999	-999	n/a	n/a	n/a	n/a	11	[-999, -999, -999]	-999	PAL1	0	R1016M
1678.463	0.0	839281	MATH_END	n/a	n/a	-999	-999	n/a	n/a	n/a	n/a	11	[0, 0, 0]	-999	PAL1	0	R1016M
1678.463	0.017	839281	TEST_START	n/a	n/a	-999	-999	n/a	n/a	n/a	n/a	11	[0, 0, 0]	-999	PAL1	0	R1016M
1678.48	0.983	839290	TEST_ORIENT	n/a	n/a	1	1	CUP	SOUP	LAMP	CUP	11	[0, 0, 0]	-999	PAL1	0	R1016M
1679.463	0.001	839781	TEST_PROBE	n/a	wordpools/wordpool_EN.txt	1	1	CUP	SOUP	LAMP	CUP	11	[0, 0, 0]	-999	PAL1	0	R1016M
1679.464	3.335	839782	REC_START	n/a	n/a	1	-999	n/a	SOUP	n/a	n/a	11	[0, 0, 0]	-999	PAL1	0	R1016M
1682.799	1.674	841449	REC_EVENT	3335	n/a	1	1	CUP	SOUP	LAMP	CUP	11	[0, 0, 0]	-999	PAL1	0	R1016M
1684.473	0.008	842286	REC_END	n/a	n/a	1	-999	n/a	n/a	n/a	n/a	11	[0, 0, 0]	-999	PAL1	0	R1016M
1684.481	0.9	842290	TEST_ORIENT	n/a	n/a	4	2	BRANCH	n/a	BRANCH	BOX	11	[0, 0, 0]	-999	PAL1	0	R1016M
1685.381	0.0	842740	TEST_PROBE	n/a	wordpools/wordpool_EN.txt	4	2	BRANCH	n/a	BRANCH	BOX	11	[0, 0, 0]	-999	PAL1	0	R1016M
1685.381	0.623	842740	REC_START	n/a	n/a	4	-999	n/a	n/a	n/a	n/a	11	[0, 0, 0]	-999	PAL1	0	R1016M
1686.004	4.395	843051	REC_EVENT	623	n/a	4	2	BRANCH	<>	BRANCH	BOX	11	[0, 0, 0]	-999	PAL1	0	R1016M
1690.399	0.016	845249	REC_END	n/a	n/a	4	-999	n/a	n/a	n/a	n/a	11	[0, 0, 0]	-999	PAL1	0	R1016M
1690.415	0.901	845257	TEST_ORIENT	n/a	n/a	5	3	HOLE	ROSE	HOLE	ROSE	11	[0, 0, 0]	-999	PAL1	0	R1016M
1691.316	0.0	845707	TEST_PROBE	n/a	wordpools/wordpool_EN.txt	5	3	HOLE	ROSE	HOLE	ROSE	11	[0, 0, 0]	-999	PAL1	0	R1016M
1691.316	2.255	845707	REC_START	n/a	n/a	5	-999	n/a	ROSE	n/a	n/a	11	[0, 0, 0]	-999	PAL1	0	R1016M
1693.571	2.762	846835	REC_EVENT	2255	n/a	5	3	HOLE	ROSE	HOLE	ROSE	11	[0, 0, 0]	-999	PAL1	0	R1016M
1696.333	0.017	848216	REC_END	n/a	n/a	5	-999	n/a	n/a	n/a	n/a	11	[0, 0, 0]	-999	PAL1	0	R1016M
1696.35	0.967	848224	TEST_ORIENT	n/a	n/a	2	4	FLAME	n/a	FLAME	GATE	11	[0, 0, 0]	-999	PAL1	0	R1016M
1697.317	0.0	848708	TEST_PROBE	n/a	wordpools/wordpool_EN.txt	2	4	FLAME	n/a	FLAME	GATE	11	[0, 0, 0]	-999	PAL1	0	R1016M
1697.317	3.32	848708	REC_START	n/a	n/a	2	-999	n/a	n/a	n/a	n/a	11	[0, 0, 0]	-999	PAL1	0	R1016M
1700.637	1.697	850367	REC_EVENT	3320	n/a	2	4	FLAME	<>	FLAME	GATE	11	[0, 0, 0]	-999	PAL1	0	R1016M
1702.334	0.017	851216	REC_END	n/a	n/a	2	-999	n/a	n/a	n/a	n/a	11	[0, 0, 0]	-999	PAL1	0	R1016M
1702.351	0.834	851224	TEST_ORIENT	n/a	n/a	3	5	HAT	n/a	HAT	ROOT	11	[0, 0, 0]	-999	PAL1	0	R1016M
1703.185	0.0	851641	TEST_PROBE	n/a	wordpools/wordpool_EN.txt	3	5	HAT	n/a	HAT	ROOT	11	[0, 0, 0]	-999	PAL1	0	R1016M
1703.185	2.895	851641	REC_START	n/a	n/a	3	-999	n/a	n/a	n/a	n/a	11	[0, 0, 0]	-999	PAL1	0	R1016M
1706.08	2.122	853089	REC_EVENT	2895	n/a	3	5	HAT	<>	HAT	ROOT	11	[0, 0, 0]	-999	PAL1	0	R1016M
1708.202	0.017	854150	REC_END	n/a	n/a	3	-999	n/a	n/a	n/a	n/a	11	[0, 0, 0]	-999	PAL1	0	R1016M
1708.219	0.95	854158	TEST_ORIENT	n/a	n/a	6	6	RAT	n/a	LEG	RAT	11	[0, 0, 0]	-999	PAL1	0	R1016M
1709.169	0.0	854633	TEST_PROBE	n/a	wordpools/wordpool_EN.txt	6	6	RAT	n/a	LEG	RAT	11	[0, 0, 0]	-999	PAL1	0	R1016M
1709.169	1.771	854633	REC_START	n/a	n/a	6	-999	n/a	n/a	n/a	n/a	11	[0, 0, 0]	-999	PAL1	0	R1016M
1710.94	3.239	855519	REC_EVENT	1771	n/a	6	6	RAT	<>	LEG	RAT	11	[0, 0, 0]	-999	PAL1	0	R1016M
1714.179	5.044	857138	REC_END	n/a	n/a	6	-999	n/a	n/a	n/a	n/a	11	[0, 0, 0]	-999	PAL1	0	R1016M
1719.223	10.45	859660	ENCODING_START	n/a	n/a	0	-999	n/a	n/a	n/a	n/a	12	[0, 0, 0]	-999	PAL1	0	R1016M
1729.673	0.784	864885	STUDY_ORIENT	n/a	n/a	1	3	BEE	n/a	BEE	FLEA	12	[0, 0, 0]	-999	PAL1	0	R1016M
1730.457	5.034	865277	STUDY_PAIR	n/a	wordpools/wordpool_EN.txt	1	3	BEE	n/a	BEE	FLEA	12	[0, 0, 0]	-999	PAL1	0	R1016M
1735.491	0.867	867793	STUDY_ORIENT	n/a	n/a	2	6	SHEEP	n/a	SHEEP	BAG	12	[0, 0, 0]	-999	PAL1	0	R1016M
1736.358	5.034	868227	STUDY_PAIR	n/a	wordpools/wordpool_EN.txt	2	6	SHEEP	n/a	SHEEP	BAG	12	[0, 0, 0]	-999	PAL1	0	R1016M
1741.392	0.9	870744	STUDY_ORIENT	n/a	n/a	3	1	ROOF	POLE	ROOF	POLE	12	[0, 0, 0]	-999	PAL1	0	R1016M
1742.292	5.018	871194	STUDY_PAIR	n/a	wordpools/wordpool_EN.txt	3	1	ROOF	POLE	ROOF	POLE	12	[0, 0, 0]	-999	PAL1	0	R1016M
1747.31	0.934	873703	STUDY_ORIENT	n/a	n/a	4	4	SEED	n/a	WALL	SEED	12	[0, 0, 0]	-999	PAL1	0	R1016M
1748.244	5.034	874170	STUDY_PAIR	n/a	wordpools/wordpool_EN.txt	4	4	SEED	n/a	WALL	SEED	12	[0, 0, 0]	-999	PAL1	0	R1016M
1753.278	0.783	876686	STUDY_ORIENT	n/a	n/a	5	5	MOUSE	HOUSE	MOUSE	WEED	12	[0, 0, 0]	-999	PAL1	0	R1016M
1754.061	5.018	877078	STUDY_PAIR	n/a	wordpools/wordpool_EN.txt	5	5	MOUSE	HOUSE	MOUSE	WEED	12	[0, 0, 0]	-999	PAL1	0	R1016M
1759.079	0.885	879587	STUDY_ORIENT	n/a	n/a	6	2	SLIME	GLOVE	SLIME	GLOVE	12	[0, 0, 0]	-999	PAL1	0	R1016M
1759.964	4.018	880029	STUDY_PAIR	n/a	wordpools/wordpool_EN.txt	6	2	SLIME	GLOVE	SLIME	GLOVE	12	[0, 0, 0]	-999	PAL1	0	R1016M
1763.982	0.999	882038	START	n/a	n/a	-999	-999	n/a	n/a	n/a	n/a	12	[-999, -999, -999]	-999	PAL1	0	R1016M
1764.981	0.016	882538	MATH_START	n/a	n/a	-999	-999	n/a	n/a	n/a	n/a	12	[0, 0, 0]	-999	PAL1	0	R1016M
1764.997	13.386	882546	PROB	13354	n/a	-999	-999	n/a	n/a	n/a	n/a	12	[8, 1, 9]	18	PAL1	0	R1016M
1778.383	20.545	889238	PROB	20545	n/a	-999	-999	n/a	n/a	n/a	n/a	12	[5, 7, 6]	20	PAL1	0	R1016M
1798.928	0.01	899510	STOP	n/a	n/a	-999	-999	n/a	n/a	n/a	n/a	12	[-999, -999, -999]	-999	PAL1	0	R1016M
1798.938	0.0	899515	MATH_END	n/a	n/a	-999	-999	n/a	n/a	n/a	n/a	12	[0, 0, 0]	-999	PAL1	0	R1016M
1798.938	0.017	899515	TEST_START	n/a	n/a	-999	-999	n/a	n/a	n/a	n/a	12	[0, 0, 0]	-999	PAL1	0	R1016M
1798.955	1.0	899524	TEST_ORIENT	n/a	n/a	3	1	ROOF	POLE	ROOF	POLE	12	[0, 0, 0]	-999	PAL1	0	R1016M
1799.955	0.001	900024	TEST_PROBE	n/a	wordpools/wordpool_EN.txt	3	1	ROOF	POLE	ROOF	POLE	12	[0, 0, 0]	-999	PAL1	0	R1016M
1799.956	2.275	900024	REC_START	n/a	n/a	3	-999	n/a	POLE	n/a	n/a	12	[0, 0, 0]	-999	PAL1	0	R1016M
1802.231	2.741	901162	REC_EVENT	2275	n/a	3	1	ROOF	POLE	ROOF	POLE	12	[0, 0, 0]	-999	PAL1	0	R1016M
1804.972	0.017	902532	REC_END	n/a	n/a	3	-999	n/a	n/a	n/a	n/a	12	[0, 0, 0]	-999	PAL1	0	R1016M
1804.989	0.884	902541	TEST_ORIENT	n/a	n/a	6	2	SLIME	GLOVE	SLIME	GLOVE	12	[0, 0, 0]	-999	PAL1	0	R1016M
1805.873	0.0	902983	TEST_PROBE	n/a	wordpools/wordpool_EN.txt	6	2	SLIME	GLOVE	SLIME	GLOVE	12	[0, 0, 0]	-999	PAL1	0	R1016M
1805.873	1.649	902983	REC_START	n/a	n/a	6	-999	n/a	GLOVE	n/a	n/a	12	[0, 0, 0]	-999	PAL1	0	R1016M
1807.522	3.368	903807	REC_EVENT	1649	n/a	6	2	SLIME	GLOVE	SLIME	GLOVE	12	[0, 0, 0]	-999	PAL1	0	R1016M
1810.89	0.067	905491	REC_END	n/a	n/a	6	-999	n/a	n/a	n/a	n/a	12	[0, 0, 0]	-999	PAL1	0	R1016M
1810.957	0.867	905524	TEST_ORIENT	n/a	n/a	1	3	BEE	n/a	BEE	FLEA	12	[0, 0, 0]	-999	PAL1	0	R1016M
1811.824	0.0	905958	TEST_PROBE	n/a	wordpools/wordpool_EN.txt	1	3	BEE	n/a	BEE	FLEA	12	[0, 0, 0]	-999	PAL1	0	R1016M
1811.824	1.388	905958	REC_START	n/a	n/a	1	-999	n/a	n/a	n/a	n/a	12	[0, 0, 0]	-999	PAL1	0	R1016M
1813.212	3.629	906652	REC_EVENT	1388	n/a	1	3	BEE	<>	BEE	FLEA	12	[0, 0, 0]	-999	PAL1	0	R1016M
1816.841	0.017	908466	REC_END	n/a	n/a	1	-999	n/a	n/a	n/a	n/a	12	[0, 0, 0]	-999	PAL1	0	R1016M
1816.858	0.916	908475	TEST_ORIENT	n/a	n/a	4	4	SEED	n/a	WALL	SEED	12	[0, 0, 0]	-999	PAL1	0	R1016M
1817.774	0.001	908933	TEST_PROBE	n/a	wordpools/wordpool_EN.txt	4	4	SEED	n/a	WALL	SEED	12	[0, 0, 0]	-999	PAL1	0	R1016M
1817.775	1.321	908933	REC_START	n/a	n/a	4	-999	n/a	n/a	n/a	n/a	12	[0, 0, 0]	-999	PAL1	0	R1016M
1819.096	3.689	909594	REC_EVENT	1321	n/a	4	4	SEED	<>	WALL	SEED	12	[0, 0, 0]	-999	PAL1	0	R1016M
1822.785	0.024	911438	REC_END	n/a	n/a	4	-999	n/a	n/a	n/a	n/a	12	[0, 0, 0]	-999	PAL1	0	R1016M
1822.809	1.034	911450	TEST_ORIENT	n/a	n/a	5	5	MOUSE	HOUSE	MOUSE	WEED	12	[0, 0, 0]	-999	PAL1	0	R1016M
1823.843	0.0	911967	REC_START	n/a	n/a	5	-999	n/a	HOUSE	n/a	n/a	12	[0, 0, 0]	-999	PAL1	0	R1016M
1823.843	3.064	911967	TEST_PROBE	n/a	wordpools/wordpool_EN.txt	5	5	MOUSE	HOUSE	MOUSE	WEED	12	[0, 0, 0]	-999	PAL1	0	R1016M
1826.907	1.954	913499	REC_EVENT	3064	n/a	5	5	MOUSE	HOUSE	MOUSE	WEED	12	[0, 0, 0]	-999	PAL1	0	R1016M
1828.861	0.016	914476	REC_END	n/a	n/a	5	-999	n/a	n/a	n/a	n/a	12	[0, 0, 0]	-999	PAL1	0	R1016M
1828.877	0.916	914484	TEST_ORIENT	n/a	n/a	2	6	SHEEP	n/a	SHEEP	BAG	12	[0, 0, 0]	-999	PAL1	0	R1016M
1829.793	0.002	914942	TEST_PROBE	n/a	wordpools/wordpool_EN.txt	2	6	SHEEP	n/a	SHEEP	BAG	12	[0, 0, 0]	-999	PAL1	0	R1016M
1829.795	1.348	914943	REC_START	n/a	n/a	2	-999	n/a	n/a	n/a	n/a	12	[0, 0, 0]	-999	PAL1	0	R1016M
1831.143	3.662	915617	REC_EVENT	1348	n/a	2	6	SHEEP	<>	SHEEP	BAG	12	[0, 0, 0]	-999	PAL1	0	R1016M
1834.805	29.73	917448	REC_END	n/a	n/a	2	-999	n/a	n/a	n/a	n/a	12	[0, 0, 0]	-999	PAL1	0	R1016M
1864.535	10.452	932312	ENCODING_START	n/a	n/a	0	-999	n/a	n/a	n/a	n/a	13	[0, 0, 0]	-999	PAL1	0	R1016M
1874.987	0.933	937538	STUDY_ORIENT	n/a	n/a	1	1	FILM	VEST	FILM	VEST	13	[0, 0, 0]	-999	PAL1	0	R1016M
1875.92	5.018	938004	STUDY_PAIR	n/a	wordpools/wordpool_EN.txt	1	1	FILM	VEST	FILM	VEST	13	[0, 0, 0]	-999	PAL1	0	R1016M
1880.938	0.816	940513	STUDY_ORIENT	n/a	n/a	2	2	FOAM	n/a	BOY	FOAM	13	[0, 0, 0]	-999	PAL1	0	R1016M
1881.754	5.034	940921	STUDY_PAIR	n/a	wordpools/wordpool_EN.txt	2	2	FOAM	n/a	BOY	FOAM	13	[0, 0, 0]	-999	PAL1	0	R1016M
1886.788	0.85	943438	STUDY_ORIENT	n/a	n/a	3	3	SHARK	DIME	SHARK	DIME	13	[0, 0, 0]	-999	PAL1	0	R1016M
1887.638	5.018	943863	STUDY_PAIR	n/a	wordpools/wordpool_EN.txt	3	3	SHARK	DIME	SHARK	DIME	13	[0, 0, 0]	-999	PAL1	0	R1016M
1892.656	0.767	946372	STUDY_ORIENT	n/a	n/a	4	6	CLOCK	FLOWER	PLANT	CLOCK	13	[0, 0, 0]	-999	PAL1	0	R1016M
1893.423	5.034	946755	STUDY_PAIR	n/a	wordpools/wordpool_EN.txt	4	6	CLOCK	FLOWER	PLANT	CLOCK	13	[0, 0, 0]	-999	PAL1	0	R1016M
1898.457	0.9	949272	STUDY_ORIENT	n/a	n/a	5	5	CLAY	NAIL	CLAY	NAIL	13	[0, 0, 0]	-999	PAL1	0	R1016M
1899.357	5.018	949722	STUDY_PAIR	n/a	wordpools/wordpool_EN.txt	5	5	CLAY	NAIL	CLAY	NAIL	13	[0, 0, 0]	-999	PAL1	0	R1016M
1904.375	0.883	952231	STUDY_ORIENT	n/a	n/a	6	4	HORSE	TIE	TIE	HORSE	13	[0, 0, 0]	-999	PAL1	0	R1016M
1905.258	4.001	952672	STUDY_PAIR	n/a	wordpools/wordpool_EN.txt	6	4	HORSE	TIE	TIE	HORSE	13	[0, 0, 0]	-999	PAL1	0	R1016M
1909.259	1.0	954673	START	n/a	n/a	-999	-999	n/a	n/a	n/a	n/a	13	[-999, -999, -999]	-999	PAL1	0	R1016M
1910.259	0.017	955173	MATH_START	n/a	n/a	-999	-999	n/a	n/a	n/a	n/a	13	[0, 0, 0]	-999	PAL1	0	R1016M
1910.276	19.652	955181	PROB	19652	n/a	-999	-999	n/a	n/a	n/a	n/a	13	[8, 1, 6]	16	PAL1	0	R1016M
1929.928	0.003	965007	STOP	n/a	n/a	-999	-999	n/a	n/a	n/a	n/a	13	[-999, -999, -999]	-999	PAL1	0	R1016M
1929.931	0.0	965008	MATH_END	n/a	n/a	-999	-999	n/a	n/a	n/a	n/a	13	[0, 0, 0]	-999	PAL1	0	R1016M
1929.931	0.017	965008	TEST_START	n/a	n/a	-999	-999	n/a	n/a	n/a	n/a	13	[0, 0, 0]	-999	PAL1	0	R1016M
1929.948	0.883	965017	TEST_ORIENT	n/a	n/a	1	1	FILM	VEST	FILM	VEST	13	[0, 0, 0]	-999	PAL1	0	R1016M
1930.831	0.001	965458	TEST_PROBE	n/a	wordpools/wordpool_EN.txt	1	1	FILM	VEST	FILM	VEST	13	[0, 0, 0]	-999	PAL1	0	R1016M
1930.832	3.66	965459	REC_START	n/a	n/a	1	-999	n/a	VEST	n/a	n/a	13	[0, 0, 0]	-999	PAL1	0	R1016M
1934.492	0.625	967288	REC_EVENT	3660	n/a	1	1	FILM	<>	FILM	VEST	13	[0, 0, 0]	-999	PAL1	0	R1016M
1935.117	0.726	967601	REC_EVENT	4285	n/a	1	1	FILM	VEST	FILM	VEST	13	[0, 0, 0]	-999	PAL1	0	R1016M
1935.843	0.023	967964	REC_END	n/a	n/a	1	-999	n/a	n/a	n/a	n/a	13	[0, 0, 0]	-999	PAL1	0	R1016M
1935.866	1.016	967975	TEST_ORIENT	n/a	n/a	2	2	FOAM	n/a	BOY	FOAM	13	[0, 0, 0]	-999	PAL1	0	R1016M
1936.882	0.001	968483	TEST_PROBE	n/a	wordpools/wordpool_EN.txt	2	2	FOAM	n/a	BOY	FOAM	13	[0, 0, 0]	-999	PAL1	0	R1016M
1936.883	1.007	968484	REC_START	n/a	n/a	2	-999	n/a	n/a	n/a	n/a	13	[0, 0, 0]	-999	PAL1	0	R1016M
1937.89	4.003	968987	REC_EVENT	1007	n/a	2	2	FOAM	<>	BOY	FOAM	13	[0, 0, 0]	-999	PAL1	0	R1016M
1941.893	0.007	970989	REC_END	n/a	n/a	2	-999	n/a	n/a	n/a	n/a	13	[0, 0, 0]	-999	PAL1	0	R1016M
1941.9	0.816	970992	TEST_ORIENT	n/a	n/a	3	3	SHARK	DIME	SHARK	DIME	13	[0, 0, 0]	-999	PAL1	0	R1016M
1942.716	0.0	971400	TEST_PROBE	n/a	wordpools/wordpool_EN.txt	3	3	SHARK	DIME	SHARK	DIME	13	[0, 0, 0]	-999	PAL1	0	R1016M
1942.716	2.604	971400	REC_START	n/a	n/a	3	-999	n/a	DIME	n/a	n/a	13	[0, 0, 0]	-999	PAL1	0	R1016M
1945.32	2.413	972702	REC_EVENT	2604	n/a	3	3	SHARK	DIME	SHARK	DIME	13	[0, 0, 0]	-999	PAL1	0	R1016M
1947.733	0.017	973909	REC_END	n/a	n/a	3	-999	n/a	n/a	n/a	n/a	13	[0, 0, 0]	-999	PAL1	0	R1016M
1947.75	0.867	973917	TEST_ORIENT	n/a	n/a	6	4	HORSE	TIE	TIE	HORSE	13	[0, 0, 0]	-999	PAL1	0	R1016M
1948.617	0.0	974351	TEST_PROBE	n/a	wordpools/wordpool_EN.txt	6	4	HORSE	TIE	TIE	HORSE	13	[0, 0, 0]	-999	PAL1	0	R1016M
1948.617	4.501	974351	REC_START	n/a	n/a	6	-999	n/a	TIE	n/a	n/a	13	[0, 0, 0]	-999	PAL1	0	R1016M
1953.118	0.517	976601	REC_EVENT	4501	n/a	6	4	HORSE	TIE	TIE	HORSE	13	[0, 0, 0]	-999	PAL1	0	R1016M
1953.635	0.016	976859	REC_END	n/a	n/a	6	-999	n/a	n/a	n/a	n/a	13	[0, 0, 0]	-999	PAL1	0	R1016M
1953.651	0.884	976867	TEST_ORIENT	n/a	n/a	5	5	CLAY	NAIL	CLAY	NAIL	13	[0, 0, 0]	-999	PAL1	0	R1016M
1954.535	0.001	977309	TEST_PROBE	n/a	wordpools/wordpool_EN.txt	5	5	CLAY	NAIL	CLAY	NAIL	13	[0, 0, 0]	-999	PAL1	0	R1016M
1954.536	1.445	977310	REC_START	n/a	n/a	5	-999	n/a	NAIL	n/a	n/a	13	[0, 0, 0]	-999	PAL1	0	R1016M
1955.981	3.571	978032	REC_EVENT	1445	n/a	5	5	CLAY	NAIL	CLAY	NAIL	13	[0, 0, 0]	-999	PAL1	0	R1016M
1959.552	0.017	979818	REC_END	n/a	n/a	5	-999	n/a	n/a	n/a	n/a	13	[0, 0, 0]	-999	PAL1	0	R1016M
1959.569	0.784	979826	TEST_ORIENT	n/a	n/a	4	6	CLOCK	FLOWER	PLANT	CLOCK	13	[0, 0, 0]	-999	PAL1	0	R1016M
1960.353	0.0	980218	TEST_PROBE	n/a	wordpools/wordpool_EN.txt	4	6	CLOCK	FLOWER	PLANT	CLOCK	13	[0, 0, 0]	-999	PAL1	0	R1016M
1960.353	4.049	980218	REC_START	n/a	n/a	4	-999	n/a	FLOWER	n/a	n/a	13	[0, 0, 0]	-999	PAL1	0	R1016M
1964.402	0.968	982243	REC_EVENT	4049	n/a	4	6	CLOCK	FLOWER	PLANT	CLOCK	13	[0, 0, 0]	-999	PAL1	0	R1016M
1965.37	27.438	982727	REC_END	n/a	n/a	4	-999	n/a	n/a	n/a	n/a	13	[0, 0, 0]	-999	PAL1	0	R1016M
1992.808	10.437	996445	ENCODING_START	n/a	n/a	0	-999	n/a	n/a	n/a	n/a	14	[0, 0, 0]	-999	PAL1	0	R1016M
2003.245	0.917	1001663	STUDY_ORIENT	n/a	n/a	1	3	BEAR	ROPE	BEAR	ROPE	14	[0, 0, 0]	-999	PAL1	0	R1016M
2004.162	5.034	1002122	STUDY_PAIR	n/a	wordpools/wordpool_EN.txt	1	3	BEAR	ROPE	BEAR	ROPE	14	[0, 0, 0]	-999	PAL1	0	R1016M
2009.196	0.833	1004638	STUDY_ORIENT	n/a	n/a	2	2	SLUSH	BEE	NEST	SLUSH	14	[0, 0, 0]	-999	PAL1	0	R1016M
2010.029	5.018	1005055	STUDY_PAIR	n/a	wordpools/wordpool_EN.txt	2	2	SLUSH	BEE	NEST	SLUSH	14	[0, 0, 0]	-999	PAL1	0	R1016M
2015.047	1.0	1007564	STUDY_ORIENT	n/a	n/a	3	5	MOTH	NET	NET	MOTH	14	[0, 0, 0]	-999	PAL1	0	R1016M
2016.047	5.018	1008064	STUDY_PAIR	n/a	wordpools/wordpool_EN.txt	3	5	MOTH	NET	NET	MOTH	14	[0, 0, 0]	-999	PAL1	0	R1016M
2021.065	0.801	1010573	STUDY_ORIENT	n/a	n/a	4	6	CALF	STEER	CALF	STREET	14	[0, 0, 0]	-999	PAL1	0	R1016M
2021.866	5.018	1010973	STUDY_PAIR	n/a	wordpools/wordpool_EN.txt	4	6	CALF	STEER	CALF	STREET	14	[0, 0, 0]	-999	PAL1	0	R1016M
2026.884	0.967	1013482	STUDY_ORIENT	n/a	n/a	5	1	STRAW	n/a	ELF	STRAW	14	[0, 0, 0]	-999	PAL1	0	R1016M
2027.851	5.034	1013965	STUDY_PAIR	n/a	wordpools/wordpool_EN.txt	5	1	STRAW	n/a	ELF	STRAW	14	[0, 0, 0]	-999	PAL1	0	R1016M
2032.885	0.799	1016482	STUDY_ORIENT	n/a	n/a	6	4	FACE	n/a	TANK	FACE	14	[0, 0, 0]	-999	PAL1	0	R1016M
2033.684	4.002	1016882	STUDY_PAIR	n/a	wordpools/wordpool_EN.txt	6	4	FACE	n/a	TANK	FACE	14	[0, 0, 0]	-999	PAL1	0	R1016M
2037.686	0.999	1018883	START	n/a	n/a	-999	-999	n/a	n/a	n/a	n/a	14	[-999, -999, -999]	-999	PAL1	0	R1016M
2038.685	0.017	1019382	MATH_START	n/a	n/a	-999	-999	n/a	n/a	n/a	n/a	14	[0, 0, 0]	-999	PAL1	0	R1016M
2038.702	15.036	1019391	PROB	15009	n/a	-999	-999	n/a	n/a	n/a	n/a	14	[5, 2, 7]	14	PAL1	0	R1016M
2053.738	15.509	1026908	PROB	15509	n/a	-999	-999	n/a	n/a	n/a	n/a	14	[5, 8, 3]	16	PAL1	0	R1016M
2069.247	0.011	1034662	STOP	n/a	n/a	-999	-999	n/a	n/a	n/a	n/a	14	[-999, -999, -999]	-999	PAL1	0	R1016M
2069.258	0.0	1034668	MATH_END	n/a	n/a	-999	-999	n/a	n/a	n/a	n/a	14	[0, 0, 0]	-999	PAL1	0	R1016M
2069.258	0.017	1034668	TEST_START	n/a	n/a	-999	-999	n/a	n/a	n/a	n/a	14	[0, 0, 0]	-999	PAL1	0	R1016M
2069.275	0.883	1034676	TEST_ORIENT	n/a	n/a	5	1	STRAW	n/a	ELF	STRAW	14	[0, 0, 0]	-999	PAL1	0	R1016M
2070.158	0.001	1035118	TEST_PROBE	n/a	wordpools/wordpool_EN.txt	5	1	STRAW	n/a	ELF	STRAW	14	[0, 0, 0]	-999	PAL1	0	R1016M
2070.159	1.146	1035118	REC_START	n/a	n/a	5	-999	n/a	n/a	n/a	n/a	14	[0, 0, 0]	-999	PAL1	0	R1016M
2071.305	3.864	1035691	REC_EVENT	1146	n/a	5	1	STRAW	<>	ELF	STRAW	14	[0, 0, 0]	-999	PAL1	0	R1016M
2075.169	0.023	1037623	REC_END	n/a	n/a	5	-999	n/a	n/a	n/a	n/a	14	[0, 0, 0]	-999	PAL1	0	R1016M
2075.192	0.884	1037635	TEST_ORIENT	n/a	n/a	2	2	SLUSH	BEE	NEST	SLUSH	14	[0, 0, 0]	-999	PAL1	0	R1016M
2076.076	0.001	1038077	TEST_PROBE	n/a	wordpools/wordpool_EN.txt	2	2	SLUSH	BEE	NEST	SLUSH	14	[0, 0, 0]	-999	PAL1	0	R1016M
2076.077	3.643	1038077	REC_START	n/a	n/a	2	-999	n/a	BEE	n/a	n/a	14	[0, 0, 0]	-999	PAL1	0	R1016M
2079.72	1.373	1039898	REC_EVENT	3643	n/a	2	2	SLUSH	BEE	NEST	SLUSH	14	[0, 0, 0]	-999	PAL1	0	R1016M
2081.093	0.017	1040585	REC_END	n/a	n/a	2	-999	n/a	n/a	n/a	n/a	14	[0, 0, 0]	-999	PAL1	0	R1016M
2081.11	0.967	1040593	TEST_ORIENT	n/a	n/a	1	3	BEAR	ROPE	BEAR	ROPE	14	[0, 0, 0]	-999	PAL1	0	R1016M
2082.077	0.001	1041077	TEST_PROBE	n/a	wordpools/wordpool_EN.txt	1	3	BEAR	ROPE	BEAR	ROPE	14	[0, 0, 0]	-999	PAL1	0	R1016M
2082.078	1.677	1041077	REC_START	n/a	n/a	1	-999	n/a	ROPE	n/a	n/a	14	[0, 0, 0]	-999	PAL1	0	R1016M
2083.755	3.333	1041916	REC_EVENT	1677	n/a	1	3	BEAR	ROPE	BEAR	ROPE	14	[0, 0, 0]	-999	PAL1	0	R1016M
2087.088	0.024	1043582	REC_END	n/a	n/a	1	-999	n/a	n/a	n/a	n/a	14	[0, 0, 0]	-999	PAL1	0	R1016M
2087.112	0.867	1043594	TEST_ORIENT	n/a	n/a	6	4	FACE	n/a	TANK	FACE	14	[0, 0, 0]	-999	PAL1	0	R1016M
2087.979	0.001	1044028	TEST_PROBE	n/a	wordpools/wordpool_EN.txt	6	4	FACE	n/a	TANK	FACE	14	[0, 0, 0]	-999	PAL1	0	R1016M
2087.98	1.07	1044028	REC_START	n/a	n/a	6	-999	n/a	n/a	n/a	n/a	14	[0, 0, 0]	-999	PAL1	0	R1016M
2089.05	3.93	1044563	REC_EVENT	1070	n/a	6	4	FACE	<>	TANK	FACE	14	[0, 0, 0]	-999	PAL1	0	R1016M
2092.98	0.016	1046528	REC_END	n/a	n/a	6	-999	n/a	n/a	n/a	n/a	14	[0, 0, 0]	-999	PAL1	0	R1016M
2092.996	0.968	1046536	TEST_ORIENT	n/a	n/a	3	5	MOTH	NET	NET	MOTH	14	[0, 0, 0]	-999	PAL1	0	R1016M
2093.964	0.001	1047020	TEST_PROBE	n/a	wordpools/wordpool_EN.txt	3	5	MOTH	NET	NET	MOTH	14	[0, 0, 0]	-999	PAL1	0	R1016M
2093.965	1.282	1047021	REC_START	n/a	n/a	3	-999	n/a	NET	n/a	n/a	14	[0, 0, 0]	-999	PAL1	0	R1016M
2095.247	3.734	1047661	REC_EVENT	1282	n/a	3	5	MOTH	NET	NET	MOTH	14	[0, 0, 0]	-999	PAL1	0	R1016M
2098.981	0.016	1049528	REC_END	n/a	n/a	3	-999	n/a	n/a	n/a	n/a	14	[0, 0, 0]	-999	PAL1	0	R1016M
2098.997	1.034	1049536	TEST_ORIENT	n/a	n/a	4	6	CALF	STEER	CALF	STREET	14	[0, 0, 0]	-999	PAL1	0	R1016M
2100.031	0.0	1050053	TEST_PROBE	n/a	wordpools/wordpool_EN.txt	4	6	CALF	STEER	CALF	STREET	14	[0, 0, 0]	-999	PAL1	0	R1016M
2100.031	1.861	1050053	REC_START	n/a	n/a	4	-999	n/a	STEER	n/a	n/a	14	[0, 0, 0]	-999	PAL1	0	R1016M
2101.892	3.156	1050984	REC_EVENT	1861	n/a	4	6	CALF	STEER	CALF	STREET	14	[0, 0, 0]	-999	PAL1	0	R1016M
2105.048	81.487	1052562	REC_END	n/a	n/a	4	-999	n/a	n/a	n/a	n/a	14	[0, 0, 0]	-999	PAL1	0	R1016M
2186.535	10.45	1093303	ENCODING_START	n/a	n/a	0	-999	n/a	n/a	n/a	n/a	15	[0, 0, 0]	-999	PAL1	0	R1016M
2196.985	0.798	1098528	STUDY_ORIENT	n/a	n/a	1	5	MAP	FOOT	FOOT	MAP	15	[0, 0, 0]	-999	PAL1	0	R1016M
2197.783	5.002	1098927	STUDY_PAIR	n/a	wordpools/wordpool_EN.txt	1	5	MAP	FOOT	FOOT	MAP	15	[0, 0, 0]	-999	PAL1	0	R1016M
2202.785	0.933	1101427	STUDY_ORIENT	n/a	n/a	2	6	STEM	n/a	STEM	SIGN	15	[0, 0, 0]	-999	PAL1	0	R1016M
2203.718	5.018	1101894	STUDY_PAIR	n/a	wordpools/wordpool_EN.txt	2	6	STEM	n/a	STEM	SIGN	15	[0, 0, 0]	-999	PAL1	0	R1016M
2208.736	0.767	1104403	STUDY_ORIENT	n/a	n/a	3	1	SPARK	EGG	EGG	SPARK	15	[0, 0, 0]	-999	PAL1	0	R1016M
2209.503	5.034	1104786	STUDY_PAIR	n/a	wordpools/wordpool_EN.txt	3	1	SPARK	EGG	EGG	SPARK	15	[0, 0, 0]	-999	PAL1	0	R1016M
2214.537	0.9	1107303	STUDY_ORIENT	n/a	n/a	4	2	FARM	SOAP	SOAP	FARM	15	[0, 0, 0]	-999	PAL1	0	R1016M
2215.437	5.018	1107753	STUDY_PAIR	n/a	wordpools/wordpool_EN.txt	4	2	FARM	SOAP	SOAP	FARM	15	[0, 0, 0]	-999	PAL1	0	R1016M
2220.455	1.017	1110262	STUDY_ORIENT	n/a	n/a	5	3	DUCK	BROOM	BROOM	DUCK	15	[0, 0, 0]	-999	PAL1	0	R1016M
2221.472	5.034	1110770	STUDY_PAIR	n/a	wordpools/wordpool_EN.txt	5	3	DUCK	BROOM	BROOM	DUCK	15	[0, 0, 0]	-999	PAL1	0	R1016M
2226.506	0.967	1113287	STUDY_ORIENT	n/a	n/a	6	4	DRUM	BEAN	BEAN	DRUM	15	[0, 0, 0]	-999	PAL1	0	R1016M
2227.473	4.018	1113771	STUDY_PAIR	n/a	wordpools/wordpool_EN.txt	6	4	DRUM	BEAN	BEAN	DRUM	15	[0, 0, 0]	-999	PAL1	0	R1016M
2231.491	0.999	1115780	START	n/a	n/a	-999	-999	n/a	n/a	n/a	n/a	15	[-999, -999, -999]	-999	PAL1	0	R1016M
2232.49	0.017	1116279	MATH_START	n/a	n/a	-999	-999	n/a	n/a	n/a	n/a	15	[0, 0, 0]	-999	PAL1	0	R1016M
2232.507	23.068	1116288	PROB	23068	n/a	-999	-999	n/a	n/a	n/a	n/a	15	[6, 5, 9]	20	PAL1	0	R1016M
2255.575	0.003	1127821	STOP	n/a	n/a	-999	-999	n/a	n/a	n/a	n/a	15	[-999, -999, -999]	-999	PAL1	0	R1016M
2255.578	0.0	1127823	MATH_END	n/a	n/a	-999	-999	n/a	n/a	n/a	n/a	15	[0, 0, 0]	-999	PAL1	0	R1016M
2255.578	0.017	1127823	TEST_START	n/a	n/a	-999	-999	n/a	n/a	n/a	n/a	15	[0, 0, 0]	-999	PAL1	0	R1016M
2255.595	0.8	1127831	TEST_ORIENT	n/a	n/a	3	1	SPARK	EGG	EGG	SPARK	15	[0, 0, 0]	-999	PAL1	0	R1016M
2256.395	0.001	1128231	TEST_PROBE	n/a	wordpools/wordpool_EN.txt	3	1	SPARK	EGG	EGG	SPARK	15	[0, 0, 0]	-999	PAL1	0	R1016M
2256.396	3.512	1128232	REC_START	n/a	n/a	3	-999	n/a	EGG	n/a	n/a	15	[0, 0, 0]	-999	PAL1	0	R1016M
2259.908	1.205	1129987	REC_EVENT	3512	n/a	3	1	SPARK	<>	EGG	SPARK	15	[0, 0, 0]	-999	PAL1	0	R1016M
2261.113	0.294	1130590	REC_EVENT	4717	n/a	3	1	SPARK	EGG	EGG	SPARK	15	[0, 0, 0]	-999	PAL1	0	R1016M
2261.407	0.023	1130737	REC_END	n/a	n/a	3	-999	n/a	n/a	n/a	n/a	15	[0, 0, 0]	-999	PAL1	0	R1016M
2261.43	1.033	1130748	TEST_ORIENT	n/a	n/a	4	2	FARM	SOAP	SOAP	FARM	15	[0, 0, 0]	-999	PAL1	0	R1016M
2262.463	0.001	1131265	TEST_PROBE	n/a	wordpools/wordpool_EN.txt	4	2	FARM	SOAP	SOAP	FARM	15	[0, 0, 0]	-999	PAL1	0	R1016M
2262.464	1.339	1131265	REC_START	n/a	n/a	4	-999	n/a	SOAP	n/a	n/a	15	[0, 0, 0]	-999	PAL1	0	R1016M
2263.803	3.661	1131935	REC_EVENT	1339	n/a	4	2	FARM	SOAP	SOAP	FARM	15	[0, 0, 0]	-999	PAL1	0	R1016M
2267.464	0.017	1133765	REC_END	n/a	n/a	4	-999	n/a	n/a	n/a	n/a	15	[0, 0, 0]	-999	PAL1	0	R1016M
2267.481	0.867	1133774	TEST_ORIENT	n/a	n/a	5	3	DUCK	BROOM	BROOM	DUCK	15	[0, 0, 0]	-999	PAL1	0	R1016M
2268.348	0.0	1134207	TEST_PROBE	n/a	wordpools/wordpool_EN.txt	5	3	DUCK	BROOM	BROOM	DUCK	15	[0, 0, 0]	-999	PAL1	0	R1016M
2268.348	5.015	1134207	REC_START	n/a	n/a	5	-999	n/a	BROOM	n/a	n/a	15	[0, 0, 0]	-999	PAL1	0	R1016M
2273.363	0.002	1136715	REC_EVENT	5015	n/a	5	3	DUCK	BROOM	BROOM	DUCK	15	[0, 0, 0]	-999	PAL1	0	R1016M
2273.365	0.017	1136716	REC_END	n/a	n/a	5	-999	n/a	n/a	n/a	n/a	15	[0, 0, 0]	-999	PAL1	0	R1016M
2273.382	1.017	1136724	TEST_ORIENT	n/a	n/a	6	4	DRUM	BEAN	BEAN	DRUM	15	[0, 0, 0]	-999	PAL1	0	R1016M
2274.399	0.0	1137233	TEST_PROBE	n/a	wordpools/wordpool_EN.txt	6	4	DRUM	BEAN	BEAN	DRUM	15	[0, 0, 0]	-999	PAL1	0	R1016M
2274.399	1.464	1137233	REC_START	n/a	n/a	6	-999	n/a	BEAN	n/a	n/a	15	[0, 0, 0]	-999	PAL1	0	R1016M
2275.863	0.645	1137964	REC_EVENT	1464	n/a	6	4	DRUM	DRUM	BEAN	DRUM	15	[0, 0, 0]	-999	PAL1	0	R1016M
2276.508	2.908	1138287	REC_EVENT	2109	n/a	6	4	DRUM	BEAN	BEAN	DRUM	15	[0, 0, 0]	-999	PAL1	0	R1016M
2279.416	0.017	1139741	REC_END	n/a	n/a	6	-999	n/a	n/a	n/a	n/a	15	[0, 0, 0]	-999	PAL1	0	R1016M
2279.433	0.934	1139749	TEST_ORIENT	n/a	n/a	1	5	MAP	FOOT	FOOT	MAP	15	[0, 0, 0]	-999	PAL1	0	R1016M
2280.367	0.001	1140216	TEST_PROBE	n/a	wordpools/wordpool_EN.txt	1	5	MAP	FOOT	FOOT	MAP	15	[0, 0, 0]	-999	PAL1	0	R1016M
2280.368	1.496	1140217	REC_START	n/a	n/a	1	-999	n/a	FOOT	n/a	n/a	15	[0, 0, 0]	-999	PAL1	0	R1016M
2281.864	3.52	1140965	REC_EVENT	1496	n/a	1	5	MAP	FOOT	FOOT	MAP	15	[0, 0, 0]	-999	PAL1	0	R1016M
2285.384	0.017	1142725	REC_END	n/a	n/a	1	-999	n/a	n/a	n/a	n/a	15	[0, 0, 0]	-999	PAL1	0	R1016M
2285.401	1.017	1142733	TEST_ORIENT	n/a	n/a	2	6	STEM	n/a	STEM	SIGN	15	[0, 0, 0]	-999	PAL1	0	R1016M
2286.418	0.001	1143242	TEST_PROBE	n/a	wordpools/wordpool_EN.txt	2	6	STEM	n/a	STEM	SIGN	15	[0, 0, 0]	-999	PAL1	0	R1016M
2286.419	1.664	1143242	REC_START	n/a	n/a	2	-999	n/a	n/a	n/a	n/a	15	[0, 0, 0]	-999	PAL1	0	R1016M
2288.083	3.347	1144074	REC_EVENT	1664	n/a	2	6	STEM	<>	STEM	SIGN	15	[0, 0, 0]	-999	PAL1	0	R1016M
2291.43	10.721	1145748	REC_END	n/a	n/a	2	-999	n/a	n/a	n/a	n/a	15	[0, 0, 0]	-999	PAL1	0	R1016M
2302.151	10.439	1151108	ENCODING_START	n/a	n/a	0	-999	n/a	n/a	n/a	n/a	16	[0, 0, 0]	-999	PAL1	0	R1016M
2312.59	0.783	1156327	STUDY_ORIENT	n/a	n/a	1	3	SAIL	n/a	SAIL	TOOL	16	[0, 0, 0]	-999	PAL1	0	R1016M
2313.373	5.018	1156718	STUDY_PAIR	n/a	wordpools/wordpool_EN.txt	1	3	SAIL	n/a	SAIL	TOOL	16	[0, 0, 0]	-999	PAL1	0	R1016M
2318.391	0.9	1159227	STUDY_ORIENT	n/a	n/a	2	6	STRING	n/a	STRING	SUN	16	[0, 0, 0]	-999	PAL1	0	R1016M
2319.291	5.018	1159677	STUDY_PAIR	n/a	wordpools/wordpool_EN.txt	2	6	STRING	n/a	STRING	SUN	16	[0, 0, 0]	-999	PAL1	0	R1016M
2324.309	0.984	1162186	STUDY_ORIENT	n/a	n/a	3	5	LIP	n/a	LIP	POND	16	[0, 0, 0]	-999	PAL1	0	R1016M
2325.293	5.034	1162678	STUDY_PAIR	n/a	wordpools/wordpool_EN.txt	3	5	LIP	n/a	LIP	POND	16	[0, 0, 0]	-999	PAL1	0	R1016M
2330.327	0.933	1165195	STUDY_ORIENT	n/a	n/a	4	2	SEAL	n/a	BAND	SEAL	16	[0, 0, 0]	-999	PAL1	0	R1016M
2331.26	5.018	1165661	STUDY_PAIR	n/a	wordpools/wordpool_EN.txt	4	2	SEAL	n/a	BAND	SEAL	16	[0, 0, 0]	-999	PAL1	0	R1016M
2336.278	0.8	1168170	STUDY_ORIENT	n/a	n/a	5	1	JET	LAND	LAND	JET	16	[0, 0, 0]	-999	PAL1	0	R1016M
2337.078	5.018	1168570	STUDY_PAIR	n/a	wordpools/wordpool_EN.txt	5	1	JET	LAND	LAND	JET	16	[0, 0, 0]	-999	PAL1	0	R1016M
2342.096	0.868	1171079	STUDY_ORIENT	n/a	n/a	6	4	SHELL	ZOO	ZOO	SHELL	16	[0, 0, 0]	-999	PAL1	0	R1016M
2342.964	4.018	1171513	STUDY_PAIR	n/a	wordpools/wordpool_EN.txt	6	4	SHELL	ZOO	ZOO	SHELL	16	[0, 0, 0]	-999	PAL1	0	R1016M
2346.982	0.999	1173522	START	n/a	n/a	-999	-999	n/a	n/a	n/a	n/a	16	[-999, -999, -999]	-999	PAL1	0	R1016M
2347.981	0.016	1174021	MATH_START	n/a	n/a	-999	-999	n/a	n/a	n/a	n/a	16	[0, 0, 0]	-999	PAL1	0	R1016M
2347.997	8.836	1174029	PROB	8811	n/a	-999	-999	n/a	n/a	n/a	n/a	16	[3, 9, 4]	15	PAL1	0	R1016M
2356.833	5.85	1178447	PROB	5822	n/a	-999	-999	n/a	n/a	n/a	n/a	16	[8, 1, 3]	12	PAL1	0	R1016M
2362.683	14.66	1181372	PROB	14660	n/a	-999	-999	n/a	n/a	n/a	n/a	16	[5, 4, 6]	15	PAL1	0	R1016M
2377.343	0.01	1188702	STOP	n/a	n/a	-999	-999	n/a	n/a	n/a	n/a	16	[-999, -999, -999]	-999	PAL1	0	R1016M
2377.353	0.0	1188707	TEST_START	n/a	n/a	-999	-999	n/a	n/a	n/a	n/a	16	[0, 0, 0]	-999	PAL1	0	R1016M
2377.353	0.017	1188707	MATH_END	n/a	n/a	-999	-999	n/a	n/a	n/a	n/a	16	[0, 0, 0]	-999	PAL1	0	R1016M
2377.37	0.95	1188715	TEST_ORIENT	n/a	n/a	5	1	JET	LAND	LAND	JET	16	[0, 0, 0]	-999	PAL1	0	R1016M
2378.32	0.0	1189190	TEST_PROBE	n/a	wordpools/wordpool_EN.txt	5	1	JET	LAND	LAND	JET	16	[0, 0, 0]	-999	PAL1	0	R1016M
2378.32	1.586	1189190	REC_START	n/a	n/a	5	-999	n/a	LAND	n/a	n/a	16	[0, 0, 0]	-999	PAL1	0	R1016M
2379.906	3.431	1189983	REC_EVENT	1586	n/a	5	1	JET	LAND	LAND	JET	16	[0, 0, 0]	-999	PAL1	0	R1016M
2383.337	0.017	1191698	REC_END	n/a	n/a	5	-999	n/a	n/a	n/a	n/a	16	[0, 0, 0]	-999	PAL1	0	R1016M
2383.354	1.034	1191707	TEST_ORIENT	n/a	n/a	4	2	SEAL	n/a	BAND	SEAL	16	[0, 0, 0]	-999	PAL1	0	R1016M
2384.388	0.0	1192224	REC_START	n/a	n/a	4	-999	n/a	n/a	n/a	n/a	16	[0, 0, 0]	-999	PAL1	0	R1016M
2384.388	2.286	1192224	TEST_PROBE	n/a	wordpools/wordpool_EN.txt	4	2	SEAL	n/a	BAND	SEAL	16	[0, 0, 0]	-999	PAL1	0	R1016M
2386.674	2.731	1193367	REC_EVENT	2286	n/a	4	2	SEAL	<>	BAND	SEAL	16	[0, 0, 0]	-999	PAL1	0	R1016M
2389.405	0.017	1194732	REC_END	n/a	n/a	4	-999	n/a	n/a	n/a	n/a	16	[0, 0, 0]	-999	PAL1	0	R1016M
2389.422	0.817	1194741	TEST_ORIENT	n/a	n/a	1	3	SAIL	n/a	SAIL	TOOL	16	[0, 0, 0]	-999	PAL1	0	R1016M
2390.239	0.0	1195149	TEST_PROBE	n/a	wordpools/wordpool_EN.txt	1	3	SAIL	n/a	SAIL	TOOL	16	[0, 0, 0]	-999	PAL1	0	R1016M
2390.239	1.419	1195149	REC_START	n/a	n/a	1	-999	n/a	n/a	n/a	n/a	16	[0, 0, 0]	-999	PAL1	0	R1016M
2391.658	3.598	1195859	REC_EVENT	1419	n/a	1	3	SAIL	<>	SAIL	TOOL	16	[0, 0, 0]	-999	PAL1	0	R1016M
2395.256	0.017	1197658	REC_END	n/a	n/a	1	-999	n/a	n/a	n/a	n/a	16	[0, 0, 0]	-999	PAL1	0	R1016M
2395.273	0.867	1197666	TEST_ORIENT	n/a	n/a	6	4	SHELL	ZOO	ZOO	SHELL	16	[0, 0, 0]	-999	PAL1	0	R1016M
2396.14	0.001	1198100	TEST_PROBE	n/a	wordpools/wordpool_EN.txt	6	4	SHELL	ZOO	ZOO	SHELL	16	[0, 0, 0]	-999	PAL1	0	R1016M
2396.141	3.049	1198100	REC_START	n/a	n/a	6	-999	n/a	ZOO	n/a	n/a	16	[0, 0, 0]	-999	PAL1	0	R1016M
2399.19	1.962	1199625	REC_EVENT	3049	n/a	6	4	SHELL	ZOO	ZOO	SHELL	16	[0, 0, 0]	-999	PAL1	0	R1016M
2401.152	0.022	1200605	REC_END	n/a	n/a	6	-999	n/a	n/a	n/a	n/a	16	[0, 0, 0]	-999	PAL1	0	R1016M
2401.174	0.867	1200616	TEST_ORIENT	n/a	n/a	3	5	LIP	n/a	LIP	POND	16	[0, 0, 0]	-999	PAL1	0	R1016M
2402.041	0.001	1201050	TEST_PROBE	n/a	wordpools/wordpool_EN.txt	3	5	LIP	n/a	LIP	POND	16	[0, 0, 0]	-999	PAL1	0	R1016M
2402.042	0.145	1201050	REC_START	n/a	n/a	3	-999	n/a	n/a	n/a	n/a	16	[0, 0, 0]	-999	PAL1	0	R1016M
2402.187	4.866	1201123	REC_EVENT	145	n/a	3	5	LIP	<>	LIP	POND	16	[0, 0, 0]	-999	PAL1	0	R1016M
2407.053	0.023	1203556	REC_END	n/a	n/a	3	-999	n/a	n/a	n/a	n/a	16	[0, 0, 0]	-999	PAL1	0	R1016M
2407.076	0.801	1203567	TEST_ORIENT	n/a	n/a	2	6	STRING	n/a	STRING	SUN	16	[0, 0, 0]	-999	PAL1	0	R1016M
2407.877	0.001	1203968	TEST_PROBE	n/a	wordpools/wordpool_EN.txt	2	6	STRING	n/a	STRING	SUN	16	[0, 0, 0]	-999	PAL1	0	R1016M
2407.878	1.768	1203968	REC_START	n/a	n/a	2	-999	n/a	n/a	n/a	n/a	16	[0, 0, 0]	-999	PAL1	0	R1016M
2409.646	3.248	1204852	REC_EVENT	1768	n/a	2	6	STRING	<>	STRING	SUN	16	[0, 0, 0]	-999	PAL1	0	R1016M
2412.894	35.889	1206476	REC_END	n/a	n/a	2	-999	n/a	n/a	n/a	n/a	16	[0, 0, 0]	-999	PAL1	0	R1016M
2448.783	10.453	1224420	ENCODING_START	n/a	n/a	0	-999	n/a	n/a	n/a	n/a	17	[0, 0, 0]	-999	PAL1	0	R1016M
2459.236	0.784	1229646	STUDY_ORIENT	n/a	n/a	1	5	RICE	EAR	EAR	RICE	17	[0, 0, 0]	-999	PAL1	0	R1016M
2460.02	5.034	1230038	STUDY_PAIR	n/a	wordpools/wordpool_EN.txt	1	5	RICE	EAR	EAR	RICE	17	[0, 0, 0]	-999	PAL1	0	R1016M
2465.054	0.784	1232555	STUDY_ORIENT	n/a	n/a	2	4	JAIL	n/a	ICE	JAIL	17	[0, 0, 0]	-999	PAL1	0	R1016M
2465.838	5.018	1232947	STUDY_PAIR	n/a	wordpools/wordpool_EN.txt	2	4	JAIL	n/a	ICE	JAIL	17	[0, 0, 0]	-999	PAL1	0	R1016M
2470.856	0.799	1235456	STUDY_ORIENT	n/a	n/a	3	3	FAN	n/a	FAN	MILK	17	[0, 0, 0]	-999	PAL1	0	R1016M
2471.655	5.018	1235855	STUDY_PAIR	n/a	wordpools/wordpool_EN.txt	3	3	FAN	n/a	FAN	MILK	17	[0, 0, 0]	-999	PAL1	0	R1016M
2476.673	0.916	1238364	STUDY_ORIENT	n/a	n/a	4	6	ARM	CAKE	ARM	CAKE	17	[0, 0, 0]	-999	PAL1	0	R1016M
2477.589	5.002	1238822	STUDY_PAIR	n/a	wordpools/wordpool_EN.txt	4	6	ARM	CAKE	ARM	CAKE	17	[0, 0, 0]	-999	PAL1	0	R1016M
2482.591	0.867	1241323	STUDY_ORIENT	n/a	n/a	5	1	HOSE	THREAD	THREAD	HOSE	17	[0, 0, 0]	-999	PAL1	0	R1016M
2483.458	5.034	1241756	STUDY_PAIR	n/a	wordpools/wordpool_EN.txt	5	1	HOSE	THREAD	THREAD	HOSE	17	[0, 0, 0]	-999	PAL1	0	R1016M
2488.492	0.834	1244273	STUDY_ORIENT	n/a	n/a	6	2	AXE	HAWK	HAWK	AXE	17	[0, 0, 0]	-999	PAL1	0	R1016M
2489.326	4.018	1244690	STUDY_PAIR	n/a	wordpools/wordpool_EN.txt	6	2	AXE	HAWK	HAWK	AXE	17	[0, 0, 0]	-999	PAL1	0	R1016M
2493.344	0.999	1246699	START	n/a	n/a	-999	-999	n/a	n/a	n/a	n/a	17	[-999, -999, -999]	-999	PAL1	0	R1016M
2494.343	0.017	1247198	MATH_START	n/a	n/a	-999	-999	n/a	n/a	n/a	n/a	17	[0, 0, 0]	-999	PAL1	0	R1016M
2494.36	7.951	1247207	PROB	7919	n/a	-999	-999	n/a	n/a	n/a	n/a	17	[4, 8, 4]	16	PAL1	0	R1016M
2502.311	9.587	1251182	PROB	9553	n/a	-999	-999	n/a	n/a	n/a	n/a	17	[5, 3, 2]	10	PAL1	0	R1016M
2511.898	6.661	1255975	PROB	6661	n/a	-999	-999	n/a	n/a	n/a	n/a	17	[9, 9, 2]	20	PAL1	0	R1016M
2518.559	0.006	1259306	STOP	n/a	n/a	-999	-999	n/a	n/a	n/a	n/a	17	[-999, -999, -999]	-999	PAL1	0	R1016M
2518.565	0.0	1259309	TEST_START	n/a	n/a	-999	-999	n/a	n/a	n/a	n/a	17	[0, 0, 0]	-999	PAL1	0	R1016M
2518.565	0.016	1259309	MATH_END	n/a	n/a	-999	-999	n/a	n/a	n/a	n/a	17	[0, 0, 0]	-999	PAL1	0	R1016M
2518.581	0.867	1259317	TEST_ORIENT	n/a	n/a	5	1	HOSE	THREAD	THREAD	HOSE	17	[0, 0, 0]	-999	PAL1	0	R1016M
2519.448	0.001	1259750	TEST_PROBE	n/a	wordpools/wordpool_EN.txt	5	1	HOSE	THREAD	THREAD	HOSE	17	[0, 0, 0]	-999	PAL1	0	R1016M
2519.449	4.024	1259751	REC_START	n/a	n/a	5	-999	n/a	THREAD	n/a	n/a	17	[0, 0, 0]	-999	PAL1	0	R1016M
2523.473	0.987	1261763	REC_EVENT	4024	n/a	5	1	HOSE	THREAD	THREAD	HOSE	17	[0, 0, 0]	-999	PAL1	0	R1016M
2524.46	0.022	1262256	REC_END	n/a	n/a	5	-999	n/a	n/a	n/a	n/a	17	[0, 0, 0]	-999	PAL1	0	R1016M
2524.482	0.834	1262267	TEST_ORIENT	n/a	n/a	6	2	AXE	HAWK	HAWK	AXE	17	[0, 0, 0]	-999	PAL1	0	R1016M
2525.316	0.0	1262684	REC_START	n/a	n/a	6	-999	n/a	HAWK	n/a	n/a	17	[0, 0, 0]	-999	PAL1	0	R1016M
2525.316	1.333	1262684	TEST_PROBE	n/a	wordpools/wordpool_EN.txt	6	2	AXE	HAWK	HAWK	AXE	17	[0, 0, 0]	-999	PAL1	0	R1016M
2526.649	3.684	1263351	REC_EVENT	1333	n/a	6	2	AXE	HAWK	HAWK	AXE	17	[0, 0, 0]	-999	PAL1	0	R1016M
2530.333	0.017	1265192	REC_END	n/a	n/a	6	-999	n/a	n/a	n/a	n/a	17	[0, 0, 0]	-999	PAL1	0	R1016M
2530.35	0.851	1265201	TEST_ORIENT	n/a	n/a	3	3	FAN	n/a	FAN	MILK	17	[0, 0, 0]	-999	PAL1	0	R1016M
2531.201	0.0	1265626	TEST_PROBE	n/a	wordpools/wordpool_EN.txt	3	3	FAN	n/a	FAN	MILK	17	[0, 0, 0]	-999	PAL1	0	R1016M
2531.201	0.015	1265626	REC_START	n/a	n/a	3	-999	n/a	n/a	n/a	n/a	17	[0, 0, 0]	-999	PAL1	0	R1016M
2531.216	5.002	1265634	REC_EVENT	15	n/a	3	3	FAN	<>	FAN	MILK	17	[0, 0, 0]	-999	PAL1	0	R1016M
2536.218	0.017	1268135	REC_END	n/a	n/a	3	-999	n/a	n/a	n/a	n/a	17	[0, 0, 0]	-999	PAL1	0	R1016M
2536.235	0.934	1268143	TEST_ORIENT	n/a	n/a	2	4	JAIL	n/a	ICE	JAIL	17	[0, 0, 0]	-999	PAL1	0	R1016M
2537.169	0.0	1268610	REC_START	n/a	n/a	2	-999	n/a	n/a	n/a	n/a	17	[0, 0, 0]	-999	PAL1	0	R1016M
2537.169	3.886	1268610	TEST_PROBE	n/a	wordpools/wordpool_EN.txt	2	4	JAIL	n/a	ICE	JAIL	17	[0, 0, 0]	-999	PAL1	0	R1016M
2541.055	1.131	1270553	REC_EVENT	3886	n/a	2	4	JAIL	<>	ICE	JAIL	17	[0, 0, 0]	-999	PAL1	0	R1016M
2542.186	0.017	1271119	REC_END	n/a	n/a	2	-999	n/a	n/a	n/a	n/a	17	[0, 0, 0]	-999	PAL1	0	R1016M
2542.203	0.95	1271127	TEST_ORIENT	n/a	n/a	1	5	RICE	EAR	EAR	RICE	17	[0, 0, 0]	-999	PAL1	0	R1016M
2543.153	0.0	1271602	TEST_PROBE	n/a	wordpools/wordpool_EN.txt	1	5	RICE	EAR	EAR	RICE	17	[0, 0, 0]	-999	PAL1	0	R1016M
2543.153	1.664	1271602	REC_START	n/a	n/a	1	-999	n/a	EAR	n/a	n/a	17	[0, 0, 0]	-999	PAL1	0	R1016M
2544.817	3.353	1272434	REC_EVENT	1664	n/a	1	5	RICE	EAR	EAR	RICE	17	[0, 0, 0]	-999	PAL1	0	R1016M
2548.17	0.017	1274110	REC_END	n/a	n/a	1	-999	n/a	n/a	n/a	n/a	17	[0, 0, 0]	-999	PAL1	0	R1016M
2548.187	1.017	1274119	TEST_ORIENT	n/a	n/a	4	6	ARM	CAKE	ARM	CAKE	17	[0, 0, 0]	-999	PAL1	0	R1016M
2549.204	0.001	1274627	TEST_PROBE	n/a	wordpools/wordpool_EN.txt	4	6	ARM	CAKE	ARM	CAKE	17	[0, 0, 0]	-999	PAL1	0	R1016M
2549.205	1.44	1274628	REC_START	n/a	n/a	4	-999	n/a	CAKE	n/a	n/a	17	[0, 0, 0]	-999	PAL1	0	R1016M
2550.645	3.571	1275348	REC_EVENT	1440	n/a	4	6	ARM	CAKE	ARM	CAKE	17	[0, 0, 0]	-999	PAL1	0	R1016M
2554.216	10.431	1277133	REC_END	n/a	n/a	4	-999	n/a	n/a	n/a	n/a	17	[0, 0, 0]	-999	PAL1	0	R1016M
2564.647	10.446	1282348	ENCODING_START	n/a	n/a	0	-999	n/a	n/a	n/a	n/a	18	[0, 0, 0]	-999	PAL1	0	R1016M
2575.093	0.867	1287571	STUDY_ORIENT	n/a	n/a	1	1	RAKE	n/a	RAKE	SLEEVE	18	[0, 0, 0]	-999	PAL1	0	R1016M
2575.96	5.018	1288005	STUDY_PAIR	n/a	wordpools/wordpool_EN.txt	1	1	RAKE	n/a	RAKE	SLEEVE	18	[0, 0, 0]	-999	PAL1	0	R1016M
2580.978	0.934	1290513	STUDY_ORIENT	n/a	n/a	2	4	ARK	SHIRT	SHIRT	ARK	18	[0, 0, 0]	-999	PAL1	0	R1016M
2581.912	5.034	1290980	STUDY_PAIR	n/a	wordpools/wordpool_EN.txt	2	4	ARK	SHIRT	SHIRT	ARK	18	[0, 0, 0]	-999	PAL1	0	R1016M
2586.946	0.9	1293497	STUDY_ORIENT	n/a	n/a	3	5	STOVE	RAIN	RAIN	STOVE	18	[0, 0, 0]	-999	PAL1	0	R1016M
2587.846	5.018	1293947	STUDY_PAIR	n/a	wordpools/wordpool_EN.txt	3	5	STOVE	RAIN	RAIN	STOVE	18	[0, 0, 0]	-999	PAL1	0	R1016M
2592.864	0.782	1296456	STUDY_ORIENT	n/a	n/a	4	2	SKI	TAIL	SKI	TAIL	18	[0, 0, 0]	-999	PAL1	0	R1016M
2593.646	5.018	1296847	STUDY_PAIR	n/a	wordpools/wordpool_EN.txt	4	2	SKI	TAIL	SKI	TAIL	18	[0, 0, 0]	-999	PAL1	0	R1016M
2598.664	0.85	1299356	STUDY_ORIENT	n/a	n/a	5	3	CONE	n/a	MUG	CONE	18	[0, 0, 0]	-999	PAL1	0	R1016M
2599.514	5.018	1299781	STUDY_PAIR	n/a	wordpools/wordpool_EN.txt	5	3	CONE	n/a	MUG	CONE	18	[0, 0, 0]	-999	PAL1	0	R1016M
2604.532	0.817	1302290	STUDY_ORIENT	n/a	n/a	6	6	PIE	n/a	PIE	VINE	18	[0, 0, 0]	-999	PAL1	0	R1016M
2605.349	4.018	1302698	STUDY_PAIR	n/a	wordpools/wordpool_EN.txt	6	6	PIE	n/a	PIE	VINE	18	[0, 0, 0]	-999	PAL1	0	R1016M
2609.367	0.999	1304707	START	n/a	n/a	-999	-999	n/a	n/a	n/a	n/a	18	[-999, -999, -999]	-999	PAL1	0	R1016M
2610.366	0.017	1305207	MATH_START	n/a	n/a	-999	-999	n/a	n/a	n/a	n/a	18	[0, 0, 0]	-999	PAL1	0	R1016M
2610.383	12.903	1305215	PROB	12880	n/a	-999	-999	n/a	n/a	n/a	n/a	18	[7, 2, 2]	11	PAL1	0	R1016M
2623.286	9.193	1311666	PROB	9193	n/a	-999	-999	n/a	n/a	n/a	n/a	18	[7, 7, 8]	22	PAL1	0	R1016M
2632.479	0.008	1316263	STOP	n/a	n/a	-999	-999	n/a	n/a	n/a	n/a	18	[-999, -999, -999]	-999	PAL1	0	R1016M
2632.487	0.0	1316267	MATH_END	n/a	n/a	-999	-999	n/a	n/a	n/a	n/a	18	[0, 0, 0]	-999	PAL1	0	R1016M
2632.487	0.017	1316267	TEST_START	n/a	n/a	-999	-999	n/a	n/a	n/a	n/a	18	[0, 0, 0]	-999	PAL1	0	R1016M
2632.504	0.834	1316275	TEST_ORIENT	n/a	n/a	1	1	RAKE	n/a	RAKE	SLEEVE	18	[0, 0, 0]	-999	PAL1	0	R1016M
2633.338	0.0	1316692	TEST_PROBE	n/a	wordpools/wordpool_EN.txt	1	1	RAKE	n/a	RAKE	SLEEVE	18	[0, 0, 0]	-999	PAL1	0	R1016M
2633.338	4.569	1316692	REC_START	n/a	n/a	1	-999	n/a	n/a	n/a	n/a	18	[0, 0, 0]	-999	PAL1	0	R1016M
2637.907	0.448	1318976	REC_EVENT	4569	n/a	1	1	RAKE	<>	RAKE	SLEEVE	18	[0, 0, 0]	-999	PAL1	0	R1016M
2638.355	0.017	1319200	REC_END	n/a	n/a	1	-999	n/a	n/a	n/a	n/a	18	[0, 0, 0]	-999	PAL1	0	R1016M
2638.372	1.034	1319209	TEST_ORIENT	n/a	n/a	4	2	SKI	TAIL	SKI	TAIL	18	[0, 0, 0]	-999	PAL1	0	R1016M
2639.406	0.0	1319726	REC_START	n/a	n/a	4	-999	n/a	TAIL	n/a	n/a	18	[0, 0, 0]	-999	PAL1	0	R1016M
2639.406	3.089	1319726	TEST_PROBE	n/a	wordpools/wordpool_EN.txt	4	2	SKI	TAIL	SKI	TAIL	18	[0, 0, 0]	-999	PAL1	0	R1016M
2642.495	1.928	1321270	REC_EVENT	3089	n/a	4	2	SKI	TAIL	SKI	TAIL	18	[0, 0, 0]	-999	PAL1	0	R1016M
2644.423	0.017	1322234	REC_END	n/a	n/a	4	-999	n/a	n/a	n/a	n/a	18	[0, 0, 0]	-999	PAL1	0	R1016M
2644.44	0.95	1322243	TEST_ORIENT	n/a	n/a	5	3	CONE	n/a	MUG	CONE	18	[0, 0, 0]	-999	PAL1	0	R1016M
2645.39	0.001	1322718	TEST_PROBE	n/a	wordpools/wordpool_EN.txt	5	3	CONE	n/a	MUG	CONE	18	[0, 0, 0]	-999	PAL1	0	R1016M
2645.391	0.454	1322718	REC_START	n/a	n/a	5	-999	n/a	n/a	n/a	n/a	18	[0, 0, 0]	-999	PAL1	0	R1016M
2645.845	4.556	1322945	REC_EVENT	454	n/a	5	3	CONE	<>	MUG	CONE	18	[0, 0, 0]	-999	PAL1	0	R1016M
2650.401	0.023	1325223	REC_END	n/a	n/a	5	-999	n/a	n/a	n/a	n/a	18	[0, 0, 0]	-999	PAL1	0	R1016M
2650.424	0.917	1325235	TEST_ORIENT	n/a	n/a	2	4	ARK	SHIRT	SHIRT	ARK	18	[0, 0, 0]	-999	PAL1	0	R1016M
2651.341	0.001	1325693	TEST_PROBE	n/a	wordpools/wordpool_EN.txt	2	4	ARK	SHIRT	SHIRT	ARK	18	[0, 0, 0]	-999	PAL1	0	R1016M
2651.342	1.966	1325694	REC_START	n/a	n/a	2	-999	n/a	SHIRT	n/a	n/a	18	[0, 0, 0]	-999	PAL1	0	R1016M
2653.308	3.044	1326676	REC_EVENT	1966	n/a	2	4	ARK	SHIRT	SHIRT	ARK	18	[0, 0, 0]	-999	PAL1	0	R1016M
2656.352	0.024	1328198	REC_END	n/a	n/a	2	-999	n/a	n/a	n/a	n/a	18	[0, 0, 0]	-999	PAL1	0	R1016M
2656.376	0.867	1328210	TEST_ORIENT	n/a	n/a	3	5	STOVE	RAIN	RAIN	STOVE	18	[0, 0, 0]	-999	PAL1	0	R1016M
2657.243	0.0	1328644	TEST_PROBE	n/a	wordpools/wordpool_EN.txt	3	5	STOVE	RAIN	RAIN	STOVE	18	[0, 0, 0]	-999	PAL1	0	R1016M
2657.243	3.371	1328644	REC_START	n/a	n/a	3	-999	n/a	RAIN	n/a	n/a	18	[0, 0, 0]	-999	PAL1	0	R1016M
2660.614	1.646	1330329	REC_EVENT	3371	n/a	3	5	STOVE	RAIN	RAIN	STOVE	18	[0, 0, 0]	-999	PAL1	0	R1016M
2662.26	0.017	1331152	REC_END	n/a	n/a	3	-999	n/a	n/a	n/a	n/a	18	[0, 0, 0]	-999	PAL1	0	R1016M
2662.277	0.933	1331161	TEST_ORIENT	n/a	n/a	6	6	PIE	n/a	PIE	VINE	18	[0, 0, 0]	-999	PAL1	0	R1016M
2663.21	0.001	1331627	TEST_PROBE	n/a	wordpools/wordpool_EN.txt	6	6	PIE	n/a	PIE	VINE	18	[0, 0, 0]	-999	PAL1	0	R1016M
2663.211	0.0	1331628	REC_START	n/a	n/a	6	-999	n/a	n/a	n/a	n/a	18	[0, 0, 0]	-999	PAL1	0	R1016M
2663.211	5.01	1331628	REC_EVENT	0	n/a	6	6	PIE	<>	PIE	VINE	18	[0, 0, 0]	-999	PAL1	0	R1016M
2668.221	13.474	1334133	REC_END	n/a	n/a	6	-999	n/a	n/a	n/a	n/a	18	[0, 0, 0]	-999	PAL1	0	R1016M
2681.695	10.454	1340869	ENCODING_START	n/a	n/a	0	-999	n/a	n/a	n/a	n/a	19	[0, 0, 0]	-999	PAL1	0	R1016M
2692.149	0.785	1346096	STUDY_ORIENT	n/a	n/a	1	3	PEARL	BEAR	APE	PEARL	19	[0, 0, 0]	-999	PAL1	0	R1016M
2692.934	5.034	1346488	STUDY_PAIR	n/a	wordpools/wordpool_EN.txt	1	3	PEARL	BEAR	APE	PEARL	19	[0, 0, 0]	-999	PAL1	0	R1016M
2697.968	0.867	1349005	STUDY_ORIENT	n/a	n/a	2	4	TRUCK	n/a	WEB	TRUCK	19	[0, 0, 0]	-999	PAL1	0	R1016M
2698.835	5.018	1349439	STUDY_PAIR	n/a	wordpools/wordpool_EN.txt	2	4	TRUCK	n/a	WEB	TRUCK	19	[0, 0, 0]	-999	PAL1	0	R1016M
2703.853	0.799	1351948	STUDY_ORIENT	n/a	n/a	3	1	OAR	PLANE	OAR	PLANE	19	[0, 0, 0]	-999	PAL1	0	R1016M
2704.652	5.034	1352347	STUDY_PAIR	n/a	wordpools/wordpool_EN.txt	3	1	OAR	PLANE	OAR	PLANE	19	[0, 0, 0]	-999	PAL1	0	R1016M
2709.686	0.934	1354864	STUDY_ORIENT	n/a	n/a	4	2	MOOSE	n/a	MOOSE	FLUTE	19	[0, 0, 0]	-999	PAL1	0	R1016M
2710.62	5.034	1355331	STUDY_PAIR	n/a	wordpools/wordpool_EN.txt	4	2	MOOSE	n/a	MOOSE	FLUTE	19	[0, 0, 0]	-999	PAL1	0	R1016M
2715.654	0.767	1357848	STUDY_ORIENT	n/a	n/a	5	5	SWAMP	LEAVES	SWAMP	LEAF	19	[0, 0, 0]	-999	PAL1	0	R1016M
2716.421	5.034	1358231	STUDY_PAIR	n/a	wordpools/wordpool_EN.txt	5	5	SWAMP	LEAVES	SWAMP	LEAF	19	[0, 0, 0]	-999	PAL1	0	R1016M
2721.455	0.917	1360748	STUDY_ORIENT	n/a	n/a	6	6	VAN	n/a	GOAT	VAN	19	[0, 0, 0]	-999	PAL1	0	R1016M
2722.372	4.001	1361207	STUDY_PAIR	n/a	wordpools/wordpool_EN.txt	6	6	VAN	n/a	GOAT	VAN	19	[0, 0, 0]	-999	PAL1	0	R1016M
2726.373	1.0	1363207	START	n/a	n/a	-999	-999	n/a	n/a	n/a	n/a	19	[-999, -999, -999]	-999	PAL1	0	R1016M
2727.373	0.017	1363707	MATH_START	n/a	n/a	-999	-999	n/a	n/a	n/a	n/a	19	[0, 0, 0]	-999	PAL1	0	R1016M
2727.39	8.035	1363715	PROB	8001	n/a	-999	-999	n/a	n/a	n/a	n/a	19	[3, 1, 7]	11	PAL1	0	R1016M
2735.425	8.935	1367733	PROB	8910	n/a	-999	-999	n/a	n/a	n/a	n/a	19	[5, 1, 9]	15	PAL1	0	R1016M
2744.36	6.007	1372200	PROB	6007	n/a	-999	-999	n/a	n/a	n/a	n/a	19	[3, 5, 3]	11	PAL1	0	R1016M
2750.367	0.011	1375203	STOP	n/a	n/a	-999	-999	n/a	n/a	n/a	n/a	19	[-999, -999, -999]	-999	PAL1	0	R1016M
2750.378	0.0	1375209	MATH_END	n/a	n/a	-999	-999	n/a	n/a	n/a	n/a	19	[0, 0, 0]	-999	PAL1	0	R1016M
2750.378	0.016	1375209	TEST_START	n/a	n/a	-999	-999	n/a	n/a	n/a	n/a	19	[0, 0, 0]	-999	PAL1	0	R1016M
2750.394	0.934	1375217	TEST_ORIENT	n/a	n/a	3	1	OAR	PLANE	OAR	PLANE	19	[0, 0, 0]	-999	PAL1	0	R1016M
2751.328	0.001	1375684	TEST_PROBE	n/a	wordpools/wordpool_EN.txt	3	1	OAR	PLANE	OAR	PLANE	19	[0, 0, 0]	-999	PAL1	0	R1016M
2751.329	3.635	1375684	REC_START	n/a	n/a	3	-999	n/a	PLANE	n/a	n/a	19	[0, 0, 0]	-999	PAL1	0	R1016M
2754.964	1.381	1377502	REC_EVENT	3635	n/a	3	1	OAR	PLANE	OAR	PLANE	19	[0, 0, 0]	-999	PAL1	0	R1016M
2756.345	0.017	1378192	REC_END	n/a	n/a	3	-999	n/a	n/a	n/a	n/a	19	[0, 0, 0]	-999	PAL1	0	R1016M
2756.362	0.851	1378201	TEST_ORIENT	n/a	n/a	4	2	MOOSE	n/a	MOOSE	FLUTE	19	[0, 0, 0]	-999	PAL1	0	R1016M
2757.213	0.0	1378626	REC_START	n/a	n/a	4	-999	n/a	n/a	n/a	n/a	19	[0, 0, 0]	-999	PAL1	0	R1016M
2757.213	3.449	1378626	TEST_PROBE	n/a	wordpools/wordpool_EN.txt	4	2	MOOSE	n/a	MOOSE	FLUTE	19	[0, 0, 0]	-999	PAL1	0	R1016M
2760.662	1.568	1380351	REC_EVENT	3449	n/a	4	2	MOOSE	<>	MOOSE	FLUTE	19	[0, 0, 0]	-999	PAL1	0	R1016M
2762.23	0.017	1381134	REC_END	n/a	n/a	4	-999	n/a	n/a	n/a	n/a	19	[0, 0, 0]	-999	PAL1	0	R1016M
2762.247	0.833	1381143	TEST_ORIENT	n/a	n/a	1	3	PEARL	BEAR	APE	PEARL	19	[0, 0, 0]	-999	PAL1	0	R1016M
2763.08	0.001	1381559	TEST_PROBE	n/a	wordpools/wordpool_EN.txt	1	3	PEARL	BEAR	APE	PEARL	19	[0, 0, 0]	-999	PAL1	0	R1016M
2763.081	3.555	1381560	REC_START	n/a	n/a	1	-999	n/a	BEAR	n/a	n/a	19	[0, 0, 0]	-999	PAL1	0	R1016M
2766.636	1.455	1383337	REC_EVENT	3555	n/a	1	3	PEARL	BEAR	APE	PEARL	19	[0, 0, 0]	-999	PAL1	0	R1016M
2768.091	0.007	1384065	REC_END	n/a	n/a	1	-999	n/a	n/a	n/a	n/a	19	[0, 0, 0]	-999	PAL1	0	R1016M
2768.098	0.801	1384068	TEST_ORIENT	n/a	n/a	2	4	TRUCK	n/a	WEB	TRUCK	19	[0, 0, 0]	-999	PAL1	0	R1016M
2768.899	0.001	1384469	TEST_PROBE	n/a	wordpools/wordpool_EN.txt	2	4	TRUCK	n/a	WEB	TRUCK	19	[0, 0, 0]	-999	PAL1	0	R1016M
2768.9	1.259	1384469	REC_START	n/a	n/a	2	-999	n/a	n/a	n/a	n/a	19	[0, 0, 0]	-999	PAL1	0	R1016M
2770.159	3.751	1385099	REC_EVENT	1259	n/a	2	4	TRUCK	<>	WEB	TRUCK	19	[0, 0, 0]	-999	PAL1	0	R1016M
2773.91	0.007	1386974	REC_END	n/a	n/a	2	-999	n/a	n/a	n/a	n/a	19	[0, 0, 0]	-999	PAL1	0	R1016M
2773.917	0.967	1386978	TEST_ORIENT	n/a	n/a	5	5	SWAMP	LEAVES	SWAMP	LEAF	19	[0, 0, 0]	-999	PAL1	0	R1016M
2774.884	0.0	1387461	TEST_PROBE	n/a	wordpools/wordpool_EN.txt	5	5	SWAMP	LEAVES	SWAMP	LEAF	19	[0, 0, 0]	-999	PAL1	0	R1016M
2774.884	1.654	1387461	REC_START	n/a	n/a	5	-999	n/a	LEAVES	n/a	n/a	19	[0, 0, 0]	-999	PAL1	0	R1016M
2776.538	3.363	1388288	REC_EVENT	1654	n/a	5	5	SWAMP	LEAVES	SWAMP	LEAF	19	[0, 0, 0]	-999	PAL1	0	R1016M
2779.901	0.017	1389969	REC_END	n/a	n/a	5	-999	n/a	n/a	n/a	n/a	19	[0, 0, 0]	-999	PAL1	0	R1016M
2779.918	0.9	1389978	TEST_ORIENT	n/a	n/a	6	6	VAN	n/a	GOAT	VAN	19	[0, 0, 0]	-999	PAL1	0	R1016M
2780.818	0.001	1390428	TEST_PROBE	n/a	wordpools/wordpool_EN.txt	6	6	VAN	n/a	GOAT	VAN	19	[0, 0, 0]	-999	PAL1	0	R1016M
2780.819	0.0	1390428	REC_START	n/a	n/a	6	-999	n/a	n/a	n/a	n/a	19	[0, 0, 0]	-999	PAL1	0	R1016M
2780.819	5.01	1390428	REC_EVENT	0	n/a	6	6	VAN	<>	GOAT	VAN	19	[0, 0, 0]	-999	PAL1	0	R1016M
2785.829	3.666	1392933	REC_END	n/a	n/a	6	-999	n/a	n/a	n/a	n/a	19	[0, 0, 0]	-999	PAL1	0	R1016M
2789.495	10.444	1394766	ENCODING_START	n/a	n/a	0	-999	n/a	n/a	n/a	n/a	20	[0, 0, 0]	-999	PAL1	0	R1016M
2799.939	0.799	1399988	STUDY_ORIENT	n/a	n/a	1	1	CAVE	STAIR	STAIR	CAVE	20	[0, 0, 0]	-999	PAL1	0	R1016M
2800.738	5.034	1400387	STUDY_PAIR	n/a	wordpools/wordpool_EN.txt	1	1	CAVE	STAIR	STAIR	CAVE	20	[0, 0, 0]	-999	PAL1	0	R1016M
2805.772	0.967	1402904	STUDY_ORIENT	n/a	n/a	2	4	GOLD	DOG	DOG	GOLD	20	[0, 0, 0]	-999	PAL1	0	R1016M
2806.739	5.018	1403388	STUDY_PAIR	n/a	wordpools/wordpool_EN.txt	2	4	GOLD	DOG	DOG	GOLD	20	[0, 0, 0]	-999	PAL1	0	R1016M
2811.757	0.966	1405897	STUDY_ORIENT	n/a	n/a	3	5	MAIL	OAK	MAIL	OAK	20	[0, 0, 0]	-999	PAL1	0	R1016M
2812.723	5.018	1406380	STUDY_PAIR	n/a	wordpools/wordpool_EN.txt	3	5	MAIL	OAK	MAIL	OAK	20	[0, 0, 0]	-999	PAL1	0	R1016M
2817.741	1.001	1408888	STUDY_ORIENT	n/a	n/a	4	6	FOOD	DOG	PIT	FOOD	20	[0, 0, 0]	-999	PAL1	0	R1016M
2818.742	5.034	1409389	STUDY_PAIR	n/a	wordpools/wordpool_EN.txt	4	6	FOOD	DOG	PIT	FOOD	20	[0, 0, 0]	-999	PAL1	0	R1016M
2823.776	0.883	1411906	STUDY_ORIENT	n/a	n/a	5	3	PEN	n/a	CAT	PEN	20	[0, 0, 0]	-999	PAL1	0	R1016M
2824.659	5.018	1412347	STUDY_PAIR	n/a	wordpools/wordpool_EN.txt	5	3	PEN	n/a	CAT	PEN	20	[0, 0, 0]	-999	PAL1	0	R1016M
2829.677	0.884	1414856	STUDY_ORIENT	n/a	n/a	6	2	DOLL	n/a	SKUNK	DOLL	20	[0, 0, 0]	-999	PAL1	0	R1016M
2830.561	4.018	1415298	STUDY_PAIR	n/a	wordpools/wordpool_EN.txt	6	2	DOLL	n/a	SKUNK	DOLL	20	[0, 0, 0]	-999	PAL1	0	R1016M
2834.579	0.999	1417307	START	n/a	n/a	-999	-999	n/a	n/a	n/a	n/a	20	[-999, -999, -999]	-999	PAL1	0	R1016M
2835.578	0.017	1417806	MATH_START	n/a	n/a	-999	-999	n/a	n/a	n/a	n/a	20	[0, 0, 0]	-999	PAL1	0	R1016M
2835.595	8.102	1417815	PROB	8076	n/a	-999	-999	n/a	n/a	n/a	n/a	20	[8, 1, 3]	12	PAL1	0	R1016M
2843.697	4.317	1421866	PROB	4295	n/a	-999	-999	n/a	n/a	n/a	n/a	20	[1, 3, 1]	5	PAL1	0	R1016M
2848.014	10.153	1424024	PROB	10153	n/a	-999	-999	n/a	n/a	n/a	n/a	20	[4, 5, 5]	19	PAL1	0	R1016M
2858.167	0.016	1429100	STOP	n/a	n/a	-999	-999	n/a	n/a	n/a	n/a	20	[-999, -999, -999]	-999	PAL1	0	R1016M
2858.183	0.0	1429108	MATH_END	n/a	n/a	-999	-999	n/a	n/a	n/a	n/a	20	[0, 0, 0]	-999	PAL1	0	R1016M
