onset	duration	sample	trial_type	response_time	stim_file	serialpos	probepos	probe_word	resp_word	study_1	study_2	list	test	answer	experiment	session	subject
0.0	55.892	16841	SESS_START	n/a	n/a	-999	-999	n/a	n/a	n/a	n/a	-999	[0, 0, 0]	-999	PAL1	1	R1002P
55.892	1.016	44786	START	n/a	n/a	-999	-999	n/a	n/a	n/a	n/a	-1	[-999, -999, -999]	-999	PAL1	1	R1002P
56.908	3.984	45294	PROB	3.957	n/a	-999	-999	n/a	n/a	n/a	n/a	-1	[7, 7, 9]	23	PAL1	1	R1002P
60.892	4.684	47286	PROB	4.661	n/a	-999	-999	n/a	n/a	n/a	n/a	-1	[3, 3, 6]	12	PAL1	1	R1002P
65.576	4.535	49627	PROB	4.505	n/a	-999	-999	n/a	n/a	n/a	n/a	-1	[9, 3, 7]	19	PAL1	1	R1002P
70.111	6.698	51895	PROB	6.698	n/a	-999	-999	n/a	n/a	n/a	n/a	-1	[7, 8, 9]	24	PAL1	1	R1002P
76.809	59.304	55244	STOP	n/a	n/a	-999	-999	n/a	n/a	n/a	n/a	-1	[-999, -999, -999]	-999	PAL1	1	R1002P
136.113	10.446	84894	ENCODING_START	n/a	n/a	0	-999	n/a	n/a	n/a	n/a	1	[0, 0, 0]	-999	PAL1	1	R1002P
146.559	0.275	90117	STUDY_ORIENT	n/a	n/a	1	3	MOOSE	FOOD	MOOSE	FOOD	1	[0, 0, 0]	-999	PAL1	1	R1002P
147.376	4.0	90525	STUDY_PAIR	n/a	wordpools/wordpool_EN.txt	1	3	MOOSE	FOOD	MOOSE	FOOD	1	[0, 0, 0]	-999	PAL1	1	R1002P
152.394	0.275	93034	STUDY_ORIENT	n/a	n/a	2	2	SHARK	WAVE	WAVE	SHARK	1	[0, 0, 0]	-999	PAL1	1	R1002P
153.211	4.0	93443	STUDY_PAIR	n/a	wordpools/wordpool_EN.txt	2	2	SHARK	WAVE	WAVE	SHARK	1	[0, 0, 0]	-999	PAL1	1	R1002P
158.245	0.275	95959	STUDY_ORIENT	n/a	n/a	3	1	FENCE	GRAPE	GRAPE	FENCE	1	[0, 0, 0]	-999	PAL1	1	R1002P
159.229	4.0	96451	STUDY_PAIR	n/a	wordpools/wordpool_EN.txt	3	1	FENCE	GRAPE	GRAPE	FENCE	1	[0, 0, 0]	-999	PAL1	1	R1002P
164.263	0.275	98968	STUDY_ORIENT	n/a	n/a	4	4	COW	SHEEP	SHEEP	COW	1	[0, 0, 0]	-999	PAL1	1	R1002P
165.23	4.0	99452	STUDY_PAIR	n/a	wordpools/wordpool_EN.txt	4	4	COW	SHEEP	SHEEP	COW	1	[0, 0, 0]	-999	PAL1	1	R1002P
170.264	0.275	101969	STUDY_ORIENT	n/a	n/a	5	5	JET	n/a	JET	CRANE	1	[0, 0, 0]	-999	PAL1	1	R1002P
171.164	4.0	102419	STUDY_PAIR	n/a	wordpools/wordpool_EN.txt	5	5	JET	n/a	JET	CRANE	1	[0, 0, 0]	-999	PAL1	1	R1002P
176.182	0.275	104927	STUDY_ORIENT	n/a	n/a	6	6	GOAT	FACE	GOAT	FACE	1	[0, 0, 0]	-999	PAL1	1	R1002P
177.149	4.0	105411	STUDY_PAIR	n/a	wordpools/wordpool_EN.txt	6	6	GOAT	FACE	GOAT	FACE	1	[0, 0, 0]	-999	PAL1	1	R1002P
181.167	0.999	107420	START	n/a	n/a	-999	-999	n/a	n/a	n/a	n/a	1	[-999, -999, -999]	-999	PAL1	1	R1002P
182.166	0.017	107919	MATH_START	n/a	n/a	-999	-999	n/a	n/a	n/a	n/a	1	[0, 0, 0]	-999	PAL1	1	R1002P
182.183	7.651	107928	PROB	7.618	n/a	-999	-999	n/a	n/a	n/a	n/a	1	[5, 7, 7]	19	PAL1	1	R1002P
189.834	4.967	111753	PROB	4.943	n/a	-999	-999	n/a	n/a	n/a	n/a	1	[6, 7, 2]	15	PAL1	1	R1002P
194.801	4.785	114236	PROB	4.752	n/a	-999	-999	n/a	n/a	n/a	n/a	1	[5, 9, 4]	18	PAL1	1	R1002P
199.586	3.407	116629	PROB	3.407	n/a	-999	-999	n/a	n/a	n/a	n/a	1	[1, 6, 4]	11	PAL1	1	R1002P
202.993	0.01	118332	STOP	n/a	n/a	-999	-999	n/a	n/a	n/a	n/a	1	[-999, -999, -999]	-999	PAL1	1	R1002P
203.003	0.0	118337	MATH_END	n/a	n/a	-999	-999	n/a	n/a	n/a	n/a	1	[0, 0, 0]	-999	PAL1	1	R1002P
203.003	0.017	118337	TEST_START	n/a	n/a	-999	-999	n/a	n/a	n/a	n/a	1	[0, 0, 0]	-999	PAL1	1	R1002P
203.02	0.275	118346	TEST_ORIENT	n/a	n/a	3	1	FENCE	GRAPE	GRAPE	FENCE	1	[0, 0, 0]	-999	PAL1	1	R1002P
203.903	4.0	118787	TEST_PROBE	n/a	wordpools/wordpool_EN.txt	3	1	FENCE	GRAPE	GRAPE	FENCE	1	[0, 0, 0]	-999	PAL1	1	R1002P
203.904	3.144	118788	REC_START	n/a	n/a	3	-999	n/a	GRAPE	n/a	n/a	1	[0, 0, 0]	-999	PAL1	1	R1002P
207.048	1.872	120360	REC_EVENT	3.144	n/a	3	1	FENCE	GRAPE	GRAPE	FENCE	1	[0, 0, 0]	-999	PAL1	1	R1002P
208.92	0.017	121296	REC_END	n/a	n/a	3	-999	n/a	n/a	n/a	n/a	1	[0, 0, 0]	-999	PAL1	1	R1002P
208.937	0.275	121304	TEST_ORIENT	n/a	n/a	2	2	SHARK	WAVE	WAVE	SHARK	1	[0, 0, 0]	-999	PAL1	1	R1002P
209.854	4.0	121763	TEST_PROBE	n/a	wordpools/wordpool_EN.txt	2	2	SHARK	WAVE	WAVE	SHARK	1	[0, 0, 0]	-999	PAL1	1	R1002P
209.855	1.134	121763	REC_START	n/a	n/a	2	-999	n/a	WAVE	n/a	n/a	1	[0, 0, 0]	-999	PAL1	1	R1002P
210.989	3.874	122330	REC_EVENT	1.134	n/a	2	2	SHARK	WAVE	WAVE	SHARK	1	[0, 0, 0]	-999	PAL1	1	R1002P
214.863	0.009	124267	REC_END	n/a	n/a	2	-999	n/a	n/a	n/a	n/a	1	[0, 0, 0]	-999	PAL1	1	R1002P
214.872	0.275	124271	TEST_ORIENT	n/a	n/a	1	3	MOOSE	FOOD	MOOSE	FOOD	1	[0, 0, 0]	-999	PAL1	1	R1002P
215.855	4.0	124763	TEST_PROBE	n/a	wordpools/wordpool_EN.txt	1	3	MOOSE	FOOD	MOOSE	FOOD	1	[0, 0, 0]	-999	PAL1	1	R1002P
215.856	1.496	124763	REC_START	n/a	n/a	1	-999	n/a	FOOD	n/a	n/a	1	[0, 0, 0]	-999	PAL1	1	R1002P
217.352	3.513	125511	REC_EVENT	1.496	n/a	1	3	MOOSE	FOOD	MOOSE	FOOD	1	[0, 0, 0]	-999	PAL1	1	R1002P
220.865	0.008	127268	REC_END	n/a	n/a	1	-999	n/a	n/a	n/a	n/a	1	[0, 0, 0]	-999	PAL1	1	R1002P
220.873	0.275	127272	TEST_ORIENT	n/a	n/a	4	4	COW	SHEEP	SHEEP	COW	1	[0, 0, 0]	-999	PAL1	1	R1002P
221.74	4.0	127705	TEST_PROBE	n/a	wordpools/wordpool_EN.txt	4	4	COW	SHEEP	SHEEP	COW	1	[0, 0, 0]	-999	PAL1	1	R1002P
221.74	1.768	127705	REC_START	n/a	n/a	4	-999	n/a	SHEEP	n/a	n/a	1	[0, 0, 0]	-999	PAL1	1	R1002P
223.508	3.249	128589	REC_EVENT	1.768	n/a	4	4	COW	SHEEP	SHEEP	COW	1	[0, 0, 0]	-999	PAL1	1	R1002P
226.757	0.017	130214	REC_END	n/a	n/a	4	-999	n/a	n/a	n/a	n/a	1	[0, 0, 0]	-999	PAL1	1	R1002P
226.774	0.275	130222	TEST_ORIENT	n/a	n/a	5	5	JET	n/a	JET	CRANE	1	[0, 0, 0]	-999	PAL1	1	R1002P
227.708	0.0	130689	REC_START	n/a	n/a	5	-999	n/a	n/a	n/a	n/a	1	[0, 0, 0]	-999	PAL1	1	R1002P
227.708	4.0	130689	TEST_PROBE	n/a	wordpools/wordpool_EN.txt	5	5	JET	n/a	JET	CRANE	1	[0, 0, 0]	-999	PAL1	1	R1002P
232.723	0.002	133196	REC_EVENT	5.015	n/a	5	5	JET	<>	JET	CRANE	1	[0, 0, 0]	-999	PAL1	1	R1002P
232.725	0.017	133197	REC_END	n/a	n/a	5	-999	n/a	n/a	n/a	n/a	1	[0, 0, 0]	-999	PAL1	1	R1002P
232.742	0.275	133206	TEST_ORIENT	n/a	n/a	6	6	GOAT	FACE	GOAT	FACE	1	[0, 0, 0]	-999	PAL1	1	R1002P
233.609	4.0	133639	TEST_PROBE	n/a	wordpools/wordpool_EN.txt	6	6	GOAT	FACE	GOAT	FACE	1	[0, 0, 0]	-999	PAL1	1	R1002P
233.609	1.527	133639	REC_START	n/a	n/a	6	-999	n/a	FACE	n/a	n/a	1	[0, 0, 0]	-999	PAL1	1	R1002P
235.136	3.492	134403	REC_EVENT	1.527	n/a	6	6	GOAT	FACE	GOAT	FACE	1	[0, 0, 0]	-999	PAL1	1	R1002P
238.628	3.309	136149	REC_END	n/a	n/a	6	-999	n/a	n/a	n/a	n/a	1	[0, 0, 0]	-999	PAL1	1	R1002P
241.937	10.443	137803	ENCODING_START	n/a	n/a	0	-999	n/a	n/a	n/a	n/a	2	[0, 0, 0]	-999	PAL1	1	R1002P
252.38	0.275	143024	STUDY_ORIENT	n/a	n/a	1	3	FLUTE	BOX	FLUTE	BOX	2	[0, 0, 0]	-999	PAL1	1	R1002P
253.18	4.0	143424	STUDY_PAIR	n/a	wordpools/wordpool_EN.txt	1	3	FLUTE	BOX	FLUTE	BOX	2	[0, 0, 0]	-999	PAL1	1	R1002P
258.198	0.275	145933	STUDY_ORIENT	n/a	n/a	2	6	EAR	GLOVE	GLOVE	EAR	2	[0, 0, 0]	-999	PAL1	1	R1002P
259.148	4.0	146408	STUDY_PAIR	n/a	wordpools/wordpool_EN.txt	2	6	EAR	GLOVE	GLOVE	EAR	2	[0, 0, 0]	-999	PAL1	1	R1002P
264.182	0.275	148925	STUDY_ORIENT	n/a	n/a	3	5	BADGE	n/a	CHIEF	BADGE	2	[0, 0, 0]	-999	PAL1	1	R1002P
264.998	4.0	149333	STUDY_PAIR	n/a	wordpools/wordpool_EN.txt	3	5	BADGE	n/a	CHIEF	BADGE	2	[0, 0, 0]	-999	PAL1	1	R1002P
270.016	0.275	151842	STUDY_ORIENT	n/a	n/a	4	2	TEA	n/a	TEA	ROPE	2	[0, 0, 0]	-999	PAL1	1	R1002P
270.983	4.0	152325	STUDY_PAIR	n/a	wordpools/wordpool_EN.txt	4	2	TEA	n/a	TEA	ROPE	2	[0, 0, 0]	-999	PAL1	1	R1002P
276.017	0.275	154842	STUDY_ORIENT	n/a	n/a	5	1	BOOK	BOARD	BOARD	BOOK	2	[0, 0, 0]	-999	PAL1	1	R1002P
276.917	4.0	155292	STUDY_PAIR	n/a	wordpools/wordpool_EN.txt	5	1	BOOK	BOARD	BOARD	BOOK	2	[0, 0, 0]	-999	PAL1	1	R1002P
281.935	0.275	157801	STUDY_ORIENT	n/a	n/a	6	4	PEACH	NOSE	PEACH	NOSE	2	[0, 0, 0]	-999	PAL1	1	R1002P
282.735	4.0	158201	STUDY_PAIR	n/a	wordpools/wordpool_EN.txt	6	4	PEACH	NOSE	PEACH	NOSE	2	[0, 0, 0]	-999	PAL1	1	R1002P
286.752	1.0	160209	START	n/a	n/a	-999	-999	n/a	n/a	n/a	n/a	2	[-999, -999, -999]	-999	PAL1	1	R1002P
287.752	0.017	160709	MATH_START	n/a	n/a	-999	-999	n/a	n/a	n/a	n/a	2	[0, 0, 0]	-999	PAL1	1	R1002P
287.769	4.134	160718	PROB	4.104	n/a	-999	-999	n/a	n/a	n/a	n/a	2	[2, 2, 7]	11	PAL1	1	R1002P
291.903	4.801	162785	PROB	4.77	n/a	-999	-999	n/a	n/a	n/a	n/a	2	[3, 6, 4]	13	PAL1	1	R1002P
296.704	5.536	165185	PROB	5.506	n/a	-999	-999	n/a	n/a	n/a	n/a	2	[6, 9, 9]	24	PAL1	1	R1002P
302.24	4.316	167953	PROB	4.281	n/a	-999	-999	n/a	n/a	n/a	n/a	2	[5, 1, 7]	13	PAL1	1	R1002P
306.556	6.173	170111	PROB	6.173	n/a	-999	-999	n/a	n/a	n/a	n/a	2	[9, 7, 3]	19	PAL1	1	R1002P
312.729	0.011	173197	STOP	n/a	n/a	-999	-999	n/a	n/a	n/a	n/a	2	[-999, -999, -999]	-999	PAL1	1	R1002P
312.74	0.0	173203	MATH_END	n/a	n/a	-999	-999	n/a	n/a	n/a	n/a	2	[0, 0, 0]	-999	PAL1	1	R1002P
312.74	0.017	173203	TEST_START	n/a	n/a	-999	-999	n/a	n/a	n/a	n/a	2	[0, 0, 0]	-999	PAL1	1	R1002P
312.757	0.275	173211	TEST_ORIENT	n/a	n/a	5	1	BOOK	BOARD	BOARD	BOOK	2	[0, 0, 0]	-999	PAL1	1	R1002P
313.641	0.0	173653	REC_START	n/a	n/a	5	-999	n/a	BOARD	n/a	n/a	2	[0, 0, 0]	-999	PAL1	1	R1002P
313.641	4.0	173653	TEST_PROBE	n/a	wordpools/wordpool_EN.txt	5	1	BOOK	BOARD	BOARD	BOOK	2	[0, 0, 0]	-999	PAL1	1	R1002P
315.615	3.043	174640	REC_EVENT	1.974	n/a	5	1	BOOK	BOARD	BOARD	BOOK	2	[0, 0, 0]	-999	PAL1	1	R1002P
318.658	0.017	176162	REC_END	n/a	n/a	5	-999	n/a	n/a	n/a	n/a	2	[0, 0, 0]	-999	PAL1	1	R1002P
318.675	0.275	176170	TEST_ORIENT	n/a	n/a	4	2	TEA	n/a	TEA	ROPE	2	[0, 0, 0]	-999	PAL1	1	R1002P
319.592	4.0	176629	TEST_PROBE	n/a	wordpools/wordpool_EN.txt	4	2	TEA	n/a	TEA	ROPE	2	[0, 0, 0]	-999	PAL1	1	R1002P
319.593	5.015	176629	REC_START	n/a	n/a	4	-999	n/a	n/a	n/a	n/a	2	[0, 0, 0]	-999	PAL1	1	R1002P
324.608	0.002	179136	REC_EVENT	5.015	n/a	4	2	TEA	<>	TEA	ROPE	2	[0, 0, 0]	-999	PAL1	1	R1002P
324.61	0.016	179137	REC_END	n/a	n/a	4	-999	n/a	n/a	n/a	n/a	2	[0, 0, 0]	-999	PAL1	1	R1002P
324.626	0.275	179145	TEST_ORIENT	n/a	n/a	1	3	FLUTE	BOX	FLUTE	BOX	2	[0, 0, 0]	-999	PAL1	1	R1002P
325.543	4.0	179604	TEST_PROBE	n/a	wordpools/wordpool_EN.txt	1	3	FLUTE	BOX	FLUTE	BOX	2	[0, 0, 0]	-999	PAL1	1	R1002P
325.544	1.276	179604	REC_START	n/a	n/a	1	-999	n/a	BOX	n/a	n/a	2	[0, 0, 0]	-999	PAL1	1	R1002P
326.82	3.732	180242	REC_EVENT	1.276	n/a	1	3	FLUTE	BOX	FLUTE	BOX	2	[0, 0, 0]	-999	PAL1	1	R1002P
330.552	0.009	182108	REC_END	n/a	n/a	1	-999	n/a	n/a	n/a	n/a	2	[0, 0, 0]	-999	PAL1	1	R1002P
330.561	0.275	182113	TEST_ORIENT	n/a	n/a	6	4	PEACH	NOSE	PEACH	NOSE	2	[0, 0, 0]	-999	PAL1	1	R1002P
331.445	4.0	182555	TEST_PROBE	n/a	wordpools/wordpool_EN.txt	6	4	PEACH	NOSE	PEACH	NOSE	2	[0, 0, 0]	-999	PAL1	1	R1002P
331.446	2.425	182555	REC_START	n/a	n/a	6	-999	n/a	NOSE	n/a	n/a	2	[0, 0, 0]	-999	PAL1	1	R1002P
333.871	2.584	183768	REC_EVENT	2.425	n/a	6	4	PEACH	NOSE	PEACH	NOSE	2	[0, 0, 0]	-999	PAL1	1	R1002P
336.455	0.008	185060	REC_END	n/a	n/a	6	-999	n/a	n/a	n/a	n/a	2	[0, 0, 0]	-999	PAL1	1	R1002P
336.463	0.275	185064	TEST_ORIENT	n/a	n/a	3	5	BADGE	n/a	CHIEF	BADGE	2	[0, 0, 0]	-999	PAL1	1	R1002P
337.263	4.0	185464	TEST_PROBE	n/a	wordpools/wordpool_EN.txt	3	5	BADGE	n/a	CHIEF	BADGE	2	[0, 0, 0]	-999	PAL1	1	R1002P
337.263	5.015	185464	REC_START	n/a	n/a	3	-999	n/a	n/a	n/a	n/a	2	[0, 0, 0]	-999	PAL1	1	R1002P
342.278	0.002	187971	REC_EVENT	5.015	n/a	3	5	BADGE	<>	CHIEF	BADGE	2	[0, 0, 0]	-999	PAL1	1	R1002P
342.28	0.017	187972	REC_END	n/a	n/a	3	-999	n/a	n/a	n/a	n/a	2	[0, 0, 0]	-999	PAL1	1	R1002P
342.297	0.275	187980	TEST_ORIENT	n/a	n/a	2	6	EAR	GLOVE	GLOVE	EAR	2	[0, 0, 0]	-999	PAL1	1	R1002P
343.331	4.0	188497	TEST_PROBE	n/a	wordpools/wordpool_EN.txt	2	6	EAR	GLOVE	GLOVE	EAR	2	[0, 0, 0]	-999	PAL1	1	R1002P
343.331	1.594	188497	REC_START	n/a	n/a	2	-999	n/a	GLOVE	n/a	n/a	2	[0, 0, 0]	-999	PAL1	1	R1002P
344.925	3.423	189294	REC_EVENT	1.594	n/a	2	6	EAR	GLOVE	GLOVE	EAR	2	[0, 0, 0]	-999	PAL1	1	R1002P
348.348	2.253	191006	REC_END	n/a	n/a	2	-999	n/a	n/a	n/a	n/a	2	[0, 0, 0]	-999	PAL1	1	R1002P
350.601	10.449	192132	ENCODING_START	n/a	n/a	0	-999	n/a	n/a	n/a	n/a	3	[0, 0, 0]	-999	PAL1	1	R1002P
361.05	0.275	197356	STUDY_ORIENT	n/a	n/a	1	5	LAMP	BRANCH	LAMP	BRANCH	3	[0, 0, 0]	-999	PAL1	1	R1002P
361.817	4.0	197740	STUDY_PAIR	n/a	wordpools/wordpool_EN.txt	1	5	LAMP	BRANCH	LAMP	BRANCH	3	[0, 0, 0]	-999	PAL1	1	R1002P
366.851	0.275	200257	STUDY_ORIENT	n/a	n/a	2	6	MUG	VASE	MUG	VASE	3	[0, 0, 0]	-999	PAL1	1	R1002P
367.818	4.0	200740	STUDY_PAIR	n/a	wordpools/wordpool_EN.txt	2	6	MUG	VASE	MUG	VASE	3	[0, 0, 0]	-999	PAL1	1	R1002P
372.852	0.275	203257	STUDY_ORIENT	n/a	n/a	3	1	SLEEVE	SLUSH	SLUSH	SLEEVE	3	[0, 0, 0]	-999	PAL1	1	R1002P
373.736	4.0	203699	STUDY_PAIR	n/a	wordpools/wordpool_EN.txt	3	1	SLEEVE	SLUSH	SLUSH	SLEEVE	3	[0, 0, 0]	-999	PAL1	1	R1002P
378.77	0.275	206216	STUDY_ORIENT	n/a	n/a	4	2	DIME	n/a	BRUSH	DIME	3	[0, 0, 0]	-999	PAL1	1	R1002P
379.67	4.0	206666	STUDY_PAIR	n/a	wordpools/wordpool_EN.txt	4	2	DIME	n/a	BRUSH	DIME	3	[0, 0, 0]	-999	PAL1	1	R1002P
384.688	0.275	209175	STUDY_ORIENT	n/a	n/a	5	3	STORE	AXE	STORE	AXE	3	[0, 0, 0]	-999	PAL1	1	R1002P
385.605	4.0	209633	STUDY_PAIR	n/a	wordpools/wordpool_EN.txt	5	3	STORE	AXE	STORE	AXE	3	[0, 0, 0]	-999	PAL1	1	R1002P
390.639	0.275	212150	STUDY_ORIENT	n/a	n/a	6	4	THUMB	BOY	THUMB	BOY	3	[0, 0, 0]	-999	PAL1	1	R1002P
391.539	4.0	212600	STUDY_PAIR	n/a	wordpools/wordpool_EN.txt	6	4	THUMB	BOY	THUMB	BOY	3	[0, 0, 0]	-999	PAL1	1	R1002P
395.54	1.0	214601	START	n/a	n/a	-999	-999	n/a	n/a	n/a	n/a	3	[-999, -999, -999]	-999	PAL1	1	R1002P
396.54	0.017	215101	MATH_START	n/a	n/a	-999	-999	n/a	n/a	n/a	n/a	3	[0, 0, 0]	-999	PAL1	1	R1002P
396.557	6.484	215109	PROB	6.452	n/a	-999	-999	n/a	n/a	n/a	n/a	3	[1, 2, 3]	6	PAL1	1	R1002P
403.041	4.252	218351	PROB	4.225	n/a	-999	-999	n/a	n/a	n/a	n/a	3	[2, 5, 7]	14	PAL1	1	R1002P
407.293	3.884	220477	PROB	3.853	n/a	-999	-999	n/a	n/a	n/a	n/a	3	[9, 4, 9]	22	PAL1	1	R1002P
411.177	4.185	222419	PROB	4.153	n/a	-999	-999	n/a	n/a	n/a	n/a	3	[8, 1, 8]	17	PAL1	1	R1002P
415.362	5.921	224511	PROB	5.921	n/a	-999	-999	n/a	n/a	n/a	n/a	3	[7, 5, 4]	16	PAL1	1	R1002P
421.283	0.013	227471	STOP	n/a	n/a	-999	-999	n/a	n/a	n/a	n/a	3	[-999, -999, -999]	-999	PAL1	1	R1002P
421.296	0.0	227478	MATH_END	n/a	n/a	-999	-999	n/a	n/a	n/a	n/a	3	[0, 0, 0]	-999	PAL1	1	R1002P
421.296	0.017	227478	TEST_START	n/a	n/a	-999	-999	n/a	n/a	n/a	n/a	3	[0, 0, 0]	-999	PAL1	1	R1002P
421.313	0.275	227486	TEST_ORIENT	n/a	n/a	3	1	SLEEVE	SLUSH	SLUSH	SLEEVE	3	[0, 0, 0]	-999	PAL1	1	R1002P
422.129	4.0	227894	TEST_PROBE	n/a	wordpools/wordpool_EN.txt	3	1	SLEEVE	SLUSH	SLUSH	SLEEVE	3	[0, 0, 0]	-999	PAL1	1	R1002P
422.129	2.154	227894	REC_START	n/a	n/a	3	-999	n/a	SLUSH	n/a	n/a	3	[0, 0, 0]	-999	PAL1	1	R1002P
424.283	2.864	228971	REC_EVENT	2.154	n/a	3	1	SLEEVE	SLUSH	SLUSH	SLEEVE	3	[0, 0, 0]	-999	PAL1	1	R1002P
427.147	0.017	230403	REC_END	n/a	n/a	3	-999	n/a	n/a	n/a	n/a	3	[0, 0, 0]	-999	PAL1	1	R1002P
427.164	0.275	230412	TEST_ORIENT	n/a	n/a	4	2	DIME	n/a	BRUSH	DIME	3	[0, 0, 0]	-999	PAL1	1	R1002P
427.963	4.0	230811	TEST_PROBE	n/a	wordpools/wordpool_EN.txt	4	2	DIME	n/a	BRUSH	DIME	3	[0, 0, 0]	-999	PAL1	1	R1002P
427.963	5.015	230811	REC_START	n/a	n/a	4	-999	n/a	n/a	n/a	n/a	3	[0, 0, 0]	-999	PAL1	1	R1002P
432.978	0.002	233319	REC_EVENT	5.015	n/a	4	2	DIME	<>	BRUSH	DIME	3	[0, 0, 0]	-999	PAL1	1	R1002P
432.98	0.017	233320	REC_END	n/a	n/a	4	-999	n/a	n/a	n/a	n/a	3	[0, 0, 0]	-999	PAL1	1	R1002P
432.997	0.275	233328	TEST_ORIENT	n/a	n/a	5	3	STORE	AXE	STORE	AXE	3	[0, 0, 0]	-999	PAL1	1	R1002P
434.014	4.0	233837	TEST_PROBE	n/a	wordpools/wordpool_EN.txt	5	3	STORE	AXE	STORE	AXE	3	[0, 0, 0]	-999	PAL1	1	R1002P
434.015	2.407	233837	REC_START	n/a	n/a	5	-999	n/a	AXE	n/a	n/a	3	[0, 0, 0]	-999	PAL1	1	R1002P
436.422	2.601	235040	REC_EVENT	2.407	n/a	5	3	STORE	AXE	STORE	AXE	3	[0, 0, 0]	-999	PAL1	1	R1002P
439.023	0.009	236341	REC_END	n/a	n/a	5	-999	n/a	n/a	n/a	n/a	3	[0, 0, 0]	-999	PAL1	1	R1002P
439.032	0.275	236345	TEST_ORIENT	n/a	n/a	6	4	THUMB	BOY	THUMB	BOY	3	[0, 0, 0]	-999	PAL1	1	R1002P
440.015	4.0	236837	TEST_PROBE	n/a	wordpools/wordpool_EN.txt	6	4	THUMB	BOY	THUMB	BOY	3	[0, 0, 0]	-999	PAL1	1	R1002P
440.016	1.892	236837	REC_START	n/a	n/a	6	-999	n/a	BOY	n/a	n/a	3	[0, 0, 0]	-999	PAL1	1	R1002P
441.908	3.116	237783	REC_EVENT	1.892	n/a	6	4	THUMB	BOY	THUMB	BOY	3	[0, 0, 0]	-999	PAL1	1	R1002P
445.024	0.009	239341	REC_END	n/a	n/a	6	-999	n/a	n/a	n/a	n/a	3	[0, 0, 0]	-999	PAL1	1	R1002P
445.033	0.275	239346	TEST_ORIENT	n/a	n/a	1	5	LAMP	BRANCH	LAMP	BRANCH	3	[0, 0, 0]	-999	PAL1	1	R1002P
445.983	4.0	239821	TEST_PROBE	n/a	wordpools/wordpool_EN.txt	1	5	LAMP	BRANCH	LAMP	BRANCH	3	[0, 0, 0]	-999	PAL1	1	R1002P
445.984	1.633	239821	REC_START	n/a	n/a	1	-999	n/a	BRANCH	n/a	n/a	3	[0, 0, 0]	-999	PAL1	1	R1002P
447.617	3.392	240638	REC_EVENT	1.633	n/a	1	5	LAMP	BRANCH	LAMP	BRANCH	3	[0, 0, 0]	-999	PAL1	1	R1002P
451.009	0.008	242334	REC_END	n/a	n/a	1	-999	n/a	n/a	n/a	n/a	3	[0, 0, 0]	-999	PAL1	1	R1002P
451.017	0.275	242338	TEST_ORIENT	n/a	n/a	2	6	MUG	VASE	MUG	VASE	3	[0, 0, 0]	-999	PAL1	1	R1002P
451.818	4.0	242738	TEST_PROBE	n/a	wordpools/wordpool_EN.txt	2	6	MUG	VASE	MUG	VASE	3	[0, 0, 0]	-999	PAL1	1	R1002P
451.818	1.649	242738	REC_START	n/a	n/a	2	-999	n/a	VASE	n/a	n/a	3	[0, 0, 0]	-999	PAL1	1	R1002P
453.467	3.368	243563	REC_EVENT	1.649	n/a	2	6	MUG	VASE	MUG	VASE	3	[0, 0, 0]	-999	PAL1	1	R1002P
456.835	2.311	245246	REC_END	n/a	n/a	2	-999	n/a	n/a	n/a	n/a	3	[0, 0, 0]	-999	PAL1	1	R1002P
459.146	10.442	246402	ENCODING_START	n/a	n/a	0	-999	n/a	n/a	n/a	n/a	4	[0, 0, 0]	-999	PAL1	1	R1002P
469.588	0.275	251623	STUDY_ORIENT	n/a	n/a	1	3	RAIN	INK	INK	RAIN	4	[0, 0, 0]	-999	PAL1	1	R1002P
470.472	4.0	252065	STUDY_PAIR	n/a	wordpools/wordpool_EN.txt	1	3	RAIN	INK	INK	RAIN	4	[0, 0, 0]	-999	PAL1	1	R1002P
475.506	0.275	254581	STUDY_ORIENT	n/a	n/a	2	4	SPONGE	ROSE	ROSE	SPONGE	4	[0, 0, 0]	-999	PAL1	1	R1002P
476.407	4.0	255032	STUDY_PAIR	n/a	wordpools/wordpool_EN.txt	2	4	SPONGE	ROSE	ROSE	SPONGE	4	[0, 0, 0]	-999	PAL1	1	R1002P
481.441	0.275	257549	STUDY_ORIENT	n/a	n/a	3	1	TRUCK	n/a	FOG	TRUCK	4	[0, 0, 0]	-999	PAL1	1	R1002P
482.408	4.0	258032	STUDY_PAIR	n/a	wordpools/wordpool_EN.txt	3	1	TRUCK	n/a	FOG	TRUCK	4	[0, 0, 0]	-999	PAL1	1	R1002P
487.442	0.275	260549	STUDY_ORIENT	n/a	n/a	4	6	SKUNK	n/a	TRAY	SKUNK	4	[0, 0, 0]	-999	PAL1	1	R1002P
488.326	4.0	260991	STUDY_PAIR	n/a	wordpools/wordpool_EN.txt	4	6	SKUNK	n/a	TRAY	SKUNK	4	[0, 0, 0]	-999	PAL1	1	R1002P
493.36	0.275	263508	STUDY_ORIENT	n/a	n/a	5	5	SOAP	RUG	RUG	SOAP	4	[0, 0, 0]	-999	PAL1	1	R1002P
494.143	4.0	263899	STUDY_PAIR	n/a	wordpools/wordpool_EN.txt	5	5	SOAP	RUG	RUG	SOAP	4	[0, 0, 0]	-999	PAL1	1	R1002P
499.161	0.275	266408	STUDY_ORIENT	n/a	n/a	6	2	CART	n/a	ELF	CART	4	[0, 0, 0]	-999	PAL1	1	R1002P
499.977	4.0	266816	STUDY_PAIR	n/a	wordpools/wordpool_EN.txt	6	2	CART	n/a	ELF	CART	4	[0, 0, 0]	-999	PAL1	1	R1002P
503.995	0.999	268825	START	n/a	n/a	-999	-999	n/a	n/a	n/a	n/a	4	[-999, -999, -999]	-999	PAL1	1	R1002P
504.994	0.017	269325	MATH_START	n/a	n/a	-999	-999	n/a	n/a	n/a	n/a	4	[0, 0, 0]	-999	PAL1	1	R1002P
505.011	5.601	269333	PROB	5.566	n/a	-999	-999	n/a	n/a	n/a	n/a	4	[7, 7, 3]	17	PAL1	1	R1002P
510.612	5.051	272133	PROB	5.029	n/a	-999	-999	n/a	n/a	n/a	n/a	4	[3, 6, 7]	16	PAL1	1	R1002P
515.663	4.101	274659	PROB	4.066	n/a	-999	-999	n/a	n/a	n/a	n/a	4	[1, 1, 2]	4	PAL1	1	R1002P
519.764	3.067	276709	PROB	3.045	n/a	-999	-999	n/a	n/a	n/a	n/a	4	[1, 1, 9]	11	PAL1	1	R1002P
522.831	4.114	278243	PROB	4.114	n/a	-999	-999	n/a	n/a	n/a	n/a	4	[7, 7, 5]	19	PAL1	1	R1002P
526.945	0.004	280300	STOP	n/a	n/a	-999	-999	n/a	n/a	n/a	n/a	4	[-999, -999, -999]	-999	PAL1	1	R1002P
526.949	0.0	280302	MATH_END	n/a	n/a	-999	-999	n/a	n/a	n/a	n/a	4	[0, 0, 0]	-999	PAL1	1	R1002P
526.949	0.016	280302	TEST_START	n/a	n/a	-999	-999	n/a	n/a	n/a	n/a	4	[0, 0, 0]	-999	PAL1	1	R1002P
526.965	0.275	280310	TEST_ORIENT	n/a	n/a	3	1	TRUCK	n/a	FOG	TRUCK	4	[0, 0, 0]	-999	PAL1	1	R1002P
527.899	4.0	280777	TEST_PROBE	n/a	wordpools/wordpool_EN.txt	3	1	TRUCK	n/a	FOG	TRUCK	4	[0, 0, 0]	-999	PAL1	1	R1002P
527.9	5.015	280777	REC_START	n/a	n/a	3	-999	n/a	n/a	n/a	n/a	4	[0, 0, 0]	-999	PAL1	1	R1002P
532.915	0.001	283284	REC_EVENT	5.015	n/a	3	1	TRUCK	<>	FOG	TRUCK	4	[0, 0, 0]	-999	PAL1	1	R1002P
532.916	0.017	283285	REC_END	n/a	n/a	3	-999	n/a	n/a	n/a	n/a	4	[0, 0, 0]	-999	PAL1	1	R1002P
532.933	0.275	283293	TEST_ORIENT	n/a	n/a	6	2	CART	n/a	ELF	CART	4	[0, 0, 0]	-999	PAL1	1	R1002P
533.833	4.0	283743	TEST_PROBE	n/a	wordpools/wordpool_EN.txt	6	2	CART	n/a	ELF	CART	4	[0, 0, 0]	-999	PAL1	1	R1002P
533.834	5.003	283744	REC_START	n/a	n/a	6	-999	n/a	n/a	n/a	n/a	4	[0, 0, 0]	-999	PAL1	1	R1002P
538.837	0.006	286245	REC_EVENT	5.003	n/a	6	2	CART	<>	ELF	CART	4	[0, 0, 0]	-999	PAL1	1	R1002P
538.843	0.008	286248	REC_END	n/a	n/a	6	-999	n/a	n/a	n/a	n/a	4	[0, 0, 0]	-999	PAL1	1	R1002P
538.851	0.275	286252	TEST_ORIENT	n/a	n/a	1	3	RAIN	INK	INK	RAIN	4	[0, 0, 0]	-999	PAL1	1	R1002P
539.835	4.0	286744	TEST_PROBE	n/a	wordpools/wordpool_EN.txt	1	3	RAIN	INK	INK	RAIN	4	[0, 0, 0]	-999	PAL1	1	R1002P
539.835	2.347	286744	REC_START	n/a	n/a	1	-999	n/a	INK	n/a	n/a	4	[0, 0, 0]	-999	PAL1	1	R1002P
542.182	2.67	287918	REC_EVENT	2.347	n/a	1	3	RAIN	INK	INK	RAIN	4	[0, 0, 0]	-999	PAL1	1	R1002P
544.852	0.017	289253	REC_END	n/a	n/a	1	-999	n/a	n/a	n/a	n/a	4	[0, 0, 0]	-999	PAL1	1	R1002P
544.869	0.275	289261	TEST_ORIENT	n/a	n/a	2	4	SPONGE	ROSE	ROSE	SPONGE	4	[0, 0, 0]	-999	PAL1	1	R1002P
545.669	0.0	289661	REC_START	n/a	n/a	2	-999	n/a	ROSE	n/a	n/a	4	[0, 0, 0]	-999	PAL1	1	R1002P
545.669	4.0	289661	TEST_PROBE	n/a	wordpools/wordpool_EN.txt	2	4	SPONGE	ROSE	ROSE	SPONGE	4	[0, 0, 0]	-999	PAL1	1	R1002P
547.33	3.356	290492	REC_EVENT	1.661	n/a	2	4	SPONGE	ROSE	ROSE	SPONGE	4	[0, 0, 0]	-999	PAL1	1	R1002P
550.686	0.017	292169	REC_END	n/a	n/a	2	-999	n/a	n/a	n/a	n/a	4	[0, 0, 0]	-999	PAL1	1	R1002P
550.703	0.275	292178	TEST_ORIENT	n/a	n/a	5	5	SOAP	RUG	RUG	SOAP	4	[0, 0, 0]	-999	PAL1	1	R1002P
551.653	4.0	292653	TEST_PROBE	n/a	wordpools/wordpool_EN.txt	5	5	SOAP	RUG	RUG	SOAP	4	[0, 0, 0]	-999	PAL1	1	R1002P
551.654	2.062	292653	REC_START	n/a	n/a	5	-999	n/a	RUG	n/a	n/a	4	[0, 0, 0]	-999	PAL1	1	R1002P
553.716	2.946	293684	REC_EVENT	2.062	n/a	5	5	SOAP	RUG	RUG	SOAP	4	[0, 0, 0]	-999	PAL1	1	R1002P
556.662	0.009	295157	REC_END	n/a	n/a	5	-999	n/a	n/a	n/a	n/a	4	[0, 0, 0]	-999	PAL1	1	R1002P
556.671	0.275	295162	TEST_ORIENT	n/a	n/a	4	6	SKUNK	n/a	TRAY	SKUNK	4	[0, 0, 0]	-999	PAL1	1	R1002P
557.705	4.0	295679	TEST_PROBE	n/a	wordpools/wordpool_EN.txt	4	6	SKUNK	n/a	TRAY	SKUNK	4	[0, 0, 0]	-999	PAL1	1	R1002P
557.705	5.021	295679	REC_START	n/a	n/a	4	-999	n/a	n/a	n/a	n/a	4	[0, 0, 0]	-999	PAL1	1	R1002P
562.726	0.004	298189	REC_EVENT	5.021	n/a	4	6	SKUNK	<>	TRAY	SKUNK	4	[0, 0, 0]	-999	PAL1	1	R1002P
562.73	2.464	298191	REC_END	n/a	n/a	4	-999	n/a	n/a	n/a	n/a	4	[0, 0, 0]	-999	PAL1	1	R1002P
565.194	10.447	299423	ENCODING_START	n/a	n/a	0	-999	n/a	n/a	n/a	n/a	5	[0, 0, 0]	-999	PAL1	1	R1002P
575.641	0.275	304646	STUDY_ORIENT	n/a	n/a	1	1	BALL	SCHOOL	BALL	SCHOOL	5	[0, 0, 0]	-999	PAL1	1	R1002P
576.525	4.0	305088	STUDY_PAIR	n/a	wordpools/wordpool_EN.txt	1	1	BALL	SCHOOL	BALL	SCHOOL	5	[0, 0, 0]	-999	PAL1	1	R1002P
581.559	0.275	307605	STUDY_ORIENT	n/a	n/a	2	6	SNAIL	EGG	SNAIL	EGG	5	[0, 0, 0]	-999	PAL1	1	R1002P
582.444	4.0	308048	STUDY_PAIR	n/a	wordpools/wordpool_EN.txt	2	6	SNAIL	EGG	SNAIL	EGG	5	[0, 0, 0]	-999	PAL1	1	R1002P
587.478	0.275	310564	STUDY_ORIENT	n/a	n/a	3	5	MOUTH	n/a	SNAKE	MOUTH	5	[0, 0, 0]	-999	PAL1	1	R1002P
588.262	4.0	310956	STUDY_PAIR	n/a	wordpools/wordpool_EN.txt	3	5	MOUTH	n/a	SNAKE	MOUTH	5	[0, 0, 0]	-999	PAL1	1	R1002P
593.296	0.275	313473	STUDY_ORIENT	n/a	n/a	4	4	SOUP	n/a	MUD	SOUP	5	[0, 0, 0]	-999	PAL1	1	R1002P
594.213	4.0	313932	STUDY_PAIR	n/a	wordpools/wordpool_EN.txt	4	4	SOUP	n/a	MUD	SOUP	5	[0, 0, 0]	-999	PAL1	1	R1002P
599.247	0.275	316449	STUDY_ORIENT	n/a	n/a	5	3	HOOK	OAK	OAK	HOOK	5	[0, 0, 0]	-999	PAL1	1	R1002P
600.247	4.0	316949	STUDY_PAIR	n/a	wordpools/wordpool_EN.txt	5	3	HOOK	OAK	OAK	HOOK	5	[0, 0, 0]	-999	PAL1	1	R1002P
605.265	0.275	319457	STUDY_ORIENT	n/a	n/a	6	2	LOCK	OAK	LOCK	FAN	5	[0, 0, 0]	-999	PAL1	1	R1002P
606.248	4.0	319949	STUDY_PAIR	n/a	wordpools/wordpool_EN.txt	6	2	LOCK	OAK	LOCK	FAN	5	[0, 0, 0]	-999	PAL1	1	R1002P
610.249	1.0	321949	START	n/a	n/a	-999	-999	n/a	n/a	n/a	n/a	5	[-999, -999, -999]	-999	PAL1	1	R1002P
611.249	0.017	322449	MATH_START	n/a	n/a	-999	-999	n/a	n/a	n/a	n/a	5	[0, 0, 0]	-999	PAL1	1	R1002P
611.266	5.667	322458	PROB	5.647	n/a	-999	-999	n/a	n/a	n/a	n/a	5	[8, 7, 3]	18	PAL1	1	R1002P
616.933	5.801	325291	PROB	5.772	n/a	-999	-999	n/a	n/a	n/a	n/a	5	[3, 9, 4]	16	PAL1	1	R1002P
622.734	4.652	328191	PROB	4.62	n/a	-999	-999	n/a	n/a	n/a	n/a	5	[5, 4, 3]	12	PAL1	1	R1002P
627.386	4.511	330517	PROB	4.511	n/a	-999	-999	n/a	n/a	n/a	n/a	5	[5, 7, 3]	15	PAL1	1	R1002P
631.897	0.005	332773	STOP	n/a	n/a	-999	-999	n/a	n/a	n/a	n/a	5	[-999, -999, -999]	-999	PAL1	1	R1002P
631.902	0.0	332775	MATH_END	n/a	n/a	-999	-999	n/a	n/a	n/a	n/a	5	[0, 0, 0]	-999	PAL1	1	R1002P
631.902	0.017	332775	TEST_START	n/a	n/a	-999	-999	n/a	n/a	n/a	n/a	5	[0, 0, 0]	-999	PAL1	1	R1002P
631.919	0.275	332784	TEST_ORIENT	n/a	n/a	1	1	BALL	SCHOOL	BALL	SCHOOL	5	[0, 0, 0]	-999	PAL1	1	R1002P
632.702	4.0	333175	TEST_PROBE	n/a	wordpools/wordpool_EN.txt	1	1	BALL	SCHOOL	BALL	SCHOOL	5	[0, 0, 0]	-999	PAL1	1	R1002P
632.703	1.042	333176	REC_START	n/a	n/a	1	-999	n/a	SCHOOL	n/a	n/a	5	[0, 0, 0]	-999	PAL1	1	R1002P
633.745	3.967	333697	REC_EVENT	1.042	n/a	1	1	BALL	SCHOOL	BALL	SCHOOL	5	[0, 0, 0]	-999	PAL1	1	R1002P
637.712	0.008	335680	REC_END	n/a	n/a	1	-999	n/a	n/a	n/a	n/a	5	[0, 0, 0]	-999	PAL1	1	R1002P
637.72	0.275	335684	TEST_ORIENT	n/a	n/a	6	2	LOCK	OAK	LOCK	FAN	5	[0, 0, 0]	-999	PAL1	1	R1002P
638.737	4.0	336193	TEST_PROBE	n/a	wordpools/wordpool_EN.txt	6	2	LOCK	OAK	LOCK	FAN	5	[0, 0, 0]	-999	PAL1	1	R1002P
638.737	1.566	336193	REC_START	n/a	n/a	6	-999	n/a	OAK	n/a	n/a	5	[0, 0, 0]	-999	PAL1	1	R1002P
640.303	3.451	336976	REC_EVENT	1.566	n/a	6	2	LOCK	OAK	LOCK	FAN	5	[0, 0, 0]	-999	PAL1	1	R1002P
643.754	0.017	338701	REC_END	n/a	n/a	6	-999	n/a	n/a	n/a	n/a	5	[0, 0, 0]	-999	PAL1	1	R1002P
643.771	0.275	338709	TEST_ORIENT	n/a	n/a	5	3	HOOK	OAK	OAK	HOOK	5	[0, 0, 0]	-999	PAL1	1	R1002P
644.771	4.0	339209	TEST_PROBE	n/a	wordpools/wordpool_EN.txt	5	3	HOOK	OAK	OAK	HOOK	5	[0, 0, 0]	-999	PAL1	1	R1002P
644.772	1.155	339210	REC_START	n/a	n/a	5	-999	n/a	OAK	n/a	n/a	5	[0, 0, 0]	-999	PAL1	1	R1002P
645.927	3.853	339787	REC_EVENT	1.155	n/a	5	3	HOOK	OAK	OAK	HOOK	5	[0, 0, 0]	-999	PAL1	1	R1002P
649.78	0.009	341714	REC_END	n/a	n/a	5	-999	n/a	n/a	n/a	n/a	5	[0, 0, 0]	-999	PAL1	1	R1002P
649.789	0.275	341718	TEST_ORIENT	n/a	n/a	4	4	SOUP	n/a	MUD	SOUP	5	[0, 0, 0]	-999	PAL1	1	R1002P
650.606	4.0	342127	TEST_PROBE	n/a	wordpools/wordpool_EN.txt	4	4	SOUP	n/a	MUD	SOUP	5	[0, 0, 0]	-999	PAL1	1	R1002P
650.606	5.017	342127	REC_START	n/a	n/a	4	-999	n/a	n/a	n/a	n/a	5	[0, 0, 0]	-999	PAL1	1	R1002P
655.623	0.004	344635	REC_END	n/a	n/a	4	-999	n/a	n/a	n/a	n/a	5	[0, 0, 0]	-999	PAL1	1	R1002P
655.627	0.013	344637	REC_EVENT	5.021	n/a	4	4	SOUP	<>	MUD	SOUP	5	[0, 0, 0]	-999	PAL1	1	R1002P
655.64	0.275	344644	TEST_ORIENT	n/a	n/a	3	5	MOUTH	n/a	SNAKE	MOUTH	5	[0, 0, 0]	-999	PAL1	1	R1002P
656.674	4.0	345161	TEST_PROBE	n/a	wordpools/wordpool_EN.txt	3	5	MOUTH	n/a	SNAKE	MOUTH	5	[0, 0, 0]	-999	PAL1	1	R1002P
656.675	5.025	345161	REC_START	n/a	n/a	3	-999	n/a	n/a	n/a	n/a	5	[0, 0, 0]	-999	PAL1	1	R1002P
661.7	0.002	347673	REC_END	n/a	n/a	3	-999	n/a	n/a	n/a	n/a	5	[0, 0, 0]	-999	PAL1	1	R1002P
661.702	0.006	347674	REC_EVENT	5.027	n/a	3	5	MOUTH	<>	SNAKE	MOUTH	5	[0, 0, 0]	-999	PAL1	1	R1002P
661.708	0.275	347677	TEST_ORIENT	n/a	n/a	2	6	SNAIL	EGG	SNAIL	EGG	5	[0, 0, 0]	-999	PAL1	1	R1002P
662.542	4.0	348094	TEST_PROBE	n/a	wordpools/wordpool_EN.txt	2	6	SNAIL	EGG	SNAIL	EGG	5	[0, 0, 0]	-999	PAL1	1	R1002P
662.542	1.915	348094	REC_START	n/a	n/a	2	-999	n/a	EGG	n/a	n/a	5	[0, 0, 0]	-999	PAL1	1	R1002P
664.457	3.102	349052	REC_EVENT	1.915	n/a	2	6	SNAIL	EGG	SNAIL	EGG	5	[0, 0, 0]	-999	PAL1	1	R1002P
667.559	2.258	350603	REC_END	n/a	n/a	2	-999	n/a	n/a	n/a	n/a	5	[0, 0, 0]	-999	PAL1	1	R1002P
669.817	10.446	351732	ENCODING_START	n/a	n/a	0	-999	n/a	n/a	n/a	n/a	6	[0, 0, 0]	-999	PAL1	1	R1002P
680.263	0.275	356954	STUDY_ORIENT	n/a	n/a	1	3	STEAM	n/a	STEAM	PRINCE	6	[0, 0, 0]	-999	PAL1	1	R1002P
681.078	4.0	357362	STUDY_PAIR	n/a	wordpools/wordpool_EN.txt	1	3	STEAM	n/a	STEAM	PRINCE	6	[0, 0, 0]	-999	PAL1	1	R1002P
686.096	0.275	359871	STUDY_ORIENT	n/a	n/a	2	4	PASTE	RAKE	RAKE	PASTE	6	[0, 0, 0]	-999	PAL1	1	R1002P
686.929	4.0	360287	STUDY_PAIR	n/a	wordpools/wordpool_EN.txt	2	4	PASTE	RAKE	RAKE	PASTE	6	[0, 0, 0]	-999	PAL1	1	R1002P
691.947	0.275	362796	STUDY_ORIENT	n/a	n/a	3	1	TOAD	n/a	GOLD	TOAD	6	[0, 0, 0]	-999	PAL1	1	R1002P
692.764	4.0	363205	STUDY_PAIR	n/a	wordpools/wordpool_EN.txt	3	1	TOAD	n/a	GOLD	TOAD	6	[0, 0, 0]	-999	PAL1	1	R1002P
697.798	0.275	365721	STUDY_ORIENT	n/a	n/a	4	2	STRING	n/a	STRING	SEED	6	[0, 0, 0]	-999	PAL1	1	R1002P
698.649	4.0	366147	STUDY_PAIR	n/a	wordpools/wordpool_EN.txt	4	2	STRING	n/a	STRING	SEED	6	[0, 0, 0]	-999	PAL1	1	R1002P
703.683	0.275	368664	STUDY_ORIENT	n/a	n/a	5	5	CLOUD	n/a	CLOUD	CUP	6	[0, 0, 0]	-999	PAL1	1	R1002P
704.501	4.0	369073	STUDY_PAIR	n/a	wordpools/wordpool_EN.txt	5	5	CLOUD	n/a	CLOUD	CUP	6	[0, 0, 0]	-999	PAL1	1	R1002P
709.534	0.275	371589	STUDY_ORIENT	n/a	n/a	6	6	JEEP	STALK	JEEP	CANE	6	[0, 0, 0]	-999	PAL1	1	R1002P
710.368	4.0	372006	STUDY_PAIR	n/a	wordpools/wordpool_EN.txt	6	6	JEEP	STALK	JEEP	CANE	6	[0, 0, 0]	-999	PAL1	1	R1002P
714.37	0.999	374007	START	n/a	n/a	-999	-999	n/a	n/a	n/a	n/a	6	[-999, -999, -999]	-999	PAL1	1	R1002P
715.369	0.017	374507	MATH_START	n/a	n/a	-999	-999	n/a	n/a	n/a	n/a	6	[0, 0, 0]	-999	PAL1	1	R1002P
715.386	5.483	374515	PROB	5.455	n/a	-999	-999	n/a	n/a	n/a	n/a	6	[3, 6, 4]	13	PAL1	1	R1002P
720.869	5.386	377256	PROB	5.357	n/a	-999	-999	n/a	n/a	n/a	n/a	6	[2, 5, 3]	10	PAL1	1	R1002P
726.255	6.683	379949	PROB	6.65	n/a	-999	-999	n/a	n/a	n/a	n/a	6	[5, 9, 8]	23	PAL1	1	R1002P
732.938	5.552	383291	PROB	5.552	n/a	-999	-999	n/a	n/a	n/a	n/a	6	[7, 7, 3]	17	PAL1	1	R1002P
738.49	0.017	386066	STOP	n/a	n/a	-999	-999	n/a	n/a	n/a	n/a	6	[-999, -999, -999]	-999	PAL1	1	R1002P
738.507	0.0	386075	MATH_END	n/a	n/a	-999	-999	n/a	n/a	n/a	n/a	6	[0, 0, 0]	-999	PAL1	1	R1002P
738.507	0.016	386075	TEST_START	n/a	n/a	-999	-999	n/a	n/a	n/a	n/a	6	[0, 0, 0]	-999	PAL1	1	R1002P
738.523	0.275	386083	TEST_ORIENT	n/a	n/a	3	1	TOAD	n/a	GOLD	TOAD	6	[0, 0, 0]	-999	PAL1	1	R1002P
739.357	4.0	386500	TEST_PROBE	n/a	wordpools/wordpool_EN.txt	3	1	TOAD	n/a	GOLD	TOAD	6	[0, 0, 0]	-999	PAL1	1	R1002P
739.358	5.009	386500	REC_START	n/a	n/a	3	-999	n/a	n/a	n/a	n/a	6	[0, 0, 0]	-999	PAL1	1	R1002P
744.367	0.0	389005	REC_END	n/a	n/a	3	-999	n/a	n/a	n/a	n/a	6	[0, 0, 0]	-999	PAL1	1	R1002P
744.367	0.008	389005	REC_EVENT	5.009	n/a	3	1	TOAD	<>	GOLD	TOAD	6	[0, 0, 0]	-999	PAL1	1	R1002P
744.375	0.275	389009	TEST_ORIENT	n/a	n/a	4	2	STRING	n/a	STRING	SEED	6	[0, 0, 0]	-999	PAL1	1	R1002P
745.325	4.0	389484	TEST_PROBE	n/a	wordpools/wordpool_EN.txt	4	2	STRING	n/a	STRING	SEED	6	[0, 0, 0]	-999	PAL1	1	R1002P
745.326	5.009	389484	REC_START	n/a	n/a	4	-999	n/a	n/a	n/a	n/a	6	[0, 0, 0]	-999	PAL1	1	R1002P
750.335	0.0	391989	REC_EVENT	5.009	n/a	4	2	STRING	<>	STRING	SEED	6	[0, 0, 0]	-999	PAL1	1	R1002P
750.335	0.008	391989	REC_END	n/a	n/a	4	-999	n/a	n/a	n/a	n/a	6	[0, 0, 0]	-999	PAL1	1	R1002P
750.343	0.275	391993	TEST_ORIENT	n/a	n/a	1	3	STEAM	n/a	STEAM	PRINCE	6	[0, 0, 0]	-999	PAL1	1	R1002P
751.159	4.0	392401	TEST_PROBE	n/a	wordpools/wordpool_EN.txt	1	3	STEAM	n/a	STEAM	PRINCE	6	[0, 0, 0]	-999	PAL1	1	R1002P
751.16	4.998	392401	REC_START	n/a	n/a	1	-999	n/a	n/a	n/a	n/a	6	[0, 0, 0]	-999	PAL1	1	R1002P
756.158	0.002	394900	REC_EVENT	4.998	n/a	1	3	STEAM	<>	STEAM	PRINCE	6	[0, 0, 0]	-999	PAL1	1	R1002P
756.16	0.017	394901	REC_END	n/a	n/a	1	-999	n/a	n/a	n/a	n/a	6	[0, 0, 0]	-999	PAL1	1	R1002P
756.177	0.275	394909	TEST_ORIENT	n/a	n/a	2	4	PASTE	RAKE	RAKE	PASTE	6	[0, 0, 0]	-999	PAL1	1	R1002P
756.976	4.0	395309	TEST_PROBE	n/a	wordpools/wordpool_EN.txt	2	4	PASTE	RAKE	RAKE	PASTE	6	[0, 0, 0]	-999	PAL1	1	R1002P
756.977	2.149	395309	REC_START	n/a	n/a	2	-999	n/a	RAKE	n/a	n/a	6	[0, 0, 0]	-999	PAL1	1	R1002P
759.126	2.86	396384	REC_EVENT	2.149	n/a	2	4	PASTE	RAKE	RAKE	PASTE	6	[0, 0, 0]	-999	PAL1	1	R1002P
761.986	0.008	397814	REC_END	n/a	n/a	2	-999	n/a	n/a	n/a	n/a	6	[0, 0, 0]	-999	PAL1	1	R1002P
761.994	0.275	397818	TEST_ORIENT	n/a	n/a	5	5	CLOUD	n/a	CLOUD	CUP	6	[0, 0, 0]	-999	PAL1	1	R1002P
762.928	4.0	398285	TEST_PROBE	n/a	wordpools/wordpool_EN.txt	5	5	CLOUD	n/a	CLOUD	CUP	6	[0, 0, 0]	-999	PAL1	1	R1002P
762.928	5.015	398285	REC_START	n/a	n/a	5	-999	n/a	n/a	n/a	n/a	6	[0, 0, 0]	-999	PAL1	1	R1002P
767.943	0.002	400792	REC_EVENT	5.015	n/a	5	5	CLOUD	<>	CLOUD	CUP	6	[0, 0, 0]	-999	PAL1	1	R1002P
767.945	0.017	400793	REC_END	n/a	n/a	5	-999	n/a	n/a	n/a	n/a	6	[0, 0, 0]	-999	PAL1	1	R1002P
767.962	0.275	400802	TEST_ORIENT	n/a	n/a	6	6	JEEP	STALK	JEEP	CANE	6	[0, 0, 0]	-999	PAL1	1	R1002P
768.779	4.0	401210	TEST_PROBE	n/a	wordpools/wordpool_EN.txt	6	6	JEEP	STALK	JEEP	CANE	6	[0, 0, 0]	-999	PAL1	1	R1002P
768.779	4.14	401210	REC_START	n/a	n/a	6	-999	n/a	STALK	n/a	n/a	6	[0, 0, 0]	-999	PAL1	1	R1002P
772.919	0.877	403280	REC_EVENT	4.14	n/a	6	6	JEEP	STALK	JEEP	CANE	6	[0, 0, 0]	-999	PAL1	1	R1002P
773.796	2.438	403718	REC_END	n/a	n/a	6	-999	n/a	n/a	n/a	n/a	6	[0, 0, 0]	-999	PAL1	1	R1002P
776.234	10.448	404937	ENCODING_START	n/a	n/a	0	-999	n/a	n/a	n/a	n/a	7	[0, 0, 0]	-999	PAL1	1	R1002P
786.682	0.275	410161	STUDY_ORIENT	n/a	n/a	1	1	MULE	SHOE	PURSE	MULE	7	[0, 0, 0]	-999	PAL1	1	R1002P
787.632	4.0	410636	STUDY_PAIR	n/a	wordpools/wordpool_EN.txt	1	1	MULE	SHOE	PURSE	MULE	7	[0, 0, 0]	-999	PAL1	1	R1002P
792.65	0.275	413145	STUDY_ORIENT	n/a	n/a	2	4	TRAIN	ARK	ARK	TRAIN	7	[0, 0, 0]	-999	PAL1	1	R1002P
793.667	4.0	413653	STUDY_PAIR	n/a	wordpools/wordpool_EN.txt	2	4	TRAIN	ARK	ARK	TRAIN	7	[0, 0, 0]	-999	PAL1	1	R1002P
798.701	0.275	416170	STUDY_ORIENT	n/a	n/a	3	3	MOLE	n/a	MOLE	ROOT	7	[0, 0, 0]	-999	PAL1	1	R1002P
799.486	4.0	416563	STUDY_PAIR	n/a	wordpools/wordpool_EN.txt	3	3	MOLE	n/a	MOLE	ROOT	7	[0, 0, 0]	-999	PAL1	1	R1002P
804.519	0.275	419079	STUDY_ORIENT	n/a	n/a	4	6	MOUSE	n/a	CONE	MOUSE	7	[0, 0, 0]	-999	PAL1	1	R1002P
805.387	4.0	419513	STUDY_PAIR	n/a	wordpools/wordpool_EN.txt	4	6	MOUSE	n/a	CONE	MOUSE	7	[0, 0, 0]	-999	PAL1	1	R1002P
810.421	0.275	422030	STUDY_ORIENT	n/a	n/a	5	5	SHOE	n/a	SHOE	STONE	7	[0, 0, 0]	-999	PAL1	1	R1002P
811.405	4.0	422522	STUDY_PAIR	n/a	wordpools/wordpool_EN.txt	5	5	SHOE	n/a	SHOE	STONE	7	[0, 0, 0]	-999	PAL1	1	R1002P
816.439	0.275	425039	STUDY_ORIENT	n/a	n/a	6	2	MOTH	n/a	DRUM	MOTH	7	[0, 0, 0]	-999	PAL1	1	R1002P
817.422	4.0	425530	STUDY_PAIR	n/a	wordpools/wordpool_EN.txt	6	2	MOTH	n/a	DRUM	MOTH	7	[0, 0, 0]	-999	PAL1	1	R1002P
821.423	1.0	427531	START	n/a	n/a	-999	-999	n/a	n/a	n/a	n/a	7	[-999, -999, -999]	-999	PAL1	1	R1002P
822.423	0.017	428031	MATH_START	n/a	n/a	-999	-999	n/a	n/a	n/a	n/a	7	[0, 0, 0]	-999	PAL1	1	R1002P
822.44	5.317	428039	PROB	5.289	n/a	-999	-999	n/a	n/a	n/a	n/a	7	[5, 3, 3]	11	PAL1	1	R1002P
827.757	5.519	430698	PROB	5.485	n/a	-999	-999	n/a	n/a	n/a	n/a	7	[6, 5, 6]	17	PAL1	1	R1002P
833.276	4.783	433457	PROB	4.749	n/a	-999	-999	n/a	n/a	n/a	n/a	7	[1, 3, 6]	10	PAL1	1	R1002P
838.059	7.766	435848	PROB	7.766	n/a	-999	-999	n/a	n/a	n/a	n/a	7	[6, 2, 5]	13	PAL1	1	R1002P
845.825	0.018	439731	STOP	n/a	n/a	-999	-999	n/a	n/a	n/a	n/a	7	[-999, -999, -999]	-999	PAL1	1	R1002P
845.843	0.0	439740	MATH_END	n/a	n/a	-999	-999	n/a	n/a	n/a	n/a	7	[0, 0, 0]	-999	PAL1	1	R1002P
845.843	0.017	439740	TEST_START	n/a	n/a	-999	-999	n/a	n/a	n/a	n/a	7	[0, 0, 0]	-999	PAL1	1	R1002P
845.86	0.275	439749	TEST_ORIENT	n/a	n/a	1	1	MULE	SHOE	PURSE	MULE	7	[0, 0, 0]	-999	PAL1	1	R1002P
846.894	4.0	440266	TEST_PROBE	n/a	wordpools/wordpool_EN.txt	1	1	MULE	SHOE	PURSE	MULE	7	[0, 0, 0]	-999	PAL1	1	R1002P
846.894	1.506	440266	REC_START	n/a	n/a	1	-999	n/a	SHOE	n/a	n/a	7	[0, 0, 0]	-999	PAL1	1	R1002P
848.4	3.511	441018	REC_EVENT	1.506	n/a	1	1	MULE	SHOE	PURSE	MULE	7	[0, 0, 0]	-999	PAL1	1	R1002P
851.911	0.017	442774	REC_END	n/a	n/a	1	-999	n/a	n/a	n/a	n/a	7	[0, 0, 0]	-999	PAL1	1	R1002P
851.928	0.275	442782	TEST_ORIENT	n/a	n/a	6	2	MOTH	n/a	DRUM	MOTH	7	[0, 0, 0]	-999	PAL1	1	R1002P
852.945	4.0	443291	TEST_PROBE	n/a	wordpools/wordpool_EN.txt	6	2	MOTH	n/a	DRUM	MOTH	7	[0, 0, 0]	-999	PAL1	1	R1002P
852.946	5.015	443291	REC_START	n/a	n/a	6	-999	n/a	n/a	n/a	n/a	7	[0, 0, 0]	-999	PAL1	1	R1002P
857.961	0.001	445799	REC_EVENT	5.015	n/a	6	2	MOTH	<>	DRUM	MOTH	7	[0, 0, 0]	-999	PAL1	1	R1002P
857.962	0.017	445799	REC_END	n/a	n/a	6	-999	n/a	n/a	n/a	n/a	7	[0, 0, 0]	-999	PAL1	1	R1002P
857.979	0.275	445808	TEST_ORIENT	n/a	n/a	3	3	MOLE	n/a	MOLE	ROOT	7	[0, 0, 0]	-999	PAL1	1	R1002P
858.896	4.0	446266	TEST_PROBE	n/a	wordpools/wordpool_EN.txt	3	3	MOLE	n/a	MOLE	ROOT	7	[0, 0, 0]	-999	PAL1	1	R1002P
858.897	5.009	446267	REC_START	n/a	n/a	3	-999	n/a	n/a	n/a	n/a	7	[0, 0, 0]	-999	PAL1	1	R1002P
863.906	0.0	448771	REC_EVENT	5.009	n/a	3	3	MOLE	<>	MOLE	ROOT	7	[0, 0, 0]	-999	PAL1	1	R1002P
863.906	0.008	448771	REC_END	n/a	n/a	3	-999	n/a	n/a	n/a	n/a	7	[0, 0, 0]	-999	PAL1	1	R1002P
863.914	0.275	448775	TEST_ORIENT	n/a	n/a	2	4	TRAIN	ARK	ARK	TRAIN	7	[0, 0, 0]	-999	PAL1	1	R1002P
864.731	4.0	449184	TEST_PROBE	n/a	wordpools/wordpool_EN.txt	2	4	TRAIN	ARK	ARK	TRAIN	7	[0, 0, 0]	-999	PAL1	1	R1002P
864.731	2.445	449184	REC_START	n/a	n/a	2	-999	n/a	ARK	n/a	n/a	7	[0, 0, 0]	-999	PAL1	1	R1002P
867.176	0.641	450406	REC_EVENT	2.445	n/a	2	4	TRAIN	TRAIN	ARK	TRAIN	7	[0, 0, 0]	-999	PAL1	1	R1002P
867.817	0.195	450726	REC_EVENT	3.086	n/a	2	4	TRAIN	<>	ARK	TRAIN	7	[0, 0, 0]	-999	PAL1	1	R1002P
868.012	1.736	450824	REC_EVENT	3.281	n/a	2	4	TRAIN	ARK	ARK	TRAIN	7	[0, 0, 0]	-999	PAL1	1	R1002P
869.748	0.017	451692	REC_END	n/a	n/a	2	-999	n/a	n/a	n/a	n/a	7	[0, 0, 0]	-999	PAL1	1	R1002P
869.765	0.275	451700	TEST_ORIENT	n/a	n/a	5	5	SHOE	n/a	SHOE	STONE	7	[0, 0, 0]	-999	PAL1	1	R1002P
870.698	4.0	452167	TEST_PROBE	n/a	wordpools/wordpool_EN.txt	5	5	SHOE	n/a	SHOE	STONE	7	[0, 0, 0]	-999	PAL1	1	R1002P
870.699	5.009	452167	REC_START	n/a	n/a	5	-999	n/a	n/a	n/a	n/a	7	[0, 0, 0]	-999	PAL1	1	R1002P
875.708	0.0	454672	REC_EVENT	5.009	n/a	5	5	SHOE	<>	SHOE	STONE	7	[0, 0, 0]	-999	PAL1	1	R1002P
875.708	0.008	454672	REC_END	n/a	n/a	5	-999	n/a	n/a	n/a	n/a	7	[0, 0, 0]	-999	PAL1	1	R1002P
875.716	0.275	454676	TEST_ORIENT	n/a	n/a	4	6	MOUSE	n/a	CONE	MOUSE	7	[0, 0, 0]	-999	PAL1	1	R1002P
876.75	4.0	455193	TEST_PROBE	n/a	wordpools/wordpool_EN.txt	4	6	MOUSE	n/a	CONE	MOUSE	7	[0, 0, 0]	-999	PAL1	1	R1002P
876.75	5.015	455193	REC_START	n/a	n/a	4	-999	n/a	n/a	n/a	n/a	7	[0, 0, 0]	-999	PAL1	1	R1002P
881.765	0.002	457700	REC_EVENT	5.015	n/a	4	6	MOUSE	<>	CONE	MOUSE	7	[0, 0, 0]	-999	PAL1	1	R1002P
881.767	107.346	457701	REC_END	n/a	n/a	4	-999	n/a	n/a	n/a	n/a	7	[0, 0, 0]	-999	PAL1	1	R1002P
989.113	10.444	511371	ENCODING_START	n/a	n/a	0	-999	n/a	n/a	n/a	n/a	8	[0, 0, 0]	-999	PAL1	1	R1002P
999.557	0.275	516593	STUDY_ORIENT	n/a	n/a	1	3	PIT	n/a	PIT	PHONE	8	[0, 0, 0]	-999	PAL1	1	R1002P
1000.523	4.0	517076	STUDY_PAIR	n/a	wordpools/wordpool_EN.txt	1	3	PIT	n/a	PIT	PHONE	8	[0, 0, 0]	-999	PAL1	1	R1002P
1005.541	0.275	519585	STUDY_ORIENT	n/a	n/a	2	2	FUDGE	n/a	HAT	FUDGE	8	[0, 0, 0]	-999	PAL1	1	R1002P
1006.359	4.0	519994	STUDY_PAIR	n/a	wordpools/wordpool_EN.txt	2	2	FUDGE	n/a	HAT	FUDGE	8	[0, 0, 0]	-999	PAL1	1	R1002P
1011.393	0.275	522511	STUDY_ORIENT	n/a	n/a	3	5	SKY	n/a	SKY	CLAY	8	[0, 0, 0]	-999	PAL1	1	R1002P
1012.327	4.0	522978	STUDY_PAIR	n/a	wordpools/wordpool_EN.txt	3	5	SKY	n/a	SKY	CLAY	8	[0, 0, 0]	-999	PAL1	1	R1002P
1017.361	0.275	525494	STUDY_ORIENT	n/a	n/a	4	4	NEST	ROOM	TEETH	NEST	8	[0, 0, 0]	-999	PAL1	1	R1002P
1018.178	4.0	525903	STUDY_PAIR	n/a	wordpools/wordpool_EN.txt	4	4	NEST	ROOM	TEETH	NEST	8	[0, 0, 0]	-999	PAL1	1	R1002P
1023.212	0.275	528420	STUDY_ORIENT	n/a	n/a	5	1	THREAD	n/a	THREAD	SPEAR	8	[0, 0, 0]	-999	PAL1	1	R1002P
1024.179	4.0	528903	STUDY_PAIR	n/a	wordpools/wordpool_EN.txt	5	1	THREAD	n/a	THREAD	SPEAR	8	[0, 0, 0]	-999	PAL1	1	R1002P
1029.213	0.275	531420	STUDY_ORIENT	n/a	n/a	6	6	CASH	CAVE	CASH	CAVE	8	[0, 0, 0]	-999	PAL1	1	R1002P
1030.18	4.0	531904	STUDY_PAIR	n/a	wordpools/wordpool_EN.txt	6	6	CASH	CAVE	CASH	CAVE	8	[0, 0, 0]	-999	PAL1	1	R1002P
1034.181	1.0	533904	START	n/a	n/a	-999	-999	n/a	n/a	n/a	n/a	8	[-999, -999, -999]	-999	PAL1	1	R1002P
1035.181	0.017	534404	MATH_START	n/a	n/a	-999	-999	n/a	n/a	n/a	n/a	8	[0, 0, 0]	-999	PAL1	1	R1002P
1035.198	8.534	534412	PROB	8.515	n/a	-999	-999	n/a	n/a	n/a	n/a	8	[2, 9, 6]	17	PAL1	1	R1002P
1043.732	6.068	538679	PROB	6.037	n/a	-999	-999	n/a	n/a	n/a	n/a	8	[1, 4, 8]	13	PAL1	1	R1002P
1049.8	6.45	541713	PROB	6.45	n/a	-999	-999	n/a	n/a	n/a	n/a	8	[1, 8, 7]	16	PAL1	1	R1002P
1056.25	0.019	544938	STOP	n/a	n/a	-999	-999	n/a	n/a	n/a	n/a	8	[-999, -999, -999]	-999	PAL1	1	R1002P
1056.269	0.0	544947	MATH_END	n/a	n/a	-999	-999	n/a	n/a	n/a	n/a	8	[0, 0, 0]	-999	PAL1	1	R1002P
1056.269	0.016	544947	TEST_START	n/a	n/a	-999	-999	n/a	n/a	n/a	n/a	8	[0, 0, 0]	-999	PAL1	1	R1002P
1056.285	0.275	544955	TEST_ORIENT	n/a	n/a	5	1	THREAD	n/a	THREAD	SPEAR	8	[0, 0, 0]	-999	PAL1	1	R1002P
1057.118	0.0	545372	REC_START	n/a	n/a	5	-999	n/a	n/a	n/a	n/a	8	[0, 0, 0]	-999	PAL1	1	R1002P
1057.118	4.0	545372	TEST_PROBE	n/a	wordpools/wordpool_EN.txt	5	1	THREAD	n/a	THREAD	SPEAR	8	[0, 0, 0]	-999	PAL1	1	R1002P
1062.135	0.004	547880	REC_END	n/a	n/a	5	-999	n/a	n/a	n/a	n/a	8	[0, 0, 0]	-999	PAL1	1	R1002P
1062.139	0.014	547882	REC_EVENT	5.021	n/a	5	1	THREAD	<>	THREAD	SPEAR	8	[0, 0, 0]	-999	PAL1	1	R1002P
1062.153	0.275	547889	TEST_ORIENT	n/a	n/a	2	2	FUDGE	n/a	HAT	FUDGE	8	[0, 0, 0]	-999	PAL1	1	R1002P
1063.153	4.0	548389	TEST_PROBE	n/a	wordpools/wordpool_EN.txt	2	2	FUDGE	n/a	HAT	FUDGE	8	[0, 0, 0]	-999	PAL1	1	R1002P
1063.154	5.009	548390	REC_START	n/a	n/a	2	-999	n/a	n/a	n/a	n/a	8	[0, 0, 0]	-999	PAL1	1	R1002P
1068.163	0.001	550894	REC_EVENT	5.009	n/a	2	2	FUDGE	<>	HAT	FUDGE	8	[0, 0, 0]	-999	PAL1	1	R1002P
1068.164	0.007	550895	REC_END	n/a	n/a	2	-999	n/a	n/a	n/a	n/a	8	[0, 0, 0]	-999	PAL1	1	R1002P
1068.171	0.275	550898	TEST_ORIENT	n/a	n/a	1	3	PIT	n/a	PIT	PHONE	8	[0, 0, 0]	-999	PAL1	1	R1002P
1069.204	4.0	551415	TEST_PROBE	n/a	wordpools/wordpool_EN.txt	1	3	PIT	n/a	PIT	PHONE	8	[0, 0, 0]	-999	PAL1	1	R1002P
1069.205	5.009	551415	REC_START	n/a	n/a	1	-999	n/a	n/a	n/a	n/a	8	[0, 0, 0]	-999	PAL1	1	R1002P
1074.214	0.0	553919	REC_EVENT	5.009	n/a	1	3	PIT	<>	PIT	PHONE	8	[0, 0, 0]	-999	PAL1	1	R1002P
1074.214	0.008	553919	REC_END	n/a	n/a	1	-999	n/a	n/a	n/a	n/a	8	[0, 0, 0]	-999	PAL1	1	R1002P
1074.222	0.275	553923	TEST_ORIENT	n/a	n/a	4	4	NEST	ROOM	TEETH	NEST	8	[0, 0, 0]	-999	PAL1	1	R1002P
1075.206	4.0	554415	TEST_PROBE	n/a	wordpools/wordpool_EN.txt	4	4	NEST	ROOM	TEETH	NEST	8	[0, 0, 0]	-999	PAL1	1	R1002P
1075.206	2.035	554415	REC_START	n/a	n/a	4	-999	n/a	ROOM	n/a	n/a	8	[0, 0, 0]	-999	PAL1	1	R1002P
1077.241	2.991	555433	REC_EVENT	2.035	n/a	4	4	NEST	ROOM	TEETH	NEST	8	[0, 0, 0]	-999	PAL1	1	R1002P
1080.232	0.008	556928	REC_END	n/a	n/a	4	-999	n/a	n/a	n/a	n/a	8	[0, 0, 0]	-999	PAL1	1	R1002P
1080.24	0.275	556932	TEST_ORIENT	n/a	n/a	3	5	SKY	n/a	SKY	CLAY	8	[0, 0, 0]	-999	PAL1	1	R1002P
1081.139	4.0	557382	TEST_PROBE	n/a	wordpools/wordpool_EN.txt	3	5	SKY	n/a	SKY	CLAY	8	[0, 0, 0]	-999	PAL1	1	R1002P
1081.14	5.015	557382	REC_START	n/a	n/a	3	-999	n/a	n/a	n/a	n/a	8	[0, 0, 0]	-999	PAL1	1	R1002P
1086.155	0.002	559890	REC_EVENT	5.015	n/a	3	5	SKY	<>	SKY	CLAY	8	[0, 0, 0]	-999	PAL1	1	R1002P
1086.157	0.017	559891	REC_END	n/a	n/a	3	-999	n/a	n/a	n/a	n/a	8	[0, 0, 0]	-999	PAL1	1	R1002P
1086.174	0.275	559899	TEST_ORIENT	n/a	n/a	6	6	CASH	CAVE	CASH	CAVE	8	[0, 0, 0]	-999	PAL1	1	R1002P
1087.124	0.0	560374	REC_START	n/a	n/a	6	-999	n/a	CAVE	n/a	n/a	8	[0, 0, 0]	-999	PAL1	1	R1002P
1087.124	4.0	560374	TEST_PROBE	n/a	wordpools/wordpool_EN.txt	6	6	CASH	CAVE	CASH	CAVE	8	[0, 0, 0]	-999	PAL1	1	R1002P
1087.124	0.609	560374	REC_EVENT	0.0	n/a	6	6	CASH	<>	CASH	CAVE	8	[0, 0, 0]	-999	PAL1	1	R1002P
1087.733	0.579	560679	REC_EVENT	0.609	n/a	6	6	CASH	CASH	CASH	CAVE	8	[0, 0, 0]	-999	PAL1	1	R1002P
1088.312	3.83	560968	REC_EVENT	1.188	n/a	6	6	CASH	CAVE	CASH	CAVE	8	[0, 0, 0]	-999	PAL1	1	R1002P
1092.142	2.252	562883	REC_END	n/a	n/a	6	-999	n/a	n/a	n/a	n/a	8	[0, 0, 0]	-999	PAL1	1	R1002P
1094.394	10.45	564009	ENCODING_START	n/a	n/a	0	-999	n/a	n/a	n/a	n/a	9	[0, 0, 0]	-999	PAL1	1	R1002P
1104.844	0.275	569234	STUDY_ORIENT	n/a	n/a	1	3	CHALK	n/a	CHALK	STAR	9	[0, 0, 0]	-999	PAL1	1	R1002P
1105.794	4.0	569709	STUDY_PAIR	n/a	wordpools/wordpool_EN.txt	1	3	CHALK	n/a	CHALK	STAR	9	[0, 0, 0]	-999	PAL1	1	R1002P
1110.828	0.275	572225	STUDY_ORIENT	n/a	n/a	2	6	PEARL	n/a	HEART	PEARL	9	[0, 0, 0]	-999	PAL1	1	R1002P
1111.828	4.0	572725	STUDY_PAIR	n/a	wordpools/wordpool_EN.txt	2	6	PEARL	n/a	HEART	PEARL	9	[0, 0, 0]	-999	PAL1	1	R1002P
1116.846	0.275	575234	STUDY_ORIENT	n/a	n/a	3	1	MAZE	SUN	MAZE	SUN	9	[0, 0, 0]	-999	PAL1	1	R1002P
1117.763	4.0	575693	STUDY_PAIR	n/a	wordpools/wordpool_EN.txt	3	1	MAZE	SUN	MAZE	SUN	9	[0, 0, 0]	-999	PAL1	1	R1002P
1122.797	0.275	578210	STUDY_ORIENT	n/a	n/a	4	2	SHELL	PEARL	SMILE	SHELL	9	[0, 0, 0]	-999	PAL1	1	R1002P
1123.764	4.0	578693	STUDY_PAIR	n/a	wordpools/wordpool_EN.txt	4	2	SHELL	PEARL	SMILE	SHELL	9	[0, 0, 0]	-999	PAL1	1	R1002P
1128.798	0.275	581210	STUDY_ORIENT	n/a	n/a	5	5	LAKE	n/a	LAKE	KITE	9	[0, 0, 0]	-999	PAL1	1	R1002P
1129.682	4.0	581652	STUDY_PAIR	n/a	wordpools/wordpool_EN.txt	5	5	LAKE	n/a	LAKE	KITE	9	[0, 0, 0]	-999	PAL1	1	R1002P
1134.716	0.275	584169	STUDY_ORIENT	n/a	n/a	6	4	FRUIT	CLIFF	FRUIT	CLIFF	9	[0, 0, 0]	-999	PAL1	1	R1002P
1135.566	4.0	584594	STUDY_PAIR	n/a	wordpools/wordpool_EN.txt	6	4	FRUIT	CLIFF	FRUIT	CLIFF	9	[0, 0, 0]	-999	PAL1	1	R1002P
1139.567	1.0	586594	START	n/a	n/a	-999	-999	n/a	n/a	n/a	n/a	9	[-999, -999, -999]	-999	PAL1	1	R1002P
1140.567	0.017	587094	MATH_START	n/a	n/a	-999	-999	n/a	n/a	n/a	n/a	9	[0, 0, 0]	-999	PAL1	1	R1002P
1140.584	6.284	587103	PROB	6.249	n/a	-999	-999	n/a	n/a	n/a	n/a	9	[9, 7, 4]	20	PAL1	1	R1002P
1146.868	5.586	590244	PROB	5.566	n/a	-999	-999	n/a	n/a	n/a	n/a	9	[5, 3, 1]	9	PAL1	1	R1002P
1152.454	3.817	593037	PROB	3.788	n/a	-999	-999	n/a	n/a	n/a	n/a	9	[6, 4, 7]	17	PAL1	1	R1002P
1156.271	3.706	594946	PROB	3.706	n/a	-999	-999	n/a	n/a	n/a	n/a	9	[2, 1, 1]	4	PAL1	1	R1002P
1159.977	0.011	596799	STOP	n/a	n/a	-999	-999	n/a	n/a	n/a	n/a	9	[-999, -999, -999]	-999	PAL1	1	R1002P
1159.988	0.0	596804	MATH_END	n/a	n/a	-999	-999	n/a	n/a	n/a	n/a	9	[0, 0, 0]	-999	PAL1	1	R1002P
1159.988	0.016	596804	TEST_START	n/a	n/a	-999	-999	n/a	n/a	n/a	n/a	9	[0, 0, 0]	-999	PAL1	1	R1002P
1160.004	0.275	596812	TEST_ORIENT	n/a	n/a	3	1	MAZE	SUN	MAZE	SUN	9	[0, 0, 0]	-999	PAL1	1	R1002P
1160.871	4.0	597246	TEST_PROBE	n/a	wordpools/wordpool_EN.txt	3	1	MAZE	SUN	MAZE	SUN	9	[0, 0, 0]	-999	PAL1	1	R1002P
1160.872	2.271	597246	REC_START	n/a	n/a	3	-999	n/a	SUN	n/a	n/a	9	[0, 0, 0]	-999	PAL1	1	R1002P
1163.143	2.755	598382	REC_EVENT	2.271	n/a	3	1	MAZE	SUN	MAZE	SUN	9	[0, 0, 0]	-999	PAL1	1	R1002P
1165.898	0.007	599759	REC_END	n/a	n/a	3	-999	n/a	n/a	n/a	n/a	9	[0, 0, 0]	-999	PAL1	1	R1002P
1165.905	0.275	599762	TEST_ORIENT	n/a	n/a	4	2	SHELL	PEARL	SMILE	SHELL	9	[0, 0, 0]	-999	PAL1	1	R1002P
1166.739	0.0	600179	REC_START	n/a	n/a	4	-999	n/a	PEARL	n/a	n/a	9	[0, 0, 0]	-999	PAL1	1	R1002P
1166.739	4.0	600179	TEST_PROBE	n/a	wordpools/wordpool_EN.txt	4	2	SHELL	PEARL	SMILE	SHELL	9	[0, 0, 0]	-999	PAL1	1	R1002P
1168.814	2.942	601217	REC_EVENT	2.075	n/a	4	2	SHELL	PEARL	SMILE	SHELL	9	[0, 0, 0]	-999	PAL1	1	R1002P
1171.756	0.017	602688	REC_END	n/a	n/a	4	-999	n/a	n/a	n/a	n/a	9	[0, 0, 0]	-999	PAL1	1	R1002P
1171.773	0.275	602696	TEST_ORIENT	n/a	n/a	1	3	CHALK	n/a	CHALK	STAR	9	[0, 0, 0]	-999	PAL1	1	R1002P
1172.807	4.0	603213	TEST_PROBE	n/a	wordpools/wordpool_EN.txt	1	3	CHALK	n/a	CHALK	STAR	9	[0, 0, 0]	-999	PAL1	1	R1002P
1172.807	5.015	603213	REC_START	n/a	n/a	1	-999	n/a	n/a	n/a	n/a	9	[0, 0, 0]	-999	PAL1	1	R1002P
1177.822	0.002	605721	REC_EVENT	5.015	n/a	1	3	CHALK	<>	CHALK	STAR	9	[0, 0, 0]	-999	PAL1	1	R1002P
1177.824	0.017	605722	REC_END	n/a	n/a	1	-999	n/a	n/a	n/a	n/a	9	[0, 0, 0]	-999	PAL1	1	R1002P
1177.841	0.275	605730	TEST_ORIENT	n/a	n/a	6	4	FRUIT	CLIFF	FRUIT	CLIFF	9	[0, 0, 0]	-999	PAL1	1	R1002P
1178.841	4.0	606230	TEST_PROBE	n/a	wordpools/wordpool_EN.txt	6	4	FRUIT	CLIFF	FRUIT	CLIFF	9	[0, 0, 0]	-999	PAL1	1	R1002P
1178.842	2.247	606231	REC_START	n/a	n/a	6	-999	n/a	CLIFF	n/a	n/a	9	[0, 0, 0]	-999	PAL1	1	R1002P
1181.089	2.761	607354	REC_EVENT	2.247	n/a	6	4	FRUIT	CLIFF	FRUIT	CLIFF	9	[0, 0, 0]	-999	PAL1	1	R1002P
1183.85	0.009	608735	REC_END	n/a	n/a	6	-999	n/a	n/a	n/a	n/a	9	[0, 0, 0]	-999	PAL1	1	R1002P
1183.859	0.275	608739	TEST_ORIENT	n/a	n/a	5	5	LAKE	n/a	LAKE	KITE	9	[0, 0, 0]	-999	PAL1	1	R1002P
1184.859	4.0	609239	TEST_PROBE	n/a	wordpools/wordpool_EN.txt	5	5	LAKE	n/a	LAKE	KITE	9	[0, 0, 0]	-999	PAL1	1	R1002P
1184.86	5.015	609239	REC_START	n/a	n/a	5	-999	n/a	n/a	n/a	n/a	9	[0, 0, 0]	-999	PAL1	1	R1002P
1189.875	0.001	611747	REC_EVENT	5.015	n/a	5	5	LAKE	<>	LAKE	KITE	9	[0, 0, 0]	-999	PAL1	1	R1002P
1189.876	0.017	611747	REC_END	n/a	n/a	5	-999	n/a	n/a	n/a	n/a	9	[0, 0, 0]	-999	PAL1	1	R1002P
1189.893	0.275	611756	TEST_ORIENT	n/a	n/a	2	6	PEARL	n/a	HEART	PEARL	9	[0, 0, 0]	-999	PAL1	1	R1002P
1190.81	4.0	612214	TEST_PROBE	n/a	wordpools/wordpool_EN.txt	2	6	PEARL	n/a	HEART	PEARL	9	[0, 0, 0]	-999	PAL1	1	R1002P
1190.811	5.009	612215	REC_START	n/a	n/a	2	-999	n/a	n/a	n/a	n/a	9	[0, 0, 0]	-999	PAL1	1	R1002P
1195.82	0.0	614719	REC_EVENT	5.009	n/a	2	6	PEARL	<>	HEART	PEARL	9	[0, 0, 0]	-999	PAL1	1	R1002P
1195.82	2.35	614719	REC_END	n/a	n/a	2	-999	n/a	n/a	n/a	n/a	9	[0, 0, 0]	-999	PAL1	1	R1002P
1198.17	10.444	615894	ENCODING_START	n/a	n/a	0	-999	n/a	n/a	n/a	n/a	10	[0, 0, 0]	-999	PAL1	1	R1002P
1208.614	0.275	621116	STUDY_ORIENT	n/a	n/a	1	3	YARD	MAIL	YARD	SHIP	10	[0, 0, 0]	-999	PAL1	1	R1002P
1209.547	4.0	621582	STUDY_PAIR	n/a	wordpools/wordpool_EN.txt	1	3	YARD	MAIL	YARD	SHIP	10	[0, 0, 0]	-999	PAL1	1	R1002P
1214.565	0.275	624091	STUDY_ORIENT	n/a	n/a	2	2	MAT	APE	MAT	APE	10	[0, 0, 0]	-999	PAL1	1	R1002P
1215.433	4.0	624525	STUDY_PAIR	n/a	wordpools/wordpool_EN.txt	2	2	MAT	APE	MAT	APE	10	[0, 0, 0]	-999	PAL1	1	R1002P
1220.467	0.275	627042	STUDY_ORIENT	n/a	n/a	3	1	WOOD	n/a	WOOD	STAIR	10	[0, 0, 0]	-999	PAL1	1	R1002P
1221.367	4.0	627492	STUDY_PAIR	n/a	wordpools/wordpool_EN.txt	3	1	WOOD	n/a	WOOD	STAIR	10	[0, 0, 0]	-999	PAL1	1	R1002P
1226.401	0.275	630009	STUDY_ORIENT	n/a	n/a	4	4	VAN	TREE	VAN	TREE	10	[0, 0, 0]	-999	PAL1	1	R1002P
1227.185	4.0	630401	STUDY_PAIR	n/a	wordpools/wordpool_EN.txt	4	4	VAN	TREE	VAN	TREE	10	[0, 0, 0]	-999	PAL1	1	R1002P
1232.219	0.275	632918	STUDY_ORIENT	n/a	n/a	5	5	CHAIR	n/a	CHAIR	PANTS	10	[0, 0, 0]	-999	PAL1	1	R1002P
1233.253	4.0	633435	STUDY_PAIR	n/a	wordpools/wordpool_EN.txt	5	5	CHAIR	n/a	CHAIR	PANTS	10	[0, 0, 0]	-999	PAL1	1	R1002P
1238.287	0.275	635952	STUDY_ORIENT	n/a	n/a	6	6	MAIL	n/a	MAIL	PARK	10	[0, 0, 0]	-999	PAL1	1	R1002P
1239.304	4.0	636460	STUDY_PAIR	n/a	wordpools/wordpool_EN.txt	6	6	MAIL	n/a	MAIL	PARK	10	[0, 0, 0]	-999	PAL1	1	R1002P
1243.322	0.999	638469	START	n/a	n/a	-999	-999	n/a	n/a	n/a	n/a	10	[-999, -999, -999]	-999	PAL1	1	R1002P
1244.321	0.017	638968	MATH_START	n/a	n/a	-999	-999	n/a	n/a	n/a	n/a	10	[0, 0, 0]	-999	PAL1	1	R1002P
1244.338	4.75	638977	PROB	4.719	n/a	-999	-999	n/a	n/a	n/a	n/a	10	[4, 2, 6]	12	PAL1	1	R1002P
1249.088	3.734	641352	PROB	3.705	n/a	-999	-999	n/a	n/a	n/a	n/a	10	[8, 1, 1]	10	PAL1	1	R1002P
1252.822	4.669	643219	PROB	4.644	n/a	-999	-999	n/a	n/a	n/a	n/a	10	[6, 9, 7]	22	PAL1	1	R1002P
1257.491	3.984	645553	PROB	3.951	n/a	-999	-999	n/a	n/a	n/a	n/a	10	[7, 1, 1]	9	PAL1	1	R1002P
1261.475	4.238	647545	PROB	4.238	n/a	-999	-999	n/a	n/a	n/a	n/a	10	[5, 1, 2]	8	PAL1	1	R1002P
1265.713	0.012	649664	STOP	n/a	n/a	-999	-999	n/a	n/a	n/a	n/a	10	[-999, -999, -999]	-999	PAL1	1	R1002P
1265.725	0.0	649670	MATH_END	n/a	n/a	-999	-999	n/a	n/a	n/a	n/a	10	[0, 0, 0]	-999	PAL1	1	R1002P
1265.725	0.016	649670	TEST_START	n/a	n/a	-999	-999	n/a	n/a	n/a	n/a	10	[0, 0, 0]	-999	PAL1	1	R1002P
1265.741	0.275	649678	TEST_ORIENT	n/a	n/a	3	1	WOOD	n/a	WOOD	STAIR	10	[0, 0, 0]	-999	PAL1	1	R1002P
1266.608	4.0	650111	TEST_PROBE	n/a	wordpools/wordpool_EN.txt	3	1	WOOD	n/a	WOOD	STAIR	10	[0, 0, 0]	-999	PAL1	1	R1002P
1266.609	5.003	650112	REC_START	n/a	n/a	3	-999	n/a	n/a	n/a	n/a	10	[0, 0, 0]	-999	PAL1	1	R1002P
1271.612	0.006	652613	REC_EVENT	5.003	n/a	3	1	WOOD	<>	WOOD	STAIR	10	[0, 0, 0]	-999	PAL1	1	R1002P
1271.618	0.008	652616	REC_END	n/a	n/a	3	-999	n/a	n/a	n/a	n/a	10	[0, 0, 0]	-999	PAL1	1	R1002P
1271.626	0.275	652620	TEST_ORIENT	n/a	n/a	2	2	MAT	APE	MAT	APE	10	[0, 0, 0]	-999	PAL1	1	R1002P
1272.542	4.0	653078	TEST_PROBE	n/a	wordpools/wordpool_EN.txt	2	2	MAT	APE	MAT	APE	10	[0, 0, 0]	-999	PAL1	1	R1002P
1272.543	1.397	653079	REC_START	n/a	n/a	2	-999	n/a	APE	n/a	n/a	10	[0, 0, 0]	-999	PAL1	1	R1002P
1273.94	3.603	653777	REC_EVENT	1.397	n/a	2	2	MAT	APE	MAT	APE	10	[0, 0, 0]	-999	PAL1	1	R1002P
1277.543	0.017	655578	REC_END	n/a	n/a	2	-999	n/a	n/a	n/a	n/a	10	[0, 0, 0]	-999	PAL1	1	R1002P
1277.56	0.275	655587	TEST_ORIENT	n/a	n/a	1	3	YARD	MAIL	YARD	SHIP	10	[0, 0, 0]	-999	PAL1	1	R1002P
1278.395	4.0	656004	TEST_PROBE	n/a	wordpools/wordpool_EN.txt	1	3	YARD	MAIL	YARD	SHIP	10	[0, 0, 0]	-999	PAL1	1	R1002P
1278.395	3.941	656004	REC_START	n/a	n/a	1	-999	n/a	MAIL	n/a	n/a	10	[0, 0, 0]	-999	PAL1	1	R1002P
1282.336	1.076	657975	REC_EVENT	3.941	n/a	1	3	YARD	MAIL	YARD	SHIP	10	[0, 0, 0]	-999	PAL1	1	R1002P
1283.412	0.017	658513	REC_END	n/a	n/a	1	-999	n/a	n/a	n/a	n/a	10	[0, 0, 0]	-999	PAL1	1	R1002P
1283.429	0.275	658521	TEST_ORIENT	n/a	n/a	4	4	VAN	TREE	VAN	TREE	10	[0, 0, 0]	-999	PAL1	1	R1002P
1284.296	4.0	658955	TEST_PROBE	n/a	wordpools/wordpool_EN.txt	4	4	VAN	TREE	VAN	TREE	10	[0, 0, 0]	-999	PAL1	1	R1002P
1284.296	1.385	658955	REC_START	n/a	n/a	4	-999	n/a	TREE	n/a	n/a	10	[0, 0, 0]	-999	PAL1	1	R1002P
1285.681	3.632	659647	REC_EVENT	1.385	n/a	4	4	VAN	TREE	VAN	TREE	10	[0, 0, 0]	-999	PAL1	1	R1002P
1289.313	0.017	661463	REC_END	n/a	n/a	4	-999	n/a	n/a	n/a	n/a	10	[0, 0, 0]	-999	PAL1	1	R1002P
1289.33	0.275	661472	TEST_ORIENT	n/a	n/a	5	5	CHAIR	n/a	CHAIR	PANTS	10	[0, 0, 0]	-999	PAL1	1	R1002P
1290.297	4.0	661955	TEST_PROBE	n/a	wordpools/wordpool_EN.txt	5	5	CHAIR	n/a	CHAIR	PANTS	10	[0, 0, 0]	-999	PAL1	1	R1002P
1290.297	5.015	661955	REC_START	n/a	n/a	5	-999	n/a	n/a	n/a	n/a	10	[0, 0, 0]	-999	PAL1	1	R1002P
1295.312	0.003	664463	REC_EVENT	5.015	n/a	5	5	CHAIR	<>	CHAIR	PANTS	10	[0, 0, 0]	-999	PAL1	1	R1002P
1295.315	0.016	664464	REC_END	n/a	n/a	5	-999	n/a	n/a	n/a	n/a	10	[0, 0, 0]	-999	PAL1	1	R1002P
1295.331	0.275	664472	TEST_ORIENT	n/a	n/a	6	6	MAIL	n/a	MAIL	PARK	10	[0, 0, 0]	-999	PAL1	1	R1002P
1296.165	0.0	664889	REC_START	n/a	n/a	6	-999	n/a	n/a	n/a	n/a	10	[0, 0, 0]	-999	PAL1	1	R1002P
1296.165	4.0	664889	TEST_PROBE	n/a	wordpools/wordpool_EN.txt	6	6	MAIL	n/a	MAIL	PARK	10	[0, 0, 0]	-999	PAL1	1	R1002P
1301.18	0.002	667396	REC_EVENT	5.015	n/a	6	6	MAIL	<>	MAIL	PARK	10	[0, 0, 0]	-999	PAL1	1	R1002P
1301.182	2.188	667397	REC_END	n/a	n/a	6	-999	n/a	n/a	n/a	n/a	10	[0, 0, 0]	-999	PAL1	1	R1002P
1303.37	10.447	668491	ENCODING_START	n/a	n/a	0	-999	n/a	n/a	n/a	n/a	11	[0, 0, 0]	-999	PAL1	1	R1002P
1313.817	0.275	673715	STUDY_ORIENT	n/a	n/a	1	3	COIN	CROW	COIN	CROW	11	[0, 0, 0]	-999	PAL1	1	R1002P
1314.801	4.0	674207	STUDY_PAIR	n/a	wordpools/wordpool_EN.txt	1	3	COIN	CROW	COIN	CROW	11	[0, 0, 0]	-999	PAL1	1	R1002P
1319.835	0.275	676723	STUDY_ORIENT	n/a	n/a	2	6	BAT	BIRD	BAT	BIRD	11	[0, 0, 0]	-999	PAL1	1	R1002P
1320.735	4.0	677173	STUDY_PAIR	n/a	wordpools/wordpool_EN.txt	2	6	BAT	BIRD	BAT	BIRD	11	[0, 0, 0]	-999	PAL1	1	R1002P
1325.753	0.275	679682	STUDY_ORIENT	n/a	n/a	3	5	GRASS	n/a	SINK	GRASS	11	[0, 0, 0]	-999	PAL1	1	R1002P
1326.586	4.0	680099	STUDY_PAIR	n/a	wordpools/wordpool_EN.txt	3	5	GRASS	n/a	SINK	GRASS	11	[0, 0, 0]	-999	PAL1	1	R1002P
1331.604	0.275	682608	STUDY_ORIENT	n/a	n/a	4	2	FROG	n/a	FROG	CLOWN	11	[0, 0, 0]	-999	PAL1	1	R1002P
1332.455	4.0	683033	STUDY_PAIR	n/a	wordpools/wordpool_EN.txt	4	2	FROG	n/a	FROG	CLOWN	11	[0, 0, 0]	-999	PAL1	1	R1002P
1337.473	0.275	685542	STUDY_ORIENT	n/a	n/a	5	1	HORN	n/a	HORN	TOE	11	[0, 0, 0]	-999	PAL1	1	R1002P
1338.256	4.0	685933	STUDY_PAIR	n/a	wordpools/wordpool_EN.txt	5	1	HORN	n/a	HORN	TOE	11	[0, 0, 0]	-999	PAL1	1	R1002P
1343.274	0.275	688442	STUDY_ORIENT	n/a	n/a	6	4	PEAR	PEAR	PLANE	PEAR	11	[0, 0, 0]	-999	PAL1	1	R1002P
1344.191	4.0	688901	STUDY_PAIR	n/a	wordpools/wordpool_EN.txt	6	4	PEAR	PEAR	PLANE	PEAR	11	[0, 0, 0]	-999	PAL1	1	R1002P
1348.209	0.999	690910	START	n/a	n/a	-999	-999	n/a	n/a	n/a	n/a	11	[-999, -999, -999]	-999	PAL1	1	R1002P
1349.208	0.017	691409	MATH_START	n/a	n/a	-999	-999	n/a	n/a	n/a	n/a	11	[0, 0, 0]	-999	PAL1	1	R1002P
1349.225	3.9	691418	PROB	3.872	n/a	-999	-999	n/a	n/a	n/a	n/a	11	[1, 2, 6]	9	PAL1	1	R1002P
1353.125	5.734	693367	PROB	5.708	n/a	-999	-999	n/a	n/a	n/a	n/a	11	[9, 9, 6]	24	PAL1	1	R1002P
1358.859	15.83	696234	PROB	15.83	n/a	-999	-999	n/a	n/a	n/a	n/a	11	[9, 8, 6]	23	PAL1	1	R1002P
1374.689	0.007	704149	STOP	n/a	n/a	-999	-999	n/a	n/a	n/a	n/a	11	[-999, -999, -999]	-999	PAL1	1	R1002P
1374.696	0.0	704152	MATH_END	n/a	n/a	-999	-999	n/a	n/a	n/a	n/a	11	[0, 0, 0]	-999	PAL1	1	R1002P
1374.696	0.016	704152	TEST_START	n/a	n/a	-999	-999	n/a	n/a	n/a	n/a	11	[0, 0, 0]	-999	PAL1	1	R1002P
1374.712	0.275	704160	TEST_ORIENT	n/a	n/a	5	1	HORN	n/a	HORN	TOE	11	[0, 0, 0]	-999	PAL1	1	R1002P
1375.596	4.0	704602	TEST_PROBE	n/a	wordpools/wordpool_EN.txt	5	1	HORN	n/a	HORN	TOE	11	[0, 0, 0]	-999	PAL1	1	R1002P
1375.597	5.015	704603	REC_START	n/a	n/a	5	-999	n/a	n/a	n/a	n/a	11	[0, 0, 0]	-999	PAL1	1	R1002P
1380.612	0.001	707110	REC_EVENT	5.015	n/a	5	1	HORN	<>	HORN	TOE	11	[0, 0, 0]	-999	PAL1	1	R1002P
1380.613	0.017	707111	REC_END	n/a	n/a	5	-999	n/a	n/a	n/a	n/a	11	[0, 0, 0]	-999	PAL1	1	R1002P
1380.63	0.275	707119	TEST_ORIENT	n/a	n/a	4	2	FROG	n/a	FROG	CLOWN	11	[0, 0, 0]	-999	PAL1	1	R1002P
1381.63	4.0	707619	TEST_PROBE	n/a	wordpools/wordpool_EN.txt	4	2	FROG	n/a	FROG	CLOWN	11	[0, 0, 0]	-999	PAL1	1	R1002P
1381.631	5.009	707620	REC_START	n/a	n/a	4	-999	n/a	n/a	n/a	n/a	11	[0, 0, 0]	-999	PAL1	1	R1002P
1386.64	0.0	710124	REC_END	n/a	n/a	4	-999	n/a	n/a	n/a	n/a	11	[0, 0, 0]	-999	PAL1	1	R1002P
1386.64	0.008	710124	REC_EVENT	5.009	n/a	4	2	FROG	<>	FROG	CLOWN	11	[0, 0, 0]	-999	PAL1	1	R1002P
1386.648	0.275	710128	TEST_ORIENT	n/a	n/a	1	3	COIN	CROW	COIN	CROW	11	[0, 0, 0]	-999	PAL1	1	R1002P
1387.581	4.0	710595	TEST_PROBE	n/a	wordpools/wordpool_EN.txt	1	3	COIN	CROW	COIN	CROW	11	[0, 0, 0]	-999	PAL1	1	R1002P
1387.582	1.371	710595	REC_START	n/a	n/a	1	-999	n/a	CROW	n/a	n/a	11	[0, 0, 0]	-999	PAL1	1	R1002P
1388.953	3.638	711281	REC_EVENT	1.371	n/a	1	3	COIN	CROW	COIN	CROW	11	[0, 0, 0]	-999	PAL1	1	R1002P
1392.591	0.008	713099	REC_END	n/a	n/a	1	-999	n/a	n/a	n/a	n/a	11	[0, 0, 0]	-999	PAL1	1	R1002P
1392.599	0.275	713103	TEST_ORIENT	n/a	n/a	6	4	PEAR	PEAR	PLANE	PEAR	11	[0, 0, 0]	-999	PAL1	1	R1002P
1393.467	4.0	713537	TEST_PROBE	n/a	wordpools/wordpool_EN.txt	6	4	PEAR	PEAR	PLANE	PEAR	11	[0, 0, 0]	-999	PAL1	1	R1002P
1393.467	1.98	713537	REC_START	n/a	n/a	6	-999	n/a	PEAR	n/a	n/a	11	[0, 0, 0]	-999	PAL1	1	R1002P
1395.447	3.037	714527	REC_EVENT	1.98	n/a	6	4	PEAR	PEAR	PLANE	PEAR	11	[0, 0, 0]	-999	PAL1	1	R1002P
1398.484	0.017	716046	REC_END	n/a	n/a	6	-999	n/a	n/a	n/a	n/a	11	[0, 0, 0]	-999	PAL1	1	R1002P
1398.501	0.275	716054	TEST_ORIENT	n/a	n/a	3	5	GRASS	n/a	SINK	GRASS	11	[0, 0, 0]	-999	PAL1	1	R1002P
1399.335	0.0	716471	REC_START	n/a	n/a	3	-999	n/a	n/a	n/a	n/a	11	[0, 0, 0]	-999	PAL1	1	R1002P
1399.335	4.0	716471	TEST_PROBE	n/a	wordpools/wordpool_EN.txt	3	5	GRASS	n/a	SINK	GRASS	11	[0, 0, 0]	-999	PAL1	1	R1002P
1404.35	0.002	718979	REC_EVENT	5.015	n/a	3	5	GRASS	<>	SINK	GRASS	11	[0, 0, 0]	-999	PAL1	1	R1002P
1404.352	0.017	718980	REC_END	n/a	n/a	3	-999	n/a	n/a	n/a	n/a	11	[0, 0, 0]	-999	PAL1	1	R1002P
1404.369	0.275	718988	TEST_ORIENT	n/a	n/a	2	6	BAT	BIRD	BAT	BIRD	11	[0, 0, 0]	-999	PAL1	1	R1002P
1405.286	4.0	719447	TEST_PROBE	n/a	wordpools/wordpool_EN.txt	2	6	BAT	BIRD	BAT	BIRD	11	[0, 0, 0]	-999	PAL1	1	R1002P
1405.286	2.75	719447	REC_START	n/a	n/a	2	-999	n/a	BIRD	n/a	n/a	11	[0, 0, 0]	-999	PAL1	1	R1002P
1408.036	0.594	720822	REC_EVENT	2.75	n/a	2	6	BAT	<>	BAT	BIRD	11	[0, 0, 0]	-999	PAL1	1	R1002P
1408.63	0.75	721118	REC_EVENT	3.344	n/a	2	6	BAT	BAT	BAT	BIRD	11	[0, 0, 0]	-999	PAL1	1	R1002P
1409.38	0.923	721493	REC_EVENT	4.094	n/a	2	6	BAT	BIRD	BAT	BIRD	11	[0, 0, 0]	-999	PAL1	1	R1002P
1410.303	2.362	721955	REC_END	n/a	n/a	2	-999	n/a	n/a	n/a	n/a	11	[0, 0, 0]	-999	PAL1	1	R1002P
1412.665	10.457	723136	ENCODING_START	n/a	n/a	0	-999	n/a	n/a	n/a	n/a	12	[0, 0, 0]	-999	PAL1	1	R1002P
1423.122	0.275	728364	STUDY_ORIENT	n/a	n/a	1	3	STICK	STONE	STICK	STRAW	12	[0, 0, 0]	-999	PAL1	1	R1002P
1424.105	4.0	728856	STUDY_PAIR	n/a	wordpools/wordpool_EN.txt	1	3	STICK	STONE	STICK	STRAW	12	[0, 0, 0]	-999	PAL1	1	R1002P
1429.123	0.275	731364	STUDY_ORIENT	n/a	n/a	2	2	ZOO	FUR	FUR	ZOO	12	[0, 0, 0]	-999	PAL1	1	R1002P
1430.023	4.0	731814	STUDY_PAIR	n/a	wordpools/wordpool_EN.txt	2	2	ZOO	FUR	FUR	ZOO	12	[0, 0, 0]	-999	PAL1	1	R1002P
1435.057	0.275	734331	STUDY_ORIENT	n/a	n/a	3	1	HOSE	LAWN	HOSE	LAWN	12	[0, 0, 0]	-999	PAL1	1	R1002P
1436.007	4.0	734806	STUDY_PAIR	n/a	wordpools/wordpool_EN.txt	3	1	HOSE	LAWN	HOSE	LAWN	12	[0, 0, 0]	-999	PAL1	1	R1002P
1441.025	0.275	737315	STUDY_ORIENT	n/a	n/a	4	4	SOCK	HOUSE	HOUSE	SOCK	12	[0, 0, 0]	-999	PAL1	1	R1002P
1441.992	4.0	737799	STUDY_PAIR	n/a	wordpools/wordpool_EN.txt	4	4	SOCK	HOUSE	HOUSE	SOCK	12	[0, 0, 0]	-999	PAL1	1	R1002P
1447.026	0.275	740315	STUDY_ORIENT	n/a	n/a	5	5	DUCK	POND	POND	DUCK	12	[0, 0, 0]	-999	PAL1	1	R1002P
1447.943	4.0	740774	STUDY_PAIR	n/a	wordpools/wordpool_EN.txt	5	5	DUCK	POND	POND	DUCK	12	[0, 0, 0]	-999	PAL1	1	R1002P
1452.961	0.275	743283	STUDY_ORIENT	n/a	n/a	6	6	SQUARE	TOOL	TOOL	SQUARE	12	[0, 0, 0]	-999	PAL1	1	R1002P
1453.911	4.0	743758	STUDY_PAIR	n/a	wordpools/wordpool_EN.txt	6	6	SQUARE	TOOL	TOOL	SQUARE	12	[0, 0, 0]	-999	PAL1	1	R1002P
1457.929	0.999	745767	START	n/a	n/a	-999	-999	n/a	n/a	n/a	n/a	12	[-999, -999, -999]	-999	PAL1	1	R1002P
1458.928	0.017	746266	MATH_START	n/a	n/a	-999	-999	n/a	n/a	n/a	n/a	12	[0, 0, 0]	-999	PAL1	1	R1002P
1458.945	4.701	746275	PROB	4.672	n/a	-999	-999	n/a	n/a	n/a	n/a	12	[9, 1, 9]	19	PAL1	1	R1002P
1463.646	4.001	748625	PROB	3.971	n/a	-999	-999	n/a	n/a	n/a	n/a	12	[1, 8, 8]	17	PAL1	1	R1002P
1467.647	4.117	750625	PROB	4.09	n/a	-999	-999	n/a	n/a	n/a	n/a	12	[1, 4, 4]	9	PAL1	1	R1002P
1471.764	4.719	752684	PROB	4.694	n/a	-999	-999	n/a	n/a	n/a	n/a	12	[4, 6, 5]	15	PAL1	1	R1002P
1476.483	3.703	755043	PROB	3.703	n/a	-999	-999	n/a	n/a	n/a	n/a	12	[5, 3, 5]	13	PAL1	1	R1002P
1480.186	0.014	756895	STOP	n/a	n/a	-999	-999	n/a	n/a	n/a	n/a	12	[-999, -999, -999]	-999	PAL1	1	R1002P
1480.2	0.0	756902	MATH_END	n/a	n/a	-999	-999	n/a	n/a	n/a	n/a	12	[0, 0, 0]	-999	PAL1	1	R1002P
1480.2	0.017	756902	TEST_START	n/a	n/a	-999	-999	n/a	n/a	n/a	n/a	12	[0, 0, 0]	-999	PAL1	1	R1002P
1480.217	0.275	756910	TEST_ORIENT	n/a	n/a	3	1	HOSE	LAWN	HOSE	LAWN	12	[0, 0, 0]	-999	PAL1	1	R1002P
1481.151	4.0	757377	TEST_PROBE	n/a	wordpools/wordpool_EN.txt	3	1	HOSE	LAWN	HOSE	LAWN	12	[0, 0, 0]	-999	PAL1	1	R1002P
1481.151	2.101	757377	REC_START	n/a	n/a	3	-999	n/a	LAWN	n/a	n/a	12	[0, 0, 0]	-999	PAL1	1	R1002P
1483.252	2.916	758428	REC_EVENT	2.101	n/a	3	1	HOSE	LAWN	HOSE	LAWN	12	[0, 0, 0]	-999	PAL1	1	R1002P
1486.168	0.017	759885	REC_END	n/a	n/a	3	-999	n/a	n/a	n/a	n/a	12	[0, 0, 0]	-999	PAL1	1	R1002P
1486.185	0.275	759894	TEST_ORIENT	n/a	n/a	2	2	ZOO	FUR	FUR	ZOO	12	[0, 0, 0]	-999	PAL1	1	R1002P
1487.185	4.0	760394	TEST_PROBE	n/a	wordpools/wordpool_EN.txt	2	2	ZOO	FUR	FUR	ZOO	12	[0, 0, 0]	-999	PAL1	1	R1002P
1487.185	0.901	760394	REC_START	n/a	n/a	2	-999	n/a	FUR	n/a	n/a	12	[0, 0, 0]	-999	PAL1	1	R1002P
1488.086	4.116	760844	REC_EVENT	0.901	n/a	2	2	ZOO	FUR	FUR	ZOO	12	[0, 0, 0]	-999	PAL1	1	R1002P
1492.202	0.017	762902	REC_END	n/a	n/a	2	-999	n/a	n/a	n/a	n/a	12	[0, 0, 0]	-999	PAL1	1	R1002P
1492.219	0.275	762911	TEST_ORIENT	n/a	n/a	1	3	STICK	STONE	STICK	STRAW	12	[0, 0, 0]	-999	PAL1	1	R1002P
1493.118	4.0	763360	TEST_PROBE	n/a	wordpools/wordpool_EN.txt	1	3	STICK	STONE	STICK	STRAW	12	[0, 0, 0]	-999	PAL1	1	R1002P
1493.119	2.242	763361	REC_START	n/a	n/a	1	-999	n/a	STONE	n/a	n/a	12	[0, 0, 0]	-999	PAL1	1	R1002P
1495.361	2.767	764482	REC_EVENT	2.242	n/a	1	3	STICK	STONE	STICK	STRAW	12	[0, 0, 0]	-999	PAL1	1	R1002P
1498.128	0.008	765865	REC_END	n/a	n/a	1	-999	n/a	n/a	n/a	n/a	12	[0, 0, 0]	-999	PAL1	1	R1002P
1498.136	0.275	765869	TEST_ORIENT	n/a	n/a	4	4	SOCK	HOUSE	HOUSE	SOCK	12	[0, 0, 0]	-999	PAL1	1	R1002P
1498.92	4.0	766261	TEST_PROBE	n/a	wordpools/wordpool_EN.txt	4	4	SOCK	HOUSE	HOUSE	SOCK	12	[0, 0, 0]	-999	PAL1	1	R1002P
1498.92	1.473	766261	REC_START	n/a	n/a	4	-999	n/a	HOUSE	n/a	n/a	12	[0, 0, 0]	-999	PAL1	1	R1002P
1500.393	3.544	766998	REC_EVENT	1.473	n/a	4	4	SOCK	HOUSE	HOUSE	SOCK	12	[0, 0, 0]	-999	PAL1	1	R1002P
1503.937	0.017	768769	REC_END	n/a	n/a	4	-999	n/a	n/a	n/a	n/a	12	[0, 0, 0]	-999	PAL1	1	R1002P
1503.954	0.275	768778	TEST_ORIENT	n/a	n/a	5	5	DUCK	POND	POND	DUCK	12	[0, 0, 0]	-999	PAL1	1	R1002P
1504.871	4.0	769236	TEST_PROBE	n/a	wordpools/wordpool_EN.txt	5	5	DUCK	POND	POND	DUCK	12	[0, 0, 0]	-999	PAL1	1	R1002P
1504.871	1.813	769236	REC_START	n/a	n/a	5	-999	n/a	POND	n/a	n/a	12	[0, 0, 0]	-999	PAL1	1	R1002P
1506.684	3.204	770143	REC_EVENT	1.813	n/a	5	5	DUCK	POND	POND	DUCK	12	[0, 0, 0]	-999	PAL1	1	R1002P
1509.888	0.017	771745	REC_END	n/a	n/a	5	-999	n/a	n/a	n/a	n/a	12	[0, 0, 0]	-999	PAL1	1	R1002P
1509.905	0.275	771753	TEST_ORIENT	n/a	n/a	6	6	SQUARE	TOOL	TOOL	SQUARE	12	[0, 0, 0]	-999	PAL1	1	R1002P
1510.739	0.0	772170	REC_START	n/a	n/a	6	-999	n/a	TOOL	n/a	n/a	12	[0, 0, 0]	-999	PAL1	1	R1002P
1510.739	4.0	772170	TEST_PROBE	n/a	wordpools/wordpool_EN.txt	6	6	SQUARE	TOOL	TOOL	SQUARE	12	[0, 0, 0]	-999	PAL1	1	R1002P
1513.077	2.679	773339	REC_EVENT	2.338	n/a	6	6	SQUARE	TOOL	TOOL	SQUARE	12	[0, 0, 0]	-999	PAL1	1	R1002P
1515.756	8.582	774679	REC_END	n/a	n/a	6	-999	n/a	n/a	n/a	n/a	12	[0, 0, 0]	-999	PAL1	1	R1002P
1524.338	10.439	778969	ENCODING_START	n/a	n/a	0	-999	n/a	n/a	n/a	n/a	13	[0, 0, 0]	-999	PAL1	1	R1002P
1534.777	0.275	784189	STUDY_ORIENT	n/a	n/a	1	3	STOVE	HOUSE	BATH	STOVE	13	[0, 0, 0]	-999	PAL1	1	R1002P
1535.56	4.0	784580	STUDY_PAIR	n/a	wordpools/wordpool_EN.txt	1	3	STOVE	HOUSE	BATH	STOVE	13	[0, 0, 0]	-999	PAL1	1	R1002P
1540.594	0.275	787097	STUDY_ORIENT	n/a	n/a	2	6	NAIL	ICE	ICE	NAIL	13	[0, 0, 0]	-999	PAL1	1	R1002P
1541.528	4.0	787564	STUDY_PAIR	n/a	wordpools/wordpool_EN.txt	2	6	NAIL	ICE	ICE	NAIL	13	[0, 0, 0]	-999	PAL1	1	R1002P
1546.562	0.275	790081	STUDY_ORIENT	n/a	n/a	3	1	MAP	BEE	MAP	BEE	13	[0, 0, 0]	-999	PAL1	1	R1002P
1547.546	4.0	790573	STUDY_PAIR	n/a	wordpools/wordpool_EN.txt	3	1	MAP	BEE	MAP	BEE	13	[0, 0, 0]	-999	PAL1	1	R1002P
1552.58	0.275	793090	STUDY_ORIENT	n/a	n/a	4	4	FLAG	POOL	FLAG	POOL	13	[0, 0, 0]	-999	PAL1	1	R1002P
1553.564	4.0	793582	STUDY_PAIR	n/a	wordpools/wordpool_EN.txt	4	4	FLAG	POOL	FLAG	POOL	13	[0, 0, 0]	-999	PAL1	1	R1002P
1558.598	0.275	796098	STUDY_ORIENT	n/a	n/a	5	5	TAIL	COUCH	COUCH	TAIL	13	[0, 0, 0]	-999	PAL1	1	R1002P
1559.449	4.0	796524	STUDY_PAIR	n/a	wordpools/wordpool_EN.txt	5	5	TAIL	COUCH	COUCH	TAIL	13	[0, 0, 0]	-999	PAL1	1	R1002P
1564.483	0.275	799041	STUDY_ORIENT	n/a	n/a	6	2	PEN	n/a	PEN	CAGE	13	[0, 0, 0]	-999	PAL1	1	R1002P
1565.467	4.0	799533	STUDY_PAIR	n/a	wordpools/wordpool_EN.txt	6	2	PEN	n/a	PEN	CAGE	13	[0, 0, 0]	-999	PAL1	1	R1002P
1569.485	0.999	801542	START	n/a	n/a	-999	-999	n/a	n/a	n/a	n/a	13	[-999, -999, -999]	-999	PAL1	1	R1002P
1570.484	0.017	802041	MATH_START	n/a	n/a	-999	-999	n/a	n/a	n/a	n/a	13	[0, 0, 0]	-999	PAL1	1	R1002P
1570.501	6.134	802050	PROB	6.108	n/a	-999	-999	n/a	n/a	n/a	n/a	13	[7, 6, 1]	14	PAL1	1	R1002P
1576.635	3.434	805117	PROB	3.414	n/a	-999	-999	n/a	n/a	n/a	n/a	13	[1, 1, 3]	5	PAL1	1	R1002P
1580.069	3.734	806833	PROB	3.7	n/a	-999	-999	n/a	n/a	n/a	n/a	13	[3, 1, 7]	11	PAL1	1	R1002P
1583.803	7.134	808700	PROB	7.134	n/a	-999	-999	n/a	n/a	n/a	n/a	13	[6, 9, 7]	22	PAL1	1	R1002P
1590.937	0.017	812267	STOP	n/a	n/a	-999	-999	n/a	n/a	n/a	n/a	13	[-999, -999, -999]	-999	PAL1	1	R1002P
1590.954	0.0	812276	MATH_END	n/a	n/a	-999	-999	n/a	n/a	n/a	n/a	13	[0, 0, 0]	-999	PAL1	1	R1002P
1590.954	0.017	812276	TEST_START	n/a	n/a	-999	-999	n/a	n/a	n/a	n/a	13	[0, 0, 0]	-999	PAL1	1	R1002P
1590.971	0.275	812284	TEST_ORIENT	n/a	n/a	3	1	MAP	BEE	MAP	BEE	13	[0, 0, 0]	-999	PAL1	1	R1002P
1591.804	4.0	812701	TEST_PROBE	n/a	wordpools/wordpool_EN.txt	3	1	MAP	BEE	MAP	BEE	13	[0, 0, 0]	-999	PAL1	1	R1002P
1591.805	4.395	812701	REC_START	n/a	n/a	3	-999	n/a	BEE	n/a	n/a	13	[0, 0, 0]	-999	PAL1	1	R1002P
1596.2	0.605	814898	REC_EVENT	4.395	n/a	3	1	MAP	BEE	MAP	BEE	13	[0, 0, 0]	-999	PAL1	1	R1002P
1596.805	0.017	815201	REC_END	n/a	n/a	3	-999	n/a	n/a	n/a	n/a	13	[0, 0, 0]	-999	PAL1	1	R1002P
1596.822	0.275	815209	TEST_ORIENT	n/a	n/a	6	2	PEN	n/a	PEN	CAGE	13	[0, 0, 0]	-999	PAL1	1	R1002P
1597.722	0.0	815659	REC_START	n/a	n/a	6	-999	n/a	n/a	n/a	n/a	13	[0, 0, 0]	-999	PAL1	1	R1002P
1597.722	4.0	815659	TEST_PROBE	n/a	wordpools/wordpool_EN.txt	6	2	PEN	n/a	PEN	CAGE	13	[0, 0, 0]	-999	PAL1	1	R1002P
1602.737	0.003	818167	REC_EVENT	5.015	n/a	6	2	PEN	<>	PEN	CAGE	13	[0, 0, 0]	-999	PAL1	1	R1002P
1602.74	0.016	818168	REC_END	n/a	n/a	6	-999	n/a	n/a	n/a	n/a	13	[0, 0, 0]	-999	PAL1	1	R1002P
1602.756	0.275	818176	TEST_ORIENT	n/a	n/a	1	3	STOVE	HOUSE	BATH	STOVE	13	[0, 0, 0]	-999	PAL1	1	R1002P
1603.557	4.0	818577	TEST_PROBE	n/a	wordpools/wordpool_EN.txt	1	3	STOVE	HOUSE	BATH	STOVE	13	[0, 0, 0]	-999	PAL1	1	R1002P
1603.557	1.051	818577	REC_START	n/a	n/a	1	-999	n/a	HOUSE	n/a	n/a	13	[0, 0, 0]	-999	PAL1	1	R1002P
1604.608	1.955	819102	REC_EVENT	1.051	n/a	1	3	STOVE	STOVE	BATH	STOVE	13	[0, 0, 0]	-999	PAL1	1	R1002P
1606.563	2.011	820080	REC_EVENT	3.006	n/a	1	3	STOVE	HOUSE	BATH	STOVE	13	[0, 0, 0]	-999	PAL1	1	R1002P
1608.574	0.017	821085	REC_END	n/a	n/a	1	-999	n/a	n/a	n/a	n/a	13	[0, 0, 0]	-999	PAL1	1	R1002P
1608.591	0.275	821094	TEST_ORIENT	n/a	n/a	4	4	FLAG	POOL	FLAG	POOL	13	[0, 0, 0]	-999	PAL1	1	R1002P
1609.492	4.0	821544	TEST_PROBE	n/a	wordpools/wordpool_EN.txt	4	4	FLAG	POOL	FLAG	POOL	13	[0, 0, 0]	-999	PAL1	1	R1002P
1609.493	2.697	821545	REC_START	n/a	n/a	4	-999	n/a	POOL	n/a	n/a	13	[0, 0, 0]	-999	PAL1	1	R1002P
1612.19	2.319	822893	REC_EVENT	2.697	n/a	4	4	FLAG	POOL	FLAG	POOL	13	[0, 0, 0]	-999	PAL1	1	R1002P
1614.509	0.016	824052	REC_END	n/a	n/a	4	-999	n/a	n/a	n/a	n/a	13	[0, 0, 0]	-999	PAL1	1	R1002P
1614.525	0.275	824060	TEST_ORIENT	n/a	n/a	5	5	TAIL	COUCH	COUCH	TAIL	13	[0, 0, 0]	-999	PAL1	1	R1002P
1615.393	4.0	824494	TEST_PROBE	n/a	wordpools/wordpool_EN.txt	5	5	TAIL	COUCH	COUCH	TAIL	13	[0, 0, 0]	-999	PAL1	1	R1002P
1615.394	1.879	824495	REC_START	n/a	n/a	5	-999	n/a	COUCH	n/a	n/a	13	[0, 0, 0]	-999	PAL1	1	R1002P
1617.273	3.129	825434	REC_EVENT	1.879	n/a	5	5	TAIL	COUCH	COUCH	TAIL	13	[0, 0, 0]	-999	PAL1	1	R1002P
1620.402	0.009	826999	REC_END	n/a	n/a	5	-999	n/a	n/a	n/a	n/a	13	[0, 0, 0]	-999	PAL1	1	R1002P
1620.411	0.275	827003	TEST_ORIENT	n/a	n/a	2	6	NAIL	ICE	ICE	NAIL	13	[0, 0, 0]	-999	PAL1	1	R1002P
1621.311	4.0	827453	TEST_PROBE	n/a	wordpools/wordpool_EN.txt	2	6	NAIL	ICE	ICE	NAIL	13	[0, 0, 0]	-999	PAL1	1	R1002P
1621.312	1.89	827454	REC_START	n/a	n/a	2	-999	n/a	ICE	n/a	n/a	13	[0, 0, 0]	-999	PAL1	1	R1002P
1623.202	3.126	828399	REC_EVENT	1.89	n/a	2	6	NAIL	ICE	ICE	NAIL	13	[0, 0, 0]	-999	PAL1	1	R1002P
1626.328	2.233	829962	REC_END	n/a	n/a	2	-999	n/a	n/a	n/a	n/a	13	[0, 0, 0]	-999	PAL1	1	R1002P
1628.561	10.452	831078	ENCODING_START	n/a	n/a	0	-999	n/a	n/a	n/a	n/a	14	[0, 0, 0]	-999	PAL1	1	R1002P
1639.013	0.275	836304	STUDY_ORIENT	n/a	n/a	1	3	SHRIMP	n/a	SHRIMP	FORT	14	[0, 0, 0]	-999	PAL1	1	R1002P
1639.964	4.0	836779	STUDY_PAIR	n/a	wordpools/wordpool_EN.txt	1	3	SHRIMP	n/a	SHRIMP	FORT	14	[0, 0, 0]	-999	PAL1	1	R1002P
1644.998	0.275	839296	STUDY_ORIENT	n/a	n/a	2	4	WEED	n/a	WEED	SUIT	14	[0, 0, 0]	-999	PAL1	1	R1002P
1645.981	4.0	839788	STUDY_PAIR	n/a	wordpools/wordpool_EN.txt	2	4	WEED	n/a	WEED	SUIT	14	[0, 0, 0]	-999	PAL1	1	R1002P
1650.999	0.275	842297	STUDY_ORIENT	n/a	n/a	3	1	SKI	n/a	RAT	SKI	14	[0, 0, 0]	-999	PAL1	1	R1002P
1651.799	4.0	842696	STUDY_PAIR	n/a	wordpools/wordpool_EN.txt	3	1	SKI	n/a	RAT	SKI	14	[0, 0, 0]	-999	PAL1	1	R1002P
1656.817	0.275	845205	STUDY_ORIENT	n/a	n/a	4	2	FOX	n/a	DOLL	FOX	14	[0, 0, 0]	-999	PAL1	1	R1002P
1657.783	4.0	845688	STUDY_PAIR	n/a	wordpools/wordpool_EN.txt	4	2	FOX	n/a	DOLL	FOX	14	[0, 0, 0]	-999	PAL1	1	R1002P
1662.801	0.275	848197	STUDY_ORIENT	n/a	n/a	5	5	GUARD	n/a	GUARD	BAG	14	[0, 0, 0]	-999	PAL1	1	R1002P
1663.585	4.0	848589	STUDY_PAIR	n/a	wordpools/wordpool_EN.txt	5	5	GUARD	n/a	GUARD	BAG	14	[0, 0, 0]	-999	PAL1	1	R1002P
1668.619	0.275	851106	STUDY_ORIENT	n/a	n/a	6	6	BARN	n/a	SNOW	BARN	14	[0, 0, 0]	-999	PAL1	1	R1002P
1669.569	4.0	851581	STUDY_PAIR	n/a	wordpools/wordpool_EN.txt	6	6	BARN	n/a	SNOW	BARN	14	[0, 0, 0]	-999	PAL1	1	R1002P
1673.57	1.0	853581	START	n/a	n/a	-999	-999	n/a	n/a	n/a	n/a	14	[-999, -999, -999]	-999	PAL1	1	R1002P
1674.57	0.017	854081	MATH_START	n/a	n/a	-999	-999	n/a	n/a	n/a	n/a	14	[0, 0, 0]	-999	PAL1	1	R1002P
1674.587	9.619	854090	PROB	9.599	n/a	-999	-999	n/a	n/a	n/a	n/a	14	[4, 4, 9]	17	PAL1	1	R1002P
1684.206	4.867	858899	PROB	4.843	n/a	-999	-999	n/a	n/a	n/a	n/a	14	[9, 2, 6]	17	PAL1	1	R1002P
1689.073	4.001	861333	PROB	3.968	n/a	-999	-999	n/a	n/a	n/a	n/a	14	[8, 7, 3]	18	PAL1	1	R1002P
1693.074	6.144	863333	PROB	6.144	n/a	-999	-999	n/a	n/a	n/a	n/a	14	[5, 1, 7]	13	PAL1	1	R1002P
1699.218	0.008	866405	STOP	n/a	n/a	-999	-999	n/a	n/a	n/a	n/a	14	[-999, -999, -999]	-999	PAL1	1	R1002P
1699.226	0.0	866409	TEST_START	n/a	n/a	-999	-999	n/a	n/a	n/a	n/a	14	[0, 0, 0]	-999	PAL1	1	R1002P
1699.226	0.017	866409	MATH_END	n/a	n/a	-999	-999	n/a	n/a	n/a	n/a	14	[0, 0, 0]	-999	PAL1	1	R1002P
1699.243	0.275	866417	TEST_ORIENT	n/a	n/a	3	1	SKI	n/a	RAT	SKI	14	[0, 0, 0]	-999	PAL1	1	R1002P
1700.108	4.0	866850	TEST_PROBE	n/a	wordpools/wordpool_EN.txt	3	1	SKI	n/a	RAT	SKI	14	[0, 0, 0]	-999	PAL1	1	R1002P
1700.109	4.998	866850	REC_START	n/a	n/a	3	-999	n/a	n/a	n/a	n/a	14	[0, 0, 0]	-999	PAL1	1	R1002P
1705.107	0.002	869349	REC_EVENT	4.998	n/a	3	1	SKI	<>	RAT	SKI	14	[0, 0, 0]	-999	PAL1	1	R1002P
1705.109	0.017	869350	REC_END	n/a	n/a	3	-999	n/a	n/a	n/a	n/a	14	[0, 0, 0]	-999	PAL1	1	R1002P
1705.126	0.275	869359	TEST_ORIENT	n/a	n/a	4	2	FOX	n/a	DOLL	FOX	14	[0, 0, 0]	-999	PAL1	1	R1002P
1705.96	4.0	869776	TEST_PROBE	n/a	wordpools/wordpool_EN.txt	4	2	FOX	n/a	DOLL	FOX	14	[0, 0, 0]	-999	PAL1	1	R1002P
1705.96	5.015	869776	REC_START	n/a	n/a	4	-999	n/a	n/a	n/a	n/a	14	[0, 0, 0]	-999	PAL1	1	R1002P
1710.975	0.002	872283	REC_EVENT	5.015	n/a	4	2	FOX	<>	DOLL	FOX	14	[0, 0, 0]	-999	PAL1	1	R1002P
1710.977	0.017	872284	REC_END	n/a	n/a	4	-999	n/a	n/a	n/a	n/a	14	[0, 0, 0]	-999	PAL1	1	R1002P
1710.994	0.275	872292	TEST_ORIENT	n/a	n/a	1	3	SHRIMP	n/a	SHRIMP	FORT	14	[0, 0, 0]	-999	PAL1	1	R1002P
1711.844	4.0	872717	TEST_PROBE	n/a	wordpools/wordpool_EN.txt	1	3	SHRIMP	n/a	SHRIMP	FORT	14	[0, 0, 0]	-999	PAL1	1	R1002P
1711.845	5.008	872718	REC_START	n/a	n/a	1	-999	n/a	n/a	n/a	n/a	14	[0, 0, 0]	-999	PAL1	1	R1002P
1716.853	0.001	875222	REC_END	n/a	n/a	1	-999	n/a	n/a	n/a	n/a	14	[0, 0, 0]	-999	PAL1	1	R1002P
1716.854	0.008	875222	REC_EVENT	5.009	n/a	1	3	SHRIMP	<>	SHRIMP	FORT	14	[0, 0, 0]	-999	PAL1	1	R1002P
1716.862	0.275	875226	TEST_ORIENT	n/a	n/a	2	4	WEED	n/a	WEED	SUIT	14	[0, 0, 0]	-999	PAL1	1	R1002P
1717.845	4.0	875718	TEST_PROBE	n/a	wordpools/wordpool_EN.txt	2	4	WEED	n/a	WEED	SUIT	14	[0, 0, 0]	-999	PAL1	1	R1002P
1717.846	5.008	875718	REC_START	n/a	n/a	2	-999	n/a	n/a	n/a	n/a	14	[0, 0, 0]	-999	PAL1	1	R1002P
1722.854	0.001	878222	REC_END	n/a	n/a	2	-999	n/a	n/a	n/a	n/a	14	[0, 0, 0]	-999	PAL1	1	R1002P
1722.855	0.008	878223	REC_EVENT	5.009	n/a	2	4	WEED	<>	WEED	SUIT	14	[0, 0, 0]	-999	PAL1	1	R1002P
1722.863	0.275	878227	TEST_ORIENT	n/a	n/a	5	5	GUARD	n/a	GUARD	BAG	14	[0, 0, 0]	-999	PAL1	1	R1002P
1723.73	4.0	878660	TEST_PROBE	n/a	wordpools/wordpool_EN.txt	5	5	GUARD	n/a	GUARD	BAG	14	[0, 0, 0]	-999	PAL1	1	R1002P
1723.73	5.015	878660	REC_START	n/a	n/a	5	-999	n/a	n/a	n/a	n/a	14	[0, 0, 0]	-999	PAL1	1	R1002P
1728.745	0.002	881167	REC_EVENT	5.015	n/a	5	5	GUARD	<>	GUARD	BAG	14	[0, 0, 0]	-999	PAL1	1	R1002P
1728.747	0.017	881168	REC_END	n/a	n/a	5	-999	n/a	n/a	n/a	n/a	14	[0, 0, 0]	-999	PAL1	1	R1002P
1728.764	0.275	881177	TEST_ORIENT	n/a	n/a	6	6	BARN	n/a	SNOW	BARN	14	[0, 0, 0]	-999	PAL1	1	R1002P
1729.631	4.0	881610	TEST_PROBE	n/a	wordpools/wordpool_EN.txt	6	6	BARN	n/a	SNOW	BARN	14	[0, 0, 0]	-999	PAL1	1	R1002P
1729.632	5.024	881611	REC_START	n/a	n/a	6	-999	n/a	n/a	n/a	n/a	14	[0, 0, 0]	-999	PAL1	1	R1002P
1734.656	0.003	884123	REC_END	n/a	n/a	6	-999	n/a	n/a	n/a	n/a	14	[0, 0, 0]	-999	PAL1	1	R1002P
1734.659	4.495	884124	REC_EVENT	5.027	n/a	6	6	BARN	<>	SNOW	BARN	14	[0, 0, 0]	-999	PAL1	1	R1002P
1739.154	10.447	886372	ENCODING_START	n/a	n/a	0	-999	n/a	n/a	n/a	n/a	15	[0, 0, 0]	-999	PAL1	1	R1002P
1749.601	0.275	891595	STUDY_ORIENT	n/a	n/a	1	3	JUICE	TOY	TOY	JUICE	15	[0, 0, 0]	-999	PAL1	1	R1002P
1750.518	4.0	892053	STUDY_PAIR	n/a	wordpools/wordpool_EN.txt	1	3	JUICE	TOY	TOY	JUICE	15	[0, 0, 0]	-999	PAL1	1	R1002P
1755.536	0.275	894562	STUDY_ORIENT	n/a	n/a	2	2	SPRING	WHALE	WHALE	SPRING	15	[0, 0, 0]	-999	PAL1	1	R1002P
1756.42	4.0	895004	STUDY_PAIR	n/a	wordpools/wordpool_EN.txt	2	2	SPRING	WHALE	WHALE	SPRING	15	[0, 0, 0]	-999	PAL1	1	R1002P
1761.438	0.275	897513	STUDY_ORIENT	n/a	n/a	3	1	CAT	FISH	FISH	CAT	15	[0, 0, 0]	-999	PAL1	1	R1002P
1762.338	4.0	897963	STUDY_PAIR	n/a	wordpools/wordpool_EN.txt	3	1	CAT	FISH	FISH	CAT	15	[0, 0, 0]	-999	PAL1	1	R1002P
1767.356	0.275	900472	STUDY_ORIENT	n/a	n/a	4	6	TRASH	BRICK	BRICK	TRASH	15	[0, 0, 0]	-999	PAL1	1	R1002P
1768.373	4.0	900980	STUDY_PAIR	n/a	wordpools/wordpool_EN.txt	4	6	TRASH	BRICK	BRICK	TRASH	15	[0, 0, 0]	-999	PAL1	1	R1002P
1773.407	0.275	903497	STUDY_ORIENT	n/a	n/a	5	5	BROOM	JAIL	JAIL	BROOM	15	[0, 0, 0]	-999	PAL1	1	R1002P
1774.307	4.0	903947	STUDY_PAIR	n/a	wordpools/wordpool_EN.txt	5	5	BROOM	JAIL	JAIL	BROOM	15	[0, 0, 0]	-999	PAL1	1	R1002P
1779.325	0.275	906456	STUDY_ORIENT	n/a	n/a	6	4	CALF	n/a	CALF	DOOR	15	[0, 0, 0]	-999	PAL1	1	R1002P
1780.342	4.0	906965	STUDY_PAIR	n/a	wordpools/wordpool_EN.txt	6	4	CALF	n/a	CALF	DOOR	15	[0, 0, 0]	-999	PAL1	1	R1002P
1784.36	0.999	908973	START	n/a	n/a	-999	-999	n/a	n/a	n/a	n/a	15	[-999, -999, -999]	-999	PAL1	1	R1002P
1785.359	0.017	909473	MATH_START	n/a	n/a	-999	-999	n/a	n/a	n/a	n/a	15	[0, 0, 0]	-999	PAL1	1	R1002P
1785.376	6.001	909481	PROB	5.978	n/a	-999	-999	n/a	n/a	n/a	n/a	15	[2, 6, 8]	16	PAL1	1	R1002P
1791.377	3.4	912482	PROB	3.368	n/a	-999	-999	n/a	n/a	n/a	n/a	15	[7, 2, 3]	12	PAL1	1	R1002P
1794.777	6.984	914182	PROB	6.952	n/a	-999	-999	n/a	n/a	n/a	n/a	15	[3, 3, 2]	8	PAL1	1	R1002P
1801.761	9.128	917673	PROB	9.128	n/a	-999	-999	n/a	n/a	n/a	n/a	15	[8, 8, 9]	26	PAL1	1	R1002P
1810.889	0.008	922237	STOP	n/a	n/a	-999	-999	n/a	n/a	n/a	n/a	15	[-999, -999, -999]	-999	PAL1	1	R1002P
1810.897	0.0	922241	MATH_END	n/a	n/a	-999	-999	n/a	n/a	n/a	n/a	15	[0, 0, 0]	-999	PAL1	1	R1002P
1810.897	0.016	922241	TEST_START	n/a	n/a	-999	-999	n/a	n/a	n/a	n/a	15	[0, 0, 0]	-999	PAL1	1	R1002P
1810.913	0.275	922249	TEST_ORIENT	n/a	n/a	3	1	CAT	FISH	FISH	CAT	15	[0, 0, 0]	-999	PAL1	1	R1002P
1811.797	4.0	922691	TEST_PROBE	n/a	wordpools/wordpool_EN.txt	3	1	CAT	FISH	FISH	CAT	15	[0, 0, 0]	-999	PAL1	1	R1002P
1811.797	2.036	922691	REC_START	n/a	n/a	3	-999	n/a	FISH	n/a	n/a	15	[0, 0, 0]	-999	PAL1	1	R1002P
1813.833	2.981	923709	REC_EVENT	2.036	n/a	3	1	CAT	FISH	FISH	CAT	15	[0, 0, 0]	-999	PAL1	1	R1002P
1816.814	0.017	925200	REC_END	n/a	n/a	3	-999	n/a	n/a	n/a	n/a	15	[0, 0, 0]	-999	PAL1	1	R1002P
1816.831	0.275	925208	TEST_ORIENT	n/a	n/a	2	2	SPRING	WHALE	WHALE	SPRING	15	[0, 0, 0]	-999	PAL1	1	R1002P
1817.648	0.0	925617	REC_START	n/a	n/a	2	-999	n/a	WHALE	n/a	n/a	15	[0, 0, 0]	-999	PAL1	1	R1002P
1817.648	4.0	925617	TEST_PROBE	n/a	wordpools/wordpool_EN.txt	2	2	SPRING	WHALE	WHALE	SPRING	15	[0, 0, 0]	-999	PAL1	1	R1002P
1819.028	3.637	926307	REC_EVENT	1.38	n/a	2	2	SPRING	WHALE	WHALE	SPRING	15	[0, 0, 0]	-999	PAL1	1	R1002P
1822.665	0.017	928125	REC_END	n/a	n/a	2	-999	n/a	n/a	n/a	n/a	15	[0, 0, 0]	-999	PAL1	1	R1002P
1822.682	0.275	928133	TEST_ORIENT	n/a	n/a	1	3	JUICE	TOY	TOY	JUICE	15	[0, 0, 0]	-999	PAL1	1	R1002P
1823.516	4.0	928550	TEST_PROBE	n/a	wordpools/wordpool_EN.txt	1	3	JUICE	TOY	TOY	JUICE	15	[0, 0, 0]	-999	PAL1	1	R1002P
1823.516	1.706	928550	REC_START	n/a	n/a	1	-999	n/a	TOY	n/a	n/a	15	[0, 0, 0]	-999	PAL1	1	R1002P
1825.222	3.311	929403	REC_EVENT	1.706	n/a	1	3	JUICE	TOY	TOY	JUICE	15	[0, 0, 0]	-999	PAL1	1	R1002P
1828.533	0.017	931059	REC_END	n/a	n/a	1	-999	n/a	n/a	n/a	n/a	15	[0, 0, 0]	-999	PAL1	1	R1002P
1828.55	0.275	931067	TEST_ORIENT	n/a	n/a	6	4	CALF	n/a	CALF	DOOR	15	[0, 0, 0]	-999	PAL1	1	R1002P
1829.351	4.0	931468	TEST_PROBE	n/a	wordpools/wordpool_EN.txt	6	4	CALF	n/a	CALF	DOOR	15	[0, 0, 0]	-999	PAL1	1	R1002P
1829.352	5.027	931468	REC_START	n/a	n/a	6	-999	n/a	n/a	n/a	n/a	15	[0, 0, 0]	-999	PAL1	1	R1002P
1834.379	0.0	933982	REC_END	n/a	n/a	6	-999	n/a	n/a	n/a	n/a	15	[0, 0, 0]	-999	PAL1	1	R1002P
1834.379	0.023	933982	REC_EVENT	5.027	n/a	6	4	CALF	<>	CALF	DOOR	15	[0, 0, 0]	-999	PAL1	1	R1002P
1834.402	0.275	933993	TEST_ORIENT	n/a	n/a	5	5	BROOM	JAIL	JAIL	BROOM	15	[0, 0, 0]	-999	PAL1	1	R1002P
1835.252	4.0	934418	TEST_PROBE	n/a	wordpools/wordpool_EN.txt	5	5	BROOM	JAIL	JAIL	BROOM	15	[0, 0, 0]	-999	PAL1	1	R1002P
1835.253	1.71	934419	REC_START	n/a	n/a	5	-999	n/a	JAIL	n/a	n/a	15	[0, 0, 0]	-999	PAL1	1	R1002P
1836.963	3.301	935274	REC_EVENT	1.71	n/a	5	5	BROOM	JAIL	JAIL	BROOM	15	[0, 0, 0]	-999	PAL1	1	R1002P
1840.264	0.022	936924	REC_END	n/a	n/a	5	-999	n/a	n/a	n/a	n/a	15	[0, 0, 0]	-999	PAL1	1	R1002P
1840.286	0.275	936935	TEST_ORIENT	n/a	n/a	4	6	TRASH	BRICK	BRICK	TRASH	15	[0, 0, 0]	-999	PAL1	1	R1002P
1841.253	4.0	937418	TEST_PROBE	n/a	wordpools/wordpool_EN.txt	4	6	TRASH	BRICK	BRICK	TRASH	15	[0, 0, 0]	-999	PAL1	1	R1002P
1841.254	1.497	937419	REC_START	n/a	n/a	4	-999	n/a	BRICK	n/a	n/a	15	[0, 0, 0]	-999	PAL1	1	R1002P
1842.751	3.514	938167	REC_EVENT	1.497	n/a	4	6	TRASH	BRICK	BRICK	TRASH	15	[0, 0, 0]	-999	PAL1	1	R1002P
1846.265	3.137	939924	REC_END	n/a	n/a	4	-999	n/a	n/a	n/a	n/a	15	[0, 0, 0]	-999	PAL1	1	R1002P
1849.402	10.437	941493	ENCODING_START	n/a	n/a	0	-999	n/a	n/a	n/a	n/a	16	[0, 0, 0]	-999	PAL1	1	R1002P
1859.839	0.275	946711	STUDY_ORIENT	n/a	n/a	1	3	LIP	BOWL	LIP	BOWL	16	[0, 0, 0]	-999	PAL1	1	R1002P
1860.723	4.0	947153	STUDY_PAIR	n/a	wordpools/wordpool_EN.txt	1	3	LIP	BOWL	LIP	BOWL	16	[0, 0, 0]	-999	PAL1	1	R1002P
1865.757	0.275	949670	STUDY_ORIENT	n/a	n/a	2	4	BEAK	NOSE	KEY	BEAK	16	[0, 0, 0]	-999	PAL1	1	R1002P
1866.757	4.0	950170	STUDY_PAIR	n/a	wordpools/wordpool_EN.txt	2	4	BEAK	NOSE	KEY	BEAK	16	[0, 0, 0]	-999	PAL1	1	R1002P
1871.775	0.275	952679	STUDY_ORIENT	n/a	n/a	3	5	WORM	n/a	RIB	WORM	16	[0, 0, 0]	-999	PAL1	1	R1002P
1872.558	4.0	953070	STUDY_PAIR	n/a	wordpools/wordpool_EN.txt	3	5	WORM	n/a	RIB	WORM	16	[0, 0, 0]	-999	PAL1	1	R1002P
1877.576	0.275	955579	STUDY_ORIENT	n/a	n/a	4	2	SEA	SEA	SEA	VEST	16	[0, 0, 0]	-999	PAL1	1	R1002P
1878.494	4.0	956038	STUDY_PAIR	n/a	wordpools/wordpool_EN.txt	4	2	SEA	SEA	SEA	VEST	16	[0, 0, 0]	-999	PAL1	1	R1002P
1883.527	0.275	958554	STUDY_ORIENT	n/a	n/a	5	1	WOLF	n/a	WOLF	BUSH	16	[0, 0, 0]	-999	PAL1	1	R1002P
1884.395	4.0	958988	STUDY_PAIR	n/a	wordpools/wordpool_EN.txt	5	1	WOLF	n/a	WOLF	BUSH	16	[0, 0, 0]	-999	PAL1	1	R1002P
1889.429	0.275	961505	STUDY_ORIENT	n/a	n/a	6	6	SALT	n/a	BLUSH	SALT	16	[0, 0, 0]	-999	PAL1	1	R1002P
1890.38	4.0	961981	STUDY_PAIR	n/a	wordpools/wordpool_EN.txt	6	6	SALT	n/a	BLUSH	SALT	16	[0, 0, 0]	-999	PAL1	1	R1002P
1894.398	0.999	963990	START	n/a	n/a	-999	-999	n/a	n/a	n/a	n/a	16	[-999, -999, -999]	-999	PAL1	1	R1002P
1895.397	0.017	964489	MATH_START	n/a	n/a	-999	-999	n/a	n/a	n/a	n/a	16	[0, 0, 0]	-999	PAL1	1	R1002P
1895.414	3.383	964497	PROB	3.347	n/a	-999	-999	n/a	n/a	n/a	n/a	16	[4, 3, 1]	8	PAL1	1	R1002P
1898.797	7.101	966189	PROB	7.076	n/a	-999	-999	n/a	n/a	n/a	n/a	16	[8, 9, 5]	22	PAL1	1	R1002P
1905.898	4.084	969739	PROB	4.063	n/a	-999	-999	n/a	n/a	n/a	n/a	16	[4, 4, 4]	12	PAL1	1	R1002P
1909.982	3.701	971781	PROB	3.675	n/a	-999	-999	n/a	n/a	n/a	n/a	16	[4, 6, 4]	14	PAL1	1	R1002P
1913.683	5.511	973632	PROB	5.511	n/a	-999	-999	n/a	n/a	n/a	n/a	16	[5, 4, 4]	13	PAL1	1	R1002P
1919.194	0.008	976387	STOP	n/a	n/a	-999	-999	n/a	n/a	n/a	n/a	16	[-999, -999, -999]	-999	PAL1	1	R1002P
1919.202	0.0	976391	MATH_END	n/a	n/a	-999	-999	n/a	n/a	n/a	n/a	16	[0, 0, 0]	-999	PAL1	1	R1002P
1919.202	0.016	976391	TEST_START	n/a	n/a	-999	-999	n/a	n/a	n/a	n/a	16	[0, 0, 0]	-999	PAL1	1	R1002P
1919.218	0.275	976399	TEST_ORIENT	n/a	n/a	5	1	WOLF	n/a	WOLF	BUSH	16	[0, 0, 0]	-999	PAL1	1	R1002P
1920.018	0.0	976799	REC_START	n/a	n/a	5	-999	n/a	n/a	n/a	n/a	16	[0, 0, 0]	-999	PAL1	1	R1002P
1920.018	4.0	976799	TEST_PROBE	n/a	wordpools/wordpool_EN.txt	5	1	WOLF	n/a	WOLF	BUSH	16	[0, 0, 0]	-999	PAL1	1	R1002P
1925.039	0.0	979309	REC_EVENT	5.021	n/a	5	1	WOLF	<>	WOLF	BUSH	16	[0, 0, 0]	-999	PAL1	1	R1002P
1925.039	0.013	979309	REC_END	n/a	n/a	5	-999	n/a	n/a	n/a	n/a	16	[0, 0, 0]	-999	PAL1	1	R1002P
1925.052	0.275	979316	TEST_ORIENT	n/a	n/a	4	2	SEA	SEA	SEA	VEST	16	[0, 0, 0]	-999	PAL1	1	R1002P
1925.968	4.0	979774	TEST_PROBE	n/a	wordpools/wordpool_EN.txt	4	2	SEA	SEA	SEA	VEST	16	[0, 0, 0]	-999	PAL1	1	R1002P
1925.969	0.853	979774	REC_START	n/a	n/a	4	-999	n/a	SEA	n/a	n/a	16	[0, 0, 0]	-999	PAL1	1	R1002P
1926.822	4.158	980201	REC_EVENT	0.853	n/a	4	2	SEA	SEA	SEA	VEST	16	[0, 0, 0]	-999	PAL1	1	R1002P
1930.98	0.023	982280	REC_END	n/a	n/a	4	-999	n/a	n/a	n/a	n/a	16	[0, 0, 0]	-999	PAL1	1	R1002P
1931.003	0.275	982291	TEST_ORIENT	n/a	n/a	1	3	LIP	BOWL	LIP	BOWL	16	[0, 0, 0]	-999	PAL1	1	R1002P
1931.836	4.0	982708	TEST_PROBE	n/a	wordpools/wordpool_EN.txt	1	3	LIP	BOWL	LIP	BOWL	16	[0, 0, 0]	-999	PAL1	1	R1002P
1931.837	1.553	982708	REC_START	n/a	n/a	1	-999	n/a	BOWL	n/a	n/a	16	[0, 0, 0]	-999	PAL1	1	R1002P
1933.39	3.457	983484	REC_EVENT	1.553	n/a	1	3	LIP	BOWL	LIP	BOWL	16	[0, 0, 0]	-999	PAL1	1	R1002P
1936.847	0.024	985213	REC_END	n/a	n/a	1	-999	n/a	n/a	n/a	n/a	16	[0, 0, 0]	-999	PAL1	1	R1002P
1936.871	0.275	985225	TEST_ORIENT	n/a	n/a	2	4	BEAK	NOSE	KEY	BEAK	16	[0, 0, 0]	-999	PAL1	1	R1002P
1937.771	4.0	985675	TEST_PROBE	n/a	wordpools/wordpool_EN.txt	2	4	BEAK	NOSE	KEY	BEAK	16	[0, 0, 0]	-999	PAL1	1	R1002P
1937.772	1.565	985675	REC_START	n/a	n/a	2	-999	n/a	NOSE	n/a	n/a	16	[0, 0, 0]	-999	PAL1	1	R1002P
1939.337	2.109	986458	REC_EVENT	1.565	n/a	2	4	BEAK	BEAK	KEY	BEAK	16	[0, 0, 0]	-999	PAL1	1	R1002P
1941.446	1.342	987512	REC_EVENT	3.674	n/a	2	4	BEAK	NOSE	KEY	BEAK	16	[0, 0, 0]	-999	PAL1	1	R1002P
1942.788	0.017	988183	REC_END	n/a	n/a	2	-999	n/a	n/a	n/a	n/a	16	[0, 0, 0]	-999	PAL1	1	R1002P
1942.805	0.275	988192	TEST_ORIENT	n/a	n/a	3	5	WORM	n/a	RIB	WORM	16	[0, 0, 0]	-999	PAL1	1	R1002P
1943.789	4.0	988684	TEST_PROBE	n/a	wordpools/wordpool_EN.txt	3	5	WORM	n/a	RIB	WORM	16	[0, 0, 0]	-999	PAL1	1	R1002P
1943.789	5.017	988684	REC_START	n/a	n/a	3	-999	n/a	n/a	n/a	n/a	16	[0, 0, 0]	-999	PAL1	1	R1002P
1948.806	0.004	991192	REC_END	n/a	n/a	3	-999	n/a	n/a	n/a	n/a	16	[0, 0, 0]	-999	PAL1	1	R1002P
1948.81	0.013	991194	REC_EVENT	5.021	n/a	3	5	WORM	<>	RIB	WORM	16	[0, 0, 0]	-999	PAL1	1	R1002P
1948.823	0.275	991201	TEST_ORIENT	n/a	n/a	6	6	SALT	n/a	BLUSH	SALT	16	[0, 0, 0]	-999	PAL1	1	R1002P
1949.69	0.0	991634	REC_START	n/a	n/a	6	-999	n/a	n/a	n/a	n/a	16	[0, 0, 0]	-999	PAL1	1	R1002P
1949.69	4.0	991634	TEST_PROBE	n/a	wordpools/wordpool_EN.txt	6	6	SALT	n/a	BLUSH	SALT	16	[0, 0, 0]	-999	PAL1	1	R1002P
1954.705	0.002	994141	REC_EVENT	5.015	n/a	6	6	SALT	<>	BLUSH	SALT	16	[0, 0, 0]	-999	PAL1	1	R1002P
1954.707	2.326	994142	REC_END	n/a	n/a	6	-999	n/a	n/a	n/a	n/a	16	[0, 0, 0]	-999	PAL1	1	R1002P
1957.033	10.445	995305	ENCODING_START	n/a	n/a	0	-999	n/a	n/a	n/a	n/a	17	[0, 0, 0]	-999	PAL1	1	R1002P
1967.478	0.275	1000528	STUDY_ORIENT	n/a	n/a	1	5	BEAN	n/a	PALM	BEAN	17	[0, 0, 0]	-999	PAL1	1	R1002P
1968.361	4.0	1000969	STUDY_PAIR	n/a	wordpools/wordpool_EN.txt	1	5	BEAN	n/a	PALM	BEAN	17	[0, 0, 0]	-999	PAL1	1	R1002P
1973.379	0.275	1003478	STUDY_ORIENT	n/a	n/a	2	4	BEACH	n/a	BEACH	CHEEK	17	[0, 0, 0]	-999	PAL1	1	R1002P
1974.229	4.0	1003903	STUDY_PAIR	n/a	wordpools/wordpool_EN.txt	2	4	BEACH	n/a	BEACH	CHEEK	17	[0, 0, 0]	-999	PAL1	1	R1002P
1979.263	0.275	1006420	STUDY_ORIENT	n/a	n/a	3	3	LAMB	GATE	GATE	LAMB	17	[0, 0, 0]	-999	PAL1	1	R1002P
1980.062	4.0	1006819	STUDY_PAIR	n/a	wordpools/wordpool_EN.txt	3	3	LAMB	GATE	GATE	LAMB	17	[0, 0, 0]	-999	PAL1	1	R1002P
1985.08	0.275	1009328	STUDY_ORIENT	n/a	n/a	4	2	MILK	WALK	STREET	MILK	17	[0, 0, 0]	-999	PAL1	1	R1002P
1985.93	4.0	1009753	STUDY_PAIR	n/a	wordpools/wordpool_EN.txt	4	2	MILK	WALK	STREET	MILK	17	[0, 0, 0]	-999	PAL1	1	R1002P
1990.948	0.275	1012262	STUDY_ORIENT	n/a	n/a	5	1	FOAM	n/a	HILL	FOAM	17	[0, 0, 0]	-999	PAL1	1	R1002P
1991.815	4.0	1012695	STUDY_PAIR	n/a	wordpools/wordpool_EN.txt	5	1	FOAM	n/a	HILL	FOAM	17	[0, 0, 0]	-999	PAL1	1	R1002P
1996.849	0.275	1015212	STUDY_ORIENT	n/a	n/a	6	6	BOOT	n/a	BOOT	TOOTH	17	[0, 0, 0]	-999	PAL1	1	R1002P
1997.716	4.0	1015646	STUDY_PAIR	n/a	wordpools/wordpool_EN.txt	6	6	BOOT	n/a	BOOT	TOOTH	17	[0, 0, 0]	-999	PAL1	1	R1002P
2001.734	0.999	1017655	START	n/a	n/a	-999	-999	n/a	n/a	n/a	n/a	17	[-999, -999, -999]	-999	PAL1	1	R1002P
2002.733	0.017	1018154	MATH_START	n/a	n/a	-999	-999	n/a	n/a	n/a	n/a	17	[0, 0, 0]	-999	PAL1	1	R1002P
2002.75	2.967	1018163	PROB	2.947	n/a	-999	-999	n/a	n/a	n/a	n/a	17	[1, 1, 1]	3	PAL1	1	R1002P
2005.717	5.703	1019646	PROB	5.677	n/a	-999	-999	n/a	n/a	n/a	n/a	17	[6, 7, 2]	15	PAL1	1	R1002P
2011.42	5.2	1022497	PROB	5.165	n/a	-999	-999	n/a	n/a	n/a	n/a	17	[9, 4, 9]	22	PAL1	1	R1002P
2016.62	3.334	1025097	PROB	3.301	n/a	-999	-999	n/a	n/a	n/a	n/a	17	[1, 1, 8]	10	PAL1	1	R1002P
2019.954	4.232	1026764	PROB	4.232	n/a	-999	-999	n/a	n/a	n/a	n/a	17	[9, 2, 1]	12	PAL1	1	R1002P
2024.186	0.002	1028880	STOP	n/a	n/a	-999	-999	n/a	n/a	n/a	n/a	17	[-999, -999, -999]	-999	PAL1	1	R1002P
2024.188	0.0	1028881	MATH_END	n/a	n/a	-999	-999	n/a	n/a	n/a	n/a	17	[0, 0, 0]	-999	PAL1	1	R1002P
2024.188	0.017	1028881	TEST_START	n/a	n/a	-999	-999	n/a	n/a	n/a	n/a	17	[0, 0, 0]	-999	PAL1	1	R1002P
2024.205	0.275	1028890	TEST_ORIENT	n/a	n/a	5	1	FOAM	n/a	HILL	FOAM	17	[0, 0, 0]	-999	PAL1	1	R1002P
2025.239	4.0	1029407	TEST_PROBE	n/a	wordpools/wordpool_EN.txt	5	1	FOAM	n/a	HILL	FOAM	17	[0, 0, 0]	-999	PAL1	1	R1002P
2025.239	5.021	1029407	REC_START	n/a	n/a	5	-999	n/a	n/a	n/a	n/a	17	[0, 0, 0]	-999	PAL1	1	R1002P
2030.26	0.0	1031917	REC_EVENT	5.021	n/a	5	1	FOAM	<>	HILL	FOAM	17	[0, 0, 0]	-999	PAL1	1	R1002P
2030.26	0.013	1031917	REC_END	n/a	n/a	5	-999	n/a	n/a	n/a	n/a	17	[0, 0, 0]	-999	PAL1	1	R1002P
2030.273	0.275	1031923	TEST_ORIENT	n/a	n/a	4	2	MILK	WALK	STREET	MILK	17	[0, 0, 0]	-999	PAL1	1	R1002P
2031.089	4.0	1032331	TEST_PROBE	n/a	wordpools/wordpool_EN.txt	4	2	MILK	WALK	STREET	MILK	17	[0, 0, 0]	-999	PAL1	1	R1002P
2031.09	2.571	1032332	REC_START	n/a	n/a	4	-999	n/a	WALK	n/a	n/a	17	[0, 0, 0]	-999	PAL1	1	R1002P
2033.661	2.445	1033617	REC_EVENT	2.571	n/a	4	2	MILK	WALK	STREET	MILK	17	[0, 0, 0]	-999	PAL1	1	R1002P
2036.106	0.017	1034840	REC_END	n/a	n/a	4	-999	n/a	n/a	n/a	n/a	17	[0, 0, 0]	-999	PAL1	1	R1002P
2036.123	0.275	1034848	TEST_ORIENT	n/a	n/a	3	3	LAMB	GATE	GATE	LAMB	17	[0, 0, 0]	-999	PAL1	1	R1002P
2036.94	4.0	1035257	TEST_PROBE	n/a	wordpools/wordpool_EN.txt	3	3	LAMB	GATE	GATE	LAMB	17	[0, 0, 0]	-999	PAL1	1	R1002P
2036.941	2.204	1035257	REC_START	n/a	n/a	3	-999	n/a	GATE	n/a	n/a	17	[0, 0, 0]	-999	PAL1	1	R1002P
2039.145	2.807	1036359	REC_EVENT	2.204	n/a	3	3	LAMB	GATE	GATE	LAMB	17	[0, 0, 0]	-999	PAL1	1	R1002P
2041.952	0.022	1037763	REC_END	n/a	n/a	3	-999	n/a	n/a	n/a	n/a	17	[0, 0, 0]	-999	PAL1	1	R1002P
2041.974	0.275	1037774	TEST_ORIENT	n/a	n/a	2	4	BEACH	n/a	BEACH	CHEEK	17	[0, 0, 0]	-999	PAL1	1	R1002P
2042.924	4.0	1038249	TEST_PROBE	n/a	wordpools/wordpool_EN.txt	2	4	BEACH	n/a	BEACH	CHEEK	17	[0, 0, 0]	-999	PAL1	1	R1002P
2042.925	4.998	1038249	REC_START	n/a	n/a	2	-999	n/a	n/a	n/a	n/a	17	[0, 0, 0]	-999	PAL1	1	R1002P
2047.923	0.002	1040748	REC_EVENT	4.998	n/a	2	4	BEACH	<>	BEACH	CHEEK	17	[0, 0, 0]	-999	PAL1	1	R1002P
2047.925	0.017	1040749	REC_END	n/a	n/a	2	-999	n/a	n/a	n/a	n/a	17	[0, 0, 0]	-999	PAL1	1	R1002P
2047.942	0.275	1040757	TEST_ORIENT	n/a	n/a	1	5	BEAN	n/a	PALM	BEAN	17	[0, 0, 0]	-999	PAL1	1	R1002P
2048.893	4.0	1041233	TEST_PROBE	n/a	wordpools/wordpool_EN.txt	1	5	BEAN	n/a	PALM	BEAN	17	[0, 0, 0]	-999	PAL1	1	R1002P
2048.893	5.015	1041233	REC_START	n/a	n/a	1	-999	n/a	n/a	n/a	n/a	17	[0, 0, 0]	-999	PAL1	1	R1002P
2053.908	0.002	1043740	REC_EVENT	5.015	n/a	1	5	BEAN	<>	PALM	BEAN	17	[0, 0, 0]	-999	PAL1	1	R1002P
2053.91	0.017	1043741	REC_END	n/a	n/a	1	-999	n/a	n/a	n/a	n/a	17	[0, 0, 0]	-999	PAL1	1	R1002P
2053.927	0.275	1043750	TEST_ORIENT	n/a	n/a	6	6	BOOT	n/a	BOOT	TOOTH	17	[0, 0, 0]	-999	PAL1	1	R1002P
2054.727	4.0	1044150	TEST_PROBE	n/a	wordpools/wordpool_EN.txt	6	6	BOOT	n/a	BOOT	TOOTH	17	[0, 0, 0]	-999	PAL1	1	R1002P
2054.727	2.445	1044150	REC_START	n/a	n/a	6	-999	n/a	n/a	n/a	n/a	17	[0, 0, 0]	-999	PAL1	1	R1002P
2057.172	2.572	1045372	REC_EVENT	2.445	n/a	6	6	BOOT	<>	BOOT	TOOTH	17	[0, 0, 0]	-999	PAL1	1	R1002P
2059.744	48.682	1046658	REC_END	n/a	n/a	6	-999	n/a	n/a	n/a	n/a	17	[0, 0, 0]	-999	PAL1	1	R1002P
2108.426	10.447	1070998	ENCODING_START	n/a	n/a	0	-999	n/a	n/a	n/a	n/a	18	[0, 0, 0]	-999	PAL1	1	R1002P
2118.873	0.275	1076221	STUDY_ORIENT	n/a	n/a	1	5	WORLD	EEL	EEL	WORLD	18	[0, 0, 0]	-999	PAL1	1	R1002P
2119.889	4.0	1076729	STUDY_PAIR	n/a	wordpools/wordpool_EN.txt	1	5	WORLD	EEL	EEL	WORLD	18	[0, 0, 0]	-999	PAL1	1	R1002P
2124.907	0.275	1079238	STUDY_ORIENT	n/a	n/a	2	6	CORD	n/a	CORD	SIGN	18	[0, 0, 0]	-999	PAL1	1	R1002P
2125.907	4.0	1079738	STUDY_PAIR	n/a	wordpools/wordpool_EN.txt	2	6	CORD	n/a	CORD	SIGN	18	[0, 0, 0]	-999	PAL1	1	R1002P
2130.925	0.275	1082247	STUDY_ORIENT	n/a	n/a	3	1	ROOM	BOMB	BOMB	ROOM	18	[0, 0, 0]	-999	PAL1	1	R1002P
2131.909	4.0	1082739	STUDY_PAIR	n/a	wordpools/wordpool_EN.txt	3	1	ROOM	BOMB	BOMB	ROOM	18	[0, 0, 0]	-999	PAL1	1	R1002P
2136.943	0.275	1085256	STUDY_ORIENT	n/a	n/a	4	4	BED	n/a	SEAT	BED	18	[0, 0, 0]	-999	PAL1	1	R1002P
2137.71	4.0	1085639	STUDY_PAIR	n/a	wordpools/wordpool_EN.txt	4	4	BED	n/a	SEAT	BED	18	[0, 0, 0]	-999	PAL1	1	R1002P
2142.744	0.275	1088156	STUDY_ORIENT	n/a	n/a	5	3	HORSE	DITCH	HORSE	DITCH	18	[0, 0, 0]	-999	PAL1	1	R1002P
2143.611	4.0	1088589	STUDY_PAIR	n/a	wordpools/wordpool_EN.txt	5	3	HORSE	DITCH	HORSE	DITCH	18	[0, 0, 0]	-999	PAL1	1	R1002P
2148.645	0.275	1091106	STUDY_ORIENT	n/a	n/a	6	2	ROCK	CUBE	CUBE	ROCK	18	[0, 0, 0]	-999	PAL1	1	R1002P
2149.562	4.0	1091565	STUDY_PAIR	n/a	wordpools/wordpool_EN.txt	6	2	ROCK	CUBE	CUBE	ROCK	18	[0, 0, 0]	-999	PAL1	1	R1002P
2153.58	0.999	1093574	START	n/a	n/a	-999	-999	n/a	n/a	n/a	n/a	18	[-999, -999, -999]	-999	PAL1	1	R1002P
2154.579	0.017	1094073	MATH_START	n/a	n/a	-999	-999	n/a	n/a	n/a	n/a	18	[0, 0, 0]	-999	PAL1	1	R1002P
2154.596	6.134	1094082	PROB	6.101	n/a	-999	-999	n/a	n/a	n/a	n/a	18	[8, 1, 9]	18	PAL1	1	R1002P
2160.73	3.569	1097148	PROB	3.544	n/a	-999	-999	n/a	n/a	n/a	n/a	18	[8, 2, 3]	13	PAL1	1	R1002P
2164.299	5.617	1098933	PROB	5.59	n/a	-999	-999	n/a	n/a	n/a	n/a	18	[8, 4, 8]	18	PAL1	1	R1002P
2169.916	5.446	1101741	PROB	5.446	n/a	-999	-999	n/a	n/a	n/a	n/a	18	[3, 5, 3]	11	PAL1	1	R1002P
2175.362	0.006	1104464	STOP	n/a	n/a	-999	-999	n/a	n/a	n/a	n/a	18	[-999, -999, -999]	-999	PAL1	1	R1002P
2175.368	0.0	1104467	MATH_END	n/a	n/a	-999	-999	n/a	n/a	n/a	n/a	18	[0, 0, 0]	-999	PAL1	1	R1002P
2175.368	0.017	1104467	TEST_START	n/a	n/a	-999	-999	n/a	n/a	n/a	n/a	18	[0, 0, 0]	-999	PAL1	1	R1002P
2175.385	0.275	1104476	TEST_ORIENT	n/a	n/a	3	1	ROOM	BOMB	BOMB	ROOM	18	[0, 0, 0]	-999	PAL1	1	R1002P
2176.185	4.0	1104875	TEST_PROBE	n/a	wordpools/wordpool_EN.txt	3	1	ROOM	BOMB	BOMB	ROOM	18	[0, 0, 0]	-999	PAL1	1	R1002P
2176.185	1.846	1104875	REC_START	n/a	n/a	3	-999	n/a	BOMB	n/a	n/a	18	[0, 0, 0]	-999	PAL1	1	R1002P
2178.031	3.171	1105798	REC_EVENT	1.846	n/a	3	1	ROOM	BOMB	BOMB	ROOM	18	[0, 0, 0]	-999	PAL1	1	R1002P
2181.202	0.017	1107384	REC_END	n/a	n/a	3	-999	n/a	n/a	n/a	n/a	18	[0, 0, 0]	-999	PAL1	1	R1002P
2181.219	0.275	1107392	TEST_ORIENT	n/a	n/a	6	2	ROCK	CUBE	CUBE	ROCK	18	[0, 0, 0]	-999	PAL1	1	R1002P
2182.135	4.0	1107850	TEST_PROBE	n/a	wordpools/wordpool_EN.txt	6	2	ROCK	CUBE	CUBE	ROCK	18	[0, 0, 0]	-999	PAL1	1	R1002P
2182.136	2.024	1107851	REC_START	n/a	n/a	6	-999	n/a	CUBE	n/a	n/a	18	[0, 0, 0]	-999	PAL1	1	R1002P
2184.16	3.003	1108863	REC_EVENT	2.024	n/a	6	2	ROCK	CUBE	CUBE	ROCK	18	[0, 0, 0]	-999	PAL1	1	R1002P
2187.163	0.024	1110364	REC_END	n/a	n/a	6	-999	n/a	n/a	n/a	n/a	18	[0, 0, 0]	-999	PAL1	1	R1002P
2187.187	0.275	1110376	TEST_ORIENT	n/a	n/a	5	3	HORSE	DITCH	HORSE	DITCH	18	[0, 0, 0]	-999	PAL1	1	R1002P
2188.003	4.0	1110784	TEST_PROBE	n/a	wordpools/wordpool_EN.txt	5	3	HORSE	DITCH	HORSE	DITCH	18	[0, 0, 0]	-999	PAL1	1	R1002P
2188.003	1.163	1110784	REC_START	n/a	n/a	5	-999	n/a	DITCH	n/a	n/a	18	[0, 0, 0]	-999	PAL1	1	R1002P
2189.166	3.854	1111366	REC_EVENT	1.163	n/a	5	3	HORSE	DITCH	HORSE	DITCH	18	[0, 0, 0]	-999	PAL1	1	R1002P
2193.02	0.017	1113293	REC_END	n/a	n/a	5	-999	n/a	n/a	n/a	n/a	18	[0, 0, 0]	-999	PAL1	1	R1002P
2193.037	0.275	1113301	TEST_ORIENT	n/a	n/a	4	4	BED	n/a	SEAT	BED	18	[0, 0, 0]	-999	PAL1	1	R1002P
2193.937	4.0	1113751	TEST_PROBE	n/a	wordpools/wordpool_EN.txt	4	4	BED	n/a	SEAT	BED	18	[0, 0, 0]	-999	PAL1	1	R1002P
2193.938	5.01	1113752	REC_START	n/a	n/a	4	-999	n/a	n/a	n/a	n/a	18	[0, 0, 0]	-999	PAL1	1	R1002P
2198.948	0.005	1116256	REC_END	n/a	n/a	4	-999	n/a	n/a	n/a	n/a	18	[0, 0, 0]	-999	PAL1	1	R1002P
2198.953	0.018	1116259	REC_EVENT	5.015	n/a	4	4	BED	<>	SEAT	BED	18	[0, 0, 0]	-999	PAL1	1	R1002P
2198.971	0.275	1116268	TEST_ORIENT	n/a	n/a	1	5	WORLD	EEL	EEL	WORLD	18	[0, 0, 0]	-999	PAL1	1	R1002P
2199.855	4.0	1116710	TEST_PROBE	n/a	wordpools/wordpool_EN.txt	1	5	WORLD	EEL	EEL	WORLD	18	[0, 0, 0]	-999	PAL1	1	R1002P
2199.855	3.606	1116710	REC_START	n/a	n/a	1	-999	n/a	EEL	n/a	n/a	18	[0, 0, 0]	-999	PAL1	1	R1002P
2203.461	1.411	1118513	REC_EVENT	3.606	n/a	1	5	WORLD	EEL	EEL	WORLD	18	[0, 0, 0]	-999	PAL1	1	R1002P
2204.872	0.017	1119218	REC_END	n/a	n/a	1	-999	n/a	n/a	n/a	n/a	18	[0, 0, 0]	-999	PAL1	1	R1002P
2204.889	0.275	1119227	TEST_ORIENT	n/a	n/a	2	6	CORD	n/a	CORD	SIGN	18	[0, 0, 0]	-999	PAL1	1	R1002P
2205.823	0.0	1119694	REC_START	n/a	n/a	2	-999	n/a	n/a	n/a	n/a	18	[0, 0, 0]	-999	PAL1	1	R1002P
2205.823	4.0	1119694	TEST_PROBE	n/a	wordpools/wordpool_EN.txt	2	6	CORD	n/a	CORD	SIGN	18	[0, 0, 0]	-999	PAL1	1	R1002P
2210.838	0.002	1122201	REC_EVENT	5.015	n/a	2	6	CORD	<>	CORD	SIGN	18	[0, 0, 0]	-999	PAL1	1	R1002P
2210.84	4.921	1122202	REC_END	n/a	n/a	2	-999	n/a	n/a	n/a	n/a	18	[0, 0, 0]	-999	PAL1	1	R1002P
2215.761	10.45	1124662	ENCODING_START	n/a	n/a	0	-999	n/a	n/a	n/a	n/a	19	[0, 0, 0]	-999	PAL1	1	R1002P
2226.211	0.275	1129887	STUDY_ORIENT	n/a	n/a	1	-999	n/a	n/a	WHEEL	SAIL	19	[0, 0, 0]	-999	PAL1	1	R1002P
2227.027	4.0	1130295	STUDY_PAIR	n/a	wordpools/wordpool_EN.txt	1	-999	n/a	n/a	WHEEL	SAIL	19	[0, 0, 0]	-999	PAL1	1	R1002P
2232.061	0.275	1132812	STUDY_ORIENT	n/a	n/a	2	-999	n/a	n/a	HOLE	WAND	19	[0, 0, 0]	-999	PAL1	1	R1002P
2232.978	4.0	1133270	STUDY_PAIR	n/a	wordpools/wordpool_EN.txt	2	-999	n/a	n/a	HOLE	WAND	19	[0, 0, 0]	-999	PAL1	1	R1002P
2238.012	0.275	1135787	STUDY_ORIENT	n/a	n/a	3	-999	n/a	n/a	CHIN	DEER	19	[0, 0, 0]	-999	PAL1	1	R1002P
2238.996	4.0	1136279	STUDY_PAIR	n/a	wordpools/wordpool_EN.txt	3	-999	n/a	n/a	CHIN	DEER	19	[0, 0, 0]	-999	PAL1	1	R1002P
2244.03	0.275	1138796	STUDY_ORIENT	n/a	n/a	4	-999	n/a	n/a	NET	POLE	19	[0, 0, 0]	-999	PAL1	1	R1002P
2244.98	4.0	1139271	STUDY_PAIR	n/a	wordpools/wordpool_EN.txt	4	-999	n/a	n/a	NET	POLE	19	[0, 0, 0]	-999	PAL1	1	R1002P
2249.998	0.275	1141780	STUDY_ORIENT	n/a	n/a	5	-999	n/a	n/a	n/a	n/a	19	[0, 0, 0]	-999	PAL1	1	R1002P
