onset	duration	sample	trial_type	response_time	stim_file	serialpos	probepos	probe_word	resp_word	study_1	study_2	list	test	answer	experiment	session	subject
0.0	357.425	23388	SESS_START	n/a	n/a	-999	-999	n/a	n/a	n/a	n/a	-999	[0, 0, 0]	-999	PAL1	1	R1121M
357.425	10.448	202086	STUDY_START	n/a	n/a	-999	-999	n/a	n/a	n/a	n/a	6	[0, 0, 0]	-999	PAL1	1	R1121M
367.873	1.0	207310	STUDY_ORIENT	n/a	n/a	1	1	ROSE	SMOKE	SMOKE	ROSE	6	[0, 0, 0]	-999	PAL1	1	R1121M
368.873	5.018	207810	STUDY_PAIR	n/a	wordpools/wordpool_EN.txt	1	1	ROSE	SMOKE	SMOKE	ROSE	6	[0, 0, 0]	-999	PAL1	1	R1121M
373.891	0.833	210318	STUDY_ORIENT	n/a	n/a	2	2	JET	ROAD	JET	ROAD	6	[0, 0, 0]	-999	PAL1	1	R1121M
374.724	5.018	210735	STUDY_PAIR	n/a	wordpools/wordpool_EN.txt	2	2	JET	ROAD	JET	ROAD	6	[0, 0, 0]	-999	PAL1	1	R1121M
379.742	0.95	213244	STUDY_ORIENT	n/a	n/a	3	5	SPARK	n/a	SPARK	BEAN	6	[0, 0, 0]	-999	PAL1	1	R1121M
380.692	5.018	213719	STUDY_PAIR	n/a	wordpools/wordpool_EN.txt	3	5	SPARK	n/a	SPARK	BEAN	6	[0, 0, 0]	-999	PAL1	1	R1121M
385.71	0.866	216228	STUDY_ORIENT	n/a	n/a	4	4	SHIP	FORT	FORT	SHIP	6	[0, 0, 0]	-999	PAL1	1	R1121M
386.576	5.018	216660	STUDY_PAIR	n/a	wordpools/wordpool_EN.txt	4	4	SHIP	FORT	FORT	SHIP	6	[0, 0, 0]	-999	PAL1	1	R1121M
391.594	1.0	219169	STUDY_ORIENT	n/a	n/a	5	3	MUD	n/a	BEE	MUD	6	[0, 0, 0]	-999	PAL1	1	R1121M
392.594	5.018	219669	STUDY_PAIR	n/a	wordpools/wordpool_EN.txt	5	3	MUD	n/a	BEE	MUD	6	[0, 0, 0]	-999	PAL1	1	R1121M
397.612	0.9	222178	STUDY_ORIENT	n/a	n/a	6	6	TANK	n/a	HOOK	TANK	6	[0, 0, 0]	-999	PAL1	1	R1121M
398.512	4.001	222628	STUDY_PAIR	n/a	wordpools/wordpool_EN.txt	6	6	TANK	n/a	HOOK	TANK	6	[0, 0, 0]	-999	PAL1	1	R1121M
402.513	1.0	224628	START	n/a	n/a	-999	-999	n/a	n/a	n/a	n/a	1	[-999, -999, -999]	-999	PAL1	1	R1121M
403.513	0.017	225128	MATH_START	n/a	n/a	-999	-999	n/a	n/a	n/a	n/a	6	[0, 0, 0]	-999	PAL1	1	R1121M
403.53	7.351	225137	PROB	7319	n/a	-999	-999	n/a	n/a	n/a	n/a	1	[4, 5, 6]	9	PAL1	1	R1121M
410.881	3.218	228812	PROB	3184	n/a	-999	-999	n/a	n/a	n/a	n/a	1	[4, 4, 6]	9	PAL1	1	R1121M
414.099	2.767	230421	PROB	2742	n/a	-999	-999	n/a	n/a	n/a	n/a	1	[6, 7, 3]	9	PAL1	1	R1121M
416.866	2.851	231804	PROB	2831	n/a	-999	-999	n/a	n/a	n/a	n/a	1	[8, 4, 5]	9	PAL1	1	R1121M
419.717	2.6	233230	PROB	2580	n/a	-999	-999	n/a	n/a	n/a	n/a	1	[4, 1, 7]	9	PAL1	1	R1121M
422.317	2.812	234530	PROB	2812	n/a	-999	-999	n/a	n/a	n/a	n/a	1	[4, 3, 9]	9	PAL1	1	R1121M
425.129	0.005	235935	STOP	n/a	n/a	-999	-999	n/a	n/a	n/a	n/a	1	[-999, -999, -999]	-999	PAL1	1	R1121M
425.134	0.0	235938	MATH_END	n/a	n/a	-999	-999	n/a	n/a	n/a	n/a	6	[0, 0, 0]	-999	PAL1	1	R1121M
425.134	0.017	235938	TEST_START	n/a	n/a	-999	-999	n/a	n/a	n/a	n/a	6	[0, 0, 0]	-999	PAL1	1	R1121M
425.151	1.0	235946	TEST_ORIENT	n/a	n/a	1	1	ROSE	SMOKE	SMOKE	ROSE	6	[0, 0, 0]	-999	PAL1	1	R1121M
426.151	0.001	236446	TEST_PROBE	n/a	wordpools/wordpool_EN.txt	1	1	ROSE	SMOKE	SMOKE	ROSE	6	[0, 0, 0]	-999	PAL1	1	R1121M
426.152	1.81	236447	REC_START	n/a	n/a	1	-999	n/a	SMOKE	n/a	n/a	6	[0, 0, 0]	-999	PAL1	1	R1121M
427.962	3.198	237352	REC_EVENT	1810	n/a	1	1	ROSE	SMOKE	SMOKE	ROSE	6	[0, 0, 0]	-999	PAL1	1	R1121M
431.16	0.009	238951	REC_END	n/a	n/a	1	-999	n/a	n/a	n/a	n/a	6	[0, 0, 0]	-999	PAL1	1	R1121M
431.169	0.867	238955	TEST_ORIENT	n/a	n/a	2	2	JET	ROAD	JET	ROAD	6	[0, 0, 0]	-999	PAL1	1	R1121M
432.036	0.0	239389	TEST_PROBE	n/a	wordpools/wordpool_EN.txt	2	2	JET	ROAD	JET	ROAD	6	[0, 0, 0]	-999	PAL1	1	R1121M
432.036	1.653	239389	REC_START	n/a	n/a	2	-999	n/a	ROAD	n/a	n/a	6	[0, 0, 0]	-999	PAL1	1	R1121M
433.689	3.364	240215	REC_EVENT	1653	n/a	2	2	JET	ROAD	JET	ROAD	6	[0, 0, 0]	-999	PAL1	1	R1121M
437.053	0.017	241897	REC_END	n/a	n/a	2	-999	n/a	n/a	n/a	n/a	6	[0, 0, 0]	-999	PAL1	1	R1121M
437.07	0.8	241905	TEST_ORIENT	n/a	n/a	5	3	MUD	n/a	BEE	MUD	6	[0, 0, 0]	-999	PAL1	1	R1121M
437.87	0.001	242305	TEST_PROBE	n/a	wordpools/wordpool_EN.txt	5	3	MUD	n/a	BEE	MUD	6	[0, 0, 0]	-999	PAL1	1	R1121M
437.871	0.0	242306	REC_START	n/a	n/a	5	-999	n/a	<>	n/a	n/a	6	[0, 0, 0]	-999	PAL1	1	R1121M
437.871	5.016	242306	REC_EVENT	0	n/a	5	3	MUD	<>	BEE	MUD	6	[0, 0, 0]	-999	PAL1	1	R1121M
442.887	0.017	244814	REC_END	n/a	n/a	5	-999	n/a	n/a	n/a	n/a	6	[0, 0, 0]	-999	PAL1	1	R1121M
442.904	0.817	244822	TEST_ORIENT	n/a	n/a	4	4	SHIP	FORT	FORT	SHIP	6	[0, 0, 0]	-999	PAL1	1	R1121M
443.721	0.001	245231	TEST_PROBE	n/a	wordpools/wordpool_EN.txt	4	4	SHIP	FORT	FORT	SHIP	6	[0, 0, 0]	-999	PAL1	1	R1121M
443.722	2.953	245231	REC_START	n/a	n/a	4	-999	n/a	FORT	n/a	n/a	6	[0, 0, 0]	-999	PAL1	1	R1121M
446.675	2.055	246708	REC_EVENT	2953	n/a	4	4	SHIP	FORT	FORT	SHIP	6	[0, 0, 0]	-999	PAL1	1	R1121M
448.73	0.009	247735	REC_END	n/a	n/a	4	-999	n/a	n/a	n/a	n/a	6	[0, 0, 0]	-999	PAL1	1	R1121M
448.739	0.983	247739	TEST_ORIENT	n/a	n/a	3	5	SPARK	n/a	SPARK	BEAN	6	[0, 0, 0]	-999	PAL1	1	R1121M
449.722	0.001	248231	TEST_PROBE	n/a	wordpools/wordpool_EN.txt	3	5	SPARK	n/a	SPARK	BEAN	6	[0, 0, 0]	-999	PAL1	1	R1121M
449.723	0.0	248231	REC_START	n/a	n/a	3	-999	n/a	<>	n/a	n/a	6	[0, 0, 0]	-999	PAL1	1	R1121M
449.723	5.007	248231	REC_EVENT	0	n/a	3	5	SPARK	<>	SPARK	BEAN	6	[0, 0, 0]	-999	PAL1	1	R1121M
454.73	0.01	250735	REC_END	n/a	n/a	3	-999	n/a	n/a	n/a	n/a	6	[0, 0, 0]	-999	PAL1	1	R1121M
454.74	0.917	250740	TEST_ORIENT	n/a	n/a	6	6	TANK	n/a	HOOK	TANK	6	[0, 0, 0]	-999	PAL1	1	R1121M
455.657	0.001	251198	TEST_PROBE	n/a	wordpools/wordpool_EN.txt	6	6	TANK	n/a	HOOK	TANK	6	[0, 0, 0]	-999	PAL1	1	R1121M
455.658	0.0	251199	REC_START	n/a	n/a	6	-999	n/a	<>	n/a	n/a	6	[0, 0, 0]	-999	PAL1	1	R1121M
455.658	5.016	251199	REC_EVENT	0	n/a	6	6	TANK	<>	HOOK	TANK	6	[0, 0, 0]	-999	PAL1	1	R1121M
460.674	12.871	253706	REC_END	n/a	n/a	6	-999	n/a	n/a	n/a	n/a	6	[0, 0, 0]	-999	PAL1	1	R1121M
473.545	10.451	260141	STUDY_START	n/a	n/a	-999	-999	n/a	n/a	n/a	n/a	7	[0, 0, 0]	-999	PAL1	1	R1121M
483.996	0.983	265367	STUDY_ORIENT	n/a	n/a	1	1	BOWL	TENT	BOWL	TENT	7	[0, 0, 0]	-999	PAL1	1	R1121M
484.979	5.018	265858	STUDY_PAIR	n/a	wordpools/wordpool_EN.txt	1	1	BOWL	TENT	BOWL	TENT	7	[0, 0, 0]	-999	PAL1	1	R1121M
489.997	0.834	268367	STUDY_ORIENT	n/a	n/a	2	6	BAG	n/a	HOOF	BAG	7	[0, 0, 0]	-999	PAL1	1	R1121M
490.831	5.034	268784	STUDY_PAIR	n/a	wordpools/wordpool_EN.txt	2	6	BAG	n/a	HOOF	BAG	7	[0, 0, 0]	-999	PAL1	1	R1121M
495.865	0.8	271301	STUDY_ORIENT	n/a	n/a	3	3	JAR	n/a	WAND	JAR	7	[0, 0, 0]	-999	PAL1	1	R1121M
496.665	5.018	271701	STUDY_PAIR	n/a	wordpools/wordpool_EN.txt	3	3	JAR	n/a	WAND	JAR	7	[0, 0, 0]	-999	PAL1	1	R1121M
501.683	1.017	274209	STUDY_ORIENT	n/a	n/a	4	2	OWL	n/a	OWL	FILM	7	[0, 0, 0]	-999	PAL1	1	R1121M
502.7	5.034	274718	STUDY_PAIR	n/a	wordpools/wordpool_EN.txt	4	2	OWL	n/a	OWL	FILM	7	[0, 0, 0]	-999	PAL1	1	R1121M
507.734	0.9	277235	STUDY_ORIENT	n/a	n/a	5	5	BOX	n/a	SOUP	BOX	7	[0, 0, 0]	-999	PAL1	1	R1121M
508.634	5.018	277685	STUDY_PAIR	n/a	wordpools/wordpool_EN.txt	5	5	BOX	n/a	SOUP	BOX	7	[0, 0, 0]	-999	PAL1	1	R1121M
513.652	0.783	280193	STUDY_ORIENT	n/a	n/a	6	4	FLUTE	n/a	FLUTE	PIE	7	[0, 0, 0]	-999	PAL1	1	R1121M
514.435	4.002	280585	STUDY_PAIR	n/a	wordpools/wordpool_EN.txt	6	4	FLUTE	n/a	FLUTE	PIE	7	[0, 0, 0]	-999	PAL1	1	R1121M
518.437	0.999	282586	START	n/a	n/a	-999	-999	n/a	n/a	n/a	n/a	2	[-999, -999, -999]	-999	PAL1	1	R1121M
519.436	0.016	283085	MATH_START	n/a	n/a	-999	-999	n/a	n/a	n/a	n/a	7	[0, 0, 0]	-999	PAL1	1	R1121M
519.452	5.602	283093	PROB	5581	n/a	-999	-999	n/a	n/a	n/a	n/a	2	[1, 7, 1]	9	PAL1	1	R1121M
525.054	2.667	285894	PROB	2643	n/a	-999	-999	n/a	n/a	n/a	n/a	2	[6, 1, 6]	9	PAL1	1	R1121M
527.721	2.367	287227	PROB	2344	n/a	-999	-999	n/a	n/a	n/a	n/a	2	[9, 6, 5]	9	PAL1	1	R1121M
530.088	2.534	288411	PROB	2505	n/a	-999	-999	n/a	n/a	n/a	n/a	2	[8, 9, 7]	9	PAL1	1	R1121M
532.622	2.784	289678	PROB	2755	n/a	-999	-999	n/a	n/a	n/a	n/a	2	[6, 1, 8]	9	PAL1	1	R1121M
535.406	2.251	291069	PROB	2219	n/a	-999	-999	n/a	n/a	n/a	n/a	2	[4, 9, 8]	9	PAL1	1	R1121M
537.657	2.784	292195	PROB	2784	n/a	-999	-999	n/a	n/a	n/a	n/a	2	[6, 5, 4]	9	PAL1	1	R1121M
540.441	0.015	293587	STOP	n/a	n/a	-999	-999	n/a	n/a	n/a	n/a	2	[-999, -999, -999]	-999	PAL1	1	R1121M
540.456	0.0	293594	MATH_END	n/a	n/a	-999	-999	n/a	n/a	n/a	n/a	7	[0, 0, 0]	-999	PAL1	1	R1121M
540.456	0.017	293594	TEST_START	n/a	n/a	-999	-999	n/a	n/a	n/a	n/a	7	[0, 0, 0]	-999	PAL1	1	R1121M
540.473	0.951	293603	TEST_ORIENT	n/a	n/a	1	1	BOWL	TENT	BOWL	TENT	7	[0, 0, 0]	-999	PAL1	1	R1121M
541.424	0.0	294078	TEST_PROBE	n/a	wordpools/wordpool_EN.txt	1	1	BOWL	TENT	BOWL	TENT	7	[0, 0, 0]	-999	PAL1	1	R1121M
541.424	2.244	294078	REC_START	n/a	n/a	1	-999	n/a	TENT	n/a	n/a	7	[0, 0, 0]	-999	PAL1	1	R1121M
543.668	2.773	295200	REC_EVENT	2244	n/a	1	1	BOWL	TENT	BOWL	TENT	7	[0, 0, 0]	-999	PAL1	1	R1121M
546.441	0.016	296587	REC_END	n/a	n/a	1	-999	n/a	n/a	n/a	n/a	7	[0, 0, 0]	-999	PAL1	1	R1121M
546.457	0.918	296595	TEST_ORIENT	n/a	n/a	4	2	OWL	n/a	OWL	FILM	7	[0, 0, 0]	-999	PAL1	1	R1121M
547.375	0.001	297053	TEST_PROBE	n/a	wordpools/wordpool_EN.txt	4	2	OWL	n/a	OWL	FILM	7	[0, 0, 0]	-999	PAL1	1	R1121M
547.376	0.0	297054	REC_START	n/a	n/a	4	-999	n/a	<>	n/a	n/a	7	[0, 0, 0]	-999	PAL1	1	R1121M
547.376	5.009	297054	REC_EVENT	0	n/a	4	2	OWL	<>	OWL	FILM	7	[0, 0, 0]	-999	PAL1	1	R1121M
552.385	0.008	299558	REC_END	n/a	n/a	4	-999	n/a	n/a	n/a	n/a	7	[0, 0, 0]	-999	PAL1	1	R1121M
552.393	0.967	299562	TEST_ORIENT	n/a	n/a	3	3	JAR	n/a	WAND	JAR	7	[0, 0, 0]	-999	PAL1	1	R1121M
553.36	0.0	300046	TEST_PROBE	n/a	wordpools/wordpool_EN.txt	3	3	JAR	n/a	WAND	JAR	7	[0, 0, 0]	-999	PAL1	1	R1121M
553.36	0.0	300046	REC_START	n/a	n/a	3	-999	n/a	<>	n/a	n/a	7	[0, 0, 0]	-999	PAL1	1	R1121M
553.36	5.017	300046	REC_EVENT	0	n/a	3	3	JAR	<>	WAND	JAR	7	[0, 0, 0]	-999	PAL1	1	R1121M
558.377	0.017	302554	REC_END	n/a	n/a	3	-999	n/a	n/a	n/a	n/a	7	[0, 0, 0]	-999	PAL1	1	R1121M
558.394	0.933	302563	TEST_ORIENT	n/a	n/a	6	4	FLUTE	n/a	FLUTE	PIE	7	[0, 0, 0]	-999	PAL1	1	R1121M
559.327	0.001	303029	TEST_PROBE	n/a	wordpools/wordpool_EN.txt	6	4	FLUTE	n/a	FLUTE	PIE	7	[0, 0, 0]	-999	PAL1	1	R1121M
559.328	0.0	303030	REC_START	n/a	n/a	6	-999	n/a	<>	n/a	n/a	7	[0, 0, 0]	-999	PAL1	1	R1121M
559.328	5.009	303030	REC_EVENT	0	n/a	6	4	FLUTE	<>	FLUTE	PIE	7	[0, 0, 0]	-999	PAL1	1	R1121M
564.337	0.008	305534	REC_END	n/a	n/a	6	-999	n/a	n/a	n/a	n/a	7	[0, 0, 0]	-999	PAL1	1	R1121M
564.345	0.884	305538	TEST_ORIENT	n/a	n/a	5	5	BOX	n/a	SOUP	BOX	7	[0, 0, 0]	-999	PAL1	1	R1121M
565.229	0.0	305980	TEST_PROBE	n/a	wordpools/wordpool_EN.txt	5	5	BOX	n/a	SOUP	BOX	7	[0, 0, 0]	-999	PAL1	1	R1121M
565.229	0.0	305980	REC_START	n/a	n/a	5	-999	n/a	<>	n/a	n/a	7	[0, 0, 0]	-999	PAL1	1	R1121M
565.229	5.017	305980	REC_EVENT	0	n/a	5	5	BOX	<>	SOUP	BOX	7	[0, 0, 0]	-999	PAL1	1	R1121M
570.246	0.017	308488	REC_END	n/a	n/a	5	-999	n/a	n/a	n/a	n/a	7	[0, 0, 0]	-999	PAL1	1	R1121M
570.263	0.8	308497	TEST_ORIENT	n/a	n/a	2	6	BAG	n/a	HOOF	BAG	7	[0, 0, 0]	-999	PAL1	1	R1121M
571.063	0.001	308897	TEST_PROBE	n/a	wordpools/wordpool_EN.txt	2	6	BAG	n/a	HOOF	BAG	7	[0, 0, 0]	-999	PAL1	1	R1121M
571.064	0.0	308897	REC_START	n/a	n/a	2	-999	n/a	<>	n/a	n/a	7	[0, 0, 0]	-999	PAL1	1	R1121M
571.064	5.008	308897	REC_EVENT	0	n/a	2	6	BAG	<>	HOOF	BAG	7	[0, 0, 0]	-999	PAL1	1	R1121M
576.072	14.369	311401	REC_END	n/a	n/a	2	-999	n/a	n/a	n/a	n/a	7	[0, 0, 0]	-999	PAL1	1	R1121M
590.441	10.445	318585	STUDY_START	n/a	n/a	-999	-999	n/a	n/a	n/a	n/a	8	[0, 0, 0]	-999	PAL1	1	R1121M
600.886	0.8	323807	STUDY_ORIENT	n/a	n/a	1	1	MAP	n/a	MAP	WEB	8	[0, 0, 0]	-999	PAL1	1	R1121M
601.686	5.034	324207	STUDY_PAIR	n/a	wordpools/wordpool_EN.txt	1	1	MAP	n/a	MAP	WEB	8	[0, 0, 0]	-999	PAL1	1	R1121M
606.72	0.884	326724	STUDY_ORIENT	n/a	n/a	2	4	HOSE	n/a	HOSE	WHALE	8	[0, 0, 0]	-999	PAL1	1	R1121M
607.604	5.034	327166	STUDY_PAIR	n/a	wordpools/wordpool_EN.txt	2	4	HOSE	n/a	HOSE	WHALE	8	[0, 0, 0]	-999	PAL1	1	R1121M
612.638	0.833	329682	STUDY_ORIENT	n/a	n/a	3	3	FLAG	n/a	FLAG	CORN	8	[0, 0, 0]	-999	PAL1	1	R1121M
613.471	5.035	330099	STUDY_PAIR	n/a	wordpools/wordpool_EN.txt	3	3	FLAG	n/a	FLAG	CORN	8	[0, 0, 0]	-999	PAL1	1	R1121M
618.506	0.917	332616	STUDY_ORIENT	n/a	n/a	4	2	HAT	n/a	MAT	HAT	8	[0, 0, 0]	-999	PAL1	1	R1121M
619.423	5.033	333075	STUDY_PAIR	n/a	wordpools/wordpool_EN.txt	4	2	HAT	n/a	MAT	HAT	8	[0, 0, 0]	-999	PAL1	1	R1121M
624.456	0.885	335591	STUDY_ORIENT	n/a	n/a	5	5	TEETH	MOUTH	TEETH	HORN	8	[0, 0, 0]	-999	PAL1	1	R1121M
625.341	5.034	336033	STUDY_PAIR	n/a	wordpools/wordpool_EN.txt	5	5	TEETH	MOUTH	TEETH	HORN	8	[0, 0, 0]	-999	PAL1	1	R1121M
630.375	0.917	338550	STUDY_ORIENT	n/a	n/a	6	6	LAWN	n/a	SIGN	LAWN	8	[0, 0, 0]	-999	PAL1	1	R1121M
631.292	4.018	339009	STUDY_PAIR	n/a	wordpools/wordpool_EN.txt	6	6	LAWN	n/a	SIGN	LAWN	8	[0, 0, 0]	-999	PAL1	1	R1121M
635.31	0.999	341017	START	n/a	n/a	-999	-999	n/a	n/a	n/a	n/a	3	[-999, -999, -999]	-999	PAL1	1	R1121M
636.309	0.017	341517	MATH_START	n/a	n/a	-999	-999	n/a	n/a	n/a	n/a	8	[0, 0, 0]	-999	PAL1	1	R1121M
636.326	4.234	341525	PROB	4203	n/a	-999	-999	n/a	n/a	n/a	n/a	3	[5, 9, 5]	9	PAL1	1	R1121M
640.56	1.916	343642	PROB	1888	n/a	-999	-999	n/a	n/a	n/a	n/a	3	[5, 6, 4]	9	PAL1	1	R1121M
642.476	1.852	344600	PROB	1821	n/a	-999	-999	n/a	n/a	n/a	n/a	3	[4, 6, 3]	9	PAL1	1	R1121M
644.328	2.384	345526	PROB	2353	n/a	-999	-999	n/a	n/a	n/a	n/a	3	[1, 2, 9]	9	PAL1	1	R1121M
646.712	1.683	346718	PROB	1657	n/a	-999	-999	n/a	n/a	n/a	n/a	3	[2, 5, 1]	9	PAL1	1	R1121M
648.395	2.034	347559	PROB	2006	n/a	-999	-999	n/a	n/a	n/a	n/a	3	[4, 8, 2]	9	PAL1	1	R1121M
650.429	1.884	348576	PROB	1852	n/a	-999	-999	n/a	n/a	n/a	n/a	3	[3, 8, 9]	9	PAL1	1	R1121M
652.313	1.783	349518	PROB	1760	n/a	-999	-999	n/a	n/a	n/a	n/a	3	[3, 6, 7]	9	PAL1	1	R1121M
654.096	1.953	350410	PROB	1953	n/a	-999	-999	n/a	n/a	n/a	n/a	3	[5, 5, 1]	9	PAL1	1	R1121M
656.049	0.014	351386	STOP	n/a	n/a	-999	-999	n/a	n/a	n/a	n/a	3	[-999, -999, -999]	-999	PAL1	1	R1121M
656.063	0.0	351393	MATH_END	n/a	n/a	-999	-999	n/a	n/a	n/a	n/a	8	[0, 0, 0]	-999	PAL1	1	R1121M
656.063	0.017	351393	TEST_START	n/a	n/a	-999	-999	n/a	n/a	n/a	n/a	8	[0, 0, 0]	-999	PAL1	1	R1121M
656.08	0.884	351402	TEST_ORIENT	n/a	n/a	1	1	MAP	n/a	MAP	WEB	8	[0, 0, 0]	-999	PAL1	1	R1121M
656.964	0.0	351844	TEST_PROBE	n/a	wordpools/wordpool_EN.txt	1	1	MAP	n/a	MAP	WEB	8	[0, 0, 0]	-999	PAL1	1	R1121M
656.964	0.0	351844	REC_START	n/a	n/a	1	-999	n/a	<>	n/a	n/a	8	[0, 0, 0]	-999	PAL1	1	R1121M
656.964	5.017	351844	REC_EVENT	0	n/a	1	1	MAP	<>	MAP	WEB	8	[0, 0, 0]	-999	PAL1	1	R1121M
661.981	0.017	354352	REC_END	n/a	n/a	1	-999	n/a	n/a	n/a	n/a	8	[0, 0, 0]	-999	PAL1	1	R1121M
661.998	0.883	354360	TEST_ORIENT	n/a	n/a	4	2	HAT	n/a	MAT	HAT	8	[0, 0, 0]	-999	PAL1	1	R1121M
662.881	0.001	354802	TEST_PROBE	n/a	wordpools/wordpool_EN.txt	4	2	HAT	n/a	MAT	HAT	8	[0, 0, 0]	-999	PAL1	1	R1121M
662.882	0.0	354802	REC_START	n/a	n/a	4	-999	n/a	<>	n/a	n/a	8	[0, 0, 0]	-999	PAL1	1	R1121M
662.882	5.009	354802	REC_EVENT	0	n/a	4	2	HAT	<>	MAT	HAT	8	[0, 0, 0]	-999	PAL1	1	R1121M
667.891	0.008	357307	REC_END	n/a	n/a	4	-999	n/a	n/a	n/a	n/a	8	[0, 0, 0]	-999	PAL1	1	R1121M
667.899	0.9	357311	TEST_ORIENT	n/a	n/a	3	3	FLAG	n/a	FLAG	CORN	8	[0, 0, 0]	-999	PAL1	1	R1121M
668.799	0.001	357761	TEST_PROBE	n/a	wordpools/wordpool_EN.txt	3	3	FLAG	n/a	FLAG	CORN	8	[0, 0, 0]	-999	PAL1	1	R1121M
668.8	0.0	357761	REC_START	n/a	n/a	3	-999	n/a	<>	n/a	n/a	8	[0, 0, 0]	-999	PAL1	1	R1121M
668.8	5.009	357761	REC_EVENT	0	n/a	3	3	FLAG	<>	FLAG	CORN	8	[0, 0, 0]	-999	PAL1	1	R1121M
673.809	0.008	360265	REC_END	n/a	n/a	3	-999	n/a	n/a	n/a	n/a	8	[0, 0, 0]	-999	PAL1	1	R1121M
673.817	0.866	360269	TEST_ORIENT	n/a	n/a	2	4	HOSE	n/a	HOSE	WHALE	8	[0, 0, 0]	-999	PAL1	1	R1121M
674.683	0.001	360702	TEST_PROBE	n/a	wordpools/wordpool_EN.txt	2	4	HOSE	n/a	HOSE	WHALE	8	[0, 0, 0]	-999	PAL1	1	R1121M
674.684	0.0	360703	REC_START	n/a	n/a	2	-999	n/a	<>	n/a	n/a	8	[0, 0, 0]	-999	PAL1	1	R1121M
674.684	5.009	360703	REC_EVENT	0	n/a	2	4	HOSE	<>	HOSE	WHALE	8	[0, 0, 0]	-999	PAL1	1	R1121M
679.693	0.058	363207	REC_END	n/a	n/a	2	-999	n/a	n/a	n/a	n/a	8	[0, 0, 0]	-999	PAL1	1	R1121M
679.751	0.984	363236	TEST_ORIENT	n/a	n/a	5	5	TEETH	MOUTH	TEETH	HORN	8	[0, 0, 0]	-999	PAL1	1	R1121M
680.735	0.001	363728	TEST_PROBE	n/a	wordpools/wordpool_EN.txt	5	5	TEETH	MOUTH	TEETH	HORN	8	[0, 0, 0]	-999	PAL1	1	R1121M
680.736	3.268	363729	REC_START	n/a	n/a	5	-999	n/a	MOUTH	n/a	n/a	8	[0, 0, 0]	-999	PAL1	1	R1121M
684.004	1.748	365362	REC_EVENT	3268	n/a	5	5	TEETH	MOUTH	TEETH	HORN	8	[0, 0, 0]	-999	PAL1	1	R1121M
685.752	0.017	366236	REC_END	n/a	n/a	5	-999	n/a	n/a	n/a	n/a	8	[0, 0, 0]	-999	PAL1	1	R1121M
685.769	0.867	366245	TEST_ORIENT	n/a	n/a	6	6	LAWN	n/a	SIGN	LAWN	8	[0, 0, 0]	-999	PAL1	1	R1121M
686.636	0.001	366678	TEST_PROBE	n/a	wordpools/wordpool_EN.txt	6	6	LAWN	n/a	SIGN	LAWN	8	[0, 0, 0]	-999	PAL1	1	R1121M
686.637	0.0	366679	REC_START	n/a	n/a	6	-999	n/a	<>	n/a	n/a	8	[0, 0, 0]	-999	PAL1	1	R1121M
686.637	5.009	366679	REC_EVENT	0	n/a	6	6	LAWN	<>	SIGN	LAWN	8	[0, 0, 0]	-999	PAL1	1	R1121M
691.646	26.355	369183	REC_END	n/a	n/a	6	-999	n/a	n/a	n/a	n/a	8	[0, 0, 0]	-999	PAL1	1	R1121M
718.001	10.442	382360	STUDY_START	n/a	n/a	-999	-999	n/a	n/a	n/a	n/a	9	[0, 0, 0]	-999	PAL1	1	R1121M
728.443	0.785	387580	STUDY_ORIENT	n/a	n/a	1	3	DIME	DUCK	DUCK	DIME	9	[0, 0, 0]	-999	PAL1	1	R1121M
729.228	5.034	387973	STUDY_PAIR	n/a	wordpools/wordpool_EN.txt	1	3	DIME	DUCK	DUCK	DIME	9	[0, 0, 0]	-999	PAL1	1	R1121M
734.262	0.917	390489	STUDY_ORIENT	n/a	n/a	2	6	DOLL	n/a	DOLL	GLOVE	9	[0, 0, 0]	-999	PAL1	1	R1121M
735.179	5.018	390948	STUDY_PAIR	n/a	wordpools/wordpool_EN.txt	2	6	DOLL	n/a	DOLL	GLOVE	9	[0, 0, 0]	-999	PAL1	1	R1121M
740.197	0.833	393457	STUDY_ORIENT	n/a	n/a	3	5	BREAD	n/a	BREAD	TOAD	9	[0, 0, 0]	-999	PAL1	1	R1121M
741.03	5.018	393873	STUDY_PAIR	n/a	wordpools/wordpool_EN.txt	3	5	BREAD	n/a	BREAD	TOAD	9	[0, 0, 0]	-999	PAL1	1	R1121M
746.048	0.983	396382	STUDY_ORIENT	n/a	n/a	4	2	PURSE	COIN	PURSE	COIN	9	[0, 0, 0]	-999	PAL1	1	R1121M
747.031	5.018	396873	STUDY_PAIR	n/a	wordpools/wordpool_EN.txt	4	2	PURSE	COIN	PURSE	COIN	9	[0, 0, 0]	-999	PAL1	1	R1121M
752.049	0.851	399382	STUDY_ORIENT	n/a	n/a	5	1	SKI	JUDGE	JUDGE	SKI	9	[0, 0, 0]	-999	PAL1	1	R1121M
752.9	5.034	399808	STUDY_PAIR	n/a	wordpools/wordpool_EN.txt	5	1	SKI	JUDGE	JUDGE	SKI	9	[0, 0, 0]	-999	PAL1	1	R1121M
757.934	0.8	402324	STUDY_ORIENT	n/a	n/a	6	4	GEESE	n/a	GEESE	SPOON	9	[0, 0, 0]	-999	PAL1	1	R1121M
758.734	4.018	402724	STUDY_PAIR	n/a	wordpools/wordpool_EN.txt	6	4	GEESE	n/a	GEESE	SPOON	9	[0, 0, 0]	-999	PAL1	1	R1121M
762.752	0.999	404733	START	n/a	n/a	-999	-999	n/a	n/a	n/a	n/a	4	[-999, -999, -999]	-999	PAL1	1	R1121M
763.751	0.017	405233	MATH_START	n/a	n/a	-999	-999	n/a	n/a	n/a	n/a	9	[0, 0, 0]	-999	PAL1	1	R1121M
763.768	4.734	405241	PROB	4712	n/a	-999	-999	n/a	n/a	n/a	n/a	4	[8, 8, 7]	9	PAL1	1	R1121M
768.502	1.884	407608	PROB	1851	n/a	-999	-999	n/a	n/a	n/a	n/a	4	[1, 7, 2]	9	PAL1	1	R1121M
770.386	1.834	408550	PROB	1799	n/a	-999	-999	n/a	n/a	n/a	n/a	4	[4, 9, 2]	9	PAL1	1	R1121M
772.22	1.883	409467	PROB	1861	n/a	-999	-999	n/a	n/a	n/a	n/a	4	[1, 6, 7]	9	PAL1	1	R1121M
774.103	1.901	410408	PROB	1874	n/a	-999	-999	n/a	n/a	n/a	n/a	4	[3, 1, 3]	9	PAL1	1	R1121M
776.004	2.05	411359	PROB	2021	n/a	-999	-999	n/a	n/a	n/a	n/a	4	[2, 8, 1]	9	PAL1	1	R1121M
778.054	1.967	412384	PROB	1947	n/a	-999	-999	n/a	n/a	n/a	n/a	4	[2, 9, 2]	9	PAL1	1	R1121M
780.021	1.984	413367	PROB	1956	n/a	-999	-999	n/a	n/a	n/a	n/a	4	[5, 1, 5]	9	PAL1	1	R1121M
782.005	1.78	414359	PROB	1780	n/a	-999	-999	n/a	n/a	n/a	n/a	4	[6, 4, 3]	9	PAL1	1	R1121M
783.785	0.004	415249	STOP	n/a	n/a	-999	-999	n/a	n/a	n/a	n/a	4	[-999, -999, -999]	-999	PAL1	1	R1121M
783.789	0.0	415251	MATH_END	n/a	n/a	-999	-999	n/a	n/a	n/a	n/a	9	[0, 0, 0]	-999	PAL1	1	R1121M
783.789	0.016	415251	TEST_START	n/a	n/a	-999	-999	n/a	n/a	n/a	n/a	9	[0, 0, 0]	-999	PAL1	1	R1121M
783.805	0.817	415259	TEST_ORIENT	n/a	n/a	5	1	SKI	JUDGE	JUDGE	SKI	9	[0, 0, 0]	-999	PAL1	1	R1121M
784.622	0.001	415667	TEST_PROBE	n/a	wordpools/wordpool_EN.txt	5	1	SKI	JUDGE	JUDGE	SKI	9	[0, 0, 0]	-999	PAL1	1	R1121M
784.623	2.655	415668	REC_START	n/a	n/a	5	-999	n/a	JUDGE	n/a	n/a	9	[0, 0, 0]	-999	PAL1	1	R1121M
787.278	2.353	416995	REC_EVENT	2655	n/a	5	1	SKI	JUDGE	JUDGE	SKI	9	[0, 0, 0]	-999	PAL1	1	R1121M
789.631	0.009	418172	REC_END	n/a	n/a	5	-999	n/a	n/a	n/a	n/a	9	[0, 0, 0]	-999	PAL1	1	R1121M
789.64	0.8	418176	TEST_ORIENT	n/a	n/a	4	2	PURSE	COIN	PURSE	COIN	9	[0, 0, 0]	-999	PAL1	1	R1121M
790.44	0.001	418576	TEST_PROBE	n/a	wordpools/wordpool_EN.txt	4	2	PURSE	COIN	PURSE	COIN	9	[0, 0, 0]	-999	PAL1	1	R1121M
790.441	1.742	418577	REC_START	n/a	n/a	4	-999	n/a	COIN	n/a	n/a	9	[0, 0, 0]	-999	PAL1	1	R1121M
792.183	3.274	419448	REC_EVENT	1742	n/a	4	2	PURSE	COIN	PURSE	COIN	9	[0, 0, 0]	-999	PAL1	1	R1121M
795.457	0.016	421084	REC_END	n/a	n/a	4	-999	n/a	n/a	n/a	n/a	9	[0, 0, 0]	-999	PAL1	1	R1121M
795.473	0.952	421092	TEST_ORIENT	n/a	n/a	1	3	DIME	DUCK	DUCK	DIME	9	[0, 0, 0]	-999	PAL1	1	R1121M
796.425	0.0	421568	TEST_PROBE	n/a	wordpools/wordpool_EN.txt	1	3	DIME	DUCK	DUCK	DIME	9	[0, 0, 0]	-999	PAL1	1	R1121M
796.425	2.63	421568	REC_START	n/a	n/a	1	-999	n/a	DUCK	n/a	n/a	9	[0, 0, 0]	-999	PAL1	1	R1121M
799.055	2.387	422883	REC_EVENT	2630	n/a	1	3	DIME	DUCK	DUCK	DIME	9	[0, 0, 0]	-999	PAL1	1	R1121M
801.442	0.016	424077	REC_END	n/a	n/a	1	-999	n/a	n/a	n/a	n/a	9	[0, 0, 0]	-999	PAL1	1	R1121M
801.458	0.851	424085	TEST_ORIENT	n/a	n/a	6	4	GEESE	n/a	GEESE	SPOON	9	[0, 0, 0]	-999	PAL1	1	R1121M
802.309	0.001	424510	TEST_PROBE	n/a	wordpools/wordpool_EN.txt	6	4	GEESE	n/a	GEESE	SPOON	9	[0, 0, 0]	-999	PAL1	1	R1121M
802.31	0.0	424511	REC_START	n/a	n/a	6	-999	n/a	<>	n/a	n/a	9	[0, 0, 0]	-999	PAL1	1	R1121M
802.31	5.026	424511	REC_EVENT	0	n/a	6	4	GEESE	<>	GEESE	SPOON	9	[0, 0, 0]	-999	PAL1	1	R1121M
807.336	0.007	427023	REC_END	n/a	n/a	6	-999	n/a	n/a	n/a	n/a	9	[0, 0, 0]	-999	PAL1	1	R1121M
807.343	0.867	427027	TEST_ORIENT	n/a	n/a	3	5	BREAD	n/a	BREAD	TOAD	9	[0, 0, 0]	-999	PAL1	1	R1121M
808.21	0.001	427460	TEST_PROBE	n/a	wordpools/wordpool_EN.txt	3	5	BREAD	n/a	BREAD	TOAD	9	[0, 0, 0]	-999	PAL1	1	R1121M
808.211	0.0	427461	REC_START	n/a	n/a	3	-999	n/a	<>	n/a	n/a	9	[0, 0, 0]	-999	PAL1	1	R1121M
808.211	5.009	427461	REC_EVENT	0	n/a	3	5	BREAD	<>	BREAD	TOAD	9	[0, 0, 0]	-999	PAL1	1	R1121M
813.22	0.008	429965	REC_END	n/a	n/a	3	-999	n/a	n/a	n/a	n/a	9	[0, 0, 0]	-999	PAL1	1	R1121M
813.228	0.8	429969	TEST_ORIENT	n/a	n/a	2	6	DOLL	n/a	DOLL	GLOVE	9	[0, 0, 0]	-999	PAL1	1	R1121M
814.028	0.001	430369	TEST_PROBE	n/a	wordpools/wordpool_EN.txt	2	6	DOLL	n/a	DOLL	GLOVE	9	[0, 0, 0]	-999	PAL1	1	R1121M
814.029	0.0	430370	REC_START	n/a	n/a	2	-999	n/a	<>	n/a	n/a	9	[0, 0, 0]	-999	PAL1	1	R1121M
814.029	5.026	430370	REC_EVENT	0	n/a	2	6	DOLL	<>	DOLL	GLOVE	9	[0, 0, 0]	-999	PAL1	1	R1121M
819.055	17.802	432883	REC_END	n/a	n/a	2	-999	n/a	n/a	n/a	n/a	9	[0, 0, 0]	-999	PAL1	1	R1121M
836.857	10.444	441783	STUDY_START	n/a	n/a	-999	-999	n/a	n/a	n/a	n/a	10	[0, 0, 0]	-999	PAL1	1	R1121M
847.301	0.884	447004	STUDY_ORIENT	n/a	n/a	1	5	BUSH	n/a	BUSH	BALL	10	[0, 0, 0]	-999	PAL1	1	R1121M
848.185	5.034	447446	STUDY_PAIR	n/a	wordpools/wordpool_EN.txt	1	5	BUSH	n/a	BUSH	BALL	10	[0, 0, 0]	-999	PAL1	1	R1121M
853.219	0.834	449963	STUDY_ORIENT	n/a	n/a	2	4	CAVE	n/a	CAVE	BRUSH	10	[0, 0, 0]	-999	PAL1	1	R1121M
854.053	5.034	450380	STUDY_PAIR	n/a	wordpools/wordpool_EN.txt	2	4	CAVE	n/a	CAVE	BRUSH	10	[0, 0, 0]	-999	PAL1	1	R1121M
859.087	0.85	452897	STUDY_ORIENT	n/a	n/a	3	1	MAIL	n/a	MAIL	WOLF	10	[0, 0, 0]	-999	PAL1	1	R1121M
859.937	5.018	453322	STUDY_PAIR	n/a	wordpools/wordpool_EN.txt	3	1	MAIL	n/a	MAIL	WOLF	10	[0, 0, 0]	-999	PAL1	1	R1121M
864.955	1.017	455831	STUDY_ORIENT	n/a	n/a	4	6	MOUSE	n/a	MOUSE	JEEP	10	[0, 0, 0]	-999	PAL1	1	R1121M
865.972	5.034	456339	STUDY_PAIR	n/a	wordpools/wordpool_EN.txt	4	6	MOUSE	n/a	MOUSE	JEEP	10	[0, 0, 0]	-999	PAL1	1	R1121M
871.006	0.8	458856	STUDY_ORIENT	n/a	n/a	5	3	OAR	n/a	RIB	OAR	10	[0, 0, 0]	-999	PAL1	1	R1121M
871.806	5.018	459256	STUDY_PAIR	n/a	wordpools/wordpool_EN.txt	5	3	OAR	n/a	RIB	OAR	10	[0, 0, 0]	-999	PAL1	1	R1121M
876.824	0.967	461765	STUDY_ORIENT	n/a	n/a	6	2	BED	n/a	HEN	BED	10	[0, 0, 0]	-999	PAL1	1	R1121M
877.791	4.018	462248	STUDY_PAIR	n/a	wordpools/wordpool_EN.txt	6	2	BED	n/a	HEN	BED	10	[0, 0, 0]	-999	PAL1	1	R1121M
881.809	0.999	464257	START	n/a	n/a	-999	-999	n/a	n/a	n/a	n/a	5	[-999, -999, -999]	-999	PAL1	1	R1121M
882.808	0.017	464756	MATH_START	n/a	n/a	-999	-999	n/a	n/a	n/a	n/a	10	[0, 0, 0]	-999	PAL1	1	R1121M
882.825	4.134	464765	PROB	4104	n/a	-999	-999	n/a	n/a	n/a	n/a	5	[4, 6, 6]	9	PAL1	1	R1121M
886.959	2.584	466832	PROB	2562	n/a	-999	-999	n/a	n/a	n/a	n/a	5	[7, 5, 5]	9	PAL1	1	R1121M
889.543	2.267	468124	PROB	2234	n/a	-999	-999	n/a	n/a	n/a	n/a	5	[8, 4, 1]	9	PAL1	1	R1121M
891.81	2.101	469257	PROB	2071	n/a	-999	-999	n/a	n/a	n/a	n/a	5	[5, 7, 6]	9	PAL1	1	R1121M
893.911	2.566	470307	PROB	2537	n/a	-999	-999	n/a	n/a	n/a	n/a	5	[4, 8, 9]	9	PAL1	1	R1121M
896.477	2.368	471590	PROB	2348	n/a	-999	-999	n/a	n/a	n/a	n/a	5	[5, 2, 3]	9	PAL1	1	R1121M
898.845	2.2	472774	PROB	2180	n/a	-999	-999	n/a	n/a	n/a	n/a	5	[9, 2, 7]	9	PAL1	1	R1121M
901.045	2.228	473874	PROB	2228	n/a	-999	-999	n/a	n/a	n/a	n/a	5	[2, 3, 3]	9	PAL1	1	R1121M
903.273	0.006	474988	STOP	n/a	n/a	-999	-999	n/a	n/a	n/a	n/a	5	[-999, -999, -999]	-999	PAL1	1	R1121M
903.279	0.0	474991	MATH_END	n/a	n/a	-999	-999	n/a	n/a	n/a	n/a	10	[0, 0, 0]	-999	PAL1	1	R1121M
903.279	0.017	474991	TEST_START	n/a	n/a	-999	-999	n/a	n/a	n/a	n/a	10	[0, 0, 0]	-999	PAL1	1	R1121M
903.296	0.933	475000	TEST_ORIENT	n/a	n/a	3	1	MAIL	n/a	MAIL	WOLF	10	[0, 0, 0]	-999	PAL1	1	R1121M
904.229	0.001	475466	TEST_PROBE	n/a	wordpools/wordpool_EN.txt	3	1	MAIL	n/a	MAIL	WOLF	10	[0, 0, 0]	-999	PAL1	1	R1121M
904.23	0.0	475467	REC_START	n/a	n/a	3	-999	n/a	<>	n/a	n/a	10	[0, 0, 0]	-999	PAL1	1	R1121M
904.23	5.008	475467	REC_EVENT	0	n/a	3	1	MAIL	<>	MAIL	WOLF	10	[0, 0, 0]	-999	PAL1	1	R1121M
909.238	0.009	477970	REC_END	n/a	n/a	3	-999	n/a	n/a	n/a	n/a	10	[0, 0, 0]	-999	PAL1	1	R1121M
909.247	0.834	477975	TEST_ORIENT	n/a	n/a	6	2	BED	n/a	HEN	BED	10	[0, 0, 0]	-999	PAL1	1	R1121M
910.081	0.0	478392	TEST_PROBE	n/a	wordpools/wordpool_EN.txt	6	2	BED	n/a	HEN	BED	10	[0, 0, 0]	-999	PAL1	1	R1121M
910.081	0.0	478392	REC_START	n/a	n/a	6	-999	n/a	<>	n/a	n/a	10	[0, 0, 0]	-999	PAL1	1	R1121M
910.081	5.026	478392	REC_EVENT	0	n/a	6	2	BED	<>	HEN	BED	10	[0, 0, 0]	-999	PAL1	1	R1121M
915.107	0.008	480905	REC_END	n/a	n/a	6	-999	n/a	n/a	n/a	n/a	10	[0, 0, 0]	-999	PAL1	1	R1121M
915.115	0.883	480909	TEST_ORIENT	n/a	n/a	5	3	OAR	n/a	RIB	OAR	10	[0, 0, 0]	-999	PAL1	1	R1121M
915.998	0.001	481350	TEST_PROBE	n/a	wordpools/wordpool_EN.txt	5	3	OAR	n/a	RIB	OAR	10	[0, 0, 0]	-999	PAL1	1	R1121M
915.999	0.0	481351	REC_START	n/a	n/a	5	-999	n/a	<>	n/a	n/a	10	[0, 0, 0]	-999	PAL1	1	R1121M
915.999	5.009	481351	REC_EVENT	0	n/a	5	3	OAR	<>	RIB	OAR	10	[0, 0, 0]	-999	PAL1	1	R1121M
921.008	0.008	483855	REC_END	n/a	n/a	5	-999	n/a	n/a	n/a	n/a	10	[0, 0, 0]	-999	PAL1	1	R1121M
921.016	0.917	483859	TEST_ORIENT	n/a	n/a	2	4	CAVE	n/a	CAVE	BRUSH	10	[0, 0, 0]	-999	PAL1	1	R1121M
921.933	0.0	484317	TEST_PROBE	n/a	wordpools/wordpool_EN.txt	2	4	CAVE	n/a	CAVE	BRUSH	10	[0, 0, 0]	-999	PAL1	1	R1121M
921.933	0.0	484317	REC_START	n/a	n/a	2	-999	n/a	<>	n/a	n/a	10	[0, 0, 0]	-999	PAL1	1	R1121M
921.933	5.017	484317	REC_EVENT	0	n/a	2	4	CAVE	<>	CAVE	BRUSH	10	[0, 0, 0]	-999	PAL1	1	R1121M
926.95	0.017	486826	REC_END	n/a	n/a	2	-999	n/a	n/a	n/a	n/a	10	[0, 0, 0]	-999	PAL1	1	R1121M
926.967	0.867	486834	TEST_ORIENT	n/a	n/a	1	5	BUSH	n/a	BUSH	BALL	10	[0, 0, 0]	-999	PAL1	1	R1121M
927.834	0.001	487268	TEST_PROBE	n/a	wordpools/wordpool_EN.txt	1	5	BUSH	n/a	BUSH	BALL	10	[0, 0, 0]	-999	PAL1	1	R1121M
927.835	0.0	487268	REC_START	n/a	n/a	1	-999	n/a	<>	n/a	n/a	10	[0, 0, 0]	-999	PAL1	1	R1121M
927.835	5.016	487268	REC_EVENT	0	n/a	1	5	BUSH	<>	BUSH	BALL	10	[0, 0, 0]	-999	PAL1	1	R1121M
932.851	0.017	489776	REC_END	n/a	n/a	1	-999	n/a	n/a	n/a	n/a	10	[0, 0, 0]	-999	PAL1	1	R1121M
932.868	0.917	489784	TEST_ORIENT	n/a	n/a	4	6	MOUSE	n/a	MOUSE	JEEP	10	[0, 0, 0]	-999	PAL1	1	R1121M
933.785	0.001	490243	TEST_PROBE	n/a	wordpools/wordpool_EN.txt	4	6	MOUSE	n/a	MOUSE	JEEP	10	[0, 0, 0]	-999	PAL1	1	R1121M
933.786	0.0	490243	REC_START	n/a	n/a	4	-999	n/a	<>	n/a	n/a	10	[0, 0, 0]	-999	PAL1	1	R1121M
933.786	5.009	490243	REC_EVENT	0	n/a	4	6	MOUSE	<>	MOUSE	JEEP	10	[0, 0, 0]	-999	PAL1	1	R1121M
938.795	20.286	492748	REC_END	n/a	n/a	4	-999	n/a	n/a	n/a	n/a	10	[0, 0, 0]	-999	PAL1	1	R1121M
959.081	10.445	502890	STUDY_START	n/a	n/a	-999	-999	n/a	n/a	n/a	n/a	11	[0, 0, 0]	-999	PAL1	1	R1121M
969.526	0.917	508112	STUDY_ORIENT	n/a	n/a	1	5	PLATE	n/a	PLATE	RUG	11	[0, 0, 0]	-999	PAL1	1	R1121M
970.443	5.033	508570	STUDY_PAIR	n/a	wordpools/wordpool_EN.txt	1	5	PLATE	n/a	PLATE	RUG	11	[0, 0, 0]	-999	PAL1	1	R1121M
975.476	0.918	511087	STUDY_ORIENT	n/a	n/a	2	2	BANK	n/a	GRASS	BANK	11	[0, 0, 0]	-999	PAL1	1	R1121M
976.394	5.034	511546	STUDY_PAIR	n/a	wordpools/wordpool_EN.txt	2	2	BANK	n/a	GRASS	BANK	11	[0, 0, 0]	-999	PAL1	1	R1121M
981.428	0.833	514062	STUDY_ORIENT	n/a	n/a	3	3	MOTH	n/a	MOTH	ANT	11	[0, 0, 0]	-999	PAL1	1	R1121M
982.261	5.018	514479	STUDY_PAIR	n/a	wordpools/wordpool_EN.txt	3	3	MOTH	n/a	MOTH	ANT	11	[0, 0, 0]	-999	PAL1	1	R1121M
987.279	0.884	516988	STUDY_ORIENT	n/a	n/a	4	4	FLEA	BRIDGE	BRIDGE	FLEA	11	[0, 0, 0]	-999	PAL1	1	R1121M
988.163	5.034	517430	STUDY_PAIR	n/a	wordpools/wordpool_EN.txt	4	4	FLEA	BRIDGE	BRIDGE	FLEA	11	[0, 0, 0]	-999	PAL1	1	R1121M
993.197	0.983	519946	STUDY_ORIENT	n/a	n/a	5	1	HAND	ARK	ARK	HAND	11	[0, 0, 0]	-999	PAL1	1	R1121M
994.18	5.018	520438	STUDY_PAIR	n/a	wordpools/wordpool_EN.txt	5	1	HAND	ARK	ARK	HAND	11	[0, 0, 0]	-999	PAL1	1	R1121M
999.198	0.884	522947	STUDY_ORIENT	n/a	n/a	6	6	STRAW	n/a	STRAW	PIPE	11	[0, 0, 0]	-999	PAL1	1	R1121M
1000.082	4.018	523389	STUDY_PAIR	n/a	wordpools/wordpool_EN.txt	6	6	STRAW	n/a	STRAW	PIPE	11	[0, 0, 0]	-999	PAL1	1	R1121M
1004.1	0.999	525398	START	n/a	n/a	-999	-999	n/a	n/a	n/a	n/a	6	[-999, -999, -999]	-999	PAL1	1	R1121M
1005.099	0.017	525897	MATH_START	n/a	n/a	-999	-999	n/a	n/a	n/a	n/a	11	[0, 0, 0]	-999	PAL1	1	R1121M
1005.116	4.551	525905	PROB	4525	n/a	-999	-999	n/a	n/a	n/a	n/a	6	[2, 9, 5]	9	PAL1	1	R1121M
1009.667	2.217	528181	PROB	2198	n/a	-999	-999	n/a	n/a	n/a	n/a	6	[8, 3, 2]	9	PAL1	1	R1121M
1011.884	2.251	529289	PROB	2221	n/a	-999	-999	n/a	n/a	n/a	n/a	6	[8, 3, 3]	9	PAL1	1	R1121M
1014.135	2.133	530415	PROB	2106	n/a	-999	-999	n/a	n/a	n/a	n/a	6	[2, 9, 3]	9	PAL1	1	R1121M
1016.268	2.251	531481	PROB	2220	n/a	-999	-999	n/a	n/a	n/a	n/a	6	[3, 4, 2]	9	PAL1	1	R1121M
1018.519	2.05	532606	PROB	2018	n/a	-999	-999	n/a	n/a	n/a	n/a	6	[4, 7, 5]	9	PAL1	1	R1121M
1020.569	2.067	533631	PROB	2048	n/a	-999	-999	n/a	n/a	n/a	n/a	6	[4, 8, 5]	9	PAL1	1	R1121M
1022.636	2.069	534665	PROB	2069	n/a	-999	-999	n/a	n/a	n/a	n/a	6	[6, 9, 3]	9	PAL1	1	R1121M
1024.705	0.015	535699	STOP	n/a	n/a	-999	-999	n/a	n/a	n/a	n/a	6	[-999, -999, -999]	-999	PAL1	1	R1121M
1024.72	0.0	535707	MATH_END	n/a	n/a	-999	-999	n/a	n/a	n/a	n/a	11	[0, 0, 0]	-999	PAL1	1	R1121M
1024.72	0.017	535707	TEST_START	n/a	n/a	-999	-999	n/a	n/a	n/a	n/a	11	[0, 0, 0]	-999	PAL1	1	R1121M
1024.737	1.017	535715	TEST_ORIENT	n/a	n/a	5	1	HAND	ARK	ARK	HAND	11	[0, 0, 0]	-999	PAL1	1	R1121M
1025.754	0.0	536224	TEST_PROBE	n/a	wordpools/wordpool_EN.txt	5	1	HAND	ARK	ARK	HAND	11	[0, 0, 0]	-999	PAL1	1	R1121M
1025.754	1.527	536224	REC_START	n/a	n/a	5	-999	n/a	ARK	n/a	n/a	11	[0, 0, 0]	-999	PAL1	1	R1121M
1027.281	3.498	536987	REC_EVENT	1527	n/a	5	1	HAND	ARK	ARK	HAND	11	[0, 0, 0]	-999	PAL1	1	R1121M
1030.779	0.009	538736	REC_END	n/a	n/a	5	-999	n/a	n/a	n/a	n/a	11	[0, 0, 0]	-999	PAL1	1	R1121M
1030.788	0.817	538740	TEST_ORIENT	n/a	n/a	2	2	BANK	n/a	GRASS	BANK	11	[0, 0, 0]	-999	PAL1	1	R1121M
1031.605	0.0	539149	TEST_PROBE	n/a	wordpools/wordpool_EN.txt	2	2	BANK	n/a	GRASS	BANK	11	[0, 0, 0]	-999	PAL1	1	R1121M
1031.605	0.0	539149	REC_START	n/a	n/a	2	-999	n/a	<>	n/a	n/a	11	[0, 0, 0]	-999	PAL1	1	R1121M
1031.605	5.034	539149	REC_EVENT	0	n/a	2	2	BANK	<>	GRASS	BANK	11	[0, 0, 0]	-999	PAL1	1	R1121M
1036.639	0.017	541666	REC_END	n/a	n/a	2	-999	n/a	n/a	n/a	n/a	11	[0, 0, 0]	-999	PAL1	1	R1121M
1036.656	0.883	541674	TEST_ORIENT	n/a	n/a	3	3	MOTH	n/a	MOTH	ANT	11	[0, 0, 0]	-999	PAL1	1	R1121M
1037.539	0.001	542116	TEST_PROBE	n/a	wordpools/wordpool_EN.txt	3	3	MOTH	n/a	MOTH	ANT	11	[0, 0, 0]	-999	PAL1	1	R1121M
1037.54	0.0	542116	REC_START	n/a	n/a	3	-999	n/a	<>	n/a	n/a	11	[0, 0, 0]	-999	PAL1	1	R1121M
1037.54	5.008	542116	REC_EVENT	0	n/a	3	3	MOTH	<>	MOTH	ANT	11	[0, 0, 0]	-999	PAL1	1	R1121M
1042.548	0.009	544620	REC_END	n/a	n/a	3	-999	n/a	n/a	n/a	n/a	11	[0, 0, 0]	-999	PAL1	1	R1121M
1042.557	0.867	544624	TEST_ORIENT	n/a	n/a	4	4	FLEA	BRIDGE	BRIDGE	FLEA	11	[0, 0, 0]	-999	PAL1	1	R1121M
1043.424	0.0	545058	TEST_PROBE	n/a	wordpools/wordpool_EN.txt	4	4	FLEA	BRIDGE	BRIDGE	FLEA	11	[0, 0, 0]	-999	PAL1	1	R1121M
1043.424	3.489	545058	REC_START	n/a	n/a	4	-999	n/a	BRIDGE	n/a	n/a	11	[0, 0, 0]	-999	PAL1	1	R1121M
1046.913	1.528	546802	REC_EVENT	3489	n/a	4	4	FLEA	BRIDGE	BRIDGE	FLEA	11	[0, 0, 0]	-999	PAL1	1	R1121M
1048.441	0.016	547566	REC_END	n/a	n/a	4	-999	n/a	n/a	n/a	n/a	11	[0, 0, 0]	-999	PAL1	1	R1121M
1048.457	0.818	547574	TEST_ORIENT	n/a	n/a	1	5	PLATE	n/a	PLATE	RUG	11	[0, 0, 0]	-999	PAL1	1	R1121M
1049.275	0.0	547983	TEST_PROBE	n/a	wordpools/wordpool_EN.txt	1	5	PLATE	n/a	PLATE	RUG	11	[0, 0, 0]	-999	PAL1	1	R1121M
1049.275	0.0	547983	REC_START	n/a	n/a	1	-999	n/a	<>	n/a	n/a	11	[0, 0, 0]	-999	PAL1	1	R1121M
1049.275	5.017	547983	REC_EVENT	0	n/a	1	5	PLATE	<>	PLATE	RUG	11	[0, 0, 0]	-999	PAL1	1	R1121M
1054.292	0.017	550491	REC_END	n/a	n/a	1	-999	n/a	n/a	n/a	n/a	11	[0, 0, 0]	-999	PAL1	1	R1121M
1054.309	0.934	550500	TEST_ORIENT	n/a	n/a	6	6	STRAW	n/a	STRAW	PIPE	11	[0, 0, 0]	-999	PAL1	1	R1121M
1055.243	0.0	550967	TEST_PROBE	n/a	wordpools/wordpool_EN.txt	6	6	STRAW	n/a	STRAW	PIPE	11	[0, 0, 0]	-999	PAL1	1	R1121M
1055.243	0.0	550967	REC_START	n/a	n/a	6	-999	n/a	<>	n/a	n/a	11	[0, 0, 0]	-999	PAL1	1	R1121M
1055.243	5.017	550967	REC_EVENT	0	n/a	6	6	STRAW	<>	STRAW	PIPE	11	[0, 0, 0]	-999	PAL1	1	R1121M
1060.26	24.141	553475	REC_END	n/a	n/a	6	-999	n/a	n/a	n/a	n/a	11	[0, 0, 0]	-999	PAL1	1	R1121M
1084.401	10.45	565545	STUDY_START	n/a	n/a	-999	-999	n/a	n/a	n/a	n/a	12	[0, 0, 0]	-999	PAL1	1	R1121M
1094.851	0.883	570769	STUDY_ORIENT	n/a	n/a	1	3	ICE	TOOTH	TOOTH	ICE	12	[0, 0, 0]	-999	PAL1	1	R1121M
1095.734	5.018	571211	STUDY_PAIR	n/a	wordpools/wordpool_EN.txt	1	3	ICE	TOOTH	TOOTH	ICE	12	[0, 0, 0]	-999	PAL1	1	R1121M
1100.752	0.967	573720	STUDY_ORIENT	n/a	n/a	2	6	FOX	n/a	FOX	ROOF	12	[0, 0, 0]	-999	PAL1	1	R1121M
1101.719	5.034	574203	STUDY_PAIR	n/a	wordpools/wordpool_EN.txt	2	6	FOX	n/a	FOX	ROOF	12	[0, 0, 0]	-999	PAL1	1	R1121M
1106.753	0.917	576720	STUDY_ORIENT	n/a	n/a	3	5	BAT	BEAR	BAT	BEAR	12	[0, 0, 0]	-999	PAL1	1	R1121M
1107.67	5.034	577178	STUDY_PAIR	n/a	wordpools/wordpool_EN.txt	3	5	BAT	BEAR	BAT	BEAR	12	[0, 0, 0]	-999	PAL1	1	R1121M
1112.704	0.95	579695	STUDY_ORIENT	n/a	n/a	4	4	DOOR	n/a	DOOR	CLOTH	12	[0, 0, 0]	-999	PAL1	1	R1121M
1113.654	5.018	580170	STUDY_PAIR	n/a	wordpools/wordpool_EN.txt	4	4	DOOR	n/a	DOOR	CLOTH	12	[0, 0, 0]	-999	PAL1	1	R1121M
1118.672	0.933	582679	STUDY_ORIENT	n/a	n/a	5	1	POND	n/a	POND	ROPE	12	[0, 0, 0]	-999	PAL1	1	R1121M
1119.605	5.018	583145	STUDY_PAIR	n/a	wordpools/wordpool_EN.txt	5	1	POND	n/a	POND	ROPE	12	[0, 0, 0]	-999	PAL1	1	R1121M
1124.623	0.95	585654	STUDY_ORIENT	n/a	n/a	6	2	WHEEL	CROWN	CROWN	WHEEL	12	[0, 0, 0]	-999	PAL1	1	R1121M
1125.573	4.001	586129	STUDY_PAIR	n/a	wordpools/wordpool_EN.txt	6	2	WHEEL	CROWN	CROWN	WHEEL	12	[0, 0, 0]	-999	PAL1	1	R1121M
1129.574	1.0	588129	START	n/a	n/a	-999	-999	n/a	n/a	n/a	n/a	7	[-999, -999, -999]	-999	PAL1	1	R1121M
1130.574	0.017	588629	MATH_START	n/a	n/a	-999	-999	n/a	n/a	n/a	n/a	12	[0, 0, 0]	-999	PAL1	1	R1121M
1130.591	4.101	588638	PROB	4082	n/a	-999	-999	n/a	n/a	n/a	n/a	7	[7, 3, 7]	9	PAL1	1	R1121M
1134.692	2.35	590688	PROB	2325	n/a	-999	-999	n/a	n/a	n/a	n/a	7	[6, 4, 3]	9	PAL1	1	R1121M
1137.042	2.184	591863	PROB	2151	n/a	-999	-999	n/a	n/a	n/a	n/a	7	[1, 7, 4]	9	PAL1	1	R1121M
1139.226	2.249	592955	PROB	2222	n/a	-999	-999	n/a	n/a	n/a	n/a	7	[4, 3, 2]	9	PAL1	1	R1121M
1141.475	1.919	594079	PROB	1886	n/a	-999	-999	n/a	n/a	n/a	n/a	7	[1, 5, 2]	9	PAL1	1	R1121M
1143.394	1.85	595039	PROB	1831	n/a	-999	-999	n/a	n/a	n/a	n/a	7	[7, 5, 1]	9	PAL1	1	R1121M
1145.244	1.95	595964	PROB	1917	n/a	-999	-999	n/a	n/a	n/a	n/a	7	[2, 2, 8]	9	PAL1	1	R1121M
1147.194	2.101	596939	PROB	2079	n/a	-999	-999	n/a	n/a	n/a	n/a	7	[5, 3, 7]	9	PAL1	1	R1121M
1149.295	2.53	597989	PROB	2530	n/a	-999	-999	n/a	n/a	n/a	n/a	7	[3, 4, 5]	9	PAL1	1	R1121M
1151.825	0.003	599254	STOP	n/a	n/a	-999	-999	n/a	n/a	n/a	n/a	7	[-999, -999, -999]	-999	PAL1	1	R1121M
1151.828	0.0	599256	MATH_END	n/a	n/a	-999	-999	n/a	n/a	n/a	n/a	12	[0, 0, 0]	-999	PAL1	1	R1121M
1151.828	0.017	599256	TEST_START	n/a	n/a	-999	-999	n/a	n/a	n/a	n/a	12	[0, 0, 0]	-999	PAL1	1	R1121M
1151.845	0.834	599264	TEST_ORIENT	n/a	n/a	5	1	POND	n/a	POND	ROPE	12	[0, 0, 0]	-999	PAL1	1	R1121M
1152.679	0.0	599681	TEST_PROBE	n/a	wordpools/wordpool_EN.txt	5	1	POND	n/a	POND	ROPE	12	[0, 0, 0]	-999	PAL1	1	R1121M
1152.679	0.0	599681	REC_START	n/a	n/a	5	-999	n/a	<>	n/a	n/a	12	[0, 0, 0]	-999	PAL1	1	R1121M
1152.679	5.017	599681	REC_EVENT	0	n/a	5	1	POND	<>	POND	ROPE	12	[0, 0, 0]	-999	PAL1	1	R1121M
1157.696	0.017	602189	REC_END	n/a	n/a	5	-999	n/a	n/a	n/a	n/a	12	[0, 0, 0]	-999	PAL1	1	R1121M
1157.713	1.017	602198	TEST_ORIENT	n/a	n/a	6	2	WHEEL	CROWN	CROWN	WHEEL	12	[0, 0, 0]	-999	PAL1	1	R1121M
1158.73	0.0	602706	TEST_PROBE	n/a	wordpools/wordpool_EN.txt	6	2	WHEEL	CROWN	CROWN	WHEEL	12	[0, 0, 0]	-999	PAL1	1	R1121M
1158.73	1.509	602706	REC_START	n/a	n/a	6	-999	n/a	CROWN	n/a	n/a	12	[0, 0, 0]	-999	PAL1	1	R1121M
1160.239	3.508	603461	REC_EVENT	1509	n/a	6	2	WHEEL	CROWN	CROWN	WHEEL	12	[0, 0, 0]	-999	PAL1	1	R1121M
1163.747	0.017	605215	REC_END	n/a	n/a	6	-999	n/a	n/a	n/a	n/a	12	[0, 0, 0]	-999	PAL1	1	R1121M
1163.764	1.0	605223	TEST_ORIENT	n/a	n/a	1	3	ICE	TOOTH	TOOTH	ICE	12	[0, 0, 0]	-999	PAL1	1	R1121M
1164.764	0.001	605723	TEST_PROBE	n/a	wordpools/wordpool_EN.txt	1	3	ICE	TOOTH	TOOTH	ICE	12	[0, 0, 0]	-999	PAL1	1	R1121M
1164.765	1.95	605724	REC_START	n/a	n/a	1	-999	n/a	TOOTH	n/a	n/a	12	[0, 0, 0]	-999	PAL1	1	R1121M
1166.715	3.059	606698	REC_EVENT	1950	n/a	1	3	ICE	TOOTH	TOOTH	ICE	12	[0, 0, 0]	-999	PAL1	1	R1121M
1169.774	0.008	608228	REC_END	n/a	n/a	1	-999	n/a	n/a	n/a	n/a	12	[0, 0, 0]	-999	PAL1	1	R1121M
1169.782	0.967	608232	TEST_ORIENT	n/a	n/a	4	4	DOOR	n/a	DOOR	CLOTH	12	[0, 0, 0]	-999	PAL1	1	R1121M
1170.749	0.001	608715	TEST_PROBE	n/a	wordpools/wordpool_EN.txt	4	4	DOOR	n/a	DOOR	CLOTH	12	[0, 0, 0]	-999	PAL1	1	R1121M
1170.75	0.0	608716	REC_START	n/a	n/a	4	-999	n/a	<>	n/a	n/a	12	[0, 0, 0]	-999	PAL1	1	R1121M
1170.75	5.016	608716	REC_EVENT	0	n/a	4	4	DOOR	<>	DOOR	CLOTH	12	[0, 0, 0]	-999	PAL1	1	R1121M
1175.766	0.017	611224	REC_END	n/a	n/a	4	-999	n/a	n/a	n/a	n/a	12	[0, 0, 0]	-999	PAL1	1	R1121M
1175.783	0.951	611232	TEST_ORIENT	n/a	n/a	3	5	BAT	BEAR	BAT	BEAR	12	[0, 0, 0]	-999	PAL1	1	R1121M
1176.734	0.0	611708	TEST_PROBE	n/a	wordpools/wordpool_EN.txt	3	5	BAT	BEAR	BAT	BEAR	12	[0, 0, 0]	-999	PAL1	1	R1121M
1176.734	1.744	611708	REC_START	n/a	n/a	3	-999	n/a	BEAR	n/a	n/a	12	[0, 0, 0]	-999	PAL1	1	R1121M
1178.478	3.273	612579	REC_EVENT	1744	n/a	3	5	BAT	BEAR	BAT	BEAR	12	[0, 0, 0]	-999	PAL1	1	R1121M
1181.751	0.017	614216	REC_END	n/a	n/a	3	-999	n/a	n/a	n/a	n/a	12	[0, 0, 0]	-999	PAL1	1	R1121M
1181.768	0.833	614224	TEST_ORIENT	n/a	n/a	2	6	FOX	n/a	FOX	ROOF	12	[0, 0, 0]	-999	PAL1	1	R1121M
1182.601	0.001	614641	TEST_PROBE	n/a	wordpools/wordpool_EN.txt	2	6	FOX	n/a	FOX	ROOF	12	[0, 0, 0]	-999	PAL1	1	R1121M
1182.602	0.0	614641	REC_START	n/a	n/a	2	-999	n/a	<>	n/a	n/a	12	[0, 0, 0]	-999	PAL1	1	R1121M
1182.602	5.009	614641	REC_EVENT	0	n/a	2	6	FOX	<>	FOX	ROOF	12	[0, 0, 0]	-999	PAL1	1	R1121M
1187.611	35.702	617146	REC_END	n/a	n/a	2	-999	n/a	n/a	n/a	n/a	12	[0, 0, 0]	-999	PAL1	1	R1121M
1223.313	10.448	634995	STUDY_START	n/a	n/a	-999	-999	n/a	n/a	n/a	n/a	13	[0, 0, 0]	-999	PAL1	1	R1121M
1233.761	0.834	640219	STUDY_ORIENT	n/a	n/a	1	5	PIT	n/a	CAPE	PIT	13	[0, 0, 0]	-999	PAL1	1	R1121M
1234.595	5.034	640636	STUDY_PAIR	n/a	wordpools/wordpool_EN.txt	1	5	PIT	n/a	CAPE	PIT	13	[0, 0, 0]	-999	PAL1	1	R1121M
1239.629	0.801	643153	STUDY_ORIENT	n/a	n/a	2	2	WORM	n/a	WORM	BLOOM	13	[0, 0, 0]	-999	PAL1	1	R1121M
1240.43	5.033	643553	STUDY_PAIR	n/a	wordpools/wordpool_EN.txt	2	2	WORM	n/a	WORM	BLOOM	13	[0, 0, 0]	-999	PAL1	1	R1121M
1245.463	0.801	646069	STUDY_ORIENT	n/a	n/a	3	3	BADGE	n/a	BADGE	POOL	13	[0, 0, 0]	-999	PAL1	1	R1121M
1246.264	5.034	646470	STUDY_PAIR	n/a	wordpools/wordpool_EN.txt	3	3	BADGE	n/a	BADGE	POOL	13	[0, 0, 0]	-999	PAL1	1	R1121M
1251.298	0.967	648987	STUDY_ORIENT	n/a	n/a	4	6	FUR	STORE	FUR	STORE	13	[0, 0, 0]	-999	PAL1	1	R1121M
1252.265	5.018	649470	STUDY_PAIR	n/a	wordpools/wordpool_EN.txt	4	6	FUR	STORE	FUR	STORE	13	[0, 0, 0]	-999	PAL1	1	R1121M
1257.283	0.817	651979	STUDY_ORIENT	n/a	n/a	5	1	FLAME	n/a	EGG	FLAME	13	[0, 0, 0]	-999	PAL1	1	R1121M
1258.1	5.034	652387	STUDY_PAIR	n/a	wordpools/wordpool_EN.txt	5	1	FLAME	n/a	EGG	FLAME	13	[0, 0, 0]	-999	PAL1	1	R1121M
1263.134	0.85	654904	STUDY_ORIENT	n/a	n/a	6	4	PIG	n/a	PIG	PLANT	13	[0, 0, 0]	-999	PAL1	1	R1121M
1263.984	4.001	655329	STUDY_PAIR	n/a	wordpools/wordpool_EN.txt	6	4	PIG	n/a	PIG	PLANT	13	[0, 0, 0]	-999	PAL1	1	R1121M
1267.985	1.0	657329	START	n/a	n/a	-999	-999	n/a	n/a	n/a	n/a	8	[-999, -999, -999]	-999	PAL1	1	R1121M
1268.985	0.017	657829	MATH_START	n/a	n/a	-999	-999	n/a	n/a	n/a	n/a	13	[0, 0, 0]	-999	PAL1	1	R1121M
1269.002	5.151	657838	PROB	5127	n/a	-999	-999	n/a	n/a	n/a	n/a	8	[1, 2, 3]	9	PAL1	1	R1121M
1274.153	2.084	660413	PROB	2056	n/a	-999	-999	n/a	n/a	n/a	n/a	8	[7, 8, 3]	9	PAL1	1	R1121M
1276.237	2.333	661455	PROB	2300	n/a	-999	-999	n/a	n/a	n/a	n/a	8	[9, 5, 8]	9	PAL1	1	R1121M
1278.57	2.101	662621	PROB	2079	n/a	-999	-999	n/a	n/a	n/a	n/a	8	[9, 6, 5]	9	PAL1	1	R1121M
1280.671	2.684	663672	PROB	2658	n/a	-999	-999	n/a	n/a	n/a	n/a	8	[1, 5, 4]	9	PAL1	1	R1121M
1283.355	2.067	665014	PROB	2046	n/a	-999	-999	n/a	n/a	n/a	n/a	8	[6, 1, 5]	9	PAL1	1	R1121M
1285.422	2.217	666047	PROB	2195	n/a	-999	-999	n/a	n/a	n/a	n/a	8	[8, 1, 2]	9	PAL1	1	R1121M
1287.639	2.346	667156	PROB	2346	n/a	-999	-999	n/a	n/a	n/a	n/a	8	[5, 1, 1]	9	PAL1	1	R1121M
1289.985	0.004	668328	STOP	n/a	n/a	-999	-999	n/a	n/a	n/a	n/a	8	[-999, -999, -999]	-999	PAL1	1	R1121M
1289.989	0.0	668330	MATH_END	n/a	n/a	-999	-999	n/a	n/a	n/a	n/a	13	[0, 0, 0]	-999	PAL1	1	R1121M
1289.989	0.017	668330	TEST_START	n/a	n/a	-999	-999	n/a	n/a	n/a	n/a	13	[0, 0, 0]	-999	PAL1	1	R1121M
1290.006	0.9	668339	TEST_ORIENT	n/a	n/a	5	1	FLAME	n/a	EGG	FLAME	13	[0, 0, 0]	-999	PAL1	1	R1121M
1290.906	0.001	668789	TEST_PROBE	n/a	wordpools/wordpool_EN.txt	5	1	FLAME	n/a	EGG	FLAME	13	[0, 0, 0]	-999	PAL1	1	R1121M
1290.907	0.0	668789	REC_START	n/a	n/a	5	-999	n/a	<>	n/a	n/a	13	[0, 0, 0]	-999	PAL1	1	R1121M
1290.907	5.009	668789	REC_EVENT	0	n/a	5	1	FLAME	<>	EGG	FLAME	13	[0, 0, 0]	-999	PAL1	1	R1121M
1295.916	0.008	671294	REC_END	n/a	n/a	5	-999	n/a	n/a	n/a	n/a	13	[0, 0, 0]	-999	PAL1	1	R1121M
1295.924	1.0	671298	TEST_ORIENT	n/a	n/a	2	2	WORM	n/a	WORM	BLOOM	13	[0, 0, 0]	-999	PAL1	1	R1121M
1296.924	0.001	671798	TEST_PROBE	n/a	wordpools/wordpool_EN.txt	2	2	WORM	n/a	WORM	BLOOM	13	[0, 0, 0]	-999	PAL1	1	R1121M
1296.925	0.0	671798	REC_START	n/a	n/a	2	-999	n/a	<>	n/a	n/a	13	[0, 0, 0]	-999	PAL1	1	R1121M
1296.925	5.026	671798	REC_EVENT	0	n/a	2	2	WORM	<>	WORM	BLOOM	13	[0, 0, 0]	-999	PAL1	1	R1121M
1301.951	0.008	674311	REC_END	n/a	n/a	2	-999	n/a	n/a	n/a	n/a	13	[0, 0, 0]	-999	PAL1	1	R1121M
1301.959	0.966	674315	TEST_ORIENT	n/a	n/a	3	3	BADGE	n/a	BADGE	POOL	13	[0, 0, 0]	-999	PAL1	1	R1121M
1302.925	0.001	674798	TEST_PROBE	n/a	wordpools/wordpool_EN.txt	3	3	BADGE	n/a	BADGE	POOL	13	[0, 0, 0]	-999	PAL1	1	R1121M
1302.926	0.0	674798	REC_START	n/a	n/a	3	-999	n/a	<>	n/a	n/a	13	[0, 0, 0]	-999	PAL1	1	R1121M
1302.926	5.008	674798	REC_EVENT	0	n/a	3	3	BADGE	<>	BADGE	POOL	13	[0, 0, 0]	-999	PAL1	1	R1121M
1307.934	0.009	677302	REC_END	n/a	n/a	3	-999	n/a	n/a	n/a	n/a	13	[0, 0, 0]	-999	PAL1	1	R1121M
1307.943	0.983	677307	TEST_ORIENT	n/a	n/a	6	4	PIG	n/a	PIG	PLANT	13	[0, 0, 0]	-999	PAL1	1	R1121M
1308.926	0.001	677798	TEST_PROBE	n/a	wordpools/wordpool_EN.txt	6	4	PIG	n/a	PIG	PLANT	13	[0, 0, 0]	-999	PAL1	1	R1121M
1308.927	0.0	677799	REC_START	n/a	n/a	6	-999	n/a	<>	n/a	n/a	13	[0, 0, 0]	-999	PAL1	1	R1121M
1308.927	5.009	677799	REC_EVENT	0	n/a	6	4	PIG	<>	PIG	PLANT	13	[0, 0, 0]	-999	PAL1	1	R1121M
1313.936	0.008	680303	REC_END	n/a	n/a	6	-999	n/a	n/a	n/a	n/a	13	[0, 0, 0]	-999	PAL1	1	R1121M
1313.944	0.983	680307	TEST_ORIENT	n/a	n/a	1	5	PIT	n/a	CAPE	PIT	13	[0, 0, 0]	-999	PAL1	1	R1121M
1314.927	0.001	680798	TEST_PROBE	n/a	wordpools/wordpool_EN.txt	1	5	PIT	n/a	CAPE	PIT	13	[0, 0, 0]	-999	PAL1	1	R1121M
1314.928	0.0	680799	REC_START	n/a	n/a	1	-999	n/a	<>	n/a	n/a	13	[0, 0, 0]	-999	PAL1	1	R1121M
1314.928	5.008	680799	REC_EVENT	0	n/a	1	5	PIT	<>	CAPE	PIT	13	[0, 0, 0]	-999	PAL1	1	R1121M
1319.936	0.009	683303	REC_END	n/a	n/a	1	-999	n/a	n/a	n/a	n/a	13	[0, 0, 0]	-999	PAL1	1	R1121M
1319.945	0.884	683307	TEST_ORIENT	n/a	n/a	4	6	FUR	STORE	FUR	STORE	13	[0, 0, 0]	-999	PAL1	1	R1121M
1320.829	0.0	683749	TEST_PROBE	n/a	wordpools/wordpool_EN.txt	4	6	FUR	STORE	FUR	STORE	13	[0, 0, 0]	-999	PAL1	1	R1121M
1320.829	3.361	683749	REC_START	n/a	n/a	4	-999	n/a	STORE	n/a	n/a	13	[0, 0, 0]	-999	PAL1	1	R1121M
1324.19	1.656	685430	REC_EVENT	3361	n/a	4	6	FUR	STORE	FUR	STORE	13	[0, 0, 0]	-999	PAL1	1	R1121M
1325.846	32.427	686258	REC_END	n/a	n/a	4	-999	n/a	n/a	n/a	n/a	13	[0, 0, 0]	-999	PAL1	1	R1121M
1358.273	10.449	702470	STUDY_START	n/a	n/a	-999	-999	n/a	n/a	n/a	n/a	14	[0, 0, 0]	-999	PAL1	1	R1121M
1368.722	0.933	707694	STUDY_ORIENT	n/a	n/a	1	1	ROOM	n/a	CANE	ROOM	14	[0, 0, 0]	-999	PAL1	1	R1121M
1369.655	5.034	708160	STUDY_PAIR	n/a	wordpools/wordpool_EN.txt	1	1	ROOM	n/a	CANE	ROOM	14	[0, 0, 0]	-999	PAL1	1	R1121M
1374.689	0.901	710677	STUDY_ORIENT	n/a	n/a	2	4	MUG	n/a	RAT	MUG	14	[0, 0, 0]	-999	PAL1	1	R1121M
1375.59	5.034	711128	STUDY_PAIR	n/a	wordpools/wordpool_EN.txt	2	4	MUG	n/a	RAT	MUG	14	[0, 0, 0]	-999	PAL1	1	R1121M
1380.624	0.9	713644	STUDY_ORIENT	n/a	n/a	3	5	SOCK	n/a	VAN	SOCK	14	[0, 0, 0]	-999	PAL1	1	R1121M
1381.524	5.018	714094	STUDY_PAIR	n/a	wordpools/wordpool_EN.txt	3	5	SOCK	n/a	VAN	SOCK	14	[0, 0, 0]	-999	PAL1	1	R1121M
1386.542	0.817	716603	STUDY_ORIENT	n/a	n/a	4	2	SOAP	SOAP	SOAP	DOG	14	[0, 0, 0]	-999	PAL1	1	R1121M
1387.359	5.034	717012	STUDY_PAIR	n/a	wordpools/wordpool_EN.txt	4	2	SOAP	SOAP	SOAP	DOG	14	[0, 0, 0]	-999	PAL1	1	R1121M
1392.393	0.9	719528	STUDY_ORIENT	n/a	n/a	5	3	TOE	CONE	CONE	TOE	14	[0, 0, 0]	-999	PAL1	1	R1121M
1393.293	5.018	719978	STUDY_PAIR	n/a	wordpools/wordpool_EN.txt	5	3	TOE	CONE	CONE	TOE	14	[0, 0, 0]	-999	PAL1	1	R1121M
1398.311	0.95	722487	STUDY_ORIENT	n/a	n/a	6	6	BOARD	n/a	RICE	BOARD	14	[0, 0, 0]	-999	PAL1	1	R1121M
1399.261	4.001	722962	STUDY_PAIR	n/a	wordpools/wordpool_EN.txt	6	6	BOARD	n/a	RICE	BOARD	14	[0, 0, 0]	-999	PAL1	1	R1121M
1403.262	1.0	724962	START	n/a	n/a	-999	-999	n/a	n/a	n/a	n/a	9	[-999, -999, -999]	-999	PAL1	1	R1121M
1404.262	0.017	725462	MATH_START	n/a	n/a	-999	-999	n/a	n/a	n/a	n/a	14	[0, 0, 0]	-999	PAL1	1	R1121M
1404.279	5.183	725471	PROB	5162	n/a	-999	-999	n/a	n/a	n/a	n/a	9	[2, 2, 8]	9	PAL1	1	R1121M
1409.462	2.335	728062	PROB	2315	n/a	-999	-999	n/a	n/a	n/a	n/a	9	[1, 4, 3]	9	PAL1	1	R1121M
1411.797	1.984	729230	PROB	1964	n/a	-999	-999	n/a	n/a	n/a	n/a	9	[6, 1, 6]	9	PAL1	1	R1121M
1413.781	2.2	730221	PROB	2172	n/a	-999	-999	n/a	n/a	n/a	n/a	9	[9, 8, 9]	9	PAL1	1	R1121M
1415.981	2.234	731321	PROB	2204	n/a	-999	-999	n/a	n/a	n/a	n/a	9	[7, 4, 5]	9	PAL1	1	R1121M
1418.215	2.534	732438	PROB	2506	n/a	-999	-999	n/a	n/a	n/a	n/a	9	[3, 7, 4]	9	PAL1	1	R1121M
1420.749	2.167	733705	PROB	2132	n/a	-999	-999	n/a	n/a	n/a	n/a	9	[4, 4, 5]	9	PAL1	1	R1121M
1422.916	2.564	734789	PROB	2564	n/a	-999	-999	n/a	n/a	n/a	n/a	9	[1, 3, 1]	9	PAL1	1	R1121M
1425.48	0.02	736070	STOP	n/a	n/a	-999	-999	n/a	n/a	n/a	n/a	9	[-999, -999, -999]	-999	PAL1	1	R1121M
1425.5	0.0	736080	MATH_END	n/a	n/a	-999	-999	n/a	n/a	n/a	n/a	14	[0, 0, 0]	-999	PAL1	1	R1121M
1425.5	0.016	736080	TEST_START	n/a	n/a	-999	-999	n/a	n/a	n/a	n/a	14	[0, 0, 0]	-999	PAL1	1	R1121M
1425.516	1.034	736088	TEST_ORIENT	n/a	n/a	1	1	ROOM	n/a	CANE	ROOM	14	[0, 0, 0]	-999	PAL1	1	R1121M
1426.55	0.0	736605	TEST_PROBE	n/a	wordpools/wordpool_EN.txt	1	1	ROOM	n/a	CANE	ROOM	14	[0, 0, 0]	-999	PAL1	1	R1121M
1426.55	0.0	736605	REC_START	n/a	n/a	1	-999	n/a	<>	n/a	n/a	14	[0, 0, 0]	-999	PAL1	1	R1121M
1426.55	5.017	736605	REC_EVENT	0	n/a	1	1	ROOM	<>	CANE	ROOM	14	[0, 0, 0]	-999	PAL1	1	R1121M
1431.567	0.017	739114	REC_END	n/a	n/a	1	-999	n/a	n/a	n/a	n/a	14	[0, 0, 0]	-999	PAL1	1	R1121M
1431.584	0.934	739122	TEST_ORIENT	n/a	n/a	4	2	SOAP	SOAP	SOAP	DOG	14	[0, 0, 0]	-999	PAL1	1	R1121M
1432.518	0.0	739589	TEST_PROBE	n/a	wordpools/wordpool_EN.txt	4	2	SOAP	SOAP	SOAP	DOG	14	[0, 0, 0]	-999	PAL1	1	R1121M
1432.518	2.052	739589	REC_START	n/a	n/a	4	-999	n/a	SOAP	n/a	n/a	14	[0, 0, 0]	-999	PAL1	1	R1121M
1434.57	2.965	740615	REC_EVENT	2052	n/a	4	2	SOAP	SOAP	SOAP	DOG	14	[0, 0, 0]	-999	PAL1	1	R1121M
1437.535	0.017	742098	REC_END	n/a	n/a	4	-999	n/a	n/a	n/a	n/a	14	[0, 0, 0]	-999	PAL1	1	R1121M
1437.552	0.967	742106	TEST_ORIENT	n/a	n/a	5	3	TOE	CONE	CONE	TOE	14	[0, 0, 0]	-999	PAL1	1	R1121M
1438.519	0.001	742589	TEST_PROBE	n/a	wordpools/wordpool_EN.txt	5	3	TOE	CONE	CONE	TOE	14	[0, 0, 0]	-999	PAL1	1	R1121M
1438.52	1.304	742590	REC_START	n/a	n/a	5	-999	n/a	CONE	n/a	n/a	14	[0, 0, 0]	-999	PAL1	1	R1121M
1439.824	3.712	743242	REC_EVENT	1304	n/a	5	3	TOE	CONE	CONE	TOE	14	[0, 0, 0]	-999	PAL1	1	R1121M
1443.536	0.017	745098	REC_END	n/a	n/a	5	-999	n/a	n/a	n/a	n/a	14	[0, 0, 0]	-999	PAL1	1	R1121M
1443.553	0.8	745106	TEST_ORIENT	n/a	n/a	2	4	MUG	n/a	RAT	MUG	14	[0, 0, 0]	-999	PAL1	1	R1121M
1444.353	0.001	745506	TEST_PROBE	n/a	wordpools/wordpool_EN.txt	2	4	MUG	n/a	RAT	MUG	14	[0, 0, 0]	-999	PAL1	1	R1121M
1444.354	0.0	745507	REC_START	n/a	n/a	2	-999	n/a	<>	n/a	n/a	14	[0, 0, 0]	-999	PAL1	1	R1121M
1444.354	5.008	745507	REC_EVENT	0	n/a	2	4	MUG	<>	RAT	MUG	14	[0, 0, 0]	-999	PAL1	1	R1121M
1449.362	0.009	748011	REC_END	n/a	n/a	2	-999	n/a	n/a	n/a	n/a	14	[0, 0, 0]	-999	PAL1	1	R1121M
1449.371	0.984	748015	TEST_ORIENT	n/a	n/a	3	5	SOCK	n/a	VAN	SOCK	14	[0, 0, 0]	-999	PAL1	1	R1121M
1450.355	0.0	748507	TEST_PROBE	n/a	wordpools/wordpool_EN.txt	3	5	SOCK	n/a	VAN	SOCK	14	[0, 0, 0]	-999	PAL1	1	R1121M
1450.355	0.0	748507	REC_START	n/a	n/a	3	-999	n/a	<>	n/a	n/a	14	[0, 0, 0]	-999	PAL1	1	R1121M
1450.355	5.017	748507	REC_EVENT	0	n/a	3	5	SOCK	<>	VAN	SOCK	14	[0, 0, 0]	-999	PAL1	1	R1121M
1455.372	0.017	751015	REC_END	n/a	n/a	3	-999	n/a	n/a	n/a	n/a	14	[0, 0, 0]	-999	PAL1	1	R1121M
1455.389	0.983	751024	TEST_ORIENT	n/a	n/a	6	6	BOARD	n/a	RICE	BOARD	14	[0, 0, 0]	-999	PAL1	1	R1121M
1456.372	0.001	751515	TEST_PROBE	n/a	wordpools/wordpool_EN.txt	6	6	BOARD	n/a	RICE	BOARD	14	[0, 0, 0]	-999	PAL1	1	R1121M
1456.373	0.0	751516	REC_START	n/a	n/a	6	-999	n/a	<>	n/a	n/a	14	[0, 0, 0]	-999	PAL1	1	R1121M
1456.373	5.008	751516	REC_EVENT	0	n/a	6	6	BOARD	<>	RICE	BOARD	14	[0, 0, 0]	-999	PAL1	1	R1121M
1461.381	12.86	754020	REC_END	n/a	n/a	6	-999	n/a	n/a	n/a	n/a	14	[0, 0, 0]	-999	PAL1	1	R1121M
1474.241	10.454	760449	STUDY_START	n/a	n/a	-999	-999	n/a	n/a	n/a	n/a	15	[0, 0, 0]	-999	PAL1	1	R1121M
1484.695	0.833	765676	STUDY_ORIENT	n/a	n/a	1	3	TIE	TREE	TIE	TREE	15	[0, 0, 0]	-999	PAL1	1	R1121M
1485.528	5.035	766092	STUDY_PAIR	n/a	wordpools/wordpool_EN.txt	1	3	TIE	TREE	TIE	TREE	15	[0, 0, 0]	-999	PAL1	1	R1121M
1490.563	0.915	768609	STUDY_ORIENT	n/a	n/a	2	6	PEAR	n/a	TOAST	PEAR	15	[0, 0, 0]	-999	PAL1	1	R1121M
1491.478	5.019	769067	STUDY_PAIR	n/a	wordpools/wordpool_EN.txt	2	6	PEAR	n/a	TOAST	PEAR	15	[0, 0, 0]	-999	PAL1	1	R1121M
1496.497	0.884	771576	STUDY_ORIENT	n/a	n/a	3	5	HAWK	n/a	PET	HAWK	15	[0, 0, 0]	-999	PAL1	1	R1121M
1497.381	5.034	772018	STUDY_PAIR	n/a	wordpools/wordpool_EN.txt	3	5	HAWK	n/a	PET	HAWK	15	[0, 0, 0]	-999	PAL1	1	R1121M
1502.415	0.817	774535	STUDY_ORIENT	n/a	n/a	4	2	SWAMP	n/a	WAVE	SWAMP	15	[0, 0, 0]	-999	PAL1	1	R1121M
1503.232	5.034	774943	STUDY_PAIR	n/a	wordpools/wordpool_EN.txt	4	2	SWAMP	n/a	WAVE	SWAMP	15	[0, 0, 0]	-999	PAL1	1	R1121M
1508.266	0.884	777460	STUDY_ORIENT	n/a	n/a	5	1	CUP	n/a	CUP	BOOT	15	[0, 0, 0]	-999	PAL1	1	R1121M
1509.15	5.034	777902	STUDY_PAIR	n/a	wordpools/wordpool_EN.txt	5	1	CUP	n/a	CUP	BOOT	15	[0, 0, 0]	-999	PAL1	1	R1121M
1514.184	0.833	780419	STUDY_ORIENT	n/a	n/a	6	4	SWORD	n/a	PEARL	SWORD	15	[0, 0, 0]	-999	PAL1	1	R1121M
1515.017	4.002	780835	STUDY_PAIR	n/a	wordpools/wordpool_EN.txt	6	4	SWORD	n/a	PEARL	SWORD	15	[0, 0, 0]	-999	PAL1	1	R1121M
1519.019	0.999	782836	START	n/a	n/a	-999	-999	n/a	n/a	n/a	n/a	10	[-999, -999, -999]	-999	PAL1	1	R1121M
1520.018	0.017	783336	MATH_START	n/a	n/a	-999	-999	n/a	n/a	n/a	n/a	15	[0, 0, 0]	-999	PAL1	1	R1121M
1520.035	5.168	783344	PROB	5142	n/a	-999	-999	n/a	n/a	n/a	n/a	10	[8, 8, 7]	9	PAL1	1	R1121M
1525.203	2.017	785928	PROB	1990	n/a	-999	-999	n/a	n/a	n/a	n/a	10	[5, 1, 6]	9	PAL1	1	R1121M
1527.22	2.75	786936	PROB	2717	n/a	-999	-999	n/a	n/a	n/a	n/a	10	[3, 1, 9]	9	PAL1	1	R1121M
1529.97	2.534	788311	PROB	2502	n/a	-999	-999	n/a	n/a	n/a	n/a	10	[1, 7, 6]	9	PAL1	1	R1121M
1532.504	2.534	789578	PROB	2505	n/a	-999	-999	n/a	n/a	n/a	n/a	10	[8, 1, 6]	9	PAL1	1	R1121M
1535.038	2.367	790845	PROB	2347	n/a	-999	-999	n/a	n/a	n/a	n/a	10	[4, 3, 7]	9	PAL1	1	R1121M
1537.405	2.396	792028	PROB	2396	n/a	-999	-999	n/a	n/a	n/a	n/a	10	[1, 7, 7]	9	PAL1	1	R1121M
1539.801	0.005	793226	STOP	n/a	n/a	-999	-999	n/a	n/a	n/a	n/a	10	[-999, -999, -999]	-999	PAL1	1	R1121M
1539.806	0.0	793229	MATH_END	n/a	n/a	-999	-999	n/a	n/a	n/a	n/a	15	[0, 0, 0]	-999	PAL1	1	R1121M
1539.806	0.016	793229	TEST_START	n/a	n/a	-999	-999	n/a	n/a	n/a	n/a	15	[0, 0, 0]	-999	PAL1	1	R1121M
1539.822	0.967	793237	TEST_ORIENT	n/a	n/a	5	1	CUP	n/a	CUP	BOOT	15	[0, 0, 0]	-999	PAL1	1	R1121M
1540.789	0.001	793720	TEST_PROBE	n/a	wordpools/wordpool_EN.txt	5	1	CUP	n/a	CUP	BOOT	15	[0, 0, 0]	-999	PAL1	1	R1121M
1540.79	0.0	793721	REC_START	n/a	n/a	5	-999	n/a	<>	n/a	n/a	15	[0, 0, 0]	-999	PAL1	1	R1121M
1540.79	5.009	793721	REC_EVENT	0	n/a	5	1	CUP	<>	CUP	BOOT	15	[0, 0, 0]	-999	PAL1	1	R1121M
1545.799	0.008	796225	REC_END	n/a	n/a	5	-999	n/a	n/a	n/a	n/a	15	[0, 0, 0]	-999	PAL1	1	R1121M
1545.807	0.817	796229	TEST_ORIENT	n/a	n/a	4	2	SWAMP	n/a	WAVE	SWAMP	15	[0, 0, 0]	-999	PAL1	1	R1121M
1546.624	0.0	796638	TEST_PROBE	n/a	wordpools/wordpool_EN.txt	4	2	SWAMP	n/a	WAVE	SWAMP	15	[0, 0, 0]	-999	PAL1	1	R1121M
1546.624	0.0	796638	REC_START	n/a	n/a	4	-999	n/a	<>	n/a	n/a	15	[0, 0, 0]	-999	PAL1	1	R1121M
1546.624	5.017	796638	REC_EVENT	0	n/a	4	2	SWAMP	<>	WAVE	SWAMP	15	[0, 0, 0]	-999	PAL1	1	R1121M
1551.641	0.017	799146	REC_END	n/a	n/a	4	-999	n/a	n/a	n/a	n/a	15	[0, 0, 0]	-999	PAL1	1	R1121M
1551.658	1.0	799154	TEST_ORIENT	n/a	n/a	1	3	TIE	TREE	TIE	TREE	15	[0, 0, 0]	-999	PAL1	1	R1121M
1552.658	0.001	799654	TEST_PROBE	n/a	wordpools/wordpool_EN.txt	1	3	TIE	TREE	TIE	TREE	15	[0, 0, 0]	-999	PAL1	1	R1121M
1552.659	2.038	799655	REC_START	n/a	n/a	1	-999	n/a	TREE	n/a	n/a	15	[0, 0, 0]	-999	PAL1	1	R1121M
1554.697	2.97	800674	REC_EVENT	2038	n/a	1	3	TIE	TREE	TIE	TREE	15	[0, 0, 0]	-999	PAL1	1	R1121M
1557.667	0.009	802159	REC_END	n/a	n/a	1	-999	n/a	n/a	n/a	n/a	15	[0, 0, 0]	-999	PAL1	1	R1121M
1557.676	0.85	802163	TEST_ORIENT	n/a	n/a	6	4	SWORD	n/a	PEARL	SWORD	15	[0, 0, 0]	-999	PAL1	1	R1121M
1558.526	0.0	802588	TEST_PROBE	n/a	wordpools/wordpool_EN.txt	6	4	SWORD	n/a	PEARL	SWORD	15	[0, 0, 0]	-999	PAL1	1	R1121M
1558.526	0.0	802588	REC_START	n/a	n/a	6	-999	n/a	<>	n/a	n/a	15	[0, 0, 0]	-999	PAL1	1	R1121M
1558.526	5.018	802588	REC_EVENT	0	n/a	6	4	SWORD	<>	PEARL	SWORD	15	[0, 0, 0]	-999	PAL1	1	R1121M
1563.544	0.017	805097	REC_END	n/a	n/a	6	-999	n/a	n/a	n/a	n/a	15	[0, 0, 0]	-999	PAL1	1	R1121M
1563.561	0.85	805105	TEST_ORIENT	n/a	n/a	3	5	HAWK	n/a	PET	HAWK	15	[0, 0, 0]	-999	PAL1	1	R1121M
1564.411	0.0	805530	TEST_PROBE	n/a	wordpools/wordpool_EN.txt	3	5	HAWK	n/a	PET	HAWK	15	[0, 0, 0]	-999	PAL1	1	R1121M
1564.411	0.0	805530	REC_START	n/a	n/a	3	-999	n/a	<>	n/a	n/a	15	[0, 0, 0]	-999	PAL1	1	R1121M
1564.411	5.017	805530	REC_EVENT	0	n/a	3	5	HAWK	<>	PET	HAWK	15	[0, 0, 0]	-999	PAL1	1	R1121M
1569.428	0.016	808039	REC_END	n/a	n/a	3	-999	n/a	n/a	n/a	n/a	15	[0, 0, 0]	-999	PAL1	1	R1121M
1569.444	0.834	808047	TEST_ORIENT	n/a	n/a	2	6	PEAR	n/a	TOAST	PEAR	15	[0, 0, 0]	-999	PAL1	1	R1121M
1570.278	0.001	808464	TEST_PROBE	n/a	wordpools/wordpool_EN.txt	2	6	PEAR	n/a	TOAST	PEAR	15	[0, 0, 0]	-999	PAL1	1	R1121M
1570.279	0.0	808464	REC_START	n/a	n/a	2	-999	n/a	<>	n/a	n/a	15	[0, 0, 0]	-999	PAL1	1	R1121M
1570.279	5.009	808464	REC_EVENT	0	n/a	2	6	PEAR	<>	TOAST	PEAR	15	[0, 0, 0]	-999	PAL1	1	R1121M
1575.288	7.697	810968	REC_END	n/a	n/a	2	-999	n/a	n/a	n/a	n/a	15	[0, 0, 0]	-999	PAL1	1	R1121M
1582.985	10.448	814817	STUDY_START	n/a	n/a	-999	-999	n/a	n/a	n/a	n/a	16	[0, 0, 0]	-999	PAL1	1	R1121M
1593.433	0.95	820040	STUDY_ORIENT	n/a	n/a	1	3	CLOCK	SNOW	CLOCK	SNOW	16	[0, 0, 0]	-999	PAL1	1	R1121M
1594.383	5.018	820515	STUDY_PAIR	n/a	wordpools/wordpool_EN.txt	1	3	CLOCK	SNOW	CLOCK	SNOW	16	[0, 0, 0]	-999	PAL1	1	R1121M
1599.401	0.85	823024	STUDY_ORIENT	n/a	n/a	2	4	FARM	n/a	FARM	VEST	16	[0, 0, 0]	-999	PAL1	1	R1121M
1600.251	5.035	823449	STUDY_PAIR	n/a	wordpools/wordpool_EN.txt	2	4	FARM	n/a	FARM	VEST	16	[0, 0, 0]	-999	PAL1	1	R1121M
1605.286	1.016	825966	STUDY_ORIENT	n/a	n/a	3	1	CHAIR	n/a	CHAIR	SHEEP	16	[0, 0, 0]	-999	PAL1	1	R1121M
1606.302	5.018	826474	STUDY_PAIR	n/a	wordpools/wordpool_EN.txt	3	1	CHAIR	n/a	CHAIR	SHEEP	16	[0, 0, 0]	-999	PAL1	1	R1121M
1611.32	0.85	828983	STUDY_ORIENT	n/a	n/a	4	2	CASH	n/a	BLUSH	CASH	16	[0, 0, 0]	-999	PAL1	1	R1121M
1612.17	5.018	829408	STUDY_PAIR	n/a	wordpools/wordpool_EN.txt	4	2	CASH	n/a	BLUSH	CASH	16	[0, 0, 0]	-999	PAL1	1	R1121M
1617.188	0.95	831917	STUDY_ORIENT	n/a	n/a	5	5	CHALK	n/a	TRAIN	CHALK	16	[0, 0, 0]	-999	PAL1	1	R1121M
1618.138	5.034	832392	STUDY_PAIR	n/a	wordpools/wordpool_EN.txt	5	5	CHALK	n/a	TRAIN	CHALK	16	[0, 0, 0]	-999	PAL1	1	R1121M
1623.172	0.867	834909	STUDY_ORIENT	n/a	n/a	6	6	BENCH	n/a	NET	BENCH	16	[0, 0, 0]	-999	PAL1	1	R1121M
1624.039	4.001	835342	STUDY_PAIR	n/a	wordpools/wordpool_EN.txt	6	6	BENCH	n/a	NET	BENCH	16	[0, 0, 0]	-999	PAL1	1	R1121M
1628.04	1.0	837342	START	n/a	n/a	-999	-999	n/a	n/a	n/a	n/a	11	[-999, -999, -999]	-999	PAL1	1	R1121M
1629.04	0.017	837842	MATH_START	n/a	n/a	-999	-999	n/a	n/a	n/a	n/a	16	[0, 0, 0]	-999	PAL1	1	R1121M
1629.057	5.151	837851	PROB	5120	n/a	-999	-999	n/a	n/a	n/a	n/a	11	[7, 2, 9]	9	PAL1	1	R1121M
1634.208	2.517	840426	PROB	2497	n/a	-999	-999	n/a	n/a	n/a	n/a	11	[6, 2, 6]	9	PAL1	1	R1121M
1636.725	2.75	841684	PROB	2723	n/a	-999	-999	n/a	n/a	n/a	n/a	11	[6, 4, 4]	9	PAL1	1	R1121M
1639.475	2.484	843059	PROB	2454	n/a	-999	-999	n/a	n/a	n/a	n/a	11	[6, 2, 6]	9	PAL1	1	R1121M
1641.959	2.551	844301	PROB	2521	n/a	-999	-999	n/a	n/a	n/a	n/a	11	[6, 4, 7]	9	PAL1	1	R1121M
1644.51	2.734	845577	PROB	2699	n/a	-999	-999	n/a	n/a	n/a	n/a	11	[5, 2, 3]	9	PAL1	1	R1121M
1647.244	2.397	846944	PROB	2397	n/a	-999	-999	n/a	n/a	n/a	n/a	11	[8, 1, 1]	9	PAL1	1	R1121M
1649.641	0.003	848142	STOP	n/a	n/a	-999	-999	n/a	n/a	n/a	n/a	11	[-999, -999, -999]	-999	PAL1	1	R1121M
1649.644	0.0	848143	MATH_END	n/a	n/a	-999	-999	n/a	n/a	n/a	n/a	16	[0, 0, 0]	-999	PAL1	1	R1121M
1649.644	0.017	848143	TEST_START	n/a	n/a	-999	-999	n/a	n/a	n/a	n/a	16	[0, 0, 0]	-999	PAL1	1	R1121M
1649.661	0.85	848152	TEST_ORIENT	n/a	n/a	3	1	CHAIR	n/a	CHAIR	SHEEP	16	[0, 0, 0]	-999	PAL1	1	R1121M
1650.511	0.001	848577	TEST_PROBE	n/a	wordpools/wordpool_EN.txt	3	1	CHAIR	n/a	CHAIR	SHEEP	16	[0, 0, 0]	-999	PAL1	1	R1121M
1650.512	0.0	848577	REC_START	n/a	n/a	3	-999	n/a	<>	n/a	n/a	16	[0, 0, 0]	-999	PAL1	1	R1121M
1650.512	5.026	848577	REC_EVENT	0	n/a	3	1	CHAIR	<>	CHAIR	SHEEP	16	[0, 0, 0]	-999	PAL1	1	R1121M
1655.538	0.007	851090	REC_END	n/a	n/a	3	-999	n/a	n/a	n/a	n/a	16	[0, 0, 0]	-999	PAL1	1	R1121M
1655.545	0.801	851094	TEST_ORIENT	n/a	n/a	4	2	CASH	n/a	BLUSH	CASH	16	[0, 0, 0]	-999	PAL1	1	R1121M
1656.346	0.0	851494	TEST_PROBE	n/a	wordpools/wordpool_EN.txt	4	2	CASH	n/a	BLUSH	CASH	16	[0, 0, 0]	-999	PAL1	1	R1121M
1656.346	0.0	851494	REC_START	n/a	n/a	4	-999	n/a	<>	n/a	n/a	16	[0, 0, 0]	-999	PAL1	1	R1121M
1656.346	5.017	851494	REC_EVENT	0	n/a	4	2	CASH	<>	BLUSH	CASH	16	[0, 0, 0]	-999	PAL1	1	R1121M
1661.363	0.017	854002	REC_END	n/a	n/a	4	-999	n/a	n/a	n/a	n/a	16	[0, 0, 0]	-999	PAL1	1	R1121M
1661.38	1.033	854011	TEST_ORIENT	n/a	n/a	1	3	CLOCK	SNOW	CLOCK	SNOW	16	[0, 0, 0]	-999	PAL1	1	R1121M
1662.413	0.001	854527	TEST_PROBE	n/a	wordpools/wordpool_EN.txt	1	3	CLOCK	SNOW	CLOCK	SNOW	16	[0, 0, 0]	-999	PAL1	1	R1121M
1662.414	1.148	854528	REC_START	n/a	n/a	1	-999	n/a	SNOW	n/a	n/a	16	[0, 0, 0]	-999	PAL1	1	R1121M
1663.562	3.86	855102	REC_EVENT	1148	n/a	1	3	CLOCK	SNOW	CLOCK	SNOW	16	[0, 0, 0]	-999	PAL1	1	R1121M
1667.422	0.009	857032	REC_END	n/a	n/a	1	-999	n/a	n/a	n/a	n/a	16	[0, 0, 0]	-999	PAL1	1	R1121M
1667.431	0.867	857036	TEST_ORIENT	n/a	n/a	2	4	FARM	n/a	FARM	VEST	16	[0, 0, 0]	-999	PAL1	1	R1121M
1668.298	0.0	857470	TEST_PROBE	n/a	wordpools/wordpool_EN.txt	2	4	FARM	n/a	FARM	VEST	16	[0, 0, 0]	-999	PAL1	1	R1121M
1668.298	0.0	857470	REC_START	n/a	n/a	2	-999	n/a	<>	n/a	n/a	16	[0, 0, 0]	-999	PAL1	1	R1121M
1668.298	5.017	857470	REC_EVENT	0	n/a	2	4	FARM	<>	FARM	VEST	16	[0, 0, 0]	-999	PAL1	1	R1121M
1673.315	0.017	859978	REC_END	n/a	n/a	2	-999	n/a	n/a	n/a	n/a	16	[0, 0, 0]	-999	PAL1	1	R1121M
1673.332	1.034	859986	TEST_ORIENT	n/a	n/a	5	5	CHALK	n/a	TRAIN	CHALK	16	[0, 0, 0]	-999	PAL1	1	R1121M
1674.366	0.0	860503	TEST_PROBE	n/a	wordpools/wordpool_EN.txt	5	5	CHALK	n/a	TRAIN	CHALK	16	[0, 0, 0]	-999	PAL1	1	R1121M
1674.366	0.0	860503	REC_START	n/a	n/a	5	-999	n/a	<>	n/a	n/a	16	[0, 0, 0]	-999	PAL1	1	R1121M
1674.366	5.017	860503	REC_EVENT	0	n/a	5	5	CHALK	<>	TRAIN	CHALK	16	[0, 0, 0]	-999	PAL1	1	R1121M
1679.383	0.017	863012	REC_END	n/a	n/a	5	-999	n/a	n/a	n/a	n/a	16	[0, 0, 0]	-999	PAL1	1	R1121M
1679.4	0.8	863020	TEST_ORIENT	n/a	n/a	6	6	BENCH	n/a	NET	BENCH	16	[0, 0, 0]	-999	PAL1	1	R1121M
1680.2	0.001	863420	TEST_PROBE	n/a	wordpools/wordpool_EN.txt	6	6	BENCH	n/a	NET	BENCH	16	[0, 0, 0]	-999	PAL1	1	R1121M
1680.201	0.0	863421	REC_START	n/a	n/a	6	-999	n/a	<>	n/a	n/a	16	[0, 0, 0]	-999	PAL1	1	R1121M
1680.201	5.008	863421	REC_EVENT	0	n/a	6	6	BENCH	<>	NET	BENCH	16	[0, 0, 0]	-999	PAL1	1	R1121M
1685.209	7.208	865924	REC_END	n/a	n/a	6	-999	n/a	n/a	n/a	n/a	16	[0, 0, 0]	-999	PAL1	1	R1121M
1692.417	10.438	869528	STUDY_START	n/a	n/a	-999	-999	n/a	n/a	n/a	n/a	17	[0, 0, 0]	-999	PAL1	1	R1121M
1702.855	0.8	874747	STUDY_ORIENT	n/a	n/a	1	5	INK	n/a	ELF	INK	17	[0, 0, 0]	-999	PAL1	1	R1121M
1703.655	5.034	875147	STUDY_PAIR	n/a	wordpools/wordpool_EN.txt	1	5	INK	n/a	ELF	INK	17	[0, 0, 0]	-999	PAL1	1	R1121M
1708.689	0.967	877664	STUDY_ORIENT	n/a	n/a	2	6	CAKE	BOY	BOY	CAKE	17	[0, 0, 0]	-999	PAL1	1	R1121M
1709.656	5.018	878147	STUDY_PAIR	n/a	wordpools/wordpool_EN.txt	2	6	CAKE	BOY	BOY	CAKE	17	[0, 0, 0]	-999	PAL1	1	R1121M
1714.674	0.782	880656	STUDY_ORIENT	n/a	n/a	3	3	DEER	MILK	DEER	MILK	17	[0, 0, 0]	-999	PAL1	1	R1121M
1715.456	5.018	881047	STUDY_PAIR	n/a	wordpools/wordpool_EN.txt	3	3	DEER	MILK	DEER	MILK	17	[0, 0, 0]	-999	PAL1	1	R1121M
1720.474	0.801	883556	STUDY_ORIENT	n/a	n/a	4	2	PALM	n/a	PALM	CLAY	17	[0, 0, 0]	-999	PAL1	1	R1121M
1721.275	5.018	883956	STUDY_PAIR	n/a	wordpools/wordpool_EN.txt	4	2	PALM	n/a	PALM	CLAY	17	[0, 0, 0]	-999	PAL1	1	R1121M
1726.293	0.917	886465	STUDY_ORIENT	n/a	n/a	5	1	ZOO	n/a	ZOO	SUIT	17	[0, 0, 0]	-999	PAL1	1	R1121M
1727.21	5.034	886923	STUDY_PAIR	n/a	wordpools/wordpool_EN.txt	5	1	ZOO	n/a	ZOO	SUIT	17	[0, 0, 0]	-999	PAL1	1	R1121M
1732.244	0.983	889440	STUDY_ORIENT	n/a	n/a	6	4	GOAT	CAT	CAT	GOAT	17	[0, 0, 0]	-999	PAL1	1	R1121M
1733.227	4.002	889932	STUDY_PAIR	n/a	wordpools/wordpool_EN.txt	6	4	GOAT	CAT	CAT	GOAT	17	[0, 0, 0]	-999	PAL1	1	R1121M
1737.229	0.999	891932	START	n/a	n/a	-999	-999	n/a	n/a	n/a	n/a	12	[-999, -999, -999]	-999	PAL1	1	R1121M
1738.228	0.017	892432	MATH_START	n/a	n/a	-999	-999	n/a	n/a	n/a	n/a	17	[0, 0, 0]	-999	PAL1	1	R1121M
1738.245	3.417	892440	PROB	3388	n/a	-999	-999	n/a	n/a	n/a	n/a	12	[2, 8, 9]	9	PAL1	1	R1121M
1741.662	2.718	894149	PROB	2683	n/a	-999	-999	n/a	n/a	n/a	n/a	12	[4, 9, 1]	9	PAL1	1	R1121M
1744.38	2.417	895508	PROB	2389	n/a	-999	-999	n/a	n/a	n/a	n/a	12	[5, 8, 5]	9	PAL1	1	R1121M
1746.797	2.45	896716	PROB	2428	n/a	-999	-999	n/a	n/a	n/a	n/a	12	[9, 4, 4]	9	PAL1	1	R1121M
1749.247	2.834	897941	PROB	2810	n/a	-999	-999	n/a	n/a	n/a	n/a	12	[6, 1, 5]	9	PAL1	1	R1121M
1752.081	2.667	899358	PROB	2640	n/a	-999	-999	n/a	n/a	n/a	n/a	12	[3, 5, 9]	9	PAL1	1	R1121M
1754.748	2.418	900691	PROB	2389	n/a	-999	-999	n/a	n/a	n/a	n/a	12	[1, 8, 5]	9	PAL1	1	R1121M
1757.166	2.515	901900	PROB	2515	n/a	-999	-999	n/a	n/a	n/a	n/a	12	[9, 5, 8]	9	PAL1	1	R1121M
1759.681	0.018	903157	STOP	n/a	n/a	-999	-999	n/a	n/a	n/a	n/a	12	[-999, -999, -999]	-999	PAL1	1	R1121M
1759.699	0.0	903166	MATH_END	n/a	n/a	-999	-999	n/a	n/a	n/a	n/a	17	[0, 0, 0]	-999	PAL1	1	R1121M
1759.699	0.017	903166	TEST_START	n/a	n/a	-999	-999	n/a	n/a	n/a	n/a	17	[0, 0, 0]	-999	PAL1	1	R1121M
1759.716	0.867	903175	TEST_ORIENT	n/a	n/a	5	1	ZOO	n/a	ZOO	SUIT	17	[0, 0, 0]	-999	PAL1	1	R1121M
1760.583	0.001	903608	TEST_PROBE	n/a	wordpools/wordpool_EN.txt	5	1	ZOO	n/a	ZOO	SUIT	17	[0, 0, 0]	-999	PAL1	1	R1121M
1760.584	0.0	903609	REC_START	n/a	n/a	5	-999	n/a	<>	n/a	n/a	17	[0, 0, 0]	-999	PAL1	1	R1121M
1760.584	5.016	903609	REC_EVENT	0	n/a	5	1	ZOO	<>	ZOO	SUIT	17	[0, 0, 0]	-999	PAL1	1	R1121M
1765.6	0.017	906117	REC_END	n/a	n/a	5	-999	n/a	n/a	n/a	n/a	17	[0, 0, 0]	-999	PAL1	1	R1121M
1765.617	0.817	906125	TEST_ORIENT	n/a	n/a	4	2	PALM	n/a	PALM	CLAY	17	[0, 0, 0]	-999	PAL1	1	R1121M
1766.434	0.001	906534	TEST_PROBE	n/a	wordpools/wordpool_EN.txt	4	2	PALM	n/a	PALM	CLAY	17	[0, 0, 0]	-999	PAL1	1	R1121M
1766.435	0.0	906534	REC_START	n/a	n/a	4	-999	n/a	<>	n/a	n/a	17	[0, 0, 0]	-999	PAL1	1	R1121M
1766.435	5.008	906534	REC_EVENT	0	n/a	4	2	PALM	<>	PALM	CLAY	17	[0, 0, 0]	-999	PAL1	1	R1121M
1771.443	0.008	909038	REC_END	n/a	n/a	4	-999	n/a	n/a	n/a	n/a	17	[0, 0, 0]	-999	PAL1	1	R1121M
1771.451	0.951	909042	TEST_ORIENT	n/a	n/a	3	3	DEER	MILK	DEER	MILK	17	[0, 0, 0]	-999	PAL1	1	R1121M
1772.402	0.001	909517	TEST_PROBE	n/a	wordpools/wordpool_EN.txt	3	3	DEER	MILK	DEER	MILK	17	[0, 0, 0]	-999	PAL1	1	R1121M
1772.403	2.726	909518	REC_START	n/a	n/a	3	-999	n/a	MILK	n/a	n/a	17	[0, 0, 0]	-999	PAL1	1	R1121M
1775.129	2.29	910881	REC_EVENT	2726	n/a	3	3	DEER	MILK	DEER	MILK	17	[0, 0, 0]	-999	PAL1	1	R1121M
1777.419	0.017	912026	REC_END	n/a	n/a	3	-999	n/a	n/a	n/a	n/a	17	[0, 0, 0]	-999	PAL1	1	R1121M
1777.436	0.9	912034	TEST_ORIENT	n/a	n/a	6	4	GOAT	CAT	CAT	GOAT	17	[0, 0, 0]	-999	PAL1	1	R1121M
1778.336	0.001	912484	TEST_PROBE	n/a	wordpools/wordpool_EN.txt	6	4	GOAT	CAT	CAT	GOAT	17	[0, 0, 0]	-999	PAL1	1	R1121M
1778.337	1.478	912485	REC_START	n/a	n/a	6	-999	n/a	CAT	n/a	n/a	17	[0, 0, 0]	-999	PAL1	1	R1121M
1779.815	3.53	913224	REC_EVENT	1478	n/a	6	4	GOAT	CAT	CAT	GOAT	17	[0, 0, 0]	-999	PAL1	1	R1121M
1783.345	0.009	914989	REC_END	n/a	n/a	6	-999	n/a	n/a	n/a	n/a	17	[0, 0, 0]	-999	PAL1	1	R1121M
1783.354	0.867	914993	TEST_ORIENT	n/a	n/a	1	5	INK	n/a	ELF	INK	17	[0, 0, 0]	-999	PAL1	1	R1121M
1784.221	0.0	915426	TEST_PROBE	n/a	wordpools/wordpool_EN.txt	1	5	INK	n/a	ELF	INK	17	[0, 0, 0]	-999	PAL1	1	R1121M
1784.221	0.0	915426	REC_START	n/a	n/a	1	-999	n/a	<>	n/a	n/a	17	[0, 0, 0]	-999	PAL1	1	R1121M
1784.221	5.017	915426	REC_EVENT	0	n/a	1	5	INK	<>	ELF	INK	17	[0, 0, 0]	-999	PAL1	1	R1121M
1789.238	0.017	917935	REC_END	n/a	n/a	1	-999	n/a	n/a	n/a	n/a	17	[0, 0, 0]	-999	PAL1	1	R1121M
1789.255	0.967	917943	TEST_ORIENT	n/a	n/a	2	6	CAKE	BOY	BOY	CAKE	17	[0, 0, 0]	-999	PAL1	1	R1121M
1790.222	0.001	918427	TEST_PROBE	n/a	wordpools/wordpool_EN.txt	2	6	CAKE	BOY	BOY	CAKE	17	[0, 0, 0]	-999	PAL1	1	R1121M
1790.223	1.601	918427	REC_START	n/a	n/a	2	-999	n/a	BOY	n/a	n/a	17	[0, 0, 0]	-999	PAL1	1	R1121M
1791.824	3.408	919228	REC_EVENT	1601	n/a	2	6	CAKE	BOY	BOY	CAKE	17	[0, 0, 0]	-999	PAL1	1	R1121M
1795.232	14.313	920932	REC_END	n/a	n/a	2	-999	n/a	n/a	n/a	n/a	17	[0, 0, 0]	-999	PAL1	1	R1121M
1809.545	10.45	928087	STUDY_START	n/a	n/a	-999	-999	n/a	n/a	n/a	n/a	18	[0, 0, 0]	-999	PAL1	1	R1121M
1819.995	0.95	933312	STUDY_ORIENT	n/a	n/a	1	1	STOOL	n/a	STOOL	BARN	18	[0, 0, 0]	-999	PAL1	1	R1121M
1820.945	5.034	933787	STUDY_PAIR	n/a	wordpools/wordpool_EN.txt	1	1	STOOL	n/a	STOOL	BARN	18	[0, 0, 0]	-999	PAL1	1	R1121M
1825.979	0.951	936304	STUDY_ORIENT	n/a	n/a	2	4	CALF	n/a	CALF	BAND	18	[0, 0, 0]	-999	PAL1	1	R1121M
1826.93	5.034	936779	STUDY_PAIR	n/a	wordpools/wordpool_EN.txt	2	4	CALF	n/a	CALF	BAND	18	[0, 0, 0]	-999	PAL1	1	R1121M
1831.964	0.967	939296	STUDY_ORIENT	n/a	n/a	3	5	CUBE	MOOSE	CUBE	MOOSE	18	[0, 0, 0]	-999	PAL1	1	R1121M
1832.931	5.034	939780	STUDY_PAIR	n/a	wordpools/wordpool_EN.txt	3	5	CUBE	MOOSE	CUBE	MOOSE	18	[0, 0, 0]	-999	PAL1	1	R1121M
1837.965	0.883	942296	STUDY_ORIENT	n/a	n/a	4	2	CLOWN	n/a	CHIEF	CLOWN	18	[0, 0, 0]	-999	PAL1	1	R1121M
1838.848	5.018	942738	STUDY_PAIR	n/a	wordpools/wordpool_EN.txt	4	2	CLOWN	n/a	CHIEF	CLOWN	18	[0, 0, 0]	-999	PAL1	1	R1121M
1843.866	0.85	945247	STUDY_ORIENT	n/a	n/a	5	3	STONE	n/a	STONE	NEST	18	[0, 0, 0]	-999	PAL1	1	R1121M
1844.716	5.018	945672	STUDY_PAIR	n/a	wordpools/wordpool_EN.txt	5	3	STONE	n/a	STONE	NEST	18	[0, 0, 0]	-999	PAL1	1	R1121M
1849.734	0.817	948180	STUDY_ORIENT	n/a	n/a	6	6	BRICK	n/a	BRICK	MULE	18	[0, 0, 0]	-999	PAL1	1	R1121M
1850.551	4.018	948589	STUDY_PAIR	n/a	wordpools/wordpool_EN.txt	6	6	BRICK	n/a	BRICK	MULE	18	[0, 0, 0]	-999	PAL1	1	R1121M
1854.569	0.999	950598	START	n/a	n/a	-999	-999	n/a	n/a	n/a	n/a	13	[-999, -999, -999]	-999	PAL1	1	R1121M
1855.568	0.017	951097	MATH_START	n/a	n/a	-999	-999	n/a	n/a	n/a	n/a	18	[0, 0, 0]	-999	PAL1	1	R1121M
1855.585	4.851	951106	PROB	4832	n/a	-999	-999	n/a	n/a	n/a	n/a	13	[6, 1, 5]	9	PAL1	1	R1121M
1860.436	2.784	953531	PROB	2757	n/a	-999	-999	n/a	n/a	n/a	n/a	13	[6, 6, 9]	9	PAL1	1	R1121M
1863.22	2.601	954923	PROB	2573	n/a	-999	-999	n/a	n/a	n/a	n/a	13	[6, 5, 7]	9	PAL1	1	R1121M
1865.821	2.35	956223	PROB	2324	n/a	-999	-999	n/a	n/a	n/a	n/a	13	[5, 4, 5]	9	PAL1	1	R1121M
1868.171	2.601	957398	PROB	2574	n/a	-999	-999	n/a	n/a	n/a	n/a	13	[1, 2, 4]	9	PAL1	1	R1121M
1870.772	2.9	958698	PROB	2877	n/a	-999	-999	n/a	n/a	n/a	n/a	13	[5, 3, 3]	9	PAL1	1	R1121M
1873.672	2.745	960148	PROB	2745	n/a	-999	-999	n/a	n/a	n/a	n/a	13	[1, 5, 8]	9	PAL1	1	R1121M
1876.417	0.006	961521	STOP	n/a	n/a	-999	-999	n/a	n/a	n/a	n/a	13	[-999, -999, -999]	-999	PAL1	1	R1121M
1876.423	0.0	961524	MATH_END	n/a	n/a	-999	-999	n/a	n/a	n/a	n/a	18	[0, 0, 0]	-999	PAL1	1	R1121M
1876.423	0.016	961524	TEST_START	n/a	n/a	-999	-999	n/a	n/a	n/a	n/a	18	[0, 0, 0]	-999	PAL1	1	R1121M
1876.439	0.984	961532	TEST_ORIENT	n/a	n/a	1	1	STOOL	n/a	STOOL	BARN	18	[0, 0, 0]	-999	PAL1	1	R1121M
1877.423	0.0	962024	TEST_PROBE	n/a	wordpools/wordpool_EN.txt	1	1	STOOL	n/a	STOOL	BARN	18	[0, 0, 0]	-999	PAL1	1	R1121M
1877.423	0.0	962024	REC_START	n/a	n/a	1	-999	n/a	<>	n/a	n/a	18	[0, 0, 0]	-999	PAL1	1	R1121M
1877.423	5.017	962024	REC_EVENT	0	n/a	1	1	STOOL	<>	STOOL	BARN	18	[0, 0, 0]	-999	PAL1	1	R1121M
1882.44	0.016	964532	REC_END	n/a	n/a	1	-999	n/a	n/a	n/a	n/a	18	[0, 0, 0]	-999	PAL1	1	R1121M
1882.456	0.835	964540	TEST_ORIENT	n/a	n/a	4	2	CLOWN	n/a	CHIEF	CLOWN	18	[0, 0, 0]	-999	PAL1	1	R1121M
1883.291	0.0	964957	TEST_PROBE	n/a	wordpools/wordpool_EN.txt	4	2	CLOWN	n/a	CHIEF	CLOWN	18	[0, 0, 0]	-999	PAL1	1	R1121M
1883.291	0.0	964957	REC_START	n/a	n/a	4	-999	n/a	<>	n/a	n/a	18	[0, 0, 0]	-999	PAL1	1	R1121M
1883.291	5.017	964957	REC_EVENT	0	n/a	4	2	CLOWN	<>	CHIEF	CLOWN	18	[0, 0, 0]	-999	PAL1	1	R1121M
1888.308	0.017	967466	REC_END	n/a	n/a	4	-999	n/a	n/a	n/a	n/a	18	[0, 0, 0]	-999	PAL1	1	R1121M
1888.325	0.934	967474	TEST_ORIENT	n/a	n/a	5	3	STONE	n/a	STONE	NEST	18	[0, 0, 0]	-999	PAL1	1	R1121M
1889.259	0.0	967941	TEST_PROBE	n/a	wordpools/wordpool_EN.txt	5	3	STONE	n/a	STONE	NEST	18	[0, 0, 0]	-999	PAL1	1	R1121M
1889.259	0.0	967941	REC_START	n/a	n/a	5	-999	n/a	<>	n/a	n/a	18	[0, 0, 0]	-999	PAL1	1	R1121M
1889.259	5.017	967941	REC_EVENT	0	n/a	5	3	STONE	<>	STONE	NEST	18	[0, 0, 0]	-999	PAL1	1	R1121M
1894.276	0.017	970450	REC_END	n/a	n/a	5	-999	n/a	n/a	n/a	n/a	18	[0, 0, 0]	-999	PAL1	1	R1121M
1894.293	0.85	970458	TEST_ORIENT	n/a	n/a	2	4	CALF	n/a	CALF	BAND	18	[0, 0, 0]	-999	PAL1	1	R1121M
1895.143	0.0	970883	TEST_PROBE	n/a	wordpools/wordpool_EN.txt	2	4	CALF	n/a	CALF	BAND	18	[0, 0, 0]	-999	PAL1	1	R1121M
1895.143	0.0	970883	REC_START	n/a	n/a	2	-999	n/a	<>	n/a	n/a	18	[0, 0, 0]	-999	PAL1	1	R1121M
1895.143	5.018	970883	REC_EVENT	0	n/a	2	4	CALF	<>	CALF	BAND	18	[0, 0, 0]	-999	PAL1	1	R1121M
1900.161	0.016	973392	REC_END	n/a	n/a	2	-999	n/a	n/a	n/a	n/a	18	[0, 0, 0]	-999	PAL1	1	R1121M
1900.177	0.884	973400	TEST_ORIENT	n/a	n/a	3	5	CUBE	MOOSE	CUBE	MOOSE	18	[0, 0, 0]	-999	PAL1	1	R1121M
1901.061	0.0	973842	TEST_PROBE	n/a	wordpools/wordpool_EN.txt	3	5	CUBE	MOOSE	CUBE	MOOSE	18	[0, 0, 0]	-999	PAL1	1	R1121M
1901.061	1.526	973842	REC_START	n/a	n/a	3	-999	n/a	MOOSE	n/a	n/a	18	[0, 0, 0]	-999	PAL1	1	R1121M
1902.587	3.491	974605	REC_EVENT	1526	n/a	3	5	CUBE	MOOSE	CUBE	MOOSE	18	[0, 0, 0]	-999	PAL1	1	R1121M
1906.078	0.017	976350	REC_END	n/a	n/a	3	-999	n/a	n/a	n/a	n/a	18	[0, 0, 0]	-999	PAL1	1	R1121M
1906.095	0.951	976359	TEST_ORIENT	n/a	n/a	6	6	BRICK	n/a	BRICK	MULE	18	[0, 0, 0]	-999	PAL1	1	R1121M
1907.046	0.0	976834	TEST_PROBE	n/a	wordpools/wordpool_EN.txt	6	6	BRICK	n/a	BRICK	MULE	18	[0, 0, 0]	-999	PAL1	1	R1121M
1907.046	0.0	976834	REC_START	n/a	n/a	6	-999	n/a	<>	n/a	n/a	18	[0, 0, 0]	-999	PAL1	1	R1121M
1907.046	5.017	976834	REC_EVENT	0	n/a	6	6	BRICK	<>	BRICK	MULE	18	[0, 0, 0]	-999	PAL1	1	R1121M
1912.063	0.0	979342	REC_END	n/a	n/a	6	-999	n/a	n/a	n/a	n/a	18	[0, 0, 0]	-999	PAL1	1	R1121M
