onset	duration	sample	trial_type	response_time	stim_file	serialpos	probepos	probe_word	resp_word	study_1	study_2	list	test	answer	experiment	session	subject
0.0	71.316	311542	SESS_START	n/a	n/a	-999	-999	n/a	n/a	n/a	n/a	-999	[0, 0, 0]	-999	PAL1	0	R1078N
71.316	1.017	382856	START	n/a	n/a	-999	-999	n/a	n/a	n/a	n/a	-1	[-999, -999, -999]	-999	PAL1	0	R1078N
72.333	2.617	383873	PROB	2.586	n/a	-999	-999	n/a	n/a	n/a	n/a	-1	[3, 1, 4]	8	PAL1	0	R1078N
74.95	2.566	386490	PROB	2.544	n/a	-999	-999	n/a	n/a	n/a	n/a	-1	[9, 5, 3]	17	PAL1	0	R1078N
77.516	4.302	389056	PROB	4.275	n/a	-999	-999	n/a	n/a	n/a	n/a	-1	[9, 6, 3]	18	PAL1	0	R1078N
81.818	4.284	393358	PROB	4.261	n/a	-999	-999	n/a	n/a	n/a	n/a	-1	[8, 6, 5]	19	PAL1	0	R1078N
86.102	2.217	397642	PROB	2.193	n/a	-999	-999	n/a	n/a	n/a	n/a	-1	[4, 8, 2]	14	PAL1	0	R1078N
88.319	2.467	399859	PROB	2.448	n/a	-999	-999	n/a	n/a	n/a	n/a	-1	[9, 4, 2]	15	PAL1	0	R1078N
90.786	2.788	402326	PROB	2.788	n/a	-999	-999	n/a	n/a	n/a	n/a	-1	[6, 4, 9]	19	PAL1	0	R1078N
93.574	35.535	405114	STOP	n/a	n/a	-999	-999	n/a	n/a	n/a	n/a	-1	[-999, -999, -999]	-999	PAL1	0	R1078N
129.109	30.65	440648	FEEDBACK_SHOW_ALL_PAIRS	n/a	n/a	-999	-999	n/a	n/a	n/a	n/a	-999	[0, 0, 0]	-999	PAL1	0	R1078N
159.759	10.44	471297	ENCODING_START	n/a	n/a	0	-999	n/a	n/a	n/a	n/a	1	[0, 0, 0]	-999	PAL1	0	R1078N
170.199	0.275	481737	STUDY_ORIENT	n/a	n/a	1	1	TRAY	PASS	BED	TRAY	1	[0, 0, 0]	-999	PAL1	0	R1078N
171.033	4.0	482571	STUDY_PAIR	n/a	wordpools/wordpool_EN.txt	1	1	TRAY	PASS	BED	TRAY	1	[0, 0, 0]	-999	PAL1	0	R1078N
176.067	0.275	487605	STUDY_ORIENT	n/a	n/a	2	2	PIT	PASS	BOX	PIT	1	[0, 0, 0]	-999	PAL1	0	R1078N
176.967	4.0	488505	STUDY_PAIR	n/a	wordpools/wordpool_EN.txt	2	2	PIT	PASS	BOX	PIT	1	[0, 0, 0]	-999	PAL1	0	R1078N
181.985	0.275	493523	STUDY_ORIENT	n/a	n/a	3	5	SPEAR	n/a	SPONGE	SPEAR	1	[0, 0, 0]	-999	PAL1	0	R1078N
182.901	4.0	494439	STUDY_PAIR	n/a	wordpools/wordpool_EN.txt	3	5	SPEAR	n/a	SPONGE	SPEAR	1	[0, 0, 0]	-999	PAL1	0	R1078N
187.919	0.275	499457	STUDY_ORIENT	n/a	n/a	4	6	CUBE	n/a	CUBE	JET	1	[0, 0, 0]	-999	PAL1	0	R1078N
188.919	4.0	500456	STUDY_PAIR	n/a	wordpools/wordpool_EN.txt	4	6	CUBE	n/a	CUBE	JET	1	[0, 0, 0]	-999	PAL1	0	R1078N
193.937	0.275	505474	STUDY_ORIENT	n/a	n/a	5	3	POLE	n/a	POLE	PARK	1	[0, 0, 0]	-999	PAL1	0	R1078N
194.753	4.0	506290	STUDY_PAIR	n/a	wordpools/wordpool_EN.txt	5	3	POLE	n/a	POLE	PARK	1	[0, 0, 0]	-999	PAL1	0	R1078N
199.771	0.275	511308	STUDY_ORIENT	n/a	n/a	6	4	FOOT	n/a	FOOT	CHALK	1	[0, 0, 0]	-999	PAL1	0	R1078N
200.587	4.0	512124	STUDY_PAIR	n/a	wordpools/wordpool_EN.txt	6	4	FOOT	n/a	FOOT	CHALK	1	[0, 0, 0]	-999	PAL1	0	R1078N
204.605	0.999	516142	START	n/a	n/a	-999	-999	n/a	n/a	n/a	n/a	1	[-999, -999, -999]	-999	PAL1	0	R1078N
205.604	0.017	517141	MATH_START	n/a	n/a	-999	-999	n/a	n/a	n/a	n/a	1	[0, 0, 0]	-999	PAL1	0	R1078N
205.621	2.585	517158	PROB	2.554	n/a	-999	-999	n/a	n/a	n/a	n/a	1	[7, 8, 5]	20	PAL1	0	R1078N
208.206	2.433	519743	PROB	2.408	n/a	-999	-999	n/a	n/a	n/a	n/a	1	[8, 8, 6]	22	PAL1	0	R1078N
210.639	3.0	522176	PROB	2.967	n/a	-999	-999	n/a	n/a	n/a	n/a	1	[8, 7, 9]	24	PAL1	0	R1078N
213.639	3.834	525176	PROB	3.807	n/a	-999	-999	n/a	n/a	n/a	n/a	1	[8, 7, 9]	24	PAL1	0	R1078N
217.473	3.901	529010	PROB	3.877	n/a	-999	-999	n/a	n/a	n/a	n/a	1	[7, 6, 8]	21	PAL1	0	R1078N
221.374	3.984	532911	PROB	3.984	n/a	-999	-999	n/a	n/a	n/a	n/a	1	[6, 2, 6]	14	PAL1	0	R1078N
225.358	0.016	536895	STOP	n/a	n/a	-999	-999	n/a	n/a	n/a	n/a	1	[-999, -999, -999]	-999	PAL1	0	R1078N
225.374	0.0	536911	MATH_END	n/a	n/a	-999	-999	n/a	n/a	n/a	n/a	1	[0, 0, 0]	-999	PAL1	0	R1078N
225.374	0.017	536911	TEST_START	n/a	n/a	-999	-999	n/a	n/a	n/a	n/a	1	[0, 0, 0]	-999	PAL1	0	R1078N
225.391	0.275	536928	TEST_ORIENT	n/a	n/a	1	1	TRAY	PASS	BED	TRAY	1	[0, 0, 0]	-999	PAL1	0	R1078N
226.242	4.0	537779	TEST_PROBE	n/a	wordpools/wordpool_EN.txt	1	1	TRAY	PASS	BED	TRAY	1	[0, 0, 0]	-999	PAL1	0	R1078N
226.243	1.224	537780	REC_START	n/a	n/a	1	-999	n/a	PASS	n/a	n/a	1	[0, 0, 0]	-999	PAL1	0	R1078N
227.467	1.717	539004	REC_EVENT	1.224	n/a	1	1	TRAY	PASS	BED	TRAY	1	[0, 0, 0]	-999	PAL1	0	R1078N
229.184	1.0	540721	REC_EVENT	2.941	n/a	1	1	TRAY	<>	BED	TRAY	1	[0, 0, 0]	-999	PAL1	0	R1078N
230.184	1.0	541721	REC_EVENT	3.941	n/a	1	1	TRAY	<>	BED	TRAY	1	[0, 0, 0]	-999	PAL1	0	R1078N
231.184	0.067	542721	REC_EVENT	4.941	n/a	1	1	TRAY	<>	BED	TRAY	1	[0, 0, 0]	-999	PAL1	0	R1078N
231.251	0.009	542788	REC_END	n/a	n/a	1	-999	n/a	n/a	n/a	n/a	1	[0, 0, 0]	-999	PAL1	0	R1078N
231.26	0.275	542797	TEST_ORIENT	n/a	n/a	2	2	PIT	PASS	BOX	PIT	1	[0, 0, 0]	-999	PAL1	0	R1078N
232.26	4.0	543797	TEST_PROBE	n/a	wordpools/wordpool_EN.txt	2	2	PIT	PASS	BOX	PIT	1	[0, 0, 0]	-999	PAL1	0	R1078N
232.261	0.272	543798	REC_START	n/a	n/a	2	-999	n/a	PASS	n/a	n/a	1	[0, 0, 0]	-999	PAL1	0	R1078N
232.533	1.661	544069	REC_EVENT	0.272	n/a	2	2	PIT	<>	BOX	PIT	1	[0, 0, 0]	-999	PAL1	0	R1078N
234.194	3.083	545730	REC_EVENT	1.933	n/a	2	2	PIT	PASS	BOX	PIT	1	[0, 0, 0]	-999	PAL1	0	R1078N
237.277	0.017	548813	REC_END	n/a	n/a	2	-999	n/a	n/a	n/a	n/a	1	[0, 0, 0]	-999	PAL1	0	R1078N
237.294	0.275	548830	TEST_ORIENT	n/a	n/a	5	3	POLE	n/a	POLE	PARK	1	[0, 0, 0]	-999	PAL1	0	R1078N
238.228	4.0	549764	TEST_PROBE	n/a	wordpools/wordpool_EN.txt	5	3	POLE	n/a	POLE	PARK	1	[0, 0, 0]	-999	PAL1	0	R1078N
238.228	2.358	549764	REC_START	n/a	n/a	5	-999	n/a	n/a	n/a	n/a	1	[0, 0, 0]	-999	PAL1	0	R1078N
240.586	2.504	552122	REC_EVENT	2.358	n/a	5	3	POLE	<>	POLE	PARK	1	[0, 0, 0]	-999	PAL1	0	R1078N
243.09	0.155	554626	REC_EVENT	4.862	n/a	5	3	POLE	<>	POLE	PARK	1	[0, 0, 0]	-999	PAL1	0	R1078N
243.245	0.017	554781	REC_END	n/a	n/a	5	-999	n/a	n/a	n/a	n/a	1	[0, 0, 0]	-999	PAL1	0	R1078N
243.262	0.275	554798	TEST_ORIENT	n/a	n/a	6	4	FOOT	n/a	FOOT	CHALK	1	[0, 0, 0]	-999	PAL1	0	R1078N
244.129	4.0	555665	TEST_PROBE	n/a	wordpools/wordpool_EN.txt	6	4	FOOT	n/a	FOOT	CHALK	1	[0, 0, 0]	-999	PAL1	0	R1078N
244.129	2.293	555665	REC_START	n/a	n/a	6	-999	n/a	n/a	n/a	n/a	1	[0, 0, 0]	-999	PAL1	0	R1078N
246.422	2.724	557958	REC_EVENT	2.293	n/a	6	4	FOOT	<>	FOOT	CHALK	1	[0, 0, 0]	-999	PAL1	0	R1078N
249.146	0.017	560682	REC_END	n/a	n/a	6	-999	n/a	n/a	n/a	n/a	1	[0, 0, 0]	-999	PAL1	0	R1078N
249.163	0.275	560699	TEST_ORIENT	n/a	n/a	3	5	SPEAR	n/a	SPONGE	SPEAR	1	[0, 0, 0]	-999	PAL1	0	R1078N
250.046	4.0	561582	TEST_PROBE	n/a	wordpools/wordpool_EN.txt	3	5	SPEAR	n/a	SPONGE	SPEAR	1	[0, 0, 0]	-999	PAL1	0	R1078N
250.047	1.564	561583	REC_START	n/a	n/a	3	-999	n/a	n/a	n/a	n/a	1	[0, 0, 0]	-999	PAL1	0	R1078N
251.611	1.423	563147	REC_EVENT	1.564	n/a	3	5	SPEAR	<>	SPONGE	SPEAR	1	[0, 0, 0]	-999	PAL1	0	R1078N
253.034	2.02	564570	REC_EVENT	2.987	n/a	3	5	SPEAR	<>	SPONGE	SPEAR	1	[0, 0, 0]	-999	PAL1	0	R1078N
255.054	0.01	566590	REC_END	n/a	n/a	3	-999	n/a	n/a	n/a	n/a	1	[0, 0, 0]	-999	PAL1	0	R1078N
255.064	0.275	566600	TEST_ORIENT	n/a	n/a	4	6	CUBE	n/a	CUBE	JET	1	[0, 0, 0]	-999	PAL1	0	R1078N
255.997	4.0	567533	TEST_PROBE	n/a	wordpools/wordpool_EN.txt	4	6	CUBE	n/a	CUBE	JET	1	[0, 0, 0]	-999	PAL1	0	R1078N
255.998	1.749	567534	REC_START	n/a	n/a	4	-999	n/a	n/a	n/a	n/a	1	[0, 0, 0]	-999	PAL1	0	R1078N
257.747	3.259	569283	REC_EVENT	1.749	n/a	4	6	CUBE	<>	CUBE	JET	1	[0, 0, 0]	-999	PAL1	0	R1078N
261.006	0.025	572542	REC_END	n/a	n/a	4	-999	n/a	n/a	n/a	n/a	1	[0, 0, 0]	-999	PAL1	0	R1078N
261.031	20.415	572567	FEEDBACK_SHOW_ALL_PAIRS	n/a	n/a	4	-999	n/a	n/a	n/a	n/a	1	[0, 0, 0]	-999	PAL1	0	R1078N
281.446	10.441	592981	ENCODING_START	n/a	n/a	0	-999	n/a	n/a	n/a	n/a	2	[0, 0, 0]	-999	PAL1	0	R1078N
291.887	0.275	603422	STUDY_ORIENT	n/a	n/a	1	5	FARM	GATE	FARM	GATE	2	[0, 0, 0]	-999	PAL1	0	R1078N
292.82	4.0	604355	STUDY_PAIR	n/a	wordpools/wordpool_EN.txt	1	5	FARM	GATE	FARM	GATE	2	[0, 0, 0]	-999	PAL1	0	R1078N
297.854	0.275	609389	STUDY_ORIENT	n/a	n/a	2	2	CLOTH	n/a	DART	CLOTH	2	[0, 0, 0]	-999	PAL1	0	R1078N
298.738	4.0	610273	STUDY_PAIR	n/a	wordpools/wordpool_EN.txt	2	2	CLOTH	n/a	DART	CLOTH	2	[0, 0, 0]	-999	PAL1	0	R1078N
303.772	0.275	615307	STUDY_ORIENT	n/a	n/a	3	3	OAR	n/a	FUDGE	OAR	2	[0, 0, 0]	-999	PAL1	0	R1078N
304.621	4.0	616156	STUDY_PAIR	n/a	wordpools/wordpool_EN.txt	3	3	OAR	n/a	FUDGE	OAR	2	[0, 0, 0]	-999	PAL1	0	R1078N
309.655	0.275	621190	STUDY_ORIENT	n/a	n/a	4	4	TOE	n/a	TOE	HILL	2	[0, 0, 0]	-999	PAL1	0	R1078N
310.539	4.0	622074	STUDY_PAIR	n/a	wordpools/wordpool_EN.txt	4	4	TOE	n/a	TOE	HILL	2	[0, 0, 0]	-999	PAL1	0	R1078N
315.573	0.275	627108	STUDY_ORIENT	n/a	n/a	5	1	ELF	BUSH	PLANT	ELF	2	[0, 0, 0]	-999	PAL1	0	R1078N
316.473	4.0	628008	STUDY_PAIR	n/a	wordpools/wordpool_EN.txt	5	1	ELF	BUSH	PLANT	ELF	2	[0, 0, 0]	-999	PAL1	0	R1078N
321.507	0.275	633041	STUDY_ORIENT	n/a	n/a	6	6	SHEEP	BOOK	BOOK	SHEEP	2	[0, 0, 0]	-999	PAL1	0	R1078N
322.374	4.0	633908	STUDY_PAIR	n/a	wordpools/wordpool_EN.txt	6	6	SHEEP	BOOK	BOOK	SHEEP	2	[0, 0, 0]	-999	PAL1	0	R1078N
326.375	1.0	637909	START	n/a	n/a	-999	-999	n/a	n/a	n/a	n/a	2	[-999, -999, -999]	-999	PAL1	0	R1078N
327.375	0.017	638909	MATH_START	n/a	n/a	-999	-999	n/a	n/a	n/a	n/a	2	[0, 0, 0]	-999	PAL1	0	R1078N
327.392	2.283	638926	PROB	2.262	n/a	-999	-999	n/a	n/a	n/a	n/a	2	[1, 4, 1]	6	PAL1	0	R1078N
329.675	2.385	641209	PROB	2.356	n/a	-999	-999	n/a	n/a	n/a	n/a	2	[2, 9, 9]	20	PAL1	0	R1078N
332.06	1.75	643594	PROB	1.723	n/a	-999	-999	n/a	n/a	n/a	n/a	2	[1, 2, 3]	6	PAL1	0	R1078N
333.81	2.351	645344	PROB	2.317	n/a	-999	-999	n/a	n/a	n/a	n/a	2	[1, 4, 5]	10	PAL1	0	R1078N
336.161	3.067	647695	PROB	3.038	n/a	-999	-999	n/a	n/a	n/a	n/a	2	[7, 4, 9]	20	PAL1	0	R1078N
339.228	2.166	650762	PROB	2.138	n/a	-999	-999	n/a	n/a	n/a	n/a	2	[3, 2, 4]	9	PAL1	0	R1078N
341.394	2.902	652928	PROB	2.869	n/a	-999	-999	n/a	n/a	n/a	n/a	2	[6, 3, 4]	13	PAL1	0	R1078N
344.296	2.951	655830	PROB	2.951	n/a	-999	-999	n/a	n/a	n/a	n/a	2	[9, 4, 7]	20	PAL1	0	R1078N
347.247	0.016	658781	STOP	n/a	n/a	-999	-999	n/a	n/a	n/a	n/a	2	[-999, -999, -999]	-999	PAL1	0	R1078N
347.263	0.0	658797	MATH_END	n/a	n/a	-999	-999	n/a	n/a	n/a	n/a	2	[0, 0, 0]	-999	PAL1	0	R1078N
347.263	0.016	658797	TEST_START	n/a	n/a	-999	-999	n/a	n/a	n/a	n/a	2	[0, 0, 0]	-999	PAL1	0	R1078N
347.279	0.275	658813	TEST_ORIENT	n/a	n/a	5	1	ELF	BUSH	PLANT	ELF	2	[0, 0, 0]	-999	PAL1	0	R1078N
348.113	4.0	659647	TEST_PROBE	n/a	wordpools/wordpool_EN.txt	5	1	ELF	BUSH	PLANT	ELF	2	[0, 0, 0]	-999	PAL1	0	R1078N
348.114	1.91	659648	REC_START	n/a	n/a	5	-999	n/a	BUSH	n/a	n/a	2	[0, 0, 0]	-999	PAL1	0	R1078N
350.024	0.573	661558	REC_EVENT	1.91	n/a	5	1	ELF	BUSH	PLANT	ELF	2	[0, 0, 0]	-999	PAL1	0	R1078N
350.597	2.541	662131	REC_EVENT	2.483	n/a	5	1	ELF	<>	PLANT	ELF	2	[0, 0, 0]	-999	PAL1	0	R1078N
353.138	0.009	664672	REC_END	n/a	n/a	5	-999	n/a	n/a	n/a	n/a	2	[0, 0, 0]	-999	PAL1	0	R1078N
353.147	0.275	664681	TEST_ORIENT	n/a	n/a	2	2	CLOTH	n/a	DART	CLOTH	2	[0, 0, 0]	-999	PAL1	0	R1078N
354.18	4.0	665714	TEST_PROBE	n/a	wordpools/wordpool_EN.txt	2	2	CLOTH	n/a	DART	CLOTH	2	[0, 0, 0]	-999	PAL1	0	R1078N
354.181	1.373	665715	REC_START	n/a	n/a	2	-999	n/a	n/a	n/a	n/a	2	[0, 0, 0]	-999	PAL1	0	R1078N
355.554	3.635	667088	REC_EVENT	1.373	n/a	2	2	CLOTH	<>	DART	CLOTH	2	[0, 0, 0]	-999	PAL1	0	R1078N
359.189	0.009	670723	REC_END	n/a	n/a	2	-999	n/a	n/a	n/a	n/a	2	[0, 0, 0]	-999	PAL1	0	R1078N
359.198	0.275	670732	TEST_ORIENT	n/a	n/a	3	3	OAR	n/a	FUDGE	OAR	2	[0, 0, 0]	-999	PAL1	0	R1078N
360.132	4.0	671666	TEST_PROBE	n/a	wordpools/wordpool_EN.txt	3	3	OAR	n/a	FUDGE	OAR	2	[0, 0, 0]	-999	PAL1	0	R1078N
360.132	3.125	671666	REC_START	n/a	n/a	3	-999	n/a	n/a	n/a	n/a	2	[0, 0, 0]	-999	PAL1	0	R1078N
363.257	1.892	674790	REC_EVENT	3.125	n/a	3	3	OAR	<>	FUDGE	OAR	2	[0, 0, 0]	-999	PAL1	0	R1078N
365.149	0.017	676682	REC_END	n/a	n/a	3	-999	n/a	n/a	n/a	n/a	2	[0, 0, 0]	-999	PAL1	0	R1078N
365.166	0.275	676699	TEST_ORIENT	n/a	n/a	4	4	TOE	n/a	TOE	HILL	2	[0, 0, 0]	-999	PAL1	0	R1078N
366.083	0.0	677616	REC_START	n/a	n/a	4	-999	n/a	n/a	n/a	n/a	2	[0, 0, 0]	-999	PAL1	0	R1078N
366.083	4.0	677616	TEST_PROBE	n/a	wordpools/wordpool_EN.txt	4	4	TOE	n/a	TOE	HILL	2	[0, 0, 0]	-999	PAL1	0	R1078N
367.813	3.287	679346	REC_EVENT	1.73	n/a	4	4	TOE	<>	TOE	HILL	2	[0, 0, 0]	-999	PAL1	0	R1078N
371.1	0.017	682633	REC_END	n/a	n/a	4	-999	n/a	n/a	n/a	n/a	2	[0, 0, 0]	-999	PAL1	0	R1078N
371.117	0.275	682650	TEST_ORIENT	n/a	n/a	1	5	FARM	GATE	FARM	GATE	2	[0, 0, 0]	-999	PAL1	0	R1078N
372.134	4.0	683667	TEST_PROBE	n/a	wordpools/wordpool_EN.txt	1	5	FARM	GATE	FARM	GATE	2	[0, 0, 0]	-999	PAL1	0	R1078N
372.134	1.946	683667	REC_START	n/a	n/a	1	-999	n/a	GATE	n/a	n/a	2	[0, 0, 0]	-999	PAL1	0	R1078N
374.08	3.071	685613	REC_EVENT	1.946	n/a	1	5	FARM	GATE	FARM	GATE	2	[0, 0, 0]	-999	PAL1	0	R1078N
377.151	0.017	688684	REC_END	n/a	n/a	1	-999	n/a	n/a	n/a	n/a	2	[0, 0, 0]	-999	PAL1	0	R1078N
377.168	0.275	688701	TEST_ORIENT	n/a	n/a	6	6	SHEEP	BOOK	BOOK	SHEEP	2	[0, 0, 0]	-999	PAL1	0	R1078N
377.985	4.0	689518	TEST_PROBE	n/a	wordpools/wordpool_EN.txt	6	6	SHEEP	BOOK	BOOK	SHEEP	2	[0, 0, 0]	-999	PAL1	0	R1078N
377.985	1.186	689518	REC_START	n/a	n/a	6	-999	n/a	BOOK	n/a	n/a	2	[0, 0, 0]	-999	PAL1	0	R1078N
379.171	3.831	690704	REC_EVENT	1.186	n/a	6	6	SHEEP	BOOK	BOOK	SHEEP	2	[0, 0, 0]	-999	PAL1	0	R1078N
383.002	0.033	694535	REC_END	n/a	n/a	6	-999	n/a	n/a	n/a	n/a	2	[0, 0, 0]	-999	PAL1	0	R1078N
383.035	19.555	694568	FEEDBACK_SHOW_ALL_PAIRS	n/a	n/a	6	-999	n/a	n/a	n/a	n/a	2	[0, 0, 0]	-999	PAL1	0	R1078N
402.59	10.451	714123	ENCODING_START	n/a	n/a	0	-999	n/a	n/a	n/a	n/a	3	[0, 0, 0]	-999	PAL1	0	R1078N
413.041	0.275	724573	STUDY_ORIENT	n/a	n/a	1	1	WALL	SHEEP	FACE	WALL	3	[0, 0, 0]	-999	PAL1	0	R1078N
414.024	4.0	725556	STUDY_PAIR	n/a	wordpools/wordpool_EN.txt	1	1	WALL	SHEEP	FACE	WALL	3	[0, 0, 0]	-999	PAL1	0	R1078N
419.058	0.275	730590	STUDY_ORIENT	n/a	n/a	2	2	HOLE	n/a	HOLE	SIGN	3	[0, 0, 0]	-999	PAL1	0	R1078N
420.058	4.0	731590	STUDY_PAIR	n/a	wordpools/wordpool_EN.txt	2	2	HOLE	n/a	HOLE	SIGN	3	[0, 0, 0]	-999	PAL1	0	R1078N
425.076	0.275	736608	STUDY_ORIENT	n/a	n/a	3	3	CLIFF	n/a	SMILE	CLIFF	3	[0, 0, 0]	-999	PAL1	0	R1078N
426.009	4.0	737541	STUDY_PAIR	n/a	wordpools/wordpool_EN.txt	3	3	CLIFF	n/a	SMILE	CLIFF	3	[0, 0, 0]	-999	PAL1	0	R1078N
431.027	0.275	742559	STUDY_ORIENT	n/a	n/a	4	4	TOOTH	n/a	HOUSE	TOOTH	3	[0, 0, 0]	-999	PAL1	0	R1078N
431.927	4.0	743459	STUDY_PAIR	n/a	wordpools/wordpool_EN.txt	4	4	TOOTH	n/a	HOUSE	TOOTH	3	[0, 0, 0]	-999	PAL1	0	R1078N
436.961	0.275	748493	STUDY_ORIENT	n/a	n/a	5	5	CROW	FLUTE	CROW	FLUTE	3	[0, 0, 0]	-999	PAL1	0	R1078N
437.828	4.0	749360	STUDY_PAIR	n/a	wordpools/wordpool_EN.txt	5	5	CROW	FLUTE	CROW	FLUTE	3	[0, 0, 0]	-999	PAL1	0	R1078N
442.862	0.275	754394	STUDY_ORIENT	n/a	n/a	6	6	SHIP	n/a	SKUNK	SHIP	3	[0, 0, 0]	-999	PAL1	0	R1078N
443.812	4.0	755344	STUDY_PAIR	n/a	wordpools/wordpool_EN.txt	6	6	SHIP	n/a	SKUNK	SHIP	3	[0, 0, 0]	-999	PAL1	0	R1078N
447.813	1.0	759345	START	n/a	n/a	-999	-999	n/a	n/a	n/a	n/a	3	[-999, -999, -999]	-999	PAL1	0	R1078N
448.813	0.017	760345	MATH_START	n/a	n/a	-999	-999	n/a	n/a	n/a	n/a	3	[0, 0, 0]	-999	PAL1	0	R1078N
448.83	3.884	760362	PROB	3.865	n/a	-999	-999	n/a	n/a	n/a	n/a	3	[7, 4, 9]	20	PAL1	0	R1078N
452.714	1.949	764245	PROB	1.924	n/a	-999	-999	n/a	n/a	n/a	n/a	3	[2, 9, 6]	17	PAL1	0	R1078N
454.663	2.767	766194	PROB	2.743	n/a	-999	-999	n/a	n/a	n/a	n/a	3	[8, 7, 1]	16	PAL1	0	R1078N
457.43	1.718	768961	PROB	1.689	n/a	-999	-999	n/a	n/a	n/a	n/a	3	[4, 1, 3]	8	PAL1	0	R1078N
459.148	2.034	770679	PROB	2.011	n/a	-999	-999	n/a	n/a	n/a	n/a	3	[5, 3, 2]	10	PAL1	0	R1078N
461.182	2.0	772713	PROB	1.977	n/a	-999	-999	n/a	n/a	n/a	n/a	3	[8, 5, 1]	14	PAL1	0	R1078N
463.182	2.017	774713	PROB	1.993	n/a	-999	-999	n/a	n/a	n/a	n/a	3	[1, 9, 6]	16	PAL1	0	R1078N
465.199	2.134	776730	PROB	2.112	n/a	-999	-999	n/a	n/a	n/a	n/a	3	[3, 8, 3]	14	PAL1	0	R1078N
467.333	1.706	778864	PROB	1.706	n/a	-999	-999	n/a	n/a	n/a	n/a	3	[1, 7, 7]	15	PAL1	0	R1078N
469.039	0.011	780570	STOP	n/a	n/a	-999	-999	n/a	n/a	n/a	n/a	3	[-999, -999, -999]	-999	PAL1	0	R1078N
469.05	0.0	780581	MATH_END	n/a	n/a	-999	-999	n/a	n/a	n/a	n/a	3	[0, 0, 0]	-999	PAL1	0	R1078N
469.05	0.017	780581	TEST_START	n/a	n/a	-999	-999	n/a	n/a	n/a	n/a	3	[0, 0, 0]	-999	PAL1	0	R1078N
469.067	0.275	780598	TEST_ORIENT	n/a	n/a	1	1	WALL	SHEEP	FACE	WALL	3	[0, 0, 0]	-999	PAL1	0	R1078N
469.867	4.0	781398	TEST_PROBE	n/a	wordpools/wordpool_EN.txt	1	1	WALL	SHEEP	FACE	WALL	3	[0, 0, 0]	-999	PAL1	0	R1078N
469.868	2.469	781399	REC_START	n/a	n/a	1	-999	n/a	SHEEP	n/a	n/a	3	[0, 0, 0]	-999	PAL1	0	R1078N
472.337	1.052	783868	REC_EVENT	2.469	n/a	1	1	WALL	SHEEP	FACE	WALL	3	[0, 0, 0]	-999	PAL1	0	R1078N
473.389	1.503	784920	REC_EVENT	3.521	n/a	1	1	WALL	<>	FACE	WALL	3	[0, 0, 0]	-999	PAL1	0	R1078N
474.892	0.009	786423	REC_END	n/a	n/a	1	-999	n/a	n/a	n/a	n/a	3	[0, 0, 0]	-999	PAL1	0	R1078N
474.901	0.275	786432	TEST_ORIENT	n/a	n/a	2	2	HOLE	n/a	HOLE	SIGN	3	[0, 0, 0]	-999	PAL1	0	R1078N
475.768	0.0	787299	REC_EVENT	0.0	n/a	2	2	HOLE	<>	HOLE	SIGN	3	[0, 0, 0]	-999	PAL1	0	R1078N
475.768	4.0	787299	TEST_PROBE	n/a	wordpools/wordpool_EN.txt	2	2	HOLE	n/a	HOLE	SIGN	3	[0, 0, 0]	-999	PAL1	0	R1078N
475.768	1.912	787299	REC_START	n/a	n/a	2	-999	n/a	n/a	n/a	n/a	3	[0, 0, 0]	-999	PAL1	0	R1078N
477.68	3.113	789211	REC_EVENT	1.912	n/a	2	2	HOLE	<>	HOLE	SIGN	3	[0, 0, 0]	-999	PAL1	0	R1078N
480.793	0.009	792324	REC_END	n/a	n/a	2	-999	n/a	n/a	n/a	n/a	3	[0, 0, 0]	-999	PAL1	0	R1078N
480.802	0.275	792333	TEST_ORIENT	n/a	n/a	3	3	CLIFF	n/a	SMILE	CLIFF	3	[0, 0, 0]	-999	PAL1	0	R1078N
481.685	4.0	793216	TEST_PROBE	n/a	wordpools/wordpool_EN.txt	3	3	CLIFF	n/a	SMILE	CLIFF	3	[0, 0, 0]	-999	PAL1	0	R1078N
481.685	2.181	793216	REC_START	n/a	n/a	3	-999	n/a	n/a	n/a	n/a	3	[0, 0, 0]	-999	PAL1	0	R1078N
483.866	2.837	795397	REC_EVENT	2.181	n/a	3	3	CLIFF	<>	SMILE	CLIFF	3	[0, 0, 0]	-999	PAL1	0	R1078N
486.703	0.017	798234	REC_END	n/a	n/a	3	-999	n/a	n/a	n/a	n/a	3	[0, 0, 0]	-999	PAL1	0	R1078N
486.72	0.275	798251	TEST_ORIENT	n/a	n/a	4	4	TOOTH	n/a	HOUSE	TOOTH	3	[0, 0, 0]	-999	PAL1	0	R1078N
487.636	0.0	799167	REC_START	n/a	n/a	4	-999	n/a	n/a	n/a	n/a	3	[0, 0, 0]	-999	PAL1	0	R1078N
487.636	4.0	799167	TEST_PROBE	n/a	wordpools/wordpool_EN.txt	4	4	TOOTH	n/a	HOUSE	TOOTH	3	[0, 0, 0]	-999	PAL1	0	R1078N
488.813	3.84	800344	REC_EVENT	1.177	n/a	4	4	TOOTH	<>	HOUSE	TOOTH	3	[0, 0, 0]	-999	PAL1	0	R1078N
492.653	0.017	804184	REC_END	n/a	n/a	4	-999	n/a	n/a	n/a	n/a	3	[0, 0, 0]	-999	PAL1	0	R1078N
492.67	0.275	804201	TEST_ORIENT	n/a	n/a	5	5	CROW	FLUTE	CROW	FLUTE	3	[0, 0, 0]	-999	PAL1	0	R1078N
493.704	4.0	805235	TEST_PROBE	n/a	wordpools/wordpool_EN.txt	5	5	CROW	FLUTE	CROW	FLUTE	3	[0, 0, 0]	-999	PAL1	0	R1078N
493.704	1.898	805235	REC_START	n/a	n/a	5	-999	n/a	FLUTE	n/a	n/a	3	[0, 0, 0]	-999	PAL1	0	R1078N
495.602	3.12	807132	REC_EVENT	1.898	n/a	5	5	CROW	FLUTE	CROW	FLUTE	3	[0, 0, 0]	-999	PAL1	0	R1078N
498.722	0.016	810252	REC_END	n/a	n/a	5	-999	n/a	n/a	n/a	n/a	3	[0, 0, 0]	-999	PAL1	0	R1078N
498.738	0.275	810268	TEST_ORIENT	n/a	n/a	6	6	SHIP	n/a	SKUNK	SHIP	3	[0, 0, 0]	-999	PAL1	0	R1078N
499.739	4.0	811269	TEST_PROBE	n/a	wordpools/wordpool_EN.txt	6	6	SHIP	n/a	SKUNK	SHIP	3	[0, 0, 0]	-999	PAL1	0	R1078N
499.739	1.589	811269	REC_START	n/a	n/a	6	-999	n/a	n/a	n/a	n/a	3	[0, 0, 0]	-999	PAL1	0	R1078N
501.328	3.428	812858	REC_EVENT	1.589	n/a	6	6	SHIP	<>	SKUNK	SHIP	3	[0, 0, 0]	-999	PAL1	0	R1078N
504.756	0.033	816286	REC_END	n/a	n/a	6	-999	n/a	n/a	n/a	n/a	3	[0, 0, 0]	-999	PAL1	0	R1078N
504.789	24.33	816319	FEEDBACK_SHOW_ALL_PAIRS	n/a	n/a	6	-999	n/a	n/a	n/a	n/a	3	[0, 0, 0]	-999	PAL1	0	R1078N
529.119	10.442	840649	ENCODING_START	n/a	n/a	0	-999	n/a	n/a	n/a	n/a	4	[0, 0, 0]	-999	PAL1	0	R1078N
539.561	0.275	851090	STUDY_ORIENT	n/a	n/a	1	3	SHRIMP	PRINCE	SHRIMP	PRINCE	4	[0, 0, 0]	-999	PAL1	0	R1078N
540.344	4.0	851873	STUDY_PAIR	n/a	wordpools/wordpool_EN.txt	1	3	SHRIMP	PRINCE	SHRIMP	PRINCE	4	[0, 0, 0]	-999	PAL1	0	R1078N
545.362	0.275	856891	STUDY_ORIENT	n/a	n/a	2	4	CHEEK	n/a	CHEEK	BALL	4	[0, 0, 0]	-999	PAL1	0	R1078N
546.263	4.0	857792	STUDY_PAIR	n/a	wordpools/wordpool_EN.txt	2	4	CHEEK	n/a	CHEEK	BALL	4	[0, 0, 0]	-999	PAL1	0	R1078N
551.297	0.275	862826	STUDY_ORIENT	n/a	n/a	3	1	DIME	MOLE	DIME	SALT	4	[0, 0, 0]	-999	PAL1	0	R1078N
552.081	4.0	863610	STUDY_PAIR	n/a	wordpools/wordpool_EN.txt	3	1	DIME	MOLE	DIME	SALT	4	[0, 0, 0]	-999	PAL1	0	R1078N
557.115	0.275	868644	STUDY_ORIENT	n/a	n/a	4	6	TIE	STRING	TIE	SEAL	4	[0, 0, 0]	-999	PAL1	0	R1078N
557.948	4.0	869477	STUDY_PAIR	n/a	wordpools/wordpool_EN.txt	4	6	TIE	STRING	TIE	SEAL	4	[0, 0, 0]	-999	PAL1	0	R1078N
562.966	0.275	874495	STUDY_ORIENT	n/a	n/a	5	5	STRING	BEACH	BEACH	STRING	4	[0, 0, 0]	-999	PAL1	0	R1078N
563.949	4.0	875478	STUDY_PAIR	n/a	wordpools/wordpool_EN.txt	5	5	STRING	BEACH	BEACH	STRING	4	[0, 0, 0]	-999	PAL1	0	R1078N
568.967	0.275	880496	STUDY_ORIENT	n/a	n/a	6	2	MOLE	n/a	TOY	MOLE	4	[0, 0, 0]	-999	PAL1	0	R1078N
569.767	4.0	881296	STUDY_PAIR	n/a	wordpools/wordpool_EN.txt	6	2	MOLE	n/a	TOY	MOLE	4	[0, 0, 0]	-999	PAL1	0	R1078N
573.768	1.0	885297	START	n/a	n/a	-999	-999	n/a	n/a	n/a	n/a	4	[-999, -999, -999]	-999	PAL1	0	R1078N
574.768	0.017	886297	MATH_START	n/a	n/a	-999	-999	n/a	n/a	n/a	n/a	4	[0, 0, 0]	-999	PAL1	0	R1078N
574.785	5.267	886314	PROB	5.238	n/a	-999	-999	n/a	n/a	n/a	n/a	4	[9, 9, 3]	21	PAL1	0	R1078N
580.052	3.5	891581	PROB	3.466	n/a	-999	-999	n/a	n/a	n/a	n/a	4	[6, 1, 9]	16	PAL1	0	R1078N
583.552	2.133	895080	PROB	2.11	n/a	-999	-999	n/a	n/a	n/a	n/a	4	[3, 7, 8]	18	PAL1	0	R1078N
585.685	1.751	897213	PROB	1.721	n/a	-999	-999	n/a	n/a	n/a	n/a	4	[3, 2, 6]	11	PAL1	0	R1078N
587.436	2.718	898964	PROB	2.699	n/a	-999	-999	n/a	n/a	n/a	n/a	4	[8, 2, 4]	14	PAL1	0	R1078N
590.154	2.366	901682	PROB	2.332	n/a	-999	-999	n/a	n/a	n/a	n/a	4	[4, 1, 6]	11	PAL1	0	R1078N
592.52	2.701	904048	PROB	2.687	n/a	-999	-999	n/a	n/a	n/a	n/a	4	[8, 8, 8]	24	PAL1	0	R1078N
595.221	0.0	906749	MATH_END	n/a	n/a	-999	-999	n/a	n/a	n/a	n/a	4	[0, 0, 0]	-999	PAL1	0	R1078N
595.221	0.017	906749	TEST_START	n/a	n/a	-999	-999	n/a	n/a	n/a	n/a	4	[0, 0, 0]	-999	PAL1	0	R1078N
595.238	0.275	906766	TEST_ORIENT	n/a	n/a	3	1	DIME	MOLE	DIME	SALT	4	[0, 0, 0]	-999	PAL1	0	R1078N
596.088	4.0	907616	TEST_PROBE	n/a	wordpools/wordpool_EN.txt	3	1	DIME	MOLE	DIME	SALT	4	[0, 0, 0]	-999	PAL1	0	R1078N
596.089	2.621	907617	REC_START	n/a	n/a	3	-999	n/a	MOLE	n/a	n/a	4	[0, 0, 0]	-999	PAL1	0	R1078N
598.71	2.387	910238	REC_EVENT	2.621	n/a	3	1	DIME	MOLE	DIME	SALT	4	[0, 0, 0]	-999	PAL1	0	R1078N
601.097	0.009	912625	REC_END	n/a	n/a	3	-999	n/a	n/a	n/a	n/a	4	[0, 0, 0]	-999	PAL1	0	R1078N
601.106	0.275	912634	TEST_ORIENT	n/a	n/a	6	2	MOLE	n/a	TOY	MOLE	4	[0, 0, 0]	-999	PAL1	0	R1078N
601.956	4.0	913484	TEST_PROBE	n/a	wordpools/wordpool_EN.txt	6	2	MOLE	n/a	TOY	MOLE	4	[0, 0, 0]	-999	PAL1	0	R1078N
601.956	1.334	913484	REC_START	n/a	n/a	6	-999	n/a	n/a	n/a	n/a	4	[0, 0, 0]	-999	PAL1	0	R1078N
603.29	1.0	914818	REC_EVENT	1.334	n/a	6	2	MOLE	<>	TOY	MOLE	4	[0, 0, 0]	-999	PAL1	0	R1078N
604.29	1.188	915818	REC_EVENT	2.334	n/a	6	2	MOLE	<>	TOY	MOLE	4	[0, 0, 0]	-999	PAL1	0	R1078N
605.478	1.495	917006	REC_EVENT	3.522	n/a	6	2	MOLE	<>	TOY	MOLE	4	[0, 0, 0]	-999	PAL1	0	R1078N
606.973	0.017	918501	REC_END	n/a	n/a	6	-999	n/a	n/a	n/a	n/a	4	[0, 0, 0]	-999	PAL1	0	R1078N
606.99	0.275	918518	TEST_ORIENT	n/a	n/a	1	3	SHRIMP	PRINCE	SHRIMP	PRINCE	4	[0, 0, 0]	-999	PAL1	0	R1078N
607.89	4.0	919418	TEST_PROBE	n/a	wordpools/wordpool_EN.txt	1	3	SHRIMP	PRINCE	SHRIMP	PRINCE	4	[0, 0, 0]	-999	PAL1	0	R1078N
607.89	1.056	919418	REC_START	n/a	n/a	1	-999	n/a	PRINCE	n/a	n/a	4	[0, 0, 0]	-999	PAL1	0	R1078N
608.946	3.962	920474	REC_EVENT	1.056	n/a	1	3	SHRIMP	PRINCE	SHRIMP	PRINCE	4	[0, 0, 0]	-999	PAL1	0	R1078N
612.908	0.016	924436	REC_END	n/a	n/a	1	-999	n/a	n/a	n/a	n/a	4	[0, 0, 0]	-999	PAL1	0	R1078N
612.924	0.275	924452	TEST_ORIENT	n/a	n/a	2	4	CHEEK	n/a	CHEEK	BALL	4	[0, 0, 0]	-999	PAL1	0	R1078N
613.775	4.0	925303	TEST_PROBE	n/a	wordpools/wordpool_EN.txt	2	4	CHEEK	n/a	CHEEK	BALL	4	[0, 0, 0]	-999	PAL1	0	R1078N
613.775	1.933	925303	REC_START	n/a	n/a	2	-999	n/a	n/a	n/a	n/a	4	[0, 0, 0]	-999	PAL1	0	R1078N
615.708	3.084	927236	REC_EVENT	1.933	n/a	2	4	CHEEK	<>	CHEEK	BALL	4	[0, 0, 0]	-999	PAL1	0	R1078N
618.792	0.017	930320	REC_END	n/a	n/a	2	-999	n/a	n/a	n/a	n/a	4	[0, 0, 0]	-999	PAL1	0	R1078N
618.809	0.275	930337	TEST_ORIENT	n/a	n/a	5	5	STRING	BEACH	BEACH	STRING	4	[0, 0, 0]	-999	PAL1	0	R1078N
619.624	4.0	931152	TEST_PROBE	n/a	wordpools/wordpool_EN.txt	5	5	STRING	BEACH	BEACH	STRING	4	[0, 0, 0]	-999	PAL1	0	R1078N
619.625	1.826	931153	REC_START	n/a	n/a	5	-999	n/a	BEACH	n/a	n/a	4	[0, 0, 0]	-999	PAL1	0	R1078N
621.451	0.462	932979	REC_EVENT	1.826	n/a	5	5	STRING	BALL	BEACH	STRING	4	[0, 0, 0]	-999	PAL1	0	R1078N
621.913	0.214	933441	REC_EVENT	2.288	n/a	5	5	STRING	<>	BEACH	STRING	4	[0, 0, 0]	-999	PAL1	0	R1078N
622.127	1.036	933655	REC_EVENT	2.502	n/a	5	5	STRING	BEACH	BEACH	STRING	4	[0, 0, 0]	-999	PAL1	0	R1078N
623.163	1.47	934691	REC_EVENT	3.538	n/a	5	5	STRING	<>	BEACH	STRING	4	[0, 0, 0]	-999	PAL1	0	R1078N
624.633	0.009	936160	REC_END	n/a	n/a	5	-999	n/a	n/a	n/a	n/a	4	[0, 0, 0]	-999	PAL1	0	R1078N
624.642	0.275	936169	TEST_ORIENT	n/a	n/a	4	6	TIE	STRING	TIE	SEAL	4	[0, 0, 0]	-999	PAL1	0	R1078N
625.509	4.0	937036	TEST_PROBE	n/a	wordpools/wordpool_EN.txt	4	6	TIE	STRING	TIE	SEAL	4	[0, 0, 0]	-999	PAL1	0	R1078N
625.509	1.144	937036	REC_START	n/a	n/a	4	-999	n/a	STRING	n/a	n/a	4	[0, 0, 0]	-999	PAL1	0	R1078N
626.653	1.017	938180	REC_EVENT	1.144	n/a	4	6	TIE	<>	TIE	SEAL	4	[0, 0, 0]	-999	PAL1	0	R1078N
627.67	2.856	939197	REC_EVENT	2.161	n/a	4	6	TIE	STRING	TIE	SEAL	4	[0, 0, 0]	-999	PAL1	0	R1078N
630.526	0.0	942053	REC_END	n/a	n/a	4	-999	n/a	n/a	n/a	n/a	4	[0, 0, 0]	-999	PAL1	0	R1078N
