onset	duration	sample	trial_type	response_time	stim_file	serialpos	probepos	probe_word	resp_word	study_1	study_2	list	test	answer	experiment	session	subject
0.0	18.81	1578	INSTRUCT_START	n/a	n/a	-999	-999	n/a	n/a	n/a	n/a	-1	[0, 0, 0]	-999	PAL1	1	R1333N
18.81	1.4	20388	INSTRUCT_END	n/a	n/a	-999	-999	n/a	n/a	n/a	n/a	-1	[0, 0, 0]	-999	PAL1	1	R1333N
20.21	6.494	21788	MIC TEST_START	n/a	n/a	-999	-999	n/a	n/a	n/a	n/a	-1	[0, 0, 0]	-999	PAL1	1	R1333N
26.704	0.018	28282	MIC TEST_END	n/a	n/a	-999	-999	n/a	n/a	n/a	n/a	-1	[0, 0, 0]	-999	PAL1	1	R1333N
26.722	0.001	28300	TRIAL_START	n/a	n/a	-999	-999	n/a	n/a	n/a	n/a	-1	[0, 0, 0]	-999	PAL1	1	R1333N
26.723	0.0	28301	TRIAL	n/a	n/a	-999	-999	n/a	n/a	n/a	n/a	-1	[0, 0, 0]	-999	PAL1	1	R1333N
26.723	4.754	28301	WAITING_START	n/a	n/a	-999	-999	n/a	n/a	n/a	n/a	-1	[0, 0, 0]	-999	PAL1	1	R1333N
31.477	0.001	33054	WAITING_END	n/a	n/a	-999	-999	n/a	n/a	n/a	n/a	-1	[0, 0, 0]	-999	PAL1	1	R1333N
31.478	10.0	33055	COUNTDOWN_START	n/a	n/a	-999	-999	n/a	n/a	n/a	n/a	-1	[0, 0, 0]	-999	PAL1	1	R1333N
41.908	0.001	43485	COUNTDOWN_END	n/a	n/a	-999	-999	n/a	n/a	n/a	n/a	-1	[0, 0, 0]	-999	PAL1	1	R1333N
41.909	0.637	43486	ORIENT_START	n/a	n/a	-999	-999	n/a	n/a	n/a	n/a	-1	[0, 0, 0]	-999	PAL1	1	R1333N
42.546	0.0	44123	ORIENT_END	n/a	n/a	-999	-999	n/a	n/a	n/a	n/a	-1	[0, 0, 0]	-999	PAL1	1	R1333N
42.546	1.162	44123	ENCODING_START	n/a	n/a	-999	-999	n/a	n/a	n/a	n/a	-1	[0, 0, 0]	-999	PAL1	1	R1333N
43.708	4.0	45285	STUDY_PAIR	n/a	n/a	1	-999	n/a	WHEEL	WAGON	RING	-1	[0, 0, 0]	-999	PAL1	1	R1333N
47.747	0.698	49324	STUDY_PAIR_OFF	n/a	n/a	1	-999	n/a	WHEEL	WAGON	RING	-1	[0, 0, 0]	-999	PAL1	1	R1333N
48.445	4.0	50022	STUDY_PAIR	n/a	n/a	2	-999	n/a	n/a	CAMEL	CHEST	-1	[0, 0, 0]	-999	PAL1	1	R1333N
52.481	0.547	54058	STUDY_PAIR_OFF	n/a	n/a	2	-999	n/a	n/a	CAMEL	CHEST	-1	[0, 0, 0]	-999	PAL1	1	R1333N
53.028	4.0	54605	STUDY_PAIR	n/a	n/a	3	-999	n/a	n/a	BEAM	FLOOD	-1	[0, 0, 0]	-999	PAL1	1	R1333N
57.066	0.569	58643	STUDY_PAIR_OFF	n/a	n/a	3	-999	n/a	n/a	BEAM	FLOOD	-1	[0, 0, 0]	-999	PAL1	1	R1333N
57.635	4.0	59212	STUDY_PAIR	n/a	n/a	4	-999	n/a	n/a	TONGUE	IMAGE	-1	[0, 0, 0]	-999	PAL1	1	R1333N
61.665	0.545	63241	STUDY_PAIR_OFF	n/a	n/a	4	-999	n/a	n/a	TONGUE	IMAGE	-1	[0, 0, 0]	-999	PAL1	1	R1333N
62.21	4.0	63786	STUDY_PAIR	n/a	n/a	5	-999	n/a	BABY	BABY	WATCH	-1	[0, 0, 0]	-999	PAL1	1	R1333N
66.25	0.589	67826	STUDY_PAIR_OFF	n/a	n/a	5	-999	n/a	BABY	BABY	WATCH	-1	[0, 0, 0]	-999	PAL1	1	R1333N
66.839	4.0	68415	STUDY_PAIR	n/a	n/a	6	-999	n/a	n/a	COTTON	RHINO	-1	[0, 0, 0]	-999	PAL1	1	R1333N
70.851	0.001	72427	STUDY_PAIR_OFF	n/a	n/a	6	-999	n/a	n/a	COTTON	RHINO	-1	[0, 0, 0]	-999	PAL1	1	R1333N
70.852	0.0	72428	ENCODING_END	n/a	n/a	-999	-999	n/a	n/a	n/a	n/a	-1	[0, 0, 0]	-999	PAL1	1	R1333N
70.852	0.001	72428	MATH_START	n/a	n/a	-999	-999	n/a	n/a	n/a	n/a	-1	[0, 0, 0]	-999	PAL1	1	R1333N
70.853	0.015	72429	START	n/a	n/a	-999	-999	n/a	n/a	n/a	n/a	-1	[-999, -999, -999]	-999	PAL1	1	R1333N
70.868	4.834	72444	PROB	4.799	n/a	-999	-999	n/a	n/a	n/a	n/a	-1	[3, 2, 4]	9	PAL1	1	R1333N
75.702	3.766	77278	PROB	3.741	n/a	-999	-999	n/a	n/a	n/a	n/a	-1	[4, 4, 1]	9	PAL1	1	R1333N
79.468	7.185	81044	PROB	7.151	n/a	-999	-999	n/a	n/a	n/a	n/a	-1	[9, 8, 8]	25	PAL1	1	R1333N
86.653	4.0	88229	PROB	3.966	n/a	-999	-999	n/a	n/a	n/a	n/a	-1	[8, 6, 1]	15	PAL1	1	R1333N
90.653	5.551	92229	PROB	5.551	n/a	-999	-999	n/a	n/a	n/a	n/a	-1	[7, 2, 6]	15	PAL1	1	R1333N
96.204	0.018	97779	STOP	n/a	n/a	-999	-999	n/a	n/a	n/a	n/a	-1	[-999, -999, -999]	-999	PAL1	1	R1333N
96.222	0.7	97797	MATH_END	n/a	n/a	-999	-999	n/a	n/a	n/a	n/a	-1	[0, 0, 0]	-999	PAL1	1	R1333N
96.922	0.005	98497	RETRIEVAL_START	n/a	n/a	-999	-999	n/a	n/a	n/a	n/a	-1	[0, 0, 0]	-999	PAL1	1	R1333N
96.927	0.279	98502	ORIENT_START	n/a	n/a	-999	-999	n/a	n/a	n/a	n/a	-1	[0, 0, 0]	-999	PAL1	1	R1333N
97.206	0.697	98781	ORIENT_END	n/a	n/a	-999	-999	n/a	n/a	n/a	n/a	-1	[0, 0, 0]	-999	PAL1	1	R1333N
97.903	0.001	99478	REC_START	n/a	n/a	1	1	WAGON	WHEEL	WAGON	RING	-1	[0, 0, 0]	-999	PAL1	1	R1333N
97.904	4.0	99479	PROBE_START	n/a	n/a	1	1	WAGON	WHEEL	WAGON	RING	-1	[0, 0, 0]	-999	PAL1	1	R1333N
100.598	1.342	102173	REC_EVENT	2.694	n/a	1	1	WAGON	WHEEL	WAGON	RING	-1	[0, 0, 0]	-999	PAL1	1	R1333N
101.94	1.0	103515	PROBE_END	n/a	n/a	1	1	WAGON	n/a	WAGON	RING	-1	[0, 0, 0]	-999	PAL1	1	R1333N
102.94	0.011	104515	REC_END	n/a	n/a	1	1	WAGON	n/a	WAGON	RING	-1	[0, 0, 0]	-999	PAL1	1	R1333N
102.951	0.272	104526	ORIENT_START	n/a	n/a	-999	-999	n/a	n/a	n/a	n/a	-1	[0, 0, 0]	-999	PAL1	1	R1333N
103.223	0.551	104798	ORIENT_END	n/a	n/a	-999	-999	n/a	n/a	n/a	n/a	-1	[0, 0, 0]	-999	PAL1	1	R1333N
103.774	0.001	105349	REC_START	n/a	n/a	4	2	TONGUE	n/a	TONGUE	IMAGE	-1	[0, 0, 0]	-999	PAL1	1	R1333N
103.775	4.0	105350	PROBE_START	n/a	n/a	4	2	TONGUE	n/a	TONGUE	IMAGE	-1	[0, 0, 0]	-999	PAL1	1	R1333N
106.619	1.188	108194	REC_EVENT	2.844	n/a	4	2	TONGUE	<>	TONGUE	IMAGE	-1	[0, 0, 0]	-999	PAL1	1	R1333N
107.807	1.0	109382	PROBE_END	n/a	n/a	4	2	TONGUE	n/a	TONGUE	IMAGE	-1	[0, 0, 0]	-999	PAL1	1	R1333N
108.807	0.011	110382	REC_END	n/a	n/a	4	2	TONGUE	n/a	TONGUE	IMAGE	-1	[0, 0, 0]	-999	PAL1	1	R1333N
108.818	0.273	110393	ORIENT_START	n/a	n/a	-999	-999	n/a	n/a	n/a	n/a	-1	[0, 0, 0]	-999	PAL1	1	R1333N
109.091	0.669	110666	ORIENT_END	n/a	n/a	-999	-999	n/a	n/a	n/a	n/a	-1	[0, 0, 0]	-999	PAL1	1	R1333N
109.76	0.0	111335	REC_START	n/a	n/a	3	3	FLOOD	n/a	BEAM	FLOOD	-1	[0, 0, 0]	-999	PAL1	1	R1333N
109.76	4.0	111335	PROBE_START	n/a	n/a	3	3	FLOOD	n/a	BEAM	FLOOD	-1	[0, 0, 0]	-999	PAL1	1	R1333N
111.895	1.897	113470	REC_EVENT	2.135	n/a	3	3	FLOOD	<>	BEAM	FLOOD	-1	[0, 0, 0]	-999	PAL1	1	R1333N
113.792	1.0	115367	PROBE_END	n/a	n/a	3	3	FLOOD	n/a	BEAM	FLOOD	-1	[0, 0, 0]	-999	PAL1	1	R1333N
114.792	0.011	116367	REC_END	n/a	n/a	3	3	FLOOD	n/a	BEAM	FLOOD	-1	[0, 0, 0]	-999	PAL1	1	R1333N
114.803	0.272	116378	ORIENT_START	n/a	n/a	-999	-999	n/a	n/a	n/a	n/a	-1	[0, 0, 0]	-999	PAL1	1	R1333N
115.075	0.633	116650	ORIENT_END	n/a	n/a	-999	-999	n/a	n/a	n/a	n/a	-1	[0, 0, 0]	-999	PAL1	1	R1333N
115.708	0.0	117283	REC_START	n/a	n/a	2	4	CHEST	n/a	CAMEL	CHEST	-1	[0, 0, 0]	-999	PAL1	1	R1333N
115.708	4.0	117283	PROBE_START	n/a	n/a	2	4	CHEST	n/a	CAMEL	CHEST	-1	[0, 0, 0]	-999	PAL1	1	R1333N
119.547	0.196	121122	REC_EVENT	3.839	n/a	2	4	CHEST	<>	CAMEL	CHEST	-1	[0, 0, 0]	-999	PAL1	1	R1333N
119.743	0.999	121318	PROBE_END	n/a	n/a	2	4	CHEST	n/a	CAMEL	CHEST	-1	[0, 0, 0]	-999	PAL1	1	R1333N
120.742	0.014	122317	REC_END	n/a	n/a	2	4	CHEST	n/a	CAMEL	CHEST	-1	[0, 0, 0]	-999	PAL1	1	R1333N
120.756	0.27	122331	ORIENT_START	n/a	n/a	-999	-999	n/a	n/a	n/a	n/a	-1	[0, 0, 0]	-999	PAL1	1	R1333N
121.026	0.572	122601	ORIENT_END	n/a	n/a	-999	-999	n/a	n/a	n/a	n/a	-1	[0, 0, 0]	-999	PAL1	1	R1333N
121.598	0.001	123173	REC_START	n/a	n/a	5	5	WATCH	BABY	BABY	WATCH	-1	[0, 0, 0]	-999	PAL1	1	R1333N
121.599	4.0	123174	PROBE_START	n/a	n/a	5	5	WATCH	BABY	BABY	WATCH	-1	[0, 0, 0]	-999	PAL1	1	R1333N
124.284	1.342	125859	REC_EVENT	2.685	n/a	5	5	WATCH	BABY	BABY	WATCH	-1	[0, 0, 0]	-999	PAL1	1	R1333N
125.626	1.0	127201	PROBE_END	n/a	n/a	5	5	WATCH	n/a	BABY	WATCH	-1	[0, 0, 0]	-999	PAL1	1	R1333N
126.626	0.013	128201	REC_END	n/a	n/a	5	5	WATCH	n/a	BABY	WATCH	-1	[0, 0, 0]	-999	PAL1	1	R1333N
126.639	0.271	128214	ORIENT_START	n/a	n/a	-999	-999	n/a	n/a	n/a	n/a	-1	[0, 0, 0]	-999	PAL1	1	R1333N
126.91	0.538	128485	ORIENT_END	n/a	n/a	-999	-999	n/a	n/a	n/a	n/a	-1	[0, 0, 0]	-999	PAL1	1	R1333N
127.448	0.001	129023	REC_START	n/a	n/a	6	6	COTTON	n/a	COTTON	RHINO	-1	[0, 0, 0]	-999	PAL1	1	R1333N
127.449	4.0	129024	PROBE_START	n/a	n/a	6	6	COTTON	n/a	COTTON	RHINO	-1	[0, 0, 0]	-999	PAL1	1	R1333N
130.422	1.055	131996	REC_EVENT	2.973	n/a	6	6	COTTON	<>	COTTON	RHINO	-1	[0, 0, 0]	-999	PAL1	1	R1333N
131.477	1.0	133051	PROBE_END	n/a	n/a	6	6	COTTON	n/a	COTTON	RHINO	-1	[0, 0, 0]	-999	PAL1	1	R1333N
132.477	0.01	134051	REC_END	n/a	n/a	6	6	COTTON	n/a	COTTON	RHINO	-1	[0, 0, 0]	-999	PAL1	1	R1333N
132.487	0.001	134061	RETRIEVAL_END	n/a	n/a	-999	-999	n/a	n/a	n/a	n/a	-1	[0, 0, 0]	-999	PAL1	1	R1333N
132.488	2.792	134062	PRACTICE_POST_INSTRUCT_START	n/a	n/a	-999	-999	n/a	n/a	n/a	n/a	-1	[0, 0, 0]	-999	PAL1	1	R1333N
135.28	0.0	136854	PRACTICE_POST_INSTRUCT_END	n/a	n/a	-999	-999	n/a	n/a	n/a	n/a	-1	[0, 0, 0]	-999	PAL1	1	R1333N
135.28	0.023	136854	TRIAL_END	n/a	n/a	-999	-999	n/a	n/a	n/a	n/a	-1	[0, 0, 0]	-999	PAL1	1	R1333N
135.303	0.0	136877	TRIAL_START	n/a	n/a	-999	-999	n/a	n/a	n/a	n/a	-1	[0, 0, 0]	-999	PAL1	1	R1333N
135.303	0.0	136877	TRIAL	n/a	n/a	-999	-999	n/a	n/a	n/a	n/a	1	[0, 0, 0]	-999	PAL1	1	R1333N
135.303	2.208	136877	WAITING_START	n/a	n/a	-999	-999	n/a	n/a	n/a	n/a	1	[0, 0, 0]	-999	PAL1	1	R1333N
137.511	0.001	139085	WAITING_END	n/a	n/a	-999	-999	n/a	n/a	n/a	n/a	1	[0, 0, 0]	-999	PAL1	1	R1333N
137.512	10.0	139086	COUNTDOWN_START	n/a	n/a	-999	-999	n/a	n/a	n/a	n/a	1	[0, 0, 0]	-999	PAL1	1	R1333N
147.943	0.0	149517	COUNTDOWN_END	n/a	n/a	-999	-999	n/a	n/a	n/a	n/a	1	[0, 0, 0]	-999	PAL1	1	R1333N
147.943	0.52	149517	ORIENT_START	n/a	n/a	-999	-999	n/a	n/a	n/a	n/a	1	[0, 0, 0]	-999	PAL1	1	R1333N
148.463	0.001	150037	ORIENT_END	n/a	n/a	-999	-999	n/a	n/a	n/a	n/a	1	[0, 0, 0]	-999	PAL1	1	R1333N
148.464	1.047	150038	ENCODING_START	n/a	n/a	-999	-999	n/a	n/a	n/a	n/a	1	[0, 0, 0]	-999	PAL1	1	R1333N
149.511	4.0	151085	STUDY_PAIR	n/a	wordpools/wordpool_EN.txt	1	-999	n/a	n/a	ROOM	BRIDGE	1	[0, 0, 0]	-999	PAL1	1	R1333N
153.547	0.529	155121	STUDY_PAIR_OFF	n/a	n/a	1	-999	n/a	n/a	ROOM	BRIDGE	1	[0, 0, 0]	-999	PAL1	1	R1333N
154.076	4.0	155650	STUDY_PAIR	n/a	wordpools/wordpool_EN.txt	2	-999	n/a	n/a	WORLD	TOAD	1	[0, 0, 0]	-999	PAL1	1	R1333N
158.116	0.612	159690	STUDY_PAIR_OFF	n/a	n/a	2	-999	n/a	n/a	WORLD	TOAD	1	[0, 0, 0]	-999	PAL1	1	R1333N
158.728	4.0	160302	STUDY_PAIR	n/a	wordpools/wordpool_EN.txt	3	-999	n/a	WEB	WEB	NET	1	[0, 0, 0]	-999	PAL1	1	R1333N
162.766	0.505	164339	STUDY_PAIR_OFF	n/a	n/a	3	-999	n/a	WEB	WEB	NET	1	[0, 0, 0]	-999	PAL1	1	R1333N
163.271	4.0	164844	STUDY_PAIR	n/a	wordpools/wordpool_EN.txt	4	-999	n/a	n/a	INK	MAIL	1	[0, 0, 0]	-999	PAL1	1	R1333N
167.3	0.702	168873	STUDY_PAIR_OFF	n/a	n/a	4	-999	n/a	n/a	INK	MAIL	1	[0, 0, 0]	-999	PAL1	1	R1333N
168.002	4.0	169575	STUDY_PAIR	n/a	wordpools/wordpool_EN.txt	5	-999	n/a	SOAP	SOAP	RAT	1	[0, 0, 0]	-999	PAL1	1	R1333N
172.035	0.525	173608	STUDY_PAIR_OFF	n/a	n/a	5	-999	n/a	SOAP	SOAP	RAT	1	[0, 0, 0]	-999	PAL1	1	R1333N
172.56	4.0	174133	STUDY_PAIR	n/a	wordpools/wordpool_EN.txt	6	-999	n/a	n/a	YARD	ROOT	1	[0, 0, 0]	-999	PAL1	1	R1333N
176.584	0.001	178157	STUDY_PAIR_OFF	n/a	n/a	6	-999	n/a	n/a	YARD	ROOT	1	[0, 0, 0]	-999	PAL1	1	R1333N
176.585	0.0	178158	MATH_START	n/a	n/a	-999	-999	n/a	n/a	n/a	n/a	1	[0, 0, 0]	-999	PAL1	1	R1333N
176.585	0.0	178158	ENCODING_END	n/a	n/a	-999	-999	n/a	n/a	n/a	n/a	1	[0, 0, 0]	-999	PAL1	1	R1333N
176.585	0.016	178158	START	n/a	n/a	-999	-999	n/a	n/a	n/a	n/a	1	[-999, -999, -999]	-999	PAL1	1	R1333N
176.601	4.635	178174	PROB	4.603	n/a	-999	-999	n/a	n/a	n/a	n/a	1	[7, 2, 9]	20	PAL1	1	R1333N
181.236	5.233	182809	PROB	5.199	n/a	-999	-999	n/a	n/a	n/a	n/a	1	[7, 1, 9]	17	PAL1	1	R1333N
186.469	4.285	188042	PROB	4.247	n/a	-999	-999	n/a	n/a	n/a	n/a	1	[6, 7, 3]	16	PAL1	1	R1333N
190.754	5.101	192327	PROB	5.066	n/a	-999	-999	n/a	n/a	n/a	n/a	1	[6, 7, 5]	18	PAL1	1	R1333N
195.855	2.109	197428	PROB	2.109	n/a	-999	-999	n/a	n/a	n/a	n/a	1	[1, 1, 1]	3	PAL1	1	R1333N
197.964	0.008	199536	STOP	n/a	n/a	-999	-999	n/a	n/a	n/a	n/a	1	[-999, -999, -999]	-999	PAL1	1	R1333N
197.972	0.651	199544	MATH_END	n/a	n/a	-999	-999	n/a	n/a	n/a	n/a	1	[0, 0, 0]	-999	PAL1	1	R1333N
198.623	0.001	200195	RETRIEVAL_START	n/a	n/a	-999	-999	n/a	n/a	n/a	n/a	1	[0, 0, 0]	-999	PAL1	1	R1333N
198.624	0.282	200196	ORIENT_START	n/a	n/a	-999	-999	n/a	n/a	n/a	n/a	1	[0, 0, 0]	-999	PAL1	1	R1333N
198.906	0.716	200478	ORIENT_END	n/a	n/a	-999	-999	n/a	n/a	n/a	n/a	1	[0, 0, 0]	-999	PAL1	1	R1333N
199.622	0.0	201194	REC_START	n/a	n/a	3	1	NET	WEB	WEB	NET	1	[0, 0, 0]	-999	PAL1	1	R1333N
199.622	4.0	201194	PROBE_START	n/a	wordpools/wordpool_EN.txt	3	1	NET	WEB	WEB	NET	1	[0, 0, 0]	-999	PAL1	1	R1333N
202.361	1.294	203933	REC_EVENT	2.739	n/a	3	1	NET	WEB	WEB	NET	1	[0, 0, 0]	-999	PAL1	1	R1333N
203.655	1.0	205227	PROBE_END	n/a	n/a	3	1	NET	n/a	WEB	NET	1	[0, 0, 0]	-999	PAL1	1	R1333N
204.655	0.011	206227	REC_END	n/a	n/a	3	1	NET	n/a	WEB	NET	1	[0, 0, 0]	-999	PAL1	1	R1333N
204.666	0.274	206238	ORIENT_START	n/a	n/a	-999	-999	n/a	n/a	n/a	n/a	1	[0, 0, 0]	-999	PAL1	1	R1333N
204.94	0.674	206512	ORIENT_END	n/a	n/a	-999	-999	n/a	n/a	n/a	n/a	1	[0, 0, 0]	-999	PAL1	1	R1333N
205.614	4.0	207186	PROBE_START	n/a	wordpools/wordpool_EN.txt	4	2	INK	n/a	INK	MAIL	1	[0, 0, 0]	-999	PAL1	1	R1333N
205.614	4.026	207186	REC_START	n/a	n/a	4	2	INK	n/a	INK	MAIL	1	[0, 0, 0]	-999	PAL1	1	R1333N
209.64	1.001	211212	PROBE_END	n/a	n/a	4	2	INK	n/a	INK	MAIL	1	[0, 0, 0]	-999	PAL1	1	R1333N
210.641	0.012	212213	REC_END	n/a	n/a	4	2	INK	n/a	INK	MAIL	1	[0, 0, 0]	-999	PAL1	1	R1333N
210.653	0.255	212225	ORIENT_START	n/a	n/a	-999	-999	n/a	n/a	n/a	n/a	1	[0, 0, 0]	-999	PAL1	1	R1333N
210.908	0.598	212480	ORIENT_END	n/a	n/a	-999	-999	n/a	n/a	n/a	n/a	1	[0, 0, 0]	-999	PAL1	1	R1333N
211.506	0.022	213078	REC_EVENT	5.892	n/a	4	2	INK	<>	INK	MAIL	1	[0, 0, 0]	-999	PAL1	1	R1333N
211.528	0.0	213100	REC_START	n/a	n/a	1	3	ROOM	n/a	ROOM	BRIDGE	1	[0, 0, 0]	-999	PAL1	1	R1333N
211.528	4.0	213100	PROBE_START	n/a	wordpools/wordpool_EN.txt	1	3	ROOM	n/a	ROOM	BRIDGE	1	[0, 0, 0]	-999	PAL1	1	R1333N
214.783	0.774	216355	REC_EVENT	3.255	n/a	1	3	ROOM	<>	ROOM	BRIDGE	1	[0, 0, 0]	-999	PAL1	1	R1333N
215.557	1.0	217129	PROBE_END	n/a	n/a	1	3	ROOM	n/a	ROOM	BRIDGE	1	[0, 0, 0]	-999	PAL1	1	R1333N
216.557	0.012	218129	REC_END	n/a	n/a	1	3	ROOM	n/a	ROOM	BRIDGE	1	[0, 0, 0]	-999	PAL1	1	R1333N
216.569	0.273	218141	ORIENT_START	n/a	n/a	-999	-999	n/a	n/a	n/a	n/a	1	[0, 0, 0]	-999	PAL1	1	R1333N
216.842	0.587	218414	ORIENT_END	n/a	n/a	-999	-999	n/a	n/a	n/a	n/a	1	[0, 0, 0]	-999	PAL1	1	R1333N
217.429	0.0	219001	REC_START	n/a	n/a	6	4	ROOT	n/a	YARD	ROOT	1	[0, 0, 0]	-999	PAL1	1	R1333N
217.429	4.0	219001	PROBE_START	n/a	wordpools/wordpool_EN.txt	6	4	ROOT	n/a	YARD	ROOT	1	[0, 0, 0]	-999	PAL1	1	R1333N
221.458	0.01	223030	PROBE_END	n/a	n/a	6	4	ROOT	n/a	YARD	ROOT	1	[0, 0, 0]	-999	PAL1	1	R1333N
221.468	0.99	223040	REC_EVENT	4.039	n/a	6	4	ROOT	<>	YARD	ROOT	1	[0, 0, 0]	-999	PAL1	1	R1333N
222.458	0.011	224030	REC_END	n/a	n/a	6	4	ROOT	n/a	YARD	ROOT	1	[0, 0, 0]	-999	PAL1	1	R1333N
222.469	0.274	224041	ORIENT_START	n/a	n/a	-999	-999	n/a	n/a	n/a	n/a	1	[0, 0, 0]	-999	PAL1	1	R1333N
222.743	0.698	224315	ORIENT_END	n/a	n/a	-999	-999	n/a	n/a	n/a	n/a	1	[0, 0, 0]	-999	PAL1	1	R1333N
223.441	0.0	225013	REC_START	n/a	n/a	5	5	RAT	SOAP	SOAP	RAT	1	[0, 0, 0]	-999	PAL1	1	R1333N
223.441	4.0	225013	PROBE_START	n/a	wordpools/wordpool_EN.txt	5	5	RAT	SOAP	SOAP	RAT	1	[0, 0, 0]	-999	PAL1	1	R1333N
226.048	1.428	227620	REC_EVENT	2.607	n/a	5	5	RAT	SOAP	SOAP	RAT	1	[0, 0, 0]	-999	PAL1	1	R1333N
227.476	1.001	229048	PROBE_END	n/a	n/a	5	5	RAT	n/a	SOAP	RAT	1	[0, 0, 0]	-999	PAL1	1	R1333N
228.477	0.013	230049	REC_END	n/a	n/a	5	5	RAT	n/a	SOAP	RAT	1	[0, 0, 0]	-999	PAL1	1	R1333N
228.49	0.271	230062	ORIENT_START	n/a	n/a	-999	-999	n/a	n/a	n/a	n/a	1	[0, 0, 0]	-999	PAL1	1	R1333N
228.761	0.74	230333	ORIENT_END	n/a	n/a	-999	-999	n/a	n/a	n/a	n/a	1	[0, 0, 0]	-999	PAL1	1	R1333N
229.501	4.0	231073	PROBE_START	n/a	wordpools/wordpool_EN.txt	2	6	WORLD	n/a	WORLD	TOAD	1	[0, 0, 0]	-999	PAL1	1	R1333N
229.501	3.012	231073	REC_START	n/a	n/a	2	6	WORLD	n/a	WORLD	TOAD	1	[0, 0, 0]	-999	PAL1	1	R1333N
232.513	1.014	234084	REC_EVENT	3.012	n/a	2	6	WORLD	<>	WORLD	TOAD	1	[0, 0, 0]	-999	PAL1	1	R1333N
233.527	1.0	235098	PROBE_END	n/a	n/a	2	6	WORLD	n/a	WORLD	TOAD	1	[0, 0, 0]	-999	PAL1	1	R1333N
234.527	0.007	236098	REC_END	n/a	n/a	2	6	WORLD	n/a	WORLD	TOAD	1	[0, 0, 0]	-999	PAL1	1	R1333N
234.534	0.0	236105	RETRIEVAL_END	n/a	n/a	-999	-999	n/a	n/a	n/a	n/a	1	[0, 0, 0]	-999	PAL1	1	R1333N
234.534	0.02	236105	TRIAL_END	n/a	n/a	-999	-999	n/a	n/a	n/a	n/a	1	[0, 0, 0]	-999	PAL1	1	R1333N
234.554	0.0	236125	TRIAL_START	n/a	n/a	-999	-999	n/a	n/a	n/a	n/a	1	[0, 0, 0]	-999	PAL1	1	R1333N
234.554	0.0	236125	TRIAL	n/a	n/a	-999	-999	n/a	n/a	n/a	n/a	2	[0, 0, 0]	-999	PAL1	1	R1333N
234.554	2.057	236125	WAITING_START	n/a	n/a	-999	-999	n/a	n/a	n/a	n/a	2	[0, 0, 0]	-999	PAL1	1	R1333N
236.611	0.0	238182	WAITING_END	n/a	n/a	-999	-999	n/a	n/a	n/a	n/a	2	[0, 0, 0]	-999	PAL1	1	R1333N
236.611	10.0	238182	COUNTDOWN_START	n/a	n/a	-999	-999	n/a	n/a	n/a	n/a	2	[0, 0, 0]	-999	PAL1	1	R1333N
247.041	0.0	248612	COUNTDOWN_END	n/a	n/a	-999	-999	n/a	n/a	n/a	n/a	2	[0, 0, 0]	-999	PAL1	1	R1333N
247.041	0.555	248612	ORIENT_START	n/a	n/a	-999	-999	n/a	n/a	n/a	n/a	2	[0, 0, 0]	-999	PAL1	1	R1333N
247.596	0.001	249167	ORIENT_END	n/a	n/a	-999	-999	n/a	n/a	n/a	n/a	2	[0, 0, 0]	-999	PAL1	1	R1333N
247.597	1.132	249168	ENCODING_START	n/a	n/a	-999	-999	n/a	n/a	n/a	n/a	2	[0, 0, 0]	-999	PAL1	1	R1333N
248.729	4.0	250300	STUDY_PAIR	n/a	wordpools/wordpool_EN.txt	1	-999	n/a	SCHOOL	PEARL	SCHOOL	2	[0, 0, 0]	-999	PAL1	1	R1333N
252.765	0.658	254336	STUDY_PAIR_OFF	n/a	n/a	1	-999	n/a	SCHOOL	PEARL	SCHOOL	2	[0, 0, 0]	-999	PAL1	1	R1333N
253.423	4.0	254994	STUDY_PAIR	n/a	wordpools/wordpool_EN.txt	2	-999	n/a	n/a	HOOK	BOAT	2	[0, 0, 0]	-999	PAL1	1	R1333N
257.448	0.506	259019	STUDY_PAIR_OFF	n/a	n/a	2	-999	n/a	n/a	HOOK	BOAT	2	[0, 0, 0]	-999	PAL1	1	R1333N
257.954	4.0	259525	STUDY_PAIR	n/a	wordpools/wordpool_EN.txt	3	-999	n/a	n/a	DITCH	SEAL	2	[0, 0, 0]	-999	PAL1	1	R1333N
261.983	0.634	263554	STUDY_PAIR_OFF	n/a	n/a	3	-999	n/a	n/a	DITCH	SEAL	2	[0, 0, 0]	-999	PAL1	1	R1333N
262.617	4.0	264188	STUDY_PAIR	n/a	wordpools/wordpool_EN.txt	4	-999	n/a	NOSE	NOSE	PASTE	2	[0, 0, 0]	-999	PAL1	1	R1333N
266.649	0.534	268219	STUDY_PAIR_OFF	n/a	n/a	4	-999	n/a	NOSE	NOSE	PASTE	2	[0, 0, 0]	-999	PAL1	1	R1333N
267.183	4.0	268753	STUDY_PAIR	n/a	wordpools/wordpool_EN.txt	5	-999	n/a	POLE	HILL	POLE	2	[0, 0, 0]	-999	PAL1	1	R1333N
271.218	0.577	272788	STUDY_PAIR_OFF	n/a	n/a	5	-999	n/a	POLE	HILL	POLE	2	[0, 0, 0]	-999	PAL1	1	R1333N
271.795	4.0	273365	STUDY_PAIR	n/a	wordpools/wordpool_EN.txt	6	-999	n/a	n/a	GATE	SPOON	2	[0, 0, 0]	-999	PAL1	1	R1333N
275.835	0.001	277405	STUDY_PAIR_OFF	n/a	n/a	6	-999	n/a	n/a	GATE	SPOON	2	[0, 0, 0]	-999	PAL1	1	R1333N
275.836	0.0	277406	ENCODING_END	n/a	n/a	-999	-999	n/a	n/a	n/a	n/a	2	[0, 0, 0]	-999	PAL1	1	R1333N
275.836	0.0	277406	MATH_START	n/a	n/a	-999	-999	n/a	n/a	n/a	n/a	2	[0, 0, 0]	-999	PAL1	1	R1333N
275.836	0.015	277406	START	n/a	n/a	-999	-999	n/a	n/a	n/a	n/a	2	[-999, -999, -999]	-999	PAL1	1	R1333N
275.851	4.533	277421	PROB	4.496	n/a	-999	-999	n/a	n/a	n/a	n/a	2	[8, 4, 4]	16	PAL1	1	R1333N
280.384	4.185	281954	PROB	4.155	n/a	-999	-999	n/a	n/a	n/a	n/a	2	[1, 8, 5]	14	PAL1	1	R1333N
284.569	3.983	286139	PROB	3.954	n/a	-999	-999	n/a	n/a	n/a	n/a	2	[3, 8, 1]	12	PAL1	1	R1333N
288.552	5.118	290122	PROB	5.083	n/a	-999	-999	n/a	n/a	n/a	n/a	2	[9, 7, 1]	16	PAL1	1	R1333N
293.67	3.965	295240	PROB	3.965	n/a	-999	-999	n/a	n/a	n/a	n/a	2	[3, 6, 2]	11	PAL1	1	R1333N
297.635	0.019	299204	STOP	n/a	n/a	-999	-999	n/a	n/a	n/a	n/a	2	[-999, -999, -999]	-999	PAL1	1	R1333N
297.654	0.515	299223	MATH_END	n/a	n/a	-999	-999	n/a	n/a	n/a	n/a	2	[0, 0, 0]	-999	PAL1	1	R1333N
298.169	0.002	299738	RETRIEVAL_START	n/a	n/a	-999	-999	n/a	n/a	n/a	n/a	2	[0, 0, 0]	-999	PAL1	1	R1333N
298.171	0.283	299740	ORIENT_START	n/a	n/a	-999	-999	n/a	n/a	n/a	n/a	2	[0, 0, 0]	-999	PAL1	1	R1333N
298.454	0.547	300023	ORIENT_END	n/a	n/a	-999	-999	n/a	n/a	n/a	n/a	2	[0, 0, 0]	-999	PAL1	1	R1333N
299.001	0.0	300570	REC_START	n/a	n/a	1	1	PEARL	SCHOOL	PEARL	SCHOOL	2	[0, 0, 0]	-999	PAL1	1	R1333N
299.001	4.0	300570	PROBE_START	n/a	wordpools/wordpool_EN.txt	1	1	PEARL	SCHOOL	PEARL	SCHOOL	2	[0, 0, 0]	-999	PAL1	1	R1333N
301.768	1.272	303337	REC_EVENT	2.767	n/a	1	1	PEARL	SCHOOL	PEARL	SCHOOL	2	[0, 0, 0]	-999	PAL1	1	R1333N
303.04	0.999	304609	PROBE_END	n/a	n/a	1	1	PEARL	n/a	PEARL	SCHOOL	2	[0, 0, 0]	-999	PAL1	1	R1333N
304.039	0.012	305608	REC_END	n/a	n/a	1	1	PEARL	n/a	PEARL	SCHOOL	2	[0, 0, 0]	-999	PAL1	1	R1333N
304.051	0.272	305620	ORIENT_START	n/a	n/a	-999	-999	n/a	n/a	n/a	n/a	2	[0, 0, 0]	-999	PAL1	1	R1333N
304.323	0.538	305892	ORIENT_END	n/a	n/a	-999	-999	n/a	n/a	n/a	n/a	2	[0, 0, 0]	-999	PAL1	1	R1333N
304.861	0.001	306430	REC_START	n/a	n/a	2	2	BOAT	n/a	HOOK	BOAT	2	[0, 0, 0]	-999	PAL1	1	R1333N
304.862	4.0	306431	PROBE_START	n/a	wordpools/wordpool_EN.txt	2	2	BOAT	n/a	HOOK	BOAT	2	[0, 0, 0]	-999	PAL1	1	R1333N
308.301	0.59	309870	REC_EVENT	3.439	n/a	2	2	BOAT	<>	HOOK	BOAT	2	[0, 0, 0]	-999	PAL1	1	R1333N
308.891	1.0	310460	PROBE_END	n/a	n/a	2	2	BOAT	n/a	HOOK	BOAT	2	[0, 0, 0]	-999	PAL1	1	R1333N
309.891	0.012	311460	REC_END	n/a	n/a	2	2	BOAT	n/a	HOOK	BOAT	2	[0, 0, 0]	-999	PAL1	1	R1333N
309.903	0.271	311472	ORIENT_START	n/a	n/a	-999	-999	n/a	n/a	n/a	n/a	2	[0, 0, 0]	-999	PAL1	1	R1333N
310.174	0.511	311743	ORIENT_END	n/a	n/a	-999	-999	n/a	n/a	n/a	n/a	2	[0, 0, 0]	-999	PAL1	1	R1333N
310.685	0.0	312254	REC_START	n/a	n/a	5	3	HILL	POLE	HILL	POLE	2	[0, 0, 0]	-999	PAL1	1	R1333N
310.685	4.0	312254	PROBE_START	n/a	wordpools/wordpool_EN.txt	5	3	HILL	POLE	HILL	POLE	2	[0, 0, 0]	-999	PAL1	1	R1333N
312.672	2.036	314241	REC_EVENT	1.987	n/a	5	3	HILL	POLE	HILL	POLE	2	[0, 0, 0]	-999	PAL1	1	R1333N
314.708	1.001	316277	PROBE_END	n/a	n/a	5	3	HILL	n/a	HILL	POLE	2	[0, 0, 0]	-999	PAL1	1	R1333N
315.709	0.01	317278	REC_END	n/a	n/a	5	3	HILL	n/a	HILL	POLE	2	[0, 0, 0]	-999	PAL1	1	R1333N
315.719	0.273	317288	ORIENT_START	n/a	n/a	-999	-999	n/a	n/a	n/a	n/a	2	[0, 0, 0]	-999	PAL1	1	R1333N
315.992	0.654	317561	ORIENT_END	n/a	n/a	-999	-999	n/a	n/a	n/a	n/a	2	[0, 0, 0]	-999	PAL1	1	R1333N
316.646	0.0	318215	REC_START	n/a	n/a	4	4	PASTE	NOSE	NOSE	PASTE	2	[0, 0, 0]	-999	PAL1	1	R1333N
316.646	4.0	318215	PROBE_START	n/a	wordpools/wordpool_EN.txt	4	4	PASTE	NOSE	NOSE	PASTE	2	[0, 0, 0]	-999	PAL1	1	R1333N
319.381	1.294	320950	REC_EVENT	2.735	n/a	4	4	PASTE	NOSE	NOSE	PASTE	2	[0, 0, 0]	-999	PAL1	1	R1333N
320.675	1.01	322244	PROBE_END	n/a	n/a	4	4	PASTE	n/a	NOSE	PASTE	2	[0, 0, 0]	-999	PAL1	1	R1333N
321.685	0.012	323254	REC_END	n/a	n/a	4	4	PASTE	n/a	NOSE	PASTE	2	[0, 0, 0]	-999	PAL1	1	R1333N
321.697	0.279	323266	ORIENT_START	n/a	n/a	-999	-999	n/a	n/a	n/a	n/a	2	[0, 0, 0]	-999	PAL1	1	R1333N
321.976	0.646	323545	ORIENT_END	n/a	n/a	-999	-999	n/a	n/a	n/a	n/a	2	[0, 0, 0]	-999	PAL1	1	R1333N
322.622	0.001	324191	REC_START	n/a	n/a	3	5	DITCH	n/a	DITCH	SEAL	2	[0, 0, 0]	-999	PAL1	1	R1333N
322.623	4.0	324192	PROBE_START	n/a	wordpools/wordpool_EN.txt	3	5	DITCH	n/a	DITCH	SEAL	2	[0, 0, 0]	-999	PAL1	1	R1333N
325.585	1.074	327154	REC_EVENT	2.962	n/a	3	5	DITCH	<>	DITCH	SEAL	2	[0, 0, 0]	-999	PAL1	1	R1333N
326.659	1.0	328228	PROBE_END	n/a	n/a	3	5	DITCH	n/a	DITCH	SEAL	2	[0, 0, 0]	-999	PAL1	1	R1333N
327.659	0.014	329228	REC_END	n/a	n/a	3	5	DITCH	n/a	DITCH	SEAL	2	[0, 0, 0]	-999	PAL1	1	R1333N
327.673	0.271	329242	ORIENT_START	n/a	n/a	-999	-999	n/a	n/a	n/a	n/a	2	[0, 0, 0]	-999	PAL1	1	R1333N
327.944	0.626	329513	ORIENT_END	n/a	n/a	-999	-999	n/a	n/a	n/a	n/a	2	[0, 0, 0]	-999	PAL1	1	R1333N
328.57	0.001	330139	REC_START	n/a	n/a	6	6	SPOON	n/a	GATE	SPOON	2	[0, 0, 0]	-999	PAL1	1	R1333N
328.571	4.0	330140	PROBE_START	n/a	wordpools/wordpool_EN.txt	6	6	SPOON	n/a	GATE	SPOON	2	[0, 0, 0]	-999	PAL1	1	R1333N
331.783	0.81	333351	REC_EVENT	3.212	n/a	6	6	SPOON	<>	GATE	SPOON	2	[0, 0, 0]	-999	PAL1	1	R1333N
332.593	1.0	334161	PROBE_END	n/a	n/a	6	6	SPOON	n/a	GATE	SPOON	2	[0, 0, 0]	-999	PAL1	1	R1333N
333.593	0.012	335161	REC_END	n/a	n/a	6	6	SPOON	n/a	GATE	SPOON	2	[0, 0, 0]	-999	PAL1	1	R1333N
333.605	0.001	335173	RETRIEVAL_END	n/a	n/a	-999	-999	n/a	n/a	n/a	n/a	2	[0, 0, 0]	-999	PAL1	1	R1333N
333.606	0.021	335174	TRIAL_END	n/a	n/a	-999	-999	n/a	n/a	n/a	n/a	2	[0, 0, 0]	-999	PAL1	1	R1333N
333.627	0.0	335195	TRIAL_START	n/a	n/a	-999	-999	n/a	n/a	n/a	n/a	2	[0, 0, 0]	-999	PAL1	1	R1333N
333.627	0.001	335195	TRIAL	n/a	n/a	-999	-999	n/a	n/a	n/a	n/a	3	[0, 0, 0]	-999	PAL1	1	R1333N
333.628	3.799	335196	WAITING_START	n/a	n/a	-999	-999	n/a	n/a	n/a	n/a	3	[0, 0, 0]	-999	PAL1	1	R1333N
337.427	0.001	338995	WAITING_END	n/a	n/a	-999	-999	n/a	n/a	n/a	n/a	3	[0, 0, 0]	-999	PAL1	1	R1333N
337.428	10.0	338996	COUNTDOWN_START	n/a	n/a	-999	-999	n/a	n/a	n/a	n/a	3	[0, 0, 0]	-999	PAL1	1	R1333N
347.857	0.0	349425	COUNTDOWN_END	n/a	n/a	-999	-999	n/a	n/a	n/a	n/a	3	[0, 0, 0]	-999	PAL1	1	R1333N
347.857	0.539	349425	ORIENT_START	n/a	n/a	-999	-999	n/a	n/a	n/a	n/a	3	[0, 0, 0]	-999	PAL1	1	R1333N
348.396	0.001	349964	ORIENT_END	n/a	n/a	-999	-999	n/a	n/a	n/a	n/a	3	[0, 0, 0]	-999	PAL1	1	R1333N
348.397	1.03	349965	ENCODING_START	n/a	n/a	-999	-999	n/a	n/a	n/a	n/a	3	[0, 0, 0]	-999	PAL1	1	R1333N
349.427	4.0	350995	STUDY_PAIR	n/a	wordpools/wordpool_EN.txt	1	-999	n/a	n/a	HAWK	DOLL	3	[0, 0, 0]	-999	PAL1	1	R1333N
353.463	0.717	355031	STUDY_PAIR_OFF	n/a	n/a	1	-999	n/a	n/a	HAWK	DOLL	3	[0, 0, 0]	-999	PAL1	1	R1333N
354.18	4.0	355748	STUDY_PAIR	n/a	wordpools/wordpool_EN.txt	2	-999	n/a	n/a	PIT	SWORD	3	[0, 0, 0]	-999	PAL1	1	R1333N
358.215	0.561	359783	STUDY_PAIR_OFF	n/a	n/a	2	-999	n/a	n/a	PIT	SWORD	3	[0, 0, 0]	-999	PAL1	1	R1333N
358.776	4.0	360344	STUDY_PAIR	n/a	wordpools/wordpool_EN.txt	3	-999	n/a	n/a	CLAY	SUN	3	[0, 0, 0]	-999	PAL1	1	R1333N
362.799	0.566	364367	STUDY_PAIR_OFF	n/a	n/a	3	-999	n/a	n/a	CLAY	SUN	3	[0, 0, 0]	-999	PAL1	1	R1333N
363.365	4.0	364933	STUDY_PAIR	n/a	wordpools/wordpool_EN.txt	4	-999	n/a	PARK	PARK	MAZE	3	[0, 0, 0]	-999	PAL1	1	R1333N
367.399	0.705	368966	STUDY_PAIR_OFF	n/a	n/a	4	-999	n/a	PARK	PARK	MAZE	3	[0, 0, 0]	-999	PAL1	1	R1333N
368.104	4.0	369671	STUDY_PAIR	n/a	wordpools/wordpool_EN.txt	5	-999	n/a	n/a	WORM	PLANE	3	[0, 0, 0]	-999	PAL1	1	R1333N
372.134	0.527	373701	STUDY_PAIR_OFF	n/a	n/a	5	-999	n/a	n/a	WORM	PLANE	3	[0, 0, 0]	-999	PAL1	1	R1333N
372.661	4.0	374228	STUDY_PAIR	n/a	wordpools/wordpool_EN.txt	6	-999	n/a	n/a	TREE	CLOUD	3	[0, 0, 0]	-999	PAL1	1	R1333N
376.684	0.001	378251	STUDY_PAIR_OFF	n/a	n/a	6	-999	n/a	n/a	TREE	CLOUD	3	[0, 0, 0]	-999	PAL1	1	R1333N
376.685	0.0	378252	ENCODING_END	n/a	n/a	-999	-999	n/a	n/a	n/a	n/a	3	[0, 0, 0]	-999	PAL1	1	R1333N
376.685	0.0	378252	MATH_START	n/a	n/a	-999	-999	n/a	n/a	n/a	n/a	3	[0, 0, 0]	-999	PAL1	1	R1333N
376.685	0.016	378252	START	n/a	n/a	-999	-999	n/a	n/a	n/a	n/a	3	[-999, -999, -999]	-999	PAL1	1	R1333N
376.701	4.584	378268	PROB	4.559	n/a	-999	-999	n/a	n/a	n/a	n/a	3	[7, 4, 5]	16	PAL1	1	R1333N
381.285	3.434	382852	PROB	3.398	n/a	-999	-999	n/a	n/a	n/a	n/a	3	[4, 5, 3]	12	PAL1	1	R1333N
384.719	4.218	386286	PROB	4.181	n/a	-999	-999	n/a	n/a	n/a	n/a	3	[7, 4, 1]	12	PAL1	1	R1333N
388.937	2.699	390504	PROB	2.675	n/a	-999	-999	n/a	n/a	n/a	n/a	3	[6, 6, 1]	13	PAL1	1	R1333N
391.636	5.32	393203	PROB	5.32	n/a	-999	-999	n/a	n/a	n/a	n/a	3	[2, 5, 9]	15	PAL1	1	R1333N
396.956	0.016	398523	STOP	n/a	n/a	-999	-999	n/a	n/a	n/a	n/a	3	[-999, -999, -999]	-999	PAL1	1	R1333N
396.972	0.662	398539	MATH_END	n/a	n/a	-999	-999	n/a	n/a	n/a	n/a	3	[0, 0, 0]	-999	PAL1	1	R1333N
397.634	0.002	399201	RETRIEVAL_START	n/a	n/a	-999	-999	n/a	n/a	n/a	n/a	3	[0, 0, 0]	-999	PAL1	1	R1333N
397.636	0.286	399203	ORIENT_START	n/a	n/a	-999	-999	n/a	n/a	n/a	n/a	3	[0, 0, 0]	-999	PAL1	1	R1333N
397.922	0.727	399489	ORIENT_END	n/a	n/a	-999	-999	n/a	n/a	n/a	n/a	3	[0, 0, 0]	-999	PAL1	1	R1333N
398.649	4.0	400216	PROBE_START	n/a	wordpools/wordpool_EN.txt	1	1	HAWK	n/a	HAWK	DOLL	3	[0, 0, 0]	-999	PAL1	1	R1333N
398.649	3.412	400216	REC_START	n/a	n/a	1	1	HAWK	n/a	HAWK	DOLL	3	[0, 0, 0]	-999	PAL1	1	R1333N
402.061	0.611	403627	REC_EVENT	3.412	n/a	1	1	HAWK	<>	HAWK	DOLL	3	[0, 0, 0]	-999	PAL1	1	R1333N
402.672	1.0	404238	PROBE_END	n/a	n/a	1	1	HAWK	n/a	HAWK	DOLL	3	[0, 0, 0]	-999	PAL1	1	R1333N
403.672	0.01	405238	REC_END	n/a	n/a	1	1	HAWK	n/a	HAWK	DOLL	3	[0, 0, 0]	-999	PAL1	1	R1333N
403.682	0.274	405248	ORIENT_START	n/a	n/a	-999	-999	n/a	n/a	n/a	n/a	3	[0, 0, 0]	-999	PAL1	1	R1333N
403.956	0.664	405522	ORIENT_END	n/a	n/a	-999	-999	n/a	n/a	n/a	n/a	3	[0, 0, 0]	-999	PAL1	1	R1333N
404.62	0.0	406186	REC_START	n/a	n/a	4	2	MAZE	PARK	PARK	MAZE	3	[0, 0, 0]	-999	PAL1	1	R1333N
404.62	4.0	406186	PROBE_START	n/a	wordpools/wordpool_EN.txt	4	2	MAZE	PARK	PARK	MAZE	3	[0, 0, 0]	-999	PAL1	1	R1333N
406.705	1.951	408271	REC_EVENT	2.085	n/a	4	2	MAZE	PARK	PARK	MAZE	3	[0, 0, 0]	-999	PAL1	1	R1333N
408.656	1.0	410222	PROBE_END	n/a	n/a	4	2	MAZE	n/a	PARK	MAZE	3	[0, 0, 0]	-999	PAL1	1	R1333N
409.656	0.013	411222	REC_END	n/a	n/a	4	2	MAZE	n/a	PARK	MAZE	3	[0, 0, 0]	-999	PAL1	1	R1333N
409.669	0.271	411235	ORIENT_START	n/a	n/a	-999	-999	n/a	n/a	n/a	n/a	3	[0, 0, 0]	-999	PAL1	1	R1333N
409.94	0.642	411506	ORIENT_END	n/a	n/a	-999	-999	n/a	n/a	n/a	n/a	3	[0, 0, 0]	-999	PAL1	1	R1333N
410.582	4.0	412148	PROBE_START	n/a	wordpools/wordpool_EN.txt	3	3	SUN	n/a	CLAY	SUN	3	[0, 0, 0]	-999	PAL1	1	R1333N
410.582	3.012	412148	REC_START	n/a	n/a	3	3	SUN	n/a	CLAY	SUN	3	[0, 0, 0]	-999	PAL1	1	R1333N
413.594	1.013	415160	REC_EVENT	3.012	n/a	3	3	SUN	<>	CLAY	SUN	3	[0, 0, 0]	-999	PAL1	1	R1333N
414.607	1.0	416173	PROBE_END	n/a	n/a	3	3	SUN	n/a	CLAY	SUN	3	[0, 0, 0]	-999	PAL1	1	R1333N
415.607	0.012	417173	REC_END	n/a	n/a	3	3	SUN	n/a	CLAY	SUN	3	[0, 0, 0]	-999	PAL1	1	R1333N
415.619	0.272	417185	ORIENT_START	n/a	n/a	-999	-999	n/a	n/a	n/a	n/a	3	[0, 0, 0]	-999	PAL1	1	R1333N
415.891	0.655	417457	ORIENT_END	n/a	n/a	-999	-999	n/a	n/a	n/a	n/a	3	[0, 0, 0]	-999	PAL1	1	R1333N
416.546	0.0	418112	REC_START	n/a	n/a	2	4	PIT	n/a	PIT	SWORD	3	[0, 0, 0]	-999	PAL1	1	R1333N
416.546	4.0	418112	PROBE_START	n/a	wordpools/wordpool_EN.txt	2	4	PIT	n/a	PIT	SWORD	3	[0, 0, 0]	-999	PAL1	1	R1333N
420.574	0.084	422140	PROBE_END	n/a	n/a	2	4	PIT	n/a	PIT	SWORD	3	[0, 0, 0]	-999	PAL1	1	R1333N
420.658	0.916	422224	REC_EVENT	4.112	n/a	2	4	PIT	<>	PIT	SWORD	3	[0, 0, 0]	-999	PAL1	1	R1333N
421.574	0.011	423140	REC_END	n/a	n/a	2	4	PIT	n/a	PIT	SWORD	3	[0, 0, 0]	-999	PAL1	1	R1333N
421.585	0.274	423151	ORIENT_START	n/a	n/a	-999	-999	n/a	n/a	n/a	n/a	3	[0, 0, 0]	-999	PAL1	1	R1333N
421.859	0.566	423425	ORIENT_END	n/a	n/a	-999	-999	n/a	n/a	n/a	n/a	3	[0, 0, 0]	-999	PAL1	1	R1333N
422.425	4.0	423991	PROBE_START	n/a	wordpools/wordpool_EN.txt	5	5	WORM	n/a	WORM	PLANE	3	[0, 0, 0]	-999	PAL1	1	R1333N
422.425	2.312	423991	REC_START	n/a	n/a	5	5	WORM	n/a	WORM	PLANE	3	[0, 0, 0]	-999	PAL1	1	R1333N
424.737	1.722	426303	REC_EVENT	2.312	n/a	5	5	WORM	<>	WORM	PLANE	3	[0, 0, 0]	-999	PAL1	1	R1333N
426.459	1.001	428025	PROBE_END	n/a	n/a	5	5	WORM	n/a	WORM	PLANE	3	[0, 0, 0]	-999	PAL1	1	R1333N
427.46	0.011	429026	REC_END	n/a	n/a	5	5	WORM	n/a	WORM	PLANE	3	[0, 0, 0]	-999	PAL1	1	R1333N
427.471	0.272	429037	ORIENT_START	n/a	n/a	-999	-999	n/a	n/a	n/a	n/a	3	[0, 0, 0]	-999	PAL1	1	R1333N
427.743	0.711	429309	ORIENT_END	n/a	n/a	-999	-999	n/a	n/a	n/a	n/a	3	[0, 0, 0]	-999	PAL1	1	R1333N
428.454	0.0	430020	REC_START	n/a	n/a	6	6	CLOUD	n/a	TREE	CLOUD	3	[0, 0, 0]	-999	PAL1	1	R1333N
428.454	4.0	430020	PROBE_START	n/a	wordpools/wordpool_EN.txt	6	6	CLOUD	n/a	TREE	CLOUD	3	[0, 0, 0]	-999	PAL1	1	R1333N
431.886	0.591	433452	REC_EVENT	3.432	n/a	6	6	CLOUD	<>	TREE	CLOUD	3	[0, 0, 0]	-999	PAL1	1	R1333N
432.477	0.999	434043	PROBE_END	n/a	n/a	6	6	CLOUD	n/a	TREE	CLOUD	3	[0, 0, 0]	-999	PAL1	1	R1333N
433.476	0.012	435041	REC_END	n/a	n/a	6	6	CLOUD	n/a	TREE	CLOUD	3	[0, 0, 0]	-999	PAL1	1	R1333N
433.488	0.001	435053	RETRIEVAL_END	n/a	n/a	-999	-999	n/a	n/a	n/a	n/a	3	[0, 0, 0]	-999	PAL1	1	R1333N
433.489	0.021	435054	TRIAL_END	n/a	n/a	-999	-999	n/a	n/a	n/a	n/a	3	[0, 0, 0]	-999	PAL1	1	R1333N
433.51	0.001	435075	TRIAL_START	n/a	n/a	-999	-999	n/a	n/a	n/a	n/a	3	[0, 0, 0]	-999	PAL1	1	R1333N
433.511	0.0	435076	WAITING_START	n/a	n/a	-999	-999	n/a	n/a	n/a	n/a	4	[0, 0, 0]	-999	PAL1	1	R1333N
433.511	3.166	435076	TRIAL	n/a	n/a	-999	-999	n/a	n/a	n/a	n/a	4	[0, 0, 0]	-999	PAL1	1	R1333N
436.677	0.001	438242	WAITING_END	n/a	n/a	-999	-999	n/a	n/a	n/a	n/a	4	[0, 0, 0]	-999	PAL1	1	R1333N
436.678	10.0	438243	COUNTDOWN_START	n/a	n/a	-999	-999	n/a	n/a	n/a	n/a	4	[0, 0, 0]	-999	PAL1	1	R1333N
447.106	0.0	448671	COUNTDOWN_END	n/a	n/a	-999	-999	n/a	n/a	n/a	n/a	4	[0, 0, 0]	-999	PAL1	1	R1333N
447.106	0.64	448671	ORIENT_START	n/a	n/a	-999	-999	n/a	n/a	n/a	n/a	4	[0, 0, 0]	-999	PAL1	1	R1333N
447.746	0.001	449311	ORIENT_END	n/a	n/a	-999	-999	n/a	n/a	n/a	n/a	4	[0, 0, 0]	-999	PAL1	1	R1333N
447.747	1.127	449312	ENCODING_START	n/a	n/a	-999	-999	n/a	n/a	n/a	n/a	4	[0, 0, 0]	-999	PAL1	1	R1333N
448.874	4.0	450439	STUDY_PAIR	n/a	wordpools/wordpool_EN.txt	1	-999	n/a	n/a	DIME	BLUSH	4	[0, 0, 0]	-999	PAL1	1	R1333N
452.897	0.649	454462	STUDY_PAIR_OFF	n/a	n/a	1	-999	n/a	n/a	DIME	BLUSH	4	[0, 0, 0]	-999	PAL1	1	R1333N
453.546	4.0	455111	STUDY_PAIR	n/a	wordpools/wordpool_EN.txt	2	-999	n/a	n/a	FOG	SIGN	4	[0, 0, 0]	-999	PAL1	1	R1333N
457.581	0.539	459146	STUDY_PAIR_OFF	n/a	n/a	2	-999	n/a	n/a	FOG	SIGN	4	[0, 0, 0]	-999	PAL1	1	R1333N
458.12	4.0	459685	STUDY_PAIR	n/a	wordpools/wordpool_EN.txt	3	-999	n/a	CART	CAPE	CART	4	[0, 0, 0]	-999	PAL1	1	R1333N
462.149	0.621	463714	STUDY_PAIR_OFF	n/a	n/a	3	-999	n/a	CART	CAPE	CART	4	[0, 0, 0]	-999	PAL1	1	R1333N
462.77	4.0	464335	STUDY_PAIR	n/a	wordpools/wordpool_EN.txt	4	-999	n/a	BOY	BOY	ARK	4	[0, 0, 0]	-999	PAL1	1	R1333N
466.8	0.651	468364	STUDY_PAIR_OFF	n/a	n/a	4	-999	n/a	BOY	BOY	ARK	4	[0, 0, 0]	-999	PAL1	1	R1333N
467.451	4.0	469015	STUDY_PAIR	n/a	wordpools/wordpool_EN.txt	5	-999	n/a	VAN	STEAM	VAN	4	[0, 0, 0]	-999	PAL1	1	R1333N
471.483	0.603	473047	STUDY_PAIR_OFF	n/a	n/a	5	-999	n/a	VAN	STEAM	VAN	4	[0, 0, 0]	-999	PAL1	1	R1333N
472.086	4.0	473650	STUDY_PAIR	n/a	wordpools/wordpool_EN.txt	6	-999	n/a	n/a	RIB	TAIL	4	[0, 0, 0]	-999	PAL1	1	R1333N
476.118	0.0	477682	STUDY_PAIR_OFF	n/a	n/a	6	-999	n/a	n/a	RIB	TAIL	4	[0, 0, 0]	-999	PAL1	1	R1333N
476.118	0.001	477682	ENCODING_END	n/a	n/a	-999	-999	n/a	n/a	n/a	n/a	4	[0, 0, 0]	-999	PAL1	1	R1333N
476.119	0.0	477683	MATH_START	n/a	n/a	-999	-999	n/a	n/a	n/a	n/a	4	[0, 0, 0]	-999	PAL1	1	R1333N
476.119	0.015	477683	START	n/a	n/a	-999	-999	n/a	n/a	n/a	n/a	4	[-999, -999, -999]	-999	PAL1	1	R1333N
476.134	4.618	477698	PROB	4.582	n/a	-999	-999	n/a	n/a	n/a	n/a	4	[4, 2, 2]	8	PAL1	1	R1333N
480.752	2.3	482316	PROB	2.268	n/a	-999	-999	n/a	n/a	n/a	n/a	4	[1, 1, 2]	4	PAL1	1	R1333N
483.052	7.151	484616	PROB	7.113	n/a	-999	-999	n/a	n/a	n/a	n/a	4	[6, 8, 9]	22	PAL1	1	R1333N
490.203	4.935	491767	PROB	4.905	n/a	-999	-999	n/a	n/a	n/a	n/a	4	[4, 9, 8]	21	PAL1	1	R1333N
495.138	5.45	496702	PROB	5.45	n/a	-999	-999	n/a	n/a	n/a	n/a	4	[6, 4, 8]	18	PAL1	1	R1333N
500.588	0.017	502151	STOP	n/a	n/a	-999	-999	n/a	n/a	n/a	n/a	4	[-999, -999, -999]	-999	PAL1	1	R1333N
500.605	0.64	502168	MATH_END	n/a	n/a	-999	-999	n/a	n/a	n/a	n/a	4	[0, 0, 0]	-999	PAL1	1	R1333N
501.245	0.002	502808	RETRIEVAL_START	n/a	n/a	-999	-999	n/a	n/a	n/a	n/a	4	[0, 0, 0]	-999	PAL1	1	R1333N
501.247	0.274	502810	ORIENT_START	n/a	n/a	-999	-999	n/a	n/a	n/a	n/a	4	[0, 0, 0]	-999	PAL1	1	R1333N
501.521	0.525	503084	ORIENT_END	n/a	n/a	-999	-999	n/a	n/a	n/a	n/a	4	[0, 0, 0]	-999	PAL1	1	R1333N
502.046	0.0	503609	REC_START	n/a	n/a	1	1	BLUSH	n/a	DIME	BLUSH	4	[0, 0, 0]	-999	PAL1	1	R1333N
502.046	4.0	503609	PROBE_START	n/a	wordpools/wordpool_EN.txt	1	1	BLUSH	n/a	DIME	BLUSH	4	[0, 0, 0]	-999	PAL1	1	R1333N
505.126	0.947	506689	REC_EVENT	3.08	n/a	1	1	BLUSH	<>	DIME	BLUSH	4	[0, 0, 0]	-999	PAL1	1	R1333N
506.073	1.0	507636	PROBE_END	n/a	n/a	1	1	BLUSH	n/a	DIME	BLUSH	4	[0, 0, 0]	-999	PAL1	1	R1333N
507.073	0.011	508636	REC_END	n/a	n/a	1	1	BLUSH	n/a	DIME	BLUSH	4	[0, 0, 0]	-999	PAL1	1	R1333N
507.084	0.272	508647	ORIENT_START	n/a	n/a	-999	-999	n/a	n/a	n/a	n/a	4	[0, 0, 0]	-999	PAL1	1	R1333N
507.356	0.74	508919	ORIENT_END	n/a	n/a	-999	-999	n/a	n/a	n/a	n/a	4	[0, 0, 0]	-999	PAL1	1	R1333N
508.096	0.0	509659	REC_START	n/a	n/a	4	2	ARK	BOY	BOY	ARK	4	[0, 0, 0]	-999	PAL1	1	R1333N
508.096	4.0	509659	PROBE_START	n/a	wordpools/wordpool_EN.txt	4	2	ARK	BOY	BOY	ARK	4	[0, 0, 0]	-999	PAL1	1	R1333N
510.035	2.089	511598	REC_EVENT	1.939	n/a	4	2	ARK	BOY	BOY	ARK	4	[0, 0, 0]	-999	PAL1	1	R1333N
512.124	1.0	513687	PROBE_END	n/a	n/a	4	2	ARK	n/a	BOY	ARK	4	[0, 0, 0]	-999	PAL1	1	R1333N
513.124	0.006	514687	REC_END	n/a	n/a	4	2	ARK	n/a	BOY	ARK	4	[0, 0, 0]	-999	PAL1	1	R1333N
513.13	0.276	514693	ORIENT_START	n/a	n/a	-999	-999	n/a	n/a	n/a	n/a	4	[0, 0, 0]	-999	PAL1	1	R1333N
513.406	0.67	514969	ORIENT_END	n/a	n/a	-999	-999	n/a	n/a	n/a	n/a	4	[0, 0, 0]	-999	PAL1	1	R1333N
514.076	0.0	515639	REC_START	n/a	n/a	3	3	CAPE	CART	CAPE	CART	4	[0, 0, 0]	-999	PAL1	1	R1333N
514.076	4.0	515639	PROBE_START	n/a	wordpools/wordpool_EN.txt	3	3	CAPE	CART	CAPE	CART	4	[0, 0, 0]	-999	PAL1	1	R1333N
516.138	1.97	517701	REC_EVENT	2.062	n/a	3	3	CAPE	CART	CAPE	CART	4	[0, 0, 0]	-999	PAL1	1	R1333N
518.108	1.0	519671	PROBE_END	n/a	n/a	3	3	CAPE	n/a	CAPE	CART	4	[0, 0, 0]	-999	PAL1	1	R1333N
519.108	0.011	520671	REC_END	n/a	n/a	3	3	CAPE	n/a	CAPE	CART	4	[0, 0, 0]	-999	PAL1	1	R1333N
519.119	0.272	520682	ORIENT_START	n/a	n/a	-999	-999	n/a	n/a	n/a	n/a	4	[0, 0, 0]	-999	PAL1	1	R1333N
519.391	0.703	520954	ORIENT_END	n/a	n/a	-999	-999	n/a	n/a	n/a	n/a	4	[0, 0, 0]	-999	PAL1	1	R1333N
520.094	0.0	521657	REC_START	n/a	n/a	2	4	FOG	n/a	FOG	SIGN	4	[0, 0, 0]	-999	PAL1	1	R1333N
520.094	4.0	521657	PROBE_START	n/a	wordpools/wordpool_EN.txt	2	4	FOG	n/a	FOG	SIGN	4	[0, 0, 0]	-999	PAL1	1	R1333N
522.179	1.947	523742	REC_EVENT	2.085	n/a	2	4	FOG	<>	FOG	SIGN	4	[0, 0, 0]	-999	PAL1	1	R1333N
524.126	1.0	525689	PROBE_END	n/a	n/a	2	4	FOG	n/a	FOG	SIGN	4	[0, 0, 0]	-999	PAL1	1	R1333N
525.126	0.012	526689	REC_END	n/a	n/a	2	4	FOG	n/a	FOG	SIGN	4	[0, 0, 0]	-999	PAL1	1	R1333N
525.138	0.27	526701	ORIENT_START	n/a	n/a	-999	-999	n/a	n/a	n/a	n/a	4	[0, 0, 0]	-999	PAL1	1	R1333N
525.408	0.599	526971	ORIENT_END	n/a	n/a	-999	-999	n/a	n/a	n/a	n/a	4	[0, 0, 0]	-999	PAL1	1	R1333N
526.007	0.0	527570	REC_START	n/a	n/a	5	5	STEAM	VAN	STEAM	VAN	4	[0, 0, 0]	-999	PAL1	1	R1333N
526.007	4.0	527570	PROBE_START	n/a	wordpools/wordpool_EN.txt	5	5	STEAM	VAN	STEAM	VAN	4	[0, 0, 0]	-999	PAL1	1	R1333N
527.623	2.42	529186	REC_EVENT	1.616	n/a	5	5	STEAM	VAN	STEAM	VAN	4	[0, 0, 0]	-999	PAL1	1	R1333N
530.043	1.0	531606	PROBE_END	n/a	n/a	5	5	STEAM	n/a	STEAM	VAN	4	[0, 0, 0]	-999	PAL1	1	R1333N
531.043	0.013	532606	REC_END	n/a	n/a	5	5	STEAM	n/a	STEAM	VAN	4	[0, 0, 0]	-999	PAL1	1	R1333N
531.056	0.271	532619	ORIENT_START	n/a	n/a	-999	-999	n/a	n/a	n/a	n/a	4	[0, 0, 0]	-999	PAL1	1	R1333N
531.327	0.635	532890	ORIENT_END	n/a	n/a	-999	-999	n/a	n/a	n/a	n/a	4	[0, 0, 0]	-999	PAL1	1	R1333N
531.962	0.0	533525	REC_START	n/a	n/a	6	6	TAIL	n/a	RIB	TAIL	4	[0, 0, 0]	-999	PAL1	1	R1333N
531.962	4.0	533525	PROBE_START	n/a	wordpools/wordpool_EN.txt	6	6	TAIL	n/a	RIB	TAIL	4	[0, 0, 0]	-999	PAL1	1	R1333N
534.674	1.32	536236	REC_EVENT	2.712	n/a	6	6	TAIL	<>	RIB	TAIL	4	[0, 0, 0]	-999	PAL1	1	R1333N
535.994	1.0	537556	PROBE_END	n/a	n/a	6	6	TAIL	n/a	RIB	TAIL	4	[0, 0, 0]	-999	PAL1	1	R1333N
536.994	0.011	538556	REC_END	n/a	n/a	6	6	TAIL	n/a	RIB	TAIL	4	[0, 0, 0]	-999	PAL1	1	R1333N
537.005	0.001	538567	RETRIEVAL_END	n/a	n/a	-999	-999	n/a	n/a	n/a	n/a	4	[0, 0, 0]	-999	PAL1	1	R1333N
537.006	0.02	538568	TRIAL_END	n/a	n/a	-999	-999	n/a	n/a	n/a	n/a	4	[0, 0, 0]	-999	PAL1	1	R1333N
537.026	0.0	538588	TRIAL_START	n/a	n/a	-999	-999	n/a	n/a	n/a	n/a	4	[0, 0, 0]	-999	PAL1	1	R1333N
537.026	0.0	538588	TRIAL	n/a	n/a	-999	-999	n/a	n/a	n/a	n/a	5	[0, 0, 0]	-999	PAL1	1	R1333N
537.026	2.335	538588	WAITING_START	n/a	n/a	-999	-999	n/a	n/a	n/a	n/a	5	[0, 0, 0]	-999	PAL1	1	R1333N
539.361	10.0	540923	COUNTDOWN_START	n/a	n/a	-999	-999	n/a	n/a	n/a	n/a	5	[0, 0, 0]	-999	PAL1	1	R1333N
539.361	10.429	540923	WAITING_END	n/a	n/a	-999	-999	n/a	n/a	n/a	n/a	5	[0, 0, 0]	-999	PAL1	1	R1333N
549.79	0.001	551352	COUNTDOWN_END	n/a	n/a	-999	-999	n/a	n/a	n/a	n/a	5	[0, 0, 0]	-999	PAL1	1	R1333N
549.791	0.705	551353	ORIENT_START	n/a	n/a	-999	-999	n/a	n/a	n/a	n/a	5	[0, 0, 0]	-999	PAL1	1	R1333N
550.496	0.001	552058	ORIENT_END	n/a	n/a	-999	-999	n/a	n/a	n/a	n/a	5	[0, 0, 0]	-999	PAL1	1	R1333N
550.497	1.223	552059	ENCODING_START	n/a	n/a	-999	-999	n/a	n/a	n/a	n/a	5	[0, 0, 0]	-999	PAL1	1	R1333N
551.72	4.0	553282	STUDY_PAIR	n/a	wordpools/wordpool_EN.txt	1	-999	n/a	n/a	SHELL	CALF	5	[0, 0, 0]	-999	PAL1	1	R1333N
555.748	0.537	557310	STUDY_PAIR_OFF	n/a	n/a	1	-999	n/a	n/a	SHELL	CALF	5	[0, 0, 0]	-999	PAL1	1	R1333N
556.285	4.0	557847	STUDY_PAIR	n/a	wordpools/wordpool_EN.txt	2	-999	n/a	BOARD	BOARD	LIP	5	[0, 0, 0]	-999	PAL1	1	R1333N
560.315	0.533	561877	STUDY_PAIR_OFF	n/a	n/a	2	-999	n/a	BOARD	BOARD	LIP	5	[0, 0, 0]	-999	PAL1	1	R1333N
560.848	4.0	562410	STUDY_PAIR	n/a	wordpools/wordpool_EN.txt	3	-999	n/a	n/a	SMILE	CHIEF	5	[0, 0, 0]	-999	PAL1	1	R1333N
564.883	0.708	566445	STUDY_PAIR_OFF	n/a	n/a	3	-999	n/a	n/a	SMILE	CHIEF	5	[0, 0, 0]	-999	PAL1	1	R1333N
565.591	4.0	567153	STUDY_PAIR	n/a	wordpools/wordpool_EN.txt	4	-999	n/a	PIPE	PIPE	THUMB	5	[0, 0, 0]	-999	PAL1	1	R1333N
569.616	0.704	571177	STUDY_PAIR_OFF	n/a	n/a	4	-999	n/a	PIPE	PIPE	THUMB	5	[0, 0, 0]	-999	PAL1	1	R1333N
570.32	4.0	571881	STUDY_PAIR	n/a	wordpools/wordpool_EN.txt	5	-999	n/a	n/a	LAKE	SLEEVE	5	[0, 0, 0]	-999	PAL1	1	R1333N
574.35	0.566	575911	STUDY_PAIR_OFF	n/a	n/a	5	-999	n/a	n/a	LAKE	SLEEVE	5	[0, 0, 0]	-999	PAL1	1	R1333N
574.916	4.0	576477	STUDY_PAIR	n/a	wordpools/wordpool_EN.txt	6	-999	n/a	n/a	VEST	CLOTH	5	[0, 0, 0]	-999	PAL1	1	R1333N
578.952	0.0	580513	STUDY_PAIR_OFF	n/a	n/a	6	-999	n/a	n/a	VEST	CLOTH	5	[0, 0, 0]	-999	PAL1	1	R1333N
578.952	0.001	580513	ENCODING_END	n/a	n/a	-999	-999	n/a	n/a	n/a	n/a	5	[0, 0, 0]	-999	PAL1	1	R1333N
578.953	0.0	580514	MATH_START	n/a	n/a	-999	-999	n/a	n/a	n/a	n/a	5	[0, 0, 0]	-999	PAL1	1	R1333N
578.953	0.015	580514	START	n/a	n/a	-999	-999	n/a	n/a	n/a	n/a	5	[-999, -999, -999]	-999	PAL1	1	R1333N
578.968	4.217	580529	PROB	4.18	n/a	-999	-999	n/a	n/a	n/a	n/a	5	[3, 7, 6]	16	PAL1	1	R1333N
583.185	8.085	584746	PROB	8.06	n/a	-999	-999	n/a	n/a	n/a	n/a	5	[8, 7, 9]	24	PAL1	1	R1333N
591.27	3.667	592831	PROB	3.638	n/a	-999	-999	n/a	n/a	n/a	n/a	5	[9, 9, 3]	21	PAL1	1	R1333N
594.937	4.474	596498	PROB	4.474	n/a	-999	-999	n/a	n/a	n/a	n/a	5	[1, 4, 2]	7	PAL1	1	R1333N
599.411	0.01	600972	STOP	n/a	n/a	-999	-999	n/a	n/a	n/a	n/a	5	[-999, -999, -999]	-999	PAL1	1	R1333N
599.421	0.603	600982	MATH_END	n/a	n/a	-999	-999	n/a	n/a	n/a	n/a	5	[0, 0, 0]	-999	PAL1	1	R1333N
600.024	0.001	601585	RETRIEVAL_START	n/a	n/a	-999	-999	n/a	n/a	n/a	n/a	5	[0, 0, 0]	-999	PAL1	1	R1333N
600.025	0.28	601586	ORIENT_START	n/a	n/a	-999	-999	n/a	n/a	n/a	n/a	5	[0, 0, 0]	-999	PAL1	1	R1333N
600.305	0.651	601866	ORIENT_END	n/a	n/a	-999	-999	n/a	n/a	n/a	n/a	5	[0, 0, 0]	-999	PAL1	1	R1333N
600.956	0.0	602517	REC_START	n/a	n/a	3	1	SMILE	n/a	SMILE	CHIEF	5	[0, 0, 0]	-999	PAL1	1	R1333N
600.956	4.0	602517	PROBE_START	n/a	wordpools/wordpool_EN.txt	3	1	SMILE	n/a	SMILE	CHIEF	5	[0, 0, 0]	-999	PAL1	1	R1333N
603.15	1.839	604710	REC_EVENT	2.194	n/a	3	1	SMILE	<>	SMILE	CHIEF	5	[0, 0, 0]	-999	PAL1	1	R1333N
604.989	1.001	606549	PROBE_END	n/a	n/a	3	1	SMILE	n/a	SMILE	CHIEF	5	[0, 0, 0]	-999	PAL1	1	R1333N
605.99	0.011	607550	REC_END	n/a	n/a	3	1	SMILE	n/a	SMILE	CHIEF	5	[0, 0, 0]	-999	PAL1	1	R1333N
606.001	0.272	607561	ORIENT_START	n/a	n/a	-999	-999	n/a	n/a	n/a	n/a	5	[0, 0, 0]	-999	PAL1	1	R1333N
606.273	0.52	607833	ORIENT_END	n/a	n/a	-999	-999	n/a	n/a	n/a	n/a	5	[0, 0, 0]	-999	PAL1	1	R1333N
606.793	0.0	608353	REC_START	n/a	n/a	2	2	LIP	BOARD	BOARD	LIP	5	[0, 0, 0]	-999	PAL1	1	R1333N
606.793	4.0	608353	PROBE_START	n/a	wordpools/wordpool_EN.txt	2	2	LIP	BOARD	BOARD	LIP	5	[0, 0, 0]	-999	PAL1	1	R1333N
610.335	0.488	611895	REC_EVENT	3.542	n/a	2	2	LIP	BOARD	BOARD	LIP	5	[0, 0, 0]	-999	PAL1	1	R1333N
610.823	1.001	612383	PROBE_END	n/a	n/a	2	2	LIP	n/a	BOARD	LIP	5	[0, 0, 0]	-999	PAL1	1	R1333N
611.824	0.01	613384	REC_END	n/a	n/a	2	2	LIP	n/a	BOARD	LIP	5	[0, 0, 0]	-999	PAL1	1	R1333N
611.834	0.273	613394	ORIENT_START	n/a	n/a	-999	-999	n/a	n/a	n/a	n/a	5	[0, 0, 0]	-999	PAL1	1	R1333N
612.107	0.542	613667	ORIENT_END	n/a	n/a	-999	-999	n/a	n/a	n/a	n/a	5	[0, 0, 0]	-999	PAL1	1	R1333N
612.649	0.001	614209	REC_START	n/a	n/a	1	3	SHELL	n/a	SHELL	CALF	5	[0, 0, 0]	-999	PAL1	1	R1333N
612.65	4.0	614210	PROBE_START	n/a	wordpools/wordpool_EN.txt	1	3	SHELL	n/a	SHELL	CALF	5	[0, 0, 0]	-999	PAL1	1	R1333N
614.819	1.854	616379	REC_EVENT	2.169	n/a	1	3	SHELL	<>	SHELL	CALF	5	[0, 0, 0]	-999	PAL1	1	R1333N
616.673	1.0	618233	PROBE_END	n/a	n/a	1	3	SHELL	n/a	SHELL	CALF	5	[0, 0, 0]	-999	PAL1	1	R1333N
617.673	0.01	619233	REC_END	n/a	n/a	1	3	SHELL	n/a	SHELL	CALF	5	[0, 0, 0]	-999	PAL1	1	R1333N
617.683	0.275	619243	ORIENT_START	n/a	n/a	-999	-999	n/a	n/a	n/a	n/a	5	[0, 0, 0]	-999	PAL1	1	R1333N
617.958	0.578	619518	ORIENT_END	n/a	n/a	-999	-999	n/a	n/a	n/a	n/a	5	[0, 0, 0]	-999	PAL1	1	R1333N
618.536	0.001	620096	REC_START	n/a	n/a	4	4	THUMB	PIPE	PIPE	THUMB	5	[0, 0, 0]	-999	PAL1	1	R1333N
618.537	4.0	620097	PROBE_START	n/a	wordpools/wordpool_EN.txt	4	4	THUMB	PIPE	PIPE	THUMB	5	[0, 0, 0]	-999	PAL1	1	R1333N
620.756	1.818	622316	REC_EVENT	2.219	n/a	4	4	THUMB	PIPE	PIPE	THUMB	5	[0, 0, 0]	-999	PAL1	1	R1333N
622.574	1.0	624134	PROBE_END	n/a	n/a	4	4	THUMB	n/a	PIPE	THUMB	5	[0, 0, 0]	-999	PAL1	1	R1333N
623.574	0.011	625134	REC_END	n/a	n/a	4	4	THUMB	n/a	PIPE	THUMB	5	[0, 0, 0]	-999	PAL1	1	R1333N
623.585	0.274	625145	ORIENT_START	n/a	n/a	-999	-999	n/a	n/a	n/a	n/a	5	[0, 0, 0]	-999	PAL1	1	R1333N
623.859	0.599	625419	ORIENT_END	n/a	n/a	-999	-999	n/a	n/a	n/a	n/a	5	[0, 0, 0]	-999	PAL1	1	R1333N
624.458	0.001	626018	REC_START	n/a	n/a	5	5	SLEEVE	n/a	LAKE	SLEEVE	5	[0, 0, 0]	-999	PAL1	1	R1333N
624.459	4.0	626019	PROBE_START	n/a	wordpools/wordpool_EN.txt	5	5	SLEEVE	n/a	LAKE	SLEEVE	5	[0, 0, 0]	-999	PAL1	1	R1333N
627.232	1.26	628792	REC_EVENT	2.773	n/a	5	5	SLEEVE	<>	LAKE	SLEEVE	5	[0, 0, 0]	-999	PAL1	1	R1333N
628.492	1.0	630052	PROBE_END	n/a	n/a	5	5	SLEEVE	n/a	LAKE	SLEEVE	5	[0, 0, 0]	-999	PAL1	1	R1333N
629.492	0.013	631052	REC_END	n/a	n/a	5	5	SLEEVE	n/a	LAKE	SLEEVE	5	[0, 0, 0]	-999	PAL1	1	R1333N
629.505	0.272	631065	ORIENT_START	n/a	n/a	-999	-999	n/a	n/a	n/a	n/a	5	[0, 0, 0]	-999	PAL1	1	R1333N
629.777	0.668	631337	ORIENT_END	n/a	n/a	-999	-999	n/a	n/a	n/a	n/a	5	[0, 0, 0]	-999	PAL1	1	R1333N
630.445	0.0	632005	REC_START	n/a	n/a	6	6	VEST	n/a	VEST	CLOTH	5	[0, 0, 0]	-999	PAL1	1	R1333N
630.445	4.0	632005	PROBE_START	n/a	wordpools/wordpool_EN.txt	6	6	VEST	n/a	VEST	CLOTH	5	[0, 0, 0]	-999	PAL1	1	R1333N
633.737	0.739	635297	REC_EVENT	3.292	n/a	6	6	VEST	<>	VEST	CLOTH	5	[0, 0, 0]	-999	PAL1	1	R1333N
634.476	1.0	636036	PROBE_END	n/a	n/a	6	6	VEST	n/a	VEST	CLOTH	5	[0, 0, 0]	-999	PAL1	1	R1333N
635.476	0.011	637035	REC_END	n/a	n/a	6	6	VEST	n/a	VEST	CLOTH	5	[0, 0, 0]	-999	PAL1	1	R1333N
635.487	0.0	637046	RETRIEVAL_END	n/a	n/a	-999	-999	n/a	n/a	n/a	n/a	5	[0, 0, 0]	-999	PAL1	1	R1333N
635.487	0.019	637046	TRIAL_END	n/a	n/a	-999	-999	n/a	n/a	n/a	n/a	5	[0, 0, 0]	-999	PAL1	1	R1333N
635.506	0.0	637065	TRIAL_START	n/a	n/a	-999	-999	n/a	n/a	n/a	n/a	5	[0, 0, 0]	-999	PAL1	1	R1333N
635.506	0.0	637065	TRIAL	n/a	n/a	-999	-999	n/a	n/a	n/a	n/a	6	[0, 0, 0]	-999	PAL1	1	R1333N
635.506	1.739	637065	WAITING_START	n/a	n/a	-999	-999	n/a	n/a	n/a	n/a	6	[0, 0, 0]	-999	PAL1	1	R1333N
637.245	0.0	638804	WAITING_END	n/a	n/a	-999	-999	n/a	n/a	n/a	n/a	6	[0, 0, 0]	-999	PAL1	1	R1333N
637.245	10.0	638804	COUNTDOWN_START	n/a	n/a	-999	-999	n/a	n/a	n/a	n/a	6	[0, 0, 0]	-999	PAL1	1	R1333N
647.673	0.001	649232	COUNTDOWN_END	n/a	n/a	-999	-999	n/a	n/a	n/a	n/a	6	[0, 0, 0]	-999	PAL1	1	R1333N
647.674	0.589	649233	ORIENT_START	n/a	n/a	-999	-999	n/a	n/a	n/a	n/a	6	[0, 0, 0]	-999	PAL1	1	R1333N
648.263	0.001	649822	ORIENT_END	n/a	n/a	-999	-999	n/a	n/a	n/a	n/a	6	[0, 0, 0]	-999	PAL1	1	R1333N
648.264	1.188	649823	ENCODING_START	n/a	n/a	-999	-999	n/a	n/a	n/a	n/a	6	[0, 0, 0]	-999	PAL1	1	R1333N
649.452	4.0	651011	STUDY_PAIR	n/a	wordpools/wordpool_EN.txt	1	-999	n/a	n/a	CHALK	STEM	6	[0, 0, 0]	-999	PAL1	1	R1333N
653.481	0.703	655040	STUDY_PAIR_OFF	n/a	n/a	1	-999	n/a	n/a	CHALK	STEM	6	[0, 0, 0]	-999	PAL1	1	R1333N
654.184	4.0	655743	STUDY_PAIR	n/a	wordpools/wordpool_EN.txt	2	-999	n/a	n/a	SKY	GRAPE	6	[0, 0, 0]	-999	PAL1	1	R1333N
658.215	0.639	659774	STUDY_PAIR_OFF	n/a	n/a	2	-999	n/a	n/a	SKY	GRAPE	6	[0, 0, 0]	-999	PAL1	1	R1333N
658.854	4.0	660413	STUDY_PAIR	n/a	wordpools/wordpool_EN.txt	3	-999	n/a	n/a	BOX	COUCH	6	[0, 0, 0]	-999	PAL1	1	R1333N
662.882	0.576	664441	STUDY_PAIR_OFF	n/a	n/a	3	-999	n/a	n/a	BOX	COUCH	6	[0, 0, 0]	-999	PAL1	1	R1333N
663.458	4.0	665017	STUDY_PAIR	n/a	wordpools/wordpool_EN.txt	4	-999	n/a	ARM	MAT	ARM	6	[0, 0, 0]	-999	PAL1	1	R1333N
667.482	0.722	669041	STUDY_PAIR_OFF	n/a	n/a	4	-999	n/a	ARM	MAT	ARM	6	[0, 0, 0]	-999	PAL1	1	R1333N
668.204	4.0	669763	STUDY_PAIR	n/a	wordpools/wordpool_EN.txt	5	-999	n/a	n/a	PLANT	BIRD	6	[0, 0, 0]	-999	PAL1	1	R1333N
672.234	0.709	673792	STUDY_PAIR_OFF	n/a	n/a	5	-999	n/a	n/a	PLANT	BIRD	6	[0, 0, 0]	-999	PAL1	1	R1333N
672.943	4.0	674501	STUDY_PAIR	n/a	wordpools/wordpool_EN.txt	6	-999	n/a	TRUCK	TRUCK	APE	6	[0, 0, 0]	-999	PAL1	1	R1333N
676.968	0.0	678526	ENCODING_END	n/a	n/a	-999	-999	n/a	n/a	n/a	n/a	6	[0, 0, 0]	-999	PAL1	1	R1333N
676.968	0.001	678526	STUDY_PAIR_OFF	n/a	n/a	6	-999	n/a	TRUCK	TRUCK	APE	6	[0, 0, 0]	-999	PAL1	1	R1333N
676.969	0.0	678527	MATH_START	n/a	n/a	-999	-999	n/a	n/a	n/a	n/a	6	[0, 0, 0]	-999	PAL1	1	R1333N
676.969	0.015	678527	START	n/a	n/a	-999	-999	n/a	n/a	n/a	n/a	6	[-999, -999, -999]	-999	PAL1	1	R1333N
676.984	4.301	678542	PROB	4.268	n/a	-999	-999	n/a	n/a	n/a	n/a	6	[4, 7, 4]	15	PAL1	1	R1333N
681.285	4.517	682843	PROB	4.479	n/a	-999	-999	n/a	n/a	n/a	n/a	6	[7, 1, 2]	10	PAL1	1	R1333N
685.802	6.867	687360	PROB	6.841	n/a	-999	-999	n/a	n/a	n/a	n/a	6	[6, 8, 7]	21	PAL1	1	R1333N
692.669	10.583	694227	PROB	10.583	n/a	-999	-999	n/a	n/a	n/a	n/a	6	[6, 1, 3]	10	PAL1	1	R1333N
703.252	0.02	704809	STOP	n/a	n/a	-999	-999	n/a	n/a	n/a	n/a	6	[-999, -999, -999]	-999	PAL1	1	R1333N
703.272	0.625	704829	MATH_END	n/a	n/a	-999	-999	n/a	n/a	n/a	n/a	6	[0, 0, 0]	-999	PAL1	1	R1333N
703.897	0.004	705454	RETRIEVAL_START	n/a	n/a	-999	-999	n/a	n/a	n/a	n/a	6	[0, 0, 0]	-999	PAL1	1	R1333N
703.901	0.271	705458	ORIENT_START	n/a	n/a	-999	-999	n/a	n/a	n/a	n/a	6	[0, 0, 0]	-999	PAL1	1	R1333N
704.172	0.586	705729	ORIENT_END	n/a	n/a	-999	-999	n/a	n/a	n/a	n/a	6	[0, 0, 0]	-999	PAL1	1	R1333N
704.758	0.0	706315	REC_START	n/a	n/a	1	1	STEM	n/a	CHALK	STEM	6	[0, 0, 0]	-999	PAL1	1	R1333N
704.758	4.0	706315	PROBE_START	n/a	wordpools/wordpool_EN.txt	1	1	STEM	n/a	CHALK	STEM	6	[0, 0, 0]	-999	PAL1	1	R1333N
708.79	0.11	710347	PROBE_END	n/a	n/a	1	1	STEM	n/a	CHALK	STEM	6	[0, 0, 0]	-999	PAL1	1	R1333N
708.9	0.889	710457	REC_EVENT	4.142	n/a	1	1	STEM	<>	CHALK	STEM	6	[0, 0, 0]	-999	PAL1	1	R1333N
709.789	0.011	711346	REC_END	n/a	n/a	1	1	STEM	n/a	CHALK	STEM	6	[0, 0, 0]	-999	PAL1	1	R1333N
709.8	0.273	711357	ORIENT_START	n/a	n/a	-999	-999	n/a	n/a	n/a	n/a	6	[0, 0, 0]	-999	PAL1	1	R1333N
710.073	0.593	711630	ORIENT_END	n/a	n/a	-999	-999	n/a	n/a	n/a	n/a	6	[0, 0, 0]	-999	PAL1	1	R1333N
710.666	4.0	712223	PROBE_START	n/a	wordpools/wordpool_EN.txt	2	2	SKY	n/a	SKY	GRAPE	6	[0, 0, 0]	-999	PAL1	1	R1333N
710.666	4.024	712223	REC_START	n/a	n/a	2	2	SKY	n/a	SKY	GRAPE	6	[0, 0, 0]	-999	PAL1	1	R1333N
714.69	0.247	716247	PROBE_END	n/a	n/a	2	2	SKY	n/a	SKY	GRAPE	6	[0, 0, 0]	-999	PAL1	1	R1333N
714.937	0.752	716494	REC_EVENT	4.271	n/a	2	2	SKY	<>	SKY	GRAPE	6	[0, 0, 0]	-999	PAL1	1	R1333N
715.689	0.012	717246	REC_END	n/a	n/a	2	2	SKY	n/a	SKY	GRAPE	6	[0, 0, 0]	-999	PAL1	1	R1333N
715.701	0.273	717258	ORIENT_START	n/a	n/a	-999	-999	n/a	n/a	n/a	n/a	6	[0, 0, 0]	-999	PAL1	1	R1333N
715.974	0.534	717531	ORIENT_END	n/a	n/a	-999	-999	n/a	n/a	n/a	n/a	6	[0, 0, 0]	-999	PAL1	1	R1333N
716.508	0.0	718065	REC_START	n/a	n/a	5	3	BIRD	n/a	PLANT	BIRD	6	[0, 0, 0]	-999	PAL1	1	R1333N
716.508	4.0	718065	PROBE_START	n/a	wordpools/wordpool_EN.txt	5	3	BIRD	n/a	PLANT	BIRD	6	[0, 0, 0]	-999	PAL1	1	R1333N
720.541	0.516	722098	PROBE_END	n/a	n/a	5	3	BIRD	n/a	PLANT	BIRD	6	[0, 0, 0]	-999	PAL1	1	R1333N
721.057	0.483	722614	REC_EVENT	4.549	n/a	5	3	BIRD	<>	PLANT	BIRD	6	[0, 0, 0]	-999	PAL1	1	R1333N
721.54	0.011	723097	REC_END	n/a	n/a	5	3	BIRD	n/a	PLANT	BIRD	6	[0, 0, 0]	-999	PAL1	1	R1333N
721.551	0.274	723108	ORIENT_START	n/a	n/a	-999	-999	n/a	n/a	n/a	n/a	6	[0, 0, 0]	-999	PAL1	1	R1333N
721.825	0.688	723382	ORIENT_END	n/a	n/a	-999	-999	n/a	n/a	n/a	n/a	6	[0, 0, 0]	-999	PAL1	1	R1333N
722.513	0.001	724070	REC_START	n/a	n/a	4	4	MAT	ARM	MAT	ARM	6	[0, 0, 0]	-999	PAL1	1	R1333N
722.514	4.0	724071	PROBE_START	n/a	wordpools/wordpool_EN.txt	4	4	MAT	ARM	MAT	ARM	6	[0, 0, 0]	-999	PAL1	1	R1333N
725.199	1.343	726756	REC_EVENT	2.685	n/a	4	4	MAT	ARM	MAT	ARM	6	[0, 0, 0]	-999	PAL1	1	R1333N
726.542	0.999	728099	PROBE_END	n/a	n/a	4	4	MAT	n/a	MAT	ARM	6	[0, 0, 0]	-999	PAL1	1	R1333N
727.541	0.012	729098	REC_END	n/a	n/a	4	4	MAT	n/a	MAT	ARM	6	[0, 0, 0]	-999	PAL1	1	R1333N
727.553	0.273	729110	ORIENT_START	n/a	n/a	-999	-999	n/a	n/a	n/a	n/a	6	[0, 0, 0]	-999	PAL1	1	R1333N
727.826	0.686	729383	ORIENT_END	n/a	n/a	-999	-999	n/a	n/a	n/a	n/a	6	[0, 0, 0]	-999	PAL1	1	R1333N
728.512	0.001	730069	REC_START	n/a	n/a	3	5	BOX	n/a	BOX	COUCH	6	[0, 0, 0]	-999	PAL1	1	R1333N
728.513	4.0	730070	PROBE_START	n/a	wordpools/wordpool_EN.txt	3	5	BOX	n/a	BOX	COUCH	6	[0, 0, 0]	-999	PAL1	1	R1333N
732.543	0.817	734100	PROBE_END	n/a	n/a	3	5	BOX	n/a	BOX	COUCH	6	[0, 0, 0]	-999	PAL1	1	R1333N
733.36	0.182	734917	REC_EVENT	4.847	n/a	3	5	BOX	<>	BOX	COUCH	6	[0, 0, 0]	-999	PAL1	1	R1333N
733.542	0.013	735099	REC_END	n/a	n/a	3	5	BOX	n/a	BOX	COUCH	6	[0, 0, 0]	-999	PAL1	1	R1333N
733.555	0.272	735112	ORIENT_START	n/a	n/a	-999	-999	n/a	n/a	n/a	n/a	6	[0, 0, 0]	-999	PAL1	1	R1333N
733.827	0.549	735384	ORIENT_END	n/a	n/a	-999	-999	n/a	n/a	n/a	n/a	6	[0, 0, 0]	-999	PAL1	1	R1333N
734.376	0.001	735933	REC_START	n/a	n/a	6	6	APE	TRUCK	TRUCK	APE	6	[0, 0, 0]	-999	PAL1	1	R1333N
734.377	4.0	735934	PROBE_START	n/a	wordpools/wordpool_EN.txt	6	6	APE	TRUCK	TRUCK	APE	6	[0, 0, 0]	-999	PAL1	1	R1333N
738.41	0.056	739966	PROBE_END	n/a	n/a	6	6	APE	n/a	TRUCK	APE	6	[0, 0, 0]	-999	PAL1	1	R1333N
738.466	0.945	740022	REC_EVENT	4.089	n/a	6	6	APE	TRUCK	TRUCK	APE	6	[0, 0, 0]	-999	PAL1	1	R1333N
739.411	0.011	740967	REC_END	n/a	n/a	6	6	APE	n/a	TRUCK	APE	6	[0, 0, 0]	-999	PAL1	1	R1333N
739.422	0.0	740978	RETRIEVAL_END	n/a	n/a	-999	-999	n/a	n/a	n/a	n/a	6	[0, 0, 0]	-999	PAL1	1	R1333N
739.422	0.019	740978	TRIAL_END	n/a	n/a	-999	-999	n/a	n/a	n/a	n/a	6	[0, 0, 0]	-999	PAL1	1	R1333N
739.441	0.0	740997	TRIAL_START	n/a	n/a	-999	-999	n/a	n/a	n/a	n/a	6	[0, 0, 0]	-999	PAL1	1	R1333N
739.441	0.0	740997	TRIAL	n/a	n/a	-999	-999	n/a	n/a	n/a	n/a	7	[0, 0, 0]	-999	PAL1	1	R1333N
739.441	1.92	740997	WAITING_START	n/a	n/a	-999	-999	n/a	n/a	n/a	n/a	7	[0, 0, 0]	-999	PAL1	1	R1333N
741.361	0.0	742917	WAITING_END	n/a	n/a	-999	-999	n/a	n/a	n/a	n/a	7	[0, 0, 0]	-999	PAL1	1	R1333N
741.361	10.0	742917	COUNTDOWN_START	n/a	n/a	-999	-999	n/a	n/a	n/a	n/a	7	[0, 0, 0]	-999	PAL1	1	R1333N
751.791	0.0	753347	COUNTDOWN_END	n/a	n/a	-999	-999	n/a	n/a	n/a	n/a	7	[0, 0, 0]	-999	PAL1	1	R1333N
751.791	0.755	753347	ORIENT_START	n/a	n/a	-999	-999	n/a	n/a	n/a	n/a	7	[0, 0, 0]	-999	PAL1	1	R1333N
752.546	0.001	754102	ORIENT_END	n/a	n/a	-999	-999	n/a	n/a	n/a	n/a	7	[0, 0, 0]	-999	PAL1	1	R1333N
752.547	1.148	754103	ENCODING_START	n/a	n/a	-999	-999	n/a	n/a	n/a	n/a	7	[0, 0, 0]	-999	PAL1	1	R1333N
753.695	4.0	755251	STUDY_PAIR	n/a	wordpools/wordpool_EN.txt	1	-999	n/a	n/a	PLATE	CANE	7	[0, 0, 0]	-999	PAL1	1	R1333N
757.731	0.682	759287	STUDY_PAIR_OFF	n/a	n/a	1	-999	n/a	n/a	PLATE	CANE	7	[0, 0, 0]	-999	PAL1	1	R1333N
758.413	4.0	759969	STUDY_PAIR	n/a	wordpools/wordpool_EN.txt	2	-999	n/a	n/a	WEED	FUR	7	[0, 0, 0]	-999	PAL1	1	R1333N
762.447	0.521	764003	STUDY_PAIR_OFF	n/a	n/a	2	-999	n/a	n/a	WEED	FUR	7	[0, 0, 0]	-999	PAL1	1	R1333N
762.968	4.0	764524	STUDY_PAIR	n/a	wordpools/wordpool_EN.txt	3	-999	n/a	n/a	AXE	MILK	7	[0, 0, 0]	-999	PAL1	1	R1333N
766.999	0.698	768555	STUDY_PAIR_OFF	n/a	n/a	3	-999	n/a	n/a	AXE	MILK	7	[0, 0, 0]	-999	PAL1	1	R1333N
767.697	4.0	769253	STUDY_PAIR	n/a	wordpools/wordpool_EN.txt	4	-999	n/a	n/a	BRUSH	BEAR	7	[0, 0, 0]	-999	PAL1	1	R1333N
771.734	0.648	773289	STUDY_PAIR_OFF	n/a	n/a	4	-999	n/a	n/a	BRUSH	BEAR	7	[0, 0, 0]	-999	PAL1	1	R1333N
772.382	4.0	773937	STUDY_PAIR	n/a	wordpools/wordpool_EN.txt	5	-999	n/a	n/a	BAT	JUICE	7	[0, 0, 0]	-999	PAL1	1	R1333N
776.416	0.606	777971	STUDY_PAIR_OFF	n/a	n/a	5	-999	n/a	n/a	BAT	JUICE	7	[0, 0, 0]	-999	PAL1	1	R1333N
777.022	4.0	778577	STUDY_PAIR	n/a	wordpools/wordpool_EN.txt	6	-999	n/a	FOOT	BALL	FOOT	7	[0, 0, 0]	-999	PAL1	1	R1333N
781.052	0.0	782607	STUDY_PAIR_OFF	n/a	n/a	6	-999	n/a	FOOT	BALL	FOOT	7	[0, 0, 0]	-999	PAL1	1	R1333N
781.052	0.001	782607	ENCODING_END	n/a	n/a	-999	-999	n/a	n/a	n/a	n/a	7	[0, 0, 0]	-999	PAL1	1	R1333N
781.053	0.0	782608	MATH_START	n/a	n/a	-999	-999	n/a	n/a	n/a	n/a	7	[0, 0, 0]	-999	PAL1	1	R1333N
781.053	0.015	782608	START	n/a	n/a	-999	-999	n/a	n/a	n/a	n/a	7	[-999, -999, -999]	-999	PAL1	1	R1333N
781.068	4.251	782623	PROB	4.217	n/a	-999	-999	n/a	n/a	n/a	n/a	7	[3, 7, 9]	19	PAL1	1	R1333N
785.319	5.934	786874	PROB	5.909	n/a	-999	-999	n/a	n/a	n/a	n/a	7	[5, 8, 5]	18	PAL1	1	R1333N
791.253	6.517	792808	PROB	6.488	n/a	-999	-999	n/a	n/a	n/a	n/a	7	[5, 2, 9]	16	PAL1	1	R1333N
797.77	6.825	799325	PROB	6.825	n/a	-999	-999	n/a	n/a	n/a	n/a	7	[7, 9, 6]	21	PAL1	1	R1333N
804.595	0.01	806149	STOP	n/a	n/a	-999	-999	n/a	n/a	n/a	n/a	7	[-999, -999, -999]	-999	PAL1	1	R1333N
804.605	0.647	806159	MATH_END	n/a	n/a	-999	-999	n/a	n/a	n/a	n/a	7	[0, 0, 0]	-999	PAL1	1	R1333N
805.252	0.002	806806	RETRIEVAL_START	n/a	n/a	-999	-999	n/a	n/a	n/a	n/a	7	[0, 0, 0]	-999	PAL1	1	R1333N
805.254	0.284	806808	ORIENT_START	n/a	n/a	-999	-999	n/a	n/a	n/a	n/a	7	[0, 0, 0]	-999	PAL1	1	R1333N
805.538	0.54	807092	ORIENT_END	n/a	n/a	-999	-999	n/a	n/a	n/a	n/a	7	[0, 0, 0]	-999	PAL1	1	R1333N
806.078	0.001	807632	REC_START	n/a	n/a	3	1	AXE	n/a	AXE	MILK	7	[0, 0, 0]	-999	PAL1	1	R1333N
806.079	4.0	807633	PROBE_START	n/a	wordpools/wordpool_EN.txt	3	1	AXE	n/a	AXE	MILK	7	[0, 0, 0]	-999	PAL1	1	R1333N
808.691	1.415	810245	REC_EVENT	2.612	n/a	3	1	AXE	<>	AXE	MILK	7	[0, 0, 0]	-999	PAL1	1	R1333N
810.106	1.0	811660	PROBE_END	n/a	n/a	3	1	AXE	n/a	AXE	MILK	7	[0, 0, 0]	-999	PAL1	1	R1333N
811.106	0.011	812660	REC_END	n/a	n/a	3	1	AXE	n/a	AXE	MILK	7	[0, 0, 0]	-999	PAL1	1	R1333N
811.117	0.272	812671	ORIENT_START	n/a	n/a	-999	-999	n/a	n/a	n/a	n/a	7	[0, 0, 0]	-999	PAL1	1	R1333N
811.389	0.631	812943	ORIENT_END	n/a	n/a	-999	-999	n/a	n/a	n/a	n/a	7	[0, 0, 0]	-999	PAL1	1	R1333N
812.02	0.001	813574	REC_START	n/a	n/a	4	2	BEAR	n/a	BRUSH	BEAR	7	[0, 0, 0]	-999	PAL1	1	R1333N
812.021	4.0	813575	PROBE_START	n/a	wordpools/wordpool_EN.txt	4	2	BEAR	n/a	BRUSH	BEAR	7	[0, 0, 0]	-999	PAL1	1	R1333N
816.057	0.403	817611	PROBE_END	n/a	n/a	4	2	BEAR	n/a	BRUSH	BEAR	7	[0, 0, 0]	-999	PAL1	1	R1333N
816.46	0.598	818014	REC_EVENT	4.439	n/a	4	2	BEAR	<>	BRUSH	BEAR	7	[0, 0, 0]	-999	PAL1	1	R1333N
817.058	0.011	818612	REC_END	n/a	n/a	4	2	BEAR	n/a	BRUSH	BEAR	7	[0, 0, 0]	-999	PAL1	1	R1333N
817.069	0.271	818623	ORIENT_START	n/a	n/a	-999	-999	n/a	n/a	n/a	n/a	7	[0, 0, 0]	-999	PAL1	1	R1333N
817.34	0.618	818894	ORIENT_END	n/a	n/a	-999	-999	n/a	n/a	n/a	n/a	7	[0, 0, 0]	-999	PAL1	1	R1333N
817.958	0.0	819512	REC_START	n/a	n/a	1	3	CANE	n/a	PLATE	CANE	7	[0, 0, 0]	-999	PAL1	1	R1333N
817.958	4.0	819512	PROBE_START	n/a	wordpools/wordpool_EN.txt	1	3	CANE	n/a	PLATE	CANE	7	[0, 0, 0]	-999	PAL1	1	R1333N
817.968	0.869	819522	REC_EVENT	0.01	n/a	1	3	CANE	<>	PLATE	CANE	7	[0, 0, 0]	-999	PAL1	1	R1333N
818.837	1.585	820391	REC_EVENT	0.879	n/a	1	3	CANE	<>	PLATE	CANE	7	[0, 0, 0]	-999	PAL1	1	R1333N
820.422	1.57	821976	REC_EVENT	2.464	n/a	1	3	CANE	<>	PLATE	CANE	7	[0, 0, 0]	-999	PAL1	1	R1333N
821.992	0.999	823546	PROBE_END	n/a	n/a	1	3	CANE	n/a	PLATE	CANE	7	[0, 0, 0]	-999	PAL1	1	R1333N
822.991	0.012	824545	REC_END	n/a	n/a	1	3	CANE	n/a	PLATE	CANE	7	[0, 0, 0]	-999	PAL1	1	R1333N
823.003	0.272	824557	ORIENT_START	n/a	n/a	-999	-999	n/a	n/a	n/a	n/a	7	[0, 0, 0]	-999	PAL1	1	R1333N
823.275	0.616	824829	ORIENT_END	n/a	n/a	-999	-999	n/a	n/a	n/a	n/a	7	[0, 0, 0]	-999	PAL1	1	R1333N
823.891	0.001	825445	REC_START	n/a	n/a	2	4	FUR	n/a	WEED	FUR	7	[0, 0, 0]	-999	PAL1	1	R1333N
823.892	4.0	825446	PROBE_START	n/a	wordpools/wordpool_EN.txt	2	4	FUR	n/a	WEED	FUR	7	[0, 0, 0]	-999	PAL1	1	R1333N
827.909	1.004	829463	PROBE_END	n/a	n/a	2	4	FUR	n/a	WEED	FUR	7	[0, 0, 0]	-999	PAL1	1	R1333N
828.913	0.01	830467	REC_END	n/a	n/a	2	4	FUR	n/a	WEED	FUR	7	[0, 0, 0]	-999	PAL1	1	R1333N
828.923	0.27	830477	ORIENT_START	n/a	n/a	-999	-999	n/a	n/a	n/a	n/a	7	[0, 0, 0]	-999	PAL1	1	R1333N
829.193	0.258	830747	ORIENT_END	n/a	n/a	-999	-999	n/a	n/a	n/a	n/a	7	[0, 0, 0]	-999	PAL1	1	R1333N
829.451	0.438	831005	REC_EVENT	5.559	n/a	2	4	FUR	<>	WEED	FUR	7	[0, 0, 0]	-999	PAL1	1	R1333N
829.889	0.0	831443	REC_START	n/a	n/a	5	5	BAT	n/a	BAT	JUICE	7	[0, 0, 0]	-999	PAL1	1	R1333N
829.889	4.0	831443	PROBE_START	n/a	wordpools/wordpool_EN.txt	5	5	BAT	n/a	BAT	JUICE	7	[0, 0, 0]	-999	PAL1	1	R1333N
829.889	3.584	831443	REC_EVENT	0.0	n/a	5	5	BAT	<>	BAT	JUICE	7	[0, 0, 0]	-999	PAL1	1	R1333N
833.473	0.438	835027	REC_EVENT	3.584	n/a	5	5	BAT	<>	BAT	JUICE	7	[0, 0, 0]	-999	PAL1	1	R1333N
833.911	1.0	835465	PROBE_END	n/a	n/a	5	5	BAT	n/a	BAT	JUICE	7	[0, 0, 0]	-999	PAL1	1	R1333N
834.911	0.013	836465	REC_END	n/a	n/a	5	5	BAT	n/a	BAT	JUICE	7	[0, 0, 0]	-999	PAL1	1	R1333N
834.924	0.27	836478	ORIENT_START	n/a	n/a	-999	-999	n/a	n/a	n/a	n/a	7	[0, 0, 0]	-999	PAL1	1	R1333N
835.194	0.587	836748	ORIENT_END	n/a	n/a	-999	-999	n/a	n/a	n/a	n/a	7	[0, 0, 0]	-999	PAL1	1	R1333N
835.781	0.0	837335	REC_START	n/a	n/a	6	6	BALL	FOOT	BALL	FOOT	7	[0, 0, 0]	-999	PAL1	1	R1333N
835.781	4.0	837335	PROBE_START	n/a	wordpools/wordpool_EN.txt	6	6	BALL	FOOT	BALL	FOOT	7	[0, 0, 0]	-999	PAL1	1	R1333N
837.87	1.941	839423	REC_EVENT	2.089	n/a	6	6	BALL	FOOT	BALL	FOOT	7	[0, 0, 0]	-999	PAL1	1	R1333N
839.811	1.001	841364	PROBE_END	n/a	n/a	6	6	BALL	n/a	BALL	FOOT	7	[0, 0, 0]	-999	PAL1	1	R1333N
840.812	0.01	842365	REC_END	n/a	n/a	6	6	BALL	n/a	BALL	FOOT	7	[0, 0, 0]	-999	PAL1	1	R1333N
840.822	0.0	842375	RETRIEVAL_END	n/a	n/a	-999	-999	n/a	n/a	n/a	n/a	7	[0, 0, 0]	-999	PAL1	1	R1333N
840.822	0.02	842375	TRIAL_END	n/a	n/a	-999	-999	n/a	n/a	n/a	n/a	7	[0, 0, 0]	-999	PAL1	1	R1333N
840.842	0.0	842395	TRIAL_START	n/a	n/a	-999	-999	n/a	n/a	n/a	n/a	7	[0, 0, 0]	-999	PAL1	1	R1333N
840.842	0.0	842395	TRIAL	n/a	n/a	-999	-999	n/a	n/a	n/a	n/a	8	[0, 0, 0]	-999	PAL1	1	R1333N
840.842	7.404	842395	WAITING_START	n/a	n/a	-999	-999	n/a	n/a	n/a	n/a	8	[0, 0, 0]	-999	PAL1	1	R1333N
848.246	0.0	849799	WAITING_END	n/a	n/a	-999	-999	n/a	n/a	n/a	n/a	8	[0, 0, 0]	-999	PAL1	1	R1333N
848.246	10.0	849799	COUNTDOWN_START	n/a	n/a	-999	-999	n/a	n/a	n/a	n/a	8	[0, 0, 0]	-999	PAL1	1	R1333N
858.676	0.0	860229	COUNTDOWN_END	n/a	n/a	-999	-999	n/a	n/a	n/a	n/a	8	[0, 0, 0]	-999	PAL1	1	R1333N
858.676	0.721	860229	ORIENT_START	n/a	n/a	-999	-999	n/a	n/a	n/a	n/a	8	[0, 0, 0]	-999	PAL1	1	R1333N
859.397	0.001	860950	ORIENT_END	n/a	n/a	-999	-999	n/a	n/a	n/a	n/a	8	[0, 0, 0]	-999	PAL1	1	R1333N
859.398	1.213	860951	ENCODING_START	n/a	n/a	-999	-999	n/a	n/a	n/a	n/a	8	[0, 0, 0]	-999	PAL1	1	R1333N
860.611	4.0	862164	STUDY_PAIR	n/a	wordpools/wordpool_EN.txt	1	-999	n/a	STRAW	STORE	STRAW	8	[0, 0, 0]	-999	PAL1	1	R1333N
864.648	0.729	866201	STUDY_PAIR_OFF	n/a	n/a	1	-999	n/a	STRAW	STORE	STRAW	8	[0, 0, 0]	-999	PAL1	1	R1333N
865.377	4.0	866930	STUDY_PAIR	n/a	wordpools/wordpool_EN.txt	2	-999	n/a	n/a	POND	MOLE	8	[0, 0, 0]	-999	PAL1	1	R1333N
869.415	0.727	870968	STUDY_PAIR_OFF	n/a	n/a	2	-999	n/a	n/a	POND	MOLE	8	[0, 0, 0]	-999	PAL1	1	R1333N
870.142	4.0	871695	STUDY_PAIR	n/a	wordpools/wordpool_EN.txt	3	-999	n/a	HEN	HEN	SUIT	8	[0, 0, 0]	-999	PAL1	1	R1333N
874.167	0.698	875719	STUDY_PAIR_OFF	n/a	n/a	3	-999	n/a	HEN	HEN	SUIT	8	[0, 0, 0]	-999	PAL1	1	R1333N
874.865	4.0	876417	STUDY_PAIR	n/a	wordpools/wordpool_EN.txt	4	-999	n/a	SINK	SINK	CLIFF	8	[0, 0, 0]	-999	PAL1	1	R1333N
878.901	0.706	880453	STUDY_PAIR_OFF	n/a	n/a	4	-999	n/a	SINK	SINK	CLIFF	8	[0, 0, 0]	-999	PAL1	1	R1333N
879.607	4.0	881159	STUDY_PAIR	n/a	wordpools/wordpool_EN.txt	5	-999	n/a	n/a	FUDGE	FISH	8	[0, 0, 0]	-999	PAL1	1	R1333N
883.634	0.695	885186	STUDY_PAIR_OFF	n/a	n/a	5	-999	n/a	n/a	FUDGE	FISH	8	[0, 0, 0]	-999	PAL1	1	R1333N
884.329	4.0	885881	STUDY_PAIR	n/a	wordpools/wordpool_EN.txt	6	-999	n/a	n/a	SOUP	KITE	8	[0, 0, 0]	-999	PAL1	1	R1333N
888.352	0.0	889904	ENCODING_END	n/a	n/a	-999	-999	n/a	n/a	n/a	n/a	8	[0, 0, 0]	-999	PAL1	1	R1333N
888.352	0.001	889904	STUDY_PAIR_OFF	n/a	n/a	6	-999	n/a	n/a	SOUP	KITE	8	[0, 0, 0]	-999	PAL1	1	R1333N
888.353	0.0	889905	MATH_START	n/a	n/a	-999	-999	n/a	n/a	n/a	n/a	8	[0, 0, 0]	-999	PAL1	1	R1333N
888.353	0.015	889905	START	n/a	n/a	-999	-999	n/a	n/a	n/a	n/a	8	[-999, -999, -999]	-999	PAL1	1	R1333N
888.368	4.051	889920	PROB	4.019	n/a	-999	-999	n/a	n/a	n/a	n/a	8	[5, 4, 1]	10	PAL1	1	R1333N
892.419	2.117	893971	PROB	2.088	n/a	-999	-999	n/a	n/a	n/a	n/a	8	[1, 1, 1]	3	PAL1	1	R1333N
894.536	3.934	896088	PROB	3.898	n/a	-999	-999	n/a	n/a	n/a	n/a	8	[6, 7, 1]	14	PAL1	1	R1333N
898.47	3.501	900022	PROB	3.47	n/a	-999	-999	n/a	n/a	n/a	n/a	8	[8, 2, 3]	13	PAL1	1	R1333N
901.971	4.368	903523	PROB	4.337	n/a	-999	-999	n/a	n/a	n/a	n/a	8	[8, 7, 1]	16	PAL1	1	R1333N
906.339	2.641	907890	PROB	2.641	n/a	-999	-999	n/a	n/a	n/a	n/a	8	[2, 2, 1]	5	PAL1	1	R1333N
908.98	0.009	910531	STOP	n/a	n/a	-999	-999	n/a	n/a	n/a	n/a	8	[-999, -999, -999]	-999	PAL1	1	R1333N
908.989	0.596	910540	MATH_END	n/a	n/a	-999	-999	n/a	n/a	n/a	n/a	8	[0, 0, 0]	-999	PAL1	1	R1333N
909.585	0.002	911136	RETRIEVAL_START	n/a	n/a	-999	-999	n/a	n/a	n/a	n/a	8	[0, 0, 0]	-999	PAL1	1	R1333N
909.587	0.286	911138	ORIENT_START	n/a	n/a	-999	-999	n/a	n/a	n/a	n/a	8	[0, 0, 0]	-999	PAL1	1	R1333N
909.873	0.518	911424	ORIENT_END	n/a	n/a	-999	-999	n/a	n/a	n/a	n/a	8	[0, 0, 0]	-999	PAL1	1	R1333N
910.391	0.0	911942	REC_START	n/a	n/a	3	1	SUIT	HEN	HEN	SUIT	8	[0, 0, 0]	-999	PAL1	1	R1333N
910.391	4.0	911942	PROBE_START	n/a	wordpools/wordpool_EN.txt	3	1	SUIT	HEN	HEN	SUIT	8	[0, 0, 0]	-999	PAL1	1	R1333N
912.933	1.49	914484	REC_EVENT	2.542	n/a	3	1	SUIT	HEN	HEN	SUIT	8	[0, 0, 0]	-999	PAL1	1	R1333N
914.423	0.999	915974	PROBE_END	n/a	n/a	3	1	SUIT	n/a	HEN	SUIT	8	[0, 0, 0]	-999	PAL1	1	R1333N
915.422	0.011	916973	REC_END	n/a	n/a	3	1	SUIT	n/a	HEN	SUIT	8	[0, 0, 0]	-999	PAL1	1	R1333N
915.433	0.274	916984	ORIENT_START	n/a	n/a	-999	-999	n/a	n/a	n/a	n/a	8	[0, 0, 0]	-999	PAL1	1	R1333N
915.707	0.555	917258	ORIENT_END	n/a	n/a	-999	-999	n/a	n/a	n/a	n/a	8	[0, 0, 0]	-999	PAL1	1	R1333N
916.262	4.0	917813	PROBE_START	n/a	wordpools/wordpool_EN.txt	2	2	POND	n/a	POND	MOLE	8	[0, 0, 0]	-999	PAL1	1	R1333N
916.262	3.242	917813	REC_START	n/a	n/a	2	2	POND	n/a	POND	MOLE	8	[0, 0, 0]	-999	PAL1	1	R1333N
919.504	0.787	921055	REC_EVENT	3.242	n/a	2	2	POND	<>	POND	MOLE	8	[0, 0, 0]	-999	PAL1	1	R1333N
920.291	1.0	921842	PROBE_END	n/a	n/a	2	2	POND	n/a	POND	MOLE	8	[0, 0, 0]	-999	PAL1	1	R1333N
921.291	0.011	922842	REC_END	n/a	n/a	2	2	POND	n/a	POND	MOLE	8	[0, 0, 0]	-999	PAL1	1	R1333N
921.302	0.272	922853	ORIENT_START	n/a	n/a	-999	-999	n/a	n/a	n/a	n/a	8	[0, 0, 0]	-999	PAL1	1	R1333N
921.574	0.681	923125	ORIENT_END	n/a	n/a	-999	-999	n/a	n/a	n/a	n/a	8	[0, 0, 0]	-999	PAL1	1	R1333N
922.255	0.0	923806	REC_START	n/a	n/a	1	3	STORE	STRAW	STORE	STRAW	8	[0, 0, 0]	-999	PAL1	1	R1333N
922.255	4.0	923806	PROBE_START	n/a	wordpools/wordpool_EN.txt	1	3	STORE	STRAW	STORE	STRAW	8	[0, 0, 0]	-999	PAL1	1	R1333N
924.447	1.845	925998	REC_EVENT	2.192	n/a	1	3	STORE	STRAW	STORE	STRAW	8	[0, 0, 0]	-999	PAL1	1	R1333N
926.292	1.001	927843	PROBE_END	n/a	n/a	1	3	STORE	n/a	STORE	STRAW	8	[0, 0, 0]	-999	PAL1	1	R1333N
927.293	0.012	928844	REC_END	n/a	n/a	1	3	STORE	n/a	STORE	STRAW	8	[0, 0, 0]	-999	PAL1	1	R1333N
927.305	0.27	928856	ORIENT_START	n/a	n/a	-999	-999	n/a	n/a	n/a	n/a	8	[0, 0, 0]	-999	PAL1	1	R1333N
927.575	0.593	929126	ORIENT_END	n/a	n/a	-999	-999	n/a	n/a	n/a	n/a	8	[0, 0, 0]	-999	PAL1	1	R1333N
928.168	4.0	929719	PROBE_START	n/a	wordpools/wordpool_EN.txt	6	4	KITE	n/a	SOUP	KITE	8	[0, 0, 0]	-999	PAL1	1	R1333N
928.168	4.025	929719	REC_START	n/a	n/a	6	4	KITE	n/a	SOUP	KITE	8	[0, 0, 0]	-999	PAL1	1	R1333N
932.193	0.517	933744	PROBE_END	n/a	n/a	6	4	KITE	n/a	SOUP	KITE	8	[0, 0, 0]	-999	PAL1	1	R1333N
932.71	0.484	934261	REC_EVENT	4.542	n/a	6	4	KITE	<>	SOUP	KITE	8	[0, 0, 0]	-999	PAL1	1	R1333N
933.194	0.011	934745	REC_END	n/a	n/a	6	4	KITE	n/a	SOUP	KITE	8	[0, 0, 0]	-999	PAL1	1	R1333N
933.205	0.271	934756	ORIENT_START	n/a	n/a	-999	-999	n/a	n/a	n/a	n/a	8	[0, 0, 0]	-999	PAL1	1	R1333N
933.476	0.517	935027	ORIENT_END	n/a	n/a	-999	-999	n/a	n/a	n/a	n/a	8	[0, 0, 0]	-999	PAL1	1	R1333N
933.993	0.0	935544	REC_START	n/a	n/a	5	5	FUDGE	n/a	FUDGE	FISH	8	[0, 0, 0]	-999	PAL1	1	R1333N
933.993	4.0	935544	PROBE_START	n/a	wordpools/wordpool_EN.txt	5	5	FUDGE	n/a	FUDGE	FISH	8	[0, 0, 0]	-999	PAL1	1	R1333N
937.83	0.197	939381	REC_EVENT	3.837	n/a	5	5	FUDGE	<>	FUDGE	FISH	8	[0, 0, 0]	-999	PAL1	1	R1333N
938.027	1.0	939578	PROBE_END	n/a	n/a	5	5	FUDGE	n/a	FUDGE	FISH	8	[0, 0, 0]	-999	PAL1	1	R1333N
939.027	0.012	940577	REC_END	n/a	n/a	5	5	FUDGE	n/a	FUDGE	FISH	8	[0, 0, 0]	-999	PAL1	1	R1333N
939.039	0.272	940589	ORIENT_START	n/a	n/a	-999	-999	n/a	n/a	n/a	n/a	8	[0, 0, 0]	-999	PAL1	1	R1333N
939.311	0.287	940861	ORIENT_END	n/a	n/a	-999	-999	n/a	n/a	n/a	n/a	8	[0, 0, 0]	-999	PAL1	1	R1333N
939.598	0.453	941148	REC_EVENT	5.605	n/a	5	5	FUDGE	<>	FUDGE	FISH	8	[0, 0, 0]	-999	PAL1	1	R1333N
940.051	0.0	941601	REC_EVENT	0.0	n/a	4	6	CLIFF	<>	SINK	CLIFF	8	[0, 0, 0]	-999	PAL1	1	R1333N
940.051	4.0	941601	PROBE_START	n/a	wordpools/wordpool_EN.txt	4	6	CLIFF	SINK	SINK	CLIFF	8	[0, 0, 0]	-999	PAL1	1	R1333N
940.051	2.58	941601	REC_START	n/a	n/a	4	6	CLIFF	SINK	SINK	CLIFF	8	[0, 0, 0]	-999	PAL1	1	R1333N
942.631	1.447	944181	REC_EVENT	2.58	n/a	4	6	CLIFF	SINK	SINK	CLIFF	8	[0, 0, 0]	-999	PAL1	1	R1333N
944.078	1.0	945628	PROBE_END	n/a	n/a	4	6	CLIFF	n/a	SINK	CLIFF	8	[0, 0, 0]	-999	PAL1	1	R1333N
945.078	0.006	946628	REC_END	n/a	n/a	4	6	CLIFF	n/a	SINK	CLIFF	8	[0, 0, 0]	-999	PAL1	1	R1333N
945.084	0.0	946634	RETRIEVAL_END	n/a	n/a	-999	-999	n/a	n/a	n/a	n/a	8	[0, 0, 0]	-999	PAL1	1	R1333N
945.084	0.019	946634	TRIAL_END	n/a	n/a	-999	-999	n/a	n/a	n/a	n/a	8	[0, 0, 0]	-999	PAL1	1	R1333N
945.103	0.0	946653	TRIAL_START	n/a	n/a	-999	-999	n/a	n/a	n/a	n/a	8	[0, 0, 0]	-999	PAL1	1	R1333N
945.103	0.0	946653	TRIAL	n/a	n/a	-999	-999	n/a	n/a	n/a	n/a	9	[0, 0, 0]	-999	PAL1	1	R1333N
945.103	1.508	946653	WAITING_START	n/a	n/a	-999	-999	n/a	n/a	n/a	n/a	9	[0, 0, 0]	-999	PAL1	1	R1333N
946.611	0.001	948161	WAITING_END	n/a	n/a	-999	-999	n/a	n/a	n/a	n/a	9	[0, 0, 0]	-999	PAL1	1	R1333N
946.612	10.0	948162	COUNTDOWN_START	n/a	n/a	-999	-999	n/a	n/a	n/a	n/a	9	[0, 0, 0]	-999	PAL1	1	R1333N
957.041	0.0	958591	COUNTDOWN_END	n/a	n/a	-999	-999	n/a	n/a	n/a	n/a	9	[0, 0, 0]	-999	PAL1	1	R1333N
957.041	0.756	958591	ORIENT_START	n/a	n/a	-999	-999	n/a	n/a	n/a	n/a	9	[0, 0, 0]	-999	PAL1	1	R1333N
957.797	0.001	959347	ORIENT_END	n/a	n/a	-999	-999	n/a	n/a	n/a	n/a	9	[0, 0, 0]	-999	PAL1	1	R1333N
957.798	1.161	959348	ENCODING_START	n/a	n/a	-999	-999	n/a	n/a	n/a	n/a	9	[0, 0, 0]	-999	PAL1	1	R1333N
958.959	4.0	960509	STUDY_PAIR	n/a	wordpools/wordpool_EN.txt	1	-999	n/a	LAND	LAND	SKUNK	9	[0, 0, 0]	-999	PAL1	1	R1333N
962.998	0.721	964548	STUDY_PAIR_OFF	n/a	n/a	1	-999	n/a	LAND	LAND	SKUNK	9	[0, 0, 0]	-999	PAL1	1	R1333N
963.719	4.0	965269	STUDY_PAIR	n/a	wordpools/wordpool_EN.txt	2	-999	n/a	FUR	HEART	GRASS	9	[0, 0, 0]	-999	PAL1	1	R1333N
967.749	0.706	969299	STUDY_PAIR_OFF	n/a	n/a	2	-999	n/a	FUR	HEART	GRASS	9	[0, 0, 0]	-999	PAL1	1	R1333N
968.455	4.0	970005	STUDY_PAIR	n/a	wordpools/wordpool_EN.txt	3	-999	n/a	n/a	SHEEP	ZOO	9	[0, 0, 0]	-999	PAL1	1	R1333N
972.482	0.671	974031	STUDY_PAIR_OFF	n/a	n/a	3	-999	n/a	n/a	SHEEP	ZOO	9	[0, 0, 0]	-999	PAL1	1	R1333N
973.153	4.0	974702	STUDY_PAIR	n/a	wordpools/wordpool_EN.txt	4	-999	n/a	n/a	ROCK	STORM	9	[0, 0, 0]	-999	PAL1	1	R1333N
977.184	0.573	978733	STUDY_PAIR_OFF	n/a	n/a	4	-999	n/a	n/a	ROCK	STORM	9	[0, 0, 0]	-999	PAL1	1	R1333N
977.757	4.0	979306	STUDY_PAIR	n/a	wordpools/wordpool_EN.txt	5	-999	n/a	n/a	HOOF	DRUM	9	[0, 0, 0]	-999	PAL1	1	R1333N
981.785	0.587	983334	STUDY_PAIR_OFF	n/a	n/a	5	-999	n/a	n/a	HOOF	DRUM	9	[0, 0, 0]	-999	PAL1	1	R1333N
982.372	4.0	983921	STUDY_PAIR	n/a	wordpools/wordpool_EN.txt	6	-999	n/a	n/a	BOMB	SALT	9	[0, 0, 0]	-999	PAL1	1	R1333N
986.401	0.001	987950	STUDY_PAIR_OFF	n/a	n/a	6	-999	n/a	n/a	BOMB	SALT	9	[0, 0, 0]	-999	PAL1	1	R1333N
986.402	0.0	987951	MATH_START	n/a	n/a	-999	-999	n/a	n/a	n/a	n/a	9	[0, 0, 0]	-999	PAL1	1	R1333N
986.402	0.0	987951	ENCODING_END	n/a	n/a	-999	-999	n/a	n/a	n/a	n/a	9	[0, 0, 0]	-999	PAL1	1	R1333N
986.402	0.016	987951	START	n/a	n/a	-999	-999	n/a	n/a	n/a	n/a	9	[-999, -999, -999]	-999	PAL1	1	R1333N
986.418	4.184	987967	PROB	4.161	n/a	-999	-999	n/a	n/a	n/a	n/a	9	[6, 7, 6]	19	PAL1	1	R1333N
990.602	3.301	992151	PROB	3.274	n/a	-999	-999	n/a	n/a	n/a	n/a	9	[5, 3, 7]	15	PAL1	1	R1333N
993.903	3.666	995452	PROB	3.628	n/a	-999	-999	n/a	n/a	n/a	n/a	9	[9, 9, 3]	21	PAL1	1	R1333N
997.569	3.569	999118	PROB	3.532	n/a	-999	-999	n/a	n/a	n/a	n/a	9	[2, 6, 5]	13	PAL1	1	R1333N
1001.138	6.17	1002687	PROB	6.17	n/a	-999	-999	n/a	n/a	n/a	n/a	9	[1, 7, 5]	13	PAL1	1	R1333N
1007.308	0.014	1008856	STOP	n/a	n/a	-999	-999	n/a	n/a	n/a	n/a	9	[-999, -999, -999]	-999	PAL1	1	R1333N
1007.322	0.619	1008870	MATH_END	n/a	n/a	-999	-999	n/a	n/a	n/a	n/a	9	[0, 0, 0]	-999	PAL1	1	R1333N
1007.941	0.002	1009489	RETRIEVAL_START	n/a	n/a	-999	-999	n/a	n/a	n/a	n/a	9	[0, 0, 0]	-999	PAL1	1	R1333N
1007.943	0.279	1009491	ORIENT_START	n/a	n/a	-999	-999	n/a	n/a	n/a	n/a	9	[0, 0, 0]	-999	PAL1	1	R1333N
1008.222	0.686	1009770	ORIENT_END	n/a	n/a	-999	-999	n/a	n/a	n/a	n/a	9	[0, 0, 0]	-999	PAL1	1	R1333N
1008.908	0.001	1010456	REC_START	n/a	n/a	1	1	SKUNK	LAND	LAND	SKUNK	9	[0, 0, 0]	-999	PAL1	1	R1333N
1008.909	4.0	1010457	PROBE_START	n/a	wordpools/wordpool_EN.txt	1	1	SKUNK	LAND	LAND	SKUNK	9	[0, 0, 0]	-999	PAL1	1	R1333N
1012.101	0.839	1013649	REC_EVENT	3.192	n/a	1	1	SKUNK	LAND	LAND	SKUNK	9	[0, 0, 0]	-999	PAL1	1	R1333N
1012.94	1.0	1014488	PROBE_END	n/a	n/a	1	1	SKUNK	n/a	LAND	SKUNK	9	[0, 0, 0]	-999	PAL1	1	R1333N
1013.94	0.013	1015488	REC_END	n/a	n/a	1	1	SKUNK	n/a	LAND	SKUNK	9	[0, 0, 0]	-999	PAL1	1	R1333N
1013.953	0.27	1015501	ORIENT_START	n/a	n/a	-999	-999	n/a	n/a	n/a	n/a	9	[0, 0, 0]	-999	PAL1	1	R1333N
1014.223	0.744	1015771	ORIENT_END	n/a	n/a	-999	-999	n/a	n/a	n/a	n/a	9	[0, 0, 0]	-999	PAL1	1	R1333N
1014.967	0.0	1016515	REC_START	n/a	n/a	4	2	ROCK	n/a	ROCK	STORM	9	[0, 0, 0]	-999	PAL1	1	R1333N
1014.967	4.0	1016515	PROBE_START	n/a	wordpools/wordpool_EN.txt	4	2	ROCK	n/a	ROCK	STORM	9	[0, 0, 0]	-999	PAL1	1	R1333N
1018.106	0.885	1019654	REC_EVENT	3.139	n/a	4	2	ROCK	<>	ROCK	STORM	9	[0, 0, 0]	-999	PAL1	1	R1333N
1018.991	1.0	1020539	PROBE_END	n/a	n/a	4	2	ROCK	n/a	ROCK	STORM	9	[0, 0, 0]	-999	PAL1	1	R1333N
1019.991	0.007	1021539	REC_END	n/a	n/a	4	2	ROCK	n/a	ROCK	STORM	9	[0, 0, 0]	-999	PAL1	1	R1333N
1019.998	0.276	1021546	ORIENT_START	n/a	n/a	-999	-999	n/a	n/a	n/a	n/a	9	[0, 0, 0]	-999	PAL1	1	R1333N
1020.274	0.586	1021822	ORIENT_END	n/a	n/a	-999	-999	n/a	n/a	n/a	n/a	9	[0, 0, 0]	-999	PAL1	1	R1333N
1020.86	0.001	1022408	REC_START	n/a	n/a	5	3	HOOF	n/a	HOOF	DRUM	9	[0, 0, 0]	-999	PAL1	1	R1333N
1020.861	4.0	1022409	PROBE_START	n/a	wordpools/wordpool_EN.txt	5	3	HOOF	n/a	HOOF	DRUM	9	[0, 0, 0]	-999	PAL1	1	R1333N
1024.15	0.742	1025698	REC_EVENT	3.289	n/a	5	3	HOOF	<>	HOOF	DRUM	9	[0, 0, 0]	-999	PAL1	1	R1333N
1024.892	1.001	1026440	PROBE_END	n/a	n/a	5	3	HOOF	n/a	HOOF	DRUM	9	[0, 0, 0]	-999	PAL1	1	R1333N
1025.893	0.01	1027441	REC_END	n/a	n/a	5	3	HOOF	n/a	HOOF	DRUM	9	[0, 0, 0]	-999	PAL1	1	R1333N
1025.903	0.272	1027451	ORIENT_START	n/a	n/a	-999	-999	n/a	n/a	n/a	n/a	9	[0, 0, 0]	-999	PAL1	1	R1333N
1026.175	0.523	1027723	ORIENT_END	n/a	n/a	-999	-999	n/a	n/a	n/a	n/a	9	[0, 0, 0]	-999	PAL1	1	R1333N
1026.698	0.0	1028246	REC_START	n/a	n/a	6	4	SALT	n/a	BOMB	SALT	9	[0, 0, 0]	-999	PAL1	1	R1333N
1026.698	4.0	1028246	PROBE_START	n/a	wordpools/wordpool_EN.txt	6	4	SALT	n/a	BOMB	SALT	9	[0, 0, 0]	-999	PAL1	1	R1333N
1029.914	0.812	1031462	REC_EVENT	3.216	n/a	6	4	SALT	<>	BOMB	SALT	9	[0, 0, 0]	-999	PAL1	1	R1333N
1030.726	1.0	1032274	PROBE_END	n/a	n/a	6	4	SALT	n/a	BOMB	SALT	9	[0, 0, 0]	-999	PAL1	1	R1333N
1031.726	0.011	1033274	REC_END	n/a	n/a	6	4	SALT	n/a	BOMB	SALT	9	[0, 0, 0]	-999	PAL1	1	R1333N
1031.737	0.273	1033285	ORIENT_START	n/a	n/a	-999	-999	n/a	n/a	n/a	n/a	9	[0, 0, 0]	-999	PAL1	1	R1333N
1032.01	0.572	1033558	ORIENT_END	n/a	n/a	-999	-999	n/a	n/a	n/a	n/a	9	[0, 0, 0]	-999	PAL1	1	R1333N
1032.582	0.0	1034130	REC_START	n/a	n/a	3	5	SHEEP	n/a	SHEEP	ZOO	9	[0, 0, 0]	-999	PAL1	1	R1333N
1032.582	4.0	1034130	PROBE_START	n/a	wordpools/wordpool_EN.txt	3	5	SHEEP	n/a	SHEEP	ZOO	9	[0, 0, 0]	-999	PAL1	1	R1333N
1036.609	0.385	1038157	PROBE_END	n/a	n/a	3	5	SHEEP	n/a	SHEEP	ZOO	9	[0, 0, 0]	-999	PAL1	1	R1333N
1036.994	0.615	1038542	REC_EVENT	4.412	n/a	3	5	SHEEP	<>	SHEEP	ZOO	9	[0, 0, 0]	-999	PAL1	1	R1333N
1037.609	0.012	1039157	REC_END	n/a	n/a	3	5	SHEEP	n/a	SHEEP	ZOO	9	[0, 0, 0]	-999	PAL1	1	R1333N
1037.621	0.273	1039169	ORIENT_START	n/a	n/a	-999	-999	n/a	n/a	n/a	n/a	9	[0, 0, 0]	-999	PAL1	1	R1333N
1037.894	0.674	1039442	ORIENT_END	n/a	n/a	-999	-999	n/a	n/a	n/a	n/a	9	[0, 0, 0]	-999	PAL1	1	R1333N
1038.568	0.001	1040116	REC_START	n/a	n/a	2	6	GRASS	FUR	HEART	GRASS	9	[0, 0, 0]	-999	PAL1	1	R1333N
1038.569	4.0	1040117	PROBE_START	n/a	wordpools/wordpool_EN.txt	2	6	GRASS	FUR	HEART	GRASS	9	[0, 0, 0]	-999	PAL1	1	R1333N
1041.558	1.036	1043105	REC_EVENT	2.989	n/a	2	6	GRASS	FUR	HEART	GRASS	9	[0, 0, 0]	-999	PAL1	1	R1333N
1042.594	1.0	1044141	PROBE_END	n/a	n/a	2	6	GRASS	n/a	HEART	GRASS	9	[0, 0, 0]	-999	PAL1	1	R1333N
1043.594	0.012	1045141	REC_END	n/a	n/a	2	6	GRASS	n/a	HEART	GRASS	9	[0, 0, 0]	-999	PAL1	1	R1333N
1043.606	0.0	1045153	RETRIEVAL_END	n/a	n/a	-999	-999	n/a	n/a	n/a	n/a	9	[0, 0, 0]	-999	PAL1	1	R1333N
1043.606	0.02	1045153	TRIAL_END	n/a	n/a	-999	-999	n/a	n/a	n/a	n/a	9	[0, 0, 0]	-999	PAL1	1	R1333N
1043.626	0.0	1045173	TRIAL_START	n/a	n/a	-999	-999	n/a	n/a	n/a	n/a	9	[0, 0, 0]	-999	PAL1	1	R1333N
1043.626	0.0	1045173	TRIAL	n/a	n/a	-999	-999	n/a	n/a	n/a	n/a	10	[0, 0, 0]	-999	PAL1	1	R1333N
1043.626	3.269	1045173	WAITING_START	n/a	n/a	-999	-999	n/a	n/a	n/a	n/a	10	[0, 0, 0]	-999	PAL1	1	R1333N
1046.895	0.001	1048442	WAITING_END	n/a	n/a	-999	-999	n/a	n/a	n/a	n/a	10	[0, 0, 0]	-999	PAL1	1	R1333N
1046.896	10.0	1048443	COUNTDOWN_START	n/a	n/a	-999	-999	n/a	n/a	n/a	n/a	10	[0, 0, 0]	-999	PAL1	1	R1333N
1057.325	0.001	1058872	COUNTDOWN_END	n/a	n/a	-999	-999	n/a	n/a	n/a	n/a	10	[0, 0, 0]	-999	PAL1	1	R1333N
1057.326	0.571	1058873	ORIENT_START	n/a	n/a	-999	-999	n/a	n/a	n/a	n/a	10	[0, 0, 0]	-999	PAL1	1	R1333N
1057.897	0.001	1059444	ORIENT_END	n/a	n/a	-999	-999	n/a	n/a	n/a	n/a	10	[0, 0, 0]	-999	PAL1	1	R1333N
1057.898	1.243	1059445	ENCODING_START	n/a	n/a	-999	-999	n/a	n/a	n/a	n/a	10	[0, 0, 0]	-999	PAL1	1	R1333N
1059.141	4.0	1060688	STUDY_PAIR	n/a	wordpools/wordpool_EN.txt	1	-999	n/a	n/a	LAMP	FOOD	10	[0, 0, 0]	-999	PAL1	1	R1333N
1063.182	0.572	1064729	STUDY_PAIR_OFF	n/a	n/a	1	-999	n/a	n/a	LAMP	FOOD	10	[0, 0, 0]	-999	PAL1	1	R1333N
1063.754	4.0	1065301	STUDY_PAIR	n/a	wordpools/wordpool_EN.txt	2	-999	n/a	n/a	FARM	HAT	10	[0, 0, 0]	-999	PAL1	1	R1333N
1067.782	0.665	1069329	STUDY_PAIR_OFF	n/a	n/a	2	-999	n/a	n/a	FARM	HAT	10	[0, 0, 0]	-999	PAL1	1	R1333N
1068.447	4.0	1069994	STUDY_PAIR	n/a	wordpools/wordpool_EN.txt	3	-999	n/a	DRESS	BEAK	DRESS	10	[0, 0, 0]	-999	PAL1	1	R1333N
1072.465	0.706	1074012	STUDY_PAIR_OFF	n/a	n/a	3	-999	n/a	DRESS	BEAK	DRESS	10	[0, 0, 0]	-999	PAL1	1	R1333N
1073.171	4.0	1074718	STUDY_PAIR	n/a	wordpools/wordpool_EN.txt	4	-999	n/a	n/a	JAIL	HOSE	10	[0, 0, 0]	-999	PAL1	1	R1333N
1077.2	0.506	1078746	STUDY_PAIR_OFF	n/a	n/a	4	-999	n/a	n/a	JAIL	HOSE	10	[0, 0, 0]	-999	PAL1	1	R1333N
1077.706	4.0	1079252	STUDY_PAIR	n/a	wordpools/wordpool_EN.txt	5	-999	n/a	SQUARE	SQUARE	BANK	10	[0, 0, 0]	-999	PAL1	1	R1333N
1081.734	0.534	1083280	STUDY_PAIR_OFF	n/a	n/a	5	-999	n/a	SQUARE	SQUARE	BANK	10	[0, 0, 0]	-999	PAL1	1	R1333N
1082.268	4.0	1083814	STUDY_PAIR	n/a	wordpools/wordpool_EN.txt	6	-999	n/a	OWL	EEL	OWL	10	[0, 0, 0]	-999	PAL1	1	R1333N
1086.302	0.001	1087848	STUDY_PAIR_OFF	n/a	n/a	6	-999	n/a	OWL	EEL	OWL	10	[0, 0, 0]	-999	PAL1	1	R1333N
1086.303	0.0	1087849	ENCODING_END	n/a	n/a	-999	-999	n/a	n/a	n/a	n/a	10	[0, 0, 0]	-999	PAL1	1	R1333N
1086.303	0.0	1087849	MATH_START	n/a	n/a	-999	-999	n/a	n/a	n/a	n/a	10	[0, 0, 0]	-999	PAL1	1	R1333N
1086.303	0.015	1087849	START	n/a	n/a	-999	-999	n/a	n/a	n/a	n/a	10	[-999, -999, -999]	-999	PAL1	1	R1333N
1086.318	3.551	1087864	PROB	3.527	n/a	-999	-999	n/a	n/a	n/a	n/a	10	[8, 2, 4]	14	PAL1	1	R1333N
1089.869	3.967	1091415	PROB	3.943	n/a	-999	-999	n/a	n/a	n/a	n/a	10	[3, 9, 6]	18	PAL1	1	R1333N
1093.836	3.117	1095382	PROB	3.088	n/a	-999	-999	n/a	n/a	n/a	n/a	10	[5, 6, 2]	13	PAL1	1	R1333N
1096.953	2.868	1098499	PROB	2.843	n/a	-999	-999	n/a	n/a	n/a	n/a	10	[6, 4, 3]	13	PAL1	1	R1333N
1099.821	2.866	1101367	PROB	2.838	n/a	-999	-999	n/a	n/a	n/a	n/a	10	[6, 1, 5]	12	PAL1	1	R1333N
1102.687	2.717	1104233	PROB	2.692	n/a	-999	-999	n/a	n/a	n/a	n/a	10	[2, 3, 9]	14	PAL1	1	R1333N
1105.404	2.624	1106950	PROB	2.624	n/a	-999	-999	n/a	n/a	n/a	n/a	10	[1, 2, 9]	12	PAL1	1	R1333N
1108.028	0.011	1109573	STOP	n/a	n/a	-999	-999	n/a	n/a	n/a	n/a	10	[-999, -999, -999]	-999	PAL1	1	R1333N
1108.039	0.585	1109584	MATH_END	n/a	n/a	-999	-999	n/a	n/a	n/a	n/a	10	[0, 0, 0]	-999	PAL1	1	R1333N
1108.624	0.001	1110169	RETRIEVAL_START	n/a	n/a	-999	-999	n/a	n/a	n/a	n/a	10	[0, 0, 0]	-999	PAL1	1	R1333N
1108.625	0.281	1110170	ORIENT_START	n/a	n/a	-999	-999	n/a	n/a	n/a	n/a	10	[0, 0, 0]	-999	PAL1	1	R1333N
1108.906	0.734	1110451	ORIENT_END	n/a	n/a	-999	-999	n/a	n/a	n/a	n/a	10	[0, 0, 0]	-999	PAL1	1	R1333N
1109.64	0.0	1111185	REC_START	n/a	n/a	1	1	FOOD	n/a	LAMP	FOOD	10	[0, 0, 0]	-999	PAL1	1	R1333N
1109.64	4.0	1111185	PROBE_START	n/a	wordpools/wordpool_EN.txt	1	1	FOOD	n/a	LAMP	FOOD	10	[0, 0, 0]	-999	PAL1	1	R1333N
1111.825	1.847	1113370	REC_EVENT	2.185	n/a	1	1	FOOD	<>	LAMP	FOOD	10	[0, 0, 0]	-999	PAL1	1	R1333N
1113.672	1.0	1115217	PROBE_END	n/a	n/a	1	1	FOOD	n/a	LAMP	FOOD	10	[0, 0, 0]	-999	PAL1	1	R1333N
1114.672	0.006	1116217	REC_END	n/a	n/a	1	1	FOOD	n/a	LAMP	FOOD	10	[0, 0, 0]	-999	PAL1	1	R1333N
1114.678	0.279	1116223	ORIENT_START	n/a	n/a	-999	-999	n/a	n/a	n/a	n/a	10	[0, 0, 0]	-999	PAL1	1	R1333N
1114.957	0.501	1116502	ORIENT_END	n/a	n/a	-999	-999	n/a	n/a	n/a	n/a	10	[0, 0, 0]	-999	PAL1	1	R1333N
1115.458	0.0	1117003	REC_START	n/a	n/a	6	2	EEL	OWL	EEL	OWL	10	[0, 0, 0]	-999	PAL1	1	R1333N
1115.458	4.0	1117003	PROBE_START	n/a	wordpools/wordpool_EN.txt	6	2	EEL	OWL	EEL	OWL	10	[0, 0, 0]	-999	PAL1	1	R1333N
1117.066	2.424	1118611	REC_EVENT	1.608	n/a	6	2	EEL	OWL	EEL	OWL	10	[0, 0, 0]	-999	PAL1	1	R1333N
1119.49	0.999	1121035	PROBE_END	n/a	n/a	6	2	EEL	n/a	EEL	OWL	10	[0, 0, 0]	-999	PAL1	1	R1333N
1120.489	0.011	1122034	REC_END	n/a	n/a	6	2	EEL	n/a	EEL	OWL	10	[0, 0, 0]	-999	PAL1	1	R1333N
1120.5	0.274	1122045	ORIENT_START	n/a	n/a	-999	-999	n/a	n/a	n/a	n/a	10	[0, 0, 0]	-999	PAL1	1	R1333N
1120.774	0.597	1122319	ORIENT_END	n/a	n/a	-999	-999	n/a	n/a	n/a	n/a	10	[0, 0, 0]	-999	PAL1	1	R1333N
1121.371	0.001	1122916	REC_START	n/a	n/a	5	3	BANK	SQUARE	SQUARE	BANK	10	[0, 0, 0]	-999	PAL1	1	R1333N
1121.372	4.0	1122917	PROBE_START	n/a	wordpools/wordpool_EN.txt	5	3	BANK	SQUARE	SQUARE	BANK	10	[0, 0, 0]	-999	PAL1	1	R1333N
1123.107	2.3	1124652	REC_EVENT	1.735	n/a	5	3	BANK	SQUARE	SQUARE	BANK	10	[0, 0, 0]	-999	PAL1	1	R1333N
1125.407	1.0	1126952	PROBE_END	n/a	n/a	5	3	BANK	n/a	SQUARE	BANK	10	[0, 0, 0]	-999	PAL1	1	R1333N
1126.407	0.011	1127952	REC_END	n/a	n/a	5	3	BANK	n/a	SQUARE	BANK	10	[0, 0, 0]	-999	PAL1	1	R1333N
1126.418	0.273	1127963	ORIENT_START	n/a	n/a	-999	-999	n/a	n/a	n/a	n/a	10	[0, 0, 0]	-999	PAL1	1	R1333N
1126.691	0.634	1128236	ORIENT_END	n/a	n/a	-999	-999	n/a	n/a	n/a	n/a	10	[0, 0, 0]	-999	PAL1	1	R1333N
1127.325	0.001	1128870	REC_START	n/a	n/a	2	4	FARM	n/a	FARM	HAT	10	[0, 0, 0]	-999	PAL1	1	R1333N
1127.326	4.0	1128871	PROBE_START	n/a	wordpools/wordpool_EN.txt	2	4	FARM	n/a	FARM	HAT	10	[0, 0, 0]	-999	PAL1	1	R1333N
1130.159	1.199	1131704	REC_EVENT	2.833	n/a	2	4	FARM	<>	FARM	HAT	10	[0, 0, 0]	-999	PAL1	1	R1333N
1131.358	1.001	1132903	PROBE_END	n/a	n/a	2	4	FARM	n/a	FARM	HAT	10	[0, 0, 0]	-999	PAL1	1	R1333N
1132.359	0.01	1133904	REC_END	n/a	n/a	2	4	FARM	n/a	FARM	HAT	10	[0, 0, 0]	-999	PAL1	1	R1333N
1132.369	0.273	1133914	ORIENT_START	n/a	n/a	-999	-999	n/a	n/a	n/a	n/a	10	[0, 0, 0]	-999	PAL1	1	R1333N
1132.642	0.683	1134187	ORIENT_END	n/a	n/a	-999	-999	n/a	n/a	n/a	n/a	10	[0, 0, 0]	-999	PAL1	1	R1333N
1133.325	0.001	1134870	REC_START	n/a	n/a	3	5	BEAK	DRESS	BEAK	DRESS	10	[0, 0, 0]	-999	PAL1	1	R1333N
1133.326	4.0	1134871	PROBE_START	n/a	wordpools/wordpool_EN.txt	3	5	BEAK	DRESS	BEAK	DRESS	10	[0, 0, 0]	-999	PAL1	1	R1333N
1136.188	1.171	1137733	REC_EVENT	2.862	n/a	3	5	BEAK	DRESS	BEAK	DRESS	10	[0, 0, 0]	-999	PAL1	1	R1333N
1137.359	1.0	1138904	PROBE_END	n/a	n/a	3	5	BEAK	n/a	BEAK	DRESS	10	[0, 0, 0]	-999	PAL1	1	R1333N
1138.359	0.013	1139904	REC_END	n/a	n/a	3	5	BEAK	n/a	BEAK	DRESS	10	[0, 0, 0]	-999	PAL1	1	R1333N
1138.372	0.271	1139917	ORIENT_START	n/a	n/a	-999	-999	n/a	n/a	n/a	n/a	10	[0, 0, 0]	-999	PAL1	1	R1333N
1138.643	0.604	1140188	ORIENT_END	n/a	n/a	-999	-999	n/a	n/a	n/a	n/a	10	[0, 0, 0]	-999	PAL1	1	R1333N
1139.247	0.0	1140792	REC_START	n/a	n/a	4	6	HOSE	n/a	JAIL	HOSE	10	[0, 0, 0]	-999	PAL1	1	R1333N
1139.247	4.0	1140792	PROBE_START	n/a	wordpools/wordpool_EN.txt	4	6	HOSE	n/a	JAIL	HOSE	10	[0, 0, 0]	-999	PAL1	1	R1333N
1143.278	0.208	1144822	PROBE_END	n/a	n/a	4	6	HOSE	n/a	JAIL	HOSE	10	[0, 0, 0]	-999	PAL1	1	R1333N
1143.486	0.793	1145030	REC_EVENT	4.239	n/a	4	6	HOSE	<>	JAIL	HOSE	10	[0, 0, 0]	-999	PAL1	1	R1333N
1144.279	0.009	1145823	REC_END	n/a	n/a	4	6	HOSE	n/a	JAIL	HOSE	10	[0, 0, 0]	-999	PAL1	1	R1333N
1144.288	0.001	1145832	RETRIEVAL_END	n/a	n/a	-999	-999	n/a	n/a	n/a	n/a	10	[0, 0, 0]	-999	PAL1	1	R1333N
1144.289	0.018	1145833	TRIAL_END	n/a	n/a	-999	-999	n/a	n/a	n/a	n/a	10	[0, 0, 0]	-999	PAL1	1	R1333N
1144.307	0.001	1145851	TRIAL_START	n/a	n/a	-999	-999	n/a	n/a	n/a	n/a	10	[0, 0, 0]	-999	PAL1	1	R1333N
1144.308	0.0	1145852	TRIAL	n/a	n/a	-999	-999	n/a	n/a	n/a	n/a	11	[0, 0, 0]	-999	PAL1	1	R1333N
1144.308	15.589	1145852	WAITING_START	n/a	n/a	-999	-999	n/a	n/a	n/a	n/a	11	[0, 0, 0]	-999	PAL1	1	R1333N
1159.897	0.001	1161441	WAITING_END	n/a	n/a	-999	-999	n/a	n/a	n/a	n/a	11	[0, 0, 0]	-999	PAL1	1	R1333N
1159.898	10.0	1161442	COUNTDOWN_START	n/a	n/a	-999	-999	n/a	n/a	n/a	n/a	11	[0, 0, 0]	-999	PAL1	1	R1333N
1170.326	0.001	1171870	COUNTDOWN_END	n/a	n/a	-999	-999	n/a	n/a	n/a	n/a	11	[0, 0, 0]	-999	PAL1	1	R1333N
1170.327	0.689	1171871	ORIENT_START	n/a	n/a	-999	-999	n/a	n/a	n/a	n/a	11	[0, 0, 0]	-999	PAL1	1	R1333N
1171.016	0.001	1172560	ORIENT_END	n/a	n/a	-999	-999	n/a	n/a	n/a	n/a	11	[0, 0, 0]	-999	PAL1	1	R1333N
1171.017	1.129	1172561	ENCODING_START	n/a	n/a	-999	-999	n/a	n/a	n/a	n/a	11	[0, 0, 0]	-999	PAL1	1	R1333N
1172.146	4.0	1173690	STUDY_PAIR	n/a	wordpools/wordpool_EN.txt	1	-999	n/a	BEACH	CLOWN	BEACH	11	[0, 0, 0]	-999	PAL1	1	R1333N
1176.183	0.54	1177726	STUDY_PAIR_OFF	n/a	n/a	1	-999	n/a	BEACH	CLOWN	BEACH	11	[0, 0, 0]	-999	PAL1	1	R1333N
1176.723	4.0	1178266	STUDY_PAIR	n/a	wordpools/wordpool_EN.txt	2	-999	n/a	TEA	SPONGE	TEA	11	[0, 0, 0]	-999	PAL1	1	R1333N
1180.751	0.581	1182294	STUDY_PAIR_OFF	n/a	n/a	2	-999	n/a	TEA	SPONGE	TEA	11	[0, 0, 0]	-999	PAL1	1	R1333N
1181.332	4.0	1182875	STUDY_PAIR	n/a	wordpools/wordpool_EN.txt	3	-999	n/a	n/a	PRINCE	NAIL	11	[0, 0, 0]	-999	PAL1	1	R1333N
1185.367	0.746	1186910	STUDY_PAIR_OFF	n/a	n/a	3	-999	n/a	n/a	PRINCE	NAIL	11	[0, 0, 0]	-999	PAL1	1	R1333N
1186.113	4.0	1187656	STUDY_PAIR	n/a	wordpools/wordpool_EN.txt	4	-999	n/a	n/a	FLEA	POOL	11	[0, 0, 0]	-999	PAL1	1	R1333N
1190.136	0.58	1191679	STUDY_PAIR_OFF	n/a	n/a	4	-999	n/a	n/a	FLEA	POOL	11	[0, 0, 0]	-999	PAL1	1	R1333N
1190.716	4.0	1192259	STUDY_PAIR	n/a	wordpools/wordpool_EN.txt	5	-999	n/a	n/a	FORK	CROW	11	[0, 0, 0]	-999	PAL1	1	R1333N
1194.753	0.575	1196296	STUDY_PAIR_OFF	n/a	n/a	5	-999	n/a	n/a	FORK	CROW	11	[0, 0, 0]	-999	PAL1	1	R1333N
1195.328	4.0	1196871	STUDY_PAIR	n/a	wordpools/wordpool_EN.txt	6	-999	n/a	n/a	TRAIN	BRICK	11	[0, 0, 0]	-999	PAL1	1	R1333N
1199.337	0.001	1200880	STUDY_PAIR_OFF	n/a	n/a	6	-999	n/a	n/a	TRAIN	BRICK	11	[0, 0, 0]	-999	PAL1	1	R1333N
1199.338	0.0	1200881	ENCODING_END	n/a	n/a	-999	-999	n/a	n/a	n/a	n/a	11	[0, 0, 0]	-999	PAL1	1	R1333N
1199.338	0.0	1200881	MATH_START	n/a	n/a	-999	-999	n/a	n/a	n/a	n/a	11	[0, 0, 0]	-999	PAL1	1	R1333N
1199.338	0.015	1200881	START	n/a	n/a	-999	-999	n/a	n/a	n/a	n/a	11	[-999, -999, -999]	-999	PAL1	1	R1333N
1199.353	4.535	1200896	PROB	4.499	n/a	-999	-999	n/a	n/a	n/a	n/a	11	[6, 7, 9]	21	PAL1	1	R1333N
1203.888	5.267	1205431	PROB	5.244	n/a	-999	-999	n/a	n/a	n/a	n/a	11	[8, 4, 9]	21	PAL1	1	R1333N
1209.155	4.2	1210697	PROB	4.177	n/a	-999	-999	n/a	n/a	n/a	n/a	11	[5, 7, 9]	21	PAL1	1	R1333N
1213.355	5.585	1214897	PROB	5.553	n/a	-999	-999	n/a	n/a	n/a	n/a	11	[3, 4, 5]	12	PAL1	1	R1333N
1218.94	4.679	1220482	PROB	4.679	n/a	-999	-999	n/a	n/a	n/a	n/a	11	[1, 6, 9]	15	PAL1	1	R1333N
1223.619	0.021	1225161	STOP	n/a	n/a	-999	-999	n/a	n/a	n/a	n/a	11	[-999, -999, -999]	-999	PAL1	1	R1333N
1223.64	0.656	1225182	MATH_END	n/a	n/a	-999	-999	n/a	n/a	n/a	n/a	11	[0, 0, 0]	-999	PAL1	1	R1333N
1224.296	0.001	1225838	RETRIEVAL_START	n/a	n/a	-999	-999	n/a	n/a	n/a	n/a	11	[0, 0, 0]	-999	PAL1	1	R1333N
1224.297	0.277	1225839	ORIENT_START	n/a	n/a	-999	-999	n/a	n/a	n/a	n/a	11	[0, 0, 0]	-999	PAL1	1	R1333N
1224.574	0.742	1226116	ORIENT_END	n/a	n/a	-999	-999	n/a	n/a	n/a	n/a	11	[0, 0, 0]	-999	PAL1	1	R1333N
1225.316	0.0	1226858	REC_START	n/a	n/a	3	1	NAIL	n/a	PRINCE	NAIL	11	[0, 0, 0]	-999	PAL1	1	R1333N
1225.316	4.0	1226858	PROBE_START	n/a	wordpools/wordpool_EN.txt	3	1	NAIL	n/a	PRINCE	NAIL	11	[0, 0, 0]	-999	PAL1	1	R1333N
1229.341	0.037	1230883	PROBE_END	n/a	n/a	3	1	NAIL	n/a	PRINCE	NAIL	11	[0, 0, 0]	-999	PAL1	1	R1333N
1229.378	0.964	1230920	REC_EVENT	4.062	n/a	3	1	NAIL	<>	PRINCE	NAIL	11	[0, 0, 0]	-999	PAL1	1	R1333N
1230.342	0.006	1231884	REC_END	n/a	n/a	3	1	NAIL	n/a	PRINCE	NAIL	11	[0, 0, 0]	-999	PAL1	1	R1333N
1230.348	0.277	1231890	ORIENT_START	n/a	n/a	-999	-999	n/a	n/a	n/a	n/a	11	[0, 0, 0]	-999	PAL1	1	R1333N
1230.625	0.568	1232167	ORIENT_END	n/a	n/a	-999	-999	n/a	n/a	n/a	n/a	11	[0, 0, 0]	-999	PAL1	1	R1333N
1231.193	0.0	1232735	REC_START	n/a	n/a	6	2	BRICK	n/a	TRAIN	BRICK	11	[0, 0, 0]	-999	PAL1	1	R1333N
1231.193	4.0	1232735	PROBE_START	n/a	wordpools/wordpool_EN.txt	6	2	BRICK	n/a	TRAIN	BRICK	11	[0, 0, 0]	-999	PAL1	1	R1333N
1234.651	0.576	1236193	REC_EVENT	3.458	n/a	6	2	BRICK	<>	TRAIN	BRICK	11	[0, 0, 0]	-999	PAL1	1	R1333N
1235.227	0.999	1236769	PROBE_END	n/a	n/a	6	2	BRICK	n/a	TRAIN	BRICK	11	[0, 0, 0]	-999	PAL1	1	R1333N
1236.226	0.01	1237768	REC_END	n/a	n/a	6	2	BRICK	n/a	TRAIN	BRICK	11	[0, 0, 0]	-999	PAL1	1	R1333N
1236.236	0.273	1237778	ORIENT_START	n/a	n/a	-999	-999	n/a	n/a	n/a	n/a	11	[0, 0, 0]	-999	PAL1	1	R1333N
1236.509	0.519	1238051	ORIENT_END	n/a	n/a	-999	-999	n/a	n/a	n/a	n/a	11	[0, 0, 0]	-999	PAL1	1	R1333N
1237.028	0.001	1238570	REC_START	n/a	n/a	5	3	CROW	n/a	FORK	CROW	11	[0, 0, 0]	-999	PAL1	1	R1333N
1237.029	4.0	1238571	PROBE_START	n/a	wordpools/wordpool_EN.txt	5	3	CROW	n/a	FORK	CROW	11	[0, 0, 0]	-999	PAL1	1	R1333N
1241.044	0.61	1242586	PROBE_END	n/a	n/a	5	3	CROW	n/a	FORK	CROW	11	[0, 0, 0]	-999	PAL1	1	R1333N
1241.654	0.39	1243196	REC_EVENT	4.625	n/a	5	3	CROW	<>	FORK	CROW	11	[0, 0, 0]	-999	PAL1	1	R1333N
1242.044	0.01	1243586	REC_END	n/a	n/a	5	3	CROW	n/a	FORK	CROW	11	[0, 0, 0]	-999	PAL1	1	R1333N
1242.054	0.274	1243596	ORIENT_START	n/a	n/a	-999	-999	n/a	n/a	n/a	n/a	11	[0, 0, 0]	-999	PAL1	1	R1333N
1242.328	0.574	1243869	ORIENT_END	n/a	n/a	-999	-999	n/a	n/a	n/a	n/a	11	[0, 0, 0]	-999	PAL1	1	R1333N
1242.902	0.0	1244443	REC_START	n/a	n/a	2	4	SPONGE	TEA	SPONGE	TEA	11	[0, 0, 0]	-999	PAL1	1	R1333N
1242.902	4.0	1244443	PROBE_START	n/a	wordpools/wordpool_EN.txt	2	4	SPONGE	TEA	SPONGE	TEA	11	[0, 0, 0]	-999	PAL1	1	R1333N
1244.834	2.094	1246375	REC_EVENT	1.932	n/a	2	4	SPONGE	TEA	SPONGE	TEA	11	[0, 0, 0]	-999	PAL1	1	R1333N
1246.928	1.0	1248469	PROBE_END	n/a	n/a	2	4	SPONGE	n/a	SPONGE	TEA	11	[0, 0, 0]	-999	PAL1	1	R1333N
1247.928	0.012	1249469	REC_END	n/a	n/a	2	4	SPONGE	n/a	SPONGE	TEA	11	[0, 0, 0]	-999	PAL1	1	R1333N
1247.94	0.272	1249481	ORIENT_START	n/a	n/a	-999	-999	n/a	n/a	n/a	n/a	11	[0, 0, 0]	-999	PAL1	1	R1333N
1248.212	0.712	1249753	ORIENT_END	n/a	n/a	-999	-999	n/a	n/a	n/a	n/a	11	[0, 0, 0]	-999	PAL1	1	R1333N
1248.924	0.001	1250465	REC_START	n/a	n/a	1	5	CLOWN	BEACH	CLOWN	BEACH	11	[0, 0, 0]	-999	PAL1	1	R1333N
1248.925	4.0	1250466	PROBE_START	n/a	wordpools/wordpool_EN.txt	1	5	CLOWN	BEACH	CLOWN	BEACH	11	[0, 0, 0]	-999	PAL1	1	R1333N
1251.707	1.256	1253248	REC_EVENT	2.782	n/a	1	5	CLOWN	BEACH	CLOWN	BEACH	11	[0, 0, 0]	-999	PAL1	1	R1333N
1252.963	1.001	1254504	PROBE_END	n/a	n/a	1	5	CLOWN	n/a	CLOWN	BEACH	11	[0, 0, 0]	-999	PAL1	1	R1333N
1253.964	0.011	1255505	REC_END	n/a	n/a	1	5	CLOWN	n/a	CLOWN	BEACH	11	[0, 0, 0]	-999	PAL1	1	R1333N
1253.975	0.271	1255516	ORIENT_START	n/a	n/a	-999	-999	n/a	n/a	n/a	n/a	11	[0, 0, 0]	-999	PAL1	1	R1333N
1254.246	0.502	1255787	ORIENT_END	n/a	n/a	-999	-999	n/a	n/a	n/a	n/a	11	[0, 0, 0]	-999	PAL1	1	R1333N
1254.748	0.0	1256289	REC_START	n/a	n/a	4	6	FLEA	n/a	FLEA	POOL	11	[0, 0, 0]	-999	PAL1	1	R1333N
1254.748	4.0	1256289	PROBE_START	n/a	wordpools/wordpool_EN.txt	4	6	FLEA	n/a	FLEA	POOL	11	[0, 0, 0]	-999	PAL1	1	R1333N
1257.43	1.35	1258971	REC_EVENT	2.682	n/a	4	6	FLEA	<>	FLEA	POOL	11	[0, 0, 0]	-999	PAL1	1	R1333N
1258.78	1.0	1260321	PROBE_END	n/a	n/a	4	6	FLEA	n/a	FLEA	POOL	11	[0, 0, 0]	-999	PAL1	1	R1333N
1259.78	0.009	1261321	REC_END	n/a	n/a	4	6	FLEA	n/a	FLEA	POOL	11	[0, 0, 0]	-999	PAL1	1	R1333N
1259.789	0.001	1261330	RETRIEVAL_END	n/a	n/a	-999	-999	n/a	n/a	n/a	n/a	11	[0, 0, 0]	-999	PAL1	1	R1333N
1259.79	0.019	1261331	TRIAL_END	n/a	n/a	-999	-999	n/a	n/a	n/a	n/a	11	[0, 0, 0]	-999	PAL1	1	R1333N
1259.809	0.001	1261350	TRIAL_START	n/a	n/a	-999	-999	n/a	n/a	n/a	n/a	11	[0, 0, 0]	-999	PAL1	1	R1333N
1259.81	0.0	1261351	TRIAL	n/a	n/a	-999	-999	n/a	n/a	n/a	n/a	12	[0, 0, 0]	-999	PAL1	1	R1333N
1259.81	2.587	1261351	WAITING_START	n/a	n/a	-999	-999	n/a	n/a	n/a	n/a	12	[0, 0, 0]	-999	PAL1	1	R1333N
1262.397	0.0	1263938	WAITING_END	n/a	n/a	-999	-999	n/a	n/a	n/a	n/a	12	[0, 0, 0]	-999	PAL1	1	R1333N
1262.397	10.0	1263938	COUNTDOWN_START	n/a	n/a	-999	-999	n/a	n/a	n/a	n/a	12	[0, 0, 0]	-999	PAL1	1	R1333N
1272.825	0.001	1274366	COUNTDOWN_END	n/a	n/a	-999	-999	n/a	n/a	n/a	n/a	12	[0, 0, 0]	-999	PAL1	1	R1333N
1272.826	0.606	1274367	ORIENT_START	n/a	n/a	-999	-999	n/a	n/a	n/a	n/a	12	[0, 0, 0]	-999	PAL1	1	R1333N
1273.432	0.0	1274973	ORIENT_END	n/a	n/a	-999	-999	n/a	n/a	n/a	n/a	12	[0, 0, 0]	-999	PAL1	1	R1333N
1273.432	1.117	1274973	ENCODING_START	n/a	n/a	-999	-999	n/a	n/a	n/a	n/a	12	[0, 0, 0]	-999	PAL1	1	R1333N
1274.549	4.0	1276090	STUDY_PAIR	n/a	wordpools/wordpool_EN.txt	1	-999	n/a	PEACH	ROSE	DART	12	[0, 0, 0]	-999	PAL1	1	R1333N
1278.583	0.554	1280123	STUDY_PAIR_OFF	n/a	n/a	1	-999	n/a	PEACH	ROSE	DART	12	[0, 0, 0]	-999	PAL1	1	R1333N
1279.137	4.0	1280677	STUDY_PAIR	n/a	wordpools/wordpool_EN.txt	2	-999	n/a	n/a	PALM	TOY	12	[0, 0, 0]	-999	PAL1	1	R1333N
1283.168	0.726	1284708	STUDY_PAIR_OFF	n/a	n/a	2	-999	n/a	n/a	PALM	TOY	12	[0, 0, 0]	-999	PAL1	1	R1333N
1283.894	4.0	1285434	STUDY_PAIR	n/a	wordpools/wordpool_EN.txt	3	-999	n/a	n/a	BEAN	TOOL	12	[0, 0, 0]	-999	PAL1	1	R1333N
1287.918	0.523	1289458	STUDY_PAIR_OFF	n/a	n/a	3	-999	n/a	n/a	BEAN	TOOL	12	[0, 0, 0]	-999	PAL1	1	R1333N
1288.441	4.0	1289981	STUDY_PAIR	n/a	wordpools/wordpool_EN.txt	4	-999	n/a	GLOVE	EAR	GLOVE	12	[0, 0, 0]	-999	PAL1	1	R1333N
1292.468	0.631	1294008	STUDY_PAIR_OFF	n/a	n/a	4	-999	n/a	GLOVE	EAR	GLOVE	12	[0, 0, 0]	-999	PAL1	1	R1333N
1293.099	4.0	1294639	STUDY_PAIR	n/a	wordpools/wordpool_EN.txt	5	-999	n/a	PEACH	PEACH	CAR	12	[0, 0, 0]	-999	PAL1	1	R1333N
1297.137	0.627	1298677	STUDY_PAIR_OFF	n/a	n/a	5	-999	n/a	PEACH	PEACH	CAR	12	[0, 0, 0]	-999	PAL1	1	R1333N
1297.764	4.0	1299304	STUDY_PAIR	n/a	wordpools/wordpool_EN.txt	6	-999	n/a	n/a	MOUSE	KEY	12	[0, 0, 0]	-999	PAL1	1	R1333N
1301.804	0.001	1303344	STUDY_PAIR_OFF	n/a	n/a	6	-999	n/a	n/a	MOUSE	KEY	12	[0, 0, 0]	-999	PAL1	1	R1333N
1301.805	0.0	1303345	ENCODING_END	n/a	n/a	-999	-999	n/a	n/a	n/a	n/a	12	[0, 0, 0]	-999	PAL1	1	R1333N
1301.805	0.0	1303345	MATH_START	n/a	n/a	-999	-999	n/a	n/a	n/a	n/a	12	[0, 0, 0]	-999	PAL1	1	R1333N
1301.805	0.016	1303345	START	n/a	n/a	-999	-999	n/a	n/a	n/a	n/a	12	[-999, -999, -999]	-999	PAL1	1	R1333N
1301.821	4.934	1303361	PROB	4.895	n/a	-999	-999	n/a	n/a	n/a	n/a	12	[2, 1, 5]	8	PAL1	1	R1333N
1306.755	4.55	1308295	PROB	4.513	n/a	-999	-999	n/a	n/a	n/a	n/a	12	[5, 7, 7]	19	PAL1	1	R1333N
1311.305	3.984	1312844	PROB	3.955	n/a	-999	-999	n/a	n/a	n/a	n/a	12	[8, 3, 5]	16	PAL1	1	R1333N
1315.289	5.035	1316828	PROB	5.011	n/a	-999	-999	n/a	n/a	n/a	n/a	12	[1, 7, 3]	11	PAL1	1	R1333N
1320.324	3.8	1321863	PROB	3.8	n/a	-999	-999	n/a	n/a	n/a	n/a	12	[3, 7, 9]	19	PAL1	1	R1333N
1324.124	0.017	1325663	STOP	n/a	n/a	-999	-999	n/a	n/a	n/a	n/a	12	[-999, -999, -999]	-999	PAL1	1	R1333N
1324.141	0.521	1325680	MATH_END	n/a	n/a	-999	-999	n/a	n/a	n/a	n/a	12	[0, 0, 0]	-999	PAL1	1	R1333N
1324.662	0.001	1326201	RETRIEVAL_START	n/a	n/a	-999	-999	n/a	n/a	n/a	n/a	12	[0, 0, 0]	-999	PAL1	1	R1333N
1324.663	0.278	1326202	ORIENT_START	n/a	n/a	-999	-999	n/a	n/a	n/a	n/a	12	[0, 0, 0]	-999	PAL1	1	R1333N
1324.941	0.617	1326480	ORIENT_END	n/a	n/a	-999	-999	n/a	n/a	n/a	n/a	12	[0, 0, 0]	-999	PAL1	1	R1333N
1325.558	4.0	1327097	PROBE_START	n/a	wordpools/wordpool_EN.txt	3	1	BEAN	n/a	BEAN	TOOL	12	[0, 0, 0]	-999	PAL1	1	R1333N
1325.558	2.255	1327097	REC_START	n/a	n/a	3	1	BEAN	n/a	BEAN	TOOL	12	[0, 0, 0]	-999	PAL1	1	R1333N
1327.813	1.778	1329352	REC_EVENT	2.255	n/a	3	1	BEAN	<>	BEAN	TOOL	12	[0, 0, 0]	-999	PAL1	1	R1333N
1329.591	1.001	1331130	PROBE_END	n/a	n/a	3	1	BEAN	n/a	BEAN	TOOL	12	[0, 0, 0]	-999	PAL1	1	R1333N
1330.592	0.011	1332131	REC_END	n/a	n/a	3	1	BEAN	n/a	BEAN	TOOL	12	[0, 0, 0]	-999	PAL1	1	R1333N
1330.603	0.273	1332142	ORIENT_START	n/a	n/a	-999	-999	n/a	n/a	n/a	n/a	12	[0, 0, 0]	-999	PAL1	1	R1333N
1330.876	0.562	1332415	ORIENT_END	n/a	n/a	-999	-999	n/a	n/a	n/a	n/a	12	[0, 0, 0]	-999	PAL1	1	R1333N
1331.438	0.0	1332977	REC_START	n/a	n/a	2	2	TOY	n/a	PALM	TOY	12	[0, 0, 0]	-999	PAL1	1	R1333N
1331.438	4.0	1332977	PROBE_START	n/a	wordpools/wordpool_EN.txt	2	2	TOY	n/a	PALM	TOY	12	[0, 0, 0]	-999	PAL1	1	R1333N
1335.475	1.0	1337014	PROBE_END	n/a	n/a	2	2	TOY	n/a	PALM	TOY	12	[0, 0, 0]	-999	PAL1	1	R1333N
1336.475	0.012	1338014	REC_END	n/a	n/a	2	2	TOY	n/a	PALM	TOY	12	[0, 0, 0]	-999	PAL1	1	R1333N
1336.487	0.273	1338026	ORIENT_START	n/a	n/a	-999	-999	n/a	n/a	n/a	n/a	12	[0, 0, 0]	-999	PAL1	1	R1333N
1336.76	0.246	1338299	ORIENT_END	n/a	n/a	-999	-999	n/a	n/a	n/a	n/a	12	[0, 0, 0]	-999	PAL1	1	R1333N
1337.006	0.371	1338545	REC_EVENT	5.568	n/a	2	2	TOY	<>	PALM	TOY	12	[0, 0, 0]	-999	PAL1	1	R1333N
1337.377	4.0	1338916	PROBE_START	n/a	wordpools/wordpool_EN.txt	1	3	ROSE	PEACH	ROSE	DART	12	[0, 0, 0]	-999	PAL1	1	R1333N
1337.377	3.061	1338916	REC_START	n/a	n/a	1	3	ROSE	PEACH	ROSE	DART	12	[0, 0, 0]	-999	PAL1	1	R1333N
1340.438	0.972	1341977	REC_EVENT	3.061	n/a	1	3	ROSE	PEACH	ROSE	DART	12	[0, 0, 0]	-999	PAL1	1	R1333N
1341.41	0.999	1342949	PROBE_END	n/a	n/a	1	3	ROSE	n/a	ROSE	DART	12	[0, 0, 0]	-999	PAL1	1	R1333N
1342.409	0.012	1343948	REC_END	n/a	n/a	1	3	ROSE	n/a	ROSE	DART	12	[0, 0, 0]	-999	PAL1	1	R1333N
1342.421	0.273	1343960	ORIENT_START	n/a	n/a	-999	-999	n/a	n/a	n/a	n/a	12	[0, 0, 0]	-999	PAL1	1	R1333N
1342.694	0.668	1344233	ORIENT_END	n/a	n/a	-999	-999	n/a	n/a	n/a	n/a	12	[0, 0, 0]	-999	PAL1	1	R1333N
1343.362	0.001	1344901	REC_START	n/a	n/a	4	4	EAR	GLOVE	EAR	GLOVE	12	[0, 0, 0]	-999	PAL1	1	R1333N
1343.363	4.0	1344902	PROBE_START	n/a	wordpools/wordpool_EN.txt	4	4	EAR	GLOVE	EAR	GLOVE	12	[0, 0, 0]	-999	PAL1	1	R1333N
1345.445	1.949	1346983	REC_EVENT	2.082	n/a	4	4	EAR	GLOVE	EAR	GLOVE	12	[0, 0, 0]	-999	PAL1	1	R1333N
1347.394	1.001	1348932	PROBE_END	n/a	n/a	4	4	EAR	n/a	EAR	GLOVE	12	[0, 0, 0]	-999	PAL1	1	R1333N
1348.395	0.012	1349933	REC_END	n/a	n/a	4	4	EAR	n/a	EAR	GLOVE	12	[0, 0, 0]	-999	PAL1	1	R1333N
1348.407	0.27	1349945	ORIENT_START	n/a	n/a	-999	-999	n/a	n/a	n/a	n/a	12	[0, 0, 0]	-999	PAL1	1	R1333N
1348.677	0.565	1350215	ORIENT_END	n/a	n/a	-999	-999	n/a	n/a	n/a	n/a	12	[0, 0, 0]	-999	PAL1	1	R1333N
1349.242	4.0	1350780	PROBE_START	n/a	wordpools/wordpool_EN.txt	5	5	CAR	PEACH	PEACH	CAR	12	[0, 0, 0]	-999	PAL1	1	R1333N
1349.242	4.037	1350780	REC_START	n/a	n/a	5	5	CAR	PEACH	PEACH	CAR	12	[0, 0, 0]	-999	PAL1	1	R1333N
1353.279	0.988	1354817	PROBE_END	n/a	n/a	5	5	CAR	n/a	PEACH	CAR	12	[0, 0, 0]	-999	PAL1	1	R1333N
1354.267	0.012	1355805	REC_EVENT	5.025	n/a	5	5	CAR	PEACH	PEACH	CAR	12	[0, 0, 0]	-999	PAL1	1	R1333N
1354.279	0.011	1355817	REC_END	n/a	n/a	5	5	CAR	n/a	PEACH	CAR	12	[0, 0, 0]	-999	PAL1	1	R1333N
1354.29	0.272	1355828	ORIENT_START	n/a	n/a	-999	-999	n/a	n/a	n/a	n/a	12	[0, 0, 0]	-999	PAL1	1	R1333N
1354.562	0.684	1356100	ORIENT_END	n/a	n/a	-999	-999	n/a	n/a	n/a	n/a	12	[0, 0, 0]	-999	PAL1	1	R1333N
1355.246	0.0	1356784	REC_START	n/a	n/a	6	6	KEY	n/a	MOUSE	KEY	12	[0, 0, 0]	-999	PAL1	1	R1333N
1355.246	4.0	1356784	PROBE_START	n/a	wordpools/wordpool_EN.txt	6	6	KEY	n/a	MOUSE	KEY	12	[0, 0, 0]	-999	PAL1	1	R1333N
1359.28	0.703	1360818	PROBE_END	n/a	n/a	6	6	KEY	n/a	MOUSE	KEY	12	[0, 0, 0]	-999	PAL1	1	R1333N
1359.983	0.297	1361521	REC_EVENT	4.737	n/a	6	6	KEY	<>	MOUSE	KEY	12	[0, 0, 0]	-999	PAL1	1	R1333N
1360.28	0.011	1361818	REC_END	n/a	n/a	6	6	KEY	n/a	MOUSE	KEY	12	[0, 0, 0]	-999	PAL1	1	R1333N
1360.291	0.0	1361829	TRIAL_END	n/a	n/a	-999	-999	n/a	n/a	n/a	n/a	12	[0, 0, 0]	-999	PAL1	1	R1333N
1360.291	0.02	1361829	RETRIEVAL_END	n/a	n/a	-999	-999	n/a	n/a	n/a	n/a	12	[0, 0, 0]	-999	PAL1	1	R1333N
1360.311	0.0	1361849	TRIAL	n/a	n/a	-999	-999	n/a	n/a	n/a	n/a	13	[0, 0, 0]	-999	PAL1	1	R1333N
1360.311	0.001	1361849	TRIAL_START	n/a	n/a	-999	-999	n/a	n/a	n/a	n/a	12	[0, 0, 0]	-999	PAL1	1	R1333N
1360.312	3.452	1361850	WAITING_START	n/a	n/a	-999	-999	n/a	n/a	n/a	n/a	13	[0, 0, 0]	-999	PAL1	1	R1333N
1363.764	0.001	1365302	WAITING_END	n/a	n/a	-999	-999	n/a	n/a	n/a	n/a	13	[0, 0, 0]	-999	PAL1	1	R1333N
