onset	duration	sample	trial_type	response_time	serialpos	probepos	probe_word	resp_word	study_1	study_2	list	test	answer	experiment	session	subject
0.0	0.0	7296	INSTRUCT_VIDEO_ON	n/a	-999	-999	n/a	n/a	n/a	n/a	-999	[0, 0, 0]	-999	PAL1	0	R1297T
0.0	5.435	7296	INSTRUCT_VIDEO_OFF	n/a	-999	-999	n/a	n/a	n/a	n/a	-999	[0, 0, 0]	-999	PAL1	0	R1297T
5.435	0.0	12731	SESS_START	n/a	-999	-999	n/a	n/a	n/a	n/a	-999	[0, 0, 0]	-999	PAL1	0	R1297T
5.435	34.0	12731	MIC_TEST	n/a	-999	-999	n/a	n/a	n/a	n/a	-999	[0, 0, 0]	-999	PAL1	0	R1297T
39.435	60.427	46729	PRACTICE_TRIAL	n/a	-999	-999	n/a	n/a	n/a	n/a	-1	[0, 0, 0]	-999	PAL1	0	R1297T
99.862	0.006	107152	ENCODING_START	n/a	-999	-999	n/a	n/a	n/a	n/a	-1	[0, 0, 0]	-999	PAL1	0	R1297T
99.868	0.267	107158	PRACTICE_ORIENT	n/a	1	5	COTTON	n/a	CAMEL	COTTON	-1	[0, 0, 0]	-999	PAL1	0	R1297T
100.135	0.65	107425	PRACTICE_ORIENT_OFF	n/a	1	5	COTTON	n/a	CAMEL	COTTON	-1	[0, 0, 0]	-999	PAL1	0	R1297T
100.785	4.017	108075	PRACTICE_PAIR	n/a	1	5	COTTON	n/a	CAMEL	COTTON	-1	[0, 0, 0]	-999	PAL1	0	R1297T
104.802	1.017	112092	PRACTICE_PAIR_OFF	n/a	1	5	COTTON	n/a	CAMEL	COTTON	-1	[0, 0, 0]	-999	PAL1	0	R1297T
105.819	0.267	113109	PRACTICE_ORIENT	n/a	2	2	WATCH	IRON	WATCH	BEAM	-1	[0, 0, 0]	-999	PAL1	0	R1297T
106.086	0.65	113376	PRACTICE_ORIENT_OFF	n/a	2	2	WATCH	IRON	WATCH	BEAM	-1	[0, 0, 0]	-999	PAL1	0	R1297T
106.736	4.017	114026	PRACTICE_PAIR	n/a	2	2	WATCH	IRON	WATCH	BEAM	-1	[0, 0, 0]	-999	PAL1	0	R1297T
110.753	1.017	118043	PRACTICE_PAIR_OFF	n/a	2	2	WATCH	IRON	WATCH	BEAM	-1	[0, 0, 0]	-999	PAL1	0	R1297T
111.77	0.267	119060	PRACTICE_ORIENT	n/a	3	3	FLOOD	PASS	FLOOD	TONGUE	-1	[0, 0, 0]	-999	PAL1	0	R1297T
112.037	0.534	119327	PRACTICE_ORIENT_OFF	n/a	3	3	FLOOD	PASS	FLOOD	TONGUE	-1	[0, 0, 0]	-999	PAL1	0	R1297T
112.571	4.018	119860	PRACTICE_PAIR	n/a	3	3	FLOOD	PASS	FLOOD	TONGUE	-1	[0, 0, 0]	-999	PAL1	0	R1297T
116.589	1.016	123878	PRACTICE_PAIR_OFF	n/a	3	3	FLOOD	PASS	FLOOD	TONGUE	-1	[0, 0, 0]	-999	PAL1	0	R1297T
117.605	0.266	124894	PRACTICE_ORIENT	n/a	4	6	RING	RHINO	RING	RHINO	-1	[0, 0, 0]	-999	PAL1	0	R1297T
117.871	0.685	125160	PRACTICE_ORIENT_OFF	n/a	4	6	RING	RHINO	RING	RHINO	-1	[0, 0, 0]	-999	PAL1	0	R1297T
118.556	4.017	125845	PRACTICE_PAIR	n/a	4	6	RING	RHINO	RING	RHINO	-1	[0, 0, 0]	-999	PAL1	0	R1297T
122.573	1.017	129862	PRACTICE_PAIR_OFF	n/a	4	6	RING	RHINO	RING	RHINO	-1	[0, 0, 0]	-999	PAL1	0	R1297T
123.59	0.266	130879	PRACTICE_ORIENT	n/a	5	1	CHEST	PASS	WAGON	CHEST	-1	[0, 0, 0]	-999	PAL1	0	R1297T
123.856	0.517	131145	PRACTICE_ORIENT_OFF	n/a	5	1	CHEST	PASS	WAGON	CHEST	-1	[0, 0, 0]	-999	PAL1	0	R1297T
124.373	4.018	131662	PRACTICE_PAIR	n/a	5	1	CHEST	PASS	WAGON	CHEST	-1	[0, 0, 0]	-999	PAL1	0	R1297T
128.391	1.017	135680	PRACTICE_PAIR_OFF	n/a	5	1	CHEST	PASS	WAGON	CHEST	-1	[0, 0, 0]	-999	PAL1	0	R1297T
129.408	0.265	136696	PRACTICE_ORIENT	n/a	6	4	IRON	PASS	ATTIC	IRON	-1	[0, 0, 0]	-999	PAL1	0	R1297T
129.673	0.752	136961	PRACTICE_ORIENT_OFF	n/a	6	4	IRON	PASS	ATTIC	IRON	-1	[0, 0, 0]	-999	PAL1	0	R1297T
130.425	4.017	137713	PRACTICE_PAIR	n/a	6	4	IRON	PASS	ATTIC	IRON	-1	[0, 0, 0]	-999	PAL1	0	R1297T
134.442	1.001	141730	PRACTICE_PAIR_OFF	n/a	6	4	IRON	PASS	ATTIC	IRON	-1	[0, 0, 0]	-999	PAL1	0	R1297T
135.443	0.0	142731	ENCODING_END	n/a	-999	-999	n/a	n/a	n/a	n/a	-1	[0, 0, 0]	-999	PAL1	0	R1297T
135.443	0.0	142731	MATH_START	n/a	-999	-999	n/a	n/a	n/a	n/a	-1	[0, 0, 0]	-999	PAL1	0	R1297T
135.443	0.016	142731	START	n/a	-999	-999	n/a	n/a	n/a	n/a	-1	[-999, -999, -999]	-999	PAL1	0	R1297T
135.459	19.152	142747	PROB	19126	-999	-999	n/a	n/a	n/a	n/a	-1	[8, 6, 3]	17	PAL1	0	R1297T
154.611	6.997	161898	PROB	6997	-999	-999	n/a	n/a	n/a	n/a	-1	[4, 2, 3]	9	PAL1	0	R1297T
161.608	0.021	168894	STOP	n/a	-999	-999	n/a	n/a	n/a	n/a	-1	[-999, -999, -999]	-999	PAL1	0	R1297T
161.629	0.0	168915	MATH_END	n/a	-999	-999	n/a	n/a	n/a	n/a	-1	[0, 0, 0]	-999	PAL1	0	R1297T
161.629	0.017	168915	RECALL_START	n/a	-999	-999	n/a	n/a	n/a	n/a	-1	[0, 0, 0]	-999	PAL1	0	R1297T
161.646	0.267	168932	PRACTICE_RETRIEVAL_ORIENT	n/a	5	1	CHEST	PASS	WAGON	CHEST	-1	[0, 0, 0]	-999	PAL1	0	R1297T
161.913	0.766	169199	PRACTICE_RETRIEVAL_ORIENT_OFF	n/a	5	1	CHEST	PASS	WAGON	CHEST	-1	[0, 0, 0]	-999	PAL1	0	R1297T
162.679	0.001	169965	PRACTICE_PROBE	n/a	5	1	CHEST	PASS	WAGON	CHEST	-1	[0, 0, 0]	-999	PAL1	0	R1297T
162.68	3.256	169966	REC_START	n/a	5	-999	n/a	PASS	n/a	n/a	-1	[0, 0, 0]	-999	PAL1	0	R1297T
165.936	0.761	173222	REC_EVENT	3256	5	1	CHEST	<>	WAGON	CHEST	-1	[0, 0, 0]	-999	PAL1	0	R1297T
166.697	0.304	173983	PROBE_OFF	n/a	5	-999	n/a	n/a	n/a	n/a	-1	[0, 0, 0]	-999	PAL1	0	R1297T
167.001	0.251	174287	REC_EVENT	4321	5	1	CHEST	<>	WAGON	CHEST	-1	[0, 0, 0]	-999	PAL1	0	R1297T
167.252	0.454	174538	REC_EVENT	4572	5	1	CHEST	PASS	WAGON	CHEST	-1	[0, 0, 0]	-999	PAL1	0	R1297T
167.706	0.008	174992	REC_END	n/a	5	-999	n/a	n/a	n/a	n/a	-1	[0, 0, 0]	-999	PAL1	0	R1297T
167.714	0.266	175000	PRACTICE_RETRIEVAL_ORIENT	n/a	2	2	WATCH	IRON	WATCH	BEAM	-1	[0, 0, 0]	-999	PAL1	0	R1297T
167.98	0.75	175266	PRACTICE_RETRIEVAL_ORIENT_OFF	n/a	2	2	WATCH	IRON	WATCH	BEAM	-1	[0, 0, 0]	-999	PAL1	0	R1297T
168.73	0.001	176016	PRACTICE_PROBE	n/a	2	2	WATCH	IRON	WATCH	BEAM	-1	[0, 0, 0]	-999	PAL1	0	R1297T
168.731	1.586	176017	REC_START	n/a	2	-999	n/a	IRON	n/a	n/a	-1	[0, 0, 0]	-999	PAL1	0	R1297T
170.317	0.435	177603	REC_EVENT	1586	2	2	WATCH	<>	WATCH	BEAM	-1	[0, 0, 0]	-999	PAL1	0	R1297T
170.752	0.324	178038	REC_EVENT	2021	2	2	WATCH	IRON	WATCH	BEAM	-1	[0, 0, 0]	-999	PAL1	0	R1297T
171.076	1.672	178362	REC_EVENT	2345	2	2	WATCH	<>	WATCH	BEAM	-1	[0, 0, 0]	-999	PAL1	0	R1297T
172.748	1.0	180034	PROBE_OFF	n/a	2	-999	n/a	n/a	n/a	n/a	-1	[0, 0, 0]	-999	PAL1	0	R1297T
173.748	0.017	181034	REC_END	n/a	2	-999	n/a	n/a	n/a	n/a	-1	[0, 0, 0]	-999	PAL1	0	R1297T
173.765	0.266	181051	PRACTICE_RETRIEVAL_ORIENT	n/a	3	3	FLOOD	PASS	FLOOD	TONGUE	-1	[0, 0, 0]	-999	PAL1	0	R1297T
174.031	0.601	181317	PRACTICE_RETRIEVAL_ORIENT_OFF	n/a	3	3	FLOOD	PASS	FLOOD	TONGUE	-1	[0, 0, 0]	-999	PAL1	0	R1297T
174.632	0.0	181918	PRACTICE_PROBE	n/a	3	3	FLOOD	PASS	FLOOD	TONGUE	-1	[0, 0, 0]	-999	PAL1	0	R1297T
174.632	2.321	181918	REC_START	n/a	3	-999	n/a	PASS	n/a	n/a	-1	[0, 0, 0]	-999	PAL1	0	R1297T
176.953	1.696	184239	REC_EVENT	2321	3	3	FLOOD	PASS	FLOOD	TONGUE	-1	[0, 0, 0]	-999	PAL1	0	R1297T
178.649	1.0	185934	PROBE_OFF	n/a	3	-999	n/a	n/a	n/a	n/a	-1	[0, 0, 0]	-999	PAL1	0	R1297T
179.649	0.017	186934	REC_END	n/a	3	-999	n/a	n/a	n/a	n/a	-1	[0, 0, 0]	-999	PAL1	0	R1297T
179.666	0.267	186951	PRACTICE_RETRIEVAL_ORIENT	n/a	6	4	IRON	PASS	ATTIC	IRON	-1	[0, 0, 0]	-999	PAL1	0	R1297T
179.933	0.601	187218	PRACTICE_RETRIEVAL_ORIENT_OFF	n/a	6	4	IRON	PASS	ATTIC	IRON	-1	[0, 0, 0]	-999	PAL1	0	R1297T
180.534	0.0	187819	REC_START	n/a	6	-999	n/a	PASS	n/a	n/a	-1	[0, 0, 0]	-999	PAL1	0	R1297T
180.534	3.808	187819	PRACTICE_PROBE	n/a	6	4	IRON	PASS	ATTIC	IRON	-1	[0, 0, 0]	-999	PAL1	0	R1297T
184.342	0.209	191627	REC_EVENT	3808	6	4	IRON	PASS	ATTIC	IRON	-1	[0, 0, 0]	-999	PAL1	0	R1297T
184.551	1.0	191836	PROBE_OFF	n/a	6	-999	n/a	n/a	n/a	n/a	-1	[0, 0, 0]	-999	PAL1	0	R1297T
185.551	0.017	192836	REC_END	n/a	6	-999	n/a	n/a	n/a	n/a	-1	[0, 0, 0]	-999	PAL1	0	R1297T
185.568	0.266	192853	PRACTICE_RETRIEVAL_ORIENT	n/a	1	5	COTTON	n/a	CAMEL	COTTON	-1	[0, 0, 0]	-999	PAL1	0	R1297T
185.834	0.551	193119	PRACTICE_RETRIEVAL_ORIENT_OFF	n/a	1	5	COTTON	n/a	CAMEL	COTTON	-1	[0, 0, 0]	-999	PAL1	0	R1297T
186.385	0.0	193670	PRACTICE_PROBE	n/a	1	5	COTTON	n/a	CAMEL	COTTON	-1	[0, 0, 0]	-999	PAL1	0	R1297T
186.385	1.95	193670	REC_START	n/a	1	-999	n/a	n/a	n/a	n/a	-1	[0, 0, 0]	-999	PAL1	0	R1297T
188.335	2.067	195620	REC_EVENT	1950	1	5	COTTON	<>	CAMEL	COTTON	-1	[0, 0, 0]	-999	PAL1	0	R1297T
190.402	1.0	197687	PROBE_OFF	n/a	1	-999	n/a	n/a	n/a	n/a	-1	[0, 0, 0]	-999	PAL1	0	R1297T
191.402	0.017	198687	REC_END	n/a	1	-999	n/a	n/a	n/a	n/a	-1	[0, 0, 0]	-999	PAL1	0	R1297T
191.419	0.266	198704	PRACTICE_RETRIEVAL_ORIENT	n/a	4	6	RING	RHINO	RING	RHINO	-1	[0, 0, 0]	-999	PAL1	0	R1297T
191.685	0.717	198970	PRACTICE_RETRIEVAL_ORIENT_OFF	n/a	2	6	RING	RHINO	RING	RHINO	-1	[0, 0, 0]	-999	PAL1	0	R1297T
192.402	0.001	199687	PRACTICE_PROBE	n/a	4	6	RING	RHINO	RING	RHINO	-1	[0, 0, 0]	-999	PAL1	0	R1297T
192.403	1.832	199688	REC_START	n/a	4	-999	n/a	RHINO	n/a	n/a	-1	[0, 0, 0]	-999	PAL1	0	R1297T
194.235	2.168	201519	REC_EVENT	1832	4	6	RING	RHINO	RING	RHINO	-1	[0, 0, 0]	-999	PAL1	0	R1297T
196.403	1.0	203687	PROBE_OFF	n/a	4	-999	n/a	n/a	n/a	n/a	-1	[0, 0, 0]	-999	PAL1	0	R1297T
197.403	0.01	204687	REC_END	n/a	4	-999	n/a	n/a	n/a	n/a	-1	[0, 0, 0]	-999	PAL1	0	R1297T
197.413	42.297	204697	RECALL_END	n/a	-999	-999	n/a	n/a	n/a	n/a	-1	[0, 0, 0]	-999	PAL1	0	R1297T
239.71	10.929	246992	TRIAL	n/a	-999	-999	n/a	n/a	n/a	n/a	1	[0, 0, 0]	-999	PAL1	0	R1297T
250.639	0.006	257920	ENCODING_START	n/a	-999	-999	n/a	n/a	n/a	n/a	1	[0, 0, 0]	-999	PAL1	0	R1297T
250.645	0.267	257926	STUDY_ORIENT	n/a	1	5	SNOW	PASS	PEARL	SNOW	1	[0, 0, 0]	-999	PAL1	0	R1297T
250.912	0.75	258193	STUDY_ORIENT_OFF	n/a	1	5	SNOW	PASS	PEARL	SNOW	1	[0, 0, 0]	-999	PAL1	0	R1297T
251.662	4.018	258943	STUDY_PAIR	n/a	1	5	SNOW	PASS	PEARL	SNOW	1	[0, 0, 0]	-999	PAL1	0	R1297T
255.68	1.017	262961	PAIR_OFF	n/a	1	5	SNOW	PASS	PEARL	SNOW	1	[0, 0, 0]	-999	PAL1	0	R1297T
256.697	0.266	263978	STUDY_ORIENT	n/a	2	6	SPEAR	STEAK	SPEAR	STEAK	1	[0, 0, 0]	-999	PAL1	0	R1297T
256.963	0.568	264244	STUDY_ORIENT_OFF	n/a	2	6	SPEAR	STEAK	SPEAR	STEAK	1	[0, 0, 0]	-999	PAL1	0	R1297T
257.531	4.017	264812	STUDY_PAIR	n/a	2	6	SPEAR	STEAK	SPEAR	STEAK	1	[0, 0, 0]	-999	PAL1	0	R1297T
261.548	1.017	268828	PAIR_OFF	n/a	2	6	SPEAR	STEAK	SPEAR	STEAK	1	[0, 0, 0]	-999	PAL1	0	R1297T
262.565	0.266	269845	STUDY_ORIENT	n/a	3	1	MOON	PASS	MOON	KEY	1	[0, 0, 0]	-999	PAL1	0	R1297T
262.831	0.618	270111	STUDY_ORIENT_OFF	n/a	3	1	MOON	PASS	MOON	KEY	1	[0, 0, 0]	-999	PAL1	0	R1297T
263.449	4.017	270729	STUDY_PAIR	n/a	3	1	MOON	PASS	MOON	KEY	1	[0, 0, 0]	-999	PAL1	0	R1297T
267.466	1.017	274746	PAIR_OFF	n/a	3	1	MOON	PASS	MOON	KEY	1	[0, 0, 0]	-999	PAL1	0	R1297T
268.483	0.266	275763	STUDY_ORIENT	n/a	4	2	BATH	n/a	FLAME	BATH	1	[0, 0, 0]	-999	PAL1	0	R1297T
268.749	0.667	276029	STUDY_ORIENT_OFF	n/a	4	2	BATH	n/a	FLAME	BATH	1	[0, 0, 0]	-999	PAL1	0	R1297T
269.416	4.018	276696	STUDY_PAIR	n/a	4	2	BATH	n/a	FLAME	BATH	1	[0, 0, 0]	-999	PAL1	0	R1297T
273.434	1.017	280714	PAIR_OFF	n/a	4	2	BATH	n/a	FLAME	BATH	1	[0, 0, 0]	-999	PAL1	0	R1297T
274.451	0.265	281731	STUDY_ORIENT	n/a	5	3	SCHOOL	PASS	SCHOOL	RAT	1	[0, 0, 0]	-999	PAL1	0	R1297T
274.716	0.551	281996	STUDY_ORIENT_OFF	n/a	5	3	SCHOOL	PASS	SCHOOL	RAT	1	[0, 0, 0]	-999	PAL1	0	R1297T
275.267	4.018	282546	STUDY_PAIR	n/a	5	3	SCHOOL	PASS	SCHOOL	RAT	1	[0, 0, 0]	-999	PAL1	0	R1297T
279.285	1.017	286564	PAIR_OFF	n/a	5	3	SCHOOL	PASS	SCHOOL	RAT	1	[0, 0, 0]	-999	PAL1	0	R1297T
280.302	0.266	287581	STUDY_ORIENT	n/a	6	4	TOAD	PASS	MAZE	TOAD	1	[0, 0, 0]	-999	PAL1	0	R1297T
280.568	0.734	287847	STUDY_ORIENT_OFF	n/a	6	4	TOAD	PASS	MAZE	TOAD	1	[0, 0, 0]	-999	PAL1	0	R1297T
281.302	4.017	288581	STUDY_PAIR	n/a	6	4	TOAD	PASS	MAZE	TOAD	1	[0, 0, 0]	-999	PAL1	0	R1297T
285.319	1.0	292598	PAIR_OFF	n/a	6	4	TOAD	PASS	MAZE	TOAD	1	[0, 0, 0]	-999	PAL1	0	R1297T
286.319	0.0	293598	ENCODING_END	n/a	-999	-999	n/a	n/a	n/a	n/a	1	[0, 0, 0]	-999	PAL1	0	R1297T
286.319	0.0	293598	MATH_START	n/a	-999	-999	n/a	n/a	n/a	n/a	1	[0, 0, 0]	-999	PAL1	0	R1297T
286.319	0.017	293598	START	n/a	-999	-999	n/a	n/a	n/a	n/a	1	[-999, -999, -999]	-999	PAL1	0	R1297T
286.336	6.567	293615	PROB	6544	-999	-999	n/a	n/a	n/a	n/a	1	[3, 6, 4]	13	PAL1	0	R1297T
292.903	5.385	300181	PROB	5362	-999	-999	n/a	n/a	n/a	n/a	1	[3, 6, 9]	18	PAL1	0	R1297T
298.288	3.583	305566	PROB	3552	-999	-999	n/a	n/a	n/a	n/a	1	[4, 1, 2]	7	PAL1	0	R1297T
301.871	4.57	309149	PROB	4570	-999	-999	n/a	n/a	n/a	n/a	1	[3, 9, 1]	13	PAL1	0	R1297T
306.441	0.016	313719	STOP	n/a	-999	-999	n/a	n/a	n/a	n/a	1	[-999, -999, -999]	-999	PAL1	0	R1297T
306.457	0.0	313735	MATH_END	n/a	-999	-999	n/a	n/a	n/a	n/a	1	[0, 0, 0]	-999	PAL1	0	R1297T
306.457	0.016	313735	RECALL_START	n/a	-999	-999	n/a	n/a	n/a	n/a	1	[0, 0, 0]	-999	PAL1	0	R1297T
306.473	0.266	313751	TEST_ORIENT	n/a	3	1	MOON	PASS	MOON	KEY	1	[0, 0, 0]	-999	PAL1	0	R1297T
306.739	0.701	314017	RETRIEVAL_ORIENT_OFF	n/a	-999	-999	n/a	n/a	n/a	n/a	1	[0, 0, 0]	-999	PAL1	0	R1297T
307.44	0.001	314718	TEST_PROBE	n/a	3	1	MOON	PASS	MOON	KEY	1	[0, 0, 0]	-999	PAL1	0	R1297T
307.441	2.41	314719	REC_START	n/a	3	-999	n/a	PASS	n/a	n/a	1	[0, 0, 0]	-999	PAL1	0	R1297T
309.851	1.606	317128	REC_EVENT	2410	3	1	MOON	<>	MOON	KEY	1	[0, 0, 0]	-999	PAL1	0	R1297T
311.457	0.624	318734	PROBE_OFF	n/a	3	-999	n/a	n/a	n/a	n/a	1	[0, 0, 0]	-999	PAL1	0	R1297T
312.081	0.376	319358	REC_EVENT	4640	3	1	MOON	PASS	MOON	KEY	1	[0, 0, 0]	-999	PAL1	0	R1297T
312.457	0.017	319734	REC_END	n/a	3	-999	n/a	n/a	n/a	n/a	1	[0, 0, 0]	-999	PAL1	0	R1297T
312.474	0.266	319751	TEST_ORIENT	n/a	4	2	BATH	n/a	FLAME	BATH	1	[0, 0, 0]	-999	PAL1	0	R1297T
312.74	0.584	320017	RETRIEVAL_ORIENT_OFF	n/a	3	-999	n/a	n/a	n/a	n/a	1	[0, 0, 0]	-999	PAL1	0	R1297T
313.324	0.001	320601	TEST_PROBE	n/a	4	2	BATH	n/a	FLAME	BATH	1	[0, 0, 0]	-999	PAL1	0	R1297T
313.325	2.041	320602	REC_START	n/a	4	-999	n/a	n/a	n/a	n/a	1	[0, 0, 0]	-999	PAL1	0	R1297T
315.366	1.976	322643	REC_EVENT	2041	4	2	BATH	<>	FLAME	BATH	1	[0, 0, 0]	-999	PAL1	0	R1297T
317.342	1.011	324619	PROBE_OFF	n/a	4	-999	n/a	n/a	n/a	n/a	1	[0, 0, 0]	-999	PAL1	0	R1297T
318.353	0.022	325630	REC_END	n/a	4	-999	n/a	n/a	n/a	n/a	1	[0, 0, 0]	-999	PAL1	0	R1297T
318.375	0.266	325652	TEST_ORIENT	n/a	5	3	SCHOOL	PASS	SCHOOL	RAT	1	[0, 0, 0]	-999	PAL1	0	R1297T
318.641	0.634	325918	RETRIEVAL_ORIENT_OFF	n/a	4	-999	n/a	n/a	n/a	n/a	1	[0, 0, 0]	-999	PAL1	0	R1297T
319.275	0.001	326552	TEST_PROBE	n/a	5	3	SCHOOL	PASS	SCHOOL	RAT	1	[0, 0, 0]	-999	PAL1	0	R1297T
319.276	4.017	326553	REC_START	n/a	5	-999	n/a	PASS	n/a	n/a	1	[0, 0, 0]	-999	PAL1	0	R1297T
323.293	0.788	330570	PROBE_OFF	n/a	5	-999	n/a	n/a	n/a	n/a	1	[0, 0, 0]	-999	PAL1	0	R1297T
324.081	0.212	331357	REC_EVENT	4805	5	3	SCHOOL	PASS	SCHOOL	RAT	1	[0, 0, 0]	-999	PAL1	0	R1297T
324.293	0.017	331569	REC_END	n/a	5	-999	n/a	n/a	n/a	n/a	1	[0, 0, 0]	-999	PAL1	0	R1297T
324.31	0.266	331586	TEST_ORIENT	n/a	6	4	TOAD	PASS	MAZE	TOAD	1	[0, 0, 0]	-999	PAL1	0	R1297T
324.576	0.533	331852	RETRIEVAL_ORIENT_OFF	n/a	5	-999	n/a	n/a	n/a	n/a	1	[0, 0, 0]	-999	PAL1	0	R1297T
325.109	0.0	332385	TEST_PROBE	n/a	6	4	TOAD	PASS	MAZE	TOAD	1	[0, 0, 0]	-999	PAL1	0	R1297T
325.109	3.635	332385	REC_START	n/a	6	-999	n/a	PASS	n/a	n/a	1	[0, 0, 0]	-999	PAL1	0	R1297T
328.744	0.382	336020	REC_EVENT	3635	6	4	TOAD	PASS	MAZE	TOAD	1	[0, 0, 0]	-999	PAL1	0	R1297T
329.126	1.001	336402	PROBE_OFF	n/a	6	-999	n/a	n/a	n/a	n/a	1	[0, 0, 0]	-999	PAL1	0	R1297T
330.127	0.016	337403	REC_END	n/a	6	-999	n/a	n/a	n/a	n/a	1	[0, 0, 0]	-999	PAL1	0	R1297T
330.143	0.251	337419	TEST_ORIENT	n/a	1	5	SNOW	PASS	PEARL	SNOW	1	[0, 0, 0]	-999	PAL1	0	R1297T
330.394	0.633	337670	RETRIEVAL_ORIENT_OFF	n/a	6	-999	n/a	n/a	n/a	n/a	1	[0, 0, 0]	-999	PAL1	0	R1297T
331.027	0.0	338303	TEST_PROBE	n/a	1	5	SNOW	PASS	PEARL	SNOW	1	[0, 0, 0]	-999	PAL1	0	R1297T
331.027	4.017	338303	REC_START	n/a	1	-999	n/a	PASS	n/a	n/a	1	[0, 0, 0]	-999	PAL1	0	R1297T
335.044	0.513	342320	PROBE_OFF	n/a	1	-999	n/a	n/a	n/a	n/a	1	[0, 0, 0]	-999	PAL1	0	R1297T
335.557	0.487	342833	REC_EVENT	4530	1	5	SNOW	PASS	PEARL	SNOW	1	[0, 0, 0]	-999	PAL1	0	R1297T
336.044	0.017	343320	REC_END	n/a	1	-999	n/a	n/a	n/a	n/a	1	[0, 0, 0]	-999	PAL1	0	R1297T
336.061	0.267	343337	TEST_ORIENT	n/a	2	6	SPEAR	STEAK	SPEAR	STEAK	1	[0, 0, 0]	-999	PAL1	0	R1297T
336.328	0.683	343604	RETRIEVAL_ORIENT_OFF	n/a	1	-999	n/a	n/a	n/a	n/a	1	[0, 0, 0]	-999	PAL1	0	R1297T
337.011	0.001	344287	TEST_PROBE	n/a	2	6	SPEAR	STEAK	SPEAR	STEAK	1	[0, 0, 0]	-999	PAL1	0	R1297T
337.012	1.019	344288	REC_START	n/a	2	-999	n/a	STEAK	n/a	n/a	1	[0, 0, 0]	-999	PAL1	0	R1297T
338.031	2.997	345307	REC_EVENT	1019	2	6	SPEAR	STEAK	SPEAR	STEAK	1	[0, 0, 0]	-999	PAL1	0	R1297T
341.028	1.001	348303	PROBE_OFF	n/a	2	-999	n/a	n/a	n/a	n/a	1	[0, 0, 0]	-999	PAL1	0	R1297T
342.029	0.011	349304	REC_END	n/a	2	-999	n/a	n/a	n/a	n/a	1	[0, 0, 0]	-999	PAL1	0	R1297T
342.04	40.813	349315	RECALL_END	n/a	-999	-999	n/a	n/a	n/a	n/a	1	[0, 0, 0]	-999	PAL1	0	R1297T
382.853	10.928	390126	TRIAL	n/a	-999	-999	n/a	n/a	n/a	n/a	2	[0, 0, 0]	-999	PAL1	0	R1297T
393.781	0.007	401053	ENCODING_START	n/a	-999	-999	n/a	n/a	n/a	n/a	2	[0, 0, 0]	-999	PAL1	0	R1297T
393.788	0.267	401060	STUDY_ORIENT	n/a	1	1	ROOM	RUG	MUG	ROOM	2	[0, 0, 0]	-999	PAL1	0	R1297T
394.055	0.666	401327	STUDY_ORIENT_OFF	n/a	1	1	ROOM	RUG	MUG	ROOM	2	[0, 0, 0]	-999	PAL1	0	R1297T
394.721	4.018	401993	STUDY_PAIR	n/a	1	1	ROOM	RUG	MUG	ROOM	2	[0, 0, 0]	-999	PAL1	0	R1297T
398.739	1.017	406011	PAIR_OFF	n/a	1	1	ROOM	RUG	MUG	ROOM	2	[0, 0, 0]	-999	PAL1	0	R1297T
399.756	0.266	407028	STUDY_ORIENT	n/a	2	4	PIT	PASS	PIT	ICE	2	[0, 0, 0]	-999	PAL1	0	R1297T
400.022	0.651	407294	STUDY_ORIENT_OFF	n/a	2	4	PIT	PASS	PIT	ICE	2	[0, 0, 0]	-999	PAL1	0	R1297T
400.673	4.017	407945	STUDY_PAIR	n/a	2	4	PIT	PASS	PIT	ICE	2	[0, 0, 0]	-999	PAL1	0	R1297T
404.69	1.017	411962	PAIR_OFF	n/a	2	4	PIT	PASS	PIT	ICE	2	[0, 0, 0]	-999	PAL1	0	R1297T
405.707	0.267	412978	STUDY_ORIENT	n/a	3	3	BOARD	PASS	BREAD	BOARD	2	[0, 0, 0]	-999	PAL1	0	R1297T
405.974	0.551	413245	STUDY_ORIENT_OFF	n/a	3	3	BOARD	PASS	BREAD	BOARD	2	[0, 0, 0]	-999	PAL1	0	R1297T
406.525	4.017	413796	STUDY_PAIR	n/a	3	3	BOARD	PASS	BREAD	BOARD	2	[0, 0, 0]	-999	PAL1	0	R1297T
410.542	1.017	417813	PAIR_OFF	n/a	3	3	BOARD	PASS	BREAD	BOARD	2	[0, 0, 0]	-999	PAL1	0	R1297T
411.559	0.266	418830	STUDY_ORIENT	n/a	4	2	RAKE	PASS	FLAG	RAKE	2	[0, 0, 0]	-999	PAL1	0	R1297T
411.825	0.667	419096	STUDY_ORIENT_OFF	n/a	4	2	RAKE	PASS	FLAG	RAKE	2	[0, 0, 0]	-999	PAL1	0	R1297T
412.492	4.001	419763	STUDY_PAIR	n/a	4	2	RAKE	PASS	FLAG	RAKE	2	[0, 0, 0]	-999	PAL1	0	R1297T
416.493	1.017	423764	PAIR_OFF	n/a	4	2	RAKE	PASS	FLAG	RAKE	2	[0, 0, 0]	-999	PAL1	0	R1297T
417.51	0.266	424781	STUDY_ORIENT	n/a	5	5	COW	COMB	COW	SWAMP	2	[0, 0, 0]	-999	PAL1	0	R1297T
417.776	0.601	425047	STUDY_ORIENT_OFF	n/a	5	5	COW	COMB	COW	SWAMP	2	[0, 0, 0]	-999	PAL1	0	R1297T
418.377	4.017	425648	STUDY_PAIR	n/a	5	5	COW	COMB	COW	SWAMP	2	[0, 0, 0]	-999	PAL1	0	R1297T
422.394	1.017	429664	PAIR_OFF	n/a	5	5	COW	COMB	COW	SWAMP	2	[0, 0, 0]	-999	PAL1	0	R1297T
423.411	0.266	430681	STUDY_ORIENT	n/a	6	6	CLOWN	PASS	CLOWN	SOUP	2	[0, 0, 0]	-999	PAL1	0	R1297T
423.677	0.701	430947	STUDY_ORIENT_OFF	n/a	6	6	CLOWN	PASS	CLOWN	SOUP	2	[0, 0, 0]	-999	PAL1	0	R1297T
424.378	4.017	431648	STUDY_PAIR	n/a	6	6	CLOWN	PASS	CLOWN	SOUP	2	[0, 0, 0]	-999	PAL1	0	R1297T
428.395	1.001	435665	PAIR_OFF	n/a	6	6	CLOWN	PASS	CLOWN	SOUP	2	[0, 0, 0]	-999	PAL1	0	R1297T
429.396	0.0	436666	ENCODING_END	n/a	-999	-999	n/a	n/a	n/a	n/a	2	[0, 0, 0]	-999	PAL1	0	R1297T
429.396	0.0	436666	MATH_START	n/a	-999	-999	n/a	n/a	n/a	n/a	2	[0, 0, 0]	-999	PAL1	0	R1297T
429.396	0.016	436666	START	n/a	-999	-999	n/a	n/a	n/a	n/a	2	[-999, -999, -999]	-999	PAL1	0	R1297T
429.412	4.034	436682	PROB	3998	-999	-999	n/a	n/a	n/a	n/a	2	[1, 3, 5]	9	PAL1	0	R1297T
433.446	9.167	440716	PROB	9146	-999	-999	n/a	n/a	n/a	n/a	2	[7, 1, 4]	12	PAL1	0	R1297T
442.613	5.435	449882	PROB	5403	-999	-999	n/a	n/a	n/a	n/a	2	[1, 5, 4]	10	PAL1	0	R1297T
448.048	4.032	455317	PROB	4032	-999	-999	n/a	n/a	n/a	n/a	2	[8, 6, 4]	18	PAL1	0	R1297T
452.08	0.019	459349	STOP	n/a	-999	-999	n/a	n/a	n/a	n/a	2	[-999, -999, -999]	-999	PAL1	0	R1297T
452.099	0.0	459368	MATH_END	n/a	-999	-999	n/a	n/a	n/a	n/a	2	[0, 0, 0]	-999	PAL1	0	R1297T
452.099	0.016	459368	RECALL_START	n/a	-999	-999	n/a	n/a	n/a	n/a	2	[0, 0, 0]	-999	PAL1	0	R1297T
452.115	0.251	459384	TEST_ORIENT	n/a	1	1	ROOM	RUG	MUG	ROOM	2	[0, 0, 0]	-999	PAL1	0	R1297T
452.366	0.649	459635	RETRIEVAL_ORIENT_OFF	n/a	-999	-999	n/a	n/a	n/a	n/a	2	[0, 0, 0]	-999	PAL1	0	R1297T
453.015	0.001	460284	TEST_PROBE	n/a	1	1	ROOM	RUG	MUG	ROOM	2	[0, 0, 0]	-999	PAL1	0	R1297T
453.016	1.884	460285	REC_START	n/a	1	-999	n/a	RUG	n/a	n/a	2	[0, 0, 0]	-999	PAL1	0	R1297T
454.9	2.116	462168	REC_EVENT	1884	1	1	ROOM	RUG	MUG	ROOM	2	[0, 0, 0]	-999	PAL1	0	R1297T
457.016	1.0	464284	PROBE_OFF	n/a	1	-999	n/a	n/a	n/a	n/a	2	[0, 0, 0]	-999	PAL1	0	R1297T
458.016	0.017	465284	REC_END	n/a	1	-999	n/a	n/a	n/a	n/a	2	[0, 0, 0]	-999	PAL1	0	R1297T
458.033	0.268	465301	TEST_ORIENT	n/a	4	2	RAKE	PASS	FLAG	RAKE	2	[0, 0, 0]	-999	PAL1	0	R1297T
458.301	0.565	465569	RETRIEVAL_ORIENT_OFF	n/a	1	-999	n/a	n/a	n/a	n/a	2	[0, 0, 0]	-999	PAL1	0	R1297T
458.866	0.001	466134	TEST_PROBE	n/a	4	2	RAKE	PASS	FLAG	RAKE	2	[0, 0, 0]	-999	PAL1	0	R1297T
458.867	4.017	466135	REC_START	n/a	4	-999	n/a	PASS	n/a	n/a	2	[0, 0, 0]	-999	PAL1	0	R1297T
462.884	0.358	470152	PROBE_OFF	n/a	4	-999	n/a	n/a	n/a	n/a	2	[0, 0, 0]	-999	PAL1	0	R1297T
463.242	0.642	470510	REC_EVENT	4375	4	2	RAKE	PASS	FLAG	RAKE	2	[0, 0, 0]	-999	PAL1	0	R1297T
463.884	0.017	471152	REC_END	n/a	4	-999	n/a	n/a	n/a	n/a	2	[0, 0, 0]	-999	PAL1	0	R1297T
463.901	0.266	471169	TEST_ORIENT	n/a	3	3	BOARD	PASS	BREAD	BOARD	2	[0, 0, 0]	-999	PAL1	0	R1297T
464.167	0.667	471435	RETRIEVAL_ORIENT_OFF	n/a	4	-999	n/a	n/a	n/a	n/a	2	[0, 0, 0]	-999	PAL1	0	R1297T
464.834	0.001	472102	TEST_PROBE	n/a	3	3	BOARD	PASS	BREAD	BOARD	2	[0, 0, 0]	-999	PAL1	0	R1297T
464.835	2.055	472103	REC_START	n/a	3	-999	n/a	PASS	n/a	n/a	2	[0, 0, 0]	-999	PAL1	0	R1297T
466.89	1.945	474158	REC_EVENT	2055	3	3	BOARD	PASS	BREAD	BOARD	2	[0, 0, 0]	-999	PAL1	0	R1297T
468.835	1.001	476103	PROBE_OFF	n/a	3	-999	n/a	n/a	n/a	n/a	2	[0, 0, 0]	-999	PAL1	0	R1297T
469.836	0.016	477104	REC_END	n/a	3	-999	n/a	n/a	n/a	n/a	2	[0, 0, 0]	-999	PAL1	0	R1297T
469.852	0.267	477120	TEST_ORIENT	n/a	2	4	PIT	PASS	PIT	ICE	2	[0, 0, 0]	-999	PAL1	0	R1297T
470.119	0.616	477387	RETRIEVAL_ORIENT_OFF	n/a	3	-999	n/a	n/a	n/a	n/a	2	[0, 0, 0]	-999	PAL1	0	R1297T
470.735	0.001	478002	TEST_PROBE	n/a	2	4	PIT	PASS	PIT	ICE	2	[0, 0, 0]	-999	PAL1	0	R1297T
470.736	3.004	478003	REC_START	n/a	2	-999	n/a	PASS	n/a	n/a	2	[0, 0, 0]	-999	PAL1	0	R1297T
473.74	1.013	481007	REC_EVENT	3004	2	4	PIT	PASS	PIT	ICE	2	[0, 0, 0]	-999	PAL1	0	R1297T
474.753	1.0	482020	PROBE_OFF	n/a	2	-999	n/a	n/a	n/a	n/a	2	[0, 0, 0]	-999	PAL1	0	R1297T
475.753	0.016	483020	REC_END	n/a	2	-999	n/a	n/a	n/a	n/a	2	[0, 0, 0]	-999	PAL1	0	R1297T
475.769	0.267	483036	TEST_ORIENT	n/a	5	5	COW	COMB	COW	SWAMP	2	[0, 0, 0]	-999	PAL1	0	R1297T
476.036	0.733	483303	RETRIEVAL_ORIENT_OFF	n/a	2	-999	n/a	n/a	n/a	n/a	2	[0, 0, 0]	-999	PAL1	0	R1297T
476.769	0.001	484036	TEST_PROBE	n/a	5	5	COW	COMB	COW	SWAMP	2	[0, 0, 0]	-999	PAL1	0	R1297T
476.77	1.876	484037	REC_START	n/a	5	-999	n/a	COMB	n/a	n/a	2	[0, 0, 0]	-999	PAL1	0	R1297T
478.646	2.124	485913	REC_EVENT	1876	5	5	COW	COMB	COW	SWAMP	2	[0, 0, 0]	-999	PAL1	0	R1297T
480.77	1.0	488037	PROBE_OFF	n/a	5	-999	n/a	n/a	n/a	n/a	2	[0, 0, 0]	-999	PAL1	0	R1297T
481.77	0.017	489037	REC_END	n/a	5	-999	n/a	n/a	n/a	n/a	2	[0, 0, 0]	-999	PAL1	0	R1297T
481.787	0.267	489054	TEST_ORIENT	n/a	6	6	CLOWN	PASS	CLOWN	SOUP	2	[0, 0, 0]	-999	PAL1	0	R1297T
482.054	0.75	489321	RETRIEVAL_ORIENT_OFF	n/a	5	-999	n/a	n/a	n/a	n/a	2	[0, 0, 0]	-999	PAL1	0	R1297T
482.804	0.001	490071	TEST_PROBE	n/a	6	6	CLOWN	PASS	CLOWN	SOUP	2	[0, 0, 0]	-999	PAL1	0	R1297T
482.805	1.399	490072	REC_START	n/a	6	-999	n/a	PASS	n/a	n/a	2	[0, 0, 0]	-999	PAL1	0	R1297T
484.204	2.617	491471	REC_EVENT	1399	6	6	CLOWN	PASS	CLOWN	SOUP	2	[0, 0, 0]	-999	PAL1	0	R1297T
486.821	1.0	494088	PROBE_OFF	n/a	6	-999	n/a	n/a	n/a	n/a	2	[0, 0, 0]	-999	PAL1	0	R1297T
487.821	0.011	495087	REC_END	n/a	6	-999	n/a	n/a	n/a	n/a	2	[0, 0, 0]	-999	PAL1	0	R1297T
487.832	5.692	495098	RECALL_END	n/a	-999	-999	n/a	n/a	n/a	n/a	2	[0, 0, 0]	-999	PAL1	0	R1297T
493.524	10.928	500790	TRIAL	n/a	-999	-999	n/a	n/a	n/a	n/a	3	[0, 0, 0]	-999	PAL1	0	R1297T
504.452	0.007	511717	ENCODING_START	n/a	-999	-999	n/a	n/a	n/a	n/a	3	[0, 0, 0]	-999	PAL1	0	R1297T
504.459	0.266	511724	STUDY_ORIENT	n/a	1	1	BEAK	HEN	HEN	BEAK	3	[0, 0, 0]	-999	PAL1	0	R1297T
504.725	0.684	511990	STUDY_ORIENT_OFF	n/a	1	1	BEAK	HEN	HEN	BEAK	3	[0, 0, 0]	-999	PAL1	0	R1297T
505.409	4.018	512674	STUDY_PAIR	n/a	1	1	BEAK	HEN	HEN	BEAK	3	[0, 0, 0]	-999	PAL1	0	R1297T
509.427	1.017	516692	PAIR_OFF	n/a	1	1	BEAK	HEN	HEN	BEAK	3	[0, 0, 0]	-999	PAL1	0	R1297T
510.444	0.265	517709	STUDY_ORIENT	n/a	2	4	BRANCH	STEM	BRANCH	STEM	3	[0, 0, 0]	-999	PAL1	0	R1297T
510.709	0.568	517974	STUDY_ORIENT_OFF	n/a	2	4	BRANCH	STEM	BRANCH	STEM	3	[0, 0, 0]	-999	PAL1	0	R1297T
511.277	4.017	518542	STUDY_PAIR	n/a	2	4	BRANCH	STEM	BRANCH	STEM	3	[0, 0, 0]	-999	PAL1	0	R1297T
515.294	1.017	522559	PAIR_OFF	n/a	2	4	BRANCH	STEM	BRANCH	STEM	3	[0, 0, 0]	-999	PAL1	0	R1297T
516.311	0.267	523576	STUDY_ORIENT	n/a	3	5	FOX	PALM	FOX	PALM	3	[0, 0, 0]	-999	PAL1	0	R1297T
516.578	0.549	523843	STUDY_ORIENT_OFF	n/a	3	5	FOX	PALM	FOX	PALM	3	[0, 0, 0]	-999	PAL1	0	R1297T
517.127	4.017	524392	STUDY_PAIR	n/a	3	5	FOX	PALM	FOX	PALM	3	[0, 0, 0]	-999	PAL1	0	R1297T
521.144	1.017	528408	PAIR_OFF	n/a	3	5	FOX	PALM	FOX	PALM	3	[0, 0, 0]	-999	PAL1	0	R1297T
522.161	0.268	529425	STUDY_ORIENT	n/a	4	6	SEA	DOOR	DOOR	SEA	3	[0, 0, 0]	-999	PAL1	0	R1297T
522.429	0.532	529693	STUDY_ORIENT_OFF	n/a	4	6	SEA	DOOR	DOOR	SEA	3	[0, 0, 0]	-999	PAL1	0	R1297T
522.961	4.018	530225	STUDY_PAIR	n/a	4	6	SEA	DOOR	DOOR	SEA	3	[0, 0, 0]	-999	PAL1	0	R1297T
526.979	1.017	534243	PAIR_OFF	n/a	4	6	SEA	DOOR	DOOR	SEA	3	[0, 0, 0]	-999	PAL1	0	R1297T
527.996	0.267	535260	STUDY_ORIENT	n/a	5	3	CHAIR	STOVE	CHAIR	STOVE	3	[0, 0, 0]	-999	PAL1	0	R1297T
528.263	0.599	535527	STUDY_ORIENT_OFF	n/a	5	3	CHAIR	STOVE	CHAIR	STOVE	3	[0, 0, 0]	-999	PAL1	0	R1297T
528.862	4.001	536126	STUDY_PAIR	n/a	5	3	CHAIR	STOVE	CHAIR	STOVE	3	[0, 0, 0]	-999	PAL1	0	R1297T
532.863	1.017	540127	PAIR_OFF	n/a	5	3	CHAIR	STOVE	CHAIR	STOVE	3	[0, 0, 0]	-999	PAL1	0	R1297T
533.88	0.267	541144	STUDY_ORIENT	n/a	6	2	MAIL	PASS	STOOL	MAIL	3	[0, 0, 0]	-999	PAL1	0	R1297T
534.147	0.733	541411	STUDY_ORIENT_OFF	n/a	6	2	MAIL	PASS	STOOL	MAIL	3	[0, 0, 0]	-999	PAL1	0	R1297T
534.88	4.018	542144	STUDY_PAIR	n/a	6	2	MAIL	PASS	STOOL	MAIL	3	[0, 0, 0]	-999	PAL1	0	R1297T
538.898	1.001	546161	PAIR_OFF	n/a	6	2	MAIL	PASS	STOOL	MAIL	3	[0, 0, 0]	-999	PAL1	0	R1297T
539.899	0.0	547162	MATH_START	n/a	-999	-999	n/a	n/a	n/a	n/a	3	[0, 0, 0]	-999	PAL1	0	R1297T
539.899	0.001	547162	ENCODING_END	n/a	-999	-999	n/a	n/a	n/a	n/a	3	[0, 0, 0]	-999	PAL1	0	R1297T
539.9	0.015	547163	START	n/a	-999	-999	n/a	n/a	n/a	n/a	3	[-999, -999, -999]	-999	PAL1	0	R1297T
539.915	8.134	547178	PROB	8101	-999	-999	n/a	n/a	n/a	n/a	3	[9, 2, 4]	15	PAL1	0	R1297T
548.049	4.285	555312	PROB	4248	-999	-999	n/a	n/a	n/a	n/a	3	[6, 8, 2]	16	PAL1	0	R1297T
552.334	5.667	559596	PROB	5642	-999	-999	n/a	n/a	n/a	n/a	3	[7, 2, 8]	17	PAL1	0	R1297T
558.001	3.879	565263	PROB	3879	-999	-999	n/a	n/a	n/a	n/a	3	[7, 1, 1]	9	PAL1	0	R1297T
561.88	0.005	569142	STOP	n/a	-999	-999	n/a	n/a	n/a	n/a	3	[-999, -999, -999]	-999	PAL1	0	R1297T
561.885	0.0	569147	MATH_END	n/a	-999	-999	n/a	n/a	n/a	n/a	3	[0, 0, 0]	-999	PAL1	0	R1297T
561.885	0.017	569147	RECALL_START	n/a	-999	-999	n/a	n/a	n/a	n/a	3	[0, 0, 0]	-999	PAL1	0	R1297T
561.902	0.267	569164	TEST_ORIENT	n/a	1	1	BEAK	HEN	HEN	BEAK	3	[0, 0, 0]	-999	PAL1	0	R1297T
562.169	0.566	569431	RETRIEVAL_ORIENT_OFF	n/a	-999	-999	n/a	n/a	n/a	n/a	3	[0, 0, 0]	-999	PAL1	0	R1297T
562.735	0.001	569997	TEST_PROBE	n/a	1	1	BEAK	HEN	HEN	BEAK	3	[0, 0, 0]	-999	PAL1	0	R1297T
562.736	1.279	569998	REC_START	n/a	1	-999	n/a	HEN	n/a	n/a	3	[0, 0, 0]	-999	PAL1	0	R1297T
564.015	2.738	571277	REC_EVENT	1279	1	1	BEAK	HEN	HEN	BEAK	3	[0, 0, 0]	-999	PAL1	0	R1297T
566.753	1.012	574015	PROBE_OFF	n/a	1	-999	n/a	n/a	n/a	n/a	3	[0, 0, 0]	-999	PAL1	0	R1297T
567.765	0.021	575027	REC_END	n/a	1	-999	n/a	n/a	n/a	n/a	3	[0, 0, 0]	-999	PAL1	0	R1297T
567.786	0.267	575048	TEST_ORIENT	n/a	6	2	MAIL	PASS	STOOL	MAIL	3	[0, 0, 0]	-999	PAL1	0	R1297T
568.053	0.583	575315	RETRIEVAL_ORIENT_OFF	n/a	1	-999	n/a	n/a	n/a	n/a	3	[0, 0, 0]	-999	PAL1	0	R1297T
568.636	0.001	575897	TEST_PROBE	n/a	6	2	MAIL	PASS	STOOL	MAIL	3	[0, 0, 0]	-999	PAL1	0	R1297T
568.637	2.068	575898	REC_START	n/a	6	-999	n/a	PASS	n/a	n/a	3	[0, 0, 0]	-999	PAL1	0	R1297T
570.705	1.949	577966	REC_EVENT	2068	6	2	MAIL	PASS	STOOL	MAIL	3	[0, 0, 0]	-999	PAL1	0	R1297T
572.654	1.0	579915	PROBE_OFF	n/a	6	-999	n/a	n/a	n/a	n/a	3	[0, 0, 0]	-999	PAL1	0	R1297T
573.654	0.016	580915	REC_END	n/a	6	-999	n/a	n/a	n/a	n/a	3	[0, 0, 0]	-999	PAL1	0	R1297T
573.67	0.267	580931	TEST_ORIENT	n/a	5	3	CHAIR	STOVE	CHAIR	STOVE	3	[0, 0, 0]	-999	PAL1	0	R1297T
573.937	0.635	581198	RETRIEVAL_ORIENT_OFF	n/a	6	-999	n/a	n/a	n/a	n/a	3	[0, 0, 0]	-999	PAL1	0	R1297T
574.572	0.0	581833	TEST_PROBE	n/a	5	3	CHAIR	STOVE	CHAIR	STOVE	3	[0, 0, 0]	-999	PAL1	0	R1297T
574.572	0.67	581833	REC_START	n/a	5	-999	n/a	STOVE	n/a	n/a	3	[0, 0, 0]	-999	PAL1	0	R1297T
575.242	3.347	582503	REC_EVENT	670	5	3	CHAIR	STOVE	CHAIR	STOVE	3	[0, 0, 0]	-999	PAL1	0	R1297T
578.589	1.0	585850	PROBE_OFF	n/a	5	-999	n/a	n/a	n/a	n/a	3	[0, 0, 0]	-999	PAL1	0	R1297T
579.589	0.016	586850	REC_END	n/a	5	-999	n/a	n/a	n/a	n/a	3	[0, 0, 0]	-999	PAL1	0	R1297T
579.605	0.267	586866	TEST_ORIENT	n/a	2	4	BRANCH	STEM	BRANCH	STEM	3	[0, 0, 0]	-999	PAL1	0	R1297T
579.872	0.601	587133	RETRIEVAL_ORIENT_OFF	n/a	5	-999	n/a	n/a	n/a	n/a	3	[0, 0, 0]	-999	PAL1	0	R1297T
580.473	0.0	587734	TEST_PROBE	n/a	2	4	BRANCH	STEM	BRANCH	STEM	3	[0, 0, 0]	-999	PAL1	0	R1297T
580.473	2.841	587734	REC_START	n/a	2	-999	n/a	STEM	n/a	n/a	3	[0, 0, 0]	-999	PAL1	0	R1297T
583.314	1.176	590575	REC_EVENT	2841	2	4	BRANCH	STEM	BRANCH	STEM	3	[0, 0, 0]	-999	PAL1	0	R1297T
584.49	1.001	591751	PROBE_OFF	n/a	2	-999	n/a	n/a	n/a	n/a	3	[0, 0, 0]	-999	PAL1	0	R1297T
585.491	0.016	592751	REC_END	n/a	2	-999	n/a	n/a	n/a	n/a	3	[0, 0, 0]	-999	PAL1	0	R1297T
585.507	0.266	592767	TEST_ORIENT	n/a	3	5	FOX	PALM	FOX	PALM	3	[0, 0, 0]	-999	PAL1	0	R1297T
585.773	0.718	593033	RETRIEVAL_ORIENT_OFF	n/a	2	-999	n/a	n/a	n/a	n/a	3	[0, 0, 0]	-999	PAL1	0	R1297T
586.491	0.0	593751	TEST_PROBE	n/a	3	5	FOX	PALM	FOX	PALM	3	[0, 0, 0]	-999	PAL1	0	R1297T
586.491	1.874	593751	REC_START	n/a	3	-999	n/a	PALM	n/a	n/a	3	[0, 0, 0]	-999	PAL1	0	R1297T
588.365	2.143	595625	REC_EVENT	1874	3	5	FOX	PALM	FOX	PALM	3	[0, 0, 0]	-999	PAL1	0	R1297T
590.508	1.0	597768	PROBE_OFF	n/a	3	-999	n/a	n/a	n/a	n/a	3	[0, 0, 0]	-999	PAL1	0	R1297T
591.508	0.017	598768	REC_END	n/a	3	-999	n/a	n/a	n/a	n/a	3	[0, 0, 0]	-999	PAL1	0	R1297T
591.525	0.266	598785	TEST_ORIENT	n/a	4	6	SEA	DOOR	DOOR	SEA	3	[0, 0, 0]	-999	PAL1	0	R1297T
591.791	0.751	599051	RETRIEVAL_ORIENT_OFF	n/a	3	-999	n/a	n/a	n/a	n/a	3	[0, 0, 0]	-999	PAL1	0	R1297T
592.542	0.0	599802	TEST_PROBE	n/a	4	6	SEA	DOOR	DOOR	SEA	3	[0, 0, 0]	-999	PAL1	0	R1297T
592.542	1.787	599802	REC_START	n/a	4	-999	n/a	DOOR	n/a	n/a	3	[0, 0, 0]	-999	PAL1	0	R1297T
594.329	2.23	601589	REC_EVENT	1787	4	6	SEA	DOOR	DOOR	SEA	3	[0, 0, 0]	-999	PAL1	0	R1297T
596.559	1.0	603819	PROBE_OFF	n/a	4	-999	n/a	n/a	n/a	n/a	3	[0, 0, 0]	-999	PAL1	0	R1297T
597.559	0.011	604819	REC_END	n/a	4	-999	n/a	n/a	n/a	n/a	3	[0, 0, 0]	-999	PAL1	0	R1297T
597.57	6.106	604830	RECALL_END	n/a	-999	-999	n/a	n/a	n/a	n/a	3	[0, 0, 0]	-999	PAL1	0	R1297T
603.676	10.928	610935	TRIAL	n/a	-999	-999	n/a	n/a	n/a	n/a	4	[0, 0, 0]	-999	PAL1	0	R1297T
614.604	0.007	621863	ENCODING_START	n/a	-999	-999	n/a	n/a	n/a	n/a	4	[0, 0, 0]	-999	PAL1	0	R1297T
614.611	0.267	621870	STUDY_ORIENT	n/a	1	5	BAG	SNAIL	SNAIL	BAG	4	[0, 0, 0]	-999	PAL1	0	R1297T
614.878	0.601	622137	STUDY_ORIENT_OFF	n/a	1	5	BAG	SNAIL	SNAIL	BAG	4	[0, 0, 0]	-999	PAL1	0	R1297T
615.479	4.018	622738	STUDY_PAIR	n/a	1	5	BAG	SNAIL	SNAIL	BAG	4	[0, 0, 0]	-999	PAL1	0	R1297T
619.497	1.016	626755	PAIR_OFF	n/a	1	5	BAG	SNAIL	SNAIL	BAG	4	[0, 0, 0]	-999	PAL1	0	R1297T
620.513	0.266	627771	STUDY_ORIENT	n/a	2	4	LEG	PASS	LEG	CAT	4	[0, 0, 0]	-999	PAL1	0	R1297T
620.779	0.518	628037	STUDY_ORIENT_OFF	n/a	2	4	LEG	PASS	LEG	CAT	4	[0, 0, 0]	-999	PAL1	0	R1297T
621.297	4.017	628555	STUDY_PAIR	n/a	2	4	LEG	PASS	LEG	CAT	4	[0, 0, 0]	-999	PAL1	0	R1297T
625.314	1.017	632572	PAIR_OFF	n/a	2	4	LEG	PASS	LEG	CAT	4	[0, 0, 0]	-999	PAL1	0	R1297T
626.331	0.266	633589	STUDY_ORIENT	n/a	3	3	SAIL	PASS	STAIR	SAIL	4	[0, 0, 0]	-999	PAL1	0	R1297T
626.597	0.735	633855	STUDY_ORIENT_OFF	n/a	3	3	SAIL	PASS	STAIR	SAIL	4	[0, 0, 0]	-999	PAL1	0	R1297T
627.332	4.017	634590	STUDY_PAIR	n/a	3	3	SAIL	PASS	STAIR	SAIL	4	[0, 0, 0]	-999	PAL1	0	R1297T
631.349	1.017	638607	PAIR_OFF	n/a	3	3	SAIL	PASS	STAIR	SAIL	4	[0, 0, 0]	-999	PAL1	0	R1297T
632.366	0.266	639624	STUDY_ORIENT	n/a	4	2	BLOOM	PASS	BLOOM	CAKE	4	[0, 0, 0]	-999	PAL1	0	R1297T
632.632	0.634	639890	STUDY_ORIENT_OFF	n/a	4	2	BLOOM	PASS	BLOOM	CAKE	4	[0, 0, 0]	-999	PAL1	0	R1297T
633.266	4.017	640524	STUDY_PAIR	n/a	4	2	BLOOM	PASS	BLOOM	CAKE	4	[0, 0, 0]	-999	PAL1	0	R1297T
637.283	1.017	644540	PAIR_OFF	n/a	4	2	BLOOM	PASS	BLOOM	CAKE	4	[0, 0, 0]	-999	PAL1	0	R1297T
638.3	0.267	645557	STUDY_ORIENT	n/a	5	1	BOY	BRUSH	BOY	BRUSH	4	[0, 0, 0]	-999	PAL1	0	R1297T
638.567	0.7	645824	STUDY_ORIENT_OFF	n/a	5	1	BOY	BRUSH	BOY	BRUSH	4	[0, 0, 0]	-999	PAL1	0	R1297T
639.267	4.017	646524	STUDY_PAIR	n/a	5	1	BOY	BRUSH	BOY	BRUSH	4	[0, 0, 0]	-999	PAL1	0	R1297T
643.284	1.017	650541	PAIR_OFF	n/a	5	1	BOY	BRUSH	BOY	BRUSH	4	[0, 0, 0]	-999	PAL1	0	R1297T
644.301	0.267	651558	STUDY_ORIENT	n/a	6	6	NOSE	SUIT	NOSE	SUIT	4	[0, 0, 0]	-999	PAL1	0	R1297T
644.568	0.616	651825	STUDY_ORIENT_OFF	n/a	6	6	NOSE	SUIT	NOSE	SUIT	4	[0, 0, 0]	-999	PAL1	0	R1297T
645.184	4.017	652441	STUDY_PAIR	n/a	6	6	NOSE	SUIT	NOSE	SUIT	4	[0, 0, 0]	-999	PAL1	0	R1297T
649.201	1.0	656458	PAIR_OFF	n/a	6	6	NOSE	SUIT	NOSE	SUIT	4	[0, 0, 0]	-999	PAL1	0	R1297T
650.201	0.0	657457	ENCODING_END	n/a	-999	-999	n/a	n/a	n/a	n/a	4	[0, 0, 0]	-999	PAL1	0	R1297T
650.201	0.002	657457	MATH_START	n/a	-999	-999	n/a	n/a	n/a	n/a	4	[0, 0, 0]	-999	PAL1	0	R1297T
650.203	0.016	657459	START	n/a	-999	-999	n/a	n/a	n/a	n/a	4	[-999, -999, -999]	-999	PAL1	0	R1297T
650.219	7.534	657475	PROB	7501	-999	-999	n/a	n/a	n/a	n/a	4	[5, 6, 3]	14	PAL1	0	R1297T
657.753	4.134	665009	PROB	4103	-999	-999	n/a	n/a	n/a	n/a	4	[7, 5, 5]	17	PAL1	0	R1297T
661.887	4.318	669143	PROB	4281	-999	-999	n/a	n/a	n/a	n/a	4	[2, 5, 5]	12	PAL1	0	R1297T
666.205	4.332	673460	PROB	4332	-999	-999	n/a	n/a	n/a	n/a	4	[7, 5, 5]	17	PAL1	0	R1297T
670.537	0.019	677792	STOP	n/a	-999	-999	n/a	n/a	n/a	n/a	4	[-999, -999, -999]	-999	PAL1	0	R1297T
670.556	0.0	677811	RECALL_START	n/a	-999	-999	n/a	n/a	n/a	n/a	4	[0, 0, 0]	-999	PAL1	0	R1297T
670.556	0.017	677811	MATH_END	n/a	-999	-999	n/a	n/a	n/a	n/a	4	[0, 0, 0]	-999	PAL1	0	R1297T
670.573	0.265	677828	TEST_ORIENT	n/a	5	1	BOY	BRUSH	BOY	BRUSH	4	[0, 0, 0]	-999	PAL1	0	R1297T
670.838	0.601	678093	RETRIEVAL_ORIENT_OFF	n/a	-999	-999	n/a	n/a	n/a	n/a	4	[0, 0, 0]	-999	PAL1	0	R1297T
671.439	0.001	678694	TEST_PROBE	n/a	5	1	BOY	BRUSH	BOY	BRUSH	4	[0, 0, 0]	-999	PAL1	0	R1297T
671.44	1.248	678695	REC_START	n/a	5	-999	n/a	BRUSH	n/a	n/a	4	[0, 0, 0]	-999	PAL1	0	R1297T
672.688	2.769	679943	REC_EVENT	1248	5	1	BOY	BRUSH	BOY	BRUSH	4	[0, 0, 0]	-999	PAL1	0	R1297T
675.457	1.0	682712	PROBE_OFF	n/a	5	-999	n/a	n/a	n/a	n/a	4	[0, 0, 0]	-999	PAL1	0	R1297T
676.457	0.017	683712	REC_END	n/a	5	-999	n/a	n/a	n/a	n/a	4	[0, 0, 0]	-999	PAL1	0	R1297T
676.474	0.265	683729	TEST_ORIENT	n/a	4	2	BLOOM	PASS	BLOOM	CAKE	4	[0, 0, 0]	-999	PAL1	0	R1297T
676.739	0.618	683994	RETRIEVAL_ORIENT_OFF	n/a	5	-999	n/a	n/a	n/a	n/a	4	[0, 0, 0]	-999	PAL1	0	R1297T
677.357	0.001	684612	TEST_PROBE	n/a	4	2	BLOOM	PASS	BLOOM	CAKE	4	[0, 0, 0]	-999	PAL1	0	R1297T
677.358	2.355	684613	REC_START	n/a	4	-999	n/a	PASS	n/a	n/a	4	[0, 0, 0]	-999	PAL1	0	R1297T
679.713	1.662	686968	REC_EVENT	2355	4	2	BLOOM	PASS	BLOOM	CAKE	4	[0, 0, 0]	-999	PAL1	0	R1297T
681.375	1.0	688630	PROBE_OFF	n/a	4	-999	n/a	n/a	n/a	n/a	4	[0, 0, 0]	-999	PAL1	0	R1297T
682.375	0.016	689629	REC_END	n/a	4	-999	n/a	n/a	n/a	n/a	4	[0, 0, 0]	-999	PAL1	0	R1297T
682.391	0.266	689645	TEST_ORIENT	n/a	3	3	SAIL	PASS	STAIR	SAIL	4	[0, 0, 0]	-999	PAL1	0	R1297T
682.657	0.635	689911	RETRIEVAL_ORIENT_OFF	n/a	4	-999	n/a	n/a	n/a	n/a	4	[0, 0, 0]	-999	PAL1	0	R1297T
683.292	0.0	690546	TEST_PROBE	n/a	3	3	SAIL	PASS	STAIR	SAIL	4	[0, 0, 0]	-999	PAL1	0	R1297T
683.292	3.855	690546	REC_START	n/a	3	-999	n/a	PASS	n/a	n/a	4	[0, 0, 0]	-999	PAL1	0	R1297T
687.147	0.162	694401	REC_EVENT	3855	3	3	SAIL	PASS	STAIR	SAIL	4	[0, 0, 0]	-999	PAL1	0	R1297T
687.309	1.0	694563	PROBE_OFF	n/a	3	-999	n/a	n/a	n/a	n/a	4	[0, 0, 0]	-999	PAL1	0	R1297T
688.309	0.017	695563	REC_END	n/a	3	-999	n/a	n/a	n/a	n/a	4	[0, 0, 0]	-999	PAL1	0	R1297T
688.326	0.267	695580	TEST_ORIENT	n/a	2	4	LEG	PASS	LEG	CAT	4	[0, 0, 0]	-999	PAL1	0	R1297T
688.593	0.683	695847	RETRIEVAL_ORIENT_OFF	n/a	3	-999	n/a	n/a	n/a	n/a	4	[0, 0, 0]	-999	PAL1	0	R1297T
689.276	0.001	696530	TEST_PROBE	n/a	2	4	LEG	PASS	LEG	CAT	4	[0, 0, 0]	-999	PAL1	0	R1297T
689.277	2.825	696531	REC_START	n/a	2	-999	n/a	PASS	n/a	n/a	4	[0, 0, 0]	-999	PAL1	0	R1297T
692.102	1.191	699356	REC_EVENT	2825	2	4	LEG	PASS	LEG	CAT	4	[0, 0, 0]	-999	PAL1	0	R1297T
693.293	1.001	700547	PROBE_OFF	n/a	2	-999	n/a	n/a	n/a	n/a	4	[0, 0, 0]	-999	PAL1	0	R1297T
694.294	0.016	701548	REC_END	n/a	2	-999	n/a	n/a	n/a	n/a	4	[0, 0, 0]	-999	PAL1	0	R1297T
694.31	0.267	701564	TEST_ORIENT	n/a	1	5	BAG	SNAIL	SNAIL	BAG	4	[0, 0, 0]	-999	PAL1	0	R1297T
694.577	0.7	701831	RETRIEVAL_ORIENT_OFF	n/a	2	-999	n/a	n/a	n/a	n/a	4	[0, 0, 0]	-999	PAL1	0	R1297T
695.277	0.001	702531	TEST_PROBE	n/a	1	5	BAG	SNAIL	SNAIL	BAG	4	[0, 0, 0]	-999	PAL1	0	R1297T
695.278	3.264	702532	REC_START	n/a	1	-999	n/a	SNAIL	n/a	n/a	4	[0, 0, 0]	-999	PAL1	0	R1297T
698.542	0.753	705796	REC_EVENT	3264	1	5	BAG	SNAIL	SNAIL	BAG	4	[0, 0, 0]	-999	PAL1	0	R1297T
699.295	1.0	706548	PROBE_OFF	n/a	1	-999	n/a	n/a	n/a	n/a	4	[0, 0, 0]	-999	PAL1	0	R1297T
700.295	0.016	707548	REC_END	n/a	1	-999	n/a	n/a	n/a	n/a	4	[0, 0, 0]	-999	PAL1	0	R1297T
700.311	0.267	707564	TEST_ORIENT	n/a	6	6	NOSE	SUIT	NOSE	SUIT	4	[0, 0, 0]	-999	PAL1	0	R1297T
700.578	0.683	707831	RETRIEVAL_ORIENT_OFF	n/a	1	-999	n/a	n/a	n/a	n/a	4	[0, 0, 0]	-999	PAL1	0	R1297T
701.261	0.001	708514	TEST_PROBE	n/a	6	6	NOSE	SUIT	NOSE	SUIT	4	[0, 0, 0]	-999	PAL1	0	R1297T
701.262	1.391	708515	REC_START	n/a	6	-999	n/a	SUIT	n/a	n/a	4	[0, 0, 0]	-999	PAL1	0	R1297T
702.653	2.609	709906	REC_EVENT	1391	6	6	NOSE	SUIT	NOSE	SUIT	4	[0, 0, 0]	-999	PAL1	0	R1297T
705.262	1.0	712515	PROBE_OFF	n/a	6	-999	n/a	n/a	n/a	n/a	4	[0, 0, 0]	-999	PAL1	0	R1297T
706.262	0.013	713515	REC_END	n/a	6	-999	n/a	n/a	n/a	n/a	4	[0, 0, 0]	-999	PAL1	0	R1297T
706.275	5.704	713528	RECALL_END	n/a	-999	-999	n/a	n/a	n/a	n/a	4	[0, 0, 0]	-999	PAL1	0	R1297T
711.979	10.929	719232	TRIAL	n/a	-999	-999	n/a	n/a	n/a	n/a	5	[0, 0, 0]	-999	PAL1	0	R1297T
722.908	0.007	730160	ENCODING_START	n/a	-999	-999	n/a	n/a	n/a	n/a	5	[0, 0, 0]	-999	PAL1	0	R1297T
722.915	0.266	730167	STUDY_ORIENT	n/a	1	1	ELF	PASS	ELF	DITCH	5	[0, 0, 0]	-999	PAL1	0	R1297T
723.181	0.717	730433	STUDY_ORIENT_OFF	n/a	1	1	ELF	PASS	ELF	DITCH	5	[0, 0, 0]	-999	PAL1	0	R1297T
723.898	4.017	731150	STUDY_PAIR	n/a	1	1	ELF	PASS	ELF	DITCH	5	[0, 0, 0]	-999	PAL1	0	R1297T
727.915	1.017	735167	PAIR_OFF	n/a	1	1	ELF	PASS	ELF	DITCH	5	[0, 0, 0]	-999	PAL1	0	R1297T
728.932	0.267	736184	STUDY_ORIENT	n/a	2	2	SLIME	PASS	SKUNK	SLIME	5	[0, 0, 0]	-999	PAL1	0	R1297T
729.199	0.6	736451	STUDY_ORIENT_OFF	n/a	2	2	SLIME	PASS	SKUNK	SLIME	5	[0, 0, 0]	-999	PAL1	0	R1297T
729.799	4.017	737051	STUDY_PAIR	n/a	2	2	SLIME	PASS	SKUNK	SLIME	5	[0, 0, 0]	-999	PAL1	0	R1297T
733.816	1.017	741067	PAIR_OFF	n/a	2	2	SLIME	PASS	SKUNK	SLIME	5	[0, 0, 0]	-999	PAL1	0	R1297T
734.833	0.267	742084	STUDY_ORIENT	n/a	3	3	JAR	SHELL	JAR	FORK	5	[0, 0, 0]	-999	PAL1	0	R1297T
735.1	0.667	742351	STUDY_ORIENT_OFF	n/a	3	3	JAR	SHELL	JAR	FORK	5	[0, 0, 0]	-999	PAL1	0	R1297T
735.767	4.017	743018	STUDY_PAIR	n/a	3	3	JAR	SHELL	JAR	FORK	5	[0, 0, 0]	-999	PAL1	0	R1297T
739.784	1.017	747035	PAIR_OFF	n/a	3	3	JAR	SHELL	JAR	FORK	5	[0, 0, 0]	-999	PAL1	0	R1297T
740.801	0.267	748052	STUDY_ORIENT	n/a	4	6	CUP	PASS	CUP	OWL	5	[0, 0, 0]	-999	PAL1	0	R1297T
741.068	0.533	748319	STUDY_ORIENT_OFF	n/a	4	6	CUP	PASS	CUP	OWL	5	[0, 0, 0]	-999	PAL1	0	R1297T
741.601	4.018	748852	STUDY_PAIR	n/a	4	6	CUP	PASS	CUP	OWL	5	[0, 0, 0]	-999	PAL1	0	R1297T
745.619	1.016	752870	PAIR_OFF	n/a	4	6	CUP	PASS	CUP	OWL	5	[0, 0, 0]	-999	PAL1	0	R1297T
746.635	0.267	753886	STUDY_ORIENT	n/a	5	5	FLOOR	PASS	STEAM	FLOOR	5	[0, 0, 0]	-999	PAL1	0	R1297T
746.902	0.585	754153	STUDY_ORIENT_OFF	n/a	5	5	FLOOR	PASS	STEAM	FLOOR	5	[0, 0, 0]	-999	PAL1	0	R1297T
747.487	4.017	754737	STUDY_PAIR	n/a	5	5	FLOOR	PASS	STEAM	FLOOR	5	[0, 0, 0]	-999	PAL1	0	R1297T
751.504	1.017	758754	PAIR_OFF	n/a	5	5	FLOOR	PASS	STEAM	FLOOR	5	[0, 0, 0]	-999	PAL1	0	R1297T
752.521	0.266	759771	STUDY_ORIENT	n/a	6	4	LAMB	PASS	LAMB	SHELL	5	[0, 0, 0]	-999	PAL1	0	R1297T
752.787	0.667	760037	STUDY_ORIENT_OFF	n/a	6	4	LAMB	PASS	LAMB	SHELL	5	[0, 0, 0]	-999	PAL1	0	R1297T
753.454	4.018	760704	STUDY_PAIR	n/a	6	4	LAMB	PASS	LAMB	SHELL	5	[0, 0, 0]	-999	PAL1	0	R1297T
757.472	1.001	764722	PAIR_OFF	n/a	6	4	LAMB	PASS	LAMB	SHELL	5	[0, 0, 0]	-999	PAL1	0	R1297T
758.473	0.0	765723	ENCODING_END	n/a	-999	-999	n/a	n/a	n/a	n/a	5	[0, 0, 0]	-999	PAL1	0	R1297T
758.473	0.0	765723	MATH_START	n/a	-999	-999	n/a	n/a	n/a	n/a	5	[0, 0, 0]	-999	PAL1	0	R1297T
758.473	0.016	765723	START	n/a	-999	-999	n/a	n/a	n/a	n/a	5	[-999, -999, -999]	-999	PAL1	0	R1297T
758.489	4.299	765739	PROB	4263	-999	-999	n/a	n/a	n/a	n/a	5	[1, 5, 2]	8	PAL1	0	R1297T
762.788	8.603	770038	PROB	8581	-999	-999	n/a	n/a	n/a	n/a	5	[2, 9, 5]	16	PAL1	0	R1297T
771.391	4.834	778640	PROB	4809	-999	-999	n/a	n/a	n/a	n/a	5	[3, 8, 2]	13	PAL1	0	R1297T
776.225	3.328	783474	PROB	3328	-999	-999	n/a	n/a	n/a	n/a	5	[1, 5, 2]	8	PAL1	0	R1297T
779.553	0.006	786802	STOP	n/a	-999	-999	n/a	n/a	n/a	n/a	5	[-999, -999, -999]	-999	PAL1	0	R1297T
779.559	0.0	786808	MATH_END	n/a	-999	-999	n/a	n/a	n/a	n/a	5	[0, 0, 0]	-999	PAL1	0	R1297T
779.559	0.017	786808	RECALL_START	n/a	-999	-999	n/a	n/a	n/a	n/a	5	[0, 0, 0]	-999	PAL1	0	R1297T
779.576	0.265	786825	TEST_ORIENT	n/a	1	1	ELF	PASS	ELF	DITCH	5	[0, 0, 0]	-999	PAL1	0	R1297T
779.841	0.685	787090	RETRIEVAL_ORIENT_OFF	n/a	-999	-999	n/a	n/a	n/a	n/a	5	[0, 0, 0]	-999	PAL1	0	R1297T
780.526	0.001	787774	TEST_PROBE	n/a	1	1	ELF	PASS	ELF	DITCH	5	[0, 0, 0]	-999	PAL1	0	R1297T
780.527	2.332	787775	REC_START	n/a	1	-999	n/a	PASS	n/a	n/a	5	[0, 0, 0]	-999	PAL1	0	R1297T
782.859	1.684	790107	REC_EVENT	2332	1	1	ELF	PASS	ELF	DITCH	5	[0, 0, 0]	-999	PAL1	0	R1297T
784.543	1.0	791791	PROBE_OFF	n/a	1	-999	n/a	n/a	n/a	n/a	5	[0, 0, 0]	-999	PAL1	0	R1297T
785.543	0.017	792791	REC_END	n/a	1	-999	n/a	n/a	n/a	n/a	5	[0, 0, 0]	-999	PAL1	0	R1297T
785.56	0.266	792808	TEST_ORIENT	n/a	2	2	SLIME	PASS	SKUNK	SLIME	5	[0, 0, 0]	-999	PAL1	0	R1297T
785.826	0.601	793074	RETRIEVAL_ORIENT_OFF	n/a	1	-999	n/a	n/a	n/a	n/a	5	[0, 0, 0]	-999	PAL1	0	R1297T
786.427	0.001	793675	TEST_PROBE	n/a	2	2	SLIME	PASS	SKUNK	SLIME	5	[0, 0, 0]	-999	PAL1	0	R1297T
786.428	1.903	793676	REC_START	n/a	2	-999	n/a	PASS	n/a	n/a	5	[0, 0, 0]	-999	PAL1	0	R1297T
788.331	2.113	795579	REC_EVENT	1903	2	2	SLIME	PASS	SKUNK	SLIME	5	[0, 0, 0]	-999	PAL1	0	R1297T
790.444	1.0	797692	PROBE_OFF	n/a	2	-999	n/a	n/a	n/a	n/a	5	[0, 0, 0]	-999	PAL1	0	R1297T
791.444	0.017	798692	REC_END	n/a	2	-999	n/a	n/a	n/a	n/a	5	[0, 0, 0]	-999	PAL1	0	R1297T
791.461	0.266	798709	TEST_ORIENT	n/a	3	3	JAR	SHELL	JAR	FORK	5	[0, 0, 0]	-999	PAL1	0	R1297T
791.727	0.718	798975	RETRIEVAL_ORIENT_OFF	n/a	2	-999	n/a	n/a	n/a	n/a	5	[0, 0, 0]	-999	PAL1	0	R1297T
792.445	0.0	799693	TEST_PROBE	n/a	3	3	JAR	SHELL	JAR	FORK	5	[0, 0, 0]	-999	PAL1	0	R1297T
792.445	2.594	799693	REC_START	n/a	3	-999	n/a	SHELL	n/a	n/a	5	[0, 0, 0]	-999	PAL1	0	R1297T
795.039	1.423	802287	REC_EVENT	2594	3	3	JAR	SHELL	JAR	FORK	5	[0, 0, 0]	-999	PAL1	0	R1297T
796.462	1.001	803709	PROBE_OFF	n/a	3	-999	n/a	n/a	n/a	n/a	5	[0, 0, 0]	-999	PAL1	0	R1297T
797.463	0.016	804710	REC_END	n/a	3	-999	n/a	n/a	n/a	n/a	5	[0, 0, 0]	-999	PAL1	0	R1297T
797.479	0.266	804726	TEST_ORIENT	n/a	6	4	LAMB	PASS	LAMB	SHELL	5	[0, 0, 0]	-999	PAL1	0	R1297T
797.745	0.701	804992	RETRIEVAL_ORIENT_OFF	n/a	3	-999	n/a	n/a	n/a	n/a	5	[0, 0, 0]	-999	PAL1	0	R1297T
798.446	0.0	805693	TEST_PROBE	n/a	6	4	LAMB	PASS	LAMB	SHELL	5	[0, 0, 0]	-999	PAL1	0	R1297T
798.446	1.134	805693	REC_START	n/a	6	-999	n/a	PASS	n/a	n/a	5	[0, 0, 0]	-999	PAL1	0	R1297T
799.58	2.883	806827	REC_EVENT	1134	6	4	LAMB	PASS	LAMB	SHELL	5	[0, 0, 0]	-999	PAL1	0	R1297T
802.463	1.0	809710	PROBE_OFF	n/a	6	-999	n/a	n/a	n/a	n/a	5	[0, 0, 0]	-999	PAL1	0	R1297T
803.463	0.017	810710	REC_END	n/a	6	-999	n/a	n/a	n/a	n/a	5	[0, 0, 0]	-999	PAL1	0	R1297T
803.48	0.266	810727	TEST_ORIENT	n/a	5	5	FLOOR	PASS	STEAM	FLOOR	5	[0, 0, 0]	-999	PAL1	0	R1297T
803.746	0.518	810993	RETRIEVAL_ORIENT_OFF	n/a	6	-999	n/a	n/a	n/a	n/a	5	[0, 0, 0]	-999	PAL1	0	R1297T
804.264	0.0	811511	TEST_PROBE	n/a	5	5	FLOOR	PASS	STEAM	FLOOR	5	[0, 0, 0]	-999	PAL1	0	R1297T
804.264	1.326	811511	REC_START	n/a	5	-999	n/a	PASS	n/a	n/a	5	[0, 0, 0]	-999	PAL1	0	R1297T
805.59	2.691	812837	REC_EVENT	1326	5	5	FLOOR	PASS	STEAM	FLOOR	5	[0, 0, 0]	-999	PAL1	0	R1297T
808.281	1.0	815528	PROBE_OFF	n/a	5	-999	n/a	n/a	n/a	n/a	5	[0, 0, 0]	-999	PAL1	0	R1297T
809.281	0.017	816528	REC_END	n/a	5	-999	n/a	n/a	n/a	n/a	5	[0, 0, 0]	-999	PAL1	0	R1297T
809.298	0.267	816545	TEST_ORIENT	n/a	4	6	CUP	PASS	CUP	OWL	5	[0, 0, 0]	-999	PAL1	0	R1297T
809.565	0.75	816812	RETRIEVAL_ORIENT_OFF	n/a	5	-999	n/a	n/a	n/a	n/a	5	[0, 0, 0]	-999	PAL1	0	R1297T
810.315	0.0	817562	TEST_PROBE	n/a	4	6	CUP	PASS	CUP	OWL	5	[0, 0, 0]	-999	PAL1	0	R1297T
810.315	1.211	817562	REC_START	n/a	4	-999	n/a	PASS	n/a	n/a	5	[0, 0, 0]	-999	PAL1	0	R1297T
811.526	2.806	818773	REC_EVENT	1211	4	6	CUP	PASS	CUP	OWL	5	[0, 0, 0]	-999	PAL1	0	R1297T
814.332	1.0	821578	PROBE_OFF	n/a	4	-999	n/a	n/a	n/a	n/a	5	[0, 0, 0]	-999	PAL1	0	R1297T
815.332	0.006	822578	REC_END	n/a	4	-999	n/a	n/a	n/a	n/a	5	[0, 0, 0]	-999	PAL1	0	R1297T
815.338	5.428	822584	RECALL_END	n/a	-999	-999	n/a	n/a	n/a	n/a	5	[0, 0, 0]	-999	PAL1	0	R1297T
820.766	10.928	828012	TRIAL	n/a	-999	-999	n/a	n/a	n/a	n/a	6	[0, 0, 0]	-999	PAL1	0	R1297T
831.694	0.007	838939	ENCODING_START	n/a	-999	-999	n/a	n/a	n/a	n/a	6	[0, 0, 0]	-999	PAL1	0	R1297T
831.701	0.267	838946	STUDY_ORIENT	n/a	1	3	STRAW	HORSE	STRAW	HORSE	6	[0, 0, 0]	-999	PAL1	0	R1297T
831.968	0.517	839213	STUDY_ORIENT_OFF	n/a	1	3	STRAW	HORSE	STRAW	HORSE	6	[0, 0, 0]	-999	PAL1	0	R1297T
832.485	4.018	839730	STUDY_PAIR	n/a	1	3	STRAW	HORSE	STRAW	HORSE	6	[0, 0, 0]	-999	PAL1	0	R1297T
836.503	1.017	843748	PAIR_OFF	n/a	1	3	STRAW	HORSE	STRAW	HORSE	6	[0, 0, 0]	-999	PAL1	0	R1297T
837.52	0.265	844765	STUDY_ORIENT	n/a	2	2	DOLL	SHELF	STREET	DOLL	6	[0, 0, 0]	-999	PAL1	0	R1297T
837.785	0.701	845030	STUDY_ORIENT_OFF	n/a	2	2	DOLL	SHELF	STREET	DOLL	6	[0, 0, 0]	-999	PAL1	0	R1297T
838.486	4.018	845731	STUDY_PAIR	n/a	2	2	DOLL	SHELF	STREET	DOLL	6	[0, 0, 0]	-999	PAL1	0	R1297T
842.504	1.017	849749	PAIR_OFF	n/a	2	2	DOLL	SHELF	STREET	DOLL	6	[0, 0, 0]	-999	PAL1	0	R1297T
843.521	0.265	850766	STUDY_ORIENT	n/a	3	5	WAVE	SKI	SKI	WAVE	6	[0, 0, 0]	-999	PAL1	0	R1297T
843.786	0.568	851031	STUDY_ORIENT_OFF	n/a	3	5	WAVE	SKI	SKI	WAVE	6	[0, 0, 0]	-999	PAL1	0	R1297T
844.354	4.018	851599	STUDY_PAIR	n/a	3	5	WAVE	SKI	SKI	WAVE	6	[0, 0, 0]	-999	PAL1	0	R1297T
848.372	1.016	855616	PAIR_OFF	n/a	3	5	WAVE	SKI	SKI	WAVE	6	[0, 0, 0]	-999	PAL1	0	R1297T
849.388	0.266	856632	STUDY_ORIENT	n/a	4	4	SPARK	ROOF	ROOF	SPARK	6	[0, 0, 0]	-999	PAL1	0	R1297T
849.654	0.568	856898	STUDY_ORIENT_OFF	n/a	4	4	SPARK	ROOF	ROOF	SPARK	6	[0, 0, 0]	-999	PAL1	0	R1297T
850.222	4.017	857466	STUDY_PAIR	n/a	4	4	SPARK	ROOF	ROOF	SPARK	6	[0, 0, 0]	-999	PAL1	0	R1297T
854.239	1.017	861483	PAIR_OFF	n/a	4	4	SPARK	ROOF	ROOF	SPARK	6	[0, 0, 0]	-999	PAL1	0	R1297T
855.256	0.267	862500	STUDY_ORIENT	n/a	5	1	DEER	n/a	BRIDGE	DEER	6	[0, 0, 0]	-999	PAL1	0	R1297T
855.523	0.615	862767	STUDY_ORIENT_OFF	n/a	5	1	DEER	n/a	BRIDGE	DEER	6	[0, 0, 0]	-999	PAL1	0	R1297T
856.138	4.018	863382	STUDY_PAIR	n/a	5	1	DEER	n/a	BRIDGE	DEER	6	[0, 0, 0]	-999	PAL1	0	R1297T
860.156	1.017	867400	PAIR_OFF	n/a	5	1	DEER	n/a	BRIDGE	DEER	6	[0, 0, 0]	-999	PAL1	0	R1297T
861.173	0.268	868417	STUDY_ORIENT	n/a	6	6	CAGE	WORM	WORM	CAGE	6	[0, 0, 0]	-999	PAL1	0	R1297T
861.441	0.565	868685	STUDY_ORIENT_OFF	n/a	6	6	CAGE	WORM	WORM	CAGE	6	[0, 0, 0]	-999	PAL1	0	R1297T
862.006	4.018	869249	STUDY_PAIR	n/a	6	6	CAGE	WORM	WORM	CAGE	6	[0, 0, 0]	-999	PAL1	0	R1297T
866.024	1.001	873267	PAIR_OFF	n/a	6	6	CAGE	WORM	WORM	CAGE	6	[0, 0, 0]	-999	PAL1	0	R1297T
867.025	0.0	874268	ENCODING_END	n/a	-999	-999	n/a	n/a	n/a	n/a	6	[0, 0, 0]	-999	PAL1	0	R1297T
867.025	0.0	874268	MATH_START	n/a	-999	-999	n/a	n/a	n/a	n/a	6	[0, 0, 0]	-999	PAL1	0	R1297T
867.025	0.016	874268	START	n/a	-999	-999	n/a	n/a	n/a	n/a	6	[-999, -999, -999]	-999	PAL1	0	R1297T
867.041	5.084	874284	PROB	5048	-999	-999	n/a	n/a	n/a	n/a	6	[6, 6, 5]	17	PAL1	0	R1297T
872.125	4.701	879368	PROB	4667	-999	-999	n/a	n/a	n/a	n/a	6	[7, 5, 7]	19	PAL1	0	R1297T
876.826	5.317	884069	PROB	5294	-999	-999	n/a	n/a	n/a	n/a	6	[9, 9, 2]	20	PAL1	0	R1297T
882.143	3.584	889385	PROB	3553	-999	-999	n/a	n/a	n/a	n/a	6	[3, 4, 2]	9	PAL1	0	R1297T
885.727	5.137	892969	PROB	5137	-999	-999	n/a	n/a	n/a	n/a	6	[2, 7, 9]	18	PAL1	0	R1297T
890.864	0.014	898106	STOP	n/a	-999	-999	n/a	n/a	n/a	n/a	6	[-999, -999, -999]	-999	PAL1	0	R1297T
890.878	0.001	898120	MATH_END	n/a	-999	-999	n/a	n/a	n/a	n/a	6	[0, 0, 0]	-999	PAL1	0	R1297T
890.879	0.016	898121	RECALL_START	n/a	-999	-999	n/a	n/a	n/a	n/a	6	[0, 0, 0]	-999	PAL1	0	R1297T
890.895	0.267	898137	TEST_ORIENT	n/a	5	1	DEER	n/a	BRIDGE	DEER	6	[0, 0, 0]	-999	PAL1	0	R1297T
891.162	0.533	898404	RETRIEVAL_ORIENT_OFF	n/a	-999	-999	n/a	n/a	n/a	n/a	6	[0, 0, 0]	-999	PAL1	0	R1297T
891.695	0.001	898937	TEST_PROBE	n/a	5	1	DEER	n/a	BRIDGE	DEER	6	[0, 0, 0]	-999	PAL1	0	R1297T
891.696	3.934	898938	REC_START	n/a	5	-999	n/a	n/a	n/a	n/a	6	[0, 0, 0]	-999	PAL1	0	R1297T
895.63	0.082	902871	REC_EVENT	3934	5	1	DEER	<>	BRIDGE	DEER	6	[0, 0, 0]	-999	PAL1	0	R1297T
895.712	1.0	902953	PROBE_OFF	n/a	5	-999	n/a	n/a	n/a	n/a	6	[0, 0, 0]	-999	PAL1	0	R1297T
896.712	0.017	903953	REC_END	n/a	5	-999	n/a	n/a	n/a	n/a	6	[0, 0, 0]	-999	PAL1	0	R1297T
896.729	0.267	903970	TEST_ORIENT	n/a	2	2	DOLL	SHELF	STREET	DOLL	6	[0, 0, 0]	-999	PAL1	0	R1297T
896.996	0.584	904237	RETRIEVAL_ORIENT_OFF	n/a	5	-999	n/a	n/a	n/a	n/a	6	[0, 0, 0]	-999	PAL1	0	R1297T
897.58	0.001	904821	TEST_PROBE	n/a	2	2	DOLL	SHELF	STREET	DOLL	6	[0, 0, 0]	-999	PAL1	0	R1297T
897.581	1.797	904822	REC_START	n/a	2	-999	n/a	SHELF	n/a	n/a	6	[0, 0, 0]	-999	PAL1	0	R1297T
899.378	0.9	906619	REC_EVENT	1797	2	2	DOLL	<>	STREET	DOLL	6	[0, 0, 0]	-999	PAL1	0	R1297T
900.278	1.303	907519	REC_EVENT	2697	2	2	DOLL	SHELF	STREET	DOLL	6	[0, 0, 0]	-999	PAL1	0	R1297T
901.581	1.0	908822	PROBE_OFF	n/a	2	-999	n/a	n/a	n/a	n/a	6	[0, 0, 0]	-999	PAL1	0	R1297T
902.581	0.016	909822	REC_END	n/a	2	-999	n/a	n/a	n/a	n/a	6	[0, 0, 0]	-999	PAL1	0	R1297T
902.597	0.267	909838	TEST_ORIENT	n/a	1	3	STRAW	HORSE	STRAW	HORSE	6	[0, 0, 0]	-999	PAL1	0	R1297T
902.864	0.718	910105	RETRIEVAL_ORIENT_OFF	n/a	2	-999	n/a	n/a	n/a	n/a	6	[0, 0, 0]	-999	PAL1	0	R1297T
903.582	0.0	910823	REC_START	n/a	1	-999	n/a	HORSE	n/a	n/a	6	[0, 0, 0]	-999	PAL1	0	R1297T
903.582	1.203	910823	TEST_PROBE	n/a	1	3	STRAW	HORSE	STRAW	HORSE	6	[0, 0, 0]	-999	PAL1	0	R1297T
904.785	2.813	912026	REC_EVENT	1203	1	3	STRAW	HORSE	STRAW	HORSE	6	[0, 0, 0]	-999	PAL1	0	R1297T
907.598	1.0	914839	PROBE_OFF	n/a	1	-999	n/a	n/a	n/a	n/a	6	[0, 0, 0]	-999	PAL1	0	R1297T
908.598	0.017	915839	REC_END	n/a	1	-999	n/a	n/a	n/a	n/a	6	[0, 0, 0]	-999	PAL1	0	R1297T
908.615	0.267	915856	TEST_ORIENT	n/a	4	4	SPARK	ROOF	ROOF	SPARK	6	[0, 0, 0]	-999	PAL1	0	R1297T
908.882	0.534	916123	RETRIEVAL_ORIENT_OFF	n/a	1	-999	n/a	n/a	n/a	n/a	6	[0, 0, 0]	-999	PAL1	0	R1297T
909.416	0.001	916657	TEST_PROBE	n/a	4	4	SPARK	ROOF	ROOF	SPARK	6	[0, 0, 0]	-999	PAL1	0	R1297T
909.417	1.092	916658	REC_START	n/a	4	-999	n/a	ROOF	n/a	n/a	6	[0, 0, 0]	-999	PAL1	0	R1297T
910.509	2.924	917749	REC_EVENT	1092	4	4	SPARK	ROOF	ROOF	SPARK	6	[0, 0, 0]	-999	PAL1	0	R1297T
913.433	1.001	920673	PROBE_OFF	n/a	4	-999	n/a	n/a	n/a	n/a	6	[0, 0, 0]	-999	PAL1	0	R1297T
914.434	0.016	921674	REC_END	n/a	4	-999	n/a	n/a	n/a	n/a	6	[0, 0, 0]	-999	PAL1	0	R1297T
914.45	0.266	921690	TEST_ORIENT	n/a	3	5	WAVE	SKI	SKI	WAVE	6	[0, 0, 0]	-999	PAL1	0	R1297T
914.716	0.668	921956	RETRIEVAL_ORIENT_OFF	n/a	4	-999	n/a	n/a	n/a	n/a	6	[0, 0, 0]	-999	PAL1	0	R1297T
915.384	0.0	922624	REC_START	n/a	3	-999	n/a	SKI	n/a	n/a	6	[0, 0, 0]	-999	PAL1	0	R1297T
915.384	0.799	922624	TEST_PROBE	n/a	3	5	WAVE	SKI	SKI	WAVE	6	[0, 0, 0]	-999	PAL1	0	R1297T
916.183	0.595	923423	REC_EVENT	799	3	5	WAVE	<>	SKI	WAVE	6	[0, 0, 0]	-999	PAL1	0	R1297T
916.778	2.623	924018	REC_EVENT	1394	3	5	WAVE	SKI	SKI	WAVE	6	[0, 0, 0]	-999	PAL1	0	R1297T
919.401	1.001	926641	PROBE_OFF	n/a	3	-999	n/a	n/a	n/a	n/a	6	[0, 0, 0]	-999	PAL1	0	R1297T
920.402	0.016	927642	REC_END	n/a	3	-999	n/a	n/a	n/a	n/a	6	[0, 0, 0]	-999	PAL1	0	R1297T
920.418	0.266	927658	TEST_ORIENT	n/a	6	6	CAGE	WORM	WORM	CAGE	6	[0, 0, 0]	-999	PAL1	0	R1297T
920.684	0.718	927924	RETRIEVAL_ORIENT_OFF	n/a	3	-999	n/a	n/a	n/a	n/a	6	[0, 0, 0]	-999	PAL1	0	R1297T
921.402	0.0	928642	TEST_PROBE	n/a	6	6	CAGE	WORM	WORM	CAGE	6	[0, 0, 0]	-999	PAL1	0	R1297T
921.402	1.884	928642	REC_START	n/a	6	-999	n/a	WORM	n/a	n/a	6	[0, 0, 0]	-999	PAL1	0	R1297T
923.286	0.62	930526	REC_EVENT	1884	6	6	CAGE	<>	WORM	CAGE	6	[0, 0, 0]	-999	PAL1	0	R1297T
923.906	1.513	931146	REC_EVENT	2504	6	6	CAGE	WORM	WORM	CAGE	6	[0, 0, 0]	-999	PAL1	0	R1297T
925.419	1.0	932659	PROBE_OFF	n/a	6	-999	n/a	n/a	n/a	n/a	6	[0, 0, 0]	-999	PAL1	0	R1297T
926.419	0.012	933659	REC_END	n/a	6	-999	n/a	n/a	n/a	n/a	6	[0, 0, 0]	-999	PAL1	0	R1297T
926.431	5.823	933671	RECALL_END	n/a	-999	-999	n/a	n/a	n/a	n/a	6	[0, 0, 0]	-999	PAL1	0	R1297T
932.254	10.929	939493	TRIAL	n/a	-999	-999	n/a	n/a	n/a	n/a	7	[0, 0, 0]	-999	PAL1	0	R1297T
943.183	0.005	950421	ENCODING_START	n/a	-999	-999	n/a	n/a	n/a	n/a	7	[0, 0, 0]	-999	PAL1	0	R1297T
943.188	0.268	950426	STUDY_ORIENT	n/a	1	5	TRASH	CROWN	CROWN	TRASH	7	[0, 0, 0]	-999	PAL1	0	R1297T
943.456	0.665	950694	STUDY_ORIENT_OFF	n/a	1	5	TRASH	CROWN	CROWN	TRASH	7	[0, 0, 0]	-999	PAL1	0	R1297T
944.121	4.001	951359	STUDY_PAIR	n/a	1	5	TRASH	CROWN	CROWN	TRASH	7	[0, 0, 0]	-999	PAL1	0	R1297T
948.122	1.017	955360	PAIR_OFF	n/a	1	5	TRASH	CROWN	CROWN	TRASH	7	[0, 0, 0]	-999	PAL1	0	R1297T
949.139	0.268	956377	STUDY_ORIENT	n/a	2	6	FORT	PASS	RICE	FORT	7	[0, 0, 0]	-999	PAL1	0	R1297T
949.407	0.732	956645	STUDY_ORIENT_OFF	n/a	2	6	FORT	PASS	RICE	FORT	7	[0, 0, 0]	-999	PAL1	0	R1297T
950.139	4.017	957377	STUDY_PAIR	n/a	2	6	FORT	PASS	RICE	FORT	7	[0, 0, 0]	-999	PAL1	0	R1297T
954.156	1.017	961394	PAIR_OFF	n/a	2	6	FORT	PASS	RICE	FORT	7	[0, 0, 0]	-999	PAL1	0	R1297T
955.173	0.268	962411	STUDY_ORIENT	n/a	3	3	CORD	MOUTH	MOUTH	CORD	7	[0, 0, 0]	-999	PAL1	0	R1297T
955.441	0.516	962679	STUDY_ORIENT_OFF	n/a	3	3	CORD	MOUTH	MOUTH	CORD	7	[0, 0, 0]	-999	PAL1	0	R1297T
955.957	4.017	963195	STUDY_PAIR	n/a	3	3	CORD	MOUTH	MOUTH	CORD	7	[0, 0, 0]	-999	PAL1	0	R1297T
959.974	1.017	967211	PAIR_OFF	n/a	3	3	CORD	MOUTH	MOUTH	CORD	7	[0, 0, 0]	-999	PAL1	0	R1297T
960.991	0.268	968228	STUDY_ORIENT	n/a	4	2	CALF	DOCK	CALF	DOCK	7	[0, 0, 0]	-999	PAL1	0	R1297T
961.259	0.715	968496	STUDY_ORIENT_OFF	n/a	4	2	CALF	DOCK	CALF	DOCK	7	[0, 0, 0]	-999	PAL1	0	R1297T
961.974	4.018	969211	STUDY_PAIR	n/a	4	2	CALF	DOCK	CALF	DOCK	7	[0, 0, 0]	-999	PAL1	0	R1297T
965.992	1.017	973229	PAIR_OFF	n/a	4	2	CALF	DOCK	CALF	DOCK	7	[0, 0, 0]	-999	PAL1	0	R1297T
967.009	0.268	974246	STUDY_ORIENT	n/a	5	1	FISH	PASS	FISH	RIB	7	[0, 0, 0]	-999	PAL1	0	R1297T
967.277	0.749	974514	STUDY_ORIENT_OFF	n/a	5	1	FISH	PASS	FISH	RIB	7	[0, 0, 0]	-999	PAL1	0	R1297T
968.026	4.017	975263	STUDY_PAIR	n/a	5	1	FISH	PASS	FISH	RIB	7	[0, 0, 0]	-999	PAL1	0	R1297T
972.043	1.017	979280	PAIR_OFF	n/a	5	1	FISH	PASS	FISH	RIB	7	[0, 0, 0]	-999	PAL1	0	R1297T
973.06	0.251	980297	STUDY_ORIENT	n/a	6	4	WHEEL	PASS	WHEEL	TRUCK	7	[0, 0, 0]	-999	PAL1	0	R1297T
973.311	0.666	980548	STUDY_ORIENT_OFF	n/a	6	4	WHEEL	PASS	WHEEL	TRUCK	7	[0, 0, 0]	-999	PAL1	0	R1297T
973.977	4.017	981214	STUDY_PAIR	n/a	6	4	WHEEL	PASS	WHEEL	TRUCK	7	[0, 0, 0]	-999	PAL1	0	R1297T
977.994	1.001	985230	PAIR_OFF	n/a	6	4	WHEEL	PASS	WHEEL	TRUCK	7	[0, 0, 0]	-999	PAL1	0	R1297T
978.995	0.0	986231	ENCODING_END	n/a	-999	-999	n/a	n/a	n/a	n/a	7	[0, 0, 0]	-999	PAL1	0	R1297T
978.995	0.0	986231	MATH_START	n/a	-999	-999	n/a	n/a	n/a	n/a	7	[0, 0, 0]	-999	PAL1	0	R1297T
978.995	0.016	986231	START	n/a	-999	-999	n/a	n/a	n/a	n/a	7	[-999, -999, -999]	-999	PAL1	0	R1297T
979.011	9.885	986247	PROB	9853	-999	-999	n/a	n/a	n/a	n/a	7	[9, 8, 8]	25	PAL1	0	R1297T
988.896	8.218	996132	PROB	8192	-999	-999	n/a	n/a	n/a	n/a	7	[5, 9, 2]	16	PAL1	0	R1297T
997.114	3.103	1004349	PROB	3103	-999	-999	n/a	n/a	n/a	n/a	7	[8, 2, 1]	11	PAL1	0	R1297T
1000.217	0.016	1007452	STOP	n/a	-999	-999	n/a	n/a	n/a	n/a	7	[-999, -999, -999]	-999	PAL1	0	R1297T
1000.233	0.0	1007468	MATH_END	n/a	-999	-999	n/a	n/a	n/a	n/a	7	[0, 0, 0]	-999	PAL1	0	R1297T
1000.233	0.016	1007468	RECALL_START	n/a	-999	-999	n/a	n/a	n/a	n/a	7	[0, 0, 0]	-999	PAL1	0	R1297T
1000.249	0.267	1007484	TEST_ORIENT	n/a	5	1	FISH	PASS	FISH	RIB	7	[0, 0, 0]	-999	PAL1	0	R1297T
1000.516	0.615	1007751	RETRIEVAL_ORIENT_OFF	n/a	-999	-999	n/a	n/a	n/a	n/a	7	[0, 0, 0]	-999	PAL1	0	R1297T
1001.131	0.001	1008366	TEST_PROBE	n/a	5	1	FISH	PASS	FISH	RIB	7	[0, 0, 0]	-999	PAL1	0	R1297T
1001.132	3.196	1008367	REC_START	n/a	5	-999	n/a	PASS	n/a	n/a	7	[0, 0, 0]	-999	PAL1	0	R1297T
1004.328	0.821	1011563	REC_EVENT	3196	5	1	FISH	PASS	FISH	RIB	7	[0, 0, 0]	-999	PAL1	0	R1297T
1005.149	1.0	1012384	PROBE_OFF	n/a	5	-999	n/a	n/a	n/a	n/a	7	[0, 0, 0]	-999	PAL1	0	R1297T
1006.149	0.017	1013384	REC_END	n/a	5	-999	n/a	n/a	n/a	n/a	7	[0, 0, 0]	-999	PAL1	0	R1297T
1006.166	0.268	1013401	TEST_ORIENT	n/a	4	2	CALF	DOCK	CALF	DOCK	7	[0, 0, 0]	-999	PAL1	0	R1297T
1006.434	0.749	1013669	RETRIEVAL_ORIENT_OFF	n/a	5	-999	n/a	n/a	n/a	n/a	7	[0, 0, 0]	-999	PAL1	0	R1297T
1007.183	0.0	1014418	TEST_PROBE	n/a	4	2	CALF	DOCK	CALF	DOCK	7	[0, 0, 0]	-999	PAL1	0	R1297T
1007.183	1.966	1014418	REC_START	n/a	4	-999	n/a	DOCK	n/a	n/a	7	[0, 0, 0]	-999	PAL1	0	R1297T
1009.149	2.051	1016383	REC_EVENT	1966	4	2	CALF	DOCK	CALF	DOCK	7	[0, 0, 0]	-999	PAL1	0	R1297T
1011.2	1.0	1018434	PROBE_OFF	n/a	4	-999	n/a	n/a	n/a	n/a	7	[0, 0, 0]	-999	PAL1	0	R1297T
1012.2	0.018	1019434	REC_END	n/a	4	-999	n/a	n/a	n/a	n/a	7	[0, 0, 0]	-999	PAL1	0	R1297T
1012.218	0.267	1019452	TEST_ORIENT	n/a	3	3	CORD	MOUTH	MOUTH	CORD	7	[0, 0, 0]	-999	PAL1	0	R1297T
1012.485	0.549	1019719	RETRIEVAL_ORIENT_OFF	n/a	4	-999	n/a	n/a	n/a	n/a	7	[0, 0, 0]	-999	PAL1	0	R1297T
1013.034	0.001	1020268	TEST_PROBE	n/a	3	3	CORD	MOUTH	MOUTH	CORD	7	[0, 0, 0]	-999	PAL1	0	R1297T
1013.035	1.733	1020269	REC_START	n/a	3	-999	n/a	MOUTH	n/a	n/a	7	[0, 0, 0]	-999	PAL1	0	R1297T
1014.768	2.283	1022002	REC_EVENT	1733	3	3	CORD	MOUTH	MOUTH	CORD	7	[0, 0, 0]	-999	PAL1	0	R1297T
1017.051	1.0	1024285	PROBE_OFF	n/a	3	-999	n/a	n/a	n/a	n/a	7	[0, 0, 0]	-999	PAL1	0	R1297T
1018.051	0.017	1025285	REC_END	n/a	3	-999	n/a	n/a	n/a	n/a	7	[0, 0, 0]	-999	PAL1	0	R1297T
1018.068	0.268	1025302	TEST_ORIENT	n/a	6	4	WHEEL	PASS	WHEEL	TRUCK	7	[0, 0, 0]	-999	PAL1	0	R1297T
1018.336	0.582	1025570	RETRIEVAL_ORIENT_OFF	n/a	3	-999	n/a	n/a	n/a	n/a	7	[0, 0, 0]	-999	PAL1	0	R1297T
1018.918	0.001	1026152	TEST_PROBE	n/a	6	4	WHEEL	PASS	WHEEL	TRUCK	7	[0, 0, 0]	-999	PAL1	0	R1297T
1018.919	4.0	1026153	REC_START	n/a	6	-999	n/a	PASS	n/a	n/a	7	[0, 0, 0]	-999	PAL1	0	R1297T
1022.919	0.523	1030153	PROBE_OFF	n/a	6	-999	n/a	n/a	n/a	n/a	7	[0, 0, 0]	-999	PAL1	0	R1297T
1023.442	0.477	1030676	REC_EVENT	4523	6	4	WHEEL	PASS	WHEEL	TRUCK	7	[0, 0, 0]	-999	PAL1	0	R1297T
1023.919	0.017	1031153	REC_END	n/a	6	-999	n/a	n/a	n/a	n/a	7	[0, 0, 0]	-999	PAL1	0	R1297T
1023.936	0.268	1031170	TEST_ORIENT	n/a	1	5	TRASH	CROWN	CROWN	TRASH	7	[0, 0, 0]	-999	PAL1	0	R1297T
1024.204	0.649	1031438	RETRIEVAL_ORIENT_OFF	n/a	6	-999	n/a	n/a	n/a	n/a	7	[0, 0, 0]	-999	PAL1	0	R1297T
1024.853	0.0	1032086	REC_START	n/a	1	-999	n/a	CROWN	n/a	n/a	7	[0, 0, 0]	-999	PAL1	0	R1297T
1024.853	2.023	1032086	TEST_PROBE	n/a	1	5	TRASH	CROWN	CROWN	TRASH	7	[0, 0, 0]	-999	PAL1	0	R1297T
1026.876	1.994	1034109	REC_EVENT	2023	1	5	TRASH	CROWN	CROWN	TRASH	7	[0, 0, 0]	-999	PAL1	0	R1297T
1028.87	1.0	1036103	PROBE_OFF	n/a	1	-999	n/a	n/a	n/a	n/a	7	[0, 0, 0]	-999	PAL1	0	R1297T
1029.87	0.017	1037103	REC_END	n/a	1	-999	n/a	n/a	n/a	n/a	7	[0, 0, 0]	-999	PAL1	0	R1297T
1029.887	0.267	1037120	TEST_ORIENT	n/a	2	6	FORT	PASS	RICE	FORT	7	[0, 0, 0]	-999	PAL1	0	R1297T
1030.154	0.567	1037387	RETRIEVAL_ORIENT_OFF	n/a	1	-999	n/a	n/a	n/a	n/a	7	[0, 0, 0]	-999	PAL1	0	R1297T
1030.721	0.0	1037954	TEST_PROBE	n/a	2	6	FORT	PASS	RICE	FORT	7	[0, 0, 0]	-999	PAL1	0	R1297T
1030.721	1.865	1037954	REC_START	n/a	2	-999	n/a	PASS	n/a	n/a	7	[0, 0, 0]	-999	PAL1	0	R1297T
1032.586	2.152	1039819	REC_EVENT	1865	2	6	FORT	PASS	RICE	FORT	7	[0, 0, 0]	-999	PAL1	0	R1297T
1034.738	1.0	1041971	PROBE_OFF	n/a	2	-999	n/a	n/a	n/a	n/a	7	[0, 0, 0]	-999	PAL1	0	R1297T
1035.738	0.004	1042971	REC_END	n/a	2	-999	n/a	n/a	n/a	n/a	7	[0, 0, 0]	-999	PAL1	0	R1297T
1035.742	6.414	1042975	RECALL_END	n/a	-999	-999	n/a	n/a	n/a	n/a	7	[0, 0, 0]	-999	PAL1	0	R1297T
1042.156	10.929	1049388	TRIAL	n/a	-999	-999	n/a	n/a	n/a	n/a	8	[0, 0, 0]	-999	PAL1	0	R1297T
1053.085	0.006	1060317	ENCODING_START	n/a	-999	-999	n/a	n/a	n/a	n/a	8	[0, 0, 0]	-999	PAL1	0	R1297T
1053.091	0.268	1060323	STUDY_ORIENT	n/a	1	5	MOLE	PASS	KITE	MOLE	8	[0, 0, 0]	-999	PAL1	0	R1297T
1053.359	0.666	1060591	STUDY_ORIENT_OFF	n/a	1	5	MOLE	PASS	KITE	MOLE	8	[0, 0, 0]	-999	PAL1	0	R1297T
1054.025	4.017	1061257	STUDY_PAIR	n/a	1	5	MOLE	PASS	KITE	MOLE	8	[0, 0, 0]	-999	PAL1	0	R1297T
1058.042	1.017	1065273	PAIR_OFF	n/a	1	5	MOLE	PASS	KITE	MOLE	8	[0, 0, 0]	-999	PAL1	0	R1297T
1059.059	0.268	1066290	STUDY_ORIENT	n/a	2	2	NEST	PASS	NEST	SHOE	8	[0, 0, 0]	-999	PAL1	0	R1297T
1059.327	0.649	1066558	STUDY_ORIENT_OFF	n/a	2	2	NEST	PASS	NEST	SHOE	8	[0, 0, 0]	-999	PAL1	0	R1297T
1059.976	4.017	1067207	STUDY_PAIR	n/a	2	2	NEST	PASS	NEST	SHOE	8	[0, 0, 0]	-999	PAL1	0	R1297T
1063.993	1.017	1071224	PAIR_OFF	n/a	2	2	NEST	PASS	NEST	SHOE	8	[0, 0, 0]	-999	PAL1	0	R1297T
1065.01	0.268	1072241	STUDY_ORIENT	n/a	3	3	CHIEF	PASS	CHIEF	PLANE	8	[0, 0, 0]	-999	PAL1	0	R1297T
1065.278	0.699	1072509	STUDY_ORIENT_OFF	n/a	3	3	CHIEF	PASS	CHIEF	PLANE	8	[0, 0, 0]	-999	PAL1	0	R1297T
1065.977	4.017	1073208	STUDY_PAIR	n/a	3	3	CHIEF	PASS	CHIEF	PLANE	8	[0, 0, 0]	-999	PAL1	0	R1297T
1069.994	1.017	1077225	PAIR_OFF	n/a	3	3	CHIEF	PASS	CHIEF	PLANE	8	[0, 0, 0]	-999	PAL1	0	R1297T
1071.011	0.268	1078242	STUDY_ORIENT	n/a	4	6	BOAT	PASS	VINE	BOAT	8	[0, 0, 0]	-999	PAL1	0	R1297T
1071.279	0.566	1078510	STUDY_ORIENT_OFF	n/a	4	6	BOAT	PASS	VINE	BOAT	8	[0, 0, 0]	-999	PAL1	0	R1297T
1071.845	4.017	1079076	STUDY_PAIR	n/a	4	6	BOAT	PASS	VINE	BOAT	8	[0, 0, 0]	-999	PAL1	0	R1297T
1075.862	1.017	1083092	PAIR_OFF	n/a	4	6	BOAT	PASS	VINE	BOAT	8	[0, 0, 0]	-999	PAL1	0	R1297T
1076.879	0.267	1084109	STUDY_ORIENT	n/a	5	1	EAR	PASS	PIG	EAR	8	[0, 0, 0]	-999	PAL1	0	R1297T
1077.146	0.566	1084376	STUDY_ORIENT_OFF	n/a	5	1	EAR	PASS	PIG	EAR	8	[0, 0, 0]	-999	PAL1	0	R1297T
1077.712	4.018	1084942	STUDY_PAIR	n/a	5	1	EAR	PASS	PIG	EAR	8	[0, 0, 0]	-999	PAL1	0	R1297T
1081.73	1.017	1088960	PAIR_OFF	n/a	5	1	EAR	PASS	PIG	EAR	8	[0, 0, 0]	-999	PAL1	0	R1297T
1082.747	0.266	1089977	STUDY_ORIENT	n/a	6	4	BENCH	PASS	PIE	BENCH	8	[0, 0, 0]	-999	PAL1	0	R1297T
1083.013	0.75	1090243	STUDY_ORIENT_OFF	n/a	6	4	BENCH	PASS	PIE	BENCH	8	[0, 0, 0]	-999	PAL1	0	R1297T
1083.763	4.018	1090993	STUDY_PAIR	n/a	6	4	BENCH	PASS	PIE	BENCH	8	[0, 0, 0]	-999	PAL1	0	R1297T
1087.781	1.001	1095011	PAIR_OFF	n/a	6	4	BENCH	PASS	PIE	BENCH	8	[0, 0, 0]	-999	PAL1	0	R1297T
1088.782	0.0	1096012	MATH_START	n/a	-999	-999	n/a	n/a	n/a	n/a	8	[0, 0, 0]	-999	PAL1	0	R1297T
1088.782	0.0	1096012	ENCODING_END	n/a	-999	-999	n/a	n/a	n/a	n/a	8	[0, 0, 0]	-999	PAL1	0	R1297T
1088.782	0.016	1096012	START	n/a	-999	-999	n/a	n/a	n/a	n/a	8	[-999, -999, -999]	-999	PAL1	0	R1297T
1088.798	7.851	1096028	PROB	7826	-999	-999	n/a	n/a	n/a	n/a	8	[7, 8, 9]	24	PAL1	0	R1297T
1096.649	4.968	1103878	PROB	4945	-999	-999	n/a	n/a	n/a	n/a	8	[8, 4, 7]	19	PAL1	0	R1297T
1101.617	3.584	1108846	PROB	3559	-999	-999	n/a	n/a	n/a	n/a	8	[1, 9, 4]	14	PAL1	0	R1297T
1105.201	4.839	1112430	PROB	4839	-999	-999	n/a	n/a	n/a	n/a	8	[9, 4, 5]	18	PAL1	0	R1297T
1110.04	0.012	1117268	STOP	n/a	-999	-999	n/a	n/a	n/a	n/a	8	[-999, -999, -999]	-999	PAL1	0	R1297T
1110.052	0.0	1117280	MATH_END	n/a	-999	-999	n/a	n/a	n/a	n/a	8	[0, 0, 0]	-999	PAL1	0	R1297T
1110.052	0.016	1117280	RECALL_START	n/a	-999	-999	n/a	n/a	n/a	n/a	8	[0, 0, 0]	-999	PAL1	0	R1297T
1110.068	0.268	1117296	TEST_ORIENT	n/a	5	1	EAR	PASS	PIG	EAR	8	[0, 0, 0]	-999	PAL1	0	R1297T
1110.336	0.516	1117564	RETRIEVAL_ORIENT_OFF	n/a	-999	-999	n/a	n/a	n/a	n/a	8	[0, 0, 0]	-999	PAL1	0	R1297T
1110.852	0.0	1118080	TEST_PROBE	n/a	5	1	EAR	PASS	PIG	EAR	8	[0, 0, 0]	-999	PAL1	0	R1297T
1110.852	2.197	1118080	REC_START	n/a	5	-999	n/a	PASS	n/a	n/a	8	[0, 0, 0]	-999	PAL1	0	R1297T
1113.049	1.82	1120277	REC_EVENT	2197	5	1	EAR	PASS	PIG	EAR	8	[0, 0, 0]	-999	PAL1	0	R1297T
1114.869	1.0	1122097	PROBE_OFF	n/a	5	-999	n/a	n/a	n/a	n/a	8	[0, 0, 0]	-999	PAL1	0	R1297T
1115.869	0.017	1123097	REC_END	n/a	5	-999	n/a	n/a	n/a	n/a	8	[0, 0, 0]	-999	PAL1	0	R1297T
1115.886	0.267	1123114	TEST_ORIENT	n/a	2	2	NEST	PASS	NEST	SHOE	8	[0, 0, 0]	-999	PAL1	0	R1297T
1116.153	0.533	1123381	RETRIEVAL_ORIENT_OFF	n/a	5	-999	n/a	n/a	n/a	n/a	8	[0, 0, 0]	-999	PAL1	0	R1297T
1116.686	0.001	1123914	TEST_PROBE	n/a	2	2	NEST	PASS	NEST	SHOE	8	[0, 0, 0]	-999	PAL1	0	R1297T
1116.687	1.382	1123915	REC_START	n/a	2	-999	n/a	PASS	n/a	n/a	8	[0, 0, 0]	-999	PAL1	0	R1297T
1118.069	2.635	1125297	REC_EVENT	1382	2	2	NEST	PASS	NEST	SHOE	8	[0, 0, 0]	-999	PAL1	0	R1297T
1120.704	1.012	1127932	PROBE_OFF	n/a	2	-999	n/a	n/a	n/a	n/a	8	[0, 0, 0]	-999	PAL1	0	R1297T
1121.716	0.021	1128944	REC_END	n/a	2	-999	n/a	n/a	n/a	n/a	8	[0, 0, 0]	-999	PAL1	0	R1297T
1121.737	0.267	1128965	TEST_ORIENT	n/a	3	3	CHIEF	PASS	CHIEF	PLANE	8	[0, 0, 0]	-999	PAL1	0	R1297T
1122.004	0.716	1129232	RETRIEVAL_ORIENT_OFF	n/a	2	-999	n/a	n/a	n/a	n/a	8	[0, 0, 0]	-999	PAL1	0	R1297T
1122.72	0.001	1129947	TEST_PROBE	n/a	3	3	CHIEF	PASS	CHIEF	PLANE	8	[0, 0, 0]	-999	PAL1	0	R1297T
1122.721	2.02	1129948	REC_START	n/a	3	-999	n/a	PASS	n/a	n/a	8	[0, 0, 0]	-999	PAL1	0	R1297T
1124.741	1.997	1131968	REC_EVENT	2020	3	3	CHIEF	PASS	CHIEF	PLANE	8	[0, 0, 0]	-999	PAL1	0	R1297T
1126.738	1.012	1133965	PROBE_OFF	n/a	3	-999	n/a	n/a	n/a	n/a	8	[0, 0, 0]	-999	PAL1	0	R1297T
1127.75	0.021	1134977	REC_END	n/a	3	-999	n/a	n/a	n/a	n/a	8	[0, 0, 0]	-999	PAL1	0	R1297T
1127.771	0.267	1134998	TEST_ORIENT	n/a	6	4	BENCH	PASS	PIE	BENCH	8	[0, 0, 0]	-999	PAL1	0	R1297T
1128.038	0.717	1135265	RETRIEVAL_ORIENT_OFF	n/a	3	-999	n/a	n/a	n/a	n/a	8	[0, 0, 0]	-999	PAL1	0	R1297T
1128.755	0.001	1135982	TEST_PROBE	n/a	6	4	BENCH	PASS	PIE	BENCH	8	[0, 0, 0]	-999	PAL1	0	R1297T
1128.756	1.516	1135983	REC_START	n/a	6	-999	n/a	PASS	n/a	n/a	8	[0, 0, 0]	-999	PAL1	0	R1297T
1130.272	2.5	1137499	REC_EVENT	1516	6	4	BENCH	PASS	PIE	BENCH	8	[0, 0, 0]	-999	PAL1	0	R1297T
1132.772	1.0	1139999	PROBE_OFF	n/a	6	-999	n/a	n/a	n/a	n/a	8	[0, 0, 0]	-999	PAL1	0	R1297T
1133.772	0.017	1140999	REC_END	n/a	6	-999	n/a	n/a	n/a	n/a	8	[0, 0, 0]	-999	PAL1	0	R1297T
1133.789	0.267	1141016	TEST_ORIENT	n/a	1	5	MOLE	PASS	KITE	MOLE	8	[0, 0, 0]	-999	PAL1	0	R1297T
1134.056	0.567	1141283	RETRIEVAL_ORIENT_OFF	n/a	6	-999	n/a	n/a	n/a	n/a	8	[0, 0, 0]	-999	PAL1	0	R1297T
1134.623	0.0	1141850	TEST_PROBE	n/a	1	5	MOLE	PASS	KITE	MOLE	8	[0, 0, 0]	-999	PAL1	0	R1297T
1134.623	3.499	1141850	REC_START	n/a	1	-999	n/a	PASS	n/a	n/a	8	[0, 0, 0]	-999	PAL1	0	R1297T
1138.122	0.518	1145349	REC_EVENT	3499	1	5	MOLE	PASS	KITE	MOLE	8	[0, 0, 0]	-999	PAL1	0	R1297T
1138.64	1.0	1145866	PROBE_OFF	n/a	1	-999	n/a	n/a	n/a	n/a	8	[0, 0, 0]	-999	PAL1	0	R1297T
1139.64	0.017	1146866	REC_END	n/a	1	-999	n/a	n/a	n/a	n/a	8	[0, 0, 0]	-999	PAL1	0	R1297T
1139.657	0.267	1146883	TEST_ORIENT	n/a	4	6	BOAT	PASS	VINE	BOAT	8	[0, 0, 0]	-999	PAL1	0	R1297T
1139.924	0.601	1147150	RETRIEVAL_ORIENT_OFF	n/a	1	-999	n/a	n/a	n/a	n/a	8	[0, 0, 0]	-999	PAL1	0	R1297T
1140.525	0.0	1147751	TEST_PROBE	n/a	4	6	BOAT	PASS	VINE	BOAT	8	[0, 0, 0]	-999	PAL1	0	R1297T
1140.525	2.428	1147751	REC_START	n/a	4	-999	n/a	PASS	n/a	n/a	8	[0, 0, 0]	-999	PAL1	0	R1297T
1142.953	1.589	1150179	REC_EVENT	2428	4	6	BOAT	PASS	VINE	BOAT	8	[0, 0, 0]	-999	PAL1	0	R1297T
1144.542	1.001	1151768	PROBE_OFF	n/a	4	-999	n/a	n/a	n/a	n/a	8	[0, 0, 0]	-999	PAL1	0	R1297T
1145.543	0.012	1152769	REC_END	n/a	4	-999	n/a	n/a	n/a	n/a	8	[0, 0, 0]	-999	PAL1	0	R1297T
1145.555	16.74	1152781	RECALL_END	n/a	-999	-999	n/a	n/a	n/a	n/a	8	[0, 0, 0]	-999	PAL1	0	R1297T
1162.295	10.929	1169520	TRIAL	n/a	-999	-999	n/a	n/a	n/a	n/a	9	[0, 0, 0]	-999	PAL1	0	R1297T
1173.224	0.007	1180448	ENCODING_START	n/a	-999	-999	n/a	n/a	n/a	n/a	9	[0, 0, 0]	-999	PAL1	0	R1297T
1173.231	0.266	1180455	STUDY_ORIENT	n/a	1	3	YARD	FARM	PEN	YARD	9	[0, 0, 0]	-999	PAL1	0	R1297T
1173.497	0.751	1180721	STUDY_ORIENT_OFF	n/a	1	3	YARD	FARM	PEN	YARD	9	[0, 0, 0]	-999	PAL1	0	R1297T
1174.248	4.017	1181472	STUDY_PAIR	n/a	1	3	YARD	FARM	PEN	YARD	9	[0, 0, 0]	-999	PAL1	0	R1297T
1178.265	1.017	1185489	PAIR_OFF	n/a	1	3	YARD	FARM	PEN	YARD	9	[0, 0, 0]	-999	PAL1	0	R1297T
1179.282	0.267	1186506	STUDY_ORIENT	n/a	2	4	ZOO	NET	ZOO	NET	9	[0, 0, 0]	-999	PAL1	0	R1297T
1179.549	0.733	1186773	STUDY_ORIENT_OFF	n/a	2	4	ZOO	NET	ZOO	NET	9	[0, 0, 0]	-999	PAL1	0	R1297T
1180.282	4.017	1187506	STUDY_PAIR	n/a	2	4	ZOO	NET	ZOO	NET	9	[0, 0, 0]	-999	PAL1	0	R1297T
1184.299	1.017	1191523	PAIR_OFF	n/a	2	4	ZOO	NET	ZOO	NET	9	[0, 0, 0]	-999	PAL1	0	R1297T
1185.316	0.267	1192540	STUDY_ORIENT	n/a	3	5	POOL	FENCE	POOL	FENCE	9	[0, 0, 0]	-999	PAL1	0	R1297T
1185.583	0.733	1192807	STUDY_ORIENT_OFF	n/a	3	5	POOL	FENCE	POOL	FENCE	9	[0, 0, 0]	-999	PAL1	0	R1297T
1186.316	4.018	1193540	STUDY_PAIR	n/a	3	5	POOL	FENCE	POOL	FENCE	9	[0, 0, 0]	-999	PAL1	0	R1297T
1190.334	1.017	1197557	PAIR_OFF	n/a	3	5	POOL	FENCE	POOL	FENCE	9	[0, 0, 0]	-999	PAL1	0	R1297T
1191.351	0.265	1198574	STUDY_ORIENT	n/a	4	6	HOSE	PASS	HOSE	ROPE	9	[0, 0, 0]	-999	PAL1	0	R1297T
1191.616	0.752	1198839	STUDY_ORIENT_OFF	n/a	4	6	HOSE	PASS	HOSE	ROPE	9	[0, 0, 0]	-999	PAL1	0	R1297T
1192.368	4.017	1199591	STUDY_PAIR	n/a	4	6	HOSE	PASS	HOSE	ROPE	9	[0, 0, 0]	-999	PAL1	0	R1297T
1196.385	1.017	1203608	PAIR_OFF	n/a	4	6	HOSE	PASS	HOSE	ROPE	9	[0, 0, 0]	-999	PAL1	0	R1297T
1197.402	0.266	1204625	STUDY_ORIENT	n/a	5	1	DART	WOOD	DART	WOOD	9	[0, 0, 0]	-999	PAL1	0	R1297T
1197.668	0.734	1204891	STUDY_ORIENT_OFF	n/a	5	1	DART	WOOD	DART	WOOD	9	[0, 0, 0]	-999	PAL1	0	R1297T
1198.402	4.017	1205625	STUDY_PAIR	n/a	5	1	DART	WOOD	DART	WOOD	9	[0, 0, 0]	-999	PAL1	0	R1297T
1202.419	1.017	1209642	PAIR_OFF	n/a	5	1	DART	WOOD	DART	WOOD	9	[0, 0, 0]	-999	PAL1	0	R1297T
1203.436	0.266	1210659	STUDY_ORIENT	n/a	6	2	CORN	YARD	CORN	LAWN	9	[0, 0, 0]	-999	PAL1	0	R1297T
1203.702	0.601	1210924	STUDY_ORIENT_OFF	n/a	6	2	CORN	YARD	CORN	LAWN	9	[0, 0, 0]	-999	PAL1	0	R1297T
1204.303	4.018	1211525	STUDY_PAIR	n/a	6	2	CORN	YARD	CORN	LAWN	9	[0, 0, 0]	-999	PAL1	0	R1297T
1208.321	1.001	1215543	PAIR_OFF	n/a	6	2	CORN	YARD	CORN	LAWN	9	[0, 0, 0]	-999	PAL1	0	R1297T
1209.322	0.0	1216544	ENCODING_END	n/a	-999	-999	n/a	n/a	n/a	n/a	9	[0, 0, 0]	-999	PAL1	0	R1297T
1209.322	0.0	1216544	MATH_START	n/a	-999	-999	n/a	n/a	n/a	n/a	9	[0, 0, 0]	-999	PAL1	0	R1297T
1209.322	0.015	1216544	START	n/a	-999	-999	n/a	n/a	n/a	n/a	9	[-999, -999, -999]	-999	PAL1	0	R1297T
1209.337	9.985	1216559	PROB	9952	-999	-999	n/a	n/a	n/a	n/a	9	[5, 6, 3]	14	PAL1	0	R1297T
1219.322	9.002	1226544	PROB	8975	-999	-999	n/a	n/a	n/a	n/a	9	[4, 9, 2]	15	PAL1	0	R1297T
1228.324	2.941	1235545	PROB	2941	-999	-999	n/a	n/a	n/a	n/a	9	[8, 2, 2]	12	PAL1	0	R1297T
1231.265	0.01	1238486	STOP	n/a	-999	-999	n/a	n/a	n/a	n/a	9	[-999, -999, -999]	-999	PAL1	0	R1297T
1231.275	0.0	1238496	MATH_END	n/a	-999	-999	n/a	n/a	n/a	n/a	9	[0, 0, 0]	-999	PAL1	0	R1297T
1231.275	0.016	1238496	RECALL_START	n/a	-999	-999	n/a	n/a	n/a	n/a	9	[0, 0, 0]	-999	PAL1	0	R1297T
1231.291	0.267	1238512	TEST_ORIENT	n/a	5	1	DART	WOOD	DART	WOOD	9	[0, 0, 0]	-999	PAL1	0	R1297T
1231.558	0.566	1238779	RETRIEVAL_ORIENT_OFF	n/a	-999	-999	n/a	n/a	n/a	n/a	9	[0, 0, 0]	-999	PAL1	0	R1297T
1232.124	0.0	1239345	TEST_PROBE	n/a	5	1	DART	WOOD	DART	WOOD	9	[0, 0, 0]	-999	PAL1	0	R1297T
1232.124	1.3	1239345	REC_START	n/a	5	-999	n/a	WOOD	n/a	n/a	9	[0, 0, 0]	-999	PAL1	0	R1297T
1233.424	2.717	1240645	REC_EVENT	1300	5	1	DART	WOOD	DART	WOOD	9	[0, 0, 0]	-999	PAL1	0	R1297T
1236.141	1.0	1243361	PROBE_OFF	n/a	5	-999	n/a	n/a	n/a	n/a	9	[0, 0, 0]	-999	PAL1	0	R1297T
1237.141	0.017	1244361	REC_END	n/a	5	-999	n/a	n/a	n/a	n/a	9	[0, 0, 0]	-999	PAL1	0	R1297T
1237.158	0.251	1244378	TEST_ORIENT	n/a	6	2	CORN	YARD	CORN	LAWN	9	[0, 0, 0]	-999	PAL1	0	R1297T
1237.409	0.599	1244629	RETRIEVAL_ORIENT_OFF	n/a	5	-999	n/a	n/a	n/a	n/a	9	[0, 0, 0]	-999	PAL1	0	R1297T
1238.008	0.001	1245228	TEST_PROBE	n/a	6	2	CORN	YARD	CORN	LAWN	9	[0, 0, 0]	-999	PAL1	0	R1297T
1238.009	1.247	1245229	REC_START	n/a	6	-999	n/a	YARD	n/a	n/a	9	[0, 0, 0]	-999	PAL1	0	R1297T
1239.256	2.77	1246476	REC_EVENT	1247	6	2	CORN	YARD	CORN	LAWN	9	[0, 0, 0]	-999	PAL1	0	R1297T
1242.026	1.013	1249246	PROBE_OFF	n/a	6	-999	n/a	n/a	n/a	n/a	9	[0, 0, 0]	-999	PAL1	0	R1297T
1243.039	0.02	1250259	REC_END	n/a	6	-999	n/a	n/a	n/a	n/a	9	[0, 0, 0]	-999	PAL1	0	R1297T
1243.059	0.268	1250279	TEST_ORIENT	n/a	1	3	YARD	FARM	PEN	YARD	9	[0, 0, 0]	-999	PAL1	0	R1297T
1243.327	0.516	1250547	RETRIEVAL_ORIENT_OFF	n/a	6	-999	n/a	n/a	n/a	n/a	9	[0, 0, 0]	-999	PAL1	0	R1297T
1243.843	0.0	1251063	TEST_PROBE	n/a	1	3	YARD	FARM	PEN	YARD	9	[0, 0, 0]	-999	PAL1	0	R1297T
1243.843	1.755	1251063	REC_START	n/a	1	-999	n/a	FARM	n/a	n/a	9	[0, 0, 0]	-999	PAL1	0	R1297T
1245.598	2.02	1252818	REC_EVENT	1755	1	3	YARD	<>	PEN	YARD	9	[0, 0, 0]	-999	PAL1	0	R1297T
1247.618	0.242	1254838	REC_EVENT	3775	1	3	YARD	FARM	PEN	YARD	9	[0, 0, 0]	-999	PAL1	0	R1297T
1247.86	1.0	1255080	PROBE_OFF	n/a	1	-999	n/a	n/a	n/a	n/a	9	[0, 0, 0]	-999	PAL1	0	R1297T
1248.86	0.017	1256080	REC_END	n/a	1	-999	n/a	n/a	n/a	n/a	9	[0, 0, 0]	-999	PAL1	0	R1297T
1248.877	0.267	1256097	TEST_ORIENT	n/a	2	4	ZOO	NET	ZOO	NET	9	[0, 0, 0]	-999	PAL1	0	R1297T
1249.144	0.516	1256364	RETRIEVAL_ORIENT_OFF	n/a	1	-999	n/a	n/a	n/a	n/a	9	[0, 0, 0]	-999	PAL1	0	R1297T
1249.66	0.001	1256880	TEST_PROBE	n/a	2	4	ZOO	NET	ZOO	NET	9	[0, 0, 0]	-999	PAL1	0	R1297T
1249.661	1.329	1256881	REC_START	n/a	2	-999	n/a	NET	n/a	n/a	9	[0, 0, 0]	-999	PAL1	0	R1297T
1250.99	2.688	1258210	REC_EVENT	1329	2	4	ZOO	NET	ZOO	NET	9	[0, 0, 0]	-999	PAL1	0	R1297T
1253.678	1.012	1260897	PROBE_OFF	n/a	2	-999	n/a	n/a	n/a	n/a	9	[0, 0, 0]	-999	PAL1	0	R1297T
1254.69	0.021	1261909	REC_END	n/a	2	-999	n/a	n/a	n/a	n/a	9	[0, 0, 0]	-999	PAL1	0	R1297T
1254.711	0.267	1261930	TEST_ORIENT	n/a	3	5	POOL	FENCE	POOL	FENCE	9	[0, 0, 0]	-999	PAL1	0	R1297T
1254.978	0.518	1262197	RETRIEVAL_ORIENT_OFF	n/a	2	-999	n/a	n/a	n/a	n/a	9	[0, 0, 0]	-999	PAL1	0	R1297T
1255.496	0.0	1262715	TEST_PROBE	n/a	3	5	POOL	FENCE	POOL	FENCE	9	[0, 0, 0]	-999	PAL1	0	R1297T
1255.496	0.882	1262715	REC_START	n/a	3	-999	n/a	FENCE	n/a	n/a	9	[0, 0, 0]	-999	PAL1	0	R1297T
1256.378	3.135	1263597	REC_EVENT	882	3	5	POOL	FENCE	POOL	FENCE	9	[0, 0, 0]	-999	PAL1	0	R1297T
1259.513	1.0	1266732	PROBE_OFF	n/a	3	-999	n/a	n/a	n/a	n/a	9	[0, 0, 0]	-999	PAL1	0	R1297T
1260.513	0.017	1267732	REC_END	n/a	3	-999	n/a	n/a	n/a	n/a	9	[0, 0, 0]	-999	PAL1	0	R1297T
1260.53	0.266	1267749	TEST_ORIENT	n/a	4	6	HOSE	PASS	HOSE	ROPE	9	[0, 0, 0]	-999	PAL1	0	R1297T
1260.796	0.734	1268015	RETRIEVAL_ORIENT_OFF	n/a	3	-999	n/a	n/a	n/a	n/a	9	[0, 0, 0]	-999	PAL1	0	R1297T
1261.53	0.001	1268749	TEST_PROBE	n/a	4	6	HOSE	PASS	HOSE	ROPE	9	[0, 0, 0]	-999	PAL1	0	R1297T
1261.531	2.715	1268750	REC_START	n/a	4	-999	n/a	PASS	n/a	n/a	9	[0, 0, 0]	-999	PAL1	0	R1297T
1264.246	1.302	1271465	REC_EVENT	2715	4	6	HOSE	PASS	HOSE	ROPE	9	[0, 0, 0]	-999	PAL1	0	R1297T
1265.548	1.0	1272767	PROBE_OFF	n/a	4	-999	n/a	n/a	n/a	n/a	9	[0, 0, 0]	-999	PAL1	0	R1297T
1266.548	0.012	1273767	REC_END	n/a	4	-999	n/a	n/a	n/a	n/a	9	[0, 0, 0]	-999	PAL1	0	R1297T
1266.56	10.389	1273779	RECALL_END	n/a	-999	-999	n/a	n/a	n/a	n/a	9	[0, 0, 0]	-999	PAL1	0	R1297T
1276.949	10.929	1284167	TRIAL	n/a	-999	-999	n/a	n/a	n/a	n/a	10	[0, 0, 0]	-999	PAL1	0	R1297T
1287.878	0.006	1295095	ENCODING_START	n/a	-999	-999	n/a	n/a	n/a	n/a	10	[0, 0, 0]	-999	PAL1	0	R1297T
1287.884	0.267	1295101	STUDY_ORIENT	n/a	1	3	JUDGE	SPRING	SPRING	JUDGE	10	[0, 0, 0]	-999	PAL1	0	R1297T
1288.151	0.633	1295368	STUDY_ORIENT_OFF	n/a	1	3	JUDGE	SPRING	SPRING	JUDGE	10	[0, 0, 0]	-999	PAL1	0	R1297T
1288.784	4.017	1296001	STUDY_PAIR	n/a	1	3	JUDGE	SPRING	SPRING	JUDGE	10	[0, 0, 0]	-999	PAL1	0	R1297T
1292.801	1.017	1300018	PAIR_OFF	n/a	1	3	JUDGE	SPRING	SPRING	JUDGE	10	[0, 0, 0]	-999	PAL1	0	R1297T
1293.818	0.267	1301035	STUDY_ORIENT	n/a	2	6	BOMB	PASS	BOMB	DUCK	10	[0, 0, 0]	-999	PAL1	0	R1297T
1294.085	0.717	1301302	STUDY_ORIENT_OFF	n/a	2	6	BOMB	PASS	BOMB	DUCK	10	[0, 0, 0]	-999	PAL1	0	R1297T
1294.802	4.017	1302019	STUDY_PAIR	n/a	2	6	BOMB	PASS	BOMB	DUCK	10	[0, 0, 0]	-999	PAL1	0	R1297T
1298.819	1.017	1306036	PAIR_OFF	n/a	2	6	BOMB	PASS	BOMB	DUCK	10	[0, 0, 0]	-999	PAL1	0	R1297T
1299.836	0.267	1307053	STUDY_ORIENT	n/a	3	5	BEACH	WEED	WEED	BEACH	10	[0, 0, 0]	-999	PAL1	0	R1297T
1300.103	0.717	1307320	STUDY_ORIENT_OFF	n/a	3	5	BEACH	WEED	WEED	BEACH	10	[0, 0, 0]	-999	PAL1	0	R1297T
1300.82	4.017	1308037	STUDY_PAIR	n/a	3	5	BEACH	WEED	WEED	BEACH	10	[0, 0, 0]	-999	PAL1	0	R1297T
1304.837	1.017	1312053	PAIR_OFF	n/a	3	5	BEACH	WEED	WEED	BEACH	10	[0, 0, 0]	-999	PAL1	0	R1297T
1305.854	0.267	1313070	STUDY_ORIENT	n/a	4	2	MAT	HAND	MAT	HAND	10	[0, 0, 0]	-999	PAL1	0	R1297T
1306.121	0.583	1313337	STUDY_ORIENT_OFF	n/a	4	2	MAT	HAND	MAT	HAND	10	[0, 0, 0]	-999	PAL1	0	R1297T
1306.704	4.017	1313920	STUDY_PAIR	n/a	4	2	MAT	HAND	MAT	HAND	10	[0, 0, 0]	-999	PAL1	0	R1297T
1310.721	1.017	1317937	PAIR_OFF	n/a	4	2	MAT	HAND	MAT	HAND	10	[0, 0, 0]	-999	PAL1	0	R1297T
1311.738	0.267	1318954	STUDY_ORIENT	n/a	5	1	PEAR	PASS	PEAR	EEL	10	[0, 0, 0]	-999	PAL1	0	R1297T
1312.005	0.733	1319221	STUDY_ORIENT_OFF	n/a	5	1	PEAR	PASS	PEAR	EEL	10	[0, 0, 0]	-999	PAL1	0	R1297T
1312.738	4.018	1319954	STUDY_PAIR	n/a	5	1	PEAR	PASS	PEAR	EEL	10	[0, 0, 0]	-999	PAL1	0	R1297T
1316.756	1.017	1323972	PAIR_OFF	n/a	5	1	PEAR	PASS	PEAR	EEL	10	[0, 0, 0]	-999	PAL1	0	R1297T
1317.773	0.266	1324988	STUDY_ORIENT	n/a	6	4	COUCH	STORE	COUCH	STORE	10	[0, 0, 0]	-999	PAL1	0	R1297T
1318.039	0.634	1325254	STUDY_ORIENT_OFF	n/a	6	4	COUCH	STORE	COUCH	STORE	10	[0, 0, 0]	-999	PAL1	0	R1297T
1318.673	4.017	1325888	STUDY_PAIR	n/a	6	4	COUCH	STORE	COUCH	STORE	10	[0, 0, 0]	-999	PAL1	0	R1297T
1322.69	1.0	1329905	PAIR_OFF	n/a	6	4	COUCH	STORE	COUCH	STORE	10	[0, 0, 0]	-999	PAL1	0	R1297T
1323.69	0.0	1330905	ENCODING_END	n/a	-999	-999	n/a	n/a	n/a	n/a	10	[0, 0, 0]	-999	PAL1	0	R1297T
1323.69	0.001	1330905	MATH_START	n/a	-999	-999	n/a	n/a	n/a	n/a	10	[0, 0, 0]	-999	PAL1	0	R1297T
1323.691	0.016	1330906	START	n/a	-999	-999	n/a	n/a	n/a	n/a	10	[-999, -999, -999]	-999	PAL1	0	R1297T
1323.707	5.685	1330922	PROB	5663	-999	-999	n/a	n/a	n/a	n/a	10	[2, 8, 8]	18	PAL1	0	R1297T
1329.392	7.351	1336607	PROB	7328	-999	-999	n/a	n/a	n/a	n/a	10	[6, 1, 5]	12	PAL1	0	R1297T
1336.743	11.449	1343957	PROB	11449	-999	-999	n/a	n/a	n/a	n/a	10	[2, 5, 4]	11	PAL1	0	R1297T
1348.192	0.021	1355406	STOP	n/a	-999	-999	n/a	n/a	n/a	n/a	10	[-999, -999, -999]	-999	PAL1	0	R1297T
1348.213	0.0	1355427	MATH_END	n/a	-999	-999	n/a	n/a	n/a	n/a	10	[0, 0, 0]	-999	PAL1	0	R1297T
1348.213	0.016	1355427	RECALL_START	n/a	-999	-999	n/a	n/a	n/a	n/a	10	[0, 0, 0]	-999	PAL1	0	R1297T
1348.229	0.267	1355443	TEST_ORIENT	n/a	5	1	PEAR	PASS	PEAR	EEL	10	[0, 0, 0]	-999	PAL1	0	R1297T
1348.496	0.549	1355710	RETRIEVAL_ORIENT_OFF	n/a	-999	-999	n/a	n/a	n/a	n/a	10	[0, 0, 0]	-999	PAL1	0	R1297T
1349.045	0.001	1356259	TEST_PROBE	n/a	5	1	PEAR	PASS	PEAR	EEL	10	[0, 0, 0]	-999	PAL1	0	R1297T
1349.046	2.221	1356260	REC_START	n/a	5	-999	n/a	PASS	n/a	n/a	10	[0, 0, 0]	-999	PAL1	0	R1297T
1351.267	1.795	1358480	REC_EVENT	2221	5	1	PEAR	PASS	PEAR	EEL	10	[0, 0, 0]	-999	PAL1	0	R1297T
1353.062	1.0	1360275	PROBE_OFF	n/a	5	-999	n/a	n/a	n/a	n/a	10	[0, 0, 0]	-999	PAL1	0	R1297T
1354.062	0.017	1361275	REC_END	n/a	5	-999	n/a	n/a	n/a	n/a	10	[0, 0, 0]	-999	PAL1	0	R1297T
1354.079	0.268	1361292	TEST_ORIENT	n/a	4	2	MAT	HAND	MAT	HAND	10	[0, 0, 0]	-999	PAL1	0	R1297T
1354.347	0.683	1361560	RETRIEVAL_ORIENT_OFF	n/a	5	-999	n/a	n/a	n/a	n/a	10	[0, 0, 0]	-999	PAL1	0	R1297T
1355.03	0.0	1362243	TEST_PROBE	n/a	4	2	MAT	HAND	MAT	HAND	10	[0, 0, 0]	-999	PAL1	0	R1297T
1355.03	2.976	1362243	REC_START	n/a	4	-999	n/a	HAND	n/a	n/a	10	[0, 0, 0]	-999	PAL1	0	R1297T
1358.006	1.041	1365219	REC_EVENT	2976	4	2	MAT	HAND	MAT	HAND	10	[0, 0, 0]	-999	PAL1	0	R1297T
1359.047	1.0	1366260	PROBE_OFF	n/a	4	-999	n/a	n/a	n/a	n/a	10	[0, 0, 0]	-999	PAL1	0	R1297T
1360.047	0.017	1367260	REC_END	n/a	4	-999	n/a	n/a	n/a	n/a	10	[0, 0, 0]	-999	PAL1	0	R1297T
1360.064	0.267	1367277	TEST_ORIENT	n/a	1	3	JUDGE	SPRING	SPRING	JUDGE	10	[0, 0, 0]	-999	PAL1	0	R1297T
1360.331	0.533	1367544	RETRIEVAL_ORIENT_OFF	n/a	4	-999	n/a	n/a	n/a	n/a	10	[0, 0, 0]	-999	PAL1	0	R1297T
1360.864	0.0	1368077	REC_START	n/a	1	-999	n/a	SPRING	n/a	n/a	10	[0, 0, 0]	-999	PAL1	0	R1297T
1360.864	1.599	1368077	TEST_PROBE	n/a	1	3	JUDGE	SPRING	SPRING	JUDGE	10	[0, 0, 0]	-999	PAL1	0	R1297T
1362.463	2.418	1369676	REC_EVENT	1599	1	3	JUDGE	SPRING	SPRING	JUDGE	10	[0, 0, 0]	-999	PAL1	0	R1297T
1364.881	1.001	1372094	PROBE_OFF	n/a	1	-999	n/a	n/a	n/a	n/a	10	[0, 0, 0]	-999	PAL1	0	R1297T
1365.882	0.016	1373095	REC_END	n/a	1	-999	n/a	n/a	n/a	n/a	10	[0, 0, 0]	-999	PAL1	0	R1297T
1365.898	0.267	1373111	TEST_ORIENT	n/a	6	4	COUCH	STORE	COUCH	STORE	10	[0, 0, 0]	-999	PAL1	0	R1297T
1366.165	0.716	1373378	RETRIEVAL_ORIENT_OFF	n/a	1	-999	n/a	n/a	n/a	n/a	10	[0, 0, 0]	-999	PAL1	0	R1297T
1366.881	0.001	1374093	TEST_PROBE	n/a	6	4	COUCH	STORE	COUCH	STORE	10	[0, 0, 0]	-999	PAL1	0	R1297T
1366.882	1.311	1374094	REC_START	n/a	6	-999	n/a	STORE	n/a	n/a	10	[0, 0, 0]	-999	PAL1	0	R1297T
1368.193	2.706	1375405	REC_EVENT	1311	6	4	COUCH	STORE	COUCH	STORE	10	[0, 0, 0]	-999	PAL1	0	R1297T
1370.899	1.0	1378111	PROBE_OFF	n/a	6	-999	n/a	n/a	n/a	n/a	10	[0, 0, 0]	-999	PAL1	0	R1297T
1371.899	0.017	1379111	REC_END	n/a	6	-999	n/a	n/a	n/a	n/a	10	[0, 0, 0]	-999	PAL1	0	R1297T
1371.916	0.267	1379128	TEST_ORIENT	n/a	3	5	BEACH	WEED	WEED	BEACH	10	[0, 0, 0]	-999	PAL1	0	R1297T
1372.183	0.566	1379395	RETRIEVAL_ORIENT_OFF	n/a	6	-999	n/a	n/a	n/a	n/a	10	[0, 0, 0]	-999	PAL1	0	R1297T
1372.749	0.001	1379961	TEST_PROBE	n/a	3	5	BEACH	WEED	WEED	BEACH	10	[0, 0, 0]	-999	PAL1	0	R1297T
1372.75	1.676	1379962	REC_START	n/a	3	-999	n/a	WEED	n/a	n/a	10	[0, 0, 0]	-999	PAL1	0	R1297T
1374.426	2.341	1381638	REC_EVENT	1676	3	5	BEACH	WEED	WEED	BEACH	10	[0, 0, 0]	-999	PAL1	0	R1297T
1376.767	1.014	1383979	PROBE_OFF	n/a	3	-999	n/a	n/a	n/a	n/a	10	[0, 0, 0]	-999	PAL1	0	R1297T
1377.781	0.019	1384993	REC_END	n/a	3	-999	n/a	n/a	n/a	n/a	10	[0, 0, 0]	-999	PAL1	0	R1297T
1377.8	0.267	1385012	TEST_ORIENT	n/a	2	6	BOMB	PASS	BOMB	DUCK	10	[0, 0, 0]	-999	PAL1	0	R1297T
1378.067	0.518	1385279	RETRIEVAL_ORIENT_OFF	n/a	3	-999	n/a	n/a	n/a	n/a	10	[0, 0, 0]	-999	PAL1	0	R1297T
1378.585	0.0	1385797	TEST_PROBE	n/a	2	6	BOMB	PASS	BOMB	DUCK	10	[0, 0, 0]	-999	PAL1	0	R1297T
1378.585	1.522	1385797	REC_START	n/a	2	-999	n/a	PASS	n/a	n/a	10	[0, 0, 0]	-999	PAL1	0	R1297T
1380.107	2.494	1387319	REC_EVENT	1522	2	6	BOMB	PASS	BOMB	DUCK	10	[0, 0, 0]	-999	PAL1	0	R1297T
1382.601	1.0	1389813	PROBE_OFF	n/a	2	-999	n/a	n/a	n/a	n/a	10	[0, 0, 0]	-999	PAL1	0	R1297T
1383.601	0.007	1390812	REC_END	n/a	2	-999	n/a	n/a	n/a	n/a	10	[0, 0, 0]	-999	PAL1	0	R1297T
1383.608	0.0	1390819	RECALL_END	n/a	-999	-999	n/a	n/a	n/a	n/a	10	[0, 0, 0]	-999	PAL1	0	R1297T
