onset	duration	sample	trial_type	response_time	stim_file	serialpos	probepos	probe_word	resp_word	study_1	study_2	list	test	answer	experiment	session	subject
0.0	0.0	9385	INSTRUCT_VIDEO_ON	n/a	n/a	-999	-999	n/a	n/a	n/a	n/a	-999	[0, 0, 0]	-999	PAL1	1	R1297T
0.0	5.576	9385	INSTRUCT_VIDEO_OFF	n/a	n/a	-999	-999	n/a	n/a	n/a	n/a	-999	[0, 0, 0]	-999	PAL1	1	R1297T
5.576	0.0	14961	SESS_START	n/a	n/a	-999	-999	n/a	n/a	n/a	n/a	-999	[0, 0, 0]	-999	PAL1	1	R1297T
5.576	18.0	14961	MIC_TEST	n/a	n/a	-999	-999	n/a	n/a	n/a	n/a	-999	[0, 0, 0]	-999	PAL1	1	R1297T
23.576	16.477	32960	PRACTICE_TRIAL	n/a	n/a	-999	-999	n/a	n/a	n/a	n/a	-1	[0, 0, 0]	-999	PAL1	1	R1297T
40.053	0.004	49436	ENCODING_START	n/a	n/a	-999	-999	n/a	n/a	n/a	n/a	-1	[0, 0, 0]	-999	PAL1	1	R1297T
40.057	0.266	49440	PRACTICE_ORIENT	n/a	n/a	1	1	CHEST	n/a	CHEST	WATCH	-1	[0, 0, 0]	-999	PAL1	1	R1297T
40.323	0.684	49706	PRACTICE_ORIENT_OFF	n/a	n/a	1	1	CHEST	n/a	CHEST	WATCH	-1	[0, 0, 0]	-999	PAL1	1	R1297T
41.007	4.018	50390	PRACTICE_PAIR	n/a	n/a	1	1	CHEST	n/a	CHEST	WATCH	-1	[0, 0, 0]	-999	PAL1	1	R1297T
45.025	1.017	54408	PRACTICE_PAIR_OFF	n/a	n/a	1	1	CHEST	n/a	CHEST	WATCH	-1	[0, 0, 0]	-999	PAL1	1	R1297T
46.042	0.265	55425	PRACTICE_ORIENT	n/a	n/a	2	6	ATTIC	n/a	ATTIC	RING	-1	[0, 0, 0]	-999	PAL1	1	R1297T
46.307	0.752	55690	PRACTICE_ORIENT_OFF	n/a	n/a	2	6	ATTIC	n/a	ATTIC	RING	-1	[0, 0, 0]	-999	PAL1	1	R1297T
47.059	4.017	56442	PRACTICE_PAIR	n/a	n/a	2	6	ATTIC	n/a	ATTIC	RING	-1	[0, 0, 0]	-999	PAL1	1	R1297T
51.076	1.017	60458	PRACTICE_PAIR_OFF	n/a	n/a	2	6	ATTIC	n/a	ATTIC	RING	-1	[0, 0, 0]	-999	PAL1	1	R1297T
52.093	0.265	61475	PRACTICE_ORIENT	n/a	n/a	3	5	CAMEL	n/a	CAMEL	COTTON	-1	[0, 0, 0]	-999	PAL1	1	R1297T
52.358	0.735	61740	PRACTICE_ORIENT_OFF	n/a	n/a	3	5	CAMEL	n/a	CAMEL	COTTON	-1	[0, 0, 0]	-999	PAL1	1	R1297T
53.093	4.017	62475	PRACTICE_PAIR	n/a	n/a	3	5	CAMEL	n/a	CAMEL	COTTON	-1	[0, 0, 0]	-999	PAL1	1	R1297T
57.11	1.017	66492	PRACTICE_PAIR_OFF	n/a	n/a	3	5	CAMEL	n/a	CAMEL	COTTON	-1	[0, 0, 0]	-999	PAL1	1	R1297T
58.127	0.266	67509	PRACTICE_ORIENT	n/a	n/a	4	2	FLOOD	PASS	BEAM	FLOOD	-1	[0, 0, 0]	-999	PAL1	1	R1297T
58.393	0.518	67775	PRACTICE_ORIENT_OFF	n/a	n/a	4	2	FLOOD	PASS	BEAM	FLOOD	-1	[0, 0, 0]	-999	PAL1	1	R1297T
58.911	4.017	68293	PRACTICE_PAIR	n/a	n/a	4	2	FLOOD	PASS	BEAM	FLOOD	-1	[0, 0, 0]	-999	PAL1	1	R1297T
62.928	1.017	72310	PRACTICE_PAIR_OFF	n/a	n/a	4	2	FLOOD	PASS	BEAM	FLOOD	-1	[0, 0, 0]	-999	PAL1	1	R1297T
63.945	0.266	73327	PRACTICE_ORIENT	n/a	n/a	5	3	TONGUE	PASS	WAGON	TONGUE	-1	[0, 0, 0]	-999	PAL1	1	R1297T
64.211	0.601	73593	PRACTICE_ORIENT_OFF	n/a	n/a	5	3	TONGUE	PASS	WAGON	TONGUE	-1	[0, 0, 0]	-999	PAL1	1	R1297T
64.812	4.017	74194	PRACTICE_PAIR	n/a	n/a	5	3	TONGUE	PASS	WAGON	TONGUE	-1	[0, 0, 0]	-999	PAL1	1	R1297T
68.829	1.017	78210	PRACTICE_PAIR_OFF	n/a	n/a	5	3	TONGUE	PASS	WAGON	TONGUE	-1	[0, 0, 0]	-999	PAL1	1	R1297T
69.846	0.267	79227	PRACTICE_ORIENT	n/a	n/a	6	4	IRON	PASS	RHINO	IRON	-1	[0, 0, 0]	-999	PAL1	1	R1297T
70.113	0.533	79494	PRACTICE_ORIENT_OFF	n/a	n/a	6	4	IRON	PASS	RHINO	IRON	-1	[0, 0, 0]	-999	PAL1	1	R1297T
70.646	4.017	80027	PRACTICE_PAIR	n/a	n/a	6	4	IRON	PASS	RHINO	IRON	-1	[0, 0, 0]	-999	PAL1	1	R1297T
74.663	1.0	84044	PRACTICE_PAIR_OFF	n/a	n/a	6	4	IRON	PASS	RHINO	IRON	-1	[0, 0, 0]	-999	PAL1	1	R1297T
75.663	0.0	85044	ENCODING_END	n/a	n/a	-999	-999	n/a	n/a	n/a	n/a	-1	[0, 0, 0]	-999	PAL1	1	R1297T
75.663	0.0	85044	MATH_START	n/a	n/a	-999	-999	n/a	n/a	n/a	n/a	-1	[0, 0, 0]	-999	PAL1	1	R1297T
75.663	0.017	85044	START	n/a	n/a	-999	-999	n/a	n/a	n/a	n/a	-1	[-999, -999, -999]	-999	PAL1	1	R1297T
75.68	25.118	85061	PROB	25118	n/a	-999	-999	n/a	n/a	n/a	n/a	-1	[8, 6, 7]	21	PAL1	1	R1297T
100.798	0.02	110177	STOP	n/a	n/a	-999	-999	n/a	n/a	n/a	n/a	-1	[-999, -999, -999]	-999	PAL1	1	R1297T
100.818	0.0	110197	MATH_END	n/a	n/a	-999	-999	n/a	n/a	n/a	n/a	-1	[0, 0, 0]	-999	PAL1	1	R1297T
100.818	0.017	110197	RECALL_START	n/a	n/a	-999	-999	n/a	n/a	n/a	n/a	-1	[0, 0, 0]	-999	PAL1	1	R1297T
100.835	0.267	110214	PRACTICE_RETRIEVAL_ORIENT	n/a	n/a	1	1	CHEST	n/a	CHEST	WATCH	-1	[0, 0, 0]	-999	PAL1	1	R1297T
101.102	0.749	110481	PRACTICE_RETRIEVAL_ORIENT_OFF	n/a	n/a	1	1	CHEST	n/a	CHEST	WATCH	-1	[0, 0, 0]	-999	PAL1	1	R1297T
101.851	0.001	111230	PRACTICE_PROBE	n/a	n/a	1	1	CHEST	n/a	CHEST	WATCH	-1	[0, 0, 0]	-999	PAL1	1	R1297T
101.852	4.017	111231	REC_START	n/a	n/a	1	-999	n/a	n/a	n/a	n/a	-1	[0, 0, 0]	-999	PAL1	1	R1297T
105.869	0.978	115248	PROBE_OFF	n/a	n/a	1	-999	n/a	n/a	n/a	n/a	-1	[0, 0, 0]	-999	PAL1	1	R1297T
106.847	0.023	116226	REC_EVENT	4995	n/a	1	1	CHEST	<>	CHEST	WATCH	-1	[0, 0, 0]	-999	PAL1	1	R1297T
106.87	0.016	116249	REC_END	n/a	n/a	1	-999	n/a	n/a	n/a	n/a	-1	[0, 0, 0]	-999	PAL1	1	R1297T
106.886	0.267	116265	PRACTICE_RETRIEVAL_ORIENT	n/a	n/a	4	2	FLOOD	PASS	BEAM	FLOOD	-1	[0, 0, 0]	-999	PAL1	1	R1297T
107.153	0.533	116532	PRACTICE_RETRIEVAL_ORIENT_OFF	n/a	n/a	4	2	FLOOD	PASS	BEAM	FLOOD	-1	[0, 0, 0]	-999	PAL1	1	R1297T
107.686	0.001	117065	PRACTICE_PROBE	n/a	n/a	4	2	FLOOD	PASS	BEAM	FLOOD	-1	[0, 0, 0]	-999	PAL1	1	R1297T
107.687	1.235	117066	REC_START	n/a	n/a	4	-999	n/a	PASS	n/a	n/a	-1	[0, 0, 0]	-999	PAL1	1	R1297T
108.922	1.476	118301	REC_EVENT	1235	n/a	4	2	FLOOD	<>	BEAM	FLOOD	-1	[0, 0, 0]	-999	PAL1	1	R1297T
110.398	1.306	119777	REC_EVENT	2711	n/a	4	2	FLOOD	<>	BEAM	FLOOD	-1	[0, 0, 0]	-999	PAL1	1	R1297T
111.704	0.265	121083	PROBE_OFF	n/a	n/a	4	-999	n/a	n/a	n/a	n/a	-1	[0, 0, 0]	-999	PAL1	1	R1297T
111.969	0.235	121348	REC_EVENT	4282	n/a	4	2	FLOOD	<>	BEAM	FLOOD	-1	[0, 0, 0]	-999	PAL1	1	R1297T
112.204	0.5	121583	REC_EVENT	4517	n/a	4	2	FLOOD	PASS	BEAM	FLOOD	-1	[0, 0, 0]	-999	PAL1	1	R1297T
112.704	0.016	122083	REC_END	n/a	n/a	4	-999	n/a	n/a	n/a	n/a	-1	[0, 0, 0]	-999	PAL1	1	R1297T
112.72	0.267	122099	PRACTICE_RETRIEVAL_ORIENT	n/a	n/a	5	3	TONGUE	PASS	WAGON	TONGUE	-1	[0, 0, 0]	-999	PAL1	1	R1297T
112.987	0.767	122366	PRACTICE_RETRIEVAL_ORIENT_OFF	n/a	n/a	5	3	TONGUE	PASS	WAGON	TONGUE	-1	[0, 0, 0]	-999	PAL1	1	R1297T
113.754	0.0	123133	PRACTICE_PROBE	n/a	n/a	5	3	TONGUE	PASS	WAGON	TONGUE	-1	[0, 0, 0]	-999	PAL1	1	R1297T
113.754	2.646	123133	REC_START	n/a	n/a	5	-999	n/a	PASS	n/a	n/a	-1	[0, 0, 0]	-999	PAL1	1	R1297T
116.4	1.371	125778	REC_EVENT	2646	n/a	5	3	TONGUE	PASS	WAGON	TONGUE	-1	[0, 0, 0]	-999	PAL1	1	R1297T
117.771	1.0	127149	PROBE_OFF	n/a	n/a	5	-999	n/a	n/a	n/a	n/a	-1	[0, 0, 0]	-999	PAL1	1	R1297T
118.771	0.017	128149	REC_END	n/a	n/a	5	-999	n/a	n/a	n/a	n/a	-1	[0, 0, 0]	-999	PAL1	1	R1297T
118.788	0.267	128166	PRACTICE_RETRIEVAL_ORIENT	n/a	n/a	6	4	IRON	PASS	RHINO	IRON	-1	[0, 0, 0]	-999	PAL1	1	R1297T
119.055	0.716	128433	PRACTICE_RETRIEVAL_ORIENT_OFF	n/a	n/a	6	4	IRON	PASS	RHINO	IRON	-1	[0, 0, 0]	-999	PAL1	1	R1297T
119.771	0.001	129149	PRACTICE_PROBE	n/a	n/a	6	4	IRON	PASS	RHINO	IRON	-1	[0, 0, 0]	-999	PAL1	1	R1297T
119.772	2.268	129150	REC_START	n/a	n/a	6	-999	n/a	PASS	n/a	n/a	-1	[0, 0, 0]	-999	PAL1	1	R1297T
122.04	1.749	131418	REC_EVENT	2268	n/a	6	4	IRON	PASS	RHINO	IRON	-1	[0, 0, 0]	-999	PAL1	1	R1297T
123.789	1.0	133167	PROBE_OFF	n/a	n/a	6	-999	n/a	n/a	n/a	n/a	-1	[0, 0, 0]	-999	PAL1	1	R1297T
124.789	0.017	134167	REC_END	n/a	n/a	6	-999	n/a	n/a	n/a	n/a	-1	[0, 0, 0]	-999	PAL1	1	R1297T
124.806	0.267	134184	PRACTICE_RETRIEVAL_ORIENT	n/a	n/a	3	5	CAMEL	n/a	CAMEL	COTTON	-1	[0, 0, 0]	-999	PAL1	1	R1297T
125.073	0.65	134451	PRACTICE_RETRIEVAL_ORIENT_OFF	n/a	n/a	3	5	CAMEL	n/a	CAMEL	COTTON	-1	[0, 0, 0]	-999	PAL1	1	R1297T
125.723	0.0	135101	PRACTICE_PROBE	n/a	n/a	3	5	CAMEL	n/a	CAMEL	COTTON	-1	[0, 0, 0]	-999	PAL1	1	R1297T
125.723	4.017	135101	REC_START	n/a	n/a	3	-999	n/a	n/a	n/a	n/a	-1	[0, 0, 0]	-999	PAL1	1	R1297T
129.74	0.433	139118	PROBE_OFF	n/a	n/a	3	-999	n/a	n/a	n/a	n/a	-1	[0, 0, 0]	-999	PAL1	1	R1297T
130.173	0.567	139551	REC_EVENT	4450	n/a	3	5	CAMEL	<>	CAMEL	COTTON	-1	[0, 0, 0]	-999	PAL1	1	R1297T
130.74	0.017	140118	REC_END	n/a	n/a	3	-999	n/a	n/a	n/a	n/a	-1	[0, 0, 0]	-999	PAL1	1	R1297T
130.757	0.267	140135	PRACTICE_RETRIEVAL_ORIENT	n/a	n/a	2	6	ATTIC	n/a	ATTIC	RING	-1	[0, 0, 0]	-999	PAL1	1	R1297T
131.024	0.667	140402	PRACTICE_RETRIEVAL_ORIENT_OFF	n/a	n/a	4	6	ATTIC	n/a	ATTIC	RING	-1	[0, 0, 0]	-999	PAL1	1	R1297T
131.691	0.0	141069	PRACTICE_PROBE	n/a	n/a	2	6	ATTIC	n/a	ATTIC	RING	-1	[0, 0, 0]	-999	PAL1	1	R1297T
131.691	1.519	141069	REC_START	n/a	n/a	2	-999	n/a	n/a	n/a	n/a	-1	[0, 0, 0]	-999	PAL1	1	R1297T
133.21	2.498	142587	REC_EVENT	1519	n/a	2	6	ATTIC	<>	ATTIC	RING	-1	[0, 0, 0]	-999	PAL1	1	R1297T
135.708	1.001	145085	PROBE_OFF	n/a	n/a	2	-999	n/a	n/a	n/a	n/a	-1	[0, 0, 0]	-999	PAL1	1	R1297T
136.709	0.004	146086	REC_END	n/a	n/a	2	-999	n/a	n/a	n/a	n/a	-1	[0, 0, 0]	-999	PAL1	1	R1297T
136.713	17.198	146090	RECALL_END	n/a	n/a	-999	-999	n/a	n/a	n/a	n/a	-1	[0, 0, 0]	-999	PAL1	1	R1297T
153.911	10.929	163287	TRIAL	n/a	n/a	-999	-999	n/a	n/a	n/a	n/a	1	[0, 0, 0]	-999	PAL1	1	R1297T
164.84	0.006	174216	ENCODING_START	n/a	n/a	-999	-999	n/a	n/a	n/a	n/a	1	[0, 0, 0]	-999	PAL1	1	R1297T
164.846	0.267	174222	STUDY_ORIENT	n/a	n/a	1	3	STICK	n/a	STICK	FROG	1	[0, 0, 0]	-999	PAL1	1	R1297T
165.113	0.667	174489	STUDY_ORIENT_OFF	n/a	n/a	1	3	STICK	n/a	STICK	FROG	1	[0, 0, 0]	-999	PAL1	1	R1297T
165.78	4.017	175156	STUDY_PAIR	n/a	wordpools/wordpool_EN.txt	1	3	STICK	n/a	STICK	FROG	1	[0, 0, 0]	-999	PAL1	1	R1297T
169.797	1.017	179172	PAIR_OFF	n/a	n/a	1	3	STICK	n/a	STICK	FROG	1	[0, 0, 0]	-999	PAL1	1	R1297T
170.814	0.267	180189	STUDY_ORIENT	n/a	n/a	2	6	CONE	n/a	CHAIR	CONE	1	[0, 0, 0]	-999	PAL1	1	R1297T
171.081	0.683	180456	STUDY_ORIENT_OFF	n/a	n/a	2	6	CONE	n/a	CHAIR	CONE	1	[0, 0, 0]	-999	PAL1	1	R1297T
171.764	4.018	181139	STUDY_PAIR	n/a	wordpools/wordpool_EN.txt	2	6	CONE	n/a	CHAIR	CONE	1	[0, 0, 0]	-999	PAL1	1	R1297T
175.782	1.017	185157	PAIR_OFF	n/a	n/a	2	6	CONE	n/a	CHAIR	CONE	1	[0, 0, 0]	-999	PAL1	1	R1297T
176.799	0.266	186174	STUDY_ORIENT	n/a	n/a	3	1	FISH	PASS	FISH	INK	1	[0, 0, 0]	-999	PAL1	1	R1297T
177.065	0.75	186440	STUDY_ORIENT_OFF	n/a	n/a	3	1	FISH	PASS	FISH	INK	1	[0, 0, 0]	-999	PAL1	1	R1297T
177.815	4.018	187190	STUDY_PAIR	n/a	wordpools/wordpool_EN.txt	3	1	FISH	PASS	FISH	INK	1	[0, 0, 0]	-999	PAL1	1	R1297T
181.833	1.017	191208	PAIR_OFF	n/a	n/a	3	1	FISH	PASS	FISH	INK	1	[0, 0, 0]	-999	PAL1	1	R1297T
182.85	0.266	192224	STUDY_ORIENT	n/a	n/a	4	2	DRUM	PASS	MULE	DRUM	1	[0, 0, 0]	-999	PAL1	1	R1297T
183.116	0.65	192490	STUDY_ORIENT_OFF	n/a	n/a	4	2	DRUM	PASS	MULE	DRUM	1	[0, 0, 0]	-999	PAL1	1	R1297T
183.766	4.001	193140	STUDY_PAIR	n/a	wordpools/wordpool_EN.txt	4	2	DRUM	PASS	MULE	DRUM	1	[0, 0, 0]	-999	PAL1	1	R1297T
187.767	1.017	197141	PAIR_OFF	n/a	n/a	4	2	DRUM	PASS	MULE	DRUM	1	[0, 0, 0]	-999	PAL1	1	R1297T
188.784	0.267	198158	STUDY_ORIENT	n/a	n/a	5	5	HOOK	PASS	HOOK	CLOUD	1	[0, 0, 0]	-999	PAL1	1	R1297T
189.051	0.532	198425	STUDY_ORIENT_OFF	n/a	n/a	5	5	HOOK	PASS	HOOK	CLOUD	1	[0, 0, 0]	-999	PAL1	1	R1297T
189.583	4.018	198957	STUDY_PAIR	n/a	wordpools/wordpool_EN.txt	5	5	HOOK	PASS	HOOK	CLOUD	1	[0, 0, 0]	-999	PAL1	1	R1297T
193.601	1.017	202975	PAIR_OFF	n/a	n/a	5	5	HOOK	PASS	HOOK	CLOUD	1	[0, 0, 0]	-999	PAL1	1	R1297T
194.618	0.267	203992	STUDY_ORIENT	n/a	n/a	6	4	BATH	PASS	SOUP	BATH	1	[0, 0, 0]	-999	PAL1	1	R1297T
194.885	0.633	204259	STUDY_ORIENT_OFF	n/a	n/a	6	4	BATH	PASS	SOUP	BATH	1	[0, 0, 0]	-999	PAL1	1	R1297T
195.518	4.017	204892	STUDY_PAIR	n/a	wordpools/wordpool_EN.txt	6	4	BATH	PASS	SOUP	BATH	1	[0, 0, 0]	-999	PAL1	1	R1297T
199.535	1.0	208908	PAIR_OFF	n/a	n/a	6	4	BATH	PASS	SOUP	BATH	1	[0, 0, 0]	-999	PAL1	1	R1297T
200.535	0.0	209908	ENCODING_END	n/a	n/a	-999	-999	n/a	n/a	n/a	n/a	1	[0, 0, 0]	-999	PAL1	1	R1297T
200.535	0.0	209908	MATH_START	n/a	n/a	-999	-999	n/a	n/a	n/a	n/a	1	[0, 0, 0]	-999	PAL1	1	R1297T
200.535	0.017	209908	START	n/a	n/a	-999	-999	n/a	n/a	n/a	n/a	1	[-999, -999, -999]	-999	PAL1	1	R1297T
200.552	3.701	209925	PROB	3670	n/a	-999	-999	n/a	n/a	n/a	n/a	1	[3, 7, 3]	13	PAL1	1	R1297T
204.253	4.3	213626	PROB	4264	n/a	-999	-999	n/a	n/a	n/a	n/a	1	[6, 7, 3]	16	PAL1	1	R1297T
208.553	5.303	217926	PROB	5270	n/a	-999	-999	n/a	n/a	n/a	n/a	1	[9, 6, 5]	20	PAL1	1	R1297T
213.856	3.349	223229	PROB	3326	n/a	-999	-999	n/a	n/a	n/a	n/a	1	[1, 2, 8]	11	PAL1	1	R1297T
217.205	4.28	226577	PROB	4280	n/a	-999	-999	n/a	n/a	n/a	n/a	1	[1, 4, 4]	9	PAL1	1	R1297T
221.485	0.021	230857	STOP	n/a	n/a	-999	-999	n/a	n/a	n/a	n/a	1	[-999, -999, -999]	-999	PAL1	1	R1297T
221.506	0.0	230878	MATH_END	n/a	n/a	-999	-999	n/a	n/a	n/a	n/a	1	[0, 0, 0]	-999	PAL1	1	R1297T
221.506	0.016	230878	RECALL_START	n/a	n/a	-999	-999	n/a	n/a	n/a	n/a	1	[0, 0, 0]	-999	PAL1	1	R1297T
221.522	0.251	230894	TEST_ORIENT	n/a	n/a	3	1	FISH	PASS	FISH	INK	1	[0, 0, 0]	-999	PAL1	1	R1297T
221.773	0.75	231145	RETRIEVAL_ORIENT_OFF	n/a	n/a	-999	-999	n/a	n/a	n/a	n/a	1	[0, 0, 0]	-999	PAL1	1	R1297T
222.523	0.001	231895	TEST_PROBE	n/a	wordpools/wordpool_EN.txt	3	1	FISH	PASS	FISH	INK	1	[0, 0, 0]	-999	PAL1	1	R1297T
222.524	2.634	231896	REC_START	n/a	n/a	3	-999	n/a	PASS	n/a	n/a	1	[0, 0, 0]	-999	PAL1	1	R1297T
225.158	1.382	234530	REC_EVENT	2634	n/a	3	1	FISH	PASS	FISH	INK	1	[0, 0, 0]	-999	PAL1	1	R1297T
226.54	1.012	235912	PROBE_OFF	n/a	n/a	3	-999	n/a	n/a	n/a	n/a	1	[0, 0, 0]	-999	PAL1	1	R1297T
227.552	0.022	236924	REC_END	n/a	n/a	3	-999	n/a	n/a	n/a	n/a	1	[0, 0, 0]	-999	PAL1	1	R1297T
227.574	0.267	236946	TEST_ORIENT	n/a	n/a	4	2	DRUM	PASS	MULE	DRUM	1	[0, 0, 0]	-999	PAL1	1	R1297T
227.841	0.616	237213	RETRIEVAL_ORIENT_OFF	n/a	n/a	3	-999	n/a	n/a	n/a	n/a	1	[0, 0, 0]	-999	PAL1	1	R1297T
228.457	0.001	237829	TEST_PROBE	n/a	wordpools/wordpool_EN.txt	4	2	DRUM	PASS	MULE	DRUM	1	[0, 0, 0]	-999	PAL1	1	R1297T
228.458	4.016	237830	REC_START	n/a	n/a	4	-999	n/a	PASS	n/a	n/a	1	[0, 0, 0]	-999	PAL1	1	R1297T
232.474	0.304	241845	PROBE_OFF	n/a	n/a	4	-999	n/a	n/a	n/a	n/a	1	[0, 0, 0]	-999	PAL1	1	R1297T
232.778	0.696	242149	REC_EVENT	4320	n/a	4	2	DRUM	PASS	MULE	DRUM	1	[0, 0, 0]	-999	PAL1	1	R1297T
233.474	0.017	242845	REC_END	n/a	n/a	4	-999	n/a	n/a	n/a	n/a	1	[0, 0, 0]	-999	PAL1	1	R1297T
233.491	0.268	242862	TEST_ORIENT	n/a	n/a	1	3	STICK	n/a	STICK	FROG	1	[0, 0, 0]	-999	PAL1	1	R1297T
233.759	0.766	243130	RETRIEVAL_ORIENT_OFF	n/a	n/a	4	-999	n/a	n/a	n/a	n/a	1	[0, 0, 0]	-999	PAL1	1	R1297T
234.525	0.0	243896	TEST_PROBE	n/a	wordpools/wordpool_EN.txt	1	3	STICK	n/a	STICK	FROG	1	[0, 0, 0]	-999	PAL1	1	R1297T
234.525	1.674	243896	REC_START	n/a	n/a	1	-999	n/a	n/a	n/a	n/a	1	[0, 0, 0]	-999	PAL1	1	R1297T
236.199	2.343	245570	REC_EVENT	1674	n/a	1	3	STICK	<>	STICK	FROG	1	[0, 0, 0]	-999	PAL1	1	R1297T
238.542	1.001	247913	PROBE_OFF	n/a	n/a	1	-999	n/a	n/a	n/a	n/a	1	[0, 0, 0]	-999	PAL1	1	R1297T
239.543	0.016	248914	REC_END	n/a	n/a	1	-999	n/a	n/a	n/a	n/a	1	[0, 0, 0]	-999	PAL1	1	R1297T
239.559	0.268	248930	TEST_ORIENT	n/a	n/a	6	4	BATH	PASS	SOUP	BATH	1	[0, 0, 0]	-999	PAL1	1	R1297T
239.827	0.766	249198	RETRIEVAL_ORIENT_OFF	n/a	n/a	1	-999	n/a	n/a	n/a	n/a	1	[0, 0, 0]	-999	PAL1	1	R1297T
240.593	0.0	249964	TEST_PROBE	n/a	wordpools/wordpool_EN.txt	6	4	BATH	PASS	SOUP	BATH	1	[0, 0, 0]	-999	PAL1	1	R1297T
240.593	2.181	249964	REC_START	n/a	n/a	6	-999	n/a	PASS	n/a	n/a	1	[0, 0, 0]	-999	PAL1	1	R1297T
242.774	1.836	252145	REC_EVENT	2181	n/a	6	4	BATH	PASS	SOUP	BATH	1	[0, 0, 0]	-999	PAL1	1	R1297T
244.61	1.0	253981	PROBE_OFF	n/a	n/a	6	-999	n/a	n/a	n/a	n/a	1	[0, 0, 0]	-999	PAL1	1	R1297T
245.61	0.018	254981	REC_END	n/a	n/a	6	-999	n/a	n/a	n/a	n/a	1	[0, 0, 0]	-999	PAL1	1	R1297T
245.628	0.266	254999	TEST_ORIENT	n/a	n/a	5	5	HOOK	PASS	HOOK	CLOUD	1	[0, 0, 0]	-999	PAL1	1	R1297T
245.894	0.683	255265	RETRIEVAL_ORIENT_OFF	n/a	n/a	6	-999	n/a	n/a	n/a	n/a	1	[0, 0, 0]	-999	PAL1	1	R1297T
246.577	0.001	255948	TEST_PROBE	n/a	wordpools/wordpool_EN.txt	5	5	HOOK	PASS	HOOK	CLOUD	1	[0, 0, 0]	-999	PAL1	1	R1297T
246.578	3.639	255949	REC_START	n/a	n/a	5	-999	n/a	PASS	n/a	n/a	1	[0, 0, 0]	-999	PAL1	1	R1297T
250.217	0.377	259587	REC_EVENT	3639	n/a	5	5	HOOK	PASS	HOOK	CLOUD	1	[0, 0, 0]	-999	PAL1	1	R1297T
250.594	1.001	259964	PROBE_OFF	n/a	n/a	5	-999	n/a	n/a	n/a	n/a	1	[0, 0, 0]	-999	PAL1	1	R1297T
251.595	0.016	260965	REC_END	n/a	n/a	5	-999	n/a	n/a	n/a	n/a	1	[0, 0, 0]	-999	PAL1	1	R1297T
251.611	0.251	260981	TEST_ORIENT	n/a	n/a	2	6	CONE	n/a	CHAIR	CONE	1	[0, 0, 0]	-999	PAL1	1	R1297T
251.862	0.749	261232	RETRIEVAL_ORIENT_OFF	n/a	n/a	5	-999	n/a	n/a	n/a	n/a	1	[0, 0, 0]	-999	PAL1	1	R1297T
252.611	0.001	261981	TEST_PROBE	n/a	wordpools/wordpool_EN.txt	2	6	CONE	n/a	CHAIR	CONE	1	[0, 0, 0]	-999	PAL1	1	R1297T
252.612	2.379	261982	REC_START	n/a	n/a	2	-999	n/a	n/a	n/a	n/a	1	[0, 0, 0]	-999	PAL1	1	R1297T
254.991	1.639	264361	REC_EVENT	2379	n/a	2	6	CONE	<>	CHAIR	CONE	1	[0, 0, 0]	-999	PAL1	1	R1297T
256.63	1.001	266000	PROBE_OFF	n/a	n/a	2	-999	n/a	n/a	n/a	n/a	1	[0, 0, 0]	-999	PAL1	1	R1297T
257.631	0.003	267001	REC_END	n/a	n/a	2	-999	n/a	n/a	n/a	n/a	1	[0, 0, 0]	-999	PAL1	1	R1297T
257.634	9.181	267004	RECALL_END	n/a	n/a	-999	-999	n/a	n/a	n/a	n/a	1	[0, 0, 0]	-999	PAL1	1	R1297T
266.815	10.928	276184	TRIAL	n/a	n/a	-999	-999	n/a	n/a	n/a	n/a	2	[0, 0, 0]	-999	PAL1	1	R1297T
277.743	0.007	287112	ENCODING_START	n/a	n/a	-999	-999	n/a	n/a	n/a	n/a	2	[0, 0, 0]	-999	PAL1	1	R1297T
277.75	0.267	287119	STUDY_ORIENT	n/a	n/a	1	1	SKI	PASS	SKI	STONE	2	[0, 0, 0]	-999	PAL1	1	R1297T
278.017	0.566	287386	STUDY_ORIENT_OFF	n/a	n/a	1	1	SKI	PASS	SKI	STONE	2	[0, 0, 0]	-999	PAL1	1	R1297T
278.583	4.017	287952	STUDY_PAIR	n/a	wordpools/wordpool_EN.txt	1	1	SKI	PASS	SKI	STONE	2	[0, 0, 0]	-999	PAL1	1	R1297T
282.6	1.017	291968	PAIR_OFF	n/a	n/a	1	1	SKI	PASS	SKI	STONE	2	[0, 0, 0]	-999	PAL1	1	R1297T
283.617	0.268	292985	STUDY_ORIENT	n/a	n/a	2	6	BARN	PASS	SPARK	BARN	2	[0, 0, 0]	-999	PAL1	1	R1297T
283.885	0.632	293253	STUDY_ORIENT_OFF	n/a	n/a	2	6	BARN	PASS	SPARK	BARN	2	[0, 0, 0]	-999	PAL1	1	R1297T
284.517	4.018	293885	STUDY_PAIR	n/a	wordpools/wordpool_EN.txt	2	6	BARN	PASS	SPARK	BARN	2	[0, 0, 0]	-999	PAL1	1	R1297T
288.535	1.016	297903	PAIR_OFF	n/a	n/a	2	6	BARN	PASS	SPARK	BARN	2	[0, 0, 0]	-999	PAL1	1	R1297T
289.551	0.268	298919	STUDY_ORIENT	n/a	n/a	3	3	BEE	HAT	BEE	HAT	2	[0, 0, 0]	-999	PAL1	1	R1297T
289.819	0.682	299187	STUDY_ORIENT_OFF	n/a	n/a	3	3	BEE	HAT	BEE	HAT	2	[0, 0, 0]	-999	PAL1	1	R1297T
290.501	4.018	299869	STUDY_PAIR	n/a	wordpools/wordpool_EN.txt	3	3	BEE	HAT	BEE	HAT	2	[0, 0, 0]	-999	PAL1	1	R1297T
294.519	1.017	303887	PAIR_OFF	n/a	n/a	3	3	BEE	HAT	BEE	HAT	2	[0, 0, 0]	-999	PAL1	1	R1297T
295.536	0.267	304904	STUDY_ORIENT	n/a	n/a	4	2	BRUSH	WAND	WAND	BRUSH	2	[0, 0, 0]	-999	PAL1	1	R1297T
295.803	0.683	305171	STUDY_ORIENT_OFF	n/a	n/a	4	2	BRUSH	WAND	WAND	BRUSH	2	[0, 0, 0]	-999	PAL1	1	R1297T
296.486	4.017	305854	STUDY_PAIR	n/a	wordpools/wordpool_EN.txt	4	2	BRUSH	WAND	WAND	BRUSH	2	[0, 0, 0]	-999	PAL1	1	R1297T
300.503	1.017	309870	PAIR_OFF	n/a	n/a	4	2	BRUSH	WAND	WAND	BRUSH	2	[0, 0, 0]	-999	PAL1	1	R1297T
301.52	0.251	310887	STUDY_ORIENT	n/a	n/a	5	5	PIT	PASS	BRANCH	PIT	2	[0, 0, 0]	-999	PAL1	1	R1297T
301.771	0.566	311138	STUDY_ORIENT_OFF	n/a	n/a	5	5	PIT	PASS	BRANCH	PIT	2	[0, 0, 0]	-999	PAL1	1	R1297T
302.337	4.017	311704	STUDY_PAIR	n/a	wordpools/wordpool_EN.txt	5	5	PIT	PASS	BRANCH	PIT	2	[0, 0, 0]	-999	PAL1	1	R1297T
306.354	1.017	315721	PAIR_OFF	n/a	n/a	5	5	PIT	PASS	BRANCH	PIT	2	[0, 0, 0]	-999	PAL1	1	R1297T
307.371	0.268	316738	STUDY_ORIENT	n/a	n/a	6	4	SHOE	SHIRT	SHOE	SHIRT	2	[0, 0, 0]	-999	PAL1	1	R1297T
307.639	0.749	317006	STUDY_ORIENT_OFF	n/a	n/a	6	4	SHOE	SHIRT	SHOE	SHIRT	2	[0, 0, 0]	-999	PAL1	1	R1297T
308.388	4.017	317755	STUDY_PAIR	n/a	wordpools/wordpool_EN.txt	6	4	SHOE	SHIRT	SHOE	SHIRT	2	[0, 0, 0]	-999	PAL1	1	R1297T
312.405	1.001	321772	PAIR_OFF	n/a	n/a	6	4	SHOE	SHIRT	SHOE	SHIRT	2	[0, 0, 0]	-999	PAL1	1	R1297T
313.406	0.0	322773	ENCODING_END	n/a	n/a	-999	-999	n/a	n/a	n/a	n/a	2	[0, 0, 0]	-999	PAL1	1	R1297T
313.406	0.0	322773	MATH_START	n/a	n/a	-999	-999	n/a	n/a	n/a	n/a	2	[0, 0, 0]	-999	PAL1	1	R1297T
313.406	0.016	322773	START	n/a	n/a	-999	-999	n/a	n/a	n/a	n/a	2	[-999, -999, -999]	-999	PAL1	1	R1297T
313.422	3.402	322789	PROB	3376	n/a	-999	-999	n/a	n/a	n/a	n/a	2	[5, 5, 7]	17	PAL1	1	R1297T
316.824	3.583	326190	PROB	3550	n/a	-999	-999	n/a	n/a	n/a	n/a	2	[9, 2, 5]	16	PAL1	1	R1297T
320.407	2.85	329773	PROB	2814	n/a	-999	-999	n/a	n/a	n/a	n/a	2	[2, 4, 6]	12	PAL1	1	R1297T
323.257	5.318	332623	PROB	5293	n/a	-999	-999	n/a	n/a	n/a	n/a	2	[9, 4, 1]	14	PAL1	1	R1297T
328.575	3.118	337941	PROB	3088	n/a	-999	-999	n/a	n/a	n/a	n/a	2	[5, 2, 8]	15	PAL1	1	R1297T
331.693	2.921	341059	PROB	2921	n/a	-999	-999	n/a	n/a	n/a	n/a	2	[6, 3, 1]	10	PAL1	1	R1297T
334.614	0.013	343979	STOP	n/a	n/a	-999	-999	n/a	n/a	n/a	n/a	2	[-999, -999, -999]	-999	PAL1	1	R1297T
334.627	0.0	343992	MATH_END	n/a	n/a	-999	-999	n/a	n/a	n/a	n/a	2	[0, 0, 0]	-999	PAL1	1	R1297T
334.627	0.017	343992	RECALL_START	n/a	n/a	-999	-999	n/a	n/a	n/a	n/a	2	[0, 0, 0]	-999	PAL1	1	R1297T
334.644	0.267	344009	TEST_ORIENT	n/a	n/a	1	1	SKI	PASS	SKI	STONE	2	[0, 0, 0]	-999	PAL1	1	R1297T
334.911	0.549	344276	RETRIEVAL_ORIENT_OFF	n/a	n/a	-999	-999	n/a	n/a	n/a	n/a	2	[0, 0, 0]	-999	PAL1	1	R1297T
335.46	0.001	344825	TEST_PROBE	n/a	wordpools/wordpool_EN.txt	1	1	SKI	PASS	SKI	STONE	2	[0, 0, 0]	-999	PAL1	1	R1297T
335.461	1.895	344826	REC_START	n/a	n/a	1	-999	n/a	PASS	n/a	n/a	2	[0, 0, 0]	-999	PAL1	1	R1297T
337.356	2.121	346721	REC_EVENT	1895	n/a	1	1	SKI	PASS	SKI	STONE	2	[0, 0, 0]	-999	PAL1	1	R1297T
339.477	1.0	348842	PROBE_OFF	n/a	n/a	1	-999	n/a	n/a	n/a	n/a	2	[0, 0, 0]	-999	PAL1	1	R1297T
340.477	0.017	349842	REC_END	n/a	n/a	1	-999	n/a	n/a	n/a	n/a	2	[0, 0, 0]	-999	PAL1	1	R1297T
340.494	0.268	349859	TEST_ORIENT	n/a	n/a	4	2	BRUSH	WAND	WAND	BRUSH	2	[0, 0, 0]	-999	PAL1	1	R1297T
340.762	0.649	350127	RETRIEVAL_ORIENT_OFF	n/a	n/a	1	-999	n/a	n/a	n/a	n/a	2	[0, 0, 0]	-999	PAL1	1	R1297T
341.411	0.0	350776	TEST_PROBE	n/a	wordpools/wordpool_EN.txt	4	2	BRUSH	WAND	WAND	BRUSH	2	[0, 0, 0]	-999	PAL1	1	R1297T
341.411	1.246	350776	REC_START	n/a	n/a	4	-999	n/a	WAND	n/a	n/a	2	[0, 0, 0]	-999	PAL1	1	R1297T
342.657	2.771	352022	REC_EVENT	1246	n/a	4	2	BRUSH	WAND	WAND	BRUSH	2	[0, 0, 0]	-999	PAL1	1	R1297T
345.428	1.0	354793	PROBE_OFF	n/a	n/a	4	-999	n/a	n/a	n/a	n/a	2	[0, 0, 0]	-999	PAL1	1	R1297T
346.428	0.017	355793	REC_END	n/a	n/a	4	-999	n/a	n/a	n/a	n/a	2	[0, 0, 0]	-999	PAL1	1	R1297T
346.445	0.268	355810	TEST_ORIENT	n/a	n/a	3	3	BEE	HAT	BEE	HAT	2	[0, 0, 0]	-999	PAL1	1	R1297T
346.713	0.549	356078	RETRIEVAL_ORIENT_OFF	n/a	n/a	4	-999	n/a	n/a	n/a	n/a	2	[0, 0, 0]	-999	PAL1	1	R1297T
347.262	0.0	356627	TEST_PROBE	n/a	wordpools/wordpool_EN.txt	3	3	BEE	HAT	BEE	HAT	2	[0, 0, 0]	-999	PAL1	1	R1297T
347.262	1.473	356627	REC_START	n/a	n/a	3	-999	n/a	HAT	n/a	n/a	2	[0, 0, 0]	-999	PAL1	1	R1297T
348.735	2.544	358099	REC_EVENT	1473	n/a	3	3	BEE	HAT	BEE	HAT	2	[0, 0, 0]	-999	PAL1	1	R1297T
351.279	1.0	360643	PROBE_OFF	n/a	n/a	3	-999	n/a	n/a	n/a	n/a	2	[0, 0, 0]	-999	PAL1	1	R1297T
352.279	0.017	361643	REC_END	n/a	n/a	3	-999	n/a	n/a	n/a	n/a	2	[0, 0, 0]	-999	PAL1	1	R1297T
352.296	0.267	361660	TEST_ORIENT	n/a	n/a	6	4	SHOE	SHIRT	SHOE	SHIRT	2	[0, 0, 0]	-999	PAL1	1	R1297T
352.563	0.717	361927	RETRIEVAL_ORIENT_OFF	n/a	n/a	3	-999	n/a	n/a	n/a	n/a	2	[0, 0, 0]	-999	PAL1	1	R1297T
353.28	0.0	362644	REC_START	n/a	n/a	6	-999	n/a	SHIRT	n/a	n/a	2	[0, 0, 0]	-999	PAL1	1	R1297T
353.28	1.006	362644	TEST_PROBE	n/a	wordpools/wordpool_EN.txt	6	4	SHOE	SHIRT	SHOE	SHIRT	2	[0, 0, 0]	-999	PAL1	1	R1297T
354.286	3.011	363650	REC_EVENT	1006	n/a	6	4	SHOE	SHIRT	SHOE	SHIRT	2	[0, 0, 0]	-999	PAL1	1	R1297T
357.297	1.0	366661	PROBE_OFF	n/a	n/a	6	-999	n/a	n/a	n/a	n/a	2	[0, 0, 0]	-999	PAL1	1	R1297T
358.297	0.017	367661	REC_END	n/a	n/a	6	-999	n/a	n/a	n/a	n/a	2	[0, 0, 0]	-999	PAL1	1	R1297T
358.314	0.267	367678	TEST_ORIENT	n/a	n/a	5	5	PIT	PASS	BRANCH	PIT	2	[0, 0, 0]	-999	PAL1	1	R1297T
358.581	0.649	367945	RETRIEVAL_ORIENT_OFF	n/a	n/a	6	-999	n/a	n/a	n/a	n/a	2	[0, 0, 0]	-999	PAL1	1	R1297T
359.23	0.001	368594	TEST_PROBE	n/a	wordpools/wordpool_EN.txt	5	5	PIT	PASS	BRANCH	PIT	2	[0, 0, 0]	-999	PAL1	1	R1297T
359.231	3.36	368595	REC_START	n/a	n/a	5	-999	n/a	PASS	n/a	n/a	2	[0, 0, 0]	-999	PAL1	1	R1297T
362.591	0.657	371955	REC_EVENT	3360	n/a	5	5	PIT	PASS	BRANCH	PIT	2	[0, 0, 0]	-999	PAL1	1	R1297T
363.248	1.0	372612	PROBE_OFF	n/a	n/a	5	-999	n/a	n/a	n/a	n/a	2	[0, 0, 0]	-999	PAL1	1	R1297T
364.248	0.017	373612	REC_END	n/a	n/a	5	-999	n/a	n/a	n/a	n/a	2	[0, 0, 0]	-999	PAL1	1	R1297T
364.265	0.267	373629	TEST_ORIENT	n/a	n/a	2	6	BARN	PASS	SPARK	BARN	2	[0, 0, 0]	-999	PAL1	1	R1297T
364.532	0.634	373896	RETRIEVAL_ORIENT_OFF	n/a	n/a	5	-999	n/a	n/a	n/a	n/a	2	[0, 0, 0]	-999	PAL1	1	R1297T
365.166	0.002	374529	TEST_PROBE	n/a	wordpools/wordpool_EN.txt	2	6	BARN	PASS	SPARK	BARN	2	[0, 0, 0]	-999	PAL1	1	R1297T
365.168	1.553	374531	REC_START	n/a	n/a	2	-999	n/a	PASS	n/a	n/a	2	[0, 0, 0]	-999	PAL1	1	R1297T
366.721	2.463	376084	REC_EVENT	1553	n/a	2	6	BARN	PASS	SPARK	BARN	2	[0, 0, 0]	-999	PAL1	1	R1297T
369.184	1.01	378547	PROBE_OFF	n/a	n/a	2	-999	n/a	n/a	n/a	n/a	2	[0, 0, 0]	-999	PAL1	1	R1297T
370.194	0.003	379557	REC_END	n/a	n/a	2	-999	n/a	n/a	n/a	n/a	2	[0, 0, 0]	-999	PAL1	1	R1297T
370.197	6.604	379560	RECALL_END	n/a	n/a	-999	-999	n/a	n/a	n/a	n/a	2	[0, 0, 0]	-999	PAL1	1	R1297T
376.801	10.928	386164	TRIAL	n/a	n/a	-999	-999	n/a	n/a	n/a	n/a	3	[0, 0, 0]	-999	PAL1	1	R1297T
387.729	0.008	397091	ENCODING_START	n/a	n/a	-999	-999	n/a	n/a	n/a	n/a	3	[0, 0, 0]	-999	PAL1	1	R1297T
387.737	0.267	397099	STUDY_ORIENT	n/a	n/a	1	5	FLAG	MAP	FLAG	MAP	3	[0, 0, 0]	-999	PAL1	1	R1297T
388.004	0.549	397366	STUDY_ORIENT_OFF	n/a	n/a	1	5	FLAG	MAP	FLAG	MAP	3	[0, 0, 0]	-999	PAL1	1	R1297T
388.553	4.017	397915	STUDY_PAIR	n/a	wordpools/wordpool_EN.txt	1	5	FLAG	MAP	FLAG	MAP	3	[0, 0, 0]	-999	PAL1	1	R1297T
392.57	1.017	401932	PAIR_OFF	n/a	n/a	1	5	FLAG	MAP	FLAG	MAP	3	[0, 0, 0]	-999	PAL1	1	R1297T
393.587	0.268	402949	STUDY_ORIENT	n/a	n/a	2	2	ARK	SKY	ARK	SKY	3	[0, 0, 0]	-999	PAL1	1	R1297T
393.855	0.699	403217	STUDY_ORIENT_OFF	n/a	n/a	2	2	ARK	SKY	ARK	SKY	3	[0, 0, 0]	-999	PAL1	1	R1297T
394.554	4.017	403916	STUDY_PAIR	n/a	wordpools/wordpool_EN.txt	2	2	ARK	SKY	ARK	SKY	3	[0, 0, 0]	-999	PAL1	1	R1297T
398.571	1.017	407932	PAIR_OFF	n/a	n/a	2	2	ARK	SKY	ARK	SKY	3	[0, 0, 0]	-999	PAL1	1	R1297T
399.588	0.268	408949	STUDY_ORIENT	n/a	n/a	3	1	BENCH	SWORD	BENCH	SWORD	3	[0, 0, 0]	-999	PAL1	1	R1297T
399.856	0.615	409217	STUDY_ORIENT_OFF	n/a	n/a	3	1	BENCH	SWORD	BENCH	SWORD	3	[0, 0, 0]	-999	PAL1	1	R1297T
400.471	4.001	409832	STUDY_PAIR	n/a	wordpools/wordpool_EN.txt	3	1	BENCH	SWORD	BENCH	SWORD	3	[0, 0, 0]	-999	PAL1	1	R1297T
404.472	1.017	413833	PAIR_OFF	n/a	n/a	3	1	BENCH	SWORD	BENCH	SWORD	3	[0, 0, 0]	-999	PAL1	1	R1297T
405.489	0.268	414850	STUDY_ORIENT	n/a	n/a	4	6	DEER	STOOL	STOOL	DEER	3	[0, 0, 0]	-999	PAL1	1	R1297T
405.757	0.649	415118	STUDY_ORIENT_OFF	n/a	n/a	4	6	DEER	STOOL	STOOL	DEER	3	[0, 0, 0]	-999	PAL1	1	R1297T
406.406	4.017	415767	STUDY_PAIR	n/a	wordpools/wordpool_EN.txt	4	6	DEER	STOOL	STOOL	DEER	3	[0, 0, 0]	-999	PAL1	1	R1297T
410.423	1.017	419784	PAIR_OFF	n/a	n/a	4	6	DEER	STOOL	STOOL	DEER	3	[0, 0, 0]	-999	PAL1	1	R1297T
411.44	0.268	420801	STUDY_ORIENT	n/a	n/a	5	3	GATE	COW	GATE	COW	3	[0, 0, 0]	-999	PAL1	1	R1297T
411.708	0.682	421069	STUDY_ORIENT_OFF	n/a	n/a	5	3	GATE	COW	GATE	COW	3	[0, 0, 0]	-999	PAL1	1	R1297T
412.39	4.001	421751	STUDY_PAIR	n/a	wordpools/wordpool_EN.txt	5	3	GATE	COW	GATE	COW	3	[0, 0, 0]	-999	PAL1	1	R1297T
416.391	1.017	425751	PAIR_OFF	n/a	n/a	5	3	GATE	COW	GATE	COW	3	[0, 0, 0]	-999	PAL1	1	R1297T
417.408	0.267	426768	STUDY_ORIENT	n/a	n/a	6	4	GOLD	BALL	BALL	GOLD	3	[0, 0, 0]	-999	PAL1	1	R1297T
417.675	0.633	427035	STUDY_ORIENT_OFF	n/a	n/a	6	4	GOLD	BALL	BALL	GOLD	3	[0, 0, 0]	-999	PAL1	1	R1297T
418.308	4.017	427668	STUDY_PAIR	n/a	wordpools/wordpool_EN.txt	6	4	GOLD	BALL	BALL	GOLD	3	[0, 0, 0]	-999	PAL1	1	R1297T
422.325	1.0	431685	PAIR_OFF	n/a	n/a	6	4	GOLD	BALL	BALL	GOLD	3	[0, 0, 0]	-999	PAL1	1	R1297T
423.325	0.0	432685	ENCODING_END	n/a	n/a	-999	-999	n/a	n/a	n/a	n/a	3	[0, 0, 0]	-999	PAL1	1	R1297T
423.325	0.0	432685	MATH_START	n/a	n/a	-999	-999	n/a	n/a	n/a	n/a	3	[0, 0, 0]	-999	PAL1	1	R1297T
423.325	0.017	432685	START	n/a	n/a	-999	-999	n/a	n/a	n/a	n/a	3	[-999, -999, -999]	-999	PAL1	1	R1297T
423.342	3.485	432702	PROB	3457	n/a	-999	-999	n/a	n/a	n/a	n/a	3	[5, 4, 6]	15	PAL1	1	R1297T
426.827	5.367	436187	PROB	5339	n/a	-999	-999	n/a	n/a	n/a	n/a	3	[6, 8, 6]	20	PAL1	1	R1297T
432.194	4.117	441553	PROB	4091	n/a	-999	-999	n/a	n/a	n/a	n/a	3	[8, 1, 9]	18	PAL1	1	R1297T
436.311	10.311	445670	PROB	10311	n/a	-999	-999	n/a	n/a	n/a	n/a	3	[9, 7, 8]	24	PAL1	1	R1297T
446.622	0.009	455981	STOP	n/a	n/a	-999	-999	n/a	n/a	n/a	n/a	3	[-999, -999, -999]	-999	PAL1	1	R1297T
446.631	0.0	455990	MATH_END	n/a	n/a	-999	-999	n/a	n/a	n/a	n/a	3	[0, 0, 0]	-999	PAL1	1	R1297T
446.631	0.017	455990	RECALL_START	n/a	n/a	-999	-999	n/a	n/a	n/a	n/a	3	[0, 0, 0]	-999	PAL1	1	R1297T
446.648	0.266	456007	TEST_ORIENT	n/a	n/a	3	1	BENCH	SWORD	BENCH	SWORD	3	[0, 0, 0]	-999	PAL1	1	R1297T
446.914	0.75	456273	RETRIEVAL_ORIENT_OFF	n/a	n/a	-999	-999	n/a	n/a	n/a	n/a	3	[0, 0, 0]	-999	PAL1	1	R1297T
447.664	0.002	457023	TEST_PROBE	n/a	wordpools/wordpool_EN.txt	3	1	BENCH	SWORD	BENCH	SWORD	3	[0, 0, 0]	-999	PAL1	1	R1297T
447.666	1.092	457025	REC_START	n/a	n/a	3	-999	n/a	SWORD	n/a	n/a	3	[0, 0, 0]	-999	PAL1	1	R1297T
448.758	2.924	458116	REC_EVENT	1092	n/a	3	1	BENCH	SWORD	BENCH	SWORD	3	[0, 0, 0]	-999	PAL1	1	R1297T
451.682	1.01	461040	PROBE_OFF	n/a	n/a	3	-999	n/a	n/a	n/a	n/a	3	[0, 0, 0]	-999	PAL1	1	R1297T
452.692	0.006	462050	REC_END	n/a	n/a	3	-999	n/a	n/a	n/a	n/a	3	[0, 0, 0]	-999	PAL1	1	R1297T
452.698	0.267	462056	TEST_ORIENT	n/a	n/a	2	2	ARK	SKY	ARK	SKY	3	[0, 0, 0]	-999	PAL1	1	R1297T
452.965	0.667	462323	RETRIEVAL_ORIENT_OFF	n/a	n/a	3	-999	n/a	n/a	n/a	n/a	3	[0, 0, 0]	-999	PAL1	1	R1297T
453.632	0.001	462990	TEST_PROBE	n/a	wordpools/wordpool_EN.txt	2	2	ARK	SKY	ARK	SKY	3	[0, 0, 0]	-999	PAL1	1	R1297T
453.633	0.892	462991	REC_START	n/a	n/a	2	-999	n/a	SKY	n/a	n/a	3	[0, 0, 0]	-999	PAL1	1	R1297T
454.525	3.124	463883	REC_EVENT	892	n/a	2	2	ARK	SKY	ARK	SKY	3	[0, 0, 0]	-999	PAL1	1	R1297T
457.649	1.0	467007	PROBE_OFF	n/a	n/a	2	-999	n/a	n/a	n/a	n/a	3	[0, 0, 0]	-999	PAL1	1	R1297T
458.649	0.017	468007	REC_END	n/a	n/a	2	-999	n/a	n/a	n/a	n/a	3	[0, 0, 0]	-999	PAL1	1	R1297T
458.666	0.267	468024	TEST_ORIENT	n/a	n/a	5	3	GATE	COW	GATE	COW	3	[0, 0, 0]	-999	PAL1	1	R1297T
458.933	0.583	468291	RETRIEVAL_ORIENT_OFF	n/a	n/a	2	-999	n/a	n/a	n/a	n/a	3	[0, 0, 0]	-999	PAL1	1	R1297T
459.516	0.0	468874	TEST_PROBE	n/a	wordpools/wordpool_EN.txt	5	3	GATE	COW	GATE	COW	3	[0, 0, 0]	-999	PAL1	1	R1297T
459.516	1.206	468874	REC_START	n/a	n/a	5	-999	n/a	COW	n/a	n/a	3	[0, 0, 0]	-999	PAL1	1	R1297T
460.722	2.811	470080	REC_EVENT	1206	n/a	5	3	GATE	COW	GATE	COW	3	[0, 0, 0]	-999	PAL1	1	R1297T
463.533	1.012	472891	PROBE_OFF	n/a	n/a	5	-999	n/a	n/a	n/a	n/a	3	[0, 0, 0]	-999	PAL1	1	R1297T
464.545	0.021	473903	REC_END	n/a	n/a	5	-999	n/a	n/a	n/a	n/a	3	[0, 0, 0]	-999	PAL1	1	R1297T
464.566	0.251	473924	TEST_ORIENT	n/a	n/a	6	4	GOLD	BALL	BALL	GOLD	3	[0, 0, 0]	-999	PAL1	1	R1297T
464.817	0.683	474174	RETRIEVAL_ORIENT_OFF	n/a	n/a	5	-999	n/a	n/a	n/a	n/a	3	[0, 0, 0]	-999	PAL1	1	R1297T
465.5	0.001	474857	TEST_PROBE	n/a	wordpools/wordpool_EN.txt	6	4	GOLD	BALL	BALL	GOLD	3	[0, 0, 0]	-999	PAL1	1	R1297T
465.501	1.047	474858	REC_START	n/a	n/a	6	-999	n/a	BALL	n/a	n/a	3	[0, 0, 0]	-999	PAL1	1	R1297T
466.548	2.969	475905	REC_EVENT	1047	n/a	6	4	GOLD	BALL	BALL	GOLD	3	[0, 0, 0]	-999	PAL1	1	R1297T
469.517	1.0	478874	PROBE_OFF	n/a	n/a	6	-999	n/a	n/a	n/a	n/a	3	[0, 0, 0]	-999	PAL1	1	R1297T
470.517	0.017	479874	REC_END	n/a	n/a	6	-999	n/a	n/a	n/a	n/a	3	[0, 0, 0]	-999	PAL1	1	R1297T
470.534	0.251	479891	TEST_ORIENT	n/a	n/a	1	5	FLAG	MAP	FLAG	MAP	3	[0, 0, 0]	-999	PAL1	1	R1297T
470.785	0.516	480142	RETRIEVAL_ORIENT_OFF	n/a	n/a	6	-999	n/a	n/a	n/a	n/a	3	[0, 0, 0]	-999	PAL1	1	R1297T
471.301	0.001	480658	TEST_PROBE	n/a	wordpools/wordpool_EN.txt	1	5	FLAG	MAP	FLAG	MAP	3	[0, 0, 0]	-999	PAL1	1	R1297T
471.302	1.076	480659	REC_START	n/a	n/a	1	-999	n/a	MAP	n/a	n/a	3	[0, 0, 0]	-999	PAL1	1	R1297T
472.378	2.94	481735	REC_EVENT	1076	n/a	1	5	FLAG	MAP	FLAG	MAP	3	[0, 0, 0]	-999	PAL1	1	R1297T
475.318	1.0	484675	PROBE_OFF	n/a	n/a	1	-999	n/a	n/a	n/a	n/a	3	[0, 0, 0]	-999	PAL1	1	R1297T
476.318	0.017	485675	REC_END	n/a	n/a	1	-999	n/a	n/a	n/a	n/a	3	[0, 0, 0]	-999	PAL1	1	R1297T
476.335	0.267	485692	TEST_ORIENT	n/a	n/a	4	6	DEER	STOOL	STOOL	DEER	3	[0, 0, 0]	-999	PAL1	1	R1297T
476.602	0.617	485959	RETRIEVAL_ORIENT_OFF	n/a	n/a	1	-999	n/a	n/a	n/a	n/a	3	[0, 0, 0]	-999	PAL1	1	R1297T
477.219	0.0	486576	TEST_PROBE	n/a	wordpools/wordpool_EN.txt	4	6	DEER	STOOL	STOOL	DEER	3	[0, 0, 0]	-999	PAL1	1	R1297T
477.219	1.911	486576	REC_START	n/a	n/a	4	-999	n/a	STOOL	n/a	n/a	3	[0, 0, 0]	-999	PAL1	1	R1297T
479.13	2.106	488487	REC_EVENT	1911	n/a	4	6	DEER	STOOL	STOOL	DEER	3	[0, 0, 0]	-999	PAL1	1	R1297T
481.236	1.0	490593	PROBE_OFF	n/a	n/a	4	-999	n/a	n/a	n/a	n/a	3	[0, 0, 0]	-999	PAL1	1	R1297T
482.236	0.004	491592	REC_END	n/a	n/a	4	-999	n/a	n/a	n/a	n/a	3	[0, 0, 0]	-999	PAL1	1	R1297T
482.24	4.997	491596	RECALL_END	n/a	n/a	-999	-999	n/a	n/a	n/a	n/a	3	[0, 0, 0]	-999	PAL1	1	R1297T
487.237	10.929	496593	TRIAL	n/a	n/a	-999	-999	n/a	n/a	n/a	n/a	4	[0, 0, 0]	-999	PAL1	1	R1297T
498.166	0.008	507521	ENCODING_START	n/a	n/a	-999	-999	n/a	n/a	n/a	n/a	4	[0, 0, 0]	-999	PAL1	1	R1297T
498.174	0.265	507529	STUDY_ORIENT	n/a	n/a	1	5	SPRING	PASS	SPRING	PIE	4	[0, 0, 0]	-999	PAL1	1	R1297T
498.439	0.601	507794	STUDY_ORIENT_OFF	n/a	n/a	1	5	SPRING	PASS	SPRING	PIE	4	[0, 0, 0]	-999	PAL1	1	R1297T
499.04	4.018	508395	STUDY_PAIR	n/a	wordpools/wordpool_EN.txt	1	5	SPRING	PASS	SPRING	PIE	4	[0, 0, 0]	-999	PAL1	1	R1297T
503.058	1.017	512413	PAIR_OFF	n/a	n/a	1	5	SPRING	PASS	SPRING	PIE	4	[0, 0, 0]	-999	PAL1	1	R1297T
504.075	0.265	513430	STUDY_ORIENT	n/a	n/a	2	6	DOLL	BADGE	DOLL	BADGE	4	[0, 0, 0]	-999	PAL1	1	R1297T
504.34	0.585	513695	STUDY_ORIENT_OFF	n/a	n/a	2	6	DOLL	BADGE	DOLL	BADGE	4	[0, 0, 0]	-999	PAL1	1	R1297T
504.925	4.017	514280	STUDY_PAIR	n/a	wordpools/wordpool_EN.txt	2	6	DOLL	BADGE	DOLL	BADGE	4	[0, 0, 0]	-999	PAL1	1	R1297T
508.942	1.017	518297	PAIR_OFF	n/a	n/a	2	6	DOLL	BADGE	DOLL	BADGE	4	[0, 0, 0]	-999	PAL1	1	R1297T
509.959	0.266	519314	STUDY_ORIENT	n/a	n/a	3	1	WING	n/a	PARK	WING	4	[0, 0, 0]	-999	PAL1	1	R1297T
510.225	0.601	519580	STUDY_ORIENT_OFF	n/a	n/a	3	1	WING	n/a	PARK	WING	4	[0, 0, 0]	-999	PAL1	1	R1297T
510.826	4.017	520181	STUDY_PAIR	n/a	wordpools/wordpool_EN.txt	3	1	WING	n/a	PARK	WING	4	[0, 0, 0]	-999	PAL1	1	R1297T
514.843	1.017	524197	PAIR_OFF	n/a	n/a	3	1	WING	n/a	PARK	WING	4	[0, 0, 0]	-999	PAL1	1	R1297T
515.86	0.267	525214	STUDY_ORIENT	n/a	n/a	4	2	LAWN	STORE	STORE	LAWN	4	[0, 0, 0]	-999	PAL1	1	R1297T
516.127	0.567	525481	STUDY_ORIENT_OFF	n/a	n/a	4	2	LAWN	STORE	STORE	LAWN	4	[0, 0, 0]	-999	PAL1	1	R1297T
516.694	4.017	526048	STUDY_PAIR	n/a	wordpools/wordpool_EN.txt	4	2	LAWN	STORE	STORE	LAWN	4	[0, 0, 0]	-999	PAL1	1	R1297T
520.711	1.017	530065	PAIR_OFF	n/a	n/a	4	2	LAWN	STORE	STORE	LAWN	4	[0, 0, 0]	-999	PAL1	1	R1297T
521.728	0.266	531082	STUDY_ORIENT	n/a	n/a	5	3	SAIL	BOY	SAIL	BOY	4	[0, 0, 0]	-999	PAL1	1	R1297T
521.994	0.583	531348	STUDY_ORIENT_OFF	n/a	n/a	5	3	SAIL	BOY	SAIL	BOY	4	[0, 0, 0]	-999	PAL1	1	R1297T
522.577	4.017	531931	STUDY_PAIR	n/a	wordpools/wordpool_EN.txt	5	3	SAIL	BOY	SAIL	BOY	4	[0, 0, 0]	-999	PAL1	1	R1297T
526.594	1.017	535948	PAIR_OFF	n/a	n/a	5	3	SAIL	BOY	SAIL	BOY	4	[0, 0, 0]	-999	PAL1	1	R1297T
527.611	0.251	536965	STUDY_ORIENT	n/a	n/a	6	4	WAVE	WORM	WAVE	WORM	4	[0, 0, 0]	-999	PAL1	1	R1297T
527.862	0.699	537216	STUDY_ORIENT_OFF	n/a	n/a	6	4	WAVE	WORM	WAVE	WORM	4	[0, 0, 0]	-999	PAL1	1	R1297T
528.561	4.018	537915	STUDY_PAIR	n/a	wordpools/wordpool_EN.txt	6	4	WAVE	WORM	WAVE	WORM	4	[0, 0, 0]	-999	PAL1	1	R1297T
532.579	1.0	541932	PAIR_OFF	n/a	n/a	6	4	WAVE	WORM	WAVE	WORM	4	[0, 0, 0]	-999	PAL1	1	R1297T
533.579	0.0	542932	MATH_START	n/a	n/a	-999	-999	n/a	n/a	n/a	n/a	4	[0, 0, 0]	-999	PAL1	1	R1297T
533.579	0.001	542932	ENCODING_END	n/a	n/a	-999	-999	n/a	n/a	n/a	n/a	4	[0, 0, 0]	-999	PAL1	1	R1297T
533.58	0.016	542933	START	n/a	n/a	-999	-999	n/a	n/a	n/a	n/a	4	[-999, -999, -999]	-999	PAL1	1	R1297T
533.596	5.651	542949	PROB	5625	n/a	-999	-999	n/a	n/a	n/a	n/a	4	[4, 8, 3]	15	PAL1	1	R1297T
539.247	4.435	548600	PROB	4400	n/a	-999	-999	n/a	n/a	n/a	n/a	4	[5, 7, 6]	18	PAL1	1	R1297T
543.682	3.65	553035	PROB	3627	n/a	-999	-999	n/a	n/a	n/a	n/a	4	[8, 6, 3]	17	PAL1	1	R1297T
547.332	2.834	556685	PROB	2802	n/a	-999	-999	n/a	n/a	n/a	n/a	4	[3, 6, 4]	13	PAL1	1	R1297T
550.166	3.84	559518	PROB	3840	n/a	-999	-999	n/a	n/a	n/a	n/a	4	[9, 6, 5]	20	PAL1	1	R1297T
554.006	0.011	563358	STOP	n/a	n/a	-999	-999	n/a	n/a	n/a	n/a	4	[-999, -999, -999]	-999	PAL1	1	R1297T
554.017	0.0	563369	MATH_END	n/a	n/a	-999	-999	n/a	n/a	n/a	n/a	4	[0, 0, 0]	-999	PAL1	1	R1297T
554.017	0.017	563369	RECALL_START	n/a	n/a	-999	-999	n/a	n/a	n/a	n/a	4	[0, 0, 0]	-999	PAL1	1	R1297T
554.034	0.265	563386	TEST_ORIENT	n/a	n/a	3	1	WING	n/a	PARK	WING	4	[0, 0, 0]	-999	PAL1	1	R1297T
554.299	0.568	563651	RETRIEVAL_ORIENT_OFF	n/a	n/a	-999	-999	n/a	n/a	n/a	n/a	4	[0, 0, 0]	-999	PAL1	1	R1297T
554.867	0.001	564219	TEST_PROBE	n/a	wordpools/wordpool_EN.txt	3	1	WING	n/a	PARK	WING	4	[0, 0, 0]	-999	PAL1	1	R1297T
554.868	4.017	564220	REC_START	n/a	n/a	3	-999	n/a	n/a	n/a	n/a	4	[0, 0, 0]	-999	PAL1	1	R1297T
558.885	0.89	568237	PROBE_OFF	n/a	n/a	3	-999	n/a	n/a	n/a	n/a	4	[0, 0, 0]	-999	PAL1	1	R1297T
559.775	0.12	569127	REC_EVENT	4907	n/a	3	1	WING	<>	PARK	WING	4	[0, 0, 0]	-999	PAL1	1	R1297T
559.895	0.006	569247	REC_END	n/a	n/a	3	-999	n/a	n/a	n/a	n/a	4	[0, 0, 0]	-999	PAL1	1	R1297T
559.901	0.267	569253	TEST_ORIENT	n/a	n/a	4	2	LAWN	STORE	STORE	LAWN	4	[0, 0, 0]	-999	PAL1	1	R1297T
560.168	0.517	569520	RETRIEVAL_ORIENT_OFF	n/a	n/a	3	-999	n/a	n/a	n/a	n/a	4	[0, 0, 0]	-999	PAL1	1	R1297T
560.685	0.0	570037	REC_START	n/a	n/a	4	-999	n/a	STORE	n/a	n/a	4	[0, 0, 0]	-999	PAL1	1	R1297T
560.685	1.453	570037	TEST_PROBE	n/a	wordpools/wordpool_EN.txt	4	2	LAWN	STORE	STORE	LAWN	4	[0, 0, 0]	-999	PAL1	1	R1297T
562.138	2.564	571490	REC_EVENT	1453	n/a	4	2	LAWN	STORE	STORE	LAWN	4	[0, 0, 0]	-999	PAL1	1	R1297T
564.702	1.0	574053	PROBE_OFF	n/a	n/a	4	-999	n/a	n/a	n/a	n/a	4	[0, 0, 0]	-999	PAL1	1	R1297T
565.702	0.017	575053	REC_END	n/a	n/a	4	-999	n/a	n/a	n/a	n/a	4	[0, 0, 0]	-999	PAL1	1	R1297T
565.719	0.267	575070	TEST_ORIENT	n/a	n/a	5	3	SAIL	BOY	SAIL	BOY	4	[0, 0, 0]	-999	PAL1	1	R1297T
565.986	0.582	575337	RETRIEVAL_ORIENT_OFF	n/a	n/a	4	-999	n/a	n/a	n/a	n/a	4	[0, 0, 0]	-999	PAL1	1	R1297T
566.568	0.001	575919	TEST_PROBE	n/a	wordpools/wordpool_EN.txt	5	3	SAIL	BOY	SAIL	BOY	4	[0, 0, 0]	-999	PAL1	1	R1297T
566.569	0.508	575920	REC_START	n/a	n/a	5	-999	n/a	BOY	n/a	n/a	4	[0, 0, 0]	-999	PAL1	1	R1297T
567.077	0.71	576428	REC_EVENT	508	n/a	5	3	SAIL	<>	SAIL	BOY	4	[0, 0, 0]	-999	PAL1	1	R1297T
567.787	2.799	577138	REC_EVENT	1218	n/a	5	3	SAIL	BOY	SAIL	BOY	4	[0, 0, 0]	-999	PAL1	1	R1297T
570.586	1.0	579937	PROBE_OFF	n/a	n/a	5	-999	n/a	n/a	n/a	n/a	4	[0, 0, 0]	-999	PAL1	1	R1297T
571.586	0.017	580937	REC_END	n/a	n/a	5	-999	n/a	n/a	n/a	n/a	4	[0, 0, 0]	-999	PAL1	1	R1297T
571.603	0.267	580954	TEST_ORIENT	n/a	n/a	6	4	WAVE	WORM	WAVE	WORM	4	[0, 0, 0]	-999	PAL1	1	R1297T
571.87	0.683	581221	RETRIEVAL_ORIENT_OFF	n/a	n/a	5	-999	n/a	n/a	n/a	n/a	4	[0, 0, 0]	-999	PAL1	1	R1297T
572.553	0.0	581904	REC_START	n/a	n/a	6	-999	n/a	WORM	n/a	n/a	4	[0, 0, 0]	-999	PAL1	1	R1297T
572.553	0.747	581904	TEST_PROBE	n/a	wordpools/wordpool_EN.txt	6	4	WAVE	WORM	WAVE	WORM	4	[0, 0, 0]	-999	PAL1	1	R1297T
573.3	1.809	582651	REC_EVENT	747	n/a	6	4	WAVE	<>	WAVE	WORM	4	[0, 0, 0]	-999	PAL1	1	R1297T
575.109	1.461	584460	REC_EVENT	2556	n/a	6	4	WAVE	WORM	WAVE	WORM	4	[0, 0, 0]	-999	PAL1	1	R1297T
576.57	1.001	585921	PROBE_OFF	n/a	n/a	6	-999	n/a	n/a	n/a	n/a	4	[0, 0, 0]	-999	PAL1	1	R1297T
577.571	0.016	586922	REC_END	n/a	n/a	6	-999	n/a	n/a	n/a	n/a	4	[0, 0, 0]	-999	PAL1	1	R1297T
577.587	0.268	586938	TEST_ORIENT	n/a	n/a	1	5	SPRING	PASS	SPRING	PIE	4	[0, 0, 0]	-999	PAL1	1	R1297T
577.855	0.565	587206	RETRIEVAL_ORIENT_OFF	n/a	n/a	6	-999	n/a	n/a	n/a	n/a	4	[0, 0, 0]	-999	PAL1	1	R1297T
578.42	0.001	587771	TEST_PROBE	n/a	wordpools/wordpool_EN.txt	1	5	SPRING	PASS	SPRING	PIE	4	[0, 0, 0]	-999	PAL1	1	R1297T
578.421	4.017	587772	REC_START	n/a	n/a	1	-999	n/a	PASS	n/a	n/a	4	[0, 0, 0]	-999	PAL1	1	R1297T
582.438	0.048	591788	PROBE_OFF	n/a	n/a	1	-999	n/a	n/a	n/a	n/a	4	[0, 0, 0]	-999	PAL1	1	R1297T
582.486	0.952	591836	REC_EVENT	4065	n/a	1	5	SPRING	PASS	SPRING	PIE	4	[0, 0, 0]	-999	PAL1	1	R1297T
583.438	0.017	592788	REC_END	n/a	n/a	1	-999	n/a	n/a	n/a	n/a	4	[0, 0, 0]	-999	PAL1	1	R1297T
583.455	0.267	592805	TEST_ORIENT	n/a	n/a	2	6	DOLL	BADGE	DOLL	BADGE	4	[0, 0, 0]	-999	PAL1	1	R1297T
583.722	0.616	593072	RETRIEVAL_ORIENT_OFF	n/a	n/a	1	-999	n/a	n/a	n/a	n/a	4	[0, 0, 0]	-999	PAL1	1	R1297T
584.338	0.001	593688	TEST_PROBE	n/a	wordpools/wordpool_EN.txt	2	6	DOLL	BADGE	DOLL	BADGE	4	[0, 0, 0]	-999	PAL1	1	R1297T
584.339	1.575	593689	REC_START	n/a	n/a	2	-999	n/a	BADGE	n/a	n/a	4	[0, 0, 0]	-999	PAL1	1	R1297T
585.914	2.442	595264	REC_EVENT	1575	n/a	2	6	DOLL	BADGE	DOLL	BADGE	4	[0, 0, 0]	-999	PAL1	1	R1297T
588.356	1.012	597706	PROBE_OFF	n/a	n/a	2	-999	n/a	n/a	n/a	n/a	4	[0, 0, 0]	-999	PAL1	1	R1297T
589.368	0.003	598718	REC_END	n/a	n/a	2	-999	n/a	n/a	n/a	n/a	4	[0, 0, 0]	-999	PAL1	1	R1297T
589.371	6.186	598721	RECALL_END	n/a	n/a	-999	-999	n/a	n/a	n/a	n/a	4	[0, 0, 0]	-999	PAL1	1	R1297T
595.557	10.929	604907	TRIAL	n/a	n/a	-999	-999	n/a	n/a	n/a	n/a	5	[0, 0, 0]	-999	PAL1	1	R1297T
606.486	0.006	615835	ENCODING_START	n/a	n/a	-999	-999	n/a	n/a	n/a	n/a	5	[0, 0, 0]	-999	PAL1	1	R1297T
606.492	0.268	615841	STUDY_ORIENT	n/a	n/a	1	3	VAN	HAWK	HAWK	VAN	5	[0, 0, 0]	-999	PAL1	1	R1297T
606.76	0.749	616109	STUDY_ORIENT_OFF	n/a	n/a	1	3	VAN	HAWK	HAWK	VAN	5	[0, 0, 0]	-999	PAL1	1	R1297T
607.509	4.017	616858	STUDY_PAIR	n/a	wordpools/wordpool_EN.txt	1	3	VAN	HAWK	HAWK	VAN	5	[0, 0, 0]	-999	PAL1	1	R1297T
611.526	1.017	620875	PAIR_OFF	n/a	n/a	1	3	VAN	HAWK	HAWK	VAN	5	[0, 0, 0]	-999	PAL1	1	R1297T
612.543	0.268	621892	STUDY_ORIENT	n/a	n/a	2	4	GOAT	STOVE	STOVE	GOAT	5	[0, 0, 0]	-999	PAL1	1	R1297T
612.811	0.599	622160	STUDY_ORIENT_OFF	n/a	n/a	2	4	GOAT	STOVE	STOVE	GOAT	5	[0, 0, 0]	-999	PAL1	1	R1297T
613.41	4.018	622759	STUDY_PAIR	n/a	wordpools/wordpool_EN.txt	2	4	GOAT	STOVE	STOVE	GOAT	5	[0, 0, 0]	-999	PAL1	1	R1297T
617.428	1.016	626776	PAIR_OFF	n/a	n/a	2	4	GOAT	STOVE	STOVE	GOAT	5	[0, 0, 0]	-999	PAL1	1	R1297T
618.444	0.268	627792	STUDY_ORIENT	n/a	n/a	3	5	ROOT	PASS	ROOT	APE	5	[0, 0, 0]	-999	PAL1	1	R1297T
618.712	0.733	628060	STUDY_ORIENT_OFF	n/a	n/a	3	5	ROOT	PASS	ROOT	APE	5	[0, 0, 0]	-999	PAL1	1	R1297T
619.445	4.017	628793	STUDY_PAIR	n/a	wordpools/wordpool_EN.txt	3	5	ROOT	PASS	ROOT	APE	5	[0, 0, 0]	-999	PAL1	1	R1297T
623.462	1.017	632810	PAIR_OFF	n/a	n/a	3	5	ROOT	PASS	ROOT	APE	5	[0, 0, 0]	-999	PAL1	1	R1297T
624.479	0.267	633827	STUDY_ORIENT	n/a	n/a	4	6	HAND	STORM	HAND	STORM	5	[0, 0, 0]	-999	PAL1	1	R1297T
624.746	0.566	634094	STUDY_ORIENT_OFF	n/a	n/a	4	6	HAND	STORM	HAND	STORM	5	[0, 0, 0]	-999	PAL1	1	R1297T
625.312	4.018	634660	STUDY_PAIR	n/a	wordpools/wordpool_EN.txt	4	6	HAND	STORM	HAND	STORM	5	[0, 0, 0]	-999	PAL1	1	R1297T
629.33	1.016	638678	PAIR_OFF	n/a	n/a	4	6	HAND	STORM	HAND	STORM	5	[0, 0, 0]	-999	PAL1	1	R1297T
630.346	0.267	639694	STUDY_ORIENT	n/a	n/a	5	1	RAKE	GLASS	RAKE	GLASS	5	[0, 0, 0]	-999	PAL1	1	R1297T
630.613	0.568	639961	STUDY_ORIENT_OFF	n/a	n/a	5	1	RAKE	GLASS	RAKE	GLASS	5	[0, 0, 0]	-999	PAL1	1	R1297T
631.181	4.016	640528	STUDY_PAIR	n/a	wordpools/wordpool_EN.txt	5	1	RAKE	GLASS	RAKE	GLASS	5	[0, 0, 0]	-999	PAL1	1	R1297T
635.197	1.017	644544	PAIR_OFF	n/a	n/a	5	1	RAKE	GLASS	RAKE	GLASS	5	[0, 0, 0]	-999	PAL1	1	R1297T
636.214	0.267	645561	STUDY_ORIENT	n/a	n/a	6	2	JUICE	TOE	TOE	JUICE	5	[0, 0, 0]	-999	PAL1	1	R1297T
636.481	0.75	645828	STUDY_ORIENT_OFF	n/a	n/a	6	2	JUICE	TOE	TOE	JUICE	5	[0, 0, 0]	-999	PAL1	1	R1297T
637.231	4.018	646578	STUDY_PAIR	n/a	wordpools/wordpool_EN.txt	6	2	JUICE	TOE	TOE	JUICE	5	[0, 0, 0]	-999	PAL1	1	R1297T
641.249	1.001	650596	PAIR_OFF	n/a	n/a	6	2	JUICE	TOE	TOE	JUICE	5	[0, 0, 0]	-999	PAL1	1	R1297T
642.25	0.0	651597	MATH_START	n/a	n/a	-999	-999	n/a	n/a	n/a	n/a	5	[0, 0, 0]	-999	PAL1	1	R1297T
642.25	0.0	651597	ENCODING_END	n/a	n/a	-999	-999	n/a	n/a	n/a	n/a	5	[0, 0, 0]	-999	PAL1	1	R1297T
642.25	0.015	651597	START	n/a	n/a	-999	-999	n/a	n/a	n/a	n/a	5	[-999, -999, -999]	-999	PAL1	1	R1297T
642.265	3.619	651612	PROB	3597	n/a	-999	-999	n/a	n/a	n/a	n/a	5	[9, 1, 5]	15	PAL1	1	R1297T
645.884	3.2	655231	PROB	3171	n/a	-999	-999	n/a	n/a	n/a	n/a	5	[8, 5, 5]	18	PAL1	1	R1297T
649.084	5.951	658430	PROB	5923	n/a	-999	-999	n/a	n/a	n/a	n/a	5	[9, 4, 9]	22	PAL1	1	R1297T
655.035	3.018	664381	PROB	2980	n/a	-999	-999	n/a	n/a	n/a	n/a	5	[8, 5, 5]	18	PAL1	1	R1297T
658.053	6.85	667399	PROB	6850	n/a	-999	-999	n/a	n/a	n/a	n/a	5	[8, 8, 9]	25	PAL1	1	R1297T
664.903	0.017	674248	STOP	n/a	n/a	-999	-999	n/a	n/a	n/a	n/a	5	[-999, -999, -999]	-999	PAL1	1	R1297T
664.92	0.001	674265	MATH_END	n/a	n/a	-999	-999	n/a	n/a	n/a	n/a	5	[0, 0, 0]	-999	PAL1	1	R1297T
664.921	0.016	674266	RECALL_START	n/a	n/a	-999	-999	n/a	n/a	n/a	n/a	5	[0, 0, 0]	-999	PAL1	1	R1297T
664.937	0.266	674282	TEST_ORIENT	n/a	n/a	5	1	RAKE	GLASS	RAKE	GLASS	5	[0, 0, 0]	-999	PAL1	1	R1297T
665.203	0.668	674548	RETRIEVAL_ORIENT_OFF	n/a	n/a	-999	-999	n/a	n/a	n/a	n/a	5	[0, 0, 0]	-999	PAL1	1	R1297T
665.871	0.0	675216	TEST_PROBE	n/a	wordpools/wordpool_EN.txt	5	1	RAKE	GLASS	RAKE	GLASS	5	[0, 0, 0]	-999	PAL1	1	R1297T
665.871	4.017	675216	REC_START	n/a	n/a	5	-999	n/a	GLASS	n/a	n/a	5	[0, 0, 0]	-999	PAL1	1	R1297T
669.888	0.698	679233	PROBE_OFF	n/a	n/a	5	-999	n/a	n/a	n/a	n/a	5	[0, 0, 0]	-999	PAL1	1	R1297T
670.586	0.302	679931	REC_EVENT	4715	n/a	5	1	RAKE	GLASS	RAKE	GLASS	5	[0, 0, 0]	-999	PAL1	1	R1297T
670.888	0.017	680233	REC_END	n/a	n/a	5	-999	n/a	n/a	n/a	n/a	5	[0, 0, 0]	-999	PAL1	1	R1297T
670.905	0.267	680250	TEST_ORIENT	n/a	n/a	6	2	JUICE	TOE	TOE	JUICE	5	[0, 0, 0]	-999	PAL1	1	R1297T
671.172	0.666	680517	RETRIEVAL_ORIENT_OFF	n/a	n/a	5	-999	n/a	n/a	n/a	n/a	5	[0, 0, 0]	-999	PAL1	1	R1297T
671.838	0.001	681183	TEST_PROBE	n/a	wordpools/wordpool_EN.txt	6	2	JUICE	TOE	TOE	JUICE	5	[0, 0, 0]	-999	PAL1	1	R1297T
671.839	1.395	681184	REC_START	n/a	n/a	6	-999	n/a	TOE	n/a	n/a	5	[0, 0, 0]	-999	PAL1	1	R1297T
673.234	2.622	682579	REC_EVENT	1395	n/a	6	2	JUICE	TOE	TOE	JUICE	5	[0, 0, 0]	-999	PAL1	1	R1297T
675.856	1.0	685201	PROBE_OFF	n/a	n/a	6	-999	n/a	n/a	n/a	n/a	5	[0, 0, 0]	-999	PAL1	1	R1297T
676.856	0.017	686201	REC_END	n/a	n/a	6	-999	n/a	n/a	n/a	n/a	5	[0, 0, 0]	-999	PAL1	1	R1297T
676.873	0.266	686218	TEST_ORIENT	n/a	n/a	1	3	VAN	HAWK	HAWK	VAN	5	[0, 0, 0]	-999	PAL1	1	R1297T
677.139	0.584	686484	RETRIEVAL_ORIENT_OFF	n/a	n/a	6	-999	n/a	n/a	n/a	n/a	5	[0, 0, 0]	-999	PAL1	1	R1297T
677.723	0.0	687068	TEST_PROBE	n/a	wordpools/wordpool_EN.txt	1	3	VAN	HAWK	HAWK	VAN	5	[0, 0, 0]	-999	PAL1	1	R1297T
677.723	1.202	687068	REC_START	n/a	n/a	1	-999	n/a	HAWK	n/a	n/a	5	[0, 0, 0]	-999	PAL1	1	R1297T
678.925	2.815	688270	REC_EVENT	1202	n/a	1	3	VAN	HAWK	HAWK	VAN	5	[0, 0, 0]	-999	PAL1	1	R1297T
681.74	1.001	691084	PROBE_OFF	n/a	n/a	1	-999	n/a	n/a	n/a	n/a	5	[0, 0, 0]	-999	PAL1	1	R1297T
682.741	0.016	692085	REC_END	n/a	n/a	1	-999	n/a	n/a	n/a	n/a	5	[0, 0, 0]	-999	PAL1	1	R1297T
682.757	0.267	692101	TEST_ORIENT	n/a	n/a	2	4	GOAT	STOVE	STOVE	GOAT	5	[0, 0, 0]	-999	PAL1	1	R1297T
683.024	0.549	692368	RETRIEVAL_ORIENT_OFF	n/a	n/a	1	-999	n/a	n/a	n/a	n/a	5	[0, 0, 0]	-999	PAL1	1	R1297T
683.573	0.0	692917	TEST_PROBE	n/a	wordpools/wordpool_EN.txt	2	4	GOAT	STOVE	STOVE	GOAT	5	[0, 0, 0]	-999	PAL1	1	R1297T
683.573	4.017	692917	REC_START	n/a	n/a	2	-999	n/a	STOVE	n/a	n/a	5	[0, 0, 0]	-999	PAL1	1	R1297T
687.59	0.175	696934	PROBE_OFF	n/a	n/a	2	-999	n/a	n/a	n/a	n/a	5	[0, 0, 0]	-999	PAL1	1	R1297T
687.765	0.825	697109	REC_EVENT	4192	n/a	2	4	GOAT	STOVE	STOVE	GOAT	5	[0, 0, 0]	-999	PAL1	1	R1297T
688.59	0.017	697934	REC_END	n/a	n/a	2	-999	n/a	n/a	n/a	n/a	5	[0, 0, 0]	-999	PAL1	1	R1297T
688.607	0.268	697951	TEST_ORIENT	n/a	n/a	3	5	ROOT	PASS	ROOT	APE	5	[0, 0, 0]	-999	PAL1	1	R1297T
688.875	0.716	698219	RETRIEVAL_ORIENT_OFF	n/a	n/a	2	-999	n/a	n/a	n/a	n/a	5	[0, 0, 0]	-999	PAL1	1	R1297T
689.591	0.0	698935	TEST_PROBE	n/a	wordpools/wordpool_EN.txt	3	5	ROOT	PASS	ROOT	APE	5	[0, 0, 0]	-999	PAL1	1	R1297T
689.591	2.964	698935	REC_START	n/a	n/a	3	-999	n/a	PASS	n/a	n/a	5	[0, 0, 0]	-999	PAL1	1	R1297T
692.555	1.053	701899	REC_EVENT	2964	n/a	3	5	ROOT	PASS	ROOT	APE	5	[0, 0, 0]	-999	PAL1	1	R1297T
693.608	1.0	702952	PROBE_OFF	n/a	n/a	3	-999	n/a	n/a	n/a	n/a	5	[0, 0, 0]	-999	PAL1	1	R1297T
694.608	0.018	703952	REC_END	n/a	n/a	3	-999	n/a	n/a	n/a	n/a	5	[0, 0, 0]	-999	PAL1	1	R1297T
694.626	0.267	703970	TEST_ORIENT	n/a	n/a	4	6	HAND	STORM	HAND	STORM	5	[0, 0, 0]	-999	PAL1	1	R1297T
694.893	0.515	704237	RETRIEVAL_ORIENT_OFF	n/a	n/a	3	-999	n/a	n/a	n/a	n/a	5	[0, 0, 0]	-999	PAL1	1	R1297T
695.408	0.001	704752	TEST_PROBE	n/a	wordpools/wordpool_EN.txt	4	6	HAND	STORM	HAND	STORM	5	[0, 0, 0]	-999	PAL1	1	R1297T
695.409	3.054	704753	REC_START	n/a	n/a	4	-999	n/a	STORM	n/a	n/a	5	[0, 0, 0]	-999	PAL1	1	R1297T
698.463	0.963	707806	REC_EVENT	3054	n/a	4	6	HAND	STORM	HAND	STORM	5	[0, 0, 0]	-999	PAL1	1	R1297T
699.426	1.0	708769	PROBE_OFF	n/a	n/a	4	-999	n/a	n/a	n/a	n/a	5	[0, 0, 0]	-999	PAL1	1	R1297T
700.426	0.01	709769	REC_END	n/a	n/a	4	-999	n/a	n/a	n/a	n/a	5	[0, 0, 0]	-999	PAL1	1	R1297T
700.436	5.208	709779	RECALL_END	n/a	n/a	-999	-999	n/a	n/a	n/a	n/a	5	[0, 0, 0]	-999	PAL1	1	R1297T
705.644	10.928	714987	TRIAL	n/a	n/a	-999	-999	n/a	n/a	n/a	n/a	6	[0, 0, 0]	-999	PAL1	1	R1297T
716.572	0.007	725914	ENCODING_START	n/a	n/a	-999	-999	n/a	n/a	n/a	n/a	6	[0, 0, 0]	-999	PAL1	1	R1297T
716.579	0.267	725921	STUDY_ORIENT	n/a	n/a	1	5	DUCK	PASS	DUCK	BAND	6	[0, 0, 0]	-999	PAL1	1	R1297T
716.846	0.7	726188	STUDY_ORIENT_OFF	n/a	n/a	1	5	DUCK	PASS	DUCK	BAND	6	[0, 0, 0]	-999	PAL1	1	R1297T
717.546	4.017	726888	STUDY_PAIR	n/a	wordpools/wordpool_EN.txt	1	5	DUCK	PASS	DUCK	BAND	6	[0, 0, 0]	-999	PAL1	1	R1297T
721.563	1.017	730905	PAIR_OFF	n/a	n/a	1	5	DUCK	PASS	DUCK	BAND	6	[0, 0, 0]	-999	PAL1	1	R1297T
722.58	0.268	731922	STUDY_ORIENT	n/a	n/a	2	6	CHALK	PASS	MOTH	CHALK	6	[0, 0, 0]	-999	PAL1	1	R1297T
722.848	0.682	732190	STUDY_ORIENT_OFF	n/a	n/a	2	6	CHALK	PASS	MOTH	CHALK	6	[0, 0, 0]	-999	PAL1	1	R1297T
723.53	4.018	732872	STUDY_PAIR	n/a	wordpools/wordpool_EN.txt	2	6	CHALK	PASS	MOTH	CHALK	6	[0, 0, 0]	-999	PAL1	1	R1297T
727.548	1.016	736890	PAIR_OFF	n/a	n/a	2	6	CHALK	PASS	MOTH	CHALK	6	[0, 0, 0]	-999	PAL1	1	R1297T
728.564	0.268	737906	STUDY_ORIENT	n/a	n/a	3	3	DART	DESK	DESK	DART	6	[0, 0, 0]	-999	PAL1	1	R1297T
728.832	0.649	738174	STUDY_ORIENT_OFF	n/a	n/a	3	3	DART	DESK	DESK	DART	6	[0, 0, 0]	-999	PAL1	1	R1297T
729.481	4.018	738823	STUDY_PAIR	n/a	wordpools/wordpool_EN.txt	3	3	DART	DESK	DESK	DART	6	[0, 0, 0]	-999	PAL1	1	R1297T
733.499	1.016	742840	PAIR_OFF	n/a	n/a	3	3	DART	DESK	DESK	DART	6	[0, 0, 0]	-999	PAL1	1	R1297T
734.515	0.251	743856	STUDY_ORIENT	n/a	n/a	4	2	BRICK	BARN	FARM	BRICK	6	[0, 0, 0]	-999	PAL1	1	R1297T
734.766	0.75	744107	STUDY_ORIENT_OFF	n/a	n/a	4	2	BRICK	BARN	FARM	BRICK	6	[0, 0, 0]	-999	PAL1	1	R1297T
735.516	4.017	744857	STUDY_PAIR	n/a	wordpools/wordpool_EN.txt	4	2	BRICK	BARN	FARM	BRICK	6	[0, 0, 0]	-999	PAL1	1	R1297T
739.533	1.017	748874	PAIR_OFF	n/a	n/a	4	2	BRICK	BARN	FARM	BRICK	6	[0, 0, 0]	-999	PAL1	1	R1297T
740.55	0.268	749891	STUDY_ORIENT	n/a	n/a	5	1	WHALE	WOLF	WHALE	WOLF	6	[0, 0, 0]	-999	PAL1	1	R1297T
740.818	0.549	750159	STUDY_ORIENT_OFF	n/a	n/a	5	1	WHALE	WOLF	WHALE	WOLF	6	[0, 0, 0]	-999	PAL1	1	R1297T
741.367	4.017	750708	STUDY_PAIR	n/a	wordpools/wordpool_EN.txt	5	1	WHALE	WOLF	WHALE	WOLF	6	[0, 0, 0]	-999	PAL1	1	R1297T
745.384	1.017	754725	PAIR_OFF	n/a	n/a	5	1	WHALE	WOLF	WHALE	WOLF	6	[0, 0, 0]	-999	PAL1	1	R1297T
746.401	0.268	755742	STUDY_ORIENT	n/a	n/a	6	4	PASTE	BRIDGE	BRIDGE	PASTE	6	[0, 0, 0]	-999	PAL1	1	R1297T
746.669	0.732	756010	STUDY_ORIENT_OFF	n/a	n/a	6	4	PASTE	BRIDGE	BRIDGE	PASTE	6	[0, 0, 0]	-999	PAL1	1	R1297T
747.401	4.017	756741	STUDY_PAIR	n/a	wordpools/wordpool_EN.txt	6	4	PASTE	BRIDGE	BRIDGE	PASTE	6	[0, 0, 0]	-999	PAL1	1	R1297T
751.418	1.0	760758	PAIR_OFF	n/a	n/a	6	4	PASTE	BRIDGE	BRIDGE	PASTE	6	[0, 0, 0]	-999	PAL1	1	R1297T
752.418	0.0	761758	ENCODING_END	n/a	n/a	-999	-999	n/a	n/a	n/a	n/a	6	[0, 0, 0]	-999	PAL1	1	R1297T
752.418	0.0	761758	MATH_START	n/a	n/a	-999	-999	n/a	n/a	n/a	n/a	6	[0, 0, 0]	-999	PAL1	1	R1297T
752.418	0.017	761758	START	n/a	n/a	-999	-999	n/a	n/a	n/a	n/a	6	[-999, -999, -999]	-999	PAL1	1	R1297T
752.435	3.884	761775	PROB	3858	n/a	-999	-999	n/a	n/a	n/a	n/a	6	[8, 1, 9]	18	PAL1	1	R1297T
756.319	3.669	765659	PROB	3639	n/a	-999	-999	n/a	n/a	n/a	n/a	6	[3, 5, 9]	17	PAL1	1	R1297T
759.988	3.734	769328	PROB	3699	n/a	-999	-999	n/a	n/a	n/a	n/a	6	[3, 1, 7]	11	PAL1	1	R1297T
763.722	3.167	773061	PROB	3141	n/a	-999	-999	n/a	n/a	n/a	n/a	6	[7, 1, 9]	17	PAL1	1	R1297T
766.889	2.699	776228	PROB	2676	n/a	-999	-999	n/a	n/a	n/a	n/a	6	[8, 2, 2]	12	PAL1	1	R1297T
769.588	13.074	778927	PROB	13074	n/a	-999	-999	n/a	n/a	n/a	n/a	6	[7, 8, 6]	21	PAL1	1	R1297T
782.662	0.013	792000	STOP	n/a	n/a	-999	-999	n/a	n/a	n/a	n/a	6	[-999, -999, -999]	-999	PAL1	1	R1297T
782.675	0.0	792013	RECALL_START	n/a	n/a	-999	-999	n/a	n/a	n/a	n/a	6	[0, 0, 0]	-999	PAL1	1	R1297T
782.675	0.017	792013	MATH_END	n/a	n/a	-999	-999	n/a	n/a	n/a	n/a	6	[0, 0, 0]	-999	PAL1	1	R1297T
782.692	0.267	792030	TEST_ORIENT	n/a	n/a	5	1	WHALE	WOLF	WHALE	WOLF	6	[0, 0, 0]	-999	PAL1	1	R1297T
782.959	0.565	792297	RETRIEVAL_ORIENT_OFF	n/a	n/a	-999	-999	n/a	n/a	n/a	n/a	6	[0, 0, 0]	-999	PAL1	1	R1297T
783.524	0.001	792862	TEST_PROBE	n/a	wordpools/wordpool_EN.txt	5	1	WHALE	WOLF	WHALE	WOLF	6	[0, 0, 0]	-999	PAL1	1	R1297T
783.525	1.784	792863	REC_START	n/a	n/a	5	-999	n/a	WOLF	n/a	n/a	6	[0, 0, 0]	-999	PAL1	1	R1297T
785.309	2.233	794647	REC_EVENT	1784	n/a	5	1	WHALE	WOLF	WHALE	WOLF	6	[0, 0, 0]	-999	PAL1	1	R1297T
787.542	1.011	796880	PROBE_OFF	n/a	n/a	5	-999	n/a	n/a	n/a	n/a	6	[0, 0, 0]	-999	PAL1	1	R1297T
788.553	0.022	797891	REC_END	n/a	n/a	5	-999	n/a	n/a	n/a	n/a	6	[0, 0, 0]	-999	PAL1	1	R1297T
788.575	0.268	797913	TEST_ORIENT	n/a	n/a	4	2	BRICK	BARN	FARM	BRICK	6	[0, 0, 0]	-999	PAL1	1	R1297T
788.843	0.532	798181	RETRIEVAL_ORIENT_OFF	n/a	n/a	5	-999	n/a	n/a	n/a	n/a	6	[0, 0, 0]	-999	PAL1	1	R1297T
789.375	0.001	798713	TEST_PROBE	n/a	wordpools/wordpool_EN.txt	4	2	BRICK	BARN	FARM	BRICK	6	[0, 0, 0]	-999	PAL1	1	R1297T
789.376	1.399	798714	REC_START	n/a	n/a	4	-999	n/a	BARN	n/a	n/a	6	[0, 0, 0]	-999	PAL1	1	R1297T
790.775	2.618	800113	REC_EVENT	1399	n/a	4	2	BRICK	BARN	FARM	BRICK	6	[0, 0, 0]	-999	PAL1	1	R1297T
793.393	1.012	802731	PROBE_OFF	n/a	n/a	4	-999	n/a	n/a	n/a	n/a	6	[0, 0, 0]	-999	PAL1	1	R1297T
794.405	0.021	803743	REC_END	n/a	n/a	4	-999	n/a	n/a	n/a	n/a	6	[0, 0, 0]	-999	PAL1	1	R1297T
794.426	0.251	803764	TEST_ORIENT	n/a	n/a	3	3	DART	DESK	DESK	DART	6	[0, 0, 0]	-999	PAL1	1	R1297T
794.677	0.749	804015	RETRIEVAL_ORIENT_OFF	n/a	n/a	4	-999	n/a	n/a	n/a	n/a	6	[0, 0, 0]	-999	PAL1	1	R1297T
795.426	0.001	804764	TEST_PROBE	n/a	wordpools/wordpool_EN.txt	3	3	DART	DESK	DESK	DART	6	[0, 0, 0]	-999	PAL1	1	R1297T
795.427	1.181	804765	REC_START	n/a	n/a	3	-999	n/a	DESK	n/a	n/a	6	[0, 0, 0]	-999	PAL1	1	R1297T
796.608	2.836	805946	REC_EVENT	1181	n/a	3	3	DART	DESK	DESK	DART	6	[0, 0, 0]	-999	PAL1	1	R1297T
799.444	1.0	808781	PROBE_OFF	n/a	n/a	3	-999	n/a	n/a	n/a	n/a	6	[0, 0, 0]	-999	PAL1	1	R1297T
800.444	0.017	809781	REC_END	n/a	n/a	3	-999	n/a	n/a	n/a	n/a	6	[0, 0, 0]	-999	PAL1	1	R1297T
800.461	0.267	809798	TEST_ORIENT	n/a	n/a	6	4	PASTE	BRIDGE	BRIDGE	PASTE	6	[0, 0, 0]	-999	PAL1	1	R1297T
800.728	0.666	810065	RETRIEVAL_ORIENT_OFF	n/a	n/a	3	-999	n/a	n/a	n/a	n/a	6	[0, 0, 0]	-999	PAL1	1	R1297T
801.394	0.001	810731	TEST_PROBE	n/a	wordpools/wordpool_EN.txt	6	4	PASTE	BRIDGE	BRIDGE	PASTE	6	[0, 0, 0]	-999	PAL1	1	R1297T
801.395	2.441	810732	REC_START	n/a	n/a	6	-999	n/a	BRIDGE	n/a	n/a	6	[0, 0, 0]	-999	PAL1	1	R1297T
803.836	1.576	813173	REC_EVENT	2441	n/a	6	4	PASTE	BRIDGE	BRIDGE	PASTE	6	[0, 0, 0]	-999	PAL1	1	R1297T
805.412	1.0	814749	PROBE_OFF	n/a	n/a	6	-999	n/a	n/a	n/a	n/a	6	[0, 0, 0]	-999	PAL1	1	R1297T
806.412	0.016	815749	REC_END	n/a	n/a	6	-999	n/a	n/a	n/a	n/a	6	[0, 0, 0]	-999	PAL1	1	R1297T
806.428	0.268	815765	TEST_ORIENT	n/a	n/a	1	5	DUCK	PASS	DUCK	BAND	6	[0, 0, 0]	-999	PAL1	1	R1297T
806.696	0.549	816033	RETRIEVAL_ORIENT_OFF	n/a	n/a	6	-999	n/a	n/a	n/a	n/a	6	[0, 0, 0]	-999	PAL1	1	R1297T
807.245	0.001	816582	TEST_PROBE	n/a	wordpools/wordpool_EN.txt	1	5	DUCK	PASS	DUCK	BAND	6	[0, 0, 0]	-999	PAL1	1	R1297T
807.246	4.017	816583	REC_START	n/a	n/a	1	-999	n/a	PASS	n/a	n/a	6	[0, 0, 0]	-999	PAL1	1	R1297T
811.263	0.484	820600	PROBE_OFF	n/a	n/a	1	-999	n/a	n/a	n/a	n/a	6	[0, 0, 0]	-999	PAL1	1	R1297T
811.747	0.516	821084	REC_EVENT	4501	n/a	1	5	DUCK	PASS	DUCK	BAND	6	[0, 0, 0]	-999	PAL1	1	R1297T
812.263	0.017	821600	REC_END	n/a	n/a	1	-999	n/a	n/a	n/a	n/a	6	[0, 0, 0]	-999	PAL1	1	R1297T
812.28	0.266	821617	TEST_ORIENT	n/a	n/a	2	6	CHALK	PASS	MOTH	CHALK	6	[0, 0, 0]	-999	PAL1	1	R1297T
812.546	0.734	821883	RETRIEVAL_ORIENT_OFF	n/a	n/a	1	-999	n/a	n/a	n/a	n/a	6	[0, 0, 0]	-999	PAL1	1	R1297T
813.28	0.0	822617	TEST_PROBE	n/a	wordpools/wordpool_EN.txt	2	6	CHALK	PASS	MOTH	CHALK	6	[0, 0, 0]	-999	PAL1	1	R1297T
813.28	4.017	822617	REC_START	n/a	n/a	2	-999	n/a	PASS	n/a	n/a	6	[0, 0, 0]	-999	PAL1	1	R1297T
817.297	0.189	826633	PROBE_OFF	n/a	n/a	2	-999	n/a	n/a	n/a	n/a	6	[0, 0, 0]	-999	PAL1	1	R1297T
817.486	0.811	826822	REC_EVENT	4206	n/a	2	6	CHALK	PASS	MOTH	CHALK	6	[0, 0, 0]	-999	PAL1	1	R1297T
818.297	0.011	827633	REC_END	n/a	n/a	2	-999	n/a	n/a	n/a	n/a	6	[0, 0, 0]	-999	PAL1	1	R1297T
818.308	5.057	827644	RECALL_END	n/a	n/a	-999	-999	n/a	n/a	n/a	n/a	6	[0, 0, 0]	-999	PAL1	1	R1297T
823.365	10.929	832701	TRIAL	n/a	n/a	-999	-999	n/a	n/a	n/a	n/a	7	[0, 0, 0]	-999	PAL1	1	R1297T
834.294	0.006	843629	ENCODING_START	n/a	n/a	-999	-999	n/a	n/a	n/a	n/a	7	[0, 0, 0]	-999	PAL1	1	R1297T
834.3	0.267	843635	STUDY_ORIENT	n/a	n/a	1	3	CLOCK	SUN	CLOCK	SUN	7	[0, 0, 0]	-999	PAL1	1	R1297T
834.567	0.601	843902	STUDY_ORIENT_OFF	n/a	n/a	1	3	CLOCK	SUN	CLOCK	SUN	7	[0, 0, 0]	-999	PAL1	1	R1297T
835.168	4.017	844503	STUDY_PAIR	n/a	wordpools/wordpool_EN.txt	1	3	CLOCK	SUN	CLOCK	SUN	7	[0, 0, 0]	-999	PAL1	1	R1297T
839.185	1.016	848520	PAIR_OFF	n/a	n/a	1	3	CLOCK	SUN	CLOCK	SUN	7	[0, 0, 0]	-999	PAL1	1	R1297T
840.201	0.267	849536	STUDY_ORIENT	n/a	n/a	2	2	PALM	PASS	TOOL	PALM	7	[0, 0, 0]	-999	PAL1	1	R1297T
840.468	0.568	849803	STUDY_ORIENT_OFF	n/a	n/a	2	2	PALM	PASS	TOOL	PALM	7	[0, 0, 0]	-999	PAL1	1	R1297T
841.036	4.017	850371	STUDY_PAIR	n/a	wordpools/wordpool_EN.txt	2	2	PALM	PASS	TOOL	PALM	7	[0, 0, 0]	-999	PAL1	1	R1297T
845.053	1.017	854388	PAIR_OFF	n/a	n/a	2	2	PALM	PASS	TOOL	PALM	7	[0, 0, 0]	-999	PAL1	1	R1297T
846.07	0.266	855405	STUDY_ORIENT	n/a	n/a	3	5	SHRIMP	CLOWN	SHRIMP	CLOWN	7	[0, 0, 0]	-999	PAL1	1	R1297T
846.336	0.517	855671	STUDY_ORIENT_OFF	n/a	n/a	3	5	SHRIMP	CLOWN	SHRIMP	CLOWN	7	[0, 0, 0]	-999	PAL1	1	R1297T
846.853	4.001	856187	STUDY_PAIR	n/a	wordpools/wordpool_EN.txt	3	5	SHRIMP	CLOWN	SHRIMP	CLOWN	7	[0, 0, 0]	-999	PAL1	1	R1297T
850.854	1.017	860188	PAIR_OFF	n/a	n/a	3	5	SHRIMP	CLOWN	SHRIMP	CLOWN	7	[0, 0, 0]	-999	PAL1	1	R1297T
851.871	0.267	861205	STUDY_ORIENT	n/a	n/a	4	6	CUBE	PASS	KEY	CUBE	7	[0, 0, 0]	-999	PAL1	1	R1297T
852.138	0.683	861472	STUDY_ORIENT_OFF	n/a	n/a	4	6	CUBE	PASS	KEY	CUBE	7	[0, 0, 0]	-999	PAL1	1	R1297T
852.821	4.018	862155	STUDY_PAIR	n/a	wordpools/wordpool_EN.txt	4	6	CUBE	PASS	KEY	CUBE	7	[0, 0, 0]	-999	PAL1	1	R1297T
856.839	1.016	866173	PAIR_OFF	n/a	n/a	4	6	CUBE	PASS	KEY	CUBE	7	[0, 0, 0]	-999	PAL1	1	R1297T
857.855	0.267	867189	STUDY_ORIENT	n/a	n/a	5	1	NET	PASS	TOAD	NET	7	[0, 0, 0]	-999	PAL1	1	R1297T
858.122	0.7	867456	STUDY_ORIENT_OFF	n/a	n/a	5	1	NET	PASS	TOAD	NET	7	[0, 0, 0]	-999	PAL1	1	R1297T
858.822	4.018	868156	STUDY_PAIR	n/a	wordpools/wordpool_EN.txt	5	1	NET	PASS	TOAD	NET	7	[0, 0, 0]	-999	PAL1	1	R1297T
862.84	1.017	872174	PAIR_OFF	n/a	n/a	5	1	NET	PASS	TOAD	NET	7	[0, 0, 0]	-999	PAL1	1	R1297T
863.857	0.266	873190	STUDY_ORIENT	n/a	n/a	6	4	SUIT	PHONE	PHONE	SUIT	7	[0, 0, 0]	-999	PAL1	1	R1297T
864.123	0.534	873456	STUDY_ORIENT_OFF	n/a	n/a	6	4	SUIT	PHONE	PHONE	SUIT	7	[0, 0, 0]	-999	PAL1	1	R1297T
864.657	4.017	873990	STUDY_PAIR	n/a	wordpools/wordpool_EN.txt	6	4	SUIT	PHONE	PHONE	SUIT	7	[0, 0, 0]	-999	PAL1	1	R1297T
868.674	1.0	878007	PAIR_OFF	n/a	n/a	6	4	SUIT	PHONE	PHONE	SUIT	7	[0, 0, 0]	-999	PAL1	1	R1297T
869.674	0.0	879007	ENCODING_END	n/a	n/a	-999	-999	n/a	n/a	n/a	n/a	7	[0, 0, 0]	-999	PAL1	1	R1297T
869.674	0.0	879007	MATH_START	n/a	n/a	-999	-999	n/a	n/a	n/a	n/a	7	[0, 0, 0]	-999	PAL1	1	R1297T
869.674	0.017	879007	START	n/a	n/a	-999	-999	n/a	n/a	n/a	n/a	7	[-999, -999, -999]	-999	PAL1	1	R1297T
869.691	3.566	879024	PROB	3531	n/a	-999	-999	n/a	n/a	n/a	n/a	7	[7, 8, 3]	18	PAL1	1	R1297T
873.257	3.301	882590	PROB	3269	n/a	-999	-999	n/a	n/a	n/a	n/a	7	[8, 1, 9]	18	PAL1	1	R1297T
876.558	4.017	885891	PROB	3983	n/a	-999	-999	n/a	n/a	n/a	n/a	7	[7, 5, 4]	16	PAL1	1	R1297T
880.575	3.634	889907	PROB	3599	n/a	-999	-999	n/a	n/a	n/a	n/a	7	[1, 9, 8]	18	PAL1	1	R1297T
884.209	8.974	893541	PROB	8974	n/a	-999	-999	n/a	n/a	n/a	n/a	7	[4, 9, 2]	15	PAL1	1	R1297T
893.183	0.011	902515	STOP	n/a	n/a	-999	-999	n/a	n/a	n/a	n/a	7	[-999, -999, -999]	-999	PAL1	1	R1297T
893.194	0.0	902526	RECALL_START	n/a	n/a	-999	-999	n/a	n/a	n/a	n/a	7	[0, 0, 0]	-999	PAL1	1	R1297T
893.194	0.017	902526	MATH_END	n/a	n/a	-999	-999	n/a	n/a	n/a	n/a	7	[0, 0, 0]	-999	PAL1	1	R1297T
893.211	0.267	902543	TEST_ORIENT	n/a	n/a	5	1	NET	PASS	TOAD	NET	7	[0, 0, 0]	-999	PAL1	1	R1297T
893.478	0.567	902810	RETRIEVAL_ORIENT_OFF	n/a	n/a	-999	-999	n/a	n/a	n/a	n/a	7	[0, 0, 0]	-999	PAL1	1	R1297T
894.045	0.001	903377	TEST_PROBE	n/a	wordpools/wordpool_EN.txt	5	1	NET	PASS	TOAD	NET	7	[0, 0, 0]	-999	PAL1	1	R1297T
894.046	2.528	903378	REC_START	n/a	n/a	5	-999	n/a	PASS	n/a	n/a	7	[0, 0, 0]	-999	PAL1	1	R1297T
896.574	1.489	905905	REC_EVENT	2528	n/a	5	1	NET	PASS	TOAD	NET	7	[0, 0, 0]	-999	PAL1	1	R1297T
898.063	1.0	907394	PROBE_OFF	n/a	n/a	5	-999	n/a	n/a	n/a	n/a	7	[0, 0, 0]	-999	PAL1	1	R1297T
899.063	0.017	908394	REC_END	n/a	n/a	5	-999	n/a	n/a	n/a	n/a	7	[0, 0, 0]	-999	PAL1	1	R1297T
899.08	0.265	908411	TEST_ORIENT	n/a	n/a	2	2	PALM	PASS	TOOL	PALM	7	[0, 0, 0]	-999	PAL1	1	R1297T
899.345	0.535	908676	RETRIEVAL_ORIENT_OFF	n/a	n/a	5	-999	n/a	n/a	n/a	n/a	7	[0, 0, 0]	-999	PAL1	1	R1297T
899.88	0.0	909211	TEST_PROBE	n/a	wordpools/wordpool_EN.txt	2	2	PALM	PASS	TOOL	PALM	7	[0, 0, 0]	-999	PAL1	1	R1297T
899.88	4.017	909211	REC_START	n/a	n/a	2	-999	n/a	PASS	n/a	n/a	7	[0, 0, 0]	-999	PAL1	1	R1297T
903.897	0.125	913228	PROBE_OFF	n/a	n/a	2	-999	n/a	n/a	n/a	n/a	7	[0, 0, 0]	-999	PAL1	1	R1297T
904.022	0.875	913353	REC_EVENT	4142	n/a	2	2	PALM	PASS	TOOL	PALM	7	[0, 0, 0]	-999	PAL1	1	R1297T
904.897	0.017	914228	REC_END	n/a	n/a	2	-999	n/a	n/a	n/a	n/a	7	[0, 0, 0]	-999	PAL1	1	R1297T
904.914	0.267	914245	TEST_ORIENT	n/a	n/a	1	3	CLOCK	SUN	CLOCK	SUN	7	[0, 0, 0]	-999	PAL1	1	R1297T
905.181	0.633	914512	RETRIEVAL_ORIENT_OFF	n/a	n/a	2	-999	n/a	n/a	n/a	n/a	7	[0, 0, 0]	-999	PAL1	1	R1297T
905.814	0.001	915145	TEST_PROBE	n/a	wordpools/wordpool_EN.txt	1	3	CLOCK	SUN	CLOCK	SUN	7	[0, 0, 0]	-999	PAL1	1	R1297T
905.815	1.043	915146	REC_START	n/a	n/a	1	-999	n/a	SUN	n/a	n/a	7	[0, 0, 0]	-999	PAL1	1	R1297T
906.858	2.974	916189	REC_EVENT	1043	n/a	1	3	CLOCK	SUN	CLOCK	SUN	7	[0, 0, 0]	-999	PAL1	1	R1297T
909.832	1.0	919163	PROBE_OFF	n/a	n/a	1	-999	n/a	n/a	n/a	n/a	7	[0, 0, 0]	-999	PAL1	1	R1297T
910.832	0.016	920163	REC_END	n/a	n/a	1	-999	n/a	n/a	n/a	n/a	7	[0, 0, 0]	-999	PAL1	1	R1297T
910.848	0.267	920179	TEST_ORIENT	n/a	n/a	6	4	SUIT	PHONE	PHONE	SUIT	7	[0, 0, 0]	-999	PAL1	1	R1297T
911.115	0.534	920446	RETRIEVAL_ORIENT_OFF	n/a	n/a	1	-999	n/a	n/a	n/a	n/a	7	[0, 0, 0]	-999	PAL1	1	R1297T
911.649	0.0	920980	TEST_PROBE	n/a	wordpools/wordpool_EN.txt	6	4	SUIT	PHONE	PHONE	SUIT	7	[0, 0, 0]	-999	PAL1	1	R1297T
911.649	1.173	920980	REC_START	n/a	n/a	6	-999	n/a	PHONE	n/a	n/a	7	[0, 0, 0]	-999	PAL1	1	R1297T
912.822	2.844	922153	REC_EVENT	1173	n/a	6	4	SUIT	PHONE	PHONE	SUIT	7	[0, 0, 0]	-999	PAL1	1	R1297T
915.666	1.0	924996	PROBE_OFF	n/a	n/a	6	-999	n/a	n/a	n/a	n/a	7	[0, 0, 0]	-999	PAL1	1	R1297T
916.666	0.017	925996	REC_END	n/a	n/a	6	-999	n/a	n/a	n/a	n/a	7	[0, 0, 0]	-999	PAL1	1	R1297T
916.683	0.267	926013	TEST_ORIENT	n/a	n/a	3	5	SHRIMP	CLOWN	SHRIMP	CLOWN	7	[0, 0, 0]	-999	PAL1	1	R1297T
916.95	0.565	926280	RETRIEVAL_ORIENT_OFF	n/a	n/a	6	-999	n/a	n/a	n/a	n/a	7	[0, 0, 0]	-999	PAL1	1	R1297T
917.515	0.001	926845	TEST_PROBE	n/a	wordpools/wordpool_EN.txt	3	5	SHRIMP	CLOWN	SHRIMP	CLOWN	7	[0, 0, 0]	-999	PAL1	1	R1297T
917.516	1.471	926846	REC_START	n/a	n/a	3	-999	n/a	CLOWN	n/a	n/a	7	[0, 0, 0]	-999	PAL1	1	R1297T
918.987	2.546	928317	REC_EVENT	1471	n/a	3	5	SHRIMP	CLOWN	SHRIMP	CLOWN	7	[0, 0, 0]	-999	PAL1	1	R1297T
921.533	1.011	930863	PROBE_OFF	n/a	n/a	3	-999	n/a	n/a	n/a	n/a	7	[0, 0, 0]	-999	PAL1	1	R1297T
922.544	0.022	931874	REC_END	n/a	n/a	3	-999	n/a	n/a	n/a	n/a	7	[0, 0, 0]	-999	PAL1	1	R1297T
922.566	0.268	931896	TEST_ORIENT	n/a	n/a	4	6	CUBE	PASS	KEY	CUBE	7	[0, 0, 0]	-999	PAL1	1	R1297T
922.834	0.516	932164	RETRIEVAL_ORIENT_OFF	n/a	n/a	3	-999	n/a	n/a	n/a	n/a	7	[0, 0, 0]	-999	PAL1	1	R1297T
923.35	0.0	932680	TEST_PROBE	n/a	wordpools/wordpool_EN.txt	4	6	CUBE	PASS	KEY	CUBE	7	[0, 0, 0]	-999	PAL1	1	R1297T
923.35	3.667	932680	REC_START	n/a	n/a	4	-999	n/a	PASS	n/a	n/a	7	[0, 0, 0]	-999	PAL1	1	R1297T
927.017	0.35	936347	REC_EVENT	3667	n/a	4	6	CUBE	PASS	KEY	CUBE	7	[0, 0, 0]	-999	PAL1	1	R1297T
927.367	1.0	936697	PROBE_OFF	n/a	n/a	4	-999	n/a	n/a	n/a	n/a	7	[0, 0, 0]	-999	PAL1	1	R1297T
928.367	0.01	937697	REC_END	n/a	n/a	4	-999	n/a	n/a	n/a	n/a	7	[0, 0, 0]	-999	PAL1	1	R1297T
928.377	4.958	937707	RECALL_END	n/a	n/a	-999	-999	n/a	n/a	n/a	n/a	7	[0, 0, 0]	-999	PAL1	1	R1297T
933.335	10.929	942664	TRIAL	n/a	n/a	-999	-999	n/a	n/a	n/a	n/a	8	[0, 0, 0]	-999	PAL1	1	R1297T
944.264	0.006	953593	ENCODING_START	n/a	n/a	-999	-999	n/a	n/a	n/a	n/a	8	[0, 0, 0]	-999	PAL1	1	R1297T
944.27	0.267	953599	STUDY_ORIENT	n/a	n/a	1	3	STAIR	n/a	DITCH	STAIR	8	[0, 0, 0]	-999	PAL1	1	R1297T
944.537	0.683	953866	STUDY_ORIENT_OFF	n/a	n/a	1	3	STAIR	n/a	DITCH	STAIR	8	[0, 0, 0]	-999	PAL1	1	R1297T
945.22	4.018	954549	STUDY_PAIR	n/a	wordpools/wordpool_EN.txt	1	3	STAIR	n/a	DITCH	STAIR	8	[0, 0, 0]	-999	PAL1	1	R1297T
949.238	1.017	958566	PAIR_OFF	n/a	n/a	1	3	STAIR	n/a	DITCH	STAIR	8	[0, 0, 0]	-999	PAL1	1	R1297T
950.255	0.266	959583	STUDY_ORIENT	n/a	n/a	2	6	SLIME	DRESS	DRESS	SLIME	8	[0, 0, 0]	-999	PAL1	1	R1297T
950.521	0.684	959849	STUDY_ORIENT_OFF	n/a	n/a	2	6	SLIME	DRESS	DRESS	SLIME	8	[0, 0, 0]	-999	PAL1	1	R1297T
951.205	4.017	960533	STUDY_PAIR	n/a	wordpools/wordpool_EN.txt	2	6	SLIME	DRESS	DRESS	SLIME	8	[0, 0, 0]	-999	PAL1	1	R1297T
955.222	1.017	964550	PAIR_OFF	n/a	n/a	2	6	SLIME	DRESS	DRESS	SLIME	8	[0, 0, 0]	-999	PAL1	1	R1297T
956.239	0.267	965567	STUDY_ORIENT	n/a	n/a	3	1	CALF	PIG	PIG	CALF	8	[0, 0, 0]	-999	PAL1	1	R1297T
956.506	0.7	965834	STUDY_ORIENT_OFF	n/a	n/a	3	1	CALF	PIG	PIG	CALF	8	[0, 0, 0]	-999	PAL1	1	R1297T
957.206	4.017	966534	STUDY_PAIR	n/a	wordpools/wordpool_EN.txt	3	1	CALF	PIG	PIG	CALF	8	[0, 0, 0]	-999	PAL1	1	R1297T
961.223	1.017	970551	PAIR_OFF	n/a	n/a	3	1	CALF	PIG	PIG	CALF	8	[0, 0, 0]	-999	PAL1	1	R1297T
962.24	0.267	971568	STUDY_ORIENT	n/a	n/a	4	4	CROW	PASS	CROW	BOWL	8	[0, 0, 0]	-999	PAL1	1	R1297T
962.507	0.534	971835	STUDY_ORIENT_OFF	n/a	n/a	4	4	CROW	PASS	CROW	BOWL	8	[0, 0, 0]	-999	PAL1	1	R1297T
963.041	4.018	972368	STUDY_PAIR	n/a	wordpools/wordpool_EN.txt	4	4	CROW	PASS	CROW	BOWL	8	[0, 0, 0]	-999	PAL1	1	R1297T
967.059	1.017	976386	PAIR_OFF	n/a	n/a	4	4	CROW	PASS	CROW	BOWL	8	[0, 0, 0]	-999	PAL1	1	R1297T
968.076	0.265	977403	STUDY_ORIENT	n/a	n/a	5	5	LOCK	PASS	LOCK	SPONGE	8	[0, 0, 0]	-999	PAL1	1	R1297T
968.341	0.535	977668	STUDY_ORIENT_OFF	n/a	n/a	5	5	LOCK	PASS	LOCK	SPONGE	8	[0, 0, 0]	-999	PAL1	1	R1297T
968.876	4.017	978203	STUDY_PAIR	n/a	wordpools/wordpool_EN.txt	5	5	LOCK	PASS	LOCK	SPONGE	8	[0, 0, 0]	-999	PAL1	1	R1297T
972.893	1.017	982220	PAIR_OFF	n/a	n/a	5	5	LOCK	PASS	LOCK	SPONGE	8	[0, 0, 0]	-999	PAL1	1	R1297T
973.91	0.267	983237	STUDY_ORIENT	n/a	n/a	6	2	BAG	PASS	BUSH	BAG	8	[0, 0, 0]	-999	PAL1	1	R1297T
974.177	0.566	983504	STUDY_ORIENT_OFF	n/a	n/a	6	2	BAG	PASS	BUSH	BAG	8	[0, 0, 0]	-999	PAL1	1	R1297T
974.743	4.018	984070	STUDY_PAIR	n/a	wordpools/wordpool_EN.txt	6	2	BAG	PASS	BUSH	BAG	8	[0, 0, 0]	-999	PAL1	1	R1297T
978.761	1.001	988088	PAIR_OFF	n/a	n/a	6	2	BAG	PASS	BUSH	BAG	8	[0, 0, 0]	-999	PAL1	1	R1297T
979.762	0.0	989088	ENCODING_END	n/a	n/a	-999	-999	n/a	n/a	n/a	n/a	8	[0, 0, 0]	-999	PAL1	1	R1297T
979.762	0.0	989088	MATH_START	n/a	n/a	-999	-999	n/a	n/a	n/a	n/a	8	[0, 0, 0]	-999	PAL1	1	R1297T
979.762	0.016	989088	START	n/a	n/a	-999	-999	n/a	n/a	n/a	n/a	8	[-999, -999, -999]	-999	PAL1	1	R1297T
979.778	3.749	989104	PROB	3715	n/a	-999	-999	n/a	n/a	n/a	n/a	8	[1, 7, 2]	10	PAL1	1	R1297T
983.527	3.352	992853	PROB	3327	n/a	-999	-999	n/a	n/a	n/a	n/a	8	[8, 6, 4]	18	PAL1	1	R1297T
986.879	2.566	996205	PROB	2534	n/a	-999	-999	n/a	n/a	n/a	n/a	8	[1, 8, 2]	11	PAL1	1	R1297T
989.445	4.918	998771	PROB	4888	n/a	-999	-999	n/a	n/a	n/a	n/a	8	[5, 4, 3]	12	PAL1	1	R1297T
994.363	4.668	1003689	PROB	4636	n/a	-999	-999	n/a	n/a	n/a	n/a	8	[7, 5, 6]	18	PAL1	1	R1297T
999.031	4.495	1008356	PROB	4495	n/a	-999	-999	n/a	n/a	n/a	n/a	8	[4, 9, 2]	15	PAL1	1	R1297T
1003.526	0.021	1012851	STOP	n/a	n/a	-999	-999	n/a	n/a	n/a	n/a	8	[-999, -999, -999]	-999	PAL1	1	R1297T
1003.547	0.001	1012872	MATH_END	n/a	n/a	-999	-999	n/a	n/a	n/a	n/a	8	[0, 0, 0]	-999	PAL1	1	R1297T
1003.548	0.016	1012873	RECALL_START	n/a	n/a	-999	-999	n/a	n/a	n/a	n/a	8	[0, 0, 0]	-999	PAL1	1	R1297T
1003.564	0.251	1012889	TEST_ORIENT	n/a	n/a	3	1	CALF	PIG	PIG	CALF	8	[0, 0, 0]	-999	PAL1	1	R1297T
1003.815	0.683	1013140	RETRIEVAL_ORIENT_OFF	n/a	n/a	-999	-999	n/a	n/a	n/a	n/a	8	[0, 0, 0]	-999	PAL1	1	R1297T
1004.498	0.001	1013823	TEST_PROBE	n/a	wordpools/wordpool_EN.txt	3	1	CALF	PIG	PIG	CALF	8	[0, 0, 0]	-999	PAL1	1	R1297T
1004.499	1.836	1013824	REC_START	n/a	n/a	3	-999	n/a	PIG	n/a	n/a	8	[0, 0, 0]	-999	PAL1	1	R1297T
1006.335	2.18	1015660	REC_EVENT	1836	n/a	3	1	CALF	COW	PIG	CALF	8	[0, 0, 0]	-999	PAL1	1	R1297T
1008.515	0.267	1017840	PROBE_OFF	n/a	n/a	3	-999	n/a	n/a	n/a	n/a	8	[0, 0, 0]	-999	PAL1	1	R1297T
1008.782	0.733	1018107	REC_EVENT	4283	n/a	3	1	CALF	PIG	PIG	CALF	8	[0, 0, 0]	-999	PAL1	1	R1297T
1009.515	0.017	1018840	REC_END	n/a	n/a	3	-999	n/a	n/a	n/a	n/a	8	[0, 0, 0]	-999	PAL1	1	R1297T
1009.532	0.268	1018857	TEST_ORIENT	n/a	n/a	6	2	BAG	PASS	BUSH	BAG	8	[0, 0, 0]	-999	PAL1	1	R1297T
1009.8	0.616	1019125	RETRIEVAL_ORIENT_OFF	n/a	n/a	3	-999	n/a	n/a	n/a	n/a	8	[0, 0, 0]	-999	PAL1	1	R1297T
1010.416	0.0	1019741	TEST_PROBE	n/a	wordpools/wordpool_EN.txt	6	2	BAG	PASS	BUSH	BAG	8	[0, 0, 0]	-999	PAL1	1	R1297T
1010.416	1.984	1019741	REC_START	n/a	n/a	6	-999	n/a	PASS	n/a	n/a	8	[0, 0, 0]	-999	PAL1	1	R1297T
1012.4	2.033	1021725	REC_EVENT	1984	n/a	6	2	BAG	PASS	BUSH	BAG	8	[0, 0, 0]	-999	PAL1	1	R1297T
1014.433	1.0	1023757	PROBE_OFF	n/a	n/a	6	-999	n/a	n/a	n/a	n/a	8	[0, 0, 0]	-999	PAL1	1	R1297T
1015.433	0.017	1024757	REC_END	n/a	n/a	6	-999	n/a	n/a	n/a	n/a	8	[0, 0, 0]	-999	PAL1	1	R1297T
1015.45	0.268	1024774	TEST_ORIENT	n/a	n/a	1	3	STAIR	n/a	DITCH	STAIR	8	[0, 0, 0]	-999	PAL1	1	R1297T
1015.718	0.649	1025042	RETRIEVAL_ORIENT_OFF	n/a	n/a	6	-999	n/a	n/a	n/a	n/a	8	[0, 0, 0]	-999	PAL1	1	R1297T
1016.367	0.0	1025691	TEST_PROBE	n/a	wordpools/wordpool_EN.txt	1	3	STAIR	n/a	DITCH	STAIR	8	[0, 0, 0]	-999	PAL1	1	R1297T
1016.367	0.995	1025691	REC_START	n/a	n/a	1	-999	n/a	n/a	n/a	n/a	8	[0, 0, 0]	-999	PAL1	1	R1297T
1017.362	3.022	1026686	REC_EVENT	995	n/a	1	3	STAIR	<>	DITCH	STAIR	8	[0, 0, 0]	-999	PAL1	1	R1297T
1020.384	1.0	1029708	PROBE_OFF	n/a	n/a	1	-999	n/a	n/a	n/a	n/a	8	[0, 0, 0]	-999	PAL1	1	R1297T
1021.384	0.017	1030708	REC_END	n/a	n/a	1	-999	n/a	n/a	n/a	n/a	8	[0, 0, 0]	-999	PAL1	1	R1297T
1021.401	0.268	1030725	TEST_ORIENT	n/a	n/a	4	4	CROW	PASS	CROW	BOWL	8	[0, 0, 0]	-999	PAL1	1	R1297T
1021.669	0.599	1030993	RETRIEVAL_ORIENT_OFF	n/a	n/a	1	-999	n/a	n/a	n/a	n/a	8	[0, 0, 0]	-999	PAL1	1	R1297T
1022.268	0.0	1031592	TEST_PROBE	n/a	wordpools/wordpool_EN.txt	4	4	CROW	PASS	CROW	BOWL	8	[0, 0, 0]	-999	PAL1	1	R1297T
1022.268	2.727	1031592	REC_START	n/a	n/a	4	-999	n/a	PASS	n/a	n/a	8	[0, 0, 0]	-999	PAL1	1	R1297T
1024.995	1.29	1034319	REC_EVENT	2727	n/a	4	4	CROW	PASS	CROW	BOWL	8	[0, 0, 0]	-999	PAL1	1	R1297T
1026.285	1.001	1035609	PROBE_OFF	n/a	n/a	4	-999	n/a	n/a	n/a	n/a	8	[0, 0, 0]	-999	PAL1	1	R1297T
1027.286	0.016	1036610	REC_END	n/a	n/a	4	-999	n/a	n/a	n/a	n/a	8	[0, 0, 0]	-999	PAL1	1	R1297T
1027.302	0.267	1036626	TEST_ORIENT	n/a	n/a	5	5	LOCK	PASS	LOCK	SPONGE	8	[0, 0, 0]	-999	PAL1	1	R1297T
1027.569	0.683	1036893	RETRIEVAL_ORIENT_OFF	n/a	n/a	4	-999	n/a	n/a	n/a	n/a	8	[0, 0, 0]	-999	PAL1	1	R1297T
1028.252	0.001	1037576	TEST_PROBE	n/a	wordpools/wordpool_EN.txt	5	5	LOCK	PASS	LOCK	SPONGE	8	[0, 0, 0]	-999	PAL1	1	R1297T
1028.253	3.671	1037577	REC_START	n/a	n/a	5	-999	n/a	PASS	n/a	n/a	8	[0, 0, 0]	-999	PAL1	1	R1297T
1031.924	0.346	1041247	REC_EVENT	3671	n/a	5	5	LOCK	PASS	LOCK	SPONGE	8	[0, 0, 0]	-999	PAL1	1	R1297T
1032.27	1.0	1041593	PROBE_OFF	n/a	n/a	5	-999	n/a	n/a	n/a	n/a	8	[0, 0, 0]	-999	PAL1	1	R1297T
1033.27	0.016	1042593	REC_END	n/a	n/a	5	-999	n/a	n/a	n/a	n/a	8	[0, 0, 0]	-999	PAL1	1	R1297T
1033.286	0.267	1042609	TEST_ORIENT	n/a	n/a	2	6	SLIME	DRESS	DRESS	SLIME	8	[0, 0, 0]	-999	PAL1	1	R1297T
1033.553	0.551	1042876	RETRIEVAL_ORIENT_OFF	n/a	n/a	5	-999	n/a	n/a	n/a	n/a	8	[0, 0, 0]	-999	PAL1	1	R1297T
1034.104	0.001	1043427	TEST_PROBE	n/a	wordpools/wordpool_EN.txt	2	6	SLIME	DRESS	DRESS	SLIME	8	[0, 0, 0]	-999	PAL1	1	R1297T
1034.105	1.492	1043428	REC_START	n/a	n/a	2	-999	n/a	DRESS	n/a	n/a	8	[0, 0, 0]	-999	PAL1	1	R1297T
1035.597	2.525	1044920	REC_EVENT	1492	n/a	2	6	SLIME	DRESS	DRESS	SLIME	8	[0, 0, 0]	-999	PAL1	1	R1297T
1038.122	1.0	1047445	PROBE_OFF	n/a	n/a	2	-999	n/a	n/a	n/a	n/a	8	[0, 0, 0]	-999	PAL1	1	R1297T
1039.122	0.011	1048445	REC_END	n/a	n/a	2	-999	n/a	n/a	n/a	n/a	8	[0, 0, 0]	-999	PAL1	1	R1297T
1039.133	8.439	1048456	RECALL_END	n/a	n/a	-999	-999	n/a	n/a	n/a	n/a	8	[0, 0, 0]	-999	PAL1	1	R1297T
1047.572	10.929	1056894	TRIAL	n/a	n/a	-999	-999	n/a	n/a	n/a	n/a	9	[0, 0, 0]	-999	PAL1	1	R1297T
1058.501	0.007	1067823	ENCODING_START	n/a	n/a	-999	-999	n/a	n/a	n/a	n/a	9	[0, 0, 0]	-999	PAL1	1	R1297T
1058.508	0.267	1067830	STUDY_ORIENT	n/a	n/a	1	5	MUD	n/a	COUCH	MUD	9	[0, 0, 0]	-999	PAL1	1	R1297T
1058.775	0.649	1068097	STUDY_ORIENT_OFF	n/a	n/a	1	5	MUD	n/a	COUCH	MUD	9	[0, 0, 0]	-999	PAL1	1	R1297T
1059.424	4.018	1068746	STUDY_PAIR	n/a	wordpools/wordpool_EN.txt	1	5	MUD	n/a	COUCH	MUD	9	[0, 0, 0]	-999	PAL1	1	R1297T
1063.442	1.017	1072763	PAIR_OFF	n/a	n/a	1	5	MUD	n/a	COUCH	MUD	9	[0, 0, 0]	-999	PAL1	1	R1297T
1064.459	0.267	1073780	STUDY_ORIENT	n/a	n/a	2	6	CAR	PASS	CAR	WEB	9	[0, 0, 0]	-999	PAL1	1	R1297T
1064.726	0.633	1074047	STUDY_ORIENT_OFF	n/a	n/a	2	6	CAR	PASS	CAR	WEB	9	[0, 0, 0]	-999	PAL1	1	R1297T
1065.359	4.017	1074680	STUDY_PAIR	n/a	wordpools/wordpool_EN.txt	2	6	CAR	PASS	CAR	WEB	9	[0, 0, 0]	-999	PAL1	1	R1297T
1069.376	1.017	1078697	PAIR_OFF	n/a	n/a	2	6	CAR	PASS	CAR	WEB	9	[0, 0, 0]	-999	PAL1	1	R1297T
1070.393	0.251	1079714	STUDY_ORIENT	n/a	n/a	3	1	GLOVE	PASS	GLOVE	CLIFF	9	[0, 0, 0]	-999	PAL1	1	R1297T
1070.644	0.733	1079965	STUDY_ORIENT_OFF	n/a	n/a	3	1	GLOVE	PASS	GLOVE	CLIFF	9	[0, 0, 0]	-999	PAL1	1	R1297T
1071.377	4.017	1080698	STUDY_PAIR	n/a	wordpools/wordpool_EN.txt	3	1	GLOVE	PASS	GLOVE	CLIFF	9	[0, 0, 0]	-999	PAL1	1	R1297T
1075.394	1.017	1084715	PAIR_OFF	n/a	n/a	3	1	GLOVE	PASS	GLOVE	CLIFF	9	[0, 0, 0]	-999	PAL1	1	R1297T
1076.411	0.268	1085732	STUDY_ORIENT	n/a	n/a	4	2	AXE	PASS	AXE	TOAST	9	[0, 0, 0]	-999	PAL1	1	R1297T
1076.679	0.665	1086000	STUDY_ORIENT_OFF	n/a	n/a	4	2	AXE	PASS	AXE	TOAST	9	[0, 0, 0]	-999	PAL1	1	R1297T
1077.344	4.001	1086665	STUDY_PAIR	n/a	wordpools/wordpool_EN.txt	4	2	AXE	PASS	AXE	TOAST	9	[0, 0, 0]	-999	PAL1	1	R1297T
1081.345	1.017	1090665	PAIR_OFF	n/a	n/a	4	2	AXE	PASS	AXE	TOAST	9	[0, 0, 0]	-999	PAL1	1	R1297T
1082.362	0.268	1091682	STUDY_ORIENT	n/a	n/a	5	3	PANTS	FORK	FORK	PANTS	9	[0, 0, 0]	-999	PAL1	1	R1297T
1082.63	0.516	1091950	STUDY_ORIENT_OFF	n/a	n/a	5	3	PANTS	FORK	FORK	PANTS	9	[0, 0, 0]	-999	PAL1	1	R1297T
1083.146	4.018	1092466	STUDY_PAIR	n/a	wordpools/wordpool_EN.txt	5	3	PANTS	FORK	FORK	PANTS	9	[0, 0, 0]	-999	PAL1	1	R1297T
1087.164	1.017	1096484	PAIR_OFF	n/a	n/a	5	3	PANTS	FORK	FORK	PANTS	9	[0, 0, 0]	-999	PAL1	1	R1297T
1088.181	0.265	1097501	STUDY_ORIENT	n/a	n/a	6	4	BOOK	PASS	CHEEK	BOOK	9	[0, 0, 0]	-999	PAL1	1	R1297T
1088.446	0.718	1097766	STUDY_ORIENT_OFF	n/a	n/a	6	4	BOOK	PASS	CHEEK	BOOK	9	[0, 0, 0]	-999	PAL1	1	R1297T
1089.164	4.018	1098484	STUDY_PAIR	n/a	wordpools/wordpool_EN.txt	6	4	BOOK	PASS	CHEEK	BOOK	9	[0, 0, 0]	-999	PAL1	1	R1297T
1093.182	1.001	1102502	PAIR_OFF	n/a	n/a	6	4	BOOK	PASS	CHEEK	BOOK	9	[0, 0, 0]	-999	PAL1	1	R1297T
1094.183	0.0	1103503	ENCODING_END	n/a	n/a	-999	-999	n/a	n/a	n/a	n/a	9	[0, 0, 0]	-999	PAL1	1	R1297T
1094.183	0.0	1103503	MATH_START	n/a	n/a	-999	-999	n/a	n/a	n/a	n/a	9	[0, 0, 0]	-999	PAL1	1	R1297T
1094.183	0.014	1103503	START	n/a	n/a	-999	-999	n/a	n/a	n/a	n/a	9	[-999, -999, -999]	-999	PAL1	1	R1297T
1094.197	3.852	1103517	PROB	3817	n/a	-999	-999	n/a	n/a	n/a	n/a	9	[4, 8, 2]	14	PAL1	1	R1297T
1098.049	4.233	1107368	PROB	4212	n/a	-999	-999	n/a	n/a	n/a	n/a	9	[3, 4, 6]	13	PAL1	1	R1297T
1102.282	3.569	1111601	PROB	3533	n/a	-999	-999	n/a	n/a	n/a	n/a	9	[8, 5, 3]	16	PAL1	1	R1297T
1105.851	3.817	1115170	PROB	3795	n/a	-999	-999	n/a	n/a	n/a	n/a	9	[9, 5, 6]	20	PAL1	1	R1297T
1109.668	3.3	1118987	PROB	3267	n/a	-999	-999	n/a	n/a	n/a	n/a	9	[5, 8, 2]	15	PAL1	1	R1297T
1112.968	3.766	1122286	PROB	3766	n/a	-999	-999	n/a	n/a	n/a	n/a	9	[9, 5, 5]	19	PAL1	1	R1297T
1116.734	0.018	1126052	STOP	n/a	n/a	-999	-999	n/a	n/a	n/a	n/a	9	[-999, -999, -999]	-999	PAL1	1	R1297T
1116.752	0.001	1126070	MATH_END	n/a	n/a	-999	-999	n/a	n/a	n/a	n/a	9	[0, 0, 0]	-999	PAL1	1	R1297T
1116.753	0.016	1126071	RECALL_START	n/a	n/a	-999	-999	n/a	n/a	n/a	n/a	9	[0, 0, 0]	-999	PAL1	1	R1297T
1116.769	0.267	1126087	TEST_ORIENT	n/a	n/a	3	1	GLOVE	PASS	GLOVE	CLIFF	9	[0, 0, 0]	-999	PAL1	1	R1297T
1117.036	0.582	1126354	RETRIEVAL_ORIENT_OFF	n/a	n/a	-999	-999	n/a	n/a	n/a	n/a	9	[0, 0, 0]	-999	PAL1	1	R1297T
1117.618	0.001	1126936	TEST_PROBE	n/a	wordpools/wordpool_EN.txt	3	1	GLOVE	PASS	GLOVE	CLIFF	9	[0, 0, 0]	-999	PAL1	1	R1297T
1117.619	4.018	1126937	REC_START	n/a	n/a	3	-999	n/a	PASS	n/a	n/a	9	[0, 0, 0]	-999	PAL1	1	R1297T
1121.637	0.258	1130955	PROBE_OFF	n/a	n/a	3	-999	n/a	n/a	n/a	n/a	9	[0, 0, 0]	-999	PAL1	1	R1297T
1121.895	0.742	1131213	REC_EVENT	4276	n/a	3	1	GLOVE	PASS	GLOVE	CLIFF	9	[0, 0, 0]	-999	PAL1	1	R1297T
1122.637	0.017	1131955	REC_END	n/a	n/a	3	-999	n/a	n/a	n/a	n/a	9	[0, 0, 0]	-999	PAL1	1	R1297T
1122.654	0.266	1131972	TEST_ORIENT	n/a	n/a	4	2	AXE	PASS	AXE	TOAST	9	[0, 0, 0]	-999	PAL1	1	R1297T
1122.92	0.633	1132238	RETRIEVAL_ORIENT_OFF	n/a	n/a	3	-999	n/a	n/a	n/a	n/a	9	[0, 0, 0]	-999	PAL1	1	R1297T
1123.553	0.0	1132871	TEST_PROBE	n/a	wordpools/wordpool_EN.txt	4	2	AXE	PASS	AXE	TOAST	9	[0, 0, 0]	-999	PAL1	1	R1297T
1123.553	4.017	1132871	REC_START	n/a	n/a	4	-999	n/a	PASS	n/a	n/a	9	[0, 0, 0]	-999	PAL1	1	R1297T
1127.57	0.394	1136888	PROBE_OFF	n/a	n/a	4	-999	n/a	n/a	n/a	n/a	9	[0, 0, 0]	-999	PAL1	1	R1297T
1127.964	0.607	1137282	REC_EVENT	4411	n/a	4	2	AXE	PASS	AXE	TOAST	9	[0, 0, 0]	-999	PAL1	1	R1297T
1128.571	0.016	1137889	REC_END	n/a	n/a	4	-999	n/a	n/a	n/a	n/a	9	[0, 0, 0]	-999	PAL1	1	R1297T
1128.587	0.268	1137905	TEST_ORIENT	n/a	n/a	5	3	PANTS	FORK	FORK	PANTS	9	[0, 0, 0]	-999	PAL1	1	R1297T
1128.855	0.716	1138172	RETRIEVAL_ORIENT_OFF	n/a	n/a	4	-999	n/a	n/a	n/a	n/a	9	[0, 0, 0]	-999	PAL1	1	R1297T
1129.571	0.0	1138888	REC_START	n/a	n/a	5	-999	n/a	FORK	n/a	n/a	9	[0, 0, 0]	-999	PAL1	1	R1297T
1129.571	1.672	1138888	TEST_PROBE	n/a	wordpools/wordpool_EN.txt	5	3	PANTS	FORK	FORK	PANTS	9	[0, 0, 0]	-999	PAL1	1	R1297T
1131.243	2.345	1140560	REC_EVENT	1672	n/a	5	3	PANTS	FORK	FORK	PANTS	9	[0, 0, 0]	-999	PAL1	1	R1297T
1133.588	1.0	1142905	PROBE_OFF	n/a	n/a	5	-999	n/a	n/a	n/a	n/a	9	[0, 0, 0]	-999	PAL1	1	R1297T
1134.588	0.017	1143905	REC_END	n/a	n/a	5	-999	n/a	n/a	n/a	n/a	9	[0, 0, 0]	-999	PAL1	1	R1297T
1134.605	0.267	1143922	TEST_ORIENT	n/a	n/a	6	4	BOOK	PASS	CHEEK	BOOK	9	[0, 0, 0]	-999	PAL1	1	R1297T
1134.872	0.516	1144189	RETRIEVAL_ORIENT_OFF	n/a	n/a	5	-999	n/a	n/a	n/a	n/a	9	[0, 0, 0]	-999	PAL1	1	R1297T
1135.388	0.001	1144705	TEST_PROBE	n/a	wordpools/wordpool_EN.txt	6	4	BOOK	PASS	CHEEK	BOOK	9	[0, 0, 0]	-999	PAL1	1	R1297T
1135.389	2.965	1144706	REC_START	n/a	n/a	6	-999	n/a	PASS	n/a	n/a	9	[0, 0, 0]	-999	PAL1	1	R1297T
1138.354	1.052	1147671	REC_EVENT	2965	n/a	6	4	BOOK	PASS	CHEEK	BOOK	9	[0, 0, 0]	-999	PAL1	1	R1297T
1139.406	1.0	1148723	PROBE_OFF	n/a	n/a	6	-999	n/a	n/a	n/a	n/a	9	[0, 0, 0]	-999	PAL1	1	R1297T
1140.406	0.017	1149723	REC_END	n/a	n/a	6	-999	n/a	n/a	n/a	n/a	9	[0, 0, 0]	-999	PAL1	1	R1297T
1140.423	0.267	1149740	TEST_ORIENT	n/a	n/a	1	5	MUD	n/a	COUCH	MUD	9	[0, 0, 0]	-999	PAL1	1	R1297T
1140.69	0.749	1150007	RETRIEVAL_ORIENT_OFF	n/a	n/a	6	-999	n/a	n/a	n/a	n/a	9	[0, 0, 0]	-999	PAL1	1	R1297T
1141.439	0.001	1150756	TEST_PROBE	n/a	wordpools/wordpool_EN.txt	1	5	MUD	n/a	COUCH	MUD	9	[0, 0, 0]	-999	PAL1	1	R1297T
1141.44	2.237	1150757	REC_START	n/a	n/a	1	-999	n/a	n/a	n/a	n/a	9	[0, 0, 0]	-999	PAL1	1	R1297T
1143.677	1.78	1152994	REC_EVENT	2237	n/a	1	5	MUD	<>	COUCH	MUD	9	[0, 0, 0]	-999	PAL1	1	R1297T
1145.457	1.011	1154773	PROBE_OFF	n/a	n/a	1	-999	n/a	n/a	n/a	n/a	9	[0, 0, 0]	-999	PAL1	1	R1297T
1146.468	0.022	1155784	REC_END	n/a	n/a	1	-999	n/a	n/a	n/a	n/a	9	[0, 0, 0]	-999	PAL1	1	R1297T
1146.49	0.268	1155806	TEST_ORIENT	n/a	n/a	2	6	CAR	PASS	CAR	WEB	9	[0, 0, 0]	-999	PAL1	1	R1297T
1146.758	0.599	1156074	RETRIEVAL_ORIENT_OFF	n/a	n/a	1	-999	n/a	n/a	n/a	n/a	9	[0, 0, 0]	-999	PAL1	1	R1297T
1147.357	0.001	1156673	TEST_PROBE	n/a	wordpools/wordpool_EN.txt	2	6	CAR	PASS	CAR	WEB	9	[0, 0, 0]	-999	PAL1	1	R1297T
1147.358	3.279	1156674	REC_START	n/a	n/a	2	-999	n/a	PASS	n/a	n/a	9	[0, 0, 0]	-999	PAL1	1	R1297T
1150.637	0.737	1159953	REC_EVENT	3279	n/a	2	6	CAR	PASS	CAR	WEB	9	[0, 0, 0]	-999	PAL1	1	R1297T
1151.374	1.0	1160690	PROBE_OFF	n/a	n/a	2	-999	n/a	n/a	n/a	n/a	9	[0, 0, 0]	-999	PAL1	1	R1297T
1152.374	0.004	1161690	REC_END	n/a	n/a	2	-999	n/a	n/a	n/a	n/a	9	[0, 0, 0]	-999	PAL1	1	R1297T
1152.378	22.785	1161694	RECALL_END	n/a	n/a	-999	-999	n/a	n/a	n/a	n/a	9	[0, 0, 0]	-999	PAL1	1	R1297T
1175.163	10.928	1184478	TRIAL	n/a	n/a	-999	-999	n/a	n/a	n/a	n/a	10	[0, 0, 0]	-999	PAL1	1	R1297T
1186.091	0.007	1195405	ENCODING_START	n/a	n/a	-999	-999	n/a	n/a	n/a	n/a	10	[0, 0, 0]	-999	PAL1	1	R1297T
1186.098	0.266	1195412	STUDY_ORIENT	n/a	n/a	1	5	OAR	GEESE	OAR	GEESE	10	[0, 0, 0]	-999	PAL1	1	R1297T
1186.364	0.635	1195678	STUDY_ORIENT_OFF	n/a	n/a	1	5	OAR	GEESE	OAR	GEESE	10	[0, 0, 0]	-999	PAL1	1	R1297T
1186.999	4.017	1196313	STUDY_PAIR	n/a	wordpools/wordpool_EN.txt	1	5	OAR	GEESE	OAR	GEESE	10	[0, 0, 0]	-999	PAL1	1	R1297T
1191.016	1.017	1200330	PAIR_OFF	n/a	n/a	1	5	OAR	GEESE	OAR	GEESE	10	[0, 0, 0]	-999	PAL1	1	R1297T
1192.033	0.266	1201347	STUDY_ORIENT	n/a	n/a	2	4	BLUSH	n/a	BLUSH	SPEAR	10	[0, 0, 0]	-999	PAL1	1	R1297T
1192.299	0.634	1201613	STUDY_ORIENT_OFF	n/a	n/a	2	4	BLUSH	n/a	BLUSH	SPEAR	10	[0, 0, 0]	-999	PAL1	1	R1297T
1192.933	4.017	1202247	STUDY_PAIR	n/a	wordpools/wordpool_EN.txt	2	4	BLUSH	n/a	BLUSH	SPEAR	10	[0, 0, 0]	-999	PAL1	1	R1297T
1196.95	1.017	1206263	PAIR_OFF	n/a	n/a	2	4	BLUSH	n/a	BLUSH	SPEAR	10	[0, 0, 0]	-999	PAL1	1	R1297T
1197.967	0.266	1207280	STUDY_ORIENT	n/a	n/a	3	1	PURSE	PASS	SHARK	PURSE	10	[0, 0, 0]	-999	PAL1	1	R1297T
1198.233	0.584	1207546	STUDY_ORIENT_OFF	n/a	n/a	3	1	PURSE	PASS	SHARK	PURSE	10	[0, 0, 0]	-999	PAL1	1	R1297T
1198.817	4.001	1208130	STUDY_PAIR	n/a	wordpools/wordpool_EN.txt	3	1	PURSE	PASS	SHARK	PURSE	10	[0, 0, 0]	-999	PAL1	1	R1297T
1202.818	1.017	1212131	PAIR_OFF	n/a	n/a	3	1	PURSE	PASS	SHARK	PURSE	10	[0, 0, 0]	-999	PAL1	1	R1297T
1203.835	0.267	1213148	STUDY_ORIENT	n/a	n/a	4	6	CRANE	PASS	SLUSH	CRANE	10	[0, 0, 0]	-999	PAL1	1	R1297T
1204.102	0.55	1213415	STUDY_ORIENT_OFF	n/a	n/a	4	6	CRANE	PASS	SLUSH	CRANE	10	[0, 0, 0]	-999	PAL1	1	R1297T
1204.652	4.017	1213965	STUDY_PAIR	n/a	wordpools/wordpool_EN.txt	4	6	CRANE	PASS	SLUSH	CRANE	10	[0, 0, 0]	-999	PAL1	1	R1297T
1208.669	1.017	1217982	PAIR_OFF	n/a	n/a	4	6	CRANE	PASS	SLUSH	CRANE	10	[0, 0, 0]	-999	PAL1	1	R1297T
1209.686	0.267	1218999	STUDY_ORIENT	n/a	n/a	5	3	FOX	PASS	SINK	FOX	10	[0, 0, 0]	-999	PAL1	1	R1297T
1209.953	0.532	1219266	STUDY_ORIENT_OFF	n/a	n/a	5	3	FOX	PASS	SINK	FOX	10	[0, 0, 0]	-999	PAL1	1	R1297T
1210.485	4.018	1219798	STUDY_PAIR	n/a	wordpools/wordpool_EN.txt	5	3	FOX	PASS	SINK	FOX	10	[0, 0, 0]	-999	PAL1	1	R1297T
1214.503	1.016	1223815	PAIR_OFF	n/a	n/a	5	3	FOX	PASS	SINK	FOX	10	[0, 0, 0]	-999	PAL1	1	R1297T
1215.519	0.268	1224831	STUDY_ORIENT	n/a	n/a	6	2	POOL	PASS	POOL	CAKE	10	[0, 0, 0]	-999	PAL1	1	R1297T
1215.787	0.616	1225099	STUDY_ORIENT_OFF	n/a	n/a	6	2	POOL	PASS	POOL	CAKE	10	[0, 0, 0]	-999	PAL1	1	R1297T
1216.403	4.017	1225715	STUDY_PAIR	n/a	wordpools/wordpool_EN.txt	6	2	POOL	PASS	POOL	CAKE	10	[0, 0, 0]	-999	PAL1	1	R1297T
1220.42	1.001	1229732	PAIR_OFF	n/a	n/a	6	2	POOL	PASS	POOL	CAKE	10	[0, 0, 0]	-999	PAL1	1	R1297T
1221.421	0.0	1230733	ENCODING_END	n/a	n/a	-999	-999	n/a	n/a	n/a	n/a	10	[0, 0, 0]	-999	PAL1	1	R1297T
1221.421	0.0	1230733	MATH_START	n/a	n/a	-999	-999	n/a	n/a	n/a	n/a	10	[0, 0, 0]	-999	PAL1	1	R1297T
1221.421	0.016	1230733	START	n/a	n/a	-999	-999	n/a	n/a	n/a	n/a	10	[-999, -999, -999]	-999	PAL1	1	R1297T
1221.437	15.654	1230749	PROB	15618	n/a	-999	-999	n/a	n/a	n/a	n/a	10	[5, 8, 7]	20	PAL1	1	R1297T
1237.091	4.371	1246402	PROB	4371	n/a	-999	-999	n/a	n/a	n/a	n/a	10	[4, 7, 8]	19	PAL1	1	R1297T
1241.462	0.012	1250773	STOP	n/a	n/a	-999	-999	n/a	n/a	n/a	n/a	10	[-999, -999, -999]	-999	PAL1	1	R1297T
1241.474	0.0	1250785	MATH_END	n/a	n/a	-999	-999	n/a	n/a	n/a	n/a	10	[0, 0, 0]	-999	PAL1	1	R1297T
1241.474	0.017	1250785	RECALL_START	n/a	n/a	-999	-999	n/a	n/a	n/a	n/a	10	[0, 0, 0]	-999	PAL1	1	R1297T
1241.491	0.251	1250802	TEST_ORIENT	n/a	n/a	3	1	PURSE	PASS	SHARK	PURSE	10	[0, 0, 0]	-999	PAL1	1	R1297T
1241.742	0.549	1251053	RETRIEVAL_ORIENT_OFF	n/a	n/a	-999	-999	n/a	n/a	n/a	n/a	10	[0, 0, 0]	-999	PAL1	1	R1297T
1242.291	0.001	1251602	TEST_PROBE	n/a	wordpools/wordpool_EN.txt	3	1	PURSE	PASS	SHARK	PURSE	10	[0, 0, 0]	-999	PAL1	1	R1297T
1242.292	3.278	1251603	REC_START	n/a	n/a	3	-999	n/a	PASS	n/a	n/a	10	[0, 0, 0]	-999	PAL1	1	R1297T
1245.57	0.738	1254880	REC_EVENT	3278	n/a	3	1	PURSE	PASS	SHARK	PURSE	10	[0, 0, 0]	-999	PAL1	1	R1297T
1246.308	1.0	1255618	PROBE_OFF	n/a	n/a	3	-999	n/a	n/a	n/a	n/a	10	[0, 0, 0]	-999	PAL1	1	R1297T
1247.308	0.017	1256618	REC_END	n/a	n/a	3	-999	n/a	n/a	n/a	n/a	10	[0, 0, 0]	-999	PAL1	1	R1297T
1247.325	0.267	1256635	TEST_ORIENT	n/a	n/a	6	2	POOL	PASS	POOL	CAKE	10	[0, 0, 0]	-999	PAL1	1	R1297T
1247.592	0.75	1256902	RETRIEVAL_ORIENT_OFF	n/a	n/a	3	-999	n/a	n/a	n/a	n/a	10	[0, 0, 0]	-999	PAL1	1	R1297T
1248.342	0.001	1257652	TEST_PROBE	n/a	wordpools/wordpool_EN.txt	6	2	POOL	PASS	POOL	CAKE	10	[0, 0, 0]	-999	PAL1	1	R1297T
1248.343	2.295	1257653	REC_START	n/a	n/a	6	-999	n/a	PASS	n/a	n/a	10	[0, 0, 0]	-999	PAL1	1	R1297T
1250.638	1.721	1259948	REC_EVENT	2295	n/a	6	2	POOL	PASS	POOL	CAKE	10	[0, 0, 0]	-999	PAL1	1	R1297T
1252.359	1.0	1261669	PROBE_OFF	n/a	n/a	6	-999	n/a	n/a	n/a	n/a	10	[0, 0, 0]	-999	PAL1	1	R1297T
1253.359	0.017	1262669	REC_END	n/a	n/a	6	-999	n/a	n/a	n/a	n/a	10	[0, 0, 0]	-999	PAL1	1	R1297T
1253.376	0.268	1262686	TEST_ORIENT	n/a	n/a	5	3	FOX	PASS	SINK	FOX	10	[0, 0, 0]	-999	PAL1	1	R1297T
1253.644	0.732	1262954	RETRIEVAL_ORIENT_OFF	n/a	n/a	6	-999	n/a	n/a	n/a	n/a	10	[0, 0, 0]	-999	PAL1	1	R1297T
1254.376	0.001	1263686	TEST_PROBE	n/a	wordpools/wordpool_EN.txt	5	3	FOX	PASS	SINK	FOX	10	[0, 0, 0]	-999	PAL1	1	R1297T
1254.377	1.536	1263687	REC_START	n/a	n/a	5	-999	n/a	PASS	n/a	n/a	10	[0, 0, 0]	-999	PAL1	1	R1297T
1255.913	2.481	1265223	REC_EVENT	1536	n/a	5	3	FOX	PASS	SINK	FOX	10	[0, 0, 0]	-999	PAL1	1	R1297T
1258.394	1.0	1267704	PROBE_OFF	n/a	n/a	5	-999	n/a	n/a	n/a	n/a	10	[0, 0, 0]	-999	PAL1	1	R1297T
1259.394	0.017	1268704	REC_END	n/a	n/a	5	-999	n/a	n/a	n/a	n/a	10	[0, 0, 0]	-999	PAL1	1	R1297T
1259.411	0.267	1268721	TEST_ORIENT	n/a	n/a	2	4	BLUSH	n/a	BLUSH	SPEAR	10	[0, 0, 0]	-999	PAL1	1	R1297T
1259.678	0.533	1268988	RETRIEVAL_ORIENT_OFF	n/a	n/a	5	-999	n/a	n/a	n/a	n/a	10	[0, 0, 0]	-999	PAL1	1	R1297T
1260.211	0.0	1269521	TEST_PROBE	n/a	wordpools/wordpool_EN.txt	2	4	BLUSH	n/a	BLUSH	SPEAR	10	[0, 0, 0]	-999	PAL1	1	R1297T
1260.211	4.017	1269521	REC_START	n/a	n/a	2	-999	n/a	n/a	n/a	n/a	10	[0, 0, 0]	-999	PAL1	1	R1297T
1264.228	0.143	1273537	PROBE_OFF	n/a	n/a	2	-999	n/a	n/a	n/a	n/a	10	[0, 0, 0]	-999	PAL1	1	R1297T
1264.371	0.857	1273680	REC_EVENT	4160	n/a	2	4	BLUSH	<>	BLUSH	SPEAR	10	[0, 0, 0]	-999	PAL1	1	R1297T
1265.228	0.017	1274537	REC_END	n/a	n/a	2	-999	n/a	n/a	n/a	n/a	10	[0, 0, 0]	-999	PAL1	1	R1297T
1265.245	0.267	1274554	TEST_ORIENT	n/a	n/a	1	5	OAR	GEESE	OAR	GEESE	10	[0, 0, 0]	-999	PAL1	1	R1297T
1265.512	0.534	1274821	RETRIEVAL_ORIENT_OFF	n/a	n/a	2	-999	n/a	n/a	n/a	n/a	10	[0, 0, 0]	-999	PAL1	1	R1297T
1266.046	0.001	1275355	TEST_PROBE	n/a	wordpools/wordpool_EN.txt	1	5	OAR	GEESE	OAR	GEESE	10	[0, 0, 0]	-999	PAL1	1	R1297T
1266.047	2.143	1275356	REC_START	n/a	n/a	1	-999	n/a	GEESE	n/a	n/a	10	[0, 0, 0]	-999	PAL1	1	R1297T
1268.19	1.874	1277499	REC_EVENT	2143	n/a	1	5	OAR	GEESE	OAR	GEESE	10	[0, 0, 0]	-999	PAL1	1	R1297T
1270.064	1.0	1279373	PROBE_OFF	n/a	n/a	1	-999	n/a	n/a	n/a	n/a	10	[0, 0, 0]	-999	PAL1	1	R1297T
1271.064	0.017	1280373	REC_END	n/a	n/a	1	-999	n/a	n/a	n/a	n/a	10	[0, 0, 0]	-999	PAL1	1	R1297T
1271.081	0.265	1280390	TEST_ORIENT	n/a	n/a	4	6	CRANE	PASS	SLUSH	CRANE	10	[0, 0, 0]	-999	PAL1	1	R1297T
1271.346	0.718	1280655	RETRIEVAL_ORIENT_OFF	n/a	n/a	1	-999	n/a	n/a	n/a	n/a	10	[0, 0, 0]	-999	PAL1	1	R1297T
1272.064	0.001	1281373	TEST_PROBE	n/a	wordpools/wordpool_EN.txt	4	6	CRANE	PASS	SLUSH	CRANE	10	[0, 0, 0]	-999	PAL1	1	R1297T
1272.065	1.669	1281374	REC_START	n/a	n/a	4	-999	n/a	PASS	n/a	n/a	10	[0, 0, 0]	-999	PAL1	1	R1297T
1273.734	2.347	1283043	REC_EVENT	1669	n/a	4	6	CRANE	PASS	SLUSH	CRANE	10	[0, 0, 0]	-999	PAL1	1	R1297T
1276.081	1.001	1285390	PROBE_OFF	n/a	n/a	4	-999	n/a	n/a	n/a	n/a	10	[0, 0, 0]	-999	PAL1	1	R1297T
1277.082	0.008	1286391	REC_END	n/a	n/a	4	-999	n/a	n/a	n/a	n/a	10	[0, 0, 0]	-999	PAL1	1	R1297T
1277.09	5.125	1286399	RECALL_END	n/a	n/a	-999	-999	n/a	n/a	n/a	n/a	10	[0, 0, 0]	-999	PAL1	1	R1297T
1282.215	10.928	1291523	TRIAL	n/a	n/a	-999	-999	n/a	n/a	n/a	n/a	11	[0, 0, 0]	-999	PAL1	1	R1297T
1293.143	0.008	1302451	ENCODING_START	n/a	n/a	-999	-999	n/a	n/a	n/a	n/a	11	[0, 0, 0]	-999	PAL1	1	R1297T
1293.151	0.266	1302459	STUDY_ORIENT	n/a	n/a	1	3	PLANT	PASS	CANE	PLANT	11	[0, 0, 0]	-999	PAL1	1	R1297T
1293.417	0.551	1302725	STUDY_ORIENT_OFF	n/a	n/a	1	3	PLANT	PASS	CANE	PLANT	11	[0, 0, 0]	-999	PAL1	1	R1297T
1293.968	4.017	1303276	STUDY_PAIR	n/a	wordpools/wordpool_EN.txt	1	3	PLANT	PASS	CANE	PLANT	11	[0, 0, 0]	-999	PAL1	1	R1297T
1297.985	1.017	1307292	PAIR_OFF	n/a	n/a	1	3	PLANT	PASS	CANE	PLANT	11	[0, 0, 0]	-999	PAL1	1	R1297T
1299.002	0.266	1308309	STUDY_ORIENT	n/a	n/a	2	4	EEL	PEA	PEA	EEL	11	[0, 0, 0]	-999	PAL1	1	R1297T
1299.268	0.751	1308575	STUDY_ORIENT_OFF	n/a	n/a	2	4	EEL	PEA	PEA	EEL	11	[0, 0, 0]	-999	PAL1	1	R1297T
1300.019	4.017	1309326	STUDY_PAIR	n/a	wordpools/wordpool_EN.txt	2	4	EEL	PEA	PEA	EEL	11	[0, 0, 0]	-999	PAL1	1	R1297T
1304.036	1.017	1313343	PAIR_OFF	n/a	n/a	2	4	EEL	PEA	PEA	EEL	11	[0, 0, 0]	-999	PAL1	1	R1297T
1305.053	0.266	1314360	STUDY_ORIENT	n/a	n/a	3	5	CHIEF	LAMP	LAMP	CHIEF	11	[0, 0, 0]	-999	PAL1	1	R1297T
1305.319	0.585	1314626	STUDY_ORIENT_OFF	n/a	n/a	3	5	CHIEF	LAMP	LAMP	CHIEF	11	[0, 0, 0]	-999	PAL1	1	R1297T
1305.904	4.017	1315211	STUDY_PAIR	n/a	wordpools/wordpool_EN.txt	3	5	CHIEF	LAMP	LAMP	CHIEF	11	[0, 0, 0]	-999	PAL1	1	R1297T
1309.921	1.017	1319228	PAIR_OFF	n/a	n/a	3	5	CHIEF	LAMP	LAMP	CHIEF	11	[0, 0, 0]	-999	PAL1	1	R1297T
1310.938	0.266	1320245	STUDY_ORIENT	n/a	n/a	4	6	WORLD	PASS	FLAME	WORLD	11	[0, 0, 0]	-999	PAL1	1	R1297T
1311.204	0.517	1320511	STUDY_ORIENT_OFF	n/a	n/a	4	6	WORLD	PASS	FLAME	WORLD	11	[0, 0, 0]	-999	PAL1	1	R1297T
1311.721	4.018	1321027	STUDY_PAIR	n/a	wordpools/wordpool_EN.txt	4	6	WORLD	PASS	FLAME	WORLD	11	[0, 0, 0]	-999	PAL1	1	R1297T
1315.739	1.016	1325045	PAIR_OFF	n/a	n/a	4	6	WORLD	PASS	FLAME	WORLD	11	[0, 0, 0]	-999	PAL1	1	R1297T
1316.755	0.267	1326061	STUDY_ORIENT	n/a	n/a	5	1	BOAT	PASS	BOAT	BOX	11	[0, 0, 0]	-999	PAL1	1	R1297T
1317.022	0.633	1326328	STUDY_ORIENT_OFF	n/a	n/a	5	1	BOAT	PASS	BOAT	BOX	11	[0, 0, 0]	-999	PAL1	1	R1297T
1317.655	4.018	1326961	STUDY_PAIR	n/a	wordpools/wordpool_EN.txt	5	1	BOAT	PASS	BOAT	BOX	11	[0, 0, 0]	-999	PAL1	1	R1297T
1321.673	1.017	1330979	PAIR_OFF	n/a	n/a	5	1	BOAT	PASS	BOAT	BOX	11	[0, 0, 0]	-999	PAL1	1	R1297T
1322.69	0.267	1331996	STUDY_ORIENT	n/a	n/a	6	2	SNOW	SHEEP	SNOW	SHEEP	11	[0, 0, 0]	-999	PAL1	1	R1297T
1322.957	0.599	1332263	STUDY_ORIENT_OFF	n/a	n/a	6	2	SNOW	SHEEP	SNOW	SHEEP	11	[0, 0, 0]	-999	PAL1	1	R1297T
1323.556	4.017	1332862	STUDY_PAIR	n/a	wordpools/wordpool_EN.txt	6	2	SNOW	SHEEP	SNOW	SHEEP	11	[0, 0, 0]	-999	PAL1	1	R1297T
1327.573	1.0	1336879	PAIR_OFF	n/a	n/a	6	2	SNOW	SHEEP	SNOW	SHEEP	11	[0, 0, 0]	-999	PAL1	1	R1297T
1328.573	0.0	1337878	ENCODING_END	n/a	n/a	-999	-999	n/a	n/a	n/a	n/a	11	[0, 0, 0]	-999	PAL1	1	R1297T
1328.573	0.0	1337878	MATH_START	n/a	n/a	-999	-999	n/a	n/a	n/a	n/a	11	[0, 0, 0]	-999	PAL1	1	R1297T
1328.573	0.017	1337878	START	n/a	n/a	-999	-999	n/a	n/a	n/a	n/a	11	[-999, -999, -999]	-999	PAL1	1	R1297T
1328.59	4.302	1337895	PROB	4272	n/a	-999	-999	n/a	n/a	n/a	n/a	11	[5, 3, 5]	13	PAL1	1	R1297T
1332.892	3.184	1342197	PROB	3146	n/a	-999	-999	n/a	n/a	n/a	n/a	11	[9, 6, 1]	16	PAL1	1	R1297T
1336.076	2.366	1345381	PROB	2337	n/a	-999	-999	n/a	n/a	n/a	n/a	11	[4, 2, 5]	11	PAL1	1	R1297T
1338.442	3.084	1347747	PROB	3052	n/a	-999	-999	n/a	n/a	n/a	n/a	11	[7, 1, 2]	10	PAL1	1	R1297T
1341.526	3.084	1350831	PROB	3048	n/a	-999	-999	n/a	n/a	n/a	n/a	11	[9, 4, 4]	17	PAL1	1	R1297T
1344.61	3.518	1353914	PROB	3484	n/a	-999	-999	n/a	n/a	n/a	n/a	11	[8, 7, 1]	16	PAL1	1	R1297T
1348.128	2.702	1357432	PROB	2702	n/a	-999	-999	n/a	n/a	n/a	n/a	11	[6, 4, 3]	13	PAL1	1	R1297T
1350.83	0.015	1360134	STOP	n/a	n/a	-999	-999	n/a	n/a	n/a	n/a	11	[-999, -999, -999]	-999	PAL1	1	R1297T
1350.845	0.001	1360149	MATH_END	n/a	n/a	-999	-999	n/a	n/a	n/a	n/a	11	[0, 0, 0]	-999	PAL1	1	R1297T
1350.846	0.016	1360150	RECALL_START	n/a	n/a	-999	-999	n/a	n/a	n/a	n/a	11	[0, 0, 0]	-999	PAL1	1	R1297T
1350.862	0.266	1360166	TEST_ORIENT	n/a	n/a	5	1	BOAT	PASS	BOAT	BOX	11	[0, 0, 0]	-999	PAL1	1	R1297T
1351.128	0.701	1360432	RETRIEVAL_ORIENT_OFF	n/a	n/a	-999	-999	n/a	n/a	n/a	n/a	11	[0, 0, 0]	-999	PAL1	1	R1297T
1351.829	0.0	1361133	TEST_PROBE	n/a	wordpools/wordpool_EN.txt	5	1	BOAT	PASS	BOAT	BOX	11	[0, 0, 0]	-999	PAL1	1	R1297T
1351.829	4.017	1361133	REC_START	n/a	n/a	5	-999	n/a	PASS	n/a	n/a	11	[0, 0, 0]	-999	PAL1	1	R1297T
1355.846	0.735	1365150	PROBE_OFF	n/a	n/a	5	-999	n/a	n/a	n/a	n/a	11	[0, 0, 0]	-999	PAL1	1	R1297T
1356.581	0.276	1365885	REC_EVENT	4752	n/a	5	1	BOAT	PASS	BOAT	BOX	11	[0, 0, 0]	-999	PAL1	1	R1297T
1356.857	0.006	1366161	REC_END	n/a	n/a	5	-999	n/a	n/a	n/a	n/a	11	[0, 0, 0]	-999	PAL1	1	R1297T
1356.863	0.267	1366167	TEST_ORIENT	n/a	n/a	6	2	SNOW	SHEEP	SNOW	SHEEP	11	[0, 0, 0]	-999	PAL1	1	R1297T
1357.13	0.7	1366434	RETRIEVAL_ORIENT_OFF	n/a	n/a	5	-999	n/a	n/a	n/a	n/a	11	[0, 0, 0]	-999	PAL1	1	R1297T
1357.83	0.0	1367134	TEST_PROBE	n/a	wordpools/wordpool_EN.txt	6	2	SNOW	SHEEP	SNOW	SHEEP	11	[0, 0, 0]	-999	PAL1	1	R1297T
1357.83	1.128	1367134	REC_START	n/a	n/a	6	-999	n/a	SHEEP	n/a	n/a	11	[0, 0, 0]	-999	PAL1	1	R1297T
1358.958	2.889	1368262	REC_EVENT	1128	n/a	6	2	SNOW	SHEEP	SNOW	SHEEP	11	[0, 0, 0]	-999	PAL1	1	R1297T
1361.847	1.0	1371150	PROBE_OFF	n/a	n/a	6	-999	n/a	n/a	n/a	n/a	11	[0, 0, 0]	-999	PAL1	1	R1297T
1362.847	0.017	1372150	REC_END	n/a	n/a	6	-999	n/a	n/a	n/a	n/a	11	[0, 0, 0]	-999	PAL1	1	R1297T
1362.864	0.267	1372167	TEST_ORIENT	n/a	n/a	1	3	PLANT	PASS	CANE	PLANT	11	[0, 0, 0]	-999	PAL1	1	R1297T
1363.131	0.633	1372434	RETRIEVAL_ORIENT_OFF	n/a	n/a	6	-999	n/a	n/a	n/a	n/a	11	[0, 0, 0]	-999	PAL1	1	R1297T
1363.764	0.001	1373067	TEST_PROBE	n/a	wordpools/wordpool_EN.txt	1	3	PLANT	PASS	CANE	PLANT	11	[0, 0, 0]	-999	PAL1	1	R1297T
1363.765	2.049	1373068	REC_START	n/a	n/a	1	-999	n/a	PASS	n/a	n/a	11	[0, 0, 0]	-999	PAL1	1	R1297T
1365.814	1.967	1375117	REC_EVENT	2049	n/a	1	3	PLANT	PASS	CANE	PLANT	11	[0, 0, 0]	-999	PAL1	1	R1297T
1367.781	1.001	1377084	PROBE_OFF	n/a	n/a	1	-999	n/a	n/a	n/a	n/a	11	[0, 0, 0]	-999	PAL1	1	R1297T
1368.782	0.016	1378085	REC_END	n/a	n/a	1	-999	n/a	n/a	n/a	n/a	11	[0, 0, 0]	-999	PAL1	1	R1297T
1368.798	0.267	1378101	TEST_ORIENT	n/a	n/a	2	4	EEL	PEA	PEA	EEL	11	[0, 0, 0]	-999	PAL1	1	R1297T
1369.065	0.667	1378368	RETRIEVAL_ORIENT_OFF	n/a	n/a	1	-999	n/a	n/a	n/a	n/a	11	[0, 0, 0]	-999	PAL1	1	R1297T
1369.732	0.0	1379035	TEST_PROBE	n/a	wordpools/wordpool_EN.txt	2	4	EEL	PEA	PEA	EEL	11	[0, 0, 0]	-999	PAL1	1	R1297T
1369.732	2.895	1379035	REC_START	n/a	n/a	2	-999	n/a	PEA	n/a	n/a	11	[0, 0, 0]	-999	PAL1	1	R1297T
1372.627	1.122	1381930	REC_EVENT	2895	n/a	2	4	EEL	PEA	PEA	EEL	11	[0, 0, 0]	-999	PAL1	1	R1297T
1373.749	1.001	1383052	PROBE_OFF	n/a	n/a	2	-999	n/a	n/a	n/a	n/a	11	[0, 0, 0]	-999	PAL1	1	R1297T
1374.75	0.016	1384053	REC_END	n/a	n/a	2	-999	n/a	n/a	n/a	n/a	11	[0, 0, 0]	-999	PAL1	1	R1297T
1374.766	0.267	1384069	TEST_ORIENT	n/a	n/a	3	5	CHIEF	LAMP	LAMP	CHIEF	11	[0, 0, 0]	-999	PAL1	1	R1297T
1375.033	0.516	1384336	RETRIEVAL_ORIENT_OFF	n/a	n/a	2	-999	n/a	n/a	n/a	n/a	11	[0, 0, 0]	-999	PAL1	1	R1297T
1375.549	0.0	1384852	TEST_PROBE	n/a	wordpools/wordpool_EN.txt	3	5	CHIEF	LAMP	LAMP	CHIEF	11	[0, 0, 0]	-999	PAL1	1	R1297T
1375.549	1.265	1384852	REC_START	n/a	n/a	3	-999	n/a	LAMP	n/a	n/a	11	[0, 0, 0]	-999	PAL1	1	R1297T
1376.814	2.752	1386117	REC_EVENT	1265	n/a	3	5	CHIEF	LAMP	LAMP	CHIEF	11	[0, 0, 0]	-999	PAL1	1	R1297T
1379.566	1.0	1388868	PROBE_OFF	n/a	n/a	3	-999	n/a	n/a	n/a	n/a	11	[0, 0, 0]	-999	PAL1	1	R1297T
1380.566	0.017	1389868	REC_END	n/a	n/a	3	-999	n/a	n/a	n/a	n/a	11	[0, 0, 0]	-999	PAL1	1	R1297T
1380.583	0.267	1389885	TEST_ORIENT	n/a	n/a	4	6	WORLD	PASS	FLAME	WORLD	11	[0, 0, 0]	-999	PAL1	1	R1297T
1380.85	0.6	1390152	RETRIEVAL_ORIENT_OFF	n/a	n/a	3	-999	n/a	n/a	n/a	n/a	11	[0, 0, 0]	-999	PAL1	1	R1297T
1381.45	0.0	1390752	TEST_PROBE	n/a	wordpools/wordpool_EN.txt	4	6	WORLD	PASS	FLAME	WORLD	11	[0, 0, 0]	-999	PAL1	1	R1297T
1381.45	1.718	1390752	REC_START	n/a	n/a	4	-999	n/a	PASS	n/a	n/a	11	[0, 0, 0]	-999	PAL1	1	R1297T
1383.168	2.299	1392470	REC_EVENT	1718	n/a	4	6	WORLD	PASS	FLAME	WORLD	11	[0, 0, 0]	-999	PAL1	1	R1297T
1385.467	1.0	1394769	PROBE_OFF	n/a	n/a	4	-999	n/a	n/a	n/a	n/a	11	[0, 0, 0]	-999	PAL1	1	R1297T
1386.467	0.01	1395769	REC_END	n/a	n/a	4	-999	n/a	n/a	n/a	n/a	11	[0, 0, 0]	-999	PAL1	1	R1297T
1386.477	6.875	1395779	RECALL_END	n/a	n/a	-999	-999	n/a	n/a	n/a	n/a	11	[0, 0, 0]	-999	PAL1	1	R1297T
1393.352	10.929	1402654	TRIAL	n/a	n/a	-999	-999	n/a	n/a	n/a	n/a	12	[0, 0, 0]	-999	PAL1	1	R1297T
1404.281	0.006	1413582	ENCODING_START	n/a	n/a	-999	-999	n/a	n/a	n/a	n/a	12	[0, 0, 0]	-999	PAL1	1	R1297T
1404.287	0.267	1413588	STUDY_ORIENT	n/a	n/a	1	5	RUG	PLATE	PLATE	RUG	12	[0, 0, 0]	-999	PAL1	1	R1297T
1404.554	0.683	1413855	STUDY_ORIENT_OFF	n/a	n/a	1	5	RUG	PLATE	PLATE	RUG	12	[0, 0, 0]	-999	PAL1	1	R1297T
1405.237	4.018	1414538	STUDY_PAIR	n/a	wordpools/wordpool_EN.txt	1	5	RUG	PLATE	PLATE	RUG	12	[0, 0, 0]	-999	PAL1	1	R1297T
1409.255	1.016	1418556	PAIR_OFF	n/a	n/a	1	5	RUG	PLATE	PLATE	RUG	12	[0, 0, 0]	-999	PAL1	1	R1297T
1410.271	0.267	1419572	STUDY_ORIENT	n/a	n/a	2	6	TRAY	PASS	TRAY	THREAD	12	[0, 0, 0]	-999	PAL1	1	R1297T
1410.538	0.717	1419839	STUDY_ORIENT_OFF	n/a	n/a	2	6	TRAY	PASS	TRAY	THREAD	12	[0, 0, 0]	-999	PAL1	1	R1297T
1411.255	4.017	1420555	STUDY_PAIR	n/a	wordpools/wordpool_EN.txt	2	6	TRAY	PASS	TRAY	THREAD	12	[0, 0, 0]	-999	PAL1	1	R1297T
1415.272	1.017	1424572	PAIR_OFF	n/a	n/a	2	6	TRAY	PASS	TRAY	THREAD	12	[0, 0, 0]	-999	PAL1	1	R1297T
1416.289	0.267	1425589	STUDY_ORIENT	n/a	n/a	3	3	SOAP	PASS	SKUNK	SOAP	12	[0, 0, 0]	-999	PAL1	1	R1297T
1416.556	0.535	1425856	STUDY_ORIENT_OFF	n/a	n/a	3	3	SOAP	PASS	SKUNK	SOAP	12	[0, 0, 0]	-999	PAL1	1	R1297T
1417.091	4.017	1426391	STUDY_PAIR	n/a	wordpools/wordpool_EN.txt	3	3	SOAP	PASS	SKUNK	SOAP	12	[0, 0, 0]	-999	PAL1	1	R1297T
1421.108	1.017	1430408	PAIR_OFF	n/a	n/a	3	3	SOAP	PASS	SKUNK	SOAP	12	[0, 0, 0]	-999	PAL1	1	R1297T
1422.125	0.265	1431425	STUDY_ORIENT	n/a	n/a	4	2	FOG	PASS	OAK	FOG	12	[0, 0, 0]	-999	PAL1	1	R1297T
1422.39	0.535	1431690	STUDY_ORIENT_OFF	n/a	n/a	4	2	FOG	PASS	OAK	FOG	12	[0, 0, 0]	-999	PAL1	1	R1297T
1422.925	4.017	1432225	STUDY_PAIR	n/a	wordpools/wordpool_EN.txt	4	2	FOG	PASS	OAK	FOG	12	[0, 0, 0]	-999	PAL1	1	R1297T
1426.942	1.017	1436242	PAIR_OFF	n/a	n/a	4	2	FOG	PASS	OAK	FOG	12	[0, 0, 0]	-999	PAL1	1	R1297T
1427.959	0.266	1437258	STUDY_ORIENT	n/a	n/a	5	1	CAGE	PASS	CAGE	ANT	12	[0, 0, 0]	-999	PAL1	1	R1297T
1428.225	0.701	1437524	STUDY_ORIENT_OFF	n/a	n/a	5	1	CAGE	PASS	CAGE	ANT	12	[0, 0, 0]	-999	PAL1	1	R1297T
1428.926	4.017	1438225	STUDY_PAIR	n/a	wordpools/wordpool_EN.txt	5	1	CAGE	PASS	CAGE	ANT	12	[0, 0, 0]	-999	PAL1	1	R1297T
1432.943	1.017	1442242	PAIR_OFF	n/a	n/a	5	1	CAGE	PASS	CAGE	ANT	12	[0, 0, 0]	-999	PAL1	1	R1297T
1433.96	0.266	1443259	STUDY_ORIENT	n/a	n/a	6	4	SPOON	PASS	BOARD	SPOON	12	[0, 0, 0]	-999	PAL1	1	R1297T
1434.226	0.684	1443525	STUDY_ORIENT_OFF	n/a	n/a	6	4	SPOON	PASS	BOARD	SPOON	12	[0, 0, 0]	-999	PAL1	1	R1297T
1434.91	4.018	1444209	STUDY_PAIR	n/a	wordpools/wordpool_EN.txt	6	4	SPOON	PASS	BOARD	SPOON	12	[0, 0, 0]	-999	PAL1	1	R1297T
1438.928	1.0	1448227	PAIR_OFF	n/a	n/a	6	4	SPOON	PASS	BOARD	SPOON	12	[0, 0, 0]	-999	PAL1	1	R1297T
1439.928	0.0	1449227	ENCODING_END	n/a	n/a	-999	-999	n/a	n/a	n/a	n/a	12	[0, 0, 0]	-999	PAL1	1	R1297T
1439.928	0.001	1449227	MATH_START	n/a	n/a	-999	-999	n/a	n/a	n/a	n/a	12	[0, 0, 0]	-999	PAL1	1	R1297T
1439.929	0.016	1449228	START	n/a	n/a	-999	-999	n/a	n/a	n/a	n/a	12	[-999, -999, -999]	-999	PAL1	1	R1297T
1439.945	7.467	1449244	PROB	7436	n/a	-999	-999	n/a	n/a	n/a	n/a	12	[8, 7, 2]	17	PAL1	1	R1297T
1447.412	4.184	1456710	PROB	4162	n/a	-999	-999	n/a	n/a	n/a	n/a	12	[8, 1, 7]	16	PAL1	1	R1297T
