onset	duration	sample	trial_type	response_time	stim_file	serialpos	probepos	probe_word	resp_word	study_1	study_2	list	test	answer	experiment	session	subject
0.0	0.0	936306	INSTRUCT_VIDEO_ON	n/a	n/a	-999	-999	n/a	n/a	n/a	n/a	-999	[0, 0, 0]	-999	PAL1	2	R1250N
0.0	5.403	936306	INSTRUCT_VIDEO_OFF	n/a	n/a	-999	-999	n/a	n/a	n/a	n/a	-999	[0, 0, 0]	-999	PAL1	2	R1250N
5.403	0.0	941709	SESS_START	n/a	n/a	-999	-999	n/a	n/a	n/a	n/a	-999	[0, 0, 0]	-999	PAL1	2	R1250N
5.403	32.501	941709	MIC_TEST	n/a	n/a	-999	-999	n/a	n/a	n/a	n/a	-999	[0, 0, 0]	-999	PAL1	2	R1250N
37.904	19.498	974211	PRACTICE_TRIAL	n/a	n/a	-999	-999	n/a	n/a	n/a	n/a	-1	[0, 0, 0]	-999	PAL1	2	R1250N
57.402	0.005	993709	ENCODING_START	n/a	n/a	-999	-999	n/a	n/a	n/a	n/a	-1	[0, 0, 0]	-999	PAL1	2	R1250N
57.407	0.267	993714	PRACTICE_ORIENT	n/a	n/a	1	5	FLOOD	BEAM	BEAM	FLOOD	-1	[0, 0, 0]	-999	PAL1	2	R1250N
57.674	0.75	993981	PRACTICE_ORIENT_OFF	n/a	n/a	1	5	FLOOD	BEAM	BEAM	FLOOD	-1	[0, 0, 0]	-999	PAL1	2	R1250N
58.424	4.0	994731	PRACTICE_PAIR	n/a	n/a	1	5	FLOOD	BEAM	BEAM	FLOOD	-1	[0, 0, 0]	-999	PAL1	2	R1250N
62.441	1.017	998748	PRACTICE_PAIR_OFF	n/a	n/a	1	5	FLOOD	BEAM	BEAM	FLOOD	-1	[0, 0, 0]	-999	PAL1	2	R1250N
63.458	0.267	999765	PRACTICE_ORIENT	n/a	n/a	2	6	RING	MAGIC	ATTIC	RING	-1	[0, 0, 0]	-999	PAL1	2	R1250N
63.725	0.532	1000032	PRACTICE_ORIENT_OFF	n/a	n/a	2	6	RING	MAGIC	ATTIC	RING	-1	[0, 0, 0]	-999	PAL1	2	R1250N
64.257	4.0	1000564	PRACTICE_PAIR	n/a	n/a	2	6	RING	MAGIC	ATTIC	RING	-1	[0, 0, 0]	-999	PAL1	2	R1250N
68.274	1.017	1004581	PRACTICE_PAIR_OFF	n/a	n/a	2	6	RING	MAGIC	ATTIC	RING	-1	[0, 0, 0]	-999	PAL1	2	R1250N
69.291	0.268	1005598	PRACTICE_ORIENT	n/a	n/a	3	1	CHEST	n/a	CHEST	RHINO	-1	[0, 0, 0]	-999	PAL1	2	R1250N
69.559	0.599	1005866	PRACTICE_ORIENT_OFF	n/a	n/a	3	1	CHEST	n/a	CHEST	RHINO	-1	[0, 0, 0]	-999	PAL1	2	R1250N
70.158	4.0	1006465	PRACTICE_PAIR	n/a	n/a	3	1	CHEST	n/a	CHEST	RHINO	-1	[0, 0, 0]	-999	PAL1	2	R1250N
74.175	1.017	1010482	PRACTICE_PAIR_OFF	n/a	n/a	3	1	CHEST	n/a	CHEST	RHINO	-1	[0, 0, 0]	-999	PAL1	2	R1250N
75.192	0.267	1011499	PRACTICE_ORIENT	n/a	n/a	4	2	IRON	WATCH	IRON	WATCH	-1	[0, 0, 0]	-999	PAL1	2	R1250N
75.459	0.633	1011766	PRACTICE_ORIENT_OFF	n/a	n/a	4	2	IRON	WATCH	IRON	WATCH	-1	[0, 0, 0]	-999	PAL1	2	R1250N
76.092	4.0	1012399	PRACTICE_PAIR	n/a	n/a	4	2	IRON	WATCH	IRON	WATCH	-1	[0, 0, 0]	-999	PAL1	2	R1250N
80.109	1.017	1016416	PRACTICE_PAIR_OFF	n/a	n/a	4	2	IRON	WATCH	IRON	WATCH	-1	[0, 0, 0]	-999	PAL1	2	R1250N
81.126	0.266	1017433	PRACTICE_ORIENT	n/a	n/a	5	3	CAMEL	TONGUE	CAMEL	TONGUE	-1	[0, 0, 0]	-999	PAL1	2	R1250N
81.392	0.617	1017699	PRACTICE_ORIENT_OFF	n/a	n/a	5	3	CAMEL	TONGUE	CAMEL	TONGUE	-1	[0, 0, 0]	-999	PAL1	2	R1250N
82.009	4.0	1018316	PRACTICE_PAIR	n/a	n/a	5	3	CAMEL	TONGUE	CAMEL	TONGUE	-1	[0, 0, 0]	-999	PAL1	2	R1250N
86.026	1.017	1022334	PRACTICE_PAIR_OFF	n/a	n/a	5	3	CAMEL	TONGUE	CAMEL	TONGUE	-1	[0, 0, 0]	-999	PAL1	2	R1250N
87.043	0.267	1023351	PRACTICE_ORIENT	n/a	n/a	6	4	WAGON	n/a	COTTON	WAGON	-1	[0, 0, 0]	-999	PAL1	2	R1250N
87.31	0.567	1023618	PRACTICE_ORIENT_OFF	n/a	n/a	6	4	WAGON	n/a	COTTON	WAGON	-1	[0, 0, 0]	-999	PAL1	2	R1250N
87.877	4.0	1024185	PRACTICE_PAIR	n/a	n/a	6	4	WAGON	n/a	COTTON	WAGON	-1	[0, 0, 0]	-999	PAL1	2	R1250N
91.894	1.0	1028202	PRACTICE_PAIR_OFF	n/a	n/a	6	4	WAGON	n/a	COTTON	WAGON	-1	[0, 0, 0]	-999	PAL1	2	R1250N
92.894	0.0	1029202	ENCODING_END	n/a	n/a	-999	-999	n/a	n/a	n/a	n/a	-1	[0, 0, 0]	-999	PAL1	2	R1250N
92.894	0.001	1029202	MATH_START	n/a	n/a	-999	-999	n/a	n/a	n/a	n/a	-1	[0, 0, 0]	-999	PAL1	2	R1250N
92.895	0.016	1029203	START	n/a	n/a	-999	-999	n/a	n/a	n/a	n/a	-1	[-999, -999, -999]	-999	PAL1	2	R1250N
92.911	4.867	1029219	PROB	4.832	n/a	-999	-999	n/a	n/a	n/a	n/a	-1	[2, 7, 9]	18	PAL1	2	R1250N
97.778	4.951	1034086	PROB	4.926	n/a	-999	-999	n/a	n/a	n/a	n/a	-1	[8, 3, 4]	15	PAL1	2	R1250N
102.729	3.834	1039037	PROB	3.798	n/a	-999	-999	n/a	n/a	n/a	n/a	-1	[6, 2, 2]	10	PAL1	2	R1250N
106.563	4.867	1042871	PROB	4.845	n/a	-999	-999	n/a	n/a	n/a	n/a	-1	[2, 2, 6]	10	PAL1	2	R1250N
111.43	3.265	1047738	PROB	3.265	n/a	-999	-999	n/a	n/a	n/a	n/a	-1	[3, 5, 4]	12	PAL1	2	R1250N
114.695	0.019	1051003	STOP	n/a	n/a	-999	-999	n/a	n/a	n/a	n/a	-1	[-999, -999, -999]	-999	PAL1	2	R1250N
114.714	0.0	1051022	MATH_END	n/a	n/a	-999	-999	n/a	n/a	n/a	n/a	-1	[0, 0, 0]	-999	PAL1	2	R1250N
114.714	0.016	1051022	RECALL_START	n/a	n/a	-999	-999	n/a	n/a	n/a	n/a	-1	[0, 0, 0]	-999	PAL1	2	R1250N
114.73	0.266	1051038	PRACTICE_RETRIEVAL_ORIENT	n/a	n/a	3	1	CHEST	n/a	CHEST	RHINO	-1	[0, 0, 0]	-999	PAL1	2	R1250N
114.996	0.551	1051304	PRACTICE_RETRIEVAL_ORIENT_OFF	n/a	n/a	3	1	CHEST	n/a	CHEST	RHINO	-1	[0, 0, 0]	-999	PAL1	2	R1250N
115.547	4.0	1051855	PRACTICE_PROBE	n/a	n/a	3	1	CHEST	n/a	CHEST	RHINO	-1	[0, 0, 0]	-999	PAL1	2	R1250N
115.55	4.014	1051858	REC_START	n/a	n/a	3	-999	n/a	n/a	n/a	n/a	-1	[0, 0, 0]	-999	PAL1	2	R1250N
119.564	0.769	1055872	PROBE_OFF	n/a	n/a	3	-999	n/a	n/a	n/a	n/a	-1	[0, 0, 0]	-999	PAL1	2	R1250N
120.333	0.231	1056641	REC_EVENT	4.783	n/a	3	1	CHEST	<>	CHEST	RHINO	-1	[0, 0, 0]	-999	PAL1	2	R1250N
120.564	0.017	1056872	REC_END	n/a	n/a	3	-999	n/a	n/a	n/a	n/a	-1	[0, 0, 0]	-999	PAL1	2	R1250N
120.581	0.267	1056889	PRACTICE_RETRIEVAL_ORIENT	n/a	n/a	4	2	IRON	WATCH	IRON	WATCH	-1	[0, 0, 0]	-999	PAL1	2	R1250N
120.848	0.716	1057156	PRACTICE_RETRIEVAL_ORIENT_OFF	n/a	n/a	4	2	IRON	WATCH	IRON	WATCH	-1	[0, 0, 0]	-999	PAL1	2	R1250N
121.564	4.0	1057872	PRACTICE_PROBE	n/a	n/a	4	2	IRON	WATCH	IRON	WATCH	-1	[0, 0, 0]	-999	PAL1	2	R1250N
121.565	0.939	1057873	REC_START	n/a	n/a	4	-999	n/a	WATCH	n/a	n/a	-1	[0, 0, 0]	-999	PAL1	2	R1250N
122.504	3.077	1058812	REC_EVENT	0.939	n/a	4	2	IRON	WATCH	IRON	WATCH	-1	[0, 0, 0]	-999	PAL1	2	R1250N
125.581	1.0	1061889	PROBE_OFF	n/a	n/a	4	-999	n/a	n/a	n/a	n/a	-1	[0, 0, 0]	-999	PAL1	2	R1250N
126.581	0.017	1062889	REC_END	n/a	n/a	4	-999	n/a	n/a	n/a	n/a	-1	[0, 0, 0]	-999	PAL1	2	R1250N
126.598	0.267	1062906	PRACTICE_RETRIEVAL_ORIENT	n/a	n/a	5	3	CAMEL	TONGUE	CAMEL	TONGUE	-1	[0, 0, 0]	-999	PAL1	2	R1250N
126.865	0.683	1063173	PRACTICE_RETRIEVAL_ORIENT_OFF	n/a	n/a	5	3	CAMEL	TONGUE	CAMEL	TONGUE	-1	[0, 0, 0]	-999	PAL1	2	R1250N
127.548	4.0	1063856	PRACTICE_PROBE	n/a	n/a	5	3	CAMEL	TONGUE	CAMEL	TONGUE	-1	[0, 0, 0]	-999	PAL1	2	R1250N
127.549	1.38	1063857	REC_START	n/a	n/a	5	-999	n/a	TONGUE	n/a	n/a	-1	[0, 0, 0]	-999	PAL1	2	R1250N
128.929	2.636	1065237	REC_EVENT	1.38	n/a	5	3	CAMEL	TONGUE	CAMEL	TONGUE	-1	[0, 0, 0]	-999	PAL1	2	R1250N
131.565	1.0	1067873	PROBE_OFF	n/a	n/a	5	-999	n/a	n/a	n/a	n/a	-1	[0, 0, 0]	-999	PAL1	2	R1250N
132.565	0.017	1068873	REC_END	n/a	n/a	5	-999	n/a	n/a	n/a	n/a	-1	[0, 0, 0]	-999	PAL1	2	R1250N
132.582	0.267	1068890	PRACTICE_RETRIEVAL_ORIENT	n/a	n/a	6	4	WAGON	n/a	COTTON	WAGON	-1	[0, 0, 0]	-999	PAL1	2	R1250N
132.849	0.667	1069157	PRACTICE_RETRIEVAL_ORIENT_OFF	n/a	n/a	6	4	WAGON	n/a	COTTON	WAGON	-1	[0, 0, 0]	-999	PAL1	2	R1250N
133.516	0.0	1069824	REC_START	n/a	n/a	6	-999	n/a	n/a	n/a	n/a	-1	[0, 0, 0]	-999	PAL1	2	R1250N
133.516	4.0	1069824	PRACTICE_PROBE	n/a	n/a	6	4	WAGON	n/a	COTTON	WAGON	-1	[0, 0, 0]	-999	PAL1	2	R1250N
134.779	2.754	1071087	REC_EVENT	1.263	n/a	6	4	WAGON	<>	COTTON	WAGON	-1	[0, 0, 0]	-999	PAL1	2	R1250N
137.533	1.0	1073841	PROBE_OFF	n/a	n/a	6	-999	n/a	n/a	n/a	n/a	-1	[0, 0, 0]	-999	PAL1	2	R1250N
138.533	0.016	1074841	REC_END	n/a	n/a	6	-999	n/a	n/a	n/a	n/a	-1	[0, 0, 0]	-999	PAL1	2	R1250N
138.549	0.267	1074857	PRACTICE_RETRIEVAL_ORIENT	n/a	n/a	1	5	FLOOD	BEAM	BEAM	FLOOD	-1	[0, 0, 0]	-999	PAL1	2	R1250N
138.816	0.617	1075124	PRACTICE_RETRIEVAL_ORIENT_OFF	n/a	n/a	1	5	FLOOD	BEAM	BEAM	FLOOD	-1	[0, 0, 0]	-999	PAL1	2	R1250N
139.433	4.0	1075741	PRACTICE_PROBE	n/a	n/a	1	5	FLOOD	BEAM	BEAM	FLOOD	-1	[0, 0, 0]	-999	PAL1	2	R1250N
139.433	1.532	1075741	REC_START	n/a	n/a	1	-999	n/a	BEAM	n/a	n/a	-1	[0, 0, 0]	-999	PAL1	2	R1250N
140.965	2.485	1077273	REC_EVENT	1.532	n/a	1	5	FLOOD	BEAM	BEAM	FLOOD	-1	[0, 0, 0]	-999	PAL1	2	R1250N
143.45	1.0	1079758	PROBE_OFF	n/a	n/a	1	-999	n/a	n/a	n/a	n/a	-1	[0, 0, 0]	-999	PAL1	2	R1250N
144.45	0.017	1080758	REC_END	n/a	n/a	1	-999	n/a	n/a	n/a	n/a	-1	[0, 0, 0]	-999	PAL1	2	R1250N
144.467	0.266	1080775	PRACTICE_RETRIEVAL_ORIENT	n/a	n/a	2	6	RING	MAGIC	ATTIC	RING	-1	[0, 0, 0]	-999	PAL1	2	R1250N
144.733	0.516	1081041	PRACTICE_RETRIEVAL_ORIENT_OFF	n/a	n/a	2	6	RING	MAGIC	ATTIC	RING	-1	[0, 0, 0]	-999	PAL1	2	R1250N
145.249	4.0	1081557	PRACTICE_PROBE	n/a	n/a	2	6	RING	MAGIC	ATTIC	RING	-1	[0, 0, 0]	-999	PAL1	2	R1250N
145.25	2.531	1081558	REC_START	n/a	n/a	2	-999	n/a	MAGIC	n/a	n/a	-1	[0, 0, 0]	-999	PAL1	2	R1250N
147.781	1.485	1084090	REC_EVENT	2.531	n/a	2	6	RING	MAGIC	ATTIC	RING	-1	[0, 0, 0]	-999	PAL1	2	R1250N
149.266	1.0	1085575	PROBE_OFF	n/a	n/a	2	-999	n/a	n/a	n/a	n/a	-1	[0, 0, 0]	-999	PAL1	2	R1250N
150.266	0.009	1086575	REC_END	n/a	n/a	2	-999	n/a	n/a	n/a	n/a	-1	[0, 0, 0]	-999	PAL1	2	R1250N
150.275	38.28	1086584	RECALL_END	n/a	n/a	-999	-999	n/a	n/a	n/a	n/a	-1	[0, 0, 0]	-999	PAL1	2	R1250N
188.555	10.928	1124864	TRIAL	n/a	n/a	-999	-999	n/a	n/a	n/a	n/a	1	[0, 0, 0]	-999	PAL1	2	R1250N
199.483	0.006	1135792	ENCODING_START	n/a	n/a	-999	-999	n/a	n/a	n/a	n/a	1	[0, 0, 0]	-999	PAL1	2	R1250N
199.489	0.267	1135798	STUDY_ORIENT	n/a	n/a	1	5	BLUSH	MILK	MILK	BLUSH	1	[0, 0, 0]	-999	PAL1	2	R1250N
199.756	0.549	1136065	STUDY_ORIENT_OFF	n/a	n/a	1	5	BLUSH	MILK	MILK	BLUSH	1	[0, 0, 0]	-999	PAL1	2	R1250N
200.305	4.0	1136614	STUDY_PAIR	n/a	wordpools/wordpool_EN.txt	1	5	BLUSH	MILK	MILK	BLUSH	1	[0, 0, 0]	-999	PAL1	2	R1250N
204.322	1.017	1140631	PAIR_OFF	n/a	n/a	1	5	BLUSH	MILK	MILK	BLUSH	1	[0, 0, 0]	-999	PAL1	2	R1250N
205.339	0.268	1141648	STUDY_ORIENT	n/a	n/a	2	2	TRUCK	VAN	TRUCK	VAN	1	[0, 0, 0]	-999	PAL1	2	R1250N
205.607	0.565	1141916	STUDY_ORIENT_OFF	n/a	n/a	2	2	TRUCK	VAN	TRUCK	VAN	1	[0, 0, 0]	-999	PAL1	2	R1250N
206.172	4.0	1142481	STUDY_PAIR	n/a	wordpools/wordpool_EN.txt	2	2	TRUCK	VAN	TRUCK	VAN	1	[0, 0, 0]	-999	PAL1	2	R1250N
210.189	1.017	1146499	PAIR_OFF	n/a	n/a	2	2	TRUCK	VAN	TRUCK	VAN	1	[0, 0, 0]	-999	PAL1	2	R1250N
211.206	0.268	1147516	STUDY_ORIENT	n/a	n/a	3	1	GUARD	DART	DART	GUARD	1	[0, 0, 0]	-999	PAL1	2	R1250N
211.474	0.732	1147784	STUDY_ORIENT_OFF	n/a	n/a	3	1	GUARD	DART	DART	GUARD	1	[0, 0, 0]	-999	PAL1	2	R1250N
212.206	4.0	1148516	STUDY_PAIR	n/a	wordpools/wordpool_EN.txt	3	1	GUARD	DART	DART	GUARD	1	[0, 0, 0]	-999	PAL1	2	R1250N
216.223	1.017	1152533	PAIR_OFF	n/a	n/a	3	1	GUARD	DART	DART	GUARD	1	[0, 0, 0]	-999	PAL1	2	R1250N
217.24	0.251	1153550	STUDY_ORIENT	n/a	n/a	4	6	TEETH	CHEEK	TEETH	CHEEK	1	[0, 0, 0]	-999	PAL1	2	R1250N
217.491	0.683	1153801	STUDY_ORIENT_OFF	n/a	n/a	4	6	TEETH	CHEEK	TEETH	CHEEK	1	[0, 0, 0]	-999	PAL1	2	R1250N
218.174	4.0	1154484	STUDY_PAIR	n/a	wordpools/wordpool_EN.txt	4	6	TEETH	CHEEK	TEETH	CHEEK	1	[0, 0, 0]	-999	PAL1	2	R1250N
222.191	1.017	1158501	PAIR_OFF	n/a	n/a	4	6	TEETH	CHEEK	TEETH	CHEEK	1	[0, 0, 0]	-999	PAL1	2	R1250N
223.208	0.267	1159518	STUDY_ORIENT	n/a	n/a	5	3	JAR	FOG	FOG	JAR	1	[0, 0, 0]	-999	PAL1	2	R1250N
223.475	0.733	1159785	STUDY_ORIENT_OFF	n/a	n/a	5	3	JAR	FOG	FOG	JAR	1	[0, 0, 0]	-999	PAL1	2	R1250N
224.208	4.0	1160518	STUDY_PAIR	n/a	wordpools/wordpool_EN.txt	5	3	JAR	FOG	FOG	JAR	1	[0, 0, 0]	-999	PAL1	2	R1250N
228.225	1.017	1164535	PAIR_OFF	n/a	n/a	5	3	JAR	FOG	FOG	JAR	1	[0, 0, 0]	-999	PAL1	2	R1250N
229.242	0.267	1165552	STUDY_ORIENT	n/a	n/a	6	4	CHAIR	PIT	CHAIR	PIT	1	[0, 0, 0]	-999	PAL1	2	R1250N
229.509	0.616	1165819	STUDY_ORIENT_OFF	n/a	n/a	6	4	CHAIR	PIT	CHAIR	PIT	1	[0, 0, 0]	-999	PAL1	2	R1250N
230.125	4.0	1166435	STUDY_PAIR	n/a	wordpools/wordpool_EN.txt	6	4	CHAIR	PIT	CHAIR	PIT	1	[0, 0, 0]	-999	PAL1	2	R1250N
234.142	1.0	1170452	PAIR_OFF	n/a	n/a	6	4	CHAIR	PIT	CHAIR	PIT	1	[0, 0, 0]	-999	PAL1	2	R1250N
235.142	0.0	1171452	ENCODING_END	n/a	n/a	-999	-999	n/a	n/a	n/a	n/a	1	[0, 0, 0]	-999	PAL1	2	R1250N
235.142	0.0	1171452	MATH_START	n/a	n/a	-999	-999	n/a	n/a	n/a	n/a	1	[0, 0, 0]	-999	PAL1	2	R1250N
235.142	0.017	1171452	START	n/a	n/a	-999	-999	n/a	n/a	n/a	n/a	1	[-999, -999, -999]	-999	PAL1	2	R1250N
235.159	4.167	1171469	PROB	4.135	n/a	-999	-999	n/a	n/a	n/a	n/a	1	[1, 1, 5]	7	PAL1	2	R1250N
239.326	4.635	1175636	PROB	4.609	n/a	-999	-999	n/a	n/a	n/a	n/a	1	[2, 5, 1]	8	PAL1	2	R1250N
243.961	5.083	1180271	PROB	5.061	n/a	-999	-999	n/a	n/a	n/a	n/a	1	[3, 1, 8]	12	PAL1	2	R1250N
249.044	6.514	1185354	PROB	6.514	n/a	-999	-999	n/a	n/a	n/a	n/a	1	[5, 8, 4]	17	PAL1	2	R1250N
255.558	0.021	1191868	STOP	n/a	n/a	-999	-999	n/a	n/a	n/a	n/a	1	[-999, -999, -999]	-999	PAL1	2	R1250N
255.579	0.0	1191889	MATH_END	n/a	n/a	-999	-999	n/a	n/a	n/a	n/a	1	[0, 0, 0]	-999	PAL1	2	R1250N
255.579	0.016	1191889	RECALL_START	n/a	n/a	-999	-999	n/a	n/a	n/a	n/a	1	[0, 0, 0]	-999	PAL1	2	R1250N
255.595	0.267	1191905	TEST_ORIENT	n/a	n/a	3	1	GUARD	DART	DART	GUARD	1	[0, 0, 0]	-999	PAL1	2	R1250N
255.862	0.767	1192172	RETRIEVAL_ORIENT_OFF	n/a	n/a	-999	-999	n/a	n/a	n/a	n/a	1	[0, 0, 0]	-999	PAL1	2	R1250N
256.629	4.0	1192939	TEST_PROBE	n/a	wordpools/wordpool_EN.txt	3	1	GUARD	DART	DART	GUARD	1	[0, 0, 0]	-999	PAL1	2	R1250N
256.629	1.519	1192939	REC_START	n/a	n/a	3	-999	n/a	DART	n/a	n/a	1	[0, 0, 0]	-999	PAL1	2	R1250N
258.148	2.498	1194458	REC_EVENT	1.519	n/a	3	1	GUARD	DART	DART	GUARD	1	[0, 0, 0]	-999	PAL1	2	R1250N
260.646	1.0	1196956	PROBE_OFF	n/a	n/a	3	-999	n/a	n/a	n/a	n/a	1	[0, 0, 0]	-999	PAL1	2	R1250N
261.646	0.017	1197956	REC_END	n/a	n/a	3	-999	n/a	n/a	n/a	n/a	1	[0, 0, 0]	-999	PAL1	2	R1250N
261.663	0.266	1197973	TEST_ORIENT	n/a	n/a	2	2	TRUCK	VAN	TRUCK	VAN	1	[0, 0, 0]	-999	PAL1	2	R1250N
261.929	0.734	1198239	RETRIEVAL_ORIENT_OFF	n/a	n/a	3	-999	n/a	n/a	n/a	n/a	1	[0, 0, 0]	-999	PAL1	2	R1250N
262.663	4.0	1198973	TEST_PROBE	n/a	wordpools/wordpool_EN.txt	2	2	TRUCK	VAN	TRUCK	VAN	1	[0, 0, 0]	-999	PAL1	2	R1250N
262.663	2.176	1198973	REC_START	n/a	n/a	2	-999	n/a	VAN	n/a	n/a	1	[0, 0, 0]	-999	PAL1	2	R1250N
264.839	1.841	1201149	REC_EVENT	2.176	n/a	2	2	TRUCK	VAN	TRUCK	VAN	1	[0, 0, 0]	-999	PAL1	2	R1250N
266.68	1.0	1202990	PROBE_OFF	n/a	n/a	2	-999	n/a	n/a	n/a	n/a	1	[0, 0, 0]	-999	PAL1	2	R1250N
267.68	0.017	1203990	REC_END	n/a	n/a	2	-999	n/a	n/a	n/a	n/a	1	[0, 0, 0]	-999	PAL1	2	R1250N
267.697	0.266	1204007	TEST_ORIENT	n/a	n/a	5	3	JAR	FOG	FOG	JAR	1	[0, 0, 0]	-999	PAL1	2	R1250N
267.963	0.65	1204273	RETRIEVAL_ORIENT_OFF	n/a	n/a	2	-999	n/a	n/a	n/a	n/a	1	[0, 0, 0]	-999	PAL1	2	R1250N
268.613	4.0	1204923	TEST_PROBE	n/a	wordpools/wordpool_EN.txt	5	3	JAR	FOG	FOG	JAR	1	[0, 0, 0]	-999	PAL1	2	R1250N
268.614	2.316	1204924	REC_START	n/a	n/a	5	-999	n/a	FOG	n/a	n/a	1	[0, 0, 0]	-999	PAL1	2	R1250N
270.93	1.701	1207240	REC_EVENT	2.316	n/a	5	3	JAR	FOG	FOG	JAR	1	[0, 0, 0]	-999	PAL1	2	R1250N
272.631	1.0	1208942	PROBE_OFF	n/a	n/a	5	-999	n/a	n/a	n/a	n/a	1	[0, 0, 0]	-999	PAL1	2	R1250N
273.631	0.016	1209942	REC_END	n/a	n/a	5	-999	n/a	n/a	n/a	n/a	1	[0, 0, 0]	-999	PAL1	2	R1250N
273.647	0.267	1209958	TEST_ORIENT	n/a	n/a	6	4	CHAIR	PIT	CHAIR	PIT	1	[0, 0, 0]	-999	PAL1	2	R1250N
273.914	0.667	1210225	RETRIEVAL_ORIENT_OFF	n/a	n/a	5	-999	n/a	n/a	n/a	n/a	1	[0, 0, 0]	-999	PAL1	2	R1250N
274.581	4.0	1210892	TEST_PROBE	n/a	wordpools/wordpool_EN.txt	6	4	CHAIR	PIT	CHAIR	PIT	1	[0, 0, 0]	-999	PAL1	2	R1250N
274.581	1.813	1210892	REC_START	n/a	n/a	6	-999	n/a	PIT	n/a	n/a	1	[0, 0, 0]	-999	PAL1	2	R1250N
276.394	2.204	1212705	REC_EVENT	1.813	n/a	6	4	CHAIR	PIT	CHAIR	PIT	1	[0, 0, 0]	-999	PAL1	2	R1250N
278.598	1.0	1214909	PROBE_OFF	n/a	n/a	6	-999	n/a	n/a	n/a	n/a	1	[0, 0, 0]	-999	PAL1	2	R1250N
279.598	0.016	1215909	REC_END	n/a	n/a	6	-999	n/a	n/a	n/a	n/a	1	[0, 0, 0]	-999	PAL1	2	R1250N
279.614	0.267	1215925	TEST_ORIENT	n/a	n/a	1	5	BLUSH	MILK	MILK	BLUSH	1	[0, 0, 0]	-999	PAL1	2	R1250N
279.881	0.584	1216192	RETRIEVAL_ORIENT_OFF	n/a	n/a	6	-999	n/a	n/a	n/a	n/a	1	[0, 0, 0]	-999	PAL1	2	R1250N
280.465	4.0	1216776	TEST_PROBE	n/a	wordpools/wordpool_EN.txt	1	5	BLUSH	MILK	MILK	BLUSH	1	[0, 0, 0]	-999	PAL1	2	R1250N
280.465	1.507	1216776	REC_START	n/a	n/a	1	-999	n/a	MILK	n/a	n/a	1	[0, 0, 0]	-999	PAL1	2	R1250N
281.972	2.51	1218283	REC_EVENT	1.507	n/a	1	5	BLUSH	MILK	MILK	BLUSH	1	[0, 0, 0]	-999	PAL1	2	R1250N
284.482	1.0	1220793	PROBE_OFF	n/a	n/a	1	-999	n/a	n/a	n/a	n/a	1	[0, 0, 0]	-999	PAL1	2	R1250N
285.482	0.016	1221793	REC_END	n/a	n/a	1	-999	n/a	n/a	n/a	n/a	1	[0, 0, 0]	-999	PAL1	2	R1250N
285.498	0.267	1221809	TEST_ORIENT	n/a	n/a	4	6	TEETH	CHEEK	TEETH	CHEEK	1	[0, 0, 0]	-999	PAL1	2	R1250N
285.765	0.734	1222076	RETRIEVAL_ORIENT_OFF	n/a	n/a	1	-999	n/a	n/a	n/a	n/a	1	[0, 0, 0]	-999	PAL1	2	R1250N
286.499	4.0	1222810	TEST_PROBE	n/a	wordpools/wordpool_EN.txt	4	6	TEETH	CHEEK	TEETH	CHEEK	1	[0, 0, 0]	-999	PAL1	2	R1250N
286.499	1.578	1222810	REC_START	n/a	n/a	4	-999	n/a	CHEEK	n/a	n/a	1	[0, 0, 0]	-999	PAL1	2	R1250N
288.077	2.439	1224388	REC_EVENT	1.578	n/a	4	6	TEETH	CHEEK	TEETH	CHEEK	1	[0, 0, 0]	-999	PAL1	2	R1250N
290.516	1.0	1226827	PROBE_OFF	n/a	n/a	4	-999	n/a	n/a	n/a	n/a	1	[0, 0, 0]	-999	PAL1	2	R1250N
291.516	0.003	1227827	REC_END	n/a	n/a	4	-999	n/a	n/a	n/a	n/a	1	[0, 0, 0]	-999	PAL1	2	R1250N
291.519	6.064	1227830	RECALL_END	n/a	n/a	-999	-999	n/a	n/a	n/a	n/a	1	[0, 0, 0]	-999	PAL1	2	R1250N
297.583	10.928	1233894	TRIAL	n/a	n/a	-999	-999	n/a	n/a	n/a	n/a	2	[0, 0, 0]	-999	PAL1	2	R1250N
308.511	0.007	1244822	ENCODING_START	n/a	n/a	-999	-999	n/a	n/a	n/a	n/a	2	[0, 0, 0]	-999	PAL1	2	R1250N
308.518	0.266	1244829	STUDY_ORIENT	n/a	n/a	1	3	BED	SQUARE	BED	SQUARE	2	[0, 0, 0]	-999	PAL1	2	R1250N
308.784	0.599	1245095	STUDY_ORIENT_OFF	n/a	n/a	1	3	BED	SQUARE	BED	SQUARE	2	[0, 0, 0]	-999	PAL1	2	R1250N
309.383	4.0	1245694	STUDY_PAIR	n/a	wordpools/wordpool_EN.txt	1	3	BED	SQUARE	BED	SQUARE	2	[0, 0, 0]	-999	PAL1	2	R1250N
313.4	1.018	1249711	PAIR_OFF	n/a	n/a	1	3	BED	SQUARE	BED	SQUARE	2	[0, 0, 0]	-999	PAL1	2	R1250N
314.418	0.267	1250729	STUDY_ORIENT	n/a	n/a	2	2	FRUIT	n/a	FAN	FRUIT	2	[0, 0, 0]	-999	PAL1	2	R1250N
314.685	0.616	1250996	STUDY_ORIENT_OFF	n/a	n/a	2	2	FRUIT	n/a	FAN	FRUIT	2	[0, 0, 0]	-999	PAL1	2	R1250N
315.301	4.0	1251612	STUDY_PAIR	n/a	wordpools/wordpool_EN.txt	2	2	FRUIT	n/a	FAN	FRUIT	2	[0, 0, 0]	-999	PAL1	2	R1250N
319.318	1.016	1255629	PAIR_OFF	n/a	n/a	2	2	FRUIT	n/a	FAN	FRUIT	2	[0, 0, 0]	-999	PAL1	2	R1250N
320.334	0.251	1256645	STUDY_ORIENT	n/a	n/a	3	1	BOOT	n/a	BOOT	SEAL	2	[0, 0, 0]	-999	PAL1	2	R1250N
320.585	0.733	1256896	STUDY_ORIENT_OFF	n/a	n/a	3	1	BOOT	n/a	BOOT	SEAL	2	[0, 0, 0]	-999	PAL1	2	R1250N
321.318	4.0	1257629	STUDY_PAIR	n/a	wordpools/wordpool_EN.txt	3	1	BOOT	n/a	BOOT	SEAL	2	[0, 0, 0]	-999	PAL1	2	R1250N
325.335	1.017	1261646	PAIR_OFF	n/a	n/a	3	1	BOOT	n/a	BOOT	SEAL	2	[0, 0, 0]	-999	PAL1	2	R1250N
326.352	0.268	1262663	STUDY_ORIENT	n/a	n/a	4	6	COIN	n/a	COIN	ROOT	2	[0, 0, 0]	-999	PAL1	2	R1250N
326.62	0.715	1262931	STUDY_ORIENT_OFF	n/a	n/a	4	6	COIN	n/a	COIN	ROOT	2	[0, 0, 0]	-999	PAL1	2	R1250N
327.335	4.0	1263646	STUDY_PAIR	n/a	wordpools/wordpool_EN.txt	4	6	COIN	n/a	COIN	ROOT	2	[0, 0, 0]	-999	PAL1	2	R1250N
331.352	1.017	1267663	PAIR_OFF	n/a	n/a	4	6	COIN	n/a	COIN	ROOT	2	[0, 0, 0]	-999	PAL1	2	R1250N
332.369	0.268	1268680	STUDY_ORIENT	n/a	n/a	5	5	POND	n/a	POND	SOCK	2	[0, 0, 0]	-999	PAL1	2	R1250N
332.637	0.549	1268948	STUDY_ORIENT_OFF	n/a	n/a	5	5	POND	n/a	POND	SOCK	2	[0, 0, 0]	-999	PAL1	2	R1250N
333.186	4.0	1269497	STUDY_PAIR	n/a	wordpools/wordpool_EN.txt	5	5	POND	n/a	POND	SOCK	2	[0, 0, 0]	-999	PAL1	2	R1250N
337.203	1.017	1273515	PAIR_OFF	n/a	n/a	5	5	POND	n/a	POND	SOCK	2	[0, 0, 0]	-999	PAL1	2	R1250N
338.22	0.268	1274532	STUDY_ORIENT	n/a	n/a	6	4	STAIR	n/a	TEA	STAIR	2	[0, 0, 0]	-999	PAL1	2	R1250N
338.488	0.515	1274800	STUDY_ORIENT_OFF	n/a	n/a	6	4	STAIR	n/a	TEA	STAIR	2	[0, 0, 0]	-999	PAL1	2	R1250N
339.003	4.0	1275315	STUDY_PAIR	n/a	wordpools/wordpool_EN.txt	6	4	STAIR	n/a	TEA	STAIR	2	[0, 0, 0]	-999	PAL1	2	R1250N
343.02	1.004	1279332	PAIR_OFF	n/a	n/a	6	4	STAIR	n/a	TEA	STAIR	2	[0, 0, 0]	-999	PAL1	2	R1250N
344.024	0.0	1280336	MATH_START	n/a	n/a	-999	-999	n/a	n/a	n/a	n/a	2	[0, 0, 0]	-999	PAL1	2	R1250N
344.024	0.0	1280336	ENCODING_END	n/a	n/a	-999	-999	n/a	n/a	n/a	n/a	2	[0, 0, 0]	-999	PAL1	2	R1250N
344.024	0.013	1280336	START	n/a	n/a	-999	-999	n/a	n/a	n/a	n/a	2	[-999, -999, -999]	-999	PAL1	2	R1250N
344.037	4.267	1280349	PROB	4.243	n/a	-999	-999	n/a	n/a	n/a	n/a	2	[1, 2, 2]	5	PAL1	2	R1250N
348.304	6.235	1284616	PROB	6.201	n/a	-999	-999	n/a	n/a	n/a	n/a	2	[9, 4, 8]	21	PAL1	2	R1250N
354.539	5.267	1290851	PROB	5.237	n/a	-999	-999	n/a	n/a	n/a	n/a	2	[6, 9, 7]	22	PAL1	2	R1250N
359.806	6.057	1296118	PROB	6.057	n/a	-999	-999	n/a	n/a	n/a	n/a	2	[5, 1, 7]	13	PAL1	2	R1250N
365.863	0.011	1302175	STOP	n/a	n/a	-999	-999	n/a	n/a	n/a	n/a	2	[-999, -999, -999]	-999	PAL1	2	R1250N
365.874	0.0	1302186	MATH_END	n/a	n/a	-999	-999	n/a	n/a	n/a	n/a	2	[0, 0, 0]	-999	PAL1	2	R1250N
365.874	0.016	1302186	RECALL_START	n/a	n/a	-999	-999	n/a	n/a	n/a	n/a	2	[0, 0, 0]	-999	PAL1	2	R1250N
365.89	0.266	1302202	TEST_ORIENT	n/a	n/a	3	1	BOOT	n/a	BOOT	SEAL	2	[0, 0, 0]	-999	PAL1	2	R1250N
366.156	0.634	1302468	RETRIEVAL_ORIENT_OFF	n/a	n/a	-999	-999	n/a	n/a	n/a	n/a	2	[0, 0, 0]	-999	PAL1	2	R1250N
366.79	4.0	1303102	TEST_PROBE	n/a	wordpools/wordpool_EN.txt	3	1	BOOT	n/a	BOOT	SEAL	2	[0, 0, 0]	-999	PAL1	2	R1250N
366.791	4.017	1303103	REC_START	n/a	n/a	3	-999	n/a	n/a	n/a	n/a	2	[0, 0, 0]	-999	PAL1	2	R1250N
370.808	0.835	1307120	PROBE_OFF	n/a	n/a	3	-999	n/a	n/a	n/a	n/a	2	[0, 0, 0]	-999	PAL1	2	R1250N
371.643	0.165	1307955	REC_EVENT	4.852	n/a	3	1	BOOT	<>	BOOT	SEAL	2	[0, 0, 0]	-999	PAL1	2	R1250N
371.808	0.016	1308120	REC_END	n/a	n/a	3	-999	n/a	n/a	n/a	n/a	2	[0, 0, 0]	-999	PAL1	2	R1250N
371.824	0.266	1308136	TEST_ORIENT	n/a	n/a	2	2	FRUIT	n/a	FAN	FRUIT	2	[0, 0, 0]	-999	PAL1	2	R1250N
372.09	0.668	1308402	RETRIEVAL_ORIENT_OFF	n/a	n/a	3	-999	n/a	n/a	n/a	n/a	2	[0, 0, 0]	-999	PAL1	2	R1250N
372.758	4.0	1309070	TEST_PROBE	n/a	wordpools/wordpool_EN.txt	2	2	FRUIT	n/a	FAN	FRUIT	2	[0, 0, 0]	-999	PAL1	2	R1250N
372.758	4.017	1309070	REC_START	n/a	n/a	2	-999	n/a	n/a	n/a	n/a	2	[0, 0, 0]	-999	PAL1	2	R1250N
376.775	0.371	1313087	PROBE_OFF	n/a	n/a	2	-999	n/a	n/a	n/a	n/a	2	[0, 0, 0]	-999	PAL1	2	R1250N
377.146	0.629	1313458	REC_EVENT	4.388	n/a	2	2	FRUIT	<>	FAN	FRUIT	2	[0, 0, 0]	-999	PAL1	2	R1250N
377.775	0.017	1314087	REC_END	n/a	n/a	2	-999	n/a	n/a	n/a	n/a	2	[0, 0, 0]	-999	PAL1	2	R1250N
377.792	0.265	1314104	TEST_ORIENT	n/a	n/a	1	3	BED	SQUARE	BED	SQUARE	2	[0, 0, 0]	-999	PAL1	2	R1250N
378.057	0.735	1314369	RETRIEVAL_ORIENT_OFF	n/a	n/a	2	-999	n/a	n/a	n/a	n/a	2	[0, 0, 0]	-999	PAL1	2	R1250N
378.792	4.0	1315104	TEST_PROBE	n/a	wordpools/wordpool_EN.txt	1	3	BED	SQUARE	BED	SQUARE	2	[0, 0, 0]	-999	PAL1	2	R1250N
378.792	0.913	1315104	REC_START	n/a	n/a	1	-999	n/a	SQUARE	n/a	n/a	2	[0, 0, 0]	-999	PAL1	2	R1250N
379.705	3.104	1316017	REC_EVENT	0.913	n/a	1	3	BED	SQUARE	BED	SQUARE	2	[0, 0, 0]	-999	PAL1	2	R1250N
382.809	1.001	1319121	PROBE_OFF	n/a	n/a	1	-999	n/a	n/a	n/a	n/a	2	[0, 0, 0]	-999	PAL1	2	R1250N
383.81	0.016	1320122	REC_END	n/a	n/a	1	-999	n/a	n/a	n/a	n/a	2	[0, 0, 0]	-999	PAL1	2	R1250N
383.826	0.265	1320138	TEST_ORIENT	n/a	n/a	6	4	STAIR	n/a	TEA	STAIR	2	[0, 0, 0]	-999	PAL1	2	R1250N
384.091	0.668	1320403	RETRIEVAL_ORIENT_OFF	n/a	n/a	1	-999	n/a	n/a	n/a	n/a	2	[0, 0, 0]	-999	PAL1	2	R1250N
384.759	4.0	1321071	TEST_PROBE	n/a	wordpools/wordpool_EN.txt	6	4	STAIR	n/a	TEA	STAIR	2	[0, 0, 0]	-999	PAL1	2	R1250N
384.76	4.016	1321072	REC_START	n/a	n/a	6	-999	n/a	n/a	n/a	n/a	2	[0, 0, 0]	-999	PAL1	2	R1250N
388.776	0.906	1325088	PROBE_OFF	n/a	n/a	6	-999	n/a	n/a	n/a	n/a	2	[0, 0, 0]	-999	PAL1	2	R1250N
389.682	0.113	1325994	REC_EVENT	4.922	n/a	6	4	STAIR	<>	TEA	STAIR	2	[0, 0, 0]	-999	PAL1	2	R1250N
389.795	0.015	1326107	REC_END	n/a	n/a	6	-999	n/a	n/a	n/a	n/a	2	[0, 0, 0]	-999	PAL1	2	R1250N
389.81	0.265	1326122	TEST_ORIENT	n/a	n/a	5	5	POND	n/a	POND	SOCK	2	[0, 0, 0]	-999	PAL1	2	R1250N
390.075	0.751	1326387	RETRIEVAL_ORIENT_OFF	n/a	n/a	6	-999	n/a	n/a	n/a	n/a	2	[0, 0, 0]	-999	PAL1	2	R1250N
390.826	4.0	1327138	TEST_PROBE	n/a	wordpools/wordpool_EN.txt	5	5	POND	n/a	POND	SOCK	2	[0, 0, 0]	-999	PAL1	2	R1250N
390.827	4.017	1327139	REC_START	n/a	n/a	5	-999	n/a	n/a	n/a	n/a	2	[0, 0, 0]	-999	PAL1	2	R1250N
394.844	0.835	1331156	PROBE_OFF	n/a	n/a	5	-999	n/a	n/a	n/a	n/a	2	[0, 0, 0]	-999	PAL1	2	R1250N
395.679	0.165	1331991	REC_EVENT	4.852	n/a	5	5	POND	<>	POND	SOCK	2	[0, 0, 0]	-999	PAL1	2	R1250N
395.844	0.016	1332156	REC_END	n/a	n/a	5	-999	n/a	n/a	n/a	n/a	2	[0, 0, 0]	-999	PAL1	2	R1250N
395.86	0.266	1332172	TEST_ORIENT	n/a	n/a	4	6	COIN	n/a	COIN	ROOT	2	[0, 0, 0]	-999	PAL1	2	R1250N
396.126	0.551	1332438	RETRIEVAL_ORIENT_OFF	n/a	n/a	5	-999	n/a	n/a	n/a	n/a	2	[0, 0, 0]	-999	PAL1	2	R1250N
396.677	4.0	1332989	TEST_PROBE	n/a	wordpools/wordpool_EN.txt	4	6	COIN	n/a	COIN	ROOT	2	[0, 0, 0]	-999	PAL1	2	R1250N
396.678	4.016	1332990	REC_START	n/a	n/a	4	-999	n/a	n/a	n/a	n/a	2	[0, 0, 0]	-999	PAL1	2	R1250N
400.694	0.651	1337007	PROBE_OFF	n/a	n/a	4	-999	n/a	n/a	n/a	n/a	2	[0, 0, 0]	-999	PAL1	2	R1250N
401.345	0.349	1337658	REC_EVENT	4.667	n/a	4	6	COIN	<>	COIN	ROOT	2	[0, 0, 0]	-999	PAL1	2	R1250N
401.694	0.009	1338007	REC_END	n/a	n/a	4	-999	n/a	n/a	n/a	n/a	2	[0, 0, 0]	-999	PAL1	2	R1250N
401.703	7.209	1338016	RECALL_END	n/a	n/a	-999	-999	n/a	n/a	n/a	n/a	2	[0, 0, 0]	-999	PAL1	2	R1250N
408.912	10.928	1345225	TRIAL	n/a	n/a	-999	-999	n/a	n/a	n/a	n/a	3	[0, 0, 0]	-999	PAL1	2	R1250N
419.84	0.006	1356153	ENCODING_START	n/a	n/a	-999	-999	n/a	n/a	n/a	n/a	3	[0, 0, 0]	-999	PAL1	2	R1250N
419.846	0.266	1356159	STUDY_ORIENT	n/a	n/a	1	1	SMOKE	BEAN	SMOKE	BEAN	3	[0, 0, 0]	-999	PAL1	2	R1250N
420.112	0.701	1356425	STUDY_ORIENT_OFF	n/a	n/a	1	1	SMOKE	BEAN	SMOKE	BEAN	3	[0, 0, 0]	-999	PAL1	2	R1250N
420.813	4.0	1357126	STUDY_PAIR	n/a	wordpools/wordpool_EN.txt	1	1	SMOKE	BEAN	SMOKE	BEAN	3	[0, 0, 0]	-999	PAL1	2	R1250N
424.83	1.017	1361143	PAIR_OFF	n/a	n/a	1	1	SMOKE	BEAN	SMOKE	BEAN	3	[0, 0, 0]	-999	PAL1	2	R1250N
425.847	0.266	1362160	STUDY_ORIENT	n/a	n/a	2	6	CLOUD	SCHOOL	CLOUD	SCHOOL	3	[0, 0, 0]	-999	PAL1	2	R1250N
426.113	0.534	1362426	STUDY_ORIENT_OFF	n/a	n/a	2	6	CLOUD	SCHOOL	CLOUD	SCHOOL	3	[0, 0, 0]	-999	PAL1	2	R1250N
426.647	4.0	1362960	STUDY_PAIR	n/a	wordpools/wordpool_EN.txt	2	6	CLOUD	SCHOOL	CLOUD	SCHOOL	3	[0, 0, 0]	-999	PAL1	2	R1250N
430.664	1.017	1366977	PAIR_OFF	n/a	n/a	2	6	CLOUD	SCHOOL	CLOUD	SCHOOL	3	[0, 0, 0]	-999	PAL1	2	R1250N
431.681	0.266	1367994	STUDY_ORIENT	n/a	n/a	3	3	DIME	WOLF	DIME	WOLF	3	[0, 0, 0]	-999	PAL1	2	R1250N
431.947	0.567	1368260	STUDY_ORIENT_OFF	n/a	n/a	3	3	DIME	WOLF	DIME	WOLF	3	[0, 0, 0]	-999	PAL1	2	R1250N
432.514	4.0	1368827	STUDY_PAIR	n/a	wordpools/wordpool_EN.txt	3	3	DIME	WOLF	DIME	WOLF	3	[0, 0, 0]	-999	PAL1	2	R1250N
436.531	1.017	1372844	PAIR_OFF	n/a	n/a	3	3	DIME	WOLF	DIME	WOLF	3	[0, 0, 0]	-999	PAL1	2	R1250N
437.548	0.267	1373861	STUDY_ORIENT	n/a	n/a	4	2	OAK	GRASS	GRASS	OAK	3	[0, 0, 0]	-999	PAL1	2	R1250N
437.815	0.582	1374128	STUDY_ORIENT_OFF	n/a	n/a	4	2	OAK	GRASS	GRASS	OAK	3	[0, 0, 0]	-999	PAL1	2	R1250N
438.397	4.0	1374710	STUDY_PAIR	n/a	wordpools/wordpool_EN.txt	4	2	OAK	GRASS	GRASS	OAK	3	[0, 0, 0]	-999	PAL1	2	R1250N
442.415	1.017	1378728	PAIR_OFF	n/a	n/a	4	2	OAK	GRASS	GRASS	OAK	3	[0, 0, 0]	-999	PAL1	2	R1250N
443.432	0.267	1379745	STUDY_ORIENT	n/a	n/a	5	5	PLANT	n/a	PLANT	MAZE	3	[0, 0, 0]	-999	PAL1	2	R1250N
443.699	0.632	1380012	STUDY_ORIENT_OFF	n/a	n/a	5	5	PLANT	n/a	PLANT	MAZE	3	[0, 0, 0]	-999	PAL1	2	R1250N
444.331	4.0	1380644	STUDY_PAIR	n/a	wordpools/wordpool_EN.txt	5	5	PLANT	n/a	PLANT	MAZE	3	[0, 0, 0]	-999	PAL1	2	R1250N
448.348	1.017	1384661	PAIR_OFF	n/a	n/a	5	5	PLANT	n/a	PLANT	MAZE	3	[0, 0, 0]	-999	PAL1	2	R1250N
449.365	0.268	1385678	STUDY_ORIENT	n/a	n/a	6	4	DOLL	MAZE	GEESE	DOLL	3	[0, 0, 0]	-999	PAL1	2	R1250N
449.633	0.749	1385946	STUDY_ORIENT_OFF	n/a	n/a	6	4	DOLL	MAZE	GEESE	DOLL	3	[0, 0, 0]	-999	PAL1	2	R1250N
450.382	4.0	1386695	STUDY_PAIR	n/a	wordpools/wordpool_EN.txt	6	4	DOLL	MAZE	GEESE	DOLL	3	[0, 0, 0]	-999	PAL1	2	R1250N
454.399	1.0	1390712	PAIR_OFF	n/a	n/a	6	4	DOLL	MAZE	GEESE	DOLL	3	[0, 0, 0]	-999	PAL1	2	R1250N
455.399	0.0	1391712	ENCODING_END	n/a	n/a	-999	-999	n/a	n/a	n/a	n/a	3	[0, 0, 0]	-999	PAL1	2	R1250N
455.399	0.001	1391712	MATH_START	n/a	n/a	-999	-999	n/a	n/a	n/a	n/a	3	[0, 0, 0]	-999	PAL1	2	R1250N
455.4	0.017	1391713	START	n/a	n/a	-999	-999	n/a	n/a	n/a	n/a	3	[-999, -999, -999]	-999	PAL1	2	R1250N
455.417	4.632	1391730	PROB	4.6	n/a	-999	-999	n/a	n/a	n/a	n/a	3	[9, 6, 6]	21	PAL1	2	R1250N
460.049	4.535	1396362	PROB	4.512	n/a	-999	-999	n/a	n/a	n/a	n/a	3	[2, 2, 9]	13	PAL1	2	R1250N
464.584	6.168	1400898	PROB	6.138	n/a	-999	-999	n/a	n/a	n/a	n/a	3	[7, 3, 8]	18	PAL1	2	R1250N
470.752	6.76	1407066	PROB	6.76	n/a	-999	-999	n/a	n/a	n/a	n/a	3	[2, 9, 9]	20	PAL1	2	R1250N
477.512	0.007	1413826	STOP	n/a	n/a	-999	-999	n/a	n/a	n/a	n/a	3	[-999, -999, -999]	-999	PAL1	2	R1250N
477.519	0.0	1413833	RECALL_START	n/a	n/a	-999	-999	n/a	n/a	n/a	n/a	3	[0, 0, 0]	-999	PAL1	2	R1250N
477.519	0.017	1413833	MATH_END	n/a	n/a	-999	-999	n/a	n/a	n/a	n/a	3	[0, 0, 0]	-999	PAL1	2	R1250N
477.536	0.266	1413850	TEST_ORIENT	n/a	n/a	1	1	SMOKE	BEAN	SMOKE	BEAN	3	[0, 0, 0]	-999	PAL1	2	R1250N
477.802	0.717	1414116	RETRIEVAL_ORIENT_OFF	n/a	n/a	-999	-999	n/a	n/a	n/a	n/a	3	[0, 0, 0]	-999	PAL1	2	R1250N
478.519	4.0	1414833	TEST_PROBE	n/a	wordpools/wordpool_EN.txt	1	1	SMOKE	BEAN	SMOKE	BEAN	3	[0, 0, 0]	-999	PAL1	2	R1250N
478.52	1.277	1414834	REC_START	n/a	n/a	1	-999	n/a	BEAN	n/a	n/a	3	[0, 0, 0]	-999	PAL1	2	R1250N
479.797	2.739	1416111	REC_EVENT	1.277	n/a	1	1	SMOKE	BEAN	SMOKE	BEAN	3	[0, 0, 0]	-999	PAL1	2	R1250N
482.536	1.0	1418850	PROBE_OFF	n/a	n/a	1	-999	n/a	n/a	n/a	n/a	3	[0, 0, 0]	-999	PAL1	2	R1250N
483.536	0.017	1419850	REC_END	n/a	n/a	1	-999	n/a	n/a	n/a	n/a	3	[0, 0, 0]	-999	PAL1	2	R1250N
483.553	0.267	1419867	TEST_ORIENT	n/a	n/a	4	2	OAK	GRASS	GRASS	OAK	3	[0, 0, 0]	-999	PAL1	2	R1250N
483.82	0.733	1420134	RETRIEVAL_ORIENT_OFF	n/a	n/a	1	-999	n/a	n/a	n/a	n/a	3	[0, 0, 0]	-999	PAL1	2	R1250N
484.553	4.0	1420867	TEST_PROBE	n/a	wordpools/wordpool_EN.txt	4	2	OAK	GRASS	GRASS	OAK	3	[0, 0, 0]	-999	PAL1	2	R1250N
484.554	2.136	1420868	REC_START	n/a	n/a	4	-999	n/a	GRASS	n/a	n/a	3	[0, 0, 0]	-999	PAL1	2	R1250N
486.69	1.88	1423004	REC_EVENT	2.136	n/a	4	2	OAK	GRASS	GRASS	OAK	3	[0, 0, 0]	-999	PAL1	2	R1250N
488.57	1.001	1424884	PROBE_OFF	n/a	n/a	4	-999	n/a	n/a	n/a	n/a	3	[0, 0, 0]	-999	PAL1	2	R1250N
489.571	0.016	1425885	REC_END	n/a	n/a	4	-999	n/a	n/a	n/a	n/a	3	[0, 0, 0]	-999	PAL1	2	R1250N
489.587	0.267	1425901	TEST_ORIENT	n/a	n/a	3	3	DIME	WOLF	DIME	WOLF	3	[0, 0, 0]	-999	PAL1	2	R1250N
489.854	0.7	1426168	RETRIEVAL_ORIENT_OFF	n/a	n/a	4	-999	n/a	n/a	n/a	n/a	3	[0, 0, 0]	-999	PAL1	2	R1250N
490.554	4.0	1426868	TEST_PROBE	n/a	wordpools/wordpool_EN.txt	3	3	DIME	WOLF	DIME	WOLF	3	[0, 0, 0]	-999	PAL1	2	R1250N
490.554	2.043	1426868	REC_START	n/a	n/a	3	-999	n/a	WOLF	n/a	n/a	3	[0, 0, 0]	-999	PAL1	2	R1250N
492.597	1.974	1428911	REC_EVENT	2.043	n/a	3	3	DIME	WOLF	DIME	WOLF	3	[0, 0, 0]	-999	PAL1	2	R1250N
494.571	1.0	1430885	PROBE_OFF	n/a	n/a	3	-999	n/a	n/a	n/a	n/a	3	[0, 0, 0]	-999	PAL1	2	R1250N
495.571	0.017	1431885	REC_END	n/a	n/a	3	-999	n/a	n/a	n/a	n/a	3	[0, 0, 0]	-999	PAL1	2	R1250N
495.588	0.266	1431902	TEST_ORIENT	n/a	n/a	6	4	DOLL	MAZE	GEESE	DOLL	3	[0, 0, 0]	-999	PAL1	2	R1250N
495.854	0.667	1432168	RETRIEVAL_ORIENT_OFF	n/a	n/a	3	-999	n/a	n/a	n/a	n/a	3	[0, 0, 0]	-999	PAL1	2	R1250N
496.521	4.0	1432835	TEST_PROBE	n/a	wordpools/wordpool_EN.txt	6	4	DOLL	MAZE	GEESE	DOLL	3	[0, 0, 0]	-999	PAL1	2	R1250N
496.521	1.767	1432835	REC_START	n/a	n/a	6	-999	n/a	MAZE	n/a	n/a	3	[0, 0, 0]	-999	PAL1	2	R1250N
498.288	2.25	1434602	REC_EVENT	1.767	n/a	6	4	DOLL	MAZE	GEESE	DOLL	3	[0, 0, 0]	-999	PAL1	2	R1250N
500.538	1.001	1436852	PROBE_OFF	n/a	n/a	6	-999	n/a	n/a	n/a	n/a	3	[0, 0, 0]	-999	PAL1	2	R1250N
501.539	0.016	1437853	REC_END	n/a	n/a	6	-999	n/a	n/a	n/a	n/a	3	[0, 0, 0]	-999	PAL1	2	R1250N
501.555	0.267	1437869	TEST_ORIENT	n/a	n/a	5	5	PLANT	n/a	PLANT	MAZE	3	[0, 0, 0]	-999	PAL1	2	R1250N
501.822	0.7	1438136	RETRIEVAL_ORIENT_OFF	n/a	n/a	6	-999	n/a	n/a	n/a	n/a	3	[0, 0, 0]	-999	PAL1	2	R1250N
502.522	4.0	1438836	TEST_PROBE	n/a	wordpools/wordpool_EN.txt	5	5	PLANT	n/a	PLANT	MAZE	3	[0, 0, 0]	-999	PAL1	2	R1250N
502.522	4.017	1438836	REC_START	n/a	n/a	5	-999	n/a	n/a	n/a	n/a	3	[0, 0, 0]	-999	PAL1	2	R1250N
506.539	0.859	1442853	PROBE_OFF	n/a	n/a	5	-999	n/a	n/a	n/a	n/a	3	[0, 0, 0]	-999	PAL1	2	R1250N
507.398	0.141	1443712	REC_EVENT	4.876	n/a	5	5	PLANT	<>	PLANT	MAZE	3	[0, 0, 0]	-999	PAL1	2	R1250N
507.539	0.017	1443853	REC_END	n/a	n/a	5	-999	n/a	n/a	n/a	n/a	3	[0, 0, 0]	-999	PAL1	2	R1250N
507.556	0.266	1443870	TEST_ORIENT	n/a	n/a	2	6	CLOUD	SCHOOL	CLOUD	SCHOOL	3	[0, 0, 0]	-999	PAL1	2	R1250N
507.822	0.75	1444136	RETRIEVAL_ORIENT_OFF	n/a	n/a	5	-999	n/a	n/a	n/a	n/a	3	[0, 0, 0]	-999	PAL1	2	R1250N
508.572	4.0	1444886	TEST_PROBE	n/a	wordpools/wordpool_EN.txt	2	6	CLOUD	SCHOOL	CLOUD	SCHOOL	3	[0, 0, 0]	-999	PAL1	2	R1250N
508.573	1.426	1444887	REC_START	n/a	n/a	2	-999	n/a	SCHOOL	n/a	n/a	3	[0, 0, 0]	-999	PAL1	2	R1250N
509.999	2.59	1446313	REC_EVENT	1.426	n/a	2	6	CLOUD	SCHOOL	CLOUD	SCHOOL	3	[0, 0, 0]	-999	PAL1	2	R1250N
512.589	1.0	1448903	PROBE_OFF	n/a	n/a	2	-999	n/a	n/a	n/a	n/a	3	[0, 0, 0]	-999	PAL1	2	R1250N
513.589	0.009	1449903	REC_END	n/a	n/a	2	-999	n/a	n/a	n/a	n/a	3	[0, 0, 0]	-999	PAL1	2	R1250N
513.598	4.859	1449912	RECALL_END	n/a	n/a	-999	-999	n/a	n/a	n/a	n/a	3	[0, 0, 0]	-999	PAL1	2	R1250N
518.457	10.929	1454771	TRIAL	n/a	n/a	-999	-999	n/a	n/a	n/a	n/a	4	[0, 0, 0]	-999	PAL1	2	R1250N
529.386	0.004	1465701	ENCODING_START	n/a	n/a	-999	-999	n/a	n/a	n/a	n/a	4	[0, 0, 0]	-999	PAL1	2	R1250N
529.39	0.268	1465705	STUDY_ORIENT	n/a	n/a	1	1	CAGE	TENT	TENT	CAGE	4	[0, 0, 0]	-999	PAL1	2	R1250N
529.658	0.616	1465973	STUDY_ORIENT_OFF	n/a	n/a	1	1	CAGE	TENT	TENT	CAGE	4	[0, 0, 0]	-999	PAL1	2	R1250N
530.274	4.0	1466589	STUDY_PAIR	n/a	wordpools/wordpool_EN.txt	1	1	CAGE	TENT	TENT	CAGE	4	[0, 0, 0]	-999	PAL1	2	R1250N
534.291	1.016	1470606	PAIR_OFF	n/a	n/a	1	1	CAGE	TENT	TENT	CAGE	4	[0, 0, 0]	-999	PAL1	2	R1250N
535.307	0.251	1471622	STUDY_ORIENT	n/a	n/a	2	6	SPONGE	n/a	SPONGE	FOOT	4	[0, 0, 0]	-999	PAL1	2	R1250N
535.558	0.616	1471873	STUDY_ORIENT_OFF	n/a	n/a	2	6	SPONGE	n/a	SPONGE	FOOT	4	[0, 0, 0]	-999	PAL1	2	R1250N
536.174	4.0	1472489	STUDY_PAIR	n/a	wordpools/wordpool_EN.txt	2	6	SPONGE	n/a	SPONGE	FOOT	4	[0, 0, 0]	-999	PAL1	2	R1250N
540.191	1.017	1476506	PAIR_OFF	n/a	n/a	2	6	SPONGE	n/a	SPONGE	FOOT	4	[0, 0, 0]	-999	PAL1	2	R1250N
541.208	0.268	1477523	STUDY_ORIENT	n/a	n/a	3	3	KEY	n/a	MOUTH	KEY	4	[0, 0, 0]	-999	PAL1	2	R1250N
541.476	0.549	1477791	STUDY_ORIENT_OFF	n/a	n/a	3	3	KEY	n/a	MOUTH	KEY	4	[0, 0, 0]	-999	PAL1	2	R1250N
542.025	4.0	1478340	STUDY_PAIR	n/a	wordpools/wordpool_EN.txt	3	3	KEY	n/a	MOUTH	KEY	4	[0, 0, 0]	-999	PAL1	2	R1250N
546.042	1.017	1482357	PAIR_OFF	n/a	n/a	3	3	KEY	n/a	MOUTH	KEY	4	[0, 0, 0]	-999	PAL1	2	R1250N
547.059	0.266	1483374	STUDY_ORIENT	n/a	n/a	4	4	TOOTH	n/a	GLASS	TOOTH	4	[0, 0, 0]	-999	PAL1	2	R1250N
547.325	0.701	1483640	STUDY_ORIENT_OFF	n/a	n/a	4	4	TOOTH	n/a	GLASS	TOOTH	4	[0, 0, 0]	-999	PAL1	2	R1250N
548.026	4.0	1484341	STUDY_PAIR	n/a	wordpools/wordpool_EN.txt	4	4	TOOTH	n/a	GLASS	TOOTH	4	[0, 0, 0]	-999	PAL1	2	R1250N
552.043	1.016	1488358	PAIR_OFF	n/a	n/a	4	4	TOOTH	n/a	GLASS	TOOTH	4	[0, 0, 0]	-999	PAL1	2	R1250N
553.059	0.267	1489374	STUDY_ORIENT	n/a	n/a	5	5	TOE	n/a	TOE	ARM	4	[0, 0, 0]	-999	PAL1	2	R1250N
553.326	0.667	1489641	STUDY_ORIENT_OFF	n/a	n/a	5	5	TOE	n/a	TOE	ARM	4	[0, 0, 0]	-999	PAL1	2	R1250N
553.993	4.0	1490308	STUDY_PAIR	n/a	wordpools/wordpool_EN.txt	5	5	TOE	n/a	TOE	ARM	4	[0, 0, 0]	-999	PAL1	2	R1250N
558.01	1.017	1494325	PAIR_OFF	n/a	n/a	5	5	TOE	n/a	TOE	ARM	4	[0, 0, 0]	-999	PAL1	2	R1250N
559.027	0.267	1495342	STUDY_ORIENT	n/a	n/a	6	2	PIE	n/a	BLOOM	PIE	4	[0, 0, 0]	-999	PAL1	2	R1250N
559.294	0.684	1495609	STUDY_ORIENT_OFF	n/a	n/a	6	2	PIE	n/a	BLOOM	PIE	4	[0, 0, 0]	-999	PAL1	2	R1250N
559.978	4.0	1496293	STUDY_PAIR	n/a	wordpools/wordpool_EN.txt	6	2	PIE	n/a	BLOOM	PIE	4	[0, 0, 0]	-999	PAL1	2	R1250N
563.994	1.001	1500309	PAIR_OFF	n/a	n/a	6	2	PIE	n/a	BLOOM	PIE	4	[0, 0, 0]	-999	PAL1	2	R1250N
564.995	0.0	1501310	ENCODING_END	n/a	n/a	-999	-999	n/a	n/a	n/a	n/a	4	[0, 0, 0]	-999	PAL1	2	R1250N
564.995	0.0	1501310	MATH_START	n/a	n/a	-999	-999	n/a	n/a	n/a	n/a	4	[0, 0, 0]	-999	PAL1	2	R1250N
564.995	0.016	1501310	START	n/a	n/a	-999	-999	n/a	n/a	n/a	n/a	4	[-999, -999, -999]	-999	PAL1	2	R1250N
565.011	7.768	1501326	PROB	7.736	n/a	-999	-999	n/a	n/a	n/a	n/a	4	[7, 2, 4]	13	PAL1	2	R1250N
572.779	5.483	1509094	PROB	5.462	n/a	-999	-999	n/a	n/a	n/a	n/a	4	[7, 4, 4]	15	PAL1	2	R1250N
578.262	6.635	1514577	PROB	6.597	n/a	-999	-999	n/a	n/a	n/a	n/a	4	[3, 3, 5]	11	PAL1	2	R1250N
584.897	5.833	1521212	PROB	5.833	n/a	-999	-999	n/a	n/a	n/a	n/a	4	[1, 4, 8]	13	PAL1	2	R1250N
590.73	0.018	1527046	STOP	n/a	n/a	-999	-999	n/a	n/a	n/a	n/a	4	[-999, -999, -999]	-999	PAL1	2	R1250N
590.748	0.0	1527064	MATH_END	n/a	n/a	-999	-999	n/a	n/a	n/a	n/a	4	[0, 0, 0]	-999	PAL1	2	R1250N
590.748	0.016	1527064	RECALL_START	n/a	n/a	-999	-999	n/a	n/a	n/a	n/a	4	[0, 0, 0]	-999	PAL1	2	R1250N
590.764	0.266	1527080	TEST_ORIENT	n/a	n/a	1	1	CAGE	TENT	TENT	CAGE	4	[0, 0, 0]	-999	PAL1	2	R1250N
591.03	0.601	1527346	RETRIEVAL_ORIENT_OFF	n/a	n/a	-999	-999	n/a	n/a	n/a	n/a	4	[0, 0, 0]	-999	PAL1	2	R1250N
591.631	4.0	1527947	TEST_PROBE	n/a	wordpools/wordpool_EN.txt	1	1	CAGE	TENT	TENT	CAGE	4	[0, 0, 0]	-999	PAL1	2	R1250N
591.632	2.055	1527948	REC_START	n/a	n/a	1	-999	n/a	TENT	n/a	n/a	4	[0, 0, 0]	-999	PAL1	2	R1250N
593.687	1.961	1530003	REC_EVENT	2.055	n/a	1	1	CAGE	TENT	TENT	CAGE	4	[0, 0, 0]	-999	PAL1	2	R1250N
595.648	1.0	1531964	PROBE_OFF	n/a	n/a	1	-999	n/a	n/a	n/a	n/a	4	[0, 0, 0]	-999	PAL1	2	R1250N
596.648	0.017	1532964	REC_END	n/a	n/a	1	-999	n/a	n/a	n/a	n/a	4	[0, 0, 0]	-999	PAL1	2	R1250N
596.665	0.267	1532981	TEST_ORIENT	n/a	n/a	6	2	PIE	n/a	BLOOM	PIE	4	[0, 0, 0]	-999	PAL1	2	R1250N
596.932	0.733	1533248	RETRIEVAL_ORIENT_OFF	n/a	n/a	1	-999	n/a	n/a	n/a	n/a	4	[0, 0, 0]	-999	PAL1	2	R1250N
597.665	4.0	1533981	TEST_PROBE	n/a	wordpools/wordpool_EN.txt	6	2	PIE	n/a	BLOOM	PIE	4	[0, 0, 0]	-999	PAL1	2	R1250N
597.666	4.016	1533982	REC_START	n/a	n/a	6	-999	n/a	n/a	n/a	n/a	4	[0, 0, 0]	-999	PAL1	2	R1250N
601.682	0.86	1537998	PROBE_OFF	n/a	n/a	6	-999	n/a	n/a	n/a	n/a	4	[0, 0, 0]	-999	PAL1	2	R1250N
602.542	0.14	1538858	REC_EVENT	4.876	n/a	6	2	PIE	<>	BLOOM	PIE	4	[0, 0, 0]	-999	PAL1	2	R1250N
602.682	0.017	1538998	REC_END	n/a	n/a	6	-999	n/a	n/a	n/a	n/a	4	[0, 0, 0]	-999	PAL1	2	R1250N
602.699	0.267	1539015	TEST_ORIENT	n/a	n/a	3	3	KEY	n/a	MOUTH	KEY	4	[0, 0, 0]	-999	PAL1	2	R1250N
602.966	0.517	1539282	RETRIEVAL_ORIENT_OFF	n/a	n/a	6	-999	n/a	n/a	n/a	n/a	4	[0, 0, 0]	-999	PAL1	2	R1250N
603.483	4.0	1539799	TEST_PROBE	n/a	wordpools/wordpool_EN.txt	3	3	KEY	n/a	MOUTH	KEY	4	[0, 0, 0]	-999	PAL1	2	R1250N
603.483	4.017	1539799	REC_START	n/a	n/a	3	-999	n/a	n/a	n/a	n/a	4	[0, 0, 0]	-999	PAL1	2	R1250N
607.5	0.719	1543816	PROBE_OFF	n/a	n/a	3	-999	n/a	n/a	n/a	n/a	4	[0, 0, 0]	-999	PAL1	2	R1250N
608.219	0.282	1544535	REC_EVENT	4.736	n/a	3	3	KEY	<>	MOUTH	KEY	4	[0, 0, 0]	-999	PAL1	2	R1250N
608.501	0.015	1544817	REC_END	n/a	n/a	3	-999	n/a	n/a	n/a	n/a	4	[0, 0, 0]	-999	PAL1	2	R1250N
608.516	0.267	1544832	TEST_ORIENT	n/a	n/a	4	4	TOOTH	n/a	GLASS	TOOTH	4	[0, 0, 0]	-999	PAL1	2	R1250N
608.783	0.767	1545099	RETRIEVAL_ORIENT_OFF	n/a	n/a	3	-999	n/a	n/a	n/a	n/a	4	[0, 0, 0]	-999	PAL1	2	R1250N
609.55	4.0	1545866	TEST_PROBE	n/a	wordpools/wordpool_EN.txt	4	4	TOOTH	n/a	GLASS	TOOTH	4	[0, 0, 0]	-999	PAL1	2	R1250N
609.55	4.017	1545866	REC_START	n/a	n/a	4	-999	n/a	n/a	n/a	n/a	4	[0, 0, 0]	-999	PAL1	2	R1250N
613.567	0.905	1549883	PROBE_OFF	n/a	n/a	4	-999	n/a	n/a	n/a	n/a	4	[0, 0, 0]	-999	PAL1	2	R1250N
614.472	0.096	1550788	REC_EVENT	4.922	n/a	4	4	TOOTH	<>	GLASS	TOOTH	4	[0, 0, 0]	-999	PAL1	2	R1250N
614.568	0.016	1550884	REC_END	n/a	n/a	4	-999	n/a	n/a	n/a	n/a	4	[0, 0, 0]	-999	PAL1	2	R1250N
614.584	0.266	1550900	TEST_ORIENT	n/a	n/a	5	5	TOE	n/a	TOE	ARM	4	[0, 0, 0]	-999	PAL1	2	R1250N
614.85	0.516	1551166	RETRIEVAL_ORIENT_OFF	n/a	n/a	4	-999	n/a	n/a	n/a	n/a	4	[0, 0, 0]	-999	PAL1	2	R1250N
615.366	4.0	1551682	TEST_PROBE	n/a	wordpools/wordpool_EN.txt	5	5	TOE	n/a	TOE	ARM	4	[0, 0, 0]	-999	PAL1	2	R1250N
615.367	4.016	1551683	REC_START	n/a	n/a	5	-999	n/a	n/a	n/a	n/a	4	[0, 0, 0]	-999	PAL1	2	R1250N
619.383	0.836	1555699	PROBE_OFF	n/a	n/a	5	-999	n/a	n/a	n/a	n/a	4	[0, 0, 0]	-999	PAL1	2	R1250N
620.219	0.165	1556535	REC_EVENT	4.852	n/a	5	5	TOE	<>	TOE	ARM	4	[0, 0, 0]	-999	PAL1	2	R1250N
620.384	0.016	1556700	REC_END	n/a	n/a	5	-999	n/a	n/a	n/a	n/a	4	[0, 0, 0]	-999	PAL1	2	R1250N
620.4	0.268	1556716	TEST_ORIENT	n/a	n/a	2	6	SPONGE	n/a	SPONGE	FOOT	4	[0, 0, 0]	-999	PAL1	2	R1250N
620.668	0.582	1556984	RETRIEVAL_ORIENT_OFF	n/a	n/a	5	-999	n/a	n/a	n/a	n/a	4	[0, 0, 0]	-999	PAL1	2	R1250N
621.25	4.0	1557566	TEST_PROBE	n/a	wordpools/wordpool_EN.txt	2	6	SPONGE	n/a	SPONGE	FOOT	4	[0, 0, 0]	-999	PAL1	2	R1250N
621.25	4.017	1557566	REC_START	n/a	n/a	2	-999	n/a	n/a	n/a	n/a	4	[0, 0, 0]	-999	PAL1	2	R1250N
625.267	0.859	1561583	PROBE_OFF	n/a	n/a	2	-999	n/a	n/a	n/a	n/a	4	[0, 0, 0]	-999	PAL1	2	R1250N
626.126	0.158	1562442	REC_EVENT	4.876	n/a	2	6	SPONGE	<>	SPONGE	FOOT	4	[0, 0, 0]	-999	PAL1	2	R1250N
626.284	0.003	1562600	REC_END	n/a	n/a	2	-999	n/a	n/a	n/a	n/a	4	[0, 0, 0]	-999	PAL1	2	R1250N
626.287	32.85	1562603	RECALL_END	n/a	n/a	-999	-999	n/a	n/a	n/a	n/a	4	[0, 0, 0]	-999	PAL1	2	R1250N
659.137	10.928	1595454	TRIAL	n/a	n/a	-999	-999	n/a	n/a	n/a	n/a	5	[0, 0, 0]	-999	PAL1	2	R1250N
670.065	0.007	1606382	ENCODING_START	n/a	n/a	-999	-999	n/a	n/a	n/a	n/a	5	[0, 0, 0]	-999	PAL1	2	R1250N
670.072	0.267	1606389	STUDY_ORIENT	n/a	n/a	1	1	SUN	SHEET	SHEET	SUN	5	[0, 0, 0]	-999	PAL1	2	R1250N
670.339	0.584	1606656	STUDY_ORIENT_OFF	n/a	n/a	1	1	SUN	SHEET	SHEET	SUN	5	[0, 0, 0]	-999	PAL1	2	R1250N
670.923	4.0	1607240	STUDY_PAIR	n/a	wordpools/wordpool_EN.txt	1	1	SUN	SHEET	SHEET	SUN	5	[0, 0, 0]	-999	PAL1	2	R1250N
674.94	1.017	1611257	PAIR_OFF	n/a	n/a	1	1	SUN	SHEET	SHEET	SUN	5	[0, 0, 0]	-999	PAL1	2	R1250N
675.957	0.266	1612274	STUDY_ORIENT	n/a	n/a	2	2	WEED	PEN	PEN	WEED	5	[0, 0, 0]	-999	PAL1	2	R1250N
676.223	0.717	1612540	STUDY_ORIENT_OFF	n/a	n/a	2	2	WEED	PEN	PEN	WEED	5	[0, 0, 0]	-999	PAL1	2	R1250N
676.94	4.0	1613257	STUDY_PAIR	n/a	wordpools/wordpool_EN.txt	2	2	WEED	PEN	PEN	WEED	5	[0, 0, 0]	-999	PAL1	2	R1250N
680.957	1.017	1617274	PAIR_OFF	n/a	n/a	2	2	WEED	PEN	PEN	WEED	5	[0, 0, 0]	-999	PAL1	2	R1250N
681.974	0.266	1618291	STUDY_ORIENT	n/a	n/a	3	5	SALT	ELF	SALT	ELF	5	[0, 0, 0]	-999	PAL1	2	R1250N
682.24	0.634	1618557	STUDY_ORIENT_OFF	n/a	n/a	3	5	SALT	ELF	SALT	ELF	5	[0, 0, 0]	-999	PAL1	2	R1250N
682.874	4.0	1619191	STUDY_PAIR	n/a	wordpools/wordpool_EN.txt	3	5	SALT	ELF	SALT	ELF	5	[0, 0, 0]	-999	PAL1	2	R1250N
686.891	1.017	1623208	PAIR_OFF	n/a	n/a	3	5	SALT	ELF	SALT	ELF	5	[0, 0, 0]	-999	PAL1	2	R1250N
687.908	0.266	1624225	STUDY_ORIENT	n/a	n/a	4	4	SPOON	MAP	SPOON	MAP	5	[0, 0, 0]	-999	PAL1	2	R1250N
688.174	0.751	1624491	STUDY_ORIENT_OFF	n/a	n/a	4	4	SPOON	MAP	SPOON	MAP	5	[0, 0, 0]	-999	PAL1	2	R1250N
688.925	4.0	1625242	STUDY_PAIR	n/a	wordpools/wordpool_EN.txt	4	4	SPOON	MAP	SPOON	MAP	5	[0, 0, 0]	-999	PAL1	2	R1250N
692.942	1.017	1629259	PAIR_OFF	n/a	n/a	4	4	SPOON	MAP	SPOON	MAP	5	[0, 0, 0]	-999	PAL1	2	R1250N
693.959	0.266	1630276	STUDY_ORIENT	n/a	n/a	5	3	PANTS	DOOR	PANTS	DOOR	5	[0, 0, 0]	-999	PAL1	2	R1250N
694.225	0.634	1630542	STUDY_ORIENT_OFF	n/a	n/a	5	3	PANTS	DOOR	PANTS	DOOR	5	[0, 0, 0]	-999	PAL1	2	R1250N
694.859	4.0	1631176	STUDY_PAIR	n/a	wordpools/wordpool_EN.txt	5	3	PANTS	DOOR	PANTS	DOOR	5	[0, 0, 0]	-999	PAL1	2	R1250N
698.876	1.017	1635193	PAIR_OFF	n/a	n/a	5	3	PANTS	DOOR	PANTS	DOOR	5	[0, 0, 0]	-999	PAL1	2	R1250N
699.893	0.266	1636210	STUDY_ORIENT	n/a	n/a	6	6	TIE	CORN	TIE	CORN	5	[0, 0, 0]	-999	PAL1	2	R1250N
700.159	0.717	1636476	STUDY_ORIENT_OFF	n/a	n/a	6	6	TIE	CORN	TIE	CORN	5	[0, 0, 0]	-999	PAL1	2	R1250N
700.876	4.0	1637193	STUDY_PAIR	n/a	wordpools/wordpool_EN.txt	6	6	TIE	CORN	TIE	CORN	5	[0, 0, 0]	-999	PAL1	2	R1250N
704.893	1.0	1641210	PAIR_OFF	n/a	n/a	6	6	TIE	CORN	TIE	CORN	5	[0, 0, 0]	-999	PAL1	2	R1250N
705.893	0.0	1642210	ENCODING_END	n/a	n/a	-999	-999	n/a	n/a	n/a	n/a	5	[0, 0, 0]	-999	PAL1	2	R1250N
705.893	0.0	1642210	MATH_START	n/a	n/a	-999	-999	n/a	n/a	n/a	n/a	5	[0, 0, 0]	-999	PAL1	2	R1250N
705.893	0.017	1642210	START	n/a	n/a	-999	-999	n/a	n/a	n/a	n/a	5	[-999, -999, -999]	-999	PAL1	2	R1250N
705.91	4.934	1642227	PROB	4.9	n/a	-999	-999	n/a	n/a	n/a	n/a	5	[5, 9, 6]	21	PAL1	2	R1250N
710.844	5.667	1647162	PROB	5.638	n/a	-999	-999	n/a	n/a	n/a	n/a	5	[3, 3, 4]	10	PAL1	2	R1250N
716.511	5.567	1652829	PROB	5.537	n/a	-999	-999	n/a	n/a	n/a	n/a	5	[3, 8, 3]	14	PAL1	2	R1250N
722.078	4.251	1658396	PROB	4.251	n/a	-999	-999	n/a	n/a	n/a	n/a	5	[4, 3, 2]	9	PAL1	2	R1250N
726.329	0.016	1662647	STOP	n/a	n/a	-999	-999	n/a	n/a	n/a	n/a	5	[-999, -999, -999]	-999	PAL1	2	R1250N
726.345	0.0	1662663	MATH_END	n/a	n/a	-999	-999	n/a	n/a	n/a	n/a	5	[0, 0, 0]	-999	PAL1	2	R1250N
726.345	0.016	1662663	RECALL_START	n/a	n/a	-999	-999	n/a	n/a	n/a	n/a	5	[0, 0, 0]	-999	PAL1	2	R1250N
726.361	0.268	1662679	TEST_ORIENT	n/a	n/a	1	1	SUN	SHEET	SHEET	SUN	5	[0, 0, 0]	-999	PAL1	2	R1250N
726.629	0.716	1662947	RETRIEVAL_ORIENT_OFF	n/a	n/a	-999	-999	n/a	n/a	n/a	n/a	5	[0, 0, 0]	-999	PAL1	2	R1250N
727.345	4.0	1663663	TEST_PROBE	n/a	wordpools/wordpool_EN.txt	1	1	SUN	SHEET	SHEET	SUN	5	[0, 0, 0]	-999	PAL1	2	R1250N
727.345	1.752	1663663	REC_START	n/a	n/a	1	-999	n/a	SHEET	n/a	n/a	5	[0, 0, 0]	-999	PAL1	2	R1250N
729.097	2.265	1665415	REC_EVENT	1.752	n/a	1	1	SUN	SHEET	SHEET	SUN	5	[0, 0, 0]	-999	PAL1	2	R1250N
731.362	1.001	1667680	PROBE_OFF	n/a	n/a	1	-999	n/a	n/a	n/a	n/a	5	[0, 0, 0]	-999	PAL1	2	R1250N
732.363	0.016	1668681	REC_END	n/a	n/a	1	-999	n/a	n/a	n/a	n/a	5	[0, 0, 0]	-999	PAL1	2	R1250N
732.379	0.267	1668697	TEST_ORIENT	n/a	n/a	2	2	WEED	PEN	PEN	WEED	5	[0, 0, 0]	-999	PAL1	2	R1250N
732.646	0.616	1668964	RETRIEVAL_ORIENT_OFF	n/a	n/a	1	-999	n/a	n/a	n/a	n/a	5	[0, 0, 0]	-999	PAL1	2	R1250N
733.262	4.0	1669580	TEST_PROBE	n/a	wordpools/wordpool_EN.txt	2	2	WEED	PEN	PEN	WEED	5	[0, 0, 0]	-999	PAL1	2	R1250N
733.262	1.284	1669580	REC_START	n/a	n/a	2	-999	n/a	PEN	n/a	n/a	5	[0, 0, 0]	-999	PAL1	2	R1250N
734.546	2.733	1670864	REC_EVENT	1.284	n/a	2	2	WEED	PEN	PEN	WEED	5	[0, 0, 0]	-999	PAL1	2	R1250N
737.279	1.0	1673597	PROBE_OFF	n/a	n/a	2	-999	n/a	n/a	n/a	n/a	5	[0, 0, 0]	-999	PAL1	2	R1250N
738.279	0.017	1674597	REC_END	n/a	n/a	2	-999	n/a	n/a	n/a	n/a	5	[0, 0, 0]	-999	PAL1	2	R1250N
738.296	0.268	1674614	TEST_ORIENT	n/a	n/a	5	3	PANTS	DOOR	PANTS	DOOR	5	[0, 0, 0]	-999	PAL1	2	R1250N
738.564	0.699	1674882	RETRIEVAL_ORIENT_OFF	n/a	n/a	2	-999	n/a	n/a	n/a	n/a	5	[0, 0, 0]	-999	PAL1	2	R1250N
739.263	0.0	1675581	REC_START	n/a	n/a	5	-999	n/a	DOOR	n/a	n/a	5	[0, 0, 0]	-999	PAL1	2	R1250N
739.263	4.0	1675581	TEST_PROBE	n/a	wordpools/wordpool_EN.txt	5	3	PANTS	DOOR	PANTS	DOOR	5	[0, 0, 0]	-999	PAL1	2	R1250N
741.01	2.27	1677328	REC_EVENT	1.747	n/a	5	3	PANTS	DOOR	PANTS	DOOR	5	[0, 0, 0]	-999	PAL1	2	R1250N
743.28	1.0	1679598	PROBE_OFF	n/a	n/a	5	-999	n/a	n/a	n/a	n/a	5	[0, 0, 0]	-999	PAL1	2	R1250N
744.28	0.017	1680598	REC_END	n/a	n/a	5	-999	n/a	n/a	n/a	n/a	5	[0, 0, 0]	-999	PAL1	2	R1250N
744.297	0.267	1680615	TEST_ORIENT	n/a	n/a	4	4	SPOON	MAP	SPOON	MAP	5	[0, 0, 0]	-999	PAL1	2	R1250N
744.564	0.716	1680882	RETRIEVAL_ORIENT_OFF	n/a	n/a	5	-999	n/a	n/a	n/a	n/a	5	[0, 0, 0]	-999	PAL1	2	R1250N
745.28	4.0	1681598	TEST_PROBE	n/a	wordpools/wordpool_EN.txt	4	4	SPOON	MAP	SPOON	MAP	5	[0, 0, 0]	-999	PAL1	2	R1250N
745.28	1.87	1681598	REC_START	n/a	n/a	4	-999	n/a	MAP	n/a	n/a	5	[0, 0, 0]	-999	PAL1	2	R1250N
747.15	2.147	1683468	REC_EVENT	1.87	n/a	4	4	SPOON	MAP	SPOON	MAP	5	[0, 0, 0]	-999	PAL1	2	R1250N
749.297	1.0	1685615	PROBE_OFF	n/a	n/a	4	-999	n/a	n/a	n/a	n/a	5	[0, 0, 0]	-999	PAL1	2	R1250N
750.297	0.017	1686615	REC_END	n/a	n/a	4	-999	n/a	n/a	n/a	n/a	5	[0, 0, 0]	-999	PAL1	2	R1250N
750.314	0.267	1686632	TEST_ORIENT	n/a	n/a	3	5	SALT	ELF	SALT	ELF	5	[0, 0, 0]	-999	PAL1	2	R1250N
750.581	0.516	1686899	RETRIEVAL_ORIENT_OFF	n/a	n/a	4	-999	n/a	n/a	n/a	n/a	5	[0, 0, 0]	-999	PAL1	2	R1250N
751.097	4.0	1687415	TEST_PROBE	n/a	wordpools/wordpool_EN.txt	3	5	SALT	ELF	SALT	ELF	5	[0, 0, 0]	-999	PAL1	2	R1250N
751.098	1.678	1687416	REC_START	n/a	n/a	3	-999	n/a	ELF	n/a	n/a	5	[0, 0, 0]	-999	PAL1	2	R1250N
752.776	2.338	1689094	REC_EVENT	1.678	n/a	3	5	SALT	ELF	SALT	ELF	5	[0, 0, 0]	-999	PAL1	2	R1250N
755.114	1.0	1691432	PROBE_OFF	n/a	n/a	3	-999	n/a	n/a	n/a	n/a	5	[0, 0, 0]	-999	PAL1	2	R1250N
756.114	0.017	1692432	REC_END	n/a	n/a	3	-999	n/a	n/a	n/a	n/a	5	[0, 0, 0]	-999	PAL1	2	R1250N
756.131	0.267	1692449	TEST_ORIENT	n/a	n/a	6	6	TIE	CORN	TIE	CORN	5	[0, 0, 0]	-999	PAL1	2	R1250N
756.398	0.518	1692716	RETRIEVAL_ORIENT_OFF	n/a	n/a	3	-999	n/a	n/a	n/a	n/a	5	[0, 0, 0]	-999	PAL1	2	R1250N
756.916	4.0	1693234	TEST_PROBE	n/a	wordpools/wordpool_EN.txt	6	6	TIE	CORN	TIE	CORN	5	[0, 0, 0]	-999	PAL1	2	R1250N
756.916	1.442	1693234	REC_START	n/a	n/a	6	-999	n/a	CORN	n/a	n/a	5	[0, 0, 0]	-999	PAL1	2	R1250N
758.358	2.575	1694676	REC_EVENT	1.442	n/a	6	6	TIE	CORN	TIE	CORN	5	[0, 0, 0]	-999	PAL1	2	R1250N
760.933	1.0	1697251	PROBE_OFF	n/a	n/a	6	-999	n/a	n/a	n/a	n/a	5	[0, 0, 0]	-999	PAL1	2	R1250N
761.933	0.004	1698251	REC_END	n/a	n/a	6	-999	n/a	n/a	n/a	n/a	5	[0, 0, 0]	-999	PAL1	2	R1250N
761.937	5.996	1698255	RECALL_END	n/a	n/a	-999	-999	n/a	n/a	n/a	n/a	5	[0, 0, 0]	-999	PAL1	2	R1250N
767.933	10.928	1704251	TRIAL	n/a	n/a	-999	-999	n/a	n/a	n/a	n/a	6	[0, 0, 0]	-999	PAL1	2	R1250N
778.861	0.007	1715180	ENCODING_START	n/a	n/a	-999	-999	n/a	n/a	n/a	n/a	6	[0, 0, 0]	-999	PAL1	2	R1250N
778.868	0.266	1715187	STUDY_ORIENT	n/a	n/a	1	3	WHALE	STRAW	WHALE	STRAW	6	[0, 0, 0]	-999	PAL1	2	R1250N
779.134	0.751	1715453	STUDY_ORIENT_OFF	n/a	n/a	1	3	WHALE	STRAW	WHALE	STRAW	6	[0, 0, 0]	-999	PAL1	2	R1250N
779.885	4.0	1716204	STUDY_PAIR	n/a	wordpools/wordpool_EN.txt	1	3	WHALE	STRAW	WHALE	STRAW	6	[0, 0, 0]	-999	PAL1	2	R1250N
783.902	1.016	1720221	PAIR_OFF	n/a	n/a	1	3	WHALE	STRAW	WHALE	STRAW	6	[0, 0, 0]	-999	PAL1	2	R1250N
784.918	0.266	1721237	STUDY_ORIENT	n/a	n/a	2	2	CLOTH	n/a	CLOTH	BEAR	6	[0, 0, 0]	-999	PAL1	2	R1250N
785.184	0.585	1721503	STUDY_ORIENT_OFF	n/a	n/a	2	2	CLOTH	n/a	CLOTH	BEAR	6	[0, 0, 0]	-999	PAL1	2	R1250N
785.769	4.0	1722088	STUDY_PAIR	n/a	wordpools/wordpool_EN.txt	2	2	CLOTH	n/a	CLOTH	BEAR	6	[0, 0, 0]	-999	PAL1	2	R1250N
789.786	1.017	1726105	PAIR_OFF	n/a	n/a	2	2	CLOTH	n/a	CLOTH	BEAR	6	[0, 0, 0]	-999	PAL1	2	R1250N
790.803	0.265	1727122	STUDY_ORIENT	n/a	n/a	3	1	CRANE	APE	APE	CRANE	6	[0, 0, 0]	-999	PAL1	2	R1250N
791.068	0.651	1727387	STUDY_ORIENT_OFF	n/a	n/a	3	1	CRANE	APE	APE	CRANE	6	[0, 0, 0]	-999	PAL1	2	R1250N
791.719	4.0	1728038	STUDY_PAIR	n/a	wordpools/wordpool_EN.txt	3	1	CRANE	APE	APE	CRANE	6	[0, 0, 0]	-999	PAL1	2	R1250N
795.736	1.017	1732055	PAIR_OFF	n/a	n/a	3	1	CRANE	APE	APE	CRANE	6	[0, 0, 0]	-999	PAL1	2	R1250N
796.753	0.266	1733072	STUDY_ORIENT	n/a	n/a	4	4	RIB	n/a	RIB	SKI	6	[0, 0, 0]	-999	PAL1	2	R1250N
797.019	0.567	1733338	STUDY_ORIENT_OFF	n/a	n/a	4	4	RIB	n/a	RIB	SKI	6	[0, 0, 0]	-999	PAL1	2	R1250N
797.586	4.0	1733905	STUDY_PAIR	n/a	wordpools/wordpool_EN.txt	4	4	RIB	n/a	RIB	SKI	6	[0, 0, 0]	-999	PAL1	2	R1250N
801.604	1.016	1737923	PAIR_OFF	n/a	n/a	4	4	RIB	n/a	RIB	SKI	6	[0, 0, 0]	-999	PAL1	2	R1250N
802.62	0.267	1738939	STUDY_ORIENT	n/a	n/a	5	5	MOUSE	STEAK	MOUSE	STEAK	6	[0, 0, 0]	-999	PAL1	2	R1250N
802.887	0.65	1739206	STUDY_ORIENT_OFF	n/a	n/a	5	5	MOUSE	STEAK	MOUSE	STEAK	6	[0, 0, 0]	-999	PAL1	2	R1250N
803.537	4.0	1739856	STUDY_PAIR	n/a	wordpools/wordpool_EN.txt	5	5	MOUSE	STEAK	MOUSE	STEAK	6	[0, 0, 0]	-999	PAL1	2	R1250N
807.554	1.017	1743873	PAIR_OFF	n/a	n/a	5	5	MOUSE	STEAK	MOUSE	STEAK	6	[0, 0, 0]	-999	PAL1	2	R1250N
808.571	0.267	1744890	STUDY_ORIENT	n/a	n/a	6	6	FLAG	BEAR	FLAG	PEARL	6	[0, 0, 0]	-999	PAL1	2	R1250N
808.838	0.6	1745157	STUDY_ORIENT_OFF	n/a	n/a	6	6	FLAG	BEAR	FLAG	PEARL	6	[0, 0, 0]	-999	PAL1	2	R1250N
809.438	4.0	1745757	STUDY_PAIR	n/a	wordpools/wordpool_EN.txt	6	6	FLAG	BEAR	FLAG	PEARL	6	[0, 0, 0]	-999	PAL1	2	R1250N
813.455	1.0	1749774	PAIR_OFF	n/a	n/a	6	6	FLAG	BEAR	FLAG	PEARL	6	[0, 0, 0]	-999	PAL1	2	R1250N
814.455	0.0	1750774	ENCODING_END	n/a	n/a	-999	-999	n/a	n/a	n/a	n/a	6	[0, 0, 0]	-999	PAL1	2	R1250N
814.455	0.001	1750774	MATH_START	n/a	n/a	-999	-999	n/a	n/a	n/a	n/a	6	[0, 0, 0]	-999	PAL1	2	R1250N
814.456	0.016	1750775	START	n/a	n/a	-999	-999	n/a	n/a	n/a	n/a	6	[-999, -999, -999]	-999	PAL1	2	R1250N
814.472	4.599	1750791	PROB	4.563	n/a	-999	-999	n/a	n/a	n/a	n/a	6	[1, 7, 2]	10	PAL1	2	R1250N
819.071	4.151	1755390	PROB	4.124	n/a	-999	-999	n/a	n/a	n/a	n/a	6	[9, 5, 7]	21	PAL1	2	R1250N
823.222	4.351	1759541	PROB	4.317	n/a	-999	-999	n/a	n/a	n/a	n/a	6	[2, 5, 3]	10	PAL1	2	R1250N
827.573	4.583	1763892	PROB	4.549	n/a	-999	-999	n/a	n/a	n/a	n/a	6	[8, 6, 5]	19	PAL1	2	R1250N
832.156	4.727	1768475	PROB	4.727	n/a	-999	-999	n/a	n/a	n/a	n/a	6	[1, 7, 8]	16	PAL1	2	R1250N
836.883	0.008	1773203	STOP	n/a	n/a	-999	-999	n/a	n/a	n/a	n/a	6	[-999, -999, -999]	-999	PAL1	2	R1250N
836.891	0.0	1773211	MATH_END	n/a	n/a	-999	-999	n/a	n/a	n/a	n/a	6	[0, 0, 0]	-999	PAL1	2	R1250N
836.891	0.017	1773211	RECALL_START	n/a	n/a	-999	-999	n/a	n/a	n/a	n/a	6	[0, 0, 0]	-999	PAL1	2	R1250N
836.908	0.265	1773228	TEST_ORIENT	n/a	n/a	3	1	CRANE	APE	APE	CRANE	6	[0, 0, 0]	-999	PAL1	2	R1250N
837.173	0.751	1773493	RETRIEVAL_ORIENT_OFF	n/a	n/a	-999	-999	n/a	n/a	n/a	n/a	6	[0, 0, 0]	-999	PAL1	2	R1250N
837.924	4.0	1774244	TEST_PROBE	n/a	wordpools/wordpool_EN.txt	3	1	CRANE	APE	APE	CRANE	6	[0, 0, 0]	-999	PAL1	2	R1250N
837.925	1.965	1774245	REC_START	n/a	n/a	3	-999	n/a	APE	n/a	n/a	6	[0, 0, 0]	-999	PAL1	2	R1250N
839.89	2.051	1776210	REC_EVENT	1.965	n/a	3	1	CRANE	APE	APE	CRANE	6	[0, 0, 0]	-999	PAL1	2	R1250N
841.941	1.0	1778261	PROBE_OFF	n/a	n/a	3	-999	n/a	n/a	n/a	n/a	6	[0, 0, 0]	-999	PAL1	2	R1250N
842.941	0.017	1779261	REC_END	n/a	n/a	3	-999	n/a	n/a	n/a	n/a	6	[0, 0, 0]	-999	PAL1	2	R1250N
842.958	0.266	1779278	TEST_ORIENT	n/a	n/a	2	2	CLOTH	n/a	CLOTH	BEAR	6	[0, 0, 0]	-999	PAL1	2	R1250N
843.224	0.634	1779544	RETRIEVAL_ORIENT_OFF	n/a	n/a	3	-999	n/a	n/a	n/a	n/a	6	[0, 0, 0]	-999	PAL1	2	R1250N
843.858	4.0	1780178	TEST_PROBE	n/a	wordpools/wordpool_EN.txt	2	2	CLOTH	n/a	CLOTH	BEAR	6	[0, 0, 0]	-999	PAL1	2	R1250N
843.859	3.447	1780179	REC_START	n/a	n/a	2	-999	n/a	n/a	n/a	n/a	6	[0, 0, 0]	-999	PAL1	2	R1250N
847.306	0.569	1783626	REC_EVENT	3.447	n/a	2	2	CLOTH	<>	CLOTH	BEAR	6	[0, 0, 0]	-999	PAL1	2	R1250N
847.875	1.0	1784195	PROBE_OFF	n/a	n/a	2	-999	n/a	n/a	n/a	n/a	6	[0, 0, 0]	-999	PAL1	2	R1250N
848.875	0.017	1785195	REC_END	n/a	n/a	2	-999	n/a	n/a	n/a	n/a	6	[0, 0, 0]	-999	PAL1	2	R1250N
848.892	0.266	1785212	TEST_ORIENT	n/a	n/a	1	3	WHALE	STRAW	WHALE	STRAW	6	[0, 0, 0]	-999	PAL1	2	R1250N
849.158	0.668	1785478	RETRIEVAL_ORIENT_OFF	n/a	n/a	2	-999	n/a	n/a	n/a	n/a	6	[0, 0, 0]	-999	PAL1	2	R1250N
849.826	4.0	1786146	TEST_PROBE	n/a	wordpools/wordpool_EN.txt	1	3	WHALE	STRAW	WHALE	STRAW	6	[0, 0, 0]	-999	PAL1	2	R1250N
849.826	1.518	1786146	REC_START	n/a	n/a	1	-999	n/a	STRAW	n/a	n/a	6	[0, 0, 0]	-999	PAL1	2	R1250N
851.344	2.499	1787664	REC_EVENT	1.518	n/a	1	3	WHALE	STRAW	WHALE	STRAW	6	[0, 0, 0]	-999	PAL1	2	R1250N
853.843	1.0	1790163	PROBE_OFF	n/a	n/a	1	-999	n/a	n/a	n/a	n/a	6	[0, 0, 0]	-999	PAL1	2	R1250N
854.843	0.016	1791163	REC_END	n/a	n/a	1	-999	n/a	n/a	n/a	n/a	6	[0, 0, 0]	-999	PAL1	2	R1250N
854.859	0.266	1791179	TEST_ORIENT	n/a	n/a	4	4	RIB	n/a	RIB	SKI	6	[0, 0, 0]	-999	PAL1	2	R1250N
855.125	0.651	1791445	RETRIEVAL_ORIENT_OFF	n/a	n/a	1	-999	n/a	n/a	n/a	n/a	6	[0, 0, 0]	-999	PAL1	2	R1250N
855.776	4.0	1792096	TEST_PROBE	n/a	wordpools/wordpool_EN.txt	4	4	RIB	n/a	RIB	SKI	6	[0, 0, 0]	-999	PAL1	2	R1250N
855.777	4.016	1792097	REC_START	n/a	n/a	4	-999	n/a	n/a	n/a	n/a	6	[0, 0, 0]	-999	PAL1	2	R1250N
859.793	0.651	1796113	PROBE_OFF	n/a	n/a	4	-999	n/a	n/a	n/a	n/a	6	[0, 0, 0]	-999	PAL1	2	R1250N
860.444	0.35	1796764	REC_EVENT	4.667	n/a	4	4	RIB	<>	RIB	SKI	6	[0, 0, 0]	-999	PAL1	2	R1250N
860.794	0.016	1797114	REC_END	n/a	n/a	4	-999	n/a	n/a	n/a	n/a	6	[0, 0, 0]	-999	PAL1	2	R1250N
860.81	0.266	1797130	TEST_ORIENT	n/a	n/a	5	5	MOUSE	STEAK	MOUSE	STEAK	6	[0, 0, 0]	-999	PAL1	2	R1250N
861.076	0.684	1797396	RETRIEVAL_ORIENT_OFF	n/a	n/a	4	-999	n/a	n/a	n/a	n/a	6	[0, 0, 0]	-999	PAL1	2	R1250N
861.76	4.0	1798080	TEST_PROBE	n/a	wordpools/wordpool_EN.txt	5	5	MOUSE	STEAK	MOUSE	STEAK	6	[0, 0, 0]	-999	PAL1	2	R1250N
861.761	1.928	1798081	REC_START	n/a	n/a	5	-999	n/a	STEAK	n/a	n/a	6	[0, 0, 0]	-999	PAL1	2	R1250N
863.689	2.088	1800009	REC_EVENT	1.928	n/a	5	5	MOUSE	STEAK	MOUSE	STEAK	6	[0, 0, 0]	-999	PAL1	2	R1250N
865.777	1.0	1802097	PROBE_OFF	n/a	n/a	5	-999	n/a	n/a	n/a	n/a	6	[0, 0, 0]	-999	PAL1	2	R1250N
866.777	0.017	1803097	REC_END	n/a	n/a	5	-999	n/a	n/a	n/a	n/a	6	[0, 0, 0]	-999	PAL1	2	R1250N
866.794	0.266	1803114	TEST_ORIENT	n/a	n/a	6	6	FLAG	BEAR	FLAG	PEARL	6	[0, 0, 0]	-999	PAL1	2	R1250N
867.06	0.601	1803380	RETRIEVAL_ORIENT_OFF	n/a	n/a	5	-999	n/a	n/a	n/a	n/a	6	[0, 0, 0]	-999	PAL1	2	R1250N
867.661	4.0	1803981	TEST_PROBE	n/a	wordpools/wordpool_EN.txt	6	6	FLAG	BEAR	FLAG	PEARL	6	[0, 0, 0]	-999	PAL1	2	R1250N
867.661	1.708	1803981	REC_START	n/a	n/a	6	-999	n/a	BEAR	n/a	n/a	6	[0, 0, 0]	-999	PAL1	2	R1250N
869.369	2.309	1805689	REC_EVENT	1.708	n/a	6	6	FLAG	BEAR	FLAG	PEARL	6	[0, 0, 0]	-999	PAL1	2	R1250N
871.678	1.0	1807998	PROBE_OFF	n/a	n/a	6	-999	n/a	n/a	n/a	n/a	6	[0, 0, 0]	-999	PAL1	2	R1250N
872.678	0.009	1808998	REC_END	n/a	n/a	6	-999	n/a	n/a	n/a	n/a	6	[0, 0, 0]	-999	PAL1	2	R1250N
872.687	7.158	1809007	RECALL_END	n/a	n/a	-999	-999	n/a	n/a	n/a	n/a	6	[0, 0, 0]	-999	PAL1	2	R1250N
879.845	10.928	1816165	TRIAL	n/a	n/a	-999	-999	n/a	n/a	n/a	n/a	7	[0, 0, 0]	-999	PAL1	2	R1250N
890.773	0.007	1827093	ENCODING_START	n/a	n/a	-999	-999	n/a	n/a	n/a	n/a	7	[0, 0, 0]	-999	PAL1	2	R1250N
890.78	0.266	1827100	STUDY_ORIENT	n/a	n/a	1	5	GRAPE	n/a	LAWN	GRAPE	7	[0, 0, 0]	-999	PAL1	2	R1250N
891.046	0.651	1827366	STUDY_ORIENT_OFF	n/a	n/a	1	5	GRAPE	n/a	LAWN	GRAPE	7	[0, 0, 0]	-999	PAL1	2	R1250N
891.697	4.0	1828017	STUDY_PAIR	n/a	wordpools/wordpool_EN.txt	1	5	GRAPE	n/a	LAWN	GRAPE	7	[0, 0, 0]	-999	PAL1	2	R1250N
895.714	1.017	1832034	PAIR_OFF	n/a	n/a	1	5	GRAPE	n/a	LAWN	GRAPE	7	[0, 0, 0]	-999	PAL1	2	R1250N
896.731	0.265	1833051	STUDY_ORIENT	n/a	n/a	2	6	FILM	SIGN	SIGN	FILM	7	[0, 0, 0]	-999	PAL1	2	R1250N
896.996	0.751	1833316	STUDY_ORIENT_OFF	n/a	n/a	2	6	FILM	SIGN	SIGN	FILM	7	[0, 0, 0]	-999	PAL1	2	R1250N
897.747	4.0	1834067	STUDY_PAIR	n/a	wordpools/wordpool_EN.txt	2	6	FILM	SIGN	SIGN	FILM	7	[0, 0, 0]	-999	PAL1	2	R1250N
901.764	1.017	1838085	PAIR_OFF	n/a	n/a	2	6	FILM	SIGN	SIGN	FILM	7	[0, 0, 0]	-999	PAL1	2	R1250N
902.781	0.266	1839102	STUDY_ORIENT	n/a	n/a	3	3	BREAD	TOOL	TOOL	BREAD	7	[0, 0, 0]	-999	PAL1	2	R1250N
903.047	0.601	1839368	STUDY_ORIENT_OFF	n/a	n/a	3	3	BREAD	TOOL	TOOL	BREAD	7	[0, 0, 0]	-999	PAL1	2	R1250N
903.648	4.0	1839969	STUDY_PAIR	n/a	wordpools/wordpool_EN.txt	3	3	BREAD	TOOL	TOOL	BREAD	7	[0, 0, 0]	-999	PAL1	2	R1250N
907.665	1.017	1843986	PAIR_OFF	n/a	n/a	3	3	BREAD	TOOL	TOOL	BREAD	7	[0, 0, 0]	-999	PAL1	2	R1250N
908.682	0.267	1845003	STUDY_ORIENT	n/a	n/a	4	4	OWL	n/a	OWL	RAKE	7	[0, 0, 0]	-999	PAL1	2	R1250N
908.949	0.733	1845270	STUDY_ORIENT_OFF	n/a	n/a	4	4	OWL	n/a	OWL	RAKE	7	[0, 0, 0]	-999	PAL1	2	R1250N
909.682	4.0	1846003	STUDY_PAIR	n/a	wordpools/wordpool_EN.txt	4	4	OWL	n/a	OWL	RAKE	7	[0, 0, 0]	-999	PAL1	2	R1250N
913.699	1.017	1850020	PAIR_OFF	n/a	n/a	4	4	OWL	n/a	OWL	RAKE	7	[0, 0, 0]	-999	PAL1	2	R1250N
914.716	0.266	1851037	STUDY_ORIENT	n/a	n/a	5	1	SEAT	n/a	CASH	SEAT	7	[0, 0, 0]	-999	PAL1	2	R1250N
914.982	0.534	1851303	STUDY_ORIENT_OFF	n/a	n/a	5	1	SEAT	n/a	CASH	SEAT	7	[0, 0, 0]	-999	PAL1	2	R1250N
915.516	4.0	1851837	STUDY_PAIR	n/a	wordpools/wordpool_EN.txt	5	1	SEAT	n/a	CASH	SEAT	7	[0, 0, 0]	-999	PAL1	2	R1250N
919.533	1.017	1855854	PAIR_OFF	n/a	n/a	5	1	SEAT	n/a	CASH	SEAT	7	[0, 0, 0]	-999	PAL1	2	R1250N
920.55	0.266	1856871	STUDY_ORIENT	n/a	n/a	6	2	SNOW	n/a	DUCK	SNOW	7	[0, 0, 0]	-999	PAL1	2	R1250N
920.816	0.751	1857137	STUDY_ORIENT_OFF	n/a	n/a	6	2	SNOW	n/a	DUCK	SNOW	7	[0, 0, 0]	-999	PAL1	2	R1250N
921.567	4.0	1857888	STUDY_PAIR	n/a	wordpools/wordpool_EN.txt	6	2	SNOW	n/a	DUCK	SNOW	7	[0, 0, 0]	-999	PAL1	2	R1250N
925.584	1.0	1861905	PAIR_OFF	n/a	n/a	6	2	SNOW	n/a	DUCK	SNOW	7	[0, 0, 0]	-999	PAL1	2	R1250N
926.584	0.0	1862905	ENCODING_END	n/a	n/a	-999	-999	n/a	n/a	n/a	n/a	7	[0, 0, 0]	-999	PAL1	2	R1250N
926.584	0.0	1862905	MATH_START	n/a	n/a	-999	-999	n/a	n/a	n/a	n/a	7	[0, 0, 0]	-999	PAL1	2	R1250N
926.584	0.016	1862905	START	n/a	n/a	-999	-999	n/a	n/a	n/a	n/a	7	[-999, -999, -999]	-999	PAL1	2	R1250N
926.6	5.55	1862921	PROB	5.516	n/a	-999	-999	n/a	n/a	n/a	n/a	7	[7, 8, 6]	21	PAL1	2	R1250N
932.15	5.802	1868471	PROB	5.766	n/a	-999	-999	n/a	n/a	n/a	n/a	7	[9, 7, 7]	23	PAL1	2	R1250N
937.952	5.383	1874273	PROB	5.347	n/a	-999	-999	n/a	n/a	n/a	n/a	7	[6, 3, 3]	12	PAL1	2	R1250N
943.335	6.501	1879656	PROB	6.501	n/a	-999	-999	n/a	n/a	n/a	n/a	7	[5, 7, 7]	19	PAL1	2	R1250N
949.836	0.017	1886157	STOP	n/a	n/a	-999	-999	n/a	n/a	n/a	n/a	7	[-999, -999, -999]	-999	PAL1	2	R1250N
949.853	0.0	1886174	MATH_END	n/a	n/a	-999	-999	n/a	n/a	n/a	n/a	7	[0, 0, 0]	-999	PAL1	2	R1250N
949.853	0.017	1886174	RECALL_START	n/a	n/a	-999	-999	n/a	n/a	n/a	n/a	7	[0, 0, 0]	-999	PAL1	2	R1250N
949.87	0.265	1886191	TEST_ORIENT	n/a	n/a	5	1	SEAT	n/a	CASH	SEAT	7	[0, 0, 0]	-999	PAL1	2	R1250N
950.135	0.718	1886456	RETRIEVAL_ORIENT_OFF	n/a	n/a	-999	-999	n/a	n/a	n/a	n/a	7	[0, 0, 0]	-999	PAL1	2	R1250N
950.853	4.0	1887174	TEST_PROBE	n/a	wordpools/wordpool_EN.txt	5	1	SEAT	n/a	CASH	SEAT	7	[0, 0, 0]	-999	PAL1	2	R1250N
950.853	4.017	1887174	REC_START	n/a	n/a	5	-999	n/a	n/a	n/a	n/a	7	[0, 0, 0]	-999	PAL1	2	R1250N
954.87	0.928	1891191	PROBE_OFF	n/a	n/a	5	-999	n/a	n/a	n/a	n/a	7	[0, 0, 0]	-999	PAL1	2	R1250N
955.798	0.072	1892119	REC_EVENT	4.945	n/a	5	1	SEAT	<>	CASH	SEAT	7	[0, 0, 0]	-999	PAL1	2	R1250N
955.87	0.017	1892191	REC_END	n/a	n/a	5	-999	n/a	n/a	n/a	n/a	7	[0, 0, 0]	-999	PAL1	2	R1250N
955.887	0.266	1892208	TEST_ORIENT	n/a	n/a	6	2	SNOW	n/a	DUCK	SNOW	7	[0, 0, 0]	-999	PAL1	2	R1250N
956.153	0.584	1892474	RETRIEVAL_ORIENT_OFF	n/a	n/a	5	-999	n/a	n/a	n/a	n/a	7	[0, 0, 0]	-999	PAL1	2	R1250N
956.737	4.0	1893058	TEST_PROBE	n/a	wordpools/wordpool_EN.txt	6	2	SNOW	n/a	DUCK	SNOW	7	[0, 0, 0]	-999	PAL1	2	R1250N
956.737	4.017	1893058	REC_START	n/a	n/a	6	-999	n/a	n/a	n/a	n/a	7	[0, 0, 0]	-999	PAL1	2	R1250N
960.754	0.65	1897075	PROBE_OFF	n/a	n/a	6	-999	n/a	n/a	n/a	n/a	7	[0, 0, 0]	-999	PAL1	2	R1250N
961.404	0.35	1897726	REC_EVENT	4.667	n/a	6	2	SNOW	<>	DUCK	SNOW	7	[0, 0, 0]	-999	PAL1	2	R1250N
961.754	0.017	1898076	REC_END	n/a	n/a	6	-999	n/a	n/a	n/a	n/a	7	[0, 0, 0]	-999	PAL1	2	R1250N
961.771	0.266	1898093	TEST_ORIENT	n/a	n/a	3	3	BREAD	TOOL	TOOL	BREAD	7	[0, 0, 0]	-999	PAL1	2	R1250N
962.037	0.651	1898359	RETRIEVAL_ORIENT_OFF	n/a	n/a	6	-999	n/a	n/a	n/a	n/a	7	[0, 0, 0]	-999	PAL1	2	R1250N
962.688	4.0	1899010	TEST_PROBE	n/a	wordpools/wordpool_EN.txt	3	3	BREAD	TOOL	TOOL	BREAD	7	[0, 0, 0]	-999	PAL1	2	R1250N
962.688	1.616	1899010	REC_START	n/a	n/a	3	-999	n/a	TOOL	n/a	n/a	7	[0, 0, 0]	-999	PAL1	2	R1250N
964.304	2.401	1900626	REC_EVENT	1.616	n/a	3	3	BREAD	TOOL	TOOL	BREAD	7	[0, 0, 0]	-999	PAL1	2	R1250N
966.705	1.0	1903027	PROBE_OFF	n/a	n/a	3	-999	n/a	n/a	n/a	n/a	7	[0, 0, 0]	-999	PAL1	2	R1250N
967.705	0.016	1904027	REC_END	n/a	n/a	3	-999	n/a	n/a	n/a	n/a	7	[0, 0, 0]	-999	PAL1	2	R1250N
967.721	0.267	1904043	TEST_ORIENT	n/a	n/a	4	4	OWL	n/a	OWL	RAKE	7	[0, 0, 0]	-999	PAL1	2	R1250N
967.988	0.65	1904310	RETRIEVAL_ORIENT_OFF	n/a	n/a	3	-999	n/a	n/a	n/a	n/a	7	[0, 0, 0]	-999	PAL1	2	R1250N
968.638	4.0	1904960	TEST_PROBE	n/a	wordpools/wordpool_EN.txt	4	4	OWL	n/a	OWL	RAKE	7	[0, 0, 0]	-999	PAL1	2	R1250N
968.639	4.016	1904961	REC_START	n/a	n/a	4	-999	n/a	n/a	n/a	n/a	7	[0, 0, 0]	-999	PAL1	2	R1250N
972.655	0.836	1908977	PROBE_OFF	n/a	n/a	4	-999	n/a	n/a	n/a	n/a	7	[0, 0, 0]	-999	PAL1	2	R1250N
973.491	0.164	1909813	REC_EVENT	4.852	n/a	4	4	OWL	<>	OWL	RAKE	7	[0, 0, 0]	-999	PAL1	2	R1250N
973.655	0.017	1909977	REC_END	n/a	n/a	4	-999	n/a	n/a	n/a	n/a	7	[0, 0, 0]	-999	PAL1	2	R1250N
973.672	0.267	1909994	TEST_ORIENT	n/a	n/a	1	5	GRAPE	n/a	LAWN	GRAPE	7	[0, 0, 0]	-999	PAL1	2	R1250N
973.939	0.7	1910261	RETRIEVAL_ORIENT_OFF	n/a	n/a	4	-999	n/a	n/a	n/a	n/a	7	[0, 0, 0]	-999	PAL1	2	R1250N
974.639	4.0	1910961	TEST_PROBE	n/a	wordpools/wordpool_EN.txt	1	5	GRAPE	n/a	LAWN	GRAPE	7	[0, 0, 0]	-999	PAL1	2	R1250N
974.639	4.017	1910961	REC_START	n/a	n/a	1	-999	n/a	n/a	n/a	n/a	7	[0, 0, 0]	-999	PAL1	2	R1250N
978.656	0.859	1914978	PROBE_OFF	n/a	n/a	1	-999	n/a	n/a	n/a	n/a	7	[0, 0, 0]	-999	PAL1	2	R1250N
979.515	0.141	1915837	REC_EVENT	4.876	n/a	1	5	GRAPE	<>	LAWN	GRAPE	7	[0, 0, 0]	-999	PAL1	2	R1250N
979.656	0.017	1915978	REC_END	n/a	n/a	1	-999	n/a	n/a	n/a	n/a	7	[0, 0, 0]	-999	PAL1	2	R1250N
979.673	0.266	1915995	TEST_ORIENT	n/a	n/a	2	6	FILM	SIGN	SIGN	FILM	7	[0, 0, 0]	-999	PAL1	2	R1250N
979.939	0.734	1916261	RETRIEVAL_ORIENT_OFF	n/a	n/a	1	-999	n/a	n/a	n/a	n/a	7	[0, 0, 0]	-999	PAL1	2	R1250N
980.673	4.0	1916995	TEST_PROBE	n/a	wordpools/wordpool_EN.txt	2	6	FILM	SIGN	SIGN	FILM	7	[0, 0, 0]	-999	PAL1	2	R1250N
980.674	1.346	1916996	REC_START	n/a	n/a	2	-999	n/a	SIGN	n/a	n/a	7	[0, 0, 0]	-999	PAL1	2	R1250N
982.02	2.67	1918342	REC_EVENT	1.346	n/a	2	6	FILM	SIGN	SIGN	FILM	7	[0, 0, 0]	-999	PAL1	2	R1250N
984.69	1.0	1921012	PROBE_OFF	n/a	n/a	2	-999	n/a	n/a	n/a	n/a	7	[0, 0, 0]	-999	PAL1	2	R1250N
985.69	0.01	1922012	REC_END	n/a	n/a	2	-999	n/a	n/a	n/a	n/a	7	[0, 0, 0]	-999	PAL1	2	R1250N
985.7	6.041	1922022	RECALL_END	n/a	n/a	-999	-999	n/a	n/a	n/a	n/a	7	[0, 0, 0]	-999	PAL1	2	R1250N
991.741	10.929	1928063	TRIAL	n/a	n/a	-999	-999	n/a	n/a	n/a	n/a	8	[0, 0, 0]	-999	PAL1	2	R1250N
1002.67	0.005	1938992	ENCODING_START	n/a	n/a	-999	-999	n/a	n/a	n/a	n/a	8	[0, 0, 0]	-999	PAL1	2	R1250N
1002.675	0.267	1938997	STUDY_ORIENT	n/a	n/a	1	1	SWORD	ROAD	SWORD	ROAD	8	[0, 0, 0]	-999	PAL1	2	R1250N
1002.942	0.583	1939264	STUDY_ORIENT_OFF	n/a	n/a	1	1	SWORD	ROAD	SWORD	ROAD	8	[0, 0, 0]	-999	PAL1	2	R1250N
1003.525	4.0	1939847	STUDY_PAIR	n/a	wordpools/wordpool_EN.txt	1	1	SWORD	ROAD	SWORD	ROAD	8	[0, 0, 0]	-999	PAL1	2	R1250N
1007.542	1.017	1943864	PAIR_OFF	n/a	n/a	1	1	SWORD	ROAD	SWORD	ROAD	8	[0, 0, 0]	-999	PAL1	2	R1250N
1008.559	0.267	1944881	STUDY_ORIENT	n/a	n/a	2	4	JUDGE	LEAF	LEAF	JUDGE	8	[0, 0, 0]	-999	PAL1	2	R1250N
1008.826	0.566	1945148	STUDY_ORIENT_OFF	n/a	n/a	2	4	JUDGE	LEAF	LEAF	JUDGE	8	[0, 0, 0]	-999	PAL1	2	R1250N
1009.392	4.0	1945714	STUDY_PAIR	n/a	wordpools/wordpool_EN.txt	2	4	JUDGE	LEAF	LEAF	JUDGE	8	[0, 0, 0]	-999	PAL1	2	R1250N
1013.41	1.016	1949732	PAIR_OFF	n/a	n/a	2	4	JUDGE	LEAF	LEAF	JUDGE	8	[0, 0, 0]	-999	PAL1	2	R1250N
1014.426	0.267	1950748	STUDY_ORIENT	n/a	n/a	3	3	STORM	BEEF	STORM	SHOE	8	[0, 0, 0]	-999	PAL1	2	R1250N
1014.693	0.583	1951015	STUDY_ORIENT_OFF	n/a	n/a	3	3	STORM	BEEF	STORM	SHOE	8	[0, 0, 0]	-999	PAL1	2	R1250N
1015.276	4.0	1951598	STUDY_PAIR	n/a	wordpools/wordpool_EN.txt	3	3	STORM	BEEF	STORM	SHOE	8	[0, 0, 0]	-999	PAL1	2	R1250N
1019.293	1.017	1955615	PAIR_OFF	n/a	n/a	3	3	STORM	BEEF	STORM	SHOE	8	[0, 0, 0]	-999	PAL1	2	R1250N
1020.31	0.267	1956632	STUDY_ORIENT	n/a	n/a	4	6	FOOD	LAMB	FOOD	LAMB	8	[0, 0, 0]	-999	PAL1	2	R1250N
1020.577	0.683	1956899	STUDY_ORIENT_OFF	n/a	n/a	4	6	FOOD	LAMB	FOOD	LAMB	8	[0, 0, 0]	-999	PAL1	2	R1250N
1021.26	4.0	1957582	STUDY_PAIR	n/a	wordpools/wordpool_EN.txt	4	6	FOOD	LAMB	FOOD	LAMB	8	[0, 0, 0]	-999	PAL1	2	R1250N
1025.277	1.016	1961600	PAIR_OFF	n/a	n/a	4	6	FOOD	LAMB	FOOD	LAMB	8	[0, 0, 0]	-999	PAL1	2	R1250N
1026.293	0.268	1962616	STUDY_ORIENT	n/a	n/a	5	5	SPEAR	n/a	HOOK	SPEAR	8	[0, 0, 0]	-999	PAL1	2	R1250N
1026.561	0.716	1962884	STUDY_ORIENT_OFF	n/a	n/a	5	5	SPEAR	n/a	HOOK	SPEAR	8	[0, 0, 0]	-999	PAL1	2	R1250N
1027.277	4.0	1963600	STUDY_PAIR	n/a	wordpools/wordpool_EN.txt	5	5	SPEAR	n/a	HOOK	SPEAR	8	[0, 0, 0]	-999	PAL1	2	R1250N
1031.294	1.017	1967617	PAIR_OFF	n/a	n/a	5	5	SPEAR	n/a	HOOK	SPEAR	8	[0, 0, 0]	-999	PAL1	2	R1250N
1032.311	0.267	1968634	STUDY_ORIENT	n/a	n/a	6	2	BOWL	LAMB	BOWL	FARM	8	[0, 0, 0]	-999	PAL1	2	R1250N
1032.578	0.616	1968901	STUDY_ORIENT_OFF	n/a	n/a	6	2	BOWL	LAMB	BOWL	FARM	8	[0, 0, 0]	-999	PAL1	2	R1250N
1033.194	4.0	1969517	STUDY_PAIR	n/a	wordpools/wordpool_EN.txt	6	2	BOWL	LAMB	BOWL	FARM	8	[0, 0, 0]	-999	PAL1	2	R1250N
1037.211	1.0	1973534	PAIR_OFF	n/a	n/a	6	2	BOWL	LAMB	BOWL	FARM	8	[0, 0, 0]	-999	PAL1	2	R1250N
1038.211	0.0	1974534	ENCODING_END	n/a	n/a	-999	-999	n/a	n/a	n/a	n/a	8	[0, 0, 0]	-999	PAL1	2	R1250N
1038.211	0.001	1974534	MATH_START	n/a	n/a	-999	-999	n/a	n/a	n/a	n/a	8	[0, 0, 0]	-999	PAL1	2	R1250N
1038.212	0.016	1974535	START	n/a	n/a	-999	-999	n/a	n/a	n/a	n/a	8	[-999, -999, -999]	-999	PAL1	2	R1250N
1038.228	4.9	1974551	PROB	4.866	n/a	-999	-999	n/a	n/a	n/a	n/a	8	[7, 8, 2]	17	PAL1	2	R1250N
1043.128	6.201	1979451	PROB	6.18	n/a	-999	-999	n/a	n/a	n/a	n/a	8	[9, 4, 4]	17	PAL1	2	R1250N
1049.329	5.452	1985652	PROB	5.42	n/a	-999	-999	n/a	n/a	n/a	n/a	8	[9, 2, 2]	13	PAL1	2	R1250N
1054.781	6.335	1991104	PROB	6.335	n/a	-999	-999	n/a	n/a	n/a	n/a	8	[1, 2, 7]	10	PAL1	2	R1250N
1061.116	0.015	1997439	STOP	n/a	n/a	-999	-999	n/a	n/a	n/a	n/a	8	[-999, -999, -999]	-999	PAL1	2	R1250N
1061.131	0.0	1997454	MATH_END	n/a	n/a	-999	-999	n/a	n/a	n/a	n/a	8	[0, 0, 0]	-999	PAL1	2	R1250N
1061.131	0.016	1997454	RECALL_START	n/a	n/a	-999	-999	n/a	n/a	n/a	n/a	8	[0, 0, 0]	-999	PAL1	2	R1250N
1061.147	0.268	1997470	TEST_ORIENT	n/a	n/a	1	1	SWORD	ROAD	SWORD	ROAD	8	[0, 0, 0]	-999	PAL1	2	R1250N
1061.415	0.666	1997738	RETRIEVAL_ORIENT_OFF	n/a	n/a	-999	-999	n/a	n/a	n/a	n/a	8	[0, 0, 0]	-999	PAL1	2	R1250N
1062.081	4.0	1998404	TEST_PROBE	n/a	wordpools/wordpool_EN.txt	1	1	SWORD	ROAD	SWORD	ROAD	8	[0, 0, 0]	-999	PAL1	2	R1250N
1062.081	2.005	1998404	REC_START	n/a	n/a	1	-999	n/a	ROAD	n/a	n/a	8	[0, 0, 0]	-999	PAL1	2	R1250N
1064.086	2.012	2000409	REC_EVENT	2.005	n/a	1	1	SWORD	ROAD	SWORD	ROAD	8	[0, 0, 0]	-999	PAL1	2	R1250N
1066.098	1.0	2002421	PROBE_OFF	n/a	n/a	1	-999	n/a	n/a	n/a	n/a	8	[0, 0, 0]	-999	PAL1	2	R1250N
1067.098	0.016	2003421	REC_END	n/a	n/a	1	-999	n/a	n/a	n/a	n/a	8	[0, 0, 0]	-999	PAL1	2	R1250N
1067.114	0.267	2003437	TEST_ORIENT	n/a	n/a	6	2	BOWL	LAMB	BOWL	FARM	8	[0, 0, 0]	-999	PAL1	2	R1250N
1067.381	0.617	2003704	RETRIEVAL_ORIENT_OFF	n/a	n/a	1	-999	n/a	n/a	n/a	n/a	8	[0, 0, 0]	-999	PAL1	2	R1250N
1067.998	4.0	2004321	TEST_PROBE	n/a	wordpools/wordpool_EN.txt	6	2	BOWL	LAMB	BOWL	FARM	8	[0, 0, 0]	-999	PAL1	2	R1250N
1067.998	2.103	2004321	REC_START	n/a	n/a	6	-999	n/a	LAMB	n/a	n/a	8	[0, 0, 0]	-999	PAL1	2	R1250N
1070.101	1.914	2006424	REC_EVENT	2.103	n/a	6	2	BOWL	LAMB	BOWL	FARM	8	[0, 0, 0]	-999	PAL1	2	R1250N
1072.015	1.0	2008338	PROBE_OFF	n/a	n/a	6	-999	n/a	n/a	n/a	n/a	8	[0, 0, 0]	-999	PAL1	2	R1250N
1073.015	0.017	2009338	REC_END	n/a	n/a	6	-999	n/a	n/a	n/a	n/a	8	[0, 0, 0]	-999	PAL1	2	R1250N
1073.032	0.266	2009355	TEST_ORIENT	n/a	n/a	3	3	STORM	BEEF	STORM	SHOE	8	[0, 0, 0]	-999	PAL1	2	R1250N
1073.298	0.518	2009621	RETRIEVAL_ORIENT_OFF	n/a	n/a	6	-999	n/a	n/a	n/a	n/a	8	[0, 0, 0]	-999	PAL1	2	R1250N
1073.816	4.0	2010139	TEST_PROBE	n/a	wordpools/wordpool_EN.txt	3	3	STORM	BEEF	STORM	SHOE	8	[0, 0, 0]	-999	PAL1	2	R1250N
1073.817	1.615	2010140	REC_START	n/a	n/a	3	-999	n/a	BEEF	n/a	n/a	8	[0, 0, 0]	-999	PAL1	2	R1250N
1075.432	2.401	2011755	REC_EVENT	1.615	n/a	3	3	STORM	BEEF	STORM	SHOE	8	[0, 0, 0]	-999	PAL1	2	R1250N
1077.833	1.0	2014156	PROBE_OFF	n/a	n/a	3	-999	n/a	n/a	n/a	n/a	8	[0, 0, 0]	-999	PAL1	2	R1250N
1078.833	0.017	2015156	REC_END	n/a	n/a	3	-999	n/a	n/a	n/a	n/a	8	[0, 0, 0]	-999	PAL1	2	R1250N
1078.85	0.266	2015173	TEST_ORIENT	n/a	n/a	2	4	JUDGE	LEAF	LEAF	JUDGE	8	[0, 0, 0]	-999	PAL1	2	R1250N
1079.116	0.551	2015439	RETRIEVAL_ORIENT_OFF	n/a	n/a	3	-999	n/a	n/a	n/a	n/a	8	[0, 0, 0]	-999	PAL1	2	R1250N
1079.667	4.0	2015990	TEST_PROBE	n/a	wordpools/wordpool_EN.txt	2	4	JUDGE	LEAF	LEAF	JUDGE	8	[0, 0, 0]	-999	PAL1	2	R1250N
1079.667	2.052	2015990	REC_START	n/a	n/a	2	-999	n/a	LEAF	n/a	n/a	8	[0, 0, 0]	-999	PAL1	2	R1250N
1081.719	1.965	2018042	REC_EVENT	2.052	n/a	2	4	JUDGE	LEAF	LEAF	JUDGE	8	[0, 0, 0]	-999	PAL1	2	R1250N
1083.684	1.0	2020007	PROBE_OFF	n/a	n/a	2	-999	n/a	n/a	n/a	n/a	8	[0, 0, 0]	-999	PAL1	2	R1250N
1084.684	0.017	2021007	REC_END	n/a	n/a	2	-999	n/a	n/a	n/a	n/a	8	[0, 0, 0]	-999	PAL1	2	R1250N
1084.701	0.266	2021024	TEST_ORIENT	n/a	n/a	5	5	SPEAR	n/a	HOOK	SPEAR	8	[0, 0, 0]	-999	PAL1	2	R1250N
1084.967	0.75	2021290	RETRIEVAL_ORIENT_OFF	n/a	n/a	2	-999	n/a	n/a	n/a	n/a	8	[0, 0, 0]	-999	PAL1	2	R1250N
1085.717	4.0	2022040	TEST_PROBE	n/a	wordpools/wordpool_EN.txt	5	5	SPEAR	n/a	HOOK	SPEAR	8	[0, 0, 0]	-999	PAL1	2	R1250N
1085.718	4.016	2022041	REC_START	n/a	n/a	5	-999	n/a	n/a	n/a	n/a	8	[0, 0, 0]	-999	PAL1	2	R1250N
1089.734	0.883	2026058	PROBE_OFF	n/a	n/a	5	-999	n/a	n/a	n/a	n/a	8	[0, 0, 0]	-999	PAL1	2	R1250N
1090.617	0.117	2026941	REC_EVENT	4.899	n/a	5	5	SPEAR	<>	HOOK	SPEAR	8	[0, 0, 0]	-999	PAL1	2	R1250N
1090.734	0.017	2027058	REC_END	n/a	n/a	5	-999	n/a	n/a	n/a	n/a	8	[0, 0, 0]	-999	PAL1	2	R1250N
1090.751	0.266	2027075	TEST_ORIENT	n/a	n/a	4	6	FOOD	LAMB	FOOD	LAMB	8	[0, 0, 0]	-999	PAL1	2	R1250N
1091.017	0.651	2027341	RETRIEVAL_ORIENT_OFF	n/a	n/a	5	-999	n/a	n/a	n/a	n/a	8	[0, 0, 0]	-999	PAL1	2	R1250N
1091.668	0.0	2027992	REC_START	n/a	n/a	4	-999	n/a	LAMB	n/a	n/a	8	[0, 0, 0]	-999	PAL1	2	R1250N
1091.668	4.0	2027992	TEST_PROBE	n/a	wordpools/wordpool_EN.txt	4	6	FOOD	LAMB	FOOD	LAMB	8	[0, 0, 0]	-999	PAL1	2	R1250N
1095.685	0.319	2032009	PROBE_OFF	n/a	n/a	4	-999	n/a	n/a	n/a	n/a	8	[0, 0, 0]	-999	PAL1	2	R1250N
1096.004	0.681	2032328	REC_EVENT	4.336	n/a	4	6	FOOD	LAMB	FOOD	LAMB	8	[0, 0, 0]	-999	PAL1	2	R1250N
1096.685	0.004	2033009	REC_END	n/a	n/a	4	-999	n/a	n/a	n/a	n/a	8	[0, 0, 0]	-999	PAL1	2	R1250N
1096.689	659.25	2033013	RECALL_END	n/a	n/a	-999	-999	n/a	n/a	n/a	n/a	8	[0, 0, 0]	-999	PAL1	2	R1250N
1755.939	10.928	2692273	TRIAL	n/a	n/a	-999	-999	n/a	n/a	n/a	n/a	9	[0, 0, 0]	-999	PAL1	2	R1250N
1766.867	0.006	2703201	ENCODING_START	n/a	n/a	-999	-999	n/a	n/a	n/a	n/a	9	[0, 0, 0]	-999	PAL1	2	R1250N
1766.873	0.266	2703207	STUDY_ORIENT	n/a	n/a	1	1	JEEP	n/a	JEEP	LAMP	9	[0, 0, 0]	-999	PAL1	2	R1250N
1767.139	0.701	2703473	STUDY_ORIENT_OFF	n/a	n/a	1	1	JEEP	n/a	JEEP	LAMP	9	[0, 0, 0]	-999	PAL1	2	R1250N
1767.84	4.0	2704174	STUDY_PAIR	n/a	wordpools/wordpool_EN.txt	1	1	JEEP	n/a	JEEP	LAMP	9	[0, 0, 0]	-999	PAL1	2	R1250N
1771.857	1.017	2708191	PAIR_OFF	n/a	n/a	1	1	JEEP	n/a	JEEP	LAMP	9	[0, 0, 0]	-999	PAL1	2	R1250N
1772.874	0.266	2709208	STUDY_ORIENT	n/a	n/a	2	2	COUCH	NOSE	NOSE	COUCH	9	[0, 0, 0]	-999	PAL1	2	R1250N
1773.14	0.518	2709474	STUDY_ORIENT_OFF	n/a	n/a	2	2	COUCH	NOSE	NOSE	COUCH	9	[0, 0, 0]	-999	PAL1	2	R1250N
1773.658	4.0	2709992	STUDY_PAIR	n/a	wordpools/wordpool_EN.txt	2	2	COUCH	NOSE	NOSE	COUCH	9	[0, 0, 0]	-999	PAL1	2	R1250N
1777.675	1.016	2714010	PAIR_OFF	n/a	n/a	2	2	COUCH	NOSE	NOSE	COUCH	9	[0, 0, 0]	-999	PAL1	2	R1250N
1778.691	0.267	2715026	STUDY_ORIENT	n/a	n/a	3	3	GOLD	MOLE	MOLE	GOLD	9	[0, 0, 0]	-999	PAL1	2	R1250N
1778.958	0.567	2715293	STUDY_ORIENT_OFF	n/a	n/a	3	3	GOLD	MOLE	MOLE	GOLD	9	[0, 0, 0]	-999	PAL1	2	R1250N
1779.525	4.0	2715860	STUDY_PAIR	n/a	wordpools/wordpool_EN.txt	3	3	GOLD	MOLE	MOLE	GOLD	9	[0, 0, 0]	-999	PAL1	2	R1250N
1783.542	1.017	2719877	PAIR_OFF	n/a	n/a	3	3	GOLD	MOLE	MOLE	GOLD	9	[0, 0, 0]	-999	PAL1	2	R1250N
1784.559	0.266	2720894	STUDY_ORIENT	n/a	n/a	4	4	HOLE	n/a	ARK	HOLE	9	[0, 0, 0]	-999	PAL1	2	R1250N
1784.825	0.651	2721160	STUDY_ORIENT_OFF	n/a	n/a	4	4	HOLE	n/a	ARK	HOLE	9	[0, 0, 0]	-999	PAL1	2	R1250N
1785.476	4.0	2721811	STUDY_PAIR	n/a	wordpools/wordpool_EN.txt	4	4	HOLE	n/a	ARK	HOLE	9	[0, 0, 0]	-999	PAL1	2	R1250N
1789.493	1.016	2725828	PAIR_OFF	n/a	n/a	4	4	HOLE	n/a	ARK	HOLE	9	[0, 0, 0]	-999	PAL1	2	R1250N
1790.509	0.267	2726844	STUDY_ORIENT	n/a	n/a	5	5	THUMB	MOUSE	THUMB	BOARD	9	[0, 0, 0]	-999	PAL1	2	R1250N
1790.776	0.65	2727111	STUDY_ORIENT_OFF	n/a	n/a	5	5	THUMB	MOUSE	THUMB	BOARD	9	[0, 0, 0]	-999	PAL1	2	R1250N
1791.426	4.0	2727761	STUDY_PAIR	n/a	wordpools/wordpool_EN.txt	5	5	THUMB	MOUSE	THUMB	BOARD	9	[0, 0, 0]	-999	PAL1	2	R1250N
1795.443	1.017	2731778	PAIR_OFF	n/a	n/a	5	5	THUMB	MOUSE	THUMB	BOARD	9	[0, 0, 0]	-999	PAL1	2	R1250N
1796.46	0.267	2732795	STUDY_ORIENT	n/a	n/a	6	6	SKUNK	COW	SKUNK	COW	9	[0, 0, 0]	-999	PAL1	2	R1250N
1796.727	0.615	2733062	STUDY_ORIENT_OFF	n/a	n/a	6	6	SKUNK	COW	SKUNK	COW	9	[0, 0, 0]	-999	PAL1	2	R1250N
1797.342	4.0	2733677	STUDY_PAIR	n/a	wordpools/wordpool_EN.txt	6	6	SKUNK	COW	SKUNK	COW	9	[0, 0, 0]	-999	PAL1	2	R1250N
1801.359	1.001	2737694	PAIR_OFF	n/a	n/a	6	6	SKUNK	COW	SKUNK	COW	9	[0, 0, 0]	-999	PAL1	2	R1250N
1802.36	0.0	2738695	ENCODING_END	n/a	n/a	-999	-999	n/a	n/a	n/a	n/a	9	[0, 0, 0]	-999	PAL1	2	R1250N
1802.36	0.0	2738695	MATH_START	n/a	n/a	-999	-999	n/a	n/a	n/a	n/a	9	[0, 0, 0]	-999	PAL1	2	R1250N
1802.36	0.016	2738695	START	n/a	n/a	-999	-999	n/a	n/a	n/a	n/a	9	[-999, -999, -999]	-999	PAL1	2	R1250N
1802.376	5.052	2738711	PROB	5.014	n/a	-999	-999	n/a	n/a	n/a	n/a	9	[3, 1, 3]	7	PAL1	2	R1250N
1807.428	4.167	2743763	PROB	4.124	n/a	-999	-999	n/a	n/a	n/a	n/a	9	[7, 7, 2]	16	PAL1	2	R1250N
1811.595	3.799	2747930	PROB	3.771	n/a	-999	-999	n/a	n/a	n/a	n/a	9	[6, 6, 3]	15	PAL1	2	R1250N
1815.394	7.268	2751729	PROB	7.268	n/a	-999	-999	n/a	n/a	n/a	n/a	9	[8, 4, 7]	19	PAL1	2	R1250N
1822.662	0.017	2758997	STOP	n/a	n/a	-999	-999	n/a	n/a	n/a	n/a	9	[-999, -999, -999]	-999	PAL1	2	R1250N
1822.679	0.001	2759014	MATH_END	n/a	n/a	-999	-999	n/a	n/a	n/a	n/a	9	[0, 0, 0]	-999	PAL1	2	R1250N
1822.68	0.016	2759015	RECALL_START	n/a	n/a	-999	-999	n/a	n/a	n/a	n/a	9	[0, 0, 0]	-999	PAL1	2	R1250N
1822.696	0.267	2759031	TEST_ORIENT	n/a	n/a	1	1	JEEP	n/a	JEEP	LAMP	9	[0, 0, 0]	-999	PAL1	2	R1250N
1822.963	0.567	2759298	RETRIEVAL_ORIENT_OFF	n/a	n/a	-999	-999	n/a	n/a	n/a	n/a	9	[0, 0, 0]	-999	PAL1	2	R1250N
1823.53	4.0	2759865	TEST_PROBE	n/a	wordpools/wordpool_EN.txt	1	1	JEEP	n/a	JEEP	LAMP	9	[0, 0, 0]	-999	PAL1	2	R1250N
1823.53	4.017	2759865	REC_START	n/a	n/a	1	-999	n/a	n/a	n/a	n/a	9	[0, 0, 0]	-999	PAL1	2	R1250N
1827.547	0.835	2763882	PROBE_OFF	n/a	n/a	1	-999	n/a	n/a	n/a	n/a	9	[0, 0, 0]	-999	PAL1	2	R1250N
1828.382	0.165	2764717	REC_EVENT	4.852	n/a	1	1	JEEP	<>	JEEP	LAMP	9	[0, 0, 0]	-999	PAL1	2	R1250N
1828.547	0.016	2764882	REC_END	n/a	n/a	1	-999	n/a	n/a	n/a	n/a	9	[0, 0, 0]	-999	PAL1	2	R1250N
1828.563	0.267	2764898	TEST_ORIENT	n/a	n/a	2	2	COUCH	NOSE	NOSE	COUCH	9	[0, 0, 0]	-999	PAL1	2	R1250N
1828.83	0.634	2765165	RETRIEVAL_ORIENT_OFF	n/a	n/a	1	-999	n/a	n/a	n/a	n/a	9	[0, 0, 0]	-999	PAL1	2	R1250N
1829.464	0.0	2765799	REC_START	n/a	n/a	2	-999	n/a	NOSE	n/a	n/a	9	[0, 0, 0]	-999	PAL1	2	R1250N
1829.464	4.0	2765799	TEST_PROBE	n/a	wordpools/wordpool_EN.txt	2	2	COUCH	NOSE	NOSE	COUCH	9	[0, 0, 0]	-999	PAL1	2	R1250N
1830.584	2.897	2766919	REC_EVENT	1.12	n/a	2	2	COUCH	NOSE	NOSE	COUCH	9	[0, 0, 0]	-999	PAL1	2	R1250N
1833.481	1.0	2769816	PROBE_OFF	n/a	n/a	2	-999	n/a	n/a	n/a	n/a	9	[0, 0, 0]	-999	PAL1	2	R1250N
1834.481	0.016	2770816	REC_END	n/a	n/a	2	-999	n/a	n/a	n/a	n/a	9	[0, 0, 0]	-999	PAL1	2	R1250N
1834.497	0.267	2770832	TEST_ORIENT	n/a	n/a	3	3	GOLD	MOLE	MOLE	GOLD	9	[0, 0, 0]	-999	PAL1	2	R1250N
1834.764	0.683	2771099	RETRIEVAL_ORIENT_OFF	n/a	n/a	2	-999	n/a	n/a	n/a	n/a	9	[0, 0, 0]	-999	PAL1	2	R1250N
1835.447	4.0	2771782	TEST_PROBE	n/a	wordpools/wordpool_EN.txt	3	3	GOLD	MOLE	MOLE	GOLD	9	[0, 0, 0]	-999	PAL1	2	R1250N
1835.448	1.395	2771783	REC_START	n/a	n/a	3	-999	n/a	MOLE	n/a	n/a	9	[0, 0, 0]	-999	PAL1	2	R1250N
1836.843	2.622	2773178	REC_EVENT	1.395	n/a	3	3	GOLD	MOLE	MOLE	GOLD	9	[0, 0, 0]	-999	PAL1	2	R1250N
1839.465	1.0	2775801	PROBE_OFF	n/a	n/a	3	-999	n/a	n/a	n/a	n/a	9	[0, 0, 0]	-999	PAL1	2	R1250N
1840.465	0.016	2776801	REC_END	n/a	n/a	3	-999	n/a	n/a	n/a	n/a	9	[0, 0, 0]	-999	PAL1	2	R1250N
1840.481	0.267	2776817	TEST_ORIENT	n/a	n/a	4	4	HOLE	n/a	ARK	HOLE	9	[0, 0, 0]	-999	PAL1	2	R1250N
1840.748	0.566	2777084	RETRIEVAL_ORIENT_OFF	n/a	n/a	3	-999	n/a	n/a	n/a	n/a	9	[0, 0, 0]	-999	PAL1	2	R1250N
1841.314	0.0	2777650	REC_START	n/a	n/a	4	-999	n/a	n/a	n/a	n/a	9	[0, 0, 0]	-999	PAL1	2	R1250N
1841.314	4.0	2777650	TEST_PROBE	n/a	wordpools/wordpool_EN.txt	4	4	HOLE	n/a	ARK	HOLE	9	[0, 0, 0]	-999	PAL1	2	R1250N
1845.331	0.743	2781667	PROBE_OFF	n/a	n/a	4	-999	n/a	n/a	n/a	n/a	9	[0, 0, 0]	-999	PAL1	2	R1250N
1846.074	0.257	2782410	REC_EVENT	4.76	n/a	4	4	HOLE	<>	ARK	HOLE	9	[0, 0, 0]	-999	PAL1	2	R1250N
1846.331	0.017	2782667	REC_END	n/a	n/a	4	-999	n/a	n/a	n/a	n/a	9	[0, 0, 0]	-999	PAL1	2	R1250N
1846.348	0.267	2782684	TEST_ORIENT	n/a	n/a	5	5	THUMB	MOUSE	THUMB	BOARD	9	[0, 0, 0]	-999	PAL1	2	R1250N
1846.615	0.616	2782951	RETRIEVAL_ORIENT_OFF	n/a	n/a	4	-999	n/a	n/a	n/a	n/a	9	[0, 0, 0]	-999	PAL1	2	R1250N
1847.231	4.0	2783567	TEST_PROBE	n/a	wordpools/wordpool_EN.txt	5	5	THUMB	MOUSE	THUMB	BOARD	9	[0, 0, 0]	-999	PAL1	2	R1250N
1847.231	2.422	2783567	REC_START	n/a	n/a	5	-999	n/a	MOUSE	n/a	n/a	9	[0, 0, 0]	-999	PAL1	2	R1250N
1849.653	1.595	2785989	REC_EVENT	2.422	n/a	5	5	THUMB	MOUSE	THUMB	BOARD	9	[0, 0, 0]	-999	PAL1	2	R1250N
1851.248	1.0	2787584	PROBE_OFF	n/a	n/a	5	-999	n/a	n/a	n/a	n/a	9	[0, 0, 0]	-999	PAL1	2	R1250N
1852.248	0.017	2788584	REC_END	n/a	n/a	5	-999	n/a	n/a	n/a	n/a	9	[0, 0, 0]	-999	PAL1	2	R1250N
1852.265	0.268	2788601	TEST_ORIENT	n/a	n/a	6	6	SKUNK	COW	SKUNK	COW	9	[0, 0, 0]	-999	PAL1	2	R1250N
1852.533	0.682	2788869	RETRIEVAL_ORIENT_OFF	n/a	n/a	5	-999	n/a	n/a	n/a	n/a	9	[0, 0, 0]	-999	PAL1	2	R1250N
1853.215	4.0	2789551	TEST_PROBE	n/a	wordpools/wordpool_EN.txt	6	6	SKUNK	COW	SKUNK	COW	9	[0, 0, 0]	-999	PAL1	2	R1250N
1853.216	1.648	2789552	REC_START	n/a	n/a	6	-999	n/a	COW	n/a	n/a	9	[0, 0, 0]	-999	PAL1	2	R1250N
1854.864	2.368	2791200	REC_EVENT	1.648	n/a	6	6	SKUNK	COW	SKUNK	COW	9	[0, 0, 0]	-999	PAL1	2	R1250N
1857.232	1.001	2793568	PROBE_OFF	n/a	n/a	6	-999	n/a	n/a	n/a	n/a	9	[0, 0, 0]	-999	PAL1	2	R1250N
1858.233	0.009	2794569	REC_END	n/a	n/a	6	-999	n/a	n/a	n/a	n/a	9	[0, 0, 0]	-999	PAL1	2	R1250N
1858.242	4.308	2794578	RECALL_END	n/a	n/a	-999	-999	n/a	n/a	n/a	n/a	9	[0, 0, 0]	-999	PAL1	2	R1250N
1862.55	10.928	2798886	TRIAL	n/a	n/a	-999	-999	n/a	n/a	n/a	n/a	10	[0, 0, 0]	-999	PAL1	2	R1250N
1873.478	0.007	2809814	ENCODING_START	n/a	n/a	-999	-999	n/a	n/a	n/a	n/a	10	[0, 0, 0]	-999	PAL1	2	R1250N
1873.485	0.267	2809821	STUDY_ORIENT	n/a	n/a	1	5	FLAME	BRIDGE	BRIDGE	FLAME	10	[0, 0, 0]	-999	PAL1	2	R1250N
1873.752	0.716	2810088	STUDY_ORIENT_OFF	n/a	n/a	1	5	FLAME	BRIDGE	BRIDGE	FLAME	10	[0, 0, 0]	-999	PAL1	2	R1250N
1874.468	4.0	2810804	STUDY_PAIR	n/a	wordpools/wordpool_EN.txt	1	5	FLAME	BRIDGE	BRIDGE	FLAME	10	[0, 0, 0]	-999	PAL1	2	R1250N
1878.485	1.017	2814821	PAIR_OFF	n/a	n/a	1	5	FLAME	BRIDGE	BRIDGE	FLAME	10	[0, 0, 0]	-999	PAL1	2	R1250N
1879.502	0.267	2815838	STUDY_ORIENT	n/a	n/a	2	4	CHALK	NEST	NEST	CHALK	10	[0, 0, 0]	-999	PAL1	2	R1250N
1879.769	0.582	2816105	STUDY_ORIENT_OFF	n/a	n/a	2	4	CHALK	NEST	NEST	CHALK	10	[0, 0, 0]	-999	PAL1	2	R1250N
1880.351	4.0	2816687	STUDY_PAIR	n/a	wordpools/wordpool_EN.txt	2	4	CHALK	NEST	NEST	CHALK	10	[0, 0, 0]	-999	PAL1	2	R1250N
1884.368	1.017	2820704	PAIR_OFF	n/a	n/a	2	4	CHALK	NEST	NEST	CHALK	10	[0, 0, 0]	-999	PAL1	2	R1250N
1885.385	0.268	2821721	STUDY_ORIENT	n/a	n/a	3	3	EGG	n/a	STORE	EGG	10	[0, 0, 0]	-999	PAL1	2	R1250N
1885.653	0.716	2821989	STUDY_ORIENT_OFF	n/a	n/a	3	3	EGG	n/a	STORE	EGG	10	[0, 0, 0]	-999	PAL1	2	R1250N
1886.369	4.0	2822705	STUDY_PAIR	n/a	wordpools/wordpool_EN.txt	3	3	EGG	n/a	STORE	EGG	10	[0, 0, 0]	-999	PAL1	2	R1250N
1890.386	1.016	2826722	PAIR_OFF	n/a	n/a	3	3	EGG	n/a	STORE	EGG	10	[0, 0, 0]	-999	PAL1	2	R1250N
1891.402	0.251	2827738	STUDY_ORIENT	n/a	n/a	4	6	CAPE	BEAK	CAPE	BEAK	10	[0, 0, 0]	-999	PAL1	2	R1250N
1891.653	0.583	2827989	STUDY_ORIENT_OFF	n/a	n/a	4	6	CAPE	BEAK	CAPE	BEAK	10	[0, 0, 0]	-999	PAL1	2	R1250N
1892.236	4.0	2828572	STUDY_PAIR	n/a	wordpools/wordpool_EN.txt	4	6	CAPE	BEAK	CAPE	BEAK	10	[0, 0, 0]	-999	PAL1	2	R1250N
1896.253	1.017	2832589	PAIR_OFF	n/a	n/a	4	6	CAPE	BEAK	CAPE	BEAK	10	[0, 0, 0]	-999	PAL1	2	R1250N
1897.27	0.267	2833606	STUDY_ORIENT	n/a	n/a	5	1	MOTH	BROOM	MOTH	BROOM	10	[0, 0, 0]	-999	PAL1	2	R1250N
1897.537	0.666	2833873	STUDY_ORIENT_OFF	n/a	n/a	5	1	MOTH	BROOM	MOTH	BROOM	10	[0, 0, 0]	-999	PAL1	2	R1250N
1898.203	4.0	2834539	STUDY_PAIR	n/a	wordpools/wordpool_EN.txt	5	1	MOTH	BROOM	MOTH	BROOM	10	[0, 0, 0]	-999	PAL1	2	R1250N
1902.22	1.017	2838557	PAIR_OFF	n/a	n/a	5	1	MOTH	BROOM	MOTH	BROOM	10	[0, 0, 0]	-999	PAL1	2	R1250N
1903.237	0.268	2839574	STUDY_ORIENT	n/a	n/a	6	2	BIRD	n/a	BALL	BIRD	10	[0, 0, 0]	-999	PAL1	2	R1250N
1903.505	0.682	2839842	STUDY_ORIENT_OFF	n/a	n/a	6	2	BIRD	n/a	BALL	BIRD	10	[0, 0, 0]	-999	PAL1	2	R1250N
1904.187	4.0	2840524	STUDY_PAIR	n/a	wordpools/wordpool_EN.txt	6	2	BIRD	n/a	BALL	BIRD	10	[0, 0, 0]	-999	PAL1	2	R1250N
1908.204	1.001	2844541	PAIR_OFF	n/a	n/a	6	2	BIRD	n/a	BALL	BIRD	10	[0, 0, 0]	-999	PAL1	2	R1250N
1909.205	0.0	2845542	ENCODING_END	n/a	n/a	-999	-999	n/a	n/a	n/a	n/a	10	[0, 0, 0]	-999	PAL1	2	R1250N
1909.205	0.0	2845542	MATH_START	n/a	n/a	-999	-999	n/a	n/a	n/a	n/a	10	[0, 0, 0]	-999	PAL1	2	R1250N
1909.205	0.016	2845542	START	n/a	n/a	-999	-999	n/a	n/a	n/a	n/a	10	[-999, -999, -999]	-999	PAL1	2	R1250N
1909.221	5.418	2845558	PROB	5.396	n/a	-999	-999	n/a	n/a	n/a	n/a	10	[8, 5, 8]	21	PAL1	2	R1250N
1914.639	4.284	2850976	PROB	4.258	n/a	-999	-999	n/a	n/a	n/a	n/a	10	[3, 5, 2]	10	PAL1	2	R1250N
1918.923	4.266	2855260	PROB	4.245	n/a	-999	-999	n/a	n/a	n/a	n/a	10	[9, 3, 9]	21	PAL1	2	R1250N
1923.189	6.435	2859526	PROB	6.435	n/a	-999	-999	n/a	n/a	n/a	n/a	10	[2, 3, 8]	13	PAL1	2	R1250N
1929.624	0.017	2865961	STOP	n/a	n/a	-999	-999	n/a	n/a	n/a	n/a	10	[-999, -999, -999]	-999	PAL1	2	R1250N
1929.641	0.0	2865978	MATH_END	n/a	n/a	-999	-999	n/a	n/a	n/a	n/a	10	[0, 0, 0]	-999	PAL1	2	R1250N
1929.641	0.017	2865978	RECALL_START	n/a	n/a	-999	-999	n/a	n/a	n/a	n/a	10	[0, 0, 0]	-999	PAL1	2	R1250N
1929.658	0.266	2865995	TEST_ORIENT	n/a	n/a	5	1	MOTH	BROOM	MOTH	BROOM	10	[0, 0, 0]	-999	PAL1	2	R1250N
1929.924	0.65	2866261	RETRIEVAL_ORIENT_OFF	n/a	n/a	-999	-999	n/a	n/a	n/a	n/a	10	[0, 0, 0]	-999	PAL1	2	R1250N
1930.574	4.0	2866911	TEST_PROBE	n/a	wordpools/wordpool_EN.txt	5	1	MOTH	BROOM	MOTH	BROOM	10	[0, 0, 0]	-999	PAL1	2	R1250N
1930.575	1.918	2866912	REC_START	n/a	n/a	5	-999	n/a	BROOM	n/a	n/a	10	[0, 0, 0]	-999	PAL1	2	R1250N
1932.493	2.098	2868830	REC_EVENT	1.918	n/a	5	1	MOTH	BROOM	MOTH	BROOM	10	[0, 0, 0]	-999	PAL1	2	R1250N
1934.591	1.0	2870928	PROBE_OFF	n/a	n/a	5	-999	n/a	n/a	n/a	n/a	10	[0, 0, 0]	-999	PAL1	2	R1250N
1935.591	0.017	2871928	REC_END	n/a	n/a	5	-999	n/a	n/a	n/a	n/a	10	[0, 0, 0]	-999	PAL1	2	R1250N
1935.608	0.267	2871945	TEST_ORIENT	n/a	n/a	6	2	BIRD	n/a	BALL	BIRD	10	[0, 0, 0]	-999	PAL1	2	R1250N
1935.875	0.567	2872212	RETRIEVAL_ORIENT_OFF	n/a	n/a	5	-999	n/a	n/a	n/a	n/a	10	[0, 0, 0]	-999	PAL1	2	R1250N
1936.442	0.0	2872779	REC_START	n/a	n/a	6	-999	n/a	n/a	n/a	n/a	10	[0, 0, 0]	-999	PAL1	2	R1250N
1936.442	4.0	2872779	TEST_PROBE	n/a	wordpools/wordpool_EN.txt	6	2	BIRD	n/a	BALL	BIRD	10	[0, 0, 0]	-999	PAL1	2	R1250N
1940.459	0.789	2876796	PROBE_OFF	n/a	n/a	6	-999	n/a	n/a	n/a	n/a	10	[0, 0, 0]	-999	PAL1	2	R1250N
1941.248	0.212	2877585	REC_EVENT	4.806	n/a	6	2	BIRD	<>	BALL	BIRD	10	[0, 0, 0]	-999	PAL1	2	R1250N
1941.46	0.015	2877797	REC_END	n/a	n/a	6	-999	n/a	n/a	n/a	n/a	10	[0, 0, 0]	-999	PAL1	2	R1250N
1941.475	0.267	2877812	TEST_ORIENT	n/a	n/a	3	3	EGG	n/a	STORE	EGG	10	[0, 0, 0]	-999	PAL1	2	R1250N
1941.742	0.7	2878079	RETRIEVAL_ORIENT_OFF	n/a	n/a	6	-999	n/a	n/a	n/a	n/a	10	[0, 0, 0]	-999	PAL1	2	R1250N
1942.442	4.0	2878779	TEST_PROBE	n/a	wordpools/wordpool_EN.txt	3	3	EGG	n/a	STORE	EGG	10	[0, 0, 0]	-999	PAL1	2	R1250N
1942.443	4.016	2878780	REC_START	n/a	n/a	3	-999	n/a	n/a	n/a	n/a	10	[0, 0, 0]	-999	PAL1	2	R1250N
1946.459	0.697	2882796	PROBE_OFF	n/a	n/a	3	-999	n/a	n/a	n/a	n/a	10	[0, 0, 0]	-999	PAL1	2	R1250N
1947.156	0.303	2883493	REC_EVENT	4.713	n/a	3	3	EGG	<>	STORE	EGG	10	[0, 0, 0]	-999	PAL1	2	R1250N
1947.459	0.017	2883796	REC_END	n/a	n/a	3	-999	n/a	n/a	n/a	n/a	10	[0, 0, 0]	-999	PAL1	2	R1250N
1947.476	0.267	2883813	TEST_ORIENT	n/a	n/a	2	4	CHALK	NEST	NEST	CHALK	10	[0, 0, 0]	-999	PAL1	2	R1250N
1947.743	0.717	2884080	RETRIEVAL_ORIENT_OFF	n/a	n/a	3	-999	n/a	n/a	n/a	n/a	10	[0, 0, 0]	-999	PAL1	2	R1250N
1948.46	0.0	2884797	REC_START	n/a	n/a	2	-999	n/a	NEST	n/a	n/a	10	[0, 0, 0]	-999	PAL1	2	R1250N
1948.46	4.0	2884797	TEST_PROBE	n/a	wordpools/wordpool_EN.txt	2	4	CHALK	NEST	NEST	CHALK	10	[0, 0, 0]	-999	PAL1	2	R1250N
1949.631	2.846	2885968	REC_EVENT	1.171	n/a	2	4	CHALK	NEST	NEST	CHALK	10	[0, 0, 0]	-999	PAL1	2	R1250N
1952.477	1.0	2888814	PROBE_OFF	n/a	n/a	2	-999	n/a	n/a	n/a	n/a	10	[0, 0, 0]	-999	PAL1	2	R1250N
1953.477	0.016	2889814	REC_END	n/a	n/a	2	-999	n/a	n/a	n/a	n/a	10	[0, 0, 0]	-999	PAL1	2	R1250N
1953.493	0.267	2889830	TEST_ORIENT	n/a	n/a	1	5	FLAME	BRIDGE	BRIDGE	FLAME	10	[0, 0, 0]	-999	PAL1	2	R1250N
1953.76	0.632	2890097	RETRIEVAL_ORIENT_OFF	n/a	n/a	2	-999	n/a	n/a	n/a	n/a	10	[0, 0, 0]	-999	PAL1	2	R1250N
1954.392	4.0	2890729	TEST_PROBE	n/a	wordpools/wordpool_EN.txt	1	5	FLAME	BRIDGE	BRIDGE	FLAME	10	[0, 0, 0]	-999	PAL1	2	R1250N
1954.393	1.574	2890730	REC_START	n/a	n/a	1	-999	n/a	BRIDGE	n/a	n/a	10	[0, 0, 0]	-999	PAL1	2	R1250N
1955.967	2.444	2892304	REC_EVENT	1.574	n/a	1	5	FLAME	BRIDGE	BRIDGE	FLAME	10	[0, 0, 0]	-999	PAL1	2	R1250N
1958.411	1.0	2894748	PROBE_OFF	n/a	n/a	1	-999	n/a	n/a	n/a	n/a	10	[0, 0, 0]	-999	PAL1	2	R1250N
1959.411	0.016	2895748	REC_END	n/a	n/a	1	-999	n/a	n/a	n/a	n/a	10	[0, 0, 0]	-999	PAL1	2	R1250N
1959.427	0.267	2895764	TEST_ORIENT	n/a	n/a	4	6	CAPE	BEAK	CAPE	BEAK	10	[0, 0, 0]	-999	PAL1	2	R1250N
1959.694	0.717	2896031	RETRIEVAL_ORIENT_OFF	n/a	n/a	1	-999	n/a	n/a	n/a	n/a	10	[0, 0, 0]	-999	PAL1	2	R1250N
1960.411	4.0	2896748	TEST_PROBE	n/a	wordpools/wordpool_EN.txt	4	6	CAPE	BEAK	CAPE	BEAK	10	[0, 0, 0]	-999	PAL1	2	R1250N
1960.411	1.441	2896748	REC_START	n/a	n/a	4	-999	n/a	BEAK	n/a	n/a	10	[0, 0, 0]	-999	PAL1	2	R1250N
1961.852	2.576	2898189	REC_EVENT	1.441	n/a	4	6	CAPE	BEAK	CAPE	BEAK	10	[0, 0, 0]	-999	PAL1	2	R1250N
1964.428	1.0	2900766	PROBE_OFF	n/a	n/a	4	-999	n/a	n/a	n/a	n/a	10	[0, 0, 0]	-999	PAL1	2	R1250N
1965.428	0.009	2901766	REC_END	n/a	n/a	4	-999	n/a	n/a	n/a	n/a	10	[0, 0, 0]	-999	PAL1	2	R1250N
1965.437	4.824	2901775	RECALL_END	n/a	n/a	-999	-999	n/a	n/a	n/a	n/a	10	[0, 0, 0]	-999	PAL1	2	R1250N
1970.261	10.928	2906599	TRIAL	n/a	n/a	-999	-999	n/a	n/a	n/a	n/a	11	[0, 0, 0]	-999	PAL1	2	R1250N
1981.189	0.006	2917527	ENCODING_START	n/a	n/a	-999	-999	n/a	n/a	n/a	n/a	11	[0, 0, 0]	-999	PAL1	2	R1250N
1981.195	0.251	2917533	STUDY_ORIENT	n/a	n/a	1	1	PEA	BOOK	BOOK	PEA	11	[0, 0, 0]	-999	PAL1	2	R1250N
1981.446	0.534	2917784	STUDY_ORIENT_OFF	n/a	n/a	1	1	PEA	BOOK	BOOK	PEA	11	[0, 0, 0]	-999	PAL1	2	R1250N
1981.98	4.0	2918318	STUDY_PAIR	n/a	wordpools/wordpool_EN.txt	1	1	PEA	BOOK	BOOK	PEA	11	[0, 0, 0]	-999	PAL1	2	R1250N
1985.996	1.017	2922334	PAIR_OFF	n/a	n/a	1	1	PEA	BOOK	BOOK	PEA	11	[0, 0, 0]	-999	PAL1	2	R1250N
1987.013	0.266	2923351	STUDY_ORIENT	n/a	n/a	2	2	SEED	n/a	STEAM	SEED	11	[0, 0, 0]	-999	PAL1	2	R1250N
1987.279	0.618	2923617	STUDY_ORIENT_OFF	n/a	n/a	2	2	SEED	n/a	STEAM	SEED	11	[0, 0, 0]	-999	PAL1	2	R1250N
1987.897	4.0	2924235	STUDY_PAIR	n/a	wordpools/wordpool_EN.txt	2	2	SEED	n/a	STEAM	SEED	11	[0, 0, 0]	-999	PAL1	2	R1250N
1991.914	1.017	2928252	PAIR_OFF	n/a	n/a	2	2	SEED	n/a	STEAM	SEED	11	[0, 0, 0]	-999	PAL1	2	R1250N
1992.931	0.266	2929269	STUDY_ORIENT	n/a	n/a	3	5	SLUSH	n/a	SLUSH	YARD	11	[0, 0, 0]	-999	PAL1	2	R1250N
1993.197	0.734	2929535	STUDY_ORIENT_OFF	n/a	n/a	3	5	SLUSH	n/a	SLUSH	YARD	11	[0, 0, 0]	-999	PAL1	2	R1250N
1993.931	4.0	2930269	STUDY_PAIR	n/a	wordpools/wordpool_EN.txt	3	5	SLUSH	n/a	SLUSH	YARD	11	[0, 0, 0]	-999	PAL1	2	R1250N
1997.948	1.017	2934286	PAIR_OFF	n/a	n/a	3	5	SLUSH	n/a	SLUSH	YARD	11	[0, 0, 0]	-999	PAL1	2	R1250N
1998.965	0.266	2935303	STUDY_ORIENT	n/a	n/a	4	6	HORN	n/a	SUIT	HORN	11	[0, 0, 0]	-999	PAL1	2	R1250N
1999.231	0.534	2935569	STUDY_ORIENT_OFF	n/a	n/a	4	6	HORN	n/a	SUIT	HORN	11	[0, 0, 0]	-999	PAL1	2	R1250N
1999.765	4.0	2936103	STUDY_PAIR	n/a	wordpools/wordpool_EN.txt	4	6	HORN	n/a	SUIT	HORN	11	[0, 0, 0]	-999	PAL1	2	R1250N
2003.782	1.017	2940120	PAIR_OFF	n/a	n/a	4	6	HORN	n/a	SUIT	HORN	11	[0, 0, 0]	-999	PAL1	2	R1250N
2004.799	0.266	2941137	STUDY_ORIENT	n/a	n/a	5	3	BENCH	n/a	PIPE	BENCH	11	[0, 0, 0]	-999	PAL1	2	R1250N
2005.065	0.751	2941403	STUDY_ORIENT_OFF	n/a	n/a	5	3	BENCH	n/a	PIPE	BENCH	11	[0, 0, 0]	-999	PAL1	2	R1250N
2005.816	4.0	2942154	STUDY_PAIR	n/a	wordpools/wordpool_EN.txt	5	3	BENCH	n/a	PIPE	BENCH	11	[0, 0, 0]	-999	PAL1	2	R1250N
2009.833	1.017	2946171	PAIR_OFF	n/a	n/a	5	3	BENCH	n/a	PIPE	BENCH	11	[0, 0, 0]	-999	PAL1	2	R1250N
2010.85	0.265	2947188	STUDY_ORIENT	n/a	n/a	6	4	PEACH	n/a	HOOF	PEACH	11	[0, 0, 0]	-999	PAL1	2	R1250N
2011.115	0.518	2947453	STUDY_ORIENT_OFF	n/a	n/a	6	4	PEACH	n/a	HOOF	PEACH	11	[0, 0, 0]	-999	PAL1	2	R1250N
2011.633	4.0	2947971	STUDY_PAIR	n/a	wordpools/wordpool_EN.txt	6	4	PEACH	n/a	HOOF	PEACH	11	[0, 0, 0]	-999	PAL1	2	R1250N
2015.65	1.0	2951988	PAIR_OFF	n/a	n/a	6	4	PEACH	n/a	HOOF	PEACH	11	[0, 0, 0]	-999	PAL1	2	R1250N
2016.65	0.0	2952988	MATH_START	n/a	n/a	-999	-999	n/a	n/a	n/a	n/a	11	[0, 0, 0]	-999	PAL1	2	R1250N
2016.65	0.0	2952988	ENCODING_END	n/a	n/a	-999	-999	n/a	n/a	n/a	n/a	11	[0, 0, 0]	-999	PAL1	2	R1250N
2016.65	0.017	2952988	START	n/a	n/a	-999	-999	n/a	n/a	n/a	n/a	11	[-999, -999, -999]	-999	PAL1	2	R1250N
2016.667	3.834	2953005	PROB	3.8	n/a	-999	-999	n/a	n/a	n/a	n/a	11	[2, 4, 7]	13	PAL1	2	R1250N
2020.501	6.334	2956839	PROB	6.301	n/a	-999	-999	n/a	n/a	n/a	n/a	11	[5, 2, 9]	16	PAL1	2	R1250N
2026.835	4.282	2963174	PROB	4.246	n/a	-999	-999	n/a	n/a	n/a	n/a	11	[8, 6, 9]	23	PAL1	2	R1250N
2031.117	3.652	2967456	PROB	3.629	n/a	-999	-999	n/a	n/a	n/a	n/a	11	[7, 5, 2]	14	PAL1	2	R1250N
2034.769	4.089	2971108	PROB	4.089	n/a	-999	-999	n/a	n/a	n/a	n/a	11	[6, 3, 6]	15	PAL1	2	R1250N
2038.858	0.011	2975197	STOP	n/a	n/a	-999	-999	n/a	n/a	n/a	n/a	11	[-999, -999, -999]	-999	PAL1	2	R1250N
2038.869	0.001	2975208	MATH_END	n/a	n/a	-999	-999	n/a	n/a	n/a	n/a	11	[0, 0, 0]	-999	PAL1	2	R1250N
2038.87	0.016	2975209	RECALL_START	n/a	n/a	-999	-999	n/a	n/a	n/a	n/a	11	[0, 0, 0]	-999	PAL1	2	R1250N
2038.886	0.266	2975225	TEST_ORIENT	n/a	n/a	1	1	PEA	BOOK	BOOK	PEA	11	[0, 0, 0]	-999	PAL1	2	R1250N
2039.152	0.551	2975491	RETRIEVAL_ORIENT_OFF	n/a	n/a	-999	-999	n/a	n/a	n/a	n/a	11	[0, 0, 0]	-999	PAL1	2	R1250N
2039.703	4.0	2976042	TEST_PROBE	n/a	wordpools/wordpool_EN.txt	1	1	PEA	BOOK	BOOK	PEA	11	[0, 0, 0]	-999	PAL1	2	R1250N
2039.703	1.299	2976042	REC_START	n/a	n/a	1	-999	n/a	BOOK	n/a	n/a	11	[0, 0, 0]	-999	PAL1	2	R1250N
2041.002	2.718	2977341	REC_EVENT	1.299	n/a	1	1	PEA	BOOK	BOOK	PEA	11	[0, 0, 0]	-999	PAL1	2	R1250N
2043.72	1.0	2980059	PROBE_OFF	n/a	n/a	1	-999	n/a	n/a	n/a	n/a	11	[0, 0, 0]	-999	PAL1	2	R1250N
2044.72	0.017	2981059	REC_END	n/a	n/a	1	-999	n/a	n/a	n/a	n/a	11	[0, 0, 0]	-999	PAL1	2	R1250N
2044.737	0.265	2981076	TEST_ORIENT	n/a	n/a	2	2	SEED	n/a	STEAM	SEED	11	[0, 0, 0]	-999	PAL1	2	R1250N
2045.002	0.685	2981341	RETRIEVAL_ORIENT_OFF	n/a	n/a	1	-999	n/a	n/a	n/a	n/a	11	[0, 0, 0]	-999	PAL1	2	R1250N
2045.687	0.0	2982026	REC_START	n/a	n/a	2	-999	n/a	n/a	n/a	n/a	11	[0, 0, 0]	-999	PAL1	2	R1250N
2045.687	4.0	2982026	TEST_PROBE	n/a	wordpools/wordpool_EN.txt	2	2	SEED	n/a	STEAM	SEED	11	[0, 0, 0]	-999	PAL1	2	R1250N
2049.704	0.859	2986043	PROBE_OFF	n/a	n/a	2	-999	n/a	n/a	n/a	n/a	11	[0, 0, 0]	-999	PAL1	2	R1250N
2050.563	0.141	2986902	REC_EVENT	4.876	n/a	2	2	SEED	<>	STEAM	SEED	11	[0, 0, 0]	-999	PAL1	2	R1250N
2050.704	0.017	2987043	REC_END	n/a	n/a	2	-999	n/a	n/a	n/a	n/a	11	[0, 0, 0]	-999	PAL1	2	R1250N
2050.721	0.266	2987060	TEST_ORIENT	n/a	n/a	5	3	BENCH	n/a	PIPE	BENCH	11	[0, 0, 0]	-999	PAL1	2	R1250N
2050.987	0.7	2987326	RETRIEVAL_ORIENT_OFF	n/a	n/a	2	-999	n/a	n/a	n/a	n/a	11	[0, 0, 0]	-999	PAL1	2	R1250N
2051.687	4.0	2988026	TEST_PROBE	n/a	wordpools/wordpool_EN.txt	5	3	BENCH	n/a	PIPE	BENCH	11	[0, 0, 0]	-999	PAL1	2	R1250N
2051.688	4.016	2988027	REC_START	n/a	n/a	5	-999	n/a	n/a	n/a	n/a	11	[0, 0, 0]	-999	PAL1	2	R1250N
2055.704	0.697	2992043	PROBE_OFF	n/a	n/a	5	-999	n/a	n/a	n/a	n/a	11	[0, 0, 0]	-999	PAL1	2	R1250N
2056.401	0.303	2992740	REC_EVENT	4.713	n/a	5	3	BENCH	<>	PIPE	BENCH	11	[0, 0, 0]	-999	PAL1	2	R1250N
2056.704	0.017	2993043	REC_END	n/a	n/a	5	-999	n/a	n/a	n/a	n/a	11	[0, 0, 0]	-999	PAL1	2	R1250N
2056.721	0.267	2993060	TEST_ORIENT	n/a	n/a	6	4	PEACH	n/a	HOOF	PEACH	11	[0, 0, 0]	-999	PAL1	2	R1250N
2056.988	0.633	2993327	RETRIEVAL_ORIENT_OFF	n/a	n/a	5	-999	n/a	n/a	n/a	n/a	11	[0, 0, 0]	-999	PAL1	2	R1250N
2057.621	4.0	2993960	TEST_PROBE	n/a	wordpools/wordpool_EN.txt	6	4	PEACH	n/a	HOOF	PEACH	11	[0, 0, 0]	-999	PAL1	2	R1250N
2057.622	4.016	2993961	REC_START	n/a	n/a	6	-999	n/a	n/a	n/a	n/a	11	[0, 0, 0]	-999	PAL1	2	R1250N
2061.638	0.836	2997977	PROBE_OFF	n/a	n/a	6	-999	n/a	n/a	n/a	n/a	11	[0, 0, 0]	-999	PAL1	2	R1250N
2062.474	0.164	2998813	REC_EVENT	4.852	n/a	6	4	PEACH	<>	HOOF	PEACH	11	[0, 0, 0]	-999	PAL1	2	R1250N
2062.638	0.017	2998977	REC_END	n/a	n/a	6	-999	n/a	n/a	n/a	n/a	11	[0, 0, 0]	-999	PAL1	2	R1250N
2062.655	0.267	2998994	TEST_ORIENT	n/a	n/a	3	5	SLUSH	n/a	SLUSH	YARD	11	[0, 0, 0]	-999	PAL1	2	R1250N
2062.922	0.517	2999261	RETRIEVAL_ORIENT_OFF	n/a	n/a	6	-999	n/a	n/a	n/a	n/a	11	[0, 0, 0]	-999	PAL1	2	R1250N
2063.439	4.0	2999778	TEST_PROBE	n/a	wordpools/wordpool_EN.txt	3	5	SLUSH	n/a	SLUSH	YARD	11	[0, 0, 0]	-999	PAL1	2	R1250N
2063.439	4.017	2999778	REC_START	n/a	n/a	3	-999	n/a	n/a	n/a	n/a	11	[0, 0, 0]	-999	PAL1	2	R1250N
2067.456	0.673	3003795	PROBE_OFF	n/a	n/a	3	-999	n/a	n/a	n/a	n/a	11	[0, 0, 0]	-999	PAL1	2	R1250N
2068.129	0.328	3004468	REC_EVENT	4.69	n/a	3	5	SLUSH	<>	SLUSH	YARD	11	[0, 0, 0]	-999	PAL1	2	R1250N
2068.457	0.015	3004796	REC_END	n/a	n/a	3	-999	n/a	n/a	n/a	n/a	11	[0, 0, 0]	-999	PAL1	2	R1250N
2068.472	0.267	3004811	TEST_ORIENT	n/a	n/a	4	6	HORN	n/a	SUIT	HORN	11	[0, 0, 0]	-999	PAL1	2	R1250N
2068.739	0.667	3005078	RETRIEVAL_ORIENT_OFF	n/a	n/a	3	-999	n/a	n/a	n/a	n/a	11	[0, 0, 0]	-999	PAL1	2	R1250N
2069.406	4.0	3005745	TEST_PROBE	n/a	wordpools/wordpool_EN.txt	4	6	HORN	n/a	SUIT	HORN	11	[0, 0, 0]	-999	PAL1	2	R1250N
2069.406	4.017	3005745	REC_START	n/a	n/a	4	-999	n/a	n/a	n/a	n/a	11	[0, 0, 0]	-999	PAL1	2	R1250N
2073.423	0.835	3009762	PROBE_OFF	n/a	n/a	4	-999	n/a	n/a	n/a	n/a	11	[0, 0, 0]	-999	PAL1	2	R1250N
2074.258	0.166	3010597	REC_EVENT	4.852	n/a	4	6	HORN	<>	SUIT	HORN	11	[0, 0, 0]	-999	PAL1	2	R1250N
2074.424	0.003	3010763	REC_END	n/a	n/a	4	-999	n/a	n/a	n/a	n/a	11	[0, 0, 0]	-999	PAL1	2	R1250N
2074.427	4.929	3010766	RECALL_END	n/a	n/a	-999	-999	n/a	n/a	n/a	n/a	11	[0, 0, 0]	-999	PAL1	2	R1250N
2079.356	10.928	3015695	TRIAL	n/a	n/a	-999	-999	n/a	n/a	n/a	n/a	12	[0, 0, 0]	-999	PAL1	2	R1250N
2090.284	0.006	3026624	ENCODING_START	n/a	n/a	-999	-999	n/a	n/a	n/a	n/a	12	[0, 0, 0]	-999	PAL1	2	R1250N
2090.29	0.251	3026630	STUDY_ORIENT	n/a	n/a	1	3	CHIEF	TAIL	TAIL	CHIEF	12	[0, 0, 0]	-999	PAL1	2	R1250N
2090.541	0.633	3026881	STUDY_ORIENT_OFF	n/a	n/a	1	3	CHIEF	TAIL	TAIL	CHIEF	12	[0, 0, 0]	-999	PAL1	2	R1250N
2091.174	4.0	3027514	STUDY_PAIR	n/a	wordpools/wordpool_EN.txt	1	3	CHIEF	TAIL	TAIL	CHIEF	12	[0, 0, 0]	-999	PAL1	2	R1250N
2095.191	1.017	3031531	PAIR_OFF	n/a	n/a	1	3	CHIEF	TAIL	TAIL	CHIEF	12	[0, 0, 0]	-999	PAL1	2	R1250N
2096.208	0.267	3032548	STUDY_ORIENT	n/a	n/a	2	2	POLE	n/a	EAR	POLE	12	[0, 0, 0]	-999	PAL1	2	R1250N
2096.475	0.733	3032815	STUDY_ORIENT_OFF	n/a	n/a	2	2	POLE	n/a	EAR	POLE	12	[0, 0, 0]	-999	PAL1	2	R1250N
2097.208	4.0	3033548	STUDY_PAIR	n/a	wordpools/wordpool_EN.txt	2	2	POLE	n/a	EAR	POLE	12	[0, 0, 0]	-999	PAL1	2	R1250N
2101.225	1.017	3037565	PAIR_OFF	n/a	n/a	2	2	POLE	n/a	EAR	POLE	12	[0, 0, 0]	-999	PAL1	2	R1250N
2102.242	0.267	3038582	STUDY_ORIENT	n/a	n/a	3	5	SOAP	n/a	SOAP	CAR	12	[0, 0, 0]	-999	PAL1	2	R1250N
2102.509	0.516	3038849	STUDY_ORIENT_OFF	n/a	n/a	3	5	SOAP	n/a	SOAP	CAR	12	[0, 0, 0]	-999	PAL1	2	R1250N
2103.025	4.0	3039365	STUDY_PAIR	n/a	wordpools/wordpool_EN.txt	3	5	SOAP	n/a	SOAP	CAR	12	[0, 0, 0]	-999	PAL1	2	R1250N
2107.042	1.017	3043382	PAIR_OFF	n/a	n/a	3	5	SOAP	n/a	SOAP	CAR	12	[0, 0, 0]	-999	PAL1	2	R1250N
2108.059	0.267	3044399	STUDY_ORIENT	n/a	n/a	4	6	PIG	STOOL	STOOL	PIG	12	[0, 0, 0]	-999	PAL1	2	R1250N
2108.326	0.601	3044666	STUDY_ORIENT_OFF	n/a	n/a	4	6	PIG	STOOL	STOOL	PIG	12	[0, 0, 0]	-999	PAL1	2	R1250N
2108.927	4.0	3045267	STUDY_PAIR	n/a	wordpools/wordpool_EN.txt	4	6	PIG	STOOL	STOOL	PIG	12	[0, 0, 0]	-999	PAL1	2	R1250N
2112.944	1.017	3049284	PAIR_OFF	n/a	n/a	4	6	PIG	STOOL	STOOL	PIG	12	[0, 0, 0]	-999	PAL1	2	R1250N
2113.961	0.265	3050301	STUDY_ORIENT	n/a	n/a	5	1	CLOCK	PET	PET	CLOCK	12	[0, 0, 0]	-999	PAL1	2	R1250N
2114.226	0.601	3050566	STUDY_ORIENT_OFF	n/a	n/a	5	1	CLOCK	PET	PET	CLOCK	12	[0, 0, 0]	-999	PAL1	2	R1250N
2114.827	4.0	3051167	STUDY_PAIR	n/a	wordpools/wordpool_EN.txt	5	1	CLOCK	PET	PET	CLOCK	12	[0, 0, 0]	-999	PAL1	2	R1250N
2118.845	1.016	3055185	PAIR_OFF	n/a	n/a	5	1	CLOCK	PET	PET	CLOCK	12	[0, 0, 0]	-999	PAL1	2	R1250N
2119.861	0.266	3056201	STUDY_ORIENT	n/a	n/a	6	4	WING	EEL	EEL	WING	12	[0, 0, 0]	-999	PAL1	2	R1250N
2120.127	0.651	3056467	STUDY_ORIENT_OFF	n/a	n/a	6	4	WING	EEL	EEL	WING	12	[0, 0, 0]	-999	PAL1	2	R1250N
2120.778	4.0	3057118	STUDY_PAIR	n/a	wordpools/wordpool_EN.txt	6	4	WING	EEL	EEL	WING	12	[0, 0, 0]	-999	PAL1	2	R1250N
2124.795	1.0	3061135	PAIR_OFF	n/a	n/a	6	4	WING	EEL	EEL	WING	12	[0, 0, 0]	-999	PAL1	2	R1250N
2125.795	0.0	3062135	MATH_START	n/a	n/a	-999	-999	n/a	n/a	n/a	n/a	12	[0, 0, 0]	-999	PAL1	2	R1250N
2125.795	0.0	3062135	ENCODING_END	n/a	n/a	-999	-999	n/a	n/a	n/a	n/a	12	[0, 0, 0]	-999	PAL1	2	R1250N
2125.795	0.017	3062135	START	n/a	n/a	-999	-999	n/a	n/a	n/a	n/a	12	[-999, -999, -999]	-999	PAL1	2	R1250N
2125.812	3.65	3062152	PROB	3.616	n/a	-999	-999	n/a	n/a	n/a	n/a	12	[8, 1, 8]	17	PAL1	2	R1250N
2129.462	3.833	3065802	PROB	3.805	n/a	-999	-999	n/a	n/a	n/a	n/a	12	[5, 3, 1]	9	PAL1	2	R1250N
2133.295	4.235	3069635	PROB	4.213	n/a	-999	-999	n/a	n/a	n/a	n/a	12	[1, 2, 7]	10	PAL1	2	R1250N
2137.53	5.334	3073870	PROB	5.298	n/a	-999	-999	n/a	n/a	n/a	n/a	12	[9, 9, 7]	25	PAL1	2	R1250N
2142.864	3.41	3079204	PROB	3.41	n/a	-999	-999	n/a	n/a	n/a	n/a	12	[2, 8, 6]	16	PAL1	2	R1250N
2146.274	0.006	3082614	STOP	n/a	n/a	-999	-999	n/a	n/a	n/a	n/a	12	[-999, -999, -999]	-999	PAL1	2	R1250N
2146.28	0.0	3082620	MATH_END	n/a	n/a	-999	-999	n/a	n/a	n/a	n/a	12	[0, 0, 0]	-999	PAL1	2	R1250N
2146.28	0.017	3082620	RECALL_START	n/a	n/a	-999	-999	n/a	n/a	n/a	n/a	12	[0, 0, 0]	-999	PAL1	2	R1250N
2146.297	0.267	3082637	TEST_ORIENT	n/a	n/a	5	1	CLOCK	PET	PET	CLOCK	12	[0, 0, 0]	-999	PAL1	2	R1250N
