onset	duration	sample	trial_type	response_time	stim_file	serialpos	probepos	probe_word	resp_word	study_1	study_2	list	test	answer	experiment	session	subject
0.0	245.17	417020	SESS_START	n/a	n/a	-999	-999	n/a	n/a	n/a	n/a	-999	[0, 0, 0]	-999	PAL1	0	R1142N
245.17	1.016	662181	START	n/a	n/a	-999	-999	n/a	n/a	n/a	n/a	-1	[-999, -999, -999]	-999	PAL1	0	R1142N
246.186	12.487	663197	PROB	12459.0	n/a	-999	-999	n/a	n/a	n/a	n/a	-1	[4, 2, 2]	8	PAL1	0	R1142N
258.673	7.18	675683	PROB	7180.0	n/a	-999	-999	n/a	n/a	n/a	n/a	-1	[1, 6, 5]	12	PAL1	0	R1142N
265.853	56.488	682863	STOP	n/a	n/a	-999	-999	n/a	n/a	n/a	n/a	-1	[-999, -999, -999]	-999	PAL1	0	R1142N
322.341	10.445	739349	ENCODING_START	n/a	n/a	0	-999	n/a	n/a	n/a	n/a	1	[0, 0, 0]	-999	PAL1	0	R1142N
332.786	0.275	749794	STUDY_ORIENT	n/a	n/a	1	1	HOOK	NET	PET	HOOK	1	[0, 0, 0]	-999	PAL1	0	R1142N
333.587	4.0	750595	STUDY_PAIR	n/a	wordpools/wordpool_EN.txt	1	1	HOOK	NET	PET	HOOK	1	[0, 0, 0]	-999	PAL1	0	R1142N
338.62	0.275	755628	STUDY_ORIENT	n/a	n/a	2	4	PEN	n/a	HOLE	PEN	1	[0, 0, 0]	-999	PAL1	0	R1142N
339.553	4.0	756561	STUDY_PAIR	n/a	wordpools/wordpool_EN.txt	2	4	PEN	n/a	HOLE	PEN	1	[0, 0, 0]	-999	PAL1	0	R1142N
344.587	0.275	761594	STUDY_ORIENT	n/a	n/a	3	3	STAR	n/a	STAR	SHIRT	1	[0, 0, 0]	-999	PAL1	0	R1142N
345.571	4.0	762578	STUDY_PAIR	n/a	wordpools/wordpool_EN.txt	3	3	STAR	n/a	STAR	SHIRT	1	[0, 0, 0]	-999	PAL1	0	R1142N
350.605	0.275	767612	STUDY_ORIENT	n/a	n/a	4	6	BRANCH	n/a	BRANCH	NET	1	[0, 0, 0]	-999	PAL1	0	R1142N
351.572	4.0	768579	STUDY_PAIR	n/a	wordpools/wordpool_EN.txt	4	6	BRANCH	n/a	BRANCH	NET	1	[0, 0, 0]	-999	PAL1	0	R1142N
356.606	0.275	773613	STUDY_ORIENT	n/a	n/a	5	5	TENT	n/a	TENT	GRASS	1	[0, 0, 0]	-999	PAL1	0	R1142N
357.59	4.0	774597	STUDY_PAIR	n/a	wordpools/wordpool_EN.txt	5	5	TENT	n/a	TENT	GRASS	1	[0, 0, 0]	-999	PAL1	0	R1142N
362.624	0.275	779631	STUDY_ORIENT	n/a	n/a	6	2	BOOT	HOOK	BOOT	GATE	1	[0, 0, 0]	-999	PAL1	0	R1142N
363.641	4.0	780648	STUDY_PAIR	n/a	wordpools/wordpool_EN.txt	6	2	BOOT	HOOK	BOOT	GATE	1	[0, 0, 0]	-999	PAL1	0	R1142N
367.659	0.999	784666	START	n/a	n/a	-999	-999	n/a	n/a	n/a	n/a	1	[-999, -999, -999]	-999	PAL1	0	R1142N
368.658	0.017	785664	MATH_START	n/a	n/a	-999	-999	n/a	n/a	n/a	n/a	1	[0, 0, 0]	-999	PAL1	0	R1142N
368.675	9.885	785681	PROB	9858.0	n/a	-999	-999	n/a	n/a	n/a	n/a	1	[7, 6, 5]	18	PAL1	0	R1142N
378.56	9.125	795566	PROB	9125.0	n/a	-999	-999	n/a	n/a	n/a	n/a	1	[2, 9, 8]	19	PAL1	0	R1142N
387.685	0.011	804691	STOP	n/a	n/a	-999	-999	n/a	n/a	n/a	n/a	1	[-999, -999, -999]	-999	PAL1	0	R1142N
387.696	0.0	804702	MATH_END	n/a	n/a	-999	-999	n/a	n/a	n/a	n/a	1	[0, 0, 0]	-999	PAL1	0	R1142N
387.696	0.016	804702	TEST_START	n/a	n/a	-999	-999	n/a	n/a	n/a	n/a	1	[0, 0, 0]	-999	PAL1	0	R1142N
387.712	0.275	804718	TEST_ORIENT	n/a	n/a	1	1	HOOK	NET	PET	HOOK	1	[0, 0, 0]	-999	PAL1	0	R1142N
388.595	4.0	805601	TEST_PROBE	n/a	wordpools/wordpool_EN.txt	1	1	HOOK	NET	PET	HOOK	1	[0, 0, 0]	-999	PAL1	0	R1142N
388.597	2.975	805603	REC_START	n/a	n/a	1	-999	n/a	NET	n/a	n/a	1	[0, 0, 0]	-999	PAL1	0	R1142N
391.572	2.049	808578	REC_EVENT	2975.0	n/a	1	1	HOOK	NET	PET	HOOK	1	[0, 0, 0]	-999	PAL1	0	R1142N
393.621	0.008	810627	REC_END	n/a	n/a	1	-999	n/a	n/a	n/a	n/a	1	[0, 0, 0]	-999	PAL1	0	R1142N
393.629	0.275	810635	TEST_ORIENT	n/a	n/a	6	2	BOOT	HOOK	BOOT	GATE	1	[0, 0, 0]	-999	PAL1	0	R1142N
394.63	4.0	811636	TEST_PROBE	n/a	wordpools/wordpool_EN.txt	6	2	BOOT	HOOK	BOOT	GATE	1	[0, 0, 0]	-999	PAL1	0	R1142N
394.63	2.13	811636	REC_START	n/a	n/a	6	-999	n/a	HOOK	n/a	n/a	1	[0, 0, 0]	-999	PAL1	0	R1142N
396.76	2.887	813765	REC_EVENT	2130.0	n/a	6	2	BOOT	HOOK	BOOT	GATE	1	[0, 0, 0]	-999	PAL1	0	R1142N
399.647	0.017	816652	REC_END	n/a	n/a	6	-999	n/a	n/a	n/a	n/a	1	[0, 0, 0]	-999	PAL1	0	R1142N
399.664	0.275	816669	TEST_ORIENT	n/a	n/a	3	3	STAR	n/a	STAR	SHIRT	1	[0, 0, 0]	-999	PAL1	0	R1142N
400.48	4.0	817485	TEST_PROBE	n/a	wordpools/wordpool_EN.txt	3	3	STAR	n/a	STAR	SHIRT	1	[0, 0, 0]	-999	PAL1	0	R1142N
400.481	5.026	817486	REC_START	n/a	n/a	3	-999	n/a	n/a	n/a	n/a	1	[0, 0, 0]	-999	PAL1	0	R1142N
405.507	0.001	822512	REC_END	n/a	n/a	3	-999	n/a	n/a	n/a	n/a	1	[0, 0, 0]	-999	PAL1	0	R1142N
405.508	0.006	822513	REC_EVENT	5027.0	n/a	3	3	STAR	<>	STAR	SHIRT	1	[0, 0, 0]	-999	PAL1	0	R1142N
405.514	0.275	822519	TEST_ORIENT	n/a	n/a	2	4	PEN	n/a	HOLE	PEN	1	[0, 0, 0]	-999	PAL1	0	R1142N
406.33	4.0	823335	TEST_PROBE	n/a	wordpools/wordpool_EN.txt	2	4	PEN	n/a	HOLE	PEN	1	[0, 0, 0]	-999	PAL1	0	R1142N
406.331	5.026	823336	REC_START	n/a	n/a	2	-999	n/a	n/a	n/a	n/a	1	[0, 0, 0]	-999	PAL1	0	R1142N
411.357	0.001	828362	REC_END	n/a	n/a	2	-999	n/a	n/a	n/a	n/a	1	[0, 0, 0]	-999	PAL1	0	R1142N
411.358	0.007	828363	REC_EVENT	5027.0	n/a	2	4	PEN	<>	HOLE	PEN	1	[0, 0, 0]	-999	PAL1	0	R1142N
411.365	0.275	828370	TEST_ORIENT	n/a	n/a	5	5	TENT	n/a	TENT	GRASS	1	[0, 0, 0]	-999	PAL1	0	R1142N
412.349	4.0	829354	TEST_PROBE	n/a	wordpools/wordpool_EN.txt	5	5	TENT	n/a	TENT	GRASS	1	[0, 0, 0]	-999	PAL1	0	R1142N
412.35	5.016	829355	REC_START	n/a	n/a	5	-999	n/a	n/a	n/a	n/a	1	[0, 0, 0]	-999	PAL1	0	R1142N
417.366	0.005	834371	REC_END	n/a	n/a	5	-999	n/a	n/a	n/a	n/a	1	[0, 0, 0]	-999	PAL1	0	R1142N
417.371	0.013	834376	REC_EVENT	5021.0	n/a	5	5	TENT	<>	TENT	GRASS	1	[0, 0, 0]	-999	PAL1	0	R1142N
417.384	0.275	834389	TEST_ORIENT	n/a	n/a	4	6	BRANCH	n/a	BRANCH	NET	1	[0, 0, 0]	-999	PAL1	0	R1142N
418.233	4.0	835238	TEST_PROBE	n/a	wordpools/wordpool_EN.txt	4	6	BRANCH	n/a	BRANCH	NET	1	[0, 0, 0]	-999	PAL1	0	R1142N
418.233	5.015	835238	REC_START	n/a	n/a	4	-999	n/a	n/a	n/a	n/a	1	[0, 0, 0]	-999	PAL1	0	R1142N
423.248	0.002	840253	REC_EVENT	5015.0	n/a	4	6	BRANCH	<>	BRANCH	NET	1	[0, 0, 0]	-999	PAL1	0	R1142N
423.25	3.235	840255	REC_END	n/a	n/a	4	-999	n/a	n/a	n/a	n/a	1	[0, 0, 0]	-999	PAL1	0	R1142N
426.485	10.467	843489	ENCODING_START	n/a	n/a	0	-999	n/a	n/a	n/a	n/a	2	[0, 0, 0]	-999	PAL1	0	R1142N
436.952	0.275	853956	STUDY_ORIENT	n/a	n/a	1	3	FRUIT	ROOF	FRUIT	DUCK	2	[0, 0, 0]	-999	PAL1	0	R1142N
437.787	4.0	854791	STUDY_PAIR	n/a	wordpools/wordpool_EN.txt	1	3	FRUIT	ROOF	FRUIT	DUCK	2	[0, 0, 0]	-999	PAL1	0	R1142N
442.821	0.275	859825	STUDY_ORIENT	n/a	n/a	2	6	VINE	ROOT	BOWL	VINE	2	[0, 0, 0]	-999	PAL1	0	R1142N
443.621	4.0	860625	STUDY_PAIR	n/a	wordpools/wordpool_EN.txt	2	6	VINE	ROOT	BOWL	VINE	2	[0, 0, 0]	-999	PAL1	0	R1142N
448.655	0.275	865659	STUDY_ORIENT	n/a	n/a	3	5	BAT	HILL	BAT	HILL	2	[0, 0, 0]	-999	PAL1	0	R1142N
449.505	4.0	866509	STUDY_PAIR	n/a	wordpools/wordpool_EN.txt	3	5	BAT	HILL	BAT	HILL	2	[0, 0, 0]	-999	PAL1	0	R1142N
454.54	0.275	871543	STUDY_ORIENT	n/a	n/a	4	2	WORM	PIG	WORM	PIG	2	[0, 0, 0]	-999	PAL1	0	R1142N
455.49	4.0	872493	STUDY_PAIR	n/a	wordpools/wordpool_EN.txt	4	2	WORM	PIG	WORM	PIG	2	[0, 0, 0]	-999	PAL1	0	R1142N
460.524	0.275	877527	STUDY_ORIENT	n/a	n/a	5	1	SINK	PIG	SPRING	SINK	2	[0, 0, 0]	-999	PAL1	0	R1142N
461.441	4.0	878444	STUDY_PAIR	n/a	wordpools/wordpool_EN.txt	5	1	SINK	PIG	SPRING	SINK	2	[0, 0, 0]	-999	PAL1	0	R1142N
466.475	0.275	883478	STUDY_ORIENT	n/a	n/a	6	4	ROOF	NET	BROOM	ROOF	2	[0, 0, 0]	-999	PAL1	0	R1142N
467.324	4.0	884327	STUDY_PAIR	n/a	wordpools/wordpool_EN.txt	6	4	ROOF	NET	BROOM	ROOF	2	[0, 0, 0]	-999	PAL1	0	R1142N
471.344	0.999	888347	START	n/a	n/a	-999	-999	n/a	n/a	n/a	n/a	2	[-999, -999, -999]	-999	PAL1	0	R1142N
472.343	0.016	889346	MATH_START	n/a	n/a	-999	-999	n/a	n/a	n/a	n/a	2	[0, 0, 0]	-999	PAL1	0	R1142N
472.359	10.168	889362	PROB	10134.0	n/a	-999	-999	n/a	n/a	n/a	n/a	2	[4, 4, 5]	13	PAL1	0	R1142N
482.527	8.086	899529	PROB	8054.0	n/a	-999	-999	n/a	n/a	n/a	n/a	2	[5, 1, 6]	12	PAL1	0	R1142N
490.613	6.888	907615	PROB	6888.0	n/a	-999	-999	n/a	n/a	n/a	n/a	2	[5, 1, 8]	14	PAL1	0	R1142N
497.501	0.012	914503	STOP	n/a	n/a	-999	-999	n/a	n/a	n/a	n/a	2	[-999, -999, -999]	-999	PAL1	0	R1142N
497.513	0.0	914515	MATH_END	n/a	n/a	-999	-999	n/a	n/a	n/a	n/a	2	[0, 0, 0]	-999	PAL1	0	R1142N
497.513	0.018	914515	TEST_START	n/a	n/a	-999	-999	n/a	n/a	n/a	n/a	2	[0, 0, 0]	-999	PAL1	0	R1142N
497.531	0.275	914533	TEST_ORIENT	n/a	n/a	5	1	SINK	PIG	SPRING	SINK	2	[0, 0, 0]	-999	PAL1	0	R1142N
498.447	4.0	915449	TEST_PROBE	n/a	wordpools/wordpool_EN.txt	5	1	SINK	PIG	SPRING	SINK	2	[0, 0, 0]	-999	PAL1	0	R1142N
498.447	3.601	915449	REC_START	n/a	n/a	5	-999	n/a	PIG	n/a	n/a	2	[0, 0, 0]	-999	PAL1	0	R1142N
502.048	0.496	919050	REC_EVENT	3601.0	n/a	5	1	SINK	SINK	SPRING	SINK	2	[0, 0, 0]	-999	PAL1	0	R1142N
502.544	0.523	919546	REC_EVENT	4097.0	n/a	5	1	SINK	<>	SPRING	SINK	2	[0, 0, 0]	-999	PAL1	0	R1142N
503.067	0.398	920069	REC_EVENT	4620.0	n/a	5	1	SINK	PIG	SPRING	SINK	2	[0, 0, 0]	-999	PAL1	0	R1142N
503.465	0.016	920467	REC_END	n/a	n/a	5	-999	n/a	n/a	n/a	n/a	2	[0, 0, 0]	-999	PAL1	0	R1142N
503.481	0.275	920483	TEST_ORIENT	n/a	n/a	4	2	WORM	PIG	WORM	PIG	2	[0, 0, 0]	-999	PAL1	0	R1142N
504.515	4.0	921517	TEST_PROBE	n/a	wordpools/wordpool_EN.txt	4	2	WORM	PIG	WORM	PIG	2	[0, 0, 0]	-999	PAL1	0	R1142N
504.516	2.216	921518	REC_START	n/a	n/a	4	-999	n/a	PIG	n/a	n/a	2	[0, 0, 0]	-999	PAL1	0	R1142N
506.732	1.541	923734	REC_EVENT	2216.0	n/a	4	2	WORM	WORM	WORM	PIG	2	[0, 0, 0]	-999	PAL1	0	R1142N
508.273	0.888	925274	REC_EVENT	3757.0	n/a	4	2	WORM	<>	WORM	PIG	2	[0, 0, 0]	-999	PAL1	0	R1142N
509.161	0.379	926162	REC_EVENT	4645.0	n/a	4	2	WORM	PIG	WORM	PIG	2	[0, 0, 0]	-999	PAL1	0	R1142N
509.54	0.009	926541	REC_END	n/a	n/a	4	-999	n/a	n/a	n/a	n/a	2	[0, 0, 0]	-999	PAL1	0	R1142N
509.549	0.275	926550	TEST_ORIENT	n/a	n/a	1	3	FRUIT	ROOF	FRUIT	DUCK	2	[0, 0, 0]	-999	PAL1	0	R1142N
510.565	4.0	927566	TEST_PROBE	n/a	wordpools/wordpool_EN.txt	1	3	FRUIT	ROOF	FRUIT	DUCK	2	[0, 0, 0]	-999	PAL1	0	R1142N
510.566	1.935	927567	REC_START	n/a	n/a	1	-999	n/a	ROOF	n/a	n/a	2	[0, 0, 0]	-999	PAL1	0	R1142N
512.501	0.335	929502	REC_EVENT	1935.0	n/a	1	3	FRUIT	ROOF	FRUIT	DUCK	2	[0, 0, 0]	-999	PAL1	0	R1142N
512.836	2.755	929837	REC_EVENT	2270.0	n/a	1	3	FRUIT	<>	FRUIT	DUCK	2	[0, 0, 0]	-999	PAL1	0	R1142N
515.591	0.009	932592	REC_END	n/a	n/a	1	-999	n/a	n/a	n/a	n/a	2	[0, 0, 0]	-999	PAL1	0	R1142N
515.6	0.275	932601	TEST_ORIENT	n/a	n/a	6	4	ROOF	NET	BROOM	ROOF	2	[0, 0, 0]	-999	PAL1	0	R1142N
516.6	0.0	933601	REC_START	n/a	n/a	6	-999	n/a	NET	n/a	n/a	2	[0, 0, 0]	-999	PAL1	0	R1142N
516.6	4.0	933601	TEST_PROBE	n/a	wordpools/wordpool_EN.txt	6	4	ROOF	NET	BROOM	ROOF	2	[0, 0, 0]	-999	PAL1	0	R1142N
516.863	1.995	933864	REC_EVENT	263.0	n/a	6	4	ROOF	SINK	BROOM	ROOF	2	[0, 0, 0]	-999	PAL1	0	R1142N
518.858	0.534	935859	REC_EVENT	2258.0	n/a	6	4	ROOF	ROOF	BROOM	ROOF	2	[0, 0, 0]	-999	PAL1	0	R1142N
519.392	1.497	936393	REC_EVENT	2792.0	n/a	6	4	ROOF	<>	BROOM	ROOF	2	[0, 0, 0]	-999	PAL1	0	R1142N
520.889	0.728	937890	REC_EVENT	4289.0	n/a	6	4	ROOF	NET	BROOM	ROOF	2	[0, 0, 0]	-999	PAL1	0	R1142N
521.617	0.017	938618	REC_END	n/a	n/a	6	-999	n/a	n/a	n/a	n/a	2	[0, 0, 0]	-999	PAL1	0	R1142N
521.634	0.275	938635	TEST_ORIENT	n/a	n/a	3	5	BAT	HILL	BAT	HILL	2	[0, 0, 0]	-999	PAL1	0	R1142N
522.434	4.0	939435	TEST_PROBE	n/a	wordpools/wordpool_EN.txt	3	5	BAT	HILL	BAT	HILL	2	[0, 0, 0]	-999	PAL1	0	R1142N
522.435	1.105	939436	REC_START	n/a	n/a	3	-999	n/a	HILL	n/a	n/a	2	[0, 0, 0]	-999	PAL1	0	R1142N
523.54	0.305	940541	REC_EVENT	1105.0	n/a	3	5	BAT	BAT	BAT	HILL	2	[0, 0, 0]	-999	PAL1	0	R1142N
523.845	0.248	940846	REC_EVENT	1410.0	n/a	3	5	BAT	<>	BAT	HILL	2	[0, 0, 0]	-999	PAL1	0	R1142N
524.093	3.367	941094	REC_EVENT	1658.0	n/a	3	5	BAT	HILL	BAT	HILL	2	[0, 0, 0]	-999	PAL1	0	R1142N
527.46	0.009	944461	REC_END	n/a	n/a	3	-999	n/a	n/a	n/a	n/a	2	[0, 0, 0]	-999	PAL1	0	R1142N
527.469	0.275	944470	TEST_ORIENT	n/a	n/a	2	6	VINE	ROOT	BOWL	VINE	2	[0, 0, 0]	-999	PAL1	0	R1142N
528.402	4.0	945403	TEST_PROBE	n/a	wordpools/wordpool_EN.txt	2	6	VINE	ROOT	BOWL	VINE	2	[0, 0, 0]	-999	PAL1	0	R1142N
528.403	1.255	945404	REC_START	n/a	n/a	2	-999	n/a	ROOT	n/a	n/a	2	[0, 0, 0]	-999	PAL1	0	R1142N
529.658	0.505	946659	REC_EVENT	1255.0	n/a	2	6	VINE	VINE	BOWL	VINE	2	[0, 0, 0]	-999	PAL1	0	R1142N
530.163	1.651	947164	REC_EVENT	1760.0	n/a	2	6	VINE	<>	BOWL	VINE	2	[0, 0, 0]	-999	PAL1	0	R1142N
531.814	1.614	948815	REC_EVENT	3411.0	n/a	2	6	VINE	ROOT	BOWL	VINE	2	[0, 0, 0]	-999	PAL1	0	R1142N
533.428	20.001	950429	REC_END	n/a	n/a	2	-999	n/a	n/a	n/a	n/a	2	[0, 0, 0]	-999	PAL1	0	R1142N
553.429	10.445	970429	ENCODING_START	n/a	n/a	0	-999	n/a	n/a	n/a	n/a	3	[0, 0, 0]	-999	PAL1	0	R1142N
563.874	0.275	980873	STUDY_ORIENT	n/a	n/a	1	5	CROW	NEST	BOX	CROW	3	[0, 0, 0]	-999	PAL1	0	R1142N
564.875	4.0	981874	STUDY_PAIR	n/a	wordpools/wordpool_EN.txt	1	5	CROW	NEST	BOX	CROW	3	[0, 0, 0]	-999	PAL1	0	R1142N
569.909	0.275	986908	STUDY_ORIENT	n/a	n/a	2	6	BLOOM	BLOOM	BLOOM	SWORD	3	[0, 0, 0]	-999	PAL1	0	R1142N
570.876	4.0	987875	STUDY_PAIR	n/a	wordpools/wordpool_EN.txt	2	6	BLOOM	BLOOM	BLOOM	SWORD	3	[0, 0, 0]	-999	PAL1	0	R1142N
575.911	0.275	992910	STUDY_ORIENT	n/a	n/a	3	1	BALL	n/a	BALL	LAMP	3	[0, 0, 0]	-999	PAL1	0	R1142N
576.728	4.0	993727	STUDY_PAIR	n/a	wordpools/wordpool_EN.txt	3	1	BALL	n/a	BALL	LAMP	3	[0, 0, 0]	-999	PAL1	0	R1142N
581.761	0.275	998760	STUDY_ORIENT	n/a	n/a	4	2	SQUARE	SQUARE	SQUARE	CASH	3	[0, 0, 0]	-999	PAL1	0	R1142N
582.594	4.0	999593	STUDY_PAIR	n/a	wordpools/wordpool_EN.txt	4	2	SQUARE	SQUARE	SQUARE	CASH	3	[0, 0, 0]	-999	PAL1	0	R1142N
587.629	0.275	1004628	STUDY_ORIENT	n/a	n/a	5	3	ROOT	ROOT	ROOT	CHIEF	3	[0, 0, 0]	-999	PAL1	0	R1142N
588.595	4.0	1005594	STUDY_PAIR	n/a	wordpools/wordpool_EN.txt	5	3	ROOT	ROOT	ROOT	CHIEF	3	[0, 0, 0]	-999	PAL1	0	R1142N
593.63	0.275	1010628	STUDY_ORIENT	n/a	n/a	6	4	COW	HEEL	COW	TRASH	3	[0, 0, 0]	-999	PAL1	0	R1142N
594.43	4.0	1011428	STUDY_PAIR	n/a	wordpools/wordpool_EN.txt	6	4	COW	HEEL	COW	TRASH	3	[0, 0, 0]	-999	PAL1	0	R1142N
598.448	0.999	1015446	START	n/a	n/a	-999	-999	n/a	n/a	n/a	n/a	3	[-999, -999, -999]	-999	PAL1	0	R1142N
599.447	0.017	1016445	MATH_START	n/a	n/a	-999	-999	n/a	n/a	n/a	n/a	3	[0, 0, 0]	-999	PAL1	0	R1142N
599.464	8.717	1016462	PROB	8684.0	n/a	-999	-999	n/a	n/a	n/a	n/a	3	[6, 4, 3]	13	PAL1	0	R1142N
608.181	12.392	1025179	PROB	12392.0	n/a	-999	-999	n/a	n/a	n/a	n/a	3	[7, 7, 4]	18	PAL1	0	R1142N
620.573	0.012	1037570	STOP	n/a	n/a	-999	-999	n/a	n/a	n/a	n/a	3	[-999, -999, -999]	-999	PAL1	0	R1142N
620.585	0.0	1037582	MATH_END	n/a	n/a	-999	-999	n/a	n/a	n/a	n/a	3	[0, 0, 0]	-999	PAL1	0	R1142N
620.585	0.016	1037582	TEST_START	n/a	n/a	-999	-999	n/a	n/a	n/a	n/a	3	[0, 0, 0]	-999	PAL1	0	R1142N
620.601	0.275	1037598	TEST_ORIENT	n/a	n/a	3	1	BALL	n/a	BALL	LAMP	3	[0, 0, 0]	-999	PAL1	0	R1142N
621.568	4.0	1038565	TEST_PROBE	n/a	wordpools/wordpool_EN.txt	3	1	BALL	n/a	BALL	LAMP	3	[0, 0, 0]	-999	PAL1	0	R1142N
621.569	5.021	1038566	REC_START	n/a	n/a	3	-999	n/a	n/a	n/a	n/a	3	[0, 0, 0]	-999	PAL1	0	R1142N
626.59	0.004	1043587	REC_EVENT	5021.0	n/a	3	1	BALL	<>	BALL	LAMP	3	[0, 0, 0]	-999	PAL1	0	R1142N
626.594	0.008	1043591	REC_END	n/a	n/a	3	-999	n/a	n/a	n/a	n/a	3	[0, 0, 0]	-999	PAL1	0	R1142N
626.602	0.275	1043599	TEST_ORIENT	n/a	n/a	4	2	SQUARE	SQUARE	SQUARE	CASH	3	[0, 0, 0]	-999	PAL1	0	R1142N
627.619	4.0	1044616	TEST_PROBE	n/a	wordpools/wordpool_EN.txt	4	2	SQUARE	SQUARE	SQUARE	CASH	3	[0, 0, 0]	-999	PAL1	0	R1142N
627.619	4.229	1044616	REC_START	n/a	n/a	4	-999	n/a	SQUARE	n/a	n/a	3	[0, 0, 0]	-999	PAL1	0	R1142N
631.848	0.788	1048845	REC_EVENT	4229.0	n/a	4	2	SQUARE	SQUARE	SQUARE	CASH	3	[0, 0, 0]	-999	PAL1	0	R1142N
632.636	0.017	1049633	REC_END	n/a	n/a	4	-999	n/a	n/a	n/a	n/a	3	[0, 0, 0]	-999	PAL1	0	R1142N
632.653	0.275	1049650	TEST_ORIENT	n/a	n/a	5	3	ROOT	ROOT	ROOT	CHIEF	3	[0, 0, 0]	-999	PAL1	0	R1142N
633.537	4.0	1050534	TEST_PROBE	n/a	wordpools/wordpool_EN.txt	5	3	ROOT	ROOT	ROOT	CHIEF	3	[0, 0, 0]	-999	PAL1	0	R1142N
633.537	1.314	1050534	REC_START	n/a	n/a	5	-999	n/a	ROOT	n/a	n/a	3	[0, 0, 0]	-999	PAL1	0	R1142N
634.851	0.435	1051848	REC_EVENT	1314.0	n/a	5	3	ROOT	ROOT	ROOT	CHIEF	3	[0, 0, 0]	-999	PAL1	0	R1142N
635.286	3.267	1052283	REC_EVENT	1749.0	n/a	5	3	ROOT	<>	ROOT	CHIEF	3	[0, 0, 0]	-999	PAL1	0	R1142N
638.553	0.018	1055550	REC_END	n/a	n/a	5	-999	n/a	n/a	n/a	n/a	3	[0, 0, 0]	-999	PAL1	0	R1142N
638.571	0.275	1055568	TEST_ORIENT	n/a	n/a	6	4	COW	HEEL	COW	TRASH	3	[0, 0, 0]	-999	PAL1	0	R1142N
639.455	4.0	1056452	TEST_PROBE	n/a	wordpools/wordpool_EN.txt	6	4	COW	HEEL	COW	TRASH	3	[0, 0, 0]	-999	PAL1	0	R1142N
639.455	1.213	1056452	REC_START	n/a	n/a	6	-999	n/a	HEEL	n/a	n/a	3	[0, 0, 0]	-999	PAL1	0	R1142N
640.668	0.623	1057665	REC_EVENT	1213.0	n/a	6	4	COW	COW	COW	TRASH	3	[0, 0, 0]	-999	PAL1	0	R1142N
641.291	2.282	1058288	REC_EVENT	1836.0	n/a	6	4	COW	<>	COW	TRASH	3	[0, 0, 0]	-999	PAL1	0	R1142N
643.573	0.898	1060570	REC_EVENT	4118.0	n/a	6	4	COW	HEEL	COW	TRASH	3	[0, 0, 0]	-999	PAL1	0	R1142N
644.471	0.018	1061468	REC_END	n/a	n/a	6	-999	n/a	n/a	n/a	n/a	3	[0, 0, 0]	-999	PAL1	0	R1142N
644.489	0.275	1061486	TEST_ORIENT	n/a	n/a	1	5	CROW	NEST	BOX	CROW	3	[0, 0, 0]	-999	PAL1	0	R1142N
645.372	4.0	1062369	TEST_PROBE	n/a	wordpools/wordpool_EN.txt	1	5	CROW	NEST	BOX	CROW	3	[0, 0, 0]	-999	PAL1	0	R1142N
645.372	1.581	1062369	REC_START	n/a	n/a	1	-999	n/a	NEST	n/a	n/a	3	[0, 0, 0]	-999	PAL1	0	R1142N
646.953	0.414	1063949	REC_EVENT	1581.0	n/a	1	5	CROW	CROW	BOX	CROW	3	[0, 0, 0]	-999	PAL1	0	R1142N
647.367	0.25	1064363	REC_EVENT	1995.0	n/a	1	5	CROW	<>	BOX	CROW	3	[0, 0, 0]	-999	PAL1	0	R1142N
647.617	2.772	1064613	REC_EVENT	2245.0	n/a	1	5	CROW	NEST	BOX	CROW	3	[0, 0, 0]	-999	PAL1	0	R1142N
650.389	0.017	1067385	REC_END	n/a	n/a	1	-999	n/a	n/a	n/a	n/a	3	[0, 0, 0]	-999	PAL1	0	R1142N
650.406	0.275	1067402	TEST_ORIENT	n/a	n/a	2	6	BLOOM	BLOOM	BLOOM	SWORD	3	[0, 0, 0]	-999	PAL1	0	R1142N
651.44	4.0	1068436	TEST_PROBE	n/a	wordpools/wordpool_EN.txt	2	6	BLOOM	BLOOM	BLOOM	SWORD	3	[0, 0, 0]	-999	PAL1	0	R1142N
651.441	1.337	1068437	REC_START	n/a	n/a	2	-999	n/a	BLOOM	n/a	n/a	3	[0, 0, 0]	-999	PAL1	0	R1142N
652.778	0.431	1069774	REC_EVENT	1337.0	n/a	2	6	BLOOM	BLOOM	BLOOM	SWORD	3	[0, 0, 0]	-999	PAL1	0	R1142N
653.209	3.256	1070205	REC_EVENT	1768.0	n/a	2	6	BLOOM	<>	BLOOM	SWORD	3	[0, 0, 0]	-999	PAL1	0	R1142N
656.465	9.795	1073461	REC_END	n/a	n/a	2	-999	n/a	n/a	n/a	n/a	3	[0, 0, 0]	-999	PAL1	0	R1142N
666.26	10.45	1083256	ENCODING_START	n/a	n/a	0	-999	n/a	n/a	n/a	n/a	4	[0, 0, 0]	-999	PAL1	0	R1142N
676.71	0.275	1093705	STUDY_ORIENT	n/a	n/a	1	1	STOOL	n/a	STOOL	PURSE	4	[0, 0, 0]	-999	PAL1	0	R1142N
677.694	4.0	1094689	STUDY_PAIR	n/a	wordpools/wordpool_EN.txt	1	1	STOOL	n/a	STOOL	PURSE	4	[0, 0, 0]	-999	PAL1	0	R1142N
682.729	0.275	1099724	STUDY_ORIENT	n/a	n/a	2	2	FARM	PANTS	GOLD	FARM	4	[0, 0, 0]	-999	PAL1	0	R1142N
683.662	4.0	1100657	STUDY_PAIR	n/a	wordpools/wordpool_EN.txt	2	2	FARM	PANTS	GOLD	FARM	4	[0, 0, 0]	-999	PAL1	0	R1142N
688.696	0.275	1105691	STUDY_ORIENT	n/a	n/a	3	5	CAT	CAT	DRUM	CAT	4	[0, 0, 0]	-999	PAL1	0	R1142N
689.48	4.0	1106475	STUDY_PAIR	n/a	wordpools/wordpool_EN.txt	3	5	CAT	CAT	DRUM	CAT	4	[0, 0, 0]	-999	PAL1	0	R1142N
694.513	0.275	1111508	STUDY_ORIENT	n/a	n/a	4	6	CAPE	CAPE	CAPE	MAP	4	[0, 0, 0]	-999	PAL1	0	R1142N
695.498	4.0	1112493	STUDY_PAIR	n/a	wordpools/wordpool_EN.txt	4	6	CAPE	CAPE	CAPE	MAP	4	[0, 0, 0]	-999	PAL1	0	R1142N
700.531	0.275	1117526	STUDY_ORIENT	n/a	n/a	5	3	PEAR	HAIR	FOOT	PEAR	4	[0, 0, 0]	-999	PAL1	0	R1142N
701.331	4.0	1118325	STUDY_PAIR	n/a	wordpools/wordpool_EN.txt	5	3	PEAR	HAIR	FOOT	PEAR	4	[0, 0, 0]	-999	PAL1	0	R1142N
706.365	0.275	1123359	STUDY_ORIENT	n/a	n/a	6	4	SALT	SALT	PALM	SALT	4	[0, 0, 0]	-999	PAL1	0	R1142N
707.382	4.0	1124376	STUDY_PAIR	n/a	wordpools/wordpool_EN.txt	6	4	SALT	SALT	PALM	SALT	4	[0, 0, 0]	-999	PAL1	0	R1142N
711.401	0.999	1128395	START	n/a	n/a	-999	-999	n/a	n/a	n/a	n/a	4	[-999, -999, -999]	-999	PAL1	0	R1142N
712.4	0.016	1129394	MATH_START	n/a	n/a	-999	-999	n/a	n/a	n/a	n/a	4	[0, 0, 0]	-999	PAL1	0	R1142N
712.416	19.237	1129410	PROB	19237.0	n/a	-999	-999	n/a	n/a	n/a	n/a	4	[4, 3, 6]	17	PAL1	0	R1142N
731.653	0.017	1148646	STOP	n/a	n/a	-999	-999	n/a	n/a	n/a	n/a	4	[-999, -999, -999]	-999	PAL1	0	R1142N
731.67	0.0	1148663	MATH_END	n/a	n/a	-999	-999	n/a	n/a	n/a	n/a	4	[0, 0, 0]	-999	PAL1	0	R1142N
731.67	0.017	1148663	TEST_START	n/a	n/a	-999	-999	n/a	n/a	n/a	n/a	4	[0, 0, 0]	-999	PAL1	0	R1142N
731.687	0.275	1148680	TEST_ORIENT	n/a	n/a	1	1	STOOL	n/a	STOOL	PURSE	4	[0, 0, 0]	-999	PAL1	0	R1142N
732.737	4.0	1149730	TEST_PROBE	n/a	wordpools/wordpool_EN.txt	1	1	STOOL	n/a	STOOL	PURSE	4	[0, 0, 0]	-999	PAL1	0	R1142N
732.737	5.025	1149730	REC_START	n/a	n/a	1	-999	n/a	n/a	n/a	n/a	4	[0, 0, 0]	-999	PAL1	0	R1142N
737.762	0.002	1154755	REC_END	n/a	n/a	1	-999	n/a	n/a	n/a	n/a	4	[0, 0, 0]	-999	PAL1	0	R1142N
737.764	0.006	1154757	REC_EVENT	5027.0	n/a	1	1	STOOL	<>	STOOL	PURSE	4	[0, 0, 0]	-999	PAL1	0	R1142N
737.77	0.275	1154763	TEST_ORIENT	n/a	n/a	2	2	FARM	PANTS	GOLD	FARM	4	[0, 0, 0]	-999	PAL1	0	R1142N
738.671	4.0	1155664	TEST_PROBE	n/a	wordpools/wordpool_EN.txt	2	2	FARM	PANTS	GOLD	FARM	4	[0, 0, 0]	-999	PAL1	0	R1142N
738.671	3.455	1155664	REC_START	n/a	n/a	2	-999	n/a	PANTS	n/a	n/a	4	[0, 0, 0]	-999	PAL1	0	R1142N
742.126	1.562	1159119	REC_EVENT	3455.0	n/a	2	2	FARM	PANTS	GOLD	FARM	4	[0, 0, 0]	-999	PAL1	0	R1142N
743.688	0.017	1160681	REC_END	n/a	n/a	2	-999	n/a	n/a	n/a	n/a	4	[0, 0, 0]	-999	PAL1	0	R1142N
743.705	0.275	1160698	TEST_ORIENT	n/a	n/a	5	3	PEAR	HAIR	FOOT	PEAR	4	[0, 0, 0]	-999	PAL1	0	R1142N
744.705	4.0	1161698	TEST_PROBE	n/a	wordpools/wordpool_EN.txt	5	3	PEAR	HAIR	FOOT	PEAR	4	[0, 0, 0]	-999	PAL1	0	R1142N
744.706	2.887	1161699	REC_START	n/a	n/a	5	-999	n/a	HAIR	n/a	n/a	4	[0, 0, 0]	-999	PAL1	0	R1142N
747.593	1.232	1164586	REC_EVENT	2887.0	n/a	5	3	PEAR	HAIR	FOOT	PEAR	4	[0, 0, 0]	-999	PAL1	0	R1142N
748.825	0.906	1165818	REC_EVENT	4119.0	n/a	5	3	PEAR	<>	FOOT	PEAR	4	[0, 0, 0]	-999	PAL1	0	R1142N
749.731	0.008	1166724	REC_END	n/a	n/a	5	-999	n/a	n/a	n/a	n/a	4	[0, 0, 0]	-999	PAL1	0	R1142N
749.739	0.275	1166732	TEST_ORIENT	n/a	n/a	6	4	SALT	SALT	PALM	SALT	4	[0, 0, 0]	-999	PAL1	0	R1142N
750.64	4.0	1167633	TEST_PROBE	n/a	wordpools/wordpool_EN.txt	6	4	SALT	SALT	PALM	SALT	4	[0, 0, 0]	-999	PAL1	0	R1142N
750.641	3.565	1167634	REC_START	n/a	n/a	6	-999	n/a	SALT	n/a	n/a	4	[0, 0, 0]	-999	PAL1	0	R1142N
754.206	1.459	1171199	REC_EVENT	3565.0	n/a	6	4	SALT	SALT	PALM	SALT	4	[0, 0, 0]	-999	PAL1	0	R1142N
755.665	0.009	1172658	REC_END	n/a	n/a	6	-999	n/a	n/a	n/a	n/a	4	[0, 0, 0]	-999	PAL1	0	R1142N
755.674	0.275	1172667	TEST_ORIENT	n/a	n/a	3	5	CAT	CAT	DRUM	CAT	4	[0, 0, 0]	-999	PAL1	0	R1142N
756.574	4.0	1173566	TEST_PROBE	n/a	wordpools/wordpool_EN.txt	3	5	CAT	CAT	DRUM	CAT	4	[0, 0, 0]	-999	PAL1	0	R1142N
756.575	2.503	1173567	REC_START	n/a	n/a	3	-999	n/a	CAT	n/a	n/a	4	[0, 0, 0]	-999	PAL1	0	R1142N
759.078	2.521	1176070	REC_EVENT	2503.0	n/a	3	5	CAT	CAT	DRUM	CAT	4	[0, 0, 0]	-999	PAL1	0	R1142N
761.599	0.009	1178591	REC_END	n/a	n/a	3	-999	n/a	n/a	n/a	n/a	4	[0, 0, 0]	-999	PAL1	0	R1142N
761.608	0.275	1178600	TEST_ORIENT	n/a	n/a	4	6	CAPE	CAPE	CAPE	MAP	4	[0, 0, 0]	-999	PAL1	0	R1142N
762.508	4.0	1179500	TEST_PROBE	n/a	wordpools/wordpool_EN.txt	4	6	CAPE	CAPE	CAPE	MAP	4	[0, 0, 0]	-999	PAL1	0	R1142N
762.509	1.738	1179501	REC_START	n/a	n/a	4	-999	n/a	CAPE	n/a	n/a	4	[0, 0, 0]	-999	PAL1	0	R1142N
764.247	3.277	1181239	REC_EVENT	1738.0	n/a	4	6	CAPE	CAPE	CAPE	MAP	4	[0, 0, 0]	-999	PAL1	0	R1142N
767.524	0.001	1184516	REC_EVENT	5015.0	n/a	4	6	CAPE	<>	CAPE	MAP	4	[0, 0, 0]	-999	PAL1	0	R1142N
767.525	9.008	1184517	REC_END	n/a	n/a	4	-999	n/a	n/a	n/a	n/a	4	[0, 0, 0]	-999	PAL1	0	R1142N
776.533	10.446	1193525	ENCODING_START	n/a	n/a	0	-999	n/a	n/a	n/a	n/a	5	[0, 0, 0]	-999	PAL1	0	R1142N
786.979	0.275	1203970	STUDY_ORIENT	n/a	n/a	1	5	SCHOOL	n/a	TIE	SCHOOL	5	[0, 0, 0]	-999	PAL1	0	R1142N
787.846	4.0	1204837	STUDY_PAIR	n/a	wordpools/wordpool_EN.txt	1	5	SCHOOL	n/a	TIE	SCHOOL	5	[0, 0, 0]	-999	PAL1	0	R1142N
792.88	0.275	1209871	STUDY_ORIENT	n/a	n/a	2	6	PLANE	SCHOOL	PLANE	TOAD	5	[0, 0, 0]	-999	PAL1	0	R1142N
793.83	4.0	1210821	STUDY_PAIR	n/a	wordpools/wordpool_EN.txt	2	6	PLANE	SCHOOL	PLANE	TOAD	5	[0, 0, 0]	-999	PAL1	0	R1142N
798.864	0.275	1215855	STUDY_ORIENT	n/a	n/a	3	3	TOY	n/a	MULE	TOY	5	[0, 0, 0]	-999	PAL1	0	R1142N
799.682	4.0	1216673	STUDY_PAIR	n/a	wordpools/wordpool_EN.txt	3	3	TOY	n/a	MULE	TOY	5	[0, 0, 0]	-999	PAL1	0	R1142N
804.715	0.275	1221706	STUDY_ORIENT	n/a	n/a	4	4	LIP	n/a	CART	LIP	5	[0, 0, 0]	-999	PAL1	0	R1142N
805.682	4.0	1222673	STUDY_PAIR	n/a	wordpools/wordpool_EN.txt	4	4	LIP	n/a	CART	LIP	5	[0, 0, 0]	-999	PAL1	0	R1142N
810.717	0.275	1227708	STUDY_ORIENT	n/a	n/a	5	1	RAIN	MAN	VASE	RAIN	5	[0, 0, 0]	-999	PAL1	0	R1142N
811.6	4.0	1228591	STUDY_PAIR	n/a	wordpools/wordpool_EN.txt	5	1	RAIN	MAN	VASE	RAIN	5	[0, 0, 0]	-999	PAL1	0	R1142N
816.634	0.275	1233624	STUDY_ORIENT	n/a	n/a	6	2	TOOL	FOX	STEAM	TOOL	5	[0, 0, 0]	-999	PAL1	0	R1142N
817.452	4.0	1234442	STUDY_PAIR	n/a	wordpools/wordpool_EN.txt	6	2	TOOL	FOX	STEAM	TOOL	5	[0, 0, 0]	-999	PAL1	0	R1142N
821.469	1.0	1238459	START	n/a	n/a	-999	-999	n/a	n/a	n/a	n/a	5	[-999, -999, -999]	-999	PAL1	0	R1142N
822.469	0.016	1239459	MATH_START	n/a	n/a	-999	-999	n/a	n/a	n/a	n/a	5	[0, 0, 0]	-999	PAL1	0	R1142N
822.485	13.534	1239475	PROB	13511.0	n/a	-999	-999	n/a	n/a	n/a	n/a	5	[5, 6, 5]	16	PAL1	0	R1142N
836.019	20.882	1253009	PROB	20882.0	n/a	-999	-999	n/a	n/a	n/a	n/a	5	[6, 8, 2]	16	PAL1	0	R1142N
856.901	0.006	1273890	STOP	n/a	n/a	-999	-999	n/a	n/a	n/a	n/a	5	[-999, -999, -999]	-999	PAL1	0	R1142N
856.907	0.0	1273896	MATH_END	n/a	n/a	-999	-999	n/a	n/a	n/a	n/a	5	[0, 0, 0]	-999	PAL1	0	R1142N
856.907	0.017	1273896	TEST_START	n/a	n/a	-999	-999	n/a	n/a	n/a	n/a	5	[0, 0, 0]	-999	PAL1	0	R1142N
856.924	0.275	1273913	TEST_ORIENT	n/a	n/a	5	1	RAIN	MAN	VASE	RAIN	5	[0, 0, 0]	-999	PAL1	0	R1142N
857.908	0.0	1274897	REC_START	n/a	n/a	5	-999	n/a	MAN	n/a	n/a	5	[0, 0, 0]	-999	PAL1	0	R1142N
857.908	4.0	1274897	TEST_PROBE	n/a	wordpools/wordpool_EN.txt	5	1	RAIN	MAN	VASE	RAIN	5	[0, 0, 0]	-999	PAL1	0	R1142N
860.672	2.253	1277661	REC_EVENT	2764.0	n/a	5	1	RAIN	MAN	VASE	RAIN	5	[0, 0, 0]	-999	PAL1	0	R1142N
862.925	0.016	1279914	REC_END	n/a	n/a	5	-999	n/a	n/a	n/a	n/a	5	[0, 0, 0]	-999	PAL1	0	R1142N
862.941	0.275	1279930	TEST_ORIENT	n/a	n/a	6	2	TOOL	FOX	STEAM	TOOL	5	[0, 0, 0]	-999	PAL1	0	R1142N
863.975	4.0	1280964	TEST_PROBE	n/a	wordpools/wordpool_EN.txt	6	2	TOOL	FOX	STEAM	TOOL	5	[0, 0, 0]	-999	PAL1	0	R1142N
863.976	3.547	1280965	REC_START	n/a	n/a	6	-999	n/a	FOX	n/a	n/a	5	[0, 0, 0]	-999	PAL1	0	R1142N
867.523	1.469	1284511	REC_EVENT	3547.0	n/a	6	2	TOOL	FOX	STEAM	TOOL	5	[0, 0, 0]	-999	PAL1	0	R1142N
868.992	0.017	1285980	REC_END	n/a	n/a	6	-999	n/a	n/a	n/a	n/a	5	[0, 0, 0]	-999	PAL1	0	R1142N
869.009	0.275	1285997	TEST_ORIENT	n/a	n/a	3	3	TOY	n/a	MULE	TOY	5	[0, 0, 0]	-999	PAL1	0	R1142N
869.959	0.0	1286947	REC_START	n/a	n/a	3	-999	n/a	n/a	n/a	n/a	5	[0, 0, 0]	-999	PAL1	0	R1142N
869.959	4.0	1286947	TEST_PROBE	n/a	wordpools/wordpool_EN.txt	3	3	TOY	n/a	MULE	TOY	5	[0, 0, 0]	-999	PAL1	0	R1142N
874.974	0.002	1291962	REC_EVENT	5015.0	n/a	3	3	TOY	<>	MULE	TOY	5	[0, 0, 0]	-999	PAL1	0	R1142N
874.976	0.017	1291964	REC_END	n/a	n/a	3	-999	n/a	n/a	n/a	n/a	5	[0, 0, 0]	-999	PAL1	0	R1142N
874.993	0.275	1291981	TEST_ORIENT	n/a	n/a	4	4	LIP	n/a	CART	LIP	5	[0, 0, 0]	-999	PAL1	0	R1142N
875.977	4.0	1292965	TEST_PROBE	n/a	wordpools/wordpool_EN.txt	4	4	LIP	n/a	CART	LIP	5	[0, 0, 0]	-999	PAL1	0	R1142N
875.977	3.653	1292965	REC_START	n/a	n/a	4	-999	n/a	n/a	n/a	n/a	5	[0, 0, 0]	-999	PAL1	0	R1142N
879.63	1.364	1296618	REC_EVENT	3653.0	n/a	4	4	LIP	<>	CART	LIP	5	[0, 0, 0]	-999	PAL1	0	R1142N
880.994	0.017	1297982	REC_END	n/a	n/a	4	-999	n/a	n/a	n/a	n/a	5	[0, 0, 0]	-999	PAL1	0	R1142N
881.011	0.275	1297999	TEST_ORIENT	n/a	n/a	1	5	SCHOOL	n/a	TIE	SCHOOL	5	[0, 0, 0]	-999	PAL1	0	R1142N
881.828	4.0	1298816	TEST_PROBE	n/a	wordpools/wordpool_EN.txt	1	5	SCHOOL	n/a	TIE	SCHOOL	5	[0, 0, 0]	-999	PAL1	0	R1142N
881.829	5.021	1298817	REC_START	n/a	n/a	1	-999	n/a	n/a	n/a	n/a	5	[0, 0, 0]	-999	PAL1	0	R1142N
886.85	0.005	1303838	REC_EVENT	5021.0	n/a	1	5	SCHOOL	<>	TIE	SCHOOL	5	[0, 0, 0]	-999	PAL1	0	R1142N
886.855	0.007	1303843	REC_END	n/a	n/a	1	-999	n/a	n/a	n/a	n/a	5	[0, 0, 0]	-999	PAL1	0	R1142N
886.862	0.275	1303850	TEST_ORIENT	n/a	n/a	2	6	PLANE	SCHOOL	PLANE	TOAD	5	[0, 0, 0]	-999	PAL1	0	R1142N
887.896	4.0	1304884	TEST_PROBE	n/a	wordpools/wordpool_EN.txt	2	6	PLANE	SCHOOL	PLANE	TOAD	5	[0, 0, 0]	-999	PAL1	0	R1142N
887.897	2.349	1304885	REC_START	n/a	n/a	2	-999	n/a	SCHOOL	n/a	n/a	5	[0, 0, 0]	-999	PAL1	0	R1142N
890.246	0.273	1307234	REC_EVENT	2349.0	n/a	2	6	PLANE	<>	PLANE	TOAD	5	[0, 0, 0]	-999	PAL1	0	R1142N
890.519	2.394	1307507	REC_EVENT	2622.0	n/a	2	6	PLANE	SCHOOL	PLANE	TOAD	5	[0, 0, 0]	-999	PAL1	0	R1142N
892.913	6.043	1309901	REC_END	n/a	n/a	2	-999	n/a	n/a	n/a	n/a	5	[0, 0, 0]	-999	PAL1	0	R1142N
898.956	10.444	1315943	ENCODING_START	n/a	n/a	0	-999	n/a	n/a	n/a	n/a	6	[0, 0, 0]	-999	PAL1	0	R1142N
909.4	0.275	1326387	STUDY_ORIENT	n/a	n/a	1	5	HOSE	HOSE	BOARD	HOSE	6	[0, 0, 0]	-999	PAL1	0	R1142N
910.35	4.0	1327337	STUDY_PAIR	n/a	wordpools/wordpool_EN.txt	1	5	HOSE	HOSE	BOARD	HOSE	6	[0, 0, 0]	-999	PAL1	0	R1142N
915.384	0.275	1332371	STUDY_ORIENT	n/a	n/a	2	6	HEART	n/a	HEART	SHEET	6	[0, 0, 0]	-999	PAL1	0	R1142N
916.333	4.0	1333320	STUDY_PAIR	n/a	wordpools/wordpool_EN.txt	2	6	HEART	n/a	HEART	SHEET	6	[0, 0, 0]	-999	PAL1	0	R1142N
921.369	0.275	1338356	STUDY_ORIENT	n/a	n/a	3	3	ZOO	ZOO	COIN	ZOO	6	[0, 0, 0]	-999	PAL1	0	R1142N
922.353	4.0	1339340	STUDY_PAIR	n/a	wordpools/wordpool_EN.txt	3	3	ZOO	ZOO	COIN	ZOO	6	[0, 0, 0]	-999	PAL1	0	R1142N
927.386	0.275	1344372	STUDY_ORIENT	n/a	n/a	4	2	WEED	n/a	GOAT	WEED	6	[0, 0, 0]	-999	PAL1	0	R1142N
928.219	4.0	1345205	STUDY_PAIR	n/a	wordpools/wordpool_EN.txt	4	2	WEED	n/a	GOAT	WEED	6	[0, 0, 0]	-999	PAL1	0	R1142N
933.253	0.275	1350239	STUDY_ORIENT	n/a	n/a	5	1	MAZE	CRANE	SHIP	MAZE	6	[0, 0, 0]	-999	PAL1	0	R1142N
934.27	4.0	1351256	STUDY_PAIR	n/a	wordpools/wordpool_EN.txt	5	1	MAZE	CRANE	SHIP	MAZE	6	[0, 0, 0]	-999	PAL1	0	R1142N
939.304	0.275	1356290	STUDY_ORIENT	n/a	n/a	6	4	FLUTE	MAZE	SHARK	FLUTE	6	[0, 0, 0]	-999	PAL1	0	R1142N
940.271	4.0	1357257	STUDY_PAIR	n/a	wordpools/wordpool_EN.txt	6	4	FLUTE	MAZE	SHARK	FLUTE	6	[0, 0, 0]	-999	PAL1	0	R1142N
944.289	0.999	1361275	START	n/a	n/a	-999	-999	n/a	n/a	n/a	n/a	6	[-999, -999, -999]	-999	PAL1	0	R1142N
945.288	0.017	1362274	MATH_START	n/a	n/a	-999	-999	n/a	n/a	n/a	n/a	6	[0, 0, 0]	-999	PAL1	0	R1142N
945.305	24.643	1362291	PROB	24643.0	n/a	-999	-999	n/a	n/a	n/a	n/a	6	[5, 6, 6]	17	PAL1	0	R1142N
969.948	0.011	1386933	STOP	n/a	n/a	-999	-999	n/a	n/a	n/a	n/a	6	[-999, -999, -999]	-999	PAL1	0	R1142N
969.959	0.0	1386944	MATH_END	n/a	n/a	-999	-999	n/a	n/a	n/a	n/a	6	[0, 0, 0]	-999	PAL1	0	R1142N
969.959	0.017	1386944	TEST_START	n/a	n/a	-999	-999	n/a	n/a	n/a	n/a	6	[0, 0, 0]	-999	PAL1	0	R1142N
969.976	0.275	1386961	TEST_ORIENT	n/a	n/a	5	1	MAZE	CRANE	SHIP	MAZE	6	[0, 0, 0]	-999	PAL1	0	R1142N
970.91	4.0	1387895	TEST_PROBE	n/a	wordpools/wordpool_EN.txt	5	1	MAZE	CRANE	SHIP	MAZE	6	[0, 0, 0]	-999	PAL1	0	R1142N
970.911	4.678	1387896	REC_START	n/a	n/a	5	-999	n/a	CRANE	n/a	n/a	6	[0, 0, 0]	-999	PAL1	0	R1142N
975.589	0.346	1392574	REC_EVENT	4678.0	n/a	5	1	MAZE	CRANE	SHIP	MAZE	6	[0, 0, 0]	-999	PAL1	0	R1142N
975.935	0.008	1392920	REC_END	n/a	n/a	5	-999	n/a	n/a	n/a	n/a	6	[0, 0, 0]	-999	PAL1	0	R1142N
975.943	0.275	1392928	TEST_ORIENT	n/a	n/a	4	2	WEED	n/a	GOAT	WEED	6	[0, 0, 0]	-999	PAL1	0	R1142N
976.861	4.0	1393846	TEST_PROBE	n/a	wordpools/wordpool_EN.txt	4	2	WEED	n/a	GOAT	WEED	6	[0, 0, 0]	-999	PAL1	0	R1142N
976.862	5.015	1393847	REC_START	n/a	n/a	4	-999	n/a	n/a	n/a	n/a	6	[0, 0, 0]	-999	PAL1	0	R1142N
981.877	0.001	1398861	REC_EVENT	5015.0	n/a	4	2	WEED	<>	GOAT	WEED	6	[0, 0, 0]	-999	PAL1	0	R1142N
981.878	0.017	1398862	REC_END	n/a	n/a	4	-999	n/a	n/a	n/a	n/a	6	[0, 0, 0]	-999	PAL1	0	R1142N
981.895	0.275	1398879	TEST_ORIENT	n/a	n/a	3	3	ZOO	ZOO	COIN	ZOO	6	[0, 0, 0]	-999	PAL1	0	R1142N
982.695	4.0	1399679	TEST_PROBE	n/a	wordpools/wordpool_EN.txt	3	3	ZOO	ZOO	COIN	ZOO	6	[0, 0, 0]	-999	PAL1	0	R1142N
982.696	2.631	1399680	REC_START	n/a	n/a	3	-999	n/a	ZOO	n/a	n/a	6	[0, 0, 0]	-999	PAL1	0	R1142N
985.327	0.802	1402311	REC_EVENT	2631.0	n/a	3	3	ZOO	ZOO	COIN	ZOO	6	[0, 0, 0]	-999	PAL1	0	R1142N
986.129	1.592	1403113	REC_EVENT	3433.0	n/a	3	3	ZOO	<>	COIN	ZOO	6	[0, 0, 0]	-999	PAL1	0	R1142N
987.721	0.008	1404705	REC_END	n/a	n/a	3	-999	n/a	n/a	n/a	n/a	6	[0, 0, 0]	-999	PAL1	0	R1142N
987.729	0.275	1404713	TEST_ORIENT	n/a	n/a	6	4	FLUTE	MAZE	SHARK	FLUTE	6	[0, 0, 0]	-999	PAL1	0	R1142N
988.713	4.0	1405697	TEST_PROBE	n/a	wordpools/wordpool_EN.txt	6	4	FLUTE	MAZE	SHARK	FLUTE	6	[0, 0, 0]	-999	PAL1	0	R1142N
988.714	2.468	1405698	REC_START	n/a	n/a	6	-999	n/a	MAZE	n/a	n/a	6	[0, 0, 0]	-999	PAL1	0	R1142N
991.182	2.072	1408166	REC_EVENT	2468.0	n/a	6	4	FLUTE	FLUTE	SHARK	FLUTE	6	[0, 0, 0]	-999	PAL1	0	R1142N
993.254	0.485	1410238	REC_EVENT	4540.0	n/a	6	4	FLUTE	MAZE	SHARK	FLUTE	6	[0, 0, 0]	-999	PAL1	0	R1142N
993.739	0.008	1410723	REC_END	n/a	n/a	6	-999	n/a	n/a	n/a	n/a	6	[0, 0, 0]	-999	PAL1	0	R1142N
993.747	0.275	1410731	TEST_ORIENT	n/a	n/a	1	5	HOSE	HOSE	BOARD	HOSE	6	[0, 0, 0]	-999	PAL1	0	R1142N
994.598	4.0	1411582	TEST_PROBE	n/a	wordpools/wordpool_EN.txt	1	5	HOSE	HOSE	BOARD	HOSE	6	[0, 0, 0]	-999	PAL1	0	R1142N
994.599	3.533	1411583	REC_START	n/a	n/a	1	-999	n/a	HOSE	n/a	n/a	6	[0, 0, 0]	-999	PAL1	0	R1142N
998.132	1.491	1415116	REC_EVENT	3533.0	n/a	1	5	HOSE	HOSE	BOARD	HOSE	6	[0, 0, 0]	-999	PAL1	0	R1142N
999.623	0.009	1416607	REC_END	n/a	n/a	1	-999	n/a	n/a	n/a	n/a	6	[0, 0, 0]	-999	PAL1	0	R1142N
999.632	0.275	1416616	TEST_ORIENT	n/a	n/a	2	6	HEART	n/a	HEART	SHEET	6	[0, 0, 0]	-999	PAL1	0	R1142N
1000.632	4.0	1417616	TEST_PROBE	n/a	wordpools/wordpool_EN.txt	2	6	HEART	n/a	HEART	SHEET	6	[0, 0, 0]	-999	PAL1	0	R1142N
1000.632	5.018	1417616	REC_START	n/a	n/a	2	-999	n/a	n/a	n/a	n/a	6	[0, 0, 0]	-999	PAL1	0	R1142N
1005.65	0.003	1422634	REC_END	n/a	n/a	2	-999	n/a	n/a	n/a	n/a	6	[0, 0, 0]	-999	PAL1	0	R1142N
1005.653	24.679	1422637	REC_EVENT	5021.0	n/a	2	6	HEART	<>	HEART	SHEET	6	[0, 0, 0]	-999	PAL1	0	R1142N
1030.332	10.44	1447315	ENCODING_START	n/a	n/a	0	-999	n/a	n/a	n/a	n/a	7	[0, 0, 0]	-999	PAL1	0	R1142N
1040.772	0.275	1457754	STUDY_ORIENT	n/a	n/a	1	1	MUD	n/a	MUD	PARK	7	[0, 0, 0]	-999	PAL1	0	R1142N
1041.773	4.0	1458755	STUDY_PAIR	n/a	wordpools/wordpool_EN.txt	1	1	MUD	n/a	MUD	PARK	7	[0, 0, 0]	-999	PAL1	0	R1142N
1046.807	0.275	1463789	STUDY_ORIENT	n/a	n/a	2	6	SPONGE	n/a	SPONGE	SNAKE	7	[0, 0, 0]	-999	PAL1	0	R1142N
1047.706	4.0	1464688	STUDY_PAIR	n/a	wordpools/wordpool_EN.txt	2	6	SPONGE	n/a	SPONGE	SNAKE	7	[0, 0, 0]	-999	PAL1	0	R1142N
1052.742	0.275	1469724	STUDY_ORIENT	n/a	n/a	3	5	TRAY	n/a	SHELL	TRAY	7	[0, 0, 0]	-999	PAL1	0	R1142N
1053.641	4.0	1470623	STUDY_PAIR	n/a	wordpools/wordpool_EN.txt	3	5	TRAY	n/a	SHELL	TRAY	7	[0, 0, 0]	-999	PAL1	0	R1142N
1058.675	0.275	1475657	STUDY_ORIENT	n/a	n/a	4	2	MOLE	n/a	MOLE	PEACH	7	[0, 0, 0]	-999	PAL1	0	R1142N
1059.575	4.0	1476557	STUDY_PAIR	n/a	wordpools/wordpool_EN.txt	4	2	MOLE	n/a	MOLE	PEACH	7	[0, 0, 0]	-999	PAL1	0	R1142N
1064.609	0.275	1481590	STUDY_ORIENT	n/a	n/a	5	3	TOOTH	TOOTHPASTE	HOOF	TOOTH	7	[0, 0, 0]	-999	PAL1	0	R1142N
1065.477	4.0	1482458	STUDY_PAIR	n/a	wordpools/wordpool_EN.txt	5	3	TOOTH	TOOTHPASTE	HOOF	TOOTH	7	[0, 0, 0]	-999	PAL1	0	R1142N
1070.51	0.275	1487491	STUDY_ORIENT	n/a	n/a	6	4	PIN	n/a	FLAME	PIN	7	[0, 0, 0]	-999	PAL1	0	R1142N
1071.411	4.0	1488392	STUDY_PAIR	n/a	wordpools/wordpool_EN.txt	6	4	PIN	n/a	FLAME	PIN	7	[0, 0, 0]	-999	PAL1	0	R1142N
1075.429	1.0	1492410	START	n/a	n/a	-999	-999	n/a	n/a	n/a	n/a	7	[-999, -999, -999]	-999	PAL1	0	R1142N
1076.429	0.016	1493410	MATH_START	n/a	n/a	-999	-999	n/a	n/a	n/a	n/a	7	[0, 0, 0]	-999	PAL1	0	R1142N
1076.445	36.743	1493426	PROB	36743.0	n/a	-999	-999	n/a	n/a	n/a	n/a	7	[9, 7, 9]	25	PAL1	0	R1142N
1113.188	0.013	1530168	STOP	n/a	n/a	-999	-999	n/a	n/a	n/a	n/a	7	[-999, -999, -999]	-999	PAL1	0	R1142N
1113.201	0.0	1530181	MATH_END	n/a	n/a	-999	-999	n/a	n/a	n/a	n/a	7	[0, 0, 0]	-999	PAL1	0	R1142N
1113.201	0.016	1530181	TEST_START	n/a	n/a	-999	-999	n/a	n/a	n/a	n/a	7	[0, 0, 0]	-999	PAL1	0	R1142N
1113.217	0.275	1530197	TEST_ORIENT	n/a	n/a	1	1	MUD	n/a	MUD	PARK	7	[0, 0, 0]	-999	PAL1	0	R1142N
1114.101	4.0	1531081	TEST_PROBE	n/a	wordpools/wordpool_EN.txt	1	1	MUD	n/a	MUD	PARK	7	[0, 0, 0]	-999	PAL1	0	R1142N
1114.101	5.015	1531081	REC_START	n/a	n/a	1	-999	n/a	n/a	n/a	n/a	7	[0, 0, 0]	-999	PAL1	0	R1142N
1119.116	0.001	1536095	REC_EVENT	5015.0	n/a	1	1	MUD	<>	MUD	PARK	7	[0, 0, 0]	-999	PAL1	0	R1142N
1119.117	0.017	1536096	REC_END	n/a	n/a	1	-999	n/a	n/a	n/a	n/a	7	[0, 0, 0]	-999	PAL1	0	R1142N
1119.134	0.275	1536113	TEST_ORIENT	n/a	n/a	4	2	MOLE	n/a	MOLE	PEACH	7	[0, 0, 0]	-999	PAL1	0	R1142N
1120.018	4.0	1536997	TEST_PROBE	n/a	wordpools/wordpool_EN.txt	4	2	MOLE	n/a	MOLE	PEACH	7	[0, 0, 0]	-999	PAL1	0	R1142N
1120.019	5.021	1536998	REC_START	n/a	n/a	4	-999	n/a	n/a	n/a	n/a	7	[0, 0, 0]	-999	PAL1	0	R1142N
1125.04	0.004	1542019	REC_EVENT	5021.0	n/a	4	2	MOLE	<>	MOLE	PEACH	7	[0, 0, 0]	-999	PAL1	0	R1142N
1125.044	0.008	1542023	REC_END	n/a	n/a	4	-999	n/a	n/a	n/a	n/a	7	[0, 0, 0]	-999	PAL1	0	R1142N
1125.052	0.275	1542031	TEST_ORIENT	n/a	n/a	5	3	TOOTH	TOOTHPASTE	HOOF	TOOTH	7	[0, 0, 0]	-999	PAL1	0	R1142N
1125.969	4.0	1542948	TEST_PROBE	n/a	wordpools/wordpool_EN.txt	5	3	TOOTH	TOOTHPASTE	HOOF	TOOTH	7	[0, 0, 0]	-999	PAL1	0	R1142N
1125.969	3.55	1542948	REC_START	n/a	n/a	5	-999	n/a	TOOTHPASTE	n/a	n/a	7	[0, 0, 0]	-999	PAL1	0	R1142N
1129.519	1.468	1546498	REC_EVENT	3550.0	n/a	5	3	TOOTH	TOOTHPASTE	HOOF	TOOTH	7	[0, 0, 0]	-999	PAL1	0	R1142N
1130.987	0.016	1547966	REC_END	n/a	n/a	5	-999	n/a	n/a	n/a	n/a	7	[0, 0, 0]	-999	PAL1	0	R1142N
1131.003	0.275	1547982	TEST_ORIENT	n/a	n/a	6	4	PIN	n/a	FLAME	PIN	7	[0, 0, 0]	-999	PAL1	0	R1142N
1131.953	4.0	1548932	TEST_PROBE	n/a	wordpools/wordpool_EN.txt	6	4	PIN	n/a	FLAME	PIN	7	[0, 0, 0]	-999	PAL1	0	R1142N
1131.954	5.015	1548933	REC_START	n/a	n/a	6	-999	n/a	n/a	n/a	n/a	7	[0, 0, 0]	-999	PAL1	0	R1142N
1136.969	0.001	1553948	REC_EVENT	5015.0	n/a	6	4	PIN	<>	FLAME	PIN	7	[0, 0, 0]	-999	PAL1	0	R1142N
1136.97	0.017	1553949	REC_END	n/a	n/a	6	-999	n/a	n/a	n/a	n/a	7	[0, 0, 0]	-999	PAL1	0	R1142N
1136.987	0.275	1553966	TEST_ORIENT	n/a	n/a	3	5	TRAY	n/a	SHELL	TRAY	7	[0, 0, 0]	-999	PAL1	0	R1142N
1137.788	4.0	1554767	TEST_PROBE	n/a	wordpools/wordpool_EN.txt	3	5	TRAY	n/a	SHELL	TRAY	7	[0, 0, 0]	-999	PAL1	0	R1142N
1137.789	5.015	1554768	REC_START	n/a	n/a	3	-999	n/a	n/a	n/a	n/a	7	[0, 0, 0]	-999	PAL1	0	R1142N
1142.804	0.002	1559783	REC_EVENT	5015.0	n/a	3	5	TRAY	<>	SHELL	TRAY	7	[0, 0, 0]	-999	PAL1	0	R1142N
1142.806	0.017	1559785	REC_END	n/a	n/a	3	-999	n/a	n/a	n/a	n/a	7	[0, 0, 0]	-999	PAL1	0	R1142N
1142.823	0.275	1559802	TEST_ORIENT	n/a	n/a	2	6	SPONGE	n/a	SPONGE	SNAKE	7	[0, 0, 0]	-999	PAL1	0	R1142N
1143.773	4.0	1560752	TEST_PROBE	n/a	wordpools/wordpool_EN.txt	2	6	SPONGE	n/a	SPONGE	SNAKE	7	[0, 0, 0]	-999	PAL1	0	R1142N
1143.774	5.021	1560753	REC_START	n/a	n/a	2	-999	n/a	n/a	n/a	n/a	7	[0, 0, 0]	-999	PAL1	0	R1142N
1148.795	0.004	1565773	REC_EVENT	5021.0	n/a	2	6	SPONGE	<>	SPONGE	SNAKE	7	[0, 0, 0]	-999	PAL1	0	R1142N
1148.799	2.99	1565777	REC_END	n/a	n/a	2	-999	n/a	n/a	n/a	n/a	7	[0, 0, 0]	-999	PAL1	0	R1142N
1151.789	10.453	1568767	ENCODING_START	n/a	n/a	0	-999	n/a	n/a	n/a	n/a	8	[0, 0, 0]	-999	PAL1	0	R1142N
1162.242	0.275	1579220	STUDY_ORIENT	n/a	n/a	1	3	RAKE	LEAF	HOUSE	RAKE	8	[0, 0, 0]	-999	PAL1	0	R1142N
1163.126	4.0	1580104	STUDY_PAIR	n/a	wordpools/wordpool_EN.txt	1	3	RAKE	LEAF	HOUSE	RAKE	8	[0, 0, 0]	-999	PAL1	0	R1142N
1168.159	0.275	1585137	STUDY_ORIENT	n/a	n/a	2	4	BRUSH	LEAVES	FUR	BRUSH	8	[0, 0, 0]	-999	PAL1	0	R1142N
1168.943	4.0	1585921	STUDY_PAIR	n/a	wordpools/wordpool_EN.txt	2	4	BRUSH	LEAVES	FUR	BRUSH	8	[0, 0, 0]	-999	PAL1	0	R1142N
1173.977	0.275	1590954	STUDY_ORIENT	n/a	n/a	3	1	SPEAR	n/a	SPEAR	CAKE	8	[0, 0, 0]	-999	PAL1	0	R1142N
1174.944	4.0	1591921	STUDY_PAIR	n/a	wordpools/wordpool_EN.txt	3	1	SPEAR	n/a	SPEAR	CAKE	8	[0, 0, 0]	-999	PAL1	0	R1142N
1179.978	0.275	1596955	STUDY_ORIENT	n/a	n/a	4	6	SEED	OIL	MOTH	SEED	8	[0, 0, 0]	-999	PAL1	0	R1142N
1180.945	4.0	1597922	STUDY_PAIR	n/a	wordpools/wordpool_EN.txt	4	6	SEED	OIL	MOTH	SEED	8	[0, 0, 0]	-999	PAL1	0	R1142N
1185.98	0.275	1602957	STUDY_ORIENT	n/a	n/a	5	5	PIPE	PIPE	HORN	PIPE	8	[0, 0, 0]	-999	PAL1	0	R1142N
1186.963	4.0	1603940	STUDY_PAIR	n/a	wordpools/wordpool_EN.txt	5	5	PIPE	PIPE	HORN	PIPE	8	[0, 0, 0]	-999	PAL1	0	R1142N
1191.997	0.275	1608974	STUDY_ORIENT	n/a	n/a	6	2	BENCH	BENCH	THUMB	BENCH	8	[0, 0, 0]	-999	PAL1	0	R1142N
1192.814	4.0	1609791	STUDY_PAIR	n/a	wordpools/wordpool_EN.txt	6	2	BENCH	BENCH	THUMB	BENCH	8	[0, 0, 0]	-999	PAL1	0	R1142N
1196.833	0.999	1613810	START	n/a	n/a	-999	-999	n/a	n/a	n/a	n/a	8	[-999, -999, -999]	-999	PAL1	0	R1142N
1197.832	0.017	1614809	MATH_START	n/a	n/a	-999	-999	n/a	n/a	n/a	n/a	8	[0, 0, 0]	-999	PAL1	0	R1142N
1197.849	38.403	1614826	PROB	38403.0	n/a	-999	-999	n/a	n/a	n/a	n/a	8	[4, 4, 8]	16	PAL1	0	R1142N
1236.252	0.019	1653227	STOP	n/a	n/a	-999	-999	n/a	n/a	n/a	n/a	8	[-999, -999, -999]	-999	PAL1	0	R1142N
1236.271	0.0	1653246	MATH_END	n/a	n/a	-999	-999	n/a	n/a	n/a	n/a	8	[0, 0, 0]	-999	PAL1	0	R1142N
1236.271	0.016	1653246	TEST_START	n/a	n/a	-999	-999	n/a	n/a	n/a	n/a	8	[0, 0, 0]	-999	PAL1	0	R1142N
1236.287	0.275	1653262	TEST_ORIENT	n/a	n/a	3	1	SPEAR	n/a	SPEAR	CAKE	8	[0, 0, 0]	-999	PAL1	0	R1142N
1237.304	4.0	1654279	TEST_PROBE	n/a	wordpools/wordpool_EN.txt	3	1	SPEAR	n/a	SPEAR	CAKE	8	[0, 0, 0]	-999	PAL1	0	R1142N
1237.305	5.025	1654280	REC_START	n/a	n/a	3	-999	n/a	n/a	n/a	n/a	8	[0, 0, 0]	-999	PAL1	0	R1142N
1242.33	0.002	1659305	REC_END	n/a	n/a	3	-999	n/a	n/a	n/a	n/a	8	[0, 0, 0]	-999	PAL1	0	R1142N
1242.332	0.007	1659307	REC_EVENT	5027.0	n/a	3	1	SPEAR	<>	SPEAR	CAKE	8	[0, 0, 0]	-999	PAL1	0	R1142N
1242.339	0.275	1659314	TEST_ORIENT	n/a	n/a	6	2	BENCH	BENCH	THUMB	BENCH	8	[0, 0, 0]	-999	PAL1	0	R1142N
1243.238	4.0	1660213	TEST_PROBE	n/a	wordpools/wordpool_EN.txt	6	2	BENCH	BENCH	THUMB	BENCH	8	[0, 0, 0]	-999	PAL1	0	R1142N
1243.239	3.86	1660214	REC_START	n/a	n/a	6	-999	n/a	BENCH	n/a	n/a	8	[0, 0, 0]	-999	PAL1	0	R1142N
1247.099	0.58	1664074	REC_EVENT	3860.0	n/a	6	2	BENCH	BENCH	THUMB	BENCH	8	[0, 0, 0]	-999	PAL1	0	R1142N
1247.679	0.585	1664654	REC_EVENT	4440.0	n/a	6	2	BENCH	<>	THUMB	BENCH	8	[0, 0, 0]	-999	PAL1	0	R1142N
1248.264	0.009	1665239	REC_END	n/a	n/a	6	-999	n/a	n/a	n/a	n/a	8	[0, 0, 0]	-999	PAL1	0	R1142N
1248.273	0.275	1665248	TEST_ORIENT	n/a	n/a	1	3	RAKE	LEAF	HOUSE	RAKE	8	[0, 0, 0]	-999	PAL1	0	R1142N
1249.273	4.0	1666248	TEST_PROBE	n/a	wordpools/wordpool_EN.txt	1	3	RAKE	LEAF	HOUSE	RAKE	8	[0, 0, 0]	-999	PAL1	0	R1142N
1249.274	2.303	1666249	REC_START	n/a	n/a	1	-999	n/a	LEAF	n/a	n/a	8	[0, 0, 0]	-999	PAL1	0	R1142N
1251.577	0.834	1668552	REC_EVENT	2303.0	n/a	1	3	RAKE	RAKE	HOUSE	RAKE	8	[0, 0, 0]	-999	PAL1	0	R1142N
1252.411	1.879	1669386	REC_EVENT	3137.0	n/a	1	3	RAKE	LEAF	HOUSE	RAKE	8	[0, 0, 0]	-999	PAL1	0	R1142N
1254.29	0.017	1671265	REC_END	n/a	n/a	1	-999	n/a	n/a	n/a	n/a	8	[0, 0, 0]	-999	PAL1	0	R1142N
1254.307	0.275	1671282	TEST_ORIENT	n/a	n/a	2	4	BRUSH	LEAVES	FUR	BRUSH	8	[0, 0, 0]	-999	PAL1	0	R1142N
1255.324	4.0	1672299	TEST_PROBE	n/a	wordpools/wordpool_EN.txt	2	4	BRUSH	LEAVES	FUR	BRUSH	8	[0, 0, 0]	-999	PAL1	0	R1142N
1255.325	1.62	1672300	REC_START	n/a	n/a	2	-999	n/a	LEAVES	n/a	n/a	8	[0, 0, 0]	-999	PAL1	0	R1142N
1256.945	1.709	1673919	REC_EVENT	1620.0	n/a	2	4	BRUSH	BRUSH	FUR	BRUSH	8	[0, 0, 0]	-999	PAL1	0	R1142N
1258.654	0.484	1675628	REC_EVENT	3329.0	n/a	2	4	BRUSH	<>	FUR	BRUSH	8	[0, 0, 0]	-999	PAL1	0	R1142N
1259.138	1.212	1676112	REC_EVENT	3813.0	n/a	2	4	BRUSH	LEAVES	FUR	BRUSH	8	[0, 0, 0]	-999	PAL1	0	R1142N
1260.35	0.009	1677324	REC_END	n/a	n/a	2	-999	n/a	n/a	n/a	n/a	8	[0, 0, 0]	-999	PAL1	0	R1142N
1260.359	0.275	1677333	TEST_ORIENT	n/a	n/a	5	5	PIPE	PIPE	HORN	PIPE	8	[0, 0, 0]	-999	PAL1	0	R1142N
1261.175	4.0	1678149	TEST_PROBE	n/a	wordpools/wordpool_EN.txt	5	5	PIPE	PIPE	HORN	PIPE	8	[0, 0, 0]	-999	PAL1	0	R1142N
1261.176	2.432	1678150	REC_START	n/a	n/a	5	-999	n/a	PIPE	n/a	n/a	8	[0, 0, 0]	-999	PAL1	0	R1142N
1263.608	0.517	1680582	REC_EVENT	2432.0	n/a	5	5	PIPE	PIPE	HORN	PIPE	8	[0, 0, 0]	-999	PAL1	0	R1142N
1264.125	0.243	1681099	REC_EVENT	2949.0	n/a	5	5	PIPE	<>	HORN	PIPE	8	[0, 0, 0]	-999	PAL1	0	R1142N
1264.368	1.835	1681342	REC_EVENT	3192.0	n/a	5	5	PIPE	<>	HORN	PIPE	8	[0, 0, 0]	-999	PAL1	0	R1142N
1266.203	0.023	1683177	REC_END	n/a	n/a	5	-999	n/a	n/a	n/a	n/a	8	[0, 0, 0]	-999	PAL1	0	R1142N
1266.226	0.275	1683200	TEST_ORIENT	n/a	n/a	4	6	SEED	OIL	MOTH	SEED	8	[0, 0, 0]	-999	PAL1	0	R1142N
1267.093	4.0	1684067	TEST_PROBE	n/a	wordpools/wordpool_EN.txt	4	6	SEED	OIL	MOTH	SEED	8	[0, 0, 0]	-999	PAL1	0	R1142N
1267.093	1.874	1684067	REC_START	n/a	n/a	4	-999	n/a	OIL	n/a	n/a	8	[0, 0, 0]	-999	PAL1	0	R1142N
1268.967	1.393	1685941	REC_EVENT	1874.0	n/a	4	6	SEED	SEED	MOTH	SEED	8	[0, 0, 0]	-999	PAL1	0	R1142N
1270.36	0.318	1687334	REC_EVENT	3267.0	n/a	4	6	SEED	<>	MOTH	SEED	8	[0, 0, 0]	-999	PAL1	0	R1142N
1270.678	1.432	1687652	REC_EVENT	3585.0	n/a	4	6	SEED	OIL	MOTH	SEED	8	[0, 0, 0]	-999	PAL1	0	R1142N
1272.11	2.711	1689084	REC_END	n/a	n/a	4	-999	n/a	n/a	n/a	n/a	8	[0, 0, 0]	-999	PAL1	0	R1142N
1274.821	10.442	1691795	ENCODING_START	n/a	n/a	0	-999	n/a	n/a	n/a	n/a	9	[0, 0, 0]	-999	PAL1	0	R1142N
1285.263	0.275	1702236	STUDY_ORIENT	n/a	n/a	1	5	YARD	SALE	YARD	CAGE	9	[0, 0, 0]	-999	PAL1	0	R1142N
1286.279	4.0	1703252	STUDY_PAIR	n/a	wordpools/wordpool_EN.txt	1	5	YARD	SALE	YARD	CAGE	9	[0, 0, 0]	-999	PAL1	0	R1142N
1291.314	0.275	1708287	STUDY_ORIENT	n/a	n/a	2	2	BEACH	BUTTER	SPARK	BEACH	9	[0, 0, 0]	-999	PAL1	0	R1142N
1292.28	4.0	1709253	STUDY_PAIR	n/a	wordpools/wordpool_EN.txt	2	2	BEACH	BUTTER	SPARK	BEACH	9	[0, 0, 0]	-999	PAL1	0	R1142N
1297.314	0.275	1714287	STUDY_ORIENT	n/a	n/a	3	1	BREAD	n/a	BREAD	PIE	9	[0, 0, 0]	-999	PAL1	0	R1142N
1298.132	4.0	1715105	STUDY_PAIR	n/a	wordpools/wordpool_EN.txt	3	1	BREAD	n/a	BREAD	PIE	9	[0, 0, 0]	-999	PAL1	0	R1142N
1303.166	0.275	1720139	STUDY_ORIENT	n/a	n/a	4	4	TRAIN	TRAIN	TRAIN	ARK	9	[0, 0, 0]	-999	PAL1	0	R1142N
1304.2	4.0	1721173	STUDY_PAIR	n/a	wordpools/wordpool_EN.txt	4	4	TRAIN	TRAIN	TRAIN	ARK	9	[0, 0, 0]	-999	PAL1	0	R1142N
1309.233	0.275	1726206	STUDY_ORIENT	n/a	n/a	5	3	SLEEVE	SLEEVE	PEA	SLEEVE	9	[0, 0, 0]	-999	PAL1	0	R1142N
1310.05	4.0	1727023	STUDY_PAIR	n/a	wordpools/wordpool_EN.txt	5	3	SLEEVE	SLEEVE	PEA	SLEEVE	9	[0, 0, 0]	-999	PAL1	0	R1142N
1315.084	0.275	1732056	STUDY_ORIENT	n/a	n/a	6	6	MAIL	BOX	MAIL	SPOON	9	[0, 0, 0]	-999	PAL1	0	R1142N
1315.869	4.0	1732841	STUDY_PAIR	n/a	wordpools/wordpool_EN.txt	6	6	MAIL	BOX	MAIL	SPOON	9	[0, 0, 0]	-999	PAL1	0	R1142N
1319.887	0.999	1736859	START	n/a	n/a	-999	-999	n/a	n/a	n/a	n/a	9	[-999, -999, -999]	-999	PAL1	0	R1142N
1320.886	0.017	1737858	MATH_START	n/a	n/a	-999	-999	n/a	n/a	n/a	n/a	9	[0, 0, 0]	-999	PAL1	0	R1142N
1320.903	84.213	1737875	PROB	84213.0	n/a	-999	-999	n/a	n/a	n/a	n/a	9	[5, 9, 5]	19	PAL1	0	R1142N
1405.116	0.017	1822085	STOP	n/a	n/a	-999	-999	n/a	n/a	n/a	n/a	9	[-999, -999, -999]	-999	PAL1	0	R1142N
1405.133	0.0	1822102	MATH_END	n/a	n/a	-999	-999	n/a	n/a	n/a	n/a	9	[0, 0, 0]	-999	PAL1	0	R1142N
1405.133	0.017	1822102	TEST_START	n/a	n/a	-999	-999	n/a	n/a	n/a	n/a	9	[0, 0, 0]	-999	PAL1	0	R1142N
1405.15	0.275	1822119	TEST_ORIENT	n/a	n/a	3	1	BREAD	n/a	BREAD	PIE	9	[0, 0, 0]	-999	PAL1	0	R1142N
1405.95	0.0	1822919	REC_START	n/a	n/a	3	-999	n/a	n/a	n/a	n/a	9	[0, 0, 0]	-999	PAL1	0	R1142N
1405.95	4.0	1822919	TEST_PROBE	n/a	wordpools/wordpool_EN.txt	3	1	BREAD	n/a	BREAD	PIE	9	[0, 0, 0]	-999	PAL1	0	R1142N
1407.884	3.083	1824853	REC_EVENT	1934.0	n/a	3	1	BREAD	<>	BREAD	PIE	9	[0, 0, 0]	-999	PAL1	0	R1142N
1410.967	0.017	1827936	REC_END	n/a	n/a	3	-999	n/a	n/a	n/a	n/a	9	[0, 0, 0]	-999	PAL1	0	R1142N
1410.984	0.275	1827953	TEST_ORIENT	n/a	n/a	2	2	BEACH	BUTTER	SPARK	BEACH	9	[0, 0, 0]	-999	PAL1	0	R1142N
1411.902	4.0	1828871	TEST_PROBE	n/a	wordpools/wordpool_EN.txt	2	2	BEACH	BUTTER	SPARK	BEACH	9	[0, 0, 0]	-999	PAL1	0	R1142N
1411.903	3.841	1828872	REC_START	n/a	n/a	2	-999	n/a	BUTTER	n/a	n/a	9	[0, 0, 0]	-999	PAL1	0	R1142N
1415.744	0.527	1832713	REC_EVENT	3841.0	n/a	2	2	BEACH	BEACH	SPARK	BEACH	9	[0, 0, 0]	-999	PAL1	0	R1142N
1416.271	0.655	1833240	REC_EVENT	4368.0	n/a	2	2	BEACH	BUTTER	SPARK	BEACH	9	[0, 0, 0]	-999	PAL1	0	R1142N
1416.926	0.008	1833895	REC_END	n/a	n/a	2	-999	n/a	n/a	n/a	n/a	9	[0, 0, 0]	-999	PAL1	0	R1142N
1416.934	0.275	1833903	TEST_ORIENT	n/a	n/a	5	3	SLEEVE	SLEEVE	PEA	SLEEVE	9	[0, 0, 0]	-999	PAL1	0	R1142N
1417.82	4.0	1834789	TEST_PROBE	n/a	wordpools/wordpool_EN.txt	5	3	SLEEVE	SLEEVE	PEA	SLEEVE	9	[0, 0, 0]	-999	PAL1	0	R1142N
1417.82	1.769	1834789	REC_START	n/a	n/a	5	-999	n/a	SLEEVE	n/a	n/a	9	[0, 0, 0]	-999	PAL1	0	R1142N
1419.589	0.886	1836558	REC_EVENT	1769.0	n/a	5	3	SLEEVE	SLEEVE	PEA	SLEEVE	9	[0, 0, 0]	-999	PAL1	0	R1142N
1420.475	2.362	1837444	REC_EVENT	2655.0	n/a	5	3	SLEEVE	<>	PEA	SLEEVE	9	[0, 0, 0]	-999	PAL1	0	R1142N
1422.837	0.016	1839805	REC_END	n/a	n/a	5	-999	n/a	n/a	n/a	n/a	9	[0, 0, 0]	-999	PAL1	0	R1142N
1422.853	0.275	1839821	TEST_ORIENT	n/a	n/a	4	4	TRAIN	TRAIN	TRAIN	ARK	9	[0, 0, 0]	-999	PAL1	0	R1142N
1423.853	4.0	1840821	TEST_PROBE	n/a	wordpools/wordpool_EN.txt	4	4	TRAIN	TRAIN	TRAIN	ARK	9	[0, 0, 0]	-999	PAL1	0	R1142N
1423.854	2.233	1840822	REC_START	n/a	n/a	4	-999	n/a	TRAIN	n/a	n/a	9	[0, 0, 0]	-999	PAL1	0	R1142N
1426.087	0.641	1843055	REC_EVENT	2233.0	n/a	4	4	TRAIN	TRAIN	TRAIN	ARK	9	[0, 0, 0]	-999	PAL1	0	R1142N
1426.728	2.151	1843696	REC_EVENT	2874.0	n/a	4	4	TRAIN	<>	TRAIN	ARK	9	[0, 0, 0]	-999	PAL1	0	R1142N
1428.879	0.009	1845847	REC_END	n/a	n/a	4	-999	n/a	n/a	n/a	n/a	9	[0, 0, 0]	-999	PAL1	0	R1142N
1428.888	0.275	1845856	TEST_ORIENT	n/a	n/a	1	5	YARD	SALE	YARD	CAGE	9	[0, 0, 0]	-999	PAL1	0	R1142N
1429.888	4.0	1846856	TEST_PROBE	n/a	wordpools/wordpool_EN.txt	1	5	YARD	SALE	YARD	CAGE	9	[0, 0, 0]	-999	PAL1	0	R1142N
1429.888	1.786	1846856	REC_START	n/a	n/a	1	-999	n/a	SALE	n/a	n/a	9	[0, 0, 0]	-999	PAL1	0	R1142N
1431.674	0.334	1848642	REC_EVENT	1786.0	n/a	1	5	YARD	YARD	YARD	CAGE	9	[0, 0, 0]	-999	PAL1	0	R1142N
1432.008	0.233	1848976	REC_EVENT	2120.0	n/a	1	5	YARD	<>	YARD	CAGE	9	[0, 0, 0]	-999	PAL1	0	R1142N
1432.241	2.664	1849209	REC_EVENT	2353.0	n/a	1	5	YARD	SALE	YARD	CAGE	9	[0, 0, 0]	-999	PAL1	0	R1142N
1434.905	0.017	1851873	REC_END	n/a	n/a	1	-999	n/a	n/a	n/a	n/a	9	[0, 0, 0]	-999	PAL1	0	R1142N
1434.922	0.275	1851890	TEST_ORIENT	n/a	n/a	6	6	MAIL	BOX	MAIL	SPOON	9	[0, 0, 0]	-999	PAL1	0	R1142N
1435.955	4.0	1852923	TEST_PROBE	n/a	wordpools/wordpool_EN.txt	6	6	MAIL	BOX	MAIL	SPOON	9	[0, 0, 0]	-999	PAL1	0	R1142N
1435.956	1.554	1852924	REC_START	n/a	n/a	6	-999	n/a	BOX	n/a	n/a	9	[0, 0, 0]	-999	PAL1	0	R1142N
1437.51	0.607	1854478	REC_EVENT	1554.0	n/a	6	6	MAIL	MAIL	MAIL	SPOON	9	[0, 0, 0]	-999	PAL1	0	R1142N
1438.117	0.277	1855085	REC_EVENT	2161.0	n/a	6	6	MAIL	<>	MAIL	SPOON	9	[0, 0, 0]	-999	PAL1	0	R1142N
1438.394	2.586	1855362	REC_EVENT	2438.0	n/a	6	6	MAIL	BOX	MAIL	SPOON	9	[0, 0, 0]	-999	PAL1	0	R1142N
1440.98	128.913	1857948	REC_END	n/a	n/a	6	-999	n/a	n/a	n/a	n/a	9	[0, 0, 0]	-999	PAL1	0	R1142N
1569.893	10.454	1986856	ENCODING_START	n/a	n/a	0	-999	n/a	n/a	n/a	n/a	10	[0, 0, 0]	-999	PAL1	0	R1142N
1580.347	0.275	1997310	STUDY_ORIENT	n/a	n/a	1	3	CANE	CANE	CANE	TRUCK	10	[0, 0, 0]	-999	PAL1	0	R1142N
1581.196	4.0	1998159	STUDY_PAIR	n/a	wordpools/wordpool_EN.txt	1	3	CANE	CANE	CANE	TRUCK	10	[0, 0, 0]	-999	PAL1	0	R1142N
1586.23	0.275	2003193	STUDY_ORIENT	n/a	n/a	2	2	WHEEL	WHEEL	RICE	WHEEL	10	[0, 0, 0]	-999	PAL1	0	R1142N
1587.063	4.0	2004026	STUDY_PAIR	n/a	wordpools/wordpool_EN.txt	2	2	WHEEL	WHEEL	RICE	WHEEL	10	[0, 0, 0]	-999	PAL1	0	R1142N
1592.098	0.275	2009060	STUDY_ORIENT	n/a	n/a	3	5	SOCK	BOY	BOY	SOCK	10	[0, 0, 0]	-999	PAL1	0	R1142N
1592.998	4.0	2009960	STUDY_PAIR	n/a	wordpools/wordpool_EN.txt	3	5	SOCK	BOY	BOY	SOCK	10	[0, 0, 0]	-999	PAL1	0	R1142N
1598.032	0.275	2014994	STUDY_ORIENT	n/a	n/a	4	6	FAN	n/a	MILK	FAN	10	[0, 0, 0]	-999	PAL1	0	R1142N
1599.016	4.0	2015978	STUDY_PAIR	n/a	wordpools/wordpool_EN.txt	4	6	FAN	n/a	MILK	FAN	10	[0, 0, 0]	-999	PAL1	0	R1142N
1604.051	0.275	2021013	STUDY_ORIENT	n/a	n/a	5	1	FLAG	FLAG	DRESS	FLAG	10	[0, 0, 0]	-999	PAL1	0	R1142N
1605.066	4.0	2022028	STUDY_PAIR	n/a	wordpools/wordpool_EN.txt	5	1	FLAG	FLAG	DRESS	FLAG	10	[0, 0, 0]	-999	PAL1	0	R1142N
1610.101	0.275	2027063	STUDY_ORIENT	n/a	n/a	6	4	JAIL	MATE	JAIL	BOMB	10	[0, 0, 0]	-999	PAL1	0	R1142N
1610.951	4.0	2027913	STUDY_PAIR	n/a	wordpools/wordpool_EN.txt	6	4	JAIL	MATE	JAIL	BOMB	10	[0, 0, 0]	-999	PAL1	0	R1142N
1614.968	1.0	2031930	START	n/a	n/a	-999	-999	n/a	n/a	n/a	n/a	10	[-999, -999, -999]	-999	PAL1	0	R1142N
1615.968	0.018	2032929	MATH_START	n/a	n/a	-999	-999	n/a	n/a	n/a	n/a	10	[0, 0, 0]	-999	PAL1	0	R1142N
1615.986	23.499	2032947	PROB	23499.0	n/a	-999	-999	n/a	n/a	n/a	n/a	10	[6, 1, 7]	14	PAL1	0	R1142N
1639.485	0.021	2056446	STOP	n/a	n/a	-999	-999	n/a	n/a	n/a	n/a	10	[-999, -999, -999]	-999	PAL1	0	R1142N
1639.506	0.0	2056467	MATH_END	n/a	n/a	-999	-999	n/a	n/a	n/a	n/a	10	[0, 0, 0]	-999	PAL1	0	R1142N
1639.506	0.017	2056467	TEST_START	n/a	n/a	-999	-999	n/a	n/a	n/a	n/a	10	[0, 0, 0]	-999	PAL1	0	R1142N
1639.523	0.275	2056484	TEST_ORIENT	n/a	n/a	5	1	FLAG	FLAG	DRESS	FLAG	10	[0, 0, 0]	-999	PAL1	0	R1142N
1640.54	4.0	2057501	TEST_PROBE	n/a	wordpools/wordpool_EN.txt	5	1	FLAG	FLAG	DRESS	FLAG	10	[0, 0, 0]	-999	PAL1	0	R1142N
1640.541	3.313	2057502	REC_START	n/a	n/a	5	-999	n/a	FLAG	n/a	n/a	10	[0, 0, 0]	-999	PAL1	0	R1142N
1643.854	0.277	2060814	REC_EVENT	3313.0	n/a	5	1	FLAG	FLAG	DRESS	FLAG	10	[0, 0, 0]	-999	PAL1	0	R1142N
1644.131	1.426	2061091	REC_EVENT	3590.0	n/a	5	1	FLAG	<>	DRESS	FLAG	10	[0, 0, 0]	-999	PAL1	0	R1142N
1645.557	0.018	2062517	REC_END	n/a	n/a	5	-999	n/a	n/a	n/a	n/a	10	[0, 0, 0]	-999	PAL1	0	R1142N
1645.575	0.275	2062535	TEST_ORIENT	n/a	n/a	2	2	WHEEL	WHEEL	RICE	WHEEL	10	[0, 0, 0]	-999	PAL1	0	R1142N
1646.608	4.0	2063568	TEST_PROBE	n/a	wordpools/wordpool_EN.txt	2	2	WHEEL	WHEEL	RICE	WHEEL	10	[0, 0, 0]	-999	PAL1	0	R1142N
1646.609	2.013	2063569	REC_START	n/a	n/a	2	-999	n/a	WHEEL	n/a	n/a	10	[0, 0, 0]	-999	PAL1	0	R1142N
1648.622	0.636	2065582	REC_EVENT	2013.0	n/a	2	2	WHEEL	WHEEL	RICE	WHEEL	10	[0, 0, 0]	-999	PAL1	0	R1142N
1649.258	2.375	2066218	REC_EVENT	2649.0	n/a	2	2	WHEEL	<>	RICE	WHEEL	10	[0, 0, 0]	-999	PAL1	0	R1142N
1651.633	0.009	2068593	REC_END	n/a	n/a	2	-999	n/a	n/a	n/a	n/a	10	[0, 0, 0]	-999	PAL1	0	R1142N
1651.642	0.275	2068602	TEST_ORIENT	n/a	n/a	1	3	CANE	CANE	CANE	TRUCK	10	[0, 0, 0]	-999	PAL1	0	R1142N
1652.626	4.0	2069586	TEST_PROBE	n/a	wordpools/wordpool_EN.txt	1	3	CANE	CANE	CANE	TRUCK	10	[0, 0, 0]	-999	PAL1	0	R1142N
1652.626	0.0	2069586	REC_START	n/a	n/a	1	-999	n/a	CANE	n/a	n/a	10	[0, 0, 0]	-999	PAL1	0	R1142N
1652.626	2.625	2069586	REC_EVENT	0.0	n/a	1	3	CANE	<>	CANE	TRUCK	10	[0, 0, 0]	-999	PAL1	0	R1142N
1655.251	0.747	2072211	REC_EVENT	2625.0	n/a	1	3	CANE	CANE	CANE	TRUCK	10	[0, 0, 0]	-999	PAL1	0	R1142N
1655.998	1.645	2072958	REC_EVENT	3372.0	n/a	1	3	CANE	<>	CANE	TRUCK	10	[0, 0, 0]	-999	PAL1	0	R1142N
1657.643	0.017	2074603	REC_END	n/a	n/a	1	-999	n/a	n/a	n/a	n/a	10	[0, 0, 0]	-999	PAL1	0	R1142N
1657.66	0.275	2074620	TEST_ORIENT	n/a	n/a	6	4	JAIL	MATE	JAIL	BOMB	10	[0, 0, 0]	-999	PAL1	0	R1142N
1658.677	4.0	2075637	TEST_PROBE	n/a	wordpools/wordpool_EN.txt	6	4	JAIL	MATE	JAIL	BOMB	10	[0, 0, 0]	-999	PAL1	0	R1142N
1658.677	0.0	2075637	REC_START	n/a	n/a	6	-999	n/a	MATE	n/a	n/a	10	[0, 0, 0]	-999	PAL1	0	R1142N
1658.677	1.817	2075637	REC_EVENT	0.0	n/a	6	4	JAIL	<>	JAIL	BOMB	10	[0, 0, 0]	-999	PAL1	0	R1142N
1660.494	0.482	2077454	REC_EVENT	1817.0	n/a	6	4	JAIL	JAIL	JAIL	BOMB	10	[0, 0, 0]	-999	PAL1	0	R1142N
1660.976	0.294	2077936	REC_EVENT	2299.0	n/a	6	4	JAIL	<>	JAIL	BOMB	10	[0, 0, 0]	-999	PAL1	0	R1142N
1661.27	2.424	2078230	REC_EVENT	2593.0	n/a	6	4	JAIL	MATE	JAIL	BOMB	10	[0, 0, 0]	-999	PAL1	0	R1142N
1663.694	0.017	2080654	REC_END	n/a	n/a	6	-999	n/a	n/a	n/a	n/a	10	[0, 0, 0]	-999	PAL1	0	R1142N
1663.711	0.275	2080671	TEST_ORIENT	n/a	n/a	3	5	SOCK	BOY	BOY	SOCK	10	[0, 0, 0]	-999	PAL1	0	R1142N
1664.628	4.0	2081588	TEST_PROBE	n/a	wordpools/wordpool_EN.txt	3	5	SOCK	BOY	BOY	SOCK	10	[0, 0, 0]	-999	PAL1	0	R1142N
1664.628	1.896	2081588	REC_START	n/a	n/a	3	-999	n/a	BOY	n/a	n/a	10	[0, 0, 0]	-999	PAL1	0	R1142N
1666.524	0.614	2083484	REC_EVENT	1896.0	n/a	3	5	SOCK	SOCK	BOY	SOCK	10	[0, 0, 0]	-999	PAL1	0	R1142N
1667.138	0.258	2084098	REC_EVENT	2510.0	n/a	3	5	SOCK	<>	BOY	SOCK	10	[0, 0, 0]	-999	PAL1	0	R1142N
1667.396	2.249	2084356	REC_EVENT	2768.0	n/a	3	5	SOCK	BOY	BOY	SOCK	10	[0, 0, 0]	-999	PAL1	0	R1142N
1669.645	0.017	2086605	REC_END	n/a	n/a	3	-999	n/a	n/a	n/a	n/a	10	[0, 0, 0]	-999	PAL1	0	R1142N
1669.662	0.275	2086622	TEST_ORIENT	n/a	n/a	4	6	FAN	n/a	MILK	FAN	10	[0, 0, 0]	-999	PAL1	0	R1142N
1670.596	0.0	2087556	REC_START	n/a	n/a	4	-999	n/a	n/a	n/a	n/a	10	[0, 0, 0]	-999	PAL1	0	R1142N
1670.596	4.0	2087556	TEST_PROBE	n/a	wordpools/wordpool_EN.txt	4	6	FAN	n/a	MILK	FAN	10	[0, 0, 0]	-999	PAL1	0	R1142N
1675.611	0.002	2092570	REC_EVENT	5015.0	n/a	4	6	FAN	<>	MILK	FAN	10	[0, 0, 0]	-999	PAL1	0	R1142N
1675.613	8.128	2092572	REC_END	n/a	n/a	4	-999	n/a	n/a	n/a	n/a	10	[0, 0, 0]	-999	PAL1	0	R1142N
1683.741	10.441	2100700	ENCODING_START	n/a	n/a	0	-999	n/a	n/a	n/a	n/a	11	[0, 0, 0]	-999	PAL1	0	R1142N
1694.182	0.275	2111141	STUDY_ORIENT	n/a	n/a	1	5	ROPE	ROPE	ROPE	FOAM	11	[0, 0, 0]	-999	PAL1	0	R1142N
1695.198	4.0	2112157	STUDY_PAIR	n/a	wordpools/wordpool_EN.txt	1	5	ROPE	ROPE	ROPE	FOAM	11	[0, 0, 0]	-999	PAL1	0	R1142N
1700.233	0.275	2117191	STUDY_ORIENT	n/a	n/a	2	4	ELF	ELF	ELF	WORLD	11	[0, 0, 0]	-999	PAL1	0	R1142N
1701.116	4.0	2118074	STUDY_PAIR	n/a	wordpools/wordpool_EN.txt	2	4	ELF	ELF	ELF	WORLD	11	[0, 0, 0]	-999	PAL1	0	R1142N
1706.15	0.275	2123108	STUDY_ORIENT	n/a	n/a	3	1	MOUTH	WATCH	MOUTH	SEAT	11	[0, 0, 0]	-999	PAL1	0	R1142N
1707.05	4.0	2124008	STUDY_PAIR	n/a	wordpools/wordpool_EN.txt	3	1	MOUTH	WATCH	MOUTH	SEAT	11	[0, 0, 0]	-999	PAL1	0	R1142N
1712.084	0.275	2129042	STUDY_ORIENT	n/a	n/a	4	6	GEESE	SMILE	GEESE	JEEP	11	[0, 0, 0]	-999	PAL1	0	R1142N
1712.935	4.0	2129893	STUDY_PAIR	n/a	wordpools/wordpool_EN.txt	4	6	GEESE	SMILE	GEESE	JEEP	11	[0, 0, 0]	-999	PAL1	0	R1142N
1717.969	0.275	2134927	STUDY_ORIENT	n/a	n/a	5	3	RUG	n/a	RUG	BEAR	11	[0, 0, 0]	-999	PAL1	0	R1142N
1718.986	4.0	2135944	STUDY_PAIR	n/a	wordpools/wordpool_EN.txt	5	3	RUG	n/a	RUG	BEAR	11	[0, 0, 0]	-999	PAL1	0	R1142N
1724.02	0.275	2140978	STUDY_ORIENT	n/a	n/a	6	2	FOOD	n/a	STOVE	FOOD	11	[0, 0, 0]	-999	PAL1	0	R1142N
1724.855	4.0	2141813	STUDY_PAIR	n/a	wordpools/wordpool_EN.txt	6	2	FOOD	n/a	STOVE	FOOD	11	[0, 0, 0]	-999	PAL1	0	R1142N
1728.872	1.0	2145829	START	n/a	n/a	-999	-999	n/a	n/a	n/a	n/a	11	[-999, -999, -999]	-999	PAL1	0	R1142N
1729.872	0.017	2146829	MATH_START	n/a	n/a	-999	-999	n/a	n/a	n/a	n/a	11	[0, 0, 0]	-999	PAL1	0	R1142N
1729.889	34.147	2146846	PROB	34147.0	n/a	-999	-999	n/a	n/a	n/a	n/a	11	[6, 6, 1]	13	PAL1	0	R1142N
1764.036	0.007	2180992	STOP	n/a	n/a	-999	-999	n/a	n/a	n/a	n/a	11	[-999, -999, -999]	-999	PAL1	0	R1142N
1764.043	0.0	2180999	MATH_END	n/a	n/a	-999	-999	n/a	n/a	n/a	n/a	11	[0, 0, 0]	-999	PAL1	0	R1142N
1764.043	0.017	2180999	TEST_START	n/a	n/a	-999	-999	n/a	n/a	n/a	n/a	11	[0, 0, 0]	-999	PAL1	0	R1142N
1764.06	0.275	2181016	TEST_ORIENT	n/a	n/a	3	1	MOUTH	WATCH	MOUTH	SEAT	11	[0, 0, 0]	-999	PAL1	0	R1142N
1764.911	4.0	2181867	TEST_PROBE	n/a	wordpools/wordpool_EN.txt	3	1	MOUTH	WATCH	MOUTH	SEAT	11	[0, 0, 0]	-999	PAL1	0	R1142N
1764.913	2.684	2181869	REC_START	n/a	n/a	3	-999	n/a	WATCH	n/a	n/a	11	[0, 0, 0]	-999	PAL1	0	R1142N
1767.597	2.337	2184553	REC_EVENT	2684.0	n/a	3	1	MOUTH	WATCH	MOUTH	SEAT	11	[0, 0, 0]	-999	PAL1	0	R1142N
1769.934	0.002	2186890	REC_EVENT	5021.0	n/a	3	1	MOUTH	<>	MOUTH	SEAT	11	[0, 0, 0]	-999	PAL1	0	R1142N
1769.936	0.008	2186892	REC_END	n/a	n/a	3	-999	n/a	n/a	n/a	n/a	11	[0, 0, 0]	-999	PAL1	0	R1142N
1769.944	0.275	2186900	TEST_ORIENT	n/a	n/a	6	2	FOOD	n/a	STOVE	FOOD	11	[0, 0, 0]	-999	PAL1	0	R1142N
1770.928	4.0	2187884	TEST_PROBE	n/a	wordpools/wordpool_EN.txt	6	2	FOOD	n/a	STOVE	FOOD	11	[0, 0, 0]	-999	PAL1	0	R1142N
1770.928	3.941	2187884	REC_START	n/a	n/a	6	-999	n/a	n/a	n/a	n/a	11	[0, 0, 0]	-999	PAL1	0	R1142N
1774.869	1.076	2191825	REC_EVENT	3941.0	n/a	6	2	FOOD	<>	STOVE	FOOD	11	[0, 0, 0]	-999	PAL1	0	R1142N
1775.945	0.017	2192901	REC_END	n/a	n/a	6	-999	n/a	n/a	n/a	n/a	11	[0, 0, 0]	-999	PAL1	0	R1142N
1775.962	0.275	2192918	TEST_ORIENT	n/a	n/a	5	3	RUG	n/a	RUG	BEAR	11	[0, 0, 0]	-999	PAL1	0	R1142N
1776.78	4.0	2193736	TEST_PROBE	n/a	wordpools/wordpool_EN.txt	5	3	RUG	n/a	RUG	BEAR	11	[0, 0, 0]	-999	PAL1	0	R1142N
1776.781	5.024	2193737	REC_START	n/a	n/a	5	-999	n/a	n/a	n/a	n/a	11	[0, 0, 0]	-999	PAL1	0	R1142N
1781.805	0.003	2198761	REC_END	n/a	n/a	5	-999	n/a	n/a	n/a	n/a	11	[0, 0, 0]	-999	PAL1	0	R1142N
1781.808	0.006	2198764	REC_EVENT	5027.0	n/a	5	3	RUG	<>	RUG	BEAR	11	[0, 0, 0]	-999	PAL1	0	R1142N
1781.814	0.275	2198770	TEST_ORIENT	n/a	n/a	2	4	ELF	ELF	ELF	WORLD	11	[0, 0, 0]	-999	PAL1	0	R1142N
1782.831	0.0	2199786	REC_START	n/a	n/a	2	-999	n/a	ELF	n/a	n/a	11	[0, 0, 0]	-999	PAL1	0	R1142N
1782.831	4.0	2199786	TEST_PROBE	n/a	wordpools/wordpool_EN.txt	2	4	ELF	ELF	ELF	WORLD	11	[0, 0, 0]	-999	PAL1	0	R1142N
1784.833	0.392	2201788	REC_EVENT	2002.0	n/a	2	4	ELF	ELF	ELF	WORLD	11	[0, 0, 0]	-999	PAL1	0	R1142N
1785.225	2.624	2202180	REC_EVENT	2394.0	n/a	2	4	ELF	<>	ELF	WORLD	11	[0, 0, 0]	-999	PAL1	0	R1142N
1787.849	0.016	2204804	REC_END	n/a	n/a	2	-999	n/a	n/a	n/a	n/a	11	[0, 0, 0]	-999	PAL1	0	R1142N
1787.865	0.275	2204820	TEST_ORIENT	n/a	n/a	1	5	ROPE	ROPE	ROPE	FOAM	11	[0, 0, 0]	-999	PAL1	0	R1142N
1788.765	4.0	2205720	TEST_PROBE	n/a	wordpools/wordpool_EN.txt	1	5	ROPE	ROPE	ROPE	FOAM	11	[0, 0, 0]	-999	PAL1	0	R1142N
1788.766	3.214	2205721	REC_START	n/a	n/a	1	-999	n/a	ROPE	n/a	n/a	11	[0, 0, 0]	-999	PAL1	0	R1142N
1791.98	0.454	2208935	REC_EVENT	3214.0	n/a	1	5	ROPE	ROPE	ROPE	FOAM	11	[0, 0, 0]	-999	PAL1	0	R1142N
1792.434	1.357	2209389	REC_EVENT	3668.0	n/a	1	5	ROPE	<>	ROPE	FOAM	11	[0, 0, 0]	-999	PAL1	0	R1142N
1793.791	0.008	2210746	REC_END	n/a	n/a	1	-999	n/a	n/a	n/a	n/a	11	[0, 0, 0]	-999	PAL1	0	R1142N
1793.799	0.275	2210754	TEST_ORIENT	n/a	n/a	4	6	GEESE	SMILE	GEESE	JEEP	11	[0, 0, 0]	-999	PAL1	0	R1142N
1794.833	0.0	2211788	REC_START	n/a	n/a	4	-999	n/a	SMILE	n/a	n/a	11	[0, 0, 0]	-999	PAL1	0	R1142N
1794.833	4.0	2211788	TEST_PROBE	n/a	wordpools/wordpool_EN.txt	4	6	GEESE	SMILE	GEESE	JEEP	11	[0, 0, 0]	-999	PAL1	0	R1142N
1795.356	4.492	2212311	REC_EVENT	523.0	n/a	4	6	GEESE	SMILE	GEESE	JEEP	11	[0, 0, 0]	-999	PAL1	0	R1142N
1799.848	0.002	2216803	REC_EVENT	5015.0	n/a	4	6	GEESE	<>	GEESE	JEEP	11	[0, 0, 0]	-999	PAL1	0	R1142N
1799.85	57.859	2216805	REC_END	n/a	n/a	4	-999	n/a	n/a	n/a	n/a	11	[0, 0, 0]	-999	PAL1	0	R1142N
1857.709	10.452	2274662	ENCODING_START	n/a	n/a	0	-999	n/a	n/a	n/a	n/a	12	[0, 0, 0]	-999	PAL1	0	R1142N
1868.161	0.275	2285113	STUDY_ORIENT	n/a	n/a	1	5	TOE	n/a	DOOR	TOE	12	[0, 0, 0]	-999	PAL1	0	R1142N
1869.012	4.0	2285964	STUDY_PAIR	n/a	wordpools/wordpool_EN.txt	1	5	TOE	n/a	DOOR	TOE	12	[0, 0, 0]	-999	PAL1	0	R1142N
1874.046	0.275	2290998	STUDY_ORIENT	n/a	n/a	2	4	BED	n/a	BED	FACE	12	[0, 0, 0]	-999	PAL1	0	R1142N
1875.046	4.0	2291998	STUDY_PAIR	n/a	wordpools/wordpool_EN.txt	2	4	BED	n/a	BED	FACE	12	[0, 0, 0]	-999	PAL1	0	R1142N
1880.08	0.275	2297032	STUDY_ORIENT	n/a	n/a	3	1	CLOWN	n/a	CLOWN	MOUSE	12	[0, 0, 0]	-999	PAL1	0	R1142N
1880.881	4.0	2297833	STUDY_PAIR	n/a	wordpools/wordpool_EN.txt	3	1	CLOWN	n/a	CLOWN	MOUSE	12	[0, 0, 0]	-999	PAL1	0	R1142N
1885.915	0.275	2302867	STUDY_ORIENT	n/a	n/a	4	6	HAT	LAWN	HAT	LAWN	12	[0, 0, 0]	-999	PAL1	0	R1142N
1886.766	4.0	2303718	STUDY_PAIR	n/a	wordpools/wordpool_EN.txt	4	6	HAT	LAWN	HAT	LAWN	12	[0, 0, 0]	-999	PAL1	0	R1142N
1891.799	0.275	2308751	STUDY_ORIENT	n/a	n/a	5	3	PRINCE	PRINCE	PRINCE	DART	12	[0, 0, 0]	-999	PAL1	0	R1142N
1892.683	4.0	2309635	STUDY_PAIR	n/a	wordpools/wordpool_EN.txt	5	3	PRINCE	PRINCE	PRINCE	DART	12	[0, 0, 0]	-999	PAL1	0	R1142N
1897.717	0.275	2314668	STUDY_ORIENT	n/a	n/a	6	2	SWAMP	SWAMP	GLASS	SWAMP	12	[0, 0, 0]	-999	PAL1	0	R1142N
1898.518	4.0	2315469	STUDY_PAIR	n/a	wordpools/wordpool_EN.txt	6	2	SWAMP	SWAMP	GLASS	SWAMP	12	[0, 0, 0]	-999	PAL1	0	R1142N
1902.536	0.999	2319487	START	n/a	n/a	-999	-999	n/a	n/a	n/a	n/a	12	[-999, -999, -999]	-999	PAL1	0	R1142N
1903.535	0.016	2320486	MATH_START	n/a	n/a	-999	-999	n/a	n/a	n/a	n/a	12	[0, 0, 0]	-999	PAL1	0	R1142N
1903.551	45.645	2320502	PROB	45645.0	n/a	-999	-999	n/a	n/a	n/a	n/a	12	[4, 6, 6]	20	PAL1	0	R1142N
1949.196	0.012	2366145	STOP	n/a	n/a	-999	-999	n/a	n/a	n/a	n/a	12	[-999, -999, -999]	-999	PAL1	0	R1142N
1949.208	0.0	2366157	TEST_START	n/a	n/a	-999	-999	n/a	n/a	n/a	n/a	12	[0, 0, 0]	-999	PAL1	0	R1142N
1949.208	0.017	2366157	MATH_END	n/a	n/a	-999	-999	n/a	n/a	n/a	n/a	12	[0, 0, 0]	-999	PAL1	0	R1142N
1949.225	0.275	2366174	TEST_ORIENT	n/a	n/a	3	1	CLOWN	n/a	CLOWN	MOUSE	12	[0, 0, 0]	-999	PAL1	0	R1142N
1950.175	4.0	2367124	TEST_PROBE	n/a	wordpools/wordpool_EN.txt	3	1	CLOWN	n/a	CLOWN	MOUSE	12	[0, 0, 0]	-999	PAL1	0	R1142N
1950.176	1.728	2367125	REC_START	n/a	n/a	3	-999	n/a	n/a	n/a	n/a	12	[0, 0, 0]	-999	PAL1	0	R1142N
1951.904	1.788	2368853	REC_EVENT	1728.0	n/a	3	1	CLOWN	<>	CLOWN	MOUSE	12	[0, 0, 0]	-999	PAL1	0	R1142N
1953.692	1.509	2370641	REC_EVENT	3516.0	n/a	3	1	CLOWN	<>	CLOWN	MOUSE	12	[0, 0, 0]	-999	PAL1	0	R1142N
1955.201	0.008	2372150	REC_END	n/a	n/a	3	-999	n/a	n/a	n/a	n/a	12	[0, 0, 0]	-999	PAL1	0	R1142N
1955.209	0.275	2372158	TEST_ORIENT	n/a	n/a	6	2	SWAMP	SWAMP	GLASS	SWAMP	12	[0, 0, 0]	-999	PAL1	0	R1142N
1956.109	4.0	2373058	TEST_PROBE	n/a	wordpools/wordpool_EN.txt	6	2	SWAMP	SWAMP	GLASS	SWAMP	12	[0, 0, 0]	-999	PAL1	0	R1142N
1956.11	0.893	2373059	REC_START	n/a	n/a	6	-999	n/a	SWAMP	n/a	n/a	12	[0, 0, 0]	-999	PAL1	0	R1142N
1957.003	4.123	2373952	REC_EVENT	893.0	n/a	6	2	SWAMP	SWAMP	GLASS	SWAMP	12	[0, 0, 0]	-999	PAL1	0	R1142N
1961.126	0.018	2378075	REC_END	n/a	n/a	6	-999	n/a	n/a	n/a	n/a	12	[0, 0, 0]	-999	PAL1	0	R1142N
1961.144	0.275	2378093	TEST_ORIENT	n/a	n/a	5	3	PRINCE	PRINCE	PRINCE	DART	12	[0, 0, 0]	-999	PAL1	0	R1142N
1961.944	4.0	2378893	TEST_PROBE	n/a	wordpools/wordpool_EN.txt	5	3	PRINCE	PRINCE	PRINCE	DART	12	[0, 0, 0]	-999	PAL1	0	R1142N
1961.944	1.607	2378893	REC_START	n/a	n/a	5	-999	n/a	PRINCE	n/a	n/a	12	[0, 0, 0]	-999	PAL1	0	R1142N
1963.551	1.616	2380500	REC_EVENT	1607.0	n/a	5	3	PRINCE	PRINCE	PRINCE	DART	12	[0, 0, 0]	-999	PAL1	0	R1142N
1965.167	1.794	2382116	REC_EVENT	3223.0	n/a	5	3	PRINCE	<>	PRINCE	DART	12	[0, 0, 0]	-999	PAL1	0	R1142N
1966.961	0.017	2383910	REC_END	n/a	n/a	5	-999	n/a	n/a	n/a	n/a	12	[0, 0, 0]	-999	PAL1	0	R1142N
1966.978	0.275	2383927	TEST_ORIENT	n/a	n/a	2	4	BED	n/a	BED	FACE	12	[0, 0, 0]	-999	PAL1	0	R1142N
1967.796	4.0	2384745	TEST_PROBE	n/a	wordpools/wordpool_EN.txt	2	4	BED	n/a	BED	FACE	12	[0, 0, 0]	-999	PAL1	0	R1142N
1967.797	5.021	2384746	REC_START	n/a	n/a	2	-999	n/a	n/a	n/a	n/a	12	[0, 0, 0]	-999	PAL1	0	R1142N
1972.818	0.004	2389767	REC_EVENT	5021.0	n/a	2	4	BED	<>	BED	FACE	12	[0, 0, 0]	-999	PAL1	0	R1142N
1972.822	0.024	2389771	REC_END	n/a	n/a	2	-999	n/a	n/a	n/a	n/a	12	[0, 0, 0]	-999	PAL1	0	R1142N
1972.846	0.275	2389795	TEST_ORIENT	n/a	n/a	1	5	TOE	n/a	DOOR	TOE	12	[0, 0, 0]	-999	PAL1	0	R1142N
1973.88	4.0	2390829	TEST_PROBE	n/a	wordpools/wordpool_EN.txt	1	5	TOE	n/a	DOOR	TOE	12	[0, 0, 0]	-999	PAL1	0	R1142N
1973.88	5.018	2390829	REC_START	n/a	n/a	1	-999	n/a	n/a	n/a	n/a	12	[0, 0, 0]	-999	PAL1	0	R1142N
1978.898	0.003	2395846	REC_END	n/a	n/a	1	-999	n/a	n/a	n/a	n/a	12	[0, 0, 0]	-999	PAL1	0	R1142N
1978.901	0.013	2395849	REC_EVENT	5021.0	n/a	1	5	TOE	<>	DOOR	TOE	12	[0, 0, 0]	-999	PAL1	0	R1142N
1978.914	0.275	2395862	TEST_ORIENT	n/a	n/a	4	6	HAT	LAWN	HAT	LAWN	12	[0, 0, 0]	-999	PAL1	0	R1142N
1979.781	0.0	2396729	REC_START	n/a	n/a	4	-999	n/a	LAWN	n/a	n/a	12	[0, 0, 0]	-999	PAL1	0	R1142N
1979.781	4.0	2396729	TEST_PROBE	n/a	wordpools/wordpool_EN.txt	4	6	HAT	LAWN	HAT	LAWN	12	[0, 0, 0]	-999	PAL1	0	R1142N
1981.354	0.504	2398302	REC_EVENT	1573.0	n/a	4	6	HAT	<>	HAT	LAWN	12	[0, 0, 0]	-999	PAL1	0	R1142N
1981.858	2.949	2398806	REC_EVENT	2077.0	n/a	4	6	HAT	LAWN	HAT	LAWN	12	[0, 0, 0]	-999	PAL1	0	R1142N
1984.807	3.469	2401755	REC_END	n/a	n/a	4	-999	n/a	n/a	n/a	n/a	12	[0, 0, 0]	-999	PAL1	0	R1142N
1988.276	10.442	2405224	ENCODING_START	n/a	n/a	0	-999	n/a	n/a	n/a	n/a	13	[0, 0, 0]	-999	PAL1	0	R1142N
1998.718	0.275	2415666	STUDY_ORIENT	n/a	n/a	1	1	WAND	WISH	HAWK	WAND	13	[0, 0, 0]	-999	PAL1	0	R1142N
1999.651	4.0	2416599	STUDY_PAIR	n/a	wordpools/wordpool_EN.txt	1	1	WAND	WISH	HAWK	WAND	13	[0, 0, 0]	-999	PAL1	0	R1142N
2004.685	0.275	2421632	STUDY_ORIENT	n/a	n/a	2	4	BEAN	BEAN	THREAD	BEAN	13	[0, 0, 0]	-999	PAL1	0	R1142N
2005.569	4.0	2422516	STUDY_PAIR	n/a	wordpools/wordpool_EN.txt	2	4	BEAN	BEAN	THREAD	BEAN	13	[0, 0, 0]	-999	PAL1	0	R1142N
2010.603	0.275	2427550	STUDY_ORIENT	n/a	n/a	3	5	WAVE	WAVE	MAT	WAVE	13	[0, 0, 0]	-999	PAL1	0	R1142N
2011.42	4.0	2428367	STUDY_PAIR	n/a	wordpools/wordpool_EN.txt	3	5	WAVE	WAVE	MAT	WAVE	13	[0, 0, 0]	-999	PAL1	0	R1142N
2016.454	0.275	2433401	STUDY_ORIENT	n/a	n/a	4	6	STRAW	STRAW	SAIL	STRAW	13	[0, 0, 0]	-999	PAL1	0	R1142N
2017.455	4.0	2434402	STUDY_PAIR	n/a	wordpools/wordpool_EN.txt	4	6	STRAW	STRAW	SAIL	STRAW	13	[0, 0, 0]	-999	PAL1	0	R1142N
2022.488	0.275	2439435	STUDY_ORIENT	n/a	n/a	5	3	SLUSH	PUPPY	CLOCK	SLUSH	13	[0, 0, 0]	-999	PAL1	0	R1142N
2023.304	4.0	2440251	STUDY_PAIR	n/a	wordpools/wordpool_EN.txt	5	3	SLUSH	PUPPY	CLOCK	SLUSH	13	[0, 0, 0]	-999	PAL1	0	R1142N
2028.34	0.275	2445287	STUDY_ORIENT	n/a	n/a	6	2	NAIL	NAIL	NAIL	MOON	13	[0, 0, 0]	-999	PAL1	0	R1142N
2029.289	4.0	2446236	STUDY_PAIR	n/a	wordpools/wordpool_EN.txt	6	2	NAIL	NAIL	NAIL	MOON	13	[0, 0, 0]	-999	PAL1	0	R1142N
2033.306	1.0	2450252	START	n/a	n/a	-999	-999	n/a	n/a	n/a	n/a	13	[-999, -999, -999]	-999	PAL1	0	R1142N
2034.306	0.016	2451252	MATH_START	n/a	n/a	-999	-999	n/a	n/a	n/a	n/a	13	[0, 0, 0]	-999	PAL1	0	R1142N
2034.322	6.868	2451268	PROB	6842.0	n/a	-999	-999	n/a	n/a	n/a	n/a	13	[2, 8, 2]	12	PAL1	0	R1142N
2041.19	15.766	2458136	PROB	15766.0	n/a	-999	-999	n/a	n/a	n/a	n/a	13	[8, 2, 6]	16	PAL1	0	R1142N
2056.956	0.003	2473902	STOP	n/a	n/a	-999	-999	n/a	n/a	n/a	n/a	13	[-999, -999, -999]	-999	PAL1	0	R1142N
2056.959	0.0	2473905	TEST_START	n/a	n/a	-999	-999	n/a	n/a	n/a	n/a	13	[0, 0, 0]	-999	PAL1	0	R1142N
2056.959	0.017	2473905	MATH_END	n/a	n/a	-999	-999	n/a	n/a	n/a	n/a	13	[0, 0, 0]	-999	PAL1	0	R1142N
2056.976	0.275	2473922	TEST_ORIENT	n/a	n/a	1	1	WAND	WISH	HAWK	WAND	13	[0, 0, 0]	-999	PAL1	0	R1142N
2057.943	4.0	2474889	TEST_PROBE	n/a	wordpools/wordpool_EN.txt	1	1	WAND	WISH	HAWK	WAND	13	[0, 0, 0]	-999	PAL1	0	R1142N
2057.943	3.369	2474889	REC_START	n/a	n/a	1	-999	n/a	WISH	n/a	n/a	13	[0, 0, 0]	-999	PAL1	0	R1142N
2061.312	1.651	2478257	REC_EVENT	3369.0	n/a	1	1	WAND	WISH	HAWK	WAND	13	[0, 0, 0]	-999	PAL1	0	R1142N
2062.963	0.014	2479908	REC_END	n/a	n/a	1	-999	n/a	n/a	n/a	n/a	13	[0, 0, 0]	-999	PAL1	0	R1142N
2062.977	0.275	2479922	TEST_ORIENT	n/a	n/a	6	2	NAIL	NAIL	NAIL	MOON	13	[0, 0, 0]	-999	PAL1	0	R1142N
2063.812	4.0	2480757	TEST_PROBE	n/a	wordpools/wordpool_EN.txt	6	2	NAIL	NAIL	NAIL	MOON	13	[0, 0, 0]	-999	PAL1	0	R1142N
2063.813	1.722	2480758	REC_START	n/a	n/a	6	-999	n/a	NAIL	n/a	n/a	13	[0, 0, 0]	-999	PAL1	0	R1142N
2065.535	2.997	2482480	REC_EVENT	1722.0	n/a	6	2	NAIL	NAIL	NAIL	MOON	13	[0, 0, 0]	-999	PAL1	0	R1142N
2068.532	0.297	2485477	REC_EVENT	4719.0	n/a	6	2	NAIL	<>	NAIL	MOON	13	[0, 0, 0]	-999	PAL1	0	R1142N
2068.829	0.017	2485774	REC_END	n/a	n/a	6	-999	n/a	n/a	n/a	n/a	13	[0, 0, 0]	-999	PAL1	0	R1142N
2068.846	0.275	2485791	TEST_ORIENT	n/a	n/a	5	3	SLUSH	PUPPY	CLOCK	SLUSH	13	[0, 0, 0]	-999	PAL1	0	R1142N
2069.696	4.0	2486641	TEST_PROBE	n/a	wordpools/wordpool_EN.txt	5	3	SLUSH	PUPPY	CLOCK	SLUSH	13	[0, 0, 0]	-999	PAL1	0	R1142N
2069.696	1.766	2486641	REC_START	n/a	n/a	5	-999	n/a	PUPPY	n/a	n/a	13	[0, 0, 0]	-999	PAL1	0	R1142N
2071.462	1.407	2488407	REC_EVENT	1766.0	n/a	5	3	SLUSH	SLUSH	CLOCK	SLUSH	13	[0, 0, 0]	-999	PAL1	0	R1142N
2072.869	1.845	2489814	REC_EVENT	3173.0	n/a	5	3	SLUSH	PUPPY	CLOCK	SLUSH	13	[0, 0, 0]	-999	PAL1	0	R1142N
2074.714	0.017	2491659	REC_END	n/a	n/a	5	-999	n/a	n/a	n/a	n/a	13	[0, 0, 0]	-999	PAL1	0	R1142N
2074.731	0.275	2491676	TEST_ORIENT	n/a	n/a	2	4	BEAN	BEAN	THREAD	BEAN	13	[0, 0, 0]	-999	PAL1	0	R1142N
2075.764	4.0	2492709	TEST_PROBE	n/a	wordpools/wordpool_EN.txt	2	4	BEAN	BEAN	THREAD	BEAN	13	[0, 0, 0]	-999	PAL1	0	R1142N
2075.765	2.08	2492710	REC_START	n/a	n/a	2	-999	n/a	BEAN	n/a	n/a	13	[0, 0, 0]	-999	PAL1	0	R1142N
2077.845	1.354	2494790	REC_EVENT	2080.0	n/a	2	4	BEAN	BEAN	THREAD	BEAN	13	[0, 0, 0]	-999	PAL1	0	R1142N
2079.199	1.599	2496144	REC_EVENT	3434.0	n/a	2	4	BEAN	<>	THREAD	BEAN	13	[0, 0, 0]	-999	PAL1	0	R1142N
2080.798	0.017	2497743	REC_END	n/a	n/a	2	-999	n/a	n/a	n/a	n/a	13	[0, 0, 0]	-999	PAL1	0	R1142N
2080.815	0.275	2497760	TEST_ORIENT	n/a	n/a	3	5	WAVE	WAVE	MAT	WAVE	13	[0, 0, 0]	-999	PAL1	0	R1142N
2081.782	4.0	2498727	TEST_PROBE	n/a	wordpools/wordpool_EN.txt	3	5	WAVE	WAVE	MAT	WAVE	13	[0, 0, 0]	-999	PAL1	0	R1142N
2081.783	2.362	2498728	REC_START	n/a	n/a	3	-999	n/a	WAVE	n/a	n/a	13	[0, 0, 0]	-999	PAL1	0	R1142N
2084.145	2.664	2501090	REC_EVENT	2362.0	n/a	3	5	WAVE	WAVE	MAT	WAVE	13	[0, 0, 0]	-999	PAL1	0	R1142N
2086.809	0.023	2503754	REC_END	n/a	n/a	3	-999	n/a	n/a	n/a	n/a	13	[0, 0, 0]	-999	PAL1	0	R1142N
2086.832	0.275	2503777	TEST_ORIENT	n/a	n/a	4	6	STRAW	STRAW	SAIL	STRAW	13	[0, 0, 0]	-999	PAL1	0	R1142N
2087.799	4.0	2504743	TEST_PROBE	n/a	wordpools/wordpool_EN.txt	4	6	STRAW	STRAW	SAIL	STRAW	13	[0, 0, 0]	-999	PAL1	0	R1142N
2087.799	1.44	2504743	REC_START	n/a	n/a	4	-999	n/a	STRAW	n/a	n/a	13	[0, 0, 0]	-999	PAL1	0	R1142N
2089.239	3.578	2506183	REC_EVENT	1440.0	n/a	4	6	STRAW	STRAW	SAIL	STRAW	13	[0, 0, 0]	-999	PAL1	0	R1142N
2092.817	3.339	2509761	REC_END	n/a	n/a	4	-999	n/a	n/a	n/a	n/a	13	[0, 0, 0]	-999	PAL1	0	R1142N
2096.156	10.446	2513100	ENCODING_START	n/a	n/a	0	-999	n/a	n/a	n/a	n/a	14	[0, 0, 0]	-999	PAL1	0	R1142N
2106.602	0.275	2523546	STUDY_ORIENT	n/a	n/a	1	1	CAVE	MONSTER	BEE	CAVE	14	[0, 0, 0]	-999	PAL1	0	R1142N
2107.486	4.0	2524430	STUDY_PAIR	n/a	wordpools/wordpool_EN.txt	1	1	CAVE	MONSTER	BEE	CAVE	14	[0, 0, 0]	-999	PAL1	0	R1142N
2112.521	0.275	2529465	STUDY_ORIENT	n/a	n/a	2	4	SHOE	SHOE	DOCK	SHOE	14	[0, 0, 0]	-999	PAL1	0	R1142N
2113.537	4.0	2530481	STUDY_PAIR	n/a	wordpools/wordpool_EN.txt	2	4	SHOE	SHOE	DOCK	SHOE	14	[0, 0, 0]	-999	PAL1	0	R1142N
2118.571	0.275	2535514	STUDY_ORIENT	n/a	n/a	3	5	TEETH	SMOKE	SMOKE	TEETH	14	[0, 0, 0]	-999	PAL1	0	R1142N
2119.438	4.0	2536381	STUDY_PAIR	n/a	wordpools/wordpool_EN.txt	3	5	TEETH	SMOKE	SMOKE	TEETH	14	[0, 0, 0]	-999	PAL1	0	R1142N
2124.473	0.275	2541416	STUDY_ORIENT	n/a	n/a	4	2	CAR	CAVE	CAR	GUARD	14	[0, 0, 0]	-999	PAL1	0	R1142N
2125.305	4.0	2542248	STUDY_PAIR	n/a	wordpools/wordpool_EN.txt	4	2	CAR	CAVE	CAR	GUARD	14	[0, 0, 0]	-999	PAL1	0	R1142N
2130.34	0.275	2547283	STUDY_ORIENT	n/a	n/a	5	3	PANTS	SKY	SKY	PANTS	14	[0, 0, 0]	-999	PAL1	0	R1142N
2131.205	4.0	2548148	STUDY_PAIR	n/a	wordpools/wordpool_EN.txt	5	3	PANTS	SKY	SKY	PANTS	14	[0, 0, 0]	-999	PAL1	0	R1142N
2136.24	0.275	2553183	STUDY_ORIENT	n/a	n/a	6	6	FOG	n/a	FOG	LAND	14	[0, 0, 0]	-999	PAL1	0	R1142N
2137.056	4.0	2553999	STUDY_PAIR	n/a	wordpools/wordpool_EN.txt	6	6	FOG	n/a	FOG	LAND	14	[0, 0, 0]	-999	PAL1	0	R1142N
2141.074	1.0	2558017	START	n/a	n/a	-999	-999	n/a	n/a	n/a	n/a	14	[-999, -999, -999]	-999	PAL1	0	R1142N
2142.074	0.016	2559017	MATH_START	n/a	n/a	-999	-999	n/a	n/a	n/a	n/a	14	[0, 0, 0]	-999	PAL1	0	R1142N
2142.09	12.019	2559033	PROB	11994.0	n/a	-999	-999	n/a	n/a	n/a	n/a	14	[2, 5, 8]	15	PAL1	0	R1142N
2154.109	20.776	2571051	PROB	20776.0	n/a	-999	-999	n/a	n/a	n/a	n/a	14	[9, 6, 8]	18	PAL1	0	R1142N
2174.885	0.012	2591826	STOP	n/a	n/a	-999	-999	n/a	n/a	n/a	n/a	14	[-999, -999, -999]	-999	PAL1	0	R1142N
2174.897	0.0	2591838	MATH_END	n/a	n/a	-999	-999	n/a	n/a	n/a	n/a	14	[0, 0, 0]	-999	PAL1	0	R1142N
2174.897	0.018	2591838	TEST_START	n/a	n/a	-999	-999	n/a	n/a	n/a	n/a	14	[0, 0, 0]	-999	PAL1	0	R1142N
2174.915	0.275	2591856	TEST_ORIENT	n/a	n/a	1	1	CAVE	MONSTER	BEE	CAVE	14	[0, 0, 0]	-999	PAL1	0	R1142N
2175.914	4.0	2592855	TEST_PROBE	n/a	wordpools/wordpool_EN.txt	1	1	CAVE	MONSTER	BEE	CAVE	14	[0, 0, 0]	-999	PAL1	0	R1142N
2175.914	3.607	2592855	REC_START	n/a	n/a	1	-999	n/a	MONSTER	n/a	n/a	14	[0, 0, 0]	-999	PAL1	0	R1142N
2179.521	1.409	2596462	REC_EVENT	3607.0	n/a	1	1	CAVE	MONSTER	BEE	CAVE	14	[0, 0, 0]	-999	PAL1	0	R1142N
2180.93	0.017	2597871	REC_END	n/a	n/a	1	-999	n/a	n/a	n/a	n/a	14	[0, 0, 0]	-999	PAL1	0	R1142N
2180.947	0.275	2597888	TEST_ORIENT	n/a	n/a	4	2	CAR	CAVE	CAR	GUARD	14	[0, 0, 0]	-999	PAL1	0	R1142N
2181.865	4.0	2598806	TEST_PROBE	n/a	wordpools/wordpool_EN.txt	4	2	CAR	CAVE	CAR	GUARD	14	[0, 0, 0]	-999	PAL1	0	R1142N
2181.866	2.596	2598807	REC_START	n/a	n/a	4	-999	n/a	CAVE	n/a	n/a	14	[0, 0, 0]	-999	PAL1	0	R1142N
2184.462	1.407	2601403	REC_EVENT	2596.0	n/a	4	2	CAR	GUARD	CAR	GUARD	14	[0, 0, 0]	-999	PAL1	0	R1142N
2185.869	1.013	2602810	REC_EVENT	4003.0	n/a	4	2	CAR	CAVE	CAR	GUARD	14	[0, 0, 0]	-999	PAL1	0	R1142N
2186.882	0.017	2603823	REC_END	n/a	n/a	4	-999	n/a	n/a	n/a	n/a	14	[0, 0, 0]	-999	PAL1	0	R1142N
2186.899	0.275	2603840	TEST_ORIENT	n/a	n/a	5	3	PANTS	SKY	SKY	PANTS	14	[0, 0, 0]	-999	PAL1	0	R1142N
2187.866	4.0	2604807	TEST_PROBE	n/a	wordpools/wordpool_EN.txt	5	3	PANTS	SKY	SKY	PANTS	14	[0, 0, 0]	-999	PAL1	0	R1142N
2187.866	1.927	2604807	REC_START	n/a	n/a	5	-999	n/a	SKY	n/a	n/a	14	[0, 0, 0]	-999	PAL1	0	R1142N
2189.793	3.088	2606734	REC_EVENT	1927.0	n/a	5	3	PANTS	SKY	SKY	PANTS	14	[0, 0, 0]	-999	PAL1	0	R1142N
2192.881	0.003	2609822	REC_EVENT	5015.0	n/a	5	3	PANTS	<>	SKY	PANTS	14	[0, 0, 0]	-999	PAL1	0	R1142N
2192.884	0.017	2609825	REC_END	n/a	n/a	5	-999	n/a	n/a	n/a	n/a	14	[0, 0, 0]	-999	PAL1	0	R1142N
2192.901	0.275	2609842	TEST_ORIENT	n/a	n/a	2	4	SHOE	SHOE	DOCK	SHOE	14	[0, 0, 0]	-999	PAL1	0	R1142N
2193.767	4.0	2610708	TEST_PROBE	n/a	wordpools/wordpool_EN.txt	2	4	SHOE	SHOE	DOCK	SHOE	14	[0, 0, 0]	-999	PAL1	0	R1142N
2193.768	3.668	2610709	REC_START	n/a	n/a	2	-999	n/a	SHOE	n/a	n/a	14	[0, 0, 0]	-999	PAL1	0	R1142N
2197.436	0.493	2614377	REC_EVENT	3668.0	n/a	2	4	SHOE	<>	DOCK	SHOE	14	[0, 0, 0]	-999	PAL1	0	R1142N
2197.929	0.866	2614870	REC_EVENT	4161.0	n/a	2	4	SHOE	SHOE	DOCK	SHOE	14	[0, 0, 0]	-999	PAL1	0	R1142N
2198.795	0.024	2615735	REC_END	n/a	n/a	2	-999	n/a	n/a	n/a	n/a	14	[0, 0, 0]	-999	PAL1	0	R1142N
2198.819	0.275	2615759	TEST_ORIENT	n/a	n/a	3	5	TEETH	SMOKE	SMOKE	TEETH	14	[0, 0, 0]	-999	PAL1	0	R1142N
2199.818	4.0	2616758	TEST_PROBE	n/a	wordpools/wordpool_EN.txt	3	5	TEETH	SMOKE	SMOKE	TEETH	14	[0, 0, 0]	-999	PAL1	0	R1142N
2199.819	2.744	2616759	REC_START	n/a	n/a	3	-999	n/a	SMOKE	n/a	n/a	14	[0, 0, 0]	-999	PAL1	0	R1142N
2202.563	2.282	2619503	REC_EVENT	2744.0	n/a	3	5	TEETH	SMOKE	SMOKE	TEETH	14	[0, 0, 0]	-999	PAL1	0	R1142N
2204.845	0.025	2621785	REC_END	n/a	n/a	3	-999	n/a	n/a	n/a	n/a	14	[0, 0, 0]	-999	PAL1	0	R1142N
2204.87	0.275	2621810	TEST_ORIENT	n/a	n/a	6	6	FOG	n/a	FOG	LAND	14	[0, 0, 0]	-999	PAL1	0	R1142N
2205.836	4.0	2622776	TEST_PROBE	n/a	wordpools/wordpool_EN.txt	6	6	FOG	n/a	FOG	LAND	14	[0, 0, 0]	-999	PAL1	0	R1142N
2205.837	5.021	2622777	REC_START	n/a	n/a	6	-999	n/a	n/a	n/a	n/a	14	[0, 0, 0]	-999	PAL1	0	R1142N
2210.858	0.004	2627798	REC_EVENT	5021.0	n/a	6	6	FOG	<>	FOG	LAND	14	[0, 0, 0]	-999	PAL1	0	R1142N
2210.862	2.983	2627802	REC_END	n/a	n/a	6	-999	n/a	n/a	n/a	n/a	14	[0, 0, 0]	-999	PAL1	0	R1142N
2213.845	10.443	2630785	ENCODING_START	n/a	n/a	0	-999	n/a	n/a	n/a	n/a	15	[0, 0, 0]	-999	PAL1	0	R1142N
2224.288	0.275	2641228	STUDY_ORIENT	n/a	n/a	1	3	CLOUD	n/a	CLOUD	CUP	15	[0, 0, 0]	-999	PAL1	0	R1142N
2225.171	4.0	2642111	STUDY_PAIR	n/a	wordpools/wordpool_EN.txt	1	3	CLOUD	n/a	CLOUD	CUP	15	[0, 0, 0]	-999	PAL1	0	R1142N
2230.205	0.275	2647144	STUDY_ORIENT	n/a	n/a	2	2	ROCK	n/a	BARN	ROCK	15	[0, 0, 0]	-999	PAL1	0	R1142N
2231.172	4.0	2648111	STUDY_PAIR	n/a	wordpools/wordpool_EN.txt	2	2	ROCK	n/a	BARN	ROCK	15	[0, 0, 0]	-999	PAL1	0	R1142N
2236.207	0.275	2653146	STUDY_ORIENT	n/a	n/a	3	1	COUCH	n/a	STICK	COUCH	15	[0, 0, 0]	-999	PAL1	0	R1142N
2237.007	4.0	2653946	STUDY_PAIR	n/a	wordpools/wordpool_EN.txt	3	1	COUCH	n/a	STICK	COUCH	15	[0, 0, 0]	-999	PAL1	0	R1142N
2242.042	0.275	2658981	STUDY_ORIENT	n/a	n/a	4	6	VEST	n/a	VEST	SIGN	15	[0, 0, 0]	-999	PAL1	0	R1142N
2243.058	4.0	2659997	STUDY_PAIR	n/a	wordpools/wordpool_EN.txt	4	6	VEST	n/a	VEST	SIGN	15	[0, 0, 0]	-999	PAL1	0	R1142N
2248.092	0.275	2665031	STUDY_ORIENT	n/a	n/a	5	5	TANK	n/a	TANK	WOLF	15	[0, 0, 0]	-999	PAL1	0	R1142N
2248.91	4.0	2665849	STUDY_PAIR	n/a	wordpools/wordpool_EN.txt	5	5	TANK	n/a	TANK	WOLF	15	[0, 0, 0]	-999	PAL1	0	R1142N
2253.943	0.275	2670881	STUDY_ORIENT	n/a	n/a	6	4	WING	VEST	WING	JET	15	[0, 0, 0]	-999	PAL1	0	R1142N
2254.727	4.0	2671665	STUDY_PAIR	n/a	wordpools/wordpool_EN.txt	6	4	WING	VEST	WING	JET	15	[0, 0, 0]	-999	PAL1	0	R1142N
2258.745	0.999	2675683	START	n/a	n/a	-999	-999	n/a	n/a	n/a	n/a	15	[-999, -999, -999]	-999	PAL1	0	R1142N
2259.744	0.017	2676682	MATH_START	n/a	n/a	-999	-999	n/a	n/a	n/a	n/a	15	[0, 0, 0]	-999	PAL1	0	R1142N
2259.761	8.451	2676699	PROB	8419.0	n/a	-999	-999	n/a	n/a	n/a	n/a	15	[1, 3, 2]	6	PAL1	0	R1142N
2268.212	11.185	2685150	PROB	11185.0	n/a	-999	-999	n/a	n/a	n/a	n/a	15	[2, 5, 7]	14	PAL1	0	R1142N
2279.397	0.019	2696335	STOP	n/a	n/a	-999	-999	n/a	n/a	n/a	n/a	15	[-999, -999, -999]	-999	PAL1	0	R1142N
2279.416	0.0	2696354	MATH_END	n/a	n/a	-999	-999	n/a	n/a	n/a	n/a	15	[0, 0, 0]	-999	PAL1	0	R1142N
2279.416	0.016	2696354	TEST_START	n/a	n/a	-999	-999	n/a	n/a	n/a	n/a	15	[0, 0, 0]	-999	PAL1	0	R1142N
2279.432	0.275	2696370	TEST_ORIENT	n/a	n/a	3	1	COUCH	n/a	STICK	COUCH	15	[0, 0, 0]	-999	PAL1	0	R1142N
2280.315	4.0	2697253	TEST_PROBE	n/a	wordpools/wordpool_EN.txt	3	1	COUCH	n/a	STICK	COUCH	15	[0, 0, 0]	-999	PAL1	0	R1142N
2280.316	5.026	2697254	REC_START	n/a	n/a	3	-999	n/a	n/a	n/a	n/a	15	[0, 0, 0]	-999	PAL1	0	R1142N
2285.342	0.001	2702279	REC_END	n/a	n/a	3	-999	n/a	n/a	n/a	n/a	15	[0, 0, 0]	-999	PAL1	0	R1142N
2285.343	0.023	2702280	REC_EVENT	5027.0	n/a	3	1	COUCH	<>	STICK	COUCH	15	[0, 0, 0]	-999	PAL1	0	R1142N
2285.366	0.275	2702303	TEST_ORIENT	n/a	n/a	2	2	ROCK	n/a	BARN	ROCK	15	[0, 0, 0]	-999	PAL1	0	R1142N
2286.315	4.0	2703252	TEST_PROBE	n/a	wordpools/wordpool_EN.txt	2	2	ROCK	n/a	BARN	ROCK	15	[0, 0, 0]	-999	PAL1	0	R1142N
2286.316	5.021	2703253	REC_START	n/a	n/a	2	-999	n/a	n/a	n/a	n/a	15	[0, 0, 0]	-999	PAL1	0	R1142N
2291.337	0.006	2708274	REC_EVENT	5021.0	n/a	2	2	ROCK	<>	BARN	ROCK	15	[0, 0, 0]	-999	PAL1	0	R1142N
2291.343	0.024	2708280	REC_END	n/a	n/a	2	-999	n/a	n/a	n/a	n/a	15	[0, 0, 0]	-999	PAL1	0	R1142N
2291.367	0.275	2708304	TEST_ORIENT	n/a	n/a	1	3	CLOUD	n/a	CLOUD	CUP	15	[0, 0, 0]	-999	PAL1	0	R1142N
2292.3	4.0	2709237	TEST_PROBE	n/a	wordpools/wordpool_EN.txt	1	3	CLOUD	n/a	CLOUD	CUP	15	[0, 0, 0]	-999	PAL1	0	R1142N
2292.3	0.0	2709237	REC_START	n/a	n/a	1	-999	n/a	n/a	n/a	n/a	15	[0, 0, 0]	-999	PAL1	0	R1142N
2292.3	1.104	2709237	REC_EVENT	0.0	n/a	1	3	CLOUD	<>	CLOUD	CUP	15	[0, 0, 0]	-999	PAL1	0	R1142N
2293.404	3.913	2710341	REC_EVENT	1104.0	n/a	1	3	CLOUD	<>	CLOUD	CUP	15	[0, 0, 0]	-999	PAL1	0	R1142N
2297.317	0.016	2714254	REC_END	n/a	n/a	1	-999	n/a	n/a	n/a	n/a	15	[0, 0, 0]	-999	PAL1	0	R1142N
2297.333	0.275	2714270	TEST_ORIENT	n/a	n/a	6	4	WING	VEST	WING	JET	15	[0, 0, 0]	-999	PAL1	0	R1142N
2298.284	4.0	2715221	TEST_PROBE	n/a	wordpools/wordpool_EN.txt	6	4	WING	VEST	WING	JET	15	[0, 0, 0]	-999	PAL1	0	R1142N
2298.285	2.692	2715222	REC_START	n/a	n/a	6	-999	n/a	VEST	n/a	n/a	15	[0, 0, 0]	-999	PAL1	0	R1142N
2300.977	2.334	2717914	REC_EVENT	2692.0	n/a	6	4	WING	VEST	WING	JET	15	[0, 0, 0]	-999	PAL1	0	R1142N
2303.311	0.025	2720248	REC_END	n/a	n/a	6	-999	n/a	n/a	n/a	n/a	15	[0, 0, 0]	-999	PAL1	0	R1142N
2303.336	0.275	2720273	TEST_ORIENT	n/a	n/a	5	5	TANK	n/a	TANK	WOLF	15	[0, 0, 0]	-999	PAL1	0	R1142N
2304.302	4.0	2721239	TEST_PROBE	n/a	wordpools/wordpool_EN.txt	5	5	TANK	n/a	TANK	WOLF	15	[0, 0, 0]	-999	PAL1	0	R1142N
2304.302	5.015	2721239	REC_START	n/a	n/a	5	-999	n/a	n/a	n/a	n/a	15	[0, 0, 0]	-999	PAL1	0	R1142N
2309.317	0.002	2726253	REC_EVENT	5015.0	n/a	5	5	TANK	<>	TANK	WOLF	15	[0, 0, 0]	-999	PAL1	0	R1142N
2309.319	0.018	2726255	REC_END	n/a	n/a	5	-999	n/a	n/a	n/a	n/a	15	[0, 0, 0]	-999	PAL1	0	R1142N
2309.337	0.275	2726273	TEST_ORIENT	n/a	n/a	4	6	VEST	n/a	VEST	SIGN	15	[0, 0, 0]	-999	PAL1	0	R1142N
2310.37	4.0	2727306	TEST_PROBE	n/a	wordpools/wordpool_EN.txt	4	6	VEST	n/a	VEST	SIGN	15	[0, 0, 0]	-999	PAL1	0	R1142N
2310.371	5.026	2727307	REC_START	n/a	n/a	4	-999	n/a	n/a	n/a	n/a	15	[0, 0, 0]	-999	PAL1	0	R1142N
2315.397	0.001	2732333	REC_END	n/a	n/a	4	-999	n/a	n/a	n/a	n/a	15	[0, 0, 0]	-999	PAL1	0	R1142N
2315.398	2.527	2732334	REC_EVENT	5027.0	n/a	4	6	VEST	<>	VEST	SIGN	15	[0, 0, 0]	-999	PAL1	0	R1142N
2317.925	10.448	2734861	ENCODING_START	n/a	n/a	0	-999	n/a	n/a	n/a	n/a	16	[0, 0, 0]	-999	PAL1	0	R1142N
2328.373	0.275	2745309	STUDY_ORIENT	n/a	n/a	1	3	PLATE	DISH	ROOM	PLATE	16	[0, 0, 0]	-999	PAL1	0	R1142N
2329.173	4.0	2746109	STUDY_PAIR	n/a	wordpools/wordpool_EN.txt	1	3	PLATE	DISH	ROOM	PLATE	16	[0, 0, 0]	-999	PAL1	0	R1142N
2334.207	0.275	2751143	STUDY_ORIENT	n/a	n/a	2	6	INK	EGG	EGG	INK	16	[0, 0, 0]	-999	PAL1	0	R1142N
2335.023	4.0	2751959	STUDY_PAIR	n/a	wordpools/wordpool_EN.txt	2	6	INK	EGG	EGG	INK	16	[0, 0, 0]	-999	PAL1	0	R1142N
2340.058	0.275	2756993	STUDY_ORIENT	n/a	n/a	3	1	BATH	BATH	SOUP	BATH	16	[0, 0, 0]	-999	PAL1	0	R1142N
2340.893	4.0	2757828	STUDY_PAIR	n/a	wordpools/wordpool_EN.txt	3	1	BATH	BATH	SOUP	BATH	16	[0, 0, 0]	-999	PAL1	0	R1142N
2345.926	0.275	2762861	STUDY_ORIENT	n/a	n/a	4	4	PLANT	PLANT	PLANT	OAR	16	[0, 0, 0]	-999	PAL1	0	R1142N
2346.744	4.0	2763679	STUDY_PAIR	n/a	wordpools/wordpool_EN.txt	4	4	PLANT	PLANT	PLANT	OAR	16	[0, 0, 0]	-999	PAL1	0	R1142N
2351.777	0.275	2768712	STUDY_ORIENT	n/a	n/a	5	5	SHEEP	OIL	SHEEP	SUN	16	[0, 0, 0]	-999	PAL1	0	R1142N
2352.61	4.0	2769545	STUDY_PAIR	n/a	wordpools/wordpool_EN.txt	5	5	SHEEP	OIL	SHEEP	SUN	16	[0, 0, 0]	-999	PAL1	0	R1142N
2357.645	0.275	2774580	STUDY_ORIENT	n/a	n/a	6	2	WEB	BOOK	WEB	BEAK	16	[0, 0, 0]	-999	PAL1	0	R1142N
2358.528	4.0	2775463	STUDY_PAIR	n/a	wordpools/wordpool_EN.txt	6	2	WEB	BOOK	WEB	BEAK	16	[0, 0, 0]	-999	PAL1	0	R1142N
2362.546	1.0	2779481	START	n/a	n/a	-999	-999	n/a	n/a	n/a	n/a	16	[-999, -999, -999]	-999	PAL1	0	R1142N
2363.546	0.017	2780481	MATH_START	n/a	n/a	-999	-999	n/a	n/a	n/a	n/a	16	[0, 0, 0]	-999	PAL1	0	R1142N
2363.563	16.836	2780498	PROB	16810.0	n/a	-999	-999	n/a	n/a	n/a	n/a	16	[5, 1, 2]	8	PAL1	0	R1142N
2380.399	27.533	2797333	PROB	27533.0	n/a	-999	-999	n/a	n/a	n/a	n/a	16	[4, 1, 9]	11	PAL1	0	R1142N
2407.932	0.003	2824865	STOP	n/a	n/a	-999	-999	n/a	n/a	n/a	n/a	16	[-999, -999, -999]	-999	PAL1	0	R1142N
2407.935	0.0	2824868	TEST_START	n/a	n/a	-999	-999	n/a	n/a	n/a	n/a	16	[0, 0, 0]	-999	PAL1	0	R1142N
2407.935	0.018	2824868	MATH_END	n/a	n/a	-999	-999	n/a	n/a	n/a	n/a	16	[0, 0, 0]	-999	PAL1	0	R1142N
2407.953	0.275	2824886	TEST_ORIENT	n/a	n/a	3	1	BATH	BATH	SOUP	BATH	16	[0, 0, 0]	-999	PAL1	0	R1142N
2408.986	4.0	2825919	TEST_PROBE	n/a	wordpools/wordpool_EN.txt	3	1	BATH	BATH	SOUP	BATH	16	[0, 0, 0]	-999	PAL1	0	R1142N
2408.987	3.831	2825920	REC_START	n/a	n/a	3	-999	n/a	BATH	n/a	n/a	16	[0, 0, 0]	-999	PAL1	0	R1142N
2412.818	0.601	2829751	REC_EVENT	3831.0	n/a	3	1	BATH	BATH	SOUP	BATH	16	[0, 0, 0]	-999	PAL1	0	R1142N
2413.419	0.594	2830352	REC_EVENT	4432.0	n/a	3	1	BATH	<>	SOUP	BATH	16	[0, 0, 0]	-999	PAL1	0	R1142N
2414.013	0.024	2830946	REC_END	n/a	n/a	3	-999	n/a	n/a	n/a	n/a	16	[0, 0, 0]	-999	PAL1	0	R1142N
2414.037	0.275	2830970	TEST_ORIENT	n/a	n/a	6	2	WEB	BOOK	WEB	BEAK	16	[0, 0, 0]	-999	PAL1	0	R1142N
2415.02	4.0	2831953	TEST_PROBE	n/a	wordpools/wordpool_EN.txt	6	2	WEB	BOOK	WEB	BEAK	16	[0, 0, 0]	-999	PAL1	0	R1142N
2415.021	2.092	2831954	REC_START	n/a	n/a	6	-999	n/a	BOOK	n/a	n/a	16	[0, 0, 0]	-999	PAL1	0	R1142N
2417.113	0.744	2834046	REC_EVENT	2092.0	n/a	6	2	WEB	WEB	WEB	BEAK	16	[0, 0, 0]	-999	PAL1	0	R1142N
2417.857	2.18	2834790	REC_EVENT	2836.0	n/a	6	2	WEB	BOOK	WEB	BEAK	16	[0, 0, 0]	-999	PAL1	0	R1142N
2420.037	0.017	2836969	REC_END	n/a	n/a	6	-999	n/a	n/a	n/a	n/a	16	[0, 0, 0]	-999	PAL1	0	R1142N
2420.054	0.275	2836986	TEST_ORIENT	n/a	n/a	1	3	PLATE	DISH	ROOM	PLATE	16	[0, 0, 0]	-999	PAL1	0	R1142N
2420.873	4.0	2837805	TEST_PROBE	n/a	wordpools/wordpool_EN.txt	1	3	PLATE	DISH	ROOM	PLATE	16	[0, 0, 0]	-999	PAL1	0	R1142N
2420.874	1.975	2837806	REC_START	n/a	n/a	1	-999	n/a	DISH	n/a	n/a	16	[0, 0, 0]	-999	PAL1	0	R1142N
2422.849	0.252	2839781	REC_EVENT	1975.0	n/a	1	3	PLATE	PLATE	ROOM	PLATE	16	[0, 0, 0]	-999	PAL1	0	R1142N
2423.101	0.25	2840033	REC_EVENT	2227.0	n/a	1	3	PLATE	<>	ROOM	PLATE	16	[0, 0, 0]	-999	PAL1	0	R1142N
2423.351	2.548	2840283	REC_EVENT	2477.0	n/a	1	3	PLATE	DISH	ROOM	PLATE	16	[0, 0, 0]	-999	PAL1	0	R1142N
2425.899	0.024	2842831	REC_END	n/a	n/a	1	-999	n/a	n/a	n/a	n/a	16	[0, 0, 0]	-999	PAL1	0	R1142N
2425.923	0.275	2842855	TEST_ORIENT	n/a	n/a	4	4	PLANT	PLANT	PLANT	OAR	16	[0, 0, 0]	-999	PAL1	0	R1142N
2426.856	4.0	2843788	TEST_PROBE	n/a	wordpools/wordpool_EN.txt	4	4	PLANT	PLANT	PLANT	OAR	16	[0, 0, 0]	-999	PAL1	0	R1142N
2426.857	2.268	2843789	REC_START	n/a	n/a	4	-999	n/a	PLANT	n/a	n/a	16	[0, 0, 0]	-999	PAL1	0	R1142N
2429.125	2.758	2846057	REC_EVENT	2268.0	n/a	4	4	PLANT	PLANT	PLANT	OAR	16	[0, 0, 0]	-999	PAL1	0	R1142N
2431.883	0.024	2848815	REC_END	n/a	n/a	4	-999	n/a	n/a	n/a	n/a	16	[0, 0, 0]	-999	PAL1	0	R1142N
2431.907	0.275	2848839	TEST_ORIENT	n/a	n/a	5	5	SHEEP	OIL	SHEEP	SUN	16	[0, 0, 0]	-999	PAL1	0	R1142N
2432.824	4.0	2849756	TEST_PROBE	n/a	wordpools/wordpool_EN.txt	5	5	SHEEP	OIL	SHEEP	SUN	16	[0, 0, 0]	-999	PAL1	0	R1142N
2432.825	1.706	2849757	REC_START	n/a	n/a	5	-999	n/a	OIL	n/a	n/a	16	[0, 0, 0]	-999	PAL1	0	R1142N
2434.531	0.471	2851463	REC_EVENT	1706.0	n/a	5	5	SHEEP	SHEEP	SHEEP	SUN	16	[0, 0, 0]	-999	PAL1	0	R1142N
2435.002	0.162	2851934	REC_EVENT	2177.0	n/a	5	5	SHEEP	<>	SHEEP	SUN	16	[0, 0, 0]	-999	PAL1	0	R1142N
2435.164	2.677	2852096	REC_EVENT	2339.0	n/a	5	5	SHEEP	OIL	SHEEP	SUN	16	[0, 0, 0]	-999	PAL1	0	R1142N
2437.841	0.017	2854773	REC_END	n/a	n/a	5	-999	n/a	n/a	n/a	n/a	16	[0, 0, 0]	-999	PAL1	0	R1142N
2437.858	0.275	2854790	TEST_ORIENT	n/a	n/a	2	6	INK	EGG	EGG	INK	16	[0, 0, 0]	-999	PAL1	0	R1142N
2438.892	4.0	2855824	TEST_PROBE	n/a	wordpools/wordpool_EN.txt	2	6	INK	EGG	EGG	INK	16	[0, 0, 0]	-999	PAL1	0	R1142N
2438.893	1.601	2855825	REC_START	n/a	n/a	2	-999	n/a	EGG	n/a	n/a	16	[0, 0, 0]	-999	PAL1	0	R1142N
2440.494	0.275	2857426	REC_EVENT	1601.0	n/a	2	6	INK	EGG	EGG	INK	16	[0, 0, 0]	-999	PAL1	0	R1142N
2440.769	3.15	2857701	REC_EVENT	1876.0	n/a	2	6	INK	<>	EGG	INK	16	[0, 0, 0]	-999	PAL1	0	R1142N
2443.919	3.037	2860851	REC_END	n/a	n/a	2	-999	n/a	n/a	n/a	n/a	16	[0, 0, 0]	-999	PAL1	0	R1142N
2446.956	10.439	2863888	ENCODING_START	n/a	n/a	0	-999	n/a	n/a	n/a	n/a	17	[0, 0, 0]	-999	PAL1	0	R1142N
2457.395	0.275	2874326	STUDY_ORIENT	n/a	n/a	1	5	FILM	FILM	FILM	BADGE	17	[0, 0, 0]	-999	PAL1	0	R1142N
2458.346	4.0	2875277	STUDY_PAIR	n/a	wordpools/wordpool_EN.txt	1	5	FILM	FILM	FILM	BADGE	17	[0, 0, 0]	-999	PAL1	0	R1142N
2463.379	0.275	2880310	STUDY_ORIENT	n/a	n/a	2	6	DOG	n/a	DOG	DEER	17	[0, 0, 0]	-999	PAL1	0	R1142N
2464.346	4.0	2881277	STUDY_PAIR	n/a	wordpools/wordpool_EN.txt	2	6	DOG	n/a	DOG	DEER	17	[0, 0, 0]	-999	PAL1	0	R1142N
2469.38	0.275	2886311	STUDY_ORIENT	n/a	n/a	3	3	APE	MONSTER	HORSE	APE	17	[0, 0, 0]	-999	PAL1	0	R1142N
2470.163	4.0	2887094	STUDY_PAIR	n/a	wordpools/wordpool_EN.txt	3	3	APE	MONSTER	HORSE	APE	17	[0, 0, 0]	-999	PAL1	0	R1142N
2475.197	0.275	2892128	STUDY_ORIENT	n/a	n/a	4	2	LEAF	LEAF	LEAF	SHIELD	17	[0, 0, 0]	-999	PAL1	0	R1142N
2476.18	4.0	2893110	STUDY_PAIR	n/a	wordpools/wordpool_EN.txt	4	2	LEAF	LEAF	LEAF	SHIELD	17	[0, 0, 0]	-999	PAL1	0	R1142N
2481.214	0.275	2898144	STUDY_ORIENT	n/a	n/a	5	1	SNOW	n/a	SNOW	BLUSH	17	[0, 0, 0]	-999	PAL1	0	R1142N
2482.115	4.0	2899045	STUDY_PAIR	n/a	wordpools/wordpool_EN.txt	5	1	SNOW	n/a	SNOW	BLUSH	17	[0, 0, 0]	-999	PAL1	0	R1142N
2487.149	0.275	2904079	STUDY_ORIENT	n/a	n/a	6	4	MOOSE	MOOSE	MUG	MOOSE	17	[0, 0, 0]	-999	PAL1	0	R1142N
2488.05	4.0	2904980	STUDY_PAIR	n/a	wordpools/wordpool_EN.txt	6	4	MOOSE	MOOSE	MUG	MOOSE	17	[0, 0, 0]	-999	PAL1	0	R1142N
2492.067	1.0	2908997	START	n/a	n/a	-999	-999	n/a	n/a	n/a	n/a	17	[-999, -999, -999]	-999	PAL1	0	R1142N
2493.067	0.017	2909997	MATH_START	n/a	n/a	-999	-999	n/a	n/a	n/a	n/a	17	[0, 0, 0]	-999	PAL1	0	R1142N
2493.084	12.636	2910014	PROB	12601.0	n/a	-999	-999	n/a	n/a	n/a	n/a	17	[5, 8, 9]	22	PAL1	0	R1142N
2505.72	23.173	2922649	PROB	23173.0	n/a	-999	-999	n/a	n/a	n/a	n/a	17	[8, 8, 3]	22	PAL1	0	R1142N
2528.893	0.015	2945822	STOP	n/a	n/a	-999	-999	n/a	n/a	n/a	n/a	17	[-999, -999, -999]	-999	PAL1	0	R1142N
2528.908	0.0	2945837	MATH_END	n/a	n/a	-999	-999	n/a	n/a	n/a	n/a	17	[0, 0, 0]	-999	PAL1	0	R1142N
2528.908	0.016	2945837	TEST_START	n/a	n/a	-999	-999	n/a	n/a	n/a	n/a	17	[0, 0, 0]	-999	PAL1	0	R1142N
2528.924	0.275	2945853	TEST_ORIENT	n/a	n/a	5	1	SNOW	n/a	SNOW	BLUSH	17	[0, 0, 0]	-999	PAL1	0	R1142N
2529.957	4.0	2946886	TEST_PROBE	n/a	wordpools/wordpool_EN.txt	5	1	SNOW	n/a	SNOW	BLUSH	17	[0, 0, 0]	-999	PAL1	0	R1142N
2529.958	5.026	2946887	REC_START	n/a	n/a	5	-999	n/a	n/a	n/a	n/a	17	[0, 0, 0]	-999	PAL1	0	R1142N
2534.984	0.001	2951912	REC_END	n/a	n/a	5	-999	n/a	n/a	n/a	n/a	17	[0, 0, 0]	-999	PAL1	0	R1142N
2534.985	0.022	2951913	REC_EVENT	5027.0	n/a	5	1	SNOW	<>	SNOW	BLUSH	17	[0, 0, 0]	-999	PAL1	0	R1142N
2535.007	0.275	2951935	TEST_ORIENT	n/a	n/a	4	2	LEAF	LEAF	LEAF	SHIELD	17	[0, 0, 0]	-999	PAL1	0	R1142N
2536.024	4.0	2952952	TEST_PROBE	n/a	wordpools/wordpool_EN.txt	4	2	LEAF	LEAF	LEAF	SHIELD	17	[0, 0, 0]	-999	PAL1	0	R1142N
2536.025	1.312	2952953	REC_START	n/a	n/a	4	-999	n/a	LEAF	n/a	n/a	17	[0, 0, 0]	-999	PAL1	0	R1142N
2537.337	2.819	2954265	REC_EVENT	1312.0	n/a	4	2	LEAF	<>	LEAF	SHIELD	17	[0, 0, 0]	-999	PAL1	0	R1142N
2540.156	0.895	2957084	REC_EVENT	4131.0	n/a	4	2	LEAF	LEAF	LEAF	SHIELD	17	[0, 0, 0]	-999	PAL1	0	R1142N
2541.051	0.024	2957979	REC_END	n/a	n/a	4	-999	n/a	n/a	n/a	n/a	17	[0, 0, 0]	-999	PAL1	0	R1142N
2541.075	0.275	2958003	TEST_ORIENT	n/a	n/a	3	3	APE	MONSTER	HORSE	APE	17	[0, 0, 0]	-999	PAL1	0	R1142N
2541.892	4.0	2958820	TEST_PROBE	n/a	wordpools/wordpool_EN.txt	3	3	APE	MONSTER	HORSE	APE	17	[0, 0, 0]	-999	PAL1	0	R1142N
2541.893	2.004	2958821	REC_START	n/a	n/a	3	-999	n/a	MONSTER	n/a	n/a	17	[0, 0, 0]	-999	PAL1	0	R1142N
2543.897	0.645	2960825	REC_EVENT	2004.0	n/a	3	3	APE	APE	HORSE	APE	17	[0, 0, 0]	-999	PAL1	0	R1142N
2544.542	0.853	2961470	REC_EVENT	2649.0	n/a	3	3	APE	<>	HORSE	APE	17	[0, 0, 0]	-999	PAL1	0	R1142N
2545.395	1.524	2962323	REC_EVENT	3502.0	n/a	3	3	APE	MONSTER	HORSE	APE	17	[0, 0, 0]	-999	PAL1	0	R1142N
2546.919	0.007	2963847	REC_END	n/a	n/a	3	-999	n/a	n/a	n/a	n/a	17	[0, 0, 0]	-999	PAL1	0	R1142N
2546.926	0.275	2963854	TEST_ORIENT	n/a	n/a	6	4	MOOSE	MOOSE	MUG	MOOSE	17	[0, 0, 0]	-999	PAL1	0	R1142N
2547.743	4.0	2964671	TEST_PROBE	n/a	wordpools/wordpool_EN.txt	6	4	MOOSE	MOOSE	MUG	MOOSE	17	[0, 0, 0]	-999	PAL1	0	R1142N
2547.744	3.723	2964672	REC_START	n/a	n/a	6	-999	n/a	MOOSE	n/a	n/a	17	[0, 0, 0]	-999	PAL1	0	R1142N
2551.467	0.67	2968395	REC_EVENT	3723.0	n/a	6	4	MOOSE	MOOSE	MUG	MOOSE	17	[0, 0, 0]	-999	PAL1	0	R1142N
2552.137	0.634	2969065	REC_EVENT	4393.0	n/a	6	4	MOOSE	<>	MUG	MOOSE	17	[0, 0, 0]	-999	PAL1	0	R1142N
2552.771	0.024	2969699	REC_END	n/a	n/a	6	-999	n/a	n/a	n/a	n/a	17	[0, 0, 0]	-999	PAL1	0	R1142N
2552.795	0.275	2969723	TEST_ORIENT	n/a	n/a	1	5	FILM	FILM	FILM	BADGE	17	[0, 0, 0]	-999	PAL1	0	R1142N
2553.828	4.0	2970756	TEST_PROBE	n/a	wordpools/wordpool_EN.txt	1	5	FILM	FILM	FILM	BADGE	17	[0, 0, 0]	-999	PAL1	0	R1142N
2553.829	4.7	2970757	REC_START	n/a	n/a	1	-999	n/a	FILM	n/a	n/a	17	[0, 0, 0]	-999	PAL1	0	R1142N
2558.529	0.325	2975457	REC_EVENT	4700.0	n/a	1	5	FILM	FILM	FILM	BADGE	17	[0, 0, 0]	-999	PAL1	0	R1142N
2558.854	0.008	2975781	REC_END	n/a	n/a	1	-999	n/a	n/a	n/a	n/a	17	[0, 0, 0]	-999	PAL1	0	R1142N
2558.862	0.275	2975789	TEST_ORIENT	n/a	n/a	2	6	DOG	n/a	DOG	DEER	17	[0, 0, 0]	-999	PAL1	0	R1142N
2559.879	4.0	2976806	TEST_PROBE	n/a	wordpools/wordpool_EN.txt	2	6	DOG	n/a	DOG	DEER	17	[0, 0, 0]	-999	PAL1	0	R1142N
2559.88	2.211	2976807	REC_START	n/a	n/a	2	-999	n/a	n/a	n/a	n/a	17	[0, 0, 0]	-999	PAL1	0	R1142N
2562.091	2.814	2979018	REC_EVENT	2211.0	n/a	2	6	DOG	<>	DOG	DEER	17	[0, 0, 0]	-999	PAL1	0	R1142N
2564.905	5.508	2981832	REC_END	n/a	n/a	2	-999	n/a	n/a	n/a	n/a	17	[0, 0, 0]	-999	PAL1	0	R1142N
2570.413	10.454	2987340	ENCODING_START	n/a	n/a	0	-999	n/a	n/a	n/a	n/a	18	[0, 0, 0]	-999	PAL1	0	R1142N
2580.867	0.275	2997794	STUDY_ORIENT	n/a	n/a	1	5	CONE	CONE	WALL	CONE	18	[0, 0, 0]	-999	PAL1	0	R1142N
2581.749	4.0	2998676	STUDY_PAIR	n/a	wordpools/wordpool_EN.txt	1	5	CONE	CONE	WALL	CONE	18	[0, 0, 0]	-999	PAL1	0	R1142N
2586.783	0.275	3003709	STUDY_ORIENT	n/a	n/a	2	2	FENCE	FENCE	FENCE	SLIME	18	[0, 0, 0]	-999	PAL1	0	R1142N
2587.75	4.0	3004676	STUDY_PAIR	n/a	wordpools/wordpool_EN.txt	2	2	FENCE	FENCE	FENCE	SLIME	18	[0, 0, 0]	-999	PAL1	0	R1142N
2592.784	0.275	3009710	STUDY_ORIENT	n/a	n/a	3	1	CROWN	CROWN	CLAY	CROWN	18	[0, 0, 0]	-999	PAL1	0	R1142N
2593.785	4.0	3010711	STUDY_PAIR	n/a	wordpools/wordpool_EN.txt	3	1	CROWN	CROWN	CLAY	CROWN	18	[0, 0, 0]	-999	PAL1	0	R1142N
2598.819	0.275	3015745	STUDY_ORIENT	n/a	n/a	4	4	SOAP	SOAP	SOAP	STEM	18	[0, 0, 0]	-999	PAL1	0	R1142N
2599.669	4.0	3016595	STUDY_PAIR	n/a	wordpools/wordpool_EN.txt	4	4	SOAP	SOAP	SOAP	STEM	18	[0, 0, 0]	-999	PAL1	0	R1142N
2604.703	0.275	3021629	STUDY_ORIENT	n/a	n/a	5	3	HAND	n/a	HAND	SKI	18	[0, 0, 0]	-999	PAL1	0	R1142N
2605.737	4.0	3022663	STUDY_PAIR	n/a	wordpools/wordpool_EN.txt	5	3	HAND	n/a	HAND	SKI	18	[0, 0, 0]	-999	PAL1	0	R1142N
2610.771	0.275	3027697	STUDY_ORIENT	n/a	n/a	6	6	JAR	JAR	JAR	STREET	18	[0, 0, 0]	-999	PAL1	0	R1142N
2611.571	4.0	3028497	STUDY_PAIR	n/a	wordpools/wordpool_EN.txt	6	6	JAR	JAR	JAR	STREET	18	[0, 0, 0]	-999	PAL1	0	R1142N
2615.589	0.999	3032514	START	n/a	n/a	-999	-999	n/a	n/a	n/a	n/a	18	[-999, -999, -999]	-999	PAL1	0	R1142N
2616.588	0.018	3033513	MATH_START	n/a	n/a	-999	-999	n/a	n/a	n/a	n/a	18	[0, 0, 0]	-999	PAL1	0	R1142N
2616.606	9.151	3033531	PROB	9119.0	n/a	-999	-999	n/a	n/a	n/a	n/a	18	[4, 6, 2]	12	PAL1	0	R1142N
2625.757	17.736	3042682	PROB	17736.0	n/a	-999	-999	n/a	n/a	n/a	n/a	18	[5, 5, 9]	19	PAL1	0	R1142N
2643.493	0.017	3060417	STOP	n/a	n/a	-999	-999	n/a	n/a	n/a	n/a	18	[-999, -999, -999]	-999	PAL1	0	R1142N
2643.51	0.0	3060434	MATH_END	n/a	n/a	-999	-999	n/a	n/a	n/a	n/a	18	[0, 0, 0]	-999	PAL1	0	R1142N
2643.51	0.017	3060434	TEST_START	n/a	n/a	-999	-999	n/a	n/a	n/a	n/a	18	[0, 0, 0]	-999	PAL1	0	R1142N
2643.527	0.275	3060451	TEST_ORIENT	n/a	n/a	3	1	CROWN	CROWN	CLAY	CROWN	18	[0, 0, 0]	-999	PAL1	0	R1142N
2644.51	0.0	3061434	REC_START	n/a	n/a	3	-999	n/a	CROWN	n/a	n/a	18	[0, 0, 0]	-999	PAL1	0	R1142N
2644.51	4.0	3061434	TEST_PROBE	n/a	wordpools/wordpool_EN.txt	3	1	CROWN	CROWN	CLAY	CROWN	18	[0, 0, 0]	-999	PAL1	0	R1142N
2647.817	1.71	3064741	REC_EVENT	3307.0	n/a	3	1	CROWN	CROWN	CLAY	CROWN	18	[0, 0, 0]	-999	PAL1	0	R1142N
2649.527	0.017	3066451	REC_END	n/a	n/a	3	-999	n/a	n/a	n/a	n/a	18	[0, 0, 0]	-999	PAL1	0	R1142N
2649.544	0.275	3066468	TEST_ORIENT	n/a	n/a	2	2	FENCE	FENCE	FENCE	SLIME	18	[0, 0, 0]	-999	PAL1	0	R1142N
2650.344	4.0	3067268	TEST_PROBE	n/a	wordpools/wordpool_EN.txt	2	2	FENCE	FENCE	FENCE	SLIME	18	[0, 0, 0]	-999	PAL1	0	R1142N
2650.345	1.066	3067269	REC_START	n/a	n/a	2	-999	n/a	FENCE	n/a	n/a	18	[0, 0, 0]	-999	PAL1	0	R1142N
2651.411	3.95	3068335	REC_EVENT	1066.0	n/a	2	2	FENCE	FENCE	FENCE	SLIME	18	[0, 0, 0]	-999	PAL1	0	R1142N
2655.361	0.018	3072285	REC_END	n/a	n/a	2	-999	n/a	n/a	n/a	n/a	18	[0, 0, 0]	-999	PAL1	0	R1142N
2655.379	0.275	3072303	TEST_ORIENT	n/a	n/a	5	3	HAND	n/a	HAND	SKI	18	[0, 0, 0]	-999	PAL1	0	R1142N
2656.311	4.0	3073235	TEST_PROBE	n/a	wordpools/wordpool_EN.txt	5	3	HAND	n/a	HAND	SKI	18	[0, 0, 0]	-999	PAL1	0	R1142N
2656.312	0.986	3073236	REC_START	n/a	n/a	5	-999	n/a	n/a	n/a	n/a	18	[0, 0, 0]	-999	PAL1	0	R1142N
2657.298	4.042	3074222	REC_EVENT	986.0	n/a	5	3	HAND	<>	HAND	SKI	18	[0, 0, 0]	-999	PAL1	0	R1142N
2661.34	0.023	3078264	REC_END	n/a	n/a	5	-999	n/a	n/a	n/a	n/a	18	[0, 0, 0]	-999	PAL1	0	R1142N
2661.363	0.275	3078287	TEST_ORIENT	n/a	n/a	4	4	SOAP	SOAP	SOAP	STEM	18	[0, 0, 0]	-999	PAL1	0	R1142N
2662.195	4.0	3079119	TEST_PROBE	n/a	wordpools/wordpool_EN.txt	4	4	SOAP	SOAP	SOAP	STEM	18	[0, 0, 0]	-999	PAL1	0	R1142N
2662.196	1.63	3079120	REC_START	n/a	n/a	4	-999	n/a	SOAP	n/a	n/a	18	[0, 0, 0]	-999	PAL1	0	R1142N
2663.826	3.386	3080750	REC_EVENT	1630.0	n/a	4	4	SOAP	SOAP	SOAP	STEM	18	[0, 0, 0]	-999	PAL1	0	R1142N
2667.212	0.017	3084136	REC_END	n/a	n/a	4	-999	n/a	n/a	n/a	n/a	18	[0, 0, 0]	-999	PAL1	0	R1142N
2667.229	0.275	3084153	TEST_ORIENT	n/a	n/a	1	5	CONE	CONE	WALL	CONE	18	[0, 0, 0]	-999	PAL1	0	R1142N
2668.147	4.0	3085071	TEST_PROBE	n/a	wordpools/wordpool_EN.txt	1	5	CONE	CONE	WALL	CONE	18	[0, 0, 0]	-999	PAL1	0	R1142N
2668.148	1.932	3085072	REC_START	n/a	n/a	1	-999	n/a	CONE	n/a	n/a	18	[0, 0, 0]	-999	PAL1	0	R1142N
2670.08	3.093	3087003	REC_EVENT	1932.0	n/a	1	5	CONE	CONE	WALL	CONE	18	[0, 0, 0]	-999	PAL1	0	R1142N
2673.173	0.024	3090096	REC_END	n/a	n/a	1	-999	n/a	n/a	n/a	n/a	18	[0, 0, 0]	-999	PAL1	0	R1142N
2673.197	0.275	3090120	TEST_ORIENT	n/a	n/a	6	6	JAR	JAR	JAR	STREET	18	[0, 0, 0]	-999	PAL1	0	R1142N
2673.997	4.0	3090920	TEST_PROBE	n/a	wordpools/wordpool_EN.txt	6	6	JAR	JAR	JAR	STREET	18	[0, 0, 0]	-999	PAL1	0	R1142N
2673.998	1.048	3090921	REC_START	n/a	n/a	6	-999	n/a	JAR	n/a	n/a	18	[0, 0, 0]	-999	PAL1	0	R1142N
2675.046	3.968	3091969	REC_EVENT	1048.0	n/a	6	6	JAR	JAR	JAR	STREET	18	[0, 0, 0]	-999	PAL1	0	R1142N
2679.014	3.431	3095937	REC_END	n/a	n/a	6	-999	n/a	n/a	n/a	n/a	18	[0, 0, 0]	-999	PAL1	0	R1142N
2682.445	10.44	3099368	ENCODING_START	n/a	n/a	0	-999	n/a	n/a	n/a	n/a	19	[0, 0, 0]	-999	PAL1	0	R1142N
2692.885	0.275	3109808	STUDY_ORIENT	n/a	n/a	1	3	FUDGE	FUDGE	FUDGE	WHALE	19	[0, 0, 0]	-999	PAL1	0	R1142N
2693.852	4.0	3110775	STUDY_PAIR	n/a	wordpools/wordpool_EN.txt	1	3	FUDGE	FUDGE	FUDGE	WHALE	19	[0, 0, 0]	-999	PAL1	0	R1142N
2698.886	0.275	3115808	STUDY_ORIENT	n/a	n/a	2	4	WOOD	WILLOW	WOOD	CORN	19	[0, 0, 0]	-999	PAL1	0	R1142N
2699.769	4.0	3116691	STUDY_PAIR	n/a	wordpools/wordpool_EN.txt	2	4	WOOD	WILLOW	WOOD	CORN	19	[0, 0, 0]	-999	PAL1	0	R1142N
2704.804	0.275	3121726	STUDY_ORIENT	n/a	n/a	3	1	BOOK	BOAT	BOOK	ARM	19	[0, 0, 0]	-999	PAL1	0	R1142N
2705.704	4.0	3122626	STUDY_PAIR	n/a	wordpools/wordpool_EN.txt	3	1	BOOK	BOAT	BOOK	ARM	19	[0, 0, 0]	-999	PAL1	0	R1142N
2710.738	0.275	3127660	STUDY_ORIENT	n/a	n/a	4	2	BOAT	n/a	STRING	BOAT	19	[0, 0, 0]	-999	PAL1	0	R1142N
2711.688	4.0	3128610	STUDY_PAIR	n/a	wordpools/wordpool_EN.txt	4	2	BOAT	n/a	STRING	BOAT	19	[0, 0, 0]	-999	PAL1	0	R1142N
