onset	duration	sample	trial_type	response_time	stim_file	serialpos	probepos	probe_word	resp_word	study_1	study_2	list	test	answer	experiment	session	subject
0.0	93.53	508994	SESS_START	n/a	n/a	-999	-999	n/a	n/a	n/a	n/a	-999	[0, 0, 0]	-999	PAL1	0	R1060M
93.53	1.016	555757	START	n/a	n/a	-999	-999	n/a	n/a	n/a	n/a	-1	[-999, -999, -999]	-999	PAL1	0	R1060M
94.546	4.016	556265	PROB	3980	n/a	-999	-999	n/a	n/a	n/a	n/a	-1	[6, 1, 5]	12	PAL1	0	R1060M
98.562	4.451	558273	PROB	4427	n/a	-999	-999	n/a	n/a	n/a	n/a	-1	[3, 2, 5]	10	PAL1	0	R1060M
103.013	3.052	560498	PROB	3016	n/a	-999	-999	n/a	n/a	n/a	n/a	-1	[1, 8, 1]	10	PAL1	0	R1060M
106.065	3.883	562024	PROB	3852	n/a	-999	-999	n/a	n/a	n/a	n/a	-1	[3, 5, 9]	17	PAL1	0	R1060M
109.948	8.065	563965	PROB	8065	n/a	-999	-999	n/a	n/a	n/a	n/a	-1	[9, 9, 6]	24	PAL1	0	R1060M
118.013	64.96	567998	STOP	n/a	n/a	-999	-999	n/a	n/a	n/a	n/a	-1	[-999, -999, -999]	-999	PAL1	0	R1060M
182.973	10.443	600476	ENCODING_START	n/a	n/a	0	-999	n/a	n/a	n/a	n/a	1	[0, 0, 0]	-999	PAL1	0	R1060M
193.416	0.983	605697	STUDY_ORIENT	n/a	n/a	1	1	SNAKE	WOOD	SNAKE	CHEEK	1	[0, 0, 0]	-999	PAL1	0	R1060M
194.399	5.018	606188	STUDY_PAIR	n/a	wordpools/wordpool_EN.txt	1	1	SNAKE	WOOD	SNAKE	CHEEK	1	[0, 0, 0]	-999	PAL1	0	R1060M
199.417	1.017	608697	STUDY_ORIENT	n/a	n/a	2	6	TOAST	PASS	OAK	TOAST	1	[0, 0, 0]	-999	PAL1	0	R1060M
200.434	5.034	609206	STUDY_PAIR	n/a	wordpools/wordpool_EN.txt	2	6	TOAST	PASS	OAK	TOAST	1	[0, 0, 0]	-999	PAL1	0	R1060M
205.468	0.834	611723	STUDY_ORIENT	n/a	n/a	3	3	MUD	PASS	CUP	MUD	1	[0, 0, 0]	-999	PAL1	0	R1060M
206.302	5.034	612140	STUDY_PAIR	n/a	wordpools/wordpool_EN.txt	3	3	MUD	PASS	CUP	MUD	1	[0, 0, 0]	-999	PAL1	0	R1060M
211.336	0.817	614656	STUDY_ORIENT	n/a	n/a	4	4	SPEAR	PASS	SPEAR	FLEA	1	[0, 0, 0]	-999	PAL1	0	R1060M
212.153	5.034	615065	STUDY_PAIR	n/a	wordpools/wordpool_EN.txt	4	4	SPEAR	PASS	SPEAR	FLEA	1	[0, 0, 0]	-999	PAL1	0	R1060M
217.187	0.933	617582	STUDY_ORIENT	n/a	n/a	5	5	HOSE	PASS	SCHOOL	HOSE	1	[0, 0, 0]	-999	PAL1	0	R1060M
218.12	5.018	618048	STUDY_PAIR	n/a	wordpools/wordpool_EN.txt	5	5	HOSE	PASS	SCHOOL	HOSE	1	[0, 0, 0]	-999	PAL1	0	R1060M
223.138	0.899	620557	STUDY_ORIENT	n/a	n/a	6	2	ARM	PASS	WORLD	ARM	1	[0, 0, 0]	-999	PAL1	0	R1060M
224.037	4.001	621007	STUDY_PAIR	n/a	wordpools/wordpool_EN.txt	6	2	ARM	PASS	WORLD	ARM	1	[0, 0, 0]	-999	PAL1	0	R1060M
228.038	1.0	623007	START	n/a	n/a	-999	-999	n/a	n/a	n/a	n/a	1	[-999, -999, -999]	-999	PAL1	0	R1060M
229.038	0.017	623507	MATH_START	n/a	n/a	-999	-999	n/a	n/a	n/a	n/a	1	[0, 0, 0]	-999	PAL1	0	R1060M
229.055	4.751	623515	PROB	4718	n/a	-999	-999	n/a	n/a	n/a	n/a	1	[5, 7, 5]	17	PAL1	0	R1060M
233.806	3.784	625891	PROB	3759	n/a	-999	-999	n/a	n/a	n/a	n/a	1	[7, 4, 4]	15	PAL1	0	R1060M
237.59	4.101	627783	PROB	4079	n/a	-999	-999	n/a	n/a	n/a	n/a	1	[9, 3, 9]	21	PAL1	0	R1060M
241.691	4.769	629833	PROB	4739	n/a	-999	-999	n/a	n/a	n/a	n/a	1	[4, 1, 5]	10	PAL1	0	R1060M
246.46	8.706	632218	PROB	8706	n/a	-999	-999	n/a	n/a	n/a	n/a	1	[9, 5, 7]	21	PAL1	0	R1060M
255.166	0.012	636570	STOP	n/a	n/a	-999	-999	n/a	n/a	n/a	n/a	1	[-999, -999, -999]	-999	PAL1	0	R1060M
255.178	0.0	636576	MATH_END	n/a	n/a	-999	-999	n/a	n/a	n/a	n/a	1	[0, 0, 0]	-999	PAL1	0	R1060M
255.178	0.017	636576	TEST_START	n/a	n/a	-999	-999	n/a	n/a	n/a	n/a	1	[0, 0, 0]	-999	PAL1	0	R1060M
255.195	0.866	636585	TEST_ORIENT	n/a	n/a	1	1	SNAKE	WOOD	SNAKE	CHEEK	1	[0, 0, 0]	-999	PAL1	0	R1060M
256.061	0.001	637018	TEST_PROBE	n/a	wordpools/wordpool_EN.txt	1	1	SNAKE	WOOD	SNAKE	CHEEK	1	[0, 0, 0]	-999	PAL1	0	R1060M
256.062	2.101	637018	REC_START	n/a	n/a	1	-999	n/a	WOOD	n/a	n/a	1	[0, 0, 0]	-999	PAL1	0	R1060M
258.163	2.912	638069	REC_EVENT	2101	n/a	1	1	SNAKE	WOOD	SNAKE	CHEEK	1	[0, 0, 0]	-999	PAL1	0	R1060M
261.075	0.021	639525	REC_END	n/a	n/a	1	-999	n/a	n/a	n/a	n/a	1	[0, 0, 0]	-999	PAL1	0	R1060M
261.096	0.932	639535	TEST_ORIENT	n/a	n/a	6	2	ARM	PASS	WORLD	ARM	1	[0, 0, 0]	-999	PAL1	0	R1060M
262.028	0.001	640001	TEST_PROBE	n/a	wordpools/wordpool_EN.txt	6	2	ARM	PASS	WORLD	ARM	1	[0, 0, 0]	-999	PAL1	0	R1060M
262.029	1.508	640002	REC_START	n/a	n/a	6	-999	n/a	PASS	n/a	n/a	1	[0, 0, 0]	-999	PAL1	0	R1060M
263.537	3.5	640756	REC_EVENT	1508	n/a	6	2	ARM	PASS	WORLD	ARM	1	[0, 0, 0]	-999	PAL1	0	R1060M
267.037	0.009	642505	REC_END	n/a	n/a	6	-999	n/a	n/a	n/a	n/a	1	[0, 0, 0]	-999	PAL1	0	R1060M
267.046	0.883	642510	TEST_ORIENT	n/a	n/a	3	3	MUD	PASS	CUP	MUD	1	[0, 0, 0]	-999	PAL1	0	R1060M
267.929	0.001	642951	TEST_PROBE	n/a	wordpools/wordpool_EN.txt	3	3	MUD	PASS	CUP	MUD	1	[0, 0, 0]	-999	PAL1	0	R1060M
267.93	3.539	642952	REC_START	n/a	n/a	3	-999	n/a	PASS	n/a	n/a	1	[0, 0, 0]	-999	PAL1	0	R1060M
271.469	1.469	644721	REC_EVENT	3539	n/a	3	3	MUD	PASS	CUP	MUD	1	[0, 0, 0]	-999	PAL1	0	R1060M
272.938	0.009	645456	REC_END	n/a	n/a	3	-999	n/a	n/a	n/a	n/a	1	[0, 0, 0]	-999	PAL1	0	R1060M
272.947	0.934	645460	TEST_ORIENT	n/a	n/a	4	4	SPEAR	PASS	SPEAR	FLEA	1	[0, 0, 0]	-999	PAL1	0	R1060M
273.881	0.0	645927	TEST_PROBE	n/a	wordpools/wordpool_EN.txt	4	4	SPEAR	PASS	SPEAR	FLEA	1	[0, 0, 0]	-999	PAL1	0	R1060M
273.881	3.25	645927	REC_START	n/a	n/a	4	-999	n/a	PASS	n/a	n/a	1	[0, 0, 0]	-999	PAL1	0	R1060M
277.131	1.767	647552	REC_EVENT	3250	n/a	4	4	SPEAR	PASS	SPEAR	FLEA	1	[0, 0, 0]	-999	PAL1	0	R1060M
278.898	0.017	648436	REC_END	n/a	n/a	4	-999	n/a	n/a	n/a	n/a	1	[0, 0, 0]	-999	PAL1	0	R1060M
278.915	1.017	648444	TEST_ORIENT	n/a	n/a	5	5	HOSE	PASS	SCHOOL	HOSE	1	[0, 0, 0]	-999	PAL1	0	R1060M
279.932	0.0	648953	TEST_PROBE	n/a	wordpools/wordpool_EN.txt	5	5	HOSE	PASS	SCHOOL	HOSE	1	[0, 0, 0]	-999	PAL1	0	R1060M
279.932	2.638	648953	REC_START	n/a	n/a	5	-999	n/a	PASS	n/a	n/a	1	[0, 0, 0]	-999	PAL1	0	R1060M
282.57	2.379	650272	REC_EVENT	2638	n/a	5	5	HOSE	PASS	SCHOOL	HOSE	1	[0, 0, 0]	-999	PAL1	0	R1060M
284.949	0.017	651461	REC_END	n/a	n/a	5	-999	n/a	n/a	n/a	n/a	1	[0, 0, 0]	-999	PAL1	0	R1060M
284.966	1.017	651469	TEST_ORIENT	n/a	n/a	2	6	TOAST	PASS	OAK	TOAST	1	[0, 0, 0]	-999	PAL1	0	R1060M
285.983	0.001	651978	TEST_PROBE	n/a	wordpools/wordpool_EN.txt	2	6	TOAST	PASS	OAK	TOAST	1	[0, 0, 0]	-999	PAL1	0	R1060M
285.984	3.229	651978	REC_START	n/a	n/a	2	-999	n/a	PASS	n/a	n/a	1	[0, 0, 0]	-999	PAL1	0	R1060M
289.213	1.787	653593	REC_EVENT	3229	n/a	2	6	TOAST	PASS	OAK	TOAST	1	[0, 0, 0]	-999	PAL1	0	R1060M
291.0	8.486	654486	REC_END	n/a	n/a	2	-999	n/a	n/a	n/a	n/a	1	[0, 0, 0]	-999	PAL1	0	R1060M
299.486	10.452	658729	ENCODING_START	n/a	n/a	0	-999	n/a	n/a	n/a	n/a	2	[0, 0, 0]	-999	PAL1	0	R1060M
309.938	0.967	663955	STUDY_ORIENT	n/a	n/a	1	3	TIE	PASS	TIE	WOLF	2	[0, 0, 0]	-999	PAL1	0	R1060M
310.905	5.034	664438	STUDY_PAIR	n/a	wordpools/wordpool_EN.txt	1	3	TIE	PASS	TIE	WOLF	2	[0, 0, 0]	-999	PAL1	0	R1060M
315.939	1.0	666955	STUDY_ORIENT	n/a	n/a	2	6	SHEET	n/a	SHEET	MAT	2	[0, 0, 0]	-999	PAL1	0	R1060M
316.939	5.018	667455	STUDY_PAIR	n/a	wordpools/wordpool_EN.txt	2	6	SHEET	n/a	SHEET	MAT	2	[0, 0, 0]	-999	PAL1	0	R1060M
321.957	0.983	669964	STUDY_ORIENT	n/a	n/a	3	1	SHELL	NET	NET	SHELL	2	[0, 0, 0]	-999	PAL1	0	R1060M
322.94	5.018	670455	STUDY_PAIR	n/a	wordpools/wordpool_EN.txt	3	1	SHELL	NET	NET	SHELL	2	[0, 0, 0]	-999	PAL1	0	R1060M
327.958	0.9	672964	STUDY_ORIENT	n/a	n/a	4	2	FUR	PASS	TOAD	FUR	2	[0, 0, 0]	-999	PAL1	0	R1060M
328.858	5.018	673414	STUDY_PAIR	n/a	wordpools/wordpool_EN.txt	4	2	FUR	PASS	TOAD	FUR	2	[0, 0, 0]	-999	PAL1	0	R1060M
333.876	0.967	675923	STUDY_ORIENT	n/a	n/a	5	5	CRANE	NET	ROCK	CRANE	2	[0, 0, 0]	-999	PAL1	0	R1060M
334.843	5.034	676407	STUDY_PAIR	n/a	wordpools/wordpool_EN.txt	5	5	CRANE	NET	ROCK	CRANE	2	[0, 0, 0]	-999	PAL1	0	R1060M
339.877	0.934	678923	STUDY_ORIENT	n/a	n/a	6	4	BIRD	PASS	FILM	BIRD	2	[0, 0, 0]	-999	PAL1	0	R1060M
340.811	4.018	679390	STUDY_PAIR	n/a	wordpools/wordpool_EN.txt	6	4	BIRD	PASS	FILM	BIRD	2	[0, 0, 0]	-999	PAL1	0	R1060M
344.829	0.999	681399	START	n/a	n/a	-999	-999	n/a	n/a	n/a	n/a	2	[-999, -999, -999]	-999	PAL1	0	R1060M
345.828	0.017	681899	MATH_START	n/a	n/a	-999	-999	n/a	n/a	n/a	n/a	2	[0, 0, 0]	-999	PAL1	0	R1060M
345.845	3.385	681907	PROB	3353	n/a	-999	-999	n/a	n/a	n/a	n/a	2	[3, 2, 8]	13	PAL1	0	R1060M
349.23	6.134	683600	PROB	6112	n/a	-999	-999	n/a	n/a	n/a	n/a	2	[9, 7, 8]	24	PAL1	0	R1060M
355.364	3.567	686667	PROB	3537	n/a	-999	-999	n/a	n/a	n/a	n/a	2	[6, 6, 3]	15	PAL1	0	R1060M
358.931	3.017	688450	PROB	2994	n/a	-999	-999	n/a	n/a	n/a	n/a	2	[1, 9, 8]	18	PAL1	0	R1060M
361.948	3.105	689958	PROB	3105	n/a	-999	-999	n/a	n/a	n/a	n/a	2	[8, 8, 4]	20	PAL1	0	R1060M
365.053	0.013	691511	STOP	n/a	n/a	-999	-999	n/a	n/a	n/a	n/a	2	[-999, -999, -999]	-999	PAL1	0	R1060M
365.066	0.0	691517	MATH_END	n/a	n/a	-999	-999	n/a	n/a	n/a	n/a	2	[0, 0, 0]	-999	PAL1	0	R1060M
365.066	0.017	691517	TEST_START	n/a	n/a	-999	-999	n/a	n/a	n/a	n/a	2	[0, 0, 0]	-999	PAL1	0	R1060M
365.083	0.883	691526	TEST_ORIENT	n/a	n/a	3	1	SHELL	NET	NET	SHELL	2	[0, 0, 0]	-999	PAL1	0	R1060M
365.966	0.0	691967	TEST_PROBE	n/a	wordpools/wordpool_EN.txt	3	1	SHELL	NET	NET	SHELL	2	[0, 0, 0]	-999	PAL1	0	R1060M
365.966	1.31	691967	REC_START	n/a	n/a	3	-999	n/a	NET	n/a	n/a	2	[0, 0, 0]	-999	PAL1	0	R1060M
367.276	3.707	692622	REC_EVENT	1310	n/a	3	1	SHELL	NET	NET	SHELL	2	[0, 0, 0]	-999	PAL1	0	R1060M
370.983	0.017	694476	REC_END	n/a	n/a	3	-999	n/a	n/a	n/a	n/a	2	[0, 0, 0]	-999	PAL1	0	R1060M
371.0	1.017	694484	TEST_ORIENT	n/a	n/a	4	2	FUR	PASS	TOAD	FUR	2	[0, 0, 0]	-999	PAL1	0	R1060M
372.017	0.0	694993	TEST_PROBE	n/a	wordpools/wordpool_EN.txt	4	2	FUR	PASS	TOAD	FUR	2	[0, 0, 0]	-999	PAL1	0	R1060M
372.017	1.169	694993	REC_START	n/a	n/a	4	-999	n/a	PASS	n/a	n/a	2	[0, 0, 0]	-999	PAL1	0	R1060M
373.186	1.266	695577	REC_EVENT	1169	n/a	4	2	FUR	<>	TOAD	FUR	2	[0, 0, 0]	-999	PAL1	0	R1060M
374.452	2.582	696210	REC_EVENT	2435	n/a	4	2	FUR	PASS	TOAD	FUR	2	[0, 0, 0]	-999	PAL1	0	R1060M
377.034	0.017	697501	REC_END	n/a	n/a	4	-999	n/a	n/a	n/a	n/a	2	[0, 0, 0]	-999	PAL1	0	R1060M
377.051	0.884	697509	TEST_ORIENT	n/a	n/a	1	3	TIE	PASS	TIE	WOLF	2	[0, 0, 0]	-999	PAL1	0	R1060M
377.935	0.0	697951	TEST_PROBE	n/a	wordpools/wordpool_EN.txt	1	3	TIE	PASS	TIE	WOLF	2	[0, 0, 0]	-999	PAL1	0	R1060M
377.935	4.01	697951	REC_START	n/a	n/a	1	-999	n/a	PASS	n/a	n/a	2	[0, 0, 0]	-999	PAL1	0	R1060M
381.945	1.007	699956	REC_EVENT	4010	n/a	1	3	TIE	PASS	TIE	WOLF	2	[0, 0, 0]	-999	PAL1	0	R1060M
382.952	0.017	700460	REC_END	n/a	n/a	1	-999	n/a	n/a	n/a	n/a	2	[0, 0, 0]	-999	PAL1	0	R1060M
382.969	0.883	700468	TEST_ORIENT	n/a	n/a	6	4	BIRD	PASS	FILM	BIRD	2	[0, 0, 0]	-999	PAL1	0	R1060M
383.852	0.001	700910	TEST_PROBE	n/a	wordpools/wordpool_EN.txt	6	4	BIRD	PASS	FILM	BIRD	2	[0, 0, 0]	-999	PAL1	0	R1060M
383.853	3.637	700910	REC_START	n/a	n/a	6	-999	n/a	PASS	n/a	n/a	2	[0, 0, 0]	-999	PAL1	0	R1060M
387.49	1.371	702729	REC_EVENT	3637	n/a	6	4	BIRD	PASS	FILM	BIRD	2	[0, 0, 0]	-999	PAL1	0	R1060M
388.861	0.009	703414	REC_END	n/a	n/a	6	-999	n/a	n/a	n/a	n/a	2	[0, 0, 0]	-999	PAL1	0	R1060M
388.87	0.917	703419	TEST_ORIENT	n/a	n/a	5	5	CRANE	NET	ROCK	CRANE	2	[0, 0, 0]	-999	PAL1	0	R1060M
389.787	0.0	703877	TEST_PROBE	n/a	wordpools/wordpool_EN.txt	5	5	CRANE	NET	ROCK	CRANE	2	[0, 0, 0]	-999	PAL1	0	R1060M
389.787	2.456	703877	REC_START	n/a	n/a	5	-999	n/a	NET	n/a	n/a	2	[0, 0, 0]	-999	PAL1	0	R1060M
392.243	2.561	705105	REC_EVENT	2456	n/a	5	5	CRANE	NET	ROCK	CRANE	2	[0, 0, 0]	-999	PAL1	0	R1060M
394.804	0.017	706385	REC_END	n/a	n/a	5	-999	n/a	n/a	n/a	n/a	2	[0, 0, 0]	-999	PAL1	0	R1060M
394.821	0.917	706394	TEST_ORIENT	n/a	n/a	2	6	SHEET	n/a	SHEET	MAT	2	[0, 0, 0]	-999	PAL1	0	R1060M
395.738	0.001	706852	TEST_PROBE	n/a	wordpools/wordpool_EN.txt	2	6	SHEET	n/a	SHEET	MAT	2	[0, 0, 0]	-999	PAL1	0	R1060M
395.739	4.284	706853	REC_START	n/a	n/a	2	-999	n/a	n/a	n/a	n/a	2	[0, 0, 0]	-999	PAL1	0	R1060M
400.023	0.724	708995	REC_EVENT	4284	n/a	2	6	SHEET	<>	SHEET	MAT	2	[0, 0, 0]	-999	PAL1	0	R1060M
400.747	2.914	709357	REC_END	n/a	n/a	2	-999	n/a	n/a	n/a	n/a	2	[0, 0, 0]	-999	PAL1	0	R1060M
403.661	10.449	710814	ENCODING_START	n/a	n/a	0	-999	n/a	n/a	n/a	n/a	3	[0, 0, 0]	-999	PAL1	0	R1060M
414.11	1.016	716038	STUDY_ORIENT	n/a	n/a	1	5	WOOD	n/a	WOOD	SHIRT	3	[0, 0, 0]	-999	PAL1	0	R1060M
415.126	5.018	716546	STUDY_PAIR	n/a	wordpools/wordpool_EN.txt	1	5	WOOD	n/a	WOOD	SHIRT	3	[0, 0, 0]	-999	PAL1	0	R1060M
420.144	0.849	719055	STUDY_ORIENT	n/a	n/a	2	2	ROOF	n/a	ROOF	THREAD	3	[0, 0, 0]	-999	PAL1	0	R1060M
420.993	5.018	719479	STUDY_PAIR	n/a	wordpools/wordpool_EN.txt	2	2	ROOF	n/a	ROOF	THREAD	3	[0, 0, 0]	-999	PAL1	0	R1060M
426.011	0.983	721988	STUDY_ORIENT	n/a	n/a	3	1	CLOTH	n/a	DOLL	CLOTH	3	[0, 0, 0]	-999	PAL1	0	R1060M
426.994	5.018	722480	STUDY_PAIR	n/a	wordpools/wordpool_EN.txt	3	1	CLOTH	n/a	DOLL	CLOTH	3	[0, 0, 0]	-999	PAL1	0	R1060M
432.012	0.867	724988	STUDY_ORIENT	n/a	n/a	4	4	EGG	n/a	EGG	TENT	3	[0, 0, 0]	-999	PAL1	0	R1060M
432.879	5.034	725422	STUDY_PAIR	n/a	wordpools/wordpool_EN.txt	4	4	EGG	n/a	EGG	TENT	3	[0, 0, 0]	-999	PAL1	0	R1060M
437.913	0.767	727939	STUDY_ORIENT	n/a	n/a	5	3	SALT	n/a	PLANE	SALT	3	[0, 0, 0]	-999	PAL1	0	R1060M
438.68	5.034	728322	STUDY_PAIR	n/a	wordpools/wordpool_EN.txt	5	3	SALT	n/a	PLANE	SALT	3	[0, 0, 0]	-999	PAL1	0	R1060M
443.714	0.884	730839	STUDY_ORIENT	n/a	n/a	6	6	SUN	n/a	JUICE	SUN	3	[0, 0, 0]	-999	PAL1	0	R1060M
444.598	4.018	731281	STUDY_PAIR	n/a	wordpools/wordpool_EN.txt	6	6	SUN	n/a	JUICE	SUN	3	[0, 0, 0]	-999	PAL1	0	R1060M
448.616	0.999	733290	START	n/a	n/a	-999	-999	n/a	n/a	n/a	n/a	3	[-999, -999, -999]	-999	PAL1	0	R1060M
449.615	0.017	733789	MATH_START	n/a	n/a	-999	-999	n/a	n/a	n/a	n/a	3	[0, 0, 0]	-999	PAL1	0	R1060M
449.632	3.301	733798	PROB	3269	n/a	-999	-999	n/a	n/a	n/a	n/a	3	[4, 1, 1]	6	PAL1	0	R1060M
452.933	3.667	735448	PROB	3640	n/a	-999	-999	n/a	n/a	n/a	n/a	3	[5, 2, 6]	13	PAL1	0	R1060M
456.6	4.018	737282	PROB	3997	n/a	-999	-999	n/a	n/a	n/a	n/a	3	[4, 2, 3]	9	PAL1	0	R1060M
460.618	6.585	739291	PROB	6564	n/a	-999	-999	n/a	n/a	n/a	n/a	3	[9, 8, 5]	22	PAL1	0	R1060M
467.203	3.634	742583	PROB	3634	n/a	-999	-999	n/a	n/a	n/a	n/a	3	[6, 7, 2]	15	PAL1	0	R1060M
470.837	0.016	744400	STOP	n/a	n/a	-999	-999	n/a	n/a	n/a	n/a	3	[-999, -999, -999]	-999	PAL1	0	R1060M
470.853	0.0	744408	MATH_END	n/a	n/a	-999	-999	n/a	n/a	n/a	n/a	3	[0, 0, 0]	-999	PAL1	0	R1060M
470.853	0.017	744408	TEST_START	n/a	n/a	-999	-999	n/a	n/a	n/a	n/a	3	[0, 0, 0]	-999	PAL1	0	R1060M
470.87	0.983	744416	TEST_ORIENT	n/a	n/a	3	1	CLOTH	n/a	DOLL	CLOTH	3	[0, 0, 0]	-999	PAL1	0	R1060M
471.853	0.001	744908	TEST_PROBE	n/a	wordpools/wordpool_EN.txt	3	1	CLOTH	n/a	DOLL	CLOTH	3	[0, 0, 0]	-999	PAL1	0	R1060M
471.854	5.008	744908	REC_START	n/a	n/a	3	-999	n/a	n/a	n/a	n/a	3	[0, 0, 0]	-999	PAL1	0	R1060M
476.862	0.001	747412	REC_END	n/a	n/a	3	-999	n/a	n/a	n/a	n/a	3	[0, 0, 0]	-999	PAL1	0	R1060M
476.863	0.008	747413	REC_EVENT	5009	n/a	3	1	CLOTH	<>	DOLL	CLOTH	3	[0, 0, 0]	-999	PAL1	0	R1060M
476.871	0.867	747417	TEST_ORIENT	n/a	n/a	2	2	ROOF	n/a	ROOF	THREAD	3	[0, 0, 0]	-999	PAL1	0	R1060M
477.738	0.001	747850	TEST_PROBE	n/a	wordpools/wordpool_EN.txt	2	2	ROOF	n/a	ROOF	THREAD	3	[0, 0, 0]	-999	PAL1	0	R1060M
477.739	3.739	747851	REC_START	n/a	n/a	2	-999	n/a	n/a	n/a	n/a	3	[0, 0, 0]	-999	PAL1	0	R1060M
481.478	1.285	749720	REC_EVENT	3739	n/a	2	2	ROOF	<>	ROOF	THREAD	3	[0, 0, 0]	-999	PAL1	0	R1060M
482.763	0.009	750363	REC_END	n/a	n/a	2	-999	n/a	n/a	n/a	n/a	3	[0, 0, 0]	-999	PAL1	0	R1060M
482.772	1.017	750367	TEST_ORIENT	n/a	n/a	5	3	SALT	n/a	PLANE	SALT	3	[0, 0, 0]	-999	PAL1	0	R1060M
483.789	0.0	750875	TEST_PROBE	n/a	wordpools/wordpool_EN.txt	5	3	SALT	n/a	PLANE	SALT	3	[0, 0, 0]	-999	PAL1	0	R1060M
483.789	5.015	750875	REC_START	n/a	n/a	5	-999	n/a	n/a	n/a	n/a	3	[0, 0, 0]	-999	PAL1	0	R1060M
488.804	0.002	753383	REC_EVENT	5015	n/a	5	3	SALT	<>	PLANE	SALT	3	[0, 0, 0]	-999	PAL1	0	R1060M
488.806	0.017	753384	REC_END	n/a	n/a	5	-999	n/a	n/a	n/a	n/a	3	[0, 0, 0]	-999	PAL1	0	R1060M
488.823	1.017	753392	TEST_ORIENT	n/a	n/a	4	4	EGG	n/a	EGG	TENT	3	[0, 0, 0]	-999	PAL1	0	R1060M
489.84	0.001	753901	TEST_PROBE	n/a	wordpools/wordpool_EN.txt	4	4	EGG	n/a	EGG	TENT	3	[0, 0, 0]	-999	PAL1	0	R1060M
489.841	3.059	753901	REC_START	n/a	n/a	4	-999	n/a	n/a	n/a	n/a	3	[0, 0, 0]	-999	PAL1	0	R1060M
492.9	1.949	755431	REC_EVENT	3059	n/a	4	4	EGG	<>	EGG	TENT	3	[0, 0, 0]	-999	PAL1	0	R1060M
494.849	0.009	756405	REC_END	n/a	n/a	4	-999	n/a	n/a	n/a	n/a	3	[0, 0, 0]	-999	PAL1	0	R1060M
494.858	0.85	756410	TEST_ORIENT	n/a	n/a	1	5	WOOD	n/a	WOOD	SHIRT	3	[0, 0, 0]	-999	PAL1	0	R1060M
495.708	0.0	756835	REC_START	n/a	n/a	1	-999	n/a	n/a	n/a	n/a	3	[0, 0, 0]	-999	PAL1	0	R1060M
495.708	4.829	756835	TEST_PROBE	n/a	wordpools/wordpool_EN.txt	1	5	WOOD	n/a	WOOD	SHIRT	3	[0, 0, 0]	-999	PAL1	0	R1060M
500.537	0.189	759249	REC_EVENT	4829	n/a	1	5	WOOD	<>	WOOD	SHIRT	3	[0, 0, 0]	-999	PAL1	0	R1060M
500.726	0.016	759344	REC_END	n/a	n/a	1	-999	n/a	n/a	n/a	n/a	3	[0, 0, 0]	-999	PAL1	0	R1060M
500.742	1.001	759352	TEST_ORIENT	n/a	n/a	6	6	SUN	n/a	JUICE	SUN	3	[0, 0, 0]	-999	PAL1	0	R1060M
501.743	0.0	759852	TEST_PROBE	n/a	wordpools/wordpool_EN.txt	6	6	SUN	n/a	JUICE	SUN	3	[0, 0, 0]	-999	PAL1	0	R1060M
501.743	4.876	759852	REC_START	n/a	n/a	6	-999	n/a	n/a	n/a	n/a	3	[0, 0, 0]	-999	PAL1	0	R1060M
506.619	0.141	762290	REC_EVENT	4876	n/a	6	6	SUN	<>	JUICE	SUN	3	[0, 0, 0]	-999	PAL1	0	R1060M
506.76	2.285	762360	REC_END	n/a	n/a	6	-999	n/a	n/a	n/a	n/a	3	[0, 0, 0]	-999	PAL1	0	R1060M
509.045	10.452	763503	ENCODING_START	n/a	n/a	0	-999	n/a	n/a	n/a	n/a	4	[0, 0, 0]	-999	PAL1	0	R1060M
519.497	0.817	768729	STUDY_ORIENT	n/a	n/a	1	5	SOCK	SOMETHING WITH C	TRUCK	SOCK	4	[0, 0, 0]	-999	PAL1	0	R1060M
520.314	5.034	769137	STUDY_PAIR	n/a	wordpools/wordpool_EN.txt	1	5	SOCK	SOMETHING WITH C	TRUCK	SOCK	4	[0, 0, 0]	-999	PAL1	0	R1060M
525.348	1.0	771654	STUDY_ORIENT	n/a	n/a	2	6	CHALK	SOCK	CHALK	PEN	4	[0, 0, 0]	-999	PAL1	0	R1060M
526.348	5.018	772154	STUDY_PAIR	n/a	wordpools/wordpool_EN.txt	2	6	CHALK	SOCK	CHALK	PEN	4	[0, 0, 0]	-999	PAL1	0	R1060M
531.366	0.867	774663	STUDY_ORIENT	n/a	n/a	3	1	DOOR	n/a	DOOR	SPONGE	4	[0, 0, 0]	-999	PAL1	0	R1060M
532.233	5.034	775096	STUDY_PAIR	n/a	wordpools/wordpool_EN.txt	3	1	DOOR	n/a	DOOR	SPONGE	4	[0, 0, 0]	-999	PAL1	0	R1060M
537.267	0.984	777613	STUDY_ORIENT	n/a	n/a	4	4	FARM	n/a	FARM	TOY	4	[0, 0, 0]	-999	PAL1	0	R1060M
538.251	5.034	778105	STUDY_PAIR	n/a	wordpools/wordpool_EN.txt	4	4	FARM	n/a	FARM	TOY	4	[0, 0, 0]	-999	PAL1	0	R1060M
543.285	1.017	780622	STUDY_ORIENT	n/a	n/a	5	3	BOARD	n/a	SKY	BOARD	4	[0, 0, 0]	-999	PAL1	0	R1060M
544.302	5.034	781130	STUDY_PAIR	n/a	wordpools/wordpool_EN.txt	5	3	BOARD	n/a	SKY	BOARD	4	[0, 0, 0]	-999	PAL1	0	R1060M
549.336	0.967	783647	STUDY_ORIENT	n/a	n/a	6	2	FOX	n/a	STEM	FOX	4	[0, 0, 0]	-999	PAL1	0	R1060M
550.303	4.001	784131	STUDY_PAIR	n/a	wordpools/wordpool_EN.txt	6	2	FOX	n/a	STEM	FOX	4	[0, 0, 0]	-999	PAL1	0	R1060M
554.304	1.0	786131	START	n/a	n/a	-999	-999	n/a	n/a	n/a	n/a	4	[-999, -999, -999]	-999	PAL1	0	R1060M
555.304	0.017	786631	MATH_START	n/a	n/a	-999	-999	n/a	n/a	n/a	n/a	4	[0, 0, 0]	-999	PAL1	0	R1060M
555.321	2.383	786640	PROB	2364	n/a	-999	-999	n/a	n/a	n/a	n/a	4	[1, 6, 1]	8	PAL1	0	R1060M
557.704	6.469	787831	PROB	6438	n/a	-999	-999	n/a	n/a	n/a	n/a	4	[5, 8, 9]	22	PAL1	0	R1060M
564.173	7.885	791065	PROB	7864	n/a	-999	-999	n/a	n/a	n/a	n/a	4	[4, 8, 9]	21	PAL1	0	R1060M
572.058	4.5	795008	PROB	4500	n/a	-999	-999	n/a	n/a	n/a	n/a	4	[5, 2, 8]	15	PAL1	0	R1060M
576.558	0.016	797257	STOP	n/a	n/a	-999	-999	n/a	n/a	n/a	n/a	4	[-999, -999, -999]	-999	PAL1	0	R1060M
576.574	0.0	797265	MATH_END	n/a	n/a	-999	-999	n/a	n/a	n/a	n/a	4	[0, 0, 0]	-999	PAL1	0	R1060M
576.574	0.017	797265	TEST_START	n/a	n/a	-999	-999	n/a	n/a	n/a	n/a	4	[0, 0, 0]	-999	PAL1	0	R1060M
576.591	0.834	797274	TEST_ORIENT	n/a	n/a	3	1	DOOR	n/a	DOOR	SPONGE	4	[0, 0, 0]	-999	PAL1	0	R1060M
577.425	0.001	797691	TEST_PROBE	n/a	wordpools/wordpool_EN.txt	3	1	DOOR	n/a	DOOR	SPONGE	4	[0, 0, 0]	-999	PAL1	0	R1060M
577.426	5.008	797691	REC_START	n/a	n/a	3	-999	n/a	n/a	n/a	n/a	4	[0, 0, 0]	-999	PAL1	0	R1060M
582.434	0.001	800195	REC_END	n/a	n/a	3	-999	n/a	n/a	n/a	n/a	4	[0, 0, 0]	-999	PAL1	0	R1060M
582.435	0.008	800196	REC_EVENT	5009	n/a	3	1	DOOR	<>	DOOR	SPONGE	4	[0, 0, 0]	-999	PAL1	0	R1060M
582.443	0.967	800200	TEST_ORIENT	n/a	n/a	6	2	FOX	n/a	STEM	FOX	4	[0, 0, 0]	-999	PAL1	0	R1060M
583.41	0.0	800683	REC_START	n/a	n/a	6	-999	n/a	n/a	n/a	n/a	4	[0, 0, 0]	-999	PAL1	0	R1060M
583.41	5.015	800683	TEST_PROBE	n/a	wordpools/wordpool_EN.txt	6	2	FOX	n/a	STEM	FOX	4	[0, 0, 0]	-999	PAL1	0	R1060M
588.425	0.002	803191	REC_EVENT	5015	n/a	6	2	FOX	<>	STEM	FOX	4	[0, 0, 0]	-999	PAL1	0	R1060M
588.427	0.017	803192	REC_END	n/a	n/a	6	-999	n/a	n/a	n/a	n/a	4	[0, 0, 0]	-999	PAL1	0	R1060M
588.444	0.967	803200	TEST_ORIENT	n/a	n/a	5	3	BOARD	n/a	SKY	BOARD	4	[0, 0, 0]	-999	PAL1	0	R1060M
589.411	0.001	803684	TEST_PROBE	n/a	wordpools/wordpool_EN.txt	5	3	BOARD	n/a	SKY	BOARD	4	[0, 0, 0]	-999	PAL1	0	R1060M
589.412	4.967	803684	REC_START	n/a	n/a	5	-999	n/a	n/a	n/a	n/a	4	[0, 0, 0]	-999	PAL1	0	R1060M
594.379	0.058	806167	REC_EVENT	4967	n/a	5	3	BOARD	<>	SKY	BOARD	4	[0, 0, 0]	-999	PAL1	0	R1060M
594.437	0.008	806196	REC_END	n/a	n/a	5	-999	n/a	n/a	n/a	n/a	4	[0, 0, 0]	-999	PAL1	0	R1060M
594.445	0.834	806200	TEST_ORIENT	n/a	n/a	4	4	FARM	n/a	FARM	TOY	4	[0, 0, 0]	-999	PAL1	0	R1060M
595.279	0.0	806617	TEST_PROBE	n/a	wordpools/wordpool_EN.txt	4	4	FARM	n/a	FARM	TOY	4	[0, 0, 0]	-999	PAL1	0	R1060M
595.279	5.015	806617	REC_START	n/a	n/a	4	-999	n/a	n/a	n/a	n/a	4	[0, 0, 0]	-999	PAL1	0	R1060M
600.294	0.002	809125	REC_EVENT	5015	n/a	4	4	FARM	<>	FARM	TOY	4	[0, 0, 0]	-999	PAL1	0	R1060M
600.296	0.017	809126	REC_END	n/a	n/a	4	-999	n/a	n/a	n/a	n/a	4	[0, 0, 0]	-999	PAL1	0	R1060M
600.313	0.917	809134	TEST_ORIENT	n/a	n/a	1	5	SOCK	SOMETHING WITH C	TRUCK	SOCK	4	[0, 0, 0]	-999	PAL1	0	R1060M
601.23	0.001	809593	TEST_PROBE	n/a	wordpools/wordpool_EN.txt	1	5	SOCK	SOMETHING WITH C	TRUCK	SOCK	4	[0, 0, 0]	-999	PAL1	0	R1060M
601.231	3.582	809593	REC_START	n/a	n/a	1	-999	n/a	SOMETHING WITH C	n/a	n/a	4	[0, 0, 0]	-999	PAL1	0	R1060M
604.813	1.444	811384	REC_EVENT	3582	n/a	1	5	SOCK	SOMETHING WITH C	TRUCK	SOCK	4	[0, 0, 0]	-999	PAL1	0	R1060M
606.257	0.007	812106	REC_END	n/a	n/a	1	-999	n/a	n/a	n/a	n/a	4	[0, 0, 0]	-999	PAL1	0	R1060M
606.264	1.001	812110	TEST_ORIENT	n/a	n/a	2	6	CHALK	SOCK	CHALK	PEN	4	[0, 0, 0]	-999	PAL1	0	R1060M
607.265	0.0	812610	TEST_PROBE	n/a	wordpools/wordpool_EN.txt	2	6	CHALK	SOCK	CHALK	PEN	4	[0, 0, 0]	-999	PAL1	0	R1060M
607.265	1.725	812610	REC_START	n/a	n/a	2	-999	n/a	SOCK	n/a	n/a	4	[0, 0, 0]	-999	PAL1	0	R1060M
608.99	3.292	813473	REC_EVENT	1725	n/a	2	6	CHALK	SOCK	CHALK	PEN	4	[0, 0, 0]	-999	PAL1	0	R1060M
612.282	4.411	815118	REC_END	n/a	n/a	2	-999	n/a	n/a	n/a	n/a	4	[0, 0, 0]	-999	PAL1	0	R1060M
616.693	10.442	817324	ENCODING_START	n/a	n/a	0	-999	n/a	n/a	n/a	n/a	5	[0, 0, 0]	-999	PAL1	0	R1060M
627.135	0.934	822545	STUDY_ORIENT	n/a	n/a	1	3	JEEP	PASS	JEEP	WAND	5	[0, 0, 0]	-999	PAL1	0	R1060M
628.069	5.034	823012	STUDY_PAIR	n/a	wordpools/wordpool_EN.txt	1	3	JEEP	PASS	JEEP	WAND	5	[0, 0, 0]	-999	PAL1	0	R1060M
633.103	0.849	825528	STUDY_ORIENT	n/a	n/a	2	4	HOOK	OWL	HOOK	SHRIMP	5	[0, 0, 0]	-999	PAL1	0	R1060M
633.952	5.018	825953	STUDY_PAIR	n/a	wordpools/wordpool_EN.txt	2	4	HOOK	OWL	HOOK	SHRIMP	5	[0, 0, 0]	-999	PAL1	0	R1060M
638.97	0.983	828462	STUDY_ORIENT	n/a	n/a	3	5	CAGE	STOVE	CAGE	HEN	5	[0, 0, 0]	-999	PAL1	0	R1060M
639.953	5.018	828953	STUDY_PAIR	n/a	wordpools/wordpool_EN.txt	3	5	CAGE	STOVE	CAGE	HEN	5	[0, 0, 0]	-999	PAL1	0	R1060M
644.971	0.867	831462	STUDY_ORIENT	n/a	n/a	4	2	PEAR	HOOK	CALF	PEAR	5	[0, 0, 0]	-999	PAL1	0	R1060M
645.838	5.034	831896	STUDY_PAIR	n/a	wordpools/wordpool_EN.txt	4	2	PEAR	HOOK	CALF	PEAR	5	[0, 0, 0]	-999	PAL1	0	R1060M
650.872	0.867	834412	STUDY_ORIENT	n/a	n/a	5	1	POND	CAR	CAR	POND	5	[0, 0, 0]	-999	PAL1	0	R1060M
651.739	5.018	834846	STUDY_PAIR	n/a	wordpools/wordpool_EN.txt	5	1	POND	CAR	CAR	POND	5	[0, 0, 0]	-999	PAL1	0	R1060M
656.757	0.9	837355	STUDY_ORIENT	n/a	n/a	6	6	OWL	STOVE	OWL	STOVE	5	[0, 0, 0]	-999	PAL1	0	R1060M
657.657	4.018	837805	STUDY_PAIR	n/a	wordpools/wordpool_EN.txt	6	6	OWL	STOVE	OWL	STOVE	5	[0, 0, 0]	-999	PAL1	0	R1060M
661.675	0.999	839814	START	n/a	n/a	-999	-999	n/a	n/a	n/a	n/a	5	[-999, -999, -999]	-999	PAL1	0	R1060M
662.674	0.017	840313	MATH_START	n/a	n/a	-999	-999	n/a	n/a	n/a	n/a	5	[0, 0, 0]	-999	PAL1	0	R1060M
662.691	4.001	840322	PROB	3978	n/a	-999	-999	n/a	n/a	n/a	n/a	5	[5, 1, 4]	10	PAL1	0	R1060M
666.692	3.001	842322	PROB	2969	n/a	-999	-999	n/a	n/a	n/a	n/a	5	[2, 7, 4]	13	PAL1	0	R1060M
669.693	3.485	843822	PROB	3465	n/a	-999	-999	n/a	n/a	n/a	n/a	5	[1, 9, 3]	13	PAL1	0	R1060M
673.178	3.833	845565	PROB	3795	n/a	-999	-999	n/a	n/a	n/a	n/a	5	[9, 2, 2]	13	PAL1	0	R1060M
677.011	3.135	847481	PROB	3107	n/a	-999	-999	n/a	n/a	n/a	n/a	5	[5, 1, 4]	10	PAL1	0	R1060M
680.146	3.164	849049	PROB	3164	n/a	-999	-999	n/a	n/a	n/a	n/a	5	[1, 6, 4]	11	PAL1	0	R1060M
683.31	0.003	850631	STOP	n/a	n/a	-999	-999	n/a	n/a	n/a	n/a	5	[-999, -999, -999]	-999	PAL1	0	R1060M
683.313	0.0	850632	MATH_END	n/a	n/a	-999	-999	n/a	n/a	n/a	n/a	5	[0, 0, 0]	-999	PAL1	0	R1060M
683.313	0.017	850632	TEST_START	n/a	n/a	-999	-999	n/a	n/a	n/a	n/a	5	[0, 0, 0]	-999	PAL1	0	R1060M
683.33	0.967	850641	TEST_ORIENT	n/a	n/a	5	1	POND	CAR	CAR	POND	5	[0, 0, 0]	-999	PAL1	0	R1060M
684.297	0.0	851124	TEST_PROBE	n/a	wordpools/wordpool_EN.txt	5	1	POND	CAR	CAR	POND	5	[0, 0, 0]	-999	PAL1	0	R1060M
684.297	1.016	851124	REC_START	n/a	n/a	5	-999	n/a	CAR	n/a	n/a	5	[0, 0, 0]	-999	PAL1	0	R1060M
685.313	4.001	851632	REC_EVENT	1016	n/a	5	1	POND	CAR	CAR	POND	5	[0, 0, 0]	-999	PAL1	0	R1060M
689.314	0.017	853632	REC_END	n/a	n/a	5	-999	n/a	n/a	n/a	n/a	5	[0, 0, 0]	-999	PAL1	0	R1060M
689.331	1.017	853641	TEST_ORIENT	n/a	n/a	4	2	PEAR	HOOK	CALF	PEAR	5	[0, 0, 0]	-999	PAL1	0	R1060M
690.348	0.0	854149	TEST_PROBE	n/a	wordpools/wordpool_EN.txt	4	2	PEAR	HOOK	CALF	PEAR	5	[0, 0, 0]	-999	PAL1	0	R1060M
690.348	1.702	854149	REC_START	n/a	n/a	4	-999	n/a	HOOK	n/a	n/a	5	[0, 0, 0]	-999	PAL1	0	R1060M
692.05	3.315	855000	REC_EVENT	1702	n/a	4	2	PEAR	HOOK	CALF	PEAR	5	[0, 0, 0]	-999	PAL1	0	R1060M
695.365	0.017	856658	REC_END	n/a	n/a	4	-999	n/a	n/a	n/a	n/a	5	[0, 0, 0]	-999	PAL1	0	R1060M
695.382	0.917	856666	TEST_ORIENT	n/a	n/a	1	3	JEEP	PASS	JEEP	WAND	5	[0, 0, 0]	-999	PAL1	0	R1060M
696.299	0.0	857125	TEST_PROBE	n/a	wordpools/wordpool_EN.txt	1	3	JEEP	PASS	JEEP	WAND	5	[0, 0, 0]	-999	PAL1	0	R1060M
696.299	2.78	857125	REC_START	n/a	n/a	1	-999	n/a	PASS	n/a	n/a	5	[0, 0, 0]	-999	PAL1	0	R1060M
699.079	2.237	858515	REC_EVENT	2780	n/a	1	3	JEEP	PASS	JEEP	WAND	5	[0, 0, 0]	-999	PAL1	0	R1060M
701.316	0.017	859633	REC_END	n/a	n/a	1	-999	n/a	n/a	n/a	n/a	5	[0, 0, 0]	-999	PAL1	0	R1060M
701.333	1.034	859642	TEST_ORIENT	n/a	n/a	2	4	HOOK	OWL	HOOK	SHRIMP	5	[0, 0, 0]	-999	PAL1	0	R1060M
702.367	0.0	860159	TEST_PROBE	n/a	wordpools/wordpool_EN.txt	2	4	HOOK	OWL	HOOK	SHRIMP	5	[0, 0, 0]	-999	PAL1	0	R1060M
702.367	2.805	860159	REC_START	n/a	n/a	2	-999	n/a	OWL	n/a	n/a	5	[0, 0, 0]	-999	PAL1	0	R1060M
705.172	0.713	861561	REC_EVENT	2805	n/a	2	4	HOOK	OWL	HOOK	SHRIMP	5	[0, 0, 0]	-999	PAL1	0	R1060M
705.885	0.374	861917	REC_EVENT	3518	n/a	2	4	HOOK	<>	HOOK	SHRIMP	5	[0, 0, 0]	-999	PAL1	0	R1060M
706.259	1.125	862104	REC_EVENT	3892	n/a	2	4	HOOK	<>	HOOK	SHRIMP	5	[0, 0, 0]	-999	PAL1	0	R1060M
707.384	0.017	862667	REC_END	n/a	n/a	2	-999	n/a	n/a	n/a	n/a	5	[0, 0, 0]	-999	PAL1	0	R1060M
707.401	0.95	862675	TEST_ORIENT	n/a	n/a	3	5	CAGE	STOVE	CAGE	HEN	5	[0, 0, 0]	-999	PAL1	0	R1060M
708.351	0.001	863150	TEST_PROBE	n/a	wordpools/wordpool_EN.txt	3	5	CAGE	STOVE	CAGE	HEN	5	[0, 0, 0]	-999	PAL1	0	R1060M
708.352	3.954	863151	REC_START	n/a	n/a	3	-999	n/a	STOVE	n/a	n/a	5	[0, 0, 0]	-999	PAL1	0	R1060M
712.306	1.005	865128	REC_EVENT	3954	n/a	3	5	CAGE	<>	CAGE	HEN	5	[0, 0, 0]	-999	PAL1	0	R1060M
713.311	0.049	865630	REC_EVENT	4959	n/a	3	5	CAGE	STOVE	CAGE	HEN	5	[0, 0, 0]	-999	PAL1	0	R1060M
713.36	0.009	865655	REC_END	n/a	n/a	3	-999	n/a	n/a	n/a	n/a	5	[0, 0, 0]	-999	PAL1	0	R1060M
713.369	1.017	865659	TEST_ORIENT	n/a	n/a	6	6	OWL	STOVE	OWL	STOVE	5	[0, 0, 0]	-999	PAL1	0	R1060M
714.386	0.0	866168	TEST_PROBE	n/a	wordpools/wordpool_EN.txt	6	6	OWL	STOVE	OWL	STOVE	5	[0, 0, 0]	-999	PAL1	0	R1060M
714.386	2.441	866168	REC_START	n/a	n/a	6	-999	n/a	STOVE	n/a	n/a	5	[0, 0, 0]	-999	PAL1	0	R1060M
716.827	2.576	867388	REC_EVENT	2441	n/a	6	6	OWL	STOVE	OWL	STOVE	5	[0, 0, 0]	-999	PAL1	0	R1060M
719.403	2.075	868676	REC_END	n/a	n/a	6	-999	n/a	n/a	n/a	n/a	5	[0, 0, 0]	-999	PAL1	0	R1060M
721.478	10.444	869713	ENCODING_START	n/a	n/a	0	-999	n/a	n/a	n/a	n/a	6	[0, 0, 0]	-999	PAL1	0	R1060M
731.922	0.933	874935	STUDY_ORIENT	n/a	n/a	1	5	MAZE	FIRST WORD	MAZE	SHIELD	6	[0, 0, 0]	-999	PAL1	0	R1060M
732.855	5.018	875402	STUDY_PAIR	n/a	wordpools/wordpool_EN.txt	1	5	MAZE	FIRST WORD	MAZE	SHIELD	6	[0, 0, 0]	-999	PAL1	0	R1060M
737.873	0.95	877911	STUDY_ORIENT	n/a	n/a	2	6	DRESS	n/a	BATH	DRESS	6	[0, 0, 0]	-999	PAL1	0	R1060M
738.823	5.018	878386	STUDY_PAIR	n/a	wordpools/wordpool_EN.txt	2	6	DRESS	n/a	BATH	DRESS	6	[0, 0, 0]	-999	PAL1	0	R1060M
743.841	0.867	880894	STUDY_ORIENT	n/a	n/a	3	1	BANK	PASS	BANK	WEED	6	[0, 0, 0]	-999	PAL1	0	R1060M
744.708	5.034	881328	STUDY_PAIR	n/a	wordpools/wordpool_EN.txt	3	1	BANK	PASS	BANK	WEED	6	[0, 0, 0]	-999	PAL1	0	R1060M
749.742	0.867	883845	STUDY_ORIENT	n/a	n/a	4	2	BADGE	BEAR	BEAR	BADGE	6	[0, 0, 0]	-999	PAL1	0	R1060M
750.609	5.034	884278	STUDY_PAIR	n/a	wordpools/wordpool_EN.txt	4	2	BADGE	BEAR	BEAR	BADGE	6	[0, 0, 0]	-999	PAL1	0	R1060M
755.643	0.835	886795	STUDY_ORIENT	n/a	n/a	5	3	CLAY	n/a	BLUSH	CLAY	6	[0, 0, 0]	-999	PAL1	0	R1060M
756.478	5.034	887213	STUDY_PAIR	n/a	wordpools/wordpool_EN.txt	5	3	CLAY	n/a	BLUSH	CLAY	6	[0, 0, 0]	-999	PAL1	0	R1060M
761.512	0.8	889729	STUDY_ORIENT	n/a	n/a	6	4	HOLE	CAR	HOLE	DESK	6	[0, 0, 0]	-999	PAL1	0	R1060M
762.312	4.002	890129	STUDY_PAIR	n/a	wordpools/wordpool_EN.txt	6	4	HOLE	CAR	HOLE	DESK	6	[0, 0, 0]	-999	PAL1	0	R1060M
766.314	0.999	892130	START	n/a	n/a	-999	-999	n/a	n/a	n/a	n/a	6	[-999, -999, -999]	-999	PAL1	0	R1060M
767.313	0.017	892630	MATH_START	n/a	n/a	-999	-999	n/a	n/a	n/a	n/a	6	[0, 0, 0]	-999	PAL1	0	R1060M
767.33	9.852	892638	PROB	9828	n/a	-999	-999	n/a	n/a	n/a	n/a	6	[7, 6, 9]	22	PAL1	0	R1060M
777.182	3.716	897564	PROB	3695	n/a	-999	-999	n/a	n/a	n/a	n/a	6	[7, 7, 5]	20	PAL1	0	R1060M
780.898	3.302	899422	PROB	3268	n/a	-999	-999	n/a	n/a	n/a	n/a	6	[4, 1, 6]	11	PAL1	0	R1060M
784.2	2.982	901073	PROB	2982	n/a	-999	-999	n/a	n/a	n/a	n/a	6	[9, 1, 8]	18	PAL1	0	R1060M
787.182	0.018	902564	STOP	n/a	n/a	-999	-999	n/a	n/a	n/a	n/a	6	[-999, -999, -999]	-999	PAL1	0	R1060M
787.2	0.0	902573	MATH_END	n/a	n/a	-999	-999	n/a	n/a	n/a	n/a	6	[0, 0, 0]	-999	PAL1	0	R1060M
787.2	0.017	902573	TEST_START	n/a	n/a	-999	-999	n/a	n/a	n/a	n/a	6	[0, 0, 0]	-999	PAL1	0	R1060M
787.217	0.934	902581	TEST_ORIENT	n/a	n/a	3	1	BANK	PASS	BANK	WEED	6	[0, 0, 0]	-999	PAL1	0	R1060M
788.151	0.0	903048	REC_START	n/a	n/a	3	-999	n/a	PASS	n/a	n/a	6	[0, 0, 0]	-999	PAL1	0	R1060M
788.151	2.964	903048	TEST_PROBE	n/a	wordpools/wordpool_EN.txt	3	1	BANK	PASS	BANK	WEED	6	[0, 0, 0]	-999	PAL1	0	R1060M
791.115	1.712	904530	REC_EVENT	2964	n/a	3	1	BANK	PASS	BANK	WEED	6	[0, 0, 0]	-999	PAL1	0	R1060M
792.827	0.341	905386	REC_EVENT	4676	n/a	3	1	BANK	PASS	BANK	WEED	6	[0, 0, 0]	-999	PAL1	0	R1060M
793.168	0.017	905557	REC_END	n/a	n/a	3	-999	n/a	n/a	n/a	n/a	6	[0, 0, 0]	-999	PAL1	0	R1060M
793.185	1.0	905565	TEST_ORIENT	n/a	n/a	4	2	BADGE	BEAR	BEAR	BADGE	6	[0, 0, 0]	-999	PAL1	0	R1060M
794.185	0.001	906065	TEST_PROBE	n/a	wordpools/wordpool_EN.txt	4	2	BADGE	BEAR	BEAR	BADGE	6	[0, 0, 0]	-999	PAL1	0	R1060M
794.186	1.472	906065	REC_START	n/a	n/a	4	-999	n/a	BEAR	n/a	n/a	6	[0, 0, 0]	-999	PAL1	0	R1060M
795.658	3.553	906801	REC_EVENT	1472	n/a	4	2	BADGE	BEAR	BEAR	BADGE	6	[0, 0, 0]	-999	PAL1	0	R1060M
799.211	0.009	908578	REC_END	n/a	n/a	4	-999	n/a	n/a	n/a	n/a	6	[0, 0, 0]	-999	PAL1	0	R1060M
799.22	0.866	908582	TEST_ORIENT	n/a	n/a	5	3	CLAY	n/a	BLUSH	CLAY	6	[0, 0, 0]	-999	PAL1	0	R1060M
800.086	0.001	909015	TEST_PROBE	n/a	wordpools/wordpool_EN.txt	5	3	CLAY	n/a	BLUSH	CLAY	6	[0, 0, 0]	-999	PAL1	0	R1060M
800.087	5.008	909016	REC_START	n/a	n/a	5	-999	n/a	n/a	n/a	n/a	6	[0, 0, 0]	-999	PAL1	0	R1060M
805.095	0.001	911520	REC_END	n/a	n/a	5	-999	n/a	n/a	n/a	n/a	6	[0, 0, 0]	-999	PAL1	0	R1060M
805.096	0.008	911520	REC_EVENT	5009	n/a	5	3	CLAY	<>	BLUSH	CLAY	6	[0, 0, 0]	-999	PAL1	0	R1060M
805.104	0.916	911524	TEST_ORIENT	n/a	n/a	6	4	HOLE	CAR	HOLE	DESK	6	[0, 0, 0]	-999	PAL1	0	R1060M
806.02	0.0	911982	TEST_PROBE	n/a	wordpools/wordpool_EN.txt	6	4	HOLE	CAR	HOLE	DESK	6	[0, 0, 0]	-999	PAL1	0	R1060M
806.02	3.5	911982	REC_START	n/a	n/a	6	-999	n/a	CAR	n/a	n/a	6	[0, 0, 0]	-999	PAL1	0	R1060M
809.52	1.517	913732	REC_EVENT	3500	n/a	6	4	HOLE	CAR	HOLE	DESK	6	[0, 0, 0]	-999	PAL1	0	R1060M
811.037	0.017	914491	REC_END	n/a	n/a	6	-999	n/a	n/a	n/a	n/a	6	[0, 0, 0]	-999	PAL1	0	R1060M
811.054	0.867	914499	TEST_ORIENT	n/a	n/a	1	5	MAZE	FIRST WORD	MAZE	SHIELD	6	[0, 0, 0]	-999	PAL1	0	R1060M
811.921	0.001	914933	TEST_PROBE	n/a	wordpools/wordpool_EN.txt	1	5	MAZE	FIRST WORD	MAZE	SHIELD	6	[0, 0, 0]	-999	PAL1	0	R1060M
811.922	2.75	914933	REC_START	n/a	n/a	1	-999	n/a	FIRST WORD	n/a	n/a	6	[0, 0, 0]	-999	PAL1	0	R1060M
814.672	2.266	916308	REC_EVENT	2750	n/a	1	5	MAZE	FIRST WORD	MAZE	SHIELD	6	[0, 0, 0]	-999	PAL1	0	R1060M
816.938	0.017	917441	REC_END	n/a	n/a	1	-999	n/a	n/a	n/a	n/a	6	[0, 0, 0]	-999	PAL1	0	R1060M
816.955	0.967	917449	TEST_ORIENT	n/a	n/a	2	6	DRESS	n/a	BATH	DRESS	6	[0, 0, 0]	-999	PAL1	0	R1060M
817.922	0.0	917933	TEST_PROBE	n/a	wordpools/wordpool_EN.txt	2	6	DRESS	n/a	BATH	DRESS	6	[0, 0, 0]	-999	PAL1	0	R1060M
817.922	5.015	917933	REC_START	n/a	n/a	2	-999	n/a	n/a	n/a	n/a	6	[0, 0, 0]	-999	PAL1	0	R1060M
822.937	0.005	920440	REC_EVENT	5015	n/a	2	6	DRESS	<>	BATH	DRESS	6	[0, 0, 0]	-999	PAL1	0	R1060M
822.942	1.783	920443	REC_END	n/a	n/a	2	-999	n/a	n/a	n/a	n/a	6	[0, 0, 0]	-999	PAL1	0	R1060M
824.725	10.452	921334	ENCODING_START	n/a	n/a	0	-999	n/a	n/a	n/a	n/a	7	[0, 0, 0]	-999	PAL1	0	R1060M
835.177	0.883	926560	STUDY_ORIENT	n/a	n/a	1	1	THUMB	PASS	THUMB	SINK	7	[0, 0, 0]	-999	PAL1	0	R1060M
836.06	5.018	927001	STUDY_PAIR	n/a	wordpools/wordpool_EN.txt	1	1	THUMB	PASS	THUMB	SINK	7	[0, 0, 0]	-999	PAL1	0	R1060M
841.078	0.832	929510	STUDY_ORIENT	n/a	n/a	2	4	SNAIL	ROPE	ROPE	SNAIL	7	[0, 0, 0]	-999	PAL1	0	R1060M
841.91	5.018	929926	STUDY_PAIR	n/a	wordpools/wordpool_EN.txt	2	4	SNAIL	ROPE	ROPE	SNAIL	7	[0, 0, 0]	-999	PAL1	0	R1060M
846.928	0.95	932435	STUDY_ORIENT	n/a	n/a	3	5	BOAT	SMOKE	BOAT	GOLD	7	[0, 0, 0]	-999	PAL1	0	R1060M
847.878	5.018	932910	STUDY_PAIR	n/a	wordpools/wordpool_EN.txt	3	5	BOAT	SMOKE	BOAT	GOLD	7	[0, 0, 0]	-999	PAL1	0	R1060M
852.896	0.983	935419	STUDY_ORIENT	n/a	n/a	4	2	SMOKE	SSSSSSS	SMOKE	VAN	7	[0, 0, 0]	-999	PAL1	0	R1060M
853.879	5.018	935910	STUDY_PAIR	n/a	wordpools/wordpool_EN.txt	4	2	SMOKE	SSSSSSS	SMOKE	VAN	7	[0, 0, 0]	-999	PAL1	0	R1060M
858.897	1.0	938419	STUDY_ORIENT	n/a	n/a	5	3	SEAL	DART	DART	SEAL	7	[0, 0, 0]	-999	PAL1	0	R1060M
859.897	5.035	938919	STUDY_PAIR	n/a	wordpools/wordpool_EN.txt	5	3	SEAL	DART	DART	SEAL	7	[0, 0, 0]	-999	PAL1	0	R1060M
864.932	0.833	941437	STUDY_ORIENT	n/a	n/a	6	6	BALL	n/a	CORD	BALL	7	[0, 0, 0]	-999	PAL1	0	R1060M
865.765	4.001	941853	STUDY_PAIR	n/a	wordpools/wordpool_EN.txt	6	6	BALL	n/a	CORD	BALL	7	[0, 0, 0]	-999	PAL1	0	R1060M
869.766	1.0	943853	START	n/a	n/a	-999	-999	n/a	n/a	n/a	n/a	7	[-999, -999, -999]	-999	PAL1	0	R1060M
870.766	0.017	944353	MATH_START	n/a	n/a	-999	-999	n/a	n/a	n/a	n/a	7	[0, 0, 0]	-999	PAL1	0	R1060M
870.783	3.668	944362	PROB	3647	n/a	-999	-999	n/a	n/a	n/a	n/a	7	[8, 8, 8]	24	PAL1	0	R1060M
874.451	2.867	946196	PROB	2843	n/a	-999	-999	n/a	n/a	n/a	n/a	7	[1, 6, 2]	9	PAL1	0	R1060M
877.318	3.218	947629	PROB	3184	n/a	-999	-999	n/a	n/a	n/a	n/a	7	[6, 4, 6]	16	PAL1	0	R1060M
880.536	3.349	949238	PROB	3317	n/a	-999	-999	n/a	n/a	n/a	n/a	7	[8, 9, 6]	23	PAL1	0	R1060M
883.885	3.101	950913	PROB	3072	n/a	-999	-999	n/a	n/a	n/a	n/a	7	[8, 5, 4]	17	PAL1	0	R1060M
886.986	8.076	952463	PROB	8076	n/a	-999	-999	n/a	n/a	n/a	n/a	7	[7, 5, 9]	21	PAL1	0	R1060M
895.062	0.01	956501	STOP	n/a	n/a	-999	-999	n/a	n/a	n/a	n/a	7	[-999, -999, -999]	-999	PAL1	0	R1060M
895.072	0.0	956506	TEST_START	n/a	n/a	-999	-999	n/a	n/a	n/a	n/a	7	[0, 0, 0]	-999	PAL1	0	R1060M
895.072	0.017	956506	MATH_END	n/a	n/a	-999	-999	n/a	n/a	n/a	n/a	7	[0, 0, 0]	-999	PAL1	0	R1060M
895.089	0.849	956514	TEST_ORIENT	n/a	n/a	1	1	THUMB	PASS	THUMB	SINK	7	[0, 0, 0]	-999	PAL1	0	R1060M
895.938	0.0	956939	TEST_PROBE	n/a	wordpools/wordpool_EN.txt	1	1	THUMB	PASS	THUMB	SINK	7	[0, 0, 0]	-999	PAL1	0	R1060M
895.938	3.76	956939	REC_START	n/a	n/a	1	-999	n/a	PASS	n/a	n/a	7	[0, 0, 0]	-999	PAL1	0	R1060M
899.698	1.257	958819	REC_EVENT	3760	n/a	1	1	THUMB	PASS	THUMB	SINK	7	[0, 0, 0]	-999	PAL1	0	R1060M
900.955	0.017	959447	REC_END	n/a	n/a	1	-999	n/a	n/a	n/a	n/a	7	[0, 0, 0]	-999	PAL1	0	R1060M
900.972	0.9	959456	TEST_ORIENT	n/a	n/a	4	2	SMOKE	SSSSSSS	SMOKE	VAN	7	[0, 0, 0]	-999	PAL1	0	R1060M
901.872	0.001	959906	TEST_PROBE	n/a	wordpools/wordpool_EN.txt	4	2	SMOKE	SSSSSSS	SMOKE	VAN	7	[0, 0, 0]	-999	PAL1	0	R1060M
901.873	4.704	959906	REC_START	n/a	n/a	4	-999	n/a	SSSSSSS	n/a	n/a	7	[0, 0, 0]	-999	PAL1	0	R1060M
906.577	0.304	962258	REC_EVENT	4704	n/a	4	2	SMOKE	SSSSSSS	SMOKE	VAN	7	[0, 0, 0]	-999	PAL1	0	R1060M
906.881	0.009	962410	REC_END	n/a	n/a	4	-999	n/a	n/a	n/a	n/a	7	[0, 0, 0]	-999	PAL1	0	R1060M
906.89	0.95	962414	TEST_ORIENT	n/a	n/a	5	3	SEAL	DART	DART	SEAL	7	[0, 0, 0]	-999	PAL1	0	R1060M
907.84	0.0	962889	TEST_PROBE	n/a	wordpools/wordpool_EN.txt	5	3	SEAL	DART	DART	SEAL	7	[0, 0, 0]	-999	PAL1	0	R1060M
907.84	2.158	962889	REC_START	n/a	n/a	5	-999	n/a	DART	n/a	n/a	7	[0, 0, 0]	-999	PAL1	0	R1060M
909.998	2.86	963968	REC_EVENT	2158	n/a	5	3	SEAL	DART	DART	SEAL	7	[0, 0, 0]	-999	PAL1	0	R1060M
912.858	0.016	965398	REC_END	n/a	n/a	5	-999	n/a	n/a	n/a	n/a	7	[0, 0, 0]	-999	PAL1	0	R1060M
912.874	0.867	965406	TEST_ORIENT	n/a	n/a	2	4	SNAIL	ROPE	ROPE	SNAIL	7	[0, 0, 0]	-999	PAL1	0	R1060M
913.741	0.001	965840	TEST_PROBE	n/a	wordpools/wordpool_EN.txt	2	4	SNAIL	ROPE	ROPE	SNAIL	7	[0, 0, 0]	-999	PAL1	0	R1060M
913.742	1.493	965840	REC_START	n/a	n/a	2	-999	n/a	ROPE	n/a	n/a	7	[0, 0, 0]	-999	PAL1	0	R1060M
915.235	3.515	966587	REC_EVENT	1493	n/a	2	4	SNAIL	ROPE	ROPE	SNAIL	7	[0, 0, 0]	-999	PAL1	0	R1060M
918.75	0.009	968344	REC_END	n/a	n/a	2	-999	n/a	n/a	n/a	n/a	7	[0, 0, 0]	-999	PAL1	0	R1060M
918.759	0.917	968349	TEST_ORIENT	n/a	n/a	3	5	BOAT	SMOKE	BOAT	GOLD	7	[0, 0, 0]	-999	PAL1	0	R1060M
919.676	0.0	968807	TEST_PROBE	n/a	wordpools/wordpool_EN.txt	3	5	BOAT	SMOKE	BOAT	GOLD	7	[0, 0, 0]	-999	PAL1	0	R1060M
919.676	1.908	968807	REC_START	n/a	n/a	3	-999	n/a	SMOKE	n/a	n/a	7	[0, 0, 0]	-999	PAL1	0	R1060M
921.584	3.109	969761	REC_EVENT	1908	n/a	3	5	BOAT	SMOKE	BOAT	GOLD	7	[0, 0, 0]	-999	PAL1	0	R1060M
924.693	0.017	971315	REC_END	n/a	n/a	3	-999	n/a	n/a	n/a	n/a	7	[0, 0, 0]	-999	PAL1	0	R1060M
924.71	0.934	971324	TEST_ORIENT	n/a	n/a	6	6	BALL	n/a	CORD	BALL	7	[0, 0, 0]	-999	PAL1	0	R1060M
925.644	0.0	971791	TEST_PROBE	n/a	wordpools/wordpool_EN.txt	6	6	BALL	n/a	CORD	BALL	7	[0, 0, 0]	-999	PAL1	0	R1060M
925.644	5.015	971791	REC_START	n/a	n/a	6	-999	n/a	n/a	n/a	n/a	7	[0, 0, 0]	-999	PAL1	0	R1060M
930.659	0.002	974298	REC_EVENT	5015	n/a	6	6	BALL	<>	CORD	BALL	7	[0, 0, 0]	-999	PAL1	0	R1060M
930.661	1.936	974299	REC_END	n/a	n/a	6	-999	n/a	n/a	n/a	n/a	7	[0, 0, 0]	-999	PAL1	0	R1060M
932.597	10.45	975267	ENCODING_START	n/a	n/a	0	-999	n/a	n/a	n/a	n/a	8	[0, 0, 0]	-999	PAL1	0	R1060M
943.047	0.95	980492	STUDY_ORIENT	n/a	n/a	1	5	KEY	n/a	KEY	ROSE	8	[0, 0, 0]	-999	PAL1	0	R1060M
943.997	5.018	980967	STUDY_PAIR	n/a	wordpools/wordpool_EN.txt	1	5	KEY	n/a	KEY	ROSE	8	[0, 0, 0]	-999	PAL1	0	R1060M
949.015	0.85	983476	STUDY_ORIENT	n/a	n/a	2	2	LOCK	CCCCCOOOOO	BOWL	LOCK	8	[0, 0, 0]	-999	PAL1	0	R1060M
949.865	5.018	983901	STUDY_PAIR	n/a	wordpools/wordpool_EN.txt	2	2	LOCK	CCCCCOOOOO	BOWL	LOCK	8	[0, 0, 0]	-999	PAL1	0	R1060M
954.883	0.983	986410	STUDY_ORIENT	n/a	n/a	3	3	FISH	n/a	FISH	TEETH	8	[0, 0, 0]	-999	PAL1	0	R1060M
955.866	5.018	986901	STUDY_PAIR	n/a	wordpools/wordpool_EN.txt	3	3	FISH	n/a	FISH	TEETH	8	[0, 0, 0]	-999	PAL1	0	R1060M
960.884	0.934	989410	STUDY_ORIENT	n/a	n/a	4	4	FLAG	ROAD	FLAG	BRIDGE	8	[0, 0, 0]	-999	PAL1	0	R1060M
961.818	5.034	989877	STUDY_PAIR	n/a	wordpools/wordpool_EN.txt	4	4	FLAG	ROAD	FLAG	BRIDGE	8	[0, 0, 0]	-999	PAL1	0	R1060M
966.852	0.817	992394	STUDY_ORIENT	n/a	n/a	5	1	FRUIT	ROAD	FRUIT	ROAD	8	[0, 0, 0]	-999	PAL1	0	R1060M
967.669	5.034	992802	STUDY_PAIR	n/a	wordpools/wordpool_EN.txt	5	1	FRUIT	ROAD	FRUIT	ROAD	8	[0, 0, 0]	-999	PAL1	0	R1060M
972.703	0.801	995319	STUDY_ORIENT	n/a	n/a	6	6	COIN	n/a	COIN	CUBE	8	[0, 0, 0]	-999	PAL1	0	R1060M
973.504	4.001	995720	STUDY_PAIR	n/a	wordpools/wordpool_EN.txt	6	6	COIN	n/a	COIN	CUBE	8	[0, 0, 0]	-999	PAL1	0	R1060M
977.505	1.0	997720	START	n/a	n/a	-999	-999	n/a	n/a	n/a	n/a	8	[-999, -999, -999]	-999	PAL1	0	R1060M
978.505	0.017	998220	MATH_START	n/a	n/a	-999	-999	n/a	n/a	n/a	n/a	8	[0, 0, 0]	-999	PAL1	0	R1060M
978.522	2.767	998228	PROB	2748	n/a	-999	-999	n/a	n/a	n/a	n/a	8	[2, 4, 3]	9	PAL1	0	R1060M
981.289	3.3	999612	PROB	3276	n/a	-999	-999	n/a	n/a	n/a	n/a	8	[9, 1, 8]	18	PAL1	0	R1060M
984.589	3.568	1001262	PROB	3537	n/a	-999	-999	n/a	n/a	n/a	n/a	8	[3, 1, 3]	7	PAL1	0	R1060M
988.157	2.866	1003046	PROB	2840	n/a	-999	-999	n/a	n/a	n/a	n/a	8	[1, 1, 8]	10	PAL1	0	R1060M
991.023	4.285	1004479	PROB	4255	n/a	-999	-999	n/a	n/a	n/a	n/a	8	[6, 7, 6]	19	PAL1	0	R1060M
995.308	2.737	1006621	PROB	2737	n/a	-999	-999	n/a	n/a	n/a	n/a	8	[4, 9, 1]	14	PAL1	0	R1060M
998.045	0.014	1007989	STOP	n/a	n/a	-999	-999	n/a	n/a	n/a	n/a	8	[-999, -999, -999]	-999	PAL1	0	R1060M
998.059	0.0	1007996	MATH_END	n/a	n/a	-999	-999	n/a	n/a	n/a	n/a	8	[0, 0, 0]	-999	PAL1	0	R1060M
998.059	0.017	1007996	TEST_START	n/a	n/a	-999	-999	n/a	n/a	n/a	n/a	8	[0, 0, 0]	-999	PAL1	0	R1060M
998.076	0.882	1008005	TEST_ORIENT	n/a	n/a	5	1	FRUIT	ROAD	FRUIT	ROAD	8	[0, 0, 0]	-999	PAL1	0	R1060M
998.958	0.001	1008446	TEST_PROBE	n/a	wordpools/wordpool_EN.txt	5	1	FRUIT	ROAD	FRUIT	ROAD	8	[0, 0, 0]	-999	PAL1	0	R1060M
998.959	1.994	1008446	REC_START	n/a	n/a	5	-999	n/a	ROAD	n/a	n/a	8	[0, 0, 0]	-999	PAL1	0	R1060M
1000.953	3.014	1009443	REC_EVENT	1994	n/a	5	1	FRUIT	ROAD	FRUIT	ROAD	8	[0, 0, 0]	-999	PAL1	0	R1060M
1003.967	0.009	1010950	REC_END	n/a	n/a	5	-999	n/a	n/a	n/a	n/a	8	[0, 0, 0]	-999	PAL1	0	R1060M
1003.976	0.917	1010955	TEST_ORIENT	n/a	n/a	2	2	LOCK	CCCCCOOOOO	BOWL	LOCK	8	[0, 0, 0]	-999	PAL1	0	R1060M
1004.893	0.0	1011413	TEST_PROBE	n/a	wordpools/wordpool_EN.txt	2	2	LOCK	CCCCCOOOOO	BOWL	LOCK	8	[0, 0, 0]	-999	PAL1	0	R1060M
1004.893	2.942	1011413	REC_START	n/a	n/a	2	-999	n/a	CCCCCOOOOO	n/a	n/a	8	[0, 0, 0]	-999	PAL1	0	R1060M
1007.835	2.083	1012884	REC_EVENT	2942	n/a	2	2	LOCK	CCCCCOOOOO	BOWL	LOCK	8	[0, 0, 0]	-999	PAL1	0	R1060M
1009.918	0.009	1013926	REC_END	n/a	n/a	2	-999	n/a	n/a	n/a	n/a	8	[0, 0, 0]	-999	PAL1	0	R1060M
1009.927	1.0	1013930	TEST_ORIENT	n/a	n/a	3	3	FISH	n/a	FISH	TEETH	8	[0, 0, 0]	-999	PAL1	0	R1060M
1010.927	0.001	1014430	TEST_PROBE	n/a	wordpools/wordpool_EN.txt	3	3	FISH	n/a	FISH	TEETH	8	[0, 0, 0]	-999	PAL1	0	R1060M
1010.928	5.008	1014431	REC_START	n/a	n/a	3	-999	n/a	n/a	n/a	n/a	8	[0, 0, 0]	-999	PAL1	0	R1060M
1015.936	0.001	1016934	REC_END	n/a	n/a	3	-999	n/a	n/a	n/a	n/a	8	[0, 0, 0]	-999	PAL1	0	R1060M
1015.937	0.008	1016935	REC_EVENT	5009	n/a	3	3	FISH	<>	FISH	TEETH	8	[0, 0, 0]	-999	PAL1	0	R1060M
1015.945	0.9	1016939	TEST_ORIENT	n/a	n/a	4	4	FLAG	ROAD	FLAG	BRIDGE	8	[0, 0, 0]	-999	PAL1	0	R1060M
1016.845	0.0	1017389	TEST_PROBE	n/a	wordpools/wordpool_EN.txt	4	4	FLAG	ROAD	FLAG	BRIDGE	8	[0, 0, 0]	-999	PAL1	0	R1060M
1016.845	3.824	1017389	REC_START	n/a	n/a	4	-999	n/a	ROAD	n/a	n/a	8	[0, 0, 0]	-999	PAL1	0	R1060M
1020.669	1.185	1019301	REC_EVENT	3824	n/a	4	4	FLAG	ROAD	FLAG	BRIDGE	8	[0, 0, 0]	-999	PAL1	0	R1060M
1021.854	0.009	1019893	REC_END	n/a	n/a	4	-999	n/a	n/a	n/a	n/a	8	[0, 0, 0]	-999	PAL1	0	R1060M
1021.863	0.9	1019898	TEST_ORIENT	n/a	n/a	1	5	KEY	n/a	KEY	ROSE	8	[0, 0, 0]	-999	PAL1	0	R1060M
1022.763	0.001	1020348	TEST_PROBE	n/a	wordpools/wordpool_EN.txt	1	5	KEY	n/a	KEY	ROSE	8	[0, 0, 0]	-999	PAL1	0	R1060M
1022.764	5.021	1020348	REC_START	n/a	n/a	1	-999	n/a	n/a	n/a	n/a	8	[0, 0, 0]	-999	PAL1	0	R1060M
1027.785	0.004	1022859	REC_EVENT	5021	n/a	1	5	KEY	<>	KEY	ROSE	8	[0, 0, 0]	-999	PAL1	0	R1060M
1027.789	0.008	1022861	REC_END	n/a	n/a	1	-999	n/a	n/a	n/a	n/a	8	[0, 0, 0]	-999	PAL1	0	R1060M
1027.797	0.867	1022865	TEST_ORIENT	n/a	n/a	6	6	COIN	n/a	COIN	CUBE	8	[0, 0, 0]	-999	PAL1	0	R1060M
1028.664	0.0	1023298	REC_START	n/a	n/a	6	-999	n/a	n/a	n/a	n/a	8	[0, 0, 0]	-999	PAL1	0	R1060M
1028.664	5.015	1023298	TEST_PROBE	n/a	wordpools/wordpool_EN.txt	6	6	COIN	n/a	COIN	CUBE	8	[0, 0, 0]	-999	PAL1	0	R1060M
1033.679	0.003	1025805	REC_EVENT	5015	n/a	6	6	COIN	<>	COIN	CUBE	8	[0, 0, 0]	-999	PAL1	0	R1060M
1033.682	1.804	1025807	REC_END	n/a	n/a	6	-999	n/a	n/a	n/a	n/a	8	[0, 0, 0]	-999	PAL1	0	R1060M
1035.486	10.448	1026709	ENCODING_START	n/a	n/a	0	-999	n/a	n/a	n/a	n/a	9	[0, 0, 0]	-999	PAL1	0	R1060M
1045.934	1.001	1031933	STUDY_ORIENT	n/a	n/a	1	5	GATE	n/a	GATE	BAT	9	[0, 0, 0]	-999	PAL1	0	R1060M
1046.935	5.034	1032433	STUDY_PAIR	n/a	wordpools/wordpool_EN.txt	1	5	GATE	n/a	GATE	BAT	9	[0, 0, 0]	-999	PAL1	0	R1060M
1051.969	0.967	1034950	STUDY_ORIENT	n/a	n/a	2	4	DOG	MMMMMMM	DOG	SEAT	9	[0, 0, 0]	-999	PAL1	0	R1060M
1052.936	5.034	1035433	STUDY_PAIR	n/a	wordpools/wordpool_EN.txt	2	4	DOG	MMMMMMM	DOG	SEAT	9	[0, 0, 0]	-999	PAL1	0	R1060M
1057.97	0.967	1037950	STUDY_ORIENT	n/a	n/a	3	3	FROG	FOAM	FOAM	FROG	9	[0, 0, 0]	-999	PAL1	0	R1060M
1058.937	5.034	1038434	STUDY_PAIR	n/a	wordpools/wordpool_EN.txt	3	3	FROG	FOAM	FOAM	FROG	9	[0, 0, 0]	-999	PAL1	0	R1060M
1063.971	0.984	1040951	STUDY_ORIENT	n/a	n/a	4	2	AXE	SSSSSSS	AXE	MILK	9	[0, 0, 0]	-999	PAL1	0	R1060M
1064.955	5.034	1041443	STUDY_PAIR	n/a	wordpools/wordpool_EN.txt	4	2	AXE	SSSSSSS	AXE	MILK	9	[0, 0, 0]	-999	PAL1	0	R1060M
1069.989	0.834	1043959	STUDY_ORIENT	n/a	n/a	5	1	WEB	STICK	MOOSE	WEB	9	[0, 0, 0]	-999	PAL1	0	R1060M
1070.823	5.034	1044376	STUDY_PAIR	n/a	wordpools/wordpool_EN.txt	5	1	WEB	STICK	MOOSE	WEB	9	[0, 0, 0]	-999	PAL1	0	R1060M
1075.857	0.883	1046893	STUDY_ORIENT	n/a	n/a	6	6	STICK	WEB	STICK	PIG	9	[0, 0, 0]	-999	PAL1	0	R1060M
1076.74	4.001	1047335	STUDY_PAIR	n/a	wordpools/wordpool_EN.txt	6	6	STICK	WEB	STICK	PIG	9	[0, 0, 0]	-999	PAL1	0	R1060M
1080.741	1.0	1049335	START	n/a	n/a	-999	-999	n/a	n/a	n/a	n/a	9	[-999, -999, -999]	-999	PAL1	0	R1060M
1081.741	0.017	1049835	MATH_START	n/a	n/a	-999	-999	n/a	n/a	n/a	n/a	9	[0, 0, 0]	-999	PAL1	0	R1060M
1081.758	3.668	1049844	PROB	3648	n/a	-999	-999	n/a	n/a	n/a	n/a	9	[3, 8, 1]	12	PAL1	0	R1060M
1085.426	2.984	1051678	PROB	2956	n/a	-999	-999	n/a	n/a	n/a	n/a	9	[2, 7, 1]	10	PAL1	0	R1060M
1088.41	3.118	1053169	PROB	3092	n/a	-999	-999	n/a	n/a	n/a	n/a	9	[4, 6, 8]	18	PAL1	0	R1060M
1091.528	2.584	1054728	PROB	2550	n/a	-999	-999	n/a	n/a	n/a	n/a	9	[3, 1, 3]	7	PAL1	0	R1060M
1094.112	3.05	1056020	PROB	3022	n/a	-999	-999	n/a	n/a	n/a	n/a	9	[6, 9, 8]	23	PAL1	0	R1060M
1097.162	5.419	1057545	PROB	5419	n/a	-999	-999	n/a	n/a	n/a	n/a	9	[9, 5, 2]	16	PAL1	0	R1060M
1102.581	0.015	1060255	STOP	n/a	n/a	-999	-999	n/a	n/a	n/a	n/a	9	[-999, -999, -999]	-999	PAL1	0	R1060M
1102.596	0.0	1060262	MATH_END	n/a	n/a	-999	-999	n/a	n/a	n/a	n/a	9	[0, 0, 0]	-999	PAL1	0	R1060M
1102.596	0.016	1060262	TEST_START	n/a	n/a	-999	-999	n/a	n/a	n/a	n/a	9	[0, 0, 0]	-999	PAL1	0	R1060M
1102.612	0.901	1060270	TEST_ORIENT	n/a	n/a	5	1	WEB	STICK	MOOSE	WEB	9	[0, 0, 0]	-999	PAL1	0	R1060M
1103.513	0.0	1060721	TEST_PROBE	n/a	wordpools/wordpool_EN.txt	5	1	WEB	STICK	MOOSE	WEB	9	[0, 0, 0]	-999	PAL1	0	R1060M
1103.513	0.786	1060721	REC_START	n/a	n/a	5	-999	n/a	STICK	n/a	n/a	9	[0, 0, 0]	-999	PAL1	0	R1060M
1104.299	4.232	1061113	REC_EVENT	786	n/a	5	1	WEB	STICK	MOOSE	WEB	9	[0, 0, 0]	-999	PAL1	0	R1060M
1108.531	0.017	1063229	REC_END	n/a	n/a	5	-999	n/a	n/a	n/a	n/a	9	[0, 0, 0]	-999	PAL1	0	R1060M
1108.548	0.983	1063238	TEST_ORIENT	n/a	n/a	4	2	AXE	SSSSSSS	AXE	MILK	9	[0, 0, 0]	-999	PAL1	0	R1060M
1109.531	0.001	1063729	TEST_PROBE	n/a	wordpools/wordpool_EN.txt	4	2	AXE	SSSSSSS	AXE	MILK	9	[0, 0, 0]	-999	PAL1	0	R1060M
1109.532	1.738	1063730	REC_START	n/a	n/a	4	-999	n/a	SSSSSSS	n/a	n/a	9	[0, 0, 0]	-999	PAL1	0	R1060M
1111.27	1.851	1064599	REC_EVENT	1738	n/a	4	2	AXE	SHHHHHH	AXE	MILK	9	[0, 0, 0]	-999	PAL1	0	R1060M
1113.121	1.419	1065524	REC_EVENT	3589	n/a	4	2	AXE	SSSSSSS	AXE	MILK	9	[0, 0, 0]	-999	PAL1	0	R1060M
1114.54	0.009	1066234	REC_END	n/a	n/a	4	-999	n/a	n/a	n/a	n/a	9	[0, 0, 0]	-999	PAL1	0	R1060M
1114.549	0.817	1066238	TEST_ORIENT	n/a	n/a	3	3	FROG	FOAM	FOAM	FROG	9	[0, 0, 0]	-999	PAL1	0	R1060M
1115.366	0.0	1066647	TEST_PROBE	n/a	wordpools/wordpool_EN.txt	3	3	FROG	FOAM	FOAM	FROG	9	[0, 0, 0]	-999	PAL1	0	R1060M
1115.366	1.585	1066647	REC_START	n/a	n/a	3	-999	n/a	FOAM	n/a	n/a	9	[0, 0, 0]	-999	PAL1	0	R1060M
1116.951	3.432	1067439	REC_EVENT	1585	n/a	3	3	FROG	FOAM	FOAM	FROG	9	[0, 0, 0]	-999	PAL1	0	R1060M
1120.383	0.017	1069155	REC_END	n/a	n/a	3	-999	n/a	n/a	n/a	n/a	9	[0, 0, 0]	-999	PAL1	0	R1060M
1120.4	0.85	1069164	TEST_ORIENT	n/a	n/a	2	4	DOG	MMMMMMM	DOG	SEAT	9	[0, 0, 0]	-999	PAL1	0	R1060M
1121.25	0.001	1069589	TEST_PROBE	n/a	wordpools/wordpool_EN.txt	2	4	DOG	MMMMMMM	DOG	SEAT	9	[0, 0, 0]	-999	PAL1	0	R1060M
1121.251	2.834	1069589	REC_START	n/a	n/a	2	-999	n/a	MMMMMMM	n/a	n/a	9	[0, 0, 0]	-999	PAL1	0	R1060M
1124.085	2.174	1071006	REC_EVENT	2834	n/a	2	4	DOG	MMMMMMM	DOG	SEAT	9	[0, 0, 0]	-999	PAL1	0	R1060M
1126.259	0.009	1072093	REC_END	n/a	n/a	2	-999	n/a	n/a	n/a	n/a	9	[0, 0, 0]	-999	PAL1	0	R1060M
1126.268	0.833	1072097	TEST_ORIENT	n/a	n/a	1	5	GATE	n/a	GATE	BAT	9	[0, 0, 0]	-999	PAL1	0	R1060M
1127.101	0.001	1072514	TEST_PROBE	n/a	wordpools/wordpool_EN.txt	1	5	GATE	n/a	GATE	BAT	9	[0, 0, 0]	-999	PAL1	0	R1060M
1127.102	5.008	1072514	REC_START	n/a	n/a	1	-999	n/a	n/a	n/a	n/a	9	[0, 0, 0]	-999	PAL1	0	R1060M
1132.11	0.001	1075018	REC_END	n/a	n/a	1	-999	n/a	n/a	n/a	n/a	9	[0, 0, 0]	-999	PAL1	0	R1060M
1132.111	0.008	1075019	REC_EVENT	5009	n/a	1	5	GATE	<>	GATE	BAT	9	[0, 0, 0]	-999	PAL1	0	R1060M
1132.119	1.034	1075023	TEST_ORIENT	n/a	n/a	6	6	STICK	WEB	STICK	PIG	9	[0, 0, 0]	-999	PAL1	0	R1060M
1133.153	0.0	1075540	TEST_PROBE	n/a	wordpools/wordpool_EN.txt	6	6	STICK	WEB	STICK	PIG	9	[0, 0, 0]	-999	PAL1	0	R1060M
1133.153	2.1	1075540	REC_START	n/a	n/a	6	-999	n/a	WEB	n/a	n/a	9	[0, 0, 0]	-999	PAL1	0	R1060M
1135.253	2.917	1076590	REC_EVENT	2100	n/a	6	6	STICK	WEB	STICK	PIG	9	[0, 0, 0]	-999	PAL1	0	R1060M
1138.17	1.611	1078048	REC_END	n/a	n/a	6	-999	n/a	n/a	n/a	n/a	9	[0, 0, 0]	-999	PAL1	0	R1060M
1139.781	10.442	1078854	ENCODING_START	n/a	n/a	0	-999	n/a	n/a	n/a	n/a	10	[0, 0, 0]	-999	PAL1	0	R1060M
1150.223	0.867	1084074	STUDY_ORIENT	n/a	n/a	1	5	TRAY	CASH	TRAY	BROOM	10	[0, 0, 0]	-999	PAL1	0	R1060M
1151.09	5.034	1084508	STUDY_PAIR	n/a	wordpools/wordpool_EN.txt	1	5	TRAY	CASH	TRAY	BROOM	10	[0, 0, 0]	-999	PAL1	0	R1060M
1156.124	0.916	1087025	STUDY_ORIENT	n/a	n/a	2	2	BREAD	SHOOT	BREAD	SLUSH	10	[0, 0, 0]	-999	PAL1	0	R1060M
1157.04	5.035	1087483	STUDY_PAIR	n/a	wordpools/wordpool_EN.txt	2	2	BREAD	SHOOT	BREAD	SLUSH	10	[0, 0, 0]	-999	PAL1	0	R1060M
1162.075	0.849	1090000	STUDY_ORIENT	n/a	n/a	3	3	PALM	n/a	CAPE	PALM	10	[0, 0, 0]	-999	PAL1	0	R1060M
1162.924	5.018	1090424	STUDY_PAIR	n/a	wordpools/wordpool_EN.txt	3	3	PALM	n/a	CAPE	PALM	10	[0, 0, 0]	-999	PAL1	0	R1060M
1167.942	0.933	1092933	STUDY_ORIENT	n/a	n/a	4	4	JAR	DIME	DIME	JAR	10	[0, 0, 0]	-999	PAL1	0	R1060M
1168.875	5.018	1093400	STUDY_PAIR	n/a	wordpools/wordpool_EN.txt	4	4	JAR	DIME	DIME	JAR	10	[0, 0, 0]	-999	PAL1	0	R1060M
1173.893	0.884	1095909	STUDY_ORIENT	n/a	n/a	5	1	CASH	FLAME	CASH	FLAME	10	[0, 0, 0]	-999	PAL1	0	R1060M
1174.777	5.034	1096351	STUDY_PAIR	n/a	wordpools/wordpool_EN.txt	5	1	CASH	FLAME	CASH	FLAME	10	[0, 0, 0]	-999	PAL1	0	R1060M
1179.811	0.883	1098867	STUDY_ORIENT	n/a	n/a	6	6	SOAP	JAR	FORK	SOAP	10	[0, 0, 0]	-999	PAL1	0	R1060M
1180.694	4.001	1099309	STUDY_PAIR	n/a	wordpools/wordpool_EN.txt	6	6	SOAP	JAR	FORK	SOAP	10	[0, 0, 0]	-999	PAL1	0	R1060M
1184.695	1.0	1101309	START	n/a	n/a	-999	-999	n/a	n/a	n/a	n/a	10	[-999, -999, -999]	-999	PAL1	0	R1060M
1185.695	0.017	1101809	MATH_START	n/a	n/a	-999	-999	n/a	n/a	n/a	n/a	10	[0, 0, 0]	-999	PAL1	0	R1060M
1185.712	2.984	1101818	PROB	2957	n/a	-999	-999	n/a	n/a	n/a	n/a	10	[2, 1, 3]	6	PAL1	0	R1060M
1188.696	5.802	1103310	PROB	5782	n/a	-999	-999	n/a	n/a	n/a	n/a	10	[1, 3, 2]	6	PAL1	0	R1060M
1194.498	6.735	1106211	PROB	6708	n/a	-999	-999	n/a	n/a	n/a	n/a	10	[6, 8, 5]	19	PAL1	0	R1060M
1201.233	2.816	1109578	PROB	2788	n/a	-999	-999	n/a	n/a	n/a	n/a	10	[1, 4, 2]	7	PAL1	0	R1060M
1204.049	3.245	1110986	PROB	3245	n/a	-999	-999	n/a	n/a	n/a	n/a	10	[4, 2, 3]	9	PAL1	0	R1060M
1207.294	0.007	1112608	STOP	n/a	n/a	-999	-999	n/a	n/a	n/a	n/a	10	[-999, -999, -999]	-999	PAL1	0	R1060M
1207.301	0.0	1112612	MATH_END	n/a	n/a	-999	-999	n/a	n/a	n/a	n/a	10	[0, 0, 0]	-999	PAL1	0	R1060M
1207.301	0.016	1112612	TEST_START	n/a	n/a	-999	-999	n/a	n/a	n/a	n/a	10	[0, 0, 0]	-999	PAL1	0	R1060M
1207.317	0.967	1112620	TEST_ORIENT	n/a	n/a	5	1	CASH	FLAME	CASH	FLAME	10	[0, 0, 0]	-999	PAL1	0	R1060M
1208.284	0.001	1113103	TEST_PROBE	n/a	wordpools/wordpool_EN.txt	5	1	CASH	FLAME	CASH	FLAME	10	[0, 0, 0]	-999	PAL1	0	R1060M
1208.285	2.751	1113104	REC_START	n/a	n/a	5	-999	n/a	FLAME	n/a	n/a	10	[0, 0, 0]	-999	PAL1	0	R1060M
1211.036	2.257	1114479	REC_EVENT	2751	n/a	5	1	CASH	FLAME	CASH	FLAME	10	[0, 0, 0]	-999	PAL1	0	R1060M
1213.293	0.009	1115607	REC_END	n/a	n/a	5	-999	n/a	n/a	n/a	n/a	10	[0, 0, 0]	-999	PAL1	0	R1060M
1213.302	0.833	1115612	TEST_ORIENT	n/a	n/a	2	2	BREAD	SHOOT	BREAD	SLUSH	10	[0, 0, 0]	-999	PAL1	0	R1060M
1214.135	0.001	1116028	TEST_PROBE	n/a	wordpools/wordpool_EN.txt	2	2	BREAD	SHOOT	BREAD	SLUSH	10	[0, 0, 0]	-999	PAL1	0	R1060M
1214.136	2.48	1116029	REC_START	n/a	n/a	2	-999	n/a	SHOOT	n/a	n/a	10	[0, 0, 0]	-999	PAL1	0	R1060M
1216.616	2.528	1117269	REC_EVENT	2480	n/a	2	2	BREAD	SHOOT	BREAD	SLUSH	10	[0, 0, 0]	-999	PAL1	0	R1060M
1219.144	0.009	1118533	REC_END	n/a	n/a	2	-999	n/a	n/a	n/a	n/a	10	[0, 0, 0]	-999	PAL1	0	R1060M
1219.153	1.017	1118537	TEST_ORIENT	n/a	n/a	3	3	PALM	n/a	CAPE	PALM	10	[0, 0, 0]	-999	PAL1	0	R1060M
1220.17	0.001	1119046	TEST_PROBE	n/a	wordpools/wordpool_EN.txt	3	3	PALM	n/a	CAPE	PALM	10	[0, 0, 0]	-999	PAL1	0	R1060M
1220.171	4.03	1119046	REC_START	n/a	n/a	3	-999	n/a	n/a	n/a	n/a	10	[0, 0, 0]	-999	PAL1	0	R1060M
1224.201	0.986	1121061	REC_EVENT	4030	n/a	3	3	PALM	<>	CAPE	PALM	10	[0, 0, 0]	-999	PAL1	0	R1060M
1225.187	0.017	1121554	REC_END	n/a	n/a	3	-999	n/a	n/a	n/a	n/a	10	[0, 0, 0]	-999	PAL1	0	R1060M
1225.204	0.799	1121563	TEST_ORIENT	n/a	n/a	4	4	JAR	DIME	DIME	JAR	10	[0, 0, 0]	-999	PAL1	0	R1060M
1226.003	0.001	1121962	TEST_PROBE	n/a	wordpools/wordpool_EN.txt	4	4	JAR	DIME	DIME	JAR	10	[0, 0, 0]	-999	PAL1	0	R1060M
1226.004	2.695	1121963	REC_START	n/a	n/a	4	-999	n/a	DIME	n/a	n/a	10	[0, 0, 0]	-999	PAL1	0	R1060M
1228.699	2.305	1123310	REC_EVENT	2695	n/a	4	4	JAR	DIME	DIME	JAR	10	[0, 0, 0]	-999	PAL1	0	R1060M
1231.004	0.017	1124463	REC_END	n/a	n/a	4	-999	n/a	n/a	n/a	n/a	10	[0, 0, 0]	-999	PAL1	0	R1060M
1231.021	0.984	1124471	TEST_ORIENT	n/a	n/a	1	5	TRAY	CASH	TRAY	BROOM	10	[0, 0, 0]	-999	PAL1	0	R1060M
1232.005	0.0	1124963	TEST_PROBE	n/a	wordpools/wordpool_EN.txt	1	5	TRAY	CASH	TRAY	BROOM	10	[0, 0, 0]	-999	PAL1	0	R1060M
1232.005	4.07	1124963	REC_START	n/a	n/a	1	-999	n/a	CASH	n/a	n/a	10	[0, 0, 0]	-999	PAL1	0	R1060M
1236.075	0.947	1126998	REC_EVENT	4070	n/a	1	5	TRAY	CASH	TRAY	BROOM	10	[0, 0, 0]	-999	PAL1	0	R1060M
1237.022	0.017	1127471	REC_END	n/a	n/a	1	-999	n/a	n/a	n/a	n/a	10	[0, 0, 0]	-999	PAL1	0	R1060M
1237.039	0.917	1127480	TEST_ORIENT	n/a	n/a	6	6	SOAP	JAR	FORK	SOAP	10	[0, 0, 0]	-999	PAL1	0	R1060M
1237.956	0.0	1127938	TEST_PROBE	n/a	wordpools/wordpool_EN.txt	6	6	SOAP	JAR	FORK	SOAP	10	[0, 0, 0]	-999	PAL1	0	R1060M
1237.956	0.792	1127938	REC_START	n/a	n/a	6	-999	n/a	JAR	n/a	n/a	10	[0, 0, 0]	-999	PAL1	0	R1060M
1238.748	2.825	1128334	REC_EVENT	792	n/a	6	6	SOAP	<>	FORK	SOAP	10	[0, 0, 0]	-999	PAL1	0	R1060M
1241.573	1.4	1129747	REC_EVENT	3617	n/a	6	6	SOAP	JAR	FORK	SOAP	10	[0, 0, 0]	-999	PAL1	0	R1060M
1242.973	1.553	1130447	REC_END	n/a	n/a	6	-999	n/a	n/a	n/a	n/a	10	[0, 0, 0]	-999	PAL1	0	R1060M
1244.526	10.45	1131223	ENCODING_START	n/a	n/a	0	-999	n/a	n/a	n/a	n/a	11	[0, 0, 0]	-999	PAL1	0	R1060M
1254.976	0.934	1136448	STUDY_ORIENT	n/a	n/a	1	1	VINE	NET	OAR	VINE	11	[0, 0, 0]	-999	PAL1	0	R1060M
1255.91	5.034	1136915	STUDY_PAIR	n/a	wordpools/wordpool_EN.txt	1	1	VINE	NET	OAR	VINE	11	[0, 0, 0]	-999	PAL1	0	R1060M
1260.944	0.85	1139432	STUDY_ORIENT	n/a	n/a	2	2	EAR	PASS	MOUSE	EAR	11	[0, 0, 0]	-999	PAL1	0	R1060M
1261.794	5.034	1139857	STUDY_PAIR	n/a	wordpools/wordpool_EN.txt	2	2	EAR	PASS	MOUSE	EAR	11	[0, 0, 0]	-999	PAL1	0	R1060M
1266.828	0.934	1142374	STUDY_ORIENT	n/a	n/a	3	5	JET	n/a	LAMB	JET	11	[0, 0, 0]	-999	PAL1	0	R1060M
1267.762	5.034	1142841	STUDY_PAIR	n/a	wordpools/wordpool_EN.txt	3	5	JET	n/a	LAMB	JET	11	[0, 0, 0]	-999	PAL1	0	R1060M
1272.796	0.8	1145357	STUDY_ORIENT	n/a	n/a	4	6	STRAW	VINE	TREE	STRAW	11	[0, 0, 0]	-999	PAL1	0	R1060M
1273.596	5.018	1145757	STUDY_PAIR	n/a	wordpools/wordpool_EN.txt	4	6	STRAW	VINE	TREE	STRAW	11	[0, 0, 0]	-999	PAL1	0	R1060M
1278.614	0.967	1148266	STUDY_ORIENT	n/a	n/a	5	3	RAIN	PASS	CHIN	RAIN	11	[0, 0, 0]	-999	PAL1	0	R1060M
1279.581	5.034	1148750	STUDY_PAIR	n/a	wordpools/wordpool_EN.txt	5	3	RAIN	PASS	CHIN	RAIN	11	[0, 0, 0]	-999	PAL1	0	R1060M
1284.615	0.785	1151267	STUDY_ORIENT	n/a	n/a	6	4	BEACH	CLIFF	BEACH	CLIFF	11	[0, 0, 0]	-999	PAL1	0	R1060M
1285.4	4.018	1151659	STUDY_PAIR	n/a	wordpools/wordpool_EN.txt	6	4	BEACH	CLIFF	BEACH	CLIFF	11	[0, 0, 0]	-999	PAL1	0	R1060M
1289.418	0.999	1153668	START	n/a	n/a	-999	-999	n/a	n/a	n/a	n/a	11	[-999, -999, -999]	-999	PAL1	0	R1060M
1290.417	0.017	1154167	MATH_START	n/a	n/a	-999	-999	n/a	n/a	n/a	n/a	11	[0, 0, 0]	-999	PAL1	0	R1060M
1290.434	3.166	1154176	PROB	3147	n/a	-999	-999	n/a	n/a	n/a	n/a	11	[1, 8, 6]	15	PAL1	0	R1060M
1293.6	2.968	1155759	PROB	2942	n/a	-999	-999	n/a	n/a	n/a	n/a	11	[3, 2, 3]	8	PAL1	0	R1060M
1296.568	2.701	1157243	PROB	2670	n/a	-999	-999	n/a	n/a	n/a	n/a	11	[7, 6, 1]	14	PAL1	0	R1060M
1299.269	3.316	1158593	PROB	3289	n/a	-999	-999	n/a	n/a	n/a	n/a	11	[8, 1, 6]	15	PAL1	0	R1060M
1302.585	3.268	1160251	PROB	3236	n/a	-999	-999	n/a	n/a	n/a	n/a	11	[5, 9, 5]	19	PAL1	0	R1060M
1305.853	3.368	1161885	PROB	3345	n/a	-999	-999	n/a	n/a	n/a	n/a	11	[2, 9, 3]	14	PAL1	0	R1060M
1309.221	2.969	1163569	PROB	2969	n/a	-999	-999	n/a	n/a	n/a	n/a	11	[3, 6, 7]	16	PAL1	0	R1060M
1312.19	0.015	1165053	STOP	n/a	n/a	-999	-999	n/a	n/a	n/a	n/a	11	[-999, -999, -999]	-999	PAL1	0	R1060M
1312.205	0.0	1165061	MATH_END	n/a	n/a	-999	-999	n/a	n/a	n/a	n/a	11	[0, 0, 0]	-999	PAL1	0	R1060M
1312.205	0.017	1165061	TEST_START	n/a	n/a	-999	-999	n/a	n/a	n/a	n/a	11	[0, 0, 0]	-999	PAL1	0	R1060M
1312.222	0.85	1165069	TEST_ORIENT	n/a	n/a	1	1	VINE	NET	OAR	VINE	11	[0, 0, 0]	-999	PAL1	0	R1060M
1313.072	0.0	1165494	TEST_PROBE	n/a	wordpools/wordpool_EN.txt	1	1	VINE	NET	OAR	VINE	11	[0, 0, 0]	-999	PAL1	0	R1060M
1313.072	4.032	1165494	REC_START	n/a	n/a	1	-999	n/a	NET	n/a	n/a	11	[0, 0, 0]	-999	PAL1	0	R1060M
1317.104	0.985	1167510	REC_EVENT	4032	n/a	1	1	VINE	NET	OAR	VINE	11	[0, 0, 0]	-999	PAL1	0	R1060M
1318.089	0.017	1168003	REC_END	n/a	n/a	1	-999	n/a	n/a	n/a	n/a	11	[0, 0, 0]	-999	PAL1	0	R1060M
1318.106	0.933	1168011	TEST_ORIENT	n/a	n/a	2	2	EAR	PASS	MOUSE	EAR	11	[0, 0, 0]	-999	PAL1	0	R1060M
1319.039	0.0	1168478	REC_START	n/a	n/a	2	-999	n/a	PASS	n/a	n/a	11	[0, 0, 0]	-999	PAL1	0	R1060M
1319.039	4.375	1168478	TEST_PROBE	n/a	wordpools/wordpool_EN.txt	2	2	EAR	PASS	MOUSE	EAR	11	[0, 0, 0]	-999	PAL1	0	R1060M
1323.414	0.643	1170665	REC_EVENT	4375	n/a	2	2	EAR	PASS	MOUSE	EAR	11	[0, 0, 0]	-999	PAL1	0	R1060M
1324.057	0.017	1170986	REC_END	n/a	n/a	2	-999	n/a	n/a	n/a	n/a	11	[0, 0, 0]	-999	PAL1	0	R1060M
1324.074	1.0	1170995	TEST_ORIENT	n/a	n/a	5	3	RAIN	PASS	CHIN	RAIN	11	[0, 0, 0]	-999	PAL1	0	R1060M
1325.074	0.001	1171495	TEST_PROBE	n/a	wordpools/wordpool_EN.txt	5	3	RAIN	PASS	CHIN	RAIN	11	[0, 0, 0]	-999	PAL1	0	R1060M
1325.075	0.0	1171495	REC_START	n/a	n/a	5	-999	n/a	PASS	n/a	n/a	11	[0, 0, 0]	-999	PAL1	0	R1060M
1325.075	5.007	1171495	REC_EVENT	0	n/a	5	3	RAIN	PASS	CHIN	RAIN	11	[0, 0, 0]	-999	PAL1	0	R1060M
1330.082	0.01	1173999	REC_END	n/a	n/a	5	-999	n/a	n/a	n/a	n/a	11	[0, 0, 0]	-999	PAL1	0	R1060M
1330.092	0.832	1174004	TEST_ORIENT	n/a	n/a	6	4	BEACH	CLIFF	BEACH	CLIFF	11	[0, 0, 0]	-999	PAL1	0	R1060M
1330.924	0.001	1174420	TEST_PROBE	n/a	wordpools/wordpool_EN.txt	6	4	BEACH	CLIFF	BEACH	CLIFF	11	[0, 0, 0]	-999	PAL1	0	R1060M
1330.925	1.429	1174420	REC_START	n/a	n/a	6	-999	n/a	CLIFF	n/a	n/a	11	[0, 0, 0]	-999	PAL1	0	R1060M
1332.354	3.578	1175135	REC_EVENT	1429	n/a	6	4	BEACH	CLIFF	BEACH	CLIFF	11	[0, 0, 0]	-999	PAL1	0	R1060M
1335.932	0.01	1176924	REC_END	n/a	n/a	6	-999	n/a	n/a	n/a	n/a	11	[0, 0, 0]	-999	PAL1	0	R1060M
1335.942	0.934	1176929	TEST_ORIENT	n/a	n/a	3	5	JET	n/a	LAMB	JET	11	[0, 0, 0]	-999	PAL1	0	R1060M
1336.876	0.0	1177396	REC_START	n/a	n/a	3	-999	n/a	n/a	n/a	n/a	11	[0, 0, 0]	-999	PAL1	0	R1060M
1336.876	4.491	1177396	TEST_PROBE	n/a	wordpools/wordpool_EN.txt	3	5	JET	n/a	LAMB	JET	11	[0, 0, 0]	-999	PAL1	0	R1060M
1341.367	0.533	1179641	REC_EVENT	4491	n/a	3	5	JET	<>	LAMB	JET	11	[0, 0, 0]	-999	PAL1	0	R1060M
1341.9	0.01	1179907	REC_END	n/a	n/a	3	-999	n/a	n/a	n/a	n/a	11	[0, 0, 0]	-999	PAL1	0	R1060M
1341.91	0.817	1179912	TEST_ORIENT	n/a	n/a	4	6	STRAW	VINE	TREE	STRAW	11	[0, 0, 0]	-999	PAL1	0	R1060M
1342.727	0.0	1180321	TEST_PROBE	n/a	wordpools/wordpool_EN.txt	4	6	STRAW	VINE	TREE	STRAW	11	[0, 0, 0]	-999	PAL1	0	R1060M
1342.727	1.191	1180321	REC_START	n/a	n/a	4	-999	n/a	VINE	n/a	n/a	11	[0, 0, 0]	-999	PAL1	0	R1060M
1343.918	1.591	1180916	REC_EVENT	1191	n/a	4	6	STRAW	<>	TREE	STRAW	11	[0, 0, 0]	-999	PAL1	0	R1060M
1345.509	0.345	1181712	REC_EVENT	2782	n/a	4	6	STRAW	STRAW	TREE	STRAW	11	[0, 0, 0]	-999	PAL1	0	R1060M
1345.854	1.176	1181884	REC_EVENT	3127	n/a	4	6	STRAW	VINE	TREE	STRAW	11	[0, 0, 0]	-999	PAL1	0	R1060M
1347.03	0.714	1182472	REC_EVENT	4303	n/a	4	6	STRAW	VINE	TREE	STRAW	11	[0, 0, 0]	-999	PAL1	0	R1060M
1347.744	1.71	1182829	REC_END	n/a	n/a	4	-999	n/a	n/a	n/a	n/a	11	[0, 0, 0]	-999	PAL1	0	R1060M
1349.454	10.443	1183684	ENCODING_START	n/a	n/a	0	-999	n/a	n/a	n/a	n/a	12	[0, 0, 0]	-999	PAL1	0	R1060M
1359.897	0.866	1188905	STUDY_ORIENT	n/a	n/a	1	5	CROWN	n/a	CROWN	HOUSE	12	[0, 0, 0]	-999	PAL1	0	R1060M
1360.763	5.018	1189338	STUDY_PAIR	n/a	wordpools/wordpool_EN.txt	1	5	CROWN	n/a	CROWN	HOUSE	12	[0, 0, 0]	-999	PAL1	0	R1060M
1365.781	0.867	1191847	STUDY_ORIENT	n/a	n/a	2	2	GOAT	n/a	GOAT	JUDGE	12	[0, 0, 0]	-999	PAL1	0	R1060M
1366.648	5.018	1192281	STUDY_PAIR	n/a	wordpools/wordpool_EN.txt	2	2	GOAT	n/a	GOAT	JUDGE	12	[0, 0, 0]	-999	PAL1	0	R1060M
1371.666	0.95	1194790	STUDY_ORIENT	n/a	n/a	3	1	HEART	BOX	BOX	HEART	12	[0, 0, 0]	-999	PAL1	0	R1060M
1372.616	5.034	1195265	STUDY_PAIR	n/a	wordpools/wordpool_EN.txt	3	1	HEART	BOX	BOX	HEART	12	[0, 0, 0]	-999	PAL1	0	R1060M
1377.65	0.868	1197781	STUDY_ORIENT	n/a	n/a	4	4	HAWK	n/a	STORM	HAWK	12	[0, 0, 0]	-999	PAL1	0	R1060M
1378.518	5.018	1198215	STUDY_PAIR	n/a	wordpools/wordpool_EN.txt	4	4	HAWK	n/a	STORM	HAWK	12	[0, 0, 0]	-999	PAL1	0	R1060M
1383.536	0.8	1200724	STUDY_ORIENT	n/a	n/a	5	3	HILL	n/a	VASE	HILL	12	[0, 0, 0]	-999	PAL1	0	R1060M
1384.336	5.034	1201124	STUDY_PAIR	n/a	wordpools/wordpool_EN.txt	5	3	HILL	n/a	VASE	HILL	12	[0, 0, 0]	-999	PAL1	0	R1060M
1389.37	0.784	1203641	STUDY_ORIENT	n/a	n/a	6	6	CANE	SPOON	SPOON	CANE	12	[0, 0, 0]	-999	PAL1	0	R1060M
1390.154	4.018	1204033	STUDY_PAIR	n/a	wordpools/wordpool_EN.txt	6	6	CANE	SPOON	SPOON	CANE	12	[0, 0, 0]	-999	PAL1	0	R1060M
1394.172	0.999	1206042	START	n/a	n/a	-999	-999	n/a	n/a	n/a	n/a	12	[-999, -999, -999]	-999	PAL1	0	R1060M
1395.171	0.017	1206542	MATH_START	n/a	n/a	-999	-999	n/a	n/a	n/a	n/a	12	[0, 0, 0]	-999	PAL1	0	R1060M
1395.188	3.8	1206550	PROB	3777	n/a	-999	-999	n/a	n/a	n/a	n/a	12	[9, 6, 4]	19	PAL1	0	R1060M
1398.988	2.667	1208450	PROB	2633	n/a	-999	-999	n/a	n/a	n/a	n/a	12	[3, 2, 3]	8	PAL1	0	R1060M
1401.655	2.735	1209783	PROB	2703	n/a	-999	-999	n/a	n/a	n/a	n/a	12	[5, 5, 9]	19	PAL1	0	R1060M
1404.39	2.801	1211151	PROB	2768	n/a	-999	-999	n/a	n/a	n/a	n/a	12	[7, 6, 1]	14	PAL1	0	R1060M
1407.191	5.284	1212551	PROB	5263	n/a	-999	-999	n/a	n/a	n/a	n/a	12	[8, 7, 8]	23	PAL1	0	R1060M
1412.475	2.378	1215193	PROB	2378	n/a	-999	-999	n/a	n/a	n/a	n/a	12	[1, 4, 6]	11	PAL1	0	R1060M
1414.853	0.005	1216382	STOP	n/a	n/a	-999	-999	n/a	n/a	n/a	n/a	12	[-999, -999, -999]	-999	PAL1	0	R1060M
1414.858	0.0	1216384	MATH_END	n/a	n/a	-999	-999	n/a	n/a	n/a	n/a	12	[0, 0, 0]	-999	PAL1	0	R1060M
1414.858	0.017	1216384	TEST_START	n/a	n/a	-999	-999	n/a	n/a	n/a	n/a	12	[0, 0, 0]	-999	PAL1	0	R1060M
1414.875	1.033	1216393	TEST_ORIENT	n/a	n/a	3	1	HEART	BOX	BOX	HEART	12	[0, 0, 0]	-999	PAL1	0	R1060M
1415.908	0.001	1216909	TEST_PROBE	n/a	wordpools/wordpool_EN.txt	3	1	HEART	BOX	BOX	HEART	12	[0, 0, 0]	-999	PAL1	0	R1060M
1415.909	1.282	1216910	REC_START	n/a	n/a	3	-999	n/a	BOX	n/a	n/a	12	[0, 0, 0]	-999	PAL1	0	R1060M
1417.191	3.734	1217551	REC_EVENT	1282	n/a	3	1	HEART	BOX	BOX	HEART	12	[0, 0, 0]	-999	PAL1	0	R1060M
1420.925	0.017	1219418	REC_END	n/a	n/a	3	-999	n/a	n/a	n/a	n/a	12	[0, 0, 0]	-999	PAL1	0	R1060M
1420.942	0.867	1219426	TEST_ORIENT	n/a	n/a	2	2	GOAT	n/a	GOAT	JUDGE	12	[0, 0, 0]	-999	PAL1	0	R1060M
1421.809	0.001	1219860	TEST_PROBE	n/a	wordpools/wordpool_EN.txt	2	2	GOAT	n/a	GOAT	JUDGE	12	[0, 0, 0]	-999	PAL1	0	R1060M
1421.81	1.266	1219860	REC_START	n/a	n/a	2	-999	n/a	n/a	n/a	n/a	12	[0, 0, 0]	-999	PAL1	0	R1060M
1423.076	3.741	1220493	REC_EVENT	1266	n/a	2	2	GOAT	<>	GOAT	JUDGE	12	[0, 0, 0]	-999	PAL1	0	R1060M
1426.817	0.01	1222364	REC_END	n/a	n/a	2	-999	n/a	n/a	n/a	n/a	12	[0, 0, 0]	-999	PAL1	0	R1060M
1426.827	0.95	1222369	TEST_ORIENT	n/a	n/a	5	3	HILL	n/a	VASE	HILL	12	[0, 0, 0]	-999	PAL1	0	R1060M
1427.777	0.0	1222844	TEST_PROBE	n/a	wordpools/wordpool_EN.txt	5	3	HILL	n/a	VASE	HILL	12	[0, 0, 0]	-999	PAL1	0	R1060M
1427.777	5.015	1222844	REC_START	n/a	n/a	5	-999	n/a	n/a	n/a	n/a	12	[0, 0, 0]	-999	PAL1	0	R1060M
1432.792	0.003	1225351	REC_EVENT	5015	n/a	5	3	HILL	<>	VASE	HILL	12	[0, 0, 0]	-999	PAL1	0	R1060M
1432.795	0.016	1225352	REC_END	n/a	n/a	5	-999	n/a	n/a	n/a	n/a	12	[0, 0, 0]	-999	PAL1	0	R1060M
1432.811	0.984	1225360	TEST_ORIENT	n/a	n/a	4	4	HAWK	n/a	STORM	HAWK	12	[0, 0, 0]	-999	PAL1	0	R1060M
1433.795	0.0	1225852	REC_START	n/a	n/a	4	-999	n/a	n/a	n/a	n/a	12	[0, 0, 0]	-999	PAL1	0	R1060M
1433.795	5.015	1225852	TEST_PROBE	n/a	wordpools/wordpool_EN.txt	4	4	HAWK	n/a	STORM	HAWK	12	[0, 0, 0]	-999	PAL1	0	R1060M
1438.81	0.002	1228360	REC_EVENT	5015	n/a	4	4	HAWK	<>	STORM	HAWK	12	[0, 0, 0]	-999	PAL1	0	R1060M
1438.812	0.017	1228361	REC_END	n/a	n/a	4	-999	n/a	n/a	n/a	n/a	12	[0, 0, 0]	-999	PAL1	0	R1060M
1438.829	0.817	1228369	TEST_ORIENT	n/a	n/a	1	5	CROWN	n/a	CROWN	HOUSE	12	[0, 0, 0]	-999	PAL1	0	R1060M
1439.646	0.001	1228778	TEST_PROBE	n/a	wordpools/wordpool_EN.txt	1	5	CROWN	n/a	CROWN	HOUSE	12	[0, 0, 0]	-999	PAL1	0	R1060M
1439.647	5.025	1228778	REC_START	n/a	n/a	1	-999	n/a	n/a	n/a	n/a	12	[0, 0, 0]	-999	PAL1	0	R1060M
1444.672	0.002	1231291	REC_END	n/a	n/a	1	-999	n/a	n/a	n/a	n/a	12	[0, 0, 0]	-999	PAL1	0	R1060M
1444.674	0.006	1231292	REC_EVENT	5027	n/a	1	5	CROWN	<>	CROWN	HOUSE	12	[0, 0, 0]	-999	PAL1	0	R1060M
1444.68	1.017	1231295	TEST_ORIENT	n/a	n/a	6	6	CANE	SPOON	SPOON	CANE	12	[0, 0, 0]	-999	PAL1	0	R1060M
1445.697	0.0	1231803	TEST_PROBE	n/a	wordpools/wordpool_EN.txt	6	6	CANE	SPOON	SPOON	CANE	12	[0, 0, 0]	-999	PAL1	0	R1060M
1445.697	1.088	1231803	REC_START	n/a	n/a	6	-999	n/a	SPOON	n/a	n/a	12	[0, 0, 0]	-999	PAL1	0	R1060M
1446.785	0.601	1232347	REC_EVENT	1088	n/a	6	6	CANE	CANE	SPOON	CANE	12	[0, 0, 0]	-999	PAL1	0	R1060M
1447.386	0.256	1232648	REC_EVENT	1689	n/a	6	6	CANE	<>	SPOON	CANE	12	[0, 0, 0]	-999	PAL1	0	R1060M
1447.642	3.073	1232776	REC_EVENT	1945	n/a	6	6	CANE	SPOON	SPOON	CANE	12	[0, 0, 0]	-999	PAL1	0	R1060M
1450.715	1.555	1234312	REC_END	n/a	n/a	6	-999	n/a	n/a	n/a	n/a	12	[0, 0, 0]	-999	PAL1	0	R1060M
1452.27	10.447	1235089	ENCODING_START	n/a	n/a	0	-999	n/a	n/a	n/a	n/a	13	[0, 0, 0]	-999	PAL1	0	R1060M
1462.717	0.867	1240313	STUDY_ORIENT	n/a	n/a	1	3	SPARK	CANE	STORE	SPARK	13	[0, 0, 0]	-999	PAL1	0	R1060M
1463.584	5.018	1240746	STUDY_PAIR	n/a	wordpools/wordpool_EN.txt	1	3	SPARK	CANE	STORE	SPARK	13	[0, 0, 0]	-999	PAL1	0	R1060M
1468.602	0.901	1243255	STUDY_ORIENT	n/a	n/a	2	6	YARD	PASS	CAVE	YARD	13	[0, 0, 0]	-999	PAL1	0	R1060M
1469.503	5.034	1243705	STUDY_PAIR	n/a	wordpools/wordpool_EN.txt	2	6	YARD	PASS	CAVE	YARD	13	[0, 0, 0]	-999	PAL1	0	R1060M
1474.537	0.784	1246222	STUDY_ORIENT	n/a	n/a	3	1	WING	CANE	WING	MAP	13	[0, 0, 0]	-999	PAL1	0	R1060M
1475.321	5.034	1246614	STUDY_PAIR	n/a	wordpools/wordpool_EN.txt	3	1	WING	CANE	WING	MAP	13	[0, 0, 0]	-999	PAL1	0	R1060M
1480.355	0.867	1249131	STUDY_ORIENT	n/a	n/a	4	4	STAIR	CHAIR	HAT	STAIR	13	[0, 0, 0]	-999	PAL1	0	R1060M
1481.222	5.034	1249565	STUDY_PAIR	n/a	wordpools/wordpool_EN.txt	4	4	STAIR	CHAIR	HAT	STAIR	13	[0, 0, 0]	-999	PAL1	0	R1060M
1486.256	0.851	1252082	STUDY_ORIENT	n/a	n/a	5	5	SHIP	CHAIR	SHIP	CHAIR	13	[0, 0, 0]	-999	PAL1	0	R1060M
1487.107	5.034	1252507	STUDY_PAIR	n/a	wordpools/wordpool_EN.txt	5	5	SHIP	CHAIR	SHIP	CHAIR	13	[0, 0, 0]	-999	PAL1	0	R1060M
1492.141	1.0	1255024	STUDY_ORIENT	n/a	n/a	6	2	FLUTE	WING	APE	FLUTE	13	[0, 0, 0]	-999	PAL1	0	R1060M
1493.141	4.018	1255524	STUDY_PAIR	n/a	wordpools/wordpool_EN.txt	6	2	FLUTE	WING	APE	FLUTE	13	[0, 0, 0]	-999	PAL1	0	R1060M
1497.159	1.0	1257533	START	n/a	n/a	-999	-999	n/a	n/a	n/a	n/a	13	[-999, -999, -999]	-999	PAL1	0	R1060M
1498.159	0.016	1258033	MATH_START	n/a	n/a	-999	-999	n/a	n/a	n/a	n/a	13	[0, 0, 0]	-999	PAL1	0	R1060M
1498.175	4.7	1258041	PROB	4670	n/a	-999	-999	n/a	n/a	n/a	n/a	13	[3, 6, 9]	18	PAL1	0	R1060M
1502.875	2.751	1260391	PROB	2722	n/a	-999	-999	n/a	n/a	n/a	n/a	13	[9, 2, 1]	12	PAL1	0	R1060M
1505.626	5.134	1261766	PROB	5115	n/a	-999	-999	n/a	n/a	n/a	n/a	13	[8, 6, 2]	16	PAL1	0	R1060M
1510.76	3.868	1264333	PROB	3845	n/a	-999	-999	n/a	n/a	n/a	n/a	13	[4, 3, 3]	10	PAL1	0	R1060M
1514.628	3.097	1266267	PROB	3097	n/a	-999	-999	n/a	n/a	n/a	n/a	13	[4, 8, 7]	19	PAL1	0	R1060M
1517.725	0.003	1267815	STOP	n/a	n/a	-999	-999	n/a	n/a	n/a	n/a	13	[-999, -999, -999]	-999	PAL1	0	R1060M
1517.728	0.0	1267817	TEST_START	n/a	n/a	-999	-999	n/a	n/a	n/a	n/a	13	[0, 0, 0]	-999	PAL1	0	R1060M
1517.728	0.017	1267817	MATH_END	n/a	n/a	-999	-999	n/a	n/a	n/a	n/a	13	[0, 0, 0]	-999	PAL1	0	R1060M
1517.745	0.883	1267825	TEST_ORIENT	n/a	n/a	3	1	WING	CANE	WING	MAP	13	[0, 0, 0]	-999	PAL1	0	R1060M
1518.628	0.001	1268267	TEST_PROBE	n/a	wordpools/wordpool_EN.txt	3	1	WING	CANE	WING	MAP	13	[0, 0, 0]	-999	PAL1	0	R1060M
1518.629	4.107	1268267	REC_START	n/a	n/a	3	-999	n/a	CANE	n/a	n/a	13	[0, 0, 0]	-999	PAL1	0	R1060M
1522.736	0.901	1270321	REC_EVENT	4107	n/a	3	1	WING	CANE	WING	MAP	13	[0, 0, 0]	-999	PAL1	0	R1060M
1523.637	0.009	1270771	REC_END	n/a	n/a	3	-999	n/a	n/a	n/a	n/a	13	[0, 0, 0]	-999	PAL1	0	R1060M
1523.646	0.885	1270775	TEST_ORIENT	n/a	n/a	6	2	FLUTE	WING	APE	FLUTE	13	[0, 0, 0]	-999	PAL1	0	R1060M
1524.531	0.0	1271218	TEST_PROBE	n/a	wordpools/wordpool_EN.txt	6	2	FLUTE	WING	APE	FLUTE	13	[0, 0, 0]	-999	PAL1	0	R1060M
1524.531	2.71	1271218	REC_START	n/a	n/a	6	-999	n/a	WING	n/a	n/a	13	[0, 0, 0]	-999	PAL1	0	R1060M
1527.241	2.307	1272573	REC_EVENT	2710	n/a	6	2	FLUTE	WING	APE	FLUTE	13	[0, 0, 0]	-999	PAL1	0	R1060M
1529.548	0.016	1273726	REC_END	n/a	n/a	6	-999	n/a	n/a	n/a	n/a	13	[0, 0, 0]	-999	PAL1	0	R1060M
1529.564	0.818	1273734	TEST_ORIENT	n/a	n/a	1	3	SPARK	CANE	STORE	SPARK	13	[0, 0, 0]	-999	PAL1	0	R1060M
1530.382	0.0	1274143	REC_START	n/a	n/a	1	-999	n/a	CANE	n/a	n/a	13	[0, 0, 0]	-999	PAL1	0	R1060M
1530.382	1.532	1274143	TEST_PROBE	n/a	wordpools/wordpool_EN.txt	1	3	SPARK	CANE	STORE	SPARK	13	[0, 0, 0]	-999	PAL1	0	R1060M
1531.914	3.485	1274909	REC_EVENT	1532	n/a	1	3	SPARK	CANE	STORE	SPARK	13	[0, 0, 0]	-999	PAL1	0	R1060M
1535.399	0.017	1276652	REC_END	n/a	n/a	1	-999	n/a	n/a	n/a	n/a	13	[0, 0, 0]	-999	PAL1	0	R1060M
1535.416	0.867	1276660	TEST_ORIENT	n/a	n/a	4	4	STAIR	CHAIR	HAT	STAIR	13	[0, 0, 0]	-999	PAL1	0	R1060M
1536.283	0.0	1277094	TEST_PROBE	n/a	wordpools/wordpool_EN.txt	4	4	STAIR	CHAIR	HAT	STAIR	13	[0, 0, 0]	-999	PAL1	0	R1060M
1536.283	2.616	1277094	REC_START	n/a	n/a	4	-999	n/a	CHAIR	n/a	n/a	13	[0, 0, 0]	-999	PAL1	0	R1060M
1538.899	2.402	1278402	REC_EVENT	2616	n/a	4	4	STAIR	CHAIR	HAT	STAIR	13	[0, 0, 0]	-999	PAL1	0	R1060M
1541.301	0.016	1279603	REC_END	n/a	n/a	4	-999	n/a	n/a	n/a	n/a	13	[0, 0, 0]	-999	PAL1	0	R1060M
1541.317	0.834	1279611	TEST_ORIENT	n/a	n/a	5	5	SHIP	CHAIR	SHIP	CHAIR	13	[0, 0, 0]	-999	PAL1	0	R1060M
1542.151	0.0	1280027	TEST_PROBE	n/a	wordpools/wordpool_EN.txt	5	5	SHIP	CHAIR	SHIP	CHAIR	13	[0, 0, 0]	-999	PAL1	0	R1060M
1542.151	0.97	1280027	REC_START	n/a	n/a	5	-999	n/a	CHAIR	n/a	n/a	13	[0, 0, 0]	-999	PAL1	0	R1060M
1543.121	0.537	1280512	REC_EVENT	970	n/a	5	5	SHIP	SHIP	SHIP	CHAIR	13	[0, 0, 0]	-999	PAL1	0	R1060M
1543.658	0.559	1280781	REC_EVENT	1507	n/a	5	5	SHIP	CHAIR	SHIP	CHAIR	13	[0, 0, 0]	-999	PAL1	0	R1060M
1544.217	2.951	1281060	REC_EVENT	2066	n/a	5	5	SHIP	CHAIR	SHIP	CHAIR	13	[0, 0, 0]	-999	PAL1	0	R1060M
1547.168	0.017	1282536	REC_END	n/a	n/a	5	-999	n/a	n/a	n/a	n/a	13	[0, 0, 0]	-999	PAL1	0	R1060M
1547.185	0.833	1282544	TEST_ORIENT	n/a	n/a	2	6	YARD	PASS	CAVE	YARD	13	[0, 0, 0]	-999	PAL1	0	R1060M
1548.018	0.0	1282961	REC_START	n/a	n/a	2	-999	n/a	PASS	n/a	n/a	13	[0, 0, 0]	-999	PAL1	0	R1060M
1548.018	2.946	1282961	TEST_PROBE	n/a	wordpools/wordpool_EN.txt	2	6	YARD	PASS	CAVE	YARD	13	[0, 0, 0]	-999	PAL1	0	R1060M
1550.964	1.619	1284434	REC_EVENT	2946	n/a	2	6	YARD	<>	CAVE	YARD	13	[0, 0, 0]	-999	PAL1	0	R1060M
1552.583	0.452	1285243	REC_EVENT	4565	n/a	2	6	YARD	PASS	CAVE	YARD	13	[0, 0, 0]	-999	PAL1	0	R1060M
1553.035	1.546	1285469	REC_END	n/a	n/a	2	-999	n/a	n/a	n/a	n/a	13	[0, 0, 0]	-999	PAL1	0	R1060M
1554.581	10.44	1286242	ENCODING_START	n/a	n/a	0	-999	n/a	n/a	n/a	n/a	14	[0, 0, 0]	-999	PAL1	0	R1060M
1565.021	0.984	1291462	STUDY_ORIENT	n/a	n/a	1	3	STEAK	PASS	MOLE	STEAK	14	[0, 0, 0]	-999	PAL1	0	R1060M
1566.005	5.034	1291954	STUDY_PAIR	n/a	wordpools/wordpool_EN.txt	1	3	STEAK	PASS	MOLE	STEAK	14	[0, 0, 0]	-999	PAL1	0	R1060M
1571.039	0.883	1294471	STUDY_ORIENT	n/a	n/a	2	6	BOMB	MAIL	MAIL	BOMB	14	[0, 0, 0]	-999	PAL1	0	R1060M
1571.922	5.035	1294912	STUDY_PAIR	n/a	wordpools/wordpool_EN.txt	2	6	BOMB	MAIL	MAIL	BOMB	14	[0, 0, 0]	-999	PAL1	0	R1060M
1576.957	1.017	1297430	STUDY_ORIENT	n/a	n/a	3	5	COW	SHEEP	SHEEP	COW	14	[0, 0, 0]	-999	PAL1	0	R1060M
1577.974	5.034	1297938	STUDY_PAIR	n/a	wordpools/wordpool_EN.txt	3	5	COW	SHEEP	SHEEP	COW	14	[0, 0, 0]	-999	PAL1	0	R1060M
1583.008	0.984	1300455	STUDY_ORIENT	n/a	n/a	4	4	RAT	NAIL	RAT	NAIL	14	[0, 0, 0]	-999	PAL1	0	R1060M
1583.992	5.034	1300947	STUDY_PAIR	n/a	wordpools/wordpool_EN.txt	4	4	RAT	NAIL	RAT	NAIL	14	[0, 0, 0]	-999	PAL1	0	R1060M
1589.026	0.833	1303464	STUDY_ORIENT	n/a	n/a	5	1	SQUARE	n/a	STAR	SQUARE	14	[0, 0, 0]	-999	PAL1	0	R1060M
1589.859	5.018	1303880	STUDY_PAIR	n/a	wordpools/wordpool_EN.txt	5	1	SQUARE	n/a	STAR	SQUARE	14	[0, 0, 0]	-999	PAL1	0	R1060M
1594.877	0.95	1306389	STUDY_ORIENT	n/a	n/a	6	2	ELF	CONE	ELF	CONE	14	[0, 0, 0]	-999	PAL1	0	R1060M
1595.827	4.001	1306864	STUDY_PAIR	n/a	wordpools/wordpool_EN.txt	6	2	ELF	CONE	ELF	CONE	14	[0, 0, 0]	-999	PAL1	0	R1060M
1599.828	1.0	1308864	START	n/a	n/a	-999	-999	n/a	n/a	n/a	n/a	14	[-999, -999, -999]	-999	PAL1	0	R1060M
1600.828	0.017	1309364	MATH_START	n/a	n/a	-999	-999	n/a	n/a	n/a	n/a	14	[0, 0, 0]	-999	PAL1	0	R1060M
1600.845	5.602	1309373	PROB	5577	n/a	-999	-999	n/a	n/a	n/a	n/a	14	[5, 1, 7]	13	PAL1	0	R1060M
1606.447	8.251	1312174	PROB	8222	n/a	-999	-999	n/a	n/a	n/a	n/a	14	[3, 9, 6]	18	PAL1	0	R1060M
1614.698	5.117	1316299	PROB	5091	n/a	-999	-999	n/a	n/a	n/a	n/a	14	[9, 6, 2]	17	PAL1	0	R1060M
1619.815	5.335	1318857	PROB	5335	n/a	-999	-999	n/a	n/a	n/a	n/a	14	[8, 7, 7]	22	PAL1	0	R1060M
1625.15	0.018	1321525	STOP	n/a	n/a	-999	-999	n/a	n/a	n/a	n/a	14	[-999, -999, -999]	-999	PAL1	0	R1060M
1625.168	0.0	1321534	MATH_END	n/a	n/a	-999	-999	n/a	n/a	n/a	n/a	14	[0, 0, 0]	-999	PAL1	0	R1060M
1625.168	0.016	1321534	TEST_START	n/a	n/a	-999	-999	n/a	n/a	n/a	n/a	14	[0, 0, 0]	-999	PAL1	0	R1060M
1625.184	0.816	1321542	TEST_ORIENT	n/a	n/a	5	1	SQUARE	n/a	STAR	SQUARE	14	[0, 0, 0]	-999	PAL1	0	R1060M
1626.0	0.001	1321950	TEST_PROBE	n/a	wordpools/wordpool_EN.txt	5	1	SQUARE	n/a	STAR	SQUARE	14	[0, 0, 0]	-999	PAL1	0	R1060M
1626.001	5.015	1321950	REC_START	n/a	n/a	5	-999	n/a	n/a	n/a	n/a	14	[0, 0, 0]	-999	PAL1	0	R1060M
1631.016	0.001	1324458	REC_EVENT	5015	n/a	5	1	SQUARE	<>	STAR	SQUARE	14	[0, 0, 0]	-999	PAL1	0	R1060M
1631.017	0.017	1324458	REC_END	n/a	n/a	5	-999	n/a	n/a	n/a	n/a	14	[0, 0, 0]	-999	PAL1	0	R1060M
1631.034	1.0	1324467	TEST_ORIENT	n/a	n/a	6	2	ELF	CONE	ELF	CONE	14	[0, 0, 0]	-999	PAL1	0	R1060M
1632.034	0.001	1324967	TEST_PROBE	n/a	wordpools/wordpool_EN.txt	6	2	ELF	CONE	ELF	CONE	14	[0, 0, 0]	-999	PAL1	0	R1060M
1632.035	0.009	1324967	REC_START	n/a	n/a	6	-999	n/a	CONE	n/a	n/a	14	[0, 0, 0]	-999	PAL1	0	R1060M
1632.044	2.555	1324972	REC_EVENT	9	n/a	6	2	ELF	<>	ELF	CONE	14	[0, 0, 0]	-999	PAL1	0	R1060M
1634.599	2.444	1326249	REC_EVENT	2564	n/a	6	2	ELF	CONE	ELF	CONE	14	[0, 0, 0]	-999	PAL1	0	R1060M
1637.043	0.009	1327471	REC_END	n/a	n/a	6	-999	n/a	n/a	n/a	n/a	14	[0, 0, 0]	-999	PAL1	0	R1060M
1637.052	0.784	1327475	TEST_ORIENT	n/a	n/a	1	3	STEAK	PASS	MOLE	STEAK	14	[0, 0, 0]	-999	PAL1	0	R1060M
1637.836	0.0	1327867	TEST_PROBE	n/a	wordpools/wordpool_EN.txt	1	3	STEAK	PASS	MOLE	STEAK	14	[0, 0, 0]	-999	PAL1	0	R1060M
1637.836	4.845	1327867	REC_START	n/a	n/a	1	-999	n/a	PASS	n/a	n/a	14	[0, 0, 0]	-999	PAL1	0	R1060M
1642.681	0.18	1330290	REC_EVENT	4845	n/a	1	3	STEAK	PASS	MOLE	STEAK	14	[0, 0, 0]	-999	PAL1	0	R1060M
1642.861	0.026	1330380	REC_END	n/a	n/a	1	-999	n/a	n/a	n/a	n/a	14	[0, 0, 0]	-999	PAL1	0	R1060M
1642.887	0.866	1330393	TEST_ORIENT	n/a	n/a	4	4	RAT	NAIL	RAT	NAIL	14	[0, 0, 0]	-999	PAL1	0	R1060M
1643.753	0.001	1330826	TEST_PROBE	n/a	wordpools/wordpool_EN.txt	4	4	RAT	NAIL	RAT	NAIL	14	[0, 0, 0]	-999	PAL1	0	R1060M
1643.754	1.459	1330826	REC_START	n/a	n/a	4	-999	n/a	NAIL	n/a	n/a	14	[0, 0, 0]	-999	PAL1	0	R1060M
1645.213	3.549	1331556	REC_EVENT	1459	n/a	4	4	RAT	NAIL	RAT	NAIL	14	[0, 0, 0]	-999	PAL1	0	R1060M
1648.762	0.009	1333330	REC_END	n/a	n/a	4	-999	n/a	n/a	n/a	n/a	14	[0, 0, 0]	-999	PAL1	0	R1060M
1648.771	0.917	1333335	TEST_ORIENT	n/a	n/a	3	5	COW	SHEEP	SHEEP	COW	14	[0, 0, 0]	-999	PAL1	0	R1060M
1649.688	0.001	1333793	TEST_PROBE	n/a	wordpools/wordpool_EN.txt	3	5	COW	SHEEP	SHEEP	COW	14	[0, 0, 0]	-999	PAL1	0	R1060M
1649.689	0.811	1333794	REC_START	n/a	n/a	3	-999	n/a	SHEEP	n/a	n/a	14	[0, 0, 0]	-999	PAL1	0	R1060M
1650.5	4.205	1334199	REC_EVENT	811	n/a	3	5	COW	SHEEP	SHEEP	COW	14	[0, 0, 0]	-999	PAL1	0	R1060M
1654.705	0.017	1336301	REC_END	n/a	n/a	3	-999	n/a	n/a	n/a	n/a	14	[0, 0, 0]	-999	PAL1	0	R1060M
1654.722	1.001	1336310	TEST_ORIENT	n/a	n/a	2	6	BOMB	MAIL	MAIL	BOMB	14	[0, 0, 0]	-999	PAL1	0	R1060M
1655.723	0.0	1336810	TEST_PROBE	n/a	wordpools/wordpool_EN.txt	2	6	BOMB	MAIL	MAIL	BOMB	14	[0, 0, 0]	-999	PAL1	0	R1060M
1655.723	1.28	1336810	REC_START	n/a	n/a	2	-999	n/a	MAIL	n/a	n/a	14	[0, 0, 0]	-999	PAL1	0	R1060M
1657.003	3.744	1337450	REC_EVENT	1280	n/a	2	6	BOMB	MAIL	MAIL	BOMB	14	[0, 0, 0]	-999	PAL1	0	R1060M
1660.747	1.866	1339322	REC_END	n/a	n/a	2	-999	n/a	n/a	n/a	n/a	14	[0, 0, 0]	-999	PAL1	0	R1060M
1662.613	10.447	1340255	ENCODING_START	n/a	n/a	0	-999	n/a	n/a	n/a	n/a	15	[0, 0, 0]	-999	PAL1	0	R1060M
1673.06	0.833	1345478	STUDY_ORIENT	n/a	n/a	1	3	BLOOM	PASS	BLOOM	GEESE	15	[0, 0, 0]	-999	PAL1	0	R1060M
1673.893	5.034	1345895	STUDY_PAIR	n/a	wordpools/wordpool_EN.txt	1	3	BLOOM	PASS	BLOOM	GEESE	15	[0, 0, 0]	-999	PAL1	0	R1060M
1678.927	0.767	1348412	STUDY_ORIENT	n/a	n/a	2	6	PIT	n/a	PIT	TEA	15	[0, 0, 0]	-999	PAL1	0	R1060M
1679.694	5.034	1348795	STUDY_PAIR	n/a	wordpools/wordpool_EN.txt	2	6	PIT	n/a	PIT	TEA	15	[0, 0, 0]	-999	PAL1	0	R1060M
1684.728	0.818	1351312	STUDY_ORIENT	n/a	n/a	3	1	PURSE	BRANCH	BRANCH	PURSE	15	[0, 0, 0]	-999	PAL1	0	R1060M
1685.546	5.017	1351721	STUDY_PAIR	n/a	wordpools/wordpool_EN.txt	3	1	PURSE	BRANCH	BRANCH	PURSE	15	[0, 0, 0]	-999	PAL1	0	R1060M
1690.563	1.017	1354229	STUDY_ORIENT	n/a	n/a	4	2	BAG	BRANCH	BAG	FAN	15	[0, 0, 0]	-999	PAL1	0	R1060M
1691.58	5.034	1354738	STUDY_PAIR	n/a	wordpools/wordpool_EN.txt	4	2	BAG	BRANCH	BAG	FAN	15	[0, 0, 0]	-999	PAL1	0	R1060M
1696.614	0.834	1357255	STUDY_ORIENT	n/a	n/a	5	5	LEAF	n/a	HORSE	LEAF	15	[0, 0, 0]	-999	PAL1	0	R1060M
1697.448	5.018	1357672	STUDY_PAIR	n/a	wordpools/wordpool_EN.txt	5	5	LEAF	n/a	HORSE	LEAF	15	[0, 0, 0]	-999	PAL1	0	R1060M
1702.466	0.884	1360181	STUDY_ORIENT	n/a	n/a	6	4	SKI	BENCH	BENCH	SKI	15	[0, 0, 0]	-999	PAL1	0	R1060M
1703.35	4.018	1360623	STUDY_PAIR	n/a	wordpools/wordpool_EN.txt	6	4	SKI	BENCH	BENCH	SKI	15	[0, 0, 0]	-999	PAL1	0	R1060M
1707.368	0.999	1362631	START	n/a	n/a	-999	-999	n/a	n/a	n/a	n/a	15	[-999, -999, -999]	-999	PAL1	0	R1060M
1708.367	0.017	1363131	MATH_START	n/a	n/a	-999	-999	n/a	n/a	n/a	n/a	15	[0, 0, 0]	-999	PAL1	0	R1060M
1708.384	3.2	1363139	PROB	3181	n/a	-999	-999	n/a	n/a	n/a	n/a	15	[2, 3, 5]	10	PAL1	0	R1060M
1711.584	4.334	1364739	PROB	4309	n/a	-999	-999	n/a	n/a	n/a	n/a	15	[1, 5, 9]	15	PAL1	0	R1060M
1715.918	2.551	1366906	PROB	2528	n/a	-999	-999	n/a	n/a	n/a	n/a	15	[6, 5, 1]	12	PAL1	0	R1060M
1718.469	4.467	1368182	PROB	4448	n/a	-999	-999	n/a	n/a	n/a	n/a	15	[7, 5, 2]	14	PAL1	0	R1060M
1722.936	2.401	1370415	PROB	2382	n/a	-999	-999	n/a	n/a	n/a	n/a	15	[6, 4, 1]	11	PAL1	0	R1060M
1725.337	4.213	1371615	PROB	4213	n/a	-999	-999	n/a	n/a	n/a	n/a	15	[8, 3, 4]	15	PAL1	0	R1060M
1729.55	0.005	1373722	STOP	n/a	n/a	-999	-999	n/a	n/a	n/a	n/a	15	[-999, -999, -999]	-999	PAL1	0	R1060M
1729.555	0.0	1373724	MATH_END	n/a	n/a	-999	-999	n/a	n/a	n/a	n/a	15	[0, 0, 0]	-999	PAL1	0	R1060M
1729.555	0.016	1373724	TEST_START	n/a	n/a	-999	-999	n/a	n/a	n/a	n/a	15	[0, 0, 0]	-999	PAL1	0	R1060M
1729.571	0.917	1373732	TEST_ORIENT	n/a	n/a	3	1	PURSE	BRANCH	BRANCH	PURSE	15	[0, 0, 0]	-999	PAL1	0	R1060M
1730.488	0.0	1374191	TEST_PROBE	n/a	wordpools/wordpool_EN.txt	3	1	PURSE	BRANCH	BRANCH	PURSE	15	[0, 0, 0]	-999	PAL1	0	R1060M
1730.488	1.273	1374191	REC_START	n/a	n/a	3	-999	n/a	BRANCH	n/a	n/a	15	[0, 0, 0]	-999	PAL1	0	R1060M
1731.761	3.745	1374827	REC_EVENT	1273	n/a	3	1	PURSE	BRANCH	BRANCH	PURSE	15	[0, 0, 0]	-999	PAL1	0	R1060M
1735.506	0.017	1376700	REC_END	n/a	n/a	3	-999	n/a	n/a	n/a	n/a	15	[0, 0, 0]	-999	PAL1	0	R1060M
1735.523	0.867	1376708	TEST_ORIENT	n/a	n/a	4	2	BAG	BRANCH	BAG	FAN	15	[0, 0, 0]	-999	PAL1	0	R1060M
1736.39	0.001	1377142	TEST_PROBE	n/a	wordpools/wordpool_EN.txt	4	2	BAG	BRANCH	BAG	FAN	15	[0, 0, 0]	-999	PAL1	0	R1060M
1736.391	4.197	1377142	REC_START	n/a	n/a	4	-999	n/a	BRANCH	n/a	n/a	15	[0, 0, 0]	-999	PAL1	0	R1060M
1740.588	0.827	1379241	REC_EVENT	4197	n/a	4	2	BAG	BRANCH	BAG	FAN	15	[0, 0, 0]	-999	PAL1	0	R1060M
1741.415	0.009	1379654	REC_END	n/a	n/a	4	-999	n/a	n/a	n/a	n/a	15	[0, 0, 0]	-999	PAL1	0	R1060M
1741.424	1.0	1379659	TEST_ORIENT	n/a	n/a	1	3	BLOOM	PASS	BLOOM	GEESE	15	[0, 0, 0]	-999	PAL1	0	R1060M
1742.424	0.001	1380158	TEST_PROBE	n/a	wordpools/wordpool_EN.txt	1	3	BLOOM	PASS	BLOOM	GEESE	15	[0, 0, 0]	-999	PAL1	0	R1060M
1742.425	3.695	1380159	REC_START	n/a	n/a	1	-999	n/a	PASS	n/a	n/a	15	[0, 0, 0]	-999	PAL1	0	R1060M
1746.12	1.313	1382006	REC_EVENT	3695	n/a	1	3	BLOOM	PASS	BLOOM	GEESE	15	[0, 0, 0]	-999	PAL1	0	R1060M
1747.433	0.009	1382663	REC_END	n/a	n/a	1	-999	n/a	n/a	n/a	n/a	15	[0, 0, 0]	-999	PAL1	0	R1060M
1747.442	1.033	1382667	TEST_ORIENT	n/a	n/a	6	4	SKI	BENCH	BENCH	SKI	15	[0, 0, 0]	-999	PAL1	0	R1060M
1748.475	0.001	1383184	TEST_PROBE	n/a	wordpools/wordpool_EN.txt	6	4	SKI	BENCH	BENCH	SKI	15	[0, 0, 0]	-999	PAL1	0	R1060M
1748.476	0.884	1383184	REC_START	n/a	n/a	6	-999	n/a	BENCH	n/a	n/a	15	[0, 0, 0]	-999	PAL1	0	R1060M
1749.36	0.863	1383626	REC_EVENT	884	n/a	6	4	SKI	SKI	BENCH	SKI	15	[0, 0, 0]	-999	PAL1	0	R1060M
1750.223	3.261	1384058	REC_EVENT	1747	n/a	6	4	SKI	BENCH	BENCH	SKI	15	[0, 0, 0]	-999	PAL1	0	R1060M
1753.484	0.009	1385688	REC_END	n/a	n/a	6	-999	n/a	n/a	n/a	n/a	15	[0, 0, 0]	-999	PAL1	0	R1060M
1753.493	1.017	1385693	TEST_ORIENT	n/a	n/a	5	5	LEAF	n/a	HORSE	LEAF	15	[0, 0, 0]	-999	PAL1	0	R1060M
1754.51	0.001	1386201	TEST_PROBE	n/a	wordpools/wordpool_EN.txt	5	5	LEAF	n/a	HORSE	LEAF	15	[0, 0, 0]	-999	PAL1	0	R1060M
1754.511	3.259	1386202	REC_START	n/a	n/a	5	-999	n/a	n/a	n/a	n/a	15	[0, 0, 0]	-999	PAL1	0	R1060M
1757.77	1.757	1387831	REC_EVENT	3259	n/a	5	5	LEAF	<>	HORSE	LEAF	15	[0, 0, 0]	-999	PAL1	0	R1060M
1759.527	0.017	1388710	REC_END	n/a	n/a	5	-999	n/a	n/a	n/a	n/a	15	[0, 0, 0]	-999	PAL1	0	R1060M
1759.544	0.967	1388718	TEST_ORIENT	n/a	n/a	2	6	PIT	n/a	PIT	TEA	15	[0, 0, 0]	-999	PAL1	0	R1060M
1760.511	0.001	1389201	TEST_PROBE	n/a	wordpools/wordpool_EN.txt	2	6	PIT	n/a	PIT	TEA	15	[0, 0, 0]	-999	PAL1	0	R1060M
1760.512	5.015	1389202	REC_START	n/a	n/a	2	-999	n/a	n/a	n/a	n/a	15	[0, 0, 0]	-999	PAL1	0	R1060M
1765.527	0.001	1391709	REC_EVENT	5015	n/a	2	6	PIT	<>	PIT	TEA	15	[0, 0, 0]	-999	PAL1	0	R1060M
1765.528	1.622	1391710	REC_END	n/a	n/a	2	-999	n/a	n/a	n/a	n/a	15	[0, 0, 0]	-999	PAL1	0	R1060M
1767.15	10.447	1392521	ENCODING_START	n/a	n/a	0	-999	n/a	n/a	n/a	n/a	16	[0, 0, 0]	-999	PAL1	0	R1060M
1777.597	0.834	1397744	STUDY_ORIENT	n/a	n/a	1	5	BED	RAKE	BED	RAKE	16	[0, 0, 0]	-999	PAL1	0	R1060M
1778.431	5.018	1398161	STUDY_PAIR	n/a	wordpools/wordpool_EN.txt	1	5	BED	RAKE	BED	RAKE	16	[0, 0, 0]	-999	PAL1	0	R1060M
1783.449	0.9	1400670	STUDY_ORIENT	n/a	n/a	2	4	LAWN	n/a	LAWN	HORN	16	[0, 0, 0]	-999	PAL1	0	R1060M
1784.349	5.018	1401120	STUDY_PAIR	n/a	wordpools/wordpool_EN.txt	2	4	LAWN	n/a	LAWN	HORN	16	[0, 0, 0]	-999	PAL1	0	R1060M
1789.367	0.933	1403629	STUDY_ORIENT	n/a	n/a	3	3	FLOOR	n/a	SHOE	FLOOR	16	[0, 0, 0]	-999	PAL1	0	R1060M
1790.3	5.018	1404095	STUDY_PAIR	n/a	wordpools/wordpool_EN.txt	3	3	FLOOR	n/a	SHOE	FLOOR	16	[0, 0, 0]	-999	PAL1	0	R1060M
1795.318	0.984	1406604	STUDY_ORIENT	n/a	n/a	4	6	SLIME	FLOOR	SLIME	BRUSH	16	[0, 0, 0]	-999	PAL1	0	R1060M
1796.302	5.034	1407096	STUDY_PAIR	n/a	wordpools/wordpool_EN.txt	4	6	SLIME	FLOOR	SLIME	BRUSH	16	[0, 0, 0]	-999	PAL1	0	R1060M
1801.336	0.817	1409613	STUDY_ORIENT	n/a	n/a	5	1	WHEEL	EEL	EEL	WHEEL	16	[0, 0, 0]	-999	PAL1	0	R1060M
1802.153	5.034	1410021	STUDY_PAIR	n/a	wordpools/wordpool_EN.txt	5	1	WHEEL	EEL	EEL	WHEEL	16	[0, 0, 0]	-999	PAL1	0	R1060M
1807.187	0.934	1412538	STUDY_ORIENT	n/a	n/a	6	2	SKUNK	n/a	MOTH	SKUNK	16	[0, 0, 0]	-999	PAL1	0	R1060M
1808.121	4.018	1413005	STUDY_PAIR	n/a	wordpools/wordpool_EN.txt	6	2	SKUNK	n/a	MOTH	SKUNK	16	[0, 0, 0]	-999	PAL1	0	R1060M
1812.139	0.999	1415014	START	n/a	n/a	-999	-999	n/a	n/a	n/a	n/a	16	[-999, -999, -999]	-999	PAL1	0	R1060M
1813.138	0.017	1415514	MATH_START	n/a	n/a	-999	-999	n/a	n/a	n/a	n/a	16	[0, 0, 0]	-999	PAL1	0	R1060M
1813.155	10.185	1415522	PROB	10155	n/a	-999	-999	n/a	n/a	n/a	n/a	16	[9, 7, 4]	17	PAL1	0	R1060M
1823.34	4.168	1420614	PROB	4138	n/a	-999	-999	n/a	n/a	n/a	n/a	16	[4, 4, 6]	14	PAL1	0	R1060M
1827.508	3.283	1422698	PROB	3249	n/a	-999	-999	n/a	n/a	n/a	n/a	16	[9, 6, 1]	14	PAL1	0	R1060M
1830.791	2.375	1424340	PROB	2375	n/a	-999	-999	n/a	n/a	n/a	n/a	16	[4, 3, 1]	8	PAL1	0	R1060M
1833.166	0.01	1425527	STOP	n/a	n/a	-999	-999	n/a	n/a	n/a	n/a	16	[-999, -999, -999]	-999	PAL1	0	R1060M
1833.176	0.0	1425532	MATH_END	n/a	n/a	-999	-999	n/a	n/a	n/a	n/a	16	[0, 0, 0]	-999	PAL1	0	R1060M
1833.176	0.016	1425532	TEST_START	n/a	n/a	-999	-999	n/a	n/a	n/a	n/a	16	[0, 0, 0]	-999	PAL1	0	R1060M
1833.192	1.017	1425540	TEST_ORIENT	n/a	n/a	5	1	WHEEL	EEL	EEL	WHEEL	16	[0, 0, 0]	-999	PAL1	0	R1060M
1834.209	0.0	1426048	TEST_PROBE	n/a	wordpools/wordpool_EN.txt	5	1	WHEEL	EEL	EEL	WHEEL	16	[0, 0, 0]	-999	PAL1	0	R1060M
1834.209	1.689	1426048	REC_START	n/a	n/a	5	-999	n/a	EEL	n/a	n/a	16	[0, 0, 0]	-999	PAL1	0	R1060M
1835.898	3.329	1426893	REC_EVENT	1689	n/a	5	1	WHEEL	EEL	EEL	WHEEL	16	[0, 0, 0]	-999	PAL1	0	R1060M
1839.227	0.016	1428557	REC_END	n/a	n/a	5	-999	n/a	n/a	n/a	n/a	16	[0, 0, 0]	-999	PAL1	0	R1060M
1839.243	0.967	1428565	TEST_ORIENT	n/a	n/a	6	2	SKUNK	n/a	MOTH	SKUNK	16	[0, 0, 0]	-999	PAL1	0	R1060M
1840.21	0.001	1429049	TEST_PROBE	n/a	wordpools/wordpool_EN.txt	6	2	SKUNK	n/a	MOTH	SKUNK	16	[0, 0, 0]	-999	PAL1	0	R1060M
1840.211	4.863	1429049	REC_START	n/a	n/a	6	-999	n/a	n/a	n/a	n/a	16	[0, 0, 0]	-999	PAL1	0	R1060M
1845.074	0.145	1431481	REC_EVENT	4863	n/a	6	2	SKUNK	<>	MOTH	SKUNK	16	[0, 0, 0]	-999	PAL1	0	R1060M
1845.219	0.009	1431553	REC_END	n/a	n/a	6	-999	n/a	n/a	n/a	n/a	16	[0, 0, 0]	-999	PAL1	0	R1060M
1845.228	0.95	1431558	TEST_ORIENT	n/a	n/a	3	3	FLOOR	n/a	SHOE	FLOOR	16	[0, 0, 0]	-999	PAL1	0	R1060M
1846.178	0.001	1432033	TEST_PROBE	n/a	wordpools/wordpool_EN.txt	3	3	FLOOR	n/a	SHOE	FLOOR	16	[0, 0, 0]	-999	PAL1	0	R1060M
1846.179	5.003	1432033	REC_START	n/a	n/a	3	-999	n/a	n/a	n/a	n/a	16	[0, 0, 0]	-999	PAL1	0	R1060M
1851.182	0.004	1434535	REC_EVENT	5003	n/a	3	3	FLOOR	<>	SHOE	FLOOR	16	[0, 0, 0]	-999	PAL1	0	R1060M
1851.186	0.01	1434537	REC_END	n/a	n/a	3	-999	n/a	n/a	n/a	n/a	16	[0, 0, 0]	-999	PAL1	0	R1060M
1851.196	1.0	1434542	TEST_ORIENT	n/a	n/a	2	4	LAWN	n/a	LAWN	HORN	16	[0, 0, 0]	-999	PAL1	0	R1060M
1852.196	0.001	1435041	TEST_PROBE	n/a	wordpools/wordpool_EN.txt	2	4	LAWN	n/a	LAWN	HORN	16	[0, 0, 0]	-999	PAL1	0	R1060M
1852.197	5.015	1435042	REC_START	n/a	n/a	2	-999	n/a	n/a	n/a	n/a	16	[0, 0, 0]	-999	PAL1	0	R1060M
1857.212	0.001	1437549	REC_EVENT	5015	n/a	2	4	LAWN	<>	LAWN	HORN	16	[0, 0, 0]	-999	PAL1	0	R1060M
1857.213	0.017	1437550	REC_END	n/a	n/a	2	-999	n/a	n/a	n/a	n/a	16	[0, 0, 0]	-999	PAL1	0	R1060M
1857.23	1.034	1437558	TEST_ORIENT	n/a	n/a	1	5	BED	RAKE	BED	RAKE	16	[0, 0, 0]	-999	PAL1	0	R1060M
1858.264	0.0	1438075	REC_START	n/a	n/a	1	-999	n/a	RAKE	n/a	n/a	16	[0, 0, 0]	-999	PAL1	0	R1060M
1858.264	1.444	1438075	TEST_PROBE	n/a	wordpools/wordpool_EN.txt	1	5	BED	RAKE	BED	RAKE	16	[0, 0, 0]	-999	PAL1	0	R1060M
1859.708	3.573	1438797	REC_EVENT	1444	n/a	1	5	BED	RAKE	BED	RAKE	16	[0, 0, 0]	-999	PAL1	0	R1060M
1863.281	0.017	1440584	REC_END	n/a	n/a	1	-999	n/a	n/a	n/a	n/a	16	[0, 0, 0]	-999	PAL1	0	R1060M
1863.298	0.85	1440592	TEST_ORIENT	n/a	n/a	4	6	SLIME	FLOOR	SLIME	BRUSH	16	[0, 0, 0]	-999	PAL1	0	R1060M
1864.148	0.001	1441017	TEST_PROBE	n/a	wordpools/wordpool_EN.txt	4	6	SLIME	FLOOR	SLIME	BRUSH	16	[0, 0, 0]	-999	PAL1	0	R1060M
1864.149	0.826	1441018	REC_START	n/a	n/a	4	-999	n/a	FLOOR	n/a	n/a	16	[0, 0, 0]	-999	PAL1	0	R1060M
1864.975	1.33	1441431	REC_EVENT	826	n/a	4	6	SLIME	SLIME	SLIME	BRUSH	16	[0, 0, 0]	-999	PAL1	0	R1060M
1866.305	1.735	1442096	REC_EVENT	2156	n/a	4	6	SLIME	FLOOR	SLIME	BRUSH	16	[0, 0, 0]	-999	PAL1	0	R1060M
1868.04	1.117	1442963	REC_EVENT	3891	n/a	4	6	SLIME	FLOOR	SLIME	BRUSH	16	[0, 0, 0]	-999	PAL1	0	R1060M
1869.157	1.584	1443522	REC_END	n/a	n/a	4	-999	n/a	n/a	n/a	n/a	16	[0, 0, 0]	-999	PAL1	0	R1060M
1870.741	10.444	1444313	ENCODING_START	n/a	n/a	0	-999	n/a	n/a	n/a	n/a	17	[0, 0, 0]	-999	PAL1	0	R1060M
1881.185	0.799	1449535	STUDY_ORIENT	n/a	n/a	1	1	SLEEVE	PEA	SLEEVE	PEACH	17	[0, 0, 0]	-999	PAL1	0	R1060M
1881.984	5.018	1449935	STUDY_PAIR	n/a	wordpools/wordpool_EN.txt	1	1	SLEEVE	PEA	SLEEVE	PEACH	17	[0, 0, 0]	-999	PAL1	0	R1060M
1887.002	0.8	1452444	STUDY_ORIENT	n/a	n/a	2	4	HOOF	PASS	SOUP	HOOF	17	[0, 0, 0]	-999	PAL1	0	R1060M
1887.802	5.018	1452844	STUDY_PAIR	n/a	wordpools/wordpool_EN.txt	2	4	HOOF	PASS	SOUP	HOOF	17	[0, 0, 0]	-999	PAL1	0	R1060M
1892.82	0.833	1455352	STUDY_ORIENT	n/a	n/a	3	3	PEA	SLEEVE	PEA	TOOL	17	[0, 0, 0]	-999	PAL1	0	R1060M
1893.653	5.018	1455769	STUDY_PAIR	n/a	wordpools/wordpool_EN.txt	3	3	PEA	SLEEVE	PEA	TOOL	17	[0, 0, 0]	-999	PAL1	0	R1060M
1898.671	0.801	1458278	STUDY_ORIENT	n/a	n/a	4	6	DUCK	HOOF	FOOD	DUCK	17	[0, 0, 0]	-999	PAL1	0	R1060M
1899.472	5.018	1458678	STUDY_PAIR	n/a	wordpools/wordpool_EN.txt	4	6	DUCK	HOOF	FOOD	DUCK	17	[0, 0, 0]	-999	PAL1	0	R1060M
1904.49	0.833	1461187	STUDY_ORIENT	n/a	n/a	5	5	PARK	HOOF	TAIL	PARK	17	[0, 0, 0]	-999	PAL1	0	R1060M
1905.323	5.018	1461604	STUDY_PAIR	n/a	wordpools/wordpool_EN.txt	5	5	PARK	HOOF	TAIL	PARK	17	[0, 0, 0]	-999	PAL1	0	R1060M
1910.341	0.867	1464112	STUDY_ORIENT	n/a	n/a	6	2	STEAM	STEAM	STEAM	DEER	17	[0, 0, 0]	-999	PAL1	0	R1060M
1911.208	4.018	1464546	STUDY_PAIR	n/a	wordpools/wordpool_EN.txt	6	2	STEAM	STEAM	STEAM	DEER	17	[0, 0, 0]	-999	PAL1	0	R1060M
1915.226	0.999	1466555	START	n/a	n/a	-999	-999	n/a	n/a	n/a	n/a	17	[-999, -999, -999]	-999	PAL1	0	R1060M
1916.225	0.017	1467054	MATH_START	n/a	n/a	-999	-999	n/a	n/a	n/a	n/a	17	[0, 0, 0]	-999	PAL1	0	R1060M
1916.242	6.035	1467063	PROB	6004	n/a	-999	-999	n/a	n/a	n/a	n/a	17	[5, 6, 6]	17	PAL1	0	R1060M
1922.277	5.167	1470080	PROB	5145	n/a	-999	-999	n/a	n/a	n/a	n/a	17	[8, 8, 7]	23	PAL1	0	R1060M
1927.444	2.216	1472663	PROB	2185	n/a	-999	-999	n/a	n/a	n/a	n/a	17	[1, 5, 1]	7	PAL1	0	R1060M
1929.66	3.519	1473771	PROB	3498	n/a	-999	-999	n/a	n/a	n/a	n/a	17	[5, 8, 6]	19	PAL1	0	R1060M
1933.179	6.235	1475531	PROB	6235	n/a	-999	-999	n/a	n/a	n/a	n/a	17	[7, 6, 6]	19	PAL1	0	R1060M
1939.414	0.016	1478648	STOP	n/a	n/a	-999	-999	n/a	n/a	n/a	n/a	17	[-999, -999, -999]	-999	PAL1	0	R1060M
1939.43	0.0	1478656	MATH_END	n/a	n/a	-999	-999	n/a	n/a	n/a	n/a	17	[0, 0, 0]	-999	PAL1	0	R1060M
1939.43	0.017	1478656	TEST_START	n/a	n/a	-999	-999	n/a	n/a	n/a	n/a	17	[0, 0, 0]	-999	PAL1	0	R1060M
1939.447	0.833	1478665	TEST_ORIENT	n/a	n/a	1	1	SLEEVE	PEA	SLEEVE	PEACH	17	[0, 0, 0]	-999	PAL1	0	R1060M
1940.28	0.001	1479081	TEST_PROBE	n/a	wordpools/wordpool_EN.txt	1	1	SLEEVE	PEA	SLEEVE	PEACH	17	[0, 0, 0]	-999	PAL1	0	R1060M
1940.281	0.791	1479082	REC_START	n/a	n/a	1	-999	n/a	PEA	n/a	n/a	17	[0, 0, 0]	-999	PAL1	0	R1060M
1941.072	3.019	1479477	REC_EVENT	791	n/a	1	1	SLEEVE	SLEEVE	SLEEVE	PEACH	17	[0, 0, 0]	-999	PAL1	0	R1060M
1944.091	1.19	1480986	REC_EVENT	3810	n/a	1	1	SLEEVE	PEA	SLEEVE	PEACH	17	[0, 0, 0]	-999	PAL1	0	R1060M
1945.281	0.017	1481581	REC_END	n/a	n/a	1	-999	n/a	n/a	n/a	n/a	17	[0, 0, 0]	-999	PAL1	0	R1060M
1945.298	0.95	1481590	TEST_ORIENT	n/a	n/a	6	2	STEAM	STEAM	STEAM	DEER	17	[0, 0, 0]	-999	PAL1	0	R1060M
1946.248	0.001	1482065	TEST_PROBE	n/a	wordpools/wordpool_EN.txt	6	2	STEAM	STEAM	STEAM	DEER	17	[0, 0, 0]	-999	PAL1	0	R1060M
1946.249	0.773	1482065	REC_START	n/a	n/a	6	-999	n/a	STEAM	n/a	n/a	17	[0, 0, 0]	-999	PAL1	0	R1060M
1947.022	4.252	1482452	REC_EVENT	773	n/a	6	2	STEAM	STEAM	STEAM	DEER	17	[0, 0, 0]	-999	PAL1	0	R1060M
1951.274	0.008	1484578	REC_END	n/a	n/a	6	-999	n/a	n/a	n/a	n/a	17	[0, 0, 0]	-999	PAL1	0	R1060M
1951.282	0.817	1484582	TEST_ORIENT	n/a	n/a	3	3	PEA	SLEEVE	PEA	TOOL	17	[0, 0, 0]	-999	PAL1	0	R1060M
1952.099	0.001	1484990	TEST_PROBE	n/a	wordpools/wordpool_EN.txt	3	3	PEA	SLEEVE	PEA	TOOL	17	[0, 0, 0]	-999	PAL1	0	R1060M
1952.1	3.457	1484991	REC_START	n/a	n/a	3	-999	n/a	SLEEVE	n/a	n/a	17	[0, 0, 0]	-999	PAL1	0	R1060M
1955.557	1.551	1486719	REC_EVENT	3457	n/a	3	3	PEA	SLEEVE	PEA	TOOL	17	[0, 0, 0]	-999	PAL1	0	R1060M
1957.108	0.009	1487495	REC_END	n/a	n/a	3	-999	n/a	n/a	n/a	n/a	17	[0, 0, 0]	-999	PAL1	0	R1060M
1957.117	0.932	1487499	TEST_ORIENT	n/a	n/a	2	4	HOOF	PASS	SOUP	HOOF	17	[0, 0, 0]	-999	PAL1	0	R1060M
1958.049	0.001	1487965	TEST_PROBE	n/a	wordpools/wordpool_EN.txt	2	4	HOOF	PASS	SOUP	HOOF	17	[0, 0, 0]	-999	PAL1	0	R1060M
1958.05	0.862	1487966	REC_START	n/a	n/a	2	-999	n/a	PASS	n/a	n/a	17	[0, 0, 0]	-999	PAL1	0	R1060M
1958.912	2.644	1488397	REC_EVENT	862	n/a	2	4	HOOF	HOOF	SOUP	HOOF	17	[0, 0, 0]	-999	PAL1	0	R1060M
1961.556	0.341	1489718	REC_EVENT	3506	n/a	2	4	HOOF	<>	SOUP	HOOF	17	[0, 0, 0]	-999	PAL1	0	R1060M
1961.897	1.162	1489889	REC_EVENT	3847	n/a	2	4	HOOF	PASS	SOUP	HOOF	17	[0, 0, 0]	-999	PAL1	0	R1060M
1963.059	0.009	1490470	REC_END	n/a	n/a	2	-999	n/a	n/a	n/a	n/a	17	[0, 0, 0]	-999	PAL1	0	R1060M
1963.068	1.017	1490474	TEST_ORIENT	n/a	n/a	5	5	PARK	HOOF	TAIL	PARK	17	[0, 0, 0]	-999	PAL1	0	R1060M
1964.085	0.0	1490983	TEST_PROBE	n/a	wordpools/wordpool_EN.txt	5	5	PARK	HOOF	TAIL	PARK	17	[0, 0, 0]	-999	PAL1	0	R1060M
1964.085	3.069	1490983	REC_START	n/a	n/a	5	-999	n/a	HOOF	n/a	n/a	17	[0, 0, 0]	-999	PAL1	0	R1060M
1967.154	1.948	1492517	REC_EVENT	3069	n/a	5	5	PARK	HOOF	TAIL	PARK	17	[0, 0, 0]	-999	PAL1	0	R1060M
1969.102	0.017	1493491	REC_END	n/a	n/a	5	-999	n/a	n/a	n/a	n/a	17	[0, 0, 0]	-999	PAL1	0	R1060M
1969.119	0.951	1493500	TEST_ORIENT	n/a	n/a	4	6	DUCK	HOOF	FOOD	DUCK	17	[0, 0, 0]	-999	PAL1	0	R1060M
1970.07	0.0	1493975	TEST_PROBE	n/a	wordpools/wordpool_EN.txt	4	6	DUCK	HOOF	FOOD	DUCK	17	[0, 0, 0]	-999	PAL1	0	R1060M
1970.07	1.303	1493975	REC_START	n/a	n/a	4	-999	n/a	HOOF	n/a	n/a	17	[0, 0, 0]	-999	PAL1	0	R1060M
1971.373	0.84	1494627	REC_EVENT	1303	n/a	4	6	DUCK	DUCK	FOOD	DUCK	17	[0, 0, 0]	-999	PAL1	0	R1060M
1972.213	2.874	1495047	REC_EVENT	2143	n/a	4	6	DUCK	HOOF	FOOD	DUCK	17	[0, 0, 0]	-999	PAL1	0	R1060M
1975.087	1.526	1496484	REC_END	n/a	n/a	4	-999	n/a	n/a	n/a	n/a	17	[0, 0, 0]	-999	PAL1	0	R1060M
1976.613	10.442	1497247	ENCODING_START	n/a	n/a	0	-999	n/a	n/a	n/a	n/a	18	[0, 0, 0]	-999	PAL1	0	R1060M
1987.055	0.984	1502467	STUDY_ORIENT	n/a	n/a	1	3	TRAIN	PASS	TRAIN	SEA	18	[0, 0, 0]	-999	PAL1	0	R1060M
1988.039	5.035	1502959	STUDY_PAIR	n/a	wordpools/wordpool_EN.txt	1	3	TRAIN	PASS	TRAIN	SEA	18	[0, 0, 0]	-999	PAL1	0	R1060M
1993.074	0.883	1505477	STUDY_ORIENT	n/a	n/a	2	6	GUARD	n/a	GLOVE	GUARD	18	[0, 0, 0]	-999	PAL1	0	R1060M
1993.957	5.034	1505918	STUDY_PAIR	n/a	wordpools/wordpool_EN.txt	2	6	GUARD	n/a	GLOVE	GUARD	18	[0, 0, 0]	-999	PAL1	0	R1060M
1998.991	0.8	1508435	STUDY_ORIENT	n/a	n/a	3	5	GRASS	GRASS	HAND	GRASS	18	[0, 0, 0]	-999	PAL1	0	R1060M
1999.791	5.018	1508835	STUDY_PAIR	n/a	wordpools/wordpool_EN.txt	3	5	GRASS	GRASS	HAND	GRASS	18	[0, 0, 0]	-999	PAL1	0	R1060M
2004.809	0.8	1511344	STUDY_ORIENT	n/a	n/a	4	2	BOY	PASS	PIE	BOY	18	[0, 0, 0]	-999	PAL1	0	R1060M
2005.609	5.034	1511744	STUDY_PAIR	n/a	wordpools/wordpool_EN.txt	4	2	BOY	PASS	PIE	BOY	18	[0, 0, 0]	-999	PAL1	0	R1060M
2010.643	0.901	1514261	STUDY_ORIENT	n/a	n/a	5	1	SHARK	SPRING	SHARK	STOOL	18	[0, 0, 0]	-999	PAL1	0	R1060M
2011.544	5.017	1514711	STUDY_PAIR	n/a	wordpools/wordpool_EN.txt	5	1	SHARK	SPRING	SHARK	STOOL	18	[0, 0, 0]	-999	PAL1	0	R1060M
2016.561	0.901	1517219	STUDY_ORIENT	n/a	n/a	6	4	SPRING	STEAM	SPRING	SWAMP	18	[0, 0, 0]	-999	PAL1	0	R1060M
2017.462	4.002	1517670	STUDY_PAIR	n/a	wordpools/wordpool_EN.txt	6	4	SPRING	STEAM	SPRING	SWAMP	18	[0, 0, 0]	-999	PAL1	0	R1060M
2021.464	0.999	1519671	START	n/a	n/a	-999	-999	n/a	n/a	n/a	n/a	18	[-999, -999, -999]	-999	PAL1	0	R1060M
2022.463	0.017	1520170	MATH_START	n/a	n/a	-999	-999	n/a	n/a	n/a	n/a	18	[0, 0, 0]	-999	PAL1	0	R1060M
2022.48	2.483	1520179	PROB	2461	n/a	-999	-999	n/a	n/a	n/a	n/a	18	[2, 4, 1]	7	PAL1	0	R1060M
2024.963	6.968	1521420	PROB	6946	n/a	-999	-999	n/a	n/a	n/a	n/a	18	[9, 8, 5]	22	PAL1	0	R1060M
2031.931	3.385	1524904	PROB	3363	n/a	-999	-999	n/a	n/a	n/a	n/a	18	[3, 5, 2]	10	PAL1	0	R1060M
2035.316	9.946	1526596	PROB	9946	n/a	-999	-999	n/a	n/a	n/a	n/a	18	[3, 5, 7]	15	PAL1	0	R1060M
2045.262	0.006	1531569	STOP	n/a	n/a	-999	-999	n/a	n/a	n/a	n/a	18	[-999, -999, -999]	-999	PAL1	0	R1060M
2045.268	0.0	1531572	TEST_START	n/a	n/a	-999	-999	n/a	n/a	n/a	n/a	18	[0, 0, 0]	-999	PAL1	0	R1060M
2045.268	0.017	1531572	MATH_END	n/a	n/a	-999	-999	n/a	n/a	n/a	n/a	18	[0, 0, 0]	-999	PAL1	0	R1060M
2045.285	0.833	1531581	TEST_ORIENT	n/a	n/a	5	1	SHARK	SPRING	SHARK	STOOL	18	[0, 0, 0]	-999	PAL1	0	R1060M
2046.118	0.0	1531997	TEST_PROBE	n/a	wordpools/wordpool_EN.txt	5	1	SHARK	SPRING	SHARK	STOOL	18	[0, 0, 0]	-999	PAL1	0	R1060M
2046.118	3.198	1531997	REC_START	n/a	n/a	5	-999	n/a	SPRING	n/a	n/a	18	[0, 0, 0]	-999	PAL1	0	R1060M
2049.316	1.819	1533596	REC_EVENT	3198	n/a	5	1	SHARK	SPRING	SHARK	STOOL	18	[0, 0, 0]	-999	PAL1	0	R1060M
2051.135	0.017	1534506	REC_END	n/a	n/a	5	-999	n/a	n/a	n/a	n/a	18	[0, 0, 0]	-999	PAL1	0	R1060M
2051.152	0.951	1534514	TEST_ORIENT	n/a	n/a	4	2	BOY	PASS	PIE	BOY	18	[0, 0, 0]	-999	PAL1	0	R1060M
2052.103	0.0	1534989	TEST_PROBE	n/a	wordpools/wordpool_EN.txt	4	2	BOY	PASS	PIE	BOY	18	[0, 0, 0]	-999	PAL1	0	R1060M
2052.103	0.817	1534989	REC_START	n/a	n/a	4	-999	n/a	PASS	n/a	n/a	18	[0, 0, 0]	-999	PAL1	0	R1060M
2052.92	3.348	1535398	REC_EVENT	817	n/a	4	2	BOY	BOY	PIE	BOY	18	[0, 0, 0]	-999	PAL1	0	R1060M
2056.268	0.852	1537072	REC_EVENT	4165	n/a	4	2	BOY	PASS	PIE	BOY	18	[0, 0, 0]	-999	PAL1	0	R1060M
2057.12	0.017	1537498	REC_END	n/a	n/a	4	-999	n/a	n/a	n/a	n/a	18	[0, 0, 0]	-999	PAL1	0	R1060M
2057.137	1.017	1537506	TEST_ORIENT	n/a	n/a	1	3	TRAIN	PASS	TRAIN	SEA	18	[0, 0, 0]	-999	PAL1	0	R1060M
2058.154	0.0	1538015	REC_START	n/a	n/a	1	-999	n/a	PASS	n/a	n/a	18	[0, 0, 0]	-999	PAL1	0	R1060M
2058.154	0.722	1538015	TEST_PROBE	n/a	wordpools/wordpool_EN.txt	1	3	TRAIN	PASS	TRAIN	SEA	18	[0, 0, 0]	-999	PAL1	0	R1060M
2058.876	4.163	1538376	REC_EVENT	722	n/a	1	3	TRAIN	TRAIN	TRAIN	SEA	18	[0, 0, 0]	-999	PAL1	0	R1060M
2063.039	0.132	1540457	REC_EVENT	4885	n/a	1	3	TRAIN	PASS	TRAIN	SEA	18	[0, 0, 0]	-999	PAL1	0	R1060M
2063.171	0.017	1540523	REC_END	n/a	n/a	1	-999	n/a	n/a	n/a	n/a	18	[0, 0, 0]	-999	PAL1	0	R1060M
2063.188	0.984	1540532	TEST_ORIENT	n/a	n/a	6	4	SPRING	STEAM	SPRING	SWAMP	18	[0, 0, 0]	-999	PAL1	0	R1060M
2064.172	0.0	1541024	TEST_PROBE	n/a	wordpools/wordpool_EN.txt	6	4	SPRING	STEAM	SPRING	SWAMP	18	[0, 0, 0]	-999	PAL1	0	R1060M
2064.172	0.906	1541024	REC_START	n/a	n/a	6	-999	n/a	STEAM	n/a	n/a	18	[0, 0, 0]	-999	PAL1	0	R1060M
2065.078	0.67	1541477	REC_EVENT	906	n/a	6	4	SPRING	SPRING	SPRING	SWAMP	18	[0, 0, 0]	-999	PAL1	0	R1060M
2065.748	2.705	1541812	REC_EVENT	1576	n/a	6	4	SPRING	STEAM	SPRING	SWAMP	18	[0, 0, 0]	-999	PAL1	0	R1060M
2068.453	0.736	1543164	REC_EVENT	4281	n/a	6	4	SPRING	<>	SPRING	SWAMP	18	[0, 0, 0]	-999	PAL1	0	R1060M
2069.189	0.017	1543532	REC_END	n/a	n/a	6	-999	n/a	n/a	n/a	n/a	18	[0, 0, 0]	-999	PAL1	0	R1060M
2069.206	1.034	1543541	TEST_ORIENT	n/a	n/a	3	5	GRASS	GRASS	HAND	GRASS	18	[0, 0, 0]	-999	PAL1	0	R1060M
2070.24	0.0	1544058	TEST_PROBE	n/a	wordpools/wordpool_EN.txt	3	5	GRASS	GRASS	HAND	GRASS	18	[0, 0, 0]	-999	PAL1	0	R1060M
2070.24	1.091	1544058	REC_START	n/a	n/a	3	-999	n/a	GRASS	n/a	n/a	18	[0, 0, 0]	-999	PAL1	0	R1060M
2071.331	3.926	1544603	REC_EVENT	1091	n/a	3	5	GRASS	GRASS	HAND	GRASS	18	[0, 0, 0]	-999	PAL1	0	R1060M
2075.257	0.017	1546566	REC_END	n/a	n/a	3	-999	n/a	n/a	n/a	n/a	18	[0, 0, 0]	-999	PAL1	0	R1060M
2075.274	0.9	1546574	TEST_ORIENT	n/a	n/a	2	6	GUARD	n/a	GLOVE	GUARD	18	[0, 0, 0]	-999	PAL1	0	R1060M
