onset	duration	sample	trial_type	response_time	stim_file	serialpos	probepos	probe_word	resp_word	study_1	study_2	list	test	answer	experiment	session	subject
0.0	69.118	8756	SESS_START	n/a	n/a	-999	-999	n/a	n/a	n/a	n/a	-999	[0, 0, 0]	-999	PAL1	1	R1112M
69.118	1.016	43313	START	n/a	n/a	-999	-999	n/a	n/a	n/a	n/a	-1	[-999, -999, -999]	-999	PAL1	1	R1112M
70.134	19.046	43821	PROB	19046	n/a	-999	-999	n/a	n/a	n/a	n/a	-1	[8, 2, 9]	19	PAL1	1	R1112M
89.18	54.424	53343	STOP	n/a	n/a	-999	-999	n/a	n/a	n/a	n/a	-1	[-999, -999, -999]	-999	PAL1	1	R1112M
143.604	10.447	80554	ENCODING_START	n/a	n/a	0	-999	n/a	n/a	n/a	n/a	1	[0, 0, 0]	-999	PAL1	1	R1112M
154.051	1.016	85777	STUDY_ORIENT	n/a	n/a	1	3	LAMP	n/a	CAPE	LAMP	1	[0, 0, 0]	-999	PAL1	1	R1112M
155.067	5.018	86285	STUDY_PAIR	n/a	wordpools/wordpool_EN.txt	1	3	LAMP	n/a	CAPE	LAMP	1	[0, 0, 0]	-999	PAL1	1	R1112M
160.085	0.884	88794	STUDY_ORIENT	n/a	n/a	2	6	SHARK	n/a	SHARK	JET	1	[0, 0, 0]	-999	PAL1	1	R1112M
160.969	5.034	89236	STUDY_PAIR	n/a	wordpools/wordpool_EN.txt	2	6	SHARK	n/a	SHARK	JET	1	[0, 0, 0]	-999	PAL1	1	R1112M
166.003	0.85	91753	STUDY_ORIENT	n/a	n/a	3	1	LAWN	n/a	STAR	LAWN	1	[0, 0, 0]	-999	PAL1	1	R1112M
166.853	5.018	92178	STUDY_PAIR	n/a	wordpools/wordpool_EN.txt	3	1	LAWN	n/a	STAR	LAWN	1	[0, 0, 0]	-999	PAL1	1	R1112M
171.871	0.967	94687	STUDY_ORIENT	n/a	n/a	4	2	HAT	CAPE	HAT	WEB	1	[0, 0, 0]	-999	PAL1	1	R1112M
172.838	5.034	95170	STUDY_PAIR	n/a	wordpools/wordpool_EN.txt	4	2	HAT	CAPE	HAT	WEB	1	[0, 0, 0]	-999	PAL1	1	R1112M
177.872	0.783	97687	STUDY_ORIENT	n/a	n/a	5	5	GUARD	n/a	GUARD	COUCH	1	[0, 0, 0]	-999	PAL1	1	R1112M
178.655	5.018	98078	STUDY_PAIR	n/a	wordpools/wordpool_EN.txt	5	5	GUARD	n/a	GUARD	COUCH	1	[0, 0, 0]	-999	PAL1	1	R1112M
183.673	0.883	100587	STUDY_ORIENT	n/a	n/a	6	4	BEACH	n/a	VASE	BEACH	1	[0, 0, 0]	-999	PAL1	1	R1112M
184.556	4.002	101029	STUDY_PAIR	n/a	wordpools/wordpool_EN.txt	6	4	BEACH	n/a	VASE	BEACH	1	[0, 0, 0]	-999	PAL1	1	R1112M
188.558	0.999	103030	START	n/a	n/a	-999	-999	n/a	n/a	n/a	n/a	1	[-999, -999, -999]	-999	PAL1	1	R1112M
189.557	0.017	103529	MATH_START	n/a	n/a	-999	-999	n/a	n/a	n/a	n/a	1	[0, 0, 0]	-999	PAL1	1	R1112M
189.574	12.72	103538	PROB	12694	n/a	-999	-999	n/a	n/a	n/a	n/a	1	[1, 6, 9]	16	PAL1	1	R1112M
202.294	20.382	109897	PROB	20382	n/a	-999	-999	n/a	n/a	n/a	n/a	1	[8, 8, 9]	25	PAL1	1	R1112M
222.676	0.022	120088	STOP	n/a	n/a	-999	-999	n/a	n/a	n/a	n/a	1	[-999, -999, -999]	-999	PAL1	1	R1112M
222.698	0.0	120099	TEST_START	n/a	n/a	-999	-999	n/a	n/a	n/a	n/a	1	[0, 0, 0]	-999	PAL1	1	R1112M
222.698	0.016	120099	MATH_END	n/a	n/a	-999	-999	n/a	n/a	n/a	n/a	1	[0, 0, 0]	-999	PAL1	1	R1112M
222.714	0.967	120107	TEST_ORIENT	n/a	n/a	3	1	LAWN	n/a	STAR	LAWN	1	[0, 0, 0]	-999	PAL1	1	R1112M
223.681	0.001	120590	TEST_PROBE	n/a	wordpools/wordpool_EN.txt	3	1	LAWN	n/a	STAR	LAWN	1	[0, 0, 0]	-999	PAL1	1	R1112M
223.682	5.015	120591	REC_START	n/a	n/a	3	-999	n/a	n/a	n/a	n/a	1	[0, 0, 0]	-999	PAL1	1	R1112M
228.697	0.001	123098	REC_EVENT	5015	n/a	3	1	LAWN	<>	STAR	LAWN	1	[0, 0, 0]	-999	PAL1	1	R1112M
228.698	0.017	123099	REC_END	n/a	n/a	3	-999	n/a	n/a	n/a	n/a	1	[0, 0, 0]	-999	PAL1	1	R1112M
228.715	1.034	123107	TEST_ORIENT	n/a	n/a	4	2	HAT	CAPE	HAT	WEB	1	[0, 0, 0]	-999	PAL1	1	R1112M
229.749	0.001	123624	TEST_PROBE	n/a	wordpools/wordpool_EN.txt	4	2	HAT	CAPE	HAT	WEB	1	[0, 0, 0]	-999	PAL1	1	R1112M
229.75	2.318	123625	REC_START	n/a	n/a	4	-999	n/a	CAPE	n/a	n/a	1	[0, 0, 0]	-999	PAL1	1	R1112M
232.068	2.698	124783	REC_EVENT	2318	n/a	4	2	HAT	CAPE	HAT	WEB	1	[0, 0, 0]	-999	PAL1	1	R1112M
234.766	0.017	126132	REC_END	n/a	n/a	4	-999	n/a	n/a	n/a	n/a	1	[0, 0, 0]	-999	PAL1	1	R1112M
234.783	0.967	126141	TEST_ORIENT	n/a	n/a	1	3	LAMP	n/a	CAPE	LAMP	1	[0, 0, 0]	-999	PAL1	1	R1112M
235.75	0.001	126624	TEST_PROBE	n/a	wordpools/wordpool_EN.txt	1	3	LAMP	n/a	CAPE	LAMP	1	[0, 0, 0]	-999	PAL1	1	R1112M
235.751	5.008	126625	REC_START	n/a	n/a	1	-999	n/a	n/a	n/a	n/a	1	[0, 0, 0]	-999	PAL1	1	R1112M
240.759	0.001	129129	REC_END	n/a	n/a	1	-999	n/a	n/a	n/a	n/a	1	[0, 0, 0]	-999	PAL1	1	R1112M
240.76	0.008	129129	REC_EVENT	5009	n/a	1	3	LAMP	<>	CAPE	LAMP	1	[0, 0, 0]	-999	PAL1	1	R1112M
240.768	1.033	129133	TEST_ORIENT	n/a	n/a	6	4	BEACH	n/a	VASE	BEACH	1	[0, 0, 0]	-999	PAL1	1	R1112M
241.801	0.001	129650	TEST_PROBE	n/a	wordpools/wordpool_EN.txt	6	4	BEACH	n/a	VASE	BEACH	1	[0, 0, 0]	-999	PAL1	1	R1112M
241.802	5.003	129650	REC_START	n/a	n/a	6	-999	n/a	n/a	n/a	n/a	1	[0, 0, 0]	-999	PAL1	1	R1112M
246.805	0.005	132152	REC_EVENT	5003	n/a	6	4	BEACH	<>	VASE	BEACH	1	[0, 0, 0]	-999	PAL1	1	R1112M
246.81	0.009	132154	REC_END	n/a	n/a	6	-999	n/a	n/a	n/a	n/a	1	[0, 0, 0]	-999	PAL1	1	R1112M
246.819	0.917	132159	TEST_ORIENT	n/a	n/a	5	5	GUARD	n/a	GUARD	COUCH	1	[0, 0, 0]	-999	PAL1	1	R1112M
247.736	0.001	132617	TEST_PROBE	n/a	wordpools/wordpool_EN.txt	5	5	GUARD	n/a	GUARD	COUCH	1	[0, 0, 0]	-999	PAL1	1	R1112M
247.737	5.015	132618	REC_START	n/a	n/a	5	-999	n/a	n/a	n/a	n/a	1	[0, 0, 0]	-999	PAL1	1	R1112M
252.752	0.001	135125	REC_EVENT	5015	n/a	5	5	GUARD	<>	GUARD	COUCH	1	[0, 0, 0]	-999	PAL1	1	R1112M
252.753	0.017	135125	REC_END	n/a	n/a	5	-999	n/a	n/a	n/a	n/a	1	[0, 0, 0]	-999	PAL1	1	R1112M
252.77	0.833	135134	TEST_ORIENT	n/a	n/a	2	6	SHARK	n/a	SHARK	JET	1	[0, 0, 0]	-999	PAL1	1	R1112M
253.603	0.001	135550	TEST_PROBE	n/a	wordpools/wordpool_EN.txt	2	6	SHARK	n/a	SHARK	JET	1	[0, 0, 0]	-999	PAL1	1	R1112M
253.604	5.003	135551	REC_START	n/a	n/a	2	-999	n/a	n/a	n/a	n/a	1	[0, 0, 0]	-999	PAL1	1	R1112M
258.607	0.005	138052	REC_EVENT	5003	n/a	2	6	SHARK	<>	SHARK	JET	1	[0, 0, 0]	-999	PAL1	1	R1112M
258.612	23.777	138055	REC_END	n/a	n/a	2	-999	n/a	n/a	n/a	n/a	1	[0, 0, 0]	-999	PAL1	1	R1112M
282.389	10.439	149943	ENCODING_START	n/a	n/a	0	-999	n/a	n/a	n/a	n/a	2	[0, 0, 0]	-999	PAL1	1	R1112M
292.828	0.834	155162	STUDY_ORIENT	n/a	n/a	1	3	AXE	n/a	FLAG	AXE	2	[0, 0, 0]	-999	PAL1	1	R1112M
293.662	5.034	155579	STUDY_PAIR	n/a	wordpools/wordpool_EN.txt	1	3	AXE	n/a	FLAG	AXE	2	[0, 0, 0]	-999	PAL1	1	R1112M
298.696	0.933	158096	STUDY_ORIENT	n/a	n/a	2	4	FISH	n/a	SHEET	FISH	2	[0, 0, 0]	-999	PAL1	1	R1112M
299.629	5.018	158562	STUDY_PAIR	n/a	wordpools/wordpool_EN.txt	2	4	FISH	n/a	SHEET	FISH	2	[0, 0, 0]	-999	PAL1	1	R1112M
304.647	0.85	161071	STUDY_ORIENT	n/a	n/a	3	1	ROAD	n/a	STRING	ROAD	2	[0, 0, 0]	-999	PAL1	1	R1112M
305.497	5.018	161496	STUDY_PAIR	n/a	wordpools/wordpool_EN.txt	3	1	ROAD	n/a	STRING	ROAD	2	[0, 0, 0]	-999	PAL1	1	R1112M
310.515	0.983	164005	STUDY_ORIENT	n/a	n/a	4	6	PIN	n/a	BARN	PIN	2	[0, 0, 0]	-999	PAL1	1	R1112M
311.498	5.018	164496	STUDY_PAIR	n/a	wordpools/wordpool_EN.txt	4	6	PIN	n/a	BARN	PIN	2	[0, 0, 0]	-999	PAL1	1	R1112M
316.516	1.017	167005	STUDY_ORIENT	n/a	n/a	5	5	BRICK	n/a	DRESS	BRICK	2	[0, 0, 0]	-999	PAL1	1	R1112M
317.533	5.034	167514	STUDY_PAIR	n/a	wordpools/wordpool_EN.txt	5	5	BRICK	n/a	DRESS	BRICK	2	[0, 0, 0]	-999	PAL1	1	R1112M
322.567	1.001	170030	STUDY_ORIENT	n/a	n/a	6	2	HILL	n/a	HILL	PLANE	2	[0, 0, 0]	-999	PAL1	1	R1112M
323.568	4.017	170531	STUDY_PAIR	n/a	wordpools/wordpool_EN.txt	6	2	HILL	n/a	HILL	PLANE	2	[0, 0, 0]	-999	PAL1	1	R1112M
327.585	1.0	172539	START	n/a	n/a	-999	-999	n/a	n/a	n/a	n/a	2	[-999, -999, -999]	-999	PAL1	1	R1112M
328.585	0.017	173039	MATH_START	n/a	n/a	-999	-999	n/a	n/a	n/a	n/a	2	[0, 0, 0]	-999	PAL1	1	R1112M
328.602	21.49	173048	PROB	21490	n/a	-999	-999	n/a	n/a	n/a	n/a	2	[9, 8, 7]	27	PAL1	1	R1112M
350.092	0.014	183792	STOP	n/a	n/a	-999	-999	n/a	n/a	n/a	n/a	2	[-999, -999, -999]	-999	PAL1	1	R1112M
350.106	0.0	183799	MATH_END	n/a	n/a	-999	-999	n/a	n/a	n/a	n/a	2	[0, 0, 0]	-999	PAL1	1	R1112M
350.106	0.017	183799	TEST_START	n/a	n/a	-999	-999	n/a	n/a	n/a	n/a	2	[0, 0, 0]	-999	PAL1	1	R1112M
350.123	0.867	183808	TEST_ORIENT	n/a	n/a	3	1	ROAD	n/a	STRING	ROAD	2	[0, 0, 0]	-999	PAL1	1	R1112M
350.99	0.0	184241	TEST_PROBE	n/a	wordpools/wordpool_EN.txt	3	1	ROAD	n/a	STRING	ROAD	2	[0, 0, 0]	-999	PAL1	1	R1112M
350.99	5.015	184241	REC_START	n/a	n/a	3	-999	n/a	n/a	n/a	n/a	2	[0, 0, 0]	-999	PAL1	1	R1112M
356.005	0.002	186749	REC_EVENT	5015	n/a	3	1	ROAD	<>	STRING	ROAD	2	[0, 0, 0]	-999	PAL1	1	R1112M
356.007	0.017	186750	REC_END	n/a	n/a	3	-999	n/a	n/a	n/a	n/a	2	[0, 0, 0]	-999	PAL1	1	R1112M
356.024	0.95	186758	TEST_ORIENT	n/a	n/a	6	2	HILL	n/a	HILL	PLANE	2	[0, 0, 0]	-999	PAL1	1	R1112M
356.974	0.001	187233	TEST_PROBE	n/a	wordpools/wordpool_EN.txt	6	2	HILL	n/a	HILL	PLANE	2	[0, 0, 0]	-999	PAL1	1	R1112M
356.975	5.009	187234	REC_START	n/a	n/a	6	-999	n/a	n/a	n/a	n/a	2	[0, 0, 0]	-999	PAL1	1	R1112M
361.984	0.0	189738	REC_EVENT	5009	n/a	6	2	HILL	<>	HILL	PLANE	2	[0, 0, 0]	-999	PAL1	1	R1112M
361.984	0.008	189738	REC_END	n/a	n/a	6	-999	n/a	n/a	n/a	n/a	2	[0, 0, 0]	-999	PAL1	1	R1112M
361.992	0.917	189742	TEST_ORIENT	n/a	n/a	1	3	AXE	n/a	FLAG	AXE	2	[0, 0, 0]	-999	PAL1	1	R1112M
362.909	0.0	190200	TEST_PROBE	n/a	wordpools/wordpool_EN.txt	1	3	AXE	n/a	FLAG	AXE	2	[0, 0, 0]	-999	PAL1	1	R1112M
362.909	5.015	190200	REC_START	n/a	n/a	1	-999	n/a	n/a	n/a	n/a	2	[0, 0, 0]	-999	PAL1	1	R1112M
367.924	0.002	192708	REC_EVENT	5015	n/a	1	3	AXE	<>	FLAG	AXE	2	[0, 0, 0]	-999	PAL1	1	R1112M
367.926	0.017	192709	REC_END	n/a	n/a	1	-999	n/a	n/a	n/a	n/a	2	[0, 0, 0]	-999	PAL1	1	R1112M
367.943	1.0	192717	TEST_ORIENT	n/a	n/a	2	4	FISH	n/a	SHEET	FISH	2	[0, 0, 0]	-999	PAL1	1	R1112M
368.943	0.001	193217	TEST_PROBE	n/a	wordpools/wordpool_EN.txt	2	4	FISH	n/a	SHEET	FISH	2	[0, 0, 0]	-999	PAL1	1	R1112M
368.944	5.009	193218	REC_START	n/a	n/a	2	-999	n/a	n/a	n/a	n/a	2	[0, 0, 0]	-999	PAL1	1	R1112M
373.953	0.0	195722	REC_EVENT	5009	n/a	2	4	FISH	<>	SHEET	FISH	2	[0, 0, 0]	-999	PAL1	1	R1112M
373.953	0.008	195722	REC_END	n/a	n/a	2	-999	n/a	n/a	n/a	n/a	2	[0, 0, 0]	-999	PAL1	1	R1112M
373.961	1.017	195726	TEST_ORIENT	n/a	n/a	5	5	BRICK	n/a	DRESS	BRICK	2	[0, 0, 0]	-999	PAL1	1	R1112M
374.978	0.0	196235	REC_START	n/a	n/a	5	-999	n/a	n/a	n/a	n/a	2	[0, 0, 0]	-999	PAL1	1	R1112M
374.978	5.015	196235	TEST_PROBE	n/a	wordpools/wordpool_EN.txt	5	5	BRICK	n/a	DRESS	BRICK	2	[0, 0, 0]	-999	PAL1	1	R1112M
379.993	0.002	198742	REC_EVENT	5015	n/a	5	5	BRICK	<>	DRESS	BRICK	2	[0, 0, 0]	-999	PAL1	1	R1112M
379.995	0.017	198743	REC_END	n/a	n/a	5	-999	n/a	n/a	n/a	n/a	2	[0, 0, 0]	-999	PAL1	1	R1112M
380.012	1.0	198751	TEST_ORIENT	n/a	n/a	4	6	PIN	n/a	BARN	PIN	2	[0, 0, 0]	-999	PAL1	1	R1112M
381.012	0.001	199251	TEST_PROBE	n/a	wordpools/wordpool_EN.txt	4	6	PIN	n/a	BARN	PIN	2	[0, 0, 0]	-999	PAL1	1	R1112M
381.013	4.998	199252	REC_START	n/a	n/a	4	-999	n/a	n/a	n/a	n/a	2	[0, 0, 0]	-999	PAL1	1	R1112M
386.011	0.002	201751	REC_EVENT	4998	n/a	4	6	PIN	<>	BARN	PIN	2	[0, 0, 0]	-999	PAL1	1	R1112M
386.013	26.911	201752	REC_END	n/a	n/a	4	-999	n/a	n/a	n/a	n/a	2	[0, 0, 0]	-999	PAL1	1	R1112M
412.924	10.448	215206	ENCODING_START	n/a	n/a	0	-999	n/a	n/a	n/a	n/a	3	[0, 0, 0]	-999	PAL1	1	R1112M
423.372	0.799	220430	STUDY_ORIENT	n/a	n/a	1	3	WHALE	n/a	WHALE	BEAN	3	[0, 0, 0]	-999	PAL1	1	R1112M
424.171	5.034	220830	STUDY_PAIR	n/a	wordpools/wordpool_EN.txt	1	3	WHALE	n/a	WHALE	BEAN	3	[0, 0, 0]	-999	PAL1	1	R1112M
429.205	0.767	223347	STUDY_ORIENT	n/a	n/a	2	6	MOON	n/a	MOON	PIPE	3	[0, 0, 0]	-999	PAL1	1	R1112M
429.972	5.034	223730	STUDY_PAIR	n/a	wordpools/wordpool_EN.txt	2	6	MOON	n/a	MOON	PIPE	3	[0, 0, 0]	-999	PAL1	1	R1112M
435.006	1.017	226247	STUDY_ORIENT	n/a	n/a	3	5	PANTS	n/a	PANTS	MAT	3	[0, 0, 0]	-999	PAL1	1	R1112M
436.023	5.018	226755	STUDY_PAIR	n/a	wordpools/wordpool_EN.txt	3	5	PANTS	n/a	PANTS	MAT	3	[0, 0, 0]	-999	PAL1	1	R1112M
441.041	0.817	229264	STUDY_ORIENT	n/a	n/a	4	2	BOMB	n/a	SLUSH	BOMB	3	[0, 0, 0]	-999	PAL1	1	R1112M
441.858	5.034	229673	STUDY_PAIR	n/a	wordpools/wordpool_EN.txt	4	2	BOMB	n/a	SLUSH	BOMB	3	[0, 0, 0]	-999	PAL1	1	R1112M
446.892	0.983	232190	STUDY_ORIENT	n/a	n/a	5	1	SHIELD	n/a	SHIELD	HEN	3	[0, 0, 0]	-999	PAL1	1	R1112M
447.875	5.018	232681	STUDY_PAIR	n/a	wordpools/wordpool_EN.txt	5	1	SHIELD	n/a	SHIELD	HEN	3	[0, 0, 0]	-999	PAL1	1	R1112M
452.893	0.934	235190	STUDY_ORIENT	n/a	n/a	6	4	PARK	n/a	PARK	CALF	3	[0, 0, 0]	-999	PAL1	1	R1112M
453.827	4.018	235657	STUDY_PAIR	n/a	wordpools/wordpool_EN.txt	6	4	PARK	n/a	PARK	CALF	3	[0, 0, 0]	-999	PAL1	1	R1112M
457.845	0.999	237666	START	n/a	n/a	-999	-999	n/a	n/a	n/a	n/a	3	[-999, -999, -999]	-999	PAL1	1	R1112M
458.844	0.017	238165	MATH_START	n/a	n/a	-999	-999	n/a	n/a	n/a	n/a	3	[0, 0, 0]	-999	PAL1	1	R1112M
458.861	30.544	238174	PROB	30544	n/a	-999	-999	n/a	n/a	n/a	n/a	3	[7, 9, 9]	25	PAL1	1	R1112M
489.405	0.013	253445	STOP	n/a	n/a	-999	-999	n/a	n/a	n/a	n/a	3	[-999, -999, -999]	-999	PAL1	1	R1112M
489.418	0.0	253451	MATH_END	n/a	n/a	-999	-999	n/a	n/a	n/a	n/a	3	[0, 0, 0]	-999	PAL1	1	R1112M
489.418	0.017	253451	TEST_START	n/a	n/a	-999	-999	n/a	n/a	n/a	n/a	3	[0, 0, 0]	-999	PAL1	1	R1112M
489.435	0.882	253460	TEST_ORIENT	n/a	n/a	5	1	SHIELD	n/a	SHIELD	HEN	3	[0, 0, 0]	-999	PAL1	1	R1112M
490.317	0.001	253901	TEST_PROBE	n/a	wordpools/wordpool_EN.txt	5	1	SHIELD	n/a	SHIELD	HEN	3	[0, 0, 0]	-999	PAL1	1	R1112M
490.318	5.008	253901	REC_START	n/a	n/a	5	-999	n/a	n/a	n/a	n/a	3	[0, 0, 0]	-999	PAL1	1	R1112M
495.326	0.001	256405	REC_END	n/a	n/a	5	-999	n/a	n/a	n/a	n/a	3	[0, 0, 0]	-999	PAL1	1	R1112M
495.327	0.009	256406	REC_EVENT	5009	n/a	5	1	SHIELD	<>	SHIELD	HEN	3	[0, 0, 0]	-999	PAL1	1	R1112M
495.336	0.833	256410	TEST_ORIENT	n/a	n/a	4	2	BOMB	n/a	SLUSH	BOMB	3	[0, 0, 0]	-999	PAL1	1	R1112M
496.169	0.0	256827	TEST_PROBE	n/a	wordpools/wordpool_EN.txt	4	2	BOMB	n/a	SLUSH	BOMB	3	[0, 0, 0]	-999	PAL1	1	R1112M
496.169	5.017	256827	REC_START	n/a	n/a	4	-999	n/a	n/a	n/a	n/a	3	[0, 0, 0]	-999	PAL1	1	R1112M
501.186	0.004	259335	REC_END	n/a	n/a	4	-999	n/a	n/a	n/a	n/a	3	[0, 0, 0]	-999	PAL1	1	R1112M
501.19	0.013	259337	REC_EVENT	5021	n/a	4	2	BOMB	<>	SLUSH	BOMB	3	[0, 0, 0]	-999	PAL1	1	R1112M
501.203	1.017	259344	TEST_ORIENT	n/a	n/a	1	3	WHALE	n/a	WHALE	BEAN	3	[0, 0, 0]	-999	PAL1	1	R1112M
502.22	0.0	259852	TEST_PROBE	n/a	wordpools/wordpool_EN.txt	1	3	WHALE	n/a	WHALE	BEAN	3	[0, 0, 0]	-999	PAL1	1	R1112M
502.22	5.015	259852	REC_START	n/a	n/a	1	-999	n/a	n/a	n/a	n/a	3	[0, 0, 0]	-999	PAL1	1	R1112M
507.235	0.002	262359	REC_EVENT	5015	n/a	1	3	WHALE	<>	WHALE	BEAN	3	[0, 0, 0]	-999	PAL1	1	R1112M
507.237	0.017	262360	REC_END	n/a	n/a	1	-999	n/a	n/a	n/a	n/a	3	[0, 0, 0]	-999	PAL1	1	R1112M
507.254	0.984	262369	TEST_ORIENT	n/a	n/a	6	4	PARK	n/a	PARK	CALF	3	[0, 0, 0]	-999	PAL1	1	R1112M
508.238	0.0	262861	TEST_PROBE	n/a	wordpools/wordpool_EN.txt	6	4	PARK	n/a	PARK	CALF	3	[0, 0, 0]	-999	PAL1	1	R1112M
508.238	5.017	262861	REC_START	n/a	n/a	6	-999	n/a	n/a	n/a	n/a	3	[0, 0, 0]	-999	PAL1	1	R1112M
513.255	0.004	265369	REC_END	n/a	n/a	6	-999	n/a	n/a	n/a	n/a	3	[0, 0, 0]	-999	PAL1	1	R1112M
513.259	0.013	265371	REC_EVENT	5021	n/a	6	4	PARK	<>	PARK	CALF	3	[0, 0, 0]	-999	PAL1	1	R1112M
513.272	0.917	265378	TEST_ORIENT	n/a	n/a	3	5	PANTS	n/a	PANTS	MAT	3	[0, 0, 0]	-999	PAL1	1	R1112M
514.189	0.0	265836	TEST_PROBE	n/a	wordpools/wordpool_EN.txt	3	5	PANTS	n/a	PANTS	MAT	3	[0, 0, 0]	-999	PAL1	1	R1112M
514.189	5.015	265836	REC_START	n/a	n/a	3	-999	n/a	n/a	n/a	n/a	3	[0, 0, 0]	-999	PAL1	1	R1112M
519.204	0.002	268344	REC_EVENT	5015	n/a	3	5	PANTS	<>	PANTS	MAT	3	[0, 0, 0]	-999	PAL1	1	R1112M
519.206	0.017	268345	REC_END	n/a	n/a	3	-999	n/a	n/a	n/a	n/a	3	[0, 0, 0]	-999	PAL1	1	R1112M
519.223	0.933	268353	TEST_ORIENT	n/a	n/a	2	6	MOON	n/a	MOON	PIPE	3	[0, 0, 0]	-999	PAL1	1	R1112M
520.156	0.001	268820	TEST_PROBE	n/a	wordpools/wordpool_EN.txt	2	6	MOON	n/a	MOON	PIPE	3	[0, 0, 0]	-999	PAL1	1	R1112M
520.157	5.003	268820	REC_START	n/a	n/a	2	-999	n/a	n/a	n/a	n/a	3	[0, 0, 0]	-999	PAL1	1	R1112M
525.16	0.005	271321	REC_EVENT	5003	n/a	2	6	MOON	<>	MOON	PIPE	3	[0, 0, 0]	-999	PAL1	1	R1112M
525.165	31.24	271324	REC_END	n/a	n/a	2	-999	n/a	n/a	n/a	n/a	3	[0, 0, 0]	-999	PAL1	1	R1112M
556.405	10.444	286943	ENCODING_START	n/a	n/a	0	-999	n/a	n/a	n/a	n/a	4	[0, 0, 0]	-999	PAL1	1	R1112M
566.849	0.917	292165	STUDY_ORIENT	n/a	n/a	1	3	GRASS	n/a	FUR	GRASS	4	[0, 0, 0]	-999	PAL1	1	R1112M
567.766	5.018	292623	STUDY_PAIR	n/a	wordpools/wordpool_EN.txt	1	3	GRASS	n/a	FUR	GRASS	4	[0, 0, 0]	-999	PAL1	1	R1112M
572.784	0.95	295132	STUDY_ORIENT	n/a	n/a	2	2	MAZE	n/a	MAZE	FUDGE	4	[0, 0, 0]	-999	PAL1	1	R1112M
573.734	5.034	295607	STUDY_PAIR	n/a	wordpools/wordpool_EN.txt	2	2	MAZE	n/a	MAZE	FUDGE	4	[0, 0, 0]	-999	PAL1	1	R1112M
578.768	0.817	298124	STUDY_ORIENT	n/a	n/a	3	5	STEAK	n/a	TRUCK	STEAK	4	[0, 0, 0]	-999	PAL1	1	R1112M
579.585	5.018	298532	STUDY_PAIR	n/a	wordpools/wordpool_EN.txt	3	5	STEAK	n/a	TRUCK	STEAK	4	[0, 0, 0]	-999	PAL1	1	R1112M
584.603	0.967	301041	STUDY_ORIENT	n/a	n/a	4	4	SLIME	n/a	SMOKE	SLIME	4	[0, 0, 0]	-999	PAL1	1	R1112M
585.57	5.034	301525	STUDY_PAIR	n/a	wordpools/wordpool_EN.txt	4	4	SLIME	n/a	SMOKE	SLIME	4	[0, 0, 0]	-999	PAL1	1	R1112M
590.604	0.818	304042	STUDY_ORIENT	n/a	n/a	5	1	GLASS	WHALE	GLASS	WORM	4	[0, 0, 0]	-999	PAL1	1	R1112M
591.422	5.034	304451	STUDY_PAIR	n/a	wordpools/wordpool_EN.txt	5	1	GLASS	WHALE	GLASS	WORM	4	[0, 0, 0]	-999	PAL1	1	R1112M
596.456	0.816	306967	STUDY_ORIENT	n/a	n/a	6	6	APE	n/a	APE	HOOK	4	[0, 0, 0]	-999	PAL1	1	R1112M
597.272	4.018	307375	STUDY_PAIR	n/a	wordpools/wordpool_EN.txt	6	6	APE	n/a	APE	HOOK	4	[0, 0, 0]	-999	PAL1	1	R1112M
601.29	0.999	309384	START	n/a	n/a	-999	-999	n/a	n/a	n/a	n/a	4	[-999, -999, -999]	-999	PAL1	1	R1112M
602.289	0.017	309884	MATH_START	n/a	n/a	-999	-999	n/a	n/a	n/a	n/a	4	[0, 0, 0]	-999	PAL1	1	R1112M
602.306	19.115	309892	PROB	19115	n/a	-999	-999	n/a	n/a	n/a	n/a	4	[4, 2, 9]	15	PAL1	1	R1112M
621.421	0.007	319449	STOP	n/a	n/a	-999	-999	n/a	n/a	n/a	n/a	4	[-999, -999, -999]	-999	PAL1	1	R1112M
621.428	0.0	319453	TEST_START	n/a	n/a	-999	-999	n/a	n/a	n/a	n/a	4	[0, 0, 0]	-999	PAL1	1	R1112M
621.428	0.016	319453	MATH_END	n/a	n/a	-999	-999	n/a	n/a	n/a	n/a	4	[0, 0, 0]	-999	PAL1	1	R1112M
621.444	0.967	319461	TEST_ORIENT	n/a	n/a	5	1	GLASS	WHALE	GLASS	WORM	4	[0, 0, 0]	-999	PAL1	1	R1112M
622.411	0.001	319944	TEST_PROBE	n/a	wordpools/wordpool_EN.txt	5	1	GLASS	WHALE	GLASS	WORM	4	[0, 0, 0]	-999	PAL1	1	R1112M
622.412	2.693	319945	REC_START	n/a	n/a	5	-999	n/a	WHALE	n/a	n/a	4	[0, 0, 0]	-999	PAL1	1	R1112M
625.105	2.315	321291	REC_EVENT	2693	n/a	5	1	GLASS	WHALE	GLASS	WORM	4	[0, 0, 0]	-999	PAL1	1	R1112M
627.42	0.009	322449	REC_END	n/a	n/a	5	-999	n/a	n/a	n/a	n/a	4	[0, 0, 0]	-999	PAL1	1	R1112M
627.429	0.934	322453	TEST_ORIENT	n/a	n/a	2	2	MAZE	n/a	MAZE	FUDGE	4	[0, 0, 0]	-999	PAL1	1	R1112M
628.363	0.0	322920	REC_START	n/a	n/a	2	-999	n/a	n/a	n/a	n/a	4	[0, 0, 0]	-999	PAL1	1	R1112M
628.363	5.015	322920	TEST_PROBE	n/a	wordpools/wordpool_EN.txt	2	2	MAZE	n/a	MAZE	FUDGE	4	[0, 0, 0]	-999	PAL1	1	R1112M
633.378	0.002	325427	REC_EVENT	5015	n/a	2	2	MAZE	<>	MAZE	FUDGE	4	[0, 0, 0]	-999	PAL1	1	R1112M
633.38	0.017	325428	REC_END	n/a	n/a	2	-999	n/a	n/a	n/a	n/a	4	[0, 0, 0]	-999	PAL1	1	R1112M
633.397	0.849	325437	TEST_ORIENT	n/a	n/a	1	3	GRASS	n/a	FUR	GRASS	4	[0, 0, 0]	-999	PAL1	1	R1112M
634.246	0.0	325861	TEST_PROBE	n/a	wordpools/wordpool_EN.txt	1	3	GRASS	n/a	FUR	GRASS	4	[0, 0, 0]	-999	PAL1	1	R1112M
634.246	5.015	325861	REC_START	n/a	n/a	1	-999	n/a	n/a	n/a	n/a	4	[0, 0, 0]	-999	PAL1	1	R1112M
639.261	0.002	328369	REC_EVENT	5015	n/a	1	3	GRASS	<>	FUR	GRASS	4	[0, 0, 0]	-999	PAL1	1	R1112M
639.263	0.017	328370	REC_END	n/a	n/a	1	-999	n/a	n/a	n/a	n/a	4	[0, 0, 0]	-999	PAL1	1	R1112M
639.28	1.017	328378	TEST_ORIENT	n/a	n/a	4	4	SLIME	n/a	SMOKE	SLIME	4	[0, 0, 0]	-999	PAL1	1	R1112M
640.297	0.001	328887	TEST_PROBE	n/a	wordpools/wordpool_EN.txt	4	4	SLIME	n/a	SMOKE	SLIME	4	[0, 0, 0]	-999	PAL1	1	R1112M
640.298	5.008	328887	REC_START	n/a	n/a	4	-999	n/a	n/a	n/a	n/a	4	[0, 0, 0]	-999	PAL1	1	R1112M
645.306	0.001	331391	REC_END	n/a	n/a	4	-999	n/a	n/a	n/a	n/a	4	[0, 0, 0]	-999	PAL1	1	R1112M
645.307	0.008	331392	REC_EVENT	5009	n/a	4	4	SLIME	<>	SMOKE	SLIME	4	[0, 0, 0]	-999	PAL1	1	R1112M
645.315	0.867	331396	TEST_ORIENT	n/a	n/a	3	5	STEAK	n/a	TRUCK	STEAK	4	[0, 0, 0]	-999	PAL1	1	R1112M
646.182	0.001	331829	TEST_PROBE	n/a	wordpools/wordpool_EN.txt	3	5	STEAK	n/a	TRUCK	STEAK	4	[0, 0, 0]	-999	PAL1	1	R1112M
646.183	5.024	331830	REC_START	n/a	n/a	3	-999	n/a	n/a	n/a	n/a	4	[0, 0, 0]	-999	PAL1	1	R1112M
651.207	0.003	334341	REC_END	n/a	n/a	3	-999	n/a	n/a	n/a	n/a	4	[0, 0, 0]	-999	PAL1	1	R1112M
651.21	0.006	334343	REC_EVENT	5027	n/a	3	5	STEAK	<>	TRUCK	STEAK	4	[0, 0, 0]	-999	PAL1	1	R1112M
651.216	0.967	334346	TEST_ORIENT	n/a	n/a	6	6	APE	n/a	APE	HOOK	4	[0, 0, 0]	-999	PAL1	1	R1112M
652.183	0.001	334829	TEST_PROBE	n/a	wordpools/wordpool_EN.txt	6	6	APE	n/a	APE	HOOK	4	[0, 0, 0]	-999	PAL1	1	R1112M
652.184	5.015	334830	REC_START	n/a	n/a	6	-999	n/a	n/a	n/a	n/a	4	[0, 0, 0]	-999	PAL1	1	R1112M
657.199	0.001	337337	REC_EVENT	5015	n/a	6	6	APE	<>	APE	HOOK	4	[0, 0, 0]	-999	PAL1	1	R1112M
657.2	48.292	337338	REC_END	n/a	n/a	6	-999	n/a	n/a	n/a	n/a	4	[0, 0, 0]	-999	PAL1	1	R1112M
705.492	10.454	361482	ENCODING_START	n/a	n/a	0	-999	n/a	n/a	n/a	n/a	5	[0, 0, 0]	-999	PAL1	1	R1112M
715.946	0.966	366709	STUDY_ORIENT	n/a	n/a	1	5	MULE	n/a	STEM	MULE	5	[0, 0, 0]	-999	PAL1	1	R1112M
716.912	5.018	367192	STUDY_PAIR	n/a	wordpools/wordpool_EN.txt	1	5	MULE	n/a	STEM	MULE	5	[0, 0, 0]	-999	PAL1	1	R1112M
721.93	0.867	369701	STUDY_ORIENT	n/a	n/a	2	2	INK	n/a	BLOOM	INK	5	[0, 0, 0]	-999	PAL1	1	R1112M
722.797	5.034	370134	STUDY_PAIR	n/a	wordpools/wordpool_EN.txt	2	2	INK	n/a	BLOOM	INK	5	[0, 0, 0]	-999	PAL1	1	R1112M
727.831	0.817	372651	STUDY_ORIENT	n/a	n/a	3	3	LOCK	FRUIT	LOCK	FRUIT	5	[0, 0, 0]	-999	PAL1	1	R1112M
728.648	5.018	373060	STUDY_PAIR	n/a	wordpools/wordpool_EN.txt	3	3	LOCK	FRUIT	LOCK	FRUIT	5	[0, 0, 0]	-999	PAL1	1	R1112M
733.666	0.917	375569	STUDY_ORIENT	n/a	n/a	4	4	PRINCE	n/a	SNAIL	PRINCE	5	[0, 0, 0]	-999	PAL1	1	R1112M
734.583	5.034	376027	STUDY_PAIR	n/a	wordpools/wordpool_EN.txt	4	4	PRINCE	n/a	SNAIL	PRINCE	5	[0, 0, 0]	-999	PAL1	1	R1112M
739.617	0.984	378544	STUDY_ORIENT	n/a	n/a	5	1	BRUSH	n/a	BRUSH	FLOOR	5	[0, 0, 0]	-999	PAL1	1	R1112M
740.601	5.034	379036	STUDY_PAIR	n/a	wordpools/wordpool_EN.txt	5	1	BRUSH	n/a	BRUSH	FLOOR	5	[0, 0, 0]	-999	PAL1	1	R1112M
745.635	0.784	381553	STUDY_ORIENT	n/a	n/a	6	6	SPOON	HOLE	SPOON	HOLE	5	[0, 0, 0]	-999	PAL1	1	R1112M
746.419	4.001	381945	STUDY_PAIR	n/a	wordpools/wordpool_EN.txt	6	6	SPOON	HOLE	SPOON	HOLE	5	[0, 0, 0]	-999	PAL1	1	R1112M
750.42	1.0	383945	START	n/a	n/a	-999	-999	n/a	n/a	n/a	n/a	5	[-999, -999, -999]	-999	PAL1	1	R1112M
751.42	0.017	384445	MATH_START	n/a	n/a	-999	-999	n/a	n/a	n/a	n/a	5	[0, 0, 0]	-999	PAL1	1	R1112M
751.437	7.851	384454	PROB	7823	n/a	-999	-999	n/a	n/a	n/a	n/a	5	[3, 1, 9]	13	PAL1	1	R1112M
759.288	12.82	388379	PROB	12820	n/a	-999	-999	n/a	n/a	n/a	n/a	5	[5, 6, 4]	15	PAL1	1	R1112M
772.108	0.015	394789	STOP	n/a	n/a	-999	-999	n/a	n/a	n/a	n/a	5	[-999, -999, -999]	-999	PAL1	1	R1112M
772.123	0.0	394796	MATH_END	n/a	n/a	-999	-999	n/a	n/a	n/a	n/a	5	[0, 0, 0]	-999	PAL1	1	R1112M
772.123	0.017	394796	TEST_START	n/a	n/a	-999	-999	n/a	n/a	n/a	n/a	5	[0, 0, 0]	-999	PAL1	1	R1112M
772.14	0.917	394805	TEST_ORIENT	n/a	n/a	5	1	BRUSH	n/a	BRUSH	FLOOR	5	[0, 0, 0]	-999	PAL1	1	R1112M
773.057	0.0	395263	TEST_PROBE	n/a	wordpools/wordpool_EN.txt	5	1	BRUSH	n/a	BRUSH	FLOOR	5	[0, 0, 0]	-999	PAL1	1	R1112M
773.057	5.015	395263	REC_START	n/a	n/a	5	-999	n/a	n/a	n/a	n/a	5	[0, 0, 0]	-999	PAL1	1	R1112M
778.072	0.002	397770	REC_EVENT	5015	n/a	5	1	BRUSH	<>	BRUSH	FLOOR	5	[0, 0, 0]	-999	PAL1	1	R1112M
778.074	0.017	397771	REC_END	n/a	n/a	5	-999	n/a	n/a	n/a	n/a	5	[0, 0, 0]	-999	PAL1	1	R1112M
778.091	0.8	397780	TEST_ORIENT	n/a	n/a	2	2	INK	n/a	BLOOM	INK	5	[0, 0, 0]	-999	PAL1	1	R1112M
778.891	0.001	398180	TEST_PROBE	n/a	wordpools/wordpool_EN.txt	2	2	INK	n/a	BLOOM	INK	5	[0, 0, 0]	-999	PAL1	1	R1112M
778.892	5.009	398180	REC_START	n/a	n/a	2	-999	n/a	n/a	n/a	n/a	5	[0, 0, 0]	-999	PAL1	1	R1112M
783.901	0.0	400685	REC_EVENT	5009	n/a	2	2	INK	<>	BLOOM	INK	5	[0, 0, 0]	-999	PAL1	1	R1112M
783.901	0.008	400685	REC_END	n/a	n/a	2	-999	n/a	n/a	n/a	n/a	5	[0, 0, 0]	-999	PAL1	1	R1112M
783.909	1.017	400689	TEST_ORIENT	n/a	n/a	3	3	LOCK	FRUIT	LOCK	FRUIT	5	[0, 0, 0]	-999	PAL1	1	R1112M
784.926	0.0	401197	TEST_PROBE	n/a	wordpools/wordpool_EN.txt	3	3	LOCK	FRUIT	LOCK	FRUIT	5	[0, 0, 0]	-999	PAL1	1	R1112M
784.926	2.109	401197	REC_START	n/a	n/a	3	-999	n/a	FRUIT	n/a	n/a	5	[0, 0, 0]	-999	PAL1	1	R1112M
787.035	2.908	402252	REC_EVENT	2109	n/a	3	3	LOCK	FRUIT	LOCK	FRUIT	5	[0, 0, 0]	-999	PAL1	1	R1112M
789.943	0.017	403706	REC_END	n/a	n/a	3	-999	n/a	n/a	n/a	n/a	5	[0, 0, 0]	-999	PAL1	1	R1112M
789.96	1.017	403714	TEST_ORIENT	n/a	n/a	4	4	PRINCE	n/a	SNAIL	PRINCE	5	[0, 0, 0]	-999	PAL1	1	R1112M
790.977	0.001	404223	TEST_PROBE	n/a	wordpools/wordpool_EN.txt	4	4	PRINCE	n/a	SNAIL	PRINCE	5	[0, 0, 0]	-999	PAL1	1	R1112M
790.978	5.008	404223	REC_START	n/a	n/a	4	-999	n/a	n/a	n/a	n/a	5	[0, 0, 0]	-999	PAL1	1	R1112M
795.986	0.001	406727	REC_END	n/a	n/a	4	-999	n/a	n/a	n/a	n/a	5	[0, 0, 0]	-999	PAL1	1	R1112M
795.987	0.008	406727	REC_EVENT	5009	n/a	4	4	PRINCE	<>	SNAIL	PRINCE	5	[0, 0, 0]	-999	PAL1	1	R1112M
795.995	0.967	406731	TEST_ORIENT	n/a	n/a	1	5	MULE	n/a	STEM	MULE	5	[0, 0, 0]	-999	PAL1	1	R1112M
796.962	0.0	407215	REC_START	n/a	n/a	1	-999	n/a	n/a	n/a	n/a	5	[0, 0, 0]	-999	PAL1	1	R1112M
796.962	5.021	407215	TEST_PROBE	n/a	wordpools/wordpool_EN.txt	1	5	MULE	n/a	STEM	MULE	5	[0, 0, 0]	-999	PAL1	1	R1112M
801.983	0.004	409725	REC_EVENT	5021	n/a	1	5	MULE	<>	STEM	MULE	5	[0, 0, 0]	-999	PAL1	1	R1112M
801.987	0.009	409727	REC_END	n/a	n/a	1	-999	n/a	n/a	n/a	n/a	5	[0, 0, 0]	-999	PAL1	1	R1112M
801.996	0.867	409732	TEST_ORIENT	n/a	n/a	6	6	SPOON	HOLE	SPOON	HOLE	5	[0, 0, 0]	-999	PAL1	1	R1112M
802.863	0.001	410165	TEST_PROBE	n/a	wordpools/wordpool_EN.txt	6	6	SPOON	HOLE	SPOON	HOLE	5	[0, 0, 0]	-999	PAL1	1	R1112M
802.864	3.082	410166	REC_START	n/a	n/a	6	-999	n/a	HOLE	n/a	n/a	5	[0, 0, 0]	-999	PAL1	1	R1112M
805.946	1.934	411707	REC_EVENT	3082	n/a	6	6	SPOON	HOLE	SPOON	HOLE	5	[0, 0, 0]	-999	PAL1	1	R1112M
807.88	53.844	412674	REC_END	n/a	n/a	6	-999	n/a	n/a	n/a	n/a	5	[0, 0, 0]	-999	PAL1	1	R1112M
861.724	10.453	439594	ENCODING_START	n/a	n/a	0	-999	n/a	n/a	n/a	n/a	6	[0, 0, 0]	-999	PAL1	1	R1112M
872.177	0.816	444820	STUDY_ORIENT	n/a	n/a	1	3	BOOT	n/a	BOOT	PEARL	6	[0, 0, 0]	-999	PAL1	1	R1112M
872.993	5.018	445228	STUDY_PAIR	n/a	wordpools/wordpool_EN.txt	1	3	BOOT	n/a	BOOT	PEARL	6	[0, 0, 0]	-999	PAL1	1	R1112M
878.011	1.0	447737	STUDY_ORIENT	n/a	n/a	2	6	TEA	n/a	TEA	RUG	6	[0, 0, 0]	-999	PAL1	1	R1112M
879.011	5.018	448237	STUDY_PAIR	n/a	wordpools/wordpool_EN.txt	2	6	TEA	n/a	TEA	RUG	6	[0, 0, 0]	-999	PAL1	1	R1112M
884.029	0.817	450746	STUDY_ORIENT	n/a	n/a	3	1	EEL	n/a	EEL	MILK	6	[0, 0, 0]	-999	PAL1	1	R1112M
884.846	5.034	451154	STUDY_PAIR	n/a	wordpools/wordpool_EN.txt	3	1	EEL	n/a	EEL	MILK	6	[0, 0, 0]	-999	PAL1	1	R1112M
889.88	0.967	453671	STUDY_ORIENT	n/a	n/a	4	2	KITE	n/a	STOVE	KITE	6	[0, 0, 0]	-999	PAL1	1	R1112M
890.847	5.018	454155	STUDY_PAIR	n/a	wordpools/wordpool_EN.txt	4	2	KITE	n/a	STOVE	KITE	6	[0, 0, 0]	-999	PAL1	1	R1112M
895.865	0.833	456664	STUDY_ORIENT	n/a	n/a	5	5	LIP	n/a	PASTE	LIP	6	[0, 0, 0]	-999	PAL1	1	R1112M
896.698	5.034	457080	STUDY_PAIR	n/a	wordpools/wordpool_EN.txt	5	5	LIP	n/a	PASTE	LIP	6	[0, 0, 0]	-999	PAL1	1	R1112M
901.732	0.901	459597	STUDY_ORIENT	n/a	n/a	6	4	RAT	n/a	RAT	JEEP	6	[0, 0, 0]	-999	PAL1	1	R1112M
902.633	4.018	460047	STUDY_PAIR	n/a	wordpools/wordpool_EN.txt	6	4	RAT	n/a	RAT	JEEP	6	[0, 0, 0]	-999	PAL1	1	R1112M
906.651	0.999	462056	START	n/a	n/a	-999	-999	n/a	n/a	n/a	n/a	6	[-999, -999, -999]	-999	PAL1	1	R1112M
907.65	0.017	462556	MATH_START	n/a	n/a	-999	-999	n/a	n/a	n/a	n/a	6	[0, 0, 0]	-999	PAL1	1	R1112M
907.667	17.087	462564	PROB	17057	n/a	-999	-999	n/a	n/a	n/a	n/a	6	[3, 4, 5]	12	PAL1	1	R1112M
924.754	7.874	471107	PROB	7874	n/a	-999	-999	n/a	n/a	n/a	n/a	6	[2, 7, 7]	16	PAL1	1	R1112M
932.628	0.011	475044	STOP	n/a	n/a	-999	-999	n/a	n/a	n/a	n/a	6	[-999, -999, -999]	-999	PAL1	1	R1112M
932.639	0.0	475050	MATH_END	n/a	n/a	-999	-999	n/a	n/a	n/a	n/a	6	[0, 0, 0]	-999	PAL1	1	R1112M
932.639	0.016	475050	TEST_START	n/a	n/a	-999	-999	n/a	n/a	n/a	n/a	6	[0, 0, 0]	-999	PAL1	1	R1112M
932.655	0.901	475058	TEST_ORIENT	n/a	n/a	3	1	EEL	n/a	EEL	MILK	6	[0, 0, 0]	-999	PAL1	1	R1112M
933.556	0.0	475508	TEST_PROBE	n/a	wordpools/wordpool_EN.txt	3	1	EEL	n/a	EEL	MILK	6	[0, 0, 0]	-999	PAL1	1	R1112M
933.556	5.015	475508	REC_START	n/a	n/a	3	-999	n/a	n/a	n/a	n/a	6	[0, 0, 0]	-999	PAL1	1	R1112M
938.571	0.002	478015	REC_EVENT	5015	n/a	3	1	EEL	<>	EEL	MILK	6	[0, 0, 0]	-999	PAL1	1	R1112M
938.573	0.017	478016	REC_END	n/a	n/a	3	-999	n/a	n/a	n/a	n/a	6	[0, 0, 0]	-999	PAL1	1	R1112M
938.59	0.834	478025	TEST_ORIENT	n/a	n/a	4	2	KITE	n/a	STOVE	KITE	6	[0, 0, 0]	-999	PAL1	1	R1112M
939.424	0.001	478442	TEST_PROBE	n/a	wordpools/wordpool_EN.txt	4	2	KITE	n/a	STOVE	KITE	6	[0, 0, 0]	-999	PAL1	1	R1112M
939.425	5.009	478442	REC_START	n/a	n/a	4	-999	n/a	n/a	n/a	n/a	6	[0, 0, 0]	-999	PAL1	1	R1112M
944.434	0.0	480947	REC_EVENT	5009	n/a	4	2	KITE	<>	STOVE	KITE	6	[0, 0, 0]	-999	PAL1	1	R1112M
944.434	0.008	480947	REC_END	n/a	n/a	4	-999	n/a	n/a	n/a	n/a	6	[0, 0, 0]	-999	PAL1	1	R1112M
944.442	0.917	480951	TEST_ORIENT	n/a	n/a	1	3	BOOT	n/a	BOOT	PEARL	6	[0, 0, 0]	-999	PAL1	1	R1112M
945.359	0.001	481409	TEST_PROBE	n/a	wordpools/wordpool_EN.txt	1	3	BOOT	n/a	BOOT	PEARL	6	[0, 0, 0]	-999	PAL1	1	R1112M
945.36	5.015	481410	REC_START	n/a	n/a	1	-999	n/a	n/a	n/a	n/a	6	[0, 0, 0]	-999	PAL1	1	R1112M
950.375	0.001	483917	REC_EVENT	5015	n/a	1	3	BOOT	<>	BOOT	PEARL	6	[0, 0, 0]	-999	PAL1	1	R1112M
950.376	0.017	483918	REC_END	n/a	n/a	1	-999	n/a	n/a	n/a	n/a	6	[0, 0, 0]	-999	PAL1	1	R1112M
950.393	0.833	483926	TEST_ORIENT	n/a	n/a	6	4	RAT	n/a	RAT	JEEP	6	[0, 0, 0]	-999	PAL1	1	R1112M
951.226	0.0	484343	TEST_PROBE	n/a	wordpools/wordpool_EN.txt	6	4	RAT	n/a	RAT	JEEP	6	[0, 0, 0]	-999	PAL1	1	R1112M
951.226	5.015	484343	REC_START	n/a	n/a	6	-999	n/a	n/a	n/a	n/a	6	[0, 0, 0]	-999	PAL1	1	R1112M
956.241	0.002	486850	REC_EVENT	5015	n/a	6	4	RAT	<>	RAT	JEEP	6	[0, 0, 0]	-999	PAL1	1	R1112M
956.243	0.017	486851	REC_END	n/a	n/a	6	-999	n/a	n/a	n/a	n/a	6	[0, 0, 0]	-999	PAL1	1	R1112M
956.26	0.8	486860	TEST_ORIENT	n/a	n/a	5	5	LIP	n/a	PASTE	LIP	6	[0, 0, 0]	-999	PAL1	1	R1112M
957.06	0.001	487259	TEST_PROBE	n/a	wordpools/wordpool_EN.txt	5	5	LIP	n/a	PASTE	LIP	6	[0, 0, 0]	-999	PAL1	1	R1112M
957.061	5.009	487260	REC_START	n/a	n/a	5	-999	n/a	n/a	n/a	n/a	6	[0, 0, 0]	-999	PAL1	1	R1112M
962.07	0.0	489764	REC_EVENT	5009	n/a	5	5	LIP	<>	PASTE	LIP	6	[0, 0, 0]	-999	PAL1	1	R1112M
962.07	0.008	489764	REC_END	n/a	n/a	5	-999	n/a	n/a	n/a	n/a	6	[0, 0, 0]	-999	PAL1	1	R1112M
962.078	0.883	489768	TEST_ORIENT	n/a	n/a	2	6	TEA	n/a	TEA	RUG	6	[0, 0, 0]	-999	PAL1	1	R1112M
962.961	0.001	490210	TEST_PROBE	n/a	wordpools/wordpool_EN.txt	2	6	TEA	n/a	TEA	RUG	6	[0, 0, 0]	-999	PAL1	1	R1112M
962.962	5.003	490210	REC_START	n/a	n/a	2	-999	n/a	n/a	n/a	n/a	6	[0, 0, 0]	-999	PAL1	1	R1112M
967.965	0.005	492712	REC_EVENT	5003	n/a	2	6	TEA	<>	TEA	RUG	6	[0, 0, 0]	-999	PAL1	1	R1112M
967.97	39.282	492714	REC_END	n/a	n/a	2	-999	n/a	n/a	n/a	n/a	6	[0, 0, 0]	-999	PAL1	1	R1112M
1007.252	10.454	512354	ENCODING_START	n/a	n/a	0	-999	n/a	n/a	n/a	n/a	7	[0, 0, 0]	-999	PAL1	1	R1112M
1017.706	0.917	517581	STUDY_ORIENT	n/a	n/a	1	5	SHIRT	n/a	BAND	SHIRT	7	[0, 0, 0]	-999	PAL1	1	R1112M
1018.623	5.034	518039	STUDY_PAIR	n/a	wordpools/wordpool_EN.txt	1	5	SHIRT	n/a	BAND	SHIRT	7	[0, 0, 0]	-999	PAL1	1	R1112M
1023.657	0.967	520556	STUDY_ORIENT	n/a	n/a	2	2	CANE	n/a	CANE	ANT	7	[0, 0, 0]	-999	PAL1	1	R1112M
1024.624	5.034	521040	STUDY_PAIR	n/a	wordpools/wordpool_EN.txt	2	2	CANE	n/a	CANE	ANT	7	[0, 0, 0]	-999	PAL1	1	R1112M
1029.658	0.9	523556	STUDY_ORIENT	n/a	n/a	3	3	WAVE	n/a	FORK	WAVE	7	[0, 0, 0]	-999	PAL1	1	R1112M
1030.558	5.018	524006	STUDY_PAIR	n/a	wordpools/wordpool_EN.txt	3	3	WAVE	n/a	FORK	WAVE	7	[0, 0, 0]	-999	PAL1	1	R1112M
1035.576	1.0	526515	STUDY_ORIENT	n/a	n/a	4	6	BENCH	n/a	WING	BENCH	7	[0, 0, 0]	-999	PAL1	1	R1112M
1036.576	5.018	527015	STUDY_PAIR	n/a	wordpools/wordpool_EN.txt	4	6	BENCH	n/a	WING	BENCH	7	[0, 0, 0]	-999	PAL1	1	R1112M
1041.594	0.818	529524	STUDY_ORIENT	n/a	n/a	5	1	SEAT	n/a	GLOVE	SEAT	7	[0, 0, 0]	-999	PAL1	1	R1112M
1042.412	5.034	529933	STUDY_PAIR	n/a	wordpools/wordpool_EN.txt	5	1	SEAT	n/a	GLOVE	SEAT	7	[0, 0, 0]	-999	PAL1	1	R1112M
1047.446	0.832	532450	STUDY_ORIENT	n/a	n/a	6	4	MUG	n/a	FROG	MUG	7	[0, 0, 0]	-999	PAL1	1	R1112M
1048.278	4.001	532866	STUDY_PAIR	n/a	wordpools/wordpool_EN.txt	6	4	MUG	n/a	FROG	MUG	7	[0, 0, 0]	-999	PAL1	1	R1112M
1052.279	1.0	534866	START	n/a	n/a	-999	-999	n/a	n/a	n/a	n/a	7	[-999, -999, -999]	-999	PAL1	1	R1112M
1053.279	0.017	535366	MATH_START	n/a	n/a	-999	-999	n/a	n/a	n/a	n/a	7	[0, 0, 0]	-999	PAL1	1	R1112M
1053.296	18.97	535375	PROB	18940	n/a	-999	-999	n/a	n/a	n/a	n/a	7	[3, 4, 8]	15	PAL1	1	R1112M
1072.266	11.61	544859	PROB	11610	n/a	-999	-999	n/a	n/a	n/a	n/a	7	[8, 9, 2]	19	PAL1	1	R1112M
1083.876	0.01	550664	STOP	n/a	n/a	-999	-999	n/a	n/a	n/a	n/a	7	[-999, -999, -999]	-999	PAL1	1	R1112M
1083.886	0.0	550669	MATH_END	n/a	n/a	-999	-999	n/a	n/a	n/a	n/a	7	[0, 0, 0]	-999	PAL1	1	R1112M
1083.886	0.016	550669	TEST_START	n/a	n/a	-999	-999	n/a	n/a	n/a	n/a	7	[0, 0, 0]	-999	PAL1	1	R1112M
1083.902	0.8	550677	TEST_ORIENT	n/a	n/a	5	1	SEAT	n/a	GLOVE	SEAT	7	[0, 0, 0]	-999	PAL1	1	R1112M
1084.702	0.001	551077	TEST_PROBE	n/a	wordpools/wordpool_EN.txt	5	1	SEAT	n/a	GLOVE	SEAT	7	[0, 0, 0]	-999	PAL1	1	R1112M
1084.703	5.003	551077	REC_START	n/a	n/a	5	-999	n/a	n/a	n/a	n/a	7	[0, 0, 0]	-999	PAL1	1	R1112M
1089.706	0.005	553579	REC_EVENT	5003	n/a	5	1	SEAT	<>	GLOVE	SEAT	7	[0, 0, 0]	-999	PAL1	1	R1112M
1089.711	0.009	553581	REC_END	n/a	n/a	5	-999	n/a	n/a	n/a	n/a	7	[0, 0, 0]	-999	PAL1	1	R1112M
1089.72	1.0	553586	TEST_ORIENT	n/a	n/a	2	2	CANE	n/a	CANE	ANT	7	[0, 0, 0]	-999	PAL1	1	R1112M
1090.72	0.001	554086	TEST_PROBE	n/a	wordpools/wordpool_EN.txt	2	2	CANE	n/a	CANE	ANT	7	[0, 0, 0]	-999	PAL1	1	R1112M
1090.721	5.009	554086	REC_START	n/a	n/a	2	-999	n/a	n/a	n/a	n/a	7	[0, 0, 0]	-999	PAL1	1	R1112M
1095.73	0.0	556591	REC_END	n/a	n/a	2	-999	n/a	n/a	n/a	n/a	7	[0, 0, 0]	-999	PAL1	1	R1112M
1095.73	0.008	556591	REC_EVENT	5009	n/a	2	2	CANE	<>	CANE	ANT	7	[0, 0, 0]	-999	PAL1	1	R1112M
1095.738	0.983	556595	TEST_ORIENT	n/a	n/a	3	3	WAVE	n/a	FORK	WAVE	7	[0, 0, 0]	-999	PAL1	1	R1112M
1096.721	0.001	557086	TEST_PROBE	n/a	wordpools/wordpool_EN.txt	3	3	WAVE	n/a	FORK	WAVE	7	[0, 0, 0]	-999	PAL1	1	R1112M
1096.722	5.009	557087	REC_START	n/a	n/a	3	-999	n/a	n/a	n/a	n/a	7	[0, 0, 0]	-999	PAL1	1	R1112M
1101.731	0.001	559591	REC_EVENT	5009	n/a	3	3	WAVE	<>	FORK	WAVE	7	[0, 0, 0]	-999	PAL1	1	R1112M
1101.732	0.007	559591	REC_END	n/a	n/a	3	-999	n/a	n/a	n/a	n/a	7	[0, 0, 0]	-999	PAL1	1	R1112M
1101.739	1.0	559595	TEST_ORIENT	n/a	n/a	6	4	MUG	n/a	FROG	MUG	7	[0, 0, 0]	-999	PAL1	1	R1112M
1102.739	0.001	560095	TEST_PROBE	n/a	wordpools/wordpool_EN.txt	6	4	MUG	n/a	FROG	MUG	7	[0, 0, 0]	-999	PAL1	1	R1112M
1102.74	5.003	560095	REC_START	n/a	n/a	6	-999	n/a	n/a	n/a	n/a	7	[0, 0, 0]	-999	PAL1	1	R1112M
1107.743	0.006	562597	REC_EVENT	5003	n/a	6	4	MUG	<>	FROG	MUG	7	[0, 0, 0]	-999	PAL1	1	R1112M
1107.749	0.008	562600	REC_END	n/a	n/a	6	-999	n/a	n/a	n/a	n/a	7	[0, 0, 0]	-999	PAL1	1	R1112M
1107.757	0.933	562604	TEST_ORIENT	n/a	n/a	1	5	SHIRT	n/a	BAND	SHIRT	7	[0, 0, 0]	-999	PAL1	1	R1112M
1108.69	0.001	563070	TEST_PROBE	n/a	wordpools/wordpool_EN.txt	1	5	SHIRT	n/a	BAND	SHIRT	7	[0, 0, 0]	-999	PAL1	1	R1112M
1108.691	5.008	563071	REC_START	n/a	n/a	1	-999	n/a	n/a	n/a	n/a	7	[0, 0, 0]	-999	PAL1	1	R1112M
1113.699	0.001	565575	REC_END	n/a	n/a	1	-999	n/a	n/a	n/a	n/a	7	[0, 0, 0]	-999	PAL1	1	R1112M
1113.7	0.008	565575	REC_EVENT	5009	n/a	1	5	SHIRT	<>	BAND	SHIRT	7	[0, 0, 0]	-999	PAL1	1	R1112M
1113.708	1.034	565579	TEST_ORIENT	n/a	n/a	4	6	BENCH	n/a	WING	BENCH	7	[0, 0, 0]	-999	PAL1	1	R1112M
1114.742	0.0	566096	TEST_PROBE	n/a	wordpools/wordpool_EN.txt	4	6	BENCH	n/a	WING	BENCH	7	[0, 0, 0]	-999	PAL1	1	R1112M
1114.742	5.015	566096	REC_START	n/a	n/a	4	-999	n/a	n/a	n/a	n/a	7	[0, 0, 0]	-999	PAL1	1	R1112M
1119.757	0.002	568603	REC_EVENT	5015	n/a	4	6	BENCH	<>	WING	BENCH	7	[0, 0, 0]	-999	PAL1	1	R1112M
1119.759	30.277	568604	REC_END	n/a	n/a	4	-999	n/a	n/a	n/a	n/a	7	[0, 0, 0]	-999	PAL1	1	R1112M
1150.036	10.448	583742	ENCODING_START	n/a	n/a	0	-999	n/a	n/a	n/a	n/a	8	[0, 0, 0]	-999	PAL1	1	R1112M
1160.484	0.85	588966	STUDY_ORIENT	n/a	n/a	1	5	FLEA	BEE	TAIL	FLEA	8	[0, 0, 0]	-999	PAL1	1	R1112M
1161.334	5.019	589391	STUDY_PAIR	n/a	wordpools/wordpool_EN.txt	1	5	FLEA	BEE	TAIL	FLEA	8	[0, 0, 0]	-999	PAL1	1	R1112M
1166.353	0.899	591900	STUDY_ORIENT	n/a	n/a	2	2	EGG	n/a	ICE	EGG	8	[0, 0, 0]	-999	PAL1	1	R1112M
1167.252	5.018	592350	STUDY_PAIR	n/a	wordpools/wordpool_EN.txt	2	2	EGG	n/a	ICE	EGG	8	[0, 0, 0]	-999	PAL1	1	R1112M
1172.27	0.95	594859	STUDY_ORIENT	n/a	n/a	3	1	STREET	SHRIMP	STREET	SHRIMP	8	[0, 0, 0]	-999	PAL1	1	R1112M
1173.22	5.034	595334	STUDY_PAIR	n/a	wordpools/wordpool_EN.txt	3	1	STREET	SHRIMP	STREET	SHRIMP	8	[0, 0, 0]	-999	PAL1	1	R1112M
1178.254	0.8	597850	STUDY_ORIENT	n/a	n/a	4	6	DART	n/a	HOOF	DART	8	[0, 0, 0]	-999	PAL1	1	R1112M
1179.054	5.018	598250	STUDY_PAIR	n/a	wordpools/wordpool_EN.txt	4	6	DART	n/a	HOOF	DART	8	[0, 0, 0]	-999	PAL1	1	R1112M
1184.072	0.934	600759	STUDY_ORIENT	n/a	n/a	5	3	CHEEK	n/a	STICK	CHEEK	8	[0, 0, 0]	-999	PAL1	1	R1112M
1185.006	5.034	601226	STUDY_PAIR	n/a	wordpools/wordpool_EN.txt	5	3	CHEEK	n/a	STICK	CHEEK	8	[0, 0, 0]	-999	PAL1	1	R1112M
1190.04	0.95	603743	STUDY_ORIENT	n/a	n/a	6	4	BEE	n/a	BEE	BROOM	8	[0, 0, 0]	-999	PAL1	1	R1112M
1190.99	4.001	604218	STUDY_PAIR	n/a	wordpools/wordpool_EN.txt	6	4	BEE	n/a	BEE	BROOM	8	[0, 0, 0]	-999	PAL1	1	R1112M
1194.991	1.0	606218	START	n/a	n/a	-999	-999	n/a	n/a	n/a	n/a	8	[-999, -999, -999]	-999	PAL1	1	R1112M
1195.991	0.017	606718	MATH_START	n/a	n/a	-999	-999	n/a	n/a	n/a	n/a	8	[0, 0, 0]	-999	PAL1	1	R1112M
1196.008	17.02	606727	PROB	16996	n/a	-999	-999	n/a	n/a	n/a	n/a	8	[1, 5, 7]	13	PAL1	1	R1112M
1213.028	23.353	615236	PROB	23353	n/a	-999	-999	n/a	n/a	n/a	n/a	8	[6, 5, 4]	15	PAL1	1	R1112M
1236.381	0.002	626912	STOP	n/a	n/a	-999	-999	n/a	n/a	n/a	n/a	8	[-999, -999, -999]	-999	PAL1	1	R1112M
1236.383	0.0	626913	TEST_START	n/a	n/a	-999	-999	n/a	n/a	n/a	n/a	8	[0, 0, 0]	-999	PAL1	1	R1112M
1236.383	0.017	626913	MATH_END	n/a	n/a	-999	-999	n/a	n/a	n/a	n/a	8	[0, 0, 0]	-999	PAL1	1	R1112M
1236.4	1.034	626922	TEST_ORIENT	n/a	n/a	3	1	STREET	SHRIMP	STREET	SHRIMP	8	[0, 0, 0]	-999	PAL1	1	R1112M
1237.434	0.0	627439	TEST_PROBE	n/a	wordpools/wordpool_EN.txt	3	1	STREET	SHRIMP	STREET	SHRIMP	8	[0, 0, 0]	-999	PAL1	1	R1112M
1237.434	1.704	627439	REC_START	n/a	n/a	3	-999	n/a	SHRIMP	n/a	n/a	8	[0, 0, 0]	-999	PAL1	1	R1112M
1239.138	3.313	628291	REC_EVENT	1704	n/a	3	1	STREET	SHRIMP	STREET	SHRIMP	8	[0, 0, 0]	-999	PAL1	1	R1112M
1242.451	0.016	629947	REC_END	n/a	n/a	3	-999	n/a	n/a	n/a	n/a	8	[0, 0, 0]	-999	PAL1	1	R1112M
1242.467	0.867	629955	TEST_ORIENT	n/a	n/a	2	2	EGG	n/a	ICE	EGG	8	[0, 0, 0]	-999	PAL1	1	R1112M
1243.334	0.0	630389	REC_START	n/a	n/a	2	-999	n/a	n/a	n/a	n/a	8	[0, 0, 0]	-999	PAL1	1	R1112M
1243.334	5.015	630389	TEST_PROBE	n/a	wordpools/wordpool_EN.txt	2	2	EGG	n/a	ICE	EGG	8	[0, 0, 0]	-999	PAL1	1	R1112M
1248.349	0.003	632896	REC_EVENT	5015	n/a	2	2	EGG	<>	ICE	EGG	8	[0, 0, 0]	-999	PAL1	1	R1112M
1248.352	0.017	632897	REC_END	n/a	n/a	2	-999	n/a	n/a	n/a	n/a	8	[0, 0, 0]	-999	PAL1	1	R1112M
1248.369	1.0	632906	TEST_ORIENT	n/a	n/a	5	3	CHEEK	n/a	STICK	CHEEK	8	[0, 0, 0]	-999	PAL1	1	R1112M
1249.369	0.001	633406	TEST_PROBE	n/a	wordpools/wordpool_EN.txt	5	3	CHEEK	n/a	STICK	CHEEK	8	[0, 0, 0]	-999	PAL1	1	R1112M
1249.37	5.008	633406	REC_START	n/a	n/a	5	-999	n/a	n/a	n/a	n/a	8	[0, 0, 0]	-999	PAL1	1	R1112M
1254.378	0.001	635910	REC_END	n/a	n/a	5	-999	n/a	n/a	n/a	n/a	8	[0, 0, 0]	-999	PAL1	1	R1112M
1254.379	0.008	635911	REC_EVENT	5009	n/a	5	3	CHEEK	<>	STICK	CHEEK	8	[0, 0, 0]	-999	PAL1	1	R1112M
1254.387	0.833	635915	TEST_ORIENT	n/a	n/a	6	4	BEE	n/a	BEE	BROOM	8	[0, 0, 0]	-999	PAL1	1	R1112M
1255.22	0.0	636331	TEST_PROBE	n/a	wordpools/wordpool_EN.txt	6	4	BEE	n/a	BEE	BROOM	8	[0, 0, 0]	-999	PAL1	1	R1112M
1255.22	5.015	636331	REC_START	n/a	n/a	6	-999	n/a	n/a	n/a	n/a	8	[0, 0, 0]	-999	PAL1	1	R1112M
1260.235	0.002	638839	REC_EVENT	5015	n/a	6	4	BEE	<>	BEE	BROOM	8	[0, 0, 0]	-999	PAL1	1	R1112M
1260.237	0.017	638840	REC_END	n/a	n/a	6	-999	n/a	n/a	n/a	n/a	8	[0, 0, 0]	-999	PAL1	1	R1112M
1260.254	1.0	638848	TEST_ORIENT	n/a	n/a	1	5	FLEA	BEE	TAIL	FLEA	8	[0, 0, 0]	-999	PAL1	1	R1112M
1261.254	0.001	639348	TEST_PROBE	n/a	wordpools/wordpool_EN.txt	1	5	FLEA	BEE	TAIL	FLEA	8	[0, 0, 0]	-999	PAL1	1	R1112M
1261.255	3.51	639349	REC_START	n/a	n/a	1	-999	n/a	BEE	n/a	n/a	8	[0, 0, 0]	-999	PAL1	1	R1112M
1264.765	1.499	641103	REC_EVENT	3510	n/a	1	5	FLEA	BEE	TAIL	FLEA	8	[0, 0, 0]	-999	PAL1	1	R1112M
1266.264	0.008	641853	REC_END	n/a	n/a	1	-999	n/a	n/a	n/a	n/a	8	[0, 0, 0]	-999	PAL1	1	R1112M
1266.272	1.033	641857	TEST_ORIENT	n/a	n/a	4	6	DART	n/a	HOOF	DART	8	[0, 0, 0]	-999	PAL1	1	R1112M
1267.305	0.001	642373	TEST_PROBE	n/a	wordpools/wordpool_EN.txt	4	6	DART	n/a	HOOF	DART	8	[0, 0, 0]	-999	PAL1	1	R1112M
1267.306	5.008	642374	REC_START	n/a	n/a	4	-999	n/a	n/a	n/a	n/a	8	[0, 0, 0]	-999	PAL1	1	R1112M
1272.314	0.001	644878	REC_END	n/a	n/a	4	-999	n/a	n/a	n/a	n/a	8	[0, 0, 0]	-999	PAL1	1	R1112M
1272.315	35.873	644878	REC_EVENT	5009	n/a	4	6	DART	<>	HOOF	DART	8	[0, 0, 0]	-999	PAL1	1	R1112M
1308.188	10.444	662814	ENCODING_START	n/a	n/a	0	-999	n/a	n/a	n/a	n/a	9	[0, 0, 0]	-999	PAL1	1	R1112M
1318.632	0.917	668036	STUDY_ORIENT	n/a	n/a	1	5	CROW	n/a	CROW	DRUM	9	[0, 0, 0]	-999	PAL1	1	R1112M
1319.549	5.018	668494	STUDY_PAIR	n/a	wordpools/wordpool_EN.txt	1	5	CROW	n/a	CROW	DRUM	9	[0, 0, 0]	-999	PAL1	1	R1112M
1324.567	0.9	671003	STUDY_ORIENT	n/a	n/a	2	4	SKUNK	n/a	SKUNK	OWL	9	[0, 0, 0]	-999	PAL1	1	R1112M
1325.467	5.034	671453	STUDY_PAIR	n/a	wordpools/wordpool_EN.txt	2	4	SKUNK	n/a	SKUNK	OWL	9	[0, 0, 0]	-999	PAL1	1	R1112M
1330.501	0.851	673970	STUDY_ORIENT	n/a	n/a	3	1	SHOE	n/a	STRAW	SHOE	9	[0, 0, 0]	-999	PAL1	1	R1112M
1331.352	5.018	674395	STUDY_PAIR	n/a	wordpools/wordpool_EN.txt	3	1	SHOE	n/a	STRAW	SHOE	9	[0, 0, 0]	-999	PAL1	1	R1112M
1336.37	0.849	676904	STUDY_ORIENT	n/a	n/a	4	2	GEESE	n/a	GEESE	OAK	9	[0, 0, 0]	-999	PAL1	1	R1112M
1337.219	5.018	677328	STUDY_PAIR	n/a	wordpools/wordpool_EN.txt	4	2	GEESE	n/a	GEESE	OAK	9	[0, 0, 0]	-999	PAL1	1	R1112M
1342.237	0.884	679837	STUDY_ORIENT	n/a	n/a	5	3	FILM	n/a	SCHOOL	FILM	9	[0, 0, 0]	-999	PAL1	1	R1112M
1343.121	5.034	680279	STUDY_PAIR	n/a	wordpools/wordpool_EN.txt	5	3	FILM	n/a	SCHOOL	FILM	9	[0, 0, 0]	-999	PAL1	1	R1112M
1348.155	0.767	682796	STUDY_ORIENT	n/a	n/a	6	6	TOE	n/a	TOE	TENT	9	[0, 0, 0]	-999	PAL1	1	R1112M
1348.922	4.018	683180	STUDY_PAIR	n/a	wordpools/wordpool_EN.txt	6	6	TOE	n/a	TOE	TENT	9	[0, 0, 0]	-999	PAL1	1	R1112M
1352.94	0.999	685189	START	n/a	n/a	-999	-999	n/a	n/a	n/a	n/a	9	[-999, -999, -999]	-999	PAL1	1	R1112M
1353.939	0.017	685688	MATH_START	n/a	n/a	-999	-999	n/a	n/a	n/a	n/a	9	[0, 0, 0]	-999	PAL1	1	R1112M
1353.956	77.712	685697	PROB	77712	n/a	-999	-999	n/a	n/a	n/a	n/a	9	[6, 6, 8]	20	PAL1	1	R1112M
1431.668	0.003	724550	STOP	n/a	n/a	-999	-999	n/a	n/a	n/a	n/a	9	[-999, -999, -999]	-999	PAL1	1	R1112M
1431.671	0.0	724552	MATH_END	n/a	n/a	-999	-999	n/a	n/a	n/a	n/a	9	[0, 0, 0]	-999	PAL1	1	R1112M
1431.671	0.017	724552	TEST_START	n/a	n/a	-999	-999	n/a	n/a	n/a	n/a	9	[0, 0, 0]	-999	PAL1	1	R1112M
1431.688	0.8	724560	TEST_ORIENT	n/a	n/a	3	1	SHOE	n/a	STRAW	SHOE	9	[0, 0, 0]	-999	PAL1	1	R1112M
1432.488	0.001	724960	TEST_PROBE	n/a	wordpools/wordpool_EN.txt	3	1	SHOE	n/a	STRAW	SHOE	9	[0, 0, 0]	-999	PAL1	1	R1112M
1432.489	5.009	724961	REC_START	n/a	n/a	3	-999	n/a	n/a	n/a	n/a	9	[0, 0, 0]	-999	PAL1	1	R1112M
1437.498	0.001	727465	REC_EVENT	5009	n/a	3	1	SHOE	<>	STRAW	SHOE	9	[0, 0, 0]	-999	PAL1	1	R1112M
1437.499	0.007	727466	REC_END	n/a	n/a	3	-999	n/a	n/a	n/a	n/a	9	[0, 0, 0]	-999	PAL1	1	R1112M
1437.506	0.901	727469	TEST_ORIENT	n/a	n/a	4	2	GEESE	n/a	GEESE	OAK	9	[0, 0, 0]	-999	PAL1	1	R1112M
1438.407	0.001	727920	TEST_PROBE	n/a	wordpools/wordpool_EN.txt	4	2	GEESE	n/a	GEESE	OAK	9	[0, 0, 0]	-999	PAL1	1	R1112M
1438.408	5.008	727920	REC_START	n/a	n/a	4	-999	n/a	n/a	n/a	n/a	9	[0, 0, 0]	-999	PAL1	1	R1112M
1443.416	0.001	730424	REC_END	n/a	n/a	4	-999	n/a	n/a	n/a	n/a	9	[0, 0, 0]	-999	PAL1	1	R1112M
1443.417	0.008	730425	REC_EVENT	5009	n/a	4	2	GEESE	<>	GEESE	OAK	9	[0, 0, 0]	-999	PAL1	1	R1112M
1443.425	1.033	730429	TEST_ORIENT	n/a	n/a	5	3	FILM	n/a	SCHOOL	FILM	9	[0, 0, 0]	-999	PAL1	1	R1112M
1444.458	0.0	730945	REC_START	n/a	n/a	5	-999	n/a	n/a	n/a	n/a	9	[0, 0, 0]	-999	PAL1	1	R1112M
1444.458	5.015	730945	TEST_PROBE	n/a	wordpools/wordpool_EN.txt	5	3	FILM	n/a	SCHOOL	FILM	9	[0, 0, 0]	-999	PAL1	1	R1112M
1449.473	0.002	733452	REC_EVENT	5015	n/a	5	3	FILM	<>	SCHOOL	FILM	9	[0, 0, 0]	-999	PAL1	1	R1112M
1449.475	0.017	733453	REC_END	n/a	n/a	5	-999	n/a	n/a	n/a	n/a	9	[0, 0, 0]	-999	PAL1	1	R1112M
1449.492	0.884	733462	TEST_ORIENT	n/a	n/a	2	4	SKUNK	n/a	SKUNK	OWL	9	[0, 0, 0]	-999	PAL1	1	R1112M
1450.376	0.001	733904	TEST_PROBE	n/a	wordpools/wordpool_EN.txt	2	4	SKUNK	n/a	SKUNK	OWL	9	[0, 0, 0]	-999	PAL1	1	R1112M
1450.377	5.008	733904	REC_START	n/a	n/a	2	-999	n/a	n/a	n/a	n/a	9	[0, 0, 0]	-999	PAL1	1	R1112M
1455.385	0.001	736408	REC_END	n/a	n/a	2	-999	n/a	n/a	n/a	n/a	9	[0, 0, 0]	-999	PAL1	1	R1112M
1455.386	0.008	736409	REC_EVENT	5009	n/a	2	4	SKUNK	<>	SKUNK	OWL	9	[0, 0, 0]	-999	PAL1	1	R1112M
1455.394	0.899	736413	TEST_ORIENT	n/a	n/a	1	5	CROW	n/a	CROW	DRUM	9	[0, 0, 0]	-999	PAL1	1	R1112M
1456.293	0.001	736862	TEST_PROBE	n/a	wordpools/wordpool_EN.txt	1	5	CROW	n/a	CROW	DRUM	9	[0, 0, 0]	-999	PAL1	1	R1112M
1456.294	5.026	736863	REC_START	n/a	n/a	1	-999	n/a	n/a	n/a	n/a	9	[0, 0, 0]	-999	PAL1	1	R1112M
1461.32	0.001	739376	REC_END	n/a	n/a	1	-999	n/a	n/a	n/a	n/a	9	[0, 0, 0]	-999	PAL1	1	R1112M
1461.321	0.006	739376	REC_EVENT	5027	n/a	1	5	CROW	<>	CROW	DRUM	9	[0, 0, 0]	-999	PAL1	1	R1112M
1461.327	1.018	739379	TEST_ORIENT	n/a	n/a	6	6	TOE	n/a	TOE	TENT	9	[0, 0, 0]	-999	PAL1	1	R1112M
1462.345	0.001	739888	TEST_PROBE	n/a	wordpools/wordpool_EN.txt	6	6	TOE	n/a	TOE	TENT	9	[0, 0, 0]	-999	PAL1	1	R1112M
1462.346	4.998	739889	REC_START	n/a	n/a	6	-999	n/a	n/a	n/a	n/a	9	[0, 0, 0]	-999	PAL1	1	R1112M
1467.344	0.002	742387	REC_EVENT	4998	n/a	6	6	TOE	<>	TOE	TENT	9	[0, 0, 0]	-999	PAL1	1	R1112M
1467.346	481.674	742388	REC_END	n/a	n/a	6	-999	n/a	n/a	n/a	n/a	9	[0, 0, 0]	-999	PAL1	1	R1112M
1949.02	10.44	983212	ENCODING_START	n/a	n/a	0	-999	n/a	n/a	n/a	n/a	10	[0, 0, 0]	-999	PAL1	1	R1112M
1959.46	0.8	988432	STUDY_ORIENT	n/a	n/a	1	1	CHAIR	n/a	BREAD	CHAIR	10	[0, 0, 0]	-999	PAL1	1	R1112M
1960.26	5.018	988832	STUDY_PAIR	n/a	wordpools/wordpool_EN.txt	1	1	CHAIR	n/a	BREAD	CHAIR	10	[0, 0, 0]	-999	PAL1	1	R1112M
1965.278	0.85	991341	STUDY_ORIENT	n/a	n/a	2	2	STORM	n/a	SPARK	STORM	10	[0, 0, 0]	-999	PAL1	1	R1112M
1966.128	5.034	991766	STUDY_PAIR	n/a	wordpools/wordpool_EN.txt	2	2	STORM	n/a	SPARK	STORM	10	[0, 0, 0]	-999	PAL1	1	R1112M
1971.162	0.984	994283	STUDY_ORIENT	n/a	n/a	3	5	VEST	n/a	VEST	DITCH	10	[0, 0, 0]	-999	PAL1	1	R1112M
1972.146	5.034	994774	STUDY_PAIR	n/a	wordpools/wordpool_EN.txt	3	5	VEST	n/a	VEST	DITCH	10	[0, 0, 0]	-999	PAL1	1	R1112M
1977.18	0.884	997291	STUDY_ORIENT	n/a	n/a	4	6	PEA	n/a	COW	PEA	10	[0, 0, 0]	-999	PAL1	1	R1112M
1978.064	5.034	997733	STUDY_PAIR	n/a	wordpools/wordpool_EN.txt	4	6	PEA	n/a	COW	PEA	10	[0, 0, 0]	-999	PAL1	1	R1112M
1983.098	0.8	1000250	STUDY_ORIENT	n/a	n/a	5	3	CROWN	n/a	PIG	CROWN	10	[0, 0, 0]	-999	PAL1	1	R1112M
1983.898	5.018	1000650	STUDY_PAIR	n/a	wordpools/wordpool_EN.txt	5	3	CROWN	n/a	PIG	CROWN	10	[0, 0, 0]	-999	PAL1	1	R1112M
1988.916	0.9	1003159	STUDY_ORIENT	n/a	n/a	6	4	KEY	n/a	SPONGE	KEY	10	[0, 0, 0]	-999	PAL1	1	R1112M
1989.816	4.002	1003609	STUDY_PAIR	n/a	wordpools/wordpool_EN.txt	6	4	KEY	n/a	SPONGE	KEY	10	[0, 0, 0]	-999	PAL1	1	R1112M
1993.818	0.999	1005610	START	n/a	n/a	-999	-999	n/a	n/a	n/a	n/a	10	[-999, -999, -999]	-999	PAL1	1	R1112M
1994.817	0.017	1006109	MATH_START	n/a	n/a	-999	-999	n/a	n/a	n/a	n/a	10	[0, 0, 0]	-999	PAL1	1	R1112M
1994.834	1071.442	1006118	PROB	1071442	n/a	-999	-999	n/a	n/a	n/a	n/a	10	[4, 1, 6]	9	PAL1	1	R1112M
3066.276	0.005	1541809	STOP	n/a	n/a	-999	-999	n/a	n/a	n/a	n/a	10	[-999, -999, -999]	-999	PAL1	1	R1112M
3066.281	0.0	1541812	MATH_END	n/a	n/a	-999	-999	n/a	n/a	n/a	n/a	10	[0, 0, 0]	-999	PAL1	1	R1112M
3066.281	0.016	1541812	TEST_START	n/a	n/a	-999	-999	n/a	n/a	n/a	n/a	10	[0, 0, 0]	-999	PAL1	1	R1112M
3066.297	1.001	1541820	TEST_ORIENT	n/a	n/a	1	1	CHAIR	n/a	BREAD	CHAIR	10	[0, 0, 0]	-999	PAL1	1	R1112M
3067.298	0.0	1542320	TEST_PROBE	n/a	wordpools/wordpool_EN.txt	1	1	CHAIR	n/a	BREAD	CHAIR	10	[0, 0, 0]	-999	PAL1	1	R1112M
3067.298	5.015	1542320	REC_START	n/a	n/a	1	-999	n/a	n/a	n/a	n/a	10	[0, 0, 0]	-999	PAL1	1	R1112M
3072.313	0.002	1544828	REC_EVENT	5015	n/a	1	1	CHAIR	<>	BREAD	CHAIR	10	[0, 0, 0]	-999	PAL1	1	R1112M
3072.315	0.017	1544829	REC_END	n/a	n/a	1	-999	n/a	n/a	n/a	n/a	10	[0, 0, 0]	-999	PAL1	1	R1112M
3072.332	0.883	1544837	TEST_ORIENT	n/a	n/a	2	2	STORM	n/a	SPARK	STORM	10	[0, 0, 0]	-999	PAL1	1	R1112M
3073.215	0.0	1545279	TEST_PROBE	n/a	wordpools/wordpool_EN.txt	2	2	STORM	n/a	SPARK	STORM	10	[0, 0, 0]	-999	PAL1	1	R1112M
3073.215	4.998	1545279	REC_START	n/a	n/a	2	-999	n/a	n/a	n/a	n/a	10	[0, 0, 0]	-999	PAL1	1	R1112M
3078.213	0.003	1547777	REC_EVENT	4998	n/a	2	2	STORM	<>	SPARK	STORM	10	[0, 0, 0]	-999	PAL1	1	R1112M
3078.216	0.017	1547779	REC_END	n/a	n/a	2	-999	n/a	n/a	n/a	n/a	10	[0, 0, 0]	-999	PAL1	1	R1112M
3078.233	0.85	1547787	TEST_ORIENT	n/a	n/a	5	3	CROWN	n/a	PIG	CROWN	10	[0, 0, 0]	-999	PAL1	1	R1112M
3079.083	0.001	1548212	TEST_PROBE	n/a	wordpools/wordpool_EN.txt	5	3	CROWN	n/a	PIG	CROWN	10	[0, 0, 0]	-999	PAL1	1	R1112M
3079.084	5.009	1548213	REC_START	n/a	n/a	5	-999	n/a	n/a	n/a	n/a	10	[0, 0, 0]	-999	PAL1	1	R1112M
3084.093	0.001	1550717	REC_EVENT	5009	n/a	5	3	CROWN	<>	PIG	CROWN	10	[0, 0, 0]	-999	PAL1	1	R1112M
3084.094	0.007	1550718	REC_END	n/a	n/a	5	-999	n/a	n/a	n/a	n/a	10	[0, 0, 0]	-999	PAL1	1	R1112M
3084.101	0.833	1550721	TEST_ORIENT	n/a	n/a	6	4	KEY	n/a	SPONGE	KEY	10	[0, 0, 0]	-999	PAL1	1	R1112M
3084.934	0.001	1551138	TEST_PROBE	n/a	wordpools/wordpool_EN.txt	6	4	KEY	n/a	SPONGE	KEY	10	[0, 0, 0]	-999	PAL1	1	R1112M
3084.935	5.009	1551138	REC_START	n/a	n/a	6	-999	n/a	n/a	n/a	n/a	10	[0, 0, 0]	-999	PAL1	1	R1112M
3089.944	0.0	1553643	REC_EVENT	5009	n/a	6	4	KEY	<>	SPONGE	KEY	10	[0, 0, 0]	-999	PAL1	1	R1112M
3089.944	0.008	1553643	REC_END	n/a	n/a	6	-999	n/a	n/a	n/a	n/a	10	[0, 0, 0]	-999	PAL1	1	R1112M
3089.952	0.917	1553647	TEST_ORIENT	n/a	n/a	3	5	VEST	n/a	VEST	DITCH	10	[0, 0, 0]	-999	PAL1	1	R1112M
3090.869	0.0	1554105	TEST_PROBE	n/a	wordpools/wordpool_EN.txt	3	5	VEST	n/a	VEST	DITCH	10	[0, 0, 0]	-999	PAL1	1	R1112M
3090.869	5.015	1554105	REC_START	n/a	n/a	3	-999	n/a	n/a	n/a	n/a	10	[0, 0, 0]	-999	PAL1	1	R1112M
3095.884	0.002	1556612	REC_EVENT	5015	n/a	3	5	VEST	<>	VEST	DITCH	10	[0, 0, 0]	-999	PAL1	1	R1112M
3095.886	0.017	1556613	REC_END	n/a	n/a	3	-999	n/a	n/a	n/a	n/a	10	[0, 0, 0]	-999	PAL1	1	R1112M
3095.903	0.917	1556622	TEST_ORIENT	n/a	n/a	4	6	PEA	n/a	COW	PEA	10	[0, 0, 0]	-999	PAL1	1	R1112M
3096.82	0.0	1557080	TEST_PROBE	n/a	wordpools/wordpool_EN.txt	4	6	PEA	n/a	COW	PEA	10	[0, 0, 0]	-999	PAL1	1	R1112M
3096.82	5.015	1557080	REC_START	n/a	n/a	4	-999	n/a	n/a	n/a	n/a	10	[0, 0, 0]	-999	PAL1	1	R1112M
3101.835	0.002	1559588	REC_EVENT	5015	n/a	4	6	PEA	<>	COW	PEA	10	[0, 0, 0]	-999	PAL1	1	R1112M
3101.837	13.319	1559589	REC_END	n/a	n/a	4	-999	n/a	n/a	n/a	n/a	10	[0, 0, 0]	-999	PAL1	1	R1112M
3115.156	10.453	1566248	ENCODING_START	n/a	n/a	0	-999	n/a	n/a	n/a	n/a	11	[0, 0, 0]	-999	PAL1	1	R1112M
3125.609	0.9	1571474	STUDY_ORIENT	n/a	n/a	1	5	BAG	n/a	JUICE	BAG	11	[0, 0, 0]	-999	PAL1	1	R1112M
3126.509	5.018	1571924	STUDY_PAIR	n/a	wordpools/wordpool_EN.txt	1	5	BAG	n/a	JUICE	BAG	11	[0, 0, 0]	-999	PAL1	1	R1112M
3131.527	0.868	1574433	STUDY_ORIENT	n/a	n/a	2	6	GATE	n/a	GATE	JUDGE	11	[0, 0, 0]	-999	PAL1	1	R1112M
3132.395	5.034	1574867	STUDY_PAIR	n/a	wordpools/wordpool_EN.txt	2	6	GATE	n/a	GATE	JUDGE	11	[0, 0, 0]	-999	PAL1	1	R1112M
3137.429	0.866	1577384	STUDY_ORIENT	n/a	n/a	3	1	ROPE	n/a	ROPE	DOG	11	[0, 0, 0]	-999	PAL1	1	R1112M
3138.295	5.034	1577817	STUDY_PAIR	n/a	wordpools/wordpool_EN.txt	3	1	ROPE	n/a	ROPE	DOG	11	[0, 0, 0]	-999	PAL1	1	R1112M
3143.329	0.784	1580334	STUDY_ORIENT	n/a	n/a	4	2	CHIN	n/a	LAND	CHIN	11	[0, 0, 0]	-999	PAL1	1	R1112M
3144.113	5.034	1580726	STUDY_PAIR	n/a	wordpools/wordpool_EN.txt	4	2	CHIN	n/a	LAND	CHIN	11	[0, 0, 0]	-999	PAL1	1	R1112M
3149.147	0.884	1583243	STUDY_ORIENT	n/a	n/a	5	3	STONE	n/a	FAN	STONE	11	[0, 0, 0]	-999	PAL1	1	R1112M
3150.031	5.034	1583684	STUDY_PAIR	n/a	wordpools/wordpool_EN.txt	5	3	STONE	n/a	FAN	STONE	11	[0, 0, 0]	-999	PAL1	1	R1112M
3155.065	0.884	1586201	STUDY_ORIENT	n/a	n/a	6	4	BEAR	n/a	BEAR	DEER	11	[0, 0, 0]	-999	PAL1	1	R1112M
3155.949	4.017	1586643	STUDY_PAIR	n/a	wordpools/wordpool_EN.txt	6	4	BEAR	n/a	BEAR	DEER	11	[0, 0, 0]	-999	PAL1	1	R1112M
3159.966	1.0	1588652	START	n/a	n/a	-999	-999	n/a	n/a	n/a	n/a	11	[-999, -999, -999]	-999	PAL1	1	R1112M
3160.966	0.017	1589152	MATH_START	n/a	n/a	-999	-999	n/a	n/a	n/a	n/a	11	[0, 0, 0]	-999	PAL1	1	R1112M
3160.983	13.936	1589160	PROB	13909	n/a	-999	-999	n/a	n/a	n/a	n/a	11	[3, 5, 1]	9	PAL1	1	R1112M
3174.919	14.494	1596128	PROB	14494	n/a	-999	-999	n/a	n/a	n/a	n/a	11	[6, 2, 3]	11	PAL1	1	R1112M
3189.413	0.01	1603374	STOP	n/a	n/a	-999	-999	n/a	n/a	n/a	n/a	11	[-999, -999, -999]	-999	PAL1	1	R1112M
3189.423	0.0	1603379	MATH_END	n/a	n/a	-999	-999	n/a	n/a	n/a	n/a	11	[0, 0, 0]	-999	PAL1	1	R1112M
3189.423	0.017	1603379	TEST_START	n/a	n/a	-999	-999	n/a	n/a	n/a	n/a	11	[0, 0, 0]	-999	PAL1	1	R1112M
3189.44	0.815	1603388	TEST_ORIENT	n/a	n/a	3	1	ROPE	n/a	ROPE	DOG	11	[0, 0, 0]	-999	PAL1	1	R1112M
3190.255	0.001	1603795	TEST_PROBE	n/a	wordpools/wordpool_EN.txt	3	1	ROPE	n/a	ROPE	DOG	11	[0, 0, 0]	-999	PAL1	1	R1112M
3190.256	4.998	1603796	REC_START	n/a	n/a	3	-999	n/a	n/a	n/a	n/a	11	[0, 0, 0]	-999	PAL1	1	R1112M
3195.254	0.002	1606295	REC_EVENT	4998	n/a	3	1	ROPE	<>	ROPE	DOG	11	[0, 0, 0]	-999	PAL1	1	R1112M
3195.256	0.017	1606296	REC_END	n/a	n/a	3	-999	n/a	n/a	n/a	n/a	11	[0, 0, 0]	-999	PAL1	1	R1112M
3195.273	1.0	1606304	TEST_ORIENT	n/a	n/a	4	2	CHIN	n/a	LAND	CHIN	11	[0, 0, 0]	-999	PAL1	1	R1112M
3196.273	0.001	1606804	TEST_PROBE	n/a	wordpools/wordpool_EN.txt	4	2	CHIN	n/a	LAND	CHIN	11	[0, 0, 0]	-999	PAL1	1	R1112M
3196.274	4.998	1606805	REC_START	n/a	n/a	4	-999	n/a	n/a	n/a	n/a	11	[0, 0, 0]	-999	PAL1	1	R1112M
3201.272	0.002	1609304	REC_EVENT	4998	n/a	4	2	CHIN	<>	LAND	CHIN	11	[0, 0, 0]	-999	PAL1	1	R1112M
3201.274	0.017	1609305	REC_END	n/a	n/a	4	-999	n/a	n/a	n/a	n/a	11	[0, 0, 0]	-999	PAL1	1	R1112M
3201.291	0.917	1609313	TEST_ORIENT	n/a	n/a	5	3	STONE	n/a	FAN	STONE	11	[0, 0, 0]	-999	PAL1	1	R1112M
3202.208	0.0	1609772	TEST_PROBE	n/a	wordpools/wordpool_EN.txt	5	3	STONE	n/a	FAN	STONE	11	[0, 0, 0]	-999	PAL1	1	R1112M
3202.208	5.026	1609772	REC_START	n/a	n/a	5	-999	n/a	n/a	n/a	n/a	11	[0, 0, 0]	-999	PAL1	1	R1112M
3207.234	0.001	1612284	REC_END	n/a	n/a	5	-999	n/a	n/a	n/a	n/a	11	[0, 0, 0]	-999	PAL1	1	R1112M
3207.235	0.007	1612285	REC_EVENT	5027	n/a	5	3	STONE	<>	FAN	STONE	11	[0, 0, 0]	-999	PAL1	1	R1112M
3207.242	0.967	1612288	TEST_ORIENT	n/a	n/a	6	4	BEAR	n/a	BEAR	DEER	11	[0, 0, 0]	-999	PAL1	1	R1112M
3208.209	0.001	1612772	TEST_PROBE	n/a	wordpools/wordpool_EN.txt	6	4	BEAR	n/a	BEAR	DEER	11	[0, 0, 0]	-999	PAL1	1	R1112M
3208.21	5.015	1612772	REC_START	n/a	n/a	6	-999	n/a	n/a	n/a	n/a	11	[0, 0, 0]	-999	PAL1	1	R1112M
3213.225	0.001	1615280	REC_EVENT	5015	n/a	6	4	BEAR	<>	BEAR	DEER	11	[0, 0, 0]	-999	PAL1	1	R1112M
3213.226	0.017	1615280	REC_END	n/a	n/a	6	-999	n/a	n/a	n/a	n/a	11	[0, 0, 0]	-999	PAL1	1	R1112M
3213.243	0.967	1615289	TEST_ORIENT	n/a	n/a	1	5	BAG	n/a	JUICE	BAG	11	[0, 0, 0]	-999	PAL1	1	R1112M
3214.21	0.001	1615772	TEST_PROBE	n/a	wordpools/wordpool_EN.txt	1	5	BAG	n/a	JUICE	BAG	11	[0, 0, 0]	-999	PAL1	1	R1112M
3214.211	4.998	1615773	REC_START	n/a	n/a	1	-999	n/a	n/a	n/a	n/a	11	[0, 0, 0]	-999	PAL1	1	R1112M
3219.209	0.002	1618272	REC_EVENT	4998	n/a	1	5	BAG	<>	JUICE	BAG	11	[0, 0, 0]	-999	PAL1	1	R1112M
3219.211	0.017	1618273	REC_END	n/a	n/a	1	-999	n/a	n/a	n/a	n/a	11	[0, 0, 0]	-999	PAL1	1	R1112M
3219.228	0.817	1618281	TEST_ORIENT	n/a	n/a	2	6	GATE	n/a	GATE	JUDGE	11	[0, 0, 0]	-999	PAL1	1	R1112M
3220.045	0.0	1618690	TEST_PROBE	n/a	wordpools/wordpool_EN.txt	2	6	GATE	n/a	GATE	JUDGE	11	[0, 0, 0]	-999	PAL1	1	R1112M
3220.045	5.021	1618690	REC_START	n/a	n/a	2	-999	n/a	n/a	n/a	n/a	11	[0, 0, 0]	-999	PAL1	1	R1112M
3225.066	0.004	1621200	REC_EVENT	5021	n/a	2	6	GATE	<>	GATE	JUDGE	11	[0, 0, 0]	-999	PAL1	1	R1112M
3225.07	20.766	1621202	REC_END	n/a	n/a	2	-999	n/a	n/a	n/a	n/a	11	[0, 0, 0]	-999	PAL1	1	R1112M
3245.836	10.449	1631584	ENCODING_START	n/a	n/a	0	-999	n/a	n/a	n/a	n/a	12	[0, 0, 0]	-999	PAL1	1	R1112M
3256.285	0.9	1636809	STUDY_ORIENT	n/a	n/a	1	3	BOOK	n/a	BOOK	DOOR	12	[0, 0, 0]	-999	PAL1	1	R1112M
3257.185	5.018	1637259	STUDY_PAIR	n/a	wordpools/wordpool_EN.txt	1	3	BOOK	n/a	BOOK	DOOR	12	[0, 0, 0]	-999	PAL1	1	R1112M
3262.203	0.984	1639767	STUDY_ORIENT	n/a	n/a	2	2	OAR	n/a	WOOD	OAR	12	[0, 0, 0]	-999	PAL1	1	R1112M
3263.187	5.034	1640259	STUDY_PAIR	n/a	wordpools/wordpool_EN.txt	2	2	OAR	n/a	WOOD	OAR	12	[0, 0, 0]	-999	PAL1	1	R1112M
3268.221	0.917	1642776	STUDY_ORIENT	n/a	n/a	3	5	SALT	n/a	SALT	PHONE	12	[0, 0, 0]	-999	PAL1	1	R1112M
3269.138	5.034	1643235	STUDY_PAIR	n/a	wordpools/wordpool_EN.txt	3	5	SALT	n/a	SALT	PHONE	12	[0, 0, 0]	-999	PAL1	1	R1112M
3274.172	0.8	1645752	STUDY_ORIENT	n/a	n/a	4	6	ROOM	n/a	ROOM	FACE	12	[0, 0, 0]	-999	PAL1	1	R1112M
3274.972	5.018	1646152	STUDY_PAIR	n/a	wordpools/wordpool_EN.txt	4	6	ROOM	n/a	ROOM	FACE	12	[0, 0, 0]	-999	PAL1	1	R1112M
3279.99	0.933	1648660	STUDY_ORIENT	n/a	n/a	5	1	CAVE	n/a	TEETH	CAVE	12	[0, 0, 0]	-999	PAL1	1	R1112M
3280.923	5.018	1649127	STUDY_PAIR	n/a	wordpools/wordpool_EN.txt	5	1	CAVE	n/a	TEETH	CAVE	12	[0, 0, 0]	-999	PAL1	1	R1112M
3285.941	0.934	1651636	STUDY_ORIENT	n/a	n/a	6	4	SPEAR	n/a	NAIL	SPEAR	12	[0, 0, 0]	-999	PAL1	1	R1112M
3286.875	4.018	1652103	STUDY_PAIR	n/a	wordpools/wordpool_EN.txt	6	4	SPEAR	n/a	NAIL	SPEAR	12	[0, 0, 0]	-999	PAL1	1	R1112M
3290.893	0.999	1654112	START	n/a	n/a	-999	-999	n/a	n/a	n/a	n/a	12	[-999, -999, -999]	-999	PAL1	1	R1112M
3291.892	0.017	1654611	MATH_START	n/a	n/a	-999	-999	n/a	n/a	n/a	n/a	12	[0, 0, 0]	-999	PAL1	1	R1112M
3291.909	25.879	1654620	PROB	25879	n/a	-999	-999	n/a	n/a	n/a	n/a	12	[3, 6, 7]	16	PAL1	1	R1112M
3317.788	0.009	1667558	STOP	n/a	n/a	-999	-999	n/a	n/a	n/a	n/a	12	[-999, -999, -999]	-999	PAL1	1	R1112M
3317.797	0.0	1667563	MATH_END	n/a	n/a	-999	-999	n/a	n/a	n/a	n/a	12	[0, 0, 0]	-999	PAL1	1	R1112M
3317.797	0.017	1667563	TEST_START	n/a	n/a	-999	-999	n/a	n/a	n/a	n/a	12	[0, 0, 0]	-999	PAL1	1	R1112M
3317.814	1.034	1667571	TEST_ORIENT	n/a	n/a	5	1	CAVE	n/a	TEETH	CAVE	12	[0, 0, 0]	-999	PAL1	1	R1112M
3318.848	0.0	1668088	TEST_PROBE	n/a	wordpools/wordpool_EN.txt	5	1	CAVE	n/a	TEETH	CAVE	12	[0, 0, 0]	-999	PAL1	1	R1112M
3318.848	5.015	1668088	REC_START	n/a	n/a	5	-999	n/a	n/a	n/a	n/a	12	[0, 0, 0]	-999	PAL1	1	R1112M
3323.863	0.002	1670596	REC_EVENT	5015	n/a	5	1	CAVE	<>	TEETH	CAVE	12	[0, 0, 0]	-999	PAL1	1	R1112M
3323.865	0.017	1670597	REC_END	n/a	n/a	5	-999	n/a	n/a	n/a	n/a	12	[0, 0, 0]	-999	PAL1	1	R1112M
3323.882	1.0	1670605	TEST_ORIENT	n/a	n/a	2	2	OAR	n/a	WOOD	OAR	12	[0, 0, 0]	-999	PAL1	1	R1112M
3324.882	0.001	1671105	TEST_PROBE	n/a	wordpools/wordpool_EN.txt	2	2	OAR	n/a	WOOD	OAR	12	[0, 0, 0]	-999	PAL1	1	R1112M
3324.883	5.003	1671106	REC_START	n/a	n/a	2	-999	n/a	n/a	n/a	n/a	12	[0, 0, 0]	-999	PAL1	1	R1112M
3329.886	0.006	1673607	REC_EVENT	5003	n/a	2	2	OAR	<>	WOOD	OAR	12	[0, 0, 0]	-999	PAL1	1	R1112M
3329.892	0.008	1673610	REC_END	n/a	n/a	2	-999	n/a	n/a	n/a	n/a	12	[0, 0, 0]	-999	PAL1	1	R1112M
3329.9	0.867	1673614	TEST_ORIENT	n/a	n/a	1	3	BOOK	n/a	BOOK	DOOR	12	[0, 0, 0]	-999	PAL1	1	R1112M
3330.767	0.0	1674047	REC_START	n/a	n/a	1	-999	n/a	n/a	n/a	n/a	12	[0, 0, 0]	-999	PAL1	1	R1112M
3330.767	5.015	1674047	TEST_PROBE	n/a	wordpools/wordpool_EN.txt	1	3	BOOK	n/a	BOOK	DOOR	12	[0, 0, 0]	-999	PAL1	1	R1112M
3335.782	0.002	1676555	REC_EVENT	5015	n/a	1	3	BOOK	<>	BOOK	DOOR	12	[0, 0, 0]	-999	PAL1	1	R1112M
3335.784	0.017	1676556	REC_END	n/a	n/a	1	-999	n/a	n/a	n/a	n/a	12	[0, 0, 0]	-999	PAL1	1	R1112M
3335.801	0.967	1676564	TEST_ORIENT	n/a	n/a	6	4	SPEAR	n/a	NAIL	SPEAR	12	[0, 0, 0]	-999	PAL1	1	R1112M
3336.768	0.0	1677048	TEST_PROBE	n/a	wordpools/wordpool_EN.txt	6	4	SPEAR	n/a	NAIL	SPEAR	12	[0, 0, 0]	-999	PAL1	1	R1112M
3336.768	5.015	1677048	REC_START	n/a	n/a	6	-999	n/a	n/a	n/a	n/a	12	[0, 0, 0]	-999	PAL1	1	R1112M
3341.783	0.002	1679555	REC_EVENT	5015	n/a	6	4	SPEAR	<>	NAIL	SPEAR	12	[0, 0, 0]	-999	PAL1	1	R1112M
3341.785	0.017	1679556	REC_END	n/a	n/a	6	-999	n/a	n/a	n/a	n/a	12	[0, 0, 0]	-999	PAL1	1	R1112M
3341.802	0.834	1679565	TEST_ORIENT	n/a	n/a	3	5	SALT	n/a	SALT	PHONE	12	[0, 0, 0]	-999	PAL1	1	R1112M
3342.636	0.0	1679982	TEST_PROBE	n/a	wordpools/wordpool_EN.txt	3	5	SALT	n/a	SALT	PHONE	12	[0, 0, 0]	-999	PAL1	1	R1112M
3342.636	5.015	1679982	REC_START	n/a	n/a	3	-999	n/a	n/a	n/a	n/a	12	[0, 0, 0]	-999	PAL1	1	R1112M
3347.651	0.002	1682489	REC_EVENT	5015	n/a	3	5	SALT	<>	SALT	PHONE	12	[0, 0, 0]	-999	PAL1	1	R1112M
3347.653	0.017	1682490	REC_END	n/a	n/a	3	-999	n/a	n/a	n/a	n/a	12	[0, 0, 0]	-999	PAL1	1	R1112M
3347.67	0.784	1682499	TEST_ORIENT	n/a	n/a	4	6	ROOM	n/a	ROOM	FACE	12	[0, 0, 0]	-999	PAL1	1	R1112M
3348.454	0.001	1682891	TEST_PROBE	n/a	wordpools/wordpool_EN.txt	4	6	ROOM	n/a	ROOM	FACE	12	[0, 0, 0]	-999	PAL1	1	R1112M
3348.455	4.998	1682891	REC_START	n/a	n/a	4	-999	n/a	n/a	n/a	n/a	12	[0, 0, 0]	-999	PAL1	1	R1112M
3353.453	0.002	1685390	REC_EVENT	4998	n/a	4	6	ROOM	<>	ROOM	FACE	12	[0, 0, 0]	-999	PAL1	1	R1112M
3353.455	0.0	1685391	REC_END	n/a	n/a	4	-999	n/a	n/a	n/a	n/a	12	[0, 0, 0]	-999	PAL1	1	R1112M
