onset	duration	sample	trial_type	response_time	stim_file	serialpos	probepos	probe_word	resp_word	study_1	study_2	list	test	answer	experiment	session	subject
0.0	5.057	705	INSTRUCT_START	n/a	n/a	-999	-999	n/a	n/a	n/a	n/a	-1	[0, 0, 0]	-999	PAL1	2	R1333N
5.057	1.683	5761	INSTRUCT_END	n/a	n/a	-999	-999	n/a	n/a	n/a	n/a	-1	[0, 0, 0]	-999	PAL1	2	R1333N
6.74	7.575	7444	MIC TEST_START	n/a	n/a	-999	-999	n/a	n/a	n/a	n/a	-1	[0, 0, 0]	-999	PAL1	2	R1333N
14.315	0.011	15019	MIC TEST_END	n/a	n/a	-999	-999	n/a	n/a	n/a	n/a	-1	[0, 0, 0]	-999	PAL1	2	R1333N
14.326	0.0	15030	TRIAL_START	n/a	n/a	-999	-999	n/a	n/a	n/a	n/a	-1	[0, 0, 0]	-999	PAL1	2	R1333N
14.326	0.0	15030	TRIAL	n/a	n/a	-999	-999	n/a	n/a	n/a	n/a	-1	[0, 0, 0]	-999	PAL1	2	R1333N
14.326	2.05	15030	WAITING_START	n/a	n/a	-999	-999	n/a	n/a	n/a	n/a	-1	[0, 0, 0]	-999	PAL1	2	R1333N
16.376	0.001	17080	WAITING_END	n/a	n/a	-999	-999	n/a	n/a	n/a	n/a	-1	[0, 0, 0]	-999	PAL1	2	R1333N
16.377	10.0	17081	COUNTDOWN_START	n/a	n/a	-999	-999	n/a	n/a	n/a	n/a	-1	[0, 0, 0]	-999	PAL1	2	R1333N
26.807	0.001	27511	COUNTDOWN_END	n/a	n/a	-999	-999	n/a	n/a	n/a	n/a	-1	[0, 0, 0]	-999	PAL1	2	R1333N
26.808	0.653	27512	ORIENT_START	n/a	n/a	-999	-999	n/a	n/a	n/a	n/a	-1	[0, 0, 0]	-999	PAL1	2	R1333N
27.461	0.001	28165	ORIENT_END	n/a	n/a	-999	-999	n/a	n/a	n/a	n/a	-1	[0, 0, 0]	-999	PAL1	2	R1333N
27.462	1.112	28166	ENCODING_START	n/a	n/a	-999	-999	n/a	n/a	n/a	n/a	-1	[0, 0, 0]	-999	PAL1	2	R1333N
28.574	4.0	29278	STUDY_PAIR	n/a	n/a	1	-999	n/a	WHEEL	WAGON	RING	-1	[0, 0, 0]	-999	PAL1	2	R1333N
32.612	0.741	33316	STUDY_PAIR_OFF	n/a	n/a	1	-999	n/a	WHEEL	WAGON	RING	-1	[0, 0, 0]	-999	PAL1	2	R1333N
33.353	4.0	34057	STUDY_PAIR	n/a	n/a	2	-999	n/a	n/a	CAMEL	CHEST	-1	[0, 0, 0]	-999	PAL1	2	R1333N
37.38	0.592	38084	STUDY_PAIR_OFF	n/a	n/a	2	-999	n/a	n/a	CAMEL	CHEST	-1	[0, 0, 0]	-999	PAL1	2	R1333N
37.972	4.0	38676	STUDY_PAIR	n/a	n/a	3	-999	n/a	BEAM	BEAM	FLOOD	-1	[0, 0, 0]	-999	PAL1	2	R1333N
42.013	0.626	42716	STUDY_PAIR_OFF	n/a	n/a	3	-999	n/a	BEAM	BEAM	FLOOD	-1	[0, 0, 0]	-999	PAL1	2	R1333N
42.639	4.0	43342	STUDY_PAIR	n/a	n/a	4	-999	n/a	n/a	TONGUE	IMAGE	-1	[0, 0, 0]	-999	PAL1	2	R1333N
46.663	0.524	47366	STUDY_PAIR_OFF	n/a	n/a	4	-999	n/a	n/a	TONGUE	IMAGE	-1	[0, 0, 0]	-999	PAL1	2	R1333N
47.187	4.0	47890	STUDY_PAIR	n/a	n/a	5	-999	n/a	BABY	BABY	WATCH	-1	[0, 0, 0]	-999	PAL1	2	R1333N
51.215	0.535	51918	STUDY_PAIR_OFF	n/a	n/a	5	-999	n/a	BABY	BABY	WATCH	-1	[0, 0, 0]	-999	PAL1	2	R1333N
51.75	4.0	52453	STUDY_PAIR	n/a	n/a	6	-999	n/a	RHINO	COTTON	RHINO	-1	[0, 0, 0]	-999	PAL1	2	R1333N
55.782	0.0	56485	STUDY_PAIR_OFF	n/a	n/a	6	-999	n/a	RHINO	COTTON	RHINO	-1	[0, 0, 0]	-999	PAL1	2	R1333N
55.782	0.0	56485	ENCODING_END	n/a	n/a	-999	-999	n/a	n/a	n/a	n/a	-1	[0, 0, 0]	-999	PAL1	2	R1333N
55.782	0.0	56485	MATH_START	n/a	n/a	-999	-999	n/a	n/a	n/a	n/a	-1	[0, 0, 0]	-999	PAL1	2	R1333N
55.782	0.016	56485	START	n/a	n/a	-999	-999	n/a	n/a	n/a	n/a	-1	[-999, -999, -999]	-999	PAL1	2	R1333N
55.798	4.117	56501	PROB	4095.0	n/a	-999	-999	n/a	n/a	n/a	n/a	-1	[4, 6, 1]	11	PAL1	2	R1333N
59.915	4.368	60618	PROB	4340.0	n/a	-999	-999	n/a	n/a	n/a	n/a	-1	[2, 4, 7]	13	PAL1	2	R1333N
64.283	4.101	64986	PROB	4068.0	n/a	-999	-999	n/a	n/a	n/a	n/a	-1	[8, 3, 7]	18	PAL1	2	R1333N
68.384	3.65	69087	PROB	3614.0	n/a	-999	-999	n/a	n/a	n/a	n/a	-1	[7, 9, 1]	17	PAL1	2	R1333N
72.034	4.763	72737	PROB	4763.0	n/a	-999	-999	n/a	n/a	n/a	n/a	-1	[6, 7, 3]	16	PAL1	2	R1333N
76.797	0.021	77499	STOP	n/a	n/a	-999	-999	n/a	n/a	n/a	n/a	-1	[-999, -999, -999]	-999	PAL1	2	R1333N
76.818	0.562	77520	MATH_END	n/a	n/a	-999	-999	n/a	n/a	n/a	n/a	-1	[0, 0, 0]	-999	PAL1	2	R1333N
77.38	0.006	78082	RETRIEVAL_START	n/a	n/a	-999	-999	n/a	n/a	n/a	n/a	-1	[0, 0, 0]	-999	PAL1	2	R1333N
77.386	0.283	78088	ORIENT_START	n/a	n/a	-999	-999	n/a	n/a	n/a	n/a	-1	[0, 0, 0]	-999	PAL1	2	R1333N
77.669	0.594	78371	ORIENT_END	n/a	n/a	-999	-999	n/a	n/a	n/a	n/a	-1	[0, 0, 0]	-999	PAL1	2	R1333N
78.263	0.0	78965	REC_START	n/a	n/a	3	1	FLOOD	BEAM	BEAM	FLOOD	-1	[0, 0, 0]	-999	PAL1	2	R1333N
78.263	4.0	78965	PROBE_START	n/a	n/a	3	1	FLOOD	BEAM	BEAM	FLOOD	-1	[0, 0, 0]	-999	PAL1	2	R1333N
80.79	1.497	81492	REC_EVENT	2527.0	n/a	3	1	FLOOD	BEAM	BEAM	FLOOD	-1	[0, 0, 0]	-999	PAL1	2	R1333N
82.287	1.001	82989	PROBE_END	n/a	n/a	3	1	FLOOD	n/a	BEAM	FLOOD	-1	[0, 0, 0]	-999	PAL1	2	R1333N
83.288	0.012	83990	REC_END	n/a	n/a	3	1	FLOOD	n/a	BEAM	FLOOD	-1	[0, 0, 0]	-999	PAL1	2	R1333N
83.3	0.27	84002	ORIENT_START	n/a	n/a	-999	-999	n/a	n/a	n/a	n/a	-1	[0, 0, 0]	-999	PAL1	2	R1333N
83.57	0.714	84272	ORIENT_END	n/a	n/a	-999	-999	n/a	n/a	n/a	n/a	-1	[0, 0, 0]	-999	PAL1	2	R1333N
84.284	4.0	84986	PROBE_START	n/a	n/a	6	2	COTTON	RHINO	COTTON	RHINO	-1	[0, 0, 0]	-999	PAL1	2	R1333N
84.284	2.392	84986	REC_START	n/a	n/a	6	2	COTTON	RHINO	COTTON	RHINO	-1	[0, 0, 0]	-999	PAL1	2	R1333N
86.676	1.645	87378	REC_EVENT	2392.0	n/a	6	2	COTTON	RHINO	COTTON	RHINO	-1	[0, 0, 0]	-999	PAL1	2	R1333N
88.321	1.0	89023	PROBE_END	n/a	n/a	6	2	COTTON	n/a	COTTON	RHINO	-1	[0, 0, 0]	-999	PAL1	2	R1333N
89.321	0.011	90023	REC_END	n/a	n/a	6	2	COTTON	n/a	COTTON	RHINO	-1	[0, 0, 0]	-999	PAL1	2	R1333N
89.332	0.273	90034	ORIENT_START	n/a	n/a	-999	-999	n/a	n/a	n/a	n/a	-1	[0, 0, 0]	-999	PAL1	2	R1333N
89.605	0.691	90307	ORIENT_END	n/a	n/a	-999	-999	n/a	n/a	n/a	n/a	-1	[0, 0, 0]	-999	PAL1	2	R1333N
90.296	0.001	90998	REC_START	n/a	n/a	5	3	WATCH	BABY	BABY	WATCH	-1	[0, 0, 0]	-999	PAL1	2	R1333N
90.297	4.0	90999	PROBE_START	n/a	n/a	5	3	WATCH	BABY	BABY	WATCH	-1	[0, 0, 0]	-999	PAL1	2	R1333N
92.205	2.117	92907	REC_EVENT	1908.0	n/a	5	3	WATCH	BABY	BABY	WATCH	-1	[0, 0, 0]	-999	PAL1	2	R1333N
94.322	1.001	95024	PROBE_END	n/a	n/a	5	3	WATCH	n/a	BABY	WATCH	-1	[0, 0, 0]	-999	PAL1	2	R1333N
95.323	0.012	96025	REC_END	n/a	n/a	5	3	WATCH	n/a	BABY	WATCH	-1	[0, 0, 0]	-999	PAL1	2	R1333N
95.335	0.271	96037	ORIENT_START	n/a	n/a	-999	-999	n/a	n/a	n/a	n/a	-1	[0, 0, 0]	-999	PAL1	2	R1333N
95.606	0.69	96308	ORIENT_END	n/a	n/a	-999	-999	n/a	n/a	n/a	n/a	-1	[0, 0, 0]	-999	PAL1	2	R1333N
96.296	0.0	96998	REC_START	n/a	n/a	2	4	CHEST	n/a	CAMEL	CHEST	-1	[0, 0, 0]	-999	PAL1	2	R1333N
96.296	4.0	96998	PROBE_START	n/a	n/a	2	4	CHEST	n/a	CAMEL	CHEST	-1	[0, 0, 0]	-999	PAL1	2	R1333N
100.323	1.001	101025	PROBE_END	n/a	n/a	2	4	CHEST	n/a	CAMEL	CHEST	-1	[0, 0, 0]	-999	PAL1	2	R1333N
101.324	0.011	102026	REC_END	n/a	n/a	2	4	CHEST	n/a	CAMEL	CHEST	-1	[0, 0, 0]	-999	PAL1	2	R1333N
101.335	0.272	102037	ORIENT_START	n/a	n/a	-999	-999	n/a	n/a	n/a	n/a	-1	[0, 0, 0]	-999	PAL1	2	R1333N
101.607	0.393	102309	ORIENT_END	n/a	n/a	-999	-999	n/a	n/a	n/a	n/a	-1	[0, 0, 0]	-999	PAL1	2	R1333N
102.0	0.184	102702	REC_EVENT	5704.0	n/a	2	4	CHEST	<>	CAMEL	CHEST	-1	[0, 0, 0]	-999	PAL1	2	R1333N
102.184	0.0	102886	REC_START	n/a	n/a	1	5	WAGON	WHEEL	WAGON	RING	-1	[0, 0, 0]	-999	PAL1	2	R1333N
102.184	4.0	102886	PROBE_START	n/a	n/a	1	5	WAGON	WHEEL	WAGON	RING	-1	[0, 0, 0]	-999	PAL1	2	R1333N
104.061	2.146	104763	REC_EVENT	1877.0	n/a	1	5	WAGON	WHEEL	WAGON	RING	-1	[0, 0, 0]	-999	PAL1	2	R1333N
106.207	0.999	106909	PROBE_END	n/a	n/a	1	5	WAGON	n/a	WAGON	RING	-1	[0, 0, 0]	-999	PAL1	2	R1333N
107.206	0.012	107908	REC_END	n/a	n/a	1	5	WAGON	n/a	WAGON	RING	-1	[0, 0, 0]	-999	PAL1	2	R1333N
107.218	0.273	107920	ORIENT_START	n/a	n/a	-999	-999	n/a	n/a	n/a	n/a	-1	[0, 0, 0]	-999	PAL1	2	R1333N
107.491	0.749	108193	ORIENT_END	n/a	n/a	-999	-999	n/a	n/a	n/a	n/a	-1	[0, 0, 0]	-999	PAL1	2	R1333N
108.24	4.0	108942	PROBE_START	n/a	n/a	4	6	TONGUE	n/a	TONGUE	IMAGE	-1	[0, 0, 0]	-999	PAL1	2	R1333N
108.24	3.008	108942	REC_START	n/a	n/a	4	6	TONGUE	n/a	TONGUE	IMAGE	-1	[0, 0, 0]	-999	PAL1	2	R1333N
111.248	1.027	111950	REC_EVENT	3008.0	n/a	4	6	TONGUE	<>	TONGUE	IMAGE	-1	[0, 0, 0]	-999	PAL1	2	R1333N
112.275	1.001	112977	PROBE_END	n/a	n/a	4	6	TONGUE	n/a	TONGUE	IMAGE	-1	[0, 0, 0]	-999	PAL1	2	R1333N
113.276	0.006	113978	REC_END	n/a	n/a	4	6	TONGUE	n/a	TONGUE	IMAGE	-1	[0, 0, 0]	-999	PAL1	2	R1333N
113.282	0.0	113984	RETRIEVAL_END	n/a	n/a	-999	-999	n/a	n/a	n/a	n/a	-1	[0, 0, 0]	-999	PAL1	2	R1333N
113.282	4.078	113984	PRACTICE_POST_INSTRUCT_START	n/a	n/a	-999	-999	n/a	n/a	n/a	n/a	-1	[0, 0, 0]	-999	PAL1	2	R1333N
117.36	0.0	118061	PRACTICE_POST_INSTRUCT_END	n/a	n/a	-999	-999	n/a	n/a	n/a	n/a	-1	[0, 0, 0]	-999	PAL1	2	R1333N
117.36	0.024	118061	TRIAL_END	n/a	n/a	-999	-999	n/a	n/a	n/a	n/a	-1	[0, 0, 0]	-999	PAL1	2	R1333N
117.384	0.001	118085	TRIAL_START	n/a	n/a	-999	-999	n/a	n/a	n/a	n/a	-1	[0, 0, 0]	-999	PAL1	2	R1333N
117.385	0.0	118086	TRIAL	n/a	n/a	-999	-999	n/a	n/a	n/a	n/a	1	[0, 0, 0]	-999	PAL1	2	R1333N
117.385	2.041	118086	WAITING_START	n/a	n/a	-999	-999	n/a	n/a	n/a	n/a	1	[0, 0, 0]	-999	PAL1	2	R1333N
119.426	0.001	120127	WAITING_END	n/a	n/a	-999	-999	n/a	n/a	n/a	n/a	1	[0, 0, 0]	-999	PAL1	2	R1333N
119.427	10.0	120128	COUNTDOWN_START	n/a	n/a	-999	-999	n/a	n/a	n/a	n/a	1	[0, 0, 0]	-999	PAL1	2	R1333N
129.857	0.0	130558	COUNTDOWN_END	n/a	n/a	-999	-999	n/a	n/a	n/a	n/a	1	[0, 0, 0]	-999	PAL1	2	R1333N
129.857	0.538	130558	ORIENT_START	n/a	n/a	-999	-999	n/a	n/a	n/a	n/a	1	[0, 0, 0]	-999	PAL1	2	R1333N
130.395	0.001	131096	ORIENT_END	n/a	n/a	-999	-999	n/a	n/a	n/a	n/a	1	[0, 0, 0]	-999	PAL1	2	R1333N
130.396	1.088	131097	ENCODING_START	n/a	n/a	-999	-999	n/a	n/a	n/a	n/a	1	[0, 0, 0]	-999	PAL1	2	R1333N
131.484	4.0	132185	STUDY_PAIR	n/a	wordpools/wordpool_EN.txt	1	-999	n/a	n/a	ROOM	BRIDGE	1	[0, 0, 0]	-999	PAL1	2	R1333N
135.513	0.61	136214	STUDY_PAIR_OFF	n/a	n/a	1	-999	n/a	n/a	ROOM	BRIDGE	1	[0, 0, 0]	-999	PAL1	2	R1333N
136.123	4.0	136824	STUDY_PAIR	n/a	wordpools/wordpool_EN.txt	2	-999	n/a	n/a	WORLD	TOAD	1	[0, 0, 0]	-999	PAL1	2	R1333N
140.162	0.738	140863	STUDY_PAIR_OFF	n/a	n/a	2	-999	n/a	n/a	WORLD	TOAD	1	[0, 0, 0]	-999	PAL1	2	R1333N
140.9	4.0	141601	STUDY_PAIR	n/a	wordpools/wordpool_EN.txt	3	-999	n/a	n/a	WEB	NET	1	[0, 0, 0]	-999	PAL1	2	R1333N
144.93	0.748	145631	STUDY_PAIR_OFF	n/a	n/a	3	-999	n/a	n/a	WEB	NET	1	[0, 0, 0]	-999	PAL1	2	R1333N
145.678	4.0	146379	STUDY_PAIR	n/a	wordpools/wordpool_EN.txt	4	-999	n/a	MAIL	INK	MAIL	1	[0, 0, 0]	-999	PAL1	2	R1333N
149.714	0.665	150415	STUDY_PAIR_OFF	n/a	n/a	4	-999	n/a	MAIL	INK	MAIL	1	[0, 0, 0]	-999	PAL1	2	R1333N
150.379	4.0	151080	STUDY_PAIR	n/a	wordpools/wordpool_EN.txt	5	-999	n/a	n/a	SOAP	RAT	1	[0, 0, 0]	-999	PAL1	2	R1333N
154.415	0.674	155115	STUDY_PAIR_OFF	n/a	n/a	5	-999	n/a	n/a	SOAP	RAT	1	[0, 0, 0]	-999	PAL1	2	R1333N
155.089	4.0	155789	STUDY_PAIR	n/a	wordpools/wordpool_EN.txt	6	-999	n/a	NET	YARD	ROOT	1	[0, 0, 0]	-999	PAL1	2	R1333N
159.115	0.001	159815	STUDY_PAIR_OFF	n/a	n/a	6	-999	n/a	NET	YARD	ROOT	1	[0, 0, 0]	-999	PAL1	2	R1333N
159.116	0.0	159816	MATH_START	n/a	n/a	-999	-999	n/a	n/a	n/a	n/a	1	[0, 0, 0]	-999	PAL1	2	R1333N
159.116	0.0	159816	ENCODING_END	n/a	n/a	-999	-999	n/a	n/a	n/a	n/a	1	[0, 0, 0]	-999	PAL1	2	R1333N
159.116	0.016	159816	START	n/a	n/a	-999	-999	n/a	n/a	n/a	n/a	1	[-999, -999, -999]	-999	PAL1	2	R1333N
159.132	4.784	159832	PROB	4746.0	n/a	-999	-999	n/a	n/a	n/a	n/a	1	[5, 7, 7]	19	PAL1	2	R1333N
163.916	6.101	164616	PROB	6073.0	n/a	-999	-999	n/a	n/a	n/a	n/a	1	[1, 4, 4]	9	PAL1	2	R1333N
170.017	4.618	170717	PROB	4589.0	n/a	-999	-999	n/a	n/a	n/a	n/a	1	[2, 4, 8]	14	PAL1	2	R1333N
174.635	4.515	175335	PROB	4515.0	n/a	-999	-999	n/a	n/a	n/a	n/a	1	[5, 7, 6]	19	PAL1	2	R1333N
179.15	0.018	179850	STOP	n/a	n/a	-999	-999	n/a	n/a	n/a	n/a	1	[-999, -999, -999]	-999	PAL1	2	R1333N
179.168	0.566	179868	MATH_END	n/a	n/a	-999	-999	n/a	n/a	n/a	n/a	1	[0, 0, 0]	-999	PAL1	2	R1333N
179.734	0.002	180434	RETRIEVAL_START	n/a	n/a	-999	-999	n/a	n/a	n/a	n/a	1	[0, 0, 0]	-999	PAL1	2	R1333N
179.736	0.283	180436	ORIENT_START	n/a	n/a	-999	-999	n/a	n/a	n/a	n/a	1	[0, 0, 0]	-999	PAL1	2	R1333N
180.019	0.695	180719	ORIENT_END	n/a	n/a	-999	-999	n/a	n/a	n/a	n/a	1	[0, 0, 0]	-999	PAL1	2	R1333N
180.714	0.001	181414	REC_START	n/a	n/a	1	1	ROOM	n/a	ROOM	BRIDGE	1	[0, 0, 0]	-999	PAL1	2	R1333N
180.715	4.0	181415	PROBE_START	n/a	wordpools/wordpool_EN.txt	1	1	ROOM	n/a	ROOM	BRIDGE	1	[0, 0, 0]	-999	PAL1	2	R1333N
184.409	0.344	185109	REC_EVENT	3694.0	n/a	1	1	ROOM	<>	ROOM	BRIDGE	1	[0, 0, 0]	-999	PAL1	2	R1333N
184.753	0.767	185453	PROBE_END	n/a	n/a	1	1	ROOM	n/a	ROOM	BRIDGE	1	[0, 0, 0]	-999	PAL1	2	R1333N
185.52	0.233	186220	REC_EVENT	4805.0	n/a	1	1	ROOM	<>	ROOM	BRIDGE	1	[0, 0, 0]	-999	PAL1	2	R1333N
185.753	0.011	186453	REC_END	n/a	n/a	1	1	ROOM	n/a	ROOM	BRIDGE	1	[0, 0, 0]	-999	PAL1	2	R1333N
185.764	0.272	186464	ORIENT_START	n/a	n/a	-999	-999	n/a	n/a	n/a	n/a	1	[0, 0, 0]	-999	PAL1	2	R1333N
186.036	0.57	186736	ORIENT_END	n/a	n/a	-999	-999	n/a	n/a	n/a	n/a	1	[0, 0, 0]	-999	PAL1	2	R1333N
186.606	0.001	187306	REC_START	n/a	n/a	6	2	ROOT	NET	YARD	ROOT	1	[0, 0, 0]	-999	PAL1	2	R1333N
186.607	4.0	187307	PROBE_START	n/a	wordpools/wordpool_EN.txt	6	2	ROOT	NET	YARD	ROOT	1	[0, 0, 0]	-999	PAL1	2	R1333N
188.642	1.996	189342	REC_EVENT	2035.0	n/a	6	2	ROOT	NET	YARD	ROOT	1	[0, 0, 0]	-999	PAL1	2	R1333N
190.638	1.0	191337	PROBE_END	n/a	n/a	6	2	ROOT	n/a	YARD	ROOT	1	[0, 0, 0]	-999	PAL1	2	R1333N
191.638	0.012	192337	REC_END	n/a	n/a	6	2	ROOT	n/a	YARD	ROOT	1	[0, 0, 0]	-999	PAL1	2	R1333N
191.65	0.271	192349	ORIENT_START	n/a	n/a	-999	-999	n/a	n/a	n/a	n/a	1	[0, 0, 0]	-999	PAL1	2	R1333N
191.921	0.716	192620	ORIENT_END	n/a	n/a	-999	-999	n/a	n/a	n/a	n/a	1	[0, 0, 0]	-999	PAL1	2	R1333N
192.637	0.001	193336	REC_START	n/a	n/a	3	3	NET	n/a	WEB	NET	1	[0, 0, 0]	-999	PAL1	2	R1333N
192.638	4.0	193337	PROBE_START	n/a	wordpools/wordpool_EN.txt	3	3	NET	n/a	WEB	NET	1	[0, 0, 0]	-999	PAL1	2	R1333N
196.671	0.606	197370	PROBE_END	n/a	n/a	3	3	NET	n/a	WEB	NET	1	[0, 0, 0]	-999	PAL1	2	R1333N
197.277	0.394	197976	REC_EVENT	4639.0	n/a	3	3	NET	<>	WEB	NET	1	[0, 0, 0]	-999	PAL1	2	R1333N
197.671	0.006	198370	REC_END	n/a	n/a	3	3	NET	n/a	WEB	NET	1	[0, 0, 0]	-999	PAL1	2	R1333N
197.677	0.278	198376	ORIENT_START	n/a	n/a	-999	-999	n/a	n/a	n/a	n/a	1	[0, 0, 0]	-999	PAL1	2	R1333N
197.955	0.612	198654	ORIENT_END	n/a	n/a	-999	-999	n/a	n/a	n/a	n/a	1	[0, 0, 0]	-999	PAL1	2	R1333N
198.567	0.0	199266	REC_START	n/a	n/a	4	4	INK	MAIL	INK	MAIL	1	[0, 0, 0]	-999	PAL1	2	R1333N
198.567	4.0	199266	PROBE_START	n/a	wordpools/wordpool_EN.txt	4	4	INK	MAIL	INK	MAIL	1	[0, 0, 0]	-999	PAL1	2	R1333N
202.136	0.454	202835	REC_EVENT	3569.0	n/a	4	4	INK	<>	INK	MAIL	1	[0, 0, 0]	-999	PAL1	2	R1333N
202.59	0.155	203289	PROBE_END	n/a	n/a	4	4	INK	n/a	INK	MAIL	1	[0, 0, 0]	-999	PAL1	2	R1333N
202.745	0.845	203444	REC_EVENT	4178.0	n/a	4	4	INK	MAIL	INK	MAIL	1	[0, 0, 0]	-999	PAL1	2	R1333N
203.59	0.013	204289	REC_END	n/a	n/a	4	4	INK	n/a	INK	MAIL	1	[0, 0, 0]	-999	PAL1	2	R1333N
203.603	0.27	204302	ORIENT_START	n/a	n/a	-999	-999	n/a	n/a	n/a	n/a	1	[0, 0, 0]	-999	PAL1	2	R1333N
203.873	0.708	204572	ORIENT_END	n/a	n/a	-999	-999	n/a	n/a	n/a	n/a	1	[0, 0, 0]	-999	PAL1	2	R1333N
204.581	0.001	205280	REC_START	n/a	n/a	5	5	RAT	n/a	SOAP	RAT	1	[0, 0, 0]	-999	PAL1	2	R1333N
204.582	4.0	205281	PROBE_START	n/a	wordpools/wordpool_EN.txt	5	5	RAT	n/a	SOAP	RAT	1	[0, 0, 0]	-999	PAL1	2	R1333N
208.608	0.126	209307	PROBE_END	n/a	n/a	5	5	RAT	n/a	SOAP	RAT	1	[0, 0, 0]	-999	PAL1	2	R1333N
208.734	0.873	209433	REC_EVENT	4152.0	n/a	5	5	RAT	<>	SOAP	RAT	1	[0, 0, 0]	-999	PAL1	2	R1333N
209.607	0.013	210306	REC_END	n/a	n/a	5	5	RAT	n/a	SOAP	RAT	1	[0, 0, 0]	-999	PAL1	2	R1333N
209.62	0.27	210319	ORIENT_START	n/a	n/a	-999	-999	n/a	n/a	n/a	n/a	1	[0, 0, 0]	-999	PAL1	2	R1333N
209.89	0.526	210589	ORIENT_END	n/a	n/a	-999	-999	n/a	n/a	n/a	n/a	1	[0, 0, 0]	-999	PAL1	2	R1333N
210.416	0.0	211115	REC_START	n/a	n/a	2	6	WORLD	n/a	WORLD	TOAD	1	[0, 0, 0]	-999	PAL1	2	R1333N
210.416	4.0	211115	PROBE_START	n/a	wordpools/wordpool_EN.txt	2	6	WORLD	n/a	WORLD	TOAD	1	[0, 0, 0]	-999	PAL1	2	R1333N
213.355	1.087	214054	REC_EVENT	2939.0	n/a	2	6	WORLD	<>	WORLD	TOAD	1	[0, 0, 0]	-999	PAL1	2	R1333N
214.442	1.0	215141	PROBE_END	n/a	n/a	2	6	WORLD	n/a	WORLD	TOAD	1	[0, 0, 0]	-999	PAL1	2	R1333N
215.442	0.012	216141	REC_END	n/a	n/a	2	6	WORLD	n/a	WORLD	TOAD	1	[0, 0, 0]	-999	PAL1	2	R1333N
215.454	0.0	216153	RETRIEVAL_END	n/a	n/a	-999	-999	n/a	n/a	n/a	n/a	1	[0, 0, 0]	-999	PAL1	2	R1333N
215.454	0.021	216153	TRIAL_END	n/a	n/a	-999	-999	n/a	n/a	n/a	n/a	1	[0, 0, 0]	-999	PAL1	2	R1333N
215.475	0.0	216174	WAITING_START	n/a	n/a	-999	-999	n/a	n/a	n/a	n/a	2	[0, 0, 0]	-999	PAL1	2	R1333N
215.475	0.0	216174	TRIAL	n/a	n/a	-999	-999	n/a	n/a	n/a	n/a	2	[0, 0, 0]	-999	PAL1	2	R1333N
215.475	2.583	216174	TRIAL_START	n/a	n/a	-999	-999	n/a	n/a	n/a	n/a	1	[0, 0, 0]	-999	PAL1	2	R1333N
218.058	0.001	218757	WAITING_END	n/a	n/a	-999	-999	n/a	n/a	n/a	n/a	2	[0, 0, 0]	-999	PAL1	2	R1333N
218.059	10.0	218758	COUNTDOWN_START	n/a	n/a	-999	-999	n/a	n/a	n/a	n/a	2	[0, 0, 0]	-999	PAL1	2	R1333N
228.488	0.0	229186	COUNTDOWN_END	n/a	n/a	-999	-999	n/a	n/a	n/a	n/a	2	[0, 0, 0]	-999	PAL1	2	R1333N
228.488	0.589	229186	ORIENT_START	n/a	n/a	-999	-999	n/a	n/a	n/a	n/a	2	[0, 0, 0]	-999	PAL1	2	R1333N
229.077	0.0	229775	ORIENT_END	n/a	n/a	-999	-999	n/a	n/a	n/a	n/a	2	[0, 0, 0]	-999	PAL1	2	R1333N
229.077	1.11	229775	ENCODING_START	n/a	n/a	-999	-999	n/a	n/a	n/a	n/a	2	[0, 0, 0]	-999	PAL1	2	R1333N
230.187	4.0	230885	STUDY_PAIR	n/a	wordpools/wordpool_EN.txt	1	-999	n/a	SCHOOL	PEARL	SCHOOL	2	[0, 0, 0]	-999	PAL1	2	R1333N
234.229	0.644	234927	STUDY_PAIR_OFF	n/a	n/a	1	-999	n/a	SCHOOL	PEARL	SCHOOL	2	[0, 0, 0]	-999	PAL1	2	R1333N
234.873	4.0	235571	STUDY_PAIR	n/a	wordpools/wordpool_EN.txt	2	-999	n/a	HOOK	HOOK	BOAT	2	[0, 0, 0]	-999	PAL1	2	R1333N
238.912	0.687	239610	STUDY_PAIR_OFF	n/a	n/a	2	-999	n/a	HOOK	HOOK	BOAT	2	[0, 0, 0]	-999	PAL1	2	R1333N
239.599	4.0	240297	STUDY_PAIR	n/a	wordpools/wordpool_EN.txt	3	-999	n/a	n/a	DITCH	SEAL	2	[0, 0, 0]	-999	PAL1	2	R1333N
243.63	0.562	244328	STUDY_PAIR_OFF	n/a	n/a	3	-999	n/a	n/a	DITCH	SEAL	2	[0, 0, 0]	-999	PAL1	2	R1333N
244.192	4.0	244890	STUDY_PAIR	n/a	wordpools/wordpool_EN.txt	4	-999	n/a	NOSE	NOSE	PASTE	2	[0, 0, 0]	-999	PAL1	2	R1333N
248.231	0.574	248929	STUDY_PAIR_OFF	n/a	n/a	4	-999	n/a	NOSE	NOSE	PASTE	2	[0, 0, 0]	-999	PAL1	2	R1333N
248.805	4.0	249503	STUDY_PAIR	n/a	wordpools/wordpool_EN.txt	5	-999	n/a	n/a	HILL	POLE	2	[0, 0, 0]	-999	PAL1	2	R1333N
252.831	0.576	253529	STUDY_PAIR_OFF	n/a	n/a	5	-999	n/a	n/a	HILL	POLE	2	[0, 0, 0]	-999	PAL1	2	R1333N
253.407	4.0	254105	STUDY_PAIR	n/a	wordpools/wordpool_EN.txt	6	-999	n/a	n/a	GATE	SPOON	2	[0, 0, 0]	-999	PAL1	2	R1333N
257.432	0.001	258130	STUDY_PAIR_OFF	n/a	n/a	6	-999	n/a	n/a	GATE	SPOON	2	[0, 0, 0]	-999	PAL1	2	R1333N
257.433	0.0	258131	MATH_START	n/a	n/a	-999	-999	n/a	n/a	n/a	n/a	2	[0, 0, 0]	-999	PAL1	2	R1333N
257.433	0.001	258131	ENCODING_END	n/a	n/a	-999	-999	n/a	n/a	n/a	n/a	2	[0, 0, 0]	-999	PAL1	2	R1333N
257.434	0.015	258132	START	n/a	n/a	-999	-999	n/a	n/a	n/a	n/a	2	[-999, -999, -999]	-999	PAL1	2	R1333N
257.449	5.101	258147	PROB	5070.0	n/a	-999	-999	n/a	n/a	n/a	n/a	2	[2, 4, 4]	10	PAL1	2	R1333N
262.55	4.583	263248	PROB	4560.0	n/a	-999	-999	n/a	n/a	n/a	n/a	2	[6, 4, 3]	13	PAL1	2	R1333N
267.133	3.534	267830	PROB	3498.0	n/a	-999	-999	n/a	n/a	n/a	n/a	2	[6, 3, 4]	14	PAL1	2	R1333N
270.667	4.0	271364	PROB	3964.0	n/a	-999	-999	n/a	n/a	n/a	n/a	2	[5, 5, 8]	18	PAL1	2	R1333N
274.667	2.852	275364	PROB	2852.0	n/a	-999	-999	n/a	n/a	n/a	n/a	2	[9, 8, 3]	20	PAL1	2	R1333N
277.519	0.017	278216	STOP	n/a	n/a	-999	-999	n/a	n/a	n/a	n/a	2	[-999, -999, -999]	-999	PAL1	2	R1333N
277.536	0.599	278233	MATH_END	n/a	n/a	-999	-999	n/a	n/a	n/a	n/a	2	[0, 0, 0]	-999	PAL1	2	R1333N
278.135	0.001	278832	RETRIEVAL_START	n/a	n/a	-999	-999	n/a	n/a	n/a	n/a	2	[0, 0, 0]	-999	PAL1	2	R1333N
278.136	0.266	278833	ORIENT_START	n/a	n/a	-999	-999	n/a	n/a	n/a	n/a	2	[0, 0, 0]	-999	PAL1	2	R1333N
278.402	0.671	279099	ORIENT_END	n/a	n/a	-999	-999	n/a	n/a	n/a	n/a	2	[0, 0, 0]	-999	PAL1	2	R1333N
279.073	0.0	279770	REC_START	n/a	n/a	5	1	HILL	n/a	HILL	POLE	2	[0, 0, 0]	-999	PAL1	2	R1333N
279.073	4.0	279770	PROBE_START	n/a	wordpools/wordpool_EN.txt	5	1	HILL	n/a	HILL	POLE	2	[0, 0, 0]	-999	PAL1	2	R1333N
282.235	0.867	282932	REC_EVENT	3162.0	n/a	5	1	HILL	<>	HILL	POLE	2	[0, 0, 0]	-999	PAL1	2	R1333N
283.102	1.0	283799	PROBE_END	n/a	n/a	5	1	HILL	n/a	HILL	POLE	2	[0, 0, 0]	-999	PAL1	2	R1333N
284.102	0.012	284799	REC_END	n/a	n/a	5	1	HILL	n/a	HILL	POLE	2	[0, 0, 0]	-999	PAL1	2	R1333N
284.114	0.273	284811	ORIENT_START	n/a	n/a	-999	-999	n/a	n/a	n/a	n/a	2	[0, 0, 0]	-999	PAL1	2	R1333N
284.387	0.686	285084	ORIENT_END	n/a	n/a	-999	-999	n/a	n/a	n/a	n/a	2	[0, 0, 0]	-999	PAL1	2	R1333N
285.073	0.001	285770	REC_START	n/a	n/a	2	2	BOAT	HOOK	HOOK	BOAT	2	[0, 0, 0]	-999	PAL1	2	R1333N
285.074	4.0	285771	PROBE_START	n/a	wordpools/wordpool_EN.txt	2	2	BOAT	HOOK	HOOK	BOAT	2	[0, 0, 0]	-999	PAL1	2	R1333N
287.256	1.847	287953	REC_EVENT	2182.0	n/a	2	2	BOAT	HOOK	HOOK	BOAT	2	[0, 0, 0]	-999	PAL1	2	R1333N
289.103	1.0	289800	PROBE_END	n/a	n/a	2	2	BOAT	n/a	HOOK	BOAT	2	[0, 0, 0]	-999	PAL1	2	R1333N
290.103	0.012	290800	REC_END	n/a	n/a	2	2	BOAT	n/a	HOOK	BOAT	2	[0, 0, 0]	-999	PAL1	2	R1333N
290.115	0.273	290812	ORIENT_START	n/a	n/a	-999	-999	n/a	n/a	n/a	n/a	2	[0, 0, 0]	-999	PAL1	2	R1333N
290.388	0.551	291085	ORIENT_END	n/a	n/a	-999	-999	n/a	n/a	n/a	n/a	2	[0, 0, 0]	-999	PAL1	2	R1333N
290.939	0.001	291636	REC_START	n/a	n/a	3	3	DITCH	n/a	DITCH	SEAL	2	[0, 0, 0]	-999	PAL1	2	R1333N
290.94	4.0	291637	PROBE_START	n/a	wordpools/wordpool_EN.txt	3	3	DITCH	n/a	DITCH	SEAL	2	[0, 0, 0]	-999	PAL1	2	R1333N
294.706	0.265	295403	REC_EVENT	3766.0	n/a	3	3	DITCH	<>	DITCH	SEAL	2	[0, 0, 0]	-999	PAL1	2	R1333N
294.971	1.0	295668	PROBE_END	n/a	n/a	3	3	DITCH	n/a	DITCH	SEAL	2	[0, 0, 0]	-999	PAL1	2	R1333N
295.971	0.012	296668	REC_END	n/a	n/a	3	3	DITCH	n/a	DITCH	SEAL	2	[0, 0, 0]	-999	PAL1	2	R1333N
295.983	0.273	296680	ORIENT_START	n/a	n/a	-999	-999	n/a	n/a	n/a	n/a	2	[0, 0, 0]	-999	PAL1	2	R1333N
296.256	0.711	296953	ORIENT_END	n/a	n/a	-999	-999	n/a	n/a	n/a	n/a	2	[0, 0, 0]	-999	PAL1	2	R1333N
296.967	0.0	297664	REC_START	n/a	n/a	6	4	SPOON	n/a	GATE	SPOON	2	[0, 0, 0]	-999	PAL1	2	R1333N
296.967	4.0	297664	PROBE_START	n/a	wordpools/wordpool_EN.txt	6	4	SPOON	n/a	GATE	SPOON	2	[0, 0, 0]	-999	PAL1	2	R1333N
301.005	0.497	301702	PROBE_END	n/a	n/a	6	4	SPOON	n/a	GATE	SPOON	2	[0, 0, 0]	-999	PAL1	2	R1333N
301.502	0.503	302199	REC_EVENT	4535.0	n/a	6	4	SPOON	<>	GATE	SPOON	2	[0, 0, 0]	-999	PAL1	2	R1333N
302.005	0.011	302702	REC_END	n/a	n/a	6	4	SPOON	n/a	GATE	SPOON	2	[0, 0, 0]	-999	PAL1	2	R1333N
302.016	0.274	302713	ORIENT_START	n/a	n/a	-999	-999	n/a	n/a	n/a	n/a	2	[0, 0, 0]	-999	PAL1	2	R1333N
302.29	0.544	302987	ORIENT_END	n/a	n/a	-999	-999	n/a	n/a	n/a	n/a	2	[0, 0, 0]	-999	PAL1	2	R1333N
302.834	0.0	303531	REC_START	n/a	n/a	1	5	PEARL	SCHOOL	PEARL	SCHOOL	2	[0, 0, 0]	-999	PAL1	2	R1333N
302.834	4.0	303531	PROBE_START	n/a	wordpools/wordpool_EN.txt	1	5	PEARL	SCHOOL	PEARL	SCHOOL	2	[0, 0, 0]	-999	PAL1	2	R1333N
304.784	2.089	305480	REC_EVENT	1950.0	n/a	1	5	PEARL	SCHOOL	PEARL	SCHOOL	2	[0, 0, 0]	-999	PAL1	2	R1333N
306.873	1.0	307569	PROBE_END	n/a	n/a	1	5	PEARL	n/a	PEARL	SCHOOL	2	[0, 0, 0]	-999	PAL1	2	R1333N
307.873	0.011	308569	REC_END	n/a	n/a	1	5	PEARL	n/a	PEARL	SCHOOL	2	[0, 0, 0]	-999	PAL1	2	R1333N
307.884	0.272	308580	ORIENT_START	n/a	n/a	-999	-999	n/a	n/a	n/a	n/a	2	[0, 0, 0]	-999	PAL1	2	R1333N
308.156	0.526	308852	ORIENT_END	n/a	n/a	-999	-999	n/a	n/a	n/a	n/a	2	[0, 0, 0]	-999	PAL1	2	R1333N
308.682	0.001	309378	REC_START	n/a	n/a	4	6	PASTE	NOSE	NOSE	PASTE	2	[0, 0, 0]	-999	PAL1	2	R1333N
308.683	4.0	309379	PROBE_START	n/a	wordpools/wordpool_EN.txt	4	6	PASTE	NOSE	NOSE	PASTE	2	[0, 0, 0]	-999	PAL1	2	R1333N
310.627	2.08	311323	REC_EVENT	1944.0	n/a	4	6	PASTE	NOSE	NOSE	PASTE	2	[0, 0, 0]	-999	PAL1	2	R1333N
312.707	1.001	313403	PROBE_END	n/a	n/a	4	6	PASTE	n/a	NOSE	PASTE	2	[0, 0, 0]	-999	PAL1	2	R1333N
313.708	0.01	314404	REC_END	n/a	n/a	4	6	PASTE	n/a	NOSE	PASTE	2	[0, 0, 0]	-999	PAL1	2	R1333N
313.718	0.001	314414	RETRIEVAL_END	n/a	n/a	-999	-999	n/a	n/a	n/a	n/a	2	[0, 0, 0]	-999	PAL1	2	R1333N
313.719	0.019	314415	TRIAL_END	n/a	n/a	-999	-999	n/a	n/a	n/a	n/a	2	[0, 0, 0]	-999	PAL1	2	R1333N
313.738	0.0	314434	WAITING_START	n/a	n/a	-999	-999	n/a	n/a	n/a	n/a	3	[0, 0, 0]	-999	PAL1	2	R1333N
313.738	0.0	314434	TRIAL	n/a	n/a	-999	-999	n/a	n/a	n/a	n/a	3	[0, 0, 0]	-999	PAL1	2	R1333N
313.738	3.187	314434	TRIAL_START	n/a	n/a	-999	-999	n/a	n/a	n/a	n/a	2	[0, 0, 0]	-999	PAL1	2	R1333N
316.925	0.0	317621	WAITING_END	n/a	n/a	-999	-999	n/a	n/a	n/a	n/a	3	[0, 0, 0]	-999	PAL1	2	R1333N
316.925	10.0	317621	COUNTDOWN_START	n/a	n/a	-999	-999	n/a	n/a	n/a	n/a	3	[0, 0, 0]	-999	PAL1	2	R1333N
327.353	0.0	328049	COUNTDOWN_END	n/a	n/a	-999	-999	n/a	n/a	n/a	n/a	3	[0, 0, 0]	-999	PAL1	2	R1333N
327.353	0.674	328049	ORIENT_START	n/a	n/a	-999	-999	n/a	n/a	n/a	n/a	3	[0, 0, 0]	-999	PAL1	2	R1333N
328.027	0.0	328723	ORIENT_END	n/a	n/a	-999	-999	n/a	n/a	n/a	n/a	3	[0, 0, 0]	-999	PAL1	2	R1333N
328.027	1.238	328723	ENCODING_START	n/a	n/a	-999	-999	n/a	n/a	n/a	n/a	3	[0, 0, 0]	-999	PAL1	2	R1333N
329.265	4.0	329961	STUDY_PAIR	n/a	wordpools/wordpool_EN.txt	1	-999	n/a	DOLL	HAWK	DOLL	3	[0, 0, 0]	-999	PAL1	2	R1333N
333.295	0.574	333991	STUDY_PAIR_OFF	n/a	n/a	1	-999	n/a	DOLL	HAWK	DOLL	3	[0, 0, 0]	-999	PAL1	2	R1333N
333.869	4.0	334565	STUDY_PAIR	n/a	wordpools/wordpool_EN.txt	2	-999	n/a	n/a	PIT	SWORD	3	[0, 0, 0]	-999	PAL1	2	R1333N
337.895	0.742	338591	STUDY_PAIR_OFF	n/a	n/a	2	-999	n/a	n/a	PIT	SWORD	3	[0, 0, 0]	-999	PAL1	2	R1333N
338.637	4.0	339333	STUDY_PAIR	n/a	wordpools/wordpool_EN.txt	3	-999	n/a	n/a	CLAY	SUN	3	[0, 0, 0]	-999	PAL1	2	R1333N
342.662	0.652	343357	STUDY_PAIR_OFF	n/a	n/a	3	-999	n/a	n/a	CLAY	SUN	3	[0, 0, 0]	-999	PAL1	2	R1333N
343.314	4.0	344009	STUDY_PAIR	n/a	wordpools/wordpool_EN.txt	4	-999	n/a	PARK	PARK	MAZE	3	[0, 0, 0]	-999	PAL1	2	R1333N
347.347	0.683	348042	STUDY_PAIR_OFF	n/a	n/a	4	-999	n/a	PARK	PARK	MAZE	3	[0, 0, 0]	-999	PAL1	2	R1333N
348.03	4.0	348725	STUDY_PAIR	n/a	wordpools/wordpool_EN.txt	5	-999	n/a	n/a	WORM	PLANE	3	[0, 0, 0]	-999	PAL1	2	R1333N
352.064	0.701	352759	STUDY_PAIR_OFF	n/a	n/a	5	-999	n/a	n/a	WORM	PLANE	3	[0, 0, 0]	-999	PAL1	2	R1333N
352.765	4.0	353460	STUDY_PAIR	n/a	wordpools/wordpool_EN.txt	6	-999	n/a	n/a	TREE	CLOUD	3	[0, 0, 0]	-999	PAL1	2	R1333N
356.798	0.0	357493	MATH_START	n/a	n/a	-999	-999	n/a	n/a	n/a	n/a	3	[0, 0, 0]	-999	PAL1	2	R1333N
356.798	0.0	357493	ENCODING_END	n/a	n/a	-999	-999	n/a	n/a	n/a	n/a	3	[0, 0, 0]	-999	PAL1	2	R1333N
356.798	0.001	357493	STUDY_PAIR_OFF	n/a	n/a	6	-999	n/a	n/a	TREE	CLOUD	3	[0, 0, 0]	-999	PAL1	2	R1333N
356.799	0.015	357494	START	n/a	n/a	-999	-999	n/a	n/a	n/a	n/a	3	[-999, -999, -999]	-999	PAL1	2	R1333N
356.814	4.785	357509	PROB	4752.0	n/a	-999	-999	n/a	n/a	n/a	n/a	3	[3, 6, 5]	14	PAL1	2	R1333N
361.599	5.417	362294	PROB	5383.0	n/a	-999	-999	n/a	n/a	n/a	n/a	3	[4, 7, 7]	18	PAL1	2	R1333N
367.016	2.667	367711	PROB	2638.0	n/a	-999	-999	n/a	n/a	n/a	n/a	3	[2, 1, 8]	11	PAL1	2	R1333N
369.683	3.501	370378	PROB	3467.0	n/a	-999	-999	n/a	n/a	n/a	n/a	3	[2, 8, 4]	14	PAL1	2	R1333N
373.184	5.102	373879	PROB	5102.0	n/a	-999	-999	n/a	n/a	n/a	n/a	3	[7, 6, 6]	19	PAL1	2	R1333N
378.286	0.016	378981	STOP	n/a	n/a	-999	-999	n/a	n/a	n/a	n/a	3	[-999, -999, -999]	-999	PAL1	2	R1333N
378.302	0.678	378997	MATH_END	n/a	n/a	-999	-999	n/a	n/a	n/a	n/a	3	[0, 0, 0]	-999	PAL1	2	R1333N
378.98	0.001	379674	RETRIEVAL_START	n/a	n/a	-999	-999	n/a	n/a	n/a	n/a	3	[0, 0, 0]	-999	PAL1	2	R1333N
378.981	0.272	379675	ORIENT_START	n/a	n/a	-999	-999	n/a	n/a	n/a	n/a	3	[0, 0, 0]	-999	PAL1	2	R1333N
379.253	0.742	379947	ORIENT_END	n/a	n/a	-999	-999	n/a	n/a	n/a	n/a	3	[0, 0, 0]	-999	PAL1	2	R1333N
379.995	0.0	380689	REC_START	n/a	n/a	5	1	WORM	n/a	WORM	PLANE	3	[0, 0, 0]	-999	PAL1	2	R1333N
379.995	4.0	380689	PROBE_START	n/a	wordpools/wordpool_EN.txt	5	1	WORM	n/a	WORM	PLANE	3	[0, 0, 0]	-999	PAL1	2	R1333N
382.684	1.335	383378	REC_EVENT	2689.0	n/a	5	1	WORM	<>	WORM	PLANE	3	[0, 0, 0]	-999	PAL1	2	R1333N
384.019	1.0	384713	PROBE_END	n/a	n/a	5	1	WORM	n/a	WORM	PLANE	3	[0, 0, 0]	-999	PAL1	2	R1333N
385.019	0.007	385713	REC_END	n/a	n/a	5	1	WORM	n/a	WORM	PLANE	3	[0, 0, 0]	-999	PAL1	2	R1333N
385.026	0.277	385720	ORIENT_START	n/a	n/a	-999	-999	n/a	n/a	n/a	n/a	3	[0, 0, 0]	-999	PAL1	2	R1333N
385.303	0.501	385997	ORIENT_END	n/a	n/a	-999	-999	n/a	n/a	n/a	n/a	3	[0, 0, 0]	-999	PAL1	2	R1333N
385.804	0.0	386498	REC_START	n/a	n/a	4	2	MAZE	PARK	PARK	MAZE	3	[0, 0, 0]	-999	PAL1	2	R1333N
385.804	4.0	386498	PROBE_START	n/a	wordpools/wordpool_EN.txt	4	2	MAZE	PARK	PARK	MAZE	3	[0, 0, 0]	-999	PAL1	2	R1333N
387.693	2.144	388387	REC_EVENT	1889.0	n/a	4	2	MAZE	PARK	PARK	MAZE	3	[0, 0, 0]	-999	PAL1	2	R1333N
389.837	0.999	390531	PROBE_END	n/a	n/a	4	2	MAZE	n/a	PARK	MAZE	3	[0, 0, 0]	-999	PAL1	2	R1333N
390.836	0.011	391530	REC_END	n/a	n/a	4	2	MAZE	n/a	PARK	MAZE	3	[0, 0, 0]	-999	PAL1	2	R1333N
390.847	0.273	391541	ORIENT_START	n/a	n/a	-999	-999	n/a	n/a	n/a	n/a	3	[0, 0, 0]	-999	PAL1	2	R1333N
391.12	0.554	391814	ORIENT_END	n/a	n/a	-999	-999	n/a	n/a	n/a	n/a	3	[0, 0, 0]	-999	PAL1	2	R1333N
391.674	4.0	392368	PROBE_START	n/a	wordpools/wordpool_EN.txt	3	3	SUN	n/a	CLAY	SUN	3	[0, 0, 0]	-999	PAL1	2	R1333N
391.674	4.03	392368	REC_START	n/a	n/a	3	3	SUN	n/a	CLAY	SUN	3	[0, 0, 0]	-999	PAL1	2	R1333N
395.704	0.586	396398	PROBE_END	n/a	n/a	3	3	SUN	n/a	CLAY	SUN	3	[0, 0, 0]	-999	PAL1	2	R1333N
396.29	0.415	396984	REC_EVENT	4616.0	n/a	3	3	SUN	<>	CLAY	SUN	3	[0, 0, 0]	-999	PAL1	2	R1333N
396.705	0.011	397399	REC_END	n/a	n/a	3	3	SUN	n/a	CLAY	SUN	3	[0, 0, 0]	-999	PAL1	2	R1333N
396.716	0.272	397410	ORIENT_START	n/a	n/a	-999	-999	n/a	n/a	n/a	n/a	3	[0, 0, 0]	-999	PAL1	2	R1333N
396.988	0.563	397682	ORIENT_END	n/a	n/a	-999	-999	n/a	n/a	n/a	n/a	3	[0, 0, 0]	-999	PAL1	2	R1333N
397.551	0.0	398245	REC_START	n/a	n/a	2	4	PIT	n/a	PIT	SWORD	3	[0, 0, 0]	-999	PAL1	2	R1333N
397.551	4.0	398245	PROBE_START	n/a	wordpools/wordpool_EN.txt	2	4	PIT	n/a	PIT	SWORD	3	[0, 0, 0]	-999	PAL1	2	R1333N
401.573	0.09	402267	PROBE_END	n/a	n/a	2	4	PIT	n/a	PIT	SWORD	3	[0, 0, 0]	-999	PAL1	2	R1333N
401.663	0.909	402357	REC_EVENT	4112.0	n/a	2	4	PIT	<>	PIT	SWORD	3	[0, 0, 0]	-999	PAL1	2	R1333N
402.572	0.011	403266	REC_END	n/a	n/a	2	4	PIT	n/a	PIT	SWORD	3	[0, 0, 0]	-999	PAL1	2	R1333N
402.583	0.272	403277	ORIENT_START	n/a	n/a	-999	-999	n/a	n/a	n/a	n/a	3	[0, 0, 0]	-999	PAL1	2	R1333N
402.855	0.588	403549	ORIENT_END	n/a	n/a	-999	-999	n/a	n/a	n/a	n/a	3	[0, 0, 0]	-999	PAL1	2	R1333N
403.443	0.0	404137	REC_START	n/a	n/a	1	5	HAWK	DOLL	HAWK	DOLL	3	[0, 0, 0]	-999	PAL1	2	R1333N
403.443	4.0	404137	PROBE_START	n/a	wordpools/wordpool_EN.txt	1	5	HAWK	DOLL	HAWK	DOLL	3	[0, 0, 0]	-999	PAL1	2	R1333N
405.978	1.496	406672	REC_EVENT	2535.0	n/a	1	5	HAWK	DOLL	HAWK	DOLL	3	[0, 0, 0]	-999	PAL1	2	R1333N
407.474	1.0	408168	PROBE_END	n/a	n/a	1	5	HAWK	n/a	HAWK	DOLL	3	[0, 0, 0]	-999	PAL1	2	R1333N
408.474	0.012	409168	REC_END	n/a	n/a	1	5	HAWK	n/a	HAWK	DOLL	3	[0, 0, 0]	-999	PAL1	2	R1333N
408.486	0.27	409180	ORIENT_START	n/a	n/a	-999	-999	n/a	n/a	n/a	n/a	3	[0, 0, 0]	-999	PAL1	2	R1333N
408.756	0.745	409450	ORIENT_END	n/a	n/a	-999	-999	n/a	n/a	n/a	n/a	3	[0, 0, 0]	-999	PAL1	2	R1333N
409.501	0.001	410195	REC_START	n/a	n/a	6	6	CLOUD	n/a	TREE	CLOUD	3	[0, 0, 0]	-999	PAL1	2	R1333N
409.502	4.0	410196	PROBE_START	n/a	wordpools/wordpool_EN.txt	6	6	CLOUD	n/a	TREE	CLOUD	3	[0, 0, 0]	-999	PAL1	2	R1333N
411.921	1.604	412615	REC_EVENT	2419.0	n/a	6	6	CLOUD	<>	TREE	CLOUD	3	[0, 0, 0]	-999	PAL1	2	R1333N
413.525	1.0	414219	PROBE_END	n/a	n/a	6	6	CLOUD	n/a	TREE	CLOUD	3	[0, 0, 0]	-999	PAL1	2	R1333N
414.525	0.006	415219	REC_END	n/a	n/a	6	6	CLOUD	n/a	TREE	CLOUD	3	[0, 0, 0]	-999	PAL1	2	R1333N
414.531	0.0	415225	RETRIEVAL_END	n/a	n/a	-999	-999	n/a	n/a	n/a	n/a	3	[0, 0, 0]	-999	PAL1	2	R1333N
414.531	0.019	415225	TRIAL_END	n/a	n/a	-999	-999	n/a	n/a	n/a	n/a	3	[0, 0, 0]	-999	PAL1	2	R1333N
414.55	0.0	415244	TRIAL	n/a	n/a	-999	-999	n/a	n/a	n/a	n/a	4	[0, 0, 0]	-999	PAL1	2	R1333N
414.55	0.0	415244	WAITING_START	n/a	n/a	-999	-999	n/a	n/a	n/a	n/a	4	[0, 0, 0]	-999	PAL1	2	R1333N
414.55	2.358	415244	TRIAL_START	n/a	n/a	-999	-999	n/a	n/a	n/a	n/a	3	[0, 0, 0]	-999	PAL1	2	R1333N
416.908	0.0	417601	WAITING_END	n/a	n/a	-999	-999	n/a	n/a	n/a	n/a	4	[0, 0, 0]	-999	PAL1	2	R1333N
416.908	10.0	417601	COUNTDOWN_START	n/a	n/a	-999	-999	n/a	n/a	n/a	n/a	4	[0, 0, 0]	-999	PAL1	2	R1333N
427.336	0.0	428029	COUNTDOWN_END	n/a	n/a	-999	-999	n/a	n/a	n/a	n/a	4	[0, 0, 0]	-999	PAL1	2	R1333N
427.336	0.64	428029	ORIENT_START	n/a	n/a	-999	-999	n/a	n/a	n/a	n/a	4	[0, 0, 0]	-999	PAL1	2	R1333N
427.976	0.001	428669	ORIENT_END	n/a	n/a	-999	-999	n/a	n/a	n/a	n/a	4	[0, 0, 0]	-999	PAL1	2	R1333N
427.977	1.056	428670	ENCODING_START	n/a	n/a	-999	-999	n/a	n/a	n/a	n/a	4	[0, 0, 0]	-999	PAL1	2	R1333N
429.033	4.0	429726	STUDY_PAIR	n/a	wordpools/wordpool_EN.txt	1	-999	n/a	n/a	DIME	BLUSH	4	[0, 0, 0]	-999	PAL1	2	R1333N
433.06	0.711	433753	STUDY_PAIR_OFF	n/a	n/a	1	-999	n/a	n/a	DIME	BLUSH	4	[0, 0, 0]	-999	PAL1	2	R1333N
433.771	4.0	434464	STUDY_PAIR	n/a	wordpools/wordpool_EN.txt	2	-999	n/a	n/a	FOG	SIGN	4	[0, 0, 0]	-999	PAL1	2	R1333N
437.794	0.628	438487	STUDY_PAIR_OFF	n/a	n/a	2	-999	n/a	n/a	FOG	SIGN	4	[0, 0, 0]	-999	PAL1	2	R1333N
438.422	4.0	439115	STUDY_PAIR	n/a	wordpools/wordpool_EN.txt	3	-999	n/a	CART	CAPE	CART	4	[0, 0, 0]	-999	PAL1	2	R1333N
442.446	0.522	443139	STUDY_PAIR_OFF	n/a	n/a	3	-999	n/a	CART	CAPE	CART	4	[0, 0, 0]	-999	PAL1	2	R1333N
442.968	4.0	443661	STUDY_PAIR	n/a	wordpools/wordpool_EN.txt	4	-999	n/a	BOY	BOY	ARK	4	[0, 0, 0]	-999	PAL1	2	R1333N
446.996	0.641	447689	STUDY_PAIR_OFF	n/a	n/a	4	-999	n/a	BOY	BOY	ARK	4	[0, 0, 0]	-999	PAL1	2	R1333N
447.637	4.0	448330	STUDY_PAIR	n/a	wordpools/wordpool_EN.txt	5	-999	n/a	n/a	STEAM	VAN	4	[0, 0, 0]	-999	PAL1	2	R1333N
451.664	0.693	452357	STUDY_PAIR_OFF	n/a	n/a	5	-999	n/a	n/a	STEAM	VAN	4	[0, 0, 0]	-999	PAL1	2	R1333N
452.357	4.0	453050	STUDY_PAIR	n/a	wordpools/wordpool_EN.txt	6	-999	n/a	n/a	RIB	TAIL	4	[0, 0, 0]	-999	PAL1	2	R1333N
456.382	0.001	457074	STUDY_PAIR_OFF	n/a	n/a	6	-999	n/a	n/a	RIB	TAIL	4	[0, 0, 0]	-999	PAL1	2	R1333N
456.383	0.0	457075	MATH_START	n/a	n/a	-999	-999	n/a	n/a	n/a	n/a	4	[0, 0, 0]	-999	PAL1	2	R1333N
456.383	0.0	457075	ENCODING_END	n/a	n/a	-999	-999	n/a	n/a	n/a	n/a	4	[0, 0, 0]	-999	PAL1	2	R1333N
456.383	0.015	457075	START	n/a	n/a	-999	-999	n/a	n/a	n/a	n/a	4	[-999, -999, -999]	-999	PAL1	2	R1333N
456.398	5.617	457090	PROB	5592.0	n/a	-999	-999	n/a	n/a	n/a	n/a	4	[1, 3, 2]	6	PAL1	2	R1333N
462.015	4.767	462707	PROB	4743.0	n/a	-999	-999	n/a	n/a	n/a	n/a	4	[5, 8, 5]	18	PAL1	2	R1333N
466.782	3.918	467474	PROB	3879.0	n/a	-999	-999	n/a	n/a	n/a	n/a	4	[2, 9, 2]	13	PAL1	2	R1333N
470.7	3.284	471392	PROB	3249.0	n/a	-999	-999	n/a	n/a	n/a	n/a	4	[7, 1, 1]	9	PAL1	2	R1333N
473.984	3.934	474676	PROB	3934.0	n/a	-999	-999	n/a	n/a	n/a	n/a	4	[8, 9, 3]	20	PAL1	2	R1333N
477.918	0.016	478610	STOP	n/a	n/a	-999	-999	n/a	n/a	n/a	n/a	4	[-999, -999, -999]	-999	PAL1	2	R1333N
477.934	0.694	478626	MATH_END	n/a	n/a	-999	-999	n/a	n/a	n/a	n/a	4	[0, 0, 0]	-999	PAL1	2	R1333N
478.628	0.002	479320	RETRIEVAL_START	n/a	n/a	-999	-999	n/a	n/a	n/a	n/a	4	[0, 0, 0]	-999	PAL1	2	R1333N
478.63	0.271	479322	ORIENT_START	n/a	n/a	-999	-999	n/a	n/a	n/a	n/a	4	[0, 0, 0]	-999	PAL1	2	R1333N
478.901	0.662	479593	ORIENT_END	n/a	n/a	-999	-999	n/a	n/a	n/a	n/a	4	[0, 0, 0]	-999	PAL1	2	R1333N
479.563	0.001	480255	REC_START	n/a	n/a	5	1	STEAM	n/a	STEAM	VAN	4	[0, 0, 0]	-999	PAL1	2	R1333N
479.564	4.0	480256	PROBE_START	n/a	wordpools/wordpool_EN.txt	5	1	STEAM	n/a	STEAM	VAN	4	[0, 0, 0]	-999	PAL1	2	R1333N
482.794	0.792	483486	REC_EVENT	3230.0	n/a	5	1	STEAM	<>	STEAM	VAN	4	[0, 0, 0]	-999	PAL1	2	R1333N
483.586	1.0	484278	PROBE_END	n/a	n/a	5	1	STEAM	n/a	STEAM	VAN	4	[0, 0, 0]	-999	PAL1	2	R1333N
484.586	0.012	485278	REC_END	n/a	n/a	5	1	STEAM	n/a	STEAM	VAN	4	[0, 0, 0]	-999	PAL1	2	R1333N
484.598	0.271	485290	ORIENT_START	n/a	n/a	-999	-999	n/a	n/a	n/a	n/a	4	[0, 0, 0]	-999	PAL1	2	R1333N
484.869	0.701	485561	ORIENT_END	n/a	n/a	-999	-999	n/a	n/a	n/a	n/a	4	[0, 0, 0]	-999	PAL1	2	R1333N
485.57	0.001	486262	REC_START	n/a	n/a	6	2	TAIL	n/a	RIB	TAIL	4	[0, 0, 0]	-999	PAL1	2	R1333N
485.571	4.0	486263	PROBE_START	n/a	wordpools/wordpool_EN.txt	6	2	TAIL	n/a	RIB	TAIL	4	[0, 0, 0]	-999	PAL1	2	R1333N
489.604	0.325	490296	PROBE_END	n/a	n/a	6	2	TAIL	n/a	RIB	TAIL	4	[0, 0, 0]	-999	PAL1	2	R1333N
489.929	0.676	490621	REC_EVENT	4358.0	n/a	6	2	TAIL	<>	RIB	TAIL	4	[0, 0, 0]	-999	PAL1	2	R1333N
490.605	0.012	491297	REC_END	n/a	n/a	6	2	TAIL	n/a	RIB	TAIL	4	[0, 0, 0]	-999	PAL1	2	R1333N
490.617	0.269	491309	ORIENT_START	n/a	n/a	-999	-999	n/a	n/a	n/a	n/a	4	[0, 0, 0]	-999	PAL1	2	R1333N
490.886	0.682	491578	ORIENT_END	n/a	n/a	-999	-999	n/a	n/a	n/a	n/a	4	[0, 0, 0]	-999	PAL1	2	R1333N
491.568	4.0	492260	PROBE_START	n/a	wordpools/wordpool_EN.txt	3	3	CAPE	CART	CAPE	CART	4	[0, 0, 0]	-999	PAL1	2	R1333N
491.568	1.707	492260	REC_START	n/a	n/a	3	3	CAPE	CART	CAPE	CART	4	[0, 0, 0]	-999	PAL1	2	R1333N
493.275	2.33	493966	REC_EVENT	1707.0	n/a	3	3	CAPE	CART	CAPE	CART	4	[0, 0, 0]	-999	PAL1	2	R1333N
495.605	0.999	496296	PROBE_END	n/a	n/a	3	3	CAPE	n/a	CAPE	CART	4	[0, 0, 0]	-999	PAL1	2	R1333N
496.604	0.011	497295	REC_END	n/a	n/a	3	3	CAPE	n/a	CAPE	CART	4	[0, 0, 0]	-999	PAL1	2	R1333N
496.615	0.272	497306	ORIENT_START	n/a	n/a	-999	-999	n/a	n/a	n/a	n/a	4	[0, 0, 0]	-999	PAL1	2	R1333N
496.887	0.655	497578	ORIENT_END	n/a	n/a	-999	-999	n/a	n/a	n/a	n/a	4	[0, 0, 0]	-999	PAL1	2	R1333N
497.542	0.0	498233	REC_START	n/a	n/a	4	4	ARK	BOY	BOY	ARK	4	[0, 0, 0]	-999	PAL1	2	R1333N
497.542	4.0	498233	PROBE_START	n/a	wordpools/wordpool_EN.txt	4	4	ARK	BOY	BOY	ARK	4	[0, 0, 0]	-999	PAL1	2	R1333N
500.004	1.569	500695	REC_EVENT	2462.0	n/a	4	4	ARK	BOY	BOY	ARK	4	[0, 0, 0]	-999	PAL1	2	R1333N
501.573	0.999	502264	PROBE_END	n/a	n/a	4	4	ARK	n/a	BOY	ARK	4	[0, 0, 0]	-999	PAL1	2	R1333N
502.572	0.013	503263	REC_END	n/a	n/a	4	4	ARK	n/a	BOY	ARK	4	[0, 0, 0]	-999	PAL1	2	R1333N
502.585	0.27	503276	ORIENT_START	n/a	n/a	-999	-999	n/a	n/a	n/a	n/a	4	[0, 0, 0]	-999	PAL1	2	R1333N
502.855	0.521	503546	ORIENT_END	n/a	n/a	-999	-999	n/a	n/a	n/a	n/a	4	[0, 0, 0]	-999	PAL1	2	R1333N
503.376	0.0	504067	REC_START	n/a	n/a	1	5	BLUSH	n/a	DIME	BLUSH	4	[0, 0, 0]	-999	PAL1	2	R1333N
503.376	4.0	504067	PROBE_START	n/a	wordpools/wordpool_EN.txt	1	5	BLUSH	n/a	DIME	BLUSH	4	[0, 0, 0]	-999	PAL1	2	R1333N
506.626	0.764	507317	REC_EVENT	3250.0	n/a	1	5	BLUSH	<>	DIME	BLUSH	4	[0, 0, 0]	-999	PAL1	2	R1333N
507.39	1.0	508081	PROBE_END	n/a	n/a	1	5	BLUSH	n/a	DIME	BLUSH	4	[0, 0, 0]	-999	PAL1	2	R1333N
508.39	0.009	509081	REC_END	n/a	n/a	1	5	BLUSH	n/a	DIME	BLUSH	4	[0, 0, 0]	-999	PAL1	2	R1333N
508.399	0.274	509090	ORIENT_START	n/a	n/a	-999	-999	n/a	n/a	n/a	n/a	4	[0, 0, 0]	-999	PAL1	2	R1333N
508.673	0.559	509364	ORIENT_END	n/a	n/a	-999	-999	n/a	n/a	n/a	n/a	4	[0, 0, 0]	-999	PAL1	2	R1333N
509.232	0.0	509923	REC_START	n/a	n/a	2	6	FOG	n/a	FOG	SIGN	4	[0, 0, 0]	-999	PAL1	2	R1333N
509.232	4.0	509923	PROBE_START	n/a	wordpools/wordpool_EN.txt	2	6	FOG	n/a	FOG	SIGN	4	[0, 0, 0]	-999	PAL1	2	R1333N
511.167	2.091	511858	REC_EVENT	1935.0	n/a	2	6	FOG	<>	FOG	SIGN	4	[0, 0, 0]	-999	PAL1	2	R1333N
513.258	1.001	513949	PROBE_END	n/a	n/a	2	6	FOG	n/a	FOG	SIGN	4	[0, 0, 0]	-999	PAL1	2	R1333N
514.259	0.009	514950	REC_END	n/a	n/a	2	6	FOG	n/a	FOG	SIGN	4	[0, 0, 0]	-999	PAL1	2	R1333N
514.268	0.001	514959	RETRIEVAL_END	n/a	n/a	-999	-999	n/a	n/a	n/a	n/a	4	[0, 0, 0]	-999	PAL1	2	R1333N
514.269	0.02	514960	TRIAL_END	n/a	n/a	-999	-999	n/a	n/a	n/a	n/a	4	[0, 0, 0]	-999	PAL1	2	R1333N
514.289	0.001	514980	TRIAL_START	n/a	n/a	-999	-999	n/a	n/a	n/a	n/a	4	[0, 0, 0]	-999	PAL1	2	R1333N
514.29	0.0	514981	WAITING_START	n/a	n/a	-999	-999	n/a	n/a	n/a	n/a	5	[0, 0, 0]	-999	PAL1	2	R1333N
514.29	12.386	514981	TRIAL	n/a	n/a	-999	-999	n/a	n/a	n/a	n/a	5	[0, 0, 0]	-999	PAL1	2	R1333N
526.676	0.0	527367	WAITING_END	n/a	n/a	-999	-999	n/a	n/a	n/a	n/a	5	[0, 0, 0]	-999	PAL1	2	R1333N
526.676	10.0	527367	COUNTDOWN_START	n/a	n/a	-999	-999	n/a	n/a	n/a	n/a	5	[0, 0, 0]	-999	PAL1	2	R1333N
537.105	0.0	537795	COUNTDOWN_END	n/a	n/a	-999	-999	n/a	n/a	n/a	n/a	5	[0, 0, 0]	-999	PAL1	2	R1333N
537.105	0.706	537795	ORIENT_START	n/a	n/a	-999	-999	n/a	n/a	n/a	n/a	5	[0, 0, 0]	-999	PAL1	2	R1333N
537.811	0.0	538501	ORIENT_END	n/a	n/a	-999	-999	n/a	n/a	n/a	n/a	5	[0, 0, 0]	-999	PAL1	2	R1333N
537.811	1.238	538501	ENCODING_START	n/a	n/a	-999	-999	n/a	n/a	n/a	n/a	5	[0, 0, 0]	-999	PAL1	2	R1333N
539.049	4.0	539739	STUDY_PAIR	n/a	wordpools/wordpool_EN.txt	1	-999	n/a	n/a	SHELL	CALF	5	[0, 0, 0]	-999	PAL1	2	R1333N
543.079	0.711	543769	STUDY_PAIR_OFF	n/a	n/a	1	-999	n/a	n/a	SHELL	CALF	5	[0, 0, 0]	-999	PAL1	2	R1333N
543.79	4.0	544480	STUDY_PAIR	n/a	wordpools/wordpool_EN.txt	2	-999	n/a	BOARD	BOARD	LIP	5	[0, 0, 0]	-999	PAL1	2	R1333N
547.829	0.586	548519	STUDY_PAIR_OFF	n/a	n/a	2	-999	n/a	BOARD	BOARD	LIP	5	[0, 0, 0]	-999	PAL1	2	R1333N
548.415	4.0	549105	STUDY_PAIR	n/a	wordpools/wordpool_EN.txt	3	-999	n/a	CHIEF	SMILE	CHIEF	5	[0, 0, 0]	-999	PAL1	2	R1333N
552.448	0.715	553138	STUDY_PAIR_OFF	n/a	n/a	3	-999	n/a	CHIEF	SMILE	CHIEF	5	[0, 0, 0]	-999	PAL1	2	R1333N
553.163	4.0	553853	STUDY_PAIR	n/a	wordpools/wordpool_EN.txt	4	-999	n/a	PIPE	PIPE	THUMB	5	[0, 0, 0]	-999	PAL1	2	R1333N
557.197	0.581	557887	STUDY_PAIR_OFF	n/a	n/a	4	-999	n/a	PIPE	PIPE	THUMB	5	[0, 0, 0]	-999	PAL1	2	R1333N
557.778	4.0	558468	STUDY_PAIR	n/a	wordpools/wordpool_EN.txt	5	-999	n/a	n/a	LAKE	SLEEVE	5	[0, 0, 0]	-999	PAL1	2	R1333N
561.815	0.74	562505	STUDY_PAIR_OFF	n/a	n/a	5	-999	n/a	n/a	LAKE	SLEEVE	5	[0, 0, 0]	-999	PAL1	2	R1333N
562.555	4.0	563245	STUDY_PAIR	n/a	wordpools/wordpool_EN.txt	6	-999	n/a	n/a	VEST	CLOTH	5	[0, 0, 0]	-999	PAL1	2	R1333N
566.583	0.001	567273	STUDY_PAIR_OFF	n/a	n/a	6	-999	n/a	n/a	VEST	CLOTH	5	[0, 0, 0]	-999	PAL1	2	R1333N
566.584	0.0	567274	MATH_START	n/a	n/a	-999	-999	n/a	n/a	n/a	n/a	5	[0, 0, 0]	-999	PAL1	2	R1333N
566.584	0.0	567274	ENCODING_END	n/a	n/a	-999	-999	n/a	n/a	n/a	n/a	5	[0, 0, 0]	-999	PAL1	2	R1333N
566.584	0.016	567274	START	n/a	n/a	-999	-999	n/a	n/a	n/a	n/a	5	[-999, -999, -999]	-999	PAL1	2	R1333N
566.6	5.516	567290	PROB	5486.0	n/a	-999	-999	n/a	n/a	n/a	n/a	5	[3, 1, 6]	10	PAL1	2	R1333N
572.116	5.286	572805	PROB	5251.0	n/a	-999	-999	n/a	n/a	n/a	n/a	5	[3, 9, 4]	16	PAL1	2	R1333N
577.402	5.583	578091	PROB	5548.0	n/a	-999	-999	n/a	n/a	n/a	n/a	5	[6, 2, 5]	14	PAL1	2	R1333N
582.985	4.237	583674	PROB	4237.0	n/a	-999	-999	n/a	n/a	n/a	n/a	5	[4, 3, 6]	13	PAL1	2	R1333N
587.222	0.015	587911	STOP	n/a	n/a	-999	-999	n/a	n/a	n/a	n/a	5	[-999, -999, -999]	-999	PAL1	2	R1333N
587.237	0.6	587926	MATH_END	n/a	n/a	-999	-999	n/a	n/a	n/a	n/a	5	[0, 0, 0]	-999	PAL1	2	R1333N
587.837	0.001	588526	RETRIEVAL_START	n/a	n/a	-999	-999	n/a	n/a	n/a	n/a	5	[0, 0, 0]	-999	PAL1	2	R1333N
587.838	0.281	588527	ORIENT_START	n/a	n/a	-999	-999	n/a	n/a	n/a	n/a	5	[0, 0, 0]	-999	PAL1	2	R1333N
588.119	0.548	588808	ORIENT_END	n/a	n/a	-999	-999	n/a	n/a	n/a	n/a	5	[0, 0, 0]	-999	PAL1	2	R1333N
588.667	0.0	589356	REC_START	n/a	n/a	1	1	SHELL	n/a	SHELL	CALF	5	[0, 0, 0]	-999	PAL1	2	R1333N
588.667	4.0	589356	PROBE_START	n/a	wordpools/wordpool_EN.txt	1	1	SHELL	n/a	SHELL	CALF	5	[0, 0, 0]	-999	PAL1	2	R1333N
592.279	0.424	592968	REC_EVENT	3612.0	n/a	1	1	SHELL	<>	SHELL	CALF	5	[0, 0, 0]	-999	PAL1	2	R1333N
592.703	1.0	593392	PROBE_END	n/a	n/a	1	1	SHELL	n/a	SHELL	CALF	5	[0, 0, 0]	-999	PAL1	2	R1333N
593.703	0.011	594392	REC_END	n/a	n/a	1	1	SHELL	n/a	SHELL	CALF	5	[0, 0, 0]	-999	PAL1	2	R1333N
593.714	0.273	594403	ORIENT_START	n/a	n/a	-999	-999	n/a	n/a	n/a	n/a	5	[0, 0, 0]	-999	PAL1	2	R1333N
593.987	0.74	594676	ORIENT_END	n/a	n/a	-999	-999	n/a	n/a	n/a	n/a	5	[0, 0, 0]	-999	PAL1	2	R1333N
594.727	0.001	595416	REC_START	n/a	n/a	6	2	VEST	n/a	VEST	CLOTH	5	[0, 0, 0]	-999	PAL1	2	R1333N
594.728	4.0	595417	PROBE_START	n/a	wordpools/wordpool_EN.txt	6	2	VEST	n/a	VEST	CLOTH	5	[0, 0, 0]	-999	PAL1	2	R1333N
598.54	0.214	599229	REC_EVENT	3812.0	n/a	6	2	VEST	<>	VEST	CLOTH	5	[0, 0, 0]	-999	PAL1	2	R1333N
598.754	1.0	599443	PROBE_END	n/a	n/a	6	2	VEST	n/a	VEST	CLOTH	5	[0, 0, 0]	-999	PAL1	2	R1333N
599.754	0.006	600443	REC_END	n/a	n/a	6	2	VEST	n/a	VEST	CLOTH	5	[0, 0, 0]	-999	PAL1	2	R1333N
599.76	0.278	600449	ORIENT_START	n/a	n/a	-999	-999	n/a	n/a	n/a	n/a	5	[0, 0, 0]	-999	PAL1	2	R1333N
600.038	0.552	600727	ORIENT_END	n/a	n/a	-999	-999	n/a	n/a	n/a	n/a	5	[0, 0, 0]	-999	PAL1	2	R1333N
600.59	0.001	601279	REC_START	n/a	n/a	5	3	SLEEVE	n/a	LAKE	SLEEVE	5	[0, 0, 0]	-999	PAL1	2	R1333N
600.591	4.0	601280	PROBE_START	n/a	wordpools/wordpool_EN.txt	5	3	SLEEVE	n/a	LAKE	SLEEVE	5	[0, 0, 0]	-999	PAL1	2	R1333N
603.534	1.089	604223	REC_EVENT	2943.0	n/a	5	3	SLEEVE	<>	LAKE	SLEEVE	5	[0, 0, 0]	-999	PAL1	2	R1333N
604.623	1.0	605312	PROBE_END	n/a	n/a	5	3	SLEEVE	n/a	LAKE	SLEEVE	5	[0, 0, 0]	-999	PAL1	2	R1333N
605.623	0.011	606311	REC_END	n/a	n/a	5	3	SLEEVE	n/a	LAKE	SLEEVE	5	[0, 0, 0]	-999	PAL1	2	R1333N
605.634	0.271	606322	ORIENT_START	n/a	n/a	-999	-999	n/a	n/a	n/a	n/a	5	[0, 0, 0]	-999	PAL1	2	R1333N
605.905	0.526	606593	ORIENT_END	n/a	n/a	-999	-999	n/a	n/a	n/a	n/a	5	[0, 0, 0]	-999	PAL1	2	R1333N
606.431	0.0	607119	REC_START	n/a	n/a	2	4	LIP	BOARD	BOARD	LIP	5	[0, 0, 0]	-999	PAL1	2	R1333N
606.431	4.0	607119	PROBE_START	n/a	wordpools/wordpool_EN.txt	2	4	LIP	BOARD	BOARD	LIP	5	[0, 0, 0]	-999	PAL1	2	R1333N
608.275	2.182	608963	REC_EVENT	1844.0	n/a	2	4	LIP	BOARD	BOARD	LIP	5	[0, 0, 0]	-999	PAL1	2	R1333N
610.457	1.001	611145	PROBE_END	n/a	n/a	2	4	LIP	n/a	BOARD	LIP	5	[0, 0, 0]	-999	PAL1	2	R1333N
611.458	0.011	612146	REC_END	n/a	n/a	2	4	LIP	n/a	BOARD	LIP	5	[0, 0, 0]	-999	PAL1	2	R1333N
611.469	0.271	612157	ORIENT_START	n/a	n/a	-999	-999	n/a	n/a	n/a	n/a	5	[0, 0, 0]	-999	PAL1	2	R1333N
611.74	0.618	612428	ORIENT_END	n/a	n/a	-999	-999	n/a	n/a	n/a	n/a	5	[0, 0, 0]	-999	PAL1	2	R1333N
612.358	0.0	613046	REC_START	n/a	n/a	3	5	SMILE	CHIEF	SMILE	CHIEF	5	[0, 0, 0]	-999	PAL1	2	R1333N
612.358	4.0	613046	PROBE_START	n/a	wordpools/wordpool_EN.txt	3	5	SMILE	CHIEF	SMILE	CHIEF	5	[0, 0, 0]	-999	PAL1	2	R1333N
615.293	1.099	615981	REC_EVENT	2935.0	n/a	3	5	SMILE	CHIEF	SMILE	CHIEF	5	[0, 0, 0]	-999	PAL1	2	R1333N
616.392	1.0	617080	PROBE_END	n/a	n/a	3	5	SMILE	n/a	SMILE	CHIEF	5	[0, 0, 0]	-999	PAL1	2	R1333N
617.392	0.012	618080	REC_END	n/a	n/a	3	5	SMILE	n/a	SMILE	CHIEF	5	[0, 0, 0]	-999	PAL1	2	R1333N
617.404	0.27	618092	ORIENT_START	n/a	n/a	-999	-999	n/a	n/a	n/a	n/a	5	[0, 0, 0]	-999	PAL1	2	R1333N
617.674	0.514	618362	ORIENT_END	n/a	n/a	-999	-999	n/a	n/a	n/a	n/a	5	[0, 0, 0]	-999	PAL1	2	R1333N
618.188	0.0	618876	REC_START	n/a	n/a	4	6	THUMB	PIPE	PIPE	THUMB	5	[0, 0, 0]	-999	PAL1	2	R1333N
618.188	4.0	618876	PROBE_START	n/a	wordpools/wordpool_EN.txt	4	6	THUMB	PIPE	PIPE	THUMB	5	[0, 0, 0]	-999	PAL1	2	R1333N
621.123	1.103	621811	REC_EVENT	2935.0	n/a	4	6	THUMB	PIPE	PIPE	THUMB	5	[0, 0, 0]	-999	PAL1	2	R1333N
622.226	1.0	622914	PROBE_END	n/a	n/a	4	6	THUMB	n/a	PIPE	THUMB	5	[0, 0, 0]	-999	PAL1	2	R1333N
623.226	0.009	623914	REC_END	n/a	n/a	4	6	THUMB	n/a	PIPE	THUMB	5	[0, 0, 0]	-999	PAL1	2	R1333N
623.235	0.001	623923	RETRIEVAL_END	n/a	n/a	-999	-999	n/a	n/a	n/a	n/a	5	[0, 0, 0]	-999	PAL1	2	R1333N
623.236	0.018	623924	TRIAL_END	n/a	n/a	-999	-999	n/a	n/a	n/a	n/a	5	[0, 0, 0]	-999	PAL1	2	R1333N
623.254	0.001	623942	TRIAL_START	n/a	n/a	-999	-999	n/a	n/a	n/a	n/a	5	[0, 0, 0]	-999	PAL1	2	R1333N
623.255	0.0	623943	WAITING_START	n/a	n/a	-999	-999	n/a	n/a	n/a	n/a	6	[0, 0, 0]	-999	PAL1	2	R1333N
623.255	6.305	623943	TRIAL	n/a	n/a	-999	-999	n/a	n/a	n/a	n/a	6	[0, 0, 0]	-999	PAL1	2	R1333N
629.56	0.001	630248	WAITING_END	n/a	n/a	-999	-999	n/a	n/a	n/a	n/a	6	[0, 0, 0]	-999	PAL1	2	R1333N
629.561	10.0	630249	COUNTDOWN_START	n/a	n/a	-999	-999	n/a	n/a	n/a	n/a	6	[0, 0, 0]	-999	PAL1	2	R1333N
639.99	0.0	640678	COUNTDOWN_END	n/a	n/a	-999	-999	n/a	n/a	n/a	n/a	6	[0, 0, 0]	-999	PAL1	2	R1333N
639.99	0.606	640678	ORIENT_START	n/a	n/a	-999	-999	n/a	n/a	n/a	n/a	6	[0, 0, 0]	-999	PAL1	2	R1333N
640.596	0.0	641284	ORIENT_END	n/a	n/a	-999	-999	n/a	n/a	n/a	n/a	6	[0, 0, 0]	-999	PAL1	2	R1333N
640.596	1.231	641284	ENCODING_START	n/a	n/a	-999	-999	n/a	n/a	n/a	n/a	6	[0, 0, 0]	-999	PAL1	2	R1333N
641.827	4.0	642515	STUDY_PAIR	n/a	wordpools/wordpool_EN.txt	1	-999	n/a	n/a	CHALK	STEM	6	[0, 0, 0]	-999	PAL1	2	R1333N
645.862	0.55	646549	STUDY_PAIR_OFF	n/a	n/a	1	-999	n/a	n/a	CHALK	STEM	6	[0, 0, 0]	-999	PAL1	2	R1333N
646.412	4.0	647099	STUDY_PAIR	n/a	wordpools/wordpool_EN.txt	2	-999	n/a	n/a	SKY	GRAPE	6	[0, 0, 0]	-999	PAL1	2	R1333N
650.447	0.747	651134	STUDY_PAIR_OFF	n/a	n/a	2	-999	n/a	n/a	SKY	GRAPE	6	[0, 0, 0]	-999	PAL1	2	R1333N
651.194	4.0	651881	STUDY_PAIR	n/a	wordpools/wordpool_EN.txt	3	-999	n/a	COUCH	BOX	COUCH	6	[0, 0, 0]	-999	PAL1	2	R1333N
655.231	0.734	655918	STUDY_PAIR_OFF	n/a	n/a	3	-999	n/a	COUCH	BOX	COUCH	6	[0, 0, 0]	-999	PAL1	2	R1333N
655.965	4.0	656652	STUDY_PAIR	n/a	wordpools/wordpool_EN.txt	4	-999	n/a	ARM	MAT	ARM	6	[0, 0, 0]	-999	PAL1	2	R1333N
659.998	0.53	660685	STUDY_PAIR_OFF	n/a	n/a	4	-999	n/a	ARM	MAT	ARM	6	[0, 0, 0]	-999	PAL1	2	R1333N
660.528	4.0	661215	STUDY_PAIR	n/a	wordpools/wordpool_EN.txt	5	-999	n/a	n/a	PLANT	BIRD	6	[0, 0, 0]	-999	PAL1	2	R1333N
664.566	0.695	665253	STUDY_PAIR_OFF	n/a	n/a	5	-999	n/a	n/a	PLANT	BIRD	6	[0, 0, 0]	-999	PAL1	2	R1333N
665.261	4.0	665948	STUDY_PAIR	n/a	wordpools/wordpool_EN.txt	6	-999	n/a	TRUCK	TRUCK	APE	6	[0, 0, 0]	-999	PAL1	2	R1333N
669.3	0.001	669987	STUDY_PAIR_OFF	n/a	n/a	6	-999	n/a	TRUCK	TRUCK	APE	6	[0, 0, 0]	-999	PAL1	2	R1333N
669.301	0.0	669988	MATH_START	n/a	n/a	-999	-999	n/a	n/a	n/a	n/a	6	[0, 0, 0]	-999	PAL1	2	R1333N
669.301	0.0	669988	ENCODING_END	n/a	n/a	-999	-999	n/a	n/a	n/a	n/a	6	[0, 0, 0]	-999	PAL1	2	R1333N
669.301	0.016	669988	START	n/a	n/a	-999	-999	n/a	n/a	n/a	n/a	6	[-999, -999, -999]	-999	PAL1	2	R1333N
669.317	4.433	670004	PROB	4409.0	n/a	-999	-999	n/a	n/a	n/a	n/a	6	[8, 4, 9]	21	PAL1	2	R1333N
673.75	3.45	674437	PROB	3423.0	n/a	-999	-999	n/a	n/a	n/a	n/a	6	[3, 5, 6]	14	PAL1	2	R1333N
677.2	3.335	677887	PROB	3311.0	n/a	-999	-999	n/a	n/a	n/a	n/a	6	[1, 8, 2]	11	PAL1	2	R1333N
680.535	4.15	681222	PROB	4120.0	n/a	-999	-999	n/a	n/a	n/a	n/a	6	[7, 3, 7]	17	PAL1	2	R1333N
684.685	6.353	685371	PROB	6353.0	n/a	-999	-999	n/a	n/a	n/a	n/a	6	[8, 1, 6]	15	PAL1	2	R1333N
691.038	0.015	691724	STOP	n/a	n/a	-999	-999	n/a	n/a	n/a	n/a	6	[-999, -999, -999]	-999	PAL1	2	R1333N
691.053	0.569	691739	MATH_END	n/a	n/a	-999	-999	n/a	n/a	n/a	n/a	6	[0, 0, 0]	-999	PAL1	2	R1333N
691.622	0.001	692308	RETRIEVAL_START	n/a	n/a	-999	-999	n/a	n/a	n/a	n/a	6	[0, 0, 0]	-999	PAL1	2	R1333N
691.623	0.28	692309	ORIENT_START	n/a	n/a	-999	-999	n/a	n/a	n/a	n/a	6	[0, 0, 0]	-999	PAL1	2	R1333N
691.903	0.664	692589	ORIENT_END	n/a	n/a	-999	-999	n/a	n/a	n/a	n/a	6	[0, 0, 0]	-999	PAL1	2	R1333N
692.567	0.0	693253	REC_START	n/a	n/a	1	1	STEM	n/a	CHALK	STEM	6	[0, 0, 0]	-999	PAL1	2	R1333N
692.567	4.0	693253	PROBE_START	n/a	wordpools/wordpool_EN.txt	1	1	STEM	n/a	CHALK	STEM	6	[0, 0, 0]	-999	PAL1	2	R1333N
695.694	0.911	696380	REC_EVENT	3127.0	n/a	1	1	STEM	<>	CHALK	STEM	6	[0, 0, 0]	-999	PAL1	2	R1333N
696.605	1.001	697291	PROBE_END	n/a	n/a	1	1	STEM	n/a	CHALK	STEM	6	[0, 0, 0]	-999	PAL1	2	R1333N
697.606	0.012	698292	REC_END	n/a	n/a	1	1	STEM	n/a	CHALK	STEM	6	[0, 0, 0]	-999	PAL1	2	R1333N
697.618	0.269	698304	ORIENT_START	n/a	n/a	-999	-999	n/a	n/a	n/a	n/a	6	[0, 0, 0]	-999	PAL1	2	R1333N
697.887	0.624	698573	ORIENT_END	n/a	n/a	-999	-999	n/a	n/a	n/a	n/a	6	[0, 0, 0]	-999	PAL1	2	R1333N
698.511	0.001	699197	REC_START	n/a	n/a	2	2	SKY	n/a	SKY	GRAPE	6	[0, 0, 0]	-999	PAL1	2	R1333N
698.512	4.0	699198	PROBE_START	n/a	wordpools/wordpool_EN.txt	2	2	SKY	n/a	SKY	GRAPE	6	[0, 0, 0]	-999	PAL1	2	R1333N
702.539	1.001	703225	PROBE_END	n/a	n/a	2	2	SKY	n/a	SKY	GRAPE	6	[0, 0, 0]	-999	PAL1	2	R1333N
703.54	0.012	704226	REC_END	n/a	n/a	2	2	SKY	n/a	SKY	GRAPE	6	[0, 0, 0]	-999	PAL1	2	R1333N
703.552	0.27	704238	ORIENT_START	n/a	n/a	-999	-999	n/a	n/a	n/a	n/a	6	[0, 0, 0]	-999	PAL1	2	R1333N
703.822	0.556	704508	ORIENT_END	n/a	n/a	-999	-999	n/a	n/a	n/a	n/a	6	[0, 0, 0]	-999	PAL1	2	R1333N
704.378	0.185	705064	REC_EVENT	5866.0	n/a	2	2	SKY	<>	SKY	GRAPE	6	[0, 0, 0]	-999	PAL1	2	R1333N
704.563	4.0	705249	PROBE_START	n/a	wordpools/wordpool_EN.txt	5	3	BIRD	n/a	PLANT	BIRD	6	[0, 0, 0]	-999	PAL1	2	R1333N
704.563	4.027	705249	REC_START	n/a	n/a	5	3	BIRD	n/a	PLANT	BIRD	6	[0, 0, 0]	-999	PAL1	2	R1333N
708.59	1.0	709276	PROBE_END	n/a	n/a	5	3	BIRD	n/a	PLANT	BIRD	6	[0, 0, 0]	-999	PAL1	2	R1333N
709.59	0.007	710276	REC_END	n/a	n/a	5	3	BIRD	n/a	PLANT	BIRD	6	[0, 0, 0]	-999	PAL1	2	R1333N
709.597	0.276	710283	ORIENT_START	n/a	n/a	-999	-999	n/a	n/a	n/a	n/a	6	[0, 0, 0]	-999	PAL1	2	R1333N
709.873	0.532	710559	ORIENT_END	n/a	n/a	-999	-999	n/a	n/a	n/a	n/a	6	[0, 0, 0]	-999	PAL1	2	R1333N
710.405	0.0	711091	REC_START	n/a	n/a	4	4	MAT	ARM	MAT	ARM	6	[0, 0, 0]	-999	PAL1	2	R1333N
710.405	4.0	711091	PROBE_START	n/a	wordpools/wordpool_EN.txt	4	4	MAT	ARM	MAT	ARM	6	[0, 0, 0]	-999	PAL1	2	R1333N
710.555	1.986	711241	REC_EVENT	5992.0	n/a	5	3	BIRD	<>	PLANT	BIRD	6	[0, 0, 0]	-999	PAL1	2	R1333N
712.541	1.9	713227	REC_EVENT	2136.0	n/a	4	4	MAT	ARM	MAT	ARM	6	[0, 0, 0]	-999	PAL1	2	R1333N
714.441	1.0	715127	PROBE_END	n/a	n/a	4	4	MAT	n/a	MAT	ARM	6	[0, 0, 0]	-999	PAL1	2	R1333N
715.441	0.012	716127	REC_END	n/a	n/a	4	4	MAT	n/a	MAT	ARM	6	[0, 0, 0]	-999	PAL1	2	R1333N
715.453	0.271	716139	ORIENT_START	n/a	n/a	-999	-999	n/a	n/a	n/a	n/a	6	[0, 0, 0]	-999	PAL1	2	R1333N
715.724	0.653	716410	ORIENT_END	n/a	n/a	-999	-999	n/a	n/a	n/a	n/a	6	[0, 0, 0]	-999	PAL1	2	R1333N
716.377	0.001	717063	REC_START	n/a	n/a	3	5	BOX	COUCH	BOX	COUCH	6	[0, 0, 0]	-999	PAL1	2	R1333N
716.378	4.0	717064	PROBE_START	n/a	wordpools/wordpool_EN.txt	3	5	BOX	COUCH	BOX	COUCH	6	[0, 0, 0]	-999	PAL1	2	R1333N
719.086	1.323	719771	REC_EVENT	2708.0	n/a	3	5	BOX	COUCH	BOX	COUCH	6	[0, 0, 0]	-999	PAL1	2	R1333N
720.409	1.0	721094	PROBE_END	n/a	n/a	3	5	BOX	n/a	BOX	COUCH	6	[0, 0, 0]	-999	PAL1	2	R1333N
721.409	0.013	722094	REC_END	n/a	n/a	3	5	BOX	n/a	BOX	COUCH	6	[0, 0, 0]	-999	PAL1	2	R1333N
721.422	0.269	722107	ORIENT_START	n/a	n/a	-999	-999	n/a	n/a	n/a	n/a	6	[0, 0, 0]	-999	PAL1	2	R1333N
721.691	0.54	722376	ORIENT_END	n/a	n/a	-999	-999	n/a	n/a	n/a	n/a	6	[0, 0, 0]	-999	PAL1	2	R1333N
722.231	0.0	722916	REC_START	n/a	n/a	6	6	APE	TRUCK	TRUCK	APE	6	[0, 0, 0]	-999	PAL1	2	R1333N
722.231	4.0	722916	PROBE_START	n/a	wordpools/wordpool_EN.txt	6	6	APE	TRUCK	TRUCK	APE	6	[0, 0, 0]	-999	PAL1	2	R1333N
725.416	0.391	726101	REC_EVENT	3185.0	n/a	6	6	APE	<>	TRUCK	APE	6	[0, 0, 0]	-999	PAL1	2	R1333N
725.807	0.453	726492	REC_EVENT	3576.0	n/a	6	6	APE	TRUCK	TRUCK	APE	6	[0, 0, 0]	-999	PAL1	2	R1333N
726.26	1.0	726945	PROBE_END	n/a	n/a	6	6	APE	n/a	TRUCK	APE	6	[0, 0, 0]	-999	PAL1	2	R1333N
727.26	0.011	727945	REC_END	n/a	n/a	6	6	APE	n/a	TRUCK	APE	6	[0, 0, 0]	-999	PAL1	2	R1333N
727.271	0.0	727956	RETRIEVAL_END	n/a	n/a	-999	-999	n/a	n/a	n/a	n/a	6	[0, 0, 0]	-999	PAL1	2	R1333N
727.271	0.022	727956	TRIAL_END	n/a	n/a	-999	-999	n/a	n/a	n/a	n/a	6	[0, 0, 0]	-999	PAL1	2	R1333N
727.293	0.0	727978	TRIAL	n/a	n/a	-999	-999	n/a	n/a	n/a	n/a	7	[0, 0, 0]	-999	PAL1	2	R1333N
727.293	0.0	727978	WAITING_START	n/a	n/a	-999	-999	n/a	n/a	n/a	n/a	7	[0, 0, 0]	-999	PAL1	2	R1333N
727.293	19.369	727978	TRIAL_START	n/a	n/a	-999	-999	n/a	n/a	n/a	n/a	6	[0, 0, 0]	-999	PAL1	2	R1333N
746.662	0.001	747347	WAITING_END	n/a	n/a	-999	-999	n/a	n/a	n/a	n/a	7	[0, 0, 0]	-999	PAL1	2	R1333N
746.663	10.0	747348	COUNTDOWN_START	n/a	n/a	-999	-999	n/a	n/a	n/a	n/a	7	[0, 0, 0]	-999	PAL1	2	R1333N
757.092	0.0	757776	COUNTDOWN_END	n/a	n/a	-999	-999	n/a	n/a	n/a	n/a	7	[0, 0, 0]	-999	PAL1	2	R1333N
757.092	0.722	757776	ORIENT_START	n/a	n/a	-999	-999	n/a	n/a	n/a	n/a	7	[0, 0, 0]	-999	PAL1	2	R1333N
757.814	0.0	758498	ORIENT_END	n/a	n/a	-999	-999	n/a	n/a	n/a	n/a	7	[0, 0, 0]	-999	PAL1	2	R1333N
757.814	1.244	758498	ENCODING_START	n/a	n/a	-999	-999	n/a	n/a	n/a	n/a	7	[0, 0, 0]	-999	PAL1	2	R1333N
759.058	4.0	759742	STUDY_PAIR	n/a	wordpools/wordpool_EN.txt	1	-999	n/a	n/a	PLATE	CANE	7	[0, 0, 0]	-999	PAL1	2	R1333N
763.081	0.744	763765	STUDY_PAIR_OFF	n/a	n/a	1	-999	n/a	n/a	PLATE	CANE	7	[0, 0, 0]	-999	PAL1	2	R1333N
763.825	4.0	764509	STUDY_PAIR	n/a	wordpools/wordpool_EN.txt	2	-999	n/a	n/a	WEED	FUR	7	[0, 0, 0]	-999	PAL1	2	R1333N
767.866	0.668	768550	STUDY_PAIR_OFF	n/a	n/a	2	-999	n/a	n/a	WEED	FUR	7	[0, 0, 0]	-999	PAL1	2	R1333N
768.534	4.0	769218	STUDY_PAIR	n/a	wordpools/wordpool_EN.txt	3	-999	n/a	n/a	AXE	MILK	7	[0, 0, 0]	-999	PAL1	2	R1333N
772.567	0.51	773251	STUDY_PAIR_OFF	n/a	n/a	3	-999	n/a	n/a	AXE	MILK	7	[0, 0, 0]	-999	PAL1	2	R1333N
773.077	4.0	773761	STUDY_PAIR	n/a	wordpools/wordpool_EN.txt	4	-999	n/a	n/a	BRUSH	BEAR	7	[0, 0, 0]	-999	PAL1	2	R1333N
777.1	0.707	777784	STUDY_PAIR_OFF	n/a	n/a	4	-999	n/a	n/a	BRUSH	BEAR	7	[0, 0, 0]	-999	PAL1	2	R1333N
777.807	4.0	778491	STUDY_PAIR	n/a	wordpools/wordpool_EN.txt	5	-999	n/a	JUICE	BAT	JUICE	7	[0, 0, 0]	-999	PAL1	2	R1333N
781.834	0.626	782518	STUDY_PAIR_OFF	n/a	n/a	5	-999	n/a	JUICE	BAT	JUICE	7	[0, 0, 0]	-999	PAL1	2	R1333N
782.46	4.0	783144	STUDY_PAIR	n/a	wordpools/wordpool_EN.txt	6	-999	n/a	FOOT	BALL	FOOT	7	[0, 0, 0]	-999	PAL1	2	R1333N
786.486	0.001	787170	STUDY_PAIR_OFF	n/a	n/a	6	-999	n/a	FOOT	BALL	FOOT	7	[0, 0, 0]	-999	PAL1	2	R1333N
786.487	0.0	787171	MATH_START	n/a	n/a	-999	-999	n/a	n/a	n/a	n/a	7	[0, 0, 0]	-999	PAL1	2	R1333N
786.487	0.0	787171	ENCODING_END	n/a	n/a	-999	-999	n/a	n/a	n/a	n/a	7	[0, 0, 0]	-999	PAL1	2	R1333N
786.487	0.016	787171	START	n/a	n/a	-999	-999	n/a	n/a	n/a	n/a	7	[-999, -999, -999]	-999	PAL1	2	R1333N
786.503	5.416	787187	PROB	5391.0	n/a	-999	-999	n/a	n/a	n/a	n/a	7	[7, 1, 8]	16	PAL1	2	R1333N
791.919	12.72	792603	PROB	12688.0	n/a	-999	-999	n/a	n/a	n/a	n/a	7	[3, 3, 5]	11	PAL1	2	R1333N
804.639	2.727	805322	PROB	2727.0	n/a	-999	-999	n/a	n/a	n/a	n/a	7	[1, 6, 4]	11	PAL1	2	R1333N
807.366	0.007	808049	STOP	n/a	n/a	-999	-999	n/a	n/a	n/a	n/a	7	[-999, -999, -999]	-999	PAL1	2	R1333N
807.373	0.682	808056	MATH_END	n/a	n/a	-999	-999	n/a	n/a	n/a	n/a	7	[0, 0, 0]	-999	PAL1	2	R1333N
808.055	0.002	808738	RETRIEVAL_START	n/a	n/a	-999	-999	n/a	n/a	n/a	n/a	7	[0, 0, 0]	-999	PAL1	2	R1333N
808.057	0.283	808740	ORIENT_START	n/a	n/a	-999	-999	n/a	n/a	n/a	n/a	7	[0, 0, 0]	-999	PAL1	2	R1333N
808.34	0.699	809023	ORIENT_END	n/a	n/a	-999	-999	n/a	n/a	n/a	n/a	7	[0, 0, 0]	-999	PAL1	2	R1333N
809.039	0.0	809722	REC_START	n/a	n/a	1	1	CANE	n/a	PLATE	CANE	7	[0, 0, 0]	-999	PAL1	2	R1333N
809.039	4.0	809722	PROBE_START	n/a	wordpools/wordpool_EN.txt	1	1	CANE	n/a	PLATE	CANE	7	[0, 0, 0]	-999	PAL1	2	R1333N
812.724	0.349	813407	REC_EVENT	3685.0	n/a	1	1	CANE	<>	PLATE	CANE	7	[0, 0, 0]	-999	PAL1	2	R1333N
813.073	1.001	813756	PROBE_END	n/a	n/a	1	1	CANE	n/a	PLATE	CANE	7	[0, 0, 0]	-999	PAL1	2	R1333N
814.074	0.012	814757	REC_END	n/a	n/a	1	1	CANE	n/a	PLATE	CANE	7	[0, 0, 0]	-999	PAL1	2	R1333N
814.086	0.272	814769	ORIENT_START	n/a	n/a	-999	-999	n/a	n/a	n/a	n/a	7	[0, 0, 0]	-999	PAL1	2	R1333N
814.358	0.633	815041	ORIENT_END	n/a	n/a	-999	-999	n/a	n/a	n/a	n/a	7	[0, 0, 0]	-999	PAL1	2	R1333N
814.991	0.001	815674	REC_START	n/a	n/a	2	2	FUR	n/a	WEED	FUR	7	[0, 0, 0]	-999	PAL1	2	R1333N
814.992	4.0	815675	PROBE_START	n/a	wordpools/wordpool_EN.txt	2	2	FUR	n/a	WEED	FUR	7	[0, 0, 0]	-999	PAL1	2	R1333N
819.024	1.001	819707	PROBE_END	n/a	n/a	2	2	FUR	n/a	WEED	FUR	7	[0, 0, 0]	-999	PAL1	2	R1333N
820.025	0.011	820708	REC_END	n/a	n/a	2	2	FUR	n/a	WEED	FUR	7	[0, 0, 0]	-999	PAL1	2	R1333N
820.036	0.256	820719	ORIENT_START	n/a	n/a	-999	-999	n/a	n/a	n/a	n/a	7	[0, 0, 0]	-999	PAL1	2	R1333N
820.292	0.588	820975	ORIENT_END	n/a	n/a	-999	-999	n/a	n/a	n/a	n/a	7	[0, 0, 0]	-999	PAL1	2	R1333N
820.88	0.028	821563	REC_EVENT	5888.0	n/a	2	2	FUR	<>	WEED	FUR	7	[0, 0, 0]	-999	PAL1	2	R1333N
820.908	0.001	821591	REC_START	n/a	n/a	3	3	AXE	n/a	AXE	MILK	7	[0, 0, 0]	-999	PAL1	2	R1333N
820.909	4.0	821592	PROBE_START	n/a	wordpools/wordpool_EN.txt	3	3	AXE	n/a	AXE	MILK	7	[0, 0, 0]	-999	PAL1	2	R1333N
824.942	0.634	825625	PROBE_END	n/a	n/a	3	3	AXE	n/a	AXE	MILK	7	[0, 0, 0]	-999	PAL1	2	R1333N
825.576	0.366	826259	REC_EVENT	4667.0	n/a	3	3	AXE	<>	AXE	MILK	7	[0, 0, 0]	-999	PAL1	2	R1333N
825.942	0.012	826625	REC_END	n/a	n/a	3	3	AXE	n/a	AXE	MILK	7	[0, 0, 0]	-999	PAL1	2	R1333N
825.954	0.272	826637	ORIENT_START	n/a	n/a	-999	-999	n/a	n/a	n/a	n/a	7	[0, 0, 0]	-999	PAL1	2	R1333N
826.226	0.523	826909	ORIENT_END	n/a	n/a	-999	-999	n/a	n/a	n/a	n/a	7	[0, 0, 0]	-999	PAL1	2	R1333N
826.749	0.001	827432	REC_START	n/a	n/a	6	4	BALL	FOOT	BALL	FOOT	7	[0, 0, 0]	-999	PAL1	2	R1333N
826.75	4.0	827433	PROBE_START	n/a	wordpools/wordpool_EN.txt	6	4	BALL	FOOT	BALL	FOOT	7	[0, 0, 0]	-999	PAL1	2	R1333N
828.412	2.364	829095	REC_EVENT	1662.0	n/a	6	4	BALL	FOOT	BALL	FOOT	7	[0, 0, 0]	-999	PAL1	2	R1333N
830.776	1.0	831459	PROBE_END	n/a	n/a	6	4	BALL	n/a	BALL	FOOT	7	[0, 0, 0]	-999	PAL1	2	R1333N
831.776	0.012	832459	REC_END	n/a	n/a	6	4	BALL	n/a	BALL	FOOT	7	[0, 0, 0]	-999	PAL1	2	R1333N
831.788	0.271	832470	ORIENT_START	n/a	n/a	-999	-999	n/a	n/a	n/a	n/a	7	[0, 0, 0]	-999	PAL1	2	R1333N
832.059	0.653	832741	ORIENT_END	n/a	n/a	-999	-999	n/a	n/a	n/a	n/a	7	[0, 0, 0]	-999	PAL1	2	R1333N
832.712	0.001	833394	REC_START	n/a	n/a	5	5	BAT	JUICE	BAT	JUICE	7	[0, 0, 0]	-999	PAL1	2	R1333N
832.713	4.0	833395	PROBE_START	n/a	wordpools/wordpool_EN.txt	5	5	BAT	JUICE	BAT	JUICE	7	[0, 0, 0]	-999	PAL1	2	R1333N
835.371	1.373	836053	REC_EVENT	2658.0	n/a	5	5	BAT	JUICE	BAT	JUICE	7	[0, 0, 0]	-999	PAL1	2	R1333N
836.744	0.999	837426	PROBE_END	n/a	n/a	5	5	BAT	n/a	BAT	JUICE	7	[0, 0, 0]	-999	PAL1	2	R1333N
837.743	0.012	838425	REC_END	n/a	n/a	5	5	BAT	n/a	BAT	JUICE	7	[0, 0, 0]	-999	PAL1	2	R1333N
837.755	0.272	838437	ORIENT_START	n/a	n/a	-999	-999	n/a	n/a	n/a	n/a	7	[0, 0, 0]	-999	PAL1	2	R1333N
838.027	0.603	838709	ORIENT_END	n/a	n/a	-999	-999	n/a	n/a	n/a	n/a	7	[0, 0, 0]	-999	PAL1	2	R1333N
838.63	0.0	839312	REC_START	n/a	n/a	4	6	BEAR	n/a	BRUSH	BEAR	7	[0, 0, 0]	-999	PAL1	2	R1333N
838.63	4.0	839312	PROBE_START	n/a	wordpools/wordpool_EN.txt	4	6	BEAR	n/a	BRUSH	BEAR	7	[0, 0, 0]	-999	PAL1	2	R1333N
842.661	1.001	843343	PROBE_END	n/a	n/a	4	6	BEAR	n/a	BRUSH	BEAR	7	[0, 0, 0]	-999	PAL1	2	R1333N
843.662	0.011	844344	REC_END	n/a	n/a	4	6	BEAR	n/a	BRUSH	BEAR	7	[0, 0, 0]	-999	PAL1	2	R1333N
843.673	0.001	844355	RETRIEVAL_END	n/a	n/a	-999	-999	n/a	n/a	n/a	n/a	7	[0, 0, 0]	-999	PAL1	2	R1333N
843.674	0.022	844356	TRIAL_END	n/a	n/a	-999	-999	n/a	n/a	n/a	n/a	7	[0, 0, 0]	-999	PAL1	2	R1333N
843.696	0.0	844378	TRIAL	n/a	n/a	-999	-999	n/a	n/a	n/a	n/a	8	[0, 0, 0]	-999	PAL1	2	R1333N
843.696	0.0	844378	WAITING_START	n/a	n/a	-999	-999	n/a	n/a	n/a	n/a	8	[0, 0, 0]	-999	PAL1	2	R1333N
843.696	0.474	844378	TRIAL_START	n/a	n/a	-999	-999	n/a	n/a	n/a	n/a	7	[0, 0, 0]	-999	PAL1	2	R1333N
844.17	13.461	844852	REC_EVENT	5540.0	n/a	4	6	BEAR	<>	BRUSH	BEAR	7	[0, 0, 0]	-999	PAL1	2	R1333N
857.631	0.001	858313	WAITING_END	n/a	n/a	-999	-999	n/a	n/a	n/a	n/a	8	[0, 0, 0]	-999	PAL1	2	R1333N
857.632	10.0	858314	COUNTDOWN_START	n/a	n/a	-999	-999	n/a	n/a	n/a	n/a	8	[0, 0, 0]	-999	PAL1	2	R1333N
868.061	0.0	868743	COUNTDOWN_END	n/a	n/a	-999	-999	n/a	n/a	n/a	n/a	8	[0, 0, 0]	-999	PAL1	2	R1333N
868.061	0.589	868743	ORIENT_START	n/a	n/a	-999	-999	n/a	n/a	n/a	n/a	8	[0, 0, 0]	-999	PAL1	2	R1333N
868.65	0.0	869332	ORIENT_END	n/a	n/a	-999	-999	n/a	n/a	n/a	n/a	8	[0, 0, 0]	-999	PAL1	2	R1333N
868.65	1.109	869332	ENCODING_START	n/a	n/a	-999	-999	n/a	n/a	n/a	n/a	8	[0, 0, 0]	-999	PAL1	2	R1333N
869.759	4.0	870440	STUDY_PAIR	n/a	wordpools/wordpool_EN.txt	1	-999	n/a	STRAW	STORE	STRAW	8	[0, 0, 0]	-999	PAL1	2	R1333N
873.8	0.659	874481	STUDY_PAIR_OFF	n/a	n/a	1	-999	n/a	STRAW	STORE	STRAW	8	[0, 0, 0]	-999	PAL1	2	R1333N
874.459	4.0	875140	STUDY_PAIR	n/a	wordpools/wordpool_EN.txt	2	-999	n/a	MOLE	POND	MOLE	8	[0, 0, 0]	-999	PAL1	2	R1333N
878.485	0.555	879166	STUDY_PAIR_OFF	n/a	n/a	2	-999	n/a	MOLE	POND	MOLE	8	[0, 0, 0]	-999	PAL1	2	R1333N
879.04	4.0	879721	STUDY_PAIR	n/a	wordpools/wordpool_EN.txt	3	-999	n/a	HAWK	HEN	SUIT	8	[0, 0, 0]	-999	PAL1	2	R1333N
883.068	0.622	883749	STUDY_PAIR_OFF	n/a	n/a	3	-999	n/a	HAWK	HEN	SUIT	8	[0, 0, 0]	-999	PAL1	2	R1333N
883.69	4.0	884371	STUDY_PAIR	n/a	wordpools/wordpool_EN.txt	4	-999	n/a	SINK	SINK	CLIFF	8	[0, 0, 0]	-999	PAL1	2	R1333N
887.718	0.742	888399	STUDY_PAIR_OFF	n/a	n/a	4	-999	n/a	SINK	SINK	CLIFF	8	[0, 0, 0]	-999	PAL1	2	R1333N
888.46	4.0	889141	STUDY_PAIR	n/a	wordpools/wordpool_EN.txt	5	-999	n/a	FISH	FUDGE	FISH	8	[0, 0, 0]	-999	PAL1	2	R1333N
892.487	0.749	893168	STUDY_PAIR_OFF	n/a	n/a	5	-999	n/a	FISH	FUDGE	FISH	8	[0, 0, 0]	-999	PAL1	2	R1333N
893.236	4.0	893917	STUDY_PAIR	n/a	wordpools/wordpool_EN.txt	6	-999	n/a	SKY	SOUP	KITE	8	[0, 0, 0]	-999	PAL1	2	R1333N
897.271	0.001	897952	STUDY_PAIR_OFF	n/a	n/a	6	-999	n/a	SKY	SOUP	KITE	8	[0, 0, 0]	-999	PAL1	2	R1333N
897.272	0.0	897953	MATH_START	n/a	n/a	-999	-999	n/a	n/a	n/a	n/a	8	[0, 0, 0]	-999	PAL1	2	R1333N
897.272	0.0	897953	ENCODING_END	n/a	n/a	-999	-999	n/a	n/a	n/a	n/a	8	[0, 0, 0]	-999	PAL1	2	R1333N
897.272	0.016	897953	START	n/a	n/a	-999	-999	n/a	n/a	n/a	n/a	8	[-999, -999, -999]	-999	PAL1	2	R1333N
897.288	7.767	897969	PROB	7742.0	n/a	-999	-999	n/a	n/a	n/a	n/a	8	[9, 2, 3]	14	PAL1	2	R1333N
905.055	4.684	905736	PROB	4646.0	n/a	-999	-999	n/a	n/a	n/a	n/a	8	[9, 6, 6]	21	PAL1	2	R1333N
909.739	5.201	910419	PROB	5171.0	n/a	-999	-999	n/a	n/a	n/a	n/a	8	[6, 5, 6]	17	PAL1	2	R1333N
914.94	4.106	915620	PROB	4106.0	n/a	-999	-999	n/a	n/a	n/a	n/a	8	[1, 3, 2]	6	PAL1	2	R1333N
919.046	0.011	919726	STOP	n/a	n/a	-999	-999	n/a	n/a	n/a	n/a	8	[-999, -999, -999]	-999	PAL1	2	R1333N
919.057	0.67	919737	MATH_END	n/a	n/a	-999	-999	n/a	n/a	n/a	n/a	8	[0, 0, 0]	-999	PAL1	2	R1333N
919.727	0.003	920407	RETRIEVAL_START	n/a	n/a	-999	-999	n/a	n/a	n/a	n/a	8	[0, 0, 0]	-999	PAL1	2	R1333N
919.73	0.277	920410	ORIENT_START	n/a	n/a	-999	-999	n/a	n/a	n/a	n/a	8	[0, 0, 0]	-999	PAL1	2	R1333N
920.007	0.557	920687	ORIENT_END	n/a	n/a	-999	-999	n/a	n/a	n/a	n/a	8	[0, 0, 0]	-999	PAL1	2	R1333N
920.564	0.001	921244	REC_START	n/a	n/a	3	1	SUIT	HAWK	HEN	SUIT	8	[0, 0, 0]	-999	PAL1	2	R1333N
920.565	4.0	921245	PROBE_START	n/a	wordpools/wordpool_EN.txt	3	1	SUIT	HAWK	HEN	SUIT	8	[0, 0, 0]	-999	PAL1	2	R1333N
924.573	0.02	925253	REC_EVENT	4008.0	n/a	3	1	SUIT	HAWK	HEN	SUIT	8	[0, 0, 0]	-999	PAL1	2	R1333N
924.593	1.0	925273	PROBE_END	n/a	n/a	3	1	SUIT	n/a	HEN	SUIT	8	[0, 0, 0]	-999	PAL1	2	R1333N
925.593	0.011	926273	REC_END	n/a	n/a	3	1	SUIT	n/a	HEN	SUIT	8	[0, 0, 0]	-999	PAL1	2	R1333N
925.604	0.271	926284	ORIENT_START	n/a	n/a	-999	-999	n/a	n/a	n/a	n/a	8	[0, 0, 0]	-999	PAL1	2	R1333N
925.875	0.52	926555	ORIENT_END	n/a	n/a	-999	-999	n/a	n/a	n/a	n/a	8	[0, 0, 0]	-999	PAL1	2	R1333N
926.395	0.0	927075	REC_START	n/a	n/a	4	2	CLIFF	SINK	SINK	CLIFF	8	[0, 0, 0]	-999	PAL1	2	R1333N
926.395	4.0	927075	PROBE_START	n/a	wordpools/wordpool_EN.txt	4	2	CLIFF	SINK	SINK	CLIFF	8	[0, 0, 0]	-999	PAL1	2	R1333N
929.627	0.799	930307	REC_EVENT	3232.0	n/a	4	2	CLIFF	SINK	SINK	CLIFF	8	[0, 0, 0]	-999	PAL1	2	R1333N
930.426	1.0	931106	PROBE_END	n/a	n/a	4	2	CLIFF	n/a	SINK	CLIFF	8	[0, 0, 0]	-999	PAL1	2	R1333N
931.426	0.012	932106	REC_END	n/a	n/a	4	2	CLIFF	n/a	SINK	CLIFF	8	[0, 0, 0]	-999	PAL1	2	R1333N
931.438	0.271	932118	ORIENT_START	n/a	n/a	-999	-999	n/a	n/a	n/a	n/a	8	[0, 0, 0]	-999	PAL1	2	R1333N
931.709	0.741	932389	ORIENT_END	n/a	n/a	-999	-999	n/a	n/a	n/a	n/a	8	[0, 0, 0]	-999	PAL1	2	R1333N
932.45	4.0	933130	PROBE_START	n/a	wordpools/wordpool_EN.txt	5	3	FUDGE	FISH	FUDGE	FISH	8	[0, 0, 0]	-999	PAL1	2	R1333N
932.45	2.035	933130	REC_START	n/a	n/a	5	3	FUDGE	FISH	FUDGE	FISH	8	[0, 0, 0]	-999	PAL1	2	R1333N
934.485	1.993	935165	REC_EVENT	2035.0	n/a	5	3	FUDGE	FISH	FUDGE	FISH	8	[0, 0, 0]	-999	PAL1	2	R1333N
936.478	1.0	937158	PROBE_END	n/a	n/a	5	3	FUDGE	n/a	FUDGE	FISH	8	[0, 0, 0]	-999	PAL1	2	R1333N
937.478	0.005	938158	REC_END	n/a	n/a	5	3	FUDGE	n/a	FUDGE	FISH	8	[0, 0, 0]	-999	PAL1	2	R1333N
937.483	0.277	938163	ORIENT_START	n/a	n/a	-999	-999	n/a	n/a	n/a	n/a	8	[0, 0, 0]	-999	PAL1	2	R1333N
937.76	0.615	938440	ORIENT_END	n/a	n/a	-999	-999	n/a	n/a	n/a	n/a	8	[0, 0, 0]	-999	PAL1	2	R1333N
938.375	0.0	939055	REC_START	n/a	n/a	2	4	POND	MOLE	POND	MOLE	8	[0, 0, 0]	-999	PAL1	2	R1333N
938.375	4.0	939055	PROBE_START	n/a	wordpools/wordpool_EN.txt	2	4	POND	MOLE	POND	MOLE	8	[0, 0, 0]	-999	PAL1	2	R1333N
941.71	0.702	942390	REC_EVENT	3335.0	n/a	2	4	POND	MOLE	POND	MOLE	8	[0, 0, 0]	-999	PAL1	2	R1333N
942.412	1.001	943092	PROBE_END	n/a	n/a	2	4	POND	n/a	POND	MOLE	8	[0, 0, 0]	-999	PAL1	2	R1333N
943.413	0.012	944093	REC_END	n/a	n/a	2	4	POND	n/a	POND	MOLE	8	[0, 0, 0]	-999	PAL1	2	R1333N
943.425	0.269	944105	ORIENT_START	n/a	n/a	-999	-999	n/a	n/a	n/a	n/a	8	[0, 0, 0]	-999	PAL1	2	R1333N
943.694	0.721	944374	ORIENT_END	n/a	n/a	-999	-999	n/a	n/a	n/a	n/a	8	[0, 0, 0]	-999	PAL1	2	R1333N
944.415	0.0	945095	REC_START	n/a	n/a	1	5	STORE	STRAW	STORE	STRAW	8	[0, 0, 0]	-999	PAL1	2	R1333N
944.415	4.0	945095	PROBE_START	n/a	wordpools/wordpool_EN.txt	1	5	STORE	STRAW	STORE	STRAW	8	[0, 0, 0]	-999	PAL1	2	R1333N
946.388	2.058	947067	REC_EVENT	1973.0	n/a	1	5	STORE	STRAW	STORE	STRAW	8	[0, 0, 0]	-999	PAL1	2	R1333N
948.446	1.0	949125	PROBE_END	n/a	n/a	1	5	STORE	n/a	STORE	STRAW	8	[0, 0, 0]	-999	PAL1	2	R1333N
949.446	0.012	950125	REC_END	n/a	n/a	1	5	STORE	n/a	STORE	STRAW	8	[0, 0, 0]	-999	PAL1	2	R1333N
949.458	0.271	950137	ORIENT_START	n/a	n/a	-999	-999	n/a	n/a	n/a	n/a	8	[0, 0, 0]	-999	PAL1	2	R1333N
949.729	0.557	950408	ORIENT_END	n/a	n/a	-999	-999	n/a	n/a	n/a	n/a	8	[0, 0, 0]	-999	PAL1	2	R1333N
950.286	4.0	950965	PROBE_START	n/a	wordpools/wordpool_EN.txt	6	6	KITE	SKY	SOUP	KITE	8	[0, 0, 0]	-999	PAL1	2	R1333N
950.286	2.469	950965	REC_START	n/a	n/a	6	6	KITE	SKY	SOUP	KITE	8	[0, 0, 0]	-999	PAL1	2	R1333N
952.755	1.559	953434	REC_EVENT	2469.0	n/a	6	6	KITE	SKY	SOUP	KITE	8	[0, 0, 0]	-999	PAL1	2	R1333N
954.314	1.001	954993	PROBE_END	n/a	n/a	6	6	KITE	n/a	SOUP	KITE	8	[0, 0, 0]	-999	PAL1	2	R1333N
955.315	0.009	955994	REC_END	n/a	n/a	6	6	KITE	n/a	SOUP	KITE	8	[0, 0, 0]	-999	PAL1	2	R1333N
955.324	0.0	956003	RETRIEVAL_END	n/a	n/a	-999	-999	n/a	n/a	n/a	n/a	8	[0, 0, 0]	-999	PAL1	2	R1333N
955.324	0.019	956003	TRIAL_END	n/a	n/a	-999	-999	n/a	n/a	n/a	n/a	8	[0, 0, 0]	-999	PAL1	2	R1333N
955.343	0.001	956022	TRIAL_START	n/a	n/a	-999	-999	n/a	n/a	n/a	n/a	8	[0, 0, 0]	-999	PAL1	2	R1333N
955.344	0.0	956023	TRIAL	n/a	n/a	-999	-999	n/a	n/a	n/a	n/a	9	[0, 0, 0]	-999	PAL1	2	R1333N
955.344	0.0	956023	WAITING_START	n/a	n/a	-999	-999	n/a	n/a	n/a	n/a	9	[0, 0, 0]	-999	PAL1	2	R1333N
