onset	duration	sample	trial_type	response_time	stim_file	serialpos	probepos	probe_word	resp_word	study_1	study_2	list	test	answer	experiment	session	subject
0.0	70.536	519333	SESS_START	n/a	n/a	-999	-999	n/a	n/a	n/a	n/a	-999	[0, 0, 0]	-999	PAL1	3	R1212P
70.536	1.017	591559	START	n/a	n/a	-999	-999	n/a	n/a	n/a	n/a	-1	[-999, -999, -999]	-999	PAL1	3	R1212P
71.553	4.151	592600	PROB	4.129	n/a	-999	-999	n/a	n/a	n/a	n/a	-1	[3, 4, 5]	12	PAL1	3	R1212P
75.704	3.034	596850	PROB	3.01	n/a	-999	-999	n/a	n/a	n/a	n/a	-1	[9, 6, 4]	19	PAL1	3	R1212P
78.738	2.833	599957	PROB	2.8	n/a	-999	-999	n/a	n/a	n/a	n/a	-1	[3, 4, 7]	14	PAL1	3	R1212P
81.571	3.351	602858	PROB	3.327	n/a	-999	-999	n/a	n/a	n/a	n/a	-1	[5, 6, 4]	15	PAL1	3	R1212P
84.922	5.234	606289	PROB	5.208	n/a	-999	-999	n/a	n/a	n/a	n/a	-1	[3, 5, 6]	14	PAL1	3	R1212P
90.156	3.11	611649	PROB	3.11	n/a	-999	-999	n/a	n/a	n/a	n/a	-1	[5, 6, 1]	12	PAL1	3	R1212P
93.266	38.8	614833	STOP	n/a	n/a	-999	-999	n/a	n/a	n/a	n/a	-1	[-999, -999, -999]	-999	PAL1	3	R1212P
132.066	10.451	654562	ENCODING_START	n/a	n/a	0	-999	n/a	n/a	n/a	n/a	1	[0, 0, 0]	-999	PAL1	3	R1212P
142.517	0.275	665264	STUDY_ORIENT	n/a	n/a	1	3	KEY	n/a	KEY	ZOO	1	[0, 0, 0]	-999	PAL1	3	R1212P
143.483	4.0	666253	STUDY_PAIR	n/a	wordpools/wordpool_EN.txt	1	3	KEY	n/a	KEY	ZOO	1	[0, 0, 0]	-999	PAL1	3	R1212P
148.501	0.275	671391	STUDY_ORIENT	n/a	n/a	2	6	CANE	n/a	BOOT	CANE	1	[0, 0, 0]	-999	PAL1	3	R1212P
149.284	4.0	672193	STUDY_PAIR	n/a	wordpools/wordpool_EN.txt	2	6	CANE	n/a	BOOT	CANE	1	[0, 0, 0]	-999	PAL1	3	R1212P
154.302	0.275	677331	STUDY_ORIENT	n/a	n/a	3	1	AXE	n/a	COW	AXE	1	[0, 0, 0]	-999	PAL1	3	R1212P
155.269	4.0	678321	STUDY_PAIR	n/a	wordpools/wordpool_EN.txt	3	1	AXE	n/a	COW	AXE	1	[0, 0, 0]	-999	PAL1	3	R1212P
160.303	0.275	683476	STUDY_ORIENT	n/a	n/a	4	4	LAWN	FUR	JAR	LAWN	1	[0, 0, 0]	-999	PAL1	3	R1212P
161.103	4.0	684295	STUDY_PAIR	n/a	wordpools/wordpool_EN.txt	4	4	LAWN	FUR	JAR	LAWN	1	[0, 0, 0]	-999	PAL1	3	R1212P
166.121	0.275	689433	STUDY_ORIENT	n/a	n/a	5	5	BOX	n/a	BOX	DUCK	1	[0, 0, 0]	-999	PAL1	3	R1212P
166.905	4.0	690236	STUDY_PAIR	n/a	wordpools/wordpool_EN.txt	5	5	BOX	n/a	BOX	DUCK	1	[0, 0, 0]	-999	PAL1	3	R1212P
171.939	0.275	695390	STUDY_ORIENT	n/a	n/a	6	2	CALF	n/a	CALF	TRUCK	1	[0, 0, 0]	-999	PAL1	3	R1212P
172.939	4.0	696414	STUDY_PAIR	n/a	wordpools/wordpool_EN.txt	6	2	CALF	n/a	CALF	TRUCK	1	[0, 0, 0]	-999	PAL1	3	R1212P
176.957	0.999	700529	START	n/a	n/a	-999	-999	n/a	n/a	n/a	n/a	1	[-999, -999, -999]	-999	PAL1	3	R1212P
177.956	0.017	701552	MATH_START	n/a	n/a	-999	-999	n/a	n/a	n/a	n/a	1	[0, 0, 0]	-999	PAL1	3	R1212P
177.973	2.984	701569	PROB	2.957	n/a	-999	-999	n/a	n/a	n/a	n/a	1	[4, 3, 6]	13	PAL1	3	R1212P
180.957	1.601	704624	PROB	1.573	n/a	-999	-999	n/a	n/a	n/a	n/a	1	[5, 5, 3]	13	PAL1	3	R1212P
182.558	2.283	706264	PROB	2.252	n/a	-999	-999	n/a	n/a	n/a	n/a	1	[1, 8, 6]	15	PAL1	3	R1212P
184.841	2.717	708602	PROB	2.697	n/a	-999	-999	n/a	n/a	n/a	n/a	1	[3, 9, 5]	17	PAL1	3	R1212P
187.558	2.234	711384	PROB	2.204	n/a	-999	-999	n/a	n/a	n/a	n/a	1	[9, 5, 1]	1	PAL1	3	R1212P
189.792	2.167	713671	PROB	2.146	n/a	-999	-999	n/a	n/a	n/a	n/a	1	[6, 2, 4]	12	PAL1	3	R1212P
191.959	3.884	715890	PROB	3.859	n/a	-999	-999	n/a	n/a	n/a	n/a	1	[9, 4, 7]	20	PAL1	3	R1212P
195.843	4.127	719867	PROB	4.127	n/a	-999	-999	n/a	n/a	n/a	n/a	1	[7, 5, 1]	13	PAL1	3	R1212P
199.97	0.008	724093	STOP	n/a	n/a	-999	-999	n/a	n/a	n/a	n/a	1	[-999, -999, -999]	-999	PAL1	3	R1212P
199.978	0.0	724101	MATH_END	n/a	n/a	-999	-999	n/a	n/a	n/a	n/a	1	[0, 0, 0]	-999	PAL1	3	R1212P
199.978	0.016	724101	TEST_START	n/a	n/a	-999	-999	n/a	n/a	n/a	n/a	1	[0, 0, 0]	-999	PAL1	3	R1212P
199.994	0.275	724117	TEST_ORIENT	n/a	n/a	3	1	AXE	n/a	COW	AXE	1	[0, 0, 0]	-999	PAL1	3	R1212P
200.844	4.0	724988	TEST_PROBE	n/a	wordpools/wordpool_EN.txt	3	1	AXE	n/a	COW	AXE	1	[0, 0, 0]	-999	PAL1	3	R1212P
200.846	4.998	724990	REC_START	n/a	n/a	3	-999	n/a	n/a	n/a	n/a	1	[0, 0, 0]	-999	PAL1	3	R1212P
205.844	0.001	730108	REC_EVENT	4.998	n/a	3	1	AXE	<>	COW	AXE	1	[0, 0, 0]	-999	PAL1	3	R1212P
205.845	0.017	730109	REC_END	n/a	n/a	3	-999	n/a	n/a	n/a	n/a	1	[0, 0, 0]	-999	PAL1	3	R1212P
205.862	0.275	730126	TEST_ORIENT	n/a	n/a	6	2	CALF	n/a	CALF	TRUCK	1	[0, 0, 0]	-999	PAL1	3	R1212P
206.896	4.0	731185	TEST_PROBE	n/a	wordpools/wordpool_EN.txt	6	2	CALF	n/a	CALF	TRUCK	1	[0, 0, 0]	-999	PAL1	3	R1212P
206.896	5.015	731185	REC_START	n/a	n/a	6	-999	n/a	n/a	n/a	n/a	1	[0, 0, 0]	-999	PAL1	3	R1212P
211.911	0.002	736320	REC_EVENT	5.015	n/a	6	2	CALF	<>	CALF	TRUCK	1	[0, 0, 0]	-999	PAL1	3	R1212P
211.913	0.017	736322	REC_END	n/a	n/a	6	-999	n/a	n/a	n/a	n/a	1	[0, 0, 0]	-999	PAL1	3	R1212P
211.93	0.275	736339	TEST_ORIENT	n/a	n/a	1	3	KEY	n/a	KEY	ZOO	1	[0, 0, 0]	-999	PAL1	3	R1212P
212.747	4.0	737176	TEST_PROBE	n/a	wordpools/wordpool_EN.txt	1	3	KEY	n/a	KEY	ZOO	1	[0, 0, 0]	-999	PAL1	3	R1212P
212.747	5.015	737176	REC_START	n/a	n/a	1	-999	n/a	n/a	n/a	n/a	1	[0, 0, 0]	-999	PAL1	3	R1212P
217.762	0.002	742311	REC_EVENT	5.015	n/a	1	3	KEY	<>	KEY	ZOO	1	[0, 0, 0]	-999	PAL1	3	R1212P
217.764	0.017	742313	REC_END	n/a	n/a	1	-999	n/a	n/a	n/a	n/a	1	[0, 0, 0]	-999	PAL1	3	R1212P
217.781	0.275	742331	TEST_ORIENT	n/a	n/a	4	4	LAWN	FUR	JAR	LAWN	1	[0, 0, 0]	-999	PAL1	3	R1212P
218.648	4.0	743218	TEST_PROBE	n/a	wordpools/wordpool_EN.txt	4	4	LAWN	FUR	JAR	LAWN	1	[0, 0, 0]	-999	PAL1	3	R1212P
218.648	1.735	743218	REC_START	n/a	n/a	4	-999	n/a	FUR	n/a	n/a	1	[0, 0, 0]	-999	PAL1	3	R1212P
220.383	3.282	744995	REC_EVENT	1.735	n/a	4	4	LAWN	FUR	JAR	LAWN	1	[0, 0, 0]	-999	PAL1	3	R1212P
223.665	0.017	748355	REC_END	n/a	n/a	4	-999	n/a	n/a	n/a	n/a	1	[0, 0, 0]	-999	PAL1	3	R1212P
223.682	0.275	748373	TEST_ORIENT	n/a	n/a	5	5	BOX	n/a	BOX	DUCK	1	[0, 0, 0]	-999	PAL1	3	R1212P
224.649	4.0	749363	TEST_PROBE	n/a	wordpools/wordpool_EN.txt	5	5	BOX	n/a	BOX	DUCK	1	[0, 0, 0]	-999	PAL1	3	R1212P
224.649	5.015	749363	REC_START	n/a	n/a	5	-999	n/a	n/a	n/a	n/a	1	[0, 0, 0]	-999	PAL1	3	R1212P
229.664	0.002	754498	REC_EVENT	5.015	n/a	5	5	BOX	<>	BOX	DUCK	1	[0, 0, 0]	-999	PAL1	3	R1212P
229.666	0.017	754500	REC_END	n/a	n/a	5	-999	n/a	n/a	n/a	n/a	1	[0, 0, 0]	-999	PAL1	3	R1212P
229.683	0.275	754518	TEST_ORIENT	n/a	n/a	2	6	CANE	n/a	BOOT	CANE	1	[0, 0, 0]	-999	PAL1	3	R1212P
230.683	4.0	755542	TEST_PROBE	n/a	wordpools/wordpool_EN.txt	2	6	CANE	n/a	BOOT	CANE	1	[0, 0, 0]	-999	PAL1	3	R1212P
230.684	5.009	755543	REC_START	n/a	n/a	2	-999	n/a	n/a	n/a	n/a	1	[0, 0, 0]	-999	PAL1	3	R1212P
235.693	0.0	760672	REC_EVENT	5.009	n/a	2	6	CANE	<>	BOOT	CANE	1	[0, 0, 0]	-999	PAL1	3	R1212P
235.693	2.757	760672	REC_END	n/a	n/a	2	-999	n/a	n/a	n/a	n/a	1	[0, 0, 0]	-999	PAL1	3	R1212P
238.45	10.437	763495	ENCODING_START	n/a	n/a	0	-999	n/a	n/a	n/a	n/a	2	[0, 0, 0]	-999	PAL1	3	R1212P
248.887	0.275	774182	STUDY_ORIENT	n/a	n/a	1	1	LAKE	n/a	LAKE	BEE	2	[0, 0, 0]	-999	PAL1	3	R1212P
249.837	4.0	775154	STUDY_PAIR	n/a	wordpools/wordpool_EN.txt	1	1	LAKE	n/a	LAKE	BEE	2	[0, 0, 0]	-999	PAL1	3	R1212P
254.871	0.275	780309	STUDY_ORIENT	n/a	n/a	2	4	HORN	YEAR	OAR	HORN	2	[0, 0, 0]	-999	PAL1	3	R1212P
255.788	4.0	781248	STUDY_PAIR	n/a	wordpools/wordpool_EN.txt	2	4	HORN	YEAR	OAR	HORN	2	[0, 0, 0]	-999	PAL1	3	R1212P
260.806	0.275	786386	STUDY_ORIENT	n/a	n/a	3	5	RAKE	FROG	RAKE	FROG	2	[0, 0, 0]	-999	PAL1	3	R1212P
261.789	4.0	787393	STUDY_PAIR	n/a	wordpools/wordpool_EN.txt	3	5	RAKE	FROG	RAKE	FROG	2	[0, 0, 0]	-999	PAL1	3	R1212P
266.807	0.275	792531	STUDY_ORIENT	n/a	n/a	4	2	SOAP	CUBE	SOAP	CUBE	2	[0, 0, 0]	-999	PAL1	3	R1212P
267.807	4.0	793555	STUDY_PAIR	n/a	wordpools/wordpool_EN.txt	4	2	SOAP	CUBE	SOAP	CUBE	2	[0, 0, 0]	-999	PAL1	3	R1212P
272.825	0.275	798693	STUDY_ORIENT	n/a	n/a	5	3	STONE	n/a	STONE	BROOM	2	[0, 0, 0]	-999	PAL1	3	R1212P
273.708	4.0	799597	STUDY_PAIR	n/a	wordpools/wordpool_EN.txt	5	3	STONE	n/a	STONE	BROOM	2	[0, 0, 0]	-999	PAL1	3	R1212P
278.726	0.275	804735	STUDY_ORIENT	n/a	n/a	6	6	CUP	n/a	CUP	EAR	2	[0, 0, 0]	-999	PAL1	3	R1212P
279.526	4.0	805554	STUDY_PAIR	n/a	wordpools/wordpool_EN.txt	6	6	CUP	n/a	CUP	EAR	2	[0, 0, 0]	-999	PAL1	3	R1212P
283.527	1.0	809651	START	n/a	n/a	-999	-999	n/a	n/a	n/a	n/a	2	[-999, -999, -999]	-999	PAL1	3	R1212P
284.527	0.017	810675	MATH_START	n/a	n/a	-999	-999	n/a	n/a	n/a	n/a	2	[0, 0, 0]	-999	PAL1	3	R1212P
284.544	3.517	810693	PROB	3.49	n/a	-999	-999	n/a	n/a	n/a	n/a	2	[9, 9, 2]	20	PAL1	3	R1212P
288.061	3.317	814294	PROB	3.285	n/a	-999	-999	n/a	n/a	n/a	n/a	2	[7, 6, 6]	19	PAL1	3	R1212P
291.378	3.018	817690	PROB	2.984	n/a	-999	-999	n/a	n/a	n/a	n/a	2	[7, 7, 3]	17	PAL1	3	R1212P
294.396	4.701	820781	PROB	4.67	n/a	-999	-999	n/a	n/a	n/a	n/a	2	[1, 5, 8]	14	PAL1	3	R1212P
299.097	3.25	825594	PROB	3.225	n/a	-999	-999	n/a	n/a	n/a	n/a	2	[9, 1, 7]	17	PAL1	3	R1212P
302.347	2.631	828922	PROB	2.631	n/a	-999	-999	n/a	n/a	n/a	n/a	2	[5, 7, 8]	20	PAL1	3	R1212P
304.978	0.003	831616	STOP	n/a	n/a	-999	-999	n/a	n/a	n/a	n/a	2	[-999, -999, -999]	-999	PAL1	3	R1212P
304.981	0.0	831619	TEST_START	n/a	n/a	-999	-999	n/a	n/a	n/a	n/a	2	[0, 0, 0]	-999	PAL1	3	R1212P
304.981	0.017	831619	MATH_END	n/a	n/a	-999	-999	n/a	n/a	n/a	n/a	2	[0, 0, 0]	-999	PAL1	3	R1212P
304.998	0.275	831637	TEST_ORIENT	n/a	n/a	1	1	LAKE	n/a	LAKE	BEE	2	[0, 0, 0]	-999	PAL1	3	R1212P
305.831	4.0	832489	TEST_PROBE	n/a	wordpools/wordpool_EN.txt	1	1	LAKE	n/a	LAKE	BEE	2	[0, 0, 0]	-999	PAL1	3	R1212P
305.832	5.009	832491	REC_START	n/a	n/a	1	-999	n/a	n/a	n/a	n/a	2	[0, 0, 0]	-999	PAL1	3	R1212P
310.841	0.0	837619	REC_EVENT	5.009	n/a	1	1	LAKE	<>	LAKE	BEE	2	[0, 0, 0]	-999	PAL1	3	R1212P
310.841	0.008	837619	REC_END	n/a	n/a	1	-999	n/a	n/a	n/a	n/a	2	[0, 0, 0]	-999	PAL1	3	R1212P
310.849	0.275	837628	TEST_ORIENT	n/a	n/a	4	2	SOAP	CUBE	SOAP	CUBE	2	[0, 0, 0]	-999	PAL1	3	R1212P
311.782	4.0	838583	TEST_PROBE	n/a	wordpools/wordpool_EN.txt	4	2	SOAP	CUBE	SOAP	CUBE	2	[0, 0, 0]	-999	PAL1	3	R1212P
311.782	1.007	838583	REC_START	n/a	n/a	4	-999	n/a	CUBE	n/a	n/a	2	[0, 0, 0]	-999	PAL1	3	R1212P
312.789	4.011	839614	REC_EVENT	1.007	n/a	4	2	SOAP	CUBE	SOAP	CUBE	2	[0, 0, 0]	-999	PAL1	3	R1212P
316.8	0.017	843721	REC_END	n/a	n/a	4	-999	n/a	n/a	n/a	n/a	2	[0, 0, 0]	-999	PAL1	3	R1212P
316.817	0.275	843739	TEST_ORIENT	n/a	n/a	5	3	STONE	n/a	STONE	BROOM	2	[0, 0, 0]	-999	PAL1	3	R1212P
317.717	4.0	844660	TEST_PROBE	n/a	wordpools/wordpool_EN.txt	5	3	STONE	n/a	STONE	BROOM	2	[0, 0, 0]	-999	PAL1	3	R1212P
317.717	5.015	844660	REC_START	n/a	n/a	5	-999	n/a	n/a	n/a	n/a	2	[0, 0, 0]	-999	PAL1	3	R1212P
322.732	0.002	849795	REC_EVENT	5.015	n/a	5	3	STONE	<>	STONE	BROOM	2	[0, 0, 0]	-999	PAL1	3	R1212P
322.734	0.017	849797	REC_END	n/a	n/a	5	-999	n/a	n/a	n/a	n/a	2	[0, 0, 0]	-999	PAL1	3	R1212P
322.751	0.275	849815	TEST_ORIENT	n/a	n/a	2	4	HORN	YEAR	OAR	HORN	2	[0, 0, 0]	-999	PAL1	3	R1212P
323.568	0.0	850651	REC_START	n/a	n/a	2	-999	n/a	YEAR	n/a	n/a	2	[0, 0, 0]	-999	PAL1	3	R1212P
323.568	4.0	850651	TEST_PROBE	n/a	wordpools/wordpool_EN.txt	2	4	HORN	YEAR	OAR	HORN	2	[0, 0, 0]	-999	PAL1	3	R1212P
324.865	3.72	851979	REC_EVENT	1.297	n/a	2	4	HORN	YEAR	OAR	HORN	2	[0, 0, 0]	-999	PAL1	3	R1212P
328.585	0.017	855788	REC_END	n/a	n/a	2	-999	n/a	n/a	n/a	n/a	2	[0, 0, 0]	-999	PAL1	3	R1212P
328.602	0.275	855806	TEST_ORIENT	n/a	n/a	3	5	RAKE	FROG	RAKE	FROG	2	[0, 0, 0]	-999	PAL1	3	R1212P
329.636	4.0	856865	TEST_PROBE	n/a	wordpools/wordpool_EN.txt	3	5	RAKE	FROG	RAKE	FROG	2	[0, 0, 0]	-999	PAL1	3	R1212P
329.636	1.486	856865	REC_START	n/a	n/a	3	-999	n/a	FROG	n/a	n/a	2	[0, 0, 0]	-999	PAL1	3	R1212P
331.122	3.531	858386	REC_EVENT	1.486	n/a	3	5	RAKE	FROG	RAKE	FROG	2	[0, 0, 0]	-999	PAL1	3	R1212P
334.653	0.017	862002	REC_END	n/a	n/a	3	-999	n/a	n/a	n/a	n/a	2	[0, 0, 0]	-999	PAL1	3	R1212P
334.67	0.275	862019	TEST_ORIENT	n/a	n/a	6	6	CUP	n/a	CUP	EAR	2	[0, 0, 0]	-999	PAL1	3	R1212P
335.57	4.0	862941	TEST_PROBE	n/a	wordpools/wordpool_EN.txt	6	6	CUP	n/a	CUP	EAR	2	[0, 0, 0]	-999	PAL1	3	R1212P
335.571	5.009	862942	REC_START	n/a	n/a	6	-999	n/a	n/a	n/a	n/a	2	[0, 0, 0]	-999	PAL1	3	R1212P
340.58	0.0	868071	REC_EVENT	5.009	n/a	6	6	CUP	<>	CUP	EAR	2	[0, 0, 0]	-999	PAL1	3	R1212P
340.58	1.518	868071	REC_END	n/a	n/a	6	-999	n/a	n/a	n/a	n/a	2	[0, 0, 0]	-999	PAL1	3	R1212P
342.098	10.442	869625	ENCODING_START	n/a	n/a	0	-999	n/a	n/a	n/a	n/a	3	[0, 0, 0]	-999	PAL1	3	R1212P
352.54	0.275	880317	STUDY_ORIENT	n/a	n/a	1	3	INK	DESK	DESK	INK	3	[0, 0, 0]	-999	PAL1	3	R1212P
353.39	4.0	881188	STUDY_PAIR	n/a	wordpools/wordpool_EN.txt	1	3	INK	DESK	DESK	INK	3	[0, 0, 0]	-999	PAL1	3	R1212P
358.408	0.275	886326	STUDY_ORIENT	n/a	n/a	2	4	PIN	n/a	PIN	VEST	3	[0, 0, 0]	-999	PAL1	3	R1212P
359.242	4.0	887180	STUDY_PAIR	n/a	wordpools/wordpool_EN.txt	2	4	PIN	n/a	PIN	VEST	3	[0, 0, 0]	-999	PAL1	3	R1212P
364.276	0.275	892334	STUDY_ORIENT	n/a	n/a	3	5	GRAPE	n/a	GRAPE	GUARD	3	[0, 0, 0]	-999	PAL1	3	R1212P
365.076	4.0	893154	STUDY_PAIR	n/a	wordpools/wordpool_EN.txt	3	5	GRAPE	n/a	GRAPE	GUARD	3	[0, 0, 0]	-999	PAL1	3	R1212P
370.11	0.275	898308	STUDY_ORIENT	n/a	n/a	4	6	SEA	n/a	SEA	STICK	3	[0, 0, 0]	-999	PAL1	3	R1212P
371.127	4.0	899349	STUDY_PAIR	n/a	wordpools/wordpool_EN.txt	4	6	SEA	n/a	SEA	STICK	3	[0, 0, 0]	-999	PAL1	3	R1212P
376.145	0.275	904488	STUDY_ORIENT	n/a	n/a	5	1	SALT	n/a	SALT	MOOSE	3	[0, 0, 0]	-999	PAL1	3	R1212P
377.012	4.0	905375	STUDY_PAIR	n/a	wordpools/wordpool_EN.txt	5	1	SALT	n/a	SALT	MOOSE	3	[0, 0, 0]	-999	PAL1	3	R1212P
382.046	0.275	910530	STUDY_ORIENT	n/a	n/a	6	2	PLATE	FRUIT	FRUIT	PLATE	3	[0, 0, 0]	-999	PAL1	3	R1212P
382.896	4.0	911400	STUDY_PAIR	n/a	wordpools/wordpool_EN.txt	6	2	PLATE	FRUIT	FRUIT	PLATE	3	[0, 0, 0]	-999	PAL1	3	R1212P
386.914	1.0	915515	START	n/a	n/a	-999	-999	n/a	n/a	n/a	n/a	3	[-999, -999, -999]	-999	PAL1	3	R1212P
387.914	0.016	916539	MATH_START	n/a	n/a	-999	-999	n/a	n/a	n/a	n/a	3	[0, 0, 0]	-999	PAL1	3	R1212P
387.93	3.068	916555	PROB	3.04	n/a	-999	-999	n/a	n/a	n/a	n/a	3	[8, 2, 3]	13	PAL1	3	R1212P
390.998	2.2	919696	PROB	2.18	n/a	-999	-999	n/a	n/a	n/a	n/a	3	[1, 9, 1]	11	PAL1	3	R1212P
393.198	3.351	921949	PROB	3.324	n/a	-999	-999	n/a	n/a	n/a	n/a	3	[6, 4, 7]	17	PAL1	3	R1212P
396.549	2.167	925380	PROB	2.133	n/a	-999	-999	n/a	n/a	n/a	n/a	3	[4, 9, 1]	14	PAL1	3	R1212P
398.716	2.617	927599	PROB	2.598	n/a	-999	-999	n/a	n/a	n/a	n/a	3	[8, 4, 5]	17	PAL1	3	R1212P
401.333	3.617	930279	PROB	3.597	n/a	-999	-999	n/a	n/a	n/a	n/a	3	[3, 9, 5]	17	PAL1	3	R1212P
404.95	2.74	933983	PROB	2.74	n/a	-999	-999	n/a	n/a	n/a	n/a	3	[8, 3, 7]	18	PAL1	3	R1212P
407.69	0.011	936788	STOP	n/a	n/a	-999	-999	n/a	n/a	n/a	n/a	3	[-999, -999, -999]	-999	PAL1	3	R1212P
407.701	0.0	936799	TEST_START	n/a	n/a	-999	-999	n/a	n/a	n/a	n/a	3	[0, 0, 0]	-999	PAL1	3	R1212P
407.701	0.016	936799	MATH_END	n/a	n/a	-999	-999	n/a	n/a	n/a	n/a	3	[0, 0, 0]	-999	PAL1	3	R1212P
407.717	0.275	936816	TEST_ORIENT	n/a	n/a	5	1	SALT	n/a	SALT	MOOSE	3	[0, 0, 0]	-999	PAL1	3	R1212P
408.734	4.0	937857	TEST_PROBE	n/a	wordpools/wordpool_EN.txt	5	1	SALT	n/a	SALT	MOOSE	3	[0, 0, 0]	-999	PAL1	3	R1212P
408.735	5.007	937858	REC_START	n/a	n/a	5	-999	n/a	n/a	n/a	n/a	3	[0, 0, 0]	-999	PAL1	3	R1212P
413.742	0.002	942985	REC_END	n/a	n/a	5	-999	n/a	n/a	n/a	n/a	3	[0, 0, 0]	-999	PAL1	3	R1212P
413.744	0.008	942987	REC_EVENT	5.009	n/a	5	1	SALT	<>	SALT	MOOSE	3	[0, 0, 0]	-999	PAL1	3	R1212P
413.752	0.275	942995	TEST_ORIENT	n/a	n/a	6	2	PLATE	FRUIT	FRUIT	PLATE	3	[0, 0, 0]	-999	PAL1	3	R1212P
414.569	4.0	943832	TEST_PROBE	n/a	wordpools/wordpool_EN.txt	6	2	PLATE	FRUIT	FRUIT	PLATE	3	[0, 0, 0]	-999	PAL1	3	R1212P
414.569	1.044	943832	REC_START	n/a	n/a	6	-999	n/a	FRUIT	n/a	n/a	3	[0, 0, 0]	-999	PAL1	3	R1212P
415.613	3.981	944901	REC_EVENT	1.044	n/a	6	2	PLATE	FRUIT	FRUIT	PLATE	3	[0, 0, 0]	-999	PAL1	3	R1212P
419.594	0.009	948977	REC_END	n/a	n/a	6	-999	n/a	n/a	n/a	n/a	3	[0, 0, 0]	-999	PAL1	3	R1212P
419.603	0.275	948987	TEST_ORIENT	n/a	n/a	1	3	INK	DESK	DESK	INK	3	[0, 0, 0]	-999	PAL1	3	R1212P
420.57	4.0	949977	TEST_PROBE	n/a	wordpools/wordpool_EN.txt	1	3	INK	DESK	DESK	INK	3	[0, 0, 0]	-999	PAL1	3	R1212P
420.571	1.28	949978	REC_START	n/a	n/a	1	-999	n/a	DESK	n/a	n/a	3	[0, 0, 0]	-999	PAL1	3	R1212P
421.851	3.744	951288	REC_EVENT	1.28	n/a	1	3	INK	DESK	DESK	INK	3	[0, 0, 0]	-999	PAL1	3	R1212P
425.595	0.009	955122	REC_END	n/a	n/a	1	-999	n/a	n/a	n/a	n/a	3	[0, 0, 0]	-999	PAL1	3	R1212P
425.604	0.275	955131	TEST_ORIENT	n/a	n/a	2	4	PIN	n/a	PIN	VEST	3	[0, 0, 0]	-999	PAL1	3	R1212P
426.438	0.0	955985	REC_START	n/a	n/a	2	-999	n/a	n/a	n/a	n/a	3	[0, 0, 0]	-999	PAL1	3	R1212P
426.438	4.0	955985	TEST_PROBE	n/a	wordpools/wordpool_EN.txt	2	4	PIN	n/a	PIN	VEST	3	[0, 0, 0]	-999	PAL1	3	R1212P
431.453	0.002	961120	REC_EVENT	5.015	n/a	2	4	PIN	<>	PIN	VEST	3	[0, 0, 0]	-999	PAL1	3	R1212P
431.455	0.017	961122	REC_END	n/a	n/a	2	-999	n/a	n/a	n/a	n/a	3	[0, 0, 0]	-999	PAL1	3	R1212P
431.472	0.275	961140	TEST_ORIENT	n/a	n/a	3	5	GRAPE	n/a	GRAPE	GUARD	3	[0, 0, 0]	-999	PAL1	3	R1212P
432.339	4.0	962028	TEST_PROBE	n/a	wordpools/wordpool_EN.txt	3	5	GRAPE	n/a	GRAPE	GUARD	3	[0, 0, 0]	-999	PAL1	3	R1212P
432.34	5.021	962029	REC_START	n/a	n/a	3	-999	n/a	n/a	n/a	n/a	3	[0, 0, 0]	-999	PAL1	3	R1212P
437.361	0.002	967170	REC_EVENT	5.021	n/a	3	5	GRAPE	<>	GRAPE	GUARD	3	[0, 0, 0]	-999	PAL1	3	R1212P
437.363	0.01	967172	REC_END	n/a	n/a	3	-999	n/a	n/a	n/a	n/a	3	[0, 0, 0]	-999	PAL1	3	R1212P
437.373	0.275	967182	TEST_ORIENT	n/a	n/a	4	6	SEA	n/a	SEA	STICK	3	[0, 0, 0]	-999	PAL1	3	R1212P
438.29	4.0	968121	TEST_PROBE	n/a	wordpools/wordpool_EN.txt	4	6	SEA	n/a	SEA	STICK	3	[0, 0, 0]	-999	PAL1	3	R1212P
438.29	5.015	968121	REC_START	n/a	n/a	4	-999	n/a	n/a	n/a	n/a	3	[0, 0, 0]	-999	PAL1	3	R1212P
443.305	0.003	973256	REC_EVENT	5.015	n/a	4	6	SEA	<>	SEA	STICK	3	[0, 0, 0]	-999	PAL1	3	R1212P
443.308	1.446	973259	REC_END	n/a	n/a	4	-999	n/a	n/a	n/a	n/a	3	[0, 0, 0]	-999	PAL1	3	R1212P
444.754	10.439	974740	ENCODING_START	n/a	n/a	0	-999	n/a	n/a	n/a	n/a	4	[0, 0, 0]	-999	PAL1	3	R1212P
455.193	0.275	985429	STUDY_ORIENT	n/a	n/a	1	5	BOY	CLOTH	BOY	CLOTH	4	[0, 0, 0]	-999	PAL1	3	R1212P
456.16	4.0	986419	STUDY_PAIR	n/a	wordpools/wordpool_EN.txt	1	5	BOY	CLOTH	BOY	CLOTH	4	[0, 0, 0]	-999	PAL1	3	R1212P
461.178	0.275	991557	STUDY_ORIENT	n/a	n/a	2	2	WOLF	n/a	HOLE	WOLF	4	[0, 0, 0]	-999	PAL1	3	R1212P
462.161	4.0	992564	STUDY_PAIR	n/a	wordpools/wordpool_EN.txt	2	2	WOLF	n/a	HOLE	WOLF	4	[0, 0, 0]	-999	PAL1	3	R1212P
467.179	0.275	997702	STUDY_ORIENT	n/a	n/a	3	3	FLEA	n/a	FLEA	WAVE	4	[0, 0, 0]	-999	PAL1	3	R1212P
468.046	4.0	998590	STUDY_PAIR	n/a	wordpools/wordpool_EN.txt	3	3	FLEA	n/a	FLEA	WAVE	4	[0, 0, 0]	-999	PAL1	3	R1212P
473.08	0.275	1003744	STUDY_ORIENT	n/a	n/a	4	4	WHEEL	n/a	PEACH	WHEEL	4	[0, 0, 0]	-999	PAL1	3	R1212P
474.047	4.0	1004735	STUDY_PAIR	n/a	wordpools/wordpool_EN.txt	4	4	WHEEL	n/a	PEACH	WHEEL	4	[0, 0, 0]	-999	PAL1	3	R1212P
479.081	0.275	1009889	STUDY_ORIENT	n/a	n/a	5	1	THUMB	n/a	PEA	THUMB	4	[0, 0, 0]	-999	PAL1	3	R1212P
480.081	4.0	1010913	STUDY_PAIR	n/a	wordpools/wordpool_EN.txt	5	1	THUMB	n/a	PEA	THUMB	4	[0, 0, 0]	-999	PAL1	3	R1212P
485.099	0.275	1016051	STUDY_ORIENT	n/a	n/a	6	6	CAR	n/a	CAR	BED	4	[0, 0, 0]	-999	PAL1	3	R1212P
486.016	4.0	1016990	STUDY_PAIR	n/a	wordpools/wordpool_EN.txt	6	6	CAR	n/a	CAR	BED	4	[0, 0, 0]	-999	PAL1	3	R1212P
490.034	0.999	1021105	START	n/a	n/a	-999	-999	n/a	n/a	n/a	n/a	4	[-999, -999, -999]	-999	PAL1	3	R1212P
491.033	0.017	1022127	MATH_START	n/a	n/a	-999	-999	n/a	n/a	n/a	n/a	4	[0, 0, 0]	-999	PAL1	3	R1212P
491.05	3.284	1022145	PROB	3.264	n/a	-999	-999	n/a	n/a	n/a	n/a	4	[8, 7, 8]	22	PAL1	3	R1212P
494.334	3.317	1025508	PROB	3.292	n/a	-999	-999	n/a	n/a	n/a	n/a	4	[6, 2, 3]	11	PAL1	3	R1212P
497.651	2.734	1028904	PROB	2.711	n/a	-999	-999	n/a	n/a	n/a	n/a	4	[4, 1, 5]	10	PAL1	3	R1212P
500.385	4.084	1031703	PROB	4.057	n/a	-999	-999	n/a	n/a	n/a	n/a	4	[9, 3, 6]	18	PAL1	3	R1212P
504.469	2.551	1035885	PROB	2.525	n/a	-999	-999	n/a	n/a	n/a	n/a	4	[7, 7, 5]	19	PAL1	3	R1212P
507.02	3.238	1038497	PROB	3.238	n/a	-999	-999	n/a	n/a	n/a	n/a	4	[3, 6, 6]	15	PAL1	3	R1212P
510.258	0.012	1041813	STOP	n/a	n/a	-999	-999	n/a	n/a	n/a	n/a	4	[-999, -999, -999]	-999	PAL1	3	R1212P
510.27	0.0	1041825	MATH_END	n/a	n/a	-999	-999	n/a	n/a	n/a	n/a	4	[0, 0, 0]	-999	PAL1	3	R1212P
510.27	0.017	1041825	TEST_START	n/a	n/a	-999	-999	n/a	n/a	n/a	n/a	4	[0, 0, 0]	-999	PAL1	3	R1212P
510.287	0.275	1041843	TEST_ORIENT	n/a	n/a	5	1	THUMB	n/a	PEA	THUMB	4	[0, 0, 0]	-999	PAL1	3	R1212P
511.237	4.0	1042815	TEST_PROBE	n/a	wordpools/wordpool_EN.txt	5	1	THUMB	n/a	PEA	THUMB	4	[0, 0, 0]	-999	PAL1	3	R1212P
511.238	5.009	1042816	REC_START	n/a	n/a	5	-999	n/a	n/a	n/a	n/a	4	[0, 0, 0]	-999	PAL1	3	R1212P
516.247	0.0	1047945	REC_EVENT	5.009	n/a	5	1	THUMB	<>	PEA	THUMB	4	[0, 0, 0]	-999	PAL1	3	R1212P
516.247	0.008	1047945	REC_END	n/a	n/a	5	-999	n/a	n/a	n/a	n/a	4	[0, 0, 0]	-999	PAL1	3	R1212P
516.255	0.275	1047954	TEST_ORIENT	n/a	n/a	2	2	WOLF	n/a	HOLE	WOLF	4	[0, 0, 0]	-999	PAL1	3	R1212P
517.055	4.0	1048773	TEST_PROBE	n/a	wordpools/wordpool_EN.txt	2	2	WOLF	n/a	HOLE	WOLF	4	[0, 0, 0]	-999	PAL1	3	R1212P
517.055	5.018	1048773	REC_START	n/a	n/a	2	-999	n/a	n/a	n/a	n/a	4	[0, 0, 0]	-999	PAL1	3	R1212P
522.073	0.003	1053911	REC_END	n/a	n/a	2	-999	n/a	n/a	n/a	n/a	4	[0, 0, 0]	-999	PAL1	3	R1212P
522.076	0.014	1053914	REC_EVENT	5.021	n/a	2	2	WOLF	<>	HOLE	WOLF	4	[0, 0, 0]	-999	PAL1	3	R1212P
522.09	0.275	1053928	TEST_ORIENT	n/a	n/a	3	3	FLEA	n/a	FLEA	WAVE	4	[0, 0, 0]	-999	PAL1	3	R1212P
523.056	4.0	1054917	TEST_PROBE	n/a	wordpools/wordpool_EN.txt	3	3	FLEA	n/a	FLEA	WAVE	4	[0, 0, 0]	-999	PAL1	3	R1212P
523.057	5.009	1054918	REC_START	n/a	n/a	3	-999	n/a	n/a	n/a	n/a	4	[0, 0, 0]	-999	PAL1	3	R1212P
528.066	0.0	1060047	REC_END	n/a	n/a	3	-999	n/a	n/a	n/a	n/a	4	[0, 0, 0]	-999	PAL1	3	R1212P
528.066	0.008	1060047	REC_EVENT	5.009	n/a	3	3	FLEA	<>	FLEA	WAVE	4	[0, 0, 0]	-999	PAL1	3	R1212P
528.074	0.275	1060056	TEST_ORIENT	n/a	n/a	4	4	WHEEL	n/a	PEACH	WHEEL	4	[0, 0, 0]	-999	PAL1	3	R1212P
529.057	4.0	1061062	TEST_PROBE	n/a	wordpools/wordpool_EN.txt	4	4	WHEEL	n/a	PEACH	WHEEL	4	[0, 0, 0]	-999	PAL1	3	R1212P
529.058	5.009	1061063	REC_START	n/a	n/a	4	-999	n/a	n/a	n/a	n/a	4	[0, 0, 0]	-999	PAL1	3	R1212P
534.067	0.0	1066192	REC_EVENT	5.009	n/a	4	4	WHEEL	<>	PEACH	WHEEL	4	[0, 0, 0]	-999	PAL1	3	R1212P
534.067	0.008	1066192	REC_END	n/a	n/a	4	-999	n/a	n/a	n/a	n/a	4	[0, 0, 0]	-999	PAL1	3	R1212P
534.075	0.275	1066200	TEST_ORIENT	n/a	n/a	1	5	BOY	CLOTH	BOY	CLOTH	4	[0, 0, 0]	-999	PAL1	3	R1212P
535.109	4.0	1067259	TEST_PROBE	n/a	wordpools/wordpool_EN.txt	1	5	BOY	CLOTH	BOY	CLOTH	4	[0, 0, 0]	-999	PAL1	3	R1212P
535.109	2.706	1067259	REC_START	n/a	n/a	1	-999	n/a	CLOTH	n/a	n/a	4	[0, 0, 0]	-999	PAL1	3	R1212P
537.815	2.311	1070030	REC_EVENT	2.706	n/a	1	5	BOY	CLOTH	BOY	CLOTH	4	[0, 0, 0]	-999	PAL1	3	R1212P
540.126	0.017	1072396	REC_END	n/a	n/a	1	-999	n/a	n/a	n/a	n/a	4	[0, 0, 0]	-999	PAL1	3	R1212P
540.143	0.275	1072414	TEST_ORIENT	n/a	n/a	6	6	CAR	n/a	CAR	BED	4	[0, 0, 0]	-999	PAL1	3	R1212P
541.06	4.0	1073353	TEST_PROBE	n/a	wordpools/wordpool_EN.txt	6	6	CAR	n/a	CAR	BED	4	[0, 0, 0]	-999	PAL1	3	R1212P
541.06	5.015	1073353	REC_START	n/a	n/a	6	-999	n/a	n/a	n/a	n/a	4	[0, 0, 0]	-999	PAL1	3	R1212P
546.075	0.002	1078488	REC_EVENT	5.015	n/a	6	6	CAR	<>	CAR	BED	4	[0, 0, 0]	-999	PAL1	3	R1212P
546.077	1.485	1078490	REC_END	n/a	n/a	6	-999	n/a	n/a	n/a	n/a	4	[0, 0, 0]	-999	PAL1	3	R1212P
547.562	10.451	1080010	ENCODING_START	n/a	n/a	0	-999	n/a	n/a	n/a	n/a	5	[0, 0, 0]	-999	PAL1	3	R1212P
558.013	0.275	1090712	STUDY_ORIENT	n/a	n/a	1	1	SHIRT	MUD	SHIRT	MUD	5	[0, 0, 0]	-999	PAL1	3	R1212P
559.03	4.0	1091753	STUDY_PAIR	n/a	wordpools/wordpool_EN.txt	1	1	SHIRT	MUD	SHIRT	MUD	5	[0, 0, 0]	-999	PAL1	3	R1212P
564.064	0.275	1096908	STUDY_ORIENT	n/a	n/a	2	6	HEART	SHEET	SHEET	HEART	5	[0, 0, 0]	-999	PAL1	3	R1212P
564.998	4.0	1097864	STUDY_PAIR	n/a	wordpools/wordpool_EN.txt	2	6	HEART	SHEET	SHEET	HEART	5	[0, 0, 0]	-999	PAL1	3	R1212P
570.032	0.275	1103019	STUDY_ORIENT	n/a	n/a	3	5	TOOL	ARK	VAN	TOOL	5	[0, 0, 0]	-999	PAL1	3	R1212P
571.016	4.0	1104026	STUDY_PAIR	n/a	wordpools/wordpool_EN.txt	3	5	TOOL	ARK	VAN	TOOL	5	[0, 0, 0]	-999	PAL1	3	R1212P
576.05	0.275	1109181	STUDY_ORIENT	n/a	n/a	4	4	FORT	n/a	HAT	FORT	5	[0, 0, 0]	-999	PAL1	3	R1212P
576.867	4.0	1110017	STUDY_PAIR	n/a	wordpools/wordpool_EN.txt	4	4	FORT	n/a	HAT	FORT	5	[0, 0, 0]	-999	PAL1	3	R1212P
581.901	0.275	1115172	STUDY_ORIENT	n/a	n/a	5	3	CHEEK	n/a	CORD	CHEEK	5	[0, 0, 0]	-999	PAL1	3	R1212P
582.851	4.0	1116145	STUDY_PAIR	n/a	wordpools/wordpool_EN.txt	5	3	CHEEK	n/a	CORD	CHEEK	5	[0, 0, 0]	-999	PAL1	3	R1212P
587.869	0.275	1121283	STUDY_ORIENT	n/a	n/a	6	2	NOSE	n/a	NOSE	ARK	5	[0, 0, 0]	-999	PAL1	3	R1212P
588.686	4.0	1122119	STUDY_PAIR	n/a	wordpools/wordpool_EN.txt	6	2	NOSE	n/a	NOSE	ARK	5	[0, 0, 0]	-999	PAL1	3	R1212P
592.703	1.0	1126233	START	n/a	n/a	-999	-999	n/a	n/a	n/a	n/a	5	[-999, -999, -999]	-999	PAL1	3	R1212P
593.703	0.017	1127257	MATH_START	n/a	n/a	-999	-999	n/a	n/a	n/a	n/a	5	[0, 0, 0]	-999	PAL1	3	R1212P
593.72	2.9	1127274	PROB	2.866	n/a	-999	-999	n/a	n/a	n/a	n/a	5	[7, 9, 1]	17	PAL1	3	R1212P
596.62	1.884	1130243	PROB	1.854	n/a	-999	-999	n/a	n/a	n/a	n/a	5	[5, 1, 5]	11	PAL1	3	R1212P
598.504	2.817	1132173	PROB	2.794	n/a	-999	-999	n/a	n/a	n/a	n/a	5	[5, 9, 5]	19	PAL1	3	R1212P
601.321	2.684	1135057	PROB	2.657	n/a	-999	-999	n/a	n/a	n/a	n/a	5	[2, 5, 2]	9	PAL1	3	R1212P
604.005	2.867	1137805	PROB	2.837	n/a	-999	-999	n/a	n/a	n/a	n/a	5	[4, 5, 1]	10	PAL1	3	R1212P
606.872	1.651	1140741	PROB	1.618	n/a	-999	-999	n/a	n/a	n/a	n/a	5	[3, 5, 5]	13	PAL1	3	R1212P
608.523	2.417	1142432	PROB	2.383	n/a	-999	-999	n/a	n/a	n/a	n/a	5	[2, 1, 6]	9	PAL1	3	R1212P
610.94	3.67	1144906	PROB	3.67	n/a	-999	-999	n/a	n/a	n/a	n/a	5	[3, 4, 9]	16	PAL1	3	R1212P
614.61	0.014	1148664	STOP	n/a	n/a	-999	-999	n/a	n/a	n/a	n/a	5	[-999, -999, -999]	-999	PAL1	3	R1212P
614.624	0.0	1148679	MATH_END	n/a	n/a	-999	-999	n/a	n/a	n/a	n/a	5	[0, 0, 0]	-999	PAL1	3	R1212P
614.624	0.017	1148679	TEST_START	n/a	n/a	-999	-999	n/a	n/a	n/a	n/a	5	[0, 0, 0]	-999	PAL1	3	R1212P
614.641	0.275	1148696	TEST_ORIENT	n/a	n/a	1	1	SHIRT	MUD	SHIRT	MUD	5	[0, 0, 0]	-999	PAL1	3	R1212P
615.591	4.0	1149669	TEST_PROBE	n/a	wordpools/wordpool_EN.txt	1	1	SHIRT	MUD	SHIRT	MUD	5	[0, 0, 0]	-999	PAL1	3	R1212P
615.591	1.443	1149669	REC_START	n/a	n/a	1	-999	n/a	MUD	n/a	n/a	5	[0, 0, 0]	-999	PAL1	3	R1212P
617.034	3.574	1151146	REC_EVENT	1.443	n/a	1	1	SHIRT	MUD	SHIRT	MUD	5	[0, 0, 0]	-999	PAL1	3	R1212P
620.608	0.017	1154806	REC_END	n/a	n/a	1	-999	n/a	n/a	n/a	n/a	5	[0, 0, 0]	-999	PAL1	3	R1212P
620.625	0.275	1154823	TEST_ORIENT	n/a	n/a	6	2	NOSE	n/a	NOSE	ARK	5	[0, 0, 0]	-999	PAL1	3	R1212P
621.642	4.0	1155865	TEST_PROBE	n/a	wordpools/wordpool_EN.txt	6	2	NOSE	n/a	NOSE	ARK	5	[0, 0, 0]	-999	PAL1	3	R1212P
621.642	5.015	1155865	REC_START	n/a	n/a	6	-999	n/a	n/a	n/a	n/a	5	[0, 0, 0]	-999	PAL1	3	R1212P
626.657	0.002	1161000	REC_EVENT	5.015	n/a	6	2	NOSE	<>	NOSE	ARK	5	[0, 0, 0]	-999	PAL1	3	R1212P
626.659	0.017	1161002	REC_END	n/a	n/a	6	-999	n/a	n/a	n/a	n/a	5	[0, 0, 0]	-999	PAL1	3	R1212P
626.676	0.275	1161019	TEST_ORIENT	n/a	n/a	5	3	CHEEK	n/a	CORD	CHEEK	5	[0, 0, 0]	-999	PAL1	3	R1212P
627.576	4.0	1161941	TEST_PROBE	n/a	wordpools/wordpool_EN.txt	5	3	CHEEK	n/a	CORD	CHEEK	5	[0, 0, 0]	-999	PAL1	3	R1212P
627.577	5.008	1161942	REC_START	n/a	n/a	5	-999	n/a	n/a	n/a	n/a	5	[0, 0, 0]	-999	PAL1	3	R1212P
632.585	0.001	1167070	REC_END	n/a	n/a	5	-999	n/a	n/a	n/a	n/a	5	[0, 0, 0]	-999	PAL1	3	R1212P
632.586	0.008	1167071	REC_EVENT	5.009	n/a	5	3	CHEEK	<>	CORD	CHEEK	5	[0, 0, 0]	-999	PAL1	3	R1212P
632.594	0.275	1167079	TEST_ORIENT	n/a	n/a	4	4	FORT	n/a	HAT	FORT	5	[0, 0, 0]	-999	PAL1	3	R1212P
633.494	4.0	1168001	TEST_PROBE	n/a	wordpools/wordpool_EN.txt	4	4	FORT	n/a	HAT	FORT	5	[0, 0, 0]	-999	PAL1	3	R1212P
633.494	5.009	1168001	REC_START	n/a	n/a	4	-999	n/a	n/a	n/a	n/a	5	[0, 0, 0]	-999	PAL1	3	R1212P
638.503	0.001	1173130	REC_EVENT	5.009	n/a	4	4	FORT	<>	HAT	FORT	5	[0, 0, 0]	-999	PAL1	3	R1212P
638.504	0.008	1173131	REC_END	n/a	n/a	4	-999	n/a	n/a	n/a	n/a	5	[0, 0, 0]	-999	PAL1	3	R1212P
638.512	0.275	1173139	TEST_ORIENT	n/a	n/a	3	5	TOOL	ARK	VAN	TOOL	5	[0, 0, 0]	-999	PAL1	3	R1212P
639.395	4.0	1174043	TEST_PROBE	n/a	wordpools/wordpool_EN.txt	3	5	TOOL	ARK	VAN	TOOL	5	[0, 0, 0]	-999	PAL1	3	R1212P
639.396	1.86	1174044	REC_START	n/a	n/a	3	-999	n/a	ARK	n/a	n/a	5	[0, 0, 0]	-999	PAL1	3	R1212P
641.256	3.149	1175949	REC_EVENT	1.86	n/a	3	5	TOOL	ARK	VAN	TOOL	5	[0, 0, 0]	-999	PAL1	3	R1212P
644.405	0.008	1179173	REC_END	n/a	n/a	3	-999	n/a	n/a	n/a	n/a	5	[0, 0, 0]	-999	PAL1	3	R1212P
644.413	0.275	1179181	TEST_ORIENT	n/a	n/a	2	6	HEART	SHEET	SHEET	HEART	5	[0, 0, 0]	-999	PAL1	3	R1212P
645.363	4.0	1180154	TEST_PROBE	n/a	wordpools/wordpool_EN.txt	2	6	HEART	SHEET	SHEET	HEART	5	[0, 0, 0]	-999	PAL1	3	R1212P
645.363	1.569	1180154	REC_START	n/a	n/a	2	-999	n/a	SHEET	n/a	n/a	5	[0, 0, 0]	-999	PAL1	3	R1212P
646.932	3.449	1181761	REC_EVENT	1.569	n/a	2	6	HEART	SHEET	SHEET	HEART	5	[0, 0, 0]	-999	PAL1	3	R1212P
650.381	1.325	1185292	REC_END	n/a	n/a	2	-999	n/a	n/a	n/a	n/a	5	[0, 0, 0]	-999	PAL1	3	R1212P
651.706	10.444	1186649	ENCODING_START	n/a	n/a	0	-999	n/a	n/a	n/a	n/a	6	[0, 0, 0]	-999	PAL1	3	R1212P
662.15	0.275	1197343	STUDY_ORIENT	n/a	n/a	1	1	FOG	SPEAR	FOG	SPEAR	6	[0, 0, 0]	-999	PAL1	3	R1212P
663.067	4.0	1198282	STUDY_PAIR	n/a	wordpools/wordpool_EN.txt	1	1	FOG	SPEAR	FOG	SPEAR	6	[0, 0, 0]	-999	PAL1	3	R1212P
668.101	0.275	1203437	STUDY_ORIENT	n/a	n/a	2	4	HOOF	GLASS	GLASS	HOOF	6	[0, 0, 0]	-999	PAL1	3	R1212P
669.001	4.0	1204358	STUDY_PAIR	n/a	wordpools/wordpool_EN.txt	2	4	HOOF	GLASS	GLASS	HOOF	6	[0, 0, 0]	-999	PAL1	3	R1212P
674.035	0.275	1209513	STUDY_ORIENT	n/a	n/a	3	3	SIGN	n/a	SIGN	PURSE	6	[0, 0, 0]	-999	PAL1	3	R1212P
675.002	4.0	1210503	STUDY_PAIR	n/a	wordpools/wordpool_EN.txt	3	3	SIGN	n/a	SIGN	PURSE	6	[0, 0, 0]	-999	PAL1	3	R1212P
680.02	0.275	1215641	STUDY_ORIENT	n/a	n/a	4	2	SLEEVE	n/a	SLEEVE	DIME	6	[0, 0, 0]	-999	PAL1	3	R1212P
681.003	4.0	1216648	STUDY_PAIR	n/a	wordpools/wordpool_EN.txt	4	2	SLEEVE	n/a	SLEEVE	DIME	6	[0, 0, 0]	-999	PAL1	3	R1212P
686.021	0.275	1221786	STUDY_ORIENT	n/a	n/a	5	5	BLUSH	TREE	TREE	BLUSH	6	[0, 0, 0]	-999	PAL1	3	R1212P
686.854	4.0	1222639	STUDY_PAIR	n/a	wordpools/wordpool_EN.txt	5	5	BLUSH	TREE	TREE	BLUSH	6	[0, 0, 0]	-999	PAL1	3	R1212P
691.872	0.275	1227777	STUDY_ORIENT	n/a	n/a	6	6	VINE	ROCK	VINE	ROCK	6	[0, 0, 0]	-999	PAL1	3	R1212P
692.722	4.0	1228647	STUDY_PAIR	n/a	wordpools/wordpool_EN.txt	6	6	VINE	ROCK	VINE	ROCK	6	[0, 0, 0]	-999	PAL1	3	R1212P
696.723	1.0	1232744	START	n/a	n/a	-999	-999	n/a	n/a	n/a	n/a	6	[-999, -999, -999]	-999	PAL1	3	R1212P
697.723	0.017	1233768	MATH_START	n/a	n/a	-999	-999	n/a	n/a	n/a	n/a	6	[0, 0, 0]	-999	PAL1	3	R1212P
697.74	4.234	1233786	PROB	4.214	n/a	-999	-999	n/a	n/a	n/a	n/a	6	[3, 4, 8]	15	PAL1	3	R1212P
701.974	3.217	1238121	PROB	3.188	n/a	-999	-999	n/a	n/a	n/a	n/a	6	[2, 4, 1]	7	PAL1	3	R1212P
705.191	3.034	1241415	PROB	3.003	n/a	-999	-999	n/a	n/a	n/a	n/a	6	[6, 6, 4]	16	PAL1	3	R1212P
708.225	2.067	1244522	PROB	2.041	n/a	-999	-999	n/a	n/a	n/a	n/a	6	[1, 5, 9]	15	PAL1	3	R1212P
710.292	3.451	1246638	PROB	3.422	n/a	-999	-999	n/a	n/a	n/a	n/a	6	[2, 7, 6]	15	PAL1	3	R1212P
713.743	3.011	1250172	PROB	3.011	n/a	-999	-999	n/a	n/a	n/a	n/a	6	[7, 7, 8]	22	PAL1	3	R1212P
716.754	0.006	1253255	STOP	n/a	n/a	-999	-999	n/a	n/a	n/a	n/a	6	[-999, -999, -999]	-999	PAL1	3	R1212P
716.76	0.0	1253261	MATH_END	n/a	n/a	-999	-999	n/a	n/a	n/a	n/a	6	[0, 0, 0]	-999	PAL1	3	R1212P
716.76	0.017	1253261	TEST_START	n/a	n/a	-999	-999	n/a	n/a	n/a	n/a	6	[0, 0, 0]	-999	PAL1	3	R1212P
716.777	0.275	1253278	TEST_ORIENT	n/a	n/a	1	1	FOG	SPEAR	FOG	SPEAR	6	[0, 0, 0]	-999	PAL1	3	R1212P
717.644	4.0	1254166	TEST_PROBE	n/a	wordpools/wordpool_EN.txt	1	1	FOG	SPEAR	FOG	SPEAR	6	[0, 0, 0]	-999	PAL1	3	R1212P
717.644	2.479	1254166	REC_START	n/a	n/a	1	-999	n/a	SPEAR	n/a	n/a	6	[0, 0, 0]	-999	PAL1	3	R1212P
720.123	2.538	1256705	REC_EVENT	2.479	n/a	1	1	FOG	SPEAR	FOG	SPEAR	6	[0, 0, 0]	-999	PAL1	3	R1212P
722.661	0.017	1259303	REC_END	n/a	n/a	1	-999	n/a	n/a	n/a	n/a	6	[0, 0, 0]	-999	PAL1	3	R1212P
722.678	0.275	1259321	TEST_ORIENT	n/a	n/a	4	2	SLEEVE	n/a	SLEEVE	DIME	6	[0, 0, 0]	-999	PAL1	3	R1212P
723.578	4.0	1260242	TEST_PROBE	n/a	wordpools/wordpool_EN.txt	4	2	SLEEVE	n/a	SLEEVE	DIME	6	[0, 0, 0]	-999	PAL1	3	R1212P
723.579	5.008	1260243	REC_START	n/a	n/a	4	-999	n/a	n/a	n/a	n/a	6	[0, 0, 0]	-999	PAL1	3	R1212P
728.587	0.001	1265371	REC_END	n/a	n/a	4	-999	n/a	n/a	n/a	n/a	6	[0, 0, 0]	-999	PAL1	3	R1212P
728.588	0.008	1265372	REC_EVENT	5.009	n/a	4	2	SLEEVE	<>	SLEEVE	DIME	6	[0, 0, 0]	-999	PAL1	3	R1212P
728.596	0.275	1265381	TEST_ORIENT	n/a	n/a	3	3	SIGN	n/a	SIGN	PURSE	6	[0, 0, 0]	-999	PAL1	3	R1212P
729.413	4.0	1266217	TEST_PROBE	n/a	wordpools/wordpool_EN.txt	3	3	SIGN	n/a	SIGN	PURSE	6	[0, 0, 0]	-999	PAL1	3	R1212P
729.413	5.015	1266217	REC_START	n/a	n/a	3	-999	n/a	n/a	n/a	n/a	6	[0, 0, 0]	-999	PAL1	3	R1212P
734.428	0.002	1271352	REC_EVENT	5.015	n/a	3	3	SIGN	<>	SIGN	PURSE	6	[0, 0, 0]	-999	PAL1	3	R1212P
734.43	0.017	1271354	REC_END	n/a	n/a	3	-999	n/a	n/a	n/a	n/a	6	[0, 0, 0]	-999	PAL1	3	R1212P
734.447	0.275	1271372	TEST_ORIENT	n/a	n/a	2	4	HOOF	GLASS	GLASS	HOOF	6	[0, 0, 0]	-999	PAL1	3	R1212P
735.28	4.0	1272225	TEST_PROBE	n/a	wordpools/wordpool_EN.txt	2	4	HOOF	GLASS	GLASS	HOOF	6	[0, 0, 0]	-999	PAL1	3	R1212P
735.281	1.481	1272226	REC_START	n/a	n/a	2	-999	n/a	GLASS	n/a	n/a	6	[0, 0, 0]	-999	PAL1	3	R1212P
736.762	3.528	1273742	REC_EVENT	1.481	n/a	2	4	HOOF	GLASS	GLASS	HOOF	6	[0, 0, 0]	-999	PAL1	3	R1212P
740.29	0.008	1277355	REC_END	n/a	n/a	2	-999	n/a	n/a	n/a	n/a	6	[0, 0, 0]	-999	PAL1	3	R1212P
740.298	0.275	1277363	TEST_ORIENT	n/a	n/a	5	5	BLUSH	TREE	TREE	BLUSH	6	[0, 0, 0]	-999	PAL1	3	R1212P
741.131	4.0	1278216	TEST_PROBE	n/a	wordpools/wordpool_EN.txt	5	5	BLUSH	TREE	TREE	BLUSH	6	[0, 0, 0]	-999	PAL1	3	R1212P
741.132	1.696	1278217	REC_START	n/a	n/a	5	-999	n/a	TREE	n/a	n/a	6	[0, 0, 0]	-999	PAL1	3	R1212P
742.828	3.313	1279953	REC_EVENT	1.696	n/a	5	5	BLUSH	TREE	TREE	BLUSH	6	[0, 0, 0]	-999	PAL1	3	R1212P
746.141	0.008	1283346	REC_END	n/a	n/a	5	-999	n/a	n/a	n/a	n/a	6	[0, 0, 0]	-999	PAL1	3	R1212P
746.149	0.275	1283354	TEST_ORIENT	n/a	n/a	6	6	VINE	ROCK	VINE	ROCK	6	[0, 0, 0]	-999	PAL1	3	R1212P
747.099	4.0	1284327	TEST_PROBE	n/a	wordpools/wordpool_EN.txt	6	6	VINE	ROCK	VINE	ROCK	6	[0, 0, 0]	-999	PAL1	3	R1212P
747.1	2.15	1284328	REC_START	n/a	n/a	6	-999	n/a	ROCK	n/a	n/a	6	[0, 0, 0]	-999	PAL1	3	R1212P
749.25	2.85	1286529	REC_EVENT	2.15	n/a	6	6	VINE	ROCK	VINE	ROCK	6	[0, 0, 0]	-999	PAL1	3	R1212P
752.1	1.422	1289448	REC_END	n/a	n/a	6	-999	n/a	n/a	n/a	n/a	6	[0, 0, 0]	-999	PAL1	3	R1212P
753.522	10.447	1290904	ENCODING_START	n/a	n/a	0	-999	n/a	n/a	n/a	n/a	7	[0, 0, 0]	-999	PAL1	3	R1212P
763.969	0.275	1301601	STUDY_ORIENT	n/a	n/a	1	5	SEED	MAT	SEED	MAT	7	[0, 0, 0]	-999	PAL1	3	R1212P
764.786	4.0	1302437	STUDY_PAIR	n/a	wordpools/wordpool_EN.txt	1	5	SEED	MAT	SEED	MAT	7	[0, 0, 0]	-999	PAL1	3	R1212P
769.804	0.275	1307576	STUDY_ORIENT	n/a	n/a	2	4	TRAY	STORE	STORE	TRAY	7	[0, 0, 0]	-999	PAL1	3	R1212P
770.771	4.0	1308566	STUDY_PAIR	n/a	wordpools/wordpool_EN.txt	2	4	TRAY	STORE	STORE	TRAY	7	[0, 0, 0]	-999	PAL1	3	R1212P
775.805	0.275	1313720	STUDY_ORIENT	n/a	n/a	3	1	RUG	n/a	CRANE	RUG	7	[0, 0, 0]	-999	PAL1	3	R1212P
776.722	4.0	1314659	STUDY_PAIR	n/a	wordpools/wordpool_EN.txt	3	1	RUG	n/a	CRANE	RUG	7	[0, 0, 0]	-999	PAL1	3	R1212P
781.756	0.275	1319814	STUDY_ORIENT	n/a	n/a	4	6	TRAIN	PIG	TRAIN	PIG	7	[0, 0, 0]	-999	PAL1	3	R1212P
782.74	4.0	1320821	STUDY_PAIR	n/a	wordpools/wordpool_EN.txt	4	6	TRAIN	PIG	TRAIN	PIG	7	[0, 0, 0]	-999	PAL1	3	R1212P
787.774	0.275	1325976	STUDY_ORIENT	n/a	n/a	5	3	CHALK	n/a	STOOL	CHALK	7	[0, 0, 0]	-999	PAL1	3	R1212P
788.557	4.0	1326778	STUDY_PAIR	n/a	wordpools/wordpool_EN.txt	5	3	CHALK	n/a	STOOL	CHALK	7	[0, 0, 0]	-999	PAL1	3	R1212P
793.575	0.275	1331916	STUDY_ORIENT	n/a	n/a	6	2	STEM	n/a	STEM	BRUSH	7	[0, 0, 0]	-999	PAL1	3	R1212P
794.459	4.0	1332821	STUDY_PAIR	n/a	wordpools/wordpool_EN.txt	6	2	STEM	n/a	STEM	BRUSH	7	[0, 0, 0]	-999	PAL1	3	R1212P
798.477	0.999	1336935	START	n/a	n/a	-999	-999	n/a	n/a	n/a	n/a	7	[-999, -999, -999]	-999	PAL1	3	R1212P
799.476	0.017	1337958	MATH_START	n/a	n/a	-999	-999	n/a	n/a	n/a	n/a	7	[0, 0, 0]	-999	PAL1	3	R1212P
799.493	6.251	1337976	PROB	6.229	n/a	-999	-999	n/a	n/a	n/a	n/a	7	[3, 7, 7]	17	PAL1	3	R1212P
805.744	3.401	1344376	PROB	3.378	n/a	-999	-999	n/a	n/a	n/a	n/a	7	[7, 5, 7]	19	PAL1	3	R1212P
809.145	2.717	1347859	PROB	2.689	n/a	-999	-999	n/a	n/a	n/a	n/a	7	[8, 8, 2]	18	PAL1	3	R1212P
811.862	2.367	1350641	PROB	2.332	n/a	-999	-999	n/a	n/a	n/a	n/a	7	[5, 6, 4]	15	PAL1	3	R1212P
814.229	2.434	1353065	PROB	2.405	n/a	-999	-999	n/a	n/a	n/a	n/a	7	[5, 4, 2]	11	PAL1	3	R1212P
816.663	2.523	1355557	PROB	2.523	n/a	-999	-999	n/a	n/a	n/a	n/a	7	[8, 7, 4]	19	PAL1	3	R1212P
819.186	0.027	1358140	STOP	n/a	n/a	-999	-999	n/a	n/a	n/a	n/a	7	[-999, -999, -999]	-999	PAL1	3	R1212P
819.213	0.0	1358168	MATH_END	n/a	n/a	-999	-999	n/a	n/a	n/a	n/a	7	[0, 0, 0]	-999	PAL1	3	R1212P
819.213	0.017	1358168	TEST_START	n/a	n/a	-999	-999	n/a	n/a	n/a	n/a	7	[0, 0, 0]	-999	PAL1	3	R1212P
819.23	0.275	1358185	TEST_ORIENT	n/a	n/a	3	1	RUG	n/a	CRANE	RUG	7	[0, 0, 0]	-999	PAL1	3	R1212P
820.097	4.0	1359073	TEST_PROBE	n/a	wordpools/wordpool_EN.txt	3	1	RUG	n/a	CRANE	RUG	7	[0, 0, 0]	-999	PAL1	3	R1212P
820.097	5.015	1359073	REC_START	n/a	n/a	3	-999	n/a	n/a	n/a	n/a	7	[0, 0, 0]	-999	PAL1	3	R1212P
825.112	0.002	1364208	REC_EVENT	5.015	n/a	3	1	RUG	<>	CRANE	RUG	7	[0, 0, 0]	-999	PAL1	3	R1212P
825.114	0.017	1364210	REC_END	n/a	n/a	3	-999	n/a	n/a	n/a	n/a	7	[0, 0, 0]	-999	PAL1	3	R1212P
825.131	0.275	1364228	TEST_ORIENT	n/a	n/a	6	2	STEM	n/a	STEM	BRUSH	7	[0, 0, 0]	-999	PAL1	3	R1212P
825.931	4.0	1365047	TEST_PROBE	n/a	wordpools/wordpool_EN.txt	6	2	STEM	n/a	STEM	BRUSH	7	[0, 0, 0]	-999	PAL1	3	R1212P
825.932	4.998	1365048	REC_START	n/a	n/a	6	-999	n/a	n/a	n/a	n/a	7	[0, 0, 0]	-999	PAL1	3	R1212P
830.93	0.002	1370166	REC_EVENT	4.998	n/a	6	2	STEM	<>	STEM	BRUSH	7	[0, 0, 0]	-999	PAL1	3	R1212P
830.932	0.017	1370168	REC_END	n/a	n/a	6	-999	n/a	n/a	n/a	n/a	7	[0, 0, 0]	-999	PAL1	3	R1212P
830.949	0.275	1370185	TEST_ORIENT	n/a	n/a	5	3	CHALK	n/a	STOOL	CHALK	7	[0, 0, 0]	-999	PAL1	3	R1212P
831.766	0.0	1371022	REC_START	n/a	n/a	5	-999	n/a	n/a	n/a	n/a	7	[0, 0, 0]	-999	PAL1	3	R1212P
831.766	4.0	1371022	TEST_PROBE	n/a	wordpools/wordpool_EN.txt	5	3	CHALK	n/a	STOOL	CHALK	7	[0, 0, 0]	-999	PAL1	3	R1212P
836.781	0.002	1376157	REC_EVENT	5.015	n/a	5	3	CHALK	<>	STOOL	CHALK	7	[0, 0, 0]	-999	PAL1	3	R1212P
836.783	0.017	1376159	REC_END	n/a	n/a	5	-999	n/a	n/a	n/a	n/a	7	[0, 0, 0]	-999	PAL1	3	R1212P
836.8	0.275	1376176	TEST_ORIENT	n/a	n/a	2	4	TRAY	STORE	STORE	TRAY	7	[0, 0, 0]	-999	PAL1	3	R1212P
837.683	4.0	1377080	TEST_PROBE	n/a	wordpools/wordpool_EN.txt	2	4	TRAY	STORE	STORE	TRAY	7	[0, 0, 0]	-999	PAL1	3	R1212P
837.684	1.578	1377081	REC_START	n/a	n/a	2	-999	n/a	STORE	n/a	n/a	7	[0, 0, 0]	-999	PAL1	3	R1212P
839.262	3.43	1378697	REC_EVENT	1.578	n/a	2	4	TRAY	STORE	STORE	TRAY	7	[0, 0, 0]	-999	PAL1	3	R1212P
842.692	0.009	1382209	REC_END	n/a	n/a	2	-999	n/a	n/a	n/a	n/a	7	[0, 0, 0]	-999	PAL1	3	R1212P
842.701	0.275	1382219	TEST_ORIENT	n/a	n/a	1	5	SEED	MAT	SEED	MAT	7	[0, 0, 0]	-999	PAL1	3	R1212P
843.535	4.0	1383073	TEST_PROBE	n/a	wordpools/wordpool_EN.txt	1	5	SEED	MAT	SEED	MAT	7	[0, 0, 0]	-999	PAL1	3	R1212P
843.535	1.685	1383073	REC_START	n/a	n/a	1	-999	n/a	MAT	n/a	n/a	7	[0, 0, 0]	-999	PAL1	3	R1212P
845.22	3.332	1384798	REC_EVENT	1.685	n/a	1	5	SEED	MAT	SEED	MAT	7	[0, 0, 0]	-999	PAL1	3	R1212P
848.552	0.017	1388210	REC_END	n/a	n/a	1	-999	n/a	n/a	n/a	n/a	7	[0, 0, 0]	-999	PAL1	3	R1212P
848.569	0.275	1388227	TEST_ORIENT	n/a	n/a	4	6	TRAIN	PIG	TRAIN	PIG	7	[0, 0, 0]	-999	PAL1	3	R1212P
849.486	4.0	1389166	TEST_PROBE	n/a	wordpools/wordpool_EN.txt	4	6	TRAIN	PIG	TRAIN	PIG	7	[0, 0, 0]	-999	PAL1	3	R1212P
849.486	1.844	1389166	REC_START	n/a	n/a	4	-999	n/a	PIG	n/a	n/a	7	[0, 0, 0]	-999	PAL1	3	R1212P
851.33	3.173	1391054	REC_EVENT	1.844	n/a	4	6	TRAIN	PIG	TRAIN	PIG	7	[0, 0, 0]	-999	PAL1	3	R1212P
854.503	1.419	1394303	REC_END	n/a	n/a	4	-999	n/a	n/a	n/a	n/a	7	[0, 0, 0]	-999	PAL1	3	R1212P
855.922	10.45	1395756	ENCODING_START	n/a	n/a	0	-999	n/a	n/a	n/a	n/a	8	[0, 0, 0]	-999	PAL1	3	R1212P
866.372	0.275	1406457	STUDY_ORIENT	n/a	n/a	1	5	CASH	n/a	CASH	PET	8	[0, 0, 0]	-999	PAL1	3	R1212P
867.189	4.0	1407293	STUDY_PAIR	n/a	wordpools/wordpool_EN.txt	1	5	CASH	n/a	CASH	PET	8	[0, 0, 0]	-999	PAL1	3	R1212P
872.206	0.275	1412430	STUDY_ORIENT	n/a	n/a	2	6	DEER	n/a	DRUM	DEER	8	[0, 0, 0]	-999	PAL1	3	R1212P
873.157	4.0	1413404	STUDY_PAIR	n/a	wordpools/wordpool_EN.txt	2	6	DEER	n/a	DRUM	DEER	8	[0, 0, 0]	-999	PAL1	3	R1212P
878.191	0.275	1418559	STUDY_ORIENT	n/a	n/a	3	3	TOE	BRANCH	BRANCH	TOE	8	[0, 0, 0]	-999	PAL1	3	R1212P
879.091	4.0	1419480	STUDY_PAIR	n/a	wordpools/wordpool_EN.txt	3	3	TOE	BRANCH	BRANCH	TOE	8	[0, 0, 0]	-999	PAL1	3	R1212P
884.109	0.275	1424618	STUDY_ORIENT	n/a	n/a	4	2	CLIFF	n/a	CLIFF	MAIL	8	[0, 0, 0]	-999	PAL1	3	R1212P
884.893	4.0	1425421	STUDY_PAIR	n/a	wordpools/wordpool_EN.txt	4	2	CLIFF	n/a	CLIFF	MAIL	8	[0, 0, 0]	-999	PAL1	3	R1212P
889.927	0.275	1430576	STUDY_ORIENT	n/a	n/a	5	1	WHALE	n/a	BARN	WHALE	8	[0, 0, 0]	-999	PAL1	3	R1212P
890.744	4.0	1431412	STUDY_PAIR	n/a	wordpools/wordpool_EN.txt	5	1	WHALE	n/a	BARN	WHALE	8	[0, 0, 0]	-999	PAL1	3	R1212P
895.778	0.275	1436567	STUDY_ORIENT	n/a	n/a	6	4	FLOOR	KITE	FLOOR	KITE	8	[0, 0, 0]	-999	PAL1	3	R1212P
896.628	4.0	1437437	STUDY_PAIR	n/a	wordpools/wordpool_EN.txt	6	4	FLOOR	KITE	FLOOR	KITE	8	[0, 0, 0]	-999	PAL1	3	R1212P
900.629	1.0	1441534	START	n/a	n/a	-999	-999	n/a	n/a	n/a	n/a	8	[-999, -999, -999]	-999	PAL1	3	R1212P
901.629	0.017	1442558	MATH_START	n/a	n/a	-999	-999	n/a	n/a	n/a	n/a	8	[0, 0, 0]	-999	PAL1	3	R1212P
901.646	2.7	1442575	PROB	2.668	n/a	-999	-999	n/a	n/a	n/a	n/a	8	[5, 5, 5]	15	PAL1	3	R1212P
904.346	5.385	1445340	PROB	5.36	n/a	-999	-999	n/a	n/a	n/a	n/a	8	[1, 8, 5]	14	PAL1	3	R1212P
909.731	3.95	1450854	PROB	3.919	n/a	-999	-999	n/a	n/a	n/a	n/a	8	[6, 7, 7]	20	PAL1	3	R1212P
913.681	2.801	1454899	PROB	2.777	n/a	-999	-999	n/a	n/a	n/a	n/a	8	[7, 5, 5]	17	PAL1	3	R1212P
916.482	3.501	1457767	PROB	3.48	n/a	-999	-999	n/a	n/a	n/a	n/a	8	[6, 3, 4]	13	PAL1	3	R1212P
919.983	5.595	1461352	PROB	5.595	n/a	-999	-999	n/a	n/a	n/a	n/a	8	[7, 1, 5]	13	PAL1	3	R1212P
925.578	0.006	1467081	STOP	n/a	n/a	-999	-999	n/a	n/a	n/a	n/a	8	[-999, -999, -999]	-999	PAL1	3	R1212P
925.584	0.0	1467087	MATH_END	n/a	n/a	-999	-999	n/a	n/a	n/a	n/a	8	[0, 0, 0]	-999	PAL1	3	R1212P
925.584	0.016	1467087	TEST_START	n/a	n/a	-999	-999	n/a	n/a	n/a	n/a	8	[0, 0, 0]	-999	PAL1	3	R1212P
925.6	0.275	1467103	TEST_ORIENT	n/a	n/a	5	1	WHALE	n/a	BARN	WHALE	8	[0, 0, 0]	-999	PAL1	3	R1212P
926.534	0.0	1468060	REC_START	n/a	n/a	5	-999	n/a	n/a	n/a	n/a	8	[0, 0, 0]	-999	PAL1	3	R1212P
926.534	4.0	1468060	TEST_PROBE	n/a	wordpools/wordpool_EN.txt	5	1	WHALE	n/a	BARN	WHALE	8	[0, 0, 0]	-999	PAL1	3	R1212P
931.551	0.004	1473197	REC_END	n/a	n/a	5	-999	n/a	n/a	n/a	n/a	8	[0, 0, 0]	-999	PAL1	3	R1212P
931.555	0.013	1473201	REC_EVENT	5.021	n/a	5	1	WHALE	<>	BARN	WHALE	8	[0, 0, 0]	-999	PAL1	3	R1212P
931.568	0.275	1473214	TEST_ORIENT	n/a	n/a	4	2	CLIFF	n/a	CLIFF	MAIL	8	[0, 0, 0]	-999	PAL1	3	R1212P
932.602	4.0	1474273	TEST_PROBE	n/a	wordpools/wordpool_EN.txt	4	2	CLIFF	n/a	CLIFF	MAIL	8	[0, 0, 0]	-999	PAL1	3	R1212P
932.602	5.015	1474273	REC_START	n/a	n/a	4	-999	n/a	n/a	n/a	n/a	8	[0, 0, 0]	-999	PAL1	3	R1212P
937.617	0.002	1479408	REC_EVENT	5.015	n/a	4	2	CLIFF	<>	CLIFF	MAIL	8	[0, 0, 0]	-999	PAL1	3	R1212P
937.619	0.017	1479410	REC_END	n/a	n/a	4	-999	n/a	n/a	n/a	n/a	8	[0, 0, 0]	-999	PAL1	3	R1212P
937.636	0.275	1479428	TEST_ORIENT	n/a	n/a	3	3	TOE	BRANCH	BRANCH	TOE	8	[0, 0, 0]	-999	PAL1	3	R1212P
938.553	4.0	1480366	TEST_PROBE	n/a	wordpools/wordpool_EN.txt	3	3	TOE	BRANCH	BRANCH	TOE	8	[0, 0, 0]	-999	PAL1	3	R1212P
938.553	2.062	1480366	REC_START	n/a	n/a	3	-999	n/a	BRANCH	n/a	n/a	8	[0, 0, 0]	-999	PAL1	3	R1212P
940.615	2.964	1482478	REC_EVENT	2.062	n/a	3	3	TOE	BRANCH	BRANCH	TOE	8	[0, 0, 0]	-999	PAL1	3	R1212P
943.579	0.008	1485513	REC_END	n/a	n/a	3	-999	n/a	n/a	n/a	n/a	8	[0, 0, 0]	-999	PAL1	3	R1212P
943.587	0.275	1485521	TEST_ORIENT	n/a	n/a	6	4	FLOOR	KITE	FLOOR	KITE	8	[0, 0, 0]	-999	PAL1	3	R1212P
944.587	4.0	1486545	TEST_PROBE	n/a	wordpools/wordpool_EN.txt	6	4	FLOOR	KITE	FLOOR	KITE	8	[0, 0, 0]	-999	PAL1	3	R1212P
944.588	2.521	1486546	REC_START	n/a	n/a	6	-999	n/a	KITE	n/a	n/a	8	[0, 0, 0]	-999	PAL1	3	R1212P
947.109	2.488	1489127	REC_EVENT	2.521	n/a	6	4	FLOOR	KITE	FLOOR	KITE	8	[0, 0, 0]	-999	PAL1	3	R1212P
949.597	0.008	1491675	REC_END	n/a	n/a	6	-999	n/a	n/a	n/a	n/a	8	[0, 0, 0]	-999	PAL1	3	R1212P
949.605	0.275	1491683	TEST_ORIENT	n/a	n/a	1	5	CASH	n/a	CASH	PET	8	[0, 0, 0]	-999	PAL1	3	R1212P
950.622	4.0	1492725	TEST_PROBE	n/a	wordpools/wordpool_EN.txt	1	5	CASH	n/a	CASH	PET	8	[0, 0, 0]	-999	PAL1	3	R1212P
950.622	5.015	1492725	REC_START	n/a	n/a	1	-999	n/a	n/a	n/a	n/a	8	[0, 0, 0]	-999	PAL1	3	R1212P
955.637	0.002	1497860	REC_EVENT	5.015	n/a	1	5	CASH	<>	CASH	PET	8	[0, 0, 0]	-999	PAL1	3	R1212P
955.639	0.017	1497862	REC_END	n/a	n/a	1	-999	n/a	n/a	n/a	n/a	8	[0, 0, 0]	-999	PAL1	3	R1212P
955.656	0.275	1497879	TEST_ORIENT	n/a	n/a	2	6	DEER	n/a	DRUM	DEER	8	[0, 0, 0]	-999	PAL1	3	R1212P
956.656	4.0	1498903	TEST_PROBE	n/a	wordpools/wordpool_EN.txt	2	6	DEER	n/a	DRUM	DEER	8	[0, 0, 0]	-999	PAL1	3	R1212P
956.657	5.003	1498904	REC_START	n/a	n/a	2	-999	n/a	n/a	n/a	n/a	8	[0, 0, 0]	-999	PAL1	3	R1212P
961.66	0.006	1504027	REC_EVENT	5.003	n/a	2	6	DEER	<>	DRUM	DEER	8	[0, 0, 0]	-999	PAL1	3	R1212P
961.666	1.432	1504033	REC_END	n/a	n/a	2	-999	n/a	n/a	n/a	n/a	8	[0, 0, 0]	-999	PAL1	3	R1212P
963.098	10.445	1505499	ENCODING_START	n/a	n/a	0	-999	n/a	n/a	n/a	n/a	9	[0, 0, 0]	-999	PAL1	3	R1212P
973.543	0.275	1516195	STUDY_ORIENT	n/a	n/a	1	5	STORM	n/a	MOUSE	STORM	9	[0, 0, 0]	-999	PAL1	3	R1212P
974.543	4.0	1517219	STUDY_PAIR	n/a	wordpools/wordpool_EN.txt	1	5	STORM	n/a	MOUSE	STORM	9	[0, 0, 0]	-999	PAL1	3	R1212P
979.561	0.275	1522357	STUDY_ORIENT	n/a	n/a	2	6	NEST	n/a	NEST	TOY	9	[0, 0, 0]	-999	PAL1	3	R1212P
980.478	4.0	1523296	STUDY_PAIR	n/a	wordpools/wordpool_EN.txt	2	6	NEST	n/a	NEST	TOY	9	[0, 0, 0]	-999	PAL1	3	R1212P
985.512	0.275	1528450	STUDY_ORIENT	n/a	n/a	3	3	EEL	n/a	EEL	FOOT	9	[0, 0, 0]	-999	PAL1	3	R1212P
986.362	4.0	1529321	STUDY_PAIR	n/a	wordpools/wordpool_EN.txt	3	3	EEL	n/a	EEL	FOOT	9	[0, 0, 0]	-999	PAL1	3	R1212P
991.396	0.275	1534475	STUDY_ORIENT	n/a	n/a	4	4	STOVE	n/a	STOVE	ELF	9	[0, 0, 0]	-999	PAL1	3	R1212P
992.23	4.0	1535329	STUDY_PAIR	n/a	wordpools/wordpool_EN.txt	4	4	STOVE	n/a	STOVE	ELF	9	[0, 0, 0]	-999	PAL1	3	R1212P
997.264	0.275	1540484	STUDY_ORIENT	n/a	n/a	5	1	SHARK	n/a	PHONE	SHARK	9	[0, 0, 0]	-999	PAL1	3	R1212P
998.181	4.0	1541423	STUDY_PAIR	n/a	wordpools/wordpool_EN.txt	5	1	SHARK	n/a	PHONE	SHARK	9	[0, 0, 0]	-999	PAL1	3	R1212P
1003.215	0.275	1546577	STUDY_ORIENT	n/a	n/a	6	2	COIN	n/a	COIN	HAND	9	[0, 0, 0]	-999	PAL1	3	R1212P
1004.132	4.0	1547516	STUDY_PAIR	n/a	wordpools/wordpool_EN.txt	6	2	COIN	n/a	COIN	HAND	9	[0, 0, 0]	-999	PAL1	3	R1212P
1008.133	1.0	1551613	START	n/a	n/a	-999	-999	n/a	n/a	n/a	n/a	9	[-999, -999, -999]	-999	PAL1	3	R1212P
1009.133	0.017	1552637	MATH_START	n/a	n/a	-999	-999	n/a	n/a	n/a	n/a	9	[0, 0, 0]	-999	PAL1	3	R1212P
1009.15	3.217	1552654	PROB	3.196	n/a	-999	-999	n/a	n/a	n/a	n/a	9	[7, 8, 7]	22	PAL1	3	R1212P
1012.367	4.001	1555948	PROB	3.979	n/a	-999	-999	n/a	n/a	n/a	n/a	9	[5, 9, 2]	16	PAL1	3	R1212P
1016.368	3.35	1560045	PROB	3.322	n/a	-999	-999	n/a	n/a	n/a	n/a	9	[4, 9, 7]	20	PAL1	3	R1212P
1019.718	2.134	1563476	PROB	2.108	n/a	-999	-999	n/a	n/a	n/a	n/a	9	[3, 3, 7]	13	PAL1	3	R1212P
1021.852	3.068	1565661	PROB	3.038	n/a	-999	-999	n/a	n/a	n/a	n/a	9	[7, 8, 5]	20	PAL1	3	R1212P
1024.92	2.883	1568802	PROB	2.85	n/a	-999	-999	n/a	n/a	n/a	n/a	9	[3, 8, 3]	14	PAL1	3	R1212P
1027.803	5.631	1571754	PROB	5.631	n/a	-999	-999	n/a	n/a	n/a	n/a	9	[4, 2, 3]	9	PAL1	3	R1212P
1033.434	0.004	1577520	STOP	n/a	n/a	-999	-999	n/a	n/a	n/a	n/a	9	[-999, -999, -999]	-999	PAL1	3	R1212P
1033.438	0.0	1577524	MATH_END	n/a	n/a	-999	-999	n/a	n/a	n/a	n/a	9	[0, 0, 0]	-999	PAL1	3	R1212P
1033.438	0.017	1577524	TEST_START	n/a	n/a	-999	-999	n/a	n/a	n/a	n/a	9	[0, 0, 0]	-999	PAL1	3	R1212P
1033.455	0.275	1577542	TEST_ORIENT	n/a	n/a	5	1	SHARK	n/a	PHONE	SHARK	9	[0, 0, 0]	-999	PAL1	3	R1212P
1034.438	4.0	1578548	TEST_PROBE	n/a	wordpools/wordpool_EN.txt	5	1	SHARK	n/a	PHONE	SHARK	9	[0, 0, 0]	-999	PAL1	3	R1212P
1034.439	5.015	1578549	REC_START	n/a	n/a	5	-999	n/a	n/a	n/a	n/a	9	[0, 0, 0]	-999	PAL1	3	R1212P
1039.454	0.001	1583684	REC_EVENT	5.015	n/a	5	1	SHARK	<>	PHONE	SHARK	9	[0, 0, 0]	-999	PAL1	3	R1212P
1039.455	0.017	1583685	REC_END	n/a	n/a	5	-999	n/a	n/a	n/a	n/a	9	[0, 0, 0]	-999	PAL1	3	R1212P
1039.472	0.275	1583703	TEST_ORIENT	n/a	n/a	6	2	COIN	n/a	COIN	HAND	9	[0, 0, 0]	-999	PAL1	3	R1212P
1040.489	4.0	1584744	TEST_PROBE	n/a	wordpools/wordpool_EN.txt	6	2	COIN	n/a	COIN	HAND	9	[0, 0, 0]	-999	PAL1	3	R1212P
1040.49	5.009	1584745	REC_START	n/a	n/a	6	-999	n/a	n/a	n/a	n/a	9	[0, 0, 0]	-999	PAL1	3	R1212P
1045.499	0.0	1589874	REC_EVENT	5.009	n/a	6	2	COIN	<>	COIN	HAND	9	[0, 0, 0]	-999	PAL1	3	R1212P
1045.499	0.008	1589874	REC_END	n/a	n/a	6	-999	n/a	n/a	n/a	n/a	9	[0, 0, 0]	-999	PAL1	3	R1212P
1045.507	0.275	1589882	TEST_ORIENT	n/a	n/a	3	3	EEL	n/a	EEL	FOOT	9	[0, 0, 0]	-999	PAL1	3	R1212P
1046.307	4.0	1590701	TEST_PROBE	n/a	wordpools/wordpool_EN.txt	3	3	EEL	n/a	EEL	FOOT	9	[0, 0, 0]	-999	PAL1	3	R1212P
1046.307	5.015	1590701	REC_START	n/a	n/a	3	-999	n/a	n/a	n/a	n/a	9	[0, 0, 0]	-999	PAL1	3	R1212P
1051.322	0.002	1595837	REC_EVENT	5.015	n/a	3	3	EEL	<>	EEL	FOOT	9	[0, 0, 0]	-999	PAL1	3	R1212P
1051.324	0.017	1595839	REC_END	n/a	n/a	3	-999	n/a	n/a	n/a	n/a	9	[0, 0, 0]	-999	PAL1	3	R1212P
1051.341	0.275	1595856	TEST_ORIENT	n/a	n/a	4	4	STOVE	n/a	STOVE	ELF	9	[0, 0, 0]	-999	PAL1	3	R1212P
1052.158	4.0	1596693	TEST_PROBE	n/a	wordpools/wordpool_EN.txt	4	4	STOVE	n/a	STOVE	ELF	9	[0, 0, 0]	-999	PAL1	3	R1212P
1052.158	5.015	1596693	REC_START	n/a	n/a	4	-999	n/a	n/a	n/a	n/a	9	[0, 0, 0]	-999	PAL1	3	R1212P
1057.173	0.002	1601828	REC_EVENT	5.015	n/a	4	4	STOVE	<>	STOVE	ELF	9	[0, 0, 0]	-999	PAL1	3	R1212P
1057.175	0.017	1601830	REC_END	n/a	n/a	4	-999	n/a	n/a	n/a	n/a	9	[0, 0, 0]	-999	PAL1	3	R1212P
1057.192	0.275	1601847	TEST_ORIENT	n/a	n/a	1	5	STORM	n/a	MOUSE	STORM	9	[0, 0, 0]	-999	PAL1	3	R1212P
1058.026	4.0	1602701	TEST_PROBE	n/a	wordpools/wordpool_EN.txt	1	5	STORM	n/a	MOUSE	STORM	9	[0, 0, 0]	-999	PAL1	3	R1212P
1058.026	5.015	1602701	REC_START	n/a	n/a	1	-999	n/a	n/a	n/a	n/a	9	[0, 0, 0]	-999	PAL1	3	R1212P
1063.041	0.002	1607836	REC_EVENT	5.015	n/a	1	5	STORM	<>	MOUSE	STORM	9	[0, 0, 0]	-999	PAL1	3	R1212P
1063.043	0.017	1607838	REC_END	n/a	n/a	1	-999	n/a	n/a	n/a	n/a	9	[0, 0, 0]	-999	PAL1	3	R1212P
1063.06	0.275	1607856	TEST_ORIENT	n/a	n/a	2	6	NEST	n/a	NEST	TOY	9	[0, 0, 0]	-999	PAL1	3	R1212P
1063.944	4.0	1608761	TEST_PROBE	n/a	wordpools/wordpool_EN.txt	2	6	NEST	n/a	NEST	TOY	9	[0, 0, 0]	-999	PAL1	3	R1212P
1063.944	5.017	1608761	REC_START	n/a	n/a	2	-999	n/a	n/a	n/a	n/a	9	[0, 0, 0]	-999	PAL1	3	R1212P
1068.961	0.004	1613898	REC_END	n/a	n/a	2	-999	n/a	n/a	n/a	n/a	9	[0, 0, 0]	-999	PAL1	3	R1212P
1068.965	2.013	1613902	REC_EVENT	5.021	n/a	2	6	NEST	<>	NEST	TOY	9	[0, 0, 0]	-999	PAL1	3	R1212P
1070.978	10.452	1615963	ENCODING_START	n/a	n/a	0	-999	n/a	n/a	n/a	n/a	10	[0, 0, 0]	-999	PAL1	3	R1212P
1081.43	0.275	1626666	STUDY_ORIENT	n/a	n/a	1	3	CORN	JUDGE	JUDGE	CORN	10	[0, 0, 0]	-999	PAL1	3	R1212P
1082.23	4.0	1627485	STUDY_PAIR	n/a	wordpools/wordpool_EN.txt	1	3	CORN	JUDGE	JUDGE	CORN	10	[0, 0, 0]	-999	PAL1	3	R1212P
1087.248	0.275	1632623	STUDY_ORIENT	n/a	n/a	2	6	RIB	WOOD	WOOD	RIB	10	[0, 0, 0]	-999	PAL1	3	R1212P
1088.065	4.0	1633460	STUDY_PAIR	n/a	wordpools/wordpool_EN.txt	2	6	RIB	WOOD	WOOD	RIB	10	[0, 0, 0]	-999	PAL1	3	R1212P
1093.099	0.275	1638614	STUDY_ORIENT	n/a	n/a	3	5	LEG	n/a	LEG	SHRIMP	10	[0, 0, 0]	-999	PAL1	3	R1212P
1094.099	4.0	1639638	STUDY_PAIR	n/a	wordpools/wordpool_EN.txt	3	5	LEG	n/a	LEG	SHRIMP	10	[0, 0, 0]	-999	PAL1	3	R1212P
1099.117	0.275	1644776	STUDY_ORIENT	n/a	n/a	4	2	FLUTE	n/a	SHOE	FLUTE	10	[0, 0, 0]	-999	PAL1	3	R1212P
1100.084	4.0	1645766	STUDY_PAIR	n/a	wordpools/wordpool_EN.txt	4	2	FLUTE	n/a	SHOE	FLUTE	10	[0, 0, 0]	-999	PAL1	3	R1212P
1105.118	0.275	1650921	STUDY_ORIENT	n/a	n/a	5	1	SWORD	JAIL	JAIL	SWORD	10	[0, 0, 0]	-999	PAL1	3	R1212P
1105.952	4.0	1651775	STUDY_PAIR	n/a	wordpools/wordpool_EN.txt	5	1	SWORD	JAIL	JAIL	SWORD	10	[0, 0, 0]	-999	PAL1	3	R1212P
1110.986	0.275	1656930	STUDY_ORIENT	n/a	n/a	6	4	DOCK	n/a	DOCK	SMOKE	10	[0, 0, 0]	-999	PAL1	3	R1212P
1111.87	4.0	1657835	STUDY_PAIR	n/a	wordpools/wordpool_EN.txt	6	4	DOCK	n/a	DOCK	SMOKE	10	[0, 0, 0]	-999	PAL1	3	R1212P
1115.888	0.999	1661949	START	n/a	n/a	-999	-999	n/a	n/a	n/a	n/a	10	[-999, -999, -999]	-999	PAL1	3	R1212P
1116.887	0.017	1662972	MATH_START	n/a	n/a	-999	-999	n/a	n/a	n/a	n/a	10	[0, 0, 0]	-999	PAL1	3	R1212P
1116.904	5.668	1662989	PROB	5.642	n/a	-999	-999	n/a	n/a	n/a	n/a	10	[9, 2, 3]	14	PAL1	3	R1212P
1122.572	3.217	1668793	PROB	3.19	n/a	-999	-999	n/a	n/a	n/a	n/a	10	[5, 1, 4]	10	PAL1	3	R1212P
1125.789	1.8	1672087	PROB	1.773	n/a	-999	-999	n/a	n/a	n/a	n/a	10	[6, 1, 1]	11	PAL1	3	R1212P
1127.589	6.768	1673930	PROB	6.749	n/a	-999	-999	n/a	n/a	n/a	n/a	10	[5, 8, 3]	16	PAL1	3	R1212P
1134.357	6.149	1680860	PROB	6.149	n/a	-999	-999	n/a	n/a	n/a	n/a	10	[6, 6, 3]	15	PAL1	3	R1212P
1140.506	0.002	1687157	STOP	n/a	n/a	-999	-999	n/a	n/a	n/a	n/a	10	[-999, -999, -999]	-999	PAL1	3	R1212P
1140.508	0.0	1687159	MATH_END	n/a	n/a	-999	-999	n/a	n/a	n/a	n/a	10	[0, 0, 0]	-999	PAL1	3	R1212P
1140.508	0.017	1687159	TEST_START	n/a	n/a	-999	-999	n/a	n/a	n/a	n/a	10	[0, 0, 0]	-999	PAL1	3	R1212P
1140.525	0.275	1687176	TEST_ORIENT	n/a	n/a	5	1	SWORD	JAIL	JAIL	SWORD	10	[0, 0, 0]	-999	PAL1	3	R1212P
1141.492	4.0	1688166	TEST_PROBE	n/a	wordpools/wordpool_EN.txt	5	1	SWORD	JAIL	JAIL	SWORD	10	[0, 0, 0]	-999	PAL1	3	R1212P
1141.492	2.091	1688166	REC_START	n/a	n/a	5	-999	n/a	JAIL	n/a	n/a	10	[0, 0, 0]	-999	PAL1	3	R1212P
1143.583	2.926	1690307	REC_EVENT	2.091	n/a	5	1	SWORD	JAIL	JAIL	SWORD	10	[0, 0, 0]	-999	PAL1	3	R1212P
1146.509	0.017	1693303	REC_END	n/a	n/a	5	-999	n/a	n/a	n/a	n/a	10	[0, 0, 0]	-999	PAL1	3	R1212P
1146.526	0.275	1693321	TEST_ORIENT	n/a	n/a	4	2	FLUTE	n/a	SHOE	FLUTE	10	[0, 0, 0]	-999	PAL1	3	R1212P
1147.493	4.0	1694311	TEST_PROBE	n/a	wordpools/wordpool_EN.txt	4	2	FLUTE	n/a	SHOE	FLUTE	10	[0, 0, 0]	-999	PAL1	3	R1212P
1147.494	5.015	1694312	REC_START	n/a	n/a	4	-999	n/a	n/a	n/a	n/a	10	[0, 0, 0]	-999	PAL1	3	R1212P
1152.509	0.001	1699447	REC_EVENT	5.015	n/a	4	2	FLUTE	<>	SHOE	FLUTE	10	[0, 0, 0]	-999	PAL1	3	R1212P
1152.51	0.017	1699448	REC_END	n/a	n/a	4	-999	n/a	n/a	n/a	n/a	10	[0, 0, 0]	-999	PAL1	3	R1212P
1152.527	0.275	1699466	TEST_ORIENT	n/a	n/a	1	3	CORN	JUDGE	JUDGE	CORN	10	[0, 0, 0]	-999	PAL1	3	R1212P
1153.527	4.0	1700490	TEST_PROBE	n/a	wordpools/wordpool_EN.txt	1	3	CORN	JUDGE	JUDGE	CORN	10	[0, 0, 0]	-999	PAL1	3	R1212P
1153.528	1.913	1700491	REC_START	n/a	n/a	1	-999	n/a	JUDGE	n/a	n/a	10	[0, 0, 0]	-999	PAL1	3	R1212P
1155.441	3.096	1702449	REC_EVENT	1.913	n/a	1	3	CORN	JUDGE	JUDGE	CORN	10	[0, 0, 0]	-999	PAL1	3	R1212P
1158.537	0.008	1705620	REC_END	n/a	n/a	1	-999	n/a	n/a	n/a	n/a	10	[0, 0, 0]	-999	PAL1	3	R1212P
1158.545	0.275	1705628	TEST_ORIENT	n/a	n/a	6	4	DOCK	n/a	DOCK	SMOKE	10	[0, 0, 0]	-999	PAL1	3	R1212P
1159.345	4.0	1706447	TEST_PROBE	n/a	wordpools/wordpool_EN.txt	6	4	DOCK	n/a	DOCK	SMOKE	10	[0, 0, 0]	-999	PAL1	3	R1212P
1159.346	5.009	1706448	REC_START	n/a	n/a	6	-999	n/a	n/a	n/a	n/a	10	[0, 0, 0]	-999	PAL1	3	R1212P
1164.355	0.0	1711577	REC_END	n/a	n/a	6	-999	n/a	n/a	n/a	n/a	10	[0, 0, 0]	-999	PAL1	3	R1212P
1164.355	0.008	1711577	REC_EVENT	5.009	n/a	6	4	DOCK	<>	DOCK	SMOKE	10	[0, 0, 0]	-999	PAL1	3	R1212P
1164.363	0.275	1711585	TEST_ORIENT	n/a	n/a	3	5	LEG	n/a	LEG	SHRIMP	10	[0, 0, 0]	-999	PAL1	3	R1212P
1165.196	4.0	1712438	TEST_PROBE	n/a	wordpools/wordpool_EN.txt	3	5	LEG	n/a	LEG	SHRIMP	10	[0, 0, 0]	-999	PAL1	3	R1212P
1165.197	5.009	1712439	REC_START	n/a	n/a	3	-999	n/a	n/a	n/a	n/a	10	[0, 0, 0]	-999	PAL1	3	R1212P
1170.206	0.0	1717568	REC_EVENT	5.009	n/a	3	5	LEG	<>	LEG	SHRIMP	10	[0, 0, 0]	-999	PAL1	3	R1212P
1170.206	0.008	1717568	REC_END	n/a	n/a	3	-999	n/a	n/a	n/a	n/a	10	[0, 0, 0]	-999	PAL1	3	R1212P
1170.214	0.275	1717576	TEST_ORIENT	n/a	n/a	2	6	RIB	WOOD	WOOD	RIB	10	[0, 0, 0]	-999	PAL1	3	R1212P
1171.014	4.0	1718395	TEST_PROBE	n/a	wordpools/wordpool_EN.txt	2	6	RIB	WOOD	WOOD	RIB	10	[0, 0, 0]	-999	PAL1	3	R1212P
1171.015	1.634	1718396	REC_START	n/a	n/a	2	-999	n/a	WOOD	n/a	n/a	10	[0, 0, 0]	-999	PAL1	3	R1212P
1172.649	3.375	1720070	REC_EVENT	1.634	n/a	2	6	RIB	WOOD	WOOD	RIB	10	[0, 0, 0]	-999	PAL1	3	R1212P
1176.024	1.538	1723525	REC_END	n/a	n/a	2	-999	n/a	n/a	n/a	n/a	10	[0, 0, 0]	-999	PAL1	3	R1212P
1177.562	10.439	1725100	ENCODING_START	n/a	n/a	0	-999	n/a	n/a	n/a	n/a	11	[0, 0, 0]	-999	PAL1	3	R1212P
1188.001	0.275	1735789	STUDY_ORIENT	n/a	n/a	1	1	ROSE	MAZE	MAZE	ROSE	11	[0, 0, 0]	-999	PAL1	3	R1212P
1188.884	4.0	1736693	STUDY_PAIR	n/a	wordpools/wordpool_EN.txt	1	1	ROSE	MAZE	MAZE	ROSE	11	[0, 0, 0]	-999	PAL1	3	R1212P
1193.902	0.275	1741832	STUDY_ORIENT	n/a	n/a	2	2	LAMP	n/a	LAMP	TOAD	11	[0, 0, 0]	-999	PAL1	3	R1212P
1194.802	4.0	1742753	STUDY_PAIR	n/a	wordpools/wordpool_EN.txt	2	2	LAMP	n/a	LAMP	TOAD	11	[0, 0, 0]	-999	PAL1	3	R1212P
1199.82	0.275	1747891	STUDY_ORIENT	n/a	n/a	3	3	BADGE	GRASS	BADGE	GRASS	11	[0, 0, 0]	-999	PAL1	3	R1212P
1200.82	4.0	1748915	STUDY_PAIR	n/a	wordpools/wordpool_EN.txt	3	3	BADGE	GRASS	BADGE	GRASS	11	[0, 0, 0]	-999	PAL1	3	R1212P
1205.854	0.275	1754070	STUDY_ORIENT	n/a	n/a	4	6	SLIME	COW	RICE	SLIME	11	[0, 0, 0]	-999	PAL1	3	R1212P
1206.688	4.0	1754924	STUDY_PAIR	n/a	wordpools/wordpool_EN.txt	4	6	SLIME	COW	RICE	SLIME	11	[0, 0, 0]	-999	PAL1	3	R1212P
1211.722	0.275	1760078	STUDY_ORIENT	n/a	n/a	5	5	POOL	BEACH	BEACH	POOL	11	[0, 0, 0]	-999	PAL1	3	R1212P
1212.672	4.0	1761051	STUDY_PAIR	n/a	wordpools/wordpool_EN.txt	5	5	POOL	BEACH	BEACH	POOL	11	[0, 0, 0]	-999	PAL1	3	R1212P
1217.69	0.275	1766189	STUDY_ORIENT	n/a	n/a	6	4	SPRING	n/a	SPRING	CAPE	11	[0, 0, 0]	-999	PAL1	3	R1212P
1218.707	4.0	1767231	STUDY_PAIR	n/a	wordpools/wordpool_EN.txt	6	4	SPRING	n/a	SPRING	CAPE	11	[0, 0, 0]	-999	PAL1	3	R1212P
1222.725	0.999	1771345	START	n/a	n/a	-999	-999	n/a	n/a	n/a	n/a	11	[-999, -999, -999]	-999	PAL1	3	R1212P
1223.724	0.017	1772368	MATH_START	n/a	n/a	-999	-999	n/a	n/a	n/a	n/a	11	[0, 0, 0]	-999	PAL1	3	R1212P
1223.741	3.201	1772385	PROB	3.173	n/a	-999	-999	n/a	n/a	n/a	n/a	11	[8, 7, 6]	21	PAL1	3	R1212P
1226.942	2.367	1775663	PROB	2.332	n/a	-999	-999	n/a	n/a	n/a	n/a	11	[2, 2, 2]	6	PAL1	3	R1212P
1229.309	2.634	1778087	PROB	2.605	n/a	-999	-999	n/a	n/a	n/a	n/a	11	[1, 7, 7]	15	PAL1	3	R1212P
1231.943	3.25	1780784	PROB	3.219	n/a	-999	-999	n/a	n/a	n/a	n/a	11	[5, 5, 7]	17	PAL1	3	R1212P
1235.193	2.484	1784112	PROB	2.457	n/a	-999	-999	n/a	n/a	n/a	n/a	11	[5, 4, 1]	10	PAL1	3	R1212P
1237.677	3.484	1786655	PROB	3.461	n/a	-999	-999	n/a	n/a	n/a	n/a	11	[2, 6, 1]	9	PAL1	3	R1212P
1241.161	7.593	1790223	PROB	7.593	n/a	-999	-999	n/a	n/a	n/a	n/a	11	[7, 6, 9]	22	PAL1	3	R1212P
1248.754	0.009	1797997	STOP	n/a	n/a	-999	-999	n/a	n/a	n/a	n/a	11	[-999, -999, -999]	-999	PAL1	3	R1212P
1248.763	0.0	1798007	TEST_START	n/a	n/a	-999	-999	n/a	n/a	n/a	n/a	11	[0, 0, 0]	-999	PAL1	3	R1212P
1248.763	0.016	1798007	MATH_END	n/a	n/a	-999	-999	n/a	n/a	n/a	n/a	11	[0, 0, 0]	-999	PAL1	3	R1212P
1248.779	0.275	1798023	TEST_ORIENT	n/a	n/a	1	1	ROSE	MAZE	MAZE	ROSE	11	[0, 0, 0]	-999	PAL1	3	R1212P
1249.612	4.0	1798876	TEST_PROBE	n/a	wordpools/wordpool_EN.txt	1	1	ROSE	MAZE	MAZE	ROSE	11	[0, 0, 0]	-999	PAL1	3	R1212P
1249.613	1.575	1798877	REC_START	n/a	n/a	1	-999	n/a	MAZE	n/a	n/a	11	[0, 0, 0]	-999	PAL1	3	R1212P
1251.188	3.425	1800490	REC_EVENT	1.575	n/a	1	1	ROSE	MAZE	MAZE	ROSE	11	[0, 0, 0]	-999	PAL1	3	R1212P
1254.613	0.017	1803997	REC_END	n/a	n/a	1	-999	n/a	n/a	n/a	n/a	11	[0, 0, 0]	-999	PAL1	3	R1212P
1254.63	0.275	1804014	TEST_ORIENT	n/a	n/a	2	2	LAMP	n/a	LAMP	TOAD	11	[0, 0, 0]	-999	PAL1	3	R1212P
1255.664	4.0	1805073	TEST_PROBE	n/a	wordpools/wordpool_EN.txt	2	2	LAMP	n/a	LAMP	TOAD	11	[0, 0, 0]	-999	PAL1	3	R1212P
1255.664	5.015	1805073	REC_START	n/a	n/a	2	-999	n/a	n/a	n/a	n/a	11	[0, 0, 0]	-999	PAL1	3	R1212P
1260.679	0.002	1810208	REC_EVENT	5.015	n/a	2	2	LAMP	<>	LAMP	TOAD	11	[0, 0, 0]	-999	PAL1	3	R1212P
1260.681	0.017	1810210	REC_END	n/a	n/a	2	-999	n/a	n/a	n/a	n/a	11	[0, 0, 0]	-999	PAL1	3	R1212P
1260.698	0.275	1810228	TEST_ORIENT	n/a	n/a	3	3	BADGE	GRASS	BADGE	GRASS	11	[0, 0, 0]	-999	PAL1	3	R1212P
1261.598	4.0	1811149	TEST_PROBE	n/a	wordpools/wordpool_EN.txt	3	3	BADGE	GRASS	BADGE	GRASS	11	[0, 0, 0]	-999	PAL1	3	R1212P
1261.599	1.646	1811150	REC_START	n/a	n/a	3	-999	n/a	GRASS	n/a	n/a	11	[0, 0, 0]	-999	PAL1	3	R1212P
1263.245	3.362	1812836	REC_EVENT	1.646	n/a	3	3	BADGE	GRASS	BADGE	GRASS	11	[0, 0, 0]	-999	PAL1	3	R1212P
1266.607	0.009	1816278	REC_END	n/a	n/a	3	-999	n/a	n/a	n/a	n/a	11	[0, 0, 0]	-999	PAL1	3	R1212P
1266.616	0.275	1816287	TEST_ORIENT	n/a	n/a	6	4	SPRING	n/a	SPRING	CAPE	11	[0, 0, 0]	-999	PAL1	3	R1212P
1267.599	4.0	1817294	TEST_PROBE	n/a	wordpools/wordpool_EN.txt	6	4	SPRING	n/a	SPRING	CAPE	11	[0, 0, 0]	-999	PAL1	3	R1212P
1267.6	5.008	1817295	REC_START	n/a	n/a	6	-999	n/a	n/a	n/a	n/a	11	[0, 0, 0]	-999	PAL1	3	R1212P
1272.608	0.001	1822423	REC_END	n/a	n/a	6	-999	n/a	n/a	n/a	n/a	11	[0, 0, 0]	-999	PAL1	3	R1212P
1272.609	0.008	1822424	REC_EVENT	5.009	n/a	6	4	SPRING	<>	SPRING	CAPE	11	[0, 0, 0]	-999	PAL1	3	R1212P
1272.617	0.275	1822432	TEST_ORIENT	n/a	n/a	5	5	POOL	BEACH	BEACH	POOL	11	[0, 0, 0]	-999	PAL1	3	R1212P
1273.567	4.0	1823405	TEST_PROBE	n/a	wordpools/wordpool_EN.txt	5	5	POOL	BEACH	BEACH	POOL	11	[0, 0, 0]	-999	PAL1	3	R1212P
1273.568	1.531	1823406	REC_START	n/a	n/a	5	-999	n/a	BEACH	n/a	n/a	11	[0, 0, 0]	-999	PAL1	3	R1212P
1275.099	3.469	1824973	REC_EVENT	1.531	n/a	5	5	POOL	BEACH	BEACH	POOL	11	[0, 0, 0]	-999	PAL1	3	R1212P
1278.568	0.017	1828526	REC_END	n/a	n/a	5	-999	n/a	n/a	n/a	n/a	11	[0, 0, 0]	-999	PAL1	3	R1212P
1278.585	0.275	1828543	TEST_ORIENT	n/a	n/a	4	6	SLIME	COW	RICE	SLIME	11	[0, 0, 0]	-999	PAL1	3	R1212P
1279.402	0.0	1829379	REC_START	n/a	n/a	4	-999	n/a	COW	n/a	n/a	11	[0, 0, 0]	-999	PAL1	3	R1212P
1279.402	4.0	1829379	TEST_PROBE	n/a	wordpools/wordpool_EN.txt	4	6	SLIME	COW	RICE	SLIME	11	[0, 0, 0]	-999	PAL1	3	R1212P
1281.687	2.732	1831719	REC_EVENT	2.285	n/a	4	6	SLIME	COW	RICE	SLIME	11	[0, 0, 0]	-999	PAL1	3	R1212P
1284.419	1.399	1834517	REC_END	n/a	n/a	4	-999	n/a	n/a	n/a	n/a	11	[0, 0, 0]	-999	PAL1	3	R1212P
1285.818	10.454	1835949	ENCODING_START	n/a	n/a	0	-999	n/a	n/a	n/a	n/a	12	[0, 0, 0]	-999	PAL1	3	R1212P
1296.272	0.275	1846654	STUDY_ORIENT	n/a	n/a	1	5	SOCK	n/a	SOCK	BANK	12	[0, 0, 0]	-999	PAL1	3	R1212P
1297.155	4.0	1847558	STUDY_PAIR	n/a	wordpools/wordpool_EN.txt	1	5	SOCK	n/a	SOCK	BANK	12	[0, 0, 0]	-999	PAL1	3	R1212P
1302.173	0.275	1852696	STUDY_ORIENT	n/a	n/a	2	2	SOUP	n/a	SOUP	HAWK	12	[0, 0, 0]	-999	PAL1	3	R1212P
1303.14	4.0	1853686	STUDY_PAIR	n/a	wordpools/wordpool_EN.txt	2	2	SOUP	n/a	SOUP	HAWK	12	[0, 0, 0]	-999	PAL1	3	R1212P
1308.174	0.275	1858841	STUDY_ORIENT	n/a	n/a	3	3	TIE	n/a	DOOR	TIE	12	[0, 0, 0]	-999	PAL1	3	R1212P
1309.174	4.0	1859865	STUDY_PAIR	n/a	wordpools/wordpool_EN.txt	3	3	TIE	n/a	DOOR	TIE	12	[0, 0, 0]	-999	PAL1	3	R1212P
1314.192	0.275	1865003	STUDY_ORIENT	n/a	n/a	4	6	CHIN	n/a	WEB	CHIN	12	[0, 0, 0]	-999	PAL1	3	R1212P
1315.125	4.0	1865958	STUDY_PAIR	n/a	wordpools/wordpool_EN.txt	4	6	CHIN	n/a	WEB	CHIN	12	[0, 0, 0]	-999	PAL1	3	R1212P
1320.143	0.275	1871096	STUDY_ORIENT	n/a	n/a	5	1	HORSE	n/a	HORSE	CROW	12	[0, 0, 0]	-999	PAL1	3	R1212P
1320.926	4.0	1871898	STUDY_PAIR	n/a	wordpools/wordpool_EN.txt	5	1	HORSE	n/a	HORSE	CROW	12	[0, 0, 0]	-999	PAL1	3	R1212P
1325.944	0.275	1877036	STUDY_ORIENT	n/a	n/a	6	4	CART	n/a	PARK	CART	12	[0, 0, 0]	-999	PAL1	3	R1212P
1326.861	4.0	1877975	STUDY_PAIR	n/a	wordpools/wordpool_EN.txt	6	4	CART	n/a	PARK	CART	12	[0, 0, 0]	-999	PAL1	3	R1212P
1330.879	0.999	1882089	START	n/a	n/a	-999	-999	n/a	n/a	n/a	n/a	12	[-999, -999, -999]	-999	PAL1	3	R1212P
1331.878	0.017	1883112	MATH_START	n/a	n/a	-999	-999	n/a	n/a	n/a	n/a	12	[0, 0, 0]	-999	PAL1	3	R1212P
1331.895	4.918	1883130	PROB	4.883	n/a	-999	-999	n/a	n/a	n/a	n/a	12	[2, 3, 5]	10	PAL1	3	R1212P
1336.813	2.167	1888166	PROB	2.141	n/a	-999	-999	n/a	n/a	n/a	n/a	12	[6, 2, 1]	9	PAL1	3	R1212P
1338.98	3.617	1890385	PROB	3.59	n/a	-999	-999	n/a	n/a	n/a	n/a	12	[9, 3, 4]	16	PAL1	3	R1212P
1342.597	4.084	1894088	PROB	4.053	n/a	-999	-999	n/a	n/a	n/a	n/a	12	[3, 2, 4]	9	PAL1	3	R1212P
1346.681	3.668	1898270	PROB	3.633	n/a	-999	-999	n/a	n/a	n/a	n/a	12	[8, 6, 4]	18	PAL1	3	R1212P
1350.349	4.557	1902026	PROB	4.557	n/a	-999	-999	n/a	n/a	n/a	n/a	12	[4, 6, 6]	16	PAL1	3	R1212P
1354.906	0.01	1906692	STOP	n/a	n/a	-999	-999	n/a	n/a	n/a	n/a	12	[-999, -999, -999]	-999	PAL1	3	R1212P
1354.916	0.0	1906702	TEST_START	n/a	n/a	-999	-999	n/a	n/a	n/a	n/a	12	[0, 0, 0]	-999	PAL1	3	R1212P
1354.916	0.017	1906702	MATH_END	n/a	n/a	-999	-999	n/a	n/a	n/a	n/a	12	[0, 0, 0]	-999	PAL1	3	R1212P
1354.933	0.275	1906720	TEST_ORIENT	n/a	n/a	5	1	HORSE	n/a	HORSE	CROW	12	[0, 0, 0]	-999	PAL1	3	R1212P
1355.916	4.0	1907726	TEST_PROBE	n/a	wordpools/wordpool_EN.txt	5	1	HORSE	n/a	HORSE	CROW	12	[0, 0, 0]	-999	PAL1	3	R1212P
1355.917	5.008	1907727	REC_START	n/a	n/a	5	-999	n/a	n/a	n/a	n/a	12	[0, 0, 0]	-999	PAL1	3	R1212P
1360.925	0.001	1912855	REC_END	n/a	n/a	5	-999	n/a	n/a	n/a	n/a	12	[0, 0, 0]	-999	PAL1	3	R1212P
1360.926	0.008	1912856	REC_EVENT	5.009	n/a	5	1	HORSE	<>	HORSE	CROW	12	[0, 0, 0]	-999	PAL1	3	R1212P
1360.934	0.275	1912864	TEST_ORIENT	n/a	n/a	2	2	SOUP	n/a	SOUP	HAWK	12	[0, 0, 0]	-999	PAL1	3	R1212P
1361.901	4.0	1913855	TEST_PROBE	n/a	wordpools/wordpool_EN.txt	2	2	SOUP	n/a	SOUP	HAWK	12	[0, 0, 0]	-999	PAL1	3	R1212P
1361.901	5.026	1913855	REC_START	n/a	n/a	2	-999	n/a	n/a	n/a	n/a	12	[0, 0, 0]	-999	PAL1	3	R1212P
1366.927	0.001	1919001	REC_END	n/a	n/a	2	-999	n/a	n/a	n/a	n/a	12	[0, 0, 0]	-999	PAL1	3	R1212P
1366.928	0.007	1919002	REC_EVENT	5.027	n/a	2	2	SOUP	<>	SOUP	HAWK	12	[0, 0, 0]	-999	PAL1	3	R1212P
1366.935	0.275	1919009	TEST_ORIENT	n/a	n/a	3	3	TIE	n/a	DOOR	TIE	12	[0, 0, 0]	-999	PAL1	3	R1212P
1367.952	4.0	1920050	TEST_PROBE	n/a	wordpools/wordpool_EN.txt	3	3	TIE	n/a	DOOR	TIE	12	[0, 0, 0]	-999	PAL1	3	R1212P
1367.952	5.015	1920050	REC_START	n/a	n/a	3	-999	n/a	n/a	n/a	n/a	12	[0, 0, 0]	-999	PAL1	3	R1212P
1372.967	0.002	1925186	REC_EVENT	5.015	n/a	3	3	TIE	<>	DOOR	TIE	12	[0, 0, 0]	-999	PAL1	3	R1212P
1372.969	0.017	1925188	REC_END	n/a	n/a	3	-999	n/a	n/a	n/a	n/a	12	[0, 0, 0]	-999	PAL1	3	R1212P
1372.986	0.275	1925205	TEST_ORIENT	n/a	n/a	6	4	CART	n/a	PARK	CART	12	[0, 0, 0]	-999	PAL1	3	R1212P
1373.803	4.0	1926042	TEST_PROBE	n/a	wordpools/wordpool_EN.txt	6	4	CART	n/a	PARK	CART	12	[0, 0, 0]	-999	PAL1	3	R1212P
1373.804	5.009	1926043	REC_START	n/a	n/a	6	-999	n/a	n/a	n/a	n/a	12	[0, 0, 0]	-999	PAL1	3	R1212P
1378.813	0.0	1931172	REC_EVENT	5.009	n/a	6	4	CART	<>	PARK	CART	12	[0, 0, 0]	-999	PAL1	3	R1212P
1378.813	0.008	1931172	REC_END	n/a	n/a	6	-999	n/a	n/a	n/a	n/a	12	[0, 0, 0]	-999	PAL1	3	R1212P
1378.821	0.275	1931180	TEST_ORIENT	n/a	n/a	1	5	SOCK	n/a	SOCK	BANK	12	[0, 0, 0]	-999	PAL1	3	R1212P
1379.854	4.0	1932238	TEST_PROBE	n/a	wordpools/wordpool_EN.txt	1	5	SOCK	n/a	SOCK	BANK	12	[0, 0, 0]	-999	PAL1	3	R1212P
1379.855	5.009	1932239	REC_START	n/a	n/a	1	-999	n/a	n/a	n/a	n/a	12	[0, 0, 0]	-999	PAL1	3	R1212P
1384.864	0.0	1937368	REC_EVENT	5.009	n/a	1	5	SOCK	<>	SOCK	BANK	12	[0, 0, 0]	-999	PAL1	3	R1212P
1384.864	0.008	1937368	REC_END	n/a	n/a	1	-999	n/a	n/a	n/a	n/a	12	[0, 0, 0]	-999	PAL1	3	R1212P
1384.872	0.275	1937376	TEST_ORIENT	n/a	n/a	4	6	CHIN	n/a	WEB	CHIN	12	[0, 0, 0]	-999	PAL1	3	R1212P
1385.789	4.0	1938315	TEST_PROBE	n/a	wordpools/wordpool_EN.txt	4	6	CHIN	n/a	WEB	CHIN	12	[0, 0, 0]	-999	PAL1	3	R1212P
1385.789	5.015	1938315	REC_START	n/a	n/a	4	-999	n/a	n/a	n/a	n/a	12	[0, 0, 0]	-999	PAL1	3	R1212P
1390.804	0.002	1943450	REC_EVENT	5.015	n/a	4	6	CHIN	<>	WEB	CHIN	12	[0, 0, 0]	-999	PAL1	3	R1212P
1390.806	1.828	1943452	REC_END	n/a	n/a	4	-999	n/a	n/a	n/a	n/a	12	[0, 0, 0]	-999	PAL1	3	R1212P
1392.634	10.442	1945324	ENCODING_START	n/a	n/a	0	-999	n/a	n/a	n/a	n/a	13	[0, 0, 0]	-999	PAL1	3	R1212P
1403.076	0.275	1956016	STUDY_ORIENT	n/a	n/a	1	1	GOAT	BEAR	BEAR	GOAT	13	[0, 0, 0]	-999	PAL1	3	R1212P
1403.876	4.0	1956835	STUDY_PAIR	n/a	wordpools/wordpool_EN.txt	1	1	GOAT	BEAR	BEAR	GOAT	13	[0, 0, 0]	-999	PAL1	3	R1212P
1408.91	0.275	1961989	STUDY_ORIENT	n/a	n/a	2	6	HEN	PIT	WORLD	HEN	13	[0, 0, 0]	-999	PAL1	3	R1212P
1409.843	4.0	1962945	STUDY_PAIR	n/a	wordpools/wordpool_EN.txt	2	6	HEN	PIT	WORLD	HEN	13	[0, 0, 0]	-999	PAL1	3	R1212P
1414.861	0.275	1968083	STUDY_ORIENT	n/a	n/a	3	5	CLOWN	FLAME	CLOWN	FLAME	13	[0, 0, 0]	-999	PAL1	3	R1212P
1415.728	4.0	1968971	STUDY_PAIR	n/a	wordpools/wordpool_EN.txt	3	5	CLOWN	FLAME	CLOWN	FLAME	13	[0, 0, 0]	-999	PAL1	3	R1212P
1420.762	0.275	1974125	STUDY_ORIENT	n/a	n/a	4	4	SHIP	n/a	SHIP	BOAT	13	[0, 0, 0]	-999	PAL1	3	R1212P
1421.729	4.0	1975116	STUDY_PAIR	n/a	wordpools/wordpool_EN.txt	4	4	SHIP	n/a	SHIP	BOAT	13	[0, 0, 0]	-999	PAL1	3	R1212P
1426.763	0.275	1980270	STUDY_ORIENT	n/a	n/a	5	3	LEAF	n/a	PIT	LEAF	13	[0, 0, 0]	-999	PAL1	3	R1212P
1427.547	4.0	1981073	STUDY_PAIR	n/a	wordpools/wordpool_EN.txt	5	3	LEAF	n/a	PIT	LEAF	13	[0, 0, 0]	-999	PAL1	3	R1212P
1432.581	0.275	1986227	STUDY_ORIENT	n/a	n/a	6	2	SUIT	n/a	PEARL	SUIT	13	[0, 0, 0]	-999	PAL1	3	R1212P
1433.581	4.0	1987251	STUDY_PAIR	n/a	wordpools/wordpool_EN.txt	6	2	SUIT	n/a	PEARL	SUIT	13	[0, 0, 0]	-999	PAL1	3	R1212P
1437.582	1.0	1991348	START	n/a	n/a	-999	-999	n/a	n/a	n/a	n/a	13	[-999, -999, -999]	-999	PAL1	3	R1212P
1438.582	0.017	1992372	MATH_START	n/a	n/a	-999	-999	n/a	n/a	n/a	n/a	13	[0, 0, 0]	-999	PAL1	3	R1212P
1438.599	3.001	1992390	PROB	2.979	n/a	-999	-999	n/a	n/a	n/a	n/a	13	[2, 3, 8]	13	PAL1	3	R1212P
1441.6	2.833	1995462	PROB	2.81	n/a	-999	-999	n/a	n/a	n/a	n/a	13	[9, 8, 3]	20	PAL1	3	R1212P
1444.433	3.168	1998363	PROB	3.137	n/a	-999	-999	n/a	n/a	n/a	n/a	13	[3, 9, 3]	15	PAL1	3	R1212P
1447.601	3.967	2001607	PROB	3.945	n/a	-999	-999	n/a	n/a	n/a	n/a	13	[8, 4, 9]	21	PAL1	3	R1212P
1451.568	4.151	2005669	PROB	4.13	n/a	-999	-999	n/a	n/a	n/a	n/a	13	[5, 2, 7]	14	PAL1	3	R1212P
1455.719	4.571	2009920	PROB	4.571	n/a	-999	-999	n/a	n/a	n/a	n/a	13	[9, 9, 7]	25	PAL1	3	R1212P
1460.29	0.013	2014600	STOP	n/a	n/a	-999	-999	n/a	n/a	n/a	n/a	13	[-999, -999, -999]	-999	PAL1	3	R1212P
1460.303	0.0	2014613	MATH_END	n/a	n/a	-999	-999	n/a	n/a	n/a	n/a	13	[0, 0, 0]	-999	PAL1	3	R1212P
1460.303	0.017	2014613	TEST_START	n/a	n/a	-999	-999	n/a	n/a	n/a	n/a	13	[0, 0, 0]	-999	PAL1	3	R1212P
1460.32	0.275	2014631	TEST_ORIENT	n/a	n/a	1	1	GOAT	BEAR	BEAR	GOAT	13	[0, 0, 0]	-999	PAL1	3	R1212P
1461.253	4.0	2015586	TEST_PROBE	n/a	wordpools/wordpool_EN.txt	1	1	GOAT	BEAR	BEAR	GOAT	13	[0, 0, 0]	-999	PAL1	3	R1212P
1461.254	2.62	2015587	REC_START	n/a	n/a	1	-999	n/a	BEAR	n/a	n/a	13	[0, 0, 0]	-999	PAL1	3	R1212P
1463.874	2.38	2018270	REC_EVENT	2.62	n/a	1	1	GOAT	BEAR	BEAR	GOAT	13	[0, 0, 0]	-999	PAL1	3	R1212P
1466.254	0.017	2020707	REC_END	n/a	n/a	1	-999	n/a	n/a	n/a	n/a	13	[0, 0, 0]	-999	PAL1	3	R1212P
1466.271	0.275	2020724	TEST_ORIENT	n/a	n/a	6	2	SUIT	n/a	PEARL	SUIT	13	[0, 0, 0]	-999	PAL1	3	R1212P
1467.271	4.0	2021748	TEST_PROBE	n/a	wordpools/wordpool_EN.txt	6	2	SUIT	n/a	PEARL	SUIT	13	[0, 0, 0]	-999	PAL1	3	R1212P
1467.272	5.009	2021749	REC_START	n/a	n/a	6	-999	n/a	n/a	n/a	n/a	13	[0, 0, 0]	-999	PAL1	3	R1212P
1472.281	0.0	2026878	REC_EVENT	5.009	n/a	6	2	SUIT	<>	PEARL	SUIT	13	[0, 0, 0]	-999	PAL1	3	R1212P
1472.281	0.008	2026878	REC_END	n/a	n/a	6	-999	n/a	n/a	n/a	n/a	13	[0, 0, 0]	-999	PAL1	3	R1212P
1472.289	0.275	2026887	TEST_ORIENT	n/a	n/a	5	3	LEAF	n/a	PIT	LEAF	13	[0, 0, 0]	-999	PAL1	3	R1212P
1473.156	4.0	2027774	TEST_PROBE	n/a	wordpools/wordpool_EN.txt	5	3	LEAF	n/a	PIT	LEAF	13	[0, 0, 0]	-999	PAL1	3	R1212P
1473.156	5.021	2027774	REC_START	n/a	n/a	5	-999	n/a	n/a	n/a	n/a	13	[0, 0, 0]	-999	PAL1	3	R1212P
1478.177	0.004	2032916	REC_EVENT	5.021	n/a	5	3	LEAF	<>	PIT	LEAF	13	[0, 0, 0]	-999	PAL1	3	R1212P
1478.181	0.009	2032920	REC_END	n/a	n/a	5	-999	n/a	n/a	n/a	n/a	13	[0, 0, 0]	-999	PAL1	3	R1212P
1478.19	0.275	2032929	TEST_ORIENT	n/a	n/a	4	4	SHIP	n/a	SHIP	BOAT	13	[0, 0, 0]	-999	PAL1	3	R1212P
1479.04	4.0	2033799	TEST_PROBE	n/a	wordpools/wordpool_EN.txt	4	4	SHIP	n/a	SHIP	BOAT	13	[0, 0, 0]	-999	PAL1	3	R1212P
1479.04	5.018	2033799	REC_START	n/a	n/a	4	-999	n/a	n/a	n/a	n/a	13	[0, 0, 0]	-999	PAL1	3	R1212P
1484.058	0.003	2038937	REC_END	n/a	n/a	4	-999	n/a	n/a	n/a	n/a	13	[0, 0, 0]	-999	PAL1	3	R1212P
1484.061	0.013	2038941	REC_EVENT	5.021	n/a	4	4	SHIP	<>	SHIP	BOAT	13	[0, 0, 0]	-999	PAL1	3	R1212P
1484.074	0.275	2038954	TEST_ORIENT	n/a	n/a	3	5	CLOWN	FLAME	CLOWN	FLAME	13	[0, 0, 0]	-999	PAL1	3	R1212P
1484.908	4.0	2039808	TEST_PROBE	n/a	wordpools/wordpool_EN.txt	3	5	CLOWN	FLAME	CLOWN	FLAME	13	[0, 0, 0]	-999	PAL1	3	R1212P
1484.908	1.689	2039808	REC_START	n/a	n/a	3	-999	n/a	FLAME	n/a	n/a	13	[0, 0, 0]	-999	PAL1	3	R1212P
1486.597	3.328	2041537	REC_EVENT	1.689	n/a	3	5	CLOWN	FLAME	CLOWN	FLAME	13	[0, 0, 0]	-999	PAL1	3	R1212P
1489.925	0.017	2044945	REC_END	n/a	n/a	3	-999	n/a	n/a	n/a	n/a	13	[0, 0, 0]	-999	PAL1	3	R1212P
1489.942	0.275	2044962	TEST_ORIENT	n/a	n/a	2	6	HEN	PIT	WORLD	HEN	13	[0, 0, 0]	-999	PAL1	3	R1212P
1490.959	4.0	2046004	TEST_PROBE	n/a	wordpools/wordpool_EN.txt	2	6	HEN	PIT	WORLD	HEN	13	[0, 0, 0]	-999	PAL1	3	R1212P
1490.96	3.144	2046005	REC_START	n/a	n/a	2	-999	n/a	PIT	n/a	n/a	13	[0, 0, 0]	-999	PAL1	3	R1212P
1494.104	1.872	2049224	REC_EVENT	3.144	n/a	2	6	HEN	PIT	WORLD	HEN	13	[0, 0, 0]	-999	PAL1	3	R1212P
1495.976	2.602	2051141	REC_END	n/a	n/a	2	-999	n/a	n/a	n/a	n/a	13	[0, 0, 0]	-999	PAL1	3	R1212P
1498.578	10.451	2053805	ENCODING_START	n/a	n/a	0	-999	n/a	n/a	n/a	n/a	14	[0, 0, 0]	-999	PAL1	3	R1212P
1509.029	0.275	2064507	STUDY_ORIENT	n/a	n/a	1	3	ROPE	n/a	BATH	ROPE	14	[0, 0, 0]	-999	PAL1	3	R1212P
1509.896	4.0	2065394	STUDY_PAIR	n/a	wordpools/wordpool_EN.txt	1	3	ROPE	n/a	BATH	ROPE	14	[0, 0, 0]	-999	PAL1	3	R1212P
1514.93	0.275	2070549	STUDY_ORIENT	n/a	n/a	2	6	ROOF	TRASH	TRASH	ROOF	14	[0, 0, 0]	-999	PAL1	3	R1212P
1515.864	4.0	2071505	STUDY_PAIR	n/a	wordpools/wordpool_EN.txt	2	6	ROOF	TRASH	TRASH	ROOF	14	[0, 0, 0]	-999	PAL1	3	R1212P
1520.898	0.275	2076660	STUDY_ORIENT	n/a	n/a	3	5	SNAKE	n/a	SNAKE	SPARK	14	[0, 0, 0]	-999	PAL1	3	R1212P
1521.698	4.0	2077479	STUDY_PAIR	n/a	wordpools/wordpool_EN.txt	3	5	SNAKE	n/a	SNAKE	SPARK	14	[0, 0, 0]	-999	PAL1	3	R1212P
1526.716	0.275	2082617	STUDY_ORIENT	n/a	n/a	4	4	SEAT	n/a	SEAT	FUDGE	14	[0, 0, 0]	-999	PAL1	3	R1212P
1527.599	4.0	2083521	STUDY_PAIR	n/a	wordpools/wordpool_EN.txt	4	4	SEAT	n/a	SEAT	FUDGE	14	[0, 0, 0]	-999	PAL1	3	R1212P
1532.617	0.275	2088660	STUDY_ORIENT	n/a	n/a	5	1	CHAIR	n/a	FORK	CHAIR	14	[0, 0, 0]	-999	PAL1	3	R1212P
1533.567	4.0	2089632	STUDY_PAIR	n/a	wordpools/wordpool_EN.txt	5	1	CHAIR	n/a	FORK	CHAIR	14	[0, 0, 0]	-999	PAL1	3	R1212P
1538.585	0.275	2094770	STUDY_ORIENT	n/a	n/a	6	2	VASE	n/a	LOCK	VASE	14	[0, 0, 0]	-999	PAL1	3	R1212P
1539.535	4.0	2095743	STUDY_PAIR	n/a	wordpools/wordpool_EN.txt	6	2	VASE	n/a	LOCK	VASE	14	[0, 0, 0]	-999	PAL1	3	R1212P
1543.553	1.0	2099857	START	n/a	n/a	-999	-999	n/a	n/a	n/a	n/a	14	[-999, -999, -999]	-999	PAL1	3	R1212P
1544.553	0.016	2100881	MATH_START	n/a	n/a	-999	-999	n/a	n/a	n/a	n/a	14	[0, 0, 0]	-999	PAL1	3	R1212P
1544.569	3.068	2100898	PROB	3.04	n/a	-999	-999	n/a	n/a	n/a	n/a	14	[8, 1, 9]	18	PAL1	3	R1212P
1547.637	6.501	2104039	PROB	6.477	n/a	-999	-999	n/a	n/a	n/a	n/a	14	[7, 4, 7]	18	PAL1	3	R1212P
1554.138	2.4	2110696	PROB	2.368	n/a	-999	-999	n/a	n/a	n/a	n/a	14	[1, 2, 3]	6	PAL1	3	R1212P
1556.538	1.751	2113153	PROB	1.72	n/a	-999	-999	n/a	n/a	n/a	n/a	14	[2, 8, 3]	13	PAL1	3	R1212P
1558.289	3.317	2114946	PROB	3.289	n/a	-999	-999	n/a	n/a	n/a	n/a	14	[7, 8, 5]	20	PAL1	3	R1212P
1561.606	2.452	2118343	PROB	2.452	n/a	-999	-999	n/a	n/a	n/a	n/a	14	[4, 4, 5]	14	PAL1	3	R1212P
1564.058	0.015	2120854	STOP	n/a	n/a	-999	-999	n/a	n/a	n/a	n/a	14	[-999, -999, -999]	-999	PAL1	3	R1212P
1564.073	0.0	2120869	MATH_END	n/a	n/a	-999	-999	n/a	n/a	n/a	n/a	14	[0, 0, 0]	-999	PAL1	3	R1212P
1564.073	0.017	2120869	TEST_START	n/a	n/a	-999	-999	n/a	n/a	n/a	n/a	14	[0, 0, 0]	-999	PAL1	3	R1212P
1564.09	0.275	2120886	TEST_ORIENT	n/a	n/a	5	1	CHAIR	n/a	FORK	CHAIR	14	[0, 0, 0]	-999	PAL1	3	R1212P
1564.907	4.0	2121723	TEST_PROBE	n/a	wordpools/wordpool_EN.txt	5	1	CHAIR	n/a	FORK	CHAIR	14	[0, 0, 0]	-999	PAL1	3	R1212P
1564.907	5.015	2121723	REC_START	n/a	n/a	5	-999	n/a	n/a	n/a	n/a	14	[0, 0, 0]	-999	PAL1	3	R1212P
1569.922	0.002	2126858	REC_EVENT	5.015	n/a	5	1	CHAIR	<>	FORK	CHAIR	14	[0, 0, 0]	-999	PAL1	3	R1212P
1569.924	0.017	2126860	REC_END	n/a	n/a	5	-999	n/a	n/a	n/a	n/a	14	[0, 0, 0]	-999	PAL1	3	R1212P
1569.941	0.275	2126878	TEST_ORIENT	n/a	n/a	6	2	VASE	n/a	LOCK	VASE	14	[0, 0, 0]	-999	PAL1	3	R1212P
1570.924	4.0	2127884	TEST_PROBE	n/a	wordpools/wordpool_EN.txt	6	2	VASE	n/a	LOCK	VASE	14	[0, 0, 0]	-999	PAL1	3	R1212P
1570.925	4.998	2127885	REC_START	n/a	n/a	6	-999	n/a	n/a	n/a	n/a	14	[0, 0, 0]	-999	PAL1	3	R1212P
1575.923	0.002	2133003	REC_EVENT	4.998	n/a	6	2	VASE	<>	LOCK	VASE	14	[0, 0, 0]	-999	PAL1	3	R1212P
1575.925	0.017	2133005	REC_END	n/a	n/a	6	-999	n/a	n/a	n/a	n/a	14	[0, 0, 0]	-999	PAL1	3	R1212P
1575.942	0.275	2133022	TEST_ORIENT	n/a	n/a	1	3	ROPE	n/a	BATH	ROPE	14	[0, 0, 0]	-999	PAL1	3	R1212P
1576.859	4.0	2133961	TEST_PROBE	n/a	wordpools/wordpool_EN.txt	1	3	ROPE	n/a	BATH	ROPE	14	[0, 0, 0]	-999	PAL1	3	R1212P
1576.859	5.015	2133961	REC_START	n/a	n/a	1	-999	n/a	n/a	n/a	n/a	14	[0, 0, 0]	-999	PAL1	3	R1212P
1581.874	0.002	2139096	REC_EVENT	5.015	n/a	1	3	ROPE	<>	BATH	ROPE	14	[0, 0, 0]	-999	PAL1	3	R1212P
1581.876	0.017	2139098	REC_END	n/a	n/a	1	-999	n/a	n/a	n/a	n/a	14	[0, 0, 0]	-999	PAL1	3	R1212P
1581.893	0.275	2139116	TEST_ORIENT	n/a	n/a	4	4	SEAT	n/a	SEAT	FUDGE	14	[0, 0, 0]	-999	PAL1	3	R1212P
1582.76	4.0	2140004	TEST_PROBE	n/a	wordpools/wordpool_EN.txt	4	4	SEAT	n/a	SEAT	FUDGE	14	[0, 0, 0]	-999	PAL1	3	R1212P
1582.76	5.015	2140004	REC_START	n/a	n/a	4	-999	n/a	n/a	n/a	n/a	14	[0, 0, 0]	-999	PAL1	3	R1212P
1587.775	0.002	2145139	REC_EVENT	5.015	n/a	4	4	SEAT	<>	SEAT	FUDGE	14	[0, 0, 0]	-999	PAL1	3	R1212P
1587.777	0.017	2145141	REC_END	n/a	n/a	4	-999	n/a	n/a	n/a	n/a	14	[0, 0, 0]	-999	PAL1	3	R1212P
1587.794	0.275	2145158	TEST_ORIENT	n/a	n/a	3	5	SNAKE	n/a	SNAKE	SPARK	14	[0, 0, 0]	-999	PAL1	3	R1212P
1588.711	4.0	2146097	TEST_PROBE	n/a	wordpools/wordpool_EN.txt	3	5	SNAKE	n/a	SNAKE	SPARK	14	[0, 0, 0]	-999	PAL1	3	R1212P
1588.712	5.008	2146098	REC_START	n/a	n/a	3	-999	n/a	n/a	n/a	n/a	14	[0, 0, 0]	-999	PAL1	3	R1212P
1593.72	0.001	2151226	REC_END	n/a	n/a	3	-999	n/a	n/a	n/a	n/a	14	[0, 0, 0]	-999	PAL1	3	R1212P
1593.721	0.008	2151227	REC_EVENT	5.009	n/a	3	5	SNAKE	<>	SNAKE	SPARK	14	[0, 0, 0]	-999	PAL1	3	R1212P
1593.729	0.275	2151235	TEST_ORIENT	n/a	n/a	2	6	ROOF	TRASH	TRASH	ROOF	14	[0, 0, 0]	-999	PAL1	3	R1212P
1594.579	4.0	2152106	TEST_PROBE	n/a	wordpools/wordpool_EN.txt	2	6	ROOF	TRASH	TRASH	ROOF	14	[0, 0, 0]	-999	PAL1	3	R1212P
1594.58	3.571	2152107	REC_START	n/a	n/a	2	-999	n/a	TRASH	n/a	n/a	14	[0, 0, 0]	-999	PAL1	3	R1212P
1598.151	1.445	2155763	REC_EVENT	3.571	n/a	2	6	ROOF	TRASH	TRASH	ROOF	14	[0, 0, 0]	-999	PAL1	3	R1212P
1599.596	1.318	2157243	REC_END	n/a	n/a	2	-999	n/a	n/a	n/a	n/a	14	[0, 0, 0]	-999	PAL1	3	R1212P
1600.914	10.452	2158592	ENCODING_START	n/a	n/a	0	-999	n/a	n/a	n/a	n/a	15	[0, 0, 0]	-999	PAL1	3	R1212P
1611.366	0.275	2169295	STUDY_ORIENT	n/a	n/a	1	1	DITCH	n/a	GEESE	DITCH	15	[0, 0, 0]	-999	PAL1	3	R1212P
1612.366	4.0	2170319	STUDY_PAIR	n/a	wordpools/wordpool_EN.txt	1	1	DITCH	n/a	GEESE	DITCH	15	[0, 0, 0]	-999	PAL1	3	R1212P
1617.4	0.275	2175473	STUDY_ORIENT	n/a	n/a	2	6	DOLL	SINK	SINK	DOLL	15	[0, 0, 0]	-999	PAL1	3	R1212P
1618.384	4.0	2176481	STUDY_PAIR	n/a	wordpools/wordpool_EN.txt	2	6	DOLL	SINK	SINK	DOLL	15	[0, 0, 0]	-999	PAL1	3	R1212P
1623.418	0.275	2181635	STUDY_ORIENT	n/a	n/a	3	3	BEAN	n/a	TENT	BEAN	15	[0, 0, 0]	-999	PAL1	3	R1212P
1624.368	4.0	2182608	STUDY_PAIR	n/a	wordpools/wordpool_EN.txt	3	3	BEAN	n/a	TENT	BEAN	15	[0, 0, 0]	-999	PAL1	3	R1212P
1629.402	0.275	2187763	STUDY_ORIENT	n/a	n/a	4	4	BOOK	n/a	DOG	BOOK	15	[0, 0, 0]	-999	PAL1	3	R1212P
1630.269	4.0	2188650	STUDY_PAIR	n/a	wordpools/wordpool_EN.txt	4	4	BOOK	n/a	DOG	BOOK	15	[0, 0, 0]	-999	PAL1	3	R1212P
1635.287	0.275	2193789	STUDY_ORIENT	n/a	n/a	5	5	FOAM	n/a	PLANT	FOAM	15	[0, 0, 0]	-999	PAL1	3	R1212P
1636.287	4.0	2194813	STUDY_PAIR	n/a	wordpools/wordpool_EN.txt	5	5	FOAM	n/a	PLANT	FOAM	15	[0, 0, 0]	-999	PAL1	3	R1212P
1641.321	0.275	2199967	STUDY_ORIENT	n/a	n/a	6	2	BAG	STAR	BAG	STAR	15	[0, 0, 0]	-999	PAL1	3	R1212P
1642.188	4.0	2200855	STUDY_PAIR	n/a	wordpools/wordpool_EN.txt	6	2	BAG	STAR	BAG	STAR	15	[0, 0, 0]	-999	PAL1	3	R1212P
1646.189	1.0	2204952	START	n/a	n/a	-999	-999	n/a	n/a	n/a	n/a	15	[-999, -999, -999]	-999	PAL1	3	R1212P
1647.189	0.017	2205976	MATH_START	n/a	n/a	-999	-999	n/a	n/a	n/a	n/a	15	[0, 0, 0]	-999	PAL1	3	R1212P
1647.206	8.335	2205993	PROB	8.291	n/a	-999	-999	n/a	n/a	n/a	n/a	15	[4, 5, 4]	13	PAL1	3	R1212P
1655.541	2.483	2214528	PROB	2.453	n/a	-999	-999	n/a	n/a	n/a	n/a	15	[4, 6, 6]	16	PAL1	3	R1212P
1658.024	2.684	2217070	PROB	2.658	n/a	-999	-999	n/a	n/a	n/a	n/a	15	[8, 5, 6]	19	PAL1	3	R1212P
1660.708	3.684	2219819	PROB	3.662	n/a	-999	-999	n/a	n/a	n/a	n/a	15	[1, 4, 3]	8	PAL1	3	R1212P
1664.392	2.378	2223591	PROB	2.378	n/a	-999	-999	n/a	n/a	n/a	n/a	15	[9, 7, 1]	17	PAL1	3	R1212P
1666.77	0.006	2226026	STOP	n/a	n/a	-999	-999	n/a	n/a	n/a	n/a	15	[-999, -999, -999]	-999	PAL1	3	R1212P
1666.776	0.0	2226032	MATH_END	n/a	n/a	-999	-999	n/a	n/a	n/a	n/a	15	[0, 0, 0]	-999	PAL1	3	R1212P
1666.776	0.017	2226032	TEST_START	n/a	n/a	-999	-999	n/a	n/a	n/a	n/a	15	[0, 0, 0]	-999	PAL1	3	R1212P
1666.793	0.275	2226049	TEST_ORIENT	n/a	n/a	1	1	DITCH	n/a	GEESE	DITCH	15	[0, 0, 0]	-999	PAL1	3	R1212P
1667.676	4.0	2226953	TEST_PROBE	n/a	wordpools/wordpool_EN.txt	1	1	DITCH	n/a	GEESE	DITCH	15	[0, 0, 0]	-999	PAL1	3	R1212P
1667.677	0.354	2226954	REC_START	n/a	n/a	1	-999	n/a	n/a	n/a	n/a	15	[0, 0, 0]	-999	PAL1	3	R1212P
1668.031	4.646	2227317	REC_EVENT	0.354	n/a	1	1	DITCH	<>	GEESE	DITCH	15	[0, 0, 0]	-999	PAL1	3	R1212P
1672.677	0.017	2232074	REC_END	n/a	n/a	1	-999	n/a	n/a	n/a	n/a	15	[0, 0, 0]	-999	PAL1	3	R1212P
1672.694	0.275	2232092	TEST_ORIENT	n/a	n/a	6	2	BAG	STAR	BAG	STAR	15	[0, 0, 0]	-999	PAL1	3	R1212P
1673.611	4.0	2233031	TEST_PROBE	n/a	wordpools/wordpool_EN.txt	6	2	BAG	STAR	BAG	STAR	15	[0, 0, 0]	-999	PAL1	3	R1212P
1673.612	0.909	2233032	REC_START	n/a	n/a	6	-999	n/a	STAR	n/a	n/a	15	[0, 0, 0]	-999	PAL1	3	R1212P
1674.521	4.107	2233962	REC_EVENT	0.909	n/a	6	2	BAG	STAR	BAG	STAR	15	[0, 0, 0]	-999	PAL1	3	R1212P
1678.628	0.017	2238168	REC_END	n/a	n/a	6	-999	n/a	n/a	n/a	n/a	15	[0, 0, 0]	-999	PAL1	3	R1212P
1678.645	0.275	2238185	TEST_ORIENT	n/a	n/a	3	3	BEAN	n/a	TENT	BEAN	15	[0, 0, 0]	-999	PAL1	3	R1212P
1679.479	0.0	2239039	REC_START	n/a	n/a	3	-999	n/a	n/a	n/a	n/a	15	[0, 0, 0]	-999	PAL1	3	R1212P
1679.479	4.0	2239039	TEST_PROBE	n/a	wordpools/wordpool_EN.txt	3	3	BEAN	n/a	TENT	BEAN	15	[0, 0, 0]	-999	PAL1	3	R1212P
1684.494	0.002	2244174	REC_EVENT	5.015	n/a	3	3	BEAN	<>	TENT	BEAN	15	[0, 0, 0]	-999	PAL1	3	R1212P
1684.496	0.017	2244176	REC_END	n/a	n/a	3	-999	n/a	n/a	n/a	n/a	15	[0, 0, 0]	-999	PAL1	3	R1212P
1684.513	0.275	2244194	TEST_ORIENT	n/a	n/a	4	4	BOOK	n/a	DOG	BOOK	15	[0, 0, 0]	-999	PAL1	3	R1212P
1685.513	4.0	2245218	TEST_PROBE	n/a	wordpools/wordpool_EN.txt	4	4	BOOK	n/a	DOG	BOOK	15	[0, 0, 0]	-999	PAL1	3	R1212P
1685.513	5.015	2245218	REC_START	n/a	n/a	4	-999	n/a	n/a	n/a	n/a	15	[0, 0, 0]	-999	PAL1	3	R1212P
1690.528	0.003	2250353	REC_EVENT	5.015	n/a	4	4	BOOK	<>	DOG	BOOK	15	[0, 0, 0]	-999	PAL1	3	R1212P
1690.531	0.016	2250356	REC_END	n/a	n/a	4	-999	n/a	n/a	n/a	n/a	15	[0, 0, 0]	-999	PAL1	3	R1212P
1690.547	0.275	2250372	TEST_ORIENT	n/a	n/a	5	5	FOAM	n/a	PLANT	FOAM	15	[0, 0, 0]	-999	PAL1	3	R1212P
1691.481	0.0	2251329	REC_START	n/a	n/a	5	-999	n/a	n/a	n/a	n/a	15	[0, 0, 0]	-999	PAL1	3	R1212P
1691.481	4.0	2251329	TEST_PROBE	n/a	wordpools/wordpool_EN.txt	5	5	FOAM	n/a	PLANT	FOAM	15	[0, 0, 0]	-999	PAL1	3	R1212P
1696.496	0.004	2256464	REC_EVENT	5.015	n/a	5	5	FOAM	<>	PLANT	FOAM	15	[0, 0, 0]	-999	PAL1	3	R1212P
1696.5	0.015	2256468	REC_END	n/a	n/a	5	-999	n/a	n/a	n/a	n/a	15	[0, 0, 0]	-999	PAL1	3	R1212P
1696.515	0.275	2256483	TEST_ORIENT	n/a	n/a	2	6	DOLL	SINK	SINK	DOLL	15	[0, 0, 0]	-999	PAL1	3	R1212P
1697.399	4.0	2257388	TEST_PROBE	n/a	wordpools/wordpool_EN.txt	2	6	DOLL	SINK	SINK	DOLL	15	[0, 0, 0]	-999	PAL1	3	R1212P
1697.399	0.791	2257388	REC_START	n/a	n/a	2	-999	n/a	SINK	n/a	n/a	15	[0, 0, 0]	-999	PAL1	3	R1212P
1698.19	4.226	2258198	REC_EVENT	0.791	n/a	2	6	DOLL	SINK	SINK	DOLL	15	[0, 0, 0]	-999	PAL1	3	R1212P
1702.416	2.13	2262526	REC_END	n/a	n/a	2	-999	n/a	n/a	n/a	n/a	15	[0, 0, 0]	-999	PAL1	3	R1212P
1704.546	10.439	2264707	ENCODING_START	n/a	n/a	0	-999	n/a	n/a	n/a	n/a	16	[0, 0, 0]	-999	PAL1	3	R1212P
1714.985	0.275	2275396	STUDY_ORIENT	n/a	n/a	1	1	GATE	n/a	BIRD	GATE	16	[0, 0, 0]	-999	PAL1	3	R1212P
1715.985	4.0	2276420	STUDY_PAIR	n/a	wordpools/wordpool_EN.txt	1	1	GATE	n/a	BIRD	GATE	16	[0, 0, 0]	-999	PAL1	3	R1212P
1721.003	0.275	2281558	STUDY_ORIENT	n/a	n/a	2	2	SNOW	GEESE	SNOW	FOX	16	[0, 0, 0]	-999	PAL1	3	R1212P
1721.853	4.0	2282428	STUDY_PAIR	n/a	wordpools/wordpool_EN.txt	2	2	SNOW	GEESE	SNOW	FOX	16	[0, 0, 0]	-999	PAL1	3	R1212P
1726.871	0.275	2287566	STUDY_ORIENT	n/a	n/a	3	5	TEETH	SEAL	TEETH	SEAL	16	[0, 0, 0]	-999	PAL1	3	R1212P
1727.688	4.0	2288403	STUDY_PAIR	n/a	wordpools/wordpool_EN.txt	3	5	TEETH	SEAL	TEETH	SEAL	16	[0, 0, 0]	-999	PAL1	3	R1212P
1732.722	0.275	2293557	STUDY_ORIENT	n/a	n/a	4	4	FUR	ICE	FUR	ICE	16	[0, 0, 0]	-999	PAL1	3	R1212P
1733.539	4.0	2294394	STUDY_PAIR	n/a	wordpools/wordpool_EN.txt	4	4	FUR	ICE	FUR	ICE	16	[0, 0, 0]	-999	PAL1	3	R1212P
1738.573	0.275	2299549	STUDY_ORIENT	n/a	n/a	5	3	TANK	JUICE	TANK	JUICE	16	[0, 0, 0]	-999	PAL1	3	R1212P
1739.357	4.0	2300351	STUDY_PAIR	n/a	wordpools/wordpool_EN.txt	5	3	TANK	JUICE	TANK	JUICE	16	[0, 0, 0]	-999	PAL1	3	R1212P
1744.391	0.275	2305506	STUDY_ORIENT	n/a	n/a	6	6	BREAD	BUSH	BREAD	BENCH	16	[0, 0, 0]	-999	PAL1	3	R1212P
1745.391	4.0	2306530	STUDY_PAIR	n/a	wordpools/wordpool_EN.txt	6	6	BREAD	BUSH	BREAD	BENCH	16	[0, 0, 0]	-999	PAL1	3	R1212P
1749.392	1.0	2310627	START	n/a	n/a	-999	-999	n/a	n/a	n/a	n/a	16	[-999, -999, -999]	-999	PAL1	3	R1212P
1750.392	0.017	2311651	MATH_START	n/a	n/a	-999	-999	n/a	n/a	n/a	n/a	16	[0, 0, 0]	-999	PAL1	3	R1212P
1750.409	3.167	2311668	PROB	3.145	n/a	-999	-999	n/a	n/a	n/a	n/a	16	[3, 8, 6]	17	PAL1	3	R1212P
1753.576	2.951	2314911	PROB	2.93	n/a	-999	-999	n/a	n/a	n/a	n/a	16	[1, 9, 9]	19	PAL1	3	R1212P
1756.527	7.568	2317933	PROB	7.539	n/a	-999	-999	n/a	n/a	n/a	n/a	16	[1, 9, 9]	19	PAL1	3	R1212P
1764.095	3.551	2325682	PROB	3.531	n/a	-999	-999	n/a	n/a	n/a	n/a	16	[8, 1, 9]	18	PAL1	3	R1212P
1767.646	2.676	2329318	PROB	2.676	n/a	-999	-999	n/a	n/a	n/a	n/a	16	[4, 9, 6]	19	PAL1	3	R1212P
1770.322	0.007	2332058	STOP	n/a	n/a	-999	-999	n/a	n/a	n/a	n/a	16	[-999, -999, -999]	-999	PAL1	3	R1212P
1770.329	0.0	2332065	MATH_END	n/a	n/a	-999	-999	n/a	n/a	n/a	n/a	16	[0, 0, 0]	-999	PAL1	3	R1212P
1770.329	0.017	2332065	TEST_START	n/a	n/a	-999	-999	n/a	n/a	n/a	n/a	16	[0, 0, 0]	-999	PAL1	3	R1212P
1770.346	0.275	2332083	TEST_ORIENT	n/a	n/a	1	1	GATE	n/a	BIRD	GATE	16	[0, 0, 0]	-999	PAL1	3	R1212P
1771.346	4.0	2333107	TEST_PROBE	n/a	wordpools/wordpool_EN.txt	1	1	GATE	n/a	BIRD	GATE	16	[0, 0, 0]	-999	PAL1	3	R1212P
1771.347	5.009	2333108	REC_START	n/a	n/a	1	-999	n/a	n/a	n/a	n/a	16	[0, 0, 0]	-999	PAL1	3	R1212P
1776.356	0.0	2338237	REC_EVENT	5.009	n/a	1	1	GATE	<>	BIRD	GATE	16	[0, 0, 0]	-999	PAL1	3	R1212P
1776.356	0.008	2338237	REC_END	n/a	n/a	1	-999	n/a	n/a	n/a	n/a	16	[0, 0, 0]	-999	PAL1	3	R1212P
1776.364	0.275	2338245	TEST_ORIENT	n/a	n/a	2	2	SNOW	GEESE	SNOW	FOX	16	[0, 0, 0]	-999	PAL1	3	R1212P
1777.181	4.0	2339081	TEST_PROBE	n/a	wordpools/wordpool_EN.txt	2	2	SNOW	GEESE	SNOW	FOX	16	[0, 0, 0]	-999	PAL1	3	R1212P
1777.181	1.05	2339081	REC_START	n/a	n/a	2	-999	n/a	GEESE	n/a	n/a	16	[0, 0, 0]	-999	PAL1	3	R1212P
1778.231	3.967	2340156	REC_EVENT	1.05	n/a	2	2	SNOW	GEESE	SNOW	FOX	16	[0, 0, 0]	-999	PAL1	3	R1212P
1782.198	0.017	2344218	REC_END	n/a	n/a	2	-999	n/a	n/a	n/a	n/a	16	[0, 0, 0]	-999	PAL1	3	R1212P
1782.215	0.275	2344236	TEST_ORIENT	n/a	n/a	5	3	TANK	JUICE	TANK	JUICE	16	[0, 0, 0]	-999	PAL1	3	R1212P
1783.099	0.0	2345141	REC_START	n/a	n/a	5	-999	n/a	JUICE	n/a	n/a	16	[0, 0, 0]	-999	PAL1	3	R1212P
1783.099	4.0	2345141	TEST_PROBE	n/a	wordpools/wordpool_EN.txt	5	3	TANK	JUICE	TANK	JUICE	16	[0, 0, 0]	-999	PAL1	3	R1212P
1784.115	4.001	2346181	REC_EVENT	1.016	n/a	5	3	TANK	JUICE	TANK	JUICE	16	[0, 0, 0]	-999	PAL1	3	R1212P
1788.116	0.017	2350278	REC_END	n/a	n/a	5	-999	n/a	n/a	n/a	n/a	16	[0, 0, 0]	-999	PAL1	3	R1212P
1788.133	0.275	2350296	TEST_ORIENT	n/a	n/a	4	4	FUR	ICE	FUR	ICE	16	[0, 0, 0]	-999	PAL1	3	R1212P
1788.966	4.0	2351149	TEST_PROBE	n/a	wordpools/wordpool_EN.txt	4	4	FUR	ICE	FUR	ICE	16	[0, 0, 0]	-999	PAL1	3	R1212P
1788.967	1.057	2351150	REC_START	n/a	n/a	4	-999	n/a	ICE	n/a	n/a	16	[0, 0, 0]	-999	PAL1	3	R1212P
1790.024	3.952	2352232	REC_EVENT	1.057	n/a	4	4	FUR	ICE	FUR	ICE	16	[0, 0, 0]	-999	PAL1	3	R1212P
1793.976	0.008	2356279	REC_END	n/a	n/a	4	-999	n/a	n/a	n/a	n/a	16	[0, 0, 0]	-999	PAL1	3	R1212P
1793.984	0.275	2356287	TEST_ORIENT	n/a	n/a	3	5	TEETH	SEAL	TEETH	SEAL	16	[0, 0, 0]	-999	PAL1	3	R1212P
1794.918	4.0	2357243	TEST_PROBE	n/a	wordpools/wordpool_EN.txt	3	5	TEETH	SEAL	TEETH	SEAL	16	[0, 0, 0]	-999	PAL1	3	R1212P
1794.918	1.896	2357243	REC_START	n/a	n/a	3	-999	n/a	SEAL	n/a	n/a	16	[0, 0, 0]	-999	PAL1	3	R1212P
1796.814	3.123	2359185	REC_EVENT	1.896	n/a	3	5	TEETH	SEAL	TEETH	SEAL	16	[0, 0, 0]	-999	PAL1	3	R1212P
1799.937	0.015	2362382	REC_END	n/a	n/a	3	-999	n/a	n/a	n/a	n/a	16	[0, 0, 0]	-999	PAL1	3	R1212P
1799.952	0.275	2362398	TEST_ORIENT	n/a	n/a	6	6	BREAD	BUSH	BREAD	BENCH	16	[0, 0, 0]	-999	PAL1	3	R1212P
1800.802	4.0	2363268	TEST_PROBE	n/a	wordpools/wordpool_EN.txt	6	6	BREAD	BUSH	BREAD	BENCH	16	[0, 0, 0]	-999	PAL1	3	R1212P
1800.802	2.366	2363268	REC_START	n/a	n/a	6	-999	n/a	BUSH	n/a	n/a	16	[0, 0, 0]	-999	PAL1	3	R1212P
1803.168	2.651	2365691	REC_EVENT	2.366	n/a	6	6	BREAD	BUSH	BREAD	BENCH	16	[0, 0, 0]	-999	PAL1	3	R1212P
1805.819	1.959	2368405	REC_END	n/a	n/a	6	-999	n/a	n/a	n/a	n/a	16	[0, 0, 0]	-999	PAL1	3	R1212P
1807.778	10.444	2370411	ENCODING_START	n/a	n/a	0	-999	n/a	n/a	n/a	n/a	17	[0, 0, 0]	-999	PAL1	3	R1212P
1818.222	0.275	2381105	STUDY_ORIENT	n/a	n/a	1	3	PRINCE	n/a	PRINCE	PIPE	17	[0, 0, 0]	-999	PAL1	3	R1212P
1819.039	4.0	2381942	STUDY_PAIR	n/a	wordpools/wordpool_EN.txt	1	3	PRINCE	n/a	PRINCE	PIPE	17	[0, 0, 0]	-999	PAL1	3	R1212P
1824.073	0.275	2387096	STUDY_ORIENT	n/a	n/a	2	4	TEA	ANT	TEA	ANT	17	[0, 0, 0]	-999	PAL1	3	R1212P
1824.873	4.0	2387916	STUDY_PAIR	n/a	wordpools/wordpool_EN.txt	2	4	TEA	ANT	TEA	ANT	17	[0, 0, 0]	-999	PAL1	3	R1212P
1829.891	0.275	2393054	STUDY_ORIENT	n/a	n/a	3	1	MULE	SWAMP	MULE	SWAMP	17	[0, 0, 0]	-999	PAL1	3	R1212P
1830.708	4.0	2393890	STUDY_PAIR	n/a	wordpools/wordpool_EN.txt	3	1	MULE	SWAMP	MULE	SWAMP	17	[0, 0, 0]	-999	PAL1	3	R1212P
1835.742	0.275	2399045	STUDY_ORIENT	n/a	n/a	4	2	STAIR	n/a	JET	STAIR	17	[0, 0, 0]	-999	PAL1	3	R1212P
1836.609	4.0	2399933	STUDY_PAIR	n/a	wordpools/wordpool_EN.txt	4	2	STAIR	n/a	JET	STAIR	17	[0, 0, 0]	-999	PAL1	3	R1212P
1841.643	0.275	2405087	STUDY_ORIENT	n/a	n/a	5	5	BRIDGE	n/a	CLOCK	BRIDGE	17	[0, 0, 0]	-999	PAL1	3	R1212P
1842.643	4.0	2406111	STUDY_PAIR	n/a	wordpools/wordpool_EN.txt	5	5	BRIDGE	n/a	CLOCK	BRIDGE	17	[0, 0, 0]	-999	PAL1	3	R1212P
1847.661	0.275	2411249	STUDY_ORIENT	n/a	n/a	6	6	DART	n/a	TOOTH	DART	17	[0, 0, 0]	-999	PAL1	3	R1212P
1848.444	4.0	2412051	STUDY_PAIR	n/a	wordpools/wordpool_EN.txt	6	6	DART	n/a	TOOTH	DART	17	[0, 0, 0]	-999	PAL1	3	R1212P
1852.445	1.0	2416148	START	n/a	n/a	-999	-999	n/a	n/a	n/a	n/a	17	[-999, -999, -999]	-999	PAL1	3	R1212P
1853.445	0.017	2417172	MATH_START	n/a	n/a	-999	-999	n/a	n/a	n/a	n/a	17	[0, 0, 0]	-999	PAL1	3	R1212P
1853.462	3.534	2417189	PROB	3.5	n/a	-999	-999	n/a	n/a	n/a	n/a	17	[1, 5, 6]	12	PAL1	3	R1212P
1856.996	2.284	2420808	PROB	2.254	n/a	-999	-999	n/a	n/a	n/a	n/a	17	[5, 9, 8]	23	PAL1	3	R1212P
1859.28	4.284	2423147	PROB	4.258	n/a	-999	-999	n/a	n/a	n/a	n/a	17	[7, 7, 8]	22	PAL1	3	R1212P
1863.564	2.017	2427533	PROB	1.99	n/a	-999	-999	n/a	n/a	n/a	n/a	17	[2, 3, 8]	13	PAL1	3	R1212P
1865.581	2.367	2429599	PROB	2.333	n/a	-999	-999	n/a	n/a	n/a	n/a	17	[9, 5, 1]	15	PAL1	3	R1212P
1867.948	1.834	2432022	PROB	1.806	n/a	-999	-999	n/a	n/a	n/a	n/a	17	[7, 3, 4]	14	PAL1	3	R1212P
1869.782	3.868	2433900	PROB	3.868	n/a	-999	-999	n/a	n/a	n/a	n/a	17	[6, 5, 3]	14	PAL1	3	R1212P
1873.65	0.016	2437861	STOP	n/a	n/a	-999	-999	n/a	n/a	n/a	n/a	17	[-999, -999, -999]	-999	PAL1	3	R1212P
1873.666	0.0	2437877	MATH_END	n/a	n/a	-999	-999	n/a	n/a	n/a	n/a	17	[0, 0, 0]	-999	PAL1	3	R1212P
1873.666	0.017	2437877	TEST_START	n/a	n/a	-999	-999	n/a	n/a	n/a	n/a	17	[0, 0, 0]	-999	PAL1	3	R1212P
1873.683	0.275	2437895	TEST_ORIENT	n/a	n/a	3	1	MULE	SWAMP	MULE	SWAMP	17	[0, 0, 0]	-999	PAL1	3	R1212P
1874.633	0.0	2438867	REC_START	n/a	n/a	3	-999	n/a	SWAMP	n/a	n/a	17	[0, 0, 0]	-999	PAL1	3	R1212P
1874.633	4.0	2438867	TEST_PROBE	n/a	wordpools/wordpool_EN.txt	3	1	MULE	SWAMP	MULE	SWAMP	17	[0, 0, 0]	-999	PAL1	3	R1212P
1876.324	3.326	2440599	REC_EVENT	1.691	n/a	3	1	MULE	SWAMP	MULE	SWAMP	17	[0, 0, 0]	-999	PAL1	3	R1212P
1879.65	0.017	2444005	REC_END	n/a	n/a	3	-999	n/a	n/a	n/a	n/a	17	[0, 0, 0]	-999	PAL1	3	R1212P
1879.667	0.275	2444022	TEST_ORIENT	n/a	n/a	4	2	STAIR	n/a	JET	STAIR	17	[0, 0, 0]	-999	PAL1	3	R1212P
1880.617	4.0	2444995	TEST_PROBE	n/a	wordpools/wordpool_EN.txt	4	2	STAIR	n/a	JET	STAIR	17	[0, 0, 0]	-999	PAL1	3	R1212P
1880.618	5.009	2444996	REC_START	n/a	n/a	4	-999	n/a	n/a	n/a	n/a	17	[0, 0, 0]	-999	PAL1	3	R1212P
1885.627	0.0	2450125	REC_EVENT	5.009	n/a	4	2	STAIR	<>	JET	STAIR	17	[0, 0, 0]	-999	PAL1	3	R1212P
1885.627	0.008	2450125	REC_END	n/a	n/a	4	-999	n/a	n/a	n/a	n/a	17	[0, 0, 0]	-999	PAL1	3	R1212P
1885.635	0.275	2450133	TEST_ORIENT	n/a	n/a	1	3	PRINCE	n/a	PRINCE	PIPE	17	[0, 0, 0]	-999	PAL1	3	R1212P
1886.552	4.0	2451072	TEST_PROBE	n/a	wordpools/wordpool_EN.txt	1	3	PRINCE	n/a	PRINCE	PIPE	17	[0, 0, 0]	-999	PAL1	3	R1212P
1886.552	3.191	2451072	REC_START	n/a	n/a	1	-999	n/a	n/a	n/a	n/a	17	[0, 0, 0]	-999	PAL1	3	R1212P
1889.743	1.826	2454339	REC_EVENT	3.191	n/a	1	3	PRINCE	<>	PRINCE	PIPE	17	[0, 0, 0]	-999	PAL1	3	R1212P
1891.569	0.017	2456209	REC_END	n/a	n/a	1	-999	n/a	n/a	n/a	n/a	17	[0, 0, 0]	-999	PAL1	3	R1212P
1891.586	0.275	2456227	TEST_ORIENT	n/a	n/a	2	4	TEA	ANT	TEA	ANT	17	[0, 0, 0]	-999	PAL1	3	R1212P
1892.603	4.0	2457268	TEST_PROBE	n/a	wordpools/wordpool_EN.txt	2	4	TEA	ANT	TEA	ANT	17	[0, 0, 0]	-999	PAL1	3	R1212P
1892.603	1.52	2457268	REC_START	n/a	n/a	2	-999	n/a	ANT	n/a	n/a	17	[0, 0, 0]	-999	PAL1	3	R1212P
1894.123	3.497	2458824	REC_EVENT	1.52	n/a	2	4	TEA	ANT	TEA	ANT	17	[0, 0, 0]	-999	PAL1	3	R1212P
1897.62	0.017	2462405	REC_END	n/a	n/a	2	-999	n/a	n/a	n/a	n/a	17	[0, 0, 0]	-999	PAL1	3	R1212P
1897.637	0.275	2462422	TEST_ORIENT	n/a	n/a	5	5	BRIDGE	n/a	CLOCK	BRIDGE	17	[0, 0, 0]	-999	PAL1	3	R1212P
1898.471	4.0	2463276	TEST_PROBE	n/a	wordpools/wordpool_EN.txt	5	5	BRIDGE	n/a	CLOCK	BRIDGE	17	[0, 0, 0]	-999	PAL1	3	R1212P
1898.471	5.026	2463276	REC_START	n/a	n/a	5	-999	n/a	n/a	n/a	n/a	17	[0, 0, 0]	-999	PAL1	3	R1212P
1903.497	0.001	2468423	REC_END	n/a	n/a	5	-999	n/a	n/a	n/a	n/a	17	[0, 0, 0]	-999	PAL1	3	R1212P
1903.498	0.007	2468424	REC_EVENT	5.027	n/a	5	5	BRIDGE	<>	CLOCK	BRIDGE	17	[0, 0, 0]	-999	PAL1	3	R1212P
1903.505	0.275	2468431	TEST_ORIENT	n/a	n/a	6	6	DART	n/a	TOOTH	DART	17	[0, 0, 0]	-999	PAL1	3	R1212P
1904.505	4.0	2469455	TEST_PROBE	n/a	wordpools/wordpool_EN.txt	6	6	DART	n/a	TOOTH	DART	17	[0, 0, 0]	-999	PAL1	3	R1212P
1904.506	5.009	2469456	REC_START	n/a	n/a	6	-999	n/a	n/a	n/a	n/a	17	[0, 0, 0]	-999	PAL1	3	R1212P
1909.515	0.0	2474585	REC_END	n/a	n/a	6	-999	n/a	n/a	n/a	n/a	17	[0, 0, 0]	-999	PAL1	3	R1212P
1909.515	1.583	2474585	REC_EVENT	5.009	n/a	6	6	DART	<>	TOOTH	DART	17	[0, 0, 0]	-999	PAL1	3	R1212P
1911.098	10.444	2476206	ENCODING_START	n/a	n/a	0	-999	n/a	n/a	n/a	n/a	18	[0, 0, 0]	-999	PAL1	3	R1212P
1921.542	0.275	2486900	STUDY_ORIENT	n/a	n/a	1	3	OWL	WALL	OWL	WALL	18	[0, 0, 0]	-999	PAL1	3	R1212P
1922.375	4.0	2487753	STUDY_PAIR	n/a	wordpools/wordpool_EN.txt	1	3	OWL	WALL	OWL	WALL	18	[0, 0, 0]	-999	PAL1	3	R1212P
1927.393	0.275	2492891	STUDY_ORIENT	n/a	n/a	2	2	LIP	n/a	LIP	BOWL	18	[0, 0, 0]	-999	PAL1	3	R1212P
1928.376	4.0	2493898	STUDY_PAIR	n/a	wordpools/wordpool_EN.txt	2	2	LIP	n/a	LIP	BOWL	18	[0, 0, 0]	-999	PAL1	3	R1212P
1933.394	0.275	2499036	STUDY_ORIENT	n/a	n/a	3	1	NET	n/a	NET	SUN	18	[0, 0, 0]	-999	PAL1	3	R1212P
1934.394	4.0	2500060	STUDY_PAIR	n/a	wordpools/wordpool_EN.txt	3	1	NET	n/a	NET	SUN	18	[0, 0, 0]	-999	PAL1	3	R1212P
1939.412	0.275	2505198	STUDY_ORIENT	n/a	n/a	4	4	TAIL	POND	TAIL	POND	18	[0, 0, 0]	-999	PAL1	3	R1212P
1940.195	4.0	2506000	STUDY_PAIR	n/a	wordpools/wordpool_EN.txt	4	4	TAIL	POND	TAIL	POND	18	[0, 0, 0]	-999	PAL1	3	R1212P
1945.213	0.275	2511138	STUDY_ORIENT	n/a	n/a	5	5	GOLD	RAIN	RAIN	GOLD	18	[0, 0, 0]	-999	PAL1	3	R1212P
1946.063	4.0	2512008	STUDY_PAIR	n/a	wordpools/wordpool_EN.txt	5	5	GOLD	RAIN	RAIN	GOLD	18	[0, 0, 0]	-999	PAL1	3	R1212P
1951.081	0.275	2517147	STUDY_ORIENT	n/a	n/a	6	6	STEAK	APE	STEAK	APE	18	[0, 0, 0]	-999	PAL1	3	R1212P
1951.914	4.0	2518000	STUDY_PAIR	n/a	wordpools/wordpool_EN.txt	6	6	STEAK	APE	STEAK	APE	18	[0, 0, 0]	-999	PAL1	3	R1212P
1955.915	1.0	2522096	START	n/a	n/a	-999	-999	n/a	n/a	n/a	n/a	18	[-999, -999, -999]	-999	PAL1	3	R1212P
1956.915	0.017	2523120	MATH_START	n/a	n/a	-999	-999	n/a	n/a	n/a	n/a	18	[0, 0, 0]	-999	PAL1	3	R1212P
1956.932	4.234	2523138	PROB	4.206	n/a	-999	-999	n/a	n/a	n/a	n/a	18	[3, 2, 7]	12	PAL1	3	R1212P
1961.166	2.067	2527473	PROB	2.044	n/a	-999	-999	n/a	n/a	n/a	n/a	18	[6, 4, 4]	14	PAL1	3	R1212P
1963.233	1.517	2529590	PROB	1.497	n/a	-999	-999	n/a	n/a	n/a	n/a	18	[5, 1, 5]	11	PAL1	3	R1212P
1964.75	2.167	2531143	PROB	2.14	n/a	-999	-999	n/a	n/a	n/a	n/a	18	[3, 1, 9]	13	PAL1	3	R1212P
1966.917	4.618	2533362	PROB	4.597	n/a	-999	-999	n/a	n/a	n/a	n/a	18	[9, 7, 6]	22	PAL1	3	R1212P
1971.535	1.817	2538090	PROB	1.787	n/a	-999	-999	n/a	n/a	n/a	n/a	18	[2, 5, 2]	12	PAL1	3	R1212P
1973.352	4.594	2539951	PROB	4.594	n/a	-999	-999	n/a	n/a	n/a	n/a	18	[4, 7, 3]	14	PAL1	3	R1212P
1977.946	0.007	2544655	STOP	n/a	n/a	-999	-999	n/a	n/a	n/a	n/a	18	[-999, -999, -999]	-999	PAL1	3	R1212P
1977.953	0.0	2544662	MATH_END	n/a	n/a	-999	-999	n/a	n/a	n/a	n/a	18	[0, 0, 0]	-999	PAL1	3	R1212P
1977.953	0.016	2544662	TEST_START	n/a	n/a	-999	-999	n/a	n/a	n/a	n/a	18	[0, 0, 0]	-999	PAL1	3	R1212P
1977.969	0.275	2544679	TEST_ORIENT	n/a	n/a	3	1	NET	n/a	NET	SUN	18	[0, 0, 0]	-999	PAL1	3	R1212P
1978.886	4.0	2545618	TEST_PROBE	n/a	wordpools/wordpool_EN.txt	3	1	NET	n/a	NET	SUN	18	[0, 0, 0]	-999	PAL1	3	R1212P
1978.887	5.009	2545619	REC_START	n/a	n/a	3	-999	n/a	n/a	n/a	n/a	18	[0, 0, 0]	-999	PAL1	3	R1212P
1983.896	0.0	2550748	REC_EVENT	5.009	n/a	3	1	NET	<>	NET	SUN	18	[0, 0, 0]	-999	PAL1	3	R1212P
1983.896	0.008	2550748	REC_END	n/a	n/a	3	-999	n/a	n/a	n/a	n/a	18	[0, 0, 0]	-999	PAL1	3	R1212P
1983.904	0.275	2550756	TEST_ORIENT	n/a	n/a	2	2	LIP	n/a	LIP	BOWL	18	[0, 0, 0]	-999	PAL1	3	R1212P
1984.887	4.0	2551762	TEST_PROBE	n/a	wordpools/wordpool_EN.txt	2	2	LIP	n/a	LIP	BOWL	18	[0, 0, 0]	-999	PAL1	3	R1212P
1984.888	5.008	2551763	REC_START	n/a	n/a	2	-999	n/a	n/a	n/a	n/a	18	[0, 0, 0]	-999	PAL1	3	R1212P
1989.896	0.001	2556891	REC_END	n/a	n/a	2	-999	n/a	n/a	n/a	n/a	18	[0, 0, 0]	-999	PAL1	3	R1212P
1989.897	0.008	2556892	REC_EVENT	5.009	n/a	2	2	LIP	<>	LIP	BOWL	18	[0, 0, 0]	-999	PAL1	3	R1212P
1989.905	0.275	2556900	TEST_ORIENT	n/a	n/a	1	3	OWL	WALL	OWL	WALL	18	[0, 0, 0]	-999	PAL1	3	R1212P
1990.855	4.0	2557873	TEST_PROBE	n/a	wordpools/wordpool_EN.txt	1	3	OWL	WALL	OWL	WALL	18	[0, 0, 0]	-999	PAL1	3	R1212P
1990.856	1.279	2557874	REC_START	n/a	n/a	1	-999	n/a	WALL	n/a	n/a	18	[0, 0, 0]	-999	PAL1	3	R1212P
1992.135	3.73	2559184	REC_EVENT	1.279	n/a	1	3	OWL	WALL	OWL	WALL	18	[0, 0, 0]	-999	PAL1	3	R1212P
1995.865	0.008	2563003	REC_END	n/a	n/a	1	-999	n/a	n/a	n/a	n/a	18	[0, 0, 0]	-999	PAL1	3	R1212P
1995.873	0.275	2563011	TEST_ORIENT	n/a	n/a	4	4	TAIL	POND	TAIL	POND	18	[0, 0, 0]	-999	PAL1	3	R1212P
1996.723	4.0	2563882	TEST_PROBE	n/a	wordpools/wordpool_EN.txt	4	4	TAIL	POND	TAIL	POND	18	[0, 0, 0]	-999	PAL1	3	R1212P
1996.724	2.408	2563883	REC_START	n/a	n/a	4	-999	n/a	POND	n/a	n/a	18	[0, 0, 0]	-999	PAL1	3	R1212P
1999.132	2.608	2566349	REC_EVENT	2.408	n/a	4	4	TAIL	POND	TAIL	POND	18	[0, 0, 0]	-999	PAL1	3	R1212P
2001.74	0.017	2569019	REC_END	n/a	n/a	4	-999	n/a	n/a	n/a	n/a	18	[0, 0, 0]	-999	PAL1	3	R1212P
2001.757	0.275	2569036	TEST_ORIENT	n/a	n/a	5	5	GOLD	RAIN	RAIN	GOLD	18	[0, 0, 0]	-999	PAL1	3	R1212P
2002.774	4.0	2570078	TEST_PROBE	n/a	wordpools/wordpool_EN.txt	5	5	GOLD	RAIN	RAIN	GOLD	18	[0, 0, 0]	-999	PAL1	3	R1212P
2002.774	1.164	2570078	REC_START	n/a	n/a	5	-999	n/a	RAIN	n/a	n/a	18	[0, 0, 0]	-999	PAL1	3	R1212P
2003.938	3.854	2571270	REC_EVENT	1.164	n/a	5	5	GOLD	RAIN	RAIN	GOLD	18	[0, 0, 0]	-999	PAL1	3	R1212P
2007.792	0.016	2575216	REC_END	n/a	n/a	5	-999	n/a	n/a	n/a	n/a	18	[0, 0, 0]	-999	PAL1	3	R1212P
2007.808	0.275	2575232	TEST_ORIENT	n/a	n/a	6	6	STEAK	APE	STEAK	APE	18	[0, 0, 0]	-999	PAL1	3	R1212P
2008.625	4.0	2576069	TEST_PROBE	n/a	wordpools/wordpool_EN.txt	6	6	STEAK	APE	STEAK	APE	18	[0, 0, 0]	-999	PAL1	3	R1212P
2008.626	0.976	2576070	REC_START	n/a	n/a	6	-999	n/a	APE	n/a	n/a	18	[0, 0, 0]	-999	PAL1	3	R1212P
2009.602	4.033	2577069	REC_EVENT	0.976	n/a	6	6	STEAK	APE	STEAK	APE	18	[0, 0, 0]	-999	PAL1	3	R1212P
2013.635	1.535	2581199	REC_END	n/a	n/a	6	-999	n/a	n/a	n/a	n/a	18	[0, 0, 0]	-999	PAL1	3	R1212P
2015.17	10.442	2582771	ENCODING_START	n/a	n/a	0	-999	n/a	n/a	n/a	n/a	19	[0, 0, 0]	-999	PAL1	3	R1212P
2025.612	0.275	2593463	STUDY_ORIENT	n/a	n/a	1	5	PLANE	n/a	LAMB	PLANE	19	[0, 0, 0]	-999	PAL1	3	R1212P
2026.495	4.0	2594367	STUDY_PAIR	n/a	wordpools/wordpool_EN.txt	1	5	PLANE	n/a	LAMB	PLANE	19	[0, 0, 0]	-999	PAL1	3	R1212P
2031.513	0.275	2599505	STUDY_ORIENT	n/a	n/a	2	2	STEAM	n/a	STEAM	CAT	19	[0, 0, 0]	-999	PAL1	3	R1212P
2032.38	4.0	2600393	STUDY_PAIR	n/a	wordpools/wordpool_EN.txt	2	2	STEAM	n/a	STEAM	CAT	19	[0, 0, 0]	-999	PAL1	3	R1212P
2037.414	0.275	2605547	STUDY_ORIENT	n/a	n/a	3	1	MOTH	PANTS	MOTH	PANTS	19	[0, 0, 0]	-999	PAL1	3	R1212P
