onset	duration	sample	trial_type	response_time	serialpos	probepos	probe_word	resp_word	study_1	study_2	list	test	answer	experiment	session	subject
0.0	67.943	583667	SESS_START	n/a	-999	-999	n/a	n/a	n/a	n/a	-999	[0, 0, 0]	-999	PAL1	0	R1149N
67.943	1.016	651610	START	n/a	-999	-999	n/a	n/a	n/a	n/a	-1	[-999, -999, -999]	-999	PAL1	0	R1149N
68.959	9.701	652626	PROB	9678	-999	-999	n/a	n/a	n/a	n/a	-1	[6, 7, 8]	21	PAL1	0	R1149N
78.66	4.201	662327	PROB	4168	-999	-999	n/a	n/a	n/a	n/a	-1	[9, 9, 2]	21	PAL1	0	R1149N
82.861	5.703	666528	PROB	5703	-999	-999	n/a	n/a	n/a	n/a	-1	[1, 2, 8]	11	PAL1	0	R1149N
88.564	49.117	672231	STOP	n/a	-999	-999	n/a	n/a	n/a	n/a	-1	[-999, -999, -999]	-999	PAL1	0	R1149N
137.681	10.436	721349	ENCODING_START	n/a	0	-999	n/a	n/a	n/a	n/a	1	[0, 0, 0]	-999	PAL1	0	R1149N
148.117	0.834	731785	STUDY_ORIENT	n/a	1	3	BEAN	n/a	HAT	BEAN	1	[0, 0, 0]	-999	PAL1	0	R1149N
148.951	5.034	732619	STUDY_PAIR	n/a	1	3	BEAN	n/a	HAT	BEAN	1	[0, 0, 0]	-999	PAL1	0	R1149N
153.985	0.833	737653	STUDY_ORIENT	n/a	2	4	SHEEP	n/a	DEER	SHEEP	1	[0, 0, 0]	-999	PAL1	0	R1149N
154.818	5.034	738486	STUDY_PAIR	n/a	2	4	SHEEP	n/a	DEER	SHEEP	1	[0, 0, 0]	-999	PAL1	0	R1149N
159.852	0.9	743520	STUDY_ORIENT	n/a	3	5	COUCH	TIP	PIT	COUCH	1	[0, 0, 0]	-999	PAL1	0	R1149N
160.752	5.034	744420	STUDY_PAIR	n/a	3	5	COUCH	TIP	PIT	COUCH	1	[0, 0, 0]	-999	PAL1	0	R1149N
165.786	1.017	749454	STUDY_ORIENT	n/a	4	2	ROSE	TOP	PEACH	ROSE	1	[0, 0, 0]	-999	PAL1	0	R1149N
166.803	5.034	750471	STUDY_PAIR	n/a	4	2	ROSE	TOP	PEACH	ROSE	1	[0, 0, 0]	-999	PAL1	0	R1149N
171.837	0.966	755505	STUDY_ORIENT	n/a	5	1	BENCH	TREE	BENCH	PIE	1	[0, 0, 0]	-999	PAL1	0	R1149N
172.803	5.034	756471	STUDY_PAIR	n/a	5	1	BENCH	TREE	BENCH	PIE	1	[0, 0, 0]	-999	PAL1	0	R1149N
177.837	0.967	761505	STUDY_ORIENT	n/a	6	6	ROOT	n/a	ROOT	SPARK	1	[0, 0, 0]	-999	PAL1	0	R1149N
178.804	4.018	762472	STUDY_PAIR	n/a	6	6	ROOT	n/a	ROOT	SPARK	1	[0, 0, 0]	-999	PAL1	0	R1149N
182.822	0.999	766490	START	n/a	-999	-999	n/a	n/a	n/a	n/a	1	[-999, -999, -999]	-999	PAL1	0	R1149N
183.821	0.017	767489	MATH_START	n/a	-999	-999	n/a	n/a	n/a	n/a	1	[0, 0, 0]	-999	PAL1	0	R1149N
183.838	7.134	767506	PROB	7111	-999	-999	n/a	n/a	n/a	n/a	1	[5, 4, 9]	18	PAL1	0	R1149N
190.972	9.501	774640	PROB	9473	-999	-999	n/a	n/a	n/a	n/a	1	[8, 9, 7]	25	PAL1	0	R1149N
200.473	9.179	784141	PROB	9179	-999	-999	n/a	n/a	n/a	n/a	1	[1, 8, 5]	14	PAL1	0	R1149N
209.652	0.005	793320	STOP	n/a	-999	-999	n/a	n/a	n/a	n/a	1	[-999, -999, -999]	-999	PAL1	0	R1149N
209.657	0.0	793325	MATH_END	n/a	-999	-999	n/a	n/a	n/a	n/a	1	[0, 0, 0]	-999	PAL1	0	R1149N
209.657	0.017	793325	TEST_START	n/a	-999	-999	n/a	n/a	n/a	n/a	1	[0, 0, 0]	-999	PAL1	0	R1149N
209.674	0.817	793342	TEST_ORIENT	n/a	5	1	BENCH	TREE	BENCH	PIE	1	[0, 0, 0]	-999	PAL1	0	R1149N
210.491	0.0	794159	TEST_PROBE	n/a	5	1	BENCH	TREE	BENCH	PIE	1	[0, 0, 0]	-999	PAL1	0	R1149N
210.491	2.025	794159	REC_START	n/a	5	-999	n/a	TREE	n/a	n/a	1	[0, 0, 0]	-999	PAL1	0	R1149N
212.516	2.993	796184	REC_EVENT	2025	5	1	BENCH	TREE	BENCH	PIE	1	[0, 0, 0]	-999	PAL1	0	R1149N
215.509	0.016	799177	REC_END	n/a	5	-999	n/a	n/a	n/a	n/a	1	[0, 0, 0]	-999	PAL1	0	R1149N
215.525	0.85	799193	TEST_ORIENT	n/a	4	2	ROSE	TOP	PEACH	ROSE	1	[0, 0, 0]	-999	PAL1	0	R1149N
216.375	0.0	800043	TEST_PROBE	n/a	4	2	ROSE	TOP	PEACH	ROSE	1	[0, 0, 0]	-999	PAL1	0	R1149N
216.375	3.713	800043	REC_START	n/a	4	-999	n/a	TOP	n/a	n/a	1	[0, 0, 0]	-999	PAL1	0	R1149N
220.088	1.304	803756	REC_EVENT	3713	4	2	ROSE	TOP	PEACH	ROSE	1	[0, 0, 0]	-999	PAL1	0	R1149N
221.392	0.017	805060	REC_END	n/a	4	-999	n/a	n/a	n/a	n/a	1	[0, 0, 0]	-999	PAL1	0	R1149N
221.409	0.8	805077	TEST_ORIENT	n/a	1	3	BEAN	n/a	HAT	BEAN	1	[0, 0, 0]	-999	PAL1	0	R1149N
222.209	0.0	805877	TEST_PROBE	n/a	1	3	BEAN	n/a	HAT	BEAN	1	[0, 0, 0]	-999	PAL1	0	R1149N
222.209	4.852	805877	REC_START	n/a	1	-999	n/a	n/a	n/a	n/a	1	[0, 0, 0]	-999	PAL1	0	R1149N
227.061	0.165	810729	REC_EVENT	4852	1	3	BEAN	<>	HAT	BEAN	1	[0, 0, 0]	-999	PAL1	0	R1149N
227.226	0.017	810894	REC_END	n/a	1	-999	n/a	n/a	n/a	n/a	1	[0, 0, 0]	-999	PAL1	0	R1149N
227.243	1.0	810911	TEST_ORIENT	n/a	2	4	SHEEP	n/a	DEER	SHEEP	1	[0, 0, 0]	-999	PAL1	0	R1149N
228.243	0.0	811911	TEST_PROBE	n/a	2	4	SHEEP	n/a	DEER	SHEEP	1	[0, 0, 0]	-999	PAL1	0	R1149N
228.243	2.713	811911	REC_START	n/a	2	-999	n/a	n/a	n/a	n/a	1	[0, 0, 0]	-999	PAL1	0	R1149N
230.956	1.0	814624	REC_EVENT	2713	2	4	SHEEP	<>	DEER	SHEEP	1	[0, 0, 0]	-999	PAL1	0	R1149N
231.956	1.304	815624	REC_EVENT	3713	2	4	SHEEP	<>	DEER	SHEEP	1	[0, 0, 0]	-999	PAL1	0	R1149N
233.26	0.016	816928	REC_END	n/a	2	-999	n/a	n/a	n/a	n/a	1	[0, 0, 0]	-999	PAL1	0	R1149N
233.276	1.017	816944	TEST_ORIENT	n/a	3	5	COUCH	TIP	PIT	COUCH	1	[0, 0, 0]	-999	PAL1	0	R1149N
234.293	0.001	817961	TEST_PROBE	n/a	3	5	COUCH	TIP	PIT	COUCH	1	[0, 0, 0]	-999	PAL1	0	R1149N
234.294	2.355	817962	REC_START	n/a	3	-999	n/a	TIP	n/a	n/a	1	[0, 0, 0]	-999	PAL1	0	R1149N
236.649	2.661	820317	REC_EVENT	2355	3	5	COUCH	TIP	PIT	COUCH	1	[0, 0, 0]	-999	PAL1	0	R1149N
239.31	0.017	822979	REC_END	n/a	3	-999	n/a	n/a	n/a	n/a	1	[0, 0, 0]	-999	PAL1	0	R1149N
239.327	0.799	822996	TEST_ORIENT	n/a	6	6	ROOT	n/a	ROOT	SPARK	1	[0, 0, 0]	-999	PAL1	0	R1149N
240.126	0.001	823795	TEST_PROBE	n/a	6	6	ROOT	n/a	ROOT	SPARK	1	[0, 0, 0]	-999	PAL1	0	R1149N
240.127	4.899	823796	REC_START	n/a	6	-999	n/a	n/a	n/a	n/a	1	[0, 0, 0]	-999	PAL1	0	R1149N
245.026	0.125	828695	REC_EVENT	4899	6	6	ROOT	<>	ROOT	SPARK	1	[0, 0, 0]	-999	PAL1	0	R1149N
245.151	3.315	828820	REC_END	n/a	6	-999	n/a	n/a	n/a	n/a	1	[0, 0, 0]	-999	PAL1	0	R1149N
248.466	10.447	832135	ENCODING_START	n/a	0	-999	n/a	n/a	n/a	n/a	2	[0, 0, 0]	-999	PAL1	0	R1149N
258.913	0.849	842582	STUDY_ORIENT	n/a	1	1	GUARD	FOX	GUARD	FOX	2	[0, 0, 0]	-999	PAL1	0	R1149N
259.762	5.018	843431	STUDY_PAIR	n/a	1	1	GUARD	FOX	GUARD	FOX	2	[0, 0, 0]	-999	PAL1	0	R1149N
264.78	0.833	848449	STUDY_ORIENT	n/a	2	6	JUICE	n/a	JUICE	CANE	2	[0, 0, 0]	-999	PAL1	0	R1149N
265.613	5.034	849282	STUDY_PAIR	n/a	2	6	JUICE	n/a	JUICE	CANE	2	[0, 0, 0]	-999	PAL1	0	R1149N
270.647	0.9	854316	STUDY_ORIENT	n/a	3	3	DIME	WATCH	TANK	DIME	2	[0, 0, 0]	-999	PAL1	0	R1149N
271.547	5.034	855216	STUDY_PAIR	n/a	3	3	DIME	WATCH	TANK	DIME	2	[0, 0, 0]	-999	PAL1	0	R1149N
276.581	0.983	860250	STUDY_ORIENT	n/a	4	4	MAP	ICE	ICE	MAP	2	[0, 0, 0]	-999	PAL1	0	R1149N
277.564	5.018	861233	STUDY_PAIR	n/a	4	4	MAP	ICE	ICE	MAP	2	[0, 0, 0]	-999	PAL1	0	R1149N
282.582	0.933	866251	STUDY_ORIENT	n/a	5	5	CHAIR	BENCH	SHARK	CHAIR	2	[0, 0, 0]	-999	PAL1	0	R1149N
283.515	5.034	867184	STUDY_PAIR	n/a	5	5	CHAIR	BENCH	SHARK	CHAIR	2	[0, 0, 0]	-999	PAL1	0	R1149N
288.549	0.967	872218	STUDY_ORIENT	n/a	6	2	BROOM	n/a	FISH	BROOM	2	[0, 0, 0]	-999	PAL1	0	R1149N
289.516	4.017	873185	STUDY_PAIR	n/a	6	2	BROOM	n/a	FISH	BROOM	2	[0, 0, 0]	-999	PAL1	0	R1149N
293.533	1.0	877202	START	n/a	-999	-999	n/a	n/a	n/a	n/a	2	[-999, -999, -999]	-999	PAL1	0	R1149N
294.533	0.017	878202	MATH_START	n/a	-999	-999	n/a	n/a	n/a	n/a	2	[0, 0, 0]	-999	PAL1	0	R1149N
294.55	3.217	878219	PROB	3193	-999	-999	n/a	n/a	n/a	n/a	2	[2, 1, 8]	11	PAL1	0	R1149N
297.767	3.717	881436	PROB	3687	-999	-999	n/a	n/a	n/a	n/a	2	[9, 4, 6]	19	PAL1	0	R1149N
301.484	7.7	885153	PROB	7673	-999	-999	n/a	n/a	n/a	n/a	2	[4, 7, 4]	15	PAL1	0	R1149N
309.184	2.584	892853	PROB	2550	-999	-999	n/a	n/a	n/a	n/a	2	[2, 1, 1]	4	PAL1	0	R1149N
311.768	11.332	895437	PROB	11332	-999	-999	n/a	n/a	n/a	n/a	2	[9, 8, 6]	22	PAL1	0	R1149N
323.1	0.018	906769	STOP	n/a	-999	-999	n/a	n/a	n/a	n/a	2	[-999, -999, -999]	-999	PAL1	0	R1149N
323.118	0.0	906787	TEST_START	n/a	-999	-999	n/a	n/a	n/a	n/a	2	[0, 0, 0]	-999	PAL1	0	R1149N
323.118	0.017	906787	MATH_END	n/a	-999	-999	n/a	n/a	n/a	n/a	2	[0, 0, 0]	-999	PAL1	0	R1149N
323.135	0.784	906804	TEST_ORIENT	n/a	1	1	GUARD	FOX	GUARD	FOX	2	[0, 0, 0]	-999	PAL1	0	R1149N
323.919	0.001	907588	TEST_PROBE	n/a	1	1	GUARD	FOX	GUARD	FOX	2	[0, 0, 0]	-999	PAL1	0	R1149N
323.92	1.941	907589	REC_START	n/a	1	-999	n/a	FOX	n/a	n/a	2	[0, 0, 0]	-999	PAL1	0	R1149N
325.861	3.075	909530	REC_EVENT	1941	1	1	GUARD	FOX	GUARD	FOX	2	[0, 0, 0]	-999	PAL1	0	R1149N
328.936	0.017	912605	REC_END	n/a	1	-999	n/a	n/a	n/a	n/a	2	[0, 0, 0]	-999	PAL1	0	R1149N
328.953	0.95	912622	TEST_ORIENT	n/a	6	2	BROOM	n/a	FISH	BROOM	2	[0, 0, 0]	-999	PAL1	0	R1149N
329.903	0.001	913572	TEST_PROBE	n/a	6	2	BROOM	n/a	FISH	BROOM	2	[0, 0, 0]	-999	PAL1	0	R1149N
329.904	4.971	913573	REC_START	n/a	6	-999	n/a	n/a	n/a	n/a	2	[0, 0, 0]	-999	PAL1	0	R1149N
334.875	0.053	918544	REC_EVENT	4971	6	2	BROOM	<>	FISH	BROOM	2	[0, 0, 0]	-999	PAL1	0	R1149N
334.928	0.009	918597	REC_END	n/a	6	-999	n/a	n/a	n/a	n/a	2	[0, 0, 0]	-999	PAL1	0	R1149N
334.937	0.884	918606	TEST_ORIENT	n/a	3	3	DIME	WATCH	TANK	DIME	2	[0, 0, 0]	-999	PAL1	0	R1149N
335.821	0.0	919490	TEST_PROBE	n/a	3	3	DIME	WATCH	TANK	DIME	2	[0, 0, 0]	-999	PAL1	0	R1149N
335.821	2.87	919490	REC_START	n/a	3	-999	n/a	WATCH	n/a	n/a	2	[0, 0, 0]	-999	PAL1	0	R1149N
338.691	2.147	922360	REC_EVENT	2870	3	3	DIME	WATCH	TANK	DIME	2	[0, 0, 0]	-999	PAL1	0	R1149N
340.838	0.017	924507	REC_END	n/a	3	-999	n/a	n/a	n/a	n/a	2	[0, 0, 0]	-999	PAL1	0	R1149N
340.855	0.799	924524	TEST_ORIENT	n/a	4	4	MAP	ICE	ICE	MAP	2	[0, 0, 0]	-999	PAL1	0	R1149N
341.654	0.001	925323	TEST_PROBE	n/a	4	4	MAP	ICE	ICE	MAP	2	[0, 0, 0]	-999	PAL1	0	R1149N
341.655	1.296	925324	REC_START	n/a	4	-999	n/a	ICE	n/a	n/a	2	[0, 0, 0]	-999	PAL1	0	R1149N
342.951	3.704	926620	REC_EVENT	1296	4	4	MAP	ICE	ICE	MAP	2	[0, 0, 0]	-999	PAL1	0	R1149N
346.655	0.017	930324	REC_END	n/a	4	-999	n/a	n/a	n/a	n/a	2	[0, 0, 0]	-999	PAL1	0	R1149N
346.672	0.967	930341	TEST_ORIENT	n/a	5	5	CHAIR	BENCH	SHARK	CHAIR	2	[0, 0, 0]	-999	PAL1	0	R1149N
347.639	0.0	931308	TEST_PROBE	n/a	5	5	CHAIR	BENCH	SHARK	CHAIR	2	[0, 0, 0]	-999	PAL1	0	R1149N
347.639	2.636	931308	REC_START	n/a	5	-999	n/a	BENCH	n/a	n/a	2	[0, 0, 0]	-999	PAL1	0	R1149N
350.275	2.381	933944	REC_EVENT	2636	5	5	CHAIR	BENCH	SHARK	CHAIR	2	[0, 0, 0]	-999	PAL1	0	R1149N
352.656	0.016	936325	REC_END	n/a	5	-999	n/a	n/a	n/a	n/a	2	[0, 0, 0]	-999	PAL1	0	R1149N
352.672	0.85	936341	TEST_ORIENT	n/a	2	6	JUICE	n/a	JUICE	CANE	2	[0, 0, 0]	-999	PAL1	0	R1149N
353.522	0.001	937191	TEST_PROBE	n/a	2	6	JUICE	n/a	JUICE	CANE	2	[0, 0, 0]	-999	PAL1	0	R1149N
353.523	4.829	937192	REC_START	n/a	2	-999	n/a	n/a	n/a	n/a	2	[0, 0, 0]	-999	PAL1	0	R1149N
358.352	0.178	942021	REC_EVENT	4829	2	6	JUICE	<>	JUICE	CANE	2	[0, 0, 0]	-999	PAL1	0	R1149N
358.53	2.233	942199	REC_END	n/a	2	-999	n/a	n/a	n/a	n/a	2	[0, 0, 0]	-999	PAL1	0	R1149N
360.763	10.445	944432	ENCODING_START	n/a	0	-999	n/a	n/a	n/a	n/a	3	[0, 0, 0]	-999	PAL1	0	R1149N
371.208	0.799	954878	STUDY_ORIENT	n/a	1	5	RIB	ROADS	WORLD	RIB	3	[0, 0, 0]	-999	PAL1	0	R1149N
372.007	5.034	955677	STUDY_PAIR	n/a	1	5	RIB	ROADS	WORLD	RIB	3	[0, 0, 0]	-999	PAL1	0	R1149N
377.041	0.901	960711	STUDY_ORIENT	n/a	2	6	TOOTH	BRIDGE	YARD	TOOTH	3	[0, 0, 0]	-999	PAL1	0	R1149N
377.942	5.034	961612	STUDY_PAIR	n/a	2	6	TOOTH	BRIDGE	YARD	TOOTH	3	[0, 0, 0]	-999	PAL1	0	R1149N
382.976	0.983	966646	STUDY_ORIENT	n/a	3	1	CLOCK	WATCH	CLOCK	ARM	3	[0, 0, 0]	-999	PAL1	0	R1149N
383.959	5.034	967629	STUDY_PAIR	n/a	3	1	CLOCK	WATCH	CLOCK	ARM	3	[0, 0, 0]	-999	PAL1	0	R1149N
388.993	0.933	972663	STUDY_ORIENT	n/a	4	2	DUCK	TIME	PEAR	DUCK	3	[0, 0, 0]	-999	PAL1	0	R1149N
389.926	5.018	973596	STUDY_PAIR	n/a	4	2	DUCK	TIME	PEAR	DUCK	3	[0, 0, 0]	-999	PAL1	0	R1149N
394.944	0.783	978614	STUDY_ORIENT	n/a	5	3	PET	n/a	TOY	PET	3	[0, 0, 0]	-999	PAL1	0	R1149N
395.727	5.034	979397	STUDY_PAIR	n/a	5	3	PET	n/a	TOY	PET	3	[0, 0, 0]	-999	PAL1	0	R1149N
400.761	0.933	984431	STUDY_ORIENT	n/a	6	4	VEST	DROWN	VEST	FUDGE	3	[0, 0, 0]	-999	PAL1	0	R1149N
401.694	4.018	985364	STUDY_PAIR	n/a	6	4	VEST	DROWN	VEST	FUDGE	3	[0, 0, 0]	-999	PAL1	0	R1149N
405.712	0.999	989382	START	n/a	-999	-999	n/a	n/a	n/a	n/a	3	[-999, -999, -999]	-999	PAL1	0	R1149N
406.711	0.017	990381	MATH_START	n/a	-999	-999	n/a	n/a	n/a	n/a	3	[0, 0, 0]	-999	PAL1	0	R1149N
406.728	6.4	990398	PROB	6366	-999	-999	n/a	n/a	n/a	n/a	3	[4, 7, 7]	18	PAL1	0	R1149N
413.128	4.017	996798	PROB	3998	-999	-999	n/a	n/a	n/a	n/a	3	[6, 1, 2]	9	PAL1	0	R1149N
417.145	3.851	1000815	PROB	3830	-999	-999	n/a	n/a	n/a	n/a	3	[1, 9, 7]	17	PAL1	0	R1149N
420.996	3.1	1004666	PROB	3074	-999	-999	n/a	n/a	n/a	n/a	3	[4, 5, 1]	10	PAL1	0	R1149N
424.096	2.973	1007766	PROB	2973	-999	-999	n/a	n/a	n/a	n/a	3	[1, 9, 3]	13	PAL1	0	R1149N
427.069	0.01	1010739	STOP	n/a	-999	-999	n/a	n/a	n/a	n/a	3	[-999, -999, -999]	-999	PAL1	0	R1149N
427.079	0.0	1010749	MATH_END	n/a	-999	-999	n/a	n/a	n/a	n/a	3	[0, 0, 0]	-999	PAL1	0	R1149N
427.079	0.017	1010749	TEST_START	n/a	-999	-999	n/a	n/a	n/a	n/a	3	[0, 0, 0]	-999	PAL1	0	R1149N
427.096	0.834	1010766	TEST_ORIENT	n/a	3	1	CLOCK	WATCH	CLOCK	ARM	3	[0, 0, 0]	-999	PAL1	0	R1149N
427.93	0.001	1011600	TEST_PROBE	n/a	3	1	CLOCK	WATCH	CLOCK	ARM	3	[0, 0, 0]	-999	PAL1	0	R1149N
427.931	3.255	1011601	REC_START	n/a	3	-999	n/a	WATCH	n/a	n/a	3	[0, 0, 0]	-999	PAL1	0	R1149N
431.186	1.753	1014856	REC_EVENT	3255	3	1	CLOCK	WATCH	CLOCK	ARM	3	[0, 0, 0]	-999	PAL1	0	R1149N
432.939	0.009	1016609	REC_END	n/a	3	-999	n/a	n/a	n/a	n/a	3	[0, 0, 0]	-999	PAL1	0	R1149N
432.948	0.8	1016618	TEST_ORIENT	n/a	4	2	DUCK	TIME	PEAR	DUCK	3	[0, 0, 0]	-999	PAL1	0	R1149N
433.748	0.0	1017418	REC_START	n/a	4	-999	n/a	TIME	n/a	n/a	3	[0, 0, 0]	-999	PAL1	0	R1149N
433.748	3.056	1017418	TEST_PROBE	n/a	4	2	DUCK	TIME	PEAR	DUCK	3	[0, 0, 0]	-999	PAL1	0	R1149N
436.804	1.961	1020474	REC_EVENT	3056	4	2	DUCK	TIME	PEAR	DUCK	3	[0, 0, 0]	-999	PAL1	0	R1149N
438.765	0.017	1022435	REC_END	n/a	4	-999	n/a	n/a	n/a	n/a	3	[0, 0, 0]	-999	PAL1	0	R1149N
438.782	0.883	1022452	TEST_ORIENT	n/a	5	3	PET	n/a	TOY	PET	3	[0, 0, 0]	-999	PAL1	0	R1149N
439.665	0.0	1023335	TEST_PROBE	n/a	5	3	PET	n/a	TOY	PET	3	[0, 0, 0]	-999	PAL1	0	R1149N
439.665	4.945	1023335	REC_START	n/a	5	-999	n/a	n/a	n/a	n/a	3	[0, 0, 0]	-999	PAL1	0	R1149N
444.61	0.072	1028280	REC_EVENT	4945	5	3	PET	<>	TOY	PET	3	[0, 0, 0]	-999	PAL1	0	R1149N
444.682	0.017	1028352	REC_END	n/a	5	-999	n/a	n/a	n/a	n/a	3	[0, 0, 0]	-999	PAL1	0	R1149N
444.699	0.9	1028369	TEST_ORIENT	n/a	6	4	VEST	DROWN	VEST	FUDGE	3	[0, 0, 0]	-999	PAL1	0	R1149N
445.599	0.0	1029269	TEST_PROBE	n/a	6	4	VEST	DROWN	VEST	FUDGE	3	[0, 0, 0]	-999	PAL1	0	R1149N
445.599	2.613	1029269	REC_START	n/a	6	-999	n/a	DROWN	n/a	n/a	3	[0, 0, 0]	-999	PAL1	0	R1149N
448.212	2.404	1031882	REC_EVENT	2613	6	4	VEST	DROWN	VEST	FUDGE	3	[0, 0, 0]	-999	PAL1	0	R1149N
450.616	0.017	1034286	REC_END	n/a	6	-999	n/a	n/a	n/a	n/a	3	[0, 0, 0]	-999	PAL1	0	R1149N
450.633	1.033	1034303	TEST_ORIENT	n/a	1	5	RIB	ROADS	WORLD	RIB	3	[0, 0, 0]	-999	PAL1	0	R1149N
451.666	0.001	1035336	TEST_PROBE	n/a	1	5	RIB	ROADS	WORLD	RIB	3	[0, 0, 0]	-999	PAL1	0	R1149N
451.667	1.81	1035337	REC_START	n/a	1	-999	n/a	ROADS	n/a	n/a	3	[0, 0, 0]	-999	PAL1	0	R1149N
453.477	3.206	1037147	REC_EVENT	1810	1	5	RIB	ROADS	WORLD	RIB	3	[0, 0, 0]	-999	PAL1	0	R1149N
456.683	0.017	1040353	REC_END	n/a	1	-999	n/a	n/a	n/a	n/a	3	[0, 0, 0]	-999	PAL1	0	R1149N
456.7	0.867	1040370	TEST_ORIENT	n/a	2	6	TOOTH	BRIDGE	YARD	TOOTH	3	[0, 0, 0]	-999	PAL1	0	R1149N
457.567	0.0	1041237	TEST_PROBE	n/a	2	6	TOOTH	BRIDGE	YARD	TOOTH	3	[0, 0, 0]	-999	PAL1	0	R1149N
457.567	2.171	1041237	REC_START	n/a	2	-999	n/a	BRIDGE	n/a	n/a	3	[0, 0, 0]	-999	PAL1	0	R1149N
459.738	2.846	1043408	REC_EVENT	2171	2	6	TOOTH	BRIDGE	YARD	TOOTH	3	[0, 0, 0]	-999	PAL1	0	R1149N
462.584	2.316	1046254	REC_END	n/a	2	-999	n/a	n/a	n/a	n/a	3	[0, 0, 0]	-999	PAL1	0	R1149N
464.9	10.452	1048570	ENCODING_START	n/a	0	-999	n/a	n/a	n/a	n/a	4	[0, 0, 0]	-999	PAL1	0	R1149N
475.352	0.799	1059022	STUDY_ORIENT	n/a	1	1	TRAIN	GAME	SLUSH	TRAIN	4	[0, 0, 0]	-999	PAL1	0	R1149N
476.151	5.035	1059821	STUDY_PAIR	n/a	1	1	TRAIN	GAME	SLUSH	TRAIN	4	[0, 0, 0]	-999	PAL1	0	R1149N
481.186	1.034	1064856	STUDY_ORIENT	n/a	2	4	WAVE	n/a	ZOO	WAVE	4	[0, 0, 0]	-999	PAL1	0	R1149N
482.22	5.033	1065890	STUDY_PAIR	n/a	2	4	WAVE	n/a	ZOO	WAVE	4	[0, 0, 0]	-999	PAL1	0	R1149N
487.253	0.799	1070923	STUDY_ORIENT	n/a	3	3	PALM	n/a	PALM	BANK	4	[0, 0, 0]	-999	PAL1	0	R1149N
488.052	5.018	1071722	STUDY_PAIR	n/a	3	3	PALM	n/a	PALM	BANK	4	[0, 0, 0]	-999	PAL1	0	R1149N
493.07	0.784	1076740	STUDY_ORIENT	n/a	4	6	CLOUD	n/a	CLOUD	SAIL	4	[0, 0, 0]	-999	PAL1	0	R1149N
493.854	5.034	1077524	STUDY_PAIR	n/a	4	6	CLOUD	n/a	CLOUD	SAIL	4	[0, 0, 0]	-999	PAL1	0	R1149N
498.888	0.833	1082559	STUDY_ORIENT	n/a	5	5	SEAL	n/a	STOVE	SEAL	4	[0, 0, 0]	-999	PAL1	0	R1149N
499.721	5.018	1083392	STUDY_PAIR	n/a	5	5	SEAL	n/a	STOVE	SEAL	4	[0, 0, 0]	-999	PAL1	0	R1149N
504.739	0.8	1088410	STUDY_ORIENT	n/a	6	2	PHONE	n/a	SPONGE	PHONE	4	[0, 0, 0]	-999	PAL1	0	R1149N
505.539	4.017	1089210	STUDY_PAIR	n/a	6	2	PHONE	n/a	SPONGE	PHONE	4	[0, 0, 0]	-999	PAL1	0	R1149N
509.556	1.0	1093227	START	n/a	-999	-999	n/a	n/a	n/a	n/a	4	[-999, -999, -999]	-999	PAL1	0	R1149N
510.556	0.017	1094227	MATH_START	n/a	-999	-999	n/a	n/a	n/a	n/a	4	[0, 0, 0]	-999	PAL1	0	R1149N
510.573	23.923	1094244	PROB	23923	-999	-999	n/a	n/a	n/a	n/a	4	[6, 8, 7]	21	PAL1	0	R1149N
534.496	0.012	1118167	STOP	n/a	-999	-999	n/a	n/a	n/a	n/a	4	[-999, -999, -999]	-999	PAL1	0	R1149N
534.508	0.0	1118179	MATH_END	n/a	-999	-999	n/a	n/a	n/a	n/a	4	[0, 0, 0]	-999	PAL1	0	R1149N
534.508	0.017	1118179	TEST_START	n/a	-999	-999	n/a	n/a	n/a	n/a	4	[0, 0, 0]	-999	PAL1	0	R1149N
534.525	0.967	1118196	TEST_ORIENT	n/a	1	1	TRAIN	GAME	SLUSH	TRAIN	4	[0, 0, 0]	-999	PAL1	0	R1149N
535.492	0.0	1119163	TEST_PROBE	n/a	1	1	TRAIN	GAME	SLUSH	TRAIN	4	[0, 0, 0]	-999	PAL1	0	R1149N
535.492	2.846	1119163	REC_START	n/a	1	-999	n/a	GAME	n/a	n/a	4	[0, 0, 0]	-999	PAL1	0	R1149N
538.338	2.171	1122009	REC_EVENT	2846	1	1	TRAIN	GAME	SLUSH	TRAIN	4	[0, 0, 0]	-999	PAL1	0	R1149N
540.509	0.017	1124180	REC_END	n/a	1	-999	n/a	n/a	n/a	n/a	4	[0, 0, 0]	-999	PAL1	0	R1149N
540.526	0.85	1124197	TEST_ORIENT	n/a	6	2	PHONE	n/a	SPONGE	PHONE	4	[0, 0, 0]	-999	PAL1	0	R1149N
541.376	0.001	1125047	TEST_PROBE	n/a	6	2	PHONE	n/a	SPONGE	PHONE	4	[0, 0, 0]	-999	PAL1	0	R1149N
541.377	4.852	1125048	REC_START	n/a	6	-999	n/a	n/a	n/a	n/a	4	[0, 0, 0]	-999	PAL1	0	R1149N
546.229	0.172	1129900	REC_EVENT	4852	6	2	PHONE	<>	SPONGE	PHONE	4	[0, 0, 0]	-999	PAL1	0	R1149N
546.401	0.009	1130072	REC_END	n/a	6	-999	n/a	n/a	n/a	n/a	4	[0, 0, 0]	-999	PAL1	0	R1149N
546.41	0.983	1130081	TEST_ORIENT	n/a	3	3	PALM	n/a	PALM	BANK	4	[0, 0, 0]	-999	PAL1	0	R1149N
547.393	0.0	1131064	TEST_PROBE	n/a	3	3	PALM	n/a	PALM	BANK	4	[0, 0, 0]	-999	PAL1	0	R1149N
547.393	4.783	1131064	REC_START	n/a	3	-999	n/a	n/a	n/a	n/a	4	[0, 0, 0]	-999	PAL1	0	R1149N
552.176	0.234	1135847	REC_EVENT	4783	3	3	PALM	<>	PALM	BANK	4	[0, 0, 0]	-999	PAL1	0	R1149N
552.41	0.017	1136081	REC_END	n/a	3	-999	n/a	n/a	n/a	n/a	4	[0, 0, 0]	-999	PAL1	0	R1149N
552.427	0.967	1136098	TEST_ORIENT	n/a	2	4	WAVE	n/a	ZOO	WAVE	4	[0, 0, 0]	-999	PAL1	0	R1149N
553.394	0.0	1137065	TEST_PROBE	n/a	2	4	WAVE	n/a	ZOO	WAVE	4	[0, 0, 0]	-999	PAL1	0	R1149N
553.394	4.922	1137065	REC_START	n/a	2	-999	n/a	n/a	n/a	n/a	4	[0, 0, 0]	-999	PAL1	0	R1149N
558.316	0.095	1141987	REC_EVENT	4922	2	4	WAVE	<>	ZOO	WAVE	4	[0, 0, 0]	-999	PAL1	0	R1149N
558.411	0.017	1142082	REC_END	n/a	2	-999	n/a	n/a	n/a	n/a	4	[0, 0, 0]	-999	PAL1	0	R1149N
558.428	1.016	1142099	TEST_ORIENT	n/a	5	5	SEAL	n/a	STOVE	SEAL	4	[0, 0, 0]	-999	PAL1	0	R1149N
559.444	0.001	1143115	TEST_PROBE	n/a	5	5	SEAL	n/a	STOVE	SEAL	4	[0, 0, 0]	-999	PAL1	0	R1149N
559.445	4.969	1143116	REC_START	n/a	5	-999	n/a	n/a	n/a	n/a	4	[0, 0, 0]	-999	PAL1	0	R1149N
564.414	0.039	1148085	REC_EVENT	4969	5	5	SEAL	<>	STOVE	SEAL	4	[0, 0, 0]	-999	PAL1	0	R1149N
564.453	0.009	1148124	REC_END	n/a	5	-999	n/a	n/a	n/a	n/a	4	[0, 0, 0]	-999	PAL1	0	R1149N
564.462	0.95	1148133	TEST_ORIENT	n/a	4	6	CLOUD	n/a	CLOUD	SAIL	4	[0, 0, 0]	-999	PAL1	0	R1149N
565.412	0.0	1149083	TEST_PROBE	n/a	4	6	CLOUD	n/a	CLOUD	SAIL	4	[0, 0, 0]	-999	PAL1	0	R1149N
565.412	4.829	1149083	REC_START	n/a	4	-999	n/a	n/a	n/a	n/a	4	[0, 0, 0]	-999	PAL1	0	R1149N
570.241	0.188	1153912	REC_EVENT	4829	4	6	CLOUD	<>	CLOUD	SAIL	4	[0, 0, 0]	-999	PAL1	0	R1149N
570.429	2.512	1154100	REC_END	n/a	4	-999	n/a	n/a	n/a	n/a	4	[0, 0, 0]	-999	PAL1	0	R1149N
572.941	10.439	1156612	ENCODING_START	n/a	0	-999	n/a	n/a	n/a	n/a	5	[0, 0, 0]	-999	PAL1	0	R1149N
583.38	1.017	1167051	STUDY_ORIENT	n/a	1	1	CHIN	CUBE	CHIN	CUBE	5	[0, 0, 0]	-999	PAL1	0	R1149N
584.397	5.034	1168068	STUDY_PAIR	n/a	1	1	CHIN	CUBE	CHIN	CUBE	5	[0, 0, 0]	-999	PAL1	0	R1149N
589.431	0.783	1173102	STUDY_ORIENT	n/a	2	6	BALL	n/a	PANTS	BALL	5	[0, 0, 0]	-999	PAL1	0	R1149N
590.214	5.034	1173885	STUDY_PAIR	n/a	2	6	BALL	n/a	PANTS	BALL	5	[0, 0, 0]	-999	PAL1	0	R1149N
595.248	0.849	1178919	STUDY_ORIENT	n/a	3	5	PLANE	n/a	THREAD	PLANE	5	[0, 0, 0]	-999	PAL1	0	R1149N
596.097	5.034	1179768	STUDY_PAIR	n/a	3	5	PLANE	n/a	THREAD	PLANE	5	[0, 0, 0]	-999	PAL1	0	R1149N
601.131	0.95	1184802	STUDY_ORIENT	n/a	4	4	EEL	REEL	EEL	GLOVE	5	[0, 0, 0]	-999	PAL1	0	R1149N
602.081	5.034	1185752	STUDY_PAIR	n/a	4	4	EEL	REEL	EEL	GLOVE	5	[0, 0, 0]	-999	PAL1	0	R1149N
607.115	0.9	1190786	STUDY_ORIENT	n/a	5	3	FROG	n/a	GOAT	FROG	5	[0, 0, 0]	-999	PAL1	0	R1149N
608.015	5.034	1191686	STUDY_PAIR	n/a	5	3	FROG	n/a	GOAT	FROG	5	[0, 0, 0]	-999	PAL1	0	R1149N
613.049	0.934	1196720	STUDY_ORIENT	n/a	6	2	BLOOM	n/a	BLOOM	BRANCH	5	[0, 0, 0]	-999	PAL1	0	R1149N
613.983	4.001	1197654	STUDY_PAIR	n/a	6	2	BLOOM	n/a	BLOOM	BRANCH	5	[0, 0, 0]	-999	PAL1	0	R1149N
617.984	1.0	1201655	START	n/a	-999	-999	n/a	n/a	n/a	n/a	5	[-999, -999, -999]	-999	PAL1	0	R1149N
618.984	0.017	1202655	MATH_START	n/a	-999	-999	n/a	n/a	n/a	n/a	5	[0, 0, 0]	-999	PAL1	0	R1149N
619.001	10.067	1202672	PROB	10032	-999	-999	n/a	n/a	n/a	n/a	5	[9, 7, 8]	24	PAL1	0	R1149N
629.068	4.501	1212740	PROB	4477	-999	-999	n/a	n/a	n/a	n/a	5	[7, 5, 2]	14	PAL1	0	R1149N
633.569	4.439	1217241	PROB	4439	-999	-999	n/a	n/a	n/a	n/a	5	[9, 3, 9]	21	PAL1	0	R1149N
638.008	0.01	1221680	STOP	n/a	-999	-999	n/a	n/a	n/a	n/a	5	[-999, -999, -999]	-999	PAL1	0	R1149N
638.018	0.0	1221690	MATH_END	n/a	-999	-999	n/a	n/a	n/a	n/a	5	[0, 0, 0]	-999	PAL1	0	R1149N
638.018	0.017	1221690	TEST_START	n/a	-999	-999	n/a	n/a	n/a	n/a	5	[0, 0, 0]	-999	PAL1	0	R1149N
638.035	0.818	1221707	TEST_ORIENT	n/a	1	1	CHIN	CUBE	CHIN	CUBE	5	[0, 0, 0]	-999	PAL1	0	R1149N
638.853	0.0	1222525	TEST_PROBE	n/a	1	1	CHIN	CUBE	CHIN	CUBE	5	[0, 0, 0]	-999	PAL1	0	R1149N
638.853	1.394	1222525	REC_START	n/a	1	-999	n/a	CUBE	n/a	n/a	5	[0, 0, 0]	-999	PAL1	0	R1149N
640.247	3.623	1223919	REC_EVENT	1394	1	1	CHIN	CUBE	CHIN	CUBE	5	[0, 0, 0]	-999	PAL1	0	R1149N
643.87	0.017	1227542	REC_END	n/a	1	-999	n/a	n/a	n/a	n/a	5	[0, 0, 0]	-999	PAL1	0	R1149N
643.887	0.966	1227559	TEST_ORIENT	n/a	6	2	BLOOM	n/a	BLOOM	BRANCH	5	[0, 0, 0]	-999	PAL1	0	R1149N
644.853	0.001	1228525	TEST_PROBE	n/a	6	2	BLOOM	n/a	BLOOM	BRANCH	5	[0, 0, 0]	-999	PAL1	0	R1149N
644.854	5.008	1228526	REC_START	n/a	6	-999	n/a	n/a	n/a	n/a	5	[0, 0, 0]	-999	PAL1	0	R1149N
649.862	0.009	1233534	REC_END	n/a	6	-999	n/a	n/a	n/a	n/a	5	[0, 0, 0]	-999	PAL1	0	R1149N
649.871	0.883	1233543	TEST_ORIENT	n/a	5	3	FROG	n/a	GOAT	FROG	5	[0, 0, 0]	-999	PAL1	0	R1149N
650.754	0.001	1234426	TEST_PROBE	n/a	5	3	FROG	n/a	GOAT	FROG	5	[0, 0, 0]	-999	PAL1	0	R1149N
650.755	4.971	1234427	REC_START	n/a	5	-999	n/a	n/a	n/a	n/a	5	[0, 0, 0]	-999	PAL1	0	R1149N
655.726	0.053	1239398	REC_EVENT	4971	5	3	FROG	<>	GOAT	FROG	5	[0, 0, 0]	-999	PAL1	0	R1149N
655.779	0.009	1239451	REC_END	n/a	5	-999	n/a	n/a	n/a	n/a	5	[0, 0, 0]	-999	PAL1	0	R1149N
655.788	0.967	1239460	TEST_ORIENT	n/a	4	4	EEL	REEL	EEL	GLOVE	5	[0, 0, 0]	-999	PAL1	0	R1149N
656.755	0.0	1240427	TEST_PROBE	n/a	4	4	EEL	REEL	EEL	GLOVE	5	[0, 0, 0]	-999	PAL1	0	R1149N
656.755	3.2	1240427	REC_START	n/a	4	-999	n/a	REEL	n/a	n/a	5	[0, 0, 0]	-999	PAL1	0	R1149N
659.955	1.825	1243627	REC_EVENT	3200	4	4	EEL	REEL	EEL	GLOVE	5	[0, 0, 0]	-999	PAL1	0	R1149N
661.78	0.009	1245452	REC_END	n/a	4	-999	n/a	n/a	n/a	n/a	5	[0, 0, 0]	-999	PAL1	0	R1149N
661.789	0.816	1245461	TEST_ORIENT	n/a	3	5	PLANE	n/a	THREAD	PLANE	5	[0, 0, 0]	-999	PAL1	0	R1149N
662.605	0.001	1246277	TEST_PROBE	n/a	3	5	PLANE	n/a	THREAD	PLANE	5	[0, 0, 0]	-999	PAL1	0	R1149N
662.606	4.965	1246278	REC_START	n/a	3	-999	n/a	n/a	n/a	n/a	5	[0, 0, 0]	-999	PAL1	0	R1149N
667.571	0.051	1251243	REC_EVENT	4965	3	5	PLANE	<>	THREAD	PLANE	5	[0, 0, 0]	-999	PAL1	0	R1149N
667.622	0.017	1251294	REC_END	n/a	3	-999	n/a	n/a	n/a	n/a	5	[0, 0, 0]	-999	PAL1	0	R1149N
667.639	0.817	1251311	TEST_ORIENT	n/a	2	6	BALL	n/a	PANTS	BALL	5	[0, 0, 0]	-999	PAL1	0	R1149N
668.456	0.0	1252128	TEST_PROBE	n/a	2	6	BALL	n/a	PANTS	BALL	5	[0, 0, 0]	-999	PAL1	0	R1149N
668.456	4.922	1252128	REC_START	n/a	2	-999	n/a	n/a	n/a	n/a	5	[0, 0, 0]	-999	PAL1	0	R1149N
673.378	0.095	1257050	REC_EVENT	4922	2	6	BALL	<>	PANTS	BALL	5	[0, 0, 0]	-999	PAL1	0	R1149N
673.473	2.454	1257145	REC_END	n/a	2	-999	n/a	n/a	n/a	n/a	5	[0, 0, 0]	-999	PAL1	0	R1149N
675.927	10.448	1259599	ENCODING_START	n/a	0	-999	n/a	n/a	n/a	n/a	6	[0, 0, 0]	-999	PAL1	0	R1149N
686.375	1.0	1270047	STUDY_ORIENT	n/a	1	1	BIRD	TROT	WAND	BIRD	6	[0, 0, 0]	-999	PAL1	0	R1149N
687.375	5.034	1271047	STUDY_PAIR	n/a	1	1	BIRD	TROT	WAND	BIRD	6	[0, 0, 0]	-999	PAL1	0	R1149N
692.409	0.85	1276081	STUDY_ORIENT	n/a	2	2	SEA	CREAM	APE	SEA	6	[0, 0, 0]	-999	PAL1	0	R1149N
693.259	5.033	1276931	STUDY_PAIR	n/a	2	2	SEA	CREAM	APE	SEA	6	[0, 0, 0]	-999	PAL1	0	R1149N
698.292	0.816	1281964	STUDY_ORIENT	n/a	3	3	BRICK	n/a	SCHOOL	BRICK	6	[0, 0, 0]	-999	PAL1	0	R1149N
699.108	5.034	1282780	STUDY_PAIR	n/a	3	3	BRICK	n/a	SCHOOL	BRICK	6	[0, 0, 0]	-999	PAL1	0	R1149N
704.142	0.95	1287814	STUDY_ORIENT	n/a	4	6	FLAME	n/a	FLAME	CART	6	[0, 0, 0]	-999	PAL1	0	R1149N
705.092	5.034	1288764	STUDY_PAIR	n/a	4	6	FLAME	n/a	FLAME	CART	6	[0, 0, 0]	-999	PAL1	0	R1149N
710.126	0.785	1293798	STUDY_ORIENT	n/a	5	5	BAG	n/a	BAG	POOL	6	[0, 0, 0]	-999	PAL1	0	R1149N
710.911	5.033	1294583	STUDY_PAIR	n/a	5	5	BAG	n/a	BAG	POOL	6	[0, 0, 0]	-999	PAL1	0	R1149N
715.944	0.884	1299616	STUDY_ORIENT	n/a	6	4	FLOOR	MOCK	FILM	FLOOR	6	[0, 0, 0]	-999	PAL1	0	R1149N
716.828	4.017	1300500	STUDY_PAIR	n/a	6	4	FLOOR	MOCK	FILM	FLOOR	6	[0, 0, 0]	-999	PAL1	0	R1149N
720.845	1.0	1304517	START	n/a	-999	-999	n/a	n/a	n/a	n/a	6	[-999, -999, -999]	-999	PAL1	0	R1149N
721.845	0.017	1305517	MATH_START	n/a	-999	-999	n/a	n/a	n/a	n/a	6	[0, 0, 0]	-999	PAL1	0	R1149N
721.862	6.65	1305534	PROB	6629	-999	-999	n/a	n/a	n/a	n/a	6	[7, 2, 4]	13	PAL1	0	R1149N
728.512	7.201	1312184	PROB	7179	-999	-999	n/a	n/a	n/a	n/a	6	[6, 7, 5]	18	PAL1	0	R1149N
735.713	8.561	1319385	PROB	8561	-999	-999	n/a	n/a	n/a	n/a	6	[1, 7, 3]	11	PAL1	0	R1149N
744.274	0.007	1327946	STOP	n/a	-999	-999	n/a	n/a	n/a	n/a	6	[-999, -999, -999]	-999	PAL1	0	R1149N
744.281	0.0	1327953	MATH_END	n/a	-999	-999	n/a	n/a	n/a	n/a	6	[0, 0, 0]	-999	PAL1	0	R1149N
744.281	0.016	1327953	TEST_START	n/a	-999	-999	n/a	n/a	n/a	n/a	6	[0, 0, 0]	-999	PAL1	0	R1149N
744.297	0.833	1327969	TEST_ORIENT	n/a	1	1	BIRD	TROT	WAND	BIRD	6	[0, 0, 0]	-999	PAL1	0	R1149N
745.13	0.0	1328802	TEST_PROBE	n/a	1	1	BIRD	TROT	WAND	BIRD	6	[0, 0, 0]	-999	PAL1	0	R1149N
745.13	3.081	1328802	REC_START	n/a	1	-999	n/a	TROT	n/a	n/a	6	[0, 0, 0]	-999	PAL1	0	R1149N
748.211	1.936	1331883	REC_EVENT	3081	1	1	BIRD	TROT	WAND	BIRD	6	[0, 0, 0]	-999	PAL1	0	R1149N
750.147	0.017	1333819	REC_END	n/a	1	-999	n/a	n/a	n/a	n/a	6	[0, 0, 0]	-999	PAL1	0	R1149N
750.164	0.817	1333836	TEST_ORIENT	n/a	2	2	SEA	CREAM	APE	SEA	6	[0, 0, 0]	-999	PAL1	0	R1149N
750.981	0.001	1334653	TEST_PROBE	n/a	2	2	SEA	CREAM	APE	SEA	6	[0, 0, 0]	-999	PAL1	0	R1149N
750.982	3.909	1334654	REC_START	n/a	2	-999	n/a	CREAM	n/a	n/a	6	[0, 0, 0]	-999	PAL1	0	R1149N
754.891	1.099	1338563	REC_EVENT	3909	2	2	SEA	CREAM	APE	SEA	6	[0, 0, 0]	-999	PAL1	0	R1149N
755.99	0.009	1339662	REC_END	n/a	2	-999	n/a	n/a	n/a	n/a	6	[0, 0, 0]	-999	PAL1	0	R1149N
755.999	0.966	1339671	TEST_ORIENT	n/a	3	3	BRICK	n/a	SCHOOL	BRICK	6	[0, 0, 0]	-999	PAL1	0	R1149N
756.965	0.001	1340637	TEST_PROBE	n/a	3	3	BRICK	n/a	SCHOOL	BRICK	6	[0, 0, 0]	-999	PAL1	0	R1149N
756.966	4.852	1340638	REC_START	n/a	3	-999	n/a	n/a	n/a	n/a	6	[0, 0, 0]	-999	PAL1	0	R1149N
761.818	0.164	1345491	REC_EVENT	4852	3	3	BRICK	<>	SCHOOL	BRICK	6	[0, 0, 0]	-999	PAL1	0	R1149N
761.982	0.017	1345655	REC_END	n/a	3	-999	n/a	n/a	n/a	n/a	6	[0, 0, 0]	-999	PAL1	0	R1149N
761.999	0.834	1345672	TEST_ORIENT	n/a	6	4	FLOOR	MOCK	FILM	FLOOR	6	[0, 0, 0]	-999	PAL1	0	R1149N
762.833	0.0	1346506	TEST_PROBE	n/a	6	4	FLOOR	MOCK	FILM	FLOOR	6	[0, 0, 0]	-999	PAL1	0	R1149N
762.833	2.951	1346506	REC_START	n/a	6	-999	n/a	MOCK	n/a	n/a	6	[0, 0, 0]	-999	PAL1	0	R1149N
765.784	2.066	1349457	REC_EVENT	2951	6	4	FLOOR	MOCK	FILM	FLOOR	6	[0, 0, 0]	-999	PAL1	0	R1149N
767.85	0.017	1351523	REC_END	n/a	6	-999	n/a	n/a	n/a	n/a	6	[0, 0, 0]	-999	PAL1	0	R1149N
767.867	0.933	1351540	TEST_ORIENT	n/a	5	5	BAG	n/a	BAG	POOL	6	[0, 0, 0]	-999	PAL1	0	R1149N
768.8	0.0	1352473	TEST_PROBE	n/a	5	5	BAG	n/a	BAG	POOL	6	[0, 0, 0]	-999	PAL1	0	R1149N
768.8	4.736	1352473	REC_START	n/a	5	-999	n/a	n/a	n/a	n/a	6	[0, 0, 0]	-999	PAL1	0	R1149N
773.536	0.281	1357209	REC_EVENT	4736	5	5	BAG	<>	BAG	POOL	6	[0, 0, 0]	-999	PAL1	0	R1149N
773.817	0.017	1357490	REC_END	n/a	5	-999	n/a	n/a	n/a	n/a	6	[0, 0, 0]	-999	PAL1	0	R1149N
773.834	0.883	1357507	TEST_ORIENT	n/a	4	6	FLAME	n/a	FLAME	CART	6	[0, 0, 0]	-999	PAL1	0	R1149N
774.717	0.001	1358390	TEST_PROBE	n/a	4	6	FLAME	n/a	FLAME	CART	6	[0, 0, 0]	-999	PAL1	0	R1149N
774.718	4.876	1358391	REC_START	n/a	4	-999	n/a	n/a	n/a	n/a	6	[0, 0, 0]	-999	PAL1	0	R1149N
779.594	0.14	1363267	REC_EVENT	4876	4	6	FLAME	<>	FLAME	CART	6	[0, 0, 0]	-999	PAL1	0	R1149N
779.734	2.138	1363407	REC_END	n/a	4	-999	n/a	n/a	n/a	n/a	6	[0, 0, 0]	-999	PAL1	0	R1149N
781.872	10.447	1365545	ENCODING_START	n/a	0	-999	n/a	n/a	n/a	n/a	7	[0, 0, 0]	-999	PAL1	0	R1149N
792.319	0.849	1375992	STUDY_ORIENT	n/a	1	5	SHIELD	n/a	SHIELD	DOLL	7	[0, 0, 0]	-999	PAL1	0	R1149N
793.168	5.035	1376841	STUDY_PAIR	n/a	1	5	SHIELD	n/a	SHIELD	DOLL	7	[0, 0, 0]	-999	PAL1	0	R1149N
798.203	0.849	1381876	STUDY_ORIENT	n/a	2	4	CAGE	n/a	CAGE	NEST	7	[0, 0, 0]	-999	PAL1	0	R1149N
799.052	5.034	1382725	STUDY_PAIR	n/a	2	4	CAGE	n/a	CAGE	NEST	7	[0, 0, 0]	-999	PAL1	0	R1149N
804.086	0.95	1387759	STUDY_ORIENT	n/a	3	1	PIPE	GATE	PIPE	ARK	7	[0, 0, 0]	-999	PAL1	0	R1149N
805.036	5.034	1388709	STUDY_PAIR	n/a	3	1	PIPE	GATE	PIPE	ARK	7	[0, 0, 0]	-999	PAL1	0	R1149N
810.07	0.983	1393743	STUDY_ORIENT	n/a	4	6	MAZE	TOP	LIP	MAZE	7	[0, 0, 0]	-999	PAL1	0	R1149N
811.053	5.018	1394726	STUDY_PAIR	n/a	4	6	MAZE	TOP	LIP	MAZE	7	[0, 0, 0]	-999	PAL1	0	R1149N
816.071	1.0	1399744	STUDY_ORIENT	n/a	5	3	BOMB	NEST	BOMB	MAT	7	[0, 0, 0]	-999	PAL1	0	R1149N
817.071	5.034	1400744	STUDY_PAIR	n/a	5	3	BOMB	NEST	BOMB	MAT	7	[0, 0, 0]	-999	PAL1	0	R1149N
822.105	0.999	1405778	STUDY_ORIENT	n/a	6	2	FACE	SONG	FACE	GATE	7	[0, 0, 0]	-999	PAL1	0	R1149N
823.104	4.001	1406777	STUDY_PAIR	n/a	6	2	FACE	SONG	FACE	GATE	7	[0, 0, 0]	-999	PAL1	0	R1149N
827.105	1.0	1410778	START	n/a	-999	-999	n/a	n/a	n/a	n/a	7	[-999, -999, -999]	-999	PAL1	0	R1149N
828.105	0.017	1411778	MATH_START	n/a	-999	-999	n/a	n/a	n/a	n/a	7	[0, 0, 0]	-999	PAL1	0	R1149N
828.122	3.268	1411795	PROB	3235	-999	-999	n/a	n/a	n/a	n/a	7	[6, 6, 2]	14	PAL1	0	R1149N
831.39	5.951	1415063	PROB	5918	-999	-999	n/a	n/a	n/a	n/a	7	[5, 9, 4]	18	PAL1	0	R1149N
837.341	8.317	1421014	PROB	8287	-999	-999	n/a	n/a	n/a	n/a	7	[3, 7, 6]	16	PAL1	0	R1149N
845.658	6.745	1429331	PROB	6745	-999	-999	n/a	n/a	n/a	n/a	7	[6, 3, 7]	16	PAL1	0	R1149N
852.403	0.006	1436076	STOP	n/a	-999	-999	n/a	n/a	n/a	n/a	7	[-999, -999, -999]	-999	PAL1	0	R1149N
852.409	0.0	1436082	MATH_END	n/a	-999	-999	n/a	n/a	n/a	n/a	7	[0, 0, 0]	-999	PAL1	0	R1149N
852.409	0.016	1436082	TEST_START	n/a	-999	-999	n/a	n/a	n/a	n/a	7	[0, 0, 0]	-999	PAL1	0	R1149N
852.425	0.917	1436098	TEST_ORIENT	n/a	3	1	PIPE	GATE	PIPE	ARK	7	[0, 0, 0]	-999	PAL1	0	R1149N
853.342	0.001	1437015	TEST_PROBE	n/a	3	1	PIPE	GATE	PIPE	ARK	7	[0, 0, 0]	-999	PAL1	0	R1149N
853.343	1.915	1437016	REC_START	n/a	3	-999	n/a	GATE	n/a	n/a	7	[0, 0, 0]	-999	PAL1	0	R1149N
855.258	0.177	1438931	REC_EVENT	1915	3	1	PIPE	THE	PIPE	ARK	7	[0, 0, 0]	-999	PAL1	0	R1149N
855.435	2.932	1439108	REC_EVENT	2092	3	1	PIPE	GATE	PIPE	ARK	7	[0, 0, 0]	-999	PAL1	0	R1149N
858.367	0.009	1442040	REC_END	n/a	3	-999	n/a	n/a	n/a	n/a	7	[0, 0, 0]	-999	PAL1	0	R1149N
858.376	1.017	1442049	TEST_ORIENT	n/a	6	2	FACE	SONG	FACE	GATE	7	[0, 0, 0]	-999	PAL1	0	R1149N
859.393	0.0	1443066	TEST_PROBE	n/a	6	2	FACE	SONG	FACE	GATE	7	[0, 0, 0]	-999	PAL1	0	R1149N
859.393	3.665	1443066	REC_START	n/a	6	-999	n/a	SONG	n/a	n/a	7	[0, 0, 0]	-999	PAL1	0	R1149N
863.058	1.352	1446731	REC_EVENT	3665	6	2	FACE	SONG	FACE	GATE	7	[0, 0, 0]	-999	PAL1	0	R1149N
864.41	0.017	1448083	REC_END	n/a	6	-999	n/a	n/a	n/a	n/a	7	[0, 0, 0]	-999	PAL1	0	R1149N
864.427	1.0	1448100	TEST_ORIENT	n/a	5	3	BOMB	NEST	BOMB	MAT	7	[0, 0, 0]	-999	PAL1	0	R1149N
865.427	0.0	1449100	TEST_PROBE	n/a	5	3	BOMB	NEST	BOMB	MAT	7	[0, 0, 0]	-999	PAL1	0	R1149N
865.427	2.767	1449100	REC_START	n/a	5	-999	n/a	NEST	n/a	n/a	7	[0, 0, 0]	-999	PAL1	0	R1149N
868.194	2.25	1451867	REC_EVENT	2767	5	3	BOMB	NEST	BOMB	MAT	7	[0, 0, 0]	-999	PAL1	0	R1149N
870.444	0.017	1454117	REC_END	n/a	5	-999	n/a	n/a	n/a	n/a	7	[0, 0, 0]	-999	PAL1	0	R1149N
870.461	0.933	1454134	TEST_ORIENT	n/a	2	4	CAGE	n/a	CAGE	NEST	7	[0, 0, 0]	-999	PAL1	0	R1149N
871.394	0.001	1455067	TEST_PROBE	n/a	2	4	CAGE	n/a	CAGE	NEST	7	[0, 0, 0]	-999	PAL1	0	R1149N
871.395	4.746	1455068	REC_START	n/a	2	-999	n/a	n/a	n/a	n/a	7	[0, 0, 0]	-999	PAL1	0	R1149N
876.141	0.278	1459814	REC_EVENT	4746	2	4	CAGE	<>	CAGE	NEST	7	[0, 0, 0]	-999	PAL1	0	R1149N
876.419	0.009	1460092	REC_END	n/a	2	-999	n/a	n/a	n/a	n/a	7	[0, 0, 0]	-999	PAL1	0	R1149N
876.428	0.884	1460101	TEST_ORIENT	n/a	1	5	SHIELD	n/a	SHIELD	DOLL	7	[0, 0, 0]	-999	PAL1	0	R1149N
877.312	0.0	1460985	REC_START	n/a	1	-999	n/a	n/a	n/a	n/a	7	[0, 0, 0]	-999	PAL1	0	R1149N
877.312	4.76	1460985	TEST_PROBE	n/a	1	5	SHIELD	n/a	SHIELD	DOLL	7	[0, 0, 0]	-999	PAL1	0	R1149N
882.072	0.257	1465745	REC_EVENT	4760	1	5	SHIELD	<>	SHIELD	DOLL	7	[0, 0, 0]	-999	PAL1	0	R1149N
882.329	0.016	1466002	REC_END	n/a	1	-999	n/a	n/a	n/a	n/a	7	[0, 0, 0]	-999	PAL1	0	R1149N
882.345	0.834	1466018	TEST_ORIENT	n/a	4	6	MAZE	TOP	LIP	MAZE	7	[0, 0, 0]	-999	PAL1	0	R1149N
883.179	0.001	1466852	TEST_PROBE	n/a	4	6	MAZE	TOP	LIP	MAZE	7	[0, 0, 0]	-999	PAL1	0	R1149N
883.18	2.981	1466853	REC_START	n/a	4	-999	n/a	TOP	n/a	n/a	7	[0, 0, 0]	-999	PAL1	0	R1149N
886.161	2.043	1469834	REC_EVENT	2981	4	6	MAZE	TOP	LIP	MAZE	7	[0, 0, 0]	-999	PAL1	0	R1149N
888.204	2.133	1471877	REC_END	n/a	4	-999	n/a	n/a	n/a	n/a	7	[0, 0, 0]	-999	PAL1	0	R1149N
890.337	10.444	1474011	ENCODING_START	n/a	0	-999	n/a	n/a	n/a	n/a	8	[0, 0, 0]	-999	PAL1	0	R1149N
900.781	0.783	1484455	STUDY_ORIENT	n/a	1	1	FOOT	BEAR	FOOT	BEAR	8	[0, 0, 0]	-999	PAL1	0	R1149N
901.564	5.034	1485238	STUDY_PAIR	n/a	1	1	FOOT	BEAR	FOOT	BEAR	8	[0, 0, 0]	-999	PAL1	0	R1149N
906.598	0.966	1490272	STUDY_ORIENT	n/a	2	6	MUD	WIG	MUD	WING	8	[0, 0, 0]	-999	PAL1	0	R1149N
907.564	5.035	1491238	STUDY_PAIR	n/a	2	6	MUD	WIG	MUD	WING	8	[0, 0, 0]	-999	PAL1	0	R1149N
912.599	0.9	1496273	STUDY_ORIENT	n/a	3	5	OAR	n/a	OAR	BAND	8	[0, 0, 0]	-999	PAL1	0	R1149N
913.499	5.033	1497173	STUDY_PAIR	n/a	3	5	OAR	n/a	OAR	BAND	8	[0, 0, 0]	-999	PAL1	0	R1149N
918.532	0.851	1502206	STUDY_ORIENT	n/a	4	2	STREET	FLOP	TRUCK	STREET	8	[0, 0, 0]	-999	PAL1	0	R1149N
919.383	5.034	1503057	STUDY_PAIR	n/a	4	2	STREET	FLOP	TRUCK	STREET	8	[0, 0, 0]	-999	PAL1	0	R1149N
924.417	0.799	1508091	STUDY_ORIENT	n/a	5	3	RAKE	SNAKE	RAKE	SPOON	8	[0, 0, 0]	-999	PAL1	0	R1149N
925.216	5.018	1508890	STUDY_PAIR	n/a	5	3	RAKE	SNAKE	RAKE	SPOON	8	[0, 0, 0]	-999	PAL1	0	R1149N
930.234	0.966	1513908	STUDY_ORIENT	n/a	6	4	THUMB	n/a	THUMB	TOOL	8	[0, 0, 0]	-999	PAL1	0	R1149N
931.2	4.001	1514874	STUDY_PAIR	n/a	6	4	THUMB	n/a	THUMB	TOOL	8	[0, 0, 0]	-999	PAL1	0	R1149N
935.201	1.0	1518875	START	n/a	-999	-999	n/a	n/a	n/a	n/a	8	[-999, -999, -999]	-999	PAL1	0	R1149N
936.201	0.017	1519875	MATH_START	n/a	-999	-999	n/a	n/a	n/a	n/a	8	[0, 0, 0]	-999	PAL1	0	R1149N
936.218	4.05	1519892	PROB	4028	-999	-999	n/a	n/a	n/a	n/a	8	[2, 1, 3]	6	PAL1	0	R1149N
940.268	6.684	1523942	PROB	6649	-999	-999	n/a	n/a	n/a	n/a	8	[9, 1, 9]	19	PAL1	0	R1149N
946.952	8.453	1530626	PROB	8453	-999	-999	n/a	n/a	n/a	n/a	8	[8, 9, 4]	21	PAL1	0	R1149N
955.405	0.015	1539079	STOP	n/a	-999	-999	n/a	n/a	n/a	n/a	8	[-999, -999, -999]	-999	PAL1	0	R1149N
955.42	0.0	1539094	MATH_END	n/a	-999	-999	n/a	n/a	n/a	n/a	8	[0, 0, 0]	-999	PAL1	0	R1149N
955.42	0.016	1539094	TEST_START	n/a	-999	-999	n/a	n/a	n/a	n/a	8	[0, 0, 0]	-999	PAL1	0	R1149N
955.436	0.917	1539110	TEST_ORIENT	n/a	1	1	FOOT	BEAR	FOOT	BEAR	8	[0, 0, 0]	-999	PAL1	0	R1149N
956.353	0.001	1540027	TEST_PROBE	n/a	1	1	FOOT	BEAR	FOOT	BEAR	8	[0, 0, 0]	-999	PAL1	0	R1149N
956.354	1.983	1540028	REC_START	n/a	1	-999	n/a	BEAR	n/a	n/a	8	[0, 0, 0]	-999	PAL1	0	R1149N
958.337	3.033	1542011	REC_EVENT	1983	1	1	FOOT	BEAR	FOOT	BEAR	8	[0, 0, 0]	-999	PAL1	0	R1149N
961.37	0.017	1545044	REC_END	n/a	1	-999	n/a	n/a	n/a	n/a	8	[0, 0, 0]	-999	PAL1	0	R1149N
961.387	0.884	1545061	TEST_ORIENT	n/a	4	2	STREET	FLOP	TRUCK	STREET	8	[0, 0, 0]	-999	PAL1	0	R1149N
962.271	0.0	1545945	TEST_PROBE	n/a	4	2	STREET	FLOP	TRUCK	STREET	8	[0, 0, 0]	-999	PAL1	0	R1149N
962.271	2.324	1545945	REC_START	n/a	4	-999	n/a	FLOP	n/a	n/a	8	[0, 0, 0]	-999	PAL1	0	R1149N
964.595	2.693	1548269	REC_EVENT	2324	4	2	STREET	FLOP	TRUCK	STREET	8	[0, 0, 0]	-999	PAL1	0	R1149N
967.288	0.016	1550962	REC_END	n/a	4	-999	n/a	n/a	n/a	n/a	8	[0, 0, 0]	-999	PAL1	0	R1149N
967.304	0.917	1550978	TEST_ORIENT	n/a	5	3	RAKE	SNAKE	RAKE	SPOON	8	[0, 0, 0]	-999	PAL1	0	R1149N
968.221	0.001	1551895	TEST_PROBE	n/a	5	3	RAKE	SNAKE	RAKE	SPOON	8	[0, 0, 0]	-999	PAL1	0	R1149N
968.222	3.569	1551896	REC_START	n/a	5	-999	n/a	SNAKE	n/a	n/a	8	[0, 0, 0]	-999	PAL1	0	R1149N
971.791	1.455	1555465	REC_EVENT	3569	5	3	RAKE	SNAKE	RAKE	SPOON	8	[0, 0, 0]	-999	PAL1	0	R1149N
973.246	0.009	1556920	REC_END	n/a	5	-999	n/a	n/a	n/a	n/a	8	[0, 0, 0]	-999	PAL1	0	R1149N
973.255	0.95	1556929	TEST_ORIENT	n/a	6	4	THUMB	n/a	THUMB	TOOL	8	[0, 0, 0]	-999	PAL1	0	R1149N
974.205	0.001	1557879	TEST_PROBE	n/a	6	4	THUMB	n/a	THUMB	TOOL	8	[0, 0, 0]	-999	PAL1	0	R1149N
974.206	4.876	1557880	REC_START	n/a	6	-999	n/a	n/a	n/a	n/a	8	[0, 0, 0]	-999	PAL1	0	R1149N
979.082	0.148	1562756	REC_EVENT	4876	6	4	THUMB	<>	THUMB	TOOL	8	[0, 0, 0]	-999	PAL1	0	R1149N
979.23	0.009	1562904	REC_END	n/a	6	-999	n/a	n/a	n/a	n/a	8	[0, 0, 0]	-999	PAL1	0	R1149N
979.239	0.866	1562913	TEST_ORIENT	n/a	3	5	OAR	n/a	OAR	BAND	8	[0, 0, 0]	-999	PAL1	0	R1149N
980.105	0.0	1563779	REC_START	n/a	3	-999	n/a	n/a	n/a	n/a	8	[0, 0, 0]	-999	PAL1	0	R1149N
980.105	4.945	1563779	TEST_PROBE	n/a	3	5	OAR	n/a	OAR	BAND	8	[0, 0, 0]	-999	PAL1	0	R1149N
985.05	0.072	1568724	REC_EVENT	4945	3	5	OAR	<>	OAR	BAND	8	[0, 0, 0]	-999	PAL1	0	R1149N
985.122	0.017	1568796	REC_END	n/a	3	-999	n/a	n/a	n/a	n/a	8	[0, 0, 0]	-999	PAL1	0	R1149N
985.139	1.033	1568813	TEST_ORIENT	n/a	2	6	MUD	WIG	MUD	WING	8	[0, 0, 0]	-999	PAL1	0	R1149N
986.172	0.002	1569846	TEST_PROBE	n/a	2	6	MUD	WIG	MUD	WING	8	[0, 0, 0]	-999	PAL1	0	R1149N
986.174	3.24	1569848	REC_START	n/a	2	-999	n/a	WIG	n/a	n/a	8	[0, 0, 0]	-999	PAL1	0	R1149N
989.414	1.784	1573088	REC_EVENT	3240	2	6	MUD	WIG	MUD	WING	8	[0, 0, 0]	-999	PAL1	0	R1149N
991.198	1.907	1574872	REC_END	n/a	2	-999	n/a	n/a	n/a	n/a	8	[0, 0, 0]	-999	PAL1	0	R1149N
993.105	10.453	1576779	ENCODING_START	n/a	0	-999	n/a	n/a	n/a	n/a	9	[0, 0, 0]	-999	PAL1	0	R1149N
1003.558	1.017	1587232	STUDY_ORIENT	n/a	1	5	NET	n/a	SEED	NET	9	[0, 0, 0]	-999	PAL1	0	R1149N
1004.575	5.034	1588249	STUDY_PAIR	n/a	1	5	NET	n/a	SEED	NET	9	[0, 0, 0]	-999	PAL1	0	R1149N
1009.609	0.95	1593283	STUDY_ORIENT	n/a	2	2	LAMB	n/a	PURSE	LAMB	9	[0, 0, 0]	-999	PAL1	0	R1149N
1010.559	5.034	1594233	STUDY_PAIR	n/a	2	2	LAMB	n/a	PURSE	LAMB	9	[0, 0, 0]	-999	PAL1	0	R1149N
1015.593	0.8	1599267	STUDY_ORIENT	n/a	3	1	ROPE	SLIP	ROPE	BEAK	9	[0, 0, 0]	-999	PAL1	0	R1149N
1016.393	5.034	1600067	STUDY_PAIR	n/a	3	1	ROPE	SLIP	ROPE	BEAK	9	[0, 0, 0]	-999	PAL1	0	R1149N
1021.427	0.833	1605102	STUDY_ORIENT	n/a	4	4	SQUARE	n/a	SQUARE	ROOM	9	[0, 0, 0]	-999	PAL1	0	R1149N
1022.26	5.034	1605935	STUDY_PAIR	n/a	4	4	SQUARE	n/a	SQUARE	ROOM	9	[0, 0, 0]	-999	PAL1	0	R1149N
1027.294	0.95	1610969	STUDY_ORIENT	n/a	5	3	TEETH	RAKE	FOOD	TEETH	9	[0, 0, 0]	-999	PAL1	0	R1149N
1028.244	5.034	1611919	STUDY_PAIR	n/a	5	3	TEETH	RAKE	FOOD	TEETH	9	[0, 0, 0]	-999	PAL1	0	R1149N
1033.278	0.983	1616953	STUDY_ORIENT	n/a	6	6	CROWN	n/a	BATH	CROWN	9	[0, 0, 0]	-999	PAL1	0	R1149N
1034.261	4.001	1617936	STUDY_PAIR	n/a	6	6	CROWN	n/a	BATH	CROWN	9	[0, 0, 0]	-999	PAL1	0	R1149N
1038.262	1.0	1621937	START	n/a	-999	-999	n/a	n/a	n/a	n/a	9	[-999, -999, -999]	-999	PAL1	0	R1149N
1039.262	0.017	1622937	MATH_START	n/a	-999	-999	n/a	n/a	n/a	n/a	9	[0, 0, 0]	-999	PAL1	0	R1149N
1039.279	6.45	1622954	PROB	6424	-999	-999	n/a	n/a	n/a	n/a	9	[5, 6, 1]	13	PAL1	0	R1149N
1045.729	9.952	1629404	PROB	9925	-999	-999	n/a	n/a	n/a	n/a	9	[7, 7, 8]	22	PAL1	0	R1149N
1055.681	7.348	1639356	PROB	7348	-999	-999	n/a	n/a	n/a	n/a	9	[7, 1, 5]	13	PAL1	0	R1149N
1063.029	0.018	1646704	STOP	n/a	-999	-999	n/a	n/a	n/a	n/a	9	[-999, -999, -999]	-999	PAL1	0	R1149N
1063.047	0.0	1646722	MATH_END	n/a	-999	-999	n/a	n/a	n/a	n/a	9	[0, 0, 0]	-999	PAL1	0	R1149N
1063.047	0.017	1646722	TEST_START	n/a	-999	-999	n/a	n/a	n/a	n/a	9	[0, 0, 0]	-999	PAL1	0	R1149N
1063.064	1.016	1646739	TEST_ORIENT	n/a	3	1	ROPE	SLIP	ROPE	BEAK	9	[0, 0, 0]	-999	PAL1	0	R1149N
1064.08	0.001	1647755	TEST_PROBE	n/a	3	1	ROPE	SLIP	ROPE	BEAK	9	[0, 0, 0]	-999	PAL1	0	R1149N
1064.081	1.778	1647756	REC_START	n/a	3	-999	n/a	SLIP	n/a	n/a	9	[0, 0, 0]	-999	PAL1	0	R1149N
1065.859	3.238	1649534	REC_EVENT	1778	3	1	ROPE	SLIP	ROPE	BEAK	9	[0, 0, 0]	-999	PAL1	0	R1149N
1069.097	0.017	1652772	REC_END	n/a	3	-999	n/a	n/a	n/a	n/a	9	[0, 0, 0]	-999	PAL1	0	R1149N
1069.114	0.95	1652789	TEST_ORIENT	n/a	2	2	LAMB	n/a	PURSE	LAMB	9	[0, 0, 0]	-999	PAL1	0	R1149N
1070.064	0.001	1653739	TEST_PROBE	n/a	2	2	LAMB	n/a	PURSE	LAMB	9	[0, 0, 0]	-999	PAL1	0	R1149N
1070.065	4.899	1653740	REC_START	n/a	2	-999	n/a	n/a	n/a	n/a	9	[0, 0, 0]	-999	PAL1	0	R1149N
1074.964	0.117	1658639	REC_EVENT	4899	2	2	LAMB	<>	PURSE	LAMB	9	[0, 0, 0]	-999	PAL1	0	R1149N
1075.081	0.017	1658756	REC_END	n/a	2	-999	n/a	n/a	n/a	n/a	9	[0, 0, 0]	-999	PAL1	0	R1149N
1075.098	0.868	1658773	TEST_ORIENT	n/a	5	3	TEETH	RAKE	FOOD	TEETH	9	[0, 0, 0]	-999	PAL1	0	R1149N
1075.966	0.0	1659641	REC_START	n/a	5	-999	n/a	RAKE	n/a	n/a	9	[0, 0, 0]	-999	PAL1	0	R1149N
1075.966	3.658	1659641	TEST_PROBE	n/a	5	3	TEETH	RAKE	FOOD	TEETH	9	[0, 0, 0]	-999	PAL1	0	R1149N
1079.624	1.359	1663299	REC_EVENT	3658	5	3	TEETH	RAKE	FOOD	TEETH	9	[0, 0, 0]	-999	PAL1	0	R1149N
1080.983	0.017	1664658	REC_END	n/a	5	-999	n/a	n/a	n/a	n/a	9	[0, 0, 0]	-999	PAL1	0	R1149N
1081.0	0.833	1664675	TEST_ORIENT	n/a	4	4	SQUARE	n/a	SQUARE	ROOM	9	[0, 0, 0]	-999	PAL1	0	R1149N
1081.833	0.001	1665508	TEST_PROBE	n/a	4	4	SQUARE	n/a	SQUARE	ROOM	9	[0, 0, 0]	-999	PAL1	0	R1149N
1081.834	4.852	1665509	REC_START	n/a	4	-999	n/a	n/a	n/a	n/a	9	[0, 0, 0]	-999	PAL1	0	R1149N
1086.686	0.164	1670361	REC_EVENT	4852	4	4	SQUARE	<>	SQUARE	ROOM	9	[0, 0, 0]	-999	PAL1	0	R1149N
1086.85	0.017	1670525	REC_END	n/a	4	-999	n/a	n/a	n/a	n/a	9	[0, 0, 0]	-999	PAL1	0	R1149N
1086.867	0.833	1670542	TEST_ORIENT	n/a	1	5	NET	n/a	SEED	NET	9	[0, 0, 0]	-999	PAL1	0	R1149N
1087.7	0.001	1671375	TEST_PROBE	n/a	1	5	NET	n/a	SEED	NET	9	[0, 0, 0]	-999	PAL1	0	R1149N
1087.701	4.852	1671376	REC_START	n/a	1	-999	n/a	n/a	n/a	n/a	9	[0, 0, 0]	-999	PAL1	0	R1149N
1092.553	0.159	1676228	REC_EVENT	4852	1	5	NET	<>	SEED	NET	9	[0, 0, 0]	-999	PAL1	0	R1149N
1092.712	0.005	1676387	REC_END	n/a	1	-999	n/a	n/a	n/a	n/a	9	[0, 0, 0]	-999	PAL1	0	R1149N
1092.717	0.851	1676392	TEST_ORIENT	n/a	6	6	CROWN	n/a	BATH	CROWN	9	[0, 0, 0]	-999	PAL1	0	R1149N
1093.568	0.0	1677243	TEST_PROBE	n/a	6	6	CROWN	n/a	BATH	CROWN	9	[0, 0, 0]	-999	PAL1	0	R1149N
1093.568	4.707	1677243	REC_START	n/a	6	-999	n/a	n/a	n/a	n/a	9	[0, 0, 0]	-999	PAL1	0	R1149N
1098.275	0.31	1681950	REC_EVENT	4707	6	6	CROWN	<>	BATH	CROWN	9	[0, 0, 0]	-999	PAL1	0	R1149N
1098.585	2.602	1682260	REC_END	n/a	6	-999	n/a	n/a	n/a	n/a	9	[0, 0, 0]	-999	PAL1	0	R1149N
1101.187	10.449	1684862	ENCODING_START	n/a	0	-999	n/a	n/a	n/a	n/a	10	[0, 0, 0]	-999	PAL1	0	R1149N
1111.636	1.0	1695311	STUDY_ORIENT	n/a	1	5	CROW	MOUSE	STAIR	CROW	10	[0, 0, 0]	-999	PAL1	0	R1149N
1112.636	5.018	1696311	STUDY_PAIR	n/a	1	5	CROW	MOUSE	STAIR	CROW	10	[0, 0, 0]	-999	PAL1	0	R1149N
1117.654	0.8	1701329	STUDY_ORIENT	n/a	2	4	SNAKE	n/a	SNAKE	SHEET	10	[0, 0, 0]	-999	PAL1	0	R1149N
1118.454	5.034	1702129	STUDY_PAIR	n/a	2	4	SNAKE	n/a	SNAKE	SHEET	10	[0, 0, 0]	-999	PAL1	0	R1149N
1123.488	0.8	1707163	STUDY_ORIENT	n/a	3	3	DRUM	n/a	BADGE	DRUM	10	[0, 0, 0]	-999	PAL1	0	R1149N
1124.288	5.034	1707963	STUDY_PAIR	n/a	3	3	DRUM	n/a	BADGE	DRUM	10	[0, 0, 0]	-999	PAL1	0	R1149N
1129.322	1.016	1712997	STUDY_ORIENT	n/a	4	2	PIN	WATCH	SMILE	PIN	10	[0, 0, 0]	-999	PAL1	0	R1149N
1130.338	5.034	1714013	STUDY_PAIR	n/a	4	2	PIN	WATCH	SMILE	PIN	10	[0, 0, 0]	-999	PAL1	0	R1149N
1135.372	0.884	1719047	STUDY_ORIENT	n/a	5	1	WEED	WEIGHT	WEED	WHALE	10	[0, 0, 0]	-999	PAL1	0	R1149N
1136.256	5.034	1719931	STUDY_PAIR	n/a	5	1	WEED	WEIGHT	WEED	WHALE	10	[0, 0, 0]	-999	PAL1	0	R1149N
1141.29	0.882	1724965	STUDY_ORIENT	n/a	6	6	OWL	NEST	NOSE	OWL	10	[0, 0, 0]	-999	PAL1	0	R1149N
1142.172	4.019	1725847	STUDY_PAIR	n/a	6	6	OWL	NEST	NOSE	OWL	10	[0, 0, 0]	-999	PAL1	0	R1149N
1146.191	0.999	1729866	START	n/a	-999	-999	n/a	n/a	n/a	n/a	10	[-999, -999, -999]	-999	PAL1	0	R1149N
1147.19	0.017	1730865	MATH_START	n/a	-999	-999	n/a	n/a	n/a	n/a	10	[0, 0, 0]	-999	PAL1	0	R1149N
1147.207	3.534	1730882	PROB	3505	-999	-999	n/a	n/a	n/a	n/a	10	[3, 2, 3]	8	PAL1	0	R1149N
1150.741	3.332	1734417	PROB	3298	-999	-999	n/a	n/a	n/a	n/a	10	[5, 4, 5]	14	PAL1	0	R1149N
1154.073	5.218	1737749	PROB	5191	-999	-999	n/a	n/a	n/a	n/a	10	[8, 6, 8]	22	PAL1	0	R1149N
1159.291	3.618	1742967	PROB	3589	-999	-999	n/a	n/a	n/a	n/a	10	[5, 3, 2]	10	PAL1	0	R1149N
1162.909	4.09	1746585	PROB	4090	-999	-999	n/a	n/a	n/a	n/a	10	[8, 2, 1]	11	PAL1	0	R1149N
1166.999	0.009	1750675	STOP	n/a	-999	-999	n/a	n/a	n/a	n/a	10	[-999, -999, -999]	-999	PAL1	0	R1149N
1167.008	0.0	1750684	MATH_END	n/a	-999	-999	n/a	n/a	n/a	n/a	10	[0, 0, 0]	-999	PAL1	0	R1149N
1167.008	0.017	1750684	TEST_START	n/a	-999	-999	n/a	n/a	n/a	n/a	10	[0, 0, 0]	-999	PAL1	0	R1149N
1167.025	0.917	1750701	TEST_ORIENT	n/a	5	1	WEED	WEIGHT	WEED	WHALE	10	[0, 0, 0]	-999	PAL1	0	R1149N
1167.942	0.001	1751618	TEST_PROBE	n/a	5	1	WEED	WEIGHT	WEED	WHALE	10	[0, 0, 0]	-999	PAL1	0	R1149N
1167.943	1.847	1751619	REC_START	n/a	5	-999	n/a	WEIGHT	n/a	n/a	10	[0, 0, 0]	-999	PAL1	0	R1149N
1169.79	3.169	1753466	REC_EVENT	1847	5	1	WEED	WEIGHT	WEED	WHALE	10	[0, 0, 0]	-999	PAL1	0	R1149N
1172.959	0.017	1756635	REC_END	n/a	5	-999	n/a	n/a	n/a	n/a	10	[0, 0, 0]	-999	PAL1	0	R1149N
1172.976	0.85	1756652	TEST_ORIENT	n/a	4	2	PIN	WATCH	SMILE	PIN	10	[0, 0, 0]	-999	PAL1	0	R1149N
1173.826	0.001	1757502	TEST_PROBE	n/a	4	2	PIN	WATCH	SMILE	PIN	10	[0, 0, 0]	-999	PAL1	0	R1149N
1173.827	2.98	1757503	REC_START	n/a	4	-999	n/a	WATCH	n/a	n/a	10	[0, 0, 0]	-999	PAL1	0	R1149N
1176.807	2.036	1760483	REC_EVENT	2980	4	2	PIN	WATCH	SMILE	PIN	10	[0, 0, 0]	-999	PAL1	0	R1149N
1178.843	0.017	1762519	REC_END	n/a	4	-999	n/a	n/a	n/a	n/a	10	[0, 0, 0]	-999	PAL1	0	R1149N
1178.86	0.884	1762536	TEST_ORIENT	n/a	3	3	DRUM	n/a	BADGE	DRUM	10	[0, 0, 0]	-999	PAL1	0	R1149N
1179.744	0.0	1763420	REC_START	n/a	3	-999	n/a	n/a	n/a	n/a	10	[0, 0, 0]	-999	PAL1	0	R1149N
1179.744	4.945	1763420	TEST_PROBE	n/a	3	3	DRUM	n/a	BADGE	DRUM	10	[0, 0, 0]	-999	PAL1	0	R1149N
1184.689	0.072	1768365	REC_EVENT	4945	3	3	DRUM	<>	BADGE	DRUM	10	[0, 0, 0]	-999	PAL1	0	R1149N
1184.761	0.016	1768437	REC_END	n/a	3	-999	n/a	n/a	n/a	n/a	10	[0, 0, 0]	-999	PAL1	0	R1149N
1184.777	0.851	1768453	TEST_ORIENT	n/a	2	4	SNAKE	n/a	SNAKE	SHEET	10	[0, 0, 0]	-999	PAL1	0	R1149N
1185.628	0.0	1769304	TEST_PROBE	n/a	2	4	SNAKE	n/a	SNAKE	SHEET	10	[0, 0, 0]	-999	PAL1	0	R1149N
1185.628	4.873	1769304	REC_START	n/a	2	-999	n/a	n/a	n/a	n/a	10	[0, 0, 0]	-999	PAL1	0	R1149N
1190.501	0.144	1774177	REC_EVENT	4873	2	4	SNAKE	<>	SNAKE	SHEET	10	[0, 0, 0]	-999	PAL1	0	R1149N
1190.645	0.016	1774321	REC_END	n/a	2	-999	n/a	n/a	n/a	n/a	10	[0, 0, 0]	-999	PAL1	0	R1149N
1190.661	1.001	1774337	TEST_ORIENT	n/a	1	5	CROW	MOUSE	STAIR	CROW	10	[0, 0, 0]	-999	PAL1	0	R1149N
1191.662	0.0	1775338	TEST_PROBE	n/a	1	5	CROW	MOUSE	STAIR	CROW	10	[0, 0, 0]	-999	PAL1	0	R1149N
1191.662	2.806	1775338	REC_START	n/a	1	-999	n/a	MOUSE	n/a	n/a	10	[0, 0, 0]	-999	PAL1	0	R1149N
1194.468	1.31	1778144	REC_EVENT	2806	1	5	CROW	SCALE	STAIR	CROW	10	[0, 0, 0]	-999	PAL1	0	R1149N
1195.778	0.901	1779454	REC_EVENT	4116	1	5	CROW	MOUSE	STAIR	CROW	10	[0, 0, 0]	-999	PAL1	0	R1149N
1196.679	0.016	1780355	REC_END	n/a	1	-999	n/a	n/a	n/a	n/a	10	[0, 0, 0]	-999	PAL1	0	R1149N
1196.695	0.817	1780371	TEST_ORIENT	n/a	6	6	OWL	NEST	NOSE	OWL	10	[0, 0, 0]	-999	PAL1	0	R1149N
1197.512	0.001	1781188	TEST_PROBE	n/a	6	6	OWL	NEST	NOSE	OWL	10	[0, 0, 0]	-999	PAL1	0	R1149N
1197.513	2.336	1781189	REC_START	n/a	6	-999	n/a	NEST	n/a	n/a	10	[0, 0, 0]	-999	PAL1	0	R1149N
1199.849	1.212	1783525	REC_EVENT	2336	6	6	OWL	MEAN	NOSE	OWL	10	[0, 0, 0]	-999	PAL1	0	R1149N
1201.061	1.468	1784737	REC_EVENT	3548	6	6	OWL	NEST	NOSE	OWL	10	[0, 0, 0]	-999	PAL1	0	R1149N
1202.529	2.868	1786205	REC_END	n/a	6	-999	n/a	n/a	n/a	n/a	10	[0, 0, 0]	-999	PAL1	0	R1149N
1205.397	10.45	1789073	ENCODING_START	n/a	0	-999	n/a	n/a	n/a	n/a	11	[0, 0, 0]	-999	PAL1	0	R1149N
1215.847	1.017	1799523	STUDY_ORIENT	n/a	1	5	CAR	STUCK	DESK	CAR	11	[0, 0, 0]	-999	PAL1	0	R1149N
1216.864	5.034	1800540	STUDY_PAIR	n/a	1	5	CAR	STUCK	DESK	CAR	11	[0, 0, 0]	-999	PAL1	0	R1149N
1221.898	0.917	1805574	STUDY_ORIENT	n/a	2	4	PLANT	n/a	SIGN	PLANT	11	[0, 0, 0]	-999	PAL1	0	R1149N
1222.815	5.034	1806491	STUDY_PAIR	n/a	2	4	PLANT	n/a	SIGN	PLANT	11	[0, 0, 0]	-999	PAL1	0	R1149N
1227.849	0.799	1811525	STUDY_ORIENT	n/a	3	1	BOOK	MEAN	HEART	BOOK	11	[0, 0, 0]	-999	PAL1	0	R1149N
1228.648	5.018	1812324	STUDY_PAIR	n/a	3	1	BOOK	MEAN	HEART	BOOK	11	[0, 0, 0]	-999	PAL1	0	R1149N
1233.666	0.983	1817342	STUDY_ORIENT	n/a	4	2	STEAM	n/a	STEAM	BOARD	11	[0, 0, 0]	-999	PAL1	0	R1149N
1234.649	5.018	1818325	STUDY_PAIR	n/a	4	2	STEAM	n/a	STEAM	BOARD	11	[0, 0, 0]	-999	PAL1	0	R1149N
1239.667	0.95	1823343	STUDY_ORIENT	n/a	5	3	STICK	OATS	STICK	TREE	11	[0, 0, 0]	-999	PAL1	0	R1149N
1240.617	5.034	1824293	STUDY_PAIR	n/a	5	3	STICK	OATS	STICK	TREE	11	[0, 0, 0]	-999	PAL1	0	R1149N
1245.651	1.016	1829327	STUDY_ORIENT	n/a	6	6	MOOSE	n/a	MOOSE	WOOD	11	[0, 0, 0]	-999	PAL1	0	R1149N
1246.667	4.018	1830343	STUDY_PAIR	n/a	6	6	MOOSE	n/a	MOOSE	WOOD	11	[0, 0, 0]	-999	PAL1	0	R1149N
1250.685	0.999	1834361	START	n/a	-999	-999	n/a	n/a	n/a	n/a	11	[-999, -999, -999]	-999	PAL1	0	R1149N
1251.684	0.017	1835360	MATH_START	n/a	-999	-999	n/a	n/a	n/a	n/a	11	[0, 0, 0]	-999	PAL1	0	R1149N
1251.701	8.051	1835377	PROB	8028	-999	-999	n/a	n/a	n/a	n/a	11	[6, 6, 8]	21	PAL1	0	R1149N
1259.752	4.333	1843428	PROB	4304	-999	-999	n/a	n/a	n/a	n/a	11	[1, 4, 3]	8	PAL1	0	R1149N
1264.085	5.735	1847761	PROB	5716	-999	-999	n/a	n/a	n/a	n/a	11	[8, 7, 3]	18	PAL1	0	R1149N
1269.82	7.524	1853496	PROB	7524	-999	-999	n/a	n/a	n/a	n/a	11	[9, 4, 8]	21	PAL1	0	R1149N
1277.344	0.01	1861020	STOP	n/a	-999	-999	n/a	n/a	n/a	n/a	11	[-999, -999, -999]	-999	PAL1	0	R1149N
1277.354	0.0	1861030	TEST_START	n/a	-999	-999	n/a	n/a	n/a	n/a	11	[0, 0, 0]	-999	PAL1	0	R1149N
1277.354	0.017	1861030	MATH_END	n/a	-999	-999	n/a	n/a	n/a	n/a	11	[0, 0, 0]	-999	PAL1	0	R1149N
1277.371	0.983	1861047	TEST_ORIENT	n/a	3	1	BOOK	MEAN	HEART	BOOK	11	[0, 0, 0]	-999	PAL1	0	R1149N
1278.354	0.001	1862030	TEST_PROBE	n/a	3	1	BOOK	MEAN	HEART	BOOK	11	[0, 0, 0]	-999	PAL1	0	R1149N
1278.355	3.813	1862031	REC_START	n/a	3	-999	n/a	MEAN	n/a	n/a	11	[0, 0, 0]	-999	PAL1	0	R1149N
1282.168	1.211	1865845	REC_EVENT	3813	3	1	BOOK	MEAN	HEART	BOOK	11	[0, 0, 0]	-999	PAL1	0	R1149N
1283.379	0.009	1867056	REC_END	n/a	3	-999	n/a	n/a	n/a	n/a	11	[0, 0, 0]	-999	PAL1	0	R1149N
1283.388	0.967	1867065	TEST_ORIENT	n/a	4	2	STEAM	n/a	STEAM	BOARD	11	[0, 0, 0]	-999	PAL1	0	R1149N
1284.355	0.0	1868032	TEST_PROBE	n/a	4	2	STEAM	n/a	STEAM	BOARD	11	[0, 0, 0]	-999	PAL1	0	R1149N
1284.355	4.76	1868032	REC_START	n/a	4	-999	n/a	n/a	n/a	n/a	11	[0, 0, 0]	-999	PAL1	0	R1149N
1289.115	0.257	1872792	REC_EVENT	4760	4	2	STEAM	<>	STEAM	BOARD	11	[0, 0, 0]	-999	PAL1	0	R1149N
1289.372	0.017	1873049	REC_END	n/a	4	-999	n/a	n/a	n/a	n/a	11	[0, 0, 0]	-999	PAL1	0	R1149N
1289.389	1.0	1873066	TEST_ORIENT	n/a	5	3	STICK	OATS	STICK	TREE	11	[0, 0, 0]	-999	PAL1	0	R1149N
1290.389	0.0	1874066	TEST_PROBE	n/a	5	3	STICK	OATS	STICK	TREE	11	[0, 0, 0]	-999	PAL1	0	R1149N
1290.389	3.512	1874066	REC_START	n/a	5	-999	n/a	OATS	n/a	n/a	11	[0, 0, 0]	-999	PAL1	0	R1149N
1293.901	1.505	1877578	REC_EVENT	3512	5	3	STICK	OATS	STICK	TREE	11	[0, 0, 0]	-999	PAL1	0	R1149N
1295.406	0.017	1879083	REC_END	n/a	5	-999	n/a	n/a	n/a	n/a	11	[0, 0, 0]	-999	PAL1	0	R1149N
1295.423	0.983	1879100	TEST_ORIENT	n/a	2	4	PLANT	n/a	SIGN	PLANT	11	[0, 0, 0]	-999	PAL1	0	R1149N
1296.406	0.001	1880083	TEST_PROBE	n/a	2	4	PLANT	n/a	SIGN	PLANT	11	[0, 0, 0]	-999	PAL1	0	R1149N
1296.407	4.852	1880084	REC_START	n/a	2	-999	n/a	n/a	n/a	n/a	11	[0, 0, 0]	-999	PAL1	0	R1149N
1301.259	0.172	1884936	REC_EVENT	4852	2	4	PLANT	<>	SIGN	PLANT	11	[0, 0, 0]	-999	PAL1	0	R1149N
1301.431	0.009	1885108	REC_END	n/a	2	-999	n/a	n/a	n/a	n/a	11	[0, 0, 0]	-999	PAL1	0	R1149N
1301.44	1.017	1885117	TEST_ORIENT	n/a	1	5	CAR	STUCK	DESK	CAR	11	[0, 0, 0]	-999	PAL1	0	R1149N
1302.457	0.0	1886134	TEST_PROBE	n/a	1	5	CAR	STUCK	DESK	CAR	11	[0, 0, 0]	-999	PAL1	0	R1149N
1302.457	2.945	1886134	REC_START	n/a	1	-999	n/a	STUCK	n/a	n/a	11	[0, 0, 0]	-999	PAL1	0	R1149N
1305.402	2.072	1889079	REC_EVENT	2945	1	5	CAR	STUCK	DESK	CAR	11	[0, 0, 0]	-999	PAL1	0	R1149N
1307.474	0.017	1891151	REC_END	n/a	1	-999	n/a	n/a	n/a	n/a	11	[0, 0, 0]	-999	PAL1	0	R1149N
1307.491	0.983	1891168	TEST_ORIENT	n/a	6	6	MOOSE	n/a	MOOSE	WOOD	11	[0, 0, 0]	-999	PAL1	0	R1149N
1308.474	0.001	1892151	TEST_PROBE	n/a	6	6	MOOSE	n/a	MOOSE	WOOD	11	[0, 0, 0]	-999	PAL1	0	R1149N
1308.475	4.922	1892152	REC_START	n/a	6	-999	n/a	n/a	n/a	n/a	11	[0, 0, 0]	-999	PAL1	0	R1149N
1313.397	0.103	1897074	REC_EVENT	4922	6	6	MOOSE	<>	MOOSE	WOOD	11	[0, 0, 0]	-999	PAL1	0	R1149N
1313.5	3.962	1897177	REC_END	n/a	6	-999	n/a	n/a	n/a	n/a	11	[0, 0, 0]	-999	PAL1	0	R1149N
1317.462	10.447	1901139	ENCODING_START	n/a	0	-999	n/a	n/a	n/a	n/a	12	[0, 0, 0]	-999	PAL1	0	R1149N
1327.909	0.967	1911586	STUDY_ORIENT	n/a	1	3	SHIRT	CLEAN	SHIRT	LOCK	12	[0, 0, 0]	-999	PAL1	0	R1149N
1328.876	5.034	1912553	STUDY_PAIR	n/a	1	3	SHIRT	CLEAN	SHIRT	LOCK	12	[0, 0, 0]	-999	PAL1	0	R1149N
1333.91	0.983	1917587	STUDY_ORIENT	n/a	2	6	JAR	MEAN	JAR	GEESE	12	[0, 0, 0]	-999	PAL1	0	R1149N
1334.893	5.018	1918570	STUDY_PAIR	n/a	2	6	JAR	MEAN	JAR	GEESE	12	[0, 0, 0]	-999	PAL1	0	R1149N
1339.911	0.783	1923588	STUDY_ORIENT	n/a	3	5	BEACH	n/a	EAR	BEACH	12	[0, 0, 0]	-999	PAL1	0	R1149N
1340.694	5.034	1924371	STUDY_PAIR	n/a	3	5	BEACH	n/a	EAR	BEACH	12	[0, 0, 0]	-999	PAL1	0	R1149N
1345.728	0.8	1929405	STUDY_ORIENT	n/a	4	2	SEAT	n/a	SUN	SEAT	12	[0, 0, 0]	-999	PAL1	0	R1149N
1346.528	5.034	1930205	STUDY_PAIR	n/a	4	2	SEAT	n/a	SUN	SEAT	12	[0, 0, 0]	-999	PAL1	0	R1149N
1351.562	0.883	1935239	STUDY_ORIENT	n/a	5	1	CLOWN	WASH	SWORD	CLOWN	12	[0, 0, 0]	-999	PAL1	0	R1149N
1352.445	5.034	1936122	STUDY_PAIR	n/a	5	1	CLOWN	WASH	SWORD	CLOWN	12	[0, 0, 0]	-999	PAL1	0	R1149N
1357.479	0.85	1941156	STUDY_ORIENT	n/a	6	4	BLUSH	n/a	CALF	BLUSH	12	[0, 0, 0]	-999	PAL1	0	R1149N
1358.329	4.018	1942006	STUDY_PAIR	n/a	6	4	BLUSH	n/a	CALF	BLUSH	12	[0, 0, 0]	-999	PAL1	0	R1149N
1362.347	0.999	1946024	START	n/a	-999	-999	n/a	n/a	n/a	n/a	12	[-999, -999, -999]	-999	PAL1	0	R1149N
1363.346	0.017	1947023	MATH_START	n/a	-999	-999	n/a	n/a	n/a	n/a	12	[0, 0, 0]	-999	PAL1	0	R1149N
1363.363	6.167	1947040	PROB	6143	-999	-999	n/a	n/a	n/a	n/a	12	[4, 5, 2]	11	PAL1	0	R1149N
1369.53	7.885	1953207	PROB	7856	-999	-999	n/a	n/a	n/a	n/a	12	[4, 5, 7]	16	PAL1	0	R1149N
1377.415	5.355	1961092	PROB	5355	-999	-999	n/a	n/a	n/a	n/a	12	[2, 9, 8]	19	PAL1	0	R1149N
1382.77	0.012	1966447	STOP	n/a	-999	-999	n/a	n/a	n/a	n/a	12	[-999, -999, -999]	-999	PAL1	0	R1149N
1382.782	0.0	1966459	TEST_START	n/a	-999	-999	n/a	n/a	n/a	n/a	12	[0, 0, 0]	-999	PAL1	0	R1149N
1382.782	0.017	1966459	MATH_END	n/a	-999	-999	n/a	n/a	n/a	n/a	12	[0, 0, 0]	-999	PAL1	0	R1149N
1382.799	0.85	1966476	TEST_ORIENT	n/a	5	1	CLOWN	WASH	SWORD	CLOWN	12	[0, 0, 0]	-999	PAL1	0	R1149N
1383.649	0.0	1967326	TEST_PROBE	n/a	5	1	CLOWN	WASH	SWORD	CLOWN	12	[0, 0, 0]	-999	PAL1	0	R1149N
1383.649	2.413	1967326	REC_START	n/a	5	-999	n/a	WASH	n/a	n/a	12	[0, 0, 0]	-999	PAL1	0	R1149N
1386.062	2.604	1969739	REC_EVENT	2413	5	1	CLOWN	WASH	SWORD	CLOWN	12	[0, 0, 0]	-999	PAL1	0	R1149N
1388.666	0.016	1972343	REC_END	n/a	5	-999	n/a	n/a	n/a	n/a	12	[0, 0, 0]	-999	PAL1	0	R1149N
1388.682	1.034	1972359	TEST_ORIENT	n/a	4	2	SEAT	n/a	SUN	SEAT	12	[0, 0, 0]	-999	PAL1	0	R1149N
1389.716	0.001	1973393	TEST_PROBE	n/a	4	2	SEAT	n/a	SUN	SEAT	12	[0, 0, 0]	-999	PAL1	0	R1149N
1389.717	2.283	1973394	REC_START	n/a	4	-999	n/a	n/a	n/a	n/a	12	[0, 0, 0]	-999	PAL1	0	R1149N
1392.0	2.741	1975677	REC_EVENT	2283	4	2	SEAT	<>	SUN	SEAT	12	[0, 0, 0]	-999	PAL1	0	R1149N
1394.741	0.009	1978418	REC_END	n/a	4	-999	n/a	n/a	n/a	n/a	12	[0, 0, 0]	-999	PAL1	0	R1149N
1394.75	0.95	1978427	TEST_ORIENT	n/a	1	3	SHIRT	CLEAN	SHIRT	LOCK	12	[0, 0, 0]	-999	PAL1	0	R1149N
1395.7	0.001	1979377	TEST_PROBE	n/a	1	3	SHIRT	CLEAN	SHIRT	LOCK	12	[0, 0, 0]	-999	PAL1	0	R1149N
1395.701	3.578	1979378	REC_START	n/a	1	-999	n/a	CLEAN	n/a	n/a	12	[0, 0, 0]	-999	PAL1	0	R1149N
1399.279	1.446	1982956	REC_EVENT	3578	1	3	SHIRT	CLEAN	SHIRT	LOCK	12	[0, 0, 0]	-999	PAL1	0	R1149N
1400.725	0.008	1984402	REC_END	n/a	1	-999	n/a	n/a	n/a	n/a	12	[0, 0, 0]	-999	PAL1	0	R1149N
1400.733	0.901	1984410	TEST_ORIENT	n/a	6	4	BLUSH	n/a	CALF	BLUSH	12	[0, 0, 0]	-999	PAL1	0	R1149N
1401.634	0.0	1985311	REC_START	n/a	6	-999	n/a	n/a	n/a	n/a	12	[0, 0, 0]	-999	PAL1	0	R1149N
1401.634	4.899	1985311	TEST_PROBE	n/a	6	4	BLUSH	n/a	CALF	BLUSH	12	[0, 0, 0]	-999	PAL1	0	R1149N
1406.533	0.118	1990210	REC_EVENT	4899	6	4	BLUSH	<>	CALF	BLUSH	12	[0, 0, 0]	-999	PAL1	0	R1149N
1406.651	0.017	1990328	REC_END	n/a	6	-999	n/a	n/a	n/a	n/a	12	[0, 0, 0]	-999	PAL1	0	R1149N
1406.668	0.883	1990345	TEST_ORIENT	n/a	3	5	BEACH	n/a	EAR	BEACH	12	[0, 0, 0]	-999	PAL1	0	R1149N
1407.551	0.0	1991228	TEST_PROBE	n/a	3	5	BEACH	n/a	EAR	BEACH	12	[0, 0, 0]	-999	PAL1	0	R1149N
1407.551	4.876	1991228	REC_START	n/a	3	-999	n/a	n/a	n/a	n/a	12	[0, 0, 0]	-999	PAL1	0	R1149N
1412.427	0.141	1996105	REC_EVENT	4876	3	5	BEACH	<>	EAR	BEACH	12	[0, 0, 0]	-999	PAL1	0	R1149N
1412.568	0.017	1996246	REC_END	n/a	3	-999	n/a	n/a	n/a	n/a	12	[0, 0, 0]	-999	PAL1	0	R1149N
1412.585	0.95	1996263	TEST_ORIENT	n/a	2	6	JAR	MEAN	JAR	GEESE	12	[0, 0, 0]	-999	PAL1	0	R1149N
1413.535	0.001	1997213	TEST_PROBE	n/a	2	6	JAR	MEAN	JAR	GEESE	12	[0, 0, 0]	-999	PAL1	0	R1149N
1413.536	2.368	1997214	REC_START	n/a	2	-999	n/a	MEAN	n/a	n/a	12	[0, 0, 0]	-999	PAL1	0	R1149N
1415.904	2.656	1999582	REC_EVENT	2368	2	6	JAR	MEAN	JAR	GEESE	12	[0, 0, 0]	-999	PAL1	0	R1149N
1418.56	2.663	2002238	REC_END	n/a	2	-999	n/a	n/a	n/a	n/a	12	[0, 0, 0]	-999	PAL1	0	R1149N
1421.223	10.447	2004901	ENCODING_START	n/a	0	-999	n/a	n/a	n/a	n/a	13	[0, 0, 0]	-999	PAL1	0	R1149N
1431.67	1.034	2015348	STUDY_ORIENT	n/a	1	5	HOLE	SLIP	TRASH	HOLE	13	[0, 0, 0]	-999	PAL1	0	R1149N
1432.704	5.033	2016382	STUDY_PAIR	n/a	1	5	HOLE	SLIP	TRASH	HOLE	13	[0, 0, 0]	-999	PAL1	0	R1149N
1437.737	0.917	2021415	STUDY_ORIENT	n/a	2	4	SHIP	n/a	DOCK	SHIP	13	[0, 0, 0]	-999	PAL1	0	R1149N
1438.654	5.034	2022332	STUDY_PAIR	n/a	2	4	SHIP	n/a	DOCK	SHIP	13	[0, 0, 0]	-999	PAL1	0	R1149N
1443.688	0.784	2027366	STUDY_ORIENT	n/a	3	3	WHEEL	n/a	WHEEL	SKY	13	[0, 0, 0]	-999	PAL1	0	R1149N
1444.472	5.034	2028150	STUDY_PAIR	n/a	3	3	WHEEL	n/a	WHEEL	SKY	13	[0, 0, 0]	-999	PAL1	0	R1149N
1449.506	0.966	2033184	STUDY_ORIENT	n/a	4	2	FLEA	n/a	STEM	FLEA	13	[0, 0, 0]	-999	PAL1	0	R1149N
1450.472	5.034	2034150	STUDY_PAIR	n/a	4	2	FLEA	n/a	STEM	FLEA	13	[0, 0, 0]	-999	PAL1	0	R1149N
1455.506	0.817	2039184	STUDY_ORIENT	n/a	5	1	SPRING	MEAN	FLAG	SPRING	13	[0, 0, 0]	-999	PAL1	0	R1149N
1456.323	5.034	2040001	STUDY_PAIR	n/a	5	1	SPRING	MEAN	FLAG	SPRING	13	[0, 0, 0]	-999	PAL1	0	R1149N
1461.357	1.017	2045035	STUDY_ORIENT	n/a	6	6	ROAD	BOATS	ROAD	BARN	13	[0, 0, 0]	-999	PAL1	0	R1149N
1462.374	4.017	2046052	STUDY_PAIR	n/a	6	6	ROAD	BOATS	ROAD	BARN	13	[0, 0, 0]	-999	PAL1	0	R1149N
1466.391	1.0	2050069	START	n/a	-999	-999	n/a	n/a	n/a	n/a	13	[-999, -999, -999]	-999	PAL1	0	R1149N
1467.391	0.017	2051069	MATH_START	n/a	-999	-999	n/a	n/a	n/a	n/a	13	[0, 0, 0]	-999	PAL1	0	R1149N
1467.408	6.567	2051086	PROB	6548	-999	-999	n/a	n/a	n/a	n/a	13	[1, 7, 5]	13	PAL1	0	R1149N
1473.975	3.4	2057653	PROB	3381	-999	-999	n/a	n/a	n/a	n/a	13	[5, 7, 2]	11	PAL1	0	R1149N
1477.375	6.318	2061053	PROB	6284	-999	-999	n/a	n/a	n/a	n/a	13	[8, 5, 8]	21	PAL1	0	R1149N
1483.693	6.333	2067371	PROB	6333	-999	-999	n/a	n/a	n/a	n/a	13	[7, 9, 9]	25	PAL1	0	R1149N
1490.026	0.016	2073704	STOP	n/a	-999	-999	n/a	n/a	n/a	n/a	13	[-999, -999, -999]	-999	PAL1	0	R1149N
1490.042	0.0	2073720	TEST_START	n/a	-999	-999	n/a	n/a	n/a	n/a	13	[0, 0, 0]	-999	PAL1	0	R1149N
1490.042	0.017	2073720	MATH_END	n/a	-999	-999	n/a	n/a	n/a	n/a	13	[0, 0, 0]	-999	PAL1	0	R1149N
1490.059	0.95	2073737	TEST_ORIENT	n/a	5	1	SPRING	MEAN	FLAG	SPRING	13	[0, 0, 0]	-999	PAL1	0	R1149N
1491.009	0.001	2074687	TEST_PROBE	n/a	5	1	SPRING	MEAN	FLAG	SPRING	13	[0, 0, 0]	-999	PAL1	0	R1149N
1491.01	3.196	2074688	REC_START	n/a	5	-999	n/a	MEAN	n/a	n/a	13	[0, 0, 0]	-999	PAL1	0	R1149N
1494.206	1.828	2077884	REC_EVENT	3196	5	1	SPRING	MEAN	FLAG	SPRING	13	[0, 0, 0]	-999	PAL1	0	R1149N
1496.034	0.009	2079712	REC_END	n/a	5	-999	n/a	n/a	n/a	n/a	13	[0, 0, 0]	-999	PAL1	0	R1149N
1496.043	0.951	2079721	TEST_ORIENT	n/a	4	2	FLEA	n/a	STEM	FLEA	13	[0, 0, 0]	-999	PAL1	0	R1149N
1496.994	0.0	2080672	REC_START	n/a	4	-999	n/a	n/a	n/a	n/a	13	[0, 0, 0]	-999	PAL1	0	R1149N
1496.994	4.969	2080672	TEST_PROBE	n/a	4	2	FLEA	n/a	STEM	FLEA	13	[0, 0, 0]	-999	PAL1	0	R1149N
1501.963	0.047	2085641	REC_EVENT	4969	4	2	FLEA	<>	STEM	FLEA	13	[0, 0, 0]	-999	PAL1	0	R1149N
1502.01	0.017	2085688	REC_END	n/a	4	-999	n/a	n/a	n/a	n/a	13	[0, 0, 0]	-999	PAL1	0	R1149N
1502.027	0.784	2085705	TEST_ORIENT	n/a	3	3	WHEEL	n/a	WHEEL	SKY	13	[0, 0, 0]	-999	PAL1	0	R1149N
1502.811	0.001	2086489	TEST_PROBE	n/a	3	3	WHEEL	n/a	WHEEL	SKY	13	[0, 0, 0]	-999	PAL1	0	R1149N
1502.812	4.899	2086490	REC_START	n/a	3	-999	n/a	n/a	n/a	n/a	13	[0, 0, 0]	-999	PAL1	0	R1149N
1507.711	0.125	2091389	REC_EVENT	4899	3	3	WHEEL	<>	WHEEL	SKY	13	[0, 0, 0]	-999	PAL1	0	R1149N
1507.836	0.009	2091514	REC_END	n/a	3	-999	n/a	n/a	n/a	n/a	13	[0, 0, 0]	-999	PAL1	0	R1149N
1507.845	0.983	2091523	TEST_ORIENT	n/a	2	4	SHIP	n/a	DOCK	SHIP	13	[0, 0, 0]	-999	PAL1	0	R1149N
1508.828	0.001	2092506	TEST_PROBE	n/a	2	4	SHIP	n/a	DOCK	SHIP	13	[0, 0, 0]	-999	PAL1	0	R1149N
1508.829	4.876	2092507	REC_START	n/a	2	-999	n/a	n/a	n/a	n/a	13	[0, 0, 0]	-999	PAL1	0	R1149N
1513.705	0.132	2097383	REC_EVENT	4876	2	4	SHIP	<>	DOCK	SHIP	13	[0, 0, 0]	-999	PAL1	0	R1149N
1513.837	0.009	2097515	REC_END	n/a	2	-999	n/a	n/a	n/a	n/a	13	[0, 0, 0]	-999	PAL1	0	R1149N
1513.846	0.917	2097524	TEST_ORIENT	n/a	1	5	HOLE	SLIP	TRASH	HOLE	13	[0, 0, 0]	-999	PAL1	0	R1149N
1514.763	0.0	2098441	TEST_PROBE	n/a	1	5	HOLE	SLIP	TRASH	HOLE	13	[0, 0, 0]	-999	PAL1	0	R1149N
1514.763	3.359	2098441	REC_START	n/a	1	-999	n/a	SLIP	n/a	n/a	13	[0, 0, 0]	-999	PAL1	0	R1149N
1518.122	1.658	2101800	REC_EVENT	3359	1	5	HOLE	SLIP	TRASH	HOLE	13	[0, 0, 0]	-999	PAL1	0	R1149N
1519.78	0.016	2103458	REC_END	n/a	1	-999	n/a	n/a	n/a	n/a	13	[0, 0, 0]	-999	PAL1	0	R1149N
1519.796	0.95	2103474	TEST_ORIENT	n/a	6	6	ROAD	BOATS	ROAD	BARN	13	[0, 0, 0]	-999	PAL1	0	R1149N
1520.746	0.001	2104424	TEST_PROBE	n/a	6	6	ROAD	BOATS	ROAD	BARN	13	[0, 0, 0]	-999	PAL1	0	R1149N
1520.747	2.956	2104425	REC_START	n/a	6	-999	n/a	BOATS	n/a	n/a	13	[0, 0, 0]	-999	PAL1	0	R1149N
1523.703	2.052	2107381	REC_EVENT	2956	6	6	ROAD	BOATS	ROAD	BARN	13	[0, 0, 0]	-999	PAL1	0	R1149N
1525.755	2.109	2109433	REC_END	n/a	6	-999	n/a	n/a	n/a	n/a	13	[0, 0, 0]	-999	PAL1	0	R1149N
1527.864	10.451	2111542	ENCODING_START	n/a	0	-999	n/a	n/a	n/a	n/a	14	[0, 0, 0]	-999	PAL1	0	R1149N
1538.315	1.017	2121993	STUDY_ORIENT	n/a	1	3	BED	n/a	BED	PRINCE	14	[0, 0, 0]	-999	PAL1	0	R1149N
1539.332	5.034	2123010	STUDY_PAIR	n/a	1	3	BED	n/a	BED	PRINCE	14	[0, 0, 0]	-999	PAL1	0	R1149N
1544.366	0.95	2128045	STUDY_ORIENT	n/a	2	2	GOLD	STREAK	GOLD	SHRIMP	14	[0, 0, 0]	-999	PAL1	0	R1149N
1545.316	5.034	2128995	STUDY_PAIR	n/a	2	2	GOLD	STREAK	GOLD	SHRIMP	14	[0, 0, 0]	-999	PAL1	0	R1149N
1550.35	0.95	2134029	STUDY_ORIENT	n/a	3	1	POLE	n/a	VAN	POLE	14	[0, 0, 0]	-999	PAL1	0	R1149N
1551.3	5.034	2134979	STUDY_PAIR	n/a	3	1	POLE	n/a	VAN	POLE	14	[0, 0, 0]	-999	PAL1	0	R1149N
1556.334	0.95	2140013	STUDY_ORIENT	n/a	4	4	TOAST	n/a	SALT	TOAST	14	[0, 0, 0]	-999	PAL1	0	R1149N
1557.284	5.034	2140963	STUDY_PAIR	n/a	4	4	TOAST	n/a	SALT	TOAST	14	[0, 0, 0]	-999	PAL1	0	R1149N
1562.318	0.916	2145997	STUDY_ORIENT	n/a	5	5	CRANE	n/a	CRANE	COIN	14	[0, 0, 0]	-999	PAL1	0	R1149N
1563.234	5.034	2146913	STUDY_PAIR	n/a	5	5	CRANE	n/a	CRANE	COIN	14	[0, 0, 0]	-999	PAL1	0	R1149N
1568.268	1.0	2151947	STUDY_ORIENT	n/a	6	6	ANT	n/a	CAT	ANT	14	[0, 0, 0]	-999	PAL1	0	R1149N
1569.268	4.018	2152947	STUDY_PAIR	n/a	6	6	ANT	n/a	CAT	ANT	14	[0, 0, 0]	-999	PAL1	0	R1149N
1573.286	0.999	2156965	START	n/a	-999	-999	n/a	n/a	n/a	n/a	14	[-999, -999, -999]	-999	PAL1	0	R1149N
1574.285	0.017	2157964	MATH_START	n/a	-999	-999	n/a	n/a	n/a	n/a	14	[0, 0, 0]	-999	PAL1	0	R1149N
1574.302	5.884	2157981	PROB	5846	-999	-999	n/a	n/a	n/a	n/a	14	[9, 3, 8]	20	PAL1	0	R1149N
1580.186	5.601	2163865	PROB	5571	-999	-999	n/a	n/a	n/a	n/a	14	[9, 6, 9]	24	PAL1	0	R1149N
1585.787	9.473	2169466	PROB	9473	-999	-999	n/a	n/a	n/a	n/a	14	[3, 2, 9]	14	PAL1	0	R1149N
1595.26	0.011	2178939	STOP	n/a	-999	-999	n/a	n/a	n/a	n/a	14	[-999, -999, -999]	-999	PAL1	0	R1149N
1595.271	0.0	2178950	MATH_END	n/a	-999	-999	n/a	n/a	n/a	n/a	14	[0, 0, 0]	-999	PAL1	0	R1149N
1595.271	0.017	2178950	TEST_START	n/a	-999	-999	n/a	n/a	n/a	n/a	14	[0, 0, 0]	-999	PAL1	0	R1149N
1595.288	0.799	2178967	TEST_ORIENT	n/a	3	1	POLE	n/a	VAN	POLE	14	[0, 0, 0]	-999	PAL1	0	R1149N
1596.087	0.0	2179766	TEST_PROBE	n/a	3	1	POLE	n/a	VAN	POLE	14	[0, 0, 0]	-999	PAL1	0	R1149N
1596.087	4.969	2179766	REC_START	n/a	3	-999	n/a	n/a	n/a	n/a	14	[0, 0, 0]	-999	PAL1	0	R1149N
1601.056	0.058	2184735	REC_EVENT	4969	3	1	POLE	<>	VAN	POLE	14	[0, 0, 0]	-999	PAL1	0	R1149N
1601.114	0.023	2184793	REC_END	n/a	3	-999	n/a	n/a	n/a	n/a	14	[0, 0, 0]	-999	PAL1	0	R1149N
1601.137	0.884	2184816	TEST_ORIENT	n/a	2	2	GOLD	STREAK	GOLD	SHRIMP	14	[0, 0, 0]	-999	PAL1	0	R1149N
1602.021	0.0	2185700	REC_START	n/a	2	-999	n/a	STREAK	n/a	n/a	14	[0, 0, 0]	-999	PAL1	0	R1149N
1602.021	2.342	2185700	TEST_PROBE	n/a	2	2	GOLD	STREAK	GOLD	SHRIMP	14	[0, 0, 0]	-999	PAL1	0	R1149N
1604.363	2.675	2188042	REC_EVENT	2342	2	2	GOLD	STREAK	GOLD	SHRIMP	14	[0, 0, 0]	-999	PAL1	0	R1149N
1607.038	0.017	2190717	REC_END	n/a	2	-999	n/a	n/a	n/a	n/a	14	[0, 0, 0]	-999	PAL1	0	R1149N
1607.055	0.867	2190734	TEST_ORIENT	n/a	1	3	BED	n/a	BED	PRINCE	14	[0, 0, 0]	-999	PAL1	0	R1149N
1607.922	0.001	2191601	TEST_PROBE	n/a	1	3	BED	n/a	BED	PRINCE	14	[0, 0, 0]	-999	PAL1	0	R1149N
1607.923	4.969	2191602	REC_START	n/a	1	-999	n/a	n/a	n/a	n/a	14	[0, 0, 0]	-999	PAL1	0	R1149N
1612.892	0.048	2196571	REC_EVENT	4969	1	3	BED	<>	BED	PRINCE	14	[0, 0, 0]	-999	PAL1	0	R1149N
1612.94	0.016	2196619	REC_END	n/a	1	-999	n/a	n/a	n/a	n/a	14	[0, 0, 0]	-999	PAL1	0	R1149N
1612.956	0.867	2196635	TEST_ORIENT	n/a	4	4	TOAST	n/a	SALT	TOAST	14	[0, 0, 0]	-999	PAL1	0	R1149N
1613.823	0.001	2197502	TEST_PROBE	n/a	4	4	TOAST	n/a	SALT	TOAST	14	[0, 0, 0]	-999	PAL1	0	R1149N
1613.824	4.876	2197503	REC_START	n/a	4	-999	n/a	n/a	n/a	n/a	14	[0, 0, 0]	-999	PAL1	0	R1149N
1618.7	0.148	2202379	REC_EVENT	4876	4	4	TOAST	<>	SALT	TOAST	14	[0, 0, 0]	-999	PAL1	0	R1149N
1618.848	0.009	2202527	REC_END	n/a	4	-999	n/a	n/a	n/a	n/a	14	[0, 0, 0]	-999	PAL1	0	R1149N
1618.857	0.966	2202536	TEST_ORIENT	n/a	5	5	CRANE	n/a	CRANE	COIN	14	[0, 0, 0]	-999	PAL1	0	R1149N
1619.823	0.001	2203502	TEST_PROBE	n/a	5	5	CRANE	n/a	CRANE	COIN	14	[0, 0, 0]	-999	PAL1	0	R1149N
1619.824	4.876	2203503	REC_START	n/a	5	-999	n/a	n/a	n/a	n/a	14	[0, 0, 0]	-999	PAL1	0	R1149N
1624.7	0.132	2208379	REC_EVENT	4876	5	5	CRANE	<>	CRANE	COIN	14	[0, 0, 0]	-999	PAL1	0	R1149N
1624.832	0.009	2208511	REC_END	n/a	5	-999	n/a	n/a	n/a	n/a	14	[0, 0, 0]	-999	PAL1	0	R1149N
1624.841	0.883	2208520	TEST_ORIENT	n/a	6	6	ANT	n/a	CAT	ANT	14	[0, 0, 0]	-999	PAL1	0	R1149N
1625.724	0.001	2209403	TEST_PROBE	n/a	6	6	ANT	n/a	CAT	ANT	14	[0, 0, 0]	-999	PAL1	0	R1149N
1625.725	4.852	2209404	REC_START	n/a	6	-999	n/a	n/a	n/a	n/a	14	[0, 0, 0]	-999	PAL1	0	R1149N
1630.577	0.164	2214256	REC_EVENT	4852	6	6	ANT	<>	CAT	ANT	14	[0, 0, 0]	-999	PAL1	0	R1149N
1630.741	2.077	2214420	REC_END	n/a	6	-999	n/a	n/a	n/a	n/a	14	[0, 0, 0]	-999	PAL1	0	R1149N
1632.818	10.442	2216497	ENCODING_START	n/a	0	-999	n/a	n/a	n/a	n/a	15	[0, 0, 0]	-999	PAL1	0	R1149N
1643.26	0.865	2226939	STUDY_ORIENT	n/a	1	5	WEB	n/a	WEB	SUIT	15	[0, 0, 0]	-999	PAL1	0	R1149N
1644.125	5.034	2227804	STUDY_PAIR	n/a	1	5	WEB	n/a	WEB	SUIT	15	[0, 0, 0]	-999	PAL1	0	R1149N
1649.159	0.967	2232838	STUDY_ORIENT	n/a	2	2	PLATE	n/a	KEY	PLATE	15	[0, 0, 0]	-999	PAL1	0	R1149N
1650.126	5.034	2233805	STUDY_PAIR	n/a	2	2	PLATE	n/a	KEY	PLATE	15	[0, 0, 0]	-999	PAL1	0	R1149N
1655.16	0.917	2238839	STUDY_ORIENT	n/a	3	1	FENCE	TOP	FENCE	LEG	15	[0, 0, 0]	-999	PAL1	0	R1149N
1656.077	5.033	2239756	STUDY_PAIR	n/a	3	1	FENCE	TOP	FENCE	LEG	15	[0, 0, 0]	-999	PAL1	0	R1149N
1661.11	0.818	2244789	STUDY_ORIENT	n/a	4	6	SKUNK	n/a	MUG	SKUNK	15	[0, 0, 0]	-999	PAL1	0	R1149N
1661.928	5.034	2245607	STUDY_PAIR	n/a	4	6	SKUNK	n/a	MUG	SKUNK	15	[0, 0, 0]	-999	PAL1	0	R1149N
1666.962	0.85	2250641	STUDY_ORIENT	n/a	5	3	CORN	n/a	CORN	BOOT	15	[0, 0, 0]	-999	PAL1	0	R1149N
1667.812	5.034	2251491	STUDY_PAIR	n/a	5	3	CORN	n/a	CORN	BOOT	15	[0, 0, 0]	-999	PAL1	0	R1149N
1672.846	0.867	2256526	STUDY_ORIENT	n/a	6	4	CONE	n/a	CONE	SOAP	15	[0, 0, 0]	-999	PAL1	0	R1149N
1673.713	4.017	2257393	STUDY_PAIR	n/a	6	4	CONE	n/a	CONE	SOAP	15	[0, 0, 0]	-999	PAL1	0	R1149N
1677.73	1.0	2261410	START	n/a	-999	-999	n/a	n/a	n/a	n/a	15	[-999, -999, -999]	-999	PAL1	0	R1149N
1678.73	0.017	2262410	MATH_START	n/a	-999	-999	n/a	n/a	n/a	n/a	15	[0, 0, 0]	-999	PAL1	0	R1149N
1678.747	6.75	2262427	PROB	6731	-999	-999	n/a	n/a	n/a	n/a	15	[8, 7, 3]	18	PAL1	0	R1149N
1685.497	5.468	2269177	PROB	5437	-999	-999	n/a	n/a	n/a	n/a	15	[6, 6, 5]	17	PAL1	0	R1149N
1690.965	3.166	2274645	PROB	3144	-999	-999	n/a	n/a	n/a	n/a	15	[3, 8, 2]	13	PAL1	0	R1149N
1694.131	6.65	2277811	PROB	6650	-999	-999	n/a	n/a	n/a	n/a	15	[1, 5, 7]	13	PAL1	0	R1149N
1700.781	0.018	2284461	STOP	n/a	-999	-999	n/a	n/a	n/a	n/a	15	[-999, -999, -999]	-999	PAL1	0	R1149N
1700.799	0.0	2284479	MATH_END	n/a	-999	-999	n/a	n/a	n/a	n/a	15	[0, 0, 0]	-999	PAL1	0	R1149N
1700.799	0.017	2284479	TEST_START	n/a	-999	-999	n/a	n/a	n/a	n/a	15	[0, 0, 0]	-999	PAL1	0	R1149N
1700.816	1.0	2284496	TEST_ORIENT	n/a	3	1	FENCE	TOP	FENCE	LEG	15	[0, 0, 0]	-999	PAL1	0	R1149N
1701.816	0.0	2285496	TEST_PROBE	n/a	3	1	FENCE	TOP	FENCE	LEG	15	[0, 0, 0]	-999	PAL1	0	R1149N
1701.816	3.7	2285496	REC_START	n/a	3	-999	n/a	TOP	n/a	n/a	15	[0, 0, 0]	-999	PAL1	0	R1149N
1705.516	1.317	2289196	REC_EVENT	3700	3	1	FENCE	TOP	FENCE	LEG	15	[0, 0, 0]	-999	PAL1	0	R1149N
1706.833	0.017	2290513	REC_END	n/a	3	-999	n/a	n/a	n/a	n/a	15	[0, 0, 0]	-999	PAL1	0	R1149N
1706.85	0.8	2290530	TEST_ORIENT	n/a	2	2	PLATE	n/a	KEY	PLATE	15	[0, 0, 0]	-999	PAL1	0	R1149N
1707.65	0.0	2291330	TEST_PROBE	n/a	2	2	PLATE	n/a	KEY	PLATE	15	[0, 0, 0]	-999	PAL1	0	R1149N
1707.65	4.945	2291330	REC_START	n/a	2	-999	n/a	n/a	n/a	n/a	15	[0, 0, 0]	-999	PAL1	0	R1149N
1712.595	0.072	2296275	REC_EVENT	4945	2	2	PLATE	<>	KEY	PLATE	15	[0, 0, 0]	-999	PAL1	0	R1149N
1712.667	0.017	2296347	REC_END	n/a	2	-999	n/a	n/a	n/a	n/a	15	[0, 0, 0]	-999	PAL1	0	R1149N
1712.684	0.983	2296364	TEST_ORIENT	n/a	5	3	CORN	n/a	CORN	BOOT	15	[0, 0, 0]	-999	PAL1	0	R1149N
1713.667	0.001	2297347	TEST_PROBE	n/a	5	3	CORN	n/a	CORN	BOOT	15	[0, 0, 0]	-999	PAL1	0	R1149N
1713.668	4.876	2297348	REC_START	n/a	5	-999	n/a	n/a	n/a	n/a	15	[0, 0, 0]	-999	PAL1	0	R1149N
1718.544	0.148	2302224	REC_EVENT	4876	5	3	CORN	<>	CORN	BOOT	15	[0, 0, 0]	-999	PAL1	0	R1149N
1718.692	0.009	2302372	REC_END	n/a	5	-999	n/a	n/a	n/a	n/a	15	[0, 0, 0]	-999	PAL1	0	R1149N
1718.701	0.883	2302381	TEST_ORIENT	n/a	6	4	CONE	n/a	CONE	SOAP	15	[0, 0, 0]	-999	PAL1	0	R1149N
1719.584	0.001	2303264	TEST_PROBE	n/a	6	4	CONE	n/a	CONE	SOAP	15	[0, 0, 0]	-999	PAL1	0	R1149N
1719.585	4.969	2303265	REC_START	n/a	6	-999	n/a	n/a	n/a	n/a	15	[0, 0, 0]	-999	PAL1	0	R1149N
1724.554	0.054	2308234	REC_EVENT	4969	6	4	CONE	<>	CONE	SOAP	15	[0, 0, 0]	-999	PAL1	0	R1149N
1724.608	0.01	2308288	REC_END	n/a	6	-999	n/a	n/a	n/a	n/a	15	[0, 0, 0]	-999	PAL1	0	R1149N
1724.618	0.817	2308298	TEST_ORIENT	n/a	1	5	WEB	n/a	WEB	SUIT	15	[0, 0, 0]	-999	PAL1	0	R1149N
1725.435	0.0	2309115	TEST_PROBE	n/a	1	5	WEB	n/a	WEB	SUIT	15	[0, 0, 0]	-999	PAL1	0	R1149N
1725.435	4.965	2309115	REC_START	n/a	1	-999	n/a	n/a	n/a	n/a	15	[0, 0, 0]	-999	PAL1	0	R1149N
1730.4	0.052	2314080	REC_EVENT	4965	1	5	WEB	<>	WEB	SUIT	15	[0, 0, 0]	-999	PAL1	0	R1149N
1730.452	0.017	2314132	REC_END	n/a	1	-999	n/a	n/a	n/a	n/a	15	[0, 0, 0]	-999	PAL1	0	R1149N
1730.469	0.917	2314149	TEST_ORIENT	n/a	4	6	SKUNK	n/a	MUG	SKUNK	15	[0, 0, 0]	-999	PAL1	0	R1149N
1731.386	0.0	2315066	TEST_PROBE	n/a	4	6	SKUNK	n/a	MUG	SKUNK	15	[0, 0, 0]	-999	PAL1	0	R1149N
1731.386	2.749	2315066	REC_START	n/a	4	-999	n/a	n/a	n/a	n/a	15	[0, 0, 0]	-999	PAL1	0	R1149N
1734.135	2.268	2317815	REC_EVENT	2749	4	6	SKUNK	<>	MUG	SKUNK	15	[0, 0, 0]	-999	PAL1	0	R1149N
1736.403	2.28	2320083	REC_END	n/a	4	-999	n/a	n/a	n/a	n/a	15	[0, 0, 0]	-999	PAL1	0	R1149N
1738.683	10.437	2322363	ENCODING_START	n/a	0	-999	n/a	n/a	n/a	n/a	16	[0, 0, 0]	-999	PAL1	0	R1149N
1749.12	0.884	2332800	STUDY_ORIENT	n/a	1	1	CUP	MILK	CUP	MILK	16	[0, 0, 0]	-999	PAL1	0	R1149N
1750.004	5.033	2333684	STUDY_PAIR	n/a	1	1	CUP	MILK	CUP	MILK	16	[0, 0, 0]	-999	PAL1	0	R1149N
1755.037	0.784	2338717	STUDY_ORIENT	n/a	2	4	KITE	n/a	KITE	ELF	16	[0, 0, 0]	-999	PAL1	0	R1149N
1755.821	5.018	2339501	STUDY_PAIR	n/a	2	4	KITE	n/a	KITE	ELF	16	[0, 0, 0]	-999	PAL1	0	R1149N
1760.839	0.866	2344519	STUDY_ORIENT	n/a	3	3	HOOF	ROOF	HOOF	FRUIT	16	[0, 0, 0]	-999	PAL1	0	R1149N
1761.705	5.034	2345385	STUDY_PAIR	n/a	3	3	HOOF	ROOF	HOOF	FRUIT	16	[0, 0, 0]	-999	PAL1	0	R1149N
1766.739	0.85	2350419	STUDY_ORIENT	n/a	4	2	COW	n/a	TOE	COW	16	[0, 0, 0]	-999	PAL1	0	R1149N
1767.589	5.034	2351269	STUDY_PAIR	n/a	4	2	COW	n/a	TOE	COW	16	[0, 0, 0]	-999	PAL1	0	R1149N
1772.623	0.95	2356303	STUDY_ORIENT	n/a	5	5	INK	TOAD	TOAD	INK	16	[0, 0, 0]	-999	PAL1	0	R1149N
1773.573	5.034	2357253	STUDY_PAIR	n/a	5	5	INK	TOAD	TOAD	INK	16	[0, 0, 0]	-999	PAL1	0	R1149N
1778.607	1.0	2362287	STUDY_ORIENT	n/a	6	6	TAIL	n/a	TAIL	CHALK	16	[0, 0, 0]	-999	PAL1	0	R1149N
1779.607	4.018	2363287	STUDY_PAIR	n/a	6	6	TAIL	n/a	TAIL	CHALK	16	[0, 0, 0]	-999	PAL1	0	R1149N
1783.625	0.999	2367305	START	n/a	-999	-999	n/a	n/a	n/a	n/a	16	[-999, -999, -999]	-999	PAL1	0	R1149N
1784.624	0.017	2368304	MATH_START	n/a	-999	-999	n/a	n/a	n/a	n/a	16	[0, 0, 0]	-999	PAL1	0	R1149N
1784.641	5.184	2368321	PROB	5159	-999	-999	n/a	n/a	n/a	n/a	16	[8, 6, 3]	17	PAL1	0	R1149N
1789.825	4.617	2373505	PROB	4590	-999	-999	n/a	n/a	n/a	n/a	16	[4, 4, 8]	16	PAL1	0	R1149N
1794.442	4.868	2378122	PROB	4837	-999	-999	n/a	n/a	n/a	n/a	16	[1, 6, 2]	9	PAL1	0	R1149N
1799.31	4.016	2382990	PROB	3985	-999	-999	n/a	n/a	n/a	n/a	16	[3, 3, 7]	15	PAL1	0	R1149N
1803.326	4.217	2387007	PROB	4217	-999	-999	n/a	n/a	n/a	n/a	16	[4, 4, 8]	16	PAL1	0	R1149N
1807.543	0.017	2391224	STOP	n/a	-999	-999	n/a	n/a	n/a	n/a	16	[-999, -999, -999]	-999	PAL1	0	R1149N
1807.56	0.0	2391241	MATH_END	n/a	-999	-999	n/a	n/a	n/a	n/a	16	[0, 0, 0]	-999	PAL1	0	R1149N
1807.56	0.017	2391241	TEST_START	n/a	-999	-999	n/a	n/a	n/a	n/a	16	[0, 0, 0]	-999	PAL1	0	R1149N
1807.577	1.0	2391258	TEST_ORIENT	n/a	1	1	CUP	MILK	CUP	MILK	16	[0, 0, 0]	-999	PAL1	0	R1149N
1808.577	0.001	2392258	TEST_PROBE	n/a	1	1	CUP	MILK	CUP	MILK	16	[0, 0, 0]	-999	PAL1	0	R1149N
1808.578	1.184	2392259	REC_START	n/a	1	-999	n/a	MILK	n/a	n/a	16	[0, 0, 0]	-999	PAL1	0	R1149N
1809.762	3.84	2393443	REC_EVENT	1184	1	1	CUP	MILK	CUP	MILK	16	[0, 0, 0]	-999	PAL1	0	R1149N
1813.602	0.009	2397283	REC_END	n/a	1	-999	n/a	n/a	n/a	n/a	16	[0, 0, 0]	-999	PAL1	0	R1149N
1813.611	0.883	2397292	TEST_ORIENT	n/a	4	2	COW	n/a	TOE	COW	16	[0, 0, 0]	-999	PAL1	0	R1149N
1814.494	0.001	2398175	TEST_PROBE	n/a	4	2	COW	n/a	TOE	COW	16	[0, 0, 0]	-999	PAL1	0	R1149N
1814.495	4.945	2398176	REC_START	n/a	4	-999	n/a	n/a	n/a	n/a	16	[0, 0, 0]	-999	PAL1	0	R1149N
1819.44	0.071	2403121	REC_EVENT	4945	4	2	COW	<>	TOE	COW	16	[0, 0, 0]	-999	PAL1	0	R1149N
1819.511	0.017	2403192	REC_END	n/a	4	-999	n/a	n/a	n/a	n/a	16	[0, 0, 0]	-999	PAL1	0	R1149N
1819.528	0.85	2403209	TEST_ORIENT	n/a	3	3	HOOF	ROOF	HOOF	FRUIT	16	[0, 0, 0]	-999	PAL1	0	R1149N
1820.378	0.001	2404059	TEST_PROBE	n/a	3	3	HOOF	ROOF	HOOF	FRUIT	16	[0, 0, 0]	-999	PAL1	0	R1149N
1820.379	2.206	2404060	REC_START	n/a	3	-999	n/a	ROOF	n/a	n/a	16	[0, 0, 0]	-999	PAL1	0	R1149N
1822.585	2.802	2406266	REC_EVENT	2206	3	3	HOOF	ROOF	HOOF	FRUIT	16	[0, 0, 0]	-999	PAL1	0	R1149N
1825.387	0.009	2409068	REC_END	n/a	3	-999	n/a	n/a	n/a	n/a	16	[0, 0, 0]	-999	PAL1	0	R1149N
1825.396	0.9	2409077	TEST_ORIENT	n/a	2	4	KITE	n/a	KITE	ELF	16	[0, 0, 0]	-999	PAL1	0	R1149N
1826.296	0.0	2409977	TEST_PROBE	n/a	2	4	KITE	n/a	KITE	ELF	16	[0, 0, 0]	-999	PAL1	0	R1149N
1826.296	3.867	2409977	REC_START	n/a	2	-999	n/a	n/a	n/a	n/a	16	[0, 0, 0]	-999	PAL1	0	R1149N
1830.163	1.15	2413844	REC_EVENT	3867	2	4	KITE	<>	KITE	ELF	16	[0, 0, 0]	-999	PAL1	0	R1149N
1831.313	0.016	2414994	REC_END	n/a	2	-999	n/a	n/a	n/a	n/a	16	[0, 0, 0]	-999	PAL1	0	R1149N
1831.329	0.95	2415010	TEST_ORIENT	n/a	5	5	INK	TOAD	TOAD	INK	16	[0, 0, 0]	-999	PAL1	0	R1149N
1832.279	0.001	2415960	TEST_PROBE	n/a	5	5	INK	TOAD	TOAD	INK	16	[0, 0, 0]	-999	PAL1	0	R1149N
1832.28	2.569	2415961	REC_START	n/a	5	-999	n/a	TOAD	n/a	n/a	16	[0, 0, 0]	-999	PAL1	0	R1149N
1834.849	2.431	2418530	REC_EVENT	2569	5	5	INK	TOAD	TOAD	INK	16	[0, 0, 0]	-999	PAL1	0	R1149N
1837.28	0.017	2420961	REC_END	n/a	5	-999	n/a	n/a	n/a	n/a	16	[0, 0, 0]	-999	PAL1	0	R1149N
1837.297	0.849	2420978	TEST_ORIENT	n/a	6	6	TAIL	n/a	TAIL	CHALK	16	[0, 0, 0]	-999	PAL1	0	R1149N
1838.146	0.001	2421827	TEST_PROBE	n/a	6	6	TAIL	n/a	TAIL	CHALK	16	[0, 0, 0]	-999	PAL1	0	R1149N
1838.147	4.852	2421828	REC_START	n/a	6	-999	n/a	n/a	n/a	n/a	16	[0, 0, 0]	-999	PAL1	0	R1149N
1842.999	0.172	2426680	REC_EVENT	4852	6	6	TAIL	<>	TAIL	CHALK	16	[0, 0, 0]	-999	PAL1	0	R1149N
1843.171	3.257	2426852	REC_END	n/a	6	-999	n/a	n/a	n/a	n/a	16	[0, 0, 0]	-999	PAL1	0	R1149N
1846.428	10.437	2430109	ENCODING_START	n/a	0	-999	n/a	n/a	n/a	n/a	17	[0, 0, 0]	-999	PAL1	0	R1149N
1856.865	0.884	2440546	STUDY_ORIENT	n/a	1	3	MAIL	n/a	TENT	MAIL	17	[0, 0, 0]	-999	PAL1	0	R1149N
1857.749	5.034	2441430	STUDY_PAIR	n/a	1	3	MAIL	n/a	TENT	MAIL	17	[0, 0, 0]	-999	PAL1	0	R1149N
1862.783	0.95	2446464	STUDY_ORIENT	n/a	2	6	SINK	INK	SINK	JAIL	17	[0, 0, 0]	-999	PAL1	0	R1149N
1863.733	5.034	2447414	STUDY_PAIR	n/a	2	6	SINK	INK	SINK	JAIL	17	[0, 0, 0]	-999	PAL1	0	R1149N
1868.767	0.967	2452448	STUDY_ORIENT	n/a	3	5	HEN	n/a	SHOE	HEN	17	[0, 0, 0]	-999	PAL1	0	R1149N
1869.734	5.033	2453415	STUDY_PAIR	n/a	3	5	HEN	n/a	SHOE	HEN	17	[0, 0, 0]	-999	PAL1	0	R1149N
1874.767	0.951	2458448	STUDY_ORIENT	n/a	4	4	RUG	n/a	AXE	RUG	17	[0, 0, 0]	-999	PAL1	0	R1149N
1875.718	5.033	2459399	STUDY_PAIR	n/a	4	4	RUG	n/a	AXE	RUG	17	[0, 0, 0]	-999	PAL1	0	R1149N
1880.751	0.984	2464432	STUDY_ORIENT	n/a	5	1	FAN	ALE	FAN	GRAPE	17	[0, 0, 0]	-999	PAL1	0	R1149N
1881.735	5.034	2465416	STUDY_PAIR	n/a	5	1	FAN	ALE	FAN	GRAPE	17	[0, 0, 0]	-999	PAL1	0	R1149N
1886.769	0.983	2470450	STUDY_ORIENT	n/a	6	2	PEARL	n/a	STRING	PEARL	17	[0, 0, 0]	-999	PAL1	0	R1149N
1887.752	4.018	2471433	STUDY_PAIR	n/a	6	2	PEARL	n/a	STRING	PEARL	17	[0, 0, 0]	-999	PAL1	0	R1149N
1891.77	0.999	2475451	START	n/a	-999	-999	n/a	n/a	n/a	n/a	17	[-999, -999, -999]	-999	PAL1	0	R1149N
1892.769	0.017	2476450	MATH_START	n/a	-999	-999	n/a	n/a	n/a	n/a	17	[0, 0, 0]	-999	PAL1	0	R1149N
1892.786	5.283	2476467	PROB	5262	-999	-999	n/a	n/a	n/a	n/a	17	[6, 5, 5]	16	PAL1	0	R1149N
1898.069	3.185	2481750	PROB	3156	-999	-999	n/a	n/a	n/a	n/a	17	[5, 4, 5]	14	PAL1	0	R1149N
1901.254	5.45	2484935	PROB	5426	-999	-999	n/a	n/a	n/a	n/a	17	[8, 2, 8]	18	PAL1	0	R1149N
1906.704	3.466	2490385	PROB	3439	-999	-999	n/a	n/a	n/a	n/a	17	[2, 9, 7]	19	PAL1	0	R1149N
1910.17	8.038	2493851	PROB	8038	-999	-999	n/a	n/a	n/a	n/a	17	[9, 5, 9]	23	PAL1	0	R1149N
1918.208	0.014	2501889	STOP	n/a	-999	-999	n/a	n/a	n/a	n/a	17	[-999, -999, -999]	-999	PAL1	0	R1149N
1918.222	0.0	2501903	MATH_END	n/a	-999	-999	n/a	n/a	n/a	n/a	17	[0, 0, 0]	-999	PAL1	0	R1149N
1918.222	0.017	2501903	TEST_START	n/a	-999	-999	n/a	n/a	n/a	n/a	17	[0, 0, 0]	-999	PAL1	0	R1149N
1918.239	1.016	2501920	TEST_ORIENT	n/a	5	1	FAN	ALE	FAN	GRAPE	17	[0, 0, 0]	-999	PAL1	0	R1149N
1919.255	0.001	2502936	TEST_PROBE	n/a	5	1	FAN	ALE	FAN	GRAPE	17	[0, 0, 0]	-999	PAL1	0	R1149N
1919.256	2.664	2502937	REC_START	n/a	5	-999	n/a	ALE	n/a	n/a	17	[0, 0, 0]	-999	PAL1	0	R1149N
1921.92	2.361	2505601	REC_EVENT	2664	5	1	FAN	ALE	FAN	GRAPE	17	[0, 0, 0]	-999	PAL1	0	R1149N
1924.281	0.008	2507962	REC_END	n/a	5	-999	n/a	n/a	n/a	n/a	17	[0, 0, 0]	-999	PAL1	0	R1149N
1924.289	0.9	2507970	TEST_ORIENT	n/a	6	2	PEARL	n/a	STRING	PEARL	17	[0, 0, 0]	-999	PAL1	0	R1149N
1925.189	0.001	2508870	TEST_PROBE	n/a	6	2	PEARL	n/a	STRING	PEARL	17	[0, 0, 0]	-999	PAL1	0	R1149N
1925.19	4.899	2508871	REC_START	n/a	6	-999	n/a	n/a	n/a	n/a	17	[0, 0, 0]	-999	PAL1	0	R1149N
1930.089	0.109	2513770	REC_EVENT	4899	6	2	PEARL	<>	STRING	PEARL	17	[0, 0, 0]	-999	PAL1	0	R1149N
1930.198	0.009	2513879	REC_END	n/a	6	-999	n/a	n/a	n/a	n/a	17	[0, 0, 0]	-999	PAL1	0	R1149N
1930.207	0.932	2513888	TEST_ORIENT	n/a	1	3	MAIL	n/a	TENT	MAIL	17	[0, 0, 0]	-999	PAL1	0	R1149N
1931.139	0.0	2514820	REC_START	n/a	1	-999	n/a	n/a	n/a	n/a	17	[0, 0, 0]	-999	PAL1	0	R1149N
1931.139	1.364	2514820	TEST_PROBE	n/a	1	3	MAIL	n/a	TENT	MAIL	17	[0, 0, 0]	-999	PAL1	0	R1149N
1932.503	3.653	2516184	REC_EVENT	1364	1	3	MAIL	<>	TENT	MAIL	17	[0, 0, 0]	-999	PAL1	0	R1149N
1936.156	0.018	2519838	REC_END	n/a	1	-999	n/a	n/a	n/a	n/a	17	[0, 0, 0]	-999	PAL1	0	R1149N
1936.174	0.817	2519856	TEST_ORIENT	n/a	4	4	RUG	n/a	AXE	RUG	17	[0, 0, 0]	-999	PAL1	0	R1149N
1936.991	0.0	2520673	TEST_PROBE	n/a	4	4	RUG	n/a	AXE	RUG	17	[0, 0, 0]	-999	PAL1	0	R1149N
1936.991	1.35	2520673	REC_START	n/a	4	-999	n/a	n/a	n/a	n/a	17	[0, 0, 0]	-999	PAL1	0	R1149N
1938.341	3.666	2522023	REC_EVENT	1350	4	4	RUG	<>	AXE	RUG	17	[0, 0, 0]	-999	PAL1	0	R1149N
1942.007	0.017	2525689	REC_END	n/a	4	-999	n/a	n/a	n/a	n/a	17	[0, 0, 0]	-999	PAL1	0	R1149N
1942.024	0.983	2525706	TEST_ORIENT	n/a	3	5	HEN	n/a	SHOE	HEN	17	[0, 0, 0]	-999	PAL1	0	R1149N
1943.007	0.0	2526689	REC_START	n/a	3	-999	n/a	n/a	n/a	n/a	17	[0, 0, 0]	-999	PAL1	0	R1149N
1943.007	4.814	2526689	TEST_PROBE	n/a	3	5	HEN	n/a	SHOE	HEN	17	[0, 0, 0]	-999	PAL1	0	R1149N
1947.821	0.203	2531503	REC_EVENT	4814	3	5	HEN	<>	SHOE	HEN	17	[0, 0, 0]	-999	PAL1	0	R1149N
1948.024	0.017	2531706	REC_END	n/a	3	-999	n/a	n/a	n/a	n/a	17	[0, 0, 0]	-999	PAL1	0	R1149N
1948.041	0.934	2531723	TEST_ORIENT	n/a	2	6	SINK	INK	SINK	JAIL	17	[0, 0, 0]	-999	PAL1	0	R1149N
1948.975	0.001	2532657	TEST_PROBE	n/a	2	6	SINK	INK	SINK	JAIL	17	[0, 0, 0]	-999	PAL1	0	R1149N
1948.976	2.759	2532658	REC_START	n/a	2	-999	n/a	INK	n/a	n/a	17	[0, 0, 0]	-999	PAL1	0	R1149N
1951.735	2.257	2535417	REC_EVENT	2759	2	6	SINK	INK	SINK	JAIL	17	[0, 0, 0]	-999	PAL1	0	R1149N
1953.992	2.813	2537674	REC_END	n/a	2	-999	n/a	n/a	n/a	n/a	17	[0, 0, 0]	-999	PAL1	0	R1149N
1956.805	10.439	2540487	ENCODING_START	n/a	0	-999	n/a	n/a	n/a	n/a	18	[0, 0, 0]	-999	PAL1	0	R1149N
1967.244	0.832	2550926	STUDY_ORIENT	n/a	1	5	DOG	n/a	DART	DOG	18	[0, 0, 0]	-999	PAL1	0	R1149N
1968.076	5.034	2551758	STUDY_PAIR	n/a	1	5	DOG	n/a	DART	DOG	18	[0, 0, 0]	-999	PAL1	0	R1149N
1973.11	0.95	2556792	STUDY_ORIENT	n/a	2	2	BOAT	ROCK	HAND	BOAT	18	[0, 0, 0]	-999	PAL1	0	R1149N
1974.06	5.034	2557742	STUDY_PAIR	n/a	2	2	BOAT	ROCK	HAND	BOAT	18	[0, 0, 0]	-999	PAL1	0	R1149N
1979.094	0.818	2562776	STUDY_ORIENT	n/a	3	3	SWAMP	SINK	SNOW	SWAMP	18	[0, 0, 0]	-999	PAL1	0	R1149N
1979.912	5.034	2563594	STUDY_PAIR	n/a	3	3	SWAMP	SINK	SNOW	SWAMP	18	[0, 0, 0]	-999	PAL1	0	R1149N
1984.946	0.917	2568628	STUDY_ORIENT	n/a	4	6	ROCK	n/a	ROCK	FLUTE	18	[0, 0, 0]	-999	PAL1	0	R1149N
1985.863	5.033	2569545	STUDY_PAIR	n/a	4	6	ROCK	n/a	ROCK	FLUTE	18	[0, 0, 0]	-999	PAL1	0	R1149N
1990.896	1.017	2574578	STUDY_ORIENT	n/a	5	1	FORT	n/a	FORT	STORM	18	[0, 0, 0]	-999	PAL1	0	R1149N
1991.913	5.034	2575595	STUDY_PAIR	n/a	5	1	FORT	n/a	FORT	STORM	18	[0, 0, 0]	-999	PAL1	0	R1149N
1996.947	0.833	2580629	STUDY_ORIENT	n/a	6	4	BRIDGE	n/a	BRIDGE	SOCK	18	[0, 0, 0]	-999	PAL1	0	R1149N
1997.78	4.001	2581462	STUDY_PAIR	n/a	6	4	BRIDGE	n/a	BRIDGE	SOCK	18	[0, 0, 0]	-999	PAL1	0	R1149N
2001.781	1.0	2585463	START	n/a	-999	-999	n/a	n/a	n/a	n/a	18	[-999, -999, -999]	-999	PAL1	0	R1149N
2002.781	0.017	2586463	MATH_START	n/a	-999	-999	n/a	n/a	n/a	n/a	18	[0, 0, 0]	-999	PAL1	0	R1149N
2002.798	4.867	2586480	PROB	4836	-999	-999	n/a	n/a	n/a	n/a	18	[6, 5, 5]	16	PAL1	0	R1149N
2007.665	7.134	2591347	PROB	7104	-999	-999	n/a	n/a	n/a	n/a	18	[7, 4, 1]	12	PAL1	0	R1149N
2014.799	3.667	2598481	PROB	3634	-999	-999	n/a	n/a	n/a	n/a	18	[3, 6, 6]	15	PAL1	0	R1149N
2018.466	9.118	2602148	PROB	9118	-999	-999	n/a	n/a	n/a	n/a	18	[4, 7, 6]	17	PAL1	0	R1149N
2027.584	0.016	2611266	STOP	n/a	-999	-999	n/a	n/a	n/a	n/a	18	[-999, -999, -999]	-999	PAL1	0	R1149N
2027.6	0.0	2611282	MATH_END	n/a	-999	-999	n/a	n/a	n/a	n/a	18	[0, 0, 0]	-999	PAL1	0	R1149N
2027.6	0.017	2611282	TEST_START	n/a	-999	-999	n/a	n/a	n/a	n/a	18	[0, 0, 0]	-999	PAL1	0	R1149N
2027.617	0.967	2611299	TEST_ORIENT	n/a	5	1	FORT	n/a	FORT	STORM	18	[0, 0, 0]	-999	PAL1	0	R1149N
2028.584	0.0	2612266	REC_START	n/a	5	-999	n/a	n/a	n/a	n/a	18	[0, 0, 0]	-999	PAL1	0	R1149N
2028.584	4.899	2612266	TEST_PROBE	n/a	5	1	FORT	n/a	FORT	STORM	18	[0, 0, 0]	-999	PAL1	0	R1149N
2033.483	0.118	2617165	REC_EVENT	4899	5	1	FORT	<>	FORT	STORM	18	[0, 0, 0]	-999	PAL1	0	R1149N
2033.601	0.017	2617283	REC_END	n/a	5	-999	n/a	n/a	n/a	n/a	18	[0, 0, 0]	-999	PAL1	0	R1149N
2033.618	1.016	2617300	TEST_ORIENT	n/a	2	2	BOAT	ROCK	HAND	BOAT	18	[0, 0, 0]	-999	PAL1	0	R1149N
2034.634	0.001	2618316	TEST_PROBE	n/a	2	2	BOAT	ROCK	HAND	BOAT	18	[0, 0, 0]	-999	PAL1	0	R1149N
2034.635	2.355	2618317	REC_START	n/a	2	-999	n/a	ROCK	n/a	n/a	18	[0, 0, 0]	-999	PAL1	0	R1149N
2036.99	2.661	2620672	REC_EVENT	2355	2	2	BOAT	ROCK	HAND	BOAT	18	[0, 0, 0]	-999	PAL1	0	R1149N
2039.651	0.017	2623333	REC_END	n/a	2	-999	n/a	n/a	n/a	n/a	18	[0, 0, 0]	-999	PAL1	0	R1149N
2039.668	0.967	2623350	TEST_ORIENT	n/a	3	3	SWAMP	SINK	SNOW	SWAMP	18	[0, 0, 0]	-999	PAL1	0	R1149N
2040.635	0.001	2624317	TEST_PROBE	n/a	3	3	SWAMP	SINK	SNOW	SWAMP	18	[0, 0, 0]	-999	PAL1	0	R1149N
2040.636	2.318	2624318	REC_START	n/a	3	-999	n/a	SINK	n/a	n/a	18	[0, 0, 0]	-999	PAL1	0	R1149N
2042.954	2.706	2626636	REC_EVENT	2318	3	3	SWAMP	SINK	SNOW	SWAMP	18	[0, 0, 0]	-999	PAL1	0	R1149N
2045.66	0.009	2629342	REC_END	n/a	3	-999	n/a	n/a	n/a	n/a	18	[0, 0, 0]	-999	PAL1	0	R1149N
2045.669	0.867	2629351	TEST_ORIENT	n/a	6	4	BRIDGE	n/a	BRIDGE	SOCK	18	[0, 0, 0]	-999	PAL1	0	R1149N
2046.536	0.0	2630218	TEST_PROBE	n/a	6	4	BRIDGE	n/a	BRIDGE	SOCK	18	[0, 0, 0]	-999	PAL1	0	R1149N
2046.536	4.969	2630218	REC_START	n/a	6	-999	n/a	n/a	n/a	n/a	18	[0, 0, 0]	-999	PAL1	0	R1149N
2051.505	0.056	2635187	REC_EVENT	4969	6	4	BRIDGE	<>	BRIDGE	SOCK	18	[0, 0, 0]	-999	PAL1	0	R1149N
2051.561	0.008	2635243	REC_END	n/a	6	-999	n/a	n/a	n/a	n/a	18	[0, 0, 0]	-999	PAL1	0	R1149N
2051.569	0.95	2635251	TEST_ORIENT	n/a	1	5	DOG	n/a	DART	DOG	18	[0, 0, 0]	-999	PAL1	0	R1149N
2052.519	0.001	2636201	TEST_PROBE	n/a	1	5	DOG	n/a	DART	DOG	18	[0, 0, 0]	-999	PAL1	0	R1149N
2052.52	4.829	2636202	REC_START	n/a	1	-999	n/a	n/a	n/a	n/a	18	[0, 0, 0]	-999	PAL1	0	R1149N
2057.349	0.179	2641031	REC_EVENT	4829	1	5	DOG	<>	DART	DOG	18	[0, 0, 0]	-999	PAL1	0	R1149N
2057.528	0.009	2641210	REC_END	n/a	1	-999	n/a	n/a	n/a	n/a	18	[0, 0, 0]	-999	PAL1	0	R1149N
2057.537	0.883	2641219	TEST_ORIENT	n/a	4	6	ROCK	n/a	ROCK	FLUTE	18	[0, 0, 0]	-999	PAL1	0	R1149N
2058.42	0.001	2642102	TEST_PROBE	n/a	4	6	ROCK	n/a	ROCK	FLUTE	18	[0, 0, 0]	-999	PAL1	0	R1149N
2058.421	4.945	2642103	REC_START	n/a	4	-999	n/a	n/a	n/a	n/a	18	[0, 0, 0]	-999	PAL1	0	R1149N
2063.366	0.079	2647048	REC_EVENT	4945	4	6	ROCK	<>	ROCK	FLUTE	18	[0, 0, 0]	-999	PAL1	0	R1149N
2063.445	2.905	2647127	REC_END	n/a	4	-999	n/a	n/a	n/a	n/a	18	[0, 0, 0]	-999	PAL1	0	R1149N
2066.35	10.439	2650033	ENCODING_START	n/a	0	-999	n/a	n/a	n/a	n/a	19	[0, 0, 0]	-999	PAL1	0	R1149N
2076.789	0.85	2660472	STUDY_ORIENT	n/a	1	3	PARK	n/a	LEAF	PARK	19	[0, 0, 0]	-999	PAL1	0	R1149N
2077.639	5.034	2661322	STUDY_PAIR	n/a	1	3	PARK	n/a	LEAF	PARK	19	[0, 0, 0]	-999	PAL1	0	R1149N
2082.673	0.783	2666356	STUDY_ORIENT	n/a	2	2	HOOK	ROPE	SLIME	HOOK	19	[0, 0, 0]	-999	PAL1	0	R1149N
2083.456	5.034	2667139	STUDY_PAIR	n/a	2	2	HOOK	ROPE	SLIME	HOOK	19	[0, 0, 0]	-999	PAL1	0	R1149N
2088.49	0.967	2672173	STUDY_ORIENT	n/a	3	5	FOAM	n/a	BUSH	FOAM	19	[0, 0, 0]	-999	PAL1	0	R1149N
2089.457	5.034	2673140	STUDY_PAIR	n/a	3	5	FOAM	n/a	BUSH	FOAM	19	[0, 0, 0]	-999	PAL1	0	R1149N
2094.491	0.866	2678174	STUDY_ORIENT	n/a	4	4	PEA	TEA	PEA	TEA	19	[0, 0, 0]	-999	PAL1	0	R1149N
2095.357	5.018	2679040	STUDY_PAIR	n/a	4	4	PEA	TEA	PEA	TEA	19	[0, 0, 0]	-999	PAL1	0	R1149N
2100.375	0.866	2684058	STUDY_ORIENT	n/a	5	1	LAWN	n/a	LAWN	MOTH	19	[0, 0, 0]	-999	PAL1	0	R1149N
2101.241	5.034	2684924	STUDY_PAIR	n/a	5	1	LAWN	n/a	LAWN	MOTH	19	[0, 0, 0]	-999	PAL1	0	R1149N
2106.275	0.799	2689958	STUDY_ORIENT	n/a	6	6	BOY	n/a	CLAY	BOY	19	[0, 0, 0]	-999	PAL1	0	R1149N
2107.074	4.018	2690757	STUDY_PAIR	n/a	6	6	BOY	n/a	CLAY	BOY	19	[0, 0, 0]	-999	PAL1	0	R1149N
2111.092	1.0	2694775	START	n/a	-999	-999	n/a	n/a	n/a	n/a	19	[-999, -999, -999]	-999	PAL1	0	R1149N
2112.092	0.016	2695775	MATH_START	n/a	-999	-999	n/a	n/a	n/a	n/a	19	[0, 0, 0]	-999	PAL1	0	R1149N
2112.108	8.552	2695791	PROB	8527	-999	-999	n/a	n/a	n/a	n/a	19	[6, 8, 5]	19	PAL1	0	R1149N
2120.66	4.35	2704343	PROB	4326	-999	-999	n/a	n/a	n/a	n/a	19	[8, 3, 2]	13	PAL1	0	R1149N
2125.01	5.835	2708693	PROB	5800	-999	-999	n/a	n/a	n/a	n/a	19	[4, 2, 6]	12	PAL1	0	R1149N
2130.845	4.308	2714528	PROB	4308	-999	-999	n/a	n/a	n/a	n/a	19	[4, 9, 6]	19	PAL1	0	R1149N
2135.153	0.008	2718836	STOP	n/a	-999	-999	n/a	n/a	n/a	n/a	19	[-999, -999, -999]	-999	PAL1	0	R1149N
2135.161	0.0	2718844	MATH_END	n/a	-999	-999	n/a	n/a	n/a	n/a	19	[0, 0, 0]	-999	PAL1	0	R1149N
2135.161	0.017	2718844	TEST_START	n/a	-999	-999	n/a	n/a	n/a	n/a	19	[0, 0, 0]	-999	PAL1	0	R1149N
2135.178	1.034	2718861	TEST_ORIENT	n/a	5	1	LAWN	n/a	LAWN	MOTH	19	[0, 0, 0]	-999	PAL1	0	R1149N
2136.212	0.0	2719895	REC_START	n/a	5	-999	n/a	n/a	n/a	n/a	19	[0, 0, 0]	-999	PAL1	0	R1149N
2136.212	4.899	2719895	TEST_PROBE	n/a	5	1	LAWN	n/a	LAWN	MOTH	19	[0, 0, 0]	-999	PAL1	0	R1149N
2141.111	0.118	2724794	REC_EVENT	4899	5	1	LAWN	<>	LAWN	MOTH	19	[0, 0, 0]	-999	PAL1	0	R1149N
2141.229	0.017	2724912	REC_END	n/a	5	-999	n/a	n/a	n/a	n/a	19	[0, 0, 0]	-999	PAL1	0	R1149N
2141.246	0.933	2724929	TEST_ORIENT	n/a	2	2	HOOK	ROPE	SLIME	HOOK	19	[0, 0, 0]	-999	PAL1	0	R1149N
2142.179	0.0	2725862	TEST_PROBE	n/a	2	2	HOOK	ROPE	SLIME	HOOK	19	[0, 0, 0]	-999	PAL1	0	R1149N
2142.179	2.164	2725862	REC_START	n/a	2	-999	n/a	ROPE	n/a	n/a	19	[0, 0, 0]	-999	PAL1	0	R1149N
2144.343	2.861	2728026	REC_EVENT	2164	2	2	HOOK	ROPE	SLIME	HOOK	19	[0, 0, 0]	-999	PAL1	0	R1149N
2147.204	0.009	2730887	REC_END	n/a	2	-999	n/a	n/a	n/a	n/a	19	[0, 0, 0]	-999	PAL1	0	R1149N
2147.213	0.866	2730896	TEST_ORIENT	n/a	1	3	PARK	n/a	LEAF	PARK	19	[0, 0, 0]	-999	PAL1	0	R1149N
2148.079	0.0	2731762	REC_START	n/a	1	-999	n/a	n/a	n/a	n/a	19	[0, 0, 0]	-999	PAL1	0	R1149N
2148.079	4.876	2731762	TEST_PROBE	n/a	1	3	PARK	n/a	LEAF	PARK	19	[0, 0, 0]	-999	PAL1	0	R1149N
2152.955	0.149	2736638	REC_EVENT	4876	1	3	PARK	<>	LEAF	PARK	19	[0, 0, 0]	-999	PAL1	0	R1149N
2153.104	0.009	2736787	REC_END	n/a	1	-999	n/a	n/a	n/a	n/a	19	[0, 0, 0]	-999	PAL1	0	R1149N
2153.113	0.884	2736796	TEST_ORIENT	n/a	4	4	PEA	TEA	PEA	TEA	19	[0, 0, 0]	-999	PAL1	0	R1149N
2153.997	0.0	2737680	TEST_PROBE	n/a	4	4	PEA	TEA	PEA	TEA	19	[0, 0, 0]	-999	PAL1	0	R1149N
2153.997	1.538	2737680	REC_START	n/a	4	-999	n/a	TEA	n/a	n/a	19	[0, 0, 0]	-999	PAL1	0	R1149N
2155.535	3.478	2739218	REC_EVENT	1538	4	4	PEA	TEA	PEA	TEA	19	[0, 0, 0]	-999	PAL1	0	R1149N
2159.013	0.017	2742696	REC_END	n/a	4	-999	n/a	n/a	n/a	n/a	19	[0, 0, 0]	-999	PAL1	0	R1149N
2159.03	0.784	2742713	TEST_ORIENT	n/a	3	5	FOAM	n/a	BUSH	FOAM	19	[0, 0, 0]	-999	PAL1	0	R1149N
2159.814	0.001	2743497	TEST_PROBE	n/a	3	5	FOAM	n/a	BUSH	FOAM	19	[0, 0, 0]	-999	PAL1	0	R1149N
2159.815	4.945	2743498	REC_START	n/a	3	-999	n/a	n/a	n/a	n/a	19	[0, 0, 0]	-999	PAL1	0	R1149N
2164.76	0.071	2748443	REC_EVENT	4945	3	5	FOAM	<>	BUSH	FOAM	19	[0, 0, 0]	-999	PAL1	0	R1149N
2164.831	0.017	2748514	REC_END	n/a	3	-999	n/a	n/a	n/a	n/a	19	[0, 0, 0]	-999	PAL1	0	R1149N
2164.848	0.917	2748531	TEST_ORIENT	n/a	6	6	BOY	n/a	CLAY	BOY	19	[0, 0, 0]	-999	PAL1	0	R1149N
2165.765	0.0	2749448	TEST_PROBE	n/a	6	6	BOY	n/a	CLAY	BOY	19	[0, 0, 0]	-999	PAL1	0	R1149N
2165.765	4.829	2749448	REC_START	n/a	6	-999	n/a	n/a	n/a	n/a	19	[0, 0, 0]	-999	PAL1	0	R1149N
2170.594	0.188	2754277	REC_EVENT	4829	6	6	BOY	<>	CLAY	BOY	19	[0, 0, 0]	-999	PAL1	0	R1149N
2170.782	2.009	2754465	REC_END	n/a	6	-999	n/a	n/a	n/a	n/a	19	[0, 0, 0]	-999	PAL1	0	R1149N
2172.791	10.442	2756474	ENCODING_START	n/a	0	-999	n/a	n/a	n/a	n/a	20	[0, 0, 0]	-999	PAL1	0	R1149N
2183.233	0.866	2766916	STUDY_ORIENT	n/a	1	5	BOX	WALK	BOX	MULE	20	[0, 0, 0]	-999	PAL1	0	R1149N
2184.099	5.034	2767782	STUDY_PAIR	n/a	1	5	BOX	WALK	BOX	MULE	20	[0, 0, 0]	-999	PAL1	0	R1149N
2189.133	0.984	2772816	STUDY_ORIENT	n/a	2	6	STONE	PHONE	FUR	STONE	20	[0, 0, 0]	-999	PAL1	0	R1149N
2190.117	5.033	2773800	STUDY_PAIR	n/a	2	6	STONE	PHONE	FUR	STONE	20	[0, 0, 0]	-999	PAL1	0	R1149N
2195.15	0.835	2778834	STUDY_ORIENT	n/a	3	3	MOUTH	n/a	MOUTH	FOG	20	[0, 0, 0]	-999	PAL1	0	R1149N
2195.985	5.033	2779669	STUDY_PAIR	n/a	3	3	MOUTH	n/a	MOUTH	FOG	20	[0, 0, 0]	-999	PAL1	0	R1149N
2201.018	1.016	2784702	STUDY_ORIENT	n/a	4	4	LAKE	n/a	LAMP	LAKE	20	[0, 0, 0]	-999	PAL1	0	R1149N
2202.034	5.018	2785718	STUDY_PAIR	n/a	4	4	LAKE	n/a	LAMP	LAKE	20	[0, 0, 0]	-999	PAL1	0	R1149N
2207.052	0.867	2790736	STUDY_ORIENT	n/a	5	1	DOOR	NETS	DOOR	POND	20	[0, 0, 0]	-999	PAL1	0	R1149N
2207.919	5.034	2791603	STUDY_PAIR	n/a	5	1	DOOR	NETS	DOOR	POND	20	[0, 0, 0]	-999	PAL1	0	R1149N
2212.953	1.001	2796637	STUDY_ORIENT	n/a	6	2	CLIFF	n/a	CLIFF	SKI	20	[0, 0, 0]	-999	PAL1	0	R1149N
2213.954	4.017	2797638	STUDY_PAIR	n/a	6	2	CLIFF	n/a	CLIFF	SKI	20	[0, 0, 0]	-999	PAL1	0	R1149N
2217.971	1.0	2801655	START	n/a	-999	-999	n/a	n/a	n/a	n/a	20	[-999, -999, -999]	-999	PAL1	0	R1149N
2218.971	0.016	2802655	MATH_START	n/a	-999	-999	n/a	n/a	n/a	n/a	20	[0, 0, 0]	-999	PAL1	0	R1149N
2218.987	6.351	2802671	PROB	6329	-999	-999	n/a	n/a	n/a	n/a	20	[2, 5, 4]	11	PAL1	0	R1149N
2225.338	7.551	2809022	PROB	7521	-999	-999	n/a	n/a	n/a	n/a	20	[8, 5, 6]	19	PAL1	0	R1149N
2232.889	4.266	2816573	PROB	4241	-999	-999	n/a	n/a	n/a	n/a	20	[4, 8, 8]	10	PAL1	0	R1149N
2237.155	10.392	2820839	PROB	10392	-999	-999	n/a	n/a	n/a	n/a	20	[8, 7, 4]	19	PAL1	0	R1149N
2247.547	0.01	2831231	STOP	n/a	-999	-999	n/a	n/a	n/a	n/a	20	[-999, -999, -999]	-999	PAL1	0	R1149N
2247.557	0.0	2831241	MATH_END	n/a	-999	-999	n/a	n/a	n/a	n/a	20	[0, 0, 0]	-999	PAL1	0	R1149N
2247.557	0.017	2831241	TEST_START	n/a	-999	-999	n/a	n/a	n/a	n/a	20	[0, 0, 0]	-999	PAL1	0	R1149N
2247.574	0.95	2831258	TEST_ORIENT	n/a	5	1	DOOR	NETS	DOOR	POND	20	[0, 0, 0]	-999	PAL1	0	R1149N
2248.524	0.0	2832208	REC_START	n/a	5	-999	n/a	NETS	n/a	n/a	20	[0, 0, 0]	-999	PAL1	0	R1149N
2248.524	2.342	2832208	TEST_PROBE	n/a	5	1	DOOR	NETS	DOOR	POND	20	[0, 0, 0]	-999	PAL1	0	R1149N
2250.866	2.675	2834550	REC_EVENT	2342	5	1	DOOR	NETS	DOOR	POND	20	[0, 0, 0]	-999	PAL1	0	R1149N
2253.541	0.017	2837225	REC_END	n/a	5	-999	n/a	n/a	n/a	n/a	20	[0, 0, 0]	-999	PAL1	0	R1149N
2253.558	0.95	2837242	TEST_ORIENT	n/a	6	2	CLIFF	n/a	CLIFF	SKI	20	[0, 0, 0]	-999	PAL1	0	R1149N
2254.508	0.0	2838192	TEST_PROBE	n/a	6	2	CLIFF	n/a	CLIFF	SKI	20	[0, 0, 0]	-999	PAL1	0	R1149N
2254.508	4.876	2838192	REC_START	n/a	6	-999	n/a	n/a	n/a	n/a	20	[0, 0, 0]	-999	PAL1	0	R1149N
2259.384	0.149	2843068	REC_EVENT	4876	6	2	CLIFF	<>	CLIFF	SKI	20	[0, 0, 0]	-999	PAL1	0	R1149N
2259.533	0.009	2843217	REC_END	n/a	6	-999	n/a	n/a	n/a	n/a	20	[0, 0, 0]	-999	PAL1	0	R1149N
2259.542	0.8	2843226	TEST_ORIENT	n/a	3	3	MOUTH	n/a	MOUTH	FOG	20	[0, 0, 0]	-999	PAL1	0	R1149N
2260.342	0.0	2844026	TEST_PROBE	n/a	3	3	MOUTH	n/a	MOUTH	FOG	20	[0, 0, 0]	-999	PAL1	0	R1149N
2260.342	4.852	2844026	REC_START	n/a	3	-999	n/a	n/a	n/a	n/a	20	[0, 0, 0]	-999	PAL1	0	R1149N
2265.194	0.165	2848878	REC_EVENT	4852	3	3	MOUTH	<>	MOUTH	FOG	20	[0, 0, 0]	-999	PAL1	0	R1149N
2265.359	0.017	2849043	REC_END	n/a	3	-999	n/a	n/a	n/a	n/a	20	[0, 0, 0]	-999	PAL1	0	R1149N
2265.376	0.966	2849060	TEST_ORIENT	n/a	4	4	LAKE	n/a	LAMP	LAKE	20	[0, 0, 0]	-999	PAL1	0	R1149N
2266.342	0.001	2850026	TEST_PROBE	n/a	4	4	LAKE	n/a	LAMP	LAKE	20	[0, 0, 0]	-999	PAL1	0	R1149N
2266.343	4.783	2850027	REC_START	n/a	4	-999	n/a	n/a	n/a	n/a	20	[0, 0, 0]	-999	PAL1	0	R1149N
2271.126	0.233	2854810	REC_EVENT	4783	4	4	LAKE	<>	LAMP	LAKE	20	[0, 0, 0]	-999	PAL1	0	R1149N
2271.359	0.017	2855043	REC_END	n/a	4	-999	n/a	n/a	n/a	n/a	20	[0, 0, 0]	-999	PAL1	0	R1149N
2271.376	0.884	2855060	TEST_ORIENT	n/a	1	5	BOX	WALK	BOX	MULE	20	[0, 0, 0]	-999	PAL1	0	R1149N
2272.26	0.0	2855944	TEST_PROBE	n/a	1	5	BOX	WALK	BOX	MULE	20	[0, 0, 0]	-999	PAL1	0	R1149N
2272.26	2.486	2855944	REC_START	n/a	1	-999	n/a	WALK	n/a	n/a	20	[0, 0, 0]	-999	PAL1	0	R1149N
2274.746	2.531	2858430	REC_EVENT	2486	1	5	BOX	WALK	BOX	MULE	20	[0, 0, 0]	-999	PAL1	0	R1149N
2277.277	0.016	2860961	REC_END	n/a	1	-999	n/a	n/a	n/a	n/a	20	[0, 0, 0]	-999	PAL1	0	R1149N
2277.293	0.967	2860977	TEST_ORIENT	n/a	2	6	STONE	PHONE	FUR	STONE	20	[0, 0, 0]	-999	PAL1	0	R1149N
2278.26	0.001	2861944	TEST_PROBE	n/a	2	6	STONE	PHONE	FUR	STONE	20	[0, 0, 0]	-999	PAL1	0	R1149N
2278.261	3.136	2861945	REC_START	n/a	2	-999	n/a	PHONE	n/a	n/a	20	[0, 0, 0]	-999	PAL1	0	R1149N
2281.397	1.888	2865081	REC_EVENT	3136	2	6	STONE	PHONE	FUR	STONE	20	[0, 0, 0]	-999	PAL1	0	R1149N
2283.285	2.219	2866969	REC_END	n/a	2	-999	n/a	n/a	n/a	n/a	20	[0, 0, 0]	-999	PAL1	0	R1149N
2285.504	10.441	2869188	ENCODING_START	n/a	0	-999	n/a	n/a	n/a	n/a	21	[0, 0, 0]	-999	PAL1	0	R1149N
2295.945	0.967	2879629	STUDY_ORIENT	n/a	1	1	CAKE	TIE	TIE	CAKE	21	[0, 0, 0]	-999	PAL1	0	R1149N
2296.912	5.034	2880596	STUDY_PAIR	n/a	1	1	CAKE	TIE	TIE	CAKE	21	[0, 0, 0]	-999	PAL1	0	R1149N
2301.946	0.884	2885630	STUDY_ORIENT	n/a	2	4	GRASS	n/a	CORD	GRASS	21	[0, 0, 0]	-999	PAL1	0	R1149N
2302.83	5.033	2886514	STUDY_PAIR	n/a	2	4	GRASS	n/a	CORD	GRASS	21	[0, 0, 0]	-999	PAL1	0	R1149N
2307.863	0.867	2891547	STUDY_ORIENT	n/a	3	3	WOLF	WHY	WOLF	TRAY	21	[0, 0, 0]	-999	PAL1	0	R1149N
2308.73	5.034	2892414	STUDY_PAIR	n/a	3	3	WOLF	WHY	WOLF	TRAY	21	[0, 0, 0]	-999	PAL1	0	R1149N
2313.764	0.833	2897448	STUDY_ORIENT	n/a	4	2	CASH	n/a	CASH	STRAW	21	[0, 0, 0]	-999	PAL1	0	R1149N
2314.597	5.034	2898281	STUDY_PAIR	n/a	4	2	CASH	n/a	CASH	STRAW	21	[0, 0, 0]	-999	PAL1	0	R1149N
2319.631	0.817	2903315	STUDY_ORIENT	n/a	5	5	BOWL	BREAD	BOWL	BREAD	21	[0, 0, 0]	-999	PAL1	0	R1149N
2320.448	5.034	2904132	STUDY_PAIR	n/a	5	5	BOWL	BREAD	BOWL	BREAD	21	[0, 0, 0]	-999	PAL1	0	R1149N
2325.482	0.817	2909167	STUDY_ORIENT	n/a	6	6	FARM	n/a	MOLE	FARM	21	[0, 0, 0]	-999	PAL1	0	R1149N
2326.299	4.017	2909984	STUDY_PAIR	n/a	6	6	FARM	n/a	MOLE	FARM	21	[0, 0, 0]	-999	PAL1	0	R1149N
2330.316	1.0	2914001	START	n/a	-999	-999	n/a	n/a	n/a	n/a	21	[-999, -999, -999]	-999	PAL1	0	R1149N
2331.316	0.017	2915001	MATH_START	n/a	-999	-999	n/a	n/a	n/a	n/a	21	[0, 0, 0]	-999	PAL1	0	R1149N
2331.333	10.651	2915018	PROB	10632	-999	-999	n/a	n/a	n/a	n/a	21	[8, 7, 5]	20	PAL1	0	R1149N
2341.984	7.651	2925669	PROB	7628	-999	-999	n/a	n/a	n/a	n/a	21	[7, 3, 9]	19	PAL1	0	R1149N
2349.635	4.585	2933320	PROB	4585	-999	-999	n/a	n/a	n/a	n/a	21	[8, 3, 8]	19	PAL1	0	R1149N
2354.22	0.015	2937905	STOP	n/a	-999	-999	n/a	n/a	n/a	n/a	21	[-999, -999, -999]	-999	PAL1	0	R1149N
2354.235	0.0	2937920	MATH_END	n/a	-999	-999	n/a	n/a	n/a	n/a	21	[0, 0, 0]	-999	PAL1	0	R1149N
2354.235	0.017	2937920	TEST_START	n/a	-999	-999	n/a	n/a	n/a	n/a	21	[0, 0, 0]	-999	PAL1	0	R1149N
2354.252	0.799	2937937	TEST_ORIENT	n/a	1	1	CAKE	TIE	TIE	CAKE	21	[0, 0, 0]	-999	PAL1	0	R1149N
2355.051	0.0	2938736	TEST_PROBE	n/a	1	1	CAKE	TIE	TIE	CAKE	21	[0, 0, 0]	-999	PAL1	0	R1149N
2355.051	2.85	2938736	REC_START	n/a	1	-999	n/a	TIE	n/a	n/a	21	[0, 0, 0]	-999	PAL1	0	R1149N
2357.901	2.167	2941586	REC_EVENT	2850	1	1	CAKE	TIE	TIE	CAKE	21	[0, 0, 0]	-999	PAL1	0	R1149N
2360.068	0.017	2943753	REC_END	n/a	1	-999	n/a	n/a	n/a	n/a	21	[0, 0, 0]	-999	PAL1	0	R1149N
2360.085	0.95	2943770	TEST_ORIENT	n/a	4	2	CASH	n/a	CASH	STRAW	21	[0, 0, 0]	-999	PAL1	0	R1149N
2361.035	0.0	2944720	TEST_PROBE	n/a	4	2	CASH	n/a	CASH	STRAW	21	[0, 0, 0]	-999	PAL1	0	R1149N
2361.035	4.783	2944720	REC_START	n/a	4	-999	n/a	n/a	n/a	n/a	21	[0, 0, 0]	-999	PAL1	0	R1149N
2365.818	0.234	2949503	REC_EVENT	4783	4	2	CASH	<>	CASH	STRAW	21	[0, 0, 0]	-999	PAL1	0	R1149N
2366.052	0.017	2949737	REC_END	n/a	4	-999	n/a	n/a	n/a	n/a	21	[0, 0, 0]	-999	PAL1	0	R1149N
2366.069	0.817	2949754	TEST_ORIENT	n/a	3	3	WOLF	WHY	WOLF	TRAY	21	[0, 0, 0]	-999	PAL1	0	R1149N
2366.886	0.001	2950571	TEST_PROBE	n/a	3	3	WOLF	WHY	WOLF	TRAY	21	[0, 0, 0]	-999	PAL1	0	R1149N
2366.887	3.105	2950572	REC_START	n/a	3	-999	n/a	WHY	n/a	n/a	21	[0, 0, 0]	-999	PAL1	0	R1149N
2369.992	1.919	2953677	REC_EVENT	3105	3	3	WOLF	WHY	WOLF	TRAY	21	[0, 0, 0]	-999	PAL1	0	R1149N
2371.911	0.009	2955596	REC_END	n/a	3	-999	n/a	n/a	n/a	n/a	21	[0, 0, 0]	-999	PAL1	0	R1149N
2371.92	0.817	2955605	TEST_ORIENT	n/a	2	4	GRASS	n/a	CORD	GRASS	21	[0, 0, 0]	-999	PAL1	0	R1149N
