onset	duration	sample	trial_type	response_time	stim_file	serialpos	probepos	probe_word	resp_word	study_1	study_2	list	test	answer	experiment	session	subject
0.0	100.174	-1	INSTRUCT_START	n/a	n/a	-999	-999	n/a	n/a	n/a	n/a	-1	[0, 0, 0]	-999	PAL1	2	R1307N
100.174	0.0	-1	INSTRUCT_START	n/a	n/a	-999	-999	n/a	n/a	n/a	n/a	-1	[0, 0, 0]	-999	PAL1	2	R1307N
100.174	0.0	-1	INSTRUCT_END	n/a	n/a	-999	-999	n/a	n/a	n/a	n/a	-1	[0, 0, 0]	-999	PAL1	2	R1307N
100.174	0.0	-1	MIC	n/a	n/a	-999	-999	n/a	n/a	n/a	n/a	-1	[0, 0, 0]	-999	PAL1	2	R1307N
100.174	0.0	-1	MIC	n/a	n/a	-999	-999	n/a	n/a	n/a	n/a	-1	[0, 0, 0]	-999	PAL1	2	R1307N
100.174	0.0	-1	TRIAL_START	n/a	n/a	-999	-999	n/a	n/a	n/a	n/a	-1	[0, 0, 0]	-999	PAL1	2	R1307N
100.174	0.0	-1	TRIAL	n/a	n/a	-999	-999	n/a	n/a	n/a	n/a	-1	[0, 0, 0]	-999	PAL1	2	R1307N
100.174	173.678	-1	WAITING_START	n/a	n/a	-999	-999	n/a	n/a	n/a	n/a	-1	[0, 0, 0]	-999	PAL1	2	R1307N
273.852	0.0	139269	WAITING_END	n/a	n/a	-999	-999	n/a	n/a	n/a	n/a	-1	[0, 0, 0]	-999	PAL1	2	R1307N
273.852	10.0	139269	COUNTDOWN_START	n/a	n/a	-999	-999	n/a	n/a	n/a	n/a	-1	[0, 0, 0]	-999	PAL1	2	R1307N
273.852	0.0	139269	COUNTDOWN_END	n/a	n/a	-999	-999	n/a	n/a	n/a	n/a	-1	[0, 0, 0]	-999	PAL1	2	R1307N
273.852	11.587	139269	ORIENT_START	n/a	n/a	-999	-999	n/a	n/a	n/a	n/a	-1	[0, 0, 0]	-999	PAL1	2	R1307N
285.439	0.0	150856	ENCODING_START	n/a	n/a	-999	-999	n/a	n/a	n/a	n/a	-1	[0, 0, 0]	-999	PAL1	2	R1307N
285.439	0.684	150856	ORIENT_END	n/a	n/a	-999	-999	n/a	n/a	n/a	n/a	-1	[0, 0, 0]	-999	PAL1	2	R1307N
286.123	4.0	151540	STUDY_PAIR	n/a	n/a	1	-999	n/a	n/a	RHINO	COTTON	-1	[0, 0, 0]	-999	PAL1	2	R1307N
290.155	0.589	155571	STUDY_PAIR_OFF	n/a	n/a	1	-999	n/a	n/a	RHINO	COTTON	-1	[0, 0, 0]	-999	PAL1	2	R1307N
290.744	4.0	156160	STUDY_PAIR	n/a	n/a	2	-999	n/a	n/a	IMAGE	RING	-1	[0, 0, 0]	-999	PAL1	2	R1307N
294.772	0.564	160188	STUDY_PAIR_OFF	n/a	n/a	2	-999	n/a	n/a	IMAGE	RING	-1	[0, 0, 0]	-999	PAL1	2	R1307N
295.336	4.0	160752	STUDY_PAIR	n/a	n/a	3	-999	n/a	n/a	CHEST	WAGON	-1	[0, 0, 0]	-999	PAL1	2	R1307N
299.373	0.542	164789	STUDY_PAIR_OFF	n/a	n/a	3	-999	n/a	n/a	CHEST	WAGON	-1	[0, 0, 0]	-999	PAL1	2	R1307N
299.915	4.0	165331	STUDY_PAIR	n/a	n/a	4	-999	n/a	n/a	BABY	BEAM	-1	[0, 0, 0]	-999	PAL1	2	R1307N
303.94	0.658	169356	STUDY_PAIR_OFF	n/a	n/a	4	-999	n/a	n/a	BABY	BEAM	-1	[0, 0, 0]	-999	PAL1	2	R1307N
304.598	4.0	170014	STUDY_PAIR	n/a	n/a	5	-999	n/a	n/a	TONGUE	CAMEL	-1	[0, 0, 0]	-999	PAL1	2	R1307N
308.626	0.581	174042	STUDY_PAIR_OFF	n/a	n/a	5	-999	n/a	n/a	TONGUE	CAMEL	-1	[0, 0, 0]	-999	PAL1	2	R1307N
309.207	4.0	174623	STUDY_PAIR	n/a	n/a	6	-999	n/a	n/a	FLOOD	WATCH	-1	[0, 0, 0]	-999	PAL1	2	R1307N
313.242	0.0	178658	MATH_START	n/a	n/a	-999	-999	n/a	n/a	n/a	n/a	-1	[0, 0, 0]	-999	PAL1	2	R1307N
313.242	0.0	178658	ENCODING_END	n/a	n/a	-999	-999	n/a	n/a	n/a	n/a	-1	[0, 0, 0]	-999	PAL1	2	R1307N
313.242	0.001	178658	STUDY_PAIR_OFF	n/a	n/a	6	-999	n/a	n/a	FLOOD	WATCH	-1	[0, 0, 0]	-999	PAL1	2	R1307N
313.243	0.016	178659	START	n/a	n/a	-999	-999	n/a	n/a	n/a	n/a	-1	[-999, -999, -999]	-999	PAL1	2	R1307N
313.259	4.134	178675	PROB	4.111	n/a	-999	-999	n/a	n/a	n/a	n/a	-1	[1, 7, 1]	9	PAL1	2	R1307N
317.393	3.083	182808	PROB	3.049	n/a	-999	-999	n/a	n/a	n/a	n/a	-1	[1, 6, 4]	11	PAL1	2	R1307N
320.476	4.301	185891	PROB	4.278	n/a	-999	-999	n/a	n/a	n/a	n/a	-1	[5, 7, 5]	17	PAL1	2	R1307N
324.777	2.601	190192	PROB	2.562	n/a	-999	-999	n/a	n/a	n/a	n/a	-1	[1, 1, 4]	6	PAL1	2	R1307N
327.378	14.808	192793	PROB	14.808	n/a	-999	-999	n/a	n/a	n/a	n/a	-1	[3, 4, 8]	15	PAL1	2	R1307N
342.186	0.011	207601	STOP	n/a	n/a	-999	-999	n/a	n/a	n/a	n/a	-1	[-999, -999, -999]	-999	PAL1	2	R1307N
342.197	0.509	207612	MATH_END	n/a	n/a	-999	-999	n/a	n/a	n/a	n/a	-1	[0, 0, 0]	-999	PAL1	2	R1307N
342.706	0.0	208121	RETRIEVAL_START	n/a	n/a	-999	-999	n/a	n/a	n/a	n/a	-1	[0, 0, 0]	-999	PAL1	2	R1307N
342.706	0.274	208121	ORIENT_START	n/a	n/a	-999	-999	n/a	n/a	n/a	n/a	-1	[0, 0, 0]	-999	PAL1	2	R1307N
342.98	0.697	208395	ORIENT_END	n/a	n/a	-999	-999	n/a	n/a	n/a	n/a	-1	[0, 0, 0]	-999	PAL1	2	R1307N
343.677	0.0	209092	REC_START	n/a	n/a	3	1	WAGON	n/a	CHEST	WAGON	-1	[0, 0, 0]	-999	PAL1	2	R1307N
343.677	4.0	209092	PROBE_START	n/a	n/a	3	1	WAGON	n/a	CHEST	WAGON	-1	[0, 0, 0]	-999	PAL1	2	R1307N
347.715	1.0	213129	PROBE_END	n/a	n/a	3	1	WAGON	n/a	CHEST	WAGON	-1	[0, 0, 0]	-999	PAL1	2	R1307N
348.715	0.0	214129	REC_END	n/a	n/a	3	1	WAGON	n/a	CHEST	WAGON	-1	[0, 0, 0]	-999	PAL1	2	R1307N
348.715	0.283	214129	ORIENT_START	n/a	n/a	-999	-999	n/a	n/a	n/a	n/a	-1	[0, 0, 0]	-999	PAL1	2	R1307N
348.998	0.681	214412	ORIENT_END	n/a	n/a	-999	-999	n/a	n/a	n/a	n/a	-1	[0, 0, 0]	-999	PAL1	2	R1307N
349.679	0.067	215093	REC_EVENT	6.002	n/a	3	1	WAGON	<>	CHEST	WAGON	-1	[0, 0, 0]	-999	PAL1	2	R1307N
349.746	4.0	215160	PROBE_START	n/a	n/a	2	2	RING	n/a	IMAGE	RING	-1	[0, 0, 0]	-999	PAL1	2	R1307N
349.746	4.036	215160	REC_START	n/a	n/a	2	2	RING	n/a	IMAGE	RING	-1	[0, 0, 0]	-999	PAL1	2	R1307N
353.782	1.0	219196	PROBE_END	n/a	n/a	2	2	RING	n/a	IMAGE	RING	-1	[0, 0, 0]	-999	PAL1	2	R1307N
354.782	0.0	220196	REC_END	n/a	n/a	2	2	RING	n/a	IMAGE	RING	-1	[0, 0, 0]	-999	PAL1	2	R1307N
354.782	0.283	220196	ORIENT_START	n/a	n/a	-999	-999	n/a	n/a	n/a	n/a	-1	[0, 0, 0]	-999	PAL1	2	R1307N
355.065	0.676	220479	ORIENT_END	n/a	n/a	-999	-999	n/a	n/a	n/a	n/a	-1	[0, 0, 0]	-999	PAL1	2	R1307N
355.741	0.0	221155	REC_START	n/a	n/a	1	3	RHINO	n/a	RHINO	COTTON	-1	[0, 0, 0]	-999	PAL1	2	R1307N
355.741	4.0	221155	PROBE_START	n/a	n/a	1	3	RHINO	n/a	RHINO	COTTON	-1	[0, 0, 0]	-999	PAL1	2	R1307N
355.806	3.96	221220	REC_EVENT	6.06	n/a	2	2	RING	<>	IMAGE	RING	-1	[0, 0, 0]	-999	PAL1	2	R1307N
359.766	1.0	225180	PROBE_END	n/a	n/a	1	3	RHINO	n/a	RHINO	COTTON	-1	[0, 0, 0]	-999	PAL1	2	R1307N
360.766	0.0	226180	REC_END	n/a	n/a	1	3	RHINO	n/a	RHINO	COTTON	-1	[0, 0, 0]	-999	PAL1	2	R1307N
360.766	0.284	226180	ORIENT_START	n/a	n/a	-999	-999	n/a	n/a	n/a	n/a	-1	[0, 0, 0]	-999	PAL1	2	R1307N
361.05	0.54	226464	ORIENT_END	n/a	n/a	-999	-999	n/a	n/a	n/a	n/a	-1	[0, 0, 0]	-999	PAL1	2	R1307N
361.59	0.0	227004	REC_START	n/a	n/a	6	4	WATCH	n/a	FLOOD	WATCH	-1	[0, 0, 0]	-999	PAL1	2	R1307N
361.59	4.0	227004	PROBE_START	n/a	n/a	6	4	WATCH	n/a	FLOOD	WATCH	-1	[0, 0, 0]	-999	PAL1	2	R1307N
361.714	3.904	227128	REC_EVENT	5.973	n/a	1	3	RHINO	<>	RHINO	COTTON	-1	[0, 0, 0]	-999	PAL1	2	R1307N
365.618	1.0	231032	PROBE_END	n/a	n/a	6	4	WATCH	n/a	FLOOD	WATCH	-1	[0, 0, 0]	-999	PAL1	2	R1307N
366.618	0.0	232032	REC_END	n/a	n/a	6	4	WATCH	n/a	FLOOD	WATCH	-1	[0, 0, 0]	-999	PAL1	2	R1307N
366.618	0.283	232032	ORIENT_START	n/a	n/a	-999	-999	n/a	n/a	n/a	n/a	-1	[0, 0, 0]	-999	PAL1	2	R1307N
366.901	0.528	232315	ORIENT_END	n/a	n/a	-999	-999	n/a	n/a	n/a	n/a	-1	[0, 0, 0]	-999	PAL1	2	R1307N
367.429	0.211	232843	REC_EVENT	5.839	n/a	6	4	WATCH	<>	FLOOD	WATCH	-1	[0, 0, 0]	-999	PAL1	2	R1307N
367.64	0.0	233054	REC_START	n/a	n/a	5	5	TONGUE	n/a	TONGUE	CAMEL	-1	[0, 0, 0]	-999	PAL1	2	R1307N
367.64	4.0	233054	PROBE_START	n/a	n/a	5	5	TONGUE	n/a	TONGUE	CAMEL	-1	[0, 0, 0]	-999	PAL1	2	R1307N
371.669	1.0	237083	PROBE_END	n/a	n/a	5	5	TONGUE	n/a	TONGUE	CAMEL	-1	[0, 0, 0]	-999	PAL1	2	R1307N
372.669	0.0	238082	REC_END	n/a	n/a	5	5	TONGUE	n/a	TONGUE	CAMEL	-1	[0, 0, 0]	-999	PAL1	2	R1307N
372.669	0.283	238082	ORIENT_START	n/a	n/a	-999	-999	n/a	n/a	n/a	n/a	-1	[0, 0, 0]	-999	PAL1	2	R1307N
372.952	0.569	238365	ORIENT_END	n/a	n/a	-999	-999	n/a	n/a	n/a	n/a	-1	[0, 0, 0]	-999	PAL1	2	R1307N
373.521	4.0	238934	PROBE_START	n/a	n/a	4	6	BABY	n/a	BABY	BEAM	-1	[0, 0, 0]	-999	PAL1	2	R1307N
373.521	0.161	238934	REC_START	n/a	n/a	4	6	BABY	n/a	BABY	BEAM	-1	[0, 0, 0]	-999	PAL1	2	R1307N
373.682	3.872	239095	REC_EVENT	6.042	n/a	5	5	TONGUE	<>	TONGUE	CAMEL	-1	[0, 0, 0]	-999	PAL1	2	R1307N
377.554	1.0	242967	PROBE_END	n/a	n/a	4	6	BABY	n/a	BABY	BEAM	-1	[0, 0, 0]	-999	PAL1	2	R1307N
378.554	0.0	243967	REC_END	n/a	n/a	4	6	BABY	n/a	BABY	BEAM	-1	[0, 0, 0]	-999	PAL1	2	R1307N
378.554	0.0	243967	RETRIEVAL_END	n/a	n/a	-999	-999	n/a	n/a	n/a	n/a	-1	[0, 0, 0]	-999	PAL1	2	R1307N
378.554	0.847	243967	PRACTICE_POST_INSTRUCT_START	n/a	n/a	-999	-999	n/a	n/a	n/a	n/a	-1	[0, 0, 0]	-999	PAL1	2	R1307N
379.401	3.986	244814	REC_EVENT	5.88	n/a	4	6	BABY	<>	BABY	BEAM	-1	[0, 0, 0]	-999	PAL1	2	R1307N
383.387	0.0	248800	PRACTICE_POST_INSTRUCT_END	n/a	n/a	-999	-999	n/a	n/a	n/a	n/a	-1	[0, 0, 0]	-999	PAL1	2	R1307N
383.387	0.0	248800	TRIAL_END	n/a	n/a	-999	-999	n/a	n/a	n/a	n/a	-1	[0, 0, 0]	-999	PAL1	2	R1307N
383.387	0.0	248800	TRIAL_START	n/a	n/a	-999	-999	n/a	n/a	n/a	n/a	-1	[0, 0, 0]	-999	PAL1	2	R1307N
383.387	0.0	248800	TRIAL	n/a	n/a	-999	-999	n/a	n/a	n/a	n/a	1	[0, 0, 0]	-999	PAL1	2	R1307N
383.387	5.984	248800	WAITING_START	n/a	n/a	-999	-999	n/a	n/a	n/a	n/a	1	[0, 0, 0]	-999	PAL1	2	R1307N
389.371	0.0	254784	ORIENT_START	n/a	n/a	-999	-999	n/a	n/a	n/a	n/a	1	[0, 0, 0]	-999	PAL1	2	R1307N
389.371	0.0	254784	COUNTDOWN_END	n/a	n/a	-999	-999	n/a	n/a	n/a	n/a	1	[0, 0, 0]	-999	PAL1	2	R1307N
389.371	10.0	254784	COUNTDOWN_START	n/a	n/a	-999	-999	n/a	n/a	n/a	n/a	1	[0, 0, 0]	-999	PAL1	2	R1307N
389.371	11.687	254784	WAITING_END	n/a	n/a	-999	-999	n/a	n/a	n/a	n/a	1	[0, 0, 0]	-999	PAL1	2	R1307N
401.058	0.0	266470	ORIENT_END	n/a	n/a	-999	-999	n/a	n/a	n/a	n/a	1	[0, 0, 0]	-999	PAL1	2	R1307N
401.058	0.506	266470	ENCODING_START	n/a	n/a	-999	-999	n/a	n/a	n/a	n/a	1	[0, 0, 0]	-999	PAL1	2	R1307N
401.564	4.0	266976	STUDY_PAIR	n/a	wordpools/wordpool_EN.txt	1	-999	n/a	PANTS	BAT	EAR	1	[0, 0, 0]	-999	PAL1	2	R1307N
405.592	0.532	271004	STUDY_PAIR_OFF	n/a	n/a	1	-999	n/a	PANTS	BAT	EAR	1	[0, 0, 0]	-999	PAL1	2	R1307N
406.124	4.0	271536	STUDY_PAIR	n/a	wordpools/wordpool_EN.txt	2	-999	n/a	n/a	EGG	FLAG	1	[0, 0, 0]	-999	PAL1	2	R1307N
410.158	0.535	275570	STUDY_PAIR_OFF	n/a	n/a	2	-999	n/a	n/a	EGG	FLAG	1	[0, 0, 0]	-999	PAL1	2	R1307N
410.693	4.0	276105	STUDY_PAIR	n/a	wordpools/wordpool_EN.txt	3	-999	n/a	n/a	FROG	ANT	1	[0, 0, 0]	-999	PAL1	2	R1307N
414.726	0.518	280138	STUDY_PAIR_OFF	n/a	n/a	3	-999	n/a	n/a	FROG	ANT	1	[0, 0, 0]	-999	PAL1	2	R1307N
415.244	4.0	280656	STUDY_PAIR	n/a	wordpools/wordpool_EN.txt	4	-999	n/a	n/a	LAWN	COUCH	1	[0, 0, 0]	-999	PAL1	2	R1307N
419.276	0.57	284688	STUDY_PAIR_OFF	n/a	n/a	4	-999	n/a	n/a	LAWN	COUCH	1	[0, 0, 0]	-999	PAL1	2	R1307N
419.846	4.0	285258	STUDY_PAIR	n/a	wordpools/wordpool_EN.txt	5	-999	n/a	n/a	BATH	THUMB	1	[0, 0, 0]	-999	PAL1	2	R1307N
423.877	0.738	289289	STUDY_PAIR_OFF	n/a	n/a	5	-999	n/a	n/a	BATH	THUMB	1	[0, 0, 0]	-999	PAL1	2	R1307N
424.615	4.0	290027	STUDY_PAIR	n/a	wordpools/wordpool_EN.txt	6	-999	n/a	n/a	DART	MAIL	1	[0, 0, 0]	-999	PAL1	2	R1307N
428.645	0.0	294056	STUDY_PAIR_OFF	n/a	n/a	6	-999	n/a	n/a	DART	MAIL	1	[0, 0, 0]	-999	PAL1	2	R1307N
428.645	0.0	294056	ENCODING_END	n/a	n/a	-999	-999	n/a	n/a	n/a	n/a	1	[0, 0, 0]	-999	PAL1	2	R1307N
428.645	0.002	294056	MATH_START	n/a	n/a	-999	-999	n/a	n/a	n/a	n/a	1	[0, 0, 0]	-999	PAL1	2	R1307N
428.647	0.015	294058	START	n/a	n/a	-999	-999	n/a	n/a	n/a	n/a	1	[-999, -999, -999]	-999	PAL1	2	R1307N
428.662	4.766	294073	PROB	4.733	n/a	-999	-999	n/a	n/a	n/a	n/a	1	[8, 5, 2]	15	PAL1	2	R1307N
433.428	2.651	298839	PROB	2.615	n/a	-999	-999	n/a	n/a	n/a	n/a	1	[1, 3, 3]	7	PAL1	2	R1307N
436.079	6.734	301490	PROB	6.699	n/a	-999	-999	n/a	n/a	n/a	n/a	1	[8, 6, 6]	20	PAL1	2	R1307N
442.813	5.942	308224	PROB	5.942	n/a	-999	-999	n/a	n/a	n/a	n/a	1	[2, 9, 7]	18	PAL1	2	R1307N
448.755	0.009	314166	STOP	n/a	n/a	-999	-999	n/a	n/a	n/a	n/a	1	[-999, -999, -999]	-999	PAL1	2	R1307N
448.764	0.535	314175	MATH_END	n/a	n/a	-999	-999	n/a	n/a	n/a	n/a	1	[0, 0, 0]	-999	PAL1	2	R1307N
449.299	0.0	314710	RETRIEVAL_START	n/a	n/a	-999	-999	n/a	n/a	n/a	n/a	1	[0, 0, 0]	-999	PAL1	2	R1307N
449.299	0.283	314710	ORIENT_START	n/a	n/a	-999	-999	n/a	n/a	n/a	n/a	1	[0, 0, 0]	-999	PAL1	2	R1307N
449.582	0.704	314993	ORIENT_END	n/a	n/a	-999	-999	n/a	n/a	n/a	n/a	1	[0, 0, 0]	-999	PAL1	2	R1307N
450.286	0.0	315697	REC_START	n/a	n/a	5	1	THUMB	n/a	BATH	THUMB	1	[0, 0, 0]	-999	PAL1	2	R1307N
450.286	4.0	315697	PROBE_START	n/a	wordpools/wordpool_EN.txt	5	1	THUMB	n/a	BATH	THUMB	1	[0, 0, 0]	-999	PAL1	2	R1307N
454.315	1.0	319726	PROBE_END	n/a	n/a	5	1	THUMB	n/a	BATH	THUMB	1	[0, 0, 0]	-999	PAL1	2	R1307N
455.315	0.0	320726	REC_END	n/a	n/a	5	1	THUMB	n/a	BATH	THUMB	1	[0, 0, 0]	-999	PAL1	2	R1307N
455.315	0.285	320726	ORIENT_START	n/a	n/a	-999	-999	n/a	n/a	n/a	n/a	1	[0, 0, 0]	-999	PAL1	2	R1307N
455.6	0.573	321011	ORIENT_END	n/a	n/a	-999	-999	n/a	n/a	n/a	n/a	1	[0, 0, 0]	-999	PAL1	2	R1307N
456.173	0.0	321583	REC_START	n/a	n/a	6	2	DART	n/a	DART	MAIL	1	[0, 0, 0]	-999	PAL1	2	R1307N
456.173	4.0	321583	PROBE_START	n/a	wordpools/wordpool_EN.txt	6	2	DART	n/a	DART	MAIL	1	[0, 0, 0]	-999	PAL1	2	R1307N
456.299	3.9	321709	REC_EVENT	6.013	n/a	5	1	THUMB	<>	BATH	THUMB	1	[0, 0, 0]	-999	PAL1	2	R1307N
460.199	1.0	325609	PROBE_END	n/a	n/a	6	2	DART	n/a	DART	MAIL	1	[0, 0, 0]	-999	PAL1	2	R1307N
461.199	0.0	326609	REC_END	n/a	n/a	6	2	DART	n/a	DART	MAIL	1	[0, 0, 0]	-999	PAL1	2	R1307N
461.199	0.284	326609	ORIENT_START	n/a	n/a	-999	-999	n/a	n/a	n/a	n/a	1	[0, 0, 0]	-999	PAL1	2	R1307N
461.483	0.558	326893	ORIENT_END	n/a	n/a	-999	-999	n/a	n/a	n/a	n/a	1	[0, 0, 0]	-999	PAL1	2	R1307N
462.041	0.166	327451	REC_EVENT	5.868	n/a	6	2	DART	<>	DART	MAIL	1	[0, 0, 0]	-999	PAL1	2	R1307N
462.207	0.0	327617	REC_START	n/a	n/a	3	3	ANT	n/a	FROG	ANT	1	[0, 0, 0]	-999	PAL1	2	R1307N
462.207	4.0	327617	PROBE_START	n/a	wordpools/wordpool_EN.txt	3	3	ANT	n/a	FROG	ANT	1	[0, 0, 0]	-999	PAL1	2	R1307N
466.234	1.0	331644	PROBE_END	n/a	n/a	3	3	ANT	n/a	FROG	ANT	1	[0, 0, 0]	-999	PAL1	2	R1307N
467.234	0.0	332644	REC_END	n/a	n/a	3	3	ANT	n/a	FROG	ANT	1	[0, 0, 0]	-999	PAL1	2	R1307N
467.234	0.284	332644	ORIENT_START	n/a	n/a	-999	-999	n/a	n/a	n/a	n/a	1	[0, 0, 0]	-999	PAL1	2	R1307N
467.518	0.513	332928	ORIENT_END	n/a	n/a	-999	-999	n/a	n/a	n/a	n/a	1	[0, 0, 0]	-999	PAL1	2	R1307N
468.031	0.0	333441	REC_START	n/a	n/a	4	4	LAWN	n/a	LAWN	COUCH	1	[0, 0, 0]	-999	PAL1	2	R1307N
468.031	4.0	333441	PROBE_START	n/a	wordpools/wordpool_EN.txt	4	4	LAWN	n/a	LAWN	COUCH	1	[0, 0, 0]	-999	PAL1	2	R1307N
468.232	3.836	333642	REC_EVENT	6.025	n/a	3	3	ANT	<>	FROG	ANT	1	[0, 0, 0]	-999	PAL1	2	R1307N
472.068	1.0	337478	PROBE_END	n/a	n/a	4	4	LAWN	n/a	LAWN	COUCH	1	[0, 0, 0]	-999	PAL1	2	R1307N
473.068	0.0	338478	REC_END	n/a	n/a	4	4	LAWN	n/a	LAWN	COUCH	1	[0, 0, 0]	-999	PAL1	2	R1307N
473.068	0.284	338478	ORIENT_START	n/a	n/a	-999	-999	n/a	n/a	n/a	n/a	1	[0, 0, 0]	-999	PAL1	2	R1307N
473.352	0.501	338762	ORIENT_END	n/a	n/a	-999	-999	n/a	n/a	n/a	n/a	1	[0, 0, 0]	-999	PAL1	2	R1307N
473.853	0.015	339263	REC_EVENT	5.822	n/a	4	4	LAWN	<>	LAWN	COUCH	1	[0, 0, 0]	-999	PAL1	2	R1307N
473.868	0.0	339278	REC_START	n/a	n/a	1	5	EAR	PANTS	BAT	EAR	1	[0, 0, 0]	-999	PAL1	2	R1307N
473.868	4.0	339278	PROBE_START	n/a	wordpools/wordpool_EN.txt	1	5	EAR	PANTS	BAT	EAR	1	[0, 0, 0]	-999	PAL1	2	R1307N
477.278	0.625	342688	REC_EVENT	3.41	n/a	1	5	EAR	PANTS	BAT	EAR	1	[0, 0, 0]	-999	PAL1	2	R1307N
477.903	0.527	343313	PROBE_END	n/a	n/a	1	5	EAR	n/a	BAT	EAR	1	[0, 0, 0]	-999	PAL1	2	R1307N
478.43	0.473	343840	REC_EVENT	4.562	n/a	1	5	EAR	<>	BAT	EAR	1	[0, 0, 0]	-999	PAL1	2	R1307N
478.903	0.0	344313	REC_END	n/a	n/a	1	5	EAR	n/a	BAT	EAR	1	[0, 0, 0]	-999	PAL1	2	R1307N
478.903	0.283	344313	ORIENT_START	n/a	n/a	-999	-999	n/a	n/a	n/a	n/a	1	[0, 0, 0]	-999	PAL1	2	R1307N
479.186	0.555	344596	ORIENT_END	n/a	n/a	-999	-999	n/a	n/a	n/a	n/a	1	[0, 0, 0]	-999	PAL1	2	R1307N
479.741	4.0	345151	PROBE_START	n/a	wordpools/wordpool_EN.txt	2	6	EGG	n/a	EGG	FLAG	1	[0, 0, 0]	-999	PAL1	2	R1307N
479.741	4.029	345151	REC_START	n/a	n/a	2	6	EGG	n/a	EGG	FLAG	1	[0, 0, 0]	-999	PAL1	2	R1307N
483.77	1.0	349179	PROBE_END	n/a	n/a	2	6	EGG	n/a	EGG	FLAG	1	[0, 0, 0]	-999	PAL1	2	R1307N
484.77	0.0	350179	REC_END	n/a	n/a	2	6	EGG	n/a	EGG	FLAG	1	[0, 0, 0]	-999	PAL1	2	R1307N
484.77	0.0	350179	RETRIEVAL_END	n/a	n/a	-999	-999	n/a	n/a	n/a	n/a	1	[0, 0, 0]	-999	PAL1	2	R1307N
484.77	0.0	350179	TRIAL_END	n/a	n/a	-999	-999	n/a	n/a	n/a	n/a	1	[0, 0, 0]	-999	PAL1	2	R1307N
484.77	0.0	350179	TRIAL_START	n/a	n/a	-999	-999	n/a	n/a	n/a	n/a	1	[0, 0, 0]	-999	PAL1	2	R1307N
484.77	0.0	350179	TRIAL	n/a	n/a	-999	-999	n/a	n/a	n/a	n/a	2	[0, 0, 0]	-999	PAL1	2	R1307N
484.77	0.828	350179	WAITING_START	n/a	n/a	-999	-999	n/a	n/a	n/a	n/a	2	[0, 0, 0]	-999	PAL1	2	R1307N
485.598	0.789	351007	REC_EVENT	5.857	n/a	2	6	EGG	<>	EGG	FLAG	1	[0, 0, 0]	-999	PAL1	2	R1307N
486.387	0.0	351796	WAITING_END	n/a	n/a	-999	-999	n/a	n/a	n/a	n/a	2	[0, 0, 0]	-999	PAL1	2	R1307N
486.387	10.0	351796	COUNTDOWN_START	n/a	n/a	-999	-999	n/a	n/a	n/a	n/a	2	[0, 0, 0]	-999	PAL1	2	R1307N
486.387	0.0	351796	COUNTDOWN_END	n/a	n/a	-999	-999	n/a	n/a	n/a	n/a	2	[0, 0, 0]	-999	PAL1	2	R1307N
486.387	11.619	351796	ORIENT_START	n/a	n/a	-999	-999	n/a	n/a	n/a	n/a	2	[0, 0, 0]	-999	PAL1	2	R1307N
498.006	0.0	363415	ENCODING_START	n/a	n/a	-999	-999	n/a	n/a	n/a	n/a	2	[0, 0, 0]	-999	PAL1	2	R1307N
498.006	0.728	363415	ORIENT_END	n/a	n/a	-999	-999	n/a	n/a	n/a	n/a	2	[0, 0, 0]	-999	PAL1	2	R1307N
498.734	4.0	364143	STUDY_PAIR	n/a	wordpools/wordpool_EN.txt	1	-999	n/a	n/a	LEAF	FOAM	2	[0, 0, 0]	-999	PAL1	2	R1307N
502.773	0.741	368182	STUDY_PAIR_OFF	n/a	n/a	1	-999	n/a	n/a	LEAF	FOAM	2	[0, 0, 0]	-999	PAL1	2	R1307N
503.514	4.0	368923	STUDY_PAIR	n/a	wordpools/wordpool_EN.txt	2	-999	n/a	ROAD	ROAD	PIPE	2	[0, 0, 0]	-999	PAL1	2	R1307N
507.541	0.561	372950	STUDY_PAIR_OFF	n/a	n/a	2	-999	n/a	ROAD	ROAD	PIPE	2	[0, 0, 0]	-999	PAL1	2	R1307N
508.102	4.0	373511	STUDY_PAIR	n/a	wordpools/wordpool_EN.txt	3	-999	n/a	FOOT	FOOT	CHIN	2	[0, 0, 0]	-999	PAL1	2	R1307N
512.141	0.571	377549	STUDY_PAIR_OFF	n/a	n/a	3	-999	n/a	FOOT	FOOT	CHIN	2	[0, 0, 0]	-999	PAL1	2	R1307N
512.712	4.0	378120	STUDY_PAIR	n/a	wordpools/wordpool_EN.txt	4	-999	n/a	n/a	SQUARE	SOCK	2	[0, 0, 0]	-999	PAL1	2	R1307N
516.742	0.737	382150	STUDY_PAIR_OFF	n/a	n/a	4	-999	n/a	n/a	SQUARE	SOCK	2	[0, 0, 0]	-999	PAL1	2	R1307N
517.479	4.0	382887	STUDY_PAIR	n/a	wordpools/wordpool_EN.txt	5	-999	n/a	TAIL	SNAIL	BOMB	2	[0, 0, 0]	-999	PAL1	2	R1307N
521.51	0.543	386918	STUDY_PAIR_OFF	n/a	n/a	5	-999	n/a	TAIL	SNAIL	BOMB	2	[0, 0, 0]	-999	PAL1	2	R1307N
522.053	4.0	387461	STUDY_PAIR	n/a	wordpools/wordpool_EN.txt	6	-999	n/a	n/a	WOLF	STEAK	2	[0, 0, 0]	-999	PAL1	2	R1307N
526.077	0.0	391485	MATH_START	n/a	n/a	-999	-999	n/a	n/a	n/a	n/a	2	[0, 0, 0]	-999	PAL1	2	R1307N
526.077	0.0	391485	ENCODING_END	n/a	n/a	-999	-999	n/a	n/a	n/a	n/a	2	[0, 0, 0]	-999	PAL1	2	R1307N
526.077	0.002	391485	STUDY_PAIR_OFF	n/a	n/a	6	-999	n/a	n/a	WOLF	STEAK	2	[0, 0, 0]	-999	PAL1	2	R1307N
526.079	0.015	391487	START	n/a	n/a	-999	-999	n/a	n/a	n/a	n/a	2	[-999, -999, -999]	-999	PAL1	2	R1307N
526.094	5.602	391502	PROB	5.565	n/a	-999	-999	n/a	n/a	n/a	n/a	2	[2, 7, 9]	18	PAL1	2	R1307N
531.696	3.049	397104	PROB	3.019	n/a	-999	-999	n/a	n/a	n/a	n/a	2	[5, 1, 1]	7	PAL1	2	R1307N
534.745	12.113	400153	PROB	12.113	n/a	-999	-999	n/a	n/a	n/a	n/a	2	[8, 6, 9]	23	PAL1	2	R1307N
546.858	0.006	412265	STOP	n/a	n/a	-999	-999	n/a	n/a	n/a	n/a	2	[-999, -999, -999]	-999	PAL1	2	R1307N
546.864	0.692	412271	MATH_END	n/a	n/a	-999	-999	n/a	n/a	n/a	n/a	2	[0, 0, 0]	-999	PAL1	2	R1307N
547.556	0.0	412963	RETRIEVAL_START	n/a	n/a	-999	-999	n/a	n/a	n/a	n/a	2	[0, 0, 0]	-999	PAL1	2	R1307N
547.556	0.275	412963	ORIENT_START	n/a	n/a	-999	-999	n/a	n/a	n/a	n/a	2	[0, 0, 0]	-999	PAL1	2	R1307N
547.831	0.724	413238	ORIENT_END	n/a	n/a	-999	-999	n/a	n/a	n/a	n/a	2	[0, 0, 0]	-999	PAL1	2	R1307N
548.555	0.0	413962	REC_START	n/a	n/a	1	1	LEAF	n/a	LEAF	FOAM	2	[0, 0, 0]	-999	PAL1	2	R1307N
548.555	4.0	413962	PROBE_START	n/a	wordpools/wordpool_EN.txt	1	1	LEAF	n/a	LEAF	FOAM	2	[0, 0, 0]	-999	PAL1	2	R1307N
552.582	1.0	417989	PROBE_END	n/a	n/a	1	1	LEAF	n/a	LEAF	FOAM	2	[0, 0, 0]	-999	PAL1	2	R1307N
553.582	0.0	418989	REC_END	n/a	n/a	1	1	LEAF	n/a	LEAF	FOAM	2	[0, 0, 0]	-999	PAL1	2	R1307N
553.582	0.283	418989	ORIENT_START	n/a	n/a	-999	-999	n/a	n/a	n/a	n/a	2	[0, 0, 0]	-999	PAL1	2	R1307N
553.865	0.635	419272	ORIENT_END	n/a	n/a	-999	-999	n/a	n/a	n/a	n/a	2	[0, 0, 0]	-999	PAL1	2	R1307N
554.5	0.0	419907	REC_START	n/a	n/a	2	2	PIPE	ROAD	ROAD	PIPE	2	[0, 0, 0]	-999	PAL1	2	R1307N
554.5	4.0	419907	PROBE_START	n/a	wordpools/wordpool_EN.txt	2	2	PIPE	ROAD	ROAD	PIPE	2	[0, 0, 0]	-999	PAL1	2	R1307N
554.58	3.65	419987	REC_EVENT	6.025	n/a	1	1	LEAF	<>	LEAF	FOAM	2	[0, 0, 0]	-999	PAL1	2	R1307N
558.23	0.302	423637	REC_EVENT	3.73	n/a	2	2	PIPE	ROAD	ROAD	PIPE	2	[0, 0, 0]	-999	PAL1	2	R1307N
558.532	1.0	423939	PROBE_END	n/a	n/a	2	2	PIPE	n/a	ROAD	PIPE	2	[0, 0, 0]	-999	PAL1	2	R1307N
559.532	0.0	424939	REC_END	n/a	n/a	2	2	PIPE	n/a	ROAD	PIPE	2	[0, 0, 0]	-999	PAL1	2	R1307N
559.532	0.284	424939	ORIENT_START	n/a	n/a	-999	-999	n/a	n/a	n/a	n/a	2	[0, 0, 0]	-999	PAL1	2	R1307N
559.816	0.724	425223	ORIENT_END	n/a	n/a	-999	-999	n/a	n/a	n/a	n/a	2	[0, 0, 0]	-999	PAL1	2	R1307N
560.54	0.0	425947	REC_START	n/a	n/a	3	3	CHIN	FOOT	FOOT	CHIN	2	[0, 0, 0]	-999	PAL1	2	R1307N
560.54	4.0	425947	PROBE_START	n/a	wordpools/wordpool_EN.txt	3	3	CHIN	FOOT	FOOT	CHIN	2	[0, 0, 0]	-999	PAL1	2	R1307N
563.78	0.788	429187	REC_EVENT	3.24	n/a	3	3	CHIN	FOOT	FOOT	CHIN	2	[0, 0, 0]	-999	PAL1	2	R1307N
564.568	1.0	429975	PROBE_END	n/a	n/a	3	3	CHIN	n/a	FOOT	CHIN	2	[0, 0, 0]	-999	PAL1	2	R1307N
565.568	0.0	430975	ORIENT_START	n/a	n/a	-999	-999	n/a	n/a	n/a	n/a	2	[0, 0, 0]	-999	PAL1	2	R1307N
565.568	0.282	430975	REC_END	n/a	n/a	3	3	CHIN	n/a	FOOT	CHIN	2	[0, 0, 0]	-999	PAL1	2	R1307N
565.85	0.724	431257	ORIENT_END	n/a	n/a	-999	-999	n/a	n/a	n/a	n/a	2	[0, 0, 0]	-999	PAL1	2	R1307N
566.574	4.0	431981	PROBE_START	n/a	wordpools/wordpool_EN.txt	4	4	SQUARE	n/a	SQUARE	SOCK	2	[0, 0, 0]	-999	PAL1	2	R1307N
566.574	4.028	431981	REC_START	n/a	n/a	4	4	SQUARE	n/a	SQUARE	SOCK	2	[0, 0, 0]	-999	PAL1	2	R1307N
570.602	1.0	436008	PROBE_END	n/a	n/a	4	4	SQUARE	n/a	SQUARE	SOCK	2	[0, 0, 0]	-999	PAL1	2	R1307N
571.602	0.0	437008	REC_END	n/a	n/a	4	4	SQUARE	n/a	SQUARE	SOCK	2	[0, 0, 0]	-999	PAL1	2	R1307N
571.602	0.283	437008	ORIENT_START	n/a	n/a	-999	-999	n/a	n/a	n/a	n/a	2	[0, 0, 0]	-999	PAL1	2	R1307N
571.885	0.572	437291	ORIENT_END	n/a	n/a	-999	-999	n/a	n/a	n/a	n/a	2	[0, 0, 0]	-999	PAL1	2	R1307N
572.457	0.0	437863	REC_START	n/a	n/a	5	5	SNAIL	TAIL	SNAIL	BOMB	2	[0, 0, 0]	-999	PAL1	2	R1307N
572.457	4.0	437863	PROBE_START	n/a	wordpools/wordpool_EN.txt	5	5	SNAIL	TAIL	SNAIL	BOMB	2	[0, 0, 0]	-999	PAL1	2	R1307N
572.599	3.886	438005	REC_EVENT	6.025	n/a	4	4	SQUARE	<>	SQUARE	SOCK	2	[0, 0, 0]	-999	PAL1	2	R1307N
576.485	0.306	441891	PROBE_END	n/a	n/a	5	5	SNAIL	n/a	SNAIL	BOMB	2	[0, 0, 0]	-999	PAL1	2	R1307N
576.791	0.694	442197	REC_EVENT	4.334	n/a	5	5	SNAIL	TAIL	SNAIL	BOMB	2	[0, 0, 0]	-999	PAL1	2	R1307N
577.485	0.0	442891	ORIENT_START	n/a	n/a	-999	-999	n/a	n/a	n/a	n/a	2	[0, 0, 0]	-999	PAL1	2	R1307N
577.485	0.284	442891	REC_END	n/a	n/a	5	5	SNAIL	n/a	SNAIL	BOMB	2	[0, 0, 0]	-999	PAL1	2	R1307N
577.769	0.585	443175	ORIENT_END	n/a	n/a	-999	-999	n/a	n/a	n/a	n/a	2	[0, 0, 0]	-999	PAL1	2	R1307N
578.354	4.0	443760	PROBE_START	n/a	wordpools/wordpool_EN.txt	6	6	STEAK	n/a	WOLF	STEAK	2	[0, 0, 0]	-999	PAL1	2	R1307N
578.354	4.032	443760	REC_START	n/a	n/a	6	6	STEAK	n/a	WOLF	STEAK	2	[0, 0, 0]	-999	PAL1	2	R1307N
582.386	1.0	447792	PROBE_END	n/a	n/a	6	6	STEAK	n/a	WOLF	STEAK	2	[0, 0, 0]	-999	PAL1	2	R1307N
583.386	0.0	448792	REC_END	n/a	n/a	6	6	STEAK	n/a	WOLF	STEAK	2	[0, 0, 0]	-999	PAL1	2	R1307N
583.386	0.0	448792	RETRIEVAL_END	n/a	n/a	-999	-999	n/a	n/a	n/a	n/a	2	[0, 0, 0]	-999	PAL1	2	R1307N
583.386	0.0	448792	TRIAL_END	n/a	n/a	-999	-999	n/a	n/a	n/a	n/a	2	[0, 0, 0]	-999	PAL1	2	R1307N
583.386	0.0	448792	TRIAL_START	n/a	n/a	-999	-999	n/a	n/a	n/a	n/a	2	[0, 0, 0]	-999	PAL1	2	R1307N
583.386	0.0	448792	TRIAL	n/a	n/a	-999	-999	n/a	n/a	n/a	n/a	3	[0, 0, 0]	-999	PAL1	2	R1307N
583.386	0.854	448792	WAITING_START	n/a	n/a	-999	-999	n/a	n/a	n/a	n/a	3	[0, 0, 0]	-999	PAL1	2	R1307N
584.24	0.713	449646	REC_EVENT	5.886	n/a	6	6	STEAK	<>	WOLF	STEAK	2	[0, 0, 0]	-999	PAL1	2	R1307N
584.953	10.0	450359	COUNTDOWN_START	n/a	n/a	-999	-999	n/a	n/a	n/a	n/a	3	[0, 0, 0]	-999	PAL1	2	R1307N
584.953	0.0	450359	COUNTDOWN_END	n/a	n/a	-999	-999	n/a	n/a	n/a	n/a	3	[0, 0, 0]	-999	PAL1	2	R1307N
584.953	0.0	450359	WAITING_END	n/a	n/a	-999	-999	n/a	n/a	n/a	n/a	3	[0, 0, 0]	-999	PAL1	2	R1307N
584.953	11.469	450359	ORIENT_START	n/a	n/a	-999	-999	n/a	n/a	n/a	n/a	3	[0, 0, 0]	-999	PAL1	2	R1307N
596.422	0.0	461827	ORIENT_END	n/a	n/a	-999	-999	n/a	n/a	n/a	n/a	3	[0, 0, 0]	-999	PAL1	2	R1307N
596.422	0.704	461827	ENCODING_START	n/a	n/a	-999	-999	n/a	n/a	n/a	n/a	3	[0, 0, 0]	-999	PAL1	2	R1307N
597.126	4.0	462531	STUDY_PAIR	n/a	wordpools/wordpool_EN.txt	1	-999	n/a	n/a	JEEP	WING	3	[0, 0, 0]	-999	PAL1	2	R1307N
601.156	0.555	466561	STUDY_PAIR_OFF	n/a	n/a	1	-999	n/a	n/a	JEEP	WING	3	[0, 0, 0]	-999	PAL1	2	R1307N
601.711	4.0	467116	STUDY_PAIR	n/a	wordpools/wordpool_EN.txt	2	-999	n/a	BOARD	SIGN	BOWL	3	[0, 0, 0]	-999	PAL1	2	R1307N
605.74	0.541	471145	STUDY_PAIR_OFF	n/a	n/a	2	-999	n/a	BOARD	SIGN	BOWL	3	[0, 0, 0]	-999	PAL1	2	R1307N
606.281	4.0	471686	STUDY_PAIR	n/a	wordpools/wordpool_EN.txt	3	-999	n/a	n/a	CROW	HEART	3	[0, 0, 0]	-999	PAL1	2	R1307N
610.308	0.521	475713	STUDY_PAIR_OFF	n/a	n/a	3	-999	n/a	n/a	CROW	HEART	3	[0, 0, 0]	-999	PAL1	2	R1307N
610.829	4.0	476234	STUDY_PAIR	n/a	wordpools/wordpool_EN.txt	4	-999	n/a	n/a	STAIR	BEAR	3	[0, 0, 0]	-999	PAL1	2	R1307N
614.842	0.593	480247	STUDY_PAIR_OFF	n/a	n/a	4	-999	n/a	n/a	STAIR	BEAR	3	[0, 0, 0]	-999	PAL1	2	R1307N
615.435	4.0	480840	STUDY_PAIR	n/a	wordpools/wordpool_EN.txt	5	-999	n/a	LEAF	ELF	LIP	3	[0, 0, 0]	-999	PAL1	2	R1307N
619.459	0.562	484864	STUDY_PAIR_OFF	n/a	n/a	5	-999	n/a	LEAF	ELF	LIP	3	[0, 0, 0]	-999	PAL1	2	R1307N
620.021	4.0	485426	STUDY_PAIR	n/a	wordpools/wordpool_EN.txt	6	-999	n/a	n/a	SKY	KITE	3	[0, 0, 0]	-999	PAL1	2	R1307N
624.06	0.0	489464	STUDY_PAIR_OFF	n/a	n/a	6	-999	n/a	n/a	SKY	KITE	3	[0, 0, 0]	-999	PAL1	2	R1307N
624.06	0.0	489464	ENCODING_END	n/a	n/a	-999	-999	n/a	n/a	n/a	n/a	3	[0, 0, 0]	-999	PAL1	2	R1307N
624.06	0.001	489464	MATH_START	n/a	n/a	-999	-999	n/a	n/a	n/a	n/a	3	[0, 0, 0]	-999	PAL1	2	R1307N
624.061	0.016	489465	START	n/a	n/a	-999	-999	n/a	n/a	n/a	n/a	3	[-999, -999, -999]	-999	PAL1	2	R1307N
624.077	11.868	489481	PROB	11.845	n/a	-999	-999	n/a	n/a	n/a	n/a	3	[9, 6, 6]	21	PAL1	2	R1307N
635.945	7.351	501349	PROB	7.321	n/a	-999	-999	n/a	n/a	n/a	n/a	3	[6, 9, 6]	21	PAL1	2	R1307N
643.296	3.411	508700	PROB	3.411	n/a	-999	-999	n/a	n/a	n/a	n/a	3	[1, 6, 5]	12	PAL1	2	R1307N
646.707	0.008	512111	STOP	n/a	n/a	-999	-999	n/a	n/a	n/a	n/a	3	[-999, -999, -999]	-999	PAL1	2	R1307N
646.715	0.508	512119	MATH_END	n/a	n/a	-999	-999	n/a	n/a	n/a	n/a	3	[0, 0, 0]	-999	PAL1	2	R1307N
647.223	0.0	512627	ORIENT_START	n/a	n/a	-999	-999	n/a	n/a	n/a	n/a	3	[0, 0, 0]	-999	PAL1	2	R1307N
647.223	0.274	512627	RETRIEVAL_START	n/a	n/a	-999	-999	n/a	n/a	n/a	n/a	3	[0, 0, 0]	-999	PAL1	2	R1307N
647.497	0.608	512901	ORIENT_END	n/a	n/a	-999	-999	n/a	n/a	n/a	n/a	3	[0, 0, 0]	-999	PAL1	2	R1307N
648.105	0.0	513509	REC_START	n/a	n/a	1	1	WING	n/a	JEEP	WING	3	[0, 0, 0]	-999	PAL1	2	R1307N
648.105	4.0	513509	PROBE_START	n/a	wordpools/wordpool_EN.txt	1	1	WING	n/a	JEEP	WING	3	[0, 0, 0]	-999	PAL1	2	R1307N
652.131	1.0	517534	PROBE_END	n/a	n/a	1	1	WING	n/a	JEEP	WING	3	[0, 0, 0]	-999	PAL1	2	R1307N
653.131	0.0	518534	REC_END	n/a	n/a	1	1	WING	n/a	JEEP	WING	3	[0, 0, 0]	-999	PAL1	2	R1307N
653.131	0.284	518534	ORIENT_START	n/a	n/a	-999	-999	n/a	n/a	n/a	n/a	3	[0, 0, 0]	-999	PAL1	2	R1307N
653.415	0.599	518818	ORIENT_END	n/a	n/a	-999	-999	n/a	n/a	n/a	n/a	3	[0, 0, 0]	-999	PAL1	2	R1307N
654.014	0.144	519417	REC_EVENT	5.909	n/a	1	1	WING	<>	JEEP	WING	3	[0, 0, 0]	-999	PAL1	2	R1307N
654.158	0.0	519561	REC_START	n/a	n/a	4	2	BEAR	n/a	STAIR	BEAR	3	[0, 0, 0]	-999	PAL1	2	R1307N
654.158	4.0	519561	PROBE_START	n/a	wordpools/wordpool_EN.txt	4	2	BEAR	n/a	STAIR	BEAR	3	[0, 0, 0]	-999	PAL1	2	R1307N
658.182	1.0	523585	PROBE_END	n/a	n/a	4	2	BEAR	n/a	STAIR	BEAR	3	[0, 0, 0]	-999	PAL1	2	R1307N
659.182	0.0	524585	ORIENT_START	n/a	n/a	-999	-999	n/a	n/a	n/a	n/a	3	[0, 0, 0]	-999	PAL1	2	R1307N
659.182	0.284	524585	REC_END	n/a	n/a	4	2	BEAR	n/a	STAIR	BEAR	3	[0, 0, 0]	-999	PAL1	2	R1307N
659.466	0.566	524869	ORIENT_END	n/a	n/a	-999	-999	n/a	n/a	n/a	n/a	3	[0, 0, 0]	-999	PAL1	2	R1307N
660.032	4.0	525435	PROBE_START	n/a	wordpools/wordpool_EN.txt	5	3	ELF	LEAF	ELF	LIP	3	[0, 0, 0]	-999	PAL1	2	R1307N
660.032	0.163	525435	REC_START	n/a	n/a	5	3	ELF	LEAF	ELF	LIP	3	[0, 0, 0]	-999	PAL1	2	R1307N
660.195	2.639	525598	REC_EVENT	6.037	n/a	4	2	BEAR	<>	STAIR	BEAR	3	[0, 0, 0]	-999	PAL1	2	R1307N
662.834	1.233	528237	REC_EVENT	2.802	n/a	5	3	ELF	LEAF	ELF	LIP	3	[0, 0, 0]	-999	PAL1	2	R1307N
664.067	1.0	529470	PROBE_END	n/a	n/a	5	3	ELF	n/a	ELF	LIP	3	[0, 0, 0]	-999	PAL1	2	R1307N
665.067	0.0	530470	REC_END	n/a	n/a	5	3	ELF	n/a	ELF	LIP	3	[0, 0, 0]	-999	PAL1	2	R1307N
665.067	0.283	530470	ORIENT_START	n/a	n/a	-999	-999	n/a	n/a	n/a	n/a	3	[0, 0, 0]	-999	PAL1	2	R1307N
665.35	0.718	530753	ORIENT_END	n/a	n/a	-999	-999	n/a	n/a	n/a	n/a	3	[0, 0, 0]	-999	PAL1	2	R1307N
666.068	0.0	531471	REC_START	n/a	n/a	2	4	SIGN	BOARD	SIGN	BOWL	3	[0, 0, 0]	-999	PAL1	2	R1307N
666.068	4.0	531471	PROBE_START	n/a	wordpools/wordpool_EN.txt	2	4	SIGN	BOARD	SIGN	BOWL	3	[0, 0, 0]	-999	PAL1	2	R1307N
668.494	1.607	533897	REC_EVENT	2.426	n/a	2	4	SIGN	BOARD	SIGN	BOWL	3	[0, 0, 0]	-999	PAL1	2	R1307N
670.101	1.0	535504	PROBE_END	n/a	n/a	2	4	SIGN	n/a	SIGN	BOWL	3	[0, 0, 0]	-999	PAL1	2	R1307N
671.101	0.0	536504	ORIENT_START	n/a	n/a	-999	-999	n/a	n/a	n/a	n/a	3	[0, 0, 0]	-999	PAL1	2	R1307N
671.101	0.283	536504	REC_END	n/a	n/a	2	4	SIGN	n/a	SIGN	BOWL	3	[0, 0, 0]	-999	PAL1	2	R1307N
671.384	0.637	536787	ORIENT_END	n/a	n/a	-999	-999	n/a	n/a	n/a	n/a	3	[0, 0, 0]	-999	PAL1	2	R1307N
672.021	0.0	537424	REC_START	n/a	n/a	3	5	HEART	n/a	CROW	HEART	3	[0, 0, 0]	-999	PAL1	2	R1307N
672.021	4.0	537424	PROBE_START	n/a	wordpools/wordpool_EN.txt	3	5	HEART	n/a	CROW	HEART	3	[0, 0, 0]	-999	PAL1	2	R1307N
676.052	1.0	541455	PROBE_END	n/a	n/a	3	5	HEART	n/a	CROW	HEART	3	[0, 0, 0]	-999	PAL1	2	R1307N
677.052	0.0	542455	REC_END	n/a	n/a	3	5	HEART	n/a	CROW	HEART	3	[0, 0, 0]	-999	PAL1	2	R1307N
677.052	0.283	542455	ORIENT_START	n/a	n/a	-999	-999	n/a	n/a	n/a	n/a	3	[0, 0, 0]	-999	PAL1	2	R1307N
677.335	0.63	542738	ORIENT_END	n/a	n/a	-999	-999	n/a	n/a	n/a	n/a	3	[0, 0, 0]	-999	PAL1	2	R1307N
677.965	0.095	543367	REC_EVENT	5.944	n/a	3	5	HEART	<>	CROW	HEART	3	[0, 0, 0]	-999	PAL1	2	R1307N
678.06	0.0	543462	REC_START	n/a	n/a	6	6	SKY	n/a	SKY	KITE	3	[0, 0, 0]	-999	PAL1	2	R1307N
678.06	4.0	543462	PROBE_START	n/a	wordpools/wordpool_EN.txt	6	6	SKY	n/a	SKY	KITE	3	[0, 0, 0]	-999	PAL1	2	R1307N
682.086	1.0	547488	PROBE_END	n/a	n/a	6	6	SKY	n/a	SKY	KITE	3	[0, 0, 0]	-999	PAL1	2	R1307N
683.086	0.0	548488	REC_END	n/a	n/a	6	6	SKY	n/a	SKY	KITE	3	[0, 0, 0]	-999	PAL1	2	R1307N
683.086	0.0	548488	RETRIEVAL_END	n/a	n/a	-999	-999	n/a	n/a	n/a	n/a	3	[0, 0, 0]	-999	PAL1	2	R1307N
683.086	0.0	548488	TRIAL_END	n/a	n/a	-999	-999	n/a	n/a	n/a	n/a	3	[0, 0, 0]	-999	PAL1	2	R1307N
683.086	0.0	548488	TRIAL_START	n/a	n/a	-999	-999	n/a	n/a	n/a	n/a	3	[0, 0, 0]	-999	PAL1	2	R1307N
683.086	0.0	548488	TRIAL	n/a	n/a	-999	-999	n/a	n/a	n/a	n/a	4	[0, 0, 0]	-999	PAL1	2	R1307N
683.086	0.999	548488	WAITING_START	n/a	n/a	-999	-999	n/a	n/a	n/a	n/a	4	[0, 0, 0]	-999	PAL1	2	R1307N
684.085	0.402	549487	REC_EVENT	6.025	n/a	6	6	SKY	<>	SKY	KITE	3	[0, 0, 0]	-999	PAL1	2	R1307N
684.487	0.0	549889	WAITING_END	n/a	n/a	-999	-999	n/a	n/a	n/a	n/a	4	[0, 0, 0]	-999	PAL1	2	R1307N
684.487	10.0	549889	COUNTDOWN_START	n/a	n/a	-999	-999	n/a	n/a	n/a	n/a	4	[0, 0, 0]	-999	PAL1	2	R1307N
684.487	0.0	549889	COUNTDOWN_END	n/a	n/a	-999	-999	n/a	n/a	n/a	n/a	4	[0, 0, 0]	-999	PAL1	2	R1307N
684.487	11.518	549889	ORIENT_START	n/a	n/a	-999	-999	n/a	n/a	n/a	n/a	4	[0, 0, 0]	-999	PAL1	2	R1307N
696.005	0.0	561407	ORIENT_END	n/a	n/a	-999	-999	n/a	n/a	n/a	n/a	4	[0, 0, 0]	-999	PAL1	2	R1307N
696.005	0.588	561407	ENCODING_START	n/a	n/a	-999	-999	n/a	n/a	n/a	n/a	4	[0, 0, 0]	-999	PAL1	2	R1307N
696.593	4.0	561995	STUDY_PAIR	n/a	wordpools/wordpool_EN.txt	1	-999	n/a	n/a	STORE	DRUM	4	[0, 0, 0]	-999	PAL1	2	R1307N
700.624	0.515	566026	STUDY_PAIR_OFF	n/a	n/a	1	-999	n/a	n/a	STORE	DRUM	4	[0, 0, 0]	-999	PAL1	2	R1307N
701.139	4.0	566541	STUDY_PAIR	n/a	wordpools/wordpool_EN.txt	2	-999	n/a	n/a	BRUSH	BAND	4	[0, 0, 0]	-999	PAL1	2	R1307N
705.173	0.715	570575	STUDY_PAIR_OFF	n/a	n/a	2	-999	n/a	n/a	BRUSH	BAND	4	[0, 0, 0]	-999	PAL1	2	R1307N
705.888	4.0	571289	STUDY_PAIR	n/a	wordpools/wordpool_EN.txt	3	-999	n/a	n/a	BEAK	FLOOR	4	[0, 0, 0]	-999	PAL1	2	R1307N
709.924	0.558	575325	STUDY_PAIR_OFF	n/a	n/a	3	-999	n/a	n/a	BEAK	FLOOR	4	[0, 0, 0]	-999	PAL1	2	R1307N
710.482	4.0	575883	STUDY_PAIR	n/a	wordpools/wordpool_EN.txt	4	-999	n/a	n/a	BLUSH	INK	4	[0, 0, 0]	-999	PAL1	2	R1307N
714.508	0.685	579909	STUDY_PAIR_OFF	n/a	n/a	4	-999	n/a	n/a	BLUSH	INK	4	[0, 0, 0]	-999	PAL1	2	R1307N
715.193	4.0	580594	STUDY_PAIR	n/a	wordpools/wordpool_EN.txt	5	-999	n/a	n/a	GUARD	COIN	4	[0, 0, 0]	-999	PAL1	2	R1307N
719.226	0.525	584627	STUDY_PAIR_OFF	n/a	n/a	5	-999	n/a	n/a	GUARD	COIN	4	[0, 0, 0]	-999	PAL1	2	R1307N
719.751	4.0	585152	STUDY_PAIR	n/a	wordpools/wordpool_EN.txt	6	-999	n/a	n/a	ROSE	PEN	4	[0, 0, 0]	-999	PAL1	2	R1307N
723.776	0.0	589177	STUDY_PAIR_OFF	n/a	n/a	6	-999	n/a	n/a	ROSE	PEN	4	[0, 0, 0]	-999	PAL1	2	R1307N
723.776	0.0	589177	ENCODING_END	n/a	n/a	-999	-999	n/a	n/a	n/a	n/a	4	[0, 0, 0]	-999	PAL1	2	R1307N
723.776	0.002	589177	MATH_START	n/a	n/a	-999	-999	n/a	n/a	n/a	n/a	4	[0, 0, 0]	-999	PAL1	2	R1307N
723.778	0.015	589179	START	n/a	n/a	-999	-999	n/a	n/a	n/a	n/a	4	[-999, -999, -999]	-999	PAL1	2	R1307N
723.793	5.401	589194	PROB	5.37	n/a	-999	-999	n/a	n/a	n/a	n/a	4	[1, 5, 6]	12	PAL1	2	R1307N
729.194	3.967	594595	PROB	3.944	n/a	-999	-999	n/a	n/a	n/a	n/a	4	[3, 7, 7]	17	PAL1	2	R1307N
733.161	5.201	598561	PROB	5.163	n/a	-999	-999	n/a	n/a	n/a	n/a	4	[7, 9, 2]	18	PAL1	2	R1307N
738.362	6.186	603762	PROB	6.186	n/a	-999	-999	n/a	n/a	n/a	n/a	4	[3, 2, 1]	6	PAL1	2	R1307N
744.548	0.016	609948	STOP	n/a	n/a	-999	-999	n/a	n/a	n/a	n/a	4	[-999, -999, -999]	-999	PAL1	2	R1307N
744.564	0.561	609964	MATH_END	n/a	n/a	-999	-999	n/a	n/a	n/a	n/a	4	[0, 0, 0]	-999	PAL1	2	R1307N
745.125	0.0	610525	RETRIEVAL_START	n/a	n/a	-999	-999	n/a	n/a	n/a	n/a	4	[0, 0, 0]	-999	PAL1	2	R1307N
745.125	0.272	610525	ORIENT_START	n/a	n/a	-999	-999	n/a	n/a	n/a	n/a	4	[0, 0, 0]	-999	PAL1	2	R1307N
745.397	0.636	610797	ORIENT_END	n/a	n/a	-999	-999	n/a	n/a	n/a	n/a	4	[0, 0, 0]	-999	PAL1	2	R1307N
746.033	0.0	611433	REC_START	n/a	n/a	3	1	FLOOR	n/a	BEAK	FLOOR	4	[0, 0, 0]	-999	PAL1	2	R1307N
746.033	4.0	611433	PROBE_START	n/a	wordpools/wordpool_EN.txt	3	1	FLOOR	n/a	BEAK	FLOOR	4	[0, 0, 0]	-999	PAL1	2	R1307N
750.064	1.0	615464	PROBE_END	n/a	n/a	3	1	FLOOR	n/a	BEAK	FLOOR	4	[0, 0, 0]	-999	PAL1	2	R1307N
751.064	0.0	616464	REC_END	n/a	n/a	3	1	FLOOR	n/a	BEAK	FLOOR	4	[0, 0, 0]	-999	PAL1	2	R1307N
751.064	0.284	616464	ORIENT_START	n/a	n/a	-999	-999	n/a	n/a	n/a	n/a	4	[0, 0, 0]	-999	PAL1	2	R1307N
751.348	0.563	616748	ORIENT_END	n/a	n/a	-999	-999	n/a	n/a	n/a	n/a	4	[0, 0, 0]	-999	PAL1	2	R1307N
751.911	0.0	617311	REC_START	n/a	n/a	6	2	PEN	n/a	ROSE	PEN	4	[0, 0, 0]	-999	PAL1	2	R1307N
751.911	4.0	617311	PROBE_START	n/a	wordpools/wordpool_EN.txt	6	2	PEN	n/a	ROSE	PEN	4	[0, 0, 0]	-999	PAL1	2	R1307N
751.971	3.977	617371	REC_EVENT	5.938	n/a	3	1	FLOOR	<>	BEAK	FLOOR	4	[0, 0, 0]	-999	PAL1	2	R1307N
755.948	1.0	621348	PROBE_END	n/a	n/a	6	2	PEN	n/a	ROSE	PEN	4	[0, 0, 0]	-999	PAL1	2	R1307N
756.948	0.0	622348	REC_END	n/a	n/a	6	2	PEN	n/a	ROSE	PEN	4	[0, 0, 0]	-999	PAL1	2	R1307N
756.948	0.284	622348	ORIENT_START	n/a	n/a	-999	-999	n/a	n/a	n/a	n/a	4	[0, 0, 0]	-999	PAL1	2	R1307N
757.232	0.553	622632	ORIENT_END	n/a	n/a	-999	-999	n/a	n/a	n/a	n/a	4	[0, 0, 0]	-999	PAL1	2	R1307N
757.785	0.039	623185	REC_EVENT	5.874	n/a	6	2	PEN	<>	ROSE	PEN	4	[0, 0, 0]	-999	PAL1	2	R1307N
757.824	0.0	623224	REC_START	n/a	n/a	1	3	STORE	n/a	STORE	DRUM	4	[0, 0, 0]	-999	PAL1	2	R1307N
757.824	4.0	623224	PROBE_START	n/a	wordpools/wordpool_EN.txt	1	3	STORE	n/a	STORE	DRUM	4	[0, 0, 0]	-999	PAL1	2	R1307N
761.849	1.0	627248	PROBE_END	n/a	n/a	1	3	STORE	n/a	STORE	DRUM	4	[0, 0, 0]	-999	PAL1	2	R1307N
762.849	0.0	628248	REC_END	n/a	n/a	1	3	STORE	n/a	STORE	DRUM	4	[0, 0, 0]	-999	PAL1	2	R1307N
762.849	0.284	628248	ORIENT_START	n/a	n/a	-999	-999	n/a	n/a	n/a	n/a	4	[0, 0, 0]	-999	PAL1	2	R1307N
763.133	0.551	628532	ORIENT_END	n/a	n/a	-999	-999	n/a	n/a	n/a	n/a	4	[0, 0, 0]	-999	PAL1	2	R1307N
763.684	0.0	629083	REC_START	n/a	n/a	4	4	BLUSH	n/a	BLUSH	INK	4	[0, 0, 0]	-999	PAL1	2	R1307N
763.684	4.0	629083	PROBE_START	n/a	wordpools/wordpool_EN.txt	4	4	BLUSH	n/a	BLUSH	INK	4	[0, 0, 0]	-999	PAL1	2	R1307N
763.71	4.008	629109	REC_EVENT	5.886	n/a	1	3	STORE	<>	STORE	DRUM	4	[0, 0, 0]	-999	PAL1	2	R1307N
767.718	1.0	633117	PROBE_END	n/a	n/a	4	4	BLUSH	n/a	BLUSH	INK	4	[0, 0, 0]	-999	PAL1	2	R1307N
768.718	0.0	634117	ORIENT_START	n/a	n/a	-999	-999	n/a	n/a	n/a	n/a	4	[0, 0, 0]	-999	PAL1	2	R1307N
768.718	0.283	634117	REC_END	n/a	n/a	4	4	BLUSH	n/a	BLUSH	INK	4	[0, 0, 0]	-999	PAL1	2	R1307N
769.001	0.54	634400	ORIENT_END	n/a	n/a	-999	-999	n/a	n/a	n/a	n/a	4	[0, 0, 0]	-999	PAL1	2	R1307N
769.541	0.091	634940	REC_EVENT	5.857	n/a	4	4	BLUSH	<>	BLUSH	INK	4	[0, 0, 0]	-999	PAL1	2	R1307N
769.632	0.0	635031	REC_START	n/a	n/a	5	5	COIN	n/a	GUARD	COIN	4	[0, 0, 0]	-999	PAL1	2	R1307N
769.632	4.0	635031	PROBE_START	n/a	wordpools/wordpool_EN.txt	5	5	COIN	n/a	GUARD	COIN	4	[0, 0, 0]	-999	PAL1	2	R1307N
773.669	1.0	639068	PROBE_END	n/a	n/a	5	5	COIN	n/a	GUARD	COIN	4	[0, 0, 0]	-999	PAL1	2	R1307N
774.669	0.0	640068	REC_END	n/a	n/a	5	5	COIN	n/a	GUARD	COIN	4	[0, 0, 0]	-999	PAL1	2	R1307N
774.669	0.283	640068	ORIENT_START	n/a	n/a	-999	-999	n/a	n/a	n/a	n/a	4	[0, 0, 0]	-999	PAL1	2	R1307N
774.952	0.618	640351	ORIENT_END	n/a	n/a	-999	-999	n/a	n/a	n/a	n/a	4	[0, 0, 0]	-999	PAL1	2	R1307N
775.57	0.074	640969	REC_EVENT	5.938	n/a	5	5	COIN	<>	GUARD	COIN	4	[0, 0, 0]	-999	PAL1	2	R1307N
775.644	0.0	641043	REC_START	n/a	n/a	2	6	BRUSH	n/a	BRUSH	BAND	4	[0, 0, 0]	-999	PAL1	2	R1307N
775.644	4.0	641043	PROBE_START	n/a	wordpools/wordpool_EN.txt	2	6	BRUSH	n/a	BRUSH	BAND	4	[0, 0, 0]	-999	PAL1	2	R1307N
779.67	1.0	645069	PROBE_END	n/a	n/a	2	6	BRUSH	n/a	BRUSH	BAND	4	[0, 0, 0]	-999	PAL1	2	R1307N
780.67	0.0	646069	REC_END	n/a	n/a	2	6	BRUSH	n/a	BRUSH	BAND	4	[0, 0, 0]	-999	PAL1	2	R1307N
780.67	0.0	646069	RETRIEVAL_END	n/a	n/a	-999	-999	n/a	n/a	n/a	n/a	4	[0, 0, 0]	-999	PAL1	2	R1307N
780.67	0.0	646069	TRIAL_END	n/a	n/a	-999	-999	n/a	n/a	n/a	n/a	4	[0, 0, 0]	-999	PAL1	2	R1307N
780.67	0.0	646069	TRIAL_START	n/a	n/a	-999	-999	n/a	n/a	n/a	n/a	4	[0, 0, 0]	-999	PAL1	2	R1307N
780.67	0.0	646069	TRIAL	n/a	n/a	-999	-999	n/a	n/a	n/a	n/a	5	[0, 0, 0]	-999	PAL1	2	R1307N
780.67	0.958	646069	WAITING_START	n/a	n/a	-999	-999	n/a	n/a	n/a	n/a	5	[0, 0, 0]	-999	PAL1	2	R1307N
781.628	0.775	647027	REC_EVENT	5.984	n/a	2	6	BRUSH	<>	BRUSH	BAND	4	[0, 0, 0]	-999	PAL1	2	R1307N
782.403	0.0	647802	WAITING_END	n/a	n/a	-999	-999	n/a	n/a	n/a	n/a	5	[0, 0, 0]	-999	PAL1	2	R1307N
782.403	10.0	647802	COUNTDOWN_START	n/a	n/a	-999	-999	n/a	n/a	n/a	n/a	5	[0, 0, 0]	-999	PAL1	2	R1307N
782.403	0.0	647802	COUNTDOWN_END	n/a	n/a	-999	-999	n/a	n/a	n/a	n/a	5	[0, 0, 0]	-999	PAL1	2	R1307N
782.403	11.452	647802	ORIENT_START	n/a	n/a	-999	-999	n/a	n/a	n/a	n/a	5	[0, 0, 0]	-999	PAL1	2	R1307N
793.855	0.0	659253	ENCODING_START	n/a	n/a	-999	-999	n/a	n/a	n/a	n/a	5	[0, 0, 0]	-999	PAL1	2	R1307N
793.855	0.522	659253	ORIENT_END	n/a	n/a	-999	-999	n/a	n/a	n/a	n/a	5	[0, 0, 0]	-999	PAL1	2	R1307N
794.377	4.0	659775	STUDY_PAIR	n/a	wordpools/wordpool_EN.txt	1	-999	n/a	n/a	BUSH	PEAR	5	[0, 0, 0]	-999	PAL1	2	R1307N
798.405	0.732	663803	STUDY_PAIR_OFF	n/a	n/a	1	-999	n/a	n/a	BUSH	PEAR	5	[0, 0, 0]	-999	PAL1	2	R1307N
799.137	4.0	664535	STUDY_PAIR	n/a	wordpools/wordpool_EN.txt	2	-999	n/a	n/a	FOX	FLEA	5	[0, 0, 0]	-999	PAL1	2	R1307N
803.156	0.582	668554	STUDY_PAIR_OFF	n/a	n/a	2	-999	n/a	n/a	FOX	FLEA	5	[0, 0, 0]	-999	PAL1	2	R1307N
803.738	4.0	669136	STUDY_PAIR	n/a	wordpools/wordpool_EN.txt	3	-999	n/a	n/a	WHALE	GLOVE	5	[0, 0, 0]	-999	PAL1	2	R1307N
807.774	0.67	673172	STUDY_PAIR_OFF	n/a	n/a	3	-999	n/a	n/a	WHALE	GLOVE	5	[0, 0, 0]	-999	PAL1	2	R1307N
808.444	4.0	673842	STUDY_PAIR	n/a	wordpools/wordpool_EN.txt	4	-999	n/a	n/a	FLAME	TOAD	5	[0, 0, 0]	-999	PAL1	2	R1307N
812.474	0.66	677872	STUDY_PAIR_OFF	n/a	n/a	4	-999	n/a	n/a	FLAME	TOAD	5	[0, 0, 0]	-999	PAL1	2	R1307N
813.134	4.0	678532	STUDY_PAIR	n/a	wordpools/wordpool_EN.txt	5	-999	n/a	HOUSE	LAMB	HOUSE	5	[0, 0, 0]	-999	PAL1	2	R1307N
817.158	0.688	682555	STUDY_PAIR_OFF	n/a	n/a	5	-999	n/a	HOUSE	LAMB	HOUSE	5	[0, 0, 0]	-999	PAL1	2	R1307N
817.846	4.0	683243	STUDY_PAIR	n/a	wordpools/wordpool_EN.txt	6	-999	n/a	n/a	VAN	PASTE	5	[0, 0, 0]	-999	PAL1	2	R1307N
821.876	0.0	687273	STUDY_PAIR_OFF	n/a	n/a	6	-999	n/a	n/a	VAN	PASTE	5	[0, 0, 0]	-999	PAL1	2	R1307N
821.876	0.0	687273	ENCODING_END	n/a	n/a	-999	-999	n/a	n/a	n/a	n/a	5	[0, 0, 0]	-999	PAL1	2	R1307N
821.876	0.001	687273	MATH_START	n/a	n/a	-999	-999	n/a	n/a	n/a	n/a	5	[0, 0, 0]	-999	PAL1	2	R1307N
821.877	0.016	687274	START	n/a	n/a	-999	-999	n/a	n/a	n/a	n/a	5	[-999, -999, -999]	-999	PAL1	2	R1307N
821.893	15.837	687290	PROB	15.814	n/a	-999	-999	n/a	n/a	n/a	n/a	5	[3, 6, 5]	14	PAL1	2	R1307N
837.73	5.825	703127	PROB	5.825	n/a	-999	-999	n/a	n/a	n/a	n/a	5	[8, 7, 8]	23	PAL1	2	R1307N
843.555	0.009	708952	STOP	n/a	n/a	-999	-999	n/a	n/a	n/a	n/a	5	[-999, -999, -999]	-999	PAL1	2	R1307N
843.564	0.555	708961	MATH_END	n/a	n/a	-999	-999	n/a	n/a	n/a	n/a	5	[0, 0, 0]	-999	PAL1	2	R1307N
844.119	0.0	709515	ORIENT_START	n/a	n/a	-999	-999	n/a	n/a	n/a	n/a	5	[0, 0, 0]	-999	PAL1	2	R1307N
844.119	0.277	709515	RETRIEVAL_START	n/a	n/a	-999	-999	n/a	n/a	n/a	n/a	5	[0, 0, 0]	-999	PAL1	2	R1307N
844.396	0.539	709792	ORIENT_END	n/a	n/a	-999	-999	n/a	n/a	n/a	n/a	5	[0, 0, 0]	-999	PAL1	2	R1307N
844.935	0.0	710331	REC_START	n/a	n/a	3	1	GLOVE	n/a	WHALE	GLOVE	5	[0, 0, 0]	-999	PAL1	2	R1307N
844.935	4.0	710331	PROBE_START	n/a	wordpools/wordpool_EN.txt	3	1	GLOVE	n/a	WHALE	GLOVE	5	[0, 0, 0]	-999	PAL1	2	R1307N
848.964	1.0	714360	PROBE_END	n/a	n/a	3	1	GLOVE	n/a	WHALE	GLOVE	5	[0, 0, 0]	-999	PAL1	2	R1307N
849.964	0.0	715360	REC_END	n/a	n/a	3	1	GLOVE	n/a	WHALE	GLOVE	5	[0, 0, 0]	-999	PAL1	2	R1307N
849.964	0.283	715360	ORIENT_START	n/a	n/a	-999	-999	n/a	n/a	n/a	n/a	5	[0, 0, 0]	-999	PAL1	2	R1307N
850.247	0.519	715643	ORIENT_END	n/a	n/a	-999	-999	n/a	n/a	n/a	n/a	5	[0, 0, 0]	-999	PAL1	2	R1307N
850.766	0.0	716162	REC_START	n/a	n/a	2	2	FLEA	n/a	FOX	FLEA	5	[0, 0, 0]	-999	PAL1	2	R1307N
850.766	4.0	716162	PROBE_START	n/a	wordpools/wordpool_EN.txt	2	2	FLEA	n/a	FOX	FLEA	5	[0, 0, 0]	-999	PAL1	2	R1307N
850.774	4.024	716170	REC_EVENT	5.839	n/a	3	1	GLOVE	<>	WHALE	GLOVE	5	[0, 0, 0]	-999	PAL1	2	R1307N
854.798	1.0	720194	PROBE_END	n/a	n/a	2	2	FLEA	n/a	FOX	FLEA	5	[0, 0, 0]	-999	PAL1	2	R1307N
855.798	0.0	721194	REC_END	n/a	n/a	2	2	FLEA	n/a	FOX	FLEA	5	[0, 0, 0]	-999	PAL1	2	R1307N
855.798	0.284	721194	ORIENT_START	n/a	n/a	-999	-999	n/a	n/a	n/a	n/a	5	[0, 0, 0]	-999	PAL1	2	R1307N
856.082	0.506	721478	ORIENT_END	n/a	n/a	-999	-999	n/a	n/a	n/a	n/a	5	[0, 0, 0]	-999	PAL1	2	R1307N
856.588	0.055	721984	REC_EVENT	5.822	n/a	2	2	FLEA	<>	FOX	FLEA	5	[0, 0, 0]	-999	PAL1	2	R1307N
856.643	0.0	722039	REC_START	n/a	n/a	5	3	LAMB	HOUSE	LAMB	HOUSE	5	[0, 0, 0]	-999	PAL1	2	R1307N
856.643	4.0	722039	PROBE_START	n/a	wordpools/wordpool_EN.txt	5	3	LAMB	HOUSE	LAMB	HOUSE	5	[0, 0, 0]	-999	PAL1	2	R1307N
860.214	0.453	725610	REC_EVENT	3.571	n/a	5	3	LAMB	HOUSE	LAMB	HOUSE	5	[0, 0, 0]	-999	PAL1	2	R1307N
860.667	1.0	726063	PROBE_END	n/a	n/a	5	3	LAMB	n/a	LAMB	HOUSE	5	[0, 0, 0]	-999	PAL1	2	R1307N
861.667	0.0	727063	REC_END	n/a	n/a	5	3	LAMB	n/a	LAMB	HOUSE	5	[0, 0, 0]	-999	PAL1	2	R1307N
861.667	0.282	727063	ORIENT_START	n/a	n/a	-999	-999	n/a	n/a	n/a	n/a	5	[0, 0, 0]	-999	PAL1	2	R1307N
861.949	0.554	727345	ORIENT_END	n/a	n/a	-999	-999	n/a	n/a	n/a	n/a	5	[0, 0, 0]	-999	PAL1	2	R1307N
862.503	0.0	727899	REC_START	n/a	n/a	6	4	VAN	n/a	VAN	PASTE	5	[0, 0, 0]	-999	PAL1	2	R1307N
862.503	4.0	727899	PROBE_START	n/a	wordpools/wordpool_EN.txt	6	4	VAN	n/a	VAN	PASTE	5	[0, 0, 0]	-999	PAL1	2	R1307N
866.533	1.0	731929	PROBE_END	n/a	n/a	6	4	VAN	n/a	VAN	PASTE	5	[0, 0, 0]	-999	PAL1	2	R1307N
867.533	0.0	732929	REC_END	n/a	n/a	6	4	VAN	n/a	VAN	PASTE	5	[0, 0, 0]	-999	PAL1	2	R1307N
867.533	0.284	732929	ORIENT_START	n/a	n/a	-999	-999	n/a	n/a	n/a	n/a	5	[0, 0, 0]	-999	PAL1	2	R1307N
867.817	0.543	733213	ORIENT_END	n/a	n/a	-999	-999	n/a	n/a	n/a	n/a	5	[0, 0, 0]	-999	PAL1	2	R1307N
868.36	0.197	733756	REC_EVENT	5.857	n/a	6	4	VAN	<>	VAN	PASTE	5	[0, 0, 0]	-999	PAL1	2	R1307N
868.557	0.0	733953	REC_START	n/a	n/a	1	5	PEAR	n/a	BUSH	PEAR	5	[0, 0, 0]	-999	PAL1	2	R1307N
868.557	4.0	733953	PROBE_START	n/a	wordpools/wordpool_EN.txt	1	5	PEAR	n/a	BUSH	PEAR	5	[0, 0, 0]	-999	PAL1	2	R1307N
872.585	1.0	737980	PROBE_END	n/a	n/a	1	5	PEAR	n/a	BUSH	PEAR	5	[0, 0, 0]	-999	PAL1	2	R1307N
873.585	0.0	738980	REC_END	n/a	n/a	1	5	PEAR	n/a	BUSH	PEAR	5	[0, 0, 0]	-999	PAL1	2	R1307N
873.585	0.283	738980	ORIENT_START	n/a	n/a	-999	-999	n/a	n/a	n/a	n/a	5	[0, 0, 0]	-999	PAL1	2	R1307N
873.868	0.671	739263	ORIENT_END	n/a	n/a	-999	-999	n/a	n/a	n/a	n/a	5	[0, 0, 0]	-999	PAL1	2	R1307N
874.539	0.0	739934	REC_START	n/a	n/a	4	6	FLAME	n/a	FLAME	TOAD	5	[0, 0, 0]	-999	PAL1	2	R1307N
874.539	4.0	739934	PROBE_START	n/a	wordpools/wordpool_EN.txt	4	6	FLAME	n/a	FLAME	TOAD	5	[0, 0, 0]	-999	PAL1	2	R1307N
874.594	3.976	739989	REC_EVENT	6.037	n/a	1	5	PEAR	<>	BUSH	PEAR	5	[0, 0, 0]	-999	PAL1	2	R1307N
878.57	1.0	743965	PROBE_END	n/a	n/a	4	6	FLAME	n/a	FLAME	TOAD	5	[0, 0, 0]	-999	PAL1	2	R1307N
879.57	0.0	744965	TRIAL_START	n/a	n/a	-999	-999	n/a	n/a	n/a	n/a	5	[0, 0, 0]	-999	PAL1	2	R1307N
879.57	0.0	744965	WAITING_START	n/a	n/a	-999	-999	n/a	n/a	n/a	n/a	6	[0, 0, 0]	-999	PAL1	2	R1307N
879.57	0.0	744965	TRIAL	n/a	n/a	-999	-999	n/a	n/a	n/a	n/a	6	[0, 0, 0]	-999	PAL1	2	R1307N
879.57	0.0	744965	RETRIEVAL_END	n/a	n/a	-999	-999	n/a	n/a	n/a	n/a	5	[0, 0, 0]	-999	PAL1	2	R1307N
879.57	0.0	744965	REC_END	n/a	n/a	4	6	FLAME	n/a	FLAME	TOAD	5	[0, 0, 0]	-999	PAL1	2	R1307N
879.57	0.948	744965	TRIAL_END	n/a	n/a	-999	-999	n/a	n/a	n/a	n/a	5	[0, 0, 0]	-999	PAL1	2	R1307N
880.518	0.268	745913	REC_EVENT	5.979	n/a	4	6	FLAME	<>	FLAME	TOAD	5	[0, 0, 0]	-999	PAL1	2	R1307N
880.786	0.0	746181	WAITING_END	n/a	n/a	-999	-999	n/a	n/a	n/a	n/a	6	[0, 0, 0]	-999	PAL1	2	R1307N
880.786	10.0	746181	COUNTDOWN_START	n/a	n/a	-999	-999	n/a	n/a	n/a	n/a	6	[0, 0, 0]	-999	PAL1	2	R1307N
880.786	0.0	746181	COUNTDOWN_END	n/a	n/a	-999	-999	n/a	n/a	n/a	n/a	6	[0, 0, 0]	-999	PAL1	2	R1307N
880.786	11.668	746181	ORIENT_START	n/a	n/a	-999	-999	n/a	n/a	n/a	n/a	6	[0, 0, 0]	-999	PAL1	2	R1307N
892.454	0.0	757849	ORIENT_END	n/a	n/a	-999	-999	n/a	n/a	n/a	n/a	6	[0, 0, 0]	-999	PAL1	2	R1307N
892.454	0.554	757849	ENCODING_START	n/a	n/a	-999	-999	n/a	n/a	n/a	n/a	6	[0, 0, 0]	-999	PAL1	2	R1307N
893.008	4.0	758403	STUDY_PAIR	n/a	wordpools/wordpool_EN.txt	1	-999	n/a	WEED	WHEEL	WEED	6	[0, 0, 0]	-999	PAL1	2	R1307N
897.038	0.685	762433	STUDY_PAIR_OFF	n/a	n/a	1	-999	n/a	WEED	WHEEL	WEED	6	[0, 0, 0]	-999	PAL1	2	R1307N
897.723	4.0	763118	STUDY_PAIR	n/a	wordpools/wordpool_EN.txt	2	-999	n/a	n/a	HOLE	CHEEK	6	[0, 0, 0]	-999	PAL1	2	R1307N
901.756	0.623	767150	STUDY_PAIR_OFF	n/a	n/a	2	-999	n/a	n/a	HOLE	CHEEK	6	[0, 0, 0]	-999	PAL1	2	R1307N
902.379	4.0	767773	STUDY_PAIR	n/a	wordpools/wordpool_EN.txt	3	-999	n/a	n/a	SINK	PARK	6	[0, 0, 0]	-999	PAL1	2	R1307N
906.407	0.732	771801	STUDY_PAIR_OFF	n/a	n/a	3	-999	n/a	n/a	SINK	PARK	6	[0, 0, 0]	-999	PAL1	2	R1307N
907.139	4.0	772533	STUDY_PAIR	n/a	wordpools/wordpool_EN.txt	4	-999	n/a	n/a	DOOR	NAIL	6	[0, 0, 0]	-999	PAL1	2	R1307N
911.174	0.634	776568	STUDY_PAIR_OFF	n/a	n/a	4	-999	n/a	n/a	DOOR	NAIL	6	[0, 0, 0]	-999	PAL1	2	R1307N
911.808	4.0	777202	STUDY_PAIR	n/a	wordpools/wordpool_EN.txt	5	-999	n/a	n/a	GOLD	JAR	6	[0, 0, 0]	-999	PAL1	2	R1307N
915.842	0.743	781236	STUDY_PAIR_OFF	n/a	n/a	5	-999	n/a	n/a	GOLD	JAR	6	[0, 0, 0]	-999	PAL1	2	R1307N
916.585	4.0	781979	STUDY_PAIR	n/a	wordpools/wordpool_EN.txt	6	-999	n/a	MILK	FARM	MILK	6	[0, 0, 0]	-999	PAL1	2	R1307N
920.61	0.0	786004	STUDY_PAIR_OFF	n/a	n/a	6	-999	n/a	MILK	FARM	MILK	6	[0, 0, 0]	-999	PAL1	2	R1307N
920.61	0.0	786004	ENCODING_END	n/a	n/a	-999	-999	n/a	n/a	n/a	n/a	6	[0, 0, 0]	-999	PAL1	2	R1307N
920.61	0.001	786004	MATH_START	n/a	n/a	-999	-999	n/a	n/a	n/a	n/a	6	[0, 0, 0]	-999	PAL1	2	R1307N
920.611	0.016	786005	START	n/a	n/a	-999	-999	n/a	n/a	n/a	n/a	6	[-999, -999, -999]	-999	PAL1	2	R1307N
920.627	12.334	786021	PROB	12.304	n/a	-999	-999	n/a	n/a	n/a	n/a	6	[7, 2, 4]	13	PAL1	2	R1307N
932.961	2.867	798354	PROB	2.841	n/a	-999	-999	n/a	n/a	n/a	n/a	6	[9, 7, 1]	17	PAL1	2	R1307N
935.828	13.247	801221	PROB	13.247	n/a	-999	-999	n/a	n/a	n/a	n/a	6	[8, 4, 3]	15	PAL1	2	R1307N
949.075	0.005	814468	STOP	n/a	n/a	-999	-999	n/a	n/a	n/a	n/a	6	[-999, -999, -999]	-999	PAL1	2	R1307N
949.08	0.535	814473	MATH_END	n/a	n/a	-999	-999	n/a	n/a	n/a	n/a	6	[0, 0, 0]	-999	PAL1	2	R1307N
949.615	0.0	815008	ORIENT_START	n/a	n/a	-999	-999	n/a	n/a	n/a	n/a	6	[0, 0, 0]	-999	PAL1	2	R1307N
949.615	0.282	815008	RETRIEVAL_START	n/a	n/a	-999	-999	n/a	n/a	n/a	n/a	6	[0, 0, 0]	-999	PAL1	2	R1307N
949.897	0.606	815290	ORIENT_END	n/a	n/a	-999	-999	n/a	n/a	n/a	n/a	6	[0, 0, 0]	-999	PAL1	2	R1307N
950.503	4.0	815896	PROBE_START	n/a	wordpools/wordpool_EN.txt	3	1	PARK	n/a	SINK	PARK	6	[0, 0, 0]	-999	PAL1	2	R1307N
950.503	4.028	815896	REC_START	n/a	n/a	3	1	PARK	n/a	SINK	PARK	6	[0, 0, 0]	-999	PAL1	2	R1307N
954.531	1.0	819924	PROBE_END	n/a	n/a	3	1	PARK	n/a	SINK	PARK	6	[0, 0, 0]	-999	PAL1	2	R1307N
955.531	0.0	820923	REC_END	n/a	n/a	3	1	PARK	n/a	SINK	PARK	6	[0, 0, 0]	-999	PAL1	2	R1307N
955.531	0.284	820923	ORIENT_START	n/a	n/a	-999	-999	n/a	n/a	n/a	n/a	6	[0, 0, 0]	-999	PAL1	2	R1307N
955.815	0.603	821207	ORIENT_END	n/a	n/a	-999	-999	n/a	n/a	n/a	n/a	6	[0, 0, 0]	-999	PAL1	2	R1307N
956.418	0.012	821810	REC_EVENT	5.915	n/a	3	1	PARK	<>	SINK	PARK	6	[0, 0, 0]	-999	PAL1	2	R1307N
956.43	0.0	821822	REC_START	n/a	n/a	4	2	DOOR	n/a	DOOR	NAIL	6	[0, 0, 0]	-999	PAL1	2	R1307N
956.43	4.0	821822	PROBE_START	n/a	wordpools/wordpool_EN.txt	4	2	DOOR	n/a	DOOR	NAIL	6	[0, 0, 0]	-999	PAL1	2	R1307N
960.465	1.0	825857	PROBE_END	n/a	n/a	4	2	DOOR	n/a	DOOR	NAIL	6	[0, 0, 0]	-999	PAL1	2	R1307N
961.465	0.0	826857	REC_END	n/a	n/a	4	2	DOOR	n/a	DOOR	NAIL	6	[0, 0, 0]	-999	PAL1	2	R1307N
961.465	0.284	826857	ORIENT_START	n/a	n/a	-999	-999	n/a	n/a	n/a	n/a	6	[0, 0, 0]	-999	PAL1	2	R1307N
961.749	0.6	827141	ORIENT_END	n/a	n/a	-999	-999	n/a	n/a	n/a	n/a	6	[0, 0, 0]	-999	PAL1	2	R1307N
962.349	4.0	827741	PROBE_START	n/a	wordpools/wordpool_EN.txt	5	3	JAR	n/a	GOLD	JAR	6	[0, 0, 0]	-999	PAL1	2	R1307N
962.349	0.002	827741	REC_START	n/a	n/a	5	3	JAR	n/a	GOLD	JAR	6	[0, 0, 0]	-999	PAL1	2	R1307N
962.351	4.032	827743	REC_EVENT	5.921	n/a	4	2	DOOR	<>	DOOR	NAIL	6	[0, 0, 0]	-999	PAL1	2	R1307N
966.383	1.0	831775	PROBE_END	n/a	n/a	5	3	JAR	n/a	GOLD	JAR	6	[0, 0, 0]	-999	PAL1	2	R1307N
967.383	0.0	832775	REC_END	n/a	n/a	5	3	JAR	n/a	GOLD	JAR	6	[0, 0, 0]	-999	PAL1	2	R1307N
967.383	0.285	832775	ORIENT_START	n/a	n/a	-999	-999	n/a	n/a	n/a	n/a	6	[0, 0, 0]	-999	PAL1	2	R1307N
967.668	0.59	833060	ORIENT_END	n/a	n/a	-999	-999	n/a	n/a	n/a	n/a	6	[0, 0, 0]	-999	PAL1	2	R1307N
968.258	0.153	833650	REC_EVENT	5.909	n/a	5	3	JAR	<>	GOLD	JAR	6	[0, 0, 0]	-999	PAL1	2	R1307N
968.411	0.0	833803	REC_START	n/a	n/a	6	4	FARM	MILK	FARM	MILK	6	[0, 0, 0]	-999	PAL1	2	R1307N
968.411	4.0	833803	PROBE_START	n/a	wordpools/wordpool_EN.txt	6	4	FARM	MILK	FARM	MILK	6	[0, 0, 0]	-999	PAL1	2	R1307N
971.164	1.27	836556	REC_EVENT	2.753	n/a	6	4	FARM	MILK	FARM	MILK	6	[0, 0, 0]	-999	PAL1	2	R1307N
972.434	1.0	837826	PROBE_END	n/a	n/a	6	4	FARM	n/a	FARM	MILK	6	[0, 0, 0]	-999	PAL1	2	R1307N
973.434	0.0	838826	REC_END	n/a	n/a	6	4	FARM	n/a	FARM	MILK	6	[0, 0, 0]	-999	PAL1	2	R1307N
973.434	0.285	838826	ORIENT_START	n/a	n/a	-999	-999	n/a	n/a	n/a	n/a	6	[0, 0, 0]	-999	PAL1	2	R1307N
973.719	0.734	839111	ORIENT_END	n/a	n/a	-999	-999	n/a	n/a	n/a	n/a	6	[0, 0, 0]	-999	PAL1	2	R1307N
974.453	4.0	839845	PROBE_START	n/a	wordpools/wordpool_EN.txt	1	5	WHEEL	WEED	WHEEL	WEED	6	[0, 0, 0]	-999	PAL1	2	R1307N
974.453	2.838	839845	REC_START	n/a	n/a	1	5	WHEEL	WEED	WHEEL	WEED	6	[0, 0, 0]	-999	PAL1	2	R1307N
977.291	1.194	842683	REC_EVENT	2.838	n/a	1	5	WHEEL	WEED	WHEEL	WEED	6	[0, 0, 0]	-999	PAL1	2	R1307N
978.485	1.0	843877	PROBE_END	n/a	n/a	1	5	WHEEL	n/a	WHEEL	WEED	6	[0, 0, 0]	-999	PAL1	2	R1307N
979.485	0.0	844877	REC_END	n/a	n/a	1	5	WHEEL	n/a	WHEEL	WEED	6	[0, 0, 0]	-999	PAL1	2	R1307N
979.485	0.284	844877	ORIENT_START	n/a	n/a	-999	-999	n/a	n/a	n/a	n/a	6	[0, 0, 0]	-999	PAL1	2	R1307N
979.769	0.658	845161	ORIENT_END	n/a	n/a	-999	-999	n/a	n/a	n/a	n/a	6	[0, 0, 0]	-999	PAL1	2	R1307N
980.427	0.0	845819	REC_START	n/a	n/a	2	6	CHEEK	n/a	HOLE	CHEEK	6	[0, 0, 0]	-999	PAL1	2	R1307N
980.427	4.0	845819	PROBE_START	n/a	wordpools/wordpool_EN.txt	2	6	CHEEK	n/a	HOLE	CHEEK	6	[0, 0, 0]	-999	PAL1	2	R1307N
984.453	1.0	849844	PROBE_END	n/a	n/a	2	6	CHEEK	n/a	HOLE	CHEEK	6	[0, 0, 0]	-999	PAL1	2	R1307N
985.453	0.0	850844	TRIAL_END	n/a	n/a	-999	-999	n/a	n/a	n/a	n/a	6	[0, 0, 0]	-999	PAL1	2	R1307N
985.453	0.0	850844	WAITING_START	n/a	n/a	-999	-999	n/a	n/a	n/a	n/a	7	[0, 0, 0]	-999	PAL1	2	R1307N
985.453	0.0	850844	TRIAL	n/a	n/a	-999	-999	n/a	n/a	n/a	n/a	7	[0, 0, 0]	-999	PAL1	2	R1307N
985.453	0.0	850844	TRIAL_START	n/a	n/a	-999	-999	n/a	n/a	n/a	n/a	6	[0, 0, 0]	-999	PAL1	2	R1307N
985.453	0.0	850844	RETRIEVAL_END	n/a	n/a	-999	-999	n/a	n/a	n/a	n/a	6	[0, 0, 0]	-999	PAL1	2	R1307N
985.453	0.935	850844	REC_END	n/a	n/a	2	6	CHEEK	n/a	HOLE	CHEEK	6	[0, 0, 0]	-999	PAL1	2	R1307N
986.388	0.149	851779	REC_EVENT	5.961	n/a	2	6	CHEEK	<>	HOLE	CHEEK	6	[0, 0, 0]	-999	PAL1	2	R1307N
986.537	0.0	851928	WAITING_END	n/a	n/a	-999	-999	n/a	n/a	n/a	n/a	7	[0, 0, 0]	-999	PAL1	2	R1307N
986.537	10.0	851928	COUNTDOWN_START	n/a	n/a	-999	-999	n/a	n/a	n/a	n/a	7	[0, 0, 0]	-999	PAL1	2	R1307N
986.537	0.0	851928	COUNTDOWN_END	n/a	n/a	-999	-999	n/a	n/a	n/a	n/a	7	[0, 0, 0]	-999	PAL1	2	R1307N
986.537	11.501	851928	ORIENT_START	n/a	n/a	-999	-999	n/a	n/a	n/a	n/a	7	[0, 0, 0]	-999	PAL1	2	R1307N
998.038	0.0	863429	ORIENT_END	n/a	n/a	-999	-999	n/a	n/a	n/a	n/a	7	[0, 0, 0]	-999	PAL1	2	R1307N
998.038	0.742	863429	ENCODING_START	n/a	n/a	-999	-999	n/a	n/a	n/a	n/a	7	[0, 0, 0]	-999	PAL1	2	R1307N
998.78	4.0	864171	STUDY_PAIR	n/a	wordpools/wordpool_EN.txt	1	-999	n/a	n/a	RAT	ARM	7	[0, 0, 0]	-999	PAL1	2	R1307N
1002.806	0.615	868197	STUDY_PAIR_OFF	n/a	n/a	1	-999	n/a	n/a	RAT	ARM	7	[0, 0, 0]	-999	PAL1	2	R1307N
1003.421	4.0	868812	STUDY_PAIR	n/a	wordpools/wordpool_EN.txt	2	-999	n/a	n/a	MUD	POND	7	[0, 0, 0]	-999	PAL1	2	R1307N
1007.457	0.75	872848	STUDY_PAIR_OFF	n/a	n/a	2	-999	n/a	n/a	MUD	POND	7	[0, 0, 0]	-999	PAL1	2	R1307N
1008.207	4.0	873598	STUDY_PAIR	n/a	wordpools/wordpool_EN.txt	3	-999	n/a	n/a	STICK	RAIN	7	[0, 0, 0]	-999	PAL1	2	R1307N
1012.241	0.681	877631	STUDY_PAIR_OFF	n/a	n/a	3	-999	n/a	n/a	STICK	RAIN	7	[0, 0, 0]	-999	PAL1	2	R1307N
1012.922	4.0	878312	STUDY_PAIR	n/a	wordpools/wordpool_EN.txt	4	-999	n/a	n/a	SPRING	LEG	7	[0, 0, 0]	-999	PAL1	2	R1307N
1016.958	0.725	882348	STUDY_PAIR_OFF	n/a	n/a	4	-999	n/a	n/a	SPRING	LEG	7	[0, 0, 0]	-999	PAL1	2	R1307N
1017.683	4.0	883073	STUDY_PAIR	n/a	wordpools/wordpool_EN.txt	5	-999	n/a	MILK	COW	FISH	7	[0, 0, 0]	-999	PAL1	2	R1307N
1021.71	0.621	887100	STUDY_PAIR_OFF	n/a	n/a	5	-999	n/a	MILK	COW	FISH	7	[0, 0, 0]	-999	PAL1	2	R1307N
1022.331	4.0	887721	STUDY_PAIR	n/a	wordpools/wordpool_EN.txt	6	-999	n/a	n/a	PRINCE	DUCK	7	[0, 0, 0]	-999	PAL1	2	R1307N
1026.36	0.0	891750	STUDY_PAIR_OFF	n/a	n/a	6	-999	n/a	n/a	PRINCE	DUCK	7	[0, 0, 0]	-999	PAL1	2	R1307N
1026.36	0.0	891750	ENCODING_END	n/a	n/a	-999	-999	n/a	n/a	n/a	n/a	7	[0, 0, 0]	-999	PAL1	2	R1307N
1026.36	0.001	891750	MATH_START	n/a	n/a	-999	-999	n/a	n/a	n/a	n/a	7	[0, 0, 0]	-999	PAL1	2	R1307N
1026.361	0.016	891751	START	n/a	n/a	-999	-999	n/a	n/a	n/a	n/a	7	[-999, -999, -999]	-999	PAL1	2	R1307N
1026.377	5.384	891767	PROB	5.355	n/a	-999	-999	n/a	n/a	n/a	n/a	7	[4, 1, 1]	6	PAL1	2	R1307N
1031.761	17.979	897151	PROB	17.979	n/a	-999	-999	n/a	n/a	n/a	n/a	7	[5, 4, 7]	16	PAL1	2	R1307N
1049.74	0.007	915129	STOP	n/a	n/a	-999	-999	n/a	n/a	n/a	n/a	7	[-999, -999, -999]	-999	PAL1	2	R1307N
1049.747	0.579	915136	MATH_END	n/a	n/a	-999	-999	n/a	n/a	n/a	n/a	7	[0, 0, 0]	-999	PAL1	2	R1307N
1050.326	0.0	915715	RETRIEVAL_START	n/a	n/a	-999	-999	n/a	n/a	n/a	n/a	7	[0, 0, 0]	-999	PAL1	2	R1307N
1050.326	0.255	915715	ORIENT_START	n/a	n/a	-999	-999	n/a	n/a	n/a	n/a	7	[0, 0, 0]	-999	PAL1	2	R1307N
1050.581	0.69	915970	ORIENT_END	n/a	n/a	-999	-999	n/a	n/a	n/a	n/a	7	[0, 0, 0]	-999	PAL1	2	R1307N
1051.271	4.0	916660	PROBE_START	n/a	wordpools/wordpool_EN.txt	3	1	STICK	n/a	STICK	RAIN	7	[0, 0, 0]	-999	PAL1	2	R1307N
1051.271	4.027	916660	REC_START	n/a	n/a	3	1	STICK	n/a	STICK	RAIN	7	[0, 0, 0]	-999	PAL1	2	R1307N
1055.298	1.0	920687	PROBE_END	n/a	n/a	3	1	STICK	n/a	STICK	RAIN	7	[0, 0, 0]	-999	PAL1	2	R1307N
1056.298	0.0	921687	REC_END	n/a	n/a	3	1	STICK	n/a	STICK	RAIN	7	[0, 0, 0]	-999	PAL1	2	R1307N
1056.298	0.284	921687	ORIENT_START	n/a	n/a	-999	-999	n/a	n/a	n/a	n/a	7	[0, 0, 0]	-999	PAL1	2	R1307N
1056.582	0.617	921971	ORIENT_END	n/a	n/a	-999	-999	n/a	n/a	n/a	n/a	7	[0, 0, 0]	-999	PAL1	2	R1307N
1057.199	0.0	922588	REC_START	n/a	n/a	2	2	POND	n/a	MUD	POND	7	[0, 0, 0]	-999	PAL1	2	R1307N
1057.199	4.0	922588	PROBE_START	n/a	wordpools/wordpool_EN.txt	2	2	POND	n/a	MUD	POND	7	[0, 0, 0]	-999	PAL1	2	R1307N
1057.244	3.988	922633	REC_EVENT	5.973	n/a	3	1	STICK	<>	STICK	RAIN	7	[0, 0, 0]	-999	PAL1	2	R1307N
1061.232	1.0	926621	PROBE_END	n/a	n/a	2	2	POND	n/a	MUD	POND	7	[0, 0, 0]	-999	PAL1	2	R1307N
1062.232	0.0	927621	ORIENT_START	n/a	n/a	-999	-999	n/a	n/a	n/a	n/a	7	[0, 0, 0]	-999	PAL1	2	R1307N
1062.232	0.284	927621	REC_END	n/a	n/a	2	2	POND	n/a	MUD	POND	7	[0, 0, 0]	-999	PAL1	2	R1307N
1062.516	0.561	927905	ORIENT_END	n/a	n/a	-999	-999	n/a	n/a	n/a	n/a	7	[0, 0, 0]	-999	PAL1	2	R1307N
1063.077	0.0	928466	REC_START	n/a	n/a	1	3	ARM	n/a	RAT	ARM	7	[0, 0, 0]	-999	PAL1	2	R1307N
1063.077	4.0	928466	PROBE_START	n/a	wordpools/wordpool_EN.txt	1	3	ARM	n/a	RAT	ARM	7	[0, 0, 0]	-999	PAL1	2	R1307N
1063.12	3.963	928509	REC_EVENT	5.921	n/a	2	2	POND	<>	MUD	POND	7	[0, 0, 0]	-999	PAL1	2	R1307N
1067.083	1.0	932471	PROBE_END	n/a	n/a	1	3	ARM	n/a	RAT	ARM	7	[0, 0, 0]	-999	PAL1	2	R1307N
1068.083	0.0	933471	REC_END	n/a	n/a	1	3	ARM	n/a	RAT	ARM	7	[0, 0, 0]	-999	PAL1	2	R1307N
1068.083	0.284	933471	ORIENT_START	n/a	n/a	-999	-999	n/a	n/a	n/a	n/a	7	[0, 0, 0]	-999	PAL1	2	R1307N
1068.367	0.549	933755	ORIENT_END	n/a	n/a	-999	-999	n/a	n/a	n/a	n/a	7	[0, 0, 0]	-999	PAL1	2	R1307N
1068.916	0.049	934304	REC_EVENT	5.839	n/a	1	3	ARM	<>	RAT	ARM	7	[0, 0, 0]	-999	PAL1	2	R1307N
1068.965	0.0	934353	REC_START	n/a	n/a	6	4	DUCK	n/a	PRINCE	DUCK	7	[0, 0, 0]	-999	PAL1	2	R1307N
1068.965	4.0	934353	PROBE_START	n/a	wordpools/wordpool_EN.txt	6	4	DUCK	n/a	PRINCE	DUCK	7	[0, 0, 0]	-999	PAL1	2	R1307N
1073.001	1.0	938389	PROBE_END	n/a	n/a	6	4	DUCK	n/a	PRINCE	DUCK	7	[0, 0, 0]	-999	PAL1	2	R1307N
1074.001	0.0	939389	ORIENT_START	n/a	n/a	-999	-999	n/a	n/a	n/a	n/a	7	[0, 0, 0]	-999	PAL1	2	R1307N
1074.001	0.283	939389	REC_END	n/a	n/a	6	4	DUCK	n/a	PRINCE	DUCK	7	[0, 0, 0]	-999	PAL1	2	R1307N
1074.284	0.584	939672	ORIENT_END	n/a	n/a	-999	-999	n/a	n/a	n/a	n/a	7	[0, 0, 0]	-999	PAL1	2	R1307N
1074.868	0.077	940256	REC_EVENT	5.903	n/a	6	4	DUCK	<>	PRINCE	DUCK	7	[0, 0, 0]	-999	PAL1	2	R1307N
1074.945	0.0	940333	REC_START	n/a	n/a	5	5	COW	MILK	COW	FISH	7	[0, 0, 0]	-999	PAL1	2	R1307N
1074.945	4.0	940333	PROBE_START	n/a	wordpools/wordpool_EN.txt	5	5	COW	MILK	COW	FISH	7	[0, 0, 0]	-999	PAL1	2	R1307N
1077.634	1.334	943022	REC_EVENT	2.689	n/a	5	5	COW	MILK	COW	FISH	7	[0, 0, 0]	-999	PAL1	2	R1307N
1078.968	1.0	944356	PROBE_END	n/a	n/a	5	5	COW	n/a	COW	FISH	7	[0, 0, 0]	-999	PAL1	2	R1307N
1079.968	0.0	945356	REC_END	n/a	n/a	5	5	COW	n/a	COW	FISH	7	[0, 0, 0]	-999	PAL1	2	R1307N
1079.968	0.284	945356	ORIENT_START	n/a	n/a	-999	-999	n/a	n/a	n/a	n/a	7	[0, 0, 0]	-999	PAL1	2	R1307N
1080.252	0.648	945640	ORIENT_END	n/a	n/a	-999	-999	n/a	n/a	n/a	n/a	7	[0, 0, 0]	-999	PAL1	2	R1307N
1080.9	0.083	946288	REC_EVENT	5.955	n/a	5	5	COW	<>	COW	FISH	7	[0, 0, 0]	-999	PAL1	2	R1307N
1080.983	0.0	946371	REC_START	n/a	n/a	4	6	SPRING	n/a	SPRING	LEG	7	[0, 0, 0]	-999	PAL1	2	R1307N
1080.983	4.0	946371	PROBE_START	n/a	wordpools/wordpool_EN.txt	4	6	SPRING	n/a	SPRING	LEG	7	[0, 0, 0]	-999	PAL1	2	R1307N
1085.019	1.0	950407	PROBE_END	n/a	n/a	4	6	SPRING	n/a	SPRING	LEG	7	[0, 0, 0]	-999	PAL1	2	R1307N
1086.019	0.0	951407	TRIAL_START	n/a	n/a	-999	-999	n/a	n/a	n/a	n/a	7	[0, 0, 0]	-999	PAL1	2	R1307N
1086.019	0.0	951407	TRIAL_END	n/a	n/a	-999	-999	n/a	n/a	n/a	n/a	7	[0, 0, 0]	-999	PAL1	2	R1307N
1086.019	0.0	951407	TRIAL	n/a	n/a	-999	-999	n/a	n/a	n/a	n/a	8	[0, 0, 0]	-999	PAL1	2	R1307N
1086.019	0.0	951407	REC_END	n/a	n/a	4	6	SPRING	n/a	SPRING	LEG	7	[0, 0, 0]	-999	PAL1	2	R1307N
1086.019	0.0	951407	WAITING_START	n/a	n/a	-999	-999	n/a	n/a	n/a	n/a	8	[0, 0, 0]	-999	PAL1	2	R1307N
1086.019	0.968	951407	RETRIEVAL_END	n/a	n/a	-999	-999	n/a	n/a	n/a	n/a	7	[0, 0, 0]	-999	PAL1	2	R1307N
1086.987	0.0	952375	ORIENT_START	n/a	n/a	-999	-999	n/a	n/a	n/a	n/a	8	[0, 0, 0]	-999	PAL1	2	R1307N
1086.987	0.0	952375	COUNTDOWN_END	n/a	n/a	-999	-999	n/a	n/a	n/a	n/a	8	[0, 0, 0]	-999	PAL1	2	R1307N
1086.987	0.0	952375	WAITING_END	n/a	n/a	-999	-999	n/a	n/a	n/a	n/a	8	[0, 0, 0]	-999	PAL1	2	R1307N
1086.987	10.0	952375	COUNTDOWN_START	n/a	n/a	-999	-999	n/a	n/a	n/a	n/a	8	[0, 0, 0]	-999	PAL1	2	R1307N
1087.025	11.563	952413	REC_EVENT	6.042	n/a	4	6	SPRING	<>	SPRING	LEG	7	[0, 0, 0]	-999	PAL1	2	R1307N
1098.588	0.0	963975	ORIENT_END	n/a	n/a	-999	-999	n/a	n/a	n/a	n/a	8	[0, 0, 0]	-999	PAL1	2	R1307N
1098.588	0.56	963975	ENCODING_START	n/a	n/a	-999	-999	n/a	n/a	n/a	n/a	8	[0, 0, 0]	-999	PAL1	2	R1307N
1099.148	4.0	964535	STUDY_PAIR	n/a	wordpools/wordpool_EN.txt	1	-999	n/a	n/a	MAZE	BARN	8	[0, 0, 0]	-999	PAL1	2	R1307N
1103.172	0.726	968559	STUDY_PAIR_OFF	n/a	n/a	1	-999	n/a	n/a	MAZE	BARN	8	[0, 0, 0]	-999	PAL1	2	R1307N
1103.898	4.0	969285	STUDY_PAIR	n/a	wordpools/wordpool_EN.txt	2	-999	n/a	n/a	NET	SEAT	8	[0, 0, 0]	-999	PAL1	2	R1307N
1107.923	0.622	973310	STUDY_PAIR_OFF	n/a	n/a	2	-999	n/a	n/a	NET	SEAT	8	[0, 0, 0]	-999	PAL1	2	R1307N
1108.545	4.0	973932	STUDY_PAIR	n/a	wordpools/wordpool_EN.txt	3	-999	n/a	n/a	BED	BOAT	8	[0, 0, 0]	-999	PAL1	2	R1307N
1112.575	0.668	977962	STUDY_PAIR_OFF	n/a	n/a	3	-999	n/a	n/a	BED	BOAT	8	[0, 0, 0]	-999	PAL1	2	R1307N
1113.243	4.0	978630	STUDY_PAIR	n/a	wordpools/wordpool_EN.txt	4	-999	n/a	STRING	STOOL	CLOTH	8	[0, 0, 0]	-999	PAL1	2	R1307N
1117.275	0.52	982662	STUDY_PAIR_OFF	n/a	n/a	4	-999	n/a	STRING	STOOL	CLOTH	8	[0, 0, 0]	-999	PAL1	2	R1307N
1117.795	4.0	983182	STUDY_PAIR	n/a	wordpools/wordpool_EN.txt	5	-999	n/a	n/a	SAIL	PLANT	8	[0, 0, 0]	-999	PAL1	2	R1307N
1121.825	0.668	987211	STUDY_PAIR_OFF	n/a	n/a	5	-999	n/a	n/a	SAIL	PLANT	8	[0, 0, 0]	-999	PAL1	2	R1307N
1122.493	4.0	987879	STUDY_PAIR	n/a	wordpools/wordpool_EN.txt	6	-999	n/a	n/a	STAR	CAKE	8	[0, 0, 0]	-999	PAL1	2	R1307N
1126.526	0.0	991912	STUDY_PAIR_OFF	n/a	n/a	6	-999	n/a	n/a	STAR	CAKE	8	[0, 0, 0]	-999	PAL1	2	R1307N
1126.526	0.0	991912	ENCODING_END	n/a	n/a	-999	-999	n/a	n/a	n/a	n/a	8	[0, 0, 0]	-999	PAL1	2	R1307N
1126.526	0.002	991912	MATH_START	n/a	n/a	-999	-999	n/a	n/a	n/a	n/a	8	[0, 0, 0]	-999	PAL1	2	R1307N
1126.528	0.015	991914	START	n/a	n/a	-999	-999	n/a	n/a	n/a	n/a	8	[-999, -999, -999]	-999	PAL1	2	R1307N
1126.543	11.619	991929	PROB	11.596	n/a	-999	-999	n/a	n/a	n/a	n/a	8	[8, 9, 8]	25	PAL1	2	R1307N
1138.162	3.984	1003548	PROB	3.952	n/a	-999	-999	n/a	n/a	n/a	n/a	8	[1, 1, 7]	9	PAL1	2	R1307N
1142.146	5.08	1007532	PROB	5.08	n/a	-999	-999	n/a	n/a	n/a	n/a	8	[5, 2, 7]	14	PAL1	2	R1307N
1147.226	0.02	1012612	STOP	n/a	n/a	-999	-999	n/a	n/a	n/a	n/a	8	[-999, -999, -999]	-999	PAL1	2	R1307N
1147.246	0.604	1012632	MATH_END	n/a	n/a	-999	-999	n/a	n/a	n/a	n/a	8	[0, 0, 0]	-999	PAL1	2	R1307N
1147.85	0.0	1013236	RETRIEVAL_START	n/a	n/a	-999	-999	n/a	n/a	n/a	n/a	8	[0, 0, 0]	-999	PAL1	2	R1307N
1147.85	0.28	1013236	ORIENT_START	n/a	n/a	-999	-999	n/a	n/a	n/a	n/a	8	[0, 0, 0]	-999	PAL1	2	R1307N
1148.13	0.702	1013516	ORIENT_END	n/a	n/a	-999	-999	n/a	n/a	n/a	n/a	8	[0, 0, 0]	-999	PAL1	2	R1307N
1148.832	0.0	1014218	REC_START	n/a	n/a	1	1	BARN	n/a	MAZE	BARN	8	[0, 0, 0]	-999	PAL1	2	R1307N
1148.832	4.0	1014218	PROBE_START	n/a	wordpools/wordpool_EN.txt	1	1	BARN	n/a	MAZE	BARN	8	[0, 0, 0]	-999	PAL1	2	R1307N
1152.864	1.0	1018249	PROBE_END	n/a	n/a	1	1	BARN	n/a	MAZE	BARN	8	[0, 0, 0]	-999	PAL1	2	R1307N
1153.864	0.0	1019249	ORIENT_START	n/a	n/a	-999	-999	n/a	n/a	n/a	n/a	8	[0, 0, 0]	-999	PAL1	2	R1307N
1153.864	0.3	1019249	REC_END	n/a	n/a	1	1	BARN	n/a	MAZE	BARN	8	[0, 0, 0]	-999	PAL1	2	R1307N
1154.164	0.502	1019549	ORIENT_END	n/a	n/a	-999	-999	n/a	n/a	n/a	n/a	8	[0, 0, 0]	-999	PAL1	2	R1307N
1154.666	0.0	1020051	REC_START	n/a	n/a	4	2	STOOL	STRING	STOOL	CLOTH	8	[0, 0, 0]	-999	PAL1	2	R1307N
1154.666	4.0	1020051	PROBE_START	n/a	wordpools/wordpool_EN.txt	4	2	STOOL	STRING	STOOL	CLOTH	8	[0, 0, 0]	-999	PAL1	2	R1307N
1154.845	2.549	1020230	REC_EVENT	6.013	n/a	1	1	BARN	<>	MAZE	BARN	8	[0, 0, 0]	-999	PAL1	2	R1307N
1157.394	1.305	1022779	REC_EVENT	2.728	n/a	4	2	STOOL	STRING	STOOL	CLOTH	8	[0, 0, 0]	-999	PAL1	2	R1307N
1158.699	1.0	1024084	PROBE_END	n/a	n/a	4	2	STOOL	n/a	STOOL	CLOTH	8	[0, 0, 0]	-999	PAL1	2	R1307N
1159.699	0.0	1025084	REC_END	n/a	n/a	4	2	STOOL	n/a	STOOL	CLOTH	8	[0, 0, 0]	-999	PAL1	2	R1307N
1159.699	0.283	1025084	ORIENT_START	n/a	n/a	-999	-999	n/a	n/a	n/a	n/a	8	[0, 0, 0]	-999	PAL1	2	R1307N
1159.982	0.55	1025367	ORIENT_END	n/a	n/a	-999	-999	n/a	n/a	n/a	n/a	8	[0, 0, 0]	-999	PAL1	2	R1307N
1160.532	0.0	1025917	REC_START	n/a	n/a	5	3	PLANT	n/a	SAIL	PLANT	8	[0, 0, 0]	-999	PAL1	2	R1307N
1160.532	4.0	1025917	PROBE_START	n/a	wordpools/wordpool_EN.txt	5	3	PLANT	n/a	SAIL	PLANT	8	[0, 0, 0]	-999	PAL1	2	R1307N
1164.567	1.0	1029952	PROBE_END	n/a	n/a	5	3	PLANT	n/a	SAIL	PLANT	8	[0, 0, 0]	-999	PAL1	2	R1307N
1165.567	0.0	1030952	ORIENT_START	n/a	n/a	-999	-999	n/a	n/a	n/a	n/a	8	[0, 0, 0]	-999	PAL1	2	R1307N
1165.567	0.283	1030952	REC_END	n/a	n/a	5	3	PLANT	n/a	SAIL	PLANT	8	[0, 0, 0]	-999	PAL1	2	R1307N
1165.85	0.539	1031235	ORIENT_END	n/a	n/a	-999	-999	n/a	n/a	n/a	n/a	8	[0, 0, 0]	-999	PAL1	2	R1307N
1166.389	0.016	1031774	REC_EVENT	5.857	n/a	5	3	PLANT	<>	SAIL	PLANT	8	[0, 0, 0]	-999	PAL1	2	R1307N
1166.405	0.0	1031790	REC_START	n/a	n/a	6	4	CAKE	n/a	STAR	CAKE	8	[0, 0, 0]	-999	PAL1	2	R1307N
1166.405	4.0	1031790	PROBE_START	n/a	wordpools/wordpool_EN.txt	6	4	CAKE	n/a	STAR	CAKE	8	[0, 0, 0]	-999	PAL1	2	R1307N
1170.434	1.0	1035819	PROBE_END	n/a	n/a	6	4	CAKE	n/a	STAR	CAKE	8	[0, 0, 0]	-999	PAL1	2	R1307N
1171.434	0.0	1036819	REC_END	n/a	n/a	6	4	CAKE	n/a	STAR	CAKE	8	[0, 0, 0]	-999	PAL1	2	R1307N
1171.434	0.284	1036819	ORIENT_START	n/a	n/a	-999	-999	n/a	n/a	n/a	n/a	8	[0, 0, 0]	-999	PAL1	2	R1307N
1171.718	0.55	1037103	ORIENT_END	n/a	n/a	-999	-999	n/a	n/a	n/a	n/a	8	[0, 0, 0]	-999	PAL1	2	R1307N
1172.268	0.08	1037653	REC_EVENT	5.863	n/a	6	4	CAKE	<>	STAR	CAKE	8	[0, 0, 0]	-999	PAL1	2	R1307N
1172.348	0.0	1037733	REC_START	n/a	n/a	3	5	BED	n/a	BED	BOAT	8	[0, 0, 0]	-999	PAL1	2	R1307N
1172.348	4.0	1037733	PROBE_START	n/a	wordpools/wordpool_EN.txt	3	5	BED	n/a	BED	BOAT	8	[0, 0, 0]	-999	PAL1	2	R1307N
1176.385	1.0	1041770	PROBE_END	n/a	n/a	3	5	BED	n/a	BED	BOAT	8	[0, 0, 0]	-999	PAL1	2	R1307N
1177.385	0.0	1042769	ORIENT_START	n/a	n/a	-999	-999	n/a	n/a	n/a	n/a	8	[0, 0, 0]	-999	PAL1	2	R1307N
1177.385	0.284	1042769	REC_END	n/a	n/a	3	5	BED	n/a	BED	BOAT	8	[0, 0, 0]	-999	PAL1	2	R1307N
1177.669	0.531	1043053	ORIENT_END	n/a	n/a	-999	-999	n/a	n/a	n/a	n/a	8	[0, 0, 0]	-999	PAL1	2	R1307N
1178.2	0.0	1043584	REC_START	n/a	n/a	2	6	NET	n/a	NET	SEAT	8	[0, 0, 0]	-999	PAL1	2	R1307N
1178.2	4.0	1043584	PROBE_START	n/a	wordpools/wordpool_EN.txt	2	6	NET	n/a	NET	SEAT	8	[0, 0, 0]	-999	PAL1	2	R1307N
1178.286	3.949	1043670	REC_EVENT	5.938	n/a	3	5	BED	<>	BED	BOAT	8	[0, 0, 0]	-999	PAL1	2	R1307N
1182.235	1.0	1047619	PROBE_END	n/a	n/a	2	6	NET	n/a	NET	SEAT	8	[0, 0, 0]	-999	PAL1	2	R1307N
1183.235	0.0	1048619	REC_END	n/a	n/a	2	6	NET	n/a	NET	SEAT	8	[0, 0, 0]	-999	PAL1	2	R1307N
1183.235	0.0	1048619	RETRIEVAL_END	n/a	n/a	-999	-999	n/a	n/a	n/a	n/a	8	[0, 0, 0]	-999	PAL1	2	R1307N
1183.235	0.0	1048619	TRIAL_END	n/a	n/a	-999	-999	n/a	n/a	n/a	n/a	8	[0, 0, 0]	-999	PAL1	2	R1307N
1183.235	0.0	1048619	TRIAL_START	n/a	n/a	-999	-999	n/a	n/a	n/a	n/a	8	[0, 0, 0]	-999	PAL1	2	R1307N
1183.235	0.0	1048619	TRIAL	n/a	n/a	-999	-999	n/a	n/a	n/a	n/a	9	[0, 0, 0]	-999	PAL1	2	R1307N
1183.235	0.81	1048619	WAITING_START	n/a	n/a	-999	-999	n/a	n/a	n/a	n/a	9	[0, 0, 0]	-999	PAL1	2	R1307N
1184.045	0.874	1049429	REC_EVENT	5.845	n/a	2	6	NET	<>	NET	SEAT	8	[0, 0, 0]	-999	PAL1	2	R1307N
1184.919	0.0	1050303	ORIENT_START	n/a	n/a	-999	-999	n/a	n/a	n/a	n/a	9	[0, 0, 0]	-999	PAL1	2	R1307N
1184.919	0.0	1050303	COUNTDOWN_END	n/a	n/a	-999	-999	n/a	n/a	n/a	n/a	9	[0, 0, 0]	-999	PAL1	2	R1307N
1184.919	0.0	1050303	WAITING_END	n/a	n/a	-999	-999	n/a	n/a	n/a	n/a	9	[0, 0, 0]	-999	PAL1	2	R1307N
1184.919	10.0	1050303	COUNTDOWN_START	n/a	n/a	-999	-999	n/a	n/a	n/a	n/a	9	[0, 0, 0]	-999	PAL1	2	R1307N
1196.538	0.0	1061922	ORIENT_END	n/a	n/a	-999	-999	n/a	n/a	n/a	n/a	9	[0, 0, 0]	-999	PAL1	2	R1307N
1196.538	0.673	1061922	ENCODING_START	n/a	n/a	-999	-999	n/a	n/a	n/a	n/a	9	[0, 0, 0]	-999	PAL1	2	R1307N
1197.211	4.0	1062595	STUDY_PAIR	n/a	wordpools/wordpool_EN.txt	1	-999	n/a	n/a	SHELL	FOG	9	[0, 0, 0]	-999	PAL1	2	R1307N
1201.239	0.648	1066623	STUDY_PAIR_OFF	n/a	n/a	1	-999	n/a	n/a	SHELL	FOG	9	[0, 0, 0]	-999	PAL1	2	R1307N
1201.887	4.0	1067271	STUDY_PAIR	n/a	wordpools/wordpool_EN.txt	2	-999	n/a	n/a	BEACH	MUG	9	[0, 0, 0]	-999	PAL1	2	R1307N
1205.923	0.557	1071306	STUDY_PAIR_OFF	n/a	n/a	2	-999	n/a	n/a	BEACH	MUG	9	[0, 0, 0]	-999	PAL1	2	R1307N
1206.48	4.0	1071863	STUDY_PAIR	n/a	wordpools/wordpool_EN.txt	3	-999	n/a	n/a	CUP	BOOK	9	[0, 0, 0]	-999	PAL1	2	R1307N
1210.507	0.644	1075890	STUDY_PAIR_OFF	n/a	n/a	3	-999	n/a	n/a	CUP	BOOK	9	[0, 0, 0]	-999	PAL1	2	R1307N
1211.151	4.0	1076534	STUDY_PAIR	n/a	wordpools/wordpool_EN.txt	4	-999	n/a	n/a	BRANCH	DIME	9	[0, 0, 0]	-999	PAL1	2	R1307N
1215.191	0.688	1080574	STUDY_PAIR_OFF	n/a	n/a	4	-999	n/a	n/a	BRANCH	DIME	9	[0, 0, 0]	-999	PAL1	2	R1307N
1215.879	4.0	1081262	STUDY_PAIR	n/a	wordpools/wordpool_EN.txt	5	-999	n/a	n/a	SHOE	TANK	9	[0, 0, 0]	-999	PAL1	2	R1307N
1219.908	0.573	1085291	STUDY_PAIR_OFF	n/a	n/a	5	-999	n/a	n/a	SHOE	TANK	9	[0, 0, 0]	-999	PAL1	2	R1307N
1220.481	4.0	1085864	STUDY_PAIR	n/a	wordpools/wordpool_EN.txt	6	-999	n/a	n/a	CAVE	STEAM	9	[0, 0, 0]	-999	PAL1	2	R1307N
1224.509	0.0	1089892	STUDY_PAIR_OFF	n/a	n/a	6	-999	n/a	n/a	CAVE	STEAM	9	[0, 0, 0]	-999	PAL1	2	R1307N
1224.509	0.0	1089892	ENCODING_END	n/a	n/a	-999	-999	n/a	n/a	n/a	n/a	9	[0, 0, 0]	-999	PAL1	2	R1307N
1224.509	0.002	1089892	MATH_START	n/a	n/a	-999	-999	n/a	n/a	n/a	n/a	9	[0, 0, 0]	-999	PAL1	2	R1307N
1224.511	0.015	1089894	START	n/a	n/a	-999	-999	n/a	n/a	n/a	n/a	9	[-999, -999, -999]	-999	PAL1	2	R1307N
1224.526	6.851	1089909	PROB	6.828	n/a	-999	-999	n/a	n/a	n/a	n/a	9	[6, 3, 9]	18	PAL1	2	R1307N
1231.377	2.751	1096760	PROB	2.713	n/a	-999	-999	n/a	n/a	n/a	n/a	9	[9, 4, 1]	14	PAL1	2	R1307N
1234.128	3.883	1099510	PROB	3.85	n/a	-999	-999	n/a	n/a	n/a	n/a	9	[8, 1, 7]	16	PAL1	2	R1307N
1238.011	26.791	1103393	PROB	26.791	n/a	-999	-999	n/a	n/a	n/a	n/a	9	[5, 6, 8]	19	PAL1	2	R1307N
1264.802	0.014	1130183	STOP	n/a	n/a	-999	-999	n/a	n/a	n/a	n/a	9	[-999, -999, -999]	-999	PAL1	2	R1307N
1264.816	0.617	1130197	MATH_END	n/a	n/a	-999	-999	n/a	n/a	n/a	n/a	9	[0, 0, 0]	-999	PAL1	2	R1307N
1265.433	0.0	1130814	RETRIEVAL_START	n/a	n/a	-999	-999	n/a	n/a	n/a	n/a	9	[0, 0, 0]	-999	PAL1	2	R1307N
1265.433	0.284	1130814	ORIENT_START	n/a	n/a	-999	-999	n/a	n/a	n/a	n/a	9	[0, 0, 0]	-999	PAL1	2	R1307N
1265.717	0.536	1131098	ORIENT_END	n/a	n/a	-999	-999	n/a	n/a	n/a	n/a	9	[0, 0, 0]	-999	PAL1	2	R1307N
1266.253	0.0	1131634	REC_START	n/a	n/a	5	1	TANK	n/a	SHOE	TANK	9	[0, 0, 0]	-999	PAL1	2	R1307N
1266.253	4.0	1131634	PROBE_START	n/a	wordpools/wordpool_EN.txt	5	1	TANK	n/a	SHOE	TANK	9	[0, 0, 0]	-999	PAL1	2	R1307N
1270.283	1.0	1135664	PROBE_END	n/a	n/a	5	1	TANK	n/a	SHOE	TANK	9	[0, 0, 0]	-999	PAL1	2	R1307N
1271.283	0.0	1136664	REC_END	n/a	n/a	5	1	TANK	n/a	SHOE	TANK	9	[0, 0, 0]	-999	PAL1	2	R1307N
1271.283	0.268	1136664	ORIENT_START	n/a	n/a	-999	-999	n/a	n/a	n/a	n/a	9	[0, 0, 0]	-999	PAL1	2	R1307N
1271.551	0.547	1136932	ORIENT_END	n/a	n/a	-999	-999	n/a	n/a	n/a	n/a	9	[0, 0, 0]	-999	PAL1	2	R1307N
1272.098	0.119	1137479	REC_EVENT	5.845	n/a	5	1	TANK	<>	SHOE	TANK	9	[0, 0, 0]	-999	PAL1	2	R1307N
1272.217	0.0	1137598	REC_START	n/a	n/a	2	2	BEACH	n/a	BEACH	MUG	9	[0, 0, 0]	-999	PAL1	2	R1307N
1272.217	4.0	1137598	PROBE_START	n/a	wordpools/wordpool_EN.txt	2	2	BEACH	n/a	BEACH	MUG	9	[0, 0, 0]	-999	PAL1	2	R1307N
1276.251	1.0	1141632	PROBE_END	n/a	n/a	2	2	BEACH	n/a	BEACH	MUG	9	[0, 0, 0]	-999	PAL1	2	R1307N
1277.251	0.0	1142632	REC_END	n/a	n/a	2	2	BEACH	n/a	BEACH	MUG	9	[0, 0, 0]	-999	PAL1	2	R1307N
1277.251	0.284	1142632	ORIENT_START	n/a	n/a	-999	-999	n/a	n/a	n/a	n/a	9	[0, 0, 0]	-999	PAL1	2	R1307N
1277.535	0.637	1142916	ORIENT_END	n/a	n/a	-999	-999	n/a	n/a	n/a	n/a	9	[0, 0, 0]	-999	PAL1	2	R1307N
1278.172	0.036	1143553	REC_EVENT	5.955	n/a	2	2	BEACH	<>	BEACH	MUG	9	[0, 0, 0]	-999	PAL1	2	R1307N
1278.208	0.0	1143589	REC_START	n/a	n/a	3	3	BOOK	n/a	CUP	BOOK	9	[0, 0, 0]	-999	PAL1	2	R1307N
1278.208	4.0	1143589	PROBE_START	n/a	wordpools/wordpool_EN.txt	3	3	BOOK	n/a	CUP	BOOK	9	[0, 0, 0]	-999	PAL1	2	R1307N
1282.235	1.0	1147616	PROBE_END	n/a	n/a	3	3	BOOK	n/a	CUP	BOOK	9	[0, 0, 0]	-999	PAL1	2	R1307N
1283.235	0.0	1148616	ORIENT_START	n/a	n/a	-999	-999	n/a	n/a	n/a	n/a	9	[0, 0, 0]	-999	PAL1	2	R1307N
1283.235	0.284	1148616	REC_END	n/a	n/a	3	3	BOOK	n/a	CUP	BOOK	9	[0, 0, 0]	-999	PAL1	2	R1307N
1283.519	0.6	1148900	ORIENT_END	n/a	n/a	-999	-999	n/a	n/a	n/a	n/a	9	[0, 0, 0]	-999	PAL1	2	R1307N
1284.119	4.0	1149500	PROBE_START	n/a	wordpools/wordpool_EN.txt	4	4	DIME	n/a	BRANCH	DIME	9	[0, 0, 0]	-999	PAL1	2	R1307N
1284.119	0.062	1149500	REC_START	n/a	n/a	4	4	DIME	n/a	BRANCH	DIME	9	[0, 0, 0]	-999	PAL1	2	R1307N
1284.181	3.972	1149562	REC_EVENT	5.973	n/a	3	3	BOOK	<>	CUP	BOOK	9	[0, 0, 0]	-999	PAL1	2	R1307N
1288.153	1.0	1153533	PROBE_END	n/a	n/a	4	4	DIME	n/a	BRANCH	DIME	9	[0, 0, 0]	-999	PAL1	2	R1307N
1289.153	0.0	1154533	REC_END	n/a	n/a	4	4	DIME	n/a	BRANCH	DIME	9	[0, 0, 0]	-999	PAL1	2	R1307N
1289.153	0.284	1154533	ORIENT_START	n/a	n/a	-999	-999	n/a	n/a	n/a	n/a	9	[0, 0, 0]	-999	PAL1	2	R1307N
1289.437	0.591	1154817	ORIENT_END	n/a	n/a	-999	-999	n/a	n/a	n/a	n/a	9	[0, 0, 0]	-999	PAL1	2	R1307N
1290.028	0.124	1155408	REC_EVENT	5.909	n/a	4	4	DIME	<>	BRANCH	DIME	9	[0, 0, 0]	-999	PAL1	2	R1307N
1290.152	0.0	1155532	REC_START	n/a	n/a	1	5	SHELL	n/a	SHELL	FOG	9	[0, 0, 0]	-999	PAL1	2	R1307N
1290.152	4.0	1155532	PROBE_START	n/a	wordpools/wordpool_EN.txt	1	5	SHELL	n/a	SHELL	FOG	9	[0, 0, 0]	-999	PAL1	2	R1307N
1294.187	1.0	1159567	PROBE_END	n/a	n/a	1	5	SHELL	n/a	SHELL	FOG	9	[0, 0, 0]	-999	PAL1	2	R1307N
1295.187	0.0	1160567	REC_END	n/a	n/a	1	5	SHELL	n/a	SHELL	FOG	9	[0, 0, 0]	-999	PAL1	2	R1307N
1295.187	0.284	1160567	ORIENT_START	n/a	n/a	-999	-999	n/a	n/a	n/a	n/a	9	[0, 0, 0]	-999	PAL1	2	R1307N
1295.471	0.66	1160851	ORIENT_END	n/a	n/a	-999	-999	n/a	n/a	n/a	n/a	9	[0, 0, 0]	-999	PAL1	2	R1307N
1296.131	0.0	1161511	REC_START	n/a	n/a	6	6	CAVE	n/a	CAVE	STEAM	9	[0, 0, 0]	-999	PAL1	2	R1307N
1296.131	4.0	1161511	PROBE_START	n/a	wordpools/wordpool_EN.txt	6	6	CAVE	n/a	CAVE	STEAM	9	[0, 0, 0]	-999	PAL1	2	R1307N
1296.177	3.978	1161557	REC_EVENT	6.025	n/a	1	5	SHELL	<>	SHELL	FOG	9	[0, 0, 0]	-999	PAL1	2	R1307N
1300.155	1.0	1165535	PROBE_END	n/a	n/a	6	6	CAVE	n/a	CAVE	STEAM	9	[0, 0, 0]	-999	PAL1	2	R1307N
1301.155	0.0	1166535	REC_END	n/a	n/a	6	6	CAVE	n/a	CAVE	STEAM	9	[0, 0, 0]	-999	PAL1	2	R1307N
1301.155	0.0	1166535	RETRIEVAL_END	n/a	n/a	-999	-999	n/a	n/a	n/a	n/a	9	[0, 0, 0]	-999	PAL1	2	R1307N
1301.155	0.0	1166535	TRIAL_END	n/a	n/a	-999	-999	n/a	n/a	n/a	n/a	9	[0, 0, 0]	-999	PAL1	2	R1307N
1301.155	0.0	1166535	TRIAL_START	n/a	n/a	-999	-999	n/a	n/a	n/a	n/a	9	[0, 0, 0]	-999	PAL1	2	R1307N
1301.155	0.0	1166535	TRIAL	n/a	n/a	-999	-999	n/a	n/a	n/a	n/a	10	[0, 0, 0]	-999	PAL1	2	R1307N
1301.155	0.931	1166535	WAITING_START	n/a	n/a	-999	-999	n/a	n/a	n/a	n/a	10	[0, 0, 0]	-999	PAL1	2	R1307N
1302.086	0.736	1167466	REC_EVENT	5.955	n/a	6	6	CAVE	<>	CAVE	STEAM	9	[0, 0, 0]	-999	PAL1	2	R1307N
1302.822	0.0	1168202	ORIENT_START	n/a	n/a	-999	-999	n/a	n/a	n/a	n/a	10	[0, 0, 0]	-999	PAL1	2	R1307N
1302.822	0.0	1168202	WAITING_END	n/a	n/a	-999	-999	n/a	n/a	n/a	n/a	10	[0, 0, 0]	-999	PAL1	2	R1307N
1302.822	10.0	1168202	COUNTDOWN_START	n/a	n/a	-999	-999	n/a	n/a	n/a	n/a	10	[0, 0, 0]	-999	PAL1	2	R1307N
1302.822	11.452	1168202	COUNTDOWN_END	n/a	n/a	-999	-999	n/a	n/a	n/a	n/a	10	[0, 0, 0]	-999	PAL1	2	R1307N
1314.274	0.0	1179654	ENCODING_START	n/a	n/a	-999	-999	n/a	n/a	n/a	n/a	10	[0, 0, 0]	-999	PAL1	2	R1307N
1314.274	0.648	1179654	ORIENT_END	n/a	n/a	-999	-999	n/a	n/a	n/a	n/a	10	[0, 0, 0]	-999	PAL1	2	R1307N
1314.922	4.0	1180302	STUDY_PAIR	n/a	wordpools/wordpool_EN.txt	1	-999	n/a	n/a	CANE	PIN	10	[0, 0, 0]	-999	PAL1	2	R1307N
1318.958	0.667	1184337	STUDY_PAIR_OFF	n/a	n/a	1	-999	n/a	n/a	CANE	PIN	10	[0, 0, 0]	-999	PAL1	2	R1307N
1319.625	4.0	1185004	STUDY_PAIR	n/a	wordpools/wordpool_EN.txt	2	-999	n/a	n/a	PANTS	TEA	10	[0, 0, 0]	-999	PAL1	2	R1307N
1323.66	0.523	1189039	STUDY_PAIR_OFF	n/a	n/a	2	-999	n/a	n/a	PANTS	TEA	10	[0, 0, 0]	-999	PAL1	2	R1307N
1324.183	4.0	1189562	STUDY_PAIR	n/a	wordpools/wordpool_EN.txt	3	-999	n/a	n/a	FORK	SMOKE	10	[0, 0, 0]	-999	PAL1	2	R1307N
1328.21	0.661	1193589	STUDY_PAIR_OFF	n/a	n/a	3	-999	n/a	n/a	FORK	SMOKE	10	[0, 0, 0]	-999	PAL1	2	R1307N
1328.871	4.0	1194250	STUDY_PAIR	n/a	wordpools/wordpool_EN.txt	4	-999	n/a	n/a	WAVE	CAGE	10	[0, 0, 0]	-999	PAL1	2	R1307N
1332.91	0.714	1198289	STUDY_PAIR_OFF	n/a	n/a	4	-999	n/a	n/a	WAVE	CAGE	10	[0, 0, 0]	-999	PAL1	2	R1307N
1333.624	4.0	1199003	STUDY_PAIR	n/a	wordpools/wordpool_EN.txt	5	-999	n/a	n/a	OWL	HORN	10	[0, 0, 0]	-999	PAL1	2	R1307N
1337.662	0.685	1203041	STUDY_PAIR_OFF	n/a	n/a	5	-999	n/a	n/a	OWL	HORN	10	[0, 0, 0]	-999	PAL1	2	R1307N
1338.347	4.0	1203726	STUDY_PAIR	n/a	wordpools/wordpool_EN.txt	6	-999	n/a	n/a	PEA	SHEEP	10	[0, 0, 0]	-999	PAL1	2	R1307N
1342.379	0.0	1207758	MATH_START	n/a	n/a	-999	-999	n/a	n/a	n/a	n/a	10	[0, 0, 0]	-999	PAL1	2	R1307N
1342.379	0.0	1207758	ENCODING_END	n/a	n/a	-999	-999	n/a	n/a	n/a	n/a	10	[0, 0, 0]	-999	PAL1	2	R1307N
1342.379	0.001	1207758	STUDY_PAIR_OFF	n/a	n/a	6	-999	n/a	n/a	PEA	SHEEP	10	[0, 0, 0]	-999	PAL1	2	R1307N
1342.38	0.015	1207759	START	n/a	n/a	-999	-999	n/a	n/a	n/a	n/a	10	[-999, -999, -999]	-999	PAL1	2	R1307N
1342.395	4.518	1207774	PROB	4.487	n/a	-999	-999	n/a	n/a	n/a	n/a	10	[6, 5, 1]	12	PAL1	2	R1307N
1346.913	7.068	1212291	PROB	7.042	n/a	-999	-999	n/a	n/a	n/a	n/a	10	[3, 2, 5]	10	PAL1	2	R1307N
1353.981	9.67	1219359	PROB	9.67	n/a	-999	-999	n/a	n/a	n/a	n/a	10	[5, 4, 7]	16	PAL1	2	R1307N
1363.651	0.016	1229029	STOP	n/a	n/a	-999	-999	n/a	n/a	n/a	n/a	10	[-999, -999, -999]	-999	PAL1	2	R1307N
1363.667	0.564	1229045	MATH_END	n/a	n/a	-999	-999	n/a	n/a	n/a	n/a	10	[0, 0, 0]	-999	PAL1	2	R1307N
1364.231	0.0	1229609	RETRIEVAL_START	n/a	n/a	-999	-999	n/a	n/a	n/a	n/a	10	[0, 0, 0]	-999	PAL1	2	R1307N
1364.231	0.285	1229609	ORIENT_START	n/a	n/a	-999	-999	n/a	n/a	n/a	n/a	10	[0, 0, 0]	-999	PAL1	2	R1307N
1364.516	0.744	1229894	ORIENT_END	n/a	n/a	-999	-999	n/a	n/a	n/a	n/a	10	[0, 0, 0]	-999	PAL1	2	R1307N
1365.26	0.0	1230638	REC_START	n/a	n/a	1	1	CANE	n/a	CANE	PIN	10	[0, 0, 0]	-999	PAL1	2	R1307N
1365.26	4.0	1230638	PROBE_START	n/a	wordpools/wordpool_EN.txt	1	1	CANE	n/a	CANE	PIN	10	[0, 0, 0]	-999	PAL1	2	R1307N
1369.283	1.0	1234661	PROBE_END	n/a	n/a	1	1	CANE	n/a	CANE	PIN	10	[0, 0, 0]	-999	PAL1	2	R1307N
1370.283	0.0	1235661	REC_END	n/a	n/a	1	1	CANE	n/a	CANE	PIN	10	[0, 0, 0]	-999	PAL1	2	R1307N
1370.283	0.285	1235661	ORIENT_START	n/a	n/a	-999	-999	n/a	n/a	n/a	n/a	10	[0, 0, 0]	-999	PAL1	2	R1307N
1370.568	0.53	1235946	ORIENT_END	n/a	n/a	-999	-999	n/a	n/a	n/a	n/a	10	[0, 0, 0]	-999	PAL1	2	R1307N
1371.098	0.0	1236475	REC_START	n/a	n/a	4	2	CAGE	n/a	WAVE	CAGE	10	[0, 0, 0]	-999	PAL1	2	R1307N
1371.098	4.0	1236475	PROBE_START	n/a	wordpools/wordpool_EN.txt	4	2	CAGE	n/a	WAVE	CAGE	10	[0, 0, 0]	-999	PAL1	2	R1307N
1371.308	3.826	1236685	REC_EVENT	6.048	n/a	1	1	CANE	<>	CANE	PIN	10	[0, 0, 0]	-999	PAL1	2	R1307N
1375.134	1.0	1240511	PROBE_END	n/a	n/a	4	2	CAGE	n/a	WAVE	CAGE	10	[0, 0, 0]	-999	PAL1	2	R1307N
1376.134	0.0	1241511	REC_END	n/a	n/a	4	2	CAGE	n/a	WAVE	CAGE	10	[0, 0, 0]	-999	PAL1	2	R1307N
1376.134	0.284	1241511	ORIENT_START	n/a	n/a	-999	-999	n/a	n/a	n/a	n/a	10	[0, 0, 0]	-999	PAL1	2	R1307N
1376.418	0.531	1241795	ORIENT_END	n/a	n/a	-999	-999	n/a	n/a	n/a	n/a	10	[0, 0, 0]	-999	PAL1	2	R1307N
1376.949	0.017	1242326	REC_EVENT	5.851	n/a	4	2	CAGE	<>	WAVE	CAGE	10	[0, 0, 0]	-999	PAL1	2	R1307N
1376.966	0.0	1242343	REC_START	n/a	n/a	5	3	HORN	n/a	OWL	HORN	10	[0, 0, 0]	-999	PAL1	2	R1307N
1376.966	4.0	1242343	PROBE_START	n/a	wordpools/wordpool_EN.txt	5	3	HORN	n/a	OWL	HORN	10	[0, 0, 0]	-999	PAL1	2	R1307N
1381.002	1.0	1246379	PROBE_END	n/a	n/a	5	3	HORN	n/a	OWL	HORN	10	[0, 0, 0]	-999	PAL1	2	R1307N
1382.002	0.0	1247379	REC_END	n/a	n/a	5	3	HORN	n/a	OWL	HORN	10	[0, 0, 0]	-999	PAL1	2	R1307N
1382.002	0.283	1247379	ORIENT_START	n/a	n/a	-999	-999	n/a	n/a	n/a	n/a	10	[0, 0, 0]	-999	PAL1	2	R1307N
1382.285	0.538	1247662	ORIENT_END	n/a	n/a	-999	-999	n/a	n/a	n/a	n/a	10	[0, 0, 0]	-999	PAL1	2	R1307N
1382.823	0.014	1248200	REC_EVENT	5.857	n/a	5	3	HORN	<>	OWL	HORN	10	[0, 0, 0]	-999	PAL1	2	R1307N
1382.837	4.0	1248214	PROBE_START	n/a	wordpools/wordpool_EN.txt	6	4	PEA	n/a	PEA	SHEEP	10	[0, 0, 0]	-999	PAL1	2	R1307N
1382.837	4.032	1248214	REC_START	n/a	n/a	6	4	PEA	n/a	PEA	SHEEP	10	[0, 0, 0]	-999	PAL1	2	R1307N
1386.869	1.0	1252246	PROBE_END	n/a	n/a	6	4	PEA	n/a	PEA	SHEEP	10	[0, 0, 0]	-999	PAL1	2	R1307N
1387.869	0.0	1253246	REC_END	n/a	n/a	6	4	PEA	n/a	PEA	SHEEP	10	[0, 0, 0]	-999	PAL1	2	R1307N
1387.869	0.284	1253246	ORIENT_START	n/a	n/a	-999	-999	n/a	n/a	n/a	n/a	10	[0, 0, 0]	-999	PAL1	2	R1307N
1388.153	0.541	1253530	ORIENT_END	n/a	n/a	-999	-999	n/a	n/a	n/a	n/a	10	[0, 0, 0]	-999	PAL1	2	R1307N
1388.694	0.085	1254071	REC_EVENT	5.857	n/a	6	4	PEA	<>	PEA	SHEEP	10	[0, 0, 0]	-999	PAL1	2	R1307N
1388.779	0.0	1254156	REC_START	n/a	n/a	3	5	SMOKE	n/a	FORK	SMOKE	10	[0, 0, 0]	-999	PAL1	2	R1307N
1388.779	4.0	1254156	PROBE_START	n/a	wordpools/wordpool_EN.txt	3	5	SMOKE	n/a	FORK	SMOKE	10	[0, 0, 0]	-999	PAL1	2	R1307N
1392.804	1.0	1258181	PROBE_END	n/a	n/a	3	5	SMOKE	n/a	FORK	SMOKE	10	[0, 0, 0]	-999	PAL1	2	R1307N
1393.804	0.0	1259181	REC_END	n/a	n/a	3	5	SMOKE	n/a	FORK	SMOKE	10	[0, 0, 0]	-999	PAL1	2	R1307N
1393.804	0.283	1259181	ORIENT_START	n/a	n/a	-999	-999	n/a	n/a	n/a	n/a	10	[0, 0, 0]	-999	PAL1	2	R1307N
1394.087	0.553	1259464	ORIENT_END	n/a	n/a	-999	-999	n/a	n/a	n/a	n/a	10	[0, 0, 0]	-999	PAL1	2	R1307N
1394.64	4.0	1260017	PROBE_START	n/a	wordpools/wordpool_EN.txt	2	6	PANTS	n/a	PANTS	TEA	10	[0, 0, 0]	-999	PAL1	2	R1307N
1394.64	0.06	1260017	REC_START	n/a	n/a	2	6	PANTS	n/a	PANTS	TEA	10	[0, 0, 0]	-999	PAL1	2	R1307N
1394.7	3.972	1260077	REC_EVENT	5.921	n/a	3	5	SMOKE	<>	FORK	SMOKE	10	[0, 0, 0]	-999	PAL1	2	R1307N
1398.672	1.0	1264049	PROBE_END	n/a	n/a	2	6	PANTS	n/a	PANTS	TEA	10	[0, 0, 0]	-999	PAL1	2	R1307N
1399.672	0.0	1265048	REC_END	n/a	n/a	2	6	PANTS	n/a	PANTS	TEA	10	[0, 0, 0]	-999	PAL1	2	R1307N
1399.672	0.0	1265048	RETRIEVAL_END	n/a	n/a	-999	-999	n/a	n/a	n/a	n/a	10	[0, 0, 0]	-999	PAL1	2	R1307N
1399.672	0.0	1265048	TRIAL_END	n/a	n/a	-999	-999	n/a	n/a	n/a	n/a	10	[0, 0, 0]	-999	PAL1	2	R1307N
1399.672	0.0	1265048	TRIAL_START	n/a	n/a	-999	-999	n/a	n/a	n/a	n/a	10	[0, 0, 0]	-999	PAL1	2	R1307N
1399.672	0.0	1265048	TRIAL	n/a	n/a	-999	-999	n/a	n/a	n/a	n/a	11	[0, 0, 0]	-999	PAL1	2	R1307N
1399.672	0.825	1265048	WAITING_START	n/a	n/a	-999	-999	n/a	n/a	n/a	n/a	11	[0, 0, 0]	-999	PAL1	2	R1307N
1400.497	17.212	1265873	REC_EVENT	5.857	n/a	2	6	PANTS	<>	PANTS	TEA	10	[0, 0, 0]	-999	PAL1	2	R1307N
1417.709	0.0	1283085	COUNTDOWN_END	n/a	n/a	-999	-999	n/a	n/a	n/a	n/a	11	[0, 0, 0]	-999	PAL1	2	R1307N
1417.709	0.0	1283085	ORIENT_START	n/a	n/a	-999	-999	n/a	n/a	n/a	n/a	11	[0, 0, 0]	-999	PAL1	2	R1307N
1417.709	0.0	1283085	WAITING_END	n/a	n/a	-999	-999	n/a	n/a	n/a	n/a	11	[0, 0, 0]	-999	PAL1	2	R1307N
1417.709	10.0	1283085	COUNTDOWN_START	n/a	n/a	-999	-999	n/a	n/a	n/a	n/a	11	[0, 0, 0]	-999	PAL1	2	R1307N
1429.343	0.0	1294718	ORIENT_END	n/a	n/a	-999	-999	n/a	n/a	n/a	n/a	11	[0, 0, 0]	-999	PAL1	2	R1307N
1429.343	0.738	1294718	ENCODING_START	n/a	n/a	-999	-999	n/a	n/a	n/a	n/a	11	[0, 0, 0]	-999	PAL1	2	R1307N
1430.081	4.0	1295456	STUDY_PAIR	n/a	wordpools/wordpool_EN.txt	1	-999	n/a	n/a	TOE	BOY	11	[0, 0, 0]	-999	PAL1	2	R1307N
1434.111	0.729	1299486	STUDY_PAIR_OFF	n/a	n/a	1	-999	n/a	n/a	TOE	BOY	11	[0, 0, 0]	-999	PAL1	2	R1307N
1434.84	4.0	1300215	STUDY_PAIR	n/a	wordpools/wordpool_EN.txt	2	-999	n/a	n/a	WORM	FENCE	11	[0, 0, 0]	-999	PAL1	2	R1307N
1438.878	0.613	1304253	STUDY_PAIR_OFF	n/a	n/a	2	-999	n/a	n/a	WORM	FENCE	11	[0, 0, 0]	-999	PAL1	2	R1307N
1439.491	4.0	1304866	STUDY_PAIR	n/a	wordpools/wordpool_EN.txt	3	-999	n/a	n/a	HEN	MULE	11	[0, 0, 0]	-999	PAL1	2	R1307N
1443.529	0.505	1308904	STUDY_PAIR_OFF	n/a	n/a	3	-999	n/a	n/a	HEN	MULE	11	[0, 0, 0]	-999	PAL1	2	R1307N
1444.034	4.0	1309409	STUDY_PAIR	n/a	wordpools/wordpool_EN.txt	4	-999	n/a	TOAST	TOAST	SMILE	11	[0, 0, 0]	-999	PAL1	2	R1307N
1448.063	0.588	1313438	STUDY_PAIR_OFF	n/a	n/a	4	-999	n/a	TOAST	TOAST	SMILE	11	[0, 0, 0]	-999	PAL1	2	R1307N
1448.651	4.0	1314026	STUDY_PAIR	n/a	wordpools/wordpool_EN.txt	5	-999	n/a	n/a	BOOT	STREET	11	[0, 0, 0]	-999	PAL1	2	R1307N
1452.681	0.5	1318056	STUDY_PAIR_OFF	n/a	n/a	5	-999	n/a	n/a	BOOT	STREET	11	[0, 0, 0]	-999	PAL1	2	R1307N
1453.181	4.0	1318556	STUDY_PAIR	n/a	wordpools/wordpool_EN.txt	6	-999	n/a	n/a	BEAN	HOOF	11	[0, 0, 0]	-999	PAL1	2	R1307N
1457.214	0.0	1322588	MATH_START	n/a	n/a	-999	-999	n/a	n/a	n/a	n/a	11	[0, 0, 0]	-999	PAL1	2	R1307N
1457.214	0.0	1322588	STUDY_PAIR_OFF	n/a	n/a	6	-999	n/a	n/a	BEAN	HOOF	11	[0, 0, 0]	-999	PAL1	2	R1307N
1457.214	0.002	1322588	ENCODING_END	n/a	n/a	-999	-999	n/a	n/a	n/a	n/a	11	[0, 0, 0]	-999	PAL1	2	R1307N
1457.216	0.015	1322590	START	n/a	n/a	-999	-999	n/a	n/a	n/a	n/a	11	[-999, -999, -999]	-999	PAL1	2	R1307N
1457.231	14.636	1322605	PROB	14.604	n/a	-999	-999	n/a	n/a	n/a	n/a	11	[9, 6, 7]	22	PAL1	2	R1307N
1471.867	3.3	1337241	PROB	3.272	n/a	-999	-999	n/a	n/a	n/a	n/a	11	[3, 7, 3]	13	PAL1	2	R1307N
1475.167	7.716	1340541	PROB	7.716	n/a	-999	-999	n/a	n/a	n/a	n/a	11	[6, 4, 9]	19	PAL1	2	R1307N
1482.883	0.019	1348256	STOP	n/a	n/a	-999	-999	n/a	n/a	n/a	n/a	11	[-999, -999, -999]	-999	PAL1	2	R1307N
1482.902	0.688	1348275	MATH_END	n/a	n/a	-999	-999	n/a	n/a	n/a	n/a	11	[0, 0, 0]	-999	PAL1	2	R1307N
1483.59	0.0	1348963	RETRIEVAL_START	n/a	n/a	-999	-999	n/a	n/a	n/a	n/a	11	[0, 0, 0]	-999	PAL1	2	R1307N
1483.59	0.279	1348963	ORIENT_START	n/a	n/a	-999	-999	n/a	n/a	n/a	n/a	11	[0, 0, 0]	-999	PAL1	2	R1307N
1483.869	0.528	1349242	ORIENT_END	n/a	n/a	-999	-999	n/a	n/a	n/a	n/a	11	[0, 0, 0]	-999	PAL1	2	R1307N
1484.397	0.0	1349770	REC_START	n/a	n/a	5	1	BOOT	n/a	BOOT	STREET	11	[0, 0, 0]	-999	PAL1	2	R1307N
1484.397	4.0	1349770	PROBE_START	n/a	wordpools/wordpool_EN.txt	5	1	BOOT	n/a	BOOT	STREET	11	[0, 0, 0]	-999	PAL1	2	R1307N
1488.436	1.0	1353809	PROBE_END	n/a	n/a	5	1	BOOT	n/a	BOOT	STREET	11	[0, 0, 0]	-999	PAL1	2	R1307N
1489.436	0.0	1354809	ORIENT_START	n/a	n/a	-999	-999	n/a	n/a	n/a	n/a	11	[0, 0, 0]	-999	PAL1	2	R1307N
1489.436	0.285	1354809	REC_END	n/a	n/a	5	1	BOOT	n/a	BOOT	STREET	11	[0, 0, 0]	-999	PAL1	2	R1307N
1489.721	0.521	1355094	ORIENT_END	n/a	n/a	-999	-999	n/a	n/a	n/a	n/a	11	[0, 0, 0]	-999	PAL1	2	R1307N
1490.242	0.183	1355615	REC_EVENT	5.845	n/a	5	1	BOOT	<>	BOOT	STREET	11	[0, 0, 0]	-999	PAL1	2	R1307N
1490.425	0.0	1355798	REC_START	n/a	n/a	4	2	SMILE	TOAST	TOAST	SMILE	11	[0, 0, 0]	-999	PAL1	2	R1307N
1490.425	4.0	1355798	PROBE_START	n/a	wordpools/wordpool_EN.txt	4	2	SMILE	TOAST	TOAST	SMILE	11	[0, 0, 0]	-999	PAL1	2	R1307N
1492.762	1.692	1358135	REC_EVENT	2.337	n/a	4	2	SMILE	TOAST	TOAST	SMILE	11	[0, 0, 0]	-999	PAL1	2	R1307N
1494.454	1.0	1359827	PROBE_END	n/a	n/a	4	2	SMILE	n/a	TOAST	SMILE	11	[0, 0, 0]	-999	PAL1	2	R1307N
1495.454	0.0	1360827	REC_END	n/a	n/a	4	2	SMILE	n/a	TOAST	SMILE	11	[0, 0, 0]	-999	PAL1	2	R1307N
1495.454	0.284	1360827	ORIENT_START	n/a	n/a	-999	-999	n/a	n/a	n/a	n/a	11	[0, 0, 0]	-999	PAL1	2	R1307N
1495.738	0.737	1361111	ORIENT_END	n/a	n/a	-999	-999	n/a	n/a	n/a	n/a	11	[0, 0, 0]	-999	PAL1	2	R1307N
1496.475	0.0	1361848	REC_START	n/a	n/a	1	3	TOE	n/a	TOE	BOY	11	[0, 0, 0]	-999	PAL1	2	R1307N
1496.475	4.0	1361848	PROBE_START	n/a	wordpools/wordpool_EN.txt	1	3	TOE	n/a	TOE	BOY	11	[0, 0, 0]	-999	PAL1	2	R1307N
1500.488	1.0	1365861	PROBE_END	n/a	n/a	1	3	TOE	n/a	TOE	BOY	11	[0, 0, 0]	-999	PAL1	2	R1307N
1501.488	0.0	1366861	ORIENT_START	n/a	n/a	-999	-999	n/a	n/a	n/a	n/a	11	[0, 0, 0]	-999	PAL1	2	R1307N
1501.488	0.284	1366861	REC_END	n/a	n/a	1	3	TOE	n/a	TOE	BOY	11	[0, 0, 0]	-999	PAL1	2	R1307N
1501.772	0.514	1367145	ORIENT_END	n/a	n/a	-999	-999	n/a	n/a	n/a	n/a	11	[0, 0, 0]	-999	PAL1	2	R1307N
1502.286	0.0	1367659	REC_START	n/a	n/a	6	4	HOOF	n/a	BEAN	HOOF	11	[0, 0, 0]	-999	PAL1	2	R1307N
1502.286	4.0	1367659	PROBE_START	n/a	wordpools/wordpool_EN.txt	6	4	HOOF	n/a	BEAN	HOOF	11	[0, 0, 0]	-999	PAL1	2	R1307N
1502.5	3.822	1367873	REC_EVENT	6.025	n/a	1	3	TOE	<>	TOE	BOY	11	[0, 0, 0]	-999	PAL1	2	R1307N
1506.322	1.0	1371695	PROBE_END	n/a	n/a	6	4	HOOF	n/a	BEAN	HOOF	11	[0, 0, 0]	-999	PAL1	2	R1307N
1507.322	0.0	1372695	REC_END	n/a	n/a	6	4	HOOF	n/a	BEAN	HOOF	11	[0, 0, 0]	-999	PAL1	2	R1307N
1507.322	0.285	1372695	ORIENT_START	n/a	n/a	-999	-999	n/a	n/a	n/a	n/a	11	[0, 0, 0]	-999	PAL1	2	R1307N
1507.607	0.507	1372980	ORIENT_END	n/a	n/a	-999	-999	n/a	n/a	n/a	n/a	11	[0, 0, 0]	-999	PAL1	2	R1307N
1508.114	0.078	1373487	REC_EVENT	5.828	n/a	6	4	HOOF	<>	BEAN	HOOF	11	[0, 0, 0]	-999	PAL1	2	R1307N
1508.192	0.0	1373565	REC_START	n/a	n/a	3	5	HEN	n/a	HEN	MULE	11	[0, 0, 0]	-999	PAL1	2	R1307N
1508.192	4.0	1373565	PROBE_START	n/a	wordpools/wordpool_EN.txt	3	5	HEN	n/a	HEN	MULE	11	[0, 0, 0]	-999	PAL1	2	R1307N
1512.224	1.0	1377596	PROBE_END	n/a	n/a	3	5	HEN	n/a	HEN	MULE	11	[0, 0, 0]	-999	PAL1	2	R1307N
1513.224	0.0	1378596	REC_END	n/a	n/a	3	5	HEN	n/a	HEN	MULE	11	[0, 0, 0]	-999	PAL1	2	R1307N
1513.224	0.283	1378596	ORIENT_START	n/a	n/a	-999	-999	n/a	n/a	n/a	n/a	11	[0, 0, 0]	-999	PAL1	2	R1307N
1513.507	0.536	1378879	ORIENT_END	n/a	n/a	-999	-999	n/a	n/a	n/a	n/a	11	[0, 0, 0]	-999	PAL1	2	R1307N
1514.043	4.0	1379415	PROBE_START	n/a	wordpools/wordpool_EN.txt	2	6	FENCE	n/a	WORM	FENCE	11	[0, 0, 0]	-999	PAL1	2	R1307N
1514.043	0.041	1379415	REC_START	n/a	n/a	2	6	FENCE	n/a	WORM	FENCE	11	[0, 0, 0]	-999	PAL1	2	R1307N
1514.084	3.99	1379456	REC_EVENT	5.892	n/a	3	5	HEN	<>	HEN	MULE	11	[0, 0, 0]	-999	PAL1	2	R1307N
1518.074	1.0	1383446	PROBE_END	n/a	n/a	2	6	FENCE	n/a	WORM	FENCE	11	[0, 0, 0]	-999	PAL1	2	R1307N
1519.074	0.0	1384446	TRIAL	n/a	n/a	-999	-999	n/a	n/a	n/a	n/a	12	[0, 0, 0]	-999	PAL1	2	R1307N
1519.074	0.0	1384446	TRIAL_START	n/a	n/a	-999	-999	n/a	n/a	n/a	n/a	11	[0, 0, 0]	-999	PAL1	2	R1307N
1519.074	0.0	1384446	TRIAL_END	n/a	n/a	-999	-999	n/a	n/a	n/a	n/a	11	[0, 0, 0]	-999	PAL1	2	R1307N
1519.074	0.0	1384446	WAITING_START	n/a	n/a	-999	-999	n/a	n/a	n/a	n/a	12	[0, 0, 0]	-999	PAL1	2	R1307N
1519.074	0.0	1384446	REC_END	n/a	n/a	2	6	FENCE	n/a	WORM	FENCE	11	[0, 0, 0]	-999	PAL1	2	R1307N
1519.074	0.808	1384446	RETRIEVAL_END	n/a	n/a	-999	-999	n/a	n/a	n/a	n/a	11	[0, 0, 0]	-999	PAL1	2	R1307N
1519.882	0.976	1385254	REC_EVENT	5.839	n/a	2	6	FENCE	<>	WORM	FENCE	11	[0, 0, 0]	-999	PAL1	2	R1307N
1520.858	0.0	1386230	ORIENT_START	n/a	n/a	-999	-999	n/a	n/a	n/a	n/a	12	[0, 0, 0]	-999	PAL1	2	R1307N
1520.858	0.0	1386230	COUNTDOWN_END	n/a	n/a	-999	-999	n/a	n/a	n/a	n/a	12	[0, 0, 0]	-999	PAL1	2	R1307N
1520.858	0.0	1386230	WAITING_END	n/a	n/a	-999	-999	n/a	n/a	n/a	n/a	12	[0, 0, 0]	-999	PAL1	2	R1307N
1520.858	10.0	1386230	COUNTDOWN_START	n/a	n/a	-999	-999	n/a	n/a	n/a	n/a	12	[0, 0, 0]	-999	PAL1	2	R1307N
1532.377	0.0	1397749	ORIENT_END	n/a	n/a	-999	-999	n/a	n/a	n/a	n/a	12	[0, 0, 0]	-999	PAL1	2	R1307N
1532.377	0.706	1397749	ENCODING_START	n/a	n/a	-999	-999	n/a	n/a	n/a	n/a	12	[0, 0, 0]	-999	PAL1	2	R1307N
1533.083	4.0	1398455	STUDY_PAIR	n/a	wordpools/wordpool_EN.txt	1	-999	n/a	n/a	PIE	CRANE	12	[0, 0, 0]	-999	PAL1	2	R1307N
1537.111	0.507	1402483	STUDY_PAIR_OFF	n/a	n/a	1	-999	n/a	n/a	PIE	CRANE	12	[0, 0, 0]	-999	PAL1	2	R1307N
1537.618	4.0	1402989	STUDY_PAIR	n/a	wordpools/wordpool_EN.txt	2	-999	n/a	n/a	ARK	BRICK	12	[0, 0, 0]	-999	PAL1	2	R1307N
1541.646	0.679	1407017	STUDY_PAIR_OFF	n/a	n/a	2	-999	n/a	n/a	ARK	BRICK	12	[0, 0, 0]	-999	PAL1	2	R1307N
1542.325	4.0	1407696	STUDY_PAIR	n/a	wordpools/wordpool_EN.txt	3	-999	n/a	n/a	BENCH	BREAD	12	[0, 0, 0]	-999	PAL1	2	R1307N
1546.362	0.526	1411733	STUDY_PAIR_OFF	n/a	n/a	3	-999	n/a	n/a	BENCH	BREAD	12	[0, 0, 0]	-999	PAL1	2	R1307N
1546.888	4.0	1412259	STUDY_PAIR	n/a	wordpools/wordpool_EN.txt	4	-999	n/a	n/a	SOUP	RIB	12	[0, 0, 0]	-999	PAL1	2	R1307N
1550.913	0.703	1416284	STUDY_PAIR_OFF	n/a	n/a	4	-999	n/a	n/a	SOUP	RIB	12	[0, 0, 0]	-999	PAL1	2	R1307N
1551.616	4.0	1416987	STUDY_PAIR	n/a	wordpools/wordpool_EN.txt	5	-999	n/a	n/a	ROOF	BRIDGE	12	[0, 0, 0]	-999	PAL1	2	R1307N
1555.648	0.527	1421019	STUDY_PAIR_OFF	n/a	n/a	5	-999	n/a	n/a	ROOF	BRIDGE	12	[0, 0, 0]	-999	PAL1	2	R1307N
1556.175	4.0	1421546	STUDY_PAIR	n/a	wordpools/wordpool_EN.txt	6	-999	n/a	n/a	TRAIN	CLOUD	12	[0, 0, 0]	-999	PAL1	2	R1307N
1560.215	0.0	1425586	STUDY_PAIR_OFF	n/a	n/a	6	-999	n/a	n/a	TRAIN	CLOUD	12	[0, 0, 0]	-999	PAL1	2	R1307N
1560.215	0.0	1425586	ENCODING_END	n/a	n/a	-999	-999	n/a	n/a	n/a	n/a	12	[0, 0, 0]	-999	PAL1	2	R1307N
1560.215	0.001	1425586	MATH_START	n/a	n/a	-999	-999	n/a	n/a	n/a	n/a	12	[0, 0, 0]	-999	PAL1	2	R1307N
1560.216	0.015	1425587	START	n/a	n/a	-999	-999	n/a	n/a	n/a	n/a	12	[-999, -999, -999]	-999	PAL1	2	R1307N
1560.231	11.769	1425602	PROB	11.74	n/a	-999	-999	n/a	n/a	n/a	n/a	12	[5, 1, 8]	14	PAL1	2	R1307N
1572.0	4.868	1437370	PROB	4.834	n/a	-999	-999	n/a	n/a	n/a	n/a	12	[4, 8, 8]	20	PAL1	2	R1307N
1576.868	4.526	1442238	PROB	4.526	n/a	-999	-999	n/a	n/a	n/a	n/a	12	[2, 1, 7]	10	PAL1	2	R1307N
1581.394	0.008	1446764	STOP	n/a	n/a	-999	-999	n/a	n/a	n/a	n/a	12	[-999, -999, -999]	-999	PAL1	2	R1307N
1581.402	0.651	1446772	MATH_END	n/a	n/a	-999	-999	n/a	n/a	n/a	n/a	12	[0, 0, 0]	-999	PAL1	2	R1307N
1582.053	0.0	1447423	RETRIEVAL_START	n/a	n/a	-999	-999	n/a	n/a	n/a	n/a	12	[0, 0, 0]	-999	PAL1	2	R1307N
1582.053	0.282	1447423	ORIENT_START	n/a	n/a	-999	-999	n/a	n/a	n/a	n/a	12	[0, 0, 0]	-999	PAL1	2	R1307N
1582.335	0.68	1447705	ORIENT_END	n/a	n/a	-999	-999	n/a	n/a	n/a	n/a	12	[0, 0, 0]	-999	PAL1	2	R1307N
1583.015	0.0	1448385	REC_START	n/a	n/a	3	1	BREAD	n/a	BENCH	BREAD	12	[0, 0, 0]	-999	PAL1	2	R1307N
1583.015	4.0	1448385	PROBE_START	n/a	wordpools/wordpool_EN.txt	3	1	BREAD	n/a	BENCH	BREAD	12	[0, 0, 0]	-999	PAL1	2	R1307N
1587.053	1.0	1452423	PROBE_END	n/a	n/a	3	1	BREAD	n/a	BENCH	BREAD	12	[0, 0, 0]	-999	PAL1	2	R1307N
1588.053	0.0	1453423	ORIENT_START	n/a	n/a	-999	-999	n/a	n/a	n/a	n/a	12	[0, 0, 0]	-999	PAL1	2	R1307N
1588.053	0.3	1453423	REC_END	n/a	n/a	3	1	BREAD	n/a	BENCH	BREAD	12	[0, 0, 0]	-999	PAL1	2	R1307N
1588.353	0.638	1453723	ORIENT_END	n/a	n/a	-999	-999	n/a	n/a	n/a	n/a	12	[0, 0, 0]	-999	PAL1	2	R1307N
1588.991	4.0	1454361	PROBE_START	n/a	wordpools/wordpool_EN.txt	6	2	CLOUD	n/a	TRAIN	CLOUD	12	[0, 0, 0]	-999	PAL1	2	R1307N
1588.991	0.043	1454361	REC_START	n/a	n/a	6	2	CLOUD	n/a	TRAIN	CLOUD	12	[0, 0, 0]	-999	PAL1	2	R1307N
1589.034	3.986	1454404	REC_EVENT	6.019	n/a	3	1	BREAD	<>	BENCH	BREAD	12	[0, 0, 0]	-999	PAL1	2	R1307N
1593.02	1.0	1458389	PROBE_END	n/a	n/a	6	2	CLOUD	n/a	TRAIN	CLOUD	12	[0, 0, 0]	-999	PAL1	2	R1307N
1594.02	0.0	1459389	REC_END	n/a	n/a	6	2	CLOUD	n/a	TRAIN	CLOUD	12	[0, 0, 0]	-999	PAL1	2	R1307N
1594.02	0.284	1459389	ORIENT_START	n/a	n/a	-999	-999	n/a	n/a	n/a	n/a	12	[0, 0, 0]	-999	PAL1	2	R1307N
1594.304	0.631	1459673	ORIENT_END	n/a	n/a	-999	-999	n/a	n/a	n/a	n/a	12	[0, 0, 0]	-999	PAL1	2	R1307N
1594.935	0.042	1460304	REC_EVENT	5.944	n/a	6	2	CLOUD	<>	TRAIN	CLOUD	12	[0, 0, 0]	-999	PAL1	2	R1307N
1594.977	0.0	1460346	REC_START	n/a	n/a	1	3	PIE	n/a	PIE	CRANE	12	[0, 0, 0]	-999	PAL1	2	R1307N
1594.977	4.0	1460346	PROBE_START	n/a	wordpools/wordpool_EN.txt	1	3	PIE	n/a	PIE	CRANE	12	[0, 0, 0]	-999	PAL1	2	R1307N
1599.004	1.0	1464373	PROBE_END	n/a	n/a	1	3	PIE	n/a	PIE	CRANE	12	[0, 0, 0]	-999	PAL1	2	R1307N
1600.004	0.0	1465373	ORIENT_START	n/a	n/a	-999	-999	n/a	n/a	n/a	n/a	12	[0, 0, 0]	-999	PAL1	2	R1307N
1600.004	0.284	1465373	REC_END	n/a	n/a	1	3	PIE	n/a	PIE	CRANE	12	[0, 0, 0]	-999	PAL1	2	R1307N
1600.288	0.662	1465657	ORIENT_END	n/a	n/a	-999	-999	n/a	n/a	n/a	n/a	12	[0, 0, 0]	-999	PAL1	2	R1307N
1600.95	0.025	1466319	REC_EVENT	5.973	n/a	1	3	PIE	<>	PIE	CRANE	12	[0, 0, 0]	-999	PAL1	2	R1307N
1600.975	0.0	1466344	REC_START	n/a	n/a	2	4	ARK	n/a	ARK	BRICK	12	[0, 0, 0]	-999	PAL1	2	R1307N
1600.975	4.0	1466344	PROBE_START	n/a	wordpools/wordpool_EN.txt	2	4	ARK	n/a	ARK	BRICK	12	[0, 0, 0]	-999	PAL1	2	R1307N
1605.006	1.0	1470375	PROBE_END	n/a	n/a	2	4	ARK	n/a	ARK	BRICK	12	[0, 0, 0]	-999	PAL1	2	R1307N
1606.006	0.0	1471375	REC_END	n/a	n/a	2	4	ARK	n/a	ARK	BRICK	12	[0, 0, 0]	-999	PAL1	2	R1307N
1606.006	0.283	1471375	ORIENT_START	n/a	n/a	-999	-999	n/a	n/a	n/a	n/a	12	[0, 0, 0]	-999	PAL1	2	R1307N
1606.289	0.682	1471658	ORIENT_END	n/a	n/a	-999	-999	n/a	n/a	n/a	n/a	12	[0, 0, 0]	-999	PAL1	2	R1307N
1606.971	0.065	1472340	REC_EVENT	5.996	n/a	2	4	ARK	<>	ARK	BRICK	12	[0, 0, 0]	-999	PAL1	2	R1307N
1607.036	4.0	1472405	PROBE_START	n/a	wordpools/wordpool_EN.txt	5	5	BRIDGE	n/a	ROOF	BRIDGE	12	[0, 0, 0]	-999	PAL1	2	R1307N
1607.036	4.037	1472405	REC_START	n/a	n/a	5	5	BRIDGE	n/a	ROOF	BRIDGE	12	[0, 0, 0]	-999	PAL1	2	R1307N
1611.073	1.0	1476442	PROBE_END	n/a	n/a	5	5	BRIDGE	n/a	ROOF	BRIDGE	12	[0, 0, 0]	-999	PAL1	2	R1307N
1612.073	0.0	1477442	REC_END	n/a	n/a	5	5	BRIDGE	n/a	ROOF	BRIDGE	12	[0, 0, 0]	-999	PAL1	2	R1307N
1612.073	0.284	1477442	ORIENT_START	n/a	n/a	-999	-999	n/a	n/a	n/a	n/a	12	[0, 0, 0]	-999	PAL1	2	R1307N
1612.357	0.558	1477726	ORIENT_END	n/a	n/a	-999	-999	n/a	n/a	n/a	n/a	12	[0, 0, 0]	-999	PAL1	2	R1307N
1612.915	0.0	1478284	REC_START	n/a	n/a	4	6	SOUP	n/a	SOUP	RIB	12	[0, 0, 0]	-999	PAL1	2	R1307N
1612.915	4.0	1478284	PROBE_START	n/a	wordpools/wordpool_EN.txt	4	6	SOUP	n/a	SOUP	RIB	12	[0, 0, 0]	-999	PAL1	2	R1307N
1613.096	3.845	1478465	REC_EVENT	6.06	n/a	5	5	BRIDGE	<>	ROOF	BRIDGE	12	[0, 0, 0]	-999	PAL1	2	R1307N
1616.941	1.0	1482310	PROBE_END	n/a	n/a	4	6	SOUP	n/a	SOUP	RIB	12	[0, 0, 0]	-999	PAL1	2	R1307N
1617.941	0.0	1483310	REC_END	n/a	n/a	4	6	SOUP	n/a	SOUP	RIB	12	[0, 0, 0]	-999	PAL1	2	R1307N
1617.941	0.0	1483310	RETRIEVAL_END	n/a	n/a	-999	-999	n/a	n/a	n/a	n/a	12	[0, 0, 0]	-999	PAL1	2	R1307N
1617.941	0.0	1483310	TRIAL_END	n/a	n/a	-999	-999	n/a	n/a	n/a	n/a	12	[0, 0, 0]	-999	PAL1	2	R1307N
1617.941	0.0	1483310	TRIAL_START	n/a	n/a	-999	-999	n/a	n/a	n/a	n/a	12	[0, 0, 0]	-999	PAL1	2	R1307N
1617.941	0.0	1483310	TRIAL	n/a	n/a	-999	-999	n/a	n/a	n/a	n/a	13	[0, 0, 0]	-999	PAL1	2	R1307N
1617.941	0.831	1483310	WAITING_START	n/a	n/a	-999	-999	n/a	n/a	n/a	n/a	13	[0, 0, 0]	-999	PAL1	2	R1307N
1618.772	3.703	1484141	REC_EVENT	5.857	n/a	4	6	SOUP	<>	SOUP	RIB	12	[0, 0, 0]	-999	PAL1	2	R1307N
1622.475	0.0	1487843	WAITING_END	n/a	n/a	-999	-999	n/a	n/a	n/a	n/a	13	[0, 0, 0]	-999	PAL1	2	R1307N
1622.475	10.0	1487843	COUNTDOWN_START	n/a	n/a	-999	-999	n/a	n/a	n/a	n/a	13	[0, 0, 0]	-999	PAL1	2	R1307N
1622.475	0.0	1487843	COUNTDOWN_END	n/a	n/a	-999	-999	n/a	n/a	n/a	n/a	13	[0, 0, 0]	-999	PAL1	2	R1307N
1622.475	11.67	1487843	ORIENT_START	n/a	n/a	-999	-999	n/a	n/a	n/a	n/a	13	[0, 0, 0]	-999	PAL1	2	R1307N
1634.145	0.0	1499513	ENCODING_START	n/a	n/a	-999	-999	n/a	n/a	n/a	n/a	13	[0, 0, 0]	-999	PAL1	2	R1307N
1634.145	0.628	1499513	ORIENT_END	n/a	n/a	-999	-999	n/a	n/a	n/a	n/a	13	[0, 0, 0]	-999	PAL1	2	R1307N
1634.773	4.0	1500141	STUDY_PAIR	n/a	wordpools/wordpool_EN.txt	1	-999	n/a	n/a	GOAT	STRAW	13	[0, 0, 0]	-999	PAL1	2	R1307N
1638.811	0.735	1504179	STUDY_PAIR_OFF	n/a	n/a	1	-999	n/a	n/a	GOAT	STRAW	13	[0, 0, 0]	-999	PAL1	2	R1307N
1639.546	4.0	1504914	STUDY_PAIR	n/a	wordpools/wordpool_EN.txt	2	-999	n/a	n/a	MOLE	BEE	13	[0, 0, 0]	-999	PAL1	2	R1307N
1643.58	0.58	1508948	STUDY_PAIR_OFF	n/a	n/a	2	-999	n/a	n/a	MOLE	BEE	13	[0, 0, 0]	-999	PAL1	2	R1307N
1644.16	4.0	1509528	STUDY_PAIR	n/a	wordpools/wordpool_EN.txt	3	-999	n/a	n/a	JUICE	KEY	13	[0, 0, 0]	-999	PAL1	2	R1307N
1648.196	0.518	1513564	STUDY_PAIR_OFF	n/a	n/a	3	-999	n/a	n/a	JUICE	KEY	13	[0, 0, 0]	-999	PAL1	2	R1307N
1648.714	4.0	1514081	STUDY_PAIR	n/a	wordpools/wordpool_EN.txt	4	-999	n/a	n/a	GLASS	PET	13	[0, 0, 0]	-999	PAL1	2	R1307N
1652.747	0.516	1518114	STUDY_PAIR_OFF	n/a	n/a	4	-999	n/a	n/a	GLASS	PET	13	[0, 0, 0]	-999	PAL1	2	R1307N
1653.263	4.0	1518630	STUDY_PAIR	n/a	wordpools/wordpool_EN.txt	5	-999	n/a	n/a	OAR	JAIL	13	[0, 0, 0]	-999	PAL1	2	R1307N
1657.297	0.629	1522664	STUDY_PAIR_OFF	n/a	n/a	5	-999	n/a	n/a	OAR	JAIL	13	[0, 0, 0]	-999	PAL1	2	R1307N
1657.926	4.0	1523293	STUDY_PAIR	n/a	wordpools/wordpool_EN.txt	6	-999	n/a	n/a	OAK	SHARK	13	[0, 0, 0]	-999	PAL1	2	R1307N
1661.965	0.0	1527332	ENCODING_END	n/a	n/a	-999	-999	n/a	n/a	n/a	n/a	13	[0, 0, 0]	-999	PAL1	2	R1307N
1661.965	0.0	1527332	MATH_START	n/a	n/a	-999	-999	n/a	n/a	n/a	n/a	13	[0, 0, 0]	-999	PAL1	2	R1307N
1661.965	0.001	1527332	STUDY_PAIR_OFF	n/a	n/a	6	-999	n/a	n/a	OAK	SHARK	13	[0, 0, 0]	-999	PAL1	2	R1307N
1661.966	0.016	1527333	START	n/a	n/a	-999	-999	n/a	n/a	n/a	n/a	13	[-999, -999, -999]	-999	PAL1	2	R1307N
1661.982	6.501	1527349	PROB	6.469	n/a	-999	-999	n/a	n/a	n/a	n/a	13	[7, 3, 8]	18	PAL1	2	R1307N
1668.483	3.118	1533850	PROB	3.08	n/a	-999	-999	n/a	n/a	n/a	n/a	13	[7, 9, 1]	17	PAL1	2	R1307N
1671.601	9.068	1536968	PROB	9.034	n/a	-999	-999	n/a	n/a	n/a	n/a	13	[2, 9, 6]	17	PAL1	2	R1307N
1680.669	9.998	1546035	PROB	9.998	n/a	-999	-999	n/a	n/a	n/a	n/a	13	[8, 7, 7]	22	PAL1	2	R1307N
