onset	duration	sample	trial_type	response_time	serialpos	probepos	probe_word	resp_word	study_1	study_2	list	test	answer	experiment	session	subject
0.0	0.0	376434	INSTRUCT_VIDEO_ON	n/a	-999	-999	n/a	n/a	n/a	n/a	-999	[0, 0, 0]	-999	PAL1	2	R1175N
0.0	5.415	376434	INSTRUCT_VIDEO_OFF	n/a	-999	-999	n/a	n/a	n/a	n/a	-999	[0, 0, 0]	-999	PAL1	2	R1175N
5.415	0.0	381849	SESS_START	n/a	-999	-999	n/a	n/a	n/a	n/a	-999	[0, 0, 0]	-999	PAL1	2	R1175N
5.415	183.18	381849	MIC_TEST	n/a	-999	-999	n/a	n/a	n/a	n/a	-999	[0, 0, 0]	-999	PAL1	2	R1175N
188.595	24.834	565022	PRACTICE_TRIAL	n/a	-999	-999	n/a	n/a	n/a	n/a	-1	[0, 0, 0]	-999	PAL1	2	R1175N
213.429	0.006	589855	ENCODING_START	n/a	-999	-999	n/a	n/a	n/a	n/a	-1	[0, 0, 0]	-999	PAL1	2	R1175N
213.435	0.268	589861	PRACTICE_ORIENT	n/a	1	5	TONGUE	n/a	TONGUE	IRON	-1	[0, 0, 0]	-999	PAL1	2	R1175N
213.703	0.732	590129	PRACTICE_ORIENT_OFF	n/a	1	5	TONGUE	n/a	TONGUE	IRON	-1	[0, 0, 0]	-999	PAL1	2	R1175N
214.435	4.017	590860	PRACTICE_PAIR	n/a	1	5	TONGUE	n/a	TONGUE	IRON	-1	[0, 0, 0]	-999	PAL1	2	R1175N
218.452	1.017	594877	PRACTICE_PAIR_OFF	n/a	1	5	TONGUE	n/a	TONGUE	IRON	-1	[0, 0, 0]	-999	PAL1	2	R1175N
219.469	0.268	595894	PRACTICE_ORIENT	n/a	2	6	CHEST	n/a	CAMEL	CHEST	-1	[0, 0, 0]	-999	PAL1	2	R1175N
219.737	0.516	596162	PRACTICE_ORIENT_OFF	n/a	2	6	CHEST	n/a	CAMEL	CHEST	-1	[0, 0, 0]	-999	PAL1	2	R1175N
220.253	4.017	596678	PRACTICE_PAIR	n/a	2	6	CHEST	n/a	CAMEL	CHEST	-1	[0, 0, 0]	-999	PAL1	2	R1175N
224.27	1.017	600695	PRACTICE_PAIR_OFF	n/a	2	6	CHEST	n/a	CAMEL	CHEST	-1	[0, 0, 0]	-999	PAL1	2	R1175N
225.287	0.268	601712	PRACTICE_ORIENT	n/a	3	1	ATTIC	n/a	BEAM	ATTIC	-1	[0, 0, 0]	-999	PAL1	2	R1175N
225.555	0.732	601980	PRACTICE_ORIENT_OFF	n/a	3	1	ATTIC	n/a	BEAM	ATTIC	-1	[0, 0, 0]	-999	PAL1	2	R1175N
226.287	4.017	602712	PRACTICE_PAIR	n/a	3	1	ATTIC	n/a	BEAM	ATTIC	-1	[0, 0, 0]	-999	PAL1	2	R1175N
230.304	1.017	606729	PRACTICE_PAIR_OFF	n/a	3	1	ATTIC	n/a	BEAM	ATTIC	-1	[0, 0, 0]	-999	PAL1	2	R1175N
231.321	0.251	607746	PRACTICE_ORIENT	n/a	4	4	RING	n/a	RING	COTTON	-1	[0, 0, 0]	-999	PAL1	2	R1175N
231.572	0.649	607997	PRACTICE_ORIENT_OFF	n/a	4	4	RING	n/a	RING	COTTON	-1	[0, 0, 0]	-999	PAL1	2	R1175N
232.221	4.018	608646	PRACTICE_PAIR	n/a	4	4	RING	n/a	RING	COTTON	-1	[0, 0, 0]	-999	PAL1	2	R1175N
236.239	1.017	612664	PRACTICE_PAIR_OFF	n/a	4	4	RING	n/a	RING	COTTON	-1	[0, 0, 0]	-999	PAL1	2	R1175N
237.256	0.266	613681	PRACTICE_ORIENT	n/a	5	3	WAGON	n/a	WAGON	RHINO	-1	[0, 0, 0]	-999	PAL1	2	R1175N
237.522	0.65	613947	PRACTICE_ORIENT_OFF	n/a	5	3	WAGON	n/a	WAGON	RHINO	-1	[0, 0, 0]	-999	PAL1	2	R1175N
238.172	4.018	614597	PRACTICE_PAIR	n/a	5	3	WAGON	n/a	WAGON	RHINO	-1	[0, 0, 0]	-999	PAL1	2	R1175N
242.19	1.017	618614	PRACTICE_PAIR_OFF	n/a	5	3	WAGON	n/a	WAGON	RHINO	-1	[0, 0, 0]	-999	PAL1	2	R1175N
243.207	0.266	619631	PRACTICE_ORIENT	n/a	6	2	WATCH	n/a	FLOOD	WATCH	-1	[0, 0, 0]	-999	PAL1	2	R1175N
243.473	0.551	619897	PRACTICE_ORIENT_OFF	n/a	6	2	WATCH	n/a	FLOOD	WATCH	-1	[0, 0, 0]	-999	PAL1	2	R1175N
244.024	4.018	620448	PRACTICE_PAIR	n/a	6	2	WATCH	n/a	FLOOD	WATCH	-1	[0, 0, 0]	-999	PAL1	2	R1175N
248.042	1.006	624466	PRACTICE_PAIR_OFF	n/a	6	2	WATCH	n/a	FLOOD	WATCH	-1	[0, 0, 0]	-999	PAL1	2	R1175N
249.048	0.0	625472	MATH_START	n/a	-999	-999	n/a	n/a	n/a	n/a	-1	[0, 0, 0]	-999	PAL1	2	R1175N
249.048	0.001	625472	ENCODING_END	n/a	-999	-999	n/a	n/a	n/a	n/a	-1	[0, 0, 0]	-999	PAL1	2	R1175N
249.049	0.01	625473	START	n/a	-999	-999	n/a	n/a	n/a	n/a	-1	[-999, -999, -999]	-999	PAL1	2	R1175N
249.059	5.8	625483	PROB	5765	-999	-999	n/a	n/a	n/a	n/a	-1	[3, 8, 1]	17	PAL1	2	R1175N
254.859	6.268	631283	PROB	6237	-999	-999	n/a	n/a	n/a	n/a	-1	[8, 2, 6]	16	PAL1	2	R1175N
261.127	4.333	637551	PROB	4312	-999	-999	n/a	n/a	n/a	n/a	-1	[8, 2, 5]	15	PAL1	2	R1175N
265.46	4.58	641883	PROB	4580	-999	-999	n/a	n/a	n/a	n/a	-1	[1, 4, 7]	12	PAL1	2	R1175N
270.04	0.005	646463	STOP	n/a	-999	-999	n/a	n/a	n/a	n/a	-1	[-999, -999, -999]	-999	PAL1	2	R1175N
270.045	0.0	646468	MATH_END	n/a	-999	-999	n/a	n/a	n/a	n/a	-1	[0, 0, 0]	-999	PAL1	2	R1175N
270.045	0.017	646468	RECALL_START	n/a	-999	-999	n/a	n/a	n/a	n/a	-1	[0, 0, 0]	-999	PAL1	2	R1175N
270.062	0.266	646485	PRACTICE_RETRIEVAL_ORIENT	n/a	3	1	ATTIC	n/a	BEAM	ATTIC	-1	[0, 0, 0]	-999	PAL1	2	R1175N
270.328	0.568	646751	PRACTICE_RETRIEVAL_ORIENT_OFF	n/a	3	1	ATTIC	n/a	BEAM	ATTIC	-1	[0, 0, 0]	-999	PAL1	2	R1175N
270.896	0.0	647319	PRACTICE_PROBE	n/a	3	1	ATTIC	n/a	BEAM	ATTIC	-1	[0, 0, 0]	-999	PAL1	2	R1175N
270.896	4.017	647319	REC_START	n/a	3	-999	n/a	n/a	n/a	n/a	-1	[0, 0, 0]	-999	PAL1	2	R1175N
274.913	1.01	651336	PROBE_OFF	n/a	3	-999	n/a	n/a	n/a	n/a	-1	[0, 0, 0]	-999	PAL1	2	R1175N
275.923	0.0	652346	REC_EVENT	5027	3	1	ATTIC	<>	BEAM	ATTIC	-1	[0, 0, 0]	-999	PAL1	2	R1175N
275.923	0.006	652346	REC_END	n/a	3	-999	n/a	n/a	n/a	n/a	-1	[0, 0, 0]	-999	PAL1	2	R1175N
275.929	0.266	652352	PRACTICE_RETRIEVAL_ORIENT	n/a	6	2	WATCH	n/a	FLOOD	WATCH	-1	[0, 0, 0]	-999	PAL1	2	R1175N
276.195	0.702	652618	PRACTICE_RETRIEVAL_ORIENT_OFF	n/a	6	2	WATCH	n/a	FLOOD	WATCH	-1	[0, 0, 0]	-999	PAL1	2	R1175N
276.897	0.0	653320	PRACTICE_PROBE	n/a	6	2	WATCH	n/a	FLOOD	WATCH	-1	[0, 0, 0]	-999	PAL1	2	R1175N
276.897	1.492	653320	REC_START	n/a	6	-999	n/a	n/a	n/a	n/a	-1	[0, 0, 0]	-999	PAL1	2	R1175N
278.389	2.525	654812	REC_EVENT	1492	6	2	WATCH	<>	FLOOD	WATCH	-1	[0, 0, 0]	-999	PAL1	2	R1175N
280.914	1.0	657337	PROBE_OFF	n/a	6	-999	n/a	n/a	n/a	n/a	-1	[0, 0, 0]	-999	PAL1	2	R1175N
281.914	0.017	658337	REC_END	n/a	6	-999	n/a	n/a	n/a	n/a	-1	[0, 0, 0]	-999	PAL1	2	R1175N
281.931	0.265	658354	PRACTICE_RETRIEVAL_ORIENT	n/a	5	3	WAGON	n/a	WAGON	RHINO	-1	[0, 0, 0]	-999	PAL1	2	R1175N
282.196	0.718	658619	PRACTICE_RETRIEVAL_ORIENT_OFF	n/a	5	3	WAGON	n/a	WAGON	RHINO	-1	[0, 0, 0]	-999	PAL1	2	R1175N
282.914	0.001	659337	PRACTICE_PROBE	n/a	5	3	WAGON	n/a	WAGON	RHINO	-1	[0, 0, 0]	-999	PAL1	2	R1175N
282.915	1.275	659338	REC_START	n/a	5	-999	n/a	n/a	n/a	n/a	-1	[0, 0, 0]	-999	PAL1	2	R1175N
284.19	0.431	660613	REC_EVENT	1275	5	3	WAGON	<>	WAGON	RHINO	-1	[0, 0, 0]	-999	PAL1	2	R1175N
284.621	2.311	661044	REC_EVENT	1706	5	3	WAGON	<>	WAGON	RHINO	-1	[0, 0, 0]	-999	PAL1	2	R1175N
286.932	1.0	663355	PROBE_OFF	n/a	5	-999	n/a	n/a	n/a	n/a	-1	[0, 0, 0]	-999	PAL1	2	R1175N
287.932	0.016	664355	REC_END	n/a	5	-999	n/a	n/a	n/a	n/a	-1	[0, 0, 0]	-999	PAL1	2	R1175N
287.948	0.266	664371	PRACTICE_RETRIEVAL_ORIENT	n/a	4	4	RING	n/a	RING	COTTON	-1	[0, 0, 0]	-999	PAL1	2	R1175N
288.214	0.634	664637	PRACTICE_RETRIEVAL_ORIENT_OFF	n/a	4	4	RING	n/a	RING	COTTON	-1	[0, 0, 0]	-999	PAL1	2	R1175N
288.848	0.001	665270	PRACTICE_PROBE	n/a	4	4	RING	n/a	RING	COTTON	-1	[0, 0, 0]	-999	PAL1	2	R1175N
288.849	4.0	665271	REC_START	n/a	4	-999	n/a	n/a	n/a	n/a	-1	[0, 0, 0]	-999	PAL1	2	R1175N
292.849	1.009	669271	PROBE_OFF	n/a	4	-999	n/a	n/a	n/a	n/a	-1	[0, 0, 0]	-999	PAL1	2	R1175N
293.858	0.0	670280	REC_END	n/a	4	-999	n/a	n/a	n/a	n/a	-1	[0, 0, 0]	-999	PAL1	2	R1175N
293.858	0.008	670280	REC_EVENT	5009	4	4	RING	<>	RING	COTTON	-1	[0, 0, 0]	-999	PAL1	2	R1175N
293.866	0.267	670288	PRACTICE_RETRIEVAL_ORIENT	n/a	1	5	TONGUE	n/a	TONGUE	IRON	-1	[0, 0, 0]	-999	PAL1	2	R1175N
294.133	0.75	670555	PRACTICE_RETRIEVAL_ORIENT_OFF	n/a	1	5	TONGUE	n/a	TONGUE	IRON	-1	[0, 0, 0]	-999	PAL1	2	R1175N
294.883	0.0	671305	PRACTICE_PROBE	n/a	1	5	TONGUE	n/a	TONGUE	IRON	-1	[0, 0, 0]	-999	PAL1	2	R1175N
294.883	1.702	671305	REC_START	n/a	1	-999	n/a	n/a	n/a	n/a	-1	[0, 0, 0]	-999	PAL1	2	R1175N
296.585	2.315	673007	REC_EVENT	1702	1	5	TONGUE	<>	TONGUE	IRON	-1	[0, 0, 0]	-999	PAL1	2	R1175N
298.9	1.01	675322	PROBE_OFF	n/a	1	-999	n/a	n/a	n/a	n/a	-1	[0, 0, 0]	-999	PAL1	2	R1175N
299.91	0.007	676332	REC_END	n/a	1	-999	n/a	n/a	n/a	n/a	-1	[0, 0, 0]	-999	PAL1	2	R1175N
299.917	0.266	676339	PRACTICE_RETRIEVAL_ORIENT	n/a	2	6	CHEST	n/a	CAMEL	CHEST	-1	[0, 0, 0]	-999	PAL1	2	R1175N
300.183	0.651	676605	PRACTICE_RETRIEVAL_ORIENT_OFF	n/a	6	6	CHEST	n/a	CAMEL	CHEST	-1	[0, 0, 0]	-999	PAL1	2	R1175N
300.834	0.0	677256	PRACTICE_PROBE	n/a	2	6	CHEST	n/a	CAMEL	CHEST	-1	[0, 0, 0]	-999	PAL1	2	R1175N
300.834	4.017	677256	REC_START	n/a	2	-999	n/a	n/a	n/a	n/a	-1	[0, 0, 0]	-999	PAL1	2	R1175N
304.851	0.998	681273	PROBE_OFF	n/a	2	-999	n/a	n/a	n/a	n/a	-1	[0, 0, 0]	-999	PAL1	2	R1175N
305.849	0.002	682271	REC_EVENT	5015	2	6	CHEST	<>	CAMEL	CHEST	-1	[0, 0, 0]	-999	PAL1	2	R1175N
305.851	0.003	682273	REC_END	n/a	2	-999	n/a	n/a	n/a	n/a	-1	[0, 0, 0]	-999	PAL1	2	R1175N
305.854	45.504	682276	RECALL_END	n/a	-999	-999	n/a	n/a	n/a	n/a	-1	[0, 0, 0]	-999	PAL1	2	R1175N
351.358	10.929	727778	TRIAL	n/a	-999	-999	n/a	n/a	n/a	n/a	1	[0, 0, 0]	-999	PAL1	2	R1175N
362.287	0.006	738707	ENCODING_START	n/a	-999	-999	n/a	n/a	n/a	n/a	1	[0, 0, 0]	-999	PAL1	2	R1175N
362.293	0.268	738713	STUDY_ORIENT	n/a	1	5	TIE	SNAKE	SNAKE	TIE	1	[0, 0, 0]	-999	PAL1	2	R1175N
362.561	0.699	738981	STUDY_ORIENT_OFF	n/a	1	5	TIE	SNAKE	SNAKE	TIE	1	[0, 0, 0]	-999	PAL1	2	R1175N
363.26	4.017	739679	STUDY_PAIR	n/a	1	5	TIE	SNAKE	SNAKE	TIE	1	[0, 0, 0]	-999	PAL1	2	R1175N
367.277	1.017	743696	PAIR_OFF	n/a	1	5	TIE	SNAKE	SNAKE	TIE	1	[0, 0, 0]	-999	PAL1	2	R1175N
368.294	0.268	744713	STUDY_ORIENT	n/a	2	4	BOOK	n/a	DITCH	BOOK	1	[0, 0, 0]	-999	PAL1	2	R1175N
368.562	0.632	744981	STUDY_ORIENT_OFF	n/a	2	4	BOOK	n/a	DITCH	BOOK	1	[0, 0, 0]	-999	PAL1	2	R1175N
369.194	4.018	745613	STUDY_PAIR	n/a	2	4	BOOK	n/a	DITCH	BOOK	1	[0, 0, 0]	-999	PAL1	2	R1175N
373.212	1.016	749631	PAIR_OFF	n/a	2	4	BOOK	n/a	DITCH	BOOK	1	[0, 0, 0]	-999	PAL1	2	R1175N
374.228	0.267	750647	STUDY_ORIENT	n/a	3	3	SLIME	n/a	SLIME	VASE	1	[0, 0, 0]	-999	PAL1	2	R1175N
374.495	0.75	750914	STUDY_ORIENT_OFF	n/a	3	3	SLIME	n/a	SLIME	VASE	1	[0, 0, 0]	-999	PAL1	2	R1175N
375.245	4.018	751664	STUDY_PAIR	n/a	3	3	SLIME	n/a	SLIME	VASE	1	[0, 0, 0]	-999	PAL1	2	R1175N
379.263	1.017	755682	PAIR_OFF	n/a	3	3	SLIME	n/a	SLIME	VASE	1	[0, 0, 0]	-999	PAL1	2	R1175N
380.28	0.266	756699	STUDY_ORIENT	n/a	4	2	SOUP	SOUP	SOUP	BENCH	1	[0, 0, 0]	-999	PAL1	2	R1175N
380.546	0.65	756965	STUDY_ORIENT_OFF	n/a	4	2	SOUP	SOUP	SOUP	BENCH	1	[0, 0, 0]	-999	PAL1	2	R1175N
381.196	4.001	757615	STUDY_PAIR	n/a	4	2	SOUP	SOUP	SOUP	BENCH	1	[0, 0, 0]	-999	PAL1	2	R1175N
385.197	1.017	761616	PAIR_OFF	n/a	4	2	SOUP	SOUP	SOUP	BENCH	1	[0, 0, 0]	-999	PAL1	2	R1175N
386.214	0.267	762633	STUDY_ORIENT	n/a	5	1	VEST	BENCH	VEST	BADGE	1	[0, 0, 0]	-999	PAL1	2	R1175N
386.481	0.7	762900	STUDY_ORIENT_OFF	n/a	5	1	VEST	BENCH	VEST	BADGE	1	[0, 0, 0]	-999	PAL1	2	R1175N
387.181	4.017	763600	STUDY_PAIR	n/a	5	1	VEST	BENCH	VEST	BADGE	1	[0, 0, 0]	-999	PAL1	2	R1175N
391.198	1.017	767616	PAIR_OFF	n/a	5	1	VEST	BENCH	VEST	BADGE	1	[0, 0, 0]	-999	PAL1	2	R1175N
392.215	0.267	768633	STUDY_ORIENT	n/a	6	6	SMOKE	n/a	PEACH	SMOKE	1	[0, 0, 0]	-999	PAL1	2	R1175N
392.482	0.601	768900	STUDY_ORIENT_OFF	n/a	6	6	SMOKE	n/a	PEACH	SMOKE	1	[0, 0, 0]	-999	PAL1	2	R1175N
393.083	4.017	769501	STUDY_PAIR	n/a	6	6	SMOKE	n/a	PEACH	SMOKE	1	[0, 0, 0]	-999	PAL1	2	R1175N
397.1	1.001	773518	PAIR_OFF	n/a	6	6	SMOKE	n/a	PEACH	SMOKE	1	[0, 0, 0]	-999	PAL1	2	R1175N
398.101	0.0	774519	ENCODING_END	n/a	-999	-999	n/a	n/a	n/a	n/a	1	[0, 0, 0]	-999	PAL1	2	R1175N
398.101	0.0	774519	MATH_START	n/a	-999	-999	n/a	n/a	n/a	n/a	1	[0, 0, 0]	-999	PAL1	2	R1175N
398.101	0.016	774519	START	n/a	-999	-999	n/a	n/a	n/a	n/a	1	[-999, -999, -999]	-999	PAL1	2	R1175N
398.117	6.668	774535	PROB	6634	-999	-999	n/a	n/a	n/a	n/a	1	[4, 4, 6]	14	PAL1	2	R1175N
404.785	10.851	781203	PROB	10822	-999	-999	n/a	n/a	n/a	n/a	1	[9, 7, 9]	25	PAL1	2	R1175N
415.636	7.57	792053	PROB	7570	-999	-999	n/a	n/a	n/a	n/a	1	[5, 5, 6]	16	PAL1	2	R1175N
423.206	0.014	799623	STOP	n/a	-999	-999	n/a	n/a	n/a	n/a	1	[-999, -999, -999]	-999	PAL1	2	R1175N
423.22	0.0	799637	MATH_END	n/a	-999	-999	n/a	n/a	n/a	n/a	1	[0, 0, 0]	-999	PAL1	2	R1175N
423.22	0.017	799637	RECALL_START	n/a	-999	-999	n/a	n/a	n/a	n/a	1	[0, 0, 0]	-999	PAL1	2	R1175N
423.237	0.266	799654	TEST_ORIENT	n/a	5	1	VEST	BENCH	VEST	BADGE	1	[0, 0, 0]	-999	PAL1	2	R1175N
423.503	0.601	799920	RETRIEVAL_ORIENT_OFF	n/a	-999	-999	n/a	n/a	n/a	n/a	1	[0, 0, 0]	-999	PAL1	2	R1175N
424.104	0.001	800521	TEST_PROBE	n/a	5	1	VEST	BENCH	VEST	BADGE	1	[0, 0, 0]	-999	PAL1	2	R1175N
424.105	2.832	800522	REC_START	n/a	5	-999	n/a	BENCH	n/a	n/a	1	[0, 0, 0]	-999	PAL1	2	R1175N
426.937	0.672	803354	REC_EVENT	2832	5	1	VEST	<>	VEST	BADGE	1	[0, 0, 0]	-999	PAL1	2	R1175N
427.609	0.513	804026	REC_EVENT	3504	5	1	VEST	BENCH	VEST	BADGE	1	[0, 0, 0]	-999	PAL1	2	R1175N
428.122	1.0	804539	PROBE_OFF	n/a	5	-999	n/a	n/a	n/a	n/a	1	[0, 0, 0]	-999	PAL1	2	R1175N
429.122	0.017	805539	REC_END	n/a	5	-999	n/a	n/a	n/a	n/a	1	[0, 0, 0]	-999	PAL1	2	R1175N
429.139	0.265	805556	TEST_ORIENT	n/a	4	2	SOUP	SOUP	SOUP	BENCH	1	[0, 0, 0]	-999	PAL1	2	R1175N
429.404	0.652	805821	RETRIEVAL_ORIENT_OFF	n/a	5	-999	n/a	n/a	n/a	n/a	1	[0, 0, 0]	-999	PAL1	2	R1175N
430.056	0.0	806473	TEST_PROBE	n/a	4	2	SOUP	SOUP	SOUP	BENCH	1	[0, 0, 0]	-999	PAL1	2	R1175N
430.056	1.191	806473	REC_START	n/a	4	-999	n/a	SOUP	n/a	n/a	1	[0, 0, 0]	-999	PAL1	2	R1175N
431.247	1.984	807664	REC_EVENT	1191	4	2	SOUP	SOUP	SOUP	BENCH	1	[0, 0, 0]	-999	PAL1	2	R1175N
433.231	0.842	809648	REC_EVENT	3175	4	2	SOUP	<>	SOUP	BENCH	1	[0, 0, 0]	-999	PAL1	2	R1175N
434.073	1.0	810490	PROBE_OFF	n/a	4	-999	n/a	n/a	n/a	n/a	1	[0, 0, 0]	-999	PAL1	2	R1175N
435.073	0.017	811490	REC_END	n/a	4	-999	n/a	n/a	n/a	n/a	1	[0, 0, 0]	-999	PAL1	2	R1175N
435.09	0.265	811507	TEST_ORIENT	n/a	3	3	SLIME	n/a	SLIME	VASE	1	[0, 0, 0]	-999	PAL1	2	R1175N
435.355	0.668	811772	RETRIEVAL_ORIENT_OFF	n/a	4	-999	n/a	n/a	n/a	n/a	1	[0, 0, 0]	-999	PAL1	2	R1175N
436.023	0.001	812440	TEST_PROBE	n/a	3	3	SLIME	n/a	SLIME	VASE	1	[0, 0, 0]	-999	PAL1	2	R1175N
436.024	0.824	812441	REC_START	n/a	3	-999	n/a	n/a	n/a	n/a	1	[0, 0, 0]	-999	PAL1	2	R1175N
436.848	2.606	813265	REC_EVENT	824	3	3	SLIME	<>	SLIME	VASE	1	[0, 0, 0]	-999	PAL1	2	R1175N
439.454	0.587	815870	REC_EVENT	3430	3	3	SLIME	<>	SLIME	VASE	1	[0, 0, 0]	-999	PAL1	2	R1175N
440.041	1.0	816457	PROBE_OFF	n/a	3	-999	n/a	n/a	n/a	n/a	1	[0, 0, 0]	-999	PAL1	2	R1175N
441.041	0.016	817457	REC_END	n/a	3	-999	n/a	n/a	n/a	n/a	1	[0, 0, 0]	-999	PAL1	2	R1175N
441.057	0.266	817473	TEST_ORIENT	n/a	2	4	BOOK	n/a	DITCH	BOOK	1	[0, 0, 0]	-999	PAL1	2	R1175N
441.323	0.634	817739	RETRIEVAL_ORIENT_OFF	n/a	3	-999	n/a	n/a	n/a	n/a	1	[0, 0, 0]	-999	PAL1	2	R1175N
441.957	0.001	818373	TEST_PROBE	n/a	2	4	BOOK	n/a	DITCH	BOOK	1	[0, 0, 0]	-999	PAL1	2	R1175N
441.958	4.017	818374	REC_START	n/a	2	-999	n/a	n/a	n/a	n/a	1	[0, 0, 0]	-999	PAL1	2	R1175N
445.975	0.998	822391	PROBE_OFF	n/a	2	-999	n/a	n/a	n/a	n/a	1	[0, 0, 0]	-999	PAL1	2	R1175N
446.973	0.002	823389	REC_EVENT	5015	2	4	BOOK	<>	DITCH	BOOK	1	[0, 0, 0]	-999	PAL1	2	R1175N
446.975	0.017	823391	REC_END	n/a	2	-999	n/a	n/a	n/a	n/a	1	[0, 0, 0]	-999	PAL1	2	R1175N
446.992	0.265	823408	TEST_ORIENT	n/a	1	5	TIE	SNAKE	SNAKE	TIE	1	[0, 0, 0]	-999	PAL1	2	R1175N
447.257	0.602	823673	RETRIEVAL_ORIENT_OFF	n/a	2	-999	n/a	n/a	n/a	n/a	1	[0, 0, 0]	-999	PAL1	2	R1175N
447.859	0.0	824275	REC_START	n/a	1	-999	n/a	SNAKE	n/a	n/a	1	[0, 0, 0]	-999	PAL1	2	R1175N
447.859	1.015	824275	TEST_PROBE	n/a	1	5	TIE	SNAKE	SNAKE	TIE	1	[0, 0, 0]	-999	PAL1	2	R1175N
448.874	0.304	825290	REC_EVENT	1015	1	5	TIE	TIE	SNAKE	TIE	1	[0, 0, 0]	-999	PAL1	2	R1175N
449.178	2.698	825594	REC_EVENT	1319	1	5	TIE	SNAKE	SNAKE	TIE	1	[0, 0, 0]	-999	PAL1	2	R1175N
451.876	1.0	828292	PROBE_OFF	n/a	1	-999	n/a	n/a	n/a	n/a	1	[0, 0, 0]	-999	PAL1	2	R1175N
452.876	0.017	829292	REC_END	n/a	1	-999	n/a	n/a	n/a	n/a	1	[0, 0, 0]	-999	PAL1	2	R1175N
452.893	0.265	829309	TEST_ORIENT	n/a	6	6	SMOKE	n/a	PEACH	SMOKE	1	[0, 0, 0]	-999	PAL1	2	R1175N
453.158	0.552	829574	RETRIEVAL_ORIENT_OFF	n/a	1	-999	n/a	n/a	n/a	n/a	1	[0, 0, 0]	-999	PAL1	2	R1175N
453.71	0.0	830126	TEST_PROBE	n/a	6	6	SMOKE	n/a	PEACH	SMOKE	1	[0, 0, 0]	-999	PAL1	2	R1175N
453.71	0.868	830126	REC_START	n/a	6	-999	n/a	n/a	n/a	n/a	1	[0, 0, 0]	-999	PAL1	2	R1175N
454.578	3.149	830994	REC_EVENT	868	6	6	SMOKE	<>	PEACH	SMOKE	1	[0, 0, 0]	-999	PAL1	2	R1175N
457.727	1.0	834143	PROBE_OFF	n/a	6	-999	n/a	n/a	n/a	n/a	1	[0, 0, 0]	-999	PAL1	2	R1175N
458.727	0.009	835143	REC_END	n/a	6	-999	n/a	n/a	n/a	n/a	1	[0, 0, 0]	-999	PAL1	2	R1175N
458.736	7.558	835152	RECALL_END	n/a	-999	-999	n/a	n/a	n/a	n/a	1	[0, 0, 0]	-999	PAL1	2	R1175N
466.294	10.928	842709	TRIAL	n/a	-999	-999	n/a	n/a	n/a	n/a	2	[0, 0, 0]	-999	PAL1	2	R1175N
477.222	0.007	853637	ENCODING_START	n/a	-999	-999	n/a	n/a	n/a	n/a	2	[0, 0, 0]	-999	PAL1	2	R1175N
477.229	0.267	853644	STUDY_ORIENT	n/a	1	3	JUDGE	n/a	SPEAR	JUDGE	2	[0, 0, 0]	-999	PAL1	2	R1175N
477.496	0.733	853911	STUDY_ORIENT_OFF	n/a	1	3	JUDGE	n/a	SPEAR	JUDGE	2	[0, 0, 0]	-999	PAL1	2	R1175N
478.229	4.001	854644	STUDY_PAIR	n/a	1	3	JUDGE	n/a	SPEAR	JUDGE	2	[0, 0, 0]	-999	PAL1	2	R1175N
482.23	1.017	858645	PAIR_OFF	n/a	1	3	JUDGE	n/a	SPEAR	JUDGE	2	[0, 0, 0]	-999	PAL1	2	R1175N
483.247	0.266	859662	STUDY_ORIENT	n/a	2	6	GRASS	n/a	STEAM	GRASS	2	[0, 0, 0]	-999	PAL1	2	R1175N
483.513	0.751	859928	STUDY_ORIENT_OFF	n/a	2	6	GRASS	n/a	STEAM	GRASS	2	[0, 0, 0]	-999	PAL1	2	R1175N
484.264	4.017	860679	STUDY_PAIR	n/a	2	6	GRASS	n/a	STEAM	GRASS	2	[0, 0, 0]	-999	PAL1	2	R1175N
488.281	1.017	864695	PAIR_OFF	n/a	2	6	GRASS	n/a	STEAM	GRASS	2	[0, 0, 0]	-999	PAL1	2	R1175N
489.298	0.267	865712	STUDY_ORIENT	n/a	3	1	MOUTH	n/a	MOUTH	BOAT	2	[0, 0, 0]	-999	PAL1	2	R1175N
489.565	0.583	865979	STUDY_ORIENT_OFF	n/a	3	1	MOUTH	n/a	MOUTH	BOAT	2	[0, 0, 0]	-999	PAL1	2	R1175N
490.148	4.017	866562	STUDY_PAIR	n/a	3	1	MOUTH	n/a	MOUTH	BOAT	2	[0, 0, 0]	-999	PAL1	2	R1175N
494.165	1.017	870579	PAIR_OFF	n/a	3	1	MOUTH	n/a	MOUTH	BOAT	2	[0, 0, 0]	-999	PAL1	2	R1175N
495.182	0.267	871596	STUDY_ORIENT	n/a	4	4	CLOUD	n/a	BOWL	CLOUD	2	[0, 0, 0]	-999	PAL1	2	R1175N
495.449	0.7	871863	STUDY_ORIENT_OFF	n/a	4	4	CLOUD	n/a	BOWL	CLOUD	2	[0, 0, 0]	-999	PAL1	2	R1175N
496.149	4.017	872563	STUDY_PAIR	n/a	4	4	CLOUD	n/a	BOWL	CLOUD	2	[0, 0, 0]	-999	PAL1	2	R1175N
500.166	1.017	876580	PAIR_OFF	n/a	4	4	CLOUD	n/a	BOWL	CLOUD	2	[0, 0, 0]	-999	PAL1	2	R1175N
501.183	0.267	877597	STUDY_ORIENT	n/a	5	5	JAR	n/a	JAR	DUCK	2	[0, 0, 0]	-999	PAL1	2	R1175N
501.45	0.75	877864	STUDY_ORIENT_OFF	n/a	5	5	JAR	n/a	JAR	DUCK	2	[0, 0, 0]	-999	PAL1	2	R1175N
502.2	4.017	878614	STUDY_PAIR	n/a	5	5	JAR	n/a	JAR	DUCK	2	[0, 0, 0]	-999	PAL1	2	R1175N
506.217	1.017	882631	PAIR_OFF	n/a	5	5	JAR	n/a	JAR	DUCK	2	[0, 0, 0]	-999	PAL1	2	R1175N
507.234	0.267	883648	STUDY_ORIENT	n/a	6	2	WOOD	n/a	WOOD	MAIL	2	[0, 0, 0]	-999	PAL1	2	R1175N
507.501	0.7	883915	STUDY_ORIENT_OFF	n/a	6	2	WOOD	n/a	WOOD	MAIL	2	[0, 0, 0]	-999	PAL1	2	R1175N
508.201	4.017	884615	STUDY_PAIR	n/a	6	2	WOOD	n/a	WOOD	MAIL	2	[0, 0, 0]	-999	PAL1	2	R1175N
512.218	1.0	888631	PAIR_OFF	n/a	6	2	WOOD	n/a	WOOD	MAIL	2	[0, 0, 0]	-999	PAL1	2	R1175N
513.218	0.0	889631	ENCODING_END	n/a	-999	-999	n/a	n/a	n/a	n/a	2	[0, 0, 0]	-999	PAL1	2	R1175N
513.218	0.001	889631	MATH_START	n/a	-999	-999	n/a	n/a	n/a	n/a	2	[0, 0, 0]	-999	PAL1	2	R1175N
513.219	0.016	889632	START	n/a	-999	-999	n/a	n/a	n/a	n/a	2	[-999, -999, -999]	-999	PAL1	2	R1175N
513.235	7.769	889648	PROB	7733	-999	-999	n/a	n/a	n/a	n/a	2	[2, 7, 6]	15	PAL1	2	R1175N
521.004	13.572	897417	PROB	13572	-999	-999	n/a	n/a	n/a	n/a	2	[8, 8, 5]	21	PAL1	2	R1175N
534.576	0.013	910989	STOP	n/a	-999	-999	n/a	n/a	n/a	n/a	2	[-999, -999, -999]	-999	PAL1	2	R1175N
534.589	0.001	911002	MATH_END	n/a	-999	-999	n/a	n/a	n/a	n/a	2	[0, 0, 0]	-999	PAL1	2	R1175N
534.59	0.016	911003	RECALL_START	n/a	-999	-999	n/a	n/a	n/a	n/a	2	[0, 0, 0]	-999	PAL1	2	R1175N
534.606	0.267	911019	TEST_ORIENT	n/a	3	1	MOUTH	n/a	MOUTH	BOAT	2	[0, 0, 0]	-999	PAL1	2	R1175N
534.873	0.583	911286	RETRIEVAL_ORIENT_OFF	n/a	-999	-999	n/a	n/a	n/a	n/a	2	[0, 0, 0]	-999	PAL1	2	R1175N
535.456	0.0	911869	TEST_PROBE	n/a	3	1	MOUTH	n/a	MOUTH	BOAT	2	[0, 0, 0]	-999	PAL1	2	R1175N
535.456	4.017	911869	REC_START	n/a	3	-999	n/a	n/a	n/a	n/a	2	[0, 0, 0]	-999	PAL1	2	R1175N
539.473	0.998	915885	PROBE_OFF	n/a	3	-999	n/a	n/a	n/a	n/a	2	[0, 0, 0]	-999	PAL1	2	R1175N
540.471	0.002	916883	REC_EVENT	5015	3	1	MOUTH	<>	MOUTH	BOAT	2	[0, 0, 0]	-999	PAL1	2	R1175N
540.473	0.017	916885	REC_END	n/a	3	-999	n/a	n/a	n/a	n/a	2	[0, 0, 0]	-999	PAL1	2	R1175N
540.49	0.267	916902	TEST_ORIENT	n/a	6	2	WOOD	n/a	WOOD	MAIL	2	[0, 0, 0]	-999	PAL1	2	R1175N
540.757	0.65	917169	RETRIEVAL_ORIENT_OFF	n/a	3	-999	n/a	n/a	n/a	n/a	2	[0, 0, 0]	-999	PAL1	2	R1175N
541.407	0.0	917819	TEST_PROBE	n/a	6	2	WOOD	n/a	WOOD	MAIL	2	[0, 0, 0]	-999	PAL1	2	R1175N
541.407	1.997	917819	REC_START	n/a	6	-999	n/a	n/a	n/a	n/a	2	[0, 0, 0]	-999	PAL1	2	R1175N
543.404	2.02	919816	REC_EVENT	1997	6	2	WOOD	<>	WOOD	MAIL	2	[0, 0, 0]	-999	PAL1	2	R1175N
545.424	1.0	921836	PROBE_OFF	n/a	6	-999	n/a	n/a	n/a	n/a	2	[0, 0, 0]	-999	PAL1	2	R1175N
546.424	0.016	922836	REC_END	n/a	6	-999	n/a	n/a	n/a	n/a	2	[0, 0, 0]	-999	PAL1	2	R1175N
546.44	0.251	922852	TEST_ORIENT	n/a	1	3	JUDGE	n/a	SPEAR	JUDGE	2	[0, 0, 0]	-999	PAL1	2	R1175N
546.691	0.566	923103	RETRIEVAL_ORIENT_OFF	n/a	6	-999	n/a	n/a	n/a	n/a	2	[0, 0, 0]	-999	PAL1	2	R1175N
547.257	0.001	923669	TEST_PROBE	n/a	1	3	JUDGE	n/a	SPEAR	JUDGE	2	[0, 0, 0]	-999	PAL1	2	R1175N
547.258	4.017	923670	REC_START	n/a	1	-999	n/a	n/a	n/a	n/a	2	[0, 0, 0]	-999	PAL1	2	R1175N
551.275	1.0	927687	PROBE_OFF	n/a	1	-999	n/a	n/a	n/a	n/a	2	[0, 0, 0]	-999	PAL1	2	R1175N
552.275	0.004	928687	REC_END	n/a	1	-999	n/a	n/a	n/a	n/a	2	[0, 0, 0]	-999	PAL1	2	R1175N
552.279	0.013	928691	REC_EVENT	5021	1	3	JUDGE	<>	SPEAR	JUDGE	2	[0, 0, 0]	-999	PAL1	2	R1175N
552.292	0.267	928704	TEST_ORIENT	n/a	4	4	CLOUD	n/a	BOWL	CLOUD	2	[0, 0, 0]	-999	PAL1	2	R1175N
552.559	0.733	928971	RETRIEVAL_ORIENT_OFF	n/a	1	-999	n/a	n/a	n/a	n/a	2	[0, 0, 0]	-999	PAL1	2	R1175N
553.292	0.0	929704	TEST_PROBE	n/a	4	4	CLOUD	n/a	BOWL	CLOUD	2	[0, 0, 0]	-999	PAL1	2	R1175N
553.292	4.017	929704	REC_START	n/a	4	-999	n/a	n/a	n/a	n/a	2	[0, 0, 0]	-999	PAL1	2	R1175N
557.309	0.998	933721	PROBE_OFF	n/a	4	-999	n/a	n/a	n/a	n/a	2	[0, 0, 0]	-999	PAL1	2	R1175N
558.307	0.002	934719	REC_EVENT	5015	4	4	CLOUD	<>	BOWL	CLOUD	2	[0, 0, 0]	-999	PAL1	2	R1175N
558.309	0.017	934721	REC_END	n/a	4	-999	n/a	n/a	n/a	n/a	2	[0, 0, 0]	-999	PAL1	2	R1175N
558.326	0.268	934738	TEST_ORIENT	n/a	5	5	JAR	n/a	JAR	DUCK	2	[0, 0, 0]	-999	PAL1	2	R1175N
558.594	0.599	935006	RETRIEVAL_ORIENT_OFF	n/a	4	-999	n/a	n/a	n/a	n/a	2	[0, 0, 0]	-999	PAL1	2	R1175N
559.193	0.0	935605	TEST_PROBE	n/a	5	5	JAR	n/a	JAR	DUCK	2	[0, 0, 0]	-999	PAL1	2	R1175N
559.193	4.017	935605	REC_START	n/a	5	-999	n/a	n/a	n/a	n/a	2	[0, 0, 0]	-999	PAL1	2	R1175N
563.21	0.998	939621	PROBE_OFF	n/a	5	-999	n/a	n/a	n/a	n/a	2	[0, 0, 0]	-999	PAL1	2	R1175N
564.208	0.002	940619	REC_EVENT	5015	5	5	JAR	<>	JAR	DUCK	2	[0, 0, 0]	-999	PAL1	2	R1175N
564.21	0.017	940621	REC_END	n/a	5	-999	n/a	n/a	n/a	n/a	2	[0, 0, 0]	-999	PAL1	2	R1175N
564.227	0.267	940638	TEST_ORIENT	n/a	2	6	GRASS	n/a	STEAM	GRASS	2	[0, 0, 0]	-999	PAL1	2	R1175N
564.494	0.617	940905	RETRIEVAL_ORIENT_OFF	n/a	5	-999	n/a	n/a	n/a	n/a	2	[0, 0, 0]	-999	PAL1	2	R1175N
565.111	0.001	941522	TEST_PROBE	n/a	2	6	GRASS	n/a	STEAM	GRASS	2	[0, 0, 0]	-999	PAL1	2	R1175N
565.112	1.152	941523	REC_START	n/a	2	-999	n/a	n/a	n/a	n/a	2	[0, 0, 0]	-999	PAL1	2	R1175N
566.264	2.865	942675	REC_EVENT	1152	2	6	GRASS	<>	STEAM	GRASS	2	[0, 0, 0]	-999	PAL1	2	R1175N
569.129	1.0	945540	PROBE_OFF	n/a	2	-999	n/a	n/a	n/a	n/a	2	[0, 0, 0]	-999	PAL1	2	R1175N
570.129	0.009	946540	REC_END	n/a	2	-999	n/a	n/a	n/a	n/a	2	[0, 0, 0]	-999	PAL1	2	R1175N
570.138	21.661	946549	RECALL_END	n/a	-999	-999	n/a	n/a	n/a	n/a	2	[0, 0, 0]	-999	PAL1	2	R1175N
591.799	10.928	968209	TRIAL	n/a	-999	-999	n/a	n/a	n/a	n/a	3	[0, 0, 0]	-999	PAL1	2	R1175N
602.727	0.008	979137	ENCODING_START	n/a	-999	-999	n/a	n/a	n/a	n/a	3	[0, 0, 0]	-999	PAL1	2	R1175N
602.735	0.266	979145	STUDY_ORIENT	n/a	1	5	COIN	COIN	PEA	COIN	3	[0, 0, 0]	-999	PAL1	2	R1175N
603.001	0.734	979411	STUDY_ORIENT_OFF	n/a	1	5	COIN	COIN	PEA	COIN	3	[0, 0, 0]	-999	PAL1	2	R1175N
603.735	4.017	980145	STUDY_PAIR	n/a	1	5	COIN	COIN	PEA	COIN	3	[0, 0, 0]	-999	PAL1	2	R1175N
607.752	1.017	984162	PAIR_OFF	n/a	1	5	COIN	COIN	PEA	COIN	3	[0, 0, 0]	-999	PAL1	2	R1175N
608.769	0.267	985179	STUDY_ORIENT	n/a	2	2	TREE	BARK	TREE	FOAM	3	[0, 0, 0]	-999	PAL1	2	R1175N
609.036	0.733	985446	STUDY_ORIENT_OFF	n/a	2	2	TREE	BARK	TREE	FOAM	3	[0, 0, 0]	-999	PAL1	2	R1175N
609.769	4.017	986179	STUDY_PAIR	n/a	2	2	TREE	BARK	TREE	FOAM	3	[0, 0, 0]	-999	PAL1	2	R1175N
613.786	1.017	990195	PAIR_OFF	n/a	2	2	TREE	BARK	TREE	FOAM	3	[0, 0, 0]	-999	PAL1	2	R1175N
614.803	0.267	991212	STUDY_ORIENT	n/a	3	1	POOL	CUBE	POOL	CUBE	3	[0, 0, 0]	-999	PAL1	2	R1175N
615.07	0.617	991479	STUDY_ORIENT_OFF	n/a	3	1	POOL	CUBE	POOL	CUBE	3	[0, 0, 0]	-999	PAL1	2	R1175N
615.687	4.017	992096	STUDY_PAIR	n/a	3	1	POOL	CUBE	POOL	CUBE	3	[0, 0, 0]	-999	PAL1	2	R1175N
619.704	1.017	996113	PAIR_OFF	n/a	3	1	POOL	CUBE	POOL	CUBE	3	[0, 0, 0]	-999	PAL1	2	R1175N
620.721	0.267	997130	STUDY_ORIENT	n/a	4	6	HAT	HAT	RAIN	HAT	3	[0, 0, 0]	-999	PAL1	2	R1175N
620.988	0.65	997397	STUDY_ORIENT_OFF	n/a	4	6	HAT	HAT	RAIN	HAT	3	[0, 0, 0]	-999	PAL1	2	R1175N
621.638	4.017	998047	STUDY_PAIR	n/a	4	6	HAT	HAT	RAIN	HAT	3	[0, 0, 0]	-999	PAL1	2	R1175N
625.655	1.017	1002064	PAIR_OFF	n/a	4	6	HAT	HAT	RAIN	HAT	3	[0, 0, 0]	-999	PAL1	2	R1175N
626.672	0.267	1003081	STUDY_ORIENT	n/a	5	3	FLEA	n/a	FLEA	ICE	3	[0, 0, 0]	-999	PAL1	2	R1175N
626.939	0.716	1003348	STUDY_ORIENT_OFF	n/a	5	3	FLEA	n/a	FLEA	ICE	3	[0, 0, 0]	-999	PAL1	2	R1175N
627.655	4.001	1004064	STUDY_PAIR	n/a	5	3	FLEA	n/a	FLEA	ICE	3	[0, 0, 0]	-999	PAL1	2	R1175N
631.656	1.017	1008065	PAIR_OFF	n/a	5	3	FLEA	n/a	FLEA	ICE	3	[0, 0, 0]	-999	PAL1	2	R1175N
632.673	0.267	1009082	STUDY_ORIENT	n/a	6	4	BLOOM	n/a	BLOOM	MUD	3	[0, 0, 0]	-999	PAL1	2	R1175N
632.94	0.683	1009349	STUDY_ORIENT_OFF	n/a	6	4	BLOOM	n/a	BLOOM	MUD	3	[0, 0, 0]	-999	PAL1	2	R1175N
633.623	4.017	1010032	STUDY_PAIR	n/a	6	4	BLOOM	n/a	BLOOM	MUD	3	[0, 0, 0]	-999	PAL1	2	R1175N
637.64	1.0	1014048	PAIR_OFF	n/a	6	4	BLOOM	n/a	BLOOM	MUD	3	[0, 0, 0]	-999	PAL1	2	R1175N
638.64	0.0	1015048	ENCODING_END	n/a	-999	-999	n/a	n/a	n/a	n/a	3	[0, 0, 0]	-999	PAL1	2	R1175N
638.64	0.0	1015048	MATH_START	n/a	-999	-999	n/a	n/a	n/a	n/a	3	[0, 0, 0]	-999	PAL1	2	R1175N
638.64	0.017	1015048	START	n/a	-999	-999	n/a	n/a	n/a	n/a	3	[-999, -999, -999]	-999	PAL1	2	R1175N
638.657	7.168	1015065	PROB	7143	-999	-999	n/a	n/a	n/a	n/a	3	[8, 4, 6]	18	PAL1	2	R1175N
645.825	4.366	1022233	PROB	4334	-999	-999	n/a	n/a	n/a	n/a	3	[2, 6, 9]	17	PAL1	2	R1175N
650.191	3.602	1026599	PROB	3577	-999	-999	n/a	n/a	n/a	n/a	3	[3, 3, 2]	8	PAL1	2	R1175N
653.793	5.557	1030201	PROB	5557	-999	-999	n/a	n/a	n/a	n/a	3	[7, 8, 4]	19	PAL1	2	R1175N
659.35	0.01	1035758	STOP	n/a	-999	-999	n/a	n/a	n/a	n/a	3	[-999, -999, -999]	-999	PAL1	2	R1175N
659.36	0.0	1035768	MATH_END	n/a	-999	-999	n/a	n/a	n/a	n/a	3	[0, 0, 0]	-999	PAL1	2	R1175N
659.36	0.016	1035768	RECALL_START	n/a	-999	-999	n/a	n/a	n/a	n/a	3	[0, 0, 0]	-999	PAL1	2	R1175N
659.376	0.268	1035784	TEST_ORIENT	n/a	3	1	POOL	CUBE	POOL	CUBE	3	[0, 0, 0]	-999	PAL1	2	R1175N
659.644	0.699	1036052	RETRIEVAL_ORIENT_OFF	n/a	-999	-999	n/a	n/a	n/a	n/a	3	[0, 0, 0]	-999	PAL1	2	R1175N
660.343	0.001	1036750	TEST_PROBE	n/a	3	1	POOL	CUBE	POOL	CUBE	3	[0, 0, 0]	-999	PAL1	2	R1175N
660.344	1.252	1036751	REC_START	n/a	3	-999	n/a	CUBE	n/a	n/a	3	[0, 0, 0]	-999	PAL1	2	R1175N
661.596	0.478	1038003	REC_EVENT	1252	3	1	POOL	<>	POOL	CUBE	3	[0, 0, 0]	-999	PAL1	2	R1175N
662.074	2.286	1038481	REC_EVENT	1730	3	1	POOL	CUBE	POOL	CUBE	3	[0, 0, 0]	-999	PAL1	2	R1175N
664.36	1.0	1040767	PROBE_OFF	n/a	3	-999	n/a	n/a	n/a	n/a	3	[0, 0, 0]	-999	PAL1	2	R1175N
665.36	0.017	1041767	REC_END	n/a	3	-999	n/a	n/a	n/a	n/a	3	[0, 0, 0]	-999	PAL1	2	R1175N
665.377	0.251	1041784	TEST_ORIENT	n/a	2	2	TREE	BARK	TREE	FOAM	3	[0, 0, 0]	-999	PAL1	2	R1175N
665.628	0.6	1042035	RETRIEVAL_ORIENT_OFF	n/a	3	-999	n/a	n/a	n/a	n/a	3	[0, 0, 0]	-999	PAL1	2	R1175N
666.228	0.0	1042635	REC_START	n/a	2	-999	n/a	BARK	n/a	n/a	3	[0, 0, 0]	-999	PAL1	2	R1175N
666.228	1.039	1042635	TEST_PROBE	n/a	2	2	TREE	BARK	TREE	FOAM	3	[0, 0, 0]	-999	PAL1	2	R1175N
667.267	1.692	1043674	REC_EVENT	1039	2	2	TREE	TREE	TREE	FOAM	3	[0, 0, 0]	-999	PAL1	2	R1175N
668.959	1.286	1045366	REC_EVENT	2731	2	2	TREE	BARK	TREE	FOAM	3	[0, 0, 0]	-999	PAL1	2	R1175N
670.245	1.0	1046652	PROBE_OFF	n/a	2	-999	n/a	n/a	n/a	n/a	3	[0, 0, 0]	-999	PAL1	2	R1175N
671.245	0.017	1047652	REC_END	n/a	2	-999	n/a	n/a	n/a	n/a	3	[0, 0, 0]	-999	PAL1	2	R1175N
671.262	0.266	1047669	TEST_ORIENT	n/a	5	3	FLEA	n/a	FLEA	ICE	3	[0, 0, 0]	-999	PAL1	2	R1175N
671.528	0.601	1047935	RETRIEVAL_ORIENT_OFF	n/a	2	-999	n/a	n/a	n/a	n/a	3	[0, 0, 0]	-999	PAL1	2	R1175N
672.129	0.001	1048536	TEST_PROBE	n/a	5	3	FLEA	n/a	FLEA	ICE	3	[0, 0, 0]	-999	PAL1	2	R1175N
672.13	1.104	1048537	REC_START	n/a	5	-999	n/a	n/a	n/a	n/a	3	[0, 0, 0]	-999	PAL1	2	R1175N
673.234	2.912	1049641	REC_EVENT	1104	5	3	FLEA	<>	FLEA	ICE	3	[0, 0, 0]	-999	PAL1	2	R1175N
676.146	1.0	1052553	PROBE_OFF	n/a	5	-999	n/a	n/a	n/a	n/a	3	[0, 0, 0]	-999	PAL1	2	R1175N
677.146	0.017	1053553	REC_END	n/a	5	-999	n/a	n/a	n/a	n/a	3	[0, 0, 0]	-999	PAL1	2	R1175N
677.163	0.266	1053570	TEST_ORIENT	n/a	6	4	BLOOM	n/a	BLOOM	MUD	3	[0, 0, 0]	-999	PAL1	2	R1175N
677.429	0.734	1053836	RETRIEVAL_ORIENT_OFF	n/a	5	-999	n/a	n/a	n/a	n/a	3	[0, 0, 0]	-999	PAL1	2	R1175N
678.163	0.0	1054570	REC_START	n/a	6	-999	n/a	n/a	n/a	n/a	3	[0, 0, 0]	-999	PAL1	2	R1175N
678.163	4.017	1054570	TEST_PROBE	n/a	6	4	BLOOM	n/a	BLOOM	MUD	3	[0, 0, 0]	-999	PAL1	2	R1175N
682.18	0.998	1058587	PROBE_OFF	n/a	6	-999	n/a	n/a	n/a	n/a	3	[0, 0, 0]	-999	PAL1	2	R1175N
683.178	0.002	1059585	REC_EVENT	5015	6	4	BLOOM	<>	BLOOM	MUD	3	[0, 0, 0]	-999	PAL1	2	R1175N
683.18	0.017	1059587	REC_END	n/a	6	-999	n/a	n/a	n/a	n/a	3	[0, 0, 0]	-999	PAL1	2	R1175N
683.197	0.267	1059604	TEST_ORIENT	n/a	1	5	COIN	COIN	PEA	COIN	3	[0, 0, 0]	-999	PAL1	2	R1175N
683.464	0.716	1059871	RETRIEVAL_ORIENT_OFF	n/a	6	-999	n/a	n/a	n/a	n/a	3	[0, 0, 0]	-999	PAL1	2	R1175N
684.18	0.001	1060587	TEST_PROBE	n/a	1	5	COIN	COIN	PEA	COIN	3	[0, 0, 0]	-999	PAL1	2	R1175N
684.181	1.365	1060588	REC_START	n/a	1	-999	n/a	COIN	n/a	n/a	3	[0, 0, 0]	-999	PAL1	2	R1175N
685.546	0.254	1061952	REC_EVENT	1365	1	5	COIN	<>	PEA	COIN	3	[0, 0, 0]	-999	PAL1	2	R1175N
685.8	1.197	1062206	REC_EVENT	1619	1	5	COIN	COIN	PEA	COIN	3	[0, 0, 0]	-999	PAL1	2	R1175N
686.997	0.183	1063403	REC_EVENT	2816	1	5	COIN	<>	PEA	COIN	3	[0, 0, 0]	-999	PAL1	2	R1175N
687.18	0.15	1063586	REC_EVENT	2999	1	5	COIN	PEA	PEA	COIN	3	[0, 0, 0]	-999	PAL1	2	R1175N
687.33	0.563	1063736	REC_EVENT	3149	1	5	COIN	COIN	PEA	COIN	3	[0, 0, 0]	-999	PAL1	2	R1175N
687.893	0.084	1064299	REC_EVENT	3712	1	5	COIN	PEA	PEA	COIN	3	[0, 0, 0]	-999	PAL1	2	R1175N
687.977	0.221	1064383	REC_EVENT	3796	1	5	COIN	COIN	PEA	COIN	3	[0, 0, 0]	-999	PAL1	2	R1175N
688.198	1.0	1064604	PROBE_OFF	n/a	1	-999	n/a	n/a	n/a	n/a	3	[0, 0, 0]	-999	PAL1	2	R1175N
689.198	0.017	1065604	REC_END	n/a	1	-999	n/a	n/a	n/a	n/a	3	[0, 0, 0]	-999	PAL1	2	R1175N
689.215	0.266	1065621	TEST_ORIENT	n/a	4	6	HAT	HAT	RAIN	HAT	3	[0, 0, 0]	-999	PAL1	2	R1175N
689.481	0.535	1065887	RETRIEVAL_ORIENT_OFF	n/a	1	-999	n/a	n/a	n/a	n/a	3	[0, 0, 0]	-999	PAL1	2	R1175N
690.016	0.0	1066422	TEST_PROBE	n/a	4	6	HAT	HAT	RAIN	HAT	3	[0, 0, 0]	-999	PAL1	2	R1175N
690.016	1.065	1066422	REC_START	n/a	4	-999	n/a	HAT	n/a	n/a	3	[0, 0, 0]	-999	PAL1	2	R1175N
691.081	0.304	1067487	REC_EVENT	1065	4	6	HAT	RAIN	RAIN	HAT	3	[0, 0, 0]	-999	PAL1	2	R1175N
691.385	2.648	1067791	REC_EVENT	1369	4	6	HAT	HAT	RAIN	HAT	3	[0, 0, 0]	-999	PAL1	2	R1175N
694.033	1.0	1070439	PROBE_OFF	n/a	4	-999	n/a	n/a	n/a	n/a	3	[0, 0, 0]	-999	PAL1	2	R1175N
695.033	0.009	1071439	REC_END	n/a	4	-999	n/a	n/a	n/a	n/a	3	[0, 0, 0]	-999	PAL1	2	R1175N
695.042	5.075	1071448	RECALL_END	n/a	-999	-999	n/a	n/a	n/a	n/a	3	[0, 0, 0]	-999	PAL1	2	R1175N
700.117	10.928	1076523	TRIAL	n/a	-999	-999	n/a	n/a	n/a	n/a	4	[0, 0, 0]	-999	PAL1	2	R1175N
711.045	0.008	1087450	ENCODING_START	n/a	-999	-999	n/a	n/a	n/a	n/a	4	[0, 0, 0]	-999	PAL1	2	R1175N
711.053	0.265	1087458	STUDY_ORIENT	n/a	1	5	SHIP	SHIP	GOAT	SHIP	4	[0, 0, 0]	-999	PAL1	2	R1175N
711.318	0.518	1087723	STUDY_ORIENT_OFF	n/a	1	5	SHIP	SHIP	GOAT	SHIP	4	[0, 0, 0]	-999	PAL1	2	R1175N
711.836	4.017	1088241	STUDY_PAIR	n/a	1	5	SHIP	SHIP	GOAT	SHIP	4	[0, 0, 0]	-999	PAL1	2	R1175N
715.853	1.017	1092258	PAIR_OFF	n/a	1	5	SHIP	SHIP	GOAT	SHIP	4	[0, 0, 0]	-999	PAL1	2	R1175N
716.87	0.267	1093275	STUDY_ORIENT	n/a	2	6	CHAIR	CHAIR	DESK	CHAIR	4	[0, 0, 0]	-999	PAL1	2	R1175N
717.137	0.65	1093542	STUDY_ORIENT_OFF	n/a	2	6	CHAIR	CHAIR	DESK	CHAIR	4	[0, 0, 0]	-999	PAL1	2	R1175N
717.787	4.018	1094192	STUDY_PAIR	n/a	2	6	CHAIR	CHAIR	DESK	CHAIR	4	[0, 0, 0]	-999	PAL1	2	R1175N
721.805	1.016	1098210	PAIR_OFF	n/a	2	6	CHAIR	CHAIR	DESK	CHAIR	4	[0, 0, 0]	-999	PAL1	2	R1175N
722.821	0.267	1099226	STUDY_ORIENT	n/a	3	1	SMILE	SMILE	SMILE	HEN	4	[0, 0, 0]	-999	PAL1	2	R1175N
723.088	0.517	1099493	STUDY_ORIENT_OFF	n/a	3	1	SMILE	SMILE	SMILE	HEN	4	[0, 0, 0]	-999	PAL1	2	R1175N
723.605	4.017	1100010	STUDY_PAIR	n/a	3	1	SMILE	SMILE	SMILE	HEN	4	[0, 0, 0]	-999	PAL1	2	R1175N
727.622	1.017	1104027	PAIR_OFF	n/a	3	1	SMILE	SMILE	SMILE	HEN	4	[0, 0, 0]	-999	PAL1	2	R1175N
728.639	0.267	1105044	STUDY_ORIENT	n/a	4	4	PLANT	PLANT	PLANT	SEAT	4	[0, 0, 0]	-999	PAL1	2	R1175N
728.906	0.615	1105311	STUDY_ORIENT_OFF	n/a	4	4	PLANT	PLANT	PLANT	SEAT	4	[0, 0, 0]	-999	PAL1	2	R1175N
729.521	4.018	1105926	STUDY_PAIR	n/a	4	4	PLANT	PLANT	PLANT	SEAT	4	[0, 0, 0]	-999	PAL1	2	R1175N
733.539	1.018	1109944	PAIR_OFF	n/a	4	4	PLANT	PLANT	PLANT	SEAT	4	[0, 0, 0]	-999	PAL1	2	R1175N
734.557	0.266	1110962	STUDY_ORIENT	n/a	5	3	NEST	NEST	NEST	CAR	4	[0, 0, 0]	-999	PAL1	2	R1175N
734.823	0.716	1111227	STUDY_ORIENT_OFF	n/a	5	3	NEST	NEST	NEST	CAR	4	[0, 0, 0]	-999	PAL1	2	R1175N
735.539	4.018	1111943	STUDY_PAIR	n/a	5	3	NEST	NEST	NEST	CAR	4	[0, 0, 0]	-999	PAL1	2	R1175N
739.557	1.017	1115961	PAIR_OFF	n/a	5	3	NEST	NEST	NEST	CAR	4	[0, 0, 0]	-999	PAL1	2	R1175N
740.574	0.267	1116978	STUDY_ORIENT	n/a	6	2	LEAF	LEAF	TOAD	LEAF	4	[0, 0, 0]	-999	PAL1	2	R1175N
740.841	0.649	1117245	STUDY_ORIENT_OFF	n/a	6	2	LEAF	LEAF	TOAD	LEAF	4	[0, 0, 0]	-999	PAL1	2	R1175N
741.49	4.017	1117894	STUDY_PAIR	n/a	6	2	LEAF	LEAF	TOAD	LEAF	4	[0, 0, 0]	-999	PAL1	2	R1175N
745.507	1.0	1121911	PAIR_OFF	n/a	6	2	LEAF	LEAF	TOAD	LEAF	4	[0, 0, 0]	-999	PAL1	2	R1175N
746.507	0.0	1122911	ENCODING_END	n/a	-999	-999	n/a	n/a	n/a	n/a	4	[0, 0, 0]	-999	PAL1	2	R1175N
746.507	0.001	1122911	MATH_START	n/a	-999	-999	n/a	n/a	n/a	n/a	4	[0, 0, 0]	-999	PAL1	2	R1175N
746.508	0.016	1122912	START	n/a	-999	-999	n/a	n/a	n/a	n/a	4	[-999, -999, -999]	-999	PAL1	2	R1175N
746.524	12.22	1122928	PROB	12196	-999	-999	n/a	n/a	n/a	n/a	4	[4, 7, 2]	13	PAL1	2	R1175N
758.744	3.901	1135148	PROB	3879	-999	-999	n/a	n/a	n/a	n/a	4	[1, 5, 4]	10	PAL1	2	R1175N
762.645	8.986	1139048	PROB	8986	-999	-999	n/a	n/a	n/a	n/a	4	[9, 8, 7]	24	PAL1	2	R1175N
771.631	0.015	1148034	STOP	n/a	-999	-999	n/a	n/a	n/a	n/a	4	[-999, -999, -999]	-999	PAL1	2	R1175N
771.646	0.0	1148049	MATH_END	n/a	-999	-999	n/a	n/a	n/a	n/a	4	[0, 0, 0]	-999	PAL1	2	R1175N
771.646	0.017	1148049	RECALL_START	n/a	-999	-999	n/a	n/a	n/a	n/a	4	[0, 0, 0]	-999	PAL1	2	R1175N
771.663	0.267	1148066	TEST_ORIENT	n/a	3	1	SMILE	SMILE	SMILE	HEN	4	[0, 0, 0]	-999	PAL1	2	R1175N
771.93	0.716	1148333	RETRIEVAL_ORIENT_OFF	n/a	-999	-999	n/a	n/a	n/a	n/a	4	[0, 0, 0]	-999	PAL1	2	R1175N
772.646	0.001	1149049	TEST_PROBE	n/a	3	1	SMILE	SMILE	SMILE	HEN	4	[0, 0, 0]	-999	PAL1	2	R1175N
772.647	3.046	1149050	REC_START	n/a	3	-999	n/a	SMILE	n/a	n/a	4	[0, 0, 0]	-999	PAL1	2	R1175N
775.693	0.971	1152096	REC_EVENT	3046	3	1	SMILE	SMILE	SMILE	HEN	4	[0, 0, 0]	-999	PAL1	2	R1175N
776.664	1.0	1153067	PROBE_OFF	n/a	3	-999	n/a	n/a	n/a	n/a	4	[0, 0, 0]	-999	PAL1	2	R1175N
777.664	0.016	1154067	REC_END	n/a	3	-999	n/a	n/a	n/a	n/a	4	[0, 0, 0]	-999	PAL1	2	R1175N
777.68	0.267	1154083	TEST_ORIENT	n/a	6	2	LEAF	LEAF	TOAD	LEAF	4	[0, 0, 0]	-999	PAL1	2	R1175N
777.947	0.617	1154350	RETRIEVAL_ORIENT_OFF	n/a	3	-999	n/a	n/a	n/a	n/a	4	[0, 0, 0]	-999	PAL1	2	R1175N
778.564	0.0	1154967	TEST_PROBE	n/a	6	2	LEAF	LEAF	TOAD	LEAF	4	[0, 0, 0]	-999	PAL1	2	R1175N
778.564	0.762	1154967	REC_START	n/a	6	-999	n/a	LEAF	n/a	n/a	4	[0, 0, 0]	-999	PAL1	2	R1175N
779.326	1.33	1155729	REC_EVENT	762	6	2	LEAF	LEAF	TOAD	LEAF	4	[0, 0, 0]	-999	PAL1	2	R1175N
780.656	0.303	1157059	REC_EVENT	2092	6	2	LEAF	GOAT	TOAD	LEAF	4	[0, 0, 0]	-999	PAL1	2	R1175N
780.959	1.622	1157362	REC_EVENT	2395	6	2	LEAF	LEAF	TOAD	LEAF	4	[0, 0, 0]	-999	PAL1	2	R1175N
782.581	1.001	1158984	PROBE_OFF	n/a	6	-999	n/a	n/a	n/a	n/a	4	[0, 0, 0]	-999	PAL1	2	R1175N
783.582	0.016	1159985	REC_END	n/a	6	-999	n/a	n/a	n/a	n/a	4	[0, 0, 0]	-999	PAL1	2	R1175N
783.598	0.267	1160001	TEST_ORIENT	n/a	5	3	NEST	NEST	NEST	CAR	4	[0, 0, 0]	-999	PAL1	2	R1175N
783.865	0.616	1160268	RETRIEVAL_ORIENT_OFF	n/a	6	-999	n/a	n/a	n/a	n/a	4	[0, 0, 0]	-999	PAL1	2	R1175N
784.481	0.0	1160883	TEST_PROBE	n/a	5	3	NEST	NEST	NEST	CAR	4	[0, 0, 0]	-999	PAL1	2	R1175N
784.481	1.479	1160883	REC_START	n/a	5	-999	n/a	NEST	n/a	n/a	4	[0, 0, 0]	-999	PAL1	2	R1175N
785.96	1.369	1162362	REC_EVENT	1479	5	3	NEST	NEST	NEST	CAR	4	[0, 0, 0]	-999	PAL1	2	R1175N
787.329	1.0	1163731	REC_EVENT	2848	5	3	NEST	<>	NEST	CAR	4	[0, 0, 0]	-999	PAL1	2	R1175N
788.329	0.169	1164731	REC_EVENT	3848	5	3	NEST	<>	NEST	CAR	4	[0, 0, 0]	-999	PAL1	2	R1175N
788.498	1.0	1164900	PROBE_OFF	n/a	5	-999	n/a	n/a	n/a	n/a	4	[0, 0, 0]	-999	PAL1	2	R1175N
789.498	0.017	1165900	REC_END	n/a	5	-999	n/a	n/a	n/a	n/a	4	[0, 0, 0]	-999	PAL1	2	R1175N
789.515	0.268	1165917	TEST_ORIENT	n/a	4	4	PLANT	PLANT	PLANT	SEAT	4	[0, 0, 0]	-999	PAL1	2	R1175N
789.783	0.749	1166185	RETRIEVAL_ORIENT_OFF	n/a	5	-999	n/a	n/a	n/a	n/a	4	[0, 0, 0]	-999	PAL1	2	R1175N
790.532	0.0	1166934	TEST_PROBE	n/a	4	4	PLANT	PLANT	PLANT	SEAT	4	[0, 0, 0]	-999	PAL1	2	R1175N
790.532	1.272	1166934	REC_START	n/a	4	-999	n/a	PLANT	n/a	n/a	4	[0, 0, 0]	-999	PAL1	2	R1175N
791.804	2.746	1168206	REC_EVENT	1272	4	4	PLANT	PLANT	PLANT	SEAT	4	[0, 0, 0]	-999	PAL1	2	R1175N
794.55	1.0	1170952	PROBE_OFF	n/a	4	-999	n/a	n/a	n/a	n/a	4	[0, 0, 0]	-999	PAL1	2	R1175N
795.55	0.017	1171952	REC_END	n/a	4	-999	n/a	n/a	n/a	n/a	4	[0, 0, 0]	-999	PAL1	2	R1175N
795.567	0.267	1171969	TEST_ORIENT	n/a	1	5	SHIP	SHIP	GOAT	SHIP	4	[0, 0, 0]	-999	PAL1	2	R1175N
795.834	0.615	1172236	RETRIEVAL_ORIENT_OFF	n/a	4	-999	n/a	n/a	n/a	n/a	4	[0, 0, 0]	-999	PAL1	2	R1175N
796.449	0.001	1172851	TEST_PROBE	n/a	1	5	SHIP	SHIP	GOAT	SHIP	4	[0, 0, 0]	-999	PAL1	2	R1175N
796.45	1.181	1172852	REC_START	n/a	1	-999	n/a	SHIP	n/a	n/a	4	[0, 0, 0]	-999	PAL1	2	R1175N
797.631	2.836	1174033	REC_EVENT	1181	1	5	SHIP	SHIP	GOAT	SHIP	4	[0, 0, 0]	-999	PAL1	2	R1175N
800.467	1.0	1176869	PROBE_OFF	n/a	1	-999	n/a	n/a	n/a	n/a	4	[0, 0, 0]	-999	PAL1	2	R1175N
801.467	0.016	1177869	REC_END	n/a	1	-999	n/a	n/a	n/a	n/a	4	[0, 0, 0]	-999	PAL1	2	R1175N
801.483	0.251	1177885	TEST_ORIENT	n/a	2	6	CHAIR	CHAIR	DESK	CHAIR	4	[0, 0, 0]	-999	PAL1	2	R1175N
801.734	0.516	1178136	RETRIEVAL_ORIENT_OFF	n/a	1	-999	n/a	n/a	n/a	n/a	4	[0, 0, 0]	-999	PAL1	2	R1175N
802.25	0.001	1178652	TEST_PROBE	n/a	2	6	CHAIR	CHAIR	DESK	CHAIR	4	[0, 0, 0]	-999	PAL1	2	R1175N
802.251	1.123	1178653	REC_START	n/a	2	-999	n/a	CHAIR	n/a	n/a	4	[0, 0, 0]	-999	PAL1	2	R1175N
803.374	2.894	1179776	REC_EVENT	1123	2	6	CHAIR	CHAIR	DESK	CHAIR	4	[0, 0, 0]	-999	PAL1	2	R1175N
806.268	1.0	1182670	PROBE_OFF	n/a	2	-999	n/a	n/a	n/a	n/a	4	[0, 0, 0]	-999	PAL1	2	R1175N
807.268	0.008	1183670	REC_END	n/a	2	-999	n/a	n/a	n/a	n/a	4	[0, 0, 0]	-999	PAL1	2	R1175N
807.276	5.909	1183678	RECALL_END	n/a	-999	-999	n/a	n/a	n/a	n/a	4	[0, 0, 0]	-999	PAL1	2	R1175N
813.185	10.929	1189586	TRIAL	n/a	-999	-999	n/a	n/a	n/a	n/a	5	[0, 0, 0]	-999	PAL1	2	R1175N
824.114	0.008	1200515	ENCODING_START	n/a	-999	-999	n/a	n/a	n/a	n/a	5	[0, 0, 0]	-999	PAL1	2	R1175N
824.122	0.265	1200523	STUDY_ORIENT	n/a	1	1	TOOTH	n/a	NAIL	TOOTH	5	[0, 0, 0]	-999	PAL1	2	R1175N
824.387	0.601	1200788	STUDY_ORIENT_OFF	n/a	1	1	TOOTH	n/a	NAIL	TOOTH	5	[0, 0, 0]	-999	PAL1	2	R1175N
824.988	4.018	1201389	STUDY_PAIR	n/a	1	1	TOOTH	n/a	NAIL	TOOTH	5	[0, 0, 0]	-999	PAL1	2	R1175N
829.006	1.017	1205407	PAIR_OFF	n/a	1	1	TOOTH	n/a	NAIL	TOOTH	5	[0, 0, 0]	-999	PAL1	2	R1175N
830.023	0.265	1206424	STUDY_ORIENT	n/a	2	6	PURSE	PURSE	PURSE	SEAL	5	[0, 0, 0]	-999	PAL1	2	R1175N
830.288	0.751	1206689	STUDY_ORIENT_OFF	n/a	2	6	PURSE	PURSE	PURSE	SEAL	5	[0, 0, 0]	-999	PAL1	2	R1175N
831.039	4.018	1207440	STUDY_PAIR	n/a	2	6	PURSE	PURSE	PURSE	SEAL	5	[0, 0, 0]	-999	PAL1	2	R1175N
835.057	1.017	1211457	PAIR_OFF	n/a	2	6	PURSE	PURSE	PURSE	SEAL	5	[0, 0, 0]	-999	PAL1	2	R1175N
836.074	0.265	1212474	STUDY_ORIENT	n/a	3	3	EGG	EGG	CORN	EGG	5	[0, 0, 0]	-999	PAL1	2	R1175N
836.339	0.518	1212739	STUDY_ORIENT_OFF	n/a	3	3	EGG	EGG	CORN	EGG	5	[0, 0, 0]	-999	PAL1	2	R1175N
836.857	4.018	1213257	STUDY_PAIR	n/a	3	3	EGG	EGG	CORN	EGG	5	[0, 0, 0]	-999	PAL1	2	R1175N
840.875	1.016	1217275	PAIR_OFF	n/a	3	3	EGG	EGG	CORN	EGG	5	[0, 0, 0]	-999	PAL1	2	R1175N
841.891	0.266	1218291	STUDY_ORIENT	n/a	4	2	SHIELD	n/a	WOLF	SHIELD	5	[0, 0, 0]	-999	PAL1	2	R1175N
842.157	0.718	1218557	STUDY_ORIENT_OFF	n/a	4	2	SHIELD	n/a	WOLF	SHIELD	5	[0, 0, 0]	-999	PAL1	2	R1175N
842.875	4.017	1219275	STUDY_PAIR	n/a	4	2	SHIELD	n/a	WOLF	SHIELD	5	[0, 0, 0]	-999	PAL1	2	R1175N
846.892	1.017	1223292	PAIR_OFF	n/a	4	2	SHIELD	n/a	WOLF	SHIELD	5	[0, 0, 0]	-999	PAL1	2	R1175N
847.909	0.266	1224309	STUDY_ORIENT	n/a	5	5	PEN	PEN	STAIR	PEN	5	[0, 0, 0]	-999	PAL1	2	R1175N
848.175	0.717	1224575	STUDY_ORIENT_OFF	n/a	5	5	PEN	PEN	STAIR	PEN	5	[0, 0, 0]	-999	PAL1	2	R1175N
848.892	4.018	1225292	STUDY_PAIR	n/a	5	5	PEN	PEN	STAIR	PEN	5	[0, 0, 0]	-999	PAL1	2	R1175N
852.91	1.017	1229310	PAIR_OFF	n/a	5	5	PEN	PEN	STAIR	PEN	5	[0, 0, 0]	-999	PAL1	2	R1175N
853.927	0.265	1230327	STUDY_ORIENT	n/a	6	4	CAT	SHIELD	CAT	LEG	5	[0, 0, 0]	-999	PAL1	2	R1175N
854.192	0.651	1230592	STUDY_ORIENT_OFF	n/a	6	4	CAT	SHIELD	CAT	LEG	5	[0, 0, 0]	-999	PAL1	2	R1175N
854.843	4.018	1231243	STUDY_PAIR	n/a	6	4	CAT	SHIELD	CAT	LEG	5	[0, 0, 0]	-999	PAL1	2	R1175N
858.861	1.0	1235260	PAIR_OFF	n/a	6	4	CAT	SHIELD	CAT	LEG	5	[0, 0, 0]	-999	PAL1	2	R1175N
859.861	0.0	1236260	ENCODING_END	n/a	-999	-999	n/a	n/a	n/a	n/a	5	[0, 0, 0]	-999	PAL1	2	R1175N
859.861	0.0	1236260	MATH_START	n/a	-999	-999	n/a	n/a	n/a	n/a	5	[0, 0, 0]	-999	PAL1	2	R1175N
859.861	0.017	1236260	START	n/a	-999	-999	n/a	n/a	n/a	n/a	5	[-999, -999, -999]	-999	PAL1	2	R1175N
859.878	6.067	1236277	PROB	6033	-999	-999	n/a	n/a	n/a	n/a	5	[7, 2, 6]	15	PAL1	2	R1175N
865.945	3.701	1242344	PROB	3679	-999	-999	n/a	n/a	n/a	n/a	5	[1, 3, 4]	8	PAL1	2	R1175N
869.646	6.351	1246045	PROB	6322	-999	-999	n/a	n/a	n/a	n/a	5	[9, 7, 2]	18	PAL1	2	R1175N
875.997	3.751	1252396	PROB	3723	-999	-999	n/a	n/a	n/a	n/a	5	[2, 3, 1]	6	PAL1	2	R1175N
879.748	12.747	1256147	PROB	12747	-999	-999	n/a	n/a	n/a	n/a	5	[4, 8, 9]	20	PAL1	2	R1175N
892.495	0.004	1268893	STOP	n/a	-999	-999	n/a	n/a	n/a	n/a	5	[-999, -999, -999]	-999	PAL1	2	R1175N
892.499	0.0	1268897	MATH_END	n/a	-999	-999	n/a	n/a	n/a	n/a	5	[0, 0, 0]	-999	PAL1	2	R1175N
892.499	0.017	1268897	RECALL_START	n/a	-999	-999	n/a	n/a	n/a	n/a	5	[0, 0, 0]	-999	PAL1	2	R1175N
892.516	0.267	1268914	TEST_ORIENT	n/a	1	1	TOOTH	n/a	NAIL	TOOTH	5	[0, 0, 0]	-999	PAL1	2	R1175N
892.783	0.516	1269181	RETRIEVAL_ORIENT_OFF	n/a	-999	-999	n/a	n/a	n/a	n/a	5	[0, 0, 0]	-999	PAL1	2	R1175N
893.299	0.0	1269697	TEST_PROBE	n/a	1	1	TOOTH	n/a	NAIL	TOOTH	5	[0, 0, 0]	-999	PAL1	2	R1175N
893.299	1.5	1269697	REC_START	n/a	1	-999	n/a	n/a	n/a	n/a	5	[0, 0, 0]	-999	PAL1	2	R1175N
894.799	1.0	1271197	REC_EVENT	1500	1	1	TOOTH	<>	NAIL	TOOTH	5	[0, 0, 0]	-999	PAL1	2	R1175N
895.799	1.0	1272197	REC_EVENT	2500	1	1	TOOTH	<>	NAIL	TOOTH	5	[0, 0, 0]	-999	PAL1	2	R1175N
896.799	0.517	1273197	REC_EVENT	3500	1	1	TOOTH	<>	NAIL	TOOTH	5	[0, 0, 0]	-999	PAL1	2	R1175N
897.316	1.0	1273714	PROBE_OFF	n/a	1	-999	n/a	n/a	n/a	n/a	5	[0, 0, 0]	-999	PAL1	2	R1175N
898.316	0.017	1274714	REC_END	n/a	1	-999	n/a	n/a	n/a	n/a	5	[0, 0, 0]	-999	PAL1	2	R1175N
898.333	0.251	1274731	TEST_ORIENT	n/a	4	2	SHIELD	n/a	WOLF	SHIELD	5	[0, 0, 0]	-999	PAL1	2	R1175N
898.584	0.599	1274982	RETRIEVAL_ORIENT_OFF	n/a	1	-999	n/a	n/a	n/a	n/a	5	[0, 0, 0]	-999	PAL1	2	R1175N
899.183	0.001	1275581	TEST_PROBE	n/a	4	2	SHIELD	n/a	WOLF	SHIELD	5	[0, 0, 0]	-999	PAL1	2	R1175N
899.184	3.018	1275582	REC_START	n/a	4	-999	n/a	n/a	n/a	n/a	5	[0, 0, 0]	-999	PAL1	2	R1175N
902.202	0.999	1278600	REC_EVENT	3018	4	2	SHIELD	<>	WOLF	SHIELD	5	[0, 0, 0]	-999	PAL1	2	R1175N
903.201	1.0	1279599	PROBE_OFF	n/a	4	-999	n/a	n/a	n/a	n/a	5	[0, 0, 0]	-999	PAL1	2	R1175N
904.201	0.016	1280599	REC_END	n/a	4	-999	n/a	n/a	n/a	n/a	5	[0, 0, 0]	-999	PAL1	2	R1175N
904.217	0.267	1280615	TEST_ORIENT	n/a	3	3	EGG	EGG	CORN	EGG	5	[0, 0, 0]	-999	PAL1	2	R1175N
904.484	0.734	1280882	RETRIEVAL_ORIENT_OFF	n/a	4	-999	n/a	n/a	n/a	n/a	5	[0, 0, 0]	-999	PAL1	2	R1175N
905.218	0.0	1281616	TEST_PROBE	n/a	3	3	EGG	EGG	CORN	EGG	5	[0, 0, 0]	-999	PAL1	2	R1175N
905.218	1.465	1281616	REC_START	n/a	3	-999	n/a	EGG	n/a	n/a	5	[0, 0, 0]	-999	PAL1	2	R1175N
906.683	0.425	1283081	REC_EVENT	1465	3	3	EGG	EGG	CORN	EGG	5	[0, 0, 0]	-999	PAL1	2	R1175N
907.108	2.127	1283506	REC_EVENT	1890	3	3	EGG	<>	CORN	EGG	5	[0, 0, 0]	-999	PAL1	2	R1175N
909.235	1.001	1285632	PROBE_OFF	n/a	3	-999	n/a	n/a	n/a	n/a	5	[0, 0, 0]	-999	PAL1	2	R1175N
910.236	0.016	1286633	REC_END	n/a	3	-999	n/a	n/a	n/a	n/a	5	[0, 0, 0]	-999	PAL1	2	R1175N
910.252	0.266	1286649	TEST_ORIENT	n/a	6	4	CAT	SHIELD	CAT	LEG	5	[0, 0, 0]	-999	PAL1	2	R1175N
910.518	0.518	1286915	RETRIEVAL_ORIENT_OFF	n/a	3	-999	n/a	n/a	n/a	n/a	5	[0, 0, 0]	-999	PAL1	2	R1175N
911.036	0.001	1287433	TEST_PROBE	n/a	6	4	CAT	SHIELD	CAT	LEG	5	[0, 0, 0]	-999	PAL1	2	R1175N
911.037	1.537	1287434	REC_START	n/a	6	-999	n/a	SHIELD	n/a	n/a	5	[0, 0, 0]	-999	PAL1	2	R1175N
912.574	1.102	1288971	REC_EVENT	1537	6	4	CAT	CAT	CAT	LEG	5	[0, 0, 0]	-999	PAL1	2	R1175N
913.676	1.378	1290073	REC_EVENT	2639	6	4	CAT	SHIELD	CAT	LEG	5	[0, 0, 0]	-999	PAL1	2	R1175N
915.054	1.0	1291451	PROBE_OFF	n/a	6	-999	n/a	n/a	n/a	n/a	5	[0, 0, 0]	-999	PAL1	2	R1175N
916.054	0.016	1292451	REC_END	n/a	6	-999	n/a	n/a	n/a	n/a	5	[0, 0, 0]	-999	PAL1	2	R1175N
916.07	0.266	1292467	TEST_ORIENT	n/a	5	5	PEN	PEN	STAIR	PEN	5	[0, 0, 0]	-999	PAL1	2	R1175N
916.336	0.585	1292733	RETRIEVAL_ORIENT_OFF	n/a	6	-999	n/a	n/a	n/a	n/a	5	[0, 0, 0]	-999	PAL1	2	R1175N
916.921	0.0	1293318	TEST_PROBE	n/a	5	5	PEN	PEN	STAIR	PEN	5	[0, 0, 0]	-999	PAL1	2	R1175N
916.921	1.088	1293318	REC_START	n/a	5	-999	n/a	PEN	n/a	n/a	5	[0, 0, 0]	-999	PAL1	2	R1175N
918.009	0.556	1294406	REC_EVENT	1088	5	5	PEN	<>	STAIR	PEN	5	[0, 0, 0]	-999	PAL1	2	R1175N
918.565	0.417	1294962	REC_EVENT	1644	5	5	PEN	STAIR	STAIR	PEN	5	[0, 0, 0]	-999	PAL1	2	R1175N
918.982	1.956	1295379	REC_EVENT	2061	5	5	PEN	PEN	STAIR	PEN	5	[0, 0, 0]	-999	PAL1	2	R1175N
920.938	1.0	1297335	PROBE_OFF	n/a	5	-999	n/a	n/a	n/a	n/a	5	[0, 0, 0]	-999	PAL1	2	R1175N
921.938	0.017	1298335	REC_END	n/a	5	-999	n/a	n/a	n/a	n/a	5	[0, 0, 0]	-999	PAL1	2	R1175N
921.955	0.265	1298352	TEST_ORIENT	n/a	2	6	PURSE	PURSE	PURSE	SEAL	5	[0, 0, 0]	-999	PAL1	2	R1175N
922.22	0.668	1298617	RETRIEVAL_ORIENT_OFF	n/a	5	-999	n/a	n/a	n/a	n/a	5	[0, 0, 0]	-999	PAL1	2	R1175N
922.888	0.001	1299285	TEST_PROBE	n/a	2	6	PURSE	PURSE	PURSE	SEAL	5	[0, 0, 0]	-999	PAL1	2	R1175N
922.889	1.862	1299286	REC_START	n/a	2	-999	n/a	PURSE	n/a	n/a	5	[0, 0, 0]	-999	PAL1	2	R1175N
924.751	0.736	1301148	REC_EVENT	1862	2	6	PURSE	<>	PURSE	SEAL	5	[0, 0, 0]	-999	PAL1	2	R1175N
925.487	1.419	1301884	REC_EVENT	2598	2	6	PURSE	PURSE	PURSE	SEAL	5	[0, 0, 0]	-999	PAL1	2	R1175N
926.906	1.0	1303303	PROBE_OFF	n/a	2	-999	n/a	n/a	n/a	n/a	5	[0, 0, 0]	-999	PAL1	2	R1175N
927.906	0.008	1304303	REC_END	n/a	2	-999	n/a	n/a	n/a	n/a	5	[0, 0, 0]	-999	PAL1	2	R1175N
927.914	5.943	1304311	RECALL_END	n/a	-999	-999	n/a	n/a	n/a	n/a	5	[0, 0, 0]	-999	PAL1	2	R1175N
933.857	10.928	1310253	TRIAL	n/a	-999	-999	n/a	n/a	n/a	n/a	6	[0, 0, 0]	-999	PAL1	2	R1175N
944.785	0.007	1321181	ENCODING_START	n/a	-999	-999	n/a	n/a	n/a	n/a	6	[0, 0, 0]	-999	PAL1	2	R1175N
944.792	0.267	1321188	STUDY_ORIENT	n/a	1	1	FILM	n/a	ARM	FILM	6	[0, 0, 0]	-999	PAL1	2	R1175N
945.059	0.55	1321455	STUDY_ORIENT_OFF	n/a	1	1	FILM	n/a	ARM	FILM	6	[0, 0, 0]	-999	PAL1	2	R1175N
945.609	4.017	1322005	STUDY_PAIR	n/a	1	1	FILM	n/a	ARM	FILM	6	[0, 0, 0]	-999	PAL1	2	R1175N
949.626	1.017	1326022	PAIR_OFF	n/a	1	1	FILM	n/a	ARM	FILM	6	[0, 0, 0]	-999	PAL1	2	R1175N
950.643	0.267	1327039	STUDY_ORIENT	n/a	2	4	DOOR	DOOR	DOOR	OWL	6	[0, 0, 0]	-999	PAL1	2	R1175N
950.91	0.632	1327306	STUDY_ORIENT_OFF	n/a	2	4	DOOR	DOOR	DOOR	OWL	6	[0, 0, 0]	-999	PAL1	2	R1175N
951.542	4.018	1327938	STUDY_PAIR	n/a	2	4	DOOR	DOOR	DOOR	OWL	6	[0, 0, 0]	-999	PAL1	2	R1175N
955.56	1.017	1331956	PAIR_OFF	n/a	2	4	DOOR	DOOR	DOOR	OWL	6	[0, 0, 0]	-999	PAL1	2	R1175N
956.577	0.267	1332973	STUDY_ORIENT	n/a	3	3	FISH	FLY	FISH	SKY	6	[0, 0, 0]	-999	PAL1	2	R1175N
956.844	0.649	1333240	STUDY_ORIENT_OFF	n/a	3	3	FISH	FLY	FISH	SKY	6	[0, 0, 0]	-999	PAL1	2	R1175N
957.493	4.017	1333889	STUDY_PAIR	n/a	3	3	FISH	FLY	FISH	SKY	6	[0, 0, 0]	-999	PAL1	2	R1175N
961.51	1.017	1337905	PAIR_OFF	n/a	3	3	FISH	FLY	FISH	SKY	6	[0, 0, 0]	-999	PAL1	2	R1175N
962.527	0.268	1338922	STUDY_ORIENT	n/a	4	6	COW	COW	COW	STOVE	6	[0, 0, 0]	-999	PAL1	2	R1175N
962.795	0.616	1339190	STUDY_ORIENT_OFF	n/a	4	6	COW	COW	COW	STOVE	6	[0, 0, 0]	-999	PAL1	2	R1175N
963.411	4.017	1339806	STUDY_PAIR	n/a	4	6	COW	COW	COW	STOVE	6	[0, 0, 0]	-999	PAL1	2	R1175N
967.428	1.017	1343823	PAIR_OFF	n/a	4	6	COW	COW	COW	STOVE	6	[0, 0, 0]	-999	PAL1	2	R1175N
968.445	0.268	1344840	STUDY_ORIENT	n/a	5	5	CLOWN	CLOWN	TEETH	CLOWN	6	[0, 0, 0]	-999	PAL1	2	R1175N
968.713	0.749	1345108	STUDY_ORIENT_OFF	n/a	5	5	CLOWN	CLOWN	TEETH	CLOWN	6	[0, 0, 0]	-999	PAL1	2	R1175N
969.462	4.017	1345857	STUDY_PAIR	n/a	5	5	CLOWN	CLOWN	TEETH	CLOWN	6	[0, 0, 0]	-999	PAL1	2	R1175N
973.479	1.017	1349874	PAIR_OFF	n/a	5	5	CLOWN	CLOWN	TEETH	CLOWN	6	[0, 0, 0]	-999	PAL1	2	R1175N
974.496	0.268	1350891	STUDY_ORIENT	n/a	6	2	CLAY	BOY	BOY	CLAY	6	[0, 0, 0]	-999	PAL1	2	R1175N
974.764	0.699	1351159	STUDY_ORIENT_OFF	n/a	6	2	CLAY	BOY	BOY	CLAY	6	[0, 0, 0]	-999	PAL1	2	R1175N
975.463	4.017	1351858	STUDY_PAIR	n/a	6	2	CLAY	BOY	BOY	CLAY	6	[0, 0, 0]	-999	PAL1	2	R1175N
979.48	1.0	1355875	PAIR_OFF	n/a	6	2	CLAY	BOY	BOY	CLAY	6	[0, 0, 0]	-999	PAL1	2	R1175N
980.48	0.0	1356875	ENCODING_END	n/a	-999	-999	n/a	n/a	n/a	n/a	6	[0, 0, 0]	-999	PAL1	2	R1175N
980.48	0.0	1356875	MATH_START	n/a	-999	-999	n/a	n/a	n/a	n/a	6	[0, 0, 0]	-999	PAL1	2	R1175N
980.48	0.017	1356875	START	n/a	-999	-999	n/a	n/a	n/a	n/a	6	[-999, -999, -999]	-999	PAL1	2	R1175N
980.497	8.086	1356892	PROB	8055	-999	-999	n/a	n/a	n/a	n/a	6	[5, 8, 6]	19	PAL1	2	R1175N
988.583	3.616	1364977	PROB	3592	-999	-999	n/a	n/a	n/a	n/a	6	[1, 3, 3]	7	PAL1	2	R1175N
992.199	3.768	1368593	PROB	3745	-999	-999	n/a	n/a	n/a	n/a	6	[4, 3, 3]	10	PAL1	2	R1175N
995.967	5.511	1372361	PROB	5511	-999	-999	n/a	n/a	n/a	n/a	6	[8, 8, 2]	18	PAL1	2	R1175N
1001.478	0.006	1377872	STOP	n/a	-999	-999	n/a	n/a	n/a	n/a	6	[-999, -999, -999]	-999	PAL1	2	R1175N
1001.484	0.0	1377878	MATH_END	n/a	-999	-999	n/a	n/a	n/a	n/a	6	[0, 0, 0]	-999	PAL1	2	R1175N
1001.484	0.016	1377878	RECALL_START	n/a	-999	-999	n/a	n/a	n/a	n/a	6	[0, 0, 0]	-999	PAL1	2	R1175N
1001.5	0.268	1377894	TEST_ORIENT	n/a	1	1	FILM	n/a	ARM	FILM	6	[0, 0, 0]	-999	PAL1	2	R1175N
1001.768	0.683	1378162	RETRIEVAL_ORIENT_OFF	n/a	-999	-999	n/a	n/a	n/a	n/a	6	[0, 0, 0]	-999	PAL1	2	R1175N
1002.451	0.0	1378845	TEST_PROBE	n/a	1	1	FILM	n/a	ARM	FILM	6	[0, 0, 0]	-999	PAL1	2	R1175N
1002.451	2.1	1378845	REC_START	n/a	1	-999	n/a	n/a	n/a	n/a	6	[0, 0, 0]	-999	PAL1	2	R1175N
1004.551	1.917	1380945	REC_EVENT	2100	1	1	FILM	<>	ARM	FILM	6	[0, 0, 0]	-999	PAL1	2	R1175N
1006.468	1.001	1382862	PROBE_OFF	n/a	1	-999	n/a	n/a	n/a	n/a	6	[0, 0, 0]	-999	PAL1	2	R1175N
1007.469	0.016	1383862	REC_END	n/a	1	-999	n/a	n/a	n/a	n/a	6	[0, 0, 0]	-999	PAL1	2	R1175N
1007.485	0.268	1383878	TEST_ORIENT	n/a	6	2	CLAY	BOY	BOY	CLAY	6	[0, 0, 0]	-999	PAL1	2	R1175N
1007.753	0.565	1384146	RETRIEVAL_ORIENT_OFF	n/a	1	-999	n/a	n/a	n/a	n/a	6	[0, 0, 0]	-999	PAL1	2	R1175N
1008.318	0.001	1384711	TEST_PROBE	n/a	6	2	CLAY	BOY	BOY	CLAY	6	[0, 0, 0]	-999	PAL1	2	R1175N
1008.319	1.329	1384712	REC_START	n/a	6	-999	n/a	BOY	n/a	n/a	6	[0, 0, 0]	-999	PAL1	2	R1175N
1009.648	0.482	1386041	REC_EVENT	1329	6	2	CLAY	CLAY	BOY	CLAY	6	[0, 0, 0]	-999	PAL1	2	R1175N
1010.13	2.189	1386523	REC_EVENT	1811	6	2	CLAY	BOY	BOY	CLAY	6	[0, 0, 0]	-999	PAL1	2	R1175N
1012.319	1.0	1388712	PROBE_OFF	n/a	6	-999	n/a	n/a	n/a	n/a	6	[0, 0, 0]	-999	PAL1	2	R1175N
1013.319	0.017	1389712	REC_END	n/a	6	-999	n/a	n/a	n/a	n/a	6	[0, 0, 0]	-999	PAL1	2	R1175N
1013.336	0.267	1389729	TEST_ORIENT	n/a	3	3	FISH	FLY	FISH	SKY	6	[0, 0, 0]	-999	PAL1	2	R1175N
1013.603	0.699	1389996	RETRIEVAL_ORIENT_OFF	n/a	6	-999	n/a	n/a	n/a	n/a	6	[0, 0, 0]	-999	PAL1	2	R1175N
1014.302	0.001	1390695	TEST_PROBE	n/a	3	3	FISH	FLY	FISH	SKY	6	[0, 0, 0]	-999	PAL1	2	R1175N
1014.303	1.004	1390696	REC_START	n/a	3	-999	n/a	FLY	n/a	n/a	6	[0, 0, 0]	-999	PAL1	2	R1175N
1015.307	0.487	1391700	REC_EVENT	1004	3	3	FISH	FISH	FISH	SKY	6	[0, 0, 0]	-999	PAL1	2	R1175N
1015.794	2.509	1392187	REC_EVENT	1491	3	3	FISH	FLY	FISH	SKY	6	[0, 0, 0]	-999	PAL1	2	R1175N
1018.303	1.0	1394696	PROBE_OFF	n/a	3	-999	n/a	n/a	n/a	n/a	6	[0, 0, 0]	-999	PAL1	2	R1175N
1019.303	0.017	1395696	REC_END	n/a	3	-999	n/a	n/a	n/a	n/a	6	[0, 0, 0]	-999	PAL1	2	R1175N
1019.32	0.251	1395713	TEST_ORIENT	n/a	2	4	DOOR	DOOR	DOOR	OWL	6	[0, 0, 0]	-999	PAL1	2	R1175N
1019.571	0.649	1395964	RETRIEVAL_ORIENT_OFF	n/a	3	-999	n/a	n/a	n/a	n/a	6	[0, 0, 0]	-999	PAL1	2	R1175N
1020.22	0.001	1396613	TEST_PROBE	n/a	2	4	DOOR	DOOR	DOOR	OWL	6	[0, 0, 0]	-999	PAL1	2	R1175N
1020.221	0.981	1396614	REC_START	n/a	2	-999	n/a	DOOR	n/a	n/a	6	[0, 0, 0]	-999	PAL1	2	R1175N
1021.202	1.104	1397595	REC_EVENT	981	2	4	DOOR	DOOR	DOOR	OWL	6	[0, 0, 0]	-999	PAL1	2	R1175N
1022.306	1.0	1398699	REC_EVENT	2085	2	4	DOOR	<>	DOOR	OWL	6	[0, 0, 0]	-999	PAL1	2	R1175N
1023.306	0.915	1399699	REC_EVENT	3085	2	4	DOOR	<>	DOOR	OWL	6	[0, 0, 0]	-999	PAL1	2	R1175N
1024.221	1.0	1400614	PROBE_OFF	n/a	2	-999	n/a	n/a	n/a	n/a	6	[0, 0, 0]	-999	PAL1	2	R1175N
1025.221	0.017	1401614	REC_END	n/a	2	-999	n/a	n/a	n/a	n/a	6	[0, 0, 0]	-999	PAL1	2	R1175N
1025.238	0.266	1401631	TEST_ORIENT	n/a	5	5	CLOWN	CLOWN	TEETH	CLOWN	6	[0, 0, 0]	-999	PAL1	2	R1175N
1025.504	0.535	1401897	RETRIEVAL_ORIENT_OFF	n/a	2	-999	n/a	n/a	n/a	n/a	6	[0, 0, 0]	-999	PAL1	2	R1175N
1026.039	0.0	1402432	TEST_PROBE	n/a	5	5	CLOWN	CLOWN	TEETH	CLOWN	6	[0, 0, 0]	-999	PAL1	2	R1175N
1026.039	0.727	1402432	REC_START	n/a	5	-999	n/a	CLOWN	n/a	n/a	6	[0, 0, 0]	-999	PAL1	2	R1175N
1026.766	2.407	1403159	REC_EVENT	727	5	5	CLOWN	CLOWN	TEETH	CLOWN	6	[0, 0, 0]	-999	PAL1	2	R1175N
1029.173	0.883	1405566	REC_EVENT	3134	5	5	CLOWN	<>	TEETH	CLOWN	6	[0, 0, 0]	-999	PAL1	2	R1175N
1030.056	1.0	1406449	PROBE_OFF	n/a	5	-999	n/a	n/a	n/a	n/a	6	[0, 0, 0]	-999	PAL1	2	R1175N
1031.056	0.017	1407449	REC_END	n/a	5	-999	n/a	n/a	n/a	n/a	6	[0, 0, 0]	-999	PAL1	2	R1175N
1031.073	0.266	1407466	TEST_ORIENT	n/a	4	6	COW	COW	COW	STOVE	6	[0, 0, 0]	-999	PAL1	2	R1175N
1031.339	0.551	1407732	RETRIEVAL_ORIENT_OFF	n/a	5	-999	n/a	n/a	n/a	n/a	6	[0, 0, 0]	-999	PAL1	2	R1175N
1031.89	0.0	1408282	REC_START	n/a	4	-999	n/a	COW	n/a	n/a	6	[0, 0, 0]	-999	PAL1	2	R1175N
1031.89	1.572	1408282	TEST_PROBE	n/a	4	6	COW	COW	COW	STOVE	6	[0, 0, 0]	-999	PAL1	2	R1175N
1033.462	1.174	1409854	REC_EVENT	1572	4	6	COW	COW	COW	STOVE	6	[0, 0, 0]	-999	PAL1	2	R1175N
1034.636	1.0	1411028	REC_EVENT	2746	4	6	COW	<>	COW	STOVE	6	[0, 0, 0]	-999	PAL1	2	R1175N
1035.636	0.271	1412028	REC_EVENT	3746	4	6	COW	<>	COW	STOVE	6	[0, 0, 0]	-999	PAL1	2	R1175N
1035.907	1.0	1412299	PROBE_OFF	n/a	4	-999	n/a	n/a	n/a	n/a	6	[0, 0, 0]	-999	PAL1	2	R1175N
1036.907	0.003	1413299	REC_END	n/a	4	-999	n/a	n/a	n/a	n/a	6	[0, 0, 0]	-999	PAL1	2	R1175N
1036.91	7.281	1413302	RECALL_END	n/a	-999	-999	n/a	n/a	n/a	n/a	6	[0, 0, 0]	-999	PAL1	2	R1175N
1044.191	10.931	1420583	TRIAL	n/a	-999	-999	n/a	n/a	n/a	n/a	7	[0, 0, 0]	-999	PAL1	2	R1175N
1055.122	0.005	1431514	ENCODING_START	n/a	-999	-999	n/a	n/a	n/a	n/a	7	[0, 0, 0]	-999	PAL1	2	R1175N
1055.127	0.266	1431519	STUDY_ORIENT	n/a	1	3	FENCE	FENCE	FENCE	CHIN	7	[0, 0, 0]	-999	PAL1	2	R1175N
1055.393	0.651	1431785	STUDY_ORIENT_OFF	n/a	1	3	FENCE	FENCE	FENCE	CHIN	7	[0, 0, 0]	-999	PAL1	2	R1175N
1056.044	4.017	1432436	STUDY_PAIR	n/a	1	3	FENCE	FENCE	FENCE	CHIN	7	[0, 0, 0]	-999	PAL1	2	R1175N
1060.061	1.017	1436452	PAIR_OFF	n/a	1	3	FENCE	FENCE	FENCE	CHIN	7	[0, 0, 0]	-999	PAL1	2	R1175N
1061.078	0.266	1437469	STUDY_ORIENT	n/a	2	4	FORT	FORT	JAIL	FORT	7	[0, 0, 0]	-999	PAL1	2	R1175N
1061.344	0.584	1437735	STUDY_ORIENT_OFF	n/a	2	4	FORT	FORT	JAIL	FORT	7	[0, 0, 0]	-999	PAL1	2	R1175N
1061.928	4.001	1438319	STUDY_PAIR	n/a	2	4	FORT	FORT	JAIL	FORT	7	[0, 0, 0]	-999	PAL1	2	R1175N
1065.929	1.017	1442320	PAIR_OFF	n/a	2	4	FORT	FORT	JAIL	FORT	7	[0, 0, 0]	-999	PAL1	2	R1175N
1066.946	0.265	1443337	STUDY_ORIENT	n/a	3	5	CUP	CUP	CUP	MOOSE	7	[0, 0, 0]	-999	PAL1	2	R1175N
1067.211	0.735	1443602	STUDY_ORIENT_OFF	n/a	3	5	CUP	CUP	CUP	MOOSE	7	[0, 0, 0]	-999	PAL1	2	R1175N
1067.946	4.017	1444337	STUDY_PAIR	n/a	3	5	CUP	CUP	CUP	MOOSE	7	[0, 0, 0]	-999	PAL1	2	R1175N
1071.963	1.017	1448354	PAIR_OFF	n/a	3	5	CUP	CUP	CUP	MOOSE	7	[0, 0, 0]	-999	PAL1	2	R1175N
1072.98	0.266	1449371	STUDY_ORIENT	n/a	4	6	SHRIMP	NET	SHRIMP	SHEET	7	[0, 0, 0]	-999	PAL1	2	R1175N
1073.246	0.751	1449637	STUDY_ORIENT_OFF	n/a	4	6	SHRIMP	NET	SHRIMP	SHEET	7	[0, 0, 0]	-999	PAL1	2	R1175N
1073.997	4.017	1450388	STUDY_PAIR	n/a	4	6	SHRIMP	NET	SHRIMP	SHEET	7	[0, 0, 0]	-999	PAL1	2	R1175N
1078.014	1.017	1454405	PAIR_OFF	n/a	4	6	SHRIMP	NET	SHRIMP	SHEET	7	[0, 0, 0]	-999	PAL1	2	R1175N
1079.031	0.266	1455422	STUDY_ORIENT	n/a	5	1	TENT	SIGN	TENT	SIGN	7	[0, 0, 0]	-999	PAL1	2	R1175N
1079.297	0.634	1455688	STUDY_ORIENT_OFF	n/a	5	1	TENT	SIGN	TENT	SIGN	7	[0, 0, 0]	-999	PAL1	2	R1175N
1079.931	4.018	1456322	STUDY_PAIR	n/a	5	1	TENT	SIGN	TENT	SIGN	7	[0, 0, 0]	-999	PAL1	2	R1175N
1083.949	1.016	1460339	PAIR_OFF	n/a	5	1	TENT	SIGN	TENT	SIGN	7	[0, 0, 0]	-999	PAL1	2	R1175N
1084.965	0.266	1461355	STUDY_ORIENT	n/a	6	2	FUDGE	n/a	SPRING	FUDGE	7	[0, 0, 0]	-999	PAL1	2	R1175N
1085.231	0.535	1461621	STUDY_ORIENT_OFF	n/a	6	2	FUDGE	n/a	SPRING	FUDGE	7	[0, 0, 0]	-999	PAL1	2	R1175N
1085.766	4.017	1462156	STUDY_PAIR	n/a	6	2	FUDGE	n/a	SPRING	FUDGE	7	[0, 0, 0]	-999	PAL1	2	R1175N
1089.783	1.001	1466173	PAIR_OFF	n/a	6	2	FUDGE	n/a	SPRING	FUDGE	7	[0, 0, 0]	-999	PAL1	2	R1175N
1090.784	0.0	1467174	ENCODING_END	n/a	-999	-999	n/a	n/a	n/a	n/a	7	[0, 0, 0]	-999	PAL1	2	R1175N
1090.784	0.0	1467174	MATH_START	n/a	-999	-999	n/a	n/a	n/a	n/a	7	[0, 0, 0]	-999	PAL1	2	R1175N
1090.784	0.016	1467174	START	n/a	-999	-999	n/a	n/a	n/a	n/a	7	[-999, -999, -999]	-999	PAL1	2	R1175N
1090.8	16.502	1467190	PROB	16471	-999	-999	n/a	n/a	n/a	n/a	7	[9, 2, 4]	15	PAL1	2	R1175N
1107.302	7.177	1483691	PROB	7177	-999	-999	n/a	n/a	n/a	n/a	7	[3, 5, 8]	16	PAL1	2	R1175N
1114.479	0.007	1490868	STOP	n/a	-999	-999	n/a	n/a	n/a	n/a	7	[-999, -999, -999]	-999	PAL1	2	R1175N
1114.486	0.0	1490875	MATH_END	n/a	-999	-999	n/a	n/a	n/a	n/a	7	[0, 0, 0]	-999	PAL1	2	R1175N
1114.486	0.017	1490875	RECALL_START	n/a	-999	-999	n/a	n/a	n/a	n/a	7	[0, 0, 0]	-999	PAL1	2	R1175N
1114.503	0.267	1490892	TEST_ORIENT	n/a	5	1	TENT	SIGN	TENT	SIGN	7	[0, 0, 0]	-999	PAL1	2	R1175N
1114.77	0.766	1491159	RETRIEVAL_ORIENT_OFF	n/a	-999	-999	n/a	n/a	n/a	n/a	7	[0, 0, 0]	-999	PAL1	2	R1175N
1115.536	0.001	1491925	TEST_PROBE	n/a	5	1	TENT	SIGN	TENT	SIGN	7	[0, 0, 0]	-999	PAL1	2	R1175N
1115.537	1.167	1491926	REC_START	n/a	5	-999	n/a	SIGN	n/a	n/a	7	[0, 0, 0]	-999	PAL1	2	R1175N
1116.704	1.931	1493093	REC_EVENT	1167	5	1	TENT	TENT	TENT	SIGN	7	[0, 0, 0]	-999	PAL1	2	R1175N
1118.635	0.92	1495024	REC_EVENT	3098	5	1	TENT	SIGN	TENT	SIGN	7	[0, 0, 0]	-999	PAL1	2	R1175N
1119.555	1.0	1495944	PROBE_OFF	n/a	5	-999	n/a	n/a	n/a	n/a	7	[0, 0, 0]	-999	PAL1	2	R1175N
1120.555	0.016	1496944	REC_END	n/a	5	-999	n/a	n/a	n/a	n/a	7	[0, 0, 0]	-999	PAL1	2	R1175N
1120.571	0.267	1496960	TEST_ORIENT	n/a	6	2	FUDGE	n/a	SPRING	FUDGE	7	[0, 0, 0]	-999	PAL1	2	R1175N
1120.838	0.683	1497227	RETRIEVAL_ORIENT_OFF	n/a	5	-999	n/a	n/a	n/a	n/a	7	[0, 0, 0]	-999	PAL1	2	R1175N
1121.521	0.0	1497910	REC_START	n/a	6	-999	n/a	n/a	n/a	n/a	7	[0, 0, 0]	-999	PAL1	2	R1175N
1121.521	1.447	1497910	TEST_PROBE	n/a	6	2	FUDGE	n/a	SPRING	FUDGE	7	[0, 0, 0]	-999	PAL1	2	R1175N
1122.968	1.0	1499357	REC_EVENT	1447	6	2	FUDGE	<>	SPRING	FUDGE	7	[0, 0, 0]	-999	PAL1	2	R1175N
1123.968	1.57	1500357	REC_EVENT	2447	6	2	FUDGE	<>	SPRING	FUDGE	7	[0, 0, 0]	-999	PAL1	2	R1175N
1125.538	1.0	1501927	PROBE_OFF	n/a	6	-999	n/a	n/a	n/a	n/a	7	[0, 0, 0]	-999	PAL1	2	R1175N
1126.538	0.018	1502927	REC_END	n/a	6	-999	n/a	n/a	n/a	n/a	7	[0, 0, 0]	-999	PAL1	2	R1175N
1126.556	0.266	1502945	TEST_ORIENT	n/a	1	3	FENCE	FENCE	FENCE	CHIN	7	[0, 0, 0]	-999	PAL1	2	R1175N
1126.822	0.65	1503211	RETRIEVAL_ORIENT_OFF	n/a	6	-999	n/a	n/a	n/a	n/a	7	[0, 0, 0]	-999	PAL1	2	R1175N
1127.472	0.0	1503861	TEST_PROBE	n/a	1	3	FENCE	FENCE	FENCE	CHIN	7	[0, 0, 0]	-999	PAL1	2	R1175N
1127.472	0.94	1503861	REC_START	n/a	1	-999	n/a	FENCE	n/a	n/a	7	[0, 0, 0]	-999	PAL1	2	R1175N
1128.412	0.752	1504801	REC_EVENT	940	1	3	FENCE	FENCE	FENCE	CHIN	7	[0, 0, 0]	-999	PAL1	2	R1175N
1129.164	0.414	1505553	REC_EVENT	1692	1	3	FENCE	<>	FENCE	CHIN	7	[0, 0, 0]	-999	PAL1	2	R1175N
1129.578	1.911	1505967	REC_EVENT	2106	1	3	FENCE	<>	FENCE	CHIN	7	[0, 0, 0]	-999	PAL1	2	R1175N
1131.489	1.0	1507877	PROBE_OFF	n/a	1	-999	n/a	n/a	n/a	n/a	7	[0, 0, 0]	-999	PAL1	2	R1175N
1132.489	0.017	1508877	REC_END	n/a	1	-999	n/a	n/a	n/a	n/a	7	[0, 0, 0]	-999	PAL1	2	R1175N
1132.506	0.267	1508894	TEST_ORIENT	n/a	2	4	FORT	FORT	JAIL	FORT	7	[0, 0, 0]	-999	PAL1	2	R1175N
1132.773	0.7	1509161	RETRIEVAL_ORIENT_OFF	n/a	1	-999	n/a	n/a	n/a	n/a	7	[0, 0, 0]	-999	PAL1	2	R1175N
1133.473	0.0	1509861	TEST_PROBE	n/a	2	4	FORT	FORT	JAIL	FORT	7	[0, 0, 0]	-999	PAL1	2	R1175N
1133.473	0.955	1509861	REC_START	n/a	2	-999	n/a	FORT	n/a	n/a	7	[0, 0, 0]	-999	PAL1	2	R1175N
1134.428	3.062	1510816	REC_EVENT	955	2	4	FORT	FORT	JAIL	FORT	7	[0, 0, 0]	-999	PAL1	2	R1175N
1137.49	1.0	1513878	PROBE_OFF	n/a	2	-999	n/a	n/a	n/a	n/a	7	[0, 0, 0]	-999	PAL1	2	R1175N
1138.49	0.017	1514878	REC_END	n/a	2	-999	n/a	n/a	n/a	n/a	7	[0, 0, 0]	-999	PAL1	2	R1175N
1138.507	0.268	1514895	TEST_ORIENT	n/a	3	5	CUP	CUP	CUP	MOOSE	7	[0, 0, 0]	-999	PAL1	2	R1175N
1138.775	0.682	1515163	RETRIEVAL_ORIENT_OFF	n/a	2	-999	n/a	n/a	n/a	n/a	7	[0, 0, 0]	-999	PAL1	2	R1175N
1139.457	0.0	1515845	TEST_PROBE	n/a	3	5	CUP	CUP	CUP	MOOSE	7	[0, 0, 0]	-999	PAL1	2	R1175N
1139.457	1.256	1515845	REC_START	n/a	3	-999	n/a	CUP	n/a	n/a	7	[0, 0, 0]	-999	PAL1	2	R1175N
1140.713	1.369	1517101	REC_EVENT	1256	3	5	CUP	CUP	CUP	MOOSE	7	[0, 0, 0]	-999	PAL1	2	R1175N
1142.082	1.392	1518470	REC_EVENT	2625	3	5	CUP	<>	CUP	MOOSE	7	[0, 0, 0]	-999	PAL1	2	R1175N
1143.474	1.0	1519862	PROBE_OFF	n/a	3	-999	n/a	n/a	n/a	n/a	7	[0, 0, 0]	-999	PAL1	2	R1175N
1144.474	0.017	1520862	REC_END	n/a	3	-999	n/a	n/a	n/a	n/a	7	[0, 0, 0]	-999	PAL1	2	R1175N
1144.491	0.251	1520879	TEST_ORIENT	n/a	4	6	SHRIMP	NET	SHRIMP	SHEET	7	[0, 0, 0]	-999	PAL1	2	R1175N
1144.742	0.649	1521130	RETRIEVAL_ORIENT_OFF	n/a	3	-999	n/a	n/a	n/a	n/a	7	[0, 0, 0]	-999	PAL1	2	R1175N
1145.391	0.001	1521779	TEST_PROBE	n/a	4	6	SHRIMP	NET	SHRIMP	SHEET	7	[0, 0, 0]	-999	PAL1	2	R1175N
1145.392	0.882	1521780	REC_START	n/a	4	-999	n/a	NET	n/a	n/a	7	[0, 0, 0]	-999	PAL1	2	R1175N
1146.274	2.103	1522662	REC_EVENT	882	4	6	SHRIMP	SHRIMP	SHRIMP	SHEET	7	[0, 0, 0]	-999	PAL1	2	R1175N
1148.377	1.032	1524765	REC_EVENT	2985	4	6	SHRIMP	NET	SHRIMP	SHEET	7	[0, 0, 0]	-999	PAL1	2	R1175N
1149.409	1.0	1525797	PROBE_OFF	n/a	4	-999	n/a	n/a	n/a	n/a	7	[0, 0, 0]	-999	PAL1	2	R1175N
1150.409	0.009	1526797	REC_END	n/a	4	-999	n/a	n/a	n/a	n/a	7	[0, 0, 0]	-999	PAL1	2	R1175N
1150.418	5.958	1526806	RECALL_END	n/a	-999	-999	n/a	n/a	n/a	n/a	7	[0, 0, 0]	-999	PAL1	2	R1175N
1156.376	10.928	1532763	TRIAL	n/a	-999	-999	n/a	n/a	n/a	n/a	8	[0, 0, 0]	-999	PAL1	2	R1175N
1167.304	0.008	1543691	ENCODING_START	n/a	-999	-999	n/a	n/a	n/a	n/a	8	[0, 0, 0]	-999	PAL1	2	R1175N
1167.312	0.267	1543699	STUDY_ORIENT	n/a	1	1	HOLE	n/a	SHEEP	HOLE	8	[0, 0, 0]	-999	PAL1	2	R1175N
1167.579	0.616	1543966	STUDY_ORIENT_OFF	n/a	1	1	HOLE	n/a	SHEEP	HOLE	8	[0, 0, 0]	-999	PAL1	2	R1175N
1168.195	4.018	1544582	STUDY_PAIR	n/a	1	1	HOLE	n/a	SHEEP	HOLE	8	[0, 0, 0]	-999	PAL1	2	R1175N
1172.213	1.016	1548600	PAIR_OFF	n/a	1	1	HOLE	n/a	SHEEP	HOLE	8	[0, 0, 0]	-999	PAL1	2	R1175N
1173.229	0.267	1549616	STUDY_ORIENT	n/a	2	2	CLOCK	n/a	DIME	CLOCK	8	[0, 0, 0]	-999	PAL1	2	R1175N
1173.496	0.717	1549883	STUDY_ORIENT_OFF	n/a	2	2	CLOCK	n/a	DIME	CLOCK	8	[0, 0, 0]	-999	PAL1	2	R1175N
1174.213	4.017	1550600	STUDY_PAIR	n/a	2	2	CLOCK	n/a	DIME	CLOCK	8	[0, 0, 0]	-999	PAL1	2	R1175N
1178.23	1.017	1554617	PAIR_OFF	n/a	2	2	CLOCK	n/a	DIME	CLOCK	8	[0, 0, 0]	-999	PAL1	2	R1175N
1179.247	0.267	1555634	STUDY_ORIENT	n/a	3	5	CAPE	CAPE	AXE	CAPE	8	[0, 0, 0]	-999	PAL1	2	R1175N
1179.514	0.517	1555901	STUDY_ORIENT_OFF	n/a	3	5	CAPE	CAPE	AXE	CAPE	8	[0, 0, 0]	-999	PAL1	2	R1175N
1180.031	4.018	1556418	STUDY_PAIR	n/a	3	5	CAPE	CAPE	AXE	CAPE	8	[0, 0, 0]	-999	PAL1	2	R1175N
1184.049	1.017	1560435	PAIR_OFF	n/a	3	5	CAPE	CAPE	AXE	CAPE	8	[0, 0, 0]	-999	PAL1	2	R1175N
1185.066	0.265	1561452	STUDY_ORIENT	n/a	4	6	SPONGE	n/a	SPONGE	DOCK	8	[0, 0, 0]	-999	PAL1	2	R1175N
1185.331	0.685	1561717	STUDY_ORIENT_OFF	n/a	4	6	SPONGE	n/a	SPONGE	DOCK	8	[0, 0, 0]	-999	PAL1	2	R1175N
1186.016	4.017	1562402	STUDY_PAIR	n/a	4	6	SPONGE	n/a	SPONGE	DOCK	8	[0, 0, 0]	-999	PAL1	2	R1175N
1190.033	1.017	1566419	PAIR_OFF	n/a	4	6	SPONGE	n/a	SPONGE	DOCK	8	[0, 0, 0]	-999	PAL1	2	R1175N
1191.05	0.266	1567436	STUDY_ORIENT	n/a	5	3	JET	JET	JET	RAKE	8	[0, 0, 0]	-999	PAL1	2	R1175N
1191.316	0.751	1567702	STUDY_ORIENT_OFF	n/a	5	3	JET	JET	JET	RAKE	8	[0, 0, 0]	-999	PAL1	2	R1175N
1192.067	4.017	1568453	STUDY_PAIR	n/a	5	3	JET	JET	JET	RAKE	8	[0, 0, 0]	-999	PAL1	2	R1175N
1196.084	1.017	1572470	PAIR_OFF	n/a	5	3	JET	JET	JET	RAKE	8	[0, 0, 0]	-999	PAL1	2	R1175N
1197.101	0.266	1573487	STUDY_ORIENT	n/a	6	4	CLOTH	n/a	WORLD	CLOTH	8	[0, 0, 0]	-999	PAL1	2	R1175N
1197.367	0.734	1573753	STUDY_ORIENT_OFF	n/a	6	4	CLOTH	n/a	WORLD	CLOTH	8	[0, 0, 0]	-999	PAL1	2	R1175N
1198.101	4.017	1574487	STUDY_PAIR	n/a	6	4	CLOTH	n/a	WORLD	CLOTH	8	[0, 0, 0]	-999	PAL1	2	R1175N
1202.118	1.0	1578504	PAIR_OFF	n/a	6	4	CLOTH	n/a	WORLD	CLOTH	8	[0, 0, 0]	-999	PAL1	2	R1175N
1203.118	0.0	1579504	ENCODING_END	n/a	-999	-999	n/a	n/a	n/a	n/a	8	[0, 0, 0]	-999	PAL1	2	R1175N
1203.118	0.001	1579504	MATH_START	n/a	-999	-999	n/a	n/a	n/a	n/a	8	[0, 0, 0]	-999	PAL1	2	R1175N
1203.119	0.016	1579505	START	n/a	-999	-999	n/a	n/a	n/a	n/a	8	[-999, -999, -999]	-999	PAL1	2	R1175N
1203.135	5.885	1579521	PROB	5857	-999	-999	n/a	n/a	n/a	n/a	8	[3, 6, 9]	18	PAL1	2	R1175N
1209.02	8.483	1585405	PROB	8458	-999	-999	n/a	n/a	n/a	n/a	8	[2, 9, 7]	18	PAL1	2	R1175N
1217.503	10.169	1593888	PROB	10169	-999	-999	n/a	n/a	n/a	n/a	8	[8, 9, 7]	24	PAL1	2	R1175N
1227.672	0.017	1604057	STOP	n/a	-999	-999	n/a	n/a	n/a	n/a	8	[-999, -999, -999]	-999	PAL1	2	R1175N
1227.689	0.001	1604074	MATH_END	n/a	-999	-999	n/a	n/a	n/a	n/a	8	[0, 0, 0]	-999	PAL1	2	R1175N
1227.69	0.016	1604075	RECALL_START	n/a	-999	-999	n/a	n/a	n/a	n/a	8	[0, 0, 0]	-999	PAL1	2	R1175N
1227.706	0.267	1604091	TEST_ORIENT	n/a	1	1	HOLE	n/a	SHEEP	HOLE	8	[0, 0, 0]	-999	PAL1	2	R1175N
1227.973	0.583	1604358	RETRIEVAL_ORIENT_OFF	n/a	-999	-999	n/a	n/a	n/a	n/a	8	[0, 0, 0]	-999	PAL1	2	R1175N
1228.556	0.001	1604941	TEST_PROBE	n/a	1	1	HOLE	n/a	SHEEP	HOLE	8	[0, 0, 0]	-999	PAL1	2	R1175N
1228.557	4.017	1604942	REC_START	n/a	1	-999	n/a	n/a	n/a	n/a	8	[0, 0, 0]	-999	PAL1	2	R1175N
1232.574	0.473	1608958	PROBE_OFF	n/a	1	-999	n/a	n/a	n/a	n/a	8	[0, 0, 0]	-999	PAL1	2	R1175N
1233.047	0.527	1609431	REC_EVENT	4490	1	1	HOLE	<>	SHEEP	HOLE	8	[0, 0, 0]	-999	PAL1	2	R1175N
1233.574	0.016	1609958	REC_END	n/a	1	-999	n/a	n/a	n/a	n/a	8	[0, 0, 0]	-999	PAL1	2	R1175N
1233.59	0.267	1609974	TEST_ORIENT	n/a	2	2	CLOCK	n/a	DIME	CLOCK	8	[0, 0, 0]	-999	PAL1	2	R1175N
1233.857	0.616	1610241	RETRIEVAL_ORIENT_OFF	n/a	1	-999	n/a	n/a	n/a	n/a	8	[0, 0, 0]	-999	PAL1	2	R1175N
1234.473	0.0	1610857	TEST_PROBE	n/a	2	2	CLOCK	n/a	DIME	CLOCK	8	[0, 0, 0]	-999	PAL1	2	R1175N
1234.473	0.943	1610857	REC_START	n/a	2	-999	n/a	n/a	n/a	n/a	8	[0, 0, 0]	-999	PAL1	2	R1175N
1235.416	3.074	1611800	REC_EVENT	943	2	2	CLOCK	<>	DIME	CLOCK	8	[0, 0, 0]	-999	PAL1	2	R1175N
1238.49	1.001	1614874	PROBE_OFF	n/a	2	-999	n/a	n/a	n/a	n/a	8	[0, 0, 0]	-999	PAL1	2	R1175N
1239.491	0.016	1615875	REC_END	n/a	2	-999	n/a	n/a	n/a	n/a	8	[0, 0, 0]	-999	PAL1	2	R1175N
1239.507	0.251	1615891	TEST_ORIENT	n/a	5	3	JET	JET	JET	RAKE	8	[0, 0, 0]	-999	PAL1	2	R1175N
1239.758	0.549	1616142	RETRIEVAL_ORIENT_OFF	n/a	2	-999	n/a	n/a	n/a	n/a	8	[0, 0, 0]	-999	PAL1	2	R1175N
1240.307	0.001	1616691	TEST_PROBE	n/a	5	3	JET	JET	JET	RAKE	8	[0, 0, 0]	-999	PAL1	2	R1175N
1240.308	0.645	1616692	REC_START	n/a	5	-999	n/a	JET	n/a	n/a	8	[0, 0, 0]	-999	PAL1	2	R1175N
1240.953	3.372	1617337	REC_EVENT	645	5	3	JET	JET	JET	RAKE	8	[0, 0, 0]	-999	PAL1	2	R1175N
1244.325	1.0	1620709	PROBE_OFF	n/a	5	-999	n/a	n/a	n/a	n/a	8	[0, 0, 0]	-999	PAL1	2	R1175N
1245.325	0.016	1621709	REC_END	n/a	5	-999	n/a	n/a	n/a	n/a	8	[0, 0, 0]	-999	PAL1	2	R1175N
1245.341	0.268	1621725	TEST_ORIENT	n/a	6	4	CLOTH	n/a	WORLD	CLOTH	8	[0, 0, 0]	-999	PAL1	2	R1175N
1245.609	0.699	1621993	RETRIEVAL_ORIENT_OFF	n/a	5	-999	n/a	n/a	n/a	n/a	8	[0, 0, 0]	-999	PAL1	2	R1175N
1246.308	0.001	1622692	TEST_PROBE	n/a	6	4	CLOTH	n/a	WORLD	CLOTH	8	[0, 0, 0]	-999	PAL1	2	R1175N
1246.309	1.039	1622693	REC_START	n/a	6	-999	n/a	n/a	n/a	n/a	8	[0, 0, 0]	-999	PAL1	2	R1175N
1247.348	2.978	1623732	REC_EVENT	1039	6	4	CLOTH	<>	WORLD	CLOTH	8	[0, 0, 0]	-999	PAL1	2	R1175N
1250.326	1.009	1626710	PROBE_OFF	n/a	6	-999	n/a	n/a	n/a	n/a	8	[0, 0, 0]	-999	PAL1	2	R1175N
1251.335	0.007	1627719	REC_END	n/a	6	-999	n/a	n/a	n/a	n/a	8	[0, 0, 0]	-999	PAL1	2	R1175N
1251.342	0.251	1627726	TEST_ORIENT	n/a	3	5	CAPE	CAPE	AXE	CAPE	8	[0, 0, 0]	-999	PAL1	2	R1175N
1251.593	0.716	1627977	RETRIEVAL_ORIENT_OFF	n/a	6	-999	n/a	n/a	n/a	n/a	8	[0, 0, 0]	-999	PAL1	2	R1175N
1252.309	0.001	1628693	TEST_PROBE	n/a	3	5	CAPE	CAPE	AXE	CAPE	8	[0, 0, 0]	-999	PAL1	2	R1175N
1252.31	0.693	1628694	REC_START	n/a	3	-999	n/a	CAPE	n/a	n/a	8	[0, 0, 0]	-999	PAL1	2	R1175N
1253.003	3.324	1629387	REC_EVENT	693	3	5	CAPE	CAPE	AXE	CAPE	8	[0, 0, 0]	-999	PAL1	2	R1175N
1256.327	1.0	1632710	PROBE_OFF	n/a	3	-999	n/a	n/a	n/a	n/a	8	[0, 0, 0]	-999	PAL1	2	R1175N
1257.327	0.016	1633710	REC_END	n/a	3	-999	n/a	n/a	n/a	n/a	8	[0, 0, 0]	-999	PAL1	2	R1175N
1257.343	0.251	1633726	TEST_ORIENT	n/a	4	6	SPONGE	n/a	SPONGE	DOCK	8	[0, 0, 0]	-999	PAL1	2	R1175N
1257.594	0.666	1633977	RETRIEVAL_ORIENT_OFF	n/a	3	-999	n/a	n/a	n/a	n/a	8	[0, 0, 0]	-999	PAL1	2	R1175N
1258.26	0.0	1634643	TEST_PROBE	n/a	4	6	SPONGE	n/a	SPONGE	DOCK	8	[0, 0, 0]	-999	PAL1	2	R1175N
1258.26	1.154	1634643	REC_START	n/a	4	-999	n/a	n/a	n/a	n/a	8	[0, 0, 0]	-999	PAL1	2	R1175N
1259.414	2.864	1635797	REC_EVENT	1154	4	6	SPONGE	<>	SPONGE	DOCK	8	[0, 0, 0]	-999	PAL1	2	R1175N
1262.278	1.0	1638661	PROBE_OFF	n/a	4	-999	n/a	n/a	n/a	n/a	8	[0, 0, 0]	-999	PAL1	2	R1175N
1263.278	0.005	1639661	REC_END	n/a	4	-999	n/a	n/a	n/a	n/a	8	[0, 0, 0]	-999	PAL1	2	R1175N
1263.283	69.574	1639666	RECALL_END	n/a	-999	-999	n/a	n/a	n/a	n/a	8	[0, 0, 0]	-999	PAL1	2	R1175N
1332.857	10.928	1709237	TRIAL	n/a	-999	-999	n/a	n/a	n/a	n/a	9	[0, 0, 0]	-999	PAL1	2	R1175N
1343.785	0.007	1720165	ENCODING_START	n/a	-999	-999	n/a	n/a	n/a	n/a	9	[0, 0, 0]	-999	PAL1	2	R1175N
1343.792	0.267	1720172	STUDY_ORIENT	n/a	1	3	GUARD	GUARD	COUCH	GUARD	9	[0, 0, 0]	-999	PAL1	2	R1175N
1344.059	0.583	1720439	STUDY_ORIENT_OFF	n/a	1	3	GUARD	GUARD	COUCH	GUARD	9	[0, 0, 0]	-999	PAL1	2	R1175N
1344.642	4.018	1721022	STUDY_PAIR	n/a	1	3	GUARD	GUARD	COUCH	GUARD	9	[0, 0, 0]	-999	PAL1	2	R1175N
1348.66	1.017	1725040	PAIR_OFF	n/a	1	3	GUARD	GUARD	COUCH	GUARD	9	[0, 0, 0]	-999	PAL1	2	R1175N
1349.677	0.266	1726057	STUDY_ORIENT	n/a	2	2	LAMP	n/a	INK	LAMP	9	[0, 0, 0]	-999	PAL1	2	R1175N
1349.943	0.767	1726323	STUDY_ORIENT_OFF	n/a	2	2	LAMP	n/a	INK	LAMP	9	[0, 0, 0]	-999	PAL1	2	R1175N
1350.71	4.017	1727090	STUDY_PAIR	n/a	2	2	LAMP	n/a	INK	LAMP	9	[0, 0, 0]	-999	PAL1	2	R1175N
1354.727	1.017	1731106	PAIR_OFF	n/a	2	2	LAMP	n/a	INK	LAMP	9	[0, 0, 0]	-999	PAL1	2	R1175N
1355.744	0.267	1732123	STUDY_ORIENT	n/a	3	1	WEED	GUARD	WEED	PET	9	[0, 0, 0]	-999	PAL1	2	R1175N
1356.011	0.717	1732390	STUDY_ORIENT_OFF	n/a	3	1	WEED	GUARD	WEED	PET	9	[0, 0, 0]	-999	PAL1	2	R1175N
1356.728	4.017	1733107	STUDY_PAIR	n/a	3	1	WEED	GUARD	WEED	PET	9	[0, 0, 0]	-999	PAL1	2	R1175N
1360.745	1.017	1737124	PAIR_OFF	n/a	3	1	WEED	GUARD	WEED	PET	9	[0, 0, 0]	-999	PAL1	2	R1175N
1361.762	0.267	1738141	STUDY_ORIENT	n/a	4	6	KITE	KITE	BAT	KITE	9	[0, 0, 0]	-999	PAL1	2	R1175N
1362.029	0.6	1738408	STUDY_ORIENT_OFF	n/a	4	6	KITE	KITE	BAT	KITE	9	[0, 0, 0]	-999	PAL1	2	R1175N
1362.629	4.017	1739008	STUDY_PAIR	n/a	4	6	KITE	KITE	BAT	KITE	9	[0, 0, 0]	-999	PAL1	2	R1175N
1366.646	1.017	1743025	PAIR_OFF	n/a	4	6	KITE	KITE	BAT	KITE	9	[0, 0, 0]	-999	PAL1	2	R1175N
1367.663	0.267	1744042	STUDY_ORIENT	n/a	5	5	STORM	STORM	STORM	BEE	9	[0, 0, 0]	-999	PAL1	2	R1175N
1367.93	0.7	1744309	STUDY_ORIENT_OFF	n/a	5	5	STORM	STORM	STORM	BEE	9	[0, 0, 0]	-999	PAL1	2	R1175N
1368.63	4.017	1745009	STUDY_PAIR	n/a	5	5	STORM	STORM	STORM	BEE	9	[0, 0, 0]	-999	PAL1	2	R1175N
1372.647	1.017	1749026	PAIR_OFF	n/a	5	5	STORM	STORM	STORM	BEE	9	[0, 0, 0]	-999	PAL1	2	R1175N
1373.664	0.267	1750043	STUDY_ORIENT	n/a	6	4	CORD	CORD	CORD	DOLL	9	[0, 0, 0]	-999	PAL1	2	R1175N
1373.931	0.532	1750310	STUDY_ORIENT_OFF	n/a	6	4	CORD	CORD	CORD	DOLL	9	[0, 0, 0]	-999	PAL1	2	R1175N
1374.463	4.018	1750842	STUDY_PAIR	n/a	6	4	CORD	CORD	CORD	DOLL	9	[0, 0, 0]	-999	PAL1	2	R1175N
1378.481	1.001	1754860	PAIR_OFF	n/a	6	4	CORD	CORD	CORD	DOLL	9	[0, 0, 0]	-999	PAL1	2	R1175N
1379.482	0.0	1755860	ENCODING_END	n/a	-999	-999	n/a	n/a	n/a	n/a	9	[0, 0, 0]	-999	PAL1	2	R1175N
1379.482	0.0	1755860	MATH_START	n/a	-999	-999	n/a	n/a	n/a	n/a	9	[0, 0, 0]	-999	PAL1	2	R1175N
1379.482	0.015	1755860	START	n/a	-999	-999	n/a	n/a	n/a	n/a	9	[-999, -999, -999]	-999	PAL1	2	R1175N
1379.497	4.734	1755875	PROB	4701	-999	-999	n/a	n/a	n/a	n/a	9	[3, 2, 7]	12	PAL1	2	R1175N
1384.231	4.536	1760609	PROB	4505	-999	-999	n/a	n/a	n/a	n/a	9	[4, 3, 8]	15	PAL1	2	R1175N
1388.767	3.532	1765145	PROB	3511	-999	-999	n/a	n/a	n/a	n/a	9	[1, 7, 8]	16	PAL1	2	R1175N
1392.299	3.419	1768677	PROB	3389	-999	-999	n/a	n/a	n/a	n/a	9	[1, 3, 3]	7	PAL1	2	R1175N
1395.718	4.793	1772096	PROB	4793	-999	-999	n/a	n/a	n/a	n/a	9	[7, 3, 4]	14	PAL1	2	R1175N
1400.511	0.007	1776889	STOP	n/a	-999	-999	n/a	n/a	n/a	n/a	9	[-999, -999, -999]	-999	PAL1	2	R1175N
1400.518	0.0	1776896	MATH_END	n/a	-999	-999	n/a	n/a	n/a	n/a	9	[0, 0, 0]	-999	PAL1	2	R1175N
1400.518	0.016	1776896	RECALL_START	n/a	-999	-999	n/a	n/a	n/a	n/a	9	[0, 0, 0]	-999	PAL1	2	R1175N
1400.534	0.251	1776912	TEST_ORIENT	n/a	3	1	WEED	GUARD	WEED	PET	9	[0, 0, 0]	-999	PAL1	2	R1175N
1400.785	0.599	1777163	RETRIEVAL_ORIENT_OFF	n/a	-999	-999	n/a	n/a	n/a	n/a	9	[0, 0, 0]	-999	PAL1	2	R1175N
1401.384	0.001	1777762	TEST_PROBE	n/a	3	1	WEED	GUARD	WEED	PET	9	[0, 0, 0]	-999	PAL1	2	R1175N
1401.385	1.48	1777763	REC_START	n/a	3	-999	n/a	GUARD	n/a	n/a	9	[0, 0, 0]	-999	PAL1	2	R1175N
1402.865	0.656	1779243	REC_EVENT	1480	3	1	WEED	<>	WEED	PET	9	[0, 0, 0]	-999	PAL1	2	R1175N
1403.521	1.881	1779898	REC_EVENT	2136	3	1	WEED	GUARD	WEED	PET	9	[0, 0, 0]	-999	PAL1	2	R1175N
1405.402	1.0	1781779	PROBE_OFF	n/a	3	-999	n/a	n/a	n/a	n/a	9	[0, 0, 0]	-999	PAL1	2	R1175N
1406.402	0.017	1782779	REC_END	n/a	3	-999	n/a	n/a	n/a	n/a	9	[0, 0, 0]	-999	PAL1	2	R1175N
1406.419	0.267	1782796	TEST_ORIENT	n/a	2	2	LAMP	n/a	INK	LAMP	9	[0, 0, 0]	-999	PAL1	2	R1175N
1406.686	0.749	1783063	RETRIEVAL_ORIENT_OFF	n/a	3	-999	n/a	n/a	n/a	n/a	9	[0, 0, 0]	-999	PAL1	2	R1175N
1407.435	0.001	1783812	TEST_PROBE	n/a	2	2	LAMP	n/a	INK	LAMP	9	[0, 0, 0]	-999	PAL1	2	R1175N
1407.436	1.506	1783813	REC_START	n/a	2	-999	n/a	n/a	n/a	n/a	9	[0, 0, 0]	-999	PAL1	2	R1175N
1408.942	2.494	1785319	REC_EVENT	1506	2	2	LAMP	<>	INK	LAMP	9	[0, 0, 0]	-999	PAL1	2	R1175N
1411.436	1.0	1787813	PROBE_OFF	n/a	2	-999	n/a	n/a	n/a	n/a	9	[0, 0, 0]	-999	PAL1	2	R1175N
1412.436	0.017	1788813	REC_END	n/a	2	-999	n/a	n/a	n/a	n/a	9	[0, 0, 0]	-999	PAL1	2	R1175N
1412.453	0.268	1788830	TEST_ORIENT	n/a	1	3	GUARD	GUARD	COUCH	GUARD	9	[0, 0, 0]	-999	PAL1	2	R1175N
1412.721	0.582	1789098	RETRIEVAL_ORIENT_OFF	n/a	2	-999	n/a	n/a	n/a	n/a	9	[0, 0, 0]	-999	PAL1	2	R1175N
1413.303	0.0	1789680	REC_START	n/a	1	-999	n/a	GUARD	n/a	n/a	9	[0, 0, 0]	-999	PAL1	2	R1175N
1413.303	0.788	1789680	TEST_PROBE	n/a	1	3	GUARD	GUARD	COUCH	GUARD	9	[0, 0, 0]	-999	PAL1	2	R1175N
1414.091	0.321	1790468	REC_EVENT	788	1	3	GUARD	<>	COUCH	GUARD	9	[0, 0, 0]	-999	PAL1	2	R1175N
1414.412	0.367	1790789	REC_EVENT	1109	1	3	GUARD	COUCH	COUCH	GUARD	9	[0, 0, 0]	-999	PAL1	2	R1175N
1414.779	2.541	1791156	REC_EVENT	1476	1	3	GUARD	GUARD	COUCH	GUARD	9	[0, 0, 0]	-999	PAL1	2	R1175N
1417.32	1.0	1793697	PROBE_OFF	n/a	1	-999	n/a	n/a	n/a	n/a	9	[0, 0, 0]	-999	PAL1	2	R1175N
1418.32	0.017	1794697	REC_END	n/a	1	-999	n/a	n/a	n/a	n/a	9	[0, 0, 0]	-999	PAL1	2	R1175N
1418.337	0.268	1794714	TEST_ORIENT	n/a	6	4	CORD	CORD	CORD	DOLL	9	[0, 0, 0]	-999	PAL1	2	R1175N
1418.605	0.666	1794982	RETRIEVAL_ORIENT_OFF	n/a	1	-999	n/a	n/a	n/a	n/a	9	[0, 0, 0]	-999	PAL1	2	R1175N
1419.271	0.0	1795648	TEST_PROBE	n/a	6	4	CORD	CORD	CORD	DOLL	9	[0, 0, 0]	-999	PAL1	2	R1175N
1419.271	1.394	1795648	REC_START	n/a	6	-999	n/a	CORD	n/a	n/a	9	[0, 0, 0]	-999	PAL1	2	R1175N
1420.665	2.623	1797042	REC_EVENT	1394	6	4	CORD	CORD	CORD	DOLL	9	[0, 0, 0]	-999	PAL1	2	R1175N
1423.288	0.623	1799665	PROBE_OFF	n/a	6	-999	n/a	n/a	n/a	n/a	9	[0, 0, 0]	-999	PAL1	2	R1175N
1423.911	0.377	1800288	REC_EVENT	4640	6	4	CORD	<>	CORD	DOLL	9	[0, 0, 0]	-999	PAL1	2	R1175N
1424.288	0.017	1800665	REC_END	n/a	6	-999	n/a	n/a	n/a	n/a	9	[0, 0, 0]	-999	PAL1	2	R1175N
1424.305	0.267	1800682	TEST_ORIENT	n/a	5	5	STORM	STORM	STORM	BEE	9	[0, 0, 0]	-999	PAL1	2	R1175N
1424.572	0.616	1800949	RETRIEVAL_ORIENT_OFF	n/a	6	-999	n/a	n/a	n/a	n/a	9	[0, 0, 0]	-999	PAL1	2	R1175N
1425.188	0.001	1801565	TEST_PROBE	n/a	5	5	STORM	STORM	STORM	BEE	9	[0, 0, 0]	-999	PAL1	2	R1175N
1425.189	0.0	1801566	REC_START	n/a	5	-999	n/a	STORM	n/a	n/a	9	[0, 0, 0]	-999	PAL1	2	R1175N
1425.189	0.598	1801566	REC_EVENT	0	5	5	STORM	<>	STORM	BEE	9	[0, 0, 0]	-999	PAL1	2	R1175N
1425.787	3.419	1802164	REC_EVENT	598	5	5	STORM	STORM	STORM	BEE	9	[0, 0, 0]	-999	PAL1	2	R1175N
1429.206	1.0	1805582	PROBE_OFF	n/a	5	-999	n/a	n/a	n/a	n/a	9	[0, 0, 0]	-999	PAL1	2	R1175N
1430.206	0.016	1806582	REC_END	n/a	5	-999	n/a	n/a	n/a	n/a	9	[0, 0, 0]	-999	PAL1	2	R1175N
1430.222	0.267	1806598	TEST_ORIENT	n/a	4	6	KITE	KITE	BAT	KITE	9	[0, 0, 0]	-999	PAL1	2	R1175N
1430.489	0.75	1806865	RETRIEVAL_ORIENT_OFF	n/a	5	-999	n/a	n/a	n/a	n/a	9	[0, 0, 0]	-999	PAL1	2	R1175N
1431.239	0.001	1807615	TEST_PROBE	n/a	4	6	KITE	KITE	BAT	KITE	9	[0, 0, 0]	-999	PAL1	2	R1175N
1431.24	0.737	1807616	REC_START	n/a	4	-999	n/a	KITE	n/a	n/a	9	[0, 0, 0]	-999	PAL1	2	R1175N
1431.977	1.897	1808353	REC_EVENT	737	4	6	KITE	KITE	BAT	KITE	9	[0, 0, 0]	-999	PAL1	2	R1175N
1433.874	1.383	1810250	REC_EVENT	2634	4	6	KITE	<>	BAT	KITE	9	[0, 0, 0]	-999	PAL1	2	R1175N
1435.257	1.0	1811633	PROBE_OFF	n/a	4	-999	n/a	n/a	n/a	n/a	9	[0, 0, 0]	-999	PAL1	2	R1175N
1436.257	0.009	1812633	REC_END	n/a	4	-999	n/a	n/a	n/a	n/a	9	[0, 0, 0]	-999	PAL1	2	R1175N
1436.266	5.676	1812642	RECALL_END	n/a	-999	-999	n/a	n/a	n/a	n/a	9	[0, 0, 0]	-999	PAL1	2	R1175N
1441.942	10.929	1818318	TRIAL	n/a	-999	-999	n/a	n/a	n/a	n/a	10	[0, 0, 0]	-999	PAL1	2	R1175N
1452.871	0.006	1829247	ENCODING_START	n/a	-999	-999	n/a	n/a	n/a	n/a	10	[0, 0, 0]	-999	PAL1	2	R1175N
1452.877	0.266	1829253	STUDY_ORIENT	n/a	1	5	HAWK	HAWK	HAWK	GOLD	10	[0, 0, 0]	-999	PAL1	2	R1175N
1453.143	0.701	1829518	STUDY_ORIENT_OFF	n/a	1	5	HAWK	HAWK	HAWK	GOLD	10	[0, 0, 0]	-999	PAL1	2	R1175N
1453.844	4.017	1830219	STUDY_PAIR	n/a	1	5	HAWK	HAWK	HAWK	GOLD	10	[0, 0, 0]	-999	PAL1	2	R1175N
1457.861	1.017	1834236	PAIR_OFF	n/a	1	5	HAWK	HAWK	HAWK	GOLD	10	[0, 0, 0]	-999	PAL1	2	R1175N
1458.878	0.266	1835253	STUDY_ORIENT	n/a	2	6	PASTE	n/a	PASTE	PIE	10	[0, 0, 0]	-999	PAL1	2	R1175N
1459.144	0.534	1835519	STUDY_ORIENT_OFF	n/a	2	6	PASTE	n/a	PASTE	PIE	10	[0, 0, 0]	-999	PAL1	2	R1175N
1459.678	4.018	1836053	STUDY_PAIR	n/a	2	6	PASTE	n/a	PASTE	PIE	10	[0, 0, 0]	-999	PAL1	2	R1175N
1463.696	1.017	1840071	PAIR_OFF	n/a	2	6	PASTE	n/a	PASTE	PIE	10	[0, 0, 0]	-999	PAL1	2	R1175N
1464.713	0.266	1841088	STUDY_ORIENT	n/a	3	3	STRING	n/a	STRING	FLAME	10	[0, 0, 0]	-999	PAL1	2	R1175N
1464.979	0.533	1841354	STUDY_ORIENT_OFF	n/a	3	3	STRING	n/a	STRING	FLAME	10	[0, 0, 0]	-999	PAL1	2	R1175N
1465.512	4.017	1841887	STUDY_PAIR	n/a	3	3	STRING	n/a	STRING	FLAME	10	[0, 0, 0]	-999	PAL1	2	R1175N
1469.529	1.017	1845904	PAIR_OFF	n/a	3	3	STRING	n/a	STRING	FLAME	10	[0, 0, 0]	-999	PAL1	2	R1175N
1470.546	0.268	1846921	STUDY_ORIENT	n/a	4	4	BRIDGE	SQUARE	BRIDGE	SQUARE	10	[0, 0, 0]	-999	PAL1	2	R1175N
1470.814	0.715	1847189	STUDY_ORIENT_OFF	n/a	4	4	BRIDGE	SQUARE	BRIDGE	SQUARE	10	[0, 0, 0]	-999	PAL1	2	R1175N
1471.529	4.001	1847904	STUDY_PAIR	n/a	4	4	BRIDGE	SQUARE	BRIDGE	SQUARE	10	[0, 0, 0]	-999	PAL1	2	R1175N
1475.53	1.017	1851905	PAIR_OFF	n/a	4	4	BRIDGE	SQUARE	BRIDGE	SQUARE	10	[0, 0, 0]	-999	PAL1	2	R1175N
1476.547	0.268	1852922	STUDY_ORIENT	n/a	5	1	OAR	n/a	OAR	BOOT	10	[0, 0, 0]	-999	PAL1	2	R1175N
1476.815	0.665	1853190	STUDY_ORIENT_OFF	n/a	5	1	OAR	n/a	OAR	BOOT	10	[0, 0, 0]	-999	PAL1	2	R1175N
1477.48	4.001	1853855	STUDY_PAIR	n/a	5	1	OAR	n/a	OAR	BOOT	10	[0, 0, 0]	-999	PAL1	2	R1175N
1481.481	1.017	1857855	PAIR_OFF	n/a	5	1	OAR	n/a	OAR	BOOT	10	[0, 0, 0]	-999	PAL1	2	R1175N
1482.498	0.268	1858872	STUDY_ORIENT	n/a	6	2	CAVE	CAVE	TRUCK	CAVE	10	[0, 0, 0]	-999	PAL1	2	R1175N
1482.766	0.665	1859140	STUDY_ORIENT_OFF	n/a	6	2	CAVE	CAVE	TRUCK	CAVE	10	[0, 0, 0]	-999	PAL1	2	R1175N
1483.431	4.018	1859805	STUDY_PAIR	n/a	6	2	CAVE	CAVE	TRUCK	CAVE	10	[0, 0, 0]	-999	PAL1	2	R1175N
1487.449	1.0	1863823	PAIR_OFF	n/a	6	2	CAVE	CAVE	TRUCK	CAVE	10	[0, 0, 0]	-999	PAL1	2	R1175N
1488.449	0.0	1864823	ENCODING_END	n/a	-999	-999	n/a	n/a	n/a	n/a	10	[0, 0, 0]	-999	PAL1	2	R1175N
1488.449	0.0	1864823	MATH_START	n/a	-999	-999	n/a	n/a	n/a	n/a	10	[0, 0, 0]	-999	PAL1	2	R1175N
1488.449	0.017	1864823	START	n/a	-999	-999	n/a	n/a	n/a	n/a	10	[-999, -999, -999]	-999	PAL1	2	R1175N
1488.466	11.669	1864840	PROB	11646	-999	-999	n/a	n/a	n/a	n/a	10	[8, 2, 4]	14	PAL1	2	R1175N
1500.135	4.718	1876509	PROB	4681	-999	-999	n/a	n/a	n/a	n/a	10	[1, 7, 4]	12	PAL1	2	R1175N
1504.853	6.634	1881226	PROB	6634	-999	-999	n/a	n/a	n/a	n/a	10	[8, 5, 7]	20	PAL1	2	R1175N
1511.487	0.016	1887860	STOP	n/a	-999	-999	n/a	n/a	n/a	n/a	10	[-999, -999, -999]	-999	PAL1	2	R1175N
1511.503	0.0	1887876	MATH_END	n/a	-999	-999	n/a	n/a	n/a	n/a	10	[0, 0, 0]	-999	PAL1	2	R1175N
1511.503	0.016	1887876	RECALL_START	n/a	-999	-999	n/a	n/a	n/a	n/a	10	[0, 0, 0]	-999	PAL1	2	R1175N
1511.519	0.251	1887892	TEST_ORIENT	n/a	5	1	OAR	n/a	OAR	BOOT	10	[0, 0, 0]	-999	PAL1	2	R1175N
1511.77	0.633	1888143	RETRIEVAL_ORIENT_OFF	n/a	-999	-999	n/a	n/a	n/a	n/a	10	[0, 0, 0]	-999	PAL1	2	R1175N
1512.403	0.0	1888776	TEST_PROBE	n/a	5	1	OAR	n/a	OAR	BOOT	10	[0, 0, 0]	-999	PAL1	2	R1175N
1512.403	1.918	1888776	REC_START	n/a	5	-999	n/a	n/a	n/a	n/a	10	[0, 0, 0]	-999	PAL1	2	R1175N
1514.321	2.099	1890694	REC_EVENT	1918	5	1	OAR	<>	OAR	BOOT	10	[0, 0, 0]	-999	PAL1	2	R1175N
1516.42	1.0	1892793	PROBE_OFF	n/a	5	-999	n/a	n/a	n/a	n/a	10	[0, 0, 0]	-999	PAL1	2	R1175N
1517.42	0.017	1893793	REC_END	n/a	5	-999	n/a	n/a	n/a	n/a	10	[0, 0, 0]	-999	PAL1	2	R1175N
1517.437	0.251	1893810	TEST_ORIENT	n/a	6	2	CAVE	CAVE	TRUCK	CAVE	10	[0, 0, 0]	-999	PAL1	2	R1175N
1517.688	0.716	1894061	RETRIEVAL_ORIENT_OFF	n/a	5	-999	n/a	n/a	n/a	n/a	10	[0, 0, 0]	-999	PAL1	2	R1175N
1518.404	0.0	1894777	TEST_PROBE	n/a	6	2	CAVE	CAVE	TRUCK	CAVE	10	[0, 0, 0]	-999	PAL1	2	R1175N
1518.404	1.164	1894777	REC_START	n/a	6	-999	n/a	CAVE	n/a	n/a	10	[0, 0, 0]	-999	PAL1	2	R1175N
1519.568	0.382	1895941	REC_EVENT	1164	6	2	CAVE	TRUCK	TRUCK	CAVE	10	[0, 0, 0]	-999	PAL1	2	R1175N
1519.95	2.471	1896323	REC_EVENT	1546	6	2	CAVE	CAVE	TRUCK	CAVE	10	[0, 0, 0]	-999	PAL1	2	R1175N
1522.421	1.0	1898794	PROBE_OFF	n/a	6	-999	n/a	n/a	n/a	n/a	10	[0, 0, 0]	-999	PAL1	2	R1175N
1523.421	0.017	1899794	REC_END	n/a	6	-999	n/a	n/a	n/a	n/a	10	[0, 0, 0]	-999	PAL1	2	R1175N
1523.438	0.251	1899811	TEST_ORIENT	n/a	3	3	STRING	n/a	STRING	FLAME	10	[0, 0, 0]	-999	PAL1	2	R1175N
1523.689	0.583	1900062	RETRIEVAL_ORIENT_OFF	n/a	6	-999	n/a	n/a	n/a	n/a	10	[0, 0, 0]	-999	PAL1	2	R1175N
1524.272	0.0	1900645	REC_START	n/a	3	-999	n/a	n/a	n/a	n/a	10	[0, 0, 0]	-999	PAL1	2	R1175N
1524.272	1.693	1900645	TEST_PROBE	n/a	3	3	STRING	n/a	STRING	FLAME	10	[0, 0, 0]	-999	PAL1	2	R1175N
1525.965	2.324	1902338	REC_EVENT	1693	3	3	STRING	<>	STRING	FLAME	10	[0, 0, 0]	-999	PAL1	2	R1175N
1528.289	1.0	1904661	PROBE_OFF	n/a	3	-999	n/a	n/a	n/a	n/a	10	[0, 0, 0]	-999	PAL1	2	R1175N
1529.289	0.017	1905661	REC_END	n/a	3	-999	n/a	n/a	n/a	n/a	10	[0, 0, 0]	-999	PAL1	2	R1175N
1529.306	0.268	1905678	TEST_ORIENT	n/a	4	4	BRIDGE	SQUARE	BRIDGE	SQUARE	10	[0, 0, 0]	-999	PAL1	2	R1175N
1529.574	0.582	1905946	RETRIEVAL_ORIENT_OFF	n/a	3	-999	n/a	n/a	n/a	n/a	10	[0, 0, 0]	-999	PAL1	2	R1175N
1530.156	0.0	1906528	TEST_PROBE	n/a	4	4	BRIDGE	SQUARE	BRIDGE	SQUARE	10	[0, 0, 0]	-999	PAL1	2	R1175N
1530.156	1.627	1906528	REC_START	n/a	4	-999	n/a	SQUARE	n/a	n/a	10	[0, 0, 0]	-999	PAL1	2	R1175N
1531.783	0.547	1908155	REC_EVENT	1627	4	4	BRIDGE	BRIDGE	BRIDGE	SQUARE	10	[0, 0, 0]	-999	PAL1	2	R1175N
1532.33	1.843	1908702	REC_EVENT	2174	4	4	BRIDGE	SQUARE	BRIDGE	SQUARE	10	[0, 0, 0]	-999	PAL1	2	R1175N
1534.173	1.0	1910545	PROBE_OFF	n/a	4	-999	n/a	n/a	n/a	n/a	10	[0, 0, 0]	-999	PAL1	2	R1175N
1535.173	0.017	1911545	REC_END	n/a	4	-999	n/a	n/a	n/a	n/a	10	[0, 0, 0]	-999	PAL1	2	R1175N
1535.19	0.267	1911562	TEST_ORIENT	n/a	1	5	HAWK	HAWK	HAWK	GOLD	10	[0, 0, 0]	-999	PAL1	2	R1175N
1535.457	0.634	1911829	RETRIEVAL_ORIENT_OFF	n/a	4	-999	n/a	n/a	n/a	n/a	10	[0, 0, 0]	-999	PAL1	2	R1175N
1536.091	0.001	1912463	TEST_PROBE	n/a	1	5	HAWK	HAWK	HAWK	GOLD	10	[0, 0, 0]	-999	PAL1	2	R1175N
1536.092	1.083	1912464	REC_START	n/a	1	-999	n/a	HAWK	n/a	n/a	10	[0, 0, 0]	-999	PAL1	2	R1175N
1537.175	0.508	1913547	REC_EVENT	1083	1	5	HAWK	GOLD	HAWK	GOLD	10	[0, 0, 0]	-999	PAL1	2	R1175N
1537.683	2.426	1914055	REC_EVENT	1591	1	5	HAWK	HAWK	HAWK	GOLD	10	[0, 0, 0]	-999	PAL1	2	R1175N
1540.109	1.0	1916481	PROBE_OFF	n/a	1	-999	n/a	n/a	n/a	n/a	10	[0, 0, 0]	-999	PAL1	2	R1175N
1541.109	0.016	1917481	REC_END	n/a	1	-999	n/a	n/a	n/a	n/a	10	[0, 0, 0]	-999	PAL1	2	R1175N
1541.125	0.266	1917497	TEST_ORIENT	n/a	2	6	PASTE	n/a	PASTE	PIE	10	[0, 0, 0]	-999	PAL1	2	R1175N
1541.391	0.518	1917763	RETRIEVAL_ORIENT_OFF	n/a	1	-999	n/a	n/a	n/a	n/a	10	[0, 0, 0]	-999	PAL1	2	R1175N
1541.909	0.0	1918281	TEST_PROBE	n/a	2	6	PASTE	n/a	PASTE	PIE	10	[0, 0, 0]	-999	PAL1	2	R1175N
1541.909	1.882	1918281	REC_START	n/a	2	-999	n/a	n/a	n/a	n/a	10	[0, 0, 0]	-999	PAL1	2	R1175N
1543.791	1.0	1920163	REC_EVENT	1882	2	6	PASTE	<>	PASTE	PIE	10	[0, 0, 0]	-999	PAL1	2	R1175N
1544.791	1.135	1921163	REC_EVENT	2882	2	6	PASTE	<>	PASTE	PIE	10	[0, 0, 0]	-999	PAL1	2	R1175N
1545.926	1.0	1922298	PROBE_OFF	n/a	2	-999	n/a	n/a	n/a	n/a	10	[0, 0, 0]	-999	PAL1	2	R1175N
1546.926	0.004	1923298	REC_END	n/a	2	-999	n/a	n/a	n/a	n/a	10	[0, 0, 0]	-999	PAL1	2	R1175N
1546.93	6.246	1923302	RECALL_END	n/a	-999	-999	n/a	n/a	n/a	n/a	10	[0, 0, 0]	-999	PAL1	2	R1175N
1553.176	10.929	1929547	TRIAL	n/a	-999	-999	n/a	n/a	n/a	n/a	11	[0, 0, 0]	-999	PAL1	2	R1175N
1564.105	0.008	1940476	ENCODING_START	n/a	-999	-999	n/a	n/a	n/a	n/a	11	[0, 0, 0]	-999	PAL1	2	R1175N
1564.113	0.265	1940484	STUDY_ORIENT	n/a	1	1	MILK	MILK	MILK	FUR	11	[0, 0, 0]	-999	PAL1	2	R1175N
1564.378	0.735	1940749	STUDY_ORIENT_OFF	n/a	1	1	MILK	MILK	MILK	FUR	11	[0, 0, 0]	-999	PAL1	2	R1175N
1565.113	4.017	1941484	STUDY_PAIR	n/a	1	1	MILK	MILK	MILK	FUR	11	[0, 0, 0]	-999	PAL1	2	R1175N
1569.13	1.016	1945501	PAIR_OFF	n/a	1	1	MILK	MILK	MILK	FUR	11	[0, 0, 0]	-999	PAL1	2	R1175N
1570.146	0.267	1946517	STUDY_ORIENT	n/a	2	4	PRINCE	PRINCE	PRINCE	GLOVE	11	[0, 0, 0]	-999	PAL1	2	R1175N
1570.413	0.717	1946784	STUDY_ORIENT_OFF	n/a	2	4	PRINCE	PRINCE	PRINCE	GLOVE	11	[0, 0, 0]	-999	PAL1	2	R1175N
1571.13	4.001	1947501	STUDY_PAIR	n/a	2	4	PRINCE	PRINCE	PRINCE	GLOVE	11	[0, 0, 0]	-999	PAL1	2	R1175N
1575.131	1.016	1951502	PAIR_OFF	n/a	2	4	PRINCE	PRINCE	PRINCE	GLOVE	11	[0, 0, 0]	-999	PAL1	2	R1175N
1576.147	0.267	1952518	STUDY_ORIENT	n/a	3	3	PIPE	PIPE	PIPE	BAG	11	[0, 0, 0]	-999	PAL1	2	R1175N
1576.414	0.584	1952785	STUDY_ORIENT_OFF	n/a	3	3	PIPE	PIPE	PIPE	BAG	11	[0, 0, 0]	-999	PAL1	2	R1175N
1576.998	4.017	1953368	STUDY_PAIR	n/a	3	3	PIPE	PIPE	PIPE	BAG	11	[0, 0, 0]	-999	PAL1	2	R1175N
1581.015	1.017	1957385	PAIR_OFF	n/a	3	3	PIPE	PIPE	PIPE	BAG	11	[0, 0, 0]	-999	PAL1	2	R1175N
1582.032	0.266	1958402	STUDY_ORIENT	n/a	4	6	LAMB	n/a	LAMB	SHARK	11	[0, 0, 0]	-999	PAL1	2	R1175N
1582.298	0.518	1958668	STUDY_ORIENT_OFF	n/a	4	6	LAMB	n/a	LAMB	SHARK	11	[0, 0, 0]	-999	PAL1	2	R1175N
1582.816	4.017	1959186	STUDY_PAIR	n/a	4	6	LAMB	n/a	LAMB	SHARK	11	[0, 0, 0]	-999	PAL1	2	R1175N
1586.833	1.017	1963203	PAIR_OFF	n/a	4	6	LAMB	n/a	LAMB	SHARK	11	[0, 0, 0]	-999	PAL1	2	R1175N
1587.85	0.267	1964220	STUDY_ORIENT	n/a	5	5	WORM	WORM	HAND	WORM	11	[0, 0, 0]	-999	PAL1	2	R1175N
1588.117	0.55	1964487	STUDY_ORIENT_OFF	n/a	5	5	WORM	WORM	HAND	WORM	11	[0, 0, 0]	-999	PAL1	2	R1175N
1588.667	4.017	1965037	STUDY_PAIR	n/a	5	5	WORM	WORM	HAND	WORM	11	[0, 0, 0]	-999	PAL1	2	R1175N
1592.684	1.017	1969054	PAIR_OFF	n/a	5	5	WORM	WORM	HAND	WORM	11	[0, 0, 0]	-999	PAL1	2	R1175N
1593.701	0.267	1970071	STUDY_ORIENT	n/a	6	2	MAP	n/a	MAP	TAIL	11	[0, 0, 0]	-999	PAL1	2	R1175N
1593.968	0.7	1970338	STUDY_ORIENT_OFF	n/a	6	2	MAP	n/a	MAP	TAIL	11	[0, 0, 0]	-999	PAL1	2	R1175N
1594.668	4.017	1971038	STUDY_PAIR	n/a	6	2	MAP	n/a	MAP	TAIL	11	[0, 0, 0]	-999	PAL1	2	R1175N
1598.685	1.0	1975055	PAIR_OFF	n/a	6	2	MAP	n/a	MAP	TAIL	11	[0, 0, 0]	-999	PAL1	2	R1175N
1599.685	0.0	1976055	ENCODING_END	n/a	-999	-999	n/a	n/a	n/a	n/a	11	[0, 0, 0]	-999	PAL1	2	R1175N
1599.685	0.0	1976055	MATH_START	n/a	-999	-999	n/a	n/a	n/a	n/a	11	[0, 0, 0]	-999	PAL1	2	R1175N
1599.685	0.017	1976055	START	n/a	-999	-999	n/a	n/a	n/a	n/a	11	[-999, -999, -999]	-999	PAL1	2	R1175N
1599.702	5.434	1976072	PROB	5402	-999	-999	n/a	n/a	n/a	n/a	11	[6, 4, 6]	16	PAL1	2	R1175N
1605.136	4.033	1981505	PROB	4006	-999	-999	n/a	n/a	n/a	n/a	11	[7, 5, 7]	19	PAL1	2	R1175N
1609.169	3.334	1985538	PROB	3302	-999	-999	n/a	n/a	n/a	n/a	11	[5, 8, 5]	18	PAL1	2	R1175N
1612.503	8.168	1988872	PROB	8168	-999	-999	n/a	n/a	n/a	n/a	11	[8, 9, 7]	24	PAL1	2	R1175N
1620.671	0.018	1997040	STOP	n/a	-999	-999	n/a	n/a	n/a	n/a	11	[-999, -999, -999]	-999	PAL1	2	R1175N
1620.689	0.0	1997058	MATH_END	n/a	-999	-999	n/a	n/a	n/a	n/a	11	[0, 0, 0]	-999	PAL1	2	R1175N
1620.689	0.016	1997058	RECALL_START	n/a	-999	-999	n/a	n/a	n/a	n/a	11	[0, 0, 0]	-999	PAL1	2	R1175N
1620.705	0.267	1997074	TEST_ORIENT	n/a	1	1	MILK	MILK	MILK	FUR	11	[0, 0, 0]	-999	PAL1	2	R1175N
1620.972	0.617	1997341	RETRIEVAL_ORIENT_OFF	n/a	-999	-999	n/a	n/a	n/a	n/a	11	[0, 0, 0]	-999	PAL1	2	R1175N
1621.589	0.0	1997958	REC_START	n/a	1	-999	n/a	MILK	n/a	n/a	11	[0, 0, 0]	-999	PAL1	2	R1175N
1621.589	1.165	1997958	TEST_PROBE	n/a	1	1	MILK	MILK	MILK	FUR	11	[0, 0, 0]	-999	PAL1	2	R1175N
1622.754	1.023	1999123	REC_EVENT	1165	1	1	MILK	MILK	MILK	FUR	11	[0, 0, 0]	-999	PAL1	2	R1175N
1623.777	1.829	2000146	REC_EVENT	2188	1	1	MILK	<>	MILK	FUR	11	[0, 0, 0]	-999	PAL1	2	R1175N
1625.606	1.0	2001975	PROBE_OFF	n/a	1	-999	n/a	n/a	n/a	n/a	11	[0, 0, 0]	-999	PAL1	2	R1175N
1626.606	0.017	2002974	REC_END	n/a	1	-999	n/a	n/a	n/a	n/a	11	[0, 0, 0]	-999	PAL1	2	R1175N
1626.623	0.267	2002991	TEST_ORIENT	n/a	6	2	MAP	n/a	MAP	TAIL	11	[0, 0, 0]	-999	PAL1	2	R1175N
1626.89	0.532	2003258	RETRIEVAL_ORIENT_OFF	n/a	1	-999	n/a	n/a	n/a	n/a	11	[0, 0, 0]	-999	PAL1	2	R1175N
1627.422	0.001	2003790	TEST_PROBE	n/a	6	2	MAP	n/a	MAP	TAIL	11	[0, 0, 0]	-999	PAL1	2	R1175N
1627.423	0.822	2003791	REC_START	n/a	6	-999	n/a	n/a	n/a	n/a	11	[0, 0, 0]	-999	PAL1	2	R1175N
1628.245	0.387	2004613	REC_EVENT	822	6	2	MAP	<>	MAP	TAIL	11	[0, 0, 0]	-999	PAL1	2	R1175N
1628.632	0.489	2005000	REC_EVENT	1209	6	2	MAP	<>	MAP	TAIL	11	[0, 0, 0]	-999	PAL1	2	R1175N
1629.121	2.302	2005489	REC_EVENT	1698	6	2	MAP	<>	MAP	TAIL	11	[0, 0, 0]	-999	PAL1	2	R1175N
1631.423	1.0	2007791	PROBE_OFF	n/a	6	-999	n/a	n/a	n/a	n/a	11	[0, 0, 0]	-999	PAL1	2	R1175N
1632.423	0.017	2008791	REC_END	n/a	6	-999	n/a	n/a	n/a	n/a	11	[0, 0, 0]	-999	PAL1	2	R1175N
1632.44	0.267	2008808	TEST_ORIENT	n/a	3	3	PIPE	PIPE	PIPE	BAG	11	[0, 0, 0]	-999	PAL1	2	R1175N
1632.707	0.583	2009075	RETRIEVAL_ORIENT_OFF	n/a	6	-999	n/a	n/a	n/a	n/a	11	[0, 0, 0]	-999	PAL1	2	R1175N
1633.29	0.0	2009658	TEST_PROBE	n/a	3	3	PIPE	PIPE	PIPE	BAG	11	[0, 0, 0]	-999	PAL1	2	R1175N
1633.29	1.062	2009658	REC_START	n/a	3	-999	n/a	PIPE	n/a	n/a	11	[0, 0, 0]	-999	PAL1	2	R1175N
1634.352	0.497	2010720	REC_EVENT	1062	3	3	PIPE	BAG	PIPE	BAG	11	[0, 0, 0]	-999	PAL1	2	R1175N
1634.849	2.458	2011217	REC_EVENT	1559	3	3	PIPE	PIPE	PIPE	BAG	11	[0, 0, 0]	-999	PAL1	2	R1175N
1637.307	1.0	2013675	PROBE_OFF	n/a	3	-999	n/a	n/a	n/a	n/a	11	[0, 0, 0]	-999	PAL1	2	R1175N
1638.307	0.017	2014675	REC_END	n/a	3	-999	n/a	n/a	n/a	n/a	11	[0, 0, 0]	-999	PAL1	2	R1175N
1638.324	0.251	2014692	TEST_ORIENT	n/a	2	4	PRINCE	PRINCE	PRINCE	GLOVE	11	[0, 0, 0]	-999	PAL1	2	R1175N
1638.575	0.749	2014943	RETRIEVAL_ORIENT_OFF	n/a	3	-999	n/a	n/a	n/a	n/a	11	[0, 0, 0]	-999	PAL1	2	R1175N
1639.324	0.001	2015692	TEST_PROBE	n/a	2	4	PRINCE	PRINCE	PRINCE	GLOVE	11	[0, 0, 0]	-999	PAL1	2	R1175N
1639.325	0.895	2015693	REC_START	n/a	2	-999	n/a	PRINCE	n/a	n/a	11	[0, 0, 0]	-999	PAL1	2	R1175N
1640.22	2.796	2016588	REC_EVENT	895	2	4	PRINCE	PRINCE	PRINCE	GLOVE	11	[0, 0, 0]	-999	PAL1	2	R1175N
1643.016	0.326	2019384	REC_EVENT	3691	2	4	PRINCE	<>	PRINCE	GLOVE	11	[0, 0, 0]	-999	PAL1	2	R1175N
1643.342	1.009	2019710	PROBE_OFF	n/a	2	-999	n/a	n/a	n/a	n/a	11	[0, 0, 0]	-999	PAL1	2	R1175N
1644.351	0.008	2020719	REC_END	n/a	2	-999	n/a	n/a	n/a	n/a	11	[0, 0, 0]	-999	PAL1	2	R1175N
1644.359	0.267	2020727	TEST_ORIENT	n/a	5	5	WORM	WORM	HAND	WORM	11	[0, 0, 0]	-999	PAL1	2	R1175N
1644.626	0.749	2020994	RETRIEVAL_ORIENT_OFF	n/a	2	-999	n/a	n/a	n/a	n/a	11	[0, 0, 0]	-999	PAL1	2	R1175N
1645.375	0.001	2021743	TEST_PROBE	n/a	5	5	WORM	WORM	HAND	WORM	11	[0, 0, 0]	-999	PAL1	2	R1175N
1645.376	1.774	2021744	REC_START	n/a	5	-999	n/a	WORM	n/a	n/a	11	[0, 0, 0]	-999	PAL1	2	R1175N
1647.15	1.796	2023518	REC_EVENT	1774	5	5	WORM	<>	HAND	WORM	11	[0, 0, 0]	-999	PAL1	2	R1175N
1648.946	0.447	2025314	REC_EVENT	3570	5	5	WORM	WORM	HAND	WORM	11	[0, 0, 0]	-999	PAL1	2	R1175N
1649.393	0.216	2025761	PROBE_OFF	n/a	5	-999	n/a	n/a	n/a	n/a	11	[0, 0, 0]	-999	PAL1	2	R1175N
1649.609	0.784	2025977	REC_EVENT	4233	5	5	WORM	<>	HAND	WORM	11	[0, 0, 0]	-999	PAL1	2	R1175N
1650.393	0.017	2026761	REC_END	n/a	5	-999	n/a	n/a	n/a	n/a	11	[0, 0, 0]	-999	PAL1	2	R1175N
1650.41	0.267	2026778	TEST_ORIENT	n/a	4	6	LAMB	n/a	LAMB	SHARK	11	[0, 0, 0]	-999	PAL1	2	R1175N
1650.677	0.733	2027045	RETRIEVAL_ORIENT_OFF	n/a	5	-999	n/a	n/a	n/a	n/a	11	[0, 0, 0]	-999	PAL1	2	R1175N
1651.41	0.0	2027777	TEST_PROBE	n/a	4	6	LAMB	n/a	LAMB	SHARK	11	[0, 0, 0]	-999	PAL1	2	R1175N
1651.41	1.562	2027777	REC_START	n/a	4	-999	n/a	n/a	n/a	n/a	11	[0, 0, 0]	-999	PAL1	2	R1175N
1652.972	1.0	2029339	REC_EVENT	1562	4	6	LAMB	<>	LAMB	SHARK	11	[0, 0, 0]	-999	PAL1	2	R1175N
1653.972	1.455	2030339	REC_EVENT	2562	4	6	LAMB	<>	LAMB	SHARK	11	[0, 0, 0]	-999	PAL1	2	R1175N
1655.427	0.058	2031794	PROBE_OFF	n/a	4	-999	n/a	n/a	n/a	n/a	11	[0, 0, 0]	-999	PAL1	2	R1175N
1655.485	0.942	2031852	REC_EVENT	4075	4	6	LAMB	<>	LAMB	SHARK	11	[0, 0, 0]	-999	PAL1	2	R1175N
1656.427	0.003	2032794	REC_END	n/a	4	-999	n/a	n/a	n/a	n/a	11	[0, 0, 0]	-999	PAL1	2	R1175N
1656.43	5.449	2032797	RECALL_END	n/a	-999	-999	n/a	n/a	n/a	n/a	11	[0, 0, 0]	-999	PAL1	2	R1175N
1661.879	10.928	2038246	TRIAL	n/a	-999	-999	n/a	n/a	n/a	n/a	12	[0, 0, 0]	-999	PAL1	2	R1175N
1672.807	0.007	2049174	ENCODING_START	n/a	-999	-999	n/a	n/a	n/a	n/a	12	[0, 0, 0]	-999	PAL1	2	R1175N
1672.814	0.267	2049181	STUDY_ORIENT	n/a	1	5	CANE	CANE	CANE	SHOE	12	[0, 0, 0]	-999	PAL1	2	R1175N
1673.081	0.667	2049448	STUDY_ORIENT_OFF	n/a	1	5	CANE	CANE	CANE	SHOE	12	[0, 0, 0]	-999	PAL1	2	R1175N
1673.748	4.017	2050115	STUDY_PAIR	n/a	1	5	CANE	CANE	CANE	SHOE	12	[0, 0, 0]	-999	PAL1	2	R1175N
1677.765	1.017	2054131	PAIR_OFF	n/a	1	5	CANE	CANE	CANE	SHOE	12	[0, 0, 0]	-999	PAL1	2	R1175N
1678.782	0.267	2055148	STUDY_ORIENT	n/a	2	4	JEEP	JEEP	GLASS	JEEP	12	[0, 0, 0]	-999	PAL1	2	R1175N
1679.049	0.666	2055415	STUDY_ORIENT_OFF	n/a	2	4	JEEP	JEEP	GLASS	JEEP	12	[0, 0, 0]	-999	PAL1	2	R1175N
1679.715	4.018	2056081	STUDY_PAIR	n/a	2	4	JEEP	JEEP	GLASS	JEEP	12	[0, 0, 0]	-999	PAL1	2	R1175N
1683.733	1.017	2060099	PAIR_OFF	n/a	2	4	JEEP	JEEP	GLASS	JEEP	12	[0, 0, 0]	-999	PAL1	2	R1175N
1684.75	0.266	2061116	STUDY_ORIENT	n/a	3	3	CHALK	CHALK	TOAST	CHALK	12	[0, 0, 0]	-999	PAL1	2	R1175N
1685.016	0.734	2061382	STUDY_ORIENT_OFF	n/a	3	3	CHALK	CHALK	TOAST	CHALK	12	[0, 0, 0]	-999	PAL1	2	R1175N
1685.75	4.017	2062116	STUDY_PAIR	n/a	3	3	CHALK	CHALK	TOAST	CHALK	12	[0, 0, 0]	-999	PAL1	2	R1175N
1689.767	1.017	2066133	PAIR_OFF	n/a	3	3	CHALK	CHALK	TOAST	CHALK	12	[0, 0, 0]	-999	PAL1	2	R1175N
1690.784	0.267	2067150	STUDY_ORIENT	n/a	4	6	BREAD	n/a	BREAD	VINE	12	[0, 0, 0]	-999	PAL1	2	R1175N
1691.051	0.65	2067417	STUDY_ORIENT_OFF	n/a	4	6	BREAD	n/a	BREAD	VINE	12	[0, 0, 0]	-999	PAL1	2	R1175N
1691.701	4.017	2068067	STUDY_PAIR	n/a	4	6	BREAD	n/a	BREAD	VINE	12	[0, 0, 0]	-999	PAL1	2	R1175N
1695.718	1.017	2072084	PAIR_OFF	n/a	4	6	BREAD	n/a	BREAD	VINE	12	[0, 0, 0]	-999	PAL1	2	R1175N
1696.735	0.267	2073101	STUDY_ORIENT	n/a	5	1	MOON	n/a	HORN	MOON	12	[0, 0, 0]	-999	PAL1	2	R1175N
1697.002	0.7	2073368	STUDY_ORIENT_OFF	n/a	5	1	MOON	n/a	HORN	MOON	12	[0, 0, 0]	-999	PAL1	2	R1175N
1697.702	4.017	2074068	STUDY_PAIR	n/a	5	1	MOON	n/a	HORN	MOON	12	[0, 0, 0]	-999	PAL1	2	R1175N
1701.719	1.017	2078084	PAIR_OFF	n/a	5	1	MOON	n/a	HORN	MOON	12	[0, 0, 0]	-999	PAL1	2	R1175N
1702.736	0.267	2079101	STUDY_ORIENT	n/a	6	2	PEARL	n/a	PEARL	LAND	12	[0, 0, 0]	-999	PAL1	2	R1175N
1703.003	0.683	2079368	STUDY_ORIENT_OFF	n/a	6	2	PEARL	n/a	PEARL	LAND	12	[0, 0, 0]	-999	PAL1	2	R1175N
1703.686	4.017	2080051	STUDY_PAIR	n/a	6	2	PEARL	n/a	PEARL	LAND	12	[0, 0, 0]	-999	PAL1	2	R1175N
1707.703	1.001	2084068	PAIR_OFF	n/a	6	2	PEARL	n/a	PEARL	LAND	12	[0, 0, 0]	-999	PAL1	2	R1175N
1708.704	0.0	2085069	ENCODING_END	n/a	-999	-999	n/a	n/a	n/a	n/a	12	[0, 0, 0]	-999	PAL1	2	R1175N
1708.704	0.0	2085069	MATH_START	n/a	-999	-999	n/a	n/a	n/a	n/a	12	[0, 0, 0]	-999	PAL1	2	R1175N
1708.704	0.016	2085069	START	n/a	-999	-999	n/a	n/a	n/a	n/a	12	[-999, -999, -999]	-999	PAL1	2	R1175N
1708.72	12.186	2085085	PROB	12160	-999	-999	n/a	n/a	n/a	n/a	12	[5, 9, 6]	20	PAL1	2	R1175N
1720.906	4.017	2097271	PROB	3982	-999	-999	n/a	n/a	n/a	n/a	12	[1, 1, 3]	5	PAL1	2	R1175N
1724.923	5.235	2101288	PROB	5235	-999	-999	n/a	n/a	n/a	n/a	12	[8, 8, 5]	21	PAL1	2	R1175N
1730.158	0.015	2106522	STOP	n/a	-999	-999	n/a	n/a	n/a	n/a	12	[-999, -999, -999]	-999	PAL1	2	R1175N
1730.173	0.0	2106537	MATH_END	n/a	-999	-999	n/a	n/a	n/a	n/a	12	[0, 0, 0]	-999	PAL1	2	R1175N
1730.173	0.017	2106537	RECALL_START	n/a	-999	-999	n/a	n/a	n/a	n/a	12	[0, 0, 0]	-999	PAL1	2	R1175N
1730.19	0.266	2106554	TEST_ORIENT	n/a	5	1	MOON	n/a	HORN	MOON	12	[0, 0, 0]	-999	PAL1	2	R1175N
1730.456	0.734	2106820	RETRIEVAL_ORIENT_OFF	n/a	-999	-999	n/a	n/a	n/a	n/a	12	[0, 0, 0]	-999	PAL1	2	R1175N
1731.19	0.0	2107554	REC_START	n/a	5	-999	n/a	n/a	n/a	n/a	12	[0, 0, 0]	-999	PAL1	2	R1175N
1731.19	1.959	2107554	TEST_PROBE	n/a	5	1	MOON	n/a	HORN	MOON	12	[0, 0, 0]	-999	PAL1	2	R1175N
1733.149	1.0	2109513	REC_EVENT	1959	5	1	MOON	<>	HORN	MOON	12	[0, 0, 0]	-999	PAL1	2	R1175N
1734.149	1.058	2110513	REC_EVENT	2959	5	1	MOON	<>	HORN	MOON	12	[0, 0, 0]	-999	PAL1	2	R1175N
1735.207	1.0	2111571	PROBE_OFF	n/a	5	-999	n/a	n/a	n/a	n/a	12	[0, 0, 0]	-999	PAL1	2	R1175N
1736.207	0.017	2112571	REC_END	n/a	5	-999	n/a	n/a	n/a	n/a	12	[0, 0, 0]	-999	PAL1	2	R1175N
1736.224	0.267	2112588	TEST_ORIENT	n/a	6	2	PEARL	n/a	PEARL	LAND	12	[0, 0, 0]	-999	PAL1	2	R1175N
1736.491	0.567	2112855	RETRIEVAL_ORIENT_OFF	n/a	5	-999	n/a	n/a	n/a	n/a	12	[0, 0, 0]	-999	PAL1	2	R1175N
1737.058	0.001	2113422	TEST_PROBE	n/a	6	2	PEARL	n/a	PEARL	LAND	12	[0, 0, 0]	-999	PAL1	2	R1175N
1737.059	1.082	2113423	REC_START	n/a	6	-999	n/a	n/a	n/a	n/a	12	[0, 0, 0]	-999	PAL1	2	R1175N
1738.141	2.918	2114505	REC_EVENT	1082	6	2	PEARL	<>	PEARL	LAND	12	[0, 0, 0]	-999	PAL1	2	R1175N
1741.059	1.0	2117423	PROBE_OFF	n/a	6	-999	n/a	n/a	n/a	n/a	12	[0, 0, 0]	-999	PAL1	2	R1175N
1742.059	0.017	2118423	REC_END	n/a	6	-999	n/a	n/a	n/a	n/a	12	[0, 0, 0]	-999	PAL1	2	R1175N
1742.076	0.266	2118440	TEST_ORIENT	n/a	3	3	CHALK	CHALK	TOAST	CHALK	12	[0, 0, 0]	-999	PAL1	2	R1175N
1742.342	0.617	2118706	RETRIEVAL_ORIENT_OFF	n/a	6	-999	n/a	n/a	n/a	n/a	12	[0, 0, 0]	-999	PAL1	2	R1175N
1742.959	0.001	2119323	TEST_PROBE	n/a	3	3	CHALK	CHALK	TOAST	CHALK	12	[0, 0, 0]	-999	PAL1	2	R1175N
1742.96	0.726	2119324	REC_START	n/a	3	-999	n/a	CHALK	n/a	n/a	12	[0, 0, 0]	-999	PAL1	2	R1175N
1743.686	0.866	2120050	REC_EVENT	726	3	3	CHALK	CHALK	TOAST	CHALK	12	[0, 0, 0]	-999	PAL1	2	R1175N
1744.552	2.008	2120916	REC_EVENT	1592	3	3	CHALK	<>	TOAST	CHALK	12	[0, 0, 0]	-999	PAL1	2	R1175N
1746.56	0.417	2122924	REC_EVENT	3600	3	3	CHALK	<>	TOAST	CHALK	12	[0, 0, 0]	-999	PAL1	2	R1175N
1746.977	1.0	2123341	PROBE_OFF	n/a	3	-999	n/a	n/a	n/a	n/a	12	[0, 0, 0]	-999	PAL1	2	R1175N
1747.977	0.017	2124341	REC_END	n/a	3	-999	n/a	n/a	n/a	n/a	12	[0, 0, 0]	-999	PAL1	2	R1175N
1747.994	0.265	2124358	TEST_ORIENT	n/a	2	4	JEEP	JEEP	GLASS	JEEP	12	[0, 0, 0]	-999	PAL1	2	R1175N
1748.259	0.668	2124623	RETRIEVAL_ORIENT_OFF	n/a	3	-999	n/a	n/a	n/a	n/a	12	[0, 0, 0]	-999	PAL1	2	R1175N
1748.927	0.0	2125291	TEST_PROBE	n/a	2	4	JEEP	JEEP	GLASS	JEEP	12	[0, 0, 0]	-999	PAL1	2	R1175N
1748.927	1.255	2125291	REC_START	n/a	2	-999	n/a	JEEP	n/a	n/a	12	[0, 0, 0]	-999	PAL1	2	R1175N
1750.182	0.589	2126546	REC_EVENT	1255	2	4	JEEP	GLASS	GLASS	JEEP	12	[0, 0, 0]	-999	PAL1	2	R1175N
1750.771	2.173	2127134	REC_EVENT	1844	2	4	JEEP	JEEP	GLASS	JEEP	12	[0, 0, 0]	-999	PAL1	2	R1175N
1752.944	1.0	2129307	PROBE_OFF	n/a	2	-999	n/a	n/a	n/a	n/a	12	[0, 0, 0]	-999	PAL1	2	R1175N
