onset	duration	sample	trial_type	response_time	stim_file	serialpos	probepos	probe_word	resp_word	study_1	study_2	list	test	answer	experiment	session	subject
0.0	0.0	9054	INSTRUCT_VIDEO_ON	n/a	n/a	-999	-999	n/a	n/a	n/a	n/a	-999	[0, 0, 0]	-999	PAL1	1	R1276D
0.0	5.538	9054	INSTRUCT_VIDEO_OFF	n/a	n/a	-999	-999	n/a	n/a	n/a	n/a	-999	[0, 0, 0]	-999	PAL1	1	R1276D
5.538	0.0	14592	SESS_START	n/a	n/a	-999	-999	n/a	n/a	n/a	n/a	-999	[0, 0, 0]	-999	PAL1	1	R1276D
5.538	10.0	14592	MIC_TEST	n/a	n/a	-999	-999	n/a	n/a	n/a	n/a	-999	[0, 0, 0]	-999	PAL1	1	R1276D
15.538	34.482	24591	PRACTICE_TRIAL	n/a	n/a	-999	-999	n/a	n/a	n/a	n/a	-1	[0, 0, 0]	-999	PAL1	1	R1276D
50.02	0.005	59071	ENCODING_START	n/a	n/a	-999	-999	n/a	n/a	n/a	n/a	-1	[0, 0, 0]	-999	PAL1	1	R1276D
50.025	0.267	59076	PRACTICE_ORIENT	n/a	n/a	1	5	RHINO	IRON	RHINO	IRON	-1	[0, 0, 0]	-999	PAL1	1	R1276D
50.292	0.6	59343	PRACTICE_ORIENT_OFF	n/a	n/a	1	5	RHINO	IRON	RHINO	IRON	-1	[0, 0, 0]	-999	PAL1	1	R1276D
50.892	4.0	59943	PRACTICE_PAIR	n/a	n/a	1	5	RHINO	IRON	RHINO	IRON	-1	[0, 0, 0]	-999	PAL1	1	R1276D
54.91	1.017	63961	PRACTICE_PAIR_OFF	n/a	n/a	1	5	RHINO	IRON	RHINO	IRON	-1	[0, 0, 0]	-999	PAL1	1	R1276D
55.927	0.266	64978	PRACTICE_ORIENT	n/a	n/a	2	4	ATTIC	n/a	CAMEL	ATTIC	-1	[0, 0, 0]	-999	PAL1	1	R1276D
56.193	0.549	65244	PRACTICE_ORIENT_OFF	n/a	n/a	2	4	ATTIC	n/a	CAMEL	ATTIC	-1	[0, 0, 0]	-999	PAL1	1	R1276D
56.742	4.0	65793	PRACTICE_PAIR	n/a	n/a	2	4	ATTIC	n/a	CAMEL	ATTIC	-1	[0, 0, 0]	-999	PAL1	1	R1276D
60.76	1.017	69811	PRACTICE_PAIR_OFF	n/a	n/a	2	4	ATTIC	n/a	CAMEL	ATTIC	-1	[0, 0, 0]	-999	PAL1	1	R1276D
61.777	0.267	70828	PRACTICE_ORIENT	n/a	n/a	3	3	BEAM	RING	RING	BEAM	-1	[0, 0, 0]	-999	PAL1	1	R1276D
62.044	0.533	71095	PRACTICE_ORIENT_OFF	n/a	n/a	3	3	BEAM	RING	RING	BEAM	-1	[0, 0, 0]	-999	PAL1	1	R1276D
62.577	4.0	71628	PRACTICE_PAIR	n/a	n/a	3	3	BEAM	RING	RING	BEAM	-1	[0, 0, 0]	-999	PAL1	1	R1276D
66.594	1.017	75645	PRACTICE_PAIR_OFF	n/a	n/a	3	3	BEAM	RING	RING	BEAM	-1	[0, 0, 0]	-999	PAL1	1	R1276D
67.611	0.268	76662	PRACTICE_ORIENT	n/a	n/a	4	6	COTTON	WAGON	COTTON	WAGON	-1	[0, 0, 0]	-999	PAL1	1	R1276D
67.879	0.749	76930	PRACTICE_ORIENT_OFF	n/a	n/a	4	6	COTTON	WAGON	COTTON	WAGON	-1	[0, 0, 0]	-999	PAL1	1	R1276D
68.628	4.0	77678	PRACTICE_PAIR	n/a	n/a	4	6	COTTON	WAGON	COTTON	WAGON	-1	[0, 0, 0]	-999	PAL1	1	R1276D
72.645	1.017	81695	PRACTICE_PAIR_OFF	n/a	n/a	4	6	COTTON	WAGON	COTTON	WAGON	-1	[0, 0, 0]	-999	PAL1	1	R1276D
73.662	0.268	82712	PRACTICE_ORIENT	n/a	n/a	5	1	TONGUE	FLOOD	TONGUE	FLOOD	-1	[0, 0, 0]	-999	PAL1	1	R1276D
73.93	0.682	82980	PRACTICE_ORIENT_OFF	n/a	n/a	5	1	TONGUE	FLOOD	TONGUE	FLOOD	-1	[0, 0, 0]	-999	PAL1	1	R1276D
74.612	4.0	83662	PRACTICE_PAIR	n/a	n/a	5	1	TONGUE	FLOOD	TONGUE	FLOOD	-1	[0, 0, 0]	-999	PAL1	1	R1276D
78.63	1.017	87680	PRACTICE_PAIR_OFF	n/a	n/a	5	1	TONGUE	FLOOD	TONGUE	FLOOD	-1	[0, 0, 0]	-999	PAL1	1	R1276D
79.647	0.267	88697	PRACTICE_ORIENT	n/a	n/a	6	2	CHEST	WATCH	WATCH	CHEST	-1	[0, 0, 0]	-999	PAL1	1	R1276D
79.914	0.666	88964	PRACTICE_ORIENT_OFF	n/a	n/a	6	2	CHEST	WATCH	WATCH	CHEST	-1	[0, 0, 0]	-999	PAL1	1	R1276D
80.58	4.0	89630	PRACTICE_PAIR	n/a	n/a	6	2	CHEST	WATCH	WATCH	CHEST	-1	[0, 0, 0]	-999	PAL1	1	R1276D
84.597	1.0	93647	PRACTICE_PAIR_OFF	n/a	n/a	6	2	CHEST	WATCH	WATCH	CHEST	-1	[0, 0, 0]	-999	PAL1	1	R1276D
85.597	0.0	94647	ENCODING_END	n/a	n/a	-999	-999	n/a	n/a	n/a	n/a	-1	[0, 0, 0]	-999	PAL1	1	R1276D
85.597	0.001	94647	MATH_START	n/a	n/a	-999	-999	n/a	n/a	n/a	n/a	-1	[0, 0, 0]	-999	PAL1	1	R1276D
85.598	0.016	94648	START	n/a	n/a	-999	-999	n/a	n/a	n/a	n/a	1	[-999, -999, -999]	-999	PAL1	1	R1276D
85.614	4.369	94664	PROB	4.347	n/a	-999	-999	n/a	n/a	n/a	n/a	1	[1, 2, 5]	8	PAL1	1	R1276D
89.983	4.766	99032	PROB	4.728	n/a	-999	-999	n/a	n/a	n/a	n/a	1	[4, 7, 7]	18	PAL1	1	R1276D
94.749	3.452	103798	PROB	3.427	n/a	-999	-999	n/a	n/a	n/a	n/a	1	[9, 6, 3]	18	PAL1	1	R1276D
98.201	1.984	107250	PROB	1.952	n/a	-999	-999	n/a	n/a	n/a	n/a	1	[3, 7, 1]	11	PAL1	1	R1276D
100.185	2.684	109234	PROB	2.646	n/a	-999	-999	n/a	n/a	n/a	n/a	1	[3, 1, 6]	10	PAL1	1	R1276D
102.869	1.5	111918	PROB	1.468	n/a	-999	-999	n/a	n/a	n/a	n/a	1	[5, 5, 1]	11	PAL1	1	R1276D
104.369	3.76	113417	PROB	3.76	n/a	-999	-999	n/a	n/a	n/a	n/a	1	[2, 3, 6]	11	PAL1	1	R1276D
108.129	0.007	117177	STOP	n/a	n/a	-999	-999	n/a	n/a	n/a	n/a	1	[-999, -999, -999]	-999	PAL1	1	R1276D
108.136	0.0	117184	RECALL_START	n/a	n/a	-999	-999	n/a	n/a	n/a	n/a	-1	[0, 0, 0]	-999	PAL1	1	R1276D
108.136	0.017	117184	MATH_END	n/a	n/a	-999	-999	n/a	n/a	n/a	n/a	-1	[0, 0, 0]	-999	PAL1	1	R1276D
108.153	0.267	117201	PRACTICE_RETRIEVAL_ORIENT	n/a	n/a	5	1	TONGUE	FLOOD	TONGUE	FLOOD	-1	[0, 0, 0]	-999	PAL1	1	R1276D
108.42	0.716	117468	PRACTICE_RETRIEVAL_ORIENT_OFF	n/a	n/a	5	1	TONGUE	FLOOD	TONGUE	FLOOD	-1	[0, 0, 0]	-999	PAL1	1	R1276D
109.136	4.0	118184	PRACTICE_PROBE	n/a	n/a	5	1	TONGUE	FLOOD	TONGUE	FLOOD	-1	[0, 0, 0]	-999	PAL1	1	R1276D
109.137	1.161	118185	REC_START	n/a	n/a	5	-999	n/a	FLOOD	n/a	n/a	-1	[0, 0, 0]	-999	PAL1	1	R1276D
110.298	2.856	119346	REC_EVENT	1.161	n/a	5	1	TONGUE	FLOOD	TONGUE	FLOOD	-1	[0, 0, 0]	-999	PAL1	1	R1276D
113.154	1.0	122202	PROBE_OFF	n/a	n/a	5	-999	n/a	n/a	n/a	n/a	-1	[0, 0, 0]	-999	PAL1	1	R1276D
114.154	0.017	123202	REC_END	n/a	n/a	5	-999	n/a	n/a	n/a	n/a	-1	[0, 0, 0]	-999	PAL1	1	R1276D
114.171	0.266	123219	PRACTICE_RETRIEVAL_ORIENT	n/a	n/a	6	2	CHEST	WATCH	WATCH	CHEST	-1	[0, 0, 0]	-999	PAL1	1	R1276D
114.437	0.667	123485	PRACTICE_RETRIEVAL_ORIENT_OFF	n/a	n/a	6	2	CHEST	WATCH	WATCH	CHEST	-1	[0, 0, 0]	-999	PAL1	1	R1276D
115.104	4.0	124152	PRACTICE_PROBE	n/a	n/a	6	2	CHEST	WATCH	WATCH	CHEST	-1	[0, 0, 0]	-999	PAL1	1	R1276D
115.105	3.434	124153	REC_START	n/a	n/a	6	-999	n/a	WATCH	n/a	n/a	-1	[0, 0, 0]	-999	PAL1	1	R1276D
118.539	0.582	127587	REC_EVENT	3.434	n/a	6	2	CHEST	WATCH	WATCH	CHEST	-1	[0, 0, 0]	-999	PAL1	1	R1276D
119.121	1.0	128169	PROBE_OFF	n/a	n/a	6	-999	n/a	n/a	n/a	n/a	-1	[0, 0, 0]	-999	PAL1	1	R1276D
120.121	0.017	129169	REC_END	n/a	n/a	6	-999	n/a	n/a	n/a	n/a	-1	[0, 0, 0]	-999	PAL1	1	R1276D
120.138	0.267	129186	PRACTICE_RETRIEVAL_ORIENT	n/a	n/a	3	3	BEAM	RING	RING	BEAM	-1	[0, 0, 0]	-999	PAL1	1	R1276D
120.405	0.717	129453	PRACTICE_RETRIEVAL_ORIENT_OFF	n/a	n/a	3	3	BEAM	RING	RING	BEAM	-1	[0, 0, 0]	-999	PAL1	1	R1276D
121.122	0.0	130170	REC_START	n/a	n/a	3	-999	n/a	RING	n/a	n/a	-1	[0, 0, 0]	-999	PAL1	1	R1276D
121.122	4.0	130170	PRACTICE_PROBE	n/a	n/a	3	3	BEAM	RING	RING	BEAM	-1	[0, 0, 0]	-999	PAL1	1	R1276D
122.34	2.799	131387	REC_EVENT	1.218	n/a	3	3	BEAM	RING	RING	BEAM	-1	[0, 0, 0]	-999	PAL1	1	R1276D
125.139	1.0	134186	PROBE_OFF	n/a	n/a	3	-999	n/a	n/a	n/a	n/a	-1	[0, 0, 0]	-999	PAL1	1	R1276D
126.139	0.017	135186	REC_END	n/a	n/a	3	-999	n/a	n/a	n/a	n/a	-1	[0, 0, 0]	-999	PAL1	1	R1276D
126.156	0.267	135203	PRACTICE_RETRIEVAL_ORIENT	n/a	n/a	2	4	ATTIC	n/a	CAMEL	ATTIC	-1	[0, 0, 0]	-999	PAL1	1	R1276D
126.423	0.55	135470	PRACTICE_RETRIEVAL_ORIENT_OFF	n/a	n/a	2	4	ATTIC	n/a	CAMEL	ATTIC	-1	[0, 0, 0]	-999	PAL1	1	R1276D
126.973	4.0	136020	PRACTICE_PROBE	n/a	n/a	2	4	ATTIC	n/a	CAMEL	ATTIC	-1	[0, 0, 0]	-999	PAL1	1	R1276D
126.973	2.594	136020	REC_START	n/a	n/a	2	-999	n/a	n/a	n/a	n/a	-1	[0, 0, 0]	-999	PAL1	1	R1276D
129.567	1.423	138614	REC_EVENT	2.594	n/a	2	4	ATTIC	<>	CAMEL	ATTIC	-1	[0, 0, 0]	-999	PAL1	1	R1276D
130.99	1.001	140037	PROBE_OFF	n/a	n/a	2	-999	n/a	n/a	n/a	n/a	-1	[0, 0, 0]	-999	PAL1	1	R1276D
131.991	0.016	141038	REC_END	n/a	n/a	2	-999	n/a	n/a	n/a	n/a	-1	[0, 0, 0]	-999	PAL1	1	R1276D
132.007	0.267	141054	PRACTICE_RETRIEVAL_ORIENT	n/a	n/a	1	5	RHINO	IRON	RHINO	IRON	-1	[0, 0, 0]	-999	PAL1	1	R1276D
132.274	0.667	141321	PRACTICE_RETRIEVAL_ORIENT_OFF	n/a	n/a	1	5	RHINO	IRON	RHINO	IRON	-1	[0, 0, 0]	-999	PAL1	1	R1276D
132.941	4.0	141988	PRACTICE_PROBE	n/a	n/a	1	5	RHINO	IRON	RHINO	IRON	-1	[0, 0, 0]	-999	PAL1	1	R1276D
132.941	0.846	141988	REC_START	n/a	n/a	1	-999	n/a	IRON	n/a	n/a	-1	[0, 0, 0]	-999	PAL1	1	R1276D
133.787	3.171	142834	REC_EVENT	0.846	n/a	1	5	RHINO	IRON	RHINO	IRON	-1	[0, 0, 0]	-999	PAL1	1	R1276D
136.958	1.0	146005	PROBE_OFF	n/a	n/a	1	-999	n/a	n/a	n/a	n/a	-1	[0, 0, 0]	-999	PAL1	1	R1276D
137.958	0.017	147005	REC_END	n/a	n/a	1	-999	n/a	n/a	n/a	n/a	-1	[0, 0, 0]	-999	PAL1	1	R1276D
137.975	0.267	147022	PRACTICE_RETRIEVAL_ORIENT	n/a	n/a	4	6	COTTON	WAGON	COTTON	WAGON	-1	[0, 0, 0]	-999	PAL1	1	R1276D
138.242	0.549	147289	PRACTICE_RETRIEVAL_ORIENT_OFF	n/a	n/a	4	6	COTTON	WAGON	COTTON	WAGON	-1	[0, 0, 0]	-999	PAL1	1	R1276D
138.791	4.0	147838	PRACTICE_PROBE	n/a	n/a	4	6	COTTON	WAGON	COTTON	WAGON	-1	[0, 0, 0]	-999	PAL1	1	R1276D
138.791	2.457	147838	REC_START	n/a	n/a	4	-999	n/a	WAGON	n/a	n/a	-1	[0, 0, 0]	-999	PAL1	1	R1276D
141.248	1.56	150294	REC_EVENT	2.457	n/a	4	6	COTTON	WAGON	COTTON	WAGON	-1	[0, 0, 0]	-999	PAL1	1	R1276D
142.808	1.0	151854	PROBE_OFF	n/a	n/a	4	-999	n/a	n/a	n/a	n/a	-1	[0, 0, 0]	-999	PAL1	1	R1276D
143.808	0.004	152854	REC_END	n/a	n/a	4	-999	n/a	n/a	n/a	n/a	-1	[0, 0, 0]	-999	PAL1	1	R1276D
143.812	12.982	152858	RECALL_END	n/a	n/a	-999	-999	n/a	n/a	n/a	n/a	-1	[0, 0, 0]	-999	PAL1	1	R1276D
156.794	10.928	165840	TRIAL	n/a	n/a	-999	-999	n/a	n/a	n/a	n/a	1	[0, 0, 0]	-999	PAL1	1	R1276D
167.722	0.007	176767	ENCODING_START	n/a	n/a	-999	-999	n/a	n/a	n/a	n/a	1	[0, 0, 0]	-999	PAL1	1	R1276D
167.729	0.251	176774	STUDY_ORIENT	n/a	n/a	1	1	WOOD	HOUSE	WOOD	HOUSE	1	[0, 0, 0]	-999	PAL1	1	R1276D
167.98	0.6	177025	STUDY_ORIENT_OFF	n/a	n/a	1	1	WOOD	HOUSE	WOOD	HOUSE	1	[0, 0, 0]	-999	PAL1	1	R1276D
168.58	4.0	177625	STUDY_PAIR	n/a	wordpools/wordpool_EN.txt	1	1	WOOD	HOUSE	WOOD	HOUSE	1	[0, 0, 0]	-999	PAL1	1	R1276D
172.597	1.017	181642	PAIR_OFF	n/a	n/a	1	1	WOOD	HOUSE	WOOD	HOUSE	1	[0, 0, 0]	-999	PAL1	1	R1276D
173.614	0.268	182659	STUDY_ORIENT	n/a	n/a	2	4	FENCE	FLOOR	FENCE	FLOOR	1	[0, 0, 0]	-999	PAL1	1	R1276D
173.882	0.749	182927	STUDY_ORIENT_OFF	n/a	n/a	2	4	FENCE	FLOOR	FENCE	FLOOR	1	[0, 0, 0]	-999	PAL1	1	R1276D
174.631	4.0	183676	STUDY_PAIR	n/a	wordpools/wordpool_EN.txt	2	4	FENCE	FLOOR	FENCE	FLOOR	1	[0, 0, 0]	-999	PAL1	1	R1276D
178.648	1.017	187692	PAIR_OFF	n/a	n/a	2	4	FENCE	FLOOR	FENCE	FLOOR	1	[0, 0, 0]	-999	PAL1	1	R1276D
179.665	0.268	188709	STUDY_ORIENT	n/a	n/a	3	5	THREAD	SOCK	SOCK	THREAD	1	[0, 0, 0]	-999	PAL1	1	R1276D
179.933	0.732	188977	STUDY_ORIENT_OFF	n/a	n/a	3	5	THREAD	SOCK	SOCK	THREAD	1	[0, 0, 0]	-999	PAL1	1	R1276D
180.665	4.0	189709	STUDY_PAIR	n/a	wordpools/wordpool_EN.txt	3	5	THREAD	SOCK	SOCK	THREAD	1	[0, 0, 0]	-999	PAL1	1	R1276D
184.683	1.016	193727	PAIR_OFF	n/a	n/a	3	5	THREAD	SOCK	SOCK	THREAD	1	[0, 0, 0]	-999	PAL1	1	R1276D
185.699	0.268	194743	STUDY_ORIENT	n/a	n/a	4	6	BOX	VEST	BOX	VEST	1	[0, 0, 0]	-999	PAL1	1	R1276D
185.967	0.584	195011	STUDY_ORIENT_OFF	n/a	n/a	4	6	BOX	VEST	BOX	VEST	1	[0, 0, 0]	-999	PAL1	1	R1276D
186.551	4.0	195595	STUDY_PAIR	n/a	wordpools/wordpool_EN.txt	4	6	BOX	VEST	BOX	VEST	1	[0, 0, 0]	-999	PAL1	1	R1276D
190.567	1.017	199611	PAIR_OFF	n/a	n/a	4	6	BOX	VEST	BOX	VEST	1	[0, 0, 0]	-999	PAL1	1	R1276D
191.584	0.267	200628	STUDY_ORIENT	n/a	n/a	5	3	LAMP	HAWK	LAMP	HAWK	1	[0, 0, 0]	-999	PAL1	1	R1276D
191.851	0.651	200895	STUDY_ORIENT_OFF	n/a	n/a	5	3	LAMP	HAWK	LAMP	HAWK	1	[0, 0, 0]	-999	PAL1	1	R1276D
192.502	4.0	201546	STUDY_PAIR	n/a	wordpools/wordpool_EN.txt	5	3	LAMP	HAWK	LAMP	HAWK	1	[0, 0, 0]	-999	PAL1	1	R1276D
196.519	1.017	205562	PAIR_OFF	n/a	n/a	5	3	LAMP	HAWK	LAMP	HAWK	1	[0, 0, 0]	-999	PAL1	1	R1276D
197.536	0.266	206579	STUDY_ORIENT	n/a	n/a	6	2	BRUSH	PASS	BRUSH	JET	1	[0, 0, 0]	-999	PAL1	1	R1276D
197.802	0.551	206845	STUDY_ORIENT_OFF	n/a	n/a	6	2	BRUSH	PASS	BRUSH	JET	1	[0, 0, 0]	-999	PAL1	1	R1276D
198.353	4.0	207396	STUDY_PAIR	n/a	wordpools/wordpool_EN.txt	6	2	BRUSH	PASS	BRUSH	JET	1	[0, 0, 0]	-999	PAL1	1	R1276D
202.37	1.001	211413	PAIR_OFF	n/a	n/a	6	2	BRUSH	PASS	BRUSH	JET	1	[0, 0, 0]	-999	PAL1	1	R1276D
203.371	0.0	212414	MATH_START	n/a	n/a	-999	-999	n/a	n/a	n/a	n/a	1	[0, 0, 0]	-999	PAL1	1	R1276D
203.371	0.0	212414	ENCODING_END	n/a	n/a	-999	-999	n/a	n/a	n/a	n/a	1	[0, 0, 0]	-999	PAL1	1	R1276D
203.371	0.016	212414	START	n/a	n/a	-999	-999	n/a	n/a	n/a	n/a	2	[-999, -999, -999]	-999	PAL1	1	R1276D
203.387	4.067	212430	PROB	4.038	n/a	-999	-999	n/a	n/a	n/a	n/a	2	[6, 8, 6]	20	PAL1	1	R1276D
207.454	2.651	216497	PROB	2.627	n/a	-999	-999	n/a	n/a	n/a	n/a	2	[4, 2, 1]	7	PAL1	1	R1276D
210.105	2.967	219148	PROB	2.943	n/a	-999	-999	n/a	n/a	n/a	n/a	2	[8, 1, 7]	16	PAL1	1	R1276D
213.072	3.633	222114	PROB	3.6	n/a	-999	-999	n/a	n/a	n/a	n/a	2	[7, 2, 2]	11	PAL1	1	R1276D
216.705	3.602	225747	PROB	3.567	n/a	-999	-999	n/a	n/a	n/a	n/a	2	[1, 6, 7]	14	PAL1	1	R1276D
220.307	5.03	229349	PROB	5.03	n/a	-999	-999	n/a	n/a	n/a	n/a	2	[8, 4, 4]	16	PAL1	1	R1276D
225.337	0.021	234379	STOP	n/a	n/a	-999	-999	n/a	n/a	n/a	n/a	2	[-999, -999, -999]	-999	PAL1	1	R1276D
225.358	0.0	234400	MATH_END	n/a	n/a	-999	-999	n/a	n/a	n/a	n/a	1	[0, 0, 0]	-999	PAL1	1	R1276D
225.358	0.016	234400	RECALL_START	n/a	n/a	-999	-999	n/a	n/a	n/a	n/a	1	[0, 0, 0]	-999	PAL1	1	R1276D
225.374	0.266	234416	TEST_ORIENT	n/a	n/a	1	1	WOOD	HOUSE	WOOD	HOUSE	1	[0, 0, 0]	-999	PAL1	1	R1276D
225.64	0.518	234682	RETRIEVAL_ORIENT_OFF	n/a	n/a	-999	-999	n/a	n/a	n/a	n/a	1	[0, 0, 0]	-999	PAL1	1	R1276D
226.158	4.0	235200	TEST_PROBE	n/a	wordpools/wordpool_EN.txt	1	1	WOOD	HOUSE	WOOD	HOUSE	1	[0, 0, 0]	-999	PAL1	1	R1276D
226.159	1.438	235201	REC_START	n/a	n/a	1	-999	n/a	HOUSE	n/a	n/a	1	[0, 0, 0]	-999	PAL1	1	R1276D
227.597	2.578	236639	REC_EVENT	1.438	n/a	1	1	WOOD	HOUSE	WOOD	HOUSE	1	[0, 0, 0]	-999	PAL1	1	R1276D
230.175	1.0	239217	PROBE_OFF	n/a	n/a	1	-999	n/a	n/a	n/a	n/a	1	[0, 0, 0]	-999	PAL1	1	R1276D
231.175	0.017	240216	REC_END	n/a	n/a	1	-999	n/a	n/a	n/a	n/a	1	[0, 0, 0]	-999	PAL1	1	R1276D
231.192	0.267	240233	TEST_ORIENT	n/a	n/a	6	2	BRUSH	PASS	BRUSH	JET	1	[0, 0, 0]	-999	PAL1	1	R1276D
231.459	0.6	240500	RETRIEVAL_ORIENT_OFF	n/a	n/a	1	-999	n/a	n/a	n/a	n/a	1	[0, 0, 0]	-999	PAL1	1	R1276D
232.059	4.0	241100	TEST_PROBE	n/a	wordpools/wordpool_EN.txt	6	2	BRUSH	PASS	BRUSH	JET	1	[0, 0, 0]	-999	PAL1	1	R1276D
232.06	2.358	241101	REC_START	n/a	n/a	6	-999	n/a	PASS	n/a	n/a	1	[0, 0, 0]	-999	PAL1	1	R1276D
234.418	1.658	243459	REC_EVENT	2.358	n/a	6	2	BRUSH	PASS	BRUSH	JET	1	[0, 0, 0]	-999	PAL1	1	R1276D
236.076	1.0	245117	PROBE_OFF	n/a	n/a	6	-999	n/a	n/a	n/a	n/a	1	[0, 0, 0]	-999	PAL1	1	R1276D
237.076	0.017	246117	REC_END	n/a	n/a	6	-999	n/a	n/a	n/a	n/a	1	[0, 0, 0]	-999	PAL1	1	R1276D
237.093	0.267	246134	TEST_ORIENT	n/a	n/a	5	3	LAMP	HAWK	LAMP	HAWK	1	[0, 0, 0]	-999	PAL1	1	R1276D
237.36	0.617	246401	RETRIEVAL_ORIENT_OFF	n/a	n/a	6	-999	n/a	n/a	n/a	n/a	1	[0, 0, 0]	-999	PAL1	1	R1276D
237.977	4.0	247018	TEST_PROBE	n/a	wordpools/wordpool_EN.txt	5	3	LAMP	HAWK	LAMP	HAWK	1	[0, 0, 0]	-999	PAL1	1	R1276D
237.977	1.303	247018	REC_START	n/a	n/a	5	-999	n/a	HAWK	n/a	n/a	1	[0, 0, 0]	-999	PAL1	1	R1276D
239.28	2.714	248321	REC_EVENT	1.303	n/a	5	3	LAMP	HAWK	LAMP	HAWK	1	[0, 0, 0]	-999	PAL1	1	R1276D
241.994	1.0	251035	PROBE_OFF	n/a	n/a	5	-999	n/a	n/a	n/a	n/a	1	[0, 0, 0]	-999	PAL1	1	R1276D
242.994	0.017	252035	REC_END	n/a	n/a	5	-999	n/a	n/a	n/a	n/a	1	[0, 0, 0]	-999	PAL1	1	R1276D
243.011	0.267	252052	TEST_ORIENT	n/a	n/a	2	4	FENCE	FLOOR	FENCE	FLOOR	1	[0, 0, 0]	-999	PAL1	1	R1276D
243.278	0.717	252319	RETRIEVAL_ORIENT_OFF	n/a	n/a	5	-999	n/a	n/a	n/a	n/a	1	[0, 0, 0]	-999	PAL1	1	R1276D
243.995	4.0	253036	TEST_PROBE	n/a	wordpools/wordpool_EN.txt	2	4	FENCE	FLOOR	FENCE	FLOOR	1	[0, 0, 0]	-999	PAL1	1	R1276D
243.995	2.215	253036	REC_START	n/a	n/a	2	-999	n/a	FLOOR	n/a	n/a	1	[0, 0, 0]	-999	PAL1	1	R1276D
246.21	1.802	255251	REC_EVENT	2.215	n/a	2	4	FENCE	FLOOR	FENCE	FLOOR	1	[0, 0, 0]	-999	PAL1	1	R1276D
248.012	1.0	257053	PROBE_OFF	n/a	n/a	2	-999	n/a	n/a	n/a	n/a	1	[0, 0, 0]	-999	PAL1	1	R1276D
249.012	0.017	258052	REC_END	n/a	n/a	2	-999	n/a	n/a	n/a	n/a	1	[0, 0, 0]	-999	PAL1	1	R1276D
249.029	0.266	258069	TEST_ORIENT	n/a	n/a	3	5	THREAD	SOCK	SOCK	THREAD	1	[0, 0, 0]	-999	PAL1	1	R1276D
249.295	0.651	258335	RETRIEVAL_ORIENT_OFF	n/a	n/a	2	-999	n/a	n/a	n/a	n/a	1	[0, 0, 0]	-999	PAL1	1	R1276D
249.946	0.0	258986	REC_START	n/a	n/a	3	-999	n/a	SOCK	n/a	n/a	1	[0, 0, 0]	-999	PAL1	1	R1276D
249.946	4.0	258986	TEST_PROBE	n/a	wordpools/wordpool_EN.txt	3	5	THREAD	SOCK	SOCK	THREAD	1	[0, 0, 0]	-999	PAL1	1	R1276D
251.383	2.58	260423	REC_EVENT	1.437	n/a	3	5	THREAD	SOCK	SOCK	THREAD	1	[0, 0, 0]	-999	PAL1	1	R1276D
253.963	1.0	263003	PROBE_OFF	n/a	n/a	3	-999	n/a	n/a	n/a	n/a	1	[0, 0, 0]	-999	PAL1	1	R1276D
254.963	0.017	264003	REC_END	n/a	n/a	3	-999	n/a	n/a	n/a	n/a	1	[0, 0, 0]	-999	PAL1	1	R1276D
254.98	0.267	264020	TEST_ORIENT	n/a	n/a	4	6	BOX	VEST	BOX	VEST	1	[0, 0, 0]	-999	PAL1	1	R1276D
255.247	0.733	264287	RETRIEVAL_ORIENT_OFF	n/a	n/a	3	-999	n/a	n/a	n/a	n/a	1	[0, 0, 0]	-999	PAL1	1	R1276D
255.98	4.0	265020	TEST_PROBE	n/a	wordpools/wordpool_EN.txt	4	6	BOX	VEST	BOX	VEST	1	[0, 0, 0]	-999	PAL1	1	R1276D
255.98	1.42	265020	REC_START	n/a	n/a	4	-999	n/a	VEST	n/a	n/a	1	[0, 0, 0]	-999	PAL1	1	R1276D
257.4	2.597	266440	REC_EVENT	1.42	n/a	4	6	BOX	VEST	BOX	VEST	1	[0, 0, 0]	-999	PAL1	1	R1276D
259.997	1.0	269037	PROBE_OFF	n/a	n/a	4	-999	n/a	n/a	n/a	n/a	1	[0, 0, 0]	-999	PAL1	1	R1276D
260.997	0.009	270037	REC_END	n/a	n/a	4	-999	n/a	n/a	n/a	n/a	1	[0, 0, 0]	-999	PAL1	1	R1276D
261.006	5.376	270046	RECALL_END	n/a	n/a	-999	-999	n/a	n/a	n/a	n/a	1	[0, 0, 0]	-999	PAL1	1	R1276D
266.382	10.929	275421	TRIAL	n/a	n/a	-999	-999	n/a	n/a	n/a	n/a	2	[0, 0, 0]	-999	PAL1	1	R1276D
277.311	0.006	286350	ENCODING_START	n/a	n/a	-999	-999	n/a	n/a	n/a	n/a	2	[0, 0, 0]	-999	PAL1	1	R1276D
277.317	0.266	286356	STUDY_ORIENT	n/a	n/a	1	5	BEAN	SMOKE	BEAN	SMOKE	2	[0, 0, 0]	-999	PAL1	1	R1276D
277.583	0.651	286622	STUDY_ORIENT_OFF	n/a	n/a	1	5	BEAN	SMOKE	BEAN	SMOKE	2	[0, 0, 0]	-999	PAL1	1	R1276D
278.234	4.0	287273	STUDY_PAIR	n/a	wordpools/wordpool_EN.txt	1	5	BEAN	SMOKE	BEAN	SMOKE	2	[0, 0, 0]	-999	PAL1	1	R1276D
282.251	1.017	291290	PAIR_OFF	n/a	n/a	1	5	BEAN	SMOKE	BEAN	SMOKE	2	[0, 0, 0]	-999	PAL1	1	R1276D
283.268	0.267	292307	STUDY_ORIENT	n/a	n/a	2	4	SPOON	ROOT	SPOON	ROOT	2	[0, 0, 0]	-999	PAL1	1	R1276D
283.535	0.583	292574	STUDY_ORIENT_OFF	n/a	n/a	2	4	SPOON	ROOT	SPOON	ROOT	2	[0, 0, 0]	-999	PAL1	1	R1276D
284.118	4.0	293157	STUDY_PAIR	n/a	wordpools/wordpool_EN.txt	2	4	SPOON	ROOT	SPOON	ROOT	2	[0, 0, 0]	-999	PAL1	1	R1276D
288.136	1.017	297174	PAIR_OFF	n/a	n/a	2	4	SPOON	ROOT	SPOON	ROOT	2	[0, 0, 0]	-999	PAL1	1	R1276D
289.153	0.266	298191	STUDY_ORIENT	n/a	n/a	3	3	FORK	PASS	CAVE	FORK	2	[0, 0, 0]	-999	PAL1	1	R1276D
289.419	0.601	298457	STUDY_ORIENT_OFF	n/a	n/a	3	3	FORK	PASS	CAVE	FORK	2	[0, 0, 0]	-999	PAL1	1	R1276D
290.02	4.0	299058	STUDY_PAIR	n/a	wordpools/wordpool_EN.txt	3	3	FORK	PASS	CAVE	FORK	2	[0, 0, 0]	-999	PAL1	1	R1276D
294.037	1.017	303075	PAIR_OFF	n/a	n/a	3	3	FORK	PASS	CAVE	FORK	2	[0, 0, 0]	-999	PAL1	1	R1276D
295.054	0.267	304092	STUDY_ORIENT	n/a	n/a	4	2	TRASH	PASS	BLOOM	TRASH	2	[0, 0, 0]	-999	PAL1	1	R1276D
295.321	0.7	304359	STUDY_ORIENT_OFF	n/a	n/a	4	2	TRASH	PASS	BLOOM	TRASH	2	[0, 0, 0]	-999	PAL1	1	R1276D
296.021	4.0	305059	STUDY_PAIR	n/a	wordpools/wordpool_EN.txt	4	2	TRASH	PASS	BLOOM	TRASH	2	[0, 0, 0]	-999	PAL1	1	R1276D
300.038	1.017	309076	PAIR_OFF	n/a	n/a	4	2	TRASH	PASS	BLOOM	TRASH	2	[0, 0, 0]	-999	PAL1	1	R1276D
301.055	0.267	310093	STUDY_ORIENT	n/a	n/a	5	1	THUMB	PASS	THUMB	SNAIL	2	[0, 0, 0]	-999	PAL1	1	R1276D
301.322	0.65	310360	STUDY_ORIENT_OFF	n/a	n/a	5	1	THUMB	PASS	THUMB	SNAIL	2	[0, 0, 0]	-999	PAL1	1	R1276D
301.972	4.0	311010	STUDY_PAIR	n/a	wordpools/wordpool_EN.txt	5	1	THUMB	PASS	THUMB	SNAIL	2	[0, 0, 0]	-999	PAL1	1	R1276D
305.989	1.017	315026	PAIR_OFF	n/a	n/a	5	1	THUMB	PASS	THUMB	SNAIL	2	[0, 0, 0]	-999	PAL1	1	R1276D
307.006	0.267	316043	STUDY_ORIENT	n/a	n/a	6	6	PIPE	PASS	PIPE	MAIL	2	[0, 0, 0]	-999	PAL1	1	R1276D
307.273	0.582	316310	STUDY_ORIENT_OFF	n/a	n/a	6	6	PIPE	PASS	PIPE	MAIL	2	[0, 0, 0]	-999	PAL1	1	R1276D
307.855	4.0	316892	STUDY_PAIR	n/a	wordpools/wordpool_EN.txt	6	6	PIPE	PASS	PIPE	MAIL	2	[0, 0, 0]	-999	PAL1	1	R1276D
311.856	1.0	320893	PAIR_OFF	n/a	n/a	6	6	PIPE	PASS	PIPE	MAIL	2	[0, 0, 0]	-999	PAL1	1	R1276D
312.856	0.0	321893	ENCODING_END	n/a	n/a	-999	-999	n/a	n/a	n/a	n/a	2	[0, 0, 0]	-999	PAL1	1	R1276D
312.856	0.0	321893	MATH_START	n/a	n/a	-999	-999	n/a	n/a	n/a	n/a	2	[0, 0, 0]	-999	PAL1	1	R1276D
312.856	0.018	321893	START	n/a	n/a	-999	-999	n/a	n/a	n/a	n/a	3	[-999, -999, -999]	-999	PAL1	1	R1276D
312.874	4.451	321911	PROB	4.423	n/a	-999	-999	n/a	n/a	n/a	n/a	3	[8, 3, 8]	19	PAL1	1	R1276D
317.325	3.15	326362	PROB	3.123	n/a	-999	-999	n/a	n/a	n/a	n/a	3	[7, 8, 5]	20	PAL1	1	R1276D
320.475	4.034	329511	PROB	4.006	n/a	-999	-999	n/a	n/a	n/a	n/a	3	[7, 8, 9]	24	PAL1	1	R1276D
324.509	3.551	333545	PROB	3.523	n/a	-999	-999	n/a	n/a	n/a	n/a	3	[3, 3, 2]	8	PAL1	1	R1276D
328.06	3.017	337096	PROB	2.988	n/a	-999	-999	n/a	n/a	n/a	n/a	3	[4, 4, 2]	10	PAL1	1	R1276D
331.077	2.723	340113	PROB	2.723	n/a	-999	-999	n/a	n/a	n/a	n/a	3	[5, 1, 3]	9	PAL1	1	R1276D
333.8	0.01	342836	STOP	n/a	n/a	-999	-999	n/a	n/a	n/a	n/a	3	[-999, -999, -999]	-999	PAL1	1	R1276D
333.81	0.0	342846	MATH_END	n/a	n/a	-999	-999	n/a	n/a	n/a	n/a	2	[0, 0, 0]	-999	PAL1	1	R1276D
333.81	0.017	342846	RECALL_START	n/a	n/a	-999	-999	n/a	n/a	n/a	n/a	2	[0, 0, 0]	-999	PAL1	1	R1276D
333.827	0.267	342863	TEST_ORIENT	n/a	n/a	5	1	THUMB	PASS	THUMB	SNAIL	2	[0, 0, 0]	-999	PAL1	1	R1276D
334.094	0.666	343130	RETRIEVAL_ORIENT_OFF	n/a	n/a	-999	-999	n/a	n/a	n/a	n/a	2	[0, 0, 0]	-999	PAL1	1	R1276D
334.76	4.0	343796	TEST_PROBE	n/a	wordpools/wordpool_EN.txt	5	1	THUMB	PASS	THUMB	SNAIL	2	[0, 0, 0]	-999	PAL1	1	R1276D
334.761	3.301	343797	REC_START	n/a	n/a	5	-999	n/a	PASS	n/a	n/a	2	[0, 0, 0]	-999	PAL1	1	R1276D
338.062	0.716	347098	REC_EVENT	3.301	n/a	5	1	THUMB	PASS	THUMB	SNAIL	2	[0, 0, 0]	-999	PAL1	1	R1276D
338.778	1.011	347813	PROBE_OFF	n/a	n/a	5	-999	n/a	n/a	n/a	n/a	2	[0, 0, 0]	-999	PAL1	1	R1276D
339.789	0.022	348824	REC_END	n/a	n/a	5	-999	n/a	n/a	n/a	n/a	2	[0, 0, 0]	-999	PAL1	1	R1276D
339.811	0.268	348846	TEST_ORIENT	n/a	n/a	4	2	TRASH	PASS	BLOOM	TRASH	2	[0, 0, 0]	-999	PAL1	1	R1276D
340.079	0.549	349114	RETRIEVAL_ORIENT_OFF	n/a	n/a	5	-999	n/a	n/a	n/a	n/a	2	[0, 0, 0]	-999	PAL1	1	R1276D
340.628	0.0	349663	REC_START	n/a	n/a	4	-999	n/a	PASS	n/a	n/a	2	[0, 0, 0]	-999	PAL1	1	R1276D
340.628	4.0	349663	TEST_PROBE	n/a	wordpools/wordpool_EN.txt	4	2	TRASH	PASS	BLOOM	TRASH	2	[0, 0, 0]	-999	PAL1	1	R1276D
342.833	0.386	351868	REC_EVENT	2.205	n/a	4	2	TRASH	<>	BLOOM	TRASH	2	[0, 0, 0]	-999	PAL1	1	R1276D
343.219	1.426	352254	REC_EVENT	2.591	n/a	4	2	TRASH	PASS	BLOOM	TRASH	2	[0, 0, 0]	-999	PAL1	1	R1276D
344.645	1.0	353680	PROBE_OFF	n/a	n/a	4	-999	n/a	n/a	n/a	n/a	2	[0, 0, 0]	-999	PAL1	1	R1276D
345.645	0.017	354680	REC_END	n/a	n/a	4	-999	n/a	n/a	n/a	n/a	2	[0, 0, 0]	-999	PAL1	1	R1276D
345.662	0.268	354697	TEST_ORIENT	n/a	n/a	3	3	FORK	PASS	CAVE	FORK	2	[0, 0, 0]	-999	PAL1	1	R1276D
345.93	0.682	354965	RETRIEVAL_ORIENT_OFF	n/a	n/a	4	-999	n/a	n/a	n/a	n/a	2	[0, 0, 0]	-999	PAL1	1	R1276D
346.612	4.0	355647	TEST_PROBE	n/a	wordpools/wordpool_EN.txt	3	3	FORK	PASS	CAVE	FORK	2	[0, 0, 0]	-999	PAL1	1	R1276D
346.613	2.724	355648	REC_START	n/a	n/a	3	-999	n/a	PASS	n/a	n/a	2	[0, 0, 0]	-999	PAL1	1	R1276D
349.337	1.276	358372	REC_EVENT	2.724	n/a	3	3	FORK	PASS	CAVE	FORK	2	[0, 0, 0]	-999	PAL1	1	R1276D
350.613	1.0	359648	PROBE_OFF	n/a	n/a	3	-999	n/a	n/a	n/a	n/a	2	[0, 0, 0]	-999	PAL1	1	R1276D
351.613	0.017	360648	REC_END	n/a	n/a	3	-999	n/a	n/a	n/a	n/a	2	[0, 0, 0]	-999	PAL1	1	R1276D
351.63	0.268	360665	TEST_ORIENT	n/a	n/a	2	4	SPOON	ROOT	SPOON	ROOT	2	[0, 0, 0]	-999	PAL1	1	R1276D
351.898	0.633	360933	RETRIEVAL_ORIENT_OFF	n/a	n/a	3	-999	n/a	n/a	n/a	n/a	2	[0, 0, 0]	-999	PAL1	1	R1276D
352.531	4.0	361566	TEST_PROBE	n/a	wordpools/wordpool_EN.txt	2	4	SPOON	ROOT	SPOON	ROOT	2	[0, 0, 0]	-999	PAL1	1	R1276D
352.532	3.088	361567	REC_START	n/a	n/a	2	-999	n/a	ROOT	n/a	n/a	2	[0, 0, 0]	-999	PAL1	1	R1276D
355.62	0.929	364655	REC_EVENT	3.088	n/a	2	4	SPOON	ROOT	SPOON	ROOT	2	[0, 0, 0]	-999	PAL1	1	R1276D
356.549	1.0	365583	PROBE_OFF	n/a	n/a	2	-999	n/a	n/a	n/a	n/a	2	[0, 0, 0]	-999	PAL1	1	R1276D
357.549	0.015	366583	REC_END	n/a	n/a	2	-999	n/a	n/a	n/a	n/a	2	[0, 0, 0]	-999	PAL1	1	R1276D
357.564	0.267	366598	TEST_ORIENT	n/a	n/a	1	5	BEAN	SMOKE	BEAN	SMOKE	2	[0, 0, 0]	-999	PAL1	1	R1276D
357.831	0.701	366865	RETRIEVAL_ORIENT_OFF	n/a	n/a	2	-999	n/a	n/a	n/a	n/a	2	[0, 0, 0]	-999	PAL1	1	R1276D
358.532	4.0	367566	TEST_PROBE	n/a	wordpools/wordpool_EN.txt	1	5	BEAN	SMOKE	BEAN	SMOKE	2	[0, 0, 0]	-999	PAL1	1	R1276D
358.533	1.146	367567	REC_START	n/a	n/a	1	-999	n/a	SMOKE	n/a	n/a	2	[0, 0, 0]	-999	PAL1	1	R1276D
359.679	2.871	368713	REC_EVENT	1.146	n/a	1	5	BEAN	SMOKE	BEAN	SMOKE	2	[0, 0, 0]	-999	PAL1	1	R1276D
362.55	1.0	371584	PROBE_OFF	n/a	n/a	1	-999	n/a	n/a	n/a	n/a	2	[0, 0, 0]	-999	PAL1	1	R1276D
363.55	0.015	372584	REC_END	n/a	n/a	1	-999	n/a	n/a	n/a	n/a	2	[0, 0, 0]	-999	PAL1	1	R1276D
363.565	0.267	372599	TEST_ORIENT	n/a	n/a	6	6	PIPE	PASS	PIPE	MAIL	2	[0, 0, 0]	-999	PAL1	1	R1276D
363.832	0.668	372866	RETRIEVAL_ORIENT_OFF	n/a	n/a	1	-999	n/a	n/a	n/a	n/a	2	[0, 0, 0]	-999	PAL1	1	R1276D
364.5	4.0	373534	TEST_PROBE	n/a	wordpools/wordpool_EN.txt	6	6	PIPE	PASS	PIPE	MAIL	2	[0, 0, 0]	-999	PAL1	1	R1276D
364.5	2.038	373534	REC_START	n/a	n/a	6	-999	n/a	PASS	n/a	n/a	2	[0, 0, 0]	-999	PAL1	1	R1276D
366.538	1.979	375572	REC_EVENT	2.038	n/a	6	6	PIPE	PASS	PIPE	MAIL	2	[0, 0, 0]	-999	PAL1	1	R1276D
368.517	1.0	377551	PROBE_OFF	n/a	n/a	6	-999	n/a	n/a	n/a	n/a	2	[0, 0, 0]	-999	PAL1	1	R1276D
369.517	0.003	378551	REC_END	n/a	n/a	6	-999	n/a	n/a	n/a	n/a	2	[0, 0, 0]	-999	PAL1	1	R1276D
369.52	5.164	378554	RECALL_END	n/a	n/a	-999	-999	n/a	n/a	n/a	n/a	2	[0, 0, 0]	-999	PAL1	1	R1276D
374.684	10.928	383717	TRIAL	n/a	n/a	-999	-999	n/a	n/a	n/a	n/a	3	[0, 0, 0]	-999	PAL1	1	R1276D
385.612	0.007	394645	ENCODING_START	n/a	n/a	-999	-999	n/a	n/a	n/a	n/a	3	[0, 0, 0]	-999	PAL1	1	R1276D
385.619	0.252	394652	STUDY_ORIENT	n/a	n/a	1	3	LAWN	STOVE	STOVE	LAWN	3	[0, 0, 0]	-999	PAL1	1	R1276D
385.871	0.666	394904	STUDY_ORIENT_OFF	n/a	n/a	1	3	LAWN	STOVE	STOVE	LAWN	3	[0, 0, 0]	-999	PAL1	1	R1276D
386.537	4.0	395570	STUDY_PAIR	n/a	wordpools/wordpool_EN.txt	1	3	LAWN	STOVE	STOVE	LAWN	3	[0, 0, 0]	-999	PAL1	1	R1276D
390.555	1.016	399588	PAIR_OFF	n/a	n/a	1	3	LAWN	STOVE	STOVE	LAWN	3	[0, 0, 0]	-999	PAL1	1	R1276D
391.571	0.266	400604	STUDY_ORIENT	n/a	n/a	2	6	WALL	DEER	WALL	DEER	3	[0, 0, 0]	-999	PAL1	1	R1276D
391.837	0.585	400870	STUDY_ORIENT_OFF	n/a	n/a	2	6	WALL	DEER	WALL	DEER	3	[0, 0, 0]	-999	PAL1	1	R1276D
392.422	4.0	401455	STUDY_PAIR	n/a	wordpools/wordpool_EN.txt	2	6	WALL	DEER	WALL	DEER	3	[0, 0, 0]	-999	PAL1	1	R1276D
396.439	1.017	405471	PAIR_OFF	n/a	n/a	2	6	WALL	DEER	WALL	DEER	3	[0, 0, 0]	-999	PAL1	1	R1276D
397.456	0.266	406488	STUDY_ORIENT	n/a	n/a	3	5	PALM	PASS	MUD	PALM	3	[0, 0, 0]	-999	PAL1	1	R1276D
397.722	0.601	406754	STUDY_ORIENT_OFF	n/a	n/a	3	5	PALM	PASS	MUD	PALM	3	[0, 0, 0]	-999	PAL1	1	R1276D
398.323	4.0	407355	STUDY_PAIR	n/a	wordpools/wordpool_EN.txt	3	5	PALM	PASS	MUD	PALM	3	[0, 0, 0]	-999	PAL1	1	R1276D
402.34	1.017	411372	PAIR_OFF	n/a	n/a	3	5	PALM	PASS	MUD	PALM	3	[0, 0, 0]	-999	PAL1	1	R1276D
403.357	0.266	412389	STUDY_ORIENT	n/a	n/a	4	2	CONE	PASS	CONE	ARK	3	[0, 0, 0]	-999	PAL1	1	R1276D
403.623	0.684	412655	STUDY_ORIENT_OFF	n/a	n/a	4	2	CONE	PASS	CONE	ARK	3	[0, 0, 0]	-999	PAL1	1	R1276D
404.307	4.0	413339	STUDY_PAIR	n/a	wordpools/wordpool_EN.txt	4	2	CONE	PASS	CONE	ARK	3	[0, 0, 0]	-999	PAL1	1	R1276D
408.308	1.017	417340	PAIR_OFF	n/a	n/a	4	2	CONE	PASS	CONE	ARK	3	[0, 0, 0]	-999	PAL1	1	R1276D
409.325	0.266	418357	STUDY_ORIENT	n/a	n/a	5	1	LEG	PASS	PET	LEG	3	[0, 0, 0]	-999	PAL1	1	R1276D
409.591	0.718	418623	STUDY_ORIENT_OFF	n/a	n/a	5	1	LEG	PASS	PET	LEG	3	[0, 0, 0]	-999	PAL1	1	R1276D
410.309	4.0	419341	STUDY_PAIR	n/a	wordpools/wordpool_EN.txt	5	1	LEG	PASS	PET	LEG	3	[0, 0, 0]	-999	PAL1	1	R1276D
414.326	1.017	423357	PAIR_OFF	n/a	n/a	5	1	LEG	PASS	PET	LEG	3	[0, 0, 0]	-999	PAL1	1	R1276D
415.343	0.265	424374	STUDY_ORIENT	n/a	n/a	6	4	CHIEF	CUBE	CUBE	CHIEF	3	[0, 0, 0]	-999	PAL1	1	R1276D
415.608	0.752	424639	STUDY_ORIENT_OFF	n/a	n/a	6	4	CHIEF	CUBE	CUBE	CHIEF	3	[0, 0, 0]	-999	PAL1	1	R1276D
416.36	4.0	425391	STUDY_PAIR	n/a	wordpools/wordpool_EN.txt	6	4	CHIEF	CUBE	CUBE	CHIEF	3	[0, 0, 0]	-999	PAL1	1	R1276D
420.377	1.0	429408	PAIR_OFF	n/a	n/a	6	4	CHIEF	CUBE	CUBE	CHIEF	3	[0, 0, 0]	-999	PAL1	1	R1276D
421.377	0.0	430408	ENCODING_END	n/a	n/a	-999	-999	n/a	n/a	n/a	n/a	3	[0, 0, 0]	-999	PAL1	1	R1276D
421.377	0.001	430408	MATH_START	n/a	n/a	-999	-999	n/a	n/a	n/a	n/a	3	[0, 0, 0]	-999	PAL1	1	R1276D
421.378	0.016	430409	START	n/a	n/a	-999	-999	n/a	n/a	n/a	n/a	4	[-999, -999, -999]	-999	PAL1	1	R1276D
421.394	2.95	430425	PROB	2.919	n/a	-999	-999	n/a	n/a	n/a	n/a	4	[8, 2, 6]	16	PAL1	1	R1276D
424.344	2.518	433375	PROB	2.48	n/a	-999	-999	n/a	n/a	n/a	n/a	4	[7, 3, 5]	15	PAL1	1	R1276D
426.862	5.367	435893	PROB	5.331	n/a	-999	-999	n/a	n/a	n/a	n/a	4	[7, 1, 5]	13	PAL1	1	R1276D
432.229	3.433	441259	PROB	3.41	n/a	-999	-999	n/a	n/a	n/a	n/a	4	[1, 9, 5]	15	PAL1	1	R1276D
435.662	4.184	444692	PROB	4.146	n/a	-999	-999	n/a	n/a	n/a	n/a	4	[6, 9, 4]	19	PAL1	1	R1276D
439.846	3.562	448876	PROB	3.562	n/a	-999	-999	n/a	n/a	n/a	n/a	4	[9, 4, 2]	15	PAL1	1	R1276D
443.408	0.007	452438	STOP	n/a	n/a	-999	-999	n/a	n/a	n/a	n/a	4	[-999, -999, -999]	-999	PAL1	1	R1276D
443.415	0.0	452445	MATH_END	n/a	n/a	-999	-999	n/a	n/a	n/a	n/a	3	[0, 0, 0]	-999	PAL1	1	R1276D
443.415	0.016	452445	RECALL_START	n/a	n/a	-999	-999	n/a	n/a	n/a	n/a	3	[0, 0, 0]	-999	PAL1	1	R1276D
443.431	0.266	452461	TEST_ORIENT	n/a	n/a	5	1	LEG	PASS	PET	LEG	3	[0, 0, 0]	-999	PAL1	1	R1276D
443.697	0.618	452727	RETRIEVAL_ORIENT_OFF	n/a	n/a	-999	-999	n/a	n/a	n/a	n/a	3	[0, 0, 0]	-999	PAL1	1	R1276D
444.315	4.0	453345	TEST_PROBE	n/a	wordpools/wordpool_EN.txt	5	1	LEG	PASS	PET	LEG	3	[0, 0, 0]	-999	PAL1	1	R1276D
444.315	2.146	453345	REC_START	n/a	n/a	5	-999	n/a	PASS	n/a	n/a	3	[0, 0, 0]	-999	PAL1	1	R1276D
446.461	1.871	455491	REC_EVENT	2.146	n/a	5	1	LEG	PASS	PET	LEG	3	[0, 0, 0]	-999	PAL1	1	R1276D
448.332	1.0	457361	PROBE_OFF	n/a	n/a	5	-999	n/a	n/a	n/a	n/a	3	[0, 0, 0]	-999	PAL1	1	R1276D
449.332	0.017	458361	REC_END	n/a	n/a	5	-999	n/a	n/a	n/a	n/a	3	[0, 0, 0]	-999	PAL1	1	R1276D
449.349	0.266	458378	TEST_ORIENT	n/a	n/a	4	2	CONE	PASS	CONE	ARK	3	[0, 0, 0]	-999	PAL1	1	R1276D
449.615	0.617	458644	RETRIEVAL_ORIENT_OFF	n/a	n/a	5	-999	n/a	n/a	n/a	n/a	3	[0, 0, 0]	-999	PAL1	1	R1276D
450.232	4.0	459261	TEST_PROBE	n/a	wordpools/wordpool_EN.txt	4	2	CONE	PASS	CONE	ARK	3	[0, 0, 0]	-999	PAL1	1	R1276D
450.233	3.268	459262	REC_START	n/a	n/a	4	-999	n/a	PASS	n/a	n/a	3	[0, 0, 0]	-999	PAL1	1	R1276D
453.501	0.749	462530	REC_EVENT	3.268	n/a	4	2	CONE	PASS	CONE	ARK	3	[0, 0, 0]	-999	PAL1	1	R1276D
454.25	1.0	463279	PROBE_OFF	n/a	n/a	4	-999	n/a	n/a	n/a	n/a	3	[0, 0, 0]	-999	PAL1	1	R1276D
455.25	0.017	464279	REC_END	n/a	n/a	4	-999	n/a	n/a	n/a	n/a	3	[0, 0, 0]	-999	PAL1	1	R1276D
455.267	0.266	464296	TEST_ORIENT	n/a	n/a	1	3	LAWN	STOVE	STOVE	LAWN	3	[0, 0, 0]	-999	PAL1	1	R1276D
455.533	0.634	464562	RETRIEVAL_ORIENT_OFF	n/a	n/a	4	-999	n/a	n/a	n/a	n/a	3	[0, 0, 0]	-999	PAL1	1	R1276D
456.167	4.0	465196	TEST_PROBE	n/a	wordpools/wordpool_EN.txt	1	3	LAWN	STOVE	STOVE	LAWN	3	[0, 0, 0]	-999	PAL1	1	R1276D
456.168	1.55	465197	REC_START	n/a	n/a	1	-999	n/a	STOVE	n/a	n/a	3	[0, 0, 0]	-999	PAL1	1	R1276D
457.718	2.466	466747	REC_EVENT	1.55	n/a	1	3	LAWN	STOVE	STOVE	LAWN	3	[0, 0, 0]	-999	PAL1	1	R1276D
460.184	1.0	469213	PROBE_OFF	n/a	n/a	1	-999	n/a	n/a	n/a	n/a	3	[0, 0, 0]	-999	PAL1	1	R1276D
461.184	0.017	470213	REC_END	n/a	n/a	1	-999	n/a	n/a	n/a	n/a	3	[0, 0, 0]	-999	PAL1	1	R1276D
461.201	0.267	470230	TEST_ORIENT	n/a	n/a	6	4	CHIEF	CUBE	CUBE	CHIEF	3	[0, 0, 0]	-999	PAL1	1	R1276D
461.468	0.65	470497	RETRIEVAL_ORIENT_OFF	n/a	n/a	1	-999	n/a	n/a	n/a	n/a	3	[0, 0, 0]	-999	PAL1	1	R1276D
462.118	4.0	471147	TEST_PROBE	n/a	wordpools/wordpool_EN.txt	6	4	CHIEF	CUBE	CUBE	CHIEF	3	[0, 0, 0]	-999	PAL1	1	R1276D
462.119	1.203	471148	REC_START	n/a	n/a	6	-999	n/a	CUBE	n/a	n/a	3	[0, 0, 0]	-999	PAL1	1	R1276D
463.322	2.813	472351	REC_EVENT	1.203	n/a	6	4	CHIEF	CUBE	CUBE	CHIEF	3	[0, 0, 0]	-999	PAL1	1	R1276D
466.135	1.0	475163	PROBE_OFF	n/a	n/a	6	-999	n/a	n/a	n/a	n/a	3	[0, 0, 0]	-999	PAL1	1	R1276D
467.135	0.017	476163	REC_END	n/a	n/a	6	-999	n/a	n/a	n/a	n/a	3	[0, 0, 0]	-999	PAL1	1	R1276D
467.152	0.267	476180	TEST_ORIENT	n/a	n/a	3	5	PALM	PASS	MUD	PALM	3	[0, 0, 0]	-999	PAL1	1	R1276D
467.419	0.55	476447	RETRIEVAL_ORIENT_OFF	n/a	n/a	6	-999	n/a	n/a	n/a	n/a	3	[0, 0, 0]	-999	PAL1	1	R1276D
467.969	4.0	476997	TEST_PROBE	n/a	wordpools/wordpool_EN.txt	3	5	PALM	PASS	MUD	PALM	3	[0, 0, 0]	-999	PAL1	1	R1276D
467.97	2.628	476998	REC_START	n/a	n/a	3	-999	n/a	PASS	n/a	n/a	3	[0, 0, 0]	-999	PAL1	1	R1276D
470.598	0.419	479626	REC_EVENT	2.628	n/a	3	5	PALM	<>	MUD	PALM	3	[0, 0, 0]	-999	PAL1	1	R1276D
471.017	0.97	480045	REC_EVENT	3.047	n/a	3	5	PALM	PASS	MUD	PALM	3	[0, 0, 0]	-999	PAL1	1	R1276D
471.987	1.0	481015	PROBE_OFF	n/a	n/a	3	-999	n/a	n/a	n/a	n/a	3	[0, 0, 0]	-999	PAL1	1	R1276D
472.987	0.016	482015	REC_END	n/a	n/a	3	-999	n/a	n/a	n/a	n/a	3	[0, 0, 0]	-999	PAL1	1	R1276D
473.003	0.267	482031	TEST_ORIENT	n/a	n/a	2	6	WALL	DEER	WALL	DEER	3	[0, 0, 0]	-999	PAL1	1	R1276D
473.27	0.582	482298	RETRIEVAL_ORIENT_OFF	n/a	n/a	3	-999	n/a	n/a	n/a	n/a	3	[0, 0, 0]	-999	PAL1	1	R1276D
473.852	4.0	482880	TEST_PROBE	n/a	wordpools/wordpool_EN.txt	2	6	WALL	DEER	WALL	DEER	3	[0, 0, 0]	-999	PAL1	1	R1276D
473.853	1.574	482881	REC_START	n/a	n/a	2	-999	n/a	DEER	n/a	n/a	3	[0, 0, 0]	-999	PAL1	1	R1276D
475.427	2.444	484455	REC_EVENT	1.574	n/a	2	6	WALL	DEER	WALL	DEER	3	[0, 0, 0]	-999	PAL1	1	R1276D
477.871	1.0	486899	PROBE_OFF	n/a	n/a	2	-999	n/a	n/a	n/a	n/a	3	[0, 0, 0]	-999	PAL1	1	R1276D
478.871	0.01	487899	REC_END	n/a	n/a	2	-999	n/a	n/a	n/a	n/a	3	[0, 0, 0]	-999	PAL1	1	R1276D
478.881	5.84	487909	RECALL_END	n/a	n/a	-999	-999	n/a	n/a	n/a	n/a	3	[0, 0, 0]	-999	PAL1	1	R1276D
484.721	10.929	493748	TRIAL	n/a	n/a	-999	-999	n/a	n/a	n/a	n/a	4	[0, 0, 0]	-999	PAL1	1	R1276D
495.65	0.007	504677	ENCODING_START	n/a	n/a	-999	-999	n/a	n/a	n/a	n/a	4	[0, 0, 0]	-999	PAL1	1	R1276D
495.657	0.267	504684	STUDY_ORIENT	n/a	n/a	1	5	CHEEK	COIN	COIN	CHEEK	4	[0, 0, 0]	-999	PAL1	1	R1276D
495.924	0.766	504951	STUDY_ORIENT_OFF	n/a	n/a	1	5	CHEEK	COIN	COIN	CHEEK	4	[0, 0, 0]	-999	PAL1	1	R1276D
496.69	4.0	505717	STUDY_PAIR	n/a	wordpools/wordpool_EN.txt	1	5	CHEEK	COIN	COIN	CHEEK	4	[0, 0, 0]	-999	PAL1	1	R1276D
500.707	1.017	509733	PAIR_OFF	n/a	n/a	1	5	CHEEK	COIN	COIN	CHEEK	4	[0, 0, 0]	-999	PAL1	1	R1276D
501.724	0.268	510750	STUDY_ORIENT	n/a	n/a	2	4	TANK	SWORD	TANK	SWORD	4	[0, 0, 0]	-999	PAL1	1	R1276D
501.992	0.582	511018	STUDY_ORIENT_OFF	n/a	n/a	2	4	TANK	SWORD	TANK	SWORD	4	[0, 0, 0]	-999	PAL1	1	R1276D
502.574	4.0	511600	STUDY_PAIR	n/a	wordpools/wordpool_EN.txt	2	4	TANK	SWORD	TANK	SWORD	4	[0, 0, 0]	-999	PAL1	1	R1276D
506.575	1.017	515601	PAIR_OFF	n/a	n/a	2	4	TANK	SWORD	TANK	SWORD	4	[0, 0, 0]	-999	PAL1	1	R1276D
507.592	0.268	516618	STUDY_ORIENT	n/a	n/a	3	1	YARD	PASS	SNAKE	YARD	4	[0, 0, 0]	-999	PAL1	1	R1276D
507.86	0.683	516886	STUDY_ORIENT_OFF	n/a	n/a	3	1	YARD	PASS	SNAKE	YARD	4	[0, 0, 0]	-999	PAL1	1	R1276D
508.543	4.0	517569	STUDY_PAIR	n/a	wordpools/wordpool_EN.txt	3	1	YARD	PASS	SNAKE	YARD	4	[0, 0, 0]	-999	PAL1	1	R1276D
512.561	1.016	521587	PAIR_OFF	n/a	n/a	3	1	YARD	PASS	SNAKE	YARD	4	[0, 0, 0]	-999	PAL1	1	R1276D
513.577	0.266	522603	STUDY_ORIENT	n/a	n/a	4	6	CLOTH	PASS	TOAST	CLOTH	4	[0, 0, 0]	-999	PAL1	1	R1276D
513.843	0.551	522869	STUDY_ORIENT_OFF	n/a	n/a	4	6	CLOTH	PASS	TOAST	CLOTH	4	[0, 0, 0]	-999	PAL1	1	R1276D
514.394	4.0	523420	STUDY_PAIR	n/a	wordpools/wordpool_EN.txt	4	6	CLOTH	PASS	TOAST	CLOTH	4	[0, 0, 0]	-999	PAL1	1	R1276D
518.395	1.017	527421	PAIR_OFF	n/a	n/a	4	6	CLOTH	PASS	TOAST	CLOTH	4	[0, 0, 0]	-999	PAL1	1	R1276D
519.412	0.266	528437	STUDY_ORIENT	n/a	n/a	5	3	MOLE	HAT	MOLE	HAT	4	[0, 0, 0]	-999	PAL1	1	R1276D
519.678	0.684	528703	STUDY_ORIENT_OFF	n/a	n/a	5	3	MOLE	HAT	MOLE	HAT	4	[0, 0, 0]	-999	PAL1	1	R1276D
520.362	4.0	529387	STUDY_PAIR	n/a	wordpools/wordpool_EN.txt	5	3	MOLE	HAT	MOLE	HAT	4	[0, 0, 0]	-999	PAL1	1	R1276D
524.379	1.017	533404	PAIR_OFF	n/a	n/a	5	3	MOLE	HAT	MOLE	HAT	4	[0, 0, 0]	-999	PAL1	1	R1276D
525.396	0.266	534421	STUDY_ORIENT	n/a	n/a	6	2	LAMB	BOOK	BOOK	LAMB	4	[0, 0, 0]	-999	PAL1	1	R1276D
525.662	0.668	534687	STUDY_ORIENT_OFF	n/a	n/a	6	2	LAMB	BOOK	BOOK	LAMB	4	[0, 0, 0]	-999	PAL1	1	R1276D
526.33	4.0	535355	STUDY_PAIR	n/a	wordpools/wordpool_EN.txt	6	2	LAMB	BOOK	BOOK	LAMB	4	[0, 0, 0]	-999	PAL1	1	R1276D
530.347	1.001	539372	PAIR_OFF	n/a	n/a	6	2	LAMB	BOOK	BOOK	LAMB	4	[0, 0, 0]	-999	PAL1	1	R1276D
531.348	0.0	540373	ENCODING_END	n/a	n/a	-999	-999	n/a	n/a	n/a	n/a	4	[0, 0, 0]	-999	PAL1	1	R1276D
531.348	0.0	540373	MATH_START	n/a	n/a	-999	-999	n/a	n/a	n/a	n/a	4	[0, 0, 0]	-999	PAL1	1	R1276D
531.348	0.016	540373	START	n/a	n/a	-999	-999	n/a	n/a	n/a	n/a	5	[-999, -999, -999]	-999	PAL1	1	R1276D
531.364	2.917	540389	PROB	2.884	n/a	-999	-999	n/a	n/a	n/a	n/a	5	[7, 1, 2]	10	PAL1	1	R1276D
534.281	4.801	543306	PROB	4.768	n/a	-999	-999	n/a	n/a	n/a	n/a	5	[5, 9, 7]	21	PAL1	1	R1276D
539.082	2.851	548106	PROB	2.822	n/a	-999	-999	n/a	n/a	n/a	n/a	5	[2, 1, 7]	10	PAL1	1	R1276D
541.933	2.567	550957	PROB	2.539	n/a	-999	-999	n/a	n/a	n/a	n/a	5	[8, 2, 4]	14	PAL1	1	R1276D
544.5	3.249	553524	PROB	3.219	n/a	-999	-999	n/a	n/a	n/a	n/a	5	[7, 6, 3]	16	PAL1	1	R1276D
547.749	16.379	556773	PROB	16.379	n/a	-999	-999	n/a	n/a	n/a	n/a	5	[9, 8, 8]	25	PAL1	1	R1276D
564.128	0.009	573151	STOP	n/a	n/a	-999	-999	n/a	n/a	n/a	n/a	5	[-999, -999, -999]	-999	PAL1	1	R1276D
564.137	0.0	573160	RECALL_START	n/a	n/a	-999	-999	n/a	n/a	n/a	n/a	4	[0, 0, 0]	-999	PAL1	1	R1276D
564.137	0.016	573160	MATH_END	n/a	n/a	-999	-999	n/a	n/a	n/a	n/a	4	[0, 0, 0]	-999	PAL1	1	R1276D
564.153	0.267	573176	TEST_ORIENT	n/a	n/a	3	1	YARD	PASS	SNAKE	YARD	4	[0, 0, 0]	-999	PAL1	1	R1276D
564.42	0.667	573443	RETRIEVAL_ORIENT_OFF	n/a	n/a	-999	-999	n/a	n/a	n/a	n/a	4	[0, 0, 0]	-999	PAL1	1	R1276D
565.087	4.0	574110	TEST_PROBE	n/a	wordpools/wordpool_EN.txt	3	1	YARD	PASS	SNAKE	YARD	4	[0, 0, 0]	-999	PAL1	1	R1276D
565.088	2.184	574111	REC_START	n/a	n/a	3	-999	n/a	PASS	n/a	n/a	4	[0, 0, 0]	-999	PAL1	1	R1276D
567.272	0.615	576295	REC_EVENT	2.184	n/a	3	1	YARD	<>	SNAKE	YARD	4	[0, 0, 0]	-999	PAL1	1	R1276D
567.887	1.217	576910	REC_EVENT	2.799	n/a	3	1	YARD	PASS	SNAKE	YARD	4	[0, 0, 0]	-999	PAL1	1	R1276D
569.104	1.0	578127	PROBE_OFF	n/a	n/a	3	-999	n/a	n/a	n/a	n/a	4	[0, 0, 0]	-999	PAL1	1	R1276D
570.104	0.017	579127	REC_END	n/a	n/a	3	-999	n/a	n/a	n/a	n/a	4	[0, 0, 0]	-999	PAL1	1	R1276D
570.121	0.267	579144	TEST_ORIENT	n/a	n/a	6	2	LAMB	BOOK	BOOK	LAMB	4	[0, 0, 0]	-999	PAL1	1	R1276D
570.388	0.517	579411	RETRIEVAL_ORIENT_OFF	n/a	n/a	3	-999	n/a	n/a	n/a	n/a	4	[0, 0, 0]	-999	PAL1	1	R1276D
570.905	4.0	579928	TEST_PROBE	n/a	wordpools/wordpool_EN.txt	6	2	LAMB	BOOK	BOOK	LAMB	4	[0, 0, 0]	-999	PAL1	1	R1276D
570.905	1.48	579928	REC_START	n/a	n/a	6	-999	n/a	BOOK	n/a	n/a	4	[0, 0, 0]	-999	PAL1	1	R1276D
572.385	2.537	581408	REC_EVENT	1.48	n/a	6	2	LAMB	BOOK	BOOK	LAMB	4	[0, 0, 0]	-999	PAL1	1	R1276D
574.922	1.0	583944	PROBE_OFF	n/a	n/a	6	-999	n/a	n/a	n/a	n/a	4	[0, 0, 0]	-999	PAL1	1	R1276D
575.922	0.017	584944	REC_END	n/a	n/a	6	-999	n/a	n/a	n/a	n/a	4	[0, 0, 0]	-999	PAL1	1	R1276D
575.939	0.267	584961	TEST_ORIENT	n/a	n/a	5	3	MOLE	HAT	MOLE	HAT	4	[0, 0, 0]	-999	PAL1	1	R1276D
576.206	0.565	585228	RETRIEVAL_ORIENT_OFF	n/a	n/a	6	-999	n/a	n/a	n/a	n/a	4	[0, 0, 0]	-999	PAL1	1	R1276D
576.771	4.0	585793	TEST_PROBE	n/a	wordpools/wordpool_EN.txt	5	3	MOLE	HAT	MOLE	HAT	4	[0, 0, 0]	-999	PAL1	1	R1276D
576.772	1.046	585794	REC_START	n/a	n/a	5	-999	n/a	HAT	n/a	n/a	4	[0, 0, 0]	-999	PAL1	1	R1276D
577.818	2.971	586840	REC_EVENT	1.046	n/a	5	3	MOLE	HAT	MOLE	HAT	4	[0, 0, 0]	-999	PAL1	1	R1276D
580.789	1.011	589811	PROBE_OFF	n/a	n/a	5	-999	n/a	n/a	n/a	n/a	4	[0, 0, 0]	-999	PAL1	1	R1276D
581.8	0.022	590822	REC_END	n/a	n/a	5	-999	n/a	n/a	n/a	n/a	4	[0, 0, 0]	-999	PAL1	1	R1276D
581.822	0.268	590844	TEST_ORIENT	n/a	n/a	2	4	TANK	SWORD	TANK	SWORD	4	[0, 0, 0]	-999	PAL1	1	R1276D
582.09	0.766	591112	RETRIEVAL_ORIENT_OFF	n/a	n/a	5	-999	n/a	n/a	n/a	n/a	4	[0, 0, 0]	-999	PAL1	1	R1276D
582.856	4.0	591878	TEST_PROBE	n/a	wordpools/wordpool_EN.txt	2	4	TANK	SWORD	TANK	SWORD	4	[0, 0, 0]	-999	PAL1	1	R1276D
582.857	1.149	591879	REC_START	n/a	n/a	2	-999	n/a	SWORD	n/a	n/a	4	[0, 0, 0]	-999	PAL1	1	R1276D
584.006	2.868	593028	REC_EVENT	1.149	n/a	2	4	TANK	SWORD	TANK	SWORD	4	[0, 0, 0]	-999	PAL1	1	R1276D
586.874	1.0	595896	PROBE_OFF	n/a	n/a	2	-999	n/a	n/a	n/a	n/a	4	[0, 0, 0]	-999	PAL1	1	R1276D
587.874	0.017	596896	REC_END	n/a	n/a	2	-999	n/a	n/a	n/a	n/a	4	[0, 0, 0]	-999	PAL1	1	R1276D
587.891	0.267	596913	TEST_ORIENT	n/a	n/a	1	5	CHEEK	COIN	COIN	CHEEK	4	[0, 0, 0]	-999	PAL1	1	R1276D
588.158	0.666	597180	RETRIEVAL_ORIENT_OFF	n/a	n/a	2	-999	n/a	n/a	n/a	n/a	4	[0, 0, 0]	-999	PAL1	1	R1276D
588.824	4.0	597846	TEST_PROBE	n/a	wordpools/wordpool_EN.txt	1	5	CHEEK	COIN	COIN	CHEEK	4	[0, 0, 0]	-999	PAL1	1	R1276D
588.824	1.246	597846	REC_START	n/a	n/a	1	-999	n/a	COIN	n/a	n/a	4	[0, 0, 0]	-999	PAL1	1	R1276D
590.07	2.771	599092	REC_EVENT	1.246	n/a	1	5	CHEEK	COIN	COIN	CHEEK	4	[0, 0, 0]	-999	PAL1	1	R1276D
592.841	1.001	601862	PROBE_OFF	n/a	n/a	1	-999	n/a	n/a	n/a	n/a	4	[0, 0, 0]	-999	PAL1	1	R1276D
593.842	0.016	602863	REC_END	n/a	n/a	1	-999	n/a	n/a	n/a	n/a	4	[0, 0, 0]	-999	PAL1	1	R1276D
593.858	0.268	602879	TEST_ORIENT	n/a	n/a	4	6	CLOTH	PASS	TOAST	CLOTH	4	[0, 0, 0]	-999	PAL1	1	R1276D
594.126	0.682	603147	RETRIEVAL_ORIENT_OFF	n/a	n/a	1	-999	n/a	n/a	n/a	n/a	4	[0, 0, 0]	-999	PAL1	1	R1276D
594.808	4.0	603829	TEST_PROBE	n/a	wordpools/wordpool_EN.txt	4	6	CLOTH	PASS	TOAST	CLOTH	4	[0, 0, 0]	-999	PAL1	1	R1276D
594.809	2.702	603830	REC_START	n/a	n/a	4	-999	n/a	PASS	n/a	n/a	4	[0, 0, 0]	-999	PAL1	1	R1276D
597.511	1.315	606532	REC_EVENT	2.702	n/a	4	6	CLOTH	PASS	TOAST	CLOTH	4	[0, 0, 0]	-999	PAL1	1	R1276D
598.826	1.009	607847	PROBE_OFF	n/a	n/a	4	-999	n/a	n/a	n/a	n/a	4	[0, 0, 0]	-999	PAL1	1	R1276D
599.835	0.003	608856	REC_END	n/a	n/a	4	-999	n/a	n/a	n/a	n/a	4	[0, 0, 0]	-999	PAL1	1	R1276D
599.838	6.473	608859	RECALL_END	n/a	n/a	-999	-999	n/a	n/a	n/a	n/a	4	[0, 0, 0]	-999	PAL1	1	R1276D
606.311	10.929	615332	TRIAL	n/a	n/a	-999	-999	n/a	n/a	n/a	n/a	5	[0, 0, 0]	-999	PAL1	1	R1276D
617.24	0.007	626260	ENCODING_START	n/a	n/a	-999	-999	n/a	n/a	n/a	n/a	5	[0, 0, 0]	-999	PAL1	1	R1276D
617.247	0.266	626267	STUDY_ORIENT	n/a	n/a	1	5	BRICK	PIN	BRICK	PIN	5	[0, 0, 0]	-999	PAL1	1	R1276D
617.513	0.6	626533	STUDY_ORIENT_OFF	n/a	n/a	1	5	BRICK	PIN	BRICK	PIN	5	[0, 0, 0]	-999	PAL1	1	R1276D
618.113	4.0	627133	STUDY_PAIR	n/a	wordpools/wordpool_EN.txt	1	5	BRICK	PIN	BRICK	PIN	5	[0, 0, 0]	-999	PAL1	1	R1276D
622.131	1.017	631151	PAIR_OFF	n/a	n/a	1	5	BRICK	PIN	BRICK	PIN	5	[0, 0, 0]	-999	PAL1	1	R1276D
623.148	0.266	632168	STUDY_ORIENT	n/a	n/a	2	4	GUARD	JEEP	JEEP	GUARD	5	[0, 0, 0]	-999	PAL1	1	R1276D
623.414	0.567	632434	STUDY_ORIENT_OFF	n/a	n/a	2	4	GUARD	JEEP	JEEP	GUARD	5	[0, 0, 0]	-999	PAL1	1	R1276D
623.981	4.0	633001	STUDY_PAIR	n/a	wordpools/wordpool_EN.txt	2	4	GUARD	JEEP	JEEP	GUARD	5	[0, 0, 0]	-999	PAL1	1	R1276D
627.999	1.016	637018	PAIR_OFF	n/a	n/a	2	4	GUARD	JEEP	JEEP	GUARD	5	[0, 0, 0]	-999	PAL1	1	R1276D
629.015	0.267	638034	STUDY_ORIENT	n/a	n/a	3	1	LAND	PASS	SHIRT	LAND	5	[0, 0, 0]	-999	PAL1	1	R1276D
629.282	0.617	638301	STUDY_ORIENT_OFF	n/a	n/a	3	1	LAND	PASS	SHIRT	LAND	5	[0, 0, 0]	-999	PAL1	1	R1276D
629.899	4.0	638918	STUDY_PAIR	n/a	wordpools/wordpool_EN.txt	3	1	LAND	PASS	SHIRT	LAND	5	[0, 0, 0]	-999	PAL1	1	R1276D
633.916	1.017	642935	PAIR_OFF	n/a	n/a	3	1	LAND	PASS	SHIRT	LAND	5	[0, 0, 0]	-999	PAL1	1	R1276D
634.933	0.267	643952	STUDY_ORIENT	n/a	n/a	4	2	TEETH	TEA	TEA	TEETH	5	[0, 0, 0]	-999	PAL1	1	R1276D
635.2	0.549	644219	STUDY_ORIENT_OFF	n/a	n/a	4	2	TEETH	TEA	TEA	TEETH	5	[0, 0, 0]	-999	PAL1	1	R1276D
635.749	4.0	644768	STUDY_PAIR	n/a	wordpools/wordpool_EN.txt	4	2	TEETH	TEA	TEA	TEETH	5	[0, 0, 0]	-999	PAL1	1	R1276D
639.766	1.017	648785	PAIR_OFF	n/a	n/a	4	2	TEETH	TEA	TEA	TEETH	5	[0, 0, 0]	-999	PAL1	1	R1276D
640.783	0.251	649802	STUDY_ORIENT	n/a	n/a	5	3	PIT	BADGE	PIT	BADGE	5	[0, 0, 0]	-999	PAL1	1	R1276D
641.034	0.749	650053	STUDY_ORIENT_OFF	n/a	n/a	5	3	PIT	BADGE	PIT	BADGE	5	[0, 0, 0]	-999	PAL1	1	R1276D
641.783	4.0	650802	STUDY_PAIR	n/a	wordpools/wordpool_EN.txt	5	3	PIT	BADGE	PIT	BADGE	5	[0, 0, 0]	-999	PAL1	1	R1276D
645.801	1.017	654819	PAIR_OFF	n/a	n/a	5	3	PIT	BADGE	PIT	BADGE	5	[0, 0, 0]	-999	PAL1	1	R1276D
646.818	0.267	655836	STUDY_ORIENT	n/a	n/a	6	6	LAKE	BENCH	BENCH	LAKE	5	[0, 0, 0]	-999	PAL1	1	R1276D
647.085	0.75	656103	STUDY_ORIENT_OFF	n/a	n/a	6	6	LAKE	BENCH	BENCH	LAKE	5	[0, 0, 0]	-999	PAL1	1	R1276D
647.835	4.0	656853	STUDY_PAIR	n/a	wordpools/wordpool_EN.txt	6	6	LAKE	BENCH	BENCH	LAKE	5	[0, 0, 0]	-999	PAL1	1	R1276D
651.852	1.001	660870	PAIR_OFF	n/a	n/a	6	6	LAKE	BENCH	BENCH	LAKE	5	[0, 0, 0]	-999	PAL1	1	R1276D
652.853	0.0	661871	ENCODING_END	n/a	n/a	-999	-999	n/a	n/a	n/a	n/a	5	[0, 0, 0]	-999	PAL1	1	R1276D
652.853	0.0	661871	MATH_START	n/a	n/a	-999	-999	n/a	n/a	n/a	n/a	5	[0, 0, 0]	-999	PAL1	1	R1276D
652.853	0.017	661871	START	n/a	n/a	-999	-999	n/a	n/a	n/a	n/a	6	[-999, -999, -999]	-999	PAL1	1	R1276D
652.87	3.866	661888	PROB	3.841	n/a	-999	-999	n/a	n/a	n/a	n/a	6	[5, 8, 1]	14	PAL1	1	R1276D
656.736	3.901	665754	PROB	3.864	n/a	-999	-999	n/a	n/a	n/a	n/a	6	[7, 4, 8]	19	PAL1	1	R1276D
660.637	3.702	669655	PROB	3.676	n/a	-999	-999	n/a	n/a	n/a	n/a	6	[7, 5, 4]	16	PAL1	1	R1276D
664.339	4.299	673356	PROB	4.269	n/a	-999	-999	n/a	n/a	n/a	n/a	6	[6, 9, 7]	22	PAL1	1	R1276D
668.638	3.735	677655	PROB	3.699	n/a	-999	-999	n/a	n/a	n/a	n/a	6	[6, 7, 1]	14	PAL1	1	R1276D
672.373	3.691	681390	PROB	3.691	n/a	-999	-999	n/a	n/a	n/a	n/a	6	[3, 1, 4]	8	PAL1	1	R1276D
676.064	0.01	685081	STOP	n/a	n/a	-999	-999	n/a	n/a	n/a	n/a	6	[-999, -999, -999]	-999	PAL1	1	R1276D
676.074	0.0	685091	MATH_END	n/a	n/a	-999	-999	n/a	n/a	n/a	n/a	5	[0, 0, 0]	-999	PAL1	1	R1276D
676.074	0.017	685091	RECALL_START	n/a	n/a	-999	-999	n/a	n/a	n/a	n/a	5	[0, 0, 0]	-999	PAL1	1	R1276D
676.091	0.267	685108	TEST_ORIENT	n/a	n/a	3	1	LAND	PASS	SHIRT	LAND	5	[0, 0, 0]	-999	PAL1	1	R1276D
676.358	0.533	685375	RETRIEVAL_ORIENT_OFF	n/a	n/a	-999	-999	n/a	n/a	n/a	n/a	5	[0, 0, 0]	-999	PAL1	1	R1276D
676.891	4.0	685908	TEST_PROBE	n/a	wordpools/wordpool_EN.txt	3	1	LAND	PASS	SHIRT	LAND	5	[0, 0, 0]	-999	PAL1	1	R1276D
676.892	3.622	685909	REC_START	n/a	n/a	3	-999	n/a	PASS	n/a	n/a	5	[0, 0, 0]	-999	PAL1	1	R1276D
680.514	0.328	689531	REC_EVENT	3.622	n/a	3	1	LAND	<>	SHIRT	LAND	5	[0, 0, 0]	-999	PAL1	1	R1276D
680.842	0.066	689859	REC_EVENT	3.95	n/a	3	1	LAND	PASS	SHIRT	LAND	5	[0, 0, 0]	-999	PAL1	1	R1276D
680.908	1.0	689925	PROBE_OFF	n/a	n/a	3	-999	n/a	n/a	n/a	n/a	5	[0, 0, 0]	-999	PAL1	1	R1276D
681.908	0.017	690924	REC_END	n/a	n/a	3	-999	n/a	n/a	n/a	n/a	5	[0, 0, 0]	-999	PAL1	1	R1276D
681.925	0.267	690941	TEST_ORIENT	n/a	n/a	4	2	TEETH	TEA	TEA	TEETH	5	[0, 0, 0]	-999	PAL1	1	R1276D
682.192	0.532	691208	RETRIEVAL_ORIENT_OFF	n/a	n/a	3	-999	n/a	n/a	n/a	n/a	5	[0, 0, 0]	-999	PAL1	1	R1276D
682.724	4.0	691740	TEST_PROBE	n/a	wordpools/wordpool_EN.txt	4	2	TEETH	TEA	TEA	TEETH	5	[0, 0, 0]	-999	PAL1	1	R1276D
682.725	1.331	691741	REC_START	n/a	n/a	4	-999	n/a	TEA	n/a	n/a	5	[0, 0, 0]	-999	PAL1	1	R1276D
684.056	2.686	693072	REC_EVENT	1.331	n/a	4	2	TEETH	TEA	TEA	TEETH	5	[0, 0, 0]	-999	PAL1	1	R1276D
686.742	1.0	695758	PROBE_OFF	n/a	n/a	4	-999	n/a	n/a	n/a	n/a	5	[0, 0, 0]	-999	PAL1	1	R1276D
687.742	0.017	696758	REC_END	n/a	n/a	4	-999	n/a	n/a	n/a	n/a	5	[0, 0, 0]	-999	PAL1	1	R1276D
687.759	0.267	696775	TEST_ORIENT	n/a	n/a	5	3	PIT	BADGE	PIT	BADGE	5	[0, 0, 0]	-999	PAL1	1	R1276D
688.026	0.749	697042	RETRIEVAL_ORIENT_OFF	n/a	n/a	4	-999	n/a	n/a	n/a	n/a	5	[0, 0, 0]	-999	PAL1	1	R1276D
688.775	4.0	697791	TEST_PROBE	n/a	wordpools/wordpool_EN.txt	5	3	PIT	BADGE	PIT	BADGE	5	[0, 0, 0]	-999	PAL1	1	R1276D
688.776	1.335	697792	REC_START	n/a	n/a	5	-999	n/a	BADGE	n/a	n/a	5	[0, 0, 0]	-999	PAL1	1	R1276D
690.111	2.682	699127	REC_EVENT	1.335	n/a	5	3	PIT	BADGE	PIT	BADGE	5	[0, 0, 0]	-999	PAL1	1	R1276D
692.793	1.0	701809	PROBE_OFF	n/a	n/a	5	-999	n/a	n/a	n/a	n/a	5	[0, 0, 0]	-999	PAL1	1	R1276D
693.793	0.017	702809	REC_END	n/a	n/a	5	-999	n/a	n/a	n/a	n/a	5	[0, 0, 0]	-999	PAL1	1	R1276D
693.81	0.267	702826	TEST_ORIENT	n/a	n/a	2	4	GUARD	JEEP	JEEP	GUARD	5	[0, 0, 0]	-999	PAL1	1	R1276D
694.077	0.683	703093	RETRIEVAL_ORIENT_OFF	n/a	n/a	5	-999	n/a	n/a	n/a	n/a	5	[0, 0, 0]	-999	PAL1	1	R1276D
694.76	4.0	703776	TEST_PROBE	n/a	wordpools/wordpool_EN.txt	2	4	GUARD	JEEP	JEEP	GUARD	5	[0, 0, 0]	-999	PAL1	1	R1276D
694.76	1.271	703776	REC_START	n/a	n/a	2	-999	n/a	JEEP	n/a	n/a	5	[0, 0, 0]	-999	PAL1	1	R1276D
696.031	2.746	705047	REC_EVENT	1.271	n/a	2	4	GUARD	JEEP	JEEP	GUARD	5	[0, 0, 0]	-999	PAL1	1	R1276D
698.777	1.0	707793	PROBE_OFF	n/a	n/a	2	-999	n/a	n/a	n/a	n/a	5	[0, 0, 0]	-999	PAL1	1	R1276D
699.777	0.017	708792	REC_END	n/a	n/a	2	-999	n/a	n/a	n/a	n/a	5	[0, 0, 0]	-999	PAL1	1	R1276D
699.794	0.268	708809	TEST_ORIENT	n/a	n/a	1	5	BRICK	PIN	BRICK	PIN	5	[0, 0, 0]	-999	PAL1	1	R1276D
700.062	0.699	709077	RETRIEVAL_ORIENT_OFF	n/a	n/a	2	-999	n/a	n/a	n/a	n/a	5	[0, 0, 0]	-999	PAL1	1	R1276D
700.761	4.0	709776	TEST_PROBE	n/a	wordpools/wordpool_EN.txt	1	5	BRICK	PIN	BRICK	PIN	5	[0, 0, 0]	-999	PAL1	1	R1276D
700.762	2.713	709777	REC_START	n/a	n/a	1	-999	n/a	PIN	n/a	n/a	5	[0, 0, 0]	-999	PAL1	1	R1276D
703.475	1.303	712490	REC_EVENT	2.713	n/a	1	5	BRICK	PIN	BRICK	PIN	5	[0, 0, 0]	-999	PAL1	1	R1276D
704.778	1.001	713793	PROBE_OFF	n/a	n/a	1	-999	n/a	n/a	n/a	n/a	5	[0, 0, 0]	-999	PAL1	1	R1276D
705.779	0.016	714794	REC_END	n/a	n/a	1	-999	n/a	n/a	n/a	n/a	5	[0, 0, 0]	-999	PAL1	1	R1276D
705.795	0.268	714810	TEST_ORIENT	n/a	n/a	6	6	LAKE	BENCH	BENCH	LAKE	5	[0, 0, 0]	-999	PAL1	1	R1276D
706.063	0.516	715078	RETRIEVAL_ORIENT_OFF	n/a	n/a	1	-999	n/a	n/a	n/a	n/a	5	[0, 0, 0]	-999	PAL1	1	R1276D
706.579	4.0	715594	TEST_PROBE	n/a	wordpools/wordpool_EN.txt	6	6	LAKE	BENCH	BENCH	LAKE	5	[0, 0, 0]	-999	PAL1	1	R1276D
706.579	1.334	715594	REC_START	n/a	n/a	6	-999	n/a	BENCH	n/a	n/a	5	[0, 0, 0]	-999	PAL1	1	R1276D
707.913	2.683	716928	REC_EVENT	1.334	n/a	6	6	LAKE	BENCH	BENCH	LAKE	5	[0, 0, 0]	-999	PAL1	1	R1276D
710.596	1.0	719611	PROBE_OFF	n/a	n/a	6	-999	n/a	n/a	n/a	n/a	5	[0, 0, 0]	-999	PAL1	1	R1276D
711.596	0.004	720611	REC_END	n/a	n/a	6	-999	n/a	n/a	n/a	n/a	5	[0, 0, 0]	-999	PAL1	1	R1276D
711.6	5.315	720615	RECALL_END	n/a	n/a	-999	-999	n/a	n/a	n/a	n/a	5	[0, 0, 0]	-999	PAL1	1	R1276D
716.915	10.928	725930	TRIAL	n/a	n/a	-999	-999	n/a	n/a	n/a	n/a	6	[0, 0, 0]	-999	PAL1	1	R1276D
727.843	0.006	736857	ENCODING_START	n/a	n/a	-999	-999	n/a	n/a	n/a	n/a	6	[0, 0, 0]	-999	PAL1	1	R1276D
727.849	0.251	736863	STUDY_ORIENT	n/a	n/a	1	1	BRIDGE	SHIELD	SHIELD	BRIDGE	6	[0, 0, 0]	-999	PAL1	1	R1276D
728.1	0.699	737114	STUDY_ORIENT_OFF	n/a	n/a	1	1	BRIDGE	SHIELD	SHIELD	BRIDGE	6	[0, 0, 0]	-999	PAL1	1	R1276D
728.799	4.0	737813	STUDY_PAIR	n/a	wordpools/wordpool_EN.txt	1	1	BRIDGE	SHIELD	SHIELD	BRIDGE	6	[0, 0, 0]	-999	PAL1	1	R1276D
732.8	1.017	741814	PAIR_OFF	n/a	n/a	1	1	BRIDGE	SHIELD	SHIELD	BRIDGE	6	[0, 0, 0]	-999	PAL1	1	R1276D
733.817	0.251	742831	STUDY_ORIENT	n/a	n/a	2	4	GRASS	ROSE	GRASS	ROSE	6	[0, 0, 0]	-999	PAL1	1	R1276D
734.068	0.632	743082	STUDY_ORIENT_OFF	n/a	n/a	2	4	GRASS	ROSE	GRASS	ROSE	6	[0, 0, 0]	-999	PAL1	1	R1276D
734.7	4.0	743714	STUDY_PAIR	n/a	wordpools/wordpool_EN.txt	2	4	GRASS	ROSE	GRASS	ROSE	6	[0, 0, 0]	-999	PAL1	1	R1276D
738.701	1.017	747714	PAIR_OFF	n/a	n/a	2	4	GRASS	ROSE	GRASS	ROSE	6	[0, 0, 0]	-999	PAL1	1	R1276D
739.718	0.268	748731	STUDY_ORIENT	n/a	n/a	3	5	STORE	FLUTE	STORE	FLUTE	6	[0, 0, 0]	-999	PAL1	1	R1276D
739.986	0.599	748999	STUDY_ORIENT_OFF	n/a	n/a	3	5	STORE	FLUTE	STORE	FLUTE	6	[0, 0, 0]	-999	PAL1	1	R1276D
740.585	4.0	749598	STUDY_PAIR	n/a	wordpools/wordpool_EN.txt	3	5	STORE	FLUTE	STORE	FLUTE	6	[0, 0, 0]	-999	PAL1	1	R1276D
744.602	1.017	753615	PAIR_OFF	n/a	n/a	3	5	STORE	FLUTE	STORE	FLUTE	6	[0, 0, 0]	-999	PAL1	1	R1276D
745.619	0.268	754632	STUDY_ORIENT	n/a	n/a	4	2	CORD	PASS	CORD	TOAD	6	[0, 0, 0]	-999	PAL1	1	R1276D
745.887	0.732	754900	STUDY_ORIENT_OFF	n/a	n/a	4	2	CORD	PASS	CORD	TOAD	6	[0, 0, 0]	-999	PAL1	1	R1276D
746.619	4.0	755632	STUDY_PAIR	n/a	wordpools/wordpool_EN.txt	4	2	CORD	PASS	CORD	TOAD	6	[0, 0, 0]	-999	PAL1	1	R1276D
750.637	1.017	759650	PAIR_OFF	n/a	n/a	4	2	CORD	PASS	CORD	TOAD	6	[0, 0, 0]	-999	PAL1	1	R1276D
751.654	0.267	760667	STUDY_ORIENT	n/a	n/a	5	3	STRAW	PASS	STRAW	TRAY	6	[0, 0, 0]	-999	PAL1	1	R1276D
751.921	0.551	760934	STUDY_ORIENT_OFF	n/a	n/a	5	3	STRAW	PASS	STRAW	TRAY	6	[0, 0, 0]	-999	PAL1	1	R1276D
752.472	4.0	761485	STUDY_PAIR	n/a	wordpools/wordpool_EN.txt	5	3	STRAW	PASS	STRAW	TRAY	6	[0, 0, 0]	-999	PAL1	1	R1276D
756.489	1.017	765501	PAIR_OFF	n/a	n/a	5	3	STRAW	PASS	STRAW	TRAY	6	[0, 0, 0]	-999	PAL1	1	R1276D
757.506	0.266	766518	STUDY_ORIENT	n/a	n/a	6	6	KITE	SPRING	KITE	SPRING	6	[0, 0, 0]	-999	PAL1	1	R1276D
757.772	0.751	766784	STUDY_ORIENT_OFF	n/a	n/a	6	6	KITE	SPRING	KITE	SPRING	6	[0, 0, 0]	-999	PAL1	1	R1276D
758.523	4.0	767535	STUDY_PAIR	n/a	wordpools/wordpool_EN.txt	6	6	KITE	SPRING	KITE	SPRING	6	[0, 0, 0]	-999	PAL1	1	R1276D
762.54	1.0	771552	PAIR_OFF	n/a	n/a	6	6	KITE	SPRING	KITE	SPRING	6	[0, 0, 0]	-999	PAL1	1	R1276D
763.54	0.0	772552	ENCODING_END	n/a	n/a	-999	-999	n/a	n/a	n/a	n/a	6	[0, 0, 0]	-999	PAL1	1	R1276D
763.54	0.0	772552	MATH_START	n/a	n/a	-999	-999	n/a	n/a	n/a	n/a	6	[0, 0, 0]	-999	PAL1	1	R1276D
763.54	0.017	772552	START	n/a	n/a	-999	-999	n/a	n/a	n/a	n/a	7	[-999, -999, -999]	-999	PAL1	1	R1276D
763.557	3.867	772569	PROB	3.835	n/a	-999	-999	n/a	n/a	n/a	n/a	7	[5, 7, 4]	16	PAL1	1	R1276D
767.424	3.884	776436	PROB	3.849	n/a	-999	-999	n/a	n/a	n/a	n/a	7	[6, 2, 4]	12	PAL1	1	R1276D
771.308	6.101	780319	PROB	6.077	n/a	-999	-999	n/a	n/a	n/a	n/a	7	[8, 8, 7]	22	PAL1	1	R1276D
777.409	4.151	786420	PROB	4.12	n/a	-999	-999	n/a	n/a	n/a	n/a	7	[9, 7, 6]	22	PAL1	1	R1276D
781.56	3.136	790571	PROB	3.136	n/a	-999	-999	n/a	n/a	n/a	n/a	7	[6, 4, 8]	18	PAL1	1	R1276D
784.696	0.014	793707	STOP	n/a	n/a	-999	-999	n/a	n/a	n/a	n/a	7	[-999, -999, -999]	-999	PAL1	1	R1276D
784.71	0.0	793721	RECALL_START	n/a	n/a	-999	-999	n/a	n/a	n/a	n/a	6	[0, 0, 0]	-999	PAL1	1	R1276D
784.71	0.016	793721	MATH_END	n/a	n/a	-999	-999	n/a	n/a	n/a	n/a	6	[0, 0, 0]	-999	PAL1	1	R1276D
784.726	0.268	793737	TEST_ORIENT	n/a	n/a	1	1	BRIDGE	SHIELD	SHIELD	BRIDGE	6	[0, 0, 0]	-999	PAL1	1	R1276D
784.994	0.749	794005	RETRIEVAL_ORIENT_OFF	n/a	n/a	-999	-999	n/a	n/a	n/a	n/a	6	[0, 0, 0]	-999	PAL1	1	R1276D
785.743	4.0	794754	TEST_PROBE	n/a	wordpools/wordpool_EN.txt	1	1	BRIDGE	SHIELD	SHIELD	BRIDGE	6	[0, 0, 0]	-999	PAL1	1	R1276D
785.744	3.637	794755	REC_START	n/a	n/a	1	-999	n/a	SHIELD	n/a	n/a	6	[0, 0, 0]	-999	PAL1	1	R1276D
789.381	0.363	798391	REC_EVENT	3.637	n/a	1	1	BRIDGE	SHIELD	SHIELD	BRIDGE	6	[0, 0, 0]	-999	PAL1	1	R1276D
789.744	1.009	798754	PROBE_OFF	n/a	n/a	1	-999	n/a	n/a	n/a	n/a	6	[0, 0, 0]	-999	PAL1	1	R1276D
790.753	0.008	799763	REC_END	n/a	n/a	1	-999	n/a	n/a	n/a	n/a	6	[0, 0, 0]	-999	PAL1	1	R1276D
790.761	0.251	799771	TEST_ORIENT	n/a	n/a	4	2	CORD	PASS	CORD	TOAD	6	[0, 0, 0]	-999	PAL1	1	R1276D
791.012	0.682	800022	RETRIEVAL_ORIENT_OFF	n/a	n/a	1	-999	n/a	n/a	n/a	n/a	6	[0, 0, 0]	-999	PAL1	1	R1276D
791.694	4.0	800704	TEST_PROBE	n/a	wordpools/wordpool_EN.txt	4	2	CORD	PASS	CORD	TOAD	6	[0, 0, 0]	-999	PAL1	1	R1276D
791.695	3.288	800705	REC_START	n/a	n/a	4	-999	n/a	PASS	n/a	n/a	6	[0, 0, 0]	-999	PAL1	1	R1276D
794.983	0.729	803993	REC_EVENT	3.288	n/a	4	2	CORD	PASS	CORD	TOAD	6	[0, 0, 0]	-999	PAL1	1	R1276D
795.712	1.0	804722	PROBE_OFF	n/a	n/a	4	-999	n/a	n/a	n/a	n/a	6	[0, 0, 0]	-999	PAL1	1	R1276D
796.712	0.017	805722	REC_END	n/a	n/a	4	-999	n/a	n/a	n/a	n/a	6	[0, 0, 0]	-999	PAL1	1	R1276D
796.729	0.267	805739	TEST_ORIENT	n/a	n/a	5	3	STRAW	PASS	STRAW	TRAY	6	[0, 0, 0]	-999	PAL1	1	R1276D
796.996	0.616	806006	RETRIEVAL_ORIENT_OFF	n/a	n/a	4	-999	n/a	n/a	n/a	n/a	6	[0, 0, 0]	-999	PAL1	1	R1276D
797.612	4.0	806622	TEST_PROBE	n/a	wordpools/wordpool_EN.txt	5	3	STRAW	PASS	STRAW	TRAY	6	[0, 0, 0]	-999	PAL1	1	R1276D
797.613	2.786	806623	REC_START	n/a	n/a	5	-999	n/a	PASS	n/a	n/a	6	[0, 0, 0]	-999	PAL1	1	R1276D
800.399	1.231	809409	REC_EVENT	2.786	n/a	5	3	STRAW	<>	STRAW	TRAY	6	[0, 0, 0]	-999	PAL1	1	R1276D
801.63	0.313	810640	PROBE_OFF	n/a	n/a	5	-999	n/a	n/a	n/a	n/a	6	[0, 0, 0]	-999	PAL1	1	R1276D
801.943	0.687	810953	REC_EVENT	4.33	n/a	5	3	STRAW	PASS	STRAW	TRAY	6	[0, 0, 0]	-999	PAL1	1	R1276D
802.63	0.016	811640	REC_END	n/a	n/a	5	-999	n/a	n/a	n/a	n/a	6	[0, 0, 0]	-999	PAL1	1	R1276D
802.646	0.268	811656	TEST_ORIENT	n/a	n/a	2	4	GRASS	ROSE	GRASS	ROSE	6	[0, 0, 0]	-999	PAL1	1	R1276D
802.914	0.55	811924	RETRIEVAL_ORIENT_OFF	n/a	n/a	5	-999	n/a	n/a	n/a	n/a	6	[0, 0, 0]	-999	PAL1	1	R1276D
803.464	4.0	812474	TEST_PROBE	n/a	wordpools/wordpool_EN.txt	2	4	GRASS	ROSE	GRASS	ROSE	6	[0, 0, 0]	-999	PAL1	1	R1276D
803.465	1.157	812475	REC_START	n/a	n/a	2	-999	n/a	ROSE	n/a	n/a	6	[0, 0, 0]	-999	PAL1	1	R1276D
804.622	2.86	813632	REC_EVENT	1.157	n/a	2	4	GRASS	ROSE	GRASS	ROSE	6	[0, 0, 0]	-999	PAL1	1	R1276D
807.482	1.0	816491	PROBE_OFF	n/a	n/a	2	-999	n/a	n/a	n/a	n/a	6	[0, 0, 0]	-999	PAL1	1	R1276D
808.482	0.017	817491	REC_END	n/a	n/a	2	-999	n/a	n/a	n/a	n/a	6	[0, 0, 0]	-999	PAL1	1	R1276D
808.499	0.265	817508	TEST_ORIENT	n/a	n/a	3	5	STORE	FLUTE	STORE	FLUTE	6	[0, 0, 0]	-999	PAL1	1	R1276D
808.764	0.718	817773	RETRIEVAL_ORIENT_OFF	n/a	n/a	2	-999	n/a	n/a	n/a	n/a	6	[0, 0, 0]	-999	PAL1	1	R1276D
809.482	4.0	818491	TEST_PROBE	n/a	wordpools/wordpool_EN.txt	3	5	STORE	FLUTE	STORE	FLUTE	6	[0, 0, 0]	-999	PAL1	1	R1276D
809.482	3.122	818491	REC_START	n/a	n/a	3	-999	n/a	FLUTE	n/a	n/a	6	[0, 0, 0]	-999	PAL1	1	R1276D
812.604	0.895	821613	REC_EVENT	3.122	n/a	3	5	STORE	FLUTE	STORE	FLUTE	6	[0, 0, 0]	-999	PAL1	1	R1276D
813.499	1.0	822508	PROBE_OFF	n/a	n/a	3	-999	n/a	n/a	n/a	n/a	6	[0, 0, 0]	-999	PAL1	1	R1276D
814.499	0.017	823508	REC_END	n/a	n/a	3	-999	n/a	n/a	n/a	n/a	6	[0, 0, 0]	-999	PAL1	1	R1276D
814.516	0.266	823525	TEST_ORIENT	n/a	n/a	6	6	KITE	SPRING	KITE	SPRING	6	[0, 0, 0]	-999	PAL1	1	R1276D
814.782	0.634	823791	RETRIEVAL_ORIENT_OFF	n/a	n/a	3	-999	n/a	n/a	n/a	n/a	6	[0, 0, 0]	-999	PAL1	1	R1276D
815.416	4.0	824425	TEST_PROBE	n/a	wordpools/wordpool_EN.txt	6	6	KITE	SPRING	KITE	SPRING	6	[0, 0, 0]	-999	PAL1	1	R1276D
815.417	1.812	824426	REC_START	n/a	n/a	6	-999	n/a	SPRING	n/a	n/a	6	[0, 0, 0]	-999	PAL1	1	R1276D
817.229	2.188	826238	REC_EVENT	1.812	n/a	6	6	KITE	SPRING	KITE	SPRING	6	[0, 0, 0]	-999	PAL1	1	R1276D
819.417	1.0	828426	PROBE_OFF	n/a	n/a	6	-999	n/a	n/a	n/a	n/a	6	[0, 0, 0]	-999	PAL1	1	R1276D
820.417	0.009	829426	REC_END	n/a	n/a	6	-999	n/a	n/a	n/a	n/a	6	[0, 0, 0]	-999	PAL1	1	R1276D
820.426	4.792	829435	RECALL_END	n/a	n/a	-999	-999	n/a	n/a	n/a	n/a	6	[0, 0, 0]	-999	PAL1	1	R1276D
825.218	10.929	834227	TRIAL	n/a	n/a	-999	-999	n/a	n/a	n/a	n/a	7	[0, 0, 0]	-999	PAL1	1	R1276D
836.147	0.007	845155	ENCODING_START	n/a	n/a	-999	-999	n/a	n/a	n/a	n/a	7	[0, 0, 0]	-999	PAL1	1	R1276D
836.154	0.266	845162	STUDY_ORIENT	n/a	n/a	1	1	FAN	PASS	FAN	BOOT	7	[0, 0, 0]	-999	PAL1	1	R1276D
836.42	0.717	845428	STUDY_ORIENT_OFF	n/a	n/a	1	1	FAN	PASS	FAN	BOOT	7	[0, 0, 0]	-999	PAL1	1	R1276D
837.137	4.0	846145	STUDY_PAIR	n/a	wordpools/wordpool_EN.txt	1	1	FAN	PASS	FAN	BOOT	7	[0, 0, 0]	-999	PAL1	1	R1276D
841.155	1.016	850163	PAIR_OFF	n/a	n/a	1	1	FAN	PASS	FAN	BOOT	7	[0, 0, 0]	-999	PAL1	1	R1276D
842.171	0.267	851179	STUDY_ORIENT	n/a	n/a	2	2	CALF	FLAME	FLAME	CALF	7	[0, 0, 0]	-999	PAL1	1	R1276D
842.438	0.55	851446	STUDY_ORIENT_OFF	n/a	n/a	2	2	CALF	FLAME	FLAME	CALF	7	[0, 0, 0]	-999	PAL1	1	R1276D
842.988	4.0	851996	STUDY_PAIR	n/a	wordpools/wordpool_EN.txt	2	2	CALF	FLAME	FLAME	CALF	7	[0, 0, 0]	-999	PAL1	1	R1276D
847.006	1.016	856013	PAIR_OFF	n/a	n/a	2	2	CALF	FLAME	FLAME	CALF	7	[0, 0, 0]	-999	PAL1	1	R1276D
848.022	0.267	857029	STUDY_ORIENT	n/a	n/a	3	5	PLANT	AXE	AXE	PLANT	7	[0, 0, 0]	-999	PAL1	1	R1276D
848.289	0.767	857296	STUDY_ORIENT_OFF	n/a	n/a	3	5	PLANT	AXE	AXE	PLANT	7	[0, 0, 0]	-999	PAL1	1	R1276D
849.056	4.0	858063	STUDY_PAIR	n/a	wordpools/wordpool_EN.txt	3	5	PLANT	AXE	AXE	PLANT	7	[0, 0, 0]	-999	PAL1	1	R1276D
853.073	1.017	862080	PAIR_OFF	n/a	n/a	3	5	PLANT	AXE	AXE	PLANT	7	[0, 0, 0]	-999	PAL1	1	R1276D
854.09	0.267	863097	STUDY_ORIENT	n/a	n/a	4	4	DART	PASS	DART	BOWL	7	[0, 0, 0]	-999	PAL1	1	R1276D
854.357	0.733	863364	STUDY_ORIENT_OFF	n/a	n/a	4	4	DART	PASS	DART	BOWL	7	[0, 0, 0]	-999	PAL1	1	R1276D
855.09	4.0	864097	STUDY_PAIR	n/a	wordpools/wordpool_EN.txt	4	4	DART	PASS	DART	BOWL	7	[0, 0, 0]	-999	PAL1	1	R1276D
859.108	1.017	868115	PAIR_OFF	n/a	n/a	4	4	DART	PASS	DART	BOWL	7	[0, 0, 0]	-999	PAL1	1	R1276D
860.125	0.266	869132	STUDY_ORIENT	n/a	n/a	5	3	ROAD	SLIME	SLIME	ROAD	7	[0, 0, 0]	-999	PAL1	1	R1276D
860.391	0.684	869398	STUDY_ORIENT_OFF	n/a	n/a	5	3	ROAD	SLIME	SLIME	ROAD	7	[0, 0, 0]	-999	PAL1	1	R1276D
861.075	4.0	870082	STUDY_PAIR	n/a	wordpools/wordpool_EN.txt	5	3	ROAD	SLIME	SLIME	ROAD	7	[0, 0, 0]	-999	PAL1	1	R1276D
865.092	1.017	874098	PAIR_OFF	n/a	n/a	5	3	ROAD	SLIME	SLIME	ROAD	7	[0, 0, 0]	-999	PAL1	1	R1276D
866.109	0.267	875115	STUDY_ORIENT	n/a	n/a	6	6	JAR	APE	JAR	APE	7	[0, 0, 0]	-999	PAL1	1	R1276D
866.376	0.65	875382	STUDY_ORIENT_OFF	n/a	n/a	6	6	JAR	APE	JAR	APE	7	[0, 0, 0]	-999	PAL1	1	R1276D
867.026	4.0	876032	STUDY_PAIR	n/a	wordpools/wordpool_EN.txt	6	6	JAR	APE	JAR	APE	7	[0, 0, 0]	-999	PAL1	1	R1276D
871.043	1.001	880049	PAIR_OFF	n/a	n/a	6	6	JAR	APE	JAR	APE	7	[0, 0, 0]	-999	PAL1	1	R1276D
872.044	0.0	881050	ENCODING_END	n/a	n/a	-999	-999	n/a	n/a	n/a	n/a	7	[0, 0, 0]	-999	PAL1	1	R1276D
872.044	0.0	881050	MATH_START	n/a	n/a	-999	-999	n/a	n/a	n/a	n/a	7	[0, 0, 0]	-999	PAL1	1	R1276D
872.044	0.016	881050	START	n/a	n/a	-999	-999	n/a	n/a	n/a	n/a	8	[-999, -999, -999]	-999	PAL1	1	R1276D
872.06	3.051	881066	PROB	3.02	n/a	-999	-999	n/a	n/a	n/a	n/a	8	[2, 5, 3]	10	PAL1	1	R1276D
875.111	3.784	884117	PROB	3.745	n/a	-999	-999	n/a	n/a	n/a	n/a	8	[9, 2, 3]	14	PAL1	1	R1276D
878.895	3.317	887901	PROB	3.29	n/a	-999	-999	n/a	n/a	n/a	n/a	8	[7, 8, 1]	16	PAL1	1	R1276D
882.212	3.951	891217	PROB	3.925	n/a	-999	-999	n/a	n/a	n/a	n/a	8	[2, 4, 8]	14	PAL1	1	R1276D
886.163	4.101	895168	PROB	4.069	n/a	-999	-999	n/a	n/a	n/a	n/a	8	[3, 8, 6]	17	PAL1	1	R1276D
890.264	4.952	899269	PROB	4.952	n/a	-999	-999	n/a	n/a	n/a	n/a	8	[8, 9, 3]	20	PAL1	1	R1276D
895.216	0.015	904221	STOP	n/a	n/a	-999	-999	n/a	n/a	n/a	n/a	8	[-999, -999, -999]	-999	PAL1	1	R1276D
895.231	0.0	904236	MATH_END	n/a	n/a	-999	-999	n/a	n/a	n/a	n/a	7	[0, 0, 0]	-999	PAL1	1	R1276D
895.231	0.017	904236	RECALL_START	n/a	n/a	-999	-999	n/a	n/a	n/a	n/a	7	[0, 0, 0]	-999	PAL1	1	R1276D
895.248	0.267	904253	TEST_ORIENT	n/a	n/a	1	1	FAN	PASS	FAN	BOOT	7	[0, 0, 0]	-999	PAL1	1	R1276D
895.515	0.616	904520	RETRIEVAL_ORIENT_OFF	n/a	n/a	-999	-999	n/a	n/a	n/a	n/a	7	[0, 0, 0]	-999	PAL1	1	R1276D
896.131	4.0	905136	TEST_PROBE	n/a	wordpools/wordpool_EN.txt	1	1	FAN	PASS	FAN	BOOT	7	[0, 0, 0]	-999	PAL1	1	R1276D
896.132	3.37	905137	REC_START	n/a	n/a	1	-999	n/a	PASS	n/a	n/a	7	[0, 0, 0]	-999	PAL1	1	R1276D
899.502	0.647	908506	REC_EVENT	3.37	n/a	1	1	FAN	PASS	FAN	BOOT	7	[0, 0, 0]	-999	PAL1	1	R1276D
900.149	1.0	909153	PROBE_OFF	n/a	n/a	1	-999	n/a	n/a	n/a	n/a	7	[0, 0, 0]	-999	PAL1	1	R1276D
901.149	0.017	910153	REC_END	n/a	n/a	1	-999	n/a	n/a	n/a	n/a	7	[0, 0, 0]	-999	PAL1	1	R1276D
901.166	0.266	910170	TEST_ORIENT	n/a	n/a	2	2	CALF	FLAME	FLAME	CALF	7	[0, 0, 0]	-999	PAL1	1	R1276D
901.432	0.584	910436	RETRIEVAL_ORIENT_OFF	n/a	n/a	1	-999	n/a	n/a	n/a	n/a	7	[0, 0, 0]	-999	PAL1	1	R1276D
902.016	4.0	911020	TEST_PROBE	n/a	wordpools/wordpool_EN.txt	2	2	CALF	FLAME	FLAME	CALF	7	[0, 0, 0]	-999	PAL1	1	R1276D
902.016	1.121	911020	REC_START	n/a	n/a	2	-999	n/a	FLAME	n/a	n/a	7	[0, 0, 0]	-999	PAL1	1	R1276D
903.137	2.896	912141	REC_EVENT	1.121	n/a	2	2	CALF	FLAME	FLAME	CALF	7	[0, 0, 0]	-999	PAL1	1	R1276D
906.033	1.0	915037	PROBE_OFF	n/a	n/a	2	-999	n/a	n/a	n/a	n/a	7	[0, 0, 0]	-999	PAL1	1	R1276D
907.033	0.017	916037	REC_END	n/a	n/a	2	-999	n/a	n/a	n/a	n/a	7	[0, 0, 0]	-999	PAL1	1	R1276D
907.05	0.267	916054	TEST_ORIENT	n/a	n/a	5	3	ROAD	SLIME	SLIME	ROAD	7	[0, 0, 0]	-999	PAL1	1	R1276D
907.317	0.7	916321	RETRIEVAL_ORIENT_OFF	n/a	n/a	2	-999	n/a	n/a	n/a	n/a	7	[0, 0, 0]	-999	PAL1	1	R1276D
908.017	4.0	917021	TEST_PROBE	n/a	wordpools/wordpool_EN.txt	5	3	ROAD	SLIME	SLIME	ROAD	7	[0, 0, 0]	-999	PAL1	1	R1276D
908.017	1.035	917021	REC_START	n/a	n/a	5	-999	n/a	SLIME	n/a	n/a	7	[0, 0, 0]	-999	PAL1	1	R1276D
909.052	2.982	918056	REC_EVENT	1.035	n/a	5	3	ROAD	SLIME	SLIME	ROAD	7	[0, 0, 0]	-999	PAL1	1	R1276D
912.034	1.0	921038	PROBE_OFF	n/a	n/a	5	-999	n/a	n/a	n/a	n/a	7	[0, 0, 0]	-999	PAL1	1	R1276D
913.034	0.017	922038	REC_END	n/a	n/a	5	-999	n/a	n/a	n/a	n/a	7	[0, 0, 0]	-999	PAL1	1	R1276D
913.051	0.267	922055	TEST_ORIENT	n/a	n/a	4	4	DART	PASS	DART	BOWL	7	[0, 0, 0]	-999	PAL1	1	R1276D
913.318	0.583	922322	RETRIEVAL_ORIENT_OFF	n/a	n/a	5	-999	n/a	n/a	n/a	n/a	7	[0, 0, 0]	-999	PAL1	1	R1276D
913.901	4.0	922905	TEST_PROBE	n/a	wordpools/wordpool_EN.txt	4	4	DART	PASS	DART	BOWL	7	[0, 0, 0]	-999	PAL1	1	R1276D
913.901	2.18	922905	REC_START	n/a	n/a	4	-999	n/a	PASS	n/a	n/a	7	[0, 0, 0]	-999	PAL1	1	R1276D
916.081	1.838	925084	REC_EVENT	2.18	n/a	4	4	DART	PASS	DART	BOWL	7	[0, 0, 0]	-999	PAL1	1	R1276D
917.919	1.0	926922	PROBE_OFF	n/a	n/a	4	-999	n/a	n/a	n/a	n/a	7	[0, 0, 0]	-999	PAL1	1	R1276D
918.919	0.017	927922	REC_END	n/a	n/a	4	-999	n/a	n/a	n/a	n/a	7	[0, 0, 0]	-999	PAL1	1	R1276D
918.936	0.266	927939	TEST_ORIENT	n/a	n/a	3	5	PLANT	AXE	AXE	PLANT	7	[0, 0, 0]	-999	PAL1	1	R1276D
919.202	0.667	928205	RETRIEVAL_ORIENT_OFF	n/a	n/a	4	-999	n/a	n/a	n/a	n/a	7	[0, 0, 0]	-999	PAL1	1	R1276D
919.869	4.0	928872	TEST_PROBE	n/a	wordpools/wordpool_EN.txt	3	5	PLANT	AXE	AXE	PLANT	7	[0, 0, 0]	-999	PAL1	1	R1276D
919.87	3.178	928873	REC_START	n/a	n/a	3	-999	n/a	AXE	n/a	n/a	7	[0, 0, 0]	-999	PAL1	1	R1276D
923.048	0.839	932051	REC_EVENT	3.178	n/a	3	5	PLANT	AXE	AXE	PLANT	7	[0, 0, 0]	-999	PAL1	1	R1276D
923.887	1.0	932890	PROBE_OFF	n/a	n/a	3	-999	n/a	n/a	n/a	n/a	7	[0, 0, 0]	-999	PAL1	1	R1276D
924.887	0.016	933890	REC_END	n/a	n/a	3	-999	n/a	n/a	n/a	n/a	7	[0, 0, 0]	-999	PAL1	1	R1276D
924.903	0.267	933906	TEST_ORIENT	n/a	n/a	6	6	JAR	APE	JAR	APE	7	[0, 0, 0]	-999	PAL1	1	R1276D
925.17	0.666	934173	RETRIEVAL_ORIENT_OFF	n/a	n/a	3	-999	n/a	n/a	n/a	n/a	7	[0, 0, 0]	-999	PAL1	1	R1276D
925.836	0.0	934839	REC_START	n/a	n/a	6	-999	n/a	APE	n/a	n/a	7	[0, 0, 0]	-999	PAL1	1	R1276D
925.836	4.0	934839	TEST_PROBE	n/a	wordpools/wordpool_EN.txt	6	6	JAR	APE	JAR	APE	7	[0, 0, 0]	-999	PAL1	1	R1276D
927.084	2.769	936087	REC_EVENT	1.248	n/a	6	6	JAR	APE	JAR	APE	7	[0, 0, 0]	-999	PAL1	1	R1276D
929.853	1.001	938856	PROBE_OFF	n/a	n/a	6	-999	n/a	n/a	n/a	n/a	7	[0, 0, 0]	-999	PAL1	1	R1276D
930.854	0.003	939857	REC_END	n/a	n/a	6	-999	n/a	n/a	n/a	n/a	7	[0, 0, 0]	-999	PAL1	1	R1276D
930.857	8.349	939860	RECALL_END	n/a	n/a	-999	-999	n/a	n/a	n/a	n/a	7	[0, 0, 0]	-999	PAL1	1	R1276D
939.206	10.928	948208	TRIAL	n/a	n/a	-999	-999	n/a	n/a	n/a	n/a	8	[0, 0, 0]	-999	PAL1	1	R1276D
950.134	0.007	959136	ENCODING_START	n/a	n/a	-999	-999	n/a	n/a	n/a	n/a	8	[0, 0, 0]	-999	PAL1	1	R1276D
950.141	0.267	959143	STUDY_ORIENT	n/a	n/a	1	1	DOG	FACE	DOG	FACE	8	[0, 0, 0]	-999	PAL1	1	R1276D
950.408	0.517	959410	STUDY_ORIENT_OFF	n/a	n/a	1	1	DOG	FACE	DOG	FACE	8	[0, 0, 0]	-999	PAL1	1	R1276D
950.925	4.0	959927	STUDY_PAIR	n/a	wordpools/wordpool_EN.txt	1	1	DOG	FACE	DOG	FACE	8	[0, 0, 0]	-999	PAL1	1	R1276D
954.942	1.017	963943	PAIR_OFF	n/a	n/a	1	1	DOG	FACE	DOG	FACE	8	[0, 0, 0]	-999	PAL1	1	R1276D
955.959	0.267	964960	STUDY_ORIENT	n/a	n/a	2	4	PHONE	PASS	STAIR	PHONE	8	[0, 0, 0]	-999	PAL1	1	R1276D
956.226	0.599	965227	STUDY_ORIENT_OFF	n/a	n/a	2	4	PHONE	PASS	STAIR	PHONE	8	[0, 0, 0]	-999	PAL1	1	R1276D
956.825	4.0	965826	STUDY_PAIR	n/a	wordpools/wordpool_EN.txt	2	4	PHONE	PASS	STAIR	PHONE	8	[0, 0, 0]	-999	PAL1	1	R1276D
960.842	1.018	969843	PAIR_OFF	n/a	n/a	2	4	PHONE	PASS	STAIR	PHONE	8	[0, 0, 0]	-999	PAL1	1	R1276D
961.86	0.267	970861	STUDY_ORIENT	n/a	n/a	3	3	CANE	PASS	CANE	HOSE	8	[0, 0, 0]	-999	PAL1	1	R1276D
962.127	0.566	971128	STUDY_ORIENT_OFF	n/a	n/a	3	3	CANE	PASS	CANE	HOSE	8	[0, 0, 0]	-999	PAL1	1	R1276D
962.693	4.0	971694	STUDY_PAIR	n/a	wordpools/wordpool_EN.txt	3	3	CANE	PASS	CANE	HOSE	8	[0, 0, 0]	-999	PAL1	1	R1276D
966.71	1.017	975711	PAIR_OFF	n/a	n/a	3	3	CANE	PASS	CANE	HOSE	8	[0, 0, 0]	-999	PAL1	1	R1276D
967.727	0.268	976728	STUDY_ORIENT	n/a	n/a	4	6	COUCH	PASS	VASE	COUCH	8	[0, 0, 0]	-999	PAL1	1	R1276D
967.995	0.566	976996	STUDY_ORIENT_OFF	n/a	n/a	4	6	COUCH	PASS	VASE	COUCH	8	[0, 0, 0]	-999	PAL1	1	R1276D
968.561	4.0	977562	STUDY_PAIR	n/a	wordpools/wordpool_EN.txt	4	6	COUCH	PASS	VASE	COUCH	8	[0, 0, 0]	-999	PAL1	1	R1276D
972.562	1.016	981562	PAIR_OFF	n/a	n/a	4	6	COUCH	PASS	VASE	COUCH	8	[0, 0, 0]	-999	PAL1	1	R1276D
973.578	0.267	982578	STUDY_ORIENT	n/a	n/a	5	5	HORSE	PASS	FLEA	HORSE	8	[0, 0, 0]	-999	PAL1	1	R1276D
973.845	0.551	982845	STUDY_ORIENT_OFF	n/a	n/a	5	5	HORSE	PASS	FLEA	HORSE	8	[0, 0, 0]	-999	PAL1	1	R1276D
974.396	4.0	983396	STUDY_PAIR	n/a	wordpools/wordpool_EN.txt	5	5	HORSE	PASS	FLEA	HORSE	8	[0, 0, 0]	-999	PAL1	1	R1276D
978.413	1.017	987413	PAIR_OFF	n/a	n/a	5	5	HORSE	PASS	FLEA	HORSE	8	[0, 0, 0]	-999	PAL1	1	R1276D
979.43	0.266	988430	STUDY_ORIENT	n/a	n/a	6	2	BEE	WORLD	WORLD	BEE	8	[0, 0, 0]	-999	PAL1	1	R1276D
979.696	0.601	988696	STUDY_ORIENT_OFF	n/a	n/a	6	2	BEE	WORLD	WORLD	BEE	8	[0, 0, 0]	-999	PAL1	1	R1276D
980.297	4.0	989297	STUDY_PAIR	n/a	wordpools/wordpool_EN.txt	6	2	BEE	WORLD	WORLD	BEE	8	[0, 0, 0]	-999	PAL1	1	R1276D
984.314	1.001	993314	PAIR_OFF	n/a	n/a	6	2	BEE	WORLD	WORLD	BEE	8	[0, 0, 0]	-999	PAL1	1	R1276D
985.315	0.0	994315	ENCODING_END	n/a	n/a	-999	-999	n/a	n/a	n/a	n/a	8	[0, 0, 0]	-999	PAL1	1	R1276D
985.315	0.0	994315	MATH_START	n/a	n/a	-999	-999	n/a	n/a	n/a	n/a	8	[0, 0, 0]	-999	PAL1	1	R1276D
985.315	0.016	994315	START	n/a	n/a	-999	-999	n/a	n/a	n/a	n/a	9	[-999, -999, -999]	-999	PAL1	1	R1276D
985.331	3.167	994331	PROB	3.142	n/a	-999	-999	n/a	n/a	n/a	n/a	9	[3, 1, 3]	7	PAL1	1	R1276D
988.498	2.884	997497	PROB	2.854	n/a	-999	-999	n/a	n/a	n/a	n/a	9	[9, 7, 3]	19	PAL1	1	R1276D
991.382	3.701	1000381	PROB	3.674	n/a	-999	-999	n/a	n/a	n/a	n/a	9	[5, 6, 7]	18	PAL1	1	R1276D
995.083	4.134	1004082	PROB	4.11	n/a	-999	-999	n/a	n/a	n/a	n/a	9	[6, 5, 7]	18	PAL1	1	R1276D
999.217	3.301	1008216	PROB	3.271	n/a	-999	-999	n/a	n/a	n/a	n/a	9	[9, 7, 1]	17	PAL1	1	R1276D
1002.518	3.603	1011517	PROB	3.603	n/a	-999	-999	n/a	n/a	n/a	n/a	9	[8, 4, 4]	16	PAL1	1	R1276D
1006.121	0.014	1015119	STOP	n/a	n/a	-999	-999	n/a	n/a	n/a	n/a	9	[-999, -999, -999]	-999	PAL1	1	R1276D
1006.135	0.0	1015133	MATH_END	n/a	n/a	-999	-999	n/a	n/a	n/a	n/a	8	[0, 0, 0]	-999	PAL1	1	R1276D
1006.135	0.017	1015133	RECALL_START	n/a	n/a	-999	-999	n/a	n/a	n/a	n/a	8	[0, 0, 0]	-999	PAL1	1	R1276D
1006.152	0.266	1015150	TEST_ORIENT	n/a	n/a	1	1	DOG	FACE	DOG	FACE	8	[0, 0, 0]	-999	PAL1	1	R1276D
1006.418	0.6	1015416	RETRIEVAL_ORIENT_OFF	n/a	n/a	-999	-999	n/a	n/a	n/a	n/a	8	[0, 0, 0]	-999	PAL1	1	R1276D
1007.018	4.0	1016016	TEST_PROBE	n/a	wordpools/wordpool_EN.txt	1	1	DOG	FACE	DOG	FACE	8	[0, 0, 0]	-999	PAL1	1	R1276D
1007.019	1.179	1016017	REC_START	n/a	n/a	1	-999	n/a	FACE	n/a	n/a	8	[0, 0, 0]	-999	PAL1	1	R1276D
1008.198	2.838	1017196	REC_EVENT	1.179	n/a	1	1	DOG	FACE	DOG	FACE	8	[0, 0, 0]	-999	PAL1	1	R1276D
1011.036	1.0	1020034	PROBE_OFF	n/a	n/a	1	-999	n/a	n/a	n/a	n/a	8	[0, 0, 0]	-999	PAL1	1	R1276D
1012.036	0.017	1021034	REC_END	n/a	n/a	1	-999	n/a	n/a	n/a	n/a	8	[0, 0, 0]	-999	PAL1	1	R1276D
1012.053	0.266	1021051	TEST_ORIENT	n/a	n/a	6	2	BEE	WORLD	WORLD	BEE	8	[0, 0, 0]	-999	PAL1	1	R1276D
1012.319	0.617	1021317	RETRIEVAL_ORIENT_OFF	n/a	n/a	1	-999	n/a	n/a	n/a	n/a	8	[0, 0, 0]	-999	PAL1	1	R1276D
1012.936	4.0	1021934	TEST_PROBE	n/a	wordpools/wordpool_EN.txt	6	2	BEE	WORLD	WORLD	BEE	8	[0, 0, 0]	-999	PAL1	1	R1276D
1012.937	0.91	1021935	REC_START	n/a	n/a	6	-999	n/a	WORLD	n/a	n/a	8	[0, 0, 0]	-999	PAL1	1	R1276D
1013.847	3.107	1022845	REC_EVENT	0.91	n/a	6	2	BEE	WORLD	WORLD	BEE	8	[0, 0, 0]	-999	PAL1	1	R1276D
1016.954	1.0	1025952	PROBE_OFF	n/a	n/a	6	-999	n/a	n/a	n/a	n/a	8	[0, 0, 0]	-999	PAL1	1	R1276D
1017.954	0.017	1026952	REC_END	n/a	n/a	6	-999	n/a	n/a	n/a	n/a	8	[0, 0, 0]	-999	PAL1	1	R1276D
1017.971	0.266	1026969	TEST_ORIENT	n/a	n/a	3	3	CANE	PASS	CANE	HOSE	8	[0, 0, 0]	-999	PAL1	1	R1276D
1018.237	0.75	1027235	RETRIEVAL_ORIENT_OFF	n/a	n/a	6	-999	n/a	n/a	n/a	n/a	8	[0, 0, 0]	-999	PAL1	1	R1276D
1018.987	4.0	1027985	TEST_PROBE	n/a	wordpools/wordpool_EN.txt	3	3	CANE	PASS	CANE	HOSE	8	[0, 0, 0]	-999	PAL1	1	R1276D
1018.988	1.327	1027986	REC_START	n/a	n/a	3	-999	n/a	PASS	n/a	n/a	8	[0, 0, 0]	-999	PAL1	1	R1276D
1020.315	2.69	1029313	REC_EVENT	1.327	n/a	3	3	CANE	PASS	CANE	HOSE	8	[0, 0, 0]	-999	PAL1	1	R1276D
1023.005	1.0	1032003	PROBE_OFF	n/a	n/a	3	-999	n/a	n/a	n/a	n/a	8	[0, 0, 0]	-999	PAL1	1	R1276D
1024.005	0.017	1033002	REC_END	n/a	n/a	3	-999	n/a	n/a	n/a	n/a	8	[0, 0, 0]	-999	PAL1	1	R1276D
1024.022	0.266	1033019	TEST_ORIENT	n/a	n/a	2	4	PHONE	PASS	STAIR	PHONE	8	[0, 0, 0]	-999	PAL1	1	R1276D
1024.288	0.549	1033285	RETRIEVAL_ORIENT_OFF	n/a	n/a	3	-999	n/a	n/a	n/a	n/a	8	[0, 0, 0]	-999	PAL1	1	R1276D
1024.837	4.0	1033834	TEST_PROBE	n/a	wordpools/wordpool_EN.txt	2	4	PHONE	PASS	STAIR	PHONE	8	[0, 0, 0]	-999	PAL1	1	R1276D
1024.838	2.088	1033835	REC_START	n/a	n/a	2	-999	n/a	PASS	n/a	n/a	8	[0, 0, 0]	-999	PAL1	1	R1276D
1026.926	1.912	1035923	REC_EVENT	2.088	n/a	2	4	PHONE	PASS	STAIR	PHONE	8	[0, 0, 0]	-999	PAL1	1	R1276D
1028.838	1.0	1037835	PROBE_OFF	n/a	n/a	2	-999	n/a	n/a	n/a	n/a	8	[0, 0, 0]	-999	PAL1	1	R1276D
1029.838	0.017	1038835	REC_END	n/a	n/a	2	-999	n/a	n/a	n/a	n/a	8	[0, 0, 0]	-999	PAL1	1	R1276D
1029.855	0.268	1038852	TEST_ORIENT	n/a	n/a	5	5	HORSE	PASS	FLEA	HORSE	8	[0, 0, 0]	-999	PAL1	1	R1276D
1030.123	0.566	1039120	RETRIEVAL_ORIENT_OFF	n/a	n/a	2	-999	n/a	n/a	n/a	n/a	8	[0, 0, 0]	-999	PAL1	1	R1276D
1030.689	4.0	1039686	TEST_PROBE	n/a	wordpools/wordpool_EN.txt	5	5	HORSE	PASS	FLEA	HORSE	8	[0, 0, 0]	-999	PAL1	1	R1276D
1030.689	1.709	1039686	REC_START	n/a	n/a	5	-999	n/a	PASS	n/a	n/a	8	[0, 0, 0]	-999	PAL1	1	R1276D
1032.398	2.308	1041395	REC_EVENT	1.709	n/a	5	5	HORSE	PASS	FLEA	HORSE	8	[0, 0, 0]	-999	PAL1	1	R1276D
1034.706	1.0	1043703	PROBE_OFF	n/a	n/a	5	-999	n/a	n/a	n/a	n/a	8	[0, 0, 0]	-999	PAL1	1	R1276D
1035.706	0.017	1044703	REC_END	n/a	n/a	5	-999	n/a	n/a	n/a	n/a	8	[0, 0, 0]	-999	PAL1	1	R1276D
1035.723	0.267	1044720	TEST_ORIENT	n/a	n/a	4	6	COUCH	PASS	VASE	COUCH	8	[0, 0, 0]	-999	PAL1	1	R1276D
1035.99	0.683	1044987	RETRIEVAL_ORIENT_OFF	n/a	n/a	5	-999	n/a	n/a	n/a	n/a	8	[0, 0, 0]	-999	PAL1	1	R1276D
1036.673	4.0	1045670	TEST_PROBE	n/a	wordpools/wordpool_EN.txt	4	6	COUCH	PASS	VASE	COUCH	8	[0, 0, 0]	-999	PAL1	1	R1276D
1036.673	1.448	1045670	REC_START	n/a	n/a	4	-999	n/a	PASS	n/a	n/a	8	[0, 0, 0]	-999	PAL1	1	R1276D
1038.121	2.569	1047118	REC_EVENT	1.448	n/a	4	6	COUCH	PASS	VASE	COUCH	8	[0, 0, 0]	-999	PAL1	1	R1276D
1040.69	1.0	1049687	PROBE_OFF	n/a	n/a	4	-999	n/a	n/a	n/a	n/a	8	[0, 0, 0]	-999	PAL1	1	R1276D
1041.69	0.009	1050686	REC_END	n/a	n/a	4	-999	n/a	n/a	n/a	n/a	8	[0, 0, 0]	-999	PAL1	1	R1276D
1041.699	6.076	1050695	RECALL_END	n/a	n/a	-999	-999	n/a	n/a	n/a	n/a	8	[0, 0, 0]	-999	PAL1	1	R1276D
1047.775	10.929	1056771	TRIAL	n/a	n/a	-999	-999	n/a	n/a	n/a	n/a	9	[0, 0, 0]	-999	PAL1	1	R1276D
1058.704	0.006	1067700	ENCODING_START	n/a	n/a	-999	-999	n/a	n/a	n/a	n/a	9	[0, 0, 0]	-999	PAL1	1	R1276D
1058.71	0.268	1067706	STUDY_ORIENT	n/a	n/a	1	3	CAT	PAUSE	CAT	FOOT	9	[0, 0, 0]	-999	PAL1	1	R1276D
1058.978	0.533	1067974	STUDY_ORIENT_OFF	n/a	n/a	1	3	CAT	PAUSE	CAT	FOOT	9	[0, 0, 0]	-999	PAL1	1	R1276D
1059.511	4.0	1068507	STUDY_PAIR	n/a	wordpools/wordpool_EN.txt	1	3	CAT	PAUSE	CAT	FOOT	9	[0, 0, 0]	-999	PAL1	1	R1276D
1063.529	1.017	1072524	PAIR_OFF	n/a	n/a	1	3	CAT	PAUSE	CAT	FOOT	9	[0, 0, 0]	-999	PAL1	1	R1276D
1064.546	0.265	1073541	STUDY_ORIENT	n/a	n/a	2	6	SKI	CRANE	SKI	CRANE	9	[0, 0, 0]	-999	PAL1	1	R1276D
1064.811	0.685	1073806	STUDY_ORIENT_OFF	n/a	n/a	2	6	SKI	CRANE	SKI	CRANE	9	[0, 0, 0]	-999	PAL1	1	R1276D
1065.496	4.0	1074491	STUDY_PAIR	n/a	wordpools/wordpool_EN.txt	2	6	SKI	CRANE	SKI	CRANE	9	[0, 0, 0]	-999	PAL1	1	R1276D
1069.513	1.017	1078508	PAIR_OFF	n/a	n/a	2	6	SKI	CRANE	SKI	CRANE	9	[0, 0, 0]	-999	PAL1	1	R1276D
1070.53	0.266	1079525	STUDY_ORIENT	n/a	n/a	3	5	INK	RAKE	INK	RAKE	9	[0, 0, 0]	-999	PAL1	1	R1276D
1070.796	0.701	1079791	STUDY_ORIENT_OFF	n/a	n/a	3	5	INK	RAKE	INK	RAKE	9	[0, 0, 0]	-999	PAL1	1	R1276D
1071.497	4.0	1080492	STUDY_PAIR	n/a	wordpools/wordpool_EN.txt	3	5	INK	RAKE	INK	RAKE	9	[0, 0, 0]	-999	PAL1	1	R1276D
1075.514	1.017	1084509	PAIR_OFF	n/a	n/a	3	5	INK	RAKE	INK	RAKE	9	[0, 0, 0]	-999	PAL1	1	R1276D
1076.531	0.266	1085526	STUDY_ORIENT	n/a	n/a	4	2	PANTS	CHIN	CHIN	PANTS	9	[0, 0, 0]	-999	PAL1	1	R1276D
1076.797	0.701	1085792	STUDY_ORIENT_OFF	n/a	n/a	4	2	PANTS	CHIN	CHIN	PANTS	9	[0, 0, 0]	-999	PAL1	1	R1276D
1077.498	4.0	1086493	STUDY_PAIR	n/a	wordpools/wordpool_EN.txt	4	2	PANTS	CHIN	CHIN	PANTS	9	[0, 0, 0]	-999	PAL1	1	R1276D
1081.516	1.016	1090510	PAIR_OFF	n/a	n/a	4	2	PANTS	CHIN	CHIN	PANTS	9	[0, 0, 0]	-999	PAL1	1	R1276D
1082.532	0.266	1091526	STUDY_ORIENT	n/a	n/a	5	1	DOCK	PASS	BROOM	DOCK	9	[0, 0, 0]	-999	PAL1	1	R1276D
1082.798	0.585	1091792	STUDY_ORIENT_OFF	n/a	n/a	5	1	DOCK	PASS	BROOM	DOCK	9	[0, 0, 0]	-999	PAL1	1	R1276D
1083.383	4.0	1092377	STUDY_PAIR	n/a	wordpools/wordpool_EN.txt	5	1	DOCK	PASS	BROOM	DOCK	9	[0, 0, 0]	-999	PAL1	1	R1276D
1087.4	1.017	1096394	PAIR_OFF	n/a	n/a	5	1	DOCK	PASS	BROOM	DOCK	9	[0, 0, 0]	-999	PAL1	1	R1276D
1088.417	0.266	1097411	STUDY_ORIENT	n/a	n/a	6	4	MAT	CROW	MAT	CROW	9	[0, 0, 0]	-999	PAL1	1	R1276D
1088.683	0.717	1097677	STUDY_ORIENT_OFF	n/a	n/a	6	4	MAT	CROW	MAT	CROW	9	[0, 0, 0]	-999	PAL1	1	R1276D
1089.4	4.0	1098394	STUDY_PAIR	n/a	wordpools/wordpool_EN.txt	6	4	MAT	CROW	MAT	CROW	9	[0, 0, 0]	-999	PAL1	1	R1276D
1093.418	1.0	1102412	PAIR_OFF	n/a	n/a	6	4	MAT	CROW	MAT	CROW	9	[0, 0, 0]	-999	PAL1	1	R1276D
1094.418	0.0	1103412	MATH_START	n/a	n/a	-999	-999	n/a	n/a	n/a	n/a	9	[0, 0, 0]	-999	PAL1	1	R1276D
1094.418	0.001	1103412	ENCODING_END	n/a	n/a	-999	-999	n/a	n/a	n/a	n/a	9	[0, 0, 0]	-999	PAL1	1	R1276D
1094.419	0.016	1103413	START	n/a	n/a	-999	-999	n/a	n/a	n/a	n/a	10	[-999, -999, -999]	-999	PAL1	1	R1276D
1094.435	2.85	1103429	PROB	2.814	n/a	-999	-999	n/a	n/a	n/a	n/a	10	[1, 9, 7]	17	PAL1	1	R1276D
1097.285	3.366	1106278	PROB	3.331	n/a	-999	-999	n/a	n/a	n/a	n/a	10	[1, 8, 6]	15	PAL1	1	R1276D
1100.651	2.669	1109644	PROB	2.645	n/a	-999	-999	n/a	n/a	n/a	n/a	10	[6, 1, 1]	8	PAL1	1	R1276D
1103.32	2.8	1112313	PROB	2.776	n/a	-999	-999	n/a	n/a	n/a	n/a	10	[8, 2, 7]	17	PAL1	1	R1276D
1106.12	3.001	1115113	PROB	2.977	n/a	-999	-999	n/a	n/a	n/a	n/a	10	[7, 1, 9]	17	PAL1	1	R1276D
1109.121	3.184	1118114	PROB	3.16	n/a	-999	-999	n/a	n/a	n/a	n/a	10	[2, 1, 2]	5	PAL1	1	R1276D
1112.305	2.944	1121298	PROB	2.944	n/a	-999	-999	n/a	n/a	n/a	n/a	10	[5, 5, 7]	17	PAL1	1	R1276D
1115.249	0.006	1124241	STOP	n/a	n/a	-999	-999	n/a	n/a	n/a	n/a	10	[-999, -999, -999]	-999	PAL1	1	R1276D
1115.255	0.0	1124247	MATH_END	n/a	n/a	-999	-999	n/a	n/a	n/a	n/a	9	[0, 0, 0]	-999	PAL1	1	R1276D
1115.255	0.017	1124247	RECALL_START	n/a	n/a	-999	-999	n/a	n/a	n/a	n/a	9	[0, 0, 0]	-999	PAL1	1	R1276D
1115.272	0.266	1124264	TEST_ORIENT	n/a	n/a	5	1	DOCK	PASS	BROOM	DOCK	9	[0, 0, 0]	-999	PAL1	1	R1276D
1115.538	0.684	1124530	RETRIEVAL_ORIENT_OFF	n/a	n/a	-999	-999	n/a	n/a	n/a	n/a	9	[0, 0, 0]	-999	PAL1	1	R1276D
1116.222	4.0	1125214	TEST_PROBE	n/a	wordpools/wordpool_EN.txt	5	1	DOCK	PASS	BROOM	DOCK	9	[0, 0, 0]	-999	PAL1	1	R1276D
1116.222	3.028	1125214	REC_START	n/a	n/a	5	-999	n/a	PASS	n/a	n/a	9	[0, 0, 0]	-999	PAL1	1	R1276D
1119.25	0.414	1128242	REC_EVENT	3.028	n/a	5	1	DOCK	<>	BROOM	DOCK	9	[0, 0, 0]	-999	PAL1	1	R1276D
1119.664	0.575	1128656	REC_EVENT	3.442	n/a	5	1	DOCK	PASS	BROOM	DOCK	9	[0, 0, 0]	-999	PAL1	1	R1276D
1120.239	1.0	1129231	PROBE_OFF	n/a	n/a	5	-999	n/a	n/a	n/a	n/a	9	[0, 0, 0]	-999	PAL1	1	R1276D
1121.239	0.017	1130231	REC_END	n/a	n/a	5	-999	n/a	n/a	n/a	n/a	9	[0, 0, 0]	-999	PAL1	1	R1276D
1121.256	0.267	1130248	TEST_ORIENT	n/a	n/a	4	2	PANTS	CHIN	CHIN	PANTS	9	[0, 0, 0]	-999	PAL1	1	R1276D
1121.523	0.683	1130515	RETRIEVAL_ORIENT_OFF	n/a	n/a	5	-999	n/a	n/a	n/a	n/a	9	[0, 0, 0]	-999	PAL1	1	R1276D
1122.206	4.0	1131198	TEST_PROBE	n/a	wordpools/wordpool_EN.txt	4	2	PANTS	CHIN	CHIN	PANTS	9	[0, 0, 0]	-999	PAL1	1	R1276D
1122.207	0.865	1131199	REC_START	n/a	n/a	4	-999	n/a	CHIN	n/a	n/a	9	[0, 0, 0]	-999	PAL1	1	R1276D
1123.072	3.135	1132064	REC_EVENT	0.865	n/a	4	2	PANTS	CHIN	CHIN	PANTS	9	[0, 0, 0]	-999	PAL1	1	R1276D
1126.207	1.0	1135199	PROBE_OFF	n/a	n/a	4	-999	n/a	n/a	n/a	n/a	9	[0, 0, 0]	-999	PAL1	1	R1276D
1127.207	0.017	1136199	REC_END	n/a	n/a	4	-999	n/a	n/a	n/a	n/a	9	[0, 0, 0]	-999	PAL1	1	R1276D
1127.224	0.267	1136216	TEST_ORIENT	n/a	n/a	1	3	CAT	PAUSE	CAT	FOOT	9	[0, 0, 0]	-999	PAL1	1	R1276D
1127.491	0.583	1136483	RETRIEVAL_ORIENT_OFF	n/a	n/a	4	-999	n/a	n/a	n/a	n/a	9	[0, 0, 0]	-999	PAL1	1	R1276D
1128.074	4.0	1137066	TEST_PROBE	n/a	wordpools/wordpool_EN.txt	1	3	CAT	PAUSE	CAT	FOOT	9	[0, 0, 0]	-999	PAL1	1	R1276D
1128.075	1.621	1137067	REC_START	n/a	n/a	1	-999	n/a	PAUSE	n/a	n/a	9	[0, 0, 0]	-999	PAL1	1	R1276D
1129.696	0.37	1138688	REC_EVENT	1.621	n/a	1	3	CAT	<>	CAT	FOOT	9	[0, 0, 0]	-999	PAL1	1	R1276D
1130.066	1.132	1139058	REC_EVENT	1.991	n/a	1	3	CAT	PAW	CAT	FOOT	9	[0, 0, 0]	-999	PAL1	1	R1276D
1131.198	0.893	1140190	REC_EVENT	3.123	n/a	1	3	CAT	PAUSE	CAT	FOOT	9	[0, 0, 0]	-999	PAL1	1	R1276D
1132.091	1.0	1141082	PROBE_OFF	n/a	n/a	1	-999	n/a	n/a	n/a	n/a	9	[0, 0, 0]	-999	PAL1	1	R1276D
1133.091	0.017	1142082	REC_END	n/a	n/a	1	-999	n/a	n/a	n/a	n/a	9	[0, 0, 0]	-999	PAL1	1	R1276D
1133.108	0.267	1142099	TEST_ORIENT	n/a	n/a	6	4	MAT	CROW	MAT	CROW	9	[0, 0, 0]	-999	PAL1	1	R1276D
1133.375	0.6	1142366	RETRIEVAL_ORIENT_OFF	n/a	n/a	1	-999	n/a	n/a	n/a	n/a	9	[0, 0, 0]	-999	PAL1	1	R1276D
1133.975	4.0	1142966	TEST_PROBE	n/a	wordpools/wordpool_EN.txt	6	4	MAT	CROW	MAT	CROW	9	[0, 0, 0]	-999	PAL1	1	R1276D
1133.976	1.155	1142967	REC_START	n/a	n/a	6	-999	n/a	CROW	n/a	n/a	9	[0, 0, 0]	-999	PAL1	1	R1276D
1135.131	2.862	1144122	REC_EVENT	1.155	n/a	6	4	MAT	CROW	MAT	CROW	9	[0, 0, 0]	-999	PAL1	1	R1276D
1137.993	1.0	1146984	PROBE_OFF	n/a	n/a	6	-999	n/a	n/a	n/a	n/a	9	[0, 0, 0]	-999	PAL1	1	R1276D
1138.993	0.016	1147984	REC_END	n/a	n/a	6	-999	n/a	n/a	n/a	n/a	9	[0, 0, 0]	-999	PAL1	1	R1276D
1139.009	0.267	1148000	TEST_ORIENT	n/a	n/a	3	5	INK	RAKE	INK	RAKE	9	[0, 0, 0]	-999	PAL1	1	R1276D
1139.276	0.533	1148267	RETRIEVAL_ORIENT_OFF	n/a	n/a	6	-999	n/a	n/a	n/a	n/a	9	[0, 0, 0]	-999	PAL1	1	R1276D
1139.809	4.0	1148800	TEST_PROBE	n/a	wordpools/wordpool_EN.txt	3	5	INK	RAKE	INK	RAKE	9	[0, 0, 0]	-999	PAL1	1	R1276D
1139.809	1.369	1148800	REC_START	n/a	n/a	3	-999	n/a	RAKE	n/a	n/a	9	[0, 0, 0]	-999	PAL1	1	R1276D
1141.178	2.648	1150169	REC_EVENT	1.369	n/a	3	5	INK	RAKE	INK	RAKE	9	[0, 0, 0]	-999	PAL1	1	R1276D
1143.826	1.0	1152817	PROBE_OFF	n/a	n/a	3	-999	n/a	n/a	n/a	n/a	9	[0, 0, 0]	-999	PAL1	1	R1276D
1144.826	0.017	1153817	REC_END	n/a	n/a	3	-999	n/a	n/a	n/a	n/a	9	[0, 0, 0]	-999	PAL1	1	R1276D
1144.843	0.268	1153834	TEST_ORIENT	n/a	n/a	2	6	SKI	CRANE	SKI	CRANE	9	[0, 0, 0]	-999	PAL1	1	R1276D
1145.111	0.766	1154102	RETRIEVAL_ORIENT_OFF	n/a	n/a	3	-999	n/a	n/a	n/a	n/a	9	[0, 0, 0]	-999	PAL1	1	R1276D
1145.877	4.0	1154868	TEST_PROBE	n/a	wordpools/wordpool_EN.txt	2	6	SKI	CRANE	SKI	CRANE	9	[0, 0, 0]	-999	PAL1	1	R1276D
1145.878	1.408	1154869	REC_START	n/a	n/a	2	-999	n/a	CRANE	n/a	n/a	9	[0, 0, 0]	-999	PAL1	1	R1276D
1147.286	2.609	1156277	REC_EVENT	1.408	n/a	2	6	SKI	CRANE	SKI	CRANE	9	[0, 0, 0]	-999	PAL1	1	R1276D
1149.895	1.0	1158885	PROBE_OFF	n/a	n/a	2	-999	n/a	n/a	n/a	n/a	9	[0, 0, 0]	-999	PAL1	1	R1276D
1150.895	0.009	1159885	REC_END	n/a	n/a	2	-999	n/a	n/a	n/a	n/a	9	[0, 0, 0]	-999	PAL1	1	R1276D
1150.904	5.724	1159894	RECALL_END	n/a	n/a	-999	-999	n/a	n/a	n/a	n/a	9	[0, 0, 0]	-999	PAL1	1	R1276D
1156.628	10.929	1165618	TRIAL	n/a	n/a	-999	-999	n/a	n/a	n/a	n/a	10	[0, 0, 0]	-999	PAL1	1	R1276D
1167.557	0.007	1176547	ENCODING_START	n/a	n/a	-999	-999	n/a	n/a	n/a	n/a	10	[0, 0, 0]	-999	PAL1	1	R1276D
1167.564	0.267	1176554	STUDY_ORIENT	n/a	n/a	1	5	SKY	SEA	SEA	SKY	10	[0, 0, 0]	-999	PAL1	1	R1276D
1167.831	0.733	1176821	STUDY_ORIENT_OFF	n/a	n/a	1	5	SKY	SEA	SEA	SKY	10	[0, 0, 0]	-999	PAL1	1	R1276D
1168.564	4.0	1177553	STUDY_PAIR	n/a	wordpools/wordpool_EN.txt	1	5	SKY	SEA	SEA	SKY	10	[0, 0, 0]	-999	PAL1	1	R1276D
1172.581	1.017	1181570	PAIR_OFF	n/a	n/a	1	5	SKY	SEA	SEA	SKY	10	[0, 0, 0]	-999	PAL1	1	R1276D
1173.598	0.268	1182587	STUDY_ORIENT	n/a	n/a	2	4	SHIP	STEAK	STEAK	SHIP	10	[0, 0, 0]	-999	PAL1	1	R1276D
1173.866	0.517	1182855	STUDY_ORIENT_OFF	n/a	n/a	2	4	SHIP	STEAK	STEAK	SHIP	10	[0, 0, 0]	-999	PAL1	1	R1276D
1174.383	4.0	1183372	STUDY_PAIR	n/a	wordpools/wordpool_EN.txt	2	4	SHIP	STEAK	STEAK	SHIP	10	[0, 0, 0]	-999	PAL1	1	R1276D
1178.4	1.017	1187389	PAIR_OFF	n/a	n/a	2	4	SHIP	STEAK	STEAK	SHIP	10	[0, 0, 0]	-999	PAL1	1	R1276D
1179.417	0.266	1188406	STUDY_ORIENT	n/a	n/a	3	3	FUR	JUICE	JUICE	FUR	10	[0, 0, 0]	-999	PAL1	1	R1276D
1179.683	0.601	1188672	STUDY_ORIENT_OFF	n/a	n/a	3	3	FUR	JUICE	JUICE	FUR	10	[0, 0, 0]	-999	PAL1	1	R1276D
1180.284	4.0	1189273	STUDY_PAIR	n/a	wordpools/wordpool_EN.txt	3	3	FUR	JUICE	JUICE	FUR	10	[0, 0, 0]	-999	PAL1	1	R1276D
1184.301	1.017	1193290	PAIR_OFF	n/a	n/a	3	3	FUR	JUICE	JUICE	FUR	10	[0, 0, 0]	-999	PAL1	1	R1276D
1185.318	0.266	1194307	STUDY_ORIENT	n/a	n/a	4	6	RAIN	PIG	PIG	RAIN	10	[0, 0, 0]	-999	PAL1	1	R1276D
1185.584	0.701	1194573	STUDY_ORIENT_OFF	n/a	n/a	4	6	RAIN	PIG	PIG	RAIN	10	[0, 0, 0]	-999	PAL1	1	R1276D
1186.285	4.0	1195273	STUDY_PAIR	n/a	wordpools/wordpool_EN.txt	4	6	RAIN	PIG	PIG	RAIN	10	[0, 0, 0]	-999	PAL1	1	R1276D
1190.302	1.017	1199290	PAIR_OFF	n/a	n/a	4	6	RAIN	PIG	PIG	RAIN	10	[0, 0, 0]	-999	PAL1	1	R1276D
1191.319	0.266	1200307	STUDY_ORIENT	n/a	n/a	5	1	SLUSH	PASS	NEST	SLUSH	10	[0, 0, 0]	-999	PAL1	1	R1276D
1191.585	0.701	1200573	STUDY_ORIENT_OFF	n/a	n/a	5	1	SLUSH	PASS	NEST	SLUSH	10	[0, 0, 0]	-999	PAL1	1	R1276D
1192.286	4.0	1201274	STUDY_PAIR	n/a	wordpools/wordpool_EN.txt	5	1	SLUSH	PASS	NEST	SLUSH	10	[0, 0, 0]	-999	PAL1	1	R1276D
1196.303	1.017	1205291	PAIR_OFF	n/a	n/a	5	1	SLUSH	PASS	NEST	SLUSH	10	[0, 0, 0]	-999	PAL1	1	R1276D
1197.32	0.266	1206308	STUDY_ORIENT	n/a	n/a	6	2	FOX	JUDGE	JUDGE	FOX	10	[0, 0, 0]	-999	PAL1	1	R1276D
1197.586	0.651	1206574	STUDY_ORIENT_OFF	n/a	n/a	6	2	FOX	JUDGE	JUDGE	FOX	10	[0, 0, 0]	-999	PAL1	1	R1276D
1198.237	4.0	1207225	STUDY_PAIR	n/a	wordpools/wordpool_EN.txt	6	2	FOX	JUDGE	JUDGE	FOX	10	[0, 0, 0]	-999	PAL1	1	R1276D
1202.255	1.001	1211243	PAIR_OFF	n/a	n/a	6	2	FOX	JUDGE	JUDGE	FOX	10	[0, 0, 0]	-999	PAL1	1	R1276D
1203.256	0.0	1212244	ENCODING_END	n/a	n/a	-999	-999	n/a	n/a	n/a	n/a	10	[0, 0, 0]	-999	PAL1	1	R1276D
1203.256	0.0	1212244	MATH_START	n/a	n/a	-999	-999	n/a	n/a	n/a	n/a	10	[0, 0, 0]	-999	PAL1	1	R1276D
1203.256	0.015	1212244	START	n/a	n/a	-999	-999	n/a	n/a	n/a	n/a	11	[-999, -999, -999]	-999	PAL1	1	R1276D
1203.271	2.851	1212259	PROB	2.818	n/a	-999	-999	n/a	n/a	n/a	n/a	11	[7, 5, 5]	17	PAL1	1	R1276D
1206.122	2.417	1215109	PROB	2.391	n/a	-999	-999	n/a	n/a	n/a	n/a	11	[1, 6, 1]	8	PAL1	1	R1276D
1208.539	2.316	1217526	PROB	2.293	n/a	-999	-999	n/a	n/a	n/a	n/a	11	[3, 7, 2]	12	PAL1	1	R1276D
1210.855	1.967	1219842	PROB	1.936	n/a	-999	-999	n/a	n/a	n/a	n/a	11	[1, 9, 2]	12	PAL1	1	R1276D
1212.822	2.185	1221809	PROB	2.155	n/a	-999	-999	n/a	n/a	n/a	n/a	11	[5, 5, 7]	17	PAL1	1	R1276D
1215.007	2.566	1223994	PROB	2.53	n/a	-999	-999	n/a	n/a	n/a	n/a	11	[3, 5, 7]	15	PAL1	1	R1276D
1217.573	2.818	1226560	PROB	2.788	n/a	-999	-999	n/a	n/a	n/a	n/a	11	[2, 3, 5]	10	PAL1	1	R1276D
1220.391	3.522	1229378	PROB	3.522	n/a	-999	-999	n/a	n/a	n/a	n/a	11	[7, 7, 6]	20	PAL1	1	R1276D
1223.913	0.012	1232899	STOP	n/a	n/a	-999	-999	n/a	n/a	n/a	n/a	11	[-999, -999, -999]	-999	PAL1	1	R1276D
1223.925	0.0	1232911	MATH_END	n/a	n/a	-999	-999	n/a	n/a	n/a	n/a	10	[0, 0, 0]	-999	PAL1	1	R1276D
1223.925	0.017	1232911	RECALL_START	n/a	n/a	-999	-999	n/a	n/a	n/a	n/a	10	[0, 0, 0]	-999	PAL1	1	R1276D
1223.942	0.266	1232928	TEST_ORIENT	n/a	n/a	5	1	SLUSH	PASS	NEST	SLUSH	10	[0, 0, 0]	-999	PAL1	1	R1276D
1224.208	0.667	1233194	RETRIEVAL_ORIENT_OFF	n/a	n/a	-999	-999	n/a	n/a	n/a	n/a	10	[0, 0, 0]	-999	PAL1	1	R1276D
1224.875	4.0	1233861	TEST_PROBE	n/a	wordpools/wordpool_EN.txt	5	1	SLUSH	PASS	NEST	SLUSH	10	[0, 0, 0]	-999	PAL1	1	R1276D
1224.876	3.336	1233862	REC_START	n/a	n/a	5	-999	n/a	PASS	n/a	n/a	10	[0, 0, 0]	-999	PAL1	1	R1276D
1228.212	0.681	1237198	REC_EVENT	3.336	n/a	5	1	SLUSH	PASS	NEST	SLUSH	10	[0, 0, 0]	-999	PAL1	1	R1276D
1228.893	1.0	1237879	PROBE_OFF	n/a	n/a	5	-999	n/a	n/a	n/a	n/a	10	[0, 0, 0]	-999	PAL1	1	R1276D
1229.893	0.017	1238879	REC_END	n/a	n/a	5	-999	n/a	n/a	n/a	n/a	10	[0, 0, 0]	-999	PAL1	1	R1276D
1229.91	0.266	1238896	TEST_ORIENT	n/a	n/a	6	2	FOX	JUDGE	JUDGE	FOX	10	[0, 0, 0]	-999	PAL1	1	R1276D
1230.176	0.633	1239162	RETRIEVAL_ORIENT_OFF	n/a	n/a	5	-999	n/a	n/a	n/a	n/a	10	[0, 0, 0]	-999	PAL1	1	R1276D
1230.809	4.0	1239795	TEST_PROBE	n/a	wordpools/wordpool_EN.txt	6	2	FOX	JUDGE	JUDGE	FOX	10	[0, 0, 0]	-999	PAL1	1	R1276D
1230.809	1.652	1239795	REC_START	n/a	n/a	6	-999	n/a	JUDGE	n/a	n/a	10	[0, 0, 0]	-999	PAL1	1	R1276D
1232.461	2.365	1241447	REC_EVENT	1.652	n/a	6	2	FOX	JUDGE	JUDGE	FOX	10	[0, 0, 0]	-999	PAL1	1	R1276D
1234.826	1.0	1243812	PROBE_OFF	n/a	n/a	6	-999	n/a	n/a	n/a	n/a	10	[0, 0, 0]	-999	PAL1	1	R1276D
1235.826	0.017	1244812	REC_END	n/a	n/a	6	-999	n/a	n/a	n/a	n/a	10	[0, 0, 0]	-999	PAL1	1	R1276D
1235.843	0.268	1244829	TEST_ORIENT	n/a	n/a	3	3	FUR	JUICE	JUICE	FUR	10	[0, 0, 0]	-999	PAL1	1	R1276D
1236.111	0.666	1245097	RETRIEVAL_ORIENT_OFF	n/a	n/a	6	-999	n/a	n/a	n/a	n/a	10	[0, 0, 0]	-999	PAL1	1	R1276D
1236.777	4.0	1245763	TEST_PROBE	n/a	wordpools/wordpool_EN.txt	3	3	FUR	JUICE	JUICE	FUR	10	[0, 0, 0]	-999	PAL1	1	R1276D
1236.777	2.113	1245763	REC_START	n/a	n/a	3	-999	n/a	JUICE	n/a	n/a	10	[0, 0, 0]	-999	PAL1	1	R1276D
1238.89	1.904	1247876	REC_EVENT	2.113	n/a	3	3	FUR	JUICE	JUICE	FUR	10	[0, 0, 0]	-999	PAL1	1	R1276D
1240.794	1.001	1249779	PROBE_OFF	n/a	n/a	3	-999	n/a	n/a	n/a	n/a	10	[0, 0, 0]	-999	PAL1	1	R1276D
1241.795	0.016	1250780	REC_END	n/a	n/a	3	-999	n/a	n/a	n/a	n/a	10	[0, 0, 0]	-999	PAL1	1	R1276D
1241.811	0.267	1250796	TEST_ORIENT	n/a	n/a	2	4	SHIP	STEAK	STEAK	SHIP	10	[0, 0, 0]	-999	PAL1	1	R1276D
1242.078	0.716	1251063	RETRIEVAL_ORIENT_OFF	n/a	n/a	3	-999	n/a	n/a	n/a	n/a	10	[0, 0, 0]	-999	PAL1	1	R1276D
1242.794	4.0	1251779	TEST_PROBE	n/a	wordpools/wordpool_EN.txt	2	4	SHIP	STEAK	STEAK	SHIP	10	[0, 0, 0]	-999	PAL1	1	R1276D
1242.795	1.029	1251780	REC_START	n/a	n/a	2	-999	n/a	STEAK	n/a	n/a	10	[0, 0, 0]	-999	PAL1	1	R1276D
1243.824	2.988	1252809	REC_EVENT	1.029	n/a	2	4	SHIP	STEAK	STEAK	SHIP	10	[0, 0, 0]	-999	PAL1	1	R1276D
1246.812	1.009	1255797	PROBE_OFF	n/a	n/a	2	-999	n/a	n/a	n/a	n/a	10	[0, 0, 0]	-999	PAL1	1	R1276D
1247.821	0.007	1256806	REC_END	n/a	n/a	2	-999	n/a	n/a	n/a	n/a	10	[0, 0, 0]	-999	PAL1	1	R1276D
1247.828	0.268	1256813	TEST_ORIENT	n/a	n/a	1	5	SKY	SEA	SEA	SKY	10	[0, 0, 0]	-999	PAL1	1	R1276D
1248.096	0.633	1257081	RETRIEVAL_ORIENT_OFF	n/a	n/a	2	-999	n/a	n/a	n/a	n/a	10	[0, 0, 0]	-999	PAL1	1	R1276D
1248.729	4.0	1257714	TEST_PROBE	n/a	wordpools/wordpool_EN.txt	1	5	SKY	SEA	SEA	SKY	10	[0, 0, 0]	-999	PAL1	1	R1276D
1248.729	1.241	1257714	REC_START	n/a	n/a	1	-999	n/a	SEA	n/a	n/a	10	[0, 0, 0]	-999	PAL1	1	R1276D
1249.97	2.776	1258955	REC_EVENT	1.241	n/a	1	5	SKY	SEA	SEA	SKY	10	[0, 0, 0]	-999	PAL1	1	R1276D
1252.746	1.0	1261731	PROBE_OFF	n/a	n/a	1	-999	n/a	n/a	n/a	n/a	10	[0, 0, 0]	-999	PAL1	1	R1276D
1253.746	0.034	1262731	REC_END	n/a	n/a	1	-999	n/a	n/a	n/a	n/a	10	[0, 0, 0]	-999	PAL1	1	R1276D
1253.78	0.267	1262765	TEST_ORIENT	n/a	n/a	4	6	RAIN	PIG	PIG	RAIN	10	[0, 0, 0]	-999	PAL1	1	R1276D
1254.047	0.716	1263032	RETRIEVAL_ORIENT_OFF	n/a	n/a	1	-999	n/a	n/a	n/a	n/a	10	[0, 0, 0]	-999	PAL1	1	R1276D
1254.763	4.0	1263748	TEST_PROBE	n/a	wordpools/wordpool_EN.txt	4	6	RAIN	PIG	PIG	RAIN	10	[0, 0, 0]	-999	PAL1	1	R1276D
1254.764	1.588	1263749	REC_START	n/a	n/a	4	-999	n/a	PIG	n/a	n/a	10	[0, 0, 0]	-999	PAL1	1	R1276D
1256.352	2.429	1265337	REC_EVENT	1.588	n/a	4	6	RAIN	PIG	PIG	RAIN	10	[0, 0, 0]	-999	PAL1	1	R1276D
1258.781	1.0	1267765	PROBE_OFF	n/a	n/a	4	-999	n/a	n/a	n/a	n/a	10	[0, 0, 0]	-999	PAL1	1	R1276D
1259.781	0.009	1268765	REC_END	n/a	n/a	4	-999	n/a	n/a	n/a	n/a	10	[0, 0, 0]	-999	PAL1	1	R1276D
1259.79	17.245	1268774	RECALL_END	n/a	n/a	-999	-999	n/a	n/a	n/a	n/a	10	[0, 0, 0]	-999	PAL1	1	R1276D
1277.035	10.928	1286018	TRIAL	n/a	n/a	-999	-999	n/a	n/a	n/a	n/a	11	[0, 0, 0]	-999	PAL1	1	R1276D
1287.963	0.007	1296946	ENCODING_START	n/a	n/a	-999	-999	n/a	n/a	n/a	n/a	11	[0, 0, 0]	-999	PAL1	1	R1276D
1287.97	0.267	1296953	STUDY_ORIENT	n/a	n/a	1	1	CROWN	TOOTH	PEAR	CROWN	11	[0, 0, 0]	-999	PAL1	1	R1276D
1288.237	0.582	1297220	STUDY_ORIENT_OFF	n/a	n/a	1	1	CROWN	TOOTH	PEAR	CROWN	11	[0, 0, 0]	-999	PAL1	1	R1276D
1288.819	4.0	1297802	STUDY_PAIR	n/a	wordpools/wordpool_EN.txt	1	1	CROWN	TOOTH	PEAR	CROWN	11	[0, 0, 0]	-999	PAL1	1	R1276D
1292.837	1.017	1301820	PAIR_OFF	n/a	n/a	1	1	CROWN	TOOTH	PEAR	CROWN	11	[0, 0, 0]	-999	PAL1	1	R1276D
1293.854	0.268	1302837	STUDY_ORIENT	n/a	n/a	2	4	BRANCH	PRINCE	BRANCH	PRINCE	11	[0, 0, 0]	-999	PAL1	1	R1276D
1294.122	0.582	1303104	STUDY_ORIENT_OFF	n/a	n/a	2	4	BRANCH	PRINCE	BRANCH	PRINCE	11	[0, 0, 0]	-999	PAL1	1	R1276D
1294.704	4.0	1303686	STUDY_PAIR	n/a	wordpools/wordpool_EN.txt	2	4	BRANCH	PRINCE	BRANCH	PRINCE	11	[0, 0, 0]	-999	PAL1	1	R1276D
1298.721	1.017	1307703	PAIR_OFF	n/a	n/a	2	4	BRANCH	PRINCE	BRANCH	PRINCE	11	[0, 0, 0]	-999	PAL1	1	R1276D
1299.738	0.268	1308720	STUDY_ORIENT	n/a	n/a	3	3	MAP	PASS	DIME	MAP	11	[0, 0, 0]	-999	PAL1	1	R1276D
1300.006	0.533	1308988	STUDY_ORIENT_OFF	n/a	n/a	3	3	MAP	PASS	DIME	MAP	11	[0, 0, 0]	-999	PAL1	1	R1276D
1300.539	4.0	1309521	STUDY_PAIR	n/a	wordpools/wordpool_EN.txt	3	3	MAP	PASS	DIME	MAP	11	[0, 0, 0]	-999	PAL1	1	R1276D
1304.557	1.016	1313539	PAIR_OFF	n/a	n/a	3	3	MAP	PASS	DIME	MAP	11	[0, 0, 0]	-999	PAL1	1	R1276D
1305.573	0.266	1314555	STUDY_ORIENT	n/a	n/a	4	2	TOOTH	PASS	NET	TOOTH	11	[0, 0, 0]	-999	PAL1	1	R1276D
1305.839	0.601	1314821	STUDY_ORIENT_OFF	n/a	n/a	4	2	TOOTH	PASS	NET	TOOTH	11	[0, 0, 0]	-999	PAL1	1	R1276D
1306.44	4.0	1315422	STUDY_PAIR	n/a	wordpools/wordpool_EN.txt	4	2	TOOTH	PASS	NET	TOOTH	11	[0, 0, 0]	-999	PAL1	1	R1276D
1310.458	1.017	1319440	PAIR_OFF	n/a	n/a	4	2	TOOTH	PASS	NET	TOOTH	11	[0, 0, 0]	-999	PAL1	1	R1276D
1311.475	0.265	1320457	STUDY_ORIENT	n/a	n/a	5	5	FILM	PASS	SEAL	FILM	11	[0, 0, 0]	-999	PAL1	1	R1276D
1311.74	0.651	1320722	STUDY_ORIENT_OFF	n/a	n/a	5	5	FILM	PASS	SEAL	FILM	11	[0, 0, 0]	-999	PAL1	1	R1276D
1312.391	4.0	1321372	STUDY_PAIR	n/a	wordpools/wordpool_EN.txt	5	5	FILM	PASS	SEAL	FILM	11	[0, 0, 0]	-999	PAL1	1	R1276D
1316.409	1.017	1325390	PAIR_OFF	n/a	n/a	5	5	FILM	PASS	SEAL	FILM	11	[0, 0, 0]	-999	PAL1	1	R1276D
1317.426	0.265	1326407	STUDY_ORIENT	n/a	n/a	6	6	MOTH	PASS	EAR	MOTH	11	[0, 0, 0]	-999	PAL1	1	R1276D
1317.691	0.618	1326672	STUDY_ORIENT_OFF	n/a	n/a	6	6	MOTH	PASS	EAR	MOTH	11	[0, 0, 0]	-999	PAL1	1	R1276D
1318.309	4.0	1327290	STUDY_PAIR	n/a	wordpools/wordpool_EN.txt	6	6	MOTH	PASS	EAR	MOTH	11	[0, 0, 0]	-999	PAL1	1	R1276D
1322.327	1.0	1331308	PAIR_OFF	n/a	n/a	6	6	MOTH	PASS	EAR	MOTH	11	[0, 0, 0]	-999	PAL1	1	R1276D
1323.327	0.0	1332308	ENCODING_END	n/a	n/a	-999	-999	n/a	n/a	n/a	n/a	11	[0, 0, 0]	-999	PAL1	1	R1276D
1323.327	0.0	1332308	MATH_START	n/a	n/a	-999	-999	n/a	n/a	n/a	n/a	11	[0, 0, 0]	-999	PAL1	1	R1276D
1323.327	0.016	1332308	START	n/a	n/a	-999	-999	n/a	n/a	n/a	n/a	12	[-999, -999, -999]	-999	PAL1	1	R1276D
1323.343	3.718	1332324	PROB	3.682	n/a	-999	-999	n/a	n/a	n/a	n/a	12	[9, 3, 5]	17	PAL1	1	R1276D
1327.061	2.8	1336042	PROB	2.763	n/a	-999	-999	n/a	n/a	n/a	n/a	12	[1, 3, 3]	7	PAL1	1	R1276D
1329.861	2.717	1338842	PROB	2.684	n/a	-999	-999	n/a	n/a	n/a	n/a	12	[1, 4, 3]	8	PAL1	1	R1276D
1332.578	3.685	1341558	PROB	3.655	n/a	-999	-999	n/a	n/a	n/a	n/a	12	[5, 8, 1]	14	PAL1	1	R1276D
1336.263	4.184	1345243	PROB	4.161	n/a	-999	-999	n/a	n/a	n/a	n/a	12	[8, 5, 3]	16	PAL1	1	R1276D
1340.447	3.474	1349427	PROB	3.474	n/a	-999	-999	n/a	n/a	n/a	n/a	12	[8, 8, 9]	25	PAL1	1	R1276D
1343.921	0.01	1352901	STOP	n/a	n/a	-999	-999	n/a	n/a	n/a	n/a	12	[-999, -999, -999]	-999	PAL1	1	R1276D
1343.931	0.0	1352911	MATH_END	n/a	n/a	-999	-999	n/a	n/a	n/a	n/a	11	[0, 0, 0]	-999	PAL1	1	R1276D
1343.931	0.016	1352911	RECALL_START	n/a	n/a	-999	-999	n/a	n/a	n/a	n/a	11	[0, 0, 0]	-999	PAL1	1	R1276D
1343.947	0.267	1352927	TEST_ORIENT	n/a	n/a	1	1	CROWN	TOOTH	PEAR	CROWN	11	[0, 0, 0]	-999	PAL1	1	R1276D
1344.214	0.734	1353194	RETRIEVAL_ORIENT_OFF	n/a	n/a	-999	-999	n/a	n/a	n/a	n/a	11	[0, 0, 0]	-999	PAL1	1	R1276D
1344.948	4.0	1353928	TEST_PROBE	n/a	wordpools/wordpool_EN.txt	1	1	CROWN	TOOTH	PEAR	CROWN	11	[0, 0, 0]	-999	PAL1	1	R1276D
1344.949	2.733	1353929	REC_START	n/a	n/a	1	-999	n/a	TOOTH	n/a	n/a	11	[0, 0, 0]	-999	PAL1	1	R1276D
1347.682	1.283	1356662	REC_EVENT	2.733	n/a	1	1	CROWN	TOOTH	PEAR	CROWN	11	[0, 0, 0]	-999	PAL1	1	R1276D
1348.965	1.01	1357944	PROBE_OFF	n/a	n/a	1	-999	n/a	n/a	n/a	n/a	11	[0, 0, 0]	-999	PAL1	1	R1276D
1349.975	0.006	1358954	REC_END	n/a	n/a	1	-999	n/a	n/a	n/a	n/a	11	[0, 0, 0]	-999	PAL1	1	R1276D
1349.981	0.267	1358960	TEST_ORIENT	n/a	n/a	4	2	TOOTH	PASS	NET	TOOTH	11	[0, 0, 0]	-999	PAL1	1	R1276D
1350.248	0.549	1359227	RETRIEVAL_ORIENT_OFF	n/a	n/a	1	-999	n/a	n/a	n/a	n/a	11	[0, 0, 0]	-999	PAL1	1	R1276D
1350.797	4.0	1359776	TEST_PROBE	n/a	wordpools/wordpool_EN.txt	4	2	TOOTH	PASS	NET	TOOTH	11	[0, 0, 0]	-999	PAL1	1	R1276D
1350.798	2.35	1359777	REC_START	n/a	n/a	4	-999	n/a	PASS	n/a	n/a	11	[0, 0, 0]	-999	PAL1	1	R1276D
1353.148	1.667	1362127	REC_EVENT	2.35	n/a	4	2	TOOTH	<>	NET	TOOTH	11	[0, 0, 0]	-999	PAL1	1	R1276D
1354.815	0.399	1363794	PROBE_OFF	n/a	n/a	4	-999	n/a	n/a	n/a	n/a	11	[0, 0, 0]	-999	PAL1	1	R1276D
1355.214	0.601	1364193	REC_EVENT	4.416	n/a	4	2	TOOTH	PASS	NET	TOOTH	11	[0, 0, 0]	-999	PAL1	1	R1276D
1355.815	0.017	1364794	REC_END	n/a	n/a	4	-999	n/a	n/a	n/a	n/a	11	[0, 0, 0]	-999	PAL1	1	R1276D
1355.832	0.268	1364811	TEST_ORIENT	n/a	n/a	3	3	MAP	PASS	DIME	MAP	11	[0, 0, 0]	-999	PAL1	1	R1276D
1356.1	0.549	1365079	RETRIEVAL_ORIENT_OFF	n/a	n/a	4	-999	n/a	n/a	n/a	n/a	11	[0, 0, 0]	-999	PAL1	1	R1276D
1356.649	4.0	1365628	TEST_PROBE	n/a	wordpools/wordpool_EN.txt	3	3	MAP	PASS	DIME	MAP	11	[0, 0, 0]	-999	PAL1	1	R1276D
1356.649	1.814	1365628	REC_START	n/a	n/a	3	-999	n/a	PASS	n/a	n/a	11	[0, 0, 0]	-999	PAL1	1	R1276D
1358.463	2.203	1367442	REC_EVENT	1.814	n/a	3	3	MAP	PASS	DIME	MAP	11	[0, 0, 0]	-999	PAL1	1	R1276D
1360.666	1.0	1369645	PROBE_OFF	n/a	n/a	3	-999	n/a	n/a	n/a	n/a	11	[0, 0, 0]	-999	PAL1	1	R1276D
1361.666	0.017	1370645	REC_END	n/a	n/a	3	-999	n/a	n/a	n/a	n/a	11	[0, 0, 0]	-999	PAL1	1	R1276D
1361.683	0.268	1370662	TEST_ORIENT	n/a	n/a	2	4	BRANCH	PRINCE	BRANCH	PRINCE	11	[0, 0, 0]	-999	PAL1	1	R1276D
1361.951	0.682	1370930	RETRIEVAL_ORIENT_OFF	n/a	n/a	3	-999	n/a	n/a	n/a	n/a	11	[0, 0, 0]	-999	PAL1	1	R1276D
1362.633	4.0	1371612	TEST_PROBE	n/a	wordpools/wordpool_EN.txt	2	4	BRANCH	PRINCE	BRANCH	PRINCE	11	[0, 0, 0]	-999	PAL1	1	R1276D
1362.634	2.296	1371613	REC_START	n/a	n/a	2	-999	n/a	PRINCE	n/a	n/a	11	[0, 0, 0]	-999	PAL1	1	R1276D
1364.93	1.721	1373909	REC_EVENT	2.296	n/a	2	4	BRANCH	PRINCE	BRANCH	PRINCE	11	[0, 0, 0]	-999	PAL1	1	R1276D
1366.651	1.0	1375629	PROBE_OFF	n/a	n/a	2	-999	n/a	n/a	n/a	n/a	11	[0, 0, 0]	-999	PAL1	1	R1276D
1367.651	0.033	1376629	REC_END	n/a	n/a	2	-999	n/a	n/a	n/a	n/a	11	[0, 0, 0]	-999	PAL1	1	R1276D
1367.684	0.268	1376662	TEST_ORIENT	n/a	n/a	5	5	FILM	PASS	SEAL	FILM	11	[0, 0, 0]	-999	PAL1	1	R1276D
1367.952	0.516	1376930	RETRIEVAL_ORIENT_OFF	n/a	n/a	2	-999	n/a	n/a	n/a	n/a	11	[0, 0, 0]	-999	PAL1	1	R1276D
1368.468	4.0	1377446	TEST_PROBE	n/a	wordpools/wordpool_EN.txt	5	5	FILM	PASS	SEAL	FILM	11	[0, 0, 0]	-999	PAL1	1	R1276D
1368.469	2.751	1377447	REC_START	n/a	n/a	5	-999	n/a	PASS	n/a	n/a	11	[0, 0, 0]	-999	PAL1	1	R1276D
1371.22	0.87	1380198	REC_EVENT	2.751	n/a	5	5	FILM	<>	SEAL	FILM	11	[0, 0, 0]	-999	PAL1	1	R1276D
1372.09	0.396	1381068	REC_EVENT	3.621	n/a	5	5	FILM	PASS	SEAL	FILM	11	[0, 0, 0]	-999	PAL1	1	R1276D
1372.486	1.0	1381464	PROBE_OFF	n/a	n/a	5	-999	n/a	n/a	n/a	n/a	11	[0, 0, 0]	-999	PAL1	1	R1276D
1373.486	0.017	1382464	REC_END	n/a	n/a	5	-999	n/a	n/a	n/a	n/a	11	[0, 0, 0]	-999	PAL1	1	R1276D
1373.503	0.265	1382481	TEST_ORIENT	n/a	n/a	6	6	MOTH	PASS	EAR	MOTH	11	[0, 0, 0]	-999	PAL1	1	R1276D
1373.768	0.602	1382746	RETRIEVAL_ORIENT_OFF	n/a	n/a	5	-999	n/a	n/a	n/a	n/a	11	[0, 0, 0]	-999	PAL1	1	R1276D
1374.37	4.0	1383348	TEST_PROBE	n/a	wordpools/wordpool_EN.txt	6	6	MOTH	PASS	EAR	MOTH	11	[0, 0, 0]	-999	PAL1	1	R1276D
1374.37	3.234	1383348	REC_START	n/a	n/a	6	-999	n/a	PASS	n/a	n/a	11	[0, 0, 0]	-999	PAL1	1	R1276D
1377.604	0.783	1386582	REC_EVENT	3.234	n/a	6	6	MOTH	PASS	EAR	MOTH	11	[0, 0, 0]	-999	PAL1	1	R1276D
1378.387	1.0	1387365	PROBE_OFF	n/a	n/a	6	-999	n/a	n/a	n/a	n/a	11	[0, 0, 0]	-999	PAL1	1	R1276D
1379.387	0.004	1388365	REC_END	n/a	n/a	6	-999	n/a	n/a	n/a	n/a	11	[0, 0, 0]	-999	PAL1	1	R1276D
1379.391	4.897	1388369	RECALL_END	n/a	n/a	-999	-999	n/a	n/a	n/a	n/a	11	[0, 0, 0]	-999	PAL1	1	R1276D
1384.288	10.928	1393265	TRIAL	n/a	n/a	-999	-999	n/a	n/a	n/a	n/a	12	[0, 0, 0]	-999	PAL1	1	R1276D
1395.216	0.008	1404193	ENCODING_START	n/a	n/a	-999	-999	n/a	n/a	n/a	n/a	12	[0, 0, 0]	-999	PAL1	1	R1276D
1395.224	0.266	1404201	STUDY_ORIENT	n/a	n/a	1	3	SHRIMP	SUIT	SHRIMP	SUIT	12	[0, 0, 0]	-999	PAL1	1	R1276D
1395.49	0.75	1404467	STUDY_ORIENT_OFF	n/a	n/a	1	3	SHRIMP	SUIT	SHRIMP	SUIT	12	[0, 0, 0]	-999	PAL1	1	R1276D
1396.24	4.0	1405217	STUDY_PAIR	n/a	wordpools/wordpool_EN.txt	1	3	SHRIMP	SUIT	SHRIMP	SUIT	12	[0, 0, 0]	-999	PAL1	1	R1276D
1400.258	1.017	1409235	PAIR_OFF	n/a	n/a	1	3	SHRIMP	SUIT	SHRIMP	SUIT	12	[0, 0, 0]	-999	PAL1	1	R1276D
1401.275	0.266	1410252	STUDY_ORIENT	n/a	n/a	2	2	CHALK	STONE	CHALK	STONE	12	[0, 0, 0]	-999	PAL1	1	R1276D
1401.541	0.617	1410518	STUDY_ORIENT_OFF	n/a	n/a	2	2	CHALK	STONE	CHALK	STONE	12	[0, 0, 0]	-999	PAL1	1	R1276D
1402.158	4.0	1411135	STUDY_PAIR	n/a	wordpools/wordpool_EN.txt	2	2	CHALK	STONE	CHALK	STONE	12	[0, 0, 0]	-999	PAL1	1	R1276D
1406.175	1.017	1415151	PAIR_OFF	n/a	n/a	2	2	CHALK	STONE	CHALK	STONE	12	[0, 0, 0]	-999	PAL1	1	R1276D
1407.192	0.267	1416168	STUDY_ORIENT	n/a	n/a	3	1	CASH	BEAK	CASH	BEAK	12	[0, 0, 0]	-999	PAL1	1	R1276D
