onset	duration	sample	trial_type	response_time	serialpos	probepos	probe_word	resp_word	study_1	study_2	list	test	answer	experiment	session	subject
0.0	0.0	9134	INSTRUCT_VIDEO_ON	n/a	-999	-999	n/a	n/a	n/a	n/a	-999	[0, 0, 0]	-999	PAL1	1	R1283T
0.0	5.646	9134	INSTRUCT_VIDEO_OFF	n/a	-999	-999	n/a	n/a	n/a	n/a	-999	[0, 0, 0]	-999	PAL1	1	R1283T
5.646	0.0	14780	SESS_START	n/a	-999	-999	n/a	n/a	n/a	n/a	-999	[0, 0, 0]	-999	PAL1	1	R1283T
5.646	182.577	14780	MIC_TEST	n/a	-999	-999	n/a	n/a	n/a	n/a	-999	[0, 0, 0]	-999	PAL1	1	R1283T
188.223	12.758	197346	PRACTICE_TRIAL	n/a	-999	-999	n/a	n/a	n/a	n/a	-1	[0, 0, 0]	-999	PAL1	1	R1283T
200.981	0.006	210103	ENCODING_START	n/a	-999	-999	n/a	n/a	n/a	n/a	-1	[0, 0, 0]	-999	PAL1	1	R1283T
200.987	0.267	210109	PRACTICE_ORIENT	n/a	1	1	WATCH	n/a	BEAM	WATCH	-1	[0, 0, 0]	-999	PAL1	1	R1283T
201.254	0.533	210376	PRACTICE_ORIENT_OFF	n/a	1	1	WATCH	n/a	BEAM	WATCH	-1	[0, 0, 0]	-999	PAL1	1	R1283T
201.787	4.017	210909	PRACTICE_PAIR	n/a	1	1	WATCH	n/a	BEAM	WATCH	-1	[0, 0, 0]	-999	PAL1	1	R1283T
205.804	1.017	214926	PRACTICE_PAIR_OFF	n/a	1	1	WATCH	n/a	BEAM	WATCH	-1	[0, 0, 0]	-999	PAL1	1	R1283T
206.821	0.267	215943	PRACTICE_ORIENT	n/a	2	4	IRON	n/a	IRON	WAGON	-1	[0, 0, 0]	-999	PAL1	1	R1283T
207.088	0.533	216210	PRACTICE_ORIENT_OFF	n/a	2	4	IRON	n/a	IRON	WAGON	-1	[0, 0, 0]	-999	PAL1	1	R1283T
207.621	4.017	216743	PRACTICE_PAIR	n/a	2	4	IRON	n/a	IRON	WAGON	-1	[0, 0, 0]	-999	PAL1	1	R1283T
211.638	1.017	220759	PRACTICE_PAIR_OFF	n/a	2	4	IRON	n/a	IRON	WAGON	-1	[0, 0, 0]	-999	PAL1	1	R1283T
212.655	0.267	221776	PRACTICE_ORIENT	n/a	3	5	RHINO	n/a	RHINO	RING	-1	[0, 0, 0]	-999	PAL1	1	R1283T
212.922	0.617	222043	PRACTICE_ORIENT_OFF	n/a	3	5	RHINO	n/a	RHINO	RING	-1	[0, 0, 0]	-999	PAL1	1	R1283T
213.539	4.017	222660	PRACTICE_PAIR	n/a	3	5	RHINO	n/a	RHINO	RING	-1	[0, 0, 0]	-999	PAL1	1	R1283T
217.556	1.017	226677	PRACTICE_PAIR_OFF	n/a	3	5	RHINO	n/a	RHINO	RING	-1	[0, 0, 0]	-999	PAL1	1	R1283T
218.573	0.267	227694	PRACTICE_ORIENT	n/a	4	2	CAMEL	n/a	CHEST	CAMEL	-1	[0, 0, 0]	-999	PAL1	1	R1283T
218.84	0.584	227961	PRACTICE_ORIENT_OFF	n/a	4	2	CAMEL	n/a	CHEST	CAMEL	-1	[0, 0, 0]	-999	PAL1	1	R1283T
219.424	4.018	228545	PRACTICE_PAIR	n/a	4	2	CAMEL	n/a	CHEST	CAMEL	-1	[0, 0, 0]	-999	PAL1	1	R1283T
223.442	1.016	232563	PRACTICE_PAIR_OFF	n/a	4	2	CAMEL	n/a	CHEST	CAMEL	-1	[0, 0, 0]	-999	PAL1	1	R1283T
224.458	0.266	233579	PRACTICE_ORIENT	n/a	5	3	TONGUE	n/a	TONGUE	COTTON	-1	[0, 0, 0]	-999	PAL1	1	R1283T
224.724	0.768	233845	PRACTICE_ORIENT_OFF	n/a	5	3	TONGUE	n/a	TONGUE	COTTON	-1	[0, 0, 0]	-999	PAL1	1	R1283T
225.492	4.016	234613	PRACTICE_PAIR	n/a	5	3	TONGUE	n/a	TONGUE	COTTON	-1	[0, 0, 0]	-999	PAL1	1	R1283T
229.508	1.017	238628	PRACTICE_PAIR_OFF	n/a	5	3	TONGUE	n/a	TONGUE	COTTON	-1	[0, 0, 0]	-999	PAL1	1	R1283T
230.525	0.267	239645	PRACTICE_ORIENT	n/a	6	6	ATTIC	n/a	FLOOD	ATTIC	-1	[0, 0, 0]	-999	PAL1	1	R1283T
230.792	0.651	239912	PRACTICE_ORIENT_OFF	n/a	6	6	ATTIC	n/a	FLOOD	ATTIC	-1	[0, 0, 0]	-999	PAL1	1	R1283T
231.443	4.017	240563	PRACTICE_PAIR	n/a	6	6	ATTIC	n/a	FLOOD	ATTIC	-1	[0, 0, 0]	-999	PAL1	1	R1283T
235.46	1.001	244580	PRACTICE_PAIR_OFF	n/a	6	6	ATTIC	n/a	FLOOD	ATTIC	-1	[0, 0, 0]	-999	PAL1	1	R1283T
236.461	0.0	245581	ENCODING_END	n/a	-999	-999	n/a	n/a	n/a	n/a	-1	[0, 0, 0]	-999	PAL1	1	R1283T
236.461	0.0	245581	MATH_START	n/a	-999	-999	n/a	n/a	n/a	n/a	-1	[0, 0, 0]	-999	PAL1	1	R1283T
236.461	0.016	245581	START	n/a	-999	-999	n/a	n/a	n/a	n/a	1	[-999, -999, -999]	-999	PAL1	1	R1283T
236.477	10.068	245597	PROB	10037	-999	-999	n/a	n/a	n/a	n/a	1	[9, 6, 9]	7	PAL1	1	R1283T
246.545	1.801	255664	PROB	1770	-999	-999	n/a	n/a	n/a	n/a	1	[3, 7, 8]	7	PAL1	1	R1283T
248.346	1.249	257465	PROB	1225	-999	-999	n/a	n/a	n/a	n/a	1	[3, 3, 6]	7	PAL1	1	R1283T
249.595	1.668	258714	PROB	1632	-999	-999	n/a	n/a	n/a	n/a	1	[7, 1, 1]	7	PAL1	1	R1283T
251.263	2.217	260382	PROB	2188	-999	-999	n/a	n/a	n/a	n/a	1	[9, 6, 4]	7	PAL1	1	R1283T
253.48	1.566	262599	PROB	1538	-999	-999	n/a	n/a	n/a	n/a	1	[3, 1, 9]	7	PAL1	1	R1283T
255.046	1.725	264165	PROB	1725	-999	-999	n/a	n/a	n/a	n/a	1	[7, 9, 3]	7	PAL1	1	R1283T
256.771	0.009	265890	STOP	n/a	-999	-999	n/a	n/a	n/a	n/a	1	[-999, -999, -999]	-999	PAL1	1	R1283T
256.78	0.0	265899	MATH_END	n/a	-999	-999	n/a	n/a	n/a	n/a	-1	[0, 0, 0]	-999	PAL1	1	R1283T
256.78	0.017	265899	RECALL_START	n/a	-999	-999	n/a	n/a	n/a	n/a	-1	[0, 0, 0]	-999	PAL1	1	R1283T
256.797	0.266	265916	PRACTICE_RETRIEVAL_ORIENT	n/a	1	1	WATCH	n/a	BEAM	WATCH	-1	[0, 0, 0]	-999	PAL1	1	R1283T
257.063	0.684	266182	PRACTICE_RETRIEVAL_ORIENT_OFF	n/a	1	1	WATCH	n/a	BEAM	WATCH	-1	[0, 0, 0]	-999	PAL1	1	R1283T
257.747	0.0	266866	PRACTICE_PROBE	n/a	1	1	WATCH	n/a	BEAM	WATCH	-1	[0, 0, 0]	-999	PAL1	1	R1283T
257.747	4.017	266866	REC_START	n/a	1	-999	n/a	n/a	n/a	n/a	-1	[0, 0, 0]	-999	PAL1	1	R1283T
261.764	1.001	270882	PROBE_OFF	n/a	1	-999	n/a	n/a	n/a	n/a	-1	[0, 0, 0]	-999	PAL1	1	R1283T
262.765	0.016	271883	REC_END	n/a	1	-999	n/a	n/a	n/a	n/a	-1	[0, 0, 0]	-999	PAL1	1	R1283T
262.781	0.267	271899	PRACTICE_RETRIEVAL_ORIENT	n/a	4	2	CAMEL	n/a	CHEST	CAMEL	-1	[0, 0, 0]	-999	PAL1	1	R1283T
263.048	0.75	272166	PRACTICE_RETRIEVAL_ORIENT_OFF	n/a	4	2	CAMEL	n/a	CHEST	CAMEL	-1	[0, 0, 0]	-999	PAL1	1	R1283T
263.798	0.0	272916	REC_START	n/a	4	-999	n/a	n/a	n/a	n/a	-1	[0, 0, 0]	-999	PAL1	1	R1283T
263.798	4.017	272916	PRACTICE_PROBE	n/a	4	2	CAMEL	n/a	CHEST	CAMEL	-1	[0, 0, 0]	-999	PAL1	1	R1283T
267.815	1.0	276933	PROBE_OFF	n/a	4	-999	n/a	n/a	n/a	n/a	-1	[0, 0, 0]	-999	PAL1	1	R1283T
268.815	0.017	277933	REC_END	n/a	4	-999	n/a	n/a	n/a	n/a	-1	[0, 0, 0]	-999	PAL1	1	R1283T
268.832	0.267	277950	PRACTICE_RETRIEVAL_ORIENT	n/a	5	3	TONGUE	n/a	TONGUE	COTTON	-1	[0, 0, 0]	-999	PAL1	1	R1283T
269.099	0.533	278217	PRACTICE_RETRIEVAL_ORIENT_OFF	n/a	5	3	TONGUE	n/a	TONGUE	COTTON	-1	[0, 0, 0]	-999	PAL1	1	R1283T
269.632	0.001	278750	PRACTICE_PROBE	n/a	5	3	TONGUE	n/a	TONGUE	COTTON	-1	[0, 0, 0]	-999	PAL1	1	R1283T
269.633	4.017	278751	REC_START	n/a	5	-999	n/a	n/a	n/a	n/a	-1	[0, 0, 0]	-999	PAL1	1	R1283T
273.65	1.0	282768	PROBE_OFF	n/a	5	-999	n/a	n/a	n/a	n/a	-1	[0, 0, 0]	-999	PAL1	1	R1283T
274.65	0.017	283768	REC_END	n/a	5	-999	n/a	n/a	n/a	n/a	-1	[0, 0, 0]	-999	PAL1	1	R1283T
274.667	0.266	283785	PRACTICE_RETRIEVAL_ORIENT	n/a	2	4	IRON	n/a	IRON	WAGON	-1	[0, 0, 0]	-999	PAL1	1	R1283T
274.933	0.617	284051	PRACTICE_RETRIEVAL_ORIENT_OFF	n/a	2	4	IRON	n/a	IRON	WAGON	-1	[0, 0, 0]	-999	PAL1	1	R1283T
275.55	0.001	284668	PRACTICE_PROBE	n/a	2	4	IRON	n/a	IRON	WAGON	-1	[0, 0, 0]	-999	PAL1	1	R1283T
275.551	4.016	284669	REC_START	n/a	2	-999	n/a	n/a	n/a	n/a	-1	[0, 0, 0]	-999	PAL1	1	R1283T
279.567	1.0	288684	PROBE_OFF	n/a	2	-999	n/a	n/a	n/a	n/a	-1	[0, 0, 0]	-999	PAL1	1	R1283T
280.567	0.017	289684	REC_END	n/a	2	-999	n/a	n/a	n/a	n/a	-1	[0, 0, 0]	-999	PAL1	1	R1283T
280.584	0.267	289701	PRACTICE_RETRIEVAL_ORIENT	n/a	3	5	RHINO	n/a	RHINO	RING	-1	[0, 0, 0]	-999	PAL1	1	R1283T
280.851	0.551	289968	PRACTICE_RETRIEVAL_ORIENT_OFF	n/a	3	5	RHINO	n/a	RHINO	RING	-1	[0, 0, 0]	-999	PAL1	1	R1283T
281.402	0.001	290519	PRACTICE_PROBE	n/a	3	5	RHINO	n/a	RHINO	RING	-1	[0, 0, 0]	-999	PAL1	1	R1283T
281.403	4.016	290520	REC_START	n/a	3	-999	n/a	n/a	n/a	n/a	-1	[0, 0, 0]	-999	PAL1	1	R1283T
285.419	1.0	294536	PROBE_OFF	n/a	3	-999	n/a	n/a	n/a	n/a	-1	[0, 0, 0]	-999	PAL1	1	R1283T
286.419	0.017	295536	REC_END	n/a	3	-999	n/a	n/a	n/a	n/a	-1	[0, 0, 0]	-999	PAL1	1	R1283T
286.436	0.266	295553	PRACTICE_RETRIEVAL_ORIENT	n/a	6	6	ATTIC	n/a	FLOOD	ATTIC	-1	[0, 0, 0]	-999	PAL1	1	R1283T
286.702	0.718	295819	PRACTICE_RETRIEVAL_ORIENT_OFF	n/a	2	6	ATTIC	n/a	FLOOD	ATTIC	-1	[0, 0, 0]	-999	PAL1	1	R1283T
287.42	0.0	296537	PRACTICE_PROBE	n/a	6	6	ATTIC	n/a	FLOOD	ATTIC	-1	[0, 0, 0]	-999	PAL1	1	R1283T
287.42	4.017	296537	REC_START	n/a	6	-999	n/a	n/a	n/a	n/a	-1	[0, 0, 0]	-999	PAL1	1	R1283T
291.437	1.0	300554	PROBE_OFF	n/a	6	-999	n/a	n/a	n/a	n/a	-1	[0, 0, 0]	-999	PAL1	1	R1283T
292.437	0.011	301554	REC_END	n/a	6	-999	n/a	n/a	n/a	n/a	-1	[0, 0, 0]	-999	PAL1	1	R1283T
292.448	429.399	301565	RECALL_END	n/a	-999	-999	n/a	n/a	n/a	n/a	-1	[0, 0, 0]	-999	PAL1	1	R1283T
721.847	10.928	730938	TRIAL	n/a	-999	-999	n/a	n/a	n/a	n/a	1	[0, 0, 0]	-999	PAL1	1	R1283T
732.775	0.008	741865	ENCODING_START	n/a	-999	-999	n/a	n/a	n/a	n/a	1	[0, 0, 0]	-999	PAL1	1	R1283T
732.783	0.266	741873	STUDY_ORIENT	n/a	1	1	SWAMP	LEG	LEG	SWAMP	1	[0, 0, 0]	-999	PAL1	1	R1283T
733.049	0.551	742139	STUDY_ORIENT_OFF	n/a	1	1	SWAMP	LEG	LEG	SWAMP	1	[0, 0, 0]	-999	PAL1	1	R1283T
733.6	4.017	742690	STUDY_PAIR	n/a	1	1	SWAMP	LEG	LEG	SWAMP	1	[0, 0, 0]	-999	PAL1	1	R1283T
737.617	1.017	746707	PAIR_OFF	n/a	1	1	SWAMP	LEG	LEG	SWAMP	1	[0, 0, 0]	-999	PAL1	1	R1283T
738.634	0.267	747724	STUDY_ORIENT	n/a	2	4	GATE	HORSE	HORSE	GATE	1	[0, 0, 0]	-999	PAL1	1	R1283T
738.901	0.666	747991	STUDY_ORIENT_OFF	n/a	2	4	GATE	HORSE	HORSE	GATE	1	[0, 0, 0]	-999	PAL1	1	R1283T
739.567	4.018	748657	STUDY_PAIR	n/a	2	4	GATE	HORSE	HORSE	GATE	1	[0, 0, 0]	-999	PAL1	1	R1283T
743.585	1.017	752675	PAIR_OFF	n/a	2	4	GATE	HORSE	HORSE	GATE	1	[0, 0, 0]	-999	PAL1	1	R1283T
744.602	0.266	753691	STUDY_ORIENT	n/a	3	5	APE	POOL	APE	POOL	1	[0, 0, 0]	-999	PAL1	1	R1283T
744.868	0.667	753957	STUDY_ORIENT_OFF	n/a	3	5	APE	POOL	APE	POOL	1	[0, 0, 0]	-999	PAL1	1	R1283T
745.535	4.017	754624	STUDY_PAIR	n/a	3	5	APE	POOL	APE	POOL	1	[0, 0, 0]	-999	PAL1	1	R1283T
749.552	1.017	758641	PAIR_OFF	n/a	3	5	APE	POOL	APE	POOL	1	[0, 0, 0]	-999	PAL1	1	R1283T
750.569	0.267	759658	STUDY_ORIENT	n/a	4	6	STRING	n/a	STRING	ROOF	1	[0, 0, 0]	-999	PAL1	1	R1283T
750.836	0.717	759925	STUDY_ORIENT_OFF	n/a	4	6	STRING	n/a	STRING	ROOF	1	[0, 0, 0]	-999	PAL1	1	R1283T
751.553	4.017	760642	STUDY_PAIR	n/a	4	6	STRING	n/a	STRING	ROOF	1	[0, 0, 0]	-999	PAL1	1	R1283T
755.57	1.017	764659	PAIR_OFF	n/a	4	6	STRING	n/a	STRING	ROOF	1	[0, 0, 0]	-999	PAL1	1	R1283T
756.587	0.267	765676	STUDY_ORIENT	n/a	5	3	FLAG	DRESS	FLAG	DRESS	1	[0, 0, 0]	-999	PAL1	1	R1283T
756.854	0.551	765943	STUDY_ORIENT_OFF	n/a	5	3	FLAG	DRESS	FLAG	DRESS	1	[0, 0, 0]	-999	PAL1	1	R1283T
757.405	4.017	766494	STUDY_PAIR	n/a	5	3	FLAG	DRESS	FLAG	DRESS	1	[0, 0, 0]	-999	PAL1	1	R1283T
761.422	1.017	770510	PAIR_OFF	n/a	5	3	FLAG	DRESS	FLAG	DRESS	1	[0, 0, 0]	-999	PAL1	1	R1283T
762.439	0.266	771527	STUDY_ORIENT	n/a	6	2	ARK	WHEEL	ARK	WHEEL	1	[0, 0, 0]	-999	PAL1	1	R1283T
762.705	0.734	771793	STUDY_ORIENT_OFF	n/a	6	2	ARK	WHEEL	ARK	WHEEL	1	[0, 0, 0]	-999	PAL1	1	R1283T
763.439	4.018	772527	STUDY_PAIR	n/a	6	2	ARK	WHEEL	ARK	WHEEL	1	[0, 0, 0]	-999	PAL1	1	R1283T
767.457	1.0	776545	PAIR_OFF	n/a	6	2	ARK	WHEEL	ARK	WHEEL	1	[0, 0, 0]	-999	PAL1	1	R1283T
768.457	0.0	777545	ENCODING_END	n/a	-999	-999	n/a	n/a	n/a	n/a	1	[0, 0, 0]	-999	PAL1	1	R1283T
768.457	0.0	777545	MATH_START	n/a	-999	-999	n/a	n/a	n/a	n/a	1	[0, 0, 0]	-999	PAL1	1	R1283T
768.457	0.017	777545	START	n/a	-999	-999	n/a	n/a	n/a	n/a	2	[-999, -999, -999]	-999	PAL1	1	R1283T
768.474	5.216	777562	PROB	5184	-999	-999	n/a	n/a	n/a	n/a	2	[3, 5, 7]	15	PAL1	1	R1283T
773.69	5.118	782778	PROB	5096	-999	-999	n/a	n/a	n/a	n/a	2	[4, 7, 7]	18	PAL1	1	R1283T
778.808	4.134	787895	PROB	4099	-999	-999	n/a	n/a	n/a	n/a	2	[3, 6, 5]	14	PAL1	1	R1283T
782.942	3.401	792029	PROB	3365	-999	-999	n/a	n/a	n/a	n/a	2	[7, 4, 8]	19	PAL1	1	R1283T
786.343	4.339	795430	PROB	4339	-999	-999	n/a	n/a	n/a	n/a	2	[5, 6, 3]	14	PAL1	1	R1283T
790.682	0.011	799769	STOP	n/a	-999	-999	n/a	n/a	n/a	n/a	2	[-999, -999, -999]	-999	PAL1	1	R1283T
790.693	0.001	799780	MATH_END	n/a	-999	-999	n/a	n/a	n/a	n/a	1	[0, 0, 0]	-999	PAL1	1	R1283T
790.694	0.016	799781	RECALL_START	n/a	-999	-999	n/a	n/a	n/a	n/a	1	[0, 0, 0]	-999	PAL1	1	R1283T
790.71	0.267	799797	TEST_ORIENT	n/a	1	1	SWAMP	LEG	LEG	SWAMP	1	[0, 0, 0]	-999	PAL1	1	R1283T
790.977	0.633	800064	RETRIEVAL_ORIENT_OFF	n/a	-999	-999	n/a	n/a	n/a	n/a	1	[0, 0, 0]	-999	PAL1	1	R1283T
791.61	0.001	800697	TEST_PROBE	n/a	1	1	SWAMP	LEG	LEG	SWAMP	1	[0, 0, 0]	-999	PAL1	1	R1283T
791.611	1.538	800698	REC_START	n/a	1	-999	n/a	LEG	n/a	n/a	1	[0, 0, 0]	-999	PAL1	1	R1283T
793.149	2.479	802236	REC_EVENT	1538	1	1	SWAMP	LEG	LEG	SWAMP	1	[0, 0, 0]	-999	PAL1	1	R1283T
795.628	1.0	804714	PROBE_OFF	n/a	1	-999	n/a	n/a	n/a	n/a	1	[0, 0, 0]	-999	PAL1	1	R1283T
796.628	0.016	805714	REC_END	n/a	1	-999	n/a	n/a	n/a	n/a	1	[0, 0, 0]	-999	PAL1	1	R1283T
796.644	0.267	805730	TEST_ORIENT	n/a	6	2	ARK	WHEEL	ARK	WHEEL	1	[0, 0, 0]	-999	PAL1	1	R1283T
796.911	0.633	805997	RETRIEVAL_ORIENT_OFF	n/a	1	-999	n/a	n/a	n/a	n/a	1	[0, 0, 0]	-999	PAL1	1	R1283T
797.544	0.001	806630	TEST_PROBE	n/a	6	2	ARK	WHEEL	ARK	WHEEL	1	[0, 0, 0]	-999	PAL1	1	R1283T
797.545	1.982	806631	REC_START	n/a	6	-999	n/a	WHEEL	n/a	n/a	1	[0, 0, 0]	-999	PAL1	1	R1283T
799.527	2.018	808613	REC_EVENT	1982	6	2	ARK	WHEEL	ARK	WHEEL	1	[0, 0, 0]	-999	PAL1	1	R1283T
801.545	1.0	810631	PROBE_OFF	n/a	6	-999	n/a	n/a	n/a	n/a	1	[0, 0, 0]	-999	PAL1	1	R1283T
802.545	0.017	811631	REC_END	n/a	6	-999	n/a	n/a	n/a	n/a	1	[0, 0, 0]	-999	PAL1	1	R1283T
802.562	0.267	811648	TEST_ORIENT	n/a	5	3	FLAG	DRESS	FLAG	DRESS	1	[0, 0, 0]	-999	PAL1	1	R1283T
802.829	0.618	811915	RETRIEVAL_ORIENT_OFF	n/a	6	-999	n/a	n/a	n/a	n/a	1	[0, 0, 0]	-999	PAL1	1	R1283T
803.447	0.0	812533	REC_START	n/a	5	-999	n/a	DRESS	n/a	n/a	1	[0, 0, 0]	-999	PAL1	1	R1283T
803.447	1.291	812533	TEST_PROBE	n/a	5	3	FLAG	DRESS	FLAG	DRESS	1	[0, 0, 0]	-999	PAL1	1	R1283T
804.738	2.726	813824	REC_EVENT	1291	5	3	FLAG	DRESS	FLAG	DRESS	1	[0, 0, 0]	-999	PAL1	1	R1283T
807.464	1.001	816550	PROBE_OFF	n/a	5	-999	n/a	n/a	n/a	n/a	1	[0, 0, 0]	-999	PAL1	1	R1283T
808.465	0.016	817551	REC_END	n/a	5	-999	n/a	n/a	n/a	n/a	1	[0, 0, 0]	-999	PAL1	1	R1283T
808.481	0.266	817567	TEST_ORIENT	n/a	2	4	GATE	HORSE	HORSE	GATE	1	[0, 0, 0]	-999	PAL1	1	R1283T
808.747	0.601	817833	RETRIEVAL_ORIENT_OFF	n/a	5	-999	n/a	n/a	n/a	n/a	1	[0, 0, 0]	-999	PAL1	1	R1283T
809.348	0.0	818434	TEST_PROBE	n/a	2	4	GATE	HORSE	HORSE	GATE	1	[0, 0, 0]	-999	PAL1	1	R1283T
809.348	1.72	818434	REC_START	n/a	2	-999	n/a	HORSE	n/a	n/a	1	[0, 0, 0]	-999	PAL1	1	R1283T
811.068	2.297	820154	REC_EVENT	1720	2	4	GATE	HORSE	HORSE	GATE	1	[0, 0, 0]	-999	PAL1	1	R1283T
813.365	1.0	822450	PROBE_OFF	n/a	2	-999	n/a	n/a	n/a	n/a	1	[0, 0, 0]	-999	PAL1	1	R1283T
814.365	0.017	823450	REC_END	n/a	2	-999	n/a	n/a	n/a	n/a	1	[0, 0, 0]	-999	PAL1	1	R1283T
814.382	0.266	823467	TEST_ORIENT	n/a	3	5	APE	POOL	APE	POOL	1	[0, 0, 0]	-999	PAL1	1	R1283T
814.648	0.701	823733	RETRIEVAL_ORIENT_OFF	n/a	2	-999	n/a	n/a	n/a	n/a	1	[0, 0, 0]	-999	PAL1	1	R1283T
815.349	0.0	824434	REC_START	n/a	3	-999	n/a	POOL	n/a	n/a	1	[0, 0, 0]	-999	PAL1	1	R1283T
815.349	1.775	824434	TEST_PROBE	n/a	3	5	APE	POOL	APE	POOL	1	[0, 0, 0]	-999	PAL1	1	R1283T
817.124	2.242	826209	REC_EVENT	1775	3	5	APE	POOL	APE	POOL	1	[0, 0, 0]	-999	PAL1	1	R1283T
819.366	1.0	828451	PROBE_OFF	n/a	3	-999	n/a	n/a	n/a	n/a	1	[0, 0, 0]	-999	PAL1	1	R1283T
820.366	0.017	829451	REC_END	n/a	3	-999	n/a	n/a	n/a	n/a	1	[0, 0, 0]	-999	PAL1	1	R1283T
820.383	0.266	829468	TEST_ORIENT	n/a	4	6	STRING	n/a	STRING	ROOF	1	[0, 0, 0]	-999	PAL1	1	R1283T
820.649	0.668	829734	RETRIEVAL_ORIENT_OFF	n/a	3	-999	n/a	n/a	n/a	n/a	1	[0, 0, 0]	-999	PAL1	1	R1283T
821.317	0.0	830402	TEST_PROBE	n/a	4	6	STRING	n/a	STRING	ROOF	1	[0, 0, 0]	-999	PAL1	1	R1283T
821.317	4.017	830402	REC_START	n/a	4	-999	n/a	n/a	n/a	n/a	1	[0, 0, 0]	-999	PAL1	1	R1283T
825.334	0.328	834419	PROBE_OFF	n/a	4	-999	n/a	n/a	n/a	n/a	1	[0, 0, 0]	-999	PAL1	1	R1283T
825.662	0.682	834747	REC_EVENT	4345	4	6	STRING	<>	STRING	ROOF	1	[0, 0, 0]	-999	PAL1	1	R1283T
826.344	0.003	835429	REC_END	n/a	4	-999	n/a	n/a	n/a	n/a	1	[0, 0, 0]	-999	PAL1	1	R1283T
826.347	4.204	835432	RECALL_END	n/a	-999	-999	n/a	n/a	n/a	n/a	1	[0, 0, 0]	-999	PAL1	1	R1283T
830.551	10.928	839635	TRIAL	n/a	-999	-999	n/a	n/a	n/a	n/a	2	[0, 0, 0]	-999	PAL1	1	R1283T
841.479	0.008	850563	ENCODING_START	n/a	-999	-999	n/a	n/a	n/a	n/a	2	[0, 0, 0]	-999	PAL1	1	R1283T
841.487	0.266	850571	STUDY_ORIENT	n/a	1	5	CHALK	n/a	CHALK	LAMB	2	[0, 0, 0]	-999	PAL1	1	R1283T
841.753	0.567	850837	STUDY_ORIENT_OFF	n/a	1	5	CHALK	n/a	CHALK	LAMB	2	[0, 0, 0]	-999	PAL1	1	R1283T
842.32	4.018	851404	STUDY_PAIR	n/a	1	5	CHALK	n/a	CHALK	LAMB	2	[0, 0, 0]	-999	PAL1	1	R1283T
846.338	1.017	855421	PAIR_OFF	n/a	1	5	CHALK	n/a	CHALK	LAMB	2	[0, 0, 0]	-999	PAL1	1	R1283T
847.355	0.265	856438	STUDY_ORIENT	n/a	2	2	RIB	PIT	RIB	PIT	2	[0, 0, 0]	-999	PAL1	1	R1283T
847.62	0.567	856703	STUDY_ORIENT_OFF	n/a	2	2	RIB	PIT	RIB	PIT	2	[0, 0, 0]	-999	PAL1	1	R1283T
848.187	4.017	857270	STUDY_PAIR	n/a	2	2	RIB	PIT	RIB	PIT	2	[0, 0, 0]	-999	PAL1	1	R1283T
852.204	1.017	861287	PAIR_OFF	n/a	2	2	RIB	PIT	RIB	PIT	2	[0, 0, 0]	-999	PAL1	1	R1283T
853.221	0.268	862304	STUDY_ORIENT	n/a	3	1	JUICE	PASS	PIE	JUICE	2	[0, 0, 0]	-999	PAL1	1	R1283T
853.489	0.716	862572	STUDY_ORIENT_OFF	n/a	3	1	JUICE	PASS	PIE	JUICE	2	[0, 0, 0]	-999	PAL1	1	R1283T
854.205	4.017	863288	STUDY_PAIR	n/a	3	1	JUICE	PASS	PIE	JUICE	2	[0, 0, 0]	-999	PAL1	1	R1283T
858.222	1.018	867305	PAIR_OFF	n/a	3	1	JUICE	PASS	PIE	JUICE	2	[0, 0, 0]	-999	PAL1	1	R1283T
859.24	0.266	868323	STUDY_ORIENT	n/a	4	4	TANK	n/a	BOOK	TANK	2	[0, 0, 0]	-999	PAL1	1	R1283T
859.506	0.6	868589	STUDY_ORIENT_OFF	n/a	4	4	TANK	n/a	BOOK	TANK	2	[0, 0, 0]	-999	PAL1	1	R1283T
860.106	4.017	869189	STUDY_PAIR	n/a	4	4	TANK	n/a	BOOK	TANK	2	[0, 0, 0]	-999	PAL1	1	R1283T
864.123	1.017	873205	PAIR_OFF	n/a	4	4	TANK	n/a	BOOK	TANK	2	[0, 0, 0]	-999	PAL1	1	R1283T
865.14	0.268	874222	STUDY_ORIENT	n/a	5	3	CLOWN	n/a	ANT	CLOWN	2	[0, 0, 0]	-999	PAL1	1	R1283T
865.408	0.666	874490	STUDY_ORIENT_OFF	n/a	5	3	CLOWN	n/a	ANT	CLOWN	2	[0, 0, 0]	-999	PAL1	1	R1283T
866.074	4.017	875156	STUDY_PAIR	n/a	5	3	CLOWN	n/a	ANT	CLOWN	2	[0, 0, 0]	-999	PAL1	1	R1283T
870.091	1.017	879173	PAIR_OFF	n/a	5	3	CLOWN	n/a	ANT	CLOWN	2	[0, 0, 0]	-999	PAL1	1	R1283T
871.108	0.268	880190	STUDY_ORIENT	n/a	6	6	STREET	n/a	SMILE	STREET	2	[0, 0, 0]	-999	PAL1	1	R1283T
871.376	0.699	880458	STUDY_ORIENT_OFF	n/a	6	6	STREET	n/a	SMILE	STREET	2	[0, 0, 0]	-999	PAL1	1	R1283T
872.075	4.017	881157	STUDY_PAIR	n/a	6	6	STREET	n/a	SMILE	STREET	2	[0, 0, 0]	-999	PAL1	1	R1283T
876.092	1.001	885174	PAIR_OFF	n/a	6	6	STREET	n/a	SMILE	STREET	2	[0, 0, 0]	-999	PAL1	1	R1283T
877.093	0.0	886175	ENCODING_END	n/a	-999	-999	n/a	n/a	n/a	n/a	2	[0, 0, 0]	-999	PAL1	1	R1283T
877.093	0.0	886175	MATH_START	n/a	-999	-999	n/a	n/a	n/a	n/a	2	[0, 0, 0]	-999	PAL1	1	R1283T
877.093	0.016	886175	START	n/a	-999	-999	n/a	n/a	n/a	n/a	3	[-999, -999, -999]	-999	PAL1	1	R1283T
877.109	4.067	886191	PROB	4045	-999	-999	n/a	n/a	n/a	n/a	3	[5, 6, 6]	17	PAL1	1	R1283T
881.176	3.668	890257	PROB	3642	-999	-999	n/a	n/a	n/a	n/a	3	[5, 2, 7]	14	PAL1	1	R1283T
884.844	6.868	893925	PROB	6838	-999	-999	n/a	n/a	n/a	n/a	3	[9, 8, 8]	25	PAL1	1	R1283T
891.712	2.333	900793	PROB	2307	-999	-999	n/a	n/a	n/a	n/a	3	[4, 4, 1]	9	PAL1	1	R1283T
894.045	2.419	903126	PROB	2382	-999	-999	n/a	n/a	n/a	n/a	3	[3, 6, 3]	12	PAL1	1	R1283T
896.464	2.099	905544	PROB	2099	-999	-999	n/a	n/a	n/a	n/a	3	[1, 9, 7]	17	PAL1	1	R1283T
898.563	0.016	907643	STOP	n/a	-999	-999	n/a	n/a	n/a	n/a	3	[-999, -999, -999]	-999	PAL1	1	R1283T
898.579	0.001	907659	MATH_END	n/a	-999	-999	n/a	n/a	n/a	n/a	2	[0, 0, 0]	-999	PAL1	1	R1283T
898.58	0.016	907660	RECALL_START	n/a	-999	-999	n/a	n/a	n/a	n/a	2	[0, 0, 0]	-999	PAL1	1	R1283T
898.596	0.267	907676	TEST_ORIENT	n/a	3	1	JUICE	PASS	PIE	JUICE	2	[0, 0, 0]	-999	PAL1	1	R1283T
898.863	0.518	907943	RETRIEVAL_ORIENT_OFF	n/a	-999	-999	n/a	n/a	n/a	n/a	2	[0, 0, 0]	-999	PAL1	1	R1283T
899.381	0.001	908461	TEST_PROBE	n/a	3	1	JUICE	PASS	PIE	JUICE	2	[0, 0, 0]	-999	PAL1	1	R1283T
899.382	2.98	908462	REC_START	n/a	3	-999	n/a	PASS	n/a	n/a	2	[0, 0, 0]	-999	PAL1	1	R1283T
902.362	1.036	911442	REC_EVENT	2980	3	1	JUICE	PASS	PIE	JUICE	2	[0, 0, 0]	-999	PAL1	1	R1283T
903.398	1.0	912478	PROBE_OFF	n/a	3	-999	n/a	n/a	n/a	n/a	2	[0, 0, 0]	-999	PAL1	1	R1283T
904.398	0.017	913478	REC_END	n/a	3	-999	n/a	n/a	n/a	n/a	2	[0, 0, 0]	-999	PAL1	1	R1283T
904.415	0.266	913495	TEST_ORIENT	n/a	2	2	RIB	PIT	RIB	PIT	2	[0, 0, 0]	-999	PAL1	1	R1283T
904.681	0.617	913761	RETRIEVAL_ORIENT_OFF	n/a	3	-999	n/a	n/a	n/a	n/a	2	[0, 0, 0]	-999	PAL1	1	R1283T
905.298	0.001	914378	TEST_PROBE	n/a	2	2	RIB	PIT	RIB	PIT	2	[0, 0, 0]	-999	PAL1	1	R1283T
905.299	1.351	914379	REC_START	n/a	2	-999	n/a	PIT	n/a	n/a	2	[0, 0, 0]	-999	PAL1	1	R1283T
906.65	2.666	915730	REC_EVENT	1351	2	2	RIB	PIT	RIB	PIT	2	[0, 0, 0]	-999	PAL1	1	R1283T
909.316	1.0	918396	PROBE_OFF	n/a	2	-999	n/a	n/a	n/a	n/a	2	[0, 0, 0]	-999	PAL1	1	R1283T
910.316	0.017	919396	REC_END	n/a	2	-999	n/a	n/a	n/a	n/a	2	[0, 0, 0]	-999	PAL1	1	R1283T
910.333	0.265	919413	TEST_ORIENT	n/a	5	3	CLOWN	n/a	ANT	CLOWN	2	[0, 0, 0]	-999	PAL1	1	R1283T
910.598	0.55	919678	RETRIEVAL_ORIENT_OFF	n/a	2	-999	n/a	n/a	n/a	n/a	2	[0, 0, 0]	-999	PAL1	1	R1283T
911.148	0.001	920227	TEST_PROBE	n/a	5	3	CLOWN	n/a	ANT	CLOWN	2	[0, 0, 0]	-999	PAL1	1	R1283T
911.149	4.017	920228	REC_START	n/a	5	-999	n/a	n/a	n/a	n/a	2	[0, 0, 0]	-999	PAL1	1	R1283T
915.166	0.998	924245	PROBE_OFF	n/a	5	-999	n/a	n/a	n/a	n/a	2	[0, 0, 0]	-999	PAL1	1	R1283T
916.164	0.002	925243	REC_EVENT	5015	5	3	CLOWN	<>	ANT	CLOWN	2	[0, 0, 0]	-999	PAL1	1	R1283T
916.166	0.017	925245	REC_END	n/a	5	-999	n/a	n/a	n/a	n/a	2	[0, 0, 0]	-999	PAL1	1	R1283T
916.183	0.267	925262	TEST_ORIENT	n/a	4	4	TANK	n/a	BOOK	TANK	2	[0, 0, 0]	-999	PAL1	1	R1283T
916.45	0.55	925529	RETRIEVAL_ORIENT_OFF	n/a	5	-999	n/a	n/a	n/a	n/a	2	[0, 0, 0]	-999	PAL1	1	R1283T
917.0	0.0	926079	TEST_PROBE	n/a	4	4	TANK	n/a	BOOK	TANK	2	[0, 0, 0]	-999	PAL1	1	R1283T
917.0	2.954	926079	REC_START	n/a	4	-999	n/a	n/a	n/a	n/a	2	[0, 0, 0]	-999	PAL1	1	R1283T
919.954	1.063	929033	REC_EVENT	2954	4	4	TANK	<>	BOOK	TANK	2	[0, 0, 0]	-999	PAL1	1	R1283T
921.017	1.0	930096	PROBE_OFF	n/a	4	-999	n/a	n/a	n/a	n/a	2	[0, 0, 0]	-999	PAL1	1	R1283T
922.017	0.017	931096	REC_END	n/a	4	-999	n/a	n/a	n/a	n/a	2	[0, 0, 0]	-999	PAL1	1	R1283T
922.034	0.268	931113	TEST_ORIENT	n/a	1	5	CHALK	n/a	CHALK	LAMB	2	[0, 0, 0]	-999	PAL1	1	R1283T
922.302	0.715	931381	RETRIEVAL_ORIENT_OFF	n/a	4	-999	n/a	n/a	n/a	n/a	2	[0, 0, 0]	-999	PAL1	1	R1283T
923.017	0.001	932096	TEST_PROBE	n/a	1	5	CHALK	n/a	CHALK	LAMB	2	[0, 0, 0]	-999	PAL1	1	R1283T
923.018	4.0	932097	REC_START	n/a	1	-999	n/a	n/a	n/a	n/a	2	[0, 0, 0]	-999	PAL1	1	R1283T
927.018	1.0	936097	PROBE_OFF	n/a	1	-999	n/a	n/a	n/a	n/a	2	[0, 0, 0]	-999	PAL1	1	R1283T
928.018	0.003	937096	REC_END	n/a	1	-999	n/a	n/a	n/a	n/a	2	[0, 0, 0]	-999	PAL1	1	R1283T
928.021	0.014	937099	REC_EVENT	5003	1	5	CHALK	<>	CHALK	LAMB	2	[0, 0, 0]	-999	PAL1	1	R1283T
928.035	0.268	937113	TEST_ORIENT	n/a	6	6	STREET	n/a	SMILE	STREET	2	[0, 0, 0]	-999	PAL1	1	R1283T
928.303	0.649	937381	RETRIEVAL_ORIENT_OFF	n/a	1	-999	n/a	n/a	n/a	n/a	2	[0, 0, 0]	-999	PAL1	1	R1283T
928.952	0.0	938030	TEST_PROBE	n/a	6	6	STREET	n/a	SMILE	STREET	2	[0, 0, 0]	-999	PAL1	1	R1283T
928.952	4.017	938030	REC_START	n/a	6	-999	n/a	n/a	n/a	n/a	2	[0, 0, 0]	-999	PAL1	1	R1283T
932.969	0.998	942047	PROBE_OFF	n/a	6	-999	n/a	n/a	n/a	n/a	2	[0, 0, 0]	-999	PAL1	1	R1283T
933.967	0.002	943045	REC_EVENT	5015	6	6	STREET	<>	SMILE	STREET	2	[0, 0, 0]	-999	PAL1	1	R1283T
933.969	0.005	943047	REC_END	n/a	6	-999	n/a	n/a	n/a	n/a	2	[0, 0, 0]	-999	PAL1	1	R1283T
933.974	3.729	943052	RECALL_END	n/a	-999	-999	n/a	n/a	n/a	n/a	2	[0, 0, 0]	-999	PAL1	1	R1283T
937.703	10.929	946781	TRIAL	n/a	-999	-999	n/a	n/a	n/a	n/a	3	[0, 0, 0]	-999	PAL1	1	R1283T
948.632	0.007	957709	ENCODING_START	n/a	-999	-999	n/a	n/a	n/a	n/a	3	[0, 0, 0]	-999	PAL1	1	R1283T
948.639	0.266	957716	STUDY_ORIENT	n/a	1	1	STEM	PASS	STEM	ROPE	3	[0, 0, 0]	-999	PAL1	1	R1283T
948.905	0.734	957982	STUDY_ORIENT_OFF	n/a	1	1	STEM	PASS	STEM	ROPE	3	[0, 0, 0]	-999	PAL1	1	R1283T
949.639	4.017	958716	STUDY_PAIR	n/a	1	1	STEM	PASS	STEM	ROPE	3	[0, 0, 0]	-999	PAL1	1	R1283T
953.656	1.017	962733	PAIR_OFF	n/a	1	1	STEM	PASS	STEM	ROPE	3	[0, 0, 0]	-999	PAL1	1	R1283T
954.673	0.267	963750	STUDY_ORIENT	n/a	2	6	BEAN	PURSE	PURSE	BEAN	3	[0, 0, 0]	-999	PAL1	1	R1283T
954.94	0.567	964017	STUDY_ORIENT_OFF	n/a	2	6	BEAN	PURSE	PURSE	BEAN	3	[0, 0, 0]	-999	PAL1	1	R1283T
955.507	4.017	964584	STUDY_PAIR	n/a	2	6	BEAN	PURSE	PURSE	BEAN	3	[0, 0, 0]	-999	PAL1	1	R1283T
959.524	1.017	968601	PAIR_OFF	n/a	2	6	BEAN	PURSE	PURSE	BEAN	3	[0, 0, 0]	-999	PAL1	1	R1283T
960.541	0.267	969618	STUDY_ORIENT	n/a	3	3	CAKE	n/a	PARK	CAKE	3	[0, 0, 0]	-999	PAL1	1	R1283T
960.808	0.75	969885	STUDY_ORIENT_OFF	n/a	3	3	CAKE	n/a	PARK	CAKE	3	[0, 0, 0]	-999	PAL1	1	R1283T
961.558	4.017	970634	STUDY_PAIR	n/a	3	3	CAKE	n/a	PARK	CAKE	3	[0, 0, 0]	-999	PAL1	1	R1283T
965.575	1.017	974651	PAIR_OFF	n/a	3	3	CAKE	n/a	PARK	CAKE	3	[0, 0, 0]	-999	PAL1	1	R1283T
966.592	0.267	975668	STUDY_ORIENT	n/a	4	2	EAR	OAR	EAR	OAR	3	[0, 0, 0]	-999	PAL1	1	R1283T
966.859	0.666	975935	STUDY_ORIENT_OFF	n/a	4	2	EAR	OAR	EAR	OAR	3	[0, 0, 0]	-999	PAL1	1	R1283T
967.525	4.018	976601	STUDY_PAIR	n/a	4	2	EAR	OAR	EAR	OAR	3	[0, 0, 0]	-999	PAL1	1	R1283T
971.543	1.017	980619	PAIR_OFF	n/a	4	2	EAR	OAR	EAR	OAR	3	[0, 0, 0]	-999	PAL1	1	R1283T
972.56	0.266	981636	STUDY_ORIENT	n/a	5	5	FILM	SPRING	FILM	SPRING	3	[0, 0, 0]	-999	PAL1	1	R1283T
972.826	0.551	981902	STUDY_ORIENT_OFF	n/a	5	5	FILM	SPRING	FILM	SPRING	3	[0, 0, 0]	-999	PAL1	1	R1283T
973.377	4.018	982453	STUDY_PAIR	n/a	5	5	FILM	SPRING	FILM	SPRING	3	[0, 0, 0]	-999	PAL1	1	R1283T
977.395	1.017	986471	PAIR_OFF	n/a	5	5	FILM	SPRING	FILM	SPRING	3	[0, 0, 0]	-999	PAL1	1	R1283T
978.412	0.265	987487	STUDY_ORIENT	n/a	6	4	FAN	n/a	FAN	SHELL	3	[0, 0, 0]	-999	PAL1	1	R1283T
978.677	0.534	987752	STUDY_ORIENT_OFF	n/a	6	4	FAN	n/a	FAN	SHELL	3	[0, 0, 0]	-999	PAL1	1	R1283T
979.211	4.017	988286	STUDY_PAIR	n/a	6	4	FAN	n/a	FAN	SHELL	3	[0, 0, 0]	-999	PAL1	1	R1283T
983.228	1.0	992303	PAIR_OFF	n/a	6	4	FAN	n/a	FAN	SHELL	3	[0, 0, 0]	-999	PAL1	1	R1283T
984.228	0.0	993303	ENCODING_END	n/a	-999	-999	n/a	n/a	n/a	n/a	3	[0, 0, 0]	-999	PAL1	1	R1283T
984.228	0.0	993303	MATH_START	n/a	-999	-999	n/a	n/a	n/a	n/a	3	[0, 0, 0]	-999	PAL1	1	R1283T
984.228	0.018	993303	START	n/a	-999	-999	n/a	n/a	n/a	n/a	4	[-999, -999, -999]	-999	PAL1	1	R1283T
984.246	4.85	993321	PROB	4828	-999	-999	n/a	n/a	n/a	n/a	4	[6, 7, 5]	18	PAL1	1	R1283T
989.096	3.984	998171	PROB	3955	-999	-999	n/a	n/a	n/a	n/a	4	[2, 7, 5]	14	PAL1	1	R1283T
993.08	2.834	1002155	PROB	2802	-999	-999	n/a	n/a	n/a	n/a	4	[5, 4, 9]	18	PAL1	1	R1283T
995.914	2.335	1004988	PROB	2304	-999	-999	n/a	n/a	n/a	n/a	4	[8, 5, 5]	18	PAL1	1	R1283T
998.249	2.449	1007323	PROB	2417	-999	-999	n/a	n/a	n/a	n/a	4	[6, 1, 6]	13	PAL1	1	R1283T
1000.698	2.535	1009772	PROB	2504	-999	-999	n/a	n/a	n/a	n/a	4	[4, 4, 3]	11	PAL1	1	R1283T
1003.233	3.265	1012307	PROB	3265	-999	-999	n/a	n/a	n/a	n/a	4	[6, 7, 1]	14	PAL1	1	R1283T
1006.498	0.018	1015572	STOP	n/a	-999	-999	n/a	n/a	n/a	n/a	4	[-999, -999, -999]	-999	PAL1	1	R1283T
1006.516	0.0	1015590	MATH_END	n/a	-999	-999	n/a	n/a	n/a	n/a	3	[0, 0, 0]	-999	PAL1	1	R1283T
1006.516	0.016	1015590	RECALL_START	n/a	-999	-999	n/a	n/a	n/a	n/a	3	[0, 0, 0]	-999	PAL1	1	R1283T
1006.532	0.267	1015606	TEST_ORIENT	n/a	1	1	STEM	PASS	STEM	ROPE	3	[0, 0, 0]	-999	PAL1	1	R1283T
1006.799	0.535	1015873	RETRIEVAL_ORIENT_OFF	n/a	-999	-999	n/a	n/a	n/a	n/a	3	[0, 0, 0]	-999	PAL1	1	R1283T
1007.334	0.001	1016408	TEST_PROBE	n/a	1	1	STEM	PASS	STEM	ROPE	3	[0, 0, 0]	-999	PAL1	1	R1283T
1007.335	3.676	1016409	REC_START	n/a	1	-999	n/a	PASS	n/a	n/a	3	[0, 0, 0]	-999	PAL1	1	R1283T
1011.011	0.34	1020085	REC_EVENT	3676	1	1	STEM	PASS	STEM	ROPE	3	[0, 0, 0]	-999	PAL1	1	R1283T
1011.351	1.0	1020424	PROBE_OFF	n/a	1	-999	n/a	n/a	n/a	n/a	3	[0, 0, 0]	-999	PAL1	1	R1283T
1012.351	0.017	1021424	REC_END	n/a	1	-999	n/a	n/a	n/a	n/a	3	[0, 0, 0]	-999	PAL1	1	R1283T
1012.368	0.266	1021441	TEST_ORIENT	n/a	4	2	EAR	OAR	EAR	OAR	3	[0, 0, 0]	-999	PAL1	1	R1283T
1012.634	0.583	1021707	RETRIEVAL_ORIENT_OFF	n/a	1	-999	n/a	n/a	n/a	n/a	3	[0, 0, 0]	-999	PAL1	1	R1283T
1013.217	0.001	1022290	TEST_PROBE	n/a	4	2	EAR	OAR	EAR	OAR	3	[0, 0, 0]	-999	PAL1	1	R1283T
1013.218	0.838	1022291	REC_START	n/a	4	-999	n/a	OAR	n/a	n/a	3	[0, 0, 0]	-999	PAL1	1	R1283T
1014.056	3.179	1023129	REC_EVENT	838	4	2	EAR	OAR	EAR	OAR	3	[0, 0, 0]	-999	PAL1	1	R1283T
1017.235	1.0	1026308	PROBE_OFF	n/a	4	-999	n/a	n/a	n/a	n/a	3	[0, 0, 0]	-999	PAL1	1	R1283T
1018.235	0.017	1027308	REC_END	n/a	4	-999	n/a	n/a	n/a	n/a	3	[0, 0, 0]	-999	PAL1	1	R1283T
1018.252	0.266	1027325	TEST_ORIENT	n/a	3	3	CAKE	n/a	PARK	CAKE	3	[0, 0, 0]	-999	PAL1	1	R1283T
1018.518	0.517	1027591	RETRIEVAL_ORIENT_OFF	n/a	4	-999	n/a	n/a	n/a	n/a	3	[0, 0, 0]	-999	PAL1	1	R1283T
1019.035	0.0	1028108	TEST_PROBE	n/a	3	3	CAKE	n/a	PARK	CAKE	3	[0, 0, 0]	-999	PAL1	1	R1283T
1019.035	4.017	1028108	REC_START	n/a	3	-999	n/a	n/a	n/a	n/a	3	[0, 0, 0]	-999	PAL1	1	R1283T
1023.052	0.998	1032125	PROBE_OFF	n/a	3	-999	n/a	n/a	n/a	n/a	3	[0, 0, 0]	-999	PAL1	1	R1283T
1024.05	0.002	1033123	REC_EVENT	5015	3	3	CAKE	<>	PARK	CAKE	3	[0, 0, 0]	-999	PAL1	1	R1283T
1024.052	0.017	1033125	REC_END	n/a	3	-999	n/a	n/a	n/a	n/a	3	[0, 0, 0]	-999	PAL1	1	R1283T
1024.069	0.268	1033142	TEST_ORIENT	n/a	6	4	FAN	n/a	FAN	SHELL	3	[0, 0, 0]	-999	PAL1	1	R1283T
1024.337	0.699	1033410	RETRIEVAL_ORIENT_OFF	n/a	3	-999	n/a	n/a	n/a	n/a	3	[0, 0, 0]	-999	PAL1	1	R1283T
1025.036	0.0	1034109	TEST_PROBE	n/a	6	4	FAN	n/a	FAN	SHELL	3	[0, 0, 0]	-999	PAL1	1	R1283T
1025.036	4.017	1034109	REC_START	n/a	6	-999	n/a	n/a	n/a	n/a	3	[0, 0, 0]	-999	PAL1	1	R1283T
1029.053	0.998	1038125	PROBE_OFF	n/a	6	-999	n/a	n/a	n/a	n/a	3	[0, 0, 0]	-999	PAL1	1	R1283T
1030.051	0.003	1039123	REC_EVENT	5015	6	4	FAN	<>	FAN	SHELL	3	[0, 0, 0]	-999	PAL1	1	R1283T
1030.054	0.016	1039126	REC_END	n/a	6	-999	n/a	n/a	n/a	n/a	3	[0, 0, 0]	-999	PAL1	1	R1283T
1030.07	0.268	1039142	TEST_ORIENT	n/a	5	5	FILM	SPRING	FILM	SPRING	3	[0, 0, 0]	-999	PAL1	1	R1283T
1030.338	0.532	1039410	RETRIEVAL_ORIENT_OFF	n/a	6	-999	n/a	n/a	n/a	n/a	3	[0, 0, 0]	-999	PAL1	1	R1283T
1030.87	0.001	1039942	TEST_PROBE	n/a	5	5	FILM	SPRING	FILM	SPRING	3	[0, 0, 0]	-999	PAL1	1	R1283T
1030.871	2.085	1039943	REC_START	n/a	5	-999	n/a	SPRING	n/a	n/a	3	[0, 0, 0]	-999	PAL1	1	R1283T
1032.956	1.932	1042028	REC_EVENT	2085	5	5	FILM	SPRING	FILM	SPRING	3	[0, 0, 0]	-999	PAL1	1	R1283T
1034.888	1.0	1043960	PROBE_OFF	n/a	5	-999	n/a	n/a	n/a	n/a	3	[0, 0, 0]	-999	PAL1	1	R1283T
1035.888	0.016	1044960	REC_END	n/a	5	-999	n/a	n/a	n/a	n/a	3	[0, 0, 0]	-999	PAL1	1	R1283T
1035.904	0.267	1044976	TEST_ORIENT	n/a	2	6	BEAN	PURSE	PURSE	BEAN	3	[0, 0, 0]	-999	PAL1	1	R1283T
1036.171	0.667	1045243	RETRIEVAL_ORIENT_OFF	n/a	5	-999	n/a	n/a	n/a	n/a	3	[0, 0, 0]	-999	PAL1	1	R1283T
1036.838	0.0	1045910	TEST_PROBE	n/a	2	6	BEAN	PURSE	PURSE	BEAN	3	[0, 0, 0]	-999	PAL1	1	R1283T
1036.838	2.978	1045910	REC_START	n/a	2	-999	n/a	PURSE	n/a	n/a	3	[0, 0, 0]	-999	PAL1	1	R1283T
1039.816	1.039	1048888	REC_EVENT	2978	2	6	BEAN	PURSE	PURSE	BEAN	3	[0, 0, 0]	-999	PAL1	1	R1283T
1040.855	1.0	1049927	PROBE_OFF	n/a	2	-999	n/a	n/a	n/a	n/a	3	[0, 0, 0]	-999	PAL1	1	R1283T
1041.855	0.004	1050927	REC_END	n/a	2	-999	n/a	n/a	n/a	n/a	3	[0, 0, 0]	-999	PAL1	1	R1283T
1041.859	4.214	1050931	RECALL_END	n/a	-999	-999	n/a	n/a	n/a	n/a	3	[0, 0, 0]	-999	PAL1	1	R1283T
1046.073	10.929	1055144	TRIAL	n/a	-999	-999	n/a	n/a	n/a	n/a	4	[0, 0, 0]	-999	PAL1	1	R1283T
1057.002	0.006	1066073	ENCODING_START	n/a	-999	-999	n/a	n/a	n/a	n/a	4	[0, 0, 0]	-999	PAL1	1	R1283T
1057.008	0.268	1066079	STUDY_ORIENT	n/a	1	1	NAIL	n/a	FORT	NAIL	4	[0, 0, 0]	-999	PAL1	1	R1283T
1057.276	0.566	1066347	STUDY_ORIENT_OFF	n/a	1	1	NAIL	n/a	FORT	NAIL	4	[0, 0, 0]	-999	PAL1	1	R1283T
1057.842	4.017	1066913	STUDY_PAIR	n/a	1	1	NAIL	n/a	FORT	NAIL	4	[0, 0, 0]	-999	PAL1	1	R1283T
1061.859	1.017	1070929	PAIR_OFF	n/a	1	1	NAIL	n/a	FORT	NAIL	4	[0, 0, 0]	-999	PAL1	1	R1283T
1062.876	0.267	1071946	STUDY_ORIENT	n/a	2	2	PIPE	n/a	SEAT	PIPE	4	[0, 0, 0]	-999	PAL1	1	R1283T
1063.143	0.717	1072213	STUDY_ORIENT_OFF	n/a	2	2	PIPE	n/a	SEAT	PIPE	4	[0, 0, 0]	-999	PAL1	1	R1283T
1063.86	4.017	1072930	STUDY_PAIR	n/a	2	2	PIPE	n/a	SEAT	PIPE	4	[0, 0, 0]	-999	PAL1	1	R1283T
1067.877	1.017	1076947	PAIR_OFF	n/a	2	2	PIPE	n/a	SEAT	PIPE	4	[0, 0, 0]	-999	PAL1	1	R1283T
1068.894	0.267	1077964	STUDY_ORIENT	n/a	3	3	DOOR	n/a	CORD	DOOR	4	[0, 0, 0]	-999	PAL1	1	R1283T
1069.161	0.766	1078231	STUDY_ORIENT_OFF	n/a	3	3	DOOR	n/a	CORD	DOOR	4	[0, 0, 0]	-999	PAL1	1	R1283T
1069.927	4.018	1078997	STUDY_PAIR	n/a	3	3	DOOR	n/a	CORD	DOOR	4	[0, 0, 0]	-999	PAL1	1	R1283T
1073.945	1.017	1083015	PAIR_OFF	n/a	3	3	DOOR	n/a	CORD	DOOR	4	[0, 0, 0]	-999	PAL1	1	R1283T
1074.962	0.266	1084032	STUDY_ORIENT	n/a	4	6	TREE	SHIP	SHIP	TREE	4	[0, 0, 0]	-999	PAL1	1	R1283T
1075.228	0.517	1084298	STUDY_ORIENT_OFF	n/a	4	6	TREE	SHIP	SHIP	TREE	4	[0, 0, 0]	-999	PAL1	1	R1283T
1075.745	4.017	1084815	STUDY_PAIR	n/a	4	6	TREE	SHIP	SHIP	TREE	4	[0, 0, 0]	-999	PAL1	1	R1283T
1079.762	1.017	1088831	PAIR_OFF	n/a	4	6	TREE	SHIP	SHIP	TREE	4	[0, 0, 0]	-999	PAL1	1	R1283T
1080.779	0.267	1089848	STUDY_ORIENT	n/a	5	5	SHEET	n/a	STOOL	SHEET	4	[0, 0, 0]	-999	PAL1	1	R1283T
1081.046	0.734	1090115	STUDY_ORIENT_OFF	n/a	5	5	SHEET	n/a	STOOL	SHEET	4	[0, 0, 0]	-999	PAL1	1	R1283T
1081.78	4.017	1090849	STUDY_PAIR	n/a	5	5	SHEET	n/a	STOOL	SHEET	4	[0, 0, 0]	-999	PAL1	1	R1283T
1085.797	1.017	1094866	PAIR_OFF	n/a	5	5	SHEET	n/a	STOOL	SHEET	4	[0, 0, 0]	-999	PAL1	1	R1283T
1086.814	0.266	1095883	STUDY_ORIENT	n/a	6	4	SMOKE	SUIT	SMOKE	SOUP	4	[0, 0, 0]	-999	PAL1	1	R1283T
1087.08	0.701	1096149	STUDY_ORIENT_OFF	n/a	6	4	SMOKE	SUIT	SMOKE	SOUP	4	[0, 0, 0]	-999	PAL1	1	R1283T
1087.781	4.017	1096850	STUDY_PAIR	n/a	6	4	SMOKE	SUIT	SMOKE	SOUP	4	[0, 0, 0]	-999	PAL1	1	R1283T
1091.798	1.0	1100867	PAIR_OFF	n/a	6	4	SMOKE	SUIT	SMOKE	SOUP	4	[0, 0, 0]	-999	PAL1	1	R1283T
1092.798	0.0	1101867	ENCODING_END	n/a	-999	-999	n/a	n/a	n/a	n/a	4	[0, 0, 0]	-999	PAL1	1	R1283T
1092.798	0.001	1101867	MATH_START	n/a	-999	-999	n/a	n/a	n/a	n/a	4	[0, 0, 0]	-999	PAL1	1	R1283T
1092.799	0.016	1101868	START	n/a	-999	-999	n/a	n/a	n/a	n/a	5	[-999, -999, -999]	-999	PAL1	1	R1283T
1092.815	4.717	1101884	PROB	4692	-999	-999	n/a	n/a	n/a	n/a	5	[8, 2, 9]	19	PAL1	1	R1283T
1097.532	2.417	1106600	PROB	2390	-999	-999	n/a	n/a	n/a	n/a	5	[9, 1, 8]	18	PAL1	1	R1283T
1099.949	2.651	1109017	PROB	2621	-999	-999	n/a	n/a	n/a	n/a	5	[2, 9, 3]	14	PAL1	1	R1283T
1102.6	2.517	1111668	PROB	2491	-999	-999	n/a	n/a	n/a	n/a	5	[5, 2, 8]	15	PAL1	1	R1283T
1105.117	2.335	1114185	PROB	2303	-999	-999	n/a	n/a	n/a	n/a	5	[6, 4, 2]	12	PAL1	1	R1283T
1107.452	3.049	1116520	PROB	3015	-999	-999	n/a	n/a	n/a	n/a	5	[6, 2, 2]	10	PAL1	1	R1283T
1110.501	3.125	1119569	PROB	3125	-999	-999	n/a	n/a	n/a	n/a	5	[2, 4, 5]	11	PAL1	1	R1283T
1113.626	0.009	1122693	STOP	n/a	-999	-999	n/a	n/a	n/a	n/a	5	[-999, -999, -999]	-999	PAL1	1	R1283T
1113.635	0.001	1122702	MATH_END	n/a	-999	-999	n/a	n/a	n/a	n/a	4	[0, 0, 0]	-999	PAL1	1	R1283T
1113.636	0.016	1122703	RECALL_START	n/a	-999	-999	n/a	n/a	n/a	n/a	4	[0, 0, 0]	-999	PAL1	1	R1283T
1113.652	0.267	1122719	TEST_ORIENT	n/a	1	1	NAIL	n/a	FORT	NAIL	4	[0, 0, 0]	-999	PAL1	1	R1283T
1113.919	0.7	1122986	RETRIEVAL_ORIENT_OFF	n/a	-999	-999	n/a	n/a	n/a	n/a	4	[0, 0, 0]	-999	PAL1	1	R1283T
1114.619	0.0	1123686	TEST_PROBE	n/a	1	1	NAIL	n/a	FORT	NAIL	4	[0, 0, 0]	-999	PAL1	1	R1283T
1114.619	4.017	1123686	REC_START	n/a	1	-999	n/a	n/a	n/a	n/a	4	[0, 0, 0]	-999	PAL1	1	R1283T
1118.636	0.998	1127703	PROBE_OFF	n/a	1	-999	n/a	n/a	n/a	n/a	4	[0, 0, 0]	-999	PAL1	1	R1283T
1119.634	0.003	1128701	REC_EVENT	5015	1	1	NAIL	<>	FORT	NAIL	4	[0, 0, 0]	-999	PAL1	1	R1283T
1119.637	0.016	1128704	REC_END	n/a	1	-999	n/a	n/a	n/a	n/a	4	[0, 0, 0]	-999	PAL1	1	R1283T
1119.653	0.267	1128720	TEST_ORIENT	n/a	2	2	PIPE	n/a	SEAT	PIPE	4	[0, 0, 0]	-999	PAL1	1	R1283T
1119.92	0.517	1128987	RETRIEVAL_ORIENT_OFF	n/a	1	-999	n/a	n/a	n/a	n/a	4	[0, 0, 0]	-999	PAL1	1	R1283T
1120.437	0.001	1129504	TEST_PROBE	n/a	2	2	PIPE	n/a	SEAT	PIPE	4	[0, 0, 0]	-999	PAL1	1	R1283T
1120.438	4.017	1129505	REC_START	n/a	2	-999	n/a	n/a	n/a	n/a	4	[0, 0, 0]	-999	PAL1	1	R1283T
1124.455	0.998	1133522	PROBE_OFF	n/a	2	-999	n/a	n/a	n/a	n/a	4	[0, 0, 0]	-999	PAL1	1	R1283T
1125.453	0.003	1134520	REC_EVENT	5015	2	2	PIPE	<>	SEAT	PIPE	4	[0, 0, 0]	-999	PAL1	1	R1283T
1125.456	0.016	1134523	REC_END	n/a	2	-999	n/a	n/a	n/a	n/a	4	[0, 0, 0]	-999	PAL1	1	R1283T
1125.472	0.265	1134539	TEST_ORIENT	n/a	3	3	DOOR	n/a	CORD	DOOR	4	[0, 0, 0]	-999	PAL1	1	R1283T
1125.737	0.585	1134804	RETRIEVAL_ORIENT_OFF	n/a	2	-999	n/a	n/a	n/a	n/a	4	[0, 0, 0]	-999	PAL1	1	R1283T
1126.322	0.0	1135389	TEST_PROBE	n/a	3	3	DOOR	n/a	CORD	DOOR	4	[0, 0, 0]	-999	PAL1	1	R1283T
1126.322	4.017	1135389	REC_START	n/a	3	-999	n/a	n/a	n/a	n/a	4	[0, 0, 0]	-999	PAL1	1	R1283T
1130.339	0.998	1139405	PROBE_OFF	n/a	3	-999	n/a	n/a	n/a	n/a	4	[0, 0, 0]	-999	PAL1	1	R1283T
1131.337	0.002	1140403	REC_EVENT	5015	3	3	DOOR	<>	CORD	DOOR	4	[0, 0, 0]	-999	PAL1	1	R1283T
1131.339	0.017	1140405	REC_END	n/a	3	-999	n/a	n/a	n/a	n/a	4	[0, 0, 0]	-999	PAL1	1	R1283T
1131.356	0.266	1140422	TEST_ORIENT	n/a	6	4	SMOKE	SUIT	SMOKE	SOUP	4	[0, 0, 0]	-999	PAL1	1	R1283T
1131.622	0.701	1140688	RETRIEVAL_ORIENT_OFF	n/a	3	-999	n/a	n/a	n/a	n/a	4	[0, 0, 0]	-999	PAL1	1	R1283T
1132.323	0.001	1141389	TEST_PROBE	n/a	6	4	SMOKE	SUIT	SMOKE	SOUP	4	[0, 0, 0]	-999	PAL1	1	R1283T
1132.324	2.351	1141390	REC_START	n/a	6	-999	n/a	SUIT	n/a	n/a	4	[0, 0, 0]	-999	PAL1	1	R1283T
1134.675	1.665	1143741	REC_EVENT	2351	6	4	SMOKE	SUIT	SMOKE	SOUP	4	[0, 0, 0]	-999	PAL1	1	R1283T
1136.34	1.0	1145406	PROBE_OFF	n/a	6	-999	n/a	n/a	n/a	n/a	4	[0, 0, 0]	-999	PAL1	1	R1283T
1137.34	0.017	1146406	REC_END	n/a	6	-999	n/a	n/a	n/a	n/a	4	[0, 0, 0]	-999	PAL1	1	R1283T
1137.357	0.266	1146423	TEST_ORIENT	n/a	5	5	SHEET	n/a	STOOL	SHEET	4	[0, 0, 0]	-999	PAL1	1	R1283T
1137.623	0.734	1146689	RETRIEVAL_ORIENT_OFF	n/a	6	-999	n/a	n/a	n/a	n/a	4	[0, 0, 0]	-999	PAL1	1	R1283T
1138.357	0.001	1147423	TEST_PROBE	n/a	5	5	SHEET	n/a	STOOL	SHEET	4	[0, 0, 0]	-999	PAL1	1	R1283T
1138.358	4.017	1147424	REC_START	n/a	5	-999	n/a	n/a	n/a	n/a	4	[0, 0, 0]	-999	PAL1	1	R1283T
1142.375	1.01	1151441	PROBE_OFF	n/a	5	-999	n/a	n/a	n/a	n/a	4	[0, 0, 0]	-999	PAL1	1	R1283T
1143.385	0.002	1152451	REC_EVENT	5027	5	5	SHEET	<>	STOOL	SHEET	4	[0, 0, 0]	-999	PAL1	1	R1283T
1143.387	0.021	1152453	REC_END	n/a	5	-999	n/a	n/a	n/a	n/a	4	[0, 0, 0]	-999	PAL1	1	R1283T
1143.408	0.266	1152474	TEST_ORIENT	n/a	4	6	TREE	SHIP	SHIP	TREE	4	[0, 0, 0]	-999	PAL1	1	R1283T
1143.674	0.533	1152740	RETRIEVAL_ORIENT_OFF	n/a	5	-999	n/a	n/a	n/a	n/a	4	[0, 0, 0]	-999	PAL1	1	R1283T
1144.207	0.001	1153273	TEST_PROBE	n/a	4	6	TREE	SHIP	SHIP	TREE	4	[0, 0, 0]	-999	PAL1	1	R1283T
1144.208	1.958	1153274	REC_START	n/a	4	-999	n/a	SHIP	n/a	n/a	4	[0, 0, 0]	-999	PAL1	1	R1283T
1146.166	2.042	1155231	REC_EVENT	1958	4	6	TREE	SHIP	SHIP	TREE	4	[0, 0, 0]	-999	PAL1	1	R1283T
1148.208	1.0	1157273	PROBE_OFF	n/a	4	-999	n/a	n/a	n/a	n/a	4	[0, 0, 0]	-999	PAL1	1	R1283T
1149.208	0.01	1158273	REC_END	n/a	4	-999	n/a	n/a	n/a	n/a	4	[0, 0, 0]	-999	PAL1	1	R1283T
1149.218	3.891	1158283	RECALL_END	n/a	-999	-999	n/a	n/a	n/a	n/a	4	[0, 0, 0]	-999	PAL1	1	R1283T
1153.109	10.929	1162174	TRIAL	n/a	-999	-999	n/a	n/a	n/a	n/a	5	[0, 0, 0]	-999	PAL1	1	R1283T
1164.038	0.006	1173102	ENCODING_START	n/a	-999	-999	n/a	n/a	n/a	n/a	5	[0, 0, 0]	-999	PAL1	1	R1283T
1164.044	0.251	1173108	STUDY_ORIENT	n/a	1	1	HAWK	n/a	GEESE	HAWK	5	[0, 0, 0]	-999	PAL1	1	R1283T
1164.295	0.733	1173359	STUDY_ORIENT_OFF	n/a	1	1	HAWK	n/a	GEESE	HAWK	5	[0, 0, 0]	-999	PAL1	1	R1283T
1165.028	4.017	1174092	STUDY_PAIR	n/a	1	1	HAWK	n/a	GEESE	HAWK	5	[0, 0, 0]	-999	PAL1	1	R1283T
1169.045	1.017	1178109	PAIR_OFF	n/a	1	1	HAWK	n/a	GEESE	HAWK	5	[0, 0, 0]	-999	PAL1	1	R1283T
1170.062	0.268	1179126	STUDY_ORIENT	n/a	2	6	SNAIL	n/a	SPONGE	SNAIL	5	[0, 0, 0]	-999	PAL1	1	R1283T
1170.33	0.716	1179394	STUDY_ORIENT_OFF	n/a	2	6	SNAIL	n/a	SPONGE	SNAIL	5	[0, 0, 0]	-999	PAL1	1	R1283T
1171.046	4.017	1180110	STUDY_PAIR	n/a	2	6	SNAIL	n/a	SPONGE	SNAIL	5	[0, 0, 0]	-999	PAL1	1	R1283T
1175.063	1.017	1184127	PAIR_OFF	n/a	2	6	SNAIL	n/a	SPONGE	SNAIL	5	[0, 0, 0]	-999	PAL1	1	R1283T
1176.08	0.268	1185144	STUDY_ORIENT	n/a	3	5	FLUTE	MAZE	MAZE	FLUTE	5	[0, 0, 0]	-999	PAL1	1	R1283T
1176.348	0.732	1185412	STUDY_ORIENT_OFF	n/a	3	5	FLUTE	MAZE	MAZE	FLUTE	5	[0, 0, 0]	-999	PAL1	1	R1283T
1177.08	4.018	1186144	STUDY_PAIR	n/a	3	5	FLUTE	MAZE	MAZE	FLUTE	5	[0, 0, 0]	-999	PAL1	1	R1283T
1181.098	1.016	1190161	PAIR_OFF	n/a	3	5	FLUTE	MAZE	MAZE	FLUTE	5	[0, 0, 0]	-999	PAL1	1	R1283T
1182.114	0.268	1191177	STUDY_ORIENT	n/a	4	4	ROOT	TREE	ROOT	HOLE	5	[0, 0, 0]	-999	PAL1	1	R1283T
1182.382	0.566	1191445	STUDY_ORIENT_OFF	n/a	4	4	ROOT	TREE	ROOT	HOLE	5	[0, 0, 0]	-999	PAL1	1	R1283T
1182.948	4.017	1192011	STUDY_PAIR	n/a	4	4	ROOT	TREE	ROOT	HOLE	5	[0, 0, 0]	-999	PAL1	1	R1283T
1186.965	1.017	1196028	PAIR_OFF	n/a	4	4	ROOT	TREE	ROOT	HOLE	5	[0, 0, 0]	-999	PAL1	1	R1283T
1187.982	0.268	1197045	STUDY_ORIENT	n/a	5	3	SQUARE	n/a	DOG	SQUARE	5	[0, 0, 0]	-999	PAL1	1	R1283T
1188.25	0.682	1197313	STUDY_ORIENT_OFF	n/a	5	3	SQUARE	n/a	DOG	SQUARE	5	[0, 0, 0]	-999	PAL1	1	R1283T
1188.932	4.018	1197995	STUDY_PAIR	n/a	5	3	SQUARE	n/a	DOG	SQUARE	5	[0, 0, 0]	-999	PAL1	1	R1283T
1192.95	1.017	1202013	PAIR_OFF	n/a	5	3	SQUARE	n/a	DOG	SQUARE	5	[0, 0, 0]	-999	PAL1	1	R1283T
1193.967	0.267	1203030	STUDY_ORIENT	n/a	6	2	NOSE	TOE	TOE	NOSE	5	[0, 0, 0]	-999	PAL1	1	R1283T
1194.234	0.649	1203297	STUDY_ORIENT_OFF	n/a	6	2	NOSE	TOE	TOE	NOSE	5	[0, 0, 0]	-999	PAL1	1	R1283T
1194.883	4.018	1203945	STUDY_PAIR	n/a	6	2	NOSE	TOE	TOE	NOSE	5	[0, 0, 0]	-999	PAL1	1	R1283T
1198.901	1.0	1207963	PAIR_OFF	n/a	6	2	NOSE	TOE	TOE	NOSE	5	[0, 0, 0]	-999	PAL1	1	R1283T
1199.901	0.0	1208963	ENCODING_END	n/a	-999	-999	n/a	n/a	n/a	n/a	5	[0, 0, 0]	-999	PAL1	1	R1283T
1199.901	0.0	1208963	MATH_START	n/a	-999	-999	n/a	n/a	n/a	n/a	5	[0, 0, 0]	-999	PAL1	1	R1283T
1199.901	0.017	1208963	START	n/a	-999	-999	n/a	n/a	n/a	n/a	6	[-999, -999, -999]	-999	PAL1	1	R1283T
1199.918	8.402	1208980	PROB	8366	-999	-999	n/a	n/a	n/a	n/a	6	[7, 8, 8]	23	PAL1	1	R1283T
1208.32	2.3	1217382	PROB	2275	-999	-999	n/a	n/a	n/a	n/a	6	[3, 9, 1]	13	PAL1	1	R1283T
1210.62	3.735	1219682	PROB	3703	-999	-999	n/a	n/a	n/a	n/a	6	[7, 6, 3]	17	PAL1	1	R1283T
1214.355	5.349	1223416	PROB	5327	-999	-999	n/a	n/a	n/a	n/a	6	[6, 2, 2]	10	PAL1	1	R1283T
1219.704	2.764	1228765	PROB	2764	-999	-999	n/a	n/a	n/a	n/a	6	[8, 7, 1]	16	PAL1	1	R1283T
1222.468	0.021	1231529	STOP	n/a	-999	-999	n/a	n/a	n/a	n/a	6	[-999, -999, -999]	-999	PAL1	1	R1283T
1222.489	0.001	1231550	MATH_END	n/a	-999	-999	n/a	n/a	n/a	n/a	5	[0, 0, 0]	-999	PAL1	1	R1283T
1222.49	0.015	1231551	RECALL_START	n/a	-999	-999	n/a	n/a	n/a	n/a	5	[0, 0, 0]	-999	PAL1	1	R1283T
1222.505	0.267	1231566	TEST_ORIENT	n/a	1	1	HAWK	n/a	GEESE	HAWK	5	[0, 0, 0]	-999	PAL1	1	R1283T
1222.772	0.701	1231833	RETRIEVAL_ORIENT_OFF	n/a	-999	-999	n/a	n/a	n/a	n/a	5	[0, 0, 0]	-999	PAL1	1	R1283T
1223.473	0.001	1232534	TEST_PROBE	n/a	1	1	HAWK	n/a	GEESE	HAWK	5	[0, 0, 0]	-999	PAL1	1	R1283T
1223.474	4.016	1232535	REC_START	n/a	1	-999	n/a	n/a	n/a	n/a	5	[0, 0, 0]	-999	PAL1	1	R1283T
1227.49	1.0	1236551	PROBE_OFF	n/a	1	-999	n/a	n/a	n/a	n/a	5	[0, 0, 0]	-999	PAL1	1	R1283T
1228.49	0.005	1237550	REC_END	n/a	1	-999	n/a	n/a	n/a	n/a	5	[0, 0, 0]	-999	PAL1	1	R1283T
1228.495	0.011	1237555	REC_EVENT	5021	1	1	HAWK	<>	GEESE	HAWK	5	[0, 0, 0]	-999	PAL1	1	R1283T
1228.506	0.267	1237566	TEST_ORIENT	n/a	6	2	NOSE	TOE	TOE	NOSE	5	[0, 0, 0]	-999	PAL1	1	R1283T
1228.773	0.75	1237833	RETRIEVAL_ORIENT_OFF	n/a	1	-999	n/a	n/a	n/a	n/a	5	[0, 0, 0]	-999	PAL1	1	R1283T
1229.523	0.001	1238583	TEST_PROBE	n/a	6	2	NOSE	TOE	TOE	NOSE	5	[0, 0, 0]	-999	PAL1	1	R1283T
1229.524	2.223	1238584	REC_START	n/a	6	-999	n/a	TOE	n/a	n/a	5	[0, 0, 0]	-999	PAL1	1	R1283T
1231.747	1.793	1240807	REC_EVENT	2223	6	2	NOSE	TOE	TOE	NOSE	5	[0, 0, 0]	-999	PAL1	1	R1283T
1233.54	1.0	1242600	PROBE_OFF	n/a	6	-999	n/a	n/a	n/a	n/a	5	[0, 0, 0]	-999	PAL1	1	R1283T
1234.54	0.017	1243600	REC_END	n/a	6	-999	n/a	n/a	n/a	n/a	5	[0, 0, 0]	-999	PAL1	1	R1283T
1234.557	0.267	1243617	TEST_ORIENT	n/a	5	3	SQUARE	n/a	DOG	SQUARE	5	[0, 0, 0]	-999	PAL1	1	R1283T
1234.824	0.651	1243884	RETRIEVAL_ORIENT_OFF	n/a	6	-999	n/a	n/a	n/a	n/a	5	[0, 0, 0]	-999	PAL1	1	R1283T
1235.475	0.001	1244535	TEST_PROBE	n/a	5	3	SQUARE	n/a	DOG	SQUARE	5	[0, 0, 0]	-999	PAL1	1	R1283T
1235.476	4.016	1244536	REC_START	n/a	5	-999	n/a	n/a	n/a	n/a	5	[0, 0, 0]	-999	PAL1	1	R1283T
1239.492	0.999	1248552	PROBE_OFF	n/a	5	-999	n/a	n/a	n/a	n/a	5	[0, 0, 0]	-999	PAL1	1	R1283T
1240.491	0.002	1249551	REC_EVENT	5015	5	3	SQUARE	<>	DOG	SQUARE	5	[0, 0, 0]	-999	PAL1	1	R1283T
1240.493	0.015	1249553	REC_END	n/a	5	-999	n/a	n/a	n/a	n/a	5	[0, 0, 0]	-999	PAL1	1	R1283T
1240.508	0.267	1249568	TEST_ORIENT	n/a	4	4	ROOT	TREE	ROOT	HOLE	5	[0, 0, 0]	-999	PAL1	1	R1283T
1240.775	0.551	1249835	RETRIEVAL_ORIENT_OFF	n/a	5	-999	n/a	n/a	n/a	n/a	5	[0, 0, 0]	-999	PAL1	1	R1283T
1241.326	0.0	1250386	TEST_PROBE	n/a	4	4	ROOT	TREE	ROOT	HOLE	5	[0, 0, 0]	-999	PAL1	1	R1283T
1241.326	3.867	1250386	REC_START	n/a	4	-999	n/a	TREE	n/a	n/a	5	[0, 0, 0]	-999	PAL1	1	R1283T
1245.193	0.151	1254252	REC_EVENT	3867	4	4	ROOT	TREE	ROOT	HOLE	5	[0, 0, 0]	-999	PAL1	1	R1283T
1245.344	1.0	1254403	PROBE_OFF	n/a	4	-999	n/a	n/a	n/a	n/a	5	[0, 0, 0]	-999	PAL1	1	R1283T
1246.344	0.017	1255403	REC_END	n/a	4	-999	n/a	n/a	n/a	n/a	5	[0, 0, 0]	-999	PAL1	1	R1283T
1246.361	0.265	1255420	TEST_ORIENT	n/a	3	5	FLUTE	MAZE	MAZE	FLUTE	5	[0, 0, 0]	-999	PAL1	1	R1283T
1246.626	0.6	1255685	RETRIEVAL_ORIENT_OFF	n/a	4	-999	n/a	n/a	n/a	n/a	5	[0, 0, 0]	-999	PAL1	1	R1283T
1247.226	0.001	1256285	TEST_PROBE	n/a	3	5	FLUTE	MAZE	MAZE	FLUTE	5	[0, 0, 0]	-999	PAL1	1	R1283T
1247.227	1.635	1256286	REC_START	n/a	3	-999	n/a	MAZE	n/a	n/a	5	[0, 0, 0]	-999	PAL1	1	R1283T
1248.862	2.383	1257921	REC_EVENT	1635	3	5	FLUTE	MAZE	MAZE	FLUTE	5	[0, 0, 0]	-999	PAL1	1	R1283T
1251.245	1.0	1260304	PROBE_OFF	n/a	3	-999	n/a	n/a	n/a	n/a	5	[0, 0, 0]	-999	PAL1	1	R1283T
1252.245	0.016	1261304	REC_END	n/a	3	-999	n/a	n/a	n/a	n/a	5	[0, 0, 0]	-999	PAL1	1	R1283T
1252.261	0.266	1261320	TEST_ORIENT	n/a	2	6	SNAIL	n/a	SPONGE	SNAIL	5	[0, 0, 0]	-999	PAL1	1	R1283T
1252.527	0.617	1261586	RETRIEVAL_ORIENT_OFF	n/a	3	-999	n/a	n/a	n/a	n/a	5	[0, 0, 0]	-999	PAL1	1	R1283T
1253.144	0.001	1262203	TEST_PROBE	n/a	2	6	SNAIL	n/a	SPONGE	SNAIL	5	[0, 0, 0]	-999	PAL1	1	R1283T
1253.145	4.016	1262204	REC_START	n/a	2	-999	n/a	n/a	n/a	n/a	5	[0, 0, 0]	-999	PAL1	1	R1283T
1257.161	0.999	1266220	PROBE_OFF	n/a	2	-999	n/a	n/a	n/a	n/a	5	[0, 0, 0]	-999	PAL1	1	R1283T
1258.16	0.001	1267219	REC_EVENT	5015	2	6	SNAIL	<>	SPONGE	SNAIL	5	[0, 0, 0]	-999	PAL1	1	R1283T
1258.161	0.011	1267220	REC_END	n/a	2	-999	n/a	n/a	n/a	n/a	5	[0, 0, 0]	-999	PAL1	1	R1283T
1258.172	3.857	1267231	RECALL_END	n/a	-999	-999	n/a	n/a	n/a	n/a	5	[0, 0, 0]	-999	PAL1	1	R1283T
1262.029	10.929	1271087	TRIAL	n/a	-999	-999	n/a	n/a	n/a	n/a	6	[0, 0, 0]	-999	PAL1	1	R1283T
1272.958	0.006	1282016	ENCODING_START	n/a	-999	-999	n/a	n/a	n/a	n/a	6	[0, 0, 0]	-999	PAL1	1	R1283T
1272.964	0.267	1282022	STUDY_ORIENT	n/a	1	1	HEN	n/a	HEN	ROSE	6	[0, 0, 0]	-999	PAL1	1	R1283T
1273.231	0.617	1282289	STUDY_ORIENT_OFF	n/a	1	1	HEN	n/a	HEN	ROSE	6	[0, 0, 0]	-999	PAL1	1	R1283T
1273.848	4.017	1282906	STUDY_PAIR	n/a	1	1	HEN	n/a	HEN	ROSE	6	[0, 0, 0]	-999	PAL1	1	R1283T
1277.865	1.017	1286922	PAIR_OFF	n/a	1	1	HEN	n/a	HEN	ROSE	6	[0, 0, 0]	-999	PAL1	1	R1283T
1278.882	0.267	1287939	STUDY_ORIENT	n/a	2	4	TRAY	ROSE	ICE	TRAY	6	[0, 0, 0]	-999	PAL1	1	R1283T
1279.149	0.733	1288206	STUDY_ORIENT_OFF	n/a	2	4	TRAY	ROSE	ICE	TRAY	6	[0, 0, 0]	-999	PAL1	1	R1283T
1279.882	4.018	1288939	STUDY_PAIR	n/a	2	4	TRAY	ROSE	ICE	TRAY	6	[0, 0, 0]	-999	PAL1	1	R1283T
1283.9	1.016	1292957	PAIR_OFF	n/a	2	4	TRAY	ROSE	ICE	TRAY	6	[0, 0, 0]	-999	PAL1	1	R1283T
1284.916	0.267	1293973	STUDY_ORIENT	n/a	3	5	MOLE	CLOTH	CLOTH	MOLE	6	[0, 0, 0]	-999	PAL1	1	R1283T
1285.183	0.634	1294240	STUDY_ORIENT_OFF	n/a	3	5	MOLE	CLOTH	CLOTH	MOLE	6	[0, 0, 0]	-999	PAL1	1	R1283T
1285.817	4.017	1294874	STUDY_PAIR	n/a	3	5	MOLE	CLOTH	CLOTH	MOLE	6	[0, 0, 0]	-999	PAL1	1	R1283T
1289.834	1.017	1298891	PAIR_OFF	n/a	3	5	MOLE	CLOTH	CLOTH	MOLE	6	[0, 0, 0]	-999	PAL1	1	R1283T
1290.851	0.266	1299908	STUDY_ORIENT	n/a	4	2	RICE	n/a	RICE	BAT	6	[0, 0, 0]	-999	PAL1	1	R1283T
1291.117	0.567	1300174	STUDY_ORIENT_OFF	n/a	4	2	RICE	n/a	RICE	BAT	6	[0, 0, 0]	-999	PAL1	1	R1283T
1291.684	4.001	1300741	STUDY_PAIR	n/a	4	2	RICE	n/a	RICE	BAT	6	[0, 0, 0]	-999	PAL1	1	R1283T
1295.685	1.017	1304741	PAIR_OFF	n/a	4	2	RICE	n/a	RICE	BAT	6	[0, 0, 0]	-999	PAL1	1	R1283T
1296.702	0.267	1305758	STUDY_ORIENT	n/a	5	3	PHONE	INK	INK	PHONE	6	[0, 0, 0]	-999	PAL1	1	R1283T
1296.969	0.7	1306025	STUDY_ORIENT_OFF	n/a	5	3	PHONE	INK	INK	PHONE	6	[0, 0, 0]	-999	PAL1	1	R1283T
1297.669	4.017	1306725	STUDY_PAIR	n/a	5	3	PHONE	INK	INK	PHONE	6	[0, 0, 0]	-999	PAL1	1	R1283T
1301.686	1.017	1310742	PAIR_OFF	n/a	5	3	PHONE	INK	INK	PHONE	6	[0, 0, 0]	-999	PAL1	1	R1283T
1302.703	0.267	1311759	STUDY_ORIENT	n/a	6	6	DOLL	CAT	DOLL	CAT	6	[0, 0, 0]	-999	PAL1	1	R1283T
1302.97	0.583	1312026	STUDY_ORIENT_OFF	n/a	6	6	DOLL	CAT	DOLL	CAT	6	[0, 0, 0]	-999	PAL1	1	R1283T
1303.553	4.018	1312609	STUDY_PAIR	n/a	6	6	DOLL	CAT	DOLL	CAT	6	[0, 0, 0]	-999	PAL1	1	R1283T
1307.571	1.001	1316627	PAIR_OFF	n/a	6	6	DOLL	CAT	DOLL	CAT	6	[0, 0, 0]	-999	PAL1	1	R1283T
1308.572	0.0	1317628	ENCODING_END	n/a	-999	-999	n/a	n/a	n/a	n/a	6	[0, 0, 0]	-999	PAL1	1	R1283T
1308.572	0.0	1317628	MATH_START	n/a	-999	-999	n/a	n/a	n/a	n/a	6	[0, 0, 0]	-999	PAL1	1	R1283T
1308.572	0.015	1317628	START	n/a	-999	-999	n/a	n/a	n/a	n/a	7	[-999, -999, -999]	-999	PAL1	1	R1283T
1308.587	2.752	1317643	PROB	2720	-999	-999	n/a	n/a	n/a	n/a	7	[1, 4, 6]	11	PAL1	1	R1283T
1311.339	2.499	1320394	PROB	2471	-999	-999	n/a	n/a	n/a	n/a	7	[5, 9, 5]	19	PAL1	1	R1283T
1313.838	5.285	1322893	PROB	5260	-999	-999	n/a	n/a	n/a	n/a	7	[8, 2, 4]	16	PAL1	1	R1283T
1319.123	3.617	1328178	PROB	3592	-999	-999	n/a	n/a	n/a	n/a	7	[1, 5, 7]	13	PAL1	1	R1283T
1322.74	4.518	1331795	PROB	4487	-999	-999	n/a	n/a	n/a	n/a	7	[9, 1, 8]	18	PAL1	1	R1283T
1327.258	3.816	1336313	PROB	3816	-999	-999	n/a	n/a	n/a	n/a	7	[5, 6, 9]	20	PAL1	1	R1283T
1331.074	0.017	1340128	STOP	n/a	-999	-999	n/a	n/a	n/a	n/a	7	[-999, -999, -999]	-999	PAL1	1	R1283T
1331.091	0.001	1340145	MATH_END	n/a	-999	-999	n/a	n/a	n/a	n/a	6	[0, 0, 0]	-999	PAL1	1	R1283T
1331.092	0.016	1340146	RECALL_START	n/a	-999	-999	n/a	n/a	n/a	n/a	6	[0, 0, 0]	-999	PAL1	1	R1283T
1331.108	0.268	1340162	TEST_ORIENT	n/a	1	1	HEN	n/a	HEN	ROSE	6	[0, 0, 0]	-999	PAL1	1	R1283T
1331.376	0.516	1340430	RETRIEVAL_ORIENT_OFF	n/a	-999	-999	n/a	n/a	n/a	n/a	6	[0, 0, 0]	-999	PAL1	1	R1283T
1331.892	0.0	1340946	TEST_PROBE	n/a	1	1	HEN	n/a	HEN	ROSE	6	[0, 0, 0]	-999	PAL1	1	R1283T
1331.892	4.017	1340946	REC_START	n/a	1	-999	n/a	n/a	n/a	n/a	6	[0, 0, 0]	-999	PAL1	1	R1283T
1335.909	1.0	1344963	PROBE_OFF	n/a	1	-999	n/a	n/a	n/a	n/a	6	[0, 0, 0]	-999	PAL1	1	R1283T
1336.909	0.004	1345963	REC_END	n/a	1	-999	n/a	n/a	n/a	n/a	6	[0, 0, 0]	-999	PAL1	1	R1283T
1336.913	0.013	1345967	REC_EVENT	5021	1	1	HEN	<>	HEN	ROSE	6	[0, 0, 0]	-999	PAL1	1	R1283T
1336.926	0.267	1345980	TEST_ORIENT	n/a	4	2	RICE	n/a	RICE	BAT	6	[0, 0, 0]	-999	PAL1	1	R1283T
1337.193	0.533	1346247	RETRIEVAL_ORIENT_OFF	n/a	1	-999	n/a	n/a	n/a	n/a	6	[0, 0, 0]	-999	PAL1	1	R1283T
1337.726	0.0	1346780	TEST_PROBE	n/a	4	2	RICE	n/a	RICE	BAT	6	[0, 0, 0]	-999	PAL1	1	R1283T
1337.726	4.017	1346780	REC_START	n/a	4	-999	n/a	n/a	n/a	n/a	6	[0, 0, 0]	-999	PAL1	1	R1283T
1341.743	0.998	1350797	PROBE_OFF	n/a	4	-999	n/a	n/a	n/a	n/a	6	[0, 0, 0]	-999	PAL1	1	R1283T
1342.741	0.002	1351795	REC_EVENT	5015	4	2	RICE	<>	RICE	BAT	6	[0, 0, 0]	-999	PAL1	1	R1283T
1342.743	0.017	1351797	REC_END	n/a	4	-999	n/a	n/a	n/a	n/a	6	[0, 0, 0]	-999	PAL1	1	R1283T
1342.76	0.267	1351814	TEST_ORIENT	n/a	5	3	PHONE	INK	INK	PHONE	6	[0, 0, 0]	-999	PAL1	1	R1283T
1343.027	0.733	1352081	RETRIEVAL_ORIENT_OFF	n/a	4	-999	n/a	n/a	n/a	n/a	6	[0, 0, 0]	-999	PAL1	1	R1283T
1343.76	0.001	1352814	TEST_PROBE	n/a	5	3	PHONE	INK	INK	PHONE	6	[0, 0, 0]	-999	PAL1	1	R1283T
1343.761	1.217	1352815	REC_START	n/a	5	-999	n/a	INK	n/a	n/a	6	[0, 0, 0]	-999	PAL1	1	R1283T
1344.978	2.8	1354031	REC_EVENT	1217	5	3	PHONE	INK	INK	PHONE	6	[0, 0, 0]	-999	PAL1	1	R1283T
1347.778	1.011	1356831	PROBE_OFF	n/a	5	-999	n/a	n/a	n/a	n/a	6	[0, 0, 0]	-999	PAL1	1	R1283T
1348.789	0.005	1357842	REC_END	n/a	5	-999	n/a	n/a	n/a	n/a	6	[0, 0, 0]	-999	PAL1	1	R1283T
1348.794	0.267	1357847	TEST_ORIENT	n/a	2	4	TRAY	ROSE	ICE	TRAY	6	[0, 0, 0]	-999	PAL1	1	R1283T
1349.061	0.534	1358114	RETRIEVAL_ORIENT_OFF	n/a	5	-999	n/a	n/a	n/a	n/a	6	[0, 0, 0]	-999	PAL1	1	R1283T
1349.595	0.0	1358648	REC_START	n/a	2	-999	n/a	ROSE	n/a	n/a	6	[0, 0, 0]	-999	PAL1	1	R1283T
1349.595	3.036	1358648	TEST_PROBE	n/a	2	4	TRAY	ROSE	ICE	TRAY	6	[0, 0, 0]	-999	PAL1	1	R1283T
1352.631	0.981	1361684	REC_EVENT	3036	2	4	TRAY	ROSE	ICE	TRAY	6	[0, 0, 0]	-999	PAL1	1	R1283T
1353.612	1.0	1362665	PROBE_OFF	n/a	2	-999	n/a	n/a	n/a	n/a	6	[0, 0, 0]	-999	PAL1	1	R1283T
1354.612	0.017	1363665	REC_END	n/a	2	-999	n/a	n/a	n/a	n/a	6	[0, 0, 0]	-999	PAL1	1	R1283T
1354.629	0.267	1363682	TEST_ORIENT	n/a	3	5	MOLE	CLOTH	CLOTH	MOLE	6	[0, 0, 0]	-999	PAL1	1	R1283T
1354.896	0.667	1363949	RETRIEVAL_ORIENT_OFF	n/a	2	-999	n/a	n/a	n/a	n/a	6	[0, 0, 0]	-999	PAL1	1	R1283T
1355.563	0.0	1364616	TEST_PROBE	n/a	3	5	MOLE	CLOTH	CLOTH	MOLE	6	[0, 0, 0]	-999	PAL1	1	R1283T
1355.563	1.926	1364616	REC_START	n/a	3	-999	n/a	CLOTH	n/a	n/a	6	[0, 0, 0]	-999	PAL1	1	R1283T
1357.489	2.091	1366542	REC_EVENT	1926	3	5	MOLE	CLOTH	CLOTH	MOLE	6	[0, 0, 0]	-999	PAL1	1	R1283T
1359.58	1.0	1368633	PROBE_OFF	n/a	3	-999	n/a	n/a	n/a	n/a	6	[0, 0, 0]	-999	PAL1	1	R1283T
1360.58	0.017	1369633	REC_END	n/a	3	-999	n/a	n/a	n/a	n/a	6	[0, 0, 0]	-999	PAL1	1	R1283T
1360.597	0.267	1369650	TEST_ORIENT	n/a	6	6	DOLL	CAT	DOLL	CAT	6	[0, 0, 0]	-999	PAL1	1	R1283T
1360.864	0.75	1369917	RETRIEVAL_ORIENT_OFF	n/a	3	-999	n/a	n/a	n/a	n/a	6	[0, 0, 0]	-999	PAL1	1	R1283T
1361.614	0.0	1370666	REC_START	n/a	6	-999	n/a	CAT	n/a	n/a	6	[0, 0, 0]	-999	PAL1	1	R1283T
1361.614	3.503	1370666	TEST_PROBE	n/a	6	6	DOLL	CAT	DOLL	CAT	6	[0, 0, 0]	-999	PAL1	1	R1283T
1365.117	0.514	1374169	REC_EVENT	3503	6	6	DOLL	CAT	DOLL	CAT	6	[0, 0, 0]	-999	PAL1	1	R1283T
1365.631	1.0	1374683	PROBE_OFF	n/a	6	-999	n/a	n/a	n/a	n/a	6	[0, 0, 0]	-999	PAL1	1	R1283T
1366.631	0.005	1375683	REC_END	n/a	6	-999	n/a	n/a	n/a	n/a	6	[0, 0, 0]	-999	PAL1	1	R1283T
1366.636	4.163	1375688	RECALL_END	n/a	-999	-999	n/a	n/a	n/a	n/a	6	[0, 0, 0]	-999	PAL1	1	R1283T
1370.799	10.929	1379851	TRIAL	n/a	-999	-999	n/a	n/a	n/a	n/a	7	[0, 0, 0]	-999	PAL1	1	R1283T
1381.728	0.006	1390779	ENCODING_START	n/a	-999	-999	n/a	n/a	n/a	n/a	7	[0, 0, 0]	-999	PAL1	1	R1283T
1381.734	0.267	1390785	STUDY_ORIENT	n/a	1	5	HAND	n/a	HOOK	HAND	7	[0, 0, 0]	-999	PAL1	1	R1283T
1382.001	0.533	1391052	STUDY_ORIENT_OFF	n/a	1	5	HAND	n/a	HOOK	HAND	7	[0, 0, 0]	-999	PAL1	1	R1283T
1382.534	4.018	1391585	STUDY_PAIR	n/a	1	5	HAND	n/a	HOOK	HAND	7	[0, 0, 0]	-999	PAL1	1	R1283T
1386.552	1.016	1395603	PAIR_OFF	n/a	1	5	HAND	n/a	HOOK	HAND	7	[0, 0, 0]	-999	PAL1	1	R1283T
1387.568	0.267	1396619	STUDY_ORIENT	n/a	2	4	CAPE	GRAPE	CAPE	GRAPE	7	[0, 0, 0]	-999	PAL1	1	R1283T
1387.835	0.667	1396886	STUDY_ORIENT_OFF	n/a	2	4	CAPE	GRAPE	CAPE	GRAPE	7	[0, 0, 0]	-999	PAL1	1	R1283T
1388.502	4.017	1397553	STUDY_PAIR	n/a	2	4	CAPE	GRAPE	CAPE	GRAPE	7	[0, 0, 0]	-999	PAL1	1	R1283T
1392.519	1.017	1401570	PAIR_OFF	n/a	2	4	CAPE	GRAPE	CAPE	GRAPE	7	[0, 0, 0]	-999	PAL1	1	R1283T
1393.536	0.267	1402587	STUDY_ORIENT	n/a	3	3	SINK	CROWN	SINK	CROWN	7	[0, 0, 0]	-999	PAL1	1	R1283T
1393.803	0.551	1402854	STUDY_ORIENT_OFF	n/a	3	3	SINK	CROWN	SINK	CROWN	7	[0, 0, 0]	-999	PAL1	1	R1283T
1394.354	4.017	1403404	STUDY_PAIR	n/a	3	3	SINK	CROWN	SINK	CROWN	7	[0, 0, 0]	-999	PAL1	1	R1283T
1398.371	1.017	1407421	PAIR_OFF	n/a	3	3	SINK	CROWN	SINK	CROWN	7	[0, 0, 0]	-999	PAL1	1	R1283T
1399.388	0.266	1408438	STUDY_ORIENT	n/a	4	6	CART	MAT	CART	MAP	7	[0, 0, 0]	-999	PAL1	1	R1283T
1399.654	0.701	1408704	STUDY_ORIENT_OFF	n/a	4	6	CART	MAT	CART	MAP	7	[0, 0, 0]	-999	PAL1	1	R1283T
1400.355	4.018	1409405	STUDY_PAIR	n/a	4	6	CART	MAT	CART	MAP	7	[0, 0, 0]	-999	PAL1	1	R1283T
1404.373	1.016	1413423	PAIR_OFF	n/a	4	6	CART	MAT	CART	MAP	7	[0, 0, 0]	-999	PAL1	1	R1283T
1405.389	0.266	1414439	STUDY_ORIENT	n/a	5	1	BEAR	n/a	BEAR	SKUNK	7	[0, 0, 0]	-999	PAL1	1	R1283T
1405.655	0.751	1414705	STUDY_ORIENT_OFF	n/a	5	1	BEAR	n/a	BEAR	SKUNK	7	[0, 0, 0]	-999	PAL1	1	R1283T
1406.406	4.018	1415456	STUDY_PAIR	n/a	5	1	BEAR	n/a	BEAR	SKUNK	7	[0, 0, 0]	-999	PAL1	1	R1283T
1410.424	1.016	1419474	PAIR_OFF	n/a	5	1	BEAR	n/a	BEAR	SKUNK	7	[0, 0, 0]	-999	PAL1	1	R1283T
1411.44	0.266	1420489	STUDY_ORIENT	n/a	6	2	VASE	PLANE	PLANE	VASE	7	[0, 0, 0]	-999	PAL1	1	R1283T
1411.706	0.668	1420755	STUDY_ORIENT_OFF	n/a	6	2	VASE	PLANE	PLANE	VASE	7	[0, 0, 0]	-999	PAL1	1	R1283T
1412.374	4.017	1421423	STUDY_PAIR	n/a	6	2	VASE	PLANE	PLANE	VASE	7	[0, 0, 0]	-999	PAL1	1	R1283T
1416.391	1.0	1425440	PAIR_OFF	n/a	6	2	VASE	PLANE	PLANE	VASE	7	[0, 0, 0]	-999	PAL1	1	R1283T
1417.391	0.0	1426440	ENCODING_END	n/a	-999	-999	n/a	n/a	n/a	n/a	7	[0, 0, 0]	-999	PAL1	1	R1283T
1417.391	0.0	1426440	MATH_START	n/a	-999	-999	n/a	n/a	n/a	n/a	7	[0, 0, 0]	-999	PAL1	1	R1283T
1417.391	0.017	1426440	START	n/a	-999	-999	n/a	n/a	n/a	n/a	8	[-999, -999, -999]	-999	PAL1	1	R1283T
1417.408	2.266	1426457	PROB	2235	-999	-999	n/a	n/a	n/a	n/a	8	[2, 7, 3]	12	PAL1	1	R1283T
1419.674	2.367	1428723	PROB	2344	-999	-999	n/a	n/a	n/a	n/a	8	[1, 1, 5]	7	PAL1	1	R1283T
1422.041	4.018	1431090	PROB	3986	-999	-999	n/a	n/a	n/a	n/a	8	[4, 7, 2]	13	PAL1	1	R1283T
1426.059	3.684	1435108	PROB	3647	-999	-999	n/a	n/a	n/a	n/a	8	[3, 1, 8]	12	PAL1	1	R1283T
1429.743	2.817	1438791	PROB	2779	-999	-999	n/a	n/a	n/a	n/a	8	[3, 1, 5]	9	PAL1	1	R1283T
1432.56	1.901	1441608	PROB	1876	-999	-999	n/a	n/a	n/a	n/a	8	[6, 2, 4]	12	PAL1	1	R1283T
1434.461	2.6	1443509	PROB	2565	-999	-999	n/a	n/a	n/a	n/a	8	[5, 4, 3]	12	PAL1	1	R1283T
1437.061	1.918	1446109	PROB	1918	-999	-999	n/a	n/a	n/a	n/a	8	[5, 5, 1]	11	PAL1	1	R1283T
1438.979	0.015	1448027	STOP	n/a	-999	-999	n/a	n/a	n/a	n/a	8	[-999, -999, -999]	-999	PAL1	1	R1283T
1438.994	0.001	1448042	MATH_END	n/a	-999	-999	n/a	n/a	n/a	n/a	7	[0, 0, 0]	-999	PAL1	1	R1283T
1438.995	0.016	1448043	RECALL_START	n/a	-999	-999	n/a	n/a	n/a	n/a	7	[0, 0, 0]	-999	PAL1	1	R1283T
1439.011	0.268	1448059	TEST_ORIENT	n/a	5	1	BEAR	n/a	BEAR	SKUNK	7	[0, 0, 0]	-999	PAL1	1	R1283T
1439.279	0.666	1448327	RETRIEVAL_ORIENT_OFF	n/a	-999	-999	n/a	n/a	n/a	n/a	7	[0, 0, 0]	-999	PAL1	1	R1283T
1439.945	0.0	1448993	TEST_PROBE	n/a	5	1	BEAR	n/a	BEAR	SKUNK	7	[0, 0, 0]	-999	PAL1	1	R1283T
1439.945	4.017	1448993	REC_START	n/a	5	-999	n/a	n/a	n/a	n/a	7	[0, 0, 0]	-999	PAL1	1	R1283T
1443.962	1.001	1453010	PROBE_OFF	n/a	5	-999	n/a	n/a	n/a	n/a	7	[0, 0, 0]	-999	PAL1	1	R1283T
1444.963	0.016	1454010	REC_END	n/a	5	-999	n/a	n/a	n/a	n/a	7	[0, 0, 0]	-999	PAL1	1	R1283T
1444.979	0.268	1454026	TEST_ORIENT	n/a	6	2	VASE	PLANE	PLANE	VASE	7	[0, 0, 0]	-999	PAL1	1	R1283T
1445.247	0.599	1454294	RETRIEVAL_ORIENT_OFF	n/a	5	-999	n/a	n/a	n/a	n/a	7	[0, 0, 0]	-999	PAL1	1	R1283T
1445.846	0.0	1454893	REC_START	n/a	6	-999	n/a	PLANE	n/a	n/a	7	[0, 0, 0]	-999	PAL1	1	R1283T
1445.846	1.221	1454893	TEST_PROBE	n/a	6	2	VASE	PLANE	PLANE	VASE	7	[0, 0, 0]	-999	PAL1	1	R1283T
1447.067	2.796	1456114	REC_EVENT	1221	6	2	VASE	PLANE	PLANE	VASE	7	[0, 0, 0]	-999	PAL1	1	R1283T
1449.863	1.0	1458910	PROBE_OFF	n/a	6	-999	n/a	n/a	n/a	n/a	7	[0, 0, 0]	-999	PAL1	1	R1283T
1450.863	0.017	1459910	REC_END	n/a	6	-999	n/a	n/a	n/a	n/a	7	[0, 0, 0]	-999	PAL1	1	R1283T
1450.88	0.267	1459927	TEST_ORIENT	n/a	3	3	SINK	CROWN	SINK	CROWN	7	[0, 0, 0]	-999	PAL1	1	R1283T
1451.147	0.583	1460194	RETRIEVAL_ORIENT_OFF	n/a	6	-999	n/a	n/a	n/a	n/a	7	[0, 0, 0]	-999	PAL1	1	R1283T
1451.73	0.001	1460777	TEST_PROBE	n/a	3	3	SINK	CROWN	SINK	CROWN	7	[0, 0, 0]	-999	PAL1	1	R1283T
1451.731	1.127	1460778	REC_START	n/a	3	-999	n/a	CROWN	n/a	n/a	7	[0, 0, 0]	-999	PAL1	1	R1283T
1452.858	2.889	1461905	REC_EVENT	1127	3	3	SINK	CROWN	SINK	CROWN	7	[0, 0, 0]	-999	PAL1	1	R1283T
1455.747	1.0	1464794	PROBE_OFF	n/a	3	-999	n/a	n/a	n/a	n/a	7	[0, 0, 0]	-999	PAL1	1	R1283T
1456.747	0.017	1465794	REC_END	n/a	3	-999	n/a	n/a	n/a	n/a	7	[0, 0, 0]	-999	PAL1	1	R1283T
1456.764	0.267	1465811	TEST_ORIENT	n/a	2	4	CAPE	GRAPE	CAPE	GRAPE	7	[0, 0, 0]	-999	PAL1	1	R1283T
1457.031	0.55	1466078	RETRIEVAL_ORIENT_OFF	n/a	3	-999	n/a	n/a	n/a	n/a	7	[0, 0, 0]	-999	PAL1	1	R1283T
1457.581	0.001	1466628	TEST_PROBE	n/a	2	4	CAPE	GRAPE	CAPE	GRAPE	7	[0, 0, 0]	-999	PAL1	1	R1283T
1457.582	4.017	1466629	REC_START	n/a	2	-999	n/a	GRAPE	n/a	n/a	7	[0, 0, 0]	-999	PAL1	1	R1283T
1461.599	0.378	1470645	PROBE_OFF	n/a	2	-999	n/a	n/a	n/a	n/a	7	[0, 0, 0]	-999	PAL1	1	R1283T
1461.977	0.634	1471023	REC_EVENT	4395	2	4	CAPE	GRAPE	CAPE	GRAPE	7	[0, 0, 0]	-999	PAL1	1	R1283T
1462.611	0.021	1471657	REC_END	n/a	2	-999	n/a	n/a	n/a	n/a	7	[0, 0, 0]	-999	PAL1	1	R1283T
1462.632	0.267	1471678	TEST_ORIENT	n/a	1	5	HAND	n/a	HOOK	HAND	7	[0, 0, 0]	-999	PAL1	1	R1283T
1462.899	0.584	1471945	RETRIEVAL_ORIENT_OFF	n/a	2	-999	n/a	n/a	n/a	n/a	7	[0, 0, 0]	-999	PAL1	1	R1283T
1463.483	0.001	1472529	TEST_PROBE	n/a	1	5	HAND	n/a	HOOK	HAND	7	[0, 0, 0]	-999	PAL1	1	R1283T
1463.484	4.016	1472530	REC_START	n/a	1	-999	n/a	n/a	n/a	n/a	7	[0, 0, 0]	-999	PAL1	1	R1283T
1467.5	1.01	1476546	PROBE_OFF	n/a	1	-999	n/a	n/a	n/a	n/a	7	[0, 0, 0]	-999	PAL1	1	R1283T
1468.51	0.001	1477556	REC_END	n/a	1	-999	n/a	n/a	n/a	n/a	7	[0, 0, 0]	-999	PAL1	1	R1283T
1468.511	0.005	1477557	REC_EVENT	5027	1	5	HAND	<>	HOOK	HAND	7	[0, 0, 0]	-999	PAL1	1	R1283T
1468.516	0.267	1477562	TEST_ORIENT	n/a	4	6	CART	MAT	CART	MAP	7	[0, 0, 0]	-999	PAL1	1	R1283T
1468.783	0.518	1477829	RETRIEVAL_ORIENT_OFF	n/a	1	-999	n/a	n/a	n/a	n/a	7	[0, 0, 0]	-999	PAL1	1	R1283T
1469.301	0.0	1478347	TEST_PROBE	n/a	4	6	CART	MAT	CART	MAP	7	[0, 0, 0]	-999	PAL1	1	R1283T
1469.301	1.367	1478347	REC_START	n/a	4	-999	n/a	MAT	n/a	n/a	7	[0, 0, 0]	-999	PAL1	1	R1283T
1470.668	2.65	1479714	REC_EVENT	1367	4	6	CART	MAT	CART	MAP	7	[0, 0, 0]	-999	PAL1	1	R1283T
1473.318	1.0	1482364	PROBE_OFF	n/a	4	-999	n/a	n/a	n/a	n/a	7	[0, 0, 0]	-999	PAL1	1	R1283T
1474.318	0.009	1483364	REC_END	n/a	4	-999	n/a	n/a	n/a	n/a	7	[0, 0, 0]	-999	PAL1	1	R1283T
1474.327	6.475	1483373	RECALL_END	n/a	-999	-999	n/a	n/a	n/a	n/a	7	[0, 0, 0]	-999	PAL1	1	R1283T
1480.802	10.929	1489847	TRIAL	n/a	-999	-999	n/a	n/a	n/a	n/a	8	[0, 0, 0]	-999	PAL1	1	R1283T
1491.731	0.006	1500776	ENCODING_START	n/a	-999	-999	n/a	n/a	n/a	n/a	8	[0, 0, 0]	-999	PAL1	1	R1283T
1491.737	0.267	1500782	STUDY_ORIENT	n/a	1	5	FENCE	BOWL	FENCE	BOWL	8	[0, 0, 0]	-999	PAL1	1	R1283T
1492.004	0.667	1501049	STUDY_ORIENT_OFF	n/a	1	5	FENCE	BOWL	FENCE	BOWL	8	[0, 0, 0]	-999	PAL1	1	R1283T
1492.671	4.017	1501716	STUDY_PAIR	n/a	1	5	FENCE	BOWL	FENCE	BOWL	8	[0, 0, 0]	-999	PAL1	1	R1283T
1496.688	1.017	1505732	PAIR_OFF	n/a	1	5	FENCE	BOWL	FENCE	BOWL	8	[0, 0, 0]	-999	PAL1	1	R1283T
1497.705	0.267	1506749	STUDY_ORIENT	n/a	2	2	KITE	n/a	KITE	SIGN	8	[0, 0, 0]	-999	PAL1	1	R1283T
1497.972	0.567	1507016	STUDY_ORIENT_OFF	n/a	2	2	KITE	n/a	KITE	SIGN	8	[0, 0, 0]	-999	PAL1	1	R1283T
1498.539	4.017	1507583	STUDY_PAIR	n/a	2	2	KITE	n/a	KITE	SIGN	8	[0, 0, 0]	-999	PAL1	1	R1283T
1502.556	1.017	1511600	PAIR_OFF	n/a	2	2	KITE	n/a	KITE	SIGN	8	[0, 0, 0]	-999	PAL1	1	R1283T
1503.573	0.267	1512617	STUDY_ORIENT	n/a	3	1	CUP	n/a	FLAME	CUP	8	[0, 0, 0]	-999	PAL1	1	R1283T
1503.84	0.551	1512884	STUDY_ORIENT_OFF	n/a	3	1	CUP	n/a	FLAME	CUP	8	[0, 0, 0]	-999	PAL1	1	R1283T
1504.391	4.017	1513435	STUDY_PAIR	n/a	3	1	CUP	n/a	FLAME	CUP	8	[0, 0, 0]	-999	PAL1	1	R1283T
1508.408	1.017	1517452	PAIR_OFF	n/a	3	1	CUP	n/a	FLAME	CUP	8	[0, 0, 0]	-999	PAL1	1	R1283T
1509.425	0.266	1518469	STUDY_ORIENT	n/a	4	4	TEA	n/a	FRUIT	TEA	8	[0, 0, 0]	-999	PAL1	1	R1283T
1509.691	0.701	1518735	STUDY_ORIENT_OFF	n/a	4	4	TEA	n/a	FRUIT	TEA	8	[0, 0, 0]	-999	PAL1	1	R1283T
1510.392	4.017	1519436	STUDY_PAIR	n/a	4	4	TEA	n/a	FRUIT	TEA	8	[0, 0, 0]	-999	PAL1	1	R1283T
1514.409	1.017	1523452	PAIR_OFF	n/a	4	4	TEA	n/a	FRUIT	TEA	8	[0, 0, 0]	-999	PAL1	1	R1283T
1515.426	0.266	1524469	STUDY_ORIENT	n/a	5	3	TOY	BENCH	TOY	BENCH	8	[0, 0, 0]	-999	PAL1	1	R1283T
1515.692	0.517	1524735	STUDY_ORIENT_OFF	n/a	5	3	TOY	BENCH	TOY	BENCH	8	[0, 0, 0]	-999	PAL1	1	R1283T
1516.209	4.017	1525252	STUDY_PAIR	n/a	5	3	TOY	BENCH	TOY	BENCH	8	[0, 0, 0]	-999	PAL1	1	R1283T
1520.226	1.018	1529269	PAIR_OFF	n/a	5	3	TOY	BENCH	TOY	BENCH	8	[0, 0, 0]	-999	PAL1	1	R1283T
1521.244	0.265	1530287	STUDY_ORIENT	n/a	6	6	SOAP	FLAME	FARM	SOAP	8	[0, 0, 0]	-999	PAL1	1	R1283T
1521.509	0.651	1530552	STUDY_ORIENT_OFF	n/a	6	6	SOAP	FLAME	FARM	SOAP	8	[0, 0, 0]	-999	PAL1	1	R1283T
1522.16	4.017	1531203	STUDY_PAIR	n/a	6	6	SOAP	FLAME	FARM	SOAP	8	[0, 0, 0]	-999	PAL1	1	R1283T
1526.177	1.001	1535220	PAIR_OFF	n/a	6	6	SOAP	FLAME	FARM	SOAP	8	[0, 0, 0]	-999	PAL1	1	R1283T
1527.178	0.0	1536221	ENCODING_END	n/a	-999	-999	n/a	n/a	n/a	n/a	8	[0, 0, 0]	-999	PAL1	1	R1283T
1527.178	0.0	1536221	MATH_START	n/a	-999	-999	n/a	n/a	n/a	n/a	8	[0, 0, 0]	-999	PAL1	1	R1283T
1527.178	0.016	1536221	START	n/a	-999	-999	n/a	n/a	n/a	n/a	9	[-999, -999, -999]	-999	PAL1	1	R1283T
1527.194	5.202	1536237	PROB	5177	-999	-999	n/a	n/a	n/a	n/a	9	[4, 8, 1]	13	PAL1	1	R1283T
1532.396	2.917	1541438	PROB	2880	-999	-999	n/a	n/a	n/a	n/a	9	[7, 8, 2]	17	PAL1	1	R1283T
1535.313	4.566	1544355	PROB	4530	-999	-999	n/a	n/a	n/a	n/a	9	[2, 7, 4]	13	PAL1	1	R1283T
1539.879	2.651	1548921	PROB	2619	-999	-999	n/a	n/a	n/a	n/a	9	[9, 8, 2]	19	PAL1	1	R1283T
1542.53	3.384	1551572	PROB	3360	-999	-999	n/a	n/a	n/a	n/a	9	[2, 6, 9]	17	PAL1	1	R1283T
1545.914	5.304	1554955	PROB	5304	-999	-999	n/a	n/a	n/a	n/a	9	[2, 7, 3]	12	PAL1	1	R1283T
1551.218	0.015	1560259	STOP	n/a	-999	-999	n/a	n/a	n/a	n/a	9	[-999, -999, -999]	-999	PAL1	1	R1283T
1551.233	0.0	1560274	MATH_END	n/a	-999	-999	n/a	n/a	n/a	n/a	8	[0, 0, 0]	-999	PAL1	1	R1283T
1551.233	0.016	1560274	RECALL_START	n/a	-999	-999	n/a	n/a	n/a	n/a	8	[0, 0, 0]	-999	PAL1	1	R1283T
1551.249	0.266	1560290	TEST_ORIENT	n/a	3	1	CUP	n/a	FLAME	CUP	8	[0, 0, 0]	-999	PAL1	1	R1283T
1551.515	0.683	1560556	RETRIEVAL_ORIENT_OFF	n/a	-999	-999	n/a	n/a	n/a	n/a	8	[0, 0, 0]	-999	PAL1	1	R1283T
1552.198	0.001	1561239	TEST_PROBE	n/a	3	1	CUP	n/a	FLAME	CUP	8	[0, 0, 0]	-999	PAL1	1	R1283T
1552.199	4.017	1561240	REC_START	n/a	3	-999	n/a	n/a	n/a	n/a	8	[0, 0, 0]	-999	PAL1	1	R1283T
1556.216	0.998	1565257	PROBE_OFF	n/a	3	-999	n/a	n/a	n/a	n/a	8	[0, 0, 0]	-999	PAL1	1	R1283T
1557.214	0.002	1566255	REC_EVENT	5015	3	1	CUP	<>	FLAME	CUP	8	[0, 0, 0]	-999	PAL1	1	R1283T
1557.216	0.018	1566257	REC_END	n/a	3	-999	n/a	n/a	n/a	n/a	8	[0, 0, 0]	-999	PAL1	1	R1283T
1557.234	0.265	1566275	TEST_ORIENT	n/a	2	2	KITE	n/a	KITE	SIGN	8	[0, 0, 0]	-999	PAL1	1	R1283T
1557.499	0.634	1566540	RETRIEVAL_ORIENT_OFF	n/a	3	-999	n/a	n/a	n/a	n/a	8	[0, 0, 0]	-999	PAL1	1	R1283T
1558.133	0.001	1567174	TEST_PROBE	n/a	2	2	KITE	n/a	KITE	SIGN	8	[0, 0, 0]	-999	PAL1	1	R1283T
1558.134	4.016	1567175	REC_START	n/a	2	-999	n/a	n/a	n/a	n/a	8	[0, 0, 0]	-999	PAL1	1	R1283T
1562.15	0.999	1571190	PROBE_OFF	n/a	2	-999	n/a	n/a	n/a	n/a	8	[0, 0, 0]	-999	PAL1	1	R1283T
1563.149	0.001	1572189	REC_EVENT	5015	2	2	KITE	<>	KITE	SIGN	8	[0, 0, 0]	-999	PAL1	1	R1283T
1563.15	0.017	1572190	REC_END	n/a	2	-999	n/a	n/a	n/a	n/a	8	[0, 0, 0]	-999	PAL1	1	R1283T
1563.167	0.268	1572207	TEST_ORIENT	n/a	5	3	TOY	BENCH	TOY	BENCH	8	[0, 0, 0]	-999	PAL1	1	R1283T
1563.435	0.749	1572475	RETRIEVAL_ORIENT_OFF	n/a	2	-999	n/a	n/a	n/a	n/a	8	[0, 0, 0]	-999	PAL1	1	R1283T
1564.184	0.0	1573224	TEST_PROBE	n/a	5	3	TOY	BENCH	TOY	BENCH	8	[0, 0, 0]	-999	PAL1	1	R1283T
1564.184	1.456	1573224	REC_START	n/a	5	-999	n/a	BENCH	n/a	n/a	8	[0, 0, 0]	-999	PAL1	1	R1283T
1565.64	2.561	1574680	REC_EVENT	1456	5	3	TOY	BENCH	TOY	BENCH	8	[0, 0, 0]	-999	PAL1	1	R1283T
1568.201	1.001	1577241	PROBE_OFF	n/a	5	-999	n/a	n/a	n/a	n/a	8	[0, 0, 0]	-999	PAL1	1	R1283T
1569.202	0.016	1578242	REC_END	n/a	5	-999	n/a	n/a	n/a	n/a	8	[0, 0, 0]	-999	PAL1	1	R1283T
1569.218	0.268	1578258	TEST_ORIENT	n/a	4	4	TEA	n/a	FRUIT	TEA	8	[0, 0, 0]	-999	PAL1	1	R1283T
1569.486	0.532	1578526	RETRIEVAL_ORIENT_OFF	n/a	5	-999	n/a	n/a	n/a	n/a	8	[0, 0, 0]	-999	PAL1	1	R1283T
1570.018	0.001	1579058	TEST_PROBE	n/a	4	4	TEA	n/a	FRUIT	TEA	8	[0, 0, 0]	-999	PAL1	1	R1283T
1570.019	4.017	1579059	REC_START	n/a	4	-999	n/a	n/a	n/a	n/a	8	[0, 0, 0]	-999	PAL1	1	R1283T
1574.036	1.012	1583076	PROBE_OFF	n/a	4	-999	n/a	n/a	n/a	n/a	8	[0, 0, 0]	-999	PAL1	1	R1283T
1575.048	0.003	1584088	REC_END	n/a	4	-999	n/a	n/a	n/a	n/a	8	[0, 0, 0]	-999	PAL1	1	R1283T
1575.051	0.018	1584091	REC_EVENT	5032	4	4	TEA	<>	FRUIT	TEA	8	[0, 0, 0]	-999	PAL1	1	R1283T
1575.069	0.268	1584109	TEST_ORIENT	n/a	1	5	FENCE	BOWL	FENCE	BOWL	8	[0, 0, 0]	-999	PAL1	1	R1283T
1575.337	0.716	1584377	RETRIEVAL_ORIENT_OFF	n/a	4	-999	n/a	n/a	n/a	n/a	8	[0, 0, 0]	-999	PAL1	1	R1283T
1576.053	0.0	1585093	TEST_PROBE	n/a	1	5	FENCE	BOWL	FENCE	BOWL	8	[0, 0, 0]	-999	PAL1	1	R1283T
1576.053	1.844	1585093	REC_START	n/a	1	-999	n/a	BOWL	n/a	n/a	8	[0, 0, 0]	-999	PAL1	1	R1283T
1577.897	2.173	1586936	REC_EVENT	1844	1	5	FENCE	BOWL	FENCE	BOWL	8	[0, 0, 0]	-999	PAL1	1	R1283T
1580.07	1.001	1589109	PROBE_OFF	n/a	1	-999	n/a	n/a	n/a	n/a	8	[0, 0, 0]	-999	PAL1	1	R1283T
1581.071	0.016	1590110	REC_END	n/a	1	-999	n/a	n/a	n/a	n/a	8	[0, 0, 0]	-999	PAL1	1	R1283T
1581.087	0.268	1590126	TEST_ORIENT	n/a	6	6	SOAP	FLAME	FARM	SOAP	8	[0, 0, 0]	-999	PAL1	1	R1283T
1581.355	0.716	1590394	RETRIEVAL_ORIENT_OFF	n/a	1	-999	n/a	n/a	n/a	n/a	8	[0, 0, 0]	-999	PAL1	1	R1283T
1582.071	0.0	1591110	TEST_PROBE	n/a	6	6	SOAP	FLAME	FARM	SOAP	8	[0, 0, 0]	-999	PAL1	1	R1283T
1582.071	2.072	1591110	REC_START	n/a	6	-999	n/a	FLAME	n/a	n/a	8	[0, 0, 0]	-999	PAL1	1	R1283T
1584.143	1.945	1593182	REC_EVENT	2072	6	6	SOAP	FLAME	FARM	SOAP	8	[0, 0, 0]	-999	PAL1	1	R1283T
1586.088	1.0	1595127	PROBE_OFF	n/a	6	-999	n/a	n/a	n/a	n/a	8	[0, 0, 0]	-999	PAL1	1	R1283T
1587.088	0.011	1596127	REC_END	n/a	6	-999	n/a	n/a	n/a	n/a	8	[0, 0, 0]	-999	PAL1	1	R1283T
1587.099	3.84	1596138	RECALL_END	n/a	-999	-999	n/a	n/a	n/a	n/a	8	[0, 0, 0]	-999	PAL1	1	R1283T
1590.939	10.929	1599978	TRIAL	n/a	-999	-999	n/a	n/a	n/a	n/a	9	[0, 0, 0]	-999	PAL1	1	R1283T
1601.868	0.006	1610906	ENCODING_START	n/a	-999	-999	n/a	n/a	n/a	n/a	9	[0, 0, 0]	-999	PAL1	1	R1283T
1601.874	0.267	1610912	STUDY_ORIENT	n/a	1	5	BOY	LEAF	BOY	LEAF	9	[0, 0, 0]	-999	PAL1	1	R1283T
1602.141	0.617	1611179	STUDY_ORIENT_OFF	n/a	1	5	BOY	LEAF	BOY	LEAF	9	[0, 0, 0]	-999	PAL1	1	R1283T
1602.758	4.017	1611796	STUDY_PAIR	n/a	1	5	BOY	LEAF	BOY	LEAF	9	[0, 0, 0]	-999	PAL1	1	R1283T
1606.775	1.017	1615813	PAIR_OFF	n/a	1	5	BOY	LEAF	BOY	LEAF	9	[0, 0, 0]	-999	PAL1	1	R1283T
1607.792	0.267	1616830	STUDY_ORIENT	n/a	2	2	TRASH	n/a	TRASH	FOOT	9	[0, 0, 0]	-999	PAL1	1	R1283T
1608.059	0.566	1617097	STUDY_ORIENT_OFF	n/a	2	2	TRASH	n/a	TRASH	FOOT	9	[0, 0, 0]	-999	PAL1	1	R1283T
1608.625	4.001	1617663	STUDY_PAIR	n/a	2	2	TRASH	n/a	TRASH	FOOT	9	[0, 0, 0]	-999	PAL1	1	R1283T
1612.626	1.017	1621663	PAIR_OFF	n/a	2	2	TRASH	n/a	TRASH	FOOT	9	[0, 0, 0]	-999	PAL1	1	R1283T
1613.643	0.267	1622680	STUDY_ORIENT	n/a	3	3	OAK	n/a	FOOD	OAK	9	[0, 0, 0]	-999	PAL1	1	R1283T
1613.91	0.6	1622947	STUDY_ORIENT_OFF	n/a	3	3	OAK	n/a	FOOD	OAK	9	[0, 0, 0]	-999	PAL1	1	R1283T
1614.51	4.017	1623547	STUDY_PAIR	n/a	3	3	OAK	n/a	FOOD	OAK	9	[0, 0, 0]	-999	PAL1	1	R1283T
1618.527	1.017	1627564	PAIR_OFF	n/a	3	3	OAK	n/a	FOOD	OAK	9	[0, 0, 0]	-999	PAL1	1	R1283T
1619.544	0.267	1628581	STUDY_ORIENT	n/a	4	4	SNOW	MOON	MOON	SNOW	9	[0, 0, 0]	-999	PAL1	1	R1283T
1619.811	0.7	1628848	STUDY_ORIENT_OFF	n/a	4	4	SNOW	MOON	MOON	SNOW	9	[0, 0, 0]	-999	PAL1	1	R1283T
1620.511	4.017	1629548	STUDY_PAIR	n/a	4	4	SNOW	MOON	MOON	SNOW	9	[0, 0, 0]	-999	PAL1	1	R1283T
1624.528	1.017	1633565	PAIR_OFF	n/a	4	4	SNOW	MOON	MOON	SNOW	9	[0, 0, 0]	-999	PAL1	1	R1283T
1625.545	0.267	1634582	STUDY_ORIENT	n/a	5	1	GOAT	n/a	GOAT	FOX	9	[0, 0, 0]	-999	PAL1	1	R1283T
1625.812	0.617	1634849	STUDY_ORIENT_OFF	n/a	5	1	GOAT	n/a	GOAT	FOX	9	[0, 0, 0]	-999	PAL1	1	R1283T
1626.429	4.001	1635466	STUDY_PAIR	n/a	5	1	GOAT	n/a	GOAT	FOX	9	[0, 0, 0]	-999	PAL1	1	R1283T
1630.43	1.017	1639466	PAIR_OFF	n/a	5	1	GOAT	n/a	GOAT	FOX	9	[0, 0, 0]	-999	PAL1	1	R1283T
1631.447	0.266	1640483	STUDY_ORIENT	n/a	6	6	THREAD	n/a	KEY	THREAD	9	[0, 0, 0]	-999	PAL1	1	R1283T
1631.713	0.768	1640749	STUDY_ORIENT_OFF	n/a	6	6	THREAD	n/a	KEY	THREAD	9	[0, 0, 0]	-999	PAL1	1	R1283T
1632.481	4.016	1641517	STUDY_PAIR	n/a	6	6	THREAD	n/a	KEY	THREAD	9	[0, 0, 0]	-999	PAL1	1	R1283T
1636.497	1.001	1645533	PAIR_OFF	n/a	6	6	THREAD	n/a	KEY	THREAD	9	[0, 0, 0]	-999	PAL1	1	R1283T
1637.498	0.0	1646534	MATH_START	n/a	-999	-999	n/a	n/a	n/a	n/a	9	[0, 0, 0]	-999	PAL1	1	R1283T
1637.498	0.0	1646534	ENCODING_END	n/a	-999	-999	n/a	n/a	n/a	n/a	9	[0, 0, 0]	-999	PAL1	1	R1283T
1637.498	0.016	1646534	START	n/a	-999	-999	n/a	n/a	n/a	n/a	10	[-999, -999, -999]	-999	PAL1	1	R1283T
1637.514	5.068	1646550	PROB	5033	-999	-999	n/a	n/a	n/a	n/a	10	[2, 3, 2]	7	PAL1	1	R1283T
1642.582	2.3	1651618	PROB	2269	-999	-999	n/a	n/a	n/a	n/a	10	[2, 1, 9]	12	PAL1	1	R1283T
1644.882	4.267	1653917	PROB	4240	-999	-999	n/a	n/a	n/a	n/a	10	[1, 8, 3]	12	PAL1	1	R1283T
1649.149	4.034	1658184	PROB	4005	-999	-999	n/a	n/a	n/a	n/a	10	[6, 3, 3]	12	PAL1	1	R1283T
1653.183	3.384	1662218	PROB	3347	-999	-999	n/a	n/a	n/a	n/a	10	[3, 5, 8]	16	PAL1	1	R1283T
1656.567	2.668	1665602	PROB	2668	-999	-999	n/a	n/a	n/a	n/a	10	[1, 4, 8]	15	PAL1	1	R1283T
1659.235	0.017	1668270	STOP	n/a	-999	-999	n/a	n/a	n/a	n/a	10	[-999, -999, -999]	-999	PAL1	1	R1283T
1659.252	0.0	1668287	MATH_END	n/a	-999	-999	n/a	n/a	n/a	n/a	9	[0, 0, 0]	-999	PAL1	1	R1283T
1659.252	0.017	1668287	RECALL_START	n/a	-999	-999	n/a	n/a	n/a	n/a	9	[0, 0, 0]	-999	PAL1	1	R1283T
1659.269	0.266	1668304	TEST_ORIENT	n/a	5	1	GOAT	n/a	GOAT	FOX	9	[0, 0, 0]	-999	PAL1	1	R1283T
1659.535	0.533	1668570	RETRIEVAL_ORIENT_OFF	n/a	-999	-999	n/a	n/a	n/a	n/a	9	[0, 0, 0]	-999	PAL1	1	R1283T
1660.068	0.001	1669103	TEST_PROBE	n/a	5	1	GOAT	n/a	GOAT	FOX	9	[0, 0, 0]	-999	PAL1	1	R1283T
1660.069	4.016	1669104	REC_START	n/a	5	-999	n/a	n/a	n/a	n/a	9	[0, 0, 0]	-999	PAL1	1	R1283T
1664.085	0.999	1673119	PROBE_OFF	n/a	5	-999	n/a	n/a	n/a	n/a	9	[0, 0, 0]	-999	PAL1	1	R1283T
1665.084	0.001	1674118	REC_EVENT	5015	5	1	GOAT	<>	GOAT	FOX	9	[0, 0, 0]	-999	PAL1	1	R1283T
1665.085	0.017	1674119	REC_END	n/a	5	-999	n/a	n/a	n/a	n/a	9	[0, 0, 0]	-999	PAL1	1	R1283T
1665.102	0.268	1674136	TEST_ORIENT	n/a	2	2	TRASH	n/a	TRASH	FOOT	9	[0, 0, 0]	-999	PAL1	1	R1283T
1665.37	0.532	1674404	RETRIEVAL_ORIENT_OFF	n/a	5	-999	n/a	n/a	n/a	n/a	9	[0, 0, 0]	-999	PAL1	1	R1283T
1665.902	0.001	1674936	TEST_PROBE	n/a	2	2	TRASH	n/a	TRASH	FOOT	9	[0, 0, 0]	-999	PAL1	1	R1283T
1665.903	4.017	1674937	REC_START	n/a	2	-999	n/a	n/a	n/a	n/a	9	[0, 0, 0]	-999	PAL1	1	R1283T
1669.92	0.998	1678954	PROBE_OFF	n/a	2	-999	n/a	n/a	n/a	n/a	9	[0, 0, 0]	-999	PAL1	1	R1283T
1670.918	0.002	1679952	REC_EVENT	5015	2	2	TRASH	<>	TRASH	FOOT	9	[0, 0, 0]	-999	PAL1	1	R1283T
1670.92	0.017	1679954	REC_END	n/a	2	-999	n/a	n/a	n/a	n/a	9	[0, 0, 0]	-999	PAL1	1	R1283T
1670.937	0.266	1679971	TEST_ORIENT	n/a	3	3	OAK	n/a	FOOD	OAK	9	[0, 0, 0]	-999	PAL1	1	R1283T
1671.203	0.534	1680237	RETRIEVAL_ORIENT_OFF	n/a	2	-999	n/a	n/a	n/a	n/a	9	[0, 0, 0]	-999	PAL1	1	R1283T
1671.737	0.0	1680771	TEST_PROBE	n/a	3	3	OAK	n/a	FOOD	OAK	9	[0, 0, 0]	-999	PAL1	1	R1283T
1671.737	4.017	1680771	REC_START	n/a	3	-999	n/a	n/a	n/a	n/a	9	[0, 0, 0]	-999	PAL1	1	R1283T
1675.754	0.998	1684788	PROBE_OFF	n/a	3	-999	n/a	n/a	n/a	n/a	9	[0, 0, 0]	-999	PAL1	1	R1283T
1676.752	0.002	1685786	REC_EVENT	5015	3	3	OAK	<>	FOOD	OAK	9	[0, 0, 0]	-999	PAL1	1	R1283T
1676.754	0.017	1685788	REC_END	n/a	3	-999	n/a	n/a	n/a	n/a	9	[0, 0, 0]	-999	PAL1	1	R1283T
1676.771	0.267	1685805	TEST_ORIENT	n/a	4	4	SNOW	MOON	MOON	SNOW	9	[0, 0, 0]	-999	PAL1	1	R1283T
1677.038	0.666	1686072	RETRIEVAL_ORIENT_OFF	n/a	3	-999	n/a	n/a	n/a	n/a	9	[0, 0, 0]	-999	PAL1	1	R1283T
1677.704	0.001	1686737	TEST_PROBE	n/a	4	4	SNOW	MOON	MOON	SNOW	9	[0, 0, 0]	-999	PAL1	1	R1283T
1677.705	1.498	1686738	REC_START	n/a	4	-999	n/a	MOON	n/a	n/a	9	[0, 0, 0]	-999	PAL1	1	R1283T
1679.203	2.502	1688236	REC_EVENT	1498	4	4	SNOW	MOON	MOON	SNOW	9	[0, 0, 0]	-999	PAL1	1	R1283T
1681.705	1.001	1690738	PROBE_OFF	n/a	4	-999	n/a	n/a	n/a	n/a	9	[0, 0, 0]	-999	PAL1	1	R1283T
1682.706	0.016	1691739	REC_END	n/a	4	-999	n/a	n/a	n/a	n/a	9	[0, 0, 0]	-999	PAL1	1	R1283T
1682.722	0.267	1691755	TEST_ORIENT	n/a	1	5	BOY	LEAF	BOY	LEAF	9	[0, 0, 0]	-999	PAL1	1	R1283T
1682.989	0.65	1692022	RETRIEVAL_ORIENT_OFF	n/a	4	-999	n/a	n/a	n/a	n/a	9	[0, 0, 0]	-999	PAL1	1	R1283T
1683.639	0.001	1692672	TEST_PROBE	n/a	1	5	BOY	LEAF	BOY	LEAF	9	[0, 0, 0]	-999	PAL1	1	R1283T
1683.64	4.016	1692673	REC_START	n/a	1	-999	n/a	LEAF	n/a	n/a	9	[0, 0, 0]	-999	PAL1	1	R1283T
1687.656	0.268	1696689	PROBE_OFF	n/a	1	-999	n/a	n/a	n/a	n/a	9	[0, 0, 0]	-999	PAL1	1	R1283T
1687.924	0.732	1696957	REC_EVENT	4284	1	5	BOY	LEAF	BOY	LEAF	9	[0, 0, 0]	-999	PAL1	1	R1283T
1688.656	0.017	1697689	REC_END	n/a	1	-999	n/a	n/a	n/a	n/a	9	[0, 0, 0]	-999	PAL1	1	R1283T
1688.673	0.267	1697706	TEST_ORIENT	n/a	6	6	THREAD	n/a	KEY	THREAD	9	[0, 0, 0]	-999	PAL1	1	R1283T
1688.94	0.7	1697973	RETRIEVAL_ORIENT_OFF	n/a	1	-999	n/a	n/a	n/a	n/a	9	[0, 0, 0]	-999	PAL1	1	R1283T
1689.64	0.001	1698673	TEST_PROBE	n/a	6	6	THREAD	n/a	KEY	THREAD	9	[0, 0, 0]	-999	PAL1	1	R1283T
1689.641	4.016	1698674	REC_START	n/a	6	-999	n/a	n/a	n/a	n/a	9	[0, 0, 0]	-999	PAL1	1	R1283T
1693.657	0.999	1702690	PROBE_OFF	n/a	6	-999	n/a	n/a	n/a	n/a	9	[0, 0, 0]	-999	PAL1	1	R1283T
1694.656	0.001	1703688	REC_EVENT	5015	6	6	THREAD	<>	KEY	THREAD	9	[0, 0, 0]	-999	PAL1	1	R1283T
1694.657	0.012	1703689	REC_END	n/a	6	-999	n/a	n/a	n/a	n/a	9	[0, 0, 0]	-999	PAL1	1	R1283T
1694.669	3.906	1703701	RECALL_END	n/a	-999	-999	n/a	n/a	n/a	n/a	9	[0, 0, 0]	-999	PAL1	1	R1283T
1698.575	10.929	1707607	TRIAL	n/a	-999	-999	n/a	n/a	n/a	n/a	10	[0, 0, 0]	-999	PAL1	1	R1283T
1709.504	0.006	1718536	ENCODING_START	n/a	-999	-999	n/a	n/a	n/a	n/a	10	[0, 0, 0]	-999	PAL1	1	R1283T
1709.51	0.267	1718542	STUDY_ORIENT	n/a	1	3	DUCK	LAMP	LAMP	DUCK	10	[0, 0, 0]	-999	PAL1	1	R1283T
1709.777	0.767	1718809	STUDY_ORIENT_OFF	n/a	1	3	DUCK	LAMP	LAMP	DUCK	10	[0, 0, 0]	-999	PAL1	1	R1283T
1710.544	4.017	1719576	STUDY_PAIR	n/a	1	3	DUCK	LAMP	LAMP	DUCK	10	[0, 0, 0]	-999	PAL1	1	R1283T
1714.561	1.017	1723592	PAIR_OFF	n/a	1	3	DUCK	LAMP	LAMP	DUCK	10	[0, 0, 0]	-999	PAL1	1	R1283T
1715.578	0.267	1724609	STUDY_ORIENT	n/a	2	4	ARM	n/a	ARM	TOAD	10	[0, 0, 0]	-999	PAL1	1	R1283T
1715.845	0.667	1724876	STUDY_ORIENT_OFF	n/a	2	4	ARM	n/a	ARM	TOAD	10	[0, 0, 0]	-999	PAL1	1	R1283T
1716.512	4.017	1725543	STUDY_PAIR	n/a	2	4	ARM	n/a	ARM	TOAD	10	[0, 0, 0]	-999	PAL1	1	R1283T
1720.529	1.017	1729560	PAIR_OFF	n/a	2	4	ARM	n/a	ARM	TOAD	10	[0, 0, 0]	-999	PAL1	1	R1283T
1721.546	0.267	1730577	STUDY_ORIENT	n/a	3	1	SHRIMP	PLATE	PLATE	SHRIMP	10	[0, 0, 0]	-999	PAL1	1	R1283T
1721.813	0.584	1730844	STUDY_ORIENT_OFF	n/a	3	1	SHRIMP	PLATE	PLATE	SHRIMP	10	[0, 0, 0]	-999	PAL1	1	R1283T
1722.397	4.017	1731428	STUDY_PAIR	n/a	3	1	SHRIMP	PLATE	PLATE	SHRIMP	10	[0, 0, 0]	-999	PAL1	1	R1283T
1726.414	1.017	1735445	PAIR_OFF	n/a	3	1	SHRIMP	PLATE	PLATE	SHRIMP	10	[0, 0, 0]	-999	PAL1	1	R1283T
1727.431	0.266	1736462	STUDY_ORIENT	n/a	4	2	FOG	BED	FOG	MUD	10	[0, 0, 0]	-999	PAL1	1	R1283T
1727.697	0.551	1736727	STUDY_ORIENT_OFF	n/a	4	2	FOG	BED	FOG	MUD	10	[0, 0, 0]	-999	PAL1	1	R1283T
1728.248	4.017	1737278	STUDY_PAIR	n/a	4	2	FOG	BED	FOG	MUD	10	[0, 0, 0]	-999	PAL1	1	R1283T
1732.265	1.017	1741295	PAIR_OFF	n/a	4	2	FOG	BED	FOG	MUD	10	[0, 0, 0]	-999	PAL1	1	R1283T
1733.282	0.266	1742312	STUDY_ORIENT	n/a	5	5	SHEEP	JAR	SHEEP	JAR	10	[0, 0, 0]	-999	PAL1	1	R1283T
1733.548	0.616	1742578	STUDY_ORIENT_OFF	n/a	5	5	SHEEP	JAR	SHEEP	JAR	10	[0, 0, 0]	-999	PAL1	1	R1283T
1734.164	4.001	1743194	STUDY_PAIR	n/a	5	5	SHEEP	JAR	SHEEP	JAR	10	[0, 0, 0]	-999	PAL1	1	R1283T
1738.165	1.017	1747195	PAIR_OFF	n/a	5	5	SHEEP	JAR	SHEEP	JAR	10	[0, 0, 0]	-999	PAL1	1	R1283T
1739.182	0.251	1748212	STUDY_ORIENT	n/a	6	6	BROOM	n/a	GUARD	BROOM	10	[0, 0, 0]	-999	PAL1	1	R1283T
1739.433	0.516	1748463	STUDY_ORIENT_OFF	n/a	6	6	BROOM	n/a	GUARD	BROOM	10	[0, 0, 0]	-999	PAL1	1	R1283T
1739.949	4.018	1748979	STUDY_PAIR	n/a	6	6	BROOM	n/a	GUARD	BROOM	10	[0, 0, 0]	-999	PAL1	1	R1283T
1743.967	1.0	1752997	PAIR_OFF	n/a	6	6	BROOM	n/a	GUARD	BROOM	10	[0, 0, 0]	-999	PAL1	1	R1283T
1744.967	0.0	1753996	ENCODING_END	n/a	-999	-999	n/a	n/a	n/a	n/a	10	[0, 0, 0]	-999	PAL1	1	R1283T
1744.967	0.001	1753996	MATH_START	n/a	-999	-999	n/a	n/a	n/a	n/a	10	[0, 0, 0]	-999	PAL1	1	R1283T
1744.968	0.015	1753997	START	n/a	-999	-999	n/a	n/a	n/a	n/a	11	[-999, -999, -999]	-999	PAL1	1	R1283T
1744.983	3.051	1754012	PROB	3019	-999	-999	n/a	n/a	n/a	n/a	11	[7, 2, 3]	12	PAL1	1	R1283T
1748.034	4.001	1757063	PROB	3968	-999	-999	n/a	n/a	n/a	n/a	11	[5, 2, 9]	16	PAL1	1	R1283T
1752.035	4.567	1761064	PROB	4543	-999	-999	n/a	n/a	n/a	n/a	11	[4, 5, 4]	13	PAL1	1	R1283T
1756.602	5.001	1765631	PROB	4969	-999	-999	n/a	n/a	n/a	n/a	11	[5, 9, 7]	22	PAL1	1	R1283T
1761.603	4.567	1770631	PROB	4567	-999	-999	n/a	n/a	n/a	n/a	11	[4, 4, 9]	17	PAL1	1	R1283T
1766.17	0.017	1775198	STOP	n/a	-999	-999	n/a	n/a	n/a	n/a	11	[-999, -999, -999]	-999	PAL1	1	R1283T
1766.187	0.001	1775215	MATH_END	n/a	-999	-999	n/a	n/a	n/a	n/a	10	[0, 0, 0]	-999	PAL1	1	R1283T
1766.188	0.016	1775216	RECALL_START	n/a	-999	-999	n/a	n/a	n/a	n/a	10	[0, 0, 0]	-999	PAL1	1	R1283T
1766.204	0.268	1775232	TEST_ORIENT	n/a	3	1	SHRIMP	PLATE	PLATE	SHRIMP	10	[0, 0, 0]	-999	PAL1	1	R1283T
1766.472	0.615	1775500	RETRIEVAL_ORIENT_OFF	n/a	-999	-999	n/a	n/a	n/a	n/a	10	[0, 0, 0]	-999	PAL1	1	R1283T
1767.087	0.001	1776115	TEST_PROBE	n/a	3	1	SHRIMP	PLATE	PLATE	SHRIMP	10	[0, 0, 0]	-999	PAL1	1	R1283T
1767.088	1.624	1776116	REC_START	n/a	3	-999	n/a	PLATE	n/a	n/a	10	[0, 0, 0]	-999	PAL1	1	R1283T
1768.712	2.393	1777740	REC_EVENT	1624	3	1	SHRIMP	PLATE	PLATE	SHRIMP	10	[0, 0, 0]	-999	PAL1	1	R1283T
1771.105	1.0	1780133	PROBE_OFF	n/a	3	-999	n/a	n/a	n/a	n/a	10	[0, 0, 0]	-999	PAL1	1	R1283T
1772.105	0.017	1781133	REC_END	n/a	3	-999	n/a	n/a	n/a	n/a	10	[0, 0, 0]	-999	PAL1	1	R1283T
1772.122	0.267	1781150	TEST_ORIENT	n/a	4	2	FOG	BED	FOG	MUD	10	[0, 0, 0]	-999	PAL1	1	R1283T
1772.389	0.533	1781417	RETRIEVAL_ORIENT_OFF	n/a	3	-999	n/a	n/a	n/a	n/a	10	[0, 0, 0]	-999	PAL1	1	R1283T
1772.922	0.0	1781950	TEST_PROBE	n/a	4	2	FOG	BED	FOG	MUD	10	[0, 0, 0]	-999	PAL1	1	R1283T
1772.922	3.105	1781950	REC_START	n/a	4	-999	n/a	BED	n/a	n/a	10	[0, 0, 0]	-999	PAL1	1	R1283T
1776.027	0.912	1785055	REC_EVENT	3105	4	2	FOG	BED	FOG	MUD	10	[0, 0, 0]	-999	PAL1	1	R1283T
1776.939	1.0	1785967	PROBE_OFF	n/a	4	-999	n/a	n/a	n/a	n/a	10	[0, 0, 0]	-999	PAL1	1	R1283T
1777.939	0.017	1786966	REC_END	n/a	4	-999	n/a	n/a	n/a	n/a	10	[0, 0, 0]	-999	PAL1	1	R1283T
1777.956	0.267	1786983	TEST_ORIENT	n/a	1	3	DUCK	LAMP	LAMP	DUCK	10	[0, 0, 0]	-999	PAL1	1	R1283T
1778.223	0.683	1787250	RETRIEVAL_ORIENT_OFF	n/a	4	-999	n/a	n/a	n/a	n/a	10	[0, 0, 0]	-999	PAL1	1	R1283T
1778.906	0.001	1787933	TEST_PROBE	n/a	1	3	DUCK	LAMP	LAMP	DUCK	10	[0, 0, 0]	-999	PAL1	1	R1283T
1778.907	1.998	1787934	REC_START	n/a	1	-999	n/a	LAMP	n/a	n/a	10	[0, 0, 0]	-999	PAL1	1	R1283T
1780.905	2.019	1789932	REC_EVENT	1998	1	3	DUCK	LAMP	LAMP	DUCK	10	[0, 0, 0]	-999	PAL1	1	R1283T
1782.924	1.0	1791951	PROBE_OFF	n/a	1	-999	n/a	n/a	n/a	n/a	10	[0, 0, 0]	-999	PAL1	1	R1283T
1783.924	0.016	1792951	REC_END	n/a	1	-999	n/a	n/a	n/a	n/a	10	[0, 0, 0]	-999	PAL1	1	R1283T
1783.94	0.267	1792967	TEST_ORIENT	n/a	2	4	ARM	n/a	ARM	TOAD	10	[0, 0, 0]	-999	PAL1	1	R1283T
1784.207	0.767	1793234	RETRIEVAL_ORIENT_OFF	n/a	1	-999	n/a	n/a	n/a	n/a	10	[0, 0, 0]	-999	PAL1	1	R1283T
1784.974	0.0	1794001	TEST_PROBE	n/a	2	4	ARM	n/a	ARM	TOAD	10	[0, 0, 0]	-999	PAL1	1	R1283T
1784.974	4.017	1794001	REC_START	n/a	2	-999	n/a	n/a	n/a	n/a	10	[0, 0, 0]	-999	PAL1	1	R1283T
1788.991	0.998	1798018	PROBE_OFF	n/a	2	-999	n/a	n/a	n/a	n/a	10	[0, 0, 0]	-999	PAL1	1	R1283T
1789.989	0.002	1799016	REC_EVENT	5015	2	4	ARM	<>	ARM	TOAD	10	[0, 0, 0]	-999	PAL1	1	R1283T
1789.991	0.017	1799018	REC_END	n/a	2	-999	n/a	n/a	n/a	n/a	10	[0, 0, 0]	-999	PAL1	1	R1283T
1790.008	0.251	1799035	TEST_ORIENT	n/a	5	5	SHEEP	JAR	SHEEP	JAR	10	[0, 0, 0]	-999	PAL1	1	R1283T
1790.259	0.566	1799286	RETRIEVAL_ORIENT_OFF	n/a	2	-999	n/a	n/a	n/a	n/a	10	[0, 0, 0]	-999	PAL1	1	R1283T
1790.825	0.001	1799852	TEST_PROBE	n/a	5	5	SHEEP	JAR	SHEEP	JAR	10	[0, 0, 0]	-999	PAL1	1	R1283T
1790.826	2.165	1799853	REC_START	n/a	5	-999	n/a	JAR	n/a	n/a	10	[0, 0, 0]	-999	PAL1	1	R1283T
1792.991	1.852	1802018	REC_EVENT	2165	5	5	SHEEP	JAR	SHEEP	JAR	10	[0, 0, 0]	-999	PAL1	1	R1283T
1794.843	1.0	1803869	PROBE_OFF	n/a	5	-999	n/a	n/a	n/a	n/a	10	[0, 0, 0]	-999	PAL1	1	R1283T
1795.843	0.016	1804869	REC_END	n/a	5	-999	n/a	n/a	n/a	n/a	10	[0, 0, 0]	-999	PAL1	1	R1283T
1795.859	0.267	1804885	TEST_ORIENT	n/a	6	6	BROOM	n/a	GUARD	BROOM	10	[0, 0, 0]	-999	PAL1	1	R1283T
1796.126	0.534	1805152	RETRIEVAL_ORIENT_OFF	n/a	5	-999	n/a	n/a	n/a	n/a	10	[0, 0, 0]	-999	PAL1	1	R1283T
1796.66	0.0	1805686	TEST_PROBE	n/a	6	6	BROOM	n/a	GUARD	BROOM	10	[0, 0, 0]	-999	PAL1	1	R1283T
1796.66	4.017	1805686	REC_START	n/a	6	-999	n/a	n/a	n/a	n/a	10	[0, 0, 0]	-999	PAL1	1	R1283T
1800.677	0.998	1809703	PROBE_OFF	n/a	6	-999	n/a	n/a	n/a	n/a	10	[0, 0, 0]	-999	PAL1	1	R1283T
1801.675	0.002	1810701	REC_EVENT	5015	6	6	BROOM	<>	GUARD	BROOM	10	[0, 0, 0]	-999	PAL1	1	R1283T
1801.677	0.011	1810703	REC_END	n/a	6	-999	n/a	n/a	n/a	n/a	10	[0, 0, 0]	-999	PAL1	1	R1283T
1801.688	4.223	1810714	RECALL_END	n/a	-999	-999	n/a	n/a	n/a	n/a	10	[0, 0, 0]	-999	PAL1	1	R1283T
1805.911	10.929	1814937	TRIAL	n/a	-999	-999	n/a	n/a	n/a	n/a	11	[0, 0, 0]	-999	PAL1	1	R1283T
1816.84	0.007	1825865	ENCODING_START	n/a	-999	-999	n/a	n/a	n/a	n/a	11	[0, 0, 0]	-999	PAL1	1	R1283T
1816.847	0.266	1825872	STUDY_ORIENT	n/a	1	3	SOCK	YARD	LAWN	SOCK	11	[0, 0, 0]	-999	PAL1	1	R1283T
1817.113	0.767	1826138	STUDY_ORIENT_OFF	n/a	1	3	SOCK	YARD	LAWN	SOCK	11	[0, 0, 0]	-999	PAL1	1	R1283T
1817.88	4.017	1826905	STUDY_PAIR	n/a	1	3	SOCK	YARD	LAWN	SOCK	11	[0, 0, 0]	-999	PAL1	1	R1283T
1821.897	1.017	1830922	PAIR_OFF	n/a	1	3	SOCK	YARD	LAWN	SOCK	11	[0, 0, 0]	-999	PAL1	1	R1283T
1822.914	0.267	1831939	STUDY_ORIENT	n/a	2	2	JET	PALM	JET	PALM	11	[0, 0, 0]	-999	PAL1	1	R1283T
1823.181	0.717	1832206	STUDY_ORIENT_OFF	n/a	2	2	JET	PALM	JET	PALM	11	[0, 0, 0]	-999	PAL1	1	R1283T
1823.898	4.017	1832923	STUDY_PAIR	n/a	2	2	JET	PALM	JET	PALM	11	[0, 0, 0]	-999	PAL1	1	R1283T
1827.915	1.017	1836939	PAIR_OFF	n/a	2	2	JET	PALM	JET	PALM	11	[0, 0, 0]	-999	PAL1	1	R1283T
1828.932	0.267	1837956	STUDY_ORIENT	n/a	3	5	CANE	PASS	CANE	BALL	11	[0, 0, 0]	-999	PAL1	1	R1283T
1829.199	0.717	1838223	STUDY_ORIENT_OFF	n/a	3	5	CANE	PASS	CANE	BALL	11	[0, 0, 0]	-999	PAL1	1	R1283T
1829.916	4.017	1838940	STUDY_PAIR	n/a	3	5	CANE	PASS	CANE	BALL	11	[0, 0, 0]	-999	PAL1	1	R1283T
1833.933	1.017	1842957	PAIR_OFF	n/a	3	5	CANE	PASS	CANE	BALL	11	[0, 0, 0]	-999	PAL1	1	R1283T
1834.95	0.267	1843974	STUDY_ORIENT	n/a	4	6	CHEEK	PASS	HILL	CHEEK	11	[0, 0, 0]	-999	PAL1	1	R1283T
1835.217	0.716	1844241	STUDY_ORIENT_OFF	n/a	4	6	CHEEK	PASS	HILL	CHEEK	11	[0, 0, 0]	-999	PAL1	1	R1283T
1835.933	4.018	1844957	STUDY_PAIR	n/a	4	6	CHEEK	PASS	HILL	CHEEK	11	[0, 0, 0]	-999	PAL1	1	R1283T
1839.951	1.017	1848975	PAIR_OFF	n/a	4	6	CHEEK	PASS	HILL	CHEEK	11	[0, 0, 0]	-999	PAL1	1	R1283T
1840.968	0.267	1849992	STUDY_ORIENT	n/a	5	1	SNAKE	n/a	SNAKE	BARN	11	[0, 0, 0]	-999	PAL1	1	R1283T
1841.235	0.716	1850259	STUDY_ORIENT_OFF	n/a	5	1	SNAKE	n/a	SNAKE	BARN	11	[0, 0, 0]	-999	PAL1	1	R1283T
1841.951	4.017	1850975	STUDY_PAIR	n/a	5	1	SNAKE	n/a	SNAKE	BARN	11	[0, 0, 0]	-999	PAL1	1	R1283T
1845.968	1.017	1854991	PAIR_OFF	n/a	5	1	SNAKE	n/a	SNAKE	BARN	11	[0, 0, 0]	-999	PAL1	1	R1283T
1846.985	0.251	1856008	STUDY_ORIENT	n/a	6	4	MOUTH	CAVE	MOUTH	CAVE	11	[0, 0, 0]	-999	PAL1	1	R1283T
1847.236	0.516	1856259	STUDY_ORIENT_OFF	n/a	6	4	MOUTH	CAVE	MOUTH	CAVE	11	[0, 0, 0]	-999	PAL1	1	R1283T
1847.752	4.017	1856775	STUDY_PAIR	n/a	6	4	MOUTH	CAVE	MOUTH	CAVE	11	[0, 0, 0]	-999	PAL1	1	R1283T
1851.769	1.001	1860792	PAIR_OFF	n/a	6	4	MOUTH	CAVE	MOUTH	CAVE	11	[0, 0, 0]	-999	PAL1	1	R1283T
1852.77	0.0	1861793	ENCODING_END	n/a	-999	-999	n/a	n/a	n/a	n/a	11	[0, 0, 0]	-999	PAL1	1	R1283T
1852.77	0.0	1861793	MATH_START	n/a	-999	-999	n/a	n/a	n/a	n/a	11	[0, 0, 0]	-999	PAL1	1	R1283T
1852.77	0.016	1861793	START	n/a	-999	-999	n/a	n/a	n/a	n/a	12	[-999, -999, -999]	-999	PAL1	1	R1283T
1852.786	2.051	1861809	PROB	2017	-999	-999	n/a	n/a	n/a	n/a	12	[3, 3, 3]	9	PAL1	1	R1283T
1854.837	2.85	1863860	PROB	2822	-999	-999	n/a	n/a	n/a	n/a	12	[3, 4, 8]	13	PAL1	1	R1283T
1857.687	4.268	1866710	PROB	4244	-999	-999	n/a	n/a	n/a	n/a	12	[3, 5, 9]	17	PAL1	1	R1283T
1861.955	2.518	1870977	PROB	2480	-999	-999	n/a	n/a	n/a	n/a	12	[2, 1, 2]	5	PAL1	1	R1283T
1864.473	3.283	1873495	PROB	3257	-999	-999	n/a	n/a	n/a	n/a	12	[3, 1, 3]	7	PAL1	1	R1283T
1867.756	3.284	1876778	PROB	3254	-999	-999	n/a	n/a	n/a	n/a	12	[4, 5, 3]	12	PAL1	1	R1283T
1871.04	2.858	1880062	PROB	2858	-999	-999	n/a	n/a	n/a	n/a	12	[5, 5, 8]	18	PAL1	1	R1283T
1873.898	0.009	1882920	STOP	n/a	-999	-999	n/a	n/a	n/a	n/a	12	[-999, -999, -999]	-999	PAL1	1	R1283T
1873.907	0.0	1882929	MATH_END	n/a	-999	-999	n/a	n/a	n/a	n/a	11	[0, 0, 0]	-999	PAL1	1	R1283T
1873.907	0.017	1882929	RECALL_START	n/a	-999	-999	n/a	n/a	n/a	n/a	11	[0, 0, 0]	-999	PAL1	1	R1283T
1873.924	0.266	1882946	TEST_ORIENT	n/a	5	1	SNAKE	n/a	SNAKE	BARN	11	[0, 0, 0]	-999	PAL1	1	R1283T
1874.19	0.667	1883212	RETRIEVAL_ORIENT_OFF	n/a	-999	-999	n/a	n/a	n/a	n/a	11	[0, 0, 0]	-999	PAL1	1	R1283T
1874.857	0.001	1883879	TEST_PROBE	n/a	5	1	SNAKE	n/a	SNAKE	BARN	11	[0, 0, 0]	-999	PAL1	1	R1283T
1874.858	4.016	1883880	REC_START	n/a	5	-999	n/a	n/a	n/a	n/a	11	[0, 0, 0]	-999	PAL1	1	R1283T
1878.874	0.999	1887895	PROBE_OFF	n/a	5	-999	n/a	n/a	n/a	n/a	11	[0, 0, 0]	-999	PAL1	1	R1283T
1879.873	0.001	1888894	REC_EVENT	5015	5	1	SNAKE	<>	SNAKE	BARN	11	[0, 0, 0]	-999	PAL1	1	R1283T
1879.874	0.017	1888895	REC_END	n/a	5	-999	n/a	n/a	n/a	n/a	11	[0, 0, 0]	-999	PAL1	1	R1283T
1879.891	0.267	1888912	TEST_ORIENT	n/a	2	2	JET	PALM	JET	PALM	11	[0, 0, 0]	-999	PAL1	1	R1283T
1880.158	0.534	1889179	RETRIEVAL_ORIENT_OFF	n/a	5	-999	n/a	n/a	n/a	n/a	11	[0, 0, 0]	-999	PAL1	1	R1283T
1880.692	0.0	1889713	TEST_PROBE	n/a	2	2	JET	PALM	JET	PALM	11	[0, 0, 0]	-999	PAL1	1	R1283T
1880.692	2.491	1889713	REC_START	n/a	2	-999	n/a	PALM	n/a	n/a	11	[0, 0, 0]	-999	PAL1	1	R1283T
1883.183	1.526	1892204	REC_EVENT	2491	2	2	JET	PALM	JET	PALM	11	[0, 0, 0]	-999	PAL1	1	R1283T
1884.709	1.01	1893730	PROBE_OFF	n/a	2	-999	n/a	n/a	n/a	n/a	11	[0, 0, 0]	-999	PAL1	1	R1283T
1885.719	0.006	1894740	REC_END	n/a	2	-999	n/a	n/a	n/a	n/a	11	[0, 0, 0]	-999	PAL1	1	R1283T
1885.725	0.267	1894746	TEST_ORIENT	n/a	1	3	SOCK	YARD	LAWN	SOCK	11	[0, 0, 0]	-999	PAL1	1	R1283T
1885.992	0.751	1895013	RETRIEVAL_ORIENT_OFF	n/a	2	-999	n/a	n/a	n/a	n/a	11	[0, 0, 0]	-999	PAL1	1	R1283T
1886.743	0.0	1895764	TEST_PROBE	n/a	1	3	SOCK	YARD	LAWN	SOCK	11	[0, 0, 0]	-999	PAL1	1	R1283T
1886.743	2.508	1895764	REC_START	n/a	1	-999	n/a	YARD	n/a	n/a	11	[0, 0, 0]	-999	PAL1	1	R1283T
1889.251	1.509	1898272	REC_EVENT	2508	1	3	SOCK	YARD	LAWN	SOCK	11	[0, 0, 0]	-999	PAL1	1	R1283T
1890.76	1.0	1899781	PROBE_OFF	n/a	1	-999	n/a	n/a	n/a	n/a	11	[0, 0, 0]	-999	PAL1	1	R1283T
1891.76	0.017	1900781	REC_END	n/a	1	-999	n/a	n/a	n/a	n/a	11	[0, 0, 0]	-999	PAL1	1	R1283T
1891.777	0.267	1900798	TEST_ORIENT	n/a	6	4	MOUTH	CAVE	MOUTH	CAVE	11	[0, 0, 0]	-999	PAL1	1	R1283T
1892.044	0.716	1901065	RETRIEVAL_ORIENT_OFF	n/a	1	-999	n/a	n/a	n/a	n/a	11	[0, 0, 0]	-999	PAL1	1	R1283T
1892.76	0.001	1901781	TEST_PROBE	n/a	6	4	MOUTH	CAVE	MOUTH	CAVE	11	[0, 0, 0]	-999	PAL1	1	R1283T
1892.761	1.196	1901782	REC_START	n/a	6	-999	n/a	CAVE	n/a	n/a	11	[0, 0, 0]	-999	PAL1	1	R1283T
1893.957	2.821	1902978	REC_EVENT	1196	6	4	MOUTH	CAVE	MOUTH	CAVE	11	[0, 0, 0]	-999	PAL1	1	R1283T
1896.778	1.0	1905798	PROBE_OFF	n/a	6	-999	n/a	n/a	n/a	n/a	11	[0, 0, 0]	-999	PAL1	1	R1283T
1897.778	0.017	1906798	REC_END	n/a	6	-999	n/a	n/a	n/a	n/a	11	[0, 0, 0]	-999	PAL1	1	R1283T
1897.795	0.266	1906815	TEST_ORIENT	n/a	3	5	CANE	PASS	CANE	BALL	11	[0, 0, 0]	-999	PAL1	1	R1283T
1898.061	0.717	1907081	RETRIEVAL_ORIENT_OFF	n/a	6	-999	n/a	n/a	n/a	n/a	11	[0, 0, 0]	-999	PAL1	1	R1283T
1898.778	0.001	1907798	TEST_PROBE	n/a	3	5	CANE	PASS	CANE	BALL	11	[0, 0, 0]	-999	PAL1	1	R1283T
1898.779	2.811	1907799	REC_START	n/a	3	-999	n/a	PASS	n/a	n/a	11	[0, 0, 0]	-999	PAL1	1	R1283T
1901.59	1.206	1910610	REC_EVENT	2811	3	5	CANE	PASS	CANE	BALL	11	[0, 0, 0]	-999	PAL1	1	R1283T
1902.796	1.0	1911816	PROBE_OFF	n/a	3	-999	n/a	n/a	n/a	n/a	11	[0, 0, 0]	-999	PAL1	1	R1283T
1903.796	0.016	1912816	REC_END	n/a	3	-999	n/a	n/a	n/a	n/a	11	[0, 0, 0]	-999	PAL1	1	R1283T
1903.812	0.267	1912832	TEST_ORIENT	n/a	4	6	CHEEK	PASS	HILL	CHEEK	11	[0, 0, 0]	-999	PAL1	1	R1283T
1904.079	0.667	1913099	RETRIEVAL_ORIENT_OFF	n/a	3	-999	n/a	n/a	n/a	n/a	11	[0, 0, 0]	-999	PAL1	1	R1283T
1904.746	0.0	1913766	TEST_PROBE	n/a	4	6	CHEEK	PASS	HILL	CHEEK	11	[0, 0, 0]	-999	PAL1	1	R1283T
1904.746	3.625	1913766	REC_START	n/a	4	-999	n/a	PASS	n/a	n/a	11	[0, 0, 0]	-999	PAL1	1	R1283T
1908.371	0.392	1917391	REC_EVENT	3625	4	6	CHEEK	PASS	HILL	CHEEK	11	[0, 0, 0]	-999	PAL1	1	R1283T
1908.763	1.0	1917783	PROBE_OFF	n/a	4	-999	n/a	n/a	n/a	n/a	11	[0, 0, 0]	-999	PAL1	1	R1283T
1909.763	0.01	1918783	REC_END	n/a	4	-999	n/a	n/a	n/a	n/a	11	[0, 0, 0]	-999	PAL1	1	R1283T
1909.773	4.058	1918793	RECALL_END	n/a	-999	-999	n/a	n/a	n/a	n/a	11	[0, 0, 0]	-999	PAL1	1	R1283T
1913.831	10.929	1922850	TRIAL	n/a	-999	-999	n/a	n/a	n/a	n/a	12	[0, 0, 0]	-999	PAL1	1	R1283T
1924.76	0.006	1933779	ENCODING_START	n/a	-999	-999	n/a	n/a	n/a	n/a	12	[0, 0, 0]	-999	PAL1	1	R1283T
1924.766	0.267	1933785	STUDY_ORIENT	n/a	1	5	SEA	n/a	RUG	SEA	12	[0, 0, 0]	-999	PAL1	1	R1283T
1925.033	0.733	1934052	STUDY_ORIENT_OFF	n/a	1	5	SEA	n/a	RUG	SEA	12	[0, 0, 0]	-999	PAL1	1	R1283T
1925.766	4.001	1934785	STUDY_PAIR	n/a	1	5	SEA	n/a	RUG	SEA	12	[0, 0, 0]	-999	PAL1	1	R1283T
1929.767	1.017	1938785	PAIR_OFF	n/a	1	5	SEA	n/a	RUG	SEA	12	[0, 0, 0]	-999	PAL1	1	R1283T
1930.784	0.267	1939802	STUDY_ORIENT	n/a	2	4	SPOON	STRAW	SPOON	BIRD	12	[0, 0, 0]	-999	PAL1	1	R1283T
1931.051	0.733	1940069	STUDY_ORIENT_OFF	n/a	2	4	SPOON	STRAW	SPOON	BIRD	12	[0, 0, 0]	-999	PAL1	1	R1283T
1931.784	4.017	1940802	STUDY_PAIR	n/a	2	4	SPOON	STRAW	SPOON	BIRD	12	[0, 0, 0]	-999	PAL1	1	R1283T
1935.801	1.017	1944819	PAIR_OFF	n/a	2	4	SPOON	STRAW	SPOON	BIRD	12	[0, 0, 0]	-999	PAL1	1	R1283T
1936.818	0.267	1945836	STUDY_ORIENT	n/a	3	3	BOARD	PASS	BOARD	BEE	12	[0, 0, 0]	-999	PAL1	1	R1283T
1937.085	0.75	1946103	STUDY_ORIENT_OFF	n/a	3	3	BOARD	PASS	BOARD	BEE	12	[0, 0, 0]	-999	PAL1	1	R1283T
1937.835	4.018	1946853	STUDY_PAIR	n/a	3	3	BOARD	PASS	BOARD	BEE	12	[0, 0, 0]	-999	PAL1	1	R1283T
1941.853	1.016	1950871	PAIR_OFF	n/a	3	3	BOARD	PASS	BOARD	BEE	12	[0, 0, 0]	-999	PAL1	1	R1283T
1942.869	0.267	1951887	STUDY_ORIENT	n/a	4	6	SUN	RAIN	RAIN	SUN	12	[0, 0, 0]	-999	PAL1	1	R1283T
1943.136	0.667	1952154	STUDY_ORIENT_OFF	n/a	4	6	SUN	RAIN	RAIN	SUN	12	[0, 0, 0]	-999	PAL1	1	R1283T
1943.803	4.017	1952821	STUDY_PAIR	n/a	4	6	SUN	RAIN	RAIN	SUN	12	[0, 0, 0]	-999	PAL1	1	R1283T
1947.82	1.017	1956837	PAIR_OFF	n/a	4	6	SUN	RAIN	RAIN	SUN	12	[0, 0, 0]	-999	PAL1	1	R1283T
1948.837	0.267	1957854	STUDY_ORIENT	n/a	5	1	STRAW	STICK	STRAW	STICK	12	[0, 0, 0]	-999	PAL1	1	R1283T
1949.104	0.733	1958121	STUDY_ORIENT_OFF	n/a	5	1	STRAW	STICK	STRAW	STICK	12	[0, 0, 0]	-999	PAL1	1	R1283T
1949.837	4.018	1958854	STUDY_PAIR	n/a	5	1	STRAW	STICK	STRAW	STICK	12	[0, 0, 0]	-999	PAL1	1	R1283T
1953.855	1.017	1962872	PAIR_OFF	n/a	5	1	STRAW	STICK	STRAW	STICK	12	[0, 0, 0]	-999	PAL1	1	R1283T
1954.872	0.266	1963889	STUDY_ORIENT	n/a	6	2	PIG	CROW	PIG	CROW	12	[0, 0, 0]	-999	PAL1	1	R1283T
1955.138	0.55	1964155	STUDY_ORIENT_OFF	n/a	6	2	PIG	CROW	PIG	CROW	12	[0, 0, 0]	-999	PAL1	1	R1283T
1955.688	4.018	1964705	STUDY_PAIR	n/a	6	2	PIG	CROW	PIG	CROW	12	[0, 0, 0]	-999	PAL1	1	R1283T
1959.706	1.001	1968723	PAIR_OFF	n/a	6	2	PIG	CROW	PIG	CROW	12	[0, 0, 0]	-999	PAL1	1	R1283T
1960.707	0.0	1969724	ENCODING_END	n/a	-999	-999	n/a	n/a	n/a	n/a	12	[0, 0, 0]	-999	PAL1	1	R1283T
1960.707	0.0	1969724	MATH_START	n/a	-999	-999	n/a	n/a	n/a	n/a	12	[0, 0, 0]	-999	PAL1	1	R1283T
1960.707	0.016	1969724	START	n/a	-999	-999	n/a	n/a	n/a	n/a	13	[-999, -999, -999]	-999	PAL1	1	R1283T
1960.723	5.501	1969740	PROB	5472	-999	-999	n/a	n/a	n/a	n/a	13	[6, 9, 7]	22	PAL1	1	R1283T
1966.224	3.168	1975240	PROB	3132	-999	-999	n/a	n/a	n/a	n/a	13	[7, 2, 2]	11	PAL1	1	R1283T
1969.392	4.483	1978408	PROB	4451	-999	-999	n/a	n/a	n/a	n/a	13	[2, 5, 4]	11	PAL1	1	R1283T
1973.875	2.518	1982891	PROB	2489	-999	-999	n/a	n/a	n/a	n/a	13	[2, 5, 4]	11	PAL1	1	R1283T
1976.393	2.416	1985409	PROB	2393	-999	-999	n/a	n/a	n/a	n/a	13	[5, 9, 5]	19	PAL1	1	R1283T
1978.809	3.475	1987824	PROB	3475	-999	-999	n/a	n/a	n/a	n/a	13	[7, 2, 5]	14	PAL1	1	R1283T
1982.284	0.01	1991299	STOP	n/a	-999	-999	n/a	n/a	n/a	n/a	13	[-999, -999, -999]	-999	PAL1	1	R1283T
1982.294	0.0	1991309	MATH_END	n/a	-999	-999	n/a	n/a	n/a	n/a	12	[0, 0, 0]	-999	PAL1	1	R1283T
1982.294	0.017	1991309	RECALL_START	n/a	-999	-999	n/a	n/a	n/a	n/a	12	[0, 0, 0]	-999	PAL1	1	R1283T
1982.311	0.266	1991326	TEST_ORIENT	n/a	5	1	STRAW	STICK	STRAW	STICK	12	[0, 0, 0]	-999	PAL1	1	R1283T
1982.577	0.55	1991592	RETRIEVAL_ORIENT_OFF	n/a	-999	-999	n/a	n/a	n/a	n/a	12	[0, 0, 0]	-999	PAL1	1	R1283T
1983.127	0.0	1992142	TEST_PROBE	n/a	5	1	STRAW	STICK	STRAW	STICK	12	[0, 0, 0]	-999	PAL1	1	R1283T
1983.127	1.474	1992142	REC_START	n/a	5	-999	n/a	STICK	n/a	n/a	12	[0, 0, 0]	-999	PAL1	1	R1283T
1984.601	2.543	1993616	REC_EVENT	1474	5	1	STRAW	STICK	STRAW	STICK	12	[0, 0, 0]	-999	PAL1	1	R1283T
1987.144	1.0	1996159	PROBE_OFF	n/a	5	-999	n/a	n/a	n/a	n/a	12	[0, 0, 0]	-999	PAL1	1	R1283T
1988.144	0.017	1997159	REC_END	n/a	5	-999	n/a	n/a	n/a	n/a	12	[0, 0, 0]	-999	PAL1	1	R1283T
1988.161	0.251	1997176	TEST_ORIENT	n/a	6	2	PIG	CROW	PIG	CROW	12	[0, 0, 0]	-999	PAL1	1	R1283T
1988.412	0.649	1997427	RETRIEVAL_ORIENT_OFF	n/a	5	-999	n/a	n/a	n/a	n/a	12	[0, 0, 0]	-999	PAL1	1	R1283T
1989.061	0.001	1998076	TEST_PROBE	n/a	6	2	PIG	CROW	PIG	CROW	12	[0, 0, 0]	-999	PAL1	1	R1283T
1989.062	0.987	1998077	REC_START	n/a	6	-999	n/a	CROW	n/a	n/a	12	[0, 0, 0]	-999	PAL1	1	R1283T
1990.049	3.03	1999064	REC_EVENT	987	6	2	PIG	CROW	PIG	CROW	12	[0, 0, 0]	-999	PAL1	1	R1283T
1993.079	1.01	2002094	PROBE_OFF	n/a	6	-999	n/a	n/a	n/a	n/a	12	[0, 0, 0]	-999	PAL1	1	R1283T
1994.089	0.006	2003104	REC_END	n/a	6	-999	n/a	n/a	n/a	n/a	12	[0, 0, 0]	-999	PAL1	1	R1283T
1994.095	0.268	2003110	TEST_ORIENT	n/a	3	3	BOARD	PASS	BOARD	BEE	12	[0, 0, 0]	-999	PAL1	1	R1283T
1994.363	0.549	2003377	RETRIEVAL_ORIENT_OFF	n/a	6	-999	n/a	n/a	n/a	n/a	12	[0, 0, 0]	-999	PAL1	1	R1283T
1994.912	0.001	2003926	TEST_PROBE	n/a	3	3	BOARD	PASS	BOARD	BEE	12	[0, 0, 0]	-999	PAL1	1	R1283T
1994.913	3.167	2003927	REC_START	n/a	3	-999	n/a	PASS	n/a	n/a	12	[0, 0, 0]	-999	PAL1	1	R1283T
1998.08	0.85	2007094	REC_EVENT	3167	3	3	BOARD	PASS	BOARD	BEE	12	[0, 0, 0]	-999	PAL1	1	R1283T
1998.93	1.0	2007944	PROBE_OFF	n/a	3	-999	n/a	n/a	n/a	n/a	12	[0, 0, 0]	-999	PAL1	1	R1283T
1999.93	0.017	2008944	REC_END	n/a	3	-999	n/a	n/a	n/a	n/a	12	[0, 0, 0]	-999	PAL1	1	R1283T
1999.947	0.266	2008961	TEST_ORIENT	n/a	2	4	SPOON	STRAW	SPOON	BIRD	12	[0, 0, 0]	-999	PAL1	1	R1283T
2000.213	0.684	2009227	RETRIEVAL_ORIENT_OFF	n/a	3	-999	n/a	n/a	n/a	n/a	12	[0, 0, 0]	-999	PAL1	1	R1283T
2000.897	0.0	2009911	TEST_PROBE	n/a	2	4	SPOON	STRAW	SPOON	BIRD	12	[0, 0, 0]	-999	PAL1	1	R1283T
2000.897	3.278	2009911	REC_START	n/a	2	-999	n/a	STRAW	n/a	n/a	12	[0, 0, 0]	-999	PAL1	1	R1283T
2004.175	0.739	2013189	REC_EVENT	3278	2	4	SPOON	STRAW	SPOON	BIRD	12	[0, 0, 0]	-999	PAL1	1	R1283T
2004.914	1.0	2013928	PROBE_OFF	n/a	2	-999	n/a	n/a	n/a	n/a	12	[0, 0, 0]	-999	PAL1	1	R1283T
2005.914	0.017	2014928	REC_END	n/a	2	-999	n/a	n/a	n/a	n/a	12	[0, 0, 0]	-999	PAL1	1	R1283T
2005.931	0.267	2014945	TEST_ORIENT	n/a	1	5	SEA	n/a	RUG	SEA	12	[0, 0, 0]	-999	PAL1	1	R1283T
2006.198	0.533	2015212	RETRIEVAL_ORIENT_OFF	n/a	2	-999	n/a	n/a	n/a	n/a	12	[0, 0, 0]	-999	PAL1	1	R1283T
2006.731	0.001	2015745	TEST_PROBE	n/a	1	5	SEA	n/a	RUG	SEA	12	[0, 0, 0]	-999	PAL1	1	R1283T
2006.732	4.016	2015746	REC_START	n/a	1	-999	n/a	n/a	n/a	n/a	12	[0, 0, 0]	-999	PAL1	1	R1283T
2010.748	0.999	2019762	PROBE_OFF	n/a	1	-999	n/a	n/a	n/a	n/a	12	[0, 0, 0]	-999	PAL1	1	R1283T
2011.747	0.001	2020760	REC_EVENT	5015	1	5	SEA	<>	RUG	SEA	12	[0, 0, 0]	-999	PAL1	1	R1283T
2011.748	0.017	2020761	REC_END	n/a	1	-999	n/a	n/a	n/a	n/a	12	[0, 0, 0]	-999	PAL1	1	R1283T
2011.765	0.267	2020778	TEST_ORIENT	n/a	4	6	SUN	RAIN	RAIN	SUN	12	[0, 0, 0]	-999	PAL1	1	R1283T
2012.032	0.667	2021045	RETRIEVAL_ORIENT_OFF	n/a	1	-999	n/a	n/a	n/a	n/a	12	[0, 0, 0]	-999	PAL1	1	R1283T
2012.699	0.0	2021712	TEST_PROBE	n/a	4	6	SUN	RAIN	RAIN	SUN	12	[0, 0, 0]	-999	PAL1	1	R1283T
2012.699	2.662	2021712	REC_START	n/a	4	-999	n/a	RAIN	n/a	n/a	12	[0, 0, 0]	-999	PAL1	1	R1283T
2015.361	1.355	2024374	REC_EVENT	2662	4	6	SUN	RAIN	RAIN	SUN	12	[0, 0, 0]	-999	PAL1	1	R1283T
2016.716	1.0	2025729	PROBE_OFF	n/a	4	-999	n/a	n/a	n/a	n/a	12	[0, 0, 0]	-999	PAL1	1	R1283T
2017.716	0.011	2026729	REC_END	n/a	4	-999	n/a	n/a	n/a	n/a	12	[0, 0, 0]	-999	PAL1	1	R1283T
2017.727	4.09	2026740	RECALL_END	n/a	-999	-999	n/a	n/a	n/a	n/a	12	[0, 0, 0]	-999	PAL1	1	R1283T
2021.817	10.928	2030830	TRIAL	n/a	-999	-999	n/a	n/a	n/a	n/a	13	[0, 0, 0]	-999	PAL1	1	R1283T
2032.745	0.008	2041757	ENCODING_START	n/a	-999	-999	n/a	n/a	n/a	n/a	13	[0, 0, 0]	-999	PAL1	1	R1283T
2032.753	0.266	2041765	STUDY_ORIENT	n/a	1	3	STONE	CUBE	STONE	CUBE	13	[0, 0, 0]	-999	PAL1	1	R1283T
2033.019	0.667	2042031	STUDY_ORIENT_OFF	n/a	1	3	STONE	CUBE	STONE	CUBE	13	[0, 0, 0]	-999	PAL1	1	R1283T
2033.686	4.017	2042698	STUDY_PAIR	n/a	1	3	STONE	CUBE	STONE	CUBE	13	[0, 0, 0]	-999	PAL1	1	R1283T
2037.703	1.017	2046715	PAIR_OFF	n/a	1	3	STONE	CUBE	STONE	CUBE	13	[0, 0, 0]	-999	PAL1	1	R1283T
2038.72	0.267	2047732	STUDY_ORIENT	n/a	2	4	SWORD	STONE	FLEA	SWORD	13	[0, 0, 0]	-999	PAL1	1	R1283T
2038.987	0.583	2047999	STUDY_ORIENT_OFF	n/a	2	4	SWORD	STONE	FLEA	SWORD	13	[0, 0, 0]	-999	PAL1	1	R1283T
2039.57	4.018	2048582	STUDY_PAIR	n/a	2	4	SWORD	STONE	FLEA	SWORD	13	[0, 0, 0]	-999	PAL1	1	R1283T
2043.588	1.017	2052600	PAIR_OFF	n/a	2	4	SWORD	STONE	FLEA	SWORD	13	[0, 0, 0]	-999	PAL1	1	R1283T
2044.605	0.266	2053616	STUDY_ORIENT	n/a	3	5	HOUSE	PASS	HOUSE	VINE	13	[0, 0, 0]	-999	PAL1	1	R1283T
2044.871	0.684	2053882	STUDY_ORIENT_OFF	n/a	3	5	HOUSE	PASS	HOUSE	VINE	13	[0, 0, 0]	-999	PAL1	1	R1283T
2045.555	4.017	2054566	STUDY_PAIR	n/a	3	5	HOUSE	PASS	HOUSE	VINE	13	[0, 0, 0]	-999	PAL1	1	R1283T
2049.572	1.017	2058583	PAIR_OFF	n/a	3	5	HOUSE	PASS	HOUSE	VINE	13	[0, 0, 0]	-999	PAL1	1	R1283T
2050.589	0.267	2059600	STUDY_ORIENT	n/a	4	6	TOAST	n/a	TOAST	BLOOM	13	[0, 0, 0]	-999	PAL1	1	R1283T
