onset	duration	sample	trial_type	response_time	serialpos	probepos	probe_word	resp_word	study_1	study_2	list	test	answer	experiment	session	subject
0.0	115.56	483329	SESS_START	n/a	-999	-999	n/a	n/a	n/a	n/a	-999	[0, 0, 0]	-999	PAL1	0	R1095N
115.56	1.017	598890	START	n/a	-999	-999	n/a	n/a	n/a	n/a	-1	[-999, -999, -999]	-999	PAL1	0	R1095N
116.577	3.6	599907	PROB	3565	-999	-999	n/a	n/a	n/a	n/a	-1	[4, 2, 2]	8	PAL1	0	R1095N
120.177	6.934	603507	PROB	6900	-999	-999	n/a	n/a	n/a	n/a	-1	[7, 4, 4]	13	PAL1	0	R1095N
127.111	3.317	610441	PROB	3286	-999	-999	n/a	n/a	n/a	n/a	-1	[4, 1, 5]	10	PAL1	0	R1095N
130.428	5.609	613758	PROB	5609	-999	-999	n/a	n/a	n/a	n/a	-1	[3, 5, 6]	14	PAL1	0	R1095N
136.037	35.713	619367	STOP	n/a	-999	-999	n/a	n/a	n/a	n/a	-1	[-999, -999, -999]	-999	PAL1	0	R1095N
171.75	32.251	655081	FEEDBACK_SHOW_ALL_PAIRS	n/a	-999	-999	n/a	n/a	n/a	n/a	-999	[0, 0, 0]	-999	PAL1	0	R1095N
204.001	10.437	687332	ENCODING_START	n/a	0	-999	n/a	n/a	n/a	n/a	1	[0, 0, 0]	-999	PAL1	0	R1095N
214.438	0.884	697769	STUDY_ORIENT	n/a	1	3	CROWN	PARK	CROWN	PARK	1	[0, 0, 0]	-999	PAL1	0	R1095N
215.322	5.033	698653	STUDY_PAIR	n/a	1	3	CROWN	PARK	CROWN	PARK	1	[0, 0, 0]	-999	PAL1	0	R1095N
220.355	1.001	703686	STUDY_ORIENT	n/a	2	2	JUDGE	FOX	JUDGE	FOX	1	[0, 0, 0]	-999	PAL1	0	R1095N
221.356	5.033	704688	STUDY_PAIR	n/a	2	2	JUDGE	FOX	JUDGE	FOX	1	[0, 0, 0]	-999	PAL1	0	R1095N
226.389	0.835	709721	STUDY_ORIENT	n/a	3	5	PET	SWORD	SWORD	PET	1	[0, 0, 0]	-999	PAL1	0	R1095N
227.224	5.034	710556	STUDY_PAIR	n/a	3	5	PET	SWORD	SWORD	PET	1	[0, 0, 0]	-999	PAL1	0	R1095N
232.258	0.932	715590	STUDY_ORIENT	n/a	4	4	CAPE	n/a	CAPE	CLOUD	1	[0, 0, 0]	-999	PAL1	0	R1095N
233.19	5.035	716522	STUDY_PAIR	n/a	4	4	CAPE	n/a	CAPE	CLOUD	1	[0, 0, 0]	-999	PAL1	0	R1095N
238.225	1.0	721557	STUDY_ORIENT	n/a	5	1	BRUSH	n/a	BRUSH	GUARD	1	[0, 0, 0]	-999	PAL1	0	R1095N
239.225	5.018	722557	STUDY_PAIR	n/a	5	1	BRUSH	n/a	BRUSH	GUARD	1	[0, 0, 0]	-999	PAL1	0	R1095N
244.243	0.832	727575	STUDY_ORIENT	n/a	6	6	CAVE	KITE	CAVE	KITE	1	[0, 0, 0]	-999	PAL1	0	R1095N
245.075	4.018	728407	STUDY_PAIR	n/a	6	6	CAVE	KITE	CAVE	KITE	1	[0, 0, 0]	-999	PAL1	0	R1095N
249.093	0.999	732425	START	n/a	-999	-999	n/a	n/a	n/a	n/a	1	[-999, -999, -999]	-999	PAL1	0	R1095N
250.092	0.017	733424	MATH_START	n/a	-999	-999	n/a	n/a	n/a	n/a	1	[0, 0, 0]	-999	PAL1	0	R1095N
250.109	4.467	733441	PROB	4434	-999	-999	n/a	n/a	n/a	n/a	1	[1, 4, 9]	14	PAL1	0	R1095N
254.576	5.201	737908	PROB	5174	-999	-999	n/a	n/a	n/a	n/a	1	[3, 9, 8]	20	PAL1	0	R1095N
259.777	3.7	743109	PROB	3669	-999	-999	n/a	n/a	n/a	n/a	1	[1, 6, 1]	8	PAL1	0	R1095N
263.477	4.567	746809	PROB	4537	-999	-999	n/a	n/a	n/a	n/a	1	[5, 2, 6]	13	PAL1	0	R1095N
268.044	3.586	751376	PROB	3586	-999	-999	n/a	n/a	n/a	n/a	1	[1, 2, 6]	9	PAL1	0	R1095N
271.63	0.015	754962	STOP	n/a	-999	-999	n/a	n/a	n/a	n/a	1	[-999, -999, -999]	-999	PAL1	0	R1095N
271.645	0.0	754977	TEST_START	n/a	-999	-999	n/a	n/a	n/a	n/a	1	[0, 0, 0]	-999	PAL1	0	R1095N
271.645	0.017	754977	MATH_END	n/a	-999	-999	n/a	n/a	n/a	n/a	1	[0, 0, 0]	-999	PAL1	0	R1095N
271.662	0.916	754994	TEST_ORIENT	n/a	5	1	BRUSH	n/a	BRUSH	GUARD	1	[0, 0, 0]	-999	PAL1	0	R1095N
272.578	0.001	755910	TEST_PROBE	n/a	5	1	BRUSH	n/a	BRUSH	GUARD	1	[0, 0, 0]	-999	PAL1	0	R1095N
272.579	5.015	755911	REC_START	n/a	5	-999	n/a	n/a	n/a	n/a	1	[0, 0, 0]	-999	PAL1	0	R1095N
277.594	0.001	760926	REC_EVENT	5015	5	1	BRUSH	<>	BRUSH	GUARD	1	[0, 0, 0]	-999	PAL1	0	R1095N
277.595	0.017	760927	REC_END	n/a	5	-999	n/a	n/a	n/a	n/a	1	[0, 0, 0]	-999	PAL1	0	R1095N
277.612	0.9	760944	TEST_ORIENT	n/a	2	2	JUDGE	FOX	JUDGE	FOX	1	[0, 0, 0]	-999	PAL1	0	R1095N
278.512	0.001	761844	TEST_PROBE	n/a	2	2	JUDGE	FOX	JUDGE	FOX	1	[0, 0, 0]	-999	PAL1	0	R1095N
278.513	1.325	761845	REC_START	n/a	2	-999	n/a	FOX	n/a	n/a	1	[0, 0, 0]	-999	PAL1	0	R1095N
279.838	3.691	763170	REC_EVENT	1325	2	2	JUDGE	FOX	JUDGE	FOX	1	[0, 0, 0]	-999	PAL1	0	R1095N
283.529	0.017	766861	REC_END	n/a	2	-999	n/a	n/a	n/a	n/a	1	[0, 0, 0]	-999	PAL1	0	R1095N
283.546	0.934	766878	TEST_ORIENT	n/a	1	3	CROWN	PARK	CROWN	PARK	1	[0, 0, 0]	-999	PAL1	0	R1095N
284.48	0.0	767812	TEST_PROBE	n/a	1	3	CROWN	PARK	CROWN	PARK	1	[0, 0, 0]	-999	PAL1	0	R1095N
284.48	1.129	767812	REC_START	n/a	1	-999	n/a	PARK	n/a	n/a	1	[0, 0, 0]	-999	PAL1	0	R1095N
285.609	3.888	768941	REC_EVENT	1129	1	3	CROWN	PARK	CROWN	PARK	1	[0, 0, 0]	-999	PAL1	0	R1095N
289.497	0.016	772829	REC_END	n/a	1	-999	n/a	n/a	n/a	n/a	1	[0, 0, 0]	-999	PAL1	0	R1095N
289.513	0.934	772845	TEST_ORIENT	n/a	4	4	CAPE	n/a	CAPE	CLOUD	1	[0, 0, 0]	-999	PAL1	0	R1095N
290.447	0.0	773779	TEST_PROBE	n/a	4	4	CAPE	n/a	CAPE	CLOUD	1	[0, 0, 0]	-999	PAL1	0	R1095N
290.447	5.015	773779	REC_START	n/a	4	-999	n/a	n/a	n/a	n/a	1	[0, 0, 0]	-999	PAL1	0	R1095N
295.462	0.002	778794	REC_EVENT	5015	4	4	CAPE	<>	CAPE	CLOUD	1	[0, 0, 0]	-999	PAL1	0	R1095N
295.464	0.017	778796	REC_END	n/a	4	-999	n/a	n/a	n/a	n/a	1	[0, 0, 0]	-999	PAL1	0	R1095N
295.481	1.017	778813	TEST_ORIENT	n/a	3	5	PET	SWORD	SWORD	PET	1	[0, 0, 0]	-999	PAL1	0	R1095N
296.498	0.0	779830	TEST_PROBE	n/a	3	5	PET	SWORD	SWORD	PET	1	[0, 0, 0]	-999	PAL1	0	R1095N
296.498	0.652	779830	REC_START	n/a	3	-999	n/a	SWORD	n/a	n/a	1	[0, 0, 0]	-999	PAL1	0	R1095N
297.15	4.365	780482	REC_EVENT	652	3	5	PET	SWORD	SWORD	PET	1	[0, 0, 0]	-999	PAL1	0	R1095N
301.515	0.017	784847	REC_END	n/a	3	-999	n/a	n/a	n/a	n/a	1	[0, 0, 0]	-999	PAL1	0	R1095N
301.532	1.017	784864	TEST_ORIENT	n/a	6	6	CAVE	KITE	CAVE	KITE	1	[0, 0, 0]	-999	PAL1	0	R1095N
302.549	0.0	785881	REC_START	n/a	6	-999	n/a	KITE	n/a	n/a	1	[0, 0, 0]	-999	PAL1	0	R1095N
302.549	0.772	785881	TEST_PROBE	n/a	6	6	CAVE	KITE	CAVE	KITE	1	[0, 0, 0]	-999	PAL1	0	R1095N
303.321	4.245	786653	REC_EVENT	772	6	6	CAVE	KITE	CAVE	KITE	1	[0, 0, 0]	-999	PAL1	0	R1095N
307.566	0.05	790899	REC_END	n/a	6	-999	n/a	n/a	n/a	n/a	1	[0, 0, 0]	-999	PAL1	0	R1095N
307.616	10.388	790949	FEEDBACK_SHOW_ALL_PAIRS	n/a	6	-999	n/a	n/a	n/a	n/a	1	[0, 0, 0]	-999	PAL1	0	R1095N
318.004	10.448	801337	ENCODING_START	n/a	0	-999	n/a	n/a	n/a	n/a	2	[0, 0, 0]	-999	PAL1	0	R1095N
328.452	1.0	811785	STUDY_ORIENT	n/a	1	3	FROG	SUN	SUN	FROG	2	[0, 0, 0]	-999	PAL1	0	R1095N
329.452	5.034	812785	STUDY_PAIR	n/a	1	3	FROG	SUN	SUN	FROG	2	[0, 0, 0]	-999	PAL1	0	R1095N
334.486	0.916	817819	STUDY_ORIENT	n/a	2	4	CHIEF	SINK	CHIEF	SINK	2	[0, 0, 0]	-999	PAL1	0	R1095N
335.402	5.018	818735	STUDY_PAIR	n/a	2	4	CHIEF	SINK	CHIEF	SINK	2	[0, 0, 0]	-999	PAL1	0	R1095N
340.42	0.9	823753	STUDY_ORIENT	n/a	3	5	WHEEL	CAR	PLANE	WHEEL	2	[0, 0, 0]	-999	PAL1	0	R1095N
341.32	5.034	824653	STUDY_PAIR	n/a	3	5	WHEEL	CAR	PLANE	WHEEL	2	[0, 0, 0]	-999	PAL1	0	R1095N
346.354	0.966	829687	STUDY_ORIENT	n/a	4	6	CAR	HOUSE	CAR	HOUSE	2	[0, 0, 0]	-999	PAL1	0	R1095N
347.32	5.018	830653	STUDY_PAIR	n/a	4	6	CAR	HOUSE	CAR	HOUSE	2	[0, 0, 0]	-999	PAL1	0	R1095N
352.338	0.901	835671	STUDY_ORIENT	n/a	5	1	PEN	ANT	ANT	PEN	2	[0, 0, 0]	-999	PAL1	0	R1095N
353.239	5.034	836572	STUDY_PAIR	n/a	5	1	PEN	ANT	ANT	PEN	2	[0, 0, 0]	-999	PAL1	0	R1095N
358.273	1.016	841606	STUDY_ORIENT	n/a	6	2	MOUTH	SEA	SEA	MOUTH	2	[0, 0, 0]	-999	PAL1	0	R1095N
359.289	4.001	842622	STUDY_PAIR	n/a	6	2	MOUTH	SEA	SEA	MOUTH	2	[0, 0, 0]	-999	PAL1	0	R1095N
363.29	1.0	846623	START	n/a	-999	-999	n/a	n/a	n/a	n/a	2	[-999, -999, -999]	-999	PAL1	0	R1095N
364.29	0.016	847623	MATH_START	n/a	-999	-999	n/a	n/a	n/a	n/a	2	[0, 0, 0]	-999	PAL1	0	R1095N
364.306	4.734	847639	PROB	4703	-999	-999	n/a	n/a	n/a	n/a	2	[3, 3, 4]	10	PAL1	0	R1095N
369.04	3.083	852373	PROB	3057	-999	-999	n/a	n/a	n/a	n/a	2	[6, 2, 8]	16	PAL1	0	R1095N
372.123	2.434	855456	PROB	2405	-999	-999	n/a	n/a	n/a	n/a	2	[6, 4, 1]	11	PAL1	0	R1095N
374.557	3.517	857890	PROB	3491	-999	-999	n/a	n/a	n/a	n/a	2	[2, 8, 2]	12	PAL1	0	R1095N
378.074	5.542	861407	PROB	5542	-999	-999	n/a	n/a	n/a	n/a	2	[5, 8, 1]	14	PAL1	0	R1095N
383.616	0.009	866949	STOP	n/a	-999	-999	n/a	n/a	n/a	n/a	2	[-999, -999, -999]	-999	PAL1	0	R1095N
383.625	0.0	866958	TEST_START	n/a	-999	-999	n/a	n/a	n/a	n/a	2	[0, 0, 0]	-999	PAL1	0	R1095N
383.625	0.016	866958	MATH_END	n/a	-999	-999	n/a	n/a	n/a	n/a	2	[0, 0, 0]	-999	PAL1	0	R1095N
383.641	0.934	866974	TEST_ORIENT	n/a	5	1	PEN	ANT	ANT	PEN	2	[0, 0, 0]	-999	PAL1	0	R1095N
384.575	0.0	867908	TEST_PROBE	n/a	5	1	PEN	ANT	ANT	PEN	2	[0, 0, 0]	-999	PAL1	0	R1095N
384.575	0.841	867908	REC_START	n/a	5	-999	n/a	ANT	n/a	n/a	2	[0, 0, 0]	-999	PAL1	0	R1095N
385.416	4.176	868749	REC_EVENT	841	5	1	PEN	ANT	ANT	PEN	2	[0, 0, 0]	-999	PAL1	0	R1095N
389.592	0.017	872925	REC_END	n/a	5	-999	n/a	n/a	n/a	n/a	2	[0, 0, 0]	-999	PAL1	0	R1095N
389.609	1.033	872942	TEST_ORIENT	n/a	6	2	MOUTH	SEA	SEA	MOUTH	2	[0, 0, 0]	-999	PAL1	0	R1095N
390.642	0.001	873976	TEST_PROBE	n/a	6	2	MOUTH	SEA	SEA	MOUTH	2	[0, 0, 0]	-999	PAL1	0	R1095N
390.643	0.663	873977	REC_START	n/a	6	-999	n/a	SEA	n/a	n/a	2	[0, 0, 0]	-999	PAL1	0	R1095N
391.306	4.361	874640	REC_EVENT	663	6	2	MOUTH	SEA	SEA	MOUTH	2	[0, 0, 0]	-999	PAL1	0	R1095N
395.667	0.009	879001	REC_END	n/a	6	-999	n/a	n/a	n/a	n/a	2	[0, 0, 0]	-999	PAL1	0	R1095N
395.676	1.0	879010	TEST_ORIENT	n/a	1	3	FROG	SUN	SUN	FROG	2	[0, 0, 0]	-999	PAL1	0	R1095N
396.676	0.001	880010	TEST_PROBE	n/a	1	3	FROG	SUN	SUN	FROG	2	[0, 0, 0]	-999	PAL1	0	R1095N
396.677	0.689	880011	REC_START	n/a	1	-999	n/a	SUN	n/a	n/a	2	[0, 0, 0]	-999	PAL1	0	R1095N
397.366	4.327	880700	REC_EVENT	689	1	3	FROG	SUN	SUN	FROG	2	[0, 0, 0]	-999	PAL1	0	R1095N
401.693	0.017	885027	REC_END	n/a	1	-999	n/a	n/a	n/a	n/a	2	[0, 0, 0]	-999	PAL1	0	R1095N
401.71	0.85	885044	TEST_ORIENT	n/a	2	4	CHIEF	SINK	CHIEF	SINK	2	[0, 0, 0]	-999	PAL1	0	R1095N
402.56	0.001	885894	TEST_PROBE	n/a	2	4	CHIEF	SINK	CHIEF	SINK	2	[0, 0, 0]	-999	PAL1	0	R1095N
402.561	1.342	885895	REC_START	n/a	2	-999	n/a	SINK	n/a	n/a	2	[0, 0, 0]	-999	PAL1	0	R1095N
403.903	3.674	887237	REC_EVENT	1342	2	4	CHIEF	SINK	CHIEF	SINK	2	[0, 0, 0]	-999	PAL1	0	R1095N
407.577	0.017	890911	REC_END	n/a	2	-999	n/a	n/a	n/a	n/a	2	[0, 0, 0]	-999	PAL1	0	R1095N
407.594	1.017	890928	TEST_ORIENT	n/a	3	5	WHEEL	CAR	PLANE	WHEEL	2	[0, 0, 0]	-999	PAL1	0	R1095N
408.611	0.0	891945	TEST_PROBE	n/a	3	5	WHEEL	CAR	PLANE	WHEEL	2	[0, 0, 0]	-999	PAL1	0	R1095N
408.611	2.516	891945	REC_START	n/a	3	-999	n/a	CAR	n/a	n/a	2	[0, 0, 0]	-999	PAL1	0	R1095N
411.127	2.501	894461	REC_EVENT	2516	3	5	WHEEL	CAR	PLANE	WHEEL	2	[0, 0, 0]	-999	PAL1	0	R1095N
413.628	0.017	896962	REC_END	n/a	3	-999	n/a	n/a	n/a	n/a	2	[0, 0, 0]	-999	PAL1	0	R1095N
413.645	1.017	896979	TEST_ORIENT	n/a	4	6	CAR	HOUSE	CAR	HOUSE	2	[0, 0, 0]	-999	PAL1	0	R1095N
414.662	0.0	897996	REC_START	n/a	4	-999	n/a	HOUSE	n/a	n/a	2	[0, 0, 0]	-999	PAL1	0	R1095N
414.662	2.476	897996	TEST_PROBE	n/a	4	6	CAR	HOUSE	CAR	HOUSE	2	[0, 0, 0]	-999	PAL1	0	R1095N
417.138	2.541	900472	REC_EVENT	2476	4	6	CAR	HOUSE	CAR	HOUSE	2	[0, 0, 0]	-999	PAL1	0	R1095N
419.679	0.033	903013	REC_END	n/a	4	-999	n/a	n/a	n/a	n/a	2	[0, 0, 0]	-999	PAL1	0	R1095N
419.712	16.989	903046	FEEDBACK_SHOW_ALL_PAIRS	n/a	4	-999	n/a	n/a	n/a	n/a	2	[0, 0, 0]	-999	PAL1	0	R1095N
436.701	10.448	920035	ENCODING_START	n/a	0	-999	n/a	n/a	n/a	n/a	3	[0, 0, 0]	-999	PAL1	0	R1095N
447.149	1.0	930483	STUDY_ORIENT	n/a	1	5	SOUP	APE	SOUP	APE	3	[0, 0, 0]	-999	PAL1	0	R1095N
448.149	5.034	931483	STUDY_PAIR	n/a	1	5	SOUP	APE	SOUP	APE	3	[0, 0, 0]	-999	PAL1	0	R1095N
453.183	1.0	936517	STUDY_ORIENT	n/a	2	4	SHEET	DOLL	SHEET	DOLL	3	[0, 0, 0]	-999	PAL1	0	R1095N
454.183	5.035	937517	STUDY_PAIR	n/a	2	4	SHEET	DOLL	SHEET	DOLL	3	[0, 0, 0]	-999	PAL1	0	R1095N
459.218	0.949	942552	STUDY_ORIENT	n/a	3	3	TRUCK	TREE	TRUCK	TREE	3	[0, 0, 0]	-999	PAL1	0	R1095N
460.167	5.034	943501	STUDY_PAIR	n/a	3	3	TRUCK	TREE	TRUCK	TREE	3	[0, 0, 0]	-999	PAL1	0	R1095N
465.201	0.983	948535	STUDY_ORIENT	n/a	4	6	FILM	n/a	FILM	OWL	3	[0, 0, 0]	-999	PAL1	0	R1095N
466.184	5.035	949518	STUDY_PAIR	n/a	4	6	FILM	n/a	FILM	OWL	3	[0, 0, 0]	-999	PAL1	0	R1095N
471.219	0.899	954553	STUDY_ORIENT	n/a	5	1	BLOOM	LAWN	BLOOM	LAWN	3	[0, 0, 0]	-999	PAL1	0	R1095N
472.118	5.018	955452	STUDY_PAIR	n/a	5	1	BLOOM	LAWN	BLOOM	LAWN	3	[0, 0, 0]	-999	PAL1	0	R1095N
477.136	0.783	960471	STUDY_ORIENT	n/a	6	2	LEAF	n/a	BAND	LEAF	3	[0, 0, 0]	-999	PAL1	0	R1095N
477.919	4.001	961254	STUDY_PAIR	n/a	6	2	LEAF	n/a	BAND	LEAF	3	[0, 0, 0]	-999	PAL1	0	R1095N
481.92	0.999	965255	START	n/a	-999	-999	n/a	n/a	n/a	n/a	3	[-999, -999, -999]	-999	PAL1	0	R1095N
482.919	0.017	966254	MATH_START	n/a	-999	-999	n/a	n/a	n/a	n/a	3	[0, 0, 0]	-999	PAL1	0	R1095N
482.936	3.352	966271	PROB	3332	-999	-999	n/a	n/a	n/a	n/a	3	[4, 1, 6]	1	PAL1	0	R1095N
486.288	3.499	969623	PROB	3474	-999	-999	n/a	n/a	n/a	n/a	3	[8, 2, 4]	14	PAL1	0	R1095N
489.787	4.984	973122	PROB	4959	-999	-999	n/a	n/a	n/a	n/a	3	[7, 7, 8]	22	PAL1	0	R1095N
494.771	3.934	978106	PROB	3903	-999	-999	n/a	n/a	n/a	n/a	3	[6, 3, 2]	11	PAL1	0	R1095N
498.705	4.137	982040	PROB	4137	-999	-999	n/a	n/a	n/a	n/a	3	[5, 3, 9]	17	PAL1	0	R1095N
502.842	0.013	986177	STOP	n/a	-999	-999	n/a	n/a	n/a	n/a	3	[-999, -999, -999]	-999	PAL1	0	R1095N
502.855	0.0	986190	TEST_START	n/a	-999	-999	n/a	n/a	n/a	n/a	3	[0, 0, 0]	-999	PAL1	0	R1095N
502.855	0.017	986190	MATH_END	n/a	-999	-999	n/a	n/a	n/a	n/a	3	[0, 0, 0]	-999	PAL1	0	R1095N
502.872	0.967	986207	TEST_ORIENT	n/a	5	1	BLOOM	LAWN	BLOOM	LAWN	3	[0, 0, 0]	-999	PAL1	0	R1095N
503.839	0.0	987174	TEST_PROBE	n/a	5	1	BLOOM	LAWN	BLOOM	LAWN	3	[0, 0, 0]	-999	PAL1	0	R1095N
503.839	1.845	987174	REC_START	n/a	5	-999	n/a	LAWN	n/a	n/a	3	[0, 0, 0]	-999	PAL1	0	R1095N
505.684	3.172	989019	REC_EVENT	1845	5	1	BLOOM	LAWN	BLOOM	LAWN	3	[0, 0, 0]	-999	PAL1	0	R1095N
508.856	0.017	992191	REC_END	n/a	5	-999	n/a	n/a	n/a	n/a	3	[0, 0, 0]	-999	PAL1	0	R1095N
508.873	1.017	992208	TEST_ORIENT	n/a	6	2	LEAF	n/a	BAND	LEAF	3	[0, 0, 0]	-999	PAL1	0	R1095N
509.89	0.0	993225	TEST_PROBE	n/a	6	2	LEAF	n/a	BAND	LEAF	3	[0, 0, 0]	-999	PAL1	0	R1095N
509.89	5.015	993225	REC_START	n/a	6	-999	n/a	n/a	n/a	n/a	3	[0, 0, 0]	-999	PAL1	0	R1095N
514.905	0.002	998240	REC_EVENT	5015	6	2	LEAF	<>	BAND	LEAF	3	[0, 0, 0]	-999	PAL1	0	R1095N
514.907	0.016	998242	REC_END	n/a	6	-999	n/a	n/a	n/a	n/a	3	[0, 0, 0]	-999	PAL1	0	R1095N
514.923	0.801	998258	TEST_ORIENT	n/a	3	3	TRUCK	TREE	TRUCK	TREE	3	[0, 0, 0]	-999	PAL1	0	R1095N
515.724	0.0	999059	TEST_PROBE	n/a	3	3	TRUCK	TREE	TRUCK	TREE	3	[0, 0, 0]	-999	PAL1	0	R1095N
515.724	0.815	999059	REC_START	n/a	3	-999	n/a	TREE	n/a	n/a	3	[0, 0, 0]	-999	PAL1	0	R1095N
516.539	4.202	999874	REC_EVENT	815	3	3	TRUCK	TREE	TRUCK	TREE	3	[0, 0, 0]	-999	PAL1	0	R1095N
520.741	0.016	1004076	REC_END	n/a	3	-999	n/a	n/a	n/a	n/a	3	[0, 0, 0]	-999	PAL1	0	R1095N
520.757	0.834	1004092	TEST_ORIENT	n/a	2	4	SHEET	DOLL	SHEET	DOLL	3	[0, 0, 0]	-999	PAL1	0	R1095N
521.591	0.001	1004926	TEST_PROBE	n/a	2	4	SHEET	DOLL	SHEET	DOLL	3	[0, 0, 0]	-999	PAL1	0	R1095N
521.592	1.026	1004927	REC_START	n/a	2	-999	n/a	DOLL	n/a	n/a	3	[0, 0, 0]	-999	PAL1	0	R1095N
522.618	3.998	1005953	REC_EVENT	1026	2	4	SHEET	DOLL	SHEET	DOLL	3	[0, 0, 0]	-999	PAL1	0	R1095N
526.616	0.009	1009951	REC_END	n/a	2	-999	n/a	n/a	n/a	n/a	3	[0, 0, 0]	-999	PAL1	0	R1095N
526.625	0.95	1009960	TEST_ORIENT	n/a	1	5	SOUP	APE	SOUP	APE	3	[0, 0, 0]	-999	PAL1	0	R1095N
527.575	0.001	1010910	TEST_PROBE	n/a	1	5	SOUP	APE	SOUP	APE	3	[0, 0, 0]	-999	PAL1	0	R1095N
527.576	1.209	1010911	REC_START	n/a	1	-999	n/a	APE	n/a	n/a	3	[0, 0, 0]	-999	PAL1	0	R1095N
528.785	3.815	1012120	REC_EVENT	1209	1	5	SOUP	APE	SOUP	APE	3	[0, 0, 0]	-999	PAL1	0	R1095N
532.6	0.009	1015935	REC_END	n/a	1	-999	n/a	n/a	n/a	n/a	3	[0, 0, 0]	-999	PAL1	0	R1095N
532.609	0.967	1015944	TEST_ORIENT	n/a	4	6	FILM	n/a	FILM	OWL	3	[0, 0, 0]	-999	PAL1	0	R1095N
533.576	0.0	1016911	REC_START	n/a	4	-999	n/a	n/a	n/a	n/a	3	[0, 0, 0]	-999	PAL1	0	R1095N
533.576	5.017	1016911	TEST_PROBE	n/a	4	6	FILM	n/a	FILM	OWL	3	[0, 0, 0]	-999	PAL1	0	R1095N
538.593	0.004	1021928	REC_END	n/a	4	-999	n/a	n/a	n/a	n/a	3	[0, 0, 0]	-999	PAL1	0	R1095N
538.597	0.029	1021932	REC_EVENT	5021	4	6	FILM	<>	FILM	OWL	3	[0, 0, 0]	-999	PAL1	0	R1095N
538.626	9.941	1021961	FEEDBACK_SHOW_ALL_PAIRS	n/a	4	-999	n/a	n/a	n/a	n/a	3	[0, 0, 0]	-999	PAL1	0	R1095N
548.567	10.445	1031902	ENCODING_START	n/a	0	-999	n/a	n/a	n/a	n/a	4	[0, 0, 0]	-999	PAL1	0	R1095N
559.012	0.933	1042348	STUDY_ORIENT	n/a	1	3	FAN	STAIR	FAN	STAIR	4	[0, 0, 0]	-999	PAL1	0	R1095N
559.945	5.018	1043281	STUDY_PAIR	n/a	1	3	FAN	STAIR	FAN	STAIR	4	[0, 0, 0]	-999	PAL1	0	R1095N
564.963	0.833	1048299	STUDY_ORIENT	n/a	2	2	WAND	n/a	RUG	WAND	4	[0, 0, 0]	-999	PAL1	0	R1095N
565.796	5.034	1049132	STUDY_PAIR	n/a	2	2	WAND	n/a	RUG	WAND	4	[0, 0, 0]	-999	PAL1	0	R1095N
570.83	0.984	1054166	STUDY_ORIENT	n/a	3	5	SIGN	n/a	SIGN	FARM	4	[0, 0, 0]	-999	PAL1	0	R1095N
571.814	5.033	1055150	STUDY_PAIR	n/a	3	5	SIGN	n/a	SIGN	FARM	4	[0, 0, 0]	-999	PAL1	0	R1095N
576.847	0.901	1060183	STUDY_ORIENT	n/a	4	4	CLOWN	MAZE	CLOWN	MAZE	4	[0, 0, 0]	-999	PAL1	0	R1095N
577.748	5.033	1061084	STUDY_PAIR	n/a	4	4	CLOWN	MAZE	CLOWN	MAZE	4	[0, 0, 0]	-999	PAL1	0	R1095N
582.781	0.934	1066117	STUDY_ORIENT	n/a	5	1	SHELL	n/a	MULE	SHELL	4	[0, 0, 0]	-999	PAL1	0	R1095N
583.715	5.034	1067051	STUDY_PAIR	n/a	5	1	SHELL	n/a	MULE	SHELL	4	[0, 0, 0]	-999	PAL1	0	R1095N
588.749	1.0	1072085	STUDY_ORIENT	n/a	6	6	EGG	OAK	EGG	OAK	4	[0, 0, 0]	-999	PAL1	0	R1095N
589.749	4.017	1073085	STUDY_PAIR	n/a	6	6	EGG	OAK	EGG	OAK	4	[0, 0, 0]	-999	PAL1	0	R1095N
593.766	1.0	1077102	START	n/a	-999	-999	n/a	n/a	n/a	n/a	4	[-999, -999, -999]	-999	PAL1	0	R1095N
594.766	0.017	1078102	MATH_START	n/a	-999	-999	n/a	n/a	n/a	n/a	4	[0, 0, 0]	-999	PAL1	0	R1095N
594.783	4.034	1078119	PROB	4014	-999	-999	n/a	n/a	n/a	n/a	4	[4, 3, 6]	13	PAL1	0	R1095N
598.817	4.367	1082153	PROB	4340	-999	-999	n/a	n/a	n/a	n/a	4	[8, 4, 6]	18	PAL1	0	R1095N
603.184	3.017	1086520	PROB	2996	-999	-999	n/a	n/a	n/a	n/a	4	[3, 2, 7]	12	PAL1	0	R1095N
606.201	2.5	1089537	PROB	2467	-999	-999	n/a	n/a	n/a	n/a	4	[2, 3, 7]	12	PAL1	0	R1095N
608.701	6.791	1092037	PROB	6791	-999	-999	n/a	n/a	n/a	n/a	4	[9, 7, 8]	24	PAL1	0	R1095N
615.492	0.01	1098828	STOP	n/a	-999	-999	n/a	n/a	n/a	n/a	4	[-999, -999, -999]	-999	PAL1	0	R1095N
615.502	0.0	1098838	MATH_END	n/a	-999	-999	n/a	n/a	n/a	n/a	4	[0, 0, 0]	-999	PAL1	0	R1095N
615.502	0.017	1098838	TEST_START	n/a	-999	-999	n/a	n/a	n/a	n/a	4	[0, 0, 0]	-999	PAL1	0	R1095N
615.519	0.883	1098855	TEST_ORIENT	n/a	5	1	SHELL	n/a	MULE	SHELL	4	[0, 0, 0]	-999	PAL1	0	R1095N
616.402	0.001	1099738	TEST_PROBE	n/a	5	1	SHELL	n/a	MULE	SHELL	4	[0, 0, 0]	-999	PAL1	0	R1095N
616.403	5.016	1099739	REC_START	n/a	5	-999	n/a	n/a	n/a	n/a	4	[0, 0, 0]	-999	PAL1	0	R1095N
621.419	0.005	1104755	REC_END	n/a	5	-999	n/a	n/a	n/a	n/a	4	[0, 0, 0]	-999	PAL1	0	R1095N
621.424	0.012	1104760	REC_EVENT	5021	5	1	SHELL	<>	MULE	SHELL	4	[0, 0, 0]	-999	PAL1	0	R1095N
621.436	0.933	1104772	TEST_ORIENT	n/a	2	2	WAND	n/a	RUG	WAND	4	[0, 0, 0]	-999	PAL1	0	R1095N
622.369	0.001	1105705	TEST_PROBE	n/a	2	2	WAND	n/a	RUG	WAND	4	[0, 0, 0]	-999	PAL1	0	R1095N
622.37	5.008	1105706	REC_START	n/a	2	-999	n/a	n/a	n/a	n/a	4	[0, 0, 0]	-999	PAL1	0	R1095N
627.378	0.001	1110714	REC_END	n/a	2	-999	n/a	n/a	n/a	n/a	4	[0, 0, 0]	-999	PAL1	0	R1095N
627.379	0.008	1110715	REC_EVENT	5009	2	2	WAND	<>	RUG	WAND	4	[0, 0, 0]	-999	PAL1	0	R1095N
627.387	0.983	1110723	TEST_ORIENT	n/a	1	3	FAN	STAIR	FAN	STAIR	4	[0, 0, 0]	-999	PAL1	0	R1095N
628.37	0.001	1111706	TEST_PROBE	n/a	1	3	FAN	STAIR	FAN	STAIR	4	[0, 0, 0]	-999	PAL1	0	R1095N
628.371	0.822	1111707	REC_START	n/a	1	-999	n/a	STAIR	n/a	n/a	4	[0, 0, 0]	-999	PAL1	0	R1095N
629.193	4.202	1112529	REC_EVENT	822	1	3	FAN	STAIR	FAN	STAIR	4	[0, 0, 0]	-999	PAL1	0	R1095N
633.395	0.009	1116731	REC_END	n/a	1	-999	n/a	n/a	n/a	n/a	4	[0, 0, 0]	-999	PAL1	0	R1095N
633.404	0.818	1116740	TEST_ORIENT	n/a	4	4	CLOWN	MAZE	CLOWN	MAZE	4	[0, 0, 0]	-999	PAL1	0	R1095N
634.222	0.0	1117558	TEST_PROBE	n/a	4	4	CLOWN	MAZE	CLOWN	MAZE	4	[0, 0, 0]	-999	PAL1	0	R1095N
634.222	2.076	1117558	REC_START	n/a	4	-999	n/a	MAZE	n/a	n/a	4	[0, 0, 0]	-999	PAL1	0	R1095N
636.298	2.941	1119634	REC_EVENT	2076	4	4	CLOWN	MAZE	CLOWN	MAZE	4	[0, 0, 0]	-999	PAL1	0	R1095N
639.239	0.017	1122575	REC_END	n/a	4	-999	n/a	n/a	n/a	n/a	4	[0, 0, 0]	-999	PAL1	0	R1095N
639.256	0.799	1122592	TEST_ORIENT	n/a	3	5	SIGN	n/a	SIGN	FARM	4	[0, 0, 0]	-999	PAL1	0	R1095N
640.055	0.0	1123391	TEST_PROBE	n/a	3	5	SIGN	n/a	SIGN	FARM	4	[0, 0, 0]	-999	PAL1	0	R1095N
640.055	5.015	1123391	REC_START	n/a	3	-999	n/a	n/a	n/a	n/a	4	[0, 0, 0]	-999	PAL1	0	R1095N
645.07	0.002	1128407	REC_EVENT	5015	3	5	SIGN	<>	SIGN	FARM	4	[0, 0, 0]	-999	PAL1	0	R1095N
645.072	0.017	1128409	REC_END	n/a	3	-999	n/a	n/a	n/a	n/a	4	[0, 0, 0]	-999	PAL1	0	R1095N
645.089	0.8	1128426	TEST_ORIENT	n/a	6	6	EGG	OAK	EGG	OAK	4	[0, 0, 0]	-999	PAL1	0	R1095N
645.889	0.0	1129226	TEST_PROBE	n/a	6	6	EGG	OAK	EGG	OAK	4	[0, 0, 0]	-999	PAL1	0	R1095N
645.889	0.766	1129226	REC_START	n/a	6	-999	n/a	OAK	n/a	n/a	4	[0, 0, 0]	-999	PAL1	0	R1095N
646.655	4.251	1129992	REC_EVENT	766	6	6	EGG	OAK	EGG	OAK	4	[0, 0, 0]	-999	PAL1	0	R1095N
650.906	0.033	1134243	REC_END	n/a	6	-999	n/a	n/a	n/a	n/a	4	[0, 0, 0]	-999	PAL1	0	R1095N
650.939	11.942	1134276	FEEDBACK_SHOW_ALL_PAIRS	n/a	6	-999	n/a	n/a	n/a	n/a	4	[0, 0, 0]	-999	PAL1	0	R1095N
662.881	10.444	1146218	ENCODING_START	n/a	0	-999	n/a	n/a	n/a	n/a	5	[0, 0, 0]	-999	PAL1	0	R1095N
673.325	0.884	1156662	STUDY_ORIENT	n/a	1	5	STORE	BALL	STORE	BALL	5	[0, 0, 0]	-999	PAL1	0	R1095N
674.209	5.035	1157546	STUDY_PAIR	n/a	1	5	STORE	BALL	STORE	BALL	5	[0, 0, 0]	-999	PAL1	0	R1095N
679.244	0.932	1162581	STUDY_ORIENT	n/a	2	4	VAN	n/a	GEESE	VAN	5	[0, 0, 0]	-999	PAL1	0	R1095N
680.176	5.034	1163513	STUDY_PAIR	n/a	2	4	VAN	n/a	GEESE	VAN	5	[0, 0, 0]	-999	PAL1	0	R1095N
685.21	0.817	1168547	STUDY_ORIENT	n/a	3	1	ROPE	STRING	ROPE	SHIRT	5	[0, 0, 0]	-999	PAL1	0	R1095N
686.027	5.034	1169364	STUDY_PAIR	n/a	3	1	ROPE	STRING	ROPE	SHIRT	5	[0, 0, 0]	-999	PAL1	0	R1095N
691.061	0.867	1174398	STUDY_ORIENT	n/a	4	6	EEL	SEAT	SEAT	EEL	5	[0, 0, 0]	-999	PAL1	0	R1095N
691.928	5.033	1175265	STUDY_PAIR	n/a	4	6	EEL	SEAT	SEAT	EEL	5	[0, 0, 0]	-999	PAL1	0	R1095N
696.961	0.817	1180298	STUDY_ORIENT	n/a	5	3	STRING	n/a	PIN	STRING	5	[0, 0, 0]	-999	PAL1	0	R1095N
697.778	5.034	1181115	STUDY_PAIR	n/a	5	3	STRING	n/a	PIN	STRING	5	[0, 0, 0]	-999	PAL1	0	R1095N
702.812	0.867	1186149	STUDY_ORIENT	n/a	6	2	PEACH	WOOD	PEACH	WOOD	5	[0, 0, 0]	-999	PAL1	0	R1095N
703.679	4.017	1187016	STUDY_PAIR	n/a	6	2	PEACH	WOOD	PEACH	WOOD	5	[0, 0, 0]	-999	PAL1	0	R1095N
707.696	1.0	1191033	START	n/a	-999	-999	n/a	n/a	n/a	n/a	5	[-999, -999, -999]	-999	PAL1	0	R1095N
708.696	0.017	1192033	MATH_START	n/a	-999	-999	n/a	n/a	n/a	n/a	5	[0, 0, 0]	-999	PAL1	0	R1095N
708.713	3.717	1192050	PROB	3686	-999	-999	n/a	n/a	n/a	n/a	5	[1, 8, 1]	10	PAL1	0	R1095N
712.43	3.984	1195767	PROB	3961	-999	-999	n/a	n/a	n/a	n/a	5	[4, 3, 8]	15	PAL1	0	R1095N
716.414	2.35	1199751	PROB	2328	-999	-999	n/a	n/a	n/a	n/a	5	[2, 2, 4]	8	PAL1	0	R1095N
718.764	5.901	1202101	PROB	5874	-999	-999	n/a	n/a	n/a	n/a	5	[3, 6, 8]	17	PAL1	0	R1095N
724.665	1.917	1208002	PROB	1885	-999	-999	n/a	n/a	n/a	n/a	5	[2, 5, 5]	12	PAL1	0	R1095N
726.582	5.12	1209919	PROB	5120	-999	-999	n/a	n/a	n/a	n/a	5	[6, 7, 8]	21	PAL1	0	R1095N
731.702	0.014	1215040	STOP	n/a	-999	-999	n/a	n/a	n/a	n/a	5	[-999, -999, -999]	-999	PAL1	0	R1095N
731.716	0.0	1215054	MATH_END	n/a	-999	-999	n/a	n/a	n/a	n/a	5	[0, 0, 0]	-999	PAL1	0	R1095N
731.716	0.016	1215054	TEST_START	n/a	-999	-999	n/a	n/a	n/a	n/a	5	[0, 0, 0]	-999	PAL1	0	R1095N
731.732	0.8	1215070	TEST_ORIENT	n/a	3	1	ROPE	STRING	ROPE	SHIRT	5	[0, 0, 0]	-999	PAL1	0	R1095N
732.532	0.001	1215870	TEST_PROBE	n/a	3	1	ROPE	STRING	ROPE	SHIRT	5	[0, 0, 0]	-999	PAL1	0	R1095N
732.533	0.84	1215871	REC_START	n/a	3	-999	n/a	STRING	n/a	n/a	5	[0, 0, 0]	-999	PAL1	0	R1095N
733.373	4.168	1216711	REC_EVENT	840	3	1	ROPE	STRING	ROPE	SHIRT	5	[0, 0, 0]	-999	PAL1	0	R1095N
737.541	0.008	1220879	REC_END	n/a	3	-999	n/a	n/a	n/a	n/a	5	[0, 0, 0]	-999	PAL1	0	R1095N
737.549	0.934	1220887	TEST_ORIENT	n/a	6	2	PEACH	WOOD	PEACH	WOOD	5	[0, 0, 0]	-999	PAL1	0	R1095N
738.483	0.001	1221821	TEST_PROBE	n/a	6	2	PEACH	WOOD	PEACH	WOOD	5	[0, 0, 0]	-999	PAL1	0	R1095N
738.484	0.867	1221822	REC_START	n/a	6	-999	n/a	WOOD	n/a	n/a	5	[0, 0, 0]	-999	PAL1	0	R1095N
739.351	4.157	1222689	REC_EVENT	867	6	2	PEACH	WOOD	PEACH	WOOD	5	[0, 0, 0]	-999	PAL1	0	R1095N
743.508	0.009	1226846	REC_END	n/a	6	-999	n/a	n/a	n/a	n/a	5	[0, 0, 0]	-999	PAL1	0	R1095N
743.517	1.0	1226855	TEST_ORIENT	n/a	5	3	STRING	n/a	PIN	STRING	5	[0, 0, 0]	-999	PAL1	0	R1095N
744.517	0.001	1227855	TEST_PROBE	n/a	5	3	STRING	n/a	PIN	STRING	5	[0, 0, 0]	-999	PAL1	0	R1095N
744.518	5.024	1227856	REC_START	n/a	5	-999	n/a	n/a	n/a	n/a	5	[0, 0, 0]	-999	PAL1	0	R1095N
749.542	0.003	1232880	REC_END	n/a	5	-999	n/a	n/a	n/a	n/a	5	[0, 0, 0]	-999	PAL1	0	R1095N
749.545	0.006	1232883	REC_EVENT	5027	5	3	STRING	<>	PIN	STRING	5	[0, 0, 0]	-999	PAL1	0	R1095N
749.551	1.017	1232889	TEST_ORIENT	n/a	2	4	VAN	n/a	GEESE	VAN	5	[0, 0, 0]	-999	PAL1	0	R1095N
750.568	0.001	1233906	TEST_PROBE	n/a	2	4	VAN	n/a	GEESE	VAN	5	[0, 0, 0]	-999	PAL1	0	R1095N
750.569	5.021	1233907	REC_START	n/a	2	-999	n/a	n/a	n/a	n/a	5	[0, 0, 0]	-999	PAL1	0	R1095N
755.59	0.003	1238928	REC_EVENT	5021	2	4	VAN	<>	GEESE	VAN	5	[0, 0, 0]	-999	PAL1	0	R1095N
755.593	0.009	1238931	REC_END	n/a	2	-999	n/a	n/a	n/a	n/a	5	[0, 0, 0]	-999	PAL1	0	R1095N
755.602	0.883	1238940	TEST_ORIENT	n/a	1	5	STORE	BALL	STORE	BALL	5	[0, 0, 0]	-999	PAL1	0	R1095N
756.485	0.001	1239823	TEST_PROBE	n/a	1	5	STORE	BALL	STORE	BALL	5	[0, 0, 0]	-999	PAL1	0	R1095N
756.486	0.907	1239824	REC_START	n/a	1	-999	n/a	BALL	n/a	n/a	5	[0, 0, 0]	-999	PAL1	0	R1095N
757.393	4.117	1240731	REC_EVENT	907	1	5	STORE	BALL	STORE	BALL	5	[0, 0, 0]	-999	PAL1	0	R1095N
761.51	0.009	1244848	REC_END	n/a	1	-999	n/a	n/a	n/a	n/a	5	[0, 0, 0]	-999	PAL1	0	R1095N
761.519	1.017	1244857	TEST_ORIENT	n/a	4	6	EEL	SEAT	SEAT	EEL	5	[0, 0, 0]	-999	PAL1	0	R1095N
762.536	0.0	1245874	TEST_PROBE	n/a	4	6	EEL	SEAT	SEAT	EEL	5	[0, 0, 0]	-999	PAL1	0	R1095N
762.536	2.58	1245874	REC_START	n/a	4	-999	n/a	SEAT	n/a	n/a	5	[0, 0, 0]	-999	PAL1	0	R1095N
765.116	2.437	1248454	REC_EVENT	2580	4	6	EEL	SEAT	SEAT	EEL	5	[0, 0, 0]	-999	PAL1	0	R1095N
767.553	0.033	1250891	REC_END	n/a	4	-999	n/a	n/a	n/a	n/a	5	[0, 0, 0]	-999	PAL1	0	R1095N
767.586	107.076	1250924	FEEDBACK_SHOW_ALL_PAIRS	n/a	4	-999	n/a	n/a	n/a	n/a	5	[0, 0, 0]	-999	PAL1	0	R1095N
874.662	10.438	1358001	ENCODING_START	n/a	0	-999	n/a	n/a	n/a	n/a	6	[0, 0, 0]	-999	PAL1	0	R1095N
885.1	0.85	1368439	STUDY_ORIENT	n/a	1	1	PANTS	MOUSE	MOUSE	PANTS	6	[0, 0, 0]	-999	PAL1	0	R1095N
885.95	5.018	1369289	STUDY_PAIR	n/a	1	1	PANTS	MOUSE	MOUSE	PANTS	6	[0, 0, 0]	-999	PAL1	0	R1095N
890.968	1.016	1374307	STUDY_ORIENT	n/a	2	6	NET	n/a	NET	WEED	6	[0, 0, 0]	-999	PAL1	0	R1095N
891.984	5.018	1375323	STUDY_PAIR	n/a	2	6	NET	n/a	NET	WEED	6	[0, 0, 0]	-999	PAL1	0	R1095N
897.002	0.866	1380342	STUDY_ORIENT	n/a	3	5	WORLD	THREAD	WORLD	THREAD	6	[0, 0, 0]	-999	PAL1	0	R1095N
897.868	5.018	1381208	STUDY_PAIR	n/a	3	5	WORLD	THREAD	WORLD	THREAD	6	[0, 0, 0]	-999	PAL1	0	R1095N
902.886	0.867	1386226	STUDY_ORIENT	n/a	4	4	BEAR	NOSE	BEAR	NOSE	6	[0, 0, 0]	-999	PAL1	0	R1095N
903.753	5.034	1387093	STUDY_PAIR	n/a	4	4	BEAR	NOSE	BEAR	NOSE	6	[0, 0, 0]	-999	PAL1	0	R1095N
908.787	1.0	1392127	STUDY_ORIENT	n/a	5	3	HILL	n/a	HILL	BATH	6	[0, 0, 0]	-999	PAL1	0	R1095N
909.787	5.033	1393127	STUDY_PAIR	n/a	5	3	HILL	n/a	HILL	BATH	6	[0, 0, 0]	-999	PAL1	0	R1095N
914.82	0.867	1398160	STUDY_ORIENT	n/a	6	2	CALF	PASTE	CALF	PASTE	6	[0, 0, 0]	-999	PAL1	0	R1095N
915.687	4.018	1399027	STUDY_PAIR	n/a	6	2	CALF	PASTE	CALF	PASTE	6	[0, 0, 0]	-999	PAL1	0	R1095N
919.705	0.999	1403045	START	n/a	-999	-999	n/a	n/a	n/a	n/a	6	[-999, -999, -999]	-999	PAL1	0	R1095N
920.704	0.017	1404044	MATH_START	n/a	-999	-999	n/a	n/a	n/a	n/a	6	[0, 0, 0]	-999	PAL1	0	R1095N
920.721	7.851	1404061	PROB	7827	-999	-999	n/a	n/a	n/a	n/a	6	[9, 2, 3]	14	PAL1	0	R1095N
928.572	3.384	1411912	PROB	3351	-999	-999	n/a	n/a	n/a	n/a	6	[4, 6, 9]	19	PAL1	0	R1095N
931.956	2.567	1415296	PROB	2543	-999	-999	n/a	n/a	n/a	n/a	6	[5, 7, 5]	17	PAL1	0	R1095N
934.523	3.884	1417863	PROB	3864	-999	-999	n/a	n/a	n/a	n/a	6	[6, 9, 5]	20	PAL1	0	R1095N
938.407	2.853	1421747	PROB	2853	-999	-999	n/a	n/a	n/a	n/a	6	[5, 6, 4]	15	PAL1	0	R1095N
941.26	0.015	1424600	STOP	n/a	-999	-999	n/a	n/a	n/a	n/a	6	[-999, -999, -999]	-999	PAL1	0	R1095N
941.275	0.0	1424615	MATH_END	n/a	-999	-999	n/a	n/a	n/a	n/a	6	[0, 0, 0]	-999	PAL1	0	R1095N
941.275	0.016	1424615	TEST_START	n/a	-999	-999	n/a	n/a	n/a	n/a	6	[0, 0, 0]	-999	PAL1	0	R1095N
941.291	0.833	1424631	TEST_ORIENT	n/a	1	1	PANTS	MOUSE	MOUSE	PANTS	6	[0, 0, 0]	-999	PAL1	0	R1095N
942.124	0.0	1425464	TEST_PROBE	n/a	1	1	PANTS	MOUSE	MOUSE	PANTS	6	[0, 0, 0]	-999	PAL1	0	R1095N
942.124	0.955	1425464	REC_START	n/a	1	-999	n/a	MOUSE	n/a	n/a	6	[0, 0, 0]	-999	PAL1	0	R1095N
943.079	4.062	1426419	REC_EVENT	955	1	1	PANTS	MOUSE	MOUSE	PANTS	6	[0, 0, 0]	-999	PAL1	0	R1095N
947.141	0.017	1430481	REC_END	n/a	1	-999	n/a	n/a	n/a	n/a	6	[0, 0, 0]	-999	PAL1	0	R1095N
947.158	0.916	1430498	TEST_ORIENT	n/a	6	2	CALF	PASTE	CALF	PASTE	6	[0, 0, 0]	-999	PAL1	0	R1095N
948.074	0.001	1431414	TEST_PROBE	n/a	6	2	CALF	PASTE	CALF	PASTE	6	[0, 0, 0]	-999	PAL1	0	R1095N
948.075	0.835	1431415	REC_START	n/a	6	-999	n/a	PASTE	n/a	n/a	6	[0, 0, 0]	-999	PAL1	0	R1095N
948.91	4.181	1432250	REC_EVENT	835	6	2	CALF	PASTE	CALF	PASTE	6	[0, 0, 0]	-999	PAL1	0	R1095N
953.091	0.017	1436431	REC_END	n/a	6	-999	n/a	n/a	n/a	n/a	6	[0, 0, 0]	-999	PAL1	0	R1095N
953.108	0.934	1436448	TEST_ORIENT	n/a	5	3	HILL	n/a	HILL	BATH	6	[0, 0, 0]	-999	PAL1	0	R1095N
954.042	0.0	1437382	TEST_PROBE	n/a	5	3	HILL	n/a	HILL	BATH	6	[0, 0, 0]	-999	PAL1	0	R1095N
954.042	5.015	1437382	REC_START	n/a	5	-999	n/a	n/a	n/a	n/a	6	[0, 0, 0]	-999	PAL1	0	R1095N
959.057	0.002	1442397	REC_EVENT	5015	5	3	HILL	<>	HILL	BATH	6	[0, 0, 0]	-999	PAL1	0	R1095N
959.059	0.017	1442399	REC_END	n/a	5	-999	n/a	n/a	n/a	n/a	6	[0, 0, 0]	-999	PAL1	0	R1095N
959.076	0.967	1442416	TEST_ORIENT	n/a	4	4	BEAR	NOSE	BEAR	NOSE	6	[0, 0, 0]	-999	PAL1	0	R1095N
960.043	0.0	1443383	TEST_PROBE	n/a	4	4	BEAR	NOSE	BEAR	NOSE	6	[0, 0, 0]	-999	PAL1	0	R1095N
960.043	0.917	1443383	REC_START	n/a	4	-999	n/a	NOSE	n/a	n/a	6	[0, 0, 0]	-999	PAL1	0	R1095N
960.96	4.1	1444300	REC_EVENT	917	4	4	BEAR	NOSE	BEAR	NOSE	6	[0, 0, 0]	-999	PAL1	0	R1095N
965.06	0.016	1448400	REC_END	n/a	4	-999	n/a	n/a	n/a	n/a	6	[0, 0, 0]	-999	PAL1	0	R1095N
965.076	0.901	1448416	TEST_ORIENT	n/a	3	5	WORLD	THREAD	WORLD	THREAD	6	[0, 0, 0]	-999	PAL1	0	R1095N
965.977	0.0	1449317	TEST_PROBE	n/a	3	5	WORLD	THREAD	WORLD	THREAD	6	[0, 0, 0]	-999	PAL1	0	R1095N
965.977	0.804	1449317	REC_START	n/a	3	-999	n/a	THREAD	n/a	n/a	6	[0, 0, 0]	-999	PAL1	0	R1095N
966.781	4.213	1450121	REC_EVENT	804	3	5	WORLD	THREAD	WORLD	THREAD	6	[0, 0, 0]	-999	PAL1	0	R1095N
970.994	0.016	1454334	REC_END	n/a	3	-999	n/a	n/a	n/a	n/a	6	[0, 0, 0]	-999	PAL1	0	R1095N
971.01	1.017	1454350	TEST_ORIENT	n/a	2	6	NET	n/a	NET	WEED	6	[0, 0, 0]	-999	PAL1	0	R1095N
972.027	0.001	1455367	TEST_PROBE	n/a	2	6	NET	n/a	NET	WEED	6	[0, 0, 0]	-999	PAL1	0	R1095N
972.028	5.015	1455368	REC_START	n/a	2	-999	n/a	n/a	n/a	n/a	6	[0, 0, 0]	-999	PAL1	0	R1095N
977.043	0.001	1460383	REC_EVENT	5015	2	6	NET	<>	NET	WEED	6	[0, 0, 0]	-999	PAL1	0	R1095N
977.044	0.034	1460384	REC_END	n/a	2	-999	n/a	n/a	n/a	n/a	6	[0, 0, 0]	-999	PAL1	0	R1095N
977.078	10.427	1460418	FEEDBACK_SHOW_ALL_PAIRS	n/a	2	-999	n/a	n/a	n/a	n/a	6	[0, 0, 0]	-999	PAL1	0	R1095N
987.505	10.442	1470846	ENCODING_START	n/a	0	-999	n/a	n/a	n/a	n/a	7	[0, 0, 0]	-999	PAL1	0	R1095N
997.947	0.883	1481288	STUDY_ORIENT	n/a	1	3	BENCH	CAGE	BENCH	CAGE	7	[0, 0, 0]	-999	PAL1	0	R1095N
998.83	5.034	1482171	STUDY_PAIR	n/a	1	3	BENCH	CAGE	BENCH	CAGE	7	[0, 0, 0]	-999	PAL1	0	R1095N
1003.864	0.884	1487205	STUDY_ORIENT	n/a	2	6	SHEEP	MOOSE	SHEEP	MOOSE	7	[0, 0, 0]	-999	PAL1	0	R1095N
1004.748	5.034	1488089	STUDY_PAIR	n/a	2	6	SHEEP	MOOSE	SHEEP	MOOSE	7	[0, 0, 0]	-999	PAL1	0	R1095N
1009.782	0.849	1493123	STUDY_ORIENT	n/a	3	5	BEAN	LIP	BEAN	LIP	7	[0, 0, 0]	-999	PAL1	0	R1095N
1010.631	5.018	1493972	STUDY_PAIR	n/a	3	5	BEAN	LIP	BEAN	LIP	7	[0, 0, 0]	-999	PAL1	0	R1095N
1015.649	1.0	1498990	STUDY_ORIENT	n/a	4	4	CUP	n/a	CUP	SLUSH	7	[0, 0, 0]	-999	PAL1	0	R1095N
1016.649	5.034	1499990	STUDY_PAIR	n/a	4	4	CUP	n/a	CUP	SLUSH	7	[0, 0, 0]	-999	PAL1	0	R1095N
1021.683	0.983	1505024	STUDY_ORIENT	n/a	5	1	SOAP	BARN	SOAP	BARN	7	[0, 0, 0]	-999	PAL1	0	R1095N
1022.666	5.018	1506007	STUDY_PAIR	n/a	5	1	SOAP	BARN	SOAP	BARN	7	[0, 0, 0]	-999	PAL1	0	R1095N
1027.684	0.967	1511025	STUDY_ORIENT	n/a	6	2	FACE	CLOTH	CLOTH	FACE	7	[0, 0, 0]	-999	PAL1	0	R1095N
1028.651	4.017	1511992	STUDY_PAIR	n/a	6	2	FACE	CLOTH	CLOTH	FACE	7	[0, 0, 0]	-999	PAL1	0	R1095N
1032.668	1.0	1516009	START	n/a	-999	-999	n/a	n/a	n/a	n/a	7	[-999, -999, -999]	-999	PAL1	0	R1095N
1033.668	0.016	1517009	MATH_START	n/a	-999	-999	n/a	n/a	n/a	n/a	7	[0, 0, 0]	-999	PAL1	0	R1095N
1033.684	4.068	1517025	PROB	4042	-999	-999	n/a	n/a	n/a	n/a	7	[3, 8, 6]	17	PAL1	0	R1095N
1037.752	4.468	1521093	PROB	4438	-999	-999	n/a	n/a	n/a	n/a	7	[1, 6, 7]	14	PAL1	0	R1095N
1042.22	4.699	1525561	PROB	4665	-999	-999	n/a	n/a	n/a	n/a	7	[7, 9, 9]	25	PAL1	0	R1095N
1046.919	1.984	1530260	PROB	1950	-999	-999	n/a	n/a	n/a	n/a	7	[3, 3, 6]	12	PAL1	0	R1095N
1048.903	2.767	1532244	PROB	2734	-999	-999	n/a	n/a	n/a	n/a	7	[4, 9, 5]	18	PAL1	0	R1095N
1051.67	7.855	1535011	PROB	7855	-999	-999	n/a	n/a	n/a	n/a	7	[5, 9, 6]	20	PAL1	0	R1095N
1059.525	0.012	1542866	STOP	n/a	-999	-999	n/a	n/a	n/a	n/a	7	[-999, -999, -999]	-999	PAL1	0	R1095N
1059.537	0.0	1542878	MATH_END	n/a	-999	-999	n/a	n/a	n/a	n/a	7	[0, 0, 0]	-999	PAL1	0	R1095N
1059.537	0.017	1542878	TEST_START	n/a	-999	-999	n/a	n/a	n/a	n/a	7	[0, 0, 0]	-999	PAL1	0	R1095N
1059.554	0.983	1542895	TEST_ORIENT	n/a	5	1	SOAP	BARN	SOAP	BARN	7	[0, 0, 0]	-999	PAL1	0	R1095N
1060.537	0.001	1543878	TEST_PROBE	n/a	5	1	SOAP	BARN	SOAP	BARN	7	[0, 0, 0]	-999	PAL1	0	R1095N
1060.538	1.569	1543879	REC_START	n/a	5	-999	n/a	BARN	n/a	n/a	7	[0, 0, 0]	-999	PAL1	0	R1095N
1062.107	3.442	1545448	REC_EVENT	1569	5	1	SOAP	BARN	SOAP	BARN	7	[0, 0, 0]	-999	PAL1	0	R1095N
1065.549	0.006	1548891	REC_END	n/a	5	-999	n/a	n/a	n/a	n/a	7	[0, 0, 0]	-999	PAL1	0	R1095N
1065.555	0.95	1548897	TEST_ORIENT	n/a	6	2	FACE	CLOTH	CLOTH	FACE	7	[0, 0, 0]	-999	PAL1	0	R1095N
1066.505	0.001	1549847	TEST_PROBE	n/a	6	2	FACE	CLOTH	CLOTH	FACE	7	[0, 0, 0]	-999	PAL1	0	R1095N
1066.506	1.304	1549848	REC_START	n/a	6	-999	n/a	CLOTH	n/a	n/a	7	[0, 0, 0]	-999	PAL1	0	R1095N
1067.81	3.712	1551152	REC_EVENT	1304	6	2	FACE	CLOTH	CLOTH	FACE	7	[0, 0, 0]	-999	PAL1	0	R1095N
1071.522	0.017	1554864	REC_END	n/a	6	-999	n/a	n/a	n/a	n/a	7	[0, 0, 0]	-999	PAL1	0	R1095N
1071.539	0.967	1554881	TEST_ORIENT	n/a	1	3	BENCH	CAGE	BENCH	CAGE	7	[0, 0, 0]	-999	PAL1	0	R1095N
1072.506	0.0	1555848	TEST_PROBE	n/a	1	3	BENCH	CAGE	BENCH	CAGE	7	[0, 0, 0]	-999	PAL1	0	R1095N
1072.506	0.832	1555848	REC_START	n/a	1	-999	n/a	CAGE	n/a	n/a	7	[0, 0, 0]	-999	PAL1	0	R1095N
1073.338	4.185	1556680	REC_EVENT	832	1	3	BENCH	CAGE	BENCH	CAGE	7	[0, 0, 0]	-999	PAL1	0	R1095N
1077.523	0.017	1560865	REC_END	n/a	1	-999	n/a	n/a	n/a	n/a	7	[0, 0, 0]	-999	PAL1	0	R1095N
1077.54	0.866	1560882	TEST_ORIENT	n/a	4	4	CUP	n/a	CUP	SLUSH	7	[0, 0, 0]	-999	PAL1	0	R1095N
1078.406	0.001	1561748	TEST_PROBE	n/a	4	4	CUP	n/a	CUP	SLUSH	7	[0, 0, 0]	-999	PAL1	0	R1095N
1078.407	5.008	1561749	REC_START	n/a	4	-999	n/a	n/a	n/a	n/a	7	[0, 0, 0]	-999	PAL1	0	R1095N
1083.415	0.001	1566757	REC_END	n/a	4	-999	n/a	n/a	n/a	n/a	7	[0, 0, 0]	-999	PAL1	0	R1095N
1083.416	0.008	1566758	REC_EVENT	5009	4	4	CUP	<>	CUP	SLUSH	7	[0, 0, 0]	-999	PAL1	0	R1095N
1083.424	0.867	1566766	TEST_ORIENT	n/a	3	5	BEAN	LIP	BEAN	LIP	7	[0, 0, 0]	-999	PAL1	0	R1095N
1084.291	0.001	1567633	TEST_PROBE	n/a	3	5	BEAN	LIP	BEAN	LIP	7	[0, 0, 0]	-999	PAL1	0	R1095N
1084.292	0.836	1567634	REC_START	n/a	3	-999	n/a	LIP	n/a	n/a	7	[0, 0, 0]	-999	PAL1	0	R1095N
1085.128	4.171	1568470	REC_EVENT	836	3	5	BEAN	LIP	BEAN	LIP	7	[0, 0, 0]	-999	PAL1	0	R1095N
1089.299	0.009	1572641	REC_END	n/a	3	-999	n/a	n/a	n/a	n/a	7	[0, 0, 0]	-999	PAL1	0	R1095N
1089.308	0.967	1572650	TEST_ORIENT	n/a	2	6	SHEEP	MOOSE	SHEEP	MOOSE	7	[0, 0, 0]	-999	PAL1	0	R1095N
1090.275	0.001	1573617	TEST_PROBE	n/a	2	6	SHEEP	MOOSE	SHEEP	MOOSE	7	[0, 0, 0]	-999	PAL1	0	R1095N
1090.276	1.098	1573618	REC_START	n/a	2	-999	n/a	MOOSE	n/a	n/a	7	[0, 0, 0]	-999	PAL1	0	R1095N
1091.374	3.913	1574716	REC_EVENT	1098	2	6	SHEEP	MOOSE	SHEEP	MOOSE	7	[0, 0, 0]	-999	PAL1	0	R1095N
1095.287	0.021	1578629	REC_END	n/a	2	-999	n/a	n/a	n/a	n/a	7	[0, 0, 0]	-999	PAL1	0	R1095N
1095.308	10.798	1578650	FEEDBACK_SHOW_ALL_PAIRS	n/a	2	-999	n/a	n/a	n/a	n/a	7	[0, 0, 0]	-999	PAL1	0	R1095N
1106.106	10.438	1589448	ENCODING_START	n/a	0	-999	n/a	n/a	n/a	n/a	8	[0, 0, 0]	-999	PAL1	0	R1095N
1116.544	0.8	1599886	STUDY_ORIENT	n/a	1	1	DRESS	GLOVE	DRESS	GLOVE	8	[0, 0, 0]	-999	PAL1	0	R1095N
1117.344	5.034	1600686	STUDY_PAIR	n/a	1	1	DRESS	GLOVE	DRESS	GLOVE	8	[0, 0, 0]	-999	PAL1	0	R1095N
1122.378	0.917	1605720	STUDY_ORIENT	n/a	2	6	STAR	BOWL	BOWL	STAR	8	[0, 0, 0]	-999	PAL1	0	R1095N
1123.295	5.034	1606637	STUDY_PAIR	n/a	2	6	STAR	BOWL	BOWL	STAR	8	[0, 0, 0]	-999	PAL1	0	R1095N
1128.329	0.951	1611671	STUDY_ORIENT	n/a	3	3	TENT	BOMB	BOMB	TENT	8	[0, 0, 0]	-999	PAL1	0	R1095N
1129.28	5.033	1612622	STUDY_PAIR	n/a	3	3	TENT	BOMB	BOMB	TENT	8	[0, 0, 0]	-999	PAL1	0	R1095N
1134.313	0.8	1617655	STUDY_ORIENT	n/a	4	2	GOAT	SHARK	SHARK	GOAT	8	[0, 0, 0]	-999	PAL1	0	R1095N
1135.113	5.034	1618455	STUDY_PAIR	n/a	4	2	GOAT	SHARK	SHARK	GOAT	8	[0, 0, 0]	-999	PAL1	0	R1095N
1140.147	1.017	1623489	STUDY_ORIENT	n/a	5	5	TRASH	HAT	TRASH	HAT	8	[0, 0, 0]	-999	PAL1	0	R1095N
1141.164	5.034	1624506	STUDY_PAIR	n/a	5	5	TRASH	HAT	TRASH	HAT	8	[0, 0, 0]	-999	PAL1	0	R1095N
1146.198	0.95	1629540	STUDY_ORIENT	n/a	6	4	KEY	FORK	FORK	KEY	8	[0, 0, 0]	-999	PAL1	0	R1095N
1147.148	4.018	1630490	STUDY_PAIR	n/a	6	4	KEY	FORK	FORK	KEY	8	[0, 0, 0]	-999	PAL1	0	R1095N
1151.166	0.999	1634509	START	n/a	-999	-999	n/a	n/a	n/a	n/a	8	[-999, -999, -999]	-999	PAL1	0	R1095N
1152.165	0.017	1635508	MATH_START	n/a	-999	-999	n/a	n/a	n/a	n/a	8	[0, 0, 0]	-999	PAL1	0	R1095N
1152.182	3.683	1635525	PROB	3650	-999	-999	n/a	n/a	n/a	n/a	8	[4, 1, 2]	7	PAL1	0	R1095N
1155.865	2.701	1639208	PROB	2679	-999	-999	n/a	n/a	n/a	n/a	8	[1, 6, 3]	10	PAL1	0	R1095N
1158.566	3.484	1641909	PROB	3449	-999	-999	n/a	n/a	n/a	n/a	8	[2, 5, 6]	13	PAL1	0	R1095N
1162.05	2.55	1645393	PROB	2525	-999	-999	n/a	n/a	n/a	n/a	8	[2, 2, 3]	7	PAL1	0	R1095N
1164.6	4.167	1647943	PROB	4135	-999	-999	n/a	n/a	n/a	n/a	8	[6, 5, 7]	18	PAL1	0	R1095N
1168.767	3.896	1652110	PROB	3896	-999	-999	n/a	n/a	n/a	n/a	8	[7, 5, 3]	15	PAL1	0	R1095N
1172.663	0.004	1656006	STOP	n/a	-999	-999	n/a	n/a	n/a	n/a	8	[-999, -999, -999]	-999	PAL1	0	R1095N
1172.667	0.0	1656010	MATH_END	n/a	-999	-999	n/a	n/a	n/a	n/a	8	[0, 0, 0]	-999	PAL1	0	R1095N
1172.667	0.017	1656010	TEST_START	n/a	-999	-999	n/a	n/a	n/a	n/a	8	[0, 0, 0]	-999	PAL1	0	R1095N
1172.684	0.95	1656027	TEST_ORIENT	n/a	1	1	DRESS	GLOVE	DRESS	GLOVE	8	[0, 0, 0]	-999	PAL1	0	R1095N
1173.634	0.001	1656977	TEST_PROBE	n/a	1	1	DRESS	GLOVE	DRESS	GLOVE	8	[0, 0, 0]	-999	PAL1	0	R1095N
1173.635	0.817	1656978	REC_START	n/a	1	-999	n/a	GLOVE	n/a	n/a	8	[0, 0, 0]	-999	PAL1	0	R1095N
1174.452	4.199	1657795	REC_EVENT	817	1	1	DRESS	GLOVE	DRESS	GLOVE	8	[0, 0, 0]	-999	PAL1	0	R1095N
1178.651	0.017	1661994	REC_END	n/a	1	-999	n/a	n/a	n/a	n/a	8	[0, 0, 0]	-999	PAL1	0	R1095N
1178.668	0.85	1662011	TEST_ORIENT	n/a	4	2	GOAT	SHARK	SHARK	GOAT	8	[0, 0, 0]	-999	PAL1	0	R1095N
1179.518	0.001	1662861	TEST_PROBE	n/a	4	2	GOAT	SHARK	SHARK	GOAT	8	[0, 0, 0]	-999	PAL1	0	R1095N
1179.519	0.78	1662862	REC_START	n/a	4	-999	n/a	SHARK	n/a	n/a	8	[0, 0, 0]	-999	PAL1	0	R1095N
1180.299	4.236	1663642	REC_EVENT	780	4	2	GOAT	SHARK	SHARK	GOAT	8	[0, 0, 0]	-999	PAL1	0	R1095N
1184.535	0.017	1667878	REC_END	n/a	4	-999	n/a	n/a	n/a	n/a	8	[0, 0, 0]	-999	PAL1	0	R1095N
1184.552	1.033	1667895	TEST_ORIENT	n/a	3	3	TENT	BOMB	BOMB	TENT	8	[0, 0, 0]	-999	PAL1	0	R1095N
1185.585	0.001	1668928	TEST_PROBE	n/a	3	3	TENT	BOMB	BOMB	TENT	8	[0, 0, 0]	-999	PAL1	0	R1095N
1185.586	1.258	1668929	REC_START	n/a	3	-999	n/a	BOMB	n/a	n/a	8	[0, 0, 0]	-999	PAL1	0	R1095N
1186.844	3.75	1670187	REC_EVENT	1258	3	3	TENT	BOMB	BOMB	TENT	8	[0, 0, 0]	-999	PAL1	0	R1095N
1190.594	0.009	1673937	REC_END	n/a	3	-999	n/a	n/a	n/a	n/a	8	[0, 0, 0]	-999	PAL1	0	R1095N
1190.603	0.883	1673946	TEST_ORIENT	n/a	6	4	KEY	FORK	FORK	KEY	8	[0, 0, 0]	-999	PAL1	0	R1095N
1191.486	0.001	1674829	TEST_PROBE	n/a	6	4	KEY	FORK	FORK	KEY	8	[0, 0, 0]	-999	PAL1	0	R1095N
1191.487	1.415	1674830	REC_START	n/a	6	-999	n/a	FORK	n/a	n/a	8	[0, 0, 0]	-999	PAL1	0	R1095N
1192.902	3.61	1676245	REC_EVENT	1415	6	4	KEY	FORK	FORK	KEY	8	[0, 0, 0]	-999	PAL1	0	R1095N
1196.512	0.008	1679855	REC_END	n/a	6	-999	n/a	n/a	n/a	n/a	8	[0, 0, 0]	-999	PAL1	0	R1095N
1196.52	1.017	1679863	TEST_ORIENT	n/a	5	5	TRASH	HAT	TRASH	HAT	8	[0, 0, 0]	-999	PAL1	0	R1095N
1197.537	0.0	1680880	REC_START	n/a	5	-999	n/a	HAT	n/a	n/a	8	[0, 0, 0]	-999	PAL1	0	R1095N
1197.537	1.135	1680880	TEST_PROBE	n/a	5	5	TRASH	HAT	TRASH	HAT	8	[0, 0, 0]	-999	PAL1	0	R1095N
1198.672	3.882	1682015	REC_EVENT	1135	5	5	TRASH	HAT	TRASH	HAT	8	[0, 0, 0]	-999	PAL1	0	R1095N
1202.554	0.017	1685897	REC_END	n/a	5	-999	n/a	n/a	n/a	n/a	8	[0, 0, 0]	-999	PAL1	0	R1095N
1202.571	0.984	1685914	TEST_ORIENT	n/a	2	6	STAR	BOWL	BOWL	STAR	8	[0, 0, 0]	-999	PAL1	0	R1095N
1203.555	0.0	1686898	TEST_PROBE	n/a	2	6	STAR	BOWL	BOWL	STAR	8	[0, 0, 0]	-999	PAL1	0	R1095N
1203.555	0.86	1686898	REC_START	n/a	2	-999	n/a	BOWL	n/a	n/a	8	[0, 0, 0]	-999	PAL1	0	R1095N
1204.415	4.157	1687758	REC_EVENT	860	2	6	STAR	BOWL	BOWL	STAR	8	[0, 0, 0]	-999	PAL1	0	R1095N
1208.572	0.033	1691915	REC_END	n/a	2	-999	n/a	n/a	n/a	n/a	8	[0, 0, 0]	-999	PAL1	0	R1095N
1208.605	17.527	1691948	FEEDBACK_SHOW_ALL_PAIRS	n/a	2	-999	n/a	n/a	n/a	n/a	8	[0, 0, 0]	-999	PAL1	0	R1095N
1226.132	10.443	1709475	ENCODING_START	n/a	0	-999	n/a	n/a	n/a	n/a	9	[0, 0, 0]	-999	PAL1	0	R1095N
1236.575	0.933	1719919	STUDY_ORIENT	n/a	1	3	CLAY	MAT	MAT	CLAY	9	[0, 0, 0]	-999	PAL1	0	R1095N
1237.508	5.018	1720852	STUDY_PAIR	n/a	1	3	CLAY	MAT	MAT	CLAY	9	[0, 0, 0]	-999	PAL1	0	R1095N
1242.526	0.916	1725870	STUDY_ORIENT	n/a	2	4	FORT	n/a	PURSE	FORT	9	[0, 0, 0]	-999	PAL1	0	R1095N
1243.442	5.018	1726786	STUDY_PAIR	n/a	2	4	FORT	n/a	PURSE	FORT	9	[0, 0, 0]	-999	PAL1	0	R1095N
1248.46	0.818	1731804	STUDY_ORIENT	n/a	3	5	ROSE	MOLE	MOLE	ROSE	9	[0, 0, 0]	-999	PAL1	0	R1095N
1249.278	5.033	1732622	STUDY_PAIR	n/a	3	5	ROSE	MOLE	MOLE	ROSE	9	[0, 0, 0]	-999	PAL1	0	R1095N
1254.311	0.9	1737655	STUDY_ORIENT	n/a	4	2	DART	PIE	PIE	DART	9	[0, 0, 0]	-999	PAL1	0	R1095N
1255.211	5.034	1738555	STUDY_PAIR	n/a	4	2	DART	PIE	PIE	DART	9	[0, 0, 0]	-999	PAL1	0	R1095N
1260.245	0.949	1743589	STUDY_ORIENT	n/a	5	1	HORSE	n/a	PHONE	HORSE	9	[0, 0, 0]	-999	PAL1	0	R1095N
1261.194	5.018	1744538	STUDY_PAIR	n/a	5	1	HORSE	n/a	PHONE	HORSE	9	[0, 0, 0]	-999	PAL1	0	R1095N
1266.212	0.833	1749556	STUDY_ORIENT	n/a	6	6	TAIL	PIG	TAIL	PIG	9	[0, 0, 0]	-999	PAL1	0	R1095N
1267.045	4.018	1750389	STUDY_PAIR	n/a	6	6	TAIL	PIG	TAIL	PIG	9	[0, 0, 0]	-999	PAL1	0	R1095N
1271.063	0.999	1754407	START	n/a	-999	-999	n/a	n/a	n/a	n/a	9	[-999, -999, -999]	-999	PAL1	0	R1095N
1272.062	0.017	1755406	MATH_START	n/a	-999	-999	n/a	n/a	n/a	n/a	9	[0, 0, 0]	-999	PAL1	0	R1095N
1272.079	2.767	1755423	PROB	2738	-999	-999	n/a	n/a	n/a	n/a	9	[2, 3, 3]	8	PAL1	0	R1095N
1274.846	3.634	1758190	PROB	3603	-999	-999	n/a	n/a	n/a	n/a	9	[3, 5, 9]	17	PAL1	0	R1095N
1278.48	1.867	1761824	PROB	1833	-999	-999	n/a	n/a	n/a	n/a	9	[1, 1, 5]	7	PAL1	0	R1095N
1280.347	2.717	1763691	PROB	2694	-999	-999	n/a	n/a	n/a	n/a	9	[7, 2, 3]	12	PAL1	0	R1095N
1283.064	3.384	1766408	PROB	3353	-999	-999	n/a	n/a	n/a	n/a	9	[7, 7, 4]	18	PAL1	0	R1095N
1286.448	4.133	1769792	PROB	4105	-999	-999	n/a	n/a	n/a	n/a	9	[9, 4, 5]	18	PAL1	0	R1095N
1290.581	9.684	1773925	PROB	9684	-999	-999	n/a	n/a	n/a	n/a	9	[3, 2, 5]	10	PAL1	0	R1095N
1300.265	0.019	1783609	STOP	n/a	-999	-999	n/a	n/a	n/a	n/a	9	[-999, -999, -999]	-999	PAL1	0	R1095N
1300.284	0.0	1783628	MATH_END	n/a	-999	-999	n/a	n/a	n/a	n/a	9	[0, 0, 0]	-999	PAL1	0	R1095N
1300.284	0.015	1783628	TEST_START	n/a	-999	-999	n/a	n/a	n/a	n/a	9	[0, 0, 0]	-999	PAL1	0	R1095N
1300.299	1.034	1783643	TEST_ORIENT	n/a	5	1	HORSE	n/a	PHONE	HORSE	9	[0, 0, 0]	-999	PAL1	0	R1095N
1301.333	0.001	1784677	TEST_PROBE	n/a	5	1	HORSE	n/a	PHONE	HORSE	9	[0, 0, 0]	-999	PAL1	0	R1095N
1301.334	5.021	1784678	REC_START	n/a	5	-999	n/a	n/a	n/a	n/a	9	[0, 0, 0]	-999	PAL1	0	R1095N
1306.355	0.003	1789699	REC_EVENT	5021	5	1	HORSE	<>	PHONE	HORSE	9	[0, 0, 0]	-999	PAL1	0	R1095N
1306.358	0.008	1789702	REC_END	n/a	5	-999	n/a	n/a	n/a	n/a	9	[0, 0, 0]	-999	PAL1	0	R1095N
1306.366	0.817	1789710	TEST_ORIENT	n/a	4	2	DART	PIE	PIE	DART	9	[0, 0, 0]	-999	PAL1	0	R1095N
1307.183	0.001	1790527	TEST_PROBE	n/a	4	2	DART	PIE	PIE	DART	9	[0, 0, 0]	-999	PAL1	0	R1095N
1307.184	0.861	1790528	REC_START	n/a	4	-999	n/a	PIE	n/a	n/a	9	[0, 0, 0]	-999	PAL1	0	R1095N
1308.045	4.155	1791389	REC_EVENT	861	4	2	DART	PIE	PIE	DART	9	[0, 0, 0]	-999	PAL1	0	R1095N
1312.2	0.018	1795544	REC_END	n/a	4	-999	n/a	n/a	n/a	n/a	9	[0, 0, 0]	-999	PAL1	0	R1095N
1312.218	0.966	1795562	TEST_ORIENT	n/a	1	3	CLAY	MAT	MAT	CLAY	9	[0, 0, 0]	-999	PAL1	0	R1095N
1313.184	0.0	1796528	REC_START	n/a	1	-999	n/a	MAT	n/a	n/a	9	[0, 0, 0]	-999	PAL1	0	R1095N
1313.184	0.904	1796528	TEST_PROBE	n/a	1	3	CLAY	MAT	MAT	CLAY	9	[0, 0, 0]	-999	PAL1	0	R1095N
1314.088	4.113	1797432	REC_EVENT	904	1	3	CLAY	MAT	MAT	CLAY	9	[0, 0, 0]	-999	PAL1	0	R1095N
1318.201	0.018	1801545	REC_END	n/a	1	-999	n/a	n/a	n/a	n/a	9	[0, 0, 0]	-999	PAL1	0	R1095N
1318.219	0.932	1801563	TEST_ORIENT	n/a	2	4	FORT	n/a	PURSE	FORT	9	[0, 0, 0]	-999	PAL1	0	R1095N
1319.151	0.001	1802496	TEST_PROBE	n/a	2	4	FORT	n/a	PURSE	FORT	9	[0, 0, 0]	-999	PAL1	0	R1095N
1319.152	5.008	1802497	REC_START	n/a	2	-999	n/a	n/a	n/a	n/a	9	[0, 0, 0]	-999	PAL1	0	R1095N
1324.16	0.001	1807505	REC_END	n/a	2	-999	n/a	n/a	n/a	n/a	9	[0, 0, 0]	-999	PAL1	0	R1095N
1324.161	0.008	1807506	REC_EVENT	5009	2	4	FORT	<>	PURSE	FORT	9	[0, 0, 0]	-999	PAL1	0	R1095N
1324.169	0.966	1807514	TEST_ORIENT	n/a	3	5	ROSE	MOLE	MOLE	ROSE	9	[0, 0, 0]	-999	PAL1	0	R1095N
1325.135	0.001	1808480	TEST_PROBE	n/a	3	5	ROSE	MOLE	MOLE	ROSE	9	[0, 0, 0]	-999	PAL1	0	R1095N
1325.136	0.828	1808481	REC_START	n/a	3	-999	n/a	MOLE	n/a	n/a	9	[0, 0, 0]	-999	PAL1	0	R1095N
1325.964	4.18	1809309	REC_EVENT	828	3	5	ROSE	MOLE	MOLE	ROSE	9	[0, 0, 0]	-999	PAL1	0	R1095N
1330.144	0.009	1813489	REC_END	n/a	3	-999	n/a	n/a	n/a	n/a	9	[0, 0, 0]	-999	PAL1	0	R1095N
1330.153	0.833	1813498	TEST_ORIENT	n/a	6	6	TAIL	PIG	TAIL	PIG	9	[0, 0, 0]	-999	PAL1	0	R1095N
1330.986	0.001	1814331	TEST_PROBE	n/a	6	6	TAIL	PIG	TAIL	PIG	9	[0, 0, 0]	-999	PAL1	0	R1095N
1330.987	0.674	1814332	REC_START	n/a	6	-999	n/a	PIG	n/a	n/a	9	[0, 0, 0]	-999	PAL1	0	R1095N
1331.661	4.35	1815006	REC_EVENT	674	6	6	TAIL	PIG	TAIL	PIG	9	[0, 0, 0]	-999	PAL1	0	R1095N
1336.011	0.026	1819356	REC_END	n/a	6	-999	n/a	n/a	n/a	n/a	9	[0, 0, 0]	-999	PAL1	0	R1095N
1336.037	16.865	1819382	FEEDBACK_SHOW_ALL_PAIRS	n/a	6	-999	n/a	n/a	n/a	n/a	9	[0, 0, 0]	-999	PAL1	0	R1095N
1352.902	10.438	1836247	ENCODING_START	n/a	0	-999	n/a	n/a	n/a	n/a	10	[0, 0, 0]	-999	PAL1	0	R1095N
1363.34	0.951	1846685	STUDY_ORIENT	n/a	1	1	LAND	n/a	LAND	EAR	10	[0, 0, 0]	-999	PAL1	0	R1095N
1364.291	5.033	1847636	STUDY_PAIR	n/a	1	1	LAND	n/a	LAND	EAR	10	[0, 0, 0]	-999	PAL1	0	R1095N
1369.324	0.817	1852669	STUDY_ORIENT	n/a	2	6	VASE	STEAM	STEAM	VASE	10	[0, 0, 0]	-999	PAL1	0	R1095N
1370.141	5.034	1853486	STUDY_PAIR	n/a	2	6	VASE	STEAM	STEAM	VASE	10	[0, 0, 0]	-999	PAL1	0	R1095N
1375.175	0.8	1858520	STUDY_ORIENT	n/a	3	5	OAR	STREET	OAR	STREET	10	[0, 0, 0]	-999	PAL1	0	R1095N
1375.975	5.034	1859320	STUDY_PAIR	n/a	3	5	OAR	STREET	OAR	STREET	10	[0, 0, 0]	-999	PAL1	0	R1095N
1381.009	0.917	1864354	STUDY_ORIENT	n/a	4	4	PLATE	n/a	THUMB	PLATE	10	[0, 0, 0]	-999	PAL1	0	R1095N
1381.926	5.033	1865271	STUDY_PAIR	n/a	4	4	PLATE	n/a	THUMB	PLATE	10	[0, 0, 0]	-999	PAL1	0	R1095N
1386.959	1.0	1870304	STUDY_ORIENT	n/a	5	3	YARD	SNAIL	YARD	SNAIL	10	[0, 0, 0]	-999	PAL1	0	R1095N
1387.959	5.018	1871304	STUDY_PAIR	n/a	5	3	YARD	SNAIL	YARD	SNAIL	10	[0, 0, 0]	-999	PAL1	0	R1095N
1392.977	0.816	1876322	STUDY_ORIENT	n/a	6	2	SMOKE	TANK	SMOKE	TANK	10	[0, 0, 0]	-999	PAL1	0	R1095N
1393.793	4.001	1877138	STUDY_PAIR	n/a	6	2	SMOKE	TANK	SMOKE	TANK	10	[0, 0, 0]	-999	PAL1	0	R1095N
1397.794	1.0	1881139	START	n/a	-999	-999	n/a	n/a	n/a	n/a	10	[-999, -999, -999]	-999	PAL1	0	R1095N
1398.794	0.017	1882139	MATH_START	n/a	-999	-999	n/a	n/a	n/a	n/a	10	[0, 0, 0]	-999	PAL1	0	R1095N
1398.811	3.468	1882156	PROB	3433	-999	-999	n/a	n/a	n/a	n/a	10	[8, 2, 6]	16	PAL1	0	R1095N
1402.279	5.633	1885624	PROB	5604	-999	-999	n/a	n/a	n/a	n/a	10	[8, 9, 8]	26	PAL1	0	R1095N
1407.912	3.917	1891258	PROB	3882	-999	-999	n/a	n/a	n/a	n/a	10	[7, 2, 3]	12	PAL1	0	R1095N
1411.829	4.3	1895175	PROB	4277	-999	-999	n/a	n/a	n/a	n/a	10	[5, 4, 9]	18	PAL1	0	R1095N
1416.129	2.041	1899475	PROB	2041	-999	-999	n/a	n/a	n/a	n/a	10	[9, 1, 1]	11	PAL1	0	R1095N
1418.17	0.01	1901516	STOP	n/a	-999	-999	n/a	n/a	n/a	n/a	10	[-999, -999, -999]	-999	PAL1	0	R1095N
1418.18	0.0	1901526	MATH_END	n/a	-999	-999	n/a	n/a	n/a	n/a	10	[0, 0, 0]	-999	PAL1	0	R1095N
1418.18	0.016	1901526	TEST_START	n/a	-999	-999	n/a	n/a	n/a	n/a	10	[0, 0, 0]	-999	PAL1	0	R1095N
1418.196	0.984	1901542	TEST_ORIENT	n/a	1	1	LAND	n/a	LAND	EAR	10	[0, 0, 0]	-999	PAL1	0	R1095N
1419.18	0.0	1902526	REC_START	n/a	1	-999	n/a	n/a	n/a	n/a	10	[0, 0, 0]	-999	PAL1	0	R1095N
1419.18	5.015	1902526	TEST_PROBE	n/a	1	1	LAND	n/a	LAND	EAR	10	[0, 0, 0]	-999	PAL1	0	R1095N
1424.195	0.002	1907541	REC_EVENT	5015	1	1	LAND	<>	LAND	EAR	10	[0, 0, 0]	-999	PAL1	0	R1095N
1424.197	0.017	1907543	REC_END	n/a	1	-999	n/a	n/a	n/a	n/a	10	[0, 0, 0]	-999	PAL1	0	R1095N
1424.214	1.017	1907560	TEST_ORIENT	n/a	6	2	SMOKE	TANK	SMOKE	TANK	10	[0, 0, 0]	-999	PAL1	0	R1095N
1425.231	0.001	1908577	TEST_PROBE	n/a	6	2	SMOKE	TANK	SMOKE	TANK	10	[0, 0, 0]	-999	PAL1	0	R1095N
1425.232	1.081	1908578	REC_START	n/a	6	-999	n/a	TANK	n/a	n/a	10	[0, 0, 0]	-999	PAL1	0	R1095N
1426.313	3.927	1909659	REC_EVENT	1081	6	2	SMOKE	TANK	SMOKE	TANK	10	[0, 0, 0]	-999	PAL1	0	R1095N
1430.24	0.009	1913586	REC_END	n/a	6	-999	n/a	n/a	n/a	n/a	10	[0, 0, 0]	-999	PAL1	0	R1095N
1430.249	0.849	1913595	TEST_ORIENT	n/a	5	3	YARD	SNAIL	YARD	SNAIL	10	[0, 0, 0]	-999	PAL1	0	R1095N
1431.098	0.001	1914444	TEST_PROBE	n/a	5	3	YARD	SNAIL	YARD	SNAIL	10	[0, 0, 0]	-999	PAL1	0	R1095N
1431.099	1.231	1914445	REC_START	n/a	5	-999	n/a	SNAIL	n/a	n/a	10	[0, 0, 0]	-999	PAL1	0	R1095N
1432.33	3.793	1915676	REC_EVENT	1231	5	3	YARD	SNAIL	YARD	SNAIL	10	[0, 0, 0]	-999	PAL1	0	R1095N
1436.123	0.009	1919469	REC_END	n/a	5	-999	n/a	n/a	n/a	n/a	10	[0, 0, 0]	-999	PAL1	0	R1095N
1436.132	0.9	1919478	TEST_ORIENT	n/a	4	4	PLATE	n/a	THUMB	PLATE	10	[0, 0, 0]	-999	PAL1	0	R1095N
1437.032	0.001	1920378	TEST_PROBE	n/a	4	4	PLATE	n/a	THUMB	PLATE	10	[0, 0, 0]	-999	PAL1	0	R1095N
1437.033	5.024	1920379	REC_START	n/a	4	-999	n/a	n/a	n/a	n/a	10	[0, 0, 0]	-999	PAL1	0	R1095N
1442.057	0.003	1925403	REC_END	n/a	4	-999	n/a	n/a	n/a	n/a	10	[0, 0, 0]	-999	PAL1	0	R1095N
1442.06	0.006	1925406	REC_EVENT	5027	4	4	PLATE	<>	THUMB	PLATE	10	[0, 0, 0]	-999	PAL1	0	R1095N
1442.066	1.0	1925412	TEST_ORIENT	n/a	3	5	OAR	STREET	OAR	STREET	10	[0, 0, 0]	-999	PAL1	0	R1095N
1443.066	0.0	1926412	TEST_PROBE	n/a	3	5	OAR	STREET	OAR	STREET	10	[0, 0, 0]	-999	PAL1	0	R1095N
1443.066	1.57	1926412	REC_START	n/a	3	-999	n/a	STREET	n/a	n/a	10	[0, 0, 0]	-999	PAL1	0	R1095N
1444.636	3.447	1927982	REC_EVENT	1570	3	5	OAR	STREET	OAR	STREET	10	[0, 0, 0]	-999	PAL1	0	R1095N
1448.083	0.017	1931429	REC_END	n/a	3	-999	n/a	n/a	n/a	n/a	10	[0, 0, 0]	-999	PAL1	0	R1095N
1448.1	0.8	1931446	TEST_ORIENT	n/a	2	6	VASE	STEAM	STEAM	VASE	10	[0, 0, 0]	-999	PAL1	0	R1095N
1448.9	0.0	1932246	REC_START	n/a	2	-999	n/a	STEAM	n/a	n/a	10	[0, 0, 0]	-999	PAL1	0	R1095N
1448.9	0.802	1932246	TEST_PROBE	n/a	2	6	VASE	STEAM	STEAM	VASE	10	[0, 0, 0]	-999	PAL1	0	R1095N
1449.702	4.215	1933048	REC_EVENT	802	2	6	VASE	STEAM	STEAM	VASE	10	[0, 0, 0]	-999	PAL1	0	R1095N
1453.917	0.034	1937263	REC_END	n/a	2	-999	n/a	n/a	n/a	n/a	10	[0, 0, 0]	-999	PAL1	0	R1095N
1453.951	10.298	1937297	FEEDBACK_SHOW_ALL_PAIRS	n/a	2	-999	n/a	n/a	n/a	n/a	10	[0, 0, 0]	-999	PAL1	0	R1095N
1464.249	10.437	1947595	ENCODING_START	n/a	0	-999	n/a	n/a	n/a	n/a	11	[0, 0, 0]	-999	PAL1	0	R1095N
1474.686	0.95	1958032	STUDY_ORIENT	n/a	1	1	BROOM	CASH	CASH	BROOM	11	[0, 0, 0]	-999	PAL1	0	R1095N
1475.636	5.018	1958982	STUDY_PAIR	n/a	1	1	BROOM	CASH	CASH	BROOM	11	[0, 0, 0]	-999	PAL1	0	R1095N
1480.654	0.85	1964000	STUDY_ORIENT	n/a	2	6	FOAM	BRANCH	FOAM	BRANCH	11	[0, 0, 0]	-999	PAL1	0	R1095N
1481.504	5.034	1964850	STUDY_PAIR	n/a	2	6	FOAM	BRANCH	FOAM	BRANCH	11	[0, 0, 0]	-999	PAL1	0	R1095N
1486.538	0.85	1969884	STUDY_ORIENT	n/a	3	3	HAND	n/a	HORN	HAND	11	[0, 0, 0]	-999	PAL1	0	R1095N
1487.388	5.034	1970735	STUDY_PAIR	n/a	3	3	HAND	n/a	HORN	HAND	11	[0, 0, 0]	-999	PAL1	0	R1095N
1492.422	1.0	1975769	STUDY_ORIENT	n/a	4	2	JET	SALT	SALT	JET	11	[0, 0, 0]	-999	PAL1	0	R1095N
1493.422	5.034	1976769	STUDY_PAIR	n/a	4	2	JET	SALT	SALT	JET	11	[0, 0, 0]	-999	PAL1	0	R1095N
1498.456	0.967	1981803	STUDY_ORIENT	n/a	5	5	FENCE	FUDGE	FUDGE	FENCE	11	[0, 0, 0]	-999	PAL1	0	R1095N
1499.423	5.034	1982770	STUDY_PAIR	n/a	5	5	FENCE	FUDGE	FUDGE	FENCE	11	[0, 0, 0]	-999	PAL1	0	R1095N
1504.457	0.916	1987804	STUDY_ORIENT	n/a	6	4	CHAIR	n/a	CHAIR	TOAD	11	[0, 0, 0]	-999	PAL1	0	R1095N
1505.373	4.018	1988720	STUDY_PAIR	n/a	6	4	CHAIR	n/a	CHAIR	TOAD	11	[0, 0, 0]	-999	PAL1	0	R1095N
1509.391	0.999	1992738	START	n/a	-999	-999	n/a	n/a	n/a	n/a	11	[-999, -999, -999]	-999	PAL1	0	R1095N
1510.39	0.017	1993737	MATH_START	n/a	-999	-999	n/a	n/a	n/a	n/a	11	[0, 0, 0]	-999	PAL1	0	R1095N
1510.407	5.684	1993754	PROB	5662	-999	-999	n/a	n/a	n/a	n/a	11	[3, 8, 3]	14	PAL1	0	R1095N
1516.091	5.051	1999438	PROB	5026	-999	-999	n/a	n/a	n/a	n/a	11	[3, 8, 5]	16	PAL1	0	R1095N
1521.142	3.0	2004489	PROB	2967	-999	-999	n/a	n/a	n/a	n/a	11	[9, 3, 1]	13	PAL1	0	R1095N
1524.142	7.278	2007489	PROB	7278	-999	-999	n/a	n/a	n/a	n/a	11	[9, 4, 7]	20	PAL1	0	R1095N
1531.42	0.006	2014767	STOP	n/a	-999	-999	n/a	n/a	n/a	n/a	11	[-999, -999, -999]	-999	PAL1	0	R1095N
1531.426	0.0	2014773	MATH_END	n/a	-999	-999	n/a	n/a	n/a	n/a	11	[0, 0, 0]	-999	PAL1	0	R1095N
1531.426	0.017	2014773	TEST_START	n/a	-999	-999	n/a	n/a	n/a	n/a	11	[0, 0, 0]	-999	PAL1	0	R1095N
1531.443	0.818	2014790	TEST_ORIENT	n/a	1	1	BROOM	CASH	CASH	BROOM	11	[0, 0, 0]	-999	PAL1	0	R1095N
1532.261	0.0	2015608	TEST_PROBE	n/a	1	1	BROOM	CASH	CASH	BROOM	11	[0, 0, 0]	-999	PAL1	0	R1095N
1532.261	0.938	2015608	REC_START	n/a	1	-999	n/a	CASH	n/a	n/a	11	[0, 0, 0]	-999	PAL1	0	R1095N
1533.199	4.079	2016546	REC_EVENT	938	1	1	BROOM	CASH	CASH	BROOM	11	[0, 0, 0]	-999	PAL1	0	R1095N
1537.278	0.016	2020625	REC_END	n/a	1	-999	n/a	n/a	n/a	n/a	11	[0, 0, 0]	-999	PAL1	0	R1095N
1537.294	0.9	2020641	TEST_ORIENT	n/a	4	2	JET	SALT	SALT	JET	11	[0, 0, 0]	-999	PAL1	0	R1095N
1538.194	0.0	2021541	TEST_PROBE	n/a	4	2	JET	SALT	SALT	JET	11	[0, 0, 0]	-999	PAL1	0	R1095N
1538.194	1.142	2021541	REC_START	n/a	4	-999	n/a	SALT	n/a	n/a	11	[0, 0, 0]	-999	PAL1	0	R1095N
1539.336	3.875	2022683	REC_EVENT	1142	4	2	JET	SALT	SALT	JET	11	[0, 0, 0]	-999	PAL1	0	R1095N
1543.211	0.018	2026558	REC_END	n/a	4	-999	n/a	n/a	n/a	n/a	11	[0, 0, 0]	-999	PAL1	0	R1095N
1543.229	0.849	2026576	TEST_ORIENT	n/a	3	3	HAND	n/a	HORN	HAND	11	[0, 0, 0]	-999	PAL1	0	R1095N
1544.078	0.001	2027425	TEST_PROBE	n/a	3	3	HAND	n/a	HORN	HAND	11	[0, 0, 0]	-999	PAL1	0	R1095N
1544.079	5.024	2027426	REC_START	n/a	3	-999	n/a	n/a	n/a	n/a	11	[0, 0, 0]	-999	PAL1	0	R1095N
1549.103	0.003	2032450	REC_END	n/a	3	-999	n/a	n/a	n/a	n/a	11	[0, 0, 0]	-999	PAL1	0	R1095N
1549.106	0.006	2032453	REC_EVENT	5027	3	3	HAND	<>	HORN	HAND	11	[0, 0, 0]	-999	PAL1	0	R1095N
1549.112	1.033	2032459	TEST_ORIENT	n/a	6	4	CHAIR	n/a	CHAIR	TOAD	11	[0, 0, 0]	-999	PAL1	0	R1095N
1550.145	0.001	2033492	TEST_PROBE	n/a	6	4	CHAIR	n/a	CHAIR	TOAD	11	[0, 0, 0]	-999	PAL1	0	R1095N
1550.146	5.021	2033493	REC_START	n/a	6	-999	n/a	n/a	n/a	n/a	11	[0, 0, 0]	-999	PAL1	0	R1095N
1555.167	0.003	2038514	REC_EVENT	5021	6	4	CHAIR	<>	CHAIR	TOAD	11	[0, 0, 0]	-999	PAL1	0	R1095N
1555.17	0.009	2038517	REC_END	n/a	6	-999	n/a	n/a	n/a	n/a	11	[0, 0, 0]	-999	PAL1	0	R1095N
1555.179	0.85	2038526	TEST_ORIENT	n/a	5	5	FENCE	FUDGE	FUDGE	FENCE	11	[0, 0, 0]	-999	PAL1	0	R1095N
1556.029	0.001	2039376	TEST_PROBE	n/a	5	5	FENCE	FUDGE	FUDGE	FENCE	11	[0, 0, 0]	-999	PAL1	0	R1095N
1556.03	0.627	2039377	REC_START	n/a	5	-999	n/a	FUDGE	n/a	n/a	11	[0, 0, 0]	-999	PAL1	0	R1095N
1556.657	4.389	2040004	REC_EVENT	627	5	5	FENCE	FUDGE	FUDGE	FENCE	11	[0, 0, 0]	-999	PAL1	0	R1095N
1561.046	0.017	2044393	REC_END	n/a	5	-999	n/a	n/a	n/a	n/a	11	[0, 0, 0]	-999	PAL1	0	R1095N
1561.063	0.9	2044410	TEST_ORIENT	n/a	2	6	FOAM	BRANCH	FOAM	BRANCH	11	[0, 0, 0]	-999	PAL1	0	R1095N
1561.963	0.001	2045310	TEST_PROBE	n/a	2	6	FOAM	BRANCH	FOAM	BRANCH	11	[0, 0, 0]	-999	PAL1	0	R1095N
1561.964	1.436	2045311	REC_START	n/a	2	-999	n/a	BRANCH	n/a	n/a	11	[0, 0, 0]	-999	PAL1	0	R1095N
1563.4	3.58	2046747	REC_EVENT	1436	2	6	FOAM	BRANCH	FOAM	BRANCH	11	[0, 0, 0]	-999	PAL1	0	R1095N
1566.98	0.034	2050327	REC_END	n/a	2	-999	n/a	n/a	n/a	n/a	11	[0, 0, 0]	-999	PAL1	0	R1095N
1567.014	10.172	2050361	FEEDBACK_SHOW_ALL_PAIRS	n/a	2	-999	n/a	n/a	n/a	n/a	11	[0, 0, 0]	-999	PAL1	0	R1095N
1577.186	10.447	2060534	ENCODING_START	n/a	0	-999	n/a	n/a	n/a	n/a	12	[0, 0, 0]	-999	PAL1	0	R1095N
1587.633	1.017	2070981	STUDY_ORIENT	n/a	1	5	DOG	CUBE	DOG	CUBE	12	[0, 0, 0]	-999	PAL1	0	R1095N
1588.65	5.034	2071998	STUDY_PAIR	n/a	1	5	DOG	CUBE	DOG	CUBE	12	[0, 0, 0]	-999	PAL1	0	R1095N
1593.684	0.866	2077032	STUDY_ORIENT	n/a	2	2	RAT	SHIELD	SHIELD	RAT	12	[0, 0, 0]	-999	PAL1	0	R1095N
1594.55	5.018	2077898	STUDY_PAIR	n/a	2	2	RAT	SHIELD	SHIELD	RAT	12	[0, 0, 0]	-999	PAL1	0	R1095N
1599.568	0.933	2082916	STUDY_ORIENT	n/a	3	3	PEARL	DOOR	PEARL	DOOR	12	[0, 0, 0]	-999	PAL1	0	R1095N
1600.501	5.034	2083849	STUDY_PAIR	n/a	3	3	PEARL	DOOR	PEARL	DOOR	12	[0, 0, 0]	-999	PAL1	0	R1095N
1605.535	0.867	2088883	STUDY_ORIENT	n/a	4	4	DUCK	DITCH	DITCH	DUCK	12	[0, 0, 0]	-999	PAL1	0	R1095N
1606.402	5.034	2089750	STUDY_PAIR	n/a	4	4	DUCK	DITCH	DITCH	DUCK	12	[0, 0, 0]	-999	PAL1	0	R1095N
1611.436	0.834	2094784	STUDY_ORIENT	n/a	5	1	CANE	FOOT	FOOT	CANE	12	[0, 0, 0]	-999	PAL1	0	R1095N
1612.27	5.033	2095618	STUDY_PAIR	n/a	5	1	CANE	FOOT	FOOT	CANE	12	[0, 0, 0]	-999	PAL1	0	R1095N
1617.303	0.8	2100651	STUDY_ORIENT	n/a	6	6	BOARD	RAIN	RAIN	BOARD	12	[0, 0, 0]	-999	PAL1	0	R1095N
1618.103	4.018	2101451	STUDY_PAIR	n/a	6	6	BOARD	RAIN	RAIN	BOARD	12	[0, 0, 0]	-999	PAL1	0	R1095N
1622.121	0.999	2105469	START	n/a	-999	-999	n/a	n/a	n/a	n/a	12	[-999, -999, -999]	-999	PAL1	0	R1095N
1623.12	0.017	2106468	MATH_START	n/a	-999	-999	n/a	n/a	n/a	n/a	12	[0, 0, 0]	-999	PAL1	0	R1095N
1623.137	4.017	2106485	PROB	3990	-999	-999	n/a	n/a	n/a	n/a	12	[2, 8, 1]	11	PAL1	0	R1095N
1627.154	10.952	2110502	PROB	10925	-999	-999	n/a	n/a	n/a	n/a	12	[9, 7, 6]	21	PAL1	0	R1095N
1638.106	4.484	2121454	PROB	4484	-999	-999	n/a	n/a	n/a	n/a	12	[3, 8, 5]	16	PAL1	0	R1095N
1642.59	0.016	2125938	STOP	n/a	-999	-999	n/a	n/a	n/a	n/a	12	[-999, -999, -999]	-999	PAL1	0	R1095N
1642.606	0.0	2125954	TEST_START	n/a	-999	-999	n/a	n/a	n/a	n/a	12	[0, 0, 0]	-999	PAL1	0	R1095N
1642.606	0.017	2125954	MATH_END	n/a	-999	-999	n/a	n/a	n/a	n/a	12	[0, 0, 0]	-999	PAL1	0	R1095N
1642.623	0.883	2125971	TEST_ORIENT	n/a	5	1	CANE	FOOT	FOOT	CANE	12	[0, 0, 0]	-999	PAL1	0	R1095N
1643.506	0.0	2126854	TEST_PROBE	n/a	5	1	CANE	FOOT	FOOT	CANE	12	[0, 0, 0]	-999	PAL1	0	R1095N
1643.506	0.789	2126854	REC_START	n/a	5	-999	n/a	FOOT	n/a	n/a	12	[0, 0, 0]	-999	PAL1	0	R1095N
1644.295	4.228	2127643	REC_EVENT	789	5	1	CANE	FOOT	FOOT	CANE	12	[0, 0, 0]	-999	PAL1	0	R1095N
1648.523	0.017	2131871	REC_END	n/a	5	-999	n/a	n/a	n/a	n/a	12	[0, 0, 0]	-999	PAL1	0	R1095N
1648.54	0.9	2131888	TEST_ORIENT	n/a	2	2	RAT	SHIELD	SHIELD	RAT	12	[0, 0, 0]	-999	PAL1	0	R1095N
1649.44	0.001	2132788	TEST_PROBE	n/a	2	2	RAT	SHIELD	SHIELD	RAT	12	[0, 0, 0]	-999	PAL1	0	R1095N
1649.441	1.193	2132789	REC_START	n/a	2	-999	n/a	SHIELD	n/a	n/a	12	[0, 0, 0]	-999	PAL1	0	R1095N
1650.634	3.823	2133982	REC_EVENT	1193	2	2	RAT	SHIELD	SHIELD	RAT	12	[0, 0, 0]	-999	PAL1	0	R1095N
1654.457	0.017	2137805	REC_END	n/a	2	-999	n/a	n/a	n/a	n/a	12	[0, 0, 0]	-999	PAL1	0	R1095N
1654.474	0.9	2137822	TEST_ORIENT	n/a	3	3	PEARL	DOOR	PEARL	DOOR	12	[0, 0, 0]	-999	PAL1	0	R1095N
1655.374	0.001	2138722	TEST_PROBE	n/a	3	3	PEARL	DOOR	PEARL	DOOR	12	[0, 0, 0]	-999	PAL1	0	R1095N
1655.375	0.835	2138723	REC_START	n/a	3	-999	n/a	DOOR	n/a	n/a	12	[0, 0, 0]	-999	PAL1	0	R1095N
1656.21	4.181	2139559	REC_EVENT	835	3	3	PEARL	DOOR	PEARL	DOOR	12	[0, 0, 0]	-999	PAL1	0	R1095N
1660.391	0.017	2143740	REC_END	n/a	3	-999	n/a	n/a	n/a	n/a	12	[0, 0, 0]	-999	PAL1	0	R1095N
1660.408	0.934	2143757	TEST_ORIENT	n/a	4	4	DUCK	DITCH	DITCH	DUCK	12	[0, 0, 0]	-999	PAL1	0	R1095N
1661.342	0.0	2144691	REC_START	n/a	4	-999	n/a	DITCH	n/a	n/a	12	[0, 0, 0]	-999	PAL1	0	R1095N
1661.342	0.755	2144691	TEST_PROBE	n/a	4	4	DUCK	DITCH	DITCH	DUCK	12	[0, 0, 0]	-999	PAL1	0	R1095N
1662.097	4.262	2145446	REC_EVENT	755	4	4	DUCK	DITCH	DITCH	DUCK	12	[0, 0, 0]	-999	PAL1	0	R1095N
1666.359	0.017	2149708	REC_END	n/a	4	-999	n/a	n/a	n/a	n/a	12	[0, 0, 0]	-999	PAL1	0	R1095N
1666.376	0.8	2149725	TEST_ORIENT	n/a	1	5	DOG	CUBE	DOG	CUBE	12	[0, 0, 0]	-999	PAL1	0	R1095N
1667.176	0.0	2150525	TEST_PROBE	n/a	1	5	DOG	CUBE	DOG	CUBE	12	[0, 0, 0]	-999	PAL1	0	R1095N
1667.176	0.828	2150525	REC_START	n/a	1	-999	n/a	CUBE	n/a	n/a	12	[0, 0, 0]	-999	PAL1	0	R1095N
1668.004	4.189	2151353	REC_EVENT	828	1	5	DOG	CUBE	DOG	CUBE	12	[0, 0, 0]	-999	PAL1	0	R1095N
1672.193	0.017	2155542	REC_END	n/a	1	-999	n/a	n/a	n/a	n/a	12	[0, 0, 0]	-999	PAL1	0	R1095N
1672.21	0.966	2155559	TEST_ORIENT	n/a	6	6	BOARD	RAIN	RAIN	BOARD	12	[0, 0, 0]	-999	PAL1	0	R1095N
1673.176	0.001	2156525	TEST_PROBE	n/a	6	6	BOARD	RAIN	RAIN	BOARD	12	[0, 0, 0]	-999	PAL1	0	R1095N
1673.177	0.901	2156526	REC_START	n/a	6	-999	n/a	RAIN	n/a	n/a	12	[0, 0, 0]	-999	PAL1	0	R1095N
1674.078	4.124	2157427	REC_EVENT	901	6	6	BOARD	RAIN	RAIN	BOARD	12	[0, 0, 0]	-999	PAL1	0	R1095N
1678.202	0.026	2161551	REC_END	n/a	6	-999	n/a	n/a	n/a	n/a	12	[0, 0, 0]	-999	PAL1	0	R1095N
1678.228	10.448	2161577	FEEDBACK_SHOW_ALL_PAIRS	n/a	6	-999	n/a	n/a	n/a	n/a	12	[0, 0, 0]	-999	PAL1	0	R1095N
1688.676	10.453	2172025	ENCODING_START	n/a	0	-999	n/a	n/a	n/a	n/a	13	[0, 0, 0]	-999	PAL1	0	R1095N
1699.129	0.867	2182478	STUDY_ORIENT	n/a	1	5	DRUM	RIB	RIB	DRUM	13	[0, 0, 0]	-999	PAL1	0	R1095N
1699.996	5.034	2183345	STUDY_PAIR	n/a	1	5	DRUM	RIB	RIB	DRUM	13	[0, 0, 0]	-999	PAL1	0	R1095N
1705.03	0.8	2188379	STUDY_ORIENT	n/a	2	6	BOAT	n/a	BOAT	TOY	13	[0, 0, 0]	-999	PAL1	0	R1095N
1705.83	5.034	2189179	STUDY_PAIR	n/a	2	6	BOAT	n/a	BOAT	TOY	13	[0, 0, 0]	-999	PAL1	0	R1095N
1710.864	0.834	2194213	STUDY_ORIENT	n/a	3	3	SKUNK	ROOT	ROOT	SKUNK	13	[0, 0, 0]	-999	PAL1	0	R1095N
1711.698	5.034	2195047	STUDY_PAIR	n/a	3	3	SKUNK	ROOT	ROOT	SKUNK	13	[0, 0, 0]	-999	PAL1	0	R1095N
1716.732	0.95	2200081	STUDY_ORIENT	n/a	4	2	CHEEK	SKI	SKI	CHEEK	13	[0, 0, 0]	-999	PAL1	0	R1095N
1717.682	5.033	2201031	STUDY_PAIR	n/a	4	2	CHEEK	SKI	SKI	CHEEK	13	[0, 0, 0]	-999	PAL1	0	R1095N
1722.715	0.917	2206064	STUDY_ORIENT	n/a	5	1	TOOL	BANK	BANK	TOOL	13	[0, 0, 0]	-999	PAL1	0	R1095N
1723.632	5.034	2206981	STUDY_PAIR	n/a	5	1	TOOL	BANK	BANK	TOOL	13	[0, 0, 0]	-999	PAL1	0	R1095N
1728.666	0.8	2212015	STUDY_ORIENT	n/a	6	4	WOLF	ARK	WOLF	ARK	13	[0, 0, 0]	-999	PAL1	0	R1095N
1729.466	4.001	2212815	STUDY_PAIR	n/a	6	4	WOLF	ARK	WOLF	ARK	13	[0, 0, 0]	-999	PAL1	0	R1095N
1733.467	1.0	2216816	START	n/a	-999	-999	n/a	n/a	n/a	n/a	13	[-999, -999, -999]	-999	PAL1	0	R1095N
1734.467	0.017	2217816	MATH_START	n/a	-999	-999	n/a	n/a	n/a	n/a	13	[0, 0, 0]	-999	PAL1	0	R1095N
1734.484	4.65	2217833	PROB	4621	-999	-999	n/a	n/a	n/a	n/a	13	[4, 7, 2]	13	PAL1	0	R1095N
1739.134	3.051	2222483	PROB	3019	-999	-999	n/a	n/a	n/a	n/a	13	[3, 7, 1]	11	PAL1	0	R1095N
1742.185	2.3	2225535	PROB	2272	-999	-999	n/a	n/a	n/a	n/a	13	[9, 8, 1]	18	PAL1	0	R1095N
1744.485	3.367	2227835	PROB	3332	-999	-999	n/a	n/a	n/a	n/a	13	[1, 8, 7]	16	PAL1	0	R1095N
1747.852	3.184	2231202	PROB	3157	-999	-999	n/a	n/a	n/a	n/a	13	[5, 4, 3]	12	PAL1	0	R1095N
1751.036	4.98	2234386	PROB	4980	-999	-999	n/a	n/a	n/a	n/a	13	[1, 8, 6]	15	PAL1	0	R1095N
1756.016	0.003	2239366	STOP	n/a	-999	-999	n/a	n/a	n/a	n/a	13	[-999, -999, -999]	-999	PAL1	0	R1095N
1756.019	0.0	2239369	MATH_END	n/a	-999	-999	n/a	n/a	n/a	n/a	13	[0, 0, 0]	-999	PAL1	0	R1095N
1756.019	0.017	2239369	TEST_START	n/a	-999	-999	n/a	n/a	n/a	n/a	13	[0, 0, 0]	-999	PAL1	0	R1095N
1756.036	0.917	2239386	TEST_ORIENT	n/a	5	1	TOOL	BANK	BANK	TOOL	13	[0, 0, 0]	-999	PAL1	0	R1095N
1756.953	0.0	2240303	TEST_PROBE	n/a	5	1	TOOL	BANK	BANK	TOOL	13	[0, 0, 0]	-999	PAL1	0	R1095N
1756.953	1.014	2240303	REC_START	n/a	5	-999	n/a	BANK	n/a	n/a	13	[0, 0, 0]	-999	PAL1	0	R1095N
1757.967	4.011	2241317	REC_EVENT	1014	5	1	TOOL	BANK	BANK	TOOL	13	[0, 0, 0]	-999	PAL1	0	R1095N
1761.978	0.009	2245328	REC_END	n/a	5	-999	n/a	n/a	n/a	n/a	13	[0, 0, 0]	-999	PAL1	0	R1095N
1761.987	0.933	2245337	TEST_ORIENT	n/a	4	2	CHEEK	SKI	SKI	CHEEK	13	[0, 0, 0]	-999	PAL1	0	R1095N
1762.92	0.001	2246270	TEST_PROBE	n/a	4	2	CHEEK	SKI	SKI	CHEEK	13	[0, 0, 0]	-999	PAL1	0	R1095N
1762.921	0.922	2246271	REC_START	n/a	4	-999	n/a	SKI	n/a	n/a	13	[0, 0, 0]	-999	PAL1	0	R1095N
1763.843	4.102	2247193	REC_EVENT	922	4	2	CHEEK	SKI	SKI	CHEEK	13	[0, 0, 0]	-999	PAL1	0	R1095N
1767.945	0.009	2251295	REC_END	n/a	4	-999	n/a	n/a	n/a	n/a	13	[0, 0, 0]	-999	PAL1	0	R1095N
1767.954	0.934	2251304	TEST_ORIENT	n/a	3	3	SKUNK	ROOT	ROOT	SKUNK	13	[0, 0, 0]	-999	PAL1	0	R1095N
1768.888	0.0	2252238	TEST_PROBE	n/a	3	3	SKUNK	ROOT	ROOT	SKUNK	13	[0, 0, 0]	-999	PAL1	0	R1095N
1768.888	1.108	2252238	REC_START	n/a	3	-999	n/a	ROOT	n/a	n/a	13	[0, 0, 0]	-999	PAL1	0	R1095N
1769.996	3.909	2253346	REC_EVENT	1108	3	3	SKUNK	ROOT	ROOT	SKUNK	13	[0, 0, 0]	-999	PAL1	0	R1095N
1773.905	0.017	2257255	REC_END	n/a	3	-999	n/a	n/a	n/a	n/a	13	[0, 0, 0]	-999	PAL1	0	R1095N
1773.922	0.9	2257272	TEST_ORIENT	n/a	6	4	WOLF	ARK	WOLF	ARK	13	[0, 0, 0]	-999	PAL1	0	R1095N
1774.822	0.0	2258172	TEST_PROBE	n/a	6	4	WOLF	ARK	WOLF	ARK	13	[0, 0, 0]	-999	PAL1	0	R1095N
1774.822	0.835	2258172	REC_START	n/a	6	-999	n/a	ARK	n/a	n/a	13	[0, 0, 0]	-999	PAL1	0	R1095N
1775.657	4.182	2259007	REC_EVENT	835	6	4	WOLF	ARK	WOLF	ARK	13	[0, 0, 0]	-999	PAL1	0	R1095N
1779.839	0.017	2263189	REC_END	n/a	6	-999	n/a	n/a	n/a	n/a	13	[0, 0, 0]	-999	PAL1	0	R1095N
1779.856	0.816	2263206	TEST_ORIENT	n/a	1	5	DRUM	RIB	RIB	DRUM	13	[0, 0, 0]	-999	PAL1	0	R1095N
1780.672	0.001	2264022	TEST_PROBE	n/a	1	5	DRUM	RIB	RIB	DRUM	13	[0, 0, 0]	-999	PAL1	0	R1095N
1780.673	1.378	2264023	REC_START	n/a	1	-999	n/a	RIB	n/a	n/a	13	[0, 0, 0]	-999	PAL1	0	R1095N
1782.051	3.638	2265401	REC_EVENT	1378	1	5	DRUM	RIB	RIB	DRUM	13	[0, 0, 0]	-999	PAL1	0	R1095N
1785.689	0.017	2269039	REC_END	n/a	1	-999	n/a	n/a	n/a	n/a	13	[0, 0, 0]	-999	PAL1	0	R1095N
1785.706	1.034	2269056	TEST_ORIENT	n/a	2	6	BOAT	n/a	BOAT	TOY	13	[0, 0, 0]	-999	PAL1	0	R1095N
1786.74	0.0	2270090	REC_START	n/a	2	-999	n/a	n/a	n/a	n/a	13	[0, 0, 0]	-999	PAL1	0	R1095N
1786.74	5.015	2270090	TEST_PROBE	n/a	2	6	BOAT	n/a	BOAT	TOY	13	[0, 0, 0]	-999	PAL1	0	R1095N
1791.755	0.002	2275105	REC_EVENT	5015	2	6	BOAT	<>	BOAT	TOY	13	[0, 0, 0]	-999	PAL1	0	R1095N
1791.757	0.033	2275107	REC_END	n/a	2	-999	n/a	n/a	n/a	n/a	13	[0, 0, 0]	-999	PAL1	0	R1095N
1791.79	9.864	2275140	FEEDBACK_SHOW_ALL_PAIRS	n/a	2	-999	n/a	n/a	n/a	n/a	13	[0, 0, 0]	-999	PAL1	0	R1095N
1801.654	10.439	2285004	ENCODING_START	n/a	0	-999	n/a	n/a	n/a	n/a	14	[0, 0, 0]	-999	PAL1	0	R1095N
1812.093	0.783	2295443	STUDY_ORIENT	n/a	1	5	CRANE	TRAIN	CRANE	TRAIN	14	[0, 0, 0]	-999	PAL1	0	R1095N
1812.876	5.034	2296226	STUDY_PAIR	n/a	1	5	CRANE	TRAIN	CRANE	TRAIN	14	[0, 0, 0]	-999	PAL1	0	R1095N
1817.91	0.8	2301260	STUDY_ORIENT	n/a	2	4	STONE	n/a	STONE	HOLE	14	[0, 0, 0]	-999	PAL1	0	R1095N
1818.71	5.034	2302060	STUDY_PAIR	n/a	2	4	STONE	n/a	STONE	HOLE	14	[0, 0, 0]	-999	PAL1	0	R1095N
1823.744	1.0	2307094	STUDY_ORIENT	n/a	3	3	CONE	HOLE	DOCK	CONE	14	[0, 0, 0]	-999	PAL1	0	R1095N
1824.744	5.034	2308095	STUDY_PAIR	n/a	3	3	CONE	HOLE	DOCK	CONE	14	[0, 0, 0]	-999	PAL1	0	R1095N
1829.778	0.934	2313129	STUDY_ORIENT	n/a	4	2	BOY	TEA	BOY	TEA	14	[0, 0, 0]	-999	PAL1	0	R1095N
1830.712	5.033	2314063	STUDY_PAIR	n/a	4	2	BOY	TEA	BOY	TEA	14	[0, 0, 0]	-999	PAL1	0	R1095N
1835.745	0.884	2319096	STUDY_ORIENT	n/a	5	1	VINE	NAIL	VINE	NAIL	14	[0, 0, 0]	-999	PAL1	0	R1095N
1836.629	5.034	2319980	STUDY_PAIR	n/a	5	1	VINE	NAIL	VINE	NAIL	14	[0, 0, 0]	-999	PAL1	0	R1095N
1841.663	0.8	2325014	STUDY_ORIENT	n/a	6	6	RICE	STEM	RICE	STEM	14	[0, 0, 0]	-999	PAL1	0	R1095N
1842.463	4.018	2325814	STUDY_PAIR	n/a	6	6	RICE	STEM	RICE	STEM	14	[0, 0, 0]	-999	PAL1	0	R1095N
1846.481	0.999	2329832	START	n/a	-999	-999	n/a	n/a	n/a	n/a	14	[-999, -999, -999]	-999	PAL1	0	R1095N
1847.48	0.017	2330831	MATH_START	n/a	-999	-999	n/a	n/a	n/a	n/a	14	[0, 0, 0]	-999	PAL1	0	R1095N
1847.497	3.467	2330848	PROB	3443	-999	-999	n/a	n/a	n/a	n/a	14	[4, 4, 9]	17	PAL1	0	R1095N
1850.964	6.401	2334315	PROB	6375	-999	-999	n/a	n/a	n/a	n/a	14	[7, 8, 4]	17	PAL1	0	R1095N
1857.365	3.783	2340716	PROB	3758	-999	-999	n/a	n/a	n/a	n/a	14	[3, 9, 2]	14	PAL1	0	R1095N
1861.148	3.135	2344499	PROB	3112	-999	-999	n/a	n/a	n/a	n/a	14	[7, 6, 4]	17	PAL1	0	R1095N
1864.283	4.376	2347634	PROB	4376	-999	-999	n/a	n/a	n/a	n/a	14	[8, 7, 8]	22	PAL1	0	R1095N
1868.659	0.007	2352010	STOP	n/a	-999	-999	n/a	n/a	n/a	n/a	14	[-999, -999, -999]	-999	PAL1	0	R1095N
1868.666	0.0	2352017	TEST_START	n/a	-999	-999	n/a	n/a	n/a	n/a	14	[0, 0, 0]	-999	PAL1	0	R1095N
1868.666	0.017	2352017	MATH_END	n/a	-999	-999	n/a	n/a	n/a	n/a	14	[0, 0, 0]	-999	PAL1	0	R1095N
1868.683	1.0	2352034	TEST_ORIENT	n/a	5	1	VINE	NAIL	VINE	NAIL	14	[0, 0, 0]	-999	PAL1	0	R1095N
1869.683	0.0	2353034	TEST_PROBE	n/a	5	1	VINE	NAIL	VINE	NAIL	14	[0, 0, 0]	-999	PAL1	0	R1095N
1869.683	1.117	2353034	REC_START	n/a	5	-999	n/a	NAIL	n/a	n/a	14	[0, 0, 0]	-999	PAL1	0	R1095N
1870.8	3.9	2354151	REC_EVENT	1117	5	1	VINE	NAIL	VINE	NAIL	14	[0, 0, 0]	-999	PAL1	0	R1095N
1874.7	0.017	2358051	REC_END	n/a	5	-999	n/a	n/a	n/a	n/a	14	[0, 0, 0]	-999	PAL1	0	R1095N
1874.717	1.033	2358068	TEST_ORIENT	n/a	4	2	BOY	TEA	BOY	TEA	14	[0, 0, 0]	-999	PAL1	0	R1095N
1875.75	0.001	2359101	TEST_PROBE	n/a	4	2	BOY	TEA	BOY	TEA	14	[0, 0, 0]	-999	PAL1	0	R1095N
1875.751	0.824	2359102	REC_START	n/a	4	-999	n/a	TEA	n/a	n/a	14	[0, 0, 0]	-999	PAL1	0	R1095N
1876.575	4.192	2359926	REC_EVENT	824	4	2	BOY	TEA	BOY	TEA	14	[0, 0, 0]	-999	PAL1	0	R1095N
1880.767	0.017	2364118	REC_END	n/a	4	-999	n/a	n/a	n/a	n/a	14	[0, 0, 0]	-999	PAL1	0	R1095N
1880.784	0.8	2364135	TEST_ORIENT	n/a	3	3	CONE	HOLE	DOCK	CONE	14	[0, 0, 0]	-999	PAL1	0	R1095N
1881.584	0.001	2364935	TEST_PROBE	n/a	3	3	CONE	HOLE	DOCK	CONE	14	[0, 0, 0]	-999	PAL1	0	R1095N
1881.585	3.712	2364936	REC_START	n/a	3	-999	n/a	HOLE	n/a	n/a	14	[0, 0, 0]	-999	PAL1	0	R1095N
1885.297	1.304	2368648	REC_EVENT	3712	3	3	CONE	HOLE	DOCK	CONE	14	[0, 0, 0]	-999	PAL1	0	R1095N
1886.601	0.017	2369952	REC_END	n/a	3	-999	n/a	n/a	n/a	n/a	14	[0, 0, 0]	-999	PAL1	0	R1095N
1886.618	0.8	2369969	TEST_ORIENT	n/a	2	4	STONE	n/a	STONE	HOLE	14	[0, 0, 0]	-999	PAL1	0	R1095N
1887.418	0.001	2370769	TEST_PROBE	n/a	2	4	STONE	n/a	STONE	HOLE	14	[0, 0, 0]	-999	PAL1	0	R1095N
1887.419	5.015	2370770	REC_START	n/a	2	-999	n/a	n/a	n/a	n/a	14	[0, 0, 0]	-999	PAL1	0	R1095N
1892.434	0.001	2375785	REC_EVENT	5015	2	4	STONE	<>	STONE	HOLE	14	[0, 0, 0]	-999	PAL1	0	R1095N
1892.435	0.017	2375786	REC_END	n/a	2	-999	n/a	n/a	n/a	n/a	14	[0, 0, 0]	-999	PAL1	0	R1095N
1892.452	0.801	2375803	TEST_ORIENT	n/a	1	5	CRANE	TRAIN	CRANE	TRAIN	14	[0, 0, 0]	-999	PAL1	0	R1095N
1893.253	0.001	2376604	TEST_PROBE	n/a	1	5	CRANE	TRAIN	CRANE	TRAIN	14	[0, 0, 0]	-999	PAL1	0	R1095N
1893.254	0.815	2376605	REC_START	n/a	1	-999	n/a	TRAIN	n/a	n/a	14	[0, 0, 0]	-999	PAL1	0	R1095N
1894.069	4.201	2377420	REC_EVENT	815	1	5	CRANE	TRAIN	CRANE	TRAIN	14	[0, 0, 0]	-999	PAL1	0	R1095N
1898.27	0.017	2381621	REC_END	n/a	1	-999	n/a	n/a	n/a	n/a	14	[0, 0, 0]	-999	PAL1	0	R1095N
1898.287	0.799	2381638	TEST_ORIENT	n/a	6	6	RICE	STEM	RICE	STEM	14	[0, 0, 0]	-999	PAL1	0	R1095N
1899.086	0.001	2382437	TEST_PROBE	n/a	6	6	RICE	STEM	RICE	STEM	14	[0, 0, 0]	-999	PAL1	0	R1095N
1899.087	0.783	2382438	REC_START	n/a	6	-999	n/a	STEM	n/a	n/a	14	[0, 0, 0]	-999	PAL1	0	R1095N
1899.87	4.233	2383221	REC_EVENT	783	6	6	RICE	STEM	RICE	STEM	14	[0, 0, 0]	-999	PAL1	0	R1095N
1904.103	0.034	2387454	REC_END	n/a	6	-999	n/a	n/a	n/a	n/a	14	[0, 0, 0]	-999	PAL1	0	R1095N
1904.137	21.191	2387488	FEEDBACK_SHOW_ALL_PAIRS	n/a	6	-999	n/a	n/a	n/a	n/a	14	[0, 0, 0]	-999	PAL1	0	R1095N
1925.328	10.446	2408680	ENCODING_START	n/a	0	-999	n/a	n/a	n/a	n/a	15	[0, 0, 0]	-999	PAL1	0	R1095N
1935.774	0.967	2419126	STUDY_ORIENT	n/a	1	3	HOOF	n/a	HOOF	BIRD	15	[0, 0, 0]	-999	PAL1	0	R1095N
1936.741	5.034	2420093	STUDY_PAIR	n/a	1	3	HOOF	n/a	HOOF	BIRD	15	[0, 0, 0]	-999	PAL1	0	R1095N
1941.775	0.933	2425127	STUDY_ORIENT	n/a	2	6	BEE	SEED	BEE	SEED	15	[0, 0, 0]	-999	PAL1	0	R1095N
1942.708	5.034	2426060	STUDY_PAIR	n/a	2	6	BEE	SEED	BEE	SEED	15	[0, 0, 0]	-999	PAL1	0	R1095N
1947.742	0.933	2431094	STUDY_ORIENT	n/a	3	1	ROCK	n/a	COUCH	ROCK	15	[0, 0, 0]	-999	PAL1	0	R1095N
1948.675	5.018	2432027	STUDY_PAIR	n/a	3	1	ROCK	n/a	COUCH	ROCK	15	[0, 0, 0]	-999	PAL1	0	R1095N
1953.693	0.9	2437045	STUDY_ORIENT	n/a	4	4	JAIL	CORN	CORN	JAIL	15	[0, 0, 0]	-999	PAL1	0	R1095N
1954.593	5.034	2437945	STUDY_PAIR	n/a	4	4	JAIL	CORN	CORN	JAIL	15	[0, 0, 0]	-999	PAL1	0	R1095N
1959.627	0.9	2442979	STUDY_ORIENT	n/a	5	5	BREAD	DEER	DEER	BREAD	15	[0, 0, 0]	-999	PAL1	0	R1095N
1960.527	5.034	2443879	STUDY_PAIR	n/a	5	5	BREAD	DEER	DEER	BREAD	15	[0, 0, 0]	-999	PAL1	0	R1095N
1965.561	0.933	2448913	STUDY_ORIENT	n/a	6	2	GLASS	PALM	GLASS	PALM	15	[0, 0, 0]	-999	PAL1	0	R1095N
1966.494	4.018	2449846	STUDY_PAIR	n/a	6	2	GLASS	PALM	GLASS	PALM	15	[0, 0, 0]	-999	PAL1	0	R1095N
1970.512	0.999	2453864	START	n/a	-999	-999	n/a	n/a	n/a	n/a	15	[-999, -999, -999]	-999	PAL1	0	R1095N
1971.511	0.017	2454863	MATH_START	n/a	-999	-999	n/a	n/a	n/a	n/a	15	[0, 0, 0]	-999	PAL1	0	R1095N
1971.528	3.0	2454880	PROB	2973	-999	-999	n/a	n/a	n/a	n/a	15	[6, 6, 4]	10	PAL1	0	R1095N
1974.528	3.401	2457880	PROB	3381	-999	-999	n/a	n/a	n/a	n/a	15	[6, 9, 4]	19	PAL1	0	R1095N
1977.929	4.234	2461281	PROB	4212	-999	-999	n/a	n/a	n/a	n/a	15	[6, 8, 8]	22	PAL1	0	R1095N
1982.163	2.367	2465515	PROB	2346	-999	-999	n/a	n/a	n/a	n/a	15	[4, 4, 1]	5	PAL1	0	R1095N
1984.53	3.533	2467882	PROB	3506	-999	-999	n/a	n/a	n/a	n/a	15	[3, 2, 5]	10	PAL1	0	R1095N
1988.063	2.451	2471415	PROB	2421	-999	-999	n/a	n/a	n/a	n/a	15	[7, 1, 9]	17	PAL1	0	R1095N
1990.514	4.042	2473866	PROB	4042	-999	-999	n/a	n/a	n/a	n/a	15	[3, 3, 9]	15	PAL1	0	R1095N
1994.556	0.008	2477909	STOP	n/a	-999	-999	n/a	n/a	n/a	n/a	15	[-999, -999, -999]	-999	PAL1	0	R1095N
1994.564	0.0	2477917	MATH_END	n/a	-999	-999	n/a	n/a	n/a	n/a	15	[0, 0, 0]	-999	PAL1	0	R1095N
1994.564	0.017	2477917	TEST_START	n/a	-999	-999	n/a	n/a	n/a	n/a	15	[0, 0, 0]	-999	PAL1	0	R1095N
1994.581	0.95	2477934	TEST_ORIENT	n/a	3	1	ROCK	n/a	COUCH	ROCK	15	[0, 0, 0]	-999	PAL1	0	R1095N
1995.531	0.001	2478884	TEST_PROBE	n/a	3	1	ROCK	n/a	COUCH	ROCK	15	[0, 0, 0]	-999	PAL1	0	R1095N
1995.532	5.024	2478885	REC_START	n/a	3	-999	n/a	n/a	n/a	n/a	15	[0, 0, 0]	-999	PAL1	0	R1095N
2000.556	0.003	2483909	REC_END	n/a	3	-999	n/a	n/a	n/a	n/a	15	[0, 0, 0]	-999	PAL1	0	R1095N
2000.559	0.006	2483912	REC_EVENT	5027	3	1	ROCK	<>	COUCH	ROCK	15	[0, 0, 0]	-999	PAL1	0	R1095N
2000.565	1.017	2483918	TEST_ORIENT	n/a	6	2	GLASS	PALM	GLASS	PALM	15	[0, 0, 0]	-999	PAL1	0	R1095N
2001.582	0.0	2484935	REC_START	n/a	6	-999	n/a	PALM	n/a	n/a	15	[0, 0, 0]	-999	PAL1	0	R1095N
2001.582	0.884	2484935	TEST_PROBE	n/a	6	2	GLASS	PALM	GLASS	PALM	15	[0, 0, 0]	-999	PAL1	0	R1095N
2002.466	4.141	2485819	REC_EVENT	884	6	2	GLASS	PALM	GLASS	PALM	15	[0, 0, 0]	-999	PAL1	0	R1095N
2006.607	0.009	2489960	REC_END	n/a	6	-999	n/a	n/a	n/a	n/a	15	[0, 0, 0]	-999	PAL1	0	R1095N
2006.616	1.0	2489969	TEST_ORIENT	n/a	1	3	HOOF	n/a	HOOF	BIRD	15	[0, 0, 0]	-999	PAL1	0	R1095N
2007.616	0.0	2490969	TEST_PROBE	n/a	1	3	HOOF	n/a	HOOF	BIRD	15	[0, 0, 0]	-999	PAL1	0	R1095N
2007.616	5.015	2490969	REC_START	n/a	1	-999	n/a	n/a	n/a	n/a	15	[0, 0, 0]	-999	PAL1	0	R1095N
2012.631	0.002	2495984	REC_EVENT	5015	1	3	HOOF	<>	HOOF	BIRD	15	[0, 0, 0]	-999	PAL1	0	R1095N
2012.633	0.017	2495986	REC_END	n/a	1	-999	n/a	n/a	n/a	n/a	15	[0, 0, 0]	-999	PAL1	0	R1095N
2012.65	0.816	2496003	TEST_ORIENT	n/a	4	4	JAIL	CORN	CORN	JAIL	15	[0, 0, 0]	-999	PAL1	0	R1095N
2013.466	0.001	2496819	TEST_PROBE	n/a	4	4	JAIL	CORN	CORN	JAIL	15	[0, 0, 0]	-999	PAL1	0	R1095N
2013.467	1.224	2496820	REC_START	n/a	4	-999	n/a	CORN	n/a	n/a	15	[0, 0, 0]	-999	PAL1	0	R1095N
2014.691	3.784	2498044	REC_EVENT	1224	4	4	JAIL	CORN	CORN	JAIL	15	[0, 0, 0]	-999	PAL1	0	R1095N
2018.475	0.009	2501828	REC_END	n/a	4	-999	n/a	n/a	n/a	n/a	15	[0, 0, 0]	-999	PAL1	0	R1095N
2018.484	0.966	2501837	TEST_ORIENT	n/a	5	5	BREAD	DEER	DEER	BREAD	15	[0, 0, 0]	-999	PAL1	0	R1095N
2019.45	0.001	2502803	TEST_PROBE	n/a	5	5	BREAD	DEER	DEER	BREAD	15	[0, 0, 0]	-999	PAL1	0	R1095N
2019.451	0.964	2502804	REC_START	n/a	5	-999	n/a	DEER	n/a	n/a	15	[0, 0, 0]	-999	PAL1	0	R1095N
2020.415	4.044	2503768	REC_EVENT	964	5	5	BREAD	DEER	DEER	BREAD	15	[0, 0, 0]	-999	PAL1	0	R1095N
2024.459	0.009	2507812	REC_END	n/a	5	-999	n/a	n/a	n/a	n/a	15	[0, 0, 0]	-999	PAL1	0	R1095N
2024.468	0.817	2507821	TEST_ORIENT	n/a	2	6	BEE	SEED	BEE	SEED	15	[0, 0, 0]	-999	PAL1	0	R1095N
2025.285	0.001	2508638	TEST_PROBE	n/a	2	6	BEE	SEED	BEE	SEED	15	[0, 0, 0]	-999	PAL1	0	R1095N
2025.286	0.702	2508639	REC_START	n/a	2	-999	n/a	SEED	n/a	n/a	15	[0, 0, 0]	-999	PAL1	0	R1095N
2025.988	4.305	2509341	REC_EVENT	702	2	6	BEE	SEED	BEE	SEED	15	[0, 0, 0]	-999	PAL1	0	R1095N
2030.293	0.025	2513646	REC_END	n/a	2	-999	n/a	n/a	n/a	n/a	15	[0, 0, 0]	-999	PAL1	0	R1095N
2030.318	10.804	2513671	FEEDBACK_SHOW_ALL_PAIRS	n/a	2	-999	n/a	n/a	n/a	n/a	15	[0, 0, 0]	-999	PAL1	0	R1095N
2041.122	10.449	2524475	ENCODING_START	n/a	0	-999	n/a	n/a	n/a	n/a	16	[0, 0, 0]	-999	PAL1	0	R1095N
2051.571	1.0	2534924	STUDY_ORIENT	n/a	1	1	FLEA	BRIDGE	BRIDGE	FLEA	16	[0, 0, 0]	-999	PAL1	0	R1095N
2052.571	5.034	2535924	STUDY_PAIR	n/a	1	1	FLEA	BRIDGE	BRIDGE	FLEA	16	[0, 0, 0]	-999	PAL1	0	R1095N
2057.605	0.867	2540958	STUDY_ORIENT	n/a	2	4	SUIT	COIN	COIN	SUIT	16	[0, 0, 0]	-999	PAL1	0	R1095N
2058.472	5.034	2541825	STUDY_PAIR	n/a	2	4	SUIT	COIN	COIN	SUIT	16	[0, 0, 0]	-999	PAL1	0	R1095N
2063.506	0.916	2546859	STUDY_ORIENT	n/a	3	3	SHIP	n/a	CROW	SHIP	16	[0, 0, 0]	-999	PAL1	0	R1095N
2064.422	5.018	2547775	STUDY_PAIR	n/a	3	3	SHIP	n/a	CROW	SHIP	16	[0, 0, 0]	-999	PAL1	0	R1095N
2069.44	0.834	2552793	STUDY_ORIENT	n/a	4	2	SCHOOL	CORD	SCHOOL	CORD	16	[0, 0, 0]	-999	PAL1	0	R1095N
2070.274	5.033	2553627	STUDY_PAIR	n/a	4	2	SCHOOL	CORD	SCHOOL	CORD	16	[0, 0, 0]	-999	PAL1	0	R1095N
2075.307	0.867	2558660	STUDY_ORIENT	n/a	5	5	SWAMP	CHALK	CHALK	SWAMP	16	[0, 0, 0]	-999	PAL1	0	R1095N
2076.174	5.034	2559527	STUDY_PAIR	n/a	5	5	SWAMP	CHALK	CHALK	SWAMP	16	[0, 0, 0]	-999	PAL1	0	R1095N
2081.208	0.95	2564562	STUDY_ORIENT	n/a	6	6	BOX	HEN	HEN	BOX	16	[0, 0, 0]	-999	PAL1	0	R1095N
2082.158	4.018	2565512	STUDY_PAIR	n/a	6	6	BOX	HEN	HEN	BOX	16	[0, 0, 0]	-999	PAL1	0	R1095N
2086.176	0.999	2569530	START	n/a	-999	-999	n/a	n/a	n/a	n/a	16	[-999, -999, -999]	-999	PAL1	0	R1095N
2087.175	0.017	2570529	MATH_START	n/a	-999	-999	n/a	n/a	n/a	n/a	16	[0, 0, 0]	-999	PAL1	0	R1095N
2087.192	3.634	2570546	PROB	3607	-999	-999	n/a	n/a	n/a	n/a	16	[5, 8, 2]	15	PAL1	0	R1095N
2090.826	4.867	2574180	PROB	4837	-999	-999	n/a	n/a	n/a	n/a	16	[1, 6, 8]	15	PAL1	0	R1095N
2095.693	2.95	2579047	PROB	2922	-999	-999	n/a	n/a	n/a	n/a	16	[4, 1, 6]	11	PAL1	0	R1095N
2098.643	5.667	2581997	PROB	5636	-999	-999	n/a	n/a	n/a	n/a	16	[1, 7, 5]	13	PAL1	0	R1095N
2104.31	6.272	2587664	PROB	6272	-999	-999	n/a	n/a	n/a	n/a	16	[4, 8, 7]	19	PAL1	0	R1095N
2110.582	0.013	2593936	STOP	n/a	-999	-999	n/a	n/a	n/a	n/a	16	[-999, -999, -999]	-999	PAL1	0	R1095N
2110.595	0.0	2593949	MATH_END	n/a	-999	-999	n/a	n/a	n/a	n/a	16	[0, 0, 0]	-999	PAL1	0	R1095N
2110.595	0.016	2593949	TEST_START	n/a	-999	-999	n/a	n/a	n/a	n/a	16	[0, 0, 0]	-999	PAL1	0	R1095N
2110.611	0.934	2593965	TEST_ORIENT	n/a	1	1	FLEA	BRIDGE	BRIDGE	FLEA	16	[0, 0, 0]	-999	PAL1	0	R1095N
2111.545	0.001	2594899	TEST_PROBE	n/a	1	1	FLEA	BRIDGE	BRIDGE	FLEA	16	[0, 0, 0]	-999	PAL1	0	R1095N
2111.546	0.863	2594900	REC_START	n/a	1	-999	n/a	BRIDGE	n/a	n/a	16	[0, 0, 0]	-999	PAL1	0	R1095N
2112.409	4.161	2595763	REC_EVENT	863	1	1	FLEA	BRIDGE	BRIDGE	FLEA	16	[0, 0, 0]	-999	PAL1	0	R1095N
2116.57	0.009	2599924	REC_END	n/a	1	-999	n/a	n/a	n/a	n/a	16	[0, 0, 0]	-999	PAL1	0	R1095N
2116.579	1.016	2599933	TEST_ORIENT	n/a	4	2	SCHOOL	CORD	SCHOOL	CORD	16	[0, 0, 0]	-999	PAL1	0	R1095N
2117.595	0.001	2600949	TEST_PROBE	n/a	4	2	SCHOOL	CORD	SCHOOL	CORD	16	[0, 0, 0]	-999	PAL1	0	R1095N
2117.596	0.877	2600950	REC_START	n/a	4	-999	n/a	CORD	n/a	n/a	16	[0, 0, 0]	-999	PAL1	0	R1095N
2118.473	4.139	2601827	REC_EVENT	877	4	2	SCHOOL	CORD	SCHOOL	CORD	16	[0, 0, 0]	-999	PAL1	0	R1095N
2122.612	0.017	2605966	REC_END	n/a	4	-999	n/a	n/a	n/a	n/a	16	[0, 0, 0]	-999	PAL1	0	R1095N
2122.629	1.033	2605983	TEST_ORIENT	n/a	3	3	SHIP	n/a	CROW	SHIP	16	[0, 0, 0]	-999	PAL1	0	R1095N
2123.662	0.001	2607016	TEST_PROBE	n/a	3	3	SHIP	n/a	CROW	SHIP	16	[0, 0, 0]	-999	PAL1	0	R1095N
2123.663	5.008	2607017	REC_START	n/a	3	-999	n/a	n/a	n/a	n/a	16	[0, 0, 0]	-999	PAL1	0	R1095N
2128.671	0.001	2612025	REC_END	n/a	3	-999	n/a	n/a	n/a	n/a	16	[0, 0, 0]	-999	PAL1	0	R1095N
2128.672	0.008	2612026	REC_EVENT	5009	3	3	SHIP	<>	CROW	SHIP	16	[0, 0, 0]	-999	PAL1	0	R1095N
2128.68	0.933	2612034	TEST_ORIENT	n/a	2	4	SUIT	COIN	COIN	SUIT	16	[0, 0, 0]	-999	PAL1	0	R1095N
2129.613	0.001	2612967	TEST_PROBE	n/a	2	4	SUIT	COIN	COIN	SUIT	16	[0, 0, 0]	-999	PAL1	0	R1095N
2129.614	1.098	2612968	REC_START	n/a	2	-999	n/a	COIN	n/a	n/a	16	[0, 0, 0]	-999	PAL1	0	R1095N
2130.712	3.91	2614066	REC_EVENT	1098	2	4	SUIT	COIN	COIN	SUIT	16	[0, 0, 0]	-999	PAL1	0	R1095N
2134.622	0.009	2617976	REC_END	n/a	2	-999	n/a	n/a	n/a	n/a	16	[0, 0, 0]	-999	PAL1	0	R1095N
2134.631	0.933	2617985	TEST_ORIENT	n/a	5	5	SWAMP	CHALK	CHALK	SWAMP	16	[0, 0, 0]	-999	PAL1	0	R1095N
2135.564	0.001	2618918	TEST_PROBE	n/a	5	5	SWAMP	CHALK	CHALK	SWAMP	16	[0, 0, 0]	-999	PAL1	0	R1095N
2135.565	0.996	2618919	REC_START	n/a	5	-999	n/a	CHALK	n/a	n/a	16	[0, 0, 0]	-999	PAL1	0	R1095N
2136.561	4.028	2619915	REC_EVENT	996	5	5	SWAMP	CHALK	CHALK	SWAMP	16	[0, 0, 0]	-999	PAL1	0	R1095N
2140.589	0.009	2623943	REC_END	n/a	5	-999	n/a	n/a	n/a	n/a	16	[0, 0, 0]	-999	PAL1	0	R1095N
2140.598	0.95	2623952	TEST_ORIENT	n/a	6	6	BOX	HEN	HEN	BOX	16	[0, 0, 0]	-999	PAL1	0	R1095N
2141.548	0.001	2624902	TEST_PROBE	n/a	6	6	BOX	HEN	HEN	BOX	16	[0, 0, 0]	-999	PAL1	0	R1095N
2141.549	0.765	2624903	REC_START	n/a	6	-999	n/a	HEN	n/a	n/a	16	[0, 0, 0]	-999	PAL1	0	R1095N
2142.314	4.259	2625668	REC_EVENT	765	6	6	BOX	HEN	HEN	BOX	16	[0, 0, 0]	-999	PAL1	0	R1095N
2146.573	0.026	2629927	REC_END	n/a	6	-999	n/a	n/a	n/a	n/a	16	[0, 0, 0]	-999	PAL1	0	R1095N
2146.599	9.853	2629953	FEEDBACK_SHOW_ALL_PAIRS	n/a	6	-999	n/a	n/a	n/a	n/a	16	[0, 0, 0]	-999	PAL1	0	R1095N
2156.452	10.449	2639806	ENCODING_START	n/a	0	-999	n/a	n/a	n/a	n/a	17	[0, 0, 0]	-999	PAL1	0	R1095N
2166.901	0.967	2650256	STUDY_ORIENT	n/a	1	1	BAT	NEST	NEST	BAT	17	[0, 0, 0]	-999	PAL1	0	R1095N
2167.868	5.034	2651223	STUDY_PAIR	n/a	1	1	BAT	NEST	NEST	BAT	17	[0, 0, 0]	-999	PAL1	0	R1095N
2172.902	0.95	2656257	STUDY_ORIENT	n/a	2	6	RAKE	SPEAR	RAKE	SPEAR	17	[0, 0, 0]	-999	PAL1	0	R1095N
2173.852	5.034	2657207	STUDY_PAIR	n/a	2	6	RAKE	SPEAR	RAKE	SPEAR	17	[0, 0, 0]	-999	PAL1	0	R1095N
2178.886	0.9	2662241	STUDY_ORIENT	n/a	3	3	ROOM	STICK	STICK	ROOM	17	[0, 0, 0]	-999	PAL1	0	R1095N
2179.786	5.034	2663141	STUDY_PAIR	n/a	3	3	ROOM	STICK	STICK	ROOM	17	[0, 0, 0]	-999	PAL1	0	R1095N
2184.82	1.0	2668175	STUDY_ORIENT	n/a	4	4	CART	n/a	CART	SHRIMP	17	[0, 0, 0]	-999	PAL1	0	R1095N
2185.82	5.034	2669175	STUDY_PAIR	n/a	4	4	CART	n/a	CART	SHRIMP	17	[0, 0, 0]	-999	PAL1	0	R1095N
2190.854	0.95	2674209	STUDY_ORIENT	n/a	5	5	LOCK	MOON	LOCK	MOON	17	[0, 0, 0]	-999	PAL1	0	R1095N
2191.804	5.034	2675159	STUDY_PAIR	n/a	5	5	LOCK	MOON	LOCK	MOON	17	[0, 0, 0]	-999	PAL1	0	R1095N
2196.838	1.017	2680193	STUDY_ORIENT	n/a	6	2	STORM	HOOK	STORM	HOOK	17	[0, 0, 0]	-999	PAL1	0	R1095N
2197.855	4.017	2681210	STUDY_PAIR	n/a	6	2	STORM	HOOK	STORM	HOOK	17	[0, 0, 0]	-999	PAL1	0	R1095N
2201.872	1.0	2685227	START	n/a	-999	-999	n/a	n/a	n/a	n/a	17	[-999, -999, -999]	-999	PAL1	0	R1095N
2202.872	0.017	2686227	MATH_START	n/a	-999	-999	n/a	n/a	n/a	n/a	17	[0, 0, 0]	-999	PAL1	0	R1095N
2202.889	3.767	2686244	PROB	3736	-999	-999	n/a	n/a	n/a	n/a	17	[7, 8, 2]	17	PAL1	0	R1095N
2206.656	3.585	2690011	PROB	3553	-999	-999	n/a	n/a	n/a	n/a	17	[2, 2, 5]	9	PAL1	0	R1095N
2210.241	6.116	2693596	PROB	6087	-999	-999	n/a	n/a	n/a	n/a	17	[6, 8, 9]	23	PAL1	0	R1095N
2216.357	2.484	2699712	PROB	2459	-999	-999	n/a	n/a	n/a	n/a	17	[2, 1, 8]	11	PAL1	0	R1095N
2218.841	3.631	2702196	PROB	3631	-999	-999	n/a	n/a	n/a	n/a	17	[2, 6, 3]	11	PAL1	0	R1095N
2222.472	0.002	2705827	STOP	n/a	-999	-999	n/a	n/a	n/a	n/a	17	[-999, -999, -999]	-999	PAL1	0	R1095N
2222.474	0.0	2705829	MATH_END	n/a	-999	-999	n/a	n/a	n/a	n/a	17	[0, 0, 0]	-999	PAL1	0	R1095N
2222.474	0.017	2705829	TEST_START	n/a	-999	-999	n/a	n/a	n/a	n/a	17	[0, 0, 0]	-999	PAL1	0	R1095N
2222.491	0.801	2705846	TEST_ORIENT	n/a	1	1	BAT	NEST	NEST	BAT	17	[0, 0, 0]	-999	PAL1	0	R1095N
2223.292	0.0	2706647	TEST_PROBE	n/a	1	1	BAT	NEST	NEST	BAT	17	[0, 0, 0]	-999	PAL1	0	R1095N
2223.292	1.099	2706647	REC_START	n/a	1	-999	n/a	NEST	n/a	n/a	17	[0, 0, 0]	-999	PAL1	0	R1095N
2224.391	3.917	2707746	REC_EVENT	1099	1	1	BAT	NEST	NEST	BAT	17	[0, 0, 0]	-999	PAL1	0	R1095N
2228.308	0.017	2711663	REC_END	n/a	1	-999	n/a	n/a	n/a	n/a	17	[0, 0, 0]	-999	PAL1	0	R1095N
2228.325	1.017	2711680	TEST_ORIENT	n/a	6	2	STORM	HOOK	STORM	HOOK	17	[0, 0, 0]	-999	PAL1	0	R1095N
2229.342	0.0	2712697	REC_START	n/a	6	-999	n/a	HOOK	n/a	n/a	17	[0, 0, 0]	-999	PAL1	0	R1095N
2229.342	1.526	2712697	TEST_PROBE	n/a	6	2	STORM	HOOK	STORM	HOOK	17	[0, 0, 0]	-999	PAL1	0	R1095N
2230.868	3.491	2714223	REC_EVENT	1526	6	2	STORM	HOOK	STORM	HOOK	17	[0, 0, 0]	-999	PAL1	0	R1095N
2234.359	0.017	2717714	REC_END	n/a	6	-999	n/a	n/a	n/a	n/a	17	[0, 0, 0]	-999	PAL1	0	R1095N
2234.376	0.833	2717731	TEST_ORIENT	n/a	3	3	ROOM	STICK	STICK	ROOM	17	[0, 0, 0]	-999	PAL1	0	R1095N
2235.209	0.001	2718564	TEST_PROBE	n/a	3	3	ROOM	STICK	STICK	ROOM	17	[0, 0, 0]	-999	PAL1	0	R1095N
2235.21	0.876	2718565	REC_START	n/a	3	-999	n/a	STICK	n/a	n/a	17	[0, 0, 0]	-999	PAL1	0	R1095N
2236.086	4.149	2719441	REC_EVENT	876	3	3	ROOM	STICK	STICK	ROOM	17	[0, 0, 0]	-999	PAL1	0	R1095N
2240.235	0.009	2723590	REC_END	n/a	3	-999	n/a	n/a	n/a	n/a	17	[0, 0, 0]	-999	PAL1	0	R1095N
2240.244	1.017	2723599	TEST_ORIENT	n/a	4	4	CART	n/a	CART	SHRIMP	17	[0, 0, 0]	-999	PAL1	0	R1095N
2241.261	0.0	2724616	REC_START	n/a	4	-999	n/a	n/a	n/a	n/a	17	[0, 0, 0]	-999	PAL1	0	R1095N
2241.261	5.015	2724616	TEST_PROBE	n/a	4	4	CART	n/a	CART	SHRIMP	17	[0, 0, 0]	-999	PAL1	0	R1095N
2246.276	0.002	2729631	REC_EVENT	5015	4	4	CART	<>	CART	SHRIMP	17	[0, 0, 0]	-999	PAL1	0	R1095N
2246.278	0.016	2729633	REC_END	n/a	4	-999	n/a	n/a	n/a	n/a	17	[0, 0, 0]	-999	PAL1	0	R1095N
2246.294	1.033	2729649	TEST_ORIENT	n/a	5	5	LOCK	MOON	LOCK	MOON	17	[0, 0, 0]	-999	PAL1	0	R1095N
2247.327	0.001	2730683	TEST_PROBE	n/a	5	5	LOCK	MOON	LOCK	MOON	17	[0, 0, 0]	-999	PAL1	0	R1095N
2247.328	0.71	2730684	REC_START	n/a	5	-999	n/a	MOON	n/a	n/a	17	[0, 0, 0]	-999	PAL1	0	R1095N
2248.038	4.314	2731394	REC_EVENT	710	5	5	LOCK	MOON	LOCK	MOON	17	[0, 0, 0]	-999	PAL1	0	R1095N
2252.352	0.009	2735708	REC_END	n/a	5	-999	n/a	n/a	n/a	n/a	17	[0, 0, 0]	-999	PAL1	0	R1095N
2252.361	0.984	2735717	TEST_ORIENT	n/a	2	6	RAKE	SPEAR	RAKE	SPEAR	17	[0, 0, 0]	-999	PAL1	0	R1095N
2253.345	0.0	2736701	TEST_PROBE	n/a	2	6	RAKE	SPEAR	RAKE	SPEAR	17	[0, 0, 0]	-999	PAL1	0	R1095N
2253.345	2.093	2736701	REC_START	n/a	2	-999	n/a	SPEAR	n/a	n/a	17	[0, 0, 0]	-999	PAL1	0	R1095N
2255.438	1.755	2738794	REC_EVENT	2093	2	6	RAKE	BROOM	RAKE	SPEAR	17	[0, 0, 0]	-999	PAL1	0	R1095N
2257.193	0.041	2740549	REC_EVENT	3848	2	6	RAKE	<>	RAKE	SPEAR	17	[0, 0, 0]	-999	PAL1	0	R1095N
2257.234	1.128	2740590	REC_EVENT	3889	2	6	RAKE	SPEAR	RAKE	SPEAR	17	[0, 0, 0]	-999	PAL1	0	R1095N
2258.362	0.033	2741718	REC_END	n/a	2	-999	n/a	n/a	n/a	n/a	17	[0, 0, 0]	-999	PAL1	0	R1095N
2258.395	9.627	2741751	FEEDBACK_SHOW_ALL_PAIRS	n/a	2	-999	n/a	n/a	n/a	n/a	17	[0, 0, 0]	-999	PAL1	0	R1095N
2268.022	10.442	2751378	ENCODING_START	n/a	0	-999	n/a	n/a	n/a	n/a	18	[0, 0, 0]	-999	PAL1	0	R1095N
2278.464	0.85	2761820	STUDY_ORIENT	n/a	1	5	GOLD	GRAPE	GOLD	GRAPE	18	[0, 0, 0]	-999	PAL1	0	R1095N
2279.314	5.034	2762670	STUDY_PAIR	n/a	1	5	GOLD	GRAPE	GOLD	GRAPE	18	[0, 0, 0]	-999	PAL1	0	R1095N
2284.348	0.817	2767704	STUDY_ORIENT	n/a	2	6	HAWK	COW	COW	HAWK	18	[0, 0, 0]	-999	PAL1	0	R1095N
2285.165	5.034	2768521	STUDY_PAIR	n/a	2	6	HAWK	COW	COW	HAWK	18	[0, 0, 0]	-999	PAL1	0	R1095N
2290.199	0.9	2773555	STUDY_ORIENT	n/a	3	3	LAMB	BRICK	LAMB	BRICK	18	[0, 0, 0]	-999	PAL1	0	R1095N
2291.099	5.034	2774455	STUDY_PAIR	n/a	3	3	LAMB	BRICK	LAMB	BRICK	18	[0, 0, 0]	-999	PAL1	0	R1095N
2296.133	0.883	2779489	STUDY_ORIENT	n/a	4	4	STRAW	JUICE	JUICE	STRAW	18	[0, 0, 0]	-999	PAL1	0	R1095N
2297.016	5.018	2780372	STUDY_PAIR	n/a	4	4	STRAW	JUICE	JUICE	STRAW	18	[0, 0, 0]	-999	PAL1	0	R1095N
2302.034	0.816	2785390	STUDY_ORIENT	n/a	5	1	BEAK	GRASS	GRASS	BEAK	18	[0, 0, 0]	-999	PAL1	0	R1095N
2302.85	5.018	2786206	STUDY_PAIR	n/a	5	1	BEAK	GRASS	GRASS	BEAK	18	[0, 0, 0]	-999	PAL1	0	R1095N
2307.868	0.8	2791224	STUDY_ORIENT	n/a	6	2	JAR	PIT	PIT	JAR	18	[0, 0, 0]	-999	PAL1	0	R1095N
2308.668	4.018	2792024	STUDY_PAIR	n/a	6	2	JAR	PIT	PIT	JAR	18	[0, 0, 0]	-999	PAL1	0	R1095N
2312.686	0.999	2796042	START	n/a	-999	-999	n/a	n/a	n/a	n/a	18	[-999, -999, -999]	-999	PAL1	0	R1095N
2313.685	0.017	2797041	MATH_START	n/a	-999	-999	n/a	n/a	n/a	n/a	18	[0, 0, 0]	-999	PAL1	0	R1095N
2313.702	3.984	2797058	PROB	3957	-999	-999	n/a	n/a	n/a	n/a	18	[3, 4, 4]	11	PAL1	0	R1095N
2317.686	3.0	2801042	PROB	2965	-999	-999	n/a	n/a	n/a	n/a	18	[5, 7, 5]	17	PAL1	0	R1095N
2320.686	2.85	2804042	PROB	2821	-999	-999	n/a	n/a	n/a	n/a	18	[6, 6, 3]	15	PAL1	0	R1095N
2323.536	3.634	2806892	PROB	3611	-999	-999	n/a	n/a	n/a	n/a	18	[5, 4, 4]	13	PAL1	0	R1095N
2327.17	5.251	2810526	PROB	5224	-999	-999	n/a	n/a	n/a	n/a	18	[7, 6, 3]	16	PAL1	0	R1095N
2332.421	2.693	2815778	PROB	2693	-999	-999	n/a	n/a	n/a	n/a	18	[6, 9, 1]	16	PAL1	0	R1095N
2335.114	0.007	2818471	STOP	n/a	-999	-999	n/a	n/a	n/a	n/a	18	[-999, -999, -999]	-999	PAL1	0	R1095N
2335.121	0.0	2818478	MATH_END	n/a	-999	-999	n/a	n/a	n/a	n/a	18	[0, 0, 0]	-999	PAL1	0	R1095N
2335.121	0.016	2818478	TEST_START	n/a	-999	-999	n/a	n/a	n/a	n/a	18	[0, 0, 0]	-999	PAL1	0	R1095N
2335.137	0.934	2818494	TEST_ORIENT	n/a	5	1	BEAK	GRASS	GRASS	BEAK	18	[0, 0, 0]	-999	PAL1	0	R1095N
2336.071	0.0	2819428	TEST_PROBE	n/a	5	1	BEAK	GRASS	GRASS	BEAK	18	[0, 0, 0]	-999	PAL1	0	R1095N
2336.071	2.581	2819428	REC_START	n/a	5	-999	n/a	GRASS	n/a	n/a	18	[0, 0, 0]	-999	PAL1	0	R1095N
2338.652	2.436	2822009	REC_EVENT	2581	5	1	BEAK	GRASS	GRASS	BEAK	18	[0, 0, 0]	-999	PAL1	0	R1095N
2341.088	0.017	2824445	REC_END	n/a	5	-999	n/a	n/a	n/a	n/a	18	[0, 0, 0]	-999	PAL1	0	R1095N
2341.105	1.033	2824462	TEST_ORIENT	n/a	6	2	JAR	PIT	PIT	JAR	18	[0, 0, 0]	-999	PAL1	0	R1095N
2342.138	0.001	2825495	TEST_PROBE	n/a	6	2	JAR	PIT	PIT	JAR	18	[0, 0, 0]	-999	PAL1	0	R1095N
2342.139	0.733	2825496	REC_START	n/a	6	-999	n/a	PIT	n/a	n/a	18	[0, 0, 0]	-999	PAL1	0	R1095N
2342.872	4.283	2826229	REC_EVENT	733	6	2	JAR	PIT	PIT	JAR	18	[0, 0, 0]	-999	PAL1	0	R1095N
2347.155	0.017	2830512	REC_END	n/a	6	-999	n/a	n/a	n/a	n/a	18	[0, 0, 0]	-999	PAL1	0	R1095N
2347.172	0.984	2830529	TEST_ORIENT	n/a	3	3	LAMB	BRICK	LAMB	BRICK	18	[0, 0, 0]	-999	PAL1	0	R1095N
2348.156	0.0	2831513	REC_START	n/a	3	-999	n/a	BRICK	n/a	n/a	18	[0, 0, 0]	-999	PAL1	0	R1095N
2348.156	0.906	2831513	TEST_PROBE	n/a	3	3	LAMB	BRICK	LAMB	BRICK	18	[0, 0, 0]	-999	PAL1	0	R1095N
2349.062	4.111	2832419	REC_EVENT	906	3	3	LAMB	BRICK	LAMB	BRICK	18	[0, 0, 0]	-999	PAL1	0	R1095N
2353.173	0.017	2836530	REC_END	n/a	3	-999	n/a	n/a	n/a	n/a	18	[0, 0, 0]	-999	PAL1	0	R1095N
2353.19	0.8	2836547	TEST_ORIENT	n/a	4	4	STRAW	JUICE	JUICE	STRAW	18	[0, 0, 0]	-999	PAL1	0	R1095N
2353.99	0.001	2837347	TEST_PROBE	n/a	4	4	STRAW	JUICE	JUICE	STRAW	18	[0, 0, 0]	-999	PAL1	0	R1095N
2353.991	0.764	2837348	REC_START	n/a	4	-999	n/a	JUICE	n/a	n/a	18	[0, 0, 0]	-999	PAL1	0	R1095N
2354.755	4.26	2838112	REC_EVENT	764	4	4	STRAW	JUICE	JUICE	STRAW	18	[0, 0, 0]	-999	PAL1	0	R1095N
2359.015	0.009	2842372	REC_END	n/a	4	-999	n/a	n/a	n/a	n/a	18	[0, 0, 0]	-999	PAL1	0	R1095N
2359.024	0.833	2842381	TEST_ORIENT	n/a	1	5	GOLD	GRAPE	GOLD	GRAPE	18	[0, 0, 0]	-999	PAL1	0	R1095N
2359.857	0.001	2843214	TEST_PROBE	n/a	1	5	GOLD	GRAPE	GOLD	GRAPE	18	[0, 0, 0]	-999	PAL1	0	R1095N
2359.858	0.767	2843215	REC_START	n/a	1	-999	n/a	GRAPE	n/a	n/a	18	[0, 0, 0]	-999	PAL1	0	R1095N
2360.625	4.257	2843982	REC_EVENT	767	1	5	GOLD	GRAPE	GOLD	GRAPE	18	[0, 0, 0]	-999	PAL1	0	R1095N
2364.882	0.009	2848239	REC_END	n/a	1	-999	n/a	n/a	n/a	n/a	18	[0, 0, 0]	-999	PAL1	0	R1095N
2364.891	0.934	2848248	TEST_ORIENT	n/a	2	6	HAWK	COW	COW	HAWK	18	[0, 0, 0]	-999	PAL1	0	R1095N
2365.825	0.0	2849182	TEST_PROBE	n/a	2	6	HAWK	COW	COW	HAWK	18	[0, 0, 0]	-999	PAL1	0	R1095N
2365.825	1.099	2849182	REC_START	n/a	2	-999	n/a	COW	n/a	n/a	18	[0, 0, 0]	-999	PAL1	0	R1095N
2366.924	3.918	2850281	REC_EVENT	1099	2	6	HAWK	COW	COW	HAWK	18	[0, 0, 0]	-999	PAL1	0	R1095N
2370.842	0.033	2854199	REC_END	n/a	2	-999	n/a	n/a	n/a	n/a	18	[0, 0, 0]	-999	PAL1	0	R1095N
2370.875	11.013	2854232	FEEDBACK_SHOW_ALL_PAIRS	n/a	2	-999	n/a	n/a	n/a	n/a	18	[0, 0, 0]	-999	PAL1	0	R1095N
2381.888	10.44	2865245	ENCODING_START	n/a	0	-999	n/a	n/a	n/a	n/a	19	[0, 0, 0]	-999	PAL1	0	R1095N
2392.328	0.983	2875685	STUDY_ORIENT	n/a	1	3	PIPE	ICE	ICE	PIPE	19	[0, 0, 0]	-999	PAL1	0	R1095N
2393.311	5.034	2876668	STUDY_PAIR	n/a	1	3	PIPE	ICE	ICE	PIPE	19	[0, 0, 0]	-999	PAL1	0	R1095N
2398.345	0.8	2881702	STUDY_ORIENT	n/a	2	6	ZOO	MUD	MUD	ZOO	19	[0, 0, 0]	-999	PAL1	0	R1095N
2399.145	5.034	2882502	STUDY_PAIR	n/a	2	6	ZOO	MUD	MUD	ZOO	19	[0, 0, 0]	-999	PAL1	0	R1095N
2404.179	0.783	2887536	STUDY_ORIENT	n/a	3	1	BAG	BOOK	BAG	BOOK	19	[0, 0, 0]	-999	PAL1	0	R1095N
2404.962	5.018	2888319	STUDY_PAIR	n/a	3	1	BAG	BOOK	BAG	BOOK	19	[0, 0, 0]	-999	PAL1	0	R1095N
2409.98	0.833	2893337	STUDY_ORIENT	n/a	4	2	MAIL	STEAK	MAIL	STEAK	19	[0, 0, 0]	-999	PAL1	0	R1095N
2410.813	5.034	2894170	STUDY_PAIR	n/a	4	2	MAIL	STEAK	MAIL	STEAK	19	[0, 0, 0]	-999	PAL1	0	R1095N
2415.847	0.984	2899205	STUDY_ORIENT	n/a	5	5	CAT	HOSE	CAT	HOSE	19	[0, 0, 0]	-999	PAL1	0	R1095N
2416.831	5.033	2900189	STUDY_PAIR	n/a	5	5	CAT	HOSE	CAT	HOSE	19	[0, 0, 0]	-999	PAL1	0	R1095N
2421.864	0.934	2905222	STUDY_ORIENT	n/a	6	4	CLOCK	DESK	DESK	CLOCK	19	[0, 0, 0]	-999	PAL1	0	R1095N
2422.798	4.017	2906156	STUDY_PAIR	n/a	6	4	CLOCK	DESK	DESK	CLOCK	19	[0, 0, 0]	-999	PAL1	0	R1095N
2426.815	1.0	2910173	START	n/a	-999	-999	n/a	n/a	n/a	n/a	19	[-999, -999, -999]	-999	PAL1	0	R1095N
2427.815	0.017	2911173	MATH_START	n/a	-999	-999	n/a	n/a	n/a	n/a	19	[0, 0, 0]	-999	PAL1	0	R1095N
2427.832	4.634	2911190	PROB	4605	-999	-999	n/a	n/a	n/a	n/a	19	[8, 5, 9]	22	PAL1	0	R1095N
2432.466	2.7	2915824	PROB	2667	-999	-999	n/a	n/a	n/a	n/a	19	[7, 1, 1]	9	PAL1	0	R1095N
2435.166	2.617	2918524	PROB	2583	-999	-999	n/a	n/a	n/a	n/a	19	[1, 7, 7]	15	PAL1	0	R1095N
2437.783	2.8	2921141	PROB	2774	-999	-999	n/a	n/a	n/a	n/a	19	[3, 1, 8]	12	PAL1	0	R1095N
2440.583	4.134	2923941	PROB	4110	-999	-999	n/a	n/a	n/a	n/a	19	[9, 8, 3]	20	PAL1	0	R1095N
2444.717	3.039	2928075	PROB	3039	-999	-999	n/a	n/a	n/a	n/a	19	[8, 3, 2]	12	PAL1	0	R1095N
2447.756	0.012	2931114	STOP	n/a	-999	-999	n/a	n/a	n/a	n/a	19	[-999, -999, -999]	-999	PAL1	0	R1095N
2447.768	0.0	2931126	MATH_END	n/a	-999	-999	n/a	n/a	n/a	n/a	19	[0, 0, 0]	-999	PAL1	0	R1095N
2447.768	0.016	2931126	TEST_START	n/a	-999	-999	n/a	n/a	n/a	n/a	19	[0, 0, 0]	-999	PAL1	0	R1095N
2447.784	0.934	2931142	TEST_ORIENT	n/a	3	1	BAG	BOOK	BAG	BOOK	19	[0, 0, 0]	-999	PAL1	0	R1095N
2448.718	0.0	2932076	REC_START	n/a	3	-999	n/a	BOOK	n/a	n/a	19	[0, 0, 0]	-999	PAL1	0	R1095N
2448.718	1.022	2932076	TEST_PROBE	n/a	3	1	BAG	BOOK	BAG	BOOK	19	[0, 0, 0]	-999	PAL1	0	R1095N
2449.74	0.845	2933098	REC_EVENT	1022	3	1	BAG	<>	BAG	BOOK	19	[0, 0, 0]	-999	PAL1	0	R1095N
2450.585	0.98	2933943	REC_EVENT	1867	3	1	BAG	<>	BAG	BOOK	19	[0, 0, 0]	-999	PAL1	0	R1095N
2451.565	2.17	2934923	REC_EVENT	2847	3	1	BAG	BOOK	BAG	BOOK	19	[0, 0, 0]	-999	PAL1	0	R1095N
2453.735	0.016	2937093	REC_END	n/a	3	-999	n/a	n/a	n/a	n/a	19	[0, 0, 0]	-999	PAL1	0	R1095N
2453.751	0.934	2937109	TEST_ORIENT	n/a	4	2	MAIL	STEAK	MAIL	STEAK	19	[0, 0, 0]	-999	PAL1	0	R1095N
2454.685	0.0	2938043	TEST_PROBE	n/a	4	2	MAIL	STEAK	MAIL	STEAK	19	[0, 0, 0]	-999	PAL1	0	R1095N
2454.685	0.726	2938043	REC_START	n/a	4	-999	n/a	STEAK	n/a	n/a	19	[0, 0, 0]	-999	PAL1	0	R1095N
2455.411	4.291	2938769	REC_EVENT	726	4	2	MAIL	STEAK	MAIL	STEAK	19	[0, 0, 0]	-999	PAL1	0	R1095N
2459.702	0.017	2943060	REC_END	n/a	4	-999	n/a	n/a	n/a	n/a	19	[0, 0, 0]	-999	PAL1	0	R1095N
2459.719	0.983	2943077	TEST_ORIENT	n/a	1	3	PIPE	ICE	ICE	PIPE	19	[0, 0, 0]	-999	PAL1	0	R1095N
2460.702	0.001	2944060	TEST_PROBE	n/a	1	3	PIPE	ICE	ICE	PIPE	19	[0, 0, 0]	-999	PAL1	0	R1095N
2460.703	0.76	2944061	REC_START	n/a	1	-999	n/a	ICE	n/a	n/a	19	[0, 0, 0]	-999	PAL1	0	R1095N
2461.463	4.248	2944821	REC_EVENT	760	1	3	PIPE	ICE	ICE	PIPE	19	[0, 0, 0]	-999	PAL1	0	R1095N
2465.711	0.009	2949069	REC_END	n/a	1	-999	n/a	n/a	n/a	n/a	19	[0, 0, 0]	-999	PAL1	0	R1095N
2465.72	0.95	2949078	TEST_ORIENT	n/a	6	4	CLOCK	DESK	DESK	CLOCK	19	[0, 0, 0]	-999	PAL1	0	R1095N
2466.67	0.001	2950028	TEST_PROBE	n/a	6	4	CLOCK	DESK	DESK	CLOCK	19	[0, 0, 0]	-999	PAL1	0	R1095N
2466.671	0.792	2950029	REC_START	n/a	6	-999	n/a	DESK	n/a	n/a	19	[0, 0, 0]	-999	PAL1	0	R1095N
2467.463	4.232	2950821	REC_EVENT	792	6	4	CLOCK	DESK	DESK	CLOCK	19	[0, 0, 0]	-999	PAL1	0	R1095N
2471.695	0.009	2955053	REC_END	n/a	6	-999	n/a	n/a	n/a	n/a	19	[0, 0, 0]	-999	PAL1	0	R1095N
2471.704	0.816	2955062	TEST_ORIENT	n/a	5	5	CAT	HOSE	CAT	HOSE	19	[0, 0, 0]	-999	PAL1	0	R1095N
2472.52	0.001	2955878	TEST_PROBE	n/a	5	5	CAT	HOSE	CAT	HOSE	19	[0, 0, 0]	-999	PAL1	0	R1095N
2472.521	1.666	2955879	REC_START	n/a	5	-999	n/a	HOSE	n/a	n/a	19	[0, 0, 0]	-999	PAL1	0	R1095N
2474.187	3.35	2957545	REC_EVENT	1666	5	5	CAT	HOSE	CAT	HOSE	19	[0, 0, 0]	-999	PAL1	0	R1095N
2477.537	0.017	2960895	REC_END	n/a	5	-999	n/a	n/a	n/a	n/a	19	[0, 0, 0]	-999	PAL1	0	R1095N
2477.554	0.8	2960912	TEST_ORIENT	n/a	2	6	ZOO	MUD	MUD	ZOO	19	[0, 0, 0]	-999	PAL1	0	R1095N
2478.354	0.001	2961712	TEST_PROBE	n/a	2	6	ZOO	MUD	MUD	ZOO	19	[0, 0, 0]	-999	PAL1	0	R1095N
2478.355	0.809	2961713	REC_START	n/a	2	-999	n/a	MUD	n/a	n/a	19	[0, 0, 0]	-999	PAL1	0	R1095N
2479.164	4.207	2962522	REC_EVENT	809	2	6	ZOO	MUD	MUD	ZOO	19	[0, 0, 0]	-999	PAL1	0	R1095N
2483.371	0.034	2966729	REC_END	n/a	2	-999	n/a	n/a	n/a	n/a	19	[0, 0, 0]	-999	PAL1	0	R1095N
2483.405	10.621	2966763	FEEDBACK_SHOW_ALL_PAIRS	n/a	2	-999	n/a	n/a	n/a	n/a	19	[0, 0, 0]	-999	PAL1	0	R1095N
2494.026	10.448	2977384	ENCODING_START	n/a	0	-999	n/a	n/a	n/a	n/a	20	[0, 0, 0]	-999	PAL1	0	R1095N
2504.474	0.784	2987833	STUDY_ORIENT	n/a	1	3	ARM	SNOW	ARM	SNOW	20	[0, 0, 0]	-999	PAL1	0	R1095N
2505.258	5.018	2988617	STUDY_PAIR	n/a	1	3	ARM	SNOW	ARM	SNOW	20	[0, 0, 0]	-999	PAL1	0	R1095N
2510.276	0.866	2993635	STUDY_ORIENT	n/a	2	2	PRINCE	WING	PRINCE	WING	20	[0, 0, 0]	-999	PAL1	0	R1095N
2511.142	5.033	2994501	STUDY_PAIR	n/a	2	2	PRINCE	WING	PRINCE	WING	20	[0, 0, 0]	-999	PAL1	0	R1095N
2516.175	0.901	2999534	STUDY_ORIENT	n/a	3	5	SPOON	FLUTE	SPOON	FLUTE	20	[0, 0, 0]	-999	PAL1	0	R1095N
2517.076	5.033	3000435	STUDY_PAIR	n/a	3	5	SPOON	FLUTE	SPOON	FLUTE	20	[0, 0, 0]	-999	PAL1	0	R1095N
2522.109	0.967	3005468	STUDY_ORIENT	n/a	4	6	SOCK	CLIFF	CLIFF	SOCK	20	[0, 0, 0]	-999	PAL1	0	R1095N
2523.076	5.034	3006435	STUDY_PAIR	n/a	4	6	SOCK	CLIFF	CLIFF	SOCK	20	[0, 0, 0]	-999	PAL1	0	R1095N
2528.11	1.017	3011469	STUDY_ORIENT	n/a	5	1	SEAL	DIME	DIME	SEAL	20	[0, 0, 0]	-999	PAL1	0	R1095N
2529.127	5.034	3012486	STUDY_PAIR	n/a	5	1	SEAL	DIME	DIME	SEAL	20	[0, 0, 0]	-999	PAL1	0	R1095N
2534.161	0.883	3017520	STUDY_ORIENT	n/a	6	4	SQUARE	SAIL	SAIL	SQUARE	20	[0, 0, 0]	-999	PAL1	0	R1095N
2535.044	4.001	3018403	STUDY_PAIR	n/a	6	4	SQUARE	SAIL	SAIL	SQUARE	20	[0, 0, 0]	-999	PAL1	0	R1095N
2539.045	1.0	3022404	START	n/a	-999	-999	n/a	n/a	n/a	n/a	20	[-999, -999, -999]	-999	PAL1	0	R1095N
2540.045	0.017	3023404	MATH_START	n/a	-999	-999	n/a	n/a	n/a	n/a	20	[0, 0, 0]	-999	PAL1	0	R1095N
2540.062	3.483	3023421	PROB	3449	-999	-999	n/a	n/a	n/a	n/a	20	[8, 1, 9]	18	PAL1	0	R1095N
2543.545	2.867	3026904	PROB	2838	-999	-999	n/a	n/a	n/a	n/a	20	[7, 1, 9]	17	PAL1	0	R1095N
2546.412	5.034	3029771	PROB	5003	-999	-999	n/a	n/a	n/a	n/a	20	[3, 5, 9]	17	PAL1	0	R1095N
2551.446	4.951	3034805	PROB	4929	-999	-999	n/a	n/a	n/a	n/a	20	[4, 8, 7]	19	PAL1	0	R1095N
2556.397	4.106	3039756	PROB	4106	-999	-999	n/a	n/a	n/a	n/a	20	[9, 8, 2]	19	PAL1	0	R1095N
2560.503	0.011	3043862	STOP	n/a	-999	-999	n/a	n/a	n/a	n/a	20	[-999, -999, -999]	-999	PAL1	0	R1095N
2560.514	0.0	3043873	TEST_START	n/a	-999	-999	n/a	n/a	n/a	n/a	20	[0, 0, 0]	-999	PAL1	0	R1095N
2560.514	0.017	3043873	MATH_END	n/a	-999	-999	n/a	n/a	n/a	n/a	20	[0, 0, 0]	-999	PAL1	0	R1095N
2560.531	0.966	3043890	TEST_ORIENT	n/a	5	1	SEAL	DIME	DIME	SEAL	20	[0, 0, 0]	-999	PAL1	0	R1095N
2561.497	0.001	3044856	TEST_PROBE	n/a	5	1	SEAL	DIME	DIME	SEAL	20	[0, 0, 0]	-999	PAL1	0	R1095N
2561.498	1.718	3044857	REC_START	n/a	5	-999	n/a	DIME	n/a	n/a	20	[0, 0, 0]	-999	PAL1	0	R1095N
2563.216	3.29	3046575	REC_EVENT	1718	5	1	SEAL	DIME	DIME	SEAL	20	[0, 0, 0]	-999	PAL1	0	R1095N
2566.506	0.009	3049865	REC_END	n/a	5	-999	n/a	n/a	n/a	n/a	20	[0, 0, 0]	-999	PAL1	0	R1095N
2566.515	0.967	3049874	TEST_ORIENT	n/a	2	2	PRINCE	WING	PRINCE	WING	20	[0, 0, 0]	-999	PAL1	0	R1095N
2567.482	0.0	3050841	TEST_PROBE	n/a	2	2	PRINCE	WING	PRINCE	WING	20	[0, 0, 0]	-999	PAL1	0	R1095N
2567.482	1.019	3050841	REC_START	n/a	2	-999	n/a	WING	n/a	n/a	20	[0, 0, 0]	-999	PAL1	0	R1095N
