onset	duration	sample	trial_type	response_time	stim_file	serialpos	probepos	probe_word	resp_word	study_1	study_2	list	test	answer	experiment	session	subject
0.0	2.798	1461	INSTRUCT_START	n/a	n/a	-999	-999	n/a	n/a	n/a	n/a	-999	[0, 0, 0]	-999	PAL1	6	R1365N
2.798	1.934	4259	INSTRUCT_END	n/a	n/a	-999	-999	n/a	n/a	n/a	n/a	-999	[0, 0, 0]	-999	PAL1	6	R1365N
4.732	8.625	6193	MIC TEST_START	n/a	n/a	-999	-999	n/a	n/a	n/a	n/a	-999	[0, 0, 0]	-999	PAL1	6	R1365N
13.357	0.011	14817	MIC TEST_END	n/a	n/a	-999	-999	n/a	n/a	n/a	n/a	-999	[0, 0, 0]	-999	PAL1	6	R1365N
13.368	0.0	14828	TRIAL_START	n/a	n/a	-999	-999	n/a	n/a	n/a	n/a	-999	[0, 0, 0]	-999	PAL1	6	R1365N
13.368	0.0	14828	TRIAL	n/a	n/a	-999	-999	n/a	n/a	n/a	n/a	-1	[0, 0, 0]	-999	PAL1	6	R1365N
13.368	1.131	14828	WAITING_START	n/a	n/a	-999	-999	n/a	n/a	n/a	n/a	-1	[0, 0, 0]	-999	PAL1	6	R1365N
14.499	0.0	15959	WAITING_END	n/a	n/a	-999	-999	n/a	n/a	n/a	n/a	-1	[0, 0, 0]	-999	PAL1	6	R1365N
14.499	10.0	15959	COUNTDOWN_START	n/a	n/a	-999	-999	n/a	n/a	n/a	n/a	-1	[0, 0, 0]	-999	PAL1	6	R1365N
24.929	0.001	26389	COUNTDOWN_END	n/a	n/a	-999	-999	n/a	n/a	n/a	n/a	-1	[0, 0, 0]	-999	PAL1	6	R1365N
24.93	0.637	26390	ORIENT_START	n/a	n/a	-999	-999	n/a	n/a	n/a	n/a	-1	[0, 0, 0]	-999	PAL1	6	R1365N
25.567	0.001	27027	ORIENT_END	n/a	n/a	-999	-999	n/a	n/a	n/a	n/a	-1	[0, 0, 0]	-999	PAL1	6	R1365N
25.568	1.245	27028	ENCODING_START	n/a	n/a	-999	-999	n/a	n/a	n/a	n/a	-1	[0, 0, 0]	-999	PAL1	6	R1365N
26.813	4.0	28273	STUDY_PAIR	n/a	n/a	1	3	n/a	n/a	FLOOD	TONGUE	-1	[0, 0, 0]	-999	PAL1	6	R1365N
30.852	0.607	32312	STUDY_PAIR_OFF	n/a	n/a	1	3	n/a	n/a	FLOOD	TONGUE	-1	[0, 0, 0]	-999	PAL1	6	R1365N
31.459	4.0	32919	STUDY_PAIR	n/a	n/a	2	2	n/a	n/a	CAMEL	BABY	-1	[0, 0, 0]	-999	PAL1	6	R1365N
35.485	0.543	36945	STUDY_PAIR_OFF	n/a	n/a	2	2	n/a	n/a	CAMEL	BABY	-1	[0, 0, 0]	-999	PAL1	6	R1365N
36.028	4.0	37488	STUDY_PAIR	n/a	n/a	3	1	n/a	n/a	BEAM	RING	-1	[0, 0, 0]	-999	PAL1	6	R1365N
40.054	0.655	41514	STUDY_PAIR_OFF	n/a	n/a	3	1	n/a	n/a	BEAM	RING	-1	[0, 0, 0]	-999	PAL1	6	R1365N
40.709	4.0	42169	STUDY_PAIR	n/a	n/a	4	4	n/a	n/a	IMAGE	WAGON	-1	[0, 0, 0]	-999	PAL1	6	R1365N
44.738	0.61	46198	STUDY_PAIR_OFF	n/a	n/a	4	4	n/a	n/a	IMAGE	WAGON	-1	[0, 0, 0]	-999	PAL1	6	R1365N
45.348	4.0	46808	STUDY_PAIR	n/a	n/a	5	5	n/a	n/a	WATCH	COTTON	-1	[0, 0, 0]	-999	PAL1	6	R1365N
49.388	0.591	50847	STUDY_PAIR_OFF	n/a	n/a	5	5	n/a	n/a	WATCH	COTTON	-1	[0, 0, 0]	-999	PAL1	6	R1365N
49.979	4.0	51438	STUDY_PAIR	n/a	n/a	6	6	n/a	n/a	RHINO	CHEST	-1	[0, 0, 0]	-999	PAL1	6	R1365N
54.006	0.001	55465	STUDY_PAIR_OFF	n/a	n/a	6	6	n/a	n/a	RHINO	CHEST	-1	[0, 0, 0]	-999	PAL1	6	R1365N
54.007	0.0	55466	ENCODING_END	n/a	n/a	-999	-999	n/a	n/a	n/a	n/a	-1	[0, 0, 0]	-999	PAL1	6	R1365N
54.007	0.0	55466	MATH_START	n/a	n/a	-999	-999	n/a	n/a	n/a	n/a	-1	[0, 0, 0]	-999	PAL1	6	R1365N
54.007	0.016	55466	START	n/a	n/a	-999	-999	n/a	n/a	n/a	n/a	-1	[-999, -999, -999]	-999	PAL1	6	R1365N
54.023	2.399	55482	PROB	2370.0	n/a	-999	-999	n/a	n/a	n/a	n/a	-1	[9, 4, 6]	9	PAL1	6	R1365N
56.422	0.401	57881	PROB	371.0	n/a	-999	-999	n/a	n/a	n/a	n/a	-1	[3, 8, 2]	9	PAL1	6	R1365N
56.823	0.416	58282	PROB	385.0	n/a	-999	-999	n/a	n/a	n/a	n/a	-1	[9, 7, 4]	9	PAL1	6	R1365N
57.239	0.368	58698	PROB	329.0	n/a	-999	-999	n/a	n/a	n/a	n/a	-1	[3, 8, 1]	9	PAL1	6	R1365N
57.607	0.333	59066	PROB	298.0	n/a	-999	-999	n/a	n/a	n/a	n/a	-1	[2, 1, 8]	9	PAL1	6	R1365N
57.94	0.332	59399	PROB	308.0	n/a	-999	-999	n/a	n/a	n/a	n/a	-1	[3, 9, 9]	9	PAL1	6	R1365N
58.272	0.317	59731	PROB	288.0	n/a	-999	-999	n/a	n/a	n/a	n/a	-1	[8, 2, 1]	9	PAL1	6	R1365N
58.589	0.435	60048	PROB	388.0	n/a	-999	-999	n/a	n/a	n/a	n/a	-1	[9, 1, 6]	9	PAL1	6	R1365N
59.024	0.315	60483	PROB	288.0	n/a	-999	-999	n/a	n/a	n/a	n/a	-1	[9, 9, 4]	9	PAL1	6	R1365N
59.339	0.301	60798	PROB	271.0	n/a	-999	-999	n/a	n/a	n/a	n/a	-1	[3, 6, 2]	9	PAL1	6	R1365N
59.64	0.334	61099	PROB	297.0	n/a	-999	-999	n/a	n/a	n/a	n/a	-1	[7, 5, 1]	9	PAL1	6	R1365N
59.974	0.399	61433	PROB	363.0	n/a	-999	-999	n/a	n/a	n/a	n/a	-1	[4, 5, 5]	9	PAL1	6	R1365N
60.373	0.401	61832	PROB	373.0	n/a	-999	-999	n/a	n/a	n/a	n/a	-1	[5, 4, 1]	9	PAL1	6	R1365N
60.774	0.699	62233	PROB	667.0	n/a	-999	-999	n/a	n/a	n/a	n/a	-1	[3, 2, 8]	99	PAL1	6	R1365N
61.473	0.501	62932	PROB	465.0	n/a	-999	-999	n/a	n/a	n/a	n/a	-1	[6, 8, 3]	9	PAL1	6	R1365N
61.974	0.382	63433	PROB	355.0	n/a	-999	-999	n/a	n/a	n/a	n/a	-1	[7, 5, 7]	9	PAL1	6	R1365N
62.356	0.585	63815	PROB	557.0	n/a	-999	-999	n/a	n/a	n/a	n/a	-1	[6, 1, 6]	9	PAL1	6	R1365N
62.941	0.532	64400	PROB	508.0	n/a	-999	-999	n/a	n/a	n/a	n/a	-1	[6, 3, 1]	9	PAL1	6	R1365N
63.473	0.501	64932	PROB	473.0	n/a	-999	-999	n/a	n/a	n/a	n/a	-1	[3, 4, 2]	9	PAL1	6	R1365N
63.974	0.717	65433	PROB	691.0	n/a	-999	-999	n/a	n/a	n/a	n/a	-1	[8, 5, 6]	9	PAL1	6	R1365N
64.691	0.466	66150	PROB	438.0	n/a	-999	-999	n/a	n/a	n/a	n/a	-1	[3, 1, 2]	9	PAL1	6	R1365N
65.157	0.518	66616	PROB	485.0	n/a	-999	-999	n/a	n/a	n/a	n/a	-1	[1, 3, 8]	9	PAL1	6	R1365N
65.675	0.35	67134	PROB	326.0	n/a	-999	-999	n/a	n/a	n/a	n/a	-1	[4, 3, 1]	9	PAL1	6	R1365N
66.025	0.432	67484	PROB	400.0	n/a	-999	-999	n/a	n/a	n/a	n/a	-1	[9, 7, 3]	9	PAL1	6	R1365N
66.457	0.584	67916	PROB	560.0	n/a	-999	-999	n/a	n/a	n/a	n/a	-1	[4, 1, 5]	9	PAL1	6	R1365N
67.041	0.383	68500	PROB	352.0	n/a	-999	-999	n/a	n/a	n/a	n/a	-1	[6, 3, 9]	9	PAL1	6	R1365N
67.424	0.368	68883	PROB	337.0	n/a	-999	-999	n/a	n/a	n/a	n/a	-1	[4, 8, 9]	9	PAL1	6	R1365N
67.792	0.883	69251	PROB	857.0	n/a	-999	-999	n/a	n/a	n/a	n/a	-1	[7, 1, 6]	9	PAL1	6	R1365N
68.675	3.633	70134	PROB	3605.0	n/a	-999	-999	n/a	n/a	n/a	n/a	-1	[2, 3, 1]	9	PAL1	6	R1365N
72.308	0.634	73767	PROB	597.0	n/a	-999	-999	n/a	n/a	n/a	n/a	-1	[6, 8, 2]	9	PAL1	6	R1365N
72.942	0.649	74401	PROB	627.0	n/a	-999	-999	n/a	n/a	n/a	n/a	-1	[3, 4, 9]	9	PAL1	6	R1365N
73.591	0.674	75050	PROB	674.0	n/a	-999	-999	n/a	n/a	n/a	n/a	-1	[6, 9, 8]	9	PAL1	6	R1365N
74.265	0.01	75724	STOP	n/a	n/a	-999	-999	n/a	n/a	n/a	n/a	-1	[-999, -999, -999]	-999	PAL1	6	R1365N
74.275	0.568	75734	MATH_END	n/a	n/a	-999	-999	n/a	n/a	n/a	n/a	-1	[0, 0, 0]	-999	PAL1	6	R1365N
74.843	0.002	76302	RETRIEVAL_START	n/a	n/a	-999	-999	n/a	n/a	n/a	n/a	-1	[0, 0, 0]	-999	PAL1	6	R1365N
74.845	0.28	76304	ORIENT_START	n/a	n/a	-999	-999	n/a	n/a	n/a	n/a	-1	[0, 0, 0]	-999	PAL1	6	R1365N
75.125	0.738	76584	ORIENT_END	n/a	n/a	-999	-999	n/a	n/a	n/a	n/a	-1	[0, 0, 0]	-999	PAL1	6	R1365N
75.863	0.0	77322	REC_START	n/a	n/a	3	1	RING	n/a	BEAM	RING	-1	[0, 0, 0]	-999	PAL1	6	R1365N
75.863	4.0	77322	PROBE_START	n/a	n/a	3	1	RING	n/a	BEAM	RING	-1	[0, 0, 0]	-999	PAL1	6	R1365N
79.894	1.0	81353	PROBE_END	n/a	n/a	3	1	RING	n/a	BEAM	RING	-1	[0, 0, 0]	-999	PAL1	6	R1365N
80.894	0.008	82353	REC_END	n/a	n/a	3	1	RING	n/a	BEAM	RING	-1	[0, 0, 0]	-999	PAL1	6	R1365N
80.902	0.274	82361	ORIENT_START	n/a	n/a	-999	-999	n/a	n/a	n/a	n/a	-1	[0, 0, 0]	-999	PAL1	6	R1365N
81.176	0.643	82635	ORIENT_END	n/a	n/a	-999	-999	n/a	n/a	n/a	n/a	-1	[0, 0, 0]	-999	PAL1	6	R1365N
81.819	0.0	83278	REC_START	n/a	n/a	2	2	BABY	n/a	CAMEL	BABY	-1	[0, 0, 0]	-999	PAL1	6	R1365N
81.819	4.0	83278	PROBE_START	n/a	n/a	2	2	BABY	n/a	CAMEL	BABY	-1	[0, 0, 0]	-999	PAL1	6	R1365N
81.911	3.934	83370	REC_EVENT	6048.0	n/a	3	1	RING	<>	BEAM	RING	-1	[0, 0, 0]	-999	PAL1	6	R1365N
85.845	1.0	87303	PROBE_END	n/a	n/a	2	2	BABY	n/a	CAMEL	BABY	-1	[0, 0, 0]	-999	PAL1	6	R1365N
86.845	0.012	88303	REC_END	n/a	n/a	2	2	BABY	n/a	CAMEL	BABY	-1	[0, 0, 0]	-999	PAL1	6	R1365N
86.857	0.27	88315	ORIENT_START	n/a	n/a	-999	-999	n/a	n/a	n/a	n/a	-1	[0, 0, 0]	-999	PAL1	6	R1365N
87.127	0.625	88585	ORIENT_END	n/a	n/a	-999	-999	n/a	n/a	n/a	n/a	-1	[0, 0, 0]	-999	PAL1	6	R1365N
87.752	0.0	89210	REC_START	n/a	n/a	1	3	FLOOD	n/a	FLOOD	TONGUE	-1	[0, 0, 0]	-999	PAL1	6	R1365N
87.752	4.0	89210	PROBE_START	n/a	n/a	1	3	FLOOD	n/a	FLOOD	TONGUE	-1	[0, 0, 0]	-999	PAL1	6	R1365N
87.763	4.016	89221	REC_EVENT	5944.0	n/a	2	2	BABY	<>	CAMEL	BABY	-1	[0, 0, 0]	-999	PAL1	6	R1365N
91.779	1.0	93237	PROBE_END	n/a	n/a	1	3	FLOOD	n/a	FLOOD	TONGUE	-1	[0, 0, 0]	-999	PAL1	6	R1365N
92.779	0.013	94237	REC_END	n/a	n/a	1	3	FLOOD	n/a	FLOOD	TONGUE	-1	[0, 0, 0]	-999	PAL1	6	R1365N
92.792	0.271	94250	ORIENT_START	n/a	n/a	-999	-999	n/a	n/a	n/a	n/a	-1	[0, 0, 0]	-999	PAL1	6	R1365N
93.063	0.602	94521	ORIENT_END	n/a	n/a	-999	-999	n/a	n/a	n/a	n/a	-1	[0, 0, 0]	-999	PAL1	6	R1365N
93.665	0.0	95123	REC_START	n/a	n/a	4	4	WAGON	n/a	IMAGE	WAGON	-1	[0, 0, 0]	-999	PAL1	6	R1365N
93.665	4.0	95123	PROBE_START	n/a	n/a	4	4	WAGON	n/a	IMAGE	WAGON	-1	[0, 0, 0]	-999	PAL1	6	R1365N
93.673	4.024	95131	REC_EVENT	5921.0	n/a	1	3	FLOOD	<>	FLOOD	TONGUE	-1	[0, 0, 0]	-999	PAL1	6	R1365N
97.697	0.999	99155	PROBE_END	n/a	n/a	4	4	WAGON	n/a	IMAGE	WAGON	-1	[0, 0, 0]	-999	PAL1	6	R1365N
98.696	0.012	100154	REC_END	n/a	n/a	4	4	WAGON	n/a	IMAGE	WAGON	-1	[0, 0, 0]	-999	PAL1	6	R1365N
98.708	0.272	100166	ORIENT_START	n/a	n/a	-999	-999	n/a	n/a	n/a	n/a	-1	[0, 0, 0]	-999	PAL1	6	R1365N
98.98	0.515	100438	ORIENT_END	n/a	n/a	-999	-999	n/a	n/a	n/a	n/a	-1	[0, 0, 0]	-999	PAL1	6	R1365N
99.495	0.0	100953	REC_START	n/a	n/a	5	5	WATCH	n/a	WATCH	COTTON	-1	[0, 0, 0]	-999	PAL1	6	R1365N
99.495	4.0	100953	PROBE_START	n/a	n/a	5	5	WATCH	n/a	WATCH	COTTON	-1	[0, 0, 0]	-999	PAL1	6	R1365N
99.568	3.962	101026	REC_EVENT	5903.0	n/a	4	4	WAGON	<>	IMAGE	WAGON	-1	[0, 0, 0]	-999	PAL1	6	R1365N
103.53	1.0	104988	PROBE_END	n/a	n/a	5	5	WATCH	n/a	WATCH	COTTON	-1	[0, 0, 0]	-999	PAL1	6	R1365N
104.53	0.013	105988	REC_END	n/a	n/a	5	5	WATCH	n/a	WATCH	COTTON	-1	[0, 0, 0]	-999	PAL1	6	R1365N
104.543	0.272	106001	ORIENT_START	n/a	n/a	-999	-999	n/a	n/a	n/a	n/a	-1	[0, 0, 0]	-999	PAL1	6	R1365N
104.815	0.502	106273	ORIENT_END	n/a	n/a	-999	-999	n/a	n/a	n/a	n/a	-1	[0, 0, 0]	-999	PAL1	6	R1365N
105.317	0.034	106775	REC_EVENT	5822.0	n/a	5	5	WATCH	<>	WATCH	COTTON	-1	[0, 0, 0]	-999	PAL1	6	R1365N
105.351	0.0	106809	REC_START	n/a	n/a	6	6	RHINO	n/a	RHINO	CHEST	-1	[0, 0, 0]	-999	PAL1	6	R1365N
105.351	4.0	106809	PROBE_START	n/a	n/a	6	6	RHINO	n/a	RHINO	CHEST	-1	[0, 0, 0]	-999	PAL1	6	R1365N
109.381	1.001	110839	PROBE_END	n/a	n/a	6	6	RHINO	n/a	RHINO	CHEST	-1	[0, 0, 0]	-999	PAL1	6	R1365N
110.382	0.012	111840	REC_END	n/a	n/a	6	6	RHINO	n/a	RHINO	CHEST	-1	[0, 0, 0]	-999	PAL1	6	R1365N
110.394	0.0	111852	RETRIEVAL_END	n/a	n/a	-999	-999	n/a	n/a	n/a	n/a	-1	[0, 0, 0]	-999	PAL1	6	R1365N
110.394	0.796	111852	PRACTICE_POST_INSTRUCT_START	n/a	n/a	-999	-999	n/a	n/a	n/a	n/a	-1	[0, 0, 0]	-999	PAL1	6	R1365N
111.19	97.391	112648	REC_EVENT	5839.0	n/a	6	6	RHINO	<>	RHINO	CHEST	-1	[0, 0, 0]	-999	PAL1	6	R1365N
208.581	0.001	210036	PRACTICE_POST_INSTRUCT_END	n/a	n/a	-999	-999	n/a	n/a	n/a	n/a	-1	[0, 0, 0]	-999	PAL1	6	R1365N
208.582	0.024	210037	TRIAL_END	n/a	n/a	-999	-999	n/a	n/a	n/a	n/a	-1	[0, 0, 0]	-999	PAL1	6	R1365N
208.606	0.0	210061	TRIAL_START	n/a	n/a	-999	-999	n/a	n/a	n/a	n/a	-1	[0, 0, 0]	-999	PAL1	6	R1365N
208.606	0.001	210061	TRIAL	n/a	n/a	-999	-999	n/a	n/a	n/a	n/a	1	[0, 0, 0]	-999	PAL1	6	R1365N
208.607	11.626	210062	WAITING_START	n/a	n/a	-999	-999	n/a	n/a	n/a	n/a	1	[0, 0, 0]	-999	PAL1	6	R1365N
220.233	0.0	221688	WAITING_END	n/a	n/a	-999	-999	n/a	n/a	n/a	n/a	1	[0, 0, 0]	-999	PAL1	6	R1365N
220.233	10.0	221688	COUNTDOWN_START	n/a	n/a	-999	-999	n/a	n/a	n/a	n/a	1	[0, 0, 0]	-999	PAL1	6	R1365N
230.664	0.0	232119	COUNTDOWN_END	n/a	n/a	-999	-999	n/a	n/a	n/a	n/a	1	[0, 0, 0]	-999	PAL1	6	R1365N
230.664	0.554	232119	ORIENT_START	n/a	n/a	-999	-999	n/a	n/a	n/a	n/a	1	[0, 0, 0]	-999	PAL1	6	R1365N
231.218	0.0	232673	ORIENT_END	n/a	n/a	-999	-999	n/a	n/a	n/a	n/a	1	[0, 0, 0]	-999	PAL1	6	R1365N
231.218	1.148	232673	ENCODING_START	n/a	n/a	-999	-999	n/a	n/a	n/a	n/a	1	[0, 0, 0]	-999	PAL1	6	R1365N
232.366	4.0	233821	STUDY_PAIR	n/a	wordpools/wordpool_EN.txt	1	1	n/a	BED	BED	CAR	1	[0, 0, 0]	-999	PAL1	6	R1365N
236.385	0.553	237840	STUDY_PAIR_OFF	n/a	n/a	1	1	n/a	BED	BED	CAR	1	[0, 0, 0]	-999	PAL1	6	R1365N
236.938	4.0	238393	STUDY_PAIR	n/a	wordpools/wordpool_EN.txt	2	6	n/a	DIME	DIME	PIE	1	[0, 0, 0]	-999	PAL1	6	R1365N
240.97	0.64	242425	STUDY_PAIR_OFF	n/a	n/a	2	6	n/a	DIME	DIME	PIE	1	[0, 0, 0]	-999	PAL1	6	R1365N
241.61	4.0	243065	STUDY_PAIR	n/a	wordpools/wordpool_EN.txt	3	5	n/a	n/a	WAND	CLOCK	1	[0, 0, 0]	-999	PAL1	6	R1365N
245.638	0.553	247092	STUDY_PAIR_OFF	n/a	n/a	3	5	n/a	n/a	WAND	CLOCK	1	[0, 0, 0]	-999	PAL1	6	R1365N
246.191	4.0	247645	STUDY_PAIR	n/a	wordpools/wordpool_EN.txt	4	2	n/a	n/a	WING	PARK	1	[0, 0, 0]	-999	PAL1	6	R1365N
250.221	0.605	251675	STUDY_PAIR_OFF	n/a	n/a	4	2	n/a	n/a	WING	PARK	1	[0, 0, 0]	-999	PAL1	6	R1365N
250.826	4.0	252280	STUDY_PAIR	n/a	wordpools/wordpool_EN.txt	5	3	n/a	SKUNK	SKUNK	STRAW	1	[0, 0, 0]	-999	PAL1	6	R1365N
254.856	0.51	256310	STUDY_PAIR_OFF	n/a	n/a	5	3	n/a	SKUNK	SKUNK	STRAW	1	[0, 0, 0]	-999	PAL1	6	R1365N
255.366	4.0	256820	STUDY_PAIR	n/a	wordpools/wordpool_EN.txt	6	4	n/a	GOLD	SUN	GOLD	1	[0, 0, 0]	-999	PAL1	6	R1365N
259.406	0.0	260860	STUDY_PAIR_OFF	n/a	n/a	6	4	n/a	GOLD	SUN	GOLD	1	[0, 0, 0]	-999	PAL1	6	R1365N
259.406	0.0	260860	ENCODING_END	n/a	n/a	-999	-999	n/a	n/a	n/a	n/a	1	[0, 0, 0]	-999	PAL1	6	R1365N
259.406	0.001	260860	MATH_START	n/a	n/a	-999	-999	n/a	n/a	n/a	n/a	1	[0, 0, 0]	-999	PAL1	6	R1365N
259.407	0.015	260861	START	n/a	n/a	-999	-999	n/a	n/a	n/a	n/a	1	[-999, -999, -999]	-999	PAL1	6	R1365N
259.422	9.835	260876	PROB	9810.0	n/a	-999	-999	n/a	n/a	n/a	n/a	1	[6, 4, 7]	17	PAL1	6	R1365N
269.257	5.502	270711	PROB	5480.0	n/a	-999	-999	n/a	n/a	n/a	n/a	1	[9, 6, 3]	18	PAL1	6	R1365N
274.759	7.441	276213	PROB	7441.0	n/a	-999	-999	n/a	n/a	n/a	n/a	1	[8, 1, 7]	16	PAL1	6	R1365N
282.2	0.01	283653	STOP	n/a	n/a	-999	-999	n/a	n/a	n/a	n/a	1	[-999, -999, -999]	-999	PAL1	6	R1365N
282.21	0.673	283663	MATH_END	n/a	n/a	-999	-999	n/a	n/a	n/a	n/a	1	[0, 0, 0]	-999	PAL1	6	R1365N
282.883	0.001	284336	RETRIEVAL_START	n/a	n/a	-999	-999	n/a	n/a	n/a	n/a	1	[0, 0, 0]	-999	PAL1	6	R1365N
282.884	0.276	284337	ORIENT_START	n/a	n/a	-999	-999	n/a	n/a	n/a	n/a	1	[0, 0, 0]	-999	PAL1	6	R1365N
283.16	0.587	284613	ORIENT_END	n/a	n/a	-999	-999	n/a	n/a	n/a	n/a	1	[0, 0, 0]	-999	PAL1	6	R1365N
283.747	0.001	285200	REC_START	n/a	n/a	1	1	CAR	BED	BED	CAR	1	[0, 0, 0]	-999	PAL1	6	R1365N
283.748	4.0	285201	PROBE_START	n/a	wordpools/wordpool_EN.txt	1	1	CAR	BED	BED	CAR	1	[0, 0, 0]	-999	PAL1	6	R1365N
285.567	2.211	287020	REC_EVENT	1819.0	n/a	1	1	CAR	BED	BED	CAR	1	[0, 0, 0]	-999	PAL1	6	R1365N
287.778	1.0	289231	PROBE_END	n/a	n/a	1	1	CAR	n/a	BED	CAR	1	[0, 0, 0]	-999	PAL1	6	R1365N
288.778	0.012	290231	REC_END	n/a	n/a	1	1	CAR	n/a	BED	CAR	1	[0, 0, 0]	-999	PAL1	6	R1365N
288.79	0.272	290243	ORIENT_START	n/a	n/a	-999	-999	n/a	n/a	n/a	n/a	1	[0, 0, 0]	-999	PAL1	6	R1365N
289.062	0.689	290515	ORIENT_END	n/a	n/a	-999	-999	n/a	n/a	n/a	n/a	1	[0, 0, 0]	-999	PAL1	6	R1365N
289.751	0.0	291204	REC_START	n/a	n/a	4	2	WING	n/a	WING	PARK	1	[0, 0, 0]	-999	PAL1	6	R1365N
289.751	4.0	291204	PROBE_START	n/a	wordpools/wordpool_EN.txt	4	2	WING	n/a	WING	PARK	1	[0, 0, 0]	-999	PAL1	6	R1365N
293.779	1.0	295232	PROBE_END	n/a	n/a	4	2	WING	n/a	WING	PARK	1	[0, 0, 0]	-999	PAL1	6	R1365N
294.779	0.013	296232	REC_END	n/a	n/a	4	2	WING	n/a	WING	PARK	1	[0, 0, 0]	-999	PAL1	6	R1365N
294.792	0.271	296245	ORIENT_START	n/a	n/a	-999	-999	n/a	n/a	n/a	n/a	1	[0, 0, 0]	-999	PAL1	6	R1365N
295.063	0.573	296516	ORIENT_END	n/a	n/a	-999	-999	n/a	n/a	n/a	n/a	1	[0, 0, 0]	-999	PAL1	6	R1365N
295.636	0.001	297089	REC_START	n/a	n/a	5	3	STRAW	SKUNK	SKUNK	STRAW	1	[0, 0, 0]	-999	PAL1	6	R1365N
295.637	4.0	297090	PROBE_START	n/a	wordpools/wordpool_EN.txt	5	3	STRAW	SKUNK	SKUNK	STRAW	1	[0, 0, 0]	-999	PAL1	6	R1365N
295.735	1.682	297188	REC_EVENT	5984.0	n/a	4	2	WING	<>	WING	PARK	1	[0, 0, 0]	-999	PAL1	6	R1365N
297.417	2.247	298870	REC_EVENT	1780.0	n/a	5	3	STRAW	SKUNK	SKUNK	STRAW	1	[0, 0, 0]	-999	PAL1	6	R1365N
299.664	1.0	301117	PROBE_END	n/a	n/a	5	3	STRAW	n/a	SKUNK	STRAW	1	[0, 0, 0]	-999	PAL1	6	R1365N
300.664	0.013	302117	REC_END	n/a	n/a	5	3	STRAW	n/a	SKUNK	STRAW	1	[0, 0, 0]	-999	PAL1	6	R1365N
300.677	0.287	302130	ORIENT_START	n/a	n/a	-999	-999	n/a	n/a	n/a	n/a	1	[0, 0, 0]	-999	PAL1	6	R1365N
300.964	0.558	302417	ORIENT_END	n/a	n/a	-999	-999	n/a	n/a	n/a	n/a	1	[0, 0, 0]	-999	PAL1	6	R1365N
301.522	0.0	302975	REC_START	n/a	n/a	6	4	SUN	GOLD	SUN	GOLD	1	[0, 0, 0]	-999	PAL1	6	R1365N
301.522	4.0	302975	PROBE_START	n/a	wordpools/wordpool_EN.txt	6	4	SUN	GOLD	SUN	GOLD	1	[0, 0, 0]	-999	PAL1	6	R1365N
303.419	2.128	304872	REC_EVENT	1897.0	n/a	6	4	SUN	GOLD	SUN	GOLD	1	[0, 0, 0]	-999	PAL1	6	R1365N
305.547	1.0	307000	PROBE_END	n/a	n/a	6	4	SUN	n/a	SUN	GOLD	1	[0, 0, 0]	-999	PAL1	6	R1365N
306.547	0.011	308000	REC_END	n/a	n/a	6	4	SUN	n/a	SUN	GOLD	1	[0, 0, 0]	-999	PAL1	6	R1365N
306.558	0.273	308011	ORIENT_START	n/a	n/a	-999	-999	n/a	n/a	n/a	n/a	1	[0, 0, 0]	-999	PAL1	6	R1365N
306.831	0.676	308284	ORIENT_END	n/a	n/a	-999	-999	n/a	n/a	n/a	n/a	1	[0, 0, 0]	-999	PAL1	6	R1365N
307.507	4.0	308960	PROBE_START	n/a	wordpools/wordpool_EN.txt	3	5	WAND	n/a	WAND	CLOCK	1	[0, 0, 0]	-999	PAL1	6	R1365N
307.507	4.024	308960	REC_START	n/a	n/a	3	5	WAND	n/a	WAND	CLOCK	1	[0, 0, 0]	-999	PAL1	6	R1365N
311.531	1.0	312984	PROBE_END	n/a	n/a	3	5	WAND	n/a	WAND	CLOCK	1	[0, 0, 0]	-999	PAL1	6	R1365N
312.531	0.013	313984	REC_END	n/a	n/a	3	5	WAND	n/a	WAND	CLOCK	1	[0, 0, 0]	-999	PAL1	6	R1365N
312.544	0.272	313997	ORIENT_START	n/a	n/a	-999	-999	n/a	n/a	n/a	n/a	1	[0, 0, 0]	-999	PAL1	6	R1365N
312.816	0.664	314269	ORIENT_END	n/a	n/a	-999	-999	n/a	n/a	n/a	n/a	1	[0, 0, 0]	-999	PAL1	6	R1365N
313.48	0.081	314933	REC_EVENT	5973.0	n/a	3	5	WAND	<>	WAND	CLOCK	1	[0, 0, 0]	-999	PAL1	6	R1365N
313.561	0.0	315014	REC_START	n/a	n/a	2	6	PIE	DIME	DIME	PIE	1	[0, 0, 0]	-999	PAL1	6	R1365N
313.561	4.0	315014	PROBE_START	n/a	wordpools/wordpool_EN.txt	2	6	PIE	DIME	DIME	PIE	1	[0, 0, 0]	-999	PAL1	6	R1365N
315.774	1.808	317227	REC_EVENT	2213.0	n/a	2	6	PIE	DIME	DIME	PIE	1	[0, 0, 0]	-999	PAL1	6	R1365N
317.582	1.0	319035	PROBE_END	n/a	n/a	2	6	PIE	n/a	DIME	PIE	1	[0, 0, 0]	-999	PAL1	6	R1365N
318.582	0.007	320035	REC_END	n/a	n/a	2	6	PIE	n/a	DIME	PIE	1	[0, 0, 0]	-999	PAL1	6	R1365N
318.589	0.0	320042	RETRIEVAL_END	n/a	n/a	-999	-999	n/a	n/a	n/a	n/a	1	[0, 0, 0]	-999	PAL1	6	R1365N
318.589	0.023	320042	TRIAL_END	n/a	n/a	-999	-999	n/a	n/a	n/a	n/a	1	[0, 0, 0]	-999	PAL1	6	R1365N
318.612	0.001	320065	TRIAL_START	n/a	n/a	-999	-999	n/a	n/a	n/a	n/a	1	[0, 0, 0]	-999	PAL1	6	R1365N
318.613	0.0	320066	TRIAL	n/a	n/a	-999	-999	n/a	n/a	n/a	n/a	2	[0, 0, 0]	-999	PAL1	6	R1365N
318.613	1.52	320066	WAITING_START	n/a	n/a	-999	-999	n/a	n/a	n/a	n/a	2	[0, 0, 0]	-999	PAL1	6	R1365N
320.133	0.0	321585	WAITING_END	n/a	n/a	-999	-999	n/a	n/a	n/a	n/a	2	[0, 0, 0]	-999	PAL1	6	R1365N
320.133	10.0	321585	COUNTDOWN_START	n/a	n/a	-999	-999	n/a	n/a	n/a	n/a	2	[0, 0, 0]	-999	PAL1	6	R1365N
330.561	0.0	332013	COUNTDOWN_END	n/a	n/a	-999	-999	n/a	n/a	n/a	n/a	2	[0, 0, 0]	-999	PAL1	6	R1365N
330.561	0.757	332013	ORIENT_START	n/a	n/a	-999	-999	n/a	n/a	n/a	n/a	2	[0, 0, 0]	-999	PAL1	6	R1365N
331.318	0.0	332770	ORIENT_END	n/a	n/a	-999	-999	n/a	n/a	n/a	n/a	2	[0, 0, 0]	-999	PAL1	6	R1365N
331.318	1.092	332770	ENCODING_START	n/a	n/a	-999	-999	n/a	n/a	n/a	n/a	2	[0, 0, 0]	-999	PAL1	6	R1365N
332.41	4.0	333862	STUDY_PAIR	n/a	wordpools/wordpool_EN.txt	1	1	n/a	ROOM	SKY	ROOM	2	[0, 0, 0]	-999	PAL1	6	R1365N
336.435	0.564	337887	STUDY_PAIR_OFF	n/a	n/a	1	1	n/a	ROOM	SKY	ROOM	2	[0, 0, 0]	-999	PAL1	6	R1365N
336.999	4.0	338451	STUDY_PAIR	n/a	wordpools/wordpool_EN.txt	2	4	n/a	PASTE	CLAY	PASTE	2	[0, 0, 0]	-999	PAL1	6	R1365N
341.037	0.705	342489	STUDY_PAIR_OFF	n/a	n/a	2	4	n/a	PASTE	CLAY	PASTE	2	[0, 0, 0]	-999	PAL1	6	R1365N
341.742	4.0	343194	STUDY_PAIR	n/a	wordpools/wordpool_EN.txt	3	3	n/a	n/a	BEAN	STONE	2	[0, 0, 0]	-999	PAL1	6	R1365N
345.771	0.603	347223	STUDY_PAIR_OFF	n/a	n/a	3	3	n/a	n/a	BEAN	STONE	2	[0, 0, 0]	-999	PAL1	6	R1365N
346.374	4.0	347826	STUDY_PAIR	n/a	wordpools/wordpool_EN.txt	4	6	n/a	HOOK	HOOK	BRICK	2	[0, 0, 0]	-999	PAL1	6	R1365N
350.404	0.652	351856	STUDY_PAIR_OFF	n/a	n/a	4	6	n/a	HOOK	HOOK	BRICK	2	[0, 0, 0]	-999	PAL1	6	R1365N
351.056	4.0	352508	STUDY_PAIR	n/a	wordpools/wordpool_EN.txt	5	5	n/a	FLAME	VAN	FLAME	2	[0, 0, 0]	-999	PAL1	6	R1365N
355.088	0.504	356540	STUDY_PAIR_OFF	n/a	n/a	5	5	n/a	FLAME	VAN	FLAME	2	[0, 0, 0]	-999	PAL1	6	R1365N
355.592	4.0	357044	STUDY_PAIR	n/a	wordpools/wordpool_EN.txt	6	2	n/a	WEED	WEED	GLOVE	2	[0, 0, 0]	-999	PAL1	6	R1365N
359.623	0.001	361074	STUDY_PAIR_OFF	n/a	n/a	6	2	n/a	WEED	WEED	GLOVE	2	[0, 0, 0]	-999	PAL1	6	R1365N
359.624	0.0	361075	ENCODING_END	n/a	n/a	-999	-999	n/a	n/a	n/a	n/a	2	[0, 0, 0]	-999	PAL1	6	R1365N
359.624	0.0	361075	MATH_START	n/a	n/a	-999	-999	n/a	n/a	n/a	n/a	2	[0, 0, 0]	-999	PAL1	6	R1365N
359.624	0.016	361075	START	n/a	n/a	-999	-999	n/a	n/a	n/a	n/a	2	[-999, -999, -999]	-999	PAL1	6	R1365N
359.64	9.5	361091	PROB	9473.0	n/a	-999	-999	n/a	n/a	n/a	n/a	2	[6, 6, 6]	18	PAL1	6	R1365N
369.14	13.566	370591	PROB	13566.0	n/a	-999	-999	n/a	n/a	n/a	n/a	2	[9, 3, 6]	18	PAL1	6	R1365N
382.706	0.021	384157	STOP	n/a	n/a	-999	-999	n/a	n/a	n/a	n/a	2	[-999, -999, -999]	-999	PAL1	6	R1365N
382.727	0.653	384178	MATH_END	n/a	n/a	-999	-999	n/a	n/a	n/a	n/a	2	[0, 0, 0]	-999	PAL1	6	R1365N
383.38	0.001	384831	RETRIEVAL_START	n/a	n/a	-999	-999	n/a	n/a	n/a	n/a	2	[0, 0, 0]	-999	PAL1	6	R1365N
383.381	0.28	384832	ORIENT_START	n/a	n/a	-999	-999	n/a	n/a	n/a	n/a	2	[0, 0, 0]	-999	PAL1	6	R1365N
383.661	0.709	385112	ORIENT_END	n/a	n/a	-999	-999	n/a	n/a	n/a	n/a	2	[0, 0, 0]	-999	PAL1	6	R1365N
384.37	0.0	385821	REC_START	n/a	n/a	1	1	SKY	ROOM	SKY	ROOM	2	[0, 0, 0]	-999	PAL1	6	R1365N
384.37	4.0	385821	PROBE_START	n/a	wordpools/wordpool_EN.txt	1	1	SKY	ROOM	SKY	ROOM	2	[0, 0, 0]	-999	PAL1	6	R1365N
386.368	2.026	387819	REC_EVENT	1998.0	n/a	1	1	SKY	ROOM	SKY	ROOM	2	[0, 0, 0]	-999	PAL1	6	R1365N
388.394	1.0	389845	PROBE_END	n/a	n/a	1	1	SKY	n/a	SKY	ROOM	2	[0, 0, 0]	-999	PAL1	6	R1365N
389.394	0.013	390845	REC_END	n/a	n/a	1	1	SKY	n/a	SKY	ROOM	2	[0, 0, 0]	-999	PAL1	6	R1365N
389.407	0.271	390858	ORIENT_START	n/a	n/a	-999	-999	n/a	n/a	n/a	n/a	2	[0, 0, 0]	-999	PAL1	6	R1365N
389.678	0.689	391129	ORIENT_END	n/a	n/a	-999	-999	n/a	n/a	n/a	n/a	2	[0, 0, 0]	-999	PAL1	6	R1365N
390.367	0.001	391818	REC_START	n/a	n/a	6	2	GLOVE	WEED	WEED	GLOVE	2	[0, 0, 0]	-999	PAL1	6	R1365N
390.368	4.0	391819	PROBE_START	n/a	wordpools/wordpool_EN.txt	6	2	GLOVE	WEED	WEED	GLOVE	2	[0, 0, 0]	-999	PAL1	6	R1365N
394.213	0.182	395664	REC_EVENT	3845.0	n/a	6	2	GLOVE	WEED	WEED	GLOVE	2	[0, 0, 0]	-999	PAL1	6	R1365N
394.395	1.0	395846	PROBE_END	n/a	n/a	6	2	GLOVE	n/a	WEED	GLOVE	2	[0, 0, 0]	-999	PAL1	6	R1365N
395.395	0.012	396846	REC_END	n/a	n/a	6	2	GLOVE	n/a	WEED	GLOVE	2	[0, 0, 0]	-999	PAL1	6	R1365N
395.407	0.272	396858	ORIENT_START	n/a	n/a	-999	-999	n/a	n/a	n/a	n/a	2	[0, 0, 0]	-999	PAL1	6	R1365N
395.679	0.512	397130	ORIENT_END	n/a	n/a	-999	-999	n/a	n/a	n/a	n/a	2	[0, 0, 0]	-999	PAL1	6	R1365N
396.191	0.0	397642	REC_START	n/a	n/a	3	3	STONE	n/a	BEAN	STONE	2	[0, 0, 0]	-999	PAL1	6	R1365N
396.191	4.0	397642	PROBE_START	n/a	wordpools/wordpool_EN.txt	3	3	STONE	n/a	BEAN	STONE	2	[0, 0, 0]	-999	PAL1	6	R1365N
400.229	1.001	401679	PROBE_END	n/a	n/a	3	3	STONE	n/a	BEAN	STONE	2	[0, 0, 0]	-999	PAL1	6	R1365N
401.23	0.011	402680	REC_END	n/a	n/a	3	3	STONE	n/a	BEAN	STONE	2	[0, 0, 0]	-999	PAL1	6	R1365N
401.241	0.272	402691	ORIENT_START	n/a	n/a	-999	-999	n/a	n/a	n/a	n/a	2	[0, 0, 0]	-999	PAL1	6	R1365N
401.513	0.5	402963	ORIENT_END	n/a	n/a	-999	-999	n/a	n/a	n/a	n/a	2	[0, 0, 0]	-999	PAL1	6	R1365N
402.013	0.008	403463	REC_EVENT	5822.0	n/a	3	3	STONE	<>	BEAN	STONE	2	[0, 0, 0]	-999	PAL1	6	R1365N
402.021	0.0	403471	REC_START	n/a	n/a	2	4	CLAY	PASTE	CLAY	PASTE	2	[0, 0, 0]	-999	PAL1	6	R1365N
402.021	4.0	403471	PROBE_START	n/a	wordpools/wordpool_EN.txt	2	4	CLAY	PASTE	CLAY	PASTE	2	[0, 0, 0]	-999	PAL1	6	R1365N
403.784	2.264	405234	REC_EVENT	1763.0	n/a	2	4	CLAY	PASTE	CLAY	PASTE	2	[0, 0, 0]	-999	PAL1	6	R1365N
406.048	1.0	407498	PROBE_END	n/a	n/a	2	4	CLAY	n/a	CLAY	PASTE	2	[0, 0, 0]	-999	PAL1	6	R1365N
407.048	0.013	408498	REC_END	n/a	n/a	2	4	CLAY	n/a	CLAY	PASTE	2	[0, 0, 0]	-999	PAL1	6	R1365N
407.061	0.269	408511	ORIENT_START	n/a	n/a	-999	-999	n/a	n/a	n/a	n/a	2	[0, 0, 0]	-999	PAL1	6	R1365N
407.33	0.623	408780	ORIENT_END	n/a	n/a	-999	-999	n/a	n/a	n/a	n/a	2	[0, 0, 0]	-999	PAL1	6	R1365N
407.953	0.001	409403	REC_START	n/a	n/a	5	5	VAN	FLAME	VAN	FLAME	2	[0, 0, 0]	-999	PAL1	6	R1365N
407.954	4.0	409404	PROBE_START	n/a	wordpools/wordpool_EN.txt	5	5	VAN	FLAME	VAN	FLAME	2	[0, 0, 0]	-999	PAL1	6	R1365N
409.911	2.071	411361	REC_EVENT	1957.0	n/a	5	5	VAN	FLAME	VAN	FLAME	2	[0, 0, 0]	-999	PAL1	6	R1365N
411.982	1.001	413432	PROBE_END	n/a	n/a	5	5	VAN	n/a	VAN	FLAME	2	[0, 0, 0]	-999	PAL1	6	R1365N
412.983	0.012	414433	REC_END	n/a	n/a	5	5	VAN	n/a	VAN	FLAME	2	[0, 0, 0]	-999	PAL1	6	R1365N
412.995	0.27	414445	ORIENT_START	n/a	n/a	-999	-999	n/a	n/a	n/a	n/a	2	[0, 0, 0]	-999	PAL1	6	R1365N
413.265	0.713	414715	ORIENT_END	n/a	n/a	-999	-999	n/a	n/a	n/a	n/a	2	[0, 0, 0]	-999	PAL1	6	R1365N
413.978	0.0	415428	REC_START	n/a	n/a	4	6	BRICK	HOOK	HOOK	BRICK	2	[0, 0, 0]	-999	PAL1	6	R1365N
413.978	4.0	415428	PROBE_START	n/a	wordpools/wordpool_EN.txt	4	6	BRICK	HOOK	HOOK	BRICK	2	[0, 0, 0]	-999	PAL1	6	R1365N
416.078	1.938	417528	REC_EVENT	2100.0	n/a	4	6	BRICK	HOOK	HOOK	BRICK	2	[0, 0, 0]	-999	PAL1	6	R1365N
418.016	1.0	419466	PROBE_END	n/a	n/a	4	6	BRICK	n/a	HOOK	BRICK	2	[0, 0, 0]	-999	PAL1	6	R1365N
419.016	0.011	420466	REC_END	n/a	n/a	4	6	BRICK	n/a	HOOK	BRICK	2	[0, 0, 0]	-999	PAL1	6	R1365N
419.027	0.0	420477	RETRIEVAL_END	n/a	n/a	-999	-999	n/a	n/a	n/a	n/a	2	[0, 0, 0]	-999	PAL1	6	R1365N
419.027	0.021	420477	TRIAL_END	n/a	n/a	-999	-999	n/a	n/a	n/a	n/a	2	[0, 0, 0]	-999	PAL1	6	R1365N
419.048	0.001	420498	TRIAL_START	n/a	n/a	-999	-999	n/a	n/a	n/a	n/a	2	[0, 0, 0]	-999	PAL1	6	R1365N
419.049	0.0	420499	TRIAL	n/a	n/a	-999	-999	n/a	n/a	n/a	n/a	3	[0, 0, 0]	-999	PAL1	6	R1365N
419.049	2.217	420499	WAITING_START	n/a	n/a	-999	-999	n/a	n/a	n/a	n/a	3	[0, 0, 0]	-999	PAL1	6	R1365N
421.266	0.0	422716	WAITING_END	n/a	n/a	-999	-999	n/a	n/a	n/a	n/a	3	[0, 0, 0]	-999	PAL1	6	R1365N
421.266	10.0	422716	COUNTDOWN_START	n/a	n/a	-999	-999	n/a	n/a	n/a	n/a	3	[0, 0, 0]	-999	PAL1	6	R1365N
431.695	0.001	433145	COUNTDOWN_END	n/a	n/a	-999	-999	n/a	n/a	n/a	n/a	3	[0, 0, 0]	-999	PAL1	6	R1365N
431.696	0.588	433146	ORIENT_START	n/a	n/a	-999	-999	n/a	n/a	n/a	n/a	3	[0, 0, 0]	-999	PAL1	6	R1365N
432.284	0.001	433734	ORIENT_END	n/a	n/a	-999	-999	n/a	n/a	n/a	n/a	3	[0, 0, 0]	-999	PAL1	6	R1365N
432.285	1.23	433735	ENCODING_START	n/a	n/a	-999	-999	n/a	n/a	n/a	n/a	3	[0, 0, 0]	-999	PAL1	6	R1365N
433.515	4.0	434965	STUDY_PAIR	n/a	wordpools/wordpool_EN.txt	1	1	n/a	n/a	PIT	BOOT	3	[0, 0, 0]	-999	PAL1	6	R1365N
437.552	0.69	439001	STUDY_PAIR_OFF	n/a	n/a	1	1	n/a	n/a	PIT	BOOT	3	[0, 0, 0]	-999	PAL1	6	R1365N
438.242	4.0	439691	STUDY_PAIR	n/a	wordpools/wordpool_EN.txt	2	4	n/a	PEN	MULE	PEN	3	[0, 0, 0]	-999	PAL1	6	R1365N
442.269	0.738	443718	STUDY_PAIR_OFF	n/a	n/a	2	4	n/a	PEN	MULE	PEN	3	[0, 0, 0]	-999	PAL1	6	R1365N
443.007	4.0	444456	STUDY_PAIR	n/a	wordpools/wordpool_EN.txt	3	5	n/a	BOARD	BOARD	BLUSH	3	[0, 0, 0]	-999	PAL1	6	R1365N
447.038	0.694	448487	STUDY_PAIR_OFF	n/a	n/a	3	5	n/a	BOARD	BOARD	BLUSH	3	[0, 0, 0]	-999	PAL1	6	R1365N
447.732	4.0	449181	STUDY_PAIR	n/a	wordpools/wordpool_EN.txt	4	2	n/a	TRAY	TRAY	APE	3	[0, 0, 0]	-999	PAL1	6	R1365N
451.755	0.692	453204	STUDY_PAIR_OFF	n/a	n/a	4	2	n/a	TRAY	TRAY	APE	3	[0, 0, 0]	-999	PAL1	6	R1365N
452.447	4.0	453896	STUDY_PAIR	n/a	wordpools/wordpool_EN.txt	5	3	n/a	n/a	DUCK	SALT	3	[0, 0, 0]	-999	PAL1	6	R1365N
456.472	0.638	457921	STUDY_PAIR_OFF	n/a	n/a	5	3	n/a	n/a	DUCK	SALT	3	[0, 0, 0]	-999	PAL1	6	R1365N
457.11	4.0	458559	STUDY_PAIR	n/a	wordpools/wordpool_EN.txt	6	6	n/a	SPONGE	NEST	SPONGE	3	[0, 0, 0]	-999	PAL1	6	R1365N
461.139	0.001	462588	STUDY_PAIR_OFF	n/a	n/a	6	6	n/a	SPONGE	NEST	SPONGE	3	[0, 0, 0]	-999	PAL1	6	R1365N
461.14	0.0	462589	MATH_START	n/a	n/a	-999	-999	n/a	n/a	n/a	n/a	3	[0, 0, 0]	-999	PAL1	6	R1365N
461.14	0.0	462589	ENCODING_END	n/a	n/a	-999	-999	n/a	n/a	n/a	n/a	3	[0, 0, 0]	-999	PAL1	6	R1365N
461.14	0.016	462589	START	n/a	n/a	-999	-999	n/a	n/a	n/a	n/a	3	[-999, -999, -999]	-999	PAL1	6	R1365N
461.156	6.334	462605	PROB	6301.0	n/a	-999	-999	n/a	n/a	n/a	n/a	3	[6, 8, 1]	17	PAL1	6	R1365N
467.49	17.392	468939	PROB	17392.0	n/a	-999	-999	n/a	n/a	n/a	n/a	3	[6, 9, 9]	22	PAL1	6	R1365N
484.882	0.012	486330	STOP	n/a	n/a	-999	-999	n/a	n/a	n/a	n/a	3	[-999, -999, -999]	-999	PAL1	6	R1365N
484.894	0.628	486342	MATH_END	n/a	n/a	-999	-999	n/a	n/a	n/a	n/a	3	[0, 0, 0]	-999	PAL1	6	R1365N
485.522	0.002	486970	RETRIEVAL_START	n/a	n/a	-999	-999	n/a	n/a	n/a	n/a	3	[0, 0, 0]	-999	PAL1	6	R1365N
485.524	0.287	486972	ORIENT_START	n/a	n/a	-999	-999	n/a	n/a	n/a	n/a	3	[0, 0, 0]	-999	PAL1	6	R1365N
485.811	0.605	487259	ORIENT_END	n/a	n/a	-999	-999	n/a	n/a	n/a	n/a	3	[0, 0, 0]	-999	PAL1	6	R1365N
486.416	0.001	487864	REC_START	n/a	n/a	1	1	BOOT	n/a	PIT	BOOT	3	[0, 0, 0]	-999	PAL1	6	R1365N
486.417	4.0	487865	PROBE_START	n/a	wordpools/wordpool_EN.txt	1	1	BOOT	n/a	PIT	BOOT	3	[0, 0, 0]	-999	PAL1	6	R1365N
489.072	1.372	490520	REC_EVENT	2655.0	n/a	1	1	BOOT	<>	PIT	BOOT	3	[0, 0, 0]	-999	PAL1	6	R1365N
490.444	1.0	491892	PROBE_END	n/a	n/a	1	1	BOOT	n/a	PIT	BOOT	3	[0, 0, 0]	-999	PAL1	6	R1365N
491.444	0.013	492892	REC_END	n/a	n/a	1	1	BOOT	n/a	PIT	BOOT	3	[0, 0, 0]	-999	PAL1	6	R1365N
491.457	0.255	492905	ORIENT_START	n/a	n/a	-999	-999	n/a	n/a	n/a	n/a	3	[0, 0, 0]	-999	PAL1	6	R1365N
491.712	0.622	493160	ORIENT_END	n/a	n/a	-999	-999	n/a	n/a	n/a	n/a	3	[0, 0, 0]	-999	PAL1	6	R1365N
492.334	0.001	493782	REC_START	n/a	n/a	4	2	APE	TRAY	TRAY	APE	3	[0, 0, 0]	-999	PAL1	6	R1365N
492.335	4.0	493783	PROBE_START	n/a	wordpools/wordpool_EN.txt	4	2	APE	TRAY	TRAY	APE	3	[0, 0, 0]	-999	PAL1	6	R1365N
494.458	1.904	495906	REC_EVENT	2123.0	n/a	4	2	APE	TRAY	TRAY	APE	3	[0, 0, 0]	-999	PAL1	6	R1365N
496.362	1.0	497810	PROBE_END	n/a	n/a	4	2	APE	n/a	TRAY	APE	3	[0, 0, 0]	-999	PAL1	6	R1365N
497.362	0.011	498810	REC_END	n/a	n/a	4	2	APE	n/a	TRAY	APE	3	[0, 0, 0]	-999	PAL1	6	R1365N
497.373	0.273	498821	ORIENT_START	n/a	n/a	-999	-999	n/a	n/a	n/a	n/a	3	[0, 0, 0]	-999	PAL1	6	R1365N
497.646	0.659	499094	ORIENT_END	n/a	n/a	-999	-999	n/a	n/a	n/a	n/a	3	[0, 0, 0]	-999	PAL1	6	R1365N
498.305	0.0	499753	REC_START	n/a	n/a	5	3	DUCK	n/a	DUCK	SALT	3	[0, 0, 0]	-999	PAL1	6	R1365N
498.305	4.0	499753	PROBE_START	n/a	wordpools/wordpool_EN.txt	5	3	DUCK	n/a	DUCK	SALT	3	[0, 0, 0]	-999	PAL1	6	R1365N
502.329	1.001	503777	PROBE_END	n/a	n/a	5	3	DUCK	n/a	DUCK	SALT	3	[0, 0, 0]	-999	PAL1	6	R1365N
503.33	0.012	504778	REC_END	n/a	n/a	5	3	DUCK	n/a	DUCK	SALT	3	[0, 0, 0]	-999	PAL1	6	R1365N
503.342	0.272	504790	ORIENT_START	n/a	n/a	-999	-999	n/a	n/a	n/a	n/a	3	[0, 0, 0]	-999	PAL1	6	R1365N
503.614	0.559	505062	ORIENT_END	n/a	n/a	-999	-999	n/a	n/a	n/a	n/a	3	[0, 0, 0]	-999	PAL1	6	R1365N
504.173	0.0	505621	REC_START	n/a	n/a	2	4	MULE	PEN	MULE	PEN	3	[0, 0, 0]	-999	PAL1	6	R1365N
504.173	4.0	505621	PROBE_START	n/a	wordpools/wordpool_EN.txt	2	4	MULE	PEN	MULE	PEN	3	[0, 0, 0]	-999	PAL1	6	R1365N
504.26	1.89	505708	REC_EVENT	5955.0	n/a	5	3	DUCK	<>	DUCK	SALT	3	[0, 0, 0]	-999	PAL1	6	R1365N
506.15	2.047	507598	REC_EVENT	1977.0	n/a	2	4	MULE	PEN	MULE	PEN	3	[0, 0, 0]	-999	PAL1	6	R1365N
508.197	1.0	509645	PROBE_END	n/a	n/a	2	4	MULE	n/a	MULE	PEN	3	[0, 0, 0]	-999	PAL1	6	R1365N
509.197	0.014	510645	REC_END	n/a	n/a	2	4	MULE	n/a	MULE	PEN	3	[0, 0, 0]	-999	PAL1	6	R1365N
509.211	0.286	510659	ORIENT_START	n/a	n/a	-999	-999	n/a	n/a	n/a	n/a	3	[0, 0, 0]	-999	PAL1	6	R1365N
509.497	0.535	510945	ORIENT_END	n/a	n/a	-999	-999	n/a	n/a	n/a	n/a	3	[0, 0, 0]	-999	PAL1	6	R1365N
510.032	0.0	511480	REC_START	n/a	n/a	3	5	BLUSH	BOARD	BOARD	BLUSH	3	[0, 0, 0]	-999	PAL1	6	R1365N
510.032	4.0	511480	PROBE_START	n/a	wordpools/wordpool_EN.txt	3	5	BLUSH	BOARD	BOARD	BLUSH	3	[0, 0, 0]	-999	PAL1	6	R1365N
511.833	2.233	513281	REC_EVENT	1801.0	n/a	3	5	BLUSH	BOARD	BOARD	BLUSH	3	[0, 0, 0]	-999	PAL1	6	R1365N
514.066	0.999	515514	PROBE_END	n/a	n/a	3	5	BLUSH	n/a	BOARD	BLUSH	3	[0, 0, 0]	-999	PAL1	6	R1365N
515.065	0.013	516512	REC_END	n/a	n/a	3	5	BLUSH	n/a	BOARD	BLUSH	3	[0, 0, 0]	-999	PAL1	6	R1365N
515.078	0.27	516525	ORIENT_START	n/a	n/a	-999	-999	n/a	n/a	n/a	n/a	3	[0, 0, 0]	-999	PAL1	6	R1365N
515.348	0.514	516795	ORIENT_END	n/a	n/a	-999	-999	n/a	n/a	n/a	n/a	3	[0, 0, 0]	-999	PAL1	6	R1365N
515.862	0.0	517309	REC_START	n/a	n/a	6	6	NEST	SPONGE	NEST	SPONGE	3	[0, 0, 0]	-999	PAL1	6	R1365N
515.862	4.0	517309	PROBE_START	n/a	wordpools/wordpool_EN.txt	6	6	NEST	SPONGE	NEST	SPONGE	3	[0, 0, 0]	-999	PAL1	6	R1365N
519.9	1.0	521347	PROBE_END	n/a	n/a	6	6	NEST	n/a	NEST	SPONGE	3	[0, 0, 0]	-999	PAL1	6	R1365N
520.9	0.013	522347	REC_END	n/a	n/a	6	6	NEST	n/a	NEST	SPONGE	3	[0, 0, 0]	-999	PAL1	6	R1365N
520.913	0.0	522360	RETRIEVAL_END	n/a	n/a	-999	-999	n/a	n/a	n/a	n/a	3	[0, 0, 0]	-999	PAL1	6	R1365N
520.913	0.022	522360	TRIAL_END	n/a	n/a	-999	-999	n/a	n/a	n/a	n/a	3	[0, 0, 0]	-999	PAL1	6	R1365N
520.935	0.0	522382	TRIAL_START	n/a	n/a	-999	-999	n/a	n/a	n/a	n/a	3	[0, 0, 0]	-999	PAL1	6	R1365N
520.935	0.0	522382	TRIAL	n/a	n/a	-999	-999	n/a	n/a	n/a	n/a	4	[0, 0, 0]	-999	PAL1	6	R1365N
520.935	0.129	522382	WAITING_START	n/a	n/a	-999	-999	n/a	n/a	n/a	n/a	4	[0, 0, 0]	-999	PAL1	6	R1365N
521.064	1.736	522511	REC_EVENT	5202.0	n/a	6	6	NEST	SPONGE	NEST	SPONGE	3	[0, 0, 0]	-999	PAL1	6	R1365N
522.8	0.001	524247	WAITING_END	n/a	n/a	-999	-999	n/a	n/a	n/a	n/a	4	[0, 0, 0]	-999	PAL1	6	R1365N
522.801	10.0	524248	COUNTDOWN_START	n/a	n/a	-999	-999	n/a	n/a	n/a	n/a	4	[0, 0, 0]	-999	PAL1	6	R1365N
533.23	0.0	534677	ORIENT_START	n/a	n/a	-999	-999	n/a	n/a	n/a	n/a	4	[0, 0, 0]	-999	PAL1	6	R1365N
533.23	0.672	534677	COUNTDOWN_END	n/a	n/a	-999	-999	n/a	n/a	n/a	n/a	4	[0, 0, 0]	-999	PAL1	6	R1365N
533.902	0.001	535349	ORIENT_END	n/a	n/a	-999	-999	n/a	n/a	n/a	n/a	4	[0, 0, 0]	-999	PAL1	6	R1365N
533.903	1.069	535350	ENCODING_START	n/a	n/a	-999	-999	n/a	n/a	n/a	n/a	4	[0, 0, 0]	-999	PAL1	6	R1365N
534.972	4.0	536419	STUDY_PAIR	n/a	wordpools/wordpool_EN.txt	1	3	n/a	HAWK	HAWK	SWORD	4	[0, 0, 0]	-999	PAL1	6	R1365N
539.003	0.656	540450	STUDY_PAIR_OFF	n/a	n/a	1	3	n/a	HAWK	HAWK	SWORD	4	[0, 0, 0]	-999	PAL1	6	R1365N
539.659	4.0	541106	STUDY_PAIR	n/a	wordpools/wordpool_EN.txt	2	4	n/a	COW	COW	HORN	4	[0, 0, 0]	-999	PAL1	6	R1365N
543.687	0.632	545134	STUDY_PAIR_OFF	n/a	n/a	2	4	n/a	COW	COW	HORN	4	[0, 0, 0]	-999	PAL1	6	R1365N
544.319	4.0	545766	STUDY_PAIR	n/a	wordpools/wordpool_EN.txt	3	5	n/a	n/a	BARN	STOOL	4	[0, 0, 0]	-999	PAL1	6	R1365N
548.354	0.728	549801	STUDY_PAIR_OFF	n/a	n/a	3	5	n/a	n/a	BARN	STOOL	4	[0, 0, 0]	-999	PAL1	6	R1365N
549.082	4.0	550529	STUDY_PAIR	n/a	wordpools/wordpool_EN.txt	4	2	n/a	SLIME	BANK	SLIME	4	[0, 0, 0]	-999	PAL1	6	R1365N
553.121	0.711	554568	STUDY_PAIR_OFF	n/a	n/a	4	2	n/a	SLIME	BANK	SLIME	4	[0, 0, 0]	-999	PAL1	6	R1365N
553.832	4.0	555279	STUDY_PAIR	n/a	wordpools/wordpool_EN.txt	5	1	n/a	n/a	CORD	PURSE	4	[0, 0, 0]	-999	PAL1	6	R1365N
557.856	0.566	559302	STUDY_PAIR_OFF	n/a	n/a	5	1	n/a	n/a	CORD	PURSE	4	[0, 0, 0]	-999	PAL1	6	R1365N
558.422	4.0	559868	STUDY_PAIR	n/a	wordpools/wordpool_EN.txt	6	6	n/a	DITCH	ELF	DITCH	4	[0, 0, 0]	-999	PAL1	6	R1365N
562.456	0.001	563902	STUDY_PAIR_OFF	n/a	n/a	6	6	n/a	DITCH	ELF	DITCH	4	[0, 0, 0]	-999	PAL1	6	R1365N
562.457	0.0	563903	ENCODING_END	n/a	n/a	-999	-999	n/a	n/a	n/a	n/a	4	[0, 0, 0]	-999	PAL1	6	R1365N
562.457	0.0	563903	MATH_START	n/a	n/a	-999	-999	n/a	n/a	n/a	n/a	4	[0, 0, 0]	-999	PAL1	6	R1365N
562.457	0.015	563903	START	n/a	n/a	-999	-999	n/a	n/a	n/a	n/a	4	[-999, -999, -999]	-999	PAL1	6	R1365N
562.472	4.569	563918	PROB	4545.0	n/a	-999	-999	n/a	n/a	n/a	n/a	4	[4, 4, 6]	14	PAL1	6	R1365N
567.041	7.934	568487	PROB	7904.0	n/a	-999	-999	n/a	n/a	n/a	n/a	4	[5, 9, 9]	23	PAL1	6	R1365N
574.975	2.617	576421	PROB	2593.0	n/a	-999	-999	n/a	n/a	n/a	n/a	4	[1, 7, 7]	15	PAL1	6	R1365N
577.592	2.384	579038	PROB	2361.0	n/a	-999	-999	n/a	n/a	n/a	n/a	4	[3, 5, 1]	9	PAL1	6	R1365N
579.976	3.041	581422	PROB	3041.0	n/a	-999	-999	n/a	n/a	n/a	n/a	4	[3, 4, 6]	13	PAL1	6	R1365N
583.017	0.01	584463	STOP	n/a	n/a	-999	-999	n/a	n/a	n/a	n/a	4	[-999, -999, -999]	-999	PAL1	6	R1365N
583.027	0.697	584473	MATH_END	n/a	n/a	-999	-999	n/a	n/a	n/a	n/a	4	[0, 0, 0]	-999	PAL1	6	R1365N
583.724	0.001	585170	RETRIEVAL_START	n/a	n/a	-999	-999	n/a	n/a	n/a	n/a	4	[0, 0, 0]	-999	PAL1	6	R1365N
583.725	0.286	585171	ORIENT_START	n/a	n/a	-999	-999	n/a	n/a	n/a	n/a	4	[0, 0, 0]	-999	PAL1	6	R1365N
584.011	0.734	585457	ORIENT_END	n/a	n/a	-999	-999	n/a	n/a	n/a	n/a	4	[0, 0, 0]	-999	PAL1	6	R1365N
584.745	0.001	586191	REC_START	n/a	n/a	5	1	CORD	n/a	CORD	PURSE	4	[0, 0, 0]	-999	PAL1	6	R1365N
584.746	4.0	586192	PROBE_START	n/a	wordpools/wordpool_EN.txt	5	1	CORD	n/a	CORD	PURSE	4	[0, 0, 0]	-999	PAL1	6	R1365N
588.778	1.001	590224	PROBE_END	n/a	n/a	5	1	CORD	n/a	CORD	PURSE	4	[0, 0, 0]	-999	PAL1	6	R1365N
589.779	0.007	591225	REC_END	n/a	n/a	5	1	CORD	n/a	CORD	PURSE	4	[0, 0, 0]	-999	PAL1	6	R1365N
589.786	0.276	591232	ORIENT_START	n/a	n/a	-999	-999	n/a	n/a	n/a	n/a	4	[0, 0, 0]	-999	PAL1	6	R1365N
590.062	0.718	591508	ORIENT_END	n/a	n/a	-999	-999	n/a	n/a	n/a	n/a	4	[0, 0, 0]	-999	PAL1	6	R1365N
590.78	0.001	592226	REC_START	n/a	n/a	4	2	BANK	SLIME	BANK	SLIME	4	[0, 0, 0]	-999	PAL1	6	R1365N
590.781	4.0	592227	PROBE_START	n/a	wordpools/wordpool_EN.txt	4	2	BANK	SLIME	BANK	SLIME	4	[0, 0, 0]	-999	PAL1	6	R1365N
590.8	1.979	592246	REC_EVENT	6054.0	n/a	5	1	CORD	<>	CORD	PURSE	4	[0, 0, 0]	-999	PAL1	6	R1365N
592.779	2.033	594225	REC_EVENT	1998.0	n/a	4	2	BANK	SLIME	BANK	SLIME	4	[0, 0, 0]	-999	PAL1	6	R1365N
594.812	1.0	596257	PROBE_END	n/a	n/a	4	2	BANK	n/a	BANK	SLIME	4	[0, 0, 0]	-999	PAL1	6	R1365N
595.812	0.012	597257	REC_END	n/a	n/a	4	2	BANK	n/a	BANK	SLIME	4	[0, 0, 0]	-999	PAL1	6	R1365N
595.824	0.271	597269	ORIENT_START	n/a	n/a	-999	-999	n/a	n/a	n/a	n/a	4	[0, 0, 0]	-999	PAL1	6	R1365N
596.095	0.596	597540	ORIENT_END	n/a	n/a	-999	-999	n/a	n/a	n/a	n/a	4	[0, 0, 0]	-999	PAL1	6	R1365N
596.691	0.001	598136	REC_START	n/a	n/a	1	3	SWORD	HAWK	HAWK	SWORD	4	[0, 0, 0]	-999	PAL1	6	R1365N
596.692	4.0	598137	PROBE_START	n/a	wordpools/wordpool_EN.txt	1	3	SWORD	HAWK	HAWK	SWORD	4	[0, 0, 0]	-999	PAL1	6	R1365N
599.943	0.77	601388	REC_EVENT	3251.0	n/a	1	3	SWORD	HAWK	HAWK	SWORD	4	[0, 0, 0]	-999	PAL1	6	R1365N
600.713	1.0	602158	PROBE_END	n/a	n/a	1	3	SWORD	n/a	HAWK	SWORD	4	[0, 0, 0]	-999	PAL1	6	R1365N
601.713	0.011	603158	REC_END	n/a	n/a	1	3	SWORD	n/a	HAWK	SWORD	4	[0, 0, 0]	-999	PAL1	6	R1365N
601.724	0.273	603169	ORIENT_START	n/a	n/a	-999	-999	n/a	n/a	n/a	n/a	4	[0, 0, 0]	-999	PAL1	6	R1365N
601.997	0.517	603442	ORIENT_END	n/a	n/a	-999	-999	n/a	n/a	n/a	n/a	4	[0, 0, 0]	-999	PAL1	6	R1365N
602.514	0.0	603959	REC_START	n/a	n/a	2	4	HORN	COW	COW	HORN	4	[0, 0, 0]	-999	PAL1	6	R1365N
602.514	4.0	603959	PROBE_START	n/a	wordpools/wordpool_EN.txt	2	4	HORN	COW	COW	HORN	4	[0, 0, 0]	-999	PAL1	6	R1365N
604.835	1.712	606280	REC_EVENT	2321.0	n/a	2	4	HORN	COW	COW	HORN	4	[0, 0, 0]	-999	PAL1	6	R1365N
606.547	0.999	607992	PROBE_END	n/a	n/a	2	4	HORN	n/a	COW	HORN	4	[0, 0, 0]	-999	PAL1	6	R1365N
607.546	0.012	608991	REC_END	n/a	n/a	2	4	HORN	n/a	COW	HORN	4	[0, 0, 0]	-999	PAL1	6	R1365N
607.558	0.256	609003	ORIENT_START	n/a	n/a	-999	-999	n/a	n/a	n/a	n/a	4	[0, 0, 0]	-999	PAL1	6	R1365N
607.814	0.541	609259	ORIENT_END	n/a	n/a	-999	-999	n/a	n/a	n/a	n/a	4	[0, 0, 0]	-999	PAL1	6	R1365N
608.355	0.001	609800	REC_START	n/a	n/a	3	5	STOOL	n/a	BARN	STOOL	4	[0, 0, 0]	-999	PAL1	6	R1365N
608.356	4.0	609801	PROBE_START	n/a	wordpools/wordpool_EN.txt	3	5	STOOL	n/a	BARN	STOOL	4	[0, 0, 0]	-999	PAL1	6	R1365N
612.381	1.001	613826	PROBE_END	n/a	n/a	3	5	STOOL	n/a	BARN	STOOL	4	[0, 0, 0]	-999	PAL1	6	R1365N
613.382	0.011	614827	REC_END	n/a	n/a	3	5	STOOL	n/a	BARN	STOOL	4	[0, 0, 0]	-999	PAL1	6	R1365N
613.393	0.272	614838	ORIENT_START	n/a	n/a	-999	-999	n/a	n/a	n/a	n/a	4	[0, 0, 0]	-999	PAL1	6	R1365N
613.665	0.513	615110	ORIENT_END	n/a	n/a	-999	-999	n/a	n/a	n/a	n/a	4	[0, 0, 0]	-999	PAL1	6	R1365N
614.178	0.007	615623	REC_EVENT	5822.0	n/a	3	5	STOOL	<>	BARN	STOOL	4	[0, 0, 0]	-999	PAL1	6	R1365N
614.185	0.0	615630	REC_START	n/a	n/a	6	6	ELF	DITCH	ELF	DITCH	4	[0, 0, 0]	-999	PAL1	6	R1365N
614.185	4.0	615630	PROBE_START	n/a	wordpools/wordpool_EN.txt	6	6	ELF	DITCH	ELF	DITCH	4	[0, 0, 0]	-999	PAL1	6	R1365N
615.932	2.283	617377	REC_EVENT	1747.0	n/a	6	6	ELF	DITCH	ELF	DITCH	4	[0, 0, 0]	-999	PAL1	6	R1365N
618.215	1.001	619660	PROBE_END	n/a	n/a	6	6	ELF	n/a	ELF	DITCH	4	[0, 0, 0]	-999	PAL1	6	R1365N
619.216	0.011	620661	REC_END	n/a	n/a	6	6	ELF	n/a	ELF	DITCH	4	[0, 0, 0]	-999	PAL1	6	R1365N
619.227	0.001	620672	RETRIEVAL_END	n/a	n/a	-999	-999	n/a	n/a	n/a	n/a	4	[0, 0, 0]	-999	PAL1	6	R1365N
619.228	0.02	620673	TRIAL_END	n/a	n/a	-999	-999	n/a	n/a	n/a	n/a	4	[0, 0, 0]	-999	PAL1	6	R1365N
619.248	0.001	620693	TRIAL_START	n/a	n/a	-999	-999	n/a	n/a	n/a	n/a	4	[0, 0, 0]	-999	PAL1	6	R1365N
619.249	0.0	620694	WAITING_START	n/a	n/a	-999	-999	n/a	n/a	n/a	n/a	5	[0, 0, 0]	-999	PAL1	6	R1365N
619.249	2.0	620694	TRIAL	n/a	n/a	-999	-999	n/a	n/a	n/a	n/a	5	[0, 0, 0]	-999	PAL1	6	R1365N
621.249	0.001	622694	WAITING_END	n/a	n/a	-999	-999	n/a	n/a	n/a	n/a	5	[0, 0, 0]	-999	PAL1	6	R1365N
621.25	10.0	622695	COUNTDOWN_START	n/a	n/a	-999	-999	n/a	n/a	n/a	n/a	5	[0, 0, 0]	-999	PAL1	6	R1365N
631.678	0.0	633123	COUNTDOWN_END	n/a	n/a	-999	-999	n/a	n/a	n/a	n/a	5	[0, 0, 0]	-999	PAL1	6	R1365N
631.678	0.623	633123	ORIENT_START	n/a	n/a	-999	-999	n/a	n/a	n/a	n/a	5	[0, 0, 0]	-999	PAL1	6	R1365N
632.301	0.001	633745	ORIENT_END	n/a	n/a	-999	-999	n/a	n/a	n/a	n/a	5	[0, 0, 0]	-999	PAL1	6	R1365N
632.302	1.152	633746	ENCODING_START	n/a	n/a	-999	-999	n/a	n/a	n/a	n/a	5	[0, 0, 0]	-999	PAL1	6	R1365N
633.454	4.0	634898	STUDY_PAIR	n/a	wordpools/wordpool_EN.txt	1	5	n/a	BOWL	BOWL	BOOK	5	[0, 0, 0]	-999	PAL1	6	R1365N
637.485	0.659	638929	STUDY_PAIR_OFF	n/a	n/a	1	5	n/a	BOWL	BOWL	BOOK	5	[0, 0, 0]	-999	PAL1	6	R1365N
638.144	4.0	639588	STUDY_PAIR	n/a	wordpools/wordpool_EN.txt	2	6	n/a	LEG	CROW	LEG	5	[0, 0, 0]	-999	PAL1	6	R1365N
642.169	0.509	643613	STUDY_PAIR_OFF	n/a	n/a	2	6	n/a	LEG	CROW	LEG	5	[0, 0, 0]	-999	PAL1	6	R1365N
642.678	4.0	644122	STUDY_PAIR	n/a	wordpools/wordpool_EN.txt	3	3	n/a	HAND	HAND	EAR	5	[0, 0, 0]	-999	PAL1	6	R1365N
646.704	0.642	648148	STUDY_PAIR_OFF	n/a	n/a	3	3	n/a	HAND	HAND	EAR	5	[0, 0, 0]	-999	PAL1	6	R1365N
647.346	4.0	648790	STUDY_PAIR	n/a	wordpools/wordpool_EN.txt	4	4	n/a	TEA	TEA	FLUTE	5	[0, 0, 0]	-999	PAL1	6	R1365N
651.371	0.627	652815	STUDY_PAIR_OFF	n/a	n/a	4	4	n/a	TEA	TEA	FLUTE	5	[0, 0, 0]	-999	PAL1	6	R1365N
651.998	4.0	653442	STUDY_PAIR	n/a	wordpools/wordpool_EN.txt	5	1	n/a	HEART	JET	HEART	5	[0, 0, 0]	-999	PAL1	6	R1365N
656.022	0.688	657466	STUDY_PAIR_OFF	n/a	n/a	5	1	n/a	HEART	JET	HEART	5	[0, 0, 0]	-999	PAL1	6	R1365N
656.71	4.0	658154	STUDY_PAIR	n/a	wordpools/wordpool_EN.txt	6	2	n/a	n/a	CLIFF	DOCK	5	[0, 0, 0]	-999	PAL1	6	R1365N
660.74	0.0	662184	STUDY_PAIR_OFF	n/a	n/a	6	2	n/a	n/a	CLIFF	DOCK	5	[0, 0, 0]	-999	PAL1	6	R1365N
660.74	0.0	662184	ENCODING_END	n/a	n/a	-999	-999	n/a	n/a	n/a	n/a	5	[0, 0, 0]	-999	PAL1	6	R1365N
660.74	0.001	662184	MATH_START	n/a	n/a	-999	-999	n/a	n/a	n/a	n/a	5	[0, 0, 0]	-999	PAL1	6	R1365N
660.741	0.015	662185	START	n/a	n/a	-999	-999	n/a	n/a	n/a	n/a	5	[-999, -999, -999]	-999	PAL1	6	R1365N
660.756	16.569	662200	PROB	16532.0	n/a	-999	-999	n/a	n/a	n/a	n/a	5	[6, 8, 5]	19	PAL1	6	R1365N
677.325	5.725	678768	PROB	5725.0	n/a	-999	-999	n/a	n/a	n/a	n/a	5	[7, 2, 5]	14	PAL1	6	R1365N
683.05	0.01	684493	STOP	n/a	n/a	-999	-999	n/a	n/a	n/a	n/a	5	[-999, -999, -999]	-999	PAL1	6	R1365N
683.06	0.524	684503	MATH_END	n/a	n/a	-999	-999	n/a	n/a	n/a	n/a	5	[0, 0, 0]	-999	PAL1	6	R1365N
683.584	0.002	685027	RETRIEVAL_START	n/a	n/a	-999	-999	n/a	n/a	n/a	n/a	5	[0, 0, 0]	-999	PAL1	6	R1365N
683.586	0.274	685029	ORIENT_START	n/a	n/a	-999	-999	n/a	n/a	n/a	n/a	5	[0, 0, 0]	-999	PAL1	6	R1365N
683.86	0.67	685303	ORIENT_END	n/a	n/a	-999	-999	n/a	n/a	n/a	n/a	5	[0, 0, 0]	-999	PAL1	6	R1365N
684.53	0.0	685973	REC_START	n/a	n/a	5	1	JET	HEART	JET	HEART	5	[0, 0, 0]	-999	PAL1	6	R1365N
684.53	4.0	685973	PROBE_START	n/a	wordpools/wordpool_EN.txt	5	1	JET	HEART	JET	HEART	5	[0, 0, 0]	-999	PAL1	6	R1365N
686.628	1.932	688071	REC_EVENT	2098.0	n/a	5	1	JET	HEART	JET	HEART	5	[0, 0, 0]	-999	PAL1	6	R1365N
688.56	1.001	690003	PROBE_END	n/a	n/a	5	1	JET	n/a	JET	HEART	5	[0, 0, 0]	-999	PAL1	6	R1365N
689.561	0.012	691004	REC_END	n/a	n/a	5	1	JET	n/a	JET	HEART	5	[0, 0, 0]	-999	PAL1	6	R1365N
689.573	0.272	691016	ORIENT_START	n/a	n/a	-999	-999	n/a	n/a	n/a	n/a	5	[0, 0, 0]	-999	PAL1	6	R1365N
689.845	0.557	691288	ORIENT_END	n/a	n/a	-999	-999	n/a	n/a	n/a	n/a	5	[0, 0, 0]	-999	PAL1	6	R1365N
690.402	0.0	691845	REC_START	n/a	n/a	6	2	CLIFF	n/a	CLIFF	DOCK	5	[0, 0, 0]	-999	PAL1	6	R1365N
690.402	4.0	691845	PROBE_START	n/a	wordpools/wordpool_EN.txt	6	2	CLIFF	n/a	CLIFF	DOCK	5	[0, 0, 0]	-999	PAL1	6	R1365N
694.428	1.0	695871	PROBE_END	n/a	n/a	6	2	CLIFF	n/a	CLIFF	DOCK	5	[0, 0, 0]	-999	PAL1	6	R1365N
695.428	0.013	696871	REC_END	n/a	n/a	6	2	CLIFF	n/a	CLIFF	DOCK	5	[0, 0, 0]	-999	PAL1	6	R1365N
695.441	0.271	696884	ORIENT_START	n/a	n/a	-999	-999	n/a	n/a	n/a	n/a	5	[0, 0, 0]	-999	PAL1	6	R1365N
695.712	0.547	697155	ORIENT_END	n/a	n/a	-999	-999	n/a	n/a	n/a	n/a	5	[0, 0, 0]	-999	PAL1	6	R1365N
696.259	0.139	697702	REC_EVENT	5857.0	n/a	6	2	CLIFF	<>	CLIFF	DOCK	5	[0, 0, 0]	-999	PAL1	6	R1365N
696.398	4.0	697841	PROBE_START	n/a	wordpools/wordpool_EN.txt	3	3	EAR	HAND	HAND	EAR	5	[0, 0, 0]	-999	PAL1	6	R1365N
696.398	2.095	697841	REC_START	n/a	n/a	3	3	EAR	HAND	HAND	EAR	5	[0, 0, 0]	-999	PAL1	6	R1365N
698.493	1.936	699936	REC_EVENT	2095.0	n/a	3	3	EAR	HAND	HAND	EAR	5	[0, 0, 0]	-999	PAL1	6	R1365N
700.429	1.0	701872	PROBE_END	n/a	n/a	3	3	EAR	n/a	HAND	EAR	5	[0, 0, 0]	-999	PAL1	6	R1365N
701.429	0.011	702872	REC_END	n/a	n/a	3	3	EAR	n/a	HAND	EAR	5	[0, 0, 0]	-999	PAL1	6	R1365N
701.44	0.273	702883	ORIENT_START	n/a	n/a	-999	-999	n/a	n/a	n/a	n/a	5	[0, 0, 0]	-999	PAL1	6	R1365N
701.713	0.613	703156	ORIENT_END	n/a	n/a	-999	-999	n/a	n/a	n/a	n/a	5	[0, 0, 0]	-999	PAL1	6	R1365N
702.326	0.001	703769	REC_START	n/a	n/a	4	4	FLUTE	TEA	TEA	FLUTE	5	[0, 0, 0]	-999	PAL1	6	R1365N
702.327	4.0	703770	PROBE_START	n/a	wordpools/wordpool_EN.txt	4	4	FLUTE	TEA	TEA	FLUTE	5	[0, 0, 0]	-999	PAL1	6	R1365N
704.39	1.973	705833	REC_EVENT	2063.0	n/a	4	4	FLUTE	TEA	TEA	FLUTE	5	[0, 0, 0]	-999	PAL1	6	R1365N
706.363	1.001	707806	PROBE_END	n/a	n/a	4	4	FLUTE	n/a	TEA	FLUTE	5	[0, 0, 0]	-999	PAL1	6	R1365N
707.364	0.013	708807	REC_END	n/a	n/a	4	4	FLUTE	n/a	TEA	FLUTE	5	[0, 0, 0]	-999	PAL1	6	R1365N
707.377	0.27	708820	ORIENT_START	n/a	n/a	-999	-999	n/a	n/a	n/a	n/a	5	[0, 0, 0]	-999	PAL1	6	R1365N
707.647	0.645	709090	ORIENT_END	n/a	n/a	-999	-999	n/a	n/a	n/a	n/a	5	[0, 0, 0]	-999	PAL1	6	R1365N
708.292	0.0	709735	REC_START	n/a	n/a	1	5	BOOK	BOWL	BOWL	BOOK	5	[0, 0, 0]	-999	PAL1	6	R1365N
708.292	4.0	709735	PROBE_START	n/a	wordpools/wordpool_EN.txt	1	5	BOOK	BOWL	BOWL	BOOK	5	[0, 0, 0]	-999	PAL1	6	R1365N
710.284	2.047	711726	REC_EVENT	1992.0	n/a	1	5	BOOK	BOWL	BOWL	BOOK	5	[0, 0, 0]	-999	PAL1	6	R1365N
712.331	0.999	713773	PROBE_END	n/a	n/a	1	5	BOOK	n/a	BOWL	BOOK	5	[0, 0, 0]	-999	PAL1	6	R1365N
713.33	0.013	714772	REC_END	n/a	n/a	1	5	BOOK	n/a	BOWL	BOOK	5	[0, 0, 0]	-999	PAL1	6	R1365N
713.343	0.272	714785	ORIENT_START	n/a	n/a	-999	-999	n/a	n/a	n/a	n/a	5	[0, 0, 0]	-999	PAL1	6	R1365N
713.615	0.644	715057	ORIENT_END	n/a	n/a	-999	-999	n/a	n/a	n/a	n/a	5	[0, 0, 0]	-999	PAL1	6	R1365N
714.259	0.0	715701	REC_START	n/a	n/a	2	6	CROW	LEG	CROW	LEG	5	[0, 0, 0]	-999	PAL1	6	R1365N
714.259	4.0	715701	PROBE_START	n/a	wordpools/wordpool_EN.txt	2	6	CROW	LEG	CROW	LEG	5	[0, 0, 0]	-999	PAL1	6	R1365N
716.483	1.815	717925	REC_EVENT	2224.0	n/a	2	6	CROW	LEG	CROW	LEG	5	[0, 0, 0]	-999	PAL1	6	R1365N
718.298	1.0	719740	PROBE_END	n/a	n/a	2	6	CROW	n/a	CROW	LEG	5	[0, 0, 0]	-999	PAL1	6	R1365N
719.298	0.013	720740	REC_END	n/a	n/a	2	6	CROW	n/a	CROW	LEG	5	[0, 0, 0]	-999	PAL1	6	R1365N
719.311	0.0	720753	TRIAL_END	n/a	n/a	-999	-999	n/a	n/a	n/a	n/a	5	[0, 0, 0]	-999	PAL1	6	R1365N
719.311	0.022	720753	RETRIEVAL_END	n/a	n/a	-999	-999	n/a	n/a	n/a	n/a	5	[0, 0, 0]	-999	PAL1	6	R1365N
719.333	0.0	720775	WAITING_START	n/a	n/a	-999	-999	n/a	n/a	n/a	n/a	6	[0, 0, 0]	-999	PAL1	6	R1365N
719.333	0.0	720775	TRIAL_START	n/a	n/a	-999	-999	n/a	n/a	n/a	n/a	5	[0, 0, 0]	-999	PAL1	6	R1365N
719.333	4.8	720775	TRIAL	n/a	n/a	-999	-999	n/a	n/a	n/a	n/a	6	[0, 0, 0]	-999	PAL1	6	R1365N
724.133	0.0	725575	WAITING_END	n/a	n/a	-999	-999	n/a	n/a	n/a	n/a	6	[0, 0, 0]	-999	PAL1	6	R1365N
724.133	10.0	725575	COUNTDOWN_START	n/a	n/a	-999	-999	n/a	n/a	n/a	n/a	6	[0, 0, 0]	-999	PAL1	6	R1365N
734.561	0.001	736003	COUNTDOWN_END	n/a	n/a	-999	-999	n/a	n/a	n/a	n/a	6	[0, 0, 0]	-999	PAL1	6	R1365N
734.562	0.673	736004	ORIENT_START	n/a	n/a	-999	-999	n/a	n/a	n/a	n/a	6	[0, 0, 0]	-999	PAL1	6	R1365N
735.235	0.0	736677	ORIENT_END	n/a	n/a	-999	-999	n/a	n/a	n/a	n/a	6	[0, 0, 0]	-999	PAL1	6	R1365N
735.235	1.136	736677	ENCODING_START	n/a	n/a	-999	-999	n/a	n/a	n/a	n/a	6	[0, 0, 0]	-999	PAL1	6	R1365N
736.371	4.0	737813	STUDY_PAIR	n/a	wordpools/wordpool_EN.txt	1	3	n/a	TOE	TOE	TRASH	6	[0, 0, 0]	-999	PAL1	6	R1365N
740.402	0.588	741844	STUDY_PAIR_OFF	n/a	n/a	1	3	n/a	TOE	TOE	TRASH	6	[0, 0, 0]	-999	PAL1	6	R1365N
740.99	4.0	742432	STUDY_PAIR	n/a	wordpools/wordpool_EN.txt	2	4	n/a	POLE	POLE	NOSE	6	[0, 0, 0]	-999	PAL1	6	R1365N
745.02	0.517	746462	STUDY_PAIR_OFF	n/a	n/a	2	4	n/a	POLE	POLE	NOSE	6	[0, 0, 0]	-999	PAL1	6	R1365N
745.537	4.0	746979	STUDY_PAIR	n/a	wordpools/wordpool_EN.txt	3	1	n/a	WEAVE	WAVE	STEAK	6	[0, 0, 0]	-999	PAL1	6	R1365N
749.57	0.535	751011	STUDY_PAIR_OFF	n/a	n/a	3	1	n/a	WEAVE	WAVE	STEAK	6	[0, 0, 0]	-999	PAL1	6	R1365N
750.105	4.0	751546	STUDY_PAIR	n/a	wordpools/wordpool_EN.txt	4	2	n/a	INK	STAR	INK	6	[0, 0, 0]	-999	PAL1	6	R1365N
754.138	0.735	755579	STUDY_PAIR_OFF	n/a	n/a	4	2	n/a	INK	STAR	INK	6	[0, 0, 0]	-999	PAL1	6	R1365N
754.873	4.0	756314	STUDY_PAIR	n/a	wordpools/wordpool_EN.txt	5	5	n/a	SLUSH	COUCH	SLUSH	6	[0, 0, 0]	-999	PAL1	6	R1365N
758.906	0.708	760347	STUDY_PAIR_OFF	n/a	n/a	5	5	n/a	SLUSH	COUCH	SLUSH	6	[0, 0, 0]	-999	PAL1	6	R1365N
759.614	4.0	761055	STUDY_PAIR	n/a	wordpools/wordpool_EN.txt	6	6	n/a	OAR	CHALK	OAR	6	[0, 0, 0]	-999	PAL1	6	R1365N
763.64	0.001	765081	STUDY_PAIR_OFF	n/a	n/a	6	6	n/a	OAR	CHALK	OAR	6	[0, 0, 0]	-999	PAL1	6	R1365N
763.641	0.0	765082	ENCODING_END	n/a	n/a	-999	-999	n/a	n/a	n/a	n/a	6	[0, 0, 0]	-999	PAL1	6	R1365N
763.641	0.0	765082	MATH_START	n/a	n/a	-999	-999	n/a	n/a	n/a	n/a	6	[0, 0, 0]	-999	PAL1	6	R1365N
763.641	0.016	765082	START	n/a	n/a	-999	-999	n/a	n/a	n/a	n/a	6	[-999, -999, -999]	-999	PAL1	6	R1365N
763.657	3.417	765098	PROB	3392.0	n/a	-999	-999	n/a	n/a	n/a	n/a	6	[2, 2, 1]	5	PAL1	6	R1365N
767.074	4.801	768515	PROB	4776.0	n/a	-999	-999	n/a	n/a	n/a	n/a	6	[5, 9, 9]	23	PAL1	6	R1365N
771.875	6.533	773316	PROB	6502.0	n/a	-999	-999	n/a	n/a	n/a	n/a	6	[5, 2, 3]	10	PAL1	6	R1365N
778.408	5.928	779849	PROB	5928.0	n/a	-999	-999	n/a	n/a	n/a	n/a	6	[1, 9, 7]	17	PAL1	6	R1365N
784.336	0.023	785777	STOP	n/a	n/a	-999	-999	n/a	n/a	n/a	n/a	6	[-999, -999, -999]	-999	PAL1	6	R1365N
784.359	0.638	785800	MATH_END	n/a	n/a	-999	-999	n/a	n/a	n/a	n/a	6	[0, 0, 0]	-999	PAL1	6	R1365N
784.997	0.001	786438	RETRIEVAL_START	n/a	n/a	-999	-999	n/a	n/a	n/a	n/a	6	[0, 0, 0]	-999	PAL1	6	R1365N
784.998	0.278	786439	ORIENT_START	n/a	n/a	-999	-999	n/a	n/a	n/a	n/a	6	[0, 0, 0]	-999	PAL1	6	R1365N
785.276	0.579	786717	ORIENT_END	n/a	n/a	-999	-999	n/a	n/a	n/a	n/a	6	[0, 0, 0]	-999	PAL1	6	R1365N
785.855	4.0	787296	PROBE_START	n/a	wordpools/wordpool_EN.txt	3	1	STEAK	WEAVE	WAVE	STEAK	6	[0, 0, 0]	-999	PAL1	6	R1365N
785.855	1.84	787296	REC_START	n/a	n/a	3	1	STEAK	WEAVE	WAVE	STEAK	6	[0, 0, 0]	-999	PAL1	6	R1365N
787.695	0.715	789136	REC_EVENT	1840.0	n/a	3	1	STEAK	<>	WAVE	STEAK	6	[0, 0, 0]	-999	PAL1	6	R1365N
788.41	1.468	789850	REC_EVENT	2555.0	n/a	3	1	STEAK	WEAVE	WAVE	STEAK	6	[0, 0, 0]	-999	PAL1	6	R1365N
789.878	1.0	791318	PROBE_END	n/a	n/a	3	1	STEAK	n/a	WAVE	STEAK	6	[0, 0, 0]	-999	PAL1	6	R1365N
790.878	0.011	792318	REC_END	n/a	n/a	3	1	STEAK	n/a	WAVE	STEAK	6	[0, 0, 0]	-999	PAL1	6	R1365N
790.889	0.271	792329	ORIENT_START	n/a	n/a	-999	-999	n/a	n/a	n/a	n/a	6	[0, 0, 0]	-999	PAL1	6	R1365N
791.16	0.656	792600	ORIENT_END	n/a	n/a	-999	-999	n/a	n/a	n/a	n/a	6	[0, 0, 0]	-999	PAL1	6	R1365N
791.816	0.001	793256	REC_START	n/a	n/a	4	2	STAR	INK	STAR	INK	6	[0, 0, 0]	-999	PAL1	6	R1365N
791.817	4.0	793257	PROBE_START	n/a	wordpools/wordpool_EN.txt	4	2	STAR	INK	STAR	INK	6	[0, 0, 0]	-999	PAL1	6	R1365N
794.048	1.798	795488	REC_EVENT	2231.0	n/a	4	2	STAR	INK	STAR	INK	6	[0, 0, 0]	-999	PAL1	6	R1365N
795.846	1.0	797286	PROBE_END	n/a	n/a	4	2	STAR	n/a	STAR	INK	6	[0, 0, 0]	-999	PAL1	6	R1365N
796.846	0.01	798286	REC_END	n/a	n/a	4	2	STAR	n/a	STAR	INK	6	[0, 0, 0]	-999	PAL1	6	R1365N
796.856	0.272	798296	ORIENT_START	n/a	n/a	-999	-999	n/a	n/a	n/a	n/a	6	[0, 0, 0]	-999	PAL1	6	R1365N
797.128	0.556	798568	ORIENT_END	n/a	n/a	-999	-999	n/a	n/a	n/a	n/a	6	[0, 0, 0]	-999	PAL1	6	R1365N
797.684	0.0	799124	REC_START	n/a	n/a	1	3	TRASH	TOE	TOE	TRASH	6	[0, 0, 0]	-999	PAL1	6	R1365N
797.684	4.0	799124	PROBE_START	n/a	wordpools/wordpool_EN.txt	1	3	TRASH	TOE	TOE	TRASH	6	[0, 0, 0]	-999	PAL1	6	R1365N
799.571	2.142	801011	REC_EVENT	1887.0	n/a	1	3	TRASH	TOE	TOE	TRASH	6	[0, 0, 0]	-999	PAL1	6	R1365N
801.713	1.0	803153	PROBE_END	n/a	n/a	1	3	TRASH	n/a	TOE	TRASH	6	[0, 0, 0]	-999	PAL1	6	R1365N
802.713	0.012	804153	REC_END	n/a	n/a	1	3	TRASH	n/a	TOE	TRASH	6	[0, 0, 0]	-999	PAL1	6	R1365N
802.725	0.272	804165	ORIENT_START	n/a	n/a	-999	-999	n/a	n/a	n/a	n/a	6	[0, 0, 0]	-999	PAL1	6	R1365N
802.997	0.674	804437	ORIENT_END	n/a	n/a	-999	-999	n/a	n/a	n/a	n/a	6	[0, 0, 0]	-999	PAL1	6	R1365N
803.671	0.0	805111	REC_START	n/a	n/a	2	4	NOSE	POLE	POLE	NOSE	6	[0, 0, 0]	-999	PAL1	6	R1365N
803.671	4.0	805111	PROBE_START	n/a	wordpools/wordpool_EN.txt	2	4	NOSE	POLE	POLE	NOSE	6	[0, 0, 0]	-999	PAL1	6	R1365N
805.747	1.95	807187	REC_EVENT	2076.0	n/a	2	4	NOSE	POLE	POLE	NOSE	6	[0, 0, 0]	-999	PAL1	6	R1365N
807.697	1.0	809137	PROBE_END	n/a	n/a	2	4	NOSE	n/a	POLE	NOSE	6	[0, 0, 0]	-999	PAL1	6	R1365N
808.697	0.011	810137	REC_END	n/a	n/a	2	4	NOSE	n/a	POLE	NOSE	6	[0, 0, 0]	-999	PAL1	6	R1365N
808.708	0.273	810148	ORIENT_START	n/a	n/a	-999	-999	n/a	n/a	n/a	n/a	6	[0, 0, 0]	-999	PAL1	6	R1365N
808.981	0.508	810421	ORIENT_END	n/a	n/a	-999	-999	n/a	n/a	n/a	n/a	6	[0, 0, 0]	-999	PAL1	6	R1365N
809.489	0.001	810929	REC_START	n/a	n/a	5	5	COUCH	SLUSH	COUCH	SLUSH	6	[0, 0, 0]	-999	PAL1	6	R1365N
809.49	4.0	810930	PROBE_START	n/a	wordpools/wordpool_EN.txt	5	5	COUCH	SLUSH	COUCH	SLUSH	6	[0, 0, 0]	-999	PAL1	6	R1365N
811.647	1.867	813087	REC_EVENT	2157.0	n/a	5	5	COUCH	SLUSH	COUCH	SLUSH	6	[0, 0, 0]	-999	PAL1	6	R1365N
813.514	1.0	814954	PROBE_END	n/a	n/a	5	5	COUCH	n/a	COUCH	SLUSH	6	[0, 0, 0]	-999	PAL1	6	R1365N
814.514	0.011	815954	REC_END	n/a	n/a	5	5	COUCH	n/a	COUCH	SLUSH	6	[0, 0, 0]	-999	PAL1	6	R1365N
814.525	0.274	815965	ORIENT_START	n/a	n/a	-999	-999	n/a	n/a	n/a	n/a	6	[0, 0, 0]	-999	PAL1	6	R1365N
814.799	0.581	816239	ORIENT_END	n/a	n/a	-999	-999	n/a	n/a	n/a	n/a	6	[0, 0, 0]	-999	PAL1	6	R1365N
815.38	0.0	816820	REC_START	n/a	n/a	6	6	CHALK	OAR	CHALK	OAR	6	[0, 0, 0]	-999	PAL1	6	R1365N
815.38	4.0	816820	PROBE_START	n/a	wordpools/wordpool_EN.txt	6	6	CHALK	OAR	CHALK	OAR	6	[0, 0, 0]	-999	PAL1	6	R1365N
817.359	2.056	818799	REC_EVENT	1979.0	n/a	6	6	CHALK	OAR	CHALK	OAR	6	[0, 0, 0]	-999	PAL1	6	R1365N
819.415	1.001	820855	PROBE_END	n/a	n/a	6	6	CHALK	n/a	CHALK	OAR	6	[0, 0, 0]	-999	PAL1	6	R1365N
820.416	0.01	821856	REC_END	n/a	n/a	6	6	CHALK	n/a	CHALK	OAR	6	[0, 0, 0]	-999	PAL1	6	R1365N
820.426	0.001	821866	RETRIEVAL_END	n/a	n/a	-999	-999	n/a	n/a	n/a	n/a	6	[0, 0, 0]	-999	PAL1	6	R1365N
820.427	0.021	821867	TRIAL_END	n/a	n/a	-999	-999	n/a	n/a	n/a	n/a	6	[0, 0, 0]	-999	PAL1	6	R1365N
820.448	0.0	821888	TRIAL_START	n/a	n/a	-999	-999	n/a	n/a	n/a	n/a	6	[0, 0, 0]	-999	PAL1	6	R1365N
820.448	0.0	821888	TRIAL	n/a	n/a	-999	-999	n/a	n/a	n/a	n/a	7	[0, 0, 0]	-999	PAL1	6	R1365N
820.448	1.968	821888	WAITING_START	n/a	n/a	-999	-999	n/a	n/a	n/a	n/a	7	[0, 0, 0]	-999	PAL1	6	R1365N
822.416	0.0	823856	WAITING_END	n/a	n/a	-999	-999	n/a	n/a	n/a	n/a	7	[0, 0, 0]	-999	PAL1	6	R1365N
822.416	10.0	823856	COUNTDOWN_START	n/a	n/a	-999	-999	n/a	n/a	n/a	n/a	7	[0, 0, 0]	-999	PAL1	6	R1365N
832.845	0.0	834284	COUNTDOWN_END	n/a	n/a	-999	-999	n/a	n/a	n/a	n/a	7	[0, 0, 0]	-999	PAL1	6	R1365N
832.845	0.639	834284	ORIENT_START	n/a	n/a	-999	-999	n/a	n/a	n/a	n/a	7	[0, 0, 0]	-999	PAL1	6	R1365N
833.484	0.0	834923	ORIENT_END	n/a	n/a	-999	-999	n/a	n/a	n/a	n/a	7	[0, 0, 0]	-999	PAL1	6	R1365N
833.484	1.026	834923	ENCODING_START	n/a	n/a	-999	-999	n/a	n/a	n/a	n/a	7	[0, 0, 0]	-999	PAL1	6	R1365N
834.51	4.0	835949	STUDY_PAIR	n/a	wordpools/wordpool_EN.txt	1	1	n/a	LAWN	POND	LAWN	7	[0, 0, 0]	-999	PAL1	6	R1365N
838.552	0.663	839991	STUDY_PAIR_OFF	n/a	n/a	1	1	n/a	LAWN	POND	LAWN	7	[0, 0, 0]	-999	PAL1	6	R1365N
839.215	4.0	840654	STUDY_PAIR	n/a	wordpools/wordpool_EN.txt	2	6	n/a	SQUARE	SQUARE	SNAKE	7	[0, 0, 0]	-999	PAL1	6	R1365N
843.252	0.659	844691	STUDY_PAIR_OFF	n/a	n/a	2	6	n/a	SQUARE	SQUARE	SNAKE	7	[0, 0, 0]	-999	PAL1	6	R1365N
843.911	4.0	845350	STUDY_PAIR	n/a	wordpools/wordpool_EN.txt	3	5	n/a	THUMB	THUMB	DART	7	[0, 0, 0]	-999	PAL1	6	R1365N
847.938	0.713	849377	STUDY_PAIR_OFF	n/a	n/a	3	5	n/a	THUMB	THUMB	DART	7	[0, 0, 0]	-999	PAL1	6	R1365N
848.651	4.0	850090	STUDY_PAIR	n/a	wordpools/wordpool_EN.txt	4	4	n/a	PIN	PIN	BRIDGE	7	[0, 0, 0]	-999	PAL1	6	R1365N
852.688	0.655	854127	STUDY_PAIR_OFF	n/a	n/a	4	4	n/a	PIN	PIN	BRIDGE	7	[0, 0, 0]	-999	PAL1	6	R1365N
853.343	4.0	854782	STUDY_PAIR	n/a	wordpools/wordpool_EN.txt	5	3	n/a	FOX	SPRING	FOX	7	[0, 0, 0]	-999	PAL1	6	R1365N
857.371	0.731	858810	STUDY_PAIR_OFF	n/a	n/a	5	3	n/a	FOX	SPRING	FOX	7	[0, 0, 0]	-999	PAL1	6	R1365N
858.102	4.0	859541	STUDY_PAIR	n/a	wordpools/wordpool_EN.txt	6	2	n/a	CROWN	GEESE	CROWN	7	[0, 0, 0]	-999	PAL1	6	R1365N
862.139	0.001	863578	STUDY_PAIR_OFF	n/a	n/a	6	2	n/a	CROWN	GEESE	CROWN	7	[0, 0, 0]	-999	PAL1	6	R1365N
862.14	0.0	863579	MATH_START	n/a	n/a	-999	-999	n/a	n/a	n/a	n/a	7	[0, 0, 0]	-999	PAL1	6	R1365N
862.14	0.0	863579	ENCODING_END	n/a	n/a	-999	-999	n/a	n/a	n/a	n/a	7	[0, 0, 0]	-999	PAL1	6	R1365N
862.14	0.015	863579	START	n/a	n/a	-999	-999	n/a	n/a	n/a	n/a	7	[-999, -999, -999]	-999	PAL1	6	R1365N
862.155	6.201	863594	PROB	6166.0	n/a	-999	-999	n/a	n/a	n/a	n/a	7	[7, 7, 2]	16	PAL1	6	R1365N
868.356	4.335	869794	PROB	4301.0	n/a	-999	-999	n/a	n/a	n/a	n/a	7	[9, 1, 1]	11	PAL1	6	R1365N
872.691	4.4	874129	PROB	4366.0	n/a	-999	-999	n/a	n/a	n/a	n/a	7	[6, 3, 4]	13	PAL1	6	R1365N
877.091	3.417	878529	PROB	3382.0	n/a	-999	-999	n/a	n/a	n/a	n/a	7	[3, 4, 1]	8	PAL1	6	R1365N
880.508	5.141	881946	PROB	5141.0	n/a	-999	-999	n/a	n/a	n/a	n/a	7	[9, 2, 8]	21	PAL1	6	R1365N
885.649	0.011	887087	STOP	n/a	n/a	-999	-999	n/a	n/a	n/a	n/a	7	[-999, -999, -999]	-999	PAL1	6	R1365N
885.66	0.572	887098	MATH_END	n/a	n/a	-999	-999	n/a	n/a	n/a	n/a	7	[0, 0, 0]	-999	PAL1	6	R1365N
886.232	0.002	887670	RETRIEVAL_START	n/a	n/a	-999	-999	n/a	n/a	n/a	n/a	7	[0, 0, 0]	-999	PAL1	6	R1365N
886.234	0.276	887672	ORIENT_START	n/a	n/a	-999	-999	n/a	n/a	n/a	n/a	7	[0, 0, 0]	-999	PAL1	6	R1365N
886.51	0.737	887948	ORIENT_END	n/a	n/a	-999	-999	n/a	n/a	n/a	n/a	7	[0, 0, 0]	-999	PAL1	6	R1365N
887.247	0.0	888685	REC_START	n/a	n/a	1	1	POND	LAWN	POND	LAWN	7	[0, 0, 0]	-999	PAL1	6	R1365N
887.247	4.0	888685	PROBE_START	n/a	wordpools/wordpool_EN.txt	1	1	POND	LAWN	POND	LAWN	7	[0, 0, 0]	-999	PAL1	6	R1365N
890.195	1.082	891633	REC_EVENT	2948.0	n/a	1	1	POND	LAWN	POND	LAWN	7	[0, 0, 0]	-999	PAL1	6	R1365N
891.277	1.001	892715	PROBE_END	n/a	n/a	1	1	POND	n/a	POND	LAWN	7	[0, 0, 0]	-999	PAL1	6	R1365N
892.278	0.007	893716	REC_END	n/a	n/a	1	1	POND	n/a	POND	LAWN	7	[0, 0, 0]	-999	PAL1	6	R1365N
892.285	0.276	893723	ORIENT_START	n/a	n/a	-999	-999	n/a	n/a	n/a	n/a	7	[0, 0, 0]	-999	PAL1	6	R1365N
892.561	0.633	893999	ORIENT_END	n/a	n/a	-999	-999	n/a	n/a	n/a	n/a	7	[0, 0, 0]	-999	PAL1	6	R1365N
893.194	0.0	894632	REC_START	n/a	n/a	6	2	GEESE	CROWN	GEESE	CROWN	7	[0, 0, 0]	-999	PAL1	6	R1365N
893.194	4.0	894632	PROBE_START	n/a	wordpools/wordpool_EN.txt	6	2	GEESE	CROWN	GEESE	CROWN	7	[0, 0, 0]	-999	PAL1	6	R1365N
895.073	2.155	896511	REC_EVENT	1879.0	n/a	6	2	GEESE	CROWN	GEESE	CROWN	7	[0, 0, 0]	-999	PAL1	6	R1365N
897.228	1.001	898666	PROBE_END	n/a	n/a	6	2	GEESE	n/a	GEESE	CROWN	7	[0, 0, 0]	-999	PAL1	6	R1365N
898.229	0.012	899667	REC_END	n/a	n/a	6	2	GEESE	n/a	GEESE	CROWN	7	[0, 0, 0]	-999	PAL1	6	R1365N
898.241	0.271	899679	ORIENT_START	n/a	n/a	-999	-999	n/a	n/a	n/a	n/a	7	[0, 0, 0]	-999	PAL1	6	R1365N
898.512	0.741	899950	ORIENT_END	n/a	n/a	-999	-999	n/a	n/a	n/a	n/a	7	[0, 0, 0]	-999	PAL1	6	R1365N
899.253	0.001	900691	REC_START	n/a	n/a	5	3	SPRING	FOX	SPRING	FOX	7	[0, 0, 0]	-999	PAL1	6	R1365N
899.254	4.0	900692	PROBE_START	n/a	wordpools/wordpool_EN.txt	5	3	SPRING	FOX	SPRING	FOX	7	[0, 0, 0]	-999	PAL1	6	R1365N
901.271	2.008	902709	REC_EVENT	2017.0	n/a	5	3	SPRING	FOX	SPRING	FOX	7	[0, 0, 0]	-999	PAL1	6	R1365N
903.279	1.0	904717	PROBE_END	n/a	n/a	5	3	SPRING	n/a	SPRING	FOX	7	[0, 0, 0]	-999	PAL1	6	R1365N
904.279	0.007	905717	REC_END	n/a	n/a	5	3	SPRING	n/a	SPRING	FOX	7	[0, 0, 0]	-999	PAL1	6	R1365N
904.286	0.277	905724	ORIENT_START	n/a	n/a	-999	-999	n/a	n/a	n/a	n/a	7	[0, 0, 0]	-999	PAL1	6	R1365N
904.563	0.618	906001	ORIENT_END	n/a	n/a	-999	-999	n/a	n/a	n/a	n/a	7	[0, 0, 0]	-999	PAL1	6	R1365N
905.181	4.0	906619	PROBE_START	n/a	wordpools/wordpool_EN.txt	4	4	BRIDGE	PIN	PIN	BRIDGE	7	[0, 0, 0]	-999	PAL1	6	R1365N
905.181	2.01	906619	REC_START	n/a	n/a	4	4	BRIDGE	PIN	PIN	BRIDGE	7	[0, 0, 0]	-999	PAL1	6	R1365N
907.191	2.022	908628	REC_EVENT	2010.0	n/a	4	4	BRIDGE	PIN	PIN	BRIDGE	7	[0, 0, 0]	-999	PAL1	6	R1365N
909.213	1.001	910650	PROBE_END	n/a	n/a	4	4	BRIDGE	n/a	PIN	BRIDGE	7	[0, 0, 0]	-999	PAL1	6	R1365N
910.214	0.013	911651	REC_END	n/a	n/a	4	4	BRIDGE	n/a	PIN	BRIDGE	7	[0, 0, 0]	-999	PAL1	6	R1365N
910.227	0.27	911664	ORIENT_START	n/a	n/a	-999	-999	n/a	n/a	n/a	n/a	7	[0, 0, 0]	-999	PAL1	6	R1365N
910.497	0.72	911934	ORIENT_END	n/a	n/a	-999	-999	n/a	n/a	n/a	n/a	7	[0, 0, 0]	-999	PAL1	6	R1365N
911.217	0.0	912654	REC_START	n/a	n/a	3	5	DART	THUMB	THUMB	DART	7	[0, 0, 0]	-999	PAL1	6	R1365N
911.217	4.0	912654	PROBE_START	n/a	wordpools/wordpool_EN.txt	3	5	DART	THUMB	THUMB	DART	7	[0, 0, 0]	-999	PAL1	6	R1365N
913.465	1.783	914902	REC_EVENT	2248.0	n/a	3	5	DART	THUMB	THUMB	DART	7	[0, 0, 0]	-999	PAL1	6	R1365N
915.248	0.999	916685	PROBE_END	n/a	n/a	3	5	DART	n/a	THUMB	DART	7	[0, 0, 0]	-999	PAL1	6	R1365N
916.247	0.012	917684	REC_END	n/a	n/a	3	5	DART	n/a	THUMB	DART	7	[0, 0, 0]	-999	PAL1	6	R1365N
916.259	0.272	917696	ORIENT_START	n/a	n/a	-999	-999	n/a	n/a	n/a	n/a	7	[0, 0, 0]	-999	PAL1	6	R1365N
916.531	0.645	917968	ORIENT_END	n/a	n/a	-999	-999	n/a	n/a	n/a	n/a	7	[0, 0, 0]	-999	PAL1	6	R1365N
917.176	4.0	918613	PROBE_START	n/a	wordpools/wordpool_EN.txt	2	6	SNAKE	SQUARE	SQUARE	SNAKE	7	[0, 0, 0]	-999	PAL1	6	R1365N
917.176	1.943	918613	REC_START	n/a	n/a	2	6	SNAKE	SQUARE	SQUARE	SNAKE	7	[0, 0, 0]	-999	PAL1	6	R1365N
919.119	2.08	920556	REC_EVENT	1943.0	n/a	2	6	SNAKE	SQUARE	SQUARE	SNAKE	7	[0, 0, 0]	-999	PAL1	6	R1365N
921.199	1.0	922636	PROBE_END	n/a	n/a	2	6	SNAKE	n/a	SQUARE	SNAKE	7	[0, 0, 0]	-999	PAL1	6	R1365N
922.199	0.012	923636	REC_END	n/a	n/a	2	6	SNAKE	n/a	SQUARE	SNAKE	7	[0, 0, 0]	-999	PAL1	6	R1365N
922.211	0.0	923648	RETRIEVAL_END	n/a	n/a	-999	-999	n/a	n/a	n/a	n/a	7	[0, 0, 0]	-999	PAL1	6	R1365N
922.211	0.025	923648	TRIAL_END	n/a	n/a	-999	-999	n/a	n/a	n/a	n/a	7	[0, 0, 0]	-999	PAL1	6	R1365N
922.236	0.0	923673	TRIAL_START	n/a	n/a	-999	-999	n/a	n/a	n/a	n/a	7	[0, 0, 0]	-999	PAL1	6	R1365N
922.236	0.0	923673	TRIAL	n/a	n/a	-999	-999	n/a	n/a	n/a	n/a	8	[0, 0, 0]	-999	PAL1	6	R1365N
922.236	2.28	923673	WAITING_START	n/a	n/a	-999	-999	n/a	n/a	n/a	n/a	8	[0, 0, 0]	-999	PAL1	6	R1365N
924.516	0.0	925953	WAITING_END	n/a	n/a	-999	-999	n/a	n/a	n/a	n/a	8	[0, 0, 0]	-999	PAL1	6	R1365N
924.516	10.0	925953	COUNTDOWN_START	n/a	n/a	-999	-999	n/a	n/a	n/a	n/a	8	[0, 0, 0]	-999	PAL1	6	R1365N
934.945	0.0	936382	COUNTDOWN_END	n/a	n/a	-999	-999	n/a	n/a	n/a	n/a	8	[0, 0, 0]	-999	PAL1	6	R1365N
934.945	0.774	936382	ORIENT_START	n/a	n/a	-999	-999	n/a	n/a	n/a	n/a	8	[0, 0, 0]	-999	PAL1	6	R1365N
935.719	0.0	937156	ENCODING_START	n/a	n/a	-999	-999	n/a	n/a	n/a	n/a	8	[0, 0, 0]	-999	PAL1	6	R1365N
935.719	1.003	937156	ORIENT_END	n/a	n/a	-999	-999	n/a	n/a	n/a	n/a	8	[0, 0, 0]	-999	PAL1	6	R1365N
936.722	4.0	938159	STUDY_PAIR	n/a	wordpools/wordpool_EN.txt	1	5	n/a	BOX	ICE	BOX	8	[0, 0, 0]	-999	PAL1	6	R1365N
940.753	0.624	942190	STUDY_PAIR_OFF	n/a	n/a	1	5	n/a	BOX	ICE	BOX	8	[0, 0, 0]	-999	PAL1	6	R1365N
941.377	4.0	942814	STUDY_PAIR	n/a	wordpools/wordpool_EN.txt	2	2	n/a	MAP	MAP	BREAD	8	[0, 0, 0]	-999	PAL1	6	R1365N
945.403	0.563	946839	STUDY_PAIR_OFF	n/a	n/a	2	2	n/a	MAP	MAP	BREAD	8	[0, 0, 0]	-999	PAL1	6	R1365N
945.966	4.0	947402	STUDY_PAIR	n/a	wordpools/wordpool_EN.txt	3	3	n/a	SHEEP	SHEEP	FLEA	8	[0, 0, 0]	-999	PAL1	6	R1365N
950.004	0.54	951440	STUDY_PAIR_OFF	n/a	n/a	3	3	n/a	SHEEP	SHEEP	FLEA	8	[0, 0, 0]	-999	PAL1	6	R1365N
950.544	4.0	951980	STUDY_PAIR	n/a	wordpools/wordpool_EN.txt	4	4	n/a	CAVE	DOLL	CAVE	8	[0, 0, 0]	-999	PAL1	6	R1365N
954.571	0.634	956007	STUDY_PAIR_OFF	n/a	n/a	4	4	n/a	CAVE	DOLL	CAVE	8	[0, 0, 0]	-999	PAL1	6	R1365N
955.205	4.0	956641	STUDY_PAIR	n/a	wordpools/wordpool_EN.txt	5	1	n/a	BEACH	BEACH	JUDGE	8	[0, 0, 0]	-999	PAL1	6	R1365N
959.238	0.701	960674	STUDY_PAIR_OFF	n/a	n/a	5	1	n/a	BEACH	BEACH	JUDGE	8	[0, 0, 0]	-999	PAL1	6	R1365N
959.939	4.0	961375	STUDY_PAIR	n/a	wordpools/wordpool_EN.txt	6	6	n/a	SEED	CAKE	SEED	8	[0, 0, 0]	-999	PAL1	6	R1365N
963.973	0.001	965409	STUDY_PAIR_OFF	n/a	n/a	6	6	n/a	SEED	CAKE	SEED	8	[0, 0, 0]	-999	PAL1	6	R1365N
963.974	0.0	965410	ENCODING_END	n/a	n/a	-999	-999	n/a	n/a	n/a	n/a	8	[0, 0, 0]	-999	PAL1	6	R1365N
963.974	0.0	965410	MATH_START	n/a	n/a	-999	-999	n/a	n/a	n/a	n/a	8	[0, 0, 0]	-999	PAL1	6	R1365N
963.974	0.016	965410	START	n/a	n/a	-999	-999	n/a	n/a	n/a	n/a	8	[-999, -999, -999]	-999	PAL1	6	R1365N
963.99	3.984	965426	PROB	3955.0	n/a	-999	-999	n/a	n/a	n/a	n/a	8	[3, 6, 1]	10	PAL1	6	R1365N
967.974	2.1	969410	PROB	2075.0	n/a	-999	-999	n/a	n/a	n/a	n/a	8	[9, 1, 1]	11	PAL1	6	R1365N
970.074	4.3	971510	PROB	4271.0	n/a	-999	-999	n/a	n/a	n/a	n/a	8	[4, 9, 5]	18	PAL1	6	R1365N
974.374	4.485	975810	PROB	4460.0	n/a	-999	-999	n/a	n/a	n/a	n/a	8	[4, 4, 1]	9	PAL1	6	R1365N
978.859	3.616	980295	PROB	3581.0	n/a	-999	-999	n/a	n/a	n/a	n/a	8	[8, 3, 4]	15	PAL1	6	R1365N
982.475	5.391	983911	PROB	5391.0	n/a	-999	-999	n/a	n/a	n/a	n/a	8	[7, 1, 9]	17	PAL1	6	R1365N
987.866	0.011	989301	STOP	n/a	n/a	-999	-999	n/a	n/a	n/a	n/a	8	[-999, -999, -999]	-999	PAL1	6	R1365N
987.877	0.576	989312	MATH_END	n/a	n/a	-999	-999	n/a	n/a	n/a	n/a	8	[0, 0, 0]	-999	PAL1	6	R1365N
988.453	0.001	989888	RETRIEVAL_START	n/a	n/a	-999	-999	n/a	n/a	n/a	n/a	8	[0, 0, 0]	-999	PAL1	6	R1365N
988.454	0.274	989889	ORIENT_START	n/a	n/a	-999	-999	n/a	n/a	n/a	n/a	8	[0, 0, 0]	-999	PAL1	6	R1365N
988.728	0.632	990163	ORIENT_END	n/a	n/a	-999	-999	n/a	n/a	n/a	n/a	8	[0, 0, 0]	-999	PAL1	6	R1365N
989.36	0.001	990795	REC_START	n/a	n/a	5	1	JUDGE	BEACH	BEACH	JUDGE	8	[0, 0, 0]	-999	PAL1	6	R1365N
989.361	4.0	990796	PROBE_START	n/a	wordpools/wordpool_EN.txt	5	1	JUDGE	BEACH	BEACH	JUDGE	8	[0, 0, 0]	-999	PAL1	6	R1365N
991.481	1.913	992916	REC_EVENT	2120.0	n/a	5	1	JUDGE	BEACH	BEACH	JUDGE	8	[0, 0, 0]	-999	PAL1	6	R1365N
993.394	1.0	994829	PROBE_END	n/a	n/a	5	1	JUDGE	n/a	BEACH	JUDGE	8	[0, 0, 0]	-999	PAL1	6	R1365N
994.394	0.012	995829	REC_END	n/a	n/a	5	1	JUDGE	n/a	BEACH	JUDGE	8	[0, 0, 0]	-999	PAL1	6	R1365N
994.406	0.273	995841	ORIENT_START	n/a	n/a	-999	-999	n/a	n/a	n/a	n/a	8	[0, 0, 0]	-999	PAL1	6	R1365N
994.679	0.75	996114	ORIENT_END	n/a	n/a	-999	-999	n/a	n/a	n/a	n/a	8	[0, 0, 0]	-999	PAL1	6	R1365N
995.429	0.0	996864	REC_START	n/a	n/a	2	2	BREAD	MAP	MAP	BREAD	8	[0, 0, 0]	-999	PAL1	6	R1365N
995.429	4.0	996864	PROBE_START	n/a	wordpools/wordpool_EN.txt	2	2	BREAD	MAP	MAP	BREAD	8	[0, 0, 0]	-999	PAL1	6	R1365N
997.67	1.792	999105	REC_EVENT	2241.0	n/a	2	2	BREAD	MAP	MAP	BREAD	8	[0, 0, 0]	-999	PAL1	6	R1365N
999.462	1.0	1000897	PROBE_END	n/a	n/a	2	2	BREAD	n/a	MAP	BREAD	8	[0, 0, 0]	-999	PAL1	6	R1365N
1000.462	0.007	1001897	REC_END	n/a	n/a	2	2	BREAD	n/a	MAP	BREAD	8	[0, 0, 0]	-999	PAL1	6	R1365N
1000.469	0.277	1001904	ORIENT_START	n/a	n/a	-999	-999	n/a	n/a	n/a	n/a	8	[0, 0, 0]	-999	PAL1	6	R1365N
1000.746	0.556	1002181	ORIENT_END	n/a	n/a	-999	-999	n/a	n/a	n/a	n/a	8	[0, 0, 0]	-999	PAL1	6	R1365N
1001.302	0.001	1002737	REC_START	n/a	n/a	3	3	FLEA	SHEEP	SHEEP	FLEA	8	[0, 0, 0]	-999	PAL1	6	R1365N
1001.303	4.0	1002738	PROBE_START	n/a	wordpools/wordpool_EN.txt	3	3	FLEA	SHEEP	SHEEP	FLEA	8	[0, 0, 0]	-999	PAL1	6	R1365N
1003.384	1.945	1004819	REC_EVENT	2081.0	n/a	3	3	FLEA	SHEEP	SHEEP	FLEA	8	[0, 0, 0]	-999	PAL1	6	R1365N
1005.329	1.0	1006764	PROBE_END	n/a	n/a	3	3	FLEA	n/a	SHEEP	FLEA	8	[0, 0, 0]	-999	PAL1	6	R1365N
1006.329	0.012	1007764	REC_END	n/a	n/a	3	3	FLEA	n/a	SHEEP	FLEA	8	[0, 0, 0]	-999	PAL1	6	R1365N
1006.341	0.273	1007776	ORIENT_START	n/a	n/a	-999	-999	n/a	n/a	n/a	n/a	8	[0, 0, 0]	-999	PAL1	6	R1365N
1006.614	0.605	1008049	ORIENT_END	n/a	n/a	-999	-999	n/a	n/a	n/a	n/a	8	[0, 0, 0]	-999	PAL1	6	R1365N
1007.219	0.0	1008654	REC_START	n/a	n/a	4	4	DOLL	CAVE	DOLL	CAVE	8	[0, 0, 0]	-999	PAL1	6	R1365N
1007.219	4.0	1008654	PROBE_START	n/a	wordpools/wordpool_EN.txt	4	4	DOLL	CAVE	DOLL	CAVE	8	[0, 0, 0]	-999	PAL1	6	R1365N
1009.076	2.171	1010511	REC_EVENT	1857.0	n/a	4	4	DOLL	CAVE	DOLL	CAVE	8	[0, 0, 0]	-999	PAL1	6	R1365N
1011.247	1.001	1012682	PROBE_END	n/a	n/a	4	4	DOLL	n/a	DOLL	CAVE	8	[0, 0, 0]	-999	PAL1	6	R1365N
1012.248	0.013	1013683	REC_END	n/a	n/a	4	4	DOLL	n/a	DOLL	CAVE	8	[0, 0, 0]	-999	PAL1	6	R1365N
1012.261	0.27	1013696	ORIENT_START	n/a	n/a	-999	-999	n/a	n/a	n/a	n/a	8	[0, 0, 0]	-999	PAL1	6	R1365N
1012.531	0.639	1013966	ORIENT_END	n/a	n/a	-999	-999	n/a	n/a	n/a	n/a	8	[0, 0, 0]	-999	PAL1	6	R1365N
1013.17	0.001	1014605	REC_START	n/a	n/a	1	5	ICE	BOX	ICE	BOX	8	[0, 0, 0]	-999	PAL1	6	R1365N
1013.171	4.0	1014606	PROBE_START	n/a	wordpools/wordpool_EN.txt	1	5	ICE	BOX	ICE	BOX	8	[0, 0, 0]	-999	PAL1	6	R1365N
1015.005	2.193	1016440	REC_EVENT	1834.0	n/a	1	5	ICE	BOX	ICE	BOX	8	[0, 0, 0]	-999	PAL1	6	R1365N
1017.198	1.0	1018633	PROBE_END	n/a	n/a	1	5	ICE	n/a	ICE	BOX	8	[0, 0, 0]	-999	PAL1	6	R1365N
1018.198	0.012	1019633	REC_END	n/a	n/a	1	5	ICE	n/a	ICE	BOX	8	[0, 0, 0]	-999	PAL1	6	R1365N
1018.21	0.271	1019645	ORIENT_START	n/a	n/a	-999	-999	n/a	n/a	n/a	n/a	8	[0, 0, 0]	-999	PAL1	6	R1365N
1018.481	0.541	1019916	ORIENT_END	n/a	n/a	-999	-999	n/a	n/a	n/a	n/a	8	[0, 0, 0]	-999	PAL1	6	R1365N
1019.022	0.0	1020457	REC_START	n/a	n/a	6	6	CAKE	SEED	CAKE	SEED	8	[0, 0, 0]	-999	PAL1	6	R1365N
1019.022	4.0	1020457	PROBE_START	n/a	wordpools/wordpool_EN.txt	6	6	CAKE	SEED	CAKE	SEED	8	[0, 0, 0]	-999	PAL1	6	R1365N
1020.951	2.099	1022386	REC_EVENT	1929.0	n/a	6	6	CAKE	SEED	CAKE	SEED	8	[0, 0, 0]	-999	PAL1	6	R1365N
1023.05	1.001	1024484	PROBE_END	n/a	n/a	6	6	CAKE	n/a	CAKE	SEED	8	[0, 0, 0]	-999	PAL1	6	R1365N
1024.051	0.012	1025485	REC_END	n/a	n/a	6	6	CAKE	n/a	CAKE	SEED	8	[0, 0, 0]	-999	PAL1	6	R1365N
1024.063	0.0	1025497	RETRIEVAL_END	n/a	n/a	-999	-999	n/a	n/a	n/a	n/a	8	[0, 0, 0]	-999	PAL1	6	R1365N
1024.063	0.022	1025497	TRIAL_END	n/a	n/a	-999	-999	n/a	n/a	n/a	n/a	8	[0, 0, 0]	-999	PAL1	6	R1365N
1024.085	0.0	1025519	TRIAL_START	n/a	n/a	-999	-999	n/a	n/a	n/a	n/a	8	[0, 0, 0]	-999	PAL1	6	R1365N
1024.085	0.0	1025519	WAITING_START	n/a	n/a	-999	-999	n/a	n/a	n/a	n/a	9	[0, 0, 0]	-999	PAL1	6	R1365N
1024.085	3.065	1025519	TRIAL	n/a	n/a	-999	-999	n/a	n/a	n/a	n/a	9	[0, 0, 0]	-999	PAL1	6	R1365N
1027.15	10.0	1028584	COUNTDOWN_START	n/a	n/a	-999	-999	n/a	n/a	n/a	n/a	9	[0, 0, 0]	-999	PAL1	6	R1365N
1027.15	10.429	1028584	WAITING_END	n/a	n/a	-999	-999	n/a	n/a	n/a	n/a	9	[0, 0, 0]	-999	PAL1	6	R1365N
1037.579	0.0	1039013	COUNTDOWN_END	n/a	n/a	-999	-999	n/a	n/a	n/a	n/a	9	[0, 0, 0]	-999	PAL1	6	R1365N
1037.579	0.639	1039013	ORIENT_START	n/a	n/a	-999	-999	n/a	n/a	n/a	n/a	9	[0, 0, 0]	-999	PAL1	6	R1365N
1038.218	0.0	1039652	ORIENT_END	n/a	n/a	-999	-999	n/a	n/a	n/a	n/a	9	[0, 0, 0]	-999	PAL1	6	R1365N
1038.218	1.116	1039652	ENCODING_START	n/a	n/a	-999	-999	n/a	n/a	n/a	n/a	9	[0, 0, 0]	-999	PAL1	6	R1365N
1039.334	4.0	1040768	STUDY_PAIR	n/a	wordpools/wordpool_EN.txt	1	3	n/a	SLEEVE	SLEEVE	PEAR	9	[0, 0, 0]	-999	PAL1	6	R1365N
1043.369	0.657	1044803	STUDY_PAIR_OFF	n/a	n/a	1	3	n/a	SLEEVE	SLEEVE	PEAR	9	[0, 0, 0]	-999	PAL1	6	R1365N
1044.026	4.0	1045460	STUDY_PAIR	n/a	wordpools/wordpool_EN.txt	2	2	n/a	PANTS	PLANE	PANTS	9	[0, 0, 0]	-999	PAL1	6	R1365N
1048.054	0.712	1049488	STUDY_PAIR_OFF	n/a	n/a	2	2	n/a	PANTS	PLANE	PANTS	9	[0, 0, 0]	-999	PAL1	6	R1365N
1048.766	4.0	1050200	STUDY_PAIR	n/a	wordpools/wordpool_EN.txt	3	5	n/a	EEL	EEL	ARK	9	[0, 0, 0]	-999	PAL1	6	R1365N
1052.805	0.691	1054239	STUDY_PAIR_OFF	n/a	n/a	3	5	n/a	EEL	EEL	ARK	9	[0, 0, 0]	-999	PAL1	6	R1365N
1053.496	4.0	1054930	STUDY_PAIR	n/a	wordpools/wordpool_EN.txt	4	6	n/a	JAR	JAR	CASH	9	[0, 0, 0]	-999	PAL1	6	R1365N
1057.521	0.624	1058955	STUDY_PAIR_OFF	n/a	n/a	4	6	n/a	JAR	JAR	CASH	9	[0, 0, 0]	-999	PAL1	6	R1365N
1058.145	4.0	1059579	STUDY_PAIR	n/a	wordpools/wordpool_EN.txt	5	1	n/a	BAG	ROCK	BAG	9	[0, 0, 0]	-999	PAL1	6	R1365N
1062.155	0.667	1063588	STUDY_PAIR_OFF	n/a	n/a	5	1	n/a	BAG	ROCK	BAG	9	[0, 0, 0]	-999	PAL1	6	R1365N
1062.822	4.0	1064255	STUDY_PAIR	n/a	wordpools/wordpool_EN.txt	6	4	n/a	PIG	TAIL	PIG	9	[0, 0, 0]	-999	PAL1	6	R1365N
1066.857	0.001	1068290	STUDY_PAIR_OFF	n/a	n/a	6	4	n/a	PIG	TAIL	PIG	9	[0, 0, 0]	-999	PAL1	6	R1365N
1066.858	0.0	1068291	ENCODING_END	n/a	n/a	-999	-999	n/a	n/a	n/a	n/a	9	[0, 0, 0]	-999	PAL1	6	R1365N
1066.858	0.0	1068291	MATH_START	n/a	n/a	-999	-999	n/a	n/a	n/a	n/a	9	[0, 0, 0]	-999	PAL1	6	R1365N
1066.858	0.016	1068291	START	n/a	n/a	-999	-999	n/a	n/a	n/a	n/a	9	[-999, -999, -999]	-999	PAL1	6	R1365N
1066.874	8.4	1068307	PROB	8375.0	n/a	-999	-999	n/a	n/a	n/a	n/a	9	[4, 7, 9]	20	PAL1	6	R1365N
1075.274	8.135	1076707	PROB	8110.0	n/a	-999	-999	n/a	n/a	n/a	n/a	9	[4, 9, 2]	16	PAL1	6	R1365N
1083.409	5.376	1084842	PROB	5376.0	n/a	-999	-999	n/a	n/a	n/a	n/a	9	[4, 5, 2]	11	PAL1	6	R1365N
1088.785	0.009	1090218	STOP	n/a	n/a	-999	-999	n/a	n/a	n/a	n/a	9	[-999, -999, -999]	-999	PAL1	6	R1365N
1088.794	0.629	1090227	MATH_END	n/a	n/a	-999	-999	n/a	n/a	n/a	n/a	9	[0, 0, 0]	-999	PAL1	6	R1365N
1089.423	0.001	1090856	RETRIEVAL_START	n/a	n/a	-999	-999	n/a	n/a	n/a	n/a	9	[0, 0, 0]	-999	PAL1	6	R1365N
1089.424	0.287	1090857	ORIENT_START	n/a	n/a	-999	-999	n/a	n/a	n/a	n/a	9	[0, 0, 0]	-999	PAL1	6	R1365N
1089.711	0.606	1091144	ORIENT_END	n/a	n/a	-999	-999	n/a	n/a	n/a	n/a	9	[0, 0, 0]	-999	PAL1	6	R1365N
1090.317	0.001	1091750	REC_START	n/a	n/a	5	1	ROCK	BAG	ROCK	BAG	9	[0, 0, 0]	-999	PAL1	6	R1365N
1090.318	4.0	1091751	PROBE_START	n/a	wordpools/wordpool_EN.txt	5	1	ROCK	BAG	ROCK	BAG	9	[0, 0, 0]	-999	PAL1	6	R1365N
1091.723	0.439	1093156	REC_EVENT	1405.0	n/a	5	1	ROCK	<>	ROCK	BAG	9	[0, 0, 0]	-999	PAL1	6	R1365N
1092.162	2.182	1093595	REC_EVENT	1844.0	n/a	5	1	ROCK	BAG	ROCK	BAG	9	[0, 0, 0]	-999	PAL1	6	R1365N
1094.344	1.001	1095777	PROBE_END	n/a	n/a	5	1	ROCK	n/a	ROCK	BAG	9	[0, 0, 0]	-999	PAL1	6	R1365N
1095.345	0.013	1096778	REC_END	n/a	n/a	5	1	ROCK	n/a	ROCK	BAG	9	[0, 0, 0]	-999	PAL1	6	R1365N
1095.358	0.271	1096791	ORIENT_START	n/a	n/a	-999	-999	n/a	n/a	n/a	n/a	9	[0, 0, 0]	-999	PAL1	6	R1365N
1095.629	0.675	1097062	ORIENT_END	n/a	n/a	-999	-999	n/a	n/a	n/a	n/a	9	[0, 0, 0]	-999	PAL1	6	R1365N
1096.304	0.001	1097737	REC_START	n/a	n/a	2	2	PLANE	PANTS	PLANE	PANTS	9	[0, 0, 0]	-999	PAL1	6	R1365N
1096.305	4.0	1097738	PROBE_START	n/a	wordpools/wordpool_EN.txt	2	2	PLANE	PANTS	PLANE	PANTS	9	[0, 0, 0]	-999	PAL1	6	R1365N
1098.279	2.049	1099712	REC_EVENT	1974.0	n/a	2	2	PLANE	PANTS	PLANE	PANTS	9	[0, 0, 0]	-999	PAL1	6	R1365N
1100.328	1.0	1101761	PROBE_END	n/a	n/a	2	2	PLANE	n/a	PLANE	PANTS	9	[0, 0, 0]	-999	PAL1	6	R1365N
1101.328	0.011	1102760	REC_END	n/a	n/a	2	2	PLANE	n/a	PLANE	PANTS	9	[0, 0, 0]	-999	PAL1	6	R1365N
1101.339	0.274	1102771	ORIENT_START	n/a	n/a	-999	-999	n/a	n/a	n/a	n/a	9	[0, 0, 0]	-999	PAL1	6	R1365N
1101.613	0.668	1103045	ORIENT_END	n/a	n/a	-999	-999	n/a	n/a	n/a	n/a	9	[0, 0, 0]	-999	PAL1	6	R1365N
1102.281	4.0	1103713	PROBE_START	n/a	wordpools/wordpool_EN.txt	1	3	PEAR	SLEEVE	SLEEVE	PEAR	9	[0, 0, 0]	-999	PAL1	6	R1365N
1102.281	1.916	1103713	REC_START	n/a	n/a	1	3	PEAR	SLEEVE	SLEEVE	PEAR	9	[0, 0, 0]	-999	PAL1	6	R1365N
1104.197	2.116	1105629	REC_EVENT	1916.0	n/a	1	3	PEAR	SLEEVE	SLEEVE	PEAR	9	[0, 0, 0]	-999	PAL1	6	R1365N
1106.313	1.0	1107745	PROBE_END	n/a	n/a	1	3	PEAR	n/a	SLEEVE	PEAR	9	[0, 0, 0]	-999	PAL1	6	R1365N
1107.313	0.012	1108745	REC_END	n/a	n/a	1	3	PEAR	n/a	SLEEVE	PEAR	9	[0, 0, 0]	-999	PAL1	6	R1365N
1107.325	0.272	1108757	ORIENT_START	n/a	n/a	-999	-999	n/a	n/a	n/a	n/a	9	[0, 0, 0]	-999	PAL1	6	R1365N
1107.597	0.674	1109029	ORIENT_END	n/a	n/a	-999	-999	n/a	n/a	n/a	n/a	9	[0, 0, 0]	-999	PAL1	6	R1365N
1108.271	0.0	1109703	REC_START	n/a	n/a	6	4	TAIL	PIG	TAIL	PIG	9	[0, 0, 0]	-999	PAL1	6	R1365N
1108.271	4.0	1109703	PROBE_START	n/a	wordpools/wordpool_EN.txt	6	4	TAIL	PIG	TAIL	PIG	9	[0, 0, 0]	-999	PAL1	6	R1365N
1110.208	2.089	1111640	REC_EVENT	1937.0	n/a	6	4	TAIL	PIG	TAIL	PIG	9	[0, 0, 0]	-999	PAL1	6	R1365N
1112.297	1.001	1113729	PROBE_END	n/a	n/a	6	4	TAIL	n/a	TAIL	PIG	9	[0, 0, 0]	-999	PAL1	6	R1365N
1113.298	0.012	1114730	REC_END	n/a	n/a	6	4	TAIL	n/a	TAIL	PIG	9	[0, 0, 0]	-999	PAL1	6	R1365N
1113.31	0.27	1114742	ORIENT_START	n/a	n/a	-999	-999	n/a	n/a	n/a	n/a	9	[0, 0, 0]	-999	PAL1	6	R1365N
1113.58	0.512	1115012	ORIENT_END	n/a	n/a	-999	-999	n/a	n/a	n/a	n/a	9	[0, 0, 0]	-999	PAL1	6	R1365N
1114.092	0.0	1115524	REC_START	n/a	n/a	3	5	ARK	EEL	EEL	ARK	9	[0, 0, 0]	-999	PAL1	6	R1365N
1114.092	4.0	1115524	PROBE_START	n/a	wordpools/wordpool_EN.txt	3	5	ARK	EEL	EEL	ARK	9	[0, 0, 0]	-999	PAL1	6	R1365N
1116.234	1.897	1117666	REC_EVENT	2142.0	n/a	3	5	ARK	EEL	EEL	ARK	9	[0, 0, 0]	-999	PAL1	6	R1365N
1118.131	1.0	1119563	PROBE_END	n/a	n/a	3	5	ARK	n/a	EEL	ARK	9	[0, 0, 0]	-999	PAL1	6	R1365N
1119.131	0.012	1120563	REC_END	n/a	n/a	3	5	ARK	n/a	EEL	ARK	9	[0, 0, 0]	-999	PAL1	6	R1365N
1119.143	0.272	1120575	ORIENT_START	n/a	n/a	-999	-999	n/a	n/a	n/a	n/a	9	[0, 0, 0]	-999	PAL1	6	R1365N
1119.415	0.646	1120847	ORIENT_END	n/a	n/a	-999	-999	n/a	n/a	n/a	n/a	9	[0, 0, 0]	-999	PAL1	6	R1365N
1120.061	0.0	1121493	REC_START	n/a	n/a	4	6	CASH	JAR	JAR	CASH	9	[0, 0, 0]	-999	PAL1	6	R1365N
1120.061	4.0	1121493	PROBE_START	n/a	wordpools/wordpool_EN.txt	4	6	CASH	JAR	JAR	CASH	9	[0, 0, 0]	-999	PAL1	6	R1365N
1122.2	1.899	1123632	REC_EVENT	2139.0	n/a	4	6	CASH	JAR	JAR	CASH	9	[0, 0, 0]	-999	PAL1	6	R1365N
1124.099	1.0	1125531	PROBE_END	n/a	n/a	4	6	CASH	n/a	JAR	CASH	9	[0, 0, 0]	-999	PAL1	6	R1365N
1125.099	0.011	1126531	REC_END	n/a	n/a	4	6	CASH	n/a	JAR	CASH	9	[0, 0, 0]	-999	PAL1	6	R1365N
1125.11	0.0	1126542	TRIAL_END	n/a	n/a	-999	-999	n/a	n/a	n/a	n/a	9	[0, 0, 0]	-999	PAL1	6	R1365N
1125.11	0.023	1126542	RETRIEVAL_END	n/a	n/a	-999	-999	n/a	n/a	n/a	n/a	9	[0, 0, 0]	-999	PAL1	6	R1365N
1125.133	0.0	1126565	TRIAL_START	n/a	n/a	-999	-999	n/a	n/a	n/a	n/a	9	[0, 0, 0]	-999	PAL1	6	R1365N
1125.133	0.0	1126565	TRIAL	n/a	n/a	-999	-999	n/a	n/a	n/a	n/a	10	[0, 0, 0]	-999	PAL1	6	R1365N
1125.133	13.903	1126565	WAITING_START	n/a	n/a	-999	-999	n/a	n/a	n/a	n/a	10	[0, 0, 0]	-999	PAL1	6	R1365N
1139.036	0.0	1140468	WAITING_END	n/a	n/a	-999	-999	n/a	n/a	n/a	n/a	10	[0, 0, 0]	-999	PAL1	6	R1365N
1139.036	10.0	1140468	COUNTDOWN_START	n/a	n/a	-999	-999	n/a	n/a	n/a	n/a	10	[0, 0, 0]	-999	PAL1	6	R1365N
1149.464	0.0	1150895	COUNTDOWN_END	n/a	n/a	-999	-999	n/a	n/a	n/a	n/a	10	[0, 0, 0]	-999	PAL1	6	R1365N
1149.464	0.623	1150895	ORIENT_START	n/a	n/a	-999	-999	n/a	n/a	n/a	n/a	10	[0, 0, 0]	-999	PAL1	6	R1365N
1150.087	0.0	1151518	ORIENT_END	n/a	n/a	-999	-999	n/a	n/a	n/a	n/a	10	[0, 0, 0]	-999	PAL1	6	R1365N
1150.087	1.184	1151518	ENCODING_START	n/a	n/a	-999	-999	n/a	n/a	n/a	n/a	10	[0, 0, 0]	-999	PAL1	6	R1365N
1151.271	4.0	1152702	STUDY_PAIR	n/a	wordpools/wordpool_EN.txt	1	1	n/a	SOUP	SOUP	ROOT	10	[0, 0, 0]	-999	PAL1	6	R1365N
1155.304	0.726	1156735	STUDY_PAIR_OFF	n/a	n/a	1	1	n/a	SOUP	SOUP	ROOT	10	[0, 0, 0]	-999	PAL1	6	R1365N
1156.03	4.0	1157461	STUDY_PAIR	n/a	wordpools/wordpool_EN.txt	2	4	n/a	MUD	MUD	PALM	10	[0, 0, 0]	-999	PAL1	6	R1365N
1160.056	0.529	1161487	STUDY_PAIR_OFF	n/a	n/a	2	4	n/a	MUD	MUD	PALM	10	[0, 0, 0]	-999	PAL1	6	R1365N
1160.585	4.0	1162016	STUDY_PAIR	n/a	wordpools/wordpool_EN.txt	3	3	n/a	EGG	EGG	NET	10	[0, 0, 0]	-999	PAL1	6	R1365N
1164.623	0.61	1166054	STUDY_PAIR_OFF	n/a	n/a	3	3	n/a	EGG	EGG	NET	10	[0, 0, 0]	-999	PAL1	6	R1365N
1165.233	4.0	1166664	STUDY_PAIR	n/a	wordpools/wordpool_EN.txt	4	6	n/a	FORT	CHAIR	FORT	10	[0, 0, 0]	-999	PAL1	6	R1365N
1169.273	0.576	1170704	STUDY_PAIR_OFF	n/a	n/a	4	6	n/a	FORT	CHAIR	FORT	10	[0, 0, 0]	-999	PAL1	6	R1365N
1169.849	4.0	1171280	STUDY_PAIR	n/a	wordpools/wordpool_EN.txt	5	5	n/a	COIN	ZOO	COIN	10	[0, 0, 0]	-999	PAL1	6	R1365N
1173.875	0.619	1175306	STUDY_PAIR_OFF	n/a	n/a	5	5	n/a	COIN	ZOO	COIN	10	[0, 0, 0]	-999	PAL1	6	R1365N
1174.494	4.0	1175925	STUDY_PAIR	n/a	wordpools/wordpool_EN.txt	6	2	n/a	FUDGE	VINE	FUDGE	10	[0, 0, 0]	-999	PAL1	6	R1365N
1178.525	0.0	1179956	STUDY_PAIR_OFF	n/a	n/a	6	2	n/a	FUDGE	VINE	FUDGE	10	[0, 0, 0]	-999	PAL1	6	R1365N
1178.525	0.0	1179956	ENCODING_END	n/a	n/a	-999	-999	n/a	n/a	n/a	n/a	10	[0, 0, 0]	-999	PAL1	6	R1365N
1178.525	0.0	1179956	MATH_START	n/a	n/a	-999	-999	n/a	n/a	n/a	n/a	10	[0, 0, 0]	-999	PAL1	6	R1365N
1178.525	0.016	1179956	START	n/a	n/a	-999	-999	n/a	n/a	n/a	n/a	10	[-999, -999, -999]	-999	PAL1	6	R1365N
1178.541	3.851	1179972	PROB	3828.0	n/a	-999	-999	n/a	n/a	n/a	n/a	10	[6, 4, 4]	14	PAL1	6	R1365N
1182.392	3.784	1183822	PROB	3760.0	n/a	-999	-999	n/a	n/a	n/a	n/a	10	[1, 5, 2]	8	PAL1	6	R1365N
1186.176	4.468	1187606	PROB	4434.0	n/a	-999	-999	n/a	n/a	n/a	n/a	10	[6, 7, 1]	14	PAL1	6	R1365N
1190.644	7.101	1192074	PROB	7077.0	n/a	-999	-999	n/a	n/a	n/a	n/a	10	[8, 2, 5]	15	PAL1	6	R1365N
1197.745	2.767	1199175	PROB	2767.0	n/a	-999	-999	n/a	n/a	n/a	n/a	10	[9, 1, 1]	11	PAL1	6	R1365N
1200.512	0.016	1201942	STOP	n/a	n/a	-999	-999	n/a	n/a	n/a	n/a	10	[-999, -999, -999]	-999	PAL1	6	R1365N
1200.528	0.549	1201958	MATH_END	n/a	n/a	-999	-999	n/a	n/a	n/a	n/a	10	[0, 0, 0]	-999	PAL1	6	R1365N
1201.077	0.001	1202507	RETRIEVAL_START	n/a	n/a	-999	-999	n/a	n/a	n/a	n/a	10	[0, 0, 0]	-999	PAL1	6	R1365N
1201.078	0.284	1202508	ORIENT_START	n/a	n/a	-999	-999	n/a	n/a	n/a	n/a	10	[0, 0, 0]	-999	PAL1	6	R1365N
1201.362	0.563	1202792	ORIENT_END	n/a	n/a	-999	-999	n/a	n/a	n/a	n/a	10	[0, 0, 0]	-999	PAL1	6	R1365N
1201.925	0.0	1203355	REC_START	n/a	n/a	1	1	ROOT	SOUP	SOUP	ROOT	10	[0, 0, 0]	-999	PAL1	6	R1365N
1201.925	4.0	1203355	PROBE_START	n/a	wordpools/wordpool_EN.txt	1	1	ROOT	SOUP	SOUP	ROOT	10	[0, 0, 0]	-999	PAL1	6	R1365N
1204.273	0.64	1205703	REC_EVENT	2348.0	n/a	1	1	ROOT	<>	SOUP	ROOT	10	[0, 0, 0]	-999	PAL1	6	R1365N
1204.913	1.05	1206343	REC_EVENT	2988.0	n/a	1	1	ROOT	SOUP	SOUP	ROOT	10	[0, 0, 0]	-999	PAL1	6	R1365N
1205.963	1.0	1207393	PROBE_END	n/a	n/a	1	1	ROOT	n/a	SOUP	ROOT	10	[0, 0, 0]	-999	PAL1	6	R1365N
1206.963	0.012	1208393	REC_END	n/a	n/a	1	1	ROOT	n/a	SOUP	ROOT	10	[0, 0, 0]	-999	PAL1	6	R1365N
1206.975	0.271	1208405	ORIENT_START	n/a	n/a	-999	-999	n/a	n/a	n/a	n/a	10	[0, 0, 0]	-999	PAL1	6	R1365N
1207.246	0.593	1208676	ORIENT_END	n/a	n/a	-999	-999	n/a	n/a	n/a	n/a	10	[0, 0, 0]	-999	PAL1	6	R1365N
1207.839	0.0	1209269	REC_START	n/a	n/a	6	2	VINE	FUDGE	VINE	FUDGE	10	[0, 0, 0]	-999	PAL1	6	R1365N
1207.839	4.0	1209269	PROBE_START	n/a	wordpools/wordpool_EN.txt	6	2	VINE	FUDGE	VINE	FUDGE	10	[0, 0, 0]	-999	PAL1	6	R1365N
1210.234	1.63	1211664	REC_EVENT	2395.0	n/a	6	2	VINE	FUDGE	VINE	FUDGE	10	[0, 0, 0]	-999	PAL1	6	R1365N
1211.864	1.0	1213294	PROBE_END	n/a	n/a	6	2	VINE	n/a	VINE	FUDGE	10	[0, 0, 0]	-999	PAL1	6	R1365N
1212.864	0.012	1214294	REC_END	n/a	n/a	6	2	VINE	n/a	VINE	FUDGE	10	[0, 0, 0]	-999	PAL1	6	R1365N
1212.876	0.271	1214306	ORIENT_START	n/a	n/a	-999	-999	n/a	n/a	n/a	n/a	10	[0, 0, 0]	-999	PAL1	6	R1365N
1213.147	0.686	1214577	ORIENT_END	n/a	n/a	-999	-999	n/a	n/a	n/a	n/a	10	[0, 0, 0]	-999	PAL1	6	R1365N
1213.833	0.0	1215263	REC_START	n/a	n/a	3	3	NET	EGG	EGG	NET	10	[0, 0, 0]	-999	PAL1	6	R1365N
1213.833	4.0	1215263	PROBE_START	n/a	wordpools/wordpool_EN.txt	3	3	NET	EGG	EGG	NET	10	[0, 0, 0]	-999	PAL1	6	R1365N
1215.988	1.878	1217418	REC_EVENT	2155.0	n/a	3	3	NET	EGG	EGG	NET	10	[0, 0, 0]	-999	PAL1	6	R1365N
1217.866	0.999	1219296	PROBE_END	n/a	n/a	3	3	NET	n/a	EGG	NET	10	[0, 0, 0]	-999	PAL1	6	R1365N
1218.865	0.014	1220294	REC_END	n/a	n/a	3	3	NET	n/a	EGG	NET	10	[0, 0, 0]	-999	PAL1	6	R1365N
1218.879	0.269	1220308	ORIENT_START	n/a	n/a	-999	-999	n/a	n/a	n/a	n/a	10	[0, 0, 0]	-999	PAL1	6	R1365N
1219.148	0.51	1220577	ORIENT_END	n/a	n/a	-999	-999	n/a	n/a	n/a	n/a	10	[0, 0, 0]	-999	PAL1	6	R1365N
1219.658	4.0	1221087	PROBE_START	n/a	wordpools/wordpool_EN.txt	2	4	PALM	MUD	MUD	PALM	10	[0, 0, 0]	-999	PAL1	6	R1365N
1219.658	1.811	1221087	REC_START	n/a	n/a	2	4	PALM	MUD	MUD	PALM	10	[0, 0, 0]	-999	PAL1	6	R1365N
1221.469	2.214	1222898	REC_EVENT	1811.0	n/a	2	4	PALM	MUD	MUD	PALM	10	[0, 0, 0]	-999	PAL1	6	R1365N
1223.683	1.001	1225112	PROBE_END	n/a	n/a	2	4	PALM	n/a	MUD	PALM	10	[0, 0, 0]	-999	PAL1	6	R1365N
1224.684	0.011	1226113	REC_END	n/a	n/a	2	4	PALM	n/a	MUD	PALM	10	[0, 0, 0]	-999	PAL1	6	R1365N
1224.695	0.272	1226124	ORIENT_START	n/a	n/a	-999	-999	n/a	n/a	n/a	n/a	10	[0, 0, 0]	-999	PAL1	6	R1365N
1224.967	0.746	1226396	ORIENT_END	n/a	n/a	-999	-999	n/a	n/a	n/a	n/a	10	[0, 0, 0]	-999	PAL1	6	R1365N
1225.713	0.0	1227142	REC_START	n/a	n/a	5	5	ZOO	COIN	ZOO	COIN	10	[0, 0, 0]	-999	PAL1	6	R1365N
1225.713	4.0	1227142	PROBE_START	n/a	wordpools/wordpool_EN.txt	5	5	ZOO	COIN	ZOO	COIN	10	[0, 0, 0]	-999	PAL1	6	R1365N
1227.79	1.961	1229219	REC_EVENT	2077.0	n/a	5	5	ZOO	COIN	ZOO	COIN	10	[0, 0, 0]	-999	PAL1	6	R1365N
1229.751	1.001	1231180	PROBE_END	n/a	n/a	5	5	ZOO	n/a	ZOO	COIN	10	[0, 0, 0]	-999	PAL1	6	R1365N
1230.752	0.007	1232181	REC_END	n/a	n/a	5	5	ZOO	n/a	ZOO	COIN	10	[0, 0, 0]	-999	PAL1	6	R1365N
1230.759	0.275	1232188	ORIENT_START	n/a	n/a	-999	-999	n/a	n/a	n/a	n/a	10	[0, 0, 0]	-999	PAL1	6	R1365N
1231.034	0.571	1232463	ORIENT_END	n/a	n/a	-999	-999	n/a	n/a	n/a	n/a	10	[0, 0, 0]	-999	PAL1	6	R1365N
1231.605	0.001	1233034	REC_START	n/a	n/a	4	6	CHAIR	FORT	CHAIR	FORT	10	[0, 0, 0]	-999	PAL1	6	R1365N
1231.606	4.0	1233035	PROBE_START	n/a	wordpools/wordpool_EN.txt	4	6	CHAIR	FORT	CHAIR	FORT	10	[0, 0, 0]	-999	PAL1	6	R1365N
1233.627	0.344	1235056	REC_EVENT	2021.0	n/a	4	6	CHAIR	<>	CHAIR	FORT	10	[0, 0, 0]	-999	PAL1	6	R1365N
1233.971	1.664	1235400	REC_EVENT	2365.0	n/a	4	6	CHAIR	FORT	CHAIR	FORT	10	[0, 0, 0]	-999	PAL1	6	R1365N
1235.635	1.001	1237064	PROBE_END	n/a	n/a	4	6	CHAIR	n/a	CHAIR	FORT	10	[0, 0, 0]	-999	PAL1	6	R1365N
1236.636	0.01	1238065	REC_END	n/a	n/a	4	6	CHAIR	n/a	CHAIR	FORT	10	[0, 0, 0]	-999	PAL1	6	R1365N
1236.646	0.0	1238075	RETRIEVAL_END	n/a	n/a	-999	-999	n/a	n/a	n/a	n/a	10	[0, 0, 0]	-999	PAL1	6	R1365N
1236.646	0.022	1238075	TRIAL_END	n/a	n/a	-999	-999	n/a	n/a	n/a	n/a	10	[0, 0, 0]	-999	PAL1	6	R1365N
1236.668	0.001	1238097	TRIAL_START	n/a	n/a	-999	-999	n/a	n/a	n/a	n/a	10	[0, 0, 0]	-999	PAL1	6	R1365N
1236.669	0.0	1238098	TRIAL	n/a	n/a	-999	-999	n/a	n/a	n/a	n/a	11	[0, 0, 0]	-999	PAL1	6	R1365N
1236.669	1.749	1238098	WAITING_START	n/a	n/a	-999	-999	n/a	n/a	n/a	n/a	11	[0, 0, 0]	-999	PAL1	6	R1365N
1238.418	10.0	1239847	COUNTDOWN_START	n/a	n/a	-999	-999	n/a	n/a	n/a	n/a	11	[0, 0, 0]	-999	PAL1	6	R1365N
1238.418	10.429	1239847	WAITING_END	n/a	n/a	-999	-999	n/a	n/a	n/a	n/a	11	[0, 0, 0]	-999	PAL1	6	R1365N
1248.847	0.0	1250276	COUNTDOWN_END	n/a	n/a	-999	-999	n/a	n/a	n/a	n/a	11	[0, 0, 0]	-999	PAL1	6	R1365N
1248.847	0.69	1250276	ORIENT_START	n/a	n/a	-999	-999	n/a	n/a	n/a	n/a	11	[0, 0, 0]	-999	PAL1	6	R1365N
1249.537	0.0	1250966	ORIENT_END	n/a	n/a	-999	-999	n/a	n/a	n/a	n/a	11	[0, 0, 0]	-999	PAL1	6	R1365N
1249.537	1.125	1250966	ENCODING_START	n/a	n/a	-999	-999	n/a	n/a	n/a	n/a	11	[0, 0, 0]	-999	PAL1	6	R1365N
1250.662	4.0	1252091	STUDY_PAIR	n/a	wordpools/wordpool_EN.txt	1	5	n/a	TOOL	TOOL	OAK	11	[0, 0, 0]	-999	PAL1	6	R1365N
1254.688	0.551	1256117	STUDY_PAIR_OFF	n/a	n/a	1	5	n/a	TOOL	TOOL	OAK	11	[0, 0, 0]	-999	PAL1	6	R1365N
1255.239	4.0	1256668	STUDY_PAIR	n/a	wordpools/wordpool_EN.txt	2	6	n/a	STORE	MOUTH	STORE	11	[0, 0, 0]	-999	PAL1	6	R1365N
1259.271	0.507	1260699	STUDY_PAIR_OFF	n/a	n/a	2	6	n/a	STORE	MOUTH	STORE	11	[0, 0, 0]	-999	PAL1	6	R1365N
1259.778	4.0	1261206	STUDY_PAIR	n/a	wordpools/wordpool_EN.txt	3	3	n/a	n/a	FOAM	WALL	11	[0, 0, 0]	-999	PAL1	6	R1365N
1263.806	0.688	1265234	STUDY_PAIR_OFF	n/a	n/a	3	3	n/a	n/a	FOAM	WALL	11	[0, 0, 0]	-999	PAL1	6	R1365N
1264.494	4.0	1265922	STUDY_PAIR	n/a	wordpools/wordpool_EN.txt	4	4	n/a	LAKE	LAKE	DESK	11	[0, 0, 0]	-999	PAL1	6	R1365N
1268.523	0.6	1269951	STUDY_PAIR_OFF	n/a	n/a	4	4	n/a	LAKE	LAKE	DESK	11	[0, 0, 0]	-999	PAL1	6	R1365N
1269.123	4.0	1270551	STUDY_PAIR	n/a	wordpools/wordpool_EN.txt	5	1	n/a	TRAIN	FLAG	TRAIN	11	[0, 0, 0]	-999	PAL1	6	R1365N
1273.157	0.691	1274585	STUDY_PAIR_OFF	n/a	n/a	5	1	n/a	TRAIN	FLAG	TRAIN	11	[0, 0, 0]	-999	PAL1	6	R1365N
1273.848	4.0	1275276	STUDY_PAIR	n/a	wordpools/wordpool_EN.txt	6	2	n/a	NAIL	BAND	MAIL	11	[0, 0, 0]	-999	PAL1	6	R1365N
1277.875	0.001	1279303	STUDY_PAIR_OFF	n/a	n/a	6	2	n/a	NAIL	BAND	MAIL	11	[0, 0, 0]	-999	PAL1	6	R1365N
1277.876	0.0	1279304	ENCODING_END	n/a	n/a	-999	-999	n/a	n/a	n/a	n/a	11	[0, 0, 0]	-999	PAL1	6	R1365N
1277.876	0.001	1279304	MATH_START	n/a	n/a	-999	-999	n/a	n/a	n/a	n/a	11	[0, 0, 0]	-999	PAL1	6	R1365N
1277.877	0.015	1279305	START	n/a	n/a	-999	-999	n/a	n/a	n/a	n/a	11	[-999, -999, -999]	-999	PAL1	6	R1365N
1277.892	6.617	1279320	PROB	6588.0	n/a	-999	-999	n/a	n/a	n/a	n/a	11	[9, 1, 7]	17	PAL1	6	R1365N
1284.509	7.368	1285937	PROB	7333.0	n/a	-999	-999	n/a	n/a	n/a	n/a	11	[5, 6, 2]	13	PAL1	6	R1365N
1291.877	2.984	1293305	PROB	2949.0	n/a	-999	-999	n/a	n/a	n/a	n/a	11	[6, 4, 2]	12	PAL1	6	R1365N
1294.861	2.583	1296289	PROB	2548.0	n/a	-999	-999	n/a	n/a	n/a	n/a	11	[2, 5, 1]	8	PAL1	6	R1365N
1297.444	3.462	1298871	PROB	3462.0	n/a	-999	-999	n/a	n/a	n/a	n/a	11	[1, 3, 3]	7	PAL1	6	R1365N
1300.906	0.006	1302333	STOP	n/a	n/a	-999	-999	n/a	n/a	n/a	n/a	11	[-999, -999, -999]	-999	PAL1	6	R1365N
1300.912	0.537	1302339	MATH_END	n/a	n/a	-999	-999	n/a	n/a	n/a	n/a	11	[0, 0, 0]	-999	PAL1	6	R1365N
1301.449	0.001	1302876	RETRIEVAL_START	n/a	n/a	-999	-999	n/a	n/a	n/a	n/a	11	[0, 0, 0]	-999	PAL1	6	R1365N
1301.45	0.279	1302877	ORIENT_START	n/a	n/a	-999	-999	n/a	n/a	n/a	n/a	11	[0, 0, 0]	-999	PAL1	6	R1365N
1301.729	0.576	1303156	ORIENT_END	n/a	n/a	-999	-999	n/a	n/a	n/a	n/a	11	[0, 0, 0]	-999	PAL1	6	R1365N
1302.305	0.001	1303732	REC_START	n/a	n/a	5	1	FLAG	TRAIN	FLAG	TRAIN	11	[0, 0, 0]	-999	PAL1	6	R1365N
1302.306	4.0	1303733	PROBE_START	n/a	wordpools/wordpool_EN.txt	5	1	FLAG	TRAIN	FLAG	TRAIN	11	[0, 0, 0]	-999	PAL1	6	R1365N
1305.265	1.064	1306692	REC_EVENT	2959.0	n/a	5	1	FLAG	TRAIN	FLAG	TRAIN	11	[0, 0, 0]	-999	PAL1	6	R1365N
1306.329	1.0	1307756	PROBE_END	n/a	n/a	5	1	FLAG	n/a	FLAG	TRAIN	11	[0, 0, 0]	-999	PAL1	6	R1365N
1307.329	0.013	1308756	REC_END	n/a	n/a	5	1	FLAG	n/a	FLAG	TRAIN	11	[0, 0, 0]	-999	PAL1	6	R1365N
1307.342	0.272	1308769	ORIENT_START	n/a	n/a	-999	-999	n/a	n/a	n/a	n/a	11	[0, 0, 0]	-999	PAL1	6	R1365N
1307.614	0.688	1309041	ORIENT_END	n/a	n/a	-999	-999	n/a	n/a	n/a	n/a	11	[0, 0, 0]	-999	PAL1	6	R1365N
1308.302	0.0	1309729	REC_START	n/a	n/a	6	2	BAND	NAIL	BAND	MAIL	11	[0, 0, 0]	-999	PAL1	6	R1365N
1308.302	4.0	1309729	PROBE_START	n/a	wordpools/wordpool_EN.txt	6	2	BAND	NAIL	BAND	MAIL	11	[0, 0, 0]	-999	PAL1	6	R1365N
1310.502	1.828	1311929	REC_EVENT	2200.0	n/a	6	2	BAND	NAIL	BAND	MAIL	11	[0, 0, 0]	-999	PAL1	6	R1365N
1312.33	1.001	1313757	PROBE_END	n/a	n/a	6	2	BAND	n/a	BAND	MAIL	11	[0, 0, 0]	-999	PAL1	6	R1365N
1313.331	0.01	1314758	REC_END	n/a	n/a	6	2	BAND	n/a	BAND	MAIL	11	[0, 0, 0]	-999	PAL1	6	R1365N
1313.341	0.274	1314768	ORIENT_START	n/a	n/a	-999	-999	n/a	n/a	n/a	n/a	11	[0, 0, 0]	-999	PAL1	6	R1365N
1313.615	0.597	1315042	ORIENT_END	n/a	n/a	-999	-999	n/a	n/a	n/a	n/a	11	[0, 0, 0]	-999	PAL1	6	R1365N
1314.212	0.0	1315639	REC_START	n/a	n/a	3	3	WALL	n/a	FOAM	WALL	11	[0, 0, 0]	-999	PAL1	6	R1365N
1314.212	4.0	1315639	PROBE_START	n/a	wordpools/wordpool_EN.txt	3	3	WALL	n/a	FOAM	WALL	11	[0, 0, 0]	-999	PAL1	6	R1365N
1318.248	1.0	1319675	PROBE_END	n/a	n/a	3	3	WALL	n/a	FOAM	WALL	11	[0, 0, 0]	-999	PAL1	6	R1365N
1319.248	0.013	1320675	REC_END	n/a	n/a	3	3	WALL	n/a	FOAM	WALL	11	[0, 0, 0]	-999	PAL1	6	R1365N
1319.261	0.27	1320688	ORIENT_START	n/a	n/a	-999	-999	n/a	n/a	n/a	n/a	11	[0, 0, 0]	-999	PAL1	6	R1365N
1319.531	0.59	1320958	ORIENT_END	n/a	n/a	-999	-999	n/a	n/a	n/a	n/a	11	[0, 0, 0]	-999	PAL1	6	R1365N
1320.121	0.114	1321548	REC_EVENT	5909.0	n/a	3	3	WALL	<>	FOAM	WALL	11	[0, 0, 0]	-999	PAL1	6	R1365N
1320.235	0.0	1321662	REC_START	n/a	n/a	4	4	DESK	LAKE	LAKE	DESK	11	[0, 0, 0]	-999	PAL1	6	R1365N
1320.235	4.0	1321662	PROBE_START	n/a	wordpools/wordpool_EN.txt	4	4	DESK	LAKE	LAKE	DESK	11	[0, 0, 0]	-999	PAL1	6	R1365N
1322.525	1.74	1323952	REC_EVENT	2290.0	n/a	4	4	DESK	LAKE	LAKE	DESK	11	[0, 0, 0]	-999	PAL1	6	R1365N
1324.265	1.0	1325692	PROBE_END	n/a	n/a	4	4	DESK	n/a	LAKE	DESK	11	[0, 0, 0]	-999	PAL1	6	R1365N
1325.265	0.012	1326692	REC_END	n/a	n/a	4	4	DESK	n/a	LAKE	DESK	11	[0, 0, 0]	-999	PAL1	6	R1365N
1325.277	0.272	1326704	ORIENT_START	n/a	n/a	-999	-999	n/a	n/a	n/a	n/a	11	[0, 0, 0]	-999	PAL1	6	R1365N
1325.549	0.625	1326976	ORIENT_END	n/a	n/a	-999	-999	n/a	n/a	n/a	n/a	11	[0, 0, 0]	-999	PAL1	6	R1365N
1326.174	0.0	1327601	REC_START	n/a	n/a	1	5	OAK	TOOL	TOOL	OAK	11	[0, 0, 0]	-999	PAL1	6	R1365N
1326.174	4.0	1327601	PROBE_START	n/a	wordpools/wordpool_EN.txt	1	5	OAK	TOOL	TOOL	OAK	11	[0, 0, 0]	-999	PAL1	6	R1365N
1328.682	1.518	1330109	REC_EVENT	2508.0	n/a	1	5	OAK	TOOL	TOOL	OAK	11	[0, 0, 0]	-999	PAL1	6	R1365N
1330.2	1.0	1331627	PROBE_END	n/a	n/a	1	5	OAK	n/a	TOOL	OAK	11	[0, 0, 0]	-999	PAL1	6	R1365N
1331.2	0.012	1332627	REC_END	n/a	n/a	1	5	OAK	n/a	TOOL	OAK	11	[0, 0, 0]	-999	PAL1	6	R1365N
1331.212	0.271	1332639	ORIENT_START	n/a	n/a	-999	-999	n/a	n/a	n/a	n/a	11	[0, 0, 0]	-999	PAL1	6	R1365N
1331.483	0.631	1332910	ORIENT_END	n/a	n/a	-999	-999	n/a	n/a	n/a	n/a	11	[0, 0, 0]	-999	PAL1	6	R1365N
1332.114	0.0	1333541	REC_START	n/a	n/a	2	6	MOUTH	STORE	MOUTH	STORE	11	[0, 0, 0]	-999	PAL1	6	R1365N
1332.114	4.0	1333541	PROBE_START	n/a	wordpools/wordpool_EN.txt	2	6	MOUTH	STORE	MOUTH	STORE	11	[0, 0, 0]	-999	PAL1	6	R1365N
1334.052	2.099	1335479	REC_EVENT	1938.0	n/a	2	6	MOUTH	STORE	MOUTH	STORE	11	[0, 0, 0]	-999	PAL1	6	R1365N
1336.151	0.999	1337577	PROBE_END	n/a	n/a	2	6	MOUTH	n/a	MOUTH	STORE	11	[0, 0, 0]	-999	PAL1	6	R1365N
1337.15	0.012	1338576	REC_END	n/a	n/a	2	6	MOUTH	n/a	MOUTH	STORE	11	[0, 0, 0]	-999	PAL1	6	R1365N
1337.162	0.0	1338588	RETRIEVAL_END	n/a	n/a	-999	-999	n/a	n/a	n/a	n/a	11	[0, 0, 0]	-999	PAL1	6	R1365N
1337.162	0.021	1338588	TRIAL_END	n/a	n/a	-999	-999	n/a	n/a	n/a	n/a	11	[0, 0, 0]	-999	PAL1	6	R1365N
1337.183	0.0	1338609	TRIAL	n/a	n/a	-999	-999	n/a	n/a	n/a	n/a	12	[0, 0, 0]	-999	PAL1	6	R1365N
1337.183	0.001	1338609	TRIAL_START	n/a	n/a	-999	-999	n/a	n/a	n/a	n/a	11	[0, 0, 0]	-999	PAL1	6	R1365N
1337.184	0.0	1338610	WAITING_START	n/a	n/a	-999	-999	n/a	n/a	n/a	n/a	12	[0, 0, 0]	-999	PAL1	6	R1365N
