onset	duration	sample	trial_type	response_time	serialpos	probepos	probe_word	resp_word	study_1	study_2	list	test	answer	experiment	session	subject
0.0	110.089	1382050	SESS_START	n/a	-999	-999	n/a	n/a	n/a	n/a	-999	[0, 0, 0]	-999	PAL1	1	R1082N
110.089	1.016	1492144	START	n/a	-999	-999	n/a	n/a	n/a	n/a	-1	[-999, -999, -999]	-999	PAL1	1	R1082N
111.105	4.85	1493160	PROB	4830	-999	-999	n/a	n/a	n/a	n/a	-1	[6, 4, 9]	19	PAL1	1	R1082N
115.955	4.201	1498010	PROB	4171	-999	-999	n/a	n/a	n/a	n/a	-1	[9, 9, 2]	20	PAL1	1	R1082N
120.156	3.733	1502211	PROB	3714	-999	-999	n/a	n/a	n/a	n/a	-1	[5, 5, 4]	14	PAL1	1	R1082N
123.889	3.617	1505945	PROB	3589	-999	-999	n/a	n/a	n/a	n/a	-1	[3, 1, 7]	11	PAL1	1	R1082N
127.506	3.811	1509562	PROB	3811	-999	-999	n/a	n/a	n/a	n/a	-1	[9, 1, 6]	16	PAL1	1	R1082N
131.317	35.693	1513373	STOP	n/a	-999	-999	n/a	n/a	n/a	n/a	-1	[-999, -999, -999]	-999	PAL1	1	R1082N
167.01	11.399	1549068	FEEDBACK_SHOW_ALL_PAIRS	n/a	-999	-999	n/a	n/a	n/a	n/a	-999	[0, 0, 0]	-999	PAL1	1	R1082N
178.409	10.452	1560467	ENCODING_START	n/a	0	-999	n/a	n/a	n/a	n/a	1	[0, 0, 0]	-999	PAL1	1	R1082N
188.861	0.885	1570920	STUDY_ORIENT	n/a	1	5	CORREO	TECHO	BOTE	CORREO	1	[0, 0, 0]	-999	PAL1	1	R1082N
189.746	5.033	1571805	STUDY_PAIR	n/a	1	5	CORREO	TECHO	BOTE	CORREO	1	[0, 0, 0]	-999	PAL1	1	R1082N
194.779	0.967	1576838	STUDY_ORIENT	n/a	2	2	PLAYA	BALLENA	BALLENA	PLAYA	1	[0, 0, 0]	-999	PAL1	1	R1082N
195.746	5.034	1577805	STUDY_PAIR	n/a	2	2	PLAYA	BALLENA	BALLENA	PLAYA	1	[0, 0, 0]	-999	PAL1	1	R1082N
200.78	0.983	1582839	STUDY_ORIENT	n/a	3	1	CORDERO	VASO	CORDERO	PULGAR	1	[0, 0, 0]	-999	PAL1	1	R1082N
201.763	5.034	1583822	STUDY_PAIR	n/a	3	1	CORDERO	VASO	CORDERO	PULGAR	1	[0, 0, 0]	-999	PAL1	1	R1082N
206.797	0.9	1588856	STUDY_ORIENT	n/a	4	4	GUARDIA	PASS	GUARDIA	TALLO	1	[0, 0, 0]	-999	PAL1	1	R1082N
207.697	5.034	1589757	STUDY_PAIR	n/a	4	4	GUARDIA	PASS	GUARDIA	TALLO	1	[0, 0, 0]	-999	PAL1	1	R1082N
212.731	0.799	1594791	STUDY_ORIENT	n/a	5	3	ZAPATO	PASS	ZAPATO	CAMION	1	[0, 0, 0]	-999	PAL1	1	R1082N
213.53	5.034	1595590	STUDY_PAIR	n/a	5	3	ZAPATO	PASS	ZAPATO	CAMION	1	[0, 0, 0]	-999	PAL1	1	R1082N
218.564	0.983	1600624	STUDY_ORIENT	n/a	6	6	PAPALOTE	PASS	SOL	PAPALOTE	1	[0, 0, 0]	-999	PAL1	1	R1082N
219.547	4.018	1601607	STUDY_PAIR	n/a	6	6	PAPALOTE	PASS	SOL	PAPALOTE	1	[0, 0, 0]	-999	PAL1	1	R1082N
223.565	0.999	1605625	START	n/a	-999	-999	n/a	n/a	n/a	n/a	1	[-999, -999, -999]	-999	PAL1	1	R1082N
224.564	0.018	1606624	MATH_START	n/a	-999	-999	n/a	n/a	n/a	n/a	1	[0, 0, 0]	-999	PAL1	1	R1082N
224.582	4.349	1606642	PROB	4327	-999	-999	n/a	n/a	n/a	n/a	1	[6, 8, 8]	22	PAL1	1	R1082N
228.931	6.051	1610992	PROB	6017	-999	-999	n/a	n/a	n/a	n/a	1	[4, 6, 8]	18	PAL1	1	R1082N
234.982	3.917	1617043	PROB	3894	-999	-999	n/a	n/a	n/a	n/a	1	[9, 3, 9]	21	PAL1	1	R1082N
238.899	3.5	1620960	PROB	3481	-999	-999	n/a	n/a	n/a	n/a	1	[6, 1, 1]	8	PAL1	1	R1082N
242.399	5.221	1624460	PROB	5221	-999	-999	n/a	n/a	n/a	n/a	1	[2, 7, 1]	10	PAL1	1	R1082N
247.62	0.014	1629681	STOP	n/a	-999	-999	n/a	n/a	n/a	n/a	1	[-999, -999, -999]	-999	PAL1	1	R1082N
247.634	0.0	1629695	TEST_START	n/a	-999	-999	n/a	n/a	n/a	n/a	1	[0, 0, 0]	-999	PAL1	1	R1082N
247.634	0.017	1629695	MATH_END	n/a	-999	-999	n/a	n/a	n/a	n/a	1	[0, 0, 0]	-999	PAL1	1	R1082N
247.651	0.832	1629712	TEST_ORIENT	n/a	3	1	CORDERO	VASO	CORDERO	PULGAR	1	[0, 0, 0]	-999	PAL1	1	R1082N
248.483	0.001	1630544	TEST_PROBE	n/a	3	1	CORDERO	VASO	CORDERO	PULGAR	1	[0, 0, 0]	-999	PAL1	1	R1082N
248.484	3.816	1630545	REC_START	n/a	3	-999	n/a	VASO	n/a	n/a	1	[0, 0, 0]	-999	PAL1	1	R1082N
252.3	1.209	1634362	REC_EVENT	3816	3	1	CORDERO	VASO	CORDERO	PULGAR	1	[0, 0, 0]	-999	PAL1	1	R1082N
253.509	0.008	1635571	REC_END	n/a	3	-999	n/a	n/a	n/a	n/a	1	[0, 0, 0]	-999	PAL1	1	R1082N
253.517	0.867	1635579	TEST_ORIENT	n/a	2	2	PLAYA	BALLENA	BALLENA	PLAYA	1	[0, 0, 0]	-999	PAL1	1	R1082N
254.384	0.0	1636446	TEST_PROBE	n/a	2	2	PLAYA	BALLENA	BALLENA	PLAYA	1	[0, 0, 0]	-999	PAL1	1	R1082N
254.384	1.231	1636446	REC_START	n/a	2	-999	n/a	BALLENA	n/a	n/a	1	[0, 0, 0]	-999	PAL1	1	R1082N
255.615	3.786	1637677	REC_EVENT	1231	2	2	PLAYA	BALLENA	BALLENA	PLAYA	1	[0, 0, 0]	-999	PAL1	1	R1082N
259.401	0.016	1641463	REC_END	n/a	2	-999	n/a	n/a	n/a	n/a	1	[0, 0, 0]	-999	PAL1	1	R1082N
259.417	0.95	1641479	TEST_ORIENT	n/a	5	3	ZAPATO	PASS	ZAPATO	CAMION	1	[0, 0, 0]	-999	PAL1	1	R1082N
260.367	0.001	1642429	TEST_PROBE	n/a	5	3	ZAPATO	PASS	ZAPATO	CAMION	1	[0, 0, 0]	-999	PAL1	1	R1082N
260.368	1.396	1642430	REC_START	n/a	5	-999	n/a	PASS	n/a	n/a	1	[0, 0, 0]	-999	PAL1	1	R1082N
261.764	3.628	1643826	REC_EVENT	1396	5	3	ZAPATO	PASS	ZAPATO	CAMION	1	[0, 0, 0]	-999	PAL1	1	R1082N
265.392	0.009	1647454	REC_END	n/a	5	-999	n/a	n/a	n/a	n/a	1	[0, 0, 0]	-999	PAL1	1	R1082N
265.401	0.967	1647463	TEST_ORIENT	n/a	4	4	GUARDIA	PASS	GUARDIA	TALLO	1	[0, 0, 0]	-999	PAL1	1	R1082N
266.368	0.0	1648430	REC_START	n/a	4	-999	n/a	PASS	n/a	n/a	1	[0, 0, 0]	-999	PAL1	1	R1082N
266.368	1.664	1648430	TEST_PROBE	n/a	4	4	GUARDIA	PASS	GUARDIA	TALLO	1	[0, 0, 0]	-999	PAL1	1	R1082N
268.032	3.353	1650094	REC_EVENT	1664	4	4	GUARDIA	PASS	GUARDIA	TALLO	1	[0, 0, 0]	-999	PAL1	1	R1082N
271.385	0.017	1653448	REC_END	n/a	4	-999	n/a	n/a	n/a	n/a	1	[0, 0, 0]	-999	PAL1	1	R1082N
271.402	0.883	1653465	TEST_ORIENT	n/a	1	5	CORREO	TECHO	BOTE	CORREO	1	[0, 0, 0]	-999	PAL1	1	R1082N
272.285	0.0	1654348	TEST_PROBE	n/a	1	5	CORREO	TECHO	BOTE	CORREO	1	[0, 0, 0]	-999	PAL1	1	R1082N
272.285	2.422	1654348	REC_START	n/a	1	-999	n/a	TECHO	n/a	n/a	1	[0, 0, 0]	-999	PAL1	1	R1082N
274.707	2.595	1656770	REC_EVENT	2422	1	5	CORREO	TECHO	BOTE	CORREO	1	[0, 0, 0]	-999	PAL1	1	R1082N
277.302	0.017	1659365	REC_END	n/a	1	-999	n/a	n/a	n/a	n/a	1	[0, 0, 0]	-999	PAL1	1	R1082N
277.319	0.883	1659382	TEST_ORIENT	n/a	6	6	PAPALOTE	PASS	SOL	PAPALOTE	1	[0, 0, 0]	-999	PAL1	1	R1082N
278.202	0.001	1660265	TEST_PROBE	n/a	6	6	PAPALOTE	PASS	SOL	PAPALOTE	1	[0, 0, 0]	-999	PAL1	1	R1082N
278.203	1.375	1660266	REC_START	n/a	6	-999	n/a	PASS	n/a	n/a	1	[0, 0, 0]	-999	PAL1	1	R1082N
279.578	3.641	1661641	REC_EVENT	1375	6	6	PAPALOTE	PASS	SOL	PAPALOTE	1	[0, 0, 0]	-999	PAL1	1	R1082N
283.219	0.034	1665282	REC_END	n/a	6	-999	n/a	n/a	n/a	n/a	1	[0, 0, 0]	-999	PAL1	1	R1082N
283.253	9.906	1665316	FEEDBACK_SHOW_ALL_PAIRS	n/a	6	-999	n/a	n/a	n/a	n/a	1	[0, 0, 0]	-999	PAL1	1	R1082N
293.159	10.446	1675223	ENCODING_START	n/a	0	-999	n/a	n/a	n/a	n/a	2	[0, 0, 0]	-999	PAL1	1	R1082N
303.605	0.799	1685669	STUDY_ORIENT	n/a	1	3	CORDEL	PASS	CORDEL	ZORRO	2	[0, 0, 0]	-999	PAL1	1	R1082N
304.404	5.034	1686468	STUDY_PAIR	n/a	1	3	CORDEL	PASS	CORDEL	ZORRO	2	[0, 0, 0]	-999	PAL1	1	R1082N
309.438	0.784	1691502	STUDY_ORIENT	n/a	2	6	SAL	BANO	BANO	SAL	2	[0, 0, 0]	-999	PAL1	1	R1082N
310.222	5.033	1692286	STUDY_PAIR	n/a	2	6	SAL	BANO	BANO	SAL	2	[0, 0, 0]	-999	PAL1	1	R1082N
315.255	0.85	1697320	STUDY_ORIENT	n/a	3	1	LOBO	n/a	JABON	LOBO	2	[0, 0, 0]	-999	PAL1	1	R1082N
316.105	5.034	1698170	STUDY_PAIR	n/a	3	1	LOBO	n/a	JABON	LOBO	2	[0, 0, 0]	-999	PAL1	1	R1082N
321.139	0.9	1703204	STUDY_ORIENT	n/a	4	2	CONCHA	PASS	FRUTA	CONCHA	2	[0, 0, 0]	-999	PAL1	1	R1082N
322.039	5.034	1704104	STUDY_PAIR	n/a	4	2	CONCHA	PASS	FRUTA	CONCHA	2	[0, 0, 0]	-999	PAL1	1	R1082N
327.073	1.017	1709138	STUDY_ORIENT	n/a	5	5	CARACOL	BASURA	BASURA	CARACOL	2	[0, 0, 0]	-999	PAL1	1	R1082N
328.09	5.033	1710155	STUDY_PAIR	n/a	5	5	CARACOL	BASURA	BASURA	CARACOL	2	[0, 0, 0]	-999	PAL1	1	R1082N
333.123	0.784	1715188	STUDY_ORIENT	n/a	6	4	CUERDA	ESCALERA	CUERDA	ESCALERA	2	[0, 0, 0]	-999	PAL1	1	R1082N
333.907	4.017	1715972	STUDY_PAIR	n/a	6	4	CUERDA	ESCALERA	CUERDA	ESCALERA	2	[0, 0, 0]	-999	PAL1	1	R1082N
337.924	1.0	1719990	START	n/a	-999	-999	n/a	n/a	n/a	n/a	2	[-999, -999, -999]	-999	PAL1	1	R1082N
338.924	0.017	1720990	MATH_START	n/a	-999	-999	n/a	n/a	n/a	n/a	2	[0, 0, 0]	-999	PAL1	1	R1082N
338.941	5.768	1721007	PROB	5735	-999	-999	n/a	n/a	n/a	n/a	2	[8, 1, 7]	16	PAL1	1	R1082N
344.709	4.649	1726775	PROB	4622	-999	-999	n/a	n/a	n/a	n/a	2	[3, 9, 2]	14	PAL1	1	R1082N
349.358	3.801	1731424	PROB	3780	-999	-999	n/a	n/a	n/a	n/a	2	[4, 6, 2]	12	PAL1	1	R1082N
353.159	3.733	1735225	PROB	3707	-999	-999	n/a	n/a	n/a	n/a	2	[2, 2, 7]	11	PAL1	1	R1082N
356.892	4.541	1738958	PROB	4541	-999	-999	n/a	n/a	n/a	n/a	2	[1, 8, 8]	17	PAL1	1	R1082N
361.433	0.009	1743500	STOP	n/a	-999	-999	n/a	n/a	n/a	n/a	2	[-999, -999, -999]	-999	PAL1	1	R1082N
361.442	0.0	1743509	MATH_END	n/a	-999	-999	n/a	n/a	n/a	n/a	2	[0, 0, 0]	-999	PAL1	1	R1082N
361.442	0.017	1743509	TEST_START	n/a	-999	-999	n/a	n/a	n/a	n/a	2	[0, 0, 0]	-999	PAL1	1	R1082N
361.459	0.917	1743526	TEST_ORIENT	n/a	3	1	LOBO	n/a	JABON	LOBO	2	[0, 0, 0]	-999	PAL1	1	R1082N
362.376	0.0	1744443	TEST_PROBE	n/a	3	1	LOBO	n/a	JABON	LOBO	2	[0, 0, 0]	-999	PAL1	1	R1082N
362.376	5.015	1744443	REC_START	n/a	3	-999	n/a	n/a	n/a	n/a	2	[0, 0, 0]	-999	PAL1	1	R1082N
367.391	0.002	1749458	REC_EVENT	5015	3	1	LOBO	<>	JABON	LOBO	2	[0, 0, 0]	-999	PAL1	1	R1082N
367.393	0.017	1749460	REC_END	n/a	3	-999	n/a	n/a	n/a	n/a	2	[0, 0, 0]	-999	PAL1	1	R1082N
367.41	0.833	1749477	TEST_ORIENT	n/a	4	2	CONCHA	PASS	FRUTA	CONCHA	2	[0, 0, 0]	-999	PAL1	1	R1082N
368.243	0.0	1750310	REC_START	n/a	4	-999	n/a	PASS	n/a	n/a	2	[0, 0, 0]	-999	PAL1	1	R1082N
368.243	1.904	1750310	TEST_PROBE	n/a	4	2	CONCHA	PASS	FRUTA	CONCHA	2	[0, 0, 0]	-999	PAL1	1	R1082N
370.147	3.113	1752214	REC_EVENT	1904	4	2	CONCHA	PASS	FRUTA	CONCHA	2	[0, 0, 0]	-999	PAL1	1	R1082N
373.26	0.017	1755327	REC_END	n/a	4	-999	n/a	n/a	n/a	n/a	2	[0, 0, 0]	-999	PAL1	1	R1082N
373.277	0.933	1755344	TEST_ORIENT	n/a	1	3	CORDEL	PASS	CORDEL	ZORRO	2	[0, 0, 0]	-999	PAL1	1	R1082N
374.21	0.001	1756277	TEST_PROBE	n/a	1	3	CORDEL	PASS	CORDEL	ZORRO	2	[0, 0, 0]	-999	PAL1	1	R1082N
374.211	3.222	1756278	REC_START	n/a	1	-999	n/a	PASS	n/a	n/a	2	[0, 0, 0]	-999	PAL1	1	R1082N
377.433	1.802	1759500	REC_EVENT	3222	1	3	CORDEL	PASS	CORDEL	ZORRO	2	[0, 0, 0]	-999	PAL1	1	R1082N
379.235	0.009	1761303	REC_END	n/a	1	-999	n/a	n/a	n/a	n/a	2	[0, 0, 0]	-999	PAL1	1	R1082N
379.244	1.033	1761312	TEST_ORIENT	n/a	6	4	CUERDA	ESCALERA	CUERDA	ESCALERA	2	[0, 0, 0]	-999	PAL1	1	R1082N
380.277	0.001	1762345	TEST_PROBE	n/a	6	4	CUERDA	ESCALERA	CUERDA	ESCALERA	2	[0, 0, 0]	-999	PAL1	1	R1082N
380.278	1.166	1762346	REC_START	n/a	6	-999	n/a	ESCALERA	n/a	n/a	2	[0, 0, 0]	-999	PAL1	1	R1082N
381.444	3.85	1763512	REC_EVENT	1166	6	4	CUERDA	ESCALERA	CUERDA	ESCALERA	2	[0, 0, 0]	-999	PAL1	1	R1082N
385.294	0.017	1767362	REC_END	n/a	6	-999	n/a	n/a	n/a	n/a	2	[0, 0, 0]	-999	PAL1	1	R1082N
385.311	1.0	1767379	TEST_ORIENT	n/a	5	5	CARACOL	BASURA	BASURA	CARACOL	2	[0, 0, 0]	-999	PAL1	1	R1082N
386.311	0.001	1768379	TEST_PROBE	n/a	5	5	CARACOL	BASURA	BASURA	CARACOL	2	[0, 0, 0]	-999	PAL1	1	R1082N
386.312	1.09	1768380	REC_START	n/a	5	-999	n/a	BASURA	n/a	n/a	2	[0, 0, 0]	-999	PAL1	1	R1082N
387.402	3.926	1769470	REC_EVENT	1090	5	5	CARACOL	BASURA	BASURA	CARACOL	2	[0, 0, 0]	-999	PAL1	1	R1082N
391.328	0.017	1773396	REC_END	n/a	5	-999	n/a	n/a	n/a	n/a	2	[0, 0, 0]	-999	PAL1	1	R1082N
391.345	0.917	1773413	TEST_ORIENT	n/a	2	6	SAL	BANO	BANO	SAL	2	[0, 0, 0]	-999	PAL1	1	R1082N
392.262	0.0	1774330	TEST_PROBE	n/a	2	6	SAL	BANO	BANO	SAL	2	[0, 0, 0]	-999	PAL1	1	R1082N
392.262	1.626	1774330	REC_START	n/a	2	-999	n/a	BANO	n/a	n/a	2	[0, 0, 0]	-999	PAL1	1	R1082N
393.888	3.391	1775956	REC_EVENT	1626	2	6	SAL	BANO	BANO	SAL	2	[0, 0, 0]	-999	PAL1	1	R1082N
397.279	0.033	1779347	REC_END	n/a	2	-999	n/a	n/a	n/a	n/a	2	[0, 0, 0]	-999	PAL1	1	R1082N
397.312	9.367	1779380	FEEDBACK_SHOW_ALL_PAIRS	n/a	2	-999	n/a	n/a	n/a	n/a	2	[0, 0, 0]	-999	PAL1	1	R1082N
406.679	10.451	1788748	ENCODING_START	n/a	0	-999	n/a	n/a	n/a	n/a	3	[0, 0, 0]	-999	PAL1	1	R1082N
417.13	0.984	1799199	STUDY_ORIENT	n/a	1	1	TOSTADA	PASS	COSTILLA	TOSTADA	3	[0, 0, 0]	-999	PAL1	1	R1082N
418.114	5.034	1800183	STUDY_PAIR	n/a	1	1	TOSTADA	PASS	COSTILLA	TOSTADA	3	[0, 0, 0]	-999	PAL1	1	R1082N
423.148	0.8	1805218	STUDY_ORIENT	n/a	2	4	FLORECER	PASS	FLORECER	SILLA	3	[0, 0, 0]	-999	PAL1	1	R1082N
423.948	5.033	1806018	STUDY_PAIR	n/a	2	4	FLORECER	PASS	FLORECER	SILLA	3	[0, 0, 0]	-999	PAL1	1	R1082N
428.981	0.917	1811051	STUDY_ORIENT	n/a	3	5	CUERVO	PASS	CUERVO	MAIZ	3	[0, 0, 0]	-999	PAL1	1	R1082N
429.898	5.034	1811968	STUDY_PAIR	n/a	3	5	CUERVO	PASS	CUERVO	MAIZ	3	[0, 0, 0]	-999	PAL1	1	R1082N
434.932	0.917	1817002	STUDY_ORIENT	n/a	4	6	LUNA	MONO	MONO	LUNA	3	[0, 0, 0]	-999	PAL1	1	R1082N
435.849	5.033	1817919	STUDY_PAIR	n/a	4	6	LUNA	MONO	MONO	LUNA	3	[0, 0, 0]	-999	PAL1	1	R1082N
440.882	0.967	1822952	STUDY_ORIENT	n/a	5	3	BANDERA	PASS	BANDERA	JAULA	3	[0, 0, 0]	-999	PAL1	1	R1082N
441.849	5.034	1823919	STUDY_PAIR	n/a	5	3	BANDERA	PASS	BANDERA	JAULA	3	[0, 0, 0]	-999	PAL1	1	R1082N
446.883	0.817	1828954	STUDY_ORIENT	n/a	6	2	GALLINA	TRAJE	GALLINA	PULGA	3	[0, 0, 0]	-999	PAL1	1	R1082N
447.7	4.001	1829771	STUDY_PAIR	n/a	6	2	GALLINA	TRAJE	GALLINA	PULGA	3	[0, 0, 0]	-999	PAL1	1	R1082N
451.701	1.0	1833772	START	n/a	-999	-999	n/a	n/a	n/a	n/a	3	[-999, -999, -999]	-999	PAL1	1	R1082N
452.701	0.017	1834772	MATH_START	n/a	-999	-999	n/a	n/a	n/a	n/a	3	[0, 0, 0]	-999	PAL1	1	R1082N
452.718	5.533	1834789	PROB	5507	-999	-999	n/a	n/a	n/a	n/a	3	[2, 2, 6]	10	PAL1	1	R1082N
458.251	3.717	1840322	PROB	3694	-999	-999	n/a	n/a	n/a	n/a	3	[6, 4, 9]	19	PAL1	1	R1082N
461.968	6.1	1844039	PROB	6072	-999	-999	n/a	n/a	n/a	n/a	3	[9, 2, 4]	15	PAL1	1	R1082N
468.068	3.4	1850140	PROB	3372	-999	-999	n/a	n/a	n/a	n/a	3	[3, 2, 1]	6	PAL1	1	R1082N
471.468	4.732	1853540	PROB	4732	-999	-999	n/a	n/a	n/a	n/a	3	[3, 2, 9]	14	PAL1	1	R1082N
476.2	0.002	1858272	STOP	n/a	-999	-999	n/a	n/a	n/a	n/a	3	[-999, -999, -999]	-999	PAL1	1	R1082N
476.202	0.0	1858274	MATH_END	n/a	-999	-999	n/a	n/a	n/a	n/a	3	[0, 0, 0]	-999	PAL1	1	R1082N
476.202	0.017	1858274	TEST_START	n/a	-999	-999	n/a	n/a	n/a	n/a	3	[0, 0, 0]	-999	PAL1	1	R1082N
476.219	0.95	1858291	TEST_ORIENT	n/a	1	1	TOSTADA	PASS	COSTILLA	TOSTADA	3	[0, 0, 0]	-999	PAL1	1	R1082N
477.169	0.0	1859241	TEST_PROBE	n/a	1	1	TOSTADA	PASS	COSTILLA	TOSTADA	3	[0, 0, 0]	-999	PAL1	1	R1082N
477.169	1.97	1859241	REC_START	n/a	1	-999	n/a	PASS	n/a	n/a	3	[0, 0, 0]	-999	PAL1	1	R1082N
479.139	3.047	1861211	REC_EVENT	1970	1	1	TOSTADA	PASS	COSTILLA	TOSTADA	3	[0, 0, 0]	-999	PAL1	1	R1082N
482.186	0.017	1864258	REC_END	n/a	1	-999	n/a	n/a	n/a	n/a	3	[0, 0, 0]	-999	PAL1	1	R1082N
482.203	0.983	1864275	TEST_ORIENT	n/a	6	2	GALLINA	TRAJE	GALLINA	PULGA	3	[0, 0, 0]	-999	PAL1	1	R1082N
483.186	0.001	1865258	TEST_PROBE	n/a	6	2	GALLINA	TRAJE	GALLINA	PULGA	3	[0, 0, 0]	-999	PAL1	1	R1082N
483.187	1.58	1865259	REC_START	n/a	6	-999	n/a	TRAJE	n/a	n/a	3	[0, 0, 0]	-999	PAL1	1	R1082N
484.767	3.445	1866839	REC_EVENT	1580	6	2	GALLINA	TRAJE	GALLINA	PULGA	3	[0, 0, 0]	-999	PAL1	1	R1082N
488.212	0.008	1870285	REC_END	n/a	6	-999	n/a	n/a	n/a	n/a	3	[0, 0, 0]	-999	PAL1	1	R1082N
488.22	0.933	1870293	TEST_ORIENT	n/a	5	3	BANDERA	PASS	BANDERA	JAULA	3	[0, 0, 0]	-999	PAL1	1	R1082N
489.153	0.0	1871226	TEST_PROBE	n/a	5	3	BANDERA	PASS	BANDERA	JAULA	3	[0, 0, 0]	-999	PAL1	1	R1082N
489.153	1.276	1871226	REC_START	n/a	5	-999	n/a	PASS	n/a	n/a	3	[0, 0, 0]	-999	PAL1	1	R1082N
490.429	3.741	1872502	REC_EVENT	1276	5	3	BANDERA	PASS	BANDERA	JAULA	3	[0, 0, 0]	-999	PAL1	1	R1082N
494.17	0.017	1876243	REC_END	n/a	5	-999	n/a	n/a	n/a	n/a	3	[0, 0, 0]	-999	PAL1	1	R1082N
494.187	0.833	1876260	TEST_ORIENT	n/a	2	4	FLORECER	PASS	FLORECER	SILLA	3	[0, 0, 0]	-999	PAL1	1	R1082N
495.02	0.001	1877093	TEST_PROBE	n/a	2	4	FLORECER	PASS	FLORECER	SILLA	3	[0, 0, 0]	-999	PAL1	1	R1082N
495.021	1.177	1877094	REC_START	n/a	2	-999	n/a	PASS	n/a	n/a	3	[0, 0, 0]	-999	PAL1	1	R1082N
496.198	3.849	1878271	REC_EVENT	1177	2	4	FLORECER	PASS	FLORECER	SILLA	3	[0, 0, 0]	-999	PAL1	1	R1082N
500.047	0.007	1882120	REC_END	n/a	2	-999	n/a	n/a	n/a	n/a	3	[0, 0, 0]	-999	PAL1	1	R1082N
500.054	0.817	1882127	TEST_ORIENT	n/a	3	5	CUERVO	PASS	CUERVO	MAIZ	3	[0, 0, 0]	-999	PAL1	1	R1082N
500.871	0.0	1882944	TEST_PROBE	n/a	3	5	CUERVO	PASS	CUERVO	MAIZ	3	[0, 0, 0]	-999	PAL1	1	R1082N
500.871	1.859	1882944	REC_START	n/a	3	-999	n/a	PASS	n/a	n/a	3	[0, 0, 0]	-999	PAL1	1	R1082N
502.73	3.158	1884803	REC_EVENT	1859	3	5	CUERVO	PASS	CUERVO	MAIZ	3	[0, 0, 0]	-999	PAL1	1	R1082N
505.888	0.017	1887961	REC_END	n/a	3	-999	n/a	n/a	n/a	n/a	3	[0, 0, 0]	-999	PAL1	1	R1082N
505.905	0.834	1887978	TEST_ORIENT	n/a	4	6	LUNA	MONO	MONO	LUNA	3	[0, 0, 0]	-999	PAL1	1	R1082N
506.739	0.0	1888812	TEST_PROBE	n/a	4	6	LUNA	MONO	MONO	LUNA	3	[0, 0, 0]	-999	PAL1	1	R1082N
506.739	1.1	1888812	REC_START	n/a	4	-999	n/a	MONO	n/a	n/a	3	[0, 0, 0]	-999	PAL1	1	R1082N
507.839	3.926	1889913	REC_EVENT	1100	4	6	LUNA	MONO	MONO	LUNA	3	[0, 0, 0]	-999	PAL1	1	R1082N
511.765	0.024	1893839	REC_END	n/a	4	-999	n/a	n/a	n/a	n/a	3	[0, 0, 0]	-999	PAL1	1	R1082N
511.789	9.463	1893863	FEEDBACK_SHOW_ALL_PAIRS	n/a	4	-999	n/a	n/a	n/a	n/a	3	[0, 0, 0]	-999	PAL1	1	R1082N
521.252	10.439	1903326	ENCODING_START	n/a	0	-999	n/a	n/a	n/a	n/a	4	[0, 0, 0]	-999	PAL1	1	R1082N
531.691	0.9	1913766	STUDY_ORIENT	n/a	1	3	VAPOR	PASS	VAPOR	ALCES	4	[0, 0, 0]	-999	PAL1	1	R1082N
532.591	5.034	1914666	STUDY_PAIR	n/a	1	3	VAPOR	PASS	VAPOR	ALCES	4	[0, 0, 0]	-999	PAL1	1	R1082N
537.625	0.816	1919700	STUDY_ORIENT	n/a	2	6	TREN	PASS	TREN	ESPUMA	4	[0, 0, 0]	-999	PAL1	1	R1082N
538.441	5.033	1920516	STUDY_PAIR	n/a	2	6	TREN	PASS	TREN	ESPUMA	4	[0, 0, 0]	-999	PAL1	1	R1082N
543.474	0.867	1925549	STUDY_ORIENT	n/a	3	5	TORMENTA	PASS	MANGA	TORMENTA	4	[0, 0, 0]	-999	PAL1	1	R1082N
544.341	5.034	1926416	STUDY_PAIR	n/a	3	5	TORMENTA	PASS	MANGA	TORMENTA	4	[0, 0, 0]	-999	PAL1	1	R1082N
549.375	0.867	1931450	STUDY_ORIENT	n/a	4	2	LAMPARA	TIZA	TIZA	LAMPARA	4	[0, 0, 0]	-999	PAL1	1	R1082N
550.242	5.033	1932317	STUDY_PAIR	n/a	4	2	LAMPARA	TIZA	TIZA	LAMPARA	4	[0, 0, 0]	-999	PAL1	1	R1082N
555.275	0.834	1937351	STUDY_ORIENT	n/a	5	1	PAN	PASS	BOLA	PAN	4	[0, 0, 0]	-999	PAL1	1	R1082N
556.109	5.033	1938185	STUDY_PAIR	n/a	5	1	PAN	PASS	BOLA	PAN	4	[0, 0, 0]	-999	PAL1	1	R1082N
561.142	0.884	1943218	STUDY_ORIENT	n/a	6	4	MONEDA	n/a	MONEDA	PALMA	4	[0, 0, 0]	-999	PAL1	1	R1082N
562.026	4.018	1944102	STUDY_PAIR	n/a	6	4	MONEDA	n/a	MONEDA	PALMA	4	[0, 0, 0]	-999	PAL1	1	R1082N
566.044	0.999	1948120	START	n/a	-999	-999	n/a	n/a	n/a	n/a	4	[-999, -999, -999]	-999	PAL1	1	R1082N
567.043	0.017	1949119	MATH_START	n/a	-999	-999	n/a	n/a	n/a	n/a	4	[0, 0, 0]	-999	PAL1	1	R1082N
567.06	5.15	1949136	PROB	5115	-999	-999	n/a	n/a	n/a	n/a	4	[1, 2, 9]	12	PAL1	1	R1082N
572.21	3.951	1954287	PROB	3925	-999	-999	n/a	n/a	n/a	n/a	4	[2, 6, 8]	16	PAL1	1	R1082N
576.161	2.766	1958238	PROB	2742	-999	-999	n/a	n/a	n/a	n/a	4	[5, 5, 1]	11	PAL1	1	R1082N
578.927	3.301	1961004	PROB	3271	-999	-999	n/a	n/a	n/a	n/a	4	[6, 7, 5]	18	PAL1	1	R1082N
582.228	3.986	1964305	PROB	3986	-999	-999	n/a	n/a	n/a	n/a	4	[2, 2, 4]	8	PAL1	1	R1082N
586.214	0.014	1968291	STOP	n/a	-999	-999	n/a	n/a	n/a	n/a	4	[-999, -999, -999]	-999	PAL1	1	R1082N
586.228	0.0	1968305	MATH_END	n/a	-999	-999	n/a	n/a	n/a	n/a	4	[0, 0, 0]	-999	PAL1	1	R1082N
586.228	0.017	1968305	TEST_START	n/a	-999	-999	n/a	n/a	n/a	n/a	4	[0, 0, 0]	-999	PAL1	1	R1082N
586.245	0.816	1968322	TEST_ORIENT	n/a	5	1	PAN	PASS	BOLA	PAN	4	[0, 0, 0]	-999	PAL1	1	R1082N
587.061	0.001	1969138	TEST_PROBE	n/a	5	1	PAN	PASS	BOLA	PAN	4	[0, 0, 0]	-999	PAL1	1	R1082N
587.062	2.097	1969139	REC_START	n/a	5	-999	n/a	PASS	n/a	n/a	4	[0, 0, 0]	-999	PAL1	1	R1082N
589.159	2.919	1971236	REC_EVENT	2097	5	1	PAN	PASS	BOLA	PAN	4	[0, 0, 0]	-999	PAL1	1	R1082N
592.078	0.017	1974155	REC_END	n/a	5	-999	n/a	n/a	n/a	n/a	4	[0, 0, 0]	-999	PAL1	1	R1082N
592.095	0.8	1974172	TEST_ORIENT	n/a	4	2	LAMPARA	TIZA	TIZA	LAMPARA	4	[0, 0, 0]	-999	PAL1	1	R1082N
592.895	0.001	1974972	TEST_PROBE	n/a	4	2	LAMPARA	TIZA	TIZA	LAMPARA	4	[0, 0, 0]	-999	PAL1	1	R1082N
592.896	1.264	1974973	REC_START	n/a	4	-999	n/a	TIZA	n/a	n/a	4	[0, 0, 0]	-999	PAL1	1	R1082N
594.16	3.752	1976238	REC_EVENT	1264	4	2	LAMPARA	TIZA	TIZA	LAMPARA	4	[0, 0, 0]	-999	PAL1	1	R1082N
597.912	0.017	1979990	REC_END	n/a	4	-999	n/a	n/a	n/a	n/a	4	[0, 0, 0]	-999	PAL1	1	R1082N
597.929	1.0	1980007	TEST_ORIENT	n/a	1	3	VAPOR	PASS	VAPOR	ALCES	4	[0, 0, 0]	-999	PAL1	1	R1082N
598.929	0.001	1981007	TEST_PROBE	n/a	1	3	VAPOR	PASS	VAPOR	ALCES	4	[0, 0, 0]	-999	PAL1	1	R1082N
598.93	3.015	1981008	REC_START	n/a	1	-999	n/a	PASS	n/a	n/a	4	[0, 0, 0]	-999	PAL1	1	R1082N
601.945	2.011	1984023	REC_EVENT	3015	1	3	VAPOR	PASS	VAPOR	ALCES	4	[0, 0, 0]	-999	PAL1	1	R1082N
603.956	0.007	1986034	REC_END	n/a	1	-999	n/a	n/a	n/a	n/a	4	[0, 0, 0]	-999	PAL1	1	R1082N
603.963	0.95	1986041	TEST_ORIENT	n/a	6	4	MONEDA	n/a	MONEDA	PALMA	4	[0, 0, 0]	-999	PAL1	1	R1082N
604.913	0.0	1986991	TEST_PROBE	n/a	6	4	MONEDA	n/a	MONEDA	PALMA	4	[0, 0, 0]	-999	PAL1	1	R1082N
604.913	5.017	1986991	REC_START	n/a	6	-999	n/a	n/a	n/a	n/a	4	[0, 0, 0]	-999	PAL1	1	R1082N
609.93	0.004	1992008	REC_END	n/a	6	-999	n/a	n/a	n/a	n/a	4	[0, 0, 0]	-999	PAL1	1	R1082N
609.934	0.013	1992012	REC_EVENT	5021	6	4	MONEDA	<>	MONEDA	PALMA	4	[0, 0, 0]	-999	PAL1	1	R1082N
609.947	0.817	1992025	TEST_ORIENT	n/a	3	5	TORMENTA	PASS	MANGA	TORMENTA	4	[0, 0, 0]	-999	PAL1	1	R1082N
610.764	0.001	1992842	TEST_PROBE	n/a	3	5	TORMENTA	PASS	MANGA	TORMENTA	4	[0, 0, 0]	-999	PAL1	1	R1082N
610.765	1.674	1992843	REC_START	n/a	3	-999	n/a	PASS	n/a	n/a	4	[0, 0, 0]	-999	PAL1	1	R1082N
612.439	3.335	1994517	REC_EVENT	1674	3	5	TORMENTA	PASS	MANGA	TORMENTA	4	[0, 0, 0]	-999	PAL1	1	R1082N
615.774	0.008	1997853	REC_END	n/a	3	-999	n/a	n/a	n/a	n/a	4	[0, 0, 0]	-999	PAL1	1	R1082N
615.782	0.983	1997861	TEST_ORIENT	n/a	2	6	TREN	PASS	TREN	ESPUMA	4	[0, 0, 0]	-999	PAL1	1	R1082N
616.765	0.0	1998844	TEST_PROBE	n/a	2	6	TREN	PASS	TREN	ESPUMA	4	[0, 0, 0]	-999	PAL1	1	R1082N
616.765	1.774	1998844	REC_START	n/a	2	-999	n/a	PASS	n/a	n/a	4	[0, 0, 0]	-999	PAL1	1	R1082N
618.539	3.243	2000618	REC_EVENT	1774	2	6	TREN	PASS	TREN	ESPUMA	4	[0, 0, 0]	-999	PAL1	1	R1082N
621.782	0.033	2003861	REC_END	n/a	2	-999	n/a	n/a	n/a	n/a	4	[0, 0, 0]	-999	PAL1	1	R1082N
621.815	11.595	2003894	FEEDBACK_SHOW_ALL_PAIRS	n/a	2	-999	n/a	n/a	n/a	n/a	4	[0, 0, 0]	-999	PAL1	1	R1082N
633.41	10.44	2015489	ENCODING_START	n/a	0	-999	n/a	n/a	n/a	n/a	5	[0, 0, 0]	-999	PAL1	1	R1082N
643.85	0.8	2025930	STUDY_ORIENT	n/a	1	5	CATRE	CASA	CASA	CATRE	5	[0, 0, 0]	-999	PAL1	1	R1082N
644.65	5.018	2026730	STUDY_PAIR	n/a	1	5	CATRE	CASA	CASA	CATRE	5	[0, 0, 0]	-999	PAL1	1	R1082N
649.668	0.815	2031748	STUDY_ORIENT	n/a	2	6	PELICULA	n/a	PASTA	PELICULA	5	[0, 0, 0]	-999	PAL1	1	R1082N
650.483	5.034	2032563	STUDY_PAIR	n/a	2	6	PELICULA	n/a	PASTA	PELICULA	5	[0, 0, 0]	-999	PAL1	1	R1082N
655.517	0.767	2037597	STUDY_ORIENT	n/a	3	3	COLA	BARCO	COLA	BARCO	5	[0, 0, 0]	-999	PAL1	1	R1082N
656.284	5.034	2038364	STUDY_PAIR	n/a	3	3	COLA	BARCO	COLA	BARCO	5	[0, 0, 0]	-999	PAL1	1	R1082N
661.318	0.983	2043399	STUDY_ORIENT	n/a	4	2	EFECTIVO	TABLERO	EFECTIVO	TABLERO	5	[0, 0, 0]	-999	PAL1	1	R1082N
662.301	5.034	2044382	STUDY_PAIR	n/a	4	2	EFECTIVO	TABLERO	EFECTIVO	TABLERO	5	[0, 0, 0]	-999	PAL1	1	R1082N
667.335	0.833	2049416	STUDY_ORIENT	n/a	5	1	CUERNO	PASS	CORBATA	CUERNO	5	[0, 0, 0]	-999	PAL1	1	R1082N
668.168	5.034	2050249	STUDY_PAIR	n/a	5	1	CUERNO	PASS	CORBATA	CUERNO	5	[0, 0, 0]	-999	PAL1	1	R1082N
673.202	0.817	2055283	STUDY_ORIENT	n/a	6	4	CUADRADO	SOMBRERO	CUADRADO	SOMBRERO	5	[0, 0, 0]	-999	PAL1	1	R1082N
674.019	4.017	2056100	STUDY_PAIR	n/a	6	4	CUADRADO	SOMBRERO	CUADRADO	SOMBRERO	5	[0, 0, 0]	-999	PAL1	1	R1082N
678.036	1.0	2060117	START	n/a	-999	-999	n/a	n/a	n/a	n/a	5	[-999, -999, -999]	-999	PAL1	1	R1082N
679.036	0.017	2061117	MATH_START	n/a	-999	-999	n/a	n/a	n/a	n/a	5	[0, 0, 0]	-999	PAL1	1	R1082N
679.053	4.534	2061135	PROB	4505	-999	-999	n/a	n/a	n/a	n/a	5	[4, 2, 7]	13	PAL1	1	R1082N
683.587	3.666	2065669	PROB	3642	-999	-999	n/a	n/a	n/a	n/a	5	[6, 1, 5]	12	PAL1	1	R1082N
687.253	3.817	2069335	PROB	3792	-999	-999	n/a	n/a	n/a	n/a	5	[9, 9, 6]	24	PAL1	1	R1082N
691.07	3.884	2073152	PROB	3863	-999	-999	n/a	n/a	n/a	n/a	5	[4, 6, 1]	11	PAL1	1	R1082N
694.954	3.979	2077036	PROB	3979	-999	-999	n/a	n/a	n/a	n/a	5	[8, 6, 4]	18	PAL1	1	R1082N
698.933	0.005	2081015	STOP	n/a	-999	-999	n/a	n/a	n/a	n/a	5	[-999, -999, -999]	-999	PAL1	1	R1082N
698.938	0.0	2081020	MATH_END	n/a	-999	-999	n/a	n/a	n/a	n/a	5	[0, 0, 0]	-999	PAL1	1	R1082N
698.938	0.016	2081020	TEST_START	n/a	-999	-999	n/a	n/a	n/a	n/a	5	[0, 0, 0]	-999	PAL1	1	R1082N
698.954	1.034	2081036	TEST_ORIENT	n/a	5	1	CUERNO	PASS	CORBATA	CUERNO	5	[0, 0, 0]	-999	PAL1	1	R1082N
699.988	0.0	2082070	TEST_PROBE	n/a	5	1	CUERNO	PASS	CORBATA	CUERNO	5	[0, 0, 0]	-999	PAL1	1	R1082N
699.988	4.07	2082070	REC_START	n/a	5	-999	n/a	PASS	n/a	n/a	5	[0, 0, 0]	-999	PAL1	1	R1082N
704.058	0.947	2086141	REC_EVENT	4070	5	1	CUERNO	PASS	CORBATA	CUERNO	5	[0, 0, 0]	-999	PAL1	1	R1082N
705.005	0.016	2087088	REC_END	n/a	5	-999	n/a	n/a	n/a	n/a	5	[0, 0, 0]	-999	PAL1	1	R1082N
705.021	0.867	2087104	TEST_ORIENT	n/a	4	2	EFECTIVO	TABLERO	EFECTIVO	TABLERO	5	[0, 0, 0]	-999	PAL1	1	R1082N
705.888	0.0	2087971	TEST_PROBE	n/a	4	2	EFECTIVO	TABLERO	EFECTIVO	TABLERO	5	[0, 0, 0]	-999	PAL1	1	R1082N
705.888	1.626	2087971	REC_START	n/a	4	-999	n/a	TABLERO	n/a	n/a	5	[0, 0, 0]	-999	PAL1	1	R1082N
707.514	1.36	2089597	REC_EVENT	1626	4	2	EFECTIVO	<>	EFECTIVO	TABLERO	5	[0, 0, 0]	-999	PAL1	1	R1082N
708.874	2.031	2090957	REC_EVENT	2986	4	2	EFECTIVO	TABLERO	EFECTIVO	TABLERO	5	[0, 0, 0]	-999	PAL1	1	R1082N
710.905	0.017	2092988	REC_END	n/a	4	-999	n/a	n/a	n/a	n/a	5	[0, 0, 0]	-999	PAL1	1	R1082N
710.922	0.868	2093005	TEST_ORIENT	n/a	3	3	COLA	BARCO	COLA	BARCO	5	[0, 0, 0]	-999	PAL1	1	R1082N
711.79	0.0	2093873	TEST_PROBE	n/a	3	3	COLA	BARCO	COLA	BARCO	5	[0, 0, 0]	-999	PAL1	1	R1082N
711.79	2.796	2093873	REC_START	n/a	3	-999	n/a	BARCO	n/a	n/a	5	[0, 0, 0]	-999	PAL1	1	R1082N
714.586	2.227	2096669	REC_EVENT	2796	3	3	COLA	BARCO	COLA	BARCO	5	[0, 0, 0]	-999	PAL1	1	R1082N
716.813	0.01	2098896	REC_END	n/a	3	-999	n/a	n/a	n/a	n/a	5	[0, 0, 0]	-999	PAL1	1	R1082N
716.823	0.95	2098906	TEST_ORIENT	n/a	6	4	CUADRADO	SOMBRERO	CUADRADO	SOMBRERO	5	[0, 0, 0]	-999	PAL1	1	R1082N
717.773	0.001	2099856	TEST_PROBE	n/a	6	4	CUADRADO	SOMBRERO	CUADRADO	SOMBRERO	5	[0, 0, 0]	-999	PAL1	1	R1082N
717.774	1.406	2099857	REC_START	n/a	6	-999	n/a	SOMBRERO	n/a	n/a	5	[0, 0, 0]	-999	PAL1	1	R1082N
719.18	3.61	2101263	REC_EVENT	1406	6	4	CUADRADO	SOMBRERO	CUADRADO	SOMBRERO	5	[0, 0, 0]	-999	PAL1	1	R1082N
722.79	0.017	2104874	REC_END	n/a	6	-999	n/a	n/a	n/a	n/a	5	[0, 0, 0]	-999	PAL1	1	R1082N
722.807	0.85	2104891	TEST_ORIENT	n/a	1	5	CATRE	CASA	CASA	CATRE	5	[0, 0, 0]	-999	PAL1	1	R1082N
723.657	0.002	2105741	TEST_PROBE	n/a	1	5	CATRE	CASA	CASA	CATRE	5	[0, 0, 0]	-999	PAL1	1	R1082N
723.659	0.861	2105743	REC_START	n/a	1	-999	n/a	CASA	n/a	n/a	5	[0, 0, 0]	-999	PAL1	1	R1082N
724.52	4.154	2106604	REC_EVENT	861	1	5	CATRE	CASA	CASA	CATRE	5	[0, 0, 0]	-999	PAL1	1	R1082N
728.674	0.017	2110758	REC_END	n/a	1	-999	n/a	n/a	n/a	n/a	5	[0, 0, 0]	-999	PAL1	1	R1082N
728.691	0.983	2110775	TEST_ORIENT	n/a	2	6	PELICULA	n/a	PASTA	PELICULA	5	[0, 0, 0]	-999	PAL1	1	R1082N
729.674	0.001	2111758	TEST_PROBE	n/a	2	6	PELICULA	n/a	PASTA	PELICULA	5	[0, 0, 0]	-999	PAL1	1	R1082N
729.675	2.283	2111759	REC_START	n/a	2	-999	n/a	n/a	n/a	n/a	5	[0, 0, 0]	-999	PAL1	1	R1082N
731.958	2.733	2114042	REC_EVENT	2283	2	6	PELICULA	<>	PASTA	PELICULA	5	[0, 0, 0]	-999	PAL1	1	R1082N
734.691	0.034	2116775	REC_END	n/a	2	-999	n/a	n/a	n/a	n/a	5	[0, 0, 0]	-999	PAL1	1	R1082N
734.725	8.901	2116809	FEEDBACK_SHOW_ALL_PAIRS	n/a	2	-999	n/a	n/a	n/a	n/a	5	[0, 0, 0]	-999	PAL1	1	R1082N
743.626	10.449	2125711	ENCODING_START	n/a	0	-999	n/a	n/a	n/a	n/a	6	[0, 0, 0]	-999	PAL1	1	R1082N
754.075	0.817	2136160	STUDY_ORIENT	n/a	1	3	TAZON	PASS	TAZON	JEEP	6	[0, 0, 0]	-999	PAL1	1	R1082N
754.892	5.034	2136977	STUDY_PAIR	n/a	1	3	TAZON	PASS	TAZON	JEEP	6	[0, 0, 0]	-999	PAL1	1	R1082N
759.926	0.817	2142011	STUDY_ORIENT	n/a	2	6	ORO	PASS	PERRO	ORO	6	[0, 0, 0]	-999	PAL1	1	R1082N
760.743	5.018	2142828	STUDY_PAIR	n/a	2	6	ORO	PASS	PERRO	ORO	6	[0, 0, 0]	-999	PAL1	1	R1082N
765.761	0.799	2147847	STUDY_ORIENT	n/a	3	5	HIERBA	NIDO	ESCUELA	HIERBA	6	[0, 0, 0]	-999	PAL1	1	R1082N
766.56	5.035	2148646	STUDY_PAIR	n/a	3	5	HIERBA	NIDO	ESCUELA	HIERBA	6	[0, 0, 0]	-999	PAL1	1	R1082N
771.595	0.932	2153681	STUDY_ORIENT	n/a	4	2	MASCOTA	CABRA	CABRA	MASCOTA	6	[0, 0, 0]	-999	PAL1	1	R1082N
772.527	5.034	2154613	STUDY_PAIR	n/a	4	2	MASCOTA	CABRA	CABRA	MASCOTA	6	[0, 0, 0]	-999	PAL1	1	R1082N
777.561	0.983	2159647	STUDY_ORIENT	n/a	5	1	MUELLE	PASS	MUELLE	PERLA	6	[0, 0, 0]	-999	PAL1	1	R1082N
778.544	5.035	2160630	STUDY_PAIR	n/a	5	1	MUELLE	PASS	MUELLE	PERLA	6	[0, 0, 0]	-999	PAL1	1	R1082N
783.579	0.965	2165665	STUDY_ORIENT	n/a	6	4	PAYASO	PASS	PAYASO	POLILLA	6	[0, 0, 0]	-999	PAL1	1	R1082N
784.544	4.001	2166630	STUDY_PAIR	n/a	6	4	PAYASO	PASS	PAYASO	POLILLA	6	[0, 0, 0]	-999	PAL1	1	R1082N
788.545	1.0	2170632	START	n/a	-999	-999	n/a	n/a	n/a	n/a	6	[-999, -999, -999]	-999	PAL1	1	R1082N
789.545	0.017	2171632	MATH_START	n/a	-999	-999	n/a	n/a	n/a	n/a	6	[0, 0, 0]	-999	PAL1	1	R1082N
789.562	4.151	2171649	PROB	4131	-999	-999	n/a	n/a	n/a	n/a	6	[3, 1, 7]	11	PAL1	1	R1082N
793.713	4.034	2175800	PROB	4012	-999	-999	n/a	n/a	n/a	n/a	6	[3, 8, 7]	18	PAL1	1	R1082N
797.747	4.116	2179834	PROB	4082	-999	-999	n/a	n/a	n/a	n/a	6	[7, 1, 8]	16	PAL1	1	R1082N
801.863	3.633	2183950	PROB	3612	-999	-999	n/a	n/a	n/a	n/a	6	[2, 6, 3]	11	PAL1	1	R1082N
805.496	5.875	2187583	PROB	5875	-999	-999	n/a	n/a	n/a	n/a	6	[2, 9, 4]	15	PAL1	1	R1082N
811.371	0.009	2193459	STOP	n/a	-999	-999	n/a	n/a	n/a	n/a	6	[-999, -999, -999]	-999	PAL1	1	R1082N
811.38	0.0	2193468	MATH_END	n/a	-999	-999	n/a	n/a	n/a	n/a	6	[0, 0, 0]	-999	PAL1	1	R1082N
811.38	0.017	2193468	TEST_START	n/a	-999	-999	n/a	n/a	n/a	n/a	6	[0, 0, 0]	-999	PAL1	1	R1082N
811.397	0.9	2193485	TEST_ORIENT	n/a	5	1	MUELLE	PASS	MUELLE	PERLA	6	[0, 0, 0]	-999	PAL1	1	R1082N
812.297	0.0	2194385	TEST_PROBE	n/a	5	1	MUELLE	PASS	MUELLE	PERLA	6	[0, 0, 0]	-999	PAL1	1	R1082N
812.297	2.256	2194385	REC_START	n/a	5	-999	n/a	PASS	n/a	n/a	6	[0, 0, 0]	-999	PAL1	1	R1082N
814.553	2.761	2196641	REC_EVENT	2256	5	1	MUELLE	PASS	MUELLE	PERLA	6	[0, 0, 0]	-999	PAL1	1	R1082N
817.314	0.017	2199402	REC_END	n/a	5	-999	n/a	n/a	n/a	n/a	6	[0, 0, 0]	-999	PAL1	1	R1082N
817.331	0.816	2199419	TEST_ORIENT	n/a	4	2	MASCOTA	CABRA	CABRA	MASCOTA	6	[0, 0, 0]	-999	PAL1	1	R1082N
818.147	0.001	2200235	TEST_PROBE	n/a	4	2	MASCOTA	CABRA	CABRA	MASCOTA	6	[0, 0, 0]	-999	PAL1	1	R1082N
818.148	1.502	2200236	REC_START	n/a	4	-999	n/a	CABRA	n/a	n/a	6	[0, 0, 0]	-999	PAL1	1	R1082N
819.65	3.515	2201738	REC_EVENT	1502	4	2	MASCOTA	CABRA	CABRA	MASCOTA	6	[0, 0, 0]	-999	PAL1	1	R1082N
823.165	0.016	2205253	REC_END	n/a	4	-999	n/a	n/a	n/a	n/a	6	[0, 0, 0]	-999	PAL1	1	R1082N
823.181	1.034	2205269	TEST_ORIENT	n/a	1	3	TAZON	PASS	TAZON	JEEP	6	[0, 0, 0]	-999	PAL1	1	R1082N
824.215	0.0	2206303	REC_START	n/a	1	-999	n/a	PASS	n/a	n/a	6	[0, 0, 0]	-999	PAL1	1	R1082N
824.215	1.461	2206303	TEST_PROBE	n/a	1	3	TAZON	PASS	TAZON	JEEP	6	[0, 0, 0]	-999	PAL1	1	R1082N
825.676	3.556	2207764	REC_EVENT	1461	1	3	TAZON	PASS	TAZON	JEEP	6	[0, 0, 0]	-999	PAL1	1	R1082N
829.232	0.016	2211320	REC_END	n/a	1	-999	n/a	n/a	n/a	n/a	6	[0, 0, 0]	-999	PAL1	1	R1082N
829.248	0.85	2211336	TEST_ORIENT	n/a	6	4	PAYASO	PASS	PAYASO	POLILLA	6	[0, 0, 0]	-999	PAL1	1	R1082N
830.098	0.001	2212187	TEST_PROBE	n/a	6	4	PAYASO	PASS	PAYASO	POLILLA	6	[0, 0, 0]	-999	PAL1	1	R1082N
830.099	2.995	2212188	REC_START	n/a	6	-999	n/a	PASS	n/a	n/a	6	[0, 0, 0]	-999	PAL1	1	R1082N
833.094	2.013	2215183	REC_EVENT	2995	6	4	PAYASO	PASS	PAYASO	POLILLA	6	[0, 0, 0]	-999	PAL1	1	R1082N
835.107	0.009	2217196	REC_END	n/a	6	-999	n/a	n/a	n/a	n/a	6	[0, 0, 0]	-999	PAL1	1	R1082N
835.116	0.833	2217205	TEST_ORIENT	n/a	3	5	HIERBA	NIDO	ESCUELA	HIERBA	6	[0, 0, 0]	-999	PAL1	1	R1082N
835.949	0.001	2218038	TEST_PROBE	n/a	3	5	HIERBA	NIDO	ESCUELA	HIERBA	6	[0, 0, 0]	-999	PAL1	1	R1082N
835.95	3.327	2218039	REC_START	n/a	3	-999	n/a	NIDO	n/a	n/a	6	[0, 0, 0]	-999	PAL1	1	R1082N
839.277	1.697	2221366	REC_EVENT	3327	3	5	HIERBA	NIDO	ESCUELA	HIERBA	6	[0, 0, 0]	-999	PAL1	1	R1082N
840.974	0.009	2223063	REC_END	n/a	3	-999	n/a	n/a	n/a	n/a	6	[0, 0, 0]	-999	PAL1	1	R1082N
840.983	0.916	2223072	TEST_ORIENT	n/a	2	6	ORO	PASS	PERRO	ORO	6	[0, 0, 0]	-999	PAL1	1	R1082N
841.899	0.001	2223988	TEST_PROBE	n/a	2	6	ORO	PASS	PERRO	ORO	6	[0, 0, 0]	-999	PAL1	1	R1082N
841.9	1.379	2223989	REC_START	n/a	2	-999	n/a	PASS	n/a	n/a	6	[0, 0, 0]	-999	PAL1	1	R1082N
843.279	3.637	2225368	REC_EVENT	1379	2	6	ORO	PASS	PERRO	ORO	6	[0, 0, 0]	-999	PAL1	1	R1082N
846.916	0.034	2229005	REC_END	n/a	2	-999	n/a	n/a	n/a	n/a	6	[0, 0, 0]	-999	PAL1	1	R1082N
846.95	8.913	2229039	FEEDBACK_SHOW_ALL_PAIRS	n/a	2	-999	n/a	n/a	n/a	n/a	6	[0, 0, 0]	-999	PAL1	1	R1082N
855.863	10.439	2237953	ENCODING_START	n/a	0	-999	n/a	n/a	n/a	n/a	7	[0, 0, 0]	-999	PAL1	1	R1082N
866.302	0.833	2248392	STUDY_ORIENT	n/a	1	3	ZANJA	PASS	ZANJA	VENTILADOR	7	[0, 0, 0]	-999	PAL1	1	R1082N
867.135	5.034	2249225	STUDY_PAIR	n/a	1	3	ZANJA	PASS	ZANJA	VENTILADOR	7	[0, 0, 0]	-999	PAL1	1	R1082N
872.169	0.816	2254259	STUDY_ORIENT	n/a	2	4	ESCOBA	n/a	ESCOBA	CHISPA	7	[0, 0, 0]	-999	PAL1	1	R1082N
872.985	5.034	2255076	STUDY_PAIR	n/a	2	4	ESCOBA	n/a	ESCOBA	CHISPA	7	[0, 0, 0]	-999	PAL1	1	R1082N
878.019	0.884	2260110	STUDY_ORIENT	n/a	3	5	NARIZ	PASS	NARIZ	VESTIDO	7	[0, 0, 0]	-999	PAL1	1	R1082N
878.903	5.033	2260994	STUDY_PAIR	n/a	3	5	NARIZ	PASS	NARIZ	VESTIDO	7	[0, 0, 0]	-999	PAL1	1	R1082N
883.936	0.801	2266027	STUDY_ORIENT	n/a	4	6	BARRO	PASTEL	BARRO	PASTEL	7	[0, 0, 0]	-999	PAL1	1	R1082N
884.737	5.034	2266828	STUDY_PAIR	n/a	4	6	BARRO	PASTEL	BARRO	PASTEL	7	[0, 0, 0]	-999	PAL1	1	R1082N
889.771	0.984	2271862	STUDY_ORIENT	n/a	5	1	VID	PASS	VID	ARCA	7	[0, 0, 0]	-999	PAL1	1	R1082N
890.755	5.033	2272846	STUDY_PAIR	n/a	5	1	VID	PASS	VID	ARCA	7	[0, 0, 0]	-999	PAL1	1	R1082N
895.788	0.934	2277880	STUDY_ORIENT	n/a	6	2	CONO	PASS	CONO	BOCA	7	[0, 0, 0]	-999	PAL1	1	R1082N
896.722	4.017	2278814	STUDY_PAIR	n/a	6	2	CONO	PASS	CONO	BOCA	7	[0, 0, 0]	-999	PAL1	1	R1082N
900.739	1.0	2282831	START	n/a	-999	-999	n/a	n/a	n/a	n/a	7	[-999, -999, -999]	-999	PAL1	1	R1082N
901.739	0.017	2283831	MATH_START	n/a	-999	-999	n/a	n/a	n/a	n/a	7	[0, 0, 0]	-999	PAL1	1	R1082N
901.756	4.017	2283848	PROB	3984	-999	-999	n/a	n/a	n/a	n/a	7	[3, 7, 7]	17	PAL1	1	R1082N
905.773	4.282	2287865	PROB	4261	-999	-999	n/a	n/a	n/a	n/a	7	[5, 8, 6]	19	PAL1	1	R1082N
910.055	4.367	2292147	PROB	4339	-999	-999	n/a	n/a	n/a	n/a	7	[8, 9, 5]	22	PAL1	1	R1082N
914.422	3.034	2296514	PROB	3012	-999	-999	n/a	n/a	n/a	n/a	7	[7, 2, 2]	11	PAL1	1	R1082N
917.456	3.953	2299549	PROB	3953	-999	-999	n/a	n/a	n/a	n/a	7	[4, 1, 8]	13	PAL1	1	R1082N
921.409	0.014	2303502	STOP	n/a	-999	-999	n/a	n/a	n/a	n/a	7	[-999, -999, -999]	-999	PAL1	1	R1082N
921.423	0.0	2303516	MATH_END	n/a	-999	-999	n/a	n/a	n/a	n/a	7	[0, 0, 0]	-999	PAL1	1	R1082N
921.423	0.016	2303516	TEST_START	n/a	-999	-999	n/a	n/a	n/a	n/a	7	[0, 0, 0]	-999	PAL1	1	R1082N
921.439	1.017	2303532	TEST_ORIENT	n/a	5	1	VID	PASS	VID	ARCA	7	[0, 0, 0]	-999	PAL1	1	R1082N
922.456	0.0	2304549	REC_START	n/a	5	-999	n/a	PASS	n/a	n/a	7	[0, 0, 0]	-999	PAL1	1	R1082N
922.456	2.615	2304549	TEST_PROBE	n/a	5	1	VID	PASS	VID	ARCA	7	[0, 0, 0]	-999	PAL1	1	R1082N
925.071	2.402	2307164	REC_EVENT	2615	5	1	VID	PASS	VID	ARCA	7	[0, 0, 0]	-999	PAL1	1	R1082N
927.473	0.017	2309566	REC_END	n/a	5	-999	n/a	n/a	n/a	n/a	7	[0, 0, 0]	-999	PAL1	1	R1082N
927.49	0.95	2309583	TEST_ORIENT	n/a	6	2	CONO	PASS	CONO	BOCA	7	[0, 0, 0]	-999	PAL1	1	R1082N
928.44	0.001	2310533	TEST_PROBE	n/a	6	2	CONO	PASS	CONO	BOCA	7	[0, 0, 0]	-999	PAL1	1	R1082N
928.441	1.872	2310534	REC_START	n/a	6	-999	n/a	PASS	n/a	n/a	7	[0, 0, 0]	-999	PAL1	1	R1082N
930.313	3.153	2312406	REC_EVENT	1872	6	2	CONO	PASS	CONO	BOCA	7	[0, 0, 0]	-999	PAL1	1	R1082N
933.466	0.008	2315559	REC_END	n/a	6	-999	n/a	n/a	n/a	n/a	7	[0, 0, 0]	-999	PAL1	1	R1082N
933.474	0.916	2315567	TEST_ORIENT	n/a	1	3	ZANJA	PASS	ZANJA	VENTILADOR	7	[0, 0, 0]	-999	PAL1	1	R1082N
934.39	0.001	2316483	TEST_PROBE	n/a	1	3	ZANJA	PASS	ZANJA	VENTILADOR	7	[0, 0, 0]	-999	PAL1	1	R1082N
934.391	2.808	2316484	REC_START	n/a	1	-999	n/a	PASS	n/a	n/a	7	[0, 0, 0]	-999	PAL1	1	R1082N
937.199	2.218	2319293	REC_EVENT	2808	1	3	ZANJA	PASS	ZANJA	VENTILADOR	7	[0, 0, 0]	-999	PAL1	1	R1082N
939.417	0.007	2321511	REC_END	n/a	1	-999	n/a	n/a	n/a	n/a	7	[0, 0, 0]	-999	PAL1	1	R1082N
939.424	0.984	2321518	TEST_ORIENT	n/a	2	4	ESCOBA	n/a	ESCOBA	CHISPA	7	[0, 0, 0]	-999	PAL1	1	R1082N
940.408	0.0	2322502	TEST_PROBE	n/a	2	4	ESCOBA	n/a	ESCOBA	CHISPA	7	[0, 0, 0]	-999	PAL1	1	R1082N
940.408	1.72	2322502	REC_START	n/a	2	-999	n/a	n/a	n/a	n/a	7	[0, 0, 0]	-999	PAL1	1	R1082N
942.128	3.297	2324222	REC_EVENT	1720	2	4	ESCOBA	<>	ESCOBA	CHISPA	7	[0, 0, 0]	-999	PAL1	1	R1082N
945.425	0.017	2327519	REC_END	n/a	2	-999	n/a	n/a	n/a	n/a	7	[0, 0, 0]	-999	PAL1	1	R1082N
945.442	0.85	2327536	TEST_ORIENT	n/a	3	5	NARIZ	PASS	NARIZ	VESTIDO	7	[0, 0, 0]	-999	PAL1	1	R1082N
946.292	0.0	2328386	TEST_PROBE	n/a	3	5	NARIZ	PASS	NARIZ	VESTIDO	7	[0, 0, 0]	-999	PAL1	1	R1082N
946.292	3.034	2328386	REC_START	n/a	3	-999	n/a	PASS	n/a	n/a	7	[0, 0, 0]	-999	PAL1	1	R1082N
949.326	1.983	2331420	REC_EVENT	3034	3	5	NARIZ	PASS	NARIZ	VESTIDO	7	[0, 0, 0]	-999	PAL1	1	R1082N
951.309	0.016	2333403	REC_END	n/a	3	-999	n/a	n/a	n/a	n/a	7	[0, 0, 0]	-999	PAL1	1	R1082N
951.325	0.8	2333419	TEST_ORIENT	n/a	4	6	BARRO	PASTEL	BARRO	PASTEL	7	[0, 0, 0]	-999	PAL1	1	R1082N
952.125	0.001	2334219	TEST_PROBE	n/a	4	6	BARRO	PASTEL	BARRO	PASTEL	7	[0, 0, 0]	-999	PAL1	1	R1082N
952.126	1.1	2334220	REC_START	n/a	4	-999	n/a	PASTEL	n/a	n/a	7	[0, 0, 0]	-999	PAL1	1	R1082N
953.226	3.916	2335320	REC_EVENT	1100	4	6	BARRO	PASTEL	BARRO	PASTEL	7	[0, 0, 0]	-999	PAL1	1	R1082N
957.142	0.034	2339236	REC_END	n/a	4	-999	n/a	n/a	n/a	n/a	7	[0, 0, 0]	-999	PAL1	1	R1082N
957.176	9.941	2339270	FEEDBACK_SHOW_ALL_PAIRS	n/a	4	-999	n/a	n/a	n/a	n/a	7	[0, 0, 0]	-999	PAL1	1	R1082N
967.117	10.444	2349212	ENCODING_START	n/a	0	-999	n/a	n/a	n/a	n/a	8	[0, 0, 0]	-999	PAL1	1	R1082N
977.561	1.0	2359656	STUDY_ORIENT	n/a	1	3	DEDO	n/a	DEDO	ESPADA	8	[0, 0, 0]	-999	PAL1	1	R1082N
978.561	5.035	2360656	STUDY_PAIR	n/a	1	3	DEDO	n/a	DEDO	ESPADA	8	[0, 0, 0]	-999	PAL1	1	R1082N
983.596	0.865	2365692	STUDY_ORIENT	n/a	2	4	GANSOS	SERPIENTE	GANSOS	SERPIENTE	8	[0, 0, 0]	-999	PAL1	1	R1082N
984.461	5.034	2366557	STUDY_PAIR	n/a	2	4	GANSOS	SERPIENTE	GANSOS	SERPIENTE	8	[0, 0, 0]	-999	PAL1	1	R1082N
989.495	0.934	2371591	STUDY_ORIENT	n/a	3	5	ASIENTO	PASS	PAGINA	ASIENTO	8	[0, 0, 0]	-999	PAL1	1	R1082N
990.429	5.033	2372525	STUDY_PAIR	n/a	3	5	ASIENTO	PASS	PAGINA	ASIENTO	8	[0, 0, 0]	-999	PAL1	1	R1082N
995.462	0.817	2377558	STUDY_ORIENT	n/a	4	2	ANGUILA	PASS	ANGUILA	TARRO	8	[0, 0, 0]	-999	PAL1	1	R1082N
996.279	5.034	2378375	STUDY_PAIR	n/a	4	2	ANGUILA	PASS	ANGUILA	TARRO	8	[0, 0, 0]	-999	PAL1	1	R1082N
1001.313	0.95	2383410	STUDY_ORIENT	n/a	5	1	CALLE	PASS	CAMARON	CALLE	8	[0, 0, 0]	-999	PAL1	1	R1082N
1002.263	5.034	2384360	STUDY_PAIR	n/a	5	1	CALLE	PASS	CAMARON	CALLE	8	[0, 0, 0]	-999	PAL1	1	R1082N
1007.297	1.016	2389394	STUDY_ORIENT	n/a	6	6	GRANERO	PASS	OVEJA	GRANERO	8	[0, 0, 0]	-999	PAL1	1	R1082N
1008.313	4.018	2390410	STUDY_PAIR	n/a	6	6	GRANERO	PASS	OVEJA	GRANERO	8	[0, 0, 0]	-999	PAL1	1	R1082N
1012.331	1.0	2394428	START	n/a	-999	-999	n/a	n/a	n/a	n/a	8	[-999, -999, -999]	-999	PAL1	1	R1082N
1013.331	0.016	2395428	MATH_START	n/a	-999	-999	n/a	n/a	n/a	n/a	8	[0, 0, 0]	-999	PAL1	1	R1082N
1013.347	5.452	2395444	PROB	5423	-999	-999	n/a	n/a	n/a	n/a	8	[9, 3, 1]	13	PAL1	1	R1082N
1018.799	3.499	2400896	PROB	3474	-999	-999	n/a	n/a	n/a	n/a	8	[1, 6, 1]	8	PAL1	1	R1082N
1022.298	3.15	2404395	PROB	3118	-999	-999	n/a	n/a	n/a	n/a	8	[1, 3, 5]	9	PAL1	1	R1082N
1025.448	4.401	2407546	PROB	4377	-999	-999	n/a	n/a	n/a	n/a	8	[9, 7, 6]	22	PAL1	1	R1082N
1029.849	3.175	2411947	PROB	3175	-999	-999	n/a	n/a	n/a	n/a	8	[2, 3, 3]	8	PAL1	1	R1082N
1033.024	0.008	2415122	STOP	n/a	-999	-999	n/a	n/a	n/a	n/a	8	[-999, -999, -999]	-999	PAL1	1	R1082N
1033.032	0.0	2415130	MATH_END	n/a	-999	-999	n/a	n/a	n/a	n/a	8	[0, 0, 0]	-999	PAL1	1	R1082N
1033.032	0.017	2415130	TEST_START	n/a	-999	-999	n/a	n/a	n/a	n/a	8	[0, 0, 0]	-999	PAL1	1	R1082N
1033.049	1.017	2415147	TEST_ORIENT	n/a	5	1	CALLE	PASS	CAMARON	CALLE	8	[0, 0, 0]	-999	PAL1	1	R1082N
1034.066	0.0	2416164	TEST_PROBE	n/a	5	1	CALLE	PASS	CAMARON	CALLE	8	[0, 0, 0]	-999	PAL1	1	R1082N
1034.066	2.224	2416164	REC_START	n/a	5	-999	n/a	PASS	n/a	n/a	8	[0, 0, 0]	-999	PAL1	1	R1082N
1036.29	2.793	2418388	REC_EVENT	2224	5	1	CALLE	PASS	CAMARON	CALLE	8	[0, 0, 0]	-999	PAL1	1	R1082N
1039.083	0.016	2421181	REC_END	n/a	5	-999	n/a	n/a	n/a	n/a	8	[0, 0, 0]	-999	PAL1	1	R1082N
1039.099	0.8	2421197	TEST_ORIENT	n/a	4	2	ANGUILA	PASS	ANGUILA	TARRO	8	[0, 0, 0]	-999	PAL1	1	R1082N
1039.899	0.001	2421997	TEST_PROBE	n/a	4	2	ANGUILA	PASS	ANGUILA	TARRO	8	[0, 0, 0]	-999	PAL1	1	R1082N
1039.9	2.031	2421998	REC_START	n/a	4	-999	n/a	PASS	n/a	n/a	8	[0, 0, 0]	-999	PAL1	1	R1082N
1041.931	2.985	2424029	REC_EVENT	2031	4	2	ANGUILA	PASS	ANGUILA	TARRO	8	[0, 0, 0]	-999	PAL1	1	R1082N
1044.916	0.017	2427015	REC_END	n/a	4	-999	n/a	n/a	n/a	n/a	8	[0, 0, 0]	-999	PAL1	1	R1082N
1044.933	0.934	2427032	TEST_ORIENT	n/a	1	3	DEDO	n/a	DEDO	ESPADA	8	[0, 0, 0]	-999	PAL1	1	R1082N
1045.867	0.0	2427966	TEST_PROBE	n/a	1	3	DEDO	n/a	DEDO	ESPADA	8	[0, 0, 0]	-999	PAL1	1	R1082N
1045.867	0.913	2427966	REC_START	n/a	1	-999	n/a	n/a	n/a	n/a	8	[0, 0, 0]	-999	PAL1	1	R1082N
1046.78	4.104	2428879	REC_EVENT	913	1	3	DEDO	<>	DEDO	ESPADA	8	[0, 0, 0]	-999	PAL1	1	R1082N
1050.884	0.016	2432983	REC_END	n/a	1	-999	n/a	n/a	n/a	n/a	8	[0, 0, 0]	-999	PAL1	1	R1082N
1050.9	0.885	2432999	TEST_ORIENT	n/a	2	4	GANSOS	SERPIENTE	GANSOS	SERPIENTE	8	[0, 0, 0]	-999	PAL1	1	R1082N
1051.785	0.0	2433884	TEST_PROBE	n/a	2	4	GANSOS	SERPIENTE	GANSOS	SERPIENTE	8	[0, 0, 0]	-999	PAL1	1	R1082N
1051.785	1.665	2433884	REC_START	n/a	2	-999	n/a	SERPIENTE	n/a	n/a	8	[0, 0, 0]	-999	PAL1	1	R1082N
1053.45	3.352	2435549	REC_EVENT	1665	2	4	GANSOS	SERPIENTE	GANSOS	SERPIENTE	8	[0, 0, 0]	-999	PAL1	1	R1082N
1056.802	0.017	2438901	REC_END	n/a	2	-999	n/a	n/a	n/a	n/a	8	[0, 0, 0]	-999	PAL1	1	R1082N
1056.819	0.916	2438918	TEST_ORIENT	n/a	3	5	ASIENTO	PASS	PAGINA	ASIENTO	8	[0, 0, 0]	-999	PAL1	1	R1082N
1057.735	0.0	2439834	TEST_PROBE	n/a	3	5	ASIENTO	PASS	PAGINA	ASIENTO	8	[0, 0, 0]	-999	PAL1	1	R1082N
1057.735	1.367	2439834	REC_START	n/a	3	-999	n/a	PASS	n/a	n/a	8	[0, 0, 0]	-999	PAL1	1	R1082N
1059.102	3.65	2441201	REC_EVENT	1367	3	5	ASIENTO	PASS	PAGINA	ASIENTO	8	[0, 0, 0]	-999	PAL1	1	R1082N
1062.752	0.017	2444851	REC_END	n/a	3	-999	n/a	n/a	n/a	n/a	8	[0, 0, 0]	-999	PAL1	1	R1082N
1062.769	0.983	2444868	TEST_ORIENT	n/a	6	6	GRANERO	PASS	OVEJA	GRANERO	8	[0, 0, 0]	-999	PAL1	1	R1082N
1063.752	0.001	2445851	TEST_PROBE	n/a	6	6	GRANERO	PASS	OVEJA	GRANERO	8	[0, 0, 0]	-999	PAL1	1	R1082N
1063.753	1.525	2445852	REC_START	n/a	6	-999	n/a	PASS	n/a	n/a	8	[0, 0, 0]	-999	PAL1	1	R1082N
1065.278	3.491	2447377	REC_EVENT	1525	6	6	GRANERO	PASS	OVEJA	GRANERO	8	[0, 0, 0]	-999	PAL1	1	R1082N
1068.769	0.034	2450869	REC_END	n/a	6	-999	n/a	n/a	n/a	n/a	8	[0, 0, 0]	-999	PAL1	1	R1082N
1068.803	804.557	2450903	FEEDBACK_SHOW_ALL_PAIRS	n/a	6	-999	n/a	n/a	n/a	n/a	8	[0, 0, 0]	-999	PAL1	1	R1082N
1873.36	10.445	3255497	ENCODING_START	n/a	0	-999	n/a	n/a	n/a	n/a	9	[0, 0, 0]	-999	PAL1	1	R1082N
1883.805	0.933	3265943	STUDY_ORIENT	n/a	1	1	ESTUFA	PASS	VENADO	ESTUFA	9	[0, 0, 0]	-999	PAL1	1	R1082N
1884.738	5.034	3266876	STUDY_PAIR	n/a	1	1	ESTUFA	PASS	VENADO	ESTUFA	9	[0, 0, 0]	-999	PAL1	1	R1082N
1889.772	1.016	3271910	STUDY_ORIENT	n/a	2	4	HIELO	PASS	AVE	HIELO	9	[0, 0, 0]	-999	PAL1	1	R1082N
1890.788	5.034	3272926	STUDY_PAIR	n/a	2	4	HIELO	PASS	AVE	HIELO	9	[0, 0, 0]	-999	PAL1	1	R1082N
1895.822	0.85	3277960	STUDY_ORIENT	n/a	3	5	HOJA	PASS	HOJA	ARROZ	9	[0, 0, 0]	-999	PAL1	1	R1082N
1896.672	5.034	3278810	STUDY_PAIR	n/a	3	5	HOJA	PASS	HOJA	ARROZ	9	[0, 0, 0]	-999	PAL1	1	R1082N
1901.706	0.883	3283844	STUDY_ORIENT	n/a	4	6	DIENTE	CASA	DIENTE	JET	9	[0, 0, 0]	-999	PAL1	1	R1082N
1902.589	5.034	3284728	STUDY_PAIR	n/a	4	6	DIENTE	CASA	DIENTE	JET	9	[0, 0, 0]	-999	PAL1	1	R1082N
1907.623	0.833	3289762	STUDY_ORIENT	n/a	5	3	SONRISA	PANTANO	SONRISA	PANTANO	9	[0, 0, 0]	-999	PAL1	1	R1082N
1908.456	5.033	3290595	STUDY_PAIR	n/a	5	3	SONRISA	PANTANO	SONRISA	PANTANO	9	[0, 0, 0]	-999	PAL1	1	R1082N
1913.489	0.917	3295628	STUDY_ORIENT	n/a	6	2	HALCON	ARBOL	HALCON	ARBOL	9	[0, 0, 0]	-999	PAL1	1	R1082N
1914.406	4.018	3296545	STUDY_PAIR	n/a	6	2	HALCON	ARBOL	HALCON	ARBOL	9	[0, 0, 0]	-999	PAL1	1	R1082N
1918.424	0.999	3300563	START	n/a	-999	-999	n/a	n/a	n/a	n/a	9	[-999, -999, -999]	-999	PAL1	1	R1082N
1919.423	0.017	3301562	MATH_START	n/a	-999	-999	n/a	n/a	n/a	n/a	9	[0, 0, 0]	-999	PAL1	1	R1082N
1919.44	6.235	3301579	PROB	6204	-999	-999	n/a	n/a	n/a	n/a	9	[8, 4, 3]	15	PAL1	1	R1082N
1925.675	5.733	3307815	PROB	5704	-999	-999	n/a	n/a	n/a	n/a	9	[5, 5, 6]	16	PAL1	1	R1082N
1931.408	3.717	3313548	PROB	3690	-999	-999	n/a	n/a	n/a	n/a	9	[6, 2, 4]	12	PAL1	1	R1082N
1935.125	4.125	3317265	PROB	4125	-999	-999	n/a	n/a	n/a	n/a	9	[3, 9, 1]	13	PAL1	1	R1082N
1939.25	0.008	3321390	STOP	n/a	-999	-999	n/a	n/a	n/a	n/a	9	[-999, -999, -999]	-999	PAL1	1	R1082N
1939.258	0.0	3321398	TEST_START	n/a	-999	-999	n/a	n/a	n/a	n/a	9	[0, 0, 0]	-999	PAL1	1	R1082N
1939.258	0.017	3321398	MATH_END	n/a	-999	-999	n/a	n/a	n/a	n/a	9	[0, 0, 0]	-999	PAL1	1	R1082N
1939.275	0.917	3321415	TEST_ORIENT	n/a	1	1	ESTUFA	PASS	VENADO	ESTUFA	9	[0, 0, 0]	-999	PAL1	1	R1082N
1940.192	0.0	3322332	TEST_PROBE	n/a	1	1	ESTUFA	PASS	VENADO	ESTUFA	9	[0, 0, 0]	-999	PAL1	1	R1082N
1940.192	3.715	3322332	REC_START	n/a	1	-999	n/a	PASS	n/a	n/a	9	[0, 0, 0]	-999	PAL1	1	R1082N
1943.907	1.302	3326047	REC_EVENT	3715	1	1	ESTUFA	PASS	VENADO	ESTUFA	9	[0, 0, 0]	-999	PAL1	1	R1082N
1945.209	0.016	3327350	REC_END	n/a	1	-999	n/a	n/a	n/a	n/a	9	[0, 0, 0]	-999	PAL1	1	R1082N
1945.225	1.034	3327366	TEST_ORIENT	n/a	6	2	HALCON	ARBOL	HALCON	ARBOL	9	[0, 0, 0]	-999	PAL1	1	R1082N
1946.259	0.0	3328400	TEST_PROBE	n/a	6	2	HALCON	ARBOL	HALCON	ARBOL	9	[0, 0, 0]	-999	PAL1	1	R1082N
1946.259	0.964	3328400	REC_START	n/a	6	-999	n/a	ARBOL	n/a	n/a	9	[0, 0, 0]	-999	PAL1	1	R1082N
1947.223	4.053	3329364	REC_EVENT	964	6	2	HALCON	ARBOL	HALCON	ARBOL	9	[0, 0, 0]	-999	PAL1	1	R1082N
1951.276	0.017	3333417	REC_END	n/a	6	-999	n/a	n/a	n/a	n/a	9	[0, 0, 0]	-999	PAL1	1	R1082N
1951.293	0.866	3333434	TEST_ORIENT	n/a	5	3	SONRISA	PANTANO	SONRISA	PANTANO	9	[0, 0, 0]	-999	PAL1	1	R1082N
1952.159	0.001	3334300	TEST_PROBE	n/a	5	3	SONRISA	PANTANO	SONRISA	PANTANO	9	[0, 0, 0]	-999	PAL1	1	R1082N
1952.16	2.07	3334301	REC_START	n/a	5	-999	n/a	PANTANO	n/a	n/a	9	[0, 0, 0]	-999	PAL1	1	R1082N
1954.23	2.955	3336371	REC_EVENT	2070	5	3	SONRISA	PANTANO	SONRISA	PANTANO	9	[0, 0, 0]	-999	PAL1	1	R1082N
1957.185	0.008	3339326	REC_END	n/a	5	-999	n/a	n/a	n/a	n/a	9	[0, 0, 0]	-999	PAL1	1	R1082N
1957.193	1.034	3339334	TEST_ORIENT	n/a	2	4	HIELO	PASS	AVE	HIELO	9	[0, 0, 0]	-999	PAL1	1	R1082N
1958.227	0.0	3340368	REC_START	n/a	2	-999	n/a	PASS	n/a	n/a	9	[0, 0, 0]	-999	PAL1	1	R1082N
1958.227	1.405	3340368	TEST_PROBE	n/a	2	4	HIELO	PASS	AVE	HIELO	9	[0, 0, 0]	-999	PAL1	1	R1082N
1959.632	3.611	3341773	REC_EVENT	1405	2	4	HIELO	PASS	AVE	HIELO	9	[0, 0, 0]	-999	PAL1	1	R1082N
1963.243	0.017	3345384	REC_END	n/a	2	-999	n/a	n/a	n/a	n/a	9	[0, 0, 0]	-999	PAL1	1	R1082N
1963.26	0.9	3345401	TEST_ORIENT	n/a	3	5	HOJA	PASS	HOJA	ARROZ	9	[0, 0, 0]	-999	PAL1	1	R1082N
1964.16	0.001	3346301	TEST_PROBE	n/a	3	5	HOJA	PASS	HOJA	ARROZ	9	[0, 0, 0]	-999	PAL1	1	R1082N
1964.161	1.954	3346302	REC_START	n/a	3	-999	n/a	PASS	n/a	n/a	9	[0, 0, 0]	-999	PAL1	1	R1082N
1966.115	3.071	3348256	REC_EVENT	1954	3	5	HOJA	PASS	HOJA	ARROZ	9	[0, 0, 0]	-999	PAL1	1	R1082N
1969.186	0.008	3351328	REC_END	n/a	3	-999	n/a	n/a	n/a	n/a	9	[0, 0, 0]	-999	PAL1	1	R1082N
1969.194	0.967	3351336	TEST_ORIENT	n/a	4	6	DIENTE	CASA	DIENTE	JET	9	[0, 0, 0]	-999	PAL1	1	R1082N
1970.161	0.0	3352303	REC_START	n/a	4	-999	n/a	CASA	n/a	n/a	9	[0, 0, 0]	-999	PAL1	1	R1082N
1970.161	2.246	3352303	TEST_PROBE	n/a	4	6	DIENTE	CASA	DIENTE	JET	9	[0, 0, 0]	-999	PAL1	1	R1082N
1972.407	2.771	3354549	REC_EVENT	2246	4	6	DIENTE	CASA	DIENTE	JET	9	[0, 0, 0]	-999	PAL1	1	R1082N
1975.178	0.033	3357320	REC_END	n/a	4	-999	n/a	n/a	n/a	n/a	9	[0, 0, 0]	-999	PAL1	1	R1082N
1975.211	12.035	3357353	FEEDBACK_SHOW_ALL_PAIRS	n/a	4	-999	n/a	n/a	n/a	n/a	9	[0, 0, 0]	-999	PAL1	1	R1082N
1987.246	10.451	3369388	ENCODING_START	n/a	0	-999	n/a	n/a	n/a	n/a	10	[0, 0, 0]	-999	PAL1	1	R1082N
1997.697	0.984	3379840	STUDY_ORIENT	n/a	1	1	ANZUELO	PASS	CARRETERA	ANZUELO	10	[0, 0, 0]	-999	PAL1	1	R1082N
1998.681	5.034	3380824	STUDY_PAIR	n/a	1	1	ANZUELO	PASS	CARRETERA	ANZUELO	10	[0, 0, 0]	-999	PAL1	1	R1082N
2003.715	0.849	3385858	STUDY_ORIENT	n/a	2	6	PRINCIPE	PASS	PRINCIPE	ARBUSTO	10	[0, 0, 0]	-999	PAL1	1	R1082N
2004.564	5.034	3386707	STUDY_PAIR	n/a	2	6	PRINCIPE	PASS	PRINCIPE	ARBUSTO	10	[0, 0, 0]	-999	PAL1	1	R1082N
2009.598	0.833	3391742	STUDY_ORIENT	n/a	3	3	PALO	HUEVO	HUEVO	PALO	10	[0, 0, 0]	-999	PAL1	1	R1082N
2010.431	5.034	3392575	STUDY_PAIR	n/a	3	3	PALO	HUEVO	HUEVO	PALO	10	[0, 0, 0]	-999	PAL1	1	R1082N
2015.465	0.833	3397609	STUDY_ORIENT	n/a	4	2	PATO	PASS	TERRENO	PATO	10	[0, 0, 0]	-999	PAL1	1	R1082N
2016.298	5.034	3398442	STUDY_PAIR	n/a	4	2	PATO	PASS	TERRENO	PATO	10	[0, 0, 0]	-999	PAL1	1	R1082N
2021.332	0.783	3403476	STUDY_ORIENT	n/a	5	5	RATON	PASS	RATON	PERA	10	[0, 0, 0]	-999	PAL1	1	R1082N
2022.115	5.034	3404259	STUDY_PAIR	n/a	5	5	RATON	PASS	RATON	PERA	10	[0, 0, 0]	-999	PAL1	1	R1082N
2027.149	1.0	3409293	STUDY_ORIENT	n/a	6	4	SEMILLA	PASS	CORAZON	SEMILLA	10	[0, 0, 0]	-999	PAL1	1	R1082N
2028.149	4.017	3410293	STUDY_PAIR	n/a	6	4	SEMILLA	PASS	CORAZON	SEMILLA	10	[0, 0, 0]	-999	PAL1	1	R1082N
2032.166	1.0	3414311	START	n/a	-999	-999	n/a	n/a	n/a	n/a	10	[-999, -999, -999]	-999	PAL1	1	R1082N
2033.166	0.017	3415311	MATH_START	n/a	-999	-999	n/a	n/a	n/a	n/a	10	[0, 0, 0]	-999	PAL1	1	R1082N
2033.183	6.117	3415328	PROB	6090	-999	-999	n/a	n/a	n/a	n/a	10	[5, 2, 6]	13	PAL1	1	R1082N
2039.3	3.817	3421445	PROB	3797	-999	-999	n/a	n/a	n/a	n/a	10	[2, 3, 7]	12	PAL1	1	R1082N
2043.117	3.984	3425262	PROB	3964	-999	-999	n/a	n/a	n/a	n/a	10	[9, 5, 3]	17	PAL1	1	R1082N
2047.101	4.684	3429246	PROB	4660	-999	-999	n/a	n/a	n/a	n/a	10	[7, 3, 7]	17	PAL1	1	R1082N
2051.785	3.503	3433930	PROB	3503	-999	-999	n/a	n/a	n/a	n/a	10	[7, 4, 4]	15	PAL1	1	R1082N
2055.288	0.013	3437434	STOP	n/a	-999	-999	n/a	n/a	n/a	n/a	10	[-999, -999, -999]	-999	PAL1	1	R1082N
2055.301	0.0	3437447	TEST_START	n/a	-999	-999	n/a	n/a	n/a	n/a	10	[0, 0, 0]	-999	PAL1	1	R1082N
2055.301	0.017	3437447	MATH_END	n/a	-999	-999	n/a	n/a	n/a	n/a	10	[0, 0, 0]	-999	PAL1	1	R1082N
2055.318	0.817	3437464	TEST_ORIENT	n/a	1	1	ANZUELO	PASS	CARRETERA	ANZUELO	10	[0, 0, 0]	-999	PAL1	1	R1082N
2056.135	0.0	3438281	TEST_PROBE	n/a	1	1	ANZUELO	PASS	CARRETERA	ANZUELO	10	[0, 0, 0]	-999	PAL1	1	R1082N
2056.135	2.236	3438281	REC_START	n/a	1	-999	n/a	PASS	n/a	n/a	10	[0, 0, 0]	-999	PAL1	1	R1082N
2058.371	2.79	3440517	REC_EVENT	2236	1	1	ANZUELO	PASS	CARRETERA	ANZUELO	10	[0, 0, 0]	-999	PAL1	1	R1082N
2061.161	0.007	3443307	REC_END	n/a	1	-999	n/a	n/a	n/a	n/a	10	[0, 0, 0]	-999	PAL1	1	R1082N
2061.168	0.817	3443314	TEST_ORIENT	n/a	4	2	PATO	PASS	TERRENO	PATO	10	[0, 0, 0]	-999	PAL1	1	R1082N
2061.985	0.001	3444131	TEST_PROBE	n/a	4	2	PATO	PASS	TERRENO	PATO	10	[0, 0, 0]	-999	PAL1	1	R1082N
2061.986	3.265	3444132	REC_START	n/a	4	-999	n/a	PASS	n/a	n/a	10	[0, 0, 0]	-999	PAL1	1	R1082N
2065.251	1.761	3447397	REC_EVENT	3265	4	2	PATO	PASS	TERRENO	PATO	10	[0, 0, 0]	-999	PAL1	1	R1082N
2067.012	0.007	3449158	REC_END	n/a	4	-999	n/a	n/a	n/a	n/a	10	[0, 0, 0]	-999	PAL1	1	R1082N
2067.019	0.801	3449165	TEST_ORIENT	n/a	3	3	PALO	HUEVO	HUEVO	PALO	10	[0, 0, 0]	-999	PAL1	1	R1082N
2067.82	0.001	3449966	TEST_PROBE	n/a	3	3	PALO	HUEVO	HUEVO	PALO	10	[0, 0, 0]	-999	PAL1	1	R1082N
2067.821	1.875	3449967	REC_START	n/a	3	-999	n/a	HUEVO	n/a	n/a	10	[0, 0, 0]	-999	PAL1	1	R1082N
2069.696	3.149	3451842	REC_EVENT	1875	3	3	PALO	HUEVO	HUEVO	PALO	10	[0, 0, 0]	-999	PAL1	1	R1082N
2072.845	0.007	3454991	REC_END	n/a	3	-999	n/a	n/a	n/a	n/a	10	[0, 0, 0]	-999	PAL1	1	R1082N
2072.852	1.018	3454998	TEST_ORIENT	n/a	6	4	SEMILLA	PASS	CORAZON	SEMILLA	10	[0, 0, 0]	-999	PAL1	1	R1082N
2073.87	0.0	3456016	REC_START	n/a	6	-999	n/a	PASS	n/a	n/a	10	[0, 0, 0]	-999	PAL1	1	R1082N
2073.87	1.859	3456016	TEST_PROBE	n/a	6	4	SEMILLA	PASS	CORAZON	SEMILLA	10	[0, 0, 0]	-999	PAL1	1	R1082N
2075.729	3.157	3457876	REC_EVENT	1859	6	4	SEMILLA	PASS	CORAZON	SEMILLA	10	[0, 0, 0]	-999	PAL1	1	R1082N
2078.886	0.017	3461033	REC_END	n/a	6	-999	n/a	n/a	n/a	n/a	10	[0, 0, 0]	-999	PAL1	1	R1082N
2078.903	0.95	3461050	TEST_ORIENT	n/a	5	5	RATON	PASS	RATON	PERA	10	[0, 0, 0]	-999	PAL1	1	R1082N
2079.853	0.001	3462000	TEST_PROBE	n/a	5	5	RATON	PASS	RATON	PERA	10	[0, 0, 0]	-999	PAL1	1	R1082N
2079.854	2.193	3462001	REC_START	n/a	5	-999	n/a	PASS	n/a	n/a	10	[0, 0, 0]	-999	PAL1	1	R1082N
2082.047	2.823	3464194	REC_EVENT	2193	5	5	RATON	PASS	RATON	PERA	10	[0, 0, 0]	-999	PAL1	1	R1082N
2084.87	0.017	3467017	REC_END	n/a	5	-999	n/a	n/a	n/a	n/a	10	[0, 0, 0]	-999	PAL1	1	R1082N
2084.887	1.033	3467034	TEST_ORIENT	n/a	2	6	PRINCIPE	PASS	PRINCIPE	ARBUSTO	10	[0, 0, 0]	-999	PAL1	1	R1082N
2085.92	0.001	3468067	TEST_PROBE	n/a	2	6	PRINCIPE	PASS	PRINCIPE	ARBUSTO	10	[0, 0, 0]	-999	PAL1	1	R1082N
2085.921	3.509	3468068	REC_START	n/a	2	-999	n/a	PASS	n/a	n/a	10	[0, 0, 0]	-999	PAL1	1	R1082N
2089.43	1.5	3471577	REC_EVENT	3509	2	6	PRINCIPE	PASS	PRINCIPE	ARBUSTO	10	[0, 0, 0]	-999	PAL1	1	R1082N
2090.93	0.041	3473077	REC_END	n/a	2	-999	n/a	n/a	n/a	n/a	10	[0, 0, 0]	-999	PAL1	1	R1082N
2090.971	8.658	3473118	FEEDBACK_SHOW_ALL_PAIRS	n/a	2	-999	n/a	n/a	n/a	n/a	10	[0, 0, 0]	-999	PAL1	1	R1082N
2099.629	10.444	3481777	ENCODING_START	n/a	0	-999	n/a	n/a	n/a	n/a	11	[0, 0, 0]	-999	PAL1	1	R1082N
2110.073	0.883	3492221	STUDY_ORIENT	n/a	1	5	TAPETE	PASS	LUNAR	TAPETE	11	[0, 0, 0]	-999	PAL1	1	R1082N
2110.956	5.034	3493104	STUDY_PAIR	n/a	1	5	TAPETE	PASS	LUNAR	TAPETE	11	[0, 0, 0]	-999	PAL1	1	R1082N
2115.99	0.883	3498138	STUDY_ORIENT	n/a	2	2	LABIO	PASS	LABIO	BOLSA	11	[0, 0, 0]	-999	PAL1	1	R1082N
2116.873	5.034	3499022	STUDY_PAIR	n/a	2	2	LABIO	PASS	LABIO	BOLSA	11	[0, 0, 0]	-999	PAL1	1	R1082N
2121.907	1.017	3504056	STUDY_ORIENT	n/a	3	3	ZOOLOGICO	NINO	NINO	ZOOLOGICO	11	[0, 0, 0]	-999	PAL1	1	R1082N
2122.924	5.033	3505073	STUDY_PAIR	n/a	3	3	ZOOLOGICO	NINO	NINO	ZOOLOGICO	11	[0, 0, 0]	-999	PAL1	1	R1082N
2127.957	0.95	3510106	STUDY_ORIENT	n/a	4	6	RED	CHALECO	RED	CHALECO	11	[0, 0, 0]	-999	PAL1	1	R1082N
2128.907	5.034	3511056	STUDY_PAIR	n/a	4	6	RED	CHALECO	RED	CHALECO	11	[0, 0, 0]	-999	PAL1	1	R1082N
2133.941	0.984	3516090	STUDY_ORIENT	n/a	5	1	FUERTE	LODO	LODO	FUERTE	11	[0, 0, 0]	-999	PAL1	1	R1082N
2134.925	5.033	3517074	STUDY_PAIR	n/a	5	1	FUERTE	LODO	LODO	FUERTE	11	[0, 0, 0]	-999	PAL1	1	R1082N
2139.958	0.984	3522108	STUDY_ORIENT	n/a	6	4	CAPA	LUNAR	CAPA	ESTERA	11	[0, 0, 0]	-999	PAL1	1	R1082N
2140.942	4.018	3523092	STUDY_PAIR	n/a	6	4	CAPA	LUNAR	CAPA	ESTERA	11	[0, 0, 0]	-999	PAL1	1	R1082N
2144.96	0.999	3527110	START	n/a	-999	-999	n/a	n/a	n/a	n/a	11	[-999, -999, -999]	-999	PAL1	1	R1082N
2145.959	0.017	3528109	MATH_START	n/a	-999	-999	n/a	n/a	n/a	n/a	11	[0, 0, 0]	-999	PAL1	1	R1082N
2145.976	4.818	3528126	PROB	4793	-999	-999	n/a	n/a	n/a	n/a	11	[7, 3, 3]	13	PAL1	1	R1082N
2150.794	4.983	3532944	PROB	4958	-999	-999	n/a	n/a	n/a	n/a	11	[9, 2, 5]	16	PAL1	1	R1082N
2155.777	4.216	3537927	PROB	4190	-999	-999	n/a	n/a	n/a	n/a	11	[7, 1, 6]	14	PAL1	1	R1082N
2159.993	6.606	3542144	PROB	6606	-999	-999	n/a	n/a	n/a	n/a	11	[4, 3, 9]	16	PAL1	1	R1082N
2166.599	0.013	3548750	STOP	n/a	-999	-999	n/a	n/a	n/a	n/a	11	[-999, -999, -999]	-999	PAL1	1	R1082N
2166.612	0.0	3548763	MATH_END	n/a	-999	-999	n/a	n/a	n/a	n/a	11	[0, 0, 0]	-999	PAL1	1	R1082N
2166.612	0.016	3548763	TEST_START	n/a	-999	-999	n/a	n/a	n/a	n/a	11	[0, 0, 0]	-999	PAL1	1	R1082N
2166.628	1.017	3548779	TEST_ORIENT	n/a	5	1	FUERTE	LODO	LODO	FUERTE	11	[0, 0, 0]	-999	PAL1	1	R1082N
2167.645	0.0	3549796	TEST_PROBE	n/a	5	1	FUERTE	LODO	LODO	FUERTE	11	[0, 0, 0]	-999	PAL1	1	R1082N
2167.645	2.095	3549796	REC_START	n/a	5	-999	n/a	LODO	n/a	n/a	11	[0, 0, 0]	-999	PAL1	1	R1082N
2169.74	2.922	3551891	REC_EVENT	2095	5	1	FUERTE	LODO	LODO	FUERTE	11	[0, 0, 0]	-999	PAL1	1	R1082N
2172.662	0.017	3554813	REC_END	n/a	5	-999	n/a	n/a	n/a	n/a	11	[0, 0, 0]	-999	PAL1	1	R1082N
2172.679	0.799	3554830	TEST_ORIENT	n/a	2	2	LABIO	PASS	LABIO	BOLSA	11	[0, 0, 0]	-999	PAL1	1	R1082N
2173.478	0.0	3555629	REC_START	n/a	2	-999	n/a	PASS	n/a	n/a	11	[0, 0, 0]	-999	PAL1	1	R1082N
2173.478	2.541	3555629	TEST_PROBE	n/a	2	2	LABIO	PASS	LABIO	BOLSA	11	[0, 0, 0]	-999	PAL1	1	R1082N
2176.019	2.476	3558170	REC_EVENT	2541	2	2	LABIO	PASS	LABIO	BOLSA	11	[0, 0, 0]	-999	PAL1	1	R1082N
2178.495	0.017	3560646	REC_END	n/a	2	-999	n/a	n/a	n/a	n/a	11	[0, 0, 0]	-999	PAL1	1	R1082N
2178.512	0.95	3560663	TEST_ORIENT	n/a	3	3	ZOOLOGICO	NINO	NINO	ZOOLOGICO	11	[0, 0, 0]	-999	PAL1	1	R1082N
2179.462	0.0	3561613	TEST_PROBE	n/a	3	3	ZOOLOGICO	NINO	NINO	ZOOLOGICO	11	[0, 0, 0]	-999	PAL1	1	R1082N
2179.462	0.777	3561613	REC_START	n/a	3	-999	n/a	NINO	n/a	n/a	11	[0, 0, 0]	-999	PAL1	1	R1082N
2180.239	4.24	3562390	REC_EVENT	777	3	3	ZOOLOGICO	NINO	NINO	ZOOLOGICO	11	[0, 0, 0]	-999	PAL1	1	R1082N
2184.479	0.016	3566631	REC_END	n/a	3	-999	n/a	n/a	n/a	n/a	11	[0, 0, 0]	-999	PAL1	1	R1082N
2184.495	0.884	3566647	TEST_ORIENT	n/a	6	4	CAPA	LUNAR	CAPA	ESTERA	11	[0, 0, 0]	-999	PAL1	1	R1082N
2185.379	0.0	3567531	REC_START	n/a	6	-999	n/a	LUNAR	n/a	n/a	11	[0, 0, 0]	-999	PAL1	1	R1082N
2185.379	2.502	3567531	TEST_PROBE	n/a	6	4	CAPA	LUNAR	CAPA	ESTERA	11	[0, 0, 0]	-999	PAL1	1	R1082N
2187.881	2.515	3570033	REC_EVENT	2502	6	4	CAPA	LUNAR	CAPA	ESTERA	11	[0, 0, 0]	-999	PAL1	1	R1082N
2190.396	0.017	3572548	REC_END	n/a	6	-999	n/a	n/a	n/a	n/a	11	[0, 0, 0]	-999	PAL1	1	R1082N
2190.413	0.95	3572565	TEST_ORIENT	n/a	1	5	TAPETE	PASS	LUNAR	TAPETE	11	[0, 0, 0]	-999	PAL1	1	R1082N
2191.363	0.0	3573515	TEST_PROBE	n/a	1	5	TAPETE	PASS	LUNAR	TAPETE	11	[0, 0, 0]	-999	PAL1	1	R1082N
2191.363	3.741	3573515	REC_START	n/a	1	-999	n/a	PASS	n/a	n/a	11	[0, 0, 0]	-999	PAL1	1	R1082N
2195.104	1.276	3577256	REC_EVENT	3741	1	5	TAPETE	PASS	LUNAR	TAPETE	11	[0, 0, 0]	-999	PAL1	1	R1082N
2196.38	0.016	3578532	REC_END	n/a	1	-999	n/a	n/a	n/a	n/a	11	[0, 0, 0]	-999	PAL1	1	R1082N
2196.396	0.801	3578548	TEST_ORIENT	n/a	4	6	RED	CHALECO	RED	CHALECO	11	[0, 0, 0]	-999	PAL1	1	R1082N
2197.197	0.0	3579349	TEST_PROBE	n/a	4	6	RED	CHALECO	RED	CHALECO	11	[0, 0, 0]	-999	PAL1	1	R1082N
2197.197	1.715	3579349	REC_START	n/a	4	-999	n/a	CHALECO	n/a	n/a	11	[0, 0, 0]	-999	PAL1	1	R1082N
2198.912	3.302	3581064	REC_EVENT	1715	4	6	RED	CHALECO	RED	CHALECO	11	[0, 0, 0]	-999	PAL1	1	R1082N
2202.214	0.033	3584366	REC_END	n/a	4	-999	n/a	n/a	n/a	n/a	11	[0, 0, 0]	-999	PAL1	1	R1082N
2202.247	19.691	3584399	FEEDBACK_SHOW_ALL_PAIRS	n/a	4	-999	n/a	n/a	n/a	n/a	11	[0, 0, 0]	-999	PAL1	1	R1082N
2221.938	10.445	3604091	ENCODING_START	n/a	0	-999	n/a	n/a	n/a	n/a	12	[0, 0, 0]	-999	PAL1	1	R1082N
2232.383	0.95	3614537	STUDY_ORIENT	n/a	1	5	SIGNO	PASS	SIGNO	PUENTE	12	[0, 0, 0]	-999	PAL1	1	R1082N
2233.333	5.034	3615487	STUDY_PAIR	n/a	1	5	SIGNO	PASS	SIGNO	PUENTE	12	[0, 0, 0]	-999	PAL1	1	R1082N
2238.367	0.933	3620521	STUDY_ORIENT	n/a	2	2	LLUVIA	n/a	LLUVIA	TIENDA	12	[0, 0, 0]	-999	PAL1	1	R1082N
2239.3	5.034	3621454	STUDY_PAIR	n/a	2	2	LLUVIA	n/a	LLUVIA	TIENDA	12	[0, 0, 0]	-999	PAL1	1	R1082N
2244.334	0.783	3626488	STUDY_ORIENT	n/a	3	3	SELLO	PASS	LIMO	SELLO	12	[0, 0, 0]	-999	PAL1	1	R1082N
2245.117	5.034	3627271	STUDY_PAIR	n/a	3	3	SELLO	PASS	LIMO	SELLO	12	[0, 0, 0]	-999	PAL1	1	R1082N
2250.151	0.883	3632306	STUDY_ORIENT	n/a	4	6	COLINA	n/a	RUEDA	COLINA	12	[0, 0, 0]	-999	PAL1	1	R1082N
2251.034	5.034	3633189	STUDY_PAIR	n/a	4	6	COLINA	n/a	RUEDA	COLINA	12	[0, 0, 0]	-999	PAL1	1	R1082N
2256.068	0.85	3638223	STUDY_ORIENT	n/a	5	1	PANTALONES	MADERA	MADERA	PANTALONES	12	[0, 0, 0]	-999	PAL1	1	R1082N
2256.918	5.034	3639073	STUDY_PAIR	n/a	5	1	PANTALONES	MADERA	MADERA	PANTALONES	12	[0, 0, 0]	-999	PAL1	1	R1082N
2261.952	1.017	3644107	STUDY_ORIENT	n/a	6	4	BASTON	CASA	BASTON	HABITACION	12	[0, 0, 0]	-999	PAL1	1	R1082N
2262.969	4.018	3645124	STUDY_PAIR	n/a	6	4	BASTON	CASA	BASTON	HABITACION	12	[0, 0, 0]	-999	PAL1	1	R1082N
2266.987	0.999	3649142	START	n/a	-999	-999	n/a	n/a	n/a	n/a	12	[-999, -999, -999]	-999	PAL1	1	R1082N
2267.986	0.016	3650142	MATH_START	n/a	-999	-999	n/a	n/a	n/a	n/a	12	[0, 0, 0]	-999	PAL1	1	R1082N
2268.002	11.885	3650158	PROB	11859	-999	-999	n/a	n/a	n/a	n/a	12	[8, 6, 9]	23	PAL1	1	R1082N
2279.887	4.734	3662043	PROB	4702	-999	-999	n/a	n/a	n/a	n/a	12	[9, 3, 5]	17	PAL1	1	R1082N
2284.621	10.286	3666777	PROB	10286	-999	-999	n/a	n/a	n/a	n/a	12	[2, 4, 4]	10	PAL1	1	R1082N
2294.907	0.014	3677064	STOP	n/a	-999	-999	n/a	n/a	n/a	n/a	12	[-999, -999, -999]	-999	PAL1	1	R1082N
2294.921	0.0	3677078	MATH_END	n/a	-999	-999	n/a	n/a	n/a	n/a	12	[0, 0, 0]	-999	PAL1	1	R1082N
2294.921	0.017	3677078	TEST_START	n/a	-999	-999	n/a	n/a	n/a	n/a	12	[0, 0, 0]	-999	PAL1	1	R1082N
2294.938	0.851	3677095	TEST_ORIENT	n/a	5	1	PANTALONES	MADERA	MADERA	PANTALONES	12	[0, 0, 0]	-999	PAL1	1	R1082N
2295.789	0.001	3677946	TEST_PROBE	n/a	5	1	PANTALONES	MADERA	MADERA	PANTALONES	12	[0, 0, 0]	-999	PAL1	1	R1082N
2295.79	1.48	3677947	REC_START	n/a	5	-999	n/a	MADERA	n/a	n/a	12	[0, 0, 0]	-999	PAL1	1	R1082N
2297.27	3.536	3679427	REC_EVENT	1480	5	1	PANTALONES	MADERA	MADERA	PANTALONES	12	[0, 0, 0]	-999	PAL1	1	R1082N
2300.806	0.017	3682963	REC_END	n/a	5	-999	n/a	n/a	n/a	n/a	12	[0, 0, 0]	-999	PAL1	1	R1082N
2300.823	0.867	3682980	TEST_ORIENT	n/a	2	2	LLUVIA	n/a	LLUVIA	TIENDA	12	[0, 0, 0]	-999	PAL1	1	R1082N
2301.69	0.0	3683847	TEST_PROBE	n/a	2	2	LLUVIA	n/a	LLUVIA	TIENDA	12	[0, 0, 0]	-999	PAL1	1	R1082N
2301.69	0.5	3683847	REC_START	n/a	2	-999	n/a	n/a	n/a	n/a	12	[0, 0, 0]	-999	PAL1	1	R1082N
2302.19	4.533	3684347	REC_EVENT	500	2	2	LLUVIA	<>	LLUVIA	TIENDA	12	[0, 0, 0]	-999	PAL1	1	R1082N
2306.723	0.017	3688880	REC_END	n/a	2	-999	n/a	n/a	n/a	n/a	12	[0, 0, 0]	-999	PAL1	1	R1082N
2306.74	1.0	3688897	TEST_ORIENT	n/a	3	3	SELLO	PASS	LIMO	SELLO	12	[0, 0, 0]	-999	PAL1	1	R1082N
2307.74	0.001	3689897	TEST_PROBE	n/a	3	3	SELLO	PASS	LIMO	SELLO	12	[0, 0, 0]	-999	PAL1	1	R1082N
2307.741	2.591	3689898	REC_START	n/a	3	-999	n/a	PASS	n/a	n/a	12	[0, 0, 0]	-999	PAL1	1	R1082N
2310.332	2.425	3692490	REC_EVENT	2591	3	3	SELLO	PASS	LIMO	SELLO	12	[0, 0, 0]	-999	PAL1	1	R1082N
2312.757	0.017	3694915	REC_END	n/a	3	-999	n/a	n/a	n/a	n/a	12	[0, 0, 0]	-999	PAL1	1	R1082N
2312.774	0.85	3694932	TEST_ORIENT	n/a	6	4	BASTON	CASA	BASTON	HABITACION	12	[0, 0, 0]	-999	PAL1	1	R1082N
2313.624	0.001	3695782	TEST_PROBE	n/a	6	4	BASTON	CASA	BASTON	HABITACION	12	[0, 0, 0]	-999	PAL1	1	R1082N
2313.625	1.4	3695783	REC_START	n/a	6	-999	n/a	CASA	n/a	n/a	12	[0, 0, 0]	-999	PAL1	1	R1082N
2315.025	3.624	3697183	REC_EVENT	1400	6	4	BASTON	CASA	BASTON	HABITACION	12	[0, 0, 0]	-999	PAL1	1	R1082N
2318.649	0.009	3700807	REC_END	n/a	6	-999	n/a	n/a	n/a	n/a	12	[0, 0, 0]	-999	PAL1	1	R1082N
2318.658	0.933	3700816	TEST_ORIENT	n/a	1	5	SIGNO	PASS	SIGNO	PUENTE	12	[0, 0, 0]	-999	PAL1	1	R1082N
2319.591	0.0	3701749	TEST_PROBE	n/a	1	5	SIGNO	PASS	SIGNO	PUENTE	12	[0, 0, 0]	-999	PAL1	1	R1082N
2319.591	1.509	3701749	REC_START	n/a	1	-999	n/a	PASS	n/a	n/a	12	[0, 0, 0]	-999	PAL1	1	R1082N
2321.1	3.508	3703258	REC_EVENT	1509	1	5	SIGNO	PASS	SIGNO	PUENTE	12	[0, 0, 0]	-999	PAL1	1	R1082N
2324.608	0.017	3706766	REC_END	n/a	1	-999	n/a	n/a	n/a	n/a	12	[0, 0, 0]	-999	PAL1	1	R1082N
2324.625	0.95	3706783	TEST_ORIENT	n/a	4	6	COLINA	n/a	RUEDA	COLINA	12	[0, 0, 0]	-999	PAL1	1	R1082N
2325.575	0.001	3707733	TEST_PROBE	n/a	4	6	COLINA	n/a	RUEDA	COLINA	12	[0, 0, 0]	-999	PAL1	1	R1082N
2325.576	5.021	3707734	REC_START	n/a	4	-999	n/a	n/a	n/a	n/a	12	[0, 0, 0]	-999	PAL1	1	R1082N
2330.597	0.003	3712755	REC_EVENT	5021	4	6	COLINA	<>	RUEDA	COLINA	12	[0, 0, 0]	-999	PAL1	1	R1082N
2330.6	0.025	3712758	REC_END	n/a	4	-999	n/a	n/a	n/a	n/a	12	[0, 0, 0]	-999	PAL1	1	R1082N
2330.625	11.518	3712783	FEEDBACK_SHOW_ALL_PAIRS	n/a	4	-999	n/a	n/a	n/a	n/a	12	[0, 0, 0]	-999	PAL1	1	R1082N
2342.143	10.451	3724302	ENCODING_START	n/a	0	-999	n/a	n/a	n/a	n/a	13	[0, 0, 0]	-999	PAL1	1	R1082N
2352.594	0.916	3734753	STUDY_ORIENT	n/a	1	5	GATO	GATO	GATO	SOGA	13	[0, 0, 0]	-999	PAL1	1	R1082N
2353.51	5.033	3735670	STUDY_PAIR	n/a	1	5	GATO	GATO	GATO	SOGA	13	[0, 0, 0]	-999	PAL1	1	R1082N
2358.543	0.9	3740703	STUDY_ORIENT	n/a	2	2	BUHO	PASS	CUCHARA	BUHO	13	[0, 0, 0]	-999	PAL1	1	R1082N
2359.443	5.034	3741603	STUDY_PAIR	n/a	2	2	BUHO	PASS	CUCHARA	BUHO	13	[0, 0, 0]	-999	PAL1	1	R1082N
2364.477	0.9	3746637	STUDY_ORIENT	n/a	3	3	GUANTE	n/a	CERCA	GUANTE	13	[0, 0, 0]	-999	PAL1	1	R1082N
2365.377	5.034	3747537	STUDY_PAIR	n/a	3	3	GUANTE	n/a	CERCA	GUANTE	13	[0, 0, 0]	-999	PAL1	1	R1082N
2370.411	0.967	3752571	STUDY_ORIENT	n/a	4	6	TELARANA	BOLAGRAFO	BOLIGRAFO	TELARANA	13	[0, 0, 0]	-999	PAL1	1	R1082N
2371.378	5.034	3753538	STUDY_PAIR	n/a	4	6	TELARANA	BOLAGRAFO	BOLIGRAFO	TELARANA	13	[0, 0, 0]	-999	PAL1	1	R1082N
2376.412	0.833	3758573	STUDY_ORIENT	n/a	5	1	JARRON	n/a	JARRON	BANDA	13	[0, 0, 0]	-999	PAL1	1	R1082N
2377.245	5.034	3759406	STUDY_PAIR	n/a	5	1	JARRON	n/a	JARRON	BANDA	13	[0, 0, 0]	-999	PAL1	1	R1082N
2382.279	0.9	3764440	STUDY_ORIENT	n/a	6	4	TE	n/a	CARNET	TE	13	[0, 0, 0]	-999	PAL1	1	R1082N
2383.179	4.017	3765340	STUDY_PAIR	n/a	6	4	TE	n/a	CARNET	TE	13	[0, 0, 0]	-999	PAL1	1	R1082N
2387.196	1.0	3769357	START	n/a	-999	-999	n/a	n/a	n/a	n/a	13	[-999, -999, -999]	-999	PAL1	1	R1082N
2388.196	0.017	3770357	MATH_START	n/a	-999	-999	n/a	n/a	n/a	n/a	13	[0, 0, 0]	-999	PAL1	1	R1082N
2388.213	4.983	3770374	PROB	4958	-999	-999	n/a	n/a	n/a	n/a	13	[6, 5, 4]	15	PAL1	1	R1082N
2393.196	3.1	3775357	PROB	3079	-999	-999	n/a	n/a	n/a	n/a	13	[1, 4, 4]	9	PAL1	1	R1082N
2396.296	6.551	3778458	PROB	6531	-999	-999	n/a	n/a	n/a	n/a	13	[7, 2, 9]	18	PAL1	1	R1082N
2402.847	5.916	3785009	PROB	5916	-999	-999	n/a	n/a	n/a	n/a	13	[5, 1, 6]	12	PAL1	1	R1082N
2408.763	0.002	3790925	STOP	n/a	-999	-999	n/a	n/a	n/a	n/a	13	[-999, -999, -999]	-999	PAL1	1	R1082N
2408.765	0.0	3790927	MATH_END	n/a	-999	-999	n/a	n/a	n/a	n/a	13	[0, 0, 0]	-999	PAL1	1	R1082N
2408.765	0.017	3790927	TEST_START	n/a	-999	-999	n/a	n/a	n/a	n/a	13	[0, 0, 0]	-999	PAL1	1	R1082N
2408.782	0.85	3790944	TEST_ORIENT	n/a	5	1	JARRON	n/a	JARRON	BANDA	13	[0, 0, 0]	-999	PAL1	1	R1082N
2409.632	0.001	3791794	TEST_PROBE	n/a	5	1	JARRON	n/a	JARRON	BANDA	13	[0, 0, 0]	-999	PAL1	1	R1082N
2409.633	5.021	3791795	REC_START	n/a	5	-999	n/a	n/a	n/a	n/a	13	[0, 0, 0]	-999	PAL1	1	R1082N
2414.654	0.003	3796816	REC_EVENT	5021	5	1	JARRON	<>	JARRON	BANDA	13	[0, 0, 0]	-999	PAL1	1	R1082N
2414.657	0.009	3796819	REC_END	n/a	5	-999	n/a	n/a	n/a	n/a	13	[0, 0, 0]	-999	PAL1	1	R1082N
2414.666	1.033	3796828	TEST_ORIENT	n/a	2	2	BUHO	PASS	CUCHARA	BUHO	13	[0, 0, 0]	-999	PAL1	1	R1082N
2415.699	0.001	3797861	TEST_PROBE	n/a	2	2	BUHO	PASS	CUCHARA	BUHO	13	[0, 0, 0]	-999	PAL1	1	R1082N
2415.7	4.377	3797862	REC_START	n/a	2	-999	n/a	PASS	n/a	n/a	13	[0, 0, 0]	-999	PAL1	1	R1082N
2420.077	0.647	3802240	REC_EVENT	4377	2	2	BUHO	PASS	CUCHARA	BUHO	13	[0, 0, 0]	-999	PAL1	1	R1082N
2420.724	0.009	3802887	REC_END	n/a	2	-999	n/a	n/a	n/a	n/a	13	[0, 0, 0]	-999	PAL1	1	R1082N
2420.733	0.883	3802896	TEST_ORIENT	n/a	3	3	GUANTE	n/a	CERCA	GUANTE	13	[0, 0, 0]	-999	PAL1	1	R1082N
2421.616	0.001	3803779	TEST_PROBE	n/a	3	3	GUANTE	n/a	CERCA	GUANTE	13	[0, 0, 0]	-999	PAL1	1	R1082N
2421.617	5.021	3803780	REC_START	n/a	3	-999	n/a	n/a	n/a	n/a	13	[0, 0, 0]	-999	PAL1	1	R1082N
2426.638	0.003	3808801	REC_EVENT	5021	3	3	GUANTE	<>	CERCA	GUANTE	13	[0, 0, 0]	-999	PAL1	1	R1082N
2426.641	0.009	3808804	REC_END	n/a	3	-999	n/a	n/a	n/a	n/a	13	[0, 0, 0]	-999	PAL1	1	R1082N
2426.65	0.799	3808813	TEST_ORIENT	n/a	6	4	TE	n/a	CARNET	TE	13	[0, 0, 0]	-999	PAL1	1	R1082N
2427.449	0.001	3809612	TEST_PROBE	n/a	6	4	TE	n/a	CARNET	TE	13	[0, 0, 0]	-999	PAL1	1	R1082N
2427.45	3.596	3809613	REC_START	n/a	6	-999	n/a	n/a	n/a	n/a	13	[0, 0, 0]	-999	PAL1	1	R1082N
2431.046	1.275	3813209	REC_EVENT	3596	6	4	TE	<>	CARNET	TE	13	[0, 0, 0]	-999	PAL1	1	R1082N
2432.321	0.153	3814484	REC_EVENT	4871	6	4	TE	<>	CARNET	TE	13	[0, 0, 0]	-999	PAL1	1	R1082N
2432.474	0.009	3814637	REC_END	n/a	6	-999	n/a	n/a	n/a	n/a	13	[0, 0, 0]	-999	PAL1	1	R1082N
2432.483	0.867	3814646	TEST_ORIENT	n/a	1	5	GATO	GATO	GATO	SOGA	13	[0, 0, 0]	-999	PAL1	1	R1082N
2433.35	0.001	3815513	TEST_PROBE	n/a	1	5	GATO	GATO	GATO	SOGA	13	[0, 0, 0]	-999	PAL1	1	R1082N
2433.351	0.2	3815514	REC_START	n/a	1	-999	n/a	GATO	n/a	n/a	13	[0, 0, 0]	-999	PAL1	1	R1082N
2433.551	1.361	3815714	REC_EVENT	200	1	5	GATO	<>	GATO	SOGA	13	[0, 0, 0]	-999	PAL1	1	R1082N
2434.912	3.463	3817075	REC_EVENT	1561	1	5	GATO	GATO	GATO	SOGA	13	[0, 0, 0]	-999	PAL1	1	R1082N
2438.375	0.008	3820538	REC_END	n/a	1	-999	n/a	n/a	n/a	n/a	13	[0, 0, 0]	-999	PAL1	1	R1082N
2438.383	0.917	3820546	TEST_ORIENT	n/a	4	6	TELARANA	BOLAGRAFO	BOLIGRAFO	TELARANA	13	[0, 0, 0]	-999	PAL1	1	R1082N
2439.3	0.0	3821464	TEST_PROBE	n/a	4	6	TELARANA	BOLAGRAFO	BOLIGRAFO	TELARANA	13	[0, 0, 0]	-999	PAL1	1	R1082N
2439.3	1.45	3821464	REC_START	n/a	4	-999	n/a	BOLAGRAFO	n/a	n/a	13	[0, 0, 0]	-999	PAL1	1	R1082N
2440.75	3.567	3822914	REC_EVENT	1450	4	6	TELARANA	BOLAGRAFO	BOLIGRAFO	TELARANA	13	[0, 0, 0]	-999	PAL1	1	R1082N
2444.317	0.033	3826481	REC_END	n/a	4	-999	n/a	n/a	n/a	n/a	13	[0, 0, 0]	-999	PAL1	1	R1082N
2444.35	10.04	3826514	FEEDBACK_SHOW_ALL_PAIRS	n/a	4	-999	n/a	n/a	n/a	n/a	13	[0, 0, 0]	-999	PAL1	1	R1082N
2454.39	10.447	3836554	ENCODING_START	n/a	0	-999	n/a	n/a	n/a	n/a	14	[0, 0, 0]	-999	PAL1	1	R1082N
2464.837	0.9	3847002	STUDY_ORIENT	n/a	1	1	PRECIPICIO	PASS	BOMBA	PRECIPICIO	14	[0, 0, 0]	-999	PAL1	1	R1082N
2465.737	5.033	3847902	STUDY_PAIR	n/a	1	1	PRECIPICIO	PASS	BOMBA	PRECIPICIO	14	[0, 0, 0]	-999	PAL1	1	R1082N
2470.77	0.801	3852935	STUDY_ORIENT	n/a	2	2	PUERTA	PASS	MANGUERA	PUERTA	14	[0, 0, 0]	-999	PAL1	1	R1082N
2471.571	5.033	3853736	STUDY_PAIR	n/a	2	2	PUERTA	PASS	MANGUERA	PUERTA	14	[0, 0, 0]	-999	PAL1	1	R1082N
2476.604	0.849	3858769	STUDY_ORIENT	n/a	3	5	REMO	n/a	VARITA	REMO	14	[0, 0, 0]	-999	PAL1	1	R1082N
2477.453	5.034	3859618	STUDY_PAIR	n/a	3	5	REMO	n/a	VARITA	REMO	14	[0, 0, 0]	-999	PAL1	1	R1082N
2482.487	0.984	3864653	STUDY_ORIENT	n/a	4	6	UNA	GUANTE	UNA	GRUA	14	[0, 0, 0]	-999	PAL1	1	R1082N
2483.471	5.033	3865637	STUDY_PAIR	n/a	4	6	UNA	GUANTE	UNA	GRUA	14	[0, 0, 0]	-999	PAL1	1	R1082N
2488.504	0.934	3870670	STUDY_ORIENT	n/a	5	3	ROBLE	PASS	PATIO	ROBLE	14	[0, 0, 0]	-999	PAL1	1	R1082N
2489.438	5.017	3871604	STUDY_PAIR	n/a	5	3	ROBLE	PASS	PATIO	ROBLE	14	[0, 0, 0]	-999	PAL1	1	R1082N
2494.455	0.95	3876621	STUDY_ORIENT	n/a	6	4	RELOJ	n/a	ALA	RELOJ	14	[0, 0, 0]	-999	PAL1	1	R1082N
2495.405	4.017	3877571	STUDY_PAIR	n/a	6	4	RELOJ	n/a	ALA	RELOJ	14	[0, 0, 0]	-999	PAL1	1	R1082N
2499.422	1.0	3881588	START	n/a	-999	-999	n/a	n/a	n/a	n/a	14	[-999, -999, -999]	-999	PAL1	1	R1082N
2500.422	0.017	3882588	MATH_START	n/a	-999	-999	n/a	n/a	n/a	n/a	14	[0, 0, 0]	-999	PAL1	1	R1082N
2500.439	4.134	3882605	PROB	4106	-999	-999	n/a	n/a	n/a	n/a	14	[9, 9, 4]	22	PAL1	1	R1082N
2504.573	4.151	3886740	PROB	4117	-999	-999	n/a	n/a	n/a	n/a	14	[7, 2, 9]	18	PAL1	1	R1082N
2508.724	2.816	3890891	PROB	2789	-999	-999	n/a	n/a	n/a	n/a	14	[7, 1, 3]	11	PAL1	1	R1082N
2511.54	3.067	3893707	PROB	3037	-999	-999	n/a	n/a	n/a	n/a	14	[6, 3, 7]	16	PAL1	1	R1082N
2514.607	3.95	3896774	PROB	3929	-999	-999	n/a	n/a	n/a	n/a	14	[8, 5, 3]	16	PAL1	1	R1082N
2518.557	3.491	3900724	PROB	3491	-999	-999	n/a	n/a	n/a	n/a	14	[2, 6, 1]	9	PAL1	1	R1082N
2522.048	0.009	3904215	STOP	n/a	-999	-999	n/a	n/a	n/a	n/a	14	[-999, -999, -999]	-999	PAL1	1	R1082N
2522.057	0.0	3904224	MATH_END	n/a	-999	-999	n/a	n/a	n/a	n/a	14	[0, 0, 0]	-999	PAL1	1	R1082N
2522.057	0.017	3904224	TEST_START	n/a	-999	-999	n/a	n/a	n/a	n/a	14	[0, 0, 0]	-999	PAL1	1	R1082N
2522.074	0.9	3904241	TEST_ORIENT	n/a	1	1	PRECIPICIO	PASS	BOMBA	PRECIPICIO	14	[0, 0, 0]	-999	PAL1	1	R1082N
2522.974	0.0	3905141	REC_START	n/a	1	-999	n/a	PASS	n/a	n/a	14	[0, 0, 0]	-999	PAL1	1	R1082N
2522.974	1.949	3905141	TEST_PROBE	n/a	1	1	PRECIPICIO	PASS	BOMBA	PRECIPICIO	14	[0, 0, 0]	-999	PAL1	1	R1082N
2524.923	3.068	3907091	REC_EVENT	1949	1	1	PRECIPICIO	PASS	BOMBA	PRECIPICIO	14	[0, 0, 0]	-999	PAL1	1	R1082N
2527.991	0.016	3910159	REC_END	n/a	1	-999	n/a	n/a	n/a	n/a	14	[0, 0, 0]	-999	PAL1	1	R1082N
2528.007	0.934	3910175	TEST_ORIENT	n/a	2	2	PUERTA	PASS	MANGUERA	PUERTA	14	[0, 0, 0]	-999	PAL1	1	R1082N
2528.941	0.001	3911109	TEST_PROBE	n/a	2	2	PUERTA	PASS	MANGUERA	PUERTA	14	[0, 0, 0]	-999	PAL1	1	R1082N
2528.942	1.856	3911110	REC_START	n/a	2	-999	n/a	PASS	n/a	n/a	14	[0, 0, 0]	-999	PAL1	1	R1082N
2530.798	3.167	3912966	REC_EVENT	1856	2	2	PUERTA	PASS	MANGUERA	PUERTA	14	[0, 0, 0]	-999	PAL1	1	R1082N
2533.965	0.01	3916133	REC_END	n/a	2	-999	n/a	n/a	n/a	n/a	14	[0, 0, 0]	-999	PAL1	1	R1082N
2533.975	0.817	3916143	TEST_ORIENT	n/a	5	3	ROBLE	PASS	PATIO	ROBLE	14	[0, 0, 0]	-999	PAL1	1	R1082N
2534.792	0.001	3916960	TEST_PROBE	n/a	5	3	ROBLE	PASS	PATIO	ROBLE	14	[0, 0, 0]	-999	PAL1	1	R1082N
2534.793	1.786	3916961	REC_START	n/a	5	-999	n/a	PASS	n/a	n/a	14	[0, 0, 0]	-999	PAL1	1	R1082N
2536.579	3.23	3918747	REC_EVENT	1786	5	3	ROBLE	PASS	PATIO	ROBLE	14	[0, 0, 0]	-999	PAL1	1	R1082N
2539.809	0.017	3921977	REC_END	n/a	5	-999	n/a	n/a	n/a	n/a	14	[0, 0, 0]	-999	PAL1	1	R1082N
2539.826	0.934	3921994	TEST_ORIENT	n/a	6	4	RELOJ	n/a	ALA	RELOJ	14	[0, 0, 0]	-999	PAL1	1	R1082N
2540.76	0.0	3922928	TEST_PROBE	n/a	6	4	RELOJ	n/a	ALA	RELOJ	14	[0, 0, 0]	-999	PAL1	1	R1082N
2540.76	5.015	3922928	REC_START	n/a	6	-999	n/a	n/a	n/a	n/a	14	[0, 0, 0]	-999	PAL1	1	R1082N
2545.775	0.002	3927943	REC_EVENT	5015	6	4	RELOJ	<>	ALA	RELOJ	14	[0, 0, 0]	-999	PAL1	1	R1082N
2545.777	0.016	3927945	REC_END	n/a	6	-999	n/a	n/a	n/a	n/a	14	[0, 0, 0]	-999	PAL1	1	R1082N
2545.793	0.901	3927961	TEST_ORIENT	n/a	3	5	REMO	n/a	VARITA	REMO	14	[0, 0, 0]	-999	PAL1	1	R1082N
2546.694	0.0	3928863	TEST_PROBE	n/a	3	5	REMO	n/a	VARITA	REMO	14	[0, 0, 0]	-999	PAL1	1	R1082N
2546.694	5.015	3928863	REC_START	n/a	3	-999	n/a	n/a	n/a	n/a	14	[0, 0, 0]	-999	PAL1	1	R1082N
2551.709	0.001	3933878	REC_EVENT	5015	3	5	REMO	<>	VARITA	REMO	14	[0, 0, 0]	-999	PAL1	1	R1082N
2551.71	0.017	3933879	REC_END	n/a	3	-999	n/a	n/a	n/a	n/a	14	[0, 0, 0]	-999	PAL1	1	R1082N
2551.727	0.984	3933896	TEST_ORIENT	n/a	4	6	UNA	GUANTE	UNA	GRUA	14	[0, 0, 0]	-999	PAL1	1	R1082N
2552.711	0.0	3934880	TEST_PROBE	n/a	4	6	UNA	GUANTE	UNA	GRUA	14	[0, 0, 0]	-999	PAL1	1	R1082N
2552.711	1.241	3934880	REC_START	n/a	4	-999	n/a	GUANTE	n/a	n/a	14	[0, 0, 0]	-999	PAL1	1	R1082N
2553.952	3.776	3936121	REC_EVENT	1241	4	6	UNA	GUANTE	UNA	GRUA	14	[0, 0, 0]	-999	PAL1	1	R1082N
2557.728	0.033	3939897	REC_END	n/a	4	-999	n/a	n/a	n/a	n/a	14	[0, 0, 0]	-999	PAL1	1	R1082N
2557.761	9.635	3939930	FEEDBACK_SHOW_ALL_PAIRS	n/a	4	-999	n/a	n/a	n/a	n/a	14	[0, 0, 0]	-999	PAL1	1	R1082N
2567.396	10.449	3949565	ENCODING_START	n/a	0	-999	n/a	n/a	n/a	n/a	15	[0, 0, 0]	-999	PAL1	1	R1082N
2577.845	0.951	3960015	STUDY_ORIENT	n/a	1	3	CAMISA	n/a	CAMISA	MALEZA	15	[0, 0, 0]	-999	PAL1	1	R1082N
2578.796	5.034	3960966	STUDY_PAIR	n/a	1	3	CAMISA	n/a	CAMISA	MALEZA	15	[0, 0, 0]	-999	PAL1	1	R1082N
2583.83	0.833	3966000	STUDY_ORIENT	n/a	2	2	FILETE	PASS	FILETE	CUEVA	15	[0, 0, 0]	-999	PAL1	1	R1082N
2584.663	5.034	3966833	STUDY_PAIR	n/a	2	2	FILETE	PASS	FILETE	CUEVA	15	[0, 0, 0]	-999	PAL1	1	R1082N
2589.697	0.917	3971868	STUDY_ORIENT	n/a	3	1	VACA	PEZUNA	PEZUNA	VACA	15	[0, 0, 0]	-999	PAL1	1	R1082N
2590.614	5.034	3972785	STUDY_PAIR	n/a	3	1	VACA	PEZUNA	PEZUNA	VACA	15	[0, 0, 0]	-999	PAL1	1	R1082N
2595.648	0.865	3977819	STUDY_ORIENT	n/a	4	6	ESPONJA	PASS	RUBOR	ESPONJA	15	[0, 0, 0]	-999	PAL1	1	R1082N
2596.513	5.034	3978684	STUDY_PAIR	n/a	4	6	ESPONJA	PASS	RUBOR	ESPONJA	15	[0, 0, 0]	-999	PAL1	1	R1082N
2601.547	0.983	3983718	STUDY_ORIENT	n/a	5	5	DARDO	n/a	TELEFONO	DARDO	15	[0, 0, 0]	-999	PAL1	1	R1082N
2602.53	5.034	3984701	STUDY_PAIR	n/a	5	5	DARDO	n/a	TELEFONO	DARDO	15	[0, 0, 0]	-999	PAL1	1	R1082N
2607.564	0.9	3989735	STUDY_ORIENT	n/a	6	4	SOPA	TRAPO	SOPA	TRAPO	15	[0, 0, 0]	-999	PAL1	1	R1082N
2608.464	4.018	3990635	STUDY_PAIR	n/a	6	4	SOPA	TRAPO	SOPA	TRAPO	15	[0, 0, 0]	-999	PAL1	1	R1082N
2612.482	0.999	3994654	START	n/a	-999	-999	n/a	n/a	n/a	n/a	15	[-999, -999, -999]	-999	PAL1	1	R1082N
2613.481	0.017	3995653	MATH_START	n/a	-999	-999	n/a	n/a	n/a	n/a	15	[0, 0, 0]	-999	PAL1	1	R1082N
2613.498	4.934	3995670	PROB	4909	-999	-999	n/a	n/a	n/a	n/a	15	[7, 9, 8]	24	PAL1	1	R1082N
2618.432	4.334	4000604	PROB	4312	-999	-999	n/a	n/a	n/a	n/a	15	[4, 7, 7]	18	PAL1	1	R1082N
2622.766	3.483	4004938	PROB	3449	-999	-999	n/a	n/a	n/a	n/a	15	[8, 4, 8]	20	PAL1	1	R1082N
2626.249	6.51	4008421	PROB	6510	-999	-999	n/a	n/a	n/a	n/a	15	[4, 1, 3]	8	PAL1	1	R1082N
2632.759	0.008	4014932	STOP	n/a	-999	-999	n/a	n/a	n/a	n/a	15	[-999, -999, -999]	-999	PAL1	1	R1082N
2632.767	0.0	4014940	MATH_END	n/a	-999	-999	n/a	n/a	n/a	n/a	15	[0, 0, 0]	-999	PAL1	1	R1082N
2632.767	0.017	4014940	TEST_START	n/a	-999	-999	n/a	n/a	n/a	n/a	15	[0, 0, 0]	-999	PAL1	1	R1082N
2632.784	1.0	4014957	TEST_ORIENT	n/a	3	1	VACA	PEZUNA	PEZUNA	VACA	15	[0, 0, 0]	-999	PAL1	1	R1082N
2633.784	0.0	4015957	REC_START	n/a	3	-999	n/a	PEZUNA	n/a	n/a	15	[0, 0, 0]	-999	PAL1	1	R1082N
2633.784	1.241	4015957	TEST_PROBE	n/a	3	1	VACA	PEZUNA	PEZUNA	VACA	15	[0, 0, 0]	-999	PAL1	1	R1082N
2635.025	3.776	4017198	REC_EVENT	1241	3	1	VACA	PEZUNA	PEZUNA	VACA	15	[0, 0, 0]	-999	PAL1	1	R1082N
2638.801	0.017	4020974	REC_END	n/a	3	-999	n/a	n/a	n/a	n/a	15	[0, 0, 0]	-999	PAL1	1	R1082N
2638.818	0.983	4020991	TEST_ORIENT	n/a	2	2	FILETE	PASS	FILETE	CUEVA	15	[0, 0, 0]	-999	PAL1	1	R1082N
2639.801	0.0	4021974	TEST_PROBE	n/a	2	2	FILETE	PASS	FILETE	CUEVA	15	[0, 0, 0]	-999	PAL1	1	R1082N
2639.801	2.297	4021974	REC_START	n/a	2	-999	n/a	PASS	n/a	n/a	15	[0, 0, 0]	-999	PAL1	1	R1082N
2642.098	2.72	4024271	REC_EVENT	2297	2	2	FILETE	PASS	FILETE	CUEVA	15	[0, 0, 0]	-999	PAL1	1	R1082N
2644.818	0.017	4026991	REC_END	n/a	2	-999	n/a	n/a	n/a	n/a	15	[0, 0, 0]	-999	PAL1	1	R1082N
2644.835	0.95	4027008	TEST_ORIENT	n/a	1	3	CAMISA	n/a	CAMISA	MALEZA	15	[0, 0, 0]	-999	PAL1	1	R1082N
2645.785	0.001	4027958	TEST_PROBE	n/a	1	3	CAMISA	n/a	CAMISA	MALEZA	15	[0, 0, 0]	-999	PAL1	1	R1082N
2645.786	5.024	4027959	REC_START	n/a	1	-999	n/a	n/a	n/a	n/a	15	[0, 0, 0]	-999	PAL1	1	R1082N
2650.81	0.003	4032983	REC_END	n/a	1	-999	n/a	n/a	n/a	n/a	15	[0, 0, 0]	-999	PAL1	1	R1082N
2650.813	0.006	4032986	REC_EVENT	5027	1	3	CAMISA	<>	CAMISA	MALEZA	15	[0, 0, 0]	-999	PAL1	1	R1082N
2650.819	1.032	4032992	TEST_ORIENT	n/a	6	4	SOPA	TRAPO	SOPA	TRAPO	15	[0, 0, 0]	-999	PAL1	1	R1082N
2651.851	0.001	4034024	TEST_PROBE	n/a	6	4	SOPA	TRAPO	SOPA	TRAPO	15	[0, 0, 0]	-999	PAL1	1	R1082N
2651.852	1.372	4034025	REC_START	n/a	6	-999	n/a	TRAPO	n/a	n/a	15	[0, 0, 0]	-999	PAL1	1	R1082N
2653.224	3.652	4035397	REC_EVENT	1372	6	4	SOPA	TRAPO	SOPA	TRAPO	15	[0, 0, 0]	-999	PAL1	1	R1082N
2656.876	0.009	4039050	REC_END	n/a	6	-999	n/a	n/a	n/a	n/a	15	[0, 0, 0]	-999	PAL1	1	R1082N
2656.885	1.0	4039059	TEST_ORIENT	n/a	5	5	DARDO	n/a	TELEFONO	DARDO	15	[0, 0, 0]	-999	PAL1	1	R1082N
2657.885	0.0	4040059	TEST_PROBE	n/a	5	5	DARDO	n/a	TELEFONO	DARDO	15	[0, 0, 0]	-999	PAL1	1	R1082N
2657.885	5.015	4040059	REC_START	n/a	5	-999	n/a	n/a	n/a	n/a	15	[0, 0, 0]	-999	PAL1	1	R1082N
2662.9	0.002	4045074	REC_EVENT	5015	5	5	DARDO	<>	TELEFONO	DARDO	15	[0, 0, 0]	-999	PAL1	1	R1082N
2662.902	0.017	4045076	REC_END	n/a	5	-999	n/a	n/a	n/a	n/a	15	[0, 0, 0]	-999	PAL1	1	R1082N
2662.919	0.901	4045093	TEST_ORIENT	n/a	4	6	ESPONJA	PASS	RUBOR	ESPONJA	15	[0, 0, 0]	-999	PAL1	1	R1082N
2663.82	0.001	4045994	TEST_PROBE	n/a	4	6	ESPONJA	PASS	RUBOR	ESPONJA	15	[0, 0, 0]	-999	PAL1	1	R1082N
2663.821	2.454	4045995	REC_START	n/a	4	-999	n/a	PASS	n/a	n/a	15	[0, 0, 0]	-999	PAL1	1	R1082N
2666.275	2.569	4048449	REC_EVENT	2454	4	6	ESPONJA	PASS	RUBOR	ESPONJA	15	[0, 0, 0]	-999	PAL1	1	R1082N
2668.844	0.025	4051018	REC_END	n/a	4	-999	n/a	n/a	n/a	n/a	15	[0, 0, 0]	-999	PAL1	1	R1082N
2668.869	10.357	4051043	FEEDBACK_SHOW_ALL_PAIRS	n/a	4	-999	n/a	n/a	n/a	n/a	15	[0, 0, 0]	-999	PAL1	1	R1082N
2679.226	10.446	4061401	ENCODING_START	n/a	0	-999	n/a	n/a	n/a	n/a	16	[0, 0, 0]	-999	PAL1	1	R1082N
2689.672	0.866	4071847	STUDY_ORIENT	n/a	1	3	FRIJOL	EMBASE	CUBO	FRIJOL	16	[0, 0, 0]	-999	PAL1	1	R1082N
2690.538	5.035	4072713	STUDY_PAIR	n/a	1	3	FRIJOL	EMBASE	CUBO	FRIJOL	16	[0, 0, 0]	-999	PAL1	1	R1082N
2695.573	0.899	4077748	STUDY_ORIENT	n/a	2	6	ESCRITORIO	PASS	ESCRITORIO	TRAJE	16	[0, 0, 0]	-999	PAL1	1	R1082N
2696.472	5.033	4078648	STUDY_PAIR	n/a	2	6	ESCRITORIO	PASS	ESCRITORIO	TRAJE	16	[0, 0, 0]	-999	PAL1	1	R1082N
2701.505	0.834	4083681	STUDY_ORIENT	n/a	3	5	VASO	PASS	VASO	ABEJA	16	[0, 0, 0]	-999	PAL1	1	R1082N
2702.339	5.034	4084515	STUDY_PAIR	n/a	3	5	VASO	PASS	VASO	ABEJA	16	[0, 0, 0]	-999	PAL1	1	R1082N
2707.373	0.9	4089549	STUDY_ORIENT	n/a	4	2	PARQUE	PASS	NIEVE	PARQUE	16	[0, 0, 0]	-999	PAL1	1	R1082N
2708.273	5.033	4090449	STUDY_PAIR	n/a	4	2	PARQUE	PASS	NIEVE	PARQUE	16	[0, 0, 0]	-999	PAL1	1	R1082N
2713.306	1.0	4095482	STUDY_ORIENT	n/a	5	1	PIERNA	n/a	PIERNA	PISCINA	16	[0, 0, 0]	-999	PAL1	1	R1082N
2714.306	5.034	4096482	STUDY_PAIR	n/a	5	1	PIERNA	n/a	PIERNA	PISCINA	16	[0, 0, 0]	-999	PAL1	1	R1082N
2719.34	0.9	4101517	STUDY_ORIENT	n/a	6	4	PICO	PASS	PICO	MAPA	16	[0, 0, 0]	-999	PAL1	1	R1082N
2720.24	4.018	4102417	STUDY_PAIR	n/a	6	4	PICO	PASS	PICO	MAPA	16	[0, 0, 0]	-999	PAL1	1	R1082N
2724.258	0.999	4106435	START	n/a	-999	-999	n/a	n/a	n/a	n/a	16	[-999, -999, -999]	-999	PAL1	1	R1082N
2725.257	0.017	4107434	MATH_START	n/a	-999	-999	n/a	n/a	n/a	n/a	16	[0, 0, 0]	-999	PAL1	1	R1082N
2725.274	5.318	4107451	PROB	5284	-999	-999	n/a	n/a	n/a	n/a	16	[8, 3, 3]	14	PAL1	1	R1082N
2730.592	3.883	4112769	PROB	3854	-999	-999	n/a	n/a	n/a	n/a	16	[9, 8, 7]	24	PAL1	1	R1082N
2734.475	3.983	4116652	PROB	3962	-999	-999	n/a	n/a	n/a	n/a	16	[4, 7, 3]	14	PAL1	1	R1082N
2738.458	4.018	4120635	PROB	3987	-999	-999	n/a	n/a	n/a	n/a	16	[2, 7, 2]	11	PAL1	1	R1082N
2742.476	4.752	4124654	PROB	4752	-999	-999	n/a	n/a	n/a	n/a	16	[9, 4, 2]	15	PAL1	1	R1082N
2747.228	0.015	4129406	STOP	n/a	-999	-999	n/a	n/a	n/a	n/a	16	[-999, -999, -999]	-999	PAL1	1	R1082N
2747.243	0.0	4129421	MATH_END	n/a	-999	-999	n/a	n/a	n/a	n/a	16	[0, 0, 0]	-999	PAL1	1	R1082N
2747.243	0.016	4129421	TEST_START	n/a	-999	-999	n/a	n/a	n/a	n/a	16	[0, 0, 0]	-999	PAL1	1	R1082N
2747.259	0.833	4129437	TEST_ORIENT	n/a	5	1	PIERNA	n/a	PIERNA	PISCINA	16	[0, 0, 0]	-999	PAL1	1	R1082N
2748.092	0.001	4130270	TEST_PROBE	n/a	5	1	PIERNA	n/a	PIERNA	PISCINA	16	[0, 0, 0]	-999	PAL1	1	R1082N
2748.093	5.008	4130271	REC_START	n/a	5	-999	n/a	n/a	n/a	n/a	16	[0, 0, 0]	-999	PAL1	1	R1082N
2753.101	0.001	4135279	REC_END	n/a	5	-999	n/a	n/a	n/a	n/a	16	[0, 0, 0]	-999	PAL1	1	R1082N
2753.102	0.008	4135280	REC_EVENT	5009	5	1	PIERNA	<>	PIERNA	PISCINA	16	[0, 0, 0]	-999	PAL1	1	R1082N
2753.11	0.983	4135288	TEST_ORIENT	n/a	4	2	PARQUE	PASS	NIEVE	PARQUE	16	[0, 0, 0]	-999	PAL1	1	R1082N
2754.093	0.001	4136271	TEST_PROBE	n/a	4	2	PARQUE	PASS	NIEVE	PARQUE	16	[0, 0, 0]	-999	PAL1	1	R1082N
2754.094	2.677	4136272	REC_START	n/a	4	-999	n/a	PASS	n/a	n/a	16	[0, 0, 0]	-999	PAL1	1	R1082N
2756.771	2.339	4138949	REC_EVENT	2677	4	2	PARQUE	PASS	NIEVE	PARQUE	16	[0, 0, 0]	-999	PAL1	1	R1082N
2759.11	0.017	4141288	REC_END	n/a	4	-999	n/a	n/a	n/a	n/a	16	[0, 0, 0]	-999	PAL1	1	R1082N
2759.127	0.833	4141305	TEST_ORIENT	n/a	1	3	FRIJOL	EMBASE	CUBO	FRIJOL	16	[0, 0, 0]	-999	PAL1	1	R1082N
2759.96	0.0	4142138	TEST_PROBE	n/a	1	3	FRIJOL	EMBASE	CUBO	FRIJOL	16	[0, 0, 0]	-999	PAL1	1	R1082N
2759.96	1.706	4142138	REC_START	n/a	1	-999	n/a	EMBASE	n/a	n/a	16	[0, 0, 0]	-999	PAL1	1	R1082N
2761.666	3.311	4143845	REC_EVENT	1706	1	3	FRIJOL	EMBASE	CUBO	FRIJOL	16	[0, 0, 0]	-999	PAL1	1	R1082N
2764.977	0.017	4147156	REC_END	n/a	1	-999	n/a	n/a	n/a	n/a	16	[0, 0, 0]	-999	PAL1	1	R1082N
2764.994	0.95	4147173	TEST_ORIENT	n/a	6	4	PICO	PASS	PICO	MAPA	16	[0, 0, 0]	-999	PAL1	1	R1082N
2765.944	0.001	4148123	TEST_PROBE	n/a	6	4	PICO	PASS	PICO	MAPA	16	[0, 0, 0]	-999	PAL1	1	R1082N
2765.945	1.595	4148124	REC_START	n/a	6	-999	n/a	PASS	n/a	n/a	16	[0, 0, 0]	-999	PAL1	1	R1082N
2767.54	3.428	4149719	REC_EVENT	1595	6	4	PICO	PASS	PICO	MAPA	16	[0, 0, 0]	-999	PAL1	1	R1082N
2770.968	0.01	4153147	REC_END	n/a	6	-999	n/a	n/a	n/a	n/a	16	[0, 0, 0]	-999	PAL1	1	R1082N
2770.978	0.983	4153157	TEST_ORIENT	n/a	3	5	VASO	PASS	VASO	ABEJA	16	[0, 0, 0]	-999	PAL1	1	R1082N
2771.961	0.001	4154140	TEST_PROBE	n/a	3	5	VASO	PASS	VASO	ABEJA	16	[0, 0, 0]	-999	PAL1	1	R1082N
2771.962	2.865	4154141	REC_START	n/a	3	-999	n/a	PASS	n/a	n/a	16	[0, 0, 0]	-999	PAL1	1	R1082N
2774.827	2.151	4157006	REC_EVENT	2865	3	5	VASO	PASS	VASO	ABEJA	16	[0, 0, 0]	-999	PAL1	1	R1082N
2776.978	0.017	4159157	REC_END	n/a	3	-999	n/a	n/a	n/a	n/a	16	[0, 0, 0]	-999	PAL1	1	R1082N
2776.995	0.9	4159174	TEST_ORIENT	n/a	2	6	ESCRITORIO	PASS	ESCRITORIO	TRAJE	16	[0, 0, 0]	-999	PAL1	1	R1082N
2777.895	0.001	4160074	TEST_PROBE	n/a	2	6	ESCRITORIO	PASS	ESCRITORIO	TRAJE	16	[0, 0, 0]	-999	PAL1	1	R1082N
2777.896	1.915	4160075	REC_START	n/a	2	-999	n/a	PASS	n/a	n/a	16	[0, 0, 0]	-999	PAL1	1	R1082N
2779.811	3.101	4161990	REC_EVENT	1915	2	6	ESCRITORIO	PASS	ESCRITORIO	TRAJE	16	[0, 0, 0]	-999	PAL1	1	R1082N
2782.912	0.034	4165092	REC_END	n/a	2	-999	n/a	n/a	n/a	n/a	16	[0, 0, 0]	-999	PAL1	1	R1082N
2782.946	18.647	4165126	FEEDBACK_SHOW_ALL_PAIRS	n/a	2	-999	n/a	n/a	n/a	n/a	16	[0, 0, 0]	-999	PAL1	1	R1082N
2801.593	10.438	4183773	ENCODING_START	n/a	0	-999	n/a	n/a	n/a	n/a	17	[0, 0, 0]	-999	PAL1	1	R1082N
2812.031	0.884	4194212	STUDY_ORIENT	n/a	1	3	TINTA	n/a	TINTA	LIBRO	17	[0, 0, 0]	-999	PAL1	1	R1082N
2812.915	5.033	4195096	STUDY_PAIR	n/a	1	3	TINTA	n/a	TINTA	LIBRO	17	[0, 0, 0]	-999	PAL1	1	R1082N
2817.948	1.017	4200129	STUDY_ORIENT	n/a	2	6	UVA	PASS	UVA	FICHA	17	[0, 0, 0]	-999	PAL1	1	R1082N
2818.965	5.034	4201146	STUDY_PAIR	n/a	2	6	UVA	PASS	UVA	FICHA	17	[0, 0, 0]	-999	PAL1	1	R1082N
2823.999	0.784	4206180	STUDY_ORIENT	n/a	3	1	FREGADERO	PASS	FREGADERO	OSO	17	[0, 0, 0]	-999	PAL1	1	R1082N
2824.783	5.034	4206964	STUDY_PAIR	n/a	3	1	FREGADERO	PASS	FREGADERO	OSO	17	[0, 0, 0]	-999	PAL1	1	R1082N
2829.817	0.984	4211999	STUDY_ORIENT	n/a	4	2	ESTRELLA	n/a	DIENTES	ESTRELLA	17	[0, 0, 0]	-999	PAL1	1	R1082N
2830.801	5.033	4212983	STUDY_PAIR	n/a	4	2	ESTRELLA	n/a	DIENTES	ESTRELLA	17	[0, 0, 0]	-999	PAL1	1	R1082N
2835.834	0.834	4218016	STUDY_ORIENT	n/a	5	5	BOTA	n/a	BOTA	RANA	17	[0, 0, 0]	-999	PAL1	1	R1082N
2836.668	5.033	4218850	STUDY_PAIR	n/a	5	5	BOTA	n/a	BOTA	RANA	17	[0, 0, 0]	-999	PAL1	1	R1082N
2841.701	0.783	4223883	STUDY_ORIENT	n/a	6	4	CESPED	n/a	CESPED	HILO	17	[0, 0, 0]	-999	PAL1	1	R1082N
2842.484	4.018	4224666	STUDY_PAIR	n/a	6	4	CESPED	n/a	CESPED	HILO	17	[0, 0, 0]	-999	PAL1	1	R1082N
2846.502	0.999	4228684	START	n/a	-999	-999	n/a	n/a	n/a	n/a	17	[-999, -999, -999]	-999	PAL1	1	R1082N
2847.501	0.017	4229684	MATH_START	n/a	-999	-999	n/a	n/a	n/a	n/a	17	[0, 0, 0]	-999	PAL1	1	R1082N
2847.518	4.184	4229701	PROB	4151	-999	-999	n/a	n/a	n/a	n/a	17	[3, 7, 4]	14	PAL1	1	R1082N
2851.702	4.45	4233885	PROB	4421	-999	-999	n/a	n/a	n/a	n/a	17	[8, 5, 4]	17	PAL1	1	R1082N
2856.152	2.867	4238335	PROB	2835	-999	-999	n/a	n/a	n/a	n/a	17	[4, 3, 6]	13	PAL1	1	R1082N
2859.019	2.584	4241202	PROB	2561	-999	-999	n/a	n/a	n/a	n/a	17	[1, 9, 1]	1	PAL1	1	R1082N
2861.603	6.831	4243786	PROB	6831	-999	-999	n/a	n/a	n/a	n/a	17	[5, 9, 6]	20	PAL1	1	R1082N
2868.434	0.002	4250618	STOP	n/a	-999	-999	n/a	n/a	n/a	n/a	17	[-999, -999, -999]	-999	PAL1	1	R1082N
2868.436	0.0	4250620	TEST_START	n/a	-999	-999	n/a	n/a	n/a	n/a	17	[0, 0, 0]	-999	PAL1	1	R1082N
2868.436	0.017	4250620	MATH_END	n/a	-999	-999	n/a	n/a	n/a	n/a	17	[0, 0, 0]	-999	PAL1	1	R1082N
2868.453	0.95	4250637	TEST_ORIENT	n/a	3	1	FREGADERO	PASS	FREGADERO	OSO	17	[0, 0, 0]	-999	PAL1	1	R1082N
2869.403	0.0	4251587	TEST_PROBE	n/a	3	1	FREGADERO	PASS	FREGADERO	OSO	17	[0, 0, 0]	-999	PAL1	1	R1082N
2869.403	2.851	4251587	REC_START	n/a	3	-999	n/a	PASS	n/a	n/a	17	[0, 0, 0]	-999	PAL1	1	R1082N
2872.254	2.166	4254438	REC_EVENT	2851	3	1	FREGADERO	PASS	FREGADERO	OSO	17	[0, 0, 0]	-999	PAL1	1	R1082N
2874.42	0.017	4256604	REC_END	n/a	3	-999	n/a	n/a	n/a	n/a	17	[0, 0, 0]	-999	PAL1	1	R1082N
2874.437	0.966	4256621	TEST_ORIENT	n/a	4	2	ESTRELLA	n/a	DIENTES	ESTRELLA	17	[0, 0, 0]	-999	PAL1	1	R1082N
2875.403	0.001	4257587	TEST_PROBE	n/a	4	2	ESTRELLA	n/a	DIENTES	ESTRELLA	17	[0, 0, 0]	-999	PAL1	1	R1082N
2875.404	5.026	4257588	REC_START	n/a	4	-999	n/a	n/a	n/a	n/a	17	[0, 0, 0]	-999	PAL1	1	R1082N
2880.43	0.001	4262614	REC_END	n/a	4	-999	n/a	n/a	n/a	n/a	17	[0, 0, 0]	-999	PAL1	1	R1082N
2880.431	0.006	4262615	REC_EVENT	5027	4	2	ESTRELLA	<>	DIENTES	ESTRELLA	17	[0, 0, 0]	-999	PAL1	1	R1082N
2880.437	0.95	4262621	TEST_ORIENT	n/a	1	3	TINTA	n/a	TINTA	LIBRO	17	[0, 0, 0]	-999	PAL1	1	R1082N
2881.387	0.001	4263571	TEST_PROBE	n/a	1	3	TINTA	n/a	TINTA	LIBRO	17	[0, 0, 0]	-999	PAL1	1	R1082N
2881.388	4.227	4263572	REC_START	n/a	1	-999	n/a	n/a	n/a	n/a	17	[0, 0, 0]	-999	PAL1	1	R1082N
2885.615	0.798	4267799	REC_EVENT	4227	1	3	TINTA	<>	TINTA	LIBRO	17	[0, 0, 0]	-999	PAL1	1	R1082N
2886.413	0.008	4268597	REC_END	n/a	1	-999	n/a	n/a	n/a	n/a	17	[0, 0, 0]	-999	PAL1	1	R1082N
2886.421	0.783	4268605	TEST_ORIENT	n/a	6	4	CESPED	n/a	CESPED	HILO	17	[0, 0, 0]	-999	PAL1	1	R1082N
2887.204	0.001	4269388	TEST_PROBE	n/a	6	4	CESPED	n/a	CESPED	HILO	17	[0, 0, 0]	-999	PAL1	1	R1082N
2887.205	1.886	4269389	REC_START	n/a	6	-999	n/a	n/a	n/a	n/a	17	[0, 0, 0]	-999	PAL1	1	R1082N
2889.091	3.13	4271275	REC_EVENT	1886	6	4	CESPED	<>	CESPED	HILO	17	[0, 0, 0]	-999	PAL1	1	R1082N
2892.221	0.017	4274406	REC_END	n/a	6	-999	n/a	n/a	n/a	n/a	17	[0, 0, 0]	-999	PAL1	1	R1082N
2892.238	0.884	4274423	TEST_ORIENT	n/a	5	5	BOTA	n/a	BOTA	RANA	17	[0, 0, 0]	-999	PAL1	1	R1082N
2893.122	0.0	4275307	TEST_PROBE	n/a	5	5	BOTA	n/a	BOTA	RANA	17	[0, 0, 0]	-999	PAL1	1	R1082N
2893.122	5.015	4275307	REC_START	n/a	5	-999	n/a	n/a	n/a	n/a	17	[0, 0, 0]	-999	PAL1	1	R1082N
2898.137	0.002	4280322	REC_EVENT	5015	5	5	BOTA	<>	BOTA	RANA	17	[0, 0, 0]	-999	PAL1	1	R1082N
2898.139	0.016	4280324	REC_END	n/a	5	-999	n/a	n/a	n/a	n/a	17	[0, 0, 0]	-999	PAL1	1	R1082N
2898.155	0.934	4280340	TEST_ORIENT	n/a	2	6	UVA	PASS	UVA	FICHA	17	[0, 0, 0]	-999	PAL1	1	R1082N
2899.089	0.0	4281274	TEST_PROBE	n/a	2	6	UVA	PASS	UVA	FICHA	17	[0, 0, 0]	-999	PAL1	1	R1082N
2899.089	4.127	4281274	REC_START	n/a	2	-999	n/a	PASS	n/a	n/a	17	[0, 0, 0]	-999	PAL1	1	R1082N
2903.216	0.9	4285401	REC_EVENT	4127	2	6	UVA	PASS	UVA	FICHA	17	[0, 0, 0]	-999	PAL1	1	R1082N
2904.116	0.023	4286301	REC_END	n/a	2	-999	n/a	n/a	n/a	n/a	17	[0, 0, 0]	-999	PAL1	1	R1082N
2904.139	10.979	4286324	FEEDBACK_SHOW_ALL_PAIRS	n/a	2	-999	n/a	n/a	n/a	n/a	17	[0, 0, 0]	-999	PAL1	1	R1082N
2915.118	10.439	4297304	ENCODING_START	n/a	0	-999	n/a	n/a	n/a	n/a	18	[0, 0, 0]	-999	PAL1	1	R1082N
2925.557	0.917	4307743	STUDY_ORIENT	n/a	1	5	HACHA	PASS	BANCA	HACHA	18	[0, 0, 0]	-999	PAL1	1	R1082N
2926.474	5.034	4308660	STUDY_PAIR	n/a	1	5	HACHA	PASS	BANCA	HACHA	18	[0, 0, 0]	-999	PAL1	1	R1082N
2931.508	0.784	4313694	STUDY_ORIENT	n/a	2	2	CAJA	PASS	CAJA	PRIMAVERA	18	[0, 0, 0]	-999	PAL1	1	R1082N
2932.292	5.033	4314478	STUDY_PAIR	n/a	2	2	CAJA	PASS	CAJA	PRIMAVERA	18	[0, 0, 0]	-999	PAL1	1	R1082N
2937.325	0.934	4319512	STUDY_ORIENT	n/a	3	1	SAPO	DIENTE	CEPILLO	SAPO	18	[0, 0, 0]	-999	PAL1	1	R1082N
2938.259	5.033	4320446	STUDY_PAIR	n/a	3	1	SAPO	DIENTE	CEPILLO	SAPO	18	[0, 0, 0]	-999	PAL1	1	R1082N
2943.292	0.784	4325479	STUDY_ORIENT	n/a	4	4	ESQUI	PASS	BANDEJA	ESQUI	18	[0, 0, 0]	-999	PAL1	1	R1082N
2944.076	5.034	4326263	STUDY_PAIR	n/a	4	4	ESQUI	PASS	BANDEJA	ESQUI	18	[0, 0, 0]	-999	PAL1	1	R1082N
2949.11	0.85	4331297	STUDY_ORIENT	n/a	5	3	LLAMA	PASS	CIELO	LLAMA	18	[0, 0, 0]	-999	PAL1	1	R1082N
2949.96	5.033	4332147	STUDY_PAIR	n/a	5	3	LLAMA	PASS	CIELO	LLAMA	18	[0, 0, 0]	-999	PAL1	1	R1082N
2954.993	0.884	4337181	STUDY_ORIENT	n/a	6	6	JUGUETE	ROSA	JUGUETE	ROSA	18	[0, 0, 0]	-999	PAL1	1	R1082N
2955.877	4.017	4338065	STUDY_PAIR	n/a	6	6	JUGUETE	ROSA	JUGUETE	ROSA	18	[0, 0, 0]	-999	PAL1	1	R1082N
2959.894	1.0	4342082	START	n/a	-999	-999	n/a	n/a	n/a	n/a	18	[-999, -999, -999]	-999	PAL1	1	R1082N
2960.894	0.016	4343082	MATH_START	n/a	-999	-999	n/a	n/a	n/a	n/a	18	[0, 0, 0]	-999	PAL1	1	R1082N
2960.91	4.719	4343098	PROB	4685	-999	-999	n/a	n/a	n/a	n/a	18	[4, 9, 6]	19	PAL1	1	R1082N
2965.629	4.117	4347817	PROB	4085	-999	-999	n/a	n/a	n/a	n/a	18	[4, 3, 4]	11	PAL1	1	R1082N
2969.746	3.05	4351934	PROB	3024	-999	-999	n/a	n/a	n/a	n/a	18	[2, 2, 2]	6	PAL1	1	R1082N
2972.796	3.199	4354984	PROB	3173	-999	-999	n/a	n/a	n/a	n/a	18	[5, 9, 9]	23	PAL1	1	R1082N
2975.995	3.117	4358184	PROB	3094	-999	-999	n/a	n/a	n/a	n/a	18	[4, 4, 3]	11	PAL1	1	R1082N
2979.112	3.368	4361301	PROB	3368	-999	-999	n/a	n/a	n/a	n/a	18	[7, 9, 6]	22	PAL1	1	R1082N
2982.48	0.016	4364669	STOP	n/a	-999	-999	n/a	n/a	n/a	n/a	18	[-999, -999, -999]	-999	PAL1	1	R1082N
2982.496	0.0	4364685	TEST_START	n/a	-999	-999	n/a	n/a	n/a	n/a	18	[0, 0, 0]	-999	PAL1	1	R1082N
2982.496	0.016	4364685	MATH_END	n/a	-999	-999	n/a	n/a	n/a	n/a	18	[0, 0, 0]	-999	PAL1	1	R1082N
2982.512	0.9	4364701	TEST_ORIENT	n/a	3	1	SAPO	DIENTE	CEPILLO	SAPO	18	[0, 0, 0]	-999	PAL1	1	R1082N
2983.412	0.001	4365601	TEST_PROBE	n/a	3	1	SAPO	DIENTE	CEPILLO	SAPO	18	[0, 0, 0]	-999	PAL1	1	R1082N
2983.413	2.442	4365602	REC_START	n/a	3	-999	n/a	DIENTE	n/a	n/a	18	[0, 0, 0]	-999	PAL1	1	R1082N
2985.855	2.574	4368044	REC_EVENT	2442	3	1	SAPO	DIENTE	CEPILLO	SAPO	18	[0, 0, 0]	-999	PAL1	1	R1082N
2988.429	0.017	4370618	REC_END	n/a	3	-999	n/a	n/a	n/a	n/a	18	[0, 0, 0]	-999	PAL1	1	R1082N
2988.446	0.967	4370635	TEST_ORIENT	n/a	2	2	CAJA	PASS	CAJA	PRIMAVERA	18	[0, 0, 0]	-999	PAL1	1	R1082N
2989.413	0.0	4371602	TEST_PROBE	n/a	2	2	CAJA	PASS	CAJA	PRIMAVERA	18	[0, 0, 0]	-999	PAL1	1	R1082N
2989.413	1.37	4371602	REC_START	n/a	2	-999	n/a	PASS	n/a	n/a	18	[0, 0, 0]	-999	PAL1	1	R1082N
2990.783	3.647	4372972	REC_EVENT	1370	2	2	CAJA	PASS	CAJA	PRIMAVERA	18	[0, 0, 0]	-999	PAL1	1	R1082N
2994.43	0.017	4376619	REC_END	n/a	2	-999	n/a	n/a	n/a	n/a	18	[0, 0, 0]	-999	PAL1	1	R1082N
2994.447	0.85	4376636	TEST_ORIENT	n/a	5	3	LLAMA	PASS	CIELO	LLAMA	18	[0, 0, 0]	-999	PAL1	1	R1082N
2995.297	0.0	4377486	TEST_PROBE	n/a	5	3	LLAMA	PASS	CIELO	LLAMA	18	[0, 0, 0]	-999	PAL1	1	R1082N
2995.297	2.043	4377486	REC_START	n/a	5	-999	n/a	PASS	n/a	n/a	18	[0, 0, 0]	-999	PAL1	1	R1082N
2997.34	2.974	4379530	REC_EVENT	2043	5	3	LLAMA	PASS	CIELO	LLAMA	18	[0, 0, 0]	-999	PAL1	1	R1082N
3000.314	0.016	4382504	REC_END	n/a	5	-999	n/a	n/a	n/a	n/a	18	[0, 0, 0]	-999	PAL1	1	R1082N
3000.33	0.801	4382520	TEST_ORIENT	n/a	4	4	ESQUI	PASS	BANDEJA	ESQUI	18	[0, 0, 0]	-999	PAL1	1	R1082N
3001.131	0.0	4383321	REC_START	n/a	4	-999	n/a	PASS	n/a	n/a	18	[0, 0, 0]	-999	PAL1	1	R1082N
3001.131	4.365	4383321	TEST_PROBE	n/a	4	4	ESQUI	PASS	BANDEJA	ESQUI	18	[0, 0, 0]	-999	PAL1	1	R1082N
3005.496	0.652	4387686	REC_EVENT	4365	4	4	ESQUI	PASS	BANDEJA	ESQUI	18	[0, 0, 0]	-999	PAL1	1	R1082N
3006.148	0.016	4388338	REC_END	n/a	4	-999	n/a	n/a	n/a	n/a	18	[0, 0, 0]	-999	PAL1	1	R1082N
3006.164	0.9	4388354	TEST_ORIENT	n/a	1	5	HACHA	PASS	BANCA	HACHA	18	[0, 0, 0]	-999	PAL1	1	R1082N
3007.064	0.001	4389254	TEST_PROBE	n/a	1	5	HACHA	PASS	BANCA	HACHA	18	[0, 0, 0]	-999	PAL1	1	R1082N
3007.065	3.327	4389255	REC_START	n/a	1	-999	n/a	PASS	n/a	n/a	18	[0, 0, 0]	-999	PAL1	1	R1082N
3010.392	1.697	4392582	REC_EVENT	3327	1	5	HACHA	PASS	BANCA	HACHA	18	[0, 0, 0]	-999	PAL1	1	R1082N
3012.089	0.009	4394279	REC_END	n/a	1	-999	n/a	n/a	n/a	n/a	18	[0, 0, 0]	-999	PAL1	1	R1082N
3012.098	0.984	4394288	TEST_ORIENT	n/a	6	6	JUGUETE	ROSA	JUGUETE	ROSA	18	[0, 0, 0]	-999	PAL1	1	R1082N
3013.082	0.0	4395272	REC_START	n/a	6	-999	n/a	ROSA	n/a	n/a	18	[0, 0, 0]	-999	PAL1	1	R1082N
3013.082	1.415	4395272	TEST_PROBE	n/a	6	6	JUGUETE	ROSA	JUGUETE	ROSA	18	[0, 0, 0]	-999	PAL1	1	R1082N
3014.497	3.602	4396687	REC_EVENT	1415	6	6	JUGUETE	ROSA	JUGUETE	ROSA	18	[0, 0, 0]	-999	PAL1	1	R1082N
3018.099	0.033	4400289	REC_END	n/a	6	-999	n/a	n/a	n/a	n/a	18	[0, 0, 0]	-999	PAL1	1	R1082N
3018.132	11.824	4400322	FEEDBACK_SHOW_ALL_PAIRS	n/a	6	-999	n/a	n/a	n/a	n/a	18	[0, 0, 0]	-999	PAL1	1	R1082N
3029.956	10.444	4412147	ENCODING_START	n/a	0	-999	n/a	n/a	n/a	n/a	19	[0, 0, 0]	-999	PAL1	1	R1082N
3040.4	0.867	4422592	STUDY_ORIENT	n/a	1	1	PIEDRA	PASS	PIEDRA	PISO	19	[0, 0, 0]	-999	PAL1	1	R1082N
3041.267	5.034	4423459	STUDY_PAIR	n/a	1	1	PIEDRA	PASS	PIEDRA	PISO	19	[0, 0, 0]	-999	PAL1	1	R1082N
3046.301	0.983	4428493	STUDY_ORIENT	n/a	2	2	MANO	PASS	FLAUTA	MANO	19	[0, 0, 0]	-999	PAL1	1	R1082N
3047.284	5.034	4429476	STUDY_PAIR	n/a	2	2	MANO	PASS	FLAUTA	MANO	19	[0, 0, 0]	-999	PAL1	1	R1082N
3052.318	0.934	4434510	STUDY_ORIENT	n/a	3	3	ROCA	PASS	RASTRILLO	ROCA	19	[0, 0, 0]	-999	PAL1	1	R1082N
3053.252	5.033	4435444	STUDY_PAIR	n/a	3	3	ROCA	PASS	RASTRILLO	ROCA	19	[0, 0, 0]	-999	PAL1	1	R1082N
3058.285	0.9	4440477	STUDY_ORIENT	n/a	4	4	TAMBOR	MANO	TAMBOR	BANCO	19	[0, 0, 0]	-999	PAL1	1	R1082N
3059.185	5.034	4441377	STUDY_PAIR	n/a	4	4	TAMBOR	MANO	TAMBOR	BANCO	19	[0, 0, 0]	-999	PAL1	1	R1082N
3064.219	0.8	4446412	STUDY_ORIENT	n/a	5	5	LADRILLO	n/a	LADRILLO	JUGO	19	[0, 0, 0]	-999	PAL1	1	R1082N
3065.019	5.034	4447212	STUDY_PAIR	n/a	5	5	LADRILLO	n/a	LADRILLO	JUGO	19	[0, 0, 0]	-999	PAL1	1	R1082N
3070.053	1.017	4452246	STUDY_ORIENT	n/a	6	6	POZO	n/a	MEDIA	POZO	19	[0, 0, 0]	-999	PAL1	1	R1082N
3071.07	4.017	4453263	STUDY_PAIR	n/a	6	6	POZO	n/a	MEDIA	POZO	19	[0, 0, 0]	-999	PAL1	1	R1082N
3075.087	1.0	4457280	START	n/a	-999	-999	n/a	n/a	n/a	n/a	19	[-999, -999, -999]	-999	PAL1	1	R1082N
3076.087	0.017	4458280	MATH_START	n/a	-999	-999	n/a	n/a	n/a	n/a	19	[0, 0, 0]	-999	PAL1	1	R1082N
3076.104	5.066	4458297	PROB	5048	-999	-999	n/a	n/a	n/a	n/a	19	[5, 3, 2]	10	PAL1	1	R1082N
3081.17	3.784	4463363	PROB	3765	-999	-999	n/a	n/a	n/a	n/a	19	[8, 4, 2]	14	PAL1	1	R1082N
3084.954	2.668	4467148	PROB	2638	-999	-999	n/a	n/a	n/a	n/a	19	[1, 2, 1]	4	PAL1	1	R1082N
3087.622	4.899	4469816	PROB	4865	-999	-999	n/a	n/a	n/a	n/a	19	[3, 3, 3]	9	PAL1	1	R1082N
3092.521	4.613	4474715	PROB	4613	-999	-999	n/a	n/a	n/a	n/a	19	[7, 9, 4]	20	PAL1	1	R1082N
3097.134	0.005	4479328	STOP	n/a	-999	-999	n/a	n/a	n/a	n/a	19	[-999, -999, -999]	-999	PAL1	1	R1082N
3097.139	0.0	4479333	TEST_START	n/a	-999	-999	n/a	n/a	n/a	n/a	19	[0, 0, 0]	-999	PAL1	1	R1082N
3097.139	0.016	4479333	MATH_END	n/a	-999	-999	n/a	n/a	n/a	n/a	19	[0, 0, 0]	-999	PAL1	1	R1082N
3097.155	0.95	4479349	TEST_ORIENT	n/a	1	1	PIEDRA	PASS	PIEDRA	PISO	19	[0, 0, 0]	-999	PAL1	1	R1082N
3098.105	0.001	4480299	TEST_PROBE	n/a	1	1	PIEDRA	PASS	PIEDRA	PISO	19	[0, 0, 0]	-999	PAL1	1	R1082N
3098.106	2.115	4480300	REC_START	n/a	1	-999	n/a	PASS	n/a	n/a	19	[0, 0, 0]	-999	PAL1	1	R1082N
3100.221	2.901	4482415	REC_EVENT	2115	1	1	PIEDRA	PASS	PIEDRA	PISO	19	[0, 0, 0]	-999	PAL1	1	R1082N
3103.122	0.017	4485316	REC_END	n/a	1	-999	n/a	n/a	n/a	n/a	19	[0, 0, 0]	-999	PAL1	1	R1082N
3103.139	1.034	4485333	TEST_ORIENT	n/a	2	2	MANO	PASS	FLAUTA	MANO	19	[0, 0, 0]	-999	PAL1	1	R1082N
3104.173	0.0	4486368	TEST_PROBE	n/a	2	2	MANO	PASS	FLAUTA	MANO	19	[0, 0, 0]	-999	PAL1	1	R1082N
3104.173	2.231	4486368	REC_START	n/a	2	-999	n/a	PASS	n/a	n/a	19	[0, 0, 0]	-999	PAL1	1	R1082N
3106.404	2.795	4488599	REC_EVENT	2231	2	2	MANO	PASS	FLAUTA	MANO	19	[0, 0, 0]	-999	PAL1	1	R1082N
3109.199	0.007	4491394	REC_END	n/a	2	-999	n/a	n/a	n/a	n/a	19	[0, 0, 0]	-999	PAL1	1	R1082N
3109.206	0.95	4491401	TEST_ORIENT	n/a	3	3	ROCA	PASS	RASTRILLO	ROCA	19	[0, 0, 0]	-999	PAL1	1	R1082N
3110.156	0.001	4492351	TEST_PROBE	n/a	3	3	ROCA	PASS	RASTRILLO	ROCA	19	[0, 0, 0]	-999	PAL1	1	R1082N
3110.157	2.895	4492352	REC_START	n/a	3	-999	n/a	PASS	n/a	n/a	19	[0, 0, 0]	-999	PAL1	1	R1082N
3113.052	2.121	4495247	REC_EVENT	2895	3	3	ROCA	PASS	RASTRILLO	ROCA	19	[0, 0, 0]	-999	PAL1	1	R1082N
3115.173	0.017	4497368	REC_END	n/a	3	-999	n/a	n/a	n/a	n/a	19	[0, 0, 0]	-999	PAL1	1	R1082N
3115.19	0.984	4497385	TEST_ORIENT	n/a	4	4	TAMBOR	MANO	TAMBOR	BANCO	19	[0, 0, 0]	-999	PAL1	1	R1082N
3116.174	0.0	4498369	REC_START	n/a	4	-999	n/a	MANO	n/a	n/a	19	[0, 0, 0]	-999	PAL1	1	R1082N
3116.174	1.871	4498369	TEST_PROBE	n/a	4	4	TAMBOR	MANO	TAMBOR	BANCO	19	[0, 0, 0]	-999	PAL1	1	R1082N
3118.045	3.145	4500240	REC_EVENT	1871	4	4	TAMBOR	MANO	TAMBOR	BANCO	19	[0, 0, 0]	-999	PAL1	1	R1082N
3121.19	0.017	4503385	REC_END	n/a	4	-999	n/a	n/a	n/a	n/a	19	[0, 0, 0]	-999	PAL1	1	R1082N
3121.207	1.05	4503402	TEST_ORIENT	n/a	5	5	LADRILLO	n/a	LADRILLO	JUGO	19	[0, 0, 0]	-999	PAL1	1	R1082N
3122.257	0.001	4504452	TEST_PROBE	n/a	5	5	LADRILLO	n/a	LADRILLO	JUGO	19	[0, 0, 0]	-999	PAL1	1	R1082N
3122.258	5.016	4504453	REC_START	n/a	5	-999	n/a	n/a	n/a	n/a	19	[0, 0, 0]	-999	PAL1	1	R1082N
3127.274	0.005	4509470	REC_END	n/a	5	-999	n/a	n/a	n/a	n/a	19	[0, 0, 0]	-999	PAL1	1	R1082N
3127.279	0.012	4509475	REC_EVENT	5021	5	5	LADRILLO	<>	LADRILLO	JUGO	19	[0, 0, 0]	-999	PAL1	1	R1082N
3127.291	0.967	4509487	TEST_ORIENT	n/a	6	6	POZO	n/a	MEDIA	POZO	19	[0, 0, 0]	-999	PAL1	1	R1082N
3128.258	0.0	4510454	TEST_PROBE	n/a	6	6	POZO	n/a	MEDIA	POZO	19	[0, 0, 0]	-999	PAL1	1	R1082N
3128.258	4.365	4510454	REC_START	n/a	6	-999	n/a	n/a	n/a	n/a	19	[0, 0, 0]	-999	PAL1	1	R1082N
3132.623	0.652	4514819	REC_EVENT	4365	6	6	POZO	<>	MEDIA	POZO	19	[0, 0, 0]	-999	PAL1	1	R1082N
3133.275	0.033	4515471	REC_END	n/a	6	-999	n/a	n/a	n/a	n/a	19	[0, 0, 0]	-999	PAL1	1	R1082N
3133.308	10.086	4515504	FEEDBACK_SHOW_ALL_PAIRS	n/a	6	-999	n/a	n/a	n/a	n/a	19	[0, 0, 0]	-999	PAL1	1	R1082N
3143.394	10.449	4525590	ENCODING_START	n/a	0	-999	n/a	n/a	n/a	n/a	20	[0, 0, 0]	-999	PAL1	1	R1082N
3153.843	0.835	4536040	STUDY_ORIENT	n/a	1	5	CRIA	PASS	CAMIONETA	CRIA	20	[0, 0, 0]	-999	PAL1	1	R1082N
3154.678	5.034	4536875	STUDY_PAIR	n/a	1	5	CRIA	PASS	CAMIONETA	CRIA	20	[0, 0, 0]	-999	PAL1	1	R1082N
3159.712	0.815	4541909	STUDY_ORIENT	n/a	2	2	POLO	PASS	CARCEL	POLO	20	[0, 0, 0]	-999	PAL1	1	R1082N
3160.527	5.034	4542724	STUDY_PAIR	n/a	2	2	POLO	PASS	CARCEL	POLO	20	[0, 0, 0]	-999	PAL1	1	R1082N
3165.561	0.9	4547758	STUDY_ORIENT	n/a	3	1	COPA	PASS	COPA	TANQUE	20	[0, 0, 0]	-999	PAL1	1	R1082N
3166.461	5.034	4548658	STUDY_PAIR	n/a	3	1	COPA	PASS	COPA	TANQUE	20	[0, 0, 0]	-999	PAL1	1	R1082N
3171.495	0.983	4553693	STUDY_ORIENT	n/a	4	4	CORONA	TIBURON	TIBURON	CORONA	20	[0, 0, 0]	-999	PAL1	1	R1082N
3172.478	5.034	4554676	STUDY_PAIR	n/a	4	4	CORONA	TIBURON	TIBURON	CORONA	20	[0, 0, 0]	-999	PAL1	1	R1082N
3177.512	0.883	4559710	STUDY_ORIENT	n/a	5	3	LAGO	NIEBLA	LAGO	NIEBLA	20	[0, 0, 0]	-999	PAL1	1	R1082N
3178.395	5.034	4560593	STUDY_PAIR	n/a	5	3	LAGO	NIEBLA	LAGO	NIEBLA	20	[0, 0, 0]	-999	PAL1	1	R1082N
