onset	duration	sample	trial_type	response_time	serialpos	probepos	probe_word	resp_word	study_1	study_2	list	test	answer	experiment	session	subject
0.0	188.534	621	INSTRUCT_START	n/a	-999	-999	n/a	n/a	n/a	n/a	-999	[0, 0, 0]	-999	PAL1	0	R1392N
188.534	2.768	189149	INSTRUCT_END	n/a	-999	-999	n/a	n/a	n/a	n/a	-999	[0, 0, 0]	-999	PAL1	0	R1392N
191.302	13.612	191917	MIC TEST_START	n/a	-999	-999	n/a	n/a	n/a	n/a	-999	[0, 0, 0]	-999	PAL1	0	R1392N
204.914	0.013	205528	MIC TEST_END	n/a	-999	-999	n/a	n/a	n/a	n/a	-999	[0, 0, 0]	-999	PAL1	0	R1392N
204.927	0.0	205541	TRIAL_START	n/a	-999	-999	n/a	n/a	n/a	n/a	-999	[0, 0, 0]	-999	PAL1	0	R1392N
204.927	0.0	205541	TRIAL	n/a	-999	-999	n/a	n/a	n/a	n/a	-1	[0, 0, 0]	-999	PAL1	0	R1392N
204.927	4.661	205541	WAITING_START	n/a	-999	-999	n/a	n/a	n/a	n/a	-1	[0, 0, 0]	-999	PAL1	0	R1392N
209.588	0.0	210202	WAITING_END	n/a	-999	-999	n/a	n/a	n/a	n/a	-1	[0, 0, 0]	-999	PAL1	0	R1392N
209.588	10.43	210202	COUNTDOWN_START	n/a	-999	-999	n/a	n/a	n/a	n/a	-1	[0, 0, 0]	-999	PAL1	0	R1392N
220.018	0.0	220632	ORIENT_START	n/a	-999	-999	n/a	n/a	n/a	n/a	-1	[0, 0, 0]	-999	PAL1	0	R1392N
220.018	0.672	220632	COUNTDOWN_END	n/a	-999	-999	n/a	n/a	n/a	n/a	-1	[0, 0, 0]	-999	PAL1	0	R1392N
220.69	0.001	221304	ORIENT_END	n/a	-999	-999	n/a	n/a	n/a	n/a	-1	[0, 0, 0]	-999	PAL1	0	R1392N
220.691	1.182	221305	ENCODING_START	n/a	-999	-999	n/a	n/a	n/a	n/a	-1	[0, 0, 0]	-999	PAL1	0	R1392N
221.873	4.035	222486	STUDY_PAIR	n/a	1	3	n/a	LOCK	TONGUE	CAMEL	-1	[0, 0, 0]	-999	PAL1	0	R1392N
225.908	0.603	226521	STUDY_PAIR_OFF	n/a	1	3	n/a	LOCK	TONGUE	CAMEL	-1	[0, 0, 0]	-999	PAL1	0	R1392N
226.511	4.03	227124	STUDY_PAIR	n/a	2	4	n/a	n/a	FLOOD	RHINO	-1	[0, 0, 0]	-999	PAL1	0	R1392N
230.541	0.597	231154	STUDY_PAIR_OFF	n/a	2	4	n/a	n/a	FLOOD	RHINO	-1	[0, 0, 0]	-999	PAL1	0	R1392N
231.138	4.038	231751	STUDY_PAIR	n/a	3	1	n/a	SINK	IMAGE	CHEST	-1	[0, 0, 0]	-999	PAL1	0	R1392N
235.176	0.697	235789	STUDY_PAIR_OFF	n/a	3	1	n/a	SINK	IMAGE	CHEST	-1	[0, 0, 0]	-999	PAL1	0	R1392N
235.873	4.037	236486	STUDY_PAIR	n/a	4	6	n/a	n/a	BEAM	WAGON	-1	[0, 0, 0]	-999	PAL1	0	R1392N
239.91	0.739	240523	STUDY_PAIR_OFF	n/a	4	6	n/a	n/a	BEAM	WAGON	-1	[0, 0, 0]	-999	PAL1	0	R1392N
240.649	4.027	241262	STUDY_PAIR	n/a	5	5	n/a	n/a	FLOOD	RHINO	-1	[0, 0, 0]	-999	PAL1	0	R1392N
244.676	0.738	245289	STUDY_PAIR_OFF	n/a	5	5	n/a	n/a	FLOOD	RHINO	-1	[0, 0, 0]	-999	PAL1	0	R1392N
245.414	4.03	246027	STUDY_PAIR	n/a	6	2	n/a	RING	RING	WATCH	-1	[0, 0, 0]	-999	PAL1	0	R1392N
249.444	0.0	250057	STUDY_PAIR_OFF	n/a	6	2	n/a	RING	RING	WATCH	-1	[0, 0, 0]	-999	PAL1	0	R1392N
249.444	0.001	250057	ENCODING_END	n/a	-999	-999	n/a	n/a	n/a	n/a	-1	[0, 0, 0]	-999	PAL1	0	R1392N
249.445	0.0	250058	MATH_START	n/a	-999	-999	n/a	n/a	n/a	n/a	-1	[0, 0, 0]	-999	PAL1	0	R1392N
249.445	0.015	250058	START	n/a	-999	-999	n/a	n/a	n/a	n/a	-1	[-999, -999, -999]	-999	PAL1	0	R1392N
249.46	3.184	250073	PROB	3160	-999	-999	n/a	n/a	n/a	n/a	-1	[1, 2, 1]	4	PAL1	0	R1392N
252.644	3.067	253256	PROB	3040	-999	-999	n/a	n/a	n/a	n/a	-1	[2, 2, 4]	6	PAL1	0	R1392N
255.711	3.385	256323	PROB	3358	-999	-999	n/a	n/a	n/a	n/a	-1	[1, 9, 5]	15	PAL1	0	R1392N
259.096	6.151	259708	PROB	6125	-999	-999	n/a	n/a	n/a	n/a	-1	[5, 2, 8]	15	PAL1	0	R1392N
265.247	3.217	265859	PROB	3181	-999	-999	n/a	n/a	n/a	n/a	-1	[4, 6, 6]	16	PAL1	0	R1392N
268.464	3.203	269076	PROB	3203	-999	-999	n/a	n/a	n/a	n/a	-1	[7, 9, 2]	18	PAL1	0	R1392N
271.667	0.014	272279	STOP	n/a	-999	-999	n/a	n/a	n/a	n/a	-1	[-999, -999, -999]	-999	PAL1	0	R1392N
271.681	0.647	272293	MATH_END	n/a	-999	-999	n/a	n/a	n/a	n/a	-1	[0, 0, 0]	-999	PAL1	0	R1392N
272.328	0.004	272940	RETRIEVAL_START	n/a	-999	-999	n/a	n/a	n/a	n/a	-1	[0, 0, 0]	-999	PAL1	0	R1392N
272.332	0.282	272944	ORIENT_START	n/a	-999	-999	n/a	n/a	n/a	n/a	-1	[0, 0, 0]	-999	PAL1	0	R1392N
272.614	0.545	273226	ORIENT_END	n/a	-999	-999	n/a	n/a	n/a	n/a	-1	[0, 0, 0]	-999	PAL1	0	R1392N
273.159	0.001	273771	REC_START	n/a	3	1	IMAGE	SINK	IMAGE	CHEST	-1	[0, 0, 0]	-999	PAL1	0	R1392N
273.16	4.023	273772	PROBE_START	n/a	3	1	IMAGE	SINK	IMAGE	CHEST	-1	[0, 0, 0]	-999	PAL1	0	R1392N
277.183	1.001	277795	PROBE_END	n/a	3	1	IMAGE	n/a	IMAGE	CHEST	-1	[0, 0, 0]	-999	PAL1	0	R1392N
278.184	0.013	278796	REC_END	n/a	3	1	IMAGE	n/a	IMAGE	CHEST	-1	[0, 0, 0]	-999	PAL1	0	R1392N
278.197	0.268	278809	ORIENT_START	n/a	-999	-999	n/a	n/a	n/a	n/a	-1	[0, 0, 0]	-999	PAL1	0	R1392N
278.465	0.552	279077	ORIENT_END	n/a	-999	-999	n/a	n/a	n/a	n/a	-1	[0, 0, 0]	-999	PAL1	0	R1392N
279.017	0.079	279629	REC_EVENT	5857	3	1	IMAGE	SINK	IMAGE	CHEST	-1	[0, 0, 0]	-999	PAL1	0	R1392N
279.096	0.0	279708	REC_START	n/a	6	2	WATCH	RING	RING	WATCH	-1	[0, 0, 0]	-999	PAL1	0	R1392N
279.096	2.225	279708	PROBE_START	n/a	6	2	WATCH	RING	RING	WATCH	-1	[0, 0, 0]	-999	PAL1	0	R1392N
281.321	1.813	281932	REC_EVENT	2225	6	2	WATCH	RING	RING	WATCH	-1	[0, 0, 0]	-999	PAL1	0	R1392N
283.134	1.0	283745	PROBE_END	n/a	6	2	WATCH	n/a	RING	WATCH	-1	[0, 0, 0]	-999	PAL1	0	R1392N
284.134	0.015	284745	REC_END	n/a	6	2	WATCH	n/a	RING	WATCH	-1	[0, 0, 0]	-999	PAL1	0	R1392N
284.149	0.284	284760	ORIENT_START	n/a	-999	-999	n/a	n/a	n/a	n/a	-1	[0, 0, 0]	-999	PAL1	0	R1392N
284.433	0.641	285044	ORIENT_END	n/a	-999	-999	n/a	n/a	n/a	n/a	-1	[0, 0, 0]	-999	PAL1	0	R1392N
285.074	0.0	285685	PROBE_START	n/a	1	3	CAMEL	LOCK	TONGUE	CAMEL	-1	[0, 0, 0]	-999	PAL1	0	R1392N
285.074	4.028	285685	REC_START	n/a	1	3	CAMEL	LOCK	TONGUE	CAMEL	-1	[0, 0, 0]	-999	PAL1	0	R1392N
289.102	0.998	289713	PROBE_END	n/a	1	3	CAMEL	n/a	TONGUE	CAMEL	-1	[0, 0, 0]	-999	PAL1	0	R1392N
290.1	0.002	290711	REC_EVENT	5026	1	3	CAMEL	LOCK	TONGUE	CAMEL	-1	[0, 0, 0]	-999	PAL1	0	R1392N
290.102	0.013	290713	REC_END	n/a	1	3	CAMEL	n/a	TONGUE	CAMEL	-1	[0, 0, 0]	-999	PAL1	0	R1392N
290.115	0.269	290726	ORIENT_START	n/a	-999	-999	n/a	n/a	n/a	n/a	-1	[0, 0, 0]	-999	PAL1	0	R1392N
290.384	0.578	290995	ORIENT_END	n/a	-999	-999	n/a	n/a	n/a	n/a	-1	[0, 0, 0]	-999	PAL1	0	R1392N
290.962	0.0	291573	REC_START	n/a	2	4	FLOOD	n/a	FLOOD	RHINO	-1	[0, 0, 0]	-999	PAL1	0	R1392N
290.962	4.024	291573	PROBE_START	n/a	2	4	FLOOD	n/a	FLOOD	RHINO	-1	[0, 0, 0]	-999	PAL1	0	R1392N
294.986	1.0	295597	PROBE_END	n/a	2	4	FLOOD	n/a	FLOOD	RHINO	-1	[0, 0, 0]	-999	PAL1	0	R1392N
295.986	0.013	296597	REC_END	n/a	2	4	FLOOD	n/a	FLOOD	RHINO	-1	[0, 0, 0]	-999	PAL1	0	R1392N
295.999	0.27	296610	ORIENT_START	n/a	-999	-999	n/a	n/a	n/a	n/a	-1	[0, 0, 0]	-999	PAL1	0	R1392N
296.269	0.497	296880	ORIENT_END	n/a	-999	-999	n/a	n/a	n/a	n/a	-1	[0, 0, 0]	-999	PAL1	0	R1392N
296.766	0.244	297377	REC_EVENT	5804	2	4	FLOOD	<>	FLOOD	RHINO	-1	[0, 0, 0]	-999	PAL1	0	R1392N
297.01	0.0	297621	REC_START	n/a	5	5	COTTON	n/a	FLOOD	RHINO	-1	[0, 0, 0]	-999	PAL1	0	R1392N
297.01	4.027	297621	PROBE_START	n/a	5	5	COTTON	n/a	FLOOD	RHINO	-1	[0, 0, 0]	-999	PAL1	0	R1392N
301.037	1.0	301648	PROBE_END	n/a	5	5	COTTON	n/a	FLOOD	RHINO	-1	[0, 0, 0]	-999	PAL1	0	R1392N
302.037	0.007	302648	REC_END	n/a	5	5	COTTON	n/a	FLOOD	RHINO	-1	[0, 0, 0]	-999	PAL1	0	R1392N
302.044	0.276	302655	ORIENT_START	n/a	-999	-999	n/a	n/a	n/a	n/a	-1	[0, 0, 0]	-999	PAL1	0	R1392N
302.32	0.561	302931	ORIENT_END	n/a	-999	-999	n/a	n/a	n/a	n/a	-1	[0, 0, 0]	-999	PAL1	0	R1392N
302.881	0.0	303492	PROBE_START	n/a	4	6	BEAM	n/a	BEAM	WAGON	-1	[0, 0, 0]	-999	PAL1	0	R1392N
302.881	4.023	303492	REC_START	n/a	4	6	BEAM	n/a	BEAM	WAGON	-1	[0, 0, 0]	-999	PAL1	0	R1392N
306.904	1.001	307515	PROBE_END	n/a	4	6	BEAM	n/a	BEAM	WAGON	-1	[0, 0, 0]	-999	PAL1	0	R1392N
307.905	0.01	308516	REC_END	n/a	4	6	BEAM	n/a	BEAM	WAGON	-1	[0, 0, 0]	-999	PAL1	0	R1392N
307.915	0.0	308526	RETRIEVAL_END	n/a	-999	-999	n/a	n/a	n/a	n/a	-1	[0, 0, 0]	-999	PAL1	0	R1392N
307.915	0.747	308526	PRACTICE_POST_INSTRUCT_START	n/a	-999	-999	n/a	n/a	n/a	n/a	-1	[0, 0, 0]	-999	PAL1	0	R1392N
308.662	4.577	309273	REC_EVENT	5781	4	6	BEAM	<>	BEAM	WAGON	-1	[0, 0, 0]	-999	PAL1	0	R1392N
313.239	0.001	313849	PRACTICE_POST_INSTRUCT_END	n/a	-999	-999	n/a	n/a	n/a	n/a	-1	[0, 0, 0]	-999	PAL1	0	R1392N
313.24	0.023	313850	TRIAL_END	n/a	-999	-999	n/a	n/a	n/a	n/a	-1	[0, 0, 0]	-999	PAL1	0	R1392N
313.263	0.001	313873	TRIAL_START	n/a	-999	-999	n/a	n/a	n/a	n/a	-1	[0, 0, 0]	-999	PAL1	0	R1392N
313.264	0.0	313874	TRIAL	n/a	-999	-999	n/a	n/a	n/a	n/a	1	[0, 0, 0]	-999	PAL1	0	R1392N
313.264	2.959	313874	WAITING_START	n/a	-999	-999	n/a	n/a	n/a	n/a	1	[0, 0, 0]	-999	PAL1	0	R1392N
316.223	0.0	316833	WAITING_END	n/a	-999	-999	n/a	n/a	n/a	n/a	1	[0, 0, 0]	-999	PAL1	0	R1392N
316.223	10.43	316833	COUNTDOWN_START	n/a	-999	-999	n/a	n/a	n/a	n/a	1	[0, 0, 0]	-999	PAL1	0	R1392N
326.653	0.0	327263	ORIENT_START	n/a	-999	-999	n/a	n/a	n/a	n/a	1	[0, 0, 0]	-999	PAL1	0	R1392N
326.653	0.555	327263	COUNTDOWN_END	n/a	-999	-999	n/a	n/a	n/a	n/a	1	[0, 0, 0]	-999	PAL1	0	R1392N
327.208	0.0	327818	ORIENT_END	n/a	-999	-999	n/a	n/a	n/a	n/a	1	[0, 0, 0]	-999	PAL1	0	R1392N
327.208	1.117	327818	ENCODING_START	n/a	-999	-999	n/a	n/a	n/a	n/a	1	[0, 0, 0]	-999	PAL1	0	R1392N
328.325	4.034	328935	STUDY_PAIR	n/a	1	1	n/a	n/a	DIME	BEACH	1	[0, 0, 0]	-999	PAL1	0	R1392N
332.359	0.512	332969	STUDY_PAIR_OFF	n/a	1	1	n/a	n/a	DIME	BEACH	1	[0, 0, 0]	-999	PAL1	0	R1392N
332.871	4.039	333481	STUDY_PAIR	n/a	2	4	n/a	n/a	LAMP	BOMB	1	[0, 0, 0]	-999	PAL1	0	R1392N
336.91	0.631	337520	STUDY_PAIR_OFF	n/a	2	4	n/a	n/a	LAMP	BOMB	1	[0, 0, 0]	-999	PAL1	0	R1392N
337.541	4.035	338151	STUDY_PAIR	n/a	3	5	n/a	n/a	HEN	CUBE	1	[0, 0, 0]	-999	PAL1	0	R1392N
341.576	0.651	342185	STUDY_PAIR_OFF	n/a	3	5	n/a	n/a	HEN	CUBE	1	[0, 0, 0]	-999	PAL1	0	R1392N
342.227	4.034	342836	STUDY_PAIR	n/a	4	2	n/a	NET	TRAY	SIGN	1	[0, 0, 0]	-999	PAL1	0	R1392N
346.261	0.71	346870	STUDY_PAIR_OFF	n/a	4	2	n/a	NET	TRAY	SIGN	1	[0, 0, 0]	-999	PAL1	0	R1392N
346.971	4.024	347580	STUDY_PAIR	n/a	5	3	n/a	CAVE	NET	CAVE	1	[0, 0, 0]	-999	PAL1	0	R1392N
350.995	0.535	351604	STUDY_PAIR_OFF	n/a	5	3	n/a	CAVE	NET	CAVE	1	[0, 0, 0]	-999	PAL1	0	R1392N
351.53	4.032	352139	STUDY_PAIR	n/a	6	6	n/a	TRAIN	BOARD	TRAIN	1	[0, 0, 0]	-999	PAL1	0	R1392N
355.562	0.0	356171	STUDY_PAIR_OFF	n/a	6	6	n/a	TRAIN	BOARD	TRAIN	1	[0, 0, 0]	-999	PAL1	0	R1392N
355.562	0.0	356171	ENCODING_END	n/a	-999	-999	n/a	n/a	n/a	n/a	1	[0, 0, 0]	-999	PAL1	0	R1392N
355.562	0.0	356171	MATH_START	n/a	-999	-999	n/a	n/a	n/a	n/a	1	[0, 0, 0]	-999	PAL1	0	R1392N
355.562	0.016	356171	START	n/a	-999	-999	n/a	n/a	n/a	n/a	1	[-999, -999, -999]	-999	PAL1	0	R1392N
355.578	4.217	356187	PROB	4186	-999	-999	n/a	n/a	n/a	n/a	1	[6, 9, 7]	22	PAL1	0	R1392N
359.795	2.934	360404	PROB	2897	-999	-999	n/a	n/a	n/a	n/a	1	[2, 2, 6]	10	PAL1	0	R1392N
362.729	2.452	363338	PROB	2427	-999	-999	n/a	n/a	n/a	n/a	1	[6, 3, 3]	12	PAL1	0	R1392N
365.181	5.666	365790	PROB	5631	-999	-999	n/a	n/a	n/a	n/a	1	[7, 4, 7]	18	PAL1	0	R1392N
370.847	2.085	371455	PROB	2045	-999	-999	n/a	n/a	n/a	n/a	1	[1, 2, 3]	6	PAL1	0	R1392N
372.932	2.0	373540	PROB	1977	-999	-999	n/a	n/a	n/a	n/a	1	[5, 5, 6]	16	PAL1	0	R1392N
374.932	2.392	375540	PROB	2392	-999	-999	n/a	n/a	n/a	n/a	1	[7, 8, 2]	17	PAL1	0	R1392N
377.324	0.009	377932	STOP	n/a	-999	-999	n/a	n/a	n/a	n/a	1	[-999, -999, -999]	-999	PAL1	0	R1392N
377.333	0.648	377941	MATH_END	n/a	-999	-999	n/a	n/a	n/a	n/a	1	[0, 0, 0]	-999	PAL1	0	R1392N
377.981	0.002	378589	RETRIEVAL_START	n/a	-999	-999	n/a	n/a	n/a	n/a	1	[0, 0, 0]	-999	PAL1	0	R1392N
377.983	0.283	378591	ORIENT_START	n/a	-999	-999	n/a	n/a	n/a	n/a	1	[0, 0, 0]	-999	PAL1	0	R1392N
378.266	0.668	378874	ORIENT_END	n/a	-999	-999	n/a	n/a	n/a	n/a	1	[0, 0, 0]	-999	PAL1	0	R1392N
378.934	0.001	379542	REC_START	n/a	1	1	BEACH	n/a	DIME	BEACH	1	[0, 0, 0]	-999	PAL1	0	R1392N
378.935	4.032	379543	PROBE_START	n/a	1	1	BEACH	n/a	DIME	BEACH	1	[0, 0, 0]	-999	PAL1	0	R1392N
382.967	1.0	383575	PROBE_END	n/a	1	1	BEACH	n/a	DIME	BEACH	1	[0, 0, 0]	-999	PAL1	0	R1392N
383.967	0.013	384575	REC_END	n/a	1	1	BEACH	n/a	DIME	BEACH	1	[0, 0, 0]	-999	PAL1	0	R1392N
383.98	0.271	384588	ORIENT_START	n/a	-999	-999	n/a	n/a	n/a	n/a	1	[0, 0, 0]	-999	PAL1	0	R1392N
384.251	0.581	384859	ORIENT_END	n/a	-999	-999	n/a	n/a	n/a	n/a	1	[0, 0, 0]	-999	PAL1	0	R1392N
384.832	0.0	385440	REC_START	n/a	4	2	TRAY	NET	TRAY	SIGN	1	[0, 0, 0]	-999	PAL1	0	R1392N
384.832	0.077	385440	PROBE_START	n/a	4	2	TRAY	NET	TRAY	SIGN	1	[0, 0, 0]	-999	PAL1	0	R1392N
384.909	2.924	385517	REC_EVENT	5974	1	1	BEACH	<>	DIME	BEACH	1	[0, 0, 0]	-999	PAL1	0	R1392N
387.833	1.034	388441	REC_EVENT	3001	4	2	TRAY	NET	TRAY	SIGN	1	[0, 0, 0]	-999	PAL1	0	R1392N
388.867	1.0	389475	PROBE_END	n/a	4	2	TRAY	n/a	TRAY	SIGN	1	[0, 0, 0]	-999	PAL1	0	R1392N
389.867	0.01	390475	REC_END	n/a	4	2	TRAY	n/a	TRAY	SIGN	1	[0, 0, 0]	-999	PAL1	0	R1392N
389.877	0.275	390485	ORIENT_START	n/a	-999	-999	n/a	n/a	n/a	n/a	1	[0, 0, 0]	-999	PAL1	0	R1392N
390.152	0.546	390760	ORIENT_END	n/a	-999	-999	n/a	n/a	n/a	n/a	1	[0, 0, 0]	-999	PAL1	0	R1392N
390.698	0.0	391306	PROBE_START	n/a	5	3	CAVE	CAVE	NET	CAVE	1	[0, 0, 0]	-999	PAL1	0	R1392N
390.698	4.037	391306	REC_START	n/a	5	3	CAVE	CAVE	NET	CAVE	1	[0, 0, 0]	-999	PAL1	0	R1392N
394.735	0.622	395343	PROBE_END	n/a	5	3	CAVE	n/a	NET	CAVE	1	[0, 0, 0]	-999	PAL1	0	R1392N
395.357	0.378	395965	REC_EVENT	4659	5	3	CAVE	NET	NET	CAVE	1	[0, 0, 0]	-999	PAL1	0	R1392N
395.735	0.01	396343	REC_END	n/a	5	3	CAVE	n/a	NET	CAVE	1	[0, 0, 0]	-999	PAL1	0	R1392N
395.745	0.019	396353	ORIENT_START	n/a	-999	-999	n/a	n/a	n/a	n/a	1	[0, 0, 0]	-999	PAL1	0	R1392N
395.764	0.255	396372	REC_EVENT	5066	5	3	CAVE	CAVE	NET	CAVE	1	[0, 0, 0]	-999	PAL1	0	R1392N
396.019	0.607	396627	ORIENT_END	n/a	-999	-999	n/a	n/a	n/a	n/a	1	[0, 0, 0]	-999	PAL1	0	R1392N
396.626	0.0	397234	REC_START	n/a	2	4	BOMB	n/a	LAMP	BOMB	1	[0, 0, 0]	-999	PAL1	0	R1392N
396.626	4.026	397234	PROBE_START	n/a	2	4	BOMB	n/a	LAMP	BOMB	1	[0, 0, 0]	-999	PAL1	0	R1392N
400.652	1.0	401259	PROBE_END	n/a	2	4	BOMB	n/a	LAMP	BOMB	1	[0, 0, 0]	-999	PAL1	0	R1392N
401.652	0.013	402259	REC_END	n/a	2	4	BOMB	n/a	LAMP	BOMB	1	[0, 0, 0]	-999	PAL1	0	R1392N
401.665	0.272	402272	ORIENT_START	n/a	-999	-999	n/a	n/a	n/a	n/a	1	[0, 0, 0]	-999	PAL1	0	R1392N
401.937	0.588	402544	ORIENT_END	n/a	-999	-999	n/a	n/a	n/a	n/a	1	[0, 0, 0]	-999	PAL1	0	R1392N
402.525	0.137	403132	REC_EVENT	5899	2	4	BOMB	<>	LAMP	BOMB	1	[0, 0, 0]	-999	PAL1	0	R1392N
402.662	0.0	403269	REC_START	n/a	3	5	HEN	n/a	HEN	CUBE	1	[0, 0, 0]	-999	PAL1	0	R1392N
402.662	4.025	403269	PROBE_START	n/a	3	5	HEN	n/a	HEN	CUBE	1	[0, 0, 0]	-999	PAL1	0	R1392N
406.687	1.001	407294	PROBE_END	n/a	3	5	HEN	n/a	HEN	CUBE	1	[0, 0, 0]	-999	PAL1	0	R1392N
407.688	0.012	408295	REC_END	n/a	3	5	HEN	n/a	HEN	CUBE	1	[0, 0, 0]	-999	PAL1	0	R1392N
407.7	0.271	408307	ORIENT_START	n/a	-999	-999	n/a	n/a	n/a	n/a	1	[0, 0, 0]	-999	PAL1	0	R1392N
407.971	0.536	408578	ORIENT_END	n/a	-999	-999	n/a	n/a	n/a	n/a	1	[0, 0, 0]	-999	PAL1	0	R1392N
408.507	0.0	409114	REC_START	n/a	6	6	BOARD	TRAIN	BOARD	TRAIN	1	[0, 0, 0]	-999	PAL1	0	R1392N
408.507	0.13	409114	PROBE_START	n/a	6	6	BOARD	TRAIN	BOARD	TRAIN	1	[0, 0, 0]	-999	PAL1	0	R1392N
408.637	1.561	409244	REC_EVENT	5975	3	5	HEN	<>	HEN	CUBE	1	[0, 0, 0]	-999	PAL1	0	R1392N
410.198	0.557	410805	REC_EVENT	1691	6	6	BOARD	BOARD	BOARD	TRAIN	1	[0, 0, 0]	-999	PAL1	0	R1392N
410.755	1.783	411362	REC_EVENT	2248	6	6	BOARD	TRAIN	BOARD	TRAIN	1	[0, 0, 0]	-999	PAL1	0	R1392N
412.538	0.999	413145	PROBE_END	n/a	6	6	BOARD	n/a	BOARD	TRAIN	1	[0, 0, 0]	-999	PAL1	0	R1392N
413.537	0.011	414144	REC_END	n/a	6	6	BOARD	n/a	BOARD	TRAIN	1	[0, 0, 0]	-999	PAL1	0	R1392N
413.548	0.0	414155	RETRIEVAL_END	n/a	-999	-999	n/a	n/a	n/a	n/a	1	[0, 0, 0]	-999	PAL1	0	R1392N
413.548	0.022	414155	TRIAL_END	n/a	-999	-999	n/a	n/a	n/a	n/a	1	[0, 0, 0]	-999	PAL1	0	R1392N
413.57	0.0	414177	TRIAL_START	n/a	-999	-999	n/a	n/a	n/a	n/a	1	[0, 0, 0]	-999	PAL1	0	R1392N
413.57	0.0	414177	TRIAL	n/a	-999	-999	n/a	n/a	n/a	n/a	2	[0, 0, 0]	-999	PAL1	0	R1392N
413.57	3.67	414177	WAITING_START	n/a	-999	-999	n/a	n/a	n/a	n/a	2	[0, 0, 0]	-999	PAL1	0	R1392N
417.24	0.0	417847	WAITING_END	n/a	-999	-999	n/a	n/a	n/a	n/a	2	[0, 0, 0]	-999	PAL1	0	R1392N
417.24	10.429	417847	COUNTDOWN_START	n/a	-999	-999	n/a	n/a	n/a	n/a	2	[0, 0, 0]	-999	PAL1	0	R1392N
427.669	0.001	428276	COUNTDOWN_END	n/a	-999	-999	n/a	n/a	n/a	n/a	2	[0, 0, 0]	-999	PAL1	0	R1392N
427.67	0.737	428277	ORIENT_START	n/a	-999	-999	n/a	n/a	n/a	n/a	2	[0, 0, 0]	-999	PAL1	0	R1392N
428.407	0.0	429013	ENCODING_START	n/a	-999	-999	n/a	n/a	n/a	n/a	2	[0, 0, 0]	-999	PAL1	0	R1392N
428.407	1.094	429013	ORIENT_END	n/a	-999	-999	n/a	n/a	n/a	n/a	2	[0, 0, 0]	-999	PAL1	0	R1392N
429.501	4.04	430107	STUDY_PAIR	n/a	1	1	n/a	CAPE	TEETH	CAPE	2	[0, 0, 0]	-999	PAL1	0	R1392N
433.541	0.74	434147	STUDY_PAIR_OFF	n/a	1	1	n/a	CAPE	TEETH	CAPE	2	[0, 0, 0]	-999	PAL1	0	R1392N
434.281	4.029	434887	STUDY_PAIR	n/a	2	2	n/a	FLUSH	FLAME	STOOL	2	[0, 0, 0]	-999	PAL1	0	R1392N
438.31	0.614	438916	STUDY_PAIR_OFF	n/a	2	2	n/a	FLUSH	FLAME	STOOL	2	[0, 0, 0]	-999	PAL1	0	R1392N
438.924	4.036	439530	STUDY_PAIR	n/a	3	5	n/a	n/a	CASH	JUDGE	2	[0, 0, 0]	-999	PAL1	0	R1392N
442.96	0.539	443566	STUDY_PAIR_OFF	n/a	3	5	n/a	n/a	CASH	JUDGE	2	[0, 0, 0]	-999	PAL1	0	R1392N
443.499	4.028	444105	STUDY_PAIR	n/a	4	4	n/a	n/a	SLUSH	JAIL	2	[0, 0, 0]	-999	PAL1	0	R1392N
447.527	0.593	448133	STUDY_PAIR_OFF	n/a	4	4	n/a	n/a	SLUSH	JAIL	2	[0, 0, 0]	-999	PAL1	0	R1392N
448.12	4.025	448726	STUDY_PAIR	n/a	5	3	n/a	FOX	FOX	MAP	2	[0, 0, 0]	-999	PAL1	0	R1392N
452.145	0.583	452751	STUDY_PAIR_OFF	n/a	5	3	n/a	FOX	FOX	MAP	2	[0, 0, 0]	-999	PAL1	0	R1392N
452.728	4.034	453334	STUDY_PAIR	n/a	6	6	n/a	n/a	BEAK	PEAR	2	[0, 0, 0]	-999	PAL1	0	R1392N
456.762	0.0	457368	STUDY_PAIR_OFF	n/a	6	6	n/a	n/a	BEAK	PEAR	2	[0, 0, 0]	-999	PAL1	0	R1392N
456.762	0.001	457368	ENCODING_END	n/a	-999	-999	n/a	n/a	n/a	n/a	2	[0, 0, 0]	-999	PAL1	0	R1392N
456.763	0.0	457369	MATH_START	n/a	-999	-999	n/a	n/a	n/a	n/a	2	[0, 0, 0]	-999	PAL1	0	R1392N
456.763	0.015	457369	START	n/a	-999	-999	n/a	n/a	n/a	n/a	2	[-999, -999, -999]	-999	PAL1	0	R1392N
456.778	3.218	457384	PROB	3187	-999	-999	n/a	n/a	n/a	n/a	2	[1, 4, 4]	9	PAL1	0	R1392N
459.996	3.483	460601	PROB	3455	-999	-999	n/a	n/a	n/a	n/a	2	[8, 4, 2]	14	PAL1	0	R1392N
463.479	4.552	464084	PROB	4518	-999	-999	n/a	n/a	n/a	n/a	2	[8, 1, 8]	17	PAL1	0	R1392N
468.031	1.884	468636	PROB	1852	-999	-999	n/a	n/a	n/a	n/a	2	[3, 1, 1]	5	PAL1	0	R1392N
469.915	2.333	470520	PROB	2305	-999	-999	n/a	n/a	n/a	n/a	2	[1, 6, 6]	13	PAL1	0	R1392N
472.248	2.718	472853	PROB	2684	-999	-999	n/a	n/a	n/a	n/a	2	[8, 9, 3]	15	PAL1	0	R1392N
474.966	3.366	475571	PROB	3366	-999	-999	n/a	n/a	n/a	n/a	2	[5, 7, 7]	19	PAL1	0	R1392N
478.332	0.018	478937	STOP	n/a	-999	-999	n/a	n/a	n/a	n/a	2	[-999, -999, -999]	-999	PAL1	0	R1392N
478.35	0.698	478955	MATH_END	n/a	-999	-999	n/a	n/a	n/a	n/a	2	[0, 0, 0]	-999	PAL1	0	R1392N
479.048	0.001	479653	RETRIEVAL_START	n/a	-999	-999	n/a	n/a	n/a	n/a	2	[0, 0, 0]	-999	PAL1	0	R1392N
479.049	0.284	479654	ORIENT_START	n/a	-999	-999	n/a	n/a	n/a	n/a	2	[0, 0, 0]	-999	PAL1	0	R1392N
479.333	0.596	479938	ORIENT_END	n/a	-999	-999	n/a	n/a	n/a	n/a	2	[0, 0, 0]	-999	PAL1	0	R1392N
479.929	0.0	480534	REC_START	n/a	1	1	CAPE	CAPE	TEETH	CAPE	2	[0, 0, 0]	-999	PAL1	0	R1392N
479.929	4.038	480534	PROBE_START	n/a	1	1	CAPE	CAPE	TEETH	CAPE	2	[0, 0, 0]	-999	PAL1	0	R1392N
483.967	0.824	484572	PROBE_END	n/a	1	1	CAPE	n/a	TEETH	CAPE	2	[0, 0, 0]	-999	PAL1	0	R1392N
484.791	0.177	485396	REC_EVENT	4862	1	1	CAPE	FLUSH	TEETH	CAPE	2	[0, 0, 0]	-999	PAL1	0	R1392N
484.968	0.012	485573	REC_END	n/a	1	1	CAPE	n/a	TEETH	CAPE	2	[0, 0, 0]	-999	PAL1	0	R1392N
484.98	0.271	485585	ORIENT_START	n/a	-999	-999	n/a	n/a	n/a	n/a	2	[0, 0, 0]	-999	PAL1	0	R1392N
485.251	0.221	485856	ORIENT_END	n/a	-999	-999	n/a	n/a	n/a	n/a	2	[0, 0, 0]	-999	PAL1	0	R1392N
485.472	0.296	486077	REC_EVENT	5543	1	1	CAPE	CAPE	TEETH	CAPE	2	[0, 0, 0]	-999	PAL1	0	R1392N
485.768	0.0	486373	REC_START	n/a	2	2	STOOL	FLUSH	FLAME	STOOL	2	[0, 0, 0]	-999	PAL1	0	R1392N
485.768	4.033	486373	PROBE_START	n/a	2	2	STOOL	FLUSH	FLAME	STOOL	2	[0, 0, 0]	-999	PAL1	0	R1392N
489.801	0.999	490405	PROBE_END	n/a	2	2	STOOL	n/a	FLAME	STOOL	2	[0, 0, 0]	-999	PAL1	0	R1392N
490.8	0.009	491404	REC_END	n/a	2	2	STOOL	n/a	FLAME	STOOL	2	[0, 0, 0]	-999	PAL1	0	R1392N
490.809	0.031	491413	ORIENT_START	n/a	-999	-999	n/a	n/a	n/a	n/a	2	[0, 0, 0]	-999	PAL1	0	R1392N
490.84	0.245	491444	REC_EVENT	5072	2	2	STOOL	FLUSH	FLAME	STOOL	2	[0, 0, 0]	-999	PAL1	0	R1392N
491.085	0.684	491689	ORIENT_END	n/a	-999	-999	n/a	n/a	n/a	n/a	2	[0, 0, 0]	-999	PAL1	0	R1392N
491.769	0.0	492373	PROBE_START	n/a	5	3	FOX	FOX	FOX	MAP	2	[0, 0, 0]	-999	PAL1	0	R1392N
491.769	0.0	492373	REC_EVENT	0	5	3	FOX	STOOL	FOX	MAP	2	[0, 0, 0]	-999	PAL1	0	R1392N
491.769	4.032	492373	REC_START	n/a	5	3	FOX	FOX	FOX	MAP	2	[0, 0, 0]	-999	PAL1	0	R1392N
495.801	0.386	496405	PROBE_END	n/a	5	3	FOX	n/a	FOX	MAP	2	[0, 0, 0]	-999	PAL1	0	R1392N
496.187	0.465	496791	REC_EVENT	4418	5	3	FOX	CANE	FOX	MAP	2	[0, 0, 0]	-999	PAL1	0	R1392N
496.652	0.149	497256	REC_EVENT	4883	5	3	FOX	FOX	FOX	MAP	2	[0, 0, 0]	-999	PAL1	0	R1392N
496.801	0.012	497405	REC_END	n/a	5	3	FOX	n/a	FOX	MAP	2	[0, 0, 0]	-999	PAL1	0	R1392N
496.813	0.256	497417	ORIENT_START	n/a	-999	-999	n/a	n/a	n/a	n/a	2	[0, 0, 0]	-999	PAL1	0	R1392N
497.069	0.729	497673	ORIENT_END	n/a	-999	-999	n/a	n/a	n/a	n/a	2	[0, 0, 0]	-999	PAL1	0	R1392N
497.798	0.0	498402	REC_START	n/a	4	4	SLUSH	n/a	SLUSH	JAIL	2	[0, 0, 0]	-999	PAL1	0	R1392N
497.798	4.038	498402	PROBE_START	n/a	4	4	SLUSH	n/a	SLUSH	JAIL	2	[0, 0, 0]	-999	PAL1	0	R1392N
501.836	1.001	502440	PROBE_END	n/a	4	4	SLUSH	n/a	SLUSH	JAIL	2	[0, 0, 0]	-999	PAL1	0	R1392N
502.837	0.012	503441	REC_END	n/a	4	4	SLUSH	n/a	SLUSH	JAIL	2	[0, 0, 0]	-999	PAL1	0	R1392N
502.849	0.255	503453	ORIENT_START	n/a	-999	-999	n/a	n/a	n/a	n/a	2	[0, 0, 0]	-999	PAL1	0	R1392N
503.104	0.652	503708	ORIENT_END	n/a	-999	-999	n/a	n/a	n/a	n/a	2	[0, 0, 0]	-999	PAL1	0	R1392N
503.756	0.001	504360	REC_START	n/a	3	5	CASH	n/a	CASH	JUDGE	2	[0, 0, 0]	-999	PAL1	0	R1392N
503.757	0.008	504361	PROBE_START	n/a	3	5	CASH	n/a	CASH	JUDGE	2	[0, 0, 0]	-999	PAL1	0	R1392N
503.765	4.022	504369	REC_EVENT	5967	4	4	SLUSH	<>	SLUSH	JAIL	2	[0, 0, 0]	-999	PAL1	0	R1392N
507.787	1.001	508391	PROBE_END	n/a	3	5	CASH	n/a	CASH	JUDGE	2	[0, 0, 0]	-999	PAL1	0	R1392N
508.788	0.012	509392	REC_END	n/a	3	5	CASH	n/a	CASH	JUDGE	2	[0, 0, 0]	-999	PAL1	0	R1392N
508.8	0.255	509404	ORIENT_START	n/a	-999	-999	n/a	n/a	n/a	n/a	2	[0, 0, 0]	-999	PAL1	0	R1392N
509.055	0.629	509659	ORIENT_END	n/a	-999	-999	n/a	n/a	n/a	n/a	2	[0, 0, 0]	-999	PAL1	0	R1392N
509.684	0.0	510288	REC_START	n/a	6	6	PEAR	n/a	BEAK	PEAR	2	[0, 0, 0]	-999	PAL1	0	R1392N
509.684	0.006	510288	PROBE_START	n/a	6	6	PEAR	n/a	BEAK	PEAR	2	[0, 0, 0]	-999	PAL1	0	R1392N
509.69	4.031	510294	REC_EVENT	5933	3	5	CASH	<>	CASH	JUDGE	2	[0, 0, 0]	-999	PAL1	0	R1392N
513.721	1.001	514325	PROBE_END	n/a	6	6	PEAR	n/a	BEAK	PEAR	2	[0, 0, 0]	-999	PAL1	0	R1392N
514.722	0.012	515326	REC_END	n/a	6	6	PEAR	n/a	BEAK	PEAR	2	[0, 0, 0]	-999	PAL1	0	R1392N
514.734	0.0	515338	RETRIEVAL_END	n/a	-999	-999	n/a	n/a	n/a	n/a	2	[0, 0, 0]	-999	PAL1	0	R1392N
514.734	0.02	515338	TRIAL_END	n/a	-999	-999	n/a	n/a	n/a	n/a	2	[0, 0, 0]	-999	PAL1	0	R1392N
514.754	0.001	515358	TRIAL_START	n/a	-999	-999	n/a	n/a	n/a	n/a	2	[0, 0, 0]	-999	PAL1	0	R1392N
514.755	0.0	515359	TRIAL	n/a	-999	-999	n/a	n/a	n/a	n/a	3	[0, 0, 0]	-999	PAL1	0	R1392N
514.755	0.808	515359	WAITING_START	n/a	-999	-999	n/a	n/a	n/a	n/a	3	[0, 0, 0]	-999	PAL1	0	R1392N
515.563	3.026	516167	REC_EVENT	5879	6	6	PEAR	<>	BEAK	PEAR	2	[0, 0, 0]	-999	PAL1	0	R1392N
518.589	0.0	519192	COUNTDOWN_START	n/a	-999	-999	n/a	n/a	n/a	n/a	3	[0, 0, 0]	-999	PAL1	0	R1392N
518.589	10.429	519192	WAITING_END	n/a	-999	-999	n/a	n/a	n/a	n/a	3	[0, 0, 0]	-999	PAL1	0	R1392N
529.018	0.0	529621	ORIENT_START	n/a	-999	-999	n/a	n/a	n/a	n/a	3	[0, 0, 0]	-999	PAL1	0	R1392N
529.018	0.606	529621	COUNTDOWN_END	n/a	-999	-999	n/a	n/a	n/a	n/a	3	[0, 0, 0]	-999	PAL1	0	R1392N
529.624	0.0	530227	ORIENT_END	n/a	-999	-999	n/a	n/a	n/a	n/a	3	[0, 0, 0]	-999	PAL1	0	R1392N
529.624	1.027	530227	ENCODING_START	n/a	-999	-999	n/a	n/a	n/a	n/a	3	[0, 0, 0]	-999	PAL1	0	R1392N
530.651	4.04	531254	STUDY_PAIR	n/a	1	1	n/a	n/a	TOAST	SWAMP	3	[0, 0, 0]	-999	PAL1	0	R1392N
534.691	0.686	535294	STUDY_PAIR_OFF	n/a	1	1	n/a	n/a	TOAST	SWAMP	3	[0, 0, 0]	-999	PAL1	0	R1392N
535.377	4.032	535980	STUDY_PAIR	n/a	2	6	n/a	n/a	BEE	WALL	3	[0, 0, 0]	-999	PAL1	0	R1392N
539.409	0.571	540012	STUDY_PAIR_OFF	n/a	2	6	n/a	n/a	BEE	WALL	3	[0, 0, 0]	-999	PAL1	0	R1392N
539.98	4.031	540583	STUDY_PAIR	n/a	3	3	n/a	n/a	GOLD	LAKE	3	[0, 0, 0]	-999	PAL1	0	R1392N
544.011	0.655	544614	STUDY_PAIR_OFF	n/a	3	3	n/a	n/a	GOLD	LAKE	3	[0, 0, 0]	-999	PAL1	0	R1392N
544.666	4.028	545269	STUDY_PAIR	n/a	4	2	n/a	HAT	CONE	HAT	3	[0, 0, 0]	-999	PAL1	0	R1392N
548.694	0.708	549296	STUDY_PAIR_OFF	n/a	4	2	n/a	HAT	CONE	HAT	3	[0, 0, 0]	-999	PAL1	0	R1392N
549.402	4.026	550004	STUDY_PAIR	n/a	5	5	n/a	SWAMP	SPARK	SOAP	3	[0, 0, 0]	-999	PAL1	0	R1392N
553.428	0.573	554030	STUDY_PAIR_OFF	n/a	5	5	n/a	SWAMP	SPARK	SOAP	3	[0, 0, 0]	-999	PAL1	0	R1392N
554.001	4.028	554603	STUDY_PAIR	n/a	6	4	n/a	FENCE	MOON	FENCE	3	[0, 0, 0]	-999	PAL1	0	R1392N
558.029	0.001	558631	STUDY_PAIR_OFF	n/a	6	4	n/a	FENCE	MOON	FENCE	3	[0, 0, 0]	-999	PAL1	0	R1392N
558.03	0.0	558632	ENCODING_END	n/a	-999	-999	n/a	n/a	n/a	n/a	3	[0, 0, 0]	-999	PAL1	0	R1392N
558.03	0.0	558632	MATH_START	n/a	-999	-999	n/a	n/a	n/a	n/a	3	[0, 0, 0]	-999	PAL1	0	R1392N
558.03	0.016	558632	START	n/a	-999	-999	n/a	n/a	n/a	n/a	3	[-999, -999, -999]	-999	PAL1	0	R1392N
558.046	6.001	558648	PROB	5965	-999	-999	n/a	n/a	n/a	n/a	3	[9, 2, 7]	18	PAL1	0	R1392N
564.047	2.449	564649	PROB	2413	-999	-999	n/a	n/a	n/a	n/a	3	[7, 6, 2]	15	PAL1	0	R1392N
566.496	1.868	567098	PROB	1836	-999	-999	n/a	n/a	n/a	n/a	3	[1, 2, 8]	11	PAL1	0	R1392N
568.364	2.45	568966	PROB	2424	-999	-999	n/a	n/a	n/a	n/a	3	[5, 9, 4]	18	PAL1	0	R1392N
570.814	3.168	571416	PROB	3135	-999	-999	n/a	n/a	n/a	n/a	3	[3, 8, 4]	15	PAL1	0	R1392N
573.982	2.783	574584	PROB	2758	-999	-999	n/a	n/a	n/a	n/a	3	[7, 3, 6]	16	PAL1	0	R1392N
576.765	2.07	577366	PROB	2070	-999	-999	n/a	n/a	n/a	n/a	3	[2, 2, 6]	10	PAL1	0	R1392N
578.835	0.014	579436	STOP	n/a	-999	-999	n/a	n/a	n/a	n/a	3	[-999, -999, -999]	-999	PAL1	0	R1392N
578.849	0.606	579450	MATH_END	n/a	-999	-999	n/a	n/a	n/a	n/a	3	[0, 0, 0]	-999	PAL1	0	R1392N
579.455	0.001	580056	RETRIEVAL_START	n/a	-999	-999	n/a	n/a	n/a	n/a	3	[0, 0, 0]	-999	PAL1	0	R1392N
579.456	0.276	580057	ORIENT_START	n/a	-999	-999	n/a	n/a	n/a	n/a	3	[0, 0, 0]	-999	PAL1	0	R1392N
579.732	0.512	580333	ORIENT_END	n/a	-999	-999	n/a	n/a	n/a	n/a	3	[0, 0, 0]	-999	PAL1	0	R1392N
580.244	0.001	580845	REC_START	n/a	1	1	SWAMP	n/a	TOAST	SWAMP	3	[0, 0, 0]	-999	PAL1	0	R1392N
580.245	4.039	580846	PROBE_START	n/a	1	1	SWAMP	n/a	TOAST	SWAMP	3	[0, 0, 0]	-999	PAL1	0	R1392N
584.284	1.0	584885	PROBE_END	n/a	1	1	SWAMP	n/a	TOAST	SWAMP	3	[0, 0, 0]	-999	PAL1	0	R1392N
585.284	0.011	585885	REC_END	n/a	1	1	SWAMP	n/a	TOAST	SWAMP	3	[0, 0, 0]	-999	PAL1	0	R1392N
585.295	0.272	585896	ORIENT_START	n/a	-999	-999	n/a	n/a	n/a	n/a	3	[0, 0, 0]	-999	PAL1	0	R1392N
585.567	0.456	586168	ORIENT_END	n/a	-999	-999	n/a	n/a	n/a	n/a	3	[0, 0, 0]	-999	PAL1	0	R1392N
586.023	0.225	586624	REC_EVENT	5778	1	1	SWAMP	<>	TOAST	SWAMP	3	[0, 0, 0]	-999	PAL1	0	R1392N
586.248	0.001	586849	REC_START	n/a	4	2	HAT	HAT	CONE	HAT	3	[0, 0, 0]	-999	PAL1	0	R1392N
586.249	4.036	586850	PROBE_START	n/a	4	2	HAT	HAT	CONE	HAT	3	[0, 0, 0]	-999	PAL1	0	R1392N
590.285	0.839	590886	PROBE_END	n/a	4	2	HAT	n/a	CONE	HAT	3	[0, 0, 0]	-999	PAL1	0	R1392N
591.124	0.161	591725	REC_EVENT	4875	4	2	HAT	CONE	CONE	HAT	3	[0, 0, 0]	-999	PAL1	0	R1392N
591.285	0.011	591886	REC_END	n/a	4	2	HAT	n/a	CONE	HAT	3	[0, 0, 0]	-999	PAL1	0	R1392N
591.296	0.271	591897	ORIENT_START	n/a	-999	-999	n/a	n/a	n/a	n/a	3	[0, 0, 0]	-999	PAL1	0	R1392N
591.567	0.134	592168	ORIENT_END	n/a	-999	-999	n/a	n/a	n/a	n/a	3	[0, 0, 0]	-999	PAL1	0	R1392N
591.701	0.565	592302	REC_EVENT	5452	4	2	HAT	HAT	CONE	HAT	3	[0, 0, 0]	-999	PAL1	0	R1392N
592.266	0.0	592867	REC_EVENT	0	3	3	LAKE	<>	GOLD	LAKE	3	[0, 0, 0]	-999	PAL1	0	R1392N
592.266	0.0	592867	REC_START	n/a	3	3	LAKE	n/a	GOLD	LAKE	3	[0, 0, 0]	-999	PAL1	0	R1392N
592.266	4.036	592867	PROBE_START	n/a	3	3	LAKE	n/a	GOLD	LAKE	3	[0, 0, 0]	-999	PAL1	0	R1392N
596.302	1.0	596903	PROBE_END	n/a	3	3	LAKE	n/a	GOLD	LAKE	3	[0, 0, 0]	-999	PAL1	0	R1392N
597.302	0.013	597903	REC_END	n/a	3	3	LAKE	n/a	GOLD	LAKE	3	[0, 0, 0]	-999	PAL1	0	R1392N
597.315	0.27	597916	ORIENT_START	n/a	-999	-999	n/a	n/a	n/a	n/a	3	[0, 0, 0]	-999	PAL1	0	R1392N
597.585	0.639	598186	ORIENT_END	n/a	-999	-999	n/a	n/a	n/a	n/a	3	[0, 0, 0]	-999	PAL1	0	R1392N
598.224	0.06	598825	REC_EVENT	5958	3	3	LAKE	<>	GOLD	LAKE	3	[0, 0, 0]	-999	PAL1	0	R1392N
598.284	0.0	598885	REC_START	n/a	6	4	MOON	FENCE	MOON	FENCE	3	[0, 0, 0]	-999	PAL1	0	R1392N
598.284	1.966	598885	PROBE_START	n/a	6	4	MOON	FENCE	MOON	FENCE	3	[0, 0, 0]	-999	PAL1	0	R1392N
600.25	2.07	600851	REC_EVENT	1966	6	4	MOON	FENCE	MOON	FENCE	3	[0, 0, 0]	-999	PAL1	0	R1392N
602.32	1.0	602921	PROBE_END	n/a	6	4	MOON	n/a	MOON	FENCE	3	[0, 0, 0]	-999	PAL1	0	R1392N
603.32	0.012	603921	REC_END	n/a	6	4	MOON	n/a	MOON	FENCE	3	[0, 0, 0]	-999	PAL1	0	R1392N
603.332	0.271	603933	ORIENT_START	n/a	-999	-999	n/a	n/a	n/a	n/a	3	[0, 0, 0]	-999	PAL1	0	R1392N
603.603	0.545	604204	ORIENT_END	n/a	-999	-999	n/a	n/a	n/a	n/a	3	[0, 0, 0]	-999	PAL1	0	R1392N
604.148	0.001	604749	REC_START	n/a	5	5	SPARK	SWAMP	SPARK	SOAP	3	[0, 0, 0]	-999	PAL1	0	R1392N
604.149	3.422	604750	PROBE_START	n/a	5	5	SPARK	SWAMP	SPARK	SOAP	3	[0, 0, 0]	-999	PAL1	0	R1392N
607.571	0.6	608171	REC_EVENT	3422	5	5	SPARK	SPARK	SPARK	SOAP	3	[0, 0, 0]	-999	PAL1	0	R1392N
608.171	0.201	608771	PROBE_END	n/a	5	5	SPARK	n/a	SPARK	SOAP	3	[0, 0, 0]	-999	PAL1	0	R1392N
608.372	0.8	608972	REC_EVENT	4223	5	5	SPARK	SWAMP	SPARK	SOAP	3	[0, 0, 0]	-999	PAL1	0	R1392N
609.172	0.012	609772	REC_END	n/a	5	5	SPARK	n/a	SPARK	SOAP	3	[0, 0, 0]	-999	PAL1	0	R1392N
609.184	0.27	609784	ORIENT_START	n/a	-999	-999	n/a	n/a	n/a	n/a	3	[0, 0, 0]	-999	PAL1	0	R1392N
609.454	0.565	610054	ORIENT_END	n/a	-999	-999	n/a	n/a	n/a	n/a	3	[0, 0, 0]	-999	PAL1	0	R1392N
610.019	0.001	610619	REC_START	n/a	2	6	BEE	n/a	BEE	WALL	3	[0, 0, 0]	-999	PAL1	0	R1392N
610.02	4.036	610620	PROBE_START	n/a	2	6	BEE	n/a	BEE	WALL	3	[0, 0, 0]	-999	PAL1	0	R1392N
614.056	0.999	614656	PROBE_END	n/a	2	6	BEE	n/a	BEE	WALL	3	[0, 0, 0]	-999	PAL1	0	R1392N
615.055	0.011	615655	REC_END	n/a	2	6	BEE	n/a	BEE	WALL	3	[0, 0, 0]	-999	PAL1	0	R1392N
615.066	0.0	615666	RETRIEVAL_END	n/a	-999	-999	n/a	n/a	n/a	n/a	3	[0, 0, 0]	-999	PAL1	0	R1392N
615.066	0.02	615666	TRIAL_END	n/a	-999	-999	n/a	n/a	n/a	n/a	3	[0, 0, 0]	-999	PAL1	0	R1392N
615.086	0.0	615686	TRIAL_START	n/a	-999	-999	n/a	n/a	n/a	n/a	3	[0, 0, 0]	-999	PAL1	0	R1392N
615.086	0.0	615686	TRIAL	n/a	-999	-999	n/a	n/a	n/a	n/a	4	[0, 0, 0]	-999	PAL1	0	R1392N
615.086	0.758	615686	WAITING_START	n/a	-999	-999	n/a	n/a	n/a	n/a	4	[0, 0, 0]	-999	PAL1	0	R1392N
615.844	8.147	616444	REC_EVENT	5824	2	6	BEE	<>	BEE	WALL	3	[0, 0, 0]	-999	PAL1	0	R1392N
623.991	0.0	624591	WAITING_END	n/a	-999	-999	n/a	n/a	n/a	n/a	4	[0, 0, 0]	-999	PAL1	0	R1392N
623.991	10.429	624591	COUNTDOWN_START	n/a	-999	-999	n/a	n/a	n/a	n/a	4	[0, 0, 0]	-999	PAL1	0	R1392N
634.42	0.0	635020	ORIENT_START	n/a	-999	-999	n/a	n/a	n/a	n/a	4	[0, 0, 0]	-999	PAL1	0	R1392N
634.42	0.706	635020	COUNTDOWN_END	n/a	-999	-999	n/a	n/a	n/a	n/a	4	[0, 0, 0]	-999	PAL1	0	R1392N
635.126	0.0	635725	ORIENT_END	n/a	-999	-999	n/a	n/a	n/a	n/a	4	[0, 0, 0]	-999	PAL1	0	R1392N
635.126	1.064	635725	ENCODING_START	n/a	-999	-999	n/a	n/a	n/a	n/a	4	[0, 0, 0]	-999	PAL1	0	R1392N
636.19	4.036	636789	STUDY_PAIR	n/a	1	1	n/a	TREE	PIE	TREE	4	[0, 0, 0]	-999	PAL1	0	R1392N
640.226	0.649	640825	STUDY_PAIR_OFF	n/a	1	1	n/a	TREE	PIE	TREE	4	[0, 0, 0]	-999	PAL1	0	R1392N
640.875	4.036	641474	STUDY_PAIR	n/a	2	2	n/a	n/a	STRING	FLUTE	4	[0, 0, 0]	-999	PAL1	0	R1392N
644.911	0.749	645510	STUDY_PAIR_OFF	n/a	2	2	n/a	n/a	STRING	FLUTE	4	[0, 0, 0]	-999	PAL1	0	R1392N
645.66	4.034	646259	STUDY_PAIR	n/a	3	5	n/a	SPY	EEL	SHOE	4	[0, 0, 0]	-999	PAL1	0	R1392N
649.694	0.515	650293	STUDY_PAIR_OFF	n/a	3	5	n/a	SPY	EEL	SHOE	4	[0, 0, 0]	-999	PAL1	0	R1392N
650.209	4.037	650808	STUDY_PAIR	n/a	4	4	n/a	WAVE	INK	WAVE	4	[0, 0, 0]	-999	PAL1	0	R1392N
654.246	0.677	654845	STUDY_PAIR_OFF	n/a	4	4	n/a	WAVE	INK	WAVE	4	[0, 0, 0]	-999	PAL1	0	R1392N
654.923	4.04	655522	STUDY_PAIR	n/a	5	3	n/a	n/a	BOOK	VEST	4	[0, 0, 0]	-999	PAL1	0	R1392N
658.963	0.704	659562	STUDY_PAIR_OFF	n/a	5	3	n/a	n/a	BOOK	VEST	4	[0, 0, 0]	-999	PAL1	0	R1392N
659.667	4.029	660266	STUDY_PAIR	n/a	6	6	n/a	n/a	MAT	SHEET	4	[0, 0, 0]	-999	PAL1	0	R1392N
663.696	0.001	664295	STUDY_PAIR_OFF	n/a	6	6	n/a	n/a	MAT	SHEET	4	[0, 0, 0]	-999	PAL1	0	R1392N
663.697	0.0	664296	ENCODING_END	n/a	-999	-999	n/a	n/a	n/a	n/a	4	[0, 0, 0]	-999	PAL1	0	R1392N
663.697	0.0	664296	MATH_START	n/a	-999	-999	n/a	n/a	n/a	n/a	4	[0, 0, 0]	-999	PAL1	0	R1392N
663.697	0.016	664296	START	n/a	-999	-999	n/a	n/a	n/a	n/a	4	[-999, -999, -999]	-999	PAL1	0	R1392N
663.713	6.201	664312	PROB	6171	-999	-999	n/a	n/a	n/a	n/a	4	[3, 5, 4]	12	PAL1	0	R1392N
669.914	3.434	670512	PROB	3411	-999	-999	n/a	n/a	n/a	n/a	4	[2, 5, 4]	11	PAL1	0	R1392N
673.348	2.568	673946	PROB	2544	-999	-999	n/a	n/a	n/a	n/a	4	[8, 5, 5]	12	PAL1	0	R1392N
675.916	3.15	676514	PROB	3120	-999	-999	n/a	n/a	n/a	n/a	4	[3, 9, 4]	16	PAL1	0	R1392N
679.066	2.084	679664	PROB	2059	-999	-999	n/a	n/a	n/a	n/a	4	[5, 2, 8]	15	PAL1	0	R1392N
681.15	2.557	681748	PROB	2557	-999	-999	n/a	n/a	n/a	n/a	4	[4, 9, 4]	17	PAL1	0	R1392N
683.707	0.009	684305	STOP	n/a	-999	-999	n/a	n/a	n/a	n/a	4	[-999, -999, -999]	-999	PAL1	0	R1392N
683.716	0.588	684314	MATH_END	n/a	-999	-999	n/a	n/a	n/a	n/a	4	[0, 0, 0]	-999	PAL1	0	R1392N
684.304	0.001	684902	RETRIEVAL_START	n/a	-999	-999	n/a	n/a	n/a	n/a	4	[0, 0, 0]	-999	PAL1	0	R1392N
684.305	0.278	684903	ORIENT_START	n/a	-999	-999	n/a	n/a	n/a	n/a	4	[0, 0, 0]	-999	PAL1	0	R1392N
684.583	0.734	685181	ORIENT_END	n/a	-999	-999	n/a	n/a	n/a	n/a	4	[0, 0, 0]	-999	PAL1	0	R1392N
685.317	0.0	685915	PROBE_START	n/a	1	1	PIE	TREE	PIE	TREE	4	[0, 0, 0]	-999	PAL1	0	R1392N
685.317	2.108	685915	REC_START	n/a	1	1	PIE	TREE	PIE	TREE	4	[0, 0, 0]	-999	PAL1	0	R1392N
687.425	0.627	688023	REC_EVENT	2108	1	1	PIE	PIE	PIE	TREE	4	[0, 0, 0]	-999	PAL1	0	R1392N
688.052	1.299	688650	REC_EVENT	2735	1	1	PIE	TREE	PIE	TREE	4	[0, 0, 0]	-999	PAL1	0	R1392N
689.351	1.0	689949	PROBE_END	n/a	1	1	PIE	n/a	PIE	TREE	4	[0, 0, 0]	-999	PAL1	0	R1392N
690.351	0.006	690949	REC_END	n/a	1	1	PIE	n/a	PIE	TREE	4	[0, 0, 0]	-999	PAL1	0	R1392N
690.357	0.277	690955	ORIENT_START	n/a	-999	-999	n/a	n/a	n/a	n/a	4	[0, 0, 0]	-999	PAL1	0	R1392N
690.634	0.721	691232	ORIENT_END	n/a	-999	-999	n/a	n/a	n/a	n/a	4	[0, 0, 0]	-999	PAL1	0	R1392N
691.355	0.001	691953	REC_START	n/a	2	2	FLUTE	n/a	STRING	FLUTE	4	[0, 0, 0]	-999	PAL1	0	R1392N
691.356	4.029	691954	PROBE_START	n/a	2	2	FLUTE	n/a	STRING	FLUTE	4	[0, 0, 0]	-999	PAL1	0	R1392N
695.385	0.999	695982	PROBE_END	n/a	2	2	FLUTE	n/a	STRING	FLUTE	4	[0, 0, 0]	-999	PAL1	0	R1392N
696.384	0.01	696981	REC_END	n/a	2	2	FLUTE	n/a	STRING	FLUTE	4	[0, 0, 0]	-999	PAL1	0	R1392N
696.394	0.274	696991	ORIENT_START	n/a	-999	-999	n/a	n/a	n/a	n/a	4	[0, 0, 0]	-999	PAL1	0	R1392N
696.668	0.522	697265	ORIENT_END	n/a	-999	-999	n/a	n/a	n/a	n/a	4	[0, 0, 0]	-999	PAL1	0	R1392N
697.19	0.0	697787	REC_START	n/a	5	3	BOOK	n/a	BOOK	VEST	4	[0, 0, 0]	-999	PAL1	0	R1392N
697.19	0.141	697787	PROBE_START	n/a	5	3	BOOK	n/a	BOOK	VEST	4	[0, 0, 0]	-999	PAL1	0	R1392N
697.331	3.889	697928	REC_EVENT	5975	2	2	FLUTE	<>	STRING	FLUTE	4	[0, 0, 0]	-999	PAL1	0	R1392N
701.22	1.0	701817	PROBE_END	n/a	5	3	BOOK	n/a	BOOK	VEST	4	[0, 0, 0]	-999	PAL1	0	R1392N
702.22	0.012	702817	REC_END	n/a	5	3	BOOK	n/a	BOOK	VEST	4	[0, 0, 0]	-999	PAL1	0	R1392N
702.232	0.27	702829	ORIENT_START	n/a	-999	-999	n/a	n/a	n/a	n/a	4	[0, 0, 0]	-999	PAL1	0	R1392N
702.502	0.46	703099	ORIENT_END	n/a	-999	-999	n/a	n/a	n/a	n/a	4	[0, 0, 0]	-999	PAL1	0	R1392N
702.962	0.261	703559	REC_EVENT	5772	5	3	BOOK	<>	BOOK	VEST	4	[0, 0, 0]	-999	PAL1	0	R1392N
703.223	0.0	703820	REC_START	n/a	4	4	WAVE	WAVE	INK	WAVE	4	[0, 0, 0]	-999	PAL1	0	R1392N
703.223	2.163	703820	PROBE_START	n/a	4	4	WAVE	WAVE	INK	WAVE	4	[0, 0, 0]	-999	PAL1	0	R1392N
705.386	0.644	705983	REC_EVENT	2163	4	4	WAVE	STRING	INK	WAVE	4	[0, 0, 0]	-999	PAL1	0	R1392N
706.03	1.224	706627	REC_EVENT	2807	4	4	WAVE	WAVE	INK	WAVE	4	[0, 0, 0]	-999	PAL1	0	R1392N
707.254	1.0	707851	PROBE_END	n/a	4	4	WAVE	n/a	INK	WAVE	4	[0, 0, 0]	-999	PAL1	0	R1392N
708.254	0.012	708851	REC_END	n/a	4	4	WAVE	n/a	INK	WAVE	4	[0, 0, 0]	-999	PAL1	0	R1392N
708.266	0.271	708863	ORIENT_START	n/a	-999	-999	n/a	n/a	n/a	n/a	4	[0, 0, 0]	-999	PAL1	0	R1392N
708.537	0.668	709134	ORIENT_END	n/a	-999	-999	n/a	n/a	n/a	n/a	4	[0, 0, 0]	-999	PAL1	0	R1392N
709.205	0.001	709802	REC_START	n/a	3	5	EEL	SPY	EEL	SHOE	4	[0, 0, 0]	-999	PAL1	0	R1392N
709.206	3.014	709803	PROBE_START	n/a	3	5	EEL	SPY	EEL	SHOE	4	[0, 0, 0]	-999	PAL1	0	R1392N
712.22	0.436	712817	REC_EVENT	3014	3	5	EEL	EEL	EEL	SHOE	4	[0, 0, 0]	-999	PAL1	0	R1392N
712.656	0.583	713253	REC_EVENT	3450	3	5	EEL	SPY	EEL	SHOE	4	[0, 0, 0]	-999	PAL1	0	R1392N
713.239	1.0	713836	PROBE_END	n/a	3	5	EEL	n/a	EEL	SHOE	4	[0, 0, 0]	-999	PAL1	0	R1392N
714.239	0.012	714836	REC_END	n/a	3	5	EEL	n/a	EEL	SHOE	4	[0, 0, 0]	-999	PAL1	0	R1392N
714.251	0.27	714848	ORIENT_START	n/a	-999	-999	n/a	n/a	n/a	n/a	4	[0, 0, 0]	-999	PAL1	0	R1392N
714.521	0.655	715118	ORIENT_END	n/a	-999	-999	n/a	n/a	n/a	n/a	4	[0, 0, 0]	-999	PAL1	0	R1392N
715.176	0.001	715773	REC_START	n/a	6	6	SHEET	n/a	MAT	SHEET	4	[0, 0, 0]	-999	PAL1	0	R1392N
715.177	4.029	715774	PROBE_START	n/a	6	6	SHEET	n/a	MAT	SHEET	4	[0, 0, 0]	-999	PAL1	0	R1392N
719.206	1.0	719803	PROBE_END	n/a	6	6	SHEET	n/a	MAT	SHEET	4	[0, 0, 0]	-999	PAL1	0	R1392N
720.206	0.011	720803	REC_END	n/a	6	6	SHEET	n/a	MAT	SHEET	4	[0, 0, 0]	-999	PAL1	0	R1392N
720.217	0.0	720814	RETRIEVAL_END	n/a	-999	-999	n/a	n/a	n/a	n/a	4	[0, 0, 0]	-999	PAL1	0	R1392N
720.217	0.022	720814	TRIAL_END	n/a	-999	-999	n/a	n/a	n/a	n/a	4	[0, 0, 0]	-999	PAL1	0	R1392N
720.239	0.001	720836	TRIAL_START	n/a	-999	-999	n/a	n/a	n/a	n/a	4	[0, 0, 0]	-999	PAL1	0	R1392N
720.24	0.0	720837	TRIAL	n/a	-999	-999	n/a	n/a	n/a	n/a	5	[0, 0, 0]	-999	PAL1	0	R1392N
720.24	0.885	720837	WAITING_START	n/a	-999	-999	n/a	n/a	n/a	n/a	5	[0, 0, 0]	-999	PAL1	0	R1392N
721.125	3.448	721722	REC_EVENT	5948	6	6	SHEET	<>	MAT	SHEET	4	[0, 0, 0]	-999	PAL1	0	R1392N
724.573	0.0	725169	COUNTDOWN_START	n/a	-999	-999	n/a	n/a	n/a	n/a	5	[0, 0, 0]	-999	PAL1	0	R1392N
724.573	10.43	725169	WAITING_END	n/a	-999	-999	n/a	n/a	n/a	n/a	5	[0, 0, 0]	-999	PAL1	0	R1392N
735.003	0.0	735599	COUNTDOWN_END	n/a	-999	-999	n/a	n/a	n/a	n/a	5	[0, 0, 0]	-999	PAL1	0	R1392N
735.003	0.655	735599	ORIENT_START	n/a	-999	-999	n/a	n/a	n/a	n/a	5	[0, 0, 0]	-999	PAL1	0	R1392N
735.658	0.001	736254	ORIENT_END	n/a	-999	-999	n/a	n/a	n/a	n/a	5	[0, 0, 0]	-999	PAL1	0	R1392N
735.659	1.014	736255	ENCODING_START	n/a	-999	-999	n/a	n/a	n/a	n/a	5	[0, 0, 0]	-999	PAL1	0	R1392N
736.673	4.036	737269	STUDY_PAIR	n/a	1	3	n/a	HAND	BIRD	HAND	5	[0, 0, 0]	-999	PAL1	0	R1392N
740.709	0.584	741305	STUDY_PAIR_OFF	n/a	1	3	n/a	HAND	BIRD	HAND	5	[0, 0, 0]	-999	PAL1	0	R1392N
741.293	4.034	741889	STUDY_PAIR	n/a	2	6	n/a	n/a	MOUSE	CORN	5	[0, 0, 0]	-999	PAL1	0	R1392N
745.327	0.567	745923	STUDY_PAIR_OFF	n/a	2	6	n/a	n/a	MOUSE	CORN	5	[0, 0, 0]	-999	PAL1	0	R1392N
745.894	4.017	746490	STUDY_PAIR	n/a	3	1	n/a	OAK	BATH	OAK	5	[0, 0, 0]	-999	PAL1	0	R1392N
749.911	0.642	750507	STUDY_PAIR_OFF	n/a	3	1	n/a	OAK	BATH	OAK	5	[0, 0, 0]	-999	PAL1	0	R1392N
750.553	4.025	751149	STUDY_PAIR	n/a	4	4	n/a	SNAIL	SNAIL	SHELL	5	[0, 0, 0]	-999	PAL1	0	R1392N
754.578	0.614	755173	STUDY_PAIR_OFF	n/a	4	4	n/a	SNAIL	SNAIL	SHELL	5	[0, 0, 0]	-999	PAL1	0	R1392N
755.192	4.038	755787	STUDY_PAIR	n/a	5	5	n/a	n/a	BEAR	BOWL	5	[0, 0, 0]	-999	PAL1	0	R1392N
759.23	0.528	759825	STUDY_PAIR_OFF	n/a	5	5	n/a	n/a	BEAR	BOWL	5	[0, 0, 0]	-999	PAL1	0	R1392N
759.758	4.038	760353	STUDY_PAIR	n/a	6	2	n/a	n/a	HOUSE	SHIP	5	[0, 0, 0]	-999	PAL1	0	R1392N
763.796	0.001	764391	STUDY_PAIR_OFF	n/a	6	2	n/a	n/a	HOUSE	SHIP	5	[0, 0, 0]	-999	PAL1	0	R1392N
763.797	0.0	764392	ENCODING_END	n/a	-999	-999	n/a	n/a	n/a	n/a	5	[0, 0, 0]	-999	PAL1	0	R1392N
763.797	0.0	764392	MATH_START	n/a	-999	-999	n/a	n/a	n/a	n/a	5	[0, 0, 0]	-999	PAL1	0	R1392N
763.797	0.015	764392	START	n/a	-999	-999	n/a	n/a	n/a	n/a	5	[-999, -999, -999]	-999	PAL1	0	R1392N
763.812	4.951	764407	PROB	4920	-999	-999	n/a	n/a	n/a	n/a	5	[3, 9, 8]	20	PAL1	0	R1392N
768.763	2.001	769358	PROB	1968	-999	-999	n/a	n/a	n/a	n/a	5	[1, 1, 2]	4	PAL1	0	R1392N
770.764	2.967	771359	PROB	2935	-999	-999	n/a	n/a	n/a	n/a	5	[5, 8, 4]	17	PAL1	0	R1392N
773.731	3.618	774326	PROB	3586	-999	-999	n/a	n/a	n/a	n/a	5	[4, 2, 2]	8	PAL1	0	R1392N
777.349	2.249	777944	PROB	2222	-999	-999	n/a	n/a	n/a	n/a	5	[9, 5, 3]	17	PAL1	0	R1392N
779.598	2.884	780193	PROB	2854	-999	-999	n/a	n/a	n/a	n/a	5	[5, 3, 6]	14	PAL1	0	R1392N
782.482	2.635	783076	PROB	2635	-999	-999	n/a	n/a	n/a	n/a	5	[2, 7, 4]	13	PAL1	0	R1392N
785.117	0.017	785711	STOP	n/a	-999	-999	n/a	n/a	n/a	n/a	5	[-999, -999, -999]	-999	PAL1	0	R1392N
785.134	0.641	785728	MATH_END	n/a	-999	-999	n/a	n/a	n/a	n/a	5	[0, 0, 0]	-999	PAL1	0	R1392N
785.775	0.001	786369	RETRIEVAL_START	n/a	-999	-999	n/a	n/a	n/a	n/a	5	[0, 0, 0]	-999	PAL1	0	R1392N
785.776	0.275	786370	ORIENT_START	n/a	-999	-999	n/a	n/a	n/a	n/a	5	[0, 0, 0]	-999	PAL1	0	R1392N
786.051	0.594	786645	ORIENT_END	n/a	-999	-999	n/a	n/a	n/a	n/a	5	[0, 0, 0]	-999	PAL1	0	R1392N
786.645	0.0	787239	REC_START	n/a	3	1	OAK	OAK	BATH	OAK	5	[0, 0, 0]	-999	PAL1	0	R1392N
786.645	4.039	787239	PROBE_START	n/a	3	1	OAK	OAK	BATH	OAK	5	[0, 0, 0]	-999	PAL1	0	R1392N
790.684	0.057	791278	PROBE_END	n/a	3	1	OAK	n/a	BATH	OAK	5	[0, 0, 0]	-999	PAL1	0	R1392N
790.741	0.708	791335	REC_EVENT	4096	3	1	OAK	SPY	BATH	OAK	5	[0, 0, 0]	-999	PAL1	0	R1392N
791.449	0.235	792043	REC_EVENT	4804	3	1	OAK	OAK	BATH	OAK	5	[0, 0, 0]	-999	PAL1	0	R1392N
791.684	0.012	792278	REC_END	n/a	3	1	OAK	n/a	BATH	OAK	5	[0, 0, 0]	-999	PAL1	0	R1392N
791.696	0.255	792290	ORIENT_START	n/a	-999	-999	n/a	n/a	n/a	n/a	5	[0, 0, 0]	-999	PAL1	0	R1392N
791.951	0.736	792545	ORIENT_END	n/a	-999	-999	n/a	n/a	n/a	n/a	5	[0, 0, 0]	-999	PAL1	0	R1392N
792.687	0.0	793281	REC_START	n/a	6	2	SHIP	n/a	HOUSE	SHIP	5	[0, 0, 0]	-999	PAL1	0	R1392N
792.687	3.147	793281	PROBE_START	n/a	6	2	SHIP	n/a	HOUSE	SHIP	5	[0, 0, 0]	-999	PAL1	0	R1392N
795.834	0.884	796428	REC_EVENT	3147	6	2	SHIP	<>	HOUSE	SHIP	5	[0, 0, 0]	-999	PAL1	0	R1392N
796.718	1.0	797312	PROBE_END	n/a	6	2	SHIP	n/a	HOUSE	SHIP	5	[0, 0, 0]	-999	PAL1	0	R1392N
797.718	0.013	798312	REC_END	n/a	6	2	SHIP	n/a	HOUSE	SHIP	5	[0, 0, 0]	-999	PAL1	0	R1392N
797.731	0.272	798325	ORIENT_START	n/a	-999	-999	n/a	n/a	n/a	n/a	5	[0, 0, 0]	-999	PAL1	0	R1392N
798.003	0.709	798597	ORIENT_END	n/a	-999	-999	n/a	n/a	n/a	n/a	5	[0, 0, 0]	-999	PAL1	0	R1392N
798.712	0.0	799306	REC_START	n/a	1	3	BIRD	HAND	BIRD	HAND	5	[0, 0, 0]	-999	PAL1	0	R1392N
798.712	0.151	799306	PROBE_START	n/a	1	3	BIRD	HAND	BIRD	HAND	5	[0, 0, 0]	-999	PAL1	0	R1392N
798.863	0.384	799457	REC_EVENT	151	1	3	BIRD	SHEEP	BIRD	HAND	5	[0, 0, 0]	-999	PAL1	0	R1392N
799.247	1.617	799841	REC_EVENT	535	1	3	BIRD	HOUSE	BIRD	HAND	5	[0, 0, 0]	-999	PAL1	0	R1392N
800.864	0.465	801458	REC_EVENT	2152	1	3	BIRD	<>	BIRD	HAND	5	[0, 0, 0]	-999	PAL1	0	R1392N
801.329	1.407	801923	REC_EVENT	2617	1	3	BIRD	HAND	BIRD	HAND	5	[0, 0, 0]	-999	PAL1	0	R1392N
802.736	1.0	803330	PROBE_END	n/a	1	3	BIRD	n/a	BIRD	HAND	5	[0, 0, 0]	-999	PAL1	0	R1392N
803.736	0.013	804330	REC_END	n/a	1	3	BIRD	n/a	BIRD	HAND	5	[0, 0, 0]	-999	PAL1	0	R1392N
803.749	0.271	804343	ORIENT_START	n/a	-999	-999	n/a	n/a	n/a	n/a	5	[0, 0, 0]	-999	PAL1	0	R1392N
804.02	0.628	804614	ORIENT_END	n/a	-999	-999	n/a	n/a	n/a	n/a	5	[0, 0, 0]	-999	PAL1	0	R1392N
804.648	0.001	805242	REC_START	n/a	4	4	SNAIL	SNAIL	SNAIL	SHELL	5	[0, 0, 0]	-999	PAL1	0	R1392N
804.649	3.175	805243	PROBE_START	n/a	4	4	SNAIL	SNAIL	SNAIL	SHELL	5	[0, 0, 0]	-999	PAL1	0	R1392N
807.824	0.619	808418	REC_EVENT	3175	4	4	SNAIL	<>	SNAIL	SHELL	5	[0, 0, 0]	-999	PAL1	0	R1392N
808.443	0.227	809037	REC_EVENT	3794	4	4	SNAIL	SNAIL	SNAIL	SHELL	5	[0, 0, 0]	-999	PAL1	0	R1392N
808.67	0.423	809264	PROBE_END	n/a	4	4	SNAIL	n/a	SNAIL	SHELL	5	[0, 0, 0]	-999	PAL1	0	R1392N
809.093	0.577	809687	REC_EVENT	4444	4	4	SNAIL	<>	SNAIL	SHELL	5	[0, 0, 0]	-999	PAL1	0	R1392N
809.67	0.011	810264	REC_END	n/a	4	4	SNAIL	n/a	SNAIL	SHELL	5	[0, 0, 0]	-999	PAL1	0	R1392N
809.681	0.274	810275	ORIENT_START	n/a	-999	-999	n/a	n/a	n/a	n/a	5	[0, 0, 0]	-999	PAL1	0	R1392N
809.955	0.692	810549	ORIENT_END	n/a	-999	-999	n/a	n/a	n/a	n/a	5	[0, 0, 0]	-999	PAL1	0	R1392N
810.647	0.0	811241	REC_START	n/a	5	5	BOWL	n/a	BEAR	BOWL	5	[0, 0, 0]	-999	PAL1	0	R1392N
810.647	4.024	811241	PROBE_START	n/a	5	5	BOWL	n/a	BEAR	BOWL	5	[0, 0, 0]	-999	PAL1	0	R1392N
814.671	1.0	815264	PROBE_END	n/a	5	5	BOWL	n/a	BEAR	BOWL	5	[0, 0, 0]	-999	PAL1	0	R1392N
815.671	0.013	816264	REC_END	n/a	5	5	BOWL	n/a	BEAR	BOWL	5	[0, 0, 0]	-999	PAL1	0	R1392N
815.684	0.272	816277	ORIENT_START	n/a	-999	-999	n/a	n/a	n/a	n/a	5	[0, 0, 0]	-999	PAL1	0	R1392N
815.956	0.555	816549	ORIENT_END	n/a	-999	-999	n/a	n/a	n/a	n/a	5	[0, 0, 0]	-999	PAL1	0	R1392N
816.511	0.0	817104	REC_START	n/a	2	6	MOUSE	n/a	MOUSE	CORN	5	[0, 0, 0]	-999	PAL1	0	R1392N
816.511	0.079	817104	PROBE_START	n/a	2	6	MOUSE	n/a	MOUSE	CORN	5	[0, 0, 0]	-999	PAL1	0	R1392N
816.59	3.949	817183	REC_EVENT	5943	5	5	BOWL	<>	BEAR	BOWL	5	[0, 0, 0]	-999	PAL1	0	R1392N
820.539	1.001	821132	PROBE_END	n/a	2	6	MOUSE	n/a	MOUSE	CORN	5	[0, 0, 0]	-999	PAL1	0	R1392N
821.54	0.01	822133	REC_END	n/a	2	6	MOUSE	n/a	MOUSE	CORN	5	[0, 0, 0]	-999	PAL1	0	R1392N
821.55	0.0	822143	RETRIEVAL_END	n/a	-999	-999	n/a	n/a	n/a	n/a	5	[0, 0, 0]	-999	PAL1	0	R1392N
821.55	0.021	822143	TRIAL_END	n/a	-999	-999	n/a	n/a	n/a	n/a	5	[0, 0, 0]	-999	PAL1	0	R1392N
821.571	0.0	822164	WAITING_START	n/a	-999	-999	n/a	n/a	n/a	n/a	6	[0, 0, 0]	-999	PAL1	0	R1392N
821.571	0.0	822164	TRIAL	n/a	-999	-999	n/a	n/a	n/a	n/a	6	[0, 0, 0]	-999	PAL1	0	R1392N
821.571	0.748	822164	TRIAL_START	n/a	-999	-999	n/a	n/a	n/a	n/a	5	[0, 0, 0]	-999	PAL1	0	R1392N
822.319	1.004	822912	REC_EVENT	5808	2	6	MOUSE	<>	MOUSE	CORN	5	[0, 0, 0]	-999	PAL1	0	R1392N
823.323	0.001	823916	WAITING_END	n/a	-999	-999	n/a	n/a	n/a	n/a	6	[0, 0, 0]	-999	PAL1	0	R1392N
823.324	10.429	823917	COUNTDOWN_START	n/a	-999	-999	n/a	n/a	n/a	n/a	6	[0, 0, 0]	-999	PAL1	0	R1392N
833.753	0.0	834346	COUNTDOWN_END	n/a	-999	-999	n/a	n/a	n/a	n/a	6	[0, 0, 0]	-999	PAL1	0	R1392N
833.753	0.655	834346	ORIENT_START	n/a	-999	-999	n/a	n/a	n/a	n/a	6	[0, 0, 0]	-999	PAL1	0	R1392N
834.408	0.0	835001	ORIENT_END	n/a	-999	-999	n/a	n/a	n/a	n/a	6	[0, 0, 0]	-999	PAL1	0	R1392N
834.408	1.068	835001	ENCODING_START	n/a	-999	-999	n/a	n/a	n/a	n/a	6	[0, 0, 0]	-999	PAL1	0	R1392N
835.476	4.033	836069	STUDY_PAIR	n/a	1	1	n/a	n/a	DRESS	SKUNK	6	[0, 0, 0]	-999	PAL1	0	R1392N
839.509	0.623	840102	STUDY_PAIR_OFF	n/a	1	1	n/a	n/a	DRESS	SKUNK	6	[0, 0, 0]	-999	PAL1	0	R1392N
840.132	4.028	840725	STUDY_PAIR	n/a	2	4	n/a	n/a	STORE	JEEP	6	[0, 0, 0]	-999	PAL1	0	R1392N
844.16	0.682	844752	STUDY_PAIR_OFF	n/a	2	4	n/a	n/a	STORE	JEEP	6	[0, 0, 0]	-999	PAL1	0	R1392N
844.842	4.035	845434	STUDY_PAIR	n/a	3	3	n/a	n/a	YARD	PRINCE	6	[0, 0, 0]	-999	PAL1	0	R1392N
848.877	0.663	849469	STUDY_PAIR_OFF	n/a	3	3	n/a	n/a	YARD	PRINCE	6	[0, 0, 0]	-999	PAL1	0	R1392N
849.54	4.038	850132	STUDY_PAIR	n/a	4	2	n/a	n/a	STONE	SMILE	6	[0, 0, 0]	-999	PAL1	0	R1392N
853.578	0.694	854170	STUDY_PAIR_OFF	n/a	4	2	n/a	n/a	STONE	SMILE	6	[0, 0, 0]	-999	PAL1	0	R1392N
854.272	4.007	854864	STUDY_PAIR	n/a	5	5	n/a	STEAM	CLAY	STEAM	6	[0, 0, 0]	-999	PAL1	0	R1392N
858.279	0.657	858871	STUDY_PAIR_OFF	n/a	5	5	n/a	STEAM	CLAY	STEAM	6	[0, 0, 0]	-999	PAL1	0	R1392N
858.936	4.027	859528	STUDY_PAIR	n/a	6	6	n/a	CHEEK	LIP	CHEEK	6	[0, 0, 0]	-999	PAL1	0	R1392N
862.963	0.001	863555	STUDY_PAIR_OFF	n/a	6	6	n/a	CHEEK	LIP	CHEEK	6	[0, 0, 0]	-999	PAL1	0	R1392N
862.964	0.0	863556	ENCODING_END	n/a	-999	-999	n/a	n/a	n/a	n/a	6	[0, 0, 0]	-999	PAL1	0	R1392N
862.964	0.001	863556	MATH_START	n/a	-999	-999	n/a	n/a	n/a	n/a	6	[0, 0, 0]	-999	PAL1	0	R1392N
862.965	0.015	863557	START	n/a	-999	-999	n/a	n/a	n/a	n/a	6	[-999, -999, -999]	-999	PAL1	0	R1392N
862.98	4.516	863572	PROB	4488	-999	-999	n/a	n/a	n/a	n/a	6	[3, 5, 4]	12	PAL1	0	R1392N
867.496	2.435	868088	PROB	2405	-999	-999	n/a	n/a	n/a	n/a	6	[7, 7, 9]	23	PAL1	0	R1392N
869.931	1.799	870523	PROB	1769	-999	-999	n/a	n/a	n/a	n/a	6	[5, 4, 4]	13	PAL1	0	R1392N
871.73	2.784	872321	PROB	2754	-999	-999	n/a	n/a	n/a	n/a	6	[9, 6, 4]	19	PAL1	0	R1392N
874.514	3.702	875105	PROB	3666	-999	-999	n/a	n/a	n/a	n/a	6	[9, 6, 1]	16	PAL1	0	R1392N
878.216	3.383	878807	PROB	3347	-999	-999	n/a	n/a	n/a	n/a	6	[9, 5, 5]	19	PAL1	0	R1392N
881.599	2.542	882190	PROB	2542	-999	-999	n/a	n/a	n/a	n/a	6	[4, 8, 8]	20	PAL1	0	R1392N
884.141	0.009	884732	STOP	n/a	-999	-999	n/a	n/a	n/a	n/a	6	[-999, -999, -999]	-999	PAL1	0	R1392N
884.15	0.683	884741	MATH_END	n/a	-999	-999	n/a	n/a	n/a	n/a	6	[0, 0, 0]	-999	PAL1	0	R1392N
884.833	0.001	885424	RETRIEVAL_START	n/a	-999	-999	n/a	n/a	n/a	n/a	6	[0, 0, 0]	-999	PAL1	0	R1392N
884.834	0.266	885425	ORIENT_START	n/a	-999	-999	n/a	n/a	n/a	n/a	6	[0, 0, 0]	-999	PAL1	0	R1392N
885.1	0.582	885691	ORIENT_END	n/a	-999	-999	n/a	n/a	n/a	n/a	6	[0, 0, 0]	-999	PAL1	0	R1392N
885.682	0.0	886273	REC_START	n/a	1	1	SKUNK	n/a	DRESS	SKUNK	6	[0, 0, 0]	-999	PAL1	0	R1392N
885.682	4.035	886273	PROBE_START	n/a	1	1	SKUNK	n/a	DRESS	SKUNK	6	[0, 0, 0]	-999	PAL1	0	R1392N
889.717	1.0	890308	PROBE_END	n/a	1	1	SKUNK	n/a	DRESS	SKUNK	6	[0, 0, 0]	-999	PAL1	0	R1392N
890.717	0.013	891308	REC_END	n/a	1	1	SKUNK	n/a	DRESS	SKUNK	6	[0, 0, 0]	-999	PAL1	0	R1392N
890.73	0.271	891321	ORIENT_START	n/a	-999	-999	n/a	n/a	n/a	n/a	6	[0, 0, 0]	-999	PAL1	0	R1392N
891.001	0.545	891592	ORIENT_END	n/a	-999	-999	n/a	n/a	n/a	n/a	6	[0, 0, 0]	-999	PAL1	0	R1392N
891.546	0.055	892137	REC_EVENT	5864	1	1	SKUNK	<>	DRESS	SKUNK	6	[0, 0, 0]	-999	PAL1	0	R1392N
891.601	0.001	892192	REC_START	n/a	4	2	SMILE	n/a	STONE	SMILE	6	[0, 0, 0]	-999	PAL1	0	R1392N
891.602	4.033	892193	PROBE_START	n/a	4	2	SMILE	n/a	STONE	SMILE	6	[0, 0, 0]	-999	PAL1	0	R1392N
895.635	0.999	896226	PROBE_END	n/a	4	2	SMILE	n/a	STONE	SMILE	6	[0, 0, 0]	-999	PAL1	0	R1392N
896.634	0.012	897225	REC_END	n/a	4	2	SMILE	n/a	STONE	SMILE	6	[0, 0, 0]	-999	PAL1	0	R1392N
896.646	0.273	897237	ORIENT_START	n/a	-999	-999	n/a	n/a	n/a	n/a	6	[0, 0, 0]	-999	PAL1	0	R1392N
896.919	0.536	897510	ORIENT_END	n/a	-999	-999	n/a	n/a	n/a	n/a	6	[0, 0, 0]	-999	PAL1	0	R1392N
897.455	0.104	898046	REC_EVENT	5853	4	2	SMILE	<>	STONE	SMILE	6	[0, 0, 0]	-999	PAL1	0	R1392N
897.559	0.001	898150	REC_START	n/a	3	3	YARD	n/a	YARD	PRINCE	6	[0, 0, 0]	-999	PAL1	0	R1392N
897.56	4.025	898151	PROBE_START	n/a	3	3	YARD	n/a	YARD	PRINCE	6	[0, 0, 0]	-999	PAL1	0	R1392N
901.585	1.0	902175	PROBE_END	n/a	3	3	YARD	n/a	YARD	PRINCE	6	[0, 0, 0]	-999	PAL1	0	R1392N
902.585	0.011	903175	REC_END	n/a	3	3	YARD	n/a	YARD	PRINCE	6	[0, 0, 0]	-999	PAL1	0	R1392N
902.596	0.273	903186	ORIENT_START	n/a	-999	-999	n/a	n/a	n/a	n/a	6	[0, 0, 0]	-999	PAL1	0	R1392N
902.869	0.591	903459	ORIENT_END	n/a	-999	-999	n/a	n/a	n/a	n/a	6	[0, 0, 0]	-999	PAL1	0	R1392N
903.46	0.15	904050	REC_EVENT	5900	3	3	YARD	<>	YARD	PRINCE	6	[0, 0, 0]	-999	PAL1	0	R1392N
903.61	0.0	904200	PROBE_START	n/a	2	4	STORE	n/a	STORE	JEEP	6	[0, 0, 0]	-999	PAL1	0	R1392N
903.61	4.026	904200	REC_START	n/a	2	4	STORE	n/a	STORE	JEEP	6	[0, 0, 0]	-999	PAL1	0	R1392N
907.636	1.0	908226	PROBE_END	n/a	2	4	STORE	n/a	STORE	JEEP	6	[0, 0, 0]	-999	PAL1	0	R1392N
908.636	0.005	909226	REC_END	n/a	2	4	STORE	n/a	STORE	JEEP	6	[0, 0, 0]	-999	PAL1	0	R1392N
908.641	0.28	909231	ORIENT_START	n/a	-999	-999	n/a	n/a	n/a	n/a	6	[0, 0, 0]	-999	PAL1	0	R1392N
908.921	0.551	909511	ORIENT_END	n/a	-999	-999	n/a	n/a	n/a	n/a	6	[0, 0, 0]	-999	PAL1	0	R1392N
909.472	0.001	910062	REC_START	n/a	5	5	STEAM	STEAM	CLAY	STEAM	6	[0, 0, 0]	-999	PAL1	0	R1392N
909.473	0.112	910063	PROBE_START	n/a	5	5	STEAM	STEAM	CLAY	STEAM	6	[0, 0, 0]	-999	PAL1	0	R1392N
909.585	3.919	910175	REC_EVENT	5975	2	4	STORE	<>	STORE	JEEP	6	[0, 0, 0]	-999	PAL1	0	R1392N
913.504	0.172	914094	PROBE_END	n/a	5	5	STEAM	n/a	CLAY	STEAM	6	[0, 0, 0]	-999	PAL1	0	R1392N
913.676	0.828	914266	REC_EVENT	4203	5	5	STEAM	STEAM	CLAY	STEAM	6	[0, 0, 0]	-999	PAL1	0	R1392N
914.504	0.012	915094	REC_END	n/a	5	5	STEAM	n/a	CLAY	STEAM	6	[0, 0, 0]	-999	PAL1	0	R1392N
914.516	0.272	915106	ORIENT_START	n/a	-999	-999	n/a	n/a	n/a	n/a	6	[0, 0, 0]	-999	PAL1	0	R1392N
914.788	0.716	915378	ORIENT_END	n/a	-999	-999	n/a	n/a	n/a	n/a	6	[0, 0, 0]	-999	PAL1	0	R1392N
915.504	0.0	916094	REC_START	n/a	6	6	LIP	CHEEK	LIP	CHEEK	6	[0, 0, 0]	-999	PAL1	0	R1392N
915.504	1.811	916094	PROBE_START	n/a	6	6	LIP	CHEEK	LIP	CHEEK	6	[0, 0, 0]	-999	PAL1	0	R1392N
917.315	0.394	917905	REC_EVENT	1811	6	6	LIP	<>	LIP	CHEEK	6	[0, 0, 0]	-999	PAL1	0	R1392N
917.709	0.31	918299	REC_EVENT	2205	6	6	LIP	LIP	LIP	CHEEK	6	[0, 0, 0]	-999	PAL1	0	R1392N
918.019	1.52	918609	REC_EVENT	2515	6	6	LIP	CHEEK	LIP	CHEEK	6	[0, 0, 0]	-999	PAL1	0	R1392N
919.539	1.0	920129	PROBE_END	n/a	6	6	LIP	n/a	LIP	CHEEK	6	[0, 0, 0]	-999	PAL1	0	R1392N
920.539	0.011	921129	REC_END	n/a	6	6	LIP	n/a	LIP	CHEEK	6	[0, 0, 0]	-999	PAL1	0	R1392N
920.55	0.0	921140	RETRIEVAL_END	n/a	-999	-999	n/a	n/a	n/a	n/a	6	[0, 0, 0]	-999	PAL1	0	R1392N
920.55	0.02	921140	TRIAL_END	n/a	-999	-999	n/a	n/a	n/a	n/a	6	[0, 0, 0]	-999	PAL1	0	R1392N
920.57	0.0	921160	TRIAL_START	n/a	-999	-999	n/a	n/a	n/a	n/a	6	[0, 0, 0]	-999	PAL1	0	R1392N
920.57	0.001	921160	TRIAL	n/a	-999	-999	n/a	n/a	n/a	n/a	7	[0, 0, 0]	-999	PAL1	0	R1392N
920.571	3.285	921161	WAITING_START	n/a	-999	-999	n/a	n/a	n/a	n/a	7	[0, 0, 0]	-999	PAL1	0	R1392N
923.856	0.001	924446	WAITING_END	n/a	-999	-999	n/a	n/a	n/a	n/a	7	[0, 0, 0]	-999	PAL1	0	R1392N
923.857	10.429	924447	COUNTDOWN_START	n/a	-999	-999	n/a	n/a	n/a	n/a	7	[0, 0, 0]	-999	PAL1	0	R1392N
934.286	0.0	934875	COUNTDOWN_END	n/a	-999	-999	n/a	n/a	n/a	n/a	7	[0, 0, 0]	-999	PAL1	0	R1392N
934.286	0.673	934875	ORIENT_START	n/a	-999	-999	n/a	n/a	n/a	n/a	7	[0, 0, 0]	-999	PAL1	0	R1392N
934.959	0.0	935548	ORIENT_END	n/a	-999	-999	n/a	n/a	n/a	n/a	7	[0, 0, 0]	-999	PAL1	0	R1392N
934.959	1.178	935548	ENCODING_START	n/a	-999	-999	n/a	n/a	n/a	n/a	7	[0, 0, 0]	-999	PAL1	0	R1392N
936.137	4.039	936726	STUDY_PAIR	n/a	1	1	n/a	n/a	STOVE	OAR	7	[0, 0, 0]	-999	PAL1	0	R1392N
940.176	0.532	940765	STUDY_PAIR_OFF	n/a	1	1	n/a	n/a	STOVE	OAR	7	[0, 0, 0]	-999	PAL1	0	R1392N
940.708	4.035	941297	STUDY_PAIR	n/a	2	6	n/a	n/a	SEAL	RAIN	7	[0, 0, 0]	-999	PAL1	0	R1392N
944.743	0.507	945332	STUDY_PAIR_OFF	n/a	2	6	n/a	n/a	SEAL	RAIN	7	[0, 0, 0]	-999	PAL1	0	R1392N
945.25	4.028	945839	STUDY_PAIR	n/a	3	3	n/a	n/a	LAWN	SEAT	7	[0, 0, 0]	-999	PAL1	0	R1392N
949.278	0.542	949867	STUDY_PAIR_OFF	n/a	3	3	n/a	n/a	LAWN	SEAT	7	[0, 0, 0]	-999	PAL1	0	R1392N
949.82	4.041	950409	STUDY_PAIR	n/a	4	2	n/a	FROG	PALM	HOOF	7	[0, 0, 0]	-999	PAL1	0	R1392N
953.861	0.687	954450	STUDY_PAIR_OFF	n/a	4	2	n/a	FROG	PALM	HOOF	7	[0, 0, 0]	-999	PAL1	0	R1392N
954.548	4.03	955137	STUDY_PAIR	n/a	5	5	n/a	ROOM	WOOD	ROOM	7	[0, 0, 0]	-999	PAL1	0	R1392N
958.578	0.603	959167	STUDY_PAIR_OFF	n/a	5	5	n/a	ROOM	WOOD	ROOM	7	[0, 0, 0]	-999	PAL1	0	R1392N
959.181	4.032	959769	STUDY_PAIR	n/a	6	4	n/a	FROG	STICK	FROG	7	[0, 0, 0]	-999	PAL1	0	R1392N
963.213	0.001	963801	STUDY_PAIR_OFF	n/a	6	4	n/a	FROG	STICK	FROG	7	[0, 0, 0]	-999	PAL1	0	R1392N
963.214	0.001	963802	ENCODING_END	n/a	-999	-999	n/a	n/a	n/a	n/a	7	[0, 0, 0]	-999	PAL1	0	R1392N
963.215	0.0	963803	MATH_START	n/a	-999	-999	n/a	n/a	n/a	n/a	7	[0, 0, 0]	-999	PAL1	0	R1392N
963.215	0.015	963803	START	n/a	-999	-999	n/a	n/a	n/a	n/a	7	[-999, -999, -999]	-999	PAL1	0	R1392N
963.23	4.216	963818	PROB	4189	-999	-999	n/a	n/a	n/a	n/a	7	[9, 5, 7]	21	PAL1	0	R1392N
967.446	2.384	968034	PROB	2350	-999	-999	n/a	n/a	n/a	n/a	7	[8, 7, 7]	22	PAL1	0	R1392N
969.83	2.85	970418	PROB	2814	-999	-999	n/a	n/a	n/a	n/a	7	[1, 7, 7]	15	PAL1	0	R1392N
972.68	2.619	973268	PROB	2581	-999	-999	n/a	n/a	n/a	n/a	7	[6, 9, 2]	17	PAL1	0	R1392N
975.299	3.282	975887	PROB	3248	-999	-999	n/a	n/a	n/a	n/a	7	[1, 9, 4]	24	PAL1	0	R1392N
978.581	5.007	979169	PROB	5007	-999	-999	n/a	n/a	n/a	n/a	7	[4, 6, 7]	17	PAL1	0	R1392N
983.588	0.011	984176	STOP	n/a	-999	-999	n/a	n/a	n/a	n/a	7	[-999, -999, -999]	-999	PAL1	0	R1392N
983.599	0.7	984187	MATH_END	n/a	-999	-999	n/a	n/a	n/a	n/a	7	[0, 0, 0]	-999	PAL1	0	R1392N
984.299	0.001	984887	RETRIEVAL_START	n/a	-999	-999	n/a	n/a	n/a	n/a	7	[0, 0, 0]	-999	PAL1	0	R1392N
984.3	0.283	984888	ORIENT_START	n/a	-999	-999	n/a	n/a	n/a	n/a	7	[0, 0, 0]	-999	PAL1	0	R1392N
984.583	0.682	985171	ORIENT_END	n/a	-999	-999	n/a	n/a	n/a	n/a	7	[0, 0, 0]	-999	PAL1	0	R1392N
985.265	0.0	985853	REC_START	n/a	1	1	OAR	n/a	STOVE	OAR	7	[0, 0, 0]	-999	PAL1	0	R1392N
985.265	4.036	985853	PROBE_START	n/a	1	1	OAR	n/a	STOVE	OAR	7	[0, 0, 0]	-999	PAL1	0	R1392N
989.301	1.0	989888	PROBE_END	n/a	1	1	OAR	n/a	STOVE	OAR	7	[0, 0, 0]	-999	PAL1	0	R1392N
990.301	0.013	990888	REC_END	n/a	1	1	OAR	n/a	STOVE	OAR	7	[0, 0, 0]	-999	PAL1	0	R1392N
990.314	0.27	990901	ORIENT_START	n/a	-999	-999	n/a	n/a	n/a	n/a	7	[0, 0, 0]	-999	PAL1	0	R1392N
990.584	0.608	991171	ORIENT_END	n/a	-999	-999	n/a	n/a	n/a	n/a	7	[0, 0, 0]	-999	PAL1	0	R1392N
991.192	0.136	991779	REC_EVENT	5927	1	1	OAR	<>	STOVE	OAR	7	[0, 0, 0]	-999	PAL1	0	R1392N
991.328	0.0	991915	REC_START	n/a	4	2	PALM	FROG	PALM	HOOF	7	[0, 0, 0]	-999	PAL1	0	R1392N
991.328	3.33	991915	PROBE_START	n/a	4	2	PALM	FROG	PALM	HOOF	7	[0, 0, 0]	-999	PAL1	0	R1392N
994.658	0.511	995245	REC_EVENT	3330	4	2	PALM	PALM	PALM	HOOF	7	[0, 0, 0]	-999	PAL1	0	R1392N
995.169	0.183	995756	REC_EVENT	3841	4	2	PALM	FROG	PALM	HOOF	7	[0, 0, 0]	-999	PAL1	0	R1392N
995.352	1.0	995939	PROBE_END	n/a	4	2	PALM	n/a	PALM	HOOF	7	[0, 0, 0]	-999	PAL1	0	R1392N
996.352	0.006	996939	REC_END	n/a	4	2	PALM	n/a	PALM	HOOF	7	[0, 0, 0]	-999	PAL1	0	R1392N
996.358	0.277	996945	ORIENT_START	n/a	-999	-999	n/a	n/a	n/a	n/a	7	[0, 0, 0]	-999	PAL1	0	R1392N
996.635	0.736	997222	ORIENT_END	n/a	-999	-999	n/a	n/a	n/a	n/a	7	[0, 0, 0]	-999	PAL1	0	R1392N
997.371	0.001	997958	REC_START	n/a	3	3	LAWN	n/a	LAWN	SEAT	7	[0, 0, 0]	-999	PAL1	0	R1392N
997.372	4.03	997959	PROBE_START	n/a	3	3	LAWN	n/a	LAWN	SEAT	7	[0, 0, 0]	-999	PAL1	0	R1392N
1001.402	1.001	1001989	PROBE_END	n/a	3	3	LAWN	n/a	LAWN	SEAT	7	[0, 0, 0]	-999	PAL1	0	R1392N
1002.403	0.006	1002990	REC_END	n/a	3	3	LAWN	n/a	LAWN	SEAT	7	[0, 0, 0]	-999	PAL1	0	R1392N
1002.409	0.277	1002996	ORIENT_START	n/a	-999	-999	n/a	n/a	n/a	n/a	7	[0, 0, 0]	-999	PAL1	0	R1392N
1002.686	0.504	1003273	ORIENT_END	n/a	-999	-999	n/a	n/a	n/a	n/a	7	[0, 0, 0]	-999	PAL1	0	R1392N
1003.19	0.001	1003777	REC_START	n/a	6	4	FROG	FROG	STICK	FROG	7	[0, 0, 0]	-999	PAL1	0	R1392N
1003.191	0.179	1003778	PROBE_START	n/a	6	4	FROG	FROG	STICK	FROG	7	[0, 0, 0]	-999	PAL1	0	R1392N
1003.37	1.796	1003957	REC_EVENT	5998	3	3	LAWN	<>	LAWN	SEAT	7	[0, 0, 0]	-999	PAL1	0	R1392N
1005.166	0.348	1005753	REC_EVENT	1975	6	4	FROG	PALM	STICK	FROG	7	[0, 0, 0]	-999	PAL1	0	R1392N
1005.514	1.707	1006101	REC_EVENT	2323	6	4	FROG	FROG	STICK	FROG	7	[0, 0, 0]	-999	PAL1	0	R1392N
1007.221	1.001	1007808	PROBE_END	n/a	6	4	FROG	n/a	STICK	FROG	7	[0, 0, 0]	-999	PAL1	0	R1392N
1008.222	0.01	1008809	REC_END	n/a	6	4	FROG	n/a	STICK	FROG	7	[0, 0, 0]	-999	PAL1	0	R1392N
1008.232	0.271	1008819	ORIENT_START	n/a	-999	-999	n/a	n/a	n/a	n/a	7	[0, 0, 0]	-999	PAL1	0	R1392N
1008.503	0.551	1009090	ORIENT_END	n/a	-999	-999	n/a	n/a	n/a	n/a	7	[0, 0, 0]	-999	PAL1	0	R1392N
1009.054	0.001	1009641	REC_START	n/a	5	5	ROOM	ROOM	WOOD	ROOM	7	[0, 0, 0]	-999	PAL1	0	R1392N
1009.055	1.486	1009642	PROBE_START	n/a	5	5	ROOM	ROOM	WOOD	ROOM	7	[0, 0, 0]	-999	PAL1	0	R1392N
1010.541	0.631	1011128	REC_EVENT	1486	5	5	ROOM	STICK	WOOD	ROOM	7	[0, 0, 0]	-999	PAL1	0	R1392N
1011.172	1.916	1011759	REC_EVENT	2117	5	5	ROOM	ROOM	WOOD	ROOM	7	[0, 0, 0]	-999	PAL1	0	R1392N
1013.088	1.0	1013675	PROBE_END	n/a	5	5	ROOM	n/a	WOOD	ROOM	7	[0, 0, 0]	-999	PAL1	0	R1392N
1014.088	0.012	1014675	REC_END	n/a	5	5	ROOM	n/a	WOOD	ROOM	7	[0, 0, 0]	-999	PAL1	0	R1392N
1014.1	0.271	1014687	ORIENT_START	n/a	-999	-999	n/a	n/a	n/a	n/a	7	[0, 0, 0]	-999	PAL1	0	R1392N
1014.371	0.6	1014958	ORIENT_END	n/a	-999	-999	n/a	n/a	n/a	n/a	7	[0, 0, 0]	-999	PAL1	0	R1392N
1014.971	0.001	1015558	REC_START	n/a	2	6	SEAL	n/a	SEAL	RAIN	7	[0, 0, 0]	-999	PAL1	0	R1392N
1014.972	4.017	1015559	PROBE_START	n/a	2	6	SEAL	n/a	SEAL	RAIN	7	[0, 0, 0]	-999	PAL1	0	R1392N
1018.989	1.0	1019575	PROBE_END	n/a	2	6	SEAL	n/a	SEAL	RAIN	7	[0, 0, 0]	-999	PAL1	0	R1392N
1019.989	0.01	1020575	REC_END	n/a	2	6	SEAL	n/a	SEAL	RAIN	7	[0, 0, 0]	-999	PAL1	0	R1392N
1019.999	0.0	1020585	RETRIEVAL_END	n/a	-999	-999	n/a	n/a	n/a	n/a	7	[0, 0, 0]	-999	PAL1	0	R1392N
1019.999	0.02	1020585	TRIAL_END	n/a	-999	-999	n/a	n/a	n/a	n/a	7	[0, 0, 0]	-999	PAL1	0	R1392N
1020.019	0.0	1020605	WAITING_START	n/a	-999	-999	n/a	n/a	n/a	n/a	8	[0, 0, 0]	-999	PAL1	0	R1392N
1020.019	0.0	1020605	TRIAL	n/a	-999	-999	n/a	n/a	n/a	n/a	8	[0, 0, 0]	-999	PAL1	0	R1392N
1020.019	0.818	1020605	TRIAL_START	n/a	-999	-999	n/a	n/a	n/a	n/a	7	[0, 0, 0]	-999	PAL1	0	R1392N
1020.837	3.902	1021423	REC_EVENT	5865	2	6	SEAL	<>	SEAL	RAIN	7	[0, 0, 0]	-999	PAL1	0	R1392N
1024.739	0.001	1025325	WAITING_END	n/a	-999	-999	n/a	n/a	n/a	n/a	8	[0, 0, 0]	-999	PAL1	0	R1392N
1024.74	10.43	1025326	COUNTDOWN_START	n/a	-999	-999	n/a	n/a	n/a	n/a	8	[0, 0, 0]	-999	PAL1	0	R1392N
1035.17	0.0	1035756	COUNTDOWN_END	n/a	-999	-999	n/a	n/a	n/a	n/a	8	[0, 0, 0]	-999	PAL1	0	R1392N
1035.17	0.739	1035756	ORIENT_START	n/a	-999	-999	n/a	n/a	n/a	n/a	8	[0, 0, 0]	-999	PAL1	0	R1392N
1035.909	0.0	1036495	ORIENT_END	n/a	-999	-999	n/a	n/a	n/a	n/a	8	[0, 0, 0]	-999	PAL1	0	R1392N
1035.909	1.157	1036495	ENCODING_START	n/a	-999	-999	n/a	n/a	n/a	n/a	8	[0, 0, 0]	-999	PAL1	0	R1392N
1037.066	4.027	1037652	STUDY_PAIR	n/a	1	3	n/a	n/a	ELF	CLOUD	8	[0, 0, 0]	-999	PAL1	0	R1392N
1041.093	0.641	1041679	STUDY_PAIR_OFF	n/a	1	3	n/a	n/a	ELF	CLOUD	8	[0, 0, 0]	-999	PAL1	0	R1392N
1041.734	4.025	1042320	STUDY_PAIR	n/a	2	6	n/a	CHASE	MAZE	PLANT	8	[0, 0, 0]	-999	PAL1	0	R1392N
1045.759	0.501	1046345	STUDY_PAIR_OFF	n/a	2	6	n/a	CHASE	MAZE	PLANT	8	[0, 0, 0]	-999	PAL1	0	R1392N
1046.26	4.035	1046846	STUDY_PAIR	n/a	3	5	n/a	CRUMB	CRANE	GRAPE	8	[0, 0, 0]	-999	PAL1	0	R1392N
1050.295	0.535	1050880	STUDY_PAIR_OFF	n/a	3	5	n/a	CRUMB	CRANE	GRAPE	8	[0, 0, 0]	-999	PAL1	0	R1392N
1050.83	4.031	1051415	STUDY_PAIR	n/a	4	4	n/a	n/a	SALT	AXE	8	[0, 0, 0]	-999	PAL1	0	R1392N
1054.861	0.677	1055446	STUDY_PAIR_OFF	n/a	4	4	n/a	n/a	SALT	AXE	8	[0, 0, 0]	-999	PAL1	0	R1392N
1055.538	4.024	1056123	STUDY_PAIR	n/a	5	1	n/a	n/a	MILK	GLASS	8	[0, 0, 0]	-999	PAL1	0	R1392N
1059.562	0.631	1060147	STUDY_PAIR_OFF	n/a	5	1	n/a	n/a	MILK	GLASS	8	[0, 0, 0]	-999	PAL1	0	R1392N
1060.193	4.037	1060778	STUDY_PAIR	n/a	6	2	n/a	n/a	VASE	JUICE	8	[0, 0, 0]	-999	PAL1	0	R1392N
1064.23	0.001	1064815	STUDY_PAIR_OFF	n/a	6	2	n/a	n/a	VASE	JUICE	8	[0, 0, 0]	-999	PAL1	0	R1392N
1064.231	0.0	1064816	ENCODING_END	n/a	-999	-999	n/a	n/a	n/a	n/a	8	[0, 0, 0]	-999	PAL1	0	R1392N
1064.231	0.0	1064816	MATH_START	n/a	-999	-999	n/a	n/a	n/a	n/a	8	[0, 0, 0]	-999	PAL1	0	R1392N
1064.231	0.016	1064816	START	n/a	-999	-999	n/a	n/a	n/a	n/a	8	[-999, -999, -999]	-999	PAL1	0	R1392N
1064.247	3.85	1064832	PROB	3813	-999	-999	n/a	n/a	n/a	n/a	8	[3, 2, 1]	6	PAL1	0	R1392N
1068.097	3.034	1068682	PROB	3011	-999	-999	n/a	n/a	n/a	n/a	8	[2, 6, 3]	11	PAL1	0	R1392N
1071.131	2.366	1071716	PROB	2337	-999	-999	n/a	n/a	n/a	n/a	8	[2, 1, 7]	10	PAL1	0	R1392N
1073.497	2.384	1074082	PROB	2346	-999	-999	n/a	n/a	n/a	n/a	8	[6, 2, 6]	14	PAL1	0	R1392N
1075.881	2.268	1076466	PROB	2244	-999	-999	n/a	n/a	n/a	n/a	8	[8, 1, 3]	12	PAL1	0	R1392N
1078.149	4.366	1078733	PROB	4327	-999	-999	n/a	n/a	n/a	n/a	8	[7, 5, 4]	16	PAL1	0	R1392N
1082.515	2.498	1083099	PROB	2498	-999	-999	n/a	n/a	n/a	n/a	8	[4, 3, 2]	9	PAL1	0	R1392N
1085.013	0.021	1085597	STOP	n/a	-999	-999	n/a	n/a	n/a	n/a	8	[-999, -999, -999]	-999	PAL1	0	R1392N
1085.034	0.503	1085618	MATH_END	n/a	-999	-999	n/a	n/a	n/a	n/a	8	[0, 0, 0]	-999	PAL1	0	R1392N
1085.537	0.001	1086121	RETRIEVAL_START	n/a	-999	-999	n/a	n/a	n/a	n/a	8	[0, 0, 0]	-999	PAL1	0	R1392N
1085.538	0.278	1086122	ORIENT_START	n/a	-999	-999	n/a	n/a	n/a	n/a	8	[0, 0, 0]	-999	PAL1	0	R1392N
1085.816	0.74	1086400	ORIENT_END	n/a	-999	-999	n/a	n/a	n/a	n/a	8	[0, 0, 0]	-999	PAL1	0	R1392N
1086.556	0.0	1087140	REC_START	n/a	5	1	MILK	n/a	MILK	GLASS	8	[0, 0, 0]	-999	PAL1	0	R1392N
1086.556	4.027	1087140	PROBE_START	n/a	5	1	MILK	n/a	MILK	GLASS	8	[0, 0, 0]	-999	PAL1	0	R1392N
1090.583	1.001	1091167	PROBE_END	n/a	5	1	MILK	n/a	MILK	GLASS	8	[0, 0, 0]	-999	PAL1	0	R1392N
1091.584	0.006	1092168	REC_END	n/a	5	1	MILK	n/a	MILK	GLASS	8	[0, 0, 0]	-999	PAL1	0	R1392N
1091.59	0.277	1092174	ORIENT_START	n/a	-999	-999	n/a	n/a	n/a	n/a	8	[0, 0, 0]	-999	PAL1	0	R1392N
1091.867	0.598	1092451	ORIENT_END	n/a	-999	-999	n/a	n/a	n/a	n/a	8	[0, 0, 0]	-999	PAL1	0	R1392N
1092.465	0.001	1093049	REC_START	n/a	6	2	JUICE	n/a	VASE	JUICE	8	[0, 0, 0]	-999	PAL1	0	R1392N
1092.466	0.127	1093050	PROBE_START	n/a	6	2	JUICE	n/a	VASE	JUICE	8	[0, 0, 0]	-999	PAL1	0	R1392N
1092.593	3.908	1093177	REC_EVENT	6037	5	1	MILK	<>	MILK	GLASS	8	[0, 0, 0]	-999	PAL1	0	R1392N
1096.501	1.0	1097085	PROBE_END	n/a	6	2	JUICE	n/a	VASE	JUICE	8	[0, 0, 0]	-999	PAL1	0	R1392N
1097.501	0.011	1098085	REC_END	n/a	6	2	JUICE	n/a	VASE	JUICE	8	[0, 0, 0]	-999	PAL1	0	R1392N
1097.512	0.273	1098096	ORIENT_START	n/a	-999	-999	n/a	n/a	n/a	n/a	8	[0, 0, 0]	-999	PAL1	0	R1392N
1097.785	0.5	1098369	ORIENT_END	n/a	-999	-999	n/a	n/a	n/a	n/a	8	[0, 0, 0]	-999	PAL1	0	R1392N
1098.285	0.0	1098869	REC_START	n/a	1	3	CLOUD	n/a	ELF	CLOUD	8	[0, 0, 0]	-999	PAL1	0	R1392N
1098.285	0.046	1098869	PROBE_START	n/a	1	3	CLOUD	n/a	ELF	CLOUD	8	[0, 0, 0]	-999	PAL1	0	R1392N
1098.331	2.97	1098915	REC_EVENT	5865	6	2	JUICE	<>	VASE	JUICE	8	[0, 0, 0]	-999	PAL1	0	R1392N
1101.301	1.0	1101885	REC_EVENT	3016	1	3	CLOUD	<>	ELF	CLOUD	8	[0, 0, 0]	-999	PAL1	0	R1392N
1102.301	0.019	1102885	REC_EVENT	4016	1	3	CLOUD	<>	ELF	CLOUD	8	[0, 0, 0]	-999	PAL1	0	R1392N
1102.32	0.984	1102904	PROBE_END	n/a	1	3	CLOUD	n/a	ELF	CLOUD	8	[0, 0, 0]	-999	PAL1	0	R1392N
1103.304	0.016	1103888	REC_EVENT	5019	1	3	CLOUD	<>	ELF	CLOUD	8	[0, 0, 0]	-999	PAL1	0	R1392N
1103.32	0.011	1103904	REC_END	n/a	1	3	CLOUD	n/a	ELF	CLOUD	8	[0, 0, 0]	-999	PAL1	0	R1392N
1103.331	0.271	1103915	ORIENT_START	n/a	-999	-999	n/a	n/a	n/a	n/a	8	[0, 0, 0]	-999	PAL1	0	R1392N
1103.602	0.503	1104186	ORIENT_END	n/a	-999	-999	n/a	n/a	n/a	n/a	8	[0, 0, 0]	-999	PAL1	0	R1392N
1104.105	0.0	1104689	REC_START	n/a	4	4	SALT	n/a	SALT	AXE	8	[0, 0, 0]	-999	PAL1	0	R1392N
1104.105	0.719	1104689	PROBE_START	n/a	4	4	SALT	n/a	SALT	AXE	8	[0, 0, 0]	-999	PAL1	0	R1392N
1104.824	3.313	1105408	REC_EVENT	719	4	4	SALT	<>	SALT	AXE	8	[0, 0, 0]	-999	PAL1	0	R1392N
1108.137	1.001	1108720	PROBE_END	n/a	4	4	SALT	n/a	SALT	AXE	8	[0, 0, 0]	-999	PAL1	0	R1392N
1109.138	0.011	1109721	REC_END	n/a	4	4	SALT	n/a	SALT	AXE	8	[0, 0, 0]	-999	PAL1	0	R1392N
1109.149	0.271	1109732	ORIENT_START	n/a	-999	-999	n/a	n/a	n/a	n/a	8	[0, 0, 0]	-999	PAL1	0	R1392N
1109.42	0.702	1110003	ORIENT_END	n/a	-999	-999	n/a	n/a	n/a	n/a	8	[0, 0, 0]	-999	PAL1	0	R1392N
1110.122	0.0	1110705	REC_START	n/a	3	5	GRAPE	CRUMB	CRANE	GRAPE	8	[0, 0, 0]	-999	PAL1	0	R1392N
1110.122	3.884	1110705	PROBE_START	n/a	3	5	GRAPE	CRUMB	CRANE	GRAPE	8	[0, 0, 0]	-999	PAL1	0	R1392N
1114.006	0.149	1114589	REC_EVENT	3884	3	5	GRAPE	BREAD	CRANE	GRAPE	8	[0, 0, 0]	-999	PAL1	0	R1392N
1114.155	0.275	1114738	PROBE_END	n/a	3	5	GRAPE	n/a	CRANE	GRAPE	8	[0, 0, 0]	-999	PAL1	0	R1392N
1114.43	0.726	1115013	REC_EVENT	4308	3	5	GRAPE	CRUMB	CRANE	GRAPE	8	[0, 0, 0]	-999	PAL1	0	R1392N
1115.156	0.012	1115739	REC_END	n/a	3	5	GRAPE	n/a	CRANE	GRAPE	8	[0, 0, 0]	-999	PAL1	0	R1392N
1115.168	0.27	1115751	ORIENT_START	n/a	-999	-999	n/a	n/a	n/a	n/a	8	[0, 0, 0]	-999	PAL1	0	R1392N
1115.438	0.741	1116021	ORIENT_END	n/a	-999	-999	n/a	n/a	n/a	n/a	8	[0, 0, 0]	-999	PAL1	0	R1392N
1116.179	0.001	1116762	REC_START	n/a	2	6	MAZE	CHASE	MAZE	PLANT	8	[0, 0, 0]	-999	PAL1	0	R1392N
1116.18	4.026	1116763	PROBE_START	n/a	2	6	MAZE	CHASE	MAZE	PLANT	8	[0, 0, 0]	-999	PAL1	0	R1392N
1120.206	0.296	1120789	PROBE_END	n/a	2	6	MAZE	n/a	MAZE	PLANT	8	[0, 0, 0]	-999	PAL1	0	R1392N
1120.502	0.514	1121085	REC_EVENT	4322	2	6	MAZE	<>	MAZE	PLANT	8	[0, 0, 0]	-999	PAL1	0	R1392N
1121.016	0.191	1121599	REC_EVENT	4836	2	6	MAZE	CHASE	MAZE	PLANT	8	[0, 0, 0]	-999	PAL1	0	R1392N
1121.207	0.005	1121790	REC_END	n/a	2	6	MAZE	n/a	MAZE	PLANT	8	[0, 0, 0]	-999	PAL1	0	R1392N
1121.212	0.0	1121795	TRIAL_END	n/a	-999	-999	n/a	n/a	n/a	n/a	8	[0, 0, 0]	-999	PAL1	0	R1392N
1121.212	0.019	1121795	RETRIEVAL_END	n/a	-999	-999	n/a	n/a	n/a	n/a	8	[0, 0, 0]	-999	PAL1	0	R1392N
1121.231	0.001	1121814	TRIAL_START	n/a	-999	-999	n/a	n/a	n/a	n/a	8	[0, 0, 0]	-999	PAL1	0	R1392N
1121.232	0.0	1121815	TRIAL	n/a	-999	-999	n/a	n/a	n/a	n/a	9	[0, 0, 0]	-999	PAL1	0	R1392N
1121.232	245.481	1121815	WAITING_START	n/a	-999	-999	n/a	n/a	n/a	n/a	9	[0, 0, 0]	-999	PAL1	0	R1392N
1366.713	0.0	1367288	WAITING_END	n/a	-999	-999	n/a	n/a	n/a	n/a	9	[0, 0, 0]	-999	PAL1	0	R1392N
1366.713	10.428	1367288	COUNTDOWN_START	n/a	-999	-999	n/a	n/a	n/a	n/a	9	[0, 0, 0]	-999	PAL1	0	R1392N
1377.141	0.001	1377715	COUNTDOWN_END	n/a	-999	-999	n/a	n/a	n/a	n/a	9	[0, 0, 0]	-999	PAL1	0	R1392N
1377.142	0.723	1377716	ORIENT_START	n/a	-999	-999	n/a	n/a	n/a	n/a	9	[0, 0, 0]	-999	PAL1	0	R1392N
1377.865	0.0	1378439	ENCODING_START	n/a	-999	-999	n/a	n/a	n/a	n/a	9	[0, 0, 0]	-999	PAL1	0	R1392N
1377.865	1.087	1378439	ORIENT_END	n/a	-999	-999	n/a	n/a	n/a	n/a	9	[0, 0, 0]	-999	PAL1	0	R1392N
1378.952	4.031	1379526	STUDY_PAIR	n/a	1	5	n/a	PURSE	PURSE	HOOK	9	[0, 0, 0]	-999	PAL1	0	R1392N
1382.983	0.573	1383557	STUDY_PAIR_OFF	n/a	1	5	n/a	PURSE	PURSE	HOOK	9	[0, 0, 0]	-999	PAL1	0	R1392N
1383.556	4.01	1384130	STUDY_PAIR	n/a	2	6	n/a	HOOK	DRUM	SPRING	9	[0, 0, 0]	-999	PAL1	0	R1392N
1387.566	0.643	1388140	STUDY_PAIR_OFF	n/a	2	6	n/a	HOOK	DRUM	SPRING	9	[0, 0, 0]	-999	PAL1	0	R1392N
1388.209	4.026	1388783	STUDY_PAIR	n/a	3	1	n/a	PURSE	TRUCK	DUCK	9	[0, 0, 0]	-999	PAL1	0	R1392N
1392.235	0.508	1392809	STUDY_PAIR_OFF	n/a	3	1	n/a	PURSE	TRUCK	DUCK	9	[0, 0, 0]	-999	PAL1	0	R1392N
1392.743	4.025	1393317	STUDY_PAIR	n/a	4	2	n/a	CHIN	PIT	CHIN	9	[0, 0, 0]	-999	PAL1	0	R1392N
1396.768	0.648	1397342	STUDY_PAIR_OFF	n/a	4	2	n/a	CHIN	PIT	CHIN	9	[0, 0, 0]	-999	PAL1	0	R1392N
1397.416	4.036	1397990	STUDY_PAIR	n/a	5	3	n/a	CHEST	ARK	NEST	9	[0, 0, 0]	-999	PAL1	0	R1392N
1401.452	0.627	1402025	STUDY_PAIR_OFF	n/a	5	3	n/a	CHEST	ARK	NEST	9	[0, 0, 0]	-999	PAL1	0	R1392N
1402.079	4.024	1402652	STUDY_PAIR	n/a	6	4	n/a	n/a	WEB	LOCK	9	[0, 0, 0]	-999	PAL1	0	R1392N
1406.103	0.001	1406676	STUDY_PAIR_OFF	n/a	6	4	n/a	n/a	WEB	LOCK	9	[0, 0, 0]	-999	PAL1	0	R1392N
1406.104	0.0	1406677	ENCODING_END	n/a	-999	-999	n/a	n/a	n/a	n/a	9	[0, 0, 0]	-999	PAL1	0	R1392N
1406.104	0.001	1406677	MATH_START	n/a	-999	-999	n/a	n/a	n/a	n/a	9	[0, 0, 0]	-999	PAL1	0	R1392N
1406.105	0.015	1406678	START	n/a	-999	-999	n/a	n/a	n/a	n/a	9	[-999, -999, -999]	-999	PAL1	0	R1392N
1406.12	4.001	1406693	PROB	3972	-999	-999	n/a	n/a	n/a	n/a	9	[2, 8, 9]	19	PAL1	0	R1392N
1410.121	2.532	1410694	PROB	2499	-999	-999	n/a	n/a	n/a	n/a	9	[3, 3, 8]	14	PAL1	0	R1392N
1412.653	1.951	1413226	PROB	1927	-999	-999	n/a	n/a	n/a	n/a	9	[1, 9, 2]	12	PAL1	0	R1392N
1414.604	1.883	1415177	PROB	1848	-999	-999	n/a	n/a	n/a	n/a	9	[1, 9, 2]	12	PAL1	0	R1392N
1416.487	2.201	1417060	PROB	2173	-999	-999	n/a	n/a	n/a	n/a	9	[7, 9, 4]	20	PAL1	0	R1392N
1418.688	1.767	1419261	PROB	1731	-999	-999	n/a	n/a	n/a	n/a	9	[5, 2, 3]	10	PAL1	0	R1392N
1420.455	2.868	1421028	PROB	2837	-999	-999	n/a	n/a	n/a	n/a	9	[7, 6, 4]	17	PAL1	0	R1392N
1423.323	2.449	1423896	PROB	2425	-999	-999	n/a	n/a	n/a	n/a	9	[8, 2, 7]	17	PAL1	0	R1392N
1425.772	2.096	1426345	PROB	2096	-999	-999	n/a	n/a	n/a	n/a	9	[8, 7, 5]	20	PAL1	0	R1392N
1427.868	0.022	1428441	STOP	n/a	-999	-999	n/a	n/a	n/a	n/a	9	[-999, -999, -999]	-999	PAL1	0	R1392N
1427.89	0.548	1428463	MATH_END	n/a	-999	-999	n/a	n/a	n/a	n/a	9	[0, 0, 0]	-999	PAL1	0	R1392N
1428.438	0.002	1429011	RETRIEVAL_START	n/a	-999	-999	n/a	n/a	n/a	n/a	9	[0, 0, 0]	-999	PAL1	0	R1392N
1428.44	0.283	1429013	ORIENT_START	n/a	-999	-999	n/a	n/a	n/a	n/a	9	[0, 0, 0]	-999	PAL1	0	R1392N
1428.723	0.729	1429296	ORIENT_END	n/a	-999	-999	n/a	n/a	n/a	n/a	9	[0, 0, 0]	-999	PAL1	0	R1392N
1429.452	0.0	1430025	REC_START	n/a	3	1	TRUCK	PURSE	TRUCK	DUCK	9	[0, 0, 0]	-999	PAL1	0	R1392N
1429.452	2.378	1430025	PROBE_START	n/a	3	1	TRUCK	PURSE	TRUCK	DUCK	9	[0, 0, 0]	-999	PAL1	0	R1392N
1431.83	0.638	1432402	REC_EVENT	2378	3	1	TRUCK	TRUCK	TRUCK	DUCK	9	[0, 0, 0]	-999	PAL1	0	R1392N
1432.468	1.006	1433040	REC_EVENT	3016	3	1	TRUCK	PURSE	TRUCK	DUCK	9	[0, 0, 0]	-999	PAL1	0	R1392N
1433.474	0.999	1434046	PROBE_END	n/a	3	1	TRUCK	n/a	TRUCK	DUCK	9	[0, 0, 0]	-999	PAL1	0	R1392N
1434.473	0.006	1435045	REC_END	n/a	3	1	TRUCK	n/a	TRUCK	DUCK	9	[0, 0, 0]	-999	PAL1	0	R1392N
1434.479	0.278	1435051	ORIENT_START	n/a	-999	-999	n/a	n/a	n/a	n/a	9	[0, 0, 0]	-999	PAL1	0	R1392N
1434.757	0.606	1435329	ORIENT_END	n/a	-999	-999	n/a	n/a	n/a	n/a	9	[0, 0, 0]	-999	PAL1	0	R1392N
1435.363	0.0	1435935	PROBE_START	n/a	4	2	PIT	CHIN	PIT	CHIN	9	[0, 0, 0]	-999	PAL1	0	R1392N
1435.363	2.446	1435935	REC_START	n/a	4	2	PIT	CHIN	PIT	CHIN	9	[0, 0, 0]	-999	PAL1	0	R1392N
1437.809	1.582	1438381	REC_EVENT	2446	4	2	PIT	CHIN	PIT	CHIN	9	[0, 0, 0]	-999	PAL1	0	R1392N
1439.391	1.0	1439963	PROBE_END	n/a	4	2	PIT	n/a	PIT	CHIN	9	[0, 0, 0]	-999	PAL1	0	R1392N
1440.391	0.011	1440963	REC_END	n/a	4	2	PIT	n/a	PIT	CHIN	9	[0, 0, 0]	-999	PAL1	0	R1392N
1440.402	0.273	1440974	ORIENT_START	n/a	-999	-999	n/a	n/a	n/a	n/a	9	[0, 0, 0]	-999	PAL1	0	R1392N
1440.675	0.72	1441247	ORIENT_END	n/a	-999	-999	n/a	n/a	n/a	n/a	9	[0, 0, 0]	-999	PAL1	0	R1392N
1441.395	0.001	1441967	REC_START	n/a	5	3	NEST	CHEST	ARK	NEST	9	[0, 0, 0]	-999	PAL1	0	R1392N
1441.396	2.508	1441968	PROBE_START	n/a	5	3	NEST	CHEST	ARK	NEST	9	[0, 0, 0]	-999	PAL1	0	R1392N
1443.904	0.635	1444476	REC_EVENT	2508	5	3	NEST	NEST	ARK	NEST	9	[0, 0, 0]	-999	PAL1	0	R1392N
1444.539	0.887	1445111	REC_EVENT	3143	5	3	NEST	CHEST	ARK	NEST	9	[0, 0, 0]	-999	PAL1	0	R1392N
1445.426	1.0	1445998	PROBE_END	n/a	5	3	NEST	n/a	ARK	NEST	9	[0, 0, 0]	-999	PAL1	0	R1392N
1446.426	0.012	1446998	REC_END	n/a	5	3	NEST	n/a	ARK	NEST	9	[0, 0, 0]	-999	PAL1	0	R1392N
1446.438	0.271	1447010	ORIENT_START	n/a	-999	-999	n/a	n/a	n/a	n/a	9	[0, 0, 0]	-999	PAL1	0	R1392N
1446.709	0.656	1447281	ORIENT_END	n/a	-999	-999	n/a	n/a	n/a	n/a	9	[0, 0, 0]	-999	PAL1	0	R1392N
1447.365	0.0	1447937	REC_START	n/a	6	4	LOCK	n/a	WEB	LOCK	9	[0, 0, 0]	-999	PAL1	0	R1392N
1447.365	4.028	1447937	PROBE_START	n/a	6	4	LOCK	n/a	WEB	LOCK	9	[0, 0, 0]	-999	PAL1	0	R1392N
1451.393	1.0	1451965	PROBE_END	n/a	6	4	LOCK	n/a	WEB	LOCK	9	[0, 0, 0]	-999	PAL1	0	R1392N
1452.393	0.012	1452965	REC_END	n/a	6	4	LOCK	n/a	WEB	LOCK	9	[0, 0, 0]	-999	PAL1	0	R1392N
1452.405	0.272	1452977	ORIENT_START	n/a	-999	-999	n/a	n/a	n/a	n/a	9	[0, 0, 0]	-999	PAL1	0	R1392N
1452.677	0.609	1453249	ORIENT_END	n/a	-999	-999	n/a	n/a	n/a	n/a	9	[0, 0, 0]	-999	PAL1	0	R1392N
1453.286	0.11	1453858	REC_EVENT	5921	6	4	LOCK	<>	WEB	LOCK	9	[0, 0, 0]	-999	PAL1	0	R1392N
1453.396	0.0	1453968	REC_START	n/a	1	5	PURSE	PURSE	PURSE	HOOK	9	[0, 0, 0]	-999	PAL1	0	R1392N
1453.396	4.032	1453968	PROBE_START	n/a	1	5	PURSE	PURSE	PURSE	HOOK	9	[0, 0, 0]	-999	PAL1	0	R1392N
1457.428	1.0	1458000	PROBE_END	n/a	1	5	PURSE	n/a	PURSE	HOOK	9	[0, 0, 0]	-999	PAL1	0	R1392N
1458.428	0.012	1459000	REC_END	n/a	1	5	PURSE	n/a	PURSE	HOOK	9	[0, 0, 0]	-999	PAL1	0	R1392N
1458.44	0.271	1459012	ORIENT_START	n/a	-999	-999	n/a	n/a	n/a	n/a	9	[0, 0, 0]	-999	PAL1	0	R1392N
1458.711	0.26	1459283	ORIENT_END	n/a	-999	-999	n/a	n/a	n/a	n/a	9	[0, 0, 0]	-999	PAL1	0	R1392N
1458.971	0.462	1459543	REC_EVENT	5575	1	5	PURSE	PURSE	PURSE	HOOK	9	[0, 0, 0]	-999	PAL1	0	R1392N
1459.433	0.001	1460005	REC_START	n/a	2	6	SPRING	HOOK	DRUM	SPRING	9	[0, 0, 0]	-999	PAL1	0	R1392N
1459.434	0.0	1460006	PROBE_START	n/a	2	6	SPRING	HOOK	DRUM	SPRING	9	[0, 0, 0]	-999	PAL1	0	R1392N
1459.434	4.028	1460006	REC_EVENT	0	2	6	SPRING	HOOK	DRUM	SPRING	9	[0, 0, 0]	-999	PAL1	0	R1392N
1463.462	1.0	1464033	PROBE_END	n/a	2	6	SPRING	n/a	DRUM	SPRING	9	[0, 0, 0]	-999	PAL1	0	R1392N
1464.462	0.012	1465033	REC_END	n/a	2	6	SPRING	n/a	DRUM	SPRING	9	[0, 0, 0]	-999	PAL1	0	R1392N
1464.474	0.0	1465045	RETRIEVAL_END	n/a	-999	-999	n/a	n/a	n/a	n/a	9	[0, 0, 0]	-999	PAL1	0	R1392N
1464.474	0.022	1465045	TRIAL_END	n/a	-999	-999	n/a	n/a	n/a	n/a	9	[0, 0, 0]	-999	PAL1	0	R1392N
1464.496	0.0	1465067	TRIAL_START	n/a	-999	-999	n/a	n/a	n/a	n/a	9	[0, 0, 0]	-999	PAL1	0	R1392N
1464.496	0.0	1465067	TRIAL	n/a	-999	-999	n/a	n/a	n/a	n/a	10	[0, 0, 0]	-999	PAL1	0	R1392N
1464.496	0.963	1465067	WAITING_START	n/a	-999	-999	n/a	n/a	n/a	n/a	10	[0, 0, 0]	-999	PAL1	0	R1392N
1465.459	1.054	1466030	REC_EVENT	6025	2	6	SPRING	<>	DRUM	SPRING	9	[0, 0, 0]	-999	PAL1	0	R1392N
1466.513	0.0	1467084	WAITING_END	n/a	-999	-999	n/a	n/a	n/a	n/a	10	[0, 0, 0]	-999	PAL1	0	R1392N
1466.513	10.429	1467084	COUNTDOWN_START	n/a	-999	-999	n/a	n/a	n/a	n/a	10	[0, 0, 0]	-999	PAL1	0	R1392N
1476.942	0.001	1477513	COUNTDOWN_END	n/a	-999	-999	n/a	n/a	n/a	n/a	10	[0, 0, 0]	-999	PAL1	0	R1392N
1476.943	0.571	1477514	ORIENT_START	n/a	-999	-999	n/a	n/a	n/a	n/a	10	[0, 0, 0]	-999	PAL1	0	R1392N
1477.514	0.001	1478085	ORIENT_END	n/a	-999	-999	n/a	n/a	n/a	n/a	10	[0, 0, 0]	-999	PAL1	0	R1392N
1477.515	1.0	1478086	ENCODING_START	n/a	-999	-999	n/a	n/a	n/a	n/a	10	[0, 0, 0]	-999	PAL1	0	R1392N
1478.515	4.033	1479086	STUDY_PAIR	n/a	1	3	n/a	GRASS	GRASS	PIG	10	[0, 0, 0]	-999	PAL1	0	R1392N
1482.548	0.524	1483119	STUDY_PAIR_OFF	n/a	1	3	n/a	GRASS	GRASS	PIG	10	[0, 0, 0]	-999	PAL1	0	R1392N
1483.072	4.028	1483643	STUDY_PAIR	n/a	2	2	n/a	WEED	COW	WEED	10	[0, 0, 0]	-999	PAL1	0	R1392N
1487.1	0.692	1487671	STUDY_PAIR_OFF	n/a	2	2	n/a	WEED	COW	WEED	10	[0, 0, 0]	-999	PAL1	0	R1392N
1487.792	4.025	1488363	STUDY_PAIR	n/a	3	1	n/a	KITE	KITE	SAIL	10	[0, 0, 0]	-999	PAL1	0	R1392N
1491.817	0.587	1492387	STUDY_PAIR_OFF	n/a	3	1	n/a	KITE	KITE	SAIL	10	[0, 0, 0]	-999	PAL1	0	R1392N
1492.404	4.03	1492974	STUDY_PAIR	n/a	4	6	n/a	FEED	TENT	HOLE	10	[0, 0, 0]	-999	PAL1	0	R1392N
1496.434	0.664	1497004	STUDY_PAIR_OFF	n/a	4	6	n/a	FEED	TENT	HOLE	10	[0, 0, 0]	-999	PAL1	0	R1392N
1497.098	4.038	1497668	STUDY_PAIR	n/a	5	5	n/a	n/a	FILM	SEED	10	[0, 0, 0]	-999	PAL1	0	R1392N
1501.136	0.693	1501706	STUDY_PAIR_OFF	n/a	5	5	n/a	n/a	FILM	SEED	10	[0, 0, 0]	-999	PAL1	0	R1392N
1501.829	4.023	1502399	STUDY_PAIR	n/a	6	4	n/a	n/a	BADGE	STEM	10	[0, 0, 0]	-999	PAL1	0	R1392N
1505.852	0.001	1506422	STUDY_PAIR_OFF	n/a	6	4	n/a	n/a	BADGE	STEM	10	[0, 0, 0]	-999	PAL1	0	R1392N
1505.853	0.0	1506423	MATH_START	n/a	-999	-999	n/a	n/a	n/a	n/a	10	[0, 0, 0]	-999	PAL1	0	R1392N
1505.853	0.001	1506423	ENCODING_END	n/a	-999	-999	n/a	n/a	n/a	n/a	10	[0, 0, 0]	-999	PAL1	0	R1392N
1505.854	0.015	1506424	START	n/a	-999	-999	n/a	n/a	n/a	n/a	10	[-999, -999, -999]	-999	PAL1	0	R1392N
1505.869	3.5	1506439	PROB	3471	-999	-999	n/a	n/a	n/a	n/a	10	[6, 5, 4]	15	PAL1	0	R1392N
1509.369	3.401	1509939	PROB	3378	-999	-999	n/a	n/a	n/a	n/a	10	[7, 1, 6]	14	PAL1	0	R1392N
1512.77	3.1	1513340	PROB	3074	-999	-999	n/a	n/a	n/a	n/a	10	[3, 2, 5]	10	PAL1	0	R1392N
1515.87	2.568	1516440	PROB	2541	-999	-999	n/a	n/a	n/a	n/a	10	[5, 3, 9]	17	PAL1	0	R1392N
1518.438	3.05	1519008	PROB	3022	-999	-999	n/a	n/a	n/a	n/a	10	[6, 7, 4]	17	PAL1	0	R1392N
1521.488	1.984	1522057	PROB	1956	-999	-999	n/a	n/a	n/a	n/a	10	[3, 2, 7]	12	PAL1	0	R1392N
1523.472	3.525	1524041	PROB	3525	-999	-999	n/a	n/a	n/a	n/a	10	[3, 5, 9]	17	PAL1	0	R1392N
1526.997	0.01	1527566	STOP	n/a	-999	-999	n/a	n/a	n/a	n/a	10	[-999, -999, -999]	-999	PAL1	0	R1392N
1527.007	0.676	1527576	MATH_END	n/a	-999	-999	n/a	n/a	n/a	n/a	10	[0, 0, 0]	-999	PAL1	0	R1392N
1527.683	0.001	1528252	RETRIEVAL_START	n/a	-999	-999	n/a	n/a	n/a	n/a	10	[0, 0, 0]	-999	PAL1	0	R1392N
1527.684	0.273	1528253	ORIENT_START	n/a	-999	-999	n/a	n/a	n/a	n/a	10	[0, 0, 0]	-999	PAL1	0	R1392N
1527.957	0.569	1528526	ORIENT_END	n/a	-999	-999	n/a	n/a	n/a	n/a	10	[0, 0, 0]	-999	PAL1	0	R1392N
1528.526	0.001	1529095	REC_START	n/a	3	1	KITE	KITE	KITE	SAIL	10	[0, 0, 0]	-999	PAL1	0	R1392N
1528.527	4.03	1529096	PROBE_START	n/a	3	1	KITE	KITE	KITE	SAIL	10	[0, 0, 0]	-999	PAL1	0	R1392N
1532.557	1.0	1533126	PROBE_END	n/a	3	1	KITE	n/a	KITE	SAIL	10	[0, 0, 0]	-999	PAL1	0	R1392N
1533.557	0.012	1534126	REC_END	n/a	3	1	KITE	n/a	KITE	SAIL	10	[0, 0, 0]	-999	PAL1	0	R1392N
1533.569	0.153	1534138	ORIENT_START	n/a	-999	-999	n/a	n/a	n/a	n/a	10	[0, 0, 0]	-999	PAL1	0	R1392N
1533.722	0.118	1534291	REC_EVENT	5195	3	1	KITE	KITE	KITE	SAIL	10	[0, 0, 0]	-999	PAL1	0	R1392N
1533.84	0.507	1534409	ORIENT_END	n/a	-999	-999	n/a	n/a	n/a	n/a	10	[0, 0, 0]	-999	PAL1	0	R1392N
1534.347	0.001	1534916	REC_START	n/a	2	2	COW	WEED	COW	WEED	10	[0, 0, 0]	-999	PAL1	0	R1392N
1534.348	0.0	1534917	REC_EVENT	0	2	2	COW	RED	COW	WEED	10	[0, 0, 0]	-999	PAL1	0	R1392N
1534.348	0.037	1534917	PROBE_START	n/a	2	2	COW	WEED	COW	WEED	10	[0, 0, 0]	-999	PAL1	0	R1392N
1534.385	2.62	1534954	REC_EVENT	5858	3	1	KITE	<>	KITE	SAIL	10	[0, 0, 0]	-999	PAL1	0	R1392N
1537.005	1.369	1537574	REC_EVENT	2657	2	2	COW	WEED	COW	WEED	10	[0, 0, 0]	-999	PAL1	0	R1392N
1538.374	1.001	1538943	PROBE_END	n/a	2	2	COW	n/a	COW	WEED	10	[0, 0, 0]	-999	PAL1	0	R1392N
1539.375	0.011	1539944	REC_END	n/a	2	2	COW	n/a	COW	WEED	10	[0, 0, 0]	-999	PAL1	0	R1392N
1539.386	0.272	1539955	ORIENT_START	n/a	-999	-999	n/a	n/a	n/a	n/a	10	[0, 0, 0]	-999	PAL1	0	R1392N
1539.658	0.537	1540227	ORIENT_END	n/a	-999	-999	n/a	n/a	n/a	n/a	10	[0, 0, 0]	-999	PAL1	0	R1392N
1540.195	0.001	1540764	REC_START	n/a	1	3	PIG	GRASS	GRASS	PIG	10	[0, 0, 0]	-999	PAL1	0	R1392N
1540.196	1.514	1540765	PROBE_START	n/a	1	3	PIG	GRASS	GRASS	PIG	10	[0, 0, 0]	-999	PAL1	0	R1392N
1541.71	0.415	1542279	REC_EVENT	1514	1	3	PIG	PIG	GRASS	PIG	10	[0, 0, 0]	-999	PAL1	0	R1392N
1542.125	2.101	1542694	REC_EVENT	1929	1	3	PIG	GRASS	GRASS	PIG	10	[0, 0, 0]	-999	PAL1	0	R1392N
1544.226	1.0	1544795	PROBE_END	n/a	1	3	PIG	n/a	GRASS	PIG	10	[0, 0, 0]	-999	PAL1	0	R1392N
1545.226	0.012	1545795	REC_END	n/a	1	3	PIG	n/a	GRASS	PIG	10	[0, 0, 0]	-999	PAL1	0	R1392N
1545.238	0.271	1545807	ORIENT_START	n/a	-999	-999	n/a	n/a	n/a	n/a	10	[0, 0, 0]	-999	PAL1	0	R1392N
1545.509	0.592	1546078	ORIENT_END	n/a	-999	-999	n/a	n/a	n/a	n/a	10	[0, 0, 0]	-999	PAL1	0	R1392N
1546.101	0.0	1546670	REC_START	n/a	6	4	STEM	n/a	BADGE	STEM	10	[0, 0, 0]	-999	PAL1	0	R1392N
1546.101	4.026	1546670	PROBE_START	n/a	6	4	STEM	n/a	BADGE	STEM	10	[0, 0, 0]	-999	PAL1	0	R1392N
1550.127	1.001	1550695	PROBE_END	n/a	6	4	STEM	n/a	BADGE	STEM	10	[0, 0, 0]	-999	PAL1	0	R1392N
1551.128	0.012	1551696	REC_END	n/a	6	4	STEM	n/a	BADGE	STEM	10	[0, 0, 0]	-999	PAL1	0	R1392N
1551.14	0.27	1551708	ORIENT_START	n/a	-999	-999	n/a	n/a	n/a	n/a	10	[0, 0, 0]	-999	PAL1	0	R1392N
1551.41	0.518	1551978	ORIENT_END	n/a	-999	-999	n/a	n/a	n/a	n/a	10	[0, 0, 0]	-999	PAL1	0	R1392N
1551.928	0.0	1552496	REC_START	n/a	5	5	SEED	n/a	FILM	SEED	10	[0, 0, 0]	-999	PAL1	0	R1392N
1551.928	0.055	1552496	PROBE_START	n/a	5	5	SEED	n/a	FILM	SEED	10	[0, 0, 0]	-999	PAL1	0	R1392N
1551.983	3.979	1552551	REC_EVENT	5882	6	4	STEM	<>	BADGE	STEM	10	[0, 0, 0]	-999	PAL1	0	R1392N
1555.962	0.999	1556530	PROBE_END	n/a	5	5	SEED	n/a	FILM	SEED	10	[0, 0, 0]	-999	PAL1	0	R1392N
1556.961	0.011	1557529	REC_END	n/a	5	5	SEED	n/a	FILM	SEED	10	[0, 0, 0]	-999	PAL1	0	R1392N
1556.972	0.273	1557540	ORIENT_START	n/a	-999	-999	n/a	n/a	n/a	n/a	10	[0, 0, 0]	-999	PAL1	0	R1392N
1557.245	0.49	1557813	ORIENT_END	n/a	-999	-999	n/a	n/a	n/a	n/a	10	[0, 0, 0]	-999	PAL1	0	R1392N
1557.735	0.09	1558303	REC_EVENT	5807	5	5	SEED	<>	FILM	SEED	10	[0, 0, 0]	-999	PAL1	0	R1392N
1557.825	0.001	1558393	REC_START	n/a	4	6	TENT	FEED	TENT	HOLE	10	[0, 0, 0]	-999	PAL1	0	R1392N
1557.826	0.683	1558394	PROBE_START	n/a	4	6	TENT	FEED	TENT	HOLE	10	[0, 0, 0]	-999	PAL1	0	R1392N
1558.509	0.529	1559077	REC_EVENT	683	4	6	TENT	SEED	TENT	HOLE	10	[0, 0, 0]	-999	PAL1	0	R1392N
1559.038	2.824	1559606	REC_EVENT	1212	4	6	TENT	FEED	TENT	HOLE	10	[0, 0, 0]	-999	PAL1	0	R1392N
1561.862	1.0	1562430	PROBE_END	n/a	4	6	TENT	n/a	TENT	HOLE	10	[0, 0, 0]	-999	PAL1	0	R1392N
1562.862	0.011	1563430	REC_END	n/a	4	6	TENT	n/a	TENT	HOLE	10	[0, 0, 0]	-999	PAL1	0	R1392N
1562.873	0.0	1563441	RETRIEVAL_END	n/a	-999	-999	n/a	n/a	n/a	n/a	10	[0, 0, 0]	-999	PAL1	0	R1392N
1562.873	0.022	1563441	TRIAL_END	n/a	-999	-999	n/a	n/a	n/a	n/a	10	[0, 0, 0]	-999	PAL1	0	R1392N
1562.895	0.0	1563463	TRIAL_START	n/a	-999	-999	n/a	n/a	n/a	n/a	10	[0, 0, 0]	-999	PAL1	0	R1392N
1562.895	0.0	1563463	TRIAL	n/a	-999	-999	n/a	n/a	n/a	n/a	11	[0, 0, 0]	-999	PAL1	0	R1392N
1562.895	11.32	1563463	WAITING_START	n/a	-999	-999	n/a	n/a	n/a	n/a	11	[0, 0, 0]	-999	PAL1	0	R1392N
1574.215	0.0	1574783	WAITING_END	n/a	-999	-999	n/a	n/a	n/a	n/a	11	[0, 0, 0]	-999	PAL1	0	R1392N
1574.215	10.428	1574783	COUNTDOWN_START	n/a	-999	-999	n/a	n/a	n/a	n/a	11	[0, 0, 0]	-999	PAL1	0	R1392N
1584.643	0.001	1585210	COUNTDOWN_END	n/a	-999	-999	n/a	n/a	n/a	n/a	11	[0, 0, 0]	-999	PAL1	0	R1392N
1584.644	0.772	1585211	ORIENT_START	n/a	-999	-999	n/a	n/a	n/a	n/a	11	[0, 0, 0]	-999	PAL1	0	R1392N
1585.416	0.0	1585983	ORIENT_END	n/a	-999	-999	n/a	n/a	n/a	n/a	11	[0, 0, 0]	-999	PAL1	0	R1392N
1585.416	1.064	1585983	ENCODING_START	n/a	-999	-999	n/a	n/a	n/a	n/a	11	[0, 0, 0]	-999	PAL1	0	R1392N
1586.48	4.037	1587047	STUDY_PAIR	n/a	1	5	n/a	FOOD	FOOD	SCHOOL	11	[0, 0, 0]	-999	PAL1	0	R1392N
1590.517	0.6	1591084	STUDY_PAIR_OFF	n/a	1	5	n/a	FOOD	FOOD	SCHOOL	11	[0, 0, 0]	-999	PAL1	0	R1392N
1591.117	4.034	1591684	STUDY_PAIR	n/a	2	2	n/a	SWORD	CORD	SNOW	11	[0, 0, 0]	-999	PAL1	0	R1392N
1595.151	0.547	1595718	STUDY_PAIR_OFF	n/a	2	2	n/a	SWORD	CORD	SNOW	11	[0, 0, 0]	-999	PAL1	0	R1392N
1595.698	4.037	1596265	STUDY_PAIR	n/a	3	1	n/a	n/a	PARK	DOOR	11	[0, 0, 0]	-999	PAL1	0	R1392N
1599.735	0.517	1600302	STUDY_PAIR_OFF	n/a	3	1	n/a	n/a	PARK	DOOR	11	[0, 0, 0]	-999	PAL1	0	R1392N
1600.252	4.034	1600819	STUDY_PAIR	n/a	4	4	n/a	n/a	BAT	RAT	11	[0, 0, 0]	-999	PAL1	0	R1392N
1604.286	0.655	1604853	STUDY_PAIR_OFF	n/a	4	4	n/a	n/a	BAT	RAT	11	[0, 0, 0]	-999	PAL1	0	R1392N
1604.941	4.029	1605508	STUDY_PAIR	n/a	5	3	n/a	n/a	GEESE	FARM	11	[0, 0, 0]	-999	PAL1	0	R1392N
1608.97	0.704	1609536	STUDY_PAIR_OFF	n/a	5	3	n/a	n/a	GEESE	FARM	11	[0, 0, 0]	-999	PAL1	0	R1392N
1609.674	4.03	1610240	STUDY_PAIR	n/a	6	6	n/a	GROUND	RICE	CROW	11	[0, 0, 0]	-999	PAL1	0	R1392N
1613.704	0.0	1614270	ENCODING_END	n/a	-999	-999	n/a	n/a	n/a	n/a	11	[0, 0, 0]	-999	PAL1	0	R1392N
1613.704	0.001	1614270	STUDY_PAIR_OFF	n/a	6	6	n/a	GROUND	RICE	CROW	11	[0, 0, 0]	-999	PAL1	0	R1392N
1613.705	0.0	1614271	MATH_START	n/a	-999	-999	n/a	n/a	n/a	n/a	11	[0, 0, 0]	-999	PAL1	0	R1392N
1613.705	0.015	1614271	START	n/a	-999	-999	n/a	n/a	n/a	n/a	11	[-999, -999, -999]	-999	PAL1	0	R1392N
1613.72	4.734	1614286	PROB	4707	-999	-999	n/a	n/a	n/a	n/a	11	[9, 2, 3]	14	PAL1	0	R1392N
1618.454	2.184	1619020	PROB	2150	-999	-999	n/a	n/a	n/a	n/a	11	[2, 6, 8]	16	PAL1	0	R1392N
1620.638	2.967	1621204	PROB	2941	-999	-999	n/a	n/a	n/a	n/a	11	[1, 7, 1]	9	PAL1	0	R1392N
1623.605	2.1	1624171	PROB	2071	-999	-999	n/a	n/a	n/a	n/a	11	[5, 9, 1]	15	PAL1	0	R1392N
1625.705	3.452	1626271	PROB	3420	-999	-999	n/a	n/a	n/a	n/a	11	[3, 5, 4]	12	PAL1	0	R1392N
1629.157	2.633	1629723	PROB	2606	-999	-999	n/a	n/a	n/a	n/a	11	[3, 7, 2]	12	PAL1	0	R1392N
1631.79	2.646	1632356	PROB	2646	-999	-999	n/a	n/a	n/a	n/a	11	[4, 4, 2]	10	PAL1	0	R1392N
1634.436	0.021	1635002	STOP	n/a	-999	-999	n/a	n/a	n/a	n/a	11	[-999, -999, -999]	-999	PAL1	0	R1392N
1634.457	0.634	1635023	MATH_END	n/a	-999	-999	n/a	n/a	n/a	n/a	11	[0, 0, 0]	-999	PAL1	0	R1392N
1635.091	0.002	1635657	RETRIEVAL_START	n/a	-999	-999	n/a	n/a	n/a	n/a	11	[0, 0, 0]	-999	PAL1	0	R1392N
1635.093	0.281	1635659	ORIENT_START	n/a	-999	-999	n/a	n/a	n/a	n/a	11	[0, 0, 0]	-999	PAL1	0	R1392N
1635.374	0.638	1635940	ORIENT_END	n/a	-999	-999	n/a	n/a	n/a	n/a	11	[0, 0, 0]	-999	PAL1	0	R1392N
1636.012	0.001	1636578	REC_START	n/a	3	1	DOOR	n/a	PARK	DOOR	11	[0, 0, 0]	-999	PAL1	0	R1392N
1636.013	4.029	1636579	PROBE_START	n/a	3	1	DOOR	n/a	PARK	DOOR	11	[0, 0, 0]	-999	PAL1	0	R1392N
1640.042	1.001	1640607	PROBE_END	n/a	3	1	DOOR	n/a	PARK	DOOR	11	[0, 0, 0]	-999	PAL1	0	R1392N
1641.043	0.012	1641608	REC_END	n/a	3	1	DOOR	n/a	PARK	DOOR	11	[0, 0, 0]	-999	PAL1	0	R1392N
1641.055	0.271	1641620	ORIENT_START	n/a	-999	-999	n/a	n/a	n/a	n/a	11	[0, 0, 0]	-999	PAL1	0	R1392N
1641.326	0.619	1641891	ORIENT_END	n/a	-999	-999	n/a	n/a	n/a	n/a	11	[0, 0, 0]	-999	PAL1	0	R1392N
1641.945	0.0	1642510	REC_START	n/a	2	2	SNOW	SWORD	CORD	SNOW	11	[0, 0, 0]	-999	PAL1	0	R1392N
1641.945	0.012	1642510	PROBE_START	n/a	2	2	SNOW	SWORD	CORD	SNOW	11	[0, 0, 0]	-999	PAL1	0	R1392N
1641.957	3.289	1642522	REC_EVENT	5944	3	1	DOOR	<>	PARK	DOOR	11	[0, 0, 0]	-999	PAL1	0	R1392N
1645.246	0.445	1645811	REC_EVENT	3301	2	2	SNOW	SNOW	CORD	SNOW	11	[0, 0, 0]	-999	PAL1	0	R1392N
1645.691	0.285	1646256	REC_EVENT	3746	2	2	SNOW	SWORD	CORD	SNOW	11	[0, 0, 0]	-999	PAL1	0	R1392N
1645.976	1.0	1646541	PROBE_END	n/a	2	2	SNOW	n/a	CORD	SNOW	11	[0, 0, 0]	-999	PAL1	0	R1392N
1646.976	0.01	1647541	REC_END	n/a	2	2	SNOW	n/a	CORD	SNOW	11	[0, 0, 0]	-999	PAL1	0	R1392N
1646.986	0.274	1647551	ORIENT_START	n/a	-999	-999	n/a	n/a	n/a	n/a	11	[0, 0, 0]	-999	PAL1	0	R1392N
1647.26	0.71	1647825	ORIENT_END	n/a	-999	-999	n/a	n/a	n/a	n/a	11	[0, 0, 0]	-999	PAL1	0	R1392N
1647.97	0.0	1648535	PROBE_START	n/a	5	3	GEESE	n/a	GEESE	FARM	11	[0, 0, 0]	-999	PAL1	0	R1392N
1647.97	4.024	1648535	REC_START	n/a	5	3	GEESE	n/a	GEESE	FARM	11	[0, 0, 0]	-999	PAL1	0	R1392N
1651.994	1.0	1652559	PROBE_END	n/a	5	3	GEESE	n/a	GEESE	FARM	11	[0, 0, 0]	-999	PAL1	0	R1392N
1652.994	0.012	1653559	REC_END	n/a	5	3	GEESE	n/a	GEESE	FARM	11	[0, 0, 0]	-999	PAL1	0	R1392N
1653.006	0.272	1653571	ORIENT_START	n/a	-999	-999	n/a	n/a	n/a	n/a	11	[0, 0, 0]	-999	PAL1	0	R1392N
1653.278	0.557	1653843	ORIENT_END	n/a	-999	-999	n/a	n/a	n/a	n/a	11	[0, 0, 0]	-999	PAL1	0	R1392N
1653.835	0.001	1654400	REC_START	n/a	4	4	BAT	n/a	BAT	RAT	11	[0, 0, 0]	-999	PAL1	0	R1392N
1653.836	0.107	1654401	PROBE_START	n/a	4	4	BAT	n/a	BAT	RAT	11	[0, 0, 0]	-999	PAL1	0	R1392N
1653.943	3.918	1654508	REC_EVENT	5973	5	3	GEESE	<>	GEESE	FARM	11	[0, 0, 0]	-999	PAL1	0	R1392N
1657.861	1.001	1658426	PROBE_END	n/a	4	4	BAT	n/a	BAT	RAT	11	[0, 0, 0]	-999	PAL1	0	R1392N
1658.862	0.011	1659427	REC_END	n/a	4	4	BAT	n/a	BAT	RAT	11	[0, 0, 0]	-999	PAL1	0	R1392N
1658.873	0.256	1659438	ORIENT_START	n/a	-999	-999	n/a	n/a	n/a	n/a	11	[0, 0, 0]	-999	PAL1	0	R1392N
1659.129	0.516	1659694	ORIENT_END	n/a	-999	-999	n/a	n/a	n/a	n/a	11	[0, 0, 0]	-999	PAL1	0	R1392N
1659.645	0.0	1660210	REC_START	n/a	1	5	SCHOOL	FOOD	FOOD	SCHOOL	11	[0, 0, 0]	-999	PAL1	0	R1392N
1659.645	0.036	1660210	PROBE_START	n/a	1	5	SCHOOL	FOOD	FOOD	SCHOOL	11	[0, 0, 0]	-999	PAL1	0	R1392N
1659.681	3.219	1660246	REC_EVENT	5845	4	4	BAT	<>	BAT	RAT	11	[0, 0, 0]	-999	PAL1	0	R1392N
1662.9	0.778	1663465	REC_EVENT	3255	1	5	SCHOOL	SCHOOL	FOOD	SCHOOL	11	[0, 0, 0]	-999	PAL1	0	R1392N
1663.678	0.247	1664243	PROBE_END	n/a	1	5	SCHOOL	n/a	FOOD	SCHOOL	11	[0, 0, 0]	-999	PAL1	0	R1392N
1663.925	0.753	1664490	REC_EVENT	4280	1	5	SCHOOL	FOOD	FOOD	SCHOOL	11	[0, 0, 0]	-999	PAL1	0	R1392N
1664.678	0.011	1665243	REC_END	n/a	1	5	SCHOOL	n/a	FOOD	SCHOOL	11	[0, 0, 0]	-999	PAL1	0	R1392N
1664.689	0.274	1665254	ORIENT_START	n/a	-999	-999	n/a	n/a	n/a	n/a	11	[0, 0, 0]	-999	PAL1	0	R1392N
1664.963	0.622	1665528	ORIENT_END	n/a	-999	-999	n/a	n/a	n/a	n/a	11	[0, 0, 0]	-999	PAL1	0	R1392N
1665.585	0.0	1666150	REC_START	n/a	6	6	RICE	GROUND	RICE	CROW	11	[0, 0, 0]	-999	PAL1	0	R1392N
1665.585	1.532	1666150	PROBE_START	n/a	6	6	RICE	GROUND	RICE	CROW	11	[0, 0, 0]	-999	PAL1	0	R1392N
1667.117	0.744	1667681	REC_EVENT	1532	6	6	RICE	RICE	RICE	CROW	11	[0, 0, 0]	-999	PAL1	0	R1392N
1667.861	1.752	1668425	REC_EVENT	2276	6	6	RICE	GROUND	RICE	CROW	11	[0, 0, 0]	-999	PAL1	0	R1392N
1669.613	1.001	1670177	PROBE_END	n/a	6	6	RICE	n/a	RICE	CROW	11	[0, 0, 0]	-999	PAL1	0	R1392N
1670.614	0.01	1671178	REC_END	n/a	6	6	RICE	n/a	RICE	CROW	11	[0, 0, 0]	-999	PAL1	0	R1392N
1670.624	0.0	1671188	RETRIEVAL_END	n/a	-999	-999	n/a	n/a	n/a	n/a	11	[0, 0, 0]	-999	PAL1	0	R1392N
1670.624	0.02	1671188	TRIAL_END	n/a	-999	-999	n/a	n/a	n/a	n/a	11	[0, 0, 0]	-999	PAL1	0	R1392N
1670.644	0.0	1671208	TRIAL_START	n/a	-999	-999	n/a	n/a	n/a	n/a	11	[0, 0, 0]	-999	PAL1	0	R1392N
1670.644	0.0	1671208	TRIAL	n/a	-999	-999	n/a	n/a	n/a	n/a	12	[0, 0, 0]	-999	PAL1	0	R1392N
1670.644	3.421	1671208	WAITING_START	n/a	-999	-999	n/a	n/a	n/a	n/a	12	[0, 0, 0]	-999	PAL1	0	R1392N
1674.065	0.0	1674629	WAITING_END	n/a	-999	-999	n/a	n/a	n/a	n/a	12	[0, 0, 0]	-999	PAL1	0	R1392N
1674.065	10.43	1674629	COUNTDOWN_START	n/a	-999	-999	n/a	n/a	n/a	n/a	12	[0, 0, 0]	-999	PAL1	0	R1392N
1684.495	0.0	1685059	COUNTDOWN_END	n/a	-999	-999	n/a	n/a	n/a	n/a	12	[0, 0, 0]	-999	PAL1	0	R1392N
1684.495	0.538	1685059	ORIENT_START	n/a	-999	-999	n/a	n/a	n/a	n/a	12	[0, 0, 0]	-999	PAL1	0	R1392N
1685.033	0.0	1685597	ENCODING_START	n/a	-999	-999	n/a	n/a	n/a	n/a	12	[0, 0, 0]	-999	PAL1	0	R1392N
1685.033	1.205	1685597	ORIENT_END	n/a	-999	-999	n/a	n/a	n/a	n/a	12	[0, 0, 0]	-999	PAL1	0	R1392N
1686.238	4.029	1686802	STUDY_PAIR	n/a	1	1	n/a	CANE	BROOM	CANE	12	[0, 0, 0]	-999	PAL1	0	R1392N
1690.267	0.527	1690831	STUDY_PAIR_OFF	n/a	1	1	n/a	CANE	BROOM	CANE	12	[0, 0, 0]	-999	PAL1	0	R1392N
1690.794	4.023	1691358	STUDY_PAIR	n/a	2	6	n/a	CAT	CAR	CAT	12	[0, 0, 0]	-999	PAL1	0	R1392N
1694.817	0.751	1695381	STUDY_PAIR_OFF	n/a	2	6	n/a	CAT	CAR	CAT	12	[0, 0, 0]	-999	PAL1	0	R1392N
1695.568	4.033	1696132	STUDY_PAIR	n/a	3	5	n/a	PASTE	TOOL	PASTE	12	[0, 0, 0]	-999	PAL1	0	R1392N
1699.601	0.65	1700164	STUDY_PAIR_OFF	n/a	3	5	n/a	PASTE	TOOL	PASTE	12	[0, 0, 0]	-999	PAL1	0	R1392N
1700.251	4.035	1700814	STUDY_PAIR	n/a	4	4	n/a	n/a	HILL	OWL	12	[0, 0, 0]	-999	PAL1	0	R1392N
1704.286	0.619	1704849	STUDY_PAIR_OFF	n/a	4	4	n/a	n/a	HILL	OWL	12	[0, 0, 0]	-999	PAL1	0	R1392N
1704.905	4.032	1705468	STUDY_PAIR	n/a	5	3	n/a	n/a	FOAM	GATE	12	[0, 0, 0]	-999	PAL1	0	R1392N
1708.937	0.742	1709500	STUDY_PAIR_OFF	n/a	5	3	n/a	n/a	FOAM	GATE	12	[0, 0, 0]	-999	PAL1	0	R1392N
1709.679	4.025	1710242	STUDY_PAIR	n/a	6	2	n/a	HOUSE	PEN	DOLL	12	[0, 0, 0]	-999	PAL1	0	R1392N
1713.704	0.0	1714267	STUDY_PAIR_OFF	n/a	6	2	n/a	HOUSE	PEN	DOLL	12	[0, 0, 0]	-999	PAL1	0	R1392N
1713.704	0.001	1714267	ENCODING_END	n/a	-999	-999	n/a	n/a	n/a	n/a	12	[0, 0, 0]	-999	PAL1	0	R1392N
1713.705	0.0	1714268	MATH_START	n/a	-999	-999	n/a	n/a	n/a	n/a	12	[0, 0, 0]	-999	PAL1	0	R1392N
1713.705	0.015	1714268	START	n/a	-999	-999	n/a	n/a	n/a	n/a	12	[-999, -999, -999]	-999	PAL1	0	R1392N
1713.72	3.717	1714283	PROB	3684	-999	-999	n/a	n/a	n/a	n/a	12	[4, 2, 2]	8	PAL1	0	R1392N
1717.437	2.301	1718000	PROB	2262	-999	-999	n/a	n/a	n/a	n/a	12	[4, 1, 2]	7	PAL1	0	R1392N
1719.738	3.151	1720301	PROB	3122	-999	-999	n/a	n/a	n/a	n/a	12	[4, 6, 7]	17	PAL1	0	R1392N
1722.889	1.983	1723452	PROB	1946	-999	-999	n/a	n/a	n/a	n/a	12	[5, 2, 2]	9	PAL1	0	R1392N
1724.872	2.984	1725435	PROB	2948	-999	-999	n/a	n/a	n/a	n/a	12	[3, 2, 4]	9	PAL1	0	R1392N
1727.856	3.884	1728418	PROB	3851	-999	-999	n/a	n/a	n/a	n/a	12	[7, 4, 7]	18	PAL1	0	R1392N
1731.74	2.216	1732302	PROB	2216	-999	-999	n/a	n/a	n/a	n/a	12	[6, 9, 5]	20	PAL1	0	R1392N
1733.956	0.018	1734518	STOP	n/a	-999	-999	n/a	n/a	n/a	n/a	12	[-999, -999, -999]	-999	PAL1	0	R1392N
1733.974	0.503	1734536	MATH_END	n/a	-999	-999	n/a	n/a	n/a	n/a	12	[0, 0, 0]	-999	PAL1	0	R1392N
1734.477	0.001	1735039	RETRIEVAL_START	n/a	-999	-999	n/a	n/a	n/a	n/a	12	[0, 0, 0]	-999	PAL1	0	R1392N
1734.478	0.279	1735040	ORIENT_START	n/a	-999	-999	n/a	n/a	n/a	n/a	12	[0, 0, 0]	-999	PAL1	0	R1392N
1734.757	0.641	1735319	ORIENT_END	n/a	-999	-999	n/a	n/a	n/a	n/a	12	[0, 0, 0]	-999	PAL1	0	R1392N
1735.398	0.0	1735960	REC_START	n/a	1	1	BROOM	CANE	BROOM	CANE	12	[0, 0, 0]	-999	PAL1	0	R1392N
1735.398	3.298	1735960	PROBE_START	n/a	1	1	BROOM	CANE	BROOM	CANE	12	[0, 0, 0]	-999	PAL1	0	R1392N
1738.696	0.673	1739258	REC_EVENT	3298	1	1	BROOM	ROOM	BROOM	CANE	12	[0, 0, 0]	-999	PAL1	0	R1392N
1739.369	0.055	1739931	REC_EVENT	3971	1	1	BROOM	CANE	BROOM	CANE	12	[0, 0, 0]	-999	PAL1	0	R1392N
1739.424	1.0	1739986	PROBE_END	n/a	1	1	BROOM	n/a	BROOM	CANE	12	[0, 0, 0]	-999	PAL1	0	R1392N
1740.424	0.011	1740986	REC_END	n/a	1	1	BROOM	n/a	BROOM	CANE	12	[0, 0, 0]	-999	PAL1	0	R1392N
1740.435	0.273	1740997	ORIENT_START	n/a	-999	-999	n/a	n/a	n/a	n/a	12	[0, 0, 0]	-999	PAL1	0	R1392N
1740.708	0.621	1741270	ORIENT_END	n/a	-999	-999	n/a	n/a	n/a	n/a	12	[0, 0, 0]	-999	PAL1	0	R1392N
1741.329	0.0	1741891	REC_START	n/a	6	2	DOLL	HOUSE	PEN	DOLL	12	[0, 0, 0]	-999	PAL1	0	R1392N
1741.329	2.505	1741891	PROBE_START	n/a	6	2	DOLL	HOUSE	PEN	DOLL	12	[0, 0, 0]	-999	PAL1	0	R1392N
1743.834	0.366	1744396	REC_EVENT	2505	6	2	DOLL	DOLL	PEN	DOLL	12	[0, 0, 0]	-999	PAL1	0	R1392N
1744.2	1.16	1744762	REC_EVENT	2871	6	2	DOLL	HOUSE	PEN	DOLL	12	[0, 0, 0]	-999	PAL1	0	R1392N
1745.36	1.001	1745922	PROBE_END	n/a	6	2	DOLL	n/a	PEN	DOLL	12	[0, 0, 0]	-999	PAL1	0	R1392N
1746.361	0.011	1746923	REC_END	n/a	6	2	DOLL	n/a	PEN	DOLL	12	[0, 0, 0]	-999	PAL1	0	R1392N
1746.372	0.27	1746934	ORIENT_START	n/a	-999	-999	n/a	n/a	n/a	n/a	12	[0, 0, 0]	-999	PAL1	0	R1392N
1746.642	0.541	1747204	ORIENT_END	n/a	-999	-999	n/a	n/a	n/a	n/a	12	[0, 0, 0]	-999	PAL1	0	R1392N
1747.183	0.0	1747745	PROBE_START	n/a	5	3	FOAM	n/a	FOAM	GATE	12	[0, 0, 0]	-999	PAL1	0	R1392N
1747.183	4.028	1747745	REC_START	n/a	5	3	FOAM	n/a	FOAM	GATE	12	[0, 0, 0]	-999	PAL1	0	R1392N
1751.211	1.001	1751773	PROBE_END	n/a	5	3	FOAM	n/a	FOAM	GATE	12	[0, 0, 0]	-999	PAL1	0	R1392N
1752.212	0.012	1752774	REC_END	n/a	5	3	FOAM	n/a	FOAM	GATE	12	[0, 0, 0]	-999	PAL1	0	R1392N
1752.224	0.269	1752786	ORIENT_START	n/a	-999	-999	n/a	n/a	n/a	n/a	12	[0, 0, 0]	-999	PAL1	0	R1392N
1752.493	0.503	1753055	ORIENT_END	n/a	-999	-999	n/a	n/a	n/a	n/a	12	[0, 0, 0]	-999	PAL1	0	R1392N
1752.996	0.048	1753558	REC_EVENT	5813	5	3	FOAM	<>	FOAM	GATE	12	[0, 0, 0]	-999	PAL1	0	R1392N
1753.044	0.001	1753606	REC_START	n/a	4	4	OWL	n/a	HILL	OWL	12	[0, 0, 0]	-999	PAL1	0	R1392N
1753.045	4.033	1753607	PROBE_START	n/a	4	4	OWL	n/a	HILL	OWL	12	[0, 0, 0]	-999	PAL1	0	R1392N
1757.078	1.002	1757639	PROBE_END	n/a	4	4	OWL	n/a	HILL	OWL	12	[0, 0, 0]	-999	PAL1	0	R1392N
1758.08	0.01	1758641	REC_END	n/a	4	4	OWL	n/a	HILL	OWL	12	[0, 0, 0]	-999	PAL1	0	R1392N
1758.09	0.272	1758651	ORIENT_START	n/a	-999	-999	n/a	n/a	n/a	n/a	12	[0, 0, 0]	-999	PAL1	0	R1392N
1758.362	0.477	1758923	ORIENT_END	n/a	-999	-999	n/a	n/a	n/a	n/a	12	[0, 0, 0]	-999	PAL1	0	R1392N
1758.839	0.051	1759400	REC_EVENT	5794	4	4	OWL	<>	HILL	OWL	12	[0, 0, 0]	-999	PAL1	0	R1392N
1758.89	0.001	1759451	REC_START	n/a	3	5	PASTE	PASTE	TOOL	PASTE	12	[0, 0, 0]	-999	PAL1	0	R1392N
1758.891	3.051	1759452	PROBE_START	n/a	3	5	PASTE	PASTE	TOOL	PASTE	12	[0, 0, 0]	-999	PAL1	0	R1392N
1761.942	0.749	1762503	REC_EVENT	3051	3	5	PASTE	TOOTH	TOOL	PASTE	12	[0, 0, 0]	-999	PAL1	0	R1392N
1762.691	0.238	1763252	REC_EVENT	3800	3	5	PASTE	PASTE	TOOL	PASTE	12	[0, 0, 0]	-999	PAL1	0	R1392N
1762.929	1.0	1763490	PROBE_END	n/a	3	5	PASTE	n/a	TOOL	PASTE	12	[0, 0, 0]	-999	PAL1	0	R1392N
1763.929	0.011	1764490	REC_END	n/a	3	5	PASTE	n/a	TOOL	PASTE	12	[0, 0, 0]	-999	PAL1	0	R1392N
1763.94	0.273	1764501	ORIENT_START	n/a	-999	-999	n/a	n/a	n/a	n/a	12	[0, 0, 0]	-999	PAL1	0	R1392N
1764.213	0.534	1764774	ORIENT_END	n/a	-999	-999	n/a	n/a	n/a	n/a	12	[0, 0, 0]	-999	PAL1	0	R1392N
1764.747	0.0	1765308	PROBE_START	n/a	2	6	CAR	CAT	CAR	CAT	12	[0, 0, 0]	-999	PAL1	0	R1392N
1764.747	1.808	1765308	REC_START	n/a	2	6	CAR	CAT	CAR	CAT	12	[0, 0, 0]	-999	PAL1	0	R1392N
1766.555	0.513	1767116	REC_EVENT	1808	2	6	CAR	CAR	CAR	CAT	12	[0, 0, 0]	-999	PAL1	0	R1392N
1767.068	1.711	1767629	REC_EVENT	2321	2	6	CAR	CAT	CAR	CAT	12	[0, 0, 0]	-999	PAL1	0	R1392N
1768.779	1.0	1769340	PROBE_END	n/a	2	6	CAR	n/a	CAR	CAT	12	[0, 0, 0]	-999	PAL1	0	R1392N
1769.779	0.011	1770340	REC_END	n/a	2	6	CAR	n/a	CAR	CAT	12	[0, 0, 0]	-999	PAL1	0	R1392N
1769.79	0.001	1770351	RETRIEVAL_END	n/a	-999	-999	n/a	n/a	n/a	n/a	12	[0, 0, 0]	-999	PAL1	0	R1392N
1769.791	0.019	1770352	TRIAL_END	n/a	-999	-999	n/a	n/a	n/a	n/a	12	[0, 0, 0]	-999	PAL1	0	R1392N
1769.81	0.0	1770371	TRIAL_START	n/a	-999	-999	n/a	n/a	n/a	n/a	12	[0, 0, 0]	-999	PAL1	0	R1392N
1769.81	0.001	1770371	TRIAL	n/a	-999	-999	n/a	n/a	n/a	n/a	13	[0, 0, 0]	-999	PAL1	0	R1392N
1769.811	2.37	1770372	WAITING_START	n/a	-999	-999	n/a	n/a	n/a	n/a	13	[0, 0, 0]	-999	PAL1	0	R1392N
1772.181	0.001	1772742	WAITING_END	n/a	-999	-999	n/a	n/a	n/a	n/a	13	[0, 0, 0]	-999	PAL1	0	R1392N
1772.182	10.429	1772743	COUNTDOWN_START	n/a	-999	-999	n/a	n/a	n/a	n/a	13	[0, 0, 0]	-999	PAL1	0	R1392N
1782.611	0.001	1783172	COUNTDOWN_END	n/a	-999	-999	n/a	n/a	n/a	n/a	13	[0, 0, 0]	-999	PAL1	0	R1392N
1782.612	0.538	1783173	ORIENT_START	n/a	-999	-999	n/a	n/a	n/a	n/a	13	[0, 0, 0]	-999	PAL1	0	R1392N
1783.15	0.0	1783711	ENCODING_START	n/a	-999	-999	n/a	n/a	n/a	n/a	13	[0, 0, 0]	-999	PAL1	0	R1392N
1783.15	1.089	1783711	ORIENT_END	n/a	-999	-999	n/a	n/a	n/a	n/a	13	[0, 0, 0]	-999	PAL1	0	R1392N
1784.239	4.028	1784800	STUDY_PAIR	n/a	1	5	n/a	n/a	TOOTH	CAGE	13	[0, 0, 0]	-999	PAL1	0	R1392N
1788.267	0.56	1788827	STUDY_PAIR_OFF	n/a	1	5	n/a	n/a	TOOTH	CAGE	13	[0, 0, 0]	-999	PAL1	0	R1392N
1788.827	4.023	1789387	STUDY_PAIR	n/a	2	2	n/a	n/a	FACE	TIE	13	[0, 0, 0]	-999	PAL1	0	R1392N
1792.85	0.635	1793410	STUDY_PAIR_OFF	n/a	2	2	n/a	n/a	FACE	TIE	13	[0, 0, 0]	-999	PAL1	0	R1392N
1793.485	4.032	1794045	STUDY_PAIR	n/a	3	1	n/a	AIR	BREAD	PLANE	13	[0, 0, 0]	-999	PAL1	0	R1392N
1797.517	0.635	1798077	STUDY_PAIR_OFF	n/a	3	1	n/a	AIR	BREAD	PLANE	13	[0, 0, 0]	-999	PAL1	0	R1392N
1798.152	4.034	1798712	STUDY_PAIR	n/a	4	6	n/a	TIE	PIPE	FRUIT	13	[0, 0, 0]	-999	PAL1	0	R1392N
1802.186	0.584	1802746	STUDY_PAIR_OFF	n/a	4	6	n/a	TIE	PIPE	FRUIT	13	[0, 0, 0]	-999	PAL1	0	R1392N
1802.77	4.032	1803330	STUDY_PAIR	n/a	5	3	n/a	n/a	BRICK	GUARD	13	[0, 0, 0]	-999	PAL1	0	R1392N
1806.802	0.737	1807362	STUDY_PAIR_OFF	n/a	5	3	n/a	n/a	BRICK	GUARD	13	[0, 0, 0]	-999	PAL1	0	R1392N
1807.539	4.031	1808099	STUDY_PAIR	n/a	6	4	n/a	n/a	PHONE	CLIFF	13	[0, 0, 0]	-999	PAL1	0	R1392N
1811.57	0.0	1812130	MATH_START	n/a	-999	-999	n/a	n/a	n/a	n/a	13	[0, 0, 0]	-999	PAL1	0	R1392N
1811.57	0.0	1812130	STUDY_PAIR_OFF	n/a	6	4	n/a	n/a	PHONE	CLIFF	13	[0, 0, 0]	-999	PAL1	0	R1392N
1811.57	0.001	1812130	ENCODING_END	n/a	-999	-999	n/a	n/a	n/a	n/a	13	[0, 0, 0]	-999	PAL1	0	R1392N
