onset	duration	sample	trial_type	response_time	stim_file	serialpos	probepos	probe_word	resp_word	study_1	study_2	list	test	answer	experiment	session	subject
0.0	0.0	22040	INSTRUCT_VIDEO_ON	n/a	n/a	-999	-999	n/a	n/a	n/a	n/a	-999	[0, 0, 0]	-999	PAL1	1	R1284N
0.0	5.642	22040	INSTRUCT_VIDEO_OFF	n/a	n/a	-999	-999	n/a	n/a	n/a	n/a	-999	[0, 0, 0]	-999	PAL1	1	R1284N
5.642	0.0	27682	SESS_START	n/a	n/a	-999	-999	n/a	n/a	n/a	n/a	-999	[0, 0, 0]	-999	PAL1	1	R1284N
5.642	148.561	27682	MIC_TEST	n/a	n/a	-999	-999	n/a	n/a	n/a	n/a	-999	[0, 0, 0]	-999	PAL1	1	R1284N
154.203	13.28	176242	PRACTICE_TRIAL	n/a	n/a	-999	-999	n/a	n/a	n/a	n/a	-1	[0, 0, 0]	-999	PAL1	1	R1284N
167.483	0.002	189522	ENCODING_START	n/a	n/a	-999	-999	n/a	n/a	n/a	n/a	-1	[0, 0, 0]	-999	PAL1	1	R1284N
167.485	0.251	189524	PRACTICE_ORIENT	n/a	n/a	1	1	IRON	n/a	CHEST	IRON	-1	[0, 0, 0]	-999	PAL1	1	R1284N
167.736	0.681	189775	PRACTICE_ORIENT_OFF	n/a	n/a	1	1	IRON	n/a	CHEST	IRON	-1	[0, 0, 0]	-999	PAL1	1	R1284N
168.417	4.0	190456	PRACTICE_PAIR	n/a	n/a	1	1	IRON	n/a	CHEST	IRON	-1	[0, 0, 0]	-999	PAL1	1	R1284N
172.418	1.003	194457	PRACTICE_PAIR_OFF	n/a	n/a	1	1	IRON	n/a	CHEST	IRON	-1	[0, 0, 0]	-999	PAL1	1	R1284N
173.421	0.251	195460	PRACTICE_ORIENT	n/a	n/a	2	2	WATCH	n/a	RHINO	WATCH	-1	[0, 0, 0]	-999	PAL1	1	R1284N
173.672	0.717	195711	PRACTICE_ORIENT_OFF	n/a	n/a	2	2	WATCH	n/a	RHINO	WATCH	-1	[0, 0, 0]	-999	PAL1	1	R1284N
174.389	4.0	196428	PRACTICE_PAIR	n/a	n/a	2	2	WATCH	n/a	RHINO	WATCH	-1	[0, 0, 0]	-999	PAL1	1	R1284N
178.391	1.002	200430	PRACTICE_PAIR_OFF	n/a	n/a	2	2	WATCH	n/a	RHINO	WATCH	-1	[0, 0, 0]	-999	PAL1	1	R1284N
179.393	0.252	201432	PRACTICE_ORIENT	n/a	n/a	3	5	BEAM	FLAG	BEAM	WAGON	-1	[0, 0, 0]	-999	PAL1	1	R1284N
179.645	0.525	201684	PRACTICE_ORIENT_OFF	n/a	n/a	3	5	BEAM	FLAG	BEAM	WAGON	-1	[0, 0, 0]	-999	PAL1	1	R1284N
180.17	4.0	202209	PRACTICE_PAIR	n/a	n/a	3	5	BEAM	FLAG	BEAM	WAGON	-1	[0, 0, 0]	-999	PAL1	1	R1284N
184.171	1.003	206210	PRACTICE_PAIR_OFF	n/a	n/a	3	5	BEAM	FLAG	BEAM	WAGON	-1	[0, 0, 0]	-999	PAL1	1	R1284N
185.174	0.251	207213	PRACTICE_ORIENT	n/a	n/a	4	4	FLOOD	n/a	FLOOD	CAMEL	-1	[0, 0, 0]	-999	PAL1	1	R1284N
185.425	0.506	207464	PRACTICE_ORIENT_OFF	n/a	n/a	4	4	FLOOD	n/a	FLOOD	CAMEL	-1	[0, 0, 0]	-999	PAL1	1	R1284N
185.931	4.0	207970	PRACTICE_PAIR	n/a	n/a	4	4	FLOOD	n/a	FLOOD	CAMEL	-1	[0, 0, 0]	-999	PAL1	1	R1284N
189.933	1.003	211972	PRACTICE_PAIR_OFF	n/a	n/a	4	4	FLOOD	n/a	FLOOD	CAMEL	-1	[0, 0, 0]	-999	PAL1	1	R1284N
190.936	0.251	212975	PRACTICE_ORIENT	n/a	n/a	5	3	TONGUE	n/a	TONGUE	ATTIC	-1	[0, 0, 0]	-999	PAL1	1	R1284N
191.187	0.661	213226	PRACTICE_ORIENT_OFF	n/a	n/a	5	3	TONGUE	n/a	TONGUE	ATTIC	-1	[0, 0, 0]	-999	PAL1	1	R1284N
191.848	4.0	213887	PRACTICE_PAIR	n/a	n/a	5	3	TONGUE	n/a	TONGUE	ATTIC	-1	[0, 0, 0]	-999	PAL1	1	R1284N
195.85	1.003	217889	PRACTICE_PAIR_OFF	n/a	n/a	5	3	TONGUE	n/a	TONGUE	ATTIC	-1	[0, 0, 0]	-999	PAL1	1	R1284N
196.853	0.251	218892	PRACTICE_ORIENT	n/a	n/a	6	6	RING	n/a	COTTON	RING	-1	[0, 0, 0]	-999	PAL1	1	R1284N
197.104	0.557	219143	PRACTICE_ORIENT_OFF	n/a	n/a	6	6	RING	n/a	COTTON	RING	-1	[0, 0, 0]	-999	PAL1	1	R1284N
197.661	4.0	219700	PRACTICE_PAIR	n/a	n/a	6	6	RING	n/a	COTTON	RING	-1	[0, 0, 0]	-999	PAL1	1	R1284N
201.662	1.0	223701	PRACTICE_PAIR_OFF	n/a	n/a	6	6	RING	n/a	COTTON	RING	-1	[0, 0, 0]	-999	PAL1	1	R1284N
202.662	0.0	224701	ENCODING_END	n/a	n/a	-999	-999	n/a	n/a	n/a	n/a	-1	[0, 0, 0]	-999	PAL1	1	R1284N
202.662	0.0	224701	MATH_START	n/a	n/a	-999	-999	n/a	n/a	n/a	n/a	-1	[0, 0, 0]	-999	PAL1	1	R1284N
202.662	0.007	224701	START	n/a	n/a	-999	-999	n/a	n/a	n/a	n/a	-1	[-999, -999, -999]	-999	PAL1	1	R1284N
202.669	5.201	224708	PROB	5.191	n/a	-999	-999	n/a	n/a	n/a	n/a	-1	[4, 6, 4]	14	PAL1	1	R1284N
207.87	8.616	229909	PROB	8.608	n/a	-999	-999	n/a	n/a	n/a	n/a	-1	[9, 8, 3]	20	PAL1	1	R1284N
216.486	6.759	238525	PROB	6.759	n/a	-999	-999	n/a	n/a	n/a	n/a	-1	[4, 2, 3]	9	PAL1	1	R1284N
223.245	0.003	245284	STOP	n/a	n/a	-999	-999	n/a	n/a	n/a	n/a	-1	[-999, -999, -999]	-999	PAL1	1	R1284N
223.248	0.001	245287	MATH_END	n/a	n/a	-999	-999	n/a	n/a	n/a	n/a	-1	[0, 0, 0]	-999	PAL1	1	R1284N
223.249	0.002	245288	RECALL_START	n/a	n/a	-999	-999	n/a	n/a	n/a	n/a	-1	[0, 0, 0]	-999	PAL1	1	R1284N
223.251	0.251	245290	PRACTICE_RETRIEVAL_ORIENT	n/a	n/a	1	1	IRON	n/a	CHEST	IRON	-1	[0, 0, 0]	-999	PAL1	1	R1284N
223.502	0.531	245541	PRACTICE_RETRIEVAL_ORIENT_OFF	n/a	n/a	1	1	IRON	n/a	CHEST	IRON	-1	[0, 0, 0]	-999	PAL1	1	R1284N
224.033	4.0	246072	PRACTICE_PROBE	n/a	n/a	1	1	IRON	n/a	CHEST	IRON	-1	[0, 0, 0]	-999	PAL1	1	R1284N
224.034	1.053	246073	REC_START	n/a	n/a	1	-999	n/a	n/a	n/a	n/a	-1	[0, 0, 0]	-999	PAL1	1	R1284N
225.087	2.947	247125	REC_EVENT	1.053	n/a	1	1	IRON	<>	CHEST	IRON	-1	[0, 0, 0]	-999	PAL1	1	R1284N
228.034	1.001	250072	PROBE_OFF	n/a	n/a	1	-999	n/a	n/a	n/a	n/a	-1	[0, 0, 0]	-999	PAL1	1	R1284N
229.035	0.012	251073	REC_END	n/a	n/a	1	-999	n/a	n/a	n/a	n/a	-1	[0, 0, 0]	-999	PAL1	1	R1284N
229.047	0.251	251085	PRACTICE_RETRIEVAL_ORIENT	n/a	n/a	2	2	WATCH	n/a	RHINO	WATCH	-1	[0, 0, 0]	-999	PAL1	1	R1284N
229.298	0.508	251336	PRACTICE_RETRIEVAL_ORIENT_OFF	n/a	n/a	2	2	WATCH	n/a	RHINO	WATCH	-1	[0, 0, 0]	-999	PAL1	1	R1284N
229.806	0.0	251844	REC_START	n/a	n/a	2	-999	n/a	n/a	n/a	n/a	-1	[0, 0, 0]	-999	PAL1	1	R1284N
229.806	4.0	251844	PRACTICE_PROBE	n/a	n/a	2	2	WATCH	n/a	RHINO	WATCH	-1	[0, 0, 0]	-999	PAL1	1	R1284N
232.821	0.996	254859	REC_EVENT	3.015	n/a	2	2	WATCH	<>	RHINO	WATCH	-1	[0, 0, 0]	-999	PAL1	1	R1284N
233.817	1.0	255855	PROBE_OFF	n/a	n/a	2	-999	n/a	n/a	n/a	n/a	-1	[0, 0, 0]	-999	PAL1	1	R1284N
234.817	0.007	256855	REC_END	n/a	n/a	2	-999	n/a	n/a	n/a	n/a	-1	[0, 0, 0]	-999	PAL1	1	R1284N
234.824	0.251	256862	PRACTICE_RETRIEVAL_ORIENT	n/a	n/a	5	3	TONGUE	n/a	TONGUE	ATTIC	-1	[0, 0, 0]	-999	PAL1	1	R1284N
235.075	0.626	257113	PRACTICE_RETRIEVAL_ORIENT_OFF	n/a	n/a	5	3	TONGUE	n/a	TONGUE	ATTIC	-1	[0, 0, 0]	-999	PAL1	1	R1284N
235.701	4.0	257739	PRACTICE_PROBE	n/a	n/a	5	3	TONGUE	n/a	TONGUE	ATTIC	-1	[0, 0, 0]	-999	PAL1	1	R1284N
235.702	4.001	257740	REC_START	n/a	n/a	5	-999	n/a	n/a	n/a	n/a	-1	[0, 0, 0]	-999	PAL1	1	R1284N
239.703	0.228	261741	PROBE_OFF	n/a	n/a	5	-999	n/a	n/a	n/a	n/a	-1	[0, 0, 0]	-999	PAL1	1	R1284N
239.931	0.782	261969	REC_EVENT	4.229	n/a	5	3	TONGUE	<>	TONGUE	ATTIC	-1	[0, 0, 0]	-999	PAL1	1	R1284N
240.713	0.006	262751	REC_END	n/a	n/a	5	-999	n/a	n/a	n/a	n/a	-1	[0, 0, 0]	-999	PAL1	1	R1284N
240.719	0.251	262757	PRACTICE_RETRIEVAL_ORIENT	n/a	n/a	4	4	FLOOD	n/a	FLOOD	CAMEL	-1	[0, 0, 0]	-999	PAL1	1	R1284N
240.97	0.684	263008	PRACTICE_RETRIEVAL_ORIENT_OFF	n/a	n/a	4	4	FLOOD	n/a	FLOOD	CAMEL	-1	[0, 0, 0]	-999	PAL1	1	R1284N
241.654	4.0	263692	PRACTICE_PROBE	n/a	n/a	4	4	FLOOD	n/a	FLOOD	CAMEL	-1	[0, 0, 0]	-999	PAL1	1	R1284N
241.655	2.202	263693	REC_START	n/a	n/a	4	-999	n/a	n/a	n/a	n/a	-1	[0, 0, 0]	-999	PAL1	1	R1284N
243.857	1.798	265895	REC_EVENT	2.202	n/a	4	4	FLOOD	<>	FLOOD	CAMEL	-1	[0, 0, 0]	-999	PAL1	1	R1284N
245.655	1.0	267693	PROBE_OFF	n/a	n/a	4	-999	n/a	n/a	n/a	n/a	-1	[0, 0, 0]	-999	PAL1	1	R1284N
246.655	0.013	268693	REC_END	n/a	n/a	4	-999	n/a	n/a	n/a	n/a	-1	[0, 0, 0]	-999	PAL1	1	R1284N
246.668	0.251	268706	PRACTICE_RETRIEVAL_ORIENT	n/a	n/a	3	5	BEAM	FLAG	BEAM	WAGON	-1	[0, 0, 0]	-999	PAL1	1	R1284N
246.919	0.609	268957	PRACTICE_RETRIEVAL_ORIENT_OFF	n/a	n/a	3	5	BEAM	FLAG	BEAM	WAGON	-1	[0, 0, 0]	-999	PAL1	1	R1284N
247.528	4.0	269566	PRACTICE_PROBE	n/a	n/a	3	5	BEAM	FLAG	BEAM	WAGON	-1	[0, 0, 0]	-999	PAL1	1	R1284N
247.528	2.539	269566	REC_START	n/a	n/a	3	-999	n/a	FLAG	n/a	n/a	-1	[0, 0, 0]	-999	PAL1	1	R1284N
250.067	1.463	272105	REC_EVENT	2.539	n/a	3	5	BEAM	FLAG	BEAM	WAGON	-1	[0, 0, 0]	-999	PAL1	1	R1284N
251.53	1.0	273568	PROBE_OFF	n/a	n/a	3	-999	n/a	n/a	n/a	n/a	-1	[0, 0, 0]	-999	PAL1	1	R1284N
252.53	0.012	274568	REC_END	n/a	n/a	3	-999	n/a	n/a	n/a	n/a	-1	[0, 0, 0]	-999	PAL1	1	R1284N
252.542	0.251	274580	PRACTICE_RETRIEVAL_ORIENT	n/a	n/a	6	6	RING	n/a	COTTON	RING	-1	[0, 0, 0]	-999	PAL1	1	R1284N
252.793	0.682	274831	PRACTICE_RETRIEVAL_ORIENT_OFF	n/a	n/a	2	6	RING	n/a	COTTON	RING	-1	[0, 0, 0]	-999	PAL1	1	R1284N
253.475	4.0	275513	PRACTICE_PROBE	n/a	n/a	6	6	RING	n/a	COTTON	RING	-1	[0, 0, 0]	-999	PAL1	1	R1284N
253.475	4.002	275513	REC_START	n/a	n/a	6	-999	n/a	n/a	n/a	n/a	-1	[0, 0, 0]	-999	PAL1	1	R1284N
257.477	0.996	279515	PROBE_OFF	n/a	n/a	6	-999	n/a	n/a	n/a	n/a	-1	[0, 0, 0]	-999	PAL1	1	R1284N
258.473	0.004	280511	REC_EVENT	4.998	n/a	6	6	RING	<>	COTTON	RING	-1	[0, 0, 0]	-999	PAL1	1	R1284N
258.477	0.01	280515	REC_END	n/a	n/a	6	-999	n/a	n/a	n/a	n/a	-1	[0, 0, 0]	-999	PAL1	1	R1284N
258.487	13.224	280525	RECALL_END	n/a	n/a	-999	-999	n/a	n/a	n/a	n/a	-1	[0, 0, 0]	-999	PAL1	1	R1284N
271.711	10.929	293749	TRIAL	n/a	n/a	-999	-999	n/a	n/a	n/a	n/a	1	[0, 0, 0]	-999	PAL1	1	R1284N
282.64	0.002	304678	ENCODING_START	n/a	n/a	-999	-999	n/a	n/a	n/a	n/a	1	[0, 0, 0]	-999	PAL1	1	R1284N
282.642	0.251	304680	STUDY_ORIENT	n/a	n/a	1	3	SUIT	GRASS	SUIT	GRASS	1	[0, 0, 0]	-999	PAL1	1	R1284N
282.893	0.704	304931	STUDY_ORIENT_OFF	n/a	n/a	1	3	SUIT	GRASS	SUIT	GRASS	1	[0, 0, 0]	-999	PAL1	1	R1284N
283.597	4.0	305635	STUDY_PAIR	n/a	wordpools/wordpool_EN.txt	1	3	SUIT	GRASS	SUIT	GRASS	1	[0, 0, 0]	-999	PAL1	1	R1284N
287.598	1.002	309636	PAIR_OFF	n/a	n/a	1	3	SUIT	GRASS	SUIT	GRASS	1	[0, 0, 0]	-999	PAL1	1	R1284N
288.6	0.251	310638	STUDY_ORIENT	n/a	n/a	2	4	EAR	TRUCK	TRUCK	EAR	1	[0, 0, 0]	-999	PAL1	1	R1284N
288.851	0.755	310889	STUDY_ORIENT_OFF	n/a	n/a	2	4	EAR	TRUCK	TRUCK	EAR	1	[0, 0, 0]	-999	PAL1	1	R1284N
289.606	4.0	311644	STUDY_PAIR	n/a	wordpools/wordpool_EN.txt	2	4	EAR	TRUCK	TRUCK	EAR	1	[0, 0, 0]	-999	PAL1	1	R1284N
293.607	1.002	315645	PAIR_OFF	n/a	n/a	2	4	EAR	TRUCK	TRUCK	EAR	1	[0, 0, 0]	-999	PAL1	1	R1284N
294.609	0.251	316647	STUDY_ORIENT	n/a	n/a	3	1	SLEEVE	LEG	SLEEVE	LEG	1	[0, 0, 0]	-999	PAL1	1	R1284N
294.86	0.576	316898	STUDY_ORIENT_OFF	n/a	n/a	3	1	SLEEVE	LEG	SLEEVE	LEG	1	[0, 0, 0]	-999	PAL1	1	R1284N
295.436	4.0	317474	STUDY_PAIR	n/a	wordpools/wordpool_EN.txt	3	1	SLEEVE	LEG	SLEEVE	LEG	1	[0, 0, 0]	-999	PAL1	1	R1284N
299.438	1.002	321476	PAIR_OFF	n/a	n/a	3	1	SLEEVE	LEG	SLEEVE	LEG	1	[0, 0, 0]	-999	PAL1	1	R1284N
300.44	0.251	322478	STUDY_ORIENT	n/a	n/a	4	2	WEED	n/a	MILK	WEED	1	[0, 0, 0]	-999	PAL1	1	R1284N
300.691	0.631	322729	STUDY_ORIENT_OFF	n/a	n/a	4	2	WEED	n/a	MILK	WEED	1	[0, 0, 0]	-999	PAL1	1	R1284N
301.322	4.0	323360	STUDY_PAIR	n/a	wordpools/wordpool_EN.txt	4	2	WEED	n/a	MILK	WEED	1	[0, 0, 0]	-999	PAL1	1	R1284N
305.324	1.002	327362	PAIR_OFF	n/a	n/a	4	2	WEED	n/a	MILK	WEED	1	[0, 0, 0]	-999	PAL1	1	R1284N
306.326	0.252	328364	STUDY_ORIENT	n/a	n/a	5	5	GOAT	PEA	PEA	GOAT	1	[0, 0, 0]	-999	PAL1	1	R1284N
306.578	0.643	328616	STUDY_ORIENT_OFF	n/a	n/a	5	5	GOAT	PEA	PEA	GOAT	1	[0, 0, 0]	-999	PAL1	1	R1284N
307.221	4.0	329259	STUDY_PAIR	n/a	wordpools/wordpool_EN.txt	5	5	GOAT	PEA	PEA	GOAT	1	[0, 0, 0]	-999	PAL1	1	R1284N
311.222	1.002	333260	PAIR_OFF	n/a	n/a	5	5	GOAT	PEA	PEA	GOAT	1	[0, 0, 0]	-999	PAL1	1	R1284N
312.224	0.251	334262	STUDY_ORIENT	n/a	n/a	6	6	WOOD	SLEEVE	WOOD	CROWN	1	[0, 0, 0]	-999	PAL1	1	R1284N
312.475	0.75	334513	STUDY_ORIENT_OFF	n/a	n/a	6	6	WOOD	SLEEVE	WOOD	CROWN	1	[0, 0, 0]	-999	PAL1	1	R1284N
313.225	4.0	335263	STUDY_PAIR	n/a	wordpools/wordpool_EN.txt	6	6	WOOD	SLEEVE	WOOD	CROWN	1	[0, 0, 0]	-999	PAL1	1	R1284N
317.226	1.0	339264	PAIR_OFF	n/a	n/a	6	6	WOOD	SLEEVE	WOOD	CROWN	1	[0, 0, 0]	-999	PAL1	1	R1284N
318.226	0.0	340264	MATH_START	n/a	n/a	-999	-999	n/a	n/a	n/a	n/a	1	[0, 0, 0]	-999	PAL1	1	R1284N
318.226	0.0	340264	ENCODING_END	n/a	n/a	-999	-999	n/a	n/a	n/a	n/a	1	[0, 0, 0]	-999	PAL1	1	R1284N
318.226	0.007	340264	START	n/a	n/a	-999	-999	n/a	n/a	n/a	n/a	1	[-999, -999, -999]	-999	PAL1	1	R1284N
318.233	7.185	340271	PROB	7.176	n/a	-999	-999	n/a	n/a	n/a	n/a	1	[7, 1, 9]	17	PAL1	1	R1284N
325.418	4.486	347456	PROB	4.477	n/a	-999	-999	n/a	n/a	n/a	n/a	1	[5, 5, 7]	17	PAL1	1	R1284N
329.904	5.033	351942	PROB	5.024	n/a	-999	-999	n/a	n/a	n/a	n/a	1	[7, 3, 8]	18	PAL1	1	R1284N
334.937	4.392	356975	PROB	4.392	n/a	-999	-999	n/a	n/a	n/a	n/a	1	[6, 3, 7]	16	PAL1	1	R1284N
339.329	0.004	361367	STOP	n/a	n/a	-999	-999	n/a	n/a	n/a	n/a	1	[-999, -999, -999]	-999	PAL1	1	R1284N
339.333	0.0	361371	MATH_END	n/a	n/a	-999	-999	n/a	n/a	n/a	n/a	1	[0, 0, 0]	-999	PAL1	1	R1284N
339.333	0.003	361371	RECALL_START	n/a	n/a	-999	-999	n/a	n/a	n/a	n/a	1	[0, 0, 0]	-999	PAL1	1	R1284N
339.336	0.251	361374	TEST_ORIENT	n/a	n/a	3	1	SLEEVE	LEG	SLEEVE	LEG	1	[0, 0, 0]	-999	PAL1	1	R1284N
339.587	0.673	361625	RETRIEVAL_ORIENT_OFF	n/a	n/a	-999	-999	n/a	n/a	n/a	n/a	1	[0, 0, 0]	-999	PAL1	1	R1284N
340.26	4.0	362298	TEST_PROBE	n/a	wordpools/wordpool_EN.txt	3	1	SLEEVE	LEG	SLEEVE	LEG	1	[0, 0, 0]	-999	PAL1	1	R1284N
340.261	1.54	362299	REC_START	n/a	n/a	3	-999	n/a	LEG	n/a	n/a	1	[0, 0, 0]	-999	PAL1	1	R1284N
341.801	2.46	363839	REC_EVENT	1.54	n/a	3	1	SLEEVE	LEG	SLEEVE	LEG	1	[0, 0, 0]	-999	PAL1	1	R1284N
344.261	1.0	366299	PROBE_OFF	n/a	n/a	3	-999	n/a	n/a	n/a	n/a	1	[0, 0, 0]	-999	PAL1	1	R1284N
345.261	0.012	367299	REC_END	n/a	n/a	3	-999	n/a	n/a	n/a	n/a	1	[0, 0, 0]	-999	PAL1	1	R1284N
345.273	0.251	367311	TEST_ORIENT	n/a	n/a	4	2	WEED	n/a	MILK	WEED	1	[0, 0, 0]	-999	PAL1	1	R1284N
345.524	0.523	367562	RETRIEVAL_ORIENT_OFF	n/a	n/a	3	-999	n/a	n/a	n/a	n/a	1	[0, 0, 0]	-999	PAL1	1	R1284N
346.047	0.0	368085	REC_START	n/a	n/a	4	-999	n/a	n/a	n/a	n/a	1	[0, 0, 0]	-999	PAL1	1	R1284N
346.047	4.0	368085	TEST_PROBE	n/a	wordpools/wordpool_EN.txt	4	2	WEED	n/a	MILK	WEED	1	[0, 0, 0]	-999	PAL1	1	R1284N
350.057	0.999	372095	PROBE_OFF	n/a	n/a	4	-999	n/a	n/a	n/a	n/a	1	[0, 0, 0]	-999	PAL1	1	R1284N
351.056	0.001	373094	REC_EVENT	5.009	n/a	4	2	WEED	<>	MILK	WEED	1	[0, 0, 0]	-999	PAL1	1	R1284N
351.057	0.006	373095	REC_END	n/a	n/a	4	-999	n/a	n/a	n/a	n/a	1	[0, 0, 0]	-999	PAL1	1	R1284N
351.063	0.251	373101	TEST_ORIENT	n/a	n/a	1	3	SUIT	GRASS	SUIT	GRASS	1	[0, 0, 0]	-999	PAL1	1	R1284N
351.314	0.613	373352	RETRIEVAL_ORIENT_OFF	n/a	n/a	4	-999	n/a	n/a	n/a	n/a	1	[0, 0, 0]	-999	PAL1	1	R1284N
351.927	4.0	373965	TEST_PROBE	n/a	wordpools/wordpool_EN.txt	1	3	SUIT	GRASS	SUIT	GRASS	1	[0, 0, 0]	-999	PAL1	1	R1284N
351.927	1.106	373965	REC_START	n/a	n/a	1	-999	n/a	GRASS	n/a	n/a	1	[0, 0, 0]	-999	PAL1	1	R1284N
353.033	2.904	375071	REC_EVENT	1.106	n/a	1	3	SUIT	GRASS	SUIT	GRASS	1	[0, 0, 0]	-999	PAL1	1	R1284N
355.937	1.0	377975	PROBE_OFF	n/a	n/a	1	-999	n/a	n/a	n/a	n/a	1	[0, 0, 0]	-999	PAL1	1	R1284N
356.937	0.007	378975	REC_END	n/a	n/a	1	-999	n/a	n/a	n/a	n/a	1	[0, 0, 0]	-999	PAL1	1	R1284N
356.944	0.251	378982	TEST_ORIENT	n/a	n/a	2	4	EAR	TRUCK	TRUCK	EAR	1	[0, 0, 0]	-999	PAL1	1	R1284N
357.195	0.653	379233	RETRIEVAL_ORIENT_OFF	n/a	n/a	1	-999	n/a	n/a	n/a	n/a	1	[0, 0, 0]	-999	PAL1	1	R1284N
357.848	4.0	379886	TEST_PROBE	n/a	wordpools/wordpool_EN.txt	2	4	EAR	TRUCK	TRUCK	EAR	1	[0, 0, 0]	-999	PAL1	1	R1284N
357.849	0.782	379887	REC_START	n/a	n/a	2	-999	n/a	TRUCK	n/a	n/a	1	[0, 0, 0]	-999	PAL1	1	R1284N
358.631	3.218	380669	REC_EVENT	0.782	n/a	2	4	EAR	TRUCK	TRUCK	EAR	1	[0, 0, 0]	-999	PAL1	1	R1284N
361.849	1.0	383887	PROBE_OFF	n/a	n/a	2	-999	n/a	n/a	n/a	n/a	1	[0, 0, 0]	-999	PAL1	1	R1284N
362.849	0.011	384887	REC_END	n/a	n/a	2	-999	n/a	n/a	n/a	n/a	1	[0, 0, 0]	-999	PAL1	1	R1284N
362.86	0.251	384898	TEST_ORIENT	n/a	n/a	5	5	GOAT	PEA	PEA	GOAT	1	[0, 0, 0]	-999	PAL1	1	R1284N
363.111	0.623	385149	RETRIEVAL_ORIENT_OFF	n/a	n/a	2	-999	n/a	n/a	n/a	n/a	1	[0, 0, 0]	-999	PAL1	1	R1284N
363.734	4.0	385772	TEST_PROBE	n/a	wordpools/wordpool_EN.txt	5	5	GOAT	PEA	PEA	GOAT	1	[0, 0, 0]	-999	PAL1	1	R1284N
363.734	1.459	385772	REC_START	n/a	n/a	5	-999	n/a	PEA	n/a	n/a	1	[0, 0, 0]	-999	PAL1	1	R1284N
365.193	2.542	387231	REC_EVENT	1.459	n/a	5	5	GOAT	PEA	PEA	GOAT	1	[0, 0, 0]	-999	PAL1	1	R1284N
367.735	1.0	389773	PROBE_OFF	n/a	n/a	5	-999	n/a	n/a	n/a	n/a	1	[0, 0, 0]	-999	PAL1	1	R1284N
368.735	0.012	390773	REC_END	n/a	n/a	5	-999	n/a	n/a	n/a	n/a	1	[0, 0, 0]	-999	PAL1	1	R1284N
368.747	0.252	390785	TEST_ORIENT	n/a	n/a	6	6	WOOD	SLEEVE	WOOD	CROWN	1	[0, 0, 0]	-999	PAL1	1	R1284N
368.999	0.698	391037	RETRIEVAL_ORIENT_OFF	n/a	n/a	5	-999	n/a	n/a	n/a	n/a	1	[0, 0, 0]	-999	PAL1	1	R1284N
369.697	4.0	391735	TEST_PROBE	n/a	wordpools/wordpool_EN.txt	6	6	WOOD	SLEEVE	WOOD	CROWN	1	[0, 0, 0]	-999	PAL1	1	R1284N
369.698	4.001	391736	REC_START	n/a	n/a	6	-999	n/a	SLEEVE	n/a	n/a	1	[0, 0, 0]	-999	PAL1	1	R1284N
373.699	0.175	395737	PROBE_OFF	n/a	n/a	6	-999	n/a	n/a	n/a	n/a	1	[0, 0, 0]	-999	PAL1	1	R1284N
373.874	0.834	395912	REC_EVENT	4.176	n/a	6	6	WOOD	SLEEVE	WOOD	CROWN	1	[0, 0, 0]	-999	PAL1	1	R1284N
374.708	0.004	396746	REC_END	n/a	n/a	6	-999	n/a	n/a	n/a	n/a	1	[0, 0, 0]	-999	PAL1	1	R1284N
374.712	4.483	396750	RECALL_END	n/a	n/a	-999	-999	n/a	n/a	n/a	n/a	1	[0, 0, 0]	-999	PAL1	1	R1284N
379.195	10.928	401232	TRIAL	n/a	n/a	-999	-999	n/a	n/a	n/a	n/a	2	[0, 0, 0]	-999	PAL1	1	R1284N
390.123	0.003	412160	ENCODING_START	n/a	n/a	-999	-999	n/a	n/a	n/a	n/a	2	[0, 0, 0]	-999	PAL1	1	R1284N
390.126	0.251	412163	STUDY_ORIENT	n/a	n/a	1	5	BOWL	n/a	TRAIN	BOWL	2	[0, 0, 0]	-999	PAL1	1	R1284N
390.377	0.53	412414	STUDY_ORIENT_OFF	n/a	n/a	1	5	BOWL	n/a	TRAIN	BOWL	2	[0, 0, 0]	-999	PAL1	1	R1284N
390.907	4.0	412944	STUDY_PAIR	n/a	wordpools/wordpool_EN.txt	1	5	BOWL	n/a	TRAIN	BOWL	2	[0, 0, 0]	-999	PAL1	1	R1284N
394.909	1.002	416946	PAIR_OFF	n/a	n/a	1	5	BOWL	n/a	TRAIN	BOWL	2	[0, 0, 0]	-999	PAL1	1	R1284N
395.911	0.251	417948	STUDY_ORIENT	n/a	n/a	2	4	RAIN	BOWL	RAIN	CUP	2	[0, 0, 0]	-999	PAL1	1	R1284N
396.162	0.635	418199	STUDY_ORIENT_OFF	n/a	n/a	2	4	RAIN	BOWL	RAIN	CUP	2	[0, 0, 0]	-999	PAL1	1	R1284N
396.797	4.0	418834	STUDY_PAIR	n/a	wordpools/wordpool_EN.txt	2	4	RAIN	BOWL	RAIN	CUP	2	[0, 0, 0]	-999	PAL1	1	R1284N
400.798	1.002	422835	PAIR_OFF	n/a	n/a	2	4	RAIN	BOWL	RAIN	CUP	2	[0, 0, 0]	-999	PAL1	1	R1284N
401.8	0.251	423837	STUDY_ORIENT	n/a	n/a	3	1	BEAR	n/a	WAND	BEAR	2	[0, 0, 0]	-999	PAL1	1	R1284N
402.051	0.711	424088	STUDY_ORIENT_OFF	n/a	n/a	3	1	BEAR	n/a	WAND	BEAR	2	[0, 0, 0]	-999	PAL1	1	R1284N
402.762	4.0	424799	STUDY_PAIR	n/a	wordpools/wordpool_EN.txt	3	1	BEAR	n/a	WAND	BEAR	2	[0, 0, 0]	-999	PAL1	1	R1284N
406.763	1.002	428800	PAIR_OFF	n/a	n/a	3	1	BEAR	n/a	WAND	BEAR	2	[0, 0, 0]	-999	PAL1	1	R1284N
407.765	0.252	429802	STUDY_ORIENT	n/a	n/a	4	6	NET	n/a	NET	FRUIT	2	[0, 0, 0]	-999	PAL1	1	R1284N
408.017	0.665	430054	STUDY_ORIENT_OFF	n/a	n/a	4	6	NET	n/a	NET	FRUIT	2	[0, 0, 0]	-999	PAL1	1	R1284N
408.682	4.0	430719	STUDY_PAIR	n/a	wordpools/wordpool_EN.txt	4	6	NET	n/a	NET	FRUIT	2	[0, 0, 0]	-999	PAL1	1	R1284N
412.683	1.003	434720	PAIR_OFF	n/a	n/a	4	6	NET	n/a	NET	FRUIT	2	[0, 0, 0]	-999	PAL1	1	R1284N
413.686	0.251	435723	STUDY_ORIENT	n/a	n/a	5	3	SOAP	n/a	SOAP	CORD	2	[0, 0, 0]	-999	PAL1	1	R1284N
413.937	0.729	435974	STUDY_ORIENT_OFF	n/a	n/a	5	3	SOAP	n/a	SOAP	CORD	2	[0, 0, 0]	-999	PAL1	1	R1284N
414.666	4.0	436703	STUDY_PAIR	n/a	wordpools/wordpool_EN.txt	5	3	SOAP	n/a	SOAP	CORD	2	[0, 0, 0]	-999	PAL1	1	R1284N
418.668	1.003	440705	PAIR_OFF	n/a	n/a	5	3	SOAP	n/a	SOAP	CORD	2	[0, 0, 0]	-999	PAL1	1	R1284N
419.671	0.251	441708	STUDY_ORIENT	n/a	n/a	6	2	EEL	CUP	EEL	CAT	2	[0, 0, 0]	-999	PAL1	1	R1284N
419.922	0.727	441959	STUDY_ORIENT_OFF	n/a	n/a	6	2	EEL	CUP	EEL	CAT	2	[0, 0, 0]	-999	PAL1	1	R1284N
420.649	4.0	442686	STUDY_PAIR	n/a	wordpools/wordpool_EN.txt	6	2	EEL	CUP	EEL	CAT	2	[0, 0, 0]	-999	PAL1	1	R1284N
424.651	1.001	446688	PAIR_OFF	n/a	n/a	6	2	EEL	CUP	EEL	CAT	2	[0, 0, 0]	-999	PAL1	1	R1284N
425.652	0.0	447689	ENCODING_END	n/a	n/a	-999	-999	n/a	n/a	n/a	n/a	2	[0, 0, 0]	-999	PAL1	1	R1284N
425.652	0.0	447689	MATH_START	n/a	n/a	-999	-999	n/a	n/a	n/a	n/a	2	[0, 0, 0]	-999	PAL1	1	R1284N
425.652	0.007	447689	START	n/a	n/a	-999	-999	n/a	n/a	n/a	n/a	2	[-999, -999, -999]	-999	PAL1	1	R1284N
425.659	5.163	447696	PROB	5.154	n/a	-999	-999	n/a	n/a	n/a	n/a	2	[6, 6, 2]	14	PAL1	1	R1284N
430.822	5.431	452859	PROB	5.423	n/a	-999	-999	n/a	n/a	n/a	n/a	2	[6, 2, 8]	16	PAL1	1	R1284N
436.253	5.992	458290	PROB	5.984	n/a	-999	-999	n/a	n/a	n/a	n/a	2	[7, 9, 9]	25	PAL1	1	R1284N
442.245	4.527	464282	PROB	4.527	n/a	-999	-999	n/a	n/a	n/a	n/a	2	[1, 4, 2]	7	PAL1	1	R1284N
446.772	0.004	468809	STOP	n/a	n/a	-999	-999	n/a	n/a	n/a	n/a	2	[-999, -999, -999]	-999	PAL1	1	R1284N
446.776	0.0	468813	RECALL_START	n/a	n/a	-999	-999	n/a	n/a	n/a	n/a	2	[0, 0, 0]	-999	PAL1	1	R1284N
446.776	0.003	468813	MATH_END	n/a	n/a	-999	-999	n/a	n/a	n/a	n/a	2	[0, 0, 0]	-999	PAL1	1	R1284N
446.779	0.252	468816	TEST_ORIENT	n/a	n/a	3	1	BEAR	n/a	WAND	BEAR	2	[0, 0, 0]	-999	PAL1	1	R1284N
447.031	0.635	469068	RETRIEVAL_ORIENT_OFF	n/a	n/a	-999	-999	n/a	n/a	n/a	n/a	2	[0, 0, 0]	-999	PAL1	1	R1284N
447.666	4.0	469703	TEST_PROBE	n/a	wordpools/wordpool_EN.txt	3	1	BEAR	n/a	WAND	BEAR	2	[0, 0, 0]	-999	PAL1	1	R1284N
447.666	4.011	469703	REC_START	n/a	n/a	3	-999	n/a	n/a	n/a	n/a	2	[0, 0, 0]	-999	PAL1	1	R1284N
451.677	0.998	473714	PROBE_OFF	n/a	n/a	3	-999	n/a	n/a	n/a	n/a	2	[0, 0, 0]	-999	PAL1	1	R1284N
452.675	0.002	474712	REC_EVENT	5.009	n/a	3	1	BEAR	<>	WAND	BEAR	2	[0, 0, 0]	-999	PAL1	1	R1284N
452.677	0.006	474714	REC_END	n/a	n/a	3	-999	n/a	n/a	n/a	n/a	2	[0, 0, 0]	-999	PAL1	1	R1284N
452.683	0.251	474720	TEST_ORIENT	n/a	n/a	6	2	EEL	CUP	EEL	CAT	2	[0, 0, 0]	-999	PAL1	1	R1284N
452.934	0.577	474971	RETRIEVAL_ORIENT_OFF	n/a	n/a	3	-999	n/a	n/a	n/a	n/a	2	[0, 0, 0]	-999	PAL1	1	R1284N
453.511	4.0	475548	TEST_PROBE	n/a	wordpools/wordpool_EN.txt	6	2	EEL	CUP	EEL	CAT	2	[0, 0, 0]	-999	PAL1	1	R1284N
453.512	1.887	475549	REC_START	n/a	n/a	6	-999	n/a	CUP	n/a	n/a	2	[0, 0, 0]	-999	PAL1	1	R1284N
455.399	2.112	477436	REC_EVENT	1.887	n/a	6	2	EEL	CUP	EEL	CAT	2	[0, 0, 0]	-999	PAL1	1	R1284N
457.511	1.0	479548	PROBE_OFF	n/a	n/a	6	-999	n/a	n/a	n/a	n/a	2	[0, 0, 0]	-999	PAL1	1	R1284N
458.511	0.012	480548	REC_END	n/a	n/a	6	-999	n/a	n/a	n/a	n/a	2	[0, 0, 0]	-999	PAL1	1	R1284N
458.523	0.251	480560	TEST_ORIENT	n/a	n/a	5	3	SOAP	n/a	SOAP	CORD	2	[0, 0, 0]	-999	PAL1	1	R1284N
458.774	0.596	480811	RETRIEVAL_ORIENT_OFF	n/a	n/a	6	-999	n/a	n/a	n/a	n/a	2	[0, 0, 0]	-999	PAL1	1	R1284N
459.37	4.0	481407	TEST_PROBE	n/a	wordpools/wordpool_EN.txt	5	3	SOAP	n/a	SOAP	CORD	2	[0, 0, 0]	-999	PAL1	1	R1284N
459.37	1.468	481407	REC_START	n/a	n/a	5	-999	n/a	n/a	n/a	n/a	2	[0, 0, 0]	-999	PAL1	1	R1284N
460.838	2.533	482875	REC_EVENT	1.468	n/a	5	3	SOAP	<>	SOAP	CORD	2	[0, 0, 0]	-999	PAL1	1	R1284N
463.371	1.0	485408	PROBE_OFF	n/a	n/a	5	-999	n/a	n/a	n/a	n/a	2	[0, 0, 0]	-999	PAL1	1	R1284N
464.371	0.011	486408	REC_END	n/a	n/a	5	-999	n/a	n/a	n/a	n/a	2	[0, 0, 0]	-999	PAL1	1	R1284N
464.382	0.251	486419	TEST_ORIENT	n/a	n/a	2	4	RAIN	BOWL	RAIN	CUP	2	[0, 0, 0]	-999	PAL1	1	R1284N
464.633	0.629	486670	RETRIEVAL_ORIENT_OFF	n/a	n/a	5	-999	n/a	n/a	n/a	n/a	2	[0, 0, 0]	-999	PAL1	1	R1284N
465.262	4.0	487299	TEST_PROBE	n/a	wordpools/wordpool_EN.txt	2	4	RAIN	BOWL	RAIN	CUP	2	[0, 0, 0]	-999	PAL1	1	R1284N
465.263	1.362	487300	REC_START	n/a	n/a	2	-999	n/a	BOWL	n/a	n/a	2	[0, 0, 0]	-999	PAL1	1	R1284N
466.625	0.529	488662	REC_EVENT	1.362	n/a	2	4	RAIN	RAIN	RAIN	CUP	2	[0, 0, 0]	-999	PAL1	1	R1284N
467.154	2.109	489191	REC_EVENT	1.891	n/a	2	4	RAIN	BOWL	RAIN	CUP	2	[0, 0, 0]	-999	PAL1	1	R1284N
469.263	1.0	491300	PROBE_OFF	n/a	n/a	2	-999	n/a	n/a	n/a	n/a	2	[0, 0, 0]	-999	PAL1	1	R1284N
470.263	0.013	492300	REC_END	n/a	n/a	2	-999	n/a	n/a	n/a	n/a	2	[0, 0, 0]	-999	PAL1	1	R1284N
470.276	0.251	492313	TEST_ORIENT	n/a	n/a	1	5	BOWL	n/a	TRAIN	BOWL	2	[0, 0, 0]	-999	PAL1	1	R1284N
470.527	0.53	492564	RETRIEVAL_ORIENT_OFF	n/a	n/a	2	-999	n/a	n/a	n/a	n/a	2	[0, 0, 0]	-999	PAL1	1	R1284N
471.057	4.0	493094	TEST_PROBE	n/a	wordpools/wordpool_EN.txt	1	5	BOWL	n/a	TRAIN	BOWL	2	[0, 0, 0]	-999	PAL1	1	R1284N
471.057	4.009	493094	REC_START	n/a	n/a	1	-999	n/a	n/a	n/a	n/a	2	[0, 0, 0]	-999	PAL1	1	R1284N
475.066	1.0	497103	PROBE_OFF	n/a	n/a	1	-999	n/a	n/a	n/a	n/a	2	[0, 0, 0]	-999	PAL1	1	R1284N
476.066	0.001	498103	REC_EVENT	5.009	n/a	1	5	BOWL	<>	TRAIN	BOWL	2	[0, 0, 0]	-999	PAL1	1	R1284N
476.067	0.006	498104	REC_END	n/a	n/a	1	-999	n/a	n/a	n/a	n/a	2	[0, 0, 0]	-999	PAL1	1	R1284N
476.073	0.252	498110	TEST_ORIENT	n/a	n/a	4	6	NET	n/a	NET	FRUIT	2	[0, 0, 0]	-999	PAL1	1	R1284N
476.325	0.66	498362	RETRIEVAL_ORIENT_OFF	n/a	n/a	1	-999	n/a	n/a	n/a	n/a	2	[0, 0, 0]	-999	PAL1	1	R1284N
476.985	4.0	499022	TEST_PROBE	n/a	wordpools/wordpool_EN.txt	4	6	NET	n/a	NET	FRUIT	2	[0, 0, 0]	-999	PAL1	1	R1284N
476.985	4.01	499022	REC_START	n/a	n/a	4	-999	n/a	n/a	n/a	n/a	2	[0, 0, 0]	-999	PAL1	1	R1284N
480.995	0.999	503032	PROBE_OFF	n/a	n/a	4	-999	n/a	n/a	n/a	n/a	2	[0, 0, 0]	-999	PAL1	1	R1284N
481.994	0.001	504031	REC_EVENT	5.009	n/a	4	6	NET	<>	NET	FRUIT	2	[0, 0, 0]	-999	PAL1	1	R1284N
481.995	0.003	504032	REC_END	n/a	n/a	4	-999	n/a	n/a	n/a	n/a	2	[0, 0, 0]	-999	PAL1	1	R1284N
481.998	4.505	504035	RECALL_END	n/a	n/a	-999	-999	n/a	n/a	n/a	n/a	2	[0, 0, 0]	-999	PAL1	1	R1284N
486.503	10.929	508540	TRIAL	n/a	n/a	-999	-999	n/a	n/a	n/a	n/a	3	[0, 0, 0]	-999	PAL1	1	R1284N
497.432	0.002	519469	ENCODING_START	n/a	n/a	-999	-999	n/a	n/a	n/a	n/a	3	[0, 0, 0]	-999	PAL1	1	R1284N
497.434	0.251	519471	STUDY_ORIENT	n/a	n/a	1	5	TENT	n/a	BOMB	TENT	3	[0, 0, 0]	-999	PAL1	1	R1284N
497.685	0.574	519722	STUDY_ORIENT_OFF	n/a	n/a	1	5	TENT	n/a	BOMB	TENT	3	[0, 0, 0]	-999	PAL1	1	R1284N
498.259	4.0	520296	STUDY_PAIR	n/a	wordpools/wordpool_EN.txt	1	5	TENT	n/a	BOMB	TENT	3	[0, 0, 0]	-999	PAL1	1	R1284N
502.26	1.002	524297	PAIR_OFF	n/a	n/a	1	5	TENT	n/a	BOMB	TENT	3	[0, 0, 0]	-999	PAL1	1	R1284N
503.262	0.251	525299	STUDY_ORIENT	n/a	n/a	2	2	TOOTH	n/a	TOOTH	PHONE	3	[0, 0, 0]	-999	PAL1	1	R1284N
503.513	0.67	525550	STUDY_ORIENT_OFF	n/a	n/a	2	2	TOOTH	n/a	TOOTH	PHONE	3	[0, 0, 0]	-999	PAL1	1	R1284N
504.183	4.0	526220	STUDY_PAIR	n/a	wordpools/wordpool_EN.txt	2	2	TOOTH	n/a	TOOTH	PHONE	3	[0, 0, 0]	-999	PAL1	1	R1284N
508.184	1.002	530221	PAIR_OFF	n/a	n/a	2	2	TOOTH	n/a	TOOTH	PHONE	3	[0, 0, 0]	-999	PAL1	1	R1284N
509.186	0.252	531223	STUDY_ORIENT	n/a	n/a	3	3	JAIL	JET	JET	JAIL	3	[0, 0, 0]	-999	PAL1	1	R1284N
509.438	0.728	531475	STUDY_ORIENT_OFF	n/a	n/a	3	3	JAIL	JET	JET	JAIL	3	[0, 0, 0]	-999	PAL1	1	R1284N
510.166	4.0	532203	STUDY_PAIR	n/a	wordpools/wordpool_EN.txt	3	3	JAIL	JET	JET	JAIL	3	[0, 0, 0]	-999	PAL1	1	R1284N
514.168	1.002	536205	PAIR_OFF	n/a	n/a	3	3	JAIL	JET	JET	JAIL	3	[0, 0, 0]	-999	PAL1	1	R1284N
515.17	0.251	537207	STUDY_ORIENT	n/a	n/a	4	6	STAIR	n/a	SWAMP	STAIR	3	[0, 0, 0]	-999	PAL1	1	R1284N
515.421	0.709	537458	STUDY_ORIENT_OFF	n/a	n/a	4	6	STAIR	n/a	SWAMP	STAIR	3	[0, 0, 0]	-999	PAL1	1	R1284N
516.13	4.0	538167	STUDY_PAIR	n/a	wordpools/wordpool_EN.txt	4	6	STAIR	n/a	SWAMP	STAIR	3	[0, 0, 0]	-999	PAL1	1	R1284N
520.131	1.003	542168	PAIR_OFF	n/a	n/a	4	6	STAIR	n/a	SWAMP	STAIR	3	[0, 0, 0]	-999	PAL1	1	R1284N
521.134	0.251	543171	STUDY_ORIENT	n/a	n/a	5	1	DRESS	n/a	TOY	DRESS	3	[0, 0, 0]	-999	PAL1	1	R1284N
521.385	0.658	543422	STUDY_ORIENT_OFF	n/a	n/a	5	1	DRESS	n/a	TOY	DRESS	3	[0, 0, 0]	-999	PAL1	1	R1284N
522.043	4.0	544080	STUDY_PAIR	n/a	wordpools/wordpool_EN.txt	5	1	DRESS	n/a	TOY	DRESS	3	[0, 0, 0]	-999	PAL1	1	R1284N
526.044	1.002	548080	PAIR_OFF	n/a	n/a	5	1	DRESS	n/a	TOY	DRESS	3	[0, 0, 0]	-999	PAL1	1	R1284N
527.046	0.251	549082	STUDY_ORIENT	n/a	n/a	6	4	STORM	n/a	STORM	FLAG	3	[0, 0, 0]	-999	PAL1	1	R1284N
527.297	0.62	549333	STUDY_ORIENT_OFF	n/a	n/a	6	4	STORM	n/a	STORM	FLAG	3	[0, 0, 0]	-999	PAL1	1	R1284N
527.917	4.0	549953	STUDY_PAIR	n/a	wordpools/wordpool_EN.txt	6	4	STORM	n/a	STORM	FLAG	3	[0, 0, 0]	-999	PAL1	1	R1284N
531.918	1.0	553954	PAIR_OFF	n/a	n/a	6	4	STORM	n/a	STORM	FLAG	3	[0, 0, 0]	-999	PAL1	1	R1284N
532.918	0.0	554954	ENCODING_END	n/a	n/a	-999	-999	n/a	n/a	n/a	n/a	3	[0, 0, 0]	-999	PAL1	1	R1284N
532.918	0.001	554954	MATH_START	n/a	n/a	-999	-999	n/a	n/a	n/a	n/a	3	[0, 0, 0]	-999	PAL1	1	R1284N
532.919	0.007	554955	START	n/a	n/a	-999	-999	n/a	n/a	n/a	n/a	3	[-999, -999, -999]	-999	PAL1	1	R1284N
532.926	8.092	554962	PROB	8.082	n/a	-999	-999	n/a	n/a	n/a	n/a	3	[9, 7, 3]	19	PAL1	1	R1284N
541.018	4.591	563054	PROB	4.582	n/a	-999	-999	n/a	n/a	n/a	n/a	3	[5, 5, 1]	11	PAL1	1	R1284N
545.609	3.976	567645	PROB	3.967	n/a	-999	-999	n/a	n/a	n/a	n/a	3	[3, 1, 3]	7	PAL1	1	R1284N
549.585	11.327	571621	PROB	11.327	n/a	-999	-999	n/a	n/a	n/a	n/a	3	[4, 9, 6]	19	PAL1	1	R1284N
560.912	0.004	582948	STOP	n/a	n/a	-999	-999	n/a	n/a	n/a	n/a	3	[-999, -999, -999]	-999	PAL1	1	R1284N
560.916	0.0	582952	RECALL_START	n/a	n/a	-999	-999	n/a	n/a	n/a	n/a	3	[0, 0, 0]	-999	PAL1	1	R1284N
560.916	0.003	582952	MATH_END	n/a	n/a	-999	-999	n/a	n/a	n/a	n/a	3	[0, 0, 0]	-999	PAL1	1	R1284N
560.919	0.251	582955	TEST_ORIENT	n/a	n/a	5	1	DRESS	n/a	TOY	DRESS	3	[0, 0, 0]	-999	PAL1	1	R1284N
561.17	0.607	583206	RETRIEVAL_ORIENT_OFF	n/a	n/a	-999	-999	n/a	n/a	n/a	n/a	3	[0, 0, 0]	-999	PAL1	1	R1284N
561.777	4.0	583813	TEST_PROBE	n/a	wordpools/wordpool_EN.txt	5	1	DRESS	n/a	TOY	DRESS	3	[0, 0, 0]	-999	PAL1	1	R1284N
561.778	1.731	583814	REC_START	n/a	n/a	5	-999	n/a	n/a	n/a	n/a	3	[0, 0, 0]	-999	PAL1	1	R1284N
563.509	0.473	585545	REC_EVENT	1.731	n/a	5	1	DRESS	<>	TOY	DRESS	3	[0, 0, 0]	-999	PAL1	1	R1284N
563.982	1.796	586018	REC_EVENT	2.204	n/a	5	1	DRESS	<>	TOY	DRESS	3	[0, 0, 0]	-999	PAL1	1	R1284N
565.778	1.001	587814	PROBE_OFF	n/a	n/a	5	-999	n/a	n/a	n/a	n/a	3	[0, 0, 0]	-999	PAL1	1	R1284N
566.779	0.013	588815	REC_END	n/a	n/a	5	-999	n/a	n/a	n/a	n/a	3	[0, 0, 0]	-999	PAL1	1	R1284N
566.792	0.251	588828	TEST_ORIENT	n/a	n/a	2	2	TOOTH	n/a	TOOTH	PHONE	3	[0, 0, 0]	-999	PAL1	1	R1284N
567.043	0.663	589079	RETRIEVAL_ORIENT_OFF	n/a	n/a	5	-999	n/a	n/a	n/a	n/a	3	[0, 0, 0]	-999	PAL1	1	R1284N
567.706	4.0	589742	TEST_PROBE	n/a	wordpools/wordpool_EN.txt	2	2	TOOTH	n/a	TOOTH	PHONE	3	[0, 0, 0]	-999	PAL1	1	R1284N
567.707	4.0	589743	REC_START	n/a	n/a	2	-999	n/a	n/a	n/a	n/a	3	[0, 0, 0]	-999	PAL1	1	R1284N
571.707	1.0	593743	PROBE_OFF	n/a	n/a	2	-999	n/a	n/a	n/a	n/a	3	[0, 0, 0]	-999	PAL1	1	R1284N
572.707	0.003	594743	REC_END	n/a	n/a	2	-999	n/a	n/a	n/a	n/a	3	[0, 0, 0]	-999	PAL1	1	R1284N
572.71	0.01	594746	REC_EVENT	5.003	n/a	2	2	TOOTH	<>	TOOTH	PHONE	3	[0, 0, 0]	-999	PAL1	1	R1284N
572.72	0.251	594756	TEST_ORIENT	n/a	n/a	3	3	JAIL	JET	JET	JAIL	3	[0, 0, 0]	-999	PAL1	1	R1284N
572.971	0.533	595007	RETRIEVAL_ORIENT_OFF	n/a	n/a	2	-999	n/a	n/a	n/a	n/a	3	[0, 0, 0]	-999	PAL1	1	R1284N
573.504	4.0	595540	TEST_PROBE	n/a	wordpools/wordpool_EN.txt	3	3	JAIL	JET	JET	JAIL	3	[0, 0, 0]	-999	PAL1	1	R1284N
573.505	1.437	595541	REC_START	n/a	n/a	3	-999	n/a	JET	n/a	n/a	3	[0, 0, 0]	-999	PAL1	1	R1284N
574.942	2.564	596978	REC_EVENT	1.437	n/a	3	3	JAIL	JET	JET	JAIL	3	[0, 0, 0]	-999	PAL1	1	R1284N
577.506	1.0	599542	PROBE_OFF	n/a	n/a	3	-999	n/a	n/a	n/a	n/a	3	[0, 0, 0]	-999	PAL1	1	R1284N
578.506	0.012	600542	REC_END	n/a	n/a	3	-999	n/a	n/a	n/a	n/a	3	[0, 0, 0]	-999	PAL1	1	R1284N
578.518	0.251	600554	TEST_ORIENT	n/a	n/a	6	4	STORM	n/a	STORM	FLAG	3	[0, 0, 0]	-999	PAL1	1	R1284N
578.769	0.687	600805	RETRIEVAL_ORIENT_OFF	n/a	n/a	3	-999	n/a	n/a	n/a	n/a	3	[0, 0, 0]	-999	PAL1	1	R1284N
579.456	4.0	601492	TEST_PROBE	n/a	wordpools/wordpool_EN.txt	6	4	STORM	n/a	STORM	FLAG	3	[0, 0, 0]	-999	PAL1	1	R1284N
579.457	4.0	601493	REC_START	n/a	n/a	6	-999	n/a	n/a	n/a	n/a	3	[0, 0, 0]	-999	PAL1	1	R1284N
583.457	1.0	605493	PROBE_OFF	n/a	n/a	6	-999	n/a	n/a	n/a	n/a	3	[0, 0, 0]	-999	PAL1	1	R1284N
584.457	0.003	606493	REC_END	n/a	n/a	6	-999	n/a	n/a	n/a	n/a	3	[0, 0, 0]	-999	PAL1	1	R1284N
584.46	0.01	606496	REC_EVENT	5.003	n/a	6	4	STORM	<>	STORM	FLAG	3	[0, 0, 0]	-999	PAL1	1	R1284N
584.47	0.252	606506	TEST_ORIENT	n/a	n/a	1	5	TENT	n/a	BOMB	TENT	3	[0, 0, 0]	-999	PAL1	1	R1284N
584.722	0.693	606758	RETRIEVAL_ORIENT_OFF	n/a	n/a	6	-999	n/a	n/a	n/a	n/a	3	[0, 0, 0]	-999	PAL1	1	R1284N
585.415	4.0	607451	TEST_PROBE	n/a	wordpools/wordpool_EN.txt	1	5	TENT	n/a	BOMB	TENT	3	[0, 0, 0]	-999	PAL1	1	R1284N
585.415	4.013	607451	REC_START	n/a	n/a	1	-999	n/a	n/a	n/a	n/a	3	[0, 0, 0]	-999	PAL1	1	R1284N
589.428	0.996	611464	PROBE_OFF	n/a	n/a	1	-999	n/a	n/a	n/a	n/a	3	[0, 0, 0]	-999	PAL1	1	R1284N
590.424	0.005	612460	REC_EVENT	5.009	n/a	1	5	TENT	<>	BOMB	TENT	3	[0, 0, 0]	-999	PAL1	1	R1284N
590.429	0.007	612465	REC_END	n/a	n/a	1	-999	n/a	n/a	n/a	n/a	3	[0, 0, 0]	-999	PAL1	1	R1284N
590.436	0.251	612472	TEST_ORIENT	n/a	n/a	4	6	STAIR	n/a	SWAMP	STAIR	3	[0, 0, 0]	-999	PAL1	1	R1284N
590.687	0.584	612723	RETRIEVAL_ORIENT_OFF	n/a	n/a	1	-999	n/a	n/a	n/a	n/a	3	[0, 0, 0]	-999	PAL1	1	R1284N
591.271	4.0	613307	TEST_PROBE	n/a	wordpools/wordpool_EN.txt	4	6	STAIR	n/a	SWAMP	STAIR	3	[0, 0, 0]	-999	PAL1	1	R1284N
591.271	4.012	613307	REC_START	n/a	n/a	4	-999	n/a	n/a	n/a	n/a	3	[0, 0, 0]	-999	PAL1	1	R1284N
595.283	0.997	617319	PROBE_OFF	n/a	n/a	4	-999	n/a	n/a	n/a	n/a	3	[0, 0, 0]	-999	PAL1	1	R1284N
596.28	0.003	618316	REC_EVENT	5.009	n/a	4	6	STAIR	<>	SWAMP	STAIR	3	[0, 0, 0]	-999	PAL1	1	R1284N
596.283	0.005	618319	REC_END	n/a	n/a	4	-999	n/a	n/a	n/a	n/a	3	[0, 0, 0]	-999	PAL1	1	R1284N
596.288	4.378	618324	RECALL_END	n/a	n/a	-999	-999	n/a	n/a	n/a	n/a	3	[0, 0, 0]	-999	PAL1	1	R1284N
600.666	10.929	622702	TRIAL	n/a	n/a	-999	-999	n/a	n/a	n/a	n/a	4	[0, 0, 0]	-999	PAL1	1	R1284N
611.595	0.002	633631	ENCODING_START	n/a	n/a	-999	-999	n/a	n/a	n/a	n/a	4	[0, 0, 0]	-999	PAL1	1	R1284N
611.597	0.251	633633	STUDY_ORIENT	n/a	n/a	1	3	BATH	DOOR	DOOR	BATH	4	[0, 0, 0]	-999	PAL1	1	R1284N
611.848	0.701	633884	STUDY_ORIENT_OFF	n/a	n/a	1	3	BATH	DOOR	DOOR	BATH	4	[0, 0, 0]	-999	PAL1	1	R1284N
612.549	4.0	634585	STUDY_PAIR	n/a	wordpools/wordpool_EN.txt	1	3	BATH	DOOR	DOOR	BATH	4	[0, 0, 0]	-999	PAL1	1	R1284N
616.55	1.002	638586	PAIR_OFF	n/a	n/a	1	3	BATH	DOOR	DOOR	BATH	4	[0, 0, 0]	-999	PAL1	1	R1284N
617.552	0.251	639588	STUDY_ORIENT	n/a	n/a	2	4	ARM	WORLD	ARM	WORLD	4	[0, 0, 0]	-999	PAL1	1	R1284N
617.803	0.716	639839	STUDY_ORIENT_OFF	n/a	n/a	2	4	ARM	WORLD	ARM	WORLD	4	[0, 0, 0]	-999	PAL1	1	R1284N
618.519	4.0	640555	STUDY_PAIR	n/a	wordpools/wordpool_EN.txt	2	4	ARM	WORLD	ARM	WORLD	4	[0, 0, 0]	-999	PAL1	1	R1284N
622.52	1.003	644556	PAIR_OFF	n/a	n/a	2	4	ARM	WORLD	ARM	WORLD	4	[0, 0, 0]	-999	PAL1	1	R1284N
623.523	0.252	645559	STUDY_ORIENT	n/a	n/a	3	5	CROW	n/a	CROW	LAND	4	[0, 0, 0]	-999	PAL1	1	R1284N
623.775	0.656	645811	STUDY_ORIENT_OFF	n/a	n/a	3	5	CROW	n/a	CROW	LAND	4	[0, 0, 0]	-999	PAL1	1	R1284N
624.431	4.0	646467	STUDY_PAIR	n/a	wordpools/wordpool_EN.txt	3	5	CROW	n/a	CROW	LAND	4	[0, 0, 0]	-999	PAL1	1	R1284N
628.433	1.002	650469	PAIR_OFF	n/a	n/a	3	5	CROW	n/a	CROW	LAND	4	[0, 0, 0]	-999	PAL1	1	R1284N
629.435	0.251	651471	STUDY_ORIENT	n/a	n/a	4	2	HOUSE	n/a	HOUSE	HOLE	4	[0, 0, 0]	-999	PAL1	1	R1284N
629.686	0.643	651722	STUDY_ORIENT_OFF	n/a	n/a	4	2	HOUSE	n/a	HOUSE	HOLE	4	[0, 0, 0]	-999	PAL1	1	R1284N
630.329	4.0	652365	STUDY_PAIR	n/a	wordpools/wordpool_EN.txt	4	2	HOUSE	n/a	HOUSE	HOLE	4	[0, 0, 0]	-999	PAL1	1	R1284N
634.33	1.003	656366	PAIR_OFF	n/a	n/a	4	2	HOUSE	n/a	HOUSE	HOLE	4	[0, 0, 0]	-999	PAL1	1	R1284N
635.333	0.252	657369	STUDY_ORIENT	n/a	n/a	5	1	TIE	n/a	TIE	STEAM	4	[0, 0, 0]	-999	PAL1	1	R1284N
635.585	0.624	657621	STUDY_ORIENT_OFF	n/a	n/a	5	1	TIE	n/a	TIE	STEAM	4	[0, 0, 0]	-999	PAL1	1	R1284N
636.209	4.0	658245	STUDY_PAIR	n/a	wordpools/wordpool_EN.txt	5	1	TIE	n/a	TIE	STEAM	4	[0, 0, 0]	-999	PAL1	1	R1284N
640.211	1.002	662247	PAIR_OFF	n/a	n/a	5	1	TIE	n/a	TIE	STEAM	4	[0, 0, 0]	-999	PAL1	1	R1284N
641.213	0.251	663249	STUDY_ORIENT	n/a	n/a	6	6	BOY	DEER	BOY	DEER	4	[0, 0, 0]	-999	PAL1	1	R1284N
641.464	0.741	663500	STUDY_ORIENT_OFF	n/a	n/a	6	6	BOY	DEER	BOY	DEER	4	[0, 0, 0]	-999	PAL1	1	R1284N
642.205	4.0	664241	STUDY_PAIR	n/a	wordpools/wordpool_EN.txt	6	6	BOY	DEER	BOY	DEER	4	[0, 0, 0]	-999	PAL1	1	R1284N
646.206	1.0	668242	PAIR_OFF	n/a	n/a	6	6	BOY	DEER	BOY	DEER	4	[0, 0, 0]	-999	PAL1	1	R1284N
647.206	0.0	669242	ENCODING_END	n/a	n/a	-999	-999	n/a	n/a	n/a	n/a	4	[0, 0, 0]	-999	PAL1	1	R1284N
647.206	0.0	669242	MATH_START	n/a	n/a	-999	-999	n/a	n/a	n/a	n/a	4	[0, 0, 0]	-999	PAL1	1	R1284N
647.206	0.008	669242	START	n/a	n/a	-999	-999	n/a	n/a	n/a	n/a	4	[-999, -999, -999]	-999	PAL1	1	R1284N
647.214	5.63	669250	PROB	5.622	n/a	-999	-999	n/a	n/a	n/a	n/a	4	[6, 2, 5]	13	PAL1	1	R1284N
652.844	6.992	674880	PROB	6.984	n/a	-999	-999	n/a	n/a	n/a	n/a	4	[6, 9, 6]	21	PAL1	1	R1284N
659.836	10.248	681872	PROB	10.248	n/a	-999	-999	n/a	n/a	n/a	n/a	4	[9, 9, 7]	25	PAL1	1	R1284N
670.084	0.004	692120	STOP	n/a	n/a	-999	-999	n/a	n/a	n/a	n/a	4	[-999, -999, -999]	-999	PAL1	1	R1284N
670.088	0.001	692124	MATH_END	n/a	n/a	-999	-999	n/a	n/a	n/a	n/a	4	[0, 0, 0]	-999	PAL1	1	R1284N
670.089	0.002	692125	RECALL_START	n/a	n/a	-999	-999	n/a	n/a	n/a	n/a	4	[0, 0, 0]	-999	PAL1	1	R1284N
670.091	0.251	692127	TEST_ORIENT	n/a	n/a	5	1	TIE	n/a	TIE	STEAM	4	[0, 0, 0]	-999	PAL1	1	R1284N
670.342	0.734	692378	RETRIEVAL_ORIENT_OFF	n/a	n/a	-999	-999	n/a	n/a	n/a	n/a	4	[0, 0, 0]	-999	PAL1	1	R1284N
671.076	4.0	693112	TEST_PROBE	n/a	wordpools/wordpool_EN.txt	5	1	TIE	n/a	TIE	STEAM	4	[0, 0, 0]	-999	PAL1	1	R1284N
671.077	4.0	693113	REC_START	n/a	n/a	5	-999	n/a	n/a	n/a	n/a	4	[0, 0, 0]	-999	PAL1	1	R1284N
675.077	0.998	697113	PROBE_OFF	n/a	n/a	5	-999	n/a	n/a	n/a	n/a	4	[0, 0, 0]	-999	PAL1	1	R1284N
676.075	0.003	698110	REC_EVENT	4.998	n/a	5	1	TIE	<>	TIE	STEAM	4	[0, 0, 0]	-999	PAL1	1	R1284N
676.078	0.013	698113	REC_END	n/a	n/a	5	-999	n/a	n/a	n/a	n/a	4	[0, 0, 0]	-999	PAL1	1	R1284N
676.091	0.252	698126	TEST_ORIENT	n/a	n/a	4	2	HOUSE	n/a	HOUSE	HOLE	4	[0, 0, 0]	-999	PAL1	1	R1284N
676.343	0.728	698378	RETRIEVAL_ORIENT_OFF	n/a	n/a	5	-999	n/a	n/a	n/a	n/a	4	[0, 0, 0]	-999	PAL1	1	R1284N
677.071	4.0	699106	TEST_PROBE	n/a	wordpools/wordpool_EN.txt	4	2	HOUSE	n/a	HOUSE	HOLE	4	[0, 0, 0]	-999	PAL1	1	R1284N
677.071	4.001	699106	REC_START	n/a	n/a	4	-999	n/a	n/a	n/a	n/a	4	[0, 0, 0]	-999	PAL1	1	R1284N
681.072	1.0	703107	PROBE_OFF	n/a	n/a	4	-999	n/a	n/a	n/a	n/a	4	[0, 0, 0]	-999	PAL1	1	R1284N
682.072	0.002	704107	REC_END	n/a	n/a	4	-999	n/a	n/a	n/a	n/a	4	[0, 0, 0]	-999	PAL1	1	R1284N
682.074	0.011	704109	REC_EVENT	5.003	n/a	4	2	HOUSE	<>	HOUSE	HOLE	4	[0, 0, 0]	-999	PAL1	1	R1284N
682.085	0.252	704120	TEST_ORIENT	n/a	n/a	1	3	BATH	DOOR	DOOR	BATH	4	[0, 0, 0]	-999	PAL1	1	R1284N
682.337	0.6	704372	RETRIEVAL_ORIENT_OFF	n/a	n/a	4	-999	n/a	n/a	n/a	n/a	4	[0, 0, 0]	-999	PAL1	1	R1284N
682.937	4.0	704972	TEST_PROBE	n/a	wordpools/wordpool_EN.txt	1	3	BATH	DOOR	DOOR	BATH	4	[0, 0, 0]	-999	PAL1	1	R1284N
682.937	1.059	704972	REC_START	n/a	n/a	1	-999	n/a	DOOR	n/a	n/a	4	[0, 0, 0]	-999	PAL1	1	R1284N
683.996	2.942	706031	REC_EVENT	1.059	n/a	1	3	BATH	DOOR	DOOR	BATH	4	[0, 0, 0]	-999	PAL1	1	R1284N
686.938	1.0	708973	PROBE_OFF	n/a	n/a	1	-999	n/a	n/a	n/a	n/a	4	[0, 0, 0]	-999	PAL1	1	R1284N
687.938	0.014	709973	REC_END	n/a	n/a	1	-999	n/a	n/a	n/a	n/a	4	[0, 0, 0]	-999	PAL1	1	R1284N
687.952	0.251	709987	TEST_ORIENT	n/a	n/a	2	4	ARM	WORLD	ARM	WORLD	4	[0, 0, 0]	-999	PAL1	1	R1284N
688.203	0.589	710238	RETRIEVAL_ORIENT_OFF	n/a	n/a	1	-999	n/a	n/a	n/a	n/a	4	[0, 0, 0]	-999	PAL1	1	R1284N
688.792	4.0	710827	TEST_PROBE	n/a	wordpools/wordpool_EN.txt	2	4	ARM	WORLD	ARM	WORLD	4	[0, 0, 0]	-999	PAL1	1	R1284N
688.793	1.037	710828	REC_START	n/a	n/a	2	-999	n/a	WORLD	n/a	n/a	4	[0, 0, 0]	-999	PAL1	1	R1284N
689.83	2.963	711865	REC_EVENT	1.037	n/a	2	4	ARM	WORLD	ARM	WORLD	4	[0, 0, 0]	-999	PAL1	1	R1284N
692.793	1.0	714828	PROBE_OFF	n/a	n/a	2	-999	n/a	n/a	n/a	n/a	4	[0, 0, 0]	-999	PAL1	1	R1284N
693.793	0.014	715828	REC_END	n/a	n/a	2	-999	n/a	n/a	n/a	n/a	4	[0, 0, 0]	-999	PAL1	1	R1284N
693.807	0.251	715842	TEST_ORIENT	n/a	n/a	3	5	CROW	n/a	CROW	LAND	4	[0, 0, 0]	-999	PAL1	1	R1284N
694.058	0.592	716093	RETRIEVAL_ORIENT_OFF	n/a	n/a	2	-999	n/a	n/a	n/a	n/a	4	[0, 0, 0]	-999	PAL1	1	R1284N
694.65	4.0	716685	TEST_PROBE	n/a	wordpools/wordpool_EN.txt	3	5	CROW	n/a	CROW	LAND	4	[0, 0, 0]	-999	PAL1	1	R1284N
694.65	4.013	716685	REC_START	n/a	n/a	3	-999	n/a	n/a	n/a	n/a	4	[0, 0, 0]	-999	PAL1	1	R1284N
698.663	1.001	720698	PROBE_OFF	n/a	n/a	3	-999	n/a	n/a	n/a	n/a	4	[0, 0, 0]	-999	PAL1	1	R1284N
699.664	0.001	721699	REC_END	n/a	n/a	3	-999	n/a	n/a	n/a	n/a	4	[0, 0, 0]	-999	PAL1	1	R1284N
699.665	0.006	721700	REC_EVENT	5.015	n/a	3	5	CROW	<>	CROW	LAND	4	[0, 0, 0]	-999	PAL1	1	R1284N
699.671	0.251	721706	TEST_ORIENT	n/a	n/a	6	6	BOY	DEER	BOY	DEER	4	[0, 0, 0]	-999	PAL1	1	R1284N
699.922	0.627	721957	RETRIEVAL_ORIENT_OFF	n/a	n/a	3	-999	n/a	n/a	n/a	n/a	4	[0, 0, 0]	-999	PAL1	1	R1284N
700.549	4.0	722584	TEST_PROBE	n/a	wordpools/wordpool_EN.txt	6	6	BOY	DEER	BOY	DEER	4	[0, 0, 0]	-999	PAL1	1	R1284N
700.549	1.428	722584	REC_START	n/a	n/a	6	-999	n/a	DEER	n/a	n/a	4	[0, 0, 0]	-999	PAL1	1	R1284N
701.977	2.573	724012	REC_EVENT	1.428	n/a	6	6	BOY	DEER	BOY	DEER	4	[0, 0, 0]	-999	PAL1	1	R1284N
704.55	1.0	726585	PROBE_OFF	n/a	n/a	6	-999	n/a	n/a	n/a	n/a	4	[0, 0, 0]	-999	PAL1	1	R1284N
705.55	0.012	727585	REC_END	n/a	n/a	6	-999	n/a	n/a	n/a	n/a	4	[0, 0, 0]	-999	PAL1	1	R1284N
705.562	4.453	727597	RECALL_END	n/a	n/a	-999	-999	n/a	n/a	n/a	n/a	4	[0, 0, 0]	-999	PAL1	1	R1284N
710.015	10.929	732050	TRIAL	n/a	n/a	-999	-999	n/a	n/a	n/a	n/a	5	[0, 0, 0]	-999	PAL1	1	R1284N
720.944	0.003	742979	ENCODING_START	n/a	n/a	-999	-999	n/a	n/a	n/a	n/a	5	[0, 0, 0]	-999	PAL1	1	R1284N
720.947	0.252	742982	STUDY_ORIENT	n/a	n/a	1	1	CASH	SOCK	SOCK	CASH	5	[0, 0, 0]	-999	PAL1	1	R1284N
721.199	0.614	743234	STUDY_ORIENT_OFF	n/a	n/a	1	1	CASH	SOCK	SOCK	CASH	5	[0, 0, 0]	-999	PAL1	1	R1284N
721.813	4.0	743848	STUDY_PAIR	n/a	wordpools/wordpool_EN.txt	1	1	CASH	SOCK	SOCK	CASH	5	[0, 0, 0]	-999	PAL1	1	R1284N
725.814	1.002	747849	PAIR_OFF	n/a	n/a	1	1	CASH	SOCK	SOCK	CASH	5	[0, 0, 0]	-999	PAL1	1	R1284N
726.816	0.252	748851	STUDY_ORIENT	n/a	n/a	2	4	STREET	n/a	STREET	CLOCK	5	[0, 0, 0]	-999	PAL1	1	R1284N
727.068	0.61	749103	STUDY_ORIENT_OFF	n/a	n/a	2	4	STREET	n/a	STREET	CLOCK	5	[0, 0, 0]	-999	PAL1	1	R1284N
727.678	4.0	749713	STUDY_PAIR	n/a	wordpools/wordpool_EN.txt	2	4	STREET	n/a	STREET	CLOCK	5	[0, 0, 0]	-999	PAL1	1	R1284N
731.68	1.003	753715	PAIR_OFF	n/a	n/a	2	4	STREET	n/a	STREET	CLOCK	5	[0, 0, 0]	-999	PAL1	1	R1284N
732.683	0.251	754718	STUDY_ORIENT	n/a	n/a	3	5	SPRING	DRESS	SCHOOL	SPRING	5	[0, 0, 0]	-999	PAL1	1	R1284N
732.934	0.706	754969	STUDY_ORIENT_OFF	n/a	n/a	3	5	SPRING	DRESS	SCHOOL	SPRING	5	[0, 0, 0]	-999	PAL1	1	R1284N
733.64	4.0	755675	STUDY_PAIR	n/a	wordpools/wordpool_EN.txt	3	5	SPRING	DRESS	SCHOOL	SPRING	5	[0, 0, 0]	-999	PAL1	1	R1284N
737.642	1.003	759677	PAIR_OFF	n/a	n/a	3	5	SPRING	DRESS	SCHOOL	SPRING	5	[0, 0, 0]	-999	PAL1	1	R1284N
738.645	0.251	760680	STUDY_ORIENT	n/a	n/a	4	2	STRING	n/a	BUSH	STRING	5	[0, 0, 0]	-999	PAL1	1	R1284N
738.896	0.535	760931	STUDY_ORIENT_OFF	n/a	n/a	4	2	STRING	n/a	BUSH	STRING	5	[0, 0, 0]	-999	PAL1	1	R1284N
739.431	4.0	761466	STUDY_PAIR	n/a	wordpools/wordpool_EN.txt	4	2	STRING	n/a	BUSH	STRING	5	[0, 0, 0]	-999	PAL1	1	R1284N
743.432	1.002	765467	PAIR_OFF	n/a	n/a	4	2	STRING	n/a	BUSH	STRING	5	[0, 0, 0]	-999	PAL1	1	R1284N
744.434	0.251	766469	STUDY_ORIENT	n/a	n/a	5	3	TOOL	n/a	CRANE	TOOL	5	[0, 0, 0]	-999	PAL1	1	R1284N
744.685	0.61	766720	STUDY_ORIENT_OFF	n/a	n/a	5	3	TOOL	n/a	CRANE	TOOL	5	[0, 0, 0]	-999	PAL1	1	R1284N
745.295	4.0	767330	STUDY_PAIR	n/a	wordpools/wordpool_EN.txt	5	3	TOOL	n/a	CRANE	TOOL	5	[0, 0, 0]	-999	PAL1	1	R1284N
749.296	1.002	771331	PAIR_OFF	n/a	n/a	5	3	TOOL	n/a	CRANE	TOOL	5	[0, 0, 0]	-999	PAL1	1	R1284N
750.298	0.252	772333	STUDY_ORIENT	n/a	n/a	6	6	CORN	n/a	CORN	BEACH	5	[0, 0, 0]	-999	PAL1	1	R1284N
750.55	0.703	772585	STUDY_ORIENT_OFF	n/a	n/a	6	6	CORN	n/a	CORN	BEACH	5	[0, 0, 0]	-999	PAL1	1	R1284N
751.253	4.0	773288	STUDY_PAIR	n/a	wordpools/wordpool_EN.txt	6	6	CORN	n/a	CORN	BEACH	5	[0, 0, 0]	-999	PAL1	1	R1284N
755.255	1.0	777290	PAIR_OFF	n/a	n/a	6	6	CORN	n/a	CORN	BEACH	5	[0, 0, 0]	-999	PAL1	1	R1284N
756.255	0.0	778290	ENCODING_END	n/a	n/a	-999	-999	n/a	n/a	n/a	n/a	5	[0, 0, 0]	-999	PAL1	1	R1284N
756.255	0.0	778290	MATH_START	n/a	n/a	-999	-999	n/a	n/a	n/a	n/a	5	[0, 0, 0]	-999	PAL1	1	R1284N
756.255	0.007	778290	START	n/a	n/a	-999	-999	n/a	n/a	n/a	n/a	5	[-999, -999, -999]	-999	PAL1	1	R1284N
756.262	3.1	778297	PROB	3.091	n/a	-999	-999	n/a	n/a	n/a	n/a	5	[1, 1, 1]	3	PAL1	1	R1284N
759.362	3.27	781397	PROB	3.262	n/a	-999	-999	n/a	n/a	n/a	n/a	5	[2, 1, 5]	5	PAL1	1	R1284N
762.632	7.064	784667	PROB	7.055	n/a	-999	-999	n/a	n/a	n/a	n/a	5	[9, 5, 9]	23	PAL1	1	R1284N
769.696	4.984	791731	PROB	4.975	n/a	-999	-999	n/a	n/a	n/a	n/a	5	[2, 3, 8]	13	PAL1	1	R1284N
774.68	5.328	796715	PROB	5.328	n/a	-999	-999	n/a	n/a	n/a	n/a	5	[3, 5, 7]	15	PAL1	1	R1284N
780.008	0.004	802043	STOP	n/a	n/a	-999	-999	n/a	n/a	n/a	n/a	5	[-999, -999, -999]	-999	PAL1	1	R1284N
780.012	0.0	802047	RECALL_START	n/a	n/a	-999	-999	n/a	n/a	n/a	n/a	5	[0, 0, 0]	-999	PAL1	1	R1284N
780.012	0.002	802047	MATH_END	n/a	n/a	-999	-999	n/a	n/a	n/a	n/a	5	[0, 0, 0]	-999	PAL1	1	R1284N
780.014	0.251	802049	TEST_ORIENT	n/a	n/a	1	1	CASH	SOCK	SOCK	CASH	5	[0, 0, 0]	-999	PAL1	1	R1284N
780.265	0.604	802300	RETRIEVAL_ORIENT_OFF	n/a	n/a	-999	-999	n/a	n/a	n/a	n/a	5	[0, 0, 0]	-999	PAL1	1	R1284N
780.869	4.0	802904	TEST_PROBE	n/a	wordpools/wordpool_EN.txt	1	1	CASH	SOCK	SOCK	CASH	5	[0, 0, 0]	-999	PAL1	1	R1284N
780.87	1.407	802905	REC_START	n/a	n/a	1	-999	n/a	SOCK	n/a	n/a	5	[0, 0, 0]	-999	PAL1	1	R1284N
782.277	2.593	804312	REC_EVENT	1.407	n/a	1	1	CASH	SOCK	SOCK	CASH	5	[0, 0, 0]	-999	PAL1	1	R1284N
784.87	1.0	806905	PROBE_OFF	n/a	n/a	1	-999	n/a	n/a	n/a	n/a	5	[0, 0, 0]	-999	PAL1	1	R1284N
785.87	0.013	807905	REC_END	n/a	n/a	1	-999	n/a	n/a	n/a	n/a	5	[0, 0, 0]	-999	PAL1	1	R1284N
785.883	0.251	807918	TEST_ORIENT	n/a	n/a	4	2	STRING	n/a	BUSH	STRING	5	[0, 0, 0]	-999	PAL1	1	R1284N
786.134	0.66	808169	RETRIEVAL_ORIENT_OFF	n/a	n/a	1	-999	n/a	n/a	n/a	n/a	5	[0, 0, 0]	-999	PAL1	1	R1284N
786.794	4.0	808829	TEST_PROBE	n/a	wordpools/wordpool_EN.txt	4	2	STRING	n/a	BUSH	STRING	5	[0, 0, 0]	-999	PAL1	1	R1284N
786.795	1.028	808830	REC_START	n/a	n/a	4	-999	n/a	n/a	n/a	n/a	5	[0, 0, 0]	-999	PAL1	1	R1284N
787.823	0.801	809858	REC_EVENT	1.028	n/a	4	2	STRING	<>	BUSH	STRING	5	[0, 0, 0]	-999	PAL1	1	R1284N
788.624	1.299	810659	REC_EVENT	1.829	n/a	4	2	STRING	<>	BUSH	STRING	5	[0, 0, 0]	-999	PAL1	1	R1284N
789.923	0.872	811958	REC_EVENT	3.128	n/a	4	2	STRING	<>	BUSH	STRING	5	[0, 0, 0]	-999	PAL1	1	R1284N
790.795	0.133	812830	PROBE_OFF	n/a	n/a	4	-999	n/a	n/a	n/a	n/a	5	[0, 0, 0]	-999	PAL1	1	R1284N
790.928	0.867	812963	REC_EVENT	4.133	n/a	4	2	STRING	<>	BUSH	STRING	5	[0, 0, 0]	-999	PAL1	1	R1284N
791.795	0.013	813830	REC_END	n/a	n/a	4	-999	n/a	n/a	n/a	n/a	5	[0, 0, 0]	-999	PAL1	1	R1284N
791.808	0.251	813843	TEST_ORIENT	n/a	n/a	5	3	TOOL	n/a	CRANE	TOOL	5	[0, 0, 0]	-999	PAL1	1	R1284N
792.059	0.746	814094	RETRIEVAL_ORIENT_OFF	n/a	n/a	4	-999	n/a	n/a	n/a	n/a	5	[0, 0, 0]	-999	PAL1	1	R1284N
792.805	4.0	814840	TEST_PROBE	n/a	wordpools/wordpool_EN.txt	5	3	TOOL	n/a	CRANE	TOOL	5	[0, 0, 0]	-999	PAL1	1	R1284N
792.806	4.001	814841	REC_START	n/a	n/a	5	-999	n/a	n/a	n/a	n/a	5	[0, 0, 0]	-999	PAL1	1	R1284N
796.807	0.997	818842	PROBE_OFF	n/a	n/a	5	-999	n/a	n/a	n/a	n/a	5	[0, 0, 0]	-999	PAL1	1	R1284N
797.804	0.003	819839	REC_EVENT	4.998	n/a	5	3	TOOL	<>	CRANE	TOOL	5	[0, 0, 0]	-999	PAL1	1	R1284N
797.807	0.013	819842	REC_END	n/a	n/a	5	-999	n/a	n/a	n/a	n/a	5	[0, 0, 0]	-999	PAL1	1	R1284N
797.82	0.251	819855	TEST_ORIENT	n/a	n/a	2	4	STREET	n/a	STREET	CLOCK	5	[0, 0, 0]	-999	PAL1	1	R1284N
798.071	0.676	820106	RETRIEVAL_ORIENT_OFF	n/a	n/a	5	-999	n/a	n/a	n/a	n/a	5	[0, 0, 0]	-999	PAL1	1	R1284N
798.747	4.0	820782	TEST_PROBE	n/a	wordpools/wordpool_EN.txt	2	4	STREET	n/a	STREET	CLOCK	5	[0, 0, 0]	-999	PAL1	1	R1284N
798.748	4.001	820783	REC_START	n/a	n/a	2	-999	n/a	n/a	n/a	n/a	5	[0, 0, 0]	-999	PAL1	1	R1284N
802.749	1.0	824784	PROBE_OFF	n/a	n/a	2	-999	n/a	n/a	n/a	n/a	5	[0, 0, 0]	-999	PAL1	1	R1284N
803.749	0.002	825784	REC_END	n/a	n/a	2	-999	n/a	n/a	n/a	n/a	5	[0, 0, 0]	-999	PAL1	1	R1284N
803.751	0.011	825786	REC_EVENT	5.003	n/a	2	4	STREET	<>	STREET	CLOCK	5	[0, 0, 0]	-999	PAL1	1	R1284N
803.762	0.252	825797	TEST_ORIENT	n/a	n/a	3	5	SPRING	DRESS	SCHOOL	SPRING	5	[0, 0, 0]	-999	PAL1	1	R1284N
804.014	0.577	826049	RETRIEVAL_ORIENT_OFF	n/a	n/a	2	-999	n/a	n/a	n/a	n/a	5	[0, 0, 0]	-999	PAL1	1	R1284N
804.591	4.0	826626	TEST_PROBE	n/a	wordpools/wordpool_EN.txt	3	5	SPRING	DRESS	SCHOOL	SPRING	5	[0, 0, 0]	-999	PAL1	1	R1284N
804.591	1.758	826626	REC_START	n/a	n/a	3	-999	n/a	DRESS	n/a	n/a	5	[0, 0, 0]	-999	PAL1	1	R1284N
806.349	1.06	828384	REC_EVENT	1.758	n/a	3	5	SPRING	SPRING	SCHOOL	SPRING	5	[0, 0, 0]	-999	PAL1	1	R1284N
807.409	1.194	829444	REC_EVENT	2.818	n/a	3	5	SPRING	DRESS	SCHOOL	SPRING	5	[0, 0, 0]	-999	PAL1	1	R1284N
808.603	1.0	830638	PROBE_OFF	n/a	n/a	3	-999	n/a	n/a	n/a	n/a	5	[0, 0, 0]	-999	PAL1	1	R1284N
809.603	0.008	831638	REC_END	n/a	n/a	3	-999	n/a	n/a	n/a	n/a	5	[0, 0, 0]	-999	PAL1	1	R1284N
809.611	0.251	831646	TEST_ORIENT	n/a	n/a	6	6	CORN	n/a	CORN	BEACH	5	[0, 0, 0]	-999	PAL1	1	R1284N
809.862	0.606	831897	RETRIEVAL_ORIENT_OFF	n/a	n/a	3	-999	n/a	n/a	n/a	n/a	5	[0, 0, 0]	-999	PAL1	1	R1284N
810.468	0.0	832503	REC_START	n/a	n/a	6	-999	n/a	n/a	n/a	n/a	5	[0, 0, 0]	-999	PAL1	1	R1284N
810.468	4.0	832503	TEST_PROBE	n/a	wordpools/wordpool_EN.txt	6	6	CORN	n/a	CORN	BEACH	5	[0, 0, 0]	-999	PAL1	1	R1284N
812.128	2.352	834163	REC_EVENT	1.66	n/a	6	6	CORN	<>	CORN	BEACH	5	[0, 0, 0]	-999	PAL1	1	R1284N
814.48	1.0	836515	PROBE_OFF	n/a	n/a	6	-999	n/a	n/a	n/a	n/a	5	[0, 0, 0]	-999	PAL1	1	R1284N
815.48	0.005	837515	REC_END	n/a	n/a	6	-999	n/a	n/a	n/a	n/a	5	[0, 0, 0]	-999	PAL1	1	R1284N
815.485	5.22	837520	RECALL_END	n/a	n/a	-999	-999	n/a	n/a	n/a	n/a	5	[0, 0, 0]	-999	PAL1	1	R1284N
820.705	10.937	842740	TRIAL	n/a	n/a	-999	-999	n/a	n/a	n/a	n/a	6	[0, 0, 0]	-999	PAL1	1	R1284N
831.642	0.002	853676	ENCODING_START	n/a	n/a	-999	-999	n/a	n/a	n/a	n/a	6	[0, 0, 0]	-999	PAL1	1	R1284N
831.644	0.252	853678	STUDY_ORIENT	n/a	n/a	1	5	FORK	APE	FORK	APE	6	[0, 0, 0]	-999	PAL1	1	R1284N
831.896	0.699	853930	STUDY_ORIENT_OFF	n/a	n/a	1	5	FORK	APE	FORK	APE	6	[0, 0, 0]	-999	PAL1	1	R1284N
832.595	4.0	854629	STUDY_PAIR	n/a	wordpools/wordpool_EN.txt	1	5	FORK	APE	FORK	APE	6	[0, 0, 0]	-999	PAL1	1	R1284N
836.596	1.003	858630	PAIR_OFF	n/a	n/a	1	5	FORK	APE	FORK	APE	6	[0, 0, 0]	-999	PAL1	1	R1284N
837.599	0.252	859633	STUDY_ORIENT	n/a	n/a	2	6	LAWN	n/a	LAWN	RIB	6	[0, 0, 0]	-999	PAL1	1	R1284N
837.851	0.604	859885	STUDY_ORIENT_OFF	n/a	n/a	2	6	LAWN	n/a	LAWN	RIB	6	[0, 0, 0]	-999	PAL1	1	R1284N
838.455	4.0	860489	STUDY_PAIR	n/a	wordpools/wordpool_EN.txt	2	6	LAWN	n/a	LAWN	RIB	6	[0, 0, 0]	-999	PAL1	1	R1284N
842.456	1.002	864490	PAIR_OFF	n/a	n/a	2	6	LAWN	n/a	LAWN	RIB	6	[0, 0, 0]	-999	PAL1	1	R1284N
843.458	0.251	865492	STUDY_ORIENT	n/a	n/a	3	3	STEAK	STEAK	STEAK	CART	6	[0, 0, 0]	-999	PAL1	1	R1284N
843.709	0.597	865743	STUDY_ORIENT_OFF	n/a	n/a	3	3	STEAK	STEAK	STEAK	CART	6	[0, 0, 0]	-999	PAL1	1	R1284N
844.306	4.0	866340	STUDY_PAIR	n/a	wordpools/wordpool_EN.txt	3	3	STEAK	STEAK	STEAK	CART	6	[0, 0, 0]	-999	PAL1	1	R1284N
848.308	1.003	870342	PAIR_OFF	n/a	n/a	3	3	STEAK	STEAK	STEAK	CART	6	[0, 0, 0]	-999	PAL1	1	R1284N
849.311	0.251	871345	STUDY_ORIENT	n/a	n/a	4	2	ROOM	n/a	LEAF	ROOM	6	[0, 0, 0]	-999	PAL1	1	R1284N
849.562	0.567	871596	STUDY_ORIENT_OFF	n/a	n/a	4	2	ROOM	n/a	LEAF	ROOM	6	[0, 0, 0]	-999	PAL1	1	R1284N
850.129	4.0	872163	STUDY_PAIR	n/a	wordpools/wordpool_EN.txt	4	2	ROOM	n/a	LEAF	ROOM	6	[0, 0, 0]	-999	PAL1	1	R1284N
854.13	1.003	876164	PAIR_OFF	n/a	n/a	4	2	ROOM	n/a	LEAF	ROOM	6	[0, 0, 0]	-999	PAL1	1	R1284N
855.133	0.252	877167	STUDY_ORIENT	n/a	n/a	5	1	AXE	n/a	NEST	AXE	6	[0, 0, 0]	-999	PAL1	1	R1284N
855.385	0.655	877419	STUDY_ORIENT_OFF	n/a	n/a	5	1	AXE	n/a	NEST	AXE	6	[0, 0, 0]	-999	PAL1	1	R1284N
856.04	4.0	878074	STUDY_PAIR	n/a	wordpools/wordpool_EN.txt	5	1	AXE	n/a	NEST	AXE	6	[0, 0, 0]	-999	PAL1	1	R1284N
860.041	1.002	882075	PAIR_OFF	n/a	n/a	5	1	AXE	n/a	NEST	AXE	6	[0, 0, 0]	-999	PAL1	1	R1284N
861.043	0.251	883077	STUDY_ORIENT	n/a	n/a	6	4	DOG	RIB	DOG	ROOF	6	[0, 0, 0]	-999	PAL1	1	R1284N
861.294	0.606	883328	STUDY_ORIENT_OFF	n/a	n/a	6	4	DOG	RIB	DOG	ROOF	6	[0, 0, 0]	-999	PAL1	1	R1284N
861.9	4.0	883934	STUDY_PAIR	n/a	wordpools/wordpool_EN.txt	6	4	DOG	RIB	DOG	ROOF	6	[0, 0, 0]	-999	PAL1	1	R1284N
865.901	1.0	887935	PAIR_OFF	n/a	n/a	6	4	DOG	RIB	DOG	ROOF	6	[0, 0, 0]	-999	PAL1	1	R1284N
866.901	0.0	888935	ENCODING_END	n/a	n/a	-999	-999	n/a	n/a	n/a	n/a	6	[0, 0, 0]	-999	PAL1	1	R1284N
866.901	0.0	888935	MATH_START	n/a	n/a	-999	-999	n/a	n/a	n/a	n/a	6	[0, 0, 0]	-999	PAL1	1	R1284N
866.901	0.007	888935	START	n/a	n/a	-999	-999	n/a	n/a	n/a	n/a	6	[-999, -999, -999]	-999	PAL1	1	R1284N
866.908	4.282	888942	PROB	4.273	n/a	-999	-999	n/a	n/a	n/a	n/a	6	[7, 7, 2]	16	PAL1	1	R1284N
871.19	3.991	893224	PROB	3.982	n/a	-999	-999	n/a	n/a	n/a	n/a	6	[9, 5, 1]	15	PAL1	1	R1284N
875.181	5.272	897215	PROB	5.263	n/a	-999	-999	n/a	n/a	n/a	n/a	6	[8, 4, 4]	16	PAL1	1	R1284N
880.453	9.446	902487	PROB	9.446	n/a	-999	-999	n/a	n/a	n/a	n/a	6	[5, 9, 6]	20	PAL1	1	R1284N
889.899	0.004	911933	STOP	n/a	n/a	-999	-999	n/a	n/a	n/a	n/a	6	[-999, -999, -999]	-999	PAL1	1	R1284N
889.903	0.0	911937	RECALL_START	n/a	n/a	-999	-999	n/a	n/a	n/a	n/a	6	[0, 0, 0]	-999	PAL1	1	R1284N
889.903	0.003	911937	MATH_END	n/a	n/a	-999	-999	n/a	n/a	n/a	n/a	6	[0, 0, 0]	-999	PAL1	1	R1284N
889.906	0.251	911940	TEST_ORIENT	n/a	n/a	5	1	AXE	n/a	NEST	AXE	6	[0, 0, 0]	-999	PAL1	1	R1284N
890.157	0.608	912191	RETRIEVAL_ORIENT_OFF	n/a	n/a	-999	-999	n/a	n/a	n/a	n/a	6	[0, 0, 0]	-999	PAL1	1	R1284N
890.765	4.0	912799	TEST_PROBE	n/a	wordpools/wordpool_EN.txt	5	1	AXE	n/a	NEST	AXE	6	[0, 0, 0]	-999	PAL1	1	R1284N
890.766	4.0	912800	REC_START	n/a	n/a	5	-999	n/a	n/a	n/a	n/a	6	[0, 0, 0]	-999	PAL1	1	R1284N
894.766	1.0	916800	PROBE_OFF	n/a	n/a	5	-999	n/a	n/a	n/a	n/a	6	[0, 0, 0]	-999	PAL1	1	R1284N
895.766	0.003	917800	REC_END	n/a	n/a	5	-999	n/a	n/a	n/a	n/a	6	[0, 0, 0]	-999	PAL1	1	R1284N
895.769	0.01	917803	REC_EVENT	5.003	n/a	5	1	AXE	<>	NEST	AXE	6	[0, 0, 0]	-999	PAL1	1	R1284N
895.779	0.251	917813	TEST_ORIENT	n/a	n/a	4	2	ROOM	n/a	LEAF	ROOM	6	[0, 0, 0]	-999	PAL1	1	R1284N
896.03	0.744	918064	RETRIEVAL_ORIENT_OFF	n/a	n/a	5	-999	n/a	n/a	n/a	n/a	6	[0, 0, 0]	-999	PAL1	1	R1284N
896.774	4.0	918808	TEST_PROBE	n/a	wordpools/wordpool_EN.txt	4	2	ROOM	n/a	LEAF	ROOM	6	[0, 0, 0]	-999	PAL1	1	R1284N
896.774	4.012	918808	REC_START	n/a	n/a	4	-999	n/a	n/a	n/a	n/a	6	[0, 0, 0]	-999	PAL1	1	R1284N
900.786	1.0	922820	PROBE_OFF	n/a	n/a	4	-999	n/a	n/a	n/a	n/a	6	[0, 0, 0]	-999	PAL1	1	R1284N
901.786	0.003	923820	REC_END	n/a	n/a	4	-999	n/a	n/a	n/a	n/a	6	[0, 0, 0]	-999	PAL1	1	R1284N
901.789	0.004	923823	REC_EVENT	5.015	n/a	4	2	ROOM	<>	LEAF	ROOM	6	[0, 0, 0]	-999	PAL1	1	R1284N
901.793	0.251	923827	TEST_ORIENT	n/a	n/a	3	3	STEAK	STEAK	STEAK	CART	6	[0, 0, 0]	-999	PAL1	1	R1284N
902.044	0.661	924078	RETRIEVAL_ORIENT_OFF	n/a	n/a	4	-999	n/a	n/a	n/a	n/a	6	[0, 0, 0]	-999	PAL1	1	R1284N
902.705	4.0	924739	TEST_PROBE	n/a	wordpools/wordpool_EN.txt	3	3	STEAK	STEAK	STEAK	CART	6	[0, 0, 0]	-999	PAL1	1	R1284N
902.706	1.131	924740	REC_START	n/a	n/a	3	-999	n/a	STEAK	n/a	n/a	6	[0, 0, 0]	-999	PAL1	1	R1284N
903.837	2.869	925871	REC_EVENT	1.131	n/a	3	3	STEAK	STEAK	STEAK	CART	6	[0, 0, 0]	-999	PAL1	1	R1284N
906.706	1.0	928740	PROBE_OFF	n/a	n/a	3	-999	n/a	n/a	n/a	n/a	6	[0, 0, 0]	-999	PAL1	1	R1284N
907.706	0.013	929740	REC_END	n/a	n/a	3	-999	n/a	n/a	n/a	n/a	6	[0, 0, 0]	-999	PAL1	1	R1284N
907.719	0.252	929753	TEST_ORIENT	n/a	n/a	6	4	DOG	RIB	DOG	ROOF	6	[0, 0, 0]	-999	PAL1	1	R1284N
907.971	0.609	930005	RETRIEVAL_ORIENT_OFF	n/a	n/a	3	-999	n/a	n/a	n/a	n/a	6	[0, 0, 0]	-999	PAL1	1	R1284N
908.58	4.0	930614	TEST_PROBE	n/a	wordpools/wordpool_EN.txt	6	4	DOG	RIB	DOG	ROOF	6	[0, 0, 0]	-999	PAL1	1	R1284N
908.581	3.423	930615	REC_START	n/a	n/a	6	-999	n/a	RIB	n/a	n/a	6	[0, 0, 0]	-999	PAL1	1	R1284N
912.004	0.577	934038	REC_EVENT	3.423	n/a	6	4	DOG	RIB	DOG	ROOF	6	[0, 0, 0]	-999	PAL1	1	R1284N
912.581	1.0	934615	PROBE_OFF	n/a	n/a	6	-999	n/a	n/a	n/a	n/a	6	[0, 0, 0]	-999	PAL1	1	R1284N
913.581	0.013	935615	REC_END	n/a	n/a	6	-999	n/a	n/a	n/a	n/a	6	[0, 0, 0]	-999	PAL1	1	R1284N
913.594	0.251	935628	TEST_ORIENT	n/a	n/a	1	5	FORK	APE	FORK	APE	6	[0, 0, 0]	-999	PAL1	1	R1284N
913.845	0.595	935879	RETRIEVAL_ORIENT_OFF	n/a	n/a	6	-999	n/a	n/a	n/a	n/a	6	[0, 0, 0]	-999	PAL1	1	R1284N
914.44	4.0	936474	TEST_PROBE	n/a	wordpools/wordpool_EN.txt	1	5	FORK	APE	FORK	APE	6	[0, 0, 0]	-999	PAL1	1	R1284N
914.44	0.94	936474	REC_START	n/a	n/a	1	-999	n/a	APE	n/a	n/a	6	[0, 0, 0]	-999	PAL1	1	R1284N
915.38	3.071	937414	REC_EVENT	0.94	n/a	1	5	FORK	APE	FORK	APE	6	[0, 0, 0]	-999	PAL1	1	R1284N
918.451	1.0	940485	PROBE_OFF	n/a	n/a	1	-999	n/a	n/a	n/a	n/a	6	[0, 0, 0]	-999	PAL1	1	R1284N
919.451	0.007	941485	REC_END	n/a	n/a	1	-999	n/a	n/a	n/a	n/a	6	[0, 0, 0]	-999	PAL1	1	R1284N
919.458	0.251	941492	TEST_ORIENT	n/a	n/a	2	6	LAWN	n/a	LAWN	RIB	6	[0, 0, 0]	-999	PAL1	1	R1284N
919.709	0.673	941743	RETRIEVAL_ORIENT_OFF	n/a	n/a	1	-999	n/a	n/a	n/a	n/a	6	[0, 0, 0]	-999	PAL1	1	R1284N
920.382	4.0	942416	TEST_PROBE	n/a	wordpools/wordpool_EN.txt	2	6	LAWN	n/a	LAWN	RIB	6	[0, 0, 0]	-999	PAL1	1	R1284N
920.382	4.011	942416	REC_START	n/a	n/a	2	-999	n/a	n/a	n/a	n/a	6	[0, 0, 0]	-999	PAL1	1	R1284N
924.393	1.001	946427	PROBE_OFF	n/a	n/a	2	-999	n/a	n/a	n/a	n/a	6	[0, 0, 0]	-999	PAL1	1	R1284N
925.394	0.003	947428	REC_END	n/a	n/a	2	-999	n/a	n/a	n/a	n/a	6	[0, 0, 0]	-999	PAL1	1	R1284N
925.397	0.001	947431	REC_EVENT	5.015	n/a	2	6	LAWN	<>	LAWN	RIB	6	[0, 0, 0]	-999	PAL1	1	R1284N
925.398	4.231	947432	RECALL_END	n/a	n/a	-999	-999	n/a	n/a	n/a	n/a	6	[0, 0, 0]	-999	PAL1	1	R1284N
929.629	10.929	951663	TRIAL	n/a	n/a	-999	-999	n/a	n/a	n/a	n/a	7	[0, 0, 0]	-999	PAL1	1	R1284N
940.558	0.002	962592	ENCODING_START	n/a	n/a	-999	-999	n/a	n/a	n/a	n/a	7	[0, 0, 0]	-999	PAL1	1	R1284N
940.56	0.252	962594	STUDY_ORIENT	n/a	n/a	1	5	GEESE	n/a	GEESE	SKUNK	7	[0, 0, 0]	-999	PAL1	1	R1284N
940.812	0.739	962846	STUDY_ORIENT_OFF	n/a	n/a	1	5	GEESE	n/a	GEESE	SKUNK	7	[0, 0, 0]	-999	PAL1	1	R1284N
941.551	4.0	963585	STUDY_PAIR	n/a	wordpools/wordpool_EN.txt	1	5	GEESE	n/a	GEESE	SKUNK	7	[0, 0, 0]	-999	PAL1	1	R1284N
945.552	1.002	967586	PAIR_OFF	n/a	n/a	1	5	GEESE	n/a	GEESE	SKUNK	7	[0, 0, 0]	-999	PAL1	1	R1284N
946.554	0.251	968588	STUDY_ORIENT	n/a	n/a	2	6	PEAR	n/a	BAND	PEAR	7	[0, 0, 0]	-999	PAL1	1	R1284N
946.805	0.564	968839	STUDY_ORIENT_OFF	n/a	n/a	2	6	PEAR	n/a	BAND	PEAR	7	[0, 0, 0]	-999	PAL1	1	R1284N
947.369	4.0	969403	STUDY_PAIR	n/a	wordpools/wordpool_EN.txt	2	6	PEAR	n/a	BAND	PEAR	7	[0, 0, 0]	-999	PAL1	1	R1284N
951.37	1.003	973404	PAIR_OFF	n/a	n/a	2	6	PEAR	n/a	BAND	PEAR	7	[0, 0, 0]	-999	PAL1	1	R1284N
952.373	0.251	974407	STUDY_ORIENT	n/a	n/a	3	1	LAMB	PEAR	STORE	LAMB	7	[0, 0, 0]	-999	PAL1	1	R1284N
952.624	0.675	974658	STUDY_ORIENT_OFF	n/a	n/a	3	1	LAMB	PEAR	STORE	LAMB	7	[0, 0, 0]	-999	PAL1	1	R1284N
953.299	4.0	975333	STUDY_PAIR	n/a	wordpools/wordpool_EN.txt	3	1	LAMB	PEAR	STORE	LAMB	7	[0, 0, 0]	-999	PAL1	1	R1284N
957.3	1.002	979334	PAIR_OFF	n/a	n/a	3	1	LAMB	PEAR	STORE	LAMB	7	[0, 0, 0]	-999	PAL1	1	R1284N
958.302	0.251	980336	STUDY_ORIENT	n/a	n/a	4	4	WALL	n/a	WALL	PURSE	7	[0, 0, 0]	-999	PAL1	1	R1284N
958.553	0.611	980587	STUDY_ORIENT_OFF	n/a	n/a	4	4	WALL	n/a	WALL	PURSE	7	[0, 0, 0]	-999	PAL1	1	R1284N
959.164	4.0	981198	STUDY_PAIR	n/a	wordpools/wordpool_EN.txt	4	4	WALL	n/a	WALL	PURSE	7	[0, 0, 0]	-999	PAL1	1	R1284N
963.165	1.003	985199	PAIR_OFF	n/a	n/a	4	4	WALL	n/a	WALL	PURSE	7	[0, 0, 0]	-999	PAL1	1	R1284N
964.168	0.252	986202	STUDY_ORIENT	n/a	n/a	5	3	NAIL	n/a	NAIL	PLANT	7	[0, 0, 0]	-999	PAL1	1	R1284N
964.42	0.675	986454	STUDY_ORIENT_OFF	n/a	n/a	5	3	NAIL	n/a	NAIL	PLANT	7	[0, 0, 0]	-999	PAL1	1	R1284N
965.095	4.0	987129	STUDY_PAIR	n/a	wordpools/wordpool_EN.txt	5	3	NAIL	n/a	NAIL	PLANT	7	[0, 0, 0]	-999	PAL1	1	R1284N
969.096	1.002	991130	PAIR_OFF	n/a	n/a	5	3	NAIL	n/a	NAIL	PLANT	7	[0, 0, 0]	-999	PAL1	1	R1284N
970.098	0.252	992132	STUDY_ORIENT	n/a	n/a	6	2	SPEAR	n/a	MOOSE	SPEAR	7	[0, 0, 0]	-999	PAL1	1	R1284N
970.35	0.516	992384	STUDY_ORIENT_OFF	n/a	n/a	6	2	SPEAR	n/a	MOOSE	SPEAR	7	[0, 0, 0]	-999	PAL1	1	R1284N
970.866	4.0	992900	STUDY_PAIR	n/a	wordpools/wordpool_EN.txt	6	2	SPEAR	n/a	MOOSE	SPEAR	7	[0, 0, 0]	-999	PAL1	1	R1284N
974.867	1.0	996901	PAIR_OFF	n/a	n/a	6	2	SPEAR	n/a	MOOSE	SPEAR	7	[0, 0, 0]	-999	PAL1	1	R1284N
975.867	0.0	997901	ENCODING_END	n/a	n/a	-999	-999	n/a	n/a	n/a	n/a	7	[0, 0, 0]	-999	PAL1	1	R1284N
975.867	0.001	997901	MATH_START	n/a	n/a	-999	-999	n/a	n/a	n/a	n/a	7	[0, 0, 0]	-999	PAL1	1	R1284N
975.868	0.006	997902	START	n/a	n/a	-999	-999	n/a	n/a	n/a	n/a	7	[-999, -999, -999]	-999	PAL1	1	R1284N
975.874	6.845	997908	PROB	6.837	n/a	-999	-999	n/a	n/a	n/a	n/a	7	[2, 4, 2]	8	PAL1	1	R1284N
982.719	7.681	1004752	PROB	7.672	n/a	-999	-999	n/a	n/a	n/a	n/a	7	[6, 4, 4]	14	PAL1	1	R1284N
990.4	9.663	1012433	PROB	9.663	n/a	-999	-999	n/a	n/a	n/a	n/a	7	[4, 3, 8]	15	PAL1	1	R1284N
1000.063	0.005	1022096	STOP	n/a	n/a	-999	-999	n/a	n/a	n/a	n/a	7	[-999, -999, -999]	-999	PAL1	1	R1284N
1000.068	0.0	1022101	MATH_END	n/a	n/a	-999	-999	n/a	n/a	n/a	n/a	7	[0, 0, 0]	-999	PAL1	1	R1284N
1000.068	0.002	1022101	RECALL_START	n/a	n/a	-999	-999	n/a	n/a	n/a	n/a	7	[0, 0, 0]	-999	PAL1	1	R1284N
1000.07	0.251	1022103	TEST_ORIENT	n/a	n/a	3	1	LAMB	PEAR	STORE	LAMB	7	[0, 0, 0]	-999	PAL1	1	R1284N
1000.321	0.549	1022354	RETRIEVAL_ORIENT_OFF	n/a	n/a	-999	-999	n/a	n/a	n/a	n/a	7	[0, 0, 0]	-999	PAL1	1	R1284N
1000.87	4.0	1022903	TEST_PROBE	n/a	wordpools/wordpool_EN.txt	3	1	LAMB	PEAR	STORE	LAMB	7	[0, 0, 0]	-999	PAL1	1	R1284N
1000.871	2.272	1022904	REC_START	n/a	n/a	3	-999	n/a	PEAR	n/a	n/a	7	[0, 0, 0]	-999	PAL1	1	R1284N
1003.143	1.739	1025176	REC_EVENT	2.272	n/a	3	1	LAMB	PEAR	STORE	LAMB	7	[0, 0, 0]	-999	PAL1	1	R1284N
1004.882	1.0	1026915	PROBE_OFF	n/a	n/a	3	-999	n/a	n/a	n/a	n/a	7	[0, 0, 0]	-999	PAL1	1	R1284N
1005.882	0.007	1027915	REC_END	n/a	n/a	3	-999	n/a	n/a	n/a	n/a	7	[0, 0, 0]	-999	PAL1	1	R1284N
1005.889	0.251	1027922	TEST_ORIENT	n/a	n/a	6	2	SPEAR	n/a	MOOSE	SPEAR	7	[0, 0, 0]	-999	PAL1	1	R1284N
1006.14	0.721	1028173	RETRIEVAL_ORIENT_OFF	n/a	n/a	3	-999	n/a	n/a	n/a	n/a	7	[0, 0, 0]	-999	PAL1	1	R1284N
1006.861	4.0	1028894	TEST_PROBE	n/a	wordpools/wordpool_EN.txt	6	2	SPEAR	n/a	MOOSE	SPEAR	7	[0, 0, 0]	-999	PAL1	1	R1284N
1006.861	4.013	1028894	REC_START	n/a	n/a	6	-999	n/a	n/a	n/a	n/a	7	[0, 0, 0]	-999	PAL1	1	R1284N
1010.874	1.0	1032907	PROBE_OFF	n/a	n/a	6	-999	n/a	n/a	n/a	n/a	7	[0, 0, 0]	-999	PAL1	1	R1284N
1011.874	0.002	1033907	REC_END	n/a	n/a	6	-999	n/a	n/a	n/a	n/a	7	[0, 0, 0]	-999	PAL1	1	R1284N
1011.876	0.005	1033909	REC_EVENT	5.015	n/a	6	2	SPEAR	<>	MOOSE	SPEAR	7	[0, 0, 0]	-999	PAL1	1	R1284N
1011.881	0.251	1033914	TEST_ORIENT	n/a	n/a	5	3	NAIL	n/a	NAIL	PLANT	7	[0, 0, 0]	-999	PAL1	1	R1284N
1012.132	0.677	1034165	RETRIEVAL_ORIENT_OFF	n/a	n/a	6	-999	n/a	n/a	n/a	n/a	7	[0, 0, 0]	-999	PAL1	1	R1284N
1012.809	4.0	1034842	TEST_PROBE	n/a	wordpools/wordpool_EN.txt	5	3	NAIL	n/a	NAIL	PLANT	7	[0, 0, 0]	-999	PAL1	1	R1284N
1012.809	4.012	1034842	REC_START	n/a	n/a	5	-999	n/a	n/a	n/a	n/a	7	[0, 0, 0]	-999	PAL1	1	R1284N
1016.821	0.997	1038854	PROBE_OFF	n/a	n/a	5	-999	n/a	n/a	n/a	n/a	7	[0, 0, 0]	-999	PAL1	1	R1284N
1017.818	0.003	1039851	REC_EVENT	5.009	n/a	5	3	NAIL	<>	NAIL	PLANT	7	[0, 0, 0]	-999	PAL1	1	R1284N
1017.821	0.007	1039854	REC_END	n/a	n/a	5	-999	n/a	n/a	n/a	n/a	7	[0, 0, 0]	-999	PAL1	1	R1284N
1017.828	0.251	1039861	TEST_ORIENT	n/a	n/a	4	4	WALL	n/a	WALL	PURSE	7	[0, 0, 0]	-999	PAL1	1	R1284N
1018.079	0.531	1040112	RETRIEVAL_ORIENT_OFF	n/a	n/a	5	-999	n/a	n/a	n/a	n/a	7	[0, 0, 0]	-999	PAL1	1	R1284N
1018.61	4.0	1040643	TEST_PROBE	n/a	wordpools/wordpool_EN.txt	4	4	WALL	n/a	WALL	PURSE	7	[0, 0, 0]	-999	PAL1	1	R1284N
1018.611	4.0	1040644	REC_START	n/a	n/a	4	-999	n/a	n/a	n/a	n/a	7	[0, 0, 0]	-999	PAL1	1	R1284N
1022.611	1.001	1044644	PROBE_OFF	n/a	n/a	4	-999	n/a	n/a	n/a	n/a	7	[0, 0, 0]	-999	PAL1	1	R1284N
1023.612	0.002	1045645	REC_END	n/a	n/a	4	-999	n/a	n/a	n/a	n/a	7	[0, 0, 0]	-999	PAL1	1	R1284N
1023.614	0.01	1045647	REC_EVENT	5.003	n/a	4	4	WALL	<>	WALL	PURSE	7	[0, 0, 0]	-999	PAL1	1	R1284N
1023.624	0.251	1045657	TEST_ORIENT	n/a	n/a	1	5	GEESE	n/a	GEESE	SKUNK	7	[0, 0, 0]	-999	PAL1	1	R1284N
1023.875	0.715	1045908	RETRIEVAL_ORIENT_OFF	n/a	n/a	4	-999	n/a	n/a	n/a	n/a	7	[0, 0, 0]	-999	PAL1	1	R1284N
1024.59	0.0	1046623	REC_START	n/a	n/a	1	-999	n/a	n/a	n/a	n/a	7	[0, 0, 0]	-999	PAL1	1	R1284N
1024.59	4.0	1046623	TEST_PROBE	n/a	wordpools/wordpool_EN.txt	1	5	GEESE	n/a	GEESE	SKUNK	7	[0, 0, 0]	-999	PAL1	1	R1284N
1028.601	0.998	1050634	PROBE_OFF	n/a	n/a	1	-999	n/a	n/a	n/a	n/a	7	[0, 0, 0]	-999	PAL1	1	R1284N
1029.599	0.002	1051632	REC_EVENT	5.009	n/a	1	5	GEESE	<>	GEESE	SKUNK	7	[0, 0, 0]	-999	PAL1	1	R1284N
1029.601	0.007	1051634	REC_END	n/a	n/a	1	-999	n/a	n/a	n/a	n/a	7	[0, 0, 0]	-999	PAL1	1	R1284N
1029.608	0.251	1051641	TEST_ORIENT	n/a	n/a	2	6	PEAR	n/a	BAND	PEAR	7	[0, 0, 0]	-999	PAL1	1	R1284N
1029.859	0.741	1051892	RETRIEVAL_ORIENT_OFF	n/a	n/a	1	-999	n/a	n/a	n/a	n/a	7	[0, 0, 0]	-999	PAL1	1	R1284N
1030.6	4.0	1052633	TEST_PROBE	n/a	wordpools/wordpool_EN.txt	2	6	PEAR	n/a	BAND	PEAR	7	[0, 0, 0]	-999	PAL1	1	R1284N
1030.601	4.0	1052634	REC_START	n/a	n/a	2	-999	n/a	n/a	n/a	n/a	7	[0, 0, 0]	-999	PAL1	1	R1284N
1034.601	0.998	1056634	PROBE_OFF	n/a	n/a	2	-999	n/a	n/a	n/a	n/a	7	[0, 0, 0]	-999	PAL1	1	R1284N
1035.599	0.002	1057632	REC_EVENT	4.998	n/a	2	6	PEAR	<>	BAND	PEAR	7	[0, 0, 0]	-999	PAL1	1	R1284N
1035.601	0.011	1057634	REC_END	n/a	n/a	2	-999	n/a	n/a	n/a	n/a	7	[0, 0, 0]	-999	PAL1	1	R1284N
1035.612	4.534	1057645	RECALL_END	n/a	n/a	-999	-999	n/a	n/a	n/a	n/a	7	[0, 0, 0]	-999	PAL1	1	R1284N
1040.146	10.928	1062179	TRIAL	n/a	n/a	-999	-999	n/a	n/a	n/a	n/a	8	[0, 0, 0]	-999	PAL1	1	R1284N
1051.074	0.003	1073107	ENCODING_START	n/a	n/a	-999	-999	n/a	n/a	n/a	n/a	8	[0, 0, 0]	-999	PAL1	1	R1284N
1051.077	0.251	1073110	STUDY_ORIENT	n/a	n/a	1	3	CANE	n/a	CANE	ROAD	8	[0, 0, 0]	-999	PAL1	1	R1284N
1051.328	0.52	1073361	STUDY_ORIENT_OFF	n/a	n/a	1	3	CANE	n/a	CANE	ROAD	8	[0, 0, 0]	-999	PAL1	1	R1284N
1051.848	4.0	1073881	STUDY_PAIR	n/a	wordpools/wordpool_EN.txt	1	3	CANE	n/a	CANE	ROAD	8	[0, 0, 0]	-999	PAL1	1	R1284N
1055.849	1.002	1077882	PAIR_OFF	n/a	n/a	1	3	CANE	n/a	CANE	ROAD	8	[0, 0, 0]	-999	PAL1	1	R1284N
1056.851	0.251	1078884	STUDY_ORIENT	n/a	n/a	2	6	FOAM	n/a	PIE	FOAM	8	[0, 0, 0]	-999	PAL1	1	R1284N
1057.102	0.534	1079135	STUDY_ORIENT_OFF	n/a	n/a	2	6	FOAM	n/a	PIE	FOAM	8	[0, 0, 0]	-999	PAL1	1	R1284N
1057.636	4.0	1079669	STUDY_PAIR	n/a	wordpools/wordpool_EN.txt	2	6	FOAM	n/a	PIE	FOAM	8	[0, 0, 0]	-999	PAL1	1	R1284N
1061.637	1.002	1083670	PAIR_OFF	n/a	n/a	2	6	FOAM	n/a	PIE	FOAM	8	[0, 0, 0]	-999	PAL1	1	R1284N
1062.639	0.252	1084672	STUDY_ORIENT	n/a	n/a	3	1	TAIL	n/a	TAIL	SHELL	8	[0, 0, 0]	-999	PAL1	1	R1284N
1062.891	0.564	1084924	STUDY_ORIENT_OFF	n/a	n/a	3	1	TAIL	n/a	TAIL	SHELL	8	[0, 0, 0]	-999	PAL1	1	R1284N
1063.455	4.0	1085488	STUDY_PAIR	n/a	wordpools/wordpool_EN.txt	3	1	TAIL	n/a	TAIL	SHELL	8	[0, 0, 0]	-999	PAL1	1	R1284N
1067.456	1.002	1089489	PAIR_OFF	n/a	n/a	3	1	TAIL	n/a	TAIL	SHELL	8	[0, 0, 0]	-999	PAL1	1	R1284N
1068.458	0.252	1090491	STUDY_ORIENT	n/a	n/a	4	4	STEM	n/a	STEM	POLE	8	[0, 0, 0]	-999	PAL1	1	R1284N
1068.71	0.62	1090743	STUDY_ORIENT_OFF	n/a	n/a	4	4	STEM	n/a	STEM	POLE	8	[0, 0, 0]	-999	PAL1	1	R1284N
1069.33	4.0	1091363	STUDY_PAIR	n/a	wordpools/wordpool_EN.txt	4	4	STEM	n/a	STEM	POLE	8	[0, 0, 0]	-999	PAL1	1	R1284N
1073.332	1.003	1095365	PAIR_OFF	n/a	n/a	4	4	STEM	n/a	STEM	POLE	8	[0, 0, 0]	-999	PAL1	1	R1284N
1074.335	0.252	1096368	STUDY_ORIENT	n/a	n/a	5	5	SQUARE	FOOT	FOOT	SQUARE	8	[0, 0, 0]	-999	PAL1	1	R1284N
1074.587	0.513	1096620	STUDY_ORIENT_OFF	n/a	n/a	5	5	SQUARE	FOOT	FOOT	SQUARE	8	[0, 0, 0]	-999	PAL1	1	R1284N
1075.1	4.0	1097133	STUDY_PAIR	n/a	wordpools/wordpool_EN.txt	5	5	SQUARE	FOOT	FOOT	SQUARE	8	[0, 0, 0]	-999	PAL1	1	R1284N
1079.101	1.002	1101134	PAIR_OFF	n/a	n/a	5	5	SQUARE	FOOT	FOOT	SQUARE	8	[0, 0, 0]	-999	PAL1	1	R1284N
1080.103	0.251	1102136	STUDY_ORIENT	n/a	n/a	6	2	CONE	BADGE	BADGE	CONE	8	[0, 0, 0]	-999	PAL1	1	R1284N
1080.354	0.605	1102387	STUDY_ORIENT_OFF	n/a	n/a	6	2	CONE	BADGE	BADGE	CONE	8	[0, 0, 0]	-999	PAL1	1	R1284N
1080.959	4.0	1102992	STUDY_PAIR	n/a	wordpools/wordpool_EN.txt	6	2	CONE	BADGE	BADGE	CONE	8	[0, 0, 0]	-999	PAL1	1	R1284N
1084.96	1.0	1106993	PAIR_OFF	n/a	n/a	6	2	CONE	BADGE	BADGE	CONE	8	[0, 0, 0]	-999	PAL1	1	R1284N
1085.96	0.0	1107993	ENCODING_END	n/a	n/a	-999	-999	n/a	n/a	n/a	n/a	8	[0, 0, 0]	-999	PAL1	1	R1284N
1085.96	0.0	1107993	MATH_START	n/a	n/a	-999	-999	n/a	n/a	n/a	n/a	8	[0, 0, 0]	-999	PAL1	1	R1284N
1085.96	0.007	1107993	START	n/a	n/a	-999	-999	n/a	n/a	n/a	n/a	8	[-999, -999, -999]	-999	PAL1	1	R1284N
1085.967	5.493	1108000	PROB	5.484	n/a	-999	-999	n/a	n/a	n/a	n/a	8	[7, 3, 4]	14	PAL1	1	R1284N
1091.46	5.448	1113493	PROB	5.439	n/a	-999	-999	n/a	n/a	n/a	n/a	8	[6, 7, 3]	16	PAL1	1	R1284N
1096.908	4.097	1118941	PROB	4.088	n/a	-999	-999	n/a	n/a	n/a	n/a	8	[3, 4, 7]	14	PAL1	1	R1284N
1101.005	4.606	1123038	PROB	4.598	n/a	-999	-999	n/a	n/a	n/a	n/a	8	[3, 3, 6]	12	PAL1	1	R1284N
1105.611	5.071	1127644	PROB	5.071	n/a	-999	-999	n/a	n/a	n/a	n/a	8	[2, 9, 4]	15	PAL1	1	R1284N
1110.682	0.004	1132715	STOP	n/a	n/a	-999	-999	n/a	n/a	n/a	n/a	8	[-999, -999, -999]	-999	PAL1	1	R1284N
1110.686	0.0	1132719	MATH_END	n/a	n/a	-999	-999	n/a	n/a	n/a	n/a	8	[0, 0, 0]	-999	PAL1	1	R1284N
1110.686	0.003	1132719	RECALL_START	n/a	n/a	-999	-999	n/a	n/a	n/a	n/a	8	[0, 0, 0]	-999	PAL1	1	R1284N
1110.689	0.251	1132722	TEST_ORIENT	n/a	n/a	3	1	TAIL	n/a	TAIL	SHELL	8	[0, 0, 0]	-999	PAL1	1	R1284N
1110.94	0.533	1132973	RETRIEVAL_ORIENT_OFF	n/a	n/a	-999	-999	n/a	n/a	n/a	n/a	8	[0, 0, 0]	-999	PAL1	1	R1284N
1111.473	0.0	1133506	REC_START	n/a	n/a	3	-999	n/a	n/a	n/a	n/a	8	[0, 0, 0]	-999	PAL1	1	R1284N
1111.473	4.0	1133506	TEST_PROBE	n/a	wordpools/wordpool_EN.txt	3	1	TAIL	n/a	TAIL	SHELL	8	[0, 0, 0]	-999	PAL1	1	R1284N
1115.485	0.997	1137518	PROBE_OFF	n/a	n/a	3	-999	n/a	n/a	n/a	n/a	8	[0, 0, 0]	-999	PAL1	1	R1284N
1116.482	0.003	1138515	REC_EVENT	5.009	n/a	3	1	TAIL	<>	TAIL	SHELL	8	[0, 0, 0]	-999	PAL1	1	R1284N
1116.485	0.006	1138518	REC_END	n/a	n/a	3	-999	n/a	n/a	n/a	n/a	8	[0, 0, 0]	-999	PAL1	1	R1284N
1116.491	0.252	1138524	TEST_ORIENT	n/a	n/a	6	2	CONE	BADGE	BADGE	CONE	8	[0, 0, 0]	-999	PAL1	1	R1284N
1116.743	0.665	1138776	RETRIEVAL_ORIENT_OFF	n/a	n/a	3	-999	n/a	n/a	n/a	n/a	8	[0, 0, 0]	-999	PAL1	1	R1284N
1117.408	4.0	1139441	TEST_PROBE	n/a	wordpools/wordpool_EN.txt	6	2	CONE	BADGE	BADGE	CONE	8	[0, 0, 0]	-999	PAL1	1	R1284N
1117.408	1.172	1139441	REC_START	n/a	n/a	6	-999	n/a	BADGE	n/a	n/a	8	[0, 0, 0]	-999	PAL1	1	R1284N
1118.58	2.84	1140613	REC_EVENT	1.172	n/a	6	2	CONE	BADGE	BADGE	CONE	8	[0, 0, 0]	-999	PAL1	1	R1284N
1121.42	1.001	1143453	PROBE_OFF	n/a	n/a	6	-999	n/a	n/a	n/a	n/a	8	[0, 0, 0]	-999	PAL1	1	R1284N
1122.421	0.008	1144454	REC_END	n/a	n/a	6	-999	n/a	n/a	n/a	n/a	8	[0, 0, 0]	-999	PAL1	1	R1284N
1122.429	0.251	1144462	TEST_ORIENT	n/a	n/a	1	3	CANE	n/a	CANE	ROAD	8	[0, 0, 0]	-999	PAL1	1	R1284N
1122.68	0.713	1144713	RETRIEVAL_ORIENT_OFF	n/a	n/a	6	-999	n/a	n/a	n/a	n/a	8	[0, 0, 0]	-999	PAL1	1	R1284N
1123.393	0.0	1145426	REC_START	n/a	n/a	1	-999	n/a	n/a	n/a	n/a	8	[0, 0, 0]	-999	PAL1	1	R1284N
1123.393	4.0	1145426	TEST_PROBE	n/a	wordpools/wordpool_EN.txt	1	3	CANE	n/a	CANE	ROAD	8	[0, 0, 0]	-999	PAL1	1	R1284N
1127.405	1.0	1149437	PROBE_OFF	n/a	n/a	1	-999	n/a	n/a	n/a	n/a	8	[0, 0, 0]	-999	PAL1	1	R1284N
1128.405	0.003	1150437	REC_END	n/a	n/a	1	-999	n/a	n/a	n/a	n/a	8	[0, 0, 0]	-999	PAL1	1	R1284N
1128.408	0.004	1150440	REC_EVENT	5.015	n/a	1	3	CANE	<>	CANE	ROAD	8	[0, 0, 0]	-999	PAL1	1	R1284N
1128.412	0.252	1150444	TEST_ORIENT	n/a	n/a	4	4	STEM	n/a	STEM	POLE	8	[0, 0, 0]	-999	PAL1	1	R1284N
1128.664	0.668	1150696	RETRIEVAL_ORIENT_OFF	n/a	n/a	1	-999	n/a	n/a	n/a	n/a	8	[0, 0, 0]	-999	PAL1	1	R1284N
1129.332	4.0	1151364	TEST_PROBE	n/a	wordpools/wordpool_EN.txt	4	4	STEM	n/a	STEM	POLE	8	[0, 0, 0]	-999	PAL1	1	R1284N
1129.332	1.94	1151364	REC_START	n/a	n/a	4	-999	n/a	n/a	n/a	n/a	8	[0, 0, 0]	-999	PAL1	1	R1284N
1131.272	2.072	1153304	REC_EVENT	1.94	n/a	4	4	STEM	<>	STEM	POLE	8	[0, 0, 0]	-999	PAL1	1	R1284N
1133.344	1.0	1155376	PROBE_OFF	n/a	n/a	4	-999	n/a	n/a	n/a	n/a	8	[0, 0, 0]	-999	PAL1	1	R1284N
1134.344	0.007	1156376	REC_END	n/a	n/a	4	-999	n/a	n/a	n/a	n/a	8	[0, 0, 0]	-999	PAL1	1	R1284N
1134.351	0.251	1156383	TEST_ORIENT	n/a	n/a	5	5	SQUARE	FOOT	FOOT	SQUARE	8	[0, 0, 0]	-999	PAL1	1	R1284N
1134.602	0.581	1156634	RETRIEVAL_ORIENT_OFF	n/a	n/a	4	-999	n/a	n/a	n/a	n/a	8	[0, 0, 0]	-999	PAL1	1	R1284N
1135.183	4.0	1157215	TEST_PROBE	n/a	wordpools/wordpool_EN.txt	5	5	SQUARE	FOOT	FOOT	SQUARE	8	[0, 0, 0]	-999	PAL1	1	R1284N
1135.183	1.154	1157215	REC_START	n/a	n/a	5	-999	n/a	FOOT	n/a	n/a	8	[0, 0, 0]	-999	PAL1	1	R1284N
1136.337	2.858	1158369	REC_EVENT	1.154	n/a	5	5	SQUARE	FOOT	FOOT	SQUARE	8	[0, 0, 0]	-999	PAL1	1	R1284N
1139.195	1.0	1161227	PROBE_OFF	n/a	n/a	5	-999	n/a	n/a	n/a	n/a	8	[0, 0, 0]	-999	PAL1	1	R1284N
1140.195	0.007	1162227	REC_END	n/a	n/a	5	-999	n/a	n/a	n/a	n/a	8	[0, 0, 0]	-999	PAL1	1	R1284N
1140.202	0.252	1162234	TEST_ORIENT	n/a	n/a	2	6	FOAM	n/a	PIE	FOAM	8	[0, 0, 0]	-999	PAL1	1	R1284N
1140.454	0.569	1162486	RETRIEVAL_ORIENT_OFF	n/a	n/a	5	-999	n/a	n/a	n/a	n/a	8	[0, 0, 0]	-999	PAL1	1	R1284N
1141.023	4.0	1163055	TEST_PROBE	n/a	wordpools/wordpool_EN.txt	2	6	FOAM	n/a	PIE	FOAM	8	[0, 0, 0]	-999	PAL1	1	R1284N
1141.024	4.0	1163056	REC_START	n/a	n/a	2	-999	n/a	n/a	n/a	n/a	8	[0, 0, 0]	-999	PAL1	1	R1284N
1145.024	0.998	1167056	PROBE_OFF	n/a	n/a	2	-999	n/a	n/a	n/a	n/a	8	[0, 0, 0]	-999	PAL1	1	R1284N
1146.022	0.002	1168054	REC_EVENT	4.998	n/a	2	6	FOAM	<>	PIE	FOAM	8	[0, 0, 0]	-999	PAL1	1	R1284N
1146.024	0.011	1168056	REC_END	n/a	n/a	2	-999	n/a	n/a	n/a	n/a	8	[0, 0, 0]	-999	PAL1	1	R1284N
1146.035	4.722	1168067	RECALL_END	n/a	n/a	-999	-999	n/a	n/a	n/a	n/a	8	[0, 0, 0]	-999	PAL1	1	R1284N
1150.757	10.929	1172789	TRIAL	n/a	n/a	-999	-999	n/a	n/a	n/a	n/a	9	[0, 0, 0]	-999	PAL1	1	R1284N
1161.686	0.002	1183718	ENCODING_START	n/a	n/a	-999	-999	n/a	n/a	n/a	n/a	9	[0, 0, 0]	-999	PAL1	1	R1284N
1161.688	0.251	1183720	STUDY_ORIENT	n/a	n/a	1	5	STOOL	SINK	SINK	STOOL	9	[0, 0, 0]	-999	PAL1	1	R1284N
1161.939	0.714	1183971	STUDY_ORIENT_OFF	n/a	n/a	1	5	STOOL	SINK	SINK	STOOL	9	[0, 0, 0]	-999	PAL1	1	R1284N
1162.653	4.0	1184685	STUDY_PAIR	n/a	wordpools/wordpool_EN.txt	1	5	STOOL	SINK	SINK	STOOL	9	[0, 0, 0]	-999	PAL1	1	R1284N
1166.654	1.002	1188686	PAIR_OFF	n/a	n/a	1	5	STOOL	SINK	SINK	STOOL	9	[0, 0, 0]	-999	PAL1	1	R1284N
1167.656	0.251	1189688	STUDY_ORIENT	n/a	n/a	2	4	SHRIMP	ICE	ICE	SHRIMP	9	[0, 0, 0]	-999	PAL1	1	R1284N
1167.907	0.717	1189939	STUDY_ORIENT_OFF	n/a	n/a	2	4	SHRIMP	ICE	ICE	SHRIMP	9	[0, 0, 0]	-999	PAL1	1	R1284N
1168.624	4.0	1190656	STUDY_PAIR	n/a	wordpools/wordpool_EN.txt	2	4	SHRIMP	ICE	ICE	SHRIMP	9	[0, 0, 0]	-999	PAL1	1	R1284N
1172.625	1.002	1194657	PAIR_OFF	n/a	n/a	2	4	SHRIMP	ICE	ICE	SHRIMP	9	[0, 0, 0]	-999	PAL1	1	R1284N
1173.627	0.251	1195659	STUDY_ORIENT	n/a	n/a	3	3	SPARK	n/a	NOSE	SPARK	9	[0, 0, 0]	-999	PAL1	1	R1284N
1173.878	0.575	1195910	STUDY_ORIENT_OFF	n/a	n/a	3	3	SPARK	n/a	NOSE	SPARK	9	[0, 0, 0]	-999	PAL1	1	R1284N
1174.453	4.0	1196485	STUDY_PAIR	n/a	wordpools/wordpool_EN.txt	3	3	SPARK	n/a	NOSE	SPARK	9	[0, 0, 0]	-999	PAL1	1	R1284N
1178.454	1.003	1200486	PAIR_OFF	n/a	n/a	3	3	SPARK	n/a	NOSE	SPARK	9	[0, 0, 0]	-999	PAL1	1	R1284N
1179.457	0.251	1201489	STUDY_ORIENT	n/a	n/a	4	6	DUCK	n/a	DUCK	DIME	9	[0, 0, 0]	-999	PAL1	1	R1284N
1179.708	0.708	1201740	STUDY_ORIENT_OFF	n/a	n/a	4	6	DUCK	n/a	DUCK	DIME	9	[0, 0, 0]	-999	PAL1	1	R1284N
1180.416	4.0	1202448	STUDY_PAIR	n/a	wordpools/wordpool_EN.txt	4	6	DUCK	n/a	DUCK	DIME	9	[0, 0, 0]	-999	PAL1	1	R1284N
1184.417	1.002	1206449	PAIR_OFF	n/a	n/a	4	6	DUCK	n/a	DUCK	DIME	9	[0, 0, 0]	-999	PAL1	1	R1284N
1185.419	0.251	1207451	STUDY_ORIENT	n/a	n/a	5	1	JAR	n/a	JAR	FUDGE	9	[0, 0, 0]	-999	PAL1	1	R1284N
1185.67	0.72	1207702	STUDY_ORIENT_OFF	n/a	n/a	5	1	JAR	n/a	JAR	FUDGE	9	[0, 0, 0]	-999	PAL1	1	R1284N
1186.39	4.0	1208422	STUDY_PAIR	n/a	wordpools/wordpool_EN.txt	5	1	JAR	n/a	JAR	FUDGE	9	[0, 0, 0]	-999	PAL1	1	R1284N
1190.392	1.002	1212424	PAIR_OFF	n/a	n/a	5	1	JAR	n/a	JAR	FUDGE	9	[0, 0, 0]	-999	PAL1	1	R1284N
1191.394	0.251	1213426	STUDY_ORIENT	n/a	n/a	6	2	RAT	MOLE	WOLF	RAT	9	[0, 0, 0]	-999	PAL1	1	R1284N
1191.645	0.719	1213677	STUDY_ORIENT_OFF	n/a	n/a	6	2	RAT	MOLE	WOLF	RAT	9	[0, 0, 0]	-999	PAL1	1	R1284N
1192.364	4.0	1214396	STUDY_PAIR	n/a	wordpools/wordpool_EN.txt	6	2	RAT	MOLE	WOLF	RAT	9	[0, 0, 0]	-999	PAL1	1	R1284N
1196.365	1.001	1218397	PAIR_OFF	n/a	n/a	6	2	RAT	MOLE	WOLF	RAT	9	[0, 0, 0]	-999	PAL1	1	R1284N
1197.366	0.0	1219398	ENCODING_END	n/a	n/a	-999	-999	n/a	n/a	n/a	n/a	9	[0, 0, 0]	-999	PAL1	1	R1284N
1197.366	0.0	1219398	MATH_START	n/a	n/a	-999	-999	n/a	n/a	n/a	n/a	9	[0, 0, 0]	-999	PAL1	1	R1284N
1197.366	0.007	1219398	START	n/a	n/a	-999	-999	n/a	n/a	n/a	n/a	9	[-999, -999, -999]	-999	PAL1	1	R1284N
1197.373	5.636	1219405	PROB	5.627	n/a	-999	-999	n/a	n/a	n/a	n/a	9	[1, 8, 6]	15	PAL1	1	R1284N
1203.009	4.526	1225041	PROB	4.517	n/a	-999	-999	n/a	n/a	n/a	n/a	9	[5, 5, 9]	19	PAL1	1	R1284N
1207.535	5.858	1229567	PROB	5.849	n/a	-999	-999	n/a	n/a	n/a	n/a	9	[5, 5, 9]	19	PAL1	1	R1284N
1213.393	4.942	1235425	PROB	4.942	n/a	-999	-999	n/a	n/a	n/a	n/a	9	[3, 4, 5]	12	PAL1	1	R1284N
1218.335	0.004	1240367	STOP	n/a	n/a	-999	-999	n/a	n/a	n/a	n/a	9	[-999, -999, -999]	-999	PAL1	1	R1284N
1218.339	0.001	1240371	MATH_END	n/a	n/a	-999	-999	n/a	n/a	n/a	n/a	9	[0, 0, 0]	-999	PAL1	1	R1284N
1218.34	0.002	1240372	RECALL_START	n/a	n/a	-999	-999	n/a	n/a	n/a	n/a	9	[0, 0, 0]	-999	PAL1	1	R1284N
1218.342	0.251	1240374	TEST_ORIENT	n/a	n/a	5	1	JAR	n/a	JAR	FUDGE	9	[0, 0, 0]	-999	PAL1	1	R1284N
1218.593	0.705	1240625	RETRIEVAL_ORIENT_OFF	n/a	n/a	-999	-999	n/a	n/a	n/a	n/a	9	[0, 0, 0]	-999	PAL1	1	R1284N
1219.298	4.0	1241330	TEST_PROBE	n/a	wordpools/wordpool_EN.txt	5	1	JAR	n/a	JAR	FUDGE	9	[0, 0, 0]	-999	PAL1	1	R1284N
1219.299	4.0	1241331	REC_START	n/a	n/a	5	-999	n/a	n/a	n/a	n/a	9	[0, 0, 0]	-999	PAL1	1	R1284N
1223.299	1.001	1245331	PROBE_OFF	n/a	n/a	5	-999	n/a	n/a	n/a	n/a	9	[0, 0, 0]	-999	PAL1	1	R1284N
1224.3	0.002	1246332	REC_END	n/a	n/a	5	-999	n/a	n/a	n/a	n/a	9	[0, 0, 0]	-999	PAL1	1	R1284N
1224.302	0.012	1246334	REC_EVENT	5.003	n/a	5	1	JAR	<>	JAR	FUDGE	9	[0, 0, 0]	-999	PAL1	1	R1284N
1224.314	0.251	1246346	TEST_ORIENT	n/a	n/a	6	2	RAT	MOLE	WOLF	RAT	9	[0, 0, 0]	-999	PAL1	1	R1284N
1224.565	0.643	1246597	RETRIEVAL_ORIENT_OFF	n/a	n/a	5	-999	n/a	n/a	n/a	n/a	9	[0, 0, 0]	-999	PAL1	1	R1284N
1225.208	4.0	1247240	TEST_PROBE	n/a	wordpools/wordpool_EN.txt	6	2	RAT	MOLE	WOLF	RAT	9	[0, 0, 0]	-999	PAL1	1	R1284N
1225.209	3.097	1247241	REC_START	n/a	n/a	6	-999	n/a	MOLE	n/a	n/a	9	[0, 0, 0]	-999	PAL1	1	R1284N
1228.306	0.914	1250338	REC_EVENT	3.097	n/a	6	2	RAT	MOLE	WOLF	RAT	9	[0, 0, 0]	-999	PAL1	1	R1284N
1229.22	1.001	1251252	PROBE_OFF	n/a	n/a	6	-999	n/a	n/a	n/a	n/a	9	[0, 0, 0]	-999	PAL1	1	R1284N
1230.221	0.007	1252253	REC_END	n/a	n/a	6	-999	n/a	n/a	n/a	n/a	9	[0, 0, 0]	-999	PAL1	1	R1284N
1230.228	0.251	1252260	TEST_ORIENT	n/a	n/a	3	3	SPARK	n/a	NOSE	SPARK	9	[0, 0, 0]	-999	PAL1	1	R1284N
1230.479	0.586	1252511	RETRIEVAL_ORIENT_OFF	n/a	n/a	6	-999	n/a	n/a	n/a	n/a	9	[0, 0, 0]	-999	PAL1	1	R1284N
1231.065	4.0	1253097	TEST_PROBE	n/a	wordpools/wordpool_EN.txt	3	3	SPARK	n/a	NOSE	SPARK	9	[0, 0, 0]	-999	PAL1	1	R1284N
1231.066	1.351	1253098	REC_START	n/a	n/a	3	-999	n/a	n/a	n/a	n/a	9	[0, 0, 0]	-999	PAL1	1	R1284N
1232.417	2.66	1254449	REC_EVENT	1.351	n/a	3	3	SPARK	<>	NOSE	SPARK	9	[0, 0, 0]	-999	PAL1	1	R1284N
1235.077	1.0	1257109	PROBE_OFF	n/a	n/a	3	-999	n/a	n/a	n/a	n/a	9	[0, 0, 0]	-999	PAL1	1	R1284N
1236.077	0.007	1258109	REC_END	n/a	n/a	3	-999	n/a	n/a	n/a	n/a	9	[0, 0, 0]	-999	PAL1	1	R1284N
1236.084	0.251	1258116	TEST_ORIENT	n/a	n/a	2	4	SHRIMP	ICE	ICE	SHRIMP	9	[0, 0, 0]	-999	PAL1	1	R1284N
1236.335	0.547	1258367	RETRIEVAL_ORIENT_OFF	n/a	n/a	3	-999	n/a	n/a	n/a	n/a	9	[0, 0, 0]	-999	PAL1	1	R1284N
1236.882	4.0	1258914	TEST_PROBE	n/a	wordpools/wordpool_EN.txt	2	4	SHRIMP	ICE	ICE	SHRIMP	9	[0, 0, 0]	-999	PAL1	1	R1284N
1236.882	1.079	1258914	REC_START	n/a	n/a	2	-999	n/a	ICE	n/a	n/a	9	[0, 0, 0]	-999	PAL1	1	R1284N
1237.961	2.923	1259993	REC_EVENT	1.079	n/a	2	4	SHRIMP	ICE	ICE	SHRIMP	9	[0, 0, 0]	-999	PAL1	1	R1284N
1240.884	1.0	1262916	PROBE_OFF	n/a	n/a	2	-999	n/a	n/a	n/a	n/a	9	[0, 0, 0]	-999	PAL1	1	R1284N
1241.884	0.014	1263916	REC_END	n/a	n/a	2	-999	n/a	n/a	n/a	n/a	9	[0, 0, 0]	-999	PAL1	1	R1284N
1241.898	0.252	1263930	TEST_ORIENT	n/a	n/a	1	5	STOOL	SINK	SINK	STOOL	9	[0, 0, 0]	-999	PAL1	1	R1284N
1242.15	0.583	1264182	RETRIEVAL_ORIENT_OFF	n/a	n/a	2	-999	n/a	n/a	n/a	n/a	9	[0, 0, 0]	-999	PAL1	1	R1284N
1242.733	4.0	1264765	TEST_PROBE	n/a	wordpools/wordpool_EN.txt	1	5	STOOL	SINK	SINK	STOOL	9	[0, 0, 0]	-999	PAL1	1	R1284N
1242.733	1.338	1264765	REC_START	n/a	n/a	1	-999	n/a	SINK	n/a	n/a	9	[0, 0, 0]	-999	PAL1	1	R1284N
1244.071	2.664	1266103	REC_EVENT	1.338	n/a	1	5	STOOL	SINK	SINK	STOOL	9	[0, 0, 0]	-999	PAL1	1	R1284N
1246.735	1.0	1268767	PROBE_OFF	n/a	n/a	1	-999	n/a	n/a	n/a	n/a	9	[0, 0, 0]	-999	PAL1	1	R1284N
1247.735	0.014	1269767	REC_END	n/a	n/a	1	-999	n/a	n/a	n/a	n/a	9	[0, 0, 0]	-999	PAL1	1	R1284N
1247.749	0.252	1269781	TEST_ORIENT	n/a	n/a	4	6	DUCK	n/a	DUCK	DIME	9	[0, 0, 0]	-999	PAL1	1	R1284N
1248.001	0.513	1270033	RETRIEVAL_ORIENT_OFF	n/a	n/a	1	-999	n/a	n/a	n/a	n/a	9	[0, 0, 0]	-999	PAL1	1	R1284N
1248.514	4.0	1270546	TEST_PROBE	n/a	wordpools/wordpool_EN.txt	4	6	DUCK	n/a	DUCK	DIME	9	[0, 0, 0]	-999	PAL1	1	R1284N
1248.515	4.0	1270547	REC_START	n/a	n/a	4	-999	n/a	n/a	n/a	n/a	9	[0, 0, 0]	-999	PAL1	1	R1284N
1252.515	0.998	1274547	PROBE_OFF	n/a	n/a	4	-999	n/a	n/a	n/a	n/a	9	[0, 0, 0]	-999	PAL1	1	R1284N
1253.513	0.002	1275545	REC_EVENT	4.998	n/a	4	6	DUCK	<>	DUCK	DIME	9	[0, 0, 0]	-999	PAL1	1	R1284N
1253.515	0.011	1275547	REC_END	n/a	n/a	4	-999	n/a	n/a	n/a	n/a	9	[0, 0, 0]	-999	PAL1	1	R1284N
1253.526	4.932	1275558	RECALL_END	n/a	n/a	-999	-999	n/a	n/a	n/a	n/a	9	[0, 0, 0]	-999	PAL1	1	R1284N
1258.458	10.928	1280490	TRIAL	n/a	n/a	-999	-999	n/a	n/a	n/a	n/a	10	[0, 0, 0]	-999	PAL1	1	R1284N
1269.386	0.003	1291418	ENCODING_START	n/a	n/a	-999	-999	n/a	n/a	n/a	n/a	10	[0, 0, 0]	-999	PAL1	1	R1284N
1269.389	0.251	1291421	STUDY_ORIENT	n/a	n/a	1	3	BRUSH	LIP	LIP	BRUSH	10	[0, 0, 0]	-999	PAL1	1	R1284N
1269.64	0.633	1291672	STUDY_ORIENT_OFF	n/a	n/a	1	3	BRUSH	LIP	LIP	BRUSH	10	[0, 0, 0]	-999	PAL1	1	R1284N
1270.273	4.0	1292305	STUDY_PAIR	n/a	wordpools/wordpool_EN.txt	1	3	BRUSH	LIP	LIP	BRUSH	10	[0, 0, 0]	-999	PAL1	1	R1284N
1274.276	1.003	1296308	PAIR_OFF	n/a	n/a	1	3	BRUSH	LIP	LIP	BRUSH	10	[0, 0, 0]	-999	PAL1	1	R1284N
1275.279	0.252	1297311	STUDY_ORIENT	n/a	n/a	2	4	SIGN	SIGN	WING	SIGN	10	[0, 0, 0]	-999	PAL1	1	R1284N
1275.531	0.699	1297563	STUDY_ORIENT_OFF	n/a	n/a	2	4	SIGN	SIGN	WING	SIGN	10	[0, 0, 0]	-999	PAL1	1	R1284N
1276.23	4.0	1298262	STUDY_PAIR	n/a	wordpools/wordpool_EN.txt	2	4	SIGN	SIGN	WING	SIGN	10	[0, 0, 0]	-999	PAL1	1	R1284N
1280.232	1.002	1302263	PAIR_OFF	n/a	n/a	2	4	SIGN	SIGN	WING	SIGN	10	[0, 0, 0]	-999	PAL1	1	R1284N
1281.234	0.252	1303265	STUDY_ORIENT	n/a	n/a	3	5	MAP	FLOOR	MAP	FLOOR	10	[0, 0, 0]	-999	PAL1	1	R1284N
1281.486	0.542	1303517	STUDY_ORIENT_OFF	n/a	n/a	3	5	MAP	FLOOR	MAP	FLOOR	10	[0, 0, 0]	-999	PAL1	1	R1284N
1282.028	4.0	1304059	STUDY_PAIR	n/a	wordpools/wordpool_EN.txt	3	5	MAP	FLOOR	MAP	FLOOR	10	[0, 0, 0]	-999	PAL1	1	R1284N
1286.029	1.002	1308060	PAIR_OFF	n/a	n/a	3	5	MAP	FLOOR	MAP	FLOOR	10	[0, 0, 0]	-999	PAL1	1	R1284N
1287.031	0.251	1309062	STUDY_ORIENT	n/a	n/a	4	2	ROPE	FLUTE	ROPE	FLUTE	10	[0, 0, 0]	-999	PAL1	1	R1284N
1287.282	0.507	1309313	STUDY_ORIENT_OFF	n/a	n/a	4	2	ROPE	FLUTE	ROPE	FLUTE	10	[0, 0, 0]	-999	PAL1	1	R1284N
1287.789	4.0	1309820	STUDY_PAIR	n/a	wordpools/wordpool_EN.txt	4	2	ROPE	FLUTE	ROPE	FLUTE	10	[0, 0, 0]	-999	PAL1	1	R1284N
1291.79	1.002	1313821	PAIR_OFF	n/a	n/a	4	2	ROPE	FLUTE	ROPE	FLUTE	10	[0, 0, 0]	-999	PAL1	1	R1284N
1292.792	0.251	1314823	STUDY_ORIENT	n/a	n/a	5	1	FUR	n/a	THUMB	FUR	10	[0, 0, 0]	-999	PAL1	1	R1284N
1293.043	0.673	1315074	STUDY_ORIENT_OFF	n/a	n/a	5	1	FUR	n/a	THUMB	FUR	10	[0, 0, 0]	-999	PAL1	1	R1284N
1293.716	4.0	1315747	STUDY_PAIR	n/a	wordpools/wordpool_EN.txt	5	1	FUR	n/a	THUMB	FUR	10	[0, 0, 0]	-999	PAL1	1	R1284N
1297.717	1.002	1319748	PAIR_OFF	n/a	n/a	5	1	FUR	n/a	THUMB	FUR	10	[0, 0, 0]	-999	PAL1	1	R1284N
1298.719	0.251	1320750	STUDY_ORIENT	n/a	n/a	6	6	STAR	n/a	STAR	JUICE	10	[0, 0, 0]	-999	PAL1	1	R1284N
1298.97	0.742	1321001	STUDY_ORIENT_OFF	n/a	n/a	6	6	STAR	n/a	STAR	JUICE	10	[0, 0, 0]	-999	PAL1	1	R1284N
1299.712	4.0	1321743	STUDY_PAIR	n/a	wordpools/wordpool_EN.txt	6	6	STAR	n/a	STAR	JUICE	10	[0, 0, 0]	-999	PAL1	1	R1284N
1303.714	1.0	1325745	PAIR_OFF	n/a	n/a	6	6	STAR	n/a	STAR	JUICE	10	[0, 0, 0]	-999	PAL1	1	R1284N
1304.714	0.0	1326745	ENCODING_END	n/a	n/a	-999	-999	n/a	n/a	n/a	n/a	10	[0, 0, 0]	-999	PAL1	1	R1284N
1304.714	0.0	1326745	MATH_START	n/a	n/a	-999	-999	n/a	n/a	n/a	n/a	10	[0, 0, 0]	-999	PAL1	1	R1284N
1304.714	0.008	1326745	START	n/a	n/a	-999	-999	n/a	n/a	n/a	n/a	10	[-999, -999, -999]	-999	PAL1	1	R1284N
1304.722	4.266	1326753	PROB	4.257	n/a	-999	-999	n/a	n/a	n/a	n/a	10	[7, 1, 4]	12	PAL1	1	R1284N
1308.988	5.16	1331019	PROB	5.152	n/a	-999	-999	n/a	n/a	n/a	n/a	10	[9, 8, 2]	17	PAL1	1	R1284N
1314.148	13.638	1336179	PROB	13.638	n/a	-999	-999	n/a	n/a	n/a	n/a	10	[9, 4, 4]	17	PAL1	1	R1284N
1327.786	0.004	1349817	STOP	n/a	n/a	-999	-999	n/a	n/a	n/a	n/a	10	[-999, -999, -999]	-999	PAL1	1	R1284N
1327.79	0.0	1349821	MATH_END	n/a	n/a	-999	-999	n/a	n/a	n/a	n/a	10	[0, 0, 0]	-999	PAL1	1	R1284N
1327.79	0.003	1349821	RECALL_START	n/a	n/a	-999	-999	n/a	n/a	n/a	n/a	10	[0, 0, 0]	-999	PAL1	1	R1284N
1327.793	0.251	1349824	TEST_ORIENT	n/a	n/a	5	1	FUR	n/a	THUMB	FUR	10	[0, 0, 0]	-999	PAL1	1	R1284N
1328.044	0.569	1350075	RETRIEVAL_ORIENT_OFF	n/a	n/a	-999	-999	n/a	n/a	n/a	n/a	10	[0, 0, 0]	-999	PAL1	1	R1284N
1328.613	4.0	1350644	TEST_PROBE	n/a	wordpools/wordpool_EN.txt	5	1	FUR	n/a	THUMB	FUR	10	[0, 0, 0]	-999	PAL1	1	R1284N
1328.614	4.001	1350645	REC_START	n/a	n/a	5	-999	n/a	n/a	n/a	n/a	10	[0, 0, 0]	-999	PAL1	1	R1284N
1332.615	1.0	1354646	PROBE_OFF	n/a	n/a	5	-999	n/a	n/a	n/a	n/a	10	[0, 0, 0]	-999	PAL1	1	R1284N
1333.615	0.002	1355646	REC_END	n/a	n/a	5	-999	n/a	n/a	n/a	n/a	10	[0, 0, 0]	-999	PAL1	1	R1284N
1333.617	0.011	1355648	REC_EVENT	5.003	n/a	5	1	FUR	<>	THUMB	FUR	10	[0, 0, 0]	-999	PAL1	1	R1284N
1333.628	0.251	1355659	TEST_ORIENT	n/a	n/a	4	2	ROPE	FLUTE	ROPE	FLUTE	10	[0, 0, 0]	-999	PAL1	1	R1284N
1333.879	0.527	1355910	RETRIEVAL_ORIENT_OFF	n/a	n/a	5	-999	n/a	n/a	n/a	n/a	10	[0, 0, 0]	-999	PAL1	1	R1284N
1334.406	4.0	1356437	TEST_PROBE	n/a	wordpools/wordpool_EN.txt	4	2	ROPE	FLUTE	ROPE	FLUTE	10	[0, 0, 0]	-999	PAL1	1	R1284N
1334.406	1.035	1356437	REC_START	n/a	n/a	4	-999	n/a	FLUTE	n/a	n/a	10	[0, 0, 0]	-999	PAL1	1	R1284N
1335.441	2.977	1357472	REC_EVENT	1.035	n/a	4	2	ROPE	FLUTE	ROPE	FLUTE	10	[0, 0, 0]	-999	PAL1	1	R1284N
1338.418	1.0	1360449	PROBE_OFF	n/a	n/a	4	-999	n/a	n/a	n/a	n/a	10	[0, 0, 0]	-999	PAL1	1	R1284N
1339.418	0.007	1361449	REC_END	n/a	n/a	4	-999	n/a	n/a	n/a	n/a	10	[0, 0, 0]	-999	PAL1	1	R1284N
1339.425	0.251	1361456	TEST_ORIENT	n/a	n/a	1	3	BRUSH	LIP	LIP	BRUSH	10	[0, 0, 0]	-999	PAL1	1	R1284N
1339.676	0.56	1361707	RETRIEVAL_ORIENT_OFF	n/a	n/a	4	-999	n/a	n/a	n/a	n/a	10	[0, 0, 0]	-999	PAL1	1	R1284N
1340.236	4.0	1362267	TEST_PROBE	n/a	wordpools/wordpool_EN.txt	1	3	BRUSH	LIP	LIP	BRUSH	10	[0, 0, 0]	-999	PAL1	1	R1284N
1340.237	3.351	1362268	REC_START	n/a	n/a	1	-999	n/a	LIP	n/a	n/a	10	[0, 0, 0]	-999	PAL1	1	R1284N
1343.588	0.466	1365619	REC_EVENT	3.351	n/a	1	3	BRUSH	<>	LIP	BRUSH	10	[0, 0, 0]	-999	PAL1	1	R1284N
1344.054	0.183	1366085	REC_EVENT	3.817	n/a	1	3	BRUSH	LIP	LIP	BRUSH	10	[0, 0, 0]	-999	PAL1	1	R1284N
1344.237	1.0	1366268	PROBE_OFF	n/a	n/a	1	-999	n/a	n/a	n/a	n/a	10	[0, 0, 0]	-999	PAL1	1	R1284N
1345.237	0.014	1367268	REC_END	n/a	n/a	1	-999	n/a	n/a	n/a	n/a	10	[0, 0, 0]	-999	PAL1	1	R1284N
1345.251	0.252	1367282	TEST_ORIENT	n/a	n/a	2	4	SIGN	SIGN	WING	SIGN	10	[0, 0, 0]	-999	PAL1	1	R1284N
1345.503	0.6	1367534	RETRIEVAL_ORIENT_OFF	n/a	n/a	1	-999	n/a	n/a	n/a	n/a	10	[0, 0, 0]	-999	PAL1	1	R1284N
1346.103	4.0	1368134	TEST_PROBE	n/a	wordpools/wordpool_EN.txt	2	4	SIGN	SIGN	WING	SIGN	10	[0, 0, 0]	-999	PAL1	1	R1284N
1346.103	1.865	1368134	REC_START	n/a	n/a	2	-999	n/a	SIGN	n/a	n/a	10	[0, 0, 0]	-999	PAL1	1	R1284N
1347.968	2.147	1369999	REC_EVENT	1.865	n/a	2	4	SIGN	SIGN	WING	SIGN	10	[0, 0, 0]	-999	PAL1	1	R1284N
1350.115	1.0	1372146	PROBE_OFF	n/a	n/a	2	-999	n/a	n/a	n/a	n/a	10	[0, 0, 0]	-999	PAL1	1	R1284N
1351.115	0.007	1373146	REC_END	n/a	n/a	2	-999	n/a	n/a	n/a	n/a	10	[0, 0, 0]	-999	PAL1	1	R1284N
1351.122	0.251	1373153	TEST_ORIENT	n/a	n/a	3	5	MAP	FLOOR	MAP	FLOOR	10	[0, 0, 0]	-999	PAL1	1	R1284N
1351.373	0.63	1373404	RETRIEVAL_ORIENT_OFF	n/a	n/a	2	-999	n/a	n/a	n/a	n/a	10	[0, 0, 0]	-999	PAL1	1	R1284N
1352.003	4.0	1374034	TEST_PROBE	n/a	wordpools/wordpool_EN.txt	3	5	MAP	FLOOR	MAP	FLOOR	10	[0, 0, 0]	-999	PAL1	1	R1284N
1352.004	1.287	1374035	REC_START	n/a	n/a	3	-999	n/a	FLOOR	n/a	n/a	10	[0, 0, 0]	-999	PAL1	1	R1284N
1353.291	2.713	1375322	REC_EVENT	1.287	n/a	3	5	MAP	FLOOR	MAP	FLOOR	10	[0, 0, 0]	-999	PAL1	1	R1284N
1356.004	1.0	1378035	PROBE_OFF	n/a	n/a	3	-999	n/a	n/a	n/a	n/a	10	[0, 0, 0]	-999	PAL1	1	R1284N
1357.004	0.013	1379035	REC_END	n/a	n/a	3	-999	n/a	n/a	n/a	n/a	10	[0, 0, 0]	-999	PAL1	1	R1284N
1357.017	0.252	1379048	TEST_ORIENT	n/a	n/a	6	6	STAR	n/a	STAR	JUICE	10	[0, 0, 0]	-999	PAL1	1	R1284N
1357.269	0.556	1379300	RETRIEVAL_ORIENT_OFF	n/a	n/a	3	-999	n/a	n/a	n/a	n/a	10	[0, 0, 0]	-999	PAL1	1	R1284N
1357.825	4.0	1379856	TEST_PROBE	n/a	wordpools/wordpool_EN.txt	6	6	STAR	n/a	STAR	JUICE	10	[0, 0, 0]	-999	PAL1	1	R1284N
1357.826	4.0	1379857	REC_START	n/a	n/a	6	-999	n/a	n/a	n/a	n/a	10	[0, 0, 0]	-999	PAL1	1	R1284N
1361.826	0.998	1383857	PROBE_OFF	n/a	n/a	6	-999	n/a	n/a	n/a	n/a	10	[0, 0, 0]	-999	PAL1	1	R1284N
1362.824	0.002	1384855	REC_EVENT	4.998	n/a	6	6	STAR	<>	STAR	JUICE	10	[0, 0, 0]	-999	PAL1	1	R1284N
1362.826	0.01	1384857	REC_END	n/a	n/a	6	-999	n/a	n/a	n/a	n/a	10	[0, 0, 0]	-999	PAL1	1	R1284N
1362.836	4.442	1384867	RECALL_END	n/a	n/a	-999	-999	n/a	n/a	n/a	n/a	10	[0, 0, 0]	-999	PAL1	1	R1284N
1367.278	10.928	1389309	TRIAL	n/a	n/a	-999	-999	n/a	n/a	n/a	n/a	11	[0, 0, 0]	-999	PAL1	1	R1284N
1378.206	0.002	1400237	ENCODING_START	n/a	n/a	-999	-999	n/a	n/a	n/a	n/a	11	[0, 0, 0]	-999	PAL1	1	R1284N
1378.208	0.251	1400239	STUDY_ORIENT	n/a	n/a	1	1	COUCH	ROOT	ROOT	COUCH	11	[0, 0, 0]	-999	PAL1	1	R1284N
1378.459	0.535	1400490	STUDY_ORIENT_OFF	n/a	n/a	1	1	COUCH	ROOT	ROOT	COUCH	11	[0, 0, 0]	-999	PAL1	1	R1284N
1378.994	4.0	1401025	STUDY_PAIR	n/a	wordpools/wordpool_EN.txt	1	1	COUCH	ROOT	ROOT	COUCH	11	[0, 0, 0]	-999	PAL1	1	R1284N
1382.996	1.003	1405027	PAIR_OFF	n/a	n/a	1	1	COUCH	ROOT	ROOT	COUCH	11	[0, 0, 0]	-999	PAL1	1	R1284N
1383.999	0.251	1406030	STUDY_ORIENT	n/a	n/a	2	6	MOLE	n/a	MOLE	DRUM	11	[0, 0, 0]	-999	PAL1	1	R1284N
1384.25	0.613	1406281	STUDY_ORIENT_OFF	n/a	n/a	2	6	MOLE	n/a	MOLE	DRUM	11	[0, 0, 0]	-999	PAL1	1	R1284N
1384.863	4.0	1406894	STUDY_PAIR	n/a	wordpools/wordpool_EN.txt	2	6	MOLE	n/a	MOLE	DRUM	11	[0, 0, 0]	-999	PAL1	1	R1284N
1388.864	1.003	1410895	PAIR_OFF	n/a	n/a	2	6	MOLE	n/a	MOLE	DRUM	11	[0, 0, 0]	-999	PAL1	1	R1284N
1389.867	0.251	1411898	STUDY_ORIENT	n/a	n/a	3	3	OAR	n/a	SPOON	OAR	11	[0, 0, 0]	-999	PAL1	1	R1284N
1390.118	0.552	1412149	STUDY_ORIENT_OFF	n/a	n/a	3	3	OAR	n/a	SPOON	OAR	11	[0, 0, 0]	-999	PAL1	1	R1284N
1390.67	4.0	1412701	STUDY_PAIR	n/a	wordpools/wordpool_EN.txt	3	3	OAR	n/a	SPOON	OAR	11	[0, 0, 0]	-999	PAL1	1	R1284N
1394.672	1.003	1416703	PAIR_OFF	n/a	n/a	3	3	OAR	n/a	SPOON	OAR	11	[0, 0, 0]	-999	PAL1	1	R1284N
1395.675	0.251	1417706	STUDY_ORIENT	n/a	n/a	4	4	BALL	n/a	BALL	WHALE	11	[0, 0, 0]	-999	PAL1	1	R1284N
1395.926	0.638	1417957	STUDY_ORIENT_OFF	n/a	n/a	4	4	BALL	n/a	BALL	WHALE	11	[0, 0, 0]	-999	PAL1	1	R1284N
1396.564	4.0	1418595	STUDY_PAIR	n/a	wordpools/wordpool_EN.txt	4	4	BALL	n/a	BALL	WHALE	11	[0, 0, 0]	-999	PAL1	1	R1284N
1400.565	1.003	1422596	PAIR_OFF	n/a	n/a	4	4	BALL	n/a	BALL	WHALE	11	[0, 0, 0]	-999	PAL1	1	R1284N
1401.568	0.251	1423599	STUDY_ORIENT	n/a	n/a	5	5	BED	n/a	BED	TEETH	11	[0, 0, 0]	-999	PAL1	1	R1284N
1401.819	0.524	1423850	STUDY_ORIENT_OFF	n/a	n/a	5	5	BED	n/a	BED	TEETH	11	[0, 0, 0]	-999	PAL1	1	R1284N
1402.343	4.0	1424374	STUDY_PAIR	n/a	wordpools/wordpool_EN.txt	5	5	BED	n/a	BED	TEETH	11	[0, 0, 0]	-999	PAL1	1	R1284N
1406.345	1.002	1428376	PAIR_OFF	n/a	n/a	5	5	BED	n/a	BED	TEETH	11	[0, 0, 0]	-999	PAL1	1	R1284N
1407.347	0.251	1429378	STUDY_ORIENT	n/a	n/a	6	2	GUARD	n/a	GUARD	HORN	11	[0, 0, 0]	-999	PAL1	1	R1284N
1407.598	0.587	1429629	STUDY_ORIENT_OFF	n/a	n/a	6	2	GUARD	n/a	GUARD	HORN	11	[0, 0, 0]	-999	PAL1	1	R1284N
1408.185	4.0	1430216	STUDY_PAIR	n/a	wordpools/wordpool_EN.txt	6	2	GUARD	n/a	GUARD	HORN	11	[0, 0, 0]	-999	PAL1	1	R1284N
1412.186	1.0	1434217	PAIR_OFF	n/a	n/a	6	2	GUARD	n/a	GUARD	HORN	11	[0, 0, 0]	-999	PAL1	1	R1284N
1413.186	0.0	1435217	ENCODING_END	n/a	n/a	-999	-999	n/a	n/a	n/a	n/a	11	[0, 0, 0]	-999	PAL1	1	R1284N
1413.186	0.0	1435217	MATH_START	n/a	n/a	-999	-999	n/a	n/a	n/a	n/a	11	[0, 0, 0]	-999	PAL1	1	R1284N
1413.186	0.007	1435217	START	n/a	n/a	-999	-999	n/a	n/a	n/a	n/a	11	[-999, -999, -999]	-999	PAL1	1	R1284N
1413.193	4.406	1435224	PROB	4.398	n/a	-999	-999	n/a	n/a	n/a	n/a	11	[4, 2, 3]	9	PAL1	1	R1284N
1417.599	4.785	1439630	PROB	4.776	n/a	-999	-999	n/a	n/a	n/a	n/a	11	[2, 1, 3]	6	PAL1	1	R1284N
1422.384	6.56	1444415	PROB	6.55	n/a	-999	-999	n/a	n/a	n/a	n/a	11	[9, 4, 6]	19	PAL1	1	R1284N
1428.944	5.535	1450974	PROB	5.535	n/a	-999	-999	n/a	n/a	n/a	n/a	11	[3, 9, 4]	16	PAL1	1	R1284N
1434.479	0.004	1456509	STOP	n/a	n/a	-999	-999	n/a	n/a	n/a	n/a	11	[-999, -999, -999]	-999	PAL1	1	R1284N
1434.483	0.001	1456513	MATH_END	n/a	n/a	-999	-999	n/a	n/a	n/a	n/a	11	[0, 0, 0]	-999	PAL1	1	R1284N
1434.484	0.002	1456514	RECALL_START	n/a	n/a	-999	-999	n/a	n/a	n/a	n/a	11	[0, 0, 0]	-999	PAL1	1	R1284N
1434.486	0.252	1456516	TEST_ORIENT	n/a	n/a	1	1	COUCH	ROOT	ROOT	COUCH	11	[0, 0, 0]	-999	PAL1	1	R1284N
1434.738	0.73	1456768	RETRIEVAL_ORIENT_OFF	n/a	n/a	-999	-999	n/a	n/a	n/a	n/a	11	[0, 0, 0]	-999	PAL1	1	R1284N
1435.468	4.0	1457498	TEST_PROBE	n/a	wordpools/wordpool_EN.txt	1	1	COUCH	ROOT	ROOT	COUCH	11	[0, 0, 0]	-999	PAL1	1	R1284N
1435.469	1.049	1457499	REC_START	n/a	n/a	1	-999	n/a	ROOT	n/a	n/a	11	[0, 0, 0]	-999	PAL1	1	R1284N
1436.518	2.952	1458548	REC_EVENT	1.049	n/a	1	1	COUCH	ROOT	ROOT	COUCH	11	[0, 0, 0]	-999	PAL1	1	R1284N
1439.47	1.0	1461500	PROBE_OFF	n/a	n/a	1	-999	n/a	n/a	n/a	n/a	11	[0, 0, 0]	-999	PAL1	1	R1284N
1440.47	0.013	1462500	REC_END	n/a	n/a	1	-999	n/a	n/a	n/a	n/a	11	[0, 0, 0]	-999	PAL1	1	R1284N
1440.483	0.252	1462513	TEST_ORIENT	n/a	n/a	6	2	GUARD	n/a	GUARD	HORN	11	[0, 0, 0]	-999	PAL1	1	R1284N
1440.735	0.646	1462765	RETRIEVAL_ORIENT_OFF	n/a	n/a	1	-999	n/a	n/a	n/a	n/a	11	[0, 0, 0]	-999	PAL1	1	R1284N
1441.381	4.0	1463411	TEST_PROBE	n/a	wordpools/wordpool_EN.txt	6	2	GUARD	n/a	GUARD	HORN	11	[0, 0, 0]	-999	PAL1	1	R1284N
1441.382	4.0	1463412	REC_START	n/a	n/a	6	-999	n/a	n/a	n/a	n/a	11	[0, 0, 0]	-999	PAL1	1	R1284N
1445.382	1.009	1467412	PROBE_OFF	n/a	n/a	6	-999	n/a	n/a	n/a	n/a	11	[0, 0, 0]	-999	PAL1	1	R1284N
1446.391	0.003	1468421	REC_EVENT	5.009	n/a	6	2	GUARD	<>	GUARD	HORN	11	[0, 0, 0]	-999	PAL1	1	R1284N
1446.394	0.008	1468424	REC_END	n/a	n/a	6	-999	n/a	n/a	n/a	n/a	11	[0, 0, 0]	-999	PAL1	1	R1284N
1446.402	0.251	1468432	TEST_ORIENT	n/a	n/a	3	3	OAR	n/a	SPOON	OAR	11	[0, 0, 0]	-999	PAL1	1	R1284N
1446.653	0.705	1468683	RETRIEVAL_ORIENT_OFF	n/a	n/a	6	-999	n/a	n/a	n/a	n/a	11	[0, 0, 0]	-999	PAL1	1	R1284N
1447.358	4.0	1469388	TEST_PROBE	n/a	wordpools/wordpool_EN.txt	3	3	OAR	n/a	SPOON	OAR	11	[0, 0, 0]	-999	PAL1	1	R1284N
1447.359	4.011	1469389	REC_START	n/a	n/a	3	-999	n/a	n/a	n/a	n/a	11	[0, 0, 0]	-999	PAL1	1	R1284N
1451.37	0.998	1473400	PROBE_OFF	n/a	n/a	3	-999	n/a	n/a	n/a	n/a	11	[0, 0, 0]	-999	PAL1	1	R1284N
1452.368	0.002	1474398	REC_EVENT	5.009	n/a	3	3	OAR	<>	SPOON	OAR	11	[0, 0, 0]	-999	PAL1	1	R1284N
1452.37	0.007	1474400	REC_END	n/a	n/a	3	-999	n/a	n/a	n/a	n/a	11	[0, 0, 0]	-999	PAL1	1	R1284N
1452.377	0.252	1474407	TEST_ORIENT	n/a	n/a	4	4	BALL	n/a	BALL	WHALE	11	[0, 0, 0]	-999	PAL1	1	R1284N
1452.629	0.719	1474659	RETRIEVAL_ORIENT_OFF	n/a	n/a	3	-999	n/a	n/a	n/a	n/a	11	[0, 0, 0]	-999	PAL1	1	R1284N
1453.348	4.0	1475378	TEST_PROBE	n/a	wordpools/wordpool_EN.txt	4	4	BALL	n/a	BALL	WHALE	11	[0, 0, 0]	-999	PAL1	1	R1284N
1453.348	4.012	1475378	REC_START	n/a	n/a	4	-999	n/a	n/a	n/a	n/a	11	[0, 0, 0]	-999	PAL1	1	R1284N
1457.36	1.0	1479390	PROBE_OFF	n/a	n/a	4	-999	n/a	n/a	n/a	n/a	11	[0, 0, 0]	-999	PAL1	1	R1284N
1458.36	0.003	1480390	REC_END	n/a	n/a	4	-999	n/a	n/a	n/a	n/a	11	[0, 0, 0]	-999	PAL1	1	R1284N
1458.363	0.004	1480393	REC_EVENT	5.015	n/a	4	4	BALL	<>	BALL	WHALE	11	[0, 0, 0]	-999	PAL1	1	R1284N
1458.367	0.251	1480397	TEST_ORIENT	n/a	n/a	5	5	BED	n/a	BED	TEETH	11	[0, 0, 0]	-999	PAL1	1	R1284N
1458.618	0.73	1480648	RETRIEVAL_ORIENT_OFF	n/a	n/a	4	-999	n/a	n/a	n/a	n/a	11	[0, 0, 0]	-999	PAL1	1	R1284N
1459.348	4.0	1481378	TEST_PROBE	n/a	wordpools/wordpool_EN.txt	5	5	BED	n/a	BED	TEETH	11	[0, 0, 0]	-999	PAL1	1	R1284N
1459.349	4.0	1481379	REC_START	n/a	n/a	5	-999	n/a	n/a	n/a	n/a	11	[0, 0, 0]	-999	PAL1	1	R1284N
1463.349	1.0	1485379	PROBE_OFF	n/a	n/a	5	-999	n/a	n/a	n/a	n/a	11	[0, 0, 0]	-999	PAL1	1	R1284N
1464.349	0.003	1486379	REC_END	n/a	n/a	5	-999	n/a	n/a	n/a	n/a	11	[0, 0, 0]	-999	PAL1	1	R1284N
1464.352	0.011	1486382	REC_EVENT	5.003	n/a	5	5	BED	<>	BED	TEETH	11	[0, 0, 0]	-999	PAL1	1	R1284N
1464.363	0.251	1486393	TEST_ORIENT	n/a	n/a	2	6	MOLE	n/a	MOLE	DRUM	11	[0, 0, 0]	-999	PAL1	1	R1284N
1464.614	0.657	1486644	RETRIEVAL_ORIENT_OFF	n/a	n/a	5	-999	n/a	n/a	n/a	n/a	11	[0, 0, 0]	-999	PAL1	1	R1284N
1465.271	4.0	1487301	TEST_PROBE	n/a	wordpools/wordpool_EN.txt	2	6	MOLE	n/a	MOLE	DRUM	11	[0, 0, 0]	-999	PAL1	1	R1284N
1465.272	4.0	1487302	REC_START	n/a	n/a	2	-999	n/a	n/a	n/a	n/a	11	[0, 0, 0]	-999	PAL1	1	R1284N
1469.272	0.998	1491302	PROBE_OFF	n/a	n/a	2	-999	n/a	n/a	n/a	n/a	11	[0, 0, 0]	-999	PAL1	1	R1284N
1470.27	0.002	1492300	REC_EVENT	4.998	n/a	2	6	MOLE	<>	MOLE	DRUM	11	[0, 0, 0]	-999	PAL1	1	R1284N
1470.272	0.01	1492302	REC_END	n/a	n/a	2	-999	n/a	n/a	n/a	n/a	11	[0, 0, 0]	-999	PAL1	1	R1284N
1470.282	4.383	1492312	RECALL_END	n/a	n/a	-999	-999	n/a	n/a	n/a	n/a	11	[0, 0, 0]	-999	PAL1	1	R1284N
1474.665	10.929	1496695	TRIAL	n/a	n/a	-999	-999	n/a	n/a	n/a	n/a	12	[0, 0, 0]	-999	PAL1	1	R1284N
1485.594	0.002	1507624	ENCODING_START	n/a	n/a	-999	-999	n/a	n/a	n/a	n/a	12	[0, 0, 0]	-999	PAL1	1	R1284N
1485.596	0.251	1507626	STUDY_ORIENT	n/a	n/a	1	1	MOUTH	n/a	MOUTH	CHAIR	12	[0, 0, 0]	-999	PAL1	1	R1284N
1485.847	0.633	1507877	STUDY_ORIENT_OFF	n/a	n/a	1	1	MOUTH	n/a	MOUTH	CHAIR	12	[0, 0, 0]	-999	PAL1	1	R1284N
1486.48	4.0	1508510	STUDY_PAIR	n/a	wordpools/wordpool_EN.txt	1	1	MOUTH	n/a	MOUTH	CHAIR	12	[0, 0, 0]	-999	PAL1	1	R1284N
1490.481	1.003	1512511	PAIR_OFF	n/a	n/a	1	1	MOUTH	n/a	MOUTH	CHAIR	12	[0, 0, 0]	-999	PAL1	1	R1284N
1491.484	0.251	1513514	STUDY_ORIENT	n/a	n/a	2	4	FROG	n/a	FILM	FROG	12	[0, 0, 0]	-999	PAL1	1	R1284N
1491.735	0.683	1513765	STUDY_ORIENT_OFF	n/a	n/a	2	4	FROG	n/a	FILM	FROG	12	[0, 0, 0]	-999	PAL1	1	R1284N
1492.418	4.0	1514448	STUDY_PAIR	n/a	wordpools/wordpool_EN.txt	2	4	FROG	n/a	FILM	FROG	12	[0, 0, 0]	-999	PAL1	1	R1284N
1496.419	1.003	1518449	PAIR_OFF	n/a	n/a	2	4	FROG	n/a	FILM	FROG	12	[0, 0, 0]	-999	PAL1	1	R1284N
1497.422	0.252	1519452	STUDY_ORIENT	n/a	n/a	3	5	PANTS	n/a	PANTS	FARM	12	[0, 0, 0]	-999	PAL1	1	R1284N
1497.674	0.711	1519704	STUDY_ORIENT_OFF	n/a	n/a	3	5	PANTS	n/a	PANTS	FARM	12	[0, 0, 0]	-999	PAL1	1	R1284N
1498.385	4.0	1520415	STUDY_PAIR	n/a	wordpools/wordpool_EN.txt	3	5	PANTS	n/a	PANTS	FARM	12	[0, 0, 0]	-999	PAL1	1	R1284N
1502.386	1.002	1524416	PAIR_OFF	n/a	n/a	3	5	PANTS	n/a	PANTS	FARM	12	[0, 0, 0]	-999	PAL1	1	R1284N
1503.388	0.251	1525418	STUDY_ORIENT	n/a	n/a	4	6	GATE	n/a	GATE	VINE	12	[0, 0, 0]	-999	PAL1	1	R1284N
1503.639	0.596	1525669	STUDY_ORIENT_OFF	n/a	n/a	4	6	GATE	n/a	GATE	VINE	12	[0, 0, 0]	-999	PAL1	1	R1284N
1504.235	4.0	1526265	STUDY_PAIR	n/a	wordpools/wordpool_EN.txt	4	6	GATE	n/a	GATE	VINE	12	[0, 0, 0]	-999	PAL1	1	R1284N
1508.236	1.003	1530266	PAIR_OFF	n/a	n/a	4	6	GATE	n/a	GATE	VINE	12	[0, 0, 0]	-999	PAL1	1	R1284N
1509.239	0.251	1531269	STUDY_ORIENT	n/a	n/a	5	3	BOOK	n/a	MAZE	BOOK	12	[0, 0, 0]	-999	PAL1	1	R1284N
1509.49	0.739	1531520	STUDY_ORIENT_OFF	n/a	n/a	5	3	BOOK	n/a	MAZE	BOOK	12	[0, 0, 0]	-999	PAL1	1	R1284N
1510.229	4.0	1532259	STUDY_PAIR	n/a	wordpools/wordpool_EN.txt	5	3	BOOK	n/a	MAZE	BOOK	12	[0, 0, 0]	-999	PAL1	1	R1284N
1514.23	1.003	1536260	PAIR_OFF	n/a	n/a	5	3	BOOK	n/a	MAZE	BOOK	12	[0, 0, 0]	-999	PAL1	1	R1284N
1515.233	0.251	1537263	STUDY_ORIENT	n/a	n/a	6	2	MOON	n/a	MOON	DOLL	12	[0, 0, 0]	-999	PAL1	1	R1284N
1515.484	0.657	1537514	STUDY_ORIENT_OFF	n/a	n/a	6	2	MOON	n/a	MOON	DOLL	12	[0, 0, 0]	-999	PAL1	1	R1284N
1516.141	4.0	1538171	STUDY_PAIR	n/a	wordpools/wordpool_EN.txt	6	2	MOON	n/a	MOON	DOLL	12	[0, 0, 0]	-999	PAL1	1	R1284N
1520.142	1.0	1542172	PAIR_OFF	n/a	n/a	6	2	MOON	n/a	MOON	DOLL	12	[0, 0, 0]	-999	PAL1	1	R1284N
1521.142	0.0	1543172	ENCODING_END	n/a	n/a	-999	-999	n/a	n/a	n/a	n/a	12	[0, 0, 0]	-999	PAL1	1	R1284N
1521.142	0.001	1543172	MATH_START	n/a	n/a	-999	-999	n/a	n/a	n/a	n/a	12	[0, 0, 0]	-999	PAL1	1	R1284N
1521.143	0.007	1543173	START	n/a	n/a	-999	-999	n/a	n/a	n/a	n/a	12	[-999, -999, -999]	-999	PAL1	1	R1284N
1521.15	13.757	1543180	PROB	13.748	n/a	-999	-999	n/a	n/a	n/a	n/a	12	[8, 6, 9]	23	PAL1	1	R1284N
1534.907	7.623	1556937	PROB	7.623	n/a	-999	-999	n/a	n/a	n/a	n/a	12	[7, 7, 6]	20	PAL1	1	R1284N
1542.53	0.004	1564560	STOP	n/a	n/a	-999	-999	n/a	n/a	n/a	n/a	12	[-999, -999, -999]	-999	PAL1	1	R1284N
1542.534	0.0	1564564	MATH_END	n/a	n/a	-999	-999	n/a	n/a	n/a	n/a	12	[0, 0, 0]	-999	PAL1	1	R1284N
1542.534	0.003	1564564	RECALL_START	n/a	n/a	-999	-999	n/a	n/a	n/a	n/a	12	[0, 0, 0]	-999	PAL1	1	R1284N
1542.537	0.251	1564567	TEST_ORIENT	n/a	n/a	1	1	MOUTH	n/a	MOUTH	CHAIR	12	[0, 0, 0]	-999	PAL1	1	R1284N
1542.788	0.655	1564818	RETRIEVAL_ORIENT_OFF	n/a	n/a	-999	-999	n/a	n/a	n/a	n/a	12	[0, 0, 0]	-999	PAL1	1	R1284N
1543.443	4.0	1565473	TEST_PROBE	n/a	wordpools/wordpool_EN.txt	1	1	MOUTH	n/a	MOUTH	CHAIR	12	[0, 0, 0]	-999	PAL1	1	R1284N
1543.443	4.012	1565473	REC_START	n/a	n/a	1	-999	n/a	n/a	n/a	n/a	12	[0, 0, 0]	-999	PAL1	1	R1284N
1547.455	1.0	1569485	PROBE_OFF	n/a	n/a	1	-999	n/a	n/a	n/a	n/a	12	[0, 0, 0]	-999	PAL1	1	R1284N
1548.455	0.003	1570485	REC_END	n/a	n/a	1	-999	n/a	n/a	n/a	n/a	12	[0, 0, 0]	-999	PAL1	1	R1284N
1548.458	0.004	1570488	REC_EVENT	5.015	n/a	1	1	MOUTH	<>	MOUTH	CHAIR	12	[0, 0, 0]	-999	PAL1	1	R1284N
1548.462	0.251	1570492	TEST_ORIENT	n/a	n/a	6	2	MOON	n/a	MOON	DOLL	12	[0, 0, 0]	-999	PAL1	1	R1284N
1548.713	0.733	1570743	RETRIEVAL_ORIENT_OFF	n/a	n/a	1	-999	n/a	n/a	n/a	n/a	12	[0, 0, 0]	-999	PAL1	1	R1284N
