onset	duration	sample	trial_type	response_time	stim_file	serialpos	probepos	probe_word	resp_word	study_1	study_2	list	test	answer	experiment	session	subject
0.0	58.971	1812	INSTRUCT_START	n/a	n/a	-999	-999	n/a	n/a	n/a	n/a	-1	[0, 0, 0]	-999	PAL1	1	R1312N
58.971	29.823	60781	INSTRUCT_END	n/a	n/a	-999	-999	n/a	n/a	n/a	n/a	-1	[0, 0, 0]	-999	PAL1	1	R1312N
88.794	16.449	90603	MIC TEST_START	n/a	n/a	-999	-999	n/a	n/a	n/a	n/a	-1	[0, 0, 0]	-999	PAL1	1	R1312N
105.243	0.021	107052	MIC TEST_END	n/a	n/a	-999	-999	n/a	n/a	n/a	n/a	-1	[0, 0, 0]	-999	PAL1	1	R1312N
105.264	0.001	107073	TRIAL_START	n/a	n/a	-999	-999	n/a	n/a	n/a	n/a	-1	[0, 0, 0]	-999	PAL1	1	R1312N
105.265	0.0	107074	TRIAL	n/a	n/a	-999	-999	n/a	n/a	n/a	n/a	-1	[0, 0, 0]	-999	PAL1	1	R1312N
105.265	3.148	107074	WAITING_START	n/a	n/a	-999	-999	n/a	n/a	n/a	n/a	-1	[0, 0, 0]	-999	PAL1	1	R1312N
108.413	0.001	110222	WAITING_END	n/a	n/a	-999	-999	n/a	n/a	n/a	n/a	-1	[0, 0, 0]	-999	PAL1	1	R1312N
108.414	10.428	110223	COUNTDOWN_START	n/a	n/a	-999	-999	n/a	n/a	n/a	n/a	-1	[0, 0, 0]	-999	PAL1	1	R1312N
118.842	0.001	120650	COUNTDOWN_END	n/a	n/a	-999	-999	n/a	n/a	n/a	n/a	-1	[0, 0, 0]	-999	PAL1	1	R1312N
118.843	0.639	120651	ORIENT_START	n/a	n/a	-999	-999	n/a	n/a	n/a	n/a	-1	[0, 0, 0]	-999	PAL1	1	R1312N
119.482	0.001	121290	ORIENT_END	n/a	n/a	-999	-999	n/a	n/a	n/a	n/a	-1	[0, 0, 0]	-999	PAL1	1	R1312N
119.483	1.034	121291	ENCODING_START	n/a	n/a	-999	-999	n/a	n/a	n/a	n/a	-1	[0, 0, 0]	-999	PAL1	1	R1312N
120.517	4.032	122325	STUDY_PAIR	n/a	n/a	1	-999	n/a	FLOOD	IMAGE	FLOOD	-1	[0, 0, 0]	-999	PAL1	1	R1312N
124.549	0.711	126357	STUDY_PAIR_OFF	n/a	n/a	1	-999	n/a	FLOOD	IMAGE	FLOOD	-1	[0, 0, 0]	-999	PAL1	1	R1312N
125.26	4.04	127068	STUDY_PAIR	n/a	n/a	2	-999	n/a	BABY	RHINO	BEAM	-1	[0, 0, 0]	-999	PAL1	1	R1312N
129.3	0.718	131108	STUDY_PAIR_OFF	n/a	n/a	2	-999	n/a	BABY	RHINO	BEAM	-1	[0, 0, 0]	-999	PAL1	1	R1312N
130.018	4.033	131826	STUDY_PAIR	n/a	n/a	3	-999	n/a	n/a	WAGON	TONGUE	-1	[0, 0, 0]	-999	PAL1	1	R1312N
134.051	0.59	135859	STUDY_PAIR_OFF	n/a	n/a	3	-999	n/a	n/a	WAGON	TONGUE	-1	[0, 0, 0]	-999	PAL1	1	R1312N
134.641	4.027	136449	STUDY_PAIR	n/a	n/a	4	-999	n/a	COTTON	COTTON	CHEST	-1	[0, 0, 0]	-999	PAL1	1	R1312N
138.668	0.614	140476	STUDY_PAIR_OFF	n/a	n/a	4	-999	n/a	COTTON	COTTON	CHEST	-1	[0, 0, 0]	-999	PAL1	1	R1312N
139.282	4.037	141090	STUDY_PAIR	n/a	n/a	5	-999	n/a	RING	RING	WATCH	-1	[0, 0, 0]	-999	PAL1	1	R1312N
143.319	0.581	145127	STUDY_PAIR_OFF	n/a	n/a	5	-999	n/a	RING	RING	WATCH	-1	[0, 0, 0]	-999	PAL1	1	R1312N
143.9	4.036	145707	STUDY_PAIR	n/a	n/a	6	-999	n/a	RHINO	BABY	CAMEL	-1	[0, 0, 0]	-999	PAL1	1	R1312N
147.936	0.001	149743	STUDY_PAIR_OFF	n/a	n/a	6	-999	n/a	RHINO	BABY	CAMEL	-1	[0, 0, 0]	-999	PAL1	1	R1312N
147.937	0.0	149744	ENCODING_END	n/a	n/a	-999	-999	n/a	n/a	n/a	n/a	-1	[0, 0, 0]	-999	PAL1	1	R1312N
147.937	0.001	149744	MATH_START	n/a	n/a	-999	-999	n/a	n/a	n/a	n/a	-1	[0, 0, 0]	-999	PAL1	1	R1312N
147.938	0.015	149745	START	n/a	n/a	-999	-999	n/a	n/a	n/a	n/a	-1	[-999, -999, -999]	-999	PAL1	1	R1312N
147.953	4.284	149760	PROB	4246	n/a	-999	-999	n/a	n/a	n/a	n/a	-1	[4, 4, 7]	13	PAL1	1	R1312N
152.237	9.618	154044	PROB	9586	n/a	-999	-999	n/a	n/a	n/a	n/a	-1	[4, 5, 8]	17	PAL1	1	R1312N
161.855	4.284	163662	PROB	4248	n/a	-999	-999	n/a	n/a	n/a	n/a	-1	[6, 1, 1]	8	PAL1	1	R1312N
166.139	6.548	167946	PROB	6548	n/a	-999	-999	n/a	n/a	n/a	n/a	-1	[8, 7, 2]	17	PAL1	1	R1312N
172.687	0.02	174494	STOP	n/a	n/a	-999	-999	n/a	n/a	n/a	n/a	-1	[-999, -999, -999]	-999	PAL1	1	R1312N
172.707	0.591	174514	MATH_END	n/a	n/a	-999	-999	n/a	n/a	n/a	n/a	-1	[0, 0, 0]	-999	PAL1	1	R1312N
173.298	0.004	175105	RETRIEVAL_START	n/a	n/a	-999	-999	n/a	n/a	n/a	n/a	-1	[0, 0, 0]	-999	PAL1	1	R1312N
173.302	0.272	175109	ORIENT_START	n/a	n/a	-999	-999	n/a	n/a	n/a	n/a	-1	[0, 0, 0]	-999	PAL1	1	R1312N
173.574	0.746	175381	ORIENT_END	n/a	n/a	-999	-999	n/a	n/a	n/a	n/a	-1	[0, 0, 0]	-999	PAL1	1	R1312N
174.32	0.0	176126	REC_START	n/a	n/a	5	1	WATCH	RING	RING	WATCH	-1	[0, 0, 0]	-999	PAL1	1	R1312N
174.32	2.496	176126	PROBE_START	n/a	n/a	5	1	WATCH	RING	RING	WATCH	-1	[0, 0, 0]	-999	PAL1	1	R1312N
176.816	1.542	178622	REC_EVENT	2496	n/a	5	1	WATCH	RING	RING	WATCH	-1	[0, 0, 0]	-999	PAL1	1	R1312N
178.358	1.0	180164	PROBE_END	n/a	n/a	5	1	WATCH	n/a	RING	WATCH	-1	[0, 0, 0]	-999	PAL1	1	R1312N
179.358	0.008	181164	REC_END	n/a	n/a	5	1	WATCH	n/a	RING	WATCH	-1	[0, 0, 0]	-999	PAL1	1	R1312N
179.366	0.276	181172	ORIENT_START	n/a	n/a	-999	-999	n/a	n/a	n/a	n/a	-1	[0, 0, 0]	-999	PAL1	1	R1312N
179.642	0.643	181448	ORIENT_END	n/a	n/a	-999	-999	n/a	n/a	n/a	n/a	-1	[0, 0, 0]	-999	PAL1	1	R1312N
180.285	0.001	182091	REC_START	n/a	n/a	6	2	BABY	RHINO	BABY	CAMEL	-1	[0, 0, 0]	-999	PAL1	1	R1312N
180.286	1.93	182092	PROBE_START	n/a	n/a	6	2	BABY	RHINO	BABY	CAMEL	-1	[0, 0, 0]	-999	PAL1	1	R1312N
182.216	2.093	184022	REC_EVENT	1930	n/a	6	2	BABY	RHINO	BABY	CAMEL	-1	[0, 0, 0]	-999	PAL1	1	R1312N
184.309	1.0	186115	PROBE_END	n/a	n/a	6	2	BABY	n/a	BABY	CAMEL	-1	[0, 0, 0]	-999	PAL1	1	R1312N
185.309	0.014	187115	REC_END	n/a	n/a	6	2	BABY	n/a	BABY	CAMEL	-1	[0, 0, 0]	-999	PAL1	1	R1312N
185.323	0.27	187129	ORIENT_START	n/a	n/a	-999	-999	n/a	n/a	n/a	n/a	-1	[0, 0, 0]	-999	PAL1	1	R1312N
185.593	0.646	187399	ORIENT_END	n/a	n/a	-999	-999	n/a	n/a	n/a	n/a	-1	[0, 0, 0]	-999	PAL1	1	R1312N
186.239	0.001	188045	REC_START	n/a	n/a	3	3	TONGUE	n/a	WAGON	TONGUE	-1	[0, 0, 0]	-999	PAL1	1	R1312N
186.24	3.244	188046	PROBE_START	n/a	n/a	3	3	TONGUE	n/a	WAGON	TONGUE	-1	[0, 0, 0]	-999	PAL1	1	R1312N
189.484	0.793	191290	REC_EVENT	3244	n/a	3	3	TONGUE	<>	WAGON	TONGUE	-1	[0, 0, 0]	-999	PAL1	1	R1312N
190.277	1.001	192083	PROBE_END	n/a	n/a	3	3	TONGUE	n/a	WAGON	TONGUE	-1	[0, 0, 0]	-999	PAL1	1	R1312N
191.278	0.013	193084	REC_END	n/a	n/a	3	3	TONGUE	n/a	WAGON	TONGUE	-1	[0, 0, 0]	-999	PAL1	1	R1312N
191.291	0.269	193097	ORIENT_START	n/a	n/a	-999	-999	n/a	n/a	n/a	n/a	-1	[0, 0, 0]	-999	PAL1	1	R1312N
191.56	0.743	193366	ORIENT_END	n/a	n/a	-999	-999	n/a	n/a	n/a	n/a	-1	[0, 0, 0]	-999	PAL1	1	R1312N
192.303	0.001	194109	REC_START	n/a	n/a	2	4	RHINO	BABY	RHINO	BEAM	-1	[0, 0, 0]	-999	PAL1	1	R1312N
192.304	2.46	194110	PROBE_START	n/a	n/a	2	4	RHINO	BABY	RHINO	BEAM	-1	[0, 0, 0]	-999	PAL1	1	R1312N
194.764	1.564	196570	REC_EVENT	2460	n/a	2	4	RHINO	BABY	RHINO	BEAM	-1	[0, 0, 0]	-999	PAL1	1	R1312N
196.328	1.0	198134	PROBE_END	n/a	n/a	2	4	RHINO	n/a	RHINO	BEAM	-1	[0, 0, 0]	-999	PAL1	1	R1312N
197.328	0.006	199134	REC_END	n/a	n/a	2	4	RHINO	n/a	RHINO	BEAM	-1	[0, 0, 0]	-999	PAL1	1	R1312N
197.334	0.277	199140	ORIENT_START	n/a	n/a	-999	-999	n/a	n/a	n/a	n/a	-1	[0, 0, 0]	-999	PAL1	1	R1312N
197.611	0.689	199417	ORIENT_END	n/a	n/a	-999	-999	n/a	n/a	n/a	n/a	-1	[0, 0, 0]	-999	PAL1	1	R1312N
198.3	0.001	200106	REC_START	n/a	n/a	1	5	IMAGE	FLOOD	IMAGE	FLOOD	-1	[0, 0, 0]	-999	PAL1	1	R1312N
198.301	2.511	200107	PROBE_START	n/a	n/a	1	5	IMAGE	FLOOD	IMAGE	FLOOD	-1	[0, 0, 0]	-999	PAL1	1	R1312N
200.812	1.517	202618	REC_EVENT	2511	n/a	1	5	IMAGE	FLOOD	IMAGE	FLOOD	-1	[0, 0, 0]	-999	PAL1	1	R1312N
202.329	1.0	204135	PROBE_END	n/a	n/a	1	5	IMAGE	n/a	IMAGE	FLOOD	-1	[0, 0, 0]	-999	PAL1	1	R1312N
203.329	0.013	205135	REC_END	n/a	n/a	1	5	IMAGE	n/a	IMAGE	FLOOD	-1	[0, 0, 0]	-999	PAL1	1	R1312N
203.342	0.27	205148	ORIENT_START	n/a	n/a	-999	-999	n/a	n/a	n/a	n/a	-1	[0, 0, 0]	-999	PAL1	1	R1312N
203.612	0.569	205417	ORIENT_END	n/a	n/a	-999	-999	n/a	n/a	n/a	n/a	-1	[0, 0, 0]	-999	PAL1	1	R1312N
204.181	0.001	205986	REC_START	n/a	n/a	4	6	CHEST	COTTON	COTTON	CHEST	-1	[0, 0, 0]	-999	PAL1	1	R1312N
204.182	1.743	205987	PROBE_START	n/a	n/a	4	6	CHEST	COTTON	COTTON	CHEST	-1	[0, 0, 0]	-999	PAL1	1	R1312N
205.925	2.288	207730	REC_EVENT	1743	n/a	4	6	CHEST	COTTON	COTTON	CHEST	-1	[0, 0, 0]	-999	PAL1	1	R1312N
208.213	1.001	210018	PROBE_END	n/a	n/a	4	6	CHEST	n/a	COTTON	CHEST	-1	[0, 0, 0]	-999	PAL1	1	R1312N
209.214	0.01	211019	REC_END	n/a	n/a	4	6	CHEST	n/a	COTTON	CHEST	-1	[0, 0, 0]	-999	PAL1	1	R1312N
209.224	0.0	211029	RETRIEVAL_END	n/a	n/a	-999	-999	n/a	n/a	n/a	n/a	-1	[0, 0, 0]	-999	PAL1	1	R1312N
209.224	11.358	211029	PRACTICE_POST_INSTRUCT_START	n/a	n/a	-999	-999	n/a	n/a	n/a	n/a	-1	[0, 0, 0]	-999	PAL1	1	R1312N
220.582	0.001	222387	PRACTICE_POST_INSTRUCT_END	n/a	n/a	-999	-999	n/a	n/a	n/a	n/a	-1	[0, 0, 0]	-999	PAL1	1	R1312N
220.583	0.023	222388	TRIAL_END	n/a	n/a	-999	-999	n/a	n/a	n/a	n/a	-1	[0, 0, 0]	-999	PAL1	1	R1312N
220.606	0.0	222411	TRIAL_START	n/a	n/a	-999	-999	n/a	n/a	n/a	n/a	-1	[0, 0, 0]	-999	PAL1	1	R1312N
220.606	0.0	222411	TRIAL	n/a	n/a	-999	-999	n/a	n/a	n/a	n/a	1	[0, 0, 0]	-999	PAL1	1	R1312N
220.606	2.46	222411	WAITING_START	n/a	n/a	-999	-999	n/a	n/a	n/a	n/a	1	[0, 0, 0]	-999	PAL1	1	R1312N
223.066	0.0	224871	WAITING_END	n/a	n/a	-999	-999	n/a	n/a	n/a	n/a	1	[0, 0, 0]	-999	PAL1	1	R1312N
223.066	10.431	224871	COUNTDOWN_START	n/a	n/a	-999	-999	n/a	n/a	n/a	n/a	1	[0, 0, 0]	-999	PAL1	1	R1312N
233.497	0.001	235301	COUNTDOWN_END	n/a	n/a	-999	-999	n/a	n/a	n/a	n/a	1	[0, 0, 0]	-999	PAL1	1	R1312N
233.498	0.72	235302	ORIENT_START	n/a	n/a	-999	-999	n/a	n/a	n/a	n/a	1	[0, 0, 0]	-999	PAL1	1	R1312N
234.218	0.0	236022	ENCODING_START	n/a	n/a	-999	-999	n/a	n/a	n/a	n/a	1	[0, 0, 0]	-999	PAL1	1	R1312N
234.218	1.199	236022	ORIENT_END	n/a	n/a	-999	-999	n/a	n/a	n/a	n/a	1	[0, 0, 0]	-999	PAL1	1	R1312N
235.417	4.034	237221	STUDY_PAIR	n/a	wordpools/wordpool_EN.txt	1	-999	n/a	MOUTH	THREAD	MOUTH	1	[0, 0, 0]	-999	PAL1	1	R1312N
239.451	0.69	241255	STUDY_PAIR_OFF	n/a	n/a	1	-999	n/a	MOUTH	THREAD	MOUTH	1	[0, 0, 0]	-999	PAL1	1	R1312N
240.141	4.011	241945	STUDY_PAIR	n/a	wordpools/wordpool_EN.txt	2	-999	n/a	CROWN	CROWN	ICE	1	[0, 0, 0]	-999	PAL1	1	R1312N
244.152	0.726	245956	STUDY_PAIR_OFF	n/a	n/a	2	-999	n/a	CROWN	CROWN	ICE	1	[0, 0, 0]	-999	PAL1	1	R1312N
244.878	4.025	246682	STUDY_PAIR	n/a	wordpools/wordpool_EN.txt	3	-999	n/a	BREAD	SALT	BREAD	1	[0, 0, 0]	-999	PAL1	1	R1312N
248.903	0.642	250707	STUDY_PAIR_OFF	n/a	n/a	3	-999	n/a	BREAD	SALT	BREAD	1	[0, 0, 0]	-999	PAL1	1	R1312N
249.545	4.026	251349	STUDY_PAIR	n/a	wordpools/wordpool_EN.txt	4	-999	n/a	BRUSH	BRUSH	HOLE	1	[0, 0, 0]	-999	PAL1	1	R1312N
253.571	0.706	255375	STUDY_PAIR_OFF	n/a	n/a	4	-999	n/a	BRUSH	BRUSH	HOLE	1	[0, 0, 0]	-999	PAL1	1	R1312N
254.277	4.028	256081	STUDY_PAIR	n/a	wordpools/wordpool_EN.txt	5	-999	n/a	PIG	PIG	DRUM	1	[0, 0, 0]	-999	PAL1	1	R1312N
258.305	0.6	260109	STUDY_PAIR_OFF	n/a	n/a	5	-999	n/a	PIG	PIG	DRUM	1	[0, 0, 0]	-999	PAL1	1	R1312N
258.905	4.034	260709	STUDY_PAIR	n/a	wordpools/wordpool_EN.txt	6	-999	n/a	FAN	CAGE	FAN	1	[0, 0, 0]	-999	PAL1	1	R1312N
262.939	0.0	264743	ENCODING_END	n/a	n/a	-999	-999	n/a	n/a	n/a	n/a	1	[0, 0, 0]	-999	PAL1	1	R1312N
262.939	0.001	264743	STUDY_PAIR_OFF	n/a	n/a	6	-999	n/a	FAN	CAGE	FAN	1	[0, 0, 0]	-999	PAL1	1	R1312N
262.94	0.0	264744	MATH_START	n/a	n/a	-999	-999	n/a	n/a	n/a	n/a	1	[0, 0, 0]	-999	PAL1	1	R1312N
262.94	0.015	264744	START	n/a	n/a	-999	-999	n/a	n/a	n/a	n/a	1	[-999, -999, -999]	-999	PAL1	1	R1312N
262.955	5.401	264759	PROB	5364	n/a	-999	-999	n/a	n/a	n/a	n/a	1	[2, 9, 9]	20	PAL1	1	R1312N
268.356	5.784	270159	PROB	5755	n/a	-999	-999	n/a	n/a	n/a	n/a	1	[2, 2, 7]	11	PAL1	1	R1312N
274.14	7.668	275943	PROB	7643	n/a	-999	-999	n/a	n/a	n/a	n/a	1	[4, 7, 8]	19	PAL1	1	R1312N
281.808	4.399	283611	PROB	4399	n/a	-999	-999	n/a	n/a	n/a	n/a	1	[6, 2, 3]	11	PAL1	1	R1312N
286.207	0.019	288010	STOP	n/a	n/a	-999	-999	n/a	n/a	n/a	n/a	1	[-999, -999, -999]	-999	PAL1	1	R1312N
286.226	0.6	288029	MATH_END	n/a	n/a	-999	-999	n/a	n/a	n/a	n/a	1	[0, 0, 0]	-999	PAL1	1	R1312N
286.826	0.002	288629	RETRIEVAL_START	n/a	n/a	-999	-999	n/a	n/a	n/a	n/a	1	[0, 0, 0]	-999	PAL1	1	R1312N
286.828	0.281	288631	ORIENT_START	n/a	n/a	-999	-999	n/a	n/a	n/a	n/a	1	[0, 0, 0]	-999	PAL1	1	R1312N
287.109	0.748	288912	ORIENT_END	n/a	n/a	-999	-999	n/a	n/a	n/a	n/a	1	[0, 0, 0]	-999	PAL1	1	R1312N
287.857	0.001	289660	REC_START	n/a	n/a	5	1	DRUM	PIG	PIG	DRUM	1	[0, 0, 0]	-999	PAL1	1	R1312N
287.858	1.916	289661	PROBE_START	n/a	wordpools/wordpool_EN.txt	5	1	DRUM	PIG	PIG	DRUM	1	[0, 0, 0]	-999	PAL1	1	R1312N
289.774	2.119	291577	REC_EVENT	1916	n/a	5	1	DRUM	PIG	PIG	DRUM	1	[0, 0, 0]	-999	PAL1	1	R1312N
291.893	1.0	293696	PROBE_END	n/a	n/a	5	1	DRUM	n/a	PIG	DRUM	1	[0, 0, 0]	-999	PAL1	1	R1312N
292.893	0.007	294695	REC_END	n/a	n/a	5	1	DRUM	n/a	PIG	DRUM	1	[0, 0, 0]	-999	PAL1	1	R1312N
292.9	0.277	294702	ORIENT_START	n/a	n/a	-999	-999	n/a	n/a	n/a	n/a	1	[0, 0, 0]	-999	PAL1	1	R1312N
293.177	0.504	294979	ORIENT_END	n/a	n/a	-999	-999	n/a	n/a	n/a	n/a	1	[0, 0, 0]	-999	PAL1	1	R1312N
293.681	0.001	295483	REC_START	n/a	n/a	6	2	CAGE	FAN	CAGE	FAN	1	[0, 0, 0]	-999	PAL1	1	R1312N
293.682	1.787	295484	PROBE_START	n/a	wordpools/wordpool_EN.txt	6	2	CAGE	FAN	CAGE	FAN	1	[0, 0, 0]	-999	PAL1	1	R1312N
295.469	2.242	297271	REC_EVENT	1787	n/a	6	2	CAGE	FAN	CAGE	FAN	1	[0, 0, 0]	-999	PAL1	1	R1312N
297.711	1.001	299513	PROBE_END	n/a	n/a	6	2	CAGE	n/a	CAGE	FAN	1	[0, 0, 0]	-999	PAL1	1	R1312N
298.712	0.011	300514	REC_END	n/a	n/a	6	2	CAGE	n/a	CAGE	FAN	1	[0, 0, 0]	-999	PAL1	1	R1312N
298.723	0.271	300525	ORIENT_START	n/a	n/a	-999	-999	n/a	n/a	n/a	n/a	1	[0, 0, 0]	-999	PAL1	1	R1312N
298.994	0.565	300796	ORIENT_END	n/a	n/a	-999	-999	n/a	n/a	n/a	n/a	1	[0, 0, 0]	-999	PAL1	1	R1312N
299.559	0.0	301361	REC_START	n/a	n/a	1	3	THREAD	MOUTH	THREAD	MOUTH	1	[0, 0, 0]	-999	PAL1	1	R1312N
299.559	1.706	301361	PROBE_START	n/a	wordpools/wordpool_EN.txt	1	3	THREAD	MOUTH	THREAD	MOUTH	1	[0, 0, 0]	-999	PAL1	1	R1312N
301.265	2.33	303067	REC_EVENT	1706	n/a	1	3	THREAD	MOUTH	THREAD	MOUTH	1	[0, 0, 0]	-999	PAL1	1	R1312N
303.595	1.0	305397	PROBE_END	n/a	n/a	1	3	THREAD	n/a	THREAD	MOUTH	1	[0, 0, 0]	-999	PAL1	1	R1312N
304.595	0.012	306397	REC_END	n/a	n/a	1	3	THREAD	n/a	THREAD	MOUTH	1	[0, 0, 0]	-999	PAL1	1	R1312N
304.607	0.272	306409	ORIENT_START	n/a	n/a	-999	-999	n/a	n/a	n/a	n/a	1	[0, 0, 0]	-999	PAL1	1	R1312N
304.879	0.682	306681	ORIENT_END	n/a	n/a	-999	-999	n/a	n/a	n/a	n/a	1	[0, 0, 0]	-999	PAL1	1	R1312N
305.561	0.0	307363	REC_START	n/a	n/a	4	4	HOLE	BRUSH	BRUSH	HOLE	1	[0, 0, 0]	-999	PAL1	1	R1312N
305.561	1.873	307363	PROBE_START	n/a	wordpools/wordpool_EN.txt	4	4	HOLE	BRUSH	BRUSH	HOLE	1	[0, 0, 0]	-999	PAL1	1	R1312N
307.434	2.162	309236	REC_EVENT	1873	n/a	4	4	HOLE	BRUSH	BRUSH	HOLE	1	[0, 0, 0]	-999	PAL1	1	R1312N
309.596	1.0	311398	PROBE_END	n/a	n/a	4	4	HOLE	n/a	BRUSH	HOLE	1	[0, 0, 0]	-999	PAL1	1	R1312N
310.596	0.013	312398	REC_END	n/a	n/a	4	4	HOLE	n/a	BRUSH	HOLE	1	[0, 0, 0]	-999	PAL1	1	R1312N
310.609	0.271	312411	ORIENT_START	n/a	n/a	-999	-999	n/a	n/a	n/a	n/a	1	[0, 0, 0]	-999	PAL1	1	R1312N
310.88	0.501	312682	ORIENT_END	n/a	n/a	-999	-999	n/a	n/a	n/a	n/a	1	[0, 0, 0]	-999	PAL1	1	R1312N
311.381	0.0	313183	REC_START	n/a	n/a	3	5	SALT	BREAD	SALT	BREAD	1	[0, 0, 0]	-999	PAL1	1	R1312N
311.381	1.777	313183	PROBE_START	n/a	wordpools/wordpool_EN.txt	3	5	SALT	BREAD	SALT	BREAD	1	[0, 0, 0]	-999	PAL1	1	R1312N
313.158	2.256	314960	REC_EVENT	1777	n/a	3	5	SALT	BREAD	SALT	BREAD	1	[0, 0, 0]	-999	PAL1	1	R1312N
315.414	1.001	317216	PROBE_END	n/a	n/a	3	5	SALT	n/a	SALT	BREAD	1	[0, 0, 0]	-999	PAL1	1	R1312N
316.415	0.011	318217	REC_END	n/a	n/a	3	5	SALT	n/a	SALT	BREAD	1	[0, 0, 0]	-999	PAL1	1	R1312N
316.426	0.272	318228	ORIENT_START	n/a	n/a	-999	-999	n/a	n/a	n/a	n/a	1	[0, 0, 0]	-999	PAL1	1	R1312N
316.698	0.744	318500	ORIENT_END	n/a	n/a	-999	-999	n/a	n/a	n/a	n/a	1	[0, 0, 0]	-999	PAL1	1	R1312N
317.442	0.0	319244	REC_START	n/a	n/a	2	6	ICE	CROWN	CROWN	ICE	1	[0, 0, 0]	-999	PAL1	1	R1312N
317.442	2.025	319244	PROBE_START	n/a	wordpools/wordpool_EN.txt	2	6	ICE	CROWN	CROWN	ICE	1	[0, 0, 0]	-999	PAL1	1	R1312N
319.467	1.998	321269	REC_EVENT	2025	n/a	2	6	ICE	CROWN	CROWN	ICE	1	[0, 0, 0]	-999	PAL1	1	R1312N
321.465	1.0	323267	PROBE_END	n/a	n/a	2	6	ICE	n/a	CROWN	ICE	1	[0, 0, 0]	-999	PAL1	1	R1312N
322.465	0.006	324267	REC_END	n/a	n/a	2	6	ICE	n/a	CROWN	ICE	1	[0, 0, 0]	-999	PAL1	1	R1312N
322.471	0.0	324273	RETRIEVAL_END	n/a	n/a	-999	-999	n/a	n/a	n/a	n/a	1	[0, 0, 0]	-999	PAL1	1	R1312N
322.471	0.019	324273	TRIAL_END	n/a	n/a	-999	-999	n/a	n/a	n/a	n/a	1	[0, 0, 0]	-999	PAL1	1	R1312N
322.49	0.0	324292	TRIAL_START	n/a	n/a	-999	-999	n/a	n/a	n/a	n/a	1	[0, 0, 0]	-999	PAL1	1	R1312N
322.49	0.0	324292	TRIAL	n/a	n/a	-999	-999	n/a	n/a	n/a	n/a	2	[0, 0, 0]	-999	PAL1	1	R1312N
322.49	4.643	324292	WAITING_START	n/a	n/a	-999	-999	n/a	n/a	n/a	n/a	2	[0, 0, 0]	-999	PAL1	1	R1312N
327.133	0.0	328934	WAITING_END	n/a	n/a	-999	-999	n/a	n/a	n/a	n/a	2	[0, 0, 0]	-999	PAL1	1	R1312N
327.133	10.429	328934	COUNTDOWN_START	n/a	n/a	-999	-999	n/a	n/a	n/a	n/a	2	[0, 0, 0]	-999	PAL1	1	R1312N
337.562	0.0	339363	COUNTDOWN_END	n/a	n/a	-999	-999	n/a	n/a	n/a	n/a	2	[0, 0, 0]	-999	PAL1	1	R1312N
337.562	0.572	339363	ORIENT_START	n/a	n/a	-999	-999	n/a	n/a	n/a	n/a	2	[0, 0, 0]	-999	PAL1	1	R1312N
338.134	0.001	339935	ORIENT_END	n/a	n/a	-999	-999	n/a	n/a	n/a	n/a	2	[0, 0, 0]	-999	PAL1	1	R1312N
338.135	1.185	339936	ENCODING_START	n/a	n/a	-999	-999	n/a	n/a	n/a	n/a	2	[0, 0, 0]	-999	PAL1	1	R1312N
339.32	4.032	341121	STUDY_PAIR	n/a	wordpools/wordpool_EN.txt	1	-999	n/a	LAMP	LAMP	SHOE	2	[0, 0, 0]	-999	PAL1	1	R1312N
343.352	0.746	345153	STUDY_PAIR_OFF	n/a	n/a	1	-999	n/a	LAMP	LAMP	SHOE	2	[0, 0, 0]	-999	PAL1	1	R1312N
344.098	4.038	345899	STUDY_PAIR	n/a	wordpools/wordpool_EN.txt	2	-999	n/a	ZOO	CORD	ZOO	2	[0, 0, 0]	-999	PAL1	1	R1312N
348.136	0.666	349937	STUDY_PAIR_OFF	n/a	n/a	2	-999	n/a	ZOO	CORD	ZOO	2	[0, 0, 0]	-999	PAL1	1	R1312N
348.802	4.035	350603	STUDY_PAIR	n/a	wordpools/wordpool_EN.txt	3	-999	n/a	BOX	BOX	SMILE	2	[0, 0, 0]	-999	PAL1	1	R1312N
352.837	0.724	354637	STUDY_PAIR_OFF	n/a	n/a	3	-999	n/a	BOX	BOX	SMILE	2	[0, 0, 0]	-999	PAL1	1	R1312N
353.561	4.027	355361	STUDY_PAIR	n/a	wordpools/wordpool_EN.txt	4	-999	n/a	HEN	HEN	SOCK	2	[0, 0, 0]	-999	PAL1	1	R1312N
357.588	0.606	359388	STUDY_PAIR_OFF	n/a	n/a	4	-999	n/a	HEN	HEN	SOCK	2	[0, 0, 0]	-999	PAL1	1	R1312N
358.194	4.028	359994	STUDY_PAIR	n/a	wordpools/wordpool_EN.txt	5	-999	n/a	BENCH	STEAM	BENCH	2	[0, 0, 0]	-999	PAL1	1	R1312N
362.222	0.551	364022	STUDY_PAIR_OFF	n/a	n/a	5	-999	n/a	BENCH	STEAM	BENCH	2	[0, 0, 0]	-999	PAL1	1	R1312N
362.773	4.033	364573	STUDY_PAIR	n/a	wordpools/wordpool_EN.txt	6	-999	n/a	n/a	BROOM	STONE	2	[0, 0, 0]	-999	PAL1	1	R1312N
366.806	0.0	368606	STUDY_PAIR_OFF	n/a	n/a	6	-999	n/a	n/a	BROOM	STONE	2	[0, 0, 0]	-999	PAL1	1	R1312N
366.806	0.001	368606	ENCODING_END	n/a	n/a	-999	-999	n/a	n/a	n/a	n/a	2	[0, 0, 0]	-999	PAL1	1	R1312N
366.807	0.0	368607	MATH_START	n/a	n/a	-999	-999	n/a	n/a	n/a	n/a	2	[0, 0, 0]	-999	PAL1	1	R1312N
366.807	0.015	368607	START	n/a	n/a	-999	-999	n/a	n/a	n/a	n/a	2	[-999, -999, -999]	-999	PAL1	1	R1312N
366.822	7.051	368622	PROB	7017	n/a	-999	-999	n/a	n/a	n/a	n/a	2	[8, 9, 1]	19	PAL1	1	R1312N
373.873	8.602	375673	PROB	8574	n/a	-999	-999	n/a	n/a	n/a	n/a	2	[9, 8, 4]	22	PAL1	1	R1312N
382.475	10.539	384274	PROB	10539	n/a	-999	-999	n/a	n/a	n/a	n/a	2	[6, 4, 7]	17	PAL1	1	R1312N
393.014	0.013	394813	STOP	n/a	n/a	-999	-999	n/a	n/a	n/a	n/a	2	[-999, -999, -999]	-999	PAL1	1	R1312N
393.027	0.555	394826	MATH_END	n/a	n/a	-999	-999	n/a	n/a	n/a	n/a	2	[0, 0, 0]	-999	PAL1	1	R1312N
393.582	0.001	395381	RETRIEVAL_START	n/a	n/a	-999	-999	n/a	n/a	n/a	n/a	2	[0, 0, 0]	-999	PAL1	1	R1312N
393.583	0.277	395382	ORIENT_START	n/a	n/a	-999	-999	n/a	n/a	n/a	n/a	2	[0, 0, 0]	-999	PAL1	1	R1312N
393.86	0.588	395659	ORIENT_END	n/a	n/a	-999	-999	n/a	n/a	n/a	n/a	2	[0, 0, 0]	-999	PAL1	1	R1312N
394.448	0.0	396247	REC_START	n/a	n/a	5	1	STEAM	BENCH	STEAM	BENCH	2	[0, 0, 0]	-999	PAL1	1	R1312N
394.448	3.165	396247	PROBE_START	n/a	wordpools/wordpool_EN.txt	5	1	STEAM	BENCH	STEAM	BENCH	2	[0, 0, 0]	-999	PAL1	1	R1312N
397.613	0.865	399412	REC_EVENT	3165	n/a	5	1	STEAM	BENCH	STEAM	BENCH	2	[0, 0, 0]	-999	PAL1	1	R1312N
398.478	0.999	400277	PROBE_END	n/a	n/a	5	1	STEAM	n/a	STEAM	BENCH	2	[0, 0, 0]	-999	PAL1	1	R1312N
399.477	0.013	401276	REC_END	n/a	n/a	5	1	STEAM	n/a	STEAM	BENCH	2	[0, 0, 0]	-999	PAL1	1	R1312N
399.49	0.271	401289	ORIENT_START	n/a	n/a	-999	-999	n/a	n/a	n/a	n/a	2	[0, 0, 0]	-999	PAL1	1	R1312N
399.761	0.701	401560	ORIENT_END	n/a	n/a	-999	-999	n/a	n/a	n/a	n/a	2	[0, 0, 0]	-999	PAL1	1	R1312N
400.462	0.001	402261	REC_START	n/a	n/a	6	2	BROOM	n/a	BROOM	STONE	2	[0, 0, 0]	-999	PAL1	1	R1312N
400.463	3.91	402262	PROBE_START	n/a	wordpools/wordpool_EN.txt	6	2	BROOM	n/a	BROOM	STONE	2	[0, 0, 0]	-999	PAL1	1	R1312N
404.373	0.122	406172	REC_EVENT	3910	n/a	6	2	BROOM	<>	BROOM	STONE	2	[0, 0, 0]	-999	PAL1	1	R1312N
404.495	1.0	406294	PROBE_END	n/a	n/a	6	2	BROOM	n/a	BROOM	STONE	2	[0, 0, 0]	-999	PAL1	1	R1312N
405.495	0.013	407294	REC_END	n/a	n/a	6	2	BROOM	n/a	BROOM	STONE	2	[0, 0, 0]	-999	PAL1	1	R1312N
405.508	0.271	407307	ORIENT_START	n/a	n/a	-999	-999	n/a	n/a	n/a	n/a	2	[0, 0, 0]	-999	PAL1	1	R1312N
405.779	0.584	407578	ORIENT_END	n/a	n/a	-999	-999	n/a	n/a	n/a	n/a	2	[0, 0, 0]	-999	PAL1	1	R1312N
406.363	0.0	408162	REC_START	n/a	n/a	1	3	SHOE	LAMP	LAMP	SHOE	2	[0, 0, 0]	-999	PAL1	1	R1312N
406.363	1.984	408162	PROBE_START	n/a	wordpools/wordpool_EN.txt	1	3	SHOE	LAMP	LAMP	SHOE	2	[0, 0, 0]	-999	PAL1	1	R1312N
408.347	2.049	410146	REC_EVENT	1984	n/a	1	3	SHOE	LAMP	LAMP	SHOE	2	[0, 0, 0]	-999	PAL1	1	R1312N
410.396	1.001	412195	PROBE_END	n/a	n/a	1	3	SHOE	n/a	LAMP	SHOE	2	[0, 0, 0]	-999	PAL1	1	R1312N
411.397	0.012	413196	REC_END	n/a	n/a	1	3	SHOE	n/a	LAMP	SHOE	2	[0, 0, 0]	-999	PAL1	1	R1312N
411.409	0.271	413208	ORIENT_START	n/a	n/a	-999	-999	n/a	n/a	n/a	n/a	2	[0, 0, 0]	-999	PAL1	1	R1312N
411.68	0.616	413479	ORIENT_END	n/a	n/a	-999	-999	n/a	n/a	n/a	n/a	2	[0, 0, 0]	-999	PAL1	1	R1312N
412.296	0.001	414094	REC_START	n/a	n/a	2	4	CORD	ZOO	CORD	ZOO	2	[0, 0, 0]	-999	PAL1	1	R1312N
412.297	2.265	414095	PROBE_START	n/a	wordpools/wordpool_EN.txt	2	4	CORD	ZOO	CORD	ZOO	2	[0, 0, 0]	-999	PAL1	1	R1312N
414.562	1.769	416360	REC_EVENT	2265	n/a	2	4	CORD	ZOO	CORD	ZOO	2	[0, 0, 0]	-999	PAL1	1	R1312N
416.331	0.999	418129	PROBE_END	n/a	n/a	2	4	CORD	n/a	CORD	ZOO	2	[0, 0, 0]	-999	PAL1	1	R1312N
417.33	0.011	419128	REC_END	n/a	n/a	2	4	CORD	n/a	CORD	ZOO	2	[0, 0, 0]	-999	PAL1	1	R1312N
417.341	0.273	419139	ORIENT_START	n/a	n/a	-999	-999	n/a	n/a	n/a	n/a	2	[0, 0, 0]	-999	PAL1	1	R1312N
417.614	0.507	419412	ORIENT_END	n/a	n/a	-999	-999	n/a	n/a	n/a	n/a	2	[0, 0, 0]	-999	PAL1	1	R1312N
418.121	0.0	419919	REC_START	n/a	n/a	3	5	SMILE	BOX	BOX	SMILE	2	[0, 0, 0]	-999	PAL1	1	R1312N
418.121	1.79	419919	PROBE_START	n/a	wordpools/wordpool_EN.txt	3	5	SMILE	BOX	BOX	SMILE	2	[0, 0, 0]	-999	PAL1	1	R1312N
419.911	2.237	421709	REC_EVENT	1790	n/a	3	5	SMILE	BOX	BOX	SMILE	2	[0, 0, 0]	-999	PAL1	1	R1312N
422.148	1.0	423946	PROBE_END	n/a	n/a	3	5	SMILE	n/a	BOX	SMILE	2	[0, 0, 0]	-999	PAL1	1	R1312N
423.148	0.011	424946	REC_END	n/a	n/a	3	5	SMILE	n/a	BOX	SMILE	2	[0, 0, 0]	-999	PAL1	1	R1312N
423.159	0.273	424957	ORIENT_START	n/a	n/a	-999	-999	n/a	n/a	n/a	n/a	2	[0, 0, 0]	-999	PAL1	1	R1312N
423.432	0.629	425230	ORIENT_END	n/a	n/a	-999	-999	n/a	n/a	n/a	n/a	2	[0, 0, 0]	-999	PAL1	1	R1312N
424.061	0.0	425859	REC_START	n/a	n/a	4	6	SOCK	HEN	HEN	SOCK	2	[0, 0, 0]	-999	PAL1	1	R1312N
424.061	1.757	425859	PROBE_START	n/a	wordpools/wordpool_EN.txt	4	6	SOCK	HEN	HEN	SOCK	2	[0, 0, 0]	-999	PAL1	1	R1312N
425.818	2.281	427616	REC_EVENT	1757	n/a	4	6	SOCK	HEN	HEN	SOCK	2	[0, 0, 0]	-999	PAL1	1	R1312N
428.099	1.001	429897	PROBE_END	n/a	n/a	4	6	SOCK	n/a	HEN	SOCK	2	[0, 0, 0]	-999	PAL1	1	R1312N
429.1	0.011	430898	REC_END	n/a	n/a	4	6	SOCK	n/a	HEN	SOCK	2	[0, 0, 0]	-999	PAL1	1	R1312N
429.111	0.0	430909	RETRIEVAL_END	n/a	n/a	-999	-999	n/a	n/a	n/a	n/a	2	[0, 0, 0]	-999	PAL1	1	R1312N
429.111	0.021	430909	TRIAL_END	n/a	n/a	-999	-999	n/a	n/a	n/a	n/a	2	[0, 0, 0]	-999	PAL1	1	R1312N
429.132	0.0	430930	TRIAL_START	n/a	n/a	-999	-999	n/a	n/a	n/a	n/a	2	[0, 0, 0]	-999	PAL1	1	R1312N
429.132	0.0	430930	TRIAL	n/a	n/a	-999	-999	n/a	n/a	n/a	n/a	3	[0, 0, 0]	-999	PAL1	1	R1312N
429.132	3.968	430930	WAITING_START	n/a	n/a	-999	-999	n/a	n/a	n/a	n/a	3	[0, 0, 0]	-999	PAL1	1	R1312N
433.1	0.0	434898	WAITING_END	n/a	n/a	-999	-999	n/a	n/a	n/a	n/a	3	[0, 0, 0]	-999	PAL1	1	R1312N
433.1	10.429	434898	COUNTDOWN_START	n/a	n/a	-999	-999	n/a	n/a	n/a	n/a	3	[0, 0, 0]	-999	PAL1	1	R1312N
443.529	0.001	445326	COUNTDOWN_END	n/a	n/a	-999	-999	n/a	n/a	n/a	n/a	3	[0, 0, 0]	-999	PAL1	1	R1312N
443.53	0.639	445327	ORIENT_START	n/a	n/a	-999	-999	n/a	n/a	n/a	n/a	3	[0, 0, 0]	-999	PAL1	1	R1312N
444.169	0.0	445966	ORIENT_END	n/a	n/a	-999	-999	n/a	n/a	n/a	n/a	3	[0, 0, 0]	-999	PAL1	1	R1312N
444.169	1.242	445966	ENCODING_START	n/a	n/a	-999	-999	n/a	n/a	n/a	n/a	3	[0, 0, 0]	-999	PAL1	1	R1312N
445.411	4.008	447208	STUDY_PAIR	n/a	wordpools/wordpool_EN.txt	1	-999	n/a	RAT	BIRD	RAT	3	[0, 0, 0]	-999	PAL1	1	R1312N
449.419	0.579	451216	STUDY_PAIR_OFF	n/a	n/a	1	-999	n/a	RAT	BIRD	RAT	3	[0, 0, 0]	-999	PAL1	1	R1312N
449.998	4.039	451795	STUDY_PAIR	n/a	wordpools/wordpool_EN.txt	2	-999	n/a	FLAME	WHALE	FLAME	3	[0, 0, 0]	-999	PAL1	1	R1312N
454.037	0.673	455834	STUDY_PAIR_OFF	n/a	n/a	2	-999	n/a	FLAME	WHALE	FLAME	3	[0, 0, 0]	-999	PAL1	1	R1312N
454.71	4.028	456507	STUDY_PAIR	n/a	wordpools/wordpool_EN.txt	3	-999	n/a	n/a	PLANT	STOOL	3	[0, 0, 0]	-999	PAL1	1	R1312N
458.738	0.61	460535	STUDY_PAIR_OFF	n/a	n/a	3	-999	n/a	n/a	PLANT	STOOL	3	[0, 0, 0]	-999	PAL1	1	R1312N
459.348	4.04	461145	STUDY_PAIR	n/a	wordpools/wordpool_EN.txt	4	-999	n/a	SHIELD	SHIELD	VASE	3	[0, 0, 0]	-999	PAL1	1	R1312N
463.388	0.744	465185	STUDY_PAIR_OFF	n/a	n/a	4	-999	n/a	SHIELD	SHIELD	VASE	3	[0, 0, 0]	-999	PAL1	1	R1312N
464.132	4.04	465929	STUDY_PAIR	n/a	wordpools/wordpool_EN.txt	5	-999	n/a	GLASS	PLANE	GLASS	3	[0, 0, 0]	-999	PAL1	1	R1312N
468.172	0.65	469969	STUDY_PAIR_OFF	n/a	n/a	5	-999	n/a	GLASS	PLANE	GLASS	3	[0, 0, 0]	-999	PAL1	1	R1312N
468.822	4.035	470619	STUDY_PAIR	n/a	wordpools/wordpool_EN.txt	6	-999	n/a	n/a	CHAIR	SLUSH	3	[0, 0, 0]	-999	PAL1	1	R1312N
472.857	0.0	474653	STUDY_PAIR_OFF	n/a	n/a	6	-999	n/a	n/a	CHAIR	SLUSH	3	[0, 0, 0]	-999	PAL1	1	R1312N
472.857	0.0	474653	ENCODING_END	n/a	n/a	-999	-999	n/a	n/a	n/a	n/a	3	[0, 0, 0]	-999	PAL1	1	R1312N
472.857	0.0	474653	MATH_START	n/a	n/a	-999	-999	n/a	n/a	n/a	n/a	3	[0, 0, 0]	-999	PAL1	1	R1312N
472.857	0.016	474653	START	n/a	n/a	-999	-999	n/a	n/a	n/a	n/a	3	[-999, -999, -999]	-999	PAL1	1	R1312N
472.873	10.368	474669	PROB	10341	n/a	-999	-999	n/a	n/a	n/a	n/a	3	[7, 1, 6]	14	PAL1	1	R1312N
483.241	8.052	485037	PROB	8022	n/a	-999	-999	n/a	n/a	n/a	n/a	3	[3, 5, 8]	16	PAL1	1	R1312N
491.293	6.673	493089	PROB	6673	n/a	-999	-999	n/a	n/a	n/a	n/a	3	[2, 4, 3]	8	PAL1	1	R1312N
497.966	0.01	499762	STOP	n/a	n/a	-999	-999	n/a	n/a	n/a	n/a	3	[-999, -999, -999]	-999	PAL1	1	R1312N
497.976	0.574	499772	MATH_END	n/a	n/a	-999	-999	n/a	n/a	n/a	n/a	3	[0, 0, 0]	-999	PAL1	1	R1312N
498.55	0.002	500346	RETRIEVAL_START	n/a	n/a	-999	-999	n/a	n/a	n/a	n/a	3	[0, 0, 0]	-999	PAL1	1	R1312N
498.552	0.276	500348	ORIENT_START	n/a	n/a	-999	-999	n/a	n/a	n/a	n/a	3	[0, 0, 0]	-999	PAL1	1	R1312N
498.828	0.519	500624	ORIENT_END	n/a	n/a	-999	-999	n/a	n/a	n/a	n/a	3	[0, 0, 0]	-999	PAL1	1	R1312N
499.347	0.0	501143	REC_START	n/a	n/a	3	1	STOOL	n/a	PLANT	STOOL	3	[0, 0, 0]	-999	PAL1	1	R1312N
499.347	4.03	501143	PROBE_START	n/a	wordpools/wordpool_EN.txt	3	1	STOOL	n/a	PLANT	STOOL	3	[0, 0, 0]	-999	PAL1	1	R1312N
503.377	0.001	505172	REC_EVENT	4030	n/a	3	1	STOOL	<>	PLANT	STOOL	3	[0, 0, 0]	-999	PAL1	1	R1312N
503.378	1.001	505173	PROBE_END	n/a	n/a	3	1	STOOL	n/a	PLANT	STOOL	3	[0, 0, 0]	-999	PAL1	1	R1312N
504.379	0.01	506174	REC_END	n/a	n/a	3	1	STOOL	n/a	PLANT	STOOL	3	[0, 0, 0]	-999	PAL1	1	R1312N
504.389	0.273	506184	ORIENT_START	n/a	n/a	-999	-999	n/a	n/a	n/a	n/a	3	[0, 0, 0]	-999	PAL1	1	R1312N
504.662	0.669	506457	ORIENT_END	n/a	n/a	-999	-999	n/a	n/a	n/a	n/a	3	[0, 0, 0]	-999	PAL1	1	R1312N
505.331	0.0	507126	REC_START	n/a	n/a	2	2	WHALE	FLAME	WHALE	FLAME	3	[0, 0, 0]	-999	PAL1	1	R1312N
505.331	1.864	507126	PROBE_START	n/a	wordpools/wordpool_EN.txt	2	2	WHALE	FLAME	WHALE	FLAME	3	[0, 0, 0]	-999	PAL1	1	R1312N
507.195	2.168	508990	REC_EVENT	1864	n/a	2	2	WHALE	FLAME	WHALE	FLAME	3	[0, 0, 0]	-999	PAL1	1	R1312N
509.363	0.999	511158	PROBE_END	n/a	n/a	2	2	WHALE	n/a	WHALE	FLAME	3	[0, 0, 0]	-999	PAL1	1	R1312N
510.362	0.012	512157	REC_END	n/a	n/a	2	2	WHALE	n/a	WHALE	FLAME	3	[0, 0, 0]	-999	PAL1	1	R1312N
510.374	0.272	512169	ORIENT_START	n/a	n/a	-999	-999	n/a	n/a	n/a	n/a	3	[0, 0, 0]	-999	PAL1	1	R1312N
510.646	0.578	512441	ORIENT_END	n/a	n/a	-999	-999	n/a	n/a	n/a	n/a	3	[0, 0, 0]	-999	PAL1	1	R1312N
511.224	0.0	513019	REC_START	n/a	n/a	5	3	PLANE	GLASS	PLANE	GLASS	3	[0, 0, 0]	-999	PAL1	1	R1312N
511.224	2.113	513019	PROBE_START	n/a	wordpools/wordpool_EN.txt	5	3	PLANE	GLASS	PLANE	GLASS	3	[0, 0, 0]	-999	PAL1	1	R1312N
513.337	1.927	515132	REC_EVENT	2113	n/a	5	3	PLANE	GLASS	PLANE	GLASS	3	[0, 0, 0]	-999	PAL1	1	R1312N
515.264	0.999	517059	PROBE_END	n/a	n/a	5	3	PLANE	n/a	PLANE	GLASS	3	[0, 0, 0]	-999	PAL1	1	R1312N
516.263	0.011	518058	REC_END	n/a	n/a	5	3	PLANE	n/a	PLANE	GLASS	3	[0, 0, 0]	-999	PAL1	1	R1312N
516.274	0.273	518069	ORIENT_START	n/a	n/a	-999	-999	n/a	n/a	n/a	n/a	3	[0, 0, 0]	-999	PAL1	1	R1312N
516.547	0.677	518342	ORIENT_END	n/a	n/a	-999	-999	n/a	n/a	n/a	n/a	3	[0, 0, 0]	-999	PAL1	1	R1312N
517.224	0.0	519019	REC_START	n/a	n/a	6	4	SLUSH	n/a	CHAIR	SLUSH	3	[0, 0, 0]	-999	PAL1	1	R1312N
517.224	4.024	519019	PROBE_START	n/a	wordpools/wordpool_EN.txt	6	4	SLUSH	n/a	CHAIR	SLUSH	3	[0, 0, 0]	-999	PAL1	1	R1312N
521.248	0.312	523043	PROBE_END	n/a	n/a	6	4	SLUSH	n/a	CHAIR	SLUSH	3	[0, 0, 0]	-999	PAL1	1	R1312N
521.56	0.689	523355	REC_EVENT	4336	n/a	6	4	SLUSH	<>	CHAIR	SLUSH	3	[0, 0, 0]	-999	PAL1	1	R1312N
522.249	0.012	524044	REC_END	n/a	n/a	6	4	SLUSH	n/a	CHAIR	SLUSH	3	[0, 0, 0]	-999	PAL1	1	R1312N
522.261	0.27	524056	ORIENT_START	n/a	n/a	-999	-999	n/a	n/a	n/a	n/a	3	[0, 0, 0]	-999	PAL1	1	R1312N
522.531	0.512	524326	ORIENT_END	n/a	n/a	-999	-999	n/a	n/a	n/a	n/a	3	[0, 0, 0]	-999	PAL1	1	R1312N
523.043	0.0	524838	REC_START	n/a	n/a	1	5	BIRD	RAT	BIRD	RAT	3	[0, 0, 0]	-999	PAL1	1	R1312N
523.043	1.989	524838	PROBE_START	n/a	wordpools/wordpool_EN.txt	1	5	BIRD	RAT	BIRD	RAT	3	[0, 0, 0]	-999	PAL1	1	R1312N
525.032	2.033	526827	REC_EVENT	1989	n/a	1	5	BIRD	RAT	BIRD	RAT	3	[0, 0, 0]	-999	PAL1	1	R1312N
527.065	1.001	528860	PROBE_END	n/a	n/a	1	5	BIRD	n/a	BIRD	RAT	3	[0, 0, 0]	-999	PAL1	1	R1312N
528.066	0.01	529861	REC_END	n/a	n/a	1	5	BIRD	n/a	BIRD	RAT	3	[0, 0, 0]	-999	PAL1	1	R1312N
528.076	0.273	529871	ORIENT_START	n/a	n/a	-999	-999	n/a	n/a	n/a	n/a	3	[0, 0, 0]	-999	PAL1	1	R1312N
528.349	0.725	530144	ORIENT_END	n/a	n/a	-999	-999	n/a	n/a	n/a	n/a	3	[0, 0, 0]	-999	PAL1	1	R1312N
529.074	0.001	530869	REC_START	n/a	n/a	4	6	VASE	SHIELD	SHIELD	VASE	3	[0, 0, 0]	-999	PAL1	1	R1312N
529.075	1.813	530870	PROBE_START	n/a	wordpools/wordpool_EN.txt	4	6	VASE	SHIELD	SHIELD	VASE	3	[0, 0, 0]	-999	PAL1	1	R1312N
530.888	2.212	532683	REC_EVENT	1813	n/a	4	6	VASE	SHIELD	SHIELD	VASE	3	[0, 0, 0]	-999	PAL1	1	R1312N
533.1	1.0	534894	PROBE_END	n/a	n/a	4	6	VASE	n/a	SHIELD	VASE	3	[0, 0, 0]	-999	PAL1	1	R1312N
534.1	0.012	535894	REC_END	n/a	n/a	4	6	VASE	n/a	SHIELD	VASE	3	[0, 0, 0]	-999	PAL1	1	R1312N
534.112	0.0	535906	TRIAL_END	n/a	n/a	-999	-999	n/a	n/a	n/a	n/a	3	[0, 0, 0]	-999	PAL1	1	R1312N
534.112	0.021	535906	RETRIEVAL_END	n/a	n/a	-999	-999	n/a	n/a	n/a	n/a	3	[0, 0, 0]	-999	PAL1	1	R1312N
534.133	0.0	535927	TRIAL_START	n/a	n/a	-999	-999	n/a	n/a	n/a	n/a	3	[0, 0, 0]	-999	PAL1	1	R1312N
534.133	0.0	535927	TRIAL	n/a	n/a	-999	-999	n/a	n/a	n/a	n/a	4	[0, 0, 0]	-999	PAL1	1	R1312N
534.133	2.284	535927	WAITING_START	n/a	n/a	-999	-999	n/a	n/a	n/a	n/a	4	[0, 0, 0]	-999	PAL1	1	R1312N
536.417	0.001	538211	WAITING_END	n/a	n/a	-999	-999	n/a	n/a	n/a	n/a	4	[0, 0, 0]	-999	PAL1	1	R1312N
536.418	10.428	538212	COUNTDOWN_START	n/a	n/a	-999	-999	n/a	n/a	n/a	n/a	4	[0, 0, 0]	-999	PAL1	1	R1312N
546.846	0.0	548640	COUNTDOWN_END	n/a	n/a	-999	-999	n/a	n/a	n/a	n/a	4	[0, 0, 0]	-999	PAL1	1	R1312N
546.846	0.523	548640	ORIENT_START	n/a	n/a	-999	-999	n/a	n/a	n/a	n/a	4	[0, 0, 0]	-999	PAL1	1	R1312N
547.369	0.001	549163	ORIENT_END	n/a	n/a	-999	-999	n/a	n/a	n/a	n/a	4	[0, 0, 0]	-999	PAL1	1	R1312N
547.37	1.216	549164	ENCODING_START	n/a	n/a	-999	-999	n/a	n/a	n/a	n/a	4	[0, 0, 0]	-999	PAL1	1	R1312N
548.586	4.034	550380	STUDY_PAIR	n/a	wordpools/wordpool_EN.txt	1	-999	n/a	CHEEK	CHEEK	WAND	4	[0, 0, 0]	-999	PAL1	1	R1312N
552.62	0.706	554414	STUDY_PAIR_OFF	n/a	n/a	1	-999	n/a	CHEEK	CHEEK	WAND	4	[0, 0, 0]	-999	PAL1	1	R1312N
553.326	4.028	555120	STUDY_PAIR	n/a	wordpools/wordpool_EN.txt	2	-999	n/a	SOUP	WEB	SOUP	4	[0, 0, 0]	-999	PAL1	1	R1312N
557.354	0.696	559148	STUDY_PAIR_OFF	n/a	n/a	2	-999	n/a	SOUP	WEB	SOUP	4	[0, 0, 0]	-999	PAL1	1	R1312N
558.05	4.038	559844	STUDY_PAIR	n/a	wordpools/wordpool_EN.txt	3	-999	n/a	n/a	FLAG	DOCK	4	[0, 0, 0]	-999	PAL1	1	R1312N
562.088	0.513	563881	STUDY_PAIR_OFF	n/a	n/a	3	-999	n/a	n/a	FLAG	DOCK	4	[0, 0, 0]	-999	PAL1	1	R1312N
562.601	4.021	564394	STUDY_PAIR	n/a	wordpools/wordpool_EN.txt	4	-999	n/a	n/a	BOAT	WOLF	4	[0, 0, 0]	-999	PAL1	1	R1312N
566.622	0.75	568415	STUDY_PAIR_OFF	n/a	n/a	4	-999	n/a	n/a	BOAT	WOLF	4	[0, 0, 0]	-999	PAL1	1	R1312N
567.372	4.034	569165	STUDY_PAIR	n/a	wordpools/wordpool_EN.txt	5	-999	n/a	CALF	CALF	ROOM	4	[0, 0, 0]	-999	PAL1	1	R1312N
571.406	0.538	573199	STUDY_PAIR_OFF	n/a	n/a	5	-999	n/a	CALF	CALF	ROOM	4	[0, 0, 0]	-999	PAL1	1	R1312N
571.944	4.028	573737	STUDY_PAIR	n/a	wordpools/wordpool_EN.txt	6	-999	n/a	VEST	FOX	VEST	4	[0, 0, 0]	-999	PAL1	1	R1312N
575.972	0.001	577765	STUDY_PAIR_OFF	n/a	n/a	6	-999	n/a	VEST	FOX	VEST	4	[0, 0, 0]	-999	PAL1	1	R1312N
575.973	0.0	577766	ENCODING_END	n/a	n/a	-999	-999	n/a	n/a	n/a	n/a	4	[0, 0, 0]	-999	PAL1	1	R1312N
575.973	0.0	577766	MATH_START	n/a	n/a	-999	-999	n/a	n/a	n/a	n/a	4	[0, 0, 0]	-999	PAL1	1	R1312N
575.973	0.016	577766	START	n/a	n/a	-999	-999	n/a	n/a	n/a	n/a	4	[-999, -999, -999]	-999	PAL1	1	R1312N
575.989	12.72	577782	PROB	12681	n/a	-999	-999	n/a	n/a	n/a	n/a	4	[8, 9, 3]	30	PAL1	1	R1312N
588.709	6.634	590502	PROB	6610	n/a	-999	-999	n/a	n/a	n/a	n/a	4	[4, 5, 1]	10	PAL1	1	R1312N
595.343	7.6	597135	PROB	7600	n/a	-999	-999	n/a	n/a	n/a	n/a	4	[6, 6, 3]	15	PAL1	1	R1312N
602.943	0.017	604735	STOP	n/a	n/a	-999	-999	n/a	n/a	n/a	n/a	4	[-999, -999, -999]	-999	PAL1	1	R1312N
602.96	0.684	604752	MATH_END	n/a	n/a	-999	-999	n/a	n/a	n/a	n/a	4	[0, 0, 0]	-999	PAL1	1	R1312N
603.644	0.001	605436	RETRIEVAL_START	n/a	n/a	-999	-999	n/a	n/a	n/a	n/a	4	[0, 0, 0]	-999	PAL1	1	R1312N
603.645	0.283	605437	ORIENT_START	n/a	n/a	-999	-999	n/a	n/a	n/a	n/a	4	[0, 0, 0]	-999	PAL1	1	R1312N
603.928	0.628	605720	ORIENT_END	n/a	n/a	-999	-999	n/a	n/a	n/a	n/a	4	[0, 0, 0]	-999	PAL1	1	R1312N
604.556	0.001	606348	REC_START	n/a	n/a	5	1	ROOM	CALF	CALF	ROOM	4	[0, 0, 0]	-999	PAL1	1	R1312N
604.557	2.101	606349	PROBE_START	n/a	wordpools/wordpool_EN.txt	5	1	ROOM	CALF	CALF	ROOM	4	[0, 0, 0]	-999	PAL1	1	R1312N
606.658	1.921	608450	REC_EVENT	2101	n/a	5	1	ROOM	CALF	CALF	ROOM	4	[0, 0, 0]	-999	PAL1	1	R1312N
608.579	1.001	610371	PROBE_END	n/a	n/a	5	1	ROOM	n/a	CALF	ROOM	4	[0, 0, 0]	-999	PAL1	1	R1312N
609.58	0.012	611372	REC_END	n/a	n/a	5	1	ROOM	n/a	CALF	ROOM	4	[0, 0, 0]	-999	PAL1	1	R1312N
609.592	0.271	611384	ORIENT_START	n/a	n/a	-999	-999	n/a	n/a	n/a	n/a	4	[0, 0, 0]	-999	PAL1	1	R1312N
609.863	0.509	611655	ORIENT_END	n/a	n/a	-999	-999	n/a	n/a	n/a	n/a	4	[0, 0, 0]	-999	PAL1	1	R1312N
610.372	0.001	612164	REC_START	n/a	n/a	6	2	FOX	VEST	FOX	VEST	4	[0, 0, 0]	-999	PAL1	1	R1312N
610.373	1.722	612165	PROBE_START	n/a	wordpools/wordpool_EN.txt	6	2	FOX	VEST	FOX	VEST	4	[0, 0, 0]	-999	PAL1	1	R1312N
612.095	2.301	613887	REC_EVENT	1722	n/a	6	2	FOX	VEST	FOX	VEST	4	[0, 0, 0]	-999	PAL1	1	R1312N
614.396	1.001	616188	PROBE_END	n/a	n/a	6	2	FOX	n/a	FOX	VEST	4	[0, 0, 0]	-999	PAL1	1	R1312N
615.397	0.012	617189	REC_END	n/a	n/a	6	2	FOX	n/a	FOX	VEST	4	[0, 0, 0]	-999	PAL1	1	R1312N
615.409	0.271	617201	ORIENT_START	n/a	n/a	-999	-999	n/a	n/a	n/a	n/a	4	[0, 0, 0]	-999	PAL1	1	R1312N
615.68	0.666	617472	ORIENT_END	n/a	n/a	-999	-999	n/a	n/a	n/a	n/a	4	[0, 0, 0]	-999	PAL1	1	R1312N
616.346	0.001	618138	REC_START	n/a	n/a	1	3	WAND	CHEEK	CHEEK	WAND	4	[0, 0, 0]	-999	PAL1	1	R1312N
616.347	1.937	618139	PROBE_START	n/a	wordpools/wordpool_EN.txt	1	3	WAND	CHEEK	CHEEK	WAND	4	[0, 0, 0]	-999	PAL1	1	R1312N
618.284	2.097	620076	REC_EVENT	1937	n/a	1	3	WAND	CHEEK	CHEEK	WAND	4	[0, 0, 0]	-999	PAL1	1	R1312N
620.381	1.001	622173	PROBE_END	n/a	n/a	1	3	WAND	n/a	CHEEK	WAND	4	[0, 0, 0]	-999	PAL1	1	R1312N
621.382	0.013	623173	REC_END	n/a	n/a	1	3	WAND	n/a	CHEEK	WAND	4	[0, 0, 0]	-999	PAL1	1	R1312N
621.395	0.269	623186	ORIENT_START	n/a	n/a	-999	-999	n/a	n/a	n/a	n/a	4	[0, 0, 0]	-999	PAL1	1	R1312N
621.664	0.685	623455	ORIENT_END	n/a	n/a	-999	-999	n/a	n/a	n/a	n/a	4	[0, 0, 0]	-999	PAL1	1	R1312N
622.349	0.0	624140	REC_START	n/a	n/a	4	4	BOAT	n/a	BOAT	WOLF	4	[0, 0, 0]	-999	PAL1	1	R1312N
622.349	4.033	624140	PROBE_START	n/a	wordpools/wordpool_EN.txt	4	4	BOAT	n/a	BOAT	WOLF	4	[0, 0, 0]	-999	PAL1	1	R1312N
626.382	0.184	628173	PROBE_END	n/a	n/a	4	4	BOAT	n/a	BOAT	WOLF	4	[0, 0, 0]	-999	PAL1	1	R1312N
626.566	0.817	628357	REC_EVENT	4217	n/a	4	4	BOAT	<>	BOAT	WOLF	4	[0, 0, 0]	-999	PAL1	1	R1312N
627.383	0.012	629174	REC_END	n/a	n/a	4	4	BOAT	n/a	BOAT	WOLF	4	[0, 0, 0]	-999	PAL1	1	R1312N
627.395	0.27	629186	ORIENT_START	n/a	n/a	-999	-999	n/a	n/a	n/a	n/a	4	[0, 0, 0]	-999	PAL1	1	R1312N
627.665	0.506	629456	ORIENT_END	n/a	n/a	-999	-999	n/a	n/a	n/a	n/a	4	[0, 0, 0]	-999	PAL1	1	R1312N
628.171	0.0	629962	REC_START	n/a	n/a	3	5	DOCK	n/a	FLAG	DOCK	4	[0, 0, 0]	-999	PAL1	1	R1312N
628.171	4.028	629962	PROBE_START	n/a	wordpools/wordpool_EN.txt	3	5	DOCK	n/a	FLAG	DOCK	4	[0, 0, 0]	-999	PAL1	1	R1312N
632.199	0.358	633990	PROBE_END	n/a	n/a	3	5	DOCK	n/a	FLAG	DOCK	4	[0, 0, 0]	-999	PAL1	1	R1312N
632.557	0.643	634348	REC_EVENT	4386	n/a	3	5	DOCK	<>	FLAG	DOCK	4	[0, 0, 0]	-999	PAL1	1	R1312N
633.2	0.01	634991	REC_END	n/a	n/a	3	5	DOCK	n/a	FLAG	DOCK	4	[0, 0, 0]	-999	PAL1	1	R1312N
633.21	0.273	635001	ORIENT_START	n/a	n/a	-999	-999	n/a	n/a	n/a	n/a	4	[0, 0, 0]	-999	PAL1	1	R1312N
633.483	0.686	635274	ORIENT_END	n/a	n/a	-999	-999	n/a	n/a	n/a	n/a	4	[0, 0, 0]	-999	PAL1	1	R1312N
634.169	0.0	635960	REC_START	n/a	n/a	2	6	WEB	SOUP	WEB	SOUP	4	[0, 0, 0]	-999	PAL1	1	R1312N
634.169	2.211	635960	PROBE_START	n/a	wordpools/wordpool_EN.txt	2	6	WEB	SOUP	WEB	SOUP	4	[0, 0, 0]	-999	PAL1	1	R1312N
636.38	1.82	638171	REC_EVENT	2211	n/a	2	6	WEB	SOUP	WEB	SOUP	4	[0, 0, 0]	-999	PAL1	1	R1312N
638.2	1.0	639991	PROBE_END	n/a	n/a	2	6	WEB	n/a	WEB	SOUP	4	[0, 0, 0]	-999	PAL1	1	R1312N
639.2	0.012	640991	REC_END	n/a	n/a	2	6	WEB	n/a	WEB	SOUP	4	[0, 0, 0]	-999	PAL1	1	R1312N
639.212	0.0	641003	TRIAL_END	n/a	n/a	-999	-999	n/a	n/a	n/a	n/a	4	[0, 0, 0]	-999	PAL1	1	R1312N
639.212	0.021	641003	RETRIEVAL_END	n/a	n/a	-999	-999	n/a	n/a	n/a	n/a	4	[0, 0, 0]	-999	PAL1	1	R1312N
639.233	0.0	641024	TRIAL_START	n/a	n/a	-999	-999	n/a	n/a	n/a	n/a	4	[0, 0, 0]	-999	PAL1	1	R1312N
639.233	0.0	641024	TRIAL	n/a	n/a	-999	-999	n/a	n/a	n/a	n/a	5	[0, 0, 0]	-999	PAL1	1	R1312N
639.233	3.051	641024	WAITING_START	n/a	n/a	-999	-999	n/a	n/a	n/a	n/a	5	[0, 0, 0]	-999	PAL1	1	R1312N
642.284	0.001	644075	WAITING_END	n/a	n/a	-999	-999	n/a	n/a	n/a	n/a	5	[0, 0, 0]	-999	PAL1	1	R1312N
642.285	10.428	644076	COUNTDOWN_START	n/a	n/a	-999	-999	n/a	n/a	n/a	n/a	5	[0, 0, 0]	-999	PAL1	1	R1312N
652.713	0.001	654503	COUNTDOWN_END	n/a	n/a	-999	-999	n/a	n/a	n/a	n/a	5	[0, 0, 0]	-999	PAL1	1	R1312N
652.714	0.639	654504	ORIENT_START	n/a	n/a	-999	-999	n/a	n/a	n/a	n/a	5	[0, 0, 0]	-999	PAL1	1	R1312N
653.353	0.001	655143	ORIENT_END	n/a	n/a	-999	-999	n/a	n/a	n/a	n/a	5	[0, 0, 0]	-999	PAL1	1	R1312N
653.354	1.237	655144	ENCODING_START	n/a	n/a	-999	-999	n/a	n/a	n/a	n/a	5	[0, 0, 0]	-999	PAL1	1	R1312N
654.591	4.029	656381	STUDY_PAIR	n/a	wordpools/wordpool_EN.txt	1	-999	n/a	HAND	HAND	SWAMP	5	[0, 0, 0]	-999	PAL1	1	R1312N
658.62	0.699	660410	STUDY_PAIR_OFF	n/a	n/a	1	-999	n/a	HAND	HAND	SWAMP	5	[0, 0, 0]	-999	PAL1	1	R1312N
659.319	4.036	661109	STUDY_PAIR	n/a	wordpools/wordpool_EN.txt	2	-999	n/a	PIT	PIT	MUD	5	[0, 0, 0]	-999	PAL1	1	R1312N
663.355	0.632	665145	STUDY_PAIR_OFF	n/a	n/a	2	-999	n/a	PIT	PIT	MUD	5	[0, 0, 0]	-999	PAL1	1	R1312N
663.987	4.035	665777	STUDY_PAIR	n/a	wordpools/wordpool_EN.txt	3	-999	n/a	MULE	TRASH	MULE	5	[0, 0, 0]	-999	PAL1	1	R1312N
668.022	0.734	669812	STUDY_PAIR_OFF	n/a	n/a	3	-999	n/a	MULE	TRASH	MULE	5	[0, 0, 0]	-999	PAL1	1	R1312N
668.756	4.034	670546	STUDY_PAIR	n/a	wordpools/wordpool_EN.txt	4	-999	n/a	SPOON	SPOON	CLOCK	5	[0, 0, 0]	-999	PAL1	1	R1312N
672.79	0.719	674580	STUDY_PAIR_OFF	n/a	n/a	4	-999	n/a	SPOON	SPOON	CLOCK	5	[0, 0, 0]	-999	PAL1	1	R1312N
673.509	4.031	675299	STUDY_PAIR	n/a	wordpools/wordpool_EN.txt	5	-999	n/a	TENT	OAK	TENT	5	[0, 0, 0]	-999	PAL1	1	R1312N
677.54	0.564	679330	STUDY_PAIR_OFF	n/a	n/a	5	-999	n/a	TENT	OAK	TENT	5	[0, 0, 0]	-999	PAL1	1	R1312N
678.104	4.037	679894	STUDY_PAIR	n/a	wordpools/wordpool_EN.txt	6	-999	n/a	STORE	MAP	STORE	5	[0, 0, 0]	-999	PAL1	1	R1312N
682.141	0.001	683930	STUDY_PAIR_OFF	n/a	n/a	6	-999	n/a	STORE	MAP	STORE	5	[0, 0, 0]	-999	PAL1	1	R1312N
682.142	0.0	683931	ENCODING_END	n/a	n/a	-999	-999	n/a	n/a	n/a	n/a	5	[0, 0, 0]	-999	PAL1	1	R1312N
682.142	0.0	683931	MATH_START	n/a	n/a	-999	-999	n/a	n/a	n/a	n/a	5	[0, 0, 0]	-999	PAL1	1	R1312N
682.142	0.015	683931	START	n/a	n/a	-999	-999	n/a	n/a	n/a	n/a	5	[-999, -999, -999]	-999	PAL1	1	R1312N
682.157	4.901	683946	PROB	4874	n/a	-999	-999	n/a	n/a	n/a	n/a	5	[7, 7, 3]	17	PAL1	1	R1312N
687.058	5.535	688847	PROB	5500	n/a	-999	-999	n/a	n/a	n/a	n/a	5	[4, 5, 2]	10	PAL1	1	R1312N
692.593	5.117	694382	PROB	5078	n/a	-999	-999	n/a	n/a	n/a	n/a	5	[4, 4, 2]	10	PAL1	1	R1312N
697.71	5.217	699499	PROB	5217	n/a	-999	-999	n/a	n/a	n/a	n/a	5	[3, 7, 7]	17	PAL1	1	R1312N
702.927	0.017	704716	STOP	n/a	n/a	-999	-999	n/a	n/a	n/a	n/a	5	[-999, -999, -999]	-999	PAL1	1	R1312N
702.944	0.545	704733	MATH_END	n/a	n/a	-999	-999	n/a	n/a	n/a	n/a	5	[0, 0, 0]	-999	PAL1	1	R1312N
703.489	0.001	705278	RETRIEVAL_START	n/a	n/a	-999	-999	n/a	n/a	n/a	n/a	5	[0, 0, 0]	-999	PAL1	1	R1312N
703.49	0.271	705279	ORIENT_START	n/a	n/a	-999	-999	n/a	n/a	n/a	n/a	5	[0, 0, 0]	-999	PAL1	1	R1312N
703.761	0.584	705550	ORIENT_END	n/a	n/a	-999	-999	n/a	n/a	n/a	n/a	5	[0, 0, 0]	-999	PAL1	1	R1312N
704.345	0.0	706134	PROBE_START	n/a	wordpools/wordpool_EN.txt	3	1	TRASH	MULE	TRASH	MULE	5	[0, 0, 0]	-999	PAL1	1	R1312N
704.345	1.956	706134	REC_START	n/a	n/a	3	1	TRASH	MULE	TRASH	MULE	5	[0, 0, 0]	-999	PAL1	1	R1312N
706.301	2.078	708090	REC_EVENT	1956	n/a	3	1	TRASH	MULE	TRASH	MULE	5	[0, 0, 0]	-999	PAL1	1	R1312N
708.379	1.001	710168	PROBE_END	n/a	n/a	3	1	TRASH	n/a	TRASH	MULE	5	[0, 0, 0]	-999	PAL1	1	R1312N
709.38	0.012	711169	REC_END	n/a	n/a	3	1	TRASH	n/a	TRASH	MULE	5	[0, 0, 0]	-999	PAL1	1	R1312N
709.392	0.27	711181	ORIENT_START	n/a	n/a	-999	-999	n/a	n/a	n/a	n/a	5	[0, 0, 0]	-999	PAL1	1	R1312N
709.662	0.68	711451	ORIENT_END	n/a	n/a	-999	-999	n/a	n/a	n/a	n/a	5	[0, 0, 0]	-999	PAL1	1	R1312N
710.342	0.001	712130	REC_START	n/a	n/a	2	2	MUD	PIT	PIT	MUD	5	[0, 0, 0]	-999	PAL1	1	R1312N
710.343	1.916	712131	PROBE_START	n/a	wordpools/wordpool_EN.txt	2	2	MUD	PIT	PIT	MUD	5	[0, 0, 0]	-999	PAL1	1	R1312N
712.259	2.121	714047	REC_EVENT	1916	n/a	2	2	MUD	PIT	PIT	MUD	5	[0, 0, 0]	-999	PAL1	1	R1312N
714.38	0.999	716168	PROBE_END	n/a	n/a	2	2	MUD	n/a	PIT	MUD	5	[0, 0, 0]	-999	PAL1	1	R1312N
715.379	0.013	717167	REC_END	n/a	n/a	2	2	MUD	n/a	PIT	MUD	5	[0, 0, 0]	-999	PAL1	1	R1312N
715.392	0.271	717180	ORIENT_START	n/a	n/a	-999	-999	n/a	n/a	n/a	n/a	5	[0, 0, 0]	-999	PAL1	1	R1312N
715.663	0.678	717451	ORIENT_END	n/a	n/a	-999	-999	n/a	n/a	n/a	n/a	5	[0, 0, 0]	-999	PAL1	1	R1312N
716.341	0.001	718129	REC_START	n/a	n/a	5	3	OAK	TENT	OAK	TENT	5	[0, 0, 0]	-999	PAL1	1	R1312N
716.342	1.902	718130	PROBE_START	n/a	wordpools/wordpool_EN.txt	5	3	OAK	TENT	OAK	TENT	5	[0, 0, 0]	-999	PAL1	1	R1312N
718.244	2.12	720032	REC_EVENT	1902	n/a	5	3	OAK	TENT	OAK	TENT	5	[0, 0, 0]	-999	PAL1	1	R1312N
720.364	1.001	722152	PROBE_END	n/a	n/a	5	3	OAK	n/a	OAK	TENT	5	[0, 0, 0]	-999	PAL1	1	R1312N
721.365	0.012	723153	REC_END	n/a	n/a	5	3	OAK	n/a	OAK	TENT	5	[0, 0, 0]	-999	PAL1	1	R1312N
721.377	0.271	723165	ORIENT_START	n/a	n/a	-999	-999	n/a	n/a	n/a	n/a	5	[0, 0, 0]	-999	PAL1	1	R1312N
721.648	0.516	723436	ORIENT_END	n/a	n/a	-999	-999	n/a	n/a	n/a	n/a	5	[0, 0, 0]	-999	PAL1	1	R1312N
722.164	0.0	723952	REC_START	n/a	n/a	4	4	CLOCK	SPOON	SPOON	CLOCK	5	[0, 0, 0]	-999	PAL1	1	R1312N
722.164	1.526	723952	PROBE_START	n/a	wordpools/wordpool_EN.txt	4	4	CLOCK	SPOON	SPOON	CLOCK	5	[0, 0, 0]	-999	PAL1	1	R1312N
723.69	2.508	725478	REC_EVENT	1526	n/a	4	4	CLOCK	SPOON	SPOON	CLOCK	5	[0, 0, 0]	-999	PAL1	1	R1312N
726.198	1.0	727986	PROBE_END	n/a	n/a	4	4	CLOCK	n/a	SPOON	CLOCK	5	[0, 0, 0]	-999	PAL1	1	R1312N
727.198	0.012	728986	REC_END	n/a	n/a	4	4	CLOCK	n/a	SPOON	CLOCK	5	[0, 0, 0]	-999	PAL1	1	R1312N
727.21	0.272	728998	ORIENT_START	n/a	n/a	-999	-999	n/a	n/a	n/a	n/a	5	[0, 0, 0]	-999	PAL1	1	R1312N
727.482	0.533	729270	ORIENT_END	n/a	n/a	-999	-999	n/a	n/a	n/a	n/a	5	[0, 0, 0]	-999	PAL1	1	R1312N
728.015	0.001	729803	REC_START	n/a	n/a	1	5	SWAMP	HAND	HAND	SWAMP	5	[0, 0, 0]	-999	PAL1	1	R1312N
728.016	1.564	729804	PROBE_START	n/a	wordpools/wordpool_EN.txt	1	5	SWAMP	HAND	HAND	SWAMP	5	[0, 0, 0]	-999	PAL1	1	R1312N
729.58	2.469	731368	REC_EVENT	1564	n/a	1	5	SWAMP	HAND	HAND	SWAMP	5	[0, 0, 0]	-999	PAL1	1	R1312N
732.049	1.001	733837	PROBE_END	n/a	n/a	1	5	SWAMP	n/a	HAND	SWAMP	5	[0, 0, 0]	-999	PAL1	1	R1312N
733.05	0.011	734838	REC_END	n/a	n/a	1	5	SWAMP	n/a	HAND	SWAMP	5	[0, 0, 0]	-999	PAL1	1	R1312N
733.061	0.272	734849	ORIENT_START	n/a	n/a	-999	-999	n/a	n/a	n/a	n/a	5	[0, 0, 0]	-999	PAL1	1	R1312N
733.333	0.744	735121	ORIENT_END	n/a	n/a	-999	-999	n/a	n/a	n/a	n/a	5	[0, 0, 0]	-999	PAL1	1	R1312N
734.077	0.0	735865	REC_START	n/a	n/a	6	6	MAP	STORE	MAP	STORE	5	[0, 0, 0]	-999	PAL1	1	R1312N
734.077	2.025	735865	PROBE_START	n/a	wordpools/wordpool_EN.txt	6	6	MAP	STORE	MAP	STORE	5	[0, 0, 0]	-999	PAL1	1	R1312N
736.102	1.998	737890	REC_EVENT	2025	n/a	6	6	MAP	STORE	MAP	STORE	5	[0, 0, 0]	-999	PAL1	1	R1312N
738.1	1.0	739888	PROBE_END	n/a	n/a	6	6	MAP	n/a	MAP	STORE	5	[0, 0, 0]	-999	PAL1	1	R1312N
739.1	0.005	740888	REC_END	n/a	n/a	6	6	MAP	n/a	MAP	STORE	5	[0, 0, 0]	-999	PAL1	1	R1312N
739.105	0.0	740893	RETRIEVAL_END	n/a	n/a	-999	-999	n/a	n/a	n/a	n/a	5	[0, 0, 0]	-999	PAL1	1	R1312N
739.105	0.019	740893	TRIAL_END	n/a	n/a	-999	-999	n/a	n/a	n/a	n/a	5	[0, 0, 0]	-999	PAL1	1	R1312N
739.124	0.0	740912	WAITING_START	n/a	n/a	-999	-999	n/a	n/a	n/a	n/a	6	[0, 0, 0]	-999	PAL1	1	R1312N
739.124	0.0	740912	TRIAL_START	n/a	n/a	-999	-999	n/a	n/a	n/a	n/a	5	[0, 0, 0]	-999	PAL1	1	R1312N
739.124	2.527	740912	TRIAL	n/a	n/a	-999	-999	n/a	n/a	n/a	n/a	6	[0, 0, 0]	-999	PAL1	1	R1312N
741.651	0.0	743438	WAITING_END	n/a	n/a	-999	-999	n/a	n/a	n/a	n/a	6	[0, 0, 0]	-999	PAL1	1	R1312N
741.651	10.429	743438	COUNTDOWN_START	n/a	n/a	-999	-999	n/a	n/a	n/a	n/a	6	[0, 0, 0]	-999	PAL1	1	R1312N
752.08	0.0	753867	COUNTDOWN_END	n/a	n/a	-999	-999	n/a	n/a	n/a	n/a	6	[0, 0, 0]	-999	PAL1	1	R1312N
752.08	0.523	753867	ORIENT_START	n/a	n/a	-999	-999	n/a	n/a	n/a	n/a	6	[0, 0, 0]	-999	PAL1	1	R1312N
752.603	0.0	754390	ORIENT_END	n/a	n/a	-999	-999	n/a	n/a	n/a	n/a	6	[0, 0, 0]	-999	PAL1	1	R1312N
752.603	1.25	754390	ENCODING_START	n/a	n/a	-999	-999	n/a	n/a	n/a	n/a	6	[0, 0, 0]	-999	PAL1	1	R1312N
753.853	4.034	755640	STUDY_PAIR	n/a	wordpools/wordpool_EN.txt	1	-999	n/a	CLAY	CLAY	SINK	6	[0, 0, 0]	-999	PAL1	1	R1312N
757.887	0.702	759674	STUDY_PAIR_OFF	n/a	n/a	1	-999	n/a	CLAY	CLAY	SINK	6	[0, 0, 0]	-999	PAL1	1	R1312N
758.589	4.032	760376	STUDY_PAIR	n/a	wordpools/wordpool_EN.txt	2	-999	n/a	WORLD	WORLD	PEN	6	[0, 0, 0]	-999	PAL1	1	R1312N
762.621	0.648	764408	STUDY_PAIR_OFF	n/a	n/a	2	-999	n/a	WORLD	WORLD	PEN	6	[0, 0, 0]	-999	PAL1	1	R1312N
763.269	4.036	765056	STUDY_PAIR	n/a	wordpools/wordpool_EN.txt	3	-999	n/a	TOOL	CORN	TOOL	6	[0, 0, 0]	-999	PAL1	1	R1312N
767.305	0.703	769092	STUDY_PAIR_OFF	n/a	n/a	3	-999	n/a	TOOL	CORN	TOOL	6	[0, 0, 0]	-999	PAL1	1	R1312N
768.008	4.031	769795	STUDY_PAIR	n/a	wordpools/wordpool_EN.txt	4	-999	n/a	HILL	CAKE	HILL	6	[0, 0, 0]	-999	PAL1	1	R1312N
772.039	0.615	773825	STUDY_PAIR_OFF	n/a	n/a	4	-999	n/a	HILL	CAKE	HILL	6	[0, 0, 0]	-999	PAL1	1	R1312N
772.654	4.036	774440	STUDY_PAIR	n/a	wordpools/wordpool_EN.txt	5	-999	n/a	SNOW	SNOW	BED	6	[0, 0, 0]	-999	PAL1	1	R1312N
776.69	0.551	778476	STUDY_PAIR_OFF	n/a	n/a	5	-999	n/a	SNOW	SNOW	BED	6	[0, 0, 0]	-999	PAL1	1	R1312N
777.241	4.016	779027	STUDY_PAIR	n/a	wordpools/wordpool_EN.txt	6	-999	n/a	EGG	PLATE	EGG	6	[0, 0, 0]	-999	PAL1	1	R1312N
781.257	0.001	783043	STUDY_PAIR_OFF	n/a	n/a	6	-999	n/a	EGG	PLATE	EGG	6	[0, 0, 0]	-999	PAL1	1	R1312N
781.258	0.0	783044	ENCODING_END	n/a	n/a	-999	-999	n/a	n/a	n/a	n/a	6	[0, 0, 0]	-999	PAL1	1	R1312N
781.258	0.001	783044	MATH_START	n/a	n/a	-999	-999	n/a	n/a	n/a	n/a	6	[0, 0, 0]	-999	PAL1	1	R1312N
781.259	0.015	783045	START	n/a	n/a	-999	-999	n/a	n/a	n/a	n/a	6	[-999, -999, -999]	-999	PAL1	1	R1312N
781.274	6.134	783060	PROB	6109	n/a	-999	-999	n/a	n/a	n/a	n/a	6	[1, 4, 9]	14	PAL1	1	R1312N
787.408	9.652	789194	PROB	9615	n/a	-999	-999	n/a	n/a	n/a	n/a	6	[1, 7, 8]	14	PAL1	1	R1312N
797.06	7.875	798846	PROB	7875	n/a	-999	-999	n/a	n/a	n/a	n/a	6	[4, 3, 3]	10	PAL1	1	R1312N
804.935	0.009	806720	STOP	n/a	n/a	-999	-999	n/a	n/a	n/a	n/a	6	[-999, -999, -999]	-999	PAL1	1	R1312N
804.944	0.668	806729	MATH_END	n/a	n/a	-999	-999	n/a	n/a	n/a	n/a	6	[0, 0, 0]	-999	PAL1	1	R1312N
805.612	0.002	807397	RETRIEVAL_START	n/a	n/a	-999	-999	n/a	n/a	n/a	n/a	6	[0, 0, 0]	-999	PAL1	1	R1312N
805.614	0.281	807399	ORIENT_START	n/a	n/a	-999	-999	n/a	n/a	n/a	n/a	6	[0, 0, 0]	-999	PAL1	1	R1312N
805.895	0.547	807680	ORIENT_END	n/a	n/a	-999	-999	n/a	n/a	n/a	n/a	6	[0, 0, 0]	-999	PAL1	1	R1312N
806.442	0.001	808227	REC_START	n/a	n/a	1	1	SINK	CLAY	CLAY	SINK	6	[0, 0, 0]	-999	PAL1	1	R1312N
806.443	1.687	808228	PROBE_START	n/a	wordpools/wordpool_EN.txt	1	1	SINK	CLAY	CLAY	SINK	6	[0, 0, 0]	-999	PAL1	1	R1312N
808.13	2.332	809915	REC_EVENT	1687	n/a	1	1	SINK	CLAY	CLAY	SINK	6	[0, 0, 0]	-999	PAL1	1	R1312N
810.462	1.0	812247	PROBE_END	n/a	n/a	1	1	SINK	n/a	CLAY	SINK	6	[0, 0, 0]	-999	PAL1	1	R1312N
811.462	0.012	813247	REC_END	n/a	n/a	1	1	SINK	n/a	CLAY	SINK	6	[0, 0, 0]	-999	PAL1	1	R1312N
811.474	0.272	813259	ORIENT_START	n/a	n/a	-999	-999	n/a	n/a	n/a	n/a	6	[0, 0, 0]	-999	PAL1	1	R1312N
811.746	0.669	813531	ORIENT_END	n/a	n/a	-999	-999	n/a	n/a	n/a	n/a	6	[0, 0, 0]	-999	PAL1	1	R1312N
812.415	0.001	814200	REC_START	n/a	n/a	4	2	CAKE	HILL	CAKE	HILL	6	[0, 0, 0]	-999	PAL1	1	R1312N
812.416	2.052	814201	PROBE_START	n/a	wordpools/wordpool_EN.txt	4	2	CAKE	HILL	CAKE	HILL	6	[0, 0, 0]	-999	PAL1	1	R1312N
814.468	1.979	816253	REC_EVENT	2052	n/a	4	2	CAKE	HILL	CAKE	HILL	6	[0, 0, 0]	-999	PAL1	1	R1312N
816.447	1.0	818232	PROBE_END	n/a	n/a	4	2	CAKE	n/a	CAKE	HILL	6	[0, 0, 0]	-999	PAL1	1	R1312N
817.447	0.012	819232	REC_END	n/a	n/a	4	2	CAKE	n/a	CAKE	HILL	6	[0, 0, 0]	-999	PAL1	1	R1312N
817.459	0.271	819244	ORIENT_START	n/a	n/a	-999	-999	n/a	n/a	n/a	n/a	6	[0, 0, 0]	-999	PAL1	1	R1312N
817.73	0.54	819515	ORIENT_END	n/a	n/a	-999	-999	n/a	n/a	n/a	n/a	6	[0, 0, 0]	-999	PAL1	1	R1312N
818.27	0.0	820055	REC_START	n/a	n/a	3	3	CORN	TOOL	CORN	TOOL	6	[0, 0, 0]	-999	PAL1	1	R1312N
818.27	2.095	820055	PROBE_START	n/a	wordpools/wordpool_EN.txt	3	3	CORN	TOOL	CORN	TOOL	6	[0, 0, 0]	-999	PAL1	1	R1312N
820.365	1.932	822150	REC_EVENT	2095	n/a	3	3	CORN	TOOL	CORN	TOOL	6	[0, 0, 0]	-999	PAL1	1	R1312N
822.297	1.0	824082	PROBE_END	n/a	n/a	3	3	CORN	n/a	CORN	TOOL	6	[0, 0, 0]	-999	PAL1	1	R1312N
823.297	0.011	825082	REC_END	n/a	n/a	3	3	CORN	n/a	CORN	TOOL	6	[0, 0, 0]	-999	PAL1	1	R1312N
823.308	0.273	825093	ORIENT_START	n/a	n/a	-999	-999	n/a	n/a	n/a	n/a	6	[0, 0, 0]	-999	PAL1	1	R1312N
823.581	0.688	825366	ORIENT_END	n/a	n/a	-999	-999	n/a	n/a	n/a	n/a	6	[0, 0, 0]	-999	PAL1	1	R1312N
824.269	0.0	826054	REC_START	n/a	n/a	6	4	PLATE	EGG	PLATE	EGG	6	[0, 0, 0]	-999	PAL1	1	R1312N
824.269	1.908	826054	PROBE_START	n/a	wordpools/wordpool_EN.txt	6	4	PLATE	EGG	PLATE	EGG	6	[0, 0, 0]	-999	PAL1	1	R1312N
826.177	2.122	827962	REC_EVENT	1908	n/a	6	4	PLATE	EGG	PLATE	EGG	6	[0, 0, 0]	-999	PAL1	1	R1312N
828.299	0.999	830084	PROBE_END	n/a	n/a	6	4	PLATE	n/a	PLATE	EGG	6	[0, 0, 0]	-999	PAL1	1	R1312N
829.298	0.012	831083	REC_END	n/a	n/a	6	4	PLATE	n/a	PLATE	EGG	6	[0, 0, 0]	-999	PAL1	1	R1312N
829.31	0.272	831095	ORIENT_START	n/a	n/a	-999	-999	n/a	n/a	n/a	n/a	6	[0, 0, 0]	-999	PAL1	1	R1312N
829.582	0.598	831366	ORIENT_END	n/a	n/a	-999	-999	n/a	n/a	n/a	n/a	6	[0, 0, 0]	-999	PAL1	1	R1312N
830.18	0.0	831964	REC_START	n/a	n/a	5	5	BED	SNOW	SNOW	BED	6	[0, 0, 0]	-999	PAL1	1	R1312N
830.18	1.856	831964	PROBE_START	n/a	wordpools/wordpool_EN.txt	5	5	BED	SNOW	SNOW	BED	6	[0, 0, 0]	-999	PAL1	1	R1312N
832.036	2.18	833820	REC_EVENT	1856	n/a	5	5	BED	SNOW	SNOW	BED	6	[0, 0, 0]	-999	PAL1	1	R1312N
834.216	1.0	836000	PROBE_END	n/a	n/a	5	5	BED	n/a	SNOW	BED	6	[0, 0, 0]	-999	PAL1	1	R1312N
835.216	0.011	837000	REC_END	n/a	n/a	5	5	BED	n/a	SNOW	BED	6	[0, 0, 0]	-999	PAL1	1	R1312N
835.227	0.273	837011	ORIENT_START	n/a	n/a	-999	-999	n/a	n/a	n/a	n/a	6	[0, 0, 0]	-999	PAL1	1	R1312N
835.5	0.553	837284	ORIENT_END	n/a	n/a	-999	-999	n/a	n/a	n/a	n/a	6	[0, 0, 0]	-999	PAL1	1	R1312N
836.053	0.0	837837	REC_START	n/a	n/a	2	6	PEN	WORLD	WORLD	PEN	6	[0, 0, 0]	-999	PAL1	1	R1312N
836.053	1.725	837837	PROBE_START	n/a	wordpools/wordpool_EN.txt	2	6	PEN	WORLD	WORLD	PEN	6	[0, 0, 0]	-999	PAL1	1	R1312N
837.778	2.306	839562	REC_EVENT	1725	n/a	2	6	PEN	WORLD	WORLD	PEN	6	[0, 0, 0]	-999	PAL1	1	R1312N
840.084	1.001	841868	PROBE_END	n/a	n/a	2	6	PEN	n/a	WORLD	PEN	6	[0, 0, 0]	-999	PAL1	1	R1312N
841.085	0.01	842869	REC_END	n/a	n/a	2	6	PEN	n/a	WORLD	PEN	6	[0, 0, 0]	-999	PAL1	1	R1312N
841.095	0.001	842879	RETRIEVAL_END	n/a	n/a	-999	-999	n/a	n/a	n/a	n/a	6	[0, 0, 0]	-999	PAL1	1	R1312N
841.096	0.018	842880	TRIAL_END	n/a	n/a	-999	-999	n/a	n/a	n/a	n/a	6	[0, 0, 0]	-999	PAL1	1	R1312N
841.114	0.001	842898	TRIAL_START	n/a	n/a	-999	-999	n/a	n/a	n/a	n/a	6	[0, 0, 0]	-999	PAL1	1	R1312N
841.115	0.0	842899	WAITING_START	n/a	n/a	-999	-999	n/a	n/a	n/a	n/a	7	[0, 0, 0]	-999	PAL1	1	R1312N
841.115	4.32	842899	TRIAL	n/a	n/a	-999	-999	n/a	n/a	n/a	n/a	7	[0, 0, 0]	-999	PAL1	1	R1312N
845.435	0.0	847219	WAITING_END	n/a	n/a	-999	-999	n/a	n/a	n/a	n/a	7	[0, 0, 0]	-999	PAL1	1	R1312N
845.435	10.429	847219	COUNTDOWN_START	n/a	n/a	-999	-999	n/a	n/a	n/a	n/a	7	[0, 0, 0]	-999	PAL1	1	R1312N
855.864	0.0	857648	COUNTDOWN_END	n/a	n/a	-999	-999	n/a	n/a	n/a	n/a	7	[0, 0, 0]	-999	PAL1	1	R1312N
855.864	0.556	857648	ORIENT_START	n/a	n/a	-999	-999	n/a	n/a	n/a	n/a	7	[0, 0, 0]	-999	PAL1	1	R1312N
856.42	0.0	858204	ORIENT_END	n/a	n/a	-999	-999	n/a	n/a	n/a	n/a	7	[0, 0, 0]	-999	PAL1	1	R1312N
856.42	1.232	858204	ENCODING_START	n/a	n/a	-999	-999	n/a	n/a	n/a	n/a	7	[0, 0, 0]	-999	PAL1	1	R1312N
857.652	4.035	859436	STUDY_PAIR	n/a	wordpools/wordpool_EN.txt	1	-999	n/a	BUSH	BUSH	PEACH	7	[0, 0, 0]	-999	PAL1	1	R1312N
861.687	0.541	863470	STUDY_PAIR_OFF	n/a	n/a	1	-999	n/a	BUSH	BUSH	PEACH	7	[0, 0, 0]	-999	PAL1	1	R1312N
862.228	4.027	864011	STUDY_PAIR	n/a	wordpools/wordpool_EN.txt	2	-999	n/a	FLUTE	SLIME	FLUTE	7	[0, 0, 0]	-999	PAL1	1	R1312N
866.255	0.516	868038	STUDY_PAIR_OFF	n/a	n/a	2	-999	n/a	FLUTE	SLIME	FLUTE	7	[0, 0, 0]	-999	PAL1	1	R1312N
866.771	4.035	868554	STUDY_PAIR	n/a	wordpools/wordpool_EN.txt	3	-999	n/a	HAT	APE	HAT	7	[0, 0, 0]	-999	PAL1	1	R1312N
870.806	0.509	872589	STUDY_PAIR_OFF	n/a	n/a	3	-999	n/a	HAT	APE	HAT	7	[0, 0, 0]	-999	PAL1	1	R1312N
871.315	4.024	873098	STUDY_PAIR	n/a	wordpools/wordpool_EN.txt	4	-999	n/a	BAT	BAT	CLOTH	7	[0, 0, 0]	-999	PAL1	1	R1312N
875.339	0.684	877122	STUDY_PAIR_OFF	n/a	n/a	4	-999	n/a	BAT	BAT	CLOTH	7	[0, 0, 0]	-999	PAL1	1	R1312N
876.023	4.034	877806	STUDY_PAIR	n/a	wordpools/wordpool_EN.txt	5	-999	n/a	BALL	BALL	ARM	7	[0, 0, 0]	-999	PAL1	1	R1312N
880.057	0.638	881840	STUDY_PAIR_OFF	n/a	n/a	5	-999	n/a	BALL	BALL	ARM	7	[0, 0, 0]	-999	PAL1	1	R1312N
880.695	4.029	882478	STUDY_PAIR	n/a	wordpools/wordpool_EN.txt	6	-999	n/a	SOAP	ROOT	SOAP	7	[0, 0, 0]	-999	PAL1	1	R1312N
884.724	0.001	886507	STUDY_PAIR_OFF	n/a	n/a	6	-999	n/a	SOAP	ROOT	SOAP	7	[0, 0, 0]	-999	PAL1	1	R1312N
884.725	0.0	886508	ENCODING_END	n/a	n/a	-999	-999	n/a	n/a	n/a	n/a	7	[0, 0, 0]	-999	PAL1	1	R1312N
884.725	0.001	886508	MATH_START	n/a	n/a	-999	-999	n/a	n/a	n/a	n/a	7	[0, 0, 0]	-999	PAL1	1	R1312N
884.726	0.015	886509	START	n/a	n/a	-999	-999	n/a	n/a	n/a	n/a	7	[-999, -999, -999]	-999	PAL1	1	R1312N
884.741	5.317	886524	PROB	5282	n/a	-999	-999	n/a	n/a	n/a	n/a	7	[8, 5, 4]	17	PAL1	1	R1312N
890.058	5.735	891840	PROB	5701	n/a	-999	-999	n/a	n/a	n/a	n/a	7	[5, 2, 9]	16	PAL1	1	R1312N
895.793	8.301	897575	PROB	8270	n/a	-999	-999	n/a	n/a	n/a	n/a	7	[4, 6, 7]	17	PAL1	1	R1312N
904.094	7.409	905876	PROB	7409	n/a	-999	-999	n/a	n/a	n/a	n/a	7	[4, 3, 7]	14	PAL1	1	R1312N
911.503	0.009	913285	STOP	n/a	n/a	-999	-999	n/a	n/a	n/a	n/a	7	[-999, -999, -999]	-999	PAL1	1	R1312N
911.512	0.687	913294	MATH_END	n/a	n/a	-999	-999	n/a	n/a	n/a	n/a	7	[0, 0, 0]	-999	PAL1	1	R1312N
912.199	0.001	913981	RETRIEVAL_START	n/a	n/a	-999	-999	n/a	n/a	n/a	n/a	7	[0, 0, 0]	-999	PAL1	1	R1312N
912.2	0.279	913982	ORIENT_START	n/a	n/a	-999	-999	n/a	n/a	n/a	n/a	7	[0, 0, 0]	-999	PAL1	1	R1312N
912.479	0.586	914261	ORIENT_END	n/a	n/a	-999	-999	n/a	n/a	n/a	n/a	7	[0, 0, 0]	-999	PAL1	1	R1312N
913.065	0.0	914847	REC_START	n/a	n/a	1	1	PEACH	BUSH	BUSH	PEACH	7	[0, 0, 0]	-999	PAL1	1	R1312N
913.065	2.216	914847	PROBE_START	n/a	wordpools/wordpool_EN.txt	1	1	PEACH	BUSH	BUSH	PEACH	7	[0, 0, 0]	-999	PAL1	1	R1312N
915.281	1.815	917063	REC_EVENT	2216	n/a	1	1	PEACH	BUSH	BUSH	PEACH	7	[0, 0, 0]	-999	PAL1	1	R1312N
917.096	1.001	918878	PROBE_END	n/a	n/a	1	1	PEACH	n/a	BUSH	PEACH	7	[0, 0, 0]	-999	PAL1	1	R1312N
918.097	0.012	919879	REC_END	n/a	n/a	1	1	PEACH	n/a	BUSH	PEACH	7	[0, 0, 0]	-999	PAL1	1	R1312N
918.109	0.271	919891	ORIENT_START	n/a	n/a	-999	-999	n/a	n/a	n/a	n/a	7	[0, 0, 0]	-999	PAL1	1	R1312N
918.38	0.567	920162	ORIENT_END	n/a	n/a	-999	-999	n/a	n/a	n/a	n/a	7	[0, 0, 0]	-999	PAL1	1	R1312N
918.947	0.001	920729	REC_START	n/a	n/a	2	2	SLIME	FLUTE	SLIME	FLUTE	7	[0, 0, 0]	-999	PAL1	1	R1312N
918.948	1.791	920730	PROBE_START	n/a	wordpools/wordpool_EN.txt	2	2	SLIME	FLUTE	SLIME	FLUTE	7	[0, 0, 0]	-999	PAL1	1	R1312N
920.739	2.241	922520	REC_EVENT	1791	n/a	2	2	SLIME	FLUTE	SLIME	FLUTE	7	[0, 0, 0]	-999	PAL1	1	R1312N
922.98	1.0	924761	PROBE_END	n/a	n/a	2	2	SLIME	n/a	SLIME	FLUTE	7	[0, 0, 0]	-999	PAL1	1	R1312N
923.98	0.012	925761	REC_END	n/a	n/a	2	2	SLIME	n/a	SLIME	FLUTE	7	[0, 0, 0]	-999	PAL1	1	R1312N
923.992	0.255	925773	ORIENT_START	n/a	n/a	-999	-999	n/a	n/a	n/a	n/a	7	[0, 0, 0]	-999	PAL1	1	R1312N
924.247	0.67	926028	ORIENT_END	n/a	n/a	-999	-999	n/a	n/a	n/a	n/a	7	[0, 0, 0]	-999	PAL1	1	R1312N
924.917	0.0	926698	REC_START	n/a	n/a	3	3	APE	HAT	APE	HAT	7	[0, 0, 0]	-999	PAL1	1	R1312N
924.917	1.81	926698	PROBE_START	n/a	wordpools/wordpool_EN.txt	3	3	APE	HAT	APE	HAT	7	[0, 0, 0]	-999	PAL1	1	R1312N
926.727	2.221	928508	REC_EVENT	1810	n/a	3	3	APE	HAT	APE	HAT	7	[0, 0, 0]	-999	PAL1	1	R1312N
928.948	1.0	930729	PROBE_END	n/a	n/a	3	3	APE	n/a	APE	HAT	7	[0, 0, 0]	-999	PAL1	1	R1312N
929.948	0.011	931729	REC_END	n/a	n/a	3	3	APE	n/a	APE	HAT	7	[0, 0, 0]	-999	PAL1	1	R1312N
929.959	0.273	931740	ORIENT_START	n/a	n/a	-999	-999	n/a	n/a	n/a	n/a	7	[0, 0, 0]	-999	PAL1	1	R1312N
930.232	0.572	932013	ORIENT_END	n/a	n/a	-999	-999	n/a	n/a	n/a	n/a	7	[0, 0, 0]	-999	PAL1	1	R1312N
930.804	0.001	932585	REC_START	n/a	n/a	4	4	CLOTH	BAT	BAT	CLOTH	7	[0, 0, 0]	-999	PAL1	1	R1312N
930.805	2.292	932586	PROBE_START	n/a	wordpools/wordpool_EN.txt	4	4	CLOTH	BAT	BAT	CLOTH	7	[0, 0, 0]	-999	PAL1	1	R1312N
933.097	1.736	934878	REC_EVENT	2292	n/a	4	4	CLOTH	BAT	BAT	CLOTH	7	[0, 0, 0]	-999	PAL1	1	R1312N
934.833	0.999	936614	PROBE_END	n/a	n/a	4	4	CLOTH	n/a	BAT	CLOTH	7	[0, 0, 0]	-999	PAL1	1	R1312N
935.832	0.012	937613	REC_END	n/a	n/a	4	4	CLOTH	n/a	BAT	CLOTH	7	[0, 0, 0]	-999	PAL1	1	R1312N
935.844	0.272	937625	ORIENT_START	n/a	n/a	-999	-999	n/a	n/a	n/a	n/a	7	[0, 0, 0]	-999	PAL1	1	R1312N
936.116	0.695	937897	ORIENT_END	n/a	n/a	-999	-999	n/a	n/a	n/a	n/a	7	[0, 0, 0]	-999	PAL1	1	R1312N
936.811	0.001	938592	REC_START	n/a	n/a	5	5	ARM	BALL	BALL	ARM	7	[0, 0, 0]	-999	PAL1	1	R1312N
936.812	2.094	938593	PROBE_START	n/a	wordpools/wordpool_EN.txt	5	5	ARM	BALL	BALL	ARM	7	[0, 0, 0]	-999	PAL1	1	R1312N
938.906	1.928	940687	REC_EVENT	2094	n/a	5	5	ARM	BALL	BALL	ARM	7	[0, 0, 0]	-999	PAL1	1	R1312N
940.834	1.001	942615	PROBE_END	n/a	n/a	5	5	ARM	n/a	BALL	ARM	7	[0, 0, 0]	-999	PAL1	1	R1312N
941.835	0.011	943616	REC_END	n/a	n/a	5	5	ARM	n/a	BALL	ARM	7	[0, 0, 0]	-999	PAL1	1	R1312N
941.846	0.271	943627	ORIENT_START	n/a	n/a	-999	-999	n/a	n/a	n/a	n/a	7	[0, 0, 0]	-999	PAL1	1	R1312N
942.117	0.552	943898	ORIENT_END	n/a	n/a	-999	-999	n/a	n/a	n/a	n/a	7	[0, 0, 0]	-999	PAL1	1	R1312N
942.669	0.0	944450	REC_START	n/a	n/a	6	6	ROOT	SOAP	ROOT	SOAP	7	[0, 0, 0]	-999	PAL1	1	R1312N
942.669	2.651	944450	PROBE_START	n/a	wordpools/wordpool_EN.txt	6	6	ROOT	SOAP	ROOT	SOAP	7	[0, 0, 0]	-999	PAL1	1	R1312N
945.32	1.381	947101	REC_EVENT	2651	n/a	6	6	ROOT	SOAP	ROOT	SOAP	7	[0, 0, 0]	-999	PAL1	1	R1312N
946.701	1.0	948482	PROBE_END	n/a	n/a	6	6	ROOT	n/a	ROOT	SOAP	7	[0, 0, 0]	-999	PAL1	1	R1312N
947.701	0.012	949482	REC_END	n/a	n/a	6	6	ROOT	n/a	ROOT	SOAP	7	[0, 0, 0]	-999	PAL1	1	R1312N
947.713	0.0	949494	RETRIEVAL_END	n/a	n/a	-999	-999	n/a	n/a	n/a	n/a	7	[0, 0, 0]	-999	PAL1	1	R1312N
947.713	0.019	949494	TRIAL_END	n/a	n/a	-999	-999	n/a	n/a	n/a	n/a	7	[0, 0, 0]	-999	PAL1	1	R1312N
947.732	0.0	949513	TRIAL_START	n/a	n/a	-999	-999	n/a	n/a	n/a	n/a	7	[0, 0, 0]	-999	PAL1	1	R1312N
947.732	0.001	949513	TRIAL	n/a	n/a	-999	-999	n/a	n/a	n/a	n/a	8	[0, 0, 0]	-999	PAL1	1	R1312N
947.733	4.603	949514	WAITING_START	n/a	n/a	-999	-999	n/a	n/a	n/a	n/a	8	[0, 0, 0]	-999	PAL1	1	R1312N
952.336	0.0	954116	COUNTDOWN_START	n/a	n/a	-999	-999	n/a	n/a	n/a	n/a	8	[0, 0, 0]	-999	PAL1	1	R1312N
952.336	10.429	954116	WAITING_END	n/a	n/a	-999	-999	n/a	n/a	n/a	n/a	8	[0, 0, 0]	-999	PAL1	1	R1312N
962.765	0.0	964545	COUNTDOWN_END	n/a	n/a	-999	-999	n/a	n/a	n/a	n/a	8	[0, 0, 0]	-999	PAL1	1	R1312N
962.765	0.556	964545	ORIENT_START	n/a	n/a	-999	-999	n/a	n/a	n/a	n/a	8	[0, 0, 0]	-999	PAL1	1	R1312N
963.321	0.0	965101	ORIENT_END	n/a	n/a	-999	-999	n/a	n/a	n/a	n/a	8	[0, 0, 0]	-999	PAL1	1	R1312N
963.321	1.226	965101	ENCODING_START	n/a	n/a	-999	-999	n/a	n/a	n/a	n/a	8	[0, 0, 0]	-999	PAL1	1	R1312N
964.547	4.041	966327	STUDY_PAIR	n/a	wordpools/wordpool_EN.txt	1	-999	n/a	LAMB	LAMB	SPONGE	8	[0, 0, 0]	-999	PAL1	1	R1312N
968.588	0.629	970368	STUDY_PAIR_OFF	n/a	n/a	1	-999	n/a	LAMB	LAMB	SPONGE	8	[0, 0, 0]	-999	PAL1	1	R1312N
969.217	4.039	970997	STUDY_PAIR	n/a	wordpools/wordpool_EN.txt	2	-999	n/a	SQUARE	SQUARE	HORSE	8	[0, 0, 0]	-999	PAL1	1	R1312N
973.256	0.726	975036	STUDY_PAIR_OFF	n/a	n/a	2	-999	n/a	SQUARE	SQUARE	HORSE	8	[0, 0, 0]	-999	PAL1	1	R1312N
973.982	4.041	975762	STUDY_PAIR	n/a	wordpools/wordpool_EN.txt	3	-999	n/a	n/a	STREET	SHELL	8	[0, 0, 0]	-999	PAL1	1	R1312N
978.023	0.519	979803	STUDY_PAIR_OFF	n/a	n/a	3	-999	n/a	n/a	STREET	SHELL	8	[0, 0, 0]	-999	PAL1	1	R1312N
978.542	4.015	980322	STUDY_PAIR	n/a	wordpools/wordpool_EN.txt	4	-999	n/a	n/a	TIE	CANE	8	[0, 0, 0]	-999	PAL1	1	R1312N
982.557	0.612	984336	STUDY_PAIR_OFF	n/a	n/a	4	-999	n/a	n/a	TIE	CANE	8	[0, 0, 0]	-999	PAL1	1	R1312N
983.169	4.039	984948	STUDY_PAIR	n/a	wordpools/wordpool_EN.txt	5	-999	n/a	BOWL	EEL	BOWL	8	[0, 0, 0]	-999	PAL1	1	R1312N
987.208	0.664	988987	STUDY_PAIR_OFF	n/a	n/a	5	-999	n/a	BOWL	EEL	BOWL	8	[0, 0, 0]	-999	PAL1	1	R1312N
987.872	4.037	989651	STUDY_PAIR	n/a	wordpools/wordpool_EN.txt	6	-999	n/a	SKUNK	SKUNK	GOLD	8	[0, 0, 0]	-999	PAL1	1	R1312N
991.909	0.0	993688	STUDY_PAIR_OFF	n/a	n/a	6	-999	n/a	SKUNK	SKUNK	GOLD	8	[0, 0, 0]	-999	PAL1	1	R1312N
991.909	0.0	993688	ENCODING_END	n/a	n/a	-999	-999	n/a	n/a	n/a	n/a	8	[0, 0, 0]	-999	PAL1	1	R1312N
991.909	0.001	993688	MATH_START	n/a	n/a	-999	-999	n/a	n/a	n/a	n/a	8	[0, 0, 0]	-999	PAL1	1	R1312N
991.91	0.015	993689	START	n/a	n/a	-999	-999	n/a	n/a	n/a	n/a	8	[-999, -999, -999]	-999	PAL1	1	R1312N
991.925	9.552	993704	PROB	9514	n/a	-999	-999	n/a	n/a	n/a	n/a	8	[4, 7, 4]	18	PAL1	1	R1312N
1001.477	13.698	1003256	PROB	13698	n/a	-999	-999	n/a	n/a	n/a	n/a	8	[9, 5, 7]	21	PAL1	1	R1312N
1015.175	0.021	1016953	STOP	n/a	n/a	-999	-999	n/a	n/a	n/a	n/a	8	[-999, -999, -999]	-999	PAL1	1	R1312N
1015.196	0.513	1016974	MATH_END	n/a	n/a	-999	-999	n/a	n/a	n/a	n/a	8	[0, 0, 0]	-999	PAL1	1	R1312N
1015.709	0.001	1017487	RETRIEVAL_START	n/a	n/a	-999	-999	n/a	n/a	n/a	n/a	8	[0, 0, 0]	-999	PAL1	1	R1312N
1015.71	0.285	1017488	ORIENT_START	n/a	n/a	-999	-999	n/a	n/a	n/a	n/a	8	[0, 0, 0]	-999	PAL1	1	R1312N
1015.995	0.551	1017773	ORIENT_END	n/a	n/a	-999	-999	n/a	n/a	n/a	n/a	8	[0, 0, 0]	-999	PAL1	1	R1312N
1016.546	0.0	1018324	REC_START	n/a	n/a	5	1	EEL	BOWL	EEL	BOWL	8	[0, 0, 0]	-999	PAL1	1	R1312N
1016.546	1.782	1018324	PROBE_START	n/a	wordpools/wordpool_EN.txt	5	1	EEL	BOWL	EEL	BOWL	8	[0, 0, 0]	-999	PAL1	1	R1312N
1018.328	2.252	1020106	REC_EVENT	1782	n/a	5	1	EEL	BOWL	EEL	BOWL	8	[0, 0, 0]	-999	PAL1	1	R1312N
1020.58	1.0	1022358	PROBE_END	n/a	n/a	5	1	EEL	n/a	EEL	BOWL	8	[0, 0, 0]	-999	PAL1	1	R1312N
1021.58	0.012	1023358	REC_END	n/a	n/a	5	1	EEL	n/a	EEL	BOWL	8	[0, 0, 0]	-999	PAL1	1	R1312N
1021.592	0.272	1023370	ORIENT_START	n/a	n/a	-999	-999	n/a	n/a	n/a	n/a	8	[0, 0, 0]	-999	PAL1	1	R1312N
1021.864	0.708	1023642	ORIENT_END	n/a	n/a	-999	-999	n/a	n/a	n/a	n/a	8	[0, 0, 0]	-999	PAL1	1	R1312N
1022.572	0.001	1024350	REC_START	n/a	n/a	2	2	HORSE	SQUARE	SQUARE	HORSE	8	[0, 0, 0]	-999	PAL1	1	R1312N
1022.573	1.72	1024351	PROBE_START	n/a	wordpools/wordpool_EN.txt	2	2	HORSE	SQUARE	SQUARE	HORSE	8	[0, 0, 0]	-999	PAL1	1	R1312N
1024.293	2.305	1026071	REC_EVENT	1720	n/a	2	2	HORSE	SQUARE	SQUARE	HORSE	8	[0, 0, 0]	-999	PAL1	1	R1312N
1026.598	1.0	1028376	PROBE_END	n/a	n/a	2	2	HORSE	n/a	SQUARE	HORSE	8	[0, 0, 0]	-999	PAL1	1	R1312N
1027.598	0.013	1029376	REC_END	n/a	n/a	2	2	HORSE	n/a	SQUARE	HORSE	8	[0, 0, 0]	-999	PAL1	1	R1312N
1027.611	0.27	1029389	ORIENT_START	n/a	n/a	-999	-999	n/a	n/a	n/a	n/a	8	[0, 0, 0]	-999	PAL1	1	R1312N
1027.881	0.567	1029659	ORIENT_END	n/a	n/a	-999	-999	n/a	n/a	n/a	n/a	8	[0, 0, 0]	-999	PAL1	1	R1312N
1028.448	0.001	1030226	REC_START	n/a	n/a	3	3	STREET	n/a	STREET	SHELL	8	[0, 0, 0]	-999	PAL1	1	R1312N
1028.449	3.49	1030227	PROBE_START	n/a	wordpools/wordpool_EN.txt	3	3	STREET	n/a	STREET	SHELL	8	[0, 0, 0]	-999	PAL1	1	R1312N
1031.939	0.543	1033717	REC_EVENT	3490	n/a	3	3	STREET	<>	STREET	SHELL	8	[0, 0, 0]	-999	PAL1	1	R1312N
1032.482	1.001	1034260	PROBE_END	n/a	n/a	3	3	STREET	n/a	STREET	SHELL	8	[0, 0, 0]	-999	PAL1	1	R1312N
1033.483	0.011	1035261	REC_END	n/a	n/a	3	3	STREET	n/a	STREET	SHELL	8	[0, 0, 0]	-999	PAL1	1	R1312N
1033.494	0.272	1035272	ORIENT_START	n/a	n/a	-999	-999	n/a	n/a	n/a	n/a	8	[0, 0, 0]	-999	PAL1	1	R1312N
1033.766	0.704	1035544	ORIENT_END	n/a	n/a	-999	-999	n/a	n/a	n/a	n/a	8	[0, 0, 0]	-999	PAL1	1	R1312N
1034.47	0.001	1036248	REC_START	n/a	n/a	4	4	TIE	n/a	TIE	CANE	8	[0, 0, 0]	-999	PAL1	1	R1312N
1034.471	4.029	1036249	PROBE_START	n/a	wordpools/wordpool_EN.txt	4	4	TIE	n/a	TIE	CANE	8	[0, 0, 0]	-999	PAL1	1	R1312N
1038.5	0.317	1040277	PROBE_END	n/a	n/a	4	4	TIE	n/a	TIE	CANE	8	[0, 0, 0]	-999	PAL1	1	R1312N
1038.817	0.683	1040594	REC_EVENT	4346	n/a	4	4	TIE	<>	TIE	CANE	8	[0, 0, 0]	-999	PAL1	1	R1312N
1039.5	0.013	1041277	REC_END	n/a	n/a	4	4	TIE	n/a	TIE	CANE	8	[0, 0, 0]	-999	PAL1	1	R1312N
1039.513	0.27	1041290	ORIENT_START	n/a	n/a	-999	-999	n/a	n/a	n/a	n/a	8	[0, 0, 0]	-999	PAL1	1	R1312N
1039.783	0.716	1041560	ORIENT_END	n/a	n/a	-999	-999	n/a	n/a	n/a	n/a	8	[0, 0, 0]	-999	PAL1	1	R1312N
1040.499	0.001	1042276	REC_START	n/a	n/a	1	5	SPONGE	LAMB	LAMB	SPONGE	8	[0, 0, 0]	-999	PAL1	1	R1312N
1040.5	2.02	1042277	PROBE_START	n/a	wordpools/wordpool_EN.txt	1	5	SPONGE	LAMB	LAMB	SPONGE	8	[0, 0, 0]	-999	PAL1	1	R1312N
1042.52	2.014	1044297	REC_EVENT	2020	n/a	1	5	SPONGE	LAMB	LAMB	SPONGE	8	[0, 0, 0]	-999	PAL1	1	R1312N
1044.534	1.0	1046311	PROBE_END	n/a	n/a	1	5	SPONGE	n/a	LAMB	SPONGE	8	[0, 0, 0]	-999	PAL1	1	R1312N
1045.534	0.012	1047311	REC_END	n/a	n/a	1	5	SPONGE	n/a	LAMB	SPONGE	8	[0, 0, 0]	-999	PAL1	1	R1312N
1045.546	0.272	1047323	ORIENT_START	n/a	n/a	-999	-999	n/a	n/a	n/a	n/a	8	[0, 0, 0]	-999	PAL1	1	R1312N
1045.818	0.714	1047595	ORIENT_END	n/a	n/a	-999	-999	n/a	n/a	n/a	n/a	8	[0, 0, 0]	-999	PAL1	1	R1312N
1046.532	0.001	1048309	REC_START	n/a	n/a	6	6	GOLD	SKUNK	SKUNK	GOLD	8	[0, 0, 0]	-999	PAL1	1	R1312N
1046.533	1.963	1048310	PROBE_START	n/a	wordpools/wordpool_EN.txt	6	6	GOLD	SKUNK	SKUNK	GOLD	8	[0, 0, 0]	-999	PAL1	1	R1312N
1048.496	2.072	1050273	REC_EVENT	1963	n/a	6	6	GOLD	SKUNK	SKUNK	GOLD	8	[0, 0, 0]	-999	PAL1	1	R1312N
1050.568	1.0	1052345	PROBE_END	n/a	n/a	6	6	GOLD	n/a	SKUNK	GOLD	8	[0, 0, 0]	-999	PAL1	1	R1312N
1051.568	0.012	1053345	REC_END	n/a	n/a	6	6	GOLD	n/a	SKUNK	GOLD	8	[0, 0, 0]	-999	PAL1	1	R1312N
1051.58	0.0	1053357	RETRIEVAL_END	n/a	n/a	-999	-999	n/a	n/a	n/a	n/a	8	[0, 0, 0]	-999	PAL1	1	R1312N
1051.58	0.019	1053357	TRIAL_END	n/a	n/a	-999	-999	n/a	n/a	n/a	n/a	8	[0, 0, 0]	-999	PAL1	1	R1312N
1051.599	0.0	1053376	TRIAL_START	n/a	n/a	-999	-999	n/a	n/a	n/a	n/a	8	[0, 0, 0]	-999	PAL1	1	R1312N
1051.599	0.0	1053376	TRIAL	n/a	n/a	-999	-999	n/a	n/a	n/a	n/a	9	[0, 0, 0]	-999	PAL1	1	R1312N
1051.599	2.386	1053376	WAITING_START	n/a	n/a	-999	-999	n/a	n/a	n/a	n/a	9	[0, 0, 0]	-999	PAL1	1	R1312N
1053.985	0.0	1055762	WAITING_END	n/a	n/a	-999	-999	n/a	n/a	n/a	n/a	9	[0, 0, 0]	-999	PAL1	1	R1312N
1053.985	10.428	1055762	COUNTDOWN_START	n/a	n/a	-999	-999	n/a	n/a	n/a	n/a	9	[0, 0, 0]	-999	PAL1	1	R1312N
1064.413	0.001	1066190	COUNTDOWN_END	n/a	n/a	-999	-999	n/a	n/a	n/a	n/a	9	[0, 0, 0]	-999	PAL1	1	R1312N
1064.414	0.556	1066191	ORIENT_START	n/a	n/a	-999	-999	n/a	n/a	n/a	n/a	9	[0, 0, 0]	-999	PAL1	1	R1312N
1064.97	0.0	1066747	ORIENT_END	n/a	n/a	-999	-999	n/a	n/a	n/a	n/a	9	[0, 0, 0]	-999	PAL1	1	R1312N
1064.97	1.195	1066747	ENCODING_START	n/a	n/a	-999	-999	n/a	n/a	n/a	n/a	9	[0, 0, 0]	-999	PAL1	1	R1312N
1066.165	4.04	1067942	STUDY_PAIR	n/a	wordpools/wordpool_EN.txt	1	-999	n/a	BRANCH	BRANCH	PARK	9	[0, 0, 0]	-999	PAL1	1	R1312N
1070.205	0.51	1071981	STUDY_PAIR_OFF	n/a	n/a	1	-999	n/a	BRANCH	BRANCH	PARK	9	[0, 0, 0]	-999	PAL1	1	R1312N
1070.715	4.024	1072491	STUDY_PAIR	n/a	wordpools/wordpool_EN.txt	2	-999	n/a	TRUCK	TRUCK	CLIFF	9	[0, 0, 0]	-999	PAL1	1	R1312N
1074.739	0.621	1076515	STUDY_PAIR_OFF	n/a	n/a	2	-999	n/a	TRUCK	TRUCK	CLIFF	9	[0, 0, 0]	-999	PAL1	1	R1312N
1075.36	4.03	1077136	STUDY_PAIR	n/a	wordpools/wordpool_EN.txt	3	-999	n/a	NEST	JAIL	NEST	9	[0, 0, 0]	-999	PAL1	1	R1312N
1079.39	0.56	1081166	STUDY_PAIR_OFF	n/a	n/a	3	-999	n/a	NEST	JAIL	NEST	9	[0, 0, 0]	-999	PAL1	1	R1312N
1079.95	4.023	1081726	STUDY_PAIR	n/a	wordpools/wordpool_EN.txt	4	-999	n/a	FLEA	JAR	FLEA	9	[0, 0, 0]	-999	PAL1	1	R1312N
1083.973	0.714	1085749	STUDY_PAIR_OFF	n/a	n/a	4	-999	n/a	FLEA	JAR	FLEA	9	[0, 0, 0]	-999	PAL1	1	R1312N
1084.687	4.038	1086463	STUDY_PAIR	n/a	wordpools/wordpool_EN.txt	5	-999	n/a	DIME	MAIL	DIME	9	[0, 0, 0]	-999	PAL1	1	R1312N
1088.725	0.691	1090501	STUDY_PAIR_OFF	n/a	n/a	5	-999	n/a	DIME	MAIL	DIME	9	[0, 0, 0]	-999	PAL1	1	R1312N
1089.416	4.026	1091192	STUDY_PAIR	n/a	wordpools/wordpool_EN.txt	6	-999	n/a	SUIT	SUIT	PASTE	9	[0, 0, 0]	-999	PAL1	1	R1312N
1093.442	0.001	1095218	STUDY_PAIR_OFF	n/a	n/a	6	-999	n/a	SUIT	SUIT	PASTE	9	[0, 0, 0]	-999	PAL1	1	R1312N
1093.443	0.0	1095219	ENCODING_END	n/a	n/a	-999	-999	n/a	n/a	n/a	n/a	9	[0, 0, 0]	-999	PAL1	1	R1312N
1093.443	0.0	1095219	MATH_START	n/a	n/a	-999	-999	n/a	n/a	n/a	n/a	9	[0, 0, 0]	-999	PAL1	1	R1312N
1093.443	0.016	1095219	START	n/a	n/a	-999	-999	n/a	n/a	n/a	n/a	9	[-999, -999, -999]	-999	PAL1	1	R1312N
1093.459	9.118	1095235	PROB	9091	n/a	-999	-999	n/a	n/a	n/a	n/a	9	[6, 4, 4]	14	PAL1	1	R1312N
1102.577	10.846	1104352	PROB	10846	n/a	-999	-999	n/a	n/a	n/a	n/a	9	[5, 7, 3]	17	PAL1	1	R1312N
1113.423	0.022	1115198	STOP	n/a	n/a	-999	-999	n/a	n/a	n/a	n/a	9	[-999, -999, -999]	-999	PAL1	1	R1312N
1113.445	0.567	1115220	MATH_END	n/a	n/a	-999	-999	n/a	n/a	n/a	n/a	9	[0, 0, 0]	-999	PAL1	1	R1312N
1114.012	0.002	1115787	RETRIEVAL_START	n/a	n/a	-999	-999	n/a	n/a	n/a	n/a	9	[0, 0, 0]	-999	PAL1	1	R1312N
1114.014	0.282	1115789	ORIENT_START	n/a	n/a	-999	-999	n/a	n/a	n/a	n/a	9	[0, 0, 0]	-999	PAL1	1	R1312N
1114.296	0.668	1116071	ORIENT_END	n/a	n/a	-999	-999	n/a	n/a	n/a	n/a	9	[0, 0, 0]	-999	PAL1	1	R1312N
1114.964	0.001	1116739	REC_START	n/a	n/a	3	1	JAIL	NEST	JAIL	NEST	9	[0, 0, 0]	-999	PAL1	1	R1312N
1114.965	2.03	1116740	PROBE_START	n/a	wordpools/wordpool_EN.txt	3	1	JAIL	NEST	JAIL	NEST	9	[0, 0, 0]	-999	PAL1	1	R1312N
1116.995	2.0	1118770	REC_EVENT	2030	n/a	3	1	JAIL	NEST	JAIL	NEST	9	[0, 0, 0]	-999	PAL1	1	R1312N
1118.995	1.0	1120770	PROBE_END	n/a	n/a	3	1	JAIL	n/a	JAIL	NEST	9	[0, 0, 0]	-999	PAL1	1	R1312N
1119.995	0.013	1121770	REC_END	n/a	n/a	3	1	JAIL	n/a	JAIL	NEST	9	[0, 0, 0]	-999	PAL1	1	R1312N
1120.008	0.272	1121783	ORIENT_START	n/a	n/a	-999	-999	n/a	n/a	n/a	n/a	9	[0, 0, 0]	-999	PAL1	1	R1312N
1120.28	0.582	1122055	ORIENT_END	n/a	n/a	-999	-999	n/a	n/a	n/a	n/a	9	[0, 0, 0]	-999	PAL1	1	R1312N
1120.862	0.001	1122637	REC_START	n/a	n/a	4	2	JAR	FLEA	JAR	FLEA	9	[0, 0, 0]	-999	PAL1	1	R1312N
1120.863	2.013	1122638	PROBE_START	n/a	wordpools/wordpool_EN.txt	4	2	JAR	FLEA	JAR	FLEA	9	[0, 0, 0]	-999	PAL1	1	R1312N
1122.876	2.021	1124651	REC_EVENT	2013	n/a	4	2	JAR	FLEA	JAR	FLEA	9	[0, 0, 0]	-999	PAL1	1	R1312N
1124.897	1.001	1126672	PROBE_END	n/a	n/a	4	2	JAR	n/a	JAR	FLEA	9	[0, 0, 0]	-999	PAL1	1	R1312N
1125.898	0.012	1127673	REC_END	n/a	n/a	4	2	JAR	n/a	JAR	FLEA	9	[0, 0, 0]	-999	PAL1	1	R1312N
1125.91	0.271	1127685	ORIENT_START	n/a	n/a	-999	-999	n/a	n/a	n/a	n/a	9	[0, 0, 0]	-999	PAL1	1	R1312N
1126.181	0.577	1127956	ORIENT_END	n/a	n/a	-999	-999	n/a	n/a	n/a	n/a	9	[0, 0, 0]	-999	PAL1	1	R1312N
1126.758	0.0	1128533	REC_START	n/a	n/a	5	3	MAIL	DIME	MAIL	DIME	9	[0, 0, 0]	-999	PAL1	1	R1312N
1126.758	2.133	1128533	PROBE_START	n/a	wordpools/wordpool_EN.txt	5	3	MAIL	DIME	MAIL	DIME	9	[0, 0, 0]	-999	PAL1	1	R1312N
1128.891	1.891	1130665	REC_EVENT	2133	n/a	5	3	MAIL	DIME	MAIL	DIME	9	[0, 0, 0]	-999	PAL1	1	R1312N
1130.782	0.999	1132556	PROBE_END	n/a	n/a	5	3	MAIL	n/a	MAIL	DIME	9	[0, 0, 0]	-999	PAL1	1	R1312N
1131.781	0.012	1133555	REC_END	n/a	n/a	5	3	MAIL	n/a	MAIL	DIME	9	[0, 0, 0]	-999	PAL1	1	R1312N
1131.793	0.272	1133567	ORIENT_START	n/a	n/a	-999	-999	n/a	n/a	n/a	n/a	9	[0, 0, 0]	-999	PAL1	1	R1312N
1132.065	0.629	1133839	ORIENT_END	n/a	n/a	-999	-999	n/a	n/a	n/a	n/a	9	[0, 0, 0]	-999	PAL1	1	R1312N
1132.694	0.001	1134468	REC_START	n/a	n/a	2	4	CLIFF	TRUCK	TRUCK	CLIFF	9	[0, 0, 0]	-999	PAL1	1	R1312N
1132.695	2.32	1134469	PROBE_START	n/a	wordpools/wordpool_EN.txt	2	4	CLIFF	TRUCK	TRUCK	CLIFF	9	[0, 0, 0]	-999	PAL1	1	R1312N
1135.015	1.718	1136789	REC_EVENT	2320	n/a	2	4	CLIFF	TRUCK	TRUCK	CLIFF	9	[0, 0, 0]	-999	PAL1	1	R1312N
1136.733	1.0	1138507	PROBE_END	n/a	n/a	2	4	CLIFF	n/a	TRUCK	CLIFF	9	[0, 0, 0]	-999	PAL1	1	R1312N
1137.733	0.012	1139507	REC_END	n/a	n/a	2	4	CLIFF	n/a	TRUCK	CLIFF	9	[0, 0, 0]	-999	PAL1	1	R1312N
1137.745	0.271	1139519	ORIENT_START	n/a	n/a	-999	-999	n/a	n/a	n/a	n/a	9	[0, 0, 0]	-999	PAL1	1	R1312N
1138.016	0.511	1139790	ORIENT_END	n/a	n/a	-999	-999	n/a	n/a	n/a	n/a	9	[0, 0, 0]	-999	PAL1	1	R1312N
1138.527	0.0	1140301	REC_START	n/a	n/a	1	5	PARK	BRANCH	BRANCH	PARK	9	[0, 0, 0]	-999	PAL1	1	R1312N
1138.527	1.891	1140301	PROBE_START	n/a	wordpools/wordpool_EN.txt	1	5	PARK	BRANCH	BRANCH	PARK	9	[0, 0, 0]	-999	PAL1	1	R1312N
1140.418	2.132	1142192	REC_EVENT	1891	n/a	1	5	PARK	BRANCH	BRANCH	PARK	9	[0, 0, 0]	-999	PAL1	1	R1312N
1142.55	1.0	1144324	PROBE_END	n/a	n/a	1	5	PARK	n/a	BRANCH	PARK	9	[0, 0, 0]	-999	PAL1	1	R1312N
1143.55	0.012	1145324	REC_END	n/a	n/a	1	5	PARK	n/a	BRANCH	PARK	9	[0, 0, 0]	-999	PAL1	1	R1312N
1143.562	0.272	1145336	ORIENT_START	n/a	n/a	-999	-999	n/a	n/a	n/a	n/a	9	[0, 0, 0]	-999	PAL1	1	R1312N
1143.834	0.603	1145608	ORIENT_END	n/a	n/a	-999	-999	n/a	n/a	n/a	n/a	9	[0, 0, 0]	-999	PAL1	1	R1312N
1144.437	0.0	1146211	REC_START	n/a	n/a	6	6	PASTE	SUIT	SUIT	PASTE	9	[0, 0, 0]	-999	PAL1	1	R1312N
1144.437	2.199	1146211	PROBE_START	n/a	wordpools/wordpool_EN.txt	6	6	PASTE	SUIT	SUIT	PASTE	9	[0, 0, 0]	-999	PAL1	1	R1312N
1146.636	1.832	1148410	REC_EVENT	2199	n/a	6	6	PASTE	SUIT	SUIT	PASTE	9	[0, 0, 0]	-999	PAL1	1	R1312N
1148.468	1.0	1150242	PROBE_END	n/a	n/a	6	6	PASTE	n/a	SUIT	PASTE	9	[0, 0, 0]	-999	PAL1	1	R1312N
1149.468	0.012	1151242	REC_END	n/a	n/a	6	6	PASTE	n/a	SUIT	PASTE	9	[0, 0, 0]	-999	PAL1	1	R1312N
1149.48	0.0	1151254	RETRIEVAL_END	n/a	n/a	-999	-999	n/a	n/a	n/a	n/a	9	[0, 0, 0]	-999	PAL1	1	R1312N
1149.48	0.02	1151254	TRIAL_END	n/a	n/a	-999	-999	n/a	n/a	n/a	n/a	9	[0, 0, 0]	-999	PAL1	1	R1312N
1149.5	0.001	1151274	TRIAL_START	n/a	n/a	-999	-999	n/a	n/a	n/a	n/a	9	[0, 0, 0]	-999	PAL1	1	R1312N
1149.501	0.0	1151275	TRIAL	n/a	n/a	-999	-999	n/a	n/a	n/a	n/a	10	[0, 0, 0]	-999	PAL1	1	R1312N
1149.501	2.668	1151275	WAITING_START	n/a	n/a	-999	-999	n/a	n/a	n/a	n/a	10	[0, 0, 0]	-999	PAL1	1	R1312N
1152.169	0.0	1153943	WAITING_END	n/a	n/a	-999	-999	n/a	n/a	n/a	n/a	10	[0, 0, 0]	-999	PAL1	1	R1312N
1152.169	10.429	1153943	COUNTDOWN_START	n/a	n/a	-999	-999	n/a	n/a	n/a	n/a	10	[0, 0, 0]	-999	PAL1	1	R1312N
1162.598	0.0	1164371	ORIENT_START	n/a	n/a	-999	-999	n/a	n/a	n/a	n/a	10	[0, 0, 0]	-999	PAL1	1	R1312N
1162.598	0.639	1164371	COUNTDOWN_END	n/a	n/a	-999	-999	n/a	n/a	n/a	n/a	10	[0, 0, 0]	-999	PAL1	1	R1312N
1163.237	0.0	1165010	ORIENT_END	n/a	n/a	-999	-999	n/a	n/a	n/a	n/a	10	[0, 0, 0]	-999	PAL1	1	R1312N
1163.237	1.232	1165010	ENCODING_START	n/a	n/a	-999	-999	n/a	n/a	n/a	n/a	10	[0, 0, 0]	-999	PAL1	1	R1312N
1164.469	4.036	1166242	STUDY_PAIR	n/a	wordpools/wordpool_EN.txt	1	-999	n/a	ANT	TEETH	ANT	10	[0, 0, 0]	-999	PAL1	1	R1312N
1168.505	0.569	1170278	STUDY_PAIR_OFF	n/a	n/a	1	-999	n/a	ANT	TEETH	ANT	10	[0, 0, 0]	-999	PAL1	1	R1312N
1169.074	4.031	1170847	STUDY_PAIR	n/a	wordpools/wordpool_EN.txt	2	-999	n/a	PET	PET	ROAD	10	[0, 0, 0]	-999	PAL1	1	R1312N
1173.105	0.681	1174878	STUDY_PAIR_OFF	n/a	n/a	2	-999	n/a	PET	PET	ROAD	10	[0, 0, 0]	-999	PAL1	1	R1312N
1173.786	4.037	1175559	STUDY_PAIR	n/a	wordpools/wordpool_EN.txt	3	-999	n/a	CHIN	SCHOOL	CHIN	10	[0, 0, 0]	-999	PAL1	1	R1312N
1177.823	0.686	1179596	STUDY_PAIR_OFF	n/a	n/a	3	-999	n/a	CHIN	SCHOOL	CHIN	10	[0, 0, 0]	-999	PAL1	1	R1312N
1178.509	4.031	1180282	STUDY_PAIR	n/a	wordpools/wordpool_EN.txt	4	-999	n/a	KEY	KEY	WAVE	10	[0, 0, 0]	-999	PAL1	1	R1312N
1182.54	0.735	1184313	STUDY_PAIR_OFF	n/a	n/a	4	-999	n/a	KEY	KEY	WAVE	10	[0, 0, 0]	-999	PAL1	1	R1312N
1183.275	4.033	1185048	STUDY_PAIR	n/a	wordpools/wordpool_EN.txt	5	-999	n/a	MOON	MOON	OAR	10	[0, 0, 0]	-999	PAL1	1	R1312N
1187.308	0.643	1189080	STUDY_PAIR_OFF	n/a	n/a	5	-999	n/a	MOON	MOON	OAR	10	[0, 0, 0]	-999	PAL1	1	R1312N
1187.951	4.023	1189723	STUDY_PAIR	n/a	wordpools/wordpool_EN.txt	6	-999	n/a	POOL	CAPE	POOL	10	[0, 0, 0]	-999	PAL1	1	R1312N
1191.974	0.001	1193746	STUDY_PAIR_OFF	n/a	n/a	6	-999	n/a	POOL	CAPE	POOL	10	[0, 0, 0]	-999	PAL1	1	R1312N
1191.975	0.0	1193747	ENCODING_END	n/a	n/a	-999	-999	n/a	n/a	n/a	n/a	10	[0, 0, 0]	-999	PAL1	1	R1312N
1191.975	0.0	1193747	MATH_START	n/a	n/a	-999	-999	n/a	n/a	n/a	n/a	10	[0, 0, 0]	-999	PAL1	1	R1312N
1191.975	0.015	1193747	START	n/a	n/a	-999	-999	n/a	n/a	n/a	n/a	10	[-999, -999, -999]	-999	PAL1	1	R1312N
1191.99	7.603	1193762	PROB	7576	n/a	-999	-999	n/a	n/a	n/a	n/a	10	[1, 9, 8]	18	PAL1	1	R1312N
1199.593	7.184	1201365	PROB	7158	n/a	-999	-999	n/a	n/a	n/a	n/a	10	[2, 9, 8]	19	PAL1	1	R1312N
1206.777	9.926	1208549	PROB	9926	n/a	-999	-999	n/a	n/a	n/a	n/a	10	[3, 6, 1]	10	PAL1	1	R1312N
1216.703	0.009	1218475	STOP	n/a	n/a	-999	-999	n/a	n/a	n/a	n/a	10	[-999, -999, -999]	-999	PAL1	1	R1312N
1216.712	0.577	1218484	MATH_END	n/a	n/a	-999	-999	n/a	n/a	n/a	n/a	10	[0, 0, 0]	-999	PAL1	1	R1312N
1217.289	0.001	1219060	RETRIEVAL_START	n/a	n/a	-999	-999	n/a	n/a	n/a	n/a	10	[0, 0, 0]	-999	PAL1	1	R1312N
1217.29	0.273	1219061	ORIENT_START	n/a	n/a	-999	-999	n/a	n/a	n/a	n/a	10	[0, 0, 0]	-999	PAL1	1	R1312N
1217.563	0.575	1219334	ORIENT_END	n/a	n/a	-999	-999	n/a	n/a	n/a	n/a	10	[0, 0, 0]	-999	PAL1	1	R1312N
1218.138	0.0	1219909	REC_START	n/a	n/a	3	1	SCHOOL	CHIN	SCHOOL	CHIN	10	[0, 0, 0]	-999	PAL1	1	R1312N
1218.138	1.822	1219909	PROBE_START	n/a	wordpools/wordpool_EN.txt	3	1	SCHOOL	CHIN	SCHOOL	CHIN	10	[0, 0, 0]	-999	PAL1	1	R1312N
1219.96	2.203	1221731	REC_EVENT	1822	n/a	3	1	SCHOOL	CHIN	SCHOOL	CHIN	10	[0, 0, 0]	-999	PAL1	1	R1312N
1222.163	1.0	1223934	PROBE_END	n/a	n/a	3	1	SCHOOL	n/a	SCHOOL	CHIN	10	[0, 0, 0]	-999	PAL1	1	R1312N
1223.163	0.012	1224934	REC_END	n/a	n/a	3	1	SCHOOL	n/a	SCHOOL	CHIN	10	[0, 0, 0]	-999	PAL1	1	R1312N
1223.175	0.272	1224946	ORIENT_START	n/a	n/a	-999	-999	n/a	n/a	n/a	n/a	10	[0, 0, 0]	-999	PAL1	1	R1312N
1223.447	0.742	1225218	ORIENT_END	n/a	n/a	-999	-999	n/a	n/a	n/a	n/a	10	[0, 0, 0]	-999	PAL1	1	R1312N
1224.189	0.0	1225960	PROBE_START	n/a	wordpools/wordpool_EN.txt	6	2	CAPE	POOL	CAPE	POOL	10	[0, 0, 0]	-999	PAL1	1	R1312N
1224.189	2.838	1225960	REC_START	n/a	n/a	6	2	CAPE	POOL	CAPE	POOL	10	[0, 0, 0]	-999	PAL1	1	R1312N
1227.027	1.187	1228798	REC_EVENT	2838	n/a	6	2	CAPE	POOL	CAPE	POOL	10	[0, 0, 0]	-999	PAL1	1	R1312N
1228.214	1.0	1229985	PROBE_END	n/a	n/a	6	2	CAPE	n/a	CAPE	POOL	10	[0, 0, 0]	-999	PAL1	1	R1312N
1229.214	0.007	1230985	REC_END	n/a	n/a	6	2	CAPE	n/a	CAPE	POOL	10	[0, 0, 0]	-999	PAL1	1	R1312N
1229.221	0.277	1230992	ORIENT_START	n/a	n/a	-999	-999	n/a	n/a	n/a	n/a	10	[0, 0, 0]	-999	PAL1	1	R1312N
1229.498	0.735	1231269	ORIENT_END	n/a	n/a	-999	-999	n/a	n/a	n/a	n/a	10	[0, 0, 0]	-999	PAL1	1	R1312N
1230.233	0.0	1232004	REC_START	n/a	n/a	5	3	OAR	MOON	MOON	OAR	10	[0, 0, 0]	-999	PAL1	1	R1312N
1230.233	2.312	1232004	PROBE_START	n/a	wordpools/wordpool_EN.txt	5	3	OAR	MOON	MOON	OAR	10	[0, 0, 0]	-999	PAL1	1	R1312N
1232.545	1.72	1234316	REC_EVENT	2312	n/a	5	3	OAR	MOON	MOON	OAR	10	[0, 0, 0]	-999	PAL1	1	R1312N
1234.265	1.0	1236036	PROBE_END	n/a	n/a	5	3	OAR	n/a	MOON	OAR	10	[0, 0, 0]	-999	PAL1	1	R1312N
1235.265	0.007	1237036	REC_END	n/a	n/a	5	3	OAR	n/a	MOON	OAR	10	[0, 0, 0]	-999	PAL1	1	R1312N
1235.272	0.277	1237043	ORIENT_START	n/a	n/a	-999	-999	n/a	n/a	n/a	n/a	10	[0, 0, 0]	-999	PAL1	1	R1312N
1235.549	0.591	1237320	ORIENT_END	n/a	n/a	-999	-999	n/a	n/a	n/a	n/a	10	[0, 0, 0]	-999	PAL1	1	R1312N
1236.14	0.0	1237911	PROBE_START	n/a	wordpools/wordpool_EN.txt	4	4	WAVE	KEY	KEY	WAVE	10	[0, 0, 0]	-999	PAL1	1	R1312N
1236.14	2.433	1237911	REC_START	n/a	n/a	4	4	WAVE	KEY	KEY	WAVE	10	[0, 0, 0]	-999	PAL1	1	R1312N
1238.573	1.593	1240344	REC_EVENT	2433	n/a	4	4	WAVE	KEY	KEY	WAVE	10	[0, 0, 0]	-999	PAL1	1	R1312N
1240.166	1.001	1241937	PROBE_END	n/a	n/a	4	4	WAVE	n/a	KEY	WAVE	10	[0, 0, 0]	-999	PAL1	1	R1312N
1241.167	0.011	1242938	REC_END	n/a	n/a	4	4	WAVE	n/a	KEY	WAVE	10	[0, 0, 0]	-999	PAL1	1	R1312N
1241.178	0.272	1242949	ORIENT_START	n/a	n/a	-999	-999	n/a	n/a	n/a	n/a	10	[0, 0, 0]	-999	PAL1	1	R1312N
1241.45	0.62	1243221	ORIENT_END	n/a	n/a	-999	-999	n/a	n/a	n/a	n/a	10	[0, 0, 0]	-999	PAL1	1	R1312N
1242.07	0.0	1243841	REC_START	n/a	n/a	1	5	TEETH	ANT	TEETH	ANT	10	[0, 0, 0]	-999	PAL1	1	R1312N
1242.07	1.898	1243841	PROBE_START	n/a	wordpools/wordpool_EN.txt	1	5	TEETH	ANT	TEETH	ANT	10	[0, 0, 0]	-999	PAL1	1	R1312N
1243.968	2.133	1245739	REC_EVENT	1898	n/a	1	5	TEETH	ANT	TEETH	ANT	10	[0, 0, 0]	-999	PAL1	1	R1312N
1246.101	0.999	1247872	PROBE_END	n/a	n/a	1	5	TEETH	n/a	TEETH	ANT	10	[0, 0, 0]	-999	PAL1	1	R1312N
1247.1	0.01	1248870	REC_END	n/a	n/a	1	5	TEETH	n/a	TEETH	ANT	10	[0, 0, 0]	-999	PAL1	1	R1312N
1247.11	0.274	1248880	ORIENT_START	n/a	n/a	-999	-999	n/a	n/a	n/a	n/a	10	[0, 0, 0]	-999	PAL1	1	R1312N
1247.384	0.748	1249154	ORIENT_END	n/a	n/a	-999	-999	n/a	n/a	n/a	n/a	10	[0, 0, 0]	-999	PAL1	1	R1312N
1248.132	0.0	1249902	PROBE_START	n/a	wordpools/wordpool_EN.txt	2	6	ROAD	PET	PET	ROAD	10	[0, 0, 0]	-999	PAL1	1	R1312N
1248.132	2.252	1249902	REC_START	n/a	n/a	2	6	ROAD	PET	PET	ROAD	10	[0, 0, 0]	-999	PAL1	1	R1312N
1250.384	1.784	1252154	REC_EVENT	2252	n/a	2	6	ROAD	PET	PET	ROAD	10	[0, 0, 0]	-999	PAL1	1	R1312N
1252.168	1.001	1253938	PROBE_END	n/a	n/a	2	6	ROAD	n/a	PET	ROAD	10	[0, 0, 0]	-999	PAL1	1	R1312N
1253.169	0.005	1254939	REC_END	n/a	n/a	2	6	ROAD	n/a	PET	ROAD	10	[0, 0, 0]	-999	PAL1	1	R1312N
1253.174	0.001	1254944	RETRIEVAL_END	n/a	n/a	-999	-999	n/a	n/a	n/a	n/a	10	[0, 0, 0]	-999	PAL1	1	R1312N
1253.175	0.018	1254945	TRIAL_END	n/a	n/a	-999	-999	n/a	n/a	n/a	n/a	10	[0, 0, 0]	-999	PAL1	1	R1312N
1253.193	0.0	1254963	TRIAL_START	n/a	n/a	-999	-999	n/a	n/a	n/a	n/a	10	[0, 0, 0]	-999	PAL1	1	R1312N
1253.193	0.001	1254963	TRIAL	n/a	n/a	-999	-999	n/a	n/a	n/a	n/a	11	[0, 0, 0]	-999	PAL1	1	R1312N
1253.194	3.625	1254964	WAITING_START	n/a	n/a	-999	-999	n/a	n/a	n/a	n/a	11	[0, 0, 0]	-999	PAL1	1	R1312N
1256.819	0.001	1258589	WAITING_END	n/a	n/a	-999	-999	n/a	n/a	n/a	n/a	11	[0, 0, 0]	-999	PAL1	1	R1312N
1256.82	10.428	1258590	COUNTDOWN_START	n/a	n/a	-999	-999	n/a	n/a	n/a	n/a	11	[0, 0, 0]	-999	PAL1	1	R1312N
1267.248	0.001	1269018	COUNTDOWN_END	n/a	n/a	-999	-999	n/a	n/a	n/a	n/a	11	[0, 0, 0]	-999	PAL1	1	R1312N
1267.249	0.738	1269019	ORIENT_START	n/a	n/a	-999	-999	n/a	n/a	n/a	n/a	11	[0, 0, 0]	-999	PAL1	1	R1312N
1267.987	0.0	1269757	ENCODING_START	n/a	n/a	-999	-999	n/a	n/a	n/a	n/a	11	[0, 0, 0]	-999	PAL1	1	R1312N
1267.987	1.16	1269757	ORIENT_END	n/a	n/a	-999	-999	n/a	n/a	n/a	n/a	11	[0, 0, 0]	-999	PAL1	1	R1312N
1269.147	4.025	1270917	STUDY_PAIR	n/a	wordpools/wordpool_EN.txt	1	-999	n/a	SPEAR	SPEAR	DUCK	11	[0, 0, 0]	-999	PAL1	1	R1312N
1273.172	0.653	1274942	STUDY_PAIR_OFF	n/a	n/a	1	-999	n/a	SPEAR	SPEAR	DUCK	11	[0, 0, 0]	-999	PAL1	1	R1312N
1273.825	4.031	1275595	STUDY_PAIR	n/a	wordpools/wordpool_EN.txt	2	-999	n/a	STEAK	FOOT	STEAK	11	[0, 0, 0]	-999	PAL1	1	R1312N
1277.856	0.513	1279625	STUDY_PAIR_OFF	n/a	n/a	2	-999	n/a	STEAK	FOOT	STEAK	11	[0, 0, 0]	-999	PAL1	1	R1312N
1278.369	4.038	1280138	STUDY_PAIR	n/a	wordpools/wordpool_EN.txt	3	-999	n/a	BOOT	BOOT	CAT	11	[0, 0, 0]	-999	PAL1	1	R1312N
1282.407	0.566	1284176	STUDY_PAIR_OFF	n/a	n/a	3	-999	n/a	BOOT	BOOT	CAT	11	[0, 0, 0]	-999	PAL1	1	R1312N
1282.973	4.034	1284742	STUDY_PAIR	n/a	wordpools/wordpool_EN.txt	4	-999	n/a	DOG	FENCE	DOLL	11	[0, 0, 0]	-999	PAL1	1	R1312N
1287.007	0.659	1288776	STUDY_PAIR_OFF	n/a	n/a	4	-999	n/a	DOG	FENCE	DOLL	11	[0, 0, 0]	-999	PAL1	1	R1312N
1287.666	4.026	1289435	STUDY_PAIR	n/a	wordpools/wordpool_EN.txt	5	-999	n/a	SMOKE	SMOKE	BARN	11	[0, 0, 0]	-999	PAL1	1	R1312N
1291.692	0.728	1293461	STUDY_PAIR_OFF	n/a	n/a	5	-999	n/a	SMOKE	SMOKE	BARN	11	[0, 0, 0]	-999	PAL1	1	R1312N
1292.42	4.039	1294189	STUDY_PAIR	n/a	wordpools/wordpool_EN.txt	6	-999	n/a	STICK	LAWN	STICK	11	[0, 0, 0]	-999	PAL1	1	R1312N
1296.459	0.001	1298228	STUDY_PAIR_OFF	n/a	n/a	6	-999	n/a	STICK	LAWN	STICK	11	[0, 0, 0]	-999	PAL1	1	R1312N
1296.46	0.0	1298229	MATH_START	n/a	n/a	-999	-999	n/a	n/a	n/a	n/a	11	[0, 0, 0]	-999	PAL1	1	R1312N
1296.46	0.0	1298229	ENCODING_END	n/a	n/a	-999	-999	n/a	n/a	n/a	n/a	11	[0, 0, 0]	-999	PAL1	1	R1312N
1296.46	0.015	1298229	START	n/a	n/a	-999	-999	n/a	n/a	n/a	n/a	11	[-999, -999, -999]	-999	PAL1	1	R1312N
1296.475	10.202	1298244	PROB	10180	n/a	-999	-999	n/a	n/a	n/a	n/a	11	[7, 9, 9]	26	PAL1	1	R1312N
1306.677	12.954	1308445	PROB	12954	n/a	-999	-999	n/a	n/a	n/a	n/a	11	[5, 7, 9]	21	PAL1	1	R1312N
1319.631	0.015	1321399	STOP	n/a	n/a	-999	-999	n/a	n/a	n/a	n/a	11	[-999, -999, -999]	-999	PAL1	1	R1312N
1319.646	0.673	1321414	MATH_END	n/a	n/a	-999	-999	n/a	n/a	n/a	n/a	11	[0, 0, 0]	-999	PAL1	1	R1312N
1320.319	0.001	1322087	RETRIEVAL_START	n/a	n/a	-999	-999	n/a	n/a	n/a	n/a	11	[0, 0, 0]	-999	PAL1	1	R1312N
1320.32	0.276	1322088	ORIENT_START	n/a	n/a	-999	-999	n/a	n/a	n/a	n/a	11	[0, 0, 0]	-999	PAL1	1	R1312N
1320.596	0.63	1322364	ORIENT_END	n/a	n/a	-999	-999	n/a	n/a	n/a	n/a	11	[0, 0, 0]	-999	PAL1	1	R1312N
1321.226	0.0	1322994	REC_START	n/a	n/a	1	1	DUCK	SPEAR	SPEAR	DUCK	11	[0, 0, 0]	-999	PAL1	1	R1312N
1321.226	1.782	1322994	PROBE_START	n/a	wordpools/wordpool_EN.txt	1	1	DUCK	SPEAR	SPEAR	DUCK	11	[0, 0, 0]	-999	PAL1	1	R1312N
1323.008	2.256	1324776	REC_EVENT	1782	n/a	1	1	DUCK	SPEAR	SPEAR	DUCK	11	[0, 0, 0]	-999	PAL1	1	R1312N
1325.264	1.0	1327032	PROBE_END	n/a	n/a	1	1	DUCK	n/a	SPEAR	DUCK	11	[0, 0, 0]	-999	PAL1	1	R1312N
1326.264	0.011	1328032	REC_END	n/a	n/a	1	1	DUCK	n/a	SPEAR	DUCK	11	[0, 0, 0]	-999	PAL1	1	R1312N
1326.275	0.272	1328043	ORIENT_START	n/a	n/a	-999	-999	n/a	n/a	n/a	n/a	11	[0, 0, 0]	-999	PAL1	1	R1312N
1326.547	0.637	1328315	ORIENT_END	n/a	n/a	-999	-999	n/a	n/a	n/a	n/a	11	[0, 0, 0]	-999	PAL1	1	R1312N
1327.184	0.0	1328952	PROBE_START	n/a	wordpools/wordpool_EN.txt	6	2	LAWN	STICK	LAWN	STICK	11	[0, 0, 0]	-999	PAL1	1	R1312N
1327.184	2.059	1328952	REC_START	n/a	n/a	6	2	LAWN	STICK	LAWN	STICK	11	[0, 0, 0]	-999	PAL1	1	R1312N
1329.243	1.972	1331011	REC_EVENT	2059	n/a	6	2	LAWN	STICK	LAWN	STICK	11	[0, 0, 0]	-999	PAL1	1	R1312N
1331.215	1.0	1332983	PROBE_END	n/a	n/a	6	2	LAWN	n/a	LAWN	STICK	11	[0, 0, 0]	-999	PAL1	1	R1312N
1332.215	0.012	1333983	REC_END	n/a	n/a	6	2	LAWN	n/a	LAWN	STICK	11	[0, 0, 0]	-999	PAL1	1	R1312N
1332.227	0.271	1333995	ORIENT_START	n/a	n/a	-999	-999	n/a	n/a	n/a	n/a	11	[0, 0, 0]	-999	PAL1	1	R1312N
1332.498	0.608	1334266	ORIENT_END	n/a	n/a	-999	-999	n/a	n/a	n/a	n/a	11	[0, 0, 0]	-999	PAL1	1	R1312N
1333.106	0.0	1334874	REC_START	n/a	n/a	3	3	CAT	BOOT	BOOT	CAT	11	[0, 0, 0]	-999	PAL1	1	R1312N
1333.106	2.406	1334874	PROBE_START	n/a	wordpools/wordpool_EN.txt	3	3	CAT	BOOT	BOOT	CAT	11	[0, 0, 0]	-999	PAL1	1	R1312N
1335.512	1.62	1337280	REC_EVENT	2406	n/a	3	3	CAT	BOOT	BOOT	CAT	11	[0, 0, 0]	-999	PAL1	1	R1312N
1337.132	1.001	1338899	PROBE_END	n/a	n/a	3	3	CAT	n/a	BOOT	CAT	11	[0, 0, 0]	-999	PAL1	1	R1312N
1338.133	0.012	1339900	REC_END	n/a	n/a	3	3	CAT	n/a	BOOT	CAT	11	[0, 0, 0]	-999	PAL1	1	R1312N
1338.145	0.271	1339912	ORIENT_START	n/a	n/a	-999	-999	n/a	n/a	n/a	n/a	11	[0, 0, 0]	-999	PAL1	1	R1312N
1338.416	0.686	1340183	ORIENT_END	n/a	n/a	-999	-999	n/a	n/a	n/a	n/a	11	[0, 0, 0]	-999	PAL1	1	R1312N
1339.102	0.001	1340869	REC_START	n/a	n/a	4	4	FENCE	DOG	FENCE	DOLL	11	[0, 0, 0]	-999	PAL1	1	R1312N
1339.103	2.104	1340870	PROBE_START	n/a	wordpools/wordpool_EN.txt	4	4	FENCE	DOG	FENCE	DOLL	11	[0, 0, 0]	-999	PAL1	1	R1312N
1341.207	1.926	1342974	REC_EVENT	2104	n/a	4	4	FENCE	DOG	FENCE	DOLL	11	[0, 0, 0]	-999	PAL1	1	R1312N
1343.133	1.001	1344900	PROBE_END	n/a	n/a	4	4	FENCE	n/a	FENCE	DOLL	11	[0, 0, 0]	-999	PAL1	1	R1312N
1344.134	0.012	1345901	REC_END	n/a	n/a	4	4	FENCE	n/a	FENCE	DOLL	11	[0, 0, 0]	-999	PAL1	1	R1312N
1344.146	0.271	1345913	ORIENT_START	n/a	n/a	-999	-999	n/a	n/a	n/a	n/a	11	[0, 0, 0]	-999	PAL1	1	R1312N
1344.417	0.502	1346184	ORIENT_END	n/a	n/a	-999	-999	n/a	n/a	n/a	n/a	11	[0, 0, 0]	-999	PAL1	1	R1312N
1344.919	0.0	1346686	REC_START	n/a	n/a	5	5	BARN	SMOKE	SMOKE	BARN	11	[0, 0, 0]	-999	PAL1	1	R1312N
1344.919	1.689	1346686	PROBE_START	n/a	wordpools/wordpool_EN.txt	5	5	BARN	SMOKE	SMOKE	BARN	11	[0, 0, 0]	-999	PAL1	1	R1312N
1346.608	2.343	1348375	REC_EVENT	1689	n/a	5	5	BARN	SMOKE	SMOKE	BARN	11	[0, 0, 0]	-999	PAL1	1	R1312N
1348.951	1.001	1350718	PROBE_END	n/a	n/a	5	5	BARN	n/a	SMOKE	BARN	11	[0, 0, 0]	-999	PAL1	1	R1312N
1349.952	0.01	1351719	REC_END	n/a	n/a	5	5	BARN	n/a	SMOKE	BARN	11	[0, 0, 0]	-999	PAL1	1	R1312N
1349.962	0.273	1351729	ORIENT_START	n/a	n/a	-999	-999	n/a	n/a	n/a	n/a	11	[0, 0, 0]	-999	PAL1	1	R1312N
1350.235	0.691	1352002	ORIENT_END	n/a	n/a	-999	-999	n/a	n/a	n/a	n/a	11	[0, 0, 0]	-999	PAL1	1	R1312N
1350.926	0.0	1352693	PROBE_START	n/a	wordpools/wordpool_EN.txt	2	6	FOOT	STEAK	FOOT	STEAK	11	[0, 0, 0]	-999	PAL1	1	R1312N
1350.926	1.927	1352693	REC_START	n/a	n/a	2	6	FOOT	STEAK	FOOT	STEAK	11	[0, 0, 0]	-999	PAL1	1	R1312N
1352.853	2.099	1354620	REC_EVENT	1927	n/a	2	6	FOOT	STEAK	FOOT	STEAK	11	[0, 0, 0]	-999	PAL1	1	R1312N
1354.952	1.0	1356719	PROBE_END	n/a	n/a	2	6	FOOT	n/a	FOOT	STEAK	11	[0, 0, 0]	-999	PAL1	1	R1312N
1355.952	0.011	1357719	REC_END	n/a	n/a	2	6	FOOT	n/a	FOOT	STEAK	11	[0, 0, 0]	-999	PAL1	1	R1312N
1355.963	0.001	1357730	RETRIEVAL_END	n/a	n/a	-999	-999	n/a	n/a	n/a	n/a	11	[0, 0, 0]	-999	PAL1	1	R1312N
1355.964	0.019	1357731	TRIAL_END	n/a	n/a	-999	-999	n/a	n/a	n/a	n/a	11	[0, 0, 0]	-999	PAL1	1	R1312N
1355.983	0.0	1357750	TRIAL_START	n/a	n/a	-999	-999	n/a	n/a	n/a	n/a	11	[0, 0, 0]	-999	PAL1	1	R1312N
1355.983	0.0	1357750	TRIAL	n/a	n/a	-999	-999	n/a	n/a	n/a	n/a	12	[0, 0, 0]	-999	PAL1	1	R1312N
1355.983	2.77	1357750	WAITING_START	n/a	n/a	-999	-999	n/a	n/a	n/a	n/a	12	[0, 0, 0]	-999	PAL1	1	R1312N
1358.753	0.0	1360520	WAITING_END	n/a	n/a	-999	-999	n/a	n/a	n/a	n/a	12	[0, 0, 0]	-999	PAL1	1	R1312N
1358.753	10.429	1360520	COUNTDOWN_START	n/a	n/a	-999	-999	n/a	n/a	n/a	n/a	12	[0, 0, 0]	-999	PAL1	1	R1312N
1369.182	0.001	1370948	COUNTDOWN_END	n/a	n/a	-999	-999	n/a	n/a	n/a	n/a	12	[0, 0, 0]	-999	PAL1	1	R1312N
1369.183	0.588	1370949	ORIENT_START	n/a	n/a	-999	-999	n/a	n/a	n/a	n/a	12	[0, 0, 0]	-999	PAL1	1	R1312N
1369.771	0.001	1371537	ORIENT_END	n/a	n/a	-999	-999	n/a	n/a	n/a	n/a	12	[0, 0, 0]	-999	PAL1	1	R1312N
1369.772	1.156	1371538	ENCODING_START	n/a	n/a	-999	-999	n/a	n/a	n/a	n/a	12	[0, 0, 0]	-999	PAL1	1	R1312N
1370.928	4.027	1372694	STUDY_PAIR	n/a	wordpools/wordpool_EN.txt	1	-999	n/a	CRANE	CRANE	PIPE	12	[0, 0, 0]	-999	PAL1	1	R1312N
1374.955	0.636	1376721	STUDY_PAIR_OFF	n/a	n/a	1	-999	n/a	CRANE	CRANE	PIPE	12	[0, 0, 0]	-999	PAL1	1	R1312N
1375.591	4.032	1377357	STUDY_PAIR	n/a	wordpools/wordpool_EN.txt	2	-999	n/a	EAR	INK	EAR	12	[0, 0, 0]	-999	PAL1	1	R1312N
1379.623	0.567	1381389	STUDY_PAIR_OFF	n/a	n/a	2	-999	n/a	EAR	INK	EAR	12	[0, 0, 0]	-999	PAL1	1	R1312N
1380.19	4.033	1381956	STUDY_PAIR	n/a	wordpools/wordpool_EN.txt	3	-999	n/a	BEAR	CHALK	BEAR	12	[0, 0, 0]	-999	PAL1	1	R1312N
1384.223	0.536	1385989	STUDY_PAIR_OFF	n/a	n/a	3	-999	n/a	BEAR	CHALK	BEAR	12	[0, 0, 0]	-999	PAL1	1	R1312N
1384.759	4.032	1386525	STUDY_PAIR	n/a	wordpools/wordpool_EN.txt	4	-999	n/a	SUN	SUN	STAIR	12	[0, 0, 0]	-999	PAL1	1	R1312N
1388.791	0.546	1390557	STUDY_PAIR_OFF	n/a	n/a	4	-999	n/a	SUN	SUN	STAIR	12	[0, 0, 0]	-999	PAL1	1	R1312N
1389.337	4.021	1391103	STUDY_PAIR	n/a	wordpools/wordpool_EN.txt	5	-999	n/a	HOUSE	HOUSE	HORN	12	[0, 0, 0]	-999	PAL1	1	R1312N
1393.358	0.565	1395124	STUDY_PAIR_OFF	n/a	n/a	5	-999	n/a	HOUSE	HOUSE	HORN	12	[0, 0, 0]	-999	PAL1	1	R1312N
1393.923	4.036	1395689	STUDY_PAIR	n/a	wordpools/wordpool_EN.txt	6	-999	n/a	GUARD	PANTS	GUARD	12	[0, 0, 0]	-999	PAL1	1	R1312N
1397.959	0.0	1399724	ENCODING_END	n/a	n/a	-999	-999	n/a	n/a	n/a	n/a	12	[0, 0, 0]	-999	PAL1	1	R1312N
1397.959	0.0	1399724	MATH_START	n/a	n/a	-999	-999	n/a	n/a	n/a	n/a	12	[0, 0, 0]	-999	PAL1	1	R1312N
1397.959	0.0	1399724	STUDY_PAIR_OFF	n/a	n/a	6	-999	n/a	GUARD	PANTS	GUARD	12	[0, 0, 0]	-999	PAL1	1	R1312N
1397.959	0.015	1399724	START	n/a	n/a	-999	-999	n/a	n/a	n/a	n/a	12	[-999, -999, -999]	-999	PAL1	1	R1312N
1397.974	7.519	1399739	PROB	7480	n/a	-999	-999	n/a	n/a	n/a	n/a	12	[3, 1, 8]	12	PAL1	1	R1312N
1405.493	11.485	1407258	PROB	11458	n/a	-999	-999	n/a	n/a	n/a	n/a	12	[8, 4, 7]	19	PAL1	1	R1312N
1416.978	7.669	1418743	PROB	7669	n/a	-999	-999	n/a	n/a	n/a	n/a	12	[8, 2, 1]	11	PAL1	1	R1312N
1424.647	0.016	1426412	STOP	n/a	n/a	-999	-999	n/a	n/a	n/a	n/a	12	[-999, -999, -999]	-999	PAL1	1	R1312N
1424.663	0.659	1426428	MATH_END	n/a	n/a	-999	-999	n/a	n/a	n/a	n/a	12	[0, 0, 0]	-999	PAL1	1	R1312N
1425.322	0.002	1427087	RETRIEVAL_START	n/a	n/a	-999	-999	n/a	n/a	n/a	n/a	12	[0, 0, 0]	-999	PAL1	1	R1312N
1425.324	0.273	1427089	ORIENT_START	n/a	n/a	-999	-999	n/a	n/a	n/a	n/a	12	[0, 0, 0]	-999	PAL1	1	R1312N
1425.597	0.724	1427362	ORIENT_END	n/a	n/a	-999	-999	n/a	n/a	n/a	n/a	12	[0, 0, 0]	-999	PAL1	1	R1312N
1426.321	0.0	1428085	REC_START	n/a	n/a	5	1	HORN	HOUSE	HOUSE	HORN	12	[0, 0, 0]	-999	PAL1	1	R1312N
1426.321	2.742	1428085	PROBE_START	n/a	wordpools/wordpool_EN.txt	5	1	HORN	HOUSE	HOUSE	HORN	12	[0, 0, 0]	-999	PAL1	1	R1312N
1429.063	1.285	1430827	REC_EVENT	2742	n/a	5	1	HORN	HOUSE	HOUSE	HORN	12	[0, 0, 0]	-999	PAL1	1	R1312N
1430.348	1.0	1432112	PROBE_END	n/a	n/a	5	1	HORN	n/a	HOUSE	HORN	12	[0, 0, 0]	-999	PAL1	1	R1312N
1431.348	0.013	1433112	REC_END	n/a	n/a	5	1	HORN	n/a	HOUSE	HORN	12	[0, 0, 0]	-999	PAL1	1	R1312N
1431.361	0.27	1433125	ORIENT_START	n/a	n/a	-999	-999	n/a	n/a	n/a	n/a	12	[0, 0, 0]	-999	PAL1	1	R1312N
1431.631	0.672	1433395	ORIENT_END	n/a	n/a	-999	-999	n/a	n/a	n/a	n/a	12	[0, 0, 0]	-999	PAL1	1	R1312N
1432.303	0.0	1434067	REC_START	n/a	n/a	4	2	STAIR	SUN	SUN	STAIR	12	[0, 0, 0]	-999	PAL1	1	R1312N
1432.303	2.114	1434067	PROBE_START	n/a	wordpools/wordpool_EN.txt	4	2	STAIR	SUN	SUN	STAIR	12	[0, 0, 0]	-999	PAL1	1	R1312N
1434.417	1.915	1436181	REC_EVENT	2114	n/a	4	2	STAIR	SUN	SUN	STAIR	12	[0, 0, 0]	-999	PAL1	1	R1312N
1436.332	1.001	1438096	PROBE_END	n/a	n/a	4	2	STAIR	n/a	SUN	STAIR	12	[0, 0, 0]	-999	PAL1	1	R1312N
1437.333	0.012	1439097	REC_END	n/a	n/a	4	2	STAIR	n/a	SUN	STAIR	12	[0, 0, 0]	-999	PAL1	1	R1312N
1437.345	0.271	1439109	ORIENT_START	n/a	n/a	-999	-999	n/a	n/a	n/a	n/a	12	[0, 0, 0]	-999	PAL1	1	R1312N
1437.616	0.653	1439380	ORIENT_END	n/a	n/a	-999	-999	n/a	n/a	n/a	n/a	12	[0, 0, 0]	-999	PAL1	1	R1312N
1438.269	0.0	1440033	REC_START	n/a	n/a	3	3	CHALK	BEAR	CHALK	BEAR	12	[0, 0, 0]	-999	PAL1	1	R1312N
1438.269	2.124	1440033	PROBE_START	n/a	wordpools/wordpool_EN.txt	3	3	CHALK	BEAR	CHALK	BEAR	12	[0, 0, 0]	-999	PAL1	1	R1312N
1440.393	1.907	1442157	REC_EVENT	2124	n/a	3	3	CHALK	BEAR	CHALK	BEAR	12	[0, 0, 0]	-999	PAL1	1	R1312N
1442.3	1.0	1444064	PROBE_END	n/a	n/a	3	3	CHALK	n/a	CHALK	BEAR	12	[0, 0, 0]	-999	PAL1	1	R1312N
1443.3	0.013	1445064	REC_END	n/a	n/a	3	3	CHALK	n/a	CHALK	BEAR	12	[0, 0, 0]	-999	PAL1	1	R1312N
1443.313	0.27	1445077	ORIENT_START	n/a	n/a	-999	-999	n/a	n/a	n/a	n/a	12	[0, 0, 0]	-999	PAL1	1	R1312N
1443.583	0.542	1445347	ORIENT_END	n/a	n/a	-999	-999	n/a	n/a	n/a	n/a	12	[0, 0, 0]	-999	PAL1	1	R1312N
1444.125	0.001	1445889	REC_START	n/a	n/a	2	4	INK	EAR	INK	EAR	12	[0, 0, 0]	-999	PAL1	1	R1312N
1444.126	2.166	1445890	PROBE_START	n/a	wordpools/wordpool_EN.txt	2	4	INK	EAR	INK	EAR	12	[0, 0, 0]	-999	PAL1	1	R1312N
1446.292	1.859	1448056	REC_EVENT	2166	n/a	2	4	INK	EAR	INK	EAR	12	[0, 0, 0]	-999	PAL1	1	R1312N
1448.151	0.999	1449915	PROBE_END	n/a	n/a	2	4	INK	n/a	INK	EAR	12	[0, 0, 0]	-999	PAL1	1	R1312N
1449.15	0.012	1450914	REC_END	n/a	n/a	2	4	INK	n/a	INK	EAR	12	[0, 0, 0]	-999	PAL1	1	R1312N
1449.162	0.272	1450926	ORIENT_START	n/a	n/a	-999	-999	n/a	n/a	n/a	n/a	12	[0, 0, 0]	-999	PAL1	1	R1312N
1449.434	0.705	1451198	ORIENT_END	n/a	n/a	-999	-999	n/a	n/a	n/a	n/a	12	[0, 0, 0]	-999	PAL1	1	R1312N
1450.139	0.0	1451903	REC_START	n/a	n/a	1	5	PIPE	CRANE	CRANE	PIPE	12	[0, 0, 0]	-999	PAL1	1	R1312N
1450.139	2.681	1451903	PROBE_START	n/a	wordpools/wordpool_EN.txt	1	5	PIPE	CRANE	CRANE	PIPE	12	[0, 0, 0]	-999	PAL1	1	R1312N
1452.82	1.348	1454584	REC_EVENT	2681	n/a	1	5	PIPE	CRANE	CRANE	PIPE	12	[0, 0, 0]	-999	PAL1	1	R1312N
1454.168	1.001	1455932	PROBE_END	n/a	n/a	1	5	PIPE	n/a	CRANE	PIPE	12	[0, 0, 0]	-999	PAL1	1	R1312N
1455.169	0.011	1456933	REC_END	n/a	n/a	1	5	PIPE	n/a	CRANE	PIPE	12	[0, 0, 0]	-999	PAL1	1	R1312N
1455.18	0.272	1456944	ORIENT_START	n/a	n/a	-999	-999	n/a	n/a	n/a	n/a	12	[0, 0, 0]	-999	PAL1	1	R1312N
1455.452	0.625	1457216	ORIENT_END	n/a	n/a	-999	-999	n/a	n/a	n/a	n/a	12	[0, 0, 0]	-999	PAL1	1	R1312N
1456.077	0.001	1457840	REC_START	n/a	n/a	6	6	PANTS	GUARD	PANTS	GUARD	12	[0, 0, 0]	-999	PAL1	1	R1312N
1456.078	1.963	1457841	PROBE_START	n/a	wordpools/wordpool_EN.txt	6	6	PANTS	GUARD	PANTS	GUARD	12	[0, 0, 0]	-999	PAL1	1	R1312N
1458.041	2.062	1459804	REC_EVENT	1963	n/a	6	6	PANTS	GUARD	PANTS	GUARD	12	[0, 0, 0]	-999	PAL1	1	R1312N
1460.103	0.999	1461866	PROBE_END	n/a	n/a	6	6	PANTS	n/a	PANTS	GUARD	12	[0, 0, 0]	-999	PAL1	1	R1312N
1461.102	0.011	1462865	REC_END	n/a	n/a	6	6	PANTS	n/a	PANTS	GUARD	12	[0, 0, 0]	-999	PAL1	1	R1312N
1461.113	0.001	1462876	RETRIEVAL_END	n/a	n/a	-999	-999	n/a	n/a	n/a	n/a	12	[0, 0, 0]	-999	PAL1	1	R1312N
1461.114	0.019	1462877	TRIAL_END	n/a	n/a	-999	-999	n/a	n/a	n/a	n/a	12	[0, 0, 0]	-999	PAL1	1	R1312N
1461.133	0.0	1462896	TRIAL_START	n/a	n/a	-999	-999	n/a	n/a	n/a	n/a	12	[0, 0, 0]	-999	PAL1	1	R1312N
1461.133	0.0	1462896	TRIAL	n/a	n/a	-999	-999	n/a	n/a	n/a	n/a	13	[0, 0, 0]	-999	PAL1	1	R1312N
1461.133	10.322	1462896	WAITING_START	n/a	n/a	-999	-999	n/a	n/a	n/a	n/a	13	[0, 0, 0]	-999	PAL1	1	R1312N
1471.455	0.0	1473218	WAITING_END	n/a	n/a	-999	-999	n/a	n/a	n/a	n/a	13	[0, 0, 0]	-999	PAL1	1	R1312N
1471.455	10.429	1473218	COUNTDOWN_START	n/a	n/a	-999	-999	n/a	n/a	n/a	n/a	13	[0, 0, 0]	-999	PAL1	1	R1312N
1481.884	0.0	1483647	COUNTDOWN_END	n/a	n/a	-999	-999	n/a	n/a	n/a	n/a	13	[0, 0, 0]	-999	PAL1	1	R1312N
1481.884	0.572	1483647	ORIENT_START	n/a	n/a	-999	-999	n/a	n/a	n/a	n/a	13	[0, 0, 0]	-999	PAL1	1	R1312N
1482.456	0.001	1484219	ORIENT_END	n/a	n/a	-999	-999	n/a	n/a	n/a	n/a	13	[0, 0, 0]	-999	PAL1	1	R1312N
1482.457	1.119	1484220	ENCODING_START	n/a	n/a	-999	-999	n/a	n/a	n/a	n/a	13	[0, 0, 0]	-999	PAL1	1	R1312N
1483.576	4.031	1485339	STUDY_PAIR	n/a	wordpools/wordpool_EN.txt	1	-999	n/a	ROOF	CLOWN	TOAD	13	[0, 0, 0]	-999	PAL1	1	R1312N
1487.607	0.627	1489369	STUDY_PAIR_OFF	n/a	n/a	1	-999	n/a	ROOF	CLOWN	TOAD	13	[0, 0, 0]	-999	PAL1	1	R1312N
1488.234	4.024	1489996	STUDY_PAIR	n/a	wordpools/wordpool_EN.txt	2	-999	n/a	CUP	TOY	CUP	13	[0, 0, 0]	-999	PAL1	1	R1312N
1492.258	0.556	1494020	STUDY_PAIR_OFF	n/a	n/a	2	-999	n/a	CUP	TOY	CUP	13	[0, 0, 0]	-999	PAL1	1	R1312N
1492.814	4.028	1494576	STUDY_PAIR	n/a	wordpools/wordpool_EN.txt	3	-999	n/a	FARM	FARM	FISH	13	[0, 0, 0]	-999	PAL1	1	R1312N
1496.842	0.584	1498604	STUDY_PAIR_OFF	n/a	n/a	3	-999	n/a	FARM	FARM	FISH	13	[0, 0, 0]	-999	PAL1	1	R1312N
1497.426	4.033	1499188	STUDY_PAIR	n/a	wordpools/wordpool_EN.txt	4	-999	n/a	n/a	ROCK	TREE	13	[0, 0, 0]	-999	PAL1	1	R1312N
1501.459	0.609	1503221	STUDY_PAIR_OFF	n/a	n/a	4	-999	n/a	n/a	ROCK	TREE	13	[0, 0, 0]	-999	PAL1	1	R1312N
1502.068	4.026	1503830	STUDY_PAIR	n/a	wordpools/wordpool_EN.txt	5	-999	n/a	BRICK	DOOR	BRICK	13	[0, 0, 0]	-999	PAL1	1	R1312N
1506.094	0.545	1507856	STUDY_PAIR_OFF	n/a	n/a	5	-999	n/a	BRICK	DOOR	BRICK	13	[0, 0, 0]	-999	PAL1	1	R1312N
1506.639	4.039	1508401	STUDY_PAIR	n/a	wordpools/wordpool_EN.txt	6	-999	n/a	n/a	ROOF	FROG	13	[0, 0, 0]	-999	PAL1	1	R1312N
1510.678	0.0	1512440	STUDY_PAIR_OFF	n/a	n/a	6	-999	n/a	n/a	ROOF	FROG	13	[0, 0, 0]	-999	PAL1	1	R1312N
1510.678	0.001	1512440	ENCODING_END	n/a	n/a	-999	-999	n/a	n/a	n/a	n/a	13	[0, 0, 0]	-999	PAL1	1	R1312N
