onset	duration	sample	trial_type	response_time	serialpos	probepos	probe_word	resp_word	study_1	study_2	list	test	answer	experiment	session	subject
0.0	178.932	1635	INSTRUCT_START	n/a	-999	-999	n/a	n/a	n/a	n/a	-1	[0, 0, 0]	-999	PAL1	3	R1333N
178.932	2.568	180560	INSTRUCT_END	n/a	-999	-999	n/a	n/a	n/a	n/a	-1	[0, 0, 0]	-999	PAL1	3	R1333N
181.5	10.623	183128	MIC TEST_START	n/a	-999	-999	n/a	n/a	n/a	n/a	-1	[0, 0, 0]	-999	PAL1	3	R1333N
192.123	0.012	193751	MIC TEST_END	n/a	-999	-999	n/a	n/a	n/a	n/a	-1	[0, 0, 0]	-999	PAL1	3	R1333N
192.135	0.0	193763	TRIAL_START	n/a	-999	-999	n/a	n/a	n/a	n/a	-1	[0, 0, 0]	-999	PAL1	3	R1333N
192.135	0.001	193763	TRIAL	n/a	-999	-999	n/a	n/a	n/a	n/a	-1	[0, 0, 0]	-999	PAL1	3	R1333N
192.136	2.165	193764	WAITING_START	n/a	-999	-999	n/a	n/a	n/a	n/a	-1	[0, 0, 0]	-999	PAL1	3	R1333N
194.301	0.0	195928	WAITING_END	n/a	-999	-999	n/a	n/a	n/a	n/a	-1	[0, 0, 0]	-999	PAL1	3	R1333N
194.301	10.431	195928	COUNTDOWN_START	n/a	-999	-999	n/a	n/a	n/a	n/a	-1	[0, 0, 0]	-999	PAL1	3	R1333N
204.732	0.001	206359	COUNTDOWN_END	n/a	-999	-999	n/a	n/a	n/a	n/a	-1	[0, 0, 0]	-999	PAL1	3	R1333N
204.733	0.519	206360	ORIENT_START	n/a	-999	-999	n/a	n/a	n/a	n/a	-1	[0, 0, 0]	-999	PAL1	3	R1333N
205.252	0.001	206879	ORIENT_END	n/a	-999	-999	n/a	n/a	n/a	n/a	-1	[0, 0, 0]	-999	PAL1	3	R1333N
205.253	1.078	206880	ENCODING_START	n/a	-999	-999	n/a	n/a	n/a	n/a	-1	[0, 0, 0]	-999	PAL1	3	R1333N
206.331	4.04	207958	STUDY_PAIR	n/a	1	-999	n/a	RING	WAGON	RING	-1	[0, 0, 0]	-999	PAL1	3	R1333N
210.371	0.622	211998	STUDY_PAIR_OFF	n/a	1	-999	n/a	RING	WAGON	RING	-1	[0, 0, 0]	-999	PAL1	3	R1333N
210.993	4.028	212620	STUDY_PAIR	n/a	2	-999	n/a	CAMEL	CAMEL	CHEST	-1	[0, 0, 0]	-999	PAL1	3	R1333N
215.021	0.546	216648	STUDY_PAIR_OFF	n/a	2	-999	n/a	CAMEL	CAMEL	CHEST	-1	[0, 0, 0]	-999	PAL1	3	R1333N
215.567	4.039	217194	STUDY_PAIR	n/a	3	-999	n/a	n/a	BEAM	FLOOD	-1	[0, 0, 0]	-999	PAL1	3	R1333N
219.606	0.609	221233	STUDY_PAIR_OFF	n/a	3	-999	n/a	n/a	BEAM	FLOOD	-1	[0, 0, 0]	-999	PAL1	3	R1333N
220.215	4.024	221841	STUDY_PAIR	n/a	4	-999	n/a	n/a	TONGUE	IMAGE	-1	[0, 0, 0]	-999	PAL1	3	R1333N
224.239	0.63	225865	STUDY_PAIR_OFF	n/a	4	-999	n/a	n/a	TONGUE	IMAGE	-1	[0, 0, 0]	-999	PAL1	3	R1333N
224.869	4.037	226495	STUDY_PAIR	n/a	5	-999	n/a	MAYBE	BABY	WATCH	-1	[0, 0, 0]	-999	PAL1	3	R1333N
228.906	0.565	230532	STUDY_PAIR_OFF	n/a	5	-999	n/a	MAYBE	BABY	WATCH	-1	[0, 0, 0]	-999	PAL1	3	R1333N
229.471	4.037	231097	STUDY_PAIR	n/a	6	-999	n/a	RHINO	COTTON	RHINO	-1	[0, 0, 0]	-999	PAL1	3	R1333N
233.508	0.001	235134	STUDY_PAIR_OFF	n/a	6	-999	n/a	RHINO	COTTON	RHINO	-1	[0, 0, 0]	-999	PAL1	3	R1333N
233.509	0.0	235135	ENCODING_END	n/a	-999	-999	n/a	n/a	n/a	n/a	-1	[0, 0, 0]	-999	PAL1	3	R1333N
233.509	0.0	235135	MATH_START	n/a	-999	-999	n/a	n/a	n/a	n/a	-1	[0, 0, 0]	-999	PAL1	3	R1333N
233.509	0.016	235135	START	n/a	-999	-999	n/a	n/a	n/a	n/a	-1	[-999, -999, -999]	-999	PAL1	3	R1333N
233.525	4.466	235151	PROB	4434	-999	-999	n/a	n/a	n/a	n/a	-1	[3, 6, 5]	14	PAL1	3	R1333N
237.991	3.984	239617	PROB	3960	-999	-999	n/a	n/a	n/a	n/a	-1	[1, 5, 2]	8	PAL1	3	R1333N
241.975	3.468	243601	PROB	3441	-999	-999	n/a	n/a	n/a	n/a	-1	[6, 9, 1]	16	PAL1	3	R1333N
245.443	2.917	247069	PROB	2884	-999	-999	n/a	n/a	n/a	n/a	-1	[9, 9, 9]	27	PAL1	3	R1333N
248.36	3.717	249985	PROB	3678	-999	-999	n/a	n/a	n/a	n/a	-1	[2, 1, 8]	11	PAL1	3	R1333N
252.077	3.235	253702	PROB	3235	-999	-999	n/a	n/a	n/a	n/a	-1	[9, 6, 4]	19	PAL1	3	R1333N
255.312	0.015	256937	STOP	n/a	-999	-999	n/a	n/a	n/a	n/a	-1	[-999, -999, -999]	-999	PAL1	3	R1333N
255.327	0.508	256952	MATH_END	n/a	-999	-999	n/a	n/a	n/a	n/a	-1	[0, 0, 0]	-999	PAL1	3	R1333N
255.835	0.006	257460	RETRIEVAL_START	n/a	-999	-999	n/a	n/a	n/a	n/a	-1	[0, 0, 0]	-999	PAL1	3	R1333N
255.841	0.27	257466	ORIENT_START	n/a	-999	-999	n/a	n/a	n/a	n/a	-1	[0, 0, 0]	-999	PAL1	3	R1333N
256.111	0.646	257736	ORIENT_END	n/a	-999	-999	n/a	n/a	n/a	n/a	-1	[0, 0, 0]	-999	PAL1	3	R1333N
256.757	0.0	258382	REC_START	n/a	1	1	WAGON	RING	WAGON	RING	-1	[0, 0, 0]	-999	PAL1	3	R1333N
256.757	2.11	258382	PROBE_START	n/a	1	1	WAGON	RING	WAGON	RING	-1	[0, 0, 0]	-999	PAL1	3	R1333N
258.867	1.929	260492	REC_EVENT	2110	1	1	WAGON	RING	WAGON	RING	-1	[0, 0, 0]	-999	PAL1	3	R1333N
260.796	1.0	262421	PROBE_END	n/a	1	1	WAGON	n/a	WAGON	RING	-1	[0, 0, 0]	-999	PAL1	3	R1333N
261.796	0.013	263421	REC_END	n/a	1	1	WAGON	n/a	WAGON	RING	-1	[0, 0, 0]	-999	PAL1	3	R1333N
261.809	0.269	263434	ORIENT_START	n/a	-999	-999	n/a	n/a	n/a	n/a	-1	[0, 0, 0]	-999	PAL1	3	R1333N
262.078	0.583	263703	ORIENT_END	n/a	-999	-999	n/a	n/a	n/a	n/a	-1	[0, 0, 0]	-999	PAL1	3	R1333N
262.661	0.001	264286	REC_START	n/a	6	2	COTTON	RHINO	COTTON	RHINO	-1	[0, 0, 0]	-999	PAL1	3	R1333N
262.662	2.094	264287	PROBE_START	n/a	6	2	COTTON	RHINO	COTTON	RHINO	-1	[0, 0, 0]	-999	PAL1	3	R1333N
264.756	1.924	266381	REC_EVENT	2094	6	2	COTTON	RHINO	COTTON	RHINO	-1	[0, 0, 0]	-999	PAL1	3	R1333N
266.68	1.0	268305	PROBE_END	n/a	6	2	COTTON	n/a	COTTON	RHINO	-1	[0, 0, 0]	-999	PAL1	3	R1333N
267.68	0.01	269305	REC_END	n/a	6	2	COTTON	n/a	COTTON	RHINO	-1	[0, 0, 0]	-999	PAL1	3	R1333N
267.69	0.273	269315	ORIENT_START	n/a	-999	-999	n/a	n/a	n/a	n/a	-1	[0, 0, 0]	-999	PAL1	3	R1333N
267.963	0.631	269588	ORIENT_END	n/a	-999	-999	n/a	n/a	n/a	n/a	-1	[0, 0, 0]	-999	PAL1	3	R1333N
268.594	0.001	270219	REC_START	n/a	3	3	FLOOD	n/a	BEAM	FLOOD	-1	[0, 0, 0]	-999	PAL1	3	R1333N
268.595	2.725	270220	PROBE_START	n/a	3	3	FLOOD	n/a	BEAM	FLOOD	-1	[0, 0, 0]	-999	PAL1	3	R1333N
271.32	1.311	272945	REC_EVENT	2725	3	3	FLOOD	<>	BEAM	FLOOD	-1	[0, 0, 0]	-999	PAL1	3	R1333N
272.631	1.0	274256	PROBE_END	n/a	3	3	FLOOD	n/a	BEAM	FLOOD	-1	[0, 0, 0]	-999	PAL1	3	R1333N
273.631	0.013	275255	REC_END	n/a	3	3	FLOOD	n/a	BEAM	FLOOD	-1	[0, 0, 0]	-999	PAL1	3	R1333N
273.644	0.27	275268	ORIENT_START	n/a	-999	-999	n/a	n/a	n/a	n/a	-1	[0, 0, 0]	-999	PAL1	3	R1333N
273.914	0.721	275538	ORIENT_END	n/a	-999	-999	n/a	n/a	n/a	n/a	-1	[0, 0, 0]	-999	PAL1	3	R1333N
274.635	0.0	276259	REC_START	n/a	4	4	TONGUE	n/a	TONGUE	IMAGE	-1	[0, 0, 0]	-999	PAL1	3	R1333N
274.635	2.322	276259	PROBE_START	n/a	4	4	TONGUE	n/a	TONGUE	IMAGE	-1	[0, 0, 0]	-999	PAL1	3	R1333N
276.957	1.709	278581	REC_EVENT	2322	4	4	TONGUE	<>	TONGUE	IMAGE	-1	[0, 0, 0]	-999	PAL1	3	R1333N
278.666	0.999	280290	PROBE_END	n/a	4	4	TONGUE	n/a	TONGUE	IMAGE	-1	[0, 0, 0]	-999	PAL1	3	R1333N
279.665	0.013	281289	REC_END	n/a	4	4	TONGUE	n/a	TONGUE	IMAGE	-1	[0, 0, 0]	-999	PAL1	3	R1333N
279.678	0.27	281302	ORIENT_START	n/a	-999	-999	n/a	n/a	n/a	n/a	-1	[0, 0, 0]	-999	PAL1	3	R1333N
279.948	0.645	281572	ORIENT_END	n/a	-999	-999	n/a	n/a	n/a	n/a	-1	[0, 0, 0]	-999	PAL1	3	R1333N
280.593	0.0	282217	REC_START	n/a	5	5	WATCH	MAYBE	BABY	WATCH	-1	[0, 0, 0]	-999	PAL1	3	R1333N
280.593	1.97	282217	PROBE_START	n/a	5	5	WATCH	MAYBE	BABY	WATCH	-1	[0, 0, 0]	-999	PAL1	3	R1333N
282.563	2.054	284187	REC_EVENT	1970	5	5	WATCH	MAYBE	BABY	WATCH	-1	[0, 0, 0]	-999	PAL1	3	R1333N
284.617	1.001	286241	PROBE_END	n/a	5	5	WATCH	n/a	BABY	WATCH	-1	[0, 0, 0]	-999	PAL1	3	R1333N
285.618	0.011	287242	REC_END	n/a	5	5	WATCH	n/a	BABY	WATCH	-1	[0, 0, 0]	-999	PAL1	3	R1333N
285.629	0.27	287253	ORIENT_START	n/a	-999	-999	n/a	n/a	n/a	n/a	-1	[0, 0, 0]	-999	PAL1	3	R1333N
285.899	0.662	287523	ORIENT_END	n/a	-999	-999	n/a	n/a	n/a	n/a	-1	[0, 0, 0]	-999	PAL1	3	R1333N
286.561	0.001	288185	REC_START	n/a	2	6	CHEST	CAMEL	CAMEL	CHEST	-1	[0, 0, 0]	-999	PAL1	3	R1333N
286.562	2.139	288186	PROBE_START	n/a	2	6	CHEST	CAMEL	CAMEL	CHEST	-1	[0, 0, 0]	-999	PAL1	3	R1333N
288.701	1.9	290325	REC_EVENT	2139	2	6	CHEST	CAMEL	CAMEL	CHEST	-1	[0, 0, 0]	-999	PAL1	3	R1333N
290.601	1.001	292225	PROBE_END	n/a	2	6	CHEST	n/a	CAMEL	CHEST	-1	[0, 0, 0]	-999	PAL1	3	R1333N
291.602	0.011	293226	REC_END	n/a	2	6	CHEST	n/a	CAMEL	CHEST	-1	[0, 0, 0]	-999	PAL1	3	R1333N
291.613	0.001	293237	RETRIEVAL_END	n/a	-999	-999	n/a	n/a	n/a	n/a	-1	[0, 0, 0]	-999	PAL1	3	R1333N
291.614	7.956	293238	PRACTICE_POST_INSTRUCT_START	n/a	-999	-999	n/a	n/a	n/a	n/a	-1	[0, 0, 0]	-999	PAL1	3	R1333N
299.57	0.0	301193	PRACTICE_POST_INSTRUCT_END	n/a	-999	-999	n/a	n/a	n/a	n/a	-1	[0, 0, 0]	-999	PAL1	3	R1333N
299.57	0.021	301193	TRIAL_END	n/a	-999	-999	n/a	n/a	n/a	n/a	-1	[0, 0, 0]	-999	PAL1	3	R1333N
299.591	0.001	301214	TRIAL_START	n/a	-999	-999	n/a	n/a	n/a	n/a	-1	[0, 0, 0]	-999	PAL1	3	R1333N
299.592	0.0	301215	TRIAL	n/a	-999	-999	n/a	n/a	n/a	n/a	1	[0, 0, 0]	-999	PAL1	3	R1333N
299.592	2.46	301215	WAITING_START	n/a	-999	-999	n/a	n/a	n/a	n/a	1	[0, 0, 0]	-999	PAL1	3	R1333N
302.052	0.0	303675	WAITING_END	n/a	-999	-999	n/a	n/a	n/a	n/a	1	[0, 0, 0]	-999	PAL1	3	R1333N
302.052	10.431	303675	COUNTDOWN_START	n/a	-999	-999	n/a	n/a	n/a	n/a	1	[0, 0, 0]	-999	PAL1	3	R1333N
312.483	0.0	314106	COUNTDOWN_END	n/a	-999	-999	n/a	n/a	n/a	n/a	1	[0, 0, 0]	-999	PAL1	3	R1333N
312.483	0.738	314106	ORIENT_START	n/a	-999	-999	n/a	n/a	n/a	n/a	1	[0, 0, 0]	-999	PAL1	3	R1333N
313.221	0.0	314844	ENCODING_START	n/a	-999	-999	n/a	n/a	n/a	n/a	1	[0, 0, 0]	-999	PAL1	3	R1333N
313.221	1.044	314844	ORIENT_END	n/a	-999	-999	n/a	n/a	n/a	n/a	1	[0, 0, 0]	-999	PAL1	3	R1333N
314.265	4.04	315888	STUDY_PAIR	n/a	1	-999	n/a	BRIDGE	ROOM	BRIDGE	1	[0, 0, 0]	-999	PAL1	3	R1333N
318.305	0.543	319928	STUDY_PAIR_OFF	n/a	1	-999	n/a	BRIDGE	ROOM	BRIDGE	1	[0, 0, 0]	-999	PAL1	3	R1333N
318.848	4.008	320471	STUDY_PAIR	n/a	2	-999	n/a	n/a	WORLD	TOAD	1	[0, 0, 0]	-999	PAL1	3	R1333N
322.856	0.515	324479	STUDY_PAIR_OFF	n/a	2	-999	n/a	n/a	WORLD	TOAD	1	[0, 0, 0]	-999	PAL1	3	R1333N
323.371	4.036	324994	STUDY_PAIR	n/a	3	-999	n/a	WEB	WEB	NET	1	[0, 0, 0]	-999	PAL1	3	R1333N
327.407	0.729	329029	STUDY_PAIR_OFF	n/a	3	-999	n/a	WEB	WEB	NET	1	[0, 0, 0]	-999	PAL1	3	R1333N
328.136	4.038	329758	STUDY_PAIR	n/a	4	-999	n/a	MAIL	INK	MAIL	1	[0, 0, 0]	-999	PAL1	3	R1333N
332.174	0.622	333796	STUDY_PAIR_OFF	n/a	4	-999	n/a	MAIL	INK	MAIL	1	[0, 0, 0]	-999	PAL1	3	R1333N
332.796	4.029	334418	STUDY_PAIR	n/a	5	-999	n/a	SOAP	SOAP	RAT	1	[0, 0, 0]	-999	PAL1	3	R1333N
336.825	0.711	338447	STUDY_PAIR_OFF	n/a	5	-999	n/a	SOAP	SOAP	RAT	1	[0, 0, 0]	-999	PAL1	3	R1333N
337.536	4.023	339158	STUDY_PAIR	n/a	6	-999	n/a	n/a	YARD	ROOT	1	[0, 0, 0]	-999	PAL1	3	R1333N
341.559	0.001	343181	STUDY_PAIR_OFF	n/a	6	-999	n/a	n/a	YARD	ROOT	1	[0, 0, 0]	-999	PAL1	3	R1333N
341.56	0.0	343182	ENCODING_END	n/a	-999	-999	n/a	n/a	n/a	n/a	1	[0, 0, 0]	-999	PAL1	3	R1333N
341.56	0.0	343182	MATH_START	n/a	-999	-999	n/a	n/a	n/a	n/a	1	[0, 0, 0]	-999	PAL1	3	R1333N
341.56	0.016	343182	START	n/a	-999	-999	n/a	n/a	n/a	n/a	1	[-999, -999, -999]	-999	PAL1	3	R1333N
341.576	4.333	343198	PROB	4304	-999	-999	n/a	n/a	n/a	n/a	1	[5, 7, 5]	17	PAL1	3	R1333N
345.909	3.35	347531	PROB	3321	-999	-999	n/a	n/a	n/a	n/a	1	[1, 1, 9]	11	PAL1	3	R1333N
349.259	2.668	350881	PROB	2636	-999	-999	n/a	n/a	n/a	n/a	1	[8, 7, 4]	19	PAL1	3	R1333N
351.927	3.417	353549	PROB	3384	-999	-999	n/a	n/a	n/a	n/a	1	[4, 5, 4]	13	PAL1	3	R1333N
355.344	3.168	356965	PROB	3144	-999	-999	n/a	n/a	n/a	n/a	1	[4, 3, 2]	9	PAL1	3	R1333N
358.512	3.072	360133	PROB	3072	-999	-999	n/a	n/a	n/a	n/a	1	[7, 7, 1]	15	PAL1	3	R1333N
361.584	0.012	363205	STOP	n/a	-999	-999	n/a	n/a	n/a	n/a	1	[-999, -999, -999]	-999	PAL1	3	R1333N
361.596	0.669	363217	MATH_END	n/a	-999	-999	n/a	n/a	n/a	n/a	1	[0, 0, 0]	-999	PAL1	3	R1333N
362.265	0.002	363886	RETRIEVAL_START	n/a	-999	-999	n/a	n/a	n/a	n/a	1	[0, 0, 0]	-999	PAL1	3	R1333N
362.267	0.263	363888	ORIENT_START	n/a	-999	-999	n/a	n/a	n/a	n/a	1	[0, 0, 0]	-999	PAL1	3	R1333N
362.53	0.592	364151	ORIENT_END	n/a	-999	-999	n/a	n/a	n/a	n/a	1	[0, 0, 0]	-999	PAL1	3	R1333N
363.122	0.0	364743	PROBE_START	n/a	5	1	RAT	SOAP	SOAP	RAT	1	[0, 0, 0]	-999	PAL1	3	R1333N
363.122	3.069	364743	REC_START	n/a	5	1	RAT	SOAP	SOAP	RAT	1	[0, 0, 0]	-999	PAL1	3	R1333N
366.191	0.955	367812	REC_EVENT	3069	5	1	RAT	SOAP	SOAP	RAT	1	[0, 0, 0]	-999	PAL1	3	R1333N
367.146	1.001	368767	PROBE_END	n/a	5	1	RAT	n/a	SOAP	RAT	1	[0, 0, 0]	-999	PAL1	3	R1333N
368.147	0.012	369768	REC_END	n/a	5	1	RAT	n/a	SOAP	RAT	1	[0, 0, 0]	-999	PAL1	3	R1333N
368.159	0.272	369780	ORIENT_START	n/a	-999	-999	n/a	n/a	n/a	n/a	1	[0, 0, 0]	-999	PAL1	3	R1333N
368.431	0.597	370052	ORIENT_END	n/a	-999	-999	n/a	n/a	n/a	n/a	1	[0, 0, 0]	-999	PAL1	3	R1333N
369.028	0.0	370649	REC_START	n/a	6	2	ROOT	n/a	YARD	ROOT	1	[0, 0, 0]	-999	PAL1	3	R1333N
369.028	3.907	370649	PROBE_START	n/a	6	2	ROOT	n/a	YARD	ROOT	1	[0, 0, 0]	-999	PAL1	3	R1333N
372.935	0.129	374556	REC_EVENT	3907	6	2	ROOT	<>	YARD	ROOT	1	[0, 0, 0]	-999	PAL1	3	R1333N
373.064	0.999	374685	PROBE_END	n/a	6	2	ROOT	n/a	YARD	ROOT	1	[0, 0, 0]	-999	PAL1	3	R1333N
374.063	0.012	375684	REC_END	n/a	6	2	ROOT	n/a	YARD	ROOT	1	[0, 0, 0]	-999	PAL1	3	R1333N
374.075	0.273	375696	ORIENT_START	n/a	-999	-999	n/a	n/a	n/a	n/a	1	[0, 0, 0]	-999	PAL1	3	R1333N
374.348	0.603	375969	ORIENT_END	n/a	-999	-999	n/a	n/a	n/a	n/a	1	[0, 0, 0]	-999	PAL1	3	R1333N
374.951	0.001	376572	REC_START	n/a	1	3	ROOM	BRIDGE	ROOM	BRIDGE	1	[0, 0, 0]	-999	PAL1	3	R1333N
374.952	1.977	376573	PROBE_START	n/a	1	3	ROOM	BRIDGE	ROOM	BRIDGE	1	[0, 0, 0]	-999	PAL1	3	R1333N
376.929	2.052	378550	REC_EVENT	1977	1	3	ROOM	BRIDGE	ROOM	BRIDGE	1	[0, 0, 0]	-999	PAL1	3	R1333N
378.981	1.001	380602	PROBE_END	n/a	1	3	ROOM	n/a	ROOM	BRIDGE	1	[0, 0, 0]	-999	PAL1	3	R1333N
379.982	0.012	381602	REC_END	n/a	1	3	ROOM	n/a	ROOM	BRIDGE	1	[0, 0, 0]	-999	PAL1	3	R1333N
379.994	0.271	381614	ORIENT_START	n/a	-999	-999	n/a	n/a	n/a	n/a	1	[0, 0, 0]	-999	PAL1	3	R1333N
380.265	0.698	381885	ORIENT_END	n/a	-999	-999	n/a	n/a	n/a	n/a	1	[0, 0, 0]	-999	PAL1	3	R1333N
380.963	0.0	382583	PROBE_START	n/a	4	4	INK	MAIL	INK	MAIL	1	[0, 0, 0]	-999	PAL1	3	R1333N
380.963	3.372	382583	REC_START	n/a	4	4	INK	MAIL	INK	MAIL	1	[0, 0, 0]	-999	PAL1	3	R1333N
384.335	0.664	385955	REC_EVENT	3372	4	4	INK	MAIL	INK	MAIL	1	[0, 0, 0]	-999	PAL1	3	R1333N
384.999	1.0	386619	PROBE_END	n/a	4	4	INK	n/a	INK	MAIL	1	[0, 0, 0]	-999	PAL1	3	R1333N
385.999	0.011	387619	REC_END	n/a	4	4	INK	n/a	INK	MAIL	1	[0, 0, 0]	-999	PAL1	3	R1333N
386.01	0.273	387630	ORIENT_START	n/a	-999	-999	n/a	n/a	n/a	n/a	1	[0, 0, 0]	-999	PAL1	3	R1333N
386.283	0.649	387903	ORIENT_END	n/a	-999	-999	n/a	n/a	n/a	n/a	1	[0, 0, 0]	-999	PAL1	3	R1333N
386.932	0.0	388552	REC_START	n/a	3	5	NET	WEB	WEB	NET	1	[0, 0, 0]	-999	PAL1	3	R1333N
386.932	1.732	388552	PROBE_START	n/a	3	5	NET	WEB	WEB	NET	1	[0, 0, 0]	-999	PAL1	3	R1333N
388.664	2.303	390284	REC_EVENT	1732	3	5	NET	WEB	WEB	NET	1	[0, 0, 0]	-999	PAL1	3	R1333N
390.967	0.999	392587	PROBE_END	n/a	3	5	NET	n/a	WEB	NET	1	[0, 0, 0]	-999	PAL1	3	R1333N
391.966	0.013	393586	REC_END	n/a	3	5	NET	n/a	WEB	NET	1	[0, 0, 0]	-999	PAL1	3	R1333N
391.979	0.271	393599	ORIENT_START	n/a	-999	-999	n/a	n/a	n/a	n/a	1	[0, 0, 0]	-999	PAL1	3	R1333N
392.25	0.632	393870	ORIENT_END	n/a	-999	-999	n/a	n/a	n/a	n/a	1	[0, 0, 0]	-999	PAL1	3	R1333N
392.882	0.0	394502	REC_START	n/a	2	6	WORLD	n/a	WORLD	TOAD	1	[0, 0, 0]	-999	PAL1	3	R1333N
392.882	2.772	394502	PROBE_START	n/a	2	6	WORLD	n/a	WORLD	TOAD	1	[0, 0, 0]	-999	PAL1	3	R1333N
395.654	1.264	397274	REC_EVENT	2772	2	6	WORLD	<>	WORLD	TOAD	1	[0, 0, 0]	-999	PAL1	3	R1333N
396.918	0.999	398538	PROBE_END	n/a	2	6	WORLD	n/a	WORLD	TOAD	1	[0, 0, 0]	-999	PAL1	3	R1333N
397.917	0.01	399537	REC_END	n/a	2	6	WORLD	n/a	WORLD	TOAD	1	[0, 0, 0]	-999	PAL1	3	R1333N
397.927	0.0	399547	RETRIEVAL_END	n/a	-999	-999	n/a	n/a	n/a	n/a	1	[0, 0, 0]	-999	PAL1	3	R1333N
397.927	0.02	399547	TRIAL_END	n/a	-999	-999	n/a	n/a	n/a	n/a	1	[0, 0, 0]	-999	PAL1	3	R1333N
397.947	0.0	399567	WAITING_START	n/a	-999	-999	n/a	n/a	n/a	n/a	2	[0, 0, 0]	-999	PAL1	3	R1333N
397.947	0.0	399567	TRIAL_START	n/a	-999	-999	n/a	n/a	n/a	n/a	1	[0, 0, 0]	-999	PAL1	3	R1333N
397.947	1.472	399567	TRIAL	n/a	-999	-999	n/a	n/a	n/a	n/a	2	[0, 0, 0]	-999	PAL1	3	R1333N
399.419	0.001	401039	WAITING_END	n/a	-999	-999	n/a	n/a	n/a	n/a	2	[0, 0, 0]	-999	PAL1	3	R1333N
399.42	10.428	401040	COUNTDOWN_START	n/a	-999	-999	n/a	n/a	n/a	n/a	2	[0, 0, 0]	-999	PAL1	3	R1333N
409.848	0.001	411467	COUNTDOWN_END	n/a	-999	-999	n/a	n/a	n/a	n/a	2	[0, 0, 0]	-999	PAL1	3	R1333N
409.849	0.655	411468	ORIENT_START	n/a	-999	-999	n/a	n/a	n/a	n/a	2	[0, 0, 0]	-999	PAL1	3	R1333N
410.504	0.001	412123	ORIENT_END	n/a	-999	-999	n/a	n/a	n/a	n/a	2	[0, 0, 0]	-999	PAL1	3	R1333N
410.505	1.197	412124	ENCODING_START	n/a	-999	-999	n/a	n/a	n/a	n/a	2	[0, 0, 0]	-999	PAL1	3	R1333N
411.702	4.036	413321	STUDY_PAIR	n/a	1	-999	n/a	SCHOOL	PEARL	SCHOOL	2	[0, 0, 0]	-999	PAL1	3	R1333N
415.738	0.535	417357	STUDY_PAIR_OFF	n/a	1	-999	n/a	SCHOOL	PEARL	SCHOOL	2	[0, 0, 0]	-999	PAL1	3	R1333N
416.273	4.032	417892	STUDY_PAIR	n/a	2	-999	n/a	HOOK	HOOK	BOAT	2	[0, 0, 0]	-999	PAL1	3	R1333N
420.305	0.619	421924	STUDY_PAIR_OFF	n/a	2	-999	n/a	HOOK	HOOK	BOAT	2	[0, 0, 0]	-999	PAL1	3	R1333N
420.924	4.032	422543	STUDY_PAIR	n/a	3	-999	n/a	n/a	DITCH	SEAL	2	[0, 0, 0]	-999	PAL1	3	R1333N
424.956	0.729	426575	STUDY_PAIR_OFF	n/a	3	-999	n/a	n/a	DITCH	SEAL	2	[0, 0, 0]	-999	PAL1	3	R1333N
425.685	4.039	427304	STUDY_PAIR	n/a	4	-999	n/a	NOSE	NOSE	PASTE	2	[0, 0, 0]	-999	PAL1	3	R1333N
429.724	0.654	431343	STUDY_PAIR_OFF	n/a	4	-999	n/a	NOSE	NOSE	PASTE	2	[0, 0, 0]	-999	PAL1	3	R1333N
430.378	4.03	431997	STUDY_PAIR	n/a	5	-999	n/a	POLE	HILL	POLE	2	[0, 0, 0]	-999	PAL1	3	R1333N
434.408	0.721	436026	STUDY_PAIR_OFF	n/a	5	-999	n/a	POLE	HILL	POLE	2	[0, 0, 0]	-999	PAL1	3	R1333N
435.129	4.029	436747	STUDY_PAIR	n/a	6	-999	n/a	n/a	GATE	SPOON	2	[0, 0, 0]	-999	PAL1	3	R1333N
439.158	0.0	440776	STUDY_PAIR_OFF	n/a	6	-999	n/a	n/a	GATE	SPOON	2	[0, 0, 0]	-999	PAL1	3	R1333N
439.158	0.001	440776	ENCODING_END	n/a	-999	-999	n/a	n/a	n/a	n/a	2	[0, 0, 0]	-999	PAL1	3	R1333N
439.159	0.0	440777	MATH_START	n/a	-999	-999	n/a	n/a	n/a	n/a	2	[0, 0, 0]	-999	PAL1	3	R1333N
439.159	0.015	440777	START	n/a	-999	-999	n/a	n/a	n/a	n/a	2	[-999, -999, -999]	-999	PAL1	3	R1333N
439.174	4.185	440792	PROB	4145	-999	-999	n/a	n/a	n/a	n/a	2	[8, 5, 9]	22	PAL1	3	R1333N
443.359	2.967	444977	PROB	2928	-999	-999	n/a	n/a	n/a	n/a	2	[4, 9, 1]	14	PAL1	3	R1333N
446.326	3.967	447944	PROB	3929	-999	-999	n/a	n/a	n/a	n/a	2	[7, 8, 9]	24	PAL1	3	R1333N
450.293	2.9	451911	PROB	2874	-999	-999	n/a	n/a	n/a	n/a	2	[4, 2, 2]	8	PAL1	3	R1333N
453.193	3.984	454811	PROB	3958	-999	-999	n/a	n/a	n/a	n/a	2	[1, 8, 3]	12	PAL1	3	R1333N
457.177	3.462	458795	PROB	3462	-999	-999	n/a	n/a	n/a	n/a	2	[1, 6, 7]	14	PAL1	3	R1333N
460.639	0.007	462256	STOP	n/a	-999	-999	n/a	n/a	n/a	n/a	2	[-999, -999, -999]	-999	PAL1	3	R1333N
460.646	0.623	462263	MATH_END	n/a	-999	-999	n/a	n/a	n/a	n/a	2	[0, 0, 0]	-999	PAL1	3	R1333N
461.269	0.001	462886	RETRIEVAL_START	n/a	-999	-999	n/a	n/a	n/a	n/a	2	[0, 0, 0]	-999	PAL1	3	R1333N
461.27	0.276	462887	ORIENT_START	n/a	-999	-999	n/a	n/a	n/a	n/a	2	[0, 0, 0]	-999	PAL1	3	R1333N
461.546	0.672	463163	ORIENT_END	n/a	-999	-999	n/a	n/a	n/a	n/a	2	[0, 0, 0]	-999	PAL1	3	R1333N
462.218	0.0	463835	REC_START	n/a	3	1	DITCH	n/a	DITCH	SEAL	2	[0, 0, 0]	-999	PAL1	3	R1333N
462.218	2.187	463835	PROBE_START	n/a	3	1	DITCH	n/a	DITCH	SEAL	2	[0, 0, 0]	-999	PAL1	3	R1333N
464.405	1.841	466022	REC_EVENT	2187	3	1	DITCH	<>	DITCH	SEAL	2	[0, 0, 0]	-999	PAL1	3	R1333N
466.246	1.0	467863	PROBE_END	n/a	3	1	DITCH	n/a	DITCH	SEAL	2	[0, 0, 0]	-999	PAL1	3	R1333N
467.246	0.013	468863	REC_END	n/a	3	1	DITCH	n/a	DITCH	SEAL	2	[0, 0, 0]	-999	PAL1	3	R1333N
467.259	0.271	468876	ORIENT_START	n/a	-999	-999	n/a	n/a	n/a	n/a	2	[0, 0, 0]	-999	PAL1	3	R1333N
467.53	0.549	469147	ORIENT_END	n/a	-999	-999	n/a	n/a	n/a	n/a	2	[0, 0, 0]	-999	PAL1	3	R1333N
468.079	0.0	469696	REC_START	n/a	4	2	PASTE	NOSE	NOSE	PASTE	2	[0, 0, 0]	-999	PAL1	3	R1333N
468.079	1.855	469696	PROBE_START	n/a	4	2	PASTE	NOSE	NOSE	PASTE	2	[0, 0, 0]	-999	PAL1	3	R1333N
469.934	2.179	471551	REC_EVENT	1855	4	2	PASTE	NOSE	NOSE	PASTE	2	[0, 0, 0]	-999	PAL1	3	R1333N
472.113	1.0	473730	PROBE_END	n/a	4	2	PASTE	n/a	NOSE	PASTE	2	[0, 0, 0]	-999	PAL1	3	R1333N
473.113	0.012	474730	REC_END	n/a	4	2	PASTE	n/a	NOSE	PASTE	2	[0, 0, 0]	-999	PAL1	3	R1333N
473.125	0.273	474742	ORIENT_START	n/a	-999	-999	n/a	n/a	n/a	n/a	2	[0, 0, 0]	-999	PAL1	3	R1333N
473.398	0.508	475015	ORIENT_END	n/a	-999	-999	n/a	n/a	n/a	n/a	2	[0, 0, 0]	-999	PAL1	3	R1333N
473.906	0.0	475523	PROBE_START	n/a	5	3	HILL	POLE	HILL	POLE	2	[0, 0, 0]	-999	PAL1	3	R1333N
473.906	1.989	475523	REC_START	n/a	5	3	HILL	POLE	HILL	POLE	2	[0, 0, 0]	-999	PAL1	3	R1333N
475.895	2.036	477512	REC_EVENT	1989	5	3	HILL	POLE	HILL	POLE	2	[0, 0, 0]	-999	PAL1	3	R1333N
477.931	1.001	479548	PROBE_END	n/a	5	3	HILL	n/a	HILL	POLE	2	[0, 0, 0]	-999	PAL1	3	R1333N
478.932	0.012	480549	REC_END	n/a	5	3	HILL	n/a	HILL	POLE	2	[0, 0, 0]	-999	PAL1	3	R1333N
478.944	0.271	480561	ORIENT_START	n/a	-999	-999	n/a	n/a	n/a	n/a	2	[0, 0, 0]	-999	PAL1	3	R1333N
479.215	0.721	480832	ORIENT_END	n/a	-999	-999	n/a	n/a	n/a	n/a	2	[0, 0, 0]	-999	PAL1	3	R1333N
479.936	0.0	481553	REC_START	n/a	6	4	SPOON	n/a	GATE	SPOON	2	[0, 0, 0]	-999	PAL1	3	R1333N
479.936	2.607	481553	PROBE_START	n/a	6	4	SPOON	n/a	GATE	SPOON	2	[0, 0, 0]	-999	PAL1	3	R1333N
482.543	1.422	484160	REC_EVENT	2607	6	4	SPOON	<>	GATE	SPOON	2	[0, 0, 0]	-999	PAL1	3	R1333N
483.965	1.021	485582	PROBE_END	n/a	6	4	SPOON	n/a	GATE	SPOON	2	[0, 0, 0]	-999	PAL1	3	R1333N
484.986	0.005	486603	REC_END	n/a	6	4	SPOON	n/a	GATE	SPOON	2	[0, 0, 0]	-999	PAL1	3	R1333N
484.991	0.275	486608	ORIENT_START	n/a	-999	-999	n/a	n/a	n/a	n/a	2	[0, 0, 0]	-999	PAL1	3	R1333N
485.266	0.705	486883	ORIENT_END	n/a	-999	-999	n/a	n/a	n/a	n/a	2	[0, 0, 0]	-999	PAL1	3	R1333N
485.971	0.0	487587	REC_START	n/a	1	5	PEARL	SCHOOL	PEARL	SCHOOL	2	[0, 0, 0]	-999	PAL1	3	R1333N
485.971	2.206	487587	PROBE_START	n/a	1	5	PEARL	SCHOOL	PEARL	SCHOOL	2	[0, 0, 0]	-999	PAL1	3	R1333N
488.177	1.823	489793	REC_EVENT	2206	1	5	PEARL	SCHOOL	PEARL	SCHOOL	2	[0, 0, 0]	-999	PAL1	3	R1333N
490.0	0.999	491616	PROBE_END	n/a	1	5	PEARL	n/a	PEARL	SCHOOL	2	[0, 0, 0]	-999	PAL1	3	R1333N
490.999	0.012	492615	REC_END	n/a	1	5	PEARL	n/a	PEARL	SCHOOL	2	[0, 0, 0]	-999	PAL1	3	R1333N
491.011	0.272	492627	ORIENT_START	n/a	-999	-999	n/a	n/a	n/a	n/a	2	[0, 0, 0]	-999	PAL1	3	R1333N
491.283	0.749	492899	ORIENT_END	n/a	-999	-999	n/a	n/a	n/a	n/a	2	[0, 0, 0]	-999	PAL1	3	R1333N
492.032	0.0	493648	PROBE_START	n/a	2	6	BOAT	HOOK	HOOK	BOAT	2	[0, 0, 0]	-999	PAL1	3	R1333N
492.032	2.751	493648	REC_START	n/a	2	6	BOAT	HOOK	HOOK	BOAT	2	[0, 0, 0]	-999	PAL1	3	R1333N
494.783	1.284	496399	REC_EVENT	2751	2	6	BOAT	HOOK	HOOK	BOAT	2	[0, 0, 0]	-999	PAL1	3	R1333N
496.067	1.001	497683	PROBE_END	n/a	2	6	BOAT	n/a	HOOK	BOAT	2	[0, 0, 0]	-999	PAL1	3	R1333N
497.068	0.005	498684	REC_END	n/a	2	6	BOAT	n/a	HOOK	BOAT	2	[0, 0, 0]	-999	PAL1	3	R1333N
497.073	0.001	498689	RETRIEVAL_END	n/a	-999	-999	n/a	n/a	n/a	n/a	2	[0, 0, 0]	-999	PAL1	3	R1333N
497.074	0.019	498690	TRIAL_END	n/a	-999	-999	n/a	n/a	n/a	n/a	2	[0, 0, 0]	-999	PAL1	3	R1333N
497.093	0.0	498709	TRIAL_START	n/a	-999	-999	n/a	n/a	n/a	n/a	2	[0, 0, 0]	-999	PAL1	3	R1333N
497.093	0.0	498709	TRIAL	n/a	-999	-999	n/a	n/a	n/a	n/a	3	[0, 0, 0]	-999	PAL1	3	R1333N
497.093	1.343	498709	WAITING_START	n/a	-999	-999	n/a	n/a	n/a	n/a	3	[0, 0, 0]	-999	PAL1	3	R1333N
498.436	0.0	500052	COUNTDOWN_START	n/a	-999	-999	n/a	n/a	n/a	n/a	3	[0, 0, 0]	-999	PAL1	3	R1333N
498.436	10.429	500052	WAITING_END	n/a	-999	-999	n/a	n/a	n/a	n/a	3	[0, 0, 0]	-999	PAL1	3	R1333N
508.865	0.0	510481	COUNTDOWN_END	n/a	-999	-999	n/a	n/a	n/a	n/a	3	[0, 0, 0]	-999	PAL1	3	R1333N
508.865	0.722	510481	ORIENT_START	n/a	-999	-999	n/a	n/a	n/a	n/a	3	[0, 0, 0]	-999	PAL1	3	R1333N
509.587	0.001	511203	ORIENT_END	n/a	-999	-999	n/a	n/a	n/a	n/a	3	[0, 0, 0]	-999	PAL1	3	R1333N
509.588	1.058	511204	ENCODING_START	n/a	-999	-999	n/a	n/a	n/a	n/a	3	[0, 0, 0]	-999	PAL1	3	R1333N
510.646	4.025	512262	STUDY_PAIR	n/a	1	-999	n/a	SUIT	HAWK	DOLL	3	[0, 0, 0]	-999	PAL1	3	R1333N
514.671	0.704	516286	STUDY_PAIR_OFF	n/a	1	-999	n/a	SUIT	HAWK	DOLL	3	[0, 0, 0]	-999	PAL1	3	R1333N
515.375	4.03	516990	STUDY_PAIR	n/a	2	-999	n/a	n/a	PIT	SWORD	3	[0, 0, 0]	-999	PAL1	3	R1333N
519.405	0.743	521020	STUDY_PAIR_OFF	n/a	2	-999	n/a	n/a	PIT	SWORD	3	[0, 0, 0]	-999	PAL1	3	R1333N
520.148	4.024	521763	STUDY_PAIR	n/a	3	-999	n/a	n/a	CLAY	SUN	3	[0, 0, 0]	-999	PAL1	3	R1333N
524.172	0.61	525787	STUDY_PAIR_OFF	n/a	3	-999	n/a	n/a	CLAY	SUN	3	[0, 0, 0]	-999	PAL1	3	R1333N
524.782	4.025	526397	STUDY_PAIR	n/a	4	-999	n/a	PARK	PARK	MAZE	3	[0, 0, 0]	-999	PAL1	3	R1333N
528.807	0.565	530422	STUDY_PAIR_OFF	n/a	4	-999	n/a	PARK	PARK	MAZE	3	[0, 0, 0]	-999	PAL1	3	R1333N
529.372	4.036	530987	STUDY_PAIR	n/a	5	-999	n/a	n/a	WORM	PLANE	3	[0, 0, 0]	-999	PAL1	3	R1333N
533.408	0.635	535023	STUDY_PAIR_OFF	n/a	5	-999	n/a	n/a	WORM	PLANE	3	[0, 0, 0]	-999	PAL1	3	R1333N
534.043	4.031	535658	STUDY_PAIR	n/a	6	-999	n/a	TREE	TREE	CLOUD	3	[0, 0, 0]	-999	PAL1	3	R1333N
538.074	0.001	539689	STUDY_PAIR_OFF	n/a	6	-999	n/a	TREE	TREE	CLOUD	3	[0, 0, 0]	-999	PAL1	3	R1333N
538.075	0.0	539690	ENCODING_END	n/a	-999	-999	n/a	n/a	n/a	n/a	3	[0, 0, 0]	-999	PAL1	3	R1333N
538.075	0.0	539690	MATH_START	n/a	-999	-999	n/a	n/a	n/a	n/a	3	[0, 0, 0]	-999	PAL1	3	R1333N
538.075	0.016	539690	START	n/a	-999	-999	n/a	n/a	n/a	n/a	3	[-999, -999, -999]	-999	PAL1	3	R1333N
538.091	3.934	539706	PROB	3908	-999	-999	n/a	n/a	n/a	n/a	3	[9, 6, 1]	16	PAL1	3	R1333N
542.025	2.785	543639	PROB	2751	-999	-999	n/a	n/a	n/a	n/a	3	[6, 3, 5]	14	PAL1	3	R1333N
544.81	2.767	546424	PROB	2734	-999	-999	n/a	n/a	n/a	n/a	3	[7, 7, 4]	18	PAL1	3	R1333N
547.577	3.482	549191	PROB	3445	-999	-999	n/a	n/a	n/a	n/a	3	[4, 8, 2]	14	PAL1	3	R1333N
551.059	2.619	552673	PROB	2581	-999	-999	n/a	n/a	n/a	n/a	3	[1, 9, 4]	14	PAL1	3	R1333N
553.678	2.549	555292	PROB	2513	-999	-999	n/a	n/a	n/a	n/a	3	[1, 1, 6]	8	PAL1	3	R1333N
556.227	3.549	557841	PROB	3549	-999	-999	n/a	n/a	n/a	n/a	3	[7, 5, 9]	21	PAL1	3	R1333N
559.776	0.019	561390	STOP	n/a	-999	-999	n/a	n/a	n/a	n/a	3	[-999, -999, -999]	-999	PAL1	3	R1333N
559.795	0.503	561409	MATH_END	n/a	-999	-999	n/a	n/a	n/a	n/a	3	[0, 0, 0]	-999	PAL1	3	R1333N
560.298	0.002	561912	RETRIEVAL_START	n/a	-999	-999	n/a	n/a	n/a	n/a	3	[0, 0, 0]	-999	PAL1	3	R1333N
560.3	0.279	561914	ORIENT_START	n/a	-999	-999	n/a	n/a	n/a	n/a	3	[0, 0, 0]	-999	PAL1	3	R1333N
560.579	0.532	562193	ORIENT_END	n/a	-999	-999	n/a	n/a	n/a	n/a	3	[0, 0, 0]	-999	PAL1	3	R1333N
561.111	0.0	562725	REC_START	n/a	3	1	SUN	n/a	CLAY	SUN	3	[0, 0, 0]	-999	PAL1	3	R1333N
561.111	2.408	562725	PROBE_START	n/a	3	1	SUN	n/a	CLAY	SUN	3	[0, 0, 0]	-999	PAL1	3	R1333N
563.519	1.627	565133	REC_EVENT	2408	3	1	SUN	<>	CLAY	SUN	3	[0, 0, 0]	-999	PAL1	3	R1333N
565.146	0.999	566760	PROBE_END	n/a	3	1	SUN	n/a	CLAY	SUN	3	[0, 0, 0]	-999	PAL1	3	R1333N
566.145	0.012	567758	REC_END	n/a	3	1	SUN	n/a	CLAY	SUN	3	[0, 0, 0]	-999	PAL1	3	R1333N
566.157	0.273	567770	ORIENT_START	n/a	-999	-999	n/a	n/a	n/a	n/a	3	[0, 0, 0]	-999	PAL1	3	R1333N
566.43	0.593	568043	ORIENT_END	n/a	-999	-999	n/a	n/a	n/a	n/a	3	[0, 0, 0]	-999	PAL1	3	R1333N
567.023	0.0	568636	REC_START	n/a	2	2	PIT	n/a	PIT	SWORD	3	[0, 0, 0]	-999	PAL1	3	R1333N
567.023	2.721	568636	PROBE_START	n/a	2	2	PIT	n/a	PIT	SWORD	3	[0, 0, 0]	-999	PAL1	3	R1333N
569.744	1.302	571357	REC_EVENT	2721	2	2	PIT	<>	PIT	SWORD	3	[0, 0, 0]	-999	PAL1	3	R1333N
571.046	1.0	572659	PROBE_END	n/a	2	2	PIT	n/a	PIT	SWORD	3	[0, 0, 0]	-999	PAL1	3	R1333N
572.046	0.012	573659	REC_END	n/a	2	2	PIT	n/a	PIT	SWORD	3	[0, 0, 0]	-999	PAL1	3	R1333N
572.058	0.272	573671	ORIENT_START	n/a	-999	-999	n/a	n/a	n/a	n/a	3	[0, 0, 0]	-999	PAL1	3	R1333N
572.33	0.702	573943	ORIENT_END	n/a	-999	-999	n/a	n/a	n/a	n/a	3	[0, 0, 0]	-999	PAL1	3	R1333N
573.032	0.0	574645	REC_START	n/a	5	3	WORM	n/a	WORM	PLANE	3	[0, 0, 0]	-999	PAL1	3	R1333N
573.032	3.268	574645	PROBE_START	n/a	5	3	WORM	n/a	WORM	PLANE	3	[0, 0, 0]	-999	PAL1	3	R1333N
576.3	0.764	577913	REC_EVENT	3268	5	3	WORM	<>	WORM	PLANE	3	[0, 0, 0]	-999	PAL1	3	R1333N
577.064	1.0	578677	PROBE_END	n/a	5	3	WORM	n/a	WORM	PLANE	3	[0, 0, 0]	-999	PAL1	3	R1333N
578.064	0.011	579677	REC_END	n/a	5	3	WORM	n/a	WORM	PLANE	3	[0, 0, 0]	-999	PAL1	3	R1333N
578.075	0.274	579688	ORIENT_START	n/a	-999	-999	n/a	n/a	n/a	n/a	3	[0, 0, 0]	-999	PAL1	3	R1333N
578.349	0.658	579962	ORIENT_END	n/a	-999	-999	n/a	n/a	n/a	n/a	3	[0, 0, 0]	-999	PAL1	3	R1333N
579.007	0.0	580620	REC_START	n/a	4	4	MAZE	PARK	PARK	MAZE	3	[0, 0, 0]	-999	PAL1	3	R1333N
579.007	3.088	580620	PROBE_START	n/a	4	4	MAZE	PARK	PARK	MAZE	3	[0, 0, 0]	-999	PAL1	3	R1333N
582.095	0.937	583708	REC_EVENT	3088	4	4	MAZE	PARK	PARK	MAZE	3	[0, 0, 0]	-999	PAL1	3	R1333N
583.032	1.0	584645	PROBE_END	n/a	4	4	MAZE	n/a	PARK	MAZE	3	[0, 0, 0]	-999	PAL1	3	R1333N
584.032	0.012	585645	REC_END	n/a	4	4	MAZE	n/a	PARK	MAZE	3	[0, 0, 0]	-999	PAL1	3	R1333N
584.044	0.271	585657	ORIENT_START	n/a	-999	-999	n/a	n/a	n/a	n/a	3	[0, 0, 0]	-999	PAL1	3	R1333N
584.315	0.681	585928	ORIENT_END	n/a	-999	-999	n/a	n/a	n/a	n/a	3	[0, 0, 0]	-999	PAL1	3	R1333N
584.996	0.0	586609	REC_START	n/a	1	5	HAWK	SUIT	HAWK	DOLL	3	[0, 0, 0]	-999	PAL1	3	R1333N
584.996	2.726	586609	PROBE_START	n/a	1	5	HAWK	SUIT	HAWK	DOLL	3	[0, 0, 0]	-999	PAL1	3	R1333N
587.722	1.311	589335	REC_EVENT	2726	1	5	HAWK	SUIT	HAWK	DOLL	3	[0, 0, 0]	-999	PAL1	3	R1333N
589.033	1.0	590646	PROBE_END	n/a	1	5	HAWK	n/a	HAWK	DOLL	3	[0, 0, 0]	-999	PAL1	3	R1333N
590.033	0.012	591646	REC_END	n/a	1	5	HAWK	n/a	HAWK	DOLL	3	[0, 0, 0]	-999	PAL1	3	R1333N
590.045	0.271	591658	ORIENT_START	n/a	-999	-999	n/a	n/a	n/a	n/a	3	[0, 0, 0]	-999	PAL1	3	R1333N
590.316	0.744	591929	ORIENT_END	n/a	-999	-999	n/a	n/a	n/a	n/a	3	[0, 0, 0]	-999	PAL1	3	R1333N
591.06	0.0	592673	REC_START	n/a	6	6	CLOUD	TREE	TREE	CLOUD	3	[0, 0, 0]	-999	PAL1	3	R1333N
591.06	2.94	592673	PROBE_START	n/a	6	6	CLOUD	TREE	TREE	CLOUD	3	[0, 0, 0]	-999	PAL1	3	R1333N
594.0	1.084	595612	REC_EVENT	2940	6	6	CLOUD	TREE	TREE	CLOUD	3	[0, 0, 0]	-999	PAL1	3	R1333N
595.084	1.0	596696	PROBE_END	n/a	6	6	CLOUD	n/a	TREE	CLOUD	3	[0, 0, 0]	-999	PAL1	3	R1333N
596.084	0.005	597696	REC_END	n/a	6	6	CLOUD	n/a	TREE	CLOUD	3	[0, 0, 0]	-999	PAL1	3	R1333N
596.089	0.0	597701	TRIAL_END	n/a	-999	-999	n/a	n/a	n/a	n/a	3	[0, 0, 0]	-999	PAL1	3	R1333N
596.089	0.02	597701	RETRIEVAL_END	n/a	-999	-999	n/a	n/a	n/a	n/a	3	[0, 0, 0]	-999	PAL1	3	R1333N
596.109	0.0	597721	TRIAL_START	n/a	-999	-999	n/a	n/a	n/a	n/a	3	[0, 0, 0]	-999	PAL1	3	R1333N
596.109	0.0	597721	TRIAL	n/a	-999	-999	n/a	n/a	n/a	n/a	4	[0, 0, 0]	-999	PAL1	3	R1333N
596.109	1.243	597721	WAITING_START	n/a	-999	-999	n/a	n/a	n/a	n/a	4	[0, 0, 0]	-999	PAL1	3	R1333N
597.352	0.0	598964	WAITING_END	n/a	-999	-999	n/a	n/a	n/a	n/a	4	[0, 0, 0]	-999	PAL1	3	R1333N
597.352	10.43	598964	COUNTDOWN_START	n/a	-999	-999	n/a	n/a	n/a	n/a	4	[0, 0, 0]	-999	PAL1	3	R1333N
607.782	0.0	609394	COUNTDOWN_END	n/a	-999	-999	n/a	n/a	n/a	n/a	4	[0, 0, 0]	-999	PAL1	3	R1333N
607.782	0.572	609394	ORIENT_START	n/a	-999	-999	n/a	n/a	n/a	n/a	4	[0, 0, 0]	-999	PAL1	3	R1333N
608.354	0.0	609966	ORIENT_END	n/a	-999	-999	n/a	n/a	n/a	n/a	4	[0, 0, 0]	-999	PAL1	3	R1333N
608.354	1.196	609966	ENCODING_START	n/a	-999	-999	n/a	n/a	n/a	n/a	4	[0, 0, 0]	-999	PAL1	3	R1333N
609.55	4.038	611162	STUDY_PAIR	n/a	1	-999	n/a	PEARL	DIME	BLUSH	4	[0, 0, 0]	-999	PAL1	3	R1333N
613.588	0.559	615200	STUDY_PAIR_OFF	n/a	1	-999	n/a	PEARL	DIME	BLUSH	4	[0, 0, 0]	-999	PAL1	3	R1333N
614.147	4.024	615759	STUDY_PAIR	n/a	2	-999	n/a	SIGN	FOG	SIGN	4	[0, 0, 0]	-999	PAL1	3	R1333N
618.171	0.741	619783	STUDY_PAIR_OFF	n/a	2	-999	n/a	SIGN	FOG	SIGN	4	[0, 0, 0]	-999	PAL1	3	R1333N
618.912	4.026	620524	STUDY_PAIR	n/a	3	-999	n/a	CORK	CAPE	CART	4	[0, 0, 0]	-999	PAL1	3	R1333N
622.938	0.604	624549	STUDY_PAIR_OFF	n/a	3	-999	n/a	CORK	CAPE	CART	4	[0, 0, 0]	-999	PAL1	3	R1333N
623.542	4.032	625153	STUDY_PAIR	n/a	4	-999	n/a	BOY	BOY	ARK	4	[0, 0, 0]	-999	PAL1	3	R1333N
627.574	0.615	629185	STUDY_PAIR_OFF	n/a	4	-999	n/a	BOY	BOY	ARK	4	[0, 0, 0]	-999	PAL1	3	R1333N
628.189	4.034	629800	STUDY_PAIR	n/a	5	-999	n/a	VAN	STEAM	VAN	4	[0, 0, 0]	-999	PAL1	3	R1333N
632.223	0.507	633834	STUDY_PAIR_OFF	n/a	5	-999	n/a	VAN	STEAM	VAN	4	[0, 0, 0]	-999	PAL1	3	R1333N
632.73	4.028	634341	STUDY_PAIR	n/a	6	-999	n/a	n/a	RIB	TAIL	4	[0, 0, 0]	-999	PAL1	3	R1333N
636.758	0.001	638369	STUDY_PAIR_OFF	n/a	6	-999	n/a	n/a	RIB	TAIL	4	[0, 0, 0]	-999	PAL1	3	R1333N
636.759	0.0	638370	ENCODING_END	n/a	-999	-999	n/a	n/a	n/a	n/a	4	[0, 0, 0]	-999	PAL1	3	R1333N
636.759	0.001	638370	MATH_START	n/a	-999	-999	n/a	n/a	n/a	n/a	4	[0, 0, 0]	-999	PAL1	3	R1333N
636.76	0.015	638371	START	n/a	-999	-999	n/a	n/a	n/a	n/a	4	[-999, -999, -999]	-999	PAL1	3	R1333N
636.775	3.834	638386	PROB	3801	-999	-999	n/a	n/a	n/a	n/a	4	[9, 8, 4]	21	PAL1	3	R1333N
640.609	2.549	642220	PROB	2518	-999	-999	n/a	n/a	n/a	n/a	4	[5, 1, 5]	11	PAL1	3	R1333N
643.158	6.985	644769	PROB	6953	-999	-999	n/a	n/a	n/a	n/a	4	[7, 7, 3]	20	PAL1	3	R1333N
650.143	3.451	651753	PROB	3417	-999	-999	n/a	n/a	n/a	n/a	4	[9, 8, 7]	24	PAL1	3	R1333N
653.594	4.309	655204	PROB	4309	-999	-999	n/a	n/a	n/a	n/a	4	[9, 3, 5]	17	PAL1	3	R1333N
657.903	0.008	659513	STOP	n/a	-999	-999	n/a	n/a	n/a	n/a	4	[-999, -999, -999]	-999	PAL1	3	R1333N
657.911	0.683	659521	MATH_END	n/a	-999	-999	n/a	n/a	n/a	n/a	4	[0, 0, 0]	-999	PAL1	3	R1333N
658.594	0.001	660204	RETRIEVAL_START	n/a	-999	-999	n/a	n/a	n/a	n/a	4	[0, 0, 0]	-999	PAL1	3	R1333N
658.595	0.284	660205	ORIENT_START	n/a	-999	-999	n/a	n/a	n/a	n/a	4	[0, 0, 0]	-999	PAL1	3	R1333N
658.879	0.699	660489	ORIENT_END	n/a	-999	-999	n/a	n/a	n/a	n/a	4	[0, 0, 0]	-999	PAL1	3	R1333N
659.578	0.0	661188	REC_START	n/a	1	1	BLUSH	PEARL	DIME	BLUSH	4	[0, 0, 0]	-999	PAL1	3	R1333N
659.578	1.996	661188	PROBE_START	n/a	1	1	BLUSH	PEARL	DIME	BLUSH	4	[0, 0, 0]	-999	PAL1	3	R1333N
661.574	1.594	663184	REC_EVENT	1996	1	1	BLUSH	<>	DIME	BLUSH	4	[0, 0, 0]	-999	PAL1	3	R1333N
663.168	0.445	664778	REC_EVENT	3590	1	1	BLUSH	PEARL	DIME	BLUSH	4	[0, 0, 0]	-999	PAL1	3	R1333N
663.613	1.0	665223	PROBE_END	n/a	1	1	BLUSH	n/a	DIME	BLUSH	4	[0, 0, 0]	-999	PAL1	3	R1333N
664.613	0.011	666223	REC_END	n/a	1	1	BLUSH	n/a	DIME	BLUSH	4	[0, 0, 0]	-999	PAL1	3	R1333N
664.624	0.271	666234	ORIENT_START	n/a	-999	-999	n/a	n/a	n/a	n/a	4	[0, 0, 0]	-999	PAL1	3	R1333N
664.895	0.743	666505	ORIENT_END	n/a	-999	-999	n/a	n/a	n/a	n/a	4	[0, 0, 0]	-999	PAL1	3	R1333N
665.638	0.0	667248	REC_START	n/a	6	2	TAIL	n/a	RIB	TAIL	4	[0, 0, 0]	-999	PAL1	3	R1333N
665.638	2.792	667248	PROBE_START	n/a	6	2	TAIL	n/a	RIB	TAIL	4	[0, 0, 0]	-999	PAL1	3	R1333N
668.43	1.234	670040	REC_EVENT	2792	6	2	TAIL	<>	RIB	TAIL	4	[0, 0, 0]	-999	PAL1	3	R1333N
669.664	1.001	671274	PROBE_END	n/a	6	2	TAIL	n/a	RIB	TAIL	4	[0, 0, 0]	-999	PAL1	3	R1333N
670.665	0.006	672275	REC_END	n/a	6	2	TAIL	n/a	RIB	TAIL	4	[0, 0, 0]	-999	PAL1	3	R1333N
670.671	0.275	672281	ORIENT_START	n/a	-999	-999	n/a	n/a	n/a	n/a	4	[0, 0, 0]	-999	PAL1	3	R1333N
670.946	0.708	672556	ORIENT_END	n/a	-999	-999	n/a	n/a	n/a	n/a	4	[0, 0, 0]	-999	PAL1	3	R1333N
671.654	0.0	673264	REC_START	n/a	3	3	CAPE	CORK	CAPE	CART	4	[0, 0, 0]	-999	PAL1	3	R1333N
671.654	1.967	673264	PROBE_START	n/a	3	3	CAPE	CORK	CAPE	CART	4	[0, 0, 0]	-999	PAL1	3	R1333N
673.621	2.06	675230	REC_EVENT	1967	3	3	CAPE	CORK	CAPE	CART	4	[0, 0, 0]	-999	PAL1	3	R1333N
675.681	1.001	677290	PROBE_END	n/a	3	3	CAPE	n/a	CAPE	CART	4	[0, 0, 0]	-999	PAL1	3	R1333N
676.682	0.012	678291	REC_END	n/a	3	3	CAPE	n/a	CAPE	CART	4	[0, 0, 0]	-999	PAL1	3	R1333N
676.694	0.27	678303	ORIENT_START	n/a	-999	-999	n/a	n/a	n/a	n/a	4	[0, 0, 0]	-999	PAL1	3	R1333N
676.964	0.545	678573	ORIENT_END	n/a	-999	-999	n/a	n/a	n/a	n/a	4	[0, 0, 0]	-999	PAL1	3	R1333N
677.509	0.0	679118	REC_START	n/a	2	4	FOG	SIGN	FOG	SIGN	4	[0, 0, 0]	-999	PAL1	3	R1333N
677.509	2.285	679118	PROBE_START	n/a	2	4	FOG	SIGN	FOG	SIGN	4	[0, 0, 0]	-999	PAL1	3	R1333N
679.794	1.738	681403	REC_EVENT	2285	2	4	FOG	<>	FOG	SIGN	4	[0, 0, 0]	-999	PAL1	3	R1333N
681.532	0.081	683141	PROBE_END	n/a	2	4	FOG	n/a	FOG	SIGN	4	[0, 0, 0]	-999	PAL1	3	R1333N
681.613	0.92	683222	REC_EVENT	4104	2	4	FOG	SIGN	FOG	SIGN	4	[0, 0, 0]	-999	PAL1	3	R1333N
682.533	0.012	684142	REC_END	n/a	2	4	FOG	n/a	FOG	SIGN	4	[0, 0, 0]	-999	PAL1	3	R1333N
682.545	0.271	684154	ORIENT_START	n/a	-999	-999	n/a	n/a	n/a	n/a	4	[0, 0, 0]	-999	PAL1	3	R1333N
682.816	0.691	684425	ORIENT_END	n/a	-999	-999	n/a	n/a	n/a	n/a	4	[0, 0, 0]	-999	PAL1	3	R1333N
683.507	0.0	685116	REC_START	n/a	5	5	STEAM	VAN	STEAM	VAN	4	[0, 0, 0]	-999	PAL1	3	R1333N
683.507	2.528	685116	PROBE_START	n/a	5	5	STEAM	VAN	STEAM	VAN	4	[0, 0, 0]	-999	PAL1	3	R1333N
686.035	1.498	687644	REC_EVENT	2528	5	5	STEAM	VAN	STEAM	VAN	4	[0, 0, 0]	-999	PAL1	3	R1333N
687.533	1.0	689142	PROBE_END	n/a	5	5	STEAM	n/a	STEAM	VAN	4	[0, 0, 0]	-999	PAL1	3	R1333N
688.533	0.011	690142	REC_END	n/a	5	5	STEAM	n/a	STEAM	VAN	4	[0, 0, 0]	-999	PAL1	3	R1333N
688.544	0.273	690153	ORIENT_START	n/a	-999	-999	n/a	n/a	n/a	n/a	4	[0, 0, 0]	-999	PAL1	3	R1333N
688.817	0.552	690426	ORIENT_END	n/a	-999	-999	n/a	n/a	n/a	n/a	4	[0, 0, 0]	-999	PAL1	3	R1333N
689.369	0.0	690978	REC_START	n/a	4	6	ARK	BOY	BOY	ARK	4	[0, 0, 0]	-999	PAL1	3	R1333N
689.369	1.855	690978	PROBE_START	n/a	4	6	ARK	BOY	BOY	ARK	4	[0, 0, 0]	-999	PAL1	3	R1333N
691.224	2.177	692833	REC_EVENT	1855	4	6	ARK	BOY	BOY	ARK	4	[0, 0, 0]	-999	PAL1	3	R1333N
693.401	1.001	695010	PROBE_END	n/a	4	6	ARK	n/a	BOY	ARK	4	[0, 0, 0]	-999	PAL1	3	R1333N
694.402	0.011	696011	REC_END	n/a	4	6	ARK	n/a	BOY	ARK	4	[0, 0, 0]	-999	PAL1	3	R1333N
694.413	0.0	696022	RETRIEVAL_END	n/a	-999	-999	n/a	n/a	n/a	n/a	4	[0, 0, 0]	-999	PAL1	3	R1333N
694.413	0.021	696022	TRIAL_END	n/a	-999	-999	n/a	n/a	n/a	n/a	4	[0, 0, 0]	-999	PAL1	3	R1333N
694.434	0.0	696043	WAITING_START	n/a	-999	-999	n/a	n/a	n/a	n/a	5	[0, 0, 0]	-999	PAL1	3	R1333N
694.434	0.0	696043	TRIAL_START	n/a	-999	-999	n/a	n/a	n/a	n/a	4	[0, 0, 0]	-999	PAL1	3	R1333N
694.434	1.001	696043	TRIAL	n/a	-999	-999	n/a	n/a	n/a	n/a	5	[0, 0, 0]	-999	PAL1	3	R1333N
695.435	0.0	697044	WAITING_END	n/a	-999	-999	n/a	n/a	n/a	n/a	5	[0, 0, 0]	-999	PAL1	3	R1333N
695.435	10.43	697044	COUNTDOWN_START	n/a	-999	-999	n/a	n/a	n/a	n/a	5	[0, 0, 0]	-999	PAL1	3	R1333N
705.865	0.0	707473	COUNTDOWN_END	n/a	-999	-999	n/a	n/a	n/a	n/a	5	[0, 0, 0]	-999	PAL1	3	R1333N
705.865	0.722	707473	ORIENT_START	n/a	-999	-999	n/a	n/a	n/a	n/a	5	[0, 0, 0]	-999	PAL1	3	R1333N
706.587	0.0	708195	ORIENT_END	n/a	-999	-999	n/a	n/a	n/a	n/a	5	[0, 0, 0]	-999	PAL1	3	R1333N
706.587	1.152	708195	ENCODING_START	n/a	-999	-999	n/a	n/a	n/a	n/a	5	[0, 0, 0]	-999	PAL1	3	R1333N
707.739	4.032	709347	STUDY_PAIR	n/a	1	-999	n/a	n/a	SHELL	CALF	5	[0, 0, 0]	-999	PAL1	3	R1333N
711.771	0.632	713379	STUDY_PAIR_OFF	n/a	1	-999	n/a	n/a	SHELL	CALF	5	[0, 0, 0]	-999	PAL1	3	R1333N
712.403	4.035	714011	STUDY_PAIR	n/a	2	-999	n/a	BOARD	BOARD	LIP	5	[0, 0, 0]	-999	PAL1	3	R1333N
716.438	0.502	718046	STUDY_PAIR_OFF	n/a	2	-999	n/a	BOARD	BOARD	LIP	5	[0, 0, 0]	-999	PAL1	3	R1333N
716.94	4.031	718548	STUDY_PAIR	n/a	3	-999	n/a	n/a	SMILE	CHIEF	5	[0, 0, 0]	-999	PAL1	3	R1333N
720.971	0.628	722579	STUDY_PAIR_OFF	n/a	3	-999	n/a	n/a	SMILE	CHIEF	5	[0, 0, 0]	-999	PAL1	3	R1333N
721.599	4.024	723207	STUDY_PAIR	n/a	4	-999	n/a	PIPE	PIPE	THUMB	5	[0, 0, 0]	-999	PAL1	3	R1333N
725.623	0.681	727230	STUDY_PAIR_OFF	n/a	4	-999	n/a	PIPE	PIPE	THUMB	5	[0, 0, 0]	-999	PAL1	3	R1333N
726.304	4.035	727911	STUDY_PAIR	n/a	5	-999	n/a	LAKE	LAKE	SLEEVE	5	[0, 0, 0]	-999	PAL1	3	R1333N
730.339	0.672	731946	STUDY_PAIR_OFF	n/a	5	-999	n/a	LAKE	LAKE	SLEEVE	5	[0, 0, 0]	-999	PAL1	3	R1333N
731.011	4.029	732618	STUDY_PAIR	n/a	6	-999	n/a	n/a	VEST	CLOTH	5	[0, 0, 0]	-999	PAL1	3	R1333N
735.04	0.001	736647	STUDY_PAIR_OFF	n/a	6	-999	n/a	n/a	VEST	CLOTH	5	[0, 0, 0]	-999	PAL1	3	R1333N
735.041	0.0	736648	MATH_START	n/a	-999	-999	n/a	n/a	n/a	n/a	5	[0, 0, 0]	-999	PAL1	3	R1333N
735.041	0.0	736648	ENCODING_END	n/a	-999	-999	n/a	n/a	n/a	n/a	5	[0, 0, 0]	-999	PAL1	3	R1333N
735.041	0.016	736648	START	n/a	-999	-999	n/a	n/a	n/a	n/a	5	[-999, -999, -999]	-999	PAL1	3	R1333N
735.057	3.217	736664	PROB	3182	-999	-999	n/a	n/a	n/a	n/a	5	[3, 7, 3]	13	PAL1	3	R1333N
738.274	4.085	739881	PROB	4054	-999	-999	n/a	n/a	n/a	n/a	5	[5, 4, 8]	17	PAL1	3	R1333N
742.359	3.816	743966	PROB	3784	-999	-999	n/a	n/a	n/a	n/a	5	[9, 3, 6]	18	PAL1	3	R1333N
746.175	3.202	747782	PROB	3177	-999	-999	n/a	n/a	n/a	n/a	5	[8, 9, 6]	23	PAL1	3	R1333N
749.377	3.117	750984	PROB	3086	-999	-999	n/a	n/a	n/a	n/a	5	[3, 4, 4]	11	PAL1	3	R1333N
752.494	2.569	754100	PROB	2569	-999	-999	n/a	n/a	n/a	n/a	5	[6, 1, 8]	15	PAL1	3	R1333N
755.063	0.014	756669	STOP	n/a	-999	-999	n/a	n/a	n/a	n/a	5	[-999, -999, -999]	-999	PAL1	3	R1333N
755.077	0.533	756683	MATH_END	n/a	-999	-999	n/a	n/a	n/a	n/a	5	[0, 0, 0]	-999	PAL1	3	R1333N
755.61	0.001	757216	RETRIEVAL_START	n/a	-999	-999	n/a	n/a	n/a	n/a	5	[0, 0, 0]	-999	PAL1	3	R1333N
755.611	0.284	757217	ORIENT_START	n/a	-999	-999	n/a	n/a	n/a	n/a	5	[0, 0, 0]	-999	PAL1	3	R1333N
755.895	0.644	757501	ORIENT_END	n/a	-999	-999	n/a	n/a	n/a	n/a	5	[0, 0, 0]	-999	PAL1	3	R1333N
756.539	0.001	758145	REC_START	n/a	3	1	SMILE	n/a	SMILE	CHIEF	5	[0, 0, 0]	-999	PAL1	3	R1333N
756.54	2.512	758146	PROBE_START	n/a	3	1	SMILE	n/a	SMILE	CHIEF	5	[0, 0, 0]	-999	PAL1	3	R1333N
759.052	1.51	760658	REC_EVENT	2512	3	1	SMILE	<>	SMILE	CHIEF	5	[0, 0, 0]	-999	PAL1	3	R1333N
760.562	1.0	762168	PROBE_END	n/a	3	1	SMILE	n/a	SMILE	CHIEF	5	[0, 0, 0]	-999	PAL1	3	R1333N
761.562	0.011	763168	REC_END	n/a	3	1	SMILE	n/a	SMILE	CHIEF	5	[0, 0, 0]	-999	PAL1	3	R1333N
761.573	0.273	763179	ORIENT_START	n/a	-999	-999	n/a	n/a	n/a	n/a	5	[0, 0, 0]	-999	PAL1	3	R1333N
761.846	0.71	763452	ORIENT_END	n/a	-999	-999	n/a	n/a	n/a	n/a	5	[0, 0, 0]	-999	PAL1	3	R1333N
762.556	0.0	764162	REC_START	n/a	4	2	THUMB	PIPE	PIPE	THUMB	5	[0, 0, 0]	-999	PAL1	3	R1333N
762.556	1.702	764162	PROBE_START	n/a	4	2	THUMB	PIPE	PIPE	THUMB	5	[0, 0, 0]	-999	PAL1	3	R1333N
764.258	1.339	765864	REC_EVENT	1702	4	2	THUMB	<>	PIPE	THUMB	5	[0, 0, 0]	-999	PAL1	3	R1333N
765.597	0.983	767203	REC_EVENT	3041	4	2	THUMB	PIPE	PIPE	THUMB	5	[0, 0, 0]	-999	PAL1	3	R1333N
766.58	1.0	768186	PROBE_END	n/a	4	2	THUMB	n/a	PIPE	THUMB	5	[0, 0, 0]	-999	PAL1	3	R1333N
767.58	0.012	769186	REC_END	n/a	4	2	THUMB	n/a	PIPE	THUMB	5	[0, 0, 0]	-999	PAL1	3	R1333N
767.592	0.271	769198	ORIENT_START	n/a	-999	-999	n/a	n/a	n/a	n/a	5	[0, 0, 0]	-999	PAL1	3	R1333N
767.863	0.505	769469	ORIENT_END	n/a	-999	-999	n/a	n/a	n/a	n/a	5	[0, 0, 0]	-999	PAL1	3	R1333N
768.368	0.0	769974	PROBE_START	n/a	1	3	SHELL	n/a	SHELL	CALF	5	[0, 0, 0]	-999	PAL1	3	R1333N
768.368	4.029	769974	REC_START	n/a	1	3	SHELL	n/a	SHELL	CALF	5	[0, 0, 0]	-999	PAL1	3	R1333N
772.397	0.066	774003	PROBE_END	n/a	1	3	SHELL	n/a	SHELL	CALF	5	[0, 0, 0]	-999	PAL1	3	R1333N
772.463	0.935	774069	REC_EVENT	4095	1	3	SHELL	<>	SHELL	CALF	5	[0, 0, 0]	-999	PAL1	3	R1333N
773.398	0.011	775004	REC_END	n/a	1	3	SHELL	n/a	SHELL	CALF	5	[0, 0, 0]	-999	PAL1	3	R1333N
773.409	0.272	775015	ORIENT_START	n/a	-999	-999	n/a	n/a	n/a	n/a	5	[0, 0, 0]	-999	PAL1	3	R1333N
773.681	0.681	775287	ORIENT_END	n/a	-999	-999	n/a	n/a	n/a	n/a	5	[0, 0, 0]	-999	PAL1	3	R1333N
774.362	0.0	775968	REC_START	n/a	6	4	VEST	n/a	VEST	CLOTH	5	[0, 0, 0]	-999	PAL1	3	R1333N
774.362	4.036	775968	PROBE_START	n/a	6	4	VEST	n/a	VEST	CLOTH	5	[0, 0, 0]	-999	PAL1	3	R1333N
778.398	0.52	780004	PROBE_END	n/a	6	4	VEST	n/a	VEST	CLOTH	5	[0, 0, 0]	-999	PAL1	3	R1333N
778.918	0.48	780523	REC_EVENT	4556	6	4	VEST	<>	VEST	CLOTH	5	[0, 0, 0]	-999	PAL1	3	R1333N
779.398	0.011	781003	REC_END	n/a	6	4	VEST	n/a	VEST	CLOTH	5	[0, 0, 0]	-999	PAL1	3	R1333N
779.409	0.273	781014	ORIENT_START	n/a	-999	-999	n/a	n/a	n/a	n/a	5	[0, 0, 0]	-999	PAL1	3	R1333N
779.682	0.636	781287	ORIENT_END	n/a	-999	-999	n/a	n/a	n/a	n/a	5	[0, 0, 0]	-999	PAL1	3	R1333N
780.318	0.0	781923	REC_START	n/a	5	5	SLEEVE	LAKE	LAKE	SLEEVE	5	[0, 0, 0]	-999	PAL1	3	R1333N
780.318	2.094	781923	PROBE_START	n/a	5	5	SLEEVE	LAKE	LAKE	SLEEVE	5	[0, 0, 0]	-999	PAL1	3	R1333N
782.412	1.937	784017	REC_EVENT	2094	5	5	SLEEVE	LAKE	LAKE	SLEEVE	5	[0, 0, 0]	-999	PAL1	3	R1333N
784.349	1.0	785954	PROBE_END	n/a	5	5	SLEEVE	n/a	LAKE	SLEEVE	5	[0, 0, 0]	-999	PAL1	3	R1333N
785.349	0.011	786954	REC_END	n/a	5	5	SLEEVE	n/a	LAKE	SLEEVE	5	[0, 0, 0]	-999	PAL1	3	R1333N
785.36	0.273	786965	ORIENT_START	n/a	-999	-999	n/a	n/a	n/a	n/a	5	[0, 0, 0]	-999	PAL1	3	R1333N
785.633	0.67	787238	ORIENT_END	n/a	-999	-999	n/a	n/a	n/a	n/a	5	[0, 0, 0]	-999	PAL1	3	R1333N
786.303	0.0	787908	PROBE_START	n/a	2	6	LIP	BOARD	BOARD	LIP	5	[0, 0, 0]	-999	PAL1	3	R1333N
786.303	1.737	787908	REC_START	n/a	2	6	LIP	BOARD	BOARD	LIP	5	[0, 0, 0]	-999	PAL1	3	R1333N
788.04	1.315	789645	REC_EVENT	1737	2	6	LIP	<>	BOARD	LIP	5	[0, 0, 0]	-999	PAL1	3	R1333N
789.355	0.978	790960	REC_EVENT	3052	2	6	LIP	BOARD	BOARD	LIP	5	[0, 0, 0]	-999	PAL1	3	R1333N
790.333	0.999	791938	PROBE_END	n/a	2	6	LIP	n/a	BOARD	LIP	5	[0, 0, 0]	-999	PAL1	3	R1333N
791.332	0.012	792937	REC_END	n/a	2	6	LIP	n/a	BOARD	LIP	5	[0, 0, 0]	-999	PAL1	3	R1333N
791.344	0.0	792949	RETRIEVAL_END	n/a	-999	-999	n/a	n/a	n/a	n/a	5	[0, 0, 0]	-999	PAL1	3	R1333N
791.344	0.021	792949	TRIAL_END	n/a	-999	-999	n/a	n/a	n/a	n/a	5	[0, 0, 0]	-999	PAL1	3	R1333N
791.365	0.001	792970	TRIAL_START	n/a	-999	-999	n/a	n/a	n/a	n/a	5	[0, 0, 0]	-999	PAL1	3	R1333N
791.366	0.0	792971	TRIAL	n/a	-999	-999	n/a	n/a	n/a	n/a	6	[0, 0, 0]	-999	PAL1	3	R1333N
791.366	1.035	792971	WAITING_START	n/a	-999	-999	n/a	n/a	n/a	n/a	6	[0, 0, 0]	-999	PAL1	3	R1333N
792.401	0.0	794006	COUNTDOWN_START	n/a	-999	-999	n/a	n/a	n/a	n/a	6	[0, 0, 0]	-999	PAL1	3	R1333N
792.401	10.429	794006	WAITING_END	n/a	-999	-999	n/a	n/a	n/a	n/a	6	[0, 0, 0]	-999	PAL1	3	R1333N
802.83	0.001	804435	COUNTDOWN_END	n/a	-999	-999	n/a	n/a	n/a	n/a	6	[0, 0, 0]	-999	PAL1	3	R1333N
802.831	0.638	804436	ORIENT_START	n/a	-999	-999	n/a	n/a	n/a	n/a	6	[0, 0, 0]	-999	PAL1	3	R1333N
803.469	0.0	805074	ORIENT_END	n/a	-999	-999	n/a	n/a	n/a	n/a	6	[0, 0, 0]	-999	PAL1	3	R1333N
803.469	1.123	805074	ENCODING_START	n/a	-999	-999	n/a	n/a	n/a	n/a	6	[0, 0, 0]	-999	PAL1	3	R1333N
804.592	4.011	806197	STUDY_PAIR	n/a	1	-999	n/a	n/a	CHALK	STEM	6	[0, 0, 0]	-999	PAL1	3	R1333N
808.603	0.615	810207	STUDY_PAIR_OFF	n/a	1	-999	n/a	n/a	CHALK	STEM	6	[0, 0, 0]	-999	PAL1	3	R1333N
809.218	4.035	810822	STUDY_PAIR	n/a	2	-999	n/a	GRAPE	SKY	GRAPE	6	[0, 0, 0]	-999	PAL1	3	R1333N
813.253	0.597	814857	STUDY_PAIR_OFF	n/a	2	-999	n/a	GRAPE	SKY	GRAPE	6	[0, 0, 0]	-999	PAL1	3	R1333N
813.85	4.038	815454	STUDY_PAIR	n/a	3	-999	n/a	COUCH	BOX	COUCH	6	[0, 0, 0]	-999	PAL1	3	R1333N
817.888	0.52	819492	STUDY_PAIR_OFF	n/a	3	-999	n/a	COUCH	BOX	COUCH	6	[0, 0, 0]	-999	PAL1	3	R1333N
818.408	4.031	820012	STUDY_PAIR	n/a	4	-999	n/a	ARM	MAT	ARM	6	[0, 0, 0]	-999	PAL1	3	R1333N
822.439	0.653	824043	STUDY_PAIR_OFF	n/a	4	-999	n/a	ARM	MAT	ARM	6	[0, 0, 0]	-999	PAL1	3	R1333N
823.092	4.03	824696	STUDY_PAIR	n/a	5	-999	n/a	n/a	PLANT	BIRD	6	[0, 0, 0]	-999	PAL1	3	R1333N
827.122	0.596	828726	STUDY_PAIR_OFF	n/a	5	-999	n/a	n/a	PLANT	BIRD	6	[0, 0, 0]	-999	PAL1	3	R1333N
827.718	4.039	829322	STUDY_PAIR	n/a	6	-999	n/a	TRUCK	TRUCK	APE	6	[0, 0, 0]	-999	PAL1	3	R1333N
831.757	0.001	833361	STUDY_PAIR_OFF	n/a	6	-999	n/a	TRUCK	TRUCK	APE	6	[0, 0, 0]	-999	PAL1	3	R1333N
831.758	0.0	833362	ENCODING_END	n/a	-999	-999	n/a	n/a	n/a	n/a	6	[0, 0, 0]	-999	PAL1	3	R1333N
831.758	0.0	833362	MATH_START	n/a	-999	-999	n/a	n/a	n/a	n/a	6	[0, 0, 0]	-999	PAL1	3	R1333N
831.758	0.016	833362	START	n/a	-999	-999	n/a	n/a	n/a	n/a	6	[-999, -999, -999]	-999	PAL1	3	R1333N
831.774	3.05	833378	PROB	3026	-999	-999	n/a	n/a	n/a	n/a	6	[1, 9, 3]	13	PAL1	3	R1333N
834.824	4.1	836427	PROB	4071	-999	-999	n/a	n/a	n/a	n/a	6	[7, 9, 6]	22	PAL1	3	R1333N
838.924	2.868	840527	PROB	2844	-999	-999	n/a	n/a	n/a	n/a	6	[7, 1, 7]	15	PAL1	3	R1333N
841.792	3.266	843395	PROB	3239	-999	-999	n/a	n/a	n/a	n/a	6	[6, 8, 1]	15	PAL1	3	R1333N
845.058	2.702	846661	PROB	2678	-999	-999	n/a	n/a	n/a	n/a	6	[5, 3, 8]	16	PAL1	3	R1333N
847.76	3.984	849363	PROB	3945	-999	-999	n/a	n/a	n/a	n/a	6	[6, 9, 4]	19	PAL1	3	R1333N
851.744	3.383	853347	PROB	3383	-999	-999	n/a	n/a	n/a	n/a	6	[3, 9, 5]	17	PAL1	3	R1333N
855.127	0.016	856730	STOP	n/a	-999	-999	n/a	n/a	n/a	n/a	6	[-999, -999, -999]	-999	PAL1	3	R1333N
855.143	0.502	856746	MATH_END	n/a	-999	-999	n/a	n/a	n/a	n/a	6	[0, 0, 0]	-999	PAL1	3	R1333N
855.645	0.002	857248	RETRIEVAL_START	n/a	-999	-999	n/a	n/a	n/a	n/a	6	[0, 0, 0]	-999	PAL1	3	R1333N
855.647	0.28	857250	ORIENT_START	n/a	-999	-999	n/a	n/a	n/a	n/a	6	[0, 0, 0]	-999	PAL1	3	R1333N
855.927	0.555	857530	ORIENT_END	n/a	-999	-999	n/a	n/a	n/a	n/a	6	[0, 0, 0]	-999	PAL1	3	R1333N
856.482	0.0	858085	REC_START	n/a	3	1	BOX	COUCH	BOX	COUCH	6	[0, 0, 0]	-999	PAL1	3	R1333N
856.482	2.164	858085	PROBE_START	n/a	3	1	BOX	COUCH	BOX	COUCH	6	[0, 0, 0]	-999	PAL1	3	R1333N
858.646	1.866	860248	REC_EVENT	2164	3	1	BOX	COUCH	BOX	COUCH	6	[0, 0, 0]	-999	PAL1	3	R1333N
860.512	1.001	862114	PROBE_END	n/a	3	1	BOX	n/a	BOX	COUCH	6	[0, 0, 0]	-999	PAL1	3	R1333N
861.513	0.011	863115	REC_END	n/a	3	1	BOX	n/a	BOX	COUCH	6	[0, 0, 0]	-999	PAL1	3	R1333N
861.524	0.271	863126	ORIENT_START	n/a	-999	-999	n/a	n/a	n/a	n/a	6	[0, 0, 0]	-999	PAL1	3	R1333N
861.795	0.533	863397	ORIENT_END	n/a	-999	-999	n/a	n/a	n/a	n/a	6	[0, 0, 0]	-999	PAL1	3	R1333N
862.328	0.0	863930	PROBE_START	n/a	6	2	APE	TRUCK	TRUCK	APE	6	[0, 0, 0]	-999	PAL1	3	R1333N
862.328	2.224	863930	REC_START	n/a	6	2	APE	TRUCK	TRUCK	APE	6	[0, 0, 0]	-999	PAL1	3	R1333N
864.552	1.793	866154	REC_EVENT	2224	6	2	APE	TRUCK	TRUCK	APE	6	[0, 0, 0]	-999	PAL1	3	R1333N
866.345	1.0	867947	PROBE_END	n/a	6	2	APE	n/a	TRUCK	APE	6	[0, 0, 0]	-999	PAL1	3	R1333N
867.345	0.011	868947	REC_END	n/a	6	2	APE	n/a	TRUCK	APE	6	[0, 0, 0]	-999	PAL1	3	R1333N
867.356	0.274	868958	ORIENT_START	n/a	-999	-999	n/a	n/a	n/a	n/a	6	[0, 0, 0]	-999	PAL1	3	R1333N
867.63	0.582	869232	ORIENT_END	n/a	-999	-999	n/a	n/a	n/a	n/a	6	[0, 0, 0]	-999	PAL1	3	R1333N
868.212	0.0	869814	REC_START	n/a	5	3	BIRD	n/a	PLANT	BIRD	6	[0, 0, 0]	-999	PAL1	3	R1333N
868.212	2.491	869814	PROBE_START	n/a	5	3	BIRD	n/a	PLANT	BIRD	6	[0, 0, 0]	-999	PAL1	3	R1333N
870.703	1.543	872305	REC_EVENT	2491	5	3	BIRD	<>	PLANT	BIRD	6	[0, 0, 0]	-999	PAL1	3	R1333N
872.246	1.0	873848	PROBE_END	n/a	5	3	BIRD	n/a	PLANT	BIRD	6	[0, 0, 0]	-999	PAL1	3	R1333N
873.246	0.012	874848	REC_END	n/a	5	3	BIRD	n/a	PLANT	BIRD	6	[0, 0, 0]	-999	PAL1	3	R1333N
873.258	0.273	874860	ORIENT_START	n/a	-999	-999	n/a	n/a	n/a	n/a	6	[0, 0, 0]	-999	PAL1	3	R1333N
873.531	0.641	875133	ORIENT_END	n/a	-999	-999	n/a	n/a	n/a	n/a	6	[0, 0, 0]	-999	PAL1	3	R1333N
874.172	0.0	875774	REC_START	n/a	2	4	SKY	GRAPE	SKY	GRAPE	6	[0, 0, 0]	-999	PAL1	3	R1333N
874.172	2.636	875774	PROBE_START	n/a	2	4	SKY	GRAPE	SKY	GRAPE	6	[0, 0, 0]	-999	PAL1	3	R1333N
876.808	1.389	878410	REC_EVENT	2636	2	4	SKY	GRAPE	SKY	GRAPE	6	[0, 0, 0]	-999	PAL1	3	R1333N
878.197	1.001	879799	PROBE_END	n/a	2	4	SKY	n/a	SKY	GRAPE	6	[0, 0, 0]	-999	PAL1	3	R1333N
879.198	0.011	880800	REC_END	n/a	2	4	SKY	n/a	SKY	GRAPE	6	[0, 0, 0]	-999	PAL1	3	R1333N
879.209	0.273	880811	ORIENT_START	n/a	-999	-999	n/a	n/a	n/a	n/a	6	[0, 0, 0]	-999	PAL1	3	R1333N
879.482	0.507	881084	ORIENT_END	n/a	-999	-999	n/a	n/a	n/a	n/a	6	[0, 0, 0]	-999	PAL1	3	R1333N
879.989	0.0	881591	PROBE_START	n/a	1	5	STEM	n/a	CHALK	STEM	6	[0, 0, 0]	-999	PAL1	3	R1333N
879.989	4.026	881591	REC_START	n/a	1	5	STEM	n/a	CHALK	STEM	6	[0, 0, 0]	-999	PAL1	3	R1333N
884.015	0.428	885617	PROBE_END	n/a	1	5	STEM	n/a	CHALK	STEM	6	[0, 0, 0]	-999	PAL1	3	R1333N
884.443	0.571	886045	REC_EVENT	4454	1	5	STEM	<>	CHALK	STEM	6	[0, 0, 0]	-999	PAL1	3	R1333N
885.014	0.012	886616	REC_END	n/a	1	5	STEM	n/a	CHALK	STEM	6	[0, 0, 0]	-999	PAL1	3	R1333N
885.026	0.272	886628	ORIENT_START	n/a	-999	-999	n/a	n/a	n/a	n/a	6	[0, 0, 0]	-999	PAL1	3	R1333N
885.298	0.607	886899	ORIENT_END	n/a	-999	-999	n/a	n/a	n/a	n/a	6	[0, 0, 0]	-999	PAL1	3	R1333N
885.905	0.0	887506	REC_START	n/a	4	6	MAT	ARM	MAT	ARM	6	[0, 0, 0]	-999	PAL1	3	R1333N
885.905	2.36	887506	PROBE_START	n/a	4	6	MAT	ARM	MAT	ARM	6	[0, 0, 0]	-999	PAL1	3	R1333N
888.265	1.668	889866	REC_EVENT	2360	4	6	MAT	ARM	MAT	ARM	6	[0, 0, 0]	-999	PAL1	3	R1333N
889.933	1.004	891534	PROBE_END	n/a	4	6	MAT	n/a	MAT	ARM	6	[0, 0, 0]	-999	PAL1	3	R1333N
890.937	0.011	892538	REC_END	n/a	4	6	MAT	n/a	MAT	ARM	6	[0, 0, 0]	-999	PAL1	3	R1333N
890.948	0.0	892549	RETRIEVAL_END	n/a	-999	-999	n/a	n/a	n/a	n/a	6	[0, 0, 0]	-999	PAL1	3	R1333N
890.948	0.018	892549	TRIAL_END	n/a	-999	-999	n/a	n/a	n/a	n/a	6	[0, 0, 0]	-999	PAL1	3	R1333N
890.966	0.001	892567	TRIAL_START	n/a	-999	-999	n/a	n/a	n/a	n/a	6	[0, 0, 0]	-999	PAL1	3	R1333N
890.967	0.0	892568	TRIAL	n/a	-999	-999	n/a	n/a	n/a	n/a	7	[0, 0, 0]	-999	PAL1	3	R1333N
890.967	5.534	892568	WAITING_START	n/a	-999	-999	n/a	n/a	n/a	n/a	7	[0, 0, 0]	-999	PAL1	3	R1333N
896.501	0.001	898102	WAITING_END	n/a	-999	-999	n/a	n/a	n/a	n/a	7	[0, 0, 0]	-999	PAL1	3	R1333N
896.502	10.43	898103	COUNTDOWN_START	n/a	-999	-999	n/a	n/a	n/a	n/a	7	[0, 0, 0]	-999	PAL1	3	R1333N
906.932	0.0	908533	COUNTDOWN_END	n/a	-999	-999	n/a	n/a	n/a	n/a	7	[0, 0, 0]	-999	PAL1	3	R1333N
906.932	0.671	908533	ORIENT_START	n/a	-999	-999	n/a	n/a	n/a	n/a	7	[0, 0, 0]	-999	PAL1	3	R1333N
907.603	0.001	909204	ORIENT_END	n/a	-999	-999	n/a	n/a	n/a	n/a	7	[0, 0, 0]	-999	PAL1	3	R1333N
907.604	1.051	909205	ENCODING_START	n/a	-999	-999	n/a	n/a	n/a	n/a	7	[0, 0, 0]	-999	PAL1	3	R1333N
908.655	4.032	910256	STUDY_PAIR	n/a	1	-999	n/a	n/a	PLATE	CANE	7	[0, 0, 0]	-999	PAL1	3	R1333N
912.687	0.708	914287	STUDY_PAIR_OFF	n/a	1	-999	n/a	n/a	PLATE	CANE	7	[0, 0, 0]	-999	PAL1	3	R1333N
913.395	4.026	914995	STUDY_PAIR	n/a	2	-999	n/a	BEAR	WEED	FUR	7	[0, 0, 0]	-999	PAL1	3	R1333N
917.421	0.618	919021	STUDY_PAIR_OFF	n/a	2	-999	n/a	BEAR	WEED	FUR	7	[0, 0, 0]	-999	PAL1	3	R1333N
918.039	4.032	919639	STUDY_PAIR	n/a	3	-999	n/a	n/a	AXE	MILK	7	[0, 0, 0]	-999	PAL1	3	R1333N
922.071	0.749	923671	STUDY_PAIR_OFF	n/a	3	-999	n/a	n/a	AXE	MILK	7	[0, 0, 0]	-999	PAL1	3	R1333N
922.82	4.036	924420	STUDY_PAIR	n/a	4	-999	n/a	BRUSH	BRUSH	BEAR	7	[0, 0, 0]	-999	PAL1	3	R1333N
926.856	0.671	928456	STUDY_PAIR_OFF	n/a	4	-999	n/a	BRUSH	BRUSH	BEAR	7	[0, 0, 0]	-999	PAL1	3	R1333N
927.527	4.03	929127	STUDY_PAIR	n/a	5	-999	n/a	JUICE	BAT	JUICE	7	[0, 0, 0]	-999	PAL1	3	R1333N
931.557	0.71	933157	STUDY_PAIR_OFF	n/a	5	-999	n/a	JUICE	BAT	JUICE	7	[0, 0, 0]	-999	PAL1	3	R1333N
932.267	4.04	933867	STUDY_PAIR	n/a	6	-999	n/a	FOOT	BALL	FOOT	7	[0, 0, 0]	-999	PAL1	3	R1333N
936.307	0.0	937907	STUDY_PAIR_OFF	n/a	6	-999	n/a	FOOT	BALL	FOOT	7	[0, 0, 0]	-999	PAL1	3	R1333N
936.307	0.001	937907	ENCODING_END	n/a	-999	-999	n/a	n/a	n/a	n/a	7	[0, 0, 0]	-999	PAL1	3	R1333N
936.308	0.0	937908	MATH_START	n/a	-999	-999	n/a	n/a	n/a	n/a	7	[0, 0, 0]	-999	PAL1	3	R1333N
936.308	0.015	937908	START	n/a	-999	-999	n/a	n/a	n/a	n/a	7	[-999, -999, -999]	-999	PAL1	3	R1333N
936.323	5.152	937923	PROB	5125	-999	-999	n/a	n/a	n/a	n/a	7	[6, 5, 4]	15	PAL1	3	R1333N
941.475	4.034	943074	PROB	4005	-999	-999	n/a	n/a	n/a	n/a	7	[2, 7, 6]	15	PAL1	3	R1333N
945.509	3.716	947108	PROB	3682	-999	-999	n/a	n/a	n/a	n/a	7	[6, 8, 4]	18	PAL1	3	R1333N
949.225	3.834	950824	PROB	3805	-999	-999	n/a	n/a	n/a	n/a	7	[8, 8, 4]	20	PAL1	3	R1333N
953.059	2.835	954658	PROB	2797	-999	-999	n/a	n/a	n/a	n/a	7	[2, 6, 6]	14	PAL1	3	R1333N
955.894	2.954	957493	PROB	2954	-999	-999	n/a	n/a	n/a	n/a	7	[9, 4, 9]	22	PAL1	3	R1333N
958.848	0.013	960447	STOP	n/a	-999	-999	n/a	n/a	n/a	n/a	7	[-999, -999, -999]	-999	PAL1	3	R1333N
958.861	0.629	960460	MATH_END	n/a	-999	-999	n/a	n/a	n/a	n/a	7	[0, 0, 0]	-999	PAL1	3	R1333N
959.49	0.002	961089	RETRIEVAL_START	n/a	-999	-999	n/a	n/a	n/a	n/a	7	[0, 0, 0]	-999	PAL1	3	R1333N
959.492	0.27	961091	ORIENT_START	n/a	-999	-999	n/a	n/a	n/a	n/a	7	[0, 0, 0]	-999	PAL1	3	R1333N
959.762	0.503	961361	ORIENT_END	n/a	-999	-999	n/a	n/a	n/a	n/a	7	[0, 0, 0]	-999	PAL1	3	R1333N
960.265	0.0	961864	PROBE_START	n/a	5	1	BAT	JUICE	BAT	JUICE	7	[0, 0, 0]	-999	PAL1	3	R1333N
960.265	4.03	961864	REC_START	n/a	5	1	BAT	JUICE	BAT	JUICE	7	[0, 0, 0]	-999	PAL1	3	R1333N
964.295	0.131	965894	PROBE_END	n/a	5	1	BAT	n/a	BAT	JUICE	7	[0, 0, 0]	-999	PAL1	3	R1333N
964.426	0.869	966025	REC_EVENT	4161	5	1	BAT	JUICE	BAT	JUICE	7	[0, 0, 0]	-999	PAL1	3	R1333N
965.295	0.011	966893	REC_END	n/a	5	1	BAT	n/a	BAT	JUICE	7	[0, 0, 0]	-999	PAL1	3	R1333N
965.306	0.273	966904	ORIENT_START	n/a	-999	-999	n/a	n/a	n/a	n/a	7	[0, 0, 0]	-999	PAL1	3	R1333N
965.579	0.573	967177	ORIENT_END	n/a	-999	-999	n/a	n/a	n/a	n/a	7	[0, 0, 0]	-999	PAL1	3	R1333N
966.152	0.0	967750	REC_START	n/a	2	2	FUR	BEAR	WEED	FUR	7	[0, 0, 0]	-999	PAL1	3	R1333N
966.152	1.619	967750	PROBE_START	n/a	2	2	FUR	BEAR	WEED	FUR	7	[0, 0, 0]	-999	PAL1	3	R1333N
967.771	1.33	969369	REC_EVENT	1619	2	2	FUR	<>	WEED	FUR	7	[0, 0, 0]	-999	PAL1	3	R1333N
969.101	1.061	970699	REC_EVENT	2949	2	2	FUR	BEAR	WEED	FUR	7	[0, 0, 0]	-999	PAL1	3	R1333N
970.162	1.0	971760	PROBE_END	n/a	2	2	FUR	n/a	WEED	FUR	7	[0, 0, 0]	-999	PAL1	3	R1333N
971.162	0.012	972760	REC_END	n/a	2	2	FUR	n/a	WEED	FUR	7	[0, 0, 0]	-999	PAL1	3	R1333N
971.174	0.273	972772	ORIENT_START	n/a	-999	-999	n/a	n/a	n/a	n/a	7	[0, 0, 0]	-999	PAL1	3	R1333N
971.447	0.668	973045	ORIENT_END	n/a	-999	-999	n/a	n/a	n/a	n/a	7	[0, 0, 0]	-999	PAL1	3	R1333N
972.115	0.0	973713	REC_START	n/a	1	3	CANE	n/a	PLATE	CANE	7	[0, 0, 0]	-999	PAL1	3	R1333N
972.115	2.303	973713	PROBE_START	n/a	1	3	CANE	n/a	PLATE	CANE	7	[0, 0, 0]	-999	PAL1	3	R1333N
974.418	1.729	976016	REC_EVENT	2303	1	3	CANE	<>	PLATE	CANE	7	[0, 0, 0]	-999	PAL1	3	R1333N
976.147	1.0	977745	PROBE_END	n/a	1	3	CANE	n/a	PLATE	CANE	7	[0, 0, 0]	-999	PAL1	3	R1333N
977.147	0.011	978745	REC_END	n/a	1	3	CANE	n/a	PLATE	CANE	7	[0, 0, 0]	-999	PAL1	3	R1333N
977.158	0.273	978756	ORIENT_START	n/a	-999	-999	n/a	n/a	n/a	n/a	7	[0, 0, 0]	-999	PAL1	3	R1333N
977.431	0.67	979029	ORIENT_END	n/a	-999	-999	n/a	n/a	n/a	n/a	7	[0, 0, 0]	-999	PAL1	3	R1333N
978.101	0.0	979699	PROBE_START	n/a	4	4	BEAR	BRUSH	BRUSH	BEAR	7	[0, 0, 0]	-999	PAL1	3	R1333N
978.101	2.675	979699	REC_START	n/a	4	4	BEAR	BRUSH	BRUSH	BEAR	7	[0, 0, 0]	-999	PAL1	3	R1333N
980.776	1.355	982374	REC_EVENT	2675	4	4	BEAR	BRUSH	BRUSH	BEAR	7	[0, 0, 0]	-999	PAL1	3	R1333N
982.131	1.0	983729	PROBE_END	n/a	4	4	BEAR	n/a	BRUSH	BEAR	7	[0, 0, 0]	-999	PAL1	3	R1333N
983.131	0.011	984729	REC_END	n/a	4	4	BEAR	n/a	BRUSH	BEAR	7	[0, 0, 0]	-999	PAL1	3	R1333N
983.142	0.274	984740	ORIENT_START	n/a	-999	-999	n/a	n/a	n/a	n/a	7	[0, 0, 0]	-999	PAL1	3	R1333N
983.416	0.51	985014	ORIENT_END	n/a	-999	-999	n/a	n/a	n/a	n/a	7	[0, 0, 0]	-999	PAL1	3	R1333N
983.926	0.0	985524	REC_START	n/a	3	5	AXE	n/a	AXE	MILK	7	[0, 0, 0]	-999	PAL1	3	R1333N
983.926	4.023	985524	PROBE_START	n/a	3	5	AXE	n/a	AXE	MILK	7	[0, 0, 0]	-999	PAL1	3	R1333N
987.949	0.962	989547	PROBE_END	n/a	3	5	AXE	n/a	AXE	MILK	7	[0, 0, 0]	-999	PAL1	3	R1333N
988.911	0.037	990509	REC_EVENT	4985	3	5	AXE	<>	AXE	MILK	7	[0, 0, 0]	-999	PAL1	3	R1333N
988.948	0.012	990546	REC_END	n/a	3	5	AXE	n/a	AXE	MILK	7	[0, 0, 0]	-999	PAL1	3	R1333N
988.96	0.272	990558	ORIENT_START	n/a	-999	-999	n/a	n/a	n/a	n/a	7	[0, 0, 0]	-999	PAL1	3	R1333N
989.232	0.727	990830	ORIENT_END	n/a	-999	-999	n/a	n/a	n/a	n/a	7	[0, 0, 0]	-999	PAL1	3	R1333N
989.959	0.0	991557	REC_START	n/a	6	6	BALL	FOOT	BALL	FOOT	7	[0, 0, 0]	-999	PAL1	3	R1333N
989.959	1.835	991557	PROBE_START	n/a	6	6	BALL	FOOT	BALL	FOOT	7	[0, 0, 0]	-999	PAL1	3	R1333N
991.794	2.189	993391	REC_EVENT	1835	6	6	BALL	FOOT	BALL	FOOT	7	[0, 0, 0]	-999	PAL1	3	R1333N
993.983	1.001	995580	PROBE_END	n/a	6	6	BALL	n/a	BALL	FOOT	7	[0, 0, 0]	-999	PAL1	3	R1333N
994.984	0.012	996581	REC_END	n/a	6	6	BALL	n/a	BALL	FOOT	7	[0, 0, 0]	-999	PAL1	3	R1333N
994.996	0.0	996593	RETRIEVAL_END	n/a	-999	-999	n/a	n/a	n/a	n/a	7	[0, 0, 0]	-999	PAL1	3	R1333N
994.996	0.023	996593	TRIAL_END	n/a	-999	-999	n/a	n/a	n/a	n/a	7	[0, 0, 0]	-999	PAL1	3	R1333N
995.019	0.0	996616	WAITING_START	n/a	-999	-999	n/a	n/a	n/a	n/a	8	[0, 0, 0]	-999	PAL1	3	R1333N
995.019	0.0	996616	TRIAL_START	n/a	-999	-999	n/a	n/a	n/a	n/a	7	[0, 0, 0]	-999	PAL1	3	R1333N
995.019	1.114	996616	TRIAL	n/a	-999	-999	n/a	n/a	n/a	n/a	8	[0, 0, 0]	-999	PAL1	3	R1333N
996.133	0.001	997730	WAITING_END	n/a	-999	-999	n/a	n/a	n/a	n/a	8	[0, 0, 0]	-999	PAL1	3	R1333N
996.134	10.429	997731	COUNTDOWN_START	n/a	-999	-999	n/a	n/a	n/a	n/a	8	[0, 0, 0]	-999	PAL1	3	R1333N
1006.563	0.0	1008160	COUNTDOWN_END	n/a	-999	-999	n/a	n/a	n/a	n/a	8	[0, 0, 0]	-999	PAL1	3	R1333N
1006.563	0.706	1008160	ORIENT_START	n/a	-999	-999	n/a	n/a	n/a	n/a	8	[0, 0, 0]	-999	PAL1	3	R1333N
1007.269	0.0	1008866	ORIENT_END	n/a	-999	-999	n/a	n/a	n/a	n/a	8	[0, 0, 0]	-999	PAL1	3	R1333N
1007.269	1.195	1008866	ENCODING_START	n/a	-999	-999	n/a	n/a	n/a	n/a	8	[0, 0, 0]	-999	PAL1	3	R1333N
1008.464	4.039	1010061	STUDY_PAIR	n/a	1	-999	n/a	STRAW	STORE	STRAW	8	[0, 0, 0]	-999	PAL1	3	R1333N
1012.503	0.709	1014100	STUDY_PAIR_OFF	n/a	1	-999	n/a	STRAW	STORE	STRAW	8	[0, 0, 0]	-999	PAL1	3	R1333N
1013.212	4.025	1014809	STUDY_PAIR	n/a	2	-999	n/a	HOLE	POND	MOLE	8	[0, 0, 0]	-999	PAL1	3	R1333N
1017.237	0.608	1018834	STUDY_PAIR_OFF	n/a	2	-999	n/a	HOLE	POND	MOLE	8	[0, 0, 0]	-999	PAL1	3	R1333N
1017.845	4.027	1019442	STUDY_PAIR	n/a	3	-999	n/a	HEN	HEN	SUIT	8	[0, 0, 0]	-999	PAL1	3	R1333N
1021.872	0.583	1023468	STUDY_PAIR_OFF	n/a	3	-999	n/a	HEN	HEN	SUIT	8	[0, 0, 0]	-999	PAL1	3	R1333N
1022.455	4.034	1024051	STUDY_PAIR	n/a	4	-999	n/a	SINK	SINK	CLIFF	8	[0, 0, 0]	-999	PAL1	3	R1333N
1026.489	0.744	1028085	STUDY_PAIR_OFF	n/a	4	-999	n/a	SINK	SINK	CLIFF	8	[0, 0, 0]	-999	PAL1	3	R1333N
1027.233	4.039	1028829	STUDY_PAIR	n/a	5	-999	n/a	FISH	FUDGE	FISH	8	[0, 0, 0]	-999	PAL1	3	R1333N
1031.272	0.506	1032868	STUDY_PAIR_OFF	n/a	5	-999	n/a	FISH	FUDGE	FISH	8	[0, 0, 0]	-999	PAL1	3	R1333N
1031.778	4.03	1033374	STUDY_PAIR	n/a	6	-999	n/a	SKY	SOUP	KITE	8	[0, 0, 0]	-999	PAL1	3	R1333N
1035.808	0.0	1037404	MATH_START	n/a	-999	-999	n/a	n/a	n/a	n/a	8	[0, 0, 0]	-999	PAL1	3	R1333N
1035.808	0.0	1037404	ENCODING_END	n/a	-999	-999	n/a	n/a	n/a	n/a	8	[0, 0, 0]	-999	PAL1	3	R1333N
1035.808	0.0	1037404	STUDY_PAIR_OFF	n/a	6	-999	n/a	SKY	SOUP	KITE	8	[0, 0, 0]	-999	PAL1	3	R1333N
1035.808	0.016	1037404	START	n/a	-999	-999	n/a	n/a	n/a	n/a	8	[-999, -999, -999]	-999	PAL1	3	R1333N
1035.824	5.183	1037420	PROB	5159	-999	-999	n/a	n/a	n/a	n/a	8	[9, 7, 2]	18	PAL1	3	R1333N
1041.007	3.352	1042603	PROB	3328	-999	-999	n/a	n/a	n/a	n/a	8	[3, 5, 8]	16	PAL1	3	R1333N
1044.359	2.682	1045955	PROB	2648	-999	-999	n/a	n/a	n/a	n/a	8	[4, 2, 5]	11	PAL1	3	R1333N
1047.041	3.017	1048636	PROB	2982	-999	-999	n/a	n/a	n/a	n/a	8	[4, 9, 2]	15	PAL1	3	R1333N
1050.058	2.951	1051653	PROB	2917	-999	-999	n/a	n/a	n/a	n/a	8	[9, 5, 3]	17	PAL1	3	R1333N
1053.009	3.575	1054604	PROB	3575	-999	-999	n/a	n/a	n/a	n/a	8	[1, 4, 9]	14	PAL1	3	R1333N
1056.584	0.011	1058179	STOP	n/a	-999	-999	n/a	n/a	n/a	n/a	8	[-999, -999, -999]	-999	PAL1	3	R1333N
1056.595	0.52	1058190	MATH_END	n/a	-999	-999	n/a	n/a	n/a	n/a	8	[0, 0, 0]	-999	PAL1	3	R1333N
1057.115	0.002	1058710	RETRIEVAL_START	n/a	-999	-999	n/a	n/a	n/a	n/a	8	[0, 0, 0]	-999	PAL1	3	R1333N
1057.117	0.278	1058712	ORIENT_START	n/a	-999	-999	n/a	n/a	n/a	n/a	8	[0, 0, 0]	-999	PAL1	3	R1333N
1057.395	0.626	1058990	ORIENT_END	n/a	-999	-999	n/a	n/a	n/a	n/a	8	[0, 0, 0]	-999	PAL1	3	R1333N
1058.021	0.001	1059616	REC_START	n/a	5	1	FUDGE	FISH	FUDGE	FISH	8	[0, 0, 0]	-999	PAL1	3	R1333N
1058.022	2.808	1059617	PROBE_START	n/a	5	1	FUDGE	FISH	FUDGE	FISH	8	[0, 0, 0]	-999	PAL1	3	R1333N
1060.83	1.231	1062425	REC_EVENT	2808	5	1	FUDGE	FISH	FUDGE	FISH	8	[0, 0, 0]	-999	PAL1	3	R1333N
1062.061	1.0	1063656	PROBE_END	n/a	5	1	FUDGE	n/a	FUDGE	FISH	8	[0, 0, 0]	-999	PAL1	3	R1333N
1063.061	0.012	1064656	REC_END	n/a	5	1	FUDGE	n/a	FUDGE	FISH	8	[0, 0, 0]	-999	PAL1	3	R1333N
1063.073	0.271	1064668	ORIENT_START	n/a	-999	-999	n/a	n/a	n/a	n/a	8	[0, 0, 0]	-999	PAL1	3	R1333N
1063.344	0.655	1064939	ORIENT_END	n/a	-999	-999	n/a	n/a	n/a	n/a	8	[0, 0, 0]	-999	PAL1	3	R1333N
1063.999	0.0	1065594	REC_START	n/a	6	2	KITE	SKY	SOUP	KITE	8	[0, 0, 0]	-999	PAL1	3	R1333N
1063.999	1.72	1065594	PROBE_START	n/a	6	2	KITE	SKY	SOUP	KITE	8	[0, 0, 0]	-999	PAL1	3	R1333N
1065.719	2.31	1067314	REC_EVENT	1720	6	2	KITE	SKY	SOUP	KITE	8	[0, 0, 0]	-999	PAL1	3	R1333N
1068.029	1.0	1069624	PROBE_END	n/a	6	2	KITE	n/a	SOUP	KITE	8	[0, 0, 0]	-999	PAL1	3	R1333N
1069.029	0.012	1070624	REC_END	n/a	6	2	KITE	n/a	SOUP	KITE	8	[0, 0, 0]	-999	PAL1	3	R1333N
1069.041	0.271	1070636	ORIENT_START	n/a	-999	-999	n/a	n/a	n/a	n/a	8	[0, 0, 0]	-999	PAL1	3	R1333N
1069.312	0.677	1070907	ORIENT_END	n/a	-999	-999	n/a	n/a	n/a	n/a	8	[0, 0, 0]	-999	PAL1	3	R1333N
1069.989	0.0	1071584	PROBE_START	n/a	3	3	SUIT	HEN	HEN	SUIT	8	[0, 0, 0]	-999	PAL1	3	R1333N
1069.989	2.145	1071584	REC_START	n/a	3	3	SUIT	HEN	HEN	SUIT	8	[0, 0, 0]	-999	PAL1	3	R1333N
1072.134	1.879	1073728	REC_EVENT	2145	3	3	SUIT	HEN	HEN	SUIT	8	[0, 0, 0]	-999	PAL1	3	R1333N
1074.013	1.0	1075607	PROBE_END	n/a	3	3	SUIT	n/a	HEN	SUIT	8	[0, 0, 0]	-999	PAL1	3	R1333N
1075.013	0.011	1076607	REC_END	n/a	3	3	SUIT	n/a	HEN	SUIT	8	[0, 0, 0]	-999	PAL1	3	R1333N
1075.024	0.272	1076618	ORIENT_START	n/a	-999	-999	n/a	n/a	n/a	n/a	8	[0, 0, 0]	-999	PAL1	3	R1333N
1075.296	0.58	1076890	ORIENT_END	n/a	-999	-999	n/a	n/a	n/a	n/a	8	[0, 0, 0]	-999	PAL1	3	R1333N
1075.876	0.0	1077470	REC_START	n/a	2	4	POND	HOLE	POND	MOLE	8	[0, 0, 0]	-999	PAL1	3	R1333N
1075.876	4.021	1077470	PROBE_START	n/a	2	4	POND	HOLE	POND	MOLE	8	[0, 0, 0]	-999	PAL1	3	R1333N
1079.897	1.0	1081491	PROBE_END	n/a	2	4	POND	n/a	POND	MOLE	8	[0, 0, 0]	-999	PAL1	3	R1333N
1080.897	0.011	1082491	REC_END	n/a	2	4	POND	n/a	POND	MOLE	8	[0, 0, 0]	-999	PAL1	3	R1333N
1080.908	0.162	1082502	ORIENT_START	n/a	-999	-999	n/a	n/a	n/a	n/a	8	[0, 0, 0]	-999	PAL1	3	R1333N
1081.07	0.111	1082664	REC_EVENT	5194	2	4	POND	HOLE	POND	MOLE	8	[0, 0, 0]	-999	PAL1	3	R1333N
1081.181	0.594	1082775	ORIENT_END	n/a	-999	-999	n/a	n/a	n/a	n/a	8	[0, 0, 0]	-999	PAL1	3	R1333N
1081.775	0.001	1083369	REC_START	n/a	1	5	STORE	STRAW	STORE	STRAW	8	[0, 0, 0]	-999	PAL1	3	R1333N
1081.776	1.981	1083370	PROBE_START	n/a	1	5	STORE	STRAW	STORE	STRAW	8	[0, 0, 0]	-999	PAL1	3	R1333N
1083.757	2.042	1085351	REC_EVENT	1981	1	5	STORE	STRAW	STORE	STRAW	8	[0, 0, 0]	-999	PAL1	3	R1333N
1085.799	1.001	1087393	PROBE_END	n/a	1	5	STORE	n/a	STORE	STRAW	8	[0, 0, 0]	-999	PAL1	3	R1333N
1086.8	0.012	1088394	REC_END	n/a	1	5	STORE	n/a	STORE	STRAW	8	[0, 0, 0]	-999	PAL1	3	R1333N
1086.812	0.27	1088406	ORIENT_START	n/a	-999	-999	n/a	n/a	n/a	n/a	8	[0, 0, 0]	-999	PAL1	3	R1333N
1087.082	0.615	1088676	ORIENT_END	n/a	-999	-999	n/a	n/a	n/a	n/a	8	[0, 0, 0]	-999	PAL1	3	R1333N
1087.697	0.0	1089291	PROBE_START	n/a	4	6	CLIFF	SINK	SINK	CLIFF	8	[0, 0, 0]	-999	PAL1	3	R1333N
1087.697	1.932	1089291	REC_START	n/a	4	6	CLIFF	SINK	SINK	CLIFF	8	[0, 0, 0]	-999	PAL1	3	R1333N
1089.629	2.105	1091223	REC_EVENT	1932	4	6	CLIFF	SINK	SINK	CLIFF	8	[0, 0, 0]	-999	PAL1	3	R1333N
1091.734	1.0	1093328	PROBE_END	n/a	4	6	CLIFF	n/a	SINK	CLIFF	8	[0, 0, 0]	-999	PAL1	3	R1333N
1092.734	0.011	1094328	REC_END	n/a	4	6	CLIFF	n/a	SINK	CLIFF	8	[0, 0, 0]	-999	PAL1	3	R1333N
1092.745	0.0	1094339	RETRIEVAL_END	n/a	-999	-999	n/a	n/a	n/a	n/a	8	[0, 0, 0]	-999	PAL1	3	R1333N
1092.745	0.023	1094339	TRIAL_END	n/a	-999	-999	n/a	n/a	n/a	n/a	8	[0, 0, 0]	-999	PAL1	3	R1333N
1092.768	0.0	1094362	TRIAL_START	n/a	-999	-999	n/a	n/a	n/a	n/a	8	[0, 0, 0]	-999	PAL1	3	R1333N
1092.768	0.0	1094362	TRIAL	n/a	-999	-999	n/a	n/a	n/a	n/a	9	[0, 0, 0]	-999	PAL1	3	R1333N
1092.768	0.933	1094362	WAITING_START	n/a	-999	-999	n/a	n/a	n/a	n/a	9	[0, 0, 0]	-999	PAL1	3	R1333N
1093.701	0.0	1095295	COUNTDOWN_START	n/a	-999	-999	n/a	n/a	n/a	n/a	9	[0, 0, 0]	-999	PAL1	3	R1333N
1093.701	10.428	1095295	WAITING_END	n/a	-999	-999	n/a	n/a	n/a	n/a	9	[0, 0, 0]	-999	PAL1	3	R1333N
1104.129	0.001	1105722	COUNTDOWN_END	n/a	-999	-999	n/a	n/a	n/a	n/a	9	[0, 0, 0]	-999	PAL1	3	R1333N
1104.13	0.722	1105723	ORIENT_START	n/a	-999	-999	n/a	n/a	n/a	n/a	9	[0, 0, 0]	-999	PAL1	3	R1333N
1104.852	0.001	1106445	ORIENT_END	n/a	-999	-999	n/a	n/a	n/a	n/a	9	[0, 0, 0]	-999	PAL1	3	R1333N
1104.853	1.073	1106446	ENCODING_START	n/a	-999	-999	n/a	n/a	n/a	n/a	9	[0, 0, 0]	-999	PAL1	3	R1333N
1105.926	4.026	1107519	STUDY_PAIR	n/a	1	-999	n/a	LAND	LAND	SKUNK	9	[0, 0, 0]	-999	PAL1	3	R1333N
1109.952	0.625	1111545	STUDY_PAIR_OFF	n/a	1	-999	n/a	LAND	LAND	SKUNK	9	[0, 0, 0]	-999	PAL1	3	R1333N
1110.577	4.027	1112170	STUDY_PAIR	n/a	2	-999	n/a	n/a	HEART	GRASS	9	[0, 0, 0]	-999	PAL1	3	R1333N
1114.604	0.677	1116197	STUDY_PAIR_OFF	n/a	2	-999	n/a	n/a	HEART	GRASS	9	[0, 0, 0]	-999	PAL1	3	R1333N
1115.281	4.039	1116874	STUDY_PAIR	n/a	3	-999	n/a	ZOO	SHEEP	ZOO	9	[0, 0, 0]	-999	PAL1	3	R1333N
1119.32	0.583	1120913	STUDY_PAIR_OFF	n/a	3	-999	n/a	ZOO	SHEEP	ZOO	9	[0, 0, 0]	-999	PAL1	3	R1333N
1119.903	4.035	1121496	STUDY_PAIR	n/a	4	-999	n/a	STORM	ROCK	STORM	9	[0, 0, 0]	-999	PAL1	3	R1333N
1123.938	0.579	1125531	STUDY_PAIR_OFF	n/a	4	-999	n/a	STORM	ROCK	STORM	9	[0, 0, 0]	-999	PAL1	3	R1333N
1124.517	4.039	1126110	STUDY_PAIR	n/a	5	-999	n/a	n/a	HOOF	DRUM	9	[0, 0, 0]	-999	PAL1	3	R1333N
1128.556	0.749	1130148	STUDY_PAIR_OFF	n/a	5	-999	n/a	n/a	HOOF	DRUM	9	[0, 0, 0]	-999	PAL1	3	R1333N
1129.305	4.034	1130897	STUDY_PAIR	n/a	6	-999	n/a	BOMB	BOMB	SALT	9	[0, 0, 0]	-999	PAL1	3	R1333N
1133.339	0.001	1134931	STUDY_PAIR_OFF	n/a	6	-999	n/a	BOMB	BOMB	SALT	9	[0, 0, 0]	-999	PAL1	3	R1333N
1133.34	0.0	1134932	ENCODING_END	n/a	-999	-999	n/a	n/a	n/a	n/a	9	[0, 0, 0]	-999	PAL1	3	R1333N
1133.34	0.0	1134932	MATH_START	n/a	-999	-999	n/a	n/a	n/a	n/a	9	[0, 0, 0]	-999	PAL1	3	R1333N
1133.34	0.017	1134932	START	n/a	-999	-999	n/a	n/a	n/a	n/a	9	[-999, -999, -999]	-999	PAL1	3	R1333N
1133.357	4.184	1134949	PROB	4155	-999	-999	n/a	n/a	n/a	n/a	9	[4, 5, 4]	13	PAL1	3	R1333N
1137.541	2.984	1139133	PROB	2947	-999	-999	n/a	n/a	n/a	n/a	9	[5, 3, 2]	10	PAL1	3	R1333N
1140.525	2.917	1142117	PROB	2891	-999	-999	n/a	n/a	n/a	n/a	9	[9, 6, 1]	16	PAL1	3	R1333N
1143.442	3.666	1145034	PROB	3630	-999	-999	n/a	n/a	n/a	n/a	9	[7, 7, 8]	22	PAL1	3	R1333N
1147.108	2.718	1148700	PROB	2683	-999	-999	n/a	n/a	n/a	n/a	9	[5, 9, 1]	15	PAL1	3	R1333N
1149.826	2.316	1151418	PROB	2285	-999	-999	n/a	n/a	n/a	n/a	9	[3, 3, 8]	14	PAL1	3	R1333N
1152.142	5.379	1153733	PROB	5379	-999	-999	n/a	n/a	n/a	n/a	9	[3, 6, 6]	15	PAL1	3	R1333N
1157.521	0.007	1159112	STOP	n/a	-999	-999	n/a	n/a	n/a	n/a	9	[-999, -999, -999]	-999	PAL1	3	R1333N
1157.528	0.564	1159119	MATH_END	n/a	-999	-999	n/a	n/a	n/a	n/a	9	[0, 0, 0]	-999	PAL1	3	R1333N
1158.092	0.001	1159683	RETRIEVAL_START	n/a	-999	-999	n/a	n/a	n/a	n/a	9	[0, 0, 0]	-999	PAL1	3	R1333N
1158.093	0.285	1159684	ORIENT_START	n/a	-999	-999	n/a	n/a	n/a	n/a	9	[0, 0, 0]	-999	PAL1	3	R1333N
1158.378	0.667	1159969	ORIENT_END	n/a	-999	-999	n/a	n/a	n/a	n/a	9	[0, 0, 0]	-999	PAL1	3	R1333N
1159.045	0.0	1160636	REC_START	n/a	5	1	HOOF	n/a	HOOF	DRUM	9	[0, 0, 0]	-999	PAL1	3	R1333N
1159.045	3.199	1160636	PROBE_START	n/a	5	1	HOOF	n/a	HOOF	DRUM	9	[0, 0, 0]	-999	PAL1	3	R1333N
1162.244	0.834	1163835	REC_EVENT	3199	5	1	HOOF	<>	HOOF	DRUM	9	[0, 0, 0]	-999	PAL1	3	R1333N
1163.078	0.999	1164669	PROBE_END	n/a	5	1	HOOF	n/a	HOOF	DRUM	9	[0, 0, 0]	-999	PAL1	3	R1333N
1164.077	0.012	1165668	REC_END	n/a	5	1	HOOF	n/a	HOOF	DRUM	9	[0, 0, 0]	-999	PAL1	3	R1333N
1164.089	0.273	1165680	ORIENT_START	n/a	-999	-999	n/a	n/a	n/a	n/a	9	[0, 0, 0]	-999	PAL1	3	R1333N
1164.362	0.552	1165953	ORIENT_END	n/a	-999	-999	n/a	n/a	n/a	n/a	9	[0, 0, 0]	-999	PAL1	3	R1333N
1164.914	0.001	1166505	REC_START	n/a	4	2	ROCK	STORM	ROCK	STORM	9	[0, 0, 0]	-999	PAL1	3	R1333N
1164.915	2.446	1166506	PROBE_START	n/a	4	2	ROCK	STORM	ROCK	STORM	9	[0, 0, 0]	-999	PAL1	3	R1333N
1167.361	1.584	1168952	REC_EVENT	2446	4	2	ROCK	STORM	ROCK	STORM	9	[0, 0, 0]	-999	PAL1	3	R1333N
1168.945	1.0	1170536	PROBE_END	n/a	4	2	ROCK	n/a	ROCK	STORM	9	[0, 0, 0]	-999	PAL1	3	R1333N
1169.945	0.011	1171536	REC_END	n/a	4	2	ROCK	n/a	ROCK	STORM	9	[0, 0, 0]	-999	PAL1	3	R1333N
1169.956	0.273	1171547	ORIENT_START	n/a	-999	-999	n/a	n/a	n/a	n/a	9	[0, 0, 0]	-999	PAL1	3	R1333N
1170.229	0.739	1171820	ORIENT_END	n/a	-999	-999	n/a	n/a	n/a	n/a	9	[0, 0, 0]	-999	PAL1	3	R1333N
1170.968	0.0	1172559	REC_START	n/a	1	3	SKUNK	LAND	LAND	SKUNK	9	[0, 0, 0]	-999	PAL1	3	R1333N
1170.968	3.446	1172559	PROBE_START	n/a	1	3	SKUNK	LAND	LAND	SKUNK	9	[0, 0, 0]	-999	PAL1	3	R1333N
1174.414	0.582	1176005	REC_EVENT	3446	1	3	SKUNK	LAND	LAND	SKUNK	9	[0, 0, 0]	-999	PAL1	3	R1333N
1174.996	1.001	1176587	PROBE_END	n/a	1	3	SKUNK	n/a	LAND	SKUNK	9	[0, 0, 0]	-999	PAL1	3	R1333N
1175.997	0.006	1177588	REC_END	n/a	1	3	SKUNK	n/a	LAND	SKUNK	9	[0, 0, 0]	-999	PAL1	3	R1333N
1176.003	0.277	1177594	ORIENT_START	n/a	-999	-999	n/a	n/a	n/a	n/a	9	[0, 0, 0]	-999	PAL1	3	R1333N
1176.28	0.517	1177871	ORIENT_END	n/a	-999	-999	n/a	n/a	n/a	n/a	9	[0, 0, 0]	-999	PAL1	3	R1333N
1176.797	0.0	1178388	REC_START	n/a	2	4	GRASS	n/a	HEART	GRASS	9	[0, 0, 0]	-999	PAL1	3	R1333N
1176.797	2.716	1178388	PROBE_START	n/a	2	4	GRASS	n/a	HEART	GRASS	9	[0, 0, 0]	-999	PAL1	3	R1333N
1179.513	1.318	1181103	REC_EVENT	2716	2	4	GRASS	<>	HEART	GRASS	9	[0, 0, 0]	-999	PAL1	3	R1333N
1180.831	1.0	1182421	PROBE_END	n/a	2	4	GRASS	n/a	HEART	GRASS	9	[0, 0, 0]	-999	PAL1	3	R1333N
1181.831	0.012	1183421	REC_END	n/a	2	4	GRASS	n/a	HEART	GRASS	9	[0, 0, 0]	-999	PAL1	3	R1333N
1181.843	0.271	1183433	ORIENT_START	n/a	-999	-999	n/a	n/a	n/a	n/a	9	[0, 0, 0]	-999	PAL1	3	R1333N
1182.114	0.685	1183704	ORIENT_END	n/a	-999	-999	n/a	n/a	n/a	n/a	9	[0, 0, 0]	-999	PAL1	3	R1333N
1182.799	0.0	1184389	PROBE_START	n/a	3	5	SHEEP	ZOO	SHEEP	ZOO	9	[0, 0, 0]	-999	PAL1	3	R1333N
1182.799	2.18	1184389	REC_START	n/a	3	5	SHEEP	ZOO	SHEEP	ZOO	9	[0, 0, 0]	-999	PAL1	3	R1333N
1184.979	1.854	1186569	REC_EVENT	2180	3	5	SHEEP	ZOO	SHEEP	ZOO	9	[0, 0, 0]	-999	PAL1	3	R1333N
1186.833	0.999	1188423	PROBE_END	n/a	3	5	SHEEP	n/a	SHEEP	ZOO	9	[0, 0, 0]	-999	PAL1	3	R1333N
1187.832	0.013	1189422	REC_END	n/a	3	5	SHEEP	n/a	SHEEP	ZOO	9	[0, 0, 0]	-999	PAL1	3	R1333N
1187.845	0.27	1189435	ORIENT_START	n/a	-999	-999	n/a	n/a	n/a	n/a	9	[0, 0, 0]	-999	PAL1	3	R1333N
1188.115	0.678	1189705	ORIENT_END	n/a	-999	-999	n/a	n/a	n/a	n/a	9	[0, 0, 0]	-999	PAL1	3	R1333N
1188.793	0.0	1190383	REC_START	n/a	6	6	SALT	BOMB	BOMB	SALT	9	[0, 0, 0]	-999	PAL1	3	R1333N
1188.793	2.13	1190383	PROBE_START	n/a	6	6	SALT	BOMB	BOMB	SALT	9	[0, 0, 0]	-999	PAL1	3	R1333N
1190.923	1.894	1192513	REC_EVENT	2130	6	6	SALT	BOMB	BOMB	SALT	9	[0, 0, 0]	-999	PAL1	3	R1333N
1192.817	1.0	1194407	PROBE_END	n/a	6	6	SALT	n/a	BOMB	SALT	9	[0, 0, 0]	-999	PAL1	3	R1333N
1193.817	0.012	1195407	REC_END	n/a	6	6	SALT	n/a	BOMB	SALT	9	[0, 0, 0]	-999	PAL1	3	R1333N
1193.829	0.0	1195419	RETRIEVAL_END	n/a	-999	-999	n/a	n/a	n/a	n/a	9	[0, 0, 0]	-999	PAL1	3	R1333N
1193.829	0.021	1195419	TRIAL_END	n/a	-999	-999	n/a	n/a	n/a	n/a	9	[0, 0, 0]	-999	PAL1	3	R1333N
1193.85	0.0	1195440	TRIAL_START	n/a	-999	-999	n/a	n/a	n/a	n/a	9	[0, 0, 0]	-999	PAL1	3	R1333N
1193.85	0.0	1195440	TRIAL	n/a	-999	-999	n/a	n/a	n/a	n/a	10	[0, 0, 0]	-999	PAL1	3	R1333N
1193.85	0.951	1195440	WAITING_START	n/a	-999	-999	n/a	n/a	n/a	n/a	10	[0, 0, 0]	-999	PAL1	3	R1333N
1194.801	0.0	1196391	WAITING_END	n/a	-999	-999	n/a	n/a	n/a	n/a	10	[0, 0, 0]	-999	PAL1	3	R1333N
1194.801	10.43	1196391	COUNTDOWN_START	n/a	-999	-999	n/a	n/a	n/a	n/a	10	[0, 0, 0]	-999	PAL1	3	R1333N
1205.231	0.0	1206820	COUNTDOWN_END	n/a	-999	-999	n/a	n/a	n/a	n/a	10	[0, 0, 0]	-999	PAL1	3	R1333N
1205.231	0.737	1206820	ORIENT_START	n/a	-999	-999	n/a	n/a	n/a	n/a	10	[0, 0, 0]	-999	PAL1	3	R1333N
1205.968	0.0	1207557	ENCODING_START	n/a	-999	-999	n/a	n/a	n/a	n/a	10	[0, 0, 0]	-999	PAL1	3	R1333N
1205.968	1.151	1207557	ORIENT_END	n/a	-999	-999	n/a	n/a	n/a	n/a	10	[0, 0, 0]	-999	PAL1	3	R1333N
1207.119	4.033	1208708	STUDY_PAIR	n/a	1	-999	n/a	n/a	LAMP	FOOD	10	[0, 0, 0]	-999	PAL1	3	R1333N
1211.152	0.632	1212741	STUDY_PAIR_OFF	n/a	1	-999	n/a	n/a	LAMP	FOOD	10	[0, 0, 0]	-999	PAL1	3	R1333N
1211.784	4.037	1213373	STUDY_PAIR	n/a	2	-999	n/a	HAT	FARM	HAT	10	[0, 0, 0]	-999	PAL1	3	R1333N
1215.821	0.651	1217410	STUDY_PAIR_OFF	n/a	2	-999	n/a	HAT	FARM	HAT	10	[0, 0, 0]	-999	PAL1	3	R1333N
1216.472	4.033	1218061	STUDY_PAIR	n/a	3	-999	n/a	n/a	BEAK	DRESS	10	[0, 0, 0]	-999	PAL1	3	R1333N
1220.505	0.592	1222094	STUDY_PAIR_OFF	n/a	3	-999	n/a	n/a	BEAK	DRESS	10	[0, 0, 0]	-999	PAL1	3	R1333N
1221.097	4.024	1222686	STUDY_PAIR	n/a	4	-999	n/a	n/a	JAIL	HOSE	10	[0, 0, 0]	-999	PAL1	3	R1333N
1225.121	0.627	1226710	STUDY_PAIR_OFF	n/a	4	-999	n/a	n/a	JAIL	HOSE	10	[0, 0, 0]	-999	PAL1	3	R1333N
1225.748	4.025	1227337	STUDY_PAIR	n/a	5	-999	n/a	SQUARE	SQUARE	BANK	10	[0, 0, 0]	-999	PAL1	3	R1333N
1229.773	0.556	1231362	STUDY_PAIR_OFF	n/a	5	-999	n/a	SQUARE	SQUARE	BANK	10	[0, 0, 0]	-999	PAL1	3	R1333N
1230.329	4.028	1231918	STUDY_PAIR	n/a	6	-999	n/a	OWL	EEL	OWL	10	[0, 0, 0]	-999	PAL1	3	R1333N
1234.357	0.001	1235945	STUDY_PAIR_OFF	n/a	6	-999	n/a	OWL	EEL	OWL	10	[0, 0, 0]	-999	PAL1	3	R1333N
1234.358	0.0	1235946	ENCODING_END	n/a	-999	-999	n/a	n/a	n/a	n/a	10	[0, 0, 0]	-999	PAL1	3	R1333N
1234.358	0.0	1235946	MATH_START	n/a	-999	-999	n/a	n/a	n/a	n/a	10	[0, 0, 0]	-999	PAL1	3	R1333N
1234.358	0.016	1235946	START	n/a	-999	-999	n/a	n/a	n/a	n/a	10	[-999, -999, -999]	-999	PAL1	3	R1333N
1234.374	3.916	1235962	PROB	3889	-999	-999	n/a	n/a	n/a	n/a	10	[7, 3, 5]	15	PAL1	3	R1333N
1238.29	2.617	1239878	PROB	2582	-999	-999	n/a	n/a	n/a	n/a	10	[2, 7, 3]	12	PAL1	3	R1333N
1240.907	4.051	1242495	PROB	4012	-999	-999	n/a	n/a	n/a	n/a	10	[7, 5, 2]	16	PAL1	3	R1333N
1244.958	2.918	1246546	PROB	2882	-999	-999	n/a	n/a	n/a	n/a	10	[7, 6, 4]	17	PAL1	3	R1333N
1247.876	4.667	1249464	PROB	4643	-999	-999	n/a	n/a	n/a	n/a	10	[7, 9, 4]	20	PAL1	3	R1333N
1252.543	4.937	1254131	PROB	4937	-999	-999	n/a	n/a	n/a	n/a	10	[9, 9, 8]	26	PAL1	3	R1333N
1257.48	0.014	1259068	STOP	n/a	-999	-999	n/a	n/a	n/a	n/a	10	[-999, -999, -999]	-999	PAL1	3	R1333N
1257.494	0.561	1259082	MATH_END	n/a	-999	-999	n/a	n/a	n/a	n/a	10	[0, 0, 0]	-999	PAL1	3	R1333N
1258.055	0.002	1259642	RETRIEVAL_START	n/a	-999	-999	n/a	n/a	n/a	n/a	10	[0, 0, 0]	-999	PAL1	3	R1333N
1258.057	0.27	1259644	ORIENT_START	n/a	-999	-999	n/a	n/a	n/a	n/a	10	[0, 0, 0]	-999	PAL1	3	R1333N
1258.327	0.658	1259914	ORIENT_END	n/a	-999	-999	n/a	n/a	n/a	n/a	10	[0, 0, 0]	-999	PAL1	3	R1333N
1258.985	0.0	1260572	PROBE_START	n/a	5	1	BANK	SQUARE	SQUARE	BANK	10	[0, 0, 0]	-999	PAL1	3	R1333N
1258.985	2.931	1260572	REC_START	n/a	5	1	BANK	SQUARE	SQUARE	BANK	10	[0, 0, 0]	-999	PAL1	3	R1333N
1261.916	1.095	1263503	REC_EVENT	2931	5	1	BANK	SQUARE	SQUARE	BANK	10	[0, 0, 0]	-999	PAL1	3	R1333N
1263.011	1.001	1264598	PROBE_END	n/a	5	1	BANK	n/a	SQUARE	BANK	10	[0, 0, 0]	-999	PAL1	3	R1333N
1264.012	0.011	1265599	REC_END	n/a	5	1	BANK	n/a	SQUARE	BANK	10	[0, 0, 0]	-999	PAL1	3	R1333N
1264.023	0.271	1265610	ORIENT_START	n/a	-999	-999	n/a	n/a	n/a	n/a	10	[0, 0, 0]	-999	PAL1	3	R1333N
1264.294	0.546	1265881	ORIENT_END	n/a	-999	-999	n/a	n/a	n/a	n/a	10	[0, 0, 0]	-999	PAL1	3	R1333N
1264.84	0.0	1266427	REC_START	n/a	6	2	EEL	OWL	EEL	OWL	10	[0, 0, 0]	-999	PAL1	3	R1333N
1264.84	1.487	1266427	PROBE_START	n/a	6	2	EEL	OWL	EEL	OWL	10	[0, 0, 0]	-999	PAL1	3	R1333N
1266.327	2.536	1267914	REC_EVENT	1487	6	2	EEL	OWL	EEL	OWL	10	[0, 0, 0]	-999	PAL1	3	R1333N
1268.863	1.0	1270450	PROBE_END	n/a	6	2	EEL	n/a	EEL	OWL	10	[0, 0, 0]	-999	PAL1	3	R1333N
1269.863	0.01	1271450	REC_END	n/a	6	2	EEL	n/a	EEL	OWL	10	[0, 0, 0]	-999	PAL1	3	R1333N
1269.873	0.272	1271460	ORIENT_START	n/a	-999	-999	n/a	n/a	n/a	n/a	10	[0, 0, 0]	-999	PAL1	3	R1333N
1270.145	0.74	1271732	ORIENT_END	n/a	-999	-999	n/a	n/a	n/a	n/a	10	[0, 0, 0]	-999	PAL1	3	R1333N
1270.885	0.0	1272472	REC_START	n/a	1	3	FOOD	n/a	LAMP	FOOD	10	[0, 0, 0]	-999	PAL1	3	R1333N
1270.885	3.869	1272472	PROBE_START	n/a	1	3	FOOD	n/a	LAMP	FOOD	10	[0, 0, 0]	-999	PAL1	3	R1333N
1274.754	0.142	1276341	REC_EVENT	3869	1	3	FOOD	<>	LAMP	FOOD	10	[0, 0, 0]	-999	PAL1	3	R1333N
1274.896	1.0	1276483	PROBE_END	n/a	1	3	FOOD	n/a	LAMP	FOOD	10	[0, 0, 0]	-999	PAL1	3	R1333N
1275.896	0.006	1277483	REC_END	n/a	1	3	FOOD	n/a	LAMP	FOOD	10	[0, 0, 0]	-999	PAL1	3	R1333N
1275.902	0.278	1277489	ORIENT_START	n/a	-999	-999	n/a	n/a	n/a	n/a	10	[0, 0, 0]	-999	PAL1	3	R1333N
1276.18	0.695	1277767	ORIENT_END	n/a	-999	-999	n/a	n/a	n/a	n/a	10	[0, 0, 0]	-999	PAL1	3	R1333N
1276.875	0.001	1278462	REC_START	n/a	4	4	HOSE	n/a	JAIL	HOSE	10	[0, 0, 0]	-999	PAL1	3	R1333N
1276.876	2.641	1278463	PROBE_START	n/a	4	4	HOSE	n/a	JAIL	HOSE	10	[0, 0, 0]	-999	PAL1	3	R1333N
1279.517	1.364	1281104	REC_EVENT	2641	4	4	HOSE	<>	JAIL	HOSE	10	[0, 0, 0]	-999	PAL1	3	R1333N
1280.881	1.011	1282468	PROBE_END	n/a	4	4	HOSE	n/a	JAIL	HOSE	10	[0, 0, 0]	-999	PAL1	3	R1333N
1281.892	0.01	1283479	REC_END	n/a	4	4	HOSE	n/a	JAIL	HOSE	10	[0, 0, 0]	-999	PAL1	3	R1333N
1281.902	0.279	1283489	ORIENT_START	n/a	-999	-999	n/a	n/a	n/a	n/a	10	[0, 0, 0]	-999	PAL1	3	R1333N
1282.181	0.706	1283768	ORIENT_END	n/a	-999	-999	n/a	n/a	n/a	n/a	10	[0, 0, 0]	-999	PAL1	3	R1333N
1282.887	0.001	1284474	REC_START	n/a	3	5	BEAK	n/a	BEAK	DRESS	10	[0, 0, 0]	-999	PAL1	3	R1333N
1282.888	3.013	1284475	PROBE_START	n/a	3	5	BEAK	n/a	BEAK	DRESS	10	[0, 0, 0]	-999	PAL1	3	R1333N
1285.901	1.014	1287487	REC_EVENT	3013	3	5	BEAK	<>	BEAK	DRESS	10	[0, 0, 0]	-999	PAL1	3	R1333N
1286.915	1.001	1288501	PROBE_END	n/a	3	5	BEAK	n/a	BEAK	DRESS	10	[0, 0, 0]	-999	PAL1	3	R1333N
1287.916	0.012	1289502	REC_END	n/a	3	5	BEAK	n/a	BEAK	DRESS	10	[0, 0, 0]	-999	PAL1	3	R1333N
1287.928	0.27	1289514	ORIENT_START	n/a	-999	-999	n/a	n/a	n/a	n/a	10	[0, 0, 0]	-999	PAL1	3	R1333N
1288.198	0.619	1289784	ORIENT_END	n/a	-999	-999	n/a	n/a	n/a	n/a	10	[0, 0, 0]	-999	PAL1	3	R1333N
1288.817	0.0	1290403	REC_START	n/a	2	6	FARM	HAT	FARM	HAT	10	[0, 0, 0]	-999	PAL1	3	R1333N
1288.817	3.111	1290403	PROBE_START	n/a	2	6	FARM	HAT	FARM	HAT	10	[0, 0, 0]	-999	PAL1	3	R1333N
1291.928	0.922	1293514	REC_EVENT	3111	2	6	FARM	HAT	FARM	HAT	10	[0, 0, 0]	-999	PAL1	3	R1333N
1292.85	1.001	1294436	PROBE_END	n/a	2	6	FARM	n/a	FARM	HAT	10	[0, 0, 0]	-999	PAL1	3	R1333N
1293.851	0.01	1295437	REC_END	n/a	2	6	FARM	n/a	FARM	HAT	10	[0, 0, 0]	-999	PAL1	3	R1333N
1293.861	0.001	1295447	RETRIEVAL_END	n/a	-999	-999	n/a	n/a	n/a	n/a	10	[0, 0, 0]	-999	PAL1	3	R1333N
1293.862	0.019	1295448	TRIAL_END	n/a	-999	-999	n/a	n/a	n/a	n/a	10	[0, 0, 0]	-999	PAL1	3	R1333N
1293.881	0.0	1295467	TRIAL	n/a	-999	-999	n/a	n/a	n/a	n/a	11	[0, 0, 0]	-999	PAL1	3	R1333N
1293.881	0.0	1295467	WAITING_START	n/a	-999	-999	n/a	n/a	n/a	n/a	11	[0, 0, 0]	-999	PAL1	3	R1333N
1293.881	7.269	1295467	TRIAL_START	n/a	-999	-999	n/a	n/a	n/a	n/a	10	[0, 0, 0]	-999	PAL1	3	R1333N
1301.15	0.001	1302736	WAITING_END	n/a	-999	-999	n/a	n/a	n/a	n/a	11	[0, 0, 0]	-999	PAL1	3	R1333N
1301.151	10.428	1302737	COUNTDOWN_START	n/a	-999	-999	n/a	n/a	n/a	n/a	11	[0, 0, 0]	-999	PAL1	3	R1333N
1311.579	0.0	1313164	COUNTDOWN_END	n/a	-999	-999	n/a	n/a	n/a	n/a	11	[0, 0, 0]	-999	PAL1	3	R1333N
1311.579	0.74	1313164	ORIENT_START	n/a	-999	-999	n/a	n/a	n/a	n/a	11	[0, 0, 0]	-999	PAL1	3	R1333N
1312.319	0.0	1313904	ORIENT_END	n/a	-999	-999	n/a	n/a	n/a	n/a	11	[0, 0, 0]	-999	PAL1	3	R1333N
1312.319	1.186	1313904	ENCODING_START	n/a	-999	-999	n/a	n/a	n/a	n/a	11	[0, 0, 0]	-999	PAL1	3	R1333N
1313.505	4.032	1315090	STUDY_PAIR	n/a	1	-999	n/a	BEACH	CLOWN	BEACH	11	[0, 0, 0]	-999	PAL1	3	R1333N
1317.537	0.549	1319122	STUDY_PAIR_OFF	n/a	1	-999	n/a	BEACH	CLOWN	BEACH	11	[0, 0, 0]	-999	PAL1	3	R1333N
1318.086	4.034	1319671	STUDY_PAIR	n/a	2	-999	n/a	TEA	SPONGE	TEA	11	[0, 0, 0]	-999	PAL1	3	R1333N
1322.12	0.553	1323705	STUDY_PAIR_OFF	n/a	2	-999	n/a	TEA	SPONGE	TEA	11	[0, 0, 0]	-999	PAL1	3	R1333N
1322.673	4.033	1324258	STUDY_PAIR	n/a	3	-999	n/a	PRINCE	PRINCE	NAIL	11	[0, 0, 0]	-999	PAL1	3	R1333N
1326.706	0.555	1328291	STUDY_PAIR_OFF	n/a	3	-999	n/a	PRINCE	PRINCE	NAIL	11	[0, 0, 0]	-999	PAL1	3	R1333N
1327.261	4.028	1328846	STUDY_PAIR	n/a	4	-999	n/a	POOL	FLEA	POOL	11	[0, 0, 0]	-999	PAL1	3	R1333N
1331.289	0.656	1332874	STUDY_PAIR_OFF	n/a	4	-999	n/a	POOL	FLEA	POOL	11	[0, 0, 0]	-999	PAL1	3	R1333N
1331.945	4.028	1333530	STUDY_PAIR	n/a	5	-999	n/a	n/a	FORK	CROW	11	[0, 0, 0]	-999	PAL1	3	R1333N
1335.973	0.508	1337558	STUDY_PAIR_OFF	n/a	5	-999	n/a	n/a	FORK	CROW	11	[0, 0, 0]	-999	PAL1	3	R1333N
1336.481	4.027	1338066	STUDY_PAIR	n/a	6	-999	n/a	n/a	TRAIN	BRICK	11	[0, 0, 0]	-999	PAL1	3	R1333N
1340.508	0.001	1342092	STUDY_PAIR_OFF	n/a	6	-999	n/a	n/a	TRAIN	BRICK	11	[0, 0, 0]	-999	PAL1	3	R1333N
1340.509	0.0	1342093	ENCODING_END	n/a	-999	-999	n/a	n/a	n/a	n/a	11	[0, 0, 0]	-999	PAL1	3	R1333N
1340.509	0.0	1342093	MATH_START	n/a	-999	-999	n/a	n/a	n/a	n/a	11	[0, 0, 0]	-999	PAL1	3	R1333N
1340.509	0.015	1342093	START	n/a	-999	-999	n/a	n/a	n/a	n/a	11	[-999, -999, -999]	-999	PAL1	3	R1333N
1340.524	5.085	1342108	PROB	5060	-999	-999	n/a	n/a	n/a	n/a	11	[5, 9, 5]	19	PAL1	3	R1333N
1345.609	6.666	1347193	PROB	6638	-999	-999	n/a	n/a	n/a	n/a	11	[6, 7, 7]	20	PAL1	3	R1333N
1352.275	4.335	1353859	PROB	4301	-999	-999	n/a	n/a	n/a	n/a	11	[9, 9, 8]	26	PAL1	3	R1333N
1356.61	4.062	1358194	PROB	4062	-999	-999	n/a	n/a	n/a	n/a	11	[3, 7, 6]	16	PAL1	3	R1333N
1360.672	0.006	1362256	STOP	n/a	-999	-999	n/a	n/a	n/a	n/a	11	[-999, -999, -999]	-999	PAL1	3	R1333N
1360.678	0.675	1362262	MATH_END	n/a	-999	-999	n/a	n/a	n/a	n/a	11	[0, 0, 0]	-999	PAL1	3	R1333N
1361.353	0.002	1362937	RETRIEVAL_START	n/a	-999	-999	n/a	n/a	n/a	n/a	11	[0, 0, 0]	-999	PAL1	3	R1333N
1361.355	0.273	1362939	ORIENT_START	n/a	-999	-999	n/a	n/a	n/a	n/a	11	[0, 0, 0]	-999	PAL1	3	R1333N
1361.628	0.528	1363212	ORIENT_END	n/a	-999	-999	n/a	n/a	n/a	n/a	11	[0, 0, 0]	-999	PAL1	3	R1333N
1362.156	0.001	1363740	REC_START	n/a	1	1	CLOWN	BEACH	CLOWN	BEACH	11	[0, 0, 0]	-999	PAL1	3	R1333N
1362.157	2.02	1363741	PROBE_START	n/a	1	1	CLOWN	BEACH	CLOWN	BEACH	11	[0, 0, 0]	-999	PAL1	3	R1333N
1364.177	2.018	1365761	REC_EVENT	2020	1	1	CLOWN	BEACH	CLOWN	BEACH	11	[0, 0, 0]	-999	PAL1	3	R1333N
1366.195	1.0	1367778	PROBE_END	n/a	1	1	CLOWN	n/a	CLOWN	BEACH	11	[0, 0, 0]	-999	PAL1	3	R1333N
1367.195	0.012	1368778	REC_END	n/a	1	1	CLOWN	n/a	CLOWN	BEACH	11	[0, 0, 0]	-999	PAL1	3	R1333N
1367.207	0.272	1368790	ORIENT_START	n/a	-999	-999	n/a	n/a	n/a	n/a	11	[0, 0, 0]	-999	PAL1	3	R1333N
1367.479	0.633	1369062	ORIENT_END	n/a	-999	-999	n/a	n/a	n/a	n/a	11	[0, 0, 0]	-999	PAL1	3	R1333N
1368.112	0.0	1369695	REC_START	n/a	4	2	FLEA	POOL	FLEA	POOL	11	[0, 0, 0]	-999	PAL1	3	R1333N
1368.112	2.453	1369695	PROBE_START	n/a	4	2	FLEA	POOL	FLEA	POOL	11	[0, 0, 0]	-999	PAL1	3	R1333N
1370.565	1.581	1372148	REC_EVENT	2453	4	2	FLEA	POOL	FLEA	POOL	11	[0, 0, 0]	-999	PAL1	3	R1333N
1372.146	0.999	1373729	PROBE_END	n/a	4	2	FLEA	n/a	FLEA	POOL	11	[0, 0, 0]	-999	PAL1	3	R1333N
1373.145	0.012	1374728	REC_END	n/a	4	2	FLEA	n/a	FLEA	POOL	11	[0, 0, 0]	-999	PAL1	3	R1333N
1373.157	0.273	1374740	ORIENT_START	n/a	-999	-999	n/a	n/a	n/a	n/a	11	[0, 0, 0]	-999	PAL1	3	R1333N
1373.43	0.622	1375013	ORIENT_END	n/a	-999	-999	n/a	n/a	n/a	n/a	11	[0, 0, 0]	-999	PAL1	3	R1333N
1374.052	0.0	1375635	REC_START	n/a	5	3	CROW	n/a	FORK	CROW	11	[0, 0, 0]	-999	PAL1	3	R1333N
1374.052	2.05	1375635	PROBE_START	n/a	5	3	CROW	n/a	FORK	CROW	11	[0, 0, 0]	-999	PAL1	3	R1333N
1376.102	1.978	1377685	REC_EVENT	2050	5	3	CROW	<>	FORK	CROW	11	[0, 0, 0]	-999	PAL1	3	R1333N
1378.08	1.0	1379663	PROBE_END	n/a	5	3	CROW	n/a	FORK	CROW	11	[0, 0, 0]	-999	PAL1	3	R1333N
1379.08	0.012	1380663	REC_END	n/a	5	3	CROW	n/a	FORK	CROW	11	[0, 0, 0]	-999	PAL1	3	R1333N
1379.092	0.272	1380675	ORIENT_START	n/a	-999	-999	n/a	n/a	n/a	n/a	11	[0, 0, 0]	-999	PAL1	3	R1333N
1379.364	0.579	1380947	ORIENT_END	n/a	-999	-999	n/a	n/a	n/a	n/a	11	[0, 0, 0]	-999	PAL1	3	R1333N
1379.943	0.001	1381526	REC_START	n/a	6	4	BRICK	n/a	TRAIN	BRICK	11	[0, 0, 0]	-999	PAL1	3	R1333N
1379.944	3.335	1381527	PROBE_START	n/a	6	4	BRICK	n/a	TRAIN	BRICK	11	[0, 0, 0]	-999	PAL1	3	R1333N
1383.279	0.702	1384862	REC_EVENT	3335	6	4	BRICK	<>	TRAIN	BRICK	11	[0, 0, 0]	-999	PAL1	3	R1333N
1383.981	1.0	1385564	PROBE_END	n/a	6	4	BRICK	n/a	TRAIN	BRICK	11	[0, 0, 0]	-999	PAL1	3	R1333N
1384.981	0.012	1386564	REC_END	n/a	6	4	BRICK	n/a	TRAIN	BRICK	11	[0, 0, 0]	-999	PAL1	3	R1333N
1384.993	0.271	1386576	ORIENT_START	n/a	-999	-999	n/a	n/a	n/a	n/a	11	[0, 0, 0]	-999	PAL1	3	R1333N
1385.264	0.554	1386847	ORIENT_END	n/a	-999	-999	n/a	n/a	n/a	n/a	11	[0, 0, 0]	-999	PAL1	3	R1333N
1385.818	0.0	1387401	REC_START	n/a	3	5	NAIL	PRINCE	PRINCE	NAIL	11	[0, 0, 0]	-999	PAL1	3	R1333N
1385.818	1.639	1387401	PROBE_START	n/a	3	5	NAIL	PRINCE	PRINCE	NAIL	11	[0, 0, 0]	-999	PAL1	3	R1333N
1387.457	2.392	1389040	REC_EVENT	1639	3	5	NAIL	PRINCE	PRINCE	NAIL	11	[0, 0, 0]	-999	PAL1	3	R1333N
1389.849	1.001	1391432	PROBE_END	n/a	3	5	NAIL	n/a	PRINCE	NAIL	11	[0, 0, 0]	-999	PAL1	3	R1333N
1390.85	0.012	1392432	REC_END	n/a	3	5	NAIL	n/a	PRINCE	NAIL	11	[0, 0, 0]	-999	PAL1	3	R1333N
1390.862	0.27	1392444	ORIENT_START	n/a	-999	-999	n/a	n/a	n/a	n/a	11	[0, 0, 0]	-999	PAL1	3	R1333N
1391.132	0.544	1392714	ORIENT_END	n/a	-999	-999	n/a	n/a	n/a	n/a	11	[0, 0, 0]	-999	PAL1	3	R1333N
1391.676	0.0	1393258	REC_START	n/a	2	6	SPONGE	TEA	SPONGE	TEA	11	[0, 0, 0]	-999	PAL1	3	R1333N
1391.676	1.753	1393258	PROBE_START	n/a	2	6	SPONGE	TEA	SPONGE	TEA	11	[0, 0, 0]	-999	PAL1	3	R1333N
1393.429	2.271	1395011	REC_EVENT	1753	2	6	SPONGE	TEA	SPONGE	TEA	11	[0, 0, 0]	-999	PAL1	3	R1333N
1395.7	1.0	1397282	PROBE_END	n/a	2	6	SPONGE	n/a	SPONGE	TEA	11	[0, 0, 0]	-999	PAL1	3	R1333N
1396.7	0.011	1398282	REC_END	n/a	2	6	SPONGE	n/a	SPONGE	TEA	11	[0, 0, 0]	-999	PAL1	3	R1333N
1396.711	0.001	1398293	RETRIEVAL_END	n/a	-999	-999	n/a	n/a	n/a	n/a	11	[0, 0, 0]	-999	PAL1	3	R1333N
1396.712	0.023	1398294	TRIAL_END	n/a	-999	-999	n/a	n/a	n/a	n/a	11	[0, 0, 0]	-999	PAL1	3	R1333N
1396.735	0.0	1398317	TRIAL_START	n/a	-999	-999	n/a	n/a	n/a	n/a	11	[0, 0, 0]	-999	PAL1	3	R1333N
1396.735	0.0	1398317	TRIAL	n/a	-999	-999	n/a	n/a	n/a	n/a	12	[0, 0, 0]	-999	PAL1	3	R1333N
1396.735	1.083	1398317	WAITING_START	n/a	-999	-999	n/a	n/a	n/a	n/a	12	[0, 0, 0]	-999	PAL1	3	R1333N
1397.818	0.0	1399400	WAITING_END	n/a	-999	-999	n/a	n/a	n/a	n/a	12	[0, 0, 0]	-999	PAL1	3	R1333N
1397.818	10.429	1399400	COUNTDOWN_START	n/a	-999	-999	n/a	n/a	n/a	n/a	12	[0, 0, 0]	-999	PAL1	3	R1333N
1408.247	0.0	1409829	ORIENT_START	n/a	-999	-999	n/a	n/a	n/a	n/a	12	[0, 0, 0]	-999	PAL1	3	R1333N
1408.247	0.654	1409829	COUNTDOWN_END	n/a	-999	-999	n/a	n/a	n/a	n/a	12	[0, 0, 0]	-999	PAL1	3	R1333N
1408.901	0.001	1410483	ORIENT_END	n/a	-999	-999	n/a	n/a	n/a	n/a	12	[0, 0, 0]	-999	PAL1	3	R1333N
1408.902	1.13	1410484	ENCODING_START	n/a	-999	-999	n/a	n/a	n/a	n/a	12	[0, 0, 0]	-999	PAL1	3	R1333N
1410.032	4.037	1411614	STUDY_PAIR	n/a	1	-999	n/a	DART	ROSE	DART	12	[0, 0, 0]	-999	PAL1	3	R1333N
1414.069	0.547	1415651	STUDY_PAIR_OFF	n/a	1	-999	n/a	DART	ROSE	DART	12	[0, 0, 0]	-999	PAL1	3	R1333N
1414.616	4.038	1416198	STUDY_PAIR	n/a	2	-999	n/a	PALM	PALM	TOY	12	[0, 0, 0]	-999	PAL1	3	R1333N
1418.654	0.749	1420235	STUDY_PAIR_OFF	n/a	2	-999	n/a	PALM	PALM	TOY	12	[0, 0, 0]	-999	PAL1	3	R1333N
1419.403	4.035	1420984	STUDY_PAIR	n/a	3	-999	n/a	n/a	BEAN	TOOL	12	[0, 0, 0]	-999	PAL1	3	R1333N
1423.438	0.593	1425019	STUDY_PAIR_OFF	n/a	3	-999	n/a	n/a	BEAN	TOOL	12	[0, 0, 0]	-999	PAL1	3	R1333N
1424.031	4.04	1425612	STUDY_PAIR	n/a	4	-999	n/a	GLOVE	EAR	GLOVE	12	[0, 0, 0]	-999	PAL1	3	R1333N
1428.071	0.649	1429652	STUDY_PAIR_OFF	n/a	4	-999	n/a	GLOVE	EAR	GLOVE	12	[0, 0, 0]	-999	PAL1	3	R1333N
1428.72	4.037	1430301	STUDY_PAIR	n/a	5	-999	n/a	PEACH	PEACH	CAR	12	[0, 0, 0]	-999	PAL1	3	R1333N
1432.757	0.519	1434338	STUDY_PAIR_OFF	n/a	5	-999	n/a	PEACH	PEACH	CAR	12	[0, 0, 0]	-999	PAL1	3	R1333N
1433.276	4.03	1434857	STUDY_PAIR	n/a	6	-999	n/a	n/a	MOUSE	KEY	12	[0, 0, 0]	-999	PAL1	3	R1333N
1437.306	0.001	1438887	STUDY_PAIR_OFF	n/a	6	-999	n/a	n/a	MOUSE	KEY	12	[0, 0, 0]	-999	PAL1	3	R1333N
1437.307	0.0	1438888	ENCODING_END	n/a	-999	-999	n/a	n/a	n/a	n/a	12	[0, 0, 0]	-999	PAL1	3	R1333N
1437.307	0.001	1438888	MATH_START	n/a	-999	-999	n/a	n/a	n/a	n/a	12	[0, 0, 0]	-999	PAL1	3	R1333N
1437.308	0.015	1438889	START	n/a	-999	-999	n/a	n/a	n/a	n/a	12	[-999, -999, -999]	-999	PAL1	3	R1333N
1437.323	5.934	1438904	PROB	5908	-999	-999	n/a	n/a	n/a	n/a	12	[1, 7, 5]	13	PAL1	3	R1333N
1443.257	3.851	1444838	PROB	3822	-999	-999	n/a	n/a	n/a	n/a	12	[4, 8, 7]	19	PAL1	3	R1333N
1447.108	4.451	1448688	PROB	4420	-999	-999	n/a	n/a	n/a	n/a	12	[7, 1, 8]	16	PAL1	3	R1333N
1451.559	3.184	1453139	PROB	3161	-999	-999	n/a	n/a	n/a	n/a	12	[7, 3, 4]	14	PAL1	3	R1333N
1454.743	2.35	1456323	PROB	2312	-999	-999	n/a	n/a	n/a	n/a	12	[7, 3, 2]	12	PAL1	3	R1333N
1457.093	4.859	1458673	PROB	4859	-999	-999	n/a	n/a	n/a	n/a	12	[8, 5, 2]	15	PAL1	3	R1333N
1461.952	0.008	1463532	STOP	n/a	-999	-999	n/a	n/a	n/a	n/a	12	[-999, -999, -999]	-999	PAL1	3	R1333N
1461.96	0.649	1463540	MATH_END	n/a	-999	-999	n/a	n/a	n/a	n/a	12	[0, 0, 0]	-999	PAL1	3	R1333N
1462.609	0.001	1464189	RETRIEVAL_START	n/a	-999	-999	n/a	n/a	n/a	n/a	12	[0, 0, 0]	-999	PAL1	3	R1333N
1462.61	0.285	1464190	ORIENT_START	n/a	-999	-999	n/a	n/a	n/a	n/a	12	[0, 0, 0]	-999	PAL1	3	R1333N
1462.895	0.686	1464475	ORIENT_END	n/a	-999	-999	n/a	n/a	n/a	n/a	12	[0, 0, 0]	-999	PAL1	3	R1333N
1463.581	0.001	1465161	REC_START	n/a	3	1	BEAN	n/a	BEAN	TOOL	12	[0, 0, 0]	-999	PAL1	3	R1333N
1463.582	1.822	1465162	PROBE_START	n/a	3	1	BEAN	n/a	BEAN	TOOL	12	[0, 0, 0]	-999	PAL1	3	R1333N
1465.404	1.141	1466984	REC_EVENT	1822	3	1	BEAN	<>	BEAN	TOOL	12	[0, 0, 0]	-999	PAL1	3	R1333N
1466.545	1.067	1468125	REC_EVENT	2963	3	1	BEAN	<>	BEAN	TOOL	12	[0, 0, 0]	-999	PAL1	3	R1333N
1467.612	1.0	1469192	PROBE_END	n/a	3	1	BEAN	n/a	BEAN	TOOL	12	[0, 0, 0]	-999	PAL1	3	R1333N
1468.612	0.011	1470192	REC_END	n/a	3	1	BEAN	n/a	BEAN	TOOL	12	[0, 0, 0]	-999	PAL1	3	R1333N
1468.623	0.272	1470203	ORIENT_START	n/a	-999	-999	n/a	n/a	n/a	n/a	12	[0, 0, 0]	-999	PAL1	3	R1333N
1468.895	0.727	1470475	ORIENT_END	n/a	-999	-999	n/a	n/a	n/a	n/a	12	[0, 0, 0]	-999	PAL1	3	R1333N
1469.622	0.001	1471202	REC_START	n/a	4	2	EAR	GLOVE	EAR	GLOVE	12	[0, 0, 0]	-999	PAL1	3	R1333N
1469.623	2.067	1471203	PROBE_START	n/a	4	2	EAR	GLOVE	EAR	GLOVE	12	[0, 0, 0]	-999	PAL1	3	R1333N
1471.69	1.957	1473269	REC_EVENT	2067	4	2	EAR	GLOVE	EAR	GLOVE	12	[0, 0, 0]	-999	PAL1	3	R1333N
1473.647	0.999	1475226	PROBE_END	n/a	4	2	EAR	n/a	EAR	GLOVE	12	[0, 0, 0]	-999	PAL1	3	R1333N
1474.646	0.012	1476225	REC_END	n/a	4	2	EAR	n/a	EAR	GLOVE	12	[0, 0, 0]	-999	PAL1	3	R1333N
1474.658	0.271	1476237	ORIENT_START	n/a	-999	-999	n/a	n/a	n/a	n/a	12	[0, 0, 0]	-999	PAL1	3	R1333N
1474.929	0.544	1476508	ORIENT_END	n/a	-999	-999	n/a	n/a	n/a	n/a	12	[0, 0, 0]	-999	PAL1	3	R1333N
1475.473	0.0	1477052	REC_START	n/a	5	3	CAR	PEACH	PEACH	CAR	12	[0, 0, 0]	-999	PAL1	3	R1333N
1475.473	2.167	1477052	PROBE_START	n/a	5	3	CAR	PEACH	PEACH	CAR	12	[0, 0, 0]	-999	PAL1	3	R1333N
1477.64	1.858	1479219	REC_EVENT	2167	5	3	CAR	PEACH	PEACH	CAR	12	[0, 0, 0]	-999	PAL1	3	R1333N
1479.498	1.0	1481077	PROBE_END	n/a	5	3	CAR	n/a	PEACH	CAR	12	[0, 0, 0]	-999	PAL1	3	R1333N
1480.498	0.012	1482077	REC_END	n/a	5	3	CAR	n/a	PEACH	CAR	12	[0, 0, 0]	-999	PAL1	3	R1333N
1480.51	0.271	1482089	ORIENT_START	n/a	-999	-999	n/a	n/a	n/a	n/a	12	[0, 0, 0]	-999	PAL1	3	R1333N
1480.781	0.587	1482360	ORIENT_END	n/a	-999	-999	n/a	n/a	n/a	n/a	12	[0, 0, 0]	-999	PAL1	3	R1333N
1481.368	0.0	1482947	REC_START	n/a	6	4	KEY	n/a	MOUSE	KEY	12	[0, 0, 0]	-999	PAL1	3	R1333N
1481.368	4.031	1482947	PROBE_START	n/a	6	4	KEY	n/a	MOUSE	KEY	12	[0, 0, 0]	-999	PAL1	3	R1333N
1485.399	0.909	1486978	PROBE_END	n/a	6	4	KEY	n/a	MOUSE	KEY	12	[0, 0, 0]	-999	PAL1	3	R1333N
1486.308	0.091	1487887	REC_EVENT	4940	6	4	KEY	<>	MOUSE	KEY	12	[0, 0, 0]	-999	PAL1	3	R1333N
1486.399	0.01	1487978	REC_END	n/a	6	4	KEY	n/a	MOUSE	KEY	12	[0, 0, 0]	-999	PAL1	3	R1333N
1486.409	0.273	1487988	ORIENT_START	n/a	-999	-999	n/a	n/a	n/a	n/a	12	[0, 0, 0]	-999	PAL1	3	R1333N
1486.682	0.721	1488261	ORIENT_END	n/a	-999	-999	n/a	n/a	n/a	n/a	12	[0, 0, 0]	-999	PAL1	3	R1333N
1487.403	0.0	1488982	REC_START	n/a	1	5	ROSE	DART	ROSE	DART	12	[0, 0, 0]	-999	PAL1	3	R1333N
1487.403	3.679	1488982	PROBE_START	n/a	1	5	ROSE	DART	ROSE	DART	12	[0, 0, 0]	-999	PAL1	3	R1333N
1491.082	0.351	1492661	REC_EVENT	3679	1	5	ROSE	DART	ROSE	DART	12	[0, 0, 0]	-999	PAL1	3	R1333N
1491.433	1.001	1493012	PROBE_END	n/a	1	5	ROSE	n/a	ROSE	DART	12	[0, 0, 0]	-999	PAL1	3	R1333N
1492.434	0.011	1494013	REC_END	n/a	1	5	ROSE	n/a	ROSE	DART	12	[0, 0, 0]	-999	PAL1	3	R1333N
1492.445	0.271	1494024	ORIENT_START	n/a	-999	-999	n/a	n/a	n/a	n/a	12	[0, 0, 0]	-999	PAL1	3	R1333N
1492.716	0.628	1494295	ORIENT_END	n/a	-999	-999	n/a	n/a	n/a	n/a	12	[0, 0, 0]	-999	PAL1	3	R1333N
1493.344	0.0	1494923	REC_START	n/a	2	6	TOY	PALM	PALM	TOY	12	[0, 0, 0]	-999	PAL1	3	R1333N
1493.344	3.57	1494923	PROBE_START	n/a	2	6	TOY	PALM	PALM	TOY	12	[0, 0, 0]	-999	PAL1	3	R1333N
1496.914	0.453	1498493	REC_EVENT	3570	2	6	TOY	PALM	PALM	TOY	12	[0, 0, 0]	-999	PAL1	3	R1333N
1497.367	1.001	1498945	PROBE_END	n/a	2	6	TOY	n/a	PALM	TOY	12	[0, 0, 0]	-999	PAL1	3	R1333N
1498.368	0.012	1499946	REC_END	n/a	2	6	TOY	n/a	PALM	TOY	12	[0, 0, 0]	-999	PAL1	3	R1333N
1498.38	0.0	1499958	TRIAL_END	n/a	-999	-999	n/a	n/a	n/a	n/a	12	[0, 0, 0]	-999	PAL1	3	R1333N
1498.38	0.022	1499958	RETRIEVAL_END	n/a	-999	-999	n/a	n/a	n/a	n/a	12	[0, 0, 0]	-999	PAL1	3	R1333N
1498.402	0.001	1499980	TRIAL_START	n/a	-999	-999	n/a	n/a	n/a	n/a	12	[0, 0, 0]	-999	PAL1	3	R1333N
1498.403	0.0	1499981	TRIAL	n/a	-999	-999	n/a	n/a	n/a	n/a	13	[0, 0, 0]	-999	PAL1	3	R1333N
1498.403	2.298	1499981	WAITING_START	n/a	-999	-999	n/a	n/a	n/a	n/a	13	[0, 0, 0]	-999	PAL1	3	R1333N
1500.701	0.001	1502279	WAITING_END	n/a	-999	-999	n/a	n/a	n/a	n/a	13	[0, 0, 0]	-999	PAL1	3	R1333N
1500.702	10.429	1502280	COUNTDOWN_START	n/a	-999	-999	n/a	n/a	n/a	n/a	13	[0, 0, 0]	-999	PAL1	3	R1333N
1511.131	0.0	1512709	COUNTDOWN_END	n/a	-999	-999	n/a	n/a	n/a	n/a	13	[0, 0, 0]	-999	PAL1	3	R1333N
1511.131	0.589	1512709	ORIENT_START	n/a	-999	-999	n/a	n/a	n/a	n/a	13	[0, 0, 0]	-999	PAL1	3	R1333N
1511.72	0.0	1513298	ORIENT_END	n/a	-999	-999	n/a	n/a	n/a	n/a	13	[0, 0, 0]	-999	PAL1	3	R1333N
1511.72	1.127	1513298	ENCODING_START	n/a	-999	-999	n/a	n/a	n/a	n/a	13	[0, 0, 0]	-999	PAL1	3	R1333N
1512.847	4.04	1514425	STUDY_PAIR	n/a	1	-999	n/a	STICK	STICK	CHEEK	13	[0, 0, 0]	-999	PAL1	3	R1333N
1516.887	0.561	1518465	STUDY_PAIR_OFF	n/a	1	-999	n/a	STICK	STICK	CHEEK	13	[0, 0, 0]	-999	PAL1	3	R1333N
1517.448	4.023	1519026	STUDY_PAIR	n/a	2	-999	n/a	MOON	CAT	MOON	13	[0, 0, 0]	-999	PAL1	3	R1333N
1521.471	0.508	1523049	STUDY_PAIR_OFF	n/a	2	-999	n/a	MOON	CAT	MOON	13	[0, 0, 0]	-999	PAL1	3	R1333N
1521.979	4.025	1523557	STUDY_PAIR	n/a	3	-999	n/a	GEESE	FROG	GEESE	13	[0, 0, 0]	-999	PAL1	3	R1333N
1526.004	0.517	1527581	STUDY_PAIR_OFF	n/a	3	-999	n/a	GEESE	FROG	GEESE	13	[0, 0, 0]	-999	PAL1	3	R1333N
1526.521	4.035	1528098	STUDY_PAIR	n/a	4	-999	n/a	n/a	SHIP	TOOTH	13	[0, 0, 0]	-999	PAL1	3	R1333N
1530.556	0.691	1532133	STUDY_PAIR_OFF	n/a	4	-999	n/a	n/a	SHIP	TOOTH	13	[0, 0, 0]	-999	PAL1	3	R1333N
1531.247	4.026	1532824	STUDY_PAIR	n/a	5	-999	n/a	n/a	ELF	WHEEL	13	[0, 0, 0]	-999	PAL1	3	R1333N
1535.273	0.529	1536850	STUDY_PAIR_OFF	n/a	5	-999	n/a	n/a	ELF	WHEEL	13	[0, 0, 0]	-999	PAL1	3	R1333N
1535.802	4.022	1537379	STUDY_PAIR	n/a	6	-999	n/a	n/a	FOX	WAVE	13	[0, 0, 0]	-999	PAL1	3	R1333N
1539.824	0.001	1541401	STUDY_PAIR_OFF	n/a	6	-999	n/a	n/a	FOX	WAVE	13	[0, 0, 0]	-999	PAL1	3	R1333N
1539.825	0.0	1541402	ENCODING_END	n/a	-999	-999	n/a	n/a	n/a	n/a	13	[0, 0, 0]	-999	PAL1	3	R1333N
1539.825	0.0	1541402	MATH_START	n/a	-999	-999	n/a	n/a	n/a	n/a	13	[0, 0, 0]	-999	PAL1	3	R1333N
1539.825	0.016	1541402	START	n/a	-999	-999	n/a	n/a	n/a	n/a	13	[-999, -999, -999]	-999	PAL1	3	R1333N
1539.841	3.249	1541418	PROB	3214	-999	-999	n/a	n/a	n/a	n/a	13	[2, 3, 6]	11	PAL1	3	R1333N
1543.09	4.018	1544667	PROB	3981	-999	-999	n/a	n/a	n/a	n/a	13	[5, 3, 8]	16	PAL1	3	R1333N
1547.108	3.2	1548685	PROB	3171	-999	-999	n/a	n/a	n/a	n/a	13	[6, 6, 3]	15	PAL1	3	R1333N
1550.308	3.102	1551885	PROB	3068	-999	-999	n/a	n/a	n/a	n/a	13	[9, 5, 3]	17	PAL1	3	R1333N
1553.41	2.682	1554986	PROB	2645	-999	-999	n/a	n/a	n/a	n/a	13	[5, 4, 3]	12	PAL1	3	R1333N
1556.092	2.802	1557668	PROB	2771	-999	-999	n/a	n/a	n/a	n/a	13	[7, 9, 5]	21	PAL1	3	R1333N
1558.894	4.914	1560470	PROB	4914	-999	-999	n/a	n/a	n/a	n/a	13	[1, 8, 7]	16	PAL1	3	R1333N
1563.808	0.02	1565384	STOP	n/a	-999	-999	n/a	n/a	n/a	n/a	13	[-999, -999, -999]	-999	PAL1	3	R1333N
1563.828	0.682	1565404	MATH_END	n/a	-999	-999	n/a	n/a	n/a	n/a	13	[0, 0, 0]	-999	PAL1	3	R1333N
1564.51	0.002	1566086	RETRIEVAL_START	n/a	-999	-999	n/a	n/a	n/a	n/a	13	[0, 0, 0]	-999	PAL1	3	R1333N
1564.512	0.283	1566088	ORIENT_START	n/a	-999	-999	n/a	n/a	n/a	n/a	13	[0, 0, 0]	-999	PAL1	3	R1333N
1564.795	0.694	1566371	ORIENT_END	n/a	-999	-999	n/a	n/a	n/a	n/a	13	[0, 0, 0]	-999	PAL1	3	R1333N
1565.489	0.001	1567065	REC_START	n/a	5	1	WHEEL	n/a	ELF	WHEEL	13	[0, 0, 0]	-999	PAL1	3	R1333N
1565.49	2.298	1567066	PROBE_START	n/a	5	1	WHEEL	n/a	ELF	WHEEL	13	[0, 0, 0]	-999	PAL1	3	R1333N
1567.788	1.725	1569364	REC_EVENT	2298	5	1	WHEEL	<>	ELF	WHEEL	13	[0, 0, 0]	-999	PAL1	3	R1333N
1569.513	0.999	1571089	PROBE_END	n/a	5	1	WHEEL	n/a	ELF	WHEEL	13	[0, 0, 0]	-999	PAL1	3	R1333N
1570.512	0.013	1572088	REC_END	n/a	5	1	WHEEL	n/a	ELF	WHEEL	13	[0, 0, 0]	-999	PAL1	3	R1333N
1570.525	0.271	1572101	ORIENT_START	n/a	-999	-999	n/a	n/a	n/a	n/a	13	[0, 0, 0]	-999	PAL1	3	R1333N
1570.796	0.657	1572372	ORIENT_END	n/a	-999	-999	n/a	n/a	n/a	n/a	13	[0, 0, 0]	-999	PAL1	3	R1333N
1571.453	0.0	1573029	REC_START	n/a	6	2	WAVE	n/a	FOX	WAVE	13	[0, 0, 0]	-999	PAL1	3	R1333N
1571.453	2.908	1573029	PROBE_START	n/a	6	2	WAVE	n/a	FOX	WAVE	13	[0, 0, 0]	-999	PAL1	3	R1333N
1574.361	1.119	1575937	REC_EVENT	2908	6	2	WAVE	<>	FOX	WAVE	13	[0, 0, 0]	-999	PAL1	3	R1333N
1575.48	1.0	1577056	PROBE_END	n/a	6	2	WAVE	n/a	FOX	WAVE	13	[0, 0, 0]	-999	PAL1	3	R1333N
1576.48	0.011	1578056	REC_END	n/a	6	2	WAVE	n/a	FOX	WAVE	13	[0, 0, 0]	-999	PAL1	3	R1333N
1576.491	0.273	1578067	ORIENT_START	n/a	-999	-999	n/a	n/a	n/a	n/a	13	[0, 0, 0]	-999	PAL1	3	R1333N
1576.764	0.641	1578340	ORIENT_END	n/a	-999	-999	n/a	n/a	n/a	n/a	13	[0, 0, 0]	-999	PAL1	3	R1333N
1577.405	0.0	1578980	REC_START	n/a	3	3	FROG	GEESE	FROG	GEESE	13	[0, 0, 0]	-999	PAL1	3	R1333N
1577.405	3.559	1578980	PROBE_START	n/a	3	3	FROG	GEESE	FROG	GEESE	13	[0, 0, 0]	-999	PAL1	3	R1333N
1580.964	0.467	1582539	REC_EVENT	3559	3	3	FROG	GEESE	FROG	GEESE	13	[0, 0, 0]	-999	PAL1	3	R1333N
1581.431	1.0	1583006	PROBE_END	n/a	3	3	FROG	n/a	FROG	GEESE	13	[0, 0, 0]	-999	PAL1	3	R1333N
1582.431	0.011	1584006	REC_END	n/a	3	3	FROG	n/a	FROG	GEESE	13	[0, 0, 0]	-999	PAL1	3	R1333N
1582.442	0.273	1584017	ORIENT_START	n/a	-999	-999	n/a	n/a	n/a	n/a	13	[0, 0, 0]	-999	PAL1	3	R1333N
1582.715	0.604	1584290	ORIENT_END	n/a	-999	-999	n/a	n/a	n/a	n/a	13	[0, 0, 0]	-999	PAL1	3	R1333N
1583.319	0.001	1584894	REC_START	n/a	4	4	SHIP	n/a	SHIP	TOOTH	13	[0, 0, 0]	-999	PAL1	3	R1333N
1583.32	3.622	1584895	PROBE_START	n/a	4	4	SHIP	n/a	SHIP	TOOTH	13	[0, 0, 0]	-999	PAL1	3	R1333N
1586.942	0.407	1588517	REC_EVENT	3622	4	4	SHIP	<>	SHIP	TOOTH	13	[0, 0, 0]	-999	PAL1	3	R1333N
1587.349	0.999	1588924	PROBE_END	n/a	4	4	SHIP	n/a	SHIP	TOOTH	13	[0, 0, 0]	-999	PAL1	3	R1333N
