onset	duration	sample	trial_type	response_time	serialpos	probepos	probe_word	resp_word	study_1	study_2	list	test	answer	experiment	session	subject
0.0	0.0	206710	INSTRUCT_VIDEO_ON	n/a	-999	-999	n/a	n/a	n/a	n/a	-999	[0, 0, 0]	-999	PAL1	0	R1283T
0.0	5.6	206710	INSTRUCT_VIDEO_OFF	n/a	-999	-999	n/a	n/a	n/a	n/a	-999	[0, 0, 0]	-999	PAL1	0	R1283T
5.6	0.0	212309	SESS_START	n/a	-999	-999	n/a	n/a	n/a	n/a	-999	[0, 0, 0]	-999	PAL1	0	R1283T
5.6	222.558	212309	MIC_TEST	n/a	-999	-999	n/a	n/a	n/a	n/a	-999	[0, 0, 0]	-999	PAL1	0	R1283T
228.158	14.529	434854	PRACTICE_TRIAL	n/a	-999	-999	n/a	n/a	n/a	n/a	-1	[0, 0, 0]	-999	PAL1	0	R1283T
242.687	0.006	449382	ENCODING_START	n/a	-999	-999	n/a	n/a	n/a	n/a	-1	[0, 0, 0]	-999	PAL1	0	R1283T
242.693	0.268	449388	PRACTICE_ORIENT	n/a	1	3	FLOOD	n/a	FLOOD	COTTON	-1	[0, 0, 0]	-999	PAL1	0	R1283T
242.961	0.715	449656	PRACTICE_ORIENT_OFF	n/a	1	3	FLOOD	n/a	FLOOD	COTTON	-1	[0, 0, 0]	-999	PAL1	0	R1283T
243.676	4.018	450371	PRACTICE_PAIR	n/a	1	3	FLOOD	n/a	FLOOD	COTTON	-1	[0, 0, 0]	-999	PAL1	0	R1283T
247.694	1.017	454389	PRACTICE_PAIR_OFF	n/a	1	3	FLOOD	n/a	FLOOD	COTTON	-1	[0, 0, 0]	-999	PAL1	0	R1283T
248.711	0.267	455405	PRACTICE_ORIENT	n/a	2	6	RHINO	n/a	RHINO	CHEST	-1	[0, 0, 0]	-999	PAL1	0	R1283T
248.978	0.75	455672	PRACTICE_ORIENT_OFF	n/a	2	6	RHINO	n/a	RHINO	CHEST	-1	[0, 0, 0]	-999	PAL1	0	R1283T
249.728	4.017	456422	PRACTICE_PAIR	n/a	2	6	RHINO	n/a	RHINO	CHEST	-1	[0, 0, 0]	-999	PAL1	0	R1283T
253.745	1.017	460439	PRACTICE_PAIR_OFF	n/a	2	6	RHINO	n/a	RHINO	CHEST	-1	[0, 0, 0]	-999	PAL1	0	R1283T
254.762	0.268	461456	PRACTICE_ORIENT	n/a	3	1	RING	n/a	CAMEL	RING	-1	[0, 0, 0]	-999	PAL1	0	R1283T
255.03	0.682	461724	PRACTICE_ORIENT_OFF	n/a	3	1	RING	n/a	CAMEL	RING	-1	[0, 0, 0]	-999	PAL1	0	R1283T
255.712	4.017	462406	PRACTICE_PAIR	n/a	3	1	RING	n/a	CAMEL	RING	-1	[0, 0, 0]	-999	PAL1	0	R1283T
259.729	1.017	466423	PRACTICE_PAIR_OFF	n/a	3	1	RING	n/a	CAMEL	RING	-1	[0, 0, 0]	-999	PAL1	0	R1283T
260.746	0.268	467440	PRACTICE_ORIENT	n/a	4	2	WATCH	n/a	WAGON	WATCH	-1	[0, 0, 0]	-999	PAL1	0	R1283T
261.014	0.666	467708	PRACTICE_ORIENT_OFF	n/a	4	2	WATCH	n/a	WAGON	WATCH	-1	[0, 0, 0]	-999	PAL1	0	R1283T
261.68	4.017	468374	PRACTICE_PAIR	n/a	4	2	WATCH	n/a	WAGON	WATCH	-1	[0, 0, 0]	-999	PAL1	0	R1283T
265.697	1.017	472390	PRACTICE_PAIR_OFF	n/a	4	2	WATCH	n/a	WAGON	WATCH	-1	[0, 0, 0]	-999	PAL1	0	R1283T
266.714	0.268	473407	PRACTICE_ORIENT	n/a	5	5	ATTIC	n/a	ATTIC	BEAM	-1	[0, 0, 0]	-999	PAL1	0	R1283T
266.982	0.682	473675	PRACTICE_ORIENT_OFF	n/a	5	5	ATTIC	n/a	ATTIC	BEAM	-1	[0, 0, 0]	-999	PAL1	0	R1283T
267.664	4.001	474357	PRACTICE_PAIR	n/a	5	5	ATTIC	n/a	ATTIC	BEAM	-1	[0, 0, 0]	-999	PAL1	0	R1283T
271.665	1.017	478358	PRACTICE_PAIR_OFF	n/a	5	5	ATTIC	n/a	ATTIC	BEAM	-1	[0, 0, 0]	-999	PAL1	0	R1283T
272.682	0.268	479375	PRACTICE_ORIENT	n/a	6	4	IRON	n/a	TONGUE	IRON	-1	[0, 0, 0]	-999	PAL1	0	R1283T
272.95	0.665	479643	PRACTICE_ORIENT_OFF	n/a	6	4	IRON	n/a	TONGUE	IRON	-1	[0, 0, 0]	-999	PAL1	0	R1283T
273.615	4.018	480308	PRACTICE_PAIR	n/a	6	4	IRON	n/a	TONGUE	IRON	-1	[0, 0, 0]	-999	PAL1	0	R1283T
277.633	1.0	484326	PRACTICE_PAIR_OFF	n/a	6	4	IRON	n/a	TONGUE	IRON	-1	[0, 0, 0]	-999	PAL1	0	R1283T
278.633	0.0	485326	ENCODING_END	n/a	-999	-999	n/a	n/a	n/a	n/a	-1	[0, 0, 0]	-999	PAL1	0	R1283T
278.633	0.001	485326	MATH_START	n/a	-999	-999	n/a	n/a	n/a	n/a	-1	[0, 0, 0]	-999	PAL1	0	R1283T
278.634	0.016	485327	START	n/a	-999	-999	n/a	n/a	n/a	n/a	1	[-999, -999, -999]	-999	PAL1	0	R1283T
278.65	3.735	485343	PROB	3705	-999	-999	n/a	n/a	n/a	n/a	1	[1, 7, 1]	9	PAL1	0	R1283T
282.385	5.901	489077	PROB	5874	-999	-999	n/a	n/a	n/a	n/a	1	[9, 6, 5]	20	PAL1	0	R1283T
288.286	4.516	494978	PROB	4492	-999	-999	n/a	n/a	n/a	n/a	1	[5, 4, 6]	15	PAL1	0	R1283T
292.802	4.984	499494	PROB	4960	-999	-999	n/a	n/a	n/a	n/a	1	[4, 8, 5]	17	PAL1	0	R1283T
297.786	4.433	504477	PROB	4433	-999	-999	n/a	n/a	n/a	n/a	1	[9, 5, 7]	21	PAL1	0	R1283T
302.219	0.019	508910	STOP	n/a	-999	-999	n/a	n/a	n/a	n/a	1	[-999, -999, -999]	-999	PAL1	0	R1283T
302.238	0.0	508929	MATH_END	n/a	-999	-999	n/a	n/a	n/a	n/a	-1	[0, 0, 0]	-999	PAL1	0	R1283T
302.238	0.017	508929	RECALL_START	n/a	-999	-999	n/a	n/a	n/a	n/a	-1	[0, 0, 0]	-999	PAL1	0	R1283T
302.255	0.267	508946	PRACTICE_RETRIEVAL_ORIENT	n/a	3	1	RING	n/a	CAMEL	RING	-1	[0, 0, 0]	-999	PAL1	0	R1283T
302.522	0.666	509213	PRACTICE_RETRIEVAL_ORIENT_OFF	n/a	3	1	RING	n/a	CAMEL	RING	-1	[0, 0, 0]	-999	PAL1	0	R1283T
303.188	0.001	509879	PRACTICE_PROBE	n/a	3	1	RING	n/a	CAMEL	RING	-1	[0, 0, 0]	-999	PAL1	0	R1283T
303.189	4.017	509880	REC_START	n/a	3	-999	n/a	n/a	n/a	n/a	-1	[0, 0, 0]	-999	PAL1	0	R1283T
307.206	1.0	513897	PROBE_OFF	n/a	3	-999	n/a	n/a	n/a	n/a	-1	[0, 0, 0]	-999	PAL1	0	R1283T
308.206	0.017	514897	REC_END	n/a	3	-999	n/a	n/a	n/a	n/a	-1	[0, 0, 0]	-999	PAL1	0	R1283T
308.223	0.266	514914	PRACTICE_RETRIEVAL_ORIENT	n/a	4	2	WATCH	n/a	WAGON	WATCH	-1	[0, 0, 0]	-999	PAL1	0	R1283T
308.489	0.717	515180	PRACTICE_RETRIEVAL_ORIENT_OFF	n/a	4	2	WATCH	n/a	WAGON	WATCH	-1	[0, 0, 0]	-999	PAL1	0	R1283T
309.206	0.001	515897	PRACTICE_PROBE	n/a	4	2	WATCH	n/a	WAGON	WATCH	-1	[0, 0, 0]	-999	PAL1	0	R1283T
309.207	4.016	515898	REC_START	n/a	4	-999	n/a	n/a	n/a	n/a	-1	[0, 0, 0]	-999	PAL1	0	R1283T
313.223	1.0	519914	PROBE_OFF	n/a	4	-999	n/a	n/a	n/a	n/a	-1	[0, 0, 0]	-999	PAL1	0	R1283T
314.223	0.017	520913	REC_END	n/a	4	-999	n/a	n/a	n/a	n/a	-1	[0, 0, 0]	-999	PAL1	0	R1283T
314.24	0.267	520930	PRACTICE_RETRIEVAL_ORIENT	n/a	1	3	FLOOD	n/a	FLOOD	COTTON	-1	[0, 0, 0]	-999	PAL1	0	R1283T
314.507	0.567	521197	PRACTICE_RETRIEVAL_ORIENT_OFF	n/a	1	3	FLOOD	n/a	FLOOD	COTTON	-1	[0, 0, 0]	-999	PAL1	0	R1283T
315.074	0.0	521764	PRACTICE_PROBE	n/a	1	3	FLOOD	n/a	FLOOD	COTTON	-1	[0, 0, 0]	-999	PAL1	0	R1283T
315.074	4.017	521764	REC_START	n/a	1	-999	n/a	n/a	n/a	n/a	-1	[0, 0, 0]	-999	PAL1	0	R1283T
319.091	1.0	525781	PROBE_OFF	n/a	1	-999	n/a	n/a	n/a	n/a	-1	[0, 0, 0]	-999	PAL1	0	R1283T
320.091	0.017	526781	REC_END	n/a	1	-999	n/a	n/a	n/a	n/a	-1	[0, 0, 0]	-999	PAL1	0	R1283T
320.108	0.267	526798	PRACTICE_RETRIEVAL_ORIENT	n/a	6	4	IRON	n/a	TONGUE	IRON	-1	[0, 0, 0]	-999	PAL1	0	R1283T
320.375	0.65	527065	PRACTICE_RETRIEVAL_ORIENT_OFF	n/a	6	4	IRON	n/a	TONGUE	IRON	-1	[0, 0, 0]	-999	PAL1	0	R1283T
321.025	0.0	527715	PRACTICE_PROBE	n/a	6	4	IRON	n/a	TONGUE	IRON	-1	[0, 0, 0]	-999	PAL1	0	R1283T
321.025	4.017	527715	REC_START	n/a	6	-999	n/a	n/a	n/a	n/a	-1	[0, 0, 0]	-999	PAL1	0	R1283T
325.042	1.001	531732	PROBE_OFF	n/a	6	-999	n/a	n/a	n/a	n/a	-1	[0, 0, 0]	-999	PAL1	0	R1283T
326.043	0.016	532733	REC_END	n/a	6	-999	n/a	n/a	n/a	n/a	-1	[0, 0, 0]	-999	PAL1	0	R1283T
326.059	0.267	532749	PRACTICE_RETRIEVAL_ORIENT	n/a	5	5	ATTIC	n/a	ATTIC	BEAM	-1	[0, 0, 0]	-999	PAL1	0	R1283T
326.326	0.6	533016	PRACTICE_RETRIEVAL_ORIENT_OFF	n/a	5	5	ATTIC	n/a	ATTIC	BEAM	-1	[0, 0, 0]	-999	PAL1	0	R1283T
326.926	0.001	533616	PRACTICE_PROBE	n/a	5	5	ATTIC	n/a	ATTIC	BEAM	-1	[0, 0, 0]	-999	PAL1	0	R1283T
326.927	4.016	533617	REC_START	n/a	5	-999	n/a	n/a	n/a	n/a	-1	[0, 0, 0]	-999	PAL1	0	R1283T
330.943	1.0	537632	PROBE_OFF	n/a	5	-999	n/a	n/a	n/a	n/a	-1	[0, 0, 0]	-999	PAL1	0	R1283T
331.943	0.017	538632	REC_END	n/a	5	-999	n/a	n/a	n/a	n/a	-1	[0, 0, 0]	-999	PAL1	0	R1283T
331.96	0.267	538649	PRACTICE_RETRIEVAL_ORIENT	n/a	2	6	RHINO	n/a	RHINO	CHEST	-1	[0, 0, 0]	-999	PAL1	0	R1283T
332.227	0.717	538916	PRACTICE_RETRIEVAL_ORIENT_OFF	n/a	2	6	RHINO	n/a	RHINO	CHEST	-1	[0, 0, 0]	-999	PAL1	0	R1283T
332.944	0.0	539633	PRACTICE_PROBE	n/a	2	6	RHINO	n/a	RHINO	CHEST	-1	[0, 0, 0]	-999	PAL1	0	R1283T
332.944	4.017	539633	REC_START	n/a	2	-999	n/a	n/a	n/a	n/a	-1	[0, 0, 0]	-999	PAL1	0	R1283T
336.961	1.0	543650	PROBE_OFF	n/a	2	-999	n/a	n/a	n/a	n/a	-1	[0, 0, 0]	-999	PAL1	0	R1283T
337.961	0.01	544650	REC_END	n/a	2	-999	n/a	n/a	n/a	n/a	-1	[0, 0, 0]	-999	PAL1	0	R1283T
337.971	29.212	544660	RECALL_END	n/a	-999	-999	n/a	n/a	n/a	n/a	-1	[0, 0, 0]	-999	PAL1	0	R1283T
367.183	10.928	573870	TRIAL	n/a	-999	-999	n/a	n/a	n/a	n/a	1	[0, 0, 0]	-999	PAL1	0	R1283T
378.111	0.008	584798	ENCODING_START	n/a	-999	-999	n/a	n/a	n/a	n/a	1	[0, 0, 0]	-999	PAL1	0	R1283T
378.119	0.266	584806	STUDY_ORIENT	n/a	1	5	PLANT	BED	DRUM	PLANT	1	[0, 0, 0]	-999	PAL1	0	R1283T
378.385	0.584	585072	STUDY_ORIENT_OFF	n/a	1	5	PLANT	BED	DRUM	PLANT	1	[0, 0, 0]	-999	PAL1	0	R1283T
378.969	4.017	585655	STUDY_PAIR	n/a	1	5	PLANT	BED	DRUM	PLANT	1	[0, 0, 0]	-999	PAL1	0	R1283T
382.986	1.017	589672	PAIR_OFF	n/a	1	5	PLANT	BED	DRUM	PLANT	1	[0, 0, 0]	-999	PAL1	0	R1283T
384.003	0.267	590689	STUDY_ORIENT	n/a	2	2	CAGE	SHEET	CAGE	SHEET	1	[0, 0, 0]	-999	PAL1	0	R1283T
384.27	0.549	590956	STUDY_ORIENT_OFF	n/a	2	2	CAGE	SHEET	CAGE	SHEET	1	[0, 0, 0]	-999	PAL1	0	R1283T
384.819	4.017	591505	STUDY_PAIR	n/a	2	2	CAGE	SHEET	CAGE	SHEET	1	[0, 0, 0]	-999	PAL1	0	R1283T
388.836	1.017	595522	PAIR_OFF	n/a	2	2	CAGE	SHEET	CAGE	SHEET	1	[0, 0, 0]	-999	PAL1	0	R1283T
389.853	0.268	596539	STUDY_ORIENT	n/a	3	1	ARM	BOAT	ARM	BOAT	1	[0, 0, 0]	-999	PAL1	0	R1283T
390.121	0.549	596807	STUDY_ORIENT_OFF	n/a	3	1	ARM	BOAT	ARM	BOAT	1	[0, 0, 0]	-999	PAL1	0	R1283T
390.67	4.017	597356	STUDY_PAIR	n/a	3	1	ARM	BOAT	ARM	BOAT	1	[0, 0, 0]	-999	PAL1	0	R1283T
394.687	1.017	601373	PAIR_OFF	n/a	3	1	ARM	BOAT	ARM	BOAT	1	[0, 0, 0]	-999	PAL1	0	R1283T
395.704	0.251	602389	STUDY_ORIENT	n/a	4	4	BED	PASS	BED	SEAT	1	[0, 0, 0]	-999	PAL1	0	R1283T
395.955	0.666	602640	STUDY_ORIENT_OFF	n/a	4	4	BED	PASS	BED	SEAT	1	[0, 0, 0]	-999	PAL1	0	R1283T
396.621	4.017	603306	STUDY_PAIR	n/a	4	4	BED	PASS	BED	SEAT	1	[0, 0, 0]	-999	PAL1	0	R1283T
400.638	1.017	607323	PAIR_OFF	n/a	4	4	BED	PASS	BED	SEAT	1	[0, 0, 0]	-999	PAL1	0	R1283T
401.655	0.268	608340	STUDY_ORIENT	n/a	5	3	BALL	HILL	BALL	HILL	1	[0, 0, 0]	-999	PAL1	0	R1283T
401.923	0.716	608608	STUDY_ORIENT_OFF	n/a	5	3	BALL	HILL	BALL	HILL	1	[0, 0, 0]	-999	PAL1	0	R1283T
402.639	4.017	609324	STUDY_PAIR	n/a	5	3	BALL	HILL	BALL	HILL	1	[0, 0, 0]	-999	PAL1	0	R1283T
406.656	1.017	613341	PAIR_OFF	n/a	5	3	BALL	HILL	BALL	HILL	1	[0, 0, 0]	-999	PAL1	0	R1283T
407.673	0.268	614358	STUDY_ORIENT	n/a	6	6	DOG	ARM	DOG	CUP	1	[0, 0, 0]	-999	PAL1	0	R1283T
407.941	0.517	614626	STUDY_ORIENT_OFF	n/a	6	6	DOG	ARM	DOG	CUP	1	[0, 0, 0]	-999	PAL1	0	R1283T
408.458	4.017	615143	STUDY_PAIR	n/a	6	6	DOG	ARM	DOG	CUP	1	[0, 0, 0]	-999	PAL1	0	R1283T
412.475	1.0	619159	PAIR_OFF	n/a	6	6	DOG	ARM	DOG	CUP	1	[0, 0, 0]	-999	PAL1	0	R1283T
413.475	0.0	620159	ENCODING_END	n/a	-999	-999	n/a	n/a	n/a	n/a	1	[0, 0, 0]	-999	PAL1	0	R1283T
413.475	0.0	620159	MATH_START	n/a	-999	-999	n/a	n/a	n/a	n/a	1	[0, 0, 0]	-999	PAL1	0	R1283T
413.475	0.017	620159	START	n/a	-999	-999	n/a	n/a	n/a	n/a	2	[-999, -999, -999]	-999	PAL1	0	R1283T
413.492	3.55	620176	PROB	3519	-999	-999	n/a	n/a	n/a	n/a	2	[2, 4, 6]	12	PAL1	0	R1283T
417.042	3.218	623726	PROB	3185	-999	-999	n/a	n/a	n/a	n/a	2	[1, 6, 6]	13	PAL1	0	R1283T
420.26	3.549	626944	PROB	3518	-999	-999	n/a	n/a	n/a	n/a	2	[7, 2, 9]	18	PAL1	0	R1283T
423.809	4.385	630493	PROB	4354	-999	-999	n/a	n/a	n/a	n/a	2	[6, 9, 4]	19	PAL1	0	R1283T
428.194	6.841	634877	PROB	6841	-999	-999	n/a	n/a	n/a	n/a	2	[3, 6, 5]	12	PAL1	0	R1283T
435.035	0.011	641718	STOP	n/a	-999	-999	n/a	n/a	n/a	n/a	2	[-999, -999, -999]	-999	PAL1	0	R1283T
435.046	0.0	641729	MATH_END	n/a	-999	-999	n/a	n/a	n/a	n/a	1	[0, 0, 0]	-999	PAL1	0	R1283T
435.046	0.016	641729	RECALL_START	n/a	-999	-999	n/a	n/a	n/a	n/a	1	[0, 0, 0]	-999	PAL1	0	R1283T
435.062	0.267	641745	TEST_ORIENT	n/a	3	1	ARM	BOAT	ARM	BOAT	1	[0, 0, 0]	-999	PAL1	0	R1283T
435.329	0.667	642012	RETRIEVAL_ORIENT_OFF	n/a	-999	-999	n/a	n/a	n/a	n/a	1	[0, 0, 0]	-999	PAL1	0	R1283T
435.996	0.001	642679	TEST_PROBE	n/a	3	1	ARM	BOAT	ARM	BOAT	1	[0, 0, 0]	-999	PAL1	0	R1283T
435.997	1.59	642680	REC_START	n/a	3	-999	n/a	BOAT	n/a	n/a	1	[0, 0, 0]	-999	PAL1	0	R1283T
437.587	2.426	644270	REC_EVENT	1590	3	1	ARM	BOAT	ARM	BOAT	1	[0, 0, 0]	-999	PAL1	0	R1283T
440.013	1.0	646696	PROBE_OFF	n/a	3	-999	n/a	n/a	n/a	n/a	1	[0, 0, 0]	-999	PAL1	0	R1283T
441.013	0.017	647696	REC_END	n/a	3	-999	n/a	n/a	n/a	n/a	1	[0, 0, 0]	-999	PAL1	0	R1283T
441.03	0.267	647713	TEST_ORIENT	n/a	2	2	CAGE	SHEET	CAGE	SHEET	1	[0, 0, 0]	-999	PAL1	0	R1283T
441.297	0.65	647980	RETRIEVAL_ORIENT_OFF	n/a	3	-999	n/a	n/a	n/a	n/a	1	[0, 0, 0]	-999	PAL1	0	R1283T
441.947	0.001	648630	TEST_PROBE	n/a	2	2	CAGE	SHEET	CAGE	SHEET	1	[0, 0, 0]	-999	PAL1	0	R1283T
441.948	2.181	648631	REC_START	n/a	2	-999	n/a	SHEET	n/a	n/a	1	[0, 0, 0]	-999	PAL1	0	R1283T
444.129	1.835	650811	REC_EVENT	2181	2	2	CAGE	SHEET	CAGE	SHEET	1	[0, 0, 0]	-999	PAL1	0	R1283T
445.964	1.0	652646	PROBE_OFF	n/a	2	-999	n/a	n/a	n/a	n/a	1	[0, 0, 0]	-999	PAL1	0	R1283T
446.964	0.017	653646	REC_END	n/a	2	-999	n/a	n/a	n/a	n/a	1	[0, 0, 0]	-999	PAL1	0	R1283T
446.981	0.267	653663	TEST_ORIENT	n/a	5	3	BALL	HILL	BALL	HILL	1	[0, 0, 0]	-999	PAL1	0	R1283T
447.248	0.566	653930	RETRIEVAL_ORIENT_OFF	n/a	2	-999	n/a	n/a	n/a	n/a	1	[0, 0, 0]	-999	PAL1	0	R1283T
447.814	0.0	654496	REC_START	n/a	5	-999	n/a	HILL	n/a	n/a	1	[0, 0, 0]	-999	PAL1	0	R1283T
447.814	3.081	654496	TEST_PROBE	n/a	5	3	BALL	HILL	BALL	HILL	1	[0, 0, 0]	-999	PAL1	0	R1283T
450.895	0.936	657577	REC_EVENT	3081	5	3	BALL	HILL	BALL	HILL	1	[0, 0, 0]	-999	PAL1	0	R1283T
451.831	1.0	658513	PROBE_OFF	n/a	5	-999	n/a	n/a	n/a	n/a	1	[0, 0, 0]	-999	PAL1	0	R1283T
452.831	0.017	659513	REC_END	n/a	5	-999	n/a	n/a	n/a	n/a	1	[0, 0, 0]	-999	PAL1	0	R1283T
452.848	0.268	659530	TEST_ORIENT	n/a	4	4	BED	PASS	BED	SEAT	1	[0, 0, 0]	-999	PAL1	0	R1283T
453.116	0.715	659798	RETRIEVAL_ORIENT_OFF	n/a	5	-999	n/a	n/a	n/a	n/a	1	[0, 0, 0]	-999	PAL1	0	R1283T
453.831	0.001	660513	TEST_PROBE	n/a	4	4	BED	PASS	BED	SEAT	1	[0, 0, 0]	-999	PAL1	0	R1283T
453.832	3.948	660514	REC_START	n/a	4	-999	n/a	PASS	n/a	n/a	1	[0, 0, 0]	-999	PAL1	0	R1283T
457.78	0.069	664462	REC_EVENT	3948	4	4	BED	PASS	BED	SEAT	1	[0, 0, 0]	-999	PAL1	0	R1283T
457.849	1.0	664531	PROBE_OFF	n/a	4	-999	n/a	n/a	n/a	n/a	1	[0, 0, 0]	-999	PAL1	0	R1283T
458.849	0.017	665531	REC_END	n/a	4	-999	n/a	n/a	n/a	n/a	1	[0, 0, 0]	-999	PAL1	0	R1283T
458.866	0.267	665548	TEST_ORIENT	n/a	1	5	PLANT	BED	DRUM	PLANT	1	[0, 0, 0]	-999	PAL1	0	R1283T
459.133	0.516	665815	RETRIEVAL_ORIENT_OFF	n/a	4	-999	n/a	n/a	n/a	n/a	1	[0, 0, 0]	-999	PAL1	0	R1283T
459.649	0.001	666331	TEST_PROBE	n/a	1	5	PLANT	BED	DRUM	PLANT	1	[0, 0, 0]	-999	PAL1	0	R1283T
459.65	4.017	666332	REC_START	n/a	1	-999	n/a	BED	n/a	n/a	1	[0, 0, 0]	-999	PAL1	0	R1283T
463.667	0.086	670348	PROBE_OFF	n/a	1	-999	n/a	n/a	n/a	n/a	1	[0, 0, 0]	-999	PAL1	0	R1283T
463.753	0.914	670434	REC_EVENT	4103	1	5	PLANT	BED	DRUM	PLANT	1	[0, 0, 0]	-999	PAL1	0	R1283T
464.667	0.016	671348	REC_END	n/a	1	-999	n/a	n/a	n/a	n/a	1	[0, 0, 0]	-999	PAL1	0	R1283T
464.683	0.268	671364	TEST_ORIENT	n/a	6	6	DOG	ARM	DOG	CUP	1	[0, 0, 0]	-999	PAL1	0	R1283T
464.951	0.683	671632	RETRIEVAL_ORIENT_OFF	n/a	1	-999	n/a	n/a	n/a	n/a	1	[0, 0, 0]	-999	PAL1	0	R1283T
465.634	0.0	672315	TEST_PROBE	n/a	6	6	DOG	ARM	DOG	CUP	1	[0, 0, 0]	-999	PAL1	0	R1283T
465.634	3.968	672315	REC_START	n/a	6	-999	n/a	ARM	n/a	n/a	1	[0, 0, 0]	-999	PAL1	0	R1283T
469.602	0.049	676283	REC_EVENT	3968	6	6	DOG	ARM	DOG	CUP	1	[0, 0, 0]	-999	PAL1	0	R1283T
469.651	1.0	676332	PROBE_OFF	n/a	6	-999	n/a	n/a	n/a	n/a	1	[0, 0, 0]	-999	PAL1	0	R1283T
470.651	0.005	677332	REC_END	n/a	6	-999	n/a	n/a	n/a	n/a	1	[0, 0, 0]	-999	PAL1	0	R1283T
470.656	5.096	677337	RECALL_END	n/a	-999	-999	n/a	n/a	n/a	n/a	1	[0, 0, 0]	-999	PAL1	0	R1283T
475.752	10.929	682433	TRIAL	n/a	-999	-999	n/a	n/a	n/a	n/a	2	[0, 0, 0]	-999	PAL1	0	R1283T
486.681	0.006	693361	ENCODING_START	n/a	-999	-999	n/a	n/a	n/a	n/a	2	[0, 0, 0]	-999	PAL1	0	R1283T
486.687	0.251	693367	STUDY_ORIENT	n/a	1	3	SNAKE	CLOWN	SNAKE	SPOON	2	[0, 0, 0]	-999	PAL1	0	R1283T
486.938	0.551	693618	STUDY_ORIENT_OFF	n/a	1	3	SNAKE	CLOWN	SNAKE	SPOON	2	[0, 0, 0]	-999	PAL1	0	R1283T
487.489	4.017	694169	STUDY_PAIR	n/a	1	3	SNAKE	CLOWN	SNAKE	SPOON	2	[0, 0, 0]	-999	PAL1	0	R1283T
491.506	1.017	698186	PAIR_OFF	n/a	1	3	SNAKE	CLOWN	SNAKE	SPOON	2	[0, 0, 0]	-999	PAL1	0	R1283T
492.523	0.266	699203	STUDY_ORIENT	n/a	2	4	TRAY	PASS	TRAY	TEETH	2	[0, 0, 0]	-999	PAL1	0	R1283T
492.789	0.551	699469	STUDY_ORIENT_OFF	n/a	2	4	TRAY	PASS	TRAY	TEETH	2	[0, 0, 0]	-999	PAL1	0	R1283T
493.34	4.017	700019	STUDY_PAIR	n/a	2	4	TRAY	PASS	TRAY	TEETH	2	[0, 0, 0]	-999	PAL1	0	R1283T
497.357	1.017	704036	PAIR_OFF	n/a	2	4	TRAY	PASS	TRAY	TEETH	2	[0, 0, 0]	-999	PAL1	0	R1283T
498.374	0.266	705053	STUDY_ORIENT	n/a	3	5	CLOWN	n/a	CLOWN	THUMB	2	[0, 0, 0]	-999	PAL1	0	R1283T
498.64	0.534	705319	STUDY_ORIENT_OFF	n/a	3	5	CLOWN	n/a	CLOWN	THUMB	2	[0, 0, 0]	-999	PAL1	0	R1283T
499.174	4.017	705853	STUDY_PAIR	n/a	3	5	CLOWN	n/a	CLOWN	THUMB	2	[0, 0, 0]	-999	PAL1	0	R1283T
503.191	1.017	709870	PAIR_OFF	n/a	3	5	CLOWN	n/a	CLOWN	THUMB	2	[0, 0, 0]	-999	PAL1	0	R1283T
504.208	0.267	710887	STUDY_ORIENT	n/a	4	2	CLOUD	THUMB	CLOUD	GLASS	2	[0, 0, 0]	-999	PAL1	0	R1283T
504.475	0.75	711154	STUDY_ORIENT_OFF	n/a	4	2	CLOUD	THUMB	CLOUD	GLASS	2	[0, 0, 0]	-999	PAL1	0	R1283T
505.225	4.018	711904	STUDY_PAIR	n/a	4	2	CLOUD	THUMB	CLOUD	GLASS	2	[0, 0, 0]	-999	PAL1	0	R1283T
509.243	1.016	715922	PAIR_OFF	n/a	4	2	CLOUD	THUMB	CLOUD	GLASS	2	[0, 0, 0]	-999	PAL1	0	R1283T
510.259	0.267	716937	STUDY_ORIENT	n/a	5	1	WEB	RAT	FOX	WEB	2	[0, 0, 0]	-999	PAL1	0	R1283T
510.526	0.6	717204	STUDY_ORIENT_OFF	n/a	5	1	WEB	RAT	FOX	WEB	2	[0, 0, 0]	-999	PAL1	0	R1283T
511.126	4.018	717804	STUDY_PAIR	n/a	5	1	WEB	RAT	FOX	WEB	2	[0, 0, 0]	-999	PAL1	0	R1283T
515.144	1.016	721822	PAIR_OFF	n/a	5	1	WEB	RAT	FOX	WEB	2	[0, 0, 0]	-999	PAL1	0	R1283T
516.16	0.267	722838	STUDY_ORIENT	n/a	6	6	RAT	ARM	MAP	RAT	2	[0, 0, 0]	-999	PAL1	0	R1283T
516.427	0.75	723105	STUDY_ORIENT_OFF	n/a	6	6	RAT	ARM	MAP	RAT	2	[0, 0, 0]	-999	PAL1	0	R1283T
517.177	4.018	723855	STUDY_PAIR	n/a	6	6	RAT	ARM	MAP	RAT	2	[0, 0, 0]	-999	PAL1	0	R1283T
521.195	1.0	727873	PAIR_OFF	n/a	6	6	RAT	ARM	MAP	RAT	2	[0, 0, 0]	-999	PAL1	0	R1283T
522.195	0.0	728873	ENCODING_END	n/a	-999	-999	n/a	n/a	n/a	n/a	2	[0, 0, 0]	-999	PAL1	0	R1283T
522.195	0.001	728873	MATH_START	n/a	-999	-999	n/a	n/a	n/a	n/a	2	[0, 0, 0]	-999	PAL1	0	R1283T
522.196	0.016	728874	START	n/a	-999	-999	n/a	n/a	n/a	n/a	3	[-999, -999, -999]	-999	PAL1	0	R1283T
522.212	3.616	728890	PROB	3581	-999	-999	n/a	n/a	n/a	n/a	3	[9, 2, 2]	13	PAL1	0	R1283T
525.828	3.752	732505	PROB	3718	-999	-999	n/a	n/a	n/a	n/a	3	[3, 6, 4]	13	PAL1	0	R1283T
529.58	3.617	736257	PROB	3591	-999	-999	n/a	n/a	n/a	n/a	3	[4, 8, 1]	13	PAL1	0	R1283T
533.197	4.834	739874	PROB	4806	-999	-999	n/a	n/a	n/a	n/a	3	[8, 9, 9]	27	PAL1	0	R1283T
538.031	8.388	744708	PROB	8388	-999	-999	n/a	n/a	n/a	n/a	3	[6, 9, 7]	23	PAL1	0	R1283T
546.419	0.014	753095	STOP	n/a	-999	-999	n/a	n/a	n/a	n/a	3	[-999, -999, -999]	-999	PAL1	0	R1283T
546.433	0.0	753109	MATH_END	n/a	-999	-999	n/a	n/a	n/a	n/a	2	[0, 0, 0]	-999	PAL1	0	R1283T
546.433	0.016	753109	RECALL_START	n/a	-999	-999	n/a	n/a	n/a	n/a	2	[0, 0, 0]	-999	PAL1	0	R1283T
546.449	0.266	753125	TEST_ORIENT	n/a	5	1	WEB	RAT	FOX	WEB	2	[0, 0, 0]	-999	PAL1	0	R1283T
546.715	0.734	753391	RETRIEVAL_ORIENT_OFF	n/a	-999	-999	n/a	n/a	n/a	n/a	2	[0, 0, 0]	-999	PAL1	0	R1283T
547.449	0.001	754125	TEST_PROBE	n/a	5	1	WEB	RAT	FOX	WEB	2	[0, 0, 0]	-999	PAL1	0	R1283T
547.45	1.436	754126	REC_START	n/a	5	-999	n/a	RAT	n/a	n/a	2	[0, 0, 0]	-999	PAL1	0	R1283T
548.886	2.581	755562	REC_EVENT	1436	5	1	WEB	RAT	FOX	WEB	2	[0, 0, 0]	-999	PAL1	0	R1283T
551.467	1.0	758143	PROBE_OFF	n/a	5	-999	n/a	n/a	n/a	n/a	2	[0, 0, 0]	-999	PAL1	0	R1283T
552.467	0.017	759143	REC_END	n/a	5	-999	n/a	n/a	n/a	n/a	2	[0, 0, 0]	-999	PAL1	0	R1283T
552.484	0.265	759160	TEST_ORIENT	n/a	4	2	CLOUD	THUMB	CLOUD	GLASS	2	[0, 0, 0]	-999	PAL1	0	R1283T
552.749	0.602	759425	RETRIEVAL_ORIENT_OFF	n/a	5	-999	n/a	n/a	n/a	n/a	2	[0, 0, 0]	-999	PAL1	0	R1283T
553.351	0.0	760027	TEST_PROBE	n/a	4	2	CLOUD	THUMB	CLOUD	GLASS	2	[0, 0, 0]	-999	PAL1	0	R1283T
553.351	4.017	760027	REC_START	n/a	4	-999	n/a	THUMB	n/a	n/a	2	[0, 0, 0]	-999	PAL1	0	R1283T
557.368	0.333	764044	PROBE_OFF	n/a	4	-999	n/a	n/a	n/a	n/a	2	[0, 0, 0]	-999	PAL1	0	R1283T
557.701	0.667	764377	REC_EVENT	4350	4	2	CLOUD	THUMB	CLOUD	GLASS	2	[0, 0, 0]	-999	PAL1	0	R1283T
558.368	0.017	765044	REC_END	n/a	4	-999	n/a	n/a	n/a	n/a	2	[0, 0, 0]	-999	PAL1	0	R1283T
558.385	0.265	765061	TEST_ORIENT	n/a	1	3	SNAKE	CLOWN	SNAKE	SPOON	2	[0, 0, 0]	-999	PAL1	0	R1283T
558.65	0.618	765325	RETRIEVAL_ORIENT_OFF	n/a	4	-999	n/a	n/a	n/a	n/a	2	[0, 0, 0]	-999	PAL1	0	R1283T
559.268	0.001	765943	TEST_PROBE	n/a	1	3	SNAKE	CLOWN	SNAKE	SPOON	2	[0, 0, 0]	-999	PAL1	0	R1283T
559.269	4.033	765944	REC_START	n/a	1	-999	n/a	CLOWN	n/a	n/a	2	[0, 0, 0]	-999	PAL1	0	R1283T
563.302	0.133	769977	PROBE_OFF	n/a	1	-999	n/a	n/a	n/a	n/a	2	[0, 0, 0]	-999	PAL1	0	R1283T
563.435	0.867	770110	REC_EVENT	4166	1	3	SNAKE	CLOWN	SNAKE	SPOON	2	[0, 0, 0]	-999	PAL1	0	R1283T
564.302	0.017	770977	REC_END	n/a	1	-999	n/a	n/a	n/a	n/a	2	[0, 0, 0]	-999	PAL1	0	R1283T
564.319	0.267	770994	TEST_ORIENT	n/a	2	4	TRAY	PASS	TRAY	TEETH	2	[0, 0, 0]	-999	PAL1	0	R1283T
564.586	0.733	771261	RETRIEVAL_ORIENT_OFF	n/a	1	-999	n/a	n/a	n/a	n/a	2	[0, 0, 0]	-999	PAL1	0	R1283T
565.319	0.001	771994	TEST_PROBE	n/a	2	4	TRAY	PASS	TRAY	TEETH	2	[0, 0, 0]	-999	PAL1	0	R1283T
565.32	4.017	771995	REC_START	n/a	2	-999	n/a	PASS	n/a	n/a	2	[0, 0, 0]	-999	PAL1	0	R1283T
569.337	0.183	776012	PROBE_OFF	n/a	2	-999	n/a	n/a	n/a	n/a	2	[0, 0, 0]	-999	PAL1	0	R1283T
569.52	0.829	776195	REC_EVENT	4200	2	4	TRAY	PASS	TRAY	TEETH	2	[0, 0, 0]	-999	PAL1	0	R1283T
570.349	0.021	777024	REC_END	n/a	2	-999	n/a	n/a	n/a	n/a	2	[0, 0, 0]	-999	PAL1	0	R1283T
570.37	0.266	777045	TEST_ORIENT	n/a	3	5	CLOWN	n/a	CLOWN	THUMB	2	[0, 0, 0]	-999	PAL1	0	R1283T
570.636	0.584	777311	RETRIEVAL_ORIENT_OFF	n/a	2	-999	n/a	n/a	n/a	n/a	2	[0, 0, 0]	-999	PAL1	0	R1283T
571.22	0.001	777895	TEST_PROBE	n/a	3	5	CLOWN	n/a	CLOWN	THUMB	2	[0, 0, 0]	-999	PAL1	0	R1283T
571.221	4.017	777896	REC_START	n/a	3	-999	n/a	n/a	n/a	n/a	2	[0, 0, 0]	-999	PAL1	0	R1283T
575.238	0.998	781912	PROBE_OFF	n/a	3	-999	n/a	n/a	n/a	n/a	2	[0, 0, 0]	-999	PAL1	0	R1283T
576.236	0.002	782910	REC_EVENT	5015	3	5	CLOWN	<>	CLOWN	THUMB	2	[0, 0, 0]	-999	PAL1	0	R1283T
576.238	0.017	782912	REC_END	n/a	3	-999	n/a	n/a	n/a	n/a	2	[0, 0, 0]	-999	PAL1	0	R1283T
576.255	0.266	782929	TEST_ORIENT	n/a	6	6	RAT	ARM	MAP	RAT	2	[0, 0, 0]	-999	PAL1	0	R1283T
576.521	0.751	783195	RETRIEVAL_ORIENT_OFF	n/a	3	-999	n/a	n/a	n/a	n/a	2	[0, 0, 0]	-999	PAL1	0	R1283T
577.272	0.0	783946	TEST_PROBE	n/a	6	6	RAT	ARM	MAP	RAT	2	[0, 0, 0]	-999	PAL1	0	R1283T
577.272	3.298	783946	REC_START	n/a	6	-999	n/a	ARM	n/a	n/a	2	[0, 0, 0]	-999	PAL1	0	R1283T
580.57	0.719	787244	REC_EVENT	3298	6	6	RAT	ARM	MAP	RAT	2	[0, 0, 0]	-999	PAL1	0	R1283T
581.289	1.0	787963	PROBE_OFF	n/a	6	-999	n/a	n/a	n/a	n/a	2	[0, 0, 0]	-999	PAL1	0	R1283T
582.289	0.011	788963	REC_END	n/a	6	-999	n/a	n/a	n/a	n/a	2	[0, 0, 0]	-999	PAL1	0	R1283T
582.3	8.657	788974	RECALL_END	n/a	-999	-999	n/a	n/a	n/a	n/a	2	[0, 0, 0]	-999	PAL1	0	R1283T
590.957	10.929	797631	TRIAL	n/a	-999	-999	n/a	n/a	n/a	n/a	3	[0, 0, 0]	-999	PAL1	0	R1283T
601.886	0.007	808559	ENCODING_START	n/a	-999	-999	n/a	n/a	n/a	n/a	3	[0, 0, 0]	-999	PAL1	0	R1283T
601.893	0.267	808566	STUDY_ORIENT	n/a	1	1	BIRD	PASS	ICE	BIRD	3	[0, 0, 0]	-999	PAL1	0	R1283T
602.16	0.733	808833	STUDY_ORIENT_OFF	n/a	1	1	BIRD	PASS	ICE	BIRD	3	[0, 0, 0]	-999	PAL1	0	R1283T
602.893	4.017	809566	STUDY_PAIR	n/a	1	1	BIRD	PASS	ICE	BIRD	3	[0, 0, 0]	-999	PAL1	0	R1283T
606.91	1.017	813583	PAIR_OFF	n/a	1	1	BIRD	PASS	ICE	BIRD	3	[0, 0, 0]	-999	PAL1	0	R1283T
607.927	0.267	814599	STUDY_ORIENT	n/a	2	6	SKY	PASS	SKY	MOLE	3	[0, 0, 0]	-999	PAL1	0	R1283T
608.194	0.666	814866	STUDY_ORIENT_OFF	n/a	2	6	SKY	PASS	SKY	MOLE	3	[0, 0, 0]	-999	PAL1	0	R1283T
608.86	4.018	815532	STUDY_PAIR	n/a	2	6	SKY	PASS	SKY	MOLE	3	[0, 0, 0]	-999	PAL1	0	R1283T
612.878	1.017	819550	PAIR_OFF	n/a	2	6	SKY	PASS	SKY	MOLE	3	[0, 0, 0]	-999	PAL1	0	R1283T
613.895	0.267	820567	STUDY_ORIENT	n/a	3	5	BEAK	OAK	PIG	BEAK	3	[0, 0, 0]	-999	PAL1	0	R1283T
614.162	0.665	820834	STUDY_ORIENT_OFF	n/a	3	5	BEAK	OAK	PIG	BEAK	3	[0, 0, 0]	-999	PAL1	0	R1283T
614.827	4.018	821499	STUDY_PAIR	n/a	3	5	BEAK	OAK	PIG	BEAK	3	[0, 0, 0]	-999	PAL1	0	R1283T
618.845	1.017	825517	PAIR_OFF	n/a	3	5	BEAK	OAK	PIG	BEAK	3	[0, 0, 0]	-999	PAL1	0	R1283T
619.862	0.267	826534	STUDY_ORIENT	n/a	4	4	SOCK	JEEP	JEEP	SOCK	3	[0, 0, 0]	-999	PAL1	0	R1283T
620.129	0.716	826801	STUDY_ORIENT_OFF	n/a	4	4	SOCK	JEEP	JEEP	SOCK	3	[0, 0, 0]	-999	PAL1	0	R1283T
620.845	4.018	827517	STUDY_PAIR	n/a	4	4	SOCK	JEEP	JEEP	SOCK	3	[0, 0, 0]	-999	PAL1	0	R1283T
624.863	1.017	831534	PAIR_OFF	n/a	4	4	SOCK	JEEP	JEEP	SOCK	3	[0, 0, 0]	-999	PAL1	0	R1283T
625.88	0.267	832551	STUDY_ORIENT	n/a	5	3	NEST	PASS	FACE	NEST	3	[0, 0, 0]	-999	PAL1	0	R1283T
626.147	0.583	832818	STUDY_ORIENT_OFF	n/a	5	3	NEST	PASS	FACE	NEST	3	[0, 0, 0]	-999	PAL1	0	R1283T
626.73	4.017	833401	STUDY_PAIR	n/a	5	3	NEST	PASS	FACE	NEST	3	[0, 0, 0]	-999	PAL1	0	R1283T
630.747	1.017	837418	PAIR_OFF	n/a	5	3	NEST	PASS	FACE	NEST	3	[0, 0, 0]	-999	PAL1	0	R1283T
631.764	0.268	838435	STUDY_ORIENT	n/a	6	2	OAK	PEARL	OAK	PEARL	3	[0, 0, 0]	-999	PAL1	0	R1283T
632.032	0.599	838703	STUDY_ORIENT_OFF	n/a	6	2	OAK	PEARL	OAK	PEARL	3	[0, 0, 0]	-999	PAL1	0	R1283T
632.631	4.017	839302	STUDY_PAIR	n/a	6	2	OAK	PEARL	OAK	PEARL	3	[0, 0, 0]	-999	PAL1	0	R1283T
636.648	1.0	843319	PAIR_OFF	n/a	6	2	OAK	PEARL	OAK	PEARL	3	[0, 0, 0]	-999	PAL1	0	R1283T
637.648	0.0	844319	ENCODING_END	n/a	-999	-999	n/a	n/a	n/a	n/a	3	[0, 0, 0]	-999	PAL1	0	R1283T
637.648	0.001	844319	MATH_START	n/a	-999	-999	n/a	n/a	n/a	n/a	3	[0, 0, 0]	-999	PAL1	0	R1283T
637.649	0.016	844320	START	n/a	-999	-999	n/a	n/a	n/a	n/a	4	[-999, -999, -999]	-999	PAL1	0	R1283T
637.665	3.585	844336	PROB	3553	-999	-999	n/a	n/a	n/a	n/a	4	[4, 1, 7]	13	PAL1	0	R1283T
641.25	4.851	847920	PROB	4817	-999	-999	n/a	n/a	n/a	n/a	4	[6, 6, 7]	19	PAL1	0	R1283T
646.101	5.818	852771	PROB	5782	-999	-999	n/a	n/a	n/a	n/a	4	[4, 4, 9]	17	PAL1	0	R1283T
651.919	4.284	858589	PROB	4260	-999	-999	n/a	n/a	n/a	n/a	4	[3, 1, 5]	9	PAL1	0	R1283T
656.203	3.368	862873	PROB	3368	-999	-999	n/a	n/a	n/a	n/a	4	[2, 8, 9]	19	PAL1	0	R1283T
659.571	0.016	866240	STOP	n/a	-999	-999	n/a	n/a	n/a	n/a	4	[-999, -999, -999]	-999	PAL1	0	R1283T
659.587	0.0	866256	MATH_END	n/a	-999	-999	n/a	n/a	n/a	n/a	3	[0, 0, 0]	-999	PAL1	0	R1283T
659.587	0.015	866256	RECALL_START	n/a	-999	-999	n/a	n/a	n/a	n/a	3	[0, 0, 0]	-999	PAL1	0	R1283T
659.602	0.267	866271	TEST_ORIENT	n/a	1	1	BIRD	PASS	ICE	BIRD	3	[0, 0, 0]	-999	PAL1	0	R1283T
659.869	0.651	866538	RETRIEVAL_ORIENT_OFF	n/a	-999	-999	n/a	n/a	n/a	n/a	3	[0, 0, 0]	-999	PAL1	0	R1283T
660.52	0.0	867189	TEST_PROBE	n/a	1	1	BIRD	PASS	ICE	BIRD	3	[0, 0, 0]	-999	PAL1	0	R1283T
660.52	4.017	867189	REC_START	n/a	1	-999	n/a	PASS	n/a	n/a	3	[0, 0, 0]	-999	PAL1	0	R1283T
664.537	0.226	871206	PROBE_OFF	n/a	1	-999	n/a	n/a	n/a	n/a	3	[0, 0, 0]	-999	PAL1	0	R1283T
664.763	0.775	871432	REC_EVENT	4243	1	1	BIRD	PASS	ICE	BIRD	3	[0, 0, 0]	-999	PAL1	0	R1283T
665.538	0.016	872207	REC_END	n/a	1	-999	n/a	n/a	n/a	n/a	3	[0, 0, 0]	-999	PAL1	0	R1283T
665.554	0.266	872223	TEST_ORIENT	n/a	6	2	OAK	PEARL	OAK	PEARL	3	[0, 0, 0]	-999	PAL1	0	R1283T
665.82	0.735	872489	RETRIEVAL_ORIENT_OFF	n/a	1	-999	n/a	n/a	n/a	n/a	3	[0, 0, 0]	-999	PAL1	0	R1283T
666.555	0.0	873224	TEST_PROBE	n/a	6	2	OAK	PEARL	OAK	PEARL	3	[0, 0, 0]	-999	PAL1	0	R1283T
666.555	1.199	873224	REC_START	n/a	6	-999	n/a	PEARL	n/a	n/a	3	[0, 0, 0]	-999	PAL1	0	R1283T
667.754	2.818	874423	REC_EVENT	1199	6	2	OAK	PEARL	OAK	PEARL	3	[0, 0, 0]	-999	PAL1	0	R1283T
670.572	1.001	877241	PROBE_OFF	n/a	6	-999	n/a	n/a	n/a	n/a	3	[0, 0, 0]	-999	PAL1	0	R1283T
671.573	0.016	878242	REC_END	n/a	6	-999	n/a	n/a	n/a	n/a	3	[0, 0, 0]	-999	PAL1	0	R1283T
671.589	0.265	878258	TEST_ORIENT	n/a	5	3	NEST	PASS	FACE	NEST	3	[0, 0, 0]	-999	PAL1	0	R1283T
671.854	0.518	878523	RETRIEVAL_ORIENT_OFF	n/a	6	-999	n/a	n/a	n/a	n/a	3	[0, 0, 0]	-999	PAL1	0	R1283T
672.372	0.001	879041	TEST_PROBE	n/a	5	3	NEST	PASS	FACE	NEST	3	[0, 0, 0]	-999	PAL1	0	R1283T
672.373	4.017	879042	REC_START	n/a	5	-999	n/a	PASS	n/a	n/a	3	[0, 0, 0]	-999	PAL1	0	R1283T
676.39	0.51	883058	PROBE_OFF	n/a	5	-999	n/a	n/a	n/a	n/a	3	[0, 0, 0]	-999	PAL1	0	R1283T
676.9	0.5	883568	REC_EVENT	4527	5	3	NEST	PASS	FACE	NEST	3	[0, 0, 0]	-999	PAL1	0	R1283T
677.4	0.023	884068	REC_END	n/a	5	-999	n/a	n/a	n/a	n/a	3	[0, 0, 0]	-999	PAL1	0	R1283T
677.423	0.266	884091	TEST_ORIENT	n/a	4	4	SOCK	JEEP	JEEP	SOCK	3	[0, 0, 0]	-999	PAL1	0	R1283T
677.689	0.734	884357	RETRIEVAL_ORIENT_OFF	n/a	5	-999	n/a	n/a	n/a	n/a	3	[0, 0, 0]	-999	PAL1	0	R1283T
678.423	0.001	885091	TEST_PROBE	n/a	4	4	SOCK	JEEP	JEEP	SOCK	3	[0, 0, 0]	-999	PAL1	0	R1283T
678.424	1.197	885092	REC_START	n/a	4	-999	n/a	JEEP	n/a	n/a	3	[0, 0, 0]	-999	PAL1	0	R1283T
679.621	2.803	886289	REC_EVENT	1197	4	4	SOCK	JEEP	JEEP	SOCK	3	[0, 0, 0]	-999	PAL1	0	R1283T
682.424	1.001	889092	PROBE_OFF	n/a	4	-999	n/a	n/a	n/a	n/a	3	[0, 0, 0]	-999	PAL1	0	R1283T
683.425	0.016	890093	REC_END	n/a	4	-999	n/a	n/a	n/a	n/a	3	[0, 0, 0]	-999	PAL1	0	R1283T
683.441	0.266	890109	TEST_ORIENT	n/a	3	5	BEAK	OAK	PIG	BEAK	3	[0, 0, 0]	-999	PAL1	0	R1283T
683.707	0.734	890375	RETRIEVAL_ORIENT_OFF	n/a	4	-999	n/a	n/a	n/a	n/a	3	[0, 0, 0]	-999	PAL1	0	R1283T
684.441	0.001	891109	TEST_PROBE	n/a	3	5	BEAK	OAK	PIG	BEAK	3	[0, 0, 0]	-999	PAL1	0	R1283T
684.442	3.596	891110	REC_START	n/a	3	-999	n/a	OAK	n/a	n/a	3	[0, 0, 0]	-999	PAL1	0	R1283T
688.038	0.42	894706	REC_EVENT	3596	3	5	BEAK	OAK	PIG	BEAK	3	[0, 0, 0]	-999	PAL1	0	R1283T
688.458	1.0	895126	PROBE_OFF	n/a	3	-999	n/a	n/a	n/a	n/a	3	[0, 0, 0]	-999	PAL1	0	R1283T
689.458	0.017	896125	REC_END	n/a	3	-999	n/a	n/a	n/a	n/a	3	[0, 0, 0]	-999	PAL1	0	R1283T
689.475	0.266	896142	TEST_ORIENT	n/a	2	6	SKY	PASS	SKY	MOLE	3	[0, 0, 0]	-999	PAL1	0	R1283T
689.741	0.718	896408	RETRIEVAL_ORIENT_OFF	n/a	3	-999	n/a	n/a	n/a	n/a	3	[0, 0, 0]	-999	PAL1	0	R1283T
690.459	0.0	897126	TEST_PROBE	n/a	2	6	SKY	PASS	SKY	MOLE	3	[0, 0, 0]	-999	PAL1	0	R1283T
690.459	3.606	897126	REC_START	n/a	2	-999	n/a	PASS	n/a	n/a	3	[0, 0, 0]	-999	PAL1	0	R1283T
694.065	0.411	900732	REC_EVENT	3606	2	6	SKY	PASS	SKY	MOLE	3	[0, 0, 0]	-999	PAL1	0	R1283T
694.476	1.0	901143	PROBE_OFF	n/a	2	-999	n/a	n/a	n/a	n/a	3	[0, 0, 0]	-999	PAL1	0	R1283T
695.476	0.005	902143	REC_END	n/a	2	-999	n/a	n/a	n/a	n/a	3	[0, 0, 0]	-999	PAL1	0	R1283T
695.481	4.596	902148	RECALL_END	n/a	-999	-999	n/a	n/a	n/a	n/a	3	[0, 0, 0]	-999	PAL1	0	R1283T
700.077	10.929	906744	TRIAL	n/a	-999	-999	n/a	n/a	n/a	n/a	4	[0, 0, 0]	-999	PAL1	0	R1283T
711.006	0.007	917672	ENCODING_START	n/a	-999	-999	n/a	n/a	n/a	n/a	4	[0, 0, 0]	-999	PAL1	0	R1283T
711.013	0.266	917679	STUDY_ORIENT	n/a	1	5	SLUSH	n/a	LEG	SLUSH	4	[0, 0, 0]	-999	PAL1	0	R1283T
711.279	0.667	917945	STUDY_ORIENT_OFF	n/a	1	5	SLUSH	n/a	LEG	SLUSH	4	[0, 0, 0]	-999	PAL1	0	R1283T
711.946	4.018	918612	STUDY_PAIR	n/a	1	5	SLUSH	n/a	LEG	SLUSH	4	[0, 0, 0]	-999	PAL1	0	R1283T
715.964	1.016	922630	PAIR_OFF	n/a	1	5	SLUSH	n/a	LEG	SLUSH	4	[0, 0, 0]	-999	PAL1	0	R1283T
716.98	0.267	923646	STUDY_ORIENT	n/a	2	6	SMOKE	PASS	SMOKE	WOLF	4	[0, 0, 0]	-999	PAL1	0	R1283T
717.247	0.767	923913	STUDY_ORIENT_OFF	n/a	2	6	SMOKE	PASS	SMOKE	WOLF	4	[0, 0, 0]	-999	PAL1	0	R1283T
718.014	4.017	924680	STUDY_PAIR	n/a	2	6	SMOKE	PASS	SMOKE	WOLF	4	[0, 0, 0]	-999	PAL1	0	R1283T
722.031	1.017	928696	PAIR_OFF	n/a	2	6	SMOKE	PASS	SMOKE	WOLF	4	[0, 0, 0]	-999	PAL1	0	R1283T
723.048	0.267	929713	STUDY_ORIENT	n/a	3	1	VEST	PET	VEST	PET	4	[0, 0, 0]	-999	PAL1	0	R1283T
723.315	0.549	929980	STUDY_ORIENT_OFF	n/a	3	1	VEST	PET	VEST	PET	4	[0, 0, 0]	-999	PAL1	0	R1283T
723.864	4.018	930529	STUDY_PAIR	n/a	3	1	VEST	PET	VEST	PET	4	[0, 0, 0]	-999	PAL1	0	R1283T
727.882	1.017	934547	PAIR_OFF	n/a	3	1	VEST	PET	VEST	PET	4	[0, 0, 0]	-999	PAL1	0	R1283T
728.899	0.267	935564	STUDY_ORIENT	n/a	4	4	EGG	BIRD	EGG	CLOCK	4	[0, 0, 0]	-999	PAL1	0	R1283T
729.166	0.632	935831	STUDY_ORIENT_OFF	n/a	4	4	EGG	BIRD	EGG	CLOCK	4	[0, 0, 0]	-999	PAL1	0	R1283T
729.798	4.001	936463	STUDY_PAIR	n/a	4	4	EGG	BIRD	EGG	CLOCK	4	[0, 0, 0]	-999	PAL1	0	R1283T
733.799	1.017	940464	PAIR_OFF	n/a	4	4	EGG	BIRD	EGG	CLOCK	4	[0, 0, 0]	-999	PAL1	0	R1283T
734.816	0.268	941481	STUDY_ORIENT	n/a	5	3	PASTE	LEG	MILK	PASTE	4	[0, 0, 0]	-999	PAL1	0	R1283T
735.084	0.599	941749	STUDY_ORIENT_OFF	n/a	5	3	PASTE	LEG	MILK	PASTE	4	[0, 0, 0]	-999	PAL1	0	R1283T
735.683	4.017	942348	STUDY_PAIR	n/a	5	3	PASTE	LEG	MILK	PASTE	4	[0, 0, 0]	-999	PAL1	0	R1283T
739.7	1.017	946364	PAIR_OFF	n/a	5	3	PASTE	LEG	MILK	PASTE	4	[0, 0, 0]	-999	PAL1	0	R1283T
740.717	0.268	947381	STUDY_ORIENT	n/a	6	2	STEAM	PASS	STEAM	ROSE	4	[0, 0, 0]	-999	PAL1	0	R1283T
740.985	0.55	947649	STUDY_ORIENT_OFF	n/a	6	2	STEAM	PASS	STEAM	ROSE	4	[0, 0, 0]	-999	PAL1	0	R1283T
741.535	4.017	948199	STUDY_PAIR	n/a	6	2	STEAM	PASS	STEAM	ROSE	4	[0, 0, 0]	-999	PAL1	0	R1283T
745.552	1.0	952216	PAIR_OFF	n/a	6	2	STEAM	PASS	STEAM	ROSE	4	[0, 0, 0]	-999	PAL1	0	R1283T
746.552	0.0	953216	ENCODING_END	n/a	-999	-999	n/a	n/a	n/a	n/a	4	[0, 0, 0]	-999	PAL1	0	R1283T
746.552	0.0	953216	MATH_START	n/a	-999	-999	n/a	n/a	n/a	n/a	4	[0, 0, 0]	-999	PAL1	0	R1283T
746.552	0.017	953216	START	n/a	-999	-999	n/a	n/a	n/a	n/a	5	[-999, -999, -999]	-999	PAL1	0	R1283T
746.569	5.968	953233	PROB	5938	-999	-999	n/a	n/a	n/a	n/a	5	[2, 6, 9]	17	PAL1	0	R1283T
752.537	4.551	959201	PROB	4522	-999	-999	n/a	n/a	n/a	n/a	5	[4, 5, 9]	18	PAL1	0	R1283T
757.088	3.716	963751	PROB	3690	-999	-999	n/a	n/a	n/a	n/a	5	[1, 9, 8]	18	PAL1	0	R1283T
760.804	4.702	967467	PROB	4679	-999	-999	n/a	n/a	n/a	n/a	5	[8, 4, 7]	19	PAL1	0	R1283T
765.506	2.953	972169	PROB	2953	-999	-999	n/a	n/a	n/a	n/a	5	[5, 5, 3]	13	PAL1	0	R1283T
768.459	0.014	975122	STOP	n/a	-999	-999	n/a	n/a	n/a	n/a	5	[-999, -999, -999]	-999	PAL1	0	R1283T
768.473	0.0	975136	MATH_END	n/a	-999	-999	n/a	n/a	n/a	n/a	4	[0, 0, 0]	-999	PAL1	0	R1283T
768.473	0.017	975136	RECALL_START	n/a	-999	-999	n/a	n/a	n/a	n/a	4	[0, 0, 0]	-999	PAL1	0	R1283T
768.49	0.265	975153	TEST_ORIENT	n/a	3	1	VEST	PET	VEST	PET	4	[0, 0, 0]	-999	PAL1	0	R1283T
768.755	0.768	975418	RETRIEVAL_ORIENT_OFF	n/a	-999	-999	n/a	n/a	n/a	n/a	4	[0, 0, 0]	-999	PAL1	0	R1283T
769.523	0.001	976186	TEST_PROBE	n/a	3	1	VEST	PET	VEST	PET	4	[0, 0, 0]	-999	PAL1	0	R1283T
769.524	2.357	976187	REC_START	n/a	3	-999	n/a	PET	n/a	n/a	4	[0, 0, 0]	-999	PAL1	0	R1283T
771.881	1.66	978543	REC_EVENT	2357	3	1	VEST	PET	VEST	PET	4	[0, 0, 0]	-999	PAL1	0	R1283T
773.541	1.0	980203	PROBE_OFF	n/a	3	-999	n/a	n/a	n/a	n/a	4	[0, 0, 0]	-999	PAL1	0	R1283T
774.541	0.017	981203	REC_END	n/a	3	-999	n/a	n/a	n/a	n/a	4	[0, 0, 0]	-999	PAL1	0	R1283T
774.558	0.265	981220	TEST_ORIENT	n/a	6	2	STEAM	PASS	STEAM	ROSE	4	[0, 0, 0]	-999	PAL1	0	R1283T
774.823	0.568	981485	RETRIEVAL_ORIENT_OFF	n/a	3	-999	n/a	n/a	n/a	n/a	4	[0, 0, 0]	-999	PAL1	0	R1283T
775.391	0.001	982053	TEST_PROBE	n/a	6	2	STEAM	PASS	STEAM	ROSE	4	[0, 0, 0]	-999	PAL1	0	R1283T
775.392	2.492	982054	REC_START	n/a	6	-999	n/a	PASS	n/a	n/a	4	[0, 0, 0]	-999	PAL1	0	R1283T
777.884	1.524	984546	REC_EVENT	2492	6	2	STEAM	PASS	STEAM	ROSE	4	[0, 0, 0]	-999	PAL1	0	R1283T
779.408	1.0	986070	PROBE_OFF	n/a	6	-999	n/a	n/a	n/a	n/a	4	[0, 0, 0]	-999	PAL1	0	R1283T
780.408	0.017	987070	REC_END	n/a	6	-999	n/a	n/a	n/a	n/a	4	[0, 0, 0]	-999	PAL1	0	R1283T
780.425	0.266	987087	TEST_ORIENT	n/a	5	3	PASTE	LEG	MILK	PASTE	4	[0, 0, 0]	-999	PAL1	0	R1283T
780.691	0.551	987353	RETRIEVAL_ORIENT_OFF	n/a	6	-999	n/a	n/a	n/a	n/a	4	[0, 0, 0]	-999	PAL1	0	R1283T
781.242	0.001	987904	TEST_PROBE	n/a	5	3	PASTE	LEG	MILK	PASTE	4	[0, 0, 0]	-999	PAL1	0	R1283T
781.243	3.473	987905	REC_START	n/a	5	-999	n/a	LEG	n/a	n/a	4	[0, 0, 0]	-999	PAL1	0	R1283T
784.716	0.544	991378	REC_EVENT	3473	5	3	PASTE	LEG	MILK	PASTE	4	[0, 0, 0]	-999	PAL1	0	R1283T
785.26	1.0	991922	PROBE_OFF	n/a	5	-999	n/a	n/a	n/a	n/a	4	[0, 0, 0]	-999	PAL1	0	R1283T
786.26	0.016	992922	REC_END	n/a	5	-999	n/a	n/a	n/a	n/a	4	[0, 0, 0]	-999	PAL1	0	R1283T
786.276	0.267	992938	TEST_ORIENT	n/a	4	4	EGG	BIRD	EGG	CLOCK	4	[0, 0, 0]	-999	PAL1	0	R1283T
786.543	0.55	993205	RETRIEVAL_ORIENT_OFF	n/a	5	-999	n/a	n/a	n/a	n/a	4	[0, 0, 0]	-999	PAL1	0	R1283T
787.093	0.001	993755	TEST_PROBE	n/a	4	4	EGG	BIRD	EGG	CLOCK	4	[0, 0, 0]	-999	PAL1	0	R1283T
787.094	3.559	993756	REC_START	n/a	4	-999	n/a	BIRD	n/a	n/a	4	[0, 0, 0]	-999	PAL1	0	R1283T
790.653	0.458	997314	REC_EVENT	3559	4	4	EGG	BIRD	EGG	CLOCK	4	[0, 0, 0]	-999	PAL1	0	R1283T
791.111	1.0	997772	PROBE_OFF	n/a	4	-999	n/a	n/a	n/a	n/a	4	[0, 0, 0]	-999	PAL1	0	R1283T
792.111	0.016	998772	REC_END	n/a	4	-999	n/a	n/a	n/a	n/a	4	[0, 0, 0]	-999	PAL1	0	R1283T
792.127	0.267	998788	TEST_ORIENT	n/a	1	5	SLUSH	n/a	LEG	SLUSH	4	[0, 0, 0]	-999	PAL1	0	R1283T
792.394	0.567	999055	RETRIEVAL_ORIENT_OFF	n/a	4	-999	n/a	n/a	n/a	n/a	4	[0, 0, 0]	-999	PAL1	0	R1283T
792.961	0.0	999622	TEST_PROBE	n/a	1	5	SLUSH	n/a	LEG	SLUSH	4	[0, 0, 0]	-999	PAL1	0	R1283T
792.961	4.017	999622	REC_START	n/a	1	-999	n/a	n/a	n/a	n/a	4	[0, 0, 0]	-999	PAL1	0	R1283T
796.978	0.998	1003639	PROBE_OFF	n/a	1	-999	n/a	n/a	n/a	n/a	4	[0, 0, 0]	-999	PAL1	0	R1283T
797.976	0.002	1004637	REC_EVENT	5015	1	5	SLUSH	<>	LEG	SLUSH	4	[0, 0, 0]	-999	PAL1	0	R1283T
797.978	0.017	1004639	REC_END	n/a	1	-999	n/a	n/a	n/a	n/a	4	[0, 0, 0]	-999	PAL1	0	R1283T
797.995	0.267	1004656	TEST_ORIENT	n/a	2	6	SMOKE	PASS	SMOKE	WOLF	4	[0, 0, 0]	-999	PAL1	0	R1283T
798.262	0.65	1004923	RETRIEVAL_ORIENT_OFF	n/a	1	-999	n/a	n/a	n/a	n/a	4	[0, 0, 0]	-999	PAL1	0	R1283T
798.912	0.0	1005573	TEST_PROBE	n/a	2	6	SMOKE	PASS	SMOKE	WOLF	4	[0, 0, 0]	-999	PAL1	0	R1283T
798.912	3.665	1005573	REC_START	n/a	2	-999	n/a	PASS	n/a	n/a	4	[0, 0, 0]	-999	PAL1	0	R1283T
802.577	0.352	1009238	REC_EVENT	3665	2	6	SMOKE	PASS	SMOKE	WOLF	4	[0, 0, 0]	-999	PAL1	0	R1283T
802.929	1.001	1009590	PROBE_OFF	n/a	2	-999	n/a	n/a	n/a	n/a	4	[0, 0, 0]	-999	PAL1	0	R1283T
803.93	0.011	1010590	REC_END	n/a	2	-999	n/a	n/a	n/a	n/a	4	[0, 0, 0]	-999	PAL1	0	R1283T
803.941	4.223	1010601	RECALL_END	n/a	-999	-999	n/a	n/a	n/a	n/a	4	[0, 0, 0]	-999	PAL1	0	R1283T
808.164	10.928	1014824	TRIAL	n/a	-999	-999	n/a	n/a	n/a	n/a	5	[0, 0, 0]	-999	PAL1	0	R1283T
819.092	0.007	1025752	ENCODING_START	n/a	-999	-999	n/a	n/a	n/a	n/a	5	[0, 0, 0]	-999	PAL1	0	R1283T
819.099	0.267	1025759	STUDY_ORIENT	n/a	1	3	SHIELD	COW	LOCK	SHIELD	5	[0, 0, 0]	-999	PAL1	0	R1283T
819.366	0.75	1026026	STUDY_ORIENT_OFF	n/a	1	3	SHIELD	COW	LOCK	SHIELD	5	[0, 0, 0]	-999	PAL1	0	R1283T
820.116	4.017	1026775	STUDY_PAIR	n/a	1	3	SHIELD	COW	LOCK	SHIELD	5	[0, 0, 0]	-999	PAL1	0	R1283T
824.133	1.017	1030792	PAIR_OFF	n/a	1	3	SHIELD	COW	LOCK	SHIELD	5	[0, 0, 0]	-999	PAL1	0	R1283T
825.15	0.267	1031809	STUDY_ORIENT	n/a	2	2	LAMP	n/a	COW	LAMP	5	[0, 0, 0]	-999	PAL1	0	R1283T
825.417	0.667	1032076	STUDY_ORIENT_OFF	n/a	2	2	LAMP	n/a	COW	LAMP	5	[0, 0, 0]	-999	PAL1	0	R1283T
826.084	4.017	1032743	STUDY_PAIR	n/a	2	2	LAMP	n/a	COW	LAMP	5	[0, 0, 0]	-999	PAL1	0	R1283T
830.101	1.017	1036760	PAIR_OFF	n/a	2	2	LAMP	n/a	COW	LAMP	5	[0, 0, 0]	-999	PAL1	0	R1283T
831.118	0.267	1037777	STUDY_ORIENT	n/a	3	5	STEAK	SQUARE	STEAK	SQUARE	5	[0, 0, 0]	-999	PAL1	0	R1283T
831.385	0.583	1038044	STUDY_ORIENT_OFF	n/a	3	5	STEAK	SQUARE	STEAK	SQUARE	5	[0, 0, 0]	-999	PAL1	0	R1283T
831.968	4.017	1038627	STUDY_PAIR	n/a	3	5	STEAK	SQUARE	STEAK	SQUARE	5	[0, 0, 0]	-999	PAL1	0	R1283T
835.985	1.017	1042644	PAIR_OFF	n/a	3	5	STEAK	SQUARE	STEAK	SQUARE	5	[0, 0, 0]	-999	PAL1	0	R1283T
837.002	0.267	1043660	STUDY_ORIENT	n/a	4	6	CRANE	YARD	LAWN	CRANE	5	[0, 0, 0]	-999	PAL1	0	R1283T
837.269	0.582	1043927	STUDY_ORIENT_OFF	n/a	4	6	CRANE	YARD	LAWN	CRANE	5	[0, 0, 0]	-999	PAL1	0	R1283T
837.851	4.018	1044509	STUDY_PAIR	n/a	4	6	CRANE	YARD	LAWN	CRANE	5	[0, 0, 0]	-999	PAL1	0	R1283T
841.869	1.018	1048527	PAIR_OFF	n/a	4	6	CRANE	YARD	LAWN	CRANE	5	[0, 0, 0]	-999	PAL1	0	R1283T
842.887	0.266	1049545	STUDY_ORIENT	n/a	5	1	GLOVE	PARK	SPARK	GLOVE	5	[0, 0, 0]	-999	PAL1	0	R1283T
843.153	0.616	1049811	STUDY_ORIENT_OFF	n/a	5	1	GLOVE	PARK	SPARK	GLOVE	5	[0, 0, 0]	-999	PAL1	0	R1283T
843.769	4.017	1050427	STUDY_PAIR	n/a	5	1	GLOVE	PARK	SPARK	GLOVE	5	[0, 0, 0]	-999	PAL1	0	R1283T
847.786	1.017	1054444	PAIR_OFF	n/a	5	1	GLOVE	PARK	SPARK	GLOVE	5	[0, 0, 0]	-999	PAL1	0	R1283T
848.803	0.251	1055461	STUDY_ORIENT	n/a	6	4	TOOTH	SHIELD	GUARD	TOOTH	5	[0, 0, 0]	-999	PAL1	0	R1283T
849.054	0.7	1055712	STUDY_ORIENT_OFF	n/a	6	4	TOOTH	SHIELD	GUARD	TOOTH	5	[0, 0, 0]	-999	PAL1	0	R1283T
849.754	4.017	1056412	STUDY_PAIR	n/a	6	4	TOOTH	SHIELD	GUARD	TOOTH	5	[0, 0, 0]	-999	PAL1	0	R1283T
853.771	1.0	1060428	PAIR_OFF	n/a	6	4	TOOTH	SHIELD	GUARD	TOOTH	5	[0, 0, 0]	-999	PAL1	0	R1283T
854.771	0.0	1061428	ENCODING_END	n/a	-999	-999	n/a	n/a	n/a	n/a	5	[0, 0, 0]	-999	PAL1	0	R1283T
854.771	0.001	1061428	MATH_START	n/a	-999	-999	n/a	n/a	n/a	n/a	5	[0, 0, 0]	-999	PAL1	0	R1283T
854.772	0.016	1061429	START	n/a	-999	-999	n/a	n/a	n/a	n/a	6	[-999, -999, -999]	-999	PAL1	0	R1283T
854.788	4.602	1061445	PROB	4574	-999	-999	n/a	n/a	n/a	n/a	6	[4, 5, 1]	10	PAL1	0	R1283T
859.39	4.299	1066047	PROB	4268	-999	-999	n/a	n/a	n/a	n/a	6	[3, 8, 9]	20	PAL1	0	R1283T
863.689	5.219	1070346	PROB	5194	-999	-999	n/a	n/a	n/a	n/a	6	[1, 3, 4]	8	PAL1	0	R1283T
868.908	5.418	1075564	PROB	5383	-999	-999	n/a	n/a	n/a	n/a	6	[6, 9, 2]	17	PAL1	0	R1283T
874.326	4.117	1080982	PROB	4117	-999	-999	n/a	n/a	n/a	n/a	6	[7, 7, 4]	18	PAL1	0	R1283T
878.443	0.017	1085099	STOP	n/a	-999	-999	n/a	n/a	n/a	n/a	6	[-999, -999, -999]	-999	PAL1	0	R1283T
878.46	0.0	1085116	MATH_END	n/a	-999	-999	n/a	n/a	n/a	n/a	5	[0, 0, 0]	-999	PAL1	0	R1283T
878.46	0.016	1085116	RECALL_START	n/a	-999	-999	n/a	n/a	n/a	n/a	5	[0, 0, 0]	-999	PAL1	0	R1283T
878.476	0.266	1085132	TEST_ORIENT	n/a	5	1	GLOVE	PARK	SPARK	GLOVE	5	[0, 0, 0]	-999	PAL1	0	R1283T
878.742	0.685	1085398	RETRIEVAL_ORIENT_OFF	n/a	-999	-999	n/a	n/a	n/a	n/a	5	[0, 0, 0]	-999	PAL1	0	R1283T
879.427	0.0	1086083	TEST_PROBE	n/a	5	1	GLOVE	PARK	SPARK	GLOVE	5	[0, 0, 0]	-999	PAL1	0	R1283T
879.427	4.017	1086083	REC_START	n/a	5	-999	n/a	PARK	n/a	n/a	5	[0, 0, 0]	-999	PAL1	0	R1283T
883.444	0.333	1090100	PROBE_OFF	n/a	5	-999	n/a	n/a	n/a	n/a	5	[0, 0, 0]	-999	PAL1	0	R1283T
883.777	0.678	1090433	REC_EVENT	4350	5	1	GLOVE	PARK	SPARK	GLOVE	5	[0, 0, 0]	-999	PAL1	0	R1283T
884.455	0.023	1091111	REC_END	n/a	5	-999	n/a	n/a	n/a	n/a	5	[0, 0, 0]	-999	PAL1	0	R1283T
884.478	0.265	1091134	TEST_ORIENT	n/a	2	2	LAMP	n/a	COW	LAMP	5	[0, 0, 0]	-999	PAL1	0	R1283T
884.743	0.618	1091399	RETRIEVAL_ORIENT_OFF	n/a	5	-999	n/a	n/a	n/a	n/a	5	[0, 0, 0]	-999	PAL1	0	R1283T
885.361	0.0	1092016	TEST_PROBE	n/a	2	2	LAMP	n/a	COW	LAMP	5	[0, 0, 0]	-999	PAL1	0	R1283T
885.361	4.017	1092016	REC_START	n/a	2	-999	n/a	n/a	n/a	n/a	5	[0, 0, 0]	-999	PAL1	0	R1283T
889.378	0.998	1096033	PROBE_OFF	n/a	2	-999	n/a	n/a	n/a	n/a	5	[0, 0, 0]	-999	PAL1	0	R1283T
890.376	0.003	1097031	REC_EVENT	5015	2	2	LAMP	<>	COW	LAMP	5	[0, 0, 0]	-999	PAL1	0	R1283T
890.379	0.016	1097034	REC_END	n/a	2	-999	n/a	n/a	n/a	n/a	5	[0, 0, 0]	-999	PAL1	0	R1283T
890.395	0.266	1097050	TEST_ORIENT	n/a	1	3	SHIELD	COW	LOCK	SHIELD	5	[0, 0, 0]	-999	PAL1	0	R1283T
890.661	0.734	1097316	RETRIEVAL_ORIENT_OFF	n/a	2	-999	n/a	n/a	n/a	n/a	5	[0, 0, 0]	-999	PAL1	0	R1283T
891.395	0.001	1098050	TEST_PROBE	n/a	1	3	SHIELD	COW	LOCK	SHIELD	5	[0, 0, 0]	-999	PAL1	0	R1283T
891.396	2.883	1098051	REC_START	n/a	1	-999	n/a	COW	n/a	n/a	5	[0, 0, 0]	-999	PAL1	0	R1283T
894.279	1.117	1100934	REC_EVENT	2883	1	3	SHIELD	COW	LOCK	SHIELD	5	[0, 0, 0]	-999	PAL1	0	R1283T
895.396	1.013	1102051	PROBE_OFF	n/a	1	-999	n/a	n/a	n/a	n/a	5	[0, 0, 0]	-999	PAL1	0	R1283T
896.409	0.021	1103064	REC_END	n/a	1	-999	n/a	n/a	n/a	n/a	5	[0, 0, 0]	-999	PAL1	0	R1283T
896.43	0.265	1103085	TEST_ORIENT	n/a	6	4	TOOTH	SHIELD	GUARD	TOOTH	5	[0, 0, 0]	-999	PAL1	0	R1283T
896.695	0.602	1103350	RETRIEVAL_ORIENT_OFF	n/a	1	-999	n/a	n/a	n/a	n/a	5	[0, 0, 0]	-999	PAL1	0	R1283T
897.297	0.0	1103952	TEST_PROBE	n/a	6	4	TOOTH	SHIELD	GUARD	TOOTH	5	[0, 0, 0]	-999	PAL1	0	R1283T
897.297	3.819	1103952	REC_START	n/a	6	-999	n/a	SHIELD	n/a	n/a	5	[0, 0, 0]	-999	PAL1	0	R1283T
901.116	0.198	1107771	REC_EVENT	3819	6	4	TOOTH	SHIELD	GUARD	TOOTH	5	[0, 0, 0]	-999	PAL1	0	R1283T
901.314	1.0	1107969	PROBE_OFF	n/a	6	-999	n/a	n/a	n/a	n/a	5	[0, 0, 0]	-999	PAL1	0	R1283T
902.314	0.017	1108968	REC_END	n/a	6	-999	n/a	n/a	n/a	n/a	5	[0, 0, 0]	-999	PAL1	0	R1283T
902.331	0.265	1108985	TEST_ORIENT	n/a	3	5	STEAK	SQUARE	STEAK	SQUARE	5	[0, 0, 0]	-999	PAL1	0	R1283T
902.596	0.635	1109250	RETRIEVAL_ORIENT_OFF	n/a	6	-999	n/a	n/a	n/a	n/a	5	[0, 0, 0]	-999	PAL1	0	R1283T
903.231	0.001	1109885	TEST_PROBE	n/a	3	5	STEAK	SQUARE	STEAK	SQUARE	5	[0, 0, 0]	-999	PAL1	0	R1283T
903.232	2.211	1109886	REC_START	n/a	3	-999	n/a	SQUARE	n/a	n/a	5	[0, 0, 0]	-999	PAL1	0	R1283T
905.443	1.805	1112097	REC_EVENT	2211	3	5	STEAK	SQUARE	STEAK	SQUARE	5	[0, 0, 0]	-999	PAL1	0	R1283T
907.248	1.0	1113902	PROBE_OFF	n/a	3	-999	n/a	n/a	n/a	n/a	5	[0, 0, 0]	-999	PAL1	0	R1283T
908.248	0.017	1114902	REC_END	n/a	3	-999	n/a	n/a	n/a	n/a	5	[0, 0, 0]	-999	PAL1	0	R1283T
908.265	0.267	1114919	TEST_ORIENT	n/a	4	6	CRANE	YARD	LAWN	CRANE	5	[0, 0, 0]	-999	PAL1	0	R1283T
908.532	0.717	1115186	RETRIEVAL_ORIENT_OFF	n/a	3	-999	n/a	n/a	n/a	n/a	5	[0, 0, 0]	-999	PAL1	0	R1283T
909.249	0.0	1115903	TEST_PROBE	n/a	4	6	CRANE	YARD	LAWN	CRANE	5	[0, 0, 0]	-999	PAL1	0	R1283T
909.249	1.692	1115903	REC_START	n/a	4	-999	n/a	YARD	n/a	n/a	5	[0, 0, 0]	-999	PAL1	0	R1283T
910.941	2.325	1117595	REC_EVENT	1692	4	6	CRANE	YARD	LAWN	CRANE	5	[0, 0, 0]	-999	PAL1	0	R1283T
913.266	1.0	1119920	PROBE_OFF	n/a	4	-999	n/a	n/a	n/a	n/a	5	[0, 0, 0]	-999	PAL1	0	R1283T
914.266	0.01	1120920	REC_END	n/a	4	-999	n/a	n/a	n/a	n/a	5	[0, 0, 0]	-999	PAL1	0	R1283T
914.276	4.241	1120930	RECALL_END	n/a	-999	-999	n/a	n/a	n/a	n/a	5	[0, 0, 0]	-999	PAL1	0	R1283T
918.517	10.928	1125170	TRIAL	n/a	-999	-999	n/a	n/a	n/a	n/a	6	[0, 0, 0]	-999	PAL1	0	R1283T
929.445	0.007	1136098	ENCODING_START	n/a	-999	-999	n/a	n/a	n/a	n/a	6	[0, 0, 0]	-999	PAL1	0	R1283T
929.452	0.266	1136105	STUDY_ORIENT	n/a	1	1	POOL	n/a	POOL	ROOM	6	[0, 0, 0]	-999	PAL1	0	R1283T
929.718	0.718	1136371	STUDY_ORIENT_OFF	n/a	1	1	POOL	n/a	POOL	ROOM	6	[0, 0, 0]	-999	PAL1	0	R1283T
930.436	4.017	1137089	STUDY_PAIR	n/a	1	1	POOL	n/a	POOL	ROOM	6	[0, 0, 0]	-999	PAL1	0	R1283T
934.453	1.017	1141105	PAIR_OFF	n/a	1	1	POOL	n/a	POOL	ROOM	6	[0, 0, 0]	-999	PAL1	0	R1283T
935.47	0.266	1142122	STUDY_ORIENT	n/a	2	2	JAR	GRAPE	GRAPE	JAR	6	[0, 0, 0]	-999	PAL1	0	R1283T
935.736	0.617	1142388	STUDY_ORIENT_OFF	n/a	2	2	JAR	GRAPE	GRAPE	JAR	6	[0, 0, 0]	-999	PAL1	0	R1283T
936.353	4.018	1143005	STUDY_PAIR	n/a	2	2	JAR	GRAPE	GRAPE	JAR	6	[0, 0, 0]	-999	PAL1	0	R1283T
940.371	1.017	1147023	PAIR_OFF	n/a	2	2	JAR	GRAPE	GRAPE	JAR	6	[0, 0, 0]	-999	PAL1	0	R1283T
941.388	0.266	1148040	STUDY_ORIENT	n/a	3	5	WHEEL	DOLL	DOLL	WHEEL	6	[0, 0, 0]	-999	PAL1	0	R1283T
941.654	0.751	1148306	STUDY_ORIENT_OFF	n/a	3	5	WHEEL	DOLL	DOLL	WHEEL	6	[0, 0, 0]	-999	PAL1	0	R1283T
942.405	4.017	1149057	STUDY_PAIR	n/a	3	5	WHEEL	DOLL	DOLL	WHEEL	6	[0, 0, 0]	-999	PAL1	0	R1283T
946.422	1.017	1153074	PAIR_OFF	n/a	3	5	WHEEL	DOLL	DOLL	WHEEL	6	[0, 0, 0]	-999	PAL1	0	R1283T
947.439	0.266	1154091	STUDY_ORIENT	n/a	4	4	NAIL	SHRIMP	SHRIMP	NAIL	6	[0, 0, 0]	-999	PAL1	0	R1283T
947.705	0.551	1154357	STUDY_ORIENT_OFF	n/a	4	4	NAIL	SHRIMP	SHRIMP	NAIL	6	[0, 0, 0]	-999	PAL1	0	R1283T
948.256	4.017	1154908	STUDY_PAIR	n/a	4	4	NAIL	SHRIMP	SHRIMP	NAIL	6	[0, 0, 0]	-999	PAL1	0	R1283T
952.273	1.017	1158924	PAIR_OFF	n/a	4	4	NAIL	SHRIMP	SHRIMP	NAIL	6	[0, 0, 0]	-999	PAL1	0	R1283T
953.29	0.267	1159941	STUDY_ORIENT	n/a	5	3	CHIEF	PHONE	PHONE	CHIEF	6	[0, 0, 0]	-999	PAL1	0	R1283T
953.557	0.7	1160208	STUDY_ORIENT_OFF	n/a	5	3	CHIEF	PHONE	PHONE	CHIEF	6	[0, 0, 0]	-999	PAL1	0	R1283T
954.257	4.017	1160908	STUDY_PAIR	n/a	5	3	CHIEF	PHONE	PHONE	CHIEF	6	[0, 0, 0]	-999	PAL1	0	R1283T
958.274	1.017	1164925	PAIR_OFF	n/a	5	3	CHIEF	PHONE	PHONE	CHIEF	6	[0, 0, 0]	-999	PAL1	0	R1283T
959.291	0.267	1165942	STUDY_ORIENT	n/a	6	6	SKI	n/a	BOX	SKI	6	[0, 0, 0]	-999	PAL1	0	R1283T
959.558	0.733	1166209	STUDY_ORIENT_OFF	n/a	6	6	SKI	n/a	BOX	SKI	6	[0, 0, 0]	-999	PAL1	0	R1283T
960.291	4.018	1166942	STUDY_PAIR	n/a	6	6	SKI	n/a	BOX	SKI	6	[0, 0, 0]	-999	PAL1	0	R1283T
964.309	1.0	1170960	PAIR_OFF	n/a	6	6	SKI	n/a	BOX	SKI	6	[0, 0, 0]	-999	PAL1	0	R1283T
965.309	0.0	1171960	ENCODING_END	n/a	-999	-999	n/a	n/a	n/a	n/a	6	[0, 0, 0]	-999	PAL1	0	R1283T
965.309	0.0	1171960	MATH_START	n/a	-999	-999	n/a	n/a	n/a	n/a	6	[0, 0, 0]	-999	PAL1	0	R1283T
965.309	0.017	1171960	START	n/a	-999	-999	n/a	n/a	n/a	n/a	7	[-999, -999, -999]	-999	PAL1	0	R1283T
965.326	3.684	1171977	PROB	3653	-999	-999	n/a	n/a	n/a	n/a	7	[3, 3, 1]	7	PAL1	0	R1283T
969.01	2.766	1175660	PROB	2743	-999	-999	n/a	n/a	n/a	n/a	7	[9, 1, 5]	15	PAL1	0	R1283T
971.776	3.668	1178426	PROB	3634	-999	-999	n/a	n/a	n/a	n/a	7	[7, 1, 7]	15	PAL1	0	R1283T
975.444	4.634	1182094	PROB	4607	-999	-999	n/a	n/a	n/a	n/a	7	[9, 7, 7]	23	PAL1	0	R1283T
980.078	4.334	1186728	PROB	4301	-999	-999	n/a	n/a	n/a	n/a	7	[5, 6, 1]	12	PAL1	0	R1283T
984.412	3.358	1191061	PROB	3358	-999	-999	n/a	n/a	n/a	n/a	7	[4, 6, 7]	17	PAL1	0	R1283T
987.77	0.009	1194419	STOP	n/a	-999	-999	n/a	n/a	n/a	n/a	7	[-999, -999, -999]	-999	PAL1	0	R1283T
987.779	0.0	1194428	MATH_END	n/a	-999	-999	n/a	n/a	n/a	n/a	6	[0, 0, 0]	-999	PAL1	0	R1283T
987.779	0.016	1194428	RECALL_START	n/a	-999	-999	n/a	n/a	n/a	n/a	6	[0, 0, 0]	-999	PAL1	0	R1283T
987.795	0.268	1194444	TEST_ORIENT	n/a	1	1	POOL	n/a	POOL	ROOM	6	[0, 0, 0]	-999	PAL1	0	R1283T
988.063	0.566	1194712	RETRIEVAL_ORIENT_OFF	n/a	-999	-999	n/a	n/a	n/a	n/a	6	[0, 0, 0]	-999	PAL1	0	R1283T
988.629	0.0	1195278	TEST_PROBE	n/a	1	1	POOL	n/a	POOL	ROOM	6	[0, 0, 0]	-999	PAL1	0	R1283T
988.629	4.017	1195278	REC_START	n/a	1	-999	n/a	n/a	n/a	n/a	6	[0, 0, 0]	-999	PAL1	0	R1283T
992.646	0.055	1199295	PROBE_OFF	n/a	1	-999	n/a	n/a	n/a	n/a	6	[0, 0, 0]	-999	PAL1	0	R1283T
992.701	0.945	1199350	REC_EVENT	4072	1	1	POOL	<>	POOL	ROOM	6	[0, 0, 0]	-999	PAL1	0	R1283T
993.646	0.017	1200295	REC_END	n/a	1	-999	n/a	n/a	n/a	n/a	6	[0, 0, 0]	-999	PAL1	0	R1283T
993.663	0.251	1200312	TEST_ORIENT	n/a	2	2	JAR	GRAPE	GRAPE	JAR	6	[0, 0, 0]	-999	PAL1	0	R1283T
993.914	0.534	1200563	RETRIEVAL_ORIENT_OFF	n/a	1	-999	n/a	n/a	n/a	n/a	6	[0, 0, 0]	-999	PAL1	0	R1283T
994.448	0.0	1201097	TEST_PROBE	n/a	2	2	JAR	GRAPE	GRAPE	JAR	6	[0, 0, 0]	-999	PAL1	0	R1283T
994.448	1.941	1201097	REC_START	n/a	2	-999	n/a	GRAPE	n/a	n/a	6	[0, 0, 0]	-999	PAL1	0	R1283T
996.389	2.076	1203038	REC_EVENT	1941	2	2	JAR	GRAPE	GRAPE	JAR	6	[0, 0, 0]	-999	PAL1	0	R1283T
998.465	1.0	1205114	PROBE_OFF	n/a	2	-999	n/a	n/a	n/a	n/a	6	[0, 0, 0]	-999	PAL1	0	R1283T
999.465	0.017	1206114	REC_END	n/a	2	-999	n/a	n/a	n/a	n/a	6	[0, 0, 0]	-999	PAL1	0	R1283T
999.482	0.266	1206131	TEST_ORIENT	n/a	5	3	CHIEF	PHONE	PHONE	CHIEF	6	[0, 0, 0]	-999	PAL1	0	R1283T
999.748	0.551	1206396	RETRIEVAL_ORIENT_OFF	n/a	2	-999	n/a	n/a	n/a	n/a	6	[0, 0, 0]	-999	PAL1	0	R1283T
1000.299	0.0	1206947	TEST_PROBE	n/a	5	3	CHIEF	PHONE	PHONE	CHIEF	6	[0, 0, 0]	-999	PAL1	0	R1283T
1000.299	2.112	1206947	REC_START	n/a	5	-999	n/a	PHONE	n/a	n/a	6	[0, 0, 0]	-999	PAL1	0	R1283T
1002.411	1.905	1209059	REC_EVENT	2112	5	3	CHIEF	PHONE	PHONE	CHIEF	6	[0, 0, 0]	-999	PAL1	0	R1283T
1004.316	1.0	1210964	PROBE_OFF	n/a	5	-999	n/a	n/a	n/a	n/a	6	[0, 0, 0]	-999	PAL1	0	R1283T
1005.316	0.017	1211964	REC_END	n/a	5	-999	n/a	n/a	n/a	n/a	6	[0, 0, 0]	-999	PAL1	0	R1283T
1005.333	0.266	1211981	TEST_ORIENT	n/a	4	4	NAIL	SHRIMP	SHRIMP	NAIL	6	[0, 0, 0]	-999	PAL1	0	R1283T
1005.599	0.701	1212247	RETRIEVAL_ORIENT_OFF	n/a	5	-999	n/a	n/a	n/a	n/a	6	[0, 0, 0]	-999	PAL1	0	R1283T
1006.3	0.0	1212948	TEST_PROBE	n/a	4	4	NAIL	SHRIMP	SHRIMP	NAIL	6	[0, 0, 0]	-999	PAL1	0	R1283T
1006.3	1.578	1212948	REC_START	n/a	4	-999	n/a	SHRIMP	n/a	n/a	6	[0, 0, 0]	-999	PAL1	0	R1283T
1007.878	2.439	1214526	REC_EVENT	1578	4	4	NAIL	SHRIMP	SHRIMP	NAIL	6	[0, 0, 0]	-999	PAL1	0	R1283T
1010.317	1.0	1216965	PROBE_OFF	n/a	4	-999	n/a	n/a	n/a	n/a	6	[0, 0, 0]	-999	PAL1	0	R1283T
1011.317	0.017	1217965	REC_END	n/a	4	-999	n/a	n/a	n/a	n/a	6	[0, 0, 0]	-999	PAL1	0	R1283T
1011.334	0.266	1217982	TEST_ORIENT	n/a	3	5	WHEEL	DOLL	DOLL	WHEEL	6	[0, 0, 0]	-999	PAL1	0	R1283T
1011.6	0.567	1218248	RETRIEVAL_ORIENT_OFF	n/a	4	-999	n/a	n/a	n/a	n/a	6	[0, 0, 0]	-999	PAL1	0	R1283T
1012.167	0.001	1218815	TEST_PROBE	n/a	3	5	WHEEL	DOLL	DOLL	WHEEL	6	[0, 0, 0]	-999	PAL1	0	R1283T
1012.168	2.823	1218816	REC_START	n/a	3	-999	n/a	DOLL	n/a	n/a	6	[0, 0, 0]	-999	PAL1	0	R1283T
1014.991	1.177	1221639	REC_EVENT	2823	3	5	WHEEL	DOLL	DOLL	WHEEL	6	[0, 0, 0]	-999	PAL1	0	R1283T
1016.168	1.0	1222815	PROBE_OFF	n/a	3	-999	n/a	n/a	n/a	n/a	6	[0, 0, 0]	-999	PAL1	0	R1283T
1017.168	0.017	1223815	REC_END	n/a	3	-999	n/a	n/a	n/a	n/a	6	[0, 0, 0]	-999	PAL1	0	R1283T
1017.185	0.267	1223832	TEST_ORIENT	n/a	6	6	SKI	n/a	BOX	SKI	6	[0, 0, 0]	-999	PAL1	0	R1283T
1017.452	0.616	1224099	RETRIEVAL_ORIENT_OFF	n/a	3	-999	n/a	n/a	n/a	n/a	6	[0, 0, 0]	-999	PAL1	0	R1283T
1018.068	0.001	1224715	TEST_PROBE	n/a	6	6	SKI	n/a	BOX	SKI	6	[0, 0, 0]	-999	PAL1	0	R1283T
1018.069	2.516	1224716	REC_START	n/a	6	-999	n/a	n/a	n/a	n/a	6	[0, 0, 0]	-999	PAL1	0	R1283T
1020.585	1.501	1227232	REC_EVENT	2516	6	6	SKI	<>	BOX	SKI	6	[0, 0, 0]	-999	PAL1	0	R1283T
1022.086	1.0	1228733	PROBE_OFF	n/a	6	-999	n/a	n/a	n/a	n/a	6	[0, 0, 0]	-999	PAL1	0	R1283T
1023.086	0.012	1229733	REC_END	n/a	6	-999	n/a	n/a	n/a	n/a	6	[0, 0, 0]	-999	PAL1	0	R1283T
1023.098	6.889	1229745	RECALL_END	n/a	-999	-999	n/a	n/a	n/a	n/a	6	[0, 0, 0]	-999	PAL1	0	R1283T
1029.987	10.928	1236634	TRIAL	n/a	-999	-999	n/a	n/a	n/a	n/a	7	[0, 0, 0]	-999	PAL1	0	R1283T
1040.915	0.008	1247561	ENCODING_START	n/a	-999	-999	n/a	n/a	n/a	n/a	7	[0, 0, 0]	-999	PAL1	0	R1283T
1040.923	0.267	1247569	STUDY_ORIENT	n/a	1	3	SMILE	n/a	ROOF	SMILE	7	[0, 0, 0]	-999	PAL1	0	R1283T
1041.19	0.733	1247836	STUDY_ORIENT_OFF	n/a	1	3	SMILE	n/a	ROOF	SMILE	7	[0, 0, 0]	-999	PAL1	0	R1283T
1041.923	4.017	1248569	STUDY_PAIR	n/a	1	3	SMILE	n/a	ROOF	SMILE	7	[0, 0, 0]	-999	PAL1	0	R1283T
1045.94	1.017	1252586	PAIR_OFF	n/a	1	3	SMILE	n/a	ROOF	SMILE	7	[0, 0, 0]	-999	PAL1	0	R1283T
1046.957	0.267	1253603	STUDY_ORIENT	n/a	2	2	CLAY	BADGE	CLAY	BADGE	7	[0, 0, 0]	-999	PAL1	0	R1283T
1047.224	0.549	1253870	STUDY_ORIENT_OFF	n/a	2	2	CLAY	BADGE	CLAY	BADGE	7	[0, 0, 0]	-999	PAL1	0	R1283T
1047.773	4.017	1254419	STUDY_PAIR	n/a	2	2	CLAY	BADGE	CLAY	BADGE	7	[0, 0, 0]	-999	PAL1	0	R1283T
1051.79	1.017	1258435	PAIR_OFF	n/a	2	2	CLAY	BADGE	CLAY	BADGE	7	[0, 0, 0]	-999	PAL1	0	R1283T
1052.807	0.268	1259452	STUDY_ORIENT	n/a	3	5	HEART	n/a	HEART	BOWL	7	[0, 0, 0]	-999	PAL1	0	R1283T
1053.075	0.599	1259720	STUDY_ORIENT_OFF	n/a	3	5	HEART	n/a	HEART	BOWL	7	[0, 0, 0]	-999	PAL1	0	R1283T
1053.674	4.017	1260319	STUDY_PAIR	n/a	3	5	HEART	n/a	HEART	BOWL	7	[0, 0, 0]	-999	PAL1	0	R1283T
1057.691	1.017	1264336	PAIR_OFF	n/a	3	5	HEART	n/a	HEART	BOWL	7	[0, 0, 0]	-999	PAL1	0	R1283T
1058.708	0.268	1265353	STUDY_ORIENT	n/a	4	4	SOUP	n/a	STAIR	SOUP	7	[0, 0, 0]	-999	PAL1	0	R1283T
1058.976	0.6	1265621	STUDY_ORIENT_OFF	n/a	4	4	SOUP	n/a	STAIR	SOUP	7	[0, 0, 0]	-999	PAL1	0	R1283T
1059.576	4.016	1266221	STUDY_PAIR	n/a	4	4	SOUP	n/a	STAIR	SOUP	7	[0, 0, 0]	-999	PAL1	0	R1283T
1063.592	1.017	1270237	PAIR_OFF	n/a	4	4	SOUP	n/a	STAIR	SOUP	7	[0, 0, 0]	-999	PAL1	0	R1283T
1064.609	0.268	1271254	STUDY_ORIENT	n/a	5	1	DOOR	PASS	DOOR	SIGN	7	[0, 0, 0]	-999	PAL1	0	R1283T
1064.877	0.584	1271521	STUDY_ORIENT_OFF	n/a	5	1	DOOR	PASS	DOOR	SIGN	7	[0, 0, 0]	-999	PAL1	0	R1283T
1065.461	4.017	1272105	STUDY_PAIR	n/a	5	1	DOOR	PASS	DOOR	SIGN	7	[0, 0, 0]	-999	PAL1	0	R1283T
1069.478	1.017	1276122	PAIR_OFF	n/a	5	1	DOOR	PASS	DOOR	SIGN	7	[0, 0, 0]	-999	PAL1	0	R1283T
1070.495	0.265	1277139	STUDY_ORIENT	n/a	6	6	EEL	n/a	DEER	EEL	7	[0, 0, 0]	-999	PAL1	0	R1283T
1070.76	0.652	1277404	STUDY_ORIENT_OFF	n/a	6	6	EEL	n/a	DEER	EEL	7	[0, 0, 0]	-999	PAL1	0	R1283T
1071.412	4.017	1278056	STUDY_PAIR	n/a	6	6	EEL	n/a	DEER	EEL	7	[0, 0, 0]	-999	PAL1	0	R1283T
1075.429	1.001	1282073	PAIR_OFF	n/a	6	6	EEL	n/a	DEER	EEL	7	[0, 0, 0]	-999	PAL1	0	R1283T
1076.43	0.0	1283074	ENCODING_END	n/a	-999	-999	n/a	n/a	n/a	n/a	7	[0, 0, 0]	-999	PAL1	0	R1283T
1076.43	0.0	1283074	MATH_START	n/a	-999	-999	n/a	n/a	n/a	n/a	7	[0, 0, 0]	-999	PAL1	0	R1283T
1076.43	0.016	1283074	START	n/a	-999	-999	n/a	n/a	n/a	n/a	8	[-999, -999, -999]	-999	PAL1	0	R1283T
1076.446	5.166	1283090	PROB	5140	-999	-999	n/a	n/a	n/a	n/a	8	[6, 7, 2]	15	PAL1	0	R1283T
1081.612	3.769	1288255	PROB	3735	-999	-999	n/a	n/a	n/a	n/a	8	[1, 5, 3]	9	PAL1	0	R1283T
1085.381	2.767	1292024	PROB	2742	-999	-999	n/a	n/a	n/a	n/a	8	[8, 2, 5]	15	PAL1	0	R1283T
1088.148	2.699	1294791	PROB	2677	-999	-999	n/a	n/a	n/a	n/a	8	[6, 1, 6]	13	PAL1	0	R1283T
1090.847	2.352	1297490	PROB	2324	-999	-999	n/a	n/a	n/a	n/a	8	[1, 1, 2]	4	PAL1	0	R1283T
1093.199	4.626	1299842	PROB	4626	-999	-999	n/a	n/a	n/a	n/a	8	[9, 6, 7]	22	PAL1	0	R1283T
1097.825	0.007	1304467	STOP	n/a	-999	-999	n/a	n/a	n/a	n/a	8	[-999, -999, -999]	-999	PAL1	0	R1283T
1097.832	0.0	1304474	MATH_END	n/a	-999	-999	n/a	n/a	n/a	n/a	7	[0, 0, 0]	-999	PAL1	0	R1283T
1097.832	0.017	1304474	RECALL_START	n/a	-999	-999	n/a	n/a	n/a	n/a	7	[0, 0, 0]	-999	PAL1	0	R1283T
1097.849	0.267	1304491	TEST_ORIENT	n/a	5	1	DOOR	PASS	DOOR	SIGN	7	[0, 0, 0]	-999	PAL1	0	R1283T
1098.116	0.65	1304758	RETRIEVAL_ORIENT_OFF	n/a	-999	-999	n/a	n/a	n/a	n/a	7	[0, 0, 0]	-999	PAL1	0	R1283T
1098.766	0.0	1305408	TEST_PROBE	n/a	5	1	DOOR	PASS	DOOR	SIGN	7	[0, 0, 0]	-999	PAL1	0	R1283T
1098.766	3.964	1305408	REC_START	n/a	5	-999	n/a	PASS	n/a	n/a	7	[0, 0, 0]	-999	PAL1	0	R1283T
1102.73	0.053	1309372	REC_EVENT	3964	5	1	DOOR	PASS	DOOR	SIGN	7	[0, 0, 0]	-999	PAL1	0	R1283T
1102.783	1.0	1309425	PROBE_OFF	n/a	5	-999	n/a	n/a	n/a	n/a	7	[0, 0, 0]	-999	PAL1	0	R1283T
1103.783	0.017	1310425	REC_END	n/a	5	-999	n/a	n/a	n/a	n/a	7	[0, 0, 0]	-999	PAL1	0	R1283T
1103.8	0.268	1310442	TEST_ORIENT	n/a	2	2	CLAY	BADGE	CLAY	BADGE	7	[0, 0, 0]	-999	PAL1	0	R1283T
1104.068	0.549	1310710	RETRIEVAL_ORIENT_OFF	n/a	5	-999	n/a	n/a	n/a	n/a	7	[0, 0, 0]	-999	PAL1	0	R1283T
1104.617	0.0	1311259	TEST_PROBE	n/a	2	2	CLAY	BADGE	CLAY	BADGE	7	[0, 0, 0]	-999	PAL1	0	R1283T
1104.617	1.28	1311259	REC_START	n/a	2	-999	n/a	BADGE	n/a	n/a	7	[0, 0, 0]	-999	PAL1	0	R1283T
1105.897	2.737	1312539	REC_EVENT	1280	2	2	CLAY	BADGE	CLAY	BADGE	7	[0, 0, 0]	-999	PAL1	0	R1283T
1108.634	1.0	1315276	PROBE_OFF	n/a	2	-999	n/a	n/a	n/a	n/a	7	[0, 0, 0]	-999	PAL1	0	R1283T
1109.634	0.017	1316276	REC_END	n/a	2	-999	n/a	n/a	n/a	n/a	7	[0, 0, 0]	-999	PAL1	0	R1283T
1109.651	0.268	1316293	TEST_ORIENT	n/a	1	3	SMILE	n/a	ROOF	SMILE	7	[0, 0, 0]	-999	PAL1	0	R1283T
1109.919	0.65	1316561	RETRIEVAL_ORIENT_OFF	n/a	2	-999	n/a	n/a	n/a	n/a	7	[0, 0, 0]	-999	PAL1	0	R1283T
1110.569	0.0	1317211	TEST_PROBE	n/a	1	3	SMILE	n/a	ROOF	SMILE	7	[0, 0, 0]	-999	PAL1	0	R1283T
1110.569	4.017	1317211	REC_START	n/a	1	-999	n/a	n/a	n/a	n/a	7	[0, 0, 0]	-999	PAL1	0	R1283T
1114.586	0.998	1321227	PROBE_OFF	n/a	1	-999	n/a	n/a	n/a	n/a	7	[0, 0, 0]	-999	PAL1	0	R1283T
1115.584	0.003	1322225	REC_EVENT	5015	1	3	SMILE	<>	ROOF	SMILE	7	[0, 0, 0]	-999	PAL1	0	R1283T
1115.587	0.015	1322228	REC_END	n/a	1	-999	n/a	n/a	n/a	n/a	7	[0, 0, 0]	-999	PAL1	0	R1283T
1115.602	0.267	1322243	TEST_ORIENT	n/a	4	4	SOUP	n/a	STAIR	SOUP	7	[0, 0, 0]	-999	PAL1	0	R1283T
1115.869	0.517	1322510	RETRIEVAL_ORIENT_OFF	n/a	1	-999	n/a	n/a	n/a	n/a	7	[0, 0, 0]	-999	PAL1	0	R1283T
1116.386	0.001	1323027	TEST_PROBE	n/a	4	4	SOUP	n/a	STAIR	SOUP	7	[0, 0, 0]	-999	PAL1	0	R1283T
1116.387	4.017	1323028	REC_START	n/a	4	-999	n/a	n/a	n/a	n/a	7	[0, 0, 0]	-999	PAL1	0	R1283T
1120.404	0.998	1327045	PROBE_OFF	n/a	4	-999	n/a	n/a	n/a	n/a	7	[0, 0, 0]	-999	PAL1	0	R1283T
1121.402	0.002	1328043	REC_EVENT	5015	4	4	SOUP	<>	STAIR	SOUP	7	[0, 0, 0]	-999	PAL1	0	R1283T
1121.404	0.017	1328045	REC_END	n/a	4	-999	n/a	n/a	n/a	n/a	7	[0, 0, 0]	-999	PAL1	0	R1283T
1121.421	0.265	1328062	TEST_ORIENT	n/a	3	5	HEART	n/a	HEART	BOWL	7	[0, 0, 0]	-999	PAL1	0	R1283T
1121.686	0.535	1328327	RETRIEVAL_ORIENT_OFF	n/a	4	-999	n/a	n/a	n/a	n/a	7	[0, 0, 0]	-999	PAL1	0	R1283T
1122.221	0.0	1328862	TEST_PROBE	n/a	3	5	HEART	n/a	HEART	BOWL	7	[0, 0, 0]	-999	PAL1	0	R1283T
1122.221	4.017	1328862	REC_START	n/a	3	-999	n/a	n/a	n/a	n/a	7	[0, 0, 0]	-999	PAL1	0	R1283T
1126.238	0.998	1332879	PROBE_OFF	n/a	3	-999	n/a	n/a	n/a	n/a	7	[0, 0, 0]	-999	PAL1	0	R1283T
1127.236	0.002	1333877	REC_EVENT	5015	3	5	HEART	<>	HEART	BOWL	7	[0, 0, 0]	-999	PAL1	0	R1283T
1127.238	0.017	1333879	REC_END	n/a	3	-999	n/a	n/a	n/a	n/a	7	[0, 0, 0]	-999	PAL1	0	R1283T
1127.255	0.267	1333896	TEST_ORIENT	n/a	6	6	EEL	n/a	DEER	EEL	7	[0, 0, 0]	-999	PAL1	0	R1283T
1127.522	0.733	1334163	RETRIEVAL_ORIENT_OFF	n/a	3	-999	n/a	n/a	n/a	n/a	7	[0, 0, 0]	-999	PAL1	0	R1283T
1128.255	0.001	1334896	TEST_PROBE	n/a	6	6	EEL	n/a	DEER	EEL	7	[0, 0, 0]	-999	PAL1	0	R1283T
1128.256	4.017	1334897	REC_START	n/a	6	-999	n/a	n/a	n/a	n/a	7	[0, 0, 0]	-999	PAL1	0	R1283T
1132.273	0.998	1338913	PROBE_OFF	n/a	6	-999	n/a	n/a	n/a	n/a	7	[0, 0, 0]	-999	PAL1	0	R1283T
1133.271	0.002	1339911	REC_EVENT	5015	6	6	EEL	<>	DEER	EEL	7	[0, 0, 0]	-999	PAL1	0	R1283T
1133.273	0.01	1339913	REC_END	n/a	6	-999	n/a	n/a	n/a	n/a	7	[0, 0, 0]	-999	PAL1	0	R1283T
1133.283	4.423	1339923	RECALL_END	n/a	-999	-999	n/a	n/a	n/a	n/a	7	[0, 0, 0]	-999	PAL1	0	R1283T
1137.706	10.929	1344346	TRIAL	n/a	-999	-999	n/a	n/a	n/a	n/a	8	[0, 0, 0]	-999	PAL1	0	R1283T
1148.635	0.006	1355274	ENCODING_START	n/a	-999	-999	n/a	n/a	n/a	n/a	8	[0, 0, 0]	-999	PAL1	0	R1283T
1148.641	0.268	1355280	STUDY_ORIENT	n/a	1	5	STONE	CONE	STONE	CAR	8	[0, 0, 0]	-999	PAL1	0	R1283T
1148.909	0.633	1355548	STUDY_ORIENT_OFF	n/a	1	5	STONE	CONE	STONE	CAR	8	[0, 0, 0]	-999	PAL1	0	R1283T
1149.542	4.001	1356181	STUDY_PAIR	n/a	1	5	STONE	CONE	STONE	CAR	8	[0, 0, 0]	-999	PAL1	0	R1283T
1153.543	1.017	1360182	PAIR_OFF	n/a	1	5	STONE	CONE	STONE	CAR	8	[0, 0, 0]	-999	PAL1	0	R1283T
1154.56	0.266	1361199	STUDY_ORIENT	n/a	2	6	WALL	CONE	CONE	WALL	8	[0, 0, 0]	-999	PAL1	0	R1283T
1154.826	0.534	1361465	STUDY_ORIENT_OFF	n/a	2	6	WALL	CONE	CONE	WALL	8	[0, 0, 0]	-999	PAL1	0	R1283T
1155.36	4.018	1361999	STUDY_PAIR	n/a	2	6	WALL	CONE	CONE	WALL	8	[0, 0, 0]	-999	PAL1	0	R1283T
1159.378	1.016	1366017	PAIR_OFF	n/a	2	6	WALL	CONE	CONE	WALL	8	[0, 0, 0]	-999	PAL1	0	R1283T
1160.394	0.266	1367033	STUDY_ORIENT	n/a	3	1	BENCH	n/a	BENCH	SINK	8	[0, 0, 0]	-999	PAL1	0	R1283T
1160.66	0.651	1367299	STUDY_ORIENT_OFF	n/a	3	1	BENCH	n/a	BENCH	SINK	8	[0, 0, 0]	-999	PAL1	0	R1283T
1161.311	4.018	1367950	STUDY_PAIR	n/a	3	1	BENCH	n/a	BENCH	SINK	8	[0, 0, 0]	-999	PAL1	0	R1283T
1165.329	1.017	1371967	PAIR_OFF	n/a	3	1	BENCH	n/a	BENCH	SINK	8	[0, 0, 0]	-999	PAL1	0	R1283T
1166.346	0.265	1372984	STUDY_ORIENT	n/a	4	4	POLE	TRUCK	TRUCK	POLE	8	[0, 0, 0]	-999	PAL1	0	R1283T
1166.611	0.651	1373249	STUDY_ORIENT_OFF	n/a	4	4	POLE	TRUCK	TRUCK	POLE	8	[0, 0, 0]	-999	PAL1	0	R1283T
1167.262	4.018	1373900	STUDY_PAIR	n/a	4	4	POLE	TRUCK	TRUCK	POLE	8	[0, 0, 0]	-999	PAL1	0	R1283T
1171.28	1.017	1377918	PAIR_OFF	n/a	4	4	POLE	TRUCK	TRUCK	POLE	8	[0, 0, 0]	-999	PAL1	0	R1283T
1172.297	0.266	1378935	STUDY_ORIENT	n/a	5	3	SLIME	SWAMP	SLIME	SWAMP	8	[0, 0, 0]	-999	PAL1	0	R1283T
1172.563	0.75	1379201	STUDY_ORIENT_OFF	n/a	5	3	SLIME	SWAMP	SLIME	SWAMP	8	[0, 0, 0]	-999	PAL1	0	R1283T
1173.313	4.018	1379951	STUDY_PAIR	n/a	5	3	SLIME	SWAMP	SLIME	SWAMP	8	[0, 0, 0]	-999	PAL1	0	R1283T
1177.331	1.017	1383969	PAIR_OFF	n/a	5	3	SLIME	SWAMP	SLIME	SWAMP	8	[0, 0, 0]	-999	PAL1	0	R1283T
1178.348	0.265	1384986	STUDY_ORIENT	n/a	6	2	DUCK	n/a	DUCK	WAVE	8	[0, 0, 0]	-999	PAL1	0	R1283T
1178.613	0.585	1385251	STUDY_ORIENT_OFF	n/a	6	2	DUCK	n/a	DUCK	WAVE	8	[0, 0, 0]	-999	PAL1	0	R1283T
1179.198	4.017	1385835	STUDY_PAIR	n/a	6	2	DUCK	n/a	DUCK	WAVE	8	[0, 0, 0]	-999	PAL1	0	R1283T
1183.215	1.001	1389852	PAIR_OFF	n/a	6	2	DUCK	n/a	DUCK	WAVE	8	[0, 0, 0]	-999	PAL1	0	R1283T
1184.216	0.0	1390853	ENCODING_END	n/a	-999	-999	n/a	n/a	n/a	n/a	8	[0, 0, 0]	-999	PAL1	0	R1283T
1184.216	0.0	1390853	MATH_START	n/a	-999	-999	n/a	n/a	n/a	n/a	8	[0, 0, 0]	-999	PAL1	0	R1283T
1184.216	0.016	1390853	START	n/a	-999	-999	n/a	n/a	n/a	n/a	9	[-999, -999, -999]	-999	PAL1	0	R1283T
1184.232	8.668	1390869	PROB	8633	-999	-999	n/a	n/a	n/a	n/a	9	[5, 8, 9]	22	PAL1	0	R1283T
1192.9	6.734	1399537	PROB	6702	-999	-999	n/a	n/a	n/a	n/a	9	[9, 6, 2]	17	PAL1	0	R1283T
1199.634	4.034	1406270	PROB	3999	-999	-999	n/a	n/a	n/a	n/a	9	[4, 3, 6]	13	PAL1	0	R1283T
1203.668	5.758	1410304	PROB	5758	-999	-999	n/a	n/a	n/a	n/a	9	[3, 8, 5]	16	PAL1	0	R1283T
1209.426	0.011	1416062	STOP	n/a	-999	-999	n/a	n/a	n/a	n/a	9	[-999, -999, -999]	-999	PAL1	0	R1283T
1209.437	0.0	1416073	MATH_END	n/a	-999	-999	n/a	n/a	n/a	n/a	8	[0, 0, 0]	-999	PAL1	0	R1283T
1209.437	0.016	1416073	RECALL_START	n/a	-999	-999	n/a	n/a	n/a	n/a	8	[0, 0, 0]	-999	PAL1	0	R1283T
1209.453	0.266	1416089	TEST_ORIENT	n/a	3	1	BENCH	n/a	BENCH	SINK	8	[0, 0, 0]	-999	PAL1	0	R1283T
1209.719	0.751	1416355	RETRIEVAL_ORIENT_OFF	n/a	-999	-999	n/a	n/a	n/a	n/a	8	[0, 0, 0]	-999	PAL1	0	R1283T
1210.47	0.0	1417106	TEST_PROBE	n/a	3	1	BENCH	n/a	BENCH	SINK	8	[0, 0, 0]	-999	PAL1	0	R1283T
1210.47	4.018	1417106	REC_START	n/a	3	-999	n/a	n/a	n/a	n/a	8	[0, 0, 0]	-999	PAL1	0	R1283T
1214.488	1.0	1421123	PROBE_OFF	n/a	3	-999	n/a	n/a	n/a	n/a	8	[0, 0, 0]	-999	PAL1	0	R1283T
1215.488	0.003	1422123	REC_END	n/a	3	-999	n/a	n/a	n/a	n/a	8	[0, 0, 0]	-999	PAL1	0	R1283T
1215.491	0.014	1422126	REC_EVENT	5021	3	1	BENCH	<>	BENCH	SINK	8	[0, 0, 0]	-999	PAL1	0	R1283T
1215.505	0.265	1422140	TEST_ORIENT	n/a	6	2	DUCK	n/a	DUCK	WAVE	8	[0, 0, 0]	-999	PAL1	0	R1283T
1215.77	0.601	1422405	RETRIEVAL_ORIENT_OFF	n/a	3	-999	n/a	n/a	n/a	n/a	8	[0, 0, 0]	-999	PAL1	0	R1283T
1216.371	0.001	1423006	TEST_PROBE	n/a	6	2	DUCK	n/a	DUCK	WAVE	8	[0, 0, 0]	-999	PAL1	0	R1283T
1216.372	4.017	1423007	REC_START	n/a	6	-999	n/a	n/a	n/a	n/a	8	[0, 0, 0]	-999	PAL1	0	R1283T
1220.389	0.058	1427024	PROBE_OFF	n/a	6	-999	n/a	n/a	n/a	n/a	8	[0, 0, 0]	-999	PAL1	0	R1283T
1220.447	0.942	1427082	REC_EVENT	4075	6	2	DUCK	<>	DUCK	WAVE	8	[0, 0, 0]	-999	PAL1	0	R1283T
1221.389	0.017	1428024	REC_END	n/a	6	-999	n/a	n/a	n/a	n/a	8	[0, 0, 0]	-999	PAL1	0	R1283T
1221.406	0.265	1428041	TEST_ORIENT	n/a	5	3	SLIME	SWAMP	SLIME	SWAMP	8	[0, 0, 0]	-999	PAL1	0	R1283T
1221.671	0.618	1428306	RETRIEVAL_ORIENT_OFF	n/a	6	-999	n/a	n/a	n/a	n/a	8	[0, 0, 0]	-999	PAL1	0	R1283T
1222.289	0.001	1428924	TEST_PROBE	n/a	5	3	SLIME	SWAMP	SLIME	SWAMP	8	[0, 0, 0]	-999	PAL1	0	R1283T
1222.29	0.997	1428925	REC_START	n/a	5	-999	n/a	SWAMP	n/a	n/a	8	[0, 0, 0]	-999	PAL1	0	R1283T
1223.287	3.019	1429922	REC_EVENT	997	5	3	SLIME	SWAMP	SLIME	SWAMP	8	[0, 0, 0]	-999	PAL1	0	R1283T
1226.306	1.001	1432941	PROBE_OFF	n/a	5	-999	n/a	n/a	n/a	n/a	8	[0, 0, 0]	-999	PAL1	0	R1283T
1227.307	0.016	1433942	REC_END	n/a	5	-999	n/a	n/a	n/a	n/a	8	[0, 0, 0]	-999	PAL1	0	R1283T
1227.323	0.267	1433958	TEST_ORIENT	n/a	4	4	POLE	TRUCK	TRUCK	POLE	8	[0, 0, 0]	-999	PAL1	0	R1283T
1227.59	0.517	1434225	RETRIEVAL_ORIENT_OFF	n/a	5	-999	n/a	n/a	n/a	n/a	8	[0, 0, 0]	-999	PAL1	0	R1283T
1228.107	0.0	1434742	REC_START	n/a	4	-999	n/a	TRUCK	n/a	n/a	8	[0, 0, 0]	-999	PAL1	0	R1283T
1228.107	2.853	1434742	TEST_PROBE	n/a	4	4	POLE	TRUCK	TRUCK	POLE	8	[0, 0, 0]	-999	PAL1	0	R1283T
1230.96	1.164	1437594	REC_EVENT	2853	4	4	POLE	TRUCK	TRUCK	POLE	8	[0, 0, 0]	-999	PAL1	0	R1283T
1232.124	1.0	1438758	PROBE_OFF	n/a	4	-999	n/a	n/a	n/a	n/a	8	[0, 0, 0]	-999	PAL1	0	R1283T
1233.124	0.017	1439758	REC_END	n/a	4	-999	n/a	n/a	n/a	n/a	8	[0, 0, 0]	-999	PAL1	0	R1283T
1233.141	0.267	1439775	TEST_ORIENT	n/a	1	5	STONE	CONE	STONE	CAR	8	[0, 0, 0]	-999	PAL1	0	R1283T
1233.408	0.717	1440042	RETRIEVAL_ORIENT_OFF	n/a	4	-999	n/a	n/a	n/a	n/a	8	[0, 0, 0]	-999	PAL1	0	R1283T
1234.125	0.0	1440759	TEST_PROBE	n/a	1	5	STONE	CONE	STONE	CAR	8	[0, 0, 0]	-999	PAL1	0	R1283T
1234.125	4.017	1440759	REC_START	n/a	1	-999	n/a	CONE	n/a	n/a	8	[0, 0, 0]	-999	PAL1	0	R1283T
1238.142	0.021	1444776	PROBE_OFF	n/a	1	-999	n/a	n/a	n/a	n/a	8	[0, 0, 0]	-999	PAL1	0	R1283T
1238.163	0.979	1444797	REC_EVENT	4038	1	5	STONE	CONE	STONE	CAR	8	[0, 0, 0]	-999	PAL1	0	R1283T
1239.142	0.017	1445776	REC_END	n/a	1	-999	n/a	n/a	n/a	n/a	8	[0, 0, 0]	-999	PAL1	0	R1283T
1239.159	0.267	1445793	TEST_ORIENT	n/a	2	6	WALL	CONE	CONE	WALL	8	[0, 0, 0]	-999	PAL1	0	R1283T
1239.426	0.75	1446060	RETRIEVAL_ORIENT_OFF	n/a	1	-999	n/a	n/a	n/a	n/a	8	[0, 0, 0]	-999	PAL1	0	R1283T
1240.176	0.0	1446810	TEST_PROBE	n/a	2	6	WALL	CONE	CONE	WALL	8	[0, 0, 0]	-999	PAL1	0	R1283T
1240.176	2.71	1446810	REC_START	n/a	2	-999	n/a	CONE	n/a	n/a	8	[0, 0, 0]	-999	PAL1	0	R1283T
1242.886	1.307	1449520	REC_EVENT	2710	2	6	WALL	CONE	CONE	WALL	8	[0, 0, 0]	-999	PAL1	0	R1283T
1244.193	1.0	1450827	PROBE_OFF	n/a	2	-999	n/a	n/a	n/a	n/a	8	[0, 0, 0]	-999	PAL1	0	R1283T
1245.193	0.005	1451826	REC_END	n/a	2	-999	n/a	n/a	n/a	n/a	8	[0, 0, 0]	-999	PAL1	0	R1283T
1245.198	44.787	1451831	RECALL_END	n/a	-999	-999	n/a	n/a	n/a	n/a	8	[0, 0, 0]	-999	PAL1	0	R1283T
1289.985	10.929	1496616	TRIAL	n/a	-999	-999	n/a	n/a	n/a	n/a	9	[0, 0, 0]	-999	PAL1	0	R1283T
1300.914	0.006	1507544	ENCODING_START	n/a	-999	-999	n/a	n/a	n/a	n/a	9	[0, 0, 0]	-999	PAL1	0	R1283T
1300.92	0.267	1507550	STUDY_ORIENT	n/a	1	3	NOSE	TOAD	NOSE	TOAD	9	[0, 0, 0]	-999	PAL1	0	R1283T
1301.187	0.632	1507817	STUDY_ORIENT_OFF	n/a	1	3	NOSE	TOAD	NOSE	TOAD	9	[0, 0, 0]	-999	PAL1	0	R1283T
1301.819	4.018	1508449	STUDY_PAIR	n/a	1	3	NOSE	TOAD	NOSE	TOAD	9	[0, 0, 0]	-999	PAL1	0	R1283T
1305.837	1.017	1512467	PAIR_OFF	n/a	1	3	NOSE	TOAD	NOSE	TOAD	9	[0, 0, 0]	-999	PAL1	0	R1283T
1306.854	0.267	1513484	STUDY_ORIENT	n/a	2	2	PEAR	n/a	PEAR	SWORD	9	[0, 0, 0]	-999	PAL1	0	R1283T
1307.121	0.583	1513751	STUDY_ORIENT_OFF	n/a	2	2	PEAR	n/a	PEAR	SWORD	9	[0, 0, 0]	-999	PAL1	0	R1283T
1307.704	4.017	1514334	STUDY_PAIR	n/a	2	2	PEAR	n/a	PEAR	SWORD	9	[0, 0, 0]	-999	PAL1	0	R1283T
1311.721	1.017	1518350	PAIR_OFF	n/a	2	2	PEAR	n/a	PEAR	SWORD	9	[0, 0, 0]	-999	PAL1	0	R1283T
1312.738	0.268	1519367	STUDY_ORIENT	n/a	3	1	PURSE	CROWN	PURSE	CROWN	9	[0, 0, 0]	-999	PAL1	0	R1283T
1313.006	0.566	1519635	STUDY_ORIENT_OFF	n/a	3	1	PURSE	CROWN	PURSE	CROWN	9	[0, 0, 0]	-999	PAL1	0	R1283T
1313.572	4.001	1520201	STUDY_PAIR	n/a	3	1	PURSE	CROWN	PURSE	CROWN	9	[0, 0, 0]	-999	PAL1	0	R1283T
1317.573	1.017	1524202	PAIR_OFF	n/a	3	1	PURSE	CROWN	PURSE	CROWN	9	[0, 0, 0]	-999	PAL1	0	R1283T
1318.59	0.266	1525219	STUDY_ORIENT	n/a	4	6	RICE	TRASH	TRASH	RICE	9	[0, 0, 0]	-999	PAL1	0	R1283T
1318.856	0.717	1525485	STUDY_ORIENT_OFF	n/a	4	6	RICE	TRASH	TRASH	RICE	9	[0, 0, 0]	-999	PAL1	0	R1283T
1319.573	4.017	1526202	STUDY_PAIR	n/a	4	6	RICE	TRASH	TRASH	RICE	9	[0, 0, 0]	-999	PAL1	0	R1283T
1323.59	1.017	1530219	PAIR_OFF	n/a	4	6	RICE	TRASH	TRASH	RICE	9	[0, 0, 0]	-999	PAL1	0	R1283T
1324.607	0.267	1531236	STUDY_ORIENT	n/a	5	5	SEED	n/a	SEED	ZOO	9	[0, 0, 0]	-999	PAL1	0	R1283T
1324.874	0.617	1531503	STUDY_ORIENT_OFF	n/a	5	5	SEED	n/a	SEED	ZOO	9	[0, 0, 0]	-999	PAL1	0	R1283T
1325.491	4.018	1532120	STUDY_PAIR	n/a	5	5	SEED	n/a	SEED	ZOO	9	[0, 0, 0]	-999	PAL1	0	R1283T
1329.509	1.016	1536137	PAIR_OFF	n/a	5	5	SEED	n/a	SEED	ZOO	9	[0, 0, 0]	-999	PAL1	0	R1283T
1330.525	0.266	1537153	STUDY_ORIENT	n/a	6	4	TIE	SWORD	TIE	SPRING	9	[0, 0, 0]	-999	PAL1	0	R1283T
1330.791	0.535	1537419	STUDY_ORIENT_OFF	n/a	6	4	TIE	SWORD	TIE	SPRING	9	[0, 0, 0]	-999	PAL1	0	R1283T
1331.326	4.017	1537954	STUDY_PAIR	n/a	6	4	TIE	SWORD	TIE	SPRING	9	[0, 0, 0]	-999	PAL1	0	R1283T
1335.343	1.001	1541971	PAIR_OFF	n/a	6	4	TIE	SWORD	TIE	SPRING	9	[0, 0, 0]	-999	PAL1	0	R1283T
1336.344	0.0	1542972	MATH_START	n/a	-999	-999	n/a	n/a	n/a	n/a	9	[0, 0, 0]	-999	PAL1	0	R1283T
1336.344	0.0	1542972	ENCODING_END	n/a	-999	-999	n/a	n/a	n/a	n/a	9	[0, 0, 0]	-999	PAL1	0	R1283T
1336.344	0.016	1542972	START	n/a	-999	-999	n/a	n/a	n/a	n/a	10	[-999, -999, -999]	-999	PAL1	0	R1283T
1336.36	5.383	1542988	PROB	5353	-999	-999	n/a	n/a	n/a	n/a	10	[6, 8, 9]	23	PAL1	0	R1283T
1341.743	7.352	1548371	PROB	7316	-999	-999	n/a	n/a	n/a	n/a	10	[5, 7, 1]	13	PAL1	0	R1283T
1349.095	3.65	1555722	PROB	3619	-999	-999	n/a	n/a	n/a	n/a	10	[2, 9, 7]	18	PAL1	0	R1283T
1352.745	9.578	1559372	PROB	9578	-999	-999	n/a	n/a	n/a	n/a	10	[2, 3, 7]	12	PAL1	0	R1283T
1362.323	0.008	1568949	STOP	n/a	-999	-999	n/a	n/a	n/a	n/a	10	[-999, -999, -999]	-999	PAL1	0	R1283T
1362.331	0.0	1568957	MATH_END	n/a	-999	-999	n/a	n/a	n/a	n/a	9	[0, 0, 0]	-999	PAL1	0	R1283T
1362.331	0.017	1568957	RECALL_START	n/a	-999	-999	n/a	n/a	n/a	n/a	9	[0, 0, 0]	-999	PAL1	0	R1283T
1362.348	0.266	1568974	TEST_ORIENT	n/a	3	1	PURSE	CROWN	PURSE	CROWN	9	[0, 0, 0]	-999	PAL1	0	R1283T
1362.614	0.651	1569240	RETRIEVAL_ORIENT_OFF	n/a	-999	-999	n/a	n/a	n/a	n/a	9	[0, 0, 0]	-999	PAL1	0	R1283T
1363.265	0.0	1569891	TEST_PROBE	n/a	3	1	PURSE	CROWN	PURSE	CROWN	9	[0, 0, 0]	-999	PAL1	0	R1283T
1363.265	1.282	1569891	REC_START	n/a	3	-999	n/a	CROWN	n/a	n/a	9	[0, 0, 0]	-999	PAL1	0	R1283T
1364.547	2.735	1571173	REC_EVENT	1282	3	1	PURSE	CROWN	PURSE	CROWN	9	[0, 0, 0]	-999	PAL1	0	R1283T
1367.282	1.0	1573908	PROBE_OFF	n/a	3	-999	n/a	n/a	n/a	n/a	9	[0, 0, 0]	-999	PAL1	0	R1283T
1368.282	0.017	1574908	REC_END	n/a	3	-999	n/a	n/a	n/a	n/a	9	[0, 0, 0]	-999	PAL1	0	R1283T
1368.299	0.267	1574925	TEST_ORIENT	n/a	2	2	PEAR	n/a	PEAR	SWORD	9	[0, 0, 0]	-999	PAL1	0	R1283T
1368.566	0.583	1575192	RETRIEVAL_ORIENT_OFF	n/a	3	-999	n/a	n/a	n/a	n/a	9	[0, 0, 0]	-999	PAL1	0	R1283T
1369.149	0.001	1575775	TEST_PROBE	n/a	2	2	PEAR	n/a	PEAR	SWORD	9	[0, 0, 0]	-999	PAL1	0	R1283T
1369.15	4.017	1575776	REC_START	n/a	2	-999	n/a	n/a	n/a	n/a	9	[0, 0, 0]	-999	PAL1	0	R1283T
1373.167	0.998	1579793	PROBE_OFF	n/a	2	-999	n/a	n/a	n/a	n/a	9	[0, 0, 0]	-999	PAL1	0	R1283T
1374.165	0.002	1580791	REC_EVENT	5015	2	2	PEAR	<>	PEAR	SWORD	9	[0, 0, 0]	-999	PAL1	0	R1283T
1374.167	0.016	1580793	REC_END	n/a	2	-999	n/a	n/a	n/a	n/a	9	[0, 0, 0]	-999	PAL1	0	R1283T
1374.183	0.267	1580809	TEST_ORIENT	n/a	1	3	NOSE	TOAD	NOSE	TOAD	9	[0, 0, 0]	-999	PAL1	0	R1283T
1374.45	0.7	1581076	RETRIEVAL_ORIENT_OFF	n/a	2	-999	n/a	n/a	n/a	n/a	9	[0, 0, 0]	-999	PAL1	0	R1283T
1375.15	0.001	1581776	TEST_PROBE	n/a	1	3	NOSE	TOAD	NOSE	TOAD	9	[0, 0, 0]	-999	PAL1	0	R1283T
1375.151	1.736	1581777	REC_START	n/a	1	-999	n/a	TOAD	n/a	n/a	9	[0, 0, 0]	-999	PAL1	0	R1283T
1376.887	2.281	1583512	REC_EVENT	1736	1	3	NOSE	TOAD	NOSE	TOAD	9	[0, 0, 0]	-999	PAL1	0	R1283T
1379.168	1.0	1585793	PROBE_OFF	n/a	1	-999	n/a	n/a	n/a	n/a	9	[0, 0, 0]	-999	PAL1	0	R1283T
1380.168	0.016	1586793	REC_END	n/a	1	-999	n/a	n/a	n/a	n/a	9	[0, 0, 0]	-999	PAL1	0	R1283T
1380.184	0.267	1586809	TEST_ORIENT	n/a	6	4	TIE	SWORD	TIE	SPRING	9	[0, 0, 0]	-999	PAL1	0	R1283T
1380.451	0.667	1587076	RETRIEVAL_ORIENT_OFF	n/a	1	-999	n/a	n/a	n/a	n/a	9	[0, 0, 0]	-999	PAL1	0	R1283T
1381.118	0.001	1587743	TEST_PROBE	n/a	6	4	TIE	SWORD	TIE	SPRING	9	[0, 0, 0]	-999	PAL1	0	R1283T
1381.119	4.016	1587744	REC_START	n/a	6	-999	n/a	SWORD	n/a	n/a	9	[0, 0, 0]	-999	PAL1	0	R1283T
1385.135	0.389	1591760	PROBE_OFF	n/a	6	-999	n/a	n/a	n/a	n/a	9	[0, 0, 0]	-999	PAL1	0	R1283T
1385.524	0.612	1592149	REC_EVENT	4405	6	4	TIE	SWORD	TIE	SPRING	9	[0, 0, 0]	-999	PAL1	0	R1283T
1386.136	0.016	1592761	REC_END	n/a	6	-999	n/a	n/a	n/a	n/a	9	[0, 0, 0]	-999	PAL1	0	R1283T
1386.152	0.267	1592777	TEST_ORIENT	n/a	5	5	SEED	n/a	SEED	ZOO	9	[0, 0, 0]	-999	PAL1	0	R1283T
1386.419	0.7	1593044	RETRIEVAL_ORIENT_OFF	n/a	6	-999	n/a	n/a	n/a	n/a	9	[0, 0, 0]	-999	PAL1	0	R1283T
1387.119	0.001	1593744	TEST_PROBE	n/a	5	5	SEED	n/a	SEED	ZOO	9	[0, 0, 0]	-999	PAL1	0	R1283T
1387.12	4.017	1593745	REC_START	n/a	5	-999	n/a	n/a	n/a	n/a	9	[0, 0, 0]	-999	PAL1	0	R1283T
1391.137	1.01	1597762	PROBE_OFF	n/a	5	-999	n/a	n/a	n/a	n/a	9	[0, 0, 0]	-999	PAL1	0	R1283T
1392.147	0.001	1598771	REC_EVENT	5027	5	5	SEED	<>	SEED	ZOO	9	[0, 0, 0]	-999	PAL1	0	R1283T
1392.148	0.022	1598772	REC_END	n/a	5	-999	n/a	n/a	n/a	n/a	9	[0, 0, 0]	-999	PAL1	0	R1283T
1392.17	0.267	1598794	TEST_ORIENT	n/a	4	6	RICE	TRASH	TRASH	RICE	9	[0, 0, 0]	-999	PAL1	0	R1283T
1392.437	0.7	1599061	RETRIEVAL_ORIENT_OFF	n/a	5	-999	n/a	n/a	n/a	n/a	9	[0, 0, 0]	-999	PAL1	0	R1283T
1393.137	0.0	1599761	TEST_PROBE	n/a	4	6	RICE	TRASH	TRASH	RICE	9	[0, 0, 0]	-999	PAL1	0	R1283T
1393.137	2.301	1599761	REC_START	n/a	4	-999	n/a	TRASH	n/a	n/a	9	[0, 0, 0]	-999	PAL1	0	R1283T
1395.438	1.716	1602062	REC_EVENT	2301	4	6	RICE	TRASH	TRASH	RICE	9	[0, 0, 0]	-999	PAL1	0	R1283T
1397.154	1.0	1603778	PROBE_OFF	n/a	4	-999	n/a	n/a	n/a	n/a	9	[0, 0, 0]	-999	PAL1	0	R1283T
1398.154	0.01	1604778	REC_END	n/a	4	-999	n/a	n/a	n/a	n/a	9	[0, 0, 0]	-999	PAL1	0	R1283T
1398.164	5.225	1604788	RECALL_END	n/a	-999	-999	n/a	n/a	n/a	n/a	9	[0, 0, 0]	-999	PAL1	0	R1283T
1403.389	10.928	1610013	TRIAL	n/a	-999	-999	n/a	n/a	n/a	n/a	10	[0, 0, 0]	-999	PAL1	0	R1283T
1414.317	0.007	1620940	ENCODING_START	n/a	-999	-999	n/a	n/a	n/a	n/a	10	[0, 0, 0]	-999	PAL1	0	R1283T
1414.324	0.266	1620947	STUDY_ORIENT	n/a	1	3	PLATE	n/a	POND	PLATE	10	[0, 0, 0]	-999	PAL1	0	R1283T
1414.59	0.534	1621213	STUDY_ORIENT_OFF	n/a	1	3	PLATE	n/a	POND	PLATE	10	[0, 0, 0]	-999	PAL1	0	R1283T
1415.124	4.018	1621747	STUDY_PAIR	n/a	1	3	PLATE	n/a	POND	PLATE	10	[0, 0, 0]	-999	PAL1	0	R1283T
1419.142	1.016	1625765	PAIR_OFF	n/a	1	3	PLATE	n/a	POND	PLATE	10	[0, 0, 0]	-999	PAL1	0	R1283T
1420.158	0.267	1626781	STUDY_ORIENT	n/a	2	6	JUICE	n/a	FLEA	JUICE	10	[0, 0, 0]	-999	PAL1	0	R1283T
1420.425	0.584	1627048	STUDY_ORIENT_OFF	n/a	2	6	JUICE	n/a	FLEA	JUICE	10	[0, 0, 0]	-999	PAL1	0	R1283T
1421.009	4.017	1627632	STUDY_PAIR	n/a	2	6	JUICE	n/a	FLEA	JUICE	10	[0, 0, 0]	-999	PAL1	0	R1283T
1425.026	1.017	1631648	PAIR_OFF	n/a	2	6	JUICE	n/a	FLEA	JUICE	10	[0, 0, 0]	-999	PAL1	0	R1283T
1426.043	0.267	1632665	STUDY_ORIENT	n/a	3	1	FARM	FLEA	PEA	FARM	10	[0, 0, 0]	-999	PAL1	0	R1283T
1426.31	0.666	1632932	STUDY_ORIENT_OFF	n/a	3	1	FARM	FLEA	PEA	FARM	10	[0, 0, 0]	-999	PAL1	0	R1283T
1426.976	4.018	1633598	STUDY_PAIR	n/a	3	1	FARM	FLEA	PEA	FARM	10	[0, 0, 0]	-999	PAL1	0	R1283T
1430.994	1.017	1637616	PAIR_OFF	n/a	3	1	FARM	FLEA	PEA	FARM	10	[0, 0, 0]	-999	PAL1	0	R1283T
1432.011	0.266	1638633	STUDY_ORIENT	n/a	4	2	HAT	VAN	HAT	VAN	10	[0, 0, 0]	-999	PAL1	0	R1283T
1432.277	0.684	1638899	STUDY_ORIENT_OFF	n/a	4	2	HAT	VAN	HAT	VAN	10	[0, 0, 0]	-999	PAL1	0	R1283T
1432.961	4.017	1639583	STUDY_PAIR	n/a	4	2	HAT	VAN	HAT	VAN	10	[0, 0, 0]	-999	PAL1	0	R1283T
1436.978	1.017	1643600	PAIR_OFF	n/a	4	2	HAT	VAN	HAT	VAN	10	[0, 0, 0]	-999	PAL1	0	R1283T
1437.995	0.267	1644617	STUDY_ORIENT	n/a	5	5	SHOE	BAG	SHOE	BAG	10	[0, 0, 0]	-999	PAL1	0	R1283T
1438.262	0.75	1644884	STUDY_ORIENT_OFF	n/a	5	5	SHOE	BAG	SHOE	BAG	10	[0, 0, 0]	-999	PAL1	0	R1283T
1439.012	4.017	1645634	STUDY_PAIR	n/a	5	5	SHOE	BAG	SHOE	BAG	10	[0, 0, 0]	-999	PAL1	0	R1283T
1443.029	1.017	1649650	PAIR_OFF	n/a	5	5	SHOE	BAG	SHOE	BAG	10	[0, 0, 0]	-999	PAL1	0	R1283T
1444.046	0.267	1650667	STUDY_ORIENT	n/a	6	4	VINE	n/a	VINE	SUN	10	[0, 0, 0]	-999	PAL1	0	R1283T
1444.313	0.767	1650934	STUDY_ORIENT_OFF	n/a	6	4	VINE	n/a	VINE	SUN	10	[0, 0, 0]	-999	PAL1	0	R1283T
1445.08	4.017	1651701	STUDY_PAIR	n/a	6	4	VINE	n/a	VINE	SUN	10	[0, 0, 0]	-999	PAL1	0	R1283T
1449.097	1.001	1655718	PAIR_OFF	n/a	6	4	VINE	n/a	VINE	SUN	10	[0, 0, 0]	-999	PAL1	0	R1283T
1450.098	0.0	1656719	MATH_START	n/a	-999	-999	n/a	n/a	n/a	n/a	10	[0, 0, 0]	-999	PAL1	0	R1283T
1450.098	0.0	1656719	ENCODING_END	n/a	-999	-999	n/a	n/a	n/a	n/a	10	[0, 0, 0]	-999	PAL1	0	R1283T
1450.098	0.016	1656719	START	n/a	-999	-999	n/a	n/a	n/a	n/a	11	[-999, -999, -999]	-999	PAL1	0	R1283T
1450.114	5.567	1656735	PROB	5536	-999	-999	n/a	n/a	n/a	n/a	11	[9, 3, 3]	15	PAL1	0	R1283T
1455.681	5.917	1662302	PROB	5881	-999	-999	n/a	n/a	n/a	n/a	11	[4, 8, 9]	21	PAL1	0	R1283T
1461.598	2.234	1668218	PROB	2212	-999	-999	n/a	n/a	n/a	n/a	11	[1, 2, 1]	4	PAL1	0	R1283T
1463.832	3.951	1670452	PROB	3921	-999	-999	n/a	n/a	n/a	n/a	11	[8, 8, 2]	18	PAL1	0	R1283T
1467.783	2.796	1674403	PROB	2796	-999	-999	n/a	n/a	n/a	n/a	11	[5, 5, 7]	17	PAL1	0	R1283T
1470.579	0.005	1677199	STOP	n/a	-999	-999	n/a	n/a	n/a	n/a	11	[-999, -999, -999]	-999	PAL1	0	R1283T
1470.584	0.001	1677204	MATH_END	n/a	-999	-999	n/a	n/a	n/a	n/a	10	[0, 0, 0]	-999	PAL1	0	R1283T
1470.585	0.015	1677205	RECALL_START	n/a	-999	-999	n/a	n/a	n/a	n/a	10	[0, 0, 0]	-999	PAL1	0	R1283T
1470.6	0.267	1677220	TEST_ORIENT	n/a	3	1	FARM	FLEA	PEA	FARM	10	[0, 0, 0]	-999	PAL1	0	R1283T
1470.867	0.733	1677487	RETRIEVAL_ORIENT_OFF	n/a	-999	-999	n/a	n/a	n/a	n/a	10	[0, 0, 0]	-999	PAL1	0	R1283T
1471.6	0.001	1678220	TEST_PROBE	n/a	3	1	FARM	FLEA	PEA	FARM	10	[0, 0, 0]	-999	PAL1	0	R1283T
1471.601	3.995	1678221	REC_START	n/a	3	-999	n/a	FLEA	n/a	n/a	10	[0, 0, 0]	-999	PAL1	0	R1283T
1475.596	0.022	1682215	REC_EVENT	3995	3	1	FARM	FLEA	PEA	FARM	10	[0, 0, 0]	-999	PAL1	0	R1283T
1475.618	1.012	1682237	PROBE_OFF	n/a	3	-999	n/a	n/a	n/a	n/a	10	[0, 0, 0]	-999	PAL1	0	R1283T
1476.63	0.021	1683249	REC_END	n/a	3	-999	n/a	n/a	n/a	n/a	10	[0, 0, 0]	-999	PAL1	0	R1283T
1476.651	0.268	1683270	TEST_ORIENT	n/a	4	2	HAT	VAN	HAT	VAN	10	[0, 0, 0]	-999	PAL1	0	R1283T
1476.919	0.533	1683538	RETRIEVAL_ORIENT_OFF	n/a	3	-999	n/a	n/a	n/a	n/a	10	[0, 0, 0]	-999	PAL1	0	R1283T
1477.452	0.001	1684071	TEST_PROBE	n/a	4	2	HAT	VAN	HAT	VAN	10	[0, 0, 0]	-999	PAL1	0	R1283T
1477.453	4.017	1684072	REC_START	n/a	4	-999	n/a	VAN	n/a	n/a	10	[0, 0, 0]	-999	PAL1	0	R1283T
1481.47	0.088	1688089	PROBE_OFF	n/a	4	-999	n/a	n/a	n/a	n/a	10	[0, 0, 0]	-999	PAL1	0	R1283T
1481.558	0.912	1688177	REC_EVENT	4105	4	2	HAT	VAN	HAT	VAN	10	[0, 0, 0]	-999	PAL1	0	R1283T
1482.47	0.016	1689089	REC_END	n/a	4	-999	n/a	n/a	n/a	n/a	10	[0, 0, 0]	-999	PAL1	0	R1283T
1482.486	0.266	1689105	TEST_ORIENT	n/a	1	3	PLATE	n/a	POND	PLATE	10	[0, 0, 0]	-999	PAL1	0	R1283T
1482.752	0.701	1689371	RETRIEVAL_ORIENT_OFF	n/a	4	-999	n/a	n/a	n/a	n/a	10	[0, 0, 0]	-999	PAL1	0	R1283T
1483.453	0.001	1690072	TEST_PROBE	n/a	1	3	PLATE	n/a	POND	PLATE	10	[0, 0, 0]	-999	PAL1	0	R1283T
1483.454	4.017	1690073	REC_START	n/a	1	-999	n/a	n/a	n/a	n/a	10	[0, 0, 0]	-999	PAL1	0	R1283T
1487.471	0.998	1694090	PROBE_OFF	n/a	1	-999	n/a	n/a	n/a	n/a	10	[0, 0, 0]	-999	PAL1	0	R1283T
1488.469	0.002	1695088	REC_EVENT	5015	1	3	PLATE	<>	POND	PLATE	10	[0, 0, 0]	-999	PAL1	0	R1283T
1488.471	0.017	1695090	REC_END	n/a	1	-999	n/a	n/a	n/a	n/a	10	[0, 0, 0]	-999	PAL1	0	R1283T
1488.488	0.265	1695107	TEST_ORIENT	n/a	6	4	VINE	n/a	VINE	SUN	10	[0, 0, 0]	-999	PAL1	0	R1283T
1488.753	0.568	1695372	RETRIEVAL_ORIENT_OFF	n/a	1	-999	n/a	n/a	n/a	n/a	10	[0, 0, 0]	-999	PAL1	0	R1283T
1489.321	0.001	1695940	TEST_PROBE	n/a	6	4	VINE	n/a	VINE	SUN	10	[0, 0, 0]	-999	PAL1	0	R1283T
1489.322	4.017	1695941	REC_START	n/a	6	-999	n/a	n/a	n/a	n/a	10	[0, 0, 0]	-999	PAL1	0	R1283T
1493.339	0.998	1699957	PROBE_OFF	n/a	6	-999	n/a	n/a	n/a	n/a	10	[0, 0, 0]	-999	PAL1	0	R1283T
1494.337	0.003	1700955	REC_EVENT	5015	6	4	VINE	<>	VINE	SUN	10	[0, 0, 0]	-999	PAL1	0	R1283T
1494.34	0.015	1700958	REC_END	n/a	6	-999	n/a	n/a	n/a	n/a	10	[0, 0, 0]	-999	PAL1	0	R1283T
1494.355	0.266	1700973	TEST_ORIENT	n/a	5	5	SHOE	BAG	SHOE	BAG	10	[0, 0, 0]	-999	PAL1	0	R1283T
1494.621	0.518	1701239	RETRIEVAL_ORIENT_OFF	n/a	6	-999	n/a	n/a	n/a	n/a	10	[0, 0, 0]	-999	PAL1	0	R1283T
1495.139	0.0	1701757	TEST_PROBE	n/a	5	5	SHOE	BAG	SHOE	BAG	10	[0, 0, 0]	-999	PAL1	0	R1283T
1495.139	1.796	1701757	REC_START	n/a	5	-999	n/a	BAG	n/a	n/a	10	[0, 0, 0]	-999	PAL1	0	R1283T
1496.935	2.221	1703553	REC_EVENT	1796	5	5	SHOE	BAG	SHOE	BAG	10	[0, 0, 0]	-999	PAL1	0	R1283T
1499.156	1.0	1705774	PROBE_OFF	n/a	5	-999	n/a	n/a	n/a	n/a	10	[0, 0, 0]	-999	PAL1	0	R1283T
1500.156	0.017	1706774	REC_END	n/a	5	-999	n/a	n/a	n/a	n/a	10	[0, 0, 0]	-999	PAL1	0	R1283T
1500.173	0.267	1706791	TEST_ORIENT	n/a	2	6	JUICE	n/a	FLEA	JUICE	10	[0, 0, 0]	-999	PAL1	0	R1283T
1500.44	0.55	1707058	RETRIEVAL_ORIENT_OFF	n/a	5	-999	n/a	n/a	n/a	n/a	10	[0, 0, 0]	-999	PAL1	0	R1283T
1500.99	0.001	1707608	TEST_PROBE	n/a	2	6	JUICE	n/a	FLEA	JUICE	10	[0, 0, 0]	-999	PAL1	0	R1283T
1500.991	4.016	1707609	REC_START	n/a	2	-999	n/a	n/a	n/a	n/a	10	[0, 0, 0]	-999	PAL1	0	R1283T
1505.007	0.999	1711625	PROBE_OFF	n/a	2	-999	n/a	n/a	n/a	n/a	10	[0, 0, 0]	-999	PAL1	0	R1283T
1506.006	0.002	1712623	REC_EVENT	5015	2	6	JUICE	<>	FLEA	JUICE	10	[0, 0, 0]	-999	PAL1	0	R1283T
1506.008	0.01	1712625	REC_END	n/a	2	-999	n/a	n/a	n/a	n/a	10	[0, 0, 0]	-999	PAL1	0	R1283T
1506.018	5.024	1712635	RECALL_END	n/a	-999	-999	n/a	n/a	n/a	n/a	10	[0, 0, 0]	-999	PAL1	0	R1283T
1511.042	10.928	1717659	TRIAL	n/a	-999	-999	n/a	n/a	n/a	n/a	11	[0, 0, 0]	-999	PAL1	0	R1283T
1521.97	0.007	1728587	ENCODING_START	n/a	-999	-999	n/a	n/a	n/a	n/a	11	[0, 0, 0]	-999	PAL1	0	R1283T
1521.977	0.267	1728594	STUDY_ORIENT	n/a	1	3	ARK	n/a	FOAM	ARK	11	[0, 0, 0]	-999	PAL1	0	R1283T
1522.244	0.633	1728860	STUDY_ORIENT_OFF	n/a	1	3	ARK	n/a	FOAM	ARK	11	[0, 0, 0]	-999	PAL1	0	R1283T
1522.877	4.018	1729493	STUDY_PAIR	n/a	1	3	ARK	n/a	FOAM	ARK	11	[0, 0, 0]	-999	PAL1	0	R1283T
1526.895	1.016	1733511	PAIR_OFF	n/a	1	3	ARK	n/a	FOAM	ARK	11	[0, 0, 0]	-999	PAL1	0	R1283T
1527.911	0.267	1734527	STUDY_ORIENT	n/a	2	6	FLAME	n/a	FLAME	CANE	11	[0, 0, 0]	-999	PAL1	0	R1283T
1528.178	0.616	1734794	STUDY_ORIENT_OFF	n/a	2	6	FLAME	n/a	FLAME	CANE	11	[0, 0, 0]	-999	PAL1	0	R1283T
1528.794	4.017	1735410	STUDY_PAIR	n/a	2	6	FLAME	n/a	FLAME	CANE	11	[0, 0, 0]	-999	PAL1	0	R1283T
1532.811	1.017	1739427	PAIR_OFF	n/a	2	6	FLAME	n/a	FLAME	CANE	11	[0, 0, 0]	-999	PAL1	0	R1283T
1533.828	0.268	1740444	STUDY_ORIENT	n/a	3	5	FLOOR	n/a	FLOOR	SHEEP	11	[0, 0, 0]	-999	PAL1	0	R1283T
1534.096	0.549	1740712	STUDY_ORIENT_OFF	n/a	3	5	FLOOR	n/a	FLOOR	SHEEP	11	[0, 0, 0]	-999	PAL1	0	R1283T
1534.645	4.017	1741261	STUDY_PAIR	n/a	3	5	FLOOR	n/a	FLOOR	SHEEP	11	[0, 0, 0]	-999	PAL1	0	R1283T
1538.662	1.017	1745277	PAIR_OFF	n/a	3	5	FLOOR	n/a	FLOOR	SHEEP	11	[0, 0, 0]	-999	PAL1	0	R1283T
1539.679	0.251	1746294	STUDY_ORIENT	n/a	4	2	GEESE	CLOTH	CLOTH	GEESE	11	[0, 0, 0]	-999	PAL1	0	R1283T
1539.93	0.6	1746545	STUDY_ORIENT_OFF	n/a	4	2	GEESE	CLOTH	CLOTH	GEESE	11	[0, 0, 0]	-999	PAL1	0	R1283T
1540.53	4.001	1747145	STUDY_PAIR	n/a	4	2	GEESE	CLOTH	CLOTH	GEESE	11	[0, 0, 0]	-999	PAL1	0	R1283T
1544.531	1.017	1751146	PAIR_OFF	n/a	4	2	GEESE	CLOTH	CLOTH	GEESE	11	[0, 0, 0]	-999	PAL1	0	R1283T
1545.548	0.266	1752163	STUDY_ORIENT	n/a	5	1	GATE	STEM	GATE	STEM	11	[0, 0, 0]	-999	PAL1	0	R1283T
1545.814	0.651	1752429	STUDY_ORIENT_OFF	n/a	5	1	GATE	STEM	GATE	STEM	11	[0, 0, 0]	-999	PAL1	0	R1283T
1546.465	4.017	1753080	STUDY_PAIR	n/a	5	1	GATE	STEM	GATE	STEM	11	[0, 0, 0]	-999	PAL1	0	R1283T
1550.482	1.017	1757097	PAIR_OFF	n/a	5	1	GATE	STEM	GATE	STEM	11	[0, 0, 0]	-999	PAL1	0	R1283T
1551.499	0.266	1758114	STUDY_ORIENT	n/a	6	4	STRING	GEESE	STRING	MOUSE	11	[0, 0, 0]	-999	PAL1	0	R1283T
1551.765	0.584	1758380	STUDY_ORIENT_OFF	n/a	6	4	STRING	GEESE	STRING	MOUSE	11	[0, 0, 0]	-999	PAL1	0	R1283T
1552.349	4.018	1758964	STUDY_PAIR	n/a	6	4	STRING	GEESE	STRING	MOUSE	11	[0, 0, 0]	-999	PAL1	0	R1283T
1556.367	1.0	1762981	PAIR_OFF	n/a	6	4	STRING	GEESE	STRING	MOUSE	11	[0, 0, 0]	-999	PAL1	0	R1283T
1557.367	0.0	1763981	ENCODING_END	n/a	-999	-999	n/a	n/a	n/a	n/a	11	[0, 0, 0]	-999	PAL1	0	R1283T
1557.367	0.0	1763981	MATH_START	n/a	-999	-999	n/a	n/a	n/a	n/a	11	[0, 0, 0]	-999	PAL1	0	R1283T
1557.367	0.016	1763981	START	n/a	-999	-999	n/a	n/a	n/a	n/a	12	[-999, -999, -999]	-999	PAL1	0	R1283T
1557.383	3.968	1763997	PROB	3932	-999	-999	n/a	n/a	n/a	n/a	12	[4, 6, 1]	11	PAL1	0	R1283T
1561.351	4.617	1767965	PROB	4595	-999	-999	n/a	n/a	n/a	n/a	12	[4, 5, 6]	15	PAL1	0	R1283T
1565.968	4.568	1772582	PROB	4530	-999	-999	n/a	n/a	n/a	n/a	12	[7, 1, 5]	13	PAL1	0	R1283T
1570.536	6.501	1777150	PROB	6474	-999	-999	n/a	n/a	n/a	n/a	12	[2, 9, 8]	19	PAL1	0	R1283T
1577.037	5.541	1783650	PROB	5541	-999	-999	n/a	n/a	n/a	n/a	12	[4, 7, 8]	19	PAL1	0	R1283T
1582.578	0.01	1789191	STOP	n/a	-999	-999	n/a	n/a	n/a	n/a	12	[-999, -999, -999]	-999	PAL1	0	R1283T
1582.588	0.001	1789201	MATH_END	n/a	-999	-999	n/a	n/a	n/a	n/a	11	[0, 0, 0]	-999	PAL1	0	R1283T
1582.589	0.015	1789202	RECALL_START	n/a	-999	-999	n/a	n/a	n/a	n/a	11	[0, 0, 0]	-999	PAL1	0	R1283T
1582.604	0.266	1789217	TEST_ORIENT	n/a	5	1	GATE	STEM	GATE	STEM	11	[0, 0, 0]	-999	PAL1	0	R1283T
1582.87	0.568	1789483	RETRIEVAL_ORIENT_OFF	n/a	-999	-999	n/a	n/a	n/a	n/a	11	[0, 0, 0]	-999	PAL1	0	R1283T
1583.438	0.001	1790051	TEST_PROBE	n/a	5	1	GATE	STEM	GATE	STEM	11	[0, 0, 0]	-999	PAL1	0	R1283T
1583.439	2.063	1790052	REC_START	n/a	5	-999	n/a	STEM	n/a	n/a	11	[0, 0, 0]	-999	PAL1	0	R1283T
1585.502	1.954	1792115	REC_EVENT	2063	5	1	GATE	STEM	GATE	STEM	11	[0, 0, 0]	-999	PAL1	0	R1283T
1587.456	1.0	1794069	PROBE_OFF	n/a	5	-999	n/a	n/a	n/a	n/a	11	[0, 0, 0]	-999	PAL1	0	R1283T
1588.456	0.017	1795068	REC_END	n/a	5	-999	n/a	n/a	n/a	n/a	11	[0, 0, 0]	-999	PAL1	0	R1283T
1588.473	0.265	1795085	TEST_ORIENT	n/a	4	2	GEESE	CLOTH	CLOTH	GEESE	11	[0, 0, 0]	-999	PAL1	0	R1283T
1588.738	0.718	1795350	RETRIEVAL_ORIENT_OFF	n/a	5	-999	n/a	n/a	n/a	n/a	11	[0, 0, 0]	-999	PAL1	0	R1283T
1589.456	0.001	1796068	TEST_PROBE	n/a	4	2	GEESE	CLOTH	CLOTH	GEESE	11	[0, 0, 0]	-999	PAL1	0	R1283T
1589.457	1.717	1796069	REC_START	n/a	4	-999	n/a	CLOTH	n/a	n/a	11	[0, 0, 0]	-999	PAL1	0	R1283T
1591.174	2.299	1797786	REC_EVENT	1717	4	2	GEESE	CLOTH	CLOTH	GEESE	11	[0, 0, 0]	-999	PAL1	0	R1283T
1593.473	1.0	1800085	PROBE_OFF	n/a	4	-999	n/a	n/a	n/a	n/a	11	[0, 0, 0]	-999	PAL1	0	R1283T
1594.473	0.017	1801085	REC_END	n/a	4	-999	n/a	n/a	n/a	n/a	11	[0, 0, 0]	-999	PAL1	0	R1283T
1594.49	0.266	1801102	TEST_ORIENT	n/a	1	3	ARK	n/a	FOAM	ARK	11	[0, 0, 0]	-999	PAL1	0	R1283T
1594.756	0.617	1801368	RETRIEVAL_ORIENT_OFF	n/a	4	-999	n/a	n/a	n/a	n/a	11	[0, 0, 0]	-999	PAL1	0	R1283T
1595.373	0.001	1801985	TEST_PROBE	n/a	1	3	ARK	n/a	FOAM	ARK	11	[0, 0, 0]	-999	PAL1	0	R1283T
1595.374	4.0	1801986	REC_START	n/a	1	-999	n/a	n/a	n/a	n/a	11	[0, 0, 0]	-999	PAL1	0	R1283T
1599.374	0.998	1805986	PROBE_OFF	n/a	1	-999	n/a	n/a	n/a	n/a	11	[0, 0, 0]	-999	PAL1	0	R1283T
1600.372	0.003	1806984	REC_EVENT	4998	1	3	ARK	<>	FOAM	ARK	11	[0, 0, 0]	-999	PAL1	0	R1283T
1600.375	0.016	1806987	REC_END	n/a	1	-999	n/a	n/a	n/a	n/a	11	[0, 0, 0]	-999	PAL1	0	R1283T
1600.391	0.266	1807003	TEST_ORIENT	n/a	6	4	STRING	GEESE	STRING	MOUSE	11	[0, 0, 0]	-999	PAL1	0	R1283T
1600.657	0.635	1807269	RETRIEVAL_ORIENT_OFF	n/a	1	-999	n/a	n/a	n/a	n/a	11	[0, 0, 0]	-999	PAL1	0	R1283T
1601.292	0.0	1807904	TEST_PROBE	n/a	6	4	STRING	GEESE	STRING	MOUSE	11	[0, 0, 0]	-999	PAL1	0	R1283T
1601.292	4.017	1807904	REC_START	n/a	6	-999	n/a	GEESE	n/a	n/a	11	[0, 0, 0]	-999	PAL1	0	R1283T
1605.309	0.193	1811920	PROBE_OFF	n/a	6	-999	n/a	n/a	n/a	n/a	11	[0, 0, 0]	-999	PAL1	0	R1283T
1605.502	0.807	1812113	REC_EVENT	4210	6	4	STRING	GEESE	STRING	MOUSE	11	[0, 0, 0]	-999	PAL1	0	R1283T
1606.309	0.017	1812920	REC_END	n/a	6	-999	n/a	n/a	n/a	n/a	11	[0, 0, 0]	-999	PAL1	0	R1283T
1606.326	0.265	1812937	TEST_ORIENT	n/a	3	5	FLOOR	n/a	FLOOR	SHEEP	11	[0, 0, 0]	-999	PAL1	0	R1283T
1606.591	0.652	1813202	RETRIEVAL_ORIENT_OFF	n/a	6	-999	n/a	n/a	n/a	n/a	11	[0, 0, 0]	-999	PAL1	0	R1283T
1607.243	0.0	1813854	TEST_PROBE	n/a	3	5	FLOOR	n/a	FLOOR	SHEEP	11	[0, 0, 0]	-999	PAL1	0	R1283T
1607.243	4.017	1813854	REC_START	n/a	3	-999	n/a	n/a	n/a	n/a	11	[0, 0, 0]	-999	PAL1	0	R1283T
1611.26	0.998	1817871	PROBE_OFF	n/a	3	-999	n/a	n/a	n/a	n/a	11	[0, 0, 0]	-999	PAL1	0	R1283T
1612.258	0.002	1818869	REC_EVENT	5015	3	5	FLOOR	<>	FLOOR	SHEEP	11	[0, 0, 0]	-999	PAL1	0	R1283T
1612.26	0.017	1818871	REC_END	n/a	3	-999	n/a	n/a	n/a	n/a	11	[0, 0, 0]	-999	PAL1	0	R1283T
1612.277	0.266	1818888	TEST_ORIENT	n/a	2	6	FLAME	n/a	FLAME	CANE	11	[0, 0, 0]	-999	PAL1	0	R1283T
1612.543	0.751	1819154	RETRIEVAL_ORIENT_OFF	n/a	3	-999	n/a	n/a	n/a	n/a	11	[0, 0, 0]	-999	PAL1	0	R1283T
1613.294	0.0	1819905	TEST_PROBE	n/a	2	6	FLAME	n/a	FLAME	CANE	11	[0, 0, 0]	-999	PAL1	0	R1283T
1613.294	4.017	1819905	REC_START	n/a	2	-999	n/a	n/a	n/a	n/a	11	[0, 0, 0]	-999	PAL1	0	R1283T
1617.311	0.998	1823922	PROBE_OFF	n/a	2	-999	n/a	n/a	n/a	n/a	11	[0, 0, 0]	-999	PAL1	0	R1283T
1618.309	0.002	1824920	REC_EVENT	5015	2	6	FLAME	<>	FLAME	CANE	11	[0, 0, 0]	-999	PAL1	0	R1283T
1618.311	0.01	1824922	REC_END	n/a	2	-999	n/a	n/a	n/a	n/a	11	[0, 0, 0]	-999	PAL1	0	R1283T
1618.321	4.824	1824932	RECALL_END	n/a	-999	-999	n/a	n/a	n/a	n/a	11	[0, 0, 0]	-999	PAL1	0	R1283T
1623.145	10.928	1829755	TRIAL	n/a	-999	-999	n/a	n/a	n/a	n/a	12	[0, 0, 0]	-999	PAL1	0	R1283T
1634.073	0.008	1840683	ENCODING_START	n/a	-999	-999	n/a	n/a	n/a	n/a	12	[0, 0, 0]	-999	PAL1	0	R1283T
1634.081	0.267	1840691	STUDY_ORIENT	n/a	1	5	STORE	CART	STORE	CART	12	[0, 0, 0]	-999	PAL1	0	R1283T
1634.348	0.583	1840958	STUDY_ORIENT_OFF	n/a	1	5	STORE	CART	STORE	CART	12	[0, 0, 0]	-999	PAL1	0	R1283T
1634.931	4.017	1841541	STUDY_PAIR	n/a	1	5	STORE	CART	STORE	CART	12	[0, 0, 0]	-999	PAL1	0	R1283T
1638.948	1.017	1845557	PAIR_OFF	n/a	1	5	STORE	CART	STORE	CART	12	[0, 0, 0]	-999	PAL1	0	R1283T
1639.965	0.267	1846574	STUDY_ORIENT	n/a	2	2	WAND	n/a	HOLE	WAND	12	[0, 0, 0]	-999	PAL1	0	R1283T
1640.232	0.599	1846841	STUDY_ORIENT_OFF	n/a	2	2	WAND	n/a	HOLE	WAND	12	[0, 0, 0]	-999	PAL1	0	R1283T
1640.831	4.017	1847440	STUDY_PAIR	n/a	2	2	WAND	n/a	HOLE	WAND	12	[0, 0, 0]	-999	PAL1	0	R1283T
1644.848	1.017	1851457	PAIR_OFF	n/a	2	2	WAND	n/a	HOLE	WAND	12	[0, 0, 0]	-999	PAL1	0	R1283T
1645.865	0.268	1852474	STUDY_ORIENT	n/a	3	3	HOUSE	BREAD	BREAD	HOUSE	12	[0, 0, 0]	-999	PAL1	0	R1283T
1646.133	0.582	1852742	STUDY_ORIENT_OFF	n/a	3	3	HOUSE	BREAD	BREAD	HOUSE	12	[0, 0, 0]	-999	PAL1	0	R1283T
1646.715	4.018	1853324	STUDY_PAIR	n/a	3	3	HOUSE	BREAD	BREAD	HOUSE	12	[0, 0, 0]	-999	PAL1	0	R1283T
1650.733	1.017	1857342	PAIR_OFF	n/a	3	3	HOUSE	BREAD	BREAD	HOUSE	12	[0, 0, 0]	-999	PAL1	0	R1283T
1651.75	0.267	1858359	STUDY_ORIENT	n/a	4	4	LEAF	TOE	LEAF	TOE	12	[0, 0, 0]	-999	PAL1	0	R1283T
1652.017	0.733	1858626	STUDY_ORIENT_OFF	n/a	4	4	LEAF	TOE	LEAF	TOE	12	[0, 0, 0]	-999	PAL1	0	R1283T
1652.75	4.017	1859359	STUDY_PAIR	n/a	4	4	LEAF	TOE	LEAF	TOE	12	[0, 0, 0]	-999	PAL1	0	R1283T
1656.767	1.017	1863375	PAIR_OFF	n/a	4	4	LEAF	TOE	LEAF	TOE	12	[0, 0, 0]	-999	PAL1	0	R1283T
1657.784	0.251	1864392	STUDY_ORIENT	n/a	5	1	PIN	WING	WING	PIN	12	[0, 0, 0]	-999	PAL1	0	R1283T
1658.035	0.633	1864643	STUDY_ORIENT_OFF	n/a	5	1	PIN	WING	WING	PIN	12	[0, 0, 0]	-999	PAL1	0	R1283T
1658.668	4.017	1865276	STUDY_PAIR	n/a	5	1	PIN	WING	WING	PIN	12	[0, 0, 0]	-999	PAL1	0	R1283T
1662.685	1.017	1869293	PAIR_OFF	n/a	5	1	PIN	WING	WING	PIN	12	[0, 0, 0]	-999	PAL1	0	R1283T
1663.702	0.268	1870310	STUDY_ORIENT	n/a	6	6	BOY	MOTH	BOY	MOTH	12	[0, 0, 0]	-999	PAL1	0	R1283T
1663.97	0.649	1870578	STUDY_ORIENT_OFF	n/a	6	6	BOY	MOTH	BOY	MOTH	12	[0, 0, 0]	-999	PAL1	0	R1283T
1664.619	4.017	1871227	STUDY_PAIR	n/a	6	6	BOY	MOTH	BOY	MOTH	12	[0, 0, 0]	-999	PAL1	0	R1283T
1668.636	1.001	1875244	PAIR_OFF	n/a	6	6	BOY	MOTH	BOY	MOTH	12	[0, 0, 0]	-999	PAL1	0	R1283T
1669.637	0.0	1876244	ENCODING_END	n/a	-999	-999	n/a	n/a	n/a	n/a	12	[0, 0, 0]	-999	PAL1	0	R1283T
1669.637	0.0	1876244	MATH_START	n/a	-999	-999	n/a	n/a	n/a	n/a	12	[0, 0, 0]	-999	PAL1	0	R1283T
1669.637	0.016	1876244	START	n/a	-999	-999	n/a	n/a	n/a	n/a	13	[-999, -999, -999]	-999	PAL1	0	R1283T
1669.653	4.335	1876260	PROB	4302	-999	-999	n/a	n/a	n/a	n/a	13	[8, 1, 9]	18	PAL1	0	R1283T
1673.988	5.733	1880595	PROB	5710	-999	-999	n/a	n/a	n/a	n/a	13	[6, 2, 7]	15	PAL1	0	R1283T
1679.721	4.918	1886328	PROB	4888	-999	-999	n/a	n/a	n/a	n/a	13	[9, 7, 6]	22	PAL1	0	R1283T
1684.639	3.368	1891246	PROB	3332	-999	-999	n/a	n/a	n/a	n/a	13	[2, 4, 6]	12	PAL1	0	R1283T
1688.007	3.156	1894613	PROB	3156	-999	-999	n/a	n/a	n/a	n/a	13	[5, 2, 8]	15	PAL1	0	R1283T
1691.163	0.012	1897769	STOP	n/a	-999	-999	n/a	n/a	n/a	n/a	13	[-999, -999, -999]	-999	PAL1	0	R1283T
1691.175	0.0	1897781	RECALL_START	n/a	-999	-999	n/a	n/a	n/a	n/a	12	[0, 0, 0]	-999	PAL1	0	R1283T
1691.175	0.016	1897781	MATH_END	n/a	-999	-999	n/a	n/a	n/a	n/a	12	[0, 0, 0]	-999	PAL1	0	R1283T
1691.191	0.267	1897797	TEST_ORIENT	n/a	5	1	PIN	WING	WING	PIN	12	[0, 0, 0]	-999	PAL1	0	R1283T
1691.458	0.583	1898064	RETRIEVAL_ORIENT_OFF	n/a	-999	-999	n/a	n/a	n/a	n/a	12	[0, 0, 0]	-999	PAL1	0	R1283T
1692.041	0.001	1898647	TEST_PROBE	n/a	5	1	PIN	WING	WING	PIN	12	[0, 0, 0]	-999	PAL1	0	R1283T
1692.042	3.343	1898648	REC_START	n/a	5	-999	n/a	WING	n/a	n/a	12	[0, 0, 0]	-999	PAL1	0	R1283T
1695.385	0.657	1901991	REC_EVENT	3343	5	1	PIN	WING	WING	PIN	12	[0, 0, 0]	-999	PAL1	0	R1283T
1696.042	1.0	1902648	PROBE_OFF	n/a	5	-999	n/a	n/a	n/a	n/a	12	[0, 0, 0]	-999	PAL1	0	R1283T
1697.042	0.017	1903648	REC_END	n/a	5	-999	n/a	n/a	n/a	n/a	12	[0, 0, 0]	-999	PAL1	0	R1283T
1697.059	0.267	1903665	TEST_ORIENT	n/a	2	2	WAND	n/a	HOLE	WAND	12	[0, 0, 0]	-999	PAL1	0	R1283T
1697.326	0.633	1903932	RETRIEVAL_ORIENT_OFF	n/a	5	-999	n/a	n/a	n/a	n/a	12	[0, 0, 0]	-999	PAL1	0	R1283T
1697.959	0.001	1904565	TEST_PROBE	n/a	2	2	WAND	n/a	HOLE	WAND	12	[0, 0, 0]	-999	PAL1	0	R1283T
1697.96	4.016	1904566	REC_START	n/a	2	-999	n/a	n/a	n/a	n/a	12	[0, 0, 0]	-999	PAL1	0	R1283T
1701.976	0.999	1908581	PROBE_OFF	n/a	2	-999	n/a	n/a	n/a	n/a	12	[0, 0, 0]	-999	PAL1	0	R1283T
1702.975	0.002	1909580	REC_EVENT	5015	2	2	WAND	<>	HOLE	WAND	12	[0, 0, 0]	-999	PAL1	0	R1283T
1702.977	0.016	1909582	REC_END	n/a	2	-999	n/a	n/a	n/a	n/a	12	[0, 0, 0]	-999	PAL1	0	R1283T
1702.993	0.267	1909598	TEST_ORIENT	n/a	3	3	HOUSE	BREAD	BREAD	HOUSE	12	[0, 0, 0]	-999	PAL1	0	R1283T
1703.26	0.566	1909865	RETRIEVAL_ORIENT_OFF	n/a	2	-999	n/a	n/a	n/a	n/a	12	[0, 0, 0]	-999	PAL1	0	R1283T
1703.826	0.0	1910431	TEST_PROBE	n/a	3	3	HOUSE	BREAD	BREAD	HOUSE	12	[0, 0, 0]	-999	PAL1	0	R1283T
1703.826	1.942	1910431	REC_START	n/a	3	-999	n/a	BREAD	n/a	n/a	12	[0, 0, 0]	-999	PAL1	0	R1283T
1705.768	2.075	1912373	REC_EVENT	1942	3	3	HOUSE	BREAD	BREAD	HOUSE	12	[0, 0, 0]	-999	PAL1	0	R1283T
1707.843	1.0	1914448	PROBE_OFF	n/a	3	-999	n/a	n/a	n/a	n/a	12	[0, 0, 0]	-999	PAL1	0	R1283T
1708.843	0.017	1915448	REC_END	n/a	3	-999	n/a	n/a	n/a	n/a	12	[0, 0, 0]	-999	PAL1	0	R1283T
1708.86	0.268	1915465	TEST_ORIENT	n/a	4	4	LEAF	TOE	LEAF	TOE	12	[0, 0, 0]	-999	PAL1	0	R1283T
1709.128	0.682	1915733	RETRIEVAL_ORIENT_OFF	n/a	3	-999	n/a	n/a	n/a	n/a	12	[0, 0, 0]	-999	PAL1	0	R1283T
1709.81	0.001	1916415	TEST_PROBE	n/a	4	4	LEAF	TOE	LEAF	TOE	12	[0, 0, 0]	-999	PAL1	0	R1283T
1709.811	3.628	1916416	REC_START	n/a	4	-999	n/a	TOE	n/a	n/a	12	[0, 0, 0]	-999	PAL1	0	R1283T
1713.439	0.389	1920044	REC_EVENT	3628	4	4	LEAF	TOE	LEAF	TOE	12	[0, 0, 0]	-999	PAL1	0	R1283T
1713.828	1.0	1920433	PROBE_OFF	n/a	4	-999	n/a	n/a	n/a	n/a	12	[0, 0, 0]	-999	PAL1	0	R1283T
1714.828	0.017	1921433	REC_END	n/a	4	-999	n/a	n/a	n/a	n/a	12	[0, 0, 0]	-999	PAL1	0	R1283T
1714.845	0.267	1921450	TEST_ORIENT	n/a	1	5	STORE	CART	STORE	CART	12	[0, 0, 0]	-999	PAL1	0	R1283T
1715.112	0.733	1921717	RETRIEVAL_ORIENT_OFF	n/a	4	-999	n/a	n/a	n/a	n/a	12	[0, 0, 0]	-999	PAL1	0	R1283T
1715.845	0.0	1922450	TEST_PROBE	n/a	1	5	STORE	CART	STORE	CART	12	[0, 0, 0]	-999	PAL1	0	R1283T
1715.845	2.546	1922450	REC_START	n/a	1	-999	n/a	CART	n/a	n/a	12	[0, 0, 0]	-999	PAL1	0	R1283T
1718.391	1.471	1924995	REC_EVENT	2546	1	5	STORE	CART	STORE	CART	12	[0, 0, 0]	-999	PAL1	0	R1283T
1719.862	1.0	1926466	PROBE_OFF	n/a	1	-999	n/a	n/a	n/a	n/a	12	[0, 0, 0]	-999	PAL1	0	R1283T
1720.862	0.018	1927466	REC_END	n/a	1	-999	n/a	n/a	n/a	n/a	12	[0, 0, 0]	-999	PAL1	0	R1283T
1720.88	0.267	1927484	TEST_ORIENT	n/a	6	6	BOY	MOTH	BOY	MOTH	12	[0, 0, 0]	-999	PAL1	0	R1283T
1721.147	0.532	1927751	RETRIEVAL_ORIENT_OFF	n/a	1	-999	n/a	n/a	n/a	n/a	12	[0, 0, 0]	-999	PAL1	0	R1283T
1721.679	0.001	1928283	TEST_PROBE	n/a	6	6	BOY	MOTH	BOY	MOTH	12	[0, 0, 0]	-999	PAL1	0	R1283T
1721.68	1.216	1928284	REC_START	n/a	6	-999	n/a	MOTH	n/a	n/a	12	[0, 0, 0]	-999	PAL1	0	R1283T
1722.896	2.801	1929500	REC_EVENT	1216	6	6	BOY	MOTH	BOY	MOTH	12	[0, 0, 0]	-999	PAL1	0	R1283T
1725.697	1.012	1932301	PROBE_OFF	n/a	6	-999	n/a	n/a	n/a	n/a	12	[0, 0, 0]	-999	PAL1	0	R1283T
1726.709	0.004	1933313	REC_END	n/a	6	-999	n/a	n/a	n/a	n/a	12	[0, 0, 0]	-999	PAL1	0	R1283T
1726.713	4.402	1933317	RECALL_END	n/a	-999	-999	n/a	n/a	n/a	n/a	12	[0, 0, 0]	-999	PAL1	0	R1283T
1731.115	10.928	1937719	TRIAL	n/a	-999	-999	n/a	n/a	n/a	n/a	13	[0, 0, 0]	-999	PAL1	0	R1283T
1742.043	0.007	1948646	ENCODING_START	n/a	-999	-999	n/a	n/a	n/a	n/a	13	[0, 0, 0]	-999	PAL1	0	R1283T
1742.05	0.267	1948653	STUDY_ORIENT	n/a	1	3	BEAN	n/a	FORK	BEAN	13	[0, 0, 0]	-999	PAL1	0	R1283T
1742.317	0.667	1948920	STUDY_ORIENT_OFF	n/a	1	3	BEAN	n/a	FORK	BEAN	13	[0, 0, 0]	-999	PAL1	0	R1283T
1742.984	4.017	1949587	STUDY_PAIR	n/a	1	3	BEAN	n/a	FORK	BEAN	13	[0, 0, 0]	-999	PAL1	0	R1283T
1747.001	1.017	1953604	PAIR_OFF	n/a	1	3	BEAN	n/a	FORK	BEAN	13	[0, 0, 0]	-999	PAL1	0	R1283T
1748.018	0.267	1954621	STUDY_ORIENT	n/a	2	4	BANK	CHAIR	CHAIR	BANK	13	[0, 0, 0]	-999	PAL1	0	R1283T
1748.285	0.617	1954888	STUDY_ORIENT_OFF	n/a	2	4	BANK	CHAIR	CHAIR	BANK	13	[0, 0, 0]	-999	PAL1	0	R1283T
1748.902	4.017	1955505	STUDY_PAIR	n/a	2	4	BANK	CHAIR	CHAIR	BANK	13	[0, 0, 0]	-999	PAL1	0	R1283T
1752.919	1.017	1959521	PAIR_OFF	n/a	2	4	BANK	CHAIR	CHAIR	BANK	13	[0, 0, 0]	-999	PAL1	0	R1283T
1753.936	0.267	1960538	STUDY_ORIENT	n/a	3	5	WORM	TOY	TOY	WORM	13	[0, 0, 0]	-999	PAL1	0	R1283T
1754.203	0.75	1960805	STUDY_ORIENT_OFF	n/a	3	5	WORM	TOY	TOY	WORM	13	[0, 0, 0]	-999	PAL1	0	R1283T
1754.953	4.017	1961555	STUDY_PAIR	n/a	3	5	WORM	TOY	TOY	WORM	13	[0, 0, 0]	-999	PAL1	0	R1283T
1758.97	1.017	1965572	PAIR_OFF	n/a	3	5	WORM	TOY	TOY	WORM	13	[0, 0, 0]	-999	PAL1	0	R1283T
1759.987	0.267	1966589	STUDY_ORIENT	n/a	4	6	COUCH	DESK	COUCH	DESK	13	[0, 0, 0]	-999	PAL1	0	R1283T
1760.254	0.616	1966856	STUDY_ORIENT_OFF	n/a	4	6	COUCH	DESK	COUCH	DESK	13	[0, 0, 0]	-999	PAL1	0	R1283T
1760.87	4.018	1967472	STUDY_PAIR	n/a	4	6	COUCH	DESK	COUCH	DESK	13	[0, 0, 0]	-999	PAL1	0	R1283T
1764.888	1.017	1971490	PAIR_OFF	n/a	4	6	COUCH	DESK	COUCH	DESK	13	[0, 0, 0]	-999	PAL1	0	R1283T
1765.905	0.267	1972507	STUDY_ORIENT	n/a	5	1	SNOW	WORLD	WORLD	SNOW	13	[0, 0, 0]	-999	PAL1	0	R1283T
1766.172	0.75	1972774	STUDY_ORIENT_OFF	n/a	5	1	SNOW	WORLD	WORLD	SNOW	13	[0, 0, 0]	-999	PAL1	0	R1283T
1766.922	4.017	1973524	STUDY_PAIR	n/a	5	1	SNOW	WORLD	WORLD	SNOW	13	[0, 0, 0]	-999	PAL1	0	R1283T
1770.939	1.017	1977540	PAIR_OFF	n/a	5	1	SNOW	WORLD	WORLD	SNOW	13	[0, 0, 0]	-999	PAL1	0	R1283T
1771.956	0.267	1978557	STUDY_ORIENT	n/a	6	2	WOOD	AXE	WOOD	AXE	13	[0, 0, 0]	-999	PAL1	0	R1283T
1772.223	0.549	1978824	STUDY_ORIENT_OFF	n/a	6	2	WOOD	AXE	WOOD	AXE	13	[0, 0, 0]	-999	PAL1	0	R1283T
1772.772	4.017	1979373	STUDY_PAIR	n/a	6	2	WOOD	AXE	WOOD	AXE	13	[0, 0, 0]	-999	PAL1	0	R1283T
1776.789	1.0	1983390	PAIR_OFF	n/a	6	2	WOOD	AXE	WOOD	AXE	13	[0, 0, 0]	-999	PAL1	0	R1283T
1777.789	0.0	1984390	ENCODING_END	n/a	-999	-999	n/a	n/a	n/a	n/a	13	[0, 0, 0]	-999	PAL1	0	R1283T
1777.789	0.001	1984390	MATH_START	n/a	-999	-999	n/a	n/a	n/a	n/a	13	[0, 0, 0]	-999	PAL1	0	R1283T
1777.79	0.016	1984391	START	n/a	-999	-999	n/a	n/a	n/a	n/a	14	[-999, -999, -999]	-999	PAL1	0	R1283T
1777.806	5.352	1984407	PROB	5324	-999	-999	n/a	n/a	n/a	n/a	14	[2, 8, 5]	15	PAL1	0	R1283T
1783.158	4.433	1989759	PROB	4412	-999	-999	n/a	n/a	n/a	n/a	14	[4, 9, 8]	21	PAL1	0	R1283T
