onset	duration	sample	trial_type	response_time	stim_file	serialpos	probepos	probe_word	resp_word	study_1	study_2	list	test	answer	experiment	session	subject
0.0	79.625	530228	SESS_START	n/a	n/a	-999	-999	n/a	n/a	n/a	n/a	-999	[0, 0, 0]	-999	PAL1	0	R1091N
79.625	1.016	609850	START	n/a	n/a	-999	-999	n/a	n/a	n/a	n/a	-1	[-999, -999, -999]	-999	PAL1	0	R1091N
80.641	6.251	610866	PROB	6216	n/a	-999	-999	n/a	n/a	n/a	n/a	-1	[1, 8, 1]	10	PAL1	0	R1091N
86.892	8.519	617117	PROB	8493	n/a	-999	-999	n/a	n/a	n/a	n/a	-1	[5, 3, 9]	17	PAL1	0	R1091N
95.411	7.982	625635	PROB	7982	n/a	-999	-999	n/a	n/a	n/a	n/a	-1	[2, 6, 9]	16	PAL1	0	R1091N
103.393	89.976	633617	STOP	n/a	n/a	-999	-999	n/a	n/a	n/a	n/a	-1	[-999, -999, -999]	-999	PAL1	0	R1091N
193.369	10.443	723590	ENCODING_START	n/a	n/a	0	-999	n/a	n/a	n/a	n/a	1	[0, 0, 0]	-999	PAL1	0	R1091N
203.812	0.8	734032	STUDY_ORIENT	n/a	n/a	1	3	STRAW	n/a	FLAME	STRAW	1	[0, 0, 0]	-999	PAL1	0	R1091N
204.612	5.034	734832	STUDY_PAIR	n/a	wordpools/wordpool_EN.txt	1	3	STRAW	n/a	FLAME	STRAW	1	[0, 0, 0]	-999	PAL1	0	R1091N
209.646	0.818	739866	STUDY_ORIENT	n/a	n/a	2	6	CLOTH	n/a	CLOTH	GRASS	1	[0, 0, 0]	-999	PAL1	0	R1091N
210.464	5.034	740684	STUDY_PAIR	n/a	wordpools/wordpool_EN.txt	2	6	CLOTH	n/a	CLOTH	GRASS	1	[0, 0, 0]	-999	PAL1	0	R1091N
215.498	0.832	745718	STUDY_ORIENT	n/a	n/a	3	1	PEACH	n/a	LAND	PEACH	1	[0, 0, 0]	-999	PAL1	0	R1091N
216.33	5.018	746550	STUDY_PAIR	n/a	wordpools/wordpool_EN.txt	3	1	PEACH	n/a	LAND	PEACH	1	[0, 0, 0]	-999	PAL1	0	R1091N
221.348	0.95	751568	STUDY_ORIENT	n/a	n/a	4	2	ROOF	n/a	ROOF	CLOWN	1	[0, 0, 0]	-999	PAL1	0	R1091N
222.298	5.018	752518	STUDY_PAIR	n/a	wordpools/wordpool_EN.txt	4	2	ROOF	n/a	ROOF	CLOWN	1	[0, 0, 0]	-999	PAL1	0	R1091N
227.316	1.0	757535	STUDY_ORIENT	n/a	n/a	5	5	FORK	FLAME	FORK	TREE	1	[0, 0, 0]	-999	PAL1	0	R1091N
228.316	5.034	758535	STUDY_PAIR	n/a	wordpools/wordpool_EN.txt	5	5	FORK	FLAME	FORK	TREE	1	[0, 0, 0]	-999	PAL1	0	R1091N
233.35	0.867	763569	STUDY_ORIENT	n/a	n/a	6	4	DIME	n/a	DIME	ANT	1	[0, 0, 0]	-999	PAL1	0	R1091N
234.217	4.018	764436	STUDY_PAIR	n/a	wordpools/wordpool_EN.txt	6	4	DIME	n/a	DIME	ANT	1	[0, 0, 0]	-999	PAL1	0	R1091N
238.235	0.999	768454	START	n/a	n/a	-999	-999	n/a	n/a	n/a	n/a	1	[-999, -999, -999]	-999	PAL1	0	R1091N
239.234	0.017	769453	MATH_START	n/a	n/a	-999	-999	n/a	n/a	n/a	n/a	1	[0, 0, 0]	-999	PAL1	0	R1091N
239.251	4.268	769470	PROB	4247	n/a	-999	-999	n/a	n/a	n/a	n/a	1	[7, 3, 2]	12	PAL1	0	R1091N
243.519	6.267	773738	PROB	6234	n/a	-999	-999	n/a	n/a	n/a	n/a	1	[2, 4, 7]	13	PAL1	0	R1091N
249.786	4.984	780005	PROB	4951	n/a	-999	-999	n/a	n/a	n/a	n/a	1	[5, 5, 7]	17	PAL1	0	R1091N
254.77	18.303	784988	PROB	18303	n/a	-999	-999	n/a	n/a	n/a	n/a	1	[9, 9, 5]	20	PAL1	0	R1091N
273.073	0.017	803291	STOP	n/a	n/a	-999	-999	n/a	n/a	n/a	n/a	1	[-999, -999, -999]	-999	PAL1	0	R1091N
273.09	0.0	803308	MATH_END	n/a	n/a	-999	-999	n/a	n/a	n/a	n/a	1	[0, 0, 0]	-999	PAL1	0	R1091N
273.09	0.017	803308	TEST_START	n/a	n/a	-999	-999	n/a	n/a	n/a	n/a	1	[0, 0, 0]	-999	PAL1	0	R1091N
273.107	0.883	803325	TEST_ORIENT	n/a	n/a	3	1	PEACH	n/a	LAND	PEACH	1	[0, 0, 0]	-999	PAL1	0	R1091N
273.99	0.001	804208	TEST_PROBE	n/a	wordpools/wordpool_EN.txt	3	1	PEACH	n/a	LAND	PEACH	1	[0, 0, 0]	-999	PAL1	0	R1091N
273.991	5.003	804209	REC_START	n/a	n/a	3	-999	n/a	n/a	n/a	n/a	1	[0, 0, 0]	-999	PAL1	0	R1091N
278.994	0.005	809212	REC_EVENT	5003	n/a	3	1	PEACH	<>	LAND	PEACH	1	[0, 0, 0]	-999	PAL1	0	R1091N
278.999	0.009	809217	REC_END	n/a	n/a	3	-999	n/a	n/a	n/a	n/a	1	[0, 0, 0]	-999	PAL1	0	R1091N
279.008	0.983	809226	TEST_ORIENT	n/a	n/a	4	2	ROOF	n/a	ROOF	CLOWN	1	[0, 0, 0]	-999	PAL1	0	R1091N
279.991	0.001	810208	TEST_PROBE	n/a	wordpools/wordpool_EN.txt	4	2	ROOF	n/a	ROOF	CLOWN	1	[0, 0, 0]	-999	PAL1	0	R1091N
279.992	1.396	810209	REC_START	n/a	n/a	4	-999	n/a	n/a	n/a	n/a	1	[0, 0, 0]	-999	PAL1	0	R1091N
281.388	1.05	811605	REC_EVENT	1396	n/a	4	2	ROOF	<>	ROOF	CLOWN	1	[0, 0, 0]	-999	PAL1	0	R1091N
282.438	2.562	812655	REC_EVENT	2446	n/a	4	2	ROOF	<>	ROOF	CLOWN	1	[0, 0, 0]	-999	PAL1	0	R1091N
285.0	0.009	815217	REC_END	n/a	n/a	4	-999	n/a	n/a	n/a	n/a	1	[0, 0, 0]	-999	PAL1	0	R1091N
285.009	0.983	815226	TEST_ORIENT	n/a	n/a	1	3	STRAW	n/a	FLAME	STRAW	1	[0, 0, 0]	-999	PAL1	0	R1091N
285.992	0.001	816209	TEST_PROBE	n/a	wordpools/wordpool_EN.txt	1	3	STRAW	n/a	FLAME	STRAW	1	[0, 0, 0]	-999	PAL1	0	R1091N
285.993	2.27	816210	REC_START	n/a	n/a	1	-999	n/a	n/a	n/a	n/a	1	[0, 0, 0]	-999	PAL1	0	R1091N
288.263	1.0	818480	REC_EVENT	2270	n/a	1	3	STRAW	<>	FLAME	STRAW	1	[0, 0, 0]	-999	PAL1	0	R1091N
289.263	1.738	819480	REC_EVENT	3270	n/a	1	3	STRAW	<>	FLAME	STRAW	1	[0, 0, 0]	-999	PAL1	0	R1091N
291.001	0.009	821218	REC_END	n/a	n/a	1	-999	n/a	n/a	n/a	n/a	1	[0, 0, 0]	-999	PAL1	0	R1091N
291.01	0.933	821227	TEST_ORIENT	n/a	n/a	6	4	DIME	n/a	DIME	ANT	1	[0, 0, 0]	-999	PAL1	0	R1091N
291.943	0.001	822160	TEST_PROBE	n/a	wordpools/wordpool_EN.txt	6	4	DIME	n/a	DIME	ANT	1	[0, 0, 0]	-999	PAL1	0	R1091N
291.944	5.011	822161	REC_START	n/a	n/a	6	-999	n/a	n/a	n/a	n/a	1	[0, 0, 0]	-999	PAL1	0	R1091N
296.955	0.004	827172	REC_END	n/a	n/a	6	-999	n/a	n/a	n/a	n/a	1	[0, 0, 0]	-999	PAL1	0	R1091N
296.959	0.018	827176	REC_EVENT	5015	n/a	6	4	DIME	<>	DIME	ANT	1	[0, 0, 0]	-999	PAL1	0	R1091N
296.977	1.034	827194	TEST_ORIENT	n/a	n/a	5	5	FORK	FLAME	FORK	TREE	1	[0, 0, 0]	-999	PAL1	0	R1091N
298.011	0.001	828228	TEST_PROBE	n/a	wordpools/wordpool_EN.txt	5	5	FORK	FLAME	FORK	TREE	1	[0, 0, 0]	-999	PAL1	0	R1091N
298.012	0.891	828229	REC_START	n/a	n/a	5	-999	n/a	FLAME	n/a	n/a	1	[0, 0, 0]	-999	PAL1	0	R1091N
298.903	2.312	829120	REC_EVENT	891	n/a	5	5	FORK	FORK	FORK	TREE	1	[0, 0, 0]	-999	PAL1	0	R1091N
301.215	1.813	831432	REC_EVENT	3203	n/a	5	5	FORK	FLAME	FORK	TREE	1	[0, 0, 0]	-999	PAL1	0	R1091N
303.028	0.017	833245	REC_END	n/a	n/a	5	-999	n/a	n/a	n/a	n/a	1	[0, 0, 0]	-999	PAL1	0	R1091N
303.045	0.8	833262	TEST_ORIENT	n/a	n/a	2	6	CLOTH	n/a	CLOTH	GRASS	1	[0, 0, 0]	-999	PAL1	0	R1091N
303.845	0.001	834062	TEST_PROBE	n/a	wordpools/wordpool_EN.txt	2	6	CLOTH	n/a	CLOTH	GRASS	1	[0, 0, 0]	-999	PAL1	0	R1091N
303.846	4.998	834063	REC_START	n/a	n/a	2	-999	n/a	n/a	n/a	n/a	1	[0, 0, 0]	-999	PAL1	0	R1091N
308.844	0.002	839060	REC_EVENT	4998	n/a	2	6	CLOTH	<>	CLOTH	GRASS	1	[0, 0, 0]	-999	PAL1	0	R1091N
308.846	2.443	839062	REC_END	n/a	n/a	2	-999	n/a	n/a	n/a	n/a	1	[0, 0, 0]	-999	PAL1	0	R1091N
311.289	10.443	841505	ENCODING_START	n/a	n/a	0	-999	n/a	n/a	n/a	n/a	2	[0, 0, 0]	-999	PAL1	0	R1091N
321.732	0.834	851948	STUDY_ORIENT	n/a	n/a	1	5	WEED	n/a	OWL	WEED	2	[0, 0, 0]	-999	PAL1	0	R1091N
322.566	5.033	852782	STUDY_PAIR	n/a	wordpools/wordpool_EN.txt	1	5	WEED	n/a	OWL	WEED	2	[0, 0, 0]	-999	PAL1	0	R1091N
327.599	0.835	857815	STUDY_ORIENT	n/a	n/a	2	6	STEAM	n/a	STEAM	MOUSE	2	[0, 0, 0]	-999	PAL1	0	R1091N
328.434	5.034	858650	STUDY_PAIR	n/a	wordpools/wordpool_EN.txt	2	6	STEAM	n/a	STEAM	MOUSE	2	[0, 0, 0]	-999	PAL1	0	R1091N
333.468	0.799	863683	STUDY_ORIENT	n/a	n/a	3	3	CROW	n/a	CROW	STONE	2	[0, 0, 0]	-999	PAL1	0	R1091N
334.267	5.034	864482	STUDY_PAIR	n/a	wordpools/wordpool_EN.txt	3	3	CROW	n/a	CROW	STONE	2	[0, 0, 0]	-999	PAL1	0	R1091N
339.301	0.867	869516	STUDY_ORIENT	n/a	n/a	4	2	SHIELD	SHIELD	SHIELD	BEE	2	[0, 0, 0]	-999	PAL1	0	R1091N
340.168	5.034	870383	STUDY_PAIR	n/a	wordpools/wordpool_EN.txt	4	2	SHIELD	SHIELD	SHIELD	BEE	2	[0, 0, 0]	-999	PAL1	0	R1091N
345.202	0.867	875417	STUDY_ORIENT	n/a	n/a	5	1	DESK	n/a	VINE	DESK	2	[0, 0, 0]	-999	PAL1	0	R1091N
346.069	5.034	876284	STUDY_PAIR	n/a	wordpools/wordpool_EN.txt	5	1	DESK	n/a	VINE	DESK	2	[0, 0, 0]	-999	PAL1	0	R1091N
351.103	0.884	881318	STUDY_ORIENT	n/a	n/a	6	4	SHOE	n/a	SHOE	LIP	2	[0, 0, 0]	-999	PAL1	0	R1091N
351.987	4.018	882202	STUDY_PAIR	n/a	wordpools/wordpool_EN.txt	6	4	SHOE	n/a	SHOE	LIP	2	[0, 0, 0]	-999	PAL1	0	R1091N
356.005	0.999	886220	START	n/a	n/a	-999	-999	n/a	n/a	n/a	n/a	2	[-999, -999, -999]	-999	PAL1	0	R1091N
357.004	0.017	887219	MATH_START	n/a	n/a	-999	-999	n/a	n/a	n/a	n/a	2	[0, 0, 0]	-999	PAL1	0	R1091N
357.021	8.035	887236	PROB	8012	n/a	-999	-999	n/a	n/a	n/a	n/a	2	[5, 6, 5]	16	PAL1	0	R1091N
365.056	7.385	895270	PROB	7362	n/a	-999	-999	n/a	n/a	n/a	n/a	2	[7, 2, 9]	20	PAL1	0	R1091N
372.441	6.856	902655	PROB	6856	n/a	-999	-999	n/a	n/a	n/a	n/a	2	[6, 2, 3]	11	PAL1	0	R1091N
379.297	0.011	909511	STOP	n/a	n/a	-999	-999	n/a	n/a	n/a	n/a	2	[-999, -999, -999]	-999	PAL1	0	R1091N
379.308	0.0	909522	MATH_END	n/a	n/a	-999	-999	n/a	n/a	n/a	n/a	2	[0, 0, 0]	-999	PAL1	0	R1091N
379.308	0.017	909522	TEST_START	n/a	n/a	-999	-999	n/a	n/a	n/a	n/a	2	[0, 0, 0]	-999	PAL1	0	R1091N
379.325	1.0	909539	TEST_ORIENT	n/a	n/a	5	1	DESK	n/a	VINE	DESK	2	[0, 0, 0]	-999	PAL1	0	R1091N
380.325	0.0	910539	TEST_PROBE	n/a	wordpools/wordpool_EN.txt	5	1	DESK	n/a	VINE	DESK	2	[0, 0, 0]	-999	PAL1	0	R1091N
380.325	4.31	910539	REC_START	n/a	n/a	5	-999	n/a	n/a	n/a	n/a	2	[0, 0, 0]	-999	PAL1	0	R1091N
384.635	0.707	914849	REC_EVENT	4310	n/a	5	1	DESK	<>	VINE	DESK	2	[0, 0, 0]	-999	PAL1	0	R1091N
385.342	0.017	915556	REC_END	n/a	n/a	5	-999	n/a	n/a	n/a	n/a	2	[0, 0, 0]	-999	PAL1	0	R1091N
385.359	0.95	915573	TEST_ORIENT	n/a	n/a	4	2	SHIELD	SHIELD	SHIELD	BEE	2	[0, 0, 0]	-999	PAL1	0	R1091N
386.309	0.0	916523	REC_START	n/a	n/a	4	-999	n/a	SHIELD	n/a	n/a	2	[0, 0, 0]	-999	PAL1	0	R1091N
386.309	0.915	916523	TEST_PROBE	n/a	wordpools/wordpool_EN.txt	4	2	SHIELD	SHIELD	SHIELD	BEE	2	[0, 0, 0]	-999	PAL1	0	R1091N
387.224	3.804	917437	REC_EVENT	915	n/a	4	2	SHIELD	SHIELD	SHIELD	BEE	2	[0, 0, 0]	-999	PAL1	0	R1091N
391.028	0.29	921241	REC_EVENT	4719	n/a	4	2	SHIELD	<>	SHIELD	BEE	2	[0, 0, 0]	-999	PAL1	0	R1091N
391.318	0.009	921531	REC_END	n/a	n/a	4	-999	n/a	n/a	n/a	n/a	2	[0, 0, 0]	-999	PAL1	0	R1091N
391.327	1.017	921540	TEST_ORIENT	n/a	n/a	3	3	CROW	n/a	CROW	STONE	2	[0, 0, 0]	-999	PAL1	0	R1091N
392.344	0.0	922557	TEST_PROBE	n/a	wordpools/wordpool_EN.txt	3	3	CROW	n/a	CROW	STONE	2	[0, 0, 0]	-999	PAL1	0	R1091N
392.344	1.535	922557	REC_START	n/a	n/a	3	-999	n/a	n/a	n/a	n/a	2	[0, 0, 0]	-999	PAL1	0	R1091N
393.879	1.0	924092	REC_EVENT	1535	n/a	3	3	CROW	<>	CROW	STONE	2	[0, 0, 0]	-999	PAL1	0	R1091N
394.879	1.665	925092	REC_EVENT	2535	n/a	3	3	CROW	<>	CROW	STONE	2	[0, 0, 0]	-999	PAL1	0	R1091N
396.544	0.817	926757	REC_EVENT	4200	n/a	3	3	CROW	<>	CROW	STONE	2	[0, 0, 0]	-999	PAL1	0	R1091N
397.361	0.017	927574	REC_END	n/a	n/a	3	-999	n/a	n/a	n/a	n/a	2	[0, 0, 0]	-999	PAL1	0	R1091N
397.378	0.983	927591	TEST_ORIENT	n/a	n/a	6	4	SHOE	n/a	SHOE	LIP	2	[0, 0, 0]	-999	PAL1	0	R1091N
398.361	0.001	928574	TEST_PROBE	n/a	wordpools/wordpool_EN.txt	6	4	SHOE	n/a	SHOE	LIP	2	[0, 0, 0]	-999	PAL1	0	R1091N
398.362	5.008	928575	REC_START	n/a	n/a	6	-999	n/a	n/a	n/a	n/a	2	[0, 0, 0]	-999	PAL1	0	R1091N
403.37	0.001	933583	REC_END	n/a	n/a	6	-999	n/a	n/a	n/a	n/a	2	[0, 0, 0]	-999	PAL1	0	R1091N
403.371	0.008	933584	REC_EVENT	5009	n/a	6	4	SHOE	<>	SHOE	LIP	2	[0, 0, 0]	-999	PAL1	0	R1091N
403.379	1.017	933592	TEST_ORIENT	n/a	n/a	1	5	WEED	n/a	OWL	WEED	2	[0, 0, 0]	-999	PAL1	0	R1091N
404.396	0.001	934609	TEST_PROBE	n/a	wordpools/wordpool_EN.txt	1	5	WEED	n/a	OWL	WEED	2	[0, 0, 0]	-999	PAL1	0	R1091N
404.397	5.026	934610	REC_START	n/a	n/a	1	-999	n/a	n/a	n/a	n/a	2	[0, 0, 0]	-999	PAL1	0	R1091N
409.423	0.001	939636	REC_END	n/a	n/a	1	-999	n/a	n/a	n/a	n/a	2	[0, 0, 0]	-999	PAL1	0	R1091N
409.424	0.007	939637	REC_EVENT	5027	n/a	1	5	WEED	<>	OWL	WEED	2	[0, 0, 0]	-999	PAL1	0	R1091N
409.431	0.832	939644	TEST_ORIENT	n/a	n/a	2	6	STEAM	n/a	STEAM	MOUSE	2	[0, 0, 0]	-999	PAL1	0	R1091N
410.263	0.001	940476	TEST_PROBE	n/a	wordpools/wordpool_EN.txt	2	6	STEAM	n/a	STEAM	MOUSE	2	[0, 0, 0]	-999	PAL1	0	R1091N
410.264	5.003	940477	REC_START	n/a	n/a	2	-999	n/a	n/a	n/a	n/a	2	[0, 0, 0]	-999	PAL1	0	R1091N
415.267	0.005	945479	REC_EVENT	5003	n/a	2	6	STEAM	<>	STEAM	MOUSE	2	[0, 0, 0]	-999	PAL1	0	R1091N
415.272	3.825	945484	REC_END	n/a	n/a	2	-999	n/a	n/a	n/a	n/a	2	[0, 0, 0]	-999	PAL1	0	R1091N
419.097	10.454	949309	ENCODING_START	n/a	n/a	0	-999	n/a	n/a	n/a	n/a	3	[0, 0, 0]	-999	PAL1	0	R1091N
429.551	0.816	959763	STUDY_ORIENT	n/a	n/a	1	5	LAWN	n/a	CAGE	LAWN	3	[0, 0, 0]	-999	PAL1	0	R1091N
430.367	5.035	960579	STUDY_PAIR	n/a	wordpools/wordpool_EN.txt	1	5	LAWN	n/a	CAGE	LAWN	3	[0, 0, 0]	-999	PAL1	0	R1091N
435.402	0.816	965614	STUDY_ORIENT	n/a	n/a	2	2	DOG	n/a	STEAK	DOG	3	[0, 0, 0]	-999	PAL1	0	R1091N
436.218	5.034	966430	STUDY_PAIR	n/a	wordpools/wordpool_EN.txt	2	2	DOG	n/a	STEAK	DOG	3	[0, 0, 0]	-999	PAL1	0	R1091N
441.252	1.017	971463	STUDY_ORIENT	n/a	n/a	3	1	NEST	JUDGE	NEST	OAK	3	[0, 0, 0]	-999	PAL1	0	R1091N
442.269	5.034	972480	STUDY_PAIR	n/a	wordpools/wordpool_EN.txt	3	1	NEST	JUDGE	NEST	OAK	3	[0, 0, 0]	-999	PAL1	0	R1091N
447.303	0.817	977514	STUDY_ORIENT	n/a	n/a	4	4	KEY	n/a	KEY	HORN	3	[0, 0, 0]	-999	PAL1	0	R1091N
448.12	5.034	978331	STUDY_PAIR	n/a	wordpools/wordpool_EN.txt	4	4	KEY	n/a	KEY	HORN	3	[0, 0, 0]	-999	PAL1	0	R1091N
453.154	0.917	983365	STUDY_ORIENT	n/a	n/a	5	3	JUDGE	DOG	BAT	JUDGE	3	[0, 0, 0]	-999	PAL1	0	R1091N
454.071	5.034	984282	STUDY_PAIR	n/a	wordpools/wordpool_EN.txt	5	3	JUDGE	DOG	BAT	JUDGE	3	[0, 0, 0]	-999	PAL1	0	R1091N
459.105	0.833	989316	STUDY_ORIENT	n/a	n/a	6	6	JAIL	n/a	JAIL	FLEA	3	[0, 0, 0]	-999	PAL1	0	R1091N
459.938	4.001	990149	STUDY_PAIR	n/a	wordpools/wordpool_EN.txt	6	6	JAIL	n/a	JAIL	FLEA	3	[0, 0, 0]	-999	PAL1	0	R1091N
463.939	1.0	994150	START	n/a	n/a	-999	-999	n/a	n/a	n/a	n/a	3	[-999, -999, -999]	-999	PAL1	0	R1091N
464.939	0.017	995150	MATH_START	n/a	n/a	-999	-999	n/a	n/a	n/a	n/a	3	[0, 0, 0]	-999	PAL1	0	R1091N
464.956	12.503	995167	PROB	12470	n/a	-999	-999	n/a	n/a	n/a	n/a	3	[6, 3, 4]	14	PAL1	0	R1091N
477.459	6.822	1007669	PROB	6822	n/a	-999	-999	n/a	n/a	n/a	n/a	3	[3, 9, 9]	21	PAL1	0	R1091N
484.281	0.011	1014491	STOP	n/a	n/a	-999	-999	n/a	n/a	n/a	n/a	3	[-999, -999, -999]	-999	PAL1	0	R1091N
484.292	0.0	1014502	MATH_END	n/a	n/a	-999	-999	n/a	n/a	n/a	n/a	3	[0, 0, 0]	-999	PAL1	0	R1091N
484.292	0.017	1014502	TEST_START	n/a	n/a	-999	-999	n/a	n/a	n/a	n/a	3	[0, 0, 0]	-999	PAL1	0	R1091N
484.309	0.817	1014519	TEST_ORIENT	n/a	n/a	3	1	NEST	JUDGE	NEST	OAK	3	[0, 0, 0]	-999	PAL1	0	R1091N
485.126	0.001	1015336	TEST_PROBE	n/a	wordpools/wordpool_EN.txt	3	1	NEST	JUDGE	NEST	OAK	3	[0, 0, 0]	-999	PAL1	0	R1091N
485.127	4.16	1015337	REC_START	n/a	n/a	3	-999	n/a	JUDGE	n/a	n/a	3	[0, 0, 0]	-999	PAL1	0	R1091N
489.287	0.856	1019497	REC_EVENT	4160	n/a	3	1	NEST	JUDGE	NEST	OAK	3	[0, 0, 0]	-999	PAL1	0	R1091N
490.143	0.017	1020353	REC_END	n/a	n/a	3	-999	n/a	n/a	n/a	n/a	3	[0, 0, 0]	-999	PAL1	0	R1091N
490.16	0.817	1020370	TEST_ORIENT	n/a	n/a	2	2	DOG	n/a	STEAK	DOG	3	[0, 0, 0]	-999	PAL1	0	R1091N
490.977	0.0	1021187	TEST_PROBE	n/a	wordpools/wordpool_EN.txt	2	2	DOG	n/a	STEAK	DOG	3	[0, 0, 0]	-999	PAL1	0	R1091N
490.977	1.899	1021187	REC_START	n/a	n/a	2	-999	n/a	n/a	n/a	n/a	3	[0, 0, 0]	-999	PAL1	0	R1091N
492.876	3.118	1023086	REC_EVENT	1899	n/a	2	2	DOG	<>	STEAK	DOG	3	[0, 0, 0]	-999	PAL1	0	R1091N
495.994	0.017	1026203	REC_END	n/a	n/a	2	-999	n/a	n/a	n/a	n/a	3	[0, 0, 0]	-999	PAL1	0	R1091N
496.011	0.884	1026220	TEST_ORIENT	n/a	n/a	5	3	JUDGE	DOG	BAT	JUDGE	3	[0, 0, 0]	-999	PAL1	0	R1091N
496.895	0.0	1027104	REC_START	n/a	n/a	5	-999	n/a	DOG	n/a	n/a	3	[0, 0, 0]	-999	PAL1	0	R1091N
496.895	4.019	1027104	TEST_PROBE	n/a	wordpools/wordpool_EN.txt	5	3	JUDGE	DOG	BAT	JUDGE	3	[0, 0, 0]	-999	PAL1	0	R1091N
500.914	0.998	1031123	REC_EVENT	4019	n/a	5	3	JUDGE	DOG	BAT	JUDGE	3	[0, 0, 0]	-999	PAL1	0	R1091N
501.912	0.017	1032121	REC_END	n/a	n/a	5	-999	n/a	n/a	n/a	n/a	3	[0, 0, 0]	-999	PAL1	0	R1091N
501.929	0.8	1032138	TEST_ORIENT	n/a	n/a	4	4	KEY	n/a	KEY	HORN	3	[0, 0, 0]	-999	PAL1	0	R1091N
502.729	0.001	1032938	TEST_PROBE	n/a	wordpools/wordpool_EN.txt	4	4	KEY	n/a	KEY	HORN	3	[0, 0, 0]	-999	PAL1	0	R1091N
502.73	3.284	1032939	REC_START	n/a	n/a	4	-999	n/a	n/a	n/a	n/a	3	[0, 0, 0]	-999	PAL1	0	R1091N
506.014	1.732	1036223	REC_EVENT	3284	n/a	4	4	KEY	<>	KEY	HORN	3	[0, 0, 0]	-999	PAL1	0	R1091N
507.746	0.017	1037955	REC_END	n/a	n/a	4	-999	n/a	n/a	n/a	n/a	3	[0, 0, 0]	-999	PAL1	0	R1091N
507.763	0.95	1037972	TEST_ORIENT	n/a	n/a	1	5	LAWN	n/a	CAGE	LAWN	3	[0, 0, 0]	-999	PAL1	0	R1091N
508.713	0.001	1038922	TEST_PROBE	n/a	wordpools/wordpool_EN.txt	1	5	LAWN	n/a	CAGE	LAWN	3	[0, 0, 0]	-999	PAL1	0	R1091N
508.714	5.008	1038923	REC_START	n/a	n/a	1	-999	n/a	n/a	n/a	n/a	3	[0, 0, 0]	-999	PAL1	0	R1091N
513.722	0.001	1043931	REC_END	n/a	n/a	1	-999	n/a	n/a	n/a	n/a	3	[0, 0, 0]	-999	PAL1	0	R1091N
513.723	0.008	1043932	REC_EVENT	5009	n/a	1	5	LAWN	<>	CAGE	LAWN	3	[0, 0, 0]	-999	PAL1	0	R1091N
513.731	0.933	1043940	TEST_ORIENT	n/a	n/a	6	6	JAIL	n/a	JAIL	FLEA	3	[0, 0, 0]	-999	PAL1	0	R1091N
514.664	0.001	1044873	TEST_PROBE	n/a	wordpools/wordpool_EN.txt	6	6	JAIL	n/a	JAIL	FLEA	3	[0, 0, 0]	-999	PAL1	0	R1091N
514.665	1.805	1044874	REC_START	n/a	n/a	6	-999	n/a	n/a	n/a	n/a	3	[0, 0, 0]	-999	PAL1	0	R1091N
516.47	1.0	1046679	REC_EVENT	1805	n/a	6	6	JAIL	<>	JAIL	FLEA	3	[0, 0, 0]	-999	PAL1	0	R1091N
517.47	2.203	1047679	REC_EVENT	2805	n/a	6	6	JAIL	<>	JAIL	FLEA	3	[0, 0, 0]	-999	PAL1	0	R1091N
519.673	1.544	1049882	REC_END	n/a	n/a	6	-999	n/a	n/a	n/a	n/a	3	[0, 0, 0]	-999	PAL1	0	R1091N
521.217	10.45	1051425	ENCODING_START	n/a	n/a	0	-999	n/a	n/a	n/a	n/a	4	[0, 0, 0]	-999	PAL1	0	R1091N
531.667	0.818	1061875	STUDY_ORIENT	n/a	n/a	1	5	WAVE	n/a	PET	WAVE	4	[0, 0, 0]	-999	PAL1	0	R1091N
532.485	5.034	1062693	STUDY_PAIR	n/a	wordpools/wordpool_EN.txt	1	5	WAVE	n/a	PET	WAVE	4	[0, 0, 0]	-999	PAL1	0	R1091N
537.519	1.0	1067727	STUDY_ORIENT	n/a	n/a	2	4	EAR	n/a	EAR	HOOF	4	[0, 0, 0]	-999	PAL1	0	R1091N
538.519	5.035	1068727	STUDY_PAIR	n/a	wordpools/wordpool_EN.txt	2	4	EAR	n/a	EAR	HOOF	4	[0, 0, 0]	-999	PAL1	0	R1091N
543.554	0.782	1073762	STUDY_ORIENT	n/a	n/a	3	1	CAR	n/a	CAR	LEAF	4	[0, 0, 0]	-999	PAL1	0	R1091N
544.336	5.034	1074544	STUDY_PAIR	n/a	wordpools/wordpool_EN.txt	3	1	CAR	n/a	CAR	LEAF	4	[0, 0, 0]	-999	PAL1	0	R1091N
549.37	0.984	1079577	STUDY_ORIENT	n/a	n/a	4	6	FORT	n/a	POOL	FORT	4	[0, 0, 0]	-999	PAL1	0	R1091N
550.354	5.034	1080561	STUDY_PAIR	n/a	wordpools/wordpool_EN.txt	4	6	FORT	n/a	POOL	FORT	4	[0, 0, 0]	-999	PAL1	0	R1091N
555.388	0.817	1085595	STUDY_ORIENT	n/a	n/a	5	3	PRINCE	n/a	TANK	PRINCE	4	[0, 0, 0]	-999	PAL1	0	R1091N
556.205	5.034	1086412	STUDY_PAIR	n/a	wordpools/wordpool_EN.txt	5	3	PRINCE	n/a	TANK	PRINCE	4	[0, 0, 0]	-999	PAL1	0	R1091N
561.239	1.0	1091446	STUDY_ORIENT	n/a	n/a	6	2	SHIRT	n/a	SPOON	SHIRT	4	[0, 0, 0]	-999	PAL1	0	R1091N
562.239	4.018	1092446	STUDY_PAIR	n/a	wordpools/wordpool_EN.txt	6	2	SHIRT	n/a	SPOON	SHIRT	4	[0, 0, 0]	-999	PAL1	0	R1091N
566.257	0.999	1096464	START	n/a	n/a	-999	-999	n/a	n/a	n/a	n/a	4	[-999, -999, -999]	-999	PAL1	0	R1091N
567.256	0.017	1097463	MATH_START	n/a	n/a	-999	-999	n/a	n/a	n/a	n/a	4	[0, 0, 0]	-999	PAL1	0	R1091N
567.273	10.469	1097480	PROB	10448	n/a	-999	-999	n/a	n/a	n/a	n/a	4	[8, 7, 3]	14	PAL1	0	R1091N
577.742	7.802	1107948	PROB	7780	n/a	-999	-999	n/a	n/a	n/a	n/a	4	[1, 8, 7]	15	PAL1	0	R1091N
585.544	8.922	1115750	PROB	8922	n/a	-999	-999	n/a	n/a	n/a	n/a	4	[3, 9, 2]	15	PAL1	0	R1091N
594.466	0.013	1124672	STOP	n/a	n/a	-999	-999	n/a	n/a	n/a	n/a	4	[-999, -999, -999]	-999	PAL1	0	R1091N
594.479	0.0	1124685	MATH_END	n/a	n/a	-999	-999	n/a	n/a	n/a	n/a	4	[0, 0, 0]	-999	PAL1	0	R1091N
594.479	0.016	1124685	TEST_START	n/a	n/a	-999	-999	n/a	n/a	n/a	n/a	4	[0, 0, 0]	-999	PAL1	0	R1091N
594.495	0.984	1124701	TEST_ORIENT	n/a	n/a	3	1	CAR	n/a	CAR	LEAF	4	[0, 0, 0]	-999	PAL1	0	R1091N
595.479	0.001	1125685	TEST_PROBE	n/a	wordpools/wordpool_EN.txt	3	1	CAR	n/a	CAR	LEAF	4	[0, 0, 0]	-999	PAL1	0	R1091N
595.48	5.015	1125686	REC_START	n/a	n/a	3	-999	n/a	n/a	n/a	n/a	4	[0, 0, 0]	-999	PAL1	0	R1091N
600.495	0.001	1130701	REC_EVENT	5015	n/a	3	1	CAR	<>	CAR	LEAF	4	[0, 0, 0]	-999	PAL1	0	R1091N
600.496	0.017	1130702	REC_END	n/a	n/a	3	-999	n/a	n/a	n/a	n/a	4	[0, 0, 0]	-999	PAL1	0	R1091N
600.513	1.034	1130719	TEST_ORIENT	n/a	n/a	6	2	SHIRT	n/a	SPOON	SHIRT	4	[0, 0, 0]	-999	PAL1	0	R1091N
601.547	0.0	1131753	TEST_PROBE	n/a	wordpools/wordpool_EN.txt	6	2	SHIRT	n/a	SPOON	SHIRT	4	[0, 0, 0]	-999	PAL1	0	R1091N
601.547	3.249	1131753	REC_START	n/a	n/a	6	-999	n/a	n/a	n/a	n/a	4	[0, 0, 0]	-999	PAL1	0	R1091N
604.796	0.995	1135001	REC_EVENT	3249	n/a	6	2	SHIRT	<>	SPOON	SHIRT	4	[0, 0, 0]	-999	PAL1	0	R1091N
605.791	0.773	1135996	REC_EVENT	4244	n/a	6	2	SHIRT	<>	SPOON	SHIRT	4	[0, 0, 0]	-999	PAL1	0	R1091N
606.564	0.016	1136769	REC_END	n/a	n/a	6	-999	n/a	n/a	n/a	n/a	4	[0, 0, 0]	-999	PAL1	0	R1091N
606.58	0.884	1136785	TEST_ORIENT	n/a	n/a	5	3	PRINCE	n/a	TANK	PRINCE	4	[0, 0, 0]	-999	PAL1	0	R1091N
607.464	0.001	1137669	TEST_PROBE	n/a	wordpools/wordpool_EN.txt	5	3	PRINCE	n/a	TANK	PRINCE	4	[0, 0, 0]	-999	PAL1	0	R1091N
607.465	2.368	1137670	REC_START	n/a	n/a	5	-999	n/a	n/a	n/a	n/a	4	[0, 0, 0]	-999	PAL1	0	R1091N
609.833	2.195	1140038	REC_EVENT	2368	n/a	5	3	PRINCE	<>	TANK	PRINCE	4	[0, 0, 0]	-999	PAL1	0	R1091N
612.028	0.437	1142233	REC_EVENT	4563	n/a	5	3	PRINCE	<>	TANK	PRINCE	4	[0, 0, 0]	-999	PAL1	0	R1091N
612.465	0.017	1142670	REC_END	n/a	n/a	5	-999	n/a	n/a	n/a	n/a	4	[0, 0, 0]	-999	PAL1	0	R1091N
612.482	0.983	1142687	TEST_ORIENT	n/a	n/a	2	4	EAR	n/a	EAR	HOOF	4	[0, 0, 0]	-999	PAL1	0	R1091N
613.465	0.001	1143670	TEST_PROBE	n/a	wordpools/wordpool_EN.txt	2	4	EAR	n/a	EAR	HOOF	4	[0, 0, 0]	-999	PAL1	0	R1091N
613.466	1.651	1143671	REC_START	n/a	n/a	2	-999	n/a	n/a	n/a	n/a	4	[0, 0, 0]	-999	PAL1	0	R1091N
615.117	1.0	1145322	REC_EVENT	1651	n/a	2	4	EAR	<>	EAR	HOOF	4	[0, 0, 0]	-999	PAL1	0	R1091N
616.117	2.356	1146322	REC_EVENT	2651	n/a	2	4	EAR	<>	EAR	HOOF	4	[0, 0, 0]	-999	PAL1	0	R1091N
618.473	0.01	1148678	REC_END	n/a	n/a	2	-999	n/a	n/a	n/a	n/a	4	[0, 0, 0]	-999	PAL1	0	R1091N
618.483	1.0	1148688	TEST_ORIENT	n/a	n/a	1	5	WAVE	n/a	PET	WAVE	4	[0, 0, 0]	-999	PAL1	0	R1091N
619.483	0.001	1149688	TEST_PROBE	n/a	wordpools/wordpool_EN.txt	1	5	WAVE	n/a	PET	WAVE	4	[0, 0, 0]	-999	PAL1	0	R1091N
619.484	5.015	1149689	REC_START	n/a	n/a	1	-999	n/a	n/a	n/a	n/a	4	[0, 0, 0]	-999	PAL1	0	R1091N
624.499	0.001	1154704	REC_EVENT	5015	n/a	1	5	WAVE	<>	PET	WAVE	4	[0, 0, 0]	-999	PAL1	0	R1091N
624.5	0.017	1154705	REC_END	n/a	n/a	1	-999	n/a	n/a	n/a	n/a	4	[0, 0, 0]	-999	PAL1	0	R1091N
624.517	0.816	1154722	TEST_ORIENT	n/a	n/a	4	6	FORT	n/a	POOL	FORT	4	[0, 0, 0]	-999	PAL1	0	R1091N
625.333	0.0	1155538	TEST_PROBE	n/a	wordpools/wordpool_EN.txt	4	6	FORT	n/a	POOL	FORT	4	[0, 0, 0]	-999	PAL1	0	R1091N
625.333	5.015	1155538	REC_START	n/a	n/a	4	-999	n/a	n/a	n/a	n/a	4	[0, 0, 0]	-999	PAL1	0	R1091N
630.348	0.002	1160552	REC_EVENT	5015	n/a	4	6	FORT	<>	POOL	FORT	4	[0, 0, 0]	-999	PAL1	0	R1091N
630.35	1.555	1160554	REC_END	n/a	n/a	4	-999	n/a	n/a	n/a	n/a	4	[0, 0, 0]	-999	PAL1	0	R1091N
631.905	10.448	1162109	ENCODING_START	n/a	n/a	0	-999	n/a	n/a	n/a	n/a	5	[0, 0, 0]	-999	PAL1	0	R1091N
642.353	0.85	1172557	STUDY_ORIENT	n/a	n/a	1	1	BOARD	n/a	BOARD	FOX	5	[0, 0, 0]	-999	PAL1	0	R1091N
643.203	5.034	1173407	STUDY_PAIR	n/a	wordpools/wordpool_EN.txt	1	1	BOARD	n/a	BOARD	FOX	5	[0, 0, 0]	-999	PAL1	0	R1091N
648.237	0.917	1178441	STUDY_ORIENT	n/a	n/a	2	6	FLUTE	n/a	POND	FLUTE	5	[0, 0, 0]	-999	PAL1	0	R1091N
649.154	5.034	1179358	STUDY_PAIR	n/a	wordpools/wordpool_EN.txt	2	6	FLUTE	n/a	POND	FLUTE	5	[0, 0, 0]	-999	PAL1	0	R1091N
654.188	0.8	1184392	STUDY_ORIENT	n/a	n/a	3	5	SPONGE	n/a	WHALE	SPONGE	5	[0, 0, 0]	-999	PAL1	0	R1091N
654.988	5.034	1185192	STUDY_PAIR	n/a	wordpools/wordpool_EN.txt	3	5	SPONGE	n/a	WHALE	SPONGE	5	[0, 0, 0]	-999	PAL1	0	R1091N
660.022	1.017	1190225	STUDY_ORIENT	n/a	n/a	4	2	CROWN	n/a	SWORD	CROWN	5	[0, 0, 0]	-999	PAL1	0	R1091N
661.039	5.034	1191242	STUDY_PAIR	n/a	wordpools/wordpool_EN.txt	4	2	CROWN	n/a	SWORD	CROWN	5	[0, 0, 0]	-999	PAL1	0	R1091N
666.073	0.984	1196276	STUDY_ORIENT	n/a	n/a	5	3	DART	n/a	DART	CLOUD	5	[0, 0, 0]	-999	PAL1	0	R1091N
667.057	5.034	1197260	STUDY_PAIR	n/a	wordpools/wordpool_EN.txt	5	3	DART	n/a	DART	CLOUD	5	[0, 0, 0]	-999	PAL1	0	R1091N
672.091	0.883	1202294	STUDY_ORIENT	n/a	n/a	6	4	BATH	n/a	BATH	FOOD	5	[0, 0, 0]	-999	PAL1	0	R1091N
672.974	4.001	1203177	STUDY_PAIR	n/a	wordpools/wordpool_EN.txt	6	4	BATH	n/a	BATH	FOOD	5	[0, 0, 0]	-999	PAL1	0	R1091N
676.975	1.0	1207178	START	n/a	n/a	-999	-999	n/a	n/a	n/a	n/a	5	[-999, -999, -999]	-999	PAL1	0	R1091N
677.975	0.017	1208178	MATH_START	n/a	n/a	-999	-999	n/a	n/a	n/a	n/a	5	[0, 0, 0]	-999	PAL1	0	R1091N
677.992	20.297	1208195	PROB	20297	n/a	-999	-999	n/a	n/a	n/a	n/a	5	[6, 2, 7]	16	PAL1	0	R1091N
698.289	0.006	1228491	STOP	n/a	n/a	-999	-999	n/a	n/a	n/a	n/a	5	[-999, -999, -999]	-999	PAL1	0	R1091N
698.295	0.0	1228497	MATH_END	n/a	n/a	-999	-999	n/a	n/a	n/a	n/a	5	[0, 0, 0]	-999	PAL1	0	R1091N
698.295	0.017	1228497	TEST_START	n/a	n/a	-999	-999	n/a	n/a	n/a	n/a	5	[0, 0, 0]	-999	PAL1	0	R1091N
698.312	0.9	1228514	TEST_ORIENT	n/a	n/a	1	1	BOARD	n/a	BOARD	FOX	5	[0, 0, 0]	-999	PAL1	0	R1091N
699.212	0.001	1229414	TEST_PROBE	n/a	wordpools/wordpool_EN.txt	1	1	BOARD	n/a	BOARD	FOX	5	[0, 0, 0]	-999	PAL1	0	R1091N
699.213	5.009	1229415	REC_START	n/a	n/a	1	-999	n/a	n/a	n/a	n/a	5	[0, 0, 0]	-999	PAL1	0	R1091N
704.222	0.0	1234424	REC_EVENT	5009	n/a	1	1	BOARD	<>	BOARD	FOX	5	[0, 0, 0]	-999	PAL1	0	R1091N
704.222	0.007	1234424	REC_END	n/a	n/a	1	-999	n/a	n/a	n/a	n/a	5	[0, 0, 0]	-999	PAL1	0	R1091N
704.229	0.918	1234431	TEST_ORIENT	n/a	n/a	4	2	CROWN	n/a	SWORD	CROWN	5	[0, 0, 0]	-999	PAL1	0	R1091N
705.147	0.0	1235349	TEST_PROBE	n/a	wordpools/wordpool_EN.txt	4	2	CROWN	n/a	SWORD	CROWN	5	[0, 0, 0]	-999	PAL1	0	R1091N
705.147	5.015	1235349	REC_START	n/a	n/a	4	-999	n/a	n/a	n/a	n/a	5	[0, 0, 0]	-999	PAL1	0	R1091N
710.162	0.002	1240363	REC_EVENT	5015	n/a	4	2	CROWN	<>	SWORD	CROWN	5	[0, 0, 0]	-999	PAL1	0	R1091N
710.164	0.017	1240365	REC_END	n/a	n/a	4	-999	n/a	n/a	n/a	n/a	5	[0, 0, 0]	-999	PAL1	0	R1091N
710.181	1.016	1240382	TEST_ORIENT	n/a	n/a	5	3	DART	n/a	DART	CLOUD	5	[0, 0, 0]	-999	PAL1	0	R1091N
711.197	0.001	1241398	TEST_PROBE	n/a	wordpools/wordpool_EN.txt	5	3	DART	n/a	DART	CLOUD	5	[0, 0, 0]	-999	PAL1	0	R1091N
711.198	0.0	1241399	REC_START	n/a	n/a	5	-999	n/a	n/a	n/a	n/a	5	[0, 0, 0]	-999	PAL1	0	R1091N
711.198	5.009	1241399	REC_EVENT	0	n/a	5	3	DART	<>	DART	CLOUD	5	[0, 0, 0]	-999	PAL1	0	R1091N
716.207	0.008	1246408	REC_END	n/a	n/a	5	-999	n/a	n/a	n/a	n/a	5	[0, 0, 0]	-999	PAL1	0	R1091N
716.215	0.867	1246416	TEST_ORIENT	n/a	n/a	6	4	BATH	n/a	BATH	FOOD	5	[0, 0, 0]	-999	PAL1	0	R1091N
717.082	0.001	1247283	TEST_PROBE	n/a	wordpools/wordpool_EN.txt	6	4	BATH	n/a	BATH	FOOD	5	[0, 0, 0]	-999	PAL1	0	R1091N
717.083	0.0	1247284	REC_START	n/a	n/a	6	-999	n/a	n/a	n/a	n/a	5	[0, 0, 0]	-999	PAL1	0	R1091N
717.083	1.0	1247284	REC_EVENT	0	n/a	6	4	BATH	<>	BATH	FOOD	5	[0, 0, 0]	-999	PAL1	0	R1091N
718.083	2.174	1248284	REC_EVENT	1000	n/a	6	4	BATH	<>	BATH	FOOD	5	[0, 0, 0]	-999	PAL1	0	R1091N
720.257	1.0	1250458	REC_EVENT	3174	n/a	6	4	BATH	<>	BATH	FOOD	5	[0, 0, 0]	-999	PAL1	0	R1091N
721.257	0.852	1251458	REC_EVENT	4174	n/a	6	4	BATH	<>	BATH	FOOD	5	[0, 0, 0]	-999	PAL1	0	R1091N
722.109	0.007	1252310	REC_END	n/a	n/a	6	-999	n/a	n/a	n/a	n/a	5	[0, 0, 0]	-999	PAL1	0	R1091N
722.116	0.8	1252317	TEST_ORIENT	n/a	n/a	3	5	SPONGE	n/a	WHALE	SPONGE	5	[0, 0, 0]	-999	PAL1	0	R1091N
722.916	0.001	1253117	TEST_PROBE	n/a	wordpools/wordpool_EN.txt	3	5	SPONGE	n/a	WHALE	SPONGE	5	[0, 0, 0]	-999	PAL1	0	R1091N
722.917	1.221	1253118	REC_START	n/a	n/a	3	-999	n/a	n/a	n/a	n/a	5	[0, 0, 0]	-999	PAL1	0	R1091N
724.138	1.0	1254339	REC_EVENT	1221	n/a	3	5	SPONGE	<>	WHALE	SPONGE	5	[0, 0, 0]	-999	PAL1	0	R1091N
725.138	2.788	1255339	REC_EVENT	2221	n/a	3	5	SPONGE	<>	WHALE	SPONGE	5	[0, 0, 0]	-999	PAL1	0	R1091N
727.926	0.007	1258127	REC_END	n/a	n/a	3	-999	n/a	n/a	n/a	n/a	5	[0, 0, 0]	-999	PAL1	0	R1091N
727.933	0.784	1258134	TEST_ORIENT	n/a	n/a	2	6	FLUTE	n/a	POND	FLUTE	5	[0, 0, 0]	-999	PAL1	0	R1091N
728.717	0.0	1258918	TEST_PROBE	n/a	wordpools/wordpool_EN.txt	2	6	FLUTE	n/a	POND	FLUTE	5	[0, 0, 0]	-999	PAL1	0	R1091N
728.717	5.015	1258918	REC_START	n/a	n/a	2	-999	n/a	n/a	n/a	n/a	5	[0, 0, 0]	-999	PAL1	0	R1091N
733.732	0.002	1263933	REC_EVENT	5015	n/a	2	6	FLUTE	<>	POND	FLUTE	5	[0, 0, 0]	-999	PAL1	0	R1091N
733.734	24.923	1263935	REC_END	n/a	n/a	2	-999	n/a	n/a	n/a	n/a	5	[0, 0, 0]	-999	PAL1	0	R1091N
758.657	10.45	1288857	ENCODING_START	n/a	n/a	0	-999	n/a	n/a	n/a	n/a	6	[0, 0, 0]	-999	PAL1	0	R1091N
769.107	0.9	1299306	STUDY_ORIENT	n/a	n/a	1	3	SNOW	n/a	SNOW	BAG	6	[0, 0, 0]	-999	PAL1	0	R1091N
770.007	5.018	1300206	STUDY_PAIR	n/a	wordpools/wordpool_EN.txt	1	3	SNOW	n/a	SNOW	BAG	6	[0, 0, 0]	-999	PAL1	0	R1091N
775.025	0.833	1305224	STUDY_ORIENT	n/a	n/a	2	2	FILM	CASH	CASH	FILM	6	[0, 0, 0]	-999	PAL1	0	R1091N
775.858	5.018	1306057	STUDY_PAIR	n/a	wordpools/wordpool_EN.txt	2	2	FILM	CASH	CASH	FILM	6	[0, 0, 0]	-999	PAL1	0	R1091N
780.876	1.0	1311075	STUDY_ORIENT	n/a	n/a	3	5	SHEET	n/a	SHEET	RAT	6	[0, 0, 0]	-999	PAL1	0	R1091N
781.876	5.034	1312075	STUDY_PAIR	n/a	wordpools/wordpool_EN.txt	3	5	SHEET	n/a	SHEET	RAT	6	[0, 0, 0]	-999	PAL1	0	R1091N
786.91	0.8	1317109	STUDY_ORIENT	n/a	n/a	4	4	SPEAR	n/a	SPEAR	NAIL	6	[0, 0, 0]	-999	PAL1	0	R1091N
787.71	5.018	1317909	STUDY_PAIR	n/a	wordpools/wordpool_EN.txt	4	4	SPEAR	n/a	SPEAR	NAIL	6	[0, 0, 0]	-999	PAL1	0	R1091N
792.728	0.867	1322926	STUDY_ORIENT	n/a	n/a	5	1	FROG	n/a	ZOO	FROG	6	[0, 0, 0]	-999	PAL1	0	R1091N
793.595	5.034	1323793	STUDY_PAIR	n/a	wordpools/wordpool_EN.txt	5	1	FROG	n/a	ZOO	FROG	6	[0, 0, 0]	-999	PAL1	0	R1091N
798.629	0.868	1328827	STUDY_ORIENT	n/a	n/a	6	6	ROAD	n/a	ROAD	BARN	6	[0, 0, 0]	-999	PAL1	0	R1091N
799.497	4.018	1329695	STUDY_PAIR	n/a	wordpools/wordpool_EN.txt	6	6	ROAD	n/a	ROAD	BARN	6	[0, 0, 0]	-999	PAL1	0	R1091N
803.515	0.999	1333713	START	n/a	n/a	-999	-999	n/a	n/a	n/a	n/a	6	[-999, -999, -999]	-999	PAL1	0	R1091N
804.514	0.017	1334712	MATH_START	n/a	n/a	-999	-999	n/a	n/a	n/a	n/a	6	[0, 0, 0]	-999	PAL1	0	R1091N
804.531	8.985	1334729	PROB	8951	n/a	-999	-999	n/a	n/a	n/a	n/a	6	[8, 1, 1]	10	PAL1	0	R1091N
813.516	14.173	1343714	PROB	14173	n/a	-999	-999	n/a	n/a	n/a	n/a	6	[8, 7, 4]	18	PAL1	0	R1091N
827.689	0.012	1357886	STOP	n/a	n/a	-999	-999	n/a	n/a	n/a	n/a	6	[-999, -999, -999]	-999	PAL1	0	R1091N
827.701	0.0	1357898	MATH_END	n/a	n/a	-999	-999	n/a	n/a	n/a	n/a	6	[0, 0, 0]	-999	PAL1	0	R1091N
827.701	0.016	1357898	TEST_START	n/a	n/a	-999	-999	n/a	n/a	n/a	n/a	6	[0, 0, 0]	-999	PAL1	0	R1091N
827.717	1.051	1357914	TEST_ORIENT	n/a	n/a	5	1	FROG	n/a	ZOO	FROG	6	[0, 0, 0]	-999	PAL1	0	R1091N
828.768	0.0	1358965	TEST_PROBE	n/a	wordpools/wordpool_EN.txt	5	1	FROG	n/a	ZOO	FROG	6	[0, 0, 0]	-999	PAL1	0	R1091N
828.768	5.015	1358965	REC_START	n/a	n/a	5	-999	n/a	n/a	n/a	n/a	6	[0, 0, 0]	-999	PAL1	0	R1091N
833.783	0.002	1363980	REC_EVENT	5015	n/a	5	1	FROG	<>	ZOO	FROG	6	[0, 0, 0]	-999	PAL1	0	R1091N
833.785	0.017	1363982	REC_END	n/a	n/a	5	-999	n/a	n/a	n/a	n/a	6	[0, 0, 0]	-999	PAL1	0	R1091N
833.802	0.85	1363999	TEST_ORIENT	n/a	n/a	2	2	FILM	CASH	CASH	FILM	6	[0, 0, 0]	-999	PAL1	0	R1091N
834.652	0.0	1364849	REC_START	n/a	n/a	2	-999	n/a	CASH	n/a	n/a	6	[0, 0, 0]	-999	PAL1	0	R1091N
834.652	2.863	1364849	TEST_PROBE	n/a	wordpools/wordpool_EN.txt	2	2	FILM	CASH	CASH	FILM	6	[0, 0, 0]	-999	PAL1	0	R1091N
837.515	2.154	1367712	REC_EVENT	2863	n/a	2	2	FILM	CASH	CASH	FILM	6	[0, 0, 0]	-999	PAL1	0	R1091N
839.669	0.017	1369866	REC_END	n/a	n/a	2	-999	n/a	n/a	n/a	n/a	6	[0, 0, 0]	-999	PAL1	0	R1091N
839.686	0.868	1369883	TEST_ORIENT	n/a	n/a	1	3	SNOW	n/a	SNOW	BAG	6	[0, 0, 0]	-999	PAL1	0	R1091N
840.554	0.0	1370751	TEST_PROBE	n/a	wordpools/wordpool_EN.txt	1	3	SNOW	n/a	SNOW	BAG	6	[0, 0, 0]	-999	PAL1	0	R1091N
840.554	5.015	1370751	REC_START	n/a	n/a	1	-999	n/a	n/a	n/a	n/a	6	[0, 0, 0]	-999	PAL1	0	R1091N
845.569	0.002	1375765	REC_EVENT	5015	n/a	1	3	SNOW	<>	SNOW	BAG	6	[0, 0, 0]	-999	PAL1	0	R1091N
845.571	0.016	1375767	REC_END	n/a	n/a	1	-999	n/a	n/a	n/a	n/a	6	[0, 0, 0]	-999	PAL1	0	R1091N
845.587	0.8	1375783	TEST_ORIENT	n/a	n/a	4	4	SPEAR	n/a	SPEAR	NAIL	6	[0, 0, 0]	-999	PAL1	0	R1091N
846.387	0.0	1376583	TEST_PROBE	n/a	wordpools/wordpool_EN.txt	4	4	SPEAR	n/a	SPEAR	NAIL	6	[0, 0, 0]	-999	PAL1	0	R1091N
846.387	5.015	1376583	REC_START	n/a	n/a	4	-999	n/a	n/a	n/a	n/a	6	[0, 0, 0]	-999	PAL1	0	R1091N
851.402	0.003	1381598	REC_EVENT	5015	n/a	4	4	SPEAR	<>	SPEAR	NAIL	6	[0, 0, 0]	-999	PAL1	0	R1091N
851.405	0.017	1381601	REC_END	n/a	n/a	4	-999	n/a	n/a	n/a	n/a	6	[0, 0, 0]	-999	PAL1	0	R1091N
851.422	0.833	1381618	TEST_ORIENT	n/a	n/a	3	5	SHEET	n/a	SHEET	RAT	6	[0, 0, 0]	-999	PAL1	0	R1091N
852.255	0.0	1382451	TEST_PROBE	n/a	wordpools/wordpool_EN.txt	3	5	SHEET	n/a	SHEET	RAT	6	[0, 0, 0]	-999	PAL1	0	R1091N
852.255	5.015	1382451	REC_START	n/a	n/a	3	-999	n/a	n/a	n/a	n/a	6	[0, 0, 0]	-999	PAL1	0	R1091N
857.27	0.002	1387466	REC_EVENT	5015	n/a	3	5	SHEET	<>	SHEET	RAT	6	[0, 0, 0]	-999	PAL1	0	R1091N
857.272	0.017	1387468	REC_END	n/a	n/a	3	-999	n/a	n/a	n/a	n/a	6	[0, 0, 0]	-999	PAL1	0	R1091N
857.289	0.9	1387485	TEST_ORIENT	n/a	n/a	6	6	ROAD	n/a	ROAD	BARN	6	[0, 0, 0]	-999	PAL1	0	R1091N
858.189	0.001	1388385	TEST_PROBE	n/a	wordpools/wordpool_EN.txt	6	6	ROAD	n/a	ROAD	BARN	6	[0, 0, 0]	-999	PAL1	0	R1091N
858.19	5.015	1388386	REC_START	n/a	n/a	6	-999	n/a	n/a	n/a	n/a	6	[0, 0, 0]	-999	PAL1	0	R1091N
863.205	0.001	1393401	REC_EVENT	5015	n/a	6	6	ROAD	<>	ROAD	BARN	6	[0, 0, 0]	-999	PAL1	0	R1091N
863.206	1.987	1393402	REC_END	n/a	n/a	6	-999	n/a	n/a	n/a	n/a	6	[0, 0, 0]	-999	PAL1	0	R1091N
865.193	10.449	1395389	ENCODING_START	n/a	n/a	0	-999	n/a	n/a	n/a	n/a	7	[0, 0, 0]	-999	PAL1	0	R1091N
875.642	0.918	1405837	STUDY_ORIENT	n/a	n/a	1	3	CRANE	n/a	CRANE	SKUNK	7	[0, 0, 0]	-999	PAL1	0	R1091N
876.56	5.016	1406755	STUDY_PAIR	n/a	wordpools/wordpool_EN.txt	1	3	CRANE	n/a	CRANE	SKUNK	7	[0, 0, 0]	-999	PAL1	0	R1091N
881.576	0.868	1411771	STUDY_ORIENT	n/a	n/a	2	6	WOLF	n/a	WOLF	RICE	7	[0, 0, 0]	-999	PAL1	0	R1091N
882.444	5.018	1412639	STUDY_PAIR	n/a	wordpools/wordpool_EN.txt	2	6	WOLF	n/a	WOLF	RICE	7	[0, 0, 0]	-999	PAL1	0	R1091N
887.462	0.865	1417657	STUDY_ORIENT	n/a	n/a	3	5	INK	DOLL	FAN	INK	7	[0, 0, 0]	-999	PAL1	0	R1091N
888.327	5.018	1418522	STUDY_PAIR	n/a	wordpools/wordpool_EN.txt	3	5	INK	DOLL	FAN	INK	7	[0, 0, 0]	-999	PAL1	0	R1091N
893.345	0.883	1423540	STUDY_ORIENT	n/a	n/a	4	2	HILL	n/a	DOLL	HILL	7	[0, 0, 0]	-999	PAL1	0	R1091N
894.228	5.018	1424423	STUDY_PAIR	n/a	wordpools/wordpool_EN.txt	4	2	HILL	n/a	DOLL	HILL	7	[0, 0, 0]	-999	PAL1	0	R1091N
899.246	0.817	1429440	STUDY_ORIENT	n/a	n/a	5	1	PLANE	n/a	PLANE	CALF	7	[0, 0, 0]	-999	PAL1	0	R1091N
900.063	5.034	1430257	STUDY_PAIR	n/a	wordpools/wordpool_EN.txt	5	1	PLANE	n/a	PLANE	CALF	7	[0, 0, 0]	-999	PAL1	0	R1091N
905.097	1.0	1435291	STUDY_ORIENT	n/a	n/a	6	4	MOOSE	n/a	MOOSE	GLOVE	7	[0, 0, 0]	-999	PAL1	0	R1091N
906.097	4.018	1436291	STUDY_PAIR	n/a	wordpools/wordpool_EN.txt	6	4	MOOSE	n/a	MOOSE	GLOVE	7	[0, 0, 0]	-999	PAL1	0	R1091N
910.115	1.0	1440309	START	n/a	n/a	-999	-999	n/a	n/a	n/a	n/a	7	[-999, -999, -999]	-999	PAL1	0	R1091N
911.115	0.016	1441309	MATH_START	n/a	n/a	-999	-999	n/a	n/a	n/a	n/a	7	[0, 0, 0]	-999	PAL1	0	R1091N
911.131	5.585	1441325	PROB	5558	n/a	-999	-999	n/a	n/a	n/a	n/a	7	[2, 3, 2]	7	PAL1	0	R1091N
916.716	12.252	1446910	PROB	12221	n/a	-999	-999	n/a	n/a	n/a	n/a	7	[5, 3, 3]	11	PAL1	0	R1091N
928.968	10.073	1459161	PROB	10073	n/a	-999	-999	n/a	n/a	n/a	n/a	7	[5, 7, 3]	11	PAL1	0	R1091N
939.041	0.012	1469234	STOP	n/a	n/a	-999	-999	n/a	n/a	n/a	n/a	7	[-999, -999, -999]	-999	PAL1	0	R1091N
939.053	0.0	1469246	MATH_END	n/a	n/a	-999	-999	n/a	n/a	n/a	n/a	7	[0, 0, 0]	-999	PAL1	0	R1091N
939.053	0.017	1469246	TEST_START	n/a	n/a	-999	-999	n/a	n/a	n/a	n/a	7	[0, 0, 0]	-999	PAL1	0	R1091N
939.07	0.883	1469263	TEST_ORIENT	n/a	n/a	5	1	PLANE	n/a	PLANE	CALF	7	[0, 0, 0]	-999	PAL1	0	R1091N
939.953	0.001	1470146	TEST_PROBE	n/a	wordpools/wordpool_EN.txt	5	1	PLANE	n/a	PLANE	CALF	7	[0, 0, 0]	-999	PAL1	0	R1091N
939.954	5.025	1470147	REC_START	n/a	n/a	5	-999	n/a	n/a	n/a	n/a	7	[0, 0, 0]	-999	PAL1	0	R1091N
944.979	0.002	1475172	REC_END	n/a	n/a	5	-999	n/a	n/a	n/a	n/a	7	[0, 0, 0]	-999	PAL1	0	R1091N
944.981	0.006	1475174	REC_EVENT	5027	n/a	5	1	PLANE	<>	PLANE	CALF	7	[0, 0, 0]	-999	PAL1	0	R1091N
944.987	1.0	1475180	TEST_ORIENT	n/a	n/a	4	2	HILL	n/a	DOLL	HILL	7	[0, 0, 0]	-999	PAL1	0	R1091N
945.987	0.0	1476180	REC_START	n/a	n/a	4	-999	n/a	n/a	n/a	n/a	7	[0, 0, 0]	-999	PAL1	0	R1091N
945.987	2.756	1476180	TEST_PROBE	n/a	wordpools/wordpool_EN.txt	4	2	HILL	n/a	DOLL	HILL	7	[0, 0, 0]	-999	PAL1	0	R1091N
948.743	2.262	1478936	REC_EVENT	2756	n/a	4	2	HILL	<>	DOLL	HILL	7	[0, 0, 0]	-999	PAL1	0	R1091N
951.005	0.016	1481197	REC_END	n/a	n/a	4	-999	n/a	n/a	n/a	n/a	7	[0, 0, 0]	-999	PAL1	0	R1091N
951.021	0.934	1481213	TEST_ORIENT	n/a	n/a	1	3	CRANE	n/a	CRANE	SKUNK	7	[0, 0, 0]	-999	PAL1	0	R1091N
951.955	0.0	1482147	TEST_PROBE	n/a	wordpools/wordpool_EN.txt	1	3	CRANE	n/a	CRANE	SKUNK	7	[0, 0, 0]	-999	PAL1	0	R1091N
951.955	5.017	1482147	REC_START	n/a	n/a	1	-999	n/a	n/a	n/a	n/a	7	[0, 0, 0]	-999	PAL1	0	R1091N
956.972	0.004	1487164	REC_END	n/a	n/a	1	-999	n/a	n/a	n/a	n/a	7	[0, 0, 0]	-999	PAL1	0	R1091N
956.976	0.013	1487168	REC_EVENT	5021	n/a	1	3	CRANE	<>	CRANE	SKUNK	7	[0, 0, 0]	-999	PAL1	0	R1091N
956.989	0.867	1487181	TEST_ORIENT	n/a	n/a	6	4	MOOSE	n/a	MOOSE	GLOVE	7	[0, 0, 0]	-999	PAL1	0	R1091N
957.856	0.001	1488048	TEST_PROBE	n/a	wordpools/wordpool_EN.txt	6	4	MOOSE	n/a	MOOSE	GLOVE	7	[0, 0, 0]	-999	PAL1	0	R1091N
957.857	5.009	1488049	REC_START	n/a	n/a	6	-999	n/a	n/a	n/a	n/a	7	[0, 0, 0]	-999	PAL1	0	R1091N
962.866	0.0	1493058	REC_EVENT	5009	n/a	6	4	MOOSE	<>	MOOSE	GLOVE	7	[0, 0, 0]	-999	PAL1	0	R1091N
962.866	0.007	1493058	REC_END	n/a	n/a	6	-999	n/a	n/a	n/a	n/a	7	[0, 0, 0]	-999	PAL1	0	R1091N
962.873	1.034	1493065	TEST_ORIENT	n/a	n/a	3	5	INK	DOLL	FAN	INK	7	[0, 0, 0]	-999	PAL1	0	R1091N
963.907	0.001	1494099	TEST_PROBE	n/a	wordpools/wordpool_EN.txt	3	5	INK	DOLL	FAN	INK	7	[0, 0, 0]	-999	PAL1	0	R1091N
963.908	3.194	1494100	REC_START	n/a	n/a	3	-999	n/a	DOLL	n/a	n/a	7	[0, 0, 0]	-999	PAL1	0	R1091N
967.102	1.831	1497294	REC_EVENT	3194	n/a	3	5	INK	DOLL	FAN	INK	7	[0, 0, 0]	-999	PAL1	0	R1091N
968.933	0.008	1499125	REC_END	n/a	n/a	3	-999	n/a	n/a	n/a	n/a	7	[0, 0, 0]	-999	PAL1	0	R1091N
968.941	0.8	1499133	TEST_ORIENT	n/a	n/a	2	6	WOLF	n/a	WOLF	RICE	7	[0, 0, 0]	-999	PAL1	0	R1091N
969.741	0.001	1499933	TEST_PROBE	n/a	wordpools/wordpool_EN.txt	2	6	WOLF	n/a	WOLF	RICE	7	[0, 0, 0]	-999	PAL1	0	R1091N
969.742	5.003	1499934	REC_START	n/a	n/a	2	-999	n/a	n/a	n/a	n/a	7	[0, 0, 0]	-999	PAL1	0	R1091N
974.745	0.006	1504937	REC_EVENT	5003	n/a	2	6	WOLF	<>	WOLF	RICE	7	[0, 0, 0]	-999	PAL1	0	R1091N
974.751	1.898	1504943	REC_END	n/a	n/a	2	-999	n/a	n/a	n/a	n/a	7	[0, 0, 0]	-999	PAL1	0	R1091N
976.649	10.445	1506841	ENCODING_START	n/a	n/a	0	-999	n/a	n/a	n/a	n/a	8	[0, 0, 0]	-999	PAL1	0	R1091N
987.094	0.95	1517285	STUDY_ORIENT	n/a	n/a	1	1	THUMB	APE	APE	THUMB	8	[0, 0, 0]	-999	PAL1	0	R1091N
988.044	5.018	1518235	STUDY_PAIR	n/a	wordpools/wordpool_EN.txt	1	1	THUMB	APE	APE	THUMB	8	[0, 0, 0]	-999	PAL1	0	R1091N
993.062	1.017	1523253	STUDY_ORIENT	n/a	n/a	2	4	CORD	n/a	SHRIMP	CORD	8	[0, 0, 0]	-999	PAL1	0	R1091N
994.079	5.034	1524270	STUDY_PAIR	n/a	wordpools/wordpool_EN.txt	2	4	CORD	n/a	SHRIMP	CORD	8	[0, 0, 0]	-999	PAL1	0	R1091N
999.113	1.017	1529304	STUDY_ORIENT	n/a	n/a	3	3	GEESE	HOLE	HOLE	GEESE	8	[0, 0, 0]	-999	PAL1	0	R1091N
1000.13	5.034	1530321	STUDY_PAIR	n/a	wordpools/wordpool_EN.txt	3	3	GEESE	HOLE	HOLE	GEESE	8	[0, 0, 0]	-999	PAL1	0	R1091N
1005.164	0.983	1535354	STUDY_ORIENT	n/a	n/a	4	2	CAVE	n/a	CAVE	BOOK	8	[0, 0, 0]	-999	PAL1	0	R1091N
1006.147	5.018	1536337	STUDY_PAIR	n/a	wordpools/wordpool_EN.txt	4	2	CAVE	n/a	CAVE	BOOK	8	[0, 0, 0]	-999	PAL1	0	R1091N
1011.165	0.967	1541355	STUDY_ORIENT	n/a	n/a	5	5	CART	n/a	CART	PLATE	8	[0, 0, 0]	-999	PAL1	0	R1091N
1012.132	5.034	1542322	STUDY_PAIR	n/a	wordpools/wordpool_EN.txt	5	5	CART	n/a	CART	PLATE	8	[0, 0, 0]	-999	PAL1	0	R1091N
1017.166	0.967	1547356	STUDY_ORIENT	n/a	n/a	6	6	SINK	n/a	SINK	HAT	8	[0, 0, 0]	-999	PAL1	0	R1091N
1018.133	4.018	1548323	STUDY_PAIR	n/a	wordpools/wordpool_EN.txt	6	6	SINK	n/a	SINK	HAT	8	[0, 0, 0]	-999	PAL1	0	R1091N
1022.151	0.999	1552341	START	n/a	n/a	-999	-999	n/a	n/a	n/a	n/a	8	[-999, -999, -999]	-999	PAL1	0	R1091N
1023.15	0.017	1553340	MATH_START	n/a	n/a	-999	-999	n/a	n/a	n/a	n/a	8	[0, 0, 0]	-999	PAL1	0	R1091N
1023.167	5.801	1553357	PROB	5770	n/a	-999	-999	n/a	n/a	n/a	n/a	8	[1, 4, 5]	10	PAL1	0	R1091N
1028.968	6.168	1559158	PROB	6145	n/a	-999	-999	n/a	n/a	n/a	n/a	8	[4, 9, 1]	14	PAL1	0	R1091N
1035.136	13.841	1565325	PROB	13841	n/a	-999	-999	n/a	n/a	n/a	n/a	8	[4, 8, 9]	21	PAL1	0	R1091N
1048.977	0.011	1579166	STOP	n/a	n/a	-999	-999	n/a	n/a	n/a	n/a	8	[-999, -999, -999]	-999	PAL1	0	R1091N
1048.988	0.0	1579177	MATH_END	n/a	n/a	-999	-999	n/a	n/a	n/a	n/a	8	[0, 0, 0]	-999	PAL1	0	R1091N
1048.988	0.017	1579177	TEST_START	n/a	n/a	-999	-999	n/a	n/a	n/a	n/a	8	[0, 0, 0]	-999	PAL1	0	R1091N
1049.005	1.0	1579194	TEST_ORIENT	n/a	n/a	1	1	THUMB	APE	APE	THUMB	8	[0, 0, 0]	-999	PAL1	0	R1091N
1050.005	0.0	1580194	TEST_PROBE	n/a	wordpools/wordpool_EN.txt	1	1	THUMB	APE	APE	THUMB	8	[0, 0, 0]	-999	PAL1	0	R1091N
1050.005	2.161	1580194	REC_START	n/a	n/a	1	-999	n/a	APE	n/a	n/a	8	[0, 0, 0]	-999	PAL1	0	R1091N
1052.166	0.355	1582355	REC_EVENT	2161	n/a	1	1	THUMB	<>	APE	THUMB	8	[0, 0, 0]	-999	PAL1	0	R1091N
1052.521	2.501	1582710	REC_EVENT	2516	n/a	1	1	THUMB	APE	APE	THUMB	8	[0, 0, 0]	-999	PAL1	0	R1091N
1055.022	0.017	1585211	REC_END	n/a	n/a	1	-999	n/a	n/a	n/a	n/a	8	[0, 0, 0]	-999	PAL1	0	R1091N
1055.039	0.817	1585228	TEST_ORIENT	n/a	n/a	4	2	CAVE	n/a	CAVE	BOOK	8	[0, 0, 0]	-999	PAL1	0	R1091N
1055.856	0.0	1586045	TEST_PROBE	n/a	wordpools/wordpool_EN.txt	4	2	CAVE	n/a	CAVE	BOOK	8	[0, 0, 0]	-999	PAL1	0	R1091N
1055.856	2.35	1586045	REC_START	n/a	n/a	4	-999	n/a	n/a	n/a	n/a	8	[0, 0, 0]	-999	PAL1	0	R1091N
1058.206	1.0	1588394	REC_EVENT	2350	n/a	4	2	CAVE	<>	CAVE	BOOK	8	[0, 0, 0]	-999	PAL1	0	R1091N
1059.206	1.667	1589394	REC_EVENT	3350	n/a	4	2	CAVE	<>	CAVE	BOOK	8	[0, 0, 0]	-999	PAL1	0	R1091N
1060.873	0.017	1591061	REC_END	n/a	n/a	4	-999	n/a	n/a	n/a	n/a	8	[0, 0, 0]	-999	PAL1	0	R1091N
1060.89	0.917	1591078	TEST_ORIENT	n/a	n/a	3	3	GEESE	HOLE	HOLE	GEESE	8	[0, 0, 0]	-999	PAL1	0	R1091N
1061.807	0.0	1591995	TEST_PROBE	n/a	wordpools/wordpool_EN.txt	3	3	GEESE	HOLE	HOLE	GEESE	8	[0, 0, 0]	-999	PAL1	0	R1091N
1061.807	1.329	1591995	REC_START	n/a	n/a	3	-999	n/a	HOLE	n/a	n/a	8	[0, 0, 0]	-999	PAL1	0	R1091N
1063.136	3.688	1593324	REC_EVENT	1329	n/a	3	3	GEESE	HOLE	HOLE	GEESE	8	[0, 0, 0]	-999	PAL1	0	R1091N
1066.824	0.017	1597012	REC_END	n/a	n/a	3	-999	n/a	n/a	n/a	n/a	8	[0, 0, 0]	-999	PAL1	0	R1091N
1066.841	0.883	1597029	TEST_ORIENT	n/a	n/a	2	4	CORD	n/a	SHRIMP	CORD	8	[0, 0, 0]	-999	PAL1	0	R1091N
1067.724	0.001	1597912	TEST_PROBE	n/a	wordpools/wordpool_EN.txt	2	4	CORD	n/a	SHRIMP	CORD	8	[0, 0, 0]	-999	PAL1	0	R1091N
1067.725	2.327	1597913	REC_START	n/a	n/a	2	-999	n/a	n/a	n/a	n/a	8	[0, 0, 0]	-999	PAL1	0	R1091N
1070.052	2.682	1600240	REC_EVENT	2327	n/a	2	4	CORD	<>	SHRIMP	CORD	8	[0, 0, 0]	-999	PAL1	0	R1091N
1072.734	0.008	1602922	REC_END	n/a	n/a	2	-999	n/a	n/a	n/a	n/a	8	[0, 0, 0]	-999	PAL1	0	R1091N
1072.742	0.967	1602930	TEST_ORIENT	n/a	n/a	5	5	CART	n/a	CART	PLATE	8	[0, 0, 0]	-999	PAL1	0	R1091N
1073.709	0.001	1603897	TEST_PROBE	n/a	wordpools/wordpool_EN.txt	5	5	CART	n/a	CART	PLATE	8	[0, 0, 0]	-999	PAL1	0	R1091N
1073.71	5.021	1603898	REC_START	n/a	n/a	5	-999	n/a	n/a	n/a	n/a	8	[0, 0, 0]	-999	PAL1	0	R1091N
1078.731	0.004	1608919	REC_EVENT	5021	n/a	5	5	CART	<>	CART	PLATE	8	[0, 0, 0]	-999	PAL1	0	R1091N
1078.735	0.008	1608923	REC_END	n/a	n/a	5	-999	n/a	n/a	n/a	n/a	8	[0, 0, 0]	-999	PAL1	0	R1091N
1078.743	0.95	1608931	TEST_ORIENT	n/a	n/a	6	6	SINK	n/a	SINK	HAT	8	[0, 0, 0]	-999	PAL1	0	R1091N
1079.693	0.001	1609881	TEST_PROBE	n/a	wordpools/wordpool_EN.txt	6	6	SINK	n/a	SINK	HAT	8	[0, 0, 0]	-999	PAL1	0	R1091N
1079.694	1.717	1609882	REC_START	n/a	n/a	6	-999	n/a	n/a	n/a	n/a	8	[0, 0, 0]	-999	PAL1	0	R1091N
1081.411	3.291	1611599	REC_EVENT	1717	n/a	6	6	SINK	<>	SINK	HAT	8	[0, 0, 0]	-999	PAL1	0	R1091N
1084.702	1.716	1614889	REC_END	n/a	n/a	6	-999	n/a	n/a	n/a	n/a	8	[0, 0, 0]	-999	PAL1	0	R1091N
1086.418	10.445	1616605	ENCODING_START	n/a	n/a	0	-999	n/a	n/a	n/a	n/a	9	[0, 0, 0]	-999	PAL1	0	R1091N
1096.863	0.8	1627050	STUDY_ORIENT	n/a	n/a	1	1	FLOOR	n/a	NET	FLOOR	9	[0, 0, 0]	-999	PAL1	0	R1091N
1097.663	5.017	1627850	STUDY_PAIR	n/a	wordpools/wordpool_EN.txt	1	1	FLOOR	n/a	NET	FLOOR	9	[0, 0, 0]	-999	PAL1	0	R1091N
1102.68	1.017	1632867	STUDY_ORIENT	n/a	n/a	2	2	LAKE	FLOOR	RAIN	LAKE	9	[0, 0, 0]	-999	PAL1	0	R1091N
1103.697	5.018	1633884	STUDY_PAIR	n/a	wordpools/wordpool_EN.txt	2	2	LAKE	FLOOR	RAIN	LAKE	9	[0, 0, 0]	-999	PAL1	0	R1091N
1108.715	0.866	1638902	STUDY_ORIENT	n/a	n/a	3	3	GRAPE	n/a	GRAPE	STORE	9	[0, 0, 0]	-999	PAL1	0	R1091N
1109.581	5.018	1639768	STUDY_PAIR	n/a	wordpools/wordpool_EN.txt	3	3	GRAPE	n/a	GRAPE	STORE	9	[0, 0, 0]	-999	PAL1	0	R1091N
1114.599	0.801	1644785	STUDY_ORIENT	n/a	n/a	4	4	BRICK	JUICE	BRICK	JUICE	9	[0, 0, 0]	-999	PAL1	0	R1091N
1115.4	5.018	1645586	STUDY_PAIR	n/a	wordpools/wordpool_EN.txt	4	4	BRICK	JUICE	BRICK	JUICE	9	[0, 0, 0]	-999	PAL1	0	R1091N
1120.418	1.017	1650604	STUDY_ORIENT	n/a	n/a	5	5	STRING	n/a	ROPE	STRING	9	[0, 0, 0]	-999	PAL1	0	R1091N
1121.435	5.034	1651621	STUDY_PAIR	n/a	wordpools/wordpool_EN.txt	5	5	STRING	n/a	ROPE	STRING	9	[0, 0, 0]	-999	PAL1	0	R1091N
1126.469	0.782	1656655	STUDY_ORIENT	n/a	n/a	6	6	DEER	n/a	CAPE	DEER	9	[0, 0, 0]	-999	PAL1	0	R1091N
1127.251	4.001	1657437	STUDY_PAIR	n/a	wordpools/wordpool_EN.txt	6	6	DEER	n/a	CAPE	DEER	9	[0, 0, 0]	-999	PAL1	0	R1091N
1131.252	1.0	1661438	START	n/a	n/a	-999	-999	n/a	n/a	n/a	n/a	9	[-999, -999, -999]	-999	PAL1	0	R1091N
1132.252	0.017	1662438	MATH_START	n/a	n/a	-999	-999	n/a	n/a	n/a	n/a	9	[0, 0, 0]	-999	PAL1	0	R1091N
1132.269	5.717	1662455	PROB	5684	n/a	-999	-999	n/a	n/a	n/a	n/a	9	[3, 6, 4]	13	PAL1	0	R1091N
1137.986	12.286	1668172	PROB	12263	n/a	-999	-999	n/a	n/a	n/a	n/a	9	[6, 4, 5]	15	PAL1	0	R1091N
1150.272	8.041	1680457	PROB	8041	n/a	-999	-999	n/a	n/a	n/a	n/a	9	[9, 7, 2]	18	PAL1	0	R1091N
1158.313	0.01	1688498	STOP	n/a	n/a	-999	-999	n/a	n/a	n/a	n/a	9	[-999, -999, -999]	-999	PAL1	0	R1091N
1158.323	0.0	1688508	MATH_END	n/a	n/a	-999	-999	n/a	n/a	n/a	n/a	9	[0, 0, 0]	-999	PAL1	0	R1091N
1158.323	0.017	1688508	TEST_START	n/a	n/a	-999	-999	n/a	n/a	n/a	n/a	9	[0, 0, 0]	-999	PAL1	0	R1091N
1158.34	0.967	1688525	TEST_ORIENT	n/a	n/a	1	1	FLOOR	n/a	NET	FLOOR	9	[0, 0, 0]	-999	PAL1	0	R1091N
1159.307	0.0	1689492	TEST_PROBE	n/a	wordpools/wordpool_EN.txt	1	1	FLOOR	n/a	NET	FLOOR	9	[0, 0, 0]	-999	PAL1	0	R1091N
1159.307	5.015	1689492	REC_START	n/a	n/a	1	-999	n/a	n/a	n/a	n/a	9	[0, 0, 0]	-999	PAL1	0	R1091N
1164.322	0.002	1694507	REC_EVENT	5015	n/a	1	1	FLOOR	<>	NET	FLOOR	9	[0, 0, 0]	-999	PAL1	0	R1091N
1164.324	0.017	1694509	REC_END	n/a	n/a	1	-999	n/a	n/a	n/a	n/a	9	[0, 0, 0]	-999	PAL1	0	R1091N
1164.341	0.867	1694526	TEST_ORIENT	n/a	n/a	2	2	LAKE	FLOOR	RAIN	LAKE	9	[0, 0, 0]	-999	PAL1	0	R1091N
1165.208	0.0	1695392	TEST_PROBE	n/a	wordpools/wordpool_EN.txt	2	2	LAKE	FLOOR	RAIN	LAKE	9	[0, 0, 0]	-999	PAL1	0	R1091N
1165.208	2.561	1695392	REC_START	n/a	n/a	2	-999	n/a	FLOOR	n/a	n/a	9	[0, 0, 0]	-999	PAL1	0	R1091N
1167.769	2.456	1697953	REC_EVENT	2561	n/a	2	2	LAKE	FLOOR	RAIN	LAKE	9	[0, 0, 0]	-999	PAL1	0	R1091N
1170.225	0.017	1700409	REC_END	n/a	n/a	2	-999	n/a	n/a	n/a	n/a	9	[0, 0, 0]	-999	PAL1	0	R1091N
1170.242	0.917	1700426	TEST_ORIENT	n/a	n/a	3	3	GRAPE	n/a	GRAPE	STORE	9	[0, 0, 0]	-999	PAL1	0	R1091N
1171.159	0.0	1701343	TEST_PROBE	n/a	wordpools/wordpool_EN.txt	3	3	GRAPE	n/a	GRAPE	STORE	9	[0, 0, 0]	-999	PAL1	0	R1091N
1171.159	5.015	1701343	REC_START	n/a	n/a	3	-999	n/a	n/a	n/a	n/a	9	[0, 0, 0]	-999	PAL1	0	R1091N
1176.174	0.002	1706358	REC_EVENT	5015	n/a	3	3	GRAPE	<>	GRAPE	STORE	9	[0, 0, 0]	-999	PAL1	0	R1091N
1176.176	0.017	1706360	REC_END	n/a	n/a	3	-999	n/a	n/a	n/a	n/a	9	[0, 0, 0]	-999	PAL1	0	R1091N
1176.193	0.783	1706377	TEST_ORIENT	n/a	n/a	4	4	BRICK	JUICE	BRICK	JUICE	9	[0, 0, 0]	-999	PAL1	0	R1091N
1176.976	0.0	1707160	TEST_PROBE	n/a	wordpools/wordpool_EN.txt	4	4	BRICK	JUICE	BRICK	JUICE	9	[0, 0, 0]	-999	PAL1	0	R1091N
1176.976	1.485	1707160	REC_START	n/a	n/a	4	-999	n/a	JUICE	n/a	n/a	9	[0, 0, 0]	-999	PAL1	0	R1091N
1178.461	3.533	1708645	REC_EVENT	1485	n/a	4	4	BRICK	JUICE	BRICK	JUICE	9	[0, 0, 0]	-999	PAL1	0	R1091N
1181.994	0.016	1712178	REC_END	n/a	n/a	4	-999	n/a	n/a	n/a	n/a	9	[0, 0, 0]	-999	PAL1	0	R1091N
1182.01	0.801	1712194	TEST_ORIENT	n/a	n/a	5	5	STRING	n/a	ROPE	STRING	9	[0, 0, 0]	-999	PAL1	0	R1091N
1182.811	0.0	1712995	TEST_PROBE	n/a	wordpools/wordpool_EN.txt	5	5	STRING	n/a	ROPE	STRING	9	[0, 0, 0]	-999	PAL1	0	R1091N
1182.811	5.015	1712995	REC_START	n/a	n/a	5	-999	n/a	n/a	n/a	n/a	9	[0, 0, 0]	-999	PAL1	0	R1091N
1187.826	0.002	1718010	REC_EVENT	5015	n/a	5	5	STRING	<>	ROPE	STRING	9	[0, 0, 0]	-999	PAL1	0	R1091N
1187.828	0.017	1718012	REC_END	n/a	n/a	5	-999	n/a	n/a	n/a	n/a	9	[0, 0, 0]	-999	PAL1	0	R1091N
1187.845	0.867	1718029	TEST_ORIENT	n/a	n/a	6	6	DEER	n/a	CAPE	DEER	9	[0, 0, 0]	-999	PAL1	0	R1091N
1188.712	0.0	1718896	TEST_PROBE	n/a	wordpools/wordpool_EN.txt	6	6	DEER	n/a	CAPE	DEER	9	[0, 0, 0]	-999	PAL1	0	R1091N
1188.712	5.015	1718896	REC_START	n/a	n/a	6	-999	n/a	n/a	n/a	n/a	9	[0, 0, 0]	-999	PAL1	0	R1091N
1193.727	0.002	1723910	REC_EVENT	5015	n/a	6	6	DEER	<>	CAPE	DEER	9	[0, 0, 0]	-999	PAL1	0	R1091N
1193.729	1.872	1723912	REC_END	n/a	n/a	6	-999	n/a	n/a	n/a	n/a	9	[0, 0, 0]	-999	PAL1	0	R1091N
1195.601	10.447	1725784	ENCODING_START	n/a	n/a	0	-999	n/a	n/a	n/a	n/a	10	[0, 0, 0]	-999	PAL1	0	R1091N
1206.048	0.95	1736231	STUDY_ORIENT	n/a	n/a	1	5	FLAG	TIE	SIGN	FLAG	10	[0, 0, 0]	-999	PAL1	0	R1091N
1206.998	5.034	1737181	STUDY_PAIR	n/a	wordpools/wordpool_EN.txt	1	5	FLAG	TIE	SIGN	FLAG	10	[0, 0, 0]	-999	PAL1	0	R1091N
1212.032	0.967	1742215	STUDY_ORIENT	n/a	n/a	2	6	BOY	n/a	TIE	BOY	10	[0, 0, 0]	-999	PAL1	0	R1091N
1212.999	5.034	1743182	STUDY_PAIR	n/a	wordpools/wordpool_EN.txt	2	6	BOY	n/a	TIE	BOY	10	[0, 0, 0]	-999	PAL1	0	R1091N
1218.033	0.884	1748216	STUDY_ORIENT	n/a	n/a	3	1	GATE	n/a	GATE	PIT	10	[0, 0, 0]	-999	PAL1	0	R1091N
1218.917	5.034	1749099	STUDY_PAIR	n/a	wordpools/wordpool_EN.txt	3	1	GATE	n/a	GATE	PIT	10	[0, 0, 0]	-999	PAL1	0	R1091N
1223.951	0.833	1754133	STUDY_ORIENT	n/a	n/a	4	2	DITCH	n/a	DITCH	PIPE	10	[0, 0, 0]	-999	PAL1	0	R1091N
1224.784	5.018	1754966	STUDY_PAIR	n/a	wordpools/wordpool_EN.txt	4	2	DITCH	n/a	DITCH	PIPE	10	[0, 0, 0]	-999	PAL1	0	R1091N
1229.802	0.983	1759984	STUDY_ORIENT	n/a	n/a	5	3	PARK	n/a	PARK	KITE	10	[0, 0, 0]	-999	PAL1	0	R1091N
1230.785	5.018	1760967	STUDY_PAIR	n/a	wordpools/wordpool_EN.txt	5	3	PARK	n/a	PARK	KITE	10	[0, 0, 0]	-999	PAL1	0	R1091N
1235.803	1.033	1765985	STUDY_ORIENT	n/a	n/a	6	4	MAT	SMOKE	MAT	SMOKE	10	[0, 0, 0]	-999	PAL1	0	R1091N
1236.836	4.001	1767018	STUDY_PAIR	n/a	wordpools/wordpool_EN.txt	6	4	MAT	SMOKE	MAT	SMOKE	10	[0, 0, 0]	-999	PAL1	0	R1091N
1240.837	1.0	1771019	START	n/a	n/a	-999	-999	n/a	n/a	n/a	n/a	10	[-999, -999, -999]	-999	PAL1	0	R1091N
1241.837	0.017	1772019	MATH_START	n/a	n/a	-999	-999	n/a	n/a	n/a	n/a	10	[0, 0, 0]	-999	PAL1	0	R1091N
1241.854	6.984	1772036	PROB	6963	n/a	-999	-999	n/a	n/a	n/a	n/a	10	[4, 6, 9]	19	PAL1	0	R1091N
1248.838	13.075	1779019	PROB	13075	n/a	-999	-999	n/a	n/a	n/a	n/a	10	[7, 9, 6]	21	PAL1	0	R1091N
1261.913	0.011	1792094	STOP	n/a	n/a	-999	-999	n/a	n/a	n/a	n/a	10	[-999, -999, -999]	-999	PAL1	0	R1091N
1261.924	0.0	1792105	MATH_END	n/a	n/a	-999	-999	n/a	n/a	n/a	n/a	10	[0, 0, 0]	-999	PAL1	0	R1091N
1261.924	0.017	1792105	TEST_START	n/a	n/a	-999	-999	n/a	n/a	n/a	n/a	10	[0, 0, 0]	-999	PAL1	0	R1091N
1261.941	0.85	1792122	TEST_ORIENT	n/a	n/a	3	1	GATE	n/a	GATE	PIT	10	[0, 0, 0]	-999	PAL1	0	R1091N
1262.791	0.0	1792972	TEST_PROBE	n/a	wordpools/wordpool_EN.txt	3	1	GATE	n/a	GATE	PIT	10	[0, 0, 0]	-999	PAL1	0	R1091N
1262.791	2.278	1792972	REC_START	n/a	n/a	3	-999	n/a	n/a	n/a	n/a	10	[0, 0, 0]	-999	PAL1	0	R1091N
1265.069	2.749	1795250	REC_EVENT	2278	n/a	3	1	GATE	<>	GATE	PIT	10	[0, 0, 0]	-999	PAL1	0	R1091N
1267.818	0.007	1797999	REC_END	n/a	n/a	3	-999	n/a	n/a	n/a	n/a	10	[0, 0, 0]	-999	PAL1	0	R1091N
1267.825	0.883	1798006	TEST_ORIENT	n/a	n/a	4	2	DITCH	n/a	DITCH	PIPE	10	[0, 0, 0]	-999	PAL1	0	R1091N
1268.708	0.006	1798889	TEST_PROBE	n/a	wordpools/wordpool_EN.txt	4	2	DITCH	n/a	DITCH	PIPE	10	[0, 0, 0]	-999	PAL1	0	R1091N
1268.714	4.995	1798895	REC_START	n/a	n/a	4	-999	n/a	n/a	n/a	n/a	10	[0, 0, 0]	-999	PAL1	0	R1091N
1273.709	0.003	1803889	REC_END	n/a	n/a	4	-999	n/a	n/a	n/a	n/a	10	[0, 0, 0]	-999	PAL1	0	R1091N
1273.712	0.014	1803892	REC_EVENT	4998	n/a	4	2	DITCH	<>	DITCH	PIPE	10	[0, 0, 0]	-999	PAL1	0	R1091N
1273.726	1.017	1803906	TEST_ORIENT	n/a	n/a	5	3	PARK	n/a	PARK	KITE	10	[0, 0, 0]	-999	PAL1	0	R1091N
1274.743	0.001	1804923	TEST_PROBE	n/a	wordpools/wordpool_EN.txt	5	3	PARK	n/a	PARK	KITE	10	[0, 0, 0]	-999	PAL1	0	R1091N
1274.744	5.025	1804924	REC_START	n/a	n/a	5	-999	n/a	n/a	n/a	n/a	10	[0, 0, 0]	-999	PAL1	0	R1091N
1279.769	0.002	1809949	REC_END	n/a	n/a	5	-999	n/a	n/a	n/a	n/a	10	[0, 0, 0]	-999	PAL1	0	R1091N
1279.771	0.006	1809951	REC_EVENT	5027	n/a	5	3	PARK	<>	PARK	KITE	10	[0, 0, 0]	-999	PAL1	0	R1091N
1279.777	0.817	1809957	TEST_ORIENT	n/a	n/a	6	4	MAT	SMOKE	MAT	SMOKE	10	[0, 0, 0]	-999	PAL1	0	R1091N
1280.594	0.0	1810774	TEST_PROBE	n/a	wordpools/wordpool_EN.txt	6	4	MAT	SMOKE	MAT	SMOKE	10	[0, 0, 0]	-999	PAL1	0	R1091N
1280.594	1.161	1810774	REC_START	n/a	n/a	6	-999	n/a	SMOKE	n/a	n/a	10	[0, 0, 0]	-999	PAL1	0	R1091N
1281.755	3.865	1811935	REC_EVENT	1161	n/a	6	4	MAT	SMOKE	MAT	SMOKE	10	[0, 0, 0]	-999	PAL1	0	R1091N
1285.62	0.008	1815800	REC_END	n/a	n/a	6	-999	n/a	n/a	n/a	n/a	10	[0, 0, 0]	-999	PAL1	0	R1091N
1285.628	0.868	1815808	TEST_ORIENT	n/a	n/a	1	5	FLAG	TIE	SIGN	FLAG	10	[0, 0, 0]	-999	PAL1	0	R1091N
1286.496	0.0	1816676	REC_START	n/a	n/a	1	-999	n/a	TIE	n/a	n/a	10	[0, 0, 0]	-999	PAL1	0	R1091N
1286.496	3.968	1816676	TEST_PROBE	n/a	wordpools/wordpool_EN.txt	1	5	FLAG	TIE	SIGN	FLAG	10	[0, 0, 0]	-999	PAL1	0	R1091N
1290.464	1.049	1820644	REC_EVENT	3968	n/a	1	5	FLAG	TIE	SIGN	FLAG	10	[0, 0, 0]	-999	PAL1	0	R1091N
1291.513	0.017	1821693	REC_END	n/a	n/a	1	-999	n/a	n/a	n/a	n/a	10	[0, 0, 0]	-999	PAL1	0	R1091N
1291.53	1.017	1821710	TEST_ORIENT	n/a	n/a	2	6	BOY	n/a	TIE	BOY	10	[0, 0, 0]	-999	PAL1	0	R1091N
1292.547	0.0	1822727	TEST_PROBE	n/a	wordpools/wordpool_EN.txt	2	6	BOY	n/a	TIE	BOY	10	[0, 0, 0]	-999	PAL1	0	R1091N
1292.547	5.015	1822727	REC_START	n/a	n/a	2	-999	n/a	n/a	n/a	n/a	10	[0, 0, 0]	-999	PAL1	0	R1091N
1297.562	0.002	1827742	REC_EVENT	5015	n/a	2	6	BOY	<>	TIE	BOY	10	[0, 0, 0]	-999	PAL1	0	R1091N
1297.564	1.653	1827744	REC_END	n/a	n/a	2	-999	n/a	n/a	n/a	n/a	10	[0, 0, 0]	-999	PAL1	0	R1091N
1299.217	10.448	1829396	ENCODING_START	n/a	n/a	0	-999	n/a	n/a	n/a	n/a	11	[0, 0, 0]	-999	PAL1	0	R1091N
1309.665	0.835	1839844	STUDY_ORIENT	n/a	n/a	1	5	SOAP	n/a	SOAP	PEAR	11	[0, 0, 0]	-999	PAL1	0	R1091N
1310.5	5.034	1840679	STUDY_PAIR	n/a	wordpools/wordpool_EN.txt	1	5	SOAP	n/a	SOAP	PEAR	11	[0, 0, 0]	-999	PAL1	0	R1091N
1315.534	1.0	1845713	STUDY_ORIENT	n/a	n/a	2	2	STORM	n/a	STORM	PEA	11	[0, 0, 0]	-999	PAL1	0	R1091N
1316.534	5.018	1846713	STUDY_PAIR	n/a	wordpools/wordpool_EN.txt	2	2	STORM	n/a	STORM	PEA	11	[0, 0, 0]	-999	PAL1	0	R1091N
1321.552	1.0	1851731	STUDY_ORIENT	n/a	n/a	3	3	WORLD	n/a	WORLD	STAIR	11	[0, 0, 0]	-999	PAL1	0	R1091N
1322.552	5.033	1852731	STUDY_PAIR	n/a	wordpools/wordpool_EN.txt	3	3	WORLD	n/a	WORLD	STAIR	11	[0, 0, 0]	-999	PAL1	0	R1091N
1327.585	1.017	1857763	STUDY_ORIENT	n/a	n/a	4	6	WORM	n/a	WORM	HEN	11	[0, 0, 0]	-999	PAL1	0	R1091N
1328.602	5.034	1858780	STUDY_PAIR	n/a	wordpools/wordpool_EN.txt	4	6	WORM	n/a	WORM	HEN	11	[0, 0, 0]	-999	PAL1	0	R1091N
1333.636	0.835	1863814	STUDY_ORIENT	n/a	n/a	5	1	WEB	n/a	COW	WEB	11	[0, 0, 0]	-999	PAL1	0	R1091N
1334.471	5.034	1864649	STUDY_PAIR	n/a	wordpools/wordpool_EN.txt	5	1	WEB	n/a	COW	WEB	11	[0, 0, 0]	-999	PAL1	0	R1091N
1339.505	0.917	1869683	STUDY_ORIENT	n/a	n/a	6	4	SPRING	n/a	SPRING	BRIDGE	11	[0, 0, 0]	-999	PAL1	0	R1091N
1340.422	4.018	1870600	STUDY_PAIR	n/a	wordpools/wordpool_EN.txt	6	4	SPRING	n/a	SPRING	BRIDGE	11	[0, 0, 0]	-999	PAL1	0	R1091N
1344.44	0.999	1874618	START	n/a	n/a	-999	-999	n/a	n/a	n/a	n/a	11	[-999, -999, -999]	-999	PAL1	0	R1091N
1345.439	0.017	1875617	MATH_START	n/a	n/a	-999	-999	n/a	n/a	n/a	n/a	11	[0, 0, 0]	-999	PAL1	0	R1091N
1345.456	16.019	1875634	PROB	15994	n/a	-999	-999	n/a	n/a	n/a	n/a	11	[6, 9, 7]	21	PAL1	0	R1091N
1361.475	5.071	1891652	PROB	5071	n/a	-999	-999	n/a	n/a	n/a	n/a	11	[3, 6, 4]	13	PAL1	0	R1091N
1366.546	0.013	1896723	STOP	n/a	n/a	-999	-999	n/a	n/a	n/a	n/a	11	[-999, -999, -999]	-999	PAL1	0	R1091N
1366.559	0.0	1896736	MATH_END	n/a	n/a	-999	-999	n/a	n/a	n/a	n/a	11	[0, 0, 0]	-999	PAL1	0	R1091N
1366.559	0.017	1896736	TEST_START	n/a	n/a	-999	-999	n/a	n/a	n/a	n/a	11	[0, 0, 0]	-999	PAL1	0	R1091N
1366.576	0.984	1896753	TEST_ORIENT	n/a	n/a	5	1	WEB	n/a	COW	WEB	11	[0, 0, 0]	-999	PAL1	0	R1091N
1367.56	0.0	1897737	TEST_PROBE	n/a	wordpools/wordpool_EN.txt	5	1	WEB	n/a	COW	WEB	11	[0, 0, 0]	-999	PAL1	0	R1091N
1367.56	3.815	1897737	REC_START	n/a	n/a	5	-999	n/a	n/a	n/a	n/a	11	[0, 0, 0]	-999	PAL1	0	R1091N
1371.375	1.201	1901552	REC_EVENT	3815	n/a	5	1	WEB	<>	COW	WEB	11	[0, 0, 0]	-999	PAL1	0	R1091N
1372.576	0.017	1902753	REC_END	n/a	n/a	5	-999	n/a	n/a	n/a	n/a	11	[0, 0, 0]	-999	PAL1	0	R1091N
1372.593	1.033	1902770	TEST_ORIENT	n/a	n/a	2	2	STORM	n/a	STORM	PEA	11	[0, 0, 0]	-999	PAL1	0	R1091N
1373.626	0.001	1903803	TEST_PROBE	n/a	wordpools/wordpool_EN.txt	2	2	STORM	n/a	STORM	PEA	11	[0, 0, 0]	-999	PAL1	0	R1091N
1373.627	5.009	1903804	REC_START	n/a	n/a	2	-999	n/a	n/a	n/a	n/a	11	[0, 0, 0]	-999	PAL1	0	R1091N
1378.636	0.0	1908813	REC_EVENT	5009	n/a	2	2	STORM	<>	STORM	PEA	11	[0, 0, 0]	-999	PAL1	0	R1091N
1378.636	0.008	1908813	REC_END	n/a	n/a	2	-999	n/a	n/a	n/a	n/a	11	[0, 0, 0]	-999	PAL1	0	R1091N
1378.644	1.017	1908821	TEST_ORIENT	n/a	n/a	3	3	WORLD	n/a	WORLD	STAIR	11	[0, 0, 0]	-999	PAL1	0	R1091N
1379.661	0.0	1909837	TEST_PROBE	n/a	wordpools/wordpool_EN.txt	3	3	WORLD	n/a	WORLD	STAIR	11	[0, 0, 0]	-999	PAL1	0	R1091N
1379.661	5.015	1909837	REC_START	n/a	n/a	3	-999	n/a	n/a	n/a	n/a	11	[0, 0, 0]	-999	PAL1	0	R1091N
1384.676	0.002	1914852	REC_EVENT	5015	n/a	3	3	WORLD	<>	WORLD	STAIR	11	[0, 0, 0]	-999	PAL1	0	R1091N
1384.678	0.017	1914854	REC_END	n/a	n/a	3	-999	n/a	n/a	n/a	n/a	11	[0, 0, 0]	-999	PAL1	0	R1091N
1384.695	0.9	1914871	TEST_ORIENT	n/a	n/a	6	4	SPRING	n/a	SPRING	BRIDGE	11	[0, 0, 0]	-999	PAL1	0	R1091N
1385.595	0.0	1915771	TEST_PROBE	n/a	wordpools/wordpool_EN.txt	6	4	SPRING	n/a	SPRING	BRIDGE	11	[0, 0, 0]	-999	PAL1	0	R1091N
1385.595	5.015	1915771	REC_START	n/a	n/a	6	-999	n/a	n/a	n/a	n/a	11	[0, 0, 0]	-999	PAL1	0	R1091N
1390.61	0.002	1920786	REC_EVENT	5015	n/a	6	4	SPRING	<>	SPRING	BRIDGE	11	[0, 0, 0]	-999	PAL1	0	R1091N
1390.612	0.017	1920788	REC_END	n/a	n/a	6	-999	n/a	n/a	n/a	n/a	11	[0, 0, 0]	-999	PAL1	0	R1091N
1390.629	0.984	1920805	TEST_ORIENT	n/a	n/a	1	5	SOAP	n/a	SOAP	PEAR	11	[0, 0, 0]	-999	PAL1	0	R1091N
1391.613	0.0	1921789	TEST_PROBE	n/a	wordpools/wordpool_EN.txt	1	5	SOAP	n/a	SOAP	PEAR	11	[0, 0, 0]	-999	PAL1	0	R1091N
1391.613	5.017	1921789	REC_START	n/a	n/a	1	-999	n/a	n/a	n/a	n/a	11	[0, 0, 0]	-999	PAL1	0	R1091N
1396.63	0.004	1926806	REC_END	n/a	n/a	1	-999	n/a	n/a	n/a	n/a	11	[0, 0, 0]	-999	PAL1	0	R1091N
1396.634	0.013	1926810	REC_EVENT	5021	n/a	1	5	SOAP	<>	SOAP	PEAR	11	[0, 0, 0]	-999	PAL1	0	R1091N
1396.647	0.95	1926823	TEST_ORIENT	n/a	n/a	4	6	WORM	n/a	WORM	HEN	11	[0, 0, 0]	-999	PAL1	0	R1091N
1397.597	0.0	1927773	TEST_PROBE	n/a	wordpools/wordpool_EN.txt	4	6	WORM	n/a	WORM	HEN	11	[0, 0, 0]	-999	PAL1	0	R1091N
1397.597	1.2	1927773	REC_START	n/a	n/a	4	-999	n/a	n/a	n/a	n/a	11	[0, 0, 0]	-999	PAL1	0	R1091N
1398.797	1.0	1928973	REC_EVENT	1200	n/a	4	6	WORM	<>	WORM	HEN	11	[0, 0, 0]	-999	PAL1	0	R1091N
1399.797	2.817	1929973	REC_EVENT	2200	n/a	4	6	WORM	<>	WORM	HEN	11	[0, 0, 0]	-999	PAL1	0	R1091N
1402.614	1.731	1932790	REC_END	n/a	n/a	4	-999	n/a	n/a	n/a	n/a	11	[0, 0, 0]	-999	PAL1	0	R1091N
1404.345	10.438	1934521	ENCODING_START	n/a	n/a	0	-999	n/a	n/a	n/a	n/a	12	[0, 0, 0]	-999	PAL1	0	R1091N
1414.783	0.967	1944958	STUDY_ORIENT	n/a	n/a	1	3	POLE	n/a	SAIL	POLE	12	[0, 0, 0]	-999	PAL1	0	R1091N
1415.75	5.034	1945925	STUDY_PAIR	n/a	wordpools/wordpool_EN.txt	1	3	POLE	n/a	SAIL	POLE	12	[0, 0, 0]	-999	PAL1	0	R1091N
1420.784	0.834	1950959	STUDY_ORIENT	n/a	n/a	2	6	YARD	n/a	MOUTH	YARD	12	[0, 0, 0]	-999	PAL1	0	R1091N
1421.618	5.034	1951793	STUDY_PAIR	n/a	wordpools/wordpool_EN.txt	2	6	YARD	n/a	MOUTH	YARD	12	[0, 0, 0]	-999	PAL1	0	R1091N
1426.652	0.818	1956827	STUDY_ORIENT	n/a	n/a	3	5	SNAKE	n/a	SNAKE	SCHOOL	12	[0, 0, 0]	-999	PAL1	0	R1091N
1427.47	5.034	1957645	STUDY_PAIR	n/a	wordpools/wordpool_EN.txt	3	5	SNAKE	n/a	SNAKE	SCHOOL	12	[0, 0, 0]	-999	PAL1	0	R1091N
1432.504	0.832	1962679	STUDY_ORIENT	n/a	n/a	4	2	WOOD	n/a	WOOD	TEA	12	[0, 0, 0]	-999	PAL1	0	R1091N
1433.336	5.018	1963510	STUDY_PAIR	n/a	wordpools/wordpool_EN.txt	4	2	WOOD	n/a	WOOD	TEA	12	[0, 0, 0]	-999	PAL1	0	R1091N
1438.354	0.8	1968528	STUDY_ORIENT	n/a	n/a	5	1	PIE	n/a	PIE	SNAIL	12	[0, 0, 0]	-999	PAL1	0	R1091N
1439.154	5.034	1969328	STUDY_PAIR	n/a	wordpools/wordpool_EN.txt	5	1	PIE	n/a	PIE	SNAIL	12	[0, 0, 0]	-999	PAL1	0	R1091N
1444.188	0.9	1974362	STUDY_ORIENT	n/a	n/a	6	4	MOLE	n/a	SKI	MOLE	12	[0, 0, 0]	-999	PAL1	0	R1091N
1445.088	4.001	1975262	STUDY_PAIR	n/a	wordpools/wordpool_EN.txt	6	4	MOLE	n/a	SKI	MOLE	12	[0, 0, 0]	-999	PAL1	0	R1091N
1449.089	1.0	1979263	START	n/a	n/a	-999	-999	n/a	n/a	n/a	n/a	12	[-999, -999, -999]	-999	PAL1	0	R1091N
1450.089	0.017	1980263	MATH_START	n/a	n/a	-999	-999	n/a	n/a	n/a	n/a	12	[0, 0, 0]	-999	PAL1	0	R1091N
1450.106	6.234	1980280	PROB	6207	n/a	-999	-999	n/a	n/a	n/a	n/a	12	[3, 2, 6]	11	PAL1	0	R1091N
1456.34	6.635	1986514	PROB	6613	n/a	-999	-999	n/a	n/a	n/a	n/a	12	[8, 7, 3]	18	PAL1	0	R1091N
1462.975	6.314	1993148	PROB	6314	n/a	-999	-999	n/a	n/a	n/a	n/a	12	[3, 3, 9]	15	PAL1	0	R1091N
1469.289	0.003	1999462	STOP	n/a	n/a	-999	-999	n/a	n/a	n/a	n/a	12	[-999, -999, -999]	-999	PAL1	0	R1091N
1469.292	0.0	1999465	MATH_END	n/a	n/a	-999	-999	n/a	n/a	n/a	n/a	12	[0, 0, 0]	-999	PAL1	0	R1091N
1469.292	0.017	1999465	TEST_START	n/a	n/a	-999	-999	n/a	n/a	n/a	n/a	12	[0, 0, 0]	-999	PAL1	0	R1091N
1469.309	0.784	1999482	TEST_ORIENT	n/a	n/a	5	1	PIE	n/a	PIE	SNAIL	12	[0, 0, 0]	-999	PAL1	0	R1091N
1470.093	0.001	2000266	TEST_PROBE	n/a	wordpools/wordpool_EN.txt	5	1	PIE	n/a	PIE	SNAIL	12	[0, 0, 0]	-999	PAL1	0	R1091N
1470.094	5.025	2000267	REC_START	n/a	n/a	5	-999	n/a	n/a	n/a	n/a	12	[0, 0, 0]	-999	PAL1	0	R1091N
1475.119	0.002	2005292	REC_END	n/a	n/a	5	-999	n/a	n/a	n/a	n/a	12	[0, 0, 0]	-999	PAL1	0	R1091N
1475.121	0.006	2005294	REC_EVENT	5027	n/a	5	1	PIE	<>	PIE	SNAIL	12	[0, 0, 0]	-999	PAL1	0	R1091N
1475.127	0.85	2005300	TEST_ORIENT	n/a	n/a	4	2	WOOD	n/a	WOOD	TEA	12	[0, 0, 0]	-999	PAL1	0	R1091N
1475.977	0.0	2006150	TEST_PROBE	n/a	wordpools/wordpool_EN.txt	4	2	WOOD	n/a	WOOD	TEA	12	[0, 0, 0]	-999	PAL1	0	R1091N
1475.977	5.015	2006150	REC_START	n/a	n/a	4	-999	n/a	n/a	n/a	n/a	12	[0, 0, 0]	-999	PAL1	0	R1091N
1480.992	0.002	2011165	REC_EVENT	5015	n/a	4	2	WOOD	<>	WOOD	TEA	12	[0, 0, 0]	-999	PAL1	0	R1091N
1480.994	0.017	2011167	REC_END	n/a	n/a	4	-999	n/a	n/a	n/a	n/a	12	[0, 0, 0]	-999	PAL1	0	R1091N
1481.011	0.817	2011184	TEST_ORIENT	n/a	n/a	1	3	POLE	n/a	SAIL	POLE	12	[0, 0, 0]	-999	PAL1	0	R1091N
1481.828	0.0	2012001	REC_START	n/a	n/a	1	-999	n/a	n/a	n/a	n/a	12	[0, 0, 0]	-999	PAL1	0	R1091N
1481.828	5.017	2012001	TEST_PROBE	n/a	wordpools/wordpool_EN.txt	1	3	POLE	n/a	SAIL	POLE	12	[0, 0, 0]	-999	PAL1	0	R1091N
1486.845	0.004	2017017	REC_END	n/a	n/a	1	-999	n/a	n/a	n/a	n/a	12	[0, 0, 0]	-999	PAL1	0	R1091N
1486.849	0.013	2017021	REC_EVENT	5021	n/a	1	3	POLE	<>	SAIL	POLE	12	[0, 0, 0]	-999	PAL1	0	R1091N
1486.862	0.867	2017034	TEST_ORIENT	n/a	n/a	6	4	MOLE	n/a	SKI	MOLE	12	[0, 0, 0]	-999	PAL1	0	R1091N
1487.729	0.001	2017901	TEST_PROBE	n/a	wordpools/wordpool_EN.txt	6	4	MOLE	n/a	SKI	MOLE	12	[0, 0, 0]	-999	PAL1	0	R1091N
1487.73	3.797	2017902	REC_START	n/a	n/a	6	-999	n/a	n/a	n/a	n/a	12	[0, 0, 0]	-999	PAL1	0	R1091N
1491.527	1.229	2021699	REC_EVENT	3797	n/a	6	4	MOLE	<>	SKI	MOLE	12	[0, 0, 0]	-999	PAL1	0	R1091N
1492.756	0.007	2022928	REC_END	n/a	n/a	6	-999	n/a	n/a	n/a	n/a	12	[0, 0, 0]	-999	PAL1	0	R1091N
1492.763	0.85	2022935	TEST_ORIENT	n/a	n/a	3	5	SNAKE	n/a	SNAKE	SCHOOL	12	[0, 0, 0]	-999	PAL1	0	R1091N
1493.613	0.0	2023785	TEST_PROBE	n/a	wordpools/wordpool_EN.txt	3	5	SNAKE	n/a	SNAKE	SCHOOL	12	[0, 0, 0]	-999	PAL1	0	R1091N
1493.613	0.843	2023785	REC_START	n/a	n/a	3	-999	n/a	n/a	n/a	n/a	12	[0, 0, 0]	-999	PAL1	0	R1091N
1494.456	1.0	2024628	REC_EVENT	843	n/a	3	5	SNAKE	<>	SNAKE	SCHOOL	12	[0, 0, 0]	-999	PAL1	0	R1091N
1495.456	1.0	2025628	REC_EVENT	1843	n/a	3	5	SNAKE	<>	SNAKE	SCHOOL	12	[0, 0, 0]	-999	PAL1	0	R1091N
1496.456	2.167	2026628	REC_EVENT	2843	n/a	3	5	SNAKE	<>	SNAKE	SCHOOL	12	[0, 0, 0]	-999	PAL1	0	R1091N
1498.623	0.007	2028795	REC_END	n/a	n/a	3	-999	n/a	n/a	n/a	n/a	12	[0, 0, 0]	-999	PAL1	0	R1091N
1498.63	0.902	2028802	TEST_ORIENT	n/a	n/a	2	6	YARD	n/a	MOUTH	YARD	12	[0, 0, 0]	-999	PAL1	0	R1091N
1499.532	0.0	2029704	TEST_PROBE	n/a	wordpools/wordpool_EN.txt	2	6	YARD	n/a	MOUTH	YARD	12	[0, 0, 0]	-999	PAL1	0	R1091N
1499.532	5.015	2029704	REC_START	n/a	n/a	2	-999	n/a	n/a	n/a	n/a	12	[0, 0, 0]	-999	PAL1	0	R1091N
1504.547	0.002	2034719	REC_EVENT	5015	n/a	2	6	YARD	<>	MOUTH	YARD	12	[0, 0, 0]	-999	PAL1	0	R1091N
1504.549	2.14	2034721	REC_END	n/a	n/a	2	-999	n/a	n/a	n/a	n/a	12	[0, 0, 0]	-999	PAL1	0	R1091N
1506.689	10.445	2036861	ENCODING_START	n/a	n/a	0	-999	n/a	n/a	n/a	n/a	13	[0, 0, 0]	-999	PAL1	0	R1091N
1517.134	0.783	2047305	STUDY_ORIENT	n/a	n/a	1	3	LAMB	FOX	VASE	LAMB	13	[0, 0, 0]	-999	PAL1	0	R1091N
1517.917	5.018	2048088	STUDY_PAIR	n/a	wordpools/wordpool_EN.txt	1	3	LAMB	FOX	VASE	LAMB	13	[0, 0, 0]	-999	PAL1	0	R1091N
1522.935	0.85	2053106	STUDY_ORIENT	n/a	n/a	2	2	LOCK	n/a	LOCK	TRAIN	13	[0, 0, 0]	-999	PAL1	0	R1091N
1523.785	5.034	2053956	STUDY_PAIR	n/a	wordpools/wordpool_EN.txt	2	2	LOCK	n/a	LOCK	TRAIN	13	[0, 0, 0]	-999	PAL1	0	R1091N
1528.819	0.834	2058990	STUDY_ORIENT	n/a	n/a	3	1	TENT	n/a	TENT	HOSE	13	[0, 0, 0]	-999	PAL1	0	R1091N
1529.653	5.034	2059824	STUDY_PAIR	n/a	wordpools/wordpool_EN.txt	3	1	TENT	n/a	TENT	HOSE	13	[0, 0, 0]	-999	PAL1	0	R1091N
1534.687	0.967	2064858	STUDY_ORIENT	n/a	n/a	4	4	HORSE	n/a	HORSE	PHONE	13	[0, 0, 0]	-999	PAL1	0	R1091N
1535.654	5.034	2065825	STUDY_PAIR	n/a	wordpools/wordpool_EN.txt	4	4	HORSE	n/a	HORSE	PHONE	13	[0, 0, 0]	-999	PAL1	0	R1091N
1540.688	0.917	2070858	STUDY_ORIENT	n/a	n/a	5	5	HAWK	n/a	HAWK	SHELL	13	[0, 0, 0]	-999	PAL1	0	R1091N
1541.605	5.034	2071775	STUDY_PAIR	n/a	wordpools/wordpool_EN.txt	5	5	HAWK	n/a	HAWK	SHELL	13	[0, 0, 0]	-999	PAL1	0	R1091N
1546.639	0.884	2076809	STUDY_ORIENT	n/a	n/a	6	6	HOUSE	n/a	HOUSE	CUBE	13	[0, 0, 0]	-999	PAL1	0	R1091N
1547.523	4.001	2077693	STUDY_PAIR	n/a	wordpools/wordpool_EN.txt	6	6	HOUSE	n/a	HOUSE	CUBE	13	[0, 0, 0]	-999	PAL1	0	R1091N
1551.524	1.0	2081694	START	n/a	n/a	-999	-999	n/a	n/a	n/a	n/a	13	[-999, -999, -999]	-999	PAL1	0	R1091N
1552.524	0.017	2082694	MATH_START	n/a	n/a	-999	-999	n/a	n/a	n/a	n/a	13	[0, 0, 0]	-999	PAL1	0	R1091N
1552.541	5.034	2082711	PROB	5013	n/a	-999	-999	n/a	n/a	n/a	n/a	13	[3, 8, 2]	13	PAL1	0	R1091N
1557.575	8.434	2087745	PROB	8410	n/a	-999	-999	n/a	n/a	n/a	n/a	13	[1, 6, 4]	11	PAL1	0	R1091N
1566.009	5.284	2096179	PROB	5264	n/a	-999	-999	n/a	n/a	n/a	n/a	13	[6, 6, 6]	18	PAL1	0	R1091N
1571.293	11.956	2101462	PROB	11956	n/a	-999	-999	n/a	n/a	n/a	n/a	13	[6, 2, 9]	17	PAL1	0	R1091N
1583.249	0.013	2113418	STOP	n/a	n/a	-999	-999	n/a	n/a	n/a	n/a	13	[-999, -999, -999]	-999	PAL1	0	R1091N
1583.262	0.0	2113431	MATH_END	n/a	n/a	-999	-999	n/a	n/a	n/a	n/a	13	[0, 0, 0]	-999	PAL1	0	R1091N
1583.262	0.016	2113431	TEST_START	n/a	n/a	-999	-999	n/a	n/a	n/a	n/a	13	[0, 0, 0]	-999	PAL1	0	R1091N
1583.278	0.8	2113447	TEST_ORIENT	n/a	n/a	3	1	TENT	n/a	TENT	HOSE	13	[0, 0, 0]	-999	PAL1	0	R1091N
1584.078	0.001	2114247	TEST_PROBE	n/a	wordpools/wordpool_EN.txt	3	1	TENT	n/a	TENT	HOSE	13	[0, 0, 0]	-999	PAL1	0	R1091N
1584.079	5.009	2114248	REC_START	n/a	n/a	3	-999	n/a	n/a	n/a	n/a	13	[0, 0, 0]	-999	PAL1	0	R1091N
1589.088	0.0	2119257	REC_END	n/a	n/a	3	-999	n/a	n/a	n/a	n/a	13	[0, 0, 0]	-999	PAL1	0	R1091N
1589.088	0.008	2119257	REC_EVENT	5009	n/a	3	1	TENT	<>	TENT	HOSE	13	[0, 0, 0]	-999	PAL1	0	R1091N
1589.096	0.8	2119265	TEST_ORIENT	n/a	n/a	2	2	LOCK	n/a	LOCK	TRAIN	13	[0, 0, 0]	-999	PAL1	0	R1091N
1589.896	0.001	2120065	TEST_PROBE	n/a	wordpools/wordpool_EN.txt	2	2	LOCK	n/a	LOCK	TRAIN	13	[0, 0, 0]	-999	PAL1	0	R1091N
1589.897	5.015	2120066	REC_START	n/a	n/a	2	-999	n/a	n/a	n/a	n/a	13	[0, 0, 0]	-999	PAL1	0	R1091N
1594.912	0.001	2125080	REC_EVENT	5015	n/a	2	2	LOCK	<>	LOCK	TRAIN	13	[0, 0, 0]	-999	PAL1	0	R1091N
1594.913	0.017	2125081	REC_END	n/a	n/a	2	-999	n/a	n/a	n/a	n/a	13	[0, 0, 0]	-999	PAL1	0	R1091N
1594.93	0.867	2125098	TEST_ORIENT	n/a	n/a	1	3	LAMB	FOX	VASE	LAMB	13	[0, 0, 0]	-999	PAL1	0	R1091N
1595.797	0.0	2125965	TEST_PROBE	n/a	wordpools/wordpool_EN.txt	1	3	LAMB	FOX	VASE	LAMB	13	[0, 0, 0]	-999	PAL1	0	R1091N
1595.797	2.656	2125965	REC_START	n/a	n/a	1	-999	n/a	FOX	n/a	n/a	13	[0, 0, 0]	-999	PAL1	0	R1091N
1598.453	2.361	2128621	REC_EVENT	2656	n/a	1	3	LAMB	FOX	VASE	LAMB	13	[0, 0, 0]	-999	PAL1	0	R1091N
1600.814	0.017	2130982	REC_END	n/a	n/a	1	-999	n/a	n/a	n/a	n/a	13	[0, 0, 0]	-999	PAL1	0	R1091N
1600.831	0.851	2130999	TEST_ORIENT	n/a	n/a	4	4	HORSE	n/a	HORSE	PHONE	13	[0, 0, 0]	-999	PAL1	0	R1091N
1601.682	0.0	2131850	TEST_PROBE	n/a	wordpools/wordpool_EN.txt	4	4	HORSE	n/a	HORSE	PHONE	13	[0, 0, 0]	-999	PAL1	0	R1091N
1601.682	5.015	2131850	REC_START	n/a	n/a	4	-999	n/a	n/a	n/a	n/a	13	[0, 0, 0]	-999	PAL1	0	R1091N
1606.697	0.002	2136865	REC_EVENT	5015	n/a	4	4	HORSE	<>	HORSE	PHONE	13	[0, 0, 0]	-999	PAL1	0	R1091N
1606.699	0.017	2136867	REC_END	n/a	n/a	4	-999	n/a	n/a	n/a	n/a	13	[0, 0, 0]	-999	PAL1	0	R1091N
1606.716	0.916	2136884	TEST_ORIENT	n/a	n/a	5	5	HAWK	n/a	HAWK	SHELL	13	[0, 0, 0]	-999	PAL1	0	R1091N
1607.632	0.001	2137800	TEST_PROBE	n/a	wordpools/wordpool_EN.txt	5	5	HAWK	n/a	HAWK	SHELL	13	[0, 0, 0]	-999	PAL1	0	R1091N
1607.633	5.009	2137801	REC_START	n/a	n/a	5	-999	n/a	n/a	n/a	n/a	13	[0, 0, 0]	-999	PAL1	0	R1091N
1612.642	0.0	2142810	REC_EVENT	5009	n/a	5	5	HAWK	<>	HAWK	SHELL	13	[0, 0, 0]	-999	PAL1	0	R1091N
1612.642	0.008	2142810	REC_END	n/a	n/a	5	-999	n/a	n/a	n/a	n/a	13	[0, 0, 0]	-999	PAL1	0	R1091N
1612.65	0.918	2142818	TEST_ORIENT	n/a	n/a	6	6	HOUSE	n/a	HOUSE	CUBE	13	[0, 0, 0]	-999	PAL1	0	R1091N
1613.568	0.0	2143736	TEST_PROBE	n/a	wordpools/wordpool_EN.txt	6	6	HOUSE	n/a	HOUSE	CUBE	13	[0, 0, 0]	-999	PAL1	0	R1091N
1613.568	5.016	2143736	REC_START	n/a	n/a	6	-999	n/a	n/a	n/a	n/a	13	[0, 0, 0]	-999	PAL1	0	R1091N
1618.584	0.005	2148752	REC_END	n/a	n/a	6	-999	n/a	n/a	n/a	n/a	13	[0, 0, 0]	-999	PAL1	0	R1091N
1618.589	1.764	2148757	REC_EVENT	5021	n/a	6	6	HOUSE	<>	HOUSE	CUBE	13	[0, 0, 0]	-999	PAL1	0	R1091N
1620.353	10.45	2150521	ENCODING_START	n/a	n/a	0	-999	n/a	n/a	n/a	n/a	14	[0, 0, 0]	-999	PAL1	0	R1091N
1630.803	0.95	2160970	STUDY_ORIENT	n/a	n/a	1	3	DOOR	n/a	SOUP	DOOR	14	[0, 0, 0]	-999	PAL1	0	R1091N
1631.753	5.018	2161920	STUDY_PAIR	n/a	wordpools/wordpool_EN.txt	1	3	DOOR	n/a	SOUP	DOOR	14	[0, 0, 0]	-999	PAL1	0	R1091N
1636.771	0.916	2166938	STUDY_ORIENT	n/a	n/a	2	2	GOLD	n/a	MAZE	GOLD	14	[0, 0, 0]	-999	PAL1	0	R1091N
1637.687	5.018	2167854	STUDY_PAIR	n/a	wordpools/wordpool_EN.txt	2	2	GOLD	n/a	MAZE	GOLD	14	[0, 0, 0]	-999	PAL1	0	R1091N
1642.705	0.801	2172872	STUDY_ORIENT	n/a	n/a	3	5	CANE	n/a	PALM	CANE	14	[0, 0, 0]	-999	PAL1	0	R1091N
1643.506	5.018	2173673	STUDY_PAIR	n/a	wordpools/wordpool_EN.txt	3	5	CANE	n/a	PALM	CANE	14	[0, 0, 0]	-999	PAL1	0	R1091N
1648.524	0.866	2178690	STUDY_ORIENT	n/a	n/a	4	6	FUDGE	FUDGE	FISH	FUDGE	14	[0, 0, 0]	-999	PAL1	0	R1091N
1649.39	5.035	2179556	STUDY_PAIR	n/a	wordpools/wordpool_EN.txt	4	6	FUDGE	FUDGE	FISH	FUDGE	14	[0, 0, 0]	-999	PAL1	0	R1091N
1654.425	0.849	2184591	STUDY_ORIENT	n/a	n/a	5	1	COUCH	n/a	SHARK	COUCH	14	[0, 0, 0]	-999	PAL1	0	R1091N
1655.274	5.034	2185440	STUDY_PAIR	n/a	wordpools/wordpool_EN.txt	5	1	COUCH	n/a	SHARK	COUCH	14	[0, 0, 0]	-999	PAL1	0	R1091N
1660.308	0.984	2190474	STUDY_ORIENT	n/a	n/a	6	4	WING	n/a	WING	GLASS	14	[0, 0, 0]	-999	PAL1	0	R1091N
1661.292	4.017	2191458	STUDY_PAIR	n/a	wordpools/wordpool_EN.txt	6	4	WING	n/a	WING	GLASS	14	[0, 0, 0]	-999	PAL1	0	R1091N
1665.309	1.0	2195475	START	n/a	n/a	-999	-999	n/a	n/a	n/a	n/a	14	[-999, -999, -999]	-999	PAL1	0	R1091N
1666.309	0.017	2196475	MATH_START	n/a	n/a	-999	-999	n/a	n/a	n/a	n/a	14	[0, 0, 0]	-999	PAL1	0	R1091N
1666.326	6.219	2196492	PROB	6196	n/a	-999	-999	n/a	n/a	n/a	n/a	14	[5, 3, 7]	22	PAL1	0	R1091N
1672.545	11.084	2202711	PROB	11056	n/a	-999	-999	n/a	n/a	n/a	n/a	14	[4, 3, 3]	10	PAL1	0	R1091N
1683.629	13.572	2213794	PROB	13572	n/a	-999	-999	n/a	n/a	n/a	n/a	14	[5, 9, 7]	18	PAL1	0	R1091N
1697.201	0.013	2227366	STOP	n/a	n/a	-999	-999	n/a	n/a	n/a	n/a	14	[-999, -999, -999]	-999	PAL1	0	R1091N
1697.214	0.0	2227379	MATH_END	n/a	n/a	-999	-999	n/a	n/a	n/a	n/a	14	[0, 0, 0]	-999	PAL1	0	R1091N
1697.214	0.017	2227379	TEST_START	n/a	n/a	-999	-999	n/a	n/a	n/a	n/a	14	[0, 0, 0]	-999	PAL1	0	R1091N
1697.231	0.883	2227396	TEST_ORIENT	n/a	n/a	5	1	COUCH	n/a	SHARK	COUCH	14	[0, 0, 0]	-999	PAL1	0	R1091N
1698.114	0.001	2228279	TEST_PROBE	n/a	wordpools/wordpool_EN.txt	5	1	COUCH	n/a	SHARK	COUCH	14	[0, 0, 0]	-999	PAL1	0	R1091N
1698.115	5.009	2228280	REC_START	n/a	n/a	5	-999	n/a	n/a	n/a	n/a	14	[0, 0, 0]	-999	PAL1	0	R1091N
1703.124	0.0	2233288	REC_EVENT	5009	n/a	5	1	COUCH	<>	SHARK	COUCH	14	[0, 0, 0]	-999	PAL1	0	R1091N
1703.124	0.008	2233288	REC_END	n/a	n/a	5	-999	n/a	n/a	n/a	n/a	14	[0, 0, 0]	-999	PAL1	0	R1091N
1703.132	0.934	2233296	TEST_ORIENT	n/a	n/a	2	2	GOLD	n/a	MAZE	GOLD	14	[0, 0, 0]	-999	PAL1	0	R1091N
1704.066	0.0	2234230	TEST_PROBE	n/a	wordpools/wordpool_EN.txt	2	2	GOLD	n/a	MAZE	GOLD	14	[0, 0, 0]	-999	PAL1	0	R1091N
1704.066	5.017	2234230	REC_START	n/a	n/a	2	-999	n/a	n/a	n/a	n/a	14	[0, 0, 0]	-999	PAL1	0	R1091N
1709.083	0.004	2239247	REC_END	n/a	n/a	2	-999	n/a	n/a	n/a	n/a	14	[0, 0, 0]	-999	PAL1	0	R1091N
1709.087	0.013	2239251	REC_EVENT	5021	n/a	2	2	GOLD	<>	MAZE	GOLD	14	[0, 0, 0]	-999	PAL1	0	R1091N
1709.1	0.9	2239264	TEST_ORIENT	n/a	n/a	1	3	DOOR	n/a	SOUP	DOOR	14	[0, 0, 0]	-999	PAL1	0	R1091N
1710.0	0.0	2240164	REC_START	n/a	n/a	1	-999	n/a	n/a	n/a	n/a	14	[0, 0, 0]	-999	PAL1	0	R1091N
1710.0	5.015	2240164	TEST_PROBE	n/a	wordpools/wordpool_EN.txt	1	3	DOOR	n/a	SOUP	DOOR	14	[0, 0, 0]	-999	PAL1	0	R1091N
1715.015	0.002	2245179	REC_EVENT	5015	n/a	1	3	DOOR	<>	SOUP	DOOR	14	[0, 0, 0]	-999	PAL1	0	R1091N
1715.017	0.017	2245181	REC_END	n/a	n/a	1	-999	n/a	n/a	n/a	n/a	14	[0, 0, 0]	-999	PAL1	0	R1091N
1715.034	0.833	2245198	TEST_ORIENT	n/a	n/a	6	4	WING	n/a	WING	GLASS	14	[0, 0, 0]	-999	PAL1	0	R1091N
1715.867	0.001	2246031	TEST_PROBE	n/a	wordpools/wordpool_EN.txt	6	4	WING	n/a	WING	GLASS	14	[0, 0, 0]	-999	PAL1	0	R1091N
1715.868	5.009	2246032	REC_START	n/a	n/a	6	-999	n/a	n/a	n/a	n/a	14	[0, 0, 0]	-999	PAL1	0	R1091N
1720.877	0.0	2251041	REC_EVENT	5009	n/a	6	4	WING	<>	WING	GLASS	14	[0, 0, 0]	-999	PAL1	0	R1091N
1720.877	0.008	2251041	REC_END	n/a	n/a	6	-999	n/a	n/a	n/a	n/a	14	[0, 0, 0]	-999	PAL1	0	R1091N
1720.885	0.85	2251049	TEST_ORIENT	n/a	n/a	3	5	CANE	n/a	PALM	CANE	14	[0, 0, 0]	-999	PAL1	0	R1091N
1721.735	0.001	2251899	TEST_PROBE	n/a	wordpools/wordpool_EN.txt	3	5	CANE	n/a	PALM	CANE	14	[0, 0, 0]	-999	PAL1	0	R1091N
1721.736	5.027	2251900	REC_START	n/a	n/a	3	-999	n/a	n/a	n/a	n/a	14	[0, 0, 0]	-999	PAL1	0	R1091N
1726.763	0.0	2256927	REC_EVENT	5027	n/a	3	5	CANE	<>	PALM	CANE	14	[0, 0, 0]	-999	PAL1	0	R1091N
1726.763	0.006	2256927	REC_END	n/a	n/a	3	-999	n/a	n/a	n/a	n/a	14	[0, 0, 0]	-999	PAL1	0	R1091N
1726.769	0.801	2256933	TEST_ORIENT	n/a	n/a	4	6	FUDGE	FUDGE	FISH	FUDGE	14	[0, 0, 0]	-999	PAL1	0	R1091N
1727.57	0.001	2257734	TEST_PROBE	n/a	wordpools/wordpool_EN.txt	4	6	FUDGE	FUDGE	FISH	FUDGE	14	[0, 0, 0]	-999	PAL1	0	R1091N
1727.571	2.804	2257735	REC_START	n/a	n/a	4	-999	n/a	FUDGE	n/a	n/a	14	[0, 0, 0]	-999	PAL1	0	R1091N
1730.375	0.67	2260538	REC_EVENT	2804	n/a	4	6	FUDGE	FUDGE	FISH	FUDGE	14	[0, 0, 0]	-999	PAL1	0	R1091N
1731.045	1.005	2261208	REC_EVENT	3474	n/a	4	6	FUDGE	<>	FISH	FUDGE	14	[0, 0, 0]	-999	PAL1	0	R1091N
1732.05	0.53	2262213	REC_EVENT	4479	n/a	4	6	FUDGE	<>	FISH	FUDGE	14	[0, 0, 0]	-999	PAL1	0	R1091N
1732.58	471.149	2262743	REC_END	n/a	n/a	4	-999	n/a	n/a	n/a	n/a	14	[0, 0, 0]	-999	PAL1	0	R1091N
2203.729	10.439	2733875	ENCODING_START	n/a	n/a	0	-999	n/a	n/a	n/a	n/a	15	[0, 0, 0]	-999	PAL1	0	R1091N
2214.168	0.817	2744313	STUDY_ORIENT	n/a	n/a	1	5	BRUSH	n/a	BRUSH	PIG	15	[0, 0, 0]	-999	PAL1	0	R1091N
2214.985	5.018	2745130	STUDY_PAIR	n/a	wordpools/wordpool_EN.txt	1	5	BRUSH	n/a	BRUSH	PIG	15	[0, 0, 0]	-999	PAL1	0	R1091N
2220.003	0.85	2750148	STUDY_ORIENT	n/a	n/a	2	2	PIN	n/a	WALL	PIN	15	[0, 0, 0]	-999	PAL1	0	R1091N
2220.853	5.034	2750998	STUDY_PAIR	n/a	wordpools/wordpool_EN.txt	2	2	PIN	n/a	WALL	PIN	15	[0, 0, 0]	-999	PAL1	0	R1091N
2225.887	0.784	2756032	STUDY_ORIENT	n/a	n/a	3	1	TRUCK	n/a	BEACH	TRUCK	15	[0, 0, 0]	-999	PAL1	0	R1091N
2226.671	5.034	2756816	STUDY_PAIR	n/a	wordpools/wordpool_EN.txt	3	1	TRUCK	n/a	BEACH	TRUCK	15	[0, 0, 0]	-999	PAL1	0	R1091N
2231.705	0.967	2761850	STUDY_ORIENT	n/a	n/a	4	6	ROOT	n/a	MAIL	ROOT	15	[0, 0, 0]	-999	PAL1	0	R1091N
2232.672	5.034	2762817	STUDY_PAIR	n/a	wordpools/wordpool_EN.txt	4	6	ROOT	n/a	MAIL	ROOT	15	[0, 0, 0]	-999	PAL1	0	R1091N
2237.706	0.917	2767850	STUDY_ORIENT	n/a	n/a	5	3	BIRD	n/a	BOOT	BIRD	15	[0, 0, 0]	-999	PAL1	0	R1091N
2238.623	5.034	2768767	STUDY_PAIR	n/a	wordpools/wordpool_EN.txt	5	3	BIRD	n/a	BOOT	BIRD	15	[0, 0, 0]	-999	PAL1	0	R1091N
2243.657	0.801	2773801	STUDY_ORIENT	n/a	n/a	6	4	PANTS	n/a	ROCK	PANTS	15	[0, 0, 0]	-999	PAL1	0	R1091N
2244.458	4.017	2774602	STUDY_PAIR	n/a	wordpools/wordpool_EN.txt	6	4	PANTS	n/a	ROCK	PANTS	15	[0, 0, 0]	-999	PAL1	0	R1091N
2248.475	1.0	2778619	START	n/a	n/a	-999	-999	n/a	n/a	n/a	n/a	15	[-999, -999, -999]	-999	PAL1	0	R1091N
2249.475	0.017	2779619	MATH_START	n/a	n/a	-999	-999	n/a	n/a	n/a	n/a	15	[0, 0, 0]	-999	PAL1	0	R1091N
2249.492	7.267	2779636	PROB	7237	n/a	-999	-999	n/a	n/a	n/a	n/a	15	[8, 9, 4]	21	PAL1	0	R1091N
2256.759	5.067	2786903	PROB	5042	n/a	-999	-999	n/a	n/a	n/a	n/a	15	[7, 8, 2]	17	PAL1	0	R1091N
2261.826	7.447	2791970	PROB	7447	n/a	-999	-999	n/a	n/a	n/a	n/a	15	[6, 9, 4]	19	PAL1	0	R1091N
2269.273	0.005	2799416	STOP	n/a	n/a	-999	-999	n/a	n/a	n/a	n/a	15	[-999, -999, -999]	-999	PAL1	0	R1091N
2269.278	0.0	2799421	MATH_END	n/a	n/a	-999	-999	n/a	n/a	n/a	n/a	15	[0, 0, 0]	-999	PAL1	0	R1091N
2269.278	0.016	2799421	TEST_START	n/a	n/a	-999	-999	n/a	n/a	n/a	n/a	15	[0, 0, 0]	-999	PAL1	0	R1091N
2269.294	0.834	2799437	TEST_ORIENT	n/a	n/a	3	1	TRUCK	n/a	BEACH	TRUCK	15	[0, 0, 0]	-999	PAL1	0	R1091N
2270.128	0.001	2800271	TEST_PROBE	n/a	wordpools/wordpool_EN.txt	3	1	TRUCK	n/a	BEACH	TRUCK	15	[0, 0, 0]	-999	PAL1	0	R1091N
2270.129	2.017	2800272	REC_START	n/a	n/a	3	-999	n/a	n/a	n/a	n/a	15	[0, 0, 0]	-999	PAL1	0	R1091N
2272.146	1.89	2802289	REC_EVENT	2017	n/a	3	1	TRUCK	<>	BEACH	TRUCK	15	[0, 0, 0]	-999	PAL1	0	R1091N
2274.036	1.119	2804179	REC_EVENT	3907	n/a	3	1	TRUCK	<>	BEACH	TRUCK	15	[0, 0, 0]	-999	PAL1	0	R1091N
2275.155	0.007	2805298	REC_END	n/a	n/a	3	-999	n/a	n/a	n/a	n/a	15	[0, 0, 0]	-999	PAL1	0	R1091N
2275.162	0.95	2805305	TEST_ORIENT	n/a	n/a	2	2	PIN	n/a	WALL	PIN	15	[0, 0, 0]	-999	PAL1	0	R1091N
2276.112	0.001	2806255	TEST_PROBE	n/a	wordpools/wordpool_EN.txt	2	2	PIN	n/a	WALL	PIN	15	[0, 0, 0]	-999	PAL1	0	R1091N
2276.113	2.472	2806256	REC_START	n/a	n/a	2	-999	n/a	n/a	n/a	n/a	15	[0, 0, 0]	-999	PAL1	0	R1091N
2278.585	2.554	2808728	REC_EVENT	2472	n/a	2	2	PIN	<>	WALL	PIN	15	[0, 0, 0]	-999	PAL1	0	R1091N
2281.139	0.007	2811282	REC_END	n/a	n/a	2	-999	n/a	n/a	n/a	n/a	15	[0, 0, 0]	-999	PAL1	0	R1091N
2281.146	0.967	2811289	TEST_ORIENT	n/a	n/a	5	3	BIRD	n/a	BOOT	BIRD	15	[0, 0, 0]	-999	PAL1	0	R1091N
2282.113	0.001	2812256	TEST_PROBE	n/a	wordpools/wordpool_EN.txt	5	3	BIRD	n/a	BOOT	BIRD	15	[0, 0, 0]	-999	PAL1	0	R1091N
2282.114	1.605	2812257	REC_START	n/a	n/a	5	-999	n/a	n/a	n/a	n/a	15	[0, 0, 0]	-999	PAL1	0	R1091N
2283.719	1.0	2813862	REC_EVENT	1605	n/a	5	3	BIRD	<>	BOOT	BIRD	15	[0, 0, 0]	-999	PAL1	0	R1091N
2284.719	1.0	2814862	REC_EVENT	2605	n/a	5	3	BIRD	<>	BOOT	BIRD	15	[0, 0, 0]	-999	PAL1	0	R1091N
2285.719	1.411	2815862	REC_EVENT	3605	n/a	5	3	BIRD	<>	BOOT	BIRD	15	[0, 0, 0]	-999	PAL1	0	R1091N
2287.13	0.017	2817273	REC_END	n/a	n/a	5	-999	n/a	n/a	n/a	n/a	15	[0, 0, 0]	-999	PAL1	0	R1091N
2287.147	0.817	2817290	TEST_ORIENT	n/a	n/a	6	4	PANTS	n/a	ROCK	PANTS	15	[0, 0, 0]	-999	PAL1	0	R1091N
2287.964	0.001	2818107	TEST_PROBE	n/a	wordpools/wordpool_EN.txt	6	4	PANTS	n/a	ROCK	PANTS	15	[0, 0, 0]	-999	PAL1	0	R1091N
2287.965	4.998	2818108	REC_START	n/a	n/a	6	-999	n/a	n/a	n/a	n/a	15	[0, 0, 0]	-999	PAL1	0	R1091N
2292.963	0.002	2823105	REC_EVENT	4998	n/a	6	4	PANTS	<>	ROCK	PANTS	15	[0, 0, 0]	-999	PAL1	0	R1091N
2292.965	0.017	2823107	REC_END	n/a	n/a	6	-999	n/a	n/a	n/a	n/a	15	[0, 0, 0]	-999	PAL1	0	R1091N
2292.982	1.0	2823124	TEST_ORIENT	n/a	n/a	1	5	BRUSH	n/a	BRUSH	PIG	15	[0, 0, 0]	-999	PAL1	0	R1091N
2293.982	0.001	2824124	TEST_PROBE	n/a	wordpools/wordpool_EN.txt	1	5	BRUSH	n/a	BRUSH	PIG	15	[0, 0, 0]	-999	PAL1	0	R1091N
2293.983	5.026	2824125	REC_START	n/a	n/a	1	-999	n/a	n/a	n/a	n/a	15	[0, 0, 0]	-999	PAL1	0	R1091N
2299.009	0.001	2829151	REC_END	n/a	n/a	1	-999	n/a	n/a	n/a	n/a	15	[0, 0, 0]	-999	PAL1	0	R1091N
2299.01	0.006	2829152	REC_EVENT	5027	n/a	1	5	BRUSH	<>	BRUSH	PIG	15	[0, 0, 0]	-999	PAL1	0	R1091N
2299.016	0.917	2829158	TEST_ORIENT	n/a	n/a	4	6	ROOT	n/a	MAIL	ROOT	15	[0, 0, 0]	-999	PAL1	0	R1091N
2299.933	0.0	2830075	REC_START	n/a	n/a	4	-999	n/a	n/a	n/a	n/a	15	[0, 0, 0]	-999	PAL1	0	R1091N
2299.933	5.015	2830075	TEST_PROBE	n/a	wordpools/wordpool_EN.txt	4	6	ROOT	n/a	MAIL	ROOT	15	[0, 0, 0]	-999	PAL1	0	R1091N
2304.948	0.002	2835090	REC_EVENT	5015	n/a	4	6	ROOT	<>	MAIL	ROOT	15	[0, 0, 0]	-999	PAL1	0	R1091N
2304.95	1.62	2835092	REC_END	n/a	n/a	4	-999	n/a	n/a	n/a	n/a	15	[0, 0, 0]	-999	PAL1	0	R1091N
2306.57	10.449	2836712	ENCODING_START	n/a	n/a	0	-999	n/a	n/a	n/a	n/a	16	[0, 0, 0]	-999	PAL1	0	R1091N
2317.019	0.8	2847161	STUDY_ORIENT	n/a	n/a	1	5	TRAY	n/a	TRAY	GUARD	16	[0, 0, 0]	-999	PAL1	0	R1091N
2317.819	5.018	2847961	STUDY_PAIR	n/a	wordpools/wordpool_EN.txt	1	5	TRAY	n/a	TRAY	GUARD	16	[0, 0, 0]	-999	PAL1	0	R1091N
2322.837	0.85	2852978	STUDY_ORIENT	n/a	n/a	2	2	BREAD	n/a	TRASH	BREAD	16	[0, 0, 0]	-999	PAL1	0	R1091N
2323.687	5.034	2853828	STUDY_PAIR	n/a	wordpools/wordpool_EN.txt	2	2	BREAD	n/a	TRASH	BREAD	16	[0, 0, 0]	-999	PAL1	0	R1091N
2328.721	0.801	2858862	STUDY_ORIENT	n/a	n/a	3	3	SUIT	n/a	BROOM	SUIT	16	[0, 0, 0]	-999	PAL1	0	R1091N
2329.522	5.018	2859663	STUDY_PAIR	n/a	wordpools/wordpool_EN.txt	3	3	SUIT	n/a	BROOM	SUIT	16	[0, 0, 0]	-999	PAL1	0	R1091N
2334.54	1.017	2864681	STUDY_ORIENT	n/a	n/a	4	4	NOSE	SKY	SKY	NOSE	16	[0, 0, 0]	-999	PAL1	0	R1091N
2335.557	5.033	2865698	STUDY_PAIR	n/a	wordpools/wordpool_EN.txt	4	4	NOSE	SKY	SKY	NOSE	16	[0, 0, 0]	-999	PAL1	0	R1091N
2340.59	0.783	2870731	STUDY_ORIENT	n/a	n/a	5	1	BAND	n/a	BAND	PEARL	16	[0, 0, 0]	-999	PAL1	0	R1091N
2341.373	5.018	2871514	STUDY_PAIR	n/a	wordpools/wordpool_EN.txt	5	1	BAND	n/a	BAND	PEARL	16	[0, 0, 0]	-999	PAL1	0	R1091N
2346.391	0.783	2876531	STUDY_ORIENT	n/a	n/a	6	6	CLAY	n/a	BENCH	CLAY	16	[0, 0, 0]	-999	PAL1	0	R1091N
2347.174	4.001	2877314	STUDY_PAIR	n/a	wordpools/wordpool_EN.txt	6	6	CLAY	n/a	BENCH	CLAY	16	[0, 0, 0]	-999	PAL1	0	R1091N
2351.175	1.0	2881315	START	n/a	n/a	-999	-999	n/a	n/a	n/a	n/a	16	[-999, -999, -999]	-999	PAL1	0	R1091N
2352.175	0.017	2882315	MATH_START	n/a	n/a	-999	-999	n/a	n/a	n/a	n/a	16	[0, 0, 0]	-999	PAL1	0	R1091N
2352.192	8.384	2882332	PROB	8362	n/a	-999	-999	n/a	n/a	n/a	n/a	16	[5, 8, 4]	18	PAL1	0	R1091N
2360.576	3.818	2890716	PROB	3785	n/a	-999	-999	n/a	n/a	n/a	n/a	16	[6, 1, 4]	11	PAL1	0	R1091N
2364.394	11.975	2894534	PROB	11975	n/a	-999	-999	n/a	n/a	n/a	n/a	16	[9, 1, 8]	18	PAL1	0	R1091N
2376.369	0.01	2906508	STOP	n/a	n/a	-999	-999	n/a	n/a	n/a	n/a	16	[-999, -999, -999]	-999	PAL1	0	R1091N
2376.379	0.0	2906518	TEST_START	n/a	n/a	-999	-999	n/a	n/a	n/a	n/a	16	[0, 0, 0]	-999	PAL1	0	R1091N
2376.379	0.018	2906518	MATH_END	n/a	n/a	-999	-999	n/a	n/a	n/a	n/a	16	[0, 0, 0]	-999	PAL1	0	R1091N
2376.397	1.033	2906536	TEST_ORIENT	n/a	n/a	5	1	BAND	n/a	BAND	PEARL	16	[0, 0, 0]	-999	PAL1	0	R1091N
2377.43	0.002	2907569	TEST_PROBE	n/a	wordpools/wordpool_EN.txt	5	1	BAND	n/a	BAND	PEARL	16	[0, 0, 0]	-999	PAL1	0	R1091N
2377.432	4.998	2907571	REC_START	n/a	n/a	5	-999	n/a	n/a	n/a	n/a	16	[0, 0, 0]	-999	PAL1	0	R1091N
2382.43	0.001	2912569	REC_EVENT	4998	n/a	5	1	BAND	<>	BAND	PEARL	16	[0, 0, 0]	-999	PAL1	0	R1091N
2382.431	0.017	2912570	REC_END	n/a	n/a	5	-999	n/a	n/a	n/a	n/a	16	[0, 0, 0]	-999	PAL1	0	R1091N
2382.448	1.033	2912587	TEST_ORIENT	n/a	n/a	2	2	BREAD	n/a	TRASH	BREAD	16	[0, 0, 0]	-999	PAL1	0	R1091N
2383.481	0.001	2913620	TEST_PROBE	n/a	wordpools/wordpool_EN.txt	2	2	BREAD	n/a	TRASH	BREAD	16	[0, 0, 0]	-999	PAL1	0	R1091N
2383.482	5.009	2913621	REC_START	n/a	n/a	2	-999	n/a	n/a	n/a	n/a	16	[0, 0, 0]	-999	PAL1	0	R1091N
2388.491	0.0	2918630	REC_END	n/a	n/a	2	-999	n/a	n/a	n/a	n/a	16	[0, 0, 0]	-999	PAL1	0	R1091N
2388.491	0.008	2918630	REC_EVENT	5009	n/a	2	2	BREAD	<>	TRASH	BREAD	16	[0, 0, 0]	-999	PAL1	0	R1091N
2388.499	0.849	2918638	TEST_ORIENT	n/a	n/a	3	3	SUIT	n/a	BROOM	SUIT	16	[0, 0, 0]	-999	PAL1	0	R1091N
2389.348	0.001	2919487	TEST_PROBE	n/a	wordpools/wordpool_EN.txt	3	3	SUIT	n/a	BROOM	SUIT	16	[0, 0, 0]	-999	PAL1	0	R1091N
2389.349	5.015	2919488	REC_START	n/a	n/a	3	-999	n/a	n/a	n/a	n/a	16	[0, 0, 0]	-999	PAL1	0	R1091N
2394.364	0.001	2924503	REC_EVENT	5015	n/a	3	3	SUIT	<>	BROOM	SUIT	16	[0, 0, 0]	-999	PAL1	0	R1091N
2394.365	0.017	2924504	REC_END	n/a	n/a	3	-999	n/a	n/a	n/a	n/a	16	[0, 0, 0]	-999	PAL1	0	R1091N
2394.382	0.8	2924521	TEST_ORIENT	n/a	n/a	4	4	NOSE	SKY	SKY	NOSE	16	[0, 0, 0]	-999	PAL1	0	R1091N
2395.182	0.001	2925321	TEST_PROBE	n/a	wordpools/wordpool_EN.txt	4	4	NOSE	SKY	SKY	NOSE	16	[0, 0, 0]	-999	PAL1	0	R1091N
2395.183	1.841	2925322	REC_START	n/a	n/a	4	-999	n/a	SKY	n/a	n/a	16	[0, 0, 0]	-999	PAL1	0	R1091N
2397.024	0.509	2927163	REC_EVENT	1841	n/a	4	4	NOSE	<>	SKY	NOSE	16	[0, 0, 0]	-999	PAL1	0	R1091N
2397.533	0.491	2927672	REC_EVENT	2350	n/a	4	4	NOSE	<>	SKY	NOSE	16	[0, 0, 0]	-999	PAL1	0	R1091N
2398.024	2.168	2928163	REC_EVENT	2841	n/a	4	4	NOSE	SKY	SKY	NOSE	16	[0, 0, 0]	-999	PAL1	0	R1091N
2400.192	0.008	2930330	REC_END	n/a	n/a	4	-999	n/a	n/a	n/a	n/a	16	[0, 0, 0]	-999	PAL1	0	R1091N
2400.2	1.0	2930338	TEST_ORIENT	n/a	n/a	1	5	TRAY	n/a	TRAY	GUARD	16	[0, 0, 0]	-999	PAL1	0	R1091N
2401.2	0.0	2931338	TEST_PROBE	n/a	wordpools/wordpool_EN.txt	1	5	TRAY	n/a	TRAY	GUARD	16	[0, 0, 0]	-999	PAL1	0	R1091N
2401.2	5.015	2931338	REC_START	n/a	n/a	1	-999	n/a	n/a	n/a	n/a	16	[0, 0, 0]	-999	PAL1	0	R1091N
2406.215	0.002	2936353	REC_EVENT	5015	n/a	1	5	TRAY	<>	TRAY	GUARD	16	[0, 0, 0]	-999	PAL1	0	R1091N
2406.217	0.017	2936355	REC_END	n/a	n/a	1	-999	n/a	n/a	n/a	n/a	16	[0, 0, 0]	-999	PAL1	0	R1091N
2406.234	0.884	2936372	TEST_ORIENT	n/a	n/a	6	6	CLAY	n/a	BENCH	CLAY	16	[0, 0, 0]	-999	PAL1	0	R1091N
2407.118	0.0	2937256	TEST_PROBE	n/a	wordpools/wordpool_EN.txt	6	6	CLAY	n/a	BENCH	CLAY	16	[0, 0, 0]	-999	PAL1	0	R1091N
2407.118	5.015	2937256	REC_START	n/a	n/a	6	-999	n/a	n/a	n/a	n/a	16	[0, 0, 0]	-999	PAL1	0	R1091N
2412.133	0.002	2942271	REC_EVENT	5015	n/a	6	6	CLAY	<>	BENCH	CLAY	16	[0, 0, 0]	-999	PAL1	0	R1091N
2412.135	1.706	2942273	REC_END	n/a	n/a	6	-999	n/a	n/a	n/a	n/a	16	[0, 0, 0]	-999	PAL1	0	R1091N
2413.841	10.446	2943979	ENCODING_START	n/a	n/a	0	-999	n/a	n/a	n/a	n/a	17	[0, 0, 0]	-999	PAL1	0	R1091N
2424.287	1.017	2954425	STUDY_ORIENT	n/a	n/a	1	5	CHEEK	n/a	CHEEK	BEAR	17	[0, 0, 0]	-999	PAL1	0	R1091N
2425.304	5.034	2955441	STUDY_PAIR	n/a	wordpools/wordpool_EN.txt	1	5	CHEEK	n/a	CHEEK	BEAR	17	[0, 0, 0]	-999	PAL1	0	R1091N
2430.338	0.95	2960475	STUDY_ORIENT	n/a	n/a	2	2	DRESS	n/a	TOAD	DRESS	17	[0, 0, 0]	-999	PAL1	0	R1091N
2431.288	5.018	2961425	STUDY_PAIR	n/a	wordpools/wordpool_EN.txt	2	2	DRESS	n/a	TOAD	DRESS	17	[0, 0, 0]	-999	PAL1	0	R1091N
2436.306	0.95	2966443	STUDY_ORIENT	n/a	n/a	3	1	BADGE	n/a	BADGE	STREET	17	[0, 0, 0]	-999	PAL1	0	R1091N
2437.256	5.034	2967393	STUDY_PAIR	n/a	wordpools/wordpool_EN.txt	3	1	BADGE	n/a	BADGE	STREET	17	[0, 0, 0]	-999	PAL1	0	R1091N
2442.29	0.967	2972427	STUDY_ORIENT	n/a	n/a	4	6	MILK	n/a	MILK	MAP	17	[0, 0, 0]	-999	PAL1	0	R1091N
2443.257	5.001	2973394	STUDY_PAIR	n/a	wordpools/wordpool_EN.txt	4	6	MILK	n/a	MILK	MAP	17	[0, 0, 0]	-999	PAL1	0	R1091N
2448.258	0.766	2978395	STUDY_ORIENT	n/a	n/a	5	3	SHEEP	n/a	SHEEP	FARM	17	[0, 0, 0]	-999	PAL1	0	R1091N
2449.024	5.018	2979161	STUDY_PAIR	n/a	wordpools/wordpool_EN.txt	5	3	SHEEP	n/a	SHEEP	FARM	17	[0, 0, 0]	-999	PAL1	0	R1091N
2454.042	0.95	2984178	STUDY_ORIENT	n/a	n/a	6	4	HOOK	n/a	HOOK	AXE	17	[0, 0, 0]	-999	PAL1	0	R1091N
2454.992	4.002	2985128	STUDY_PAIR	n/a	wordpools/wordpool_EN.txt	6	4	HOOK	n/a	HOOK	AXE	17	[0, 0, 0]	-999	PAL1	0	R1091N
2458.994	0.999	2989130	START	n/a	n/a	-999	-999	n/a	n/a	n/a	n/a	17	[-999, -999, -999]	-999	PAL1	0	R1091N
2459.993	0.017	2990129	MATH_START	n/a	n/a	-999	-999	n/a	n/a	n/a	n/a	17	[0, 0, 0]	-999	PAL1	0	R1091N
2460.01	18.537	2990146	PROB	18504	n/a	-999	-999	n/a	n/a	n/a	n/a	17	[6, 9, 2]	17	PAL1	0	R1091N
2478.547	22.286	3008683	PROB	22286	n/a	-999	-999	n/a	n/a	n/a	n/a	17	[8, 6, 3]	18	PAL1	0	R1091N
2500.833	0.017	3030968	STOP	n/a	n/a	-999	-999	n/a	n/a	n/a	n/a	17	[-999, -999, -999]	-999	PAL1	0	R1091N
2500.85	0.0	3030985	MATH_END	n/a	n/a	-999	-999	n/a	n/a	n/a	n/a	17	[0, 0, 0]	-999	PAL1	0	R1091N
2500.85	0.017	3030985	TEST_START	n/a	n/a	-999	-999	n/a	n/a	n/a	n/a	17	[0, 0, 0]	-999	PAL1	0	R1091N
2500.867	0.833	3031002	TEST_ORIENT	n/a	n/a	3	1	BADGE	n/a	BADGE	STREET	17	[0, 0, 0]	-999	PAL1	0	R1091N
2501.7	0.001	3031835	TEST_PROBE	n/a	wordpools/wordpool_EN.txt	3	1	BADGE	n/a	BADGE	STREET	17	[0, 0, 0]	-999	PAL1	0	R1091N
2501.701	3.209	3031836	REC_START	n/a	n/a	3	-999	n/a	n/a	n/a	n/a	17	[0, 0, 0]	-999	PAL1	0	R1091N
2504.91	1.0	3035045	REC_EVENT	3209	n/a	3	1	BADGE	<>	BADGE	STREET	17	[0, 0, 0]	-999	PAL1	0	R1091N
2505.91	0.801	3036044	REC_EVENT	4209	n/a	3	1	BADGE	<>	BADGE	STREET	17	[0, 0, 0]	-999	PAL1	0	R1091N
2506.711	0.007	3036845	REC_END	n/a	n/a	3	-999	n/a	n/a	n/a	n/a	17	[0, 0, 0]	-999	PAL1	0	R1091N
2506.718	0.917	3036852	TEST_ORIENT	n/a	n/a	2	2	DRESS	n/a	TOAD	DRESS	17	[0, 0, 0]	-999	PAL1	0	R1091N
2507.635	0.0	3037769	TEST_PROBE	n/a	wordpools/wordpool_EN.txt	2	2	DRESS	n/a	TOAD	DRESS	17	[0, 0, 0]	-999	PAL1	0	R1091N
2507.635	0.5	3037769	REC_START	n/a	n/a	2	-999	n/a	n/a	n/a	n/a	17	[0, 0, 0]	-999	PAL1	0	R1091N
2508.135	1.0	3038269	REC_EVENT	500	n/a	2	2	DRESS	<>	TOAD	DRESS	17	[0, 0, 0]	-999	PAL1	0	R1091N
2509.135	0.909	3039269	REC_EVENT	1500	n/a	2	2	DRESS	<>	TOAD	DRESS	17	[0, 0, 0]	-999	PAL1	0	R1091N
2510.044	2.608	3040178	REC_EVENT	2409	n/a	2	2	DRESS	<>	TOAD	DRESS	17	[0, 0, 0]	-999	PAL1	0	R1091N
2512.652	0.017	3042786	REC_END	n/a	n/a	2	-999	n/a	n/a	n/a	n/a	17	[0, 0, 0]	-999	PAL1	0	R1091N
2512.669	0.868	3042803	TEST_ORIENT	n/a	n/a	5	3	SHEEP	n/a	SHEEP	FARM	17	[0, 0, 0]	-999	PAL1	0	R1091N
2513.537	0.0	3043671	TEST_PROBE	n/a	wordpools/wordpool_EN.txt	5	3	SHEEP	n/a	SHEEP	FARM	17	[0, 0, 0]	-999	PAL1	0	R1091N
2513.537	1.434	3043671	REC_START	n/a	n/a	5	-999	n/a	n/a	n/a	n/a	17	[0, 0, 0]	-999	PAL1	0	R1091N
2514.971	1.0	3045105	REC_EVENT	1434	n/a	5	3	SHEEP	<>	SHEEP	FARM	17	[0, 0, 0]	-999	PAL1	0	R1091N
2515.971	2.583	3046105	REC_EVENT	2434	n/a	5	3	SHEEP	<>	SHEEP	FARM	17	[0, 0, 0]	-999	PAL1	0	R1091N
2518.554	0.017	3048688	REC_END	n/a	n/a	5	-999	n/a	n/a	n/a	n/a	17	[0, 0, 0]	-999	PAL1	0	R1091N
2518.571	0.85	3048705	TEST_ORIENT	n/a	n/a	6	4	HOOK	n/a	HOOK	AXE	17	[0, 0, 0]	-999	PAL1	0	R1091N
2519.421	0.0	3049555	TEST_PROBE	n/a	wordpools/wordpool_EN.txt	6	4	HOOK	n/a	HOOK	AXE	17	[0, 0, 0]	-999	PAL1	0	R1091N
2519.421	5.015	3049555	REC_START	n/a	n/a	6	-999	n/a	n/a	n/a	n/a	17	[0, 0, 0]	-999	PAL1	0	R1091N
2524.436	0.002	3054570	REC_EVENT	5015	n/a	6	4	HOOK	<>	HOOK	AXE	17	[0, 0, 0]	-999	PAL1	0	R1091N
2524.438	0.017	3054572	REC_END	n/a	n/a	6	-999	n/a	n/a	n/a	n/a	17	[0, 0, 0]	-999	PAL1	0	R1091N
2524.455	0.916	3054589	TEST_ORIENT	n/a	n/a	1	5	CHEEK	n/a	CHEEK	BEAR	17	[0, 0, 0]	-999	PAL1	0	R1091N
2525.371	0.0	3055505	REC_START	n/a	n/a	1	-999	n/a	n/a	n/a	n/a	17	[0, 0, 0]	-999	PAL1	0	R1091N
2525.371	5.015	3055505	TEST_PROBE	n/a	wordpools/wordpool_EN.txt	1	5	CHEEK	n/a	CHEEK	BEAR	17	[0, 0, 0]	-999	PAL1	0	R1091N
2530.386	0.002	3060520	REC_EVENT	5015	n/a	1	5	CHEEK	<>	CHEEK	BEAR	17	[0, 0, 0]	-999	PAL1	0	R1091N
2530.388	0.018	3060522	REC_END	n/a	n/a	1	-999	n/a	n/a	n/a	n/a	17	[0, 0, 0]	-999	PAL1	0	R1091N
2530.406	0.833	3060540	TEST_ORIENT	n/a	n/a	4	6	MILK	n/a	MILK	MAP	17	[0, 0, 0]	-999	PAL1	0	R1091N
2531.239	0.0	3061373	TEST_PROBE	n/a	wordpools/wordpool_EN.txt	4	6	MILK	n/a	MILK	MAP	17	[0, 0, 0]	-999	PAL1	0	R1091N
2531.239	4.992	3061373	REC_START	n/a	n/a	4	-999	n/a	n/a	n/a	n/a	17	[0, 0, 0]	-999	PAL1	0	R1091N
2536.231	0.035	3066364	REC_EVENT	4992	n/a	4	6	MILK	<>	MILK	MAP	17	[0, 0, 0]	-999	PAL1	0	R1091N
2536.266	156.023	3066399	REC_END	n/a	n/a	4	-999	n/a	n/a	n/a	n/a	17	[0, 0, 0]	-999	PAL1	0	R1091N
2692.289	10.445	3222417	ENCODING_START	n/a	n/a	0	-999	n/a	n/a	n/a	n/a	18	[0, 0, 0]	-999	PAL1	0	R1091N
2702.734	0.835	3232861	STUDY_ORIENT	n/a	n/a	1	1	PEN	n/a	SALT	PEN	18	[0, 0, 0]	-999	PAL1	0	R1091N
2703.569	5.033	3233696	STUDY_PAIR	n/a	wordpools/wordpool_EN.txt	1	1	PEN	n/a	SALT	PEN	18	[0, 0, 0]	-999	PAL1	0	R1091N
2708.602	1.017	3238729	STUDY_ORIENT	n/a	n/a	2	2	STOOL	n/a	STOOL	SPARK	18	[0, 0, 0]	-999	PAL1	0	R1091N
2709.619	5.034	3239746	STUDY_PAIR	n/a	wordpools/wordpool_EN.txt	2	2	STOOL	n/a	STOOL	SPARK	18	[0, 0, 0]	-999	PAL1	0	R1091N
2714.653	0.918	3244780	STUDY_ORIENT	n/a	n/a	3	5	BOWL	n/a	BOWL	SLEEVE	18	[0, 0, 0]	-999	PAL1	0	R1091N
2715.571	5.033	3245698	STUDY_PAIR	n/a	wordpools/wordpool_EN.txt	3	5	BOWL	n/a	BOWL	SLEEVE	18	[0, 0, 0]	-999	PAL1	0	R1091N
2720.604	0.818	3250730	STUDY_ORIENT	n/a	n/a	4	6	FOG	n/a	FOG	BEAN	18	[0, 0, 0]	-999	PAL1	0	R1091N
2721.422	5.034	3251548	STUDY_PAIR	n/a	wordpools/wordpool_EN.txt	4	6	FOG	n/a	FOG	BEAN	18	[0, 0, 0]	-999	PAL1	0	R1091N
2726.456	0.95	3256582	STUDY_ORIENT	n/a	n/a	5	3	BLOOM	n/a	GOAT	BLOOM	18	[0, 0, 0]	-999	PAL1	0	R1091N
2727.406	5.034	3257532	STUDY_PAIR	n/a	wordpools/wordpool_EN.txt	5	3	BLOOM	n/a	GOAT	BLOOM	18	[0, 0, 0]	-999	PAL1	0	R1091N
2732.44	0.883	3262566	STUDY_ORIENT	n/a	n/a	6	4	CLOCK	n/a	DRUM	CLOCK	18	[0, 0, 0]	-999	PAL1	0	R1091N
2733.323	4.018	3263449	STUDY_PAIR	n/a	wordpools/wordpool_EN.txt	6	4	CLOCK	n/a	DRUM	CLOCK	18	[0, 0, 0]	-999	PAL1	0	R1091N
2737.341	0.999	3267467	START	n/a	n/a	-999	-999	n/a	n/a	n/a	n/a	18	[-999, -999, -999]	-999	PAL1	0	R1091N
2738.34	0.017	3268466	MATH_START	n/a	n/a	-999	-999	n/a	n/a	n/a	n/a	18	[0, 0, 0]	-999	PAL1	0	R1091N
2738.357	25.676	3268483	PROB	25676	n/a	-999	-999	n/a	n/a	n/a	n/a	18	[9, 4, 7]	18	PAL1	0	R1091N
2764.033	0.012	3294158	STOP	n/a	n/a	-999	-999	n/a	n/a	n/a	n/a	18	[-999, -999, -999]	-999	PAL1	0	R1091N
2764.045	0.0	3294170	MATH_END	n/a	n/a	-999	-999	n/a	n/a	n/a	n/a	18	[0, 0, 0]	-999	PAL1	0	R1091N
2764.045	0.016	3294170	TEST_START	n/a	n/a	-999	-999	n/a	n/a	n/a	n/a	18	[0, 0, 0]	-999	PAL1	0	R1091N
2764.061	0.901	3294186	TEST_ORIENT	n/a	n/a	1	1	PEN	n/a	SALT	PEN	18	[0, 0, 0]	-999	PAL1	0	R1091N
2764.962	0.0	3295087	TEST_PROBE	n/a	wordpools/wordpool_EN.txt	1	1	PEN	n/a	SALT	PEN	18	[0, 0, 0]	-999	PAL1	0	R1091N
2764.962	5.015	3295087	REC_START	n/a	n/a	1	-999	n/a	n/a	n/a	n/a	18	[0, 0, 0]	-999	PAL1	0	R1091N
2769.977	0.002	3300102	REC_EVENT	5015	n/a	1	1	PEN	<>	SALT	PEN	18	[0, 0, 0]	-999	PAL1	0	R1091N
2769.979	0.017	3300104	REC_END	n/a	n/a	1	-999	n/a	n/a	n/a	n/a	18	[0, 0, 0]	-999	PAL1	0	R1091N
2769.996	0.9	3300121	TEST_ORIENT	n/a	n/a	2	2	STOOL	n/a	STOOL	SPARK	18	[0, 0, 0]	-999	PAL1	0	R1091N
2770.896	0.0	3301021	TEST_PROBE	n/a	wordpools/wordpool_EN.txt	2	2	STOOL	n/a	STOOL	SPARK	18	[0, 0, 0]	-999	PAL1	0	R1091N
2770.896	5.015	3301021	REC_START	n/a	n/a	2	-999	n/a	n/a	n/a	n/a	18	[0, 0, 0]	-999	PAL1	0	R1091N
2775.911	0.002	3306035	REC_EVENT	5015	n/a	2	2	STOOL	<>	STOOL	SPARK	18	[0, 0, 0]	-999	PAL1	0	R1091N
2775.913	0.017	3306037	REC_END	n/a	n/a	2	-999	n/a	n/a	n/a	n/a	18	[0, 0, 0]	-999	PAL1	0	R1091N
2775.93	0.8	3306054	TEST_ORIENT	n/a	n/a	5	3	BLOOM	n/a	GOAT	BLOOM	18	[0, 0, 0]	-999	PAL1	0	R1091N
2776.73	0.0	3306854	REC_START	n/a	n/a	5	-999	n/a	n/a	n/a	n/a	18	[0, 0, 0]	-999	PAL1	0	R1091N
2776.73	5.015	3306854	TEST_PROBE	n/a	wordpools/wordpool_EN.txt	5	3	BLOOM	n/a	GOAT	BLOOM	18	[0, 0, 0]	-999	PAL1	0	R1091N
2781.745	0.003	3311869	REC_EVENT	5015	n/a	5	3	BLOOM	<>	GOAT	BLOOM	18	[0, 0, 0]	-999	PAL1	0	R1091N
2781.748	0.016	3311872	REC_END	n/a	n/a	5	-999	n/a	n/a	n/a	n/a	18	[0, 0, 0]	-999	PAL1	0	R1091N
2781.764	0.884	3311888	TEST_ORIENT	n/a	n/a	6	4	CLOCK	n/a	DRUM	CLOCK	18	[0, 0, 0]	-999	PAL1	0	R1091N
2782.648	0.001	3312772	TEST_PROBE	n/a	wordpools/wordpool_EN.txt	6	4	CLOCK	n/a	DRUM	CLOCK	18	[0, 0, 0]	-999	PAL1	0	R1091N
2782.649	5.025	3312773	REC_START	n/a	n/a	6	-999	n/a	n/a	n/a	n/a	18	[0, 0, 0]	-999	PAL1	0	R1091N
2787.674	0.002	3317798	REC_END	n/a	n/a	6	-999	n/a	n/a	n/a	n/a	18	[0, 0, 0]	-999	PAL1	0	R1091N
2787.676	0.006	3317800	REC_EVENT	5027	n/a	6	4	CLOCK	<>	DRUM	CLOCK	18	[0, 0, 0]	-999	PAL1	0	R1091N
2787.682	0.818	3317806	TEST_ORIENT	n/a	n/a	3	5	BOWL	n/a	BOWL	SLEEVE	18	[0, 0, 0]	-999	PAL1	0	R1091N
2788.5	0.0	3318624	REC_START	n/a	n/a	3	-999	n/a	n/a	n/a	n/a	18	[0, 0, 0]	-999	PAL1	0	R1091N
2788.5	5.015	3318624	TEST_PROBE	n/a	wordpools/wordpool_EN.txt	3	5	BOWL	n/a	BOWL	SLEEVE	18	[0, 0, 0]	-999	PAL1	0	R1091N
2793.515	0.002	3323639	REC_EVENT	5015	n/a	3	5	BOWL	<>	BOWL	SLEEVE	18	[0, 0, 0]	-999	PAL1	0	R1091N
2793.517	0.017	3323641	REC_END	n/a	n/a	3	-999	n/a	n/a	n/a	n/a	18	[0, 0, 0]	-999	PAL1	0	R1091N
2793.534	0.816	3323658	TEST_ORIENT	n/a	n/a	4	6	FOG	n/a	FOG	BEAN	18	[0, 0, 0]	-999	PAL1	0	R1091N
2794.35	0.0	3324474	TEST_PROBE	n/a	wordpools/wordpool_EN.txt	4	6	FOG	n/a	FOG	BEAN	18	[0, 0, 0]	-999	PAL1	0	R1091N
2794.35	5.015	3324474	REC_START	n/a	n/a	4	-999	n/a	n/a	n/a	n/a	18	[0, 0, 0]	-999	PAL1	0	R1091N
2799.365	0.002	3329489	REC_EVENT	5015	n/a	4	6	FOG	<>	FOG	BEAN	18	[0, 0, 0]	-999	PAL1	0	R1091N
2799.367	1.586	3329491	REC_END	n/a	n/a	4	-999	n/a	n/a	n/a	n/a	18	[0, 0, 0]	-999	PAL1	0	R1091N
2800.953	10.451	3331076	ENCODING_START	n/a	n/a	0	-999	n/a	n/a	n/a	n/a	19	[0, 0, 0]	-999	PAL1	0	R1091N
2811.404	0.916	3341527	STUDY_ORIENT	n/a	n/a	1	3	CUP	n/a	STAR	CUP	19	[0, 0, 0]	-999	PAL1	0	R1091N
2812.32	5.034	3342443	STUDY_PAIR	n/a	wordpools/wordpool_EN.txt	1	3	CUP	n/a	STAR	CUP	19	[0, 0, 0]	-999	PAL1	0	R1091N
2817.354	1.017	3347477	STUDY_ORIENT	n/a	n/a	2	4	PLANT	n/a	TOE	PLANT	19	[0, 0, 0]	-999	PAL1	0	R1091N
2818.371	5.035	3348494	STUDY_PAIR	n/a	wordpools/wordpool_EN.txt	2	4	PLANT	n/a	TOE	PLANT	19	[0, 0, 0]	-999	PAL1	0	R1091N
2823.406	1.017	3353529	STUDY_ORIENT	n/a	n/a	3	1	COIN	n/a	JET	COIN	19	[0, 0, 0]	-999	PAL1	0	R1091N
2824.423	5.034	3354546	STUDY_PAIR	n/a	wordpools/wordpool_EN.txt	3	1	COIN	n/a	JET	COIN	19	[0, 0, 0]	-999	PAL1	0	R1091N
2829.457	0.866	3359579	STUDY_ORIENT	n/a	n/a	4	2	SEAT	n/a	SEAT	BEAK	19	[0, 0, 0]	-999	PAL1	0	R1091N
2830.323	5.034	3360445	STUDY_PAIR	n/a	wordpools/wordpool_EN.txt	4	2	SEAT	n/a	SEAT	BEAK	19	[0, 0, 0]	-999	PAL1	0	R1091N
2835.357	0.866	3365479	STUDY_ORIENT	n/a	n/a	5	5	BLUSH	n/a	LAMP	BLUSH	19	[0, 0, 0]	-999	PAL1	0	R1091N
2836.223	5.018	3366345	STUDY_PAIR	n/a	wordpools/wordpool_EN.txt	5	5	BLUSH	n/a	LAMP	BLUSH	19	[0, 0, 0]	-999	PAL1	0	R1091N
2841.241	1.0	3371363	STUDY_ORIENT	n/a	n/a	6	6	JAR	n/a	CHIEF	JAR	19	[0, 0, 0]	-999	PAL1	0	R1091N
2842.241	4.001	3372363	STUDY_PAIR	n/a	wordpools/wordpool_EN.txt	6	6	JAR	n/a	CHIEF	JAR	19	[0, 0, 0]	-999	PAL1	0	R1091N
2846.242	1.0	3376364	START	n/a	n/a	-999	-999	n/a	n/a	n/a	n/a	19	[-999, -999, -999]	-999	PAL1	0	R1091N
2847.242	0.017	3377364	MATH_START	n/a	n/a	-999	-999	n/a	n/a	n/a	n/a	19	[0, 0, 0]	-999	PAL1	0	R1091N
2847.259	8.535	3377381	PROB	8510	n/a	-999	-999	n/a	n/a	n/a	n/a	19	[6, 4, 1]	9	PAL1	0	R1091N
2855.794	4.567	3385915	PROB	4543	n/a	-999	-999	n/a	n/a	n/a	n/a	19	[4, 1, 1]	6	PAL1	0	R1091N
2860.361	7.664	3390482	PROB	7664	n/a	-999	-999	n/a	n/a	n/a	n/a	19	[8, 4, 4]	16	PAL1	0	R1091N
2868.025	0.004	3398146	STOP	n/a	n/a	-999	-999	n/a	n/a	n/a	n/a	19	[-999, -999, -999]	-999	PAL1	0	R1091N
2868.029	0.0	3398150	MATH_END	n/a	n/a	-999	-999	n/a	n/a	n/a	n/a	19	[0, 0, 0]	-999	PAL1	0	R1091N
2868.029	0.017	3398150	TEST_START	n/a	n/a	-999	-999	n/a	n/a	n/a	n/a	19	[0, 0, 0]	-999	PAL1	0	R1091N
2868.046	0.916	3398167	TEST_ORIENT	n/a	n/a	3	1	COIN	n/a	JET	COIN	19	[0, 0, 0]	-999	PAL1	0	R1091N
2868.962	0.001	3399083	TEST_PROBE	n/a	wordpools/wordpool_EN.txt	3	1	COIN	n/a	JET	COIN	19	[0, 0, 0]	-999	PAL1	0	R1091N
2868.963	5.009	3399084	REC_START	n/a	n/a	3	-999	n/a	n/a	n/a	n/a	19	[0, 0, 0]	-999	PAL1	0	R1091N
2873.972	0.0	3404093	REC_END	n/a	n/a	3	-999	n/a	n/a	n/a	n/a	19	[0, 0, 0]	-999	PAL1	0	R1091N
2873.972	0.008	3404093	REC_EVENT	5009	n/a	3	1	COIN	<>	JET	COIN	19	[0, 0, 0]	-999	PAL1	0	R1091N
2873.98	0.983	3404101	TEST_ORIENT	n/a	n/a	4	2	SEAT	n/a	SEAT	BEAK	19	[0, 0, 0]	-999	PAL1	0	R1091N
2874.963	0.001	3405084	TEST_PROBE	n/a	wordpools/wordpool_EN.txt	4	2	SEAT	n/a	SEAT	BEAK	19	[0, 0, 0]	-999	PAL1	0	R1091N
2874.964	3.242	3405085	REC_START	n/a	n/a	4	-999	n/a	n/a	n/a	n/a	19	[0, 0, 0]	-999	PAL1	0	R1091N
2878.206	1.767	3408327	REC_EVENT	3242	n/a	4	2	SEAT	<>	SEAT	BEAK	19	[0, 0, 0]	-999	PAL1	0	R1091N
2879.973	0.008	3410094	REC_END	n/a	n/a	4	-999	n/a	n/a	n/a	n/a	19	[0, 0, 0]	-999	PAL1	0	R1091N
2879.981	1.033	3410102	TEST_ORIENT	n/a	n/a	1	3	CUP	n/a	STAR	CUP	19	[0, 0, 0]	-999	PAL1	0	R1091N
2881.014	0.001	3411135	TEST_PROBE	n/a	wordpools/wordpool_EN.txt	1	3	CUP	n/a	STAR	CUP	19	[0, 0, 0]	-999	PAL1	0	R1091N
2881.015	5.009	3411136	REC_START	n/a	n/a	1	-999	n/a	n/a	n/a	n/a	19	[0, 0, 0]	-999	PAL1	0	R1091N
2886.024	0.0	3416144	REC_END	n/a	n/a	1	-999	n/a	n/a	n/a	n/a	19	[0, 0, 0]	-999	PAL1	0	R1091N
2886.024	0.008	3416144	REC_EVENT	5009	n/a	1	3	CUP	<>	STAR	CUP	19	[0, 0, 0]	-999	PAL1	0	R1091N
2886.032	0.833	3416152	TEST_ORIENT	n/a	n/a	2	4	PLANT	n/a	TOE	PLANT	19	[0, 0, 0]	-999	PAL1	0	R1091N
2886.865	0.001	3416985	TEST_PROBE	n/a	wordpools/wordpool_EN.txt	2	4	PLANT	n/a	TOE	PLANT	19	[0, 0, 0]	-999	PAL1	0	R1091N
2886.866	2.098	3416986	REC_START	n/a	n/a	2	-999	n/a	n/a	n/a	n/a	19	[0, 0, 0]	-999	PAL1	0	R1091N
