onset	duration	sample	trial_type	response_time	stim_file	serialpos	probepos	probe_word	resp_word	study_1	study_2	list	test	answer	experiment	session	subject
0.0	220.225	-1	INSTRUCT_START	n/a	n/a	-999	-999	n/a	n/a	n/a	n/a	-1	[0, 0, 0]	-999	PAL1	4	R1318N
220.225	3.534	106257	INSTRUCT_END	n/a	n/a	-999	-999	n/a	n/a	n/a	n/a	-1	[0, 0, 0]	-999	PAL1	4	R1318N
223.759	13.147	109791	MIC TEST_START	n/a	n/a	-999	-999	n/a	n/a	n/a	n/a	-1	[0, 0, 0]	-999	PAL1	4	R1318N
236.906	0.019	122939	MIC TEST_END	n/a	n/a	-999	-999	n/a	n/a	n/a	n/a	-1	[0, 0, 0]	-999	PAL1	4	R1318N
236.925	0.0	122958	TRIAL_START	n/a	n/a	-999	-999	n/a	n/a	n/a	n/a	-1	[0, 0, 0]	-999	PAL1	4	R1318N
236.925	0.001	122958	TRIAL	n/a	n/a	-999	-999	n/a	n/a	n/a	n/a	-1	[0, 0, 0]	-999	PAL1	4	R1318N
236.926	2.552	122959	WAITING_START	n/a	n/a	-999	-999	n/a	n/a	n/a	n/a	-1	[0, 0, 0]	-999	PAL1	4	R1318N
239.478	0.001	125511	WAITING_END	n/a	n/a	-999	-999	n/a	n/a	n/a	n/a	-1	[0, 0, 0]	-999	PAL1	4	R1318N
239.479	10.0	125512	COUNTDOWN_START	n/a	n/a	-999	-999	n/a	n/a	n/a	n/a	-1	[0, 0, 0]	-999	PAL1	4	R1318N
249.909	0.001	135942	COUNTDOWN_END	n/a	n/a	-999	-999	n/a	n/a	n/a	n/a	-1	[0, 0, 0]	-999	PAL1	4	R1318N
249.91	0.738	135943	ORIENT_START	n/a	n/a	-999	-999	n/a	n/a	n/a	n/a	-1	[0, 0, 0]	-999	PAL1	4	R1318N
250.648	0.0	136681	ORIENT_END	n/a	n/a	-999	-999	n/a	n/a	n/a	n/a	-1	[0, 0, 0]	-999	PAL1	4	R1318N
250.648	1.128	136681	ENCODING_START	n/a	n/a	-999	-999	n/a	n/a	n/a	n/a	-1	[0, 0, 0]	-999	PAL1	4	R1318N
251.776	4.0	137809	STUDY_PAIR	n/a	n/a	1	-999	n/a	RING	WAGON	RING	-1	[0, 0, 0]	-999	PAL1	4	R1318N
255.814	0.644	141847	STUDY_PAIR_OFF	n/a	n/a	1	-999	n/a	RING	WAGON	RING	-1	[0, 0, 0]	-999	PAL1	4	R1318N
256.458	4.0	142491	STUDY_PAIR	n/a	n/a	2	-999	n/a	BEAM	BEAM	WATCH	-1	[0, 0, 0]	-999	PAL1	4	R1318N
260.498	0.669	146532	STUDY_PAIR_OFF	n/a	n/a	2	-999	n/a	BEAM	BEAM	WATCH	-1	[0, 0, 0]	-999	PAL1	4	R1318N
261.167	4.0	147201	STUDY_PAIR	n/a	n/a	3	-999	n/a	CHEST	CHEST	TONGUE	-1	[0, 0, 0]	-999	PAL1	4	R1318N
265.199	0.738	151233	STUDY_PAIR_OFF	n/a	n/a	3	-999	n/a	CHEST	CHEST	TONGUE	-1	[0, 0, 0]	-999	PAL1	4	R1318N
265.937	4.0	151971	STUDY_PAIR	n/a	n/a	4	-999	n/a	COTTON	COTTON	FLOOD	-1	[0, 0, 0]	-999	PAL1	4	R1318N
269.966	0.683	156000	STUDY_PAIR_OFF	n/a	n/a	4	-999	n/a	COTTON	COTTON	FLOOD	-1	[0, 0, 0]	-999	PAL1	4	R1318N
270.649	4.0	156683	STUDY_PAIR	n/a	n/a	5	-999	n/a	BABY	IMAGE	BABY	-1	[0, 0, 0]	-999	PAL1	4	R1318N
274.668	0.75	160702	STUDY_PAIR_OFF	n/a	n/a	5	-999	n/a	BABY	IMAGE	BABY	-1	[0, 0, 0]	-999	PAL1	4	R1318N
275.418	4.0	161452	STUDY_PAIR	n/a	n/a	6	-999	n/a	RHINO	CAMEL	RHINO	-1	[0, 0, 0]	-999	PAL1	4	R1318N
279.452	0.0	165486	STUDY_PAIR_OFF	n/a	n/a	6	-999	n/a	RHINO	CAMEL	RHINO	-1	[0, 0, 0]	-999	PAL1	4	R1318N
279.452	0.0	165486	ENCODING_END	n/a	n/a	-999	-999	n/a	n/a	n/a	n/a	-1	[0, 0, 0]	-999	PAL1	4	R1318N
279.452	0.0	165486	MATH_START	n/a	n/a	-999	-999	n/a	n/a	n/a	n/a	-1	[0, 0, 0]	-999	PAL1	4	R1318N
279.452	0.016	165486	START	n/a	n/a	-999	-999	n/a	n/a	n/a	n/a	-1	[-999, -999, -999]	-999	PAL1	4	R1318N
279.468	2.834	165502	PROB	2.81	n/a	-999	-999	n/a	n/a	n/a	n/a	-1	[1, 8, 7]	16	PAL1	4	R1318N
282.302	3.017	168337	PROB	2.984	n/a	-999	-999	n/a	n/a	n/a	n/a	-1	[5, 7, 5]	17	PAL1	4	R1318N
285.319	2.834	171354	PROB	2.799	n/a	-999	-999	n/a	n/a	n/a	n/a	-1	[7, 3, 6]	16	PAL1	4	R1318N
288.153	3.501	174188	PROB	3.47	n/a	-999	-999	n/a	n/a	n/a	n/a	-1	[7, 8, 4]	19	PAL1	4	R1318N
291.654	4.617	177689	PROB	4.576	n/a	-999	-999	n/a	n/a	n/a	n/a	-1	[3, 2, 4]	9	PAL1	4	R1318N
296.271	3.735	182306	PROB	3.735	n/a	-999	-999	n/a	n/a	n/a	n/a	-1	[3, 4, 1]	8	PAL1	4	R1318N
300.006	0.016	186041	STOP	n/a	n/a	-999	-999	n/a	n/a	n/a	n/a	-1	[-999, -999, -999]	-999	PAL1	4	R1318N
300.022	0.577	186057	MATH_END	n/a	n/a	-999	-999	n/a	n/a	n/a	n/a	-1	[0, 0, 0]	-999	PAL1	4	R1318N
300.599	0.002	186634	RETRIEVAL_START	n/a	n/a	-999	-999	n/a	n/a	n/a	n/a	-1	[0, 0, 0]	-999	PAL1	4	R1318N
300.601	0.271	186636	ORIENT_START	n/a	n/a	-999	-999	n/a	n/a	n/a	n/a	-1	[0, 0, 0]	-999	PAL1	4	R1318N
300.872	0.52	186907	ORIENT_END	n/a	n/a	-999	-999	n/a	n/a	n/a	n/a	-1	[0, 0, 0]	-999	PAL1	4	R1318N
301.392	0.001	187427	REC_START	n/a	n/a	1	1	WAGON	RING	WAGON	RING	-1	[0, 0, 0]	-999	PAL1	4	R1318N
301.393	4.0	187428	PROBE_START	n/a	n/a	1	1	WAGON	RING	WAGON	RING	-1	[0, 0, 0]	-999	PAL1	4	R1318N
302.878	2.544	188913	REC_EVENT	1.485	n/a	1	1	WAGON	RING	WAGON	RING	-1	[0, 0, 0]	-999	PAL1	4	R1318N
305.422	1.001	191458	PROBE_END	n/a	n/a	1	1	WAGON	n/a	WAGON	RING	-1	[0, 0, 0]	-999	PAL1	4	R1318N
306.423	0.01	192459	REC_END	n/a	n/a	1	1	WAGON	n/a	WAGON	RING	-1	[0, 0, 0]	-999	PAL1	4	R1318N
306.433	0.273	192469	ORIENT_START	n/a	n/a	-999	-999	n/a	n/a	n/a	n/a	-1	[0, 0, 0]	-999	PAL1	4	R1318N
306.706	0.67	192742	ORIENT_END	n/a	n/a	-999	-999	n/a	n/a	n/a	n/a	-1	[0, 0, 0]	-999	PAL1	4	R1318N
307.376	0.0	193412	REC_START	n/a	n/a	4	2	FLOOD	COTTON	COTTON	FLOOD	-1	[0, 0, 0]	-999	PAL1	4	R1318N
307.376	4.0	193412	PROBE_START	n/a	n/a	4	2	FLOOD	COTTON	COTTON	FLOOD	-1	[0, 0, 0]	-999	PAL1	4	R1318N
310.268	1.139	196304	REC_EVENT	2.892	n/a	4	2	FLOOD	COTTON	COTTON	FLOOD	-1	[0, 0, 0]	-999	PAL1	4	R1318N
311.407	1.0	197443	PROBE_END	n/a	n/a	4	2	FLOOD	n/a	COTTON	FLOOD	-1	[0, 0, 0]	-999	PAL1	4	R1318N
312.407	0.013	198443	REC_END	n/a	n/a	4	2	FLOOD	n/a	COTTON	FLOOD	-1	[0, 0, 0]	-999	PAL1	4	R1318N
312.42	0.27	198456	ORIENT_START	n/a	n/a	-999	-999	n/a	n/a	n/a	n/a	-1	[0, 0, 0]	-999	PAL1	4	R1318N
312.69	0.616	198726	ORIENT_END	n/a	n/a	-999	-999	n/a	n/a	n/a	n/a	-1	[0, 0, 0]	-999	PAL1	4	R1318N
313.306	0.0	199342	REC_START	n/a	n/a	5	3	IMAGE	BABY	IMAGE	BABY	-1	[0, 0, 0]	-999	PAL1	4	R1318N
313.306	4.0	199342	PROBE_START	n/a	n/a	5	3	IMAGE	BABY	IMAGE	BABY	-1	[0, 0, 0]	-999	PAL1	4	R1318N
315.108	2.233	201144	REC_EVENT	1.802	n/a	5	3	IMAGE	BABY	IMAGE	BABY	-1	[0, 0, 0]	-999	PAL1	4	R1318N
317.341	1.001	203377	PROBE_END	n/a	n/a	5	3	IMAGE	n/a	IMAGE	BABY	-1	[0, 0, 0]	-999	PAL1	4	R1318N
318.342	0.011	204378	REC_END	n/a	n/a	5	3	IMAGE	n/a	IMAGE	BABY	-1	[0, 0, 0]	-999	PAL1	4	R1318N
318.353	0.273	204389	ORIENT_START	n/a	n/a	-999	-999	n/a	n/a	n/a	n/a	-1	[0, 0, 0]	-999	PAL1	4	R1318N
318.626	0.648	204662	ORIENT_END	n/a	n/a	-999	-999	n/a	n/a	n/a	n/a	-1	[0, 0, 0]	-999	PAL1	4	R1318N
319.274	0.0	205310	REC_START	n/a	n/a	6	4	CAMEL	RHINO	CAMEL	RHINO	-1	[0, 0, 0]	-999	PAL1	4	R1318N
319.274	4.0	205310	PROBE_START	n/a	n/a	6	4	CAMEL	RHINO	CAMEL	RHINO	-1	[0, 0, 0]	-999	PAL1	4	R1318N
320.96	2.349	206996	REC_EVENT	1.686	n/a	6	4	CAMEL	RHINO	CAMEL	RHINO	-1	[0, 0, 0]	-999	PAL1	4	R1318N
323.309	1.0	209345	PROBE_END	n/a	n/a	6	4	CAMEL	n/a	CAMEL	RHINO	-1	[0, 0, 0]	-999	PAL1	4	R1318N
324.309	0.012	210345	REC_END	n/a	n/a	6	4	CAMEL	n/a	CAMEL	RHINO	-1	[0, 0, 0]	-999	PAL1	4	R1318N
324.321	0.271	210357	ORIENT_START	n/a	n/a	-999	-999	n/a	n/a	n/a	n/a	-1	[0, 0, 0]	-999	PAL1	4	R1318N
324.592	0.599	210628	ORIENT_END	n/a	n/a	-999	-999	n/a	n/a	n/a	n/a	-1	[0, 0, 0]	-999	PAL1	4	R1318N
325.191	0.0	211227	REC_START	n/a	n/a	3	5	TONGUE	CHEST	CHEST	TONGUE	-1	[0, 0, 0]	-999	PAL1	4	R1318N
325.191	4.0	211227	PROBE_START	n/a	n/a	3	5	TONGUE	CHEST	CHEST	TONGUE	-1	[0, 0, 0]	-999	PAL1	4	R1318N
326.761	2.465	212797	REC_EVENT	1.57	n/a	3	5	TONGUE	CHEST	CHEST	TONGUE	-1	[0, 0, 0]	-999	PAL1	4	R1318N
329.226	1.0	215263	PROBE_END	n/a	n/a	3	5	TONGUE	n/a	CHEST	TONGUE	-1	[0, 0, 0]	-999	PAL1	4	R1318N
330.226	0.012	216263	REC_END	n/a	n/a	3	5	TONGUE	n/a	CHEST	TONGUE	-1	[0, 0, 0]	-999	PAL1	4	R1318N
330.238	0.272	216275	ORIENT_START	n/a	n/a	-999	-999	n/a	n/a	n/a	n/a	-1	[0, 0, 0]	-999	PAL1	4	R1318N
330.51	0.578	216547	ORIENT_END	n/a	n/a	-999	-999	n/a	n/a	n/a	n/a	-1	[0, 0, 0]	-999	PAL1	4	R1318N
331.088	0.0	217125	REC_START	n/a	n/a	2	6	WATCH	BEAM	BEAM	WATCH	-1	[0, 0, 0]	-999	PAL1	4	R1318N
331.088	4.0	217125	PROBE_START	n/a	n/a	2	6	WATCH	BEAM	BEAM	WATCH	-1	[0, 0, 0]	-999	PAL1	4	R1318N
332.697	2.43	218734	REC_EVENT	1.609	n/a	2	6	WATCH	BEAM	BEAM	WATCH	-1	[0, 0, 0]	-999	PAL1	4	R1318N
335.127	1.001	221164	PROBE_END	n/a	n/a	2	6	WATCH	n/a	BEAM	WATCH	-1	[0, 0, 0]	-999	PAL1	4	R1318N
336.128	0.011	222165	REC_END	n/a	n/a	2	6	WATCH	n/a	BEAM	WATCH	-1	[0, 0, 0]	-999	PAL1	4	R1318N
336.139	0.0	222176	RETRIEVAL_END	n/a	n/a	-999	-999	n/a	n/a	n/a	n/a	-1	[0, 0, 0]	-999	PAL1	4	R1318N
336.139	5.29	222176	PRACTICE_POST_INSTRUCT_START	n/a	n/a	-999	-999	n/a	n/a	n/a	n/a	-1	[0, 0, 0]	-999	PAL1	4	R1318N
341.429	0.001	227466	PRACTICE_POST_INSTRUCT_END	n/a	n/a	-999	-999	n/a	n/a	n/a	n/a	-1	[0, 0, 0]	-999	PAL1	4	R1318N
341.43	0.021	227467	TRIAL_END	n/a	n/a	-999	-999	n/a	n/a	n/a	n/a	-1	[0, 0, 0]	-999	PAL1	4	R1318N
341.451	0.001	227488	TRIAL_START	n/a	n/a	-999	-999	n/a	n/a	n/a	n/a	-1	[0, 0, 0]	-999	PAL1	4	R1318N
341.452	0.0	227489	TRIAL	n/a	n/a	-999	-999	n/a	n/a	n/a	n/a	1	[0, 0, 0]	-999	PAL1	4	R1318N
341.452	1.477	227489	WAITING_START	n/a	n/a	-999	-999	n/a	n/a	n/a	n/a	1	[0, 0, 0]	-999	PAL1	4	R1318N
342.929	0.0	228966	WAITING_END	n/a	n/a	-999	-999	n/a	n/a	n/a	n/a	1	[0, 0, 0]	-999	PAL1	4	R1318N
342.929	10.0	228966	COUNTDOWN_START	n/a	n/a	-999	-999	n/a	n/a	n/a	n/a	1	[0, 0, 0]	-999	PAL1	4	R1318N
353.36	0.0	239398	COUNTDOWN_END	n/a	n/a	-999	-999	n/a	n/a	n/a	n/a	1	[0, 0, 0]	-999	PAL1	4	R1318N
353.36	0.571	239398	ORIENT_START	n/a	n/a	-999	-999	n/a	n/a	n/a	n/a	1	[0, 0, 0]	-999	PAL1	4	R1318N
353.931	0.0	239969	ENCODING_START	n/a	n/a	-999	-999	n/a	n/a	n/a	n/a	1	[0, 0, 0]	-999	PAL1	4	R1318N
353.931	1.233	239969	ORIENT_END	n/a	n/a	-999	-999	n/a	n/a	n/a	n/a	1	[0, 0, 0]	-999	PAL1	4	R1318N
355.164	4.0	241202	STUDY_PAIR	n/a	wordpools/wordpool_EN.txt	1	-999	n/a	CHIN	CHIN	TEETH	1	[0, 0, 0]	-999	PAL1	4	R1318N
359.198	0.681	245236	STUDY_PAIR_OFF	n/a	n/a	1	-999	n/a	CHIN	CHIN	TEETH	1	[0, 0, 0]	-999	PAL1	4	R1318N
359.879	4.0	245917	STUDY_PAIR	n/a	wordpools/wordpool_EN.txt	2	-999	n/a	SOW	CLOTH	SAIL	1	[0, 0, 0]	-999	PAL1	4	R1318N
363.915	0.729	249953	STUDY_PAIR_OFF	n/a	n/a	2	-999	n/a	SOW	CLOTH	SAIL	1	[0, 0, 0]	-999	PAL1	4	R1318N
364.644	4.0	250682	STUDY_PAIR	n/a	wordpools/wordpool_EN.txt	3	-999	n/a	WEED	WEED	HOOK	1	[0, 0, 0]	-999	PAL1	4	R1318N
368.684	0.654	254722	STUDY_PAIR_OFF	n/a	n/a	3	-999	n/a	WEED	WEED	HOOK	1	[0, 0, 0]	-999	PAL1	4	R1318N
369.338	4.0	255376	STUDY_PAIR	n/a	wordpools/wordpool_EN.txt	4	-999	n/a	JUDGE	ARM	JUDGE	1	[0, 0, 0]	-999	PAL1	4	R1318N
373.367	0.595	259405	STUDY_PAIR_OFF	n/a	n/a	4	-999	n/a	JUDGE	ARM	JUDGE	1	[0, 0, 0]	-999	PAL1	4	R1318N
373.962	4.0	260000	STUDY_PAIR	n/a	wordpools/wordpool_EN.txt	5	-999	n/a	ROOM	SPRING	ROOM	1	[0, 0, 0]	-999	PAL1	4	R1318N
378.001	0.56	264040	STUDY_PAIR_OFF	n/a	n/a	5	-999	n/a	ROOM	SPRING	ROOM	1	[0, 0, 0]	-999	PAL1	4	R1318N
378.561	4.0	264600	STUDY_PAIR	n/a	wordpools/wordpool_EN.txt	6	-999	n/a	PIT	PIT	BEAR	1	[0, 0, 0]	-999	PAL1	4	R1318N
382.585	0.001	268624	STUDY_PAIR_OFF	n/a	n/a	6	-999	n/a	PIT	PIT	BEAR	1	[0, 0, 0]	-999	PAL1	4	R1318N
382.586	0.0	268625	MATH_START	n/a	n/a	-999	-999	n/a	n/a	n/a	n/a	1	[0, 0, 0]	-999	PAL1	4	R1318N
382.586	0.0	268625	ENCODING_END	n/a	n/a	-999	-999	n/a	n/a	n/a	n/a	1	[0, 0, 0]	-999	PAL1	4	R1318N
382.586	0.017	268625	START	n/a	n/a	-999	-999	n/a	n/a	n/a	n/a	1	[-999, -999, -999]	-999	PAL1	4	R1318N
382.603	3.316	268642	PROB	3.291	n/a	-999	-999	n/a	n/a	n/a	n/a	1	[5, 3, 4]	12	PAL1	4	R1318N
385.919	3.634	271958	PROB	3.607	n/a	-999	-999	n/a	n/a	n/a	n/a	1	[4, 7, 8]	19	PAL1	4	R1318N
389.553	2.183	275592	PROB	2.149	n/a	-999	-999	n/a	n/a	n/a	n/a	1	[5, 6, 5]	16	PAL1	4	R1318N
391.736	5.518	277775	PROB	5.486	n/a	-999	-999	n/a	n/a	n/a	n/a	1	[7, 5, 1]	13	PAL1	4	R1318N
397.254	2.467	283293	PROB	2.433	n/a	-999	-999	n/a	n/a	n/a	n/a	1	[4, 1, 4]	9	PAL1	4	R1318N
399.721	5.373	285761	PROB	5.373	n/a	-999	-999	n/a	n/a	n/a	n/a	1	[7, 1, 3]	11	PAL1	4	R1318N
405.094	0.012	291134	STOP	n/a	n/a	-999	-999	n/a	n/a	n/a	n/a	1	[-999, -999, -999]	-999	PAL1	4	R1318N
405.106	0.555	291146	MATH_END	n/a	n/a	-999	-999	n/a	n/a	n/a	n/a	1	[0, 0, 0]	-999	PAL1	4	R1318N
405.661	0.002	291701	RETRIEVAL_START	n/a	n/a	-999	-999	n/a	n/a	n/a	n/a	1	[0, 0, 0]	-999	PAL1	4	R1318N
405.663	0.276	291703	ORIENT_START	n/a	n/a	-999	-999	n/a	n/a	n/a	n/a	1	[0, 0, 0]	-999	PAL1	4	R1318N
405.939	0.691	291979	ORIENT_END	n/a	n/a	-999	-999	n/a	n/a	n/a	n/a	1	[0, 0, 0]	-999	PAL1	4	R1318N
406.63	0.0	292670	REC_START	n/a	n/a	5	1	SPRING	ROOM	SPRING	ROOM	1	[0, 0, 0]	-999	PAL1	4	R1318N
406.63	4.0	292670	PROBE_START	n/a	wordpools/wordpool_EN.txt	5	1	SPRING	ROOM	SPRING	ROOM	1	[0, 0, 0]	-999	PAL1	4	R1318N
408.423	2.234	294463	REC_EVENT	1.793	n/a	5	1	SPRING	ROOM	SPRING	ROOM	1	[0, 0, 0]	-999	PAL1	4	R1318N
410.657	1.0	296697	PROBE_END	n/a	n/a	5	1	SPRING	n/a	SPRING	ROOM	1	[0, 0, 0]	-999	PAL1	4	R1318N
411.657	0.014	297697	REC_END	n/a	n/a	5	1	SPRING	n/a	SPRING	ROOM	1	[0, 0, 0]	-999	PAL1	4	R1318N
411.671	0.269	297711	ORIENT_START	n/a	n/a	-999	-999	n/a	n/a	n/a	n/a	1	[0, 0, 0]	-999	PAL1	4	R1318N
411.94	0.592	297980	ORIENT_END	n/a	n/a	-999	-999	n/a	n/a	n/a	n/a	1	[0, 0, 0]	-999	PAL1	4	R1318N
412.532	0.0	298572	REC_START	n/a	n/a	4	2	ARM	JUDGE	ARM	JUDGE	1	[0, 0, 0]	-999	PAL1	4	R1318N
412.532	4.0	298572	PROBE_START	n/a	wordpools/wordpool_EN.txt	4	2	ARM	JUDGE	ARM	JUDGE	1	[0, 0, 0]	-999	PAL1	4	R1318N
414.123	2.434	300163	REC_EVENT	1.591	n/a	4	2	ARM	JUDGE	ARM	JUDGE	1	[0, 0, 0]	-999	PAL1	4	R1318N
416.557	1.0	302597	PROBE_END	n/a	n/a	4	2	ARM	n/a	ARM	JUDGE	1	[0, 0, 0]	-999	PAL1	4	R1318N
417.557	0.011	303597	REC_END	n/a	n/a	4	2	ARM	n/a	ARM	JUDGE	1	[0, 0, 0]	-999	PAL1	4	R1318N
417.568	0.273	303608	ORIENT_START	n/a	n/a	-999	-999	n/a	n/a	n/a	n/a	1	[0, 0, 0]	-999	PAL1	4	R1318N
417.841	0.574	303881	ORIENT_END	n/a	n/a	-999	-999	n/a	n/a	n/a	n/a	1	[0, 0, 0]	-999	PAL1	4	R1318N
418.415	0.001	304455	REC_START	n/a	n/a	3	3	HOOK	WEED	WEED	HOOK	1	[0, 0, 0]	-999	PAL1	4	R1318N
418.416	4.0	304456	PROBE_START	n/a	wordpools/wordpool_EN.txt	3	3	HOOK	WEED	WEED	HOOK	1	[0, 0, 0]	-999	PAL1	4	R1318N
420.018	2.424	306058	REC_EVENT	1.602	n/a	3	3	HOOK	WEED	WEED	HOOK	1	[0, 0, 0]	-999	PAL1	4	R1318N
422.442	1.0	308483	PROBE_END	n/a	n/a	3	3	HOOK	n/a	WEED	HOOK	1	[0, 0, 0]	-999	PAL1	4	R1318N
423.442	0.011	309483	REC_END	n/a	n/a	3	3	HOOK	n/a	WEED	HOOK	1	[0, 0, 0]	-999	PAL1	4	R1318N
423.453	0.272	309494	ORIENT_START	n/a	n/a	-999	-999	n/a	n/a	n/a	n/a	1	[0, 0, 0]	-999	PAL1	4	R1318N
423.725	0.545	309766	ORIENT_END	n/a	n/a	-999	-999	n/a	n/a	n/a	n/a	1	[0, 0, 0]	-999	PAL1	4	R1318N
424.27	0.0	310311	REC_START	n/a	n/a	6	4	BEAR	PIT	PIT	BEAR	1	[0, 0, 0]	-999	PAL1	4	R1318N
424.27	4.0	310311	PROBE_START	n/a	wordpools/wordpool_EN.txt	6	4	BEAR	PIT	PIT	BEAR	1	[0, 0, 0]	-999	PAL1	4	R1318N
425.825	2.468	311866	REC_EVENT	1.555	n/a	6	4	BEAR	PIT	PIT	BEAR	1	[0, 0, 0]	-999	PAL1	4	R1318N
428.293	0.999	314334	PROBE_END	n/a	n/a	6	4	BEAR	n/a	PIT	BEAR	1	[0, 0, 0]	-999	PAL1	4	R1318N
429.292	0.011	315333	REC_END	n/a	n/a	6	4	BEAR	n/a	PIT	BEAR	1	[0, 0, 0]	-999	PAL1	4	R1318N
429.303	0.273	315344	ORIENT_START	n/a	n/a	-999	-999	n/a	n/a	n/a	n/a	1	[0, 0, 0]	-999	PAL1	4	R1318N
429.576	0.667	315617	ORIENT_END	n/a	n/a	-999	-999	n/a	n/a	n/a	n/a	1	[0, 0, 0]	-999	PAL1	4	R1318N
430.243	0.001	316284	REC_START	n/a	n/a	1	5	TEETH	CHIN	CHIN	TEETH	1	[0, 0, 0]	-999	PAL1	4	R1318N
430.244	4.0	316285	PROBE_START	n/a	wordpools/wordpool_EN.txt	1	5	TEETH	CHIN	CHIN	TEETH	1	[0, 0, 0]	-999	PAL1	4	R1318N
432.135	2.142	318176	REC_EVENT	1.891	n/a	1	5	TEETH	CHIN	CHIN	TEETH	1	[0, 0, 0]	-999	PAL1	4	R1318N
434.277	1.0	320318	PROBE_END	n/a	n/a	1	5	TEETH	n/a	CHIN	TEETH	1	[0, 0, 0]	-999	PAL1	4	R1318N
435.277	0.011	321318	REC_END	n/a	n/a	1	5	TEETH	n/a	CHIN	TEETH	1	[0, 0, 0]	-999	PAL1	4	R1318N
435.288	0.273	321329	ORIENT_START	n/a	n/a	-999	-999	n/a	n/a	n/a	n/a	1	[0, 0, 0]	-999	PAL1	4	R1318N
435.561	0.594	321602	ORIENT_END	n/a	n/a	-999	-999	n/a	n/a	n/a	n/a	1	[0, 0, 0]	-999	PAL1	4	R1318N
436.155	0.0	322196	REC_START	n/a	n/a	2	6	CLOTH	SOW	CLOTH	SAIL	1	[0, 0, 0]	-999	PAL1	4	R1318N
436.155	4.0	322196	PROBE_START	n/a	wordpools/wordpool_EN.txt	2	6	CLOTH	SOW	CLOTH	SAIL	1	[0, 0, 0]	-999	PAL1	4	R1318N
437.683	2.495	323724	REC_EVENT	1.528	n/a	2	6	CLOTH	SOW	CLOTH	SAIL	1	[0, 0, 0]	-999	PAL1	4	R1318N
440.178	1.0	326219	PROBE_END	n/a	n/a	2	6	CLOTH	n/a	CLOTH	SAIL	1	[0, 0, 0]	-999	PAL1	4	R1318N
441.178	0.01	327219	REC_END	n/a	n/a	2	6	CLOTH	n/a	CLOTH	SAIL	1	[0, 0, 0]	-999	PAL1	4	R1318N
441.188	0.001	327229	RETRIEVAL_END	n/a	n/a	-999	-999	n/a	n/a	n/a	n/a	1	[0, 0, 0]	-999	PAL1	4	R1318N
441.189	0.023	327230	TRIAL_END	n/a	n/a	-999	-999	n/a	n/a	n/a	n/a	1	[0, 0, 0]	-999	PAL1	4	R1318N
441.212	0.0	327253	TRIAL_START	n/a	n/a	-999	-999	n/a	n/a	n/a	n/a	1	[0, 0, 0]	-999	PAL1	4	R1318N
441.212	0.0	327253	TRIAL	n/a	n/a	-999	-999	n/a	n/a	n/a	n/a	2	[0, 0, 0]	-999	PAL1	4	R1318N
441.212	1.133	327253	WAITING_START	n/a	n/a	-999	-999	n/a	n/a	n/a	n/a	2	[0, 0, 0]	-999	PAL1	4	R1318N
442.345	0.001	328386	WAITING_END	n/a	n/a	-999	-999	n/a	n/a	n/a	n/a	2	[0, 0, 0]	-999	PAL1	4	R1318N
442.346	10.0	328387	COUNTDOWN_START	n/a	n/a	-999	-999	n/a	n/a	n/a	n/a	2	[0, 0, 0]	-999	PAL1	4	R1318N
452.775	0.0	338817	COUNTDOWN_END	n/a	n/a	-999	-999	n/a	n/a	n/a	n/a	2	[0, 0, 0]	-999	PAL1	4	R1318N
452.775	0.555	338817	ORIENT_START	n/a	n/a	-999	-999	n/a	n/a	n/a	n/a	2	[0, 0, 0]	-999	PAL1	4	R1318N
453.33	0.001	339372	ORIENT_END	n/a	n/a	-999	-999	n/a	n/a	n/a	n/a	2	[0, 0, 0]	-999	PAL1	4	R1318N
453.331	1.093	339373	ENCODING_START	n/a	n/a	-999	-999	n/a	n/a	n/a	n/a	2	[0, 0, 0]	-999	PAL1	4	R1318N
454.424	4.0	340466	STUDY_PAIR	n/a	wordpools/wordpool_EN.txt	1	-999	n/a	TAIL	TOE	TAIL	2	[0, 0, 0]	-999	PAL1	4	R1318N
458.448	0.518	344490	STUDY_PAIR_OFF	n/a	n/a	1	-999	n/a	TAIL	TOE	TAIL	2	[0, 0, 0]	-999	PAL1	4	R1318N
458.966	4.0	345008	STUDY_PAIR	n/a	wordpools/wordpool_EN.txt	2	-999	n/a	WEAVE	VINE	WAVE	2	[0, 0, 0]	-999	PAL1	4	R1318N
462.998	0.675	349040	STUDY_PAIR_OFF	n/a	n/a	2	-999	n/a	WEAVE	VINE	WAVE	2	[0, 0, 0]	-999	PAL1	4	R1318N
463.673	4.0	349715	STUDY_PAIR	n/a	wordpools/wordpool_EN.txt	3	-999	n/a	TOAD	PURSE	TOAD	2	[0, 0, 0]	-999	PAL1	4	R1318N
467.699	0.663	353742	STUDY_PAIR_OFF	n/a	n/a	3	-999	n/a	TOAD	PURSE	TOAD	2	[0, 0, 0]	-999	PAL1	4	R1318N
468.362	4.0	354405	STUDY_PAIR	n/a	wordpools/wordpool_EN.txt	4	-999	n/a	PILL	HILL	BIRD	2	[0, 0, 0]	-999	PAL1	4	R1318N
472.383	0.577	358426	STUDY_PAIR_OFF	n/a	n/a	4	-999	n/a	PILL	HILL	BIRD	2	[0, 0, 0]	-999	PAL1	4	R1318N
472.96	4.0	359003	STUDY_PAIR	n/a	wordpools/wordpool_EN.txt	5	-999	n/a	THREAD	THREAD	FAN	2	[0, 0, 0]	-999	PAL1	4	R1318N
476.984	0.614	363027	STUDY_PAIR_OFF	n/a	n/a	5	-999	n/a	THREAD	THREAD	FAN	2	[0, 0, 0]	-999	PAL1	4	R1318N
477.598	4.0	363641	STUDY_PAIR	n/a	wordpools/wordpool_EN.txt	6	-999	n/a	ICE	ICE	DUCK	2	[0, 0, 0]	-999	PAL1	4	R1318N
481.636	0.0	367679	STUDY_PAIR_OFF	n/a	n/a	6	-999	n/a	ICE	ICE	DUCK	2	[0, 0, 0]	-999	PAL1	4	R1318N
481.636	0.0	367679	ENCODING_END	n/a	n/a	-999	-999	n/a	n/a	n/a	n/a	2	[0, 0, 0]	-999	PAL1	4	R1318N
481.636	0.001	367679	MATH_START	n/a	n/a	-999	-999	n/a	n/a	n/a	n/a	2	[0, 0, 0]	-999	PAL1	4	R1318N
481.637	0.015	367680	START	n/a	n/a	-999	-999	n/a	n/a	n/a	n/a	2	[-999, -999, -999]	-999	PAL1	4	R1318N
481.652	2.533	367695	PROB	2.498	n/a	-999	-999	n/a	n/a	n/a	n/a	2	[2, 6, 6]	14	PAL1	4	R1318N
484.185	2.017	370228	PROB	1.98	n/a	-999	-999	n/a	n/a	n/a	n/a	2	[1, 4, 3]	8	PAL1	4	R1318N
486.202	2.435	372245	PROB	2.396	n/a	-999	-999	n/a	n/a	n/a	n/a	2	[9, 1, 3]	13	PAL1	4	R1318N
488.637	3.316	374680	PROB	3.288	n/a	-999	-999	n/a	n/a	n/a	n/a	2	[6, 3, 3]	12	PAL1	4	R1318N
491.953	2.2	377997	PROB	2.165	n/a	-999	-999	n/a	n/a	n/a	n/a	2	[1, 9, 1]	11	PAL1	4	R1318N
494.153	4.751	380197	PROB	4.716	n/a	-999	-999	n/a	n/a	n/a	n/a	2	[4, 5, 6]	15	PAL1	4	R1318N
498.904	4.11	384948	PROB	4.11	n/a	-999	-999	n/a	n/a	n/a	n/a	2	[3, 8, 3]	14	PAL1	4	R1318N
503.014	0.008	389058	STOP	n/a	n/a	-999	-999	n/a	n/a	n/a	n/a	2	[-999, -999, -999]	-999	PAL1	4	R1318N
503.022	0.602	389066	MATH_END	n/a	n/a	-999	-999	n/a	n/a	n/a	n/a	2	[0, 0, 0]	-999	PAL1	4	R1318N
503.624	0.001	389668	RETRIEVAL_START	n/a	n/a	-999	-999	n/a	n/a	n/a	n/a	2	[0, 0, 0]	-999	PAL1	4	R1318N
503.625	0.28	389669	ORIENT_START	n/a	n/a	-999	-999	n/a	n/a	n/a	n/a	2	[0, 0, 0]	-999	PAL1	4	R1318N
503.905	0.649	389949	ORIENT_END	n/a	n/a	-999	-999	n/a	n/a	n/a	n/a	2	[0, 0, 0]	-999	PAL1	4	R1318N
504.554	0.0	390598	REC_START	n/a	n/a	5	1	FAN	THREAD	THREAD	FAN	2	[0, 0, 0]	-999	PAL1	4	R1318N
504.554	4.0	390598	PROBE_START	n/a	wordpools/wordpool_EN.txt	5	1	FAN	THREAD	THREAD	FAN	2	[0, 0, 0]	-999	PAL1	4	R1318N
506.344	2.245	392388	REC_EVENT	1.79	n/a	5	1	FAN	THREAD	THREAD	FAN	2	[0, 0, 0]	-999	PAL1	4	R1318N
508.589	1.001	394633	PROBE_END	n/a	n/a	5	1	FAN	n/a	THREAD	FAN	2	[0, 0, 0]	-999	PAL1	4	R1318N
509.59	0.012	395634	REC_END	n/a	n/a	5	1	FAN	n/a	THREAD	FAN	2	[0, 0, 0]	-999	PAL1	4	R1318N
509.602	0.271	395646	ORIENT_START	n/a	n/a	-999	-999	n/a	n/a	n/a	n/a	2	[0, 0, 0]	-999	PAL1	4	R1318N
509.873	0.749	395917	ORIENT_END	n/a	n/a	-999	-999	n/a	n/a	n/a	n/a	2	[0, 0, 0]	-999	PAL1	4	R1318N
510.622	0.0	396666	REC_START	n/a	n/a	4	2	BIRD	PILL	HILL	BIRD	2	[0, 0, 0]	-999	PAL1	4	R1318N
510.622	4.0	396666	PROBE_START	n/a	wordpools/wordpool_EN.txt	4	2	BIRD	PILL	HILL	BIRD	2	[0, 0, 0]	-999	PAL1	4	R1318N
512.423	2.235	398467	REC_EVENT	1.801	n/a	4	2	BIRD	PILL	HILL	BIRD	2	[0, 0, 0]	-999	PAL1	4	R1318N
514.658	1.001	400703	PROBE_END	n/a	n/a	4	2	BIRD	n/a	HILL	BIRD	2	[0, 0, 0]	-999	PAL1	4	R1318N
515.659	0.007	401704	REC_END	n/a	n/a	4	2	BIRD	n/a	HILL	BIRD	2	[0, 0, 0]	-999	PAL1	4	R1318N
515.666	0.274	401711	ORIENT_START	n/a	n/a	-999	-999	n/a	n/a	n/a	n/a	2	[0, 0, 0]	-999	PAL1	4	R1318N
515.94	0.613	401985	ORIENT_END	n/a	n/a	-999	-999	n/a	n/a	n/a	n/a	2	[0, 0, 0]	-999	PAL1	4	R1318N
516.553	0.0	402598	REC_START	n/a	n/a	3	3	PURSE	TOAD	PURSE	TOAD	2	[0, 0, 0]	-999	PAL1	4	R1318N
516.553	4.0	402598	PROBE_START	n/a	wordpools/wordpool_EN.txt	3	3	PURSE	TOAD	PURSE	TOAD	2	[0, 0, 0]	-999	PAL1	4	R1318N
518.297	2.294	404342	REC_EVENT	1.744	n/a	3	3	PURSE	TOAD	PURSE	TOAD	2	[0, 0, 0]	-999	PAL1	4	R1318N
520.591	1.001	406636	PROBE_END	n/a	n/a	3	3	PURSE	n/a	PURSE	TOAD	2	[0, 0, 0]	-999	PAL1	4	R1318N
521.592	0.013	407637	REC_END	n/a	n/a	3	3	PURSE	n/a	PURSE	TOAD	2	[0, 0, 0]	-999	PAL1	4	R1318N
521.605	0.27	407650	ORIENT_START	n/a	n/a	-999	-999	n/a	n/a	n/a	n/a	2	[0, 0, 0]	-999	PAL1	4	R1318N
521.875	0.741	407920	ORIENT_END	n/a	n/a	-999	-999	n/a	n/a	n/a	n/a	2	[0, 0, 0]	-999	PAL1	4	R1318N
522.616	0.0	408661	REC_START	n/a	n/a	6	4	DUCK	ICE	ICE	DUCK	2	[0, 0, 0]	-999	PAL1	4	R1318N
522.616	4.0	408661	PROBE_START	n/a	wordpools/wordpool_EN.txt	6	4	DUCK	ICE	ICE	DUCK	2	[0, 0, 0]	-999	PAL1	4	R1318N
524.388	2.255	410433	REC_EVENT	1.772	n/a	6	4	DUCK	ICE	ICE	DUCK	2	[0, 0, 0]	-999	PAL1	4	R1318N
526.643	1.0	412688	PROBE_END	n/a	n/a	6	4	DUCK	n/a	ICE	DUCK	2	[0, 0, 0]	-999	PAL1	4	R1318N
527.643	0.006	413688	REC_END	n/a	n/a	6	4	DUCK	n/a	ICE	DUCK	2	[0, 0, 0]	-999	PAL1	4	R1318N
527.649	0.277	413694	ORIENT_START	n/a	n/a	-999	-999	n/a	n/a	n/a	n/a	2	[0, 0, 0]	-999	PAL1	4	R1318N
527.926	0.539	413971	ORIENT_END	n/a	n/a	-999	-999	n/a	n/a	n/a	n/a	2	[0, 0, 0]	-999	PAL1	4	R1318N
528.465	0.0	414510	REC_START	n/a	n/a	1	5	TOE	TAIL	TOE	TAIL	2	[0, 0, 0]	-999	PAL1	4	R1318N
528.465	4.0	414510	PROBE_START	n/a	wordpools/wordpool_EN.txt	1	5	TOE	TAIL	TOE	TAIL	2	[0, 0, 0]	-999	PAL1	4	R1318N
530.41	2.083	416455	REC_EVENT	1.945	n/a	1	5	TOE	TAIL	TOE	TAIL	2	[0, 0, 0]	-999	PAL1	4	R1318N
532.493	1.0	418538	PROBE_END	n/a	n/a	1	5	TOE	n/a	TOE	TAIL	2	[0, 0, 0]	-999	PAL1	4	R1318N
533.493	0.011	419538	REC_END	n/a	n/a	1	5	TOE	n/a	TOE	TAIL	2	[0, 0, 0]	-999	PAL1	4	R1318N
533.504	0.273	419549	ORIENT_START	n/a	n/a	-999	-999	n/a	n/a	n/a	n/a	2	[0, 0, 0]	-999	PAL1	4	R1318N
533.777	0.589	419822	ORIENT_END	n/a	n/a	-999	-999	n/a	n/a	n/a	n/a	2	[0, 0, 0]	-999	PAL1	4	R1318N
534.366	0.0	420411	REC_START	n/a	n/a	2	6	VINE	WEAVE	VINE	WAVE	2	[0, 0, 0]	-999	PAL1	4	R1318N
534.366	4.0	420411	PROBE_START	n/a	wordpools/wordpool_EN.txt	2	6	VINE	WEAVE	VINE	WAVE	2	[0, 0, 0]	-999	PAL1	4	R1318N
536.052	2.342	422097	REC_EVENT	1.686	n/a	2	6	VINE	WEAVE	VINE	WAVE	2	[0, 0, 0]	-999	PAL1	4	R1318N
538.394	1.001	424440	PROBE_END	n/a	n/a	2	6	VINE	n/a	VINE	WAVE	2	[0, 0, 0]	-999	PAL1	4	R1318N
539.395	0.011	425441	REC_END	n/a	n/a	2	6	VINE	n/a	VINE	WAVE	2	[0, 0, 0]	-999	PAL1	4	R1318N
539.406	0.0	425452	RETRIEVAL_END	n/a	n/a	-999	-999	n/a	n/a	n/a	n/a	2	[0, 0, 0]	-999	PAL1	4	R1318N
539.406	0.021	425452	TRIAL_END	n/a	n/a	-999	-999	n/a	n/a	n/a	n/a	2	[0, 0, 0]	-999	PAL1	4	R1318N
539.427	0.0	425473	TRIAL_START	n/a	n/a	-999	-999	n/a	n/a	n/a	n/a	2	[0, 0, 0]	-999	PAL1	4	R1318N
539.427	0.0	425473	TRIAL	n/a	n/a	-999	-999	n/a	n/a	n/a	n/a	3	[0, 0, 0]	-999	PAL1	4	R1318N
539.427	0.968	425473	WAITING_START	n/a	n/a	-999	-999	n/a	n/a	n/a	n/a	3	[0, 0, 0]	-999	PAL1	4	R1318N
540.395	0.0	426441	WAITING_END	n/a	n/a	-999	-999	n/a	n/a	n/a	n/a	3	[0, 0, 0]	-999	PAL1	4	R1318N
540.395	10.0	426441	COUNTDOWN_START	n/a	n/a	-999	-999	n/a	n/a	n/a	n/a	3	[0, 0, 0]	-999	PAL1	4	R1318N
550.824	0.0	436870	COUNTDOWN_END	n/a	n/a	-999	-999	n/a	n/a	n/a	n/a	3	[0, 0, 0]	-999	PAL1	4	R1318N
550.824	0.706	436870	ORIENT_START	n/a	n/a	-999	-999	n/a	n/a	n/a	n/a	3	[0, 0, 0]	-999	PAL1	4	R1318N
551.53	0.0	437576	ORIENT_END	n/a	n/a	-999	-999	n/a	n/a	n/a	n/a	3	[0, 0, 0]	-999	PAL1	4	R1318N
551.53	1.128	437576	ENCODING_START	n/a	n/a	-999	-999	n/a	n/a	n/a	n/a	3	[0, 0, 0]	-999	PAL1	4	R1318N
552.658	4.0	438704	STUDY_PAIR	n/a	wordpools/wordpool_EN.txt	1	-999	n/a	TEA	PIG	TEA	3	[0, 0, 0]	-999	PAL1	4	R1318N
556.697	0.676	442743	STUDY_PAIR_OFF	n/a	n/a	1	-999	n/a	TEA	PIG	TEA	3	[0, 0, 0]	-999	PAL1	4	R1318N
557.373	4.0	443419	STUDY_PAIR	n/a	wordpools/wordpool_EN.txt	2	-999	n/a	FORK	FUDGE	FORK	3	[0, 0, 0]	-999	PAL1	4	R1318N
561.398	0.561	447445	STUDY_PAIR_OFF	n/a	n/a	2	-999	n/a	FORK	FUDGE	FORK	3	[0, 0, 0]	-999	PAL1	4	R1318N
561.959	4.0	448006	STUDY_PAIR	n/a	wordpools/wordpool_EN.txt	3	-999	n/a	BEE	BEE	DEER	3	[0, 0, 0]	-999	PAL1	4	R1318N
565.982	0.703	452029	STUDY_PAIR_OFF	n/a	n/a	3	-999	n/a	BEE	BEE	DEER	3	[0, 0, 0]	-999	PAL1	4	R1318N
566.685	4.0	452732	STUDY_PAIR	n/a	wordpools/wordpool_EN.txt	4	-999	n/a	LIP	LIP	CAPE	3	[0, 0, 0]	-999	PAL1	4	R1318N
570.716	0.575	456763	STUDY_PAIR_OFF	n/a	n/a	4	-999	n/a	LIP	LIP	CAPE	3	[0, 0, 0]	-999	PAL1	4	R1318N
571.291	4.0	457338	STUDY_PAIR	n/a	wordpools/wordpool_EN.txt	5	-999	n/a	n/a	LOCK	EGG	3	[0, 0, 0]	-999	PAL1	4	R1318N
575.317	0.652	461364	STUDY_PAIR_OFF	n/a	n/a	5	-999	n/a	n/a	LOCK	EGG	3	[0, 0, 0]	-999	PAL1	4	R1318N
575.969	4.0	462016	STUDY_PAIR	n/a	wordpools/wordpool_EN.txt	6	-999	n/a	CORN	BAND	CORN	3	[0, 0, 0]	-999	PAL1	4	R1318N
579.984	0.001	466031	STUDY_PAIR_OFF	n/a	n/a	6	-999	n/a	CORN	BAND	CORN	3	[0, 0, 0]	-999	PAL1	4	R1318N
579.985	0.0	466032	ENCODING_END	n/a	n/a	-999	-999	n/a	n/a	n/a	n/a	3	[0, 0, 0]	-999	PAL1	4	R1318N
579.985	0.0	466032	MATH_START	n/a	n/a	-999	-999	n/a	n/a	n/a	n/a	3	[0, 0, 0]	-999	PAL1	4	R1318N
579.985	0.016	466032	START	n/a	n/a	-999	-999	n/a	n/a	n/a	n/a	3	[-999, -999, -999]	-999	PAL1	4	R1318N
580.001	3.55	466048	PROB	3.525	n/a	-999	-999	n/a	n/a	n/a	n/a	3	[5, 7, 9]	21	PAL1	4	R1318N
583.551	3.135	469598	PROB	3.112	n/a	-999	-999	n/a	n/a	n/a	n/a	3	[5, 3, 8]	16	PAL1	4	R1318N
586.686	3.016	472734	PROB	2.985	n/a	-999	-999	n/a	n/a	n/a	n/a	3	[4, 4, 5]	14	PAL1	4	R1318N
589.702	8.002	475750	PROB	7.969	n/a	-999	-999	n/a	n/a	n/a	n/a	3	[1, 7, 5]	13	PAL1	4	R1318N
597.704	2.67	483752	PROB	2.67	n/a	-999	-999	n/a	n/a	n/a	n/a	3	[8, 2, 3]	13	PAL1	4	R1318N
600.374	0.014	486422	STOP	n/a	n/a	-999	-999	n/a	n/a	n/a	n/a	3	[-999, -999, -999]	-999	PAL1	4	R1318N
600.388	0.515	486436	MATH_END	n/a	n/a	-999	-999	n/a	n/a	n/a	n/a	3	[0, 0, 0]	-999	PAL1	4	R1318N
600.903	0.002	486951	RETRIEVAL_START	n/a	n/a	-999	-999	n/a	n/a	n/a	n/a	3	[0, 0, 0]	-999	PAL1	4	R1318N
600.905	0.283	486953	ORIENT_START	n/a	n/a	-999	-999	n/a	n/a	n/a	n/a	3	[0, 0, 0]	-999	PAL1	4	R1318N
601.188	0.526	487236	ORIENT_END	n/a	n/a	-999	-999	n/a	n/a	n/a	n/a	3	[0, 0, 0]	-999	PAL1	4	R1318N
601.714	0.0	487762	REC_START	n/a	n/a	1	1	PIG	TEA	PIG	TEA	3	[0, 0, 0]	-999	PAL1	4	R1318N
601.714	4.0	487762	PROBE_START	n/a	wordpools/wordpool_EN.txt	1	1	PIG	TEA	PIG	TEA	3	[0, 0, 0]	-999	PAL1	4	R1318N
603.463	2.276	489511	REC_EVENT	1.749	n/a	1	1	PIG	TEA	PIG	TEA	3	[0, 0, 0]	-999	PAL1	4	R1318N
605.739	0.999	491787	PROBE_END	n/a	n/a	1	1	PIG	n/a	PIG	TEA	3	[0, 0, 0]	-999	PAL1	4	R1318N
606.738	0.011	492786	REC_END	n/a	n/a	1	1	PIG	n/a	PIG	TEA	3	[0, 0, 0]	-999	PAL1	4	R1318N
606.749	0.273	492797	ORIENT_START	n/a	n/a	-999	-999	n/a	n/a	n/a	n/a	3	[0, 0, 0]	-999	PAL1	4	R1318N
607.022	0.738	493071	ORIENT_END	n/a	n/a	-999	-999	n/a	n/a	n/a	n/a	3	[0, 0, 0]	-999	PAL1	4	R1318N
607.76	0.0	493809	REC_START	n/a	n/a	2	2	FUDGE	FORK	FUDGE	FORK	3	[0, 0, 0]	-999	PAL1	4	R1318N
607.76	4.0	493809	PROBE_START	n/a	wordpools/wordpool_EN.txt	2	2	FUDGE	FORK	FUDGE	FORK	3	[0, 0, 0]	-999	PAL1	4	R1318N
609.453	2.336	495502	REC_EVENT	1.693	n/a	2	2	FUDGE	FORK	FUDGE	FORK	3	[0, 0, 0]	-999	PAL1	4	R1318N
611.789	1.0	497838	PROBE_END	n/a	n/a	2	2	FUDGE	n/a	FUDGE	FORK	3	[0, 0, 0]	-999	PAL1	4	R1318N
612.789	0.006	498838	REC_END	n/a	n/a	2	2	FUDGE	n/a	FUDGE	FORK	3	[0, 0, 0]	-999	PAL1	4	R1318N
612.795	0.278	498844	ORIENT_START	n/a	n/a	-999	-999	n/a	n/a	n/a	n/a	3	[0, 0, 0]	-999	PAL1	4	R1318N
613.073	0.615	499122	ORIENT_END	n/a	n/a	-999	-999	n/a	n/a	n/a	n/a	3	[0, 0, 0]	-999	PAL1	4	R1318N
613.688	0.001	499737	REC_START	n/a	n/a	3	3	DEER	BEE	BEE	DEER	3	[0, 0, 0]	-999	PAL1	4	R1318N
613.689	4.0	499738	PROBE_START	n/a	wordpools/wordpool_EN.txt	3	3	DEER	BEE	BEE	DEER	3	[0, 0, 0]	-999	PAL1	4	R1318N
615.432	2.292	501481	REC_EVENT	1.743	n/a	3	3	DEER	BEE	BEE	DEER	3	[0, 0, 0]	-999	PAL1	4	R1318N
617.724	1.0	503773	PROBE_END	n/a	n/a	3	3	DEER	n/a	BEE	DEER	3	[0, 0, 0]	-999	PAL1	4	R1318N
618.724	0.012	504773	REC_END	n/a	n/a	3	3	DEER	n/a	BEE	DEER	3	[0, 0, 0]	-999	PAL1	4	R1318N
618.736	0.271	504785	ORIENT_START	n/a	n/a	-999	-999	n/a	n/a	n/a	n/a	3	[0, 0, 0]	-999	PAL1	4	R1318N
619.007	0.581	505056	ORIENT_END	n/a	n/a	-999	-999	n/a	n/a	n/a	n/a	3	[0, 0, 0]	-999	PAL1	4	R1318N
619.588	0.0	505637	REC_START	n/a	n/a	6	4	BAND	CORN	BAND	CORN	3	[0, 0, 0]	-999	PAL1	4	R1318N
619.588	4.0	505637	PROBE_START	n/a	wordpools/wordpool_EN.txt	6	4	BAND	CORN	BAND	CORN	3	[0, 0, 0]	-999	PAL1	4	R1318N
621.236	2.39	507285	REC_EVENT	1.648	n/a	6	4	BAND	CORN	BAND	CORN	3	[0, 0, 0]	-999	PAL1	4	R1318N
623.626	1.0	509675	PROBE_END	n/a	n/a	6	4	BAND	n/a	BAND	CORN	3	[0, 0, 0]	-999	PAL1	4	R1318N
624.626	0.012	510675	REC_END	n/a	n/a	6	4	BAND	n/a	BAND	CORN	3	[0, 0, 0]	-999	PAL1	4	R1318N
624.638	0.27	510687	ORIENT_START	n/a	n/a	-999	-999	n/a	n/a	n/a	n/a	3	[0, 0, 0]	-999	PAL1	4	R1318N
624.908	0.629	510957	ORIENT_END	n/a	n/a	-999	-999	n/a	n/a	n/a	n/a	3	[0, 0, 0]	-999	PAL1	4	R1318N
625.537	0.0	511586	REC_START	n/a	n/a	5	5	EGG	n/a	LOCK	EGG	3	[0, 0, 0]	-999	PAL1	4	R1318N
625.537	4.0	511586	PROBE_START	n/a	wordpools/wordpool_EN.txt	5	5	EGG	n/a	LOCK	EGG	3	[0, 0, 0]	-999	PAL1	4	R1318N
629.576	1.0	515625	PROBE_END	n/a	n/a	5	5	EGG	n/a	LOCK	EGG	3	[0, 0, 0]	-999	PAL1	4	R1318N
630.576	0.013	516626	REC_END	n/a	n/a	5	5	EGG	n/a	LOCK	EGG	3	[0, 0, 0]	-999	PAL1	4	R1318N
630.589	0.27	516639	ORIENT_START	n/a	n/a	-999	-999	n/a	n/a	n/a	n/a	3	[0, 0, 0]	-999	PAL1	4	R1318N
630.859	0.542	516909	ORIENT_END	n/a	n/a	-999	-999	n/a	n/a	n/a	n/a	3	[0, 0, 0]	-999	PAL1	4	R1318N
631.401	0.0	517451	REC_START	n/a	n/a	4	6	CAPE	LIP	LIP	CAPE	3	[0, 0, 0]	-999	PAL1	4	R1318N
631.401	4.0	517451	PROBE_START	n/a	wordpools/wordpool_EN.txt	4	6	CAPE	LIP	LIP	CAPE	3	[0, 0, 0]	-999	PAL1	4	R1318N
631.404	1.79	517454	REC_EVENT	5.867	n/a	5	5	EGG	<>	LOCK	EGG	3	[0, 0, 0]	-999	PAL1	4	R1318N
633.194	2.233	519244	REC_EVENT	1.793	n/a	4	6	CAPE	LIP	LIP	CAPE	3	[0, 0, 0]	-999	PAL1	4	R1318N
635.427	1.0	521477	PROBE_END	n/a	n/a	4	6	CAPE	n/a	LIP	CAPE	3	[0, 0, 0]	-999	PAL1	4	R1318N
636.427	0.011	522477	REC_END	n/a	n/a	4	6	CAPE	n/a	LIP	CAPE	3	[0, 0, 0]	-999	PAL1	4	R1318N
636.438	0.0	522488	TRIAL_END	n/a	n/a	-999	-999	n/a	n/a	n/a	n/a	3	[0, 0, 0]	-999	PAL1	4	R1318N
636.438	0.022	522488	RETRIEVAL_END	n/a	n/a	-999	-999	n/a	n/a	n/a	n/a	3	[0, 0, 0]	-999	PAL1	4	R1318N
636.46	0.0	522510	TRIAL_START	n/a	n/a	-999	-999	n/a	n/a	n/a	n/a	3	[0, 0, 0]	-999	PAL1	4	R1318N
636.46	0.0	522510	TRIAL	n/a	n/a	-999	-999	n/a	n/a	n/a	n/a	4	[0, 0, 0]	-999	PAL1	4	R1318N
636.46	1.185	522510	WAITING_START	n/a	n/a	-999	-999	n/a	n/a	n/a	n/a	4	[0, 0, 0]	-999	PAL1	4	R1318N
637.645	0.0	523695	WAITING_END	n/a	n/a	-999	-999	n/a	n/a	n/a	n/a	4	[0, 0, 0]	-999	PAL1	4	R1318N
637.645	10.0	523695	COUNTDOWN_START	n/a	n/a	-999	-999	n/a	n/a	n/a	n/a	4	[0, 0, 0]	-999	PAL1	4	R1318N
648.075	0.0	534125	COUNTDOWN_END	n/a	n/a	-999	-999	n/a	n/a	n/a	n/a	4	[0, 0, 0]	-999	PAL1	4	R1318N
648.075	0.688	534125	ORIENT_START	n/a	n/a	-999	-999	n/a	n/a	n/a	n/a	4	[0, 0, 0]	-999	PAL1	4	R1318N
648.763	0.0	534813	ORIENT_END	n/a	n/a	-999	-999	n/a	n/a	n/a	n/a	4	[0, 0, 0]	-999	PAL1	4	R1318N
648.763	1.065	534813	ENCODING_START	n/a	n/a	-999	-999	n/a	n/a	n/a	n/a	4	[0, 0, 0]	-999	PAL1	4	R1318N
649.828	4.0	535878	STUDY_PAIR	n/a	wordpools/wordpool_EN.txt	1	-999	n/a	LEG	BRICK	LEG	4	[0, 0, 0]	-999	PAL1	4	R1318N
653.863	0.525	539914	STUDY_PAIR_OFF	n/a	n/a	1	-999	n/a	LEG	BRICK	LEG	4	[0, 0, 0]	-999	PAL1	4	R1318N
654.388	4.0	540439	STUDY_PAIR	n/a	wordpools/wordpool_EN.txt	2	-999	n/a	PULL	POOL	VASE	4	[0, 0, 0]	-999	PAL1	4	R1318N
658.414	0.561	544465	STUDY_PAIR_OFF	n/a	n/a	2	-999	n/a	PULL	POOL	VASE	4	[0, 0, 0]	-999	PAL1	4	R1318N
658.975	4.0	545026	STUDY_PAIR	n/a	wordpools/wordpool_EN.txt	3	-999	n/a	SHRIMP	ARK	SHRIMP	4	[0, 0, 0]	-999	PAL1	4	R1318N
663.015	0.735	549066	STUDY_PAIR_OFF	n/a	n/a	3	-999	n/a	SHRIMP	ARK	SHRIMP	4	[0, 0, 0]	-999	PAL1	4	R1318N
663.75	4.0	549801	STUDY_PAIR	n/a	wordpools/wordpool_EN.txt	4	-999	n/a	DIME	DIME	GOAT	4	[0, 0, 0]	-999	PAL1	4	R1318N
667.782	0.511	553833	STUDY_PAIR_OFF	n/a	n/a	4	-999	n/a	DIME	DIME	GOAT	4	[0, 0, 0]	-999	PAL1	4	R1318N
668.293	4.0	554344	STUDY_PAIR	n/a	wordpools/wordpool_EN.txt	5	-999	n/a	TOAD	CONE	SHEET	4	[0, 0, 0]	-999	PAL1	4	R1318N
672.316	0.65	558367	STUDY_PAIR_OFF	n/a	n/a	5	-999	n/a	TOAD	CONE	SHEET	4	[0, 0, 0]	-999	PAL1	4	R1318N
672.966	4.0	559017	STUDY_PAIR	n/a	wordpools/wordpool_EN.txt	6	-999	n/a	ATE	GRASS	GATE	4	[0, 0, 0]	-999	PAL1	4	R1318N
677.001	0.0	563053	STUDY_PAIR_OFF	n/a	n/a	6	-999	n/a	ATE	GRASS	GATE	4	[0, 0, 0]	-999	PAL1	4	R1318N
677.001	0.0	563053	ENCODING_END	n/a	n/a	-999	-999	n/a	n/a	n/a	n/a	4	[0, 0, 0]	-999	PAL1	4	R1318N
677.001	0.0	563053	MATH_START	n/a	n/a	-999	-999	n/a	n/a	n/a	n/a	4	[0, 0, 0]	-999	PAL1	4	R1318N
677.001	0.016	563053	START	n/a	n/a	-999	-999	n/a	n/a	n/a	n/a	4	[-999, -999, -999]	-999	PAL1	4	R1318N
677.017	2.917	563069	PROB	2.893	n/a	-999	-999	n/a	n/a	n/a	n/a	4	[5, 2, 7]	14	PAL1	4	R1318N
679.934	4.417	565986	PROB	4.391	n/a	-999	-999	n/a	n/a	n/a	n/a	4	[7, 6, 7]	20	PAL1	4	R1318N
684.351	2.217	570403	PROB	2.182	n/a	-999	-999	n/a	n/a	n/a	n/a	4	[9, 4, 1]	14	PAL1	4	R1318N
686.568	3.351	572620	PROB	3.326	n/a	-999	-999	n/a	n/a	n/a	n/a	4	[9, 5, 9]	23	PAL1	4	R1318N
689.919	3.05	575971	PROB	3.015	n/a	-999	-999	n/a	n/a	n/a	n/a	4	[1, 2, 6]	9	PAL1	4	R1318N
692.969	2.467	579021	PROB	2.429	n/a	-999	-999	n/a	n/a	n/a	n/a	4	[5, 5, 7]	17	PAL1	4	R1318N
695.436	11.066	581488	PROB	11.066	n/a	-999	-999	n/a	n/a	n/a	n/a	4	[8, 8, 7]	23	PAL1	4	R1318N
706.502	0.02	592555	STOP	n/a	n/a	-999	-999	n/a	n/a	n/a	n/a	4	[-999, -999, -999]	-999	PAL1	4	R1318N
706.522	0.553	592575	MATH_END	n/a	n/a	-999	-999	n/a	n/a	n/a	n/a	4	[0, 0, 0]	-999	PAL1	4	R1318N
707.075	0.001	593128	RETRIEVAL_START	n/a	n/a	-999	-999	n/a	n/a	n/a	n/a	4	[0, 0, 0]	-999	PAL1	4	R1318N
707.076	0.279	593129	ORIENT_START	n/a	n/a	-999	-999	n/a	n/a	n/a	n/a	4	[0, 0, 0]	-999	PAL1	4	R1318N
707.355	0.744	593408	ORIENT_END	n/a	n/a	-999	-999	n/a	n/a	n/a	n/a	4	[0, 0, 0]	-999	PAL1	4	R1318N
708.099	0.0	594152	REC_START	n/a	n/a	5	1	SHEET	TOAD	CONE	SHEET	4	[0, 0, 0]	-999	PAL1	4	R1318N
708.099	4.0	594152	PROBE_START	n/a	wordpools/wordpool_EN.txt	5	1	SHEET	TOAD	CONE	SHEET	4	[0, 0, 0]	-999	PAL1	4	R1318N
709.941	2.182	595994	REC_EVENT	1.842	n/a	5	1	SHEET	TOAD	CONE	SHEET	4	[0, 0, 0]	-999	PAL1	4	R1318N
712.123	1.0	598176	PROBE_END	n/a	n/a	5	1	SHEET	n/a	CONE	SHEET	4	[0, 0, 0]	-999	PAL1	4	R1318N
713.123	0.007	599176	REC_END	n/a	n/a	5	1	SHEET	n/a	CONE	SHEET	4	[0, 0, 0]	-999	PAL1	4	R1318N
713.13	0.276	599183	ORIENT_START	n/a	n/a	-999	-999	n/a	n/a	n/a	n/a	4	[0, 0, 0]	-999	PAL1	4	R1318N
713.406	0.644	599459	ORIENT_END	n/a	n/a	-999	-999	n/a	n/a	n/a	n/a	4	[0, 0, 0]	-999	PAL1	4	R1318N
714.05	0.0	600103	REC_START	n/a	n/a	6	2	GRASS	ATE	GRASS	GATE	4	[0, 0, 0]	-999	PAL1	4	R1318N
714.05	4.0	600103	PROBE_START	n/a	wordpools/wordpool_EN.txt	6	2	GRASS	ATE	GRASS	GATE	4	[0, 0, 0]	-999	PAL1	4	R1318N
715.736	2.338	601789	REC_EVENT	1.686	n/a	6	2	GRASS	ATE	GRASS	GATE	4	[0, 0, 0]	-999	PAL1	4	R1318N
718.074	1.0	604127	PROBE_END	n/a	n/a	6	2	GRASS	n/a	GRASS	GATE	4	[0, 0, 0]	-999	PAL1	4	R1318N
719.074	0.013	605127	REC_END	n/a	n/a	6	2	GRASS	n/a	GRASS	GATE	4	[0, 0, 0]	-999	PAL1	4	R1318N
719.087	0.27	605140	ORIENT_START	n/a	n/a	-999	-999	n/a	n/a	n/a	n/a	4	[0, 0, 0]	-999	PAL1	4	R1318N
719.357	0.638	605410	ORIENT_END	n/a	n/a	-999	-999	n/a	n/a	n/a	n/a	4	[0, 0, 0]	-999	PAL1	4	R1318N
719.995	0.0	606048	REC_START	n/a	n/a	1	3	BRICK	LEG	BRICK	LEG	4	[0, 0, 0]	-999	PAL1	4	R1318N
719.995	4.0	606048	PROBE_START	n/a	wordpools/wordpool_EN.txt	1	3	BRICK	LEG	BRICK	LEG	4	[0, 0, 0]	-999	PAL1	4	R1318N
721.716	2.309	607769	REC_EVENT	1.721	n/a	1	3	BRICK	LEG	BRICK	LEG	4	[0, 0, 0]	-999	PAL1	4	R1318N
724.025	1.001	610079	PROBE_END	n/a	n/a	1	3	BRICK	n/a	BRICK	LEG	4	[0, 0, 0]	-999	PAL1	4	R1318N
725.026	0.012	611080	REC_END	n/a	n/a	1	3	BRICK	n/a	BRICK	LEG	4	[0, 0, 0]	-999	PAL1	4	R1318N
725.038	0.27	611092	ORIENT_START	n/a	n/a	-999	-999	n/a	n/a	n/a	n/a	4	[0, 0, 0]	-999	PAL1	4	R1318N
725.308	0.545	611362	ORIENT_END	n/a	n/a	-999	-999	n/a	n/a	n/a	n/a	4	[0, 0, 0]	-999	PAL1	4	R1318N
725.853	0.001	611907	REC_START	n/a	n/a	4	4	GOAT	DIME	DIME	GOAT	4	[0, 0, 0]	-999	PAL1	4	R1318N
725.854	4.0	611908	PROBE_START	n/a	wordpools/wordpool_EN.txt	4	4	GOAT	DIME	DIME	GOAT	4	[0, 0, 0]	-999	PAL1	4	R1318N
727.507	2.385	613561	REC_EVENT	1.653	n/a	4	4	GOAT	DIME	DIME	GOAT	4	[0, 0, 0]	-999	PAL1	4	R1318N
729.892	1.001	615946	PROBE_END	n/a	n/a	4	4	GOAT	n/a	DIME	GOAT	4	[0, 0, 0]	-999	PAL1	4	R1318N
730.893	0.01	616947	REC_END	n/a	n/a	4	4	GOAT	n/a	DIME	GOAT	4	[0, 0, 0]	-999	PAL1	4	R1318N
730.903	0.273	616957	ORIENT_START	n/a	n/a	-999	-999	n/a	n/a	n/a	n/a	4	[0, 0, 0]	-999	PAL1	4	R1318N
731.176	0.564	617230	ORIENT_END	n/a	n/a	-999	-999	n/a	n/a	n/a	n/a	4	[0, 0, 0]	-999	PAL1	4	R1318N
731.74	0.001	617794	REC_START	n/a	n/a	3	5	ARK	SHRIMP	ARK	SHRIMP	4	[0, 0, 0]	-999	PAL1	4	R1318N
731.741	4.0	617795	PROBE_START	n/a	wordpools/wordpool_EN.txt	3	5	ARK	SHRIMP	ARK	SHRIMP	4	[0, 0, 0]	-999	PAL1	4	R1318N
733.305	2.472	619359	REC_EVENT	1.564	n/a	3	5	ARK	SHRIMP	ARK	SHRIMP	4	[0, 0, 0]	-999	PAL1	4	R1318N
735.777	0.999	621831	PROBE_END	n/a	n/a	3	5	ARK	n/a	ARK	SHRIMP	4	[0, 0, 0]	-999	PAL1	4	R1318N
736.776	0.011	622830	REC_END	n/a	n/a	3	5	ARK	n/a	ARK	SHRIMP	4	[0, 0, 0]	-999	PAL1	4	R1318N
736.787	0.273	622841	ORIENT_START	n/a	n/a	-999	-999	n/a	n/a	n/a	n/a	4	[0, 0, 0]	-999	PAL1	4	R1318N
737.06	0.608	623114	ORIENT_END	n/a	n/a	-999	-999	n/a	n/a	n/a	n/a	4	[0, 0, 0]	-999	PAL1	4	R1318N
737.668	0.0	623722	REC_START	n/a	n/a	2	6	VASE	PULL	POOL	VASE	4	[0, 0, 0]	-999	PAL1	4	R1318N
737.668	4.0	623722	PROBE_START	n/a	wordpools/wordpool_EN.txt	2	6	VASE	PULL	POOL	VASE	4	[0, 0, 0]	-999	PAL1	4	R1318N
739.53	2.164	625584	REC_EVENT	1.862	n/a	2	6	VASE	PULL	POOL	VASE	4	[0, 0, 0]	-999	PAL1	4	R1318N
741.694	1.0	627748	PROBE_END	n/a	n/a	2	6	VASE	n/a	POOL	VASE	4	[0, 0, 0]	-999	PAL1	4	R1318N
742.694	0.012	628748	REC_END	n/a	n/a	2	6	VASE	n/a	POOL	VASE	4	[0, 0, 0]	-999	PAL1	4	R1318N
742.706	0.001	628760	RETRIEVAL_END	n/a	n/a	-999	-999	n/a	n/a	n/a	n/a	4	[0, 0, 0]	-999	PAL1	4	R1318N
742.707	0.023	628761	TRIAL_END	n/a	n/a	-999	-999	n/a	n/a	n/a	n/a	4	[0, 0, 0]	-999	PAL1	4	R1318N
742.73	0.0	628784	TRIAL_START	n/a	n/a	-999	-999	n/a	n/a	n/a	n/a	4	[0, 0, 0]	-999	PAL1	4	R1318N
742.73	0.0	628784	TRIAL	n/a	n/a	-999	-999	n/a	n/a	n/a	n/a	5	[0, 0, 0]	-999	PAL1	4	R1318N
742.73	1.148	628784	WAITING_START	n/a	n/a	-999	-999	n/a	n/a	n/a	n/a	5	[0, 0, 0]	-999	PAL1	4	R1318N
743.878	0.0	629932	WAITING_END	n/a	n/a	-999	-999	n/a	n/a	n/a	n/a	5	[0, 0, 0]	-999	PAL1	4	R1318N
743.878	10.0	629932	COUNTDOWN_START	n/a	n/a	-999	-999	n/a	n/a	n/a	n/a	5	[0, 0, 0]	-999	PAL1	4	R1318N
754.308	0.0	640363	COUNTDOWN_END	n/a	n/a	-999	-999	n/a	n/a	n/a	n/a	5	[0, 0, 0]	-999	PAL1	4	R1318N
754.308	0.639	640363	ORIENT_START	n/a	n/a	-999	-999	n/a	n/a	n/a	n/a	5	[0, 0, 0]	-999	PAL1	4	R1318N
754.947	0.0	641002	ORIENT_END	n/a	n/a	-999	-999	n/a	n/a	n/a	n/a	5	[0, 0, 0]	-999	PAL1	4	R1318N
754.947	1.104	641002	ENCODING_START	n/a	n/a	-999	-999	n/a	n/a	n/a	n/a	5	[0, 0, 0]	-999	PAL1	4	R1318N
756.051	4.0	642106	STUDY_PAIR	n/a	wordpools/wordpool_EN.txt	1	-999	n/a	DITCH	DITCH	BAT	5	[0, 0, 0]	-999	PAL1	4	R1318N
760.081	0.613	646136	STUDY_PAIR_OFF	n/a	n/a	1	-999	n/a	DITCH	DITCH	BAT	5	[0, 0, 0]	-999	PAL1	4	R1318N
760.694	4.0	646749	STUDY_PAIR	n/a	wordpools/wordpool_EN.txt	2	-999	n/a	SHIRT	SHIRT	MUD	5	[0, 0, 0]	-999	PAL1	4	R1318N
764.731	0.646	650786	STUDY_PAIR_OFF	n/a	n/a	2	-999	n/a	SHIRT	SHIRT	MUD	5	[0, 0, 0]	-999	PAL1	4	R1318N
765.377	4.0	651432	STUDY_PAIR	n/a	wordpools/wordpool_EN.txt	3	-999	n/a	SLEEVE	SLEEVE	SMILE	5	[0, 0, 0]	-999	PAL1	4	R1318N
769.416	0.627	655471	STUDY_PAIR_OFF	n/a	n/a	3	-999	n/a	SLEEVE	SLEEVE	SMILE	5	[0, 0, 0]	-999	PAL1	4	R1318N
770.043	4.0	656099	STUDY_PAIR	n/a	wordpools/wordpool_EN.txt	4	-999	n/a	JAR	CALF	JAR	5	[0, 0, 0]	-999	PAL1	4	R1318N
774.066	0.678	660122	STUDY_PAIR_OFF	n/a	n/a	4	-999	n/a	JAR	CALF	JAR	5	[0, 0, 0]	-999	PAL1	4	R1318N
774.744	4.0	660800	STUDY_PAIR	n/a	wordpools/wordpool_EN.txt	5	-999	n/a	CAVE	BOAT	CAVE	5	[0, 0, 0]	-999	PAL1	4	R1318N
778.767	0.75	664823	STUDY_PAIR_OFF	n/a	n/a	5	-999	n/a	CAVE	BOAT	CAVE	5	[0, 0, 0]	-999	PAL1	4	R1318N
779.517	4.0	665573	STUDY_PAIR	n/a	wordpools/wordpool_EN.txt	6	-999	n/a	STEM	CAT	STEM	5	[0, 0, 0]	-999	PAL1	4	R1318N
783.551	0.001	669607	STUDY_PAIR_OFF	n/a	n/a	6	-999	n/a	STEM	CAT	STEM	5	[0, 0, 0]	-999	PAL1	4	R1318N
783.552	0.0	669608	ENCODING_END	n/a	n/a	-999	-999	n/a	n/a	n/a	n/a	5	[0, 0, 0]	-999	PAL1	4	R1318N
783.552	0.0	669608	MATH_START	n/a	n/a	-999	-999	n/a	n/a	n/a	n/a	5	[0, 0, 0]	-999	PAL1	4	R1318N
783.552	0.016	669608	START	n/a	n/a	-999	-999	n/a	n/a	n/a	n/a	5	[-999, -999, -999]	-999	PAL1	4	R1318N
783.568	3.034	669624	PROB	2.997	n/a	-999	-999	n/a	n/a	n/a	n/a	5	[1, 8, 1]	10	PAL1	4	R1318N
786.602	6.117	672658	PROB	6.092	n/a	-999	-999	n/a	n/a	n/a	n/a	5	[9, 4, 8]	21	PAL1	4	R1318N
792.719	2.902	678775	PROB	2.871	n/a	-999	-999	n/a	n/a	n/a	n/a	5	[5, 3, 8]	16	PAL1	4	R1318N
795.621	2.466	681678	PROB	2.432	n/a	-999	-999	n/a	n/a	n/a	n/a	5	[4, 5, 1]	10	PAL1	4	R1318N
798.087	3.551	684144	PROB	3.52	n/a	-999	-999	n/a	n/a	n/a	n/a	5	[8, 7, 7]	22	PAL1	4	R1318N
801.638	4.287	687695	PROB	4.287	n/a	-999	-999	n/a	n/a	n/a	n/a	5	[5, 6, 9]	20	PAL1	4	R1318N
805.925	0.013	691982	STOP	n/a	n/a	-999	-999	n/a	n/a	n/a	n/a	5	[-999, -999, -999]	-999	PAL1	4	R1318N
805.938	0.594	691995	MATH_END	n/a	n/a	-999	-999	n/a	n/a	n/a	n/a	5	[0, 0, 0]	-999	PAL1	4	R1318N
806.532	0.001	692589	RETRIEVAL_START	n/a	n/a	-999	-999	n/a	n/a	n/a	n/a	5	[0, 0, 0]	-999	PAL1	4	R1318N
806.533	0.272	692590	ORIENT_START	n/a	n/a	-999	-999	n/a	n/a	n/a	n/a	5	[0, 0, 0]	-999	PAL1	4	R1318N
806.805	0.551	692862	ORIENT_END	n/a	n/a	-999	-999	n/a	n/a	n/a	n/a	5	[0, 0, 0]	-999	PAL1	4	R1318N
807.356	4.0	693413	PROBE_START	n/a	wordpools/wordpool_EN.txt	5	1	BOAT	CAVE	BOAT	CAVE	5	[0, 0, 0]	-999	PAL1	4	R1318N
807.356	1.522	693413	REC_START	n/a	n/a	5	1	BOAT	CAVE	BOAT	CAVE	5	[0, 0, 0]	-999	PAL1	4	R1318N
808.878	2.511	694935	REC_EVENT	1.522	n/a	5	1	BOAT	CAVE	BOAT	CAVE	5	[0, 0, 0]	-999	PAL1	4	R1318N
811.389	1.001	697446	PROBE_END	n/a	n/a	5	1	BOAT	n/a	BOAT	CAVE	5	[0, 0, 0]	-999	PAL1	4	R1318N
812.39	0.012	698447	REC_END	n/a	n/a	5	1	BOAT	n/a	BOAT	CAVE	5	[0, 0, 0]	-999	PAL1	4	R1318N
812.402	0.272	698459	ORIENT_START	n/a	n/a	-999	-999	n/a	n/a	n/a	n/a	5	[0, 0, 0]	-999	PAL1	4	R1318N
812.674	0.507	698731	ORIENT_END	n/a	n/a	-999	-999	n/a	n/a	n/a	n/a	5	[0, 0, 0]	-999	PAL1	4	R1318N
813.181	0.0	699238	REC_START	n/a	n/a	6	2	CAT	STEM	CAT	STEM	5	[0, 0, 0]	-999	PAL1	4	R1318N
813.181	4.0	699238	PROBE_START	n/a	wordpools/wordpool_EN.txt	6	2	CAT	STEM	CAT	STEM	5	[0, 0, 0]	-999	PAL1	4	R1318N
814.733	2.474	700790	REC_EVENT	1.552	n/a	6	2	CAT	STEM	CAT	STEM	5	[0, 0, 0]	-999	PAL1	4	R1318N
817.207	1.0	703265	PROBE_END	n/a	n/a	6	2	CAT	n/a	CAT	STEM	5	[0, 0, 0]	-999	PAL1	4	R1318N
818.207	0.011	704265	REC_END	n/a	n/a	6	2	CAT	n/a	CAT	STEM	5	[0, 0, 0]	-999	PAL1	4	R1318N
818.218	0.272	704276	ORIENT_START	n/a	n/a	-999	-999	n/a	n/a	n/a	n/a	5	[0, 0, 0]	-999	PAL1	4	R1318N
818.49	0.68	704548	ORIENT_END	n/a	n/a	-999	-999	n/a	n/a	n/a	n/a	5	[0, 0, 0]	-999	PAL1	4	R1318N
819.17	4.0	705228	PROBE_START	n/a	wordpools/wordpool_EN.txt	1	3	BAT	DITCH	DITCH	BAT	5	[0, 0, 0]	-999	PAL1	4	R1318N
819.17	1.585	705228	REC_START	n/a	n/a	1	3	BAT	DITCH	DITCH	BAT	5	[0, 0, 0]	-999	PAL1	4	R1318N
820.755	2.419	706813	REC_EVENT	1.585	n/a	1	3	BAT	DITCH	DITCH	BAT	5	[0, 0, 0]	-999	PAL1	4	R1318N
823.174	1.0	709232	PROBE_END	n/a	n/a	1	3	BAT	n/a	DITCH	BAT	5	[0, 0, 0]	-999	PAL1	4	R1318N
824.174	0.011	710232	REC_END	n/a	n/a	1	3	BAT	n/a	DITCH	BAT	5	[0, 0, 0]	-999	PAL1	4	R1318N
824.185	0.273	710243	ORIENT_START	n/a	n/a	-999	-999	n/a	n/a	n/a	n/a	5	[0, 0, 0]	-999	PAL1	4	R1318N
824.458	0.659	710516	ORIENT_END	n/a	n/a	-999	-999	n/a	n/a	n/a	n/a	5	[0, 0, 0]	-999	PAL1	4	R1318N
825.117	0.001	711175	REC_START	n/a	n/a	4	4	CALF	JAR	CALF	JAR	5	[0, 0, 0]	-999	PAL1	4	R1318N
825.118	4.0	711176	PROBE_START	n/a	wordpools/wordpool_EN.txt	4	4	CALF	JAR	CALF	JAR	5	[0, 0, 0]	-999	PAL1	4	R1318N
826.569	2.556	712627	REC_EVENT	1.451	n/a	4	4	CALF	JAR	CALF	JAR	5	[0, 0, 0]	-999	PAL1	4	R1318N
829.125	1.0	715183	PROBE_END	n/a	n/a	4	4	CALF	n/a	CALF	JAR	5	[0, 0, 0]	-999	PAL1	4	R1318N
830.125	0.012	716183	REC_END	n/a	n/a	4	4	CALF	n/a	CALF	JAR	5	[0, 0, 0]	-999	PAL1	4	R1318N
830.137	0.272	716195	ORIENT_START	n/a	n/a	-999	-999	n/a	n/a	n/a	n/a	5	[0, 0, 0]	-999	PAL1	4	R1318N
830.409	0.587	716467	ORIENT_END	n/a	n/a	-999	-999	n/a	n/a	n/a	n/a	5	[0, 0, 0]	-999	PAL1	4	R1318N
830.996	4.0	717054	PROBE_START	n/a	wordpools/wordpool_EN.txt	3	5	SMILE	SLEEVE	SLEEVE	SMILE	5	[0, 0, 0]	-999	PAL1	4	R1318N
830.996	1.582	717054	REC_START	n/a	n/a	3	5	SMILE	SLEEVE	SLEEVE	SMILE	5	[0, 0, 0]	-999	PAL1	4	R1318N
832.578	2.448	718636	REC_EVENT	1.582	n/a	3	5	SMILE	SLEEVE	SLEEVE	SMILE	5	[0, 0, 0]	-999	PAL1	4	R1318N
835.026	1.0	721084	PROBE_END	n/a	n/a	3	5	SMILE	n/a	SLEEVE	SMILE	5	[0, 0, 0]	-999	PAL1	4	R1318N
836.026	0.011	722084	REC_END	n/a	n/a	3	5	SMILE	n/a	SLEEVE	SMILE	5	[0, 0, 0]	-999	PAL1	4	R1318N
836.037	0.273	722095	ORIENT_START	n/a	n/a	-999	-999	n/a	n/a	n/a	n/a	5	[0, 0, 0]	-999	PAL1	4	R1318N
836.31	0.586	722368	ORIENT_END	n/a	n/a	-999	-999	n/a	n/a	n/a	n/a	5	[0, 0, 0]	-999	PAL1	4	R1318N
836.896	0.0	722954	REC_START	n/a	n/a	2	6	MUD	SHIRT	SHIRT	MUD	5	[0, 0, 0]	-999	PAL1	4	R1318N
836.896	4.0	722954	PROBE_START	n/a	wordpools/wordpool_EN.txt	2	6	MUD	SHIRT	SHIRT	MUD	5	[0, 0, 0]	-999	PAL1	4	R1318N
838.494	2.433	724552	REC_EVENT	1.598	n/a	2	6	MUD	SHIRT	SHIRT	MUD	5	[0, 0, 0]	-999	PAL1	4	R1318N
840.927	1.0	726986	PROBE_END	n/a	n/a	2	6	MUD	n/a	SHIRT	MUD	5	[0, 0, 0]	-999	PAL1	4	R1318N
841.927	0.01	727986	REC_END	n/a	n/a	2	6	MUD	n/a	SHIRT	MUD	5	[0, 0, 0]	-999	PAL1	4	R1318N
841.937	0.0	727996	TRIAL_END	n/a	n/a	-999	-999	n/a	n/a	n/a	n/a	5	[0, 0, 0]	-999	PAL1	4	R1318N
841.937	0.019	727996	RETRIEVAL_END	n/a	n/a	-999	-999	n/a	n/a	n/a	n/a	5	[0, 0, 0]	-999	PAL1	4	R1318N
841.956	0.0	728015	WAITING_START	n/a	n/a	-999	-999	n/a	n/a	n/a	n/a	6	[0, 0, 0]	-999	PAL1	4	R1318N
841.956	0.0	728015	TRIAL	n/a	n/a	-999	-999	n/a	n/a	n/a	n/a	6	[0, 0, 0]	-999	PAL1	4	R1318N
841.956	1.305	728015	TRIAL_START	n/a	n/a	-999	-999	n/a	n/a	n/a	n/a	5	[0, 0, 0]	-999	PAL1	4	R1318N
843.261	0.001	729320	WAITING_END	n/a	n/a	-999	-999	n/a	n/a	n/a	n/a	6	[0, 0, 0]	-999	PAL1	4	R1318N
843.262	10.0	729321	COUNTDOWN_START	n/a	n/a	-999	-999	n/a	n/a	n/a	n/a	6	[0, 0, 0]	-999	PAL1	4	R1318N
853.69	0.0	739749	COUNTDOWN_END	n/a	n/a	-999	-999	n/a	n/a	n/a	n/a	6	[0, 0, 0]	-999	PAL1	4	R1318N
853.69	0.523	739749	ORIENT_START	n/a	n/a	-999	-999	n/a	n/a	n/a	n/a	6	[0, 0, 0]	-999	PAL1	4	R1318N
854.213	0.0	740272	ORIENT_END	n/a	n/a	-999	-999	n/a	n/a	n/a	n/a	6	[0, 0, 0]	-999	PAL1	4	R1318N
854.213	1.063	740272	ENCODING_START	n/a	n/a	-999	-999	n/a	n/a	n/a	n/a	6	[0, 0, 0]	-999	PAL1	4	R1318N
855.276	4.0	741335	STUDY_PAIR	n/a	wordpools/wordpool_EN.txt	1	-999	n/a	STOVE	RUG	STOVE	6	[0, 0, 0]	-999	PAL1	4	R1318N
859.314	0.713	745373	STUDY_PAIR_OFF	n/a	n/a	1	-999	n/a	STOVE	RUG	STOVE	6	[0, 0, 0]	-999	PAL1	4	R1318N
860.027	4.0	746086	STUDY_PAIR	n/a	wordpools/wordpool_EN.txt	2	-999	n/a	CLIFF	CLIFF	SEAT	6	[0, 0, 0]	-999	PAL1	4	R1318N
864.064	0.629	750124	STUDY_PAIR_OFF	n/a	n/a	2	-999	n/a	CLIFF	CLIFF	SEAT	6	[0, 0, 0]	-999	PAL1	4	R1318N
864.693	4.0	750753	STUDY_PAIR	n/a	wordpools/wordpool_EN.txt	3	-999	n/a	MOOSE	HOOF	MOOSE	6	[0, 0, 0]	-999	PAL1	4	R1318N
868.732	0.531	754792	STUDY_PAIR_OFF	n/a	n/a	3	-999	n/a	MOOSE	HOOF	MOOSE	6	[0, 0, 0]	-999	PAL1	4	R1318N
869.263	4.0	755323	STUDY_PAIR	n/a	wordpools/wordpool_EN.txt	4	-999	n/a	COW	TRASH	COW	6	[0, 0, 0]	-999	PAL1	4	R1318N
873.299	0.672	759359	STUDY_PAIR_OFF	n/a	n/a	4	-999	n/a	COW	TRASH	COW	6	[0, 0, 0]	-999	PAL1	4	R1318N
873.971	4.0	760031	STUDY_PAIR	n/a	wordpools/wordpool_EN.txt	5	-999	n/a	CROW	CROW	TOY	6	[0, 0, 0]	-999	PAL1	4	R1318N
878.0	0.642	764060	STUDY_PAIR_OFF	n/a	n/a	5	-999	n/a	CROW	CROW	TOY	6	[0, 0, 0]	-999	PAL1	4	R1318N
878.642	4.0	764702	STUDY_PAIR	n/a	wordpools/wordpool_EN.txt	6	-999	n/a	BEACH	BEACH	STEAK	6	[0, 0, 0]	-999	PAL1	4	R1318N
882.669	0.0	768729	STUDY_PAIR_OFF	n/a	n/a	6	-999	n/a	BEACH	BEACH	STEAK	6	[0, 0, 0]	-999	PAL1	4	R1318N
882.669	0.0	768729	ENCODING_END	n/a	n/a	-999	-999	n/a	n/a	n/a	n/a	6	[0, 0, 0]	-999	PAL1	4	R1318N
882.669	0.0	768729	MATH_START	n/a	n/a	-999	-999	n/a	n/a	n/a	n/a	6	[0, 0, 0]	-999	PAL1	4	R1318N
882.669	0.016	768729	START	n/a	n/a	-999	-999	n/a	n/a	n/a	n/a	6	[-999, -999, -999]	-999	PAL1	4	R1318N
882.685	4.183	768745	PROB	4.152	n/a	-999	-999	n/a	n/a	n/a	n/a	6	[6, 4, 9]	19	PAL1	4	R1318N
886.868	3.017	772929	PROB	2.978	n/a	-999	-999	n/a	n/a	n/a	n/a	6	[8, 2, 9]	19	PAL1	4	R1318N
889.885	2.301	775946	PROB	2.265	n/a	-999	-999	n/a	n/a	n/a	n/a	6	[1, 8, 4]	13	PAL1	4	R1318N
892.186	4.084	778247	PROB	4.06	n/a	-999	-999	n/a	n/a	n/a	n/a	6	[5, 7, 8]	20	PAL1	4	R1318N
896.27	2.633	782331	PROB	2.599	n/a	-999	-999	n/a	n/a	n/a	n/a	6	[2, 4, 8]	14	PAL1	4	R1318N
898.903	1.768	784964	PROB	1.743	n/a	-999	-999	n/a	n/a	n/a	n/a	6	[5, 5, 2]	12	PAL1	4	R1318N
900.671	5.735	786732	PROB	5.735	n/a	-999	-999	n/a	n/a	n/a	n/a	6	[6, 9, 8]	23	PAL1	4	R1318N
906.406	0.015	792467	STOP	n/a	n/a	-999	-999	n/a	n/a	n/a	n/a	6	[-999, -999, -999]	-999	PAL1	4	R1318N
906.421	0.613	792482	MATH_END	n/a	n/a	-999	-999	n/a	n/a	n/a	n/a	6	[0, 0, 0]	-999	PAL1	4	R1318N
907.034	0.001	793095	RETRIEVAL_START	n/a	n/a	-999	-999	n/a	n/a	n/a	n/a	6	[0, 0, 0]	-999	PAL1	4	R1318N
907.035	0.287	793096	ORIENT_START	n/a	n/a	-999	-999	n/a	n/a	n/a	n/a	6	[0, 0, 0]	-999	PAL1	4	R1318N
907.322	0.748	793383	ORIENT_END	n/a	n/a	-999	-999	n/a	n/a	n/a	n/a	6	[0, 0, 0]	-999	PAL1	4	R1318N
908.07	0.0	794131	REC_START	n/a	n/a	1	1	RUG	STOVE	RUG	STOVE	6	[0, 0, 0]	-999	PAL1	4	R1318N
908.07	4.0	794131	PROBE_START	n/a	wordpools/wordpool_EN.txt	1	1	RUG	STOVE	RUG	STOVE	6	[0, 0, 0]	-999	PAL1	4	R1318N
909.949	2.157	796011	REC_EVENT	1.879	n/a	1	1	RUG	STOVE	RUG	STOVE	6	[0, 0, 0]	-999	PAL1	4	R1318N
912.106	0.999	798168	PROBE_END	n/a	n/a	1	1	RUG	n/a	RUG	STOVE	6	[0, 0, 0]	-999	PAL1	4	R1318N
913.105	0.007	799167	REC_END	n/a	n/a	1	1	RUG	n/a	RUG	STOVE	6	[0, 0, 0]	-999	PAL1	4	R1318N
913.112	0.277	799174	ORIENT_START	n/a	n/a	-999	-999	n/a	n/a	n/a	n/a	6	[0, 0, 0]	-999	PAL1	4	R1318N
913.389	0.707	799451	ORIENT_END	n/a	n/a	-999	-999	n/a	n/a	n/a	n/a	6	[0, 0, 0]	-999	PAL1	4	R1318N
914.096	0.0	800158	REC_START	n/a	n/a	6	2	STEAK	BEACH	BEACH	STEAK	6	[0, 0, 0]	-999	PAL1	4	R1318N
914.096	4.0	800158	PROBE_START	n/a	wordpools/wordpool_EN.txt	6	2	STEAK	BEACH	BEACH	STEAK	6	[0, 0, 0]	-999	PAL1	4	R1318N
915.847	2.276	801909	REC_EVENT	1.751	n/a	6	2	STEAK	BEACH	BEACH	STEAK	6	[0, 0, 0]	-999	PAL1	4	R1318N
918.123	1.001	804185	PROBE_END	n/a	n/a	6	2	STEAK	n/a	BEACH	STEAK	6	[0, 0, 0]	-999	PAL1	4	R1318N
919.124	0.013	805186	REC_END	n/a	n/a	6	2	STEAK	n/a	BEACH	STEAK	6	[0, 0, 0]	-999	PAL1	4	R1318N
919.137	0.27	805199	ORIENT_START	n/a	n/a	-999	-999	n/a	n/a	n/a	n/a	6	[0, 0, 0]	-999	PAL1	4	R1318N
919.407	0.574	805469	ORIENT_END	n/a	n/a	-999	-999	n/a	n/a	n/a	n/a	6	[0, 0, 0]	-999	PAL1	4	R1318N
919.981	0.001	806043	REC_START	n/a	n/a	3	3	HOOF	MOOSE	HOOF	MOOSE	6	[0, 0, 0]	-999	PAL1	4	R1318N
919.982	4.0	806044	PROBE_START	n/a	wordpools/wordpool_EN.txt	3	3	HOOF	MOOSE	HOOF	MOOSE	6	[0, 0, 0]	-999	PAL1	4	R1318N
921.564	2.444	807626	REC_EVENT	1.582	n/a	3	3	HOOF	MOOSE	HOOF	MOOSE	6	[0, 0, 0]	-999	PAL1	4	R1318N
924.008	1.0	810070	PROBE_END	n/a	n/a	3	3	HOOF	n/a	HOOF	MOOSE	6	[0, 0, 0]	-999	PAL1	4	R1318N
925.008	0.011	811070	REC_END	n/a	n/a	3	3	HOOF	n/a	HOOF	MOOSE	6	[0, 0, 0]	-999	PAL1	4	R1318N
925.019	0.272	811081	ORIENT_START	n/a	n/a	-999	-999	n/a	n/a	n/a	n/a	6	[0, 0, 0]	-999	PAL1	4	R1318N
925.291	0.629	811353	ORIENT_END	n/a	n/a	-999	-999	n/a	n/a	n/a	n/a	6	[0, 0, 0]	-999	PAL1	4	R1318N
925.92	0.0	811982	REC_START	n/a	n/a	2	4	SEAT	CLIFF	CLIFF	SEAT	6	[0, 0, 0]	-999	PAL1	4	R1318N
925.92	4.0	811982	PROBE_START	n/a	wordpools/wordpool_EN.txt	2	4	SEAT	CLIFF	CLIFF	SEAT	6	[0, 0, 0]	-999	PAL1	4	R1318N
927.44	2.502	813502	REC_EVENT	1.52	n/a	2	4	SEAT	CLIFF	CLIFF	SEAT	6	[0, 0, 0]	-999	PAL1	4	R1318N
929.942	1.0	816004	PROBE_END	n/a	n/a	2	4	SEAT	n/a	CLIFF	SEAT	6	[0, 0, 0]	-999	PAL1	4	R1318N
930.942	0.012	817004	REC_END	n/a	n/a	2	4	SEAT	n/a	CLIFF	SEAT	6	[0, 0, 0]	-999	PAL1	4	R1318N
930.954	0.272	817016	ORIENT_START	n/a	n/a	-999	-999	n/a	n/a	n/a	n/a	6	[0, 0, 0]	-999	PAL1	4	R1318N
931.226	0.512	817288	ORIENT_END	n/a	n/a	-999	-999	n/a	n/a	n/a	n/a	6	[0, 0, 0]	-999	PAL1	4	R1318N
931.738	0.0	817800	REC_START	n/a	n/a	5	5	TOY	CROW	CROW	TOY	6	[0, 0, 0]	-999	PAL1	4	R1318N
931.738	4.0	817800	PROBE_START	n/a	wordpools/wordpool_EN.txt	5	5	TOY	CROW	CROW	TOY	6	[0, 0, 0]	-999	PAL1	4	R1318N
933.358	2.418	819421	REC_EVENT	1.62	n/a	5	5	TOY	CROW	CROW	TOY	6	[0, 0, 0]	-999	PAL1	4	R1318N
935.776	1.001	821839	PROBE_END	n/a	n/a	5	5	TOY	n/a	CROW	TOY	6	[0, 0, 0]	-999	PAL1	4	R1318N
936.777	0.012	822840	REC_END	n/a	n/a	5	5	TOY	n/a	CROW	TOY	6	[0, 0, 0]	-999	PAL1	4	R1318N
936.789	0.271	822852	ORIENT_START	n/a	n/a	-999	-999	n/a	n/a	n/a	n/a	6	[0, 0, 0]	-999	PAL1	4	R1318N
937.06	0.745	823123	ORIENT_END	n/a	n/a	-999	-999	n/a	n/a	n/a	n/a	6	[0, 0, 0]	-999	PAL1	4	R1318N
937.805	0.0	823868	REC_START	n/a	n/a	4	6	TRASH	COW	TRASH	COW	6	[0, 0, 0]	-999	PAL1	4	R1318N
937.805	4.0	823868	PROBE_START	n/a	wordpools/wordpool_EN.txt	4	6	TRASH	COW	TRASH	COW	6	[0, 0, 0]	-999	PAL1	4	R1318N
939.427	2.4	825490	REC_EVENT	1.622	n/a	4	6	TRASH	COW	TRASH	COW	6	[0, 0, 0]	-999	PAL1	4	R1318N
941.827	1.0	827890	PROBE_END	n/a	n/a	4	6	TRASH	n/a	TRASH	COW	6	[0, 0, 0]	-999	PAL1	4	R1318N
942.827	0.005	828890	REC_END	n/a	n/a	4	6	TRASH	n/a	TRASH	COW	6	[0, 0, 0]	-999	PAL1	4	R1318N
942.832	0.001	828895	RETRIEVAL_END	n/a	n/a	-999	-999	n/a	n/a	n/a	n/a	6	[0, 0, 0]	-999	PAL1	4	R1318N
942.833	0.049	828896	TRIAL_END	n/a	n/a	-999	-999	n/a	n/a	n/a	n/a	6	[0, 0, 0]	-999	PAL1	4	R1318N
942.882	0.001	828945	TRIAL_START	n/a	n/a	-999	-999	n/a	n/a	n/a	n/a	6	[0, 0, 0]	-999	PAL1	4	R1318N
942.883	0.0	828946	WAITING_START	n/a	n/a	-999	-999	n/a	n/a	n/a	n/a	7	[0, 0, 0]	-999	PAL1	4	R1318N
942.883	1.562	828946	TRIAL	n/a	n/a	-999	-999	n/a	n/a	n/a	n/a	7	[0, 0, 0]	-999	PAL1	4	R1318N
944.445	0.0	830508	WAITING_END	n/a	n/a	-999	-999	n/a	n/a	n/a	n/a	7	[0, 0, 0]	-999	PAL1	4	R1318N
944.445	10.0	830508	COUNTDOWN_START	n/a	n/a	-999	-999	n/a	n/a	n/a	n/a	7	[0, 0, 0]	-999	PAL1	4	R1318N
954.873	0.0	840936	COUNTDOWN_END	n/a	n/a	-999	-999	n/a	n/a	n/a	n/a	7	[0, 0, 0]	-999	PAL1	4	R1318N
954.873	0.741	840936	ORIENT_START	n/a	n/a	-999	-999	n/a	n/a	n/a	n/a	7	[0, 0, 0]	-999	PAL1	4	R1318N
955.614	0.0	841677	ORIENT_END	n/a	n/a	-999	-999	n/a	n/a	n/a	n/a	7	[0, 0, 0]	-999	PAL1	4	R1318N
955.614	1.021	841677	ENCODING_START	n/a	n/a	-999	-999	n/a	n/a	n/a	n/a	7	[0, 0, 0]	-999	PAL1	4	R1318N
956.635	4.0	842699	STUDY_PAIR	n/a	wordpools/wordpool_EN.txt	1	-999	n/a	TRAY	CAR	TRAY	7	[0, 0, 0]	-999	PAL1	4	R1318N
960.665	0.539	846729	STUDY_PAIR_OFF	n/a	n/a	1	-999	n/a	TRAY	CAR	TRAY	7	[0, 0, 0]	-999	PAL1	4	R1318N
961.204	4.0	847268	STUDY_PAIR	n/a	wordpools/wordpool_EN.txt	2	-999	n/a	BOOT	VEST	BOOT	7	[0, 0, 0]	-999	PAL1	4	R1318N
965.231	0.598	851295	STUDY_PAIR_OFF	n/a	n/a	2	-999	n/a	BOOT	VEST	BOOT	7	[0, 0, 0]	-999	PAL1	4	R1318N
965.829	4.0	851893	STUDY_PAIR	n/a	wordpools/wordpool_EN.txt	3	-999	n/a	BAND	VAN	ROAD	7	[0, 0, 0]	-999	PAL1	4	R1318N
969.865	0.579	855929	STUDY_PAIR_OFF	n/a	n/a	3	-999	n/a	BAND	VAN	ROAD	7	[0, 0, 0]	-999	PAL1	4	R1318N
970.444	4.0	856508	STUDY_PAIR	n/a	wordpools/wordpool_EN.txt	4	-999	n/a	SCHOOL	SCHOOL	DOOR	7	[0, 0, 0]	-999	PAL1	4	R1318N
974.483	0.63	860547	STUDY_PAIR_OFF	n/a	n/a	4	-999	n/a	SCHOOL	SCHOOL	DOOR	7	[0, 0, 0]	-999	PAL1	4	R1318N
975.113	4.0	861177	STUDY_PAIR	n/a	wordpools/wordpool_EN.txt	5	-999	n/a	SNOW	SNOW	ROPE	7	[0, 0, 0]	-999	PAL1	4	R1318N
979.15	0.627	865215	STUDY_PAIR_OFF	n/a	n/a	5	-999	n/a	SNOW	SNOW	ROPE	7	[0, 0, 0]	-999	PAL1	4	R1318N
979.777	4.0	865842	STUDY_PAIR	n/a	wordpools/wordpool_EN.txt	6	-999	n/a	WHALE	HOUSE	WHALE	7	[0, 0, 0]	-999	PAL1	4	R1318N
983.817	0.001	869882	STUDY_PAIR_OFF	n/a	n/a	6	-999	n/a	WHALE	HOUSE	WHALE	7	[0, 0, 0]	-999	PAL1	4	R1318N
983.818	0.0	869883	ENCODING_END	n/a	n/a	-999	-999	n/a	n/a	n/a	n/a	7	[0, 0, 0]	-999	PAL1	4	R1318N
983.818	0.0	869883	MATH_START	n/a	n/a	-999	-999	n/a	n/a	n/a	n/a	7	[0, 0, 0]	-999	PAL1	4	R1318N
983.818	0.016	869883	START	n/a	n/a	-999	-999	n/a	n/a	n/a	n/a	7	[-999, -999, -999]	-999	PAL1	4	R1318N
983.834	2.567	869899	PROB	2.54	n/a	-999	-999	n/a	n/a	n/a	n/a	7	[1, 5, 1]	7	PAL1	4	R1318N
986.401	3.351	872466	PROB	3.317	n/a	-999	-999	n/a	n/a	n/a	n/a	7	[3, 7, 8]	18	PAL1	4	R1318N
989.752	3.901	875817	PROB	3.87	n/a	-999	-999	n/a	n/a	n/a	n/a	7	[2, 9, 7]	18	PAL1	4	R1318N
993.653	2.833	879718	PROB	2.801	n/a	-999	-999	n/a	n/a	n/a	n/a	7	[2, 2, 6]	10	PAL1	4	R1318N
996.486	3.917	882551	PROB	3.888	n/a	-999	-999	n/a	n/a	n/a	n/a	7	[6, 6, 7]	19	PAL1	4	R1318N
1000.403	2.467	886468	PROB	2.435	n/a	-999	-999	n/a	n/a	n/a	n/a	7	[9, 3, 9]	21	PAL1	4	R1318N
1002.87	3.503	888936	PROB	3.503	n/a	-999	-999	n/a	n/a	n/a	n/a	7	[3, 4, 8]	15	PAL1	4	R1318N
1006.373	0.015	892439	STOP	n/a	n/a	-999	-999	n/a	n/a	n/a	n/a	7	[-999, -999, -999]	-999	PAL1	4	R1318N
1006.388	0.547	892454	MATH_END	n/a	n/a	-999	-999	n/a	n/a	n/a	n/a	7	[0, 0, 0]	-999	PAL1	4	R1318N
1006.935	0.002	893001	RETRIEVAL_START	n/a	n/a	-999	-999	n/a	n/a	n/a	n/a	7	[0, 0, 0]	-999	PAL1	4	R1318N
1006.937	0.284	893003	ORIENT_START	n/a	n/a	-999	-999	n/a	n/a	n/a	n/a	7	[0, 0, 0]	-999	PAL1	4	R1318N
1007.221	0.663	893287	ORIENT_END	n/a	n/a	-999	-999	n/a	n/a	n/a	n/a	7	[0, 0, 0]	-999	PAL1	4	R1318N
1007.884	0.0	893950	REC_START	n/a	n/a	5	1	ROPE	SNOW	SNOW	ROPE	7	[0, 0, 0]	-999	PAL1	4	R1318N
1007.884	4.0	893950	PROBE_START	n/a	wordpools/wordpool_EN.txt	5	1	ROPE	SNOW	SNOW	ROPE	7	[0, 0, 0]	-999	PAL1	4	R1318N
1009.616	2.306	895682	REC_EVENT	1.732	n/a	5	1	ROPE	SNOW	SNOW	ROPE	7	[0, 0, 0]	-999	PAL1	4	R1318N
1011.922	1.0	897988	PROBE_END	n/a	n/a	5	1	ROPE	n/a	SNOW	ROPE	7	[0, 0, 0]	-999	PAL1	4	R1318N
1012.922	0.011	898988	REC_END	n/a	n/a	5	1	ROPE	n/a	SNOW	ROPE	7	[0, 0, 0]	-999	PAL1	4	R1318N
1012.933	0.273	898999	ORIENT_START	n/a	n/a	-999	-999	n/a	n/a	n/a	n/a	7	[0, 0, 0]	-999	PAL1	4	R1318N
1013.206	0.523	899272	ORIENT_END	n/a	n/a	-999	-999	n/a	n/a	n/a	n/a	7	[0, 0, 0]	-999	PAL1	4	R1318N
1013.729	0.0	899795	REC_START	n/a	n/a	2	2	VEST	BOOT	VEST	BOOT	7	[0, 0, 0]	-999	PAL1	4	R1318N
1013.729	4.0	899795	PROBE_START	n/a	wordpools/wordpool_EN.txt	2	2	VEST	BOOT	VEST	BOOT	7	[0, 0, 0]	-999	PAL1	4	R1318N
1015.351	2.405	901417	REC_EVENT	1.622	n/a	2	2	VEST	BOOT	VEST	BOOT	7	[0, 0, 0]	-999	PAL1	4	R1318N
1017.756	1.0	903822	PROBE_END	n/a	n/a	2	2	VEST	n/a	VEST	BOOT	7	[0, 0, 0]	-999	PAL1	4	R1318N
1018.756	0.011	904822	REC_END	n/a	n/a	2	2	VEST	n/a	VEST	BOOT	7	[0, 0, 0]	-999	PAL1	4	R1318N
1018.767	0.273	904833	ORIENT_START	n/a	n/a	-999	-999	n/a	n/a	n/a	n/a	7	[0, 0, 0]	-999	PAL1	4	R1318N
1019.04	0.711	905106	ORIENT_END	n/a	n/a	-999	-999	n/a	n/a	n/a	n/a	7	[0, 0, 0]	-999	PAL1	4	R1318N
1019.751	0.001	905817	REC_START	n/a	n/a	3	3	ROAD	BAND	VAN	ROAD	7	[0, 0, 0]	-999	PAL1	4	R1318N
1019.752	4.0	905818	PROBE_START	n/a	wordpools/wordpool_EN.txt	3	3	ROAD	BAND	VAN	ROAD	7	[0, 0, 0]	-999	PAL1	4	R1318N
1021.741	2.05	907807	REC_EVENT	1.989	n/a	3	3	ROAD	BAND	VAN	ROAD	7	[0, 0, 0]	-999	PAL1	4	R1318N
1023.791	1.0	909857	PROBE_END	n/a	n/a	3	3	ROAD	n/a	VAN	ROAD	7	[0, 0, 0]	-999	PAL1	4	R1318N
1024.791	0.011	910857	REC_END	n/a	n/a	3	3	ROAD	n/a	VAN	ROAD	7	[0, 0, 0]	-999	PAL1	4	R1318N
1024.802	0.273	910868	ORIENT_START	n/a	n/a	-999	-999	n/a	n/a	n/a	n/a	7	[0, 0, 0]	-999	PAL1	4	R1318N
1025.075	0.54	911141	ORIENT_END	n/a	n/a	-999	-999	n/a	n/a	n/a	n/a	7	[0, 0, 0]	-999	PAL1	4	R1318N
1025.615	0.001	911682	REC_START	n/a	n/a	6	4	HOUSE	WHALE	HOUSE	WHALE	7	[0, 0, 0]	-999	PAL1	4	R1318N
1025.616	4.0	911683	PROBE_START	n/a	wordpools/wordpool_EN.txt	6	4	HOUSE	WHALE	HOUSE	WHALE	7	[0, 0, 0]	-999	PAL1	4	R1318N
1027.261	2.382	913328	REC_EVENT	1.645	n/a	6	4	HOUSE	WHALE	HOUSE	WHALE	7	[0, 0, 0]	-999	PAL1	4	R1318N
1029.643	1.001	915710	PROBE_END	n/a	n/a	6	4	HOUSE	n/a	HOUSE	WHALE	7	[0, 0, 0]	-999	PAL1	4	R1318N
1030.644	0.011	916711	REC_END	n/a	n/a	6	4	HOUSE	n/a	HOUSE	WHALE	7	[0, 0, 0]	-999	PAL1	4	R1318N
1030.655	0.27	916722	ORIENT_START	n/a	n/a	-999	-999	n/a	n/a	n/a	n/a	7	[0, 0, 0]	-999	PAL1	4	R1318N
1030.925	0.641	916992	ORIENT_END	n/a	n/a	-999	-999	n/a	n/a	n/a	n/a	7	[0, 0, 0]	-999	PAL1	4	R1318N
1031.566	0.001	917633	REC_START	n/a	n/a	1	5	CAR	TRAY	CAR	TRAY	7	[0, 0, 0]	-999	PAL1	4	R1318N
1031.567	4.0	917634	PROBE_START	n/a	wordpools/wordpool_EN.txt	1	5	CAR	TRAY	CAR	TRAY	7	[0, 0, 0]	-999	PAL1	4	R1318N
1033.039	2.554	919106	REC_EVENT	1.472	n/a	1	5	CAR	TRAY	CAR	TRAY	7	[0, 0, 0]	-999	PAL1	4	R1318N
1035.593	1.001	921660	PROBE_END	n/a	n/a	1	5	CAR	n/a	CAR	TRAY	7	[0, 0, 0]	-999	PAL1	4	R1318N
1036.594	0.013	922661	REC_END	n/a	n/a	1	5	CAR	n/a	CAR	TRAY	7	[0, 0, 0]	-999	PAL1	4	R1318N
1036.607	0.269	922674	ORIENT_START	n/a	n/a	-999	-999	n/a	n/a	n/a	n/a	7	[0, 0, 0]	-999	PAL1	4	R1318N
1036.876	0.541	922943	ORIENT_END	n/a	n/a	-999	-999	n/a	n/a	n/a	n/a	7	[0, 0, 0]	-999	PAL1	4	R1318N
1037.417	0.0	923484	REC_START	n/a	n/a	4	6	DOOR	SCHOOL	SCHOOL	DOOR	7	[0, 0, 0]	-999	PAL1	4	R1318N
1037.417	4.0	923484	PROBE_START	n/a	wordpools/wordpool_EN.txt	4	6	DOOR	SCHOOL	SCHOOL	DOOR	7	[0, 0, 0]	-999	PAL1	4	R1318N
1039.194	2.25	925261	REC_EVENT	1.777	n/a	4	6	DOOR	SCHOOL	SCHOOL	DOOR	7	[0, 0, 0]	-999	PAL1	4	R1318N
1041.444	0.999	927511	PROBE_END	n/a	n/a	4	6	DOOR	n/a	SCHOOL	DOOR	7	[0, 0, 0]	-999	PAL1	4	R1318N
1042.443	0.011	928510	REC_END	n/a	n/a	4	6	DOOR	n/a	SCHOOL	DOOR	7	[0, 0, 0]	-999	PAL1	4	R1318N
1042.454	0.001	928521	RETRIEVAL_END	n/a	n/a	-999	-999	n/a	n/a	n/a	n/a	7	[0, 0, 0]	-999	PAL1	4	R1318N
1042.455	0.02	928522	TRIAL_END	n/a	n/a	-999	-999	n/a	n/a	n/a	n/a	7	[0, 0, 0]	-999	PAL1	4	R1318N
1042.475	0.0	928542	TRIAL_START	n/a	n/a	-999	-999	n/a	n/a	n/a	n/a	7	[0, 0, 0]	-999	PAL1	4	R1318N
1042.475	0.0	928542	TRIAL	n/a	n/a	-999	-999	n/a	n/a	n/a	n/a	8	[0, 0, 0]	-999	PAL1	4	R1318N
1042.475	1.536	928542	WAITING_START	n/a	n/a	-999	-999	n/a	n/a	n/a	n/a	8	[0, 0, 0]	-999	PAL1	4	R1318N
1044.011	10.0	930078	COUNTDOWN_START	n/a	n/a	-999	-999	n/a	n/a	n/a	n/a	8	[0, 0, 0]	-999	PAL1	4	R1318N
1044.011	10.43	930078	WAITING_END	n/a	n/a	-999	-999	n/a	n/a	n/a	n/a	8	[0, 0, 0]	-999	PAL1	4	R1318N
1054.441	0.0	940509	COUNTDOWN_END	n/a	n/a	-999	-999	n/a	n/a	n/a	n/a	8	[0, 0, 0]	-999	PAL1	4	R1318N
1054.441	0.738	940509	ORIENT_START	n/a	n/a	-999	-999	n/a	n/a	n/a	n/a	8	[0, 0, 0]	-999	PAL1	4	R1318N
1055.179	0.001	941247	ORIENT_END	n/a	n/a	-999	-999	n/a	n/a	n/a	n/a	8	[0, 0, 0]	-999	PAL1	4	R1318N
1055.18	1.09	941248	ENCODING_START	n/a	n/a	-999	-999	n/a	n/a	n/a	n/a	8	[0, 0, 0]	-999	PAL1	4	R1318N
1056.27	4.0	942338	STUDY_PAIR	n/a	wordpools/wordpool_EN.txt	1	-999	n/a	DOG	DOG	ROOF	8	[0, 0, 0]	-999	PAL1	4	R1318N
1060.297	0.525	946365	STUDY_PAIR_OFF	n/a	n/a	1	-999	n/a	DOG	DOG	ROOF	8	[0, 0, 0]	-999	PAL1	4	R1318N
1060.822	4.0	946890	STUDY_PAIR	n/a	wordpools/wordpool_EN.txt	2	-999	n/a	GOLD	GOLD	PEN	8	[0, 0, 0]	-999	PAL1	4	R1318N
1064.848	0.741	950916	STUDY_PAIR_OFF	n/a	n/a	2	-999	n/a	GOLD	GOLD	PEN	8	[0, 0, 0]	-999	PAL1	4	R1318N
1065.589	4.0	951657	STUDY_PAIR	n/a	wordpools/wordpool_EN.txt	3	-999	n/a	CASH	CASH	PEA	8	[0, 0, 0]	-999	PAL1	4	R1318N
1069.616	0.672	955684	STUDY_PAIR_OFF	n/a	n/a	3	-999	n/a	CASH	CASH	PEA	8	[0, 0, 0]	-999	PAL1	4	R1318N
1070.288	4.0	956356	STUDY_PAIR	n/a	wordpools/wordpool_EN.txt	4	-999	n/a	n/a	ANT	BARN	8	[0, 0, 0]	-999	PAL1	4	R1318N
1074.316	0.712	960385	STUDY_PAIR_OFF	n/a	n/a	4	-999	n/a	n/a	ANT	BARN	8	[0, 0, 0]	-999	PAL1	4	R1318N
1075.028	4.0	961097	STUDY_PAIR	n/a	wordpools/wordpool_EN.txt	5	-999	n/a	PARK	TRAIN	PARK	8	[0, 0, 0]	-999	PAL1	4	R1318N
1079.067	0.666	965136	STUDY_PAIR_OFF	n/a	n/a	5	-999	n/a	PARK	TRAIN	PARK	8	[0, 0, 0]	-999	PAL1	4	R1318N
1079.733	4.0	965802	STUDY_PAIR	n/a	wordpools/wordpool_EN.txt	6	-999	n/a	OAR	SQUARE	OAR	8	[0, 0, 0]	-999	PAL1	4	R1318N
1083.767	0.001	969836	STUDY_PAIR_OFF	n/a	n/a	6	-999	n/a	OAR	SQUARE	OAR	8	[0, 0, 0]	-999	PAL1	4	R1318N
1083.768	0.0	969837	ENCODING_END	n/a	n/a	-999	-999	n/a	n/a	n/a	n/a	8	[0, 0, 0]	-999	PAL1	4	R1318N
1083.768	0.0	969837	MATH_START	n/a	n/a	-999	-999	n/a	n/a	n/a	n/a	8	[0, 0, 0]	-999	PAL1	4	R1318N
1083.768	0.016	969837	START	n/a	n/a	-999	-999	n/a	n/a	n/a	n/a	8	[-999, -999, -999]	-999	PAL1	4	R1318N
1083.784	2.267	969853	PROB	2.237	n/a	-999	-999	n/a	n/a	n/a	n/a	8	[8, 2, 4]	14	PAL1	4	R1318N
1086.051	2.734	972120	PROB	2.707	n/a	-999	-999	n/a	n/a	n/a	n/a	8	[2, 3, 5]	10	PAL1	4	R1318N
1088.785	2.7	974854	PROB	2.661	n/a	-999	-999	n/a	n/a	n/a	n/a	8	[6, 4, 7]	17	PAL1	4	R1318N
1091.485	5.051	977554	PROB	5.017	n/a	-999	-999	n/a	n/a	n/a	n/a	8	[4, 4, 5]	13	PAL1	4	R1318N
1096.536	3.701	982606	PROB	3.662	n/a	-999	-999	n/a	n/a	n/a	n/a	8	[8, 7, 8]	23	PAL1	4	R1318N
1100.237	3.977	986307	PROB	3.977	n/a	-999	-999	n/a	n/a	n/a	n/a	8	[8, 8, 7]	23	PAL1	4	R1318N
1104.214	0.007	990284	STOP	n/a	n/a	-999	-999	n/a	n/a	n/a	n/a	8	[-999, -999, -999]	-999	PAL1	4	R1318N
1104.221	0.553	990291	MATH_END	n/a	n/a	-999	-999	n/a	n/a	n/a	n/a	8	[0, 0, 0]	-999	PAL1	4	R1318N
1104.774	0.002	990844	RETRIEVAL_START	n/a	n/a	-999	-999	n/a	n/a	n/a	n/a	8	[0, 0, 0]	-999	PAL1	4	R1318N
1104.776	0.278	990846	ORIENT_START	n/a	n/a	-999	-999	n/a	n/a	n/a	n/a	8	[0, 0, 0]	-999	PAL1	4	R1318N
1105.054	0.748	991124	ORIENT_END	n/a	n/a	-999	-999	n/a	n/a	n/a	n/a	8	[0, 0, 0]	-999	PAL1	4	R1318N
1105.802	0.0	991872	REC_START	n/a	n/a	5	1	TRAIN	PARK	TRAIN	PARK	8	[0, 0, 0]	-999	PAL1	4	R1318N
1105.802	4.0	991872	PROBE_START	n/a	wordpools/wordpool_EN.txt	5	1	TRAIN	PARK	TRAIN	PARK	8	[0, 0, 0]	-999	PAL1	4	R1318N
1107.692	2.146	993762	REC_EVENT	1.89	n/a	5	1	TRAIN	PARK	TRAIN	PARK	8	[0, 0, 0]	-999	PAL1	4	R1318N
1109.838	1.0	995908	PROBE_END	n/a	n/a	5	1	TRAIN	n/a	TRAIN	PARK	8	[0, 0, 0]	-999	PAL1	4	R1318N
1110.838	0.007	996908	REC_END	n/a	n/a	5	1	TRAIN	n/a	TRAIN	PARK	8	[0, 0, 0]	-999	PAL1	4	R1318N
1110.845	0.277	996915	ORIENT_START	n/a	n/a	-999	-999	n/a	n/a	n/a	n/a	8	[0, 0, 0]	-999	PAL1	4	R1318N
1111.122	0.689	997192	ORIENT_END	n/a	n/a	-999	-999	n/a	n/a	n/a	n/a	8	[0, 0, 0]	-999	PAL1	4	R1318N
1111.811	0.0	997881	REC_START	n/a	n/a	2	2	PEN	GOLD	GOLD	PEN	8	[0, 0, 0]	-999	PAL1	4	R1318N
1111.811	4.0	997881	PROBE_START	n/a	wordpools/wordpool_EN.txt	2	2	PEN	GOLD	GOLD	PEN	8	[0, 0, 0]	-999	PAL1	4	R1318N
1113.567	2.272	999637	REC_EVENT	1.756	n/a	2	2	PEN	GOLD	GOLD	PEN	8	[0, 0, 0]	-999	PAL1	4	R1318N
1115.839	1.001	1001909	PROBE_END	n/a	n/a	2	2	PEN	n/a	GOLD	PEN	8	[0, 0, 0]	-999	PAL1	4	R1318N
1116.84	0.011	1002910	REC_END	n/a	n/a	2	2	PEN	n/a	GOLD	PEN	8	[0, 0, 0]	-999	PAL1	4	R1318N
1116.851	0.272	1002921	ORIENT_START	n/a	n/a	-999	-999	n/a	n/a	n/a	n/a	8	[0, 0, 0]	-999	PAL1	4	R1318N
1117.123	0.542	1003193	ORIENT_END	n/a	n/a	-999	-999	n/a	n/a	n/a	n/a	8	[0, 0, 0]	-999	PAL1	4	R1318N
1117.665	0.0	1003735	REC_START	n/a	n/a	1	3	ROOF	DOG	DOG	ROOF	8	[0, 0, 0]	-999	PAL1	4	R1318N
1117.665	4.0	1003735	PROBE_START	n/a	wordpools/wordpool_EN.txt	1	3	ROOF	DOG	DOG	ROOF	8	[0, 0, 0]	-999	PAL1	4	R1318N
1119.071	2.619	1005142	REC_EVENT	1.406	n/a	1	3	ROOF	DOG	DOG	ROOF	8	[0, 0, 0]	-999	PAL1	4	R1318N
1121.69	1.0	1007761	PROBE_END	n/a	n/a	1	3	ROOF	n/a	DOG	ROOF	8	[0, 0, 0]	-999	PAL1	4	R1318N
1122.69	0.01	1008761	REC_END	n/a	n/a	1	3	ROOF	n/a	DOG	ROOF	8	[0, 0, 0]	-999	PAL1	4	R1318N
1122.7	0.274	1008771	ORIENT_START	n/a	n/a	-999	-999	n/a	n/a	n/a	n/a	8	[0, 0, 0]	-999	PAL1	4	R1318N
1122.974	0.66	1009045	ORIENT_END	n/a	n/a	-999	-999	n/a	n/a	n/a	n/a	8	[0, 0, 0]	-999	PAL1	4	R1318N
1123.634	0.001	1009705	REC_START	n/a	n/a	6	4	SQUARE	OAR	SQUARE	OAR	8	[0, 0, 0]	-999	PAL1	4	R1318N
1123.635	4.0	1009706	PROBE_START	n/a	wordpools/wordpool_EN.txt	6	4	SQUARE	OAR	SQUARE	OAR	8	[0, 0, 0]	-999	PAL1	4	R1318N
1125.256	2.403	1011327	REC_EVENT	1.621	n/a	6	4	SQUARE	OAR	SQUARE	OAR	8	[0, 0, 0]	-999	PAL1	4	R1318N
1127.659	1.001	1013730	PROBE_END	n/a	n/a	6	4	SQUARE	n/a	SQUARE	OAR	8	[0, 0, 0]	-999	PAL1	4	R1318N
1128.66	0.013	1014731	REC_END	n/a	n/a	6	4	SQUARE	n/a	SQUARE	OAR	8	[0, 0, 0]	-999	PAL1	4	R1318N
1128.673	0.285	1014744	ORIENT_START	n/a	n/a	-999	-999	n/a	n/a	n/a	n/a	8	[0, 0, 0]	-999	PAL1	4	R1318N
1128.958	0.593	1015029	ORIENT_END	n/a	n/a	-999	-999	n/a	n/a	n/a	n/a	8	[0, 0, 0]	-999	PAL1	4	R1318N
1129.551	0.001	1015622	REC_START	n/a	n/a	3	5	PEA	CASH	CASH	PEA	8	[0, 0, 0]	-999	PAL1	4	R1318N
1129.552	4.0	1015623	PROBE_START	n/a	wordpools/wordpool_EN.txt	3	5	PEA	CASH	CASH	PEA	8	[0, 0, 0]	-999	PAL1	4	R1318N
1131.386	2.19	1017457	REC_EVENT	1.834	n/a	3	5	PEA	CASH	CASH	PEA	8	[0, 0, 0]	-999	PAL1	4	R1318N
1133.576	1.0	1019647	PROBE_END	n/a	n/a	3	5	PEA	n/a	CASH	PEA	8	[0, 0, 0]	-999	PAL1	4	R1318N
1134.576	0.012	1020647	REC_END	n/a	n/a	3	5	PEA	n/a	CASH	PEA	8	[0, 0, 0]	-999	PAL1	4	R1318N
1134.588	0.271	1020659	ORIENT_START	n/a	n/a	-999	-999	n/a	n/a	n/a	n/a	8	[0, 0, 0]	-999	PAL1	4	R1318N
1134.859	0.746	1020930	ORIENT_END	n/a	n/a	-999	-999	n/a	n/a	n/a	n/a	8	[0, 0, 0]	-999	PAL1	4	R1318N
1135.605	0.0	1021676	REC_START	n/a	n/a	4	6	ANT	n/a	ANT	BARN	8	[0, 0, 0]	-999	PAL1	4	R1318N
1135.605	4.0	1021676	PROBE_START	n/a	wordpools/wordpool_EN.txt	4	6	ANT	n/a	ANT	BARN	8	[0, 0, 0]	-999	PAL1	4	R1318N
1139.627	1.0	1025698	PROBE_END	n/a	n/a	4	6	ANT	n/a	ANT	BARN	8	[0, 0, 0]	-999	PAL1	4	R1318N
1140.627	0.005	1026698	REC_END	n/a	n/a	4	6	ANT	n/a	ANT	BARN	8	[0, 0, 0]	-999	PAL1	4	R1318N
1140.632	0.0	1026703	RETRIEVAL_END	n/a	n/a	-999	-999	n/a	n/a	n/a	n/a	8	[0, 0, 0]	-999	PAL1	4	R1318N
1140.632	0.02	1026703	TRIAL_END	n/a	n/a	-999	-999	n/a	n/a	n/a	n/a	8	[0, 0, 0]	-999	PAL1	4	R1318N
1140.652	0.0	1026723	TRIAL_START	n/a	n/a	-999	-999	n/a	n/a	n/a	n/a	8	[0, 0, 0]	-999	PAL1	4	R1318N
1140.652	0.0	1026723	TRIAL	n/a	n/a	-999	-999	n/a	n/a	n/a	n/a	9	[0, 0, 0]	-999	PAL1	4	R1318N
1140.652	0.94	1026723	WAITING_START	n/a	n/a	-999	-999	n/a	n/a	n/a	n/a	9	[0, 0, 0]	-999	PAL1	4	R1318N
1141.592	0.568	1027663	REC_EVENT	5.987	n/a	4	6	ANT	<>	ANT	BARN	8	[0, 0, 0]	-999	PAL1	4	R1318N
1142.16	0.001	1028232	WAITING_END	n/a	n/a	-999	-999	n/a	n/a	n/a	n/a	9	[0, 0, 0]	-999	PAL1	4	R1318N
1142.161	10.0	1028233	COUNTDOWN_START	n/a	n/a	-999	-999	n/a	n/a	n/a	n/a	9	[0, 0, 0]	-999	PAL1	4	R1318N
1152.59	0.0	1038662	ORIENT_START	n/a	n/a	-999	-999	n/a	n/a	n/a	n/a	9	[0, 0, 0]	-999	PAL1	4	R1318N
1152.59	0.689	1038662	COUNTDOWN_END	n/a	n/a	-999	-999	n/a	n/a	n/a	n/a	9	[0, 0, 0]	-999	PAL1	4	R1318N
1153.279	0.0	1039351	ORIENT_END	n/a	n/a	-999	-999	n/a	n/a	n/a	n/a	9	[0, 0, 0]	-999	PAL1	4	R1318N
1153.279	1.239	1039351	ENCODING_START	n/a	n/a	-999	-999	n/a	n/a	n/a	n/a	9	[0, 0, 0]	-999	PAL1	4	R1318N
1154.518	4.0	1040590	STUDY_PAIR	n/a	wordpools/wordpool_EN.txt	1	-999	n/a	WORM	WOOD	WORM	9	[0, 0, 0]	-999	PAL1	4	R1318N
1158.546	0.584	1044618	STUDY_PAIR_OFF	n/a	n/a	1	-999	n/a	WORM	WOOD	WORM	9	[0, 0, 0]	-999	PAL1	4	R1318N
1159.13	4.0	1045202	STUDY_PAIR	n/a	wordpools/wordpool_EN.txt	2	-999	n/a	SIGN	SIGN	FUR	9	[0, 0, 0]	-999	PAL1	4	R1318N
1163.164	0.654	1049236	STUDY_PAIR_OFF	n/a	n/a	2	-999	n/a	SIGN	SIGN	FUR	9	[0, 0, 0]	-999	PAL1	4	R1318N
1163.818	4.0	1049890	STUDY_PAIR	n/a	wordpools/wordpool_EN.txt	3	-999	n/a	FENCE	FENCE	MOUSE	9	[0, 0, 0]	-999	PAL1	4	R1318N
1167.848	0.714	1053921	STUDY_PAIR_OFF	n/a	n/a	3	-999	n/a	FENCE	FENCE	MOUSE	9	[0, 0, 0]	-999	PAL1	4	R1318N
1168.562	4.0	1054635	STUDY_PAIR	n/a	wordpools/wordpool_EN.txt	4	-999	n/a	PET	PET	FARM	9	[0, 0, 0]	-999	PAL1	4	R1318N
1172.6	0.558	1058673	STUDY_PAIR_OFF	n/a	n/a	4	-999	n/a	PET	PET	FARM	9	[0, 0, 0]	-999	PAL1	4	R1318N
1173.158	4.0	1059231	STUDY_PAIR	n/a	wordpools/wordpool_EN.txt	5	-999	n/a	EEL	LEAF	EEL	9	[0, 0, 0]	-999	PAL1	4	R1318N
1177.183	0.747	1063256	STUDY_PAIR_OFF	n/a	n/a	5	-999	n/a	EEL	LEAF	EEL	9	[0, 0, 0]	-999	PAL1	4	R1318N
1177.93	4.0	1064003	STUDY_PAIR	n/a	wordpools/wordpool_EN.txt	6	-999	n/a	PIPE	SKUNK	PIPE	9	[0, 0, 0]	-999	PAL1	4	R1318N
1181.95	0.001	1068023	STUDY_PAIR_OFF	n/a	n/a	6	-999	n/a	PIPE	SKUNK	PIPE	9	[0, 0, 0]	-999	PAL1	4	R1318N
1181.951	0.0	1068024	ENCODING_END	n/a	n/a	-999	-999	n/a	n/a	n/a	n/a	9	[0, 0, 0]	-999	PAL1	4	R1318N
1181.951	0.0	1068024	MATH_START	n/a	n/a	-999	-999	n/a	n/a	n/a	n/a	9	[0, 0, 0]	-999	PAL1	4	R1318N
1181.951	0.016	1068024	START	n/a	n/a	-999	-999	n/a	n/a	n/a	n/a	9	[-999, -999, -999]	-999	PAL1	4	R1318N
1181.967	3.134	1068040	PROB	3.111	n/a	-999	-999	n/a	n/a	n/a	n/a	9	[9, 6, 4]	19	PAL1	4	R1318N
1185.101	3.05	1071174	PROB	3.016	n/a	-999	-999	n/a	n/a	n/a	n/a	9	[4, 3, 5]	12	PAL1	4	R1318N
1188.151	4.051	1074225	PROB	4.015	n/a	-999	-999	n/a	n/a	n/a	n/a	9	[4, 5, 4]	13	PAL1	4	R1318N
1192.202	2.15	1078276	PROB	2.123	n/a	-999	-999	n/a	n/a	n/a	n/a	9	[1, 9, 3]	13	PAL1	4	R1318N
1194.352	4.151	1080426	PROB	4.118	n/a	-999	-999	n/a	n/a	n/a	n/a	9	[3, 3, 9]	15	PAL1	4	R1318N
1198.503	2.55	1084577	PROB	2.527	n/a	-999	-999	n/a	n/a	n/a	n/a	9	[7, 1, 3]	11	PAL1	4	R1318N
1201.053	5.113	1087127	PROB	5.113	n/a	-999	-999	n/a	n/a	n/a	n/a	9	[7, 2, 9]	18	PAL1	4	R1318N
1206.166	0.022	1092240	STOP	n/a	n/a	-999	-999	n/a	n/a	n/a	n/a	9	[-999, -999, -999]	-999	PAL1	4	R1318N
1206.188	0.539	1092262	MATH_END	n/a	n/a	-999	-999	n/a	n/a	n/a	n/a	9	[0, 0, 0]	-999	PAL1	4	R1318N
1206.727	0.001	1092801	RETRIEVAL_START	n/a	n/a	-999	-999	n/a	n/a	n/a	n/a	9	[0, 0, 0]	-999	PAL1	4	R1318N
1206.728	0.276	1092802	ORIENT_START	n/a	n/a	-999	-999	n/a	n/a	n/a	n/a	9	[0, 0, 0]	-999	PAL1	4	R1318N
1207.004	0.629	1093078	ORIENT_END	n/a	n/a	-999	-999	n/a	n/a	n/a	n/a	9	[0, 0, 0]	-999	PAL1	4	R1318N
1207.633	0.0	1093707	REC_START	n/a	n/a	5	1	LEAF	EEL	LEAF	EEL	9	[0, 0, 0]	-999	PAL1	4	R1318N
1207.633	4.0	1093707	PROBE_START	n/a	wordpools/wordpool_EN.txt	5	1	LEAF	EEL	LEAF	EEL	9	[0, 0, 0]	-999	PAL1	4	R1318N
1209.37	2.286	1095444	REC_EVENT	1.737	n/a	5	1	LEAF	EEL	LEAF	EEL	9	[0, 0, 0]	-999	PAL1	4	R1318N
1211.656	1.0	1097731	PROBE_END	n/a	n/a	5	1	LEAF	n/a	LEAF	EEL	9	[0, 0, 0]	-999	PAL1	4	R1318N
1212.656	0.012	1098731	REC_END	n/a	n/a	5	1	LEAF	n/a	LEAF	EEL	9	[0, 0, 0]	-999	PAL1	4	R1318N
1212.668	0.271	1098743	ORIENT_START	n/a	n/a	-999	-999	n/a	n/a	n/a	n/a	9	[0, 0, 0]	-999	PAL1	4	R1318N
1212.939	0.587	1099014	ORIENT_END	n/a	n/a	-999	-999	n/a	n/a	n/a	n/a	9	[0, 0, 0]	-999	PAL1	4	R1318N
1213.526	0.0	1099601	REC_START	n/a	n/a	6	2	SKUNK	PIPE	SKUNK	PIPE	9	[0, 0, 0]	-999	PAL1	4	R1318N
1213.526	4.0	1099601	PROBE_START	n/a	wordpools/wordpool_EN.txt	6	2	SKUNK	PIPE	SKUNK	PIPE	9	[0, 0, 0]	-999	PAL1	4	R1318N
1215.228	2.328	1101303	REC_EVENT	1.702	n/a	6	2	SKUNK	PIPE	SKUNK	PIPE	9	[0, 0, 0]	-999	PAL1	4	R1318N
1217.556	1.0	1103631	PROBE_END	n/a	n/a	6	2	SKUNK	n/a	SKUNK	PIPE	9	[0, 0, 0]	-999	PAL1	4	R1318N
1218.556	0.012	1104631	REC_END	n/a	n/a	6	2	SKUNK	n/a	SKUNK	PIPE	9	[0, 0, 0]	-999	PAL1	4	R1318N
1218.568	0.271	1104643	ORIENT_START	n/a	n/a	-999	-999	n/a	n/a	n/a	n/a	9	[0, 0, 0]	-999	PAL1	4	R1318N
1218.839	0.686	1104914	ORIENT_END	n/a	n/a	-999	-999	n/a	n/a	n/a	n/a	9	[0, 0, 0]	-999	PAL1	4	R1318N
1219.525	0.001	1105600	REC_START	n/a	n/a	1	3	WOOD	WORM	WOOD	WORM	9	[0, 0, 0]	-999	PAL1	4	R1318N
1219.526	4.0	1105601	PROBE_START	n/a	wordpools/wordpool_EN.txt	1	3	WOOD	WORM	WOOD	WORM	9	[0, 0, 0]	-999	PAL1	4	R1318N
1221.426	2.114	1107501	REC_EVENT	1.9	n/a	1	3	WOOD	WORM	WOOD	WORM	9	[0, 0, 0]	-999	PAL1	4	R1318N
1223.54	1.001	1109615	PROBE_END	n/a	n/a	1	3	WOOD	n/a	WOOD	WORM	9	[0, 0, 0]	-999	PAL1	4	R1318N
1224.541	0.013	1110616	REC_END	n/a	n/a	1	3	WOOD	n/a	WOOD	WORM	9	[0, 0, 0]	-999	PAL1	4	R1318N
1224.554	0.27	1110629	ORIENT_START	n/a	n/a	-999	-999	n/a	n/a	n/a	n/a	9	[0, 0, 0]	-999	PAL1	4	R1318N
1224.824	0.693	1110899	ORIENT_END	n/a	n/a	-999	-999	n/a	n/a	n/a	n/a	9	[0, 0, 0]	-999	PAL1	4	R1318N
1225.517	0.0	1111592	REC_START	n/a	n/a	2	4	FUR	SIGN	SIGN	FUR	9	[0, 0, 0]	-999	PAL1	4	R1318N
1225.517	4.0	1111592	PROBE_START	n/a	wordpools/wordpool_EN.txt	2	4	FUR	SIGN	SIGN	FUR	9	[0, 0, 0]	-999	PAL1	4	R1318N
1227.192	2.349	1113267	REC_EVENT	1.675	n/a	2	4	FUR	SIGN	SIGN	FUR	9	[0, 0, 0]	-999	PAL1	4	R1318N
1229.541	1.0	1115616	PROBE_END	n/a	n/a	2	4	FUR	n/a	SIGN	FUR	9	[0, 0, 0]	-999	PAL1	4	R1318N
1230.541	0.013	1116616	REC_END	n/a	n/a	2	4	FUR	n/a	SIGN	FUR	9	[0, 0, 0]	-999	PAL1	4	R1318N
1230.554	0.271	1116629	ORIENT_START	n/a	n/a	-999	-999	n/a	n/a	n/a	n/a	9	[0, 0, 0]	-999	PAL1	4	R1318N
1230.825	0.682	1116900	ORIENT_END	n/a	n/a	-999	-999	n/a	n/a	n/a	n/a	9	[0, 0, 0]	-999	PAL1	4	R1318N
1231.507	0.001	1117582	REC_START	n/a	n/a	3	5	MOUSE	FENCE	FENCE	MOUSE	9	[0, 0, 0]	-999	PAL1	4	R1318N
1231.508	4.0	1117583	PROBE_START	n/a	wordpools/wordpool_EN.txt	3	5	MOUSE	FENCE	FENCE	MOUSE	9	[0, 0, 0]	-999	PAL1	4	R1318N
1233.285	2.257	1119360	REC_EVENT	1.777	n/a	3	5	MOUSE	FENCE	FENCE	MOUSE	9	[0, 0, 0]	-999	PAL1	4	R1318N
1235.542	1.0	1121618	PROBE_END	n/a	n/a	3	5	MOUSE	n/a	FENCE	MOUSE	9	[0, 0, 0]	-999	PAL1	4	R1318N
1236.542	0.012	1122618	REC_END	n/a	n/a	3	5	MOUSE	n/a	FENCE	MOUSE	9	[0, 0, 0]	-999	PAL1	4	R1318N
1236.554	0.272	1122630	ORIENT_START	n/a	n/a	-999	-999	n/a	n/a	n/a	n/a	9	[0, 0, 0]	-999	PAL1	4	R1318N
1236.826	0.601	1122902	ORIENT_END	n/a	n/a	-999	-999	n/a	n/a	n/a	n/a	9	[0, 0, 0]	-999	PAL1	4	R1318N
1237.427	0.0	1123503	REC_START	n/a	n/a	4	6	FARM	PET	PET	FARM	9	[0, 0, 0]	-999	PAL1	4	R1318N
1237.427	4.0	1123503	PROBE_START	n/a	wordpools/wordpool_EN.txt	4	6	FARM	PET	PET	FARM	9	[0, 0, 0]	-999	PAL1	4	R1318N
1239.372	2.071	1125448	REC_EVENT	1.945	n/a	4	6	FARM	PET	PET	FARM	9	[0, 0, 0]	-999	PAL1	4	R1318N
1241.443	1.001	1127519	PROBE_END	n/a	n/a	4	6	FARM	n/a	PET	FARM	9	[0, 0, 0]	-999	PAL1	4	R1318N
1242.444	0.01	1128520	REC_END	n/a	n/a	4	6	FARM	n/a	PET	FARM	9	[0, 0, 0]	-999	PAL1	4	R1318N
1242.454	0.0	1128530	RETRIEVAL_END	n/a	n/a	-999	-999	n/a	n/a	n/a	n/a	9	[0, 0, 0]	-999	PAL1	4	R1318N
1242.454	0.019	1128530	TRIAL_END	n/a	n/a	-999	-999	n/a	n/a	n/a	n/a	9	[0, 0, 0]	-999	PAL1	4	R1318N
1242.473	0.0	1128549	TRIAL_START	n/a	n/a	-999	-999	n/a	n/a	n/a	n/a	9	[0, 0, 0]	-999	PAL1	4	R1318N
1242.473	0.0	1128549	TRIAL	n/a	n/a	-999	-999	n/a	n/a	n/a	n/a	10	[0, 0, 0]	-999	PAL1	4	R1318N
1242.473	1.804	1128549	WAITING_START	n/a	n/a	-999	-999	n/a	n/a	n/a	n/a	10	[0, 0, 0]	-999	PAL1	4	R1318N
1244.277	0.0	1130353	WAITING_END	n/a	n/a	-999	-999	n/a	n/a	n/a	n/a	10	[0, 0, 0]	-999	PAL1	4	R1318N
1244.277	10.0	1130353	COUNTDOWN_START	n/a	n/a	-999	-999	n/a	n/a	n/a	n/a	10	[0, 0, 0]	-999	PAL1	4	R1318N
1254.708	0.0	1140784	ORIENT_START	n/a	n/a	-999	-999	n/a	n/a	n/a	n/a	10	[0, 0, 0]	-999	PAL1	4	R1318N
1254.708	0.671	1140784	COUNTDOWN_END	n/a	n/a	-999	-999	n/a	n/a	n/a	n/a	10	[0, 0, 0]	-999	PAL1	4	R1318N
1255.379	0.001	1141455	ORIENT_END	n/a	n/a	-999	-999	n/a	n/a	n/a	n/a	10	[0, 0, 0]	-999	PAL1	4	R1318N
1255.38	1.099	1141456	ENCODING_START	n/a	n/a	-999	-999	n/a	n/a	n/a	n/a	10	[0, 0, 0]	-999	PAL1	4	R1318N
1256.479	4.0	1142555	STUDY_PAIR	n/a	wordpools/wordpool_EN.txt	1	-999	n/a	STAR	STAR	PEAR	10	[0, 0, 0]	-999	PAL1	4	R1318N
1260.513	0.603	1146590	STUDY_PAIR_OFF	n/a	n/a	1	-999	n/a	STAR	STAR	PEAR	10	[0, 0, 0]	-999	PAL1	4	R1318N
1261.116	4.0	1147193	STUDY_PAIR	n/a	wordpools/wordpool_EN.txt	2	-999	n/a	NET	NET	SHIELD	10	[0, 0, 0]	-999	PAL1	4	R1318N
1265.147	0.743	1151224	STUDY_PAIR_OFF	n/a	n/a	2	-999	n/a	NET	NET	SHIELD	10	[0, 0, 0]	-999	PAL1	4	R1318N
1265.89	4.0	1151967	STUDY_PAIR	n/a	wordpools/wordpool_EN.txt	3	-999	n/a	CAGE	BRANCH	CAGE	10	[0, 0, 0]	-999	PAL1	4	R1318N
1269.931	0.722	1156008	STUDY_PAIR_OFF	n/a	n/a	3	-999	n/a	CAGE	BRANCH	CAGE	10	[0, 0, 0]	-999	PAL1	4	R1318N
1270.653	4.0	1156730	STUDY_PAIR	n/a	wordpools/wordpool_EN.txt	4	-999	n/a	CLOWN	GEESE	CLOWN	10	[0, 0, 0]	-999	PAL1	4	R1318N
1274.683	0.627	1160760	STUDY_PAIR_OFF	n/a	n/a	4	-999	n/a	CLOWN	GEESE	CLOWN	10	[0, 0, 0]	-999	PAL1	4	R1318N
1275.31	4.0	1161387	STUDY_PAIR	n/a	wordpools/wordpool_EN.txt	5	-999	n/a	WING	WING	CUP	10	[0, 0, 0]	-999	PAL1	4	R1318N
1279.35	0.579	1165427	STUDY_PAIR_OFF	n/a	n/a	5	-999	n/a	WING	WING	CUP	10	[0, 0, 0]	-999	PAL1	4	R1318N
1279.929	4.0	1166006	STUDY_PAIR	n/a	wordpools/wordpool_EN.txt	6	-999	n/a	FLAME	PEACH	FLAME	10	[0, 0, 0]	-999	PAL1	4	R1318N
1283.967	0.0	1170045	STUDY_PAIR_OFF	n/a	n/a	6	-999	n/a	FLAME	PEACH	FLAME	10	[0, 0, 0]	-999	PAL1	4	R1318N
1283.967	0.001	1170045	ENCODING_END	n/a	n/a	-999	-999	n/a	n/a	n/a	n/a	10	[0, 0, 0]	-999	PAL1	4	R1318N
1283.968	0.0	1170046	MATH_START	n/a	n/a	-999	-999	n/a	n/a	n/a	n/a	10	[0, 0, 0]	-999	PAL1	4	R1318N
1283.968	0.015	1170046	START	n/a	n/a	-999	-999	n/a	n/a	n/a	n/a	10	[-999, -999, -999]	-999	PAL1	4	R1318N
1283.983	2.184	1170061	PROB	2.151	n/a	-999	-999	n/a	n/a	n/a	n/a	10	[2, 1, 8]	11	PAL1	4	R1318N
1286.167	7.368	1172245	PROB	7.343	n/a	-999	-999	n/a	n/a	n/a	n/a	10	[9, 8, 8]	25	PAL1	4	R1318N
1293.535	2.817	1179613	PROB	2.791	n/a	-999	-999	n/a	n/a	n/a	n/a	10	[2, 5, 1]	8	PAL1	4	R1318N
1296.352	4.134	1182430	PROB	4.102	n/a	-999	-999	n/a	n/a	n/a	n/a	10	[5, 2, 3]	10	PAL1	4	R1318N
1300.486	3.017	1186564	PROB	2.992	n/a	-999	-999	n/a	n/a	n/a	n/a	10	[9, 3, 3]	15	PAL1	4	R1318N
1303.503	7.112	1189581	PROB	7.112	n/a	-999	-999	n/a	n/a	n/a	n/a	10	[5, 8, 9]	23	PAL1	4	R1318N
1310.615	0.007	1196694	STOP	n/a	n/a	-999	-999	n/a	n/a	n/a	n/a	10	[-999, -999, -999]	-999	PAL1	4	R1318N
1310.622	0.526	1196701	MATH_END	n/a	n/a	-999	-999	n/a	n/a	n/a	n/a	10	[0, 0, 0]	-999	PAL1	4	R1318N
1311.148	0.001	1197227	RETRIEVAL_START	n/a	n/a	-999	-999	n/a	n/a	n/a	n/a	10	[0, 0, 0]	-999	PAL1	4	R1318N
1311.149	0.273	1197228	ORIENT_START	n/a	n/a	-999	-999	n/a	n/a	n/a	n/a	10	[0, 0, 0]	-999	PAL1	4	R1318N
1311.422	0.649	1197501	ORIENT_END	n/a	n/a	-999	-999	n/a	n/a	n/a	n/a	10	[0, 0, 0]	-999	PAL1	4	R1318N
1312.071	0.001	1198150	REC_START	n/a	n/a	1	1	PEAR	STAR	STAR	PEAR	10	[0, 0, 0]	-999	PAL1	4	R1318N
1312.072	4.0	1198151	PROBE_START	n/a	wordpools/wordpool_EN.txt	1	1	PEAR	STAR	STAR	PEAR	10	[0, 0, 0]	-999	PAL1	4	R1318N
1314.582	1.524	1200661	REC_EVENT	2.51	n/a	1	1	PEAR	STAR	STAR	PEAR	10	[0, 0, 0]	-999	PAL1	4	R1318N
1316.106	0.999	1202185	PROBE_END	n/a	n/a	1	1	PEAR	n/a	STAR	PEAR	10	[0, 0, 0]	-999	PAL1	4	R1318N
1317.105	0.013	1203184	REC_END	n/a	n/a	1	1	PEAR	n/a	STAR	PEAR	10	[0, 0, 0]	-999	PAL1	4	R1318N
1317.118	0.271	1203197	ORIENT_START	n/a	n/a	-999	-999	n/a	n/a	n/a	n/a	10	[0, 0, 0]	-999	PAL1	4	R1318N
1317.389	0.741	1203468	ORIENT_END	n/a	n/a	-999	-999	n/a	n/a	n/a	n/a	10	[0, 0, 0]	-999	PAL1	4	R1318N
1318.13	0.001	1204209	REC_START	n/a	n/a	2	2	SHIELD	NET	NET	SHIELD	10	[0, 0, 0]	-999	PAL1	4	R1318N
1318.131	4.0	1204210	PROBE_START	n/a	wordpools/wordpool_EN.txt	2	2	SHIELD	NET	NET	SHIELD	10	[0, 0, 0]	-999	PAL1	4	R1318N
1319.996	2.161	1206075	REC_EVENT	1.865	n/a	2	2	SHIELD	NET	NET	SHIELD	10	[0, 0, 0]	-999	PAL1	4	R1318N
1322.157	0.999	1208236	PROBE_END	n/a	n/a	2	2	SHIELD	n/a	NET	SHIELD	10	[0, 0, 0]	-999	PAL1	4	R1318N
1323.156	0.006	1209235	REC_END	n/a	n/a	2	2	SHIELD	n/a	NET	SHIELD	10	[0, 0, 0]	-999	PAL1	4	R1318N
1323.162	0.278	1209241	ORIENT_START	n/a	n/a	-999	-999	n/a	n/a	n/a	n/a	10	[0, 0, 0]	-999	PAL1	4	R1318N
1323.44	0.733	1209519	ORIENT_END	n/a	n/a	-999	-999	n/a	n/a	n/a	n/a	10	[0, 0, 0]	-999	PAL1	4	R1318N
1324.173	0.0	1210252	REC_START	n/a	n/a	5	3	CUP	WING	WING	CUP	10	[0, 0, 0]	-999	PAL1	4	R1318N
1324.173	4.0	1210252	PROBE_START	n/a	wordpools/wordpool_EN.txt	5	3	CUP	WING	WING	CUP	10	[0, 0, 0]	-999	PAL1	4	R1318N
1325.947	2.261	1212026	REC_EVENT	1.774	n/a	5	3	CUP	WING	WING	CUP	10	[0, 0, 0]	-999	PAL1	4	R1318N
1328.208	0.999	1214288	PROBE_END	n/a	n/a	5	3	CUP	n/a	WING	CUP	10	[0, 0, 0]	-999	PAL1	4	R1318N
1329.207	0.006	1215287	REC_END	n/a	n/a	5	3	CUP	n/a	WING	CUP	10	[0, 0, 0]	-999	PAL1	4	R1318N
1329.213	0.278	1215293	ORIENT_START	n/a	n/a	-999	-999	n/a	n/a	n/a	n/a	10	[0, 0, 0]	-999	PAL1	4	R1318N
1329.491	0.569	1215571	ORIENT_END	n/a	n/a	-999	-999	n/a	n/a	n/a	n/a	10	[0, 0, 0]	-999	PAL1	4	R1318N
1330.06	0.001	1216140	REC_START	n/a	n/a	4	4	GEESE	CLOWN	GEESE	CLOWN	10	[0, 0, 0]	-999	PAL1	4	R1318N
1330.061	4.0	1216141	PROBE_START	n/a	wordpools/wordpool_EN.txt	4	4	GEESE	CLOWN	GEESE	CLOWN	10	[0, 0, 0]	-999	PAL1	4	R1318N
1331.633	2.459	1217713	REC_EVENT	1.572	n/a	4	4	GEESE	CLOWN	GEESE	CLOWN	10	[0, 0, 0]	-999	PAL1	4	R1318N
1334.092	1.0	1220172	PROBE_END	n/a	n/a	4	4	GEESE	n/a	GEESE	CLOWN	10	[0, 0, 0]	-999	PAL1	4	R1318N
1335.092	0.011	1221172	REC_END	n/a	n/a	4	4	GEESE	n/a	GEESE	CLOWN	10	[0, 0, 0]	-999	PAL1	4	R1318N
1335.103	0.273	1221183	ORIENT_START	n/a	n/a	-999	-999	n/a	n/a	n/a	n/a	10	[0, 0, 0]	-999	PAL1	4	R1318N
1335.376	0.519	1221456	ORIENT_END	n/a	n/a	-999	-999	n/a	n/a	n/a	n/a	10	[0, 0, 0]	-999	PAL1	4	R1318N
1335.895	0.0	1221975	REC_START	n/a	n/a	3	5	BRANCH	CAGE	BRANCH	CAGE	10	[0, 0, 0]	-999	PAL1	4	R1318N
1335.895	4.0	1221975	PROBE_START	n/a	wordpools/wordpool_EN.txt	3	5	BRANCH	CAGE	BRANCH	CAGE	10	[0, 0, 0]	-999	PAL1	4	R1318N
1337.352	2.574	1223432	REC_EVENT	1.457	n/a	3	5	BRANCH	CAGE	BRANCH	CAGE	10	[0, 0, 0]	-999	PAL1	4	R1318N
1339.926	1.0	1226006	PROBE_END	n/a	n/a	3	5	BRANCH	n/a	BRANCH	CAGE	10	[0, 0, 0]	-999	PAL1	4	R1318N
1340.926	0.011	1227006	REC_END	n/a	n/a	3	5	BRANCH	n/a	BRANCH	CAGE	10	[0, 0, 0]	-999	PAL1	4	R1318N
1340.937	0.273	1227017	ORIENT_START	n/a	n/a	-999	-999	n/a	n/a	n/a	n/a	10	[0, 0, 0]	-999	PAL1	4	R1318N
1341.21	0.635	1227290	ORIENT_END	n/a	n/a	-999	-999	n/a	n/a	n/a	n/a	10	[0, 0, 0]	-999	PAL1	4	R1318N
1341.845	0.001	1227925	REC_START	n/a	n/a	6	6	PEACH	FLAME	PEACH	FLAME	10	[0, 0, 0]	-999	PAL1	4	R1318N
1341.846	4.0	1227926	PROBE_START	n/a	wordpools/wordpool_EN.txt	6	6	PEACH	FLAME	PEACH	FLAME	10	[0, 0, 0]	-999	PAL1	4	R1318N
1343.414	2.463	1229494	REC_EVENT	1.568	n/a	6	6	PEACH	FLAME	PEACH	FLAME	10	[0, 0, 0]	-999	PAL1	4	R1318N
1345.877	1.001	1231957	PROBE_END	n/a	n/a	6	6	PEACH	n/a	PEACH	FLAME	10	[0, 0, 0]	-999	PAL1	4	R1318N
1346.878	0.011	1232958	REC_END	n/a	n/a	6	6	PEACH	n/a	PEACH	FLAME	10	[0, 0, 0]	-999	PAL1	4	R1318N
1346.889	0.0	1232969	RETRIEVAL_END	n/a	n/a	-999	-999	n/a	n/a	n/a	n/a	10	[0, 0, 0]	-999	PAL1	4	R1318N
1346.889	0.021	1232969	TRIAL_END	n/a	n/a	-999	-999	n/a	n/a	n/a	n/a	10	[0, 0, 0]	-999	PAL1	4	R1318N
1346.91	0.0	1232990	TRIAL_START	n/a	n/a	-999	-999	n/a	n/a	n/a	n/a	10	[0, 0, 0]	-999	PAL1	4	R1318N
1346.91	0.001	1232990	TRIAL	n/a	n/a	-999	-999	n/a	n/a	n/a	n/a	11	[0, 0, 0]	-999	PAL1	4	R1318N
1346.911	0.55	1232991	WAITING_START	n/a	n/a	-999	-999	n/a	n/a	n/a	n/a	11	[0, 0, 0]	-999	PAL1	4	R1318N
1347.461	0.0	1233541	WAITING_END	n/a	n/a	-999	-999	n/a	n/a	n/a	n/a	11	[0, 0, 0]	-999	PAL1	4	R1318N
1347.461	10.0	1233541	COUNTDOWN_START	n/a	n/a	-999	-999	n/a	n/a	n/a	n/a	11	[0, 0, 0]	-999	PAL1	4	R1318N
1357.889	0.0	1243970	COUNTDOWN_END	n/a	n/a	-999	-999	n/a	n/a	n/a	n/a	11	[0, 0, 0]	-999	PAL1	4	R1318N
1357.889	0.69	1243970	ORIENT_START	n/a	n/a	-999	-999	n/a	n/a	n/a	n/a	11	[0, 0, 0]	-999	PAL1	4	R1318N
1358.579	0.001	1244660	ORIENT_END	n/a	n/a	-999	-999	n/a	n/a	n/a	n/a	11	[0, 0, 0]	-999	PAL1	4	R1318N
1358.58	1.005	1244661	ENCODING_START	n/a	n/a	-999	-999	n/a	n/a	n/a	n/a	11	[0, 0, 0]	-999	PAL1	4	R1318N
1359.585	4.0	1245666	STUDY_PAIR	n/a	wordpools/wordpool_EN.txt	1	-999	n/a	POLE	BOY	BUSH	11	[0, 0, 0]	-999	PAL1	4	R1318N
1363.614	0.575	1249695	STUDY_PAIR_OFF	n/a	n/a	1	-999	n/a	POLE	BOY	BUSH	11	[0, 0, 0]	-999	PAL1	4	R1318N
1364.189	4.0	1250270	STUDY_PAIR	n/a	wordpools/wordpool_EN.txt	2	-999	n/a	TOOTH	PIE	TOOTH	11	[0, 0, 0]	-999	PAL1	4	R1318N
1368.214	0.715	1254295	STUDY_PAIR_OFF	n/a	n/a	2	-999	n/a	TOOTH	PIE	TOOTH	11	[0, 0, 0]	-999	PAL1	4	R1318N
1368.929	4.0	1255010	STUDY_PAIR	n/a	wordpools/wordpool_EN.txt	3	-999	n/a	OWL	FOOT	OWL	11	[0, 0, 0]	-999	PAL1	4	R1318N
1372.965	0.722	1259046	STUDY_PAIR_OFF	n/a	n/a	3	-999	n/a	OWL	FOOT	OWL	11	[0, 0, 0]	-999	PAL1	4	R1318N
1373.687	4.0	1259768	STUDY_PAIR	n/a	wordpools/wordpool_EN.txt	4	-999	n/a	BREAD	BREAD	DESK	11	[0, 0, 0]	-999	PAL1	4	R1318N
1377.716	0.723	1263798	STUDY_PAIR_OFF	n/a	n/a	4	-999	n/a	BREAD	BREAD	DESK	11	[0, 0, 0]	-999	PAL1	4	R1318N
1378.439	4.0	1264521	STUDY_PAIR	n/a	wordpools/wordpool_EN.txt	5	-999	n/a	SNAKE	SNAKE	ZOO	11	[0, 0, 0]	-999	PAL1	4	R1318N
1382.467	0.645	1268549	STUDY_PAIR_OFF	n/a	n/a	5	-999	n/a	SNAKE	SNAKE	ZOO	11	[0, 0, 0]	-999	PAL1	4	R1318N
1383.112	4.0	1269194	STUDY_PAIR	n/a	wordpools/wordpool_EN.txt	6	-999	n/a	SPOON	HORSE	SPOON	11	[0, 0, 0]	-999	PAL1	4	R1318N
1387.151	0.0	1273233	STUDY_PAIR_OFF	n/a	n/a	6	-999	n/a	SPOON	HORSE	SPOON	11	[0, 0, 0]	-999	PAL1	4	R1318N
1387.151	0.001	1273233	ENCODING_END	n/a	n/a	-999	-999	n/a	n/a	n/a	n/a	11	[0, 0, 0]	-999	PAL1	4	R1318N
1387.152	0.0	1273234	MATH_START	n/a	n/a	-999	-999	n/a	n/a	n/a	n/a	11	[0, 0, 0]	-999	PAL1	4	R1318N
1387.152	0.015	1273234	START	n/a	n/a	-999	-999	n/a	n/a	n/a	n/a	11	[-999, -999, -999]	-999	PAL1	4	R1318N
1387.167	2.584	1273249	PROB	2.551	n/a	-999	-999	n/a	n/a	n/a	n/a	11	[1, 9, 6]	16	PAL1	4	R1318N
1389.751	5.634	1275833	PROB	5.599	n/a	-999	-999	n/a	n/a	n/a	n/a	11	[6, 4, 8]	18	PAL1	4	R1318N
1395.385	7.985	1281467	PROB	7.948	n/a	-999	-999	n/a	n/a	n/a	n/a	11	[7, 8, 9]	24	PAL1	4	R1318N
1403.37	2.784	1289453	PROB	2.748	n/a	-999	-999	n/a	n/a	n/a	n/a	11	[2, 3, 5]	10	PAL1	4	R1318N
1406.154	5.996	1292237	PROB	5.996	n/a	-999	-999	n/a	n/a	n/a	n/a	11	[8, 9, 5]	22	PAL1	4	R1318N
1412.15	0.022	1298233	STOP	n/a	n/a	-999	-999	n/a	n/a	n/a	n/a	11	[-999, -999, -999]	-999	PAL1	4	R1318N
1412.172	0.625	1298255	MATH_END	n/a	n/a	-999	-999	n/a	n/a	n/a	n/a	11	[0, 0, 0]	-999	PAL1	4	R1318N
1412.797	0.002	1298880	RETRIEVAL_START	n/a	n/a	-999	-999	n/a	n/a	n/a	n/a	11	[0, 0, 0]	-999	PAL1	4	R1318N
1412.799	0.273	1298882	ORIENT_START	n/a	n/a	-999	-999	n/a	n/a	n/a	n/a	11	[0, 0, 0]	-999	PAL1	4	R1318N
1413.072	0.582	1299155	ORIENT_END	n/a	n/a	-999	-999	n/a	n/a	n/a	n/a	11	[0, 0, 0]	-999	PAL1	4	R1318N
1413.654	0.0	1299737	REC_START	n/a	n/a	1	1	BUSH	POLE	BOY	BUSH	11	[0, 0, 0]	-999	PAL1	4	R1318N
1413.654	4.0	1299737	PROBE_START	n/a	wordpools/wordpool_EN.txt	1	1	BUSH	POLE	BOY	BUSH	11	[0, 0, 0]	-999	PAL1	4	R1318N
1415.415	2.275	1301498	REC_EVENT	1.761	n/a	1	1	BUSH	POLE	BOY	BUSH	11	[0, 0, 0]	-999	PAL1	4	R1318N
1417.69	1.0	1303773	PROBE_END	n/a	n/a	1	1	BUSH	n/a	BOY	BUSH	11	[0, 0, 0]	-999	PAL1	4	R1318N
1418.69	0.011	1304773	REC_END	n/a	n/a	1	1	BUSH	n/a	BOY	BUSH	11	[0, 0, 0]	-999	PAL1	4	R1318N
1418.701	0.272	1304784	ORIENT_START	n/a	n/a	-999	-999	n/a	n/a	n/a	n/a	11	[0, 0, 0]	-999	PAL1	4	R1318N
1418.973	0.684	1305056	ORIENT_END	n/a	n/a	-999	-999	n/a	n/a	n/a	n/a	11	[0, 0, 0]	-999	PAL1	4	R1318N
1419.657	0.0	1305740	REC_START	n/a	n/a	4	2	DESK	BREAD	BREAD	DESK	11	[0, 0, 0]	-999	PAL1	4	R1318N
1419.657	4.0	1305740	PROBE_START	n/a	wordpools/wordpool_EN.txt	4	2	DESK	BREAD	BREAD	DESK	11	[0, 0, 0]	-999	PAL1	4	R1318N
1421.484	2.206	1307568	REC_EVENT	1.827	n/a	4	2	DESK	BREAD	BREAD	DESK	11	[0, 0, 0]	-999	PAL1	4	R1318N
1423.69	1.0	1309774	PROBE_END	n/a	n/a	4	2	DESK	n/a	BREAD	DESK	11	[0, 0, 0]	-999	PAL1	4	R1318N
1424.69	0.011	1310774	REC_END	n/a	n/a	4	2	DESK	n/a	BREAD	DESK	11	[0, 0, 0]	-999	PAL1	4	R1318N
1424.701	0.273	1310785	ORIENT_START	n/a	n/a	-999	-999	n/a	n/a	n/a	n/a	11	[0, 0, 0]	-999	PAL1	4	R1318N
1424.974	0.561	1311058	ORIENT_END	n/a	n/a	-999	-999	n/a	n/a	n/a	n/a	11	[0, 0, 0]	-999	PAL1	4	R1318N
1425.535	0.0	1311619	REC_START	n/a	n/a	5	3	ZOO	SNAKE	SNAKE	ZOO	11	[0, 0, 0]	-999	PAL1	4	R1318N
1425.535	4.0	1311619	PROBE_START	n/a	wordpools/wordpool_EN.txt	5	3	ZOO	SNAKE	SNAKE	ZOO	11	[0, 0, 0]	-999	PAL1	4	R1318N
1427.02	2.538	1313104	REC_EVENT	1.485	n/a	5	3	ZOO	SNAKE	SNAKE	ZOO	11	[0, 0, 0]	-999	PAL1	4	R1318N
1429.558	0.999	1315642	PROBE_END	n/a	n/a	5	3	ZOO	n/a	SNAKE	ZOO	11	[0, 0, 0]	-999	PAL1	4	R1318N
1430.557	0.012	1316641	REC_END	n/a	n/a	5	3	ZOO	n/a	SNAKE	ZOO	11	[0, 0, 0]	-999	PAL1	4	R1318N
1430.569	0.272	1316653	ORIENT_START	n/a	n/a	-999	-999	n/a	n/a	n/a	n/a	11	[0, 0, 0]	-999	PAL1	4	R1318N
1430.841	0.679	1316925	ORIENT_END	n/a	n/a	-999	-999	n/a	n/a	n/a	n/a	11	[0, 0, 0]	-999	PAL1	4	R1318N
1431.52	0.001	1317604	REC_START	n/a	n/a	6	4	HORSE	SPOON	HORSE	SPOON	11	[0, 0, 0]	-999	PAL1	4	R1318N
1431.521	4.0	1317605	PROBE_START	n/a	wordpools/wordpool_EN.txt	6	4	HORSE	SPOON	HORSE	SPOON	11	[0, 0, 0]	-999	PAL1	4	R1318N
1433.254	2.305	1319338	REC_EVENT	1.733	n/a	6	4	HORSE	SPOON	HORSE	SPOON	11	[0, 0, 0]	-999	PAL1	4	R1318N
1435.559	1.0	1321643	PROBE_END	n/a	n/a	6	4	HORSE	n/a	HORSE	SPOON	11	[0, 0, 0]	-999	PAL1	4	R1318N
1436.559	0.012	1322643	REC_END	n/a	n/a	6	4	HORSE	n/a	HORSE	SPOON	11	[0, 0, 0]	-999	PAL1	4	R1318N
1436.571	0.271	1322655	ORIENT_START	n/a	n/a	-999	-999	n/a	n/a	n/a	n/a	11	[0, 0, 0]	-999	PAL1	4	R1318N
1436.842	0.618	1322926	ORIENT_END	n/a	n/a	-999	-999	n/a	n/a	n/a	n/a	11	[0, 0, 0]	-999	PAL1	4	R1318N
1437.46	0.0	1323544	REC_START	n/a	n/a	3	5	FOOT	OWL	FOOT	OWL	11	[0, 0, 0]	-999	PAL1	4	R1318N
1437.46	4.0	1323544	PROBE_START	n/a	wordpools/wordpool_EN.txt	3	5	FOOT	OWL	FOOT	OWL	11	[0, 0, 0]	-999	PAL1	4	R1318N
1441.493	1.0	1327577	PROBE_END	n/a	n/a	3	5	FOOT	n/a	FOOT	OWL	11	[0, 0, 0]	-999	PAL1	4	R1318N
1442.493	0.01	1328577	REC_END	n/a	n/a	3	5	FOOT	n/a	FOOT	OWL	11	[0, 0, 0]	-999	PAL1	4	R1318N
1442.503	0.274	1328587	ORIENT_START	n/a	n/a	-999	-999	n/a	n/a	n/a	n/a	11	[0, 0, 0]	-999	PAL1	4	R1318N
1442.777	0.115	1328861	ORIENT_END	n/a	n/a	-999	-999	n/a	n/a	n/a	n/a	11	[0, 0, 0]	-999	PAL1	4	R1318N
1442.892	0.512	1328976	REC_EVENT	5.432	n/a	3	5	FOOT	OWL	FOOT	OWL	11	[0, 0, 0]	-999	PAL1	4	R1318N
1443.404	0.001	1329488	REC_START	n/a	n/a	2	6	PIE	TOOTH	PIE	TOOTH	11	[0, 0, 0]	-999	PAL1	4	R1318N
1443.405	4.0	1329489	PROBE_START	n/a	wordpools/wordpool_EN.txt	2	6	PIE	TOOTH	PIE	TOOTH	11	[0, 0, 0]	-999	PAL1	4	R1318N
1445.068	2.359	1331153	REC_EVENT	1.663	n/a	2	6	PIE	TOOTH	PIE	TOOTH	11	[0, 0, 0]	-999	PAL1	4	R1318N
1447.427	1.0	1333512	PROBE_END	n/a	n/a	2	6	PIE	n/a	PIE	TOOTH	11	[0, 0, 0]	-999	PAL1	4	R1318N
1448.427	0.011	1334512	REC_END	n/a	n/a	2	6	PIE	n/a	PIE	TOOTH	11	[0, 0, 0]	-999	PAL1	4	R1318N
1448.438	0.001	1334523	RETRIEVAL_END	n/a	n/a	-999	-999	n/a	n/a	n/a	n/a	11	[0, 0, 0]	-999	PAL1	4	R1318N
1448.439	0.022	1334524	TRIAL_END	n/a	n/a	-999	-999	n/a	n/a	n/a	n/a	11	[0, 0, 0]	-999	PAL1	4	R1318N
1448.461	0.0	1334546	TRIAL_START	n/a	n/a	-999	-999	n/a	n/a	n/a	n/a	11	[0, 0, 0]	-999	PAL1	4	R1318N
1448.461	0.0	1334546	TRIAL	n/a	n/a	-999	-999	n/a	n/a	n/a	n/a	12	[0, 0, 0]	-999	PAL1	4	R1318N
1448.461	2.201	1334546	WAITING_START	n/a	n/a	-999	-999	n/a	n/a	n/a	n/a	12	[0, 0, 0]	-999	PAL1	4	R1318N
1450.662	0.001	1336747	WAITING_END	n/a	n/a	-999	-999	n/a	n/a	n/a	n/a	12	[0, 0, 0]	-999	PAL1	4	R1318N
1450.663	10.0	1336748	COUNTDOWN_START	n/a	n/a	-999	-999	n/a	n/a	n/a	n/a	12	[0, 0, 0]	-999	PAL1	4	R1318N
1461.091	0.001	1347176	COUNTDOWN_END	n/a	n/a	-999	-999	n/a	n/a	n/a	n/a	12	[0, 0, 0]	-999	PAL1	4	R1318N
1461.092	0.688	1347177	ORIENT_START	n/a	n/a	-999	-999	n/a	n/a	n/a	n/a	12	[0, 0, 0]	-999	PAL1	4	R1318N
1461.78	0.0	1347865	ORIENT_END	n/a	n/a	-999	-999	n/a	n/a	n/a	n/a	12	[0, 0, 0]	-999	PAL1	4	R1318N
1461.78	1.178	1347865	ENCODING_START	n/a	n/a	-999	-999	n/a	n/a	n/a	n/a	12	[0, 0, 0]	-999	PAL1	4	R1318N
1462.958	4.0	1349043	STUDY_PAIR	n/a	wordpools/wordpool_EN.txt	1	-999	n/a	MAZE	DRESS	MAZE	12	[0, 0, 0]	-999	PAL1	4	R1318N
1466.997	0.603	1353082	STUDY_PAIR_OFF	n/a	n/a	1	-999	n/a	MAZE	DRESS	MAZE	12	[0, 0, 0]	-999	PAL1	4	R1318N
1467.6	4.0	1353686	STUDY_PAIR	n/a	wordpools/wordpool_EN.txt	2	-999	n/a	PHONE	PHONE	CLOUD	12	[0, 0, 0]	-999	PAL1	4	R1318N
1471.632	0.515	1357718	STUDY_PAIR_OFF	n/a	n/a	2	-999	n/a	PHONE	PHONE	CLOUD	12	[0, 0, 0]	-999	PAL1	4	R1318N
1472.147	4.0	1358233	STUDY_PAIR	n/a	wordpools/wordpool_EN.txt	3	-999	n/a	CHEEK	NEST	CHEEK	12	[0, 0, 0]	-999	PAL1	4	R1318N
1476.182	0.748	1362268	STUDY_PAIR_OFF	n/a	n/a	3	-999	n/a	CHEEK	NEST	CHEEK	12	[0, 0, 0]	-999	PAL1	4	R1318N
1476.93	4.0	1363016	STUDY_PAIR	n/a	wordpools/wordpool_EN.txt	4	-999	n/a	CORD	CORD	KITE	12	[0, 0, 0]	-999	PAL1	4	R1318N
1480.966	0.537	1367052	STUDY_PAIR_OFF	n/a	n/a	4	-999	n/a	CORD	CORD	KITE	12	[0, 0, 0]	-999	PAL1	4	R1318N
1481.503	4.0	1367589	STUDY_PAIR	n/a	wordpools/wordpool_EN.txt	5	-999	n/a	KICK	WOLF	CAKE	12	[0, 0, 0]	-999	PAL1	4	R1318N
1485.533	0.68	1371619	STUDY_PAIR_OFF	n/a	n/a	5	-999	n/a	KICK	WOLF	CAKE	12	[0, 0, 0]	-999	PAL1	4	R1318N
1486.213	4.0	1372299	STUDY_PAIR	n/a	wordpools/wordpool_EN.txt	6	-999	n/a	THUMB	THUMB	NAIL	12	[0, 0, 0]	-999	PAL1	4	R1318N
1490.251	0.001	1376337	STUDY_PAIR_OFF	n/a	n/a	6	-999	n/a	THUMB	THUMB	NAIL	12	[0, 0, 0]	-999	PAL1	4	R1318N
1490.252	0.0	1376338	ENCODING_END	n/a	n/a	-999	-999	n/a	n/a	n/a	n/a	12	[0, 0, 0]	-999	PAL1	4	R1318N
1490.252	0.0	1376338	MATH_START	n/a	n/a	-999	-999	n/a	n/a	n/a	n/a	12	[0, 0, 0]	-999	PAL1	4	R1318N
1490.252	0.015	1376338	START	n/a	n/a	-999	-999	n/a	n/a	n/a	n/a	12	[-999, -999, -999]	-999	PAL1	4	R1318N
1490.267	2.684	1376353	PROB	2.65	n/a	-999	-999	n/a	n/a	n/a	n/a	12	[4, 5, 5]	14	PAL1	4	R1318N
1492.951	2.767	1379038	PROB	2.736	n/a	-999	-999	n/a	n/a	n/a	n/a	12	[8, 7, 1]	16	PAL1	4	R1318N
1495.718	6.735	1381805	PROB	6.704	n/a	-999	-999	n/a	n/a	n/a	n/a	12	[6, 8, 9]	23	PAL1	4	R1318N
1502.453	2.35	1388540	PROB	2.321	n/a	-999	-999	n/a	n/a	n/a	n/a	12	[5, 1, 1]	7	PAL1	4	R1318N
1504.803	2.501	1390890	PROB	2.466	n/a	-999	-999	n/a	n/a	n/a	n/a	12	[5, 7, 5]	17	PAL1	4	R1318N
1507.304	3.534	1393391	PROB	3.534	n/a	-999	-999	n/a	n/a	n/a	n/a	12	[7, 8, 7]	22	PAL1	4	R1318N
1510.838	0.016	1396925	STOP	n/a	n/a	-999	-999	n/a	n/a	n/a	n/a	12	[-999, -999, -999]	-999	PAL1	4	R1318N
1510.854	0.636	1396941	MATH_END	n/a	n/a	-999	-999	n/a	n/a	n/a	n/a	12	[0, 0, 0]	-999	PAL1	4	R1318N
1511.49	0.001	1397577	RETRIEVAL_START	n/a	n/a	-999	-999	n/a	n/a	n/a	n/a	12	[0, 0, 0]	-999	PAL1	4	R1318N
1511.491	0.28	1397578	ORIENT_START	n/a	n/a	-999	-999	n/a	n/a	n/a	n/a	12	[0, 0, 0]	-999	PAL1	4	R1318N
1511.771	0.743	1397858	ORIENT_END	n/a	n/a	-999	-999	n/a	n/a	n/a	n/a	12	[0, 0, 0]	-999	PAL1	4	R1318N
1512.514	0.0	1398601	REC_START	n/a	n/a	3	1	NEST	CHEEK	NEST	CHEEK	12	[0, 0, 0]	-999	PAL1	4	R1318N
1512.514	4.0	1398601	PROBE_START	n/a	wordpools/wordpool_EN.txt	3	1	NEST	CHEEK	NEST	CHEEK	12	[0, 0, 0]	-999	PAL1	4	R1318N
1514.215	2.324	1400303	REC_EVENT	1.701	n/a	3	1	NEST	CHEEK	NEST	CHEEK	12	[0, 0, 0]	-999	PAL1	4	R1318N
1516.539	0.999	1402627	PROBE_END	n/a	n/a	3	1	NEST	n/a	NEST	CHEEK	12	[0, 0, 0]	-999	PAL1	4	R1318N
1517.538	0.006	1403626	REC_END	n/a	n/a	3	1	NEST	n/a	NEST	CHEEK	12	[0, 0, 0]	-999	PAL1	4	R1318N
1517.544	0.278	1403632	ORIENT_START	n/a	n/a	-999	-999	n/a	n/a	n/a	n/a	12	[0, 0, 0]	-999	PAL1	4	R1318N
1517.822	0.668	1403910	ORIENT_END	n/a	n/a	-999	-999	n/a	n/a	n/a	n/a	12	[0, 0, 0]	-999	PAL1	4	R1318N
1518.49	0.001	1404578	REC_START	n/a	n/a	2	2	CLOUD	PHONE	PHONE	CLOUD	12	[0, 0, 0]	-999	PAL1	4	R1318N
1518.491	4.0	1404579	PROBE_START	n/a	wordpools/wordpool_EN.txt	2	2	CLOUD	PHONE	PHONE	CLOUD	12	[0, 0, 0]	-999	PAL1	4	R1318N
1520.176	2.347	1406264	REC_EVENT	1.685	n/a	2	2	CLOUD	PHONE	PHONE	CLOUD	12	[0, 0, 0]	-999	PAL1	4	R1318N
1522.523	1.0	1408611	PROBE_END	n/a	n/a	2	2	CLOUD	n/a	PHONE	CLOUD	12	[0, 0, 0]	-999	PAL1	4	R1318N
1523.523	0.012	1409611	REC_END	n/a	n/a	2	2	CLOUD	n/a	PHONE	CLOUD	12	[0, 0, 0]	-999	PAL1	4	R1318N
1523.535	0.272	1409623	ORIENT_START	n/a	n/a	-999	-999	n/a	n/a	n/a	n/a	12	[0, 0, 0]	-999	PAL1	4	R1318N
1523.807	0.708	1409895	ORIENT_END	n/a	n/a	-999	-999	n/a	n/a	n/a	n/a	12	[0, 0, 0]	-999	PAL1	4	R1318N
1524.515	0.0	1410603	REC_START	n/a	n/a	1	3	DRESS	MAZE	DRESS	MAZE	12	[0, 0, 0]	-999	PAL1	4	R1318N
1524.515	4.0	1410603	PROBE_START	n/a	wordpools/wordpool_EN.txt	1	3	DRESS	MAZE	DRESS	MAZE	12	[0, 0, 0]	-999	PAL1	4	R1318N
1526.197	2.344	1412285	REC_EVENT	1.682	n/a	1	3	DRESS	MAZE	DRESS	MAZE	12	[0, 0, 0]	-999	PAL1	4	R1318N
1528.541	0.999	1414629	PROBE_END	n/a	n/a	1	3	DRESS	n/a	DRESS	MAZE	12	[0, 0, 0]	-999	PAL1	4	R1318N
1529.54	0.013	1415628	REC_END	n/a	n/a	1	3	DRESS	n/a	DRESS	MAZE	12	[0, 0, 0]	-999	PAL1	4	R1318N
1529.553	0.271	1415641	ORIENT_START	n/a	n/a	-999	-999	n/a	n/a	n/a	n/a	12	[0, 0, 0]	-999	PAL1	4	R1318N
1529.824	0.624	1415912	ORIENT_END	n/a	n/a	-999	-999	n/a	n/a	n/a	n/a	12	[0, 0, 0]	-999	PAL1	4	R1318N
1530.448	0.001	1416536	REC_START	n/a	n/a	6	4	NAIL	THUMB	THUMB	NAIL	12	[0, 0, 0]	-999	PAL1	4	R1318N
1530.449	4.0	1416537	PROBE_START	n/a	wordpools/wordpool_EN.txt	6	4	NAIL	THUMB	THUMB	NAIL	12	[0, 0, 0]	-999	PAL1	4	R1318N
1532.243	2.232	1418331	REC_EVENT	1.794	n/a	6	4	NAIL	THUMB	THUMB	NAIL	12	[0, 0, 0]	-999	PAL1	4	R1318N
1534.475	1.0	1420563	PROBE_END	n/a	n/a	6	4	NAIL	n/a	THUMB	NAIL	12	[0, 0, 0]	-999	PAL1	4	R1318N
1535.475	0.012	1421563	REC_END	n/a	n/a	6	4	NAIL	n/a	THUMB	NAIL	12	[0, 0, 0]	-999	PAL1	4	R1318N
1535.487	0.272	1421575	ORIENT_START	n/a	n/a	-999	-999	n/a	n/a	n/a	n/a	12	[0, 0, 0]	-999	PAL1	4	R1318N
1535.759	0.568	1421847	ORIENT_END	n/a	n/a	-999	-999	n/a	n/a	n/a	n/a	12	[0, 0, 0]	-999	PAL1	4	R1318N
1536.327	0.001	1422415	REC_START	n/a	n/a	5	5	WOLF	KICK	WOLF	CAKE	12	[0, 0, 0]	-999	PAL1	4	R1318N
1536.328	4.0	1422416	PROBE_START	n/a	wordpools/wordpool_EN.txt	5	5	WOLF	KICK	WOLF	CAKE	12	[0, 0, 0]	-999	PAL1	4	R1318N
1537.979	2.38	1424068	REC_EVENT	1.651	n/a	5	5	WOLF	KICK	WOLF	CAKE	12	[0, 0, 0]	-999	PAL1	4	R1318N
