onset	duration	sample	trial_type	response_time	stim_file	serialpos	probepos	probe_word	resp_word	study_1	study_2	list	test	answer	experiment	session	subject
0.0	6.121	1022	INSTRUCT_START	n/a	n/a	-999	-999	n/a	n/a	n/a	n/a	-1	[0, 0, 0]	-999	PAL1	2	R1318N
6.121	1.383	7143	INSTRUCT_END	n/a	n/a	-999	-999	n/a	n/a	n/a	n/a	-1	[0, 0, 0]	-999	PAL1	2	R1318N
7.504	8.544	8526	MIC TEST_START	n/a	n/a	-999	-999	n/a	n/a	n/a	n/a	-1	[0, 0, 0]	-999	PAL1	2	R1318N
16.048	0.011	17070	MIC TEST_END	n/a	n/a	-999	-999	n/a	n/a	n/a	n/a	-1	[0, 0, 0]	-999	PAL1	2	R1318N
16.059	0.0	17081	TRIAL_START	n/a	n/a	-999	-999	n/a	n/a	n/a	n/a	-1	[0, 0, 0]	-999	PAL1	2	R1318N
16.059	0.0	17081	TRIAL	n/a	n/a	-999	-999	n/a	n/a	n/a	n/a	-1	[0, 0, 0]	-999	PAL1	2	R1318N
16.059	1.313	17081	WAITING_START	n/a	n/a	-999	-999	n/a	n/a	n/a	n/a	-1	[0, 0, 0]	-999	PAL1	2	R1318N
17.372	0.001	18394	WAITING_END	n/a	n/a	-999	-999	n/a	n/a	n/a	n/a	-1	[0, 0, 0]	-999	PAL1	2	R1318N
17.373	10.43	18395	COUNTDOWN_START	n/a	n/a	-999	-999	n/a	n/a	n/a	n/a	-1	[0, 0, 0]	-999	PAL1	2	R1318N
27.803	0.001	28825	COUNTDOWN_END	n/a	n/a	-999	-999	n/a	n/a	n/a	n/a	-1	[0, 0, 0]	-999	PAL1	2	R1318N
27.804	0.72	28826	ORIENT_START	n/a	n/a	-999	-999	n/a	n/a	n/a	n/a	-1	[0, 0, 0]	-999	PAL1	2	R1318N
28.524	0.001	29546	ORIENT_END	n/a	n/a	-999	-999	n/a	n/a	n/a	n/a	-1	[0, 0, 0]	-999	PAL1	2	R1318N
28.525	1.135	29547	ENCODING_START	n/a	n/a	-999	-999	n/a	n/a	n/a	n/a	-1	[0, 0, 0]	-999	PAL1	2	R1318N
29.66	4.032	30682	STUDY_PAIR	n/a	n/a	1	-999	n/a	RING	WAGON	RING	-1	[0, 0, 0]	-999	PAL1	2	R1318N
33.692	0.684	34713	STUDY_PAIR_OFF	n/a	n/a	1	-999	n/a	RING	WAGON	RING	-1	[0, 0, 0]	-999	PAL1	2	R1318N
34.376	4.033	35397	STUDY_PAIR	n/a	n/a	2	-999	n/a	BEAM	BEAM	WATCH	-1	[0, 0, 0]	-999	PAL1	2	R1318N
38.409	0.515	39430	STUDY_PAIR_OFF	n/a	n/a	2	-999	n/a	BEAM	BEAM	WATCH	-1	[0, 0, 0]	-999	PAL1	2	R1318N
38.924	4.037	39945	STUDY_PAIR	n/a	n/a	3	-999	n/a	CHEST	CHEST	TONGUE	-1	[0, 0, 0]	-999	PAL1	2	R1318N
42.961	0.635	43982	STUDY_PAIR_OFF	n/a	n/a	3	-999	n/a	CHEST	CHEST	TONGUE	-1	[0, 0, 0]	-999	PAL1	2	R1318N
43.596	4.031	44617	STUDY_PAIR	n/a	n/a	4	-999	n/a	COTTON	COTTON	FLOOD	-1	[0, 0, 0]	-999	PAL1	2	R1318N
47.627	0.598	48648	STUDY_PAIR_OFF	n/a	n/a	4	-999	n/a	COTTON	COTTON	FLOOD	-1	[0, 0, 0]	-999	PAL1	2	R1318N
48.225	4.036	49246	STUDY_PAIR	n/a	n/a	5	-999	n/a	BABY	IMAGE	BABY	-1	[0, 0, 0]	-999	PAL1	2	R1318N
52.261	0.509	53282	STUDY_PAIR_OFF	n/a	n/a	5	-999	n/a	BABY	IMAGE	BABY	-1	[0, 0, 0]	-999	PAL1	2	R1318N
52.77	4.026	53791	STUDY_PAIR	n/a	n/a	6	-999	n/a	RHINO	CAMEL	RHINO	-1	[0, 0, 0]	-999	PAL1	2	R1318N
56.796	0.0	57817	ENCODING_END	n/a	n/a	-999	-999	n/a	n/a	n/a	n/a	-1	[0, 0, 0]	-999	PAL1	2	R1318N
56.796	0.0	57817	MATH_START	n/a	n/a	-999	-999	n/a	n/a	n/a	n/a	-1	[0, 0, 0]	-999	PAL1	2	R1318N
56.796	0.001	57817	STUDY_PAIR_OFF	n/a	n/a	6	-999	n/a	RHINO	CAMEL	RHINO	-1	[0, 0, 0]	-999	PAL1	2	R1318N
56.797	0.015	57818	START	n/a	n/a	-999	-999	n/a	n/a	n/a	n/a	-1	[-999, -999, -999]	-999	PAL1	2	R1318N
56.812	4.417	57833	PROB	4390	n/a	-999	-999	n/a	n/a	n/a	n/a	-1	[2, 5, 3]	10	PAL1	2	R1318N
61.229	3.619	62250	PROB	3590	n/a	-999	-999	n/a	n/a	n/a	n/a	-1	[8, 6, 6]	20	PAL1	2	R1318N
64.848	3.866	65869	PROB	3835	n/a	-999	-999	n/a	n/a	n/a	n/a	-1	[6, 9, 5]	20	PAL1	2	R1318N
68.714	3.118	69734	PROB	3081	n/a	-999	-999	n/a	n/a	n/a	n/a	-1	[4, 4, 6]	14	PAL1	2	R1318N
71.832	6.53	72852	PROB	6530	n/a	-999	-999	n/a	n/a	n/a	n/a	-1	[2, 3, 8]	13	PAL1	2	R1318N
78.362	0.02	79382	STOP	n/a	n/a	-999	-999	n/a	n/a	n/a	n/a	-1	[-999, -999, -999]	-999	PAL1	2	R1318N
78.382	0.559	79402	MATH_END	n/a	n/a	-999	-999	n/a	n/a	n/a	n/a	-1	[0, 0, 0]	-999	PAL1	2	R1318N
78.941	0.002	79961	RETRIEVAL_START	n/a	n/a	-999	-999	n/a	n/a	n/a	n/a	-1	[0, 0, 0]	-999	PAL1	2	R1318N
78.943	0.273	79963	ORIENT_START	n/a	n/a	-999	-999	n/a	n/a	n/a	n/a	-1	[0, 0, 0]	-999	PAL1	2	R1318N
79.216	0.634	80236	ORIENT_END	n/a	n/a	-999	-999	n/a	n/a	n/a	n/a	-1	[0, 0, 0]	-999	PAL1	2	R1318N
79.85	0.0	80870	REC_START	n/a	n/a	3	1	TONGUE	CHEST	CHEST	TONGUE	-1	[0, 0, 0]	-999	PAL1	2	R1318N
79.85	4.034	80870	PROBE_START	n/a	n/a	3	1	TONGUE	CHEST	CHEST	TONGUE	-1	[0, 0, 0]	-999	PAL1	2	R1318N
83.884	0.076	84904	PROBE_END	n/a	n/a	3	1	TONGUE	n/a	CHEST	TONGUE	-1	[0, 0, 0]	-999	PAL1	2	R1318N
83.96	0.274	84980	REC_EVENT	4110	n/a	3	1	TONGUE	<>	CHEST	TONGUE	-1	[0, 0, 0]	-999	PAL1	2	R1318N
84.234	0.651	85254	REC_EVENT	4384	n/a	3	1	TONGUE	CHEST	CHEST	TONGUE	-1	[0, 0, 0]	-999	PAL1	2	R1318N
84.885	0.013	85905	REC_END	n/a	n/a	3	1	TONGUE	n/a	CHEST	TONGUE	-1	[0, 0, 0]	-999	PAL1	2	R1318N
84.898	0.269	85918	ORIENT_START	n/a	n/a	-999	-999	n/a	n/a	n/a	n/a	-1	[0, 0, 0]	-999	PAL1	2	R1318N
85.167	0.642	86187	ORIENT_END	n/a	n/a	-999	-999	n/a	n/a	n/a	n/a	-1	[0, 0, 0]	-999	PAL1	2	R1318N
85.809	0.001	86829	REC_START	n/a	n/a	4	2	FLOOD	COTTON	COTTON	FLOOD	-1	[0, 0, 0]	-999	PAL1	2	R1318N
85.81	1.85	86830	PROBE_START	n/a	n/a	4	2	FLOOD	COTTON	COTTON	FLOOD	-1	[0, 0, 0]	-999	PAL1	2	R1318N
87.66	2.175	88680	REC_EVENT	1850	n/a	4	2	FLOOD	COTTON	COTTON	FLOOD	-1	[0, 0, 0]	-999	PAL1	2	R1318N
89.835	1.001	90855	PROBE_END	n/a	n/a	4	2	FLOOD	n/a	COTTON	FLOOD	-1	[0, 0, 0]	-999	PAL1	2	R1318N
90.836	0.013	91856	REC_END	n/a	n/a	4	2	FLOOD	n/a	COTTON	FLOOD	-1	[0, 0, 0]	-999	PAL1	2	R1318N
90.849	0.269	91869	ORIENT_START	n/a	n/a	-999	-999	n/a	n/a	n/a	n/a	-1	[0, 0, 0]	-999	PAL1	2	R1318N
91.118	0.676	92138	ORIENT_END	n/a	n/a	-999	-999	n/a	n/a	n/a	n/a	-1	[0, 0, 0]	-999	PAL1	2	R1318N
91.794	0.0	92814	REC_START	n/a	n/a	1	3	WAGON	RING	WAGON	RING	-1	[0, 0, 0]	-999	PAL1	2	R1318N
91.794	1.696	92814	PROBE_START	n/a	n/a	1	3	WAGON	RING	WAGON	RING	-1	[0, 0, 0]	-999	PAL1	2	R1318N
93.49	2.33	94510	REC_EVENT	1696	n/a	1	3	WAGON	RING	WAGON	RING	-1	[0, 0, 0]	-999	PAL1	2	R1318N
95.82	1.0	96840	PROBE_END	n/a	n/a	1	3	WAGON	n/a	WAGON	RING	-1	[0, 0, 0]	-999	PAL1	2	R1318N
96.82	0.012	97840	REC_END	n/a	n/a	1	3	WAGON	n/a	WAGON	RING	-1	[0, 0, 0]	-999	PAL1	2	R1318N
96.832	0.27	97852	ORIENT_START	n/a	n/a	-999	-999	n/a	n/a	n/a	n/a	-1	[0, 0, 0]	-999	PAL1	2	R1318N
97.102	0.702	98122	ORIENT_END	n/a	n/a	-999	-999	n/a	n/a	n/a	n/a	-1	[0, 0, 0]	-999	PAL1	2	R1318N
97.804	0.001	98824	REC_START	n/a	n/a	2	4	WATCH	BEAM	BEAM	WATCH	-1	[0, 0, 0]	-999	PAL1	2	R1318N
97.805	1.839	98825	PROBE_START	n/a	n/a	2	4	WATCH	BEAM	BEAM	WATCH	-1	[0, 0, 0]	-999	PAL1	2	R1318N
99.644	2.193	100664	REC_EVENT	1839	n/a	2	4	WATCH	BEAM	BEAM	WATCH	-1	[0, 0, 0]	-999	PAL1	2	R1318N
101.837	1.001	102857	PROBE_END	n/a	n/a	2	4	WATCH	n/a	BEAM	WATCH	-1	[0, 0, 0]	-999	PAL1	2	R1318N
102.838	0.011	103857	REC_END	n/a	n/a	2	4	WATCH	n/a	BEAM	WATCH	-1	[0, 0, 0]	-999	PAL1	2	R1318N
102.849	0.271	103868	ORIENT_START	n/a	n/a	-999	-999	n/a	n/a	n/a	n/a	-1	[0, 0, 0]	-999	PAL1	2	R1318N
103.12	0.649	104139	ORIENT_END	n/a	n/a	-999	-999	n/a	n/a	n/a	n/a	-1	[0, 0, 0]	-999	PAL1	2	R1318N
103.769	0.0	104788	REC_START	n/a	n/a	5	5	IMAGE	BABY	IMAGE	BABY	-1	[0, 0, 0]	-999	PAL1	2	R1318N
103.769	1.766	104788	PROBE_START	n/a	n/a	5	5	IMAGE	BABY	IMAGE	BABY	-1	[0, 0, 0]	-999	PAL1	2	R1318N
105.535	2.269	106554	REC_EVENT	1766	n/a	5	5	IMAGE	BABY	IMAGE	BABY	-1	[0, 0, 0]	-999	PAL1	2	R1318N
107.804	1.0	108823	PROBE_END	n/a	n/a	5	5	IMAGE	n/a	IMAGE	BABY	-1	[0, 0, 0]	-999	PAL1	2	R1318N
108.804	0.013	109823	REC_END	n/a	n/a	5	5	IMAGE	n/a	IMAGE	BABY	-1	[0, 0, 0]	-999	PAL1	2	R1318N
108.817	0.27	109836	ORIENT_START	n/a	n/a	-999	-999	n/a	n/a	n/a	n/a	-1	[0, 0, 0]	-999	PAL1	2	R1318N
109.087	0.687	110106	ORIENT_END	n/a	n/a	-999	-999	n/a	n/a	n/a	n/a	-1	[0, 0, 0]	-999	PAL1	2	R1318N
109.774	0.0	110793	PROBE_START	n/a	n/a	6	6	CAMEL	RHINO	CAMEL	RHINO	-1	[0, 0, 0]	-999	PAL1	2	R1318N
109.774	1.704	110793	REC_START	n/a	n/a	6	6	CAMEL	RHINO	CAMEL	RHINO	-1	[0, 0, 0]	-999	PAL1	2	R1318N
111.478	2.327	112497	REC_EVENT	1704	n/a	6	6	CAMEL	RHINO	CAMEL	RHINO	-1	[0, 0, 0]	-999	PAL1	2	R1318N
113.805	1.001	114824	PROBE_END	n/a	n/a	6	6	CAMEL	n/a	CAMEL	RHINO	-1	[0, 0, 0]	-999	PAL1	2	R1318N
114.806	0.013	115825	REC_END	n/a	n/a	6	6	CAMEL	n/a	CAMEL	RHINO	-1	[0, 0, 0]	-999	PAL1	2	R1318N
114.819	0.001	115838	RETRIEVAL_END	n/a	n/a	-999	-999	n/a	n/a	n/a	n/a	-1	[0, 0, 0]	-999	PAL1	2	R1318N
114.82	3.503	115839	PRACTICE_POST_INSTRUCT_START	n/a	n/a	-999	-999	n/a	n/a	n/a	n/a	-1	[0, 0, 0]	-999	PAL1	2	R1318N
118.323	0.001	119342	PRACTICE_POST_INSTRUCT_END	n/a	n/a	-999	-999	n/a	n/a	n/a	n/a	-1	[0, 0, 0]	-999	PAL1	2	R1318N
118.324	0.022	119343	TRIAL_END	n/a	n/a	-999	-999	n/a	n/a	n/a	n/a	-1	[0, 0, 0]	-999	PAL1	2	R1318N
118.346	0.0	119365	TRIAL_START	n/a	n/a	-999	-999	n/a	n/a	n/a	n/a	-1	[0, 0, 0]	-999	PAL1	2	R1318N
118.346	0.0	119365	TRIAL	n/a	n/a	-999	-999	n/a	n/a	n/a	n/a	1	[0, 0, 0]	-999	PAL1	2	R1318N
118.346	7.194	119365	WAITING_START	n/a	n/a	-999	-999	n/a	n/a	n/a	n/a	1	[0, 0, 0]	-999	PAL1	2	R1318N
125.54	0.001	126559	WAITING_END	n/a	n/a	-999	-999	n/a	n/a	n/a	n/a	1	[0, 0, 0]	-999	PAL1	2	R1318N
125.541	10.431	126560	COUNTDOWN_START	n/a	n/a	-999	-999	n/a	n/a	n/a	n/a	1	[0, 0, 0]	-999	PAL1	2	R1318N
135.972	0.0	136991	ORIENT_START	n/a	n/a	-999	-999	n/a	n/a	n/a	n/a	1	[0, 0, 0]	-999	PAL1	2	R1318N
135.972	0.687	136991	COUNTDOWN_END	n/a	n/a	-999	-999	n/a	n/a	n/a	n/a	1	[0, 0, 0]	-999	PAL1	2	R1318N
136.659	0.0	137678	ORIENT_END	n/a	n/a	-999	-999	n/a	n/a	n/a	n/a	1	[0, 0, 0]	-999	PAL1	2	R1318N
136.659	1.093	137678	ENCODING_START	n/a	n/a	-999	-999	n/a	n/a	n/a	n/a	1	[0, 0, 0]	-999	PAL1	2	R1318N
137.752	4.024	138770	STUDY_PAIR	n/a	wordpools/wordpool_EN.txt	1	-999	n/a	CHIN	CHIN	TEETH	1	[0, 0, 0]	-999	PAL1	2	R1318N
141.776	0.684	142794	STUDY_PAIR_OFF	n/a	n/a	1	-999	n/a	CHIN	CHIN	TEETH	1	[0, 0, 0]	-999	PAL1	2	R1318N
142.46	4.034	143478	STUDY_PAIR	n/a	wordpools/wordpool_EN.txt	2	-999	n/a	SAIL	CLOTH	SAIL	1	[0, 0, 0]	-999	PAL1	2	R1318N
146.494	0.532	147512	STUDY_PAIR_OFF	n/a	n/a	2	-999	n/a	SAIL	CLOTH	SAIL	1	[0, 0, 0]	-999	PAL1	2	R1318N
147.026	4.035	148044	STUDY_PAIR	n/a	wordpools/wordpool_EN.txt	3	-999	n/a	WEED	WEED	HOOK	1	[0, 0, 0]	-999	PAL1	2	R1318N
151.061	0.545	152079	STUDY_PAIR_OFF	n/a	n/a	3	-999	n/a	WEED	WEED	HOOK	1	[0, 0, 0]	-999	PAL1	2	R1318N
151.606	4.039	152624	STUDY_PAIR	n/a	wordpools/wordpool_EN.txt	4	-999	n/a	JUDGE	ARM	JUDGE	1	[0, 0, 0]	-999	PAL1	2	R1318N
155.645	0.511	156663	STUDY_PAIR_OFF	n/a	n/a	4	-999	n/a	JUDGE	ARM	JUDGE	1	[0, 0, 0]	-999	PAL1	2	R1318N
156.156	4.04	157174	STUDY_PAIR	n/a	wordpools/wordpool_EN.txt	5	-999	n/a	ROOM	SPRING	ROOM	1	[0, 0, 0]	-999	PAL1	2	R1318N
160.196	0.585	161214	STUDY_PAIR_OFF	n/a	n/a	5	-999	n/a	ROOM	SPRING	ROOM	1	[0, 0, 0]	-999	PAL1	2	R1318N
160.781	4.032	161799	STUDY_PAIR	n/a	wordpools/wordpool_EN.txt	6	-999	n/a	PIT	PIT	BEAR	1	[0, 0, 0]	-999	PAL1	2	R1318N
164.813	0.001	165831	STUDY_PAIR_OFF	n/a	n/a	6	-999	n/a	PIT	PIT	BEAR	1	[0, 0, 0]	-999	PAL1	2	R1318N
164.814	0.0	165832	ENCODING_END	n/a	n/a	-999	-999	n/a	n/a	n/a	n/a	1	[0, 0, 0]	-999	PAL1	2	R1318N
164.814	0.002	165832	MATH_START	n/a	n/a	-999	-999	n/a	n/a	n/a	n/a	1	[0, 0, 0]	-999	PAL1	2	R1318N
164.816	0.015	165834	START	n/a	n/a	-999	-999	n/a	n/a	n/a	n/a	1	[-999, -999, -999]	-999	PAL1	2	R1318N
164.831	12.018	165849	PROB	11989	n/a	-999	-999	n/a	n/a	n/a	n/a	1	[9, 8, 7]	23	PAL1	2	R1318N
176.849	5.15	177866	PROB	5123	n/a	-999	-999	n/a	n/a	n/a	n/a	1	[3, 5, 6]	14	PAL1	2	R1318N
181.999	5.059	183016	PROB	5059	n/a	-999	-999	n/a	n/a	n/a	n/a	1	[9, 1, 9]	19	PAL1	2	R1318N
187.058	0.009	188075	STOP	n/a	n/a	-999	-999	n/a	n/a	n/a	n/a	1	[-999, -999, -999]	-999	PAL1	2	R1318N
187.067	0.647	188084	MATH_END	n/a	n/a	-999	-999	n/a	n/a	n/a	n/a	1	[0, 0, 0]	-999	PAL1	2	R1318N
187.714	0.002	188731	RETRIEVAL_START	n/a	n/a	-999	-999	n/a	n/a	n/a	n/a	1	[0, 0, 0]	-999	PAL1	2	R1318N
187.716	0.284	188733	ORIENT_START	n/a	n/a	-999	-999	n/a	n/a	n/a	n/a	1	[0, 0, 0]	-999	PAL1	2	R1318N
188.0	0.509	189017	ORIENT_END	n/a	n/a	-999	-999	n/a	n/a	n/a	n/a	1	[0, 0, 0]	-999	PAL1	2	R1318N
188.509	0.0	189526	REC_START	n/a	n/a	1	1	TEETH	CHIN	CHIN	TEETH	1	[0, 0, 0]	-999	PAL1	2	R1318N
188.509	2.668	189526	PROBE_START	n/a	wordpools/wordpool_EN.txt	1	1	TEETH	CHIN	CHIN	TEETH	1	[0, 0, 0]	-999	PAL1	2	R1318N
191.177	1.358	192194	REC_EVENT	2668	n/a	1	1	TEETH	CHIN	CHIN	TEETH	1	[0, 0, 0]	-999	PAL1	2	R1318N
192.535	1.0	193552	PROBE_END	n/a	n/a	1	1	TEETH	n/a	CHIN	TEETH	1	[0, 0, 0]	-999	PAL1	2	R1318N
193.535	0.01	194552	REC_END	n/a	n/a	1	1	TEETH	n/a	CHIN	TEETH	1	[0, 0, 0]	-999	PAL1	2	R1318N
193.545	0.274	194562	ORIENT_START	n/a	n/a	-999	-999	n/a	n/a	n/a	n/a	1	[0, 0, 0]	-999	PAL1	2	R1318N
193.819	0.602	194836	ORIENT_END	n/a	n/a	-999	-999	n/a	n/a	n/a	n/a	1	[0, 0, 0]	-999	PAL1	2	R1318N
194.421	0.0	195438	PROBE_START	n/a	wordpools/wordpool_EN.txt	2	2	CLOTH	SAIL	CLOTH	SAIL	1	[0, 0, 0]	-999	PAL1	2	R1318N
194.421	1.731	195438	REC_START	n/a	n/a	2	2	CLOTH	SAIL	CLOTH	SAIL	1	[0, 0, 0]	-999	PAL1	2	R1318N
196.152	2.3	197169	REC_EVENT	1731	n/a	2	2	CLOTH	SAIL	CLOTH	SAIL	1	[0, 0, 0]	-999	PAL1	2	R1318N
198.452	1.0	199469	PROBE_END	n/a	n/a	2	2	CLOTH	n/a	CLOTH	SAIL	1	[0, 0, 0]	-999	PAL1	2	R1318N
199.452	0.013	200469	REC_END	n/a	n/a	2	2	CLOTH	n/a	CLOTH	SAIL	1	[0, 0, 0]	-999	PAL1	2	R1318N
199.465	0.271	200482	ORIENT_START	n/a	n/a	-999	-999	n/a	n/a	n/a	n/a	1	[0, 0, 0]	-999	PAL1	2	R1318N
199.736	0.708	200753	ORIENT_END	n/a	n/a	-999	-999	n/a	n/a	n/a	n/a	1	[0, 0, 0]	-999	PAL1	2	R1318N
200.444	0.001	201461	REC_START	n/a	n/a	5	3	SPRING	ROOM	SPRING	ROOM	1	[0, 0, 0]	-999	PAL1	2	R1318N
200.445	1.763	201462	PROBE_START	n/a	wordpools/wordpool_EN.txt	5	3	SPRING	ROOM	SPRING	ROOM	1	[0, 0, 0]	-999	PAL1	2	R1318N
202.208	2.262	203225	REC_EVENT	1763	n/a	5	3	SPRING	ROOM	SPRING	ROOM	1	[0, 0, 0]	-999	PAL1	2	R1318N
204.47	1.0	205487	PROBE_END	n/a	n/a	5	3	SPRING	n/a	SPRING	ROOM	1	[0, 0, 0]	-999	PAL1	2	R1318N
205.47	0.01	206487	REC_END	n/a	n/a	5	3	SPRING	n/a	SPRING	ROOM	1	[0, 0, 0]	-999	PAL1	2	R1318N
205.48	0.273	206497	ORIENT_START	n/a	n/a	-999	-999	n/a	n/a	n/a	n/a	1	[0, 0, 0]	-999	PAL1	2	R1318N
205.753	0.649	206770	ORIENT_END	n/a	n/a	-999	-999	n/a	n/a	n/a	n/a	1	[0, 0, 0]	-999	PAL1	2	R1318N
206.402	0.0	207419	PROBE_START	n/a	wordpools/wordpool_EN.txt	4	4	ARM	JUDGE	ARM	JUDGE	1	[0, 0, 0]	-999	PAL1	2	R1318N
206.402	1.655	207419	REC_START	n/a	n/a	4	4	ARM	JUDGE	ARM	JUDGE	1	[0, 0, 0]	-999	PAL1	2	R1318N
208.057	2.381	209073	REC_EVENT	1655	n/a	4	4	ARM	JUDGE	ARM	JUDGE	1	[0, 0, 0]	-999	PAL1	2	R1318N
210.438	0.999	211454	PROBE_END	n/a	n/a	4	4	ARM	n/a	ARM	JUDGE	1	[0, 0, 0]	-999	PAL1	2	R1318N
211.437	0.011	212453	REC_END	n/a	n/a	4	4	ARM	n/a	ARM	JUDGE	1	[0, 0, 0]	-999	PAL1	2	R1318N
211.448	0.273	212464	ORIENT_START	n/a	n/a	-999	-999	n/a	n/a	n/a	n/a	1	[0, 0, 0]	-999	PAL1	2	R1318N
211.721	0.53	212737	ORIENT_END	n/a	n/a	-999	-999	n/a	n/a	n/a	n/a	1	[0, 0, 0]	-999	PAL1	2	R1318N
212.251	0.0	213267	REC_START	n/a	n/a	3	5	HOOK	WEED	WEED	HOOK	1	[0, 0, 0]	-999	PAL1	2	R1318N
212.251	1.787	213267	PROBE_START	n/a	wordpools/wordpool_EN.txt	3	5	HOOK	WEED	WEED	HOOK	1	[0, 0, 0]	-999	PAL1	2	R1318N
214.038	2.251	215054	REC_EVENT	1787	n/a	3	5	HOOK	WEED	WEED	HOOK	1	[0, 0, 0]	-999	PAL1	2	R1318N
216.289	1.0	217305	PROBE_END	n/a	n/a	3	5	HOOK	n/a	WEED	HOOK	1	[0, 0, 0]	-999	PAL1	2	R1318N
217.289	0.012	218305	REC_END	n/a	n/a	3	5	HOOK	n/a	WEED	HOOK	1	[0, 0, 0]	-999	PAL1	2	R1318N
217.301	0.271	218317	ORIENT_START	n/a	n/a	-999	-999	n/a	n/a	n/a	n/a	1	[0, 0, 0]	-999	PAL1	2	R1318N
217.572	0.705	218588	ORIENT_END	n/a	n/a	-999	-999	n/a	n/a	n/a	n/a	1	[0, 0, 0]	-999	PAL1	2	R1318N
218.277	0.0	219293	PROBE_START	n/a	wordpools/wordpool_EN.txt	6	6	BEAR	PIT	PIT	BEAR	1	[0, 0, 0]	-999	PAL1	2	R1318N
218.277	1.77	219293	REC_START	n/a	n/a	6	6	BEAR	PIT	PIT	BEAR	1	[0, 0, 0]	-999	PAL1	2	R1318N
220.047	2.259	221063	REC_EVENT	1770	n/a	6	6	BEAR	PIT	PIT	BEAR	1	[0, 0, 0]	-999	PAL1	2	R1318N
222.306	1.012	223322	PROBE_END	n/a	n/a	6	6	BEAR	n/a	PIT	BEAR	1	[0, 0, 0]	-999	PAL1	2	R1318N
223.318	0.004	224334	REC_END	n/a	n/a	6	6	BEAR	n/a	PIT	BEAR	1	[0, 0, 0]	-999	PAL1	2	R1318N
223.322	0.0	224338	RETRIEVAL_END	n/a	n/a	-999	-999	n/a	n/a	n/a	n/a	1	[0, 0, 0]	-999	PAL1	2	R1318N
223.322	0.021	224338	TRIAL_END	n/a	n/a	-999	-999	n/a	n/a	n/a	n/a	1	[0, 0, 0]	-999	PAL1	2	R1318N
223.343	0.0	224359	TRIAL_START	n/a	n/a	-999	-999	n/a	n/a	n/a	n/a	1	[0, 0, 0]	-999	PAL1	2	R1318N
223.343	0.0	224359	TRIAL	n/a	n/a	-999	-999	n/a	n/a	n/a	n/a	2	[0, 0, 0]	-999	PAL1	2	R1318N
223.343	1.864	224359	WAITING_START	n/a	n/a	-999	-999	n/a	n/a	n/a	n/a	2	[0, 0, 0]	-999	PAL1	2	R1318N
225.207	0.0	226223	WAITING_END	n/a	n/a	-999	-999	n/a	n/a	n/a	n/a	2	[0, 0, 0]	-999	PAL1	2	R1318N
225.207	10.428	226223	COUNTDOWN_START	n/a	n/a	-999	-999	n/a	n/a	n/a	n/a	2	[0, 0, 0]	-999	PAL1	2	R1318N
235.635	0.0	236651	COUNTDOWN_END	n/a	n/a	-999	-999	n/a	n/a	n/a	n/a	2	[0, 0, 0]	-999	PAL1	2	R1318N
235.635	0.724	236651	ORIENT_START	n/a	n/a	-999	-999	n/a	n/a	n/a	n/a	2	[0, 0, 0]	-999	PAL1	2	R1318N
236.359	0.0	237375	ENCODING_START	n/a	n/a	-999	-999	n/a	n/a	n/a	n/a	2	[0, 0, 0]	-999	PAL1	2	R1318N
236.359	1.149	237375	ORIENT_END	n/a	n/a	-999	-999	n/a	n/a	n/a	n/a	2	[0, 0, 0]	-999	PAL1	2	R1318N
237.508	4.035	238524	STUDY_PAIR	n/a	wordpools/wordpool_EN.txt	1	-999	n/a	TAIL	TOE	TAIL	2	[0, 0, 0]	-999	PAL1	2	R1318N
241.543	0.571	242558	STUDY_PAIR_OFF	n/a	n/a	1	-999	n/a	TAIL	TOE	TAIL	2	[0, 0, 0]	-999	PAL1	2	R1318N
242.114	4.029	243129	STUDY_PAIR	n/a	wordpools/wordpool_EN.txt	2	-999	n/a	WAVE	VINE	WAVE	2	[0, 0, 0]	-999	PAL1	2	R1318N
246.143	0.743	247158	STUDY_PAIR_OFF	n/a	n/a	2	-999	n/a	WAVE	VINE	WAVE	2	[0, 0, 0]	-999	PAL1	2	R1318N
246.886	4.026	247901	STUDY_PAIR	n/a	wordpools/wordpool_EN.txt	3	-999	n/a	TOAD	PURSE	TOAD	2	[0, 0, 0]	-999	PAL1	2	R1318N
250.912	0.614	251927	STUDY_PAIR_OFF	n/a	n/a	3	-999	n/a	TOAD	PURSE	TOAD	2	[0, 0, 0]	-999	PAL1	2	R1318N
251.526	4.036	252541	STUDY_PAIR	n/a	wordpools/wordpool_EN.txt	4	-999	n/a	HILL	HILL	BIRD	2	[0, 0, 0]	-999	PAL1	2	R1318N
255.562	0.667	256577	STUDY_PAIR_OFF	n/a	n/a	4	-999	n/a	HILL	HILL	BIRD	2	[0, 0, 0]	-999	PAL1	2	R1318N
256.229	4.033	257244	STUDY_PAIR	n/a	wordpools/wordpool_EN.txt	5	-999	n/a	THREAD	THREAD	FAN	2	[0, 0, 0]	-999	PAL1	2	R1318N
260.262	0.652	261277	STUDY_PAIR_OFF	n/a	n/a	5	-999	n/a	THREAD	THREAD	FAN	2	[0, 0, 0]	-999	PAL1	2	R1318N
260.914	4.034	261929	STUDY_PAIR	n/a	wordpools/wordpool_EN.txt	6	-999	n/a	ICE	ICE	DUCK	2	[0, 0, 0]	-999	PAL1	2	R1318N
264.948	0.0	265963	STUDY_PAIR_OFF	n/a	n/a	6	-999	n/a	ICE	ICE	DUCK	2	[0, 0, 0]	-999	PAL1	2	R1318N
264.948	0.001	265963	ENCODING_END	n/a	n/a	-999	-999	n/a	n/a	n/a	n/a	2	[0, 0, 0]	-999	PAL1	2	R1318N
264.949	0.0	265964	MATH_START	n/a	n/a	-999	-999	n/a	n/a	n/a	n/a	2	[0, 0, 0]	-999	PAL1	2	R1318N
264.949	0.015	265964	START	n/a	n/a	-999	-999	n/a	n/a	n/a	n/a	2	[-999, -999, -999]	-999	PAL1	2	R1318N
264.964	6.767	265979	PROB	6743	n/a	-999	-999	n/a	n/a	n/a	n/a	2	[8, 6, 7]	21	PAL1	2	R1318N
271.731	4.251	272746	PROB	4217	n/a	-999	-999	n/a	n/a	n/a	n/a	2	[9, 7, 6]	22	PAL1	2	R1318N
275.982	2.001	276996	PROB	1966	n/a	-999	-999	n/a	n/a	n/a	n/a	2	[4, 1, 6]	11	PAL1	2	R1318N
277.983	2.649	278997	PROB	2620	n/a	-999	-999	n/a	n/a	n/a	n/a	2	[4, 1, 3]	8	PAL1	2	R1318N
280.632	2.667	281646	PROB	2643	n/a	-999	-999	n/a	n/a	n/a	n/a	2	[8, 5, 2]	15	PAL1	2	R1318N
283.299	2.432	284313	PROB	2432	n/a	-999	-999	n/a	n/a	n/a	n/a	2	[4, 3, 6]	13	PAL1	2	R1318N
285.731	0.019	286745	STOP	n/a	n/a	-999	-999	n/a	n/a	n/a	n/a	2	[-999, -999, -999]	-999	PAL1	2	R1318N
285.75	0.587	286764	MATH_END	n/a	n/a	-999	-999	n/a	n/a	n/a	n/a	2	[0, 0, 0]	-999	PAL1	2	R1318N
286.337	0.001	287351	RETRIEVAL_START	n/a	n/a	-999	-999	n/a	n/a	n/a	n/a	2	[0, 0, 0]	-999	PAL1	2	R1318N
286.338	0.279	287352	ORIENT_START	n/a	n/a	-999	-999	n/a	n/a	n/a	n/a	2	[0, 0, 0]	-999	PAL1	2	R1318N
286.617	0.652	287631	ORIENT_END	n/a	n/a	-999	-999	n/a	n/a	n/a	n/a	2	[0, 0, 0]	-999	PAL1	2	R1318N
287.269	0.001	288283	REC_START	n/a	n/a	3	1	PURSE	TOAD	PURSE	TOAD	2	[0, 0, 0]	-999	PAL1	2	R1318N
287.27	1.938	288284	PROBE_START	n/a	wordpools/wordpool_EN.txt	3	1	PURSE	TOAD	PURSE	TOAD	2	[0, 0, 0]	-999	PAL1	2	R1318N
289.208	2.093	290222	REC_EVENT	1938	n/a	3	1	PURSE	TOAD	PURSE	TOAD	2	[0, 0, 0]	-999	PAL1	2	R1318N
291.301	1.001	292315	PROBE_END	n/a	n/a	3	1	PURSE	n/a	PURSE	TOAD	2	[0, 0, 0]	-999	PAL1	2	R1318N
292.302	0.011	293316	REC_END	n/a	n/a	3	1	PURSE	n/a	PURSE	TOAD	2	[0, 0, 0]	-999	PAL1	2	R1318N
292.313	0.271	293327	ORIENT_START	n/a	n/a	-999	-999	n/a	n/a	n/a	n/a	2	[0, 0, 0]	-999	PAL1	2	R1318N
292.584	0.642	293598	ORIENT_END	n/a	n/a	-999	-999	n/a	n/a	n/a	n/a	2	[0, 0, 0]	-999	PAL1	2	R1318N
293.226	0.0	294240	PROBE_START	n/a	wordpools/wordpool_EN.txt	2	2	VINE	WAVE	VINE	WAVE	2	[0, 0, 0]	-999	PAL1	2	R1318N
293.226	1.89	294240	REC_START	n/a	n/a	2	2	VINE	WAVE	VINE	WAVE	2	[0, 0, 0]	-999	PAL1	2	R1318N
295.116	2.136	296130	REC_EVENT	1890	n/a	2	2	VINE	WAVE	VINE	WAVE	2	[0, 0, 0]	-999	PAL1	2	R1318N
297.252	1.0	298266	PROBE_END	n/a	n/a	2	2	VINE	n/a	VINE	WAVE	2	[0, 0, 0]	-999	PAL1	2	R1318N
298.252	0.011	299266	REC_END	n/a	n/a	2	2	VINE	n/a	VINE	WAVE	2	[0, 0, 0]	-999	PAL1	2	R1318N
298.263	0.272	299277	ORIENT_START	n/a	n/a	-999	-999	n/a	n/a	n/a	n/a	2	[0, 0, 0]	-999	PAL1	2	R1318N
298.535	0.568	299549	ORIENT_END	n/a	n/a	-999	-999	n/a	n/a	n/a	n/a	2	[0, 0, 0]	-999	PAL1	2	R1318N
299.103	0.001	300117	REC_START	n/a	n/a	5	3	FAN	THREAD	THREAD	FAN	2	[0, 0, 0]	-999	PAL1	2	R1318N
299.104	1.579	300118	PROBE_START	n/a	wordpools/wordpool_EN.txt	5	3	FAN	THREAD	THREAD	FAN	2	[0, 0, 0]	-999	PAL1	2	R1318N
300.683	2.453	301697	REC_EVENT	1579	n/a	5	3	FAN	THREAD	THREAD	FAN	2	[0, 0, 0]	-999	PAL1	2	R1318N
303.136	1.0	304150	PROBE_END	n/a	n/a	5	3	FAN	n/a	THREAD	FAN	2	[0, 0, 0]	-999	PAL1	2	R1318N
304.136	0.011	305150	REC_END	n/a	n/a	5	3	FAN	n/a	THREAD	FAN	2	[0, 0, 0]	-999	PAL1	2	R1318N
304.147	0.273	305161	ORIENT_START	n/a	n/a	-999	-999	n/a	n/a	n/a	n/a	2	[0, 0, 0]	-999	PAL1	2	R1318N
304.42	0.742	305434	ORIENT_END	n/a	n/a	-999	-999	n/a	n/a	n/a	n/a	2	[0, 0, 0]	-999	PAL1	2	R1318N
305.162	0.001	306176	REC_START	n/a	n/a	4	4	BIRD	HILL	HILL	BIRD	2	[0, 0, 0]	-999	PAL1	2	R1318N
305.163	2.398	306177	PROBE_START	n/a	wordpools/wordpool_EN.txt	4	4	BIRD	HILL	HILL	BIRD	2	[0, 0, 0]	-999	PAL1	2	R1318N
307.561	1.626	308575	REC_EVENT	2398	n/a	4	4	BIRD	HILL	HILL	BIRD	2	[0, 0, 0]	-999	PAL1	2	R1318N
309.187	1.0	310201	PROBE_END	n/a	n/a	4	4	BIRD	n/a	HILL	BIRD	2	[0, 0, 0]	-999	PAL1	2	R1318N
310.187	0.006	311201	REC_END	n/a	n/a	4	4	BIRD	n/a	HILL	BIRD	2	[0, 0, 0]	-999	PAL1	2	R1318N
310.193	0.278	311207	ORIENT_START	n/a	n/a	-999	-999	n/a	n/a	n/a	n/a	2	[0, 0, 0]	-999	PAL1	2	R1318N
310.471	0.631	311485	ORIENT_END	n/a	n/a	-999	-999	n/a	n/a	n/a	n/a	2	[0, 0, 0]	-999	PAL1	2	R1318N
311.102	0.0	312115	REC_START	n/a	n/a	1	5	TOE	TAIL	TOE	TAIL	2	[0, 0, 0]	-999	PAL1	2	R1318N
311.102	3.178	312115	PROBE_START	n/a	wordpools/wordpool_EN.txt	1	5	TOE	TAIL	TOE	TAIL	2	[0, 0, 0]	-999	PAL1	2	R1318N
314.28	0.765	315293	REC_EVENT	3178	n/a	1	5	TOE	<>	TOE	TAIL	2	[0, 0, 0]	-999	PAL1	2	R1318N
315.045	0.093	316058	REC_EVENT	3943	n/a	1	5	TOE	TAIL	TOE	TAIL	2	[0, 0, 0]	-999	PAL1	2	R1318N
315.138	1.0	316151	PROBE_END	n/a	n/a	1	5	TOE	n/a	TOE	TAIL	2	[0, 0, 0]	-999	PAL1	2	R1318N
316.138	0.011	317151	REC_END	n/a	n/a	1	5	TOE	n/a	TOE	TAIL	2	[0, 0, 0]	-999	PAL1	2	R1318N
316.149	0.273	317162	ORIENT_START	n/a	n/a	-999	-999	n/a	n/a	n/a	n/a	2	[0, 0, 0]	-999	PAL1	2	R1318N
316.422	0.667	317435	ORIENT_END	n/a	n/a	-999	-999	n/a	n/a	n/a	n/a	2	[0, 0, 0]	-999	PAL1	2	R1318N
317.089	0.0	318102	PROBE_START	n/a	wordpools/wordpool_EN.txt	6	6	DUCK	ICE	ICE	DUCK	2	[0, 0, 0]	-999	PAL1	2	R1318N
317.089	1.764	318102	REC_START	n/a	n/a	6	6	DUCK	ICE	ICE	DUCK	2	[0, 0, 0]	-999	PAL1	2	R1318N
318.853	2.269	319866	REC_EVENT	1764	n/a	6	6	DUCK	ICE	ICE	DUCK	2	[0, 0, 0]	-999	PAL1	2	R1318N
321.122	1.001	322135	PROBE_END	n/a	n/a	6	6	DUCK	n/a	ICE	DUCK	2	[0, 0, 0]	-999	PAL1	2	R1318N
322.123	0.012	323136	REC_END	n/a	n/a	6	6	DUCK	n/a	ICE	DUCK	2	[0, 0, 0]	-999	PAL1	2	R1318N
322.135	0.001	323148	RETRIEVAL_END	n/a	n/a	-999	-999	n/a	n/a	n/a	n/a	2	[0, 0, 0]	-999	PAL1	2	R1318N
322.136	0.018	323149	TRIAL_END	n/a	n/a	-999	-999	n/a	n/a	n/a	n/a	2	[0, 0, 0]	-999	PAL1	2	R1318N
322.154	0.0	323167	TRIAL_START	n/a	n/a	-999	-999	n/a	n/a	n/a	n/a	2	[0, 0, 0]	-999	PAL1	2	R1318N
322.154	0.001	323167	TRIAL	n/a	n/a	-999	-999	n/a	n/a	n/a	n/a	3	[0, 0, 0]	-999	PAL1	2	R1318N
322.155	1.284	323168	WAITING_START	n/a	n/a	-999	-999	n/a	n/a	n/a	n/a	3	[0, 0, 0]	-999	PAL1	2	R1318N
323.439	0.001	324452	WAITING_END	n/a	n/a	-999	-999	n/a	n/a	n/a	n/a	3	[0, 0, 0]	-999	PAL1	2	R1318N
323.44	10.428	324453	COUNTDOWN_START	n/a	n/a	-999	-999	n/a	n/a	n/a	n/a	3	[0, 0, 0]	-999	PAL1	2	R1318N
333.868	0.0	334881	COUNTDOWN_END	n/a	n/a	-999	-999	n/a	n/a	n/a	n/a	3	[0, 0, 0]	-999	PAL1	2	R1318N
333.868	0.64	334881	ORIENT_START	n/a	n/a	-999	-999	n/a	n/a	n/a	n/a	3	[0, 0, 0]	-999	PAL1	2	R1318N
334.508	0.0	335521	ORIENT_END	n/a	n/a	-999	-999	n/a	n/a	n/a	n/a	3	[0, 0, 0]	-999	PAL1	2	R1318N
334.508	1.246	335521	ENCODING_START	n/a	n/a	-999	-999	n/a	n/a	n/a	n/a	3	[0, 0, 0]	-999	PAL1	2	R1318N
335.754	4.038	336767	STUDY_PAIR	n/a	wordpools/wordpool_EN.txt	1	-999	n/a	TEA	PIG	TEA	3	[0, 0, 0]	-999	PAL1	2	R1318N
339.792	0.508	340805	STUDY_PAIR_OFF	n/a	n/a	1	-999	n/a	TEA	PIG	TEA	3	[0, 0, 0]	-999	PAL1	2	R1318N
340.3	4.026	341313	STUDY_PAIR	n/a	wordpools/wordpool_EN.txt	2	-999	n/a	FORK	FUDGE	FORK	3	[0, 0, 0]	-999	PAL1	2	R1318N
344.326	0.537	345339	STUDY_PAIR_OFF	n/a	n/a	2	-999	n/a	FORK	FUDGE	FORK	3	[0, 0, 0]	-999	PAL1	2	R1318N
344.863	4.032	345876	STUDY_PAIR	n/a	wordpools/wordpool_EN.txt	3	-999	n/a	BEE	BEE	DEER	3	[0, 0, 0]	-999	PAL1	2	R1318N
348.895	0.732	349907	STUDY_PAIR_OFF	n/a	n/a	3	-999	n/a	BEE	BEE	DEER	3	[0, 0, 0]	-999	PAL1	2	R1318N
349.627	4.034	350639	STUDY_PAIR	n/a	wordpools/wordpool_EN.txt	4	-999	n/a	LIP	LIP	CAPE	3	[0, 0, 0]	-999	PAL1	2	R1318N
353.661	0.529	354673	STUDY_PAIR_OFF	n/a	n/a	4	-999	n/a	LIP	LIP	CAPE	3	[0, 0, 0]	-999	PAL1	2	R1318N
354.19	4.038	355202	STUDY_PAIR	n/a	wordpools/wordpool_EN.txt	5	-999	n/a	n/a	LOCK	EGG	3	[0, 0, 0]	-999	PAL1	2	R1318N
358.228	0.748	359240	STUDY_PAIR_OFF	n/a	n/a	5	-999	n/a	n/a	LOCK	EGG	3	[0, 0, 0]	-999	PAL1	2	R1318N
358.976	4.037	359988	STUDY_PAIR	n/a	wordpools/wordpool_EN.txt	6	-999	n/a	CORN	BAND	CORN	3	[0, 0, 0]	-999	PAL1	2	R1318N
363.013	0.0	364025	STUDY_PAIR_OFF	n/a	n/a	6	-999	n/a	CORN	BAND	CORN	3	[0, 0, 0]	-999	PAL1	2	R1318N
363.013	0.0	364025	ENCODING_END	n/a	n/a	-999	-999	n/a	n/a	n/a	n/a	3	[0, 0, 0]	-999	PAL1	2	R1318N
363.013	0.001	364025	MATH_START	n/a	n/a	-999	-999	n/a	n/a	n/a	n/a	3	[0, 0, 0]	-999	PAL1	2	R1318N
363.014	0.015	364026	START	n/a	n/a	-999	-999	n/a	n/a	n/a	n/a	3	[-999, -999, -999]	-999	PAL1	2	R1318N
363.029	2.868	364041	PROB	2831	n/a	-999	-999	n/a	n/a	n/a	n/a	3	[7, 1, 7]	15	PAL1	2	R1318N
365.897	2.984	366909	PROB	2947	n/a	-999	-999	n/a	n/a	n/a	n/a	3	[4, 5, 1]	10	PAL1	2	R1318N
368.881	4.283	369893	PROB	4258	n/a	-999	-999	n/a	n/a	n/a	n/a	3	[5, 7, 8]	20	PAL1	2	R1318N
373.164	3.384	374176	PROB	3358	n/a	-999	-999	n/a	n/a	n/a	n/a	3	[7, 1, 4]	12	PAL1	2	R1318N
376.548	3.834	377560	PROB	3807	n/a	-999	-999	n/a	n/a	n/a	n/a	3	[9, 2, 9]	20	PAL1	2	R1318N
380.382	4.156	381393	PROB	4156	n/a	-999	-999	n/a	n/a	n/a	n/a	3	[8, 7, 4]	19	PAL1	2	R1318N
384.538	0.011	385549	STOP	n/a	n/a	-999	-999	n/a	n/a	n/a	n/a	3	[-999, -999, -999]	-999	PAL1	2	R1318N
384.549	0.523	385560	MATH_END	n/a	n/a	-999	-999	n/a	n/a	n/a	n/a	3	[0, 0, 0]	-999	PAL1	2	R1318N
385.072	0.002	386083	RETRIEVAL_START	n/a	n/a	-999	-999	n/a	n/a	n/a	n/a	3	[0, 0, 0]	-999	PAL1	2	R1318N
385.074	0.276	386085	ORIENT_START	n/a	n/a	-999	-999	n/a	n/a	n/a	n/a	3	[0, 0, 0]	-999	PAL1	2	R1318N
385.35	0.604	386361	ORIENT_END	n/a	n/a	-999	-999	n/a	n/a	n/a	n/a	3	[0, 0, 0]	-999	PAL1	2	R1318N
385.954	0.001	386965	REC_START	n/a	n/a	1	1	PIG	TEA	PIG	TEA	3	[0, 0, 0]	-999	PAL1	2	R1318N
385.955	1.957	386966	PROBE_START	n/a	wordpools/wordpool_EN.txt	1	1	PIG	TEA	PIG	TEA	3	[0, 0, 0]	-999	PAL1	2	R1318N
387.912	2.073	388923	REC_EVENT	1957	n/a	1	1	PIG	TEA	PIG	TEA	3	[0, 0, 0]	-999	PAL1	2	R1318N
389.985	1.001	390996	PROBE_END	n/a	n/a	1	1	PIG	n/a	PIG	TEA	3	[0, 0, 0]	-999	PAL1	2	R1318N
390.986	0.009	391997	REC_END	n/a	n/a	1	1	PIG	n/a	PIG	TEA	3	[0, 0, 0]	-999	PAL1	2	R1318N
390.995	0.272	392006	ORIENT_START	n/a	n/a	-999	-999	n/a	n/a	n/a	n/a	3	[0, 0, 0]	-999	PAL1	2	R1318N
391.267	0.708	392278	ORIENT_END	n/a	n/a	-999	-999	n/a	n/a	n/a	n/a	3	[0, 0, 0]	-999	PAL1	2	R1318N
391.975	0.0	392986	REC_START	n/a	n/a	2	2	FUDGE	FORK	FUDGE	FORK	3	[0, 0, 0]	-999	PAL1	2	R1318N
391.975	1.788	392986	PROBE_START	n/a	wordpools/wordpool_EN.txt	2	2	FUDGE	FORK	FUDGE	FORK	3	[0, 0, 0]	-999	PAL1	2	R1318N
393.763	2.238	394774	REC_EVENT	1788	n/a	2	2	FUDGE	FORK	FUDGE	FORK	3	[0, 0, 0]	-999	PAL1	2	R1318N
396.001	1.0	397012	PROBE_END	n/a	n/a	2	2	FUDGE	n/a	FUDGE	FORK	3	[0, 0, 0]	-999	PAL1	2	R1318N
397.001	0.012	398012	REC_END	n/a	n/a	2	2	FUDGE	n/a	FUDGE	FORK	3	[0, 0, 0]	-999	PAL1	2	R1318N
397.013	0.272	398024	ORIENT_START	n/a	n/a	-999	-999	n/a	n/a	n/a	n/a	3	[0, 0, 0]	-999	PAL1	2	R1318N
397.285	0.5	398296	ORIENT_END	n/a	n/a	-999	-999	n/a	n/a	n/a	n/a	3	[0, 0, 0]	-999	PAL1	2	R1318N
397.785	0.001	398796	REC_START	n/a	n/a	5	3	EGG	n/a	LOCK	EGG	3	[0, 0, 0]	-999	PAL1	2	R1318N
397.786	2.26	398797	PROBE_START	n/a	wordpools/wordpool_EN.txt	5	3	EGG	n/a	LOCK	EGG	3	[0, 0, 0]	-999	PAL1	2	R1318N
400.046	1.774	401057	REC_EVENT	2260	n/a	5	3	EGG	<>	LOCK	EGG	3	[0, 0, 0]	-999	PAL1	2	R1318N
401.82	1.001	402831	PROBE_END	n/a	n/a	5	3	EGG	n/a	LOCK	EGG	3	[0, 0, 0]	-999	PAL1	2	R1318N
402.821	0.01	403832	REC_END	n/a	n/a	5	3	EGG	n/a	LOCK	EGG	3	[0, 0, 0]	-999	PAL1	2	R1318N
402.831	0.272	403842	ORIENT_START	n/a	n/a	-999	-999	n/a	n/a	n/a	n/a	3	[0, 0, 0]	-999	PAL1	2	R1318N
403.103	0.559	404114	ORIENT_END	n/a	n/a	-999	-999	n/a	n/a	n/a	n/a	3	[0, 0, 0]	-999	PAL1	2	R1318N
403.662	0.0	404673	REC_START	n/a	n/a	4	4	CAPE	LIP	LIP	CAPE	3	[0, 0, 0]	-999	PAL1	2	R1318N
403.662	2.046	404673	PROBE_START	n/a	wordpools/wordpool_EN.txt	4	4	CAPE	LIP	LIP	CAPE	3	[0, 0, 0]	-999	PAL1	2	R1318N
405.708	1.979	406719	REC_EVENT	2046	n/a	4	4	CAPE	LIP	LIP	CAPE	3	[0, 0, 0]	-999	PAL1	2	R1318N
407.687	0.999	408698	PROBE_END	n/a	n/a	4	4	CAPE	n/a	LIP	CAPE	3	[0, 0, 0]	-999	PAL1	2	R1318N
408.686	0.01	409697	REC_END	n/a	n/a	4	4	CAPE	n/a	LIP	CAPE	3	[0, 0, 0]	-999	PAL1	2	R1318N
408.696	0.259	409707	ORIENT_START	n/a	n/a	-999	-999	n/a	n/a	n/a	n/a	3	[0, 0, 0]	-999	PAL1	2	R1318N
408.955	0.735	409966	ORIENT_END	n/a	n/a	-999	-999	n/a	n/a	n/a	n/a	3	[0, 0, 0]	-999	PAL1	2	R1318N
409.69	0.0	410701	REC_START	n/a	n/a	3	5	DEER	BEE	BEE	DEER	3	[0, 0, 0]	-999	PAL1	2	R1318N
409.69	2.358	410701	PROBE_START	n/a	wordpools/wordpool_EN.txt	3	5	DEER	BEE	BEE	DEER	3	[0, 0, 0]	-999	PAL1	2	R1318N
412.048	1.673	413059	REC_EVENT	2358	n/a	3	5	DEER	BEE	BEE	DEER	3	[0, 0, 0]	-999	PAL1	2	R1318N
413.721	1.0	414732	PROBE_END	n/a	n/a	3	5	DEER	n/a	BEE	DEER	3	[0, 0, 0]	-999	PAL1	2	R1318N
414.721	0.011	415731	REC_END	n/a	n/a	3	5	DEER	n/a	BEE	DEER	3	[0, 0, 0]	-999	PAL1	2	R1318N
414.732	0.272	415742	ORIENT_START	n/a	n/a	-999	-999	n/a	n/a	n/a	n/a	3	[0, 0, 0]	-999	PAL1	2	R1318N
415.004	0.59	416014	ORIENT_END	n/a	n/a	-999	-999	n/a	n/a	n/a	n/a	3	[0, 0, 0]	-999	PAL1	2	R1318N
415.594	0.0	416604	REC_START	n/a	n/a	6	6	BAND	CORN	BAND	CORN	3	[0, 0, 0]	-999	PAL1	2	R1318N
415.594	1.837	416604	PROBE_START	n/a	wordpools/wordpool_EN.txt	6	6	BAND	CORN	BAND	CORN	3	[0, 0, 0]	-999	PAL1	2	R1318N
417.431	2.191	418441	REC_EVENT	1837	n/a	6	6	BAND	CORN	BAND	CORN	3	[0, 0, 0]	-999	PAL1	2	R1318N
419.622	1.0	420632	PROBE_END	n/a	n/a	6	6	BAND	n/a	BAND	CORN	3	[0, 0, 0]	-999	PAL1	2	R1318N
420.622	0.012	421632	REC_END	n/a	n/a	6	6	BAND	n/a	BAND	CORN	3	[0, 0, 0]	-999	PAL1	2	R1318N
420.634	0.0	421644	RETRIEVAL_END	n/a	n/a	-999	-999	n/a	n/a	n/a	n/a	3	[0, 0, 0]	-999	PAL1	2	R1318N
420.634	0.02	421644	TRIAL_END	n/a	n/a	-999	-999	n/a	n/a	n/a	n/a	3	[0, 0, 0]	-999	PAL1	2	R1318N
420.654	0.0	421664	TRIAL_START	n/a	n/a	-999	-999	n/a	n/a	n/a	n/a	3	[0, 0, 0]	-999	PAL1	2	R1318N
420.654	0.0	421664	TRIAL	n/a	n/a	-999	-999	n/a	n/a	n/a	n/a	4	[0, 0, 0]	-999	PAL1	2	R1318N
420.654	1.002	421664	WAITING_START	n/a	n/a	-999	-999	n/a	n/a	n/a	n/a	4	[0, 0, 0]	-999	PAL1	2	R1318N
421.656	0.0	422666	WAITING_END	n/a	n/a	-999	-999	n/a	n/a	n/a	n/a	4	[0, 0, 0]	-999	PAL1	2	R1318N
421.656	10.429	422666	COUNTDOWN_START	n/a	n/a	-999	-999	n/a	n/a	n/a	n/a	4	[0, 0, 0]	-999	PAL1	2	R1318N
432.085	0.0	433095	COUNTDOWN_END	n/a	n/a	-999	-999	n/a	n/a	n/a	n/a	4	[0, 0, 0]	-999	PAL1	2	R1318N
432.085	0.673	433095	ORIENT_START	n/a	n/a	-999	-999	n/a	n/a	n/a	n/a	4	[0, 0, 0]	-999	PAL1	2	R1318N
432.758	0.0	433768	ORIENT_END	n/a	n/a	-999	-999	n/a	n/a	n/a	n/a	4	[0, 0, 0]	-999	PAL1	2	R1318N
432.758	1.013	433768	ENCODING_START	n/a	n/a	-999	-999	n/a	n/a	n/a	n/a	4	[0, 0, 0]	-999	PAL1	2	R1318N
433.771	4.037	434781	STUDY_PAIR	n/a	wordpools/wordpool_EN.txt	1	-999	n/a	LEG	BRICK	LEG	4	[0, 0, 0]	-999	PAL1	2	R1318N
437.808	0.643	438818	STUDY_PAIR_OFF	n/a	n/a	1	-999	n/a	LEG	BRICK	LEG	4	[0, 0, 0]	-999	PAL1	2	R1318N
438.451	4.025	439461	STUDY_PAIR	n/a	wordpools/wordpool_EN.txt	2	-999	n/a	POOL	POOL	VASE	4	[0, 0, 0]	-999	PAL1	2	R1318N
442.476	0.584	443486	STUDY_PAIR_OFF	n/a	n/a	2	-999	n/a	POOL	POOL	VASE	4	[0, 0, 0]	-999	PAL1	2	R1318N
443.06	4.033	444070	STUDY_PAIR	n/a	wordpools/wordpool_EN.txt	3	-999	n/a	SHRIMP	ARK	SHRIMP	4	[0, 0, 0]	-999	PAL1	2	R1318N
447.093	0.63	448103	STUDY_PAIR_OFF	n/a	n/a	3	-999	n/a	SHRIMP	ARK	SHRIMP	4	[0, 0, 0]	-999	PAL1	2	R1318N
447.723	4.038	448733	STUDY_PAIR	n/a	wordpools/wordpool_EN.txt	4	-999	n/a	DIME	DIME	GOAT	4	[0, 0, 0]	-999	PAL1	2	R1318N
451.761	0.734	452770	STUDY_PAIR_OFF	n/a	n/a	4	-999	n/a	DIME	DIME	GOAT	4	[0, 0, 0]	-999	PAL1	2	R1318N
452.495	4.033	453504	STUDY_PAIR	n/a	wordpools/wordpool_EN.txt	5	-999	n/a	CONE	CONE	SHEET	4	[0, 0, 0]	-999	PAL1	2	R1318N
456.528	0.666	457537	STUDY_PAIR_OFF	n/a	n/a	5	-999	n/a	CONE	CONE	SHEET	4	[0, 0, 0]	-999	PAL1	2	R1318N
457.194	4.035	458203	STUDY_PAIR	n/a	wordpools/wordpool_EN.txt	6	-999	n/a	GATE	GRASS	GATE	4	[0, 0, 0]	-999	PAL1	2	R1318N
461.229	0.0	462238	STUDY_PAIR_OFF	n/a	n/a	6	-999	n/a	GATE	GRASS	GATE	4	[0, 0, 0]	-999	PAL1	2	R1318N
461.229	0.001	462238	ENCODING_END	n/a	n/a	-999	-999	n/a	n/a	n/a	n/a	4	[0, 0, 0]	-999	PAL1	2	R1318N
461.23	0.0	462239	MATH_START	n/a	n/a	-999	-999	n/a	n/a	n/a	n/a	4	[0, 0, 0]	-999	PAL1	2	R1318N
461.23	0.015	462239	START	n/a	n/a	-999	-999	n/a	n/a	n/a	n/a	4	[-999, -999, -999]	-999	PAL1	2	R1318N
461.245	8.518	462254	PROB	8485	n/a	-999	-999	n/a	n/a	n/a	n/a	4	[7, 9, 8]	24	PAL1	2	R1318N
469.763	2.601	470772	PROB	2568	n/a	-999	-999	n/a	n/a	n/a	n/a	4	[3, 2, 1]	6	PAL1	2	R1318N
472.364	2.95	473373	PROB	2918	n/a	-999	-999	n/a	n/a	n/a	n/a	4	[3, 5, 7]	15	PAL1	2	R1318N
475.314	4.968	476323	PROB	4937	n/a	-999	-999	n/a	n/a	n/a	n/a	4	[5, 6, 2]	13	PAL1	2	R1318N
480.282	3.369	481291	PROB	3369	n/a	-999	-999	n/a	n/a	n/a	n/a	4	[7, 8, 4]	19	PAL1	2	R1318N
483.651	0.015	484660	STOP	n/a	n/a	-999	-999	n/a	n/a	n/a	n/a	4	[-999, -999, -999]	-999	PAL1	2	R1318N
483.666	0.502	484675	MATH_END	n/a	n/a	-999	-999	n/a	n/a	n/a	n/a	4	[0, 0, 0]	-999	PAL1	2	R1318N
484.168	0.002	485176	RETRIEVAL_START	n/a	n/a	-999	-999	n/a	n/a	n/a	n/a	4	[0, 0, 0]	-999	PAL1	2	R1318N
484.17	0.279	485178	ORIENT_START	n/a	n/a	-999	-999	n/a	n/a	n/a	n/a	4	[0, 0, 0]	-999	PAL1	2	R1318N
484.449	0.581	485457	ORIENT_END	n/a	n/a	-999	-999	n/a	n/a	n/a	n/a	4	[0, 0, 0]	-999	PAL1	2	R1318N
485.03	0.001	486038	REC_START	n/a	n/a	1	1	BRICK	LEG	BRICK	LEG	4	[0, 0, 0]	-999	PAL1	2	R1318N
485.031	2.102	486039	PROBE_START	n/a	wordpools/wordpool_EN.txt	1	1	BRICK	LEG	BRICK	LEG	4	[0, 0, 0]	-999	PAL1	2	R1318N
487.133	1.934	488141	REC_EVENT	2102	n/a	1	1	BRICK	LEG	BRICK	LEG	4	[0, 0, 0]	-999	PAL1	2	R1318N
489.067	1.0	490075	PROBE_END	n/a	n/a	1	1	BRICK	n/a	BRICK	LEG	4	[0, 0, 0]	-999	PAL1	2	R1318N
490.067	0.011	491075	REC_END	n/a	n/a	1	1	BRICK	n/a	BRICK	LEG	4	[0, 0, 0]	-999	PAL1	2	R1318N
490.078	0.272	491086	ORIENT_START	n/a	n/a	-999	-999	n/a	n/a	n/a	n/a	4	[0, 0, 0]	-999	PAL1	2	R1318N
490.35	0.715	491358	ORIENT_END	n/a	n/a	-999	-999	n/a	n/a	n/a	n/a	4	[0, 0, 0]	-999	PAL1	2	R1318N
491.065	0.0	492073	REC_START	n/a	n/a	2	2	VASE	POOL	POOL	VASE	4	[0, 0, 0]	-999	PAL1	2	R1318N
491.065	1.925	492073	PROBE_START	n/a	wordpools/wordpool_EN.txt	2	2	VASE	POOL	POOL	VASE	4	[0, 0, 0]	-999	PAL1	2	R1318N
492.99	2.111	493998	REC_EVENT	1925	n/a	2	2	VASE	POOL	POOL	VASE	4	[0, 0, 0]	-999	PAL1	2	R1318N
495.101	1.0	496109	PROBE_END	n/a	n/a	2	2	VASE	n/a	POOL	VASE	4	[0, 0, 0]	-999	PAL1	2	R1318N
496.101	0.012	497109	REC_END	n/a	n/a	2	2	VASE	n/a	POOL	VASE	4	[0, 0, 0]	-999	PAL1	2	R1318N
496.113	0.272	497121	ORIENT_START	n/a	n/a	-999	-999	n/a	n/a	n/a	n/a	4	[0, 0, 0]	-999	PAL1	2	R1318N
496.385	0.7	497393	ORIENT_END	n/a	n/a	-999	-999	n/a	n/a	n/a	n/a	4	[0, 0, 0]	-999	PAL1	2	R1318N
497.085	0.0	498093	REC_START	n/a	n/a	5	3	SHEET	CONE	CONE	SHEET	4	[0, 0, 0]	-999	PAL1	2	R1318N
497.085	2.061	498093	PROBE_START	n/a	wordpools/wordpool_EN.txt	5	3	SHEET	CONE	CONE	SHEET	4	[0, 0, 0]	-999	PAL1	2	R1318N
499.146	1.973	500154	REC_EVENT	2061	n/a	5	3	SHEET	CONE	CONE	SHEET	4	[0, 0, 0]	-999	PAL1	2	R1318N
501.119	1.0	502127	PROBE_END	n/a	n/a	5	3	SHEET	n/a	CONE	SHEET	4	[0, 0, 0]	-999	PAL1	2	R1318N
502.119	0.012	503127	REC_END	n/a	n/a	5	3	SHEET	n/a	CONE	SHEET	4	[0, 0, 0]	-999	PAL1	2	R1318N
502.131	0.271	503139	ORIENT_START	n/a	n/a	-999	-999	n/a	n/a	n/a	n/a	4	[0, 0, 0]	-999	PAL1	2	R1318N
502.402	0.521	503410	ORIENT_END	n/a	n/a	-999	-999	n/a	n/a	n/a	n/a	4	[0, 0, 0]	-999	PAL1	2	R1318N
502.923	0.001	503931	REC_START	n/a	n/a	6	4	GRASS	GATE	GRASS	GATE	4	[0, 0, 0]	-999	PAL1	2	R1318N
502.924	1.683	503932	PROBE_START	n/a	wordpools/wordpool_EN.txt	6	4	GRASS	GATE	GRASS	GATE	4	[0, 0, 0]	-999	PAL1	2	R1318N
504.607	2.347	505615	REC_EVENT	1683	n/a	6	4	GRASS	GATE	GRASS	GATE	4	[0, 0, 0]	-999	PAL1	2	R1318N
506.954	1.0	507962	PROBE_END	n/a	n/a	6	4	GRASS	n/a	GRASS	GATE	4	[0, 0, 0]	-999	PAL1	2	R1318N
507.954	0.012	508962	REC_END	n/a	n/a	6	4	GRASS	n/a	GRASS	GATE	4	[0, 0, 0]	-999	PAL1	2	R1318N
507.966	0.271	508974	ORIENT_START	n/a	n/a	-999	-999	n/a	n/a	n/a	n/a	4	[0, 0, 0]	-999	PAL1	2	R1318N
508.237	0.711	509245	ORIENT_END	n/a	n/a	-999	-999	n/a	n/a	n/a	n/a	4	[0, 0, 0]	-999	PAL1	2	R1318N
508.948	0.0	509956	REC_START	n/a	n/a	3	5	ARK	SHRIMP	ARK	SHRIMP	4	[0, 0, 0]	-999	PAL1	2	R1318N
508.948	1.831	509956	PROBE_START	n/a	wordpools/wordpool_EN.txt	3	5	ARK	SHRIMP	ARK	SHRIMP	4	[0, 0, 0]	-999	PAL1	2	R1318N
510.779	2.193	511787	REC_EVENT	1831	n/a	3	5	ARK	SHRIMP	ARK	SHRIMP	4	[0, 0, 0]	-999	PAL1	2	R1318N
512.972	0.999	513980	PROBE_END	n/a	n/a	3	5	ARK	n/a	ARK	SHRIMP	4	[0, 0, 0]	-999	PAL1	2	R1318N
513.971	0.012	514979	REC_END	n/a	n/a	3	5	ARK	n/a	ARK	SHRIMP	4	[0, 0, 0]	-999	PAL1	2	R1318N
513.983	0.271	514991	ORIENT_START	n/a	n/a	-999	-999	n/a	n/a	n/a	n/a	4	[0, 0, 0]	-999	PAL1	2	R1318N
514.254	0.713	515262	ORIENT_END	n/a	n/a	-999	-999	n/a	n/a	n/a	n/a	4	[0, 0, 0]	-999	PAL1	2	R1318N
514.967	0.0	515975	REC_START	n/a	n/a	4	6	GOAT	DIME	DIME	GOAT	4	[0, 0, 0]	-999	PAL1	2	R1318N
514.967	1.925	515975	PROBE_START	n/a	wordpools/wordpool_EN.txt	4	6	GOAT	DIME	DIME	GOAT	4	[0, 0, 0]	-999	PAL1	2	R1318N
516.892	2.096	517900	REC_EVENT	1925	n/a	4	6	GOAT	DIME	DIME	GOAT	4	[0, 0, 0]	-999	PAL1	2	R1318N
518.988	1.001	519995	PROBE_END	n/a	n/a	4	6	GOAT	n/a	DIME	GOAT	4	[0, 0, 0]	-999	PAL1	2	R1318N
519.989	0.011	520996	REC_END	n/a	n/a	4	6	GOAT	n/a	DIME	GOAT	4	[0, 0, 0]	-999	PAL1	2	R1318N
520.0	0.0	521007	TRIAL_END	n/a	n/a	-999	-999	n/a	n/a	n/a	n/a	4	[0, 0, 0]	-999	PAL1	2	R1318N
520.0	0.019	521007	RETRIEVAL_END	n/a	n/a	-999	-999	n/a	n/a	n/a	n/a	4	[0, 0, 0]	-999	PAL1	2	R1318N
520.019	0.0	521026	TRIAL_START	n/a	n/a	-999	-999	n/a	n/a	n/a	n/a	4	[0, 0, 0]	-999	PAL1	2	R1318N
520.019	0.0	521026	TRIAL	n/a	n/a	-999	-999	n/a	n/a	n/a	n/a	5	[0, 0, 0]	-999	PAL1	2	R1318N
520.019	1.303	521026	WAITING_START	n/a	n/a	-999	-999	n/a	n/a	n/a	n/a	5	[0, 0, 0]	-999	PAL1	2	R1318N
521.322	0.0	522329	WAITING_END	n/a	n/a	-999	-999	n/a	n/a	n/a	n/a	5	[0, 0, 0]	-999	PAL1	2	R1318N
521.322	10.43	522329	COUNTDOWN_START	n/a	n/a	-999	-999	n/a	n/a	n/a	n/a	5	[0, 0, 0]	-999	PAL1	2	R1318N
531.752	0.0	532759	COUNTDOWN_END	n/a	n/a	-999	-999	n/a	n/a	n/a	n/a	5	[0, 0, 0]	-999	PAL1	2	R1318N
531.752	0.522	532759	ORIENT_START	n/a	n/a	-999	-999	n/a	n/a	n/a	n/a	5	[0, 0, 0]	-999	PAL1	2	R1318N
532.274	0.0	533281	ORIENT_END	n/a	n/a	-999	-999	n/a	n/a	n/a	n/a	5	[0, 0, 0]	-999	PAL1	2	R1318N
532.274	1.112	533281	ENCODING_START	n/a	n/a	-999	-999	n/a	n/a	n/a	n/a	5	[0, 0, 0]	-999	PAL1	2	R1318N
533.386	4.039	534393	STUDY_PAIR	n/a	wordpools/wordpool_EN.txt	1	-999	n/a	DITCH	DITCH	BAT	5	[0, 0, 0]	-999	PAL1	2	R1318N
537.425	0.637	538432	STUDY_PAIR_OFF	n/a	n/a	1	-999	n/a	DITCH	DITCH	BAT	5	[0, 0, 0]	-999	PAL1	2	R1318N
538.062	4.03	539069	STUDY_PAIR	n/a	wordpools/wordpool_EN.txt	2	-999	n/a	SHIRT	SHIRT	MUD	5	[0, 0, 0]	-999	PAL1	2	R1318N
542.092	0.673	543099	STUDY_PAIR_OFF	n/a	n/a	2	-999	n/a	SHIRT	SHIRT	MUD	5	[0, 0, 0]	-999	PAL1	2	R1318N
542.765	4.028	543772	STUDY_PAIR	n/a	wordpools/wordpool_EN.txt	3	-999	n/a	SLEEVE	SLEEVE	SMILE	5	[0, 0, 0]	-999	PAL1	2	R1318N
546.793	0.541	547800	STUDY_PAIR_OFF	n/a	n/a	3	-999	n/a	SLEEVE	SLEEVE	SMILE	5	[0, 0, 0]	-999	PAL1	2	R1318N
547.334	4.026	548341	STUDY_PAIR	n/a	wordpools/wordpool_EN.txt	4	-999	n/a	JAR	CALF	JAR	5	[0, 0, 0]	-999	PAL1	2	R1318N
551.36	0.5	552367	STUDY_PAIR_OFF	n/a	n/a	4	-999	n/a	JAR	CALF	JAR	5	[0, 0, 0]	-999	PAL1	2	R1318N
551.86	4.035	552867	STUDY_PAIR	n/a	wordpools/wordpool_EN.txt	5	-999	n/a	CAVE	BOAT	CAVE	5	[0, 0, 0]	-999	PAL1	2	R1318N
555.895	0.706	556901	STUDY_PAIR_OFF	n/a	n/a	5	-999	n/a	CAVE	BOAT	CAVE	5	[0, 0, 0]	-999	PAL1	2	R1318N
556.601	4.028	557607	STUDY_PAIR	n/a	wordpools/wordpool_EN.txt	6	-999	n/a	JAR	CAT	STEM	5	[0, 0, 0]	-999	PAL1	2	R1318N
560.629	0.0	561635	STUDY_PAIR_OFF	n/a	n/a	6	-999	n/a	JAR	CAT	STEM	5	[0, 0, 0]	-999	PAL1	2	R1318N
560.629	0.001	561635	ENCODING_END	n/a	n/a	-999	-999	n/a	n/a	n/a	n/a	5	[0, 0, 0]	-999	PAL1	2	R1318N
560.63	0.0	561636	MATH_START	n/a	n/a	-999	-999	n/a	n/a	n/a	n/a	5	[0, 0, 0]	-999	PAL1	2	R1318N
560.63	0.015	561636	START	n/a	n/a	-999	-999	n/a	n/a	n/a	n/a	5	[-999, -999, -999]	-999	PAL1	2	R1318N
560.645	4.001	561651	PROB	3974	n/a	-999	-999	n/a	n/a	n/a	n/a	5	[8, 8, 6]	22	PAL1	2	R1318N
564.646	6.567	565652	PROB	6540	n/a	-999	-999	n/a	n/a	n/a	n/a	5	[5, 8, 6]	19	PAL1	2	R1318N
571.213	2.702	572219	PROB	2671	n/a	-999	-999	n/a	n/a	n/a	n/a	5	[2, 3, 5]	10	PAL1	2	R1318N
573.915	5.616	574921	PROB	5583	n/a	-999	-999	n/a	n/a	n/a	n/a	5	[8, 8, 9]	25	PAL1	2	R1318N
579.531	3.071	580537	PROB	3071	n/a	-999	-999	n/a	n/a	n/a	n/a	5	[8, 8, 1]	17	PAL1	2	R1318N
582.602	0.013	583608	STOP	n/a	n/a	-999	-999	n/a	n/a	n/a	n/a	5	[-999, -999, -999]	-999	PAL1	2	R1318N
582.615	0.563	583621	MATH_END	n/a	n/a	-999	-999	n/a	n/a	n/a	n/a	5	[0, 0, 0]	-999	PAL1	2	R1318N
583.178	0.002	584184	RETRIEVAL_START	n/a	n/a	-999	-999	n/a	n/a	n/a	n/a	5	[0, 0, 0]	-999	PAL1	2	R1318N
583.18	0.286	584186	ORIENT_START	n/a	n/a	-999	-999	n/a	n/a	n/a	n/a	5	[0, 0, 0]	-999	PAL1	2	R1318N
583.466	0.726	584472	ORIENT_END	n/a	n/a	-999	-999	n/a	n/a	n/a	n/a	5	[0, 0, 0]	-999	PAL1	2	R1318N
584.192	0.0	585198	REC_START	n/a	n/a	5	1	BOAT	CAVE	BOAT	CAVE	5	[0, 0, 0]	-999	PAL1	2	R1318N
584.192	1.796	585198	PROBE_START	n/a	wordpools/wordpool_EN.txt	5	1	BOAT	CAVE	BOAT	CAVE	5	[0, 0, 0]	-999	PAL1	2	R1318N
585.988	2.228	586994	REC_EVENT	1796	n/a	5	1	BOAT	CAVE	BOAT	CAVE	5	[0, 0, 0]	-999	PAL1	2	R1318N
588.216	1.008	589221	PROBE_END	n/a	n/a	5	1	BOAT	n/a	BOAT	CAVE	5	[0, 0, 0]	-999	PAL1	2	R1318N
589.224	0.006	590229	REC_END	n/a	n/a	5	1	BOAT	n/a	BOAT	CAVE	5	[0, 0, 0]	-999	PAL1	2	R1318N
589.23	0.27	590235	ORIENT_START	n/a	n/a	-999	-999	n/a	n/a	n/a	n/a	5	[0, 0, 0]	-999	PAL1	2	R1318N
589.5	0.643	590505	ORIENT_END	n/a	n/a	-999	-999	n/a	n/a	n/a	n/a	5	[0, 0, 0]	-999	PAL1	2	R1318N
590.143	0.001	591148	REC_START	n/a	n/a	2	2	MUD	SHIRT	SHIRT	MUD	5	[0, 0, 0]	-999	PAL1	2	R1318N
590.144	1.801	591149	PROBE_START	n/a	wordpools/wordpool_EN.txt	2	2	MUD	SHIRT	SHIRT	MUD	5	[0, 0, 0]	-999	PAL1	2	R1318N
591.945	2.222	592950	REC_EVENT	1801	n/a	2	2	MUD	SHIRT	SHIRT	MUD	5	[0, 0, 0]	-999	PAL1	2	R1318N
594.167	1.0	595172	PROBE_END	n/a	n/a	2	2	MUD	n/a	SHIRT	MUD	5	[0, 0, 0]	-999	PAL1	2	R1318N
595.167	0.011	596172	REC_END	n/a	n/a	2	2	MUD	n/a	SHIRT	MUD	5	[0, 0, 0]	-999	PAL1	2	R1318N
595.178	0.273	596183	ORIENT_START	n/a	n/a	-999	-999	n/a	n/a	n/a	n/a	5	[0, 0, 0]	-999	PAL1	2	R1318N
595.451	0.564	596456	ORIENT_END	n/a	n/a	-999	-999	n/a	n/a	n/a	n/a	5	[0, 0, 0]	-999	PAL1	2	R1318N
596.015	0.0	597020	REC_START	n/a	n/a	3	3	SMILE	SLEEVE	SLEEVE	SMILE	5	[0, 0, 0]	-999	PAL1	2	R1318N
596.015	1.834	597020	PROBE_START	n/a	wordpools/wordpool_EN.txt	3	3	SMILE	SLEEVE	SLEEVE	SMILE	5	[0, 0, 0]	-999	PAL1	2	R1318N
597.849	2.203	598854	REC_EVENT	1834	n/a	3	3	SMILE	SLEEVE	SLEEVE	SMILE	5	[0, 0, 0]	-999	PAL1	2	R1318N
600.052	1.0	601057	PROBE_END	n/a	n/a	3	3	SMILE	n/a	SLEEVE	SMILE	5	[0, 0, 0]	-999	PAL1	2	R1318N
601.052	0.012	602057	REC_END	n/a	n/a	3	3	SMILE	n/a	SLEEVE	SMILE	5	[0, 0, 0]	-999	PAL1	2	R1318N
601.064	0.271	602069	ORIENT_START	n/a	n/a	-999	-999	n/a	n/a	n/a	n/a	5	[0, 0, 0]	-999	PAL1	2	R1318N
601.335	0.51	602340	ORIENT_END	n/a	n/a	-999	-999	n/a	n/a	n/a	n/a	5	[0, 0, 0]	-999	PAL1	2	R1318N
601.845	0.001	602850	REC_START	n/a	n/a	6	4	CAT	JAR	CAT	STEM	5	[0, 0, 0]	-999	PAL1	2	R1318N
601.846	4.024	602851	PROBE_START	n/a	wordpools/wordpool_EN.txt	6	4	CAT	JAR	CAT	STEM	5	[0, 0, 0]	-999	PAL1	2	R1318N
605.87	0.407	606875	PROBE_END	n/a	n/a	6	4	CAT	n/a	CAT	STEM	5	[0, 0, 0]	-999	PAL1	2	R1318N
606.277	0.594	607282	REC_EVENT	4431	n/a	6	4	CAT	JAR	CAT	STEM	5	[0, 0, 0]	-999	PAL1	2	R1318N
606.871	0.01	607876	REC_END	n/a	n/a	6	4	CAT	n/a	CAT	STEM	5	[0, 0, 0]	-999	PAL1	2	R1318N
606.881	0.272	607886	ORIENT_START	n/a	n/a	-999	-999	n/a	n/a	n/a	n/a	5	[0, 0, 0]	-999	PAL1	2	R1318N
607.153	0.532	608158	ORIENT_END	n/a	n/a	-999	-999	n/a	n/a	n/a	n/a	5	[0, 0, 0]	-999	PAL1	2	R1318N
607.685	0.0	608690	REC_START	n/a	n/a	1	5	BAT	DITCH	DITCH	BAT	5	[0, 0, 0]	-999	PAL1	2	R1318N
607.685	2.042	608690	PROBE_START	n/a	wordpools/wordpool_EN.txt	1	5	BAT	DITCH	DITCH	BAT	5	[0, 0, 0]	-999	PAL1	2	R1318N
609.727	1.993	610732	REC_EVENT	2042	n/a	1	5	BAT	DITCH	DITCH	BAT	5	[0, 0, 0]	-999	PAL1	2	R1318N
611.72	1.001	612725	PROBE_END	n/a	n/a	1	5	BAT	n/a	DITCH	BAT	5	[0, 0, 0]	-999	PAL1	2	R1318N
612.721	0.01	613726	REC_END	n/a	n/a	1	5	BAT	n/a	DITCH	BAT	5	[0, 0, 0]	-999	PAL1	2	R1318N
612.731	0.273	613736	ORIENT_START	n/a	n/a	-999	-999	n/a	n/a	n/a	n/a	5	[0, 0, 0]	-999	PAL1	2	R1318N
613.004	0.685	614009	ORIENT_END	n/a	n/a	-999	-999	n/a	n/a	n/a	n/a	5	[0, 0, 0]	-999	PAL1	2	R1318N
613.689	0.0	614694	REC_START	n/a	n/a	4	6	CALF	JAR	CALF	JAR	5	[0, 0, 0]	-999	PAL1	2	R1318N
613.689	1.904	614694	PROBE_START	n/a	wordpools/wordpool_EN.txt	4	6	CALF	JAR	CALF	JAR	5	[0, 0, 0]	-999	PAL1	2	R1318N
615.593	2.128	616598	REC_EVENT	1904	n/a	4	6	CALF	JAR	CALF	JAR	5	[0, 0, 0]	-999	PAL1	2	R1318N
617.721	1.0	618726	PROBE_END	n/a	n/a	4	6	CALF	n/a	CALF	JAR	5	[0, 0, 0]	-999	PAL1	2	R1318N
618.721	0.012	619726	REC_END	n/a	n/a	4	6	CALF	n/a	CALF	JAR	5	[0, 0, 0]	-999	PAL1	2	R1318N
618.733	0.001	619738	RETRIEVAL_END	n/a	n/a	-999	-999	n/a	n/a	n/a	n/a	5	[0, 0, 0]	-999	PAL1	2	R1318N
618.734	0.02	619739	TRIAL_END	n/a	n/a	-999	-999	n/a	n/a	n/a	n/a	5	[0, 0, 0]	-999	PAL1	2	R1318N
618.754	0.0	619759	TRIAL_START	n/a	n/a	-999	-999	n/a	n/a	n/a	n/a	5	[0, 0, 0]	-999	PAL1	2	R1318N
618.754	0.0	619759	TRIAL	n/a	n/a	-999	-999	n/a	n/a	n/a	n/a	6	[0, 0, 0]	-999	PAL1	2	R1318N
618.754	1.668	619759	WAITING_START	n/a	n/a	-999	-999	n/a	n/a	n/a	n/a	6	[0, 0, 0]	-999	PAL1	2	R1318N
620.422	0.0	621427	WAITING_END	n/a	n/a	-999	-999	n/a	n/a	n/a	n/a	6	[0, 0, 0]	-999	PAL1	2	R1318N
620.422	10.429	621427	COUNTDOWN_START	n/a	n/a	-999	-999	n/a	n/a	n/a	n/a	6	[0, 0, 0]	-999	PAL1	2	R1318N
630.851	0.0	631855	COUNTDOWN_END	n/a	n/a	-999	-999	n/a	n/a	n/a	n/a	6	[0, 0, 0]	-999	PAL1	2	R1318N
630.851	0.689	631855	ORIENT_START	n/a	n/a	-999	-999	n/a	n/a	n/a	n/a	6	[0, 0, 0]	-999	PAL1	2	R1318N
631.54	0.001	632544	ORIENT_END	n/a	n/a	-999	-999	n/a	n/a	n/a	n/a	6	[0, 0, 0]	-999	PAL1	2	R1318N
631.541	1.22	632545	ENCODING_START	n/a	n/a	-999	-999	n/a	n/a	n/a	n/a	6	[0, 0, 0]	-999	PAL1	2	R1318N
632.761	4.03	633765	STUDY_PAIR	n/a	wordpools/wordpool_EN.txt	1	-999	n/a	STOVE	RUG	STOVE	6	[0, 0, 0]	-999	PAL1	2	R1318N
636.791	0.697	637795	STUDY_PAIR_OFF	n/a	n/a	1	-999	n/a	STOVE	RUG	STOVE	6	[0, 0, 0]	-999	PAL1	2	R1318N
637.488	4.037	638492	STUDY_PAIR	n/a	wordpools/wordpool_EN.txt	2	-999	n/a	CLIFF	CLIFF	SEAT	6	[0, 0, 0]	-999	PAL1	2	R1318N
641.525	0.735	642529	STUDY_PAIR_OFF	n/a	n/a	2	-999	n/a	CLIFF	CLIFF	SEAT	6	[0, 0, 0]	-999	PAL1	2	R1318N
642.26	4.033	643264	STUDY_PAIR	n/a	wordpools/wordpool_EN.txt	3	-999	n/a	MOOSE	HOOF	MOOSE	6	[0, 0, 0]	-999	PAL1	2	R1318N
646.293	0.51	647297	STUDY_PAIR_OFF	n/a	n/a	3	-999	n/a	MOOSE	HOOF	MOOSE	6	[0, 0, 0]	-999	PAL1	2	R1318N
646.803	4.025	647807	STUDY_PAIR	n/a	wordpools/wordpool_EN.txt	4	-999	n/a	COW	TRASH	COW	6	[0, 0, 0]	-999	PAL1	2	R1318N
650.828	0.633	651832	STUDY_PAIR_OFF	n/a	n/a	4	-999	n/a	COW	TRASH	COW	6	[0, 0, 0]	-999	PAL1	2	R1318N
651.461	4.033	652465	STUDY_PAIR	n/a	wordpools/wordpool_EN.txt	5	-999	n/a	CROW	CROW	TOY	6	[0, 0, 0]	-999	PAL1	2	R1318N
655.494	0.53	656498	STUDY_PAIR_OFF	n/a	n/a	5	-999	n/a	CROW	CROW	TOY	6	[0, 0, 0]	-999	PAL1	2	R1318N
656.024	4.038	657028	STUDY_PAIR	n/a	wordpools/wordpool_EN.txt	6	-999	n/a	BEACH	BEACH	STEAK	6	[0, 0, 0]	-999	PAL1	2	R1318N
660.062	0.0	661065	STUDY_PAIR_OFF	n/a	n/a	6	-999	n/a	BEACH	BEACH	STEAK	6	[0, 0, 0]	-999	PAL1	2	R1318N
660.062	0.0	661065	ENCODING_END	n/a	n/a	-999	-999	n/a	n/a	n/a	n/a	6	[0, 0, 0]	-999	PAL1	2	R1318N
660.062	0.0	661065	MATH_START	n/a	n/a	-999	-999	n/a	n/a	n/a	n/a	6	[0, 0, 0]	-999	PAL1	2	R1318N
660.062	0.016	661065	START	n/a	n/a	-999	-999	n/a	n/a	n/a	n/a	6	[-999, -999, -999]	-999	PAL1	2	R1318N
660.078	2.785	661081	PROB	2757	n/a	-999	-999	n/a	n/a	n/a	n/a	6	[7, 1, 7]	15	PAL1	2	R1318N
662.863	2.533	663866	PROB	2499	n/a	-999	-999	n/a	n/a	n/a	n/a	6	[1, 4, 9]	14	PAL1	2	R1318N
665.396	2.617	666399	PROB	2591	n/a	-999	-999	n/a	n/a	n/a	n/a	6	[2, 3, 6]	11	PAL1	2	R1318N
668.013	1.951	669016	PROB	1927	n/a	-999	-999	n/a	n/a	n/a	n/a	6	[8, 2, 1]	11	PAL1	2	R1318N
669.964	4.35	670967	PROB	4319	n/a	-999	-999	n/a	n/a	n/a	n/a	6	[6, 9, 5]	20	PAL1	2	R1318N
674.314	4.084	675317	PROB	4057	n/a	-999	-999	n/a	n/a	n/a	n/a	6	[3, 9, 2]	14	PAL1	2	R1318N
678.398	2.437	679401	PROB	2437	n/a	-999	-999	n/a	n/a	n/a	n/a	6	[5, 5, 9]	19	PAL1	2	R1318N
680.835	0.014	681838	STOP	n/a	n/a	-999	-999	n/a	n/a	n/a	n/a	6	[-999, -999, -999]	-999	PAL1	2	R1318N
680.849	0.631	681852	MATH_END	n/a	n/a	-999	-999	n/a	n/a	n/a	n/a	6	[0, 0, 0]	-999	PAL1	2	R1318N
681.48	0.001	682483	RETRIEVAL_START	n/a	n/a	-999	-999	n/a	n/a	n/a	n/a	6	[0, 0, 0]	-999	PAL1	2	R1318N
681.481	0.284	682484	ORIENT_START	n/a	n/a	-999	-999	n/a	n/a	n/a	n/a	6	[0, 0, 0]	-999	PAL1	2	R1318N
681.765	0.656	682768	ORIENT_END	n/a	n/a	-999	-999	n/a	n/a	n/a	n/a	6	[0, 0, 0]	-999	PAL1	2	R1318N
682.421	0.001	683424	REC_START	n/a	n/a	5	1	TOY	CROW	CROW	TOY	6	[0, 0, 0]	-999	PAL1	2	R1318N
682.422	2.17	683425	PROBE_START	n/a	wordpools/wordpool_EN.txt	5	1	TOY	CROW	CROW	TOY	6	[0, 0, 0]	-999	PAL1	2	R1318N
684.592	1.857	685595	REC_EVENT	2170	n/a	5	1	TOY	CROW	CROW	TOY	6	[0, 0, 0]	-999	PAL1	2	R1318N
686.449	1.0	687452	PROBE_END	n/a	n/a	5	1	TOY	n/a	CROW	TOY	6	[0, 0, 0]	-999	PAL1	2	R1318N
687.449	0.011	688452	REC_END	n/a	n/a	5	1	TOY	n/a	CROW	TOY	6	[0, 0, 0]	-999	PAL1	2	R1318N
687.46	0.273	688463	ORIENT_START	n/a	n/a	-999	-999	n/a	n/a	n/a	n/a	6	[0, 0, 0]	-999	PAL1	2	R1318N
687.733	0.676	688736	ORIENT_END	n/a	n/a	-999	-999	n/a	n/a	n/a	n/a	6	[0, 0, 0]	-999	PAL1	2	R1318N
688.409	0.001	689412	REC_START	n/a	n/a	6	2	STEAK	BEACH	BEACH	STEAK	6	[0, 0, 0]	-999	PAL1	2	R1318N
688.41	1.838	689413	PROBE_START	n/a	wordpools/wordpool_EN.txt	6	2	STEAK	BEACH	BEACH	STEAK	6	[0, 0, 0]	-999	PAL1	2	R1318N
690.248	2.186	691251	REC_EVENT	1838	n/a	6	2	STEAK	BEACH	BEACH	STEAK	6	[0, 0, 0]	-999	PAL1	2	R1318N
692.434	1.0	693436	PROBE_END	n/a	n/a	6	2	STEAK	n/a	BEACH	STEAK	6	[0, 0, 0]	-999	PAL1	2	R1318N
693.434	0.012	694436	REC_END	n/a	n/a	6	2	STEAK	n/a	BEACH	STEAK	6	[0, 0, 0]	-999	PAL1	2	R1318N
693.446	0.271	694448	ORIENT_START	n/a	n/a	-999	-999	n/a	n/a	n/a	n/a	6	[0, 0, 0]	-999	PAL1	2	R1318N
693.717	0.562	694719	ORIENT_END	n/a	n/a	-999	-999	n/a	n/a	n/a	n/a	6	[0, 0, 0]	-999	PAL1	2	R1318N
694.279	0.0	695281	PROBE_START	n/a	wordpools/wordpool_EN.txt	3	3	HOOF	MOOSE	HOOF	MOOSE	6	[0, 0, 0]	-999	PAL1	2	R1318N
694.279	1.679	695281	REC_START	n/a	n/a	3	3	HOOF	MOOSE	HOOF	MOOSE	6	[0, 0, 0]	-999	PAL1	2	R1318N
695.958	2.36	696960	REC_EVENT	1679	n/a	3	3	HOOF	MOOSE	HOOF	MOOSE	6	[0, 0, 0]	-999	PAL1	2	R1318N
698.318	1.001	699320	PROBE_END	n/a	n/a	3	3	HOOF	n/a	HOOF	MOOSE	6	[0, 0, 0]	-999	PAL1	2	R1318N
699.319	0.01	700321	REC_END	n/a	n/a	3	3	HOOF	n/a	HOOF	MOOSE	6	[0, 0, 0]	-999	PAL1	2	R1318N
699.329	0.272	700331	ORIENT_START	n/a	n/a	-999	-999	n/a	n/a	n/a	n/a	6	[0, 0, 0]	-999	PAL1	2	R1318N
699.601	0.583	700603	ORIENT_END	n/a	n/a	-999	-999	n/a	n/a	n/a	n/a	6	[0, 0, 0]	-999	PAL1	2	R1318N
700.184	0.0	701186	REC_START	n/a	n/a	4	4	TRASH	COW	TRASH	COW	6	[0, 0, 0]	-999	PAL1	2	R1318N
700.184	1.718	701186	PROBE_START	n/a	wordpools/wordpool_EN.txt	4	4	TRASH	COW	TRASH	COW	6	[0, 0, 0]	-999	PAL1	2	R1318N
701.902	2.317	702904	REC_EVENT	1718	n/a	4	4	TRASH	COW	TRASH	COW	6	[0, 0, 0]	-999	PAL1	2	R1318N
704.219	1.001	705221	PROBE_END	n/a	n/a	4	4	TRASH	n/a	TRASH	COW	6	[0, 0, 0]	-999	PAL1	2	R1318N
705.22	0.01	706222	REC_END	n/a	n/a	4	4	TRASH	n/a	TRASH	COW	6	[0, 0, 0]	-999	PAL1	2	R1318N
705.23	0.272	706232	ORIENT_START	n/a	n/a	-999	-999	n/a	n/a	n/a	n/a	6	[0, 0, 0]	-999	PAL1	2	R1318N
705.502	0.581	706504	ORIENT_END	n/a	n/a	-999	-999	n/a	n/a	n/a	n/a	6	[0, 0, 0]	-999	PAL1	2	R1318N
706.083	0.0	707085	PROBE_START	n/a	wordpools/wordpool_EN.txt	1	5	RUG	STOVE	RUG	STOVE	6	[0, 0, 0]	-999	PAL1	2	R1318N
706.083	1.595	707085	REC_START	n/a	n/a	1	5	RUG	STOVE	RUG	STOVE	6	[0, 0, 0]	-999	PAL1	2	R1318N
707.678	2.442	708680	REC_EVENT	1595	n/a	1	5	RUG	STOVE	RUG	STOVE	6	[0, 0, 0]	-999	PAL1	2	R1318N
710.12	1.0	711122	PROBE_END	n/a	n/a	1	5	RUG	n/a	RUG	STOVE	6	[0, 0, 0]	-999	PAL1	2	R1318N
711.12	0.011	712122	REC_END	n/a	n/a	1	5	RUG	n/a	RUG	STOVE	6	[0, 0, 0]	-999	PAL1	2	R1318N
711.131	0.273	712133	ORIENT_START	n/a	n/a	-999	-999	n/a	n/a	n/a	n/a	6	[0, 0, 0]	-999	PAL1	2	R1318N
711.404	0.719	712406	ORIENT_END	n/a	n/a	-999	-999	n/a	n/a	n/a	n/a	6	[0, 0, 0]	-999	PAL1	2	R1318N
712.123	0.0	713125	REC_START	n/a	n/a	2	6	SEAT	CLIFF	CLIFF	SEAT	6	[0, 0, 0]	-999	PAL1	2	R1318N
712.123	1.89	713125	PROBE_START	n/a	wordpools/wordpool_EN.txt	2	6	SEAT	CLIFF	CLIFF	SEAT	6	[0, 0, 0]	-999	PAL1	2	R1318N
714.013	2.141	715015	REC_EVENT	1890	n/a	2	6	SEAT	CLIFF	CLIFF	SEAT	6	[0, 0, 0]	-999	PAL1	2	R1318N
716.154	1.0	717156	PROBE_END	n/a	n/a	2	6	SEAT	n/a	CLIFF	SEAT	6	[0, 0, 0]	-999	PAL1	2	R1318N
717.154	0.011	718156	REC_END	n/a	n/a	2	6	SEAT	n/a	CLIFF	SEAT	6	[0, 0, 0]	-999	PAL1	2	R1318N
717.165	0.001	718167	RETRIEVAL_END	n/a	n/a	-999	-999	n/a	n/a	n/a	n/a	6	[0, 0, 0]	-999	PAL1	2	R1318N
717.166	0.02	718168	TRIAL_END	n/a	n/a	-999	-999	n/a	n/a	n/a	n/a	6	[0, 0, 0]	-999	PAL1	2	R1318N
717.186	0.0	718188	TRIAL	n/a	n/a	-999	-999	n/a	n/a	n/a	n/a	7	[0, 0, 0]	-999	PAL1	2	R1318N
717.186	0.001	718188	TRIAL_START	n/a	n/a	-999	-999	n/a	n/a	n/a	n/a	6	[0, 0, 0]	-999	PAL1	2	R1318N
717.187	1.735	718189	WAITING_START	n/a	n/a	-999	-999	n/a	n/a	n/a	n/a	7	[0, 0, 0]	-999	PAL1	2	R1318N
718.922	0.001	719924	WAITING_END	n/a	n/a	-999	-999	n/a	n/a	n/a	n/a	7	[0, 0, 0]	-999	PAL1	2	R1318N
718.923	10.429	719925	COUNTDOWN_START	n/a	n/a	-999	-999	n/a	n/a	n/a	n/a	7	[0, 0, 0]	-999	PAL1	2	R1318N
729.352	0.0	730353	COUNTDOWN_END	n/a	n/a	-999	-999	n/a	n/a	n/a	n/a	7	[0, 0, 0]	-999	PAL1	2	R1318N
729.352	0.771	730353	ORIENT_START	n/a	n/a	-999	-999	n/a	n/a	n/a	n/a	7	[0, 0, 0]	-999	PAL1	2	R1318N
730.123	0.001	731124	ORIENT_END	n/a	n/a	-999	-999	n/a	n/a	n/a	n/a	7	[0, 0, 0]	-999	PAL1	2	R1318N
730.124	1.056	731125	ENCODING_START	n/a	n/a	-999	-999	n/a	n/a	n/a	n/a	7	[0, 0, 0]	-999	PAL1	2	R1318N
731.18	4.027	732181	STUDY_PAIR	n/a	wordpools/wordpool_EN.txt	1	-999	n/a	TRAY	CAR	TRAY	7	[0, 0, 0]	-999	PAL1	2	R1318N
735.207	0.576	736208	STUDY_PAIR_OFF	n/a	n/a	1	-999	n/a	TRAY	CAR	TRAY	7	[0, 0, 0]	-999	PAL1	2	R1318N
735.783	4.025	736784	STUDY_PAIR	n/a	wordpools/wordpool_EN.txt	2	-999	n/a	BOOT	VEST	BOOT	7	[0, 0, 0]	-999	PAL1	2	R1318N
739.808	0.664	740809	STUDY_PAIR_OFF	n/a	n/a	2	-999	n/a	BOOT	VEST	BOOT	7	[0, 0, 0]	-999	PAL1	2	R1318N
740.472	4.037	741473	STUDY_PAIR	n/a	wordpools/wordpool_EN.txt	3	-999	n/a	VAN	VAN	ROAD	7	[0, 0, 0]	-999	PAL1	2	R1318N
744.509	0.597	745510	STUDY_PAIR_OFF	n/a	n/a	3	-999	n/a	VAN	VAN	ROAD	7	[0, 0, 0]	-999	PAL1	2	R1318N
745.106	4.037	746107	STUDY_PAIR	n/a	wordpools/wordpool_EN.txt	4	-999	n/a	SCHOOL	SCHOOL	DOOR	7	[0, 0, 0]	-999	PAL1	2	R1318N
749.143	0.534	750144	STUDY_PAIR_OFF	n/a	n/a	4	-999	n/a	SCHOOL	SCHOOL	DOOR	7	[0, 0, 0]	-999	PAL1	2	R1318N
749.677	4.033	750678	STUDY_PAIR	n/a	wordpools/wordpool_EN.txt	5	-999	n/a	SNOW	SNOW	ROPE	7	[0, 0, 0]	-999	PAL1	2	R1318N
753.71	0.606	754711	STUDY_PAIR_OFF	n/a	n/a	5	-999	n/a	SNOW	SNOW	ROPE	7	[0, 0, 0]	-999	PAL1	2	R1318N
754.316	4.029	755317	STUDY_PAIR	n/a	wordpools/wordpool_EN.txt	6	-999	n/a	WHALE	HOUSE	WHALE	7	[0, 0, 0]	-999	PAL1	2	R1318N
758.345	0.0	759346	STUDY_PAIR_OFF	n/a	n/a	6	-999	n/a	WHALE	HOUSE	WHALE	7	[0, 0, 0]	-999	PAL1	2	R1318N
758.345	0.001	759346	ENCODING_END	n/a	n/a	-999	-999	n/a	n/a	n/a	n/a	7	[0, 0, 0]	-999	PAL1	2	R1318N
758.346	0.0	759347	MATH_START	n/a	n/a	-999	-999	n/a	n/a	n/a	n/a	7	[0, 0, 0]	-999	PAL1	2	R1318N
758.346	0.015	759347	START	n/a	n/a	-999	-999	n/a	n/a	n/a	n/a	7	[-999, -999, -999]	-999	PAL1	2	R1318N
758.361	12.785	759362	PROB	12762	n/a	-999	-999	n/a	n/a	n/a	n/a	7	[7, 5, 6]	18	PAL1	2	R1318N
771.146	3.368	772146	PROB	3337	n/a	-999	-999	n/a	n/a	n/a	n/a	7	[6, 6, 4]	16	PAL1	2	R1318N
774.514	2.533	775514	PROB	2497	n/a	-999	-999	n/a	n/a	n/a	n/a	7	[4, 9, 9]	22	PAL1	2	R1318N
777.047	6.347	778047	PROB	6347	n/a	-999	-999	n/a	n/a	n/a	n/a	7	[7, 9, 8]	24	PAL1	2	R1318N
783.394	0.021	784394	STOP	n/a	n/a	-999	-999	n/a	n/a	n/a	n/a	7	[-999, -999, -999]	-999	PAL1	2	R1318N
783.415	0.617	784415	MATH_END	n/a	n/a	-999	-999	n/a	n/a	n/a	n/a	7	[0, 0, 0]	-999	PAL1	2	R1318N
784.032	0.002	785032	RETRIEVAL_START	n/a	n/a	-999	-999	n/a	n/a	n/a	n/a	7	[0, 0, 0]	-999	PAL1	2	R1318N
784.034	0.281	785034	ORIENT_START	n/a	n/a	-999	-999	n/a	n/a	n/a	n/a	7	[0, 0, 0]	-999	PAL1	2	R1318N
784.315	0.622	785315	ORIENT_END	n/a	n/a	-999	-999	n/a	n/a	n/a	n/a	7	[0, 0, 0]	-999	PAL1	2	R1318N
784.937	0.001	785937	REC_START	n/a	n/a	5	1	ROPE	SNOW	SNOW	ROPE	7	[0, 0, 0]	-999	PAL1	2	R1318N
784.938	1.742	785938	PROBE_START	n/a	wordpools/wordpool_EN.txt	5	1	ROPE	SNOW	SNOW	ROPE	7	[0, 0, 0]	-999	PAL1	2	R1318N
786.68	2.287	787680	REC_EVENT	1742	n/a	5	1	ROPE	SNOW	SNOW	ROPE	7	[0, 0, 0]	-999	PAL1	2	R1318N
788.967	1.001	789967	PROBE_END	n/a	n/a	5	1	ROPE	n/a	SNOW	ROPE	7	[0, 0, 0]	-999	PAL1	2	R1318N
789.968	0.011	790968	REC_END	n/a	n/a	5	1	ROPE	n/a	SNOW	ROPE	7	[0, 0, 0]	-999	PAL1	2	R1318N
789.979	0.271	790979	ORIENT_START	n/a	n/a	-999	-999	n/a	n/a	n/a	n/a	7	[0, 0, 0]	-999	PAL1	2	R1318N
790.25	0.71	791250	ORIENT_END	n/a	n/a	-999	-999	n/a	n/a	n/a	n/a	7	[0, 0, 0]	-999	PAL1	2	R1318N
790.96	0.0	791960	REC_START	n/a	n/a	2	2	VEST	BOOT	VEST	BOOT	7	[0, 0, 0]	-999	PAL1	2	R1318N
790.96	1.781	791960	PROBE_START	n/a	wordpools/wordpool_EN.txt	2	2	VEST	BOOT	VEST	BOOT	7	[0, 0, 0]	-999	PAL1	2	R1318N
792.741	2.244	793741	REC_EVENT	1781	n/a	2	2	VEST	BOOT	VEST	BOOT	7	[0, 0, 0]	-999	PAL1	2	R1318N
794.985	1.011	795985	PROBE_END	n/a	n/a	2	2	VEST	n/a	VEST	BOOT	7	[0, 0, 0]	-999	PAL1	2	R1318N
795.996	0.005	796995	REC_END	n/a	n/a	2	2	VEST	n/a	VEST	BOOT	7	[0, 0, 0]	-999	PAL1	2	R1318N
796.001	0.283	797000	ORIENT_START	n/a	n/a	-999	-999	n/a	n/a	n/a	n/a	7	[0, 0, 0]	-999	PAL1	2	R1318N
796.284	0.623	797283	ORIENT_END	n/a	n/a	-999	-999	n/a	n/a	n/a	n/a	7	[0, 0, 0]	-999	PAL1	2	R1318N
796.907	0.0	797906	PROBE_START	n/a	wordpools/wordpool_EN.txt	1	3	CAR	TRAY	CAR	TRAY	7	[0, 0, 0]	-999	PAL1	2	R1318N
796.907	2.564	797906	REC_START	n/a	n/a	1	3	CAR	TRAY	CAR	TRAY	7	[0, 0, 0]	-999	PAL1	2	R1318N
799.471	1.465	800470	REC_EVENT	2564	n/a	1	3	CAR	TRAY	CAR	TRAY	7	[0, 0, 0]	-999	PAL1	2	R1318N
800.936	1.001	801935	PROBE_END	n/a	n/a	1	3	CAR	n/a	CAR	TRAY	7	[0, 0, 0]	-999	PAL1	2	R1318N
801.937	0.011	802936	REC_END	n/a	n/a	1	3	CAR	n/a	CAR	TRAY	7	[0, 0, 0]	-999	PAL1	2	R1318N
801.948	0.27	802947	ORIENT_START	n/a	n/a	-999	-999	n/a	n/a	n/a	n/a	7	[0, 0, 0]	-999	PAL1	2	R1318N
802.218	0.577	803217	ORIENT_END	n/a	n/a	-999	-999	n/a	n/a	n/a	n/a	7	[0, 0, 0]	-999	PAL1	2	R1318N
802.795	0.001	803794	REC_START	n/a	n/a	4	4	DOOR	SCHOOL	SCHOOL	DOOR	7	[0, 0, 0]	-999	PAL1	2	R1318N
802.796	1.992	803795	PROBE_START	n/a	wordpools/wordpool_EN.txt	4	4	DOOR	SCHOOL	SCHOOL	DOOR	7	[0, 0, 0]	-999	PAL1	2	R1318N
804.788	2.032	805787	REC_EVENT	1992	n/a	4	4	DOOR	SCHOOL	SCHOOL	DOOR	7	[0, 0, 0]	-999	PAL1	2	R1318N
806.82	1.001	807819	PROBE_END	n/a	n/a	4	4	DOOR	n/a	SCHOOL	DOOR	7	[0, 0, 0]	-999	PAL1	2	R1318N
807.821	0.011	808820	REC_END	n/a	n/a	4	4	DOOR	n/a	SCHOOL	DOOR	7	[0, 0, 0]	-999	PAL1	2	R1318N
807.832	0.271	808831	ORIENT_START	n/a	n/a	-999	-999	n/a	n/a	n/a	n/a	7	[0, 0, 0]	-999	PAL1	2	R1318N
808.103	0.532	809102	ORIENT_END	n/a	n/a	-999	-999	n/a	n/a	n/a	n/a	7	[0, 0, 0]	-999	PAL1	2	R1318N
808.635	0.001	809634	REC_START	n/a	n/a	3	5	ROAD	VAN	VAN	ROAD	7	[0, 0, 0]	-999	PAL1	2	R1318N
808.636	1.628	809635	PROBE_START	n/a	wordpools/wordpool_EN.txt	3	5	ROAD	VAN	VAN	ROAD	7	[0, 0, 0]	-999	PAL1	2	R1318N
810.264	2.406	811263	REC_EVENT	1628	n/a	3	5	ROAD	VAN	VAN	ROAD	7	[0, 0, 0]	-999	PAL1	2	R1318N
812.67	1.0	813669	PROBE_END	n/a	n/a	3	5	ROAD	n/a	VAN	ROAD	7	[0, 0, 0]	-999	PAL1	2	R1318N
813.67	0.01	814669	REC_END	n/a	n/a	3	5	ROAD	n/a	VAN	ROAD	7	[0, 0, 0]	-999	PAL1	2	R1318N
813.68	0.275	814679	ORIENT_START	n/a	n/a	-999	-999	n/a	n/a	n/a	n/a	7	[0, 0, 0]	-999	PAL1	2	R1318N
813.955	0.636	814954	ORIENT_END	n/a	n/a	-999	-999	n/a	n/a	n/a	n/a	7	[0, 0, 0]	-999	PAL1	2	R1318N
814.591	0.0	815590	REC_START	n/a	n/a	6	6	HOUSE	WHALE	HOUSE	WHALE	7	[0, 0, 0]	-999	PAL1	2	R1318N
814.591	1.896	815590	PROBE_START	n/a	wordpools/wordpool_EN.txt	6	6	HOUSE	WHALE	HOUSE	WHALE	7	[0, 0, 0]	-999	PAL1	2	R1318N
816.487	2.134	817486	REC_EVENT	1896	n/a	6	6	HOUSE	WHALE	HOUSE	WHALE	7	[0, 0, 0]	-999	PAL1	2	R1318N
818.621	1.0	819620	PROBE_END	n/a	n/a	6	6	HOUSE	n/a	HOUSE	WHALE	7	[0, 0, 0]	-999	PAL1	2	R1318N
819.621	0.01	820620	REC_END	n/a	n/a	6	6	HOUSE	n/a	HOUSE	WHALE	7	[0, 0, 0]	-999	PAL1	2	R1318N
819.631	0.001	820630	RETRIEVAL_END	n/a	n/a	-999	-999	n/a	n/a	n/a	n/a	7	[0, 0, 0]	-999	PAL1	2	R1318N
819.632	0.021	820631	TRIAL_END	n/a	n/a	-999	-999	n/a	n/a	n/a	n/a	7	[0, 0, 0]	-999	PAL1	2	R1318N
819.653	0.0	820652	TRIAL	n/a	n/a	-999	-999	n/a	n/a	n/a	n/a	8	[0, 0, 0]	-999	PAL1	2	R1318N
819.653	0.0	820652	WAITING_START	n/a	n/a	-999	-999	n/a	n/a	n/a	n/a	8	[0, 0, 0]	-999	PAL1	2	R1318N
819.653	63.445	820652	TRIAL_START	n/a	n/a	-999	-999	n/a	n/a	n/a	n/a	7	[0, 0, 0]	-999	PAL1	2	R1318N
883.098	0.001	884095	WAITING_END	n/a	n/a	-999	-999	n/a	n/a	n/a	n/a	8	[0, 0, 0]	-999	PAL1	2	R1318N
883.099	10.429	884096	COUNTDOWN_START	n/a	n/a	-999	-999	n/a	n/a	n/a	n/a	8	[0, 0, 0]	-999	PAL1	2	R1318N
893.528	0.001	894525	COUNTDOWN_END	n/a	n/a	-999	-999	n/a	n/a	n/a	n/a	8	[0, 0, 0]	-999	PAL1	2	R1318N
893.529	0.571	894526	ORIENT_START	n/a	n/a	-999	-999	n/a	n/a	n/a	n/a	8	[0, 0, 0]	-999	PAL1	2	R1318N
894.1	0.001	895097	ORIENT_END	n/a	n/a	-999	-999	n/a	n/a	n/a	n/a	8	[0, 0, 0]	-999	PAL1	2	R1318N
894.101	1.16	895098	ENCODING_START	n/a	n/a	-999	-999	n/a	n/a	n/a	n/a	8	[0, 0, 0]	-999	PAL1	2	R1318N
895.261	4.04	896258	STUDY_PAIR	n/a	wordpools/wordpool_EN.txt	1	-999	n/a	n/a	DOG	ROOF	8	[0, 0, 0]	-999	PAL1	2	R1318N
899.301	0.52	900298	STUDY_PAIR_OFF	n/a	n/a	1	-999	n/a	n/a	DOG	ROOF	8	[0, 0, 0]	-999	PAL1	2	R1318N
899.821	4.032	900817	STUDY_PAIR	n/a	wordpools/wordpool_EN.txt	2	-999	n/a	GOLD	GOLD	PEN	8	[0, 0, 0]	-999	PAL1	2	R1318N
903.853	0.694	904849	STUDY_PAIR_OFF	n/a	n/a	2	-999	n/a	GOLD	GOLD	PEN	8	[0, 0, 0]	-999	PAL1	2	R1318N
904.547	4.039	905543	STUDY_PAIR	n/a	wordpools/wordpool_EN.txt	3	-999	n/a	CASH	CASH	PEA	8	[0, 0, 0]	-999	PAL1	2	R1318N
908.586	0.593	909582	STUDY_PAIR_OFF	n/a	n/a	3	-999	n/a	CASH	CASH	PEA	8	[0, 0, 0]	-999	PAL1	2	R1318N
909.179	4.024	910175	STUDY_PAIR	n/a	wordpools/wordpool_EN.txt	4	-999	n/a	BARN	ANT	BARN	8	[0, 0, 0]	-999	PAL1	2	R1318N
913.203	0.516	914199	STUDY_PAIR_OFF	n/a	n/a	4	-999	n/a	BARN	ANT	BARN	8	[0, 0, 0]	-999	PAL1	2	R1318N
913.719	4.035	914715	STUDY_PAIR	n/a	wordpools/wordpool_EN.txt	5	-999	n/a	PARK	TRAIN	PARK	8	[0, 0, 0]	-999	PAL1	2	R1318N
917.754	0.727	918750	STUDY_PAIR_OFF	n/a	n/a	5	-999	n/a	PARK	TRAIN	PARK	8	[0, 0, 0]	-999	PAL1	2	R1318N
918.481	4.041	919477	STUDY_PAIR	n/a	wordpools/wordpool_EN.txt	6	-999	n/a	OAR	SQUARE	OAR	8	[0, 0, 0]	-999	PAL1	2	R1318N
922.522	0.0	923518	STUDY_PAIR_OFF	n/a	n/a	6	-999	n/a	OAR	SQUARE	OAR	8	[0, 0, 0]	-999	PAL1	2	R1318N
922.522	0.0	923518	ENCODING_END	n/a	n/a	-999	-999	n/a	n/a	n/a	n/a	8	[0, 0, 0]	-999	PAL1	2	R1318N
922.522	0.001	923518	MATH_START	n/a	n/a	-999	-999	n/a	n/a	n/a	n/a	8	[0, 0, 0]	-999	PAL1	2	R1318N
922.523	0.015	923519	START	n/a	n/a	-999	-999	n/a	n/a	n/a	n/a	8	[-999, -999, -999]	-999	PAL1	2	R1318N
922.538	2.95	923534	PROB	2913	n/a	-999	-999	n/a	n/a	n/a	n/a	8	[1, 2, 5]	8	PAL1	2	R1318N
925.488	3.951	926484	PROB	3923	n/a	-999	-999	n/a	n/a	n/a	n/a	8	[7, 3, 1]	11	PAL1	2	R1318N
929.439	3.951	930435	PROB	3923	n/a	-999	-999	n/a	n/a	n/a	n/a	8	[6, 6, 3]	15	PAL1	2	R1318N
933.39	2.8	934386	PROB	2765	n/a	-999	-999	n/a	n/a	n/a	n/a	8	[5, 5, 9]	19	PAL1	2	R1318N
936.19	3.768	937185	PROB	3733	n/a	-999	-999	n/a	n/a	n/a	n/a	8	[6, 4, 5]	15	PAL1	2	R1318N
939.958	4.061	940953	PROB	4061	n/a	-999	-999	n/a	n/a	n/a	n/a	8	[3, 3, 6]	2	PAL1	2	R1318N
944.019	0.006	945014	STOP	n/a	n/a	-999	-999	n/a	n/a	n/a	n/a	8	[-999, -999, -999]	-999	PAL1	2	R1318N
944.025	0.664	945020	MATH_END	n/a	n/a	-999	-999	n/a	n/a	n/a	n/a	8	[0, 0, 0]	-999	PAL1	2	R1318N
944.689	0.002	945684	RETRIEVAL_START	n/a	n/a	-999	-999	n/a	n/a	n/a	n/a	8	[0, 0, 0]	-999	PAL1	2	R1318N
944.691	0.285	945686	ORIENT_START	n/a	n/a	-999	-999	n/a	n/a	n/a	n/a	8	[0, 0, 0]	-999	PAL1	2	R1318N
944.976	0.751	945971	ORIENT_END	n/a	n/a	-999	-999	n/a	n/a	n/a	n/a	8	[0, 0, 0]	-999	PAL1	2	R1318N
945.727	0.0	946722	REC_START	n/a	n/a	1	1	ROOF	n/a	DOG	ROOF	8	[0, 0, 0]	-999	PAL1	2	R1318N
945.727	4.032	946722	PROBE_START	n/a	wordpools/wordpool_EN.txt	1	1	ROOF	n/a	DOG	ROOF	8	[0, 0, 0]	-999	PAL1	2	R1318N
949.759	1.001	950754	PROBE_END	n/a	n/a	1	1	ROOF	n/a	DOG	ROOF	8	[0, 0, 0]	-999	PAL1	2	R1318N
950.76	0.006	951755	REC_END	n/a	n/a	1	1	ROOF	n/a	DOG	ROOF	8	[0, 0, 0]	-999	PAL1	2	R1318N
950.766	0.277	951761	ORIENT_START	n/a	n/a	-999	-999	n/a	n/a	n/a	n/a	8	[0, 0, 0]	-999	PAL1	2	R1318N
951.043	0.528	952038	ORIENT_END	n/a	n/a	-999	-999	n/a	n/a	n/a	n/a	8	[0, 0, 0]	-999	PAL1	2	R1318N
951.571	0.0	952566	PROBE_START	n/a	wordpools/wordpool_EN.txt	4	2	ANT	BARN	ANT	BARN	8	[0, 0, 0]	-999	PAL1	2	R1318N
951.571	0.227	952566	REC_START	n/a	n/a	4	2	ANT	BARN	ANT	BARN	8	[0, 0, 0]	-999	PAL1	2	R1318N
951.798	1.552	952793	REC_EVENT	6071	n/a	1	1	ROOF	<>	DOG	ROOF	8	[0, 0, 0]	-999	PAL1	2	R1318N
953.35	2.244	954345	REC_EVENT	1779	n/a	4	2	ANT	BARN	ANT	BARN	8	[0, 0, 0]	-999	PAL1	2	R1318N
955.594	0.999	956589	PROBE_END	n/a	n/a	4	2	ANT	n/a	ANT	BARN	8	[0, 0, 0]	-999	PAL1	2	R1318N
956.593	0.012	957588	REC_END	n/a	n/a	4	2	ANT	n/a	ANT	BARN	8	[0, 0, 0]	-999	PAL1	2	R1318N
956.605	0.273	957600	ORIENT_START	n/a	n/a	-999	-999	n/a	n/a	n/a	n/a	8	[0, 0, 0]	-999	PAL1	2	R1318N
956.878	0.513	957873	ORIENT_END	n/a	n/a	-999	-999	n/a	n/a	n/a	n/a	8	[0, 0, 0]	-999	PAL1	2	R1318N
957.391	0.0	958386	REC_START	n/a	n/a	3	3	PEA	CASH	CASH	PEA	8	[0, 0, 0]	-999	PAL1	2	R1318N
957.391	2.111	958386	PROBE_START	n/a	wordpools/wordpool_EN.txt	3	3	PEA	CASH	CASH	PEA	8	[0, 0, 0]	-999	PAL1	2	R1318N
959.502	1.909	960497	REC_EVENT	2111	n/a	3	3	PEA	CASH	CASH	PEA	8	[0, 0, 0]	-999	PAL1	2	R1318N
961.411	1.001	962406	PROBE_END	n/a	n/a	3	3	PEA	n/a	CASH	PEA	8	[0, 0, 0]	-999	PAL1	2	R1318N
962.412	0.011	963407	REC_END	n/a	n/a	3	3	PEA	n/a	CASH	PEA	8	[0, 0, 0]	-999	PAL1	2	R1318N
962.423	0.272	963418	ORIENT_START	n/a	n/a	-999	-999	n/a	n/a	n/a	n/a	8	[0, 0, 0]	-999	PAL1	2	R1318N
962.695	0.594	963690	ORIENT_END	n/a	n/a	-999	-999	n/a	n/a	n/a	n/a	8	[0, 0, 0]	-999	PAL1	2	R1318N
963.289	0.0	964284	REC_START	n/a	n/a	2	4	PEN	GOLD	GOLD	PEN	8	[0, 0, 0]	-999	PAL1	2	R1318N
963.289	1.71	964284	PROBE_START	n/a	wordpools/wordpool_EN.txt	2	4	PEN	GOLD	GOLD	PEN	8	[0, 0, 0]	-999	PAL1	2	R1318N
964.999	2.313	965994	REC_EVENT	1710	n/a	2	4	PEN	GOLD	GOLD	PEN	8	[0, 0, 0]	-999	PAL1	2	R1318N
967.312	1.001	968307	PROBE_END	n/a	n/a	2	4	PEN	n/a	GOLD	PEN	8	[0, 0, 0]	-999	PAL1	2	R1318N
968.313	0.012	969308	REC_END	n/a	n/a	2	4	PEN	n/a	GOLD	PEN	8	[0, 0, 0]	-999	PAL1	2	R1318N
968.325	0.271	969320	ORIENT_START	n/a	n/a	-999	-999	n/a	n/a	n/a	n/a	8	[0, 0, 0]	-999	PAL1	2	R1318N
968.596	0.615	969591	ORIENT_END	n/a	n/a	-999	-999	n/a	n/a	n/a	n/a	8	[0, 0, 0]	-999	PAL1	2	R1318N
969.211	0.0	970205	REC_START	n/a	n/a	5	5	TRAIN	PARK	TRAIN	PARK	8	[0, 0, 0]	-999	PAL1	2	R1318N
969.211	2.213	970205	PROBE_START	n/a	wordpools/wordpool_EN.txt	5	5	TRAIN	PARK	TRAIN	PARK	8	[0, 0, 0]	-999	PAL1	2	R1318N
971.424	1.823	972418	REC_EVENT	2213	n/a	5	5	TRAIN	PARK	TRAIN	PARK	8	[0, 0, 0]	-999	PAL1	2	R1318N
973.247	0.999	974241	PROBE_END	n/a	n/a	5	5	TRAIN	n/a	TRAIN	PARK	8	[0, 0, 0]	-999	PAL1	2	R1318N
974.246	0.01	975240	REC_END	n/a	n/a	5	5	TRAIN	n/a	TRAIN	PARK	8	[0, 0, 0]	-999	PAL1	2	R1318N
974.256	0.274	975250	ORIENT_START	n/a	n/a	-999	-999	n/a	n/a	n/a	n/a	8	[0, 0, 0]	-999	PAL1	2	R1318N
974.53	0.606	975524	ORIENT_END	n/a	n/a	-999	-999	n/a	n/a	n/a	n/a	8	[0, 0, 0]	-999	PAL1	2	R1318N
975.136	0.0	976130	REC_START	n/a	n/a	6	6	SQUARE	OAR	SQUARE	OAR	8	[0, 0, 0]	-999	PAL1	2	R1318N
975.136	1.82	976130	PROBE_START	n/a	wordpools/wordpool_EN.txt	6	6	SQUARE	OAR	SQUARE	OAR	8	[0, 0, 0]	-999	PAL1	2	R1318N
976.956	2.208	977950	REC_EVENT	1820	n/a	6	6	SQUARE	OAR	SQUARE	OAR	8	[0, 0, 0]	-999	PAL1	2	R1318N
979.164	1.001	980158	PROBE_END	n/a	n/a	6	6	SQUARE	n/a	SQUARE	OAR	8	[0, 0, 0]	-999	PAL1	2	R1318N
980.165	0.01	981159	REC_END	n/a	n/a	6	6	SQUARE	n/a	SQUARE	OAR	8	[0, 0, 0]	-999	PAL1	2	R1318N
980.175	0.0	981169	RETRIEVAL_END	n/a	n/a	-999	-999	n/a	n/a	n/a	n/a	8	[0, 0, 0]	-999	PAL1	2	R1318N
980.175	0.019	981169	TRIAL_END	n/a	n/a	-999	-999	n/a	n/a	n/a	n/a	8	[0, 0, 0]	-999	PAL1	2	R1318N
980.194	0.001	981188	TRIAL_START	n/a	n/a	-999	-999	n/a	n/a	n/a	n/a	8	[0, 0, 0]	-999	PAL1	2	R1318N
980.195	0.0	981189	WAITING_START	n/a	n/a	-999	-999	n/a	n/a	n/a	n/a	9	[0, 0, 0]	-999	PAL1	2	R1318N
980.195	20.34	981189	TRIAL	n/a	n/a	-999	-999	n/a	n/a	n/a	n/a	9	[0, 0, 0]	-999	PAL1	2	R1318N
1000.535	0.0	1001529	WAITING_END	n/a	n/a	-999	-999	n/a	n/a	n/a	n/a	9	[0, 0, 0]	-999	PAL1	2	R1318N
1000.535	10.428	1001529	COUNTDOWN_START	n/a	n/a	-999	-999	n/a	n/a	n/a	n/a	9	[0, 0, 0]	-999	PAL1	2	R1318N
1010.963	0.0	1011956	COUNTDOWN_END	n/a	n/a	-999	-999	n/a	n/a	n/a	n/a	9	[0, 0, 0]	-999	PAL1	2	R1318N
1010.963	0.573	1011956	ORIENT_START	n/a	n/a	-999	-999	n/a	n/a	n/a	n/a	9	[0, 0, 0]	-999	PAL1	2	R1318N
1011.536	0.001	1012529	ORIENT_END	n/a	n/a	-999	-999	n/a	n/a	n/a	n/a	9	[0, 0, 0]	-999	PAL1	2	R1318N
1011.537	1.082	1012530	ENCODING_START	n/a	n/a	-999	-999	n/a	n/a	n/a	n/a	9	[0, 0, 0]	-999	PAL1	2	R1318N
1012.619	4.035	1013612	STUDY_PAIR	n/a	wordpools/wordpool_EN.txt	1	-999	n/a	WORM	WOOD	WORM	9	[0, 0, 0]	-999	PAL1	2	R1318N
1016.654	0.684	1017647	STUDY_PAIR_OFF	n/a	n/a	1	-999	n/a	WORM	WOOD	WORM	9	[0, 0, 0]	-999	PAL1	2	R1318N
1017.338	4.033	1018331	STUDY_PAIR	n/a	wordpools/wordpool_EN.txt	2	-999	n/a	SIGN	SIGN	FUR	9	[0, 0, 0]	-999	PAL1	2	R1318N
1021.371	0.671	1022364	STUDY_PAIR_OFF	n/a	n/a	2	-999	n/a	SIGN	SIGN	FUR	9	[0, 0, 0]	-999	PAL1	2	R1318N
1022.042	4.013	1023035	STUDY_PAIR	n/a	wordpools/wordpool_EN.txt	3	-999	n/a	FENCE	FENCE	MOUSE	9	[0, 0, 0]	-999	PAL1	2	R1318N
1026.055	0.7	1027048	STUDY_PAIR_OFF	n/a	n/a	3	-999	n/a	FENCE	FENCE	MOUSE	9	[0, 0, 0]	-999	PAL1	2	R1318N
1026.755	4.034	1027748	STUDY_PAIR	n/a	wordpools/wordpool_EN.txt	4	-999	n/a	PET	PET	FARM	9	[0, 0, 0]	-999	PAL1	2	R1318N
1030.789	0.611	1031782	STUDY_PAIR_OFF	n/a	n/a	4	-999	n/a	PET	PET	FARM	9	[0, 0, 0]	-999	PAL1	2	R1318N
1031.4	4.023	1032393	STUDY_PAIR	n/a	wordpools/wordpool_EN.txt	5	-999	n/a	EEL	LEAF	EEL	9	[0, 0, 0]	-999	PAL1	2	R1318N
1035.423	0.594	1036416	STUDY_PAIR_OFF	n/a	n/a	5	-999	n/a	EEL	LEAF	EEL	9	[0, 0, 0]	-999	PAL1	2	R1318N
1036.017	4.024	1037010	STUDY_PAIR	n/a	wordpools/wordpool_EN.txt	6	-999	n/a	PIPE	SKUNK	PIPE	9	[0, 0, 0]	-999	PAL1	2	R1318N
1040.041	0.0	1041033	STUDY_PAIR_OFF	n/a	n/a	6	-999	n/a	PIPE	SKUNK	PIPE	9	[0, 0, 0]	-999	PAL1	2	R1318N
1040.041	0.001	1041033	ENCODING_END	n/a	n/a	-999	-999	n/a	n/a	n/a	n/a	9	[0, 0, 0]	-999	PAL1	2	R1318N
1040.042	0.0	1041034	MATH_START	n/a	n/a	-999	-999	n/a	n/a	n/a	n/a	9	[0, 0, 0]	-999	PAL1	2	R1318N
1040.042	0.015	1041034	START	n/a	n/a	-999	-999	n/a	n/a	n/a	n/a	9	[-999, -999, -999]	-999	PAL1	2	R1318N
1040.057	3.668	1041049	PROB	3633	n/a	-999	-999	n/a	n/a	n/a	n/a	9	[9, 1, 2]	12	PAL1	2	R1318N
1043.725	4.284	1044717	PROB	4254	n/a	-999	-999	n/a	n/a	n/a	n/a	9	[1, 8, 7]	16	PAL1	2	R1318N
1048.009	4.667	1049001	PROB	4633	n/a	-999	-999	n/a	n/a	n/a	n/a	9	[1, 6, 2]	9	PAL1	2	R1318N
1052.676	3.367	1053668	PROB	3342	n/a	-999	-999	n/a	n/a	n/a	n/a	9	[6, 1, 6]	13	PAL1	2	R1318N
1056.043	5.559	1057035	PROB	5559	n/a	-999	-999	n/a	n/a	n/a	n/a	9	[7, 2, 4]	13	PAL1	2	R1318N
1061.602	0.009	1062594	STOP	n/a	n/a	-999	-999	n/a	n/a	n/a	n/a	9	[-999, -999, -999]	-999	PAL1	2	R1318N
1061.611	0.692	1062603	MATH_END	n/a	n/a	-999	-999	n/a	n/a	n/a	n/a	9	[0, 0, 0]	-999	PAL1	2	R1318N
1062.303	0.001	1063295	RETRIEVAL_START	n/a	n/a	-999	-999	n/a	n/a	n/a	n/a	9	[0, 0, 0]	-999	PAL1	2	R1318N
1062.304	0.274	1063296	ORIENT_START	n/a	n/a	-999	-999	n/a	n/a	n/a	n/a	9	[0, 0, 0]	-999	PAL1	2	R1318N
1062.578	0.74	1063570	ORIENT_END	n/a	n/a	-999	-999	n/a	n/a	n/a	n/a	9	[0, 0, 0]	-999	PAL1	2	R1318N
1063.318	0.0	1064310	REC_START	n/a	n/a	5	1	LEAF	EEL	LEAF	EEL	9	[0, 0, 0]	-999	PAL1	2	R1318N
1063.318	2.009	1064310	PROBE_START	n/a	wordpools/wordpool_EN.txt	5	1	LEAF	EEL	LEAF	EEL	9	[0, 0, 0]	-999	PAL1	2	R1318N
1065.327	2.018	1066319	REC_EVENT	2009	n/a	5	1	LEAF	EEL	LEAF	EEL	9	[0, 0, 0]	-999	PAL1	2	R1318N
1067.345	1.001	1068337	PROBE_END	n/a	n/a	5	1	LEAF	n/a	LEAF	EEL	9	[0, 0, 0]	-999	PAL1	2	R1318N
1068.346	0.006	1069338	REC_END	n/a	n/a	5	1	LEAF	n/a	LEAF	EEL	9	[0, 0, 0]	-999	PAL1	2	R1318N
1068.352	0.277	1069344	ORIENT_START	n/a	n/a	-999	-999	n/a	n/a	n/a	n/a	9	[0, 0, 0]	-999	PAL1	2	R1318N
1068.629	0.691	1069621	ORIENT_END	n/a	n/a	-999	-999	n/a	n/a	n/a	n/a	9	[0, 0, 0]	-999	PAL1	2	R1318N
1069.32	0.0	1070312	REC_START	n/a	n/a	4	2	FARM	PET	PET	FARM	9	[0, 0, 0]	-999	PAL1	2	R1318N
1069.32	1.897	1070312	PROBE_START	n/a	wordpools/wordpool_EN.txt	4	2	FARM	PET	PET	FARM	9	[0, 0, 0]	-999	PAL1	2	R1318N
1071.217	2.129	1072209	REC_EVENT	1897	n/a	4	2	FARM	PET	PET	FARM	9	[0, 0, 0]	-999	PAL1	2	R1318N
1073.346	1.001	1074337	PROBE_END	n/a	n/a	4	2	FARM	n/a	PET	FARM	9	[0, 0, 0]	-999	PAL1	2	R1318N
1074.347	0.012	1075338	REC_END	n/a	n/a	4	2	FARM	n/a	PET	FARM	9	[0, 0, 0]	-999	PAL1	2	R1318N
1074.359	0.271	1075350	ORIENT_START	n/a	n/a	-999	-999	n/a	n/a	n/a	n/a	9	[0, 0, 0]	-999	PAL1	2	R1318N
1074.63	0.541	1075621	ORIENT_END	n/a	n/a	-999	-999	n/a	n/a	n/a	n/a	9	[0, 0, 0]	-999	PAL1	2	R1318N
1075.171	0.0	1076162	REC_START	n/a	n/a	1	3	WOOD	WORM	WOOD	WORM	9	[0, 0, 0]	-999	PAL1	2	R1318N
1075.171	1.76	1076162	PROBE_START	n/a	wordpools/wordpool_EN.txt	1	3	WOOD	WORM	WOOD	WORM	9	[0, 0, 0]	-999	PAL1	2	R1318N
1076.931	2.266	1077922	REC_EVENT	1760	n/a	1	3	WOOD	WORM	WOOD	WORM	9	[0, 0, 0]	-999	PAL1	2	R1318N
1079.197	1.001	1080188	PROBE_END	n/a	n/a	1	3	WOOD	n/a	WOOD	WORM	9	[0, 0, 0]	-999	PAL1	2	R1318N
1080.198	0.011	1081189	REC_END	n/a	n/a	1	3	WOOD	n/a	WOOD	WORM	9	[0, 0, 0]	-999	PAL1	2	R1318N
1080.209	0.272	1081200	ORIENT_START	n/a	n/a	-999	-999	n/a	n/a	n/a	n/a	9	[0, 0, 0]	-999	PAL1	2	R1318N
1080.481	0.539	1081472	ORIENT_END	n/a	n/a	-999	-999	n/a	n/a	n/a	n/a	9	[0, 0, 0]	-999	PAL1	2	R1318N
1081.02	0.0	1082011	REC_START	n/a	n/a	2	4	FUR	SIGN	SIGN	FUR	9	[0, 0, 0]	-999	PAL1	2	R1318N
1081.02	1.731	1082011	PROBE_START	n/a	wordpools/wordpool_EN.txt	2	4	FUR	SIGN	SIGN	FUR	9	[0, 0, 0]	-999	PAL1	2	R1318N
1082.751	2.297	1083742	REC_EVENT	1731	n/a	2	4	FUR	SIGN	SIGN	FUR	9	[0, 0, 0]	-999	PAL1	2	R1318N
1085.048	1.0	1086039	PROBE_END	n/a	n/a	2	4	FUR	n/a	SIGN	FUR	9	[0, 0, 0]	-999	PAL1	2	R1318N
1086.048	0.01	1087039	REC_END	n/a	n/a	2	4	FUR	n/a	SIGN	FUR	9	[0, 0, 0]	-999	PAL1	2	R1318N
1086.058	0.274	1087049	ORIENT_START	n/a	n/a	-999	-999	n/a	n/a	n/a	n/a	9	[0, 0, 0]	-999	PAL1	2	R1318N
1086.332	0.714	1087323	ORIENT_END	n/a	n/a	-999	-999	n/a	n/a	n/a	n/a	9	[0, 0, 0]	-999	PAL1	2	R1318N
1087.046	0.001	1088037	REC_START	n/a	n/a	3	5	MOUSE	FENCE	FENCE	MOUSE	9	[0, 0, 0]	-999	PAL1	2	R1318N
1087.047	2.091	1088038	PROBE_START	n/a	wordpools/wordpool_EN.txt	3	5	MOUSE	FENCE	FENCE	MOUSE	9	[0, 0, 0]	-999	PAL1	2	R1318N
1089.138	1.945	1090129	REC_EVENT	2091	n/a	3	5	MOUSE	FENCE	FENCE	MOUSE	9	[0, 0, 0]	-999	PAL1	2	R1318N
1091.083	1.0	1092074	PROBE_END	n/a	n/a	3	5	MOUSE	n/a	FENCE	MOUSE	9	[0, 0, 0]	-999	PAL1	2	R1318N
1092.083	0.011	1093074	REC_END	n/a	n/a	3	5	MOUSE	n/a	FENCE	MOUSE	9	[0, 0, 0]	-999	PAL1	2	R1318N
1092.094	0.272	1093085	ORIENT_START	n/a	n/a	-999	-999	n/a	n/a	n/a	n/a	9	[0, 0, 0]	-999	PAL1	2	R1318N
1092.366	0.744	1093357	ORIENT_END	n/a	n/a	-999	-999	n/a	n/a	n/a	n/a	9	[0, 0, 0]	-999	PAL1	2	R1318N
1093.11	0.0	1094101	REC_START	n/a	n/a	6	6	SKUNK	PIPE	SKUNK	PIPE	9	[0, 0, 0]	-999	PAL1	2	R1318N
1093.11	2.484	1094101	PROBE_START	n/a	wordpools/wordpool_EN.txt	6	6	SKUNK	PIPE	SKUNK	PIPE	9	[0, 0, 0]	-999	PAL1	2	R1318N
1095.594	1.54	1096585	REC_EVENT	2484	n/a	6	6	SKUNK	PIPE	SKUNK	PIPE	9	[0, 0, 0]	-999	PAL1	2	R1318N
1097.134	1.0	1098125	PROBE_END	n/a	n/a	6	6	SKUNK	n/a	SKUNK	PIPE	9	[0, 0, 0]	-999	PAL1	2	R1318N
1098.134	0.005	1099125	REC_END	n/a	n/a	6	6	SKUNK	n/a	SKUNK	PIPE	9	[0, 0, 0]	-999	PAL1	2	R1318N
1098.139	0.001	1099130	RETRIEVAL_END	n/a	n/a	-999	-999	n/a	n/a	n/a	n/a	9	[0, 0, 0]	-999	PAL1	2	R1318N
1098.14	0.018	1099131	TRIAL_END	n/a	n/a	-999	-999	n/a	n/a	n/a	n/a	9	[0, 0, 0]	-999	PAL1	2	R1318N
1098.158	0.001	1099149	TRIAL_START	n/a	n/a	-999	-999	n/a	n/a	n/a	n/a	9	[0, 0, 0]	-999	PAL1	2	R1318N
1098.159	0.0	1099150	TRIAL	n/a	n/a	-999	-999	n/a	n/a	n/a	n/a	10	[0, 0, 0]	-999	PAL1	2	R1318N
1098.159	2.058	1099150	WAITING_START	n/a	n/a	-999	-999	n/a	n/a	n/a	n/a	10	[0, 0, 0]	-999	PAL1	2	R1318N
1100.217	0.001	1101208	WAITING_END	n/a	n/a	-999	-999	n/a	n/a	n/a	n/a	10	[0, 0, 0]	-999	PAL1	2	R1318N
1100.218	10.429	1101209	COUNTDOWN_START	n/a	n/a	-999	-999	n/a	n/a	n/a	n/a	10	[0, 0, 0]	-999	PAL1	2	R1318N
1110.647	0.0	1111637	ORIENT_START	n/a	n/a	-999	-999	n/a	n/a	n/a	n/a	10	[0, 0, 0]	-999	PAL1	2	R1318N
1110.647	0.573	1111637	COUNTDOWN_END	n/a	n/a	-999	-999	n/a	n/a	n/a	n/a	10	[0, 0, 0]	-999	PAL1	2	R1318N
1111.22	0.0	1112210	ORIENT_END	n/a	n/a	-999	-999	n/a	n/a	n/a	n/a	10	[0, 0, 0]	-999	PAL1	2	R1318N
1111.22	1.033	1112210	ENCODING_START	n/a	n/a	-999	-999	n/a	n/a	n/a	n/a	10	[0, 0, 0]	-999	PAL1	2	R1318N
1112.253	4.034	1113243	STUDY_PAIR	n/a	wordpools/wordpool_EN.txt	1	-999	n/a	STAR	STAR	PEAR	10	[0, 0, 0]	-999	PAL1	2	R1318N
1116.287	0.693	1117277	STUDY_PAIR_OFF	n/a	n/a	1	-999	n/a	STAR	STAR	PEAR	10	[0, 0, 0]	-999	PAL1	2	R1318N
1116.98	4.024	1117970	STUDY_PAIR	n/a	wordpools/wordpool_EN.txt	2	-999	n/a	NET	NET	SHIELD	10	[0, 0, 0]	-999	PAL1	2	R1318N
1121.004	0.727	1121994	STUDY_PAIR_OFF	n/a	n/a	2	-999	n/a	NET	NET	SHIELD	10	[0, 0, 0]	-999	PAL1	2	R1318N
1121.731	4.024	1122721	STUDY_PAIR	n/a	wordpools/wordpool_EN.txt	3	-999	n/a	CAGE	BRANCH	CAGE	10	[0, 0, 0]	-999	PAL1	2	R1318N
1125.755	0.652	1126745	STUDY_PAIR_OFF	n/a	n/a	3	-999	n/a	CAGE	BRANCH	CAGE	10	[0, 0, 0]	-999	PAL1	2	R1318N
1126.407	4.032	1127397	STUDY_PAIR	n/a	wordpools/wordpool_EN.txt	4	-999	n/a	CLOWN	GEESE	CLOWN	10	[0, 0, 0]	-999	PAL1	2	R1318N
1130.439	0.601	1131429	STUDY_PAIR_OFF	n/a	n/a	4	-999	n/a	CLOWN	GEESE	CLOWN	10	[0, 0, 0]	-999	PAL1	2	R1318N
1131.04	4.033	1132030	STUDY_PAIR	n/a	wordpools/wordpool_EN.txt	5	-999	n/a	FLAME	WING	CUP	10	[0, 0, 0]	-999	PAL1	2	R1318N
1135.073	0.521	1136063	STUDY_PAIR_OFF	n/a	n/a	5	-999	n/a	FLAME	WING	CUP	10	[0, 0, 0]	-999	PAL1	2	R1318N
1135.594	4.013	1136584	STUDY_PAIR	n/a	wordpools/wordpool_EN.txt	6	-999	n/a	STAR	PEACH	FLAME	10	[0, 0, 0]	-999	PAL1	2	R1318N
1139.607	0.001	1140597	STUDY_PAIR_OFF	n/a	n/a	6	-999	n/a	STAR	PEACH	FLAME	10	[0, 0, 0]	-999	PAL1	2	R1318N
1139.608	0.0	1140598	ENCODING_END	n/a	n/a	-999	-999	n/a	n/a	n/a	n/a	10	[0, 0, 0]	-999	PAL1	2	R1318N
1139.608	0.0	1140598	MATH_START	n/a	n/a	-999	-999	n/a	n/a	n/a	n/a	10	[0, 0, 0]	-999	PAL1	2	R1318N
1139.608	0.016	1140598	START	n/a	n/a	-999	-999	n/a	n/a	n/a	n/a	10	[-999, -999, -999]	-999	PAL1	2	R1318N
1139.624	3.251	1140614	PROB	3228	n/a	-999	-999	n/a	n/a	n/a	n/a	10	[5, 5, 9]	19	PAL1	2	R1318N
1142.875	3.517	1143864	PROB	3488	n/a	-999	-999	n/a	n/a	n/a	n/a	10	[4, 2, 1]	7	PAL1	2	R1318N
1146.392	3.717	1147381	PROB	3683	n/a	-999	-999	n/a	n/a	n/a	n/a	10	[8, 3, 3]	14	PAL1	2	R1318N
1150.109	3.818	1151098	PROB	3790	n/a	-999	-999	n/a	n/a	n/a	n/a	10	[8, 8, 4]	20	PAL1	2	R1318N
1153.927	3.866	1154916	PROB	3844	n/a	-999	-999	n/a	n/a	n/a	n/a	10	[3, 5, 8]	16	PAL1	2	R1318N
1157.793	4.426	1158782	PROB	4426	n/a	-999	-999	n/a	n/a	n/a	n/a	10	[6, 4, 6]	16	PAL1	2	R1318N
1162.219	0.009	1163208	STOP	n/a	n/a	-999	-999	n/a	n/a	n/a	n/a	10	[-999, -999, -999]	-999	PAL1	2	R1318N
1162.228	0.527	1163217	MATH_END	n/a	n/a	-999	-999	n/a	n/a	n/a	n/a	10	[0, 0, 0]	-999	PAL1	2	R1318N
1162.755	0.002	1163744	RETRIEVAL_START	n/a	n/a	-999	-999	n/a	n/a	n/a	n/a	10	[0, 0, 0]	-999	PAL1	2	R1318N
1162.757	0.271	1163746	ORIENT_START	n/a	n/a	-999	-999	n/a	n/a	n/a	n/a	10	[0, 0, 0]	-999	PAL1	2	R1318N
1163.028	0.507	1164017	ORIENT_END	n/a	n/a	-999	-999	n/a	n/a	n/a	n/a	10	[0, 0, 0]	-999	PAL1	2	R1318N
1163.535	0.001	1164524	REC_START	n/a	n/a	5	1	CUP	FLAME	WING	CUP	10	[0, 0, 0]	-999	PAL1	2	R1318N
1163.536	1.934	1164525	PROBE_START	n/a	wordpools/wordpool_EN.txt	5	1	CUP	FLAME	WING	CUP	10	[0, 0, 0]	-999	PAL1	2	R1318N
1165.47	2.075	1166459	REC_EVENT	1934	n/a	5	1	CUP	FLAME	WING	CUP	10	[0, 0, 0]	-999	PAL1	2	R1318N
1167.545	1.0	1168534	PROBE_END	n/a	n/a	5	1	CUP	n/a	WING	CUP	10	[0, 0, 0]	-999	PAL1	2	R1318N
1168.545	0.011	1169534	REC_END	n/a	n/a	5	1	CUP	n/a	WING	CUP	10	[0, 0, 0]	-999	PAL1	2	R1318N
1168.556	0.274	1169545	ORIENT_START	n/a	n/a	-999	-999	n/a	n/a	n/a	n/a	10	[0, 0, 0]	-999	PAL1	2	R1318N
1168.83	0.53	1169819	ORIENT_END	n/a	n/a	-999	-999	n/a	n/a	n/a	n/a	10	[0, 0, 0]	-999	PAL1	2	R1318N
1169.36	0.0	1170349	PROBE_START	n/a	wordpools/wordpool_EN.txt	6	2	PEACH	STAR	PEACH	FLAME	10	[0, 0, 0]	-999	PAL1	2	R1318N
1169.36	2.108	1170349	REC_START	n/a	n/a	6	2	PEACH	STAR	PEACH	FLAME	10	[0, 0, 0]	-999	PAL1	2	R1318N
1171.468	1.928	1172457	REC_EVENT	2108	n/a	6	2	PEACH	STAR	PEACH	FLAME	10	[0, 0, 0]	-999	PAL1	2	R1318N
1173.396	1.0	1174385	PROBE_END	n/a	n/a	6	2	PEACH	n/a	PEACH	FLAME	10	[0, 0, 0]	-999	PAL1	2	R1318N
1174.396	0.012	1175385	REC_END	n/a	n/a	6	2	PEACH	n/a	PEACH	FLAME	10	[0, 0, 0]	-999	PAL1	2	R1318N
1174.408	0.272	1175397	ORIENT_START	n/a	n/a	-999	-999	n/a	n/a	n/a	n/a	10	[0, 0, 0]	-999	PAL1	2	R1318N
1174.68	0.713	1175669	ORIENT_END	n/a	n/a	-999	-999	n/a	n/a	n/a	n/a	10	[0, 0, 0]	-999	PAL1	2	R1318N
1175.393	0.001	1176382	REC_START	n/a	n/a	1	3	PEAR	STAR	STAR	PEAR	10	[0, 0, 0]	-999	PAL1	2	R1318N
1175.394	3.679	1176383	PROBE_START	n/a	wordpools/wordpool_EN.txt	1	3	PEAR	STAR	STAR	PEAR	10	[0, 0, 0]	-999	PAL1	2	R1318N
1179.073	0.357	1180061	REC_EVENT	3679	n/a	1	3	PEAR	STAR	STAR	PEAR	10	[0, 0, 0]	-999	PAL1	2	R1318N
1179.43	1.0	1180418	PROBE_END	n/a	n/a	1	3	PEAR	n/a	STAR	PEAR	10	[0, 0, 0]	-999	PAL1	2	R1318N
1180.43	0.012	1181418	REC_END	n/a	n/a	1	3	PEAR	n/a	STAR	PEAR	10	[0, 0, 0]	-999	PAL1	2	R1318N
1180.442	0.272	1181430	ORIENT_START	n/a	n/a	-999	-999	n/a	n/a	n/a	n/a	10	[0, 0, 0]	-999	PAL1	2	R1318N
1180.714	0.512	1181702	ORIENT_END	n/a	n/a	-999	-999	n/a	n/a	n/a	n/a	10	[0, 0, 0]	-999	PAL1	2	R1318N
1181.226	0.001	1182214	REC_START	n/a	n/a	4	4	GEESE	CLOWN	GEESE	CLOWN	10	[0, 0, 0]	-999	PAL1	2	R1318N
1181.227	1.906	1182215	PROBE_START	n/a	wordpools/wordpool_EN.txt	4	4	GEESE	CLOWN	GEESE	CLOWN	10	[0, 0, 0]	-999	PAL1	2	R1318N
1183.133	2.132	1184121	REC_EVENT	1906	n/a	4	4	GEESE	CLOWN	GEESE	CLOWN	10	[0, 0, 0]	-999	PAL1	2	R1318N
1185.265	1.0	1186253	PROBE_END	n/a	n/a	4	4	GEESE	n/a	GEESE	CLOWN	10	[0, 0, 0]	-999	PAL1	2	R1318N
1186.265	0.01	1187253	REC_END	n/a	n/a	4	4	GEESE	n/a	GEESE	CLOWN	10	[0, 0, 0]	-999	PAL1	2	R1318N
1186.275	0.273	1187263	ORIENT_START	n/a	n/a	-999	-999	n/a	n/a	n/a	n/a	10	[0, 0, 0]	-999	PAL1	2	R1318N
1186.548	0.519	1187536	ORIENT_END	n/a	n/a	-999	-999	n/a	n/a	n/a	n/a	10	[0, 0, 0]	-999	PAL1	2	R1318N
1187.067	0.0	1188055	REC_START	n/a	n/a	3	5	BRANCH	CAGE	BRANCH	CAGE	10	[0, 0, 0]	-999	PAL1	2	R1318N
1187.067	1.792	1188055	PROBE_START	n/a	wordpools/wordpool_EN.txt	3	5	BRANCH	CAGE	BRANCH	CAGE	10	[0, 0, 0]	-999	PAL1	2	R1318N
1188.859	2.24	1189847	REC_EVENT	1792	n/a	3	5	BRANCH	CAGE	BRANCH	CAGE	10	[0, 0, 0]	-999	PAL1	2	R1318N
1191.099	1.0	1192087	PROBE_END	n/a	n/a	3	5	BRANCH	n/a	BRANCH	CAGE	10	[0, 0, 0]	-999	PAL1	2	R1318N
1192.099	0.012	1193087	REC_END	n/a	n/a	3	5	BRANCH	n/a	BRANCH	CAGE	10	[0, 0, 0]	-999	PAL1	2	R1318N
1192.111	0.272	1193099	ORIENT_START	n/a	n/a	-999	-999	n/a	n/a	n/a	n/a	10	[0, 0, 0]	-999	PAL1	2	R1318N
1192.383	0.538	1193371	ORIENT_END	n/a	n/a	-999	-999	n/a	n/a	n/a	n/a	10	[0, 0, 0]	-999	PAL1	2	R1318N
1192.921	0.0	1193909	PROBE_START	n/a	wordpools/wordpool_EN.txt	2	6	SHIELD	NET	NET	SHIELD	10	[0, 0, 0]	-999	PAL1	2	R1318N
1192.921	1.861	1193909	REC_START	n/a	n/a	2	6	SHIELD	NET	NET	SHIELD	10	[0, 0, 0]	-999	PAL1	2	R1318N
1194.782	2.169	1195770	REC_EVENT	1861	n/a	2	6	SHIELD	NET	NET	SHIELD	10	[0, 0, 0]	-999	PAL1	2	R1318N
1196.951	1.0	1197939	PROBE_END	n/a	n/a	2	6	SHIELD	n/a	NET	SHIELD	10	[0, 0, 0]	-999	PAL1	2	R1318N
1197.951	0.01	1198939	REC_END	n/a	n/a	2	6	SHIELD	n/a	NET	SHIELD	10	[0, 0, 0]	-999	PAL1	2	R1318N
1197.961	0.0	1198949	RETRIEVAL_END	n/a	n/a	-999	-999	n/a	n/a	n/a	n/a	10	[0, 0, 0]	-999	PAL1	2	R1318N
1197.961	0.021	1198949	TRIAL_END	n/a	n/a	-999	-999	n/a	n/a	n/a	n/a	10	[0, 0, 0]	-999	PAL1	2	R1318N
1197.982	0.0	1198970	TRIAL_START	n/a	n/a	-999	-999	n/a	n/a	n/a	n/a	10	[0, 0, 0]	-999	PAL1	2	R1318N
1197.982	0.001	1198970	TRIAL	n/a	n/a	-999	-999	n/a	n/a	n/a	n/a	11	[0, 0, 0]	-999	PAL1	2	R1318N
1197.983	1.801	1198971	WAITING_START	n/a	n/a	-999	-999	n/a	n/a	n/a	n/a	11	[0, 0, 0]	-999	PAL1	2	R1318N
1199.784	0.0	1200772	WAITING_END	n/a	n/a	-999	-999	n/a	n/a	n/a	n/a	11	[0, 0, 0]	-999	PAL1	2	R1318N
1199.784	10.429	1200772	COUNTDOWN_START	n/a	n/a	-999	-999	n/a	n/a	n/a	n/a	11	[0, 0, 0]	-999	PAL1	2	R1318N
1210.213	0.001	1211201	COUNTDOWN_END	n/a	n/a	-999	-999	n/a	n/a	n/a	n/a	11	[0, 0, 0]	-999	PAL1	2	R1318N
1210.214	0.689	1211202	ORIENT_START	n/a	n/a	-999	-999	n/a	n/a	n/a	n/a	11	[0, 0, 0]	-999	PAL1	2	R1318N
1210.903	0.001	1211891	ORIENT_END	n/a	n/a	-999	-999	n/a	n/a	n/a	n/a	11	[0, 0, 0]	-999	PAL1	2	R1318N
1210.904	1.141	1211892	ENCODING_START	n/a	n/a	-999	-999	n/a	n/a	n/a	n/a	11	[0, 0, 0]	-999	PAL1	2	R1318N
1212.045	4.008	1213032	STUDY_PAIR	n/a	wordpools/wordpool_EN.txt	1	-999	n/a	BOY	BOY	BUSH	11	[0, 0, 0]	-999	PAL1	2	R1318N
1216.053	0.615	1217040	STUDY_PAIR_OFF	n/a	n/a	1	-999	n/a	BOY	BOY	BUSH	11	[0, 0, 0]	-999	PAL1	2	R1318N
1216.668	4.036	1217655	STUDY_PAIR	n/a	wordpools/wordpool_EN.txt	2	-999	n/a	TOOTH	PIE	TOOTH	11	[0, 0, 0]	-999	PAL1	2	R1318N
1220.704	0.567	1221691	STUDY_PAIR_OFF	n/a	n/a	2	-999	n/a	TOOTH	PIE	TOOTH	11	[0, 0, 0]	-999	PAL1	2	R1318N
1221.271	4.034	1222258	STUDY_PAIR	n/a	wordpools/wordpool_EN.txt	3	-999	n/a	OWL	FOOT	OWL	11	[0, 0, 0]	-999	PAL1	2	R1318N
1225.305	0.521	1226292	STUDY_PAIR_OFF	n/a	n/a	3	-999	n/a	OWL	FOOT	OWL	11	[0, 0, 0]	-999	PAL1	2	R1318N
1225.826	4.031	1226813	STUDY_PAIR	n/a	wordpools/wordpool_EN.txt	4	-999	n/a	BREAD	BREAD	DESK	11	[0, 0, 0]	-999	PAL1	2	R1318N
1229.857	0.599	1230844	STUDY_PAIR_OFF	n/a	n/a	4	-999	n/a	BREAD	BREAD	DESK	11	[0, 0, 0]	-999	PAL1	2	R1318N
1230.456	4.034	1231443	STUDY_PAIR	n/a	wordpools/wordpool_EN.txt	5	-999	n/a	SNAKE	SNAKE	ZOO	11	[0, 0, 0]	-999	PAL1	2	R1318N
1234.49	0.627	1235477	STUDY_PAIR_OFF	n/a	n/a	5	-999	n/a	SNAKE	SNAKE	ZOO	11	[0, 0, 0]	-999	PAL1	2	R1318N
1235.117	4.04	1236104	STUDY_PAIR	n/a	wordpools/wordpool_EN.txt	6	-999	n/a	SPOON	HORSE	SPOON	11	[0, 0, 0]	-999	PAL1	2	R1318N
1239.157	0.001	1240144	STUDY_PAIR_OFF	n/a	n/a	6	-999	n/a	SPOON	HORSE	SPOON	11	[0, 0, 0]	-999	PAL1	2	R1318N
1239.158	0.0	1240145	MATH_START	n/a	n/a	-999	-999	n/a	n/a	n/a	n/a	11	[0, 0, 0]	-999	PAL1	2	R1318N
1239.158	0.0	1240145	ENCODING_END	n/a	n/a	-999	-999	n/a	n/a	n/a	n/a	11	[0, 0, 0]	-999	PAL1	2	R1318N
1239.158	0.015	1240145	START	n/a	n/a	-999	-999	n/a	n/a	n/a	n/a	11	[-999, -999, -999]	-999	PAL1	2	R1318N
1239.173	4.652	1240160	PROB	4622	n/a	-999	-999	n/a	n/a	n/a	n/a	11	[3, 5, 1]	9	PAL1	2	R1318N
1243.825	2.583	1244812	PROB	2554	n/a	-999	-999	n/a	n/a	n/a	n/a	11	[5, 1, 6]	12	PAL1	2	R1318N
1246.408	2.134	1247394	PROB	2106	n/a	-999	-999	n/a	n/a	n/a	n/a	11	[1, 1, 9]	11	PAL1	2	R1318N
1248.542	3.684	1249528	PROB	3661	n/a	-999	-999	n/a	n/a	n/a	n/a	11	[9, 2, 3]	14	PAL1	2	R1318N
1252.226	2.55	1253212	PROB	2512	n/a	-999	-999	n/a	n/a	n/a	n/a	11	[4, 3, 1]	8	PAL1	2	R1318N
1254.776	2.35	1255762	PROB	2323	n/a	-999	-999	n/a	n/a	n/a	n/a	11	[3, 2, 1]	6	PAL1	2	R1318N
1257.126	4.06	1258112	PROB	4060	n/a	-999	-999	n/a	n/a	n/a	n/a	11	[9, 2, 4]	15	PAL1	2	R1318N
1261.186	0.008	1262172	STOP	n/a	n/a	-999	-999	n/a	n/a	n/a	n/a	11	[-999, -999, -999]	-999	PAL1	2	R1318N
1261.194	0.526	1262180	MATH_END	n/a	n/a	-999	-999	n/a	n/a	n/a	n/a	11	[0, 0, 0]	-999	PAL1	2	R1318N
1261.72	0.001	1262706	RETRIEVAL_START	n/a	n/a	-999	-999	n/a	n/a	n/a	n/a	11	[0, 0, 0]	-999	PAL1	2	R1318N
1261.721	0.273	1262707	ORIENT_START	n/a	n/a	-999	-999	n/a	n/a	n/a	n/a	11	[0, 0, 0]	-999	PAL1	2	R1318N
1261.994	0.749	1262980	ORIENT_END	n/a	n/a	-999	-999	n/a	n/a	n/a	n/a	11	[0, 0, 0]	-999	PAL1	2	R1318N
1262.743	0.001	1263729	REC_START	n/a	n/a	1	1	BUSH	BOY	BOY	BUSH	11	[0, 0, 0]	-999	PAL1	2	R1318N
1262.744	1.943	1263730	PROBE_START	n/a	wordpools/wordpool_EN.txt	1	1	BUSH	BOY	BOY	BUSH	11	[0, 0, 0]	-999	PAL1	2	R1318N
1264.687	2.091	1265673	REC_EVENT	1943	n/a	1	1	BUSH	BOY	BOY	BUSH	11	[0, 0, 0]	-999	PAL1	2	R1318N
1266.778	1.001	1267764	PROBE_END	n/a	n/a	1	1	BUSH	n/a	BOY	BUSH	11	[0, 0, 0]	-999	PAL1	2	R1318N
1267.779	0.007	1268765	REC_END	n/a	n/a	1	1	BUSH	n/a	BOY	BUSH	11	[0, 0, 0]	-999	PAL1	2	R1318N
1267.786	0.276	1268772	ORIENT_START	n/a	n/a	-999	-999	n/a	n/a	n/a	n/a	11	[0, 0, 0]	-999	PAL1	2	R1318N
1268.062	0.643	1269048	ORIENT_END	n/a	n/a	-999	-999	n/a	n/a	n/a	n/a	11	[0, 0, 0]	-999	PAL1	2	R1318N
1268.705	0.0	1269691	REC_START	n/a	n/a	4	2	DESK	BREAD	BREAD	DESK	11	[0, 0, 0]	-999	PAL1	2	R1318N
1268.705	1.846	1269691	PROBE_START	n/a	wordpools/wordpool_EN.txt	4	2	DESK	BREAD	BREAD	DESK	11	[0, 0, 0]	-999	PAL1	2	R1318N
1270.551	2.178	1271537	REC_EVENT	1846	n/a	4	2	DESK	BREAD	BREAD	DESK	11	[0, 0, 0]	-999	PAL1	2	R1318N
1272.729	1.0	1273715	PROBE_END	n/a	n/a	4	2	DESK	n/a	BREAD	DESK	11	[0, 0, 0]	-999	PAL1	2	R1318N
1273.729	0.011	1274715	REC_END	n/a	n/a	4	2	DESK	n/a	BREAD	DESK	11	[0, 0, 0]	-999	PAL1	2	R1318N
1273.74	0.273	1274726	ORIENT_START	n/a	n/a	-999	-999	n/a	n/a	n/a	n/a	11	[0, 0, 0]	-999	PAL1	2	R1318N
1274.013	0.662	1274999	ORIENT_END	n/a	n/a	-999	-999	n/a	n/a	n/a	n/a	11	[0, 0, 0]	-999	PAL1	2	R1318N
1274.675	0.001	1275661	REC_START	n/a	n/a	5	3	ZOO	SNAKE	SNAKE	ZOO	11	[0, 0, 0]	-999	PAL1	2	R1318N
1274.676	1.712	1275662	PROBE_START	n/a	wordpools/wordpool_EN.txt	5	3	ZOO	SNAKE	SNAKE	ZOO	11	[0, 0, 0]	-999	PAL1	2	R1318N
1276.388	2.326	1277374	REC_EVENT	1712	n/a	5	3	ZOO	SNAKE	SNAKE	ZOO	11	[0, 0, 0]	-999	PAL1	2	R1318N
1278.714	0.999	1279700	PROBE_END	n/a	n/a	5	3	ZOO	n/a	SNAKE	ZOO	11	[0, 0, 0]	-999	PAL1	2	R1318N
1279.713	0.012	1280699	REC_END	n/a	n/a	5	3	ZOO	n/a	SNAKE	ZOO	11	[0, 0, 0]	-999	PAL1	2	R1318N
1279.725	0.272	1280711	ORIENT_START	n/a	n/a	-999	-999	n/a	n/a	n/a	n/a	11	[0, 0, 0]	-999	PAL1	2	R1318N
1279.997	0.738	1280983	ORIENT_END	n/a	n/a	-999	-999	n/a	n/a	n/a	n/a	11	[0, 0, 0]	-999	PAL1	2	R1318N
1280.735	0.0	1281720	REC_START	n/a	n/a	2	4	PIE	TOOTH	PIE	TOOTH	11	[0, 0, 0]	-999	PAL1	2	R1318N
1280.735	1.948	1281720	PROBE_START	n/a	wordpools/wordpool_EN.txt	2	4	PIE	TOOTH	PIE	TOOTH	11	[0, 0, 0]	-999	PAL1	2	R1318N
1282.683	2.082	1283668	REC_EVENT	1948	n/a	2	4	PIE	TOOTH	PIE	TOOTH	11	[0, 0, 0]	-999	PAL1	2	R1318N
1284.765	1.0	1285750	PROBE_END	n/a	n/a	2	4	PIE	n/a	PIE	TOOTH	11	[0, 0, 0]	-999	PAL1	2	R1318N
1285.765	0.006	1286750	REC_END	n/a	n/a	2	4	PIE	n/a	PIE	TOOTH	11	[0, 0, 0]	-999	PAL1	2	R1318N
1285.771	0.277	1286756	ORIENT_START	n/a	n/a	-999	-999	n/a	n/a	n/a	n/a	11	[0, 0, 0]	-999	PAL1	2	R1318N
1286.048	0.733	1287033	ORIENT_END	n/a	n/a	-999	-999	n/a	n/a	n/a	n/a	11	[0, 0, 0]	-999	PAL1	2	R1318N
1286.781	0.001	1287766	REC_START	n/a	n/a	3	5	FOOT	OWL	FOOT	OWL	11	[0, 0, 0]	-999	PAL1	2	R1318N
1286.782	2.154	1287767	PROBE_START	n/a	wordpools/wordpool_EN.txt	3	5	FOOT	OWL	FOOT	OWL	11	[0, 0, 0]	-999	PAL1	2	R1318N
1288.936	1.881	1289921	REC_EVENT	2154	n/a	3	5	FOOT	OWL	FOOT	OWL	11	[0, 0, 0]	-999	PAL1	2	R1318N
1290.817	0.999	1291802	PROBE_END	n/a	n/a	3	5	FOOT	n/a	FOOT	OWL	11	[0, 0, 0]	-999	PAL1	2	R1318N
1291.816	0.007	1292801	REC_END	n/a	n/a	3	5	FOOT	n/a	FOOT	OWL	11	[0, 0, 0]	-999	PAL1	2	R1318N
1291.823	0.276	1292808	ORIENT_START	n/a	n/a	-999	-999	n/a	n/a	n/a	n/a	11	[0, 0, 0]	-999	PAL1	2	R1318N
1292.099	0.65	1293084	ORIENT_END	n/a	n/a	-999	-999	n/a	n/a	n/a	n/a	11	[0, 0, 0]	-999	PAL1	2	R1318N
1292.749	0.0	1293734	REC_START	n/a	n/a	6	6	HORSE	SPOON	HORSE	SPOON	11	[0, 0, 0]	-999	PAL1	2	R1318N
1292.749	1.794	1293734	PROBE_START	n/a	wordpools/wordpool_EN.txt	6	6	HORSE	SPOON	HORSE	SPOON	11	[0, 0, 0]	-999	PAL1	2	R1318N
1294.543	2.24	1295528	REC_EVENT	1794	n/a	6	6	HORSE	SPOON	HORSE	SPOON	11	[0, 0, 0]	-999	PAL1	2	R1318N
1296.783	1.001	1297768	PROBE_END	n/a	n/a	6	6	HORSE	n/a	HORSE	SPOON	11	[0, 0, 0]	-999	PAL1	2	R1318N
1297.784	0.012	1298769	REC_END	n/a	n/a	6	6	HORSE	n/a	HORSE	SPOON	11	[0, 0, 0]	-999	PAL1	2	R1318N
1297.796	0.0	1298781	RETRIEVAL_END	n/a	n/a	-999	-999	n/a	n/a	n/a	n/a	11	[0, 0, 0]	-999	PAL1	2	R1318N
1297.796	0.018	1298781	TRIAL_END	n/a	n/a	-999	-999	n/a	n/a	n/a	n/a	11	[0, 0, 0]	-999	PAL1	2	R1318N
1297.814	0.001	1298799	TRIAL_START	n/a	n/a	-999	-999	n/a	n/a	n/a	n/a	11	[0, 0, 0]	-999	PAL1	2	R1318N
1297.815	0.001	1298800	TRIAL	n/a	n/a	-999	-999	n/a	n/a	n/a	n/a	12	[0, 0, 0]	-999	PAL1	2	R1318N
1297.816	2.585	1298801	WAITING_START	n/a	n/a	-999	-999	n/a	n/a	n/a	n/a	12	[0, 0, 0]	-999	PAL1	2	R1318N
1300.401	0.0	1301386	WAITING_END	n/a	n/a	-999	-999	n/a	n/a	n/a	n/a	12	[0, 0, 0]	-999	PAL1	2	R1318N
1300.401	10.428	1301386	COUNTDOWN_START	n/a	n/a	-999	-999	n/a	n/a	n/a	n/a	12	[0, 0, 0]	-999	PAL1	2	R1318N
1310.829	0.001	1311814	COUNTDOWN_END	n/a	n/a	-999	-999	n/a	n/a	n/a	n/a	12	[0, 0, 0]	-999	PAL1	2	R1318N
1310.83	0.522	1311815	ORIENT_START	n/a	n/a	-999	-999	n/a	n/a	n/a	n/a	12	[0, 0, 0]	-999	PAL1	2	R1318N
1311.352	0.001	1312337	ORIENT_END	n/a	n/a	-999	-999	n/a	n/a	n/a	n/a	12	[0, 0, 0]	-999	PAL1	2	R1318N
1311.353	1.137	1312338	ENCODING_START	n/a	n/a	-999	-999	n/a	n/a	n/a	n/a	12	[0, 0, 0]	-999	PAL1	2	R1318N
1312.49	4.031	1313475	STUDY_PAIR	n/a	wordpools/wordpool_EN.txt	1	-999	n/a	MAZE	DRESS	MAZE	12	[0, 0, 0]	-999	PAL1	2	R1318N
1316.521	0.632	1317505	STUDY_PAIR_OFF	n/a	n/a	1	-999	n/a	MAZE	DRESS	MAZE	12	[0, 0, 0]	-999	PAL1	2	R1318N
1317.153	4.034	1318137	STUDY_PAIR	n/a	wordpools/wordpool_EN.txt	2	-999	n/a	PHONE	PHONE	CLOUD	12	[0, 0, 0]	-999	PAL1	2	R1318N
1321.187	0.737	1322171	STUDY_PAIR_OFF	n/a	n/a	2	-999	n/a	PHONE	PHONE	CLOUD	12	[0, 0, 0]	-999	PAL1	2	R1318N
1321.924	4.032	1322908	STUDY_PAIR	n/a	wordpools/wordpool_EN.txt	3	-999	n/a	CHEEK	NEST	CHEEK	12	[0, 0, 0]	-999	PAL1	2	R1318N
1325.956	0.6	1326940	STUDY_PAIR_OFF	n/a	n/a	3	-999	n/a	CHEEK	NEST	CHEEK	12	[0, 0, 0]	-999	PAL1	2	R1318N
1326.556	4.033	1327540	STUDY_PAIR	n/a	wordpools/wordpool_EN.txt	4	-999	n/a	CORD	CORD	KITE	12	[0, 0, 0]	-999	PAL1	2	R1318N
1330.589	0.711	1331573	STUDY_PAIR_OFF	n/a	n/a	4	-999	n/a	CORD	CORD	KITE	12	[0, 0, 0]	-999	PAL1	2	R1318N
1331.3	4.04	1332284	STUDY_PAIR	n/a	wordpools/wordpool_EN.txt	5	-999	n/a	CAKE	WOLF	CAKE	12	[0, 0, 0]	-999	PAL1	2	R1318N
1335.34	0.655	1336324	STUDY_PAIR_OFF	n/a	n/a	5	-999	n/a	CAKE	WOLF	CAKE	12	[0, 0, 0]	-999	PAL1	2	R1318N
1335.995	4.029	1336979	STUDY_PAIR	n/a	wordpools/wordpool_EN.txt	6	-999	n/a	THUMB	THUMB	NAIL	12	[0, 0, 0]	-999	PAL1	2	R1318N
1340.024	0.0	1341008	STUDY_PAIR_OFF	n/a	n/a	6	-999	n/a	THUMB	THUMB	NAIL	12	[0, 0, 0]	-999	PAL1	2	R1318N
1340.024	0.0	1341008	ENCODING_END	n/a	n/a	-999	-999	n/a	n/a	n/a	n/a	12	[0, 0, 0]	-999	PAL1	2	R1318N
1340.024	0.001	1341008	MATH_START	n/a	n/a	-999	-999	n/a	n/a	n/a	n/a	12	[0, 0, 0]	-999	PAL1	2	R1318N
1340.025	0.015	1341009	START	n/a	n/a	-999	-999	n/a	n/a	n/a	n/a	12	[-999, -999, -999]	-999	PAL1	2	R1318N
1340.04	3.601	1341024	PROB	3562	n/a	-999	-999	n/a	n/a	n/a	n/a	12	[9, 9, 1]	19	PAL1	2	R1318N
1343.641	3.584	1344625	PROB	3546	n/a	-999	-999	n/a	n/a	n/a	n/a	12	[5, 2, 8]	15	PAL1	2	R1318N
1347.225	4.2	1348209	PROB	4177	n/a	-999	-999	n/a	n/a	n/a	n/a	12	[7, 4, 8]	19	PAL1	2	R1318N
1351.425	5.101	1352408	PROB	5074	n/a	-999	-999	n/a	n/a	n/a	n/a	12	[6, 7, 2]	15	PAL1	2	R1318N
1356.526	2.634	1357509	PROB	2597	n/a	-999	-999	n/a	n/a	n/a	n/a	12	[4, 6, 1]	11	PAL1	2	R1318N
1359.16	2.41	1360143	PROB	2410	n/a	-999	-999	n/a	n/a	n/a	n/a	12	[7, 1, 3]	11	PAL1	2	R1318N
1361.57	0.007	1362553	STOP	n/a	n/a	-999	-999	n/a	n/a	n/a	n/a	12	[-999, -999, -999]	-999	PAL1	2	R1318N
1361.577	0.532	1362560	MATH_END	n/a	n/a	-999	-999	n/a	n/a	n/a	n/a	12	[0, 0, 0]	-999	PAL1	2	R1318N
1362.109	0.001	1363092	RETRIEVAL_START	n/a	n/a	-999	-999	n/a	n/a	n/a	n/a	12	[0, 0, 0]	-999	PAL1	2	R1318N
1362.11	0.284	1363093	ORIENT_START	n/a	n/a	-999	-999	n/a	n/a	n/a	n/a	12	[0, 0, 0]	-999	PAL1	2	R1318N
1362.394	0.609	1363377	ORIENT_END	n/a	n/a	-999	-999	n/a	n/a	n/a	n/a	12	[0, 0, 0]	-999	PAL1	2	R1318N
1363.003	0.0	1363986	REC_START	n/a	n/a	3	1	NEST	CHEEK	NEST	CHEEK	12	[0, 0, 0]	-999	PAL1	2	R1318N
1363.003	1.826	1363986	PROBE_START	n/a	wordpools/wordpool_EN.txt	3	1	NEST	CHEEK	NEST	CHEEK	12	[0, 0, 0]	-999	PAL1	2	R1318N
1364.829	2.199	1365812	REC_EVENT	1826	n/a	3	1	NEST	CHEEK	NEST	CHEEK	12	[0, 0, 0]	-999	PAL1	2	R1318N
1367.028	1.0	1368011	PROBE_END	n/a	n/a	3	1	NEST	n/a	NEST	CHEEK	12	[0, 0, 0]	-999	PAL1	2	R1318N
1368.028	0.011	1369011	REC_END	n/a	n/a	3	1	NEST	n/a	NEST	CHEEK	12	[0, 0, 0]	-999	PAL1	2	R1318N
1368.039	0.273	1369022	ORIENT_START	n/a	n/a	-999	-999	n/a	n/a	n/a	n/a	12	[0, 0, 0]	-999	PAL1	2	R1318N
1368.312	0.523	1369295	ORIENT_END	n/a	n/a	-999	-999	n/a	n/a	n/a	n/a	12	[0, 0, 0]	-999	PAL1	2	R1318N
1368.835	0.0	1369818	REC_START	n/a	n/a	4	2	KITE	CORD	CORD	KITE	12	[0, 0, 0]	-999	PAL1	2	R1318N
1368.835	1.52	1369818	PROBE_START	n/a	wordpools/wordpool_EN.txt	4	2	KITE	CORD	CORD	KITE	12	[0, 0, 0]	-999	PAL1	2	R1318N
1370.355	2.508	1371338	REC_EVENT	1520	n/a	4	2	KITE	CORD	CORD	KITE	12	[0, 0, 0]	-999	PAL1	2	R1318N
1372.863	1.0	1373846	PROBE_END	n/a	n/a	4	2	KITE	n/a	CORD	KITE	12	[0, 0, 0]	-999	PAL1	2	R1318N
1373.863	0.01	1374846	REC_END	n/a	n/a	4	2	KITE	n/a	CORD	KITE	12	[0, 0, 0]	-999	PAL1	2	R1318N
1373.873	0.273	1374856	ORIENT_START	n/a	n/a	-999	-999	n/a	n/a	n/a	n/a	12	[0, 0, 0]	-999	PAL1	2	R1318N
1374.146	0.509	1375129	ORIENT_END	n/a	n/a	-999	-999	n/a	n/a	n/a	n/a	12	[0, 0, 0]	-999	PAL1	2	R1318N
1374.655	0.0	1375638	REC_START	n/a	n/a	1	3	DRESS	MAZE	DRESS	MAZE	12	[0, 0, 0]	-999	PAL1	2	R1318N
1374.655	1.795	1375638	PROBE_START	n/a	wordpools/wordpool_EN.txt	1	3	DRESS	MAZE	DRESS	MAZE	12	[0, 0, 0]	-999	PAL1	2	R1318N
1376.45	2.23	1377433	REC_EVENT	1795	n/a	1	3	DRESS	MAZE	DRESS	MAZE	12	[0, 0, 0]	-999	PAL1	2	R1318N
1378.68	1.0	1379663	PROBE_END	n/a	n/a	1	3	DRESS	n/a	DRESS	MAZE	12	[0, 0, 0]	-999	PAL1	2	R1318N
1379.68	0.012	1380663	REC_END	n/a	n/a	1	3	DRESS	n/a	DRESS	MAZE	12	[0, 0, 0]	-999	PAL1	2	R1318N
1379.692	0.273	1380675	ORIENT_START	n/a	n/a	-999	-999	n/a	n/a	n/a	n/a	12	[0, 0, 0]	-999	PAL1	2	R1318N
1379.965	0.515	1380948	ORIENT_END	n/a	n/a	-999	-999	n/a	n/a	n/a	n/a	12	[0, 0, 0]	-999	PAL1	2	R1318N
1380.48	0.0	1381463	REC_START	n/a	n/a	2	4	CLOUD	PHONE	PHONE	CLOUD	12	[0, 0, 0]	-999	PAL1	2	R1318N
1380.48	1.711	1381463	PROBE_START	n/a	wordpools/wordpool_EN.txt	2	4	CLOUD	PHONE	PHONE	CLOUD	12	[0, 0, 0]	-999	PAL1	2	R1318N
1382.191	2.323	1383174	REC_EVENT	1711	n/a	2	4	CLOUD	PHONE	PHONE	CLOUD	12	[0, 0, 0]	-999	PAL1	2	R1318N
1384.514	1.0	1385497	PROBE_END	n/a	n/a	2	4	CLOUD	n/a	PHONE	CLOUD	12	[0, 0, 0]	-999	PAL1	2	R1318N
1385.514	0.01	1386496	REC_END	n/a	n/a	2	4	CLOUD	n/a	PHONE	CLOUD	12	[0, 0, 0]	-999	PAL1	2	R1318N
1385.524	0.274	1386506	ORIENT_START	n/a	n/a	-999	-999	n/a	n/a	n/a	n/a	12	[0, 0, 0]	-999	PAL1	2	R1318N
1385.798	0.708	1386780	ORIENT_END	n/a	n/a	-999	-999	n/a	n/a	n/a	n/a	12	[0, 0, 0]	-999	PAL1	2	R1318N
1386.506	0.0	1387488	REC_START	n/a	n/a	5	5	WOLF	CAKE	WOLF	CAKE	12	[0, 0, 0]	-999	PAL1	2	R1318N
1386.506	1.817	1387488	PROBE_START	n/a	wordpools/wordpool_EN.txt	5	5	WOLF	CAKE	WOLF	CAKE	12	[0, 0, 0]	-999	PAL1	2	R1318N
1388.323	2.209	1389305	REC_EVENT	1817	n/a	5	5	WOLF	CAKE	WOLF	CAKE	12	[0, 0, 0]	-999	PAL1	2	R1318N
1390.532	1.001	1391514	PROBE_END	n/a	n/a	5	5	WOLF	n/a	WOLF	CAKE	12	[0, 0, 0]	-999	PAL1	2	R1318N
1391.533	0.011	1392515	REC_END	n/a	n/a	5	5	WOLF	n/a	WOLF	CAKE	12	[0, 0, 0]	-999	PAL1	2	R1318N
1391.544	0.273	1392526	ORIENT_START	n/a	n/a	-999	-999	n/a	n/a	n/a	n/a	12	[0, 0, 0]	-999	PAL1	2	R1318N
1391.817	0.57	1392799	ORIENT_END	n/a	n/a	-999	-999	n/a	n/a	n/a	n/a	12	[0, 0, 0]	-999	PAL1	2	R1318N
1392.387	0.0	1393369	REC_START	n/a	n/a	6	6	NAIL	THUMB	THUMB	NAIL	12	[0, 0, 0]	-999	PAL1	2	R1318N
1392.387	2.016	1393369	PROBE_START	n/a	wordpools/wordpool_EN.txt	6	6	NAIL	THUMB	THUMB	NAIL	12	[0, 0, 0]	-999	PAL1	2	R1318N
1394.403	2.013	1395385	REC_EVENT	2016	n/a	6	6	NAIL	THUMB	THUMB	NAIL	12	[0, 0, 0]	-999	PAL1	2	R1318N
1396.416	1.0	1397398	PROBE_END	n/a	n/a	6	6	NAIL	n/a	THUMB	NAIL	12	[0, 0, 0]	-999	PAL1	2	R1318N
