onset	duration	sample	trial_type	response_time	serialpos	probepos	probe_word	resp_word	study_1	study_2	list	test	answer	experiment	session	subject
0.0	0.0	5627	INSTRUCT_VIDEO_ON	n/a	-999	-999	n/a	n/a	n/a	n/a	-999	[0, 0, 0]	-999	PAL1	0	R1228M
0.0	5.55	5627	INSTRUCT_VIDEO_OFF	n/a	-999	-999	n/a	n/a	n/a	n/a	-999	[0, 0, 0]	-999	PAL1	0	R1228M
5.55	0.0	11177	SESS_START	n/a	-999	-999	n/a	n/a	n/a	n/a	-999	[0, 0, 0]	-999	PAL1	0	R1228M
5.55	105.18	11177	MIC_TEST	n/a	-999	-999	n/a	n/a	n/a	n/a	-999	[0, 0, 0]	-999	PAL1	0	R1228M
110.73	13.504	116351	PRACTICE_TRIAL	n/a	-999	-999	n/a	n/a	n/a	n/a	-1	[0, 0, 0]	-999	PAL1	0	R1228M
124.234	0.006	129854	ENCODING_START	n/a	-999	-999	n/a	n/a	n/a	n/a	-1	[0, 0, 0]	-999	PAL1	0	R1228M
124.24	0.267	129860	PRACTICE_ORIENT	n/a	1	5	IRON	n/a	IRON	RHINO	-1	[0, 0, 0]	-999	PAL1	0	R1228M
124.507	0.65	130127	PRACTICE_ORIENT_OFF	n/a	1	5	IRON	n/a	IRON	RHINO	-1	[0, 0, 0]	-999	PAL1	0	R1228M
125.157	4.001	130777	PRACTICE_PAIR	n/a	1	5	IRON	n/a	IRON	RHINO	-1	[0, 0, 0]	-999	PAL1	0	R1228M
129.158	1.017	134778	PRACTICE_PAIR_OFF	n/a	1	5	IRON	n/a	IRON	RHINO	-1	[0, 0, 0]	-999	PAL1	0	R1228M
130.175	0.266	135795	PRACTICE_ORIENT	n/a	2	2	CHEST	n/a	CHEST	FLOOD	-1	[0, 0, 0]	-999	PAL1	0	R1228M
130.441	0.751	136061	PRACTICE_ORIENT_OFF	n/a	2	2	CHEST	n/a	CHEST	FLOOD	-1	[0, 0, 0]	-999	PAL1	0	R1228M
131.192	4.017	136812	PRACTICE_PAIR	n/a	2	2	CHEST	n/a	CHEST	FLOOD	-1	[0, 0, 0]	-999	PAL1	0	R1228M
135.209	1.017	140829	PRACTICE_PAIR_OFF	n/a	2	2	CHEST	n/a	CHEST	FLOOD	-1	[0, 0, 0]	-999	PAL1	0	R1228M
136.226	0.267	141845	PRACTICE_ORIENT	n/a	3	1	ATTIC	n/a	WATCH	ATTIC	-1	[0, 0, 0]	-999	PAL1	0	R1228M
136.493	0.6	142112	PRACTICE_ORIENT_OFF	n/a	3	1	ATTIC	n/a	WATCH	ATTIC	-1	[0, 0, 0]	-999	PAL1	0	R1228M
137.093	4.017	142712	PRACTICE_PAIR	n/a	3	1	ATTIC	n/a	WATCH	ATTIC	-1	[0, 0, 0]	-999	PAL1	0	R1228M
141.11	1.017	146729	PRACTICE_PAIR_OFF	n/a	3	1	ATTIC	n/a	WATCH	ATTIC	-1	[0, 0, 0]	-999	PAL1	0	R1228M
142.127	0.266	147746	PRACTICE_ORIENT	n/a	4	4	TONGUE	n/a	COTTON	TONGUE	-1	[0, 0, 0]	-999	PAL1	0	R1228M
142.393	0.685	148012	PRACTICE_ORIENT_OFF	n/a	4	4	TONGUE	n/a	COTTON	TONGUE	-1	[0, 0, 0]	-999	PAL1	0	R1228M
143.078	4.017	148697	PRACTICE_PAIR	n/a	4	4	TONGUE	n/a	COTTON	TONGUE	-1	[0, 0, 0]	-999	PAL1	0	R1228M
147.095	1.017	152714	PRACTICE_PAIR_OFF	n/a	4	4	TONGUE	n/a	COTTON	TONGUE	-1	[0, 0, 0]	-999	PAL1	0	R1228M
148.112	0.266	153731	PRACTICE_ORIENT	n/a	5	3	CAMEL	n/a	RING	CAMEL	-1	[0, 0, 0]	-999	PAL1	0	R1228M
148.378	0.617	153997	PRACTICE_ORIENT_OFF	n/a	5	3	CAMEL	n/a	RING	CAMEL	-1	[0, 0, 0]	-999	PAL1	0	R1228M
148.995	4.001	154614	PRACTICE_PAIR	n/a	5	3	CAMEL	n/a	RING	CAMEL	-1	[0, 0, 0]	-999	PAL1	0	R1228M
152.996	1.017	158615	PRACTICE_PAIR_OFF	n/a	5	3	CAMEL	n/a	RING	CAMEL	-1	[0, 0, 0]	-999	PAL1	0	R1228M
154.013	0.267	159631	PRACTICE_ORIENT	n/a	6	6	WAGON	n/a	WAGON	BEAM	-1	[0, 0, 0]	-999	PAL1	0	R1228M
154.28	0.516	159898	PRACTICE_ORIENT_OFF	n/a	6	6	WAGON	n/a	WAGON	BEAM	-1	[0, 0, 0]	-999	PAL1	0	R1228M
154.796	4.018	160414	PRACTICE_PAIR	n/a	6	6	WAGON	n/a	WAGON	BEAM	-1	[0, 0, 0]	-999	PAL1	0	R1228M
158.814	1.001	164432	PRACTICE_PAIR_OFF	n/a	6	6	WAGON	n/a	WAGON	BEAM	-1	[0, 0, 0]	-999	PAL1	0	R1228M
159.815	0.0	165433	ENCODING_END	n/a	-999	-999	n/a	n/a	n/a	n/a	-1	[0, 0, 0]	-999	PAL1	0	R1228M
159.815	0.001	165433	MATH_START	n/a	-999	-999	n/a	n/a	n/a	n/a	-1	[0, 0, 0]	-999	PAL1	0	R1228M
159.816	0.015	165434	START	n/a	-999	-999	n/a	n/a	n/a	n/a	-1	[-999, -999, -999]	-999	PAL1	0	R1228M
159.831	5.351	165449	PROB	5319	-999	-999	n/a	n/a	n/a	n/a	-1	[8, 4, 4]	16	PAL1	0	R1228M
165.182	3.801	170800	PROB	3768	-999	-999	n/a	n/a	n/a	n/a	-1	[6, 6, 4]	16	PAL1	0	R1228M
168.983	5.167	174601	PROB	5135	-999	-999	n/a	n/a	n/a	n/a	-1	[7, 8, 9]	24	PAL1	0	R1228M
174.15	2.751	179767	PROB	2729	-999	-999	n/a	n/a	n/a	n/a	-1	[8, 2, 5]	15	PAL1	0	R1228M
176.901	2.449	182518	PROB	2424	-999	-999	n/a	n/a	n/a	n/a	-1	[8, 6, 4]	18	PAL1	0	R1228M
179.35	2.632	184967	PROB	2632	-999	-999	n/a	n/a	n/a	n/a	-1	[8, 3, 7]	18	PAL1	0	R1228M
181.982	0.02	187599	STOP	n/a	-999	-999	n/a	n/a	n/a	n/a	-1	[-999, -999, -999]	-999	PAL1	0	R1228M
182.002	0.0	187619	MATH_END	n/a	-999	-999	n/a	n/a	n/a	n/a	-1	[0, 0, 0]	-999	PAL1	0	R1228M
182.002	0.016	187619	RECALL_START	n/a	-999	-999	n/a	n/a	n/a	n/a	-1	[0, 0, 0]	-999	PAL1	0	R1228M
182.018	0.267	187635	PRACTICE_RETRIEVAL_ORIENT	n/a	3	1	ATTIC	n/a	WATCH	ATTIC	-1	[0, 0, 0]	-999	PAL1	0	R1228M
182.285	0.65	187902	PRACTICE_RETRIEVAL_ORIENT_OFF	n/a	3	1	ATTIC	n/a	WATCH	ATTIC	-1	[0, 0, 0]	-999	PAL1	0	R1228M
182.935	0.005	188552	PRACTICE_PROBE	n/a	3	1	ATTIC	n/a	WATCH	ATTIC	-1	[0, 0, 0]	-999	PAL1	0	R1228M
182.94	1.346	188557	REC_START	n/a	3	-999	n/a	n/a	n/a	n/a	-1	[0, 0, 0]	-999	PAL1	0	R1228M
184.286	2.667	189903	REC_EVENT	1346	3	1	ATTIC	<>	WATCH	ATTIC	-1	[0, 0, 0]	-999	PAL1	0	R1228M
186.953	1.011	192570	PROBE_OFF	n/a	3	-999	n/a	n/a	n/a	n/a	-1	[0, 0, 0]	-999	PAL1	0	R1228M
187.964	0.022	193581	REC_END	n/a	3	-999	n/a	n/a	n/a	n/a	-1	[0, 0, 0]	-999	PAL1	0	R1228M
187.986	0.267	193603	PRACTICE_RETRIEVAL_ORIENT	n/a	2	2	CHEST	n/a	CHEST	FLOOD	-1	[0, 0, 0]	-999	PAL1	0	R1228M
188.253	0.533	193870	PRACTICE_RETRIEVAL_ORIENT_OFF	n/a	2	2	CHEST	n/a	CHEST	FLOOD	-1	[0, 0, 0]	-999	PAL1	0	R1228M
188.786	0.001	194403	PRACTICE_PROBE	n/a	2	2	CHEST	n/a	CHEST	FLOOD	-1	[0, 0, 0]	-999	PAL1	0	R1228M
188.787	1.16	194404	REC_START	n/a	2	-999	n/a	n/a	n/a	n/a	-1	[0, 0, 0]	-999	PAL1	0	R1228M
189.947	2.857	195563	REC_EVENT	1160	2	2	CHEST	<>	CHEST	FLOOD	-1	[0, 0, 0]	-999	PAL1	0	R1228M
192.804	1.01	198420	PROBE_OFF	n/a	2	-999	n/a	n/a	n/a	n/a	-1	[0, 0, 0]	-999	PAL1	0	R1228M
193.814	0.006	199430	REC_END	n/a	2	-999	n/a	n/a	n/a	n/a	-1	[0, 0, 0]	-999	PAL1	0	R1228M
193.82	0.267	199436	PRACTICE_RETRIEVAL_ORIENT	n/a	5	3	CAMEL	n/a	RING	CAMEL	-1	[0, 0, 0]	-999	PAL1	0	R1228M
194.087	0.684	199703	PRACTICE_RETRIEVAL_ORIENT_OFF	n/a	5	3	CAMEL	n/a	RING	CAMEL	-1	[0, 0, 0]	-999	PAL1	0	R1228M
194.771	0.0	200387	PRACTICE_PROBE	n/a	5	3	CAMEL	n/a	RING	CAMEL	-1	[0, 0, 0]	-999	PAL1	0	R1228M
194.771	4.017	200387	REC_START	n/a	5	-999	n/a	n/a	n/a	n/a	-1	[0, 0, 0]	-999	PAL1	0	R1228M
198.788	0.673	204404	PROBE_OFF	n/a	5	-999	n/a	n/a	n/a	n/a	-1	[0, 0, 0]	-999	PAL1	0	R1228M
199.461	0.328	205077	REC_EVENT	4690	5	3	CAMEL	<>	RING	CAMEL	-1	[0, 0, 0]	-999	PAL1	0	R1228M
199.789	0.016	205405	REC_END	n/a	5	-999	n/a	n/a	n/a	n/a	-1	[0, 0, 0]	-999	PAL1	0	R1228M
199.805	0.267	205421	PRACTICE_RETRIEVAL_ORIENT	n/a	4	4	TONGUE	n/a	COTTON	TONGUE	-1	[0, 0, 0]	-999	PAL1	0	R1228M
200.072	0.533	205688	PRACTICE_RETRIEVAL_ORIENT_OFF	n/a	4	4	TONGUE	n/a	COTTON	TONGUE	-1	[0, 0, 0]	-999	PAL1	0	R1228M
200.605	0.001	206221	PRACTICE_PROBE	n/a	4	4	TONGUE	n/a	COTTON	TONGUE	-1	[0, 0, 0]	-999	PAL1	0	R1228M
200.606	4.017	206222	REC_START	n/a	4	-999	n/a	n/a	n/a	n/a	-1	[0, 0, 0]	-999	PAL1	0	R1228M
204.623	0.278	210239	PROBE_OFF	n/a	4	-999	n/a	n/a	n/a	n/a	-1	[0, 0, 0]	-999	PAL1	0	R1228M
204.901	0.722	210517	REC_EVENT	4295	4	4	TONGUE	<>	COTTON	TONGUE	-1	[0, 0, 0]	-999	PAL1	0	R1228M
205.623	0.017	211239	REC_END	n/a	4	-999	n/a	n/a	n/a	n/a	-1	[0, 0, 0]	-999	PAL1	0	R1228M
205.64	0.266	211256	PRACTICE_RETRIEVAL_ORIENT	n/a	1	5	IRON	n/a	IRON	RHINO	-1	[0, 0, 0]	-999	PAL1	0	R1228M
205.906	0.567	211522	PRACTICE_RETRIEVAL_ORIENT_OFF	n/a	1	5	IRON	n/a	IRON	RHINO	-1	[0, 0, 0]	-999	PAL1	0	R1228M
206.473	0.001	212089	PRACTICE_PROBE	n/a	1	5	IRON	n/a	IRON	RHINO	-1	[0, 0, 0]	-999	PAL1	0	R1228M
206.474	3.784	212090	REC_START	n/a	1	-999	n/a	n/a	n/a	n/a	-1	[0, 0, 0]	-999	PAL1	0	R1228M
210.258	0.233	215873	REC_EVENT	3784	1	5	IRON	<>	IRON	RHINO	-1	[0, 0, 0]	-999	PAL1	0	R1228M
210.491	1.0	216106	PROBE_OFF	n/a	1	-999	n/a	n/a	n/a	n/a	-1	[0, 0, 0]	-999	PAL1	0	R1228M
211.491	0.016	217106	REC_END	n/a	1	-999	n/a	n/a	n/a	n/a	-1	[0, 0, 0]	-999	PAL1	0	R1228M
211.507	0.267	217122	PRACTICE_RETRIEVAL_ORIENT	n/a	6	6	WAGON	n/a	WAGON	BEAM	-1	[0, 0, 0]	-999	PAL1	0	R1228M
211.774	0.599	217389	PRACTICE_RETRIEVAL_ORIENT_OFF	n/a	4	6	WAGON	n/a	WAGON	BEAM	-1	[0, 0, 0]	-999	PAL1	0	R1228M
212.373	0.001	217988	PRACTICE_PROBE	n/a	6	6	WAGON	n/a	WAGON	BEAM	-1	[0, 0, 0]	-999	PAL1	0	R1228M
212.374	1.044	217989	REC_START	n/a	6	-999	n/a	n/a	n/a	n/a	-1	[0, 0, 0]	-999	PAL1	0	R1228M
213.418	2.956	219033	REC_EVENT	1044	6	6	WAGON	<>	WAGON	BEAM	-1	[0, 0, 0]	-999	PAL1	0	R1228M
216.374	1.0	221989	PROBE_OFF	n/a	6	-999	n/a	n/a	n/a	n/a	-1	[0, 0, 0]	-999	PAL1	0	R1228M
217.374	0.011	222989	REC_END	n/a	6	-999	n/a	n/a	n/a	n/a	-1	[0, 0, 0]	-999	PAL1	0	R1228M
217.385	30.83	223000	RECALL_END	n/a	-999	-999	n/a	n/a	n/a	n/a	-1	[0, 0, 0]	-999	PAL1	0	R1228M
248.215	10.929	253828	TRIAL	n/a	-999	-999	n/a	n/a	n/a	n/a	1	[0, 0, 0]	-999	PAL1	0	R1228M
259.144	0.006	264757	ENCODING_START	n/a	-999	-999	n/a	n/a	n/a	n/a	1	[0, 0, 0]	-999	PAL1	0	R1228M
259.15	0.266	264763	STUDY_ORIENT	n/a	1	1	TOOTH	n/a	TOOTH	GOLD	1	[0, 0, 0]	-999	PAL1	0	R1228M
259.416	0.584	265029	STUDY_ORIENT_OFF	n/a	1	1	TOOTH	n/a	TOOTH	GOLD	1	[0, 0, 0]	-999	PAL1	0	R1228M
260.0	4.018	265613	STUDY_PAIR	n/a	1	1	TOOTH	n/a	TOOTH	GOLD	1	[0, 0, 0]	-999	PAL1	0	R1228M
264.018	1.016	269630	PAIR_OFF	n/a	1	1	TOOTH	n/a	TOOTH	GOLD	1	[0, 0, 0]	-999	PAL1	0	R1228M
265.034	0.267	270646	STUDY_ORIENT	n/a	2	2	SPARK	n/a	SPARK	MOOSE	1	[0, 0, 0]	-999	PAL1	0	R1228M
265.301	0.7	270913	STUDY_ORIENT_OFF	n/a	2	2	SPARK	n/a	SPARK	MOOSE	1	[0, 0, 0]	-999	PAL1	0	R1228M
266.001	4.018	271613	STUDY_PAIR	n/a	2	2	SPARK	n/a	SPARK	MOOSE	1	[0, 0, 0]	-999	PAL1	0	R1228M
270.019	1.017	275631	PAIR_OFF	n/a	2	2	SPARK	n/a	SPARK	MOOSE	1	[0, 0, 0]	-999	PAL1	0	R1228M
271.036	0.266	276648	STUDY_ORIENT	n/a	3	5	PIE	n/a	PIE	STAIR	1	[0, 0, 0]	-999	PAL1	0	R1228M
271.302	0.534	276914	STUDY_ORIENT_OFF	n/a	3	5	PIE	n/a	PIE	STAIR	1	[0, 0, 0]	-999	PAL1	0	R1228M
271.836	4.017	277448	STUDY_PAIR	n/a	3	5	PIE	n/a	PIE	STAIR	1	[0, 0, 0]	-999	PAL1	0	R1228M
275.853	1.017	281465	PAIR_OFF	n/a	3	5	PIE	n/a	PIE	STAIR	1	[0, 0, 0]	-999	PAL1	0	R1228M
276.87	0.267	282482	STUDY_ORIENT	n/a	4	4	SHELL	SIGN	SHELL	SIGN	1	[0, 0, 0]	-999	PAL1	0	R1228M
277.137	0.7	282749	STUDY_ORIENT_OFF	n/a	4	4	SHELL	SIGN	SHELL	SIGN	1	[0, 0, 0]	-999	PAL1	0	R1228M
277.837	4.017	283448	STUDY_PAIR	n/a	4	4	SHELL	SIGN	SHELL	SIGN	1	[0, 0, 0]	-999	PAL1	0	R1228M
281.854	1.017	287465	PAIR_OFF	n/a	4	4	SHELL	SIGN	SHELL	SIGN	1	[0, 0, 0]	-999	PAL1	0	R1228M
282.871	0.267	288482	STUDY_ORIENT	n/a	5	3	SINK	n/a	STORE	SINK	1	[0, 0, 0]	-999	PAL1	0	R1228M
283.138	0.633	288749	STUDY_ORIENT_OFF	n/a	5	3	SINK	n/a	STORE	SINK	1	[0, 0, 0]	-999	PAL1	0	R1228M
283.771	4.018	289382	STUDY_PAIR	n/a	5	3	SINK	n/a	STORE	SINK	1	[0, 0, 0]	-999	PAL1	0	R1228M
287.789	1.017	293400	PAIR_OFF	n/a	5	3	SINK	n/a	STORE	SINK	1	[0, 0, 0]	-999	PAL1	0	R1228M
288.806	0.267	294417	STUDY_ORIENT	n/a	6	6	CHIN	n/a	CHIN	CASH	1	[0, 0, 0]	-999	PAL1	0	R1228M
289.073	0.533	294684	STUDY_ORIENT_OFF	n/a	6	6	CHIN	n/a	CHIN	CASH	1	[0, 0, 0]	-999	PAL1	0	R1228M
289.606	4.017	295217	STUDY_PAIR	n/a	6	6	CHIN	n/a	CHIN	CASH	1	[0, 0, 0]	-999	PAL1	0	R1228M
293.623	1.0	299234	PAIR_OFF	n/a	6	6	CHIN	n/a	CHIN	CASH	1	[0, 0, 0]	-999	PAL1	0	R1228M
294.623	0.0	300234	ENCODING_END	n/a	-999	-999	n/a	n/a	n/a	n/a	1	[0, 0, 0]	-999	PAL1	0	R1228M
294.623	0.001	300234	MATH_START	n/a	-999	-999	n/a	n/a	n/a	n/a	1	[0, 0, 0]	-999	PAL1	0	R1228M
294.624	0.016	300235	START	n/a	-999	-999	n/a	n/a	n/a	n/a	1	[-999, -999, -999]	-999	PAL1	0	R1228M
294.64	6.168	300251	PROB	6134	-999	-999	n/a	n/a	n/a	n/a	1	[6, 2, 5]	13	PAL1	0	R1228M
300.808	3.784	306418	PROB	3750	-999	-999	n/a	n/a	n/a	n/a	1	[1, 8, 1]	10	PAL1	0	R1228M
304.592	2.551	310202	PROB	2518	-999	-999	n/a	n/a	n/a	n/a	1	[2, 2, 7]	11	PAL1	0	R1228M
307.143	7.879	312753	PROB	7879	-999	-999	n/a	n/a	n/a	n/a	1	[7, 8, 8]	23	PAL1	0	R1228M
315.022	0.005	320631	STOP	n/a	-999	-999	n/a	n/a	n/a	n/a	1	[-999, -999, -999]	-999	PAL1	0	R1228M
315.027	0.0	320636	MATH_END	n/a	-999	-999	n/a	n/a	n/a	n/a	1	[0, 0, 0]	-999	PAL1	0	R1228M
315.027	0.017	320636	RECALL_START	n/a	-999	-999	n/a	n/a	n/a	n/a	1	[0, 0, 0]	-999	PAL1	0	R1228M
315.044	0.267	320653	TEST_ORIENT	n/a	1	1	TOOTH	n/a	TOOTH	GOLD	1	[0, 0, 0]	-999	PAL1	0	R1228M
315.311	0.7	320920	RETRIEVAL_ORIENT_OFF	n/a	-999	-999	n/a	n/a	n/a	n/a	1	[0, 0, 0]	-999	PAL1	0	R1228M
316.011	0.0	321620	TEST_PROBE	n/a	1	1	TOOTH	n/a	TOOTH	GOLD	1	[0, 0, 0]	-999	PAL1	0	R1228M
316.011	3.065	321620	REC_START	n/a	1	-999	n/a	n/a	n/a	n/a	1	[0, 0, 0]	-999	PAL1	0	R1228M
319.076	0.952	324685	REC_EVENT	3065	1	1	TOOTH	<>	TOOTH	GOLD	1	[0, 0, 0]	-999	PAL1	0	R1228M
320.028	1.0	325637	PROBE_OFF	n/a	1	-999	n/a	n/a	n/a	n/a	1	[0, 0, 0]	-999	PAL1	0	R1228M
321.028	0.017	326637	REC_END	n/a	1	-999	n/a	n/a	n/a	n/a	1	[0, 0, 0]	-999	PAL1	0	R1228M
321.045	0.267	326654	TEST_ORIENT	n/a	2	2	SPARK	n/a	SPARK	MOOSE	1	[0, 0, 0]	-999	PAL1	0	R1228M
321.312	0.667	326921	RETRIEVAL_ORIENT_OFF	n/a	1	-999	n/a	n/a	n/a	n/a	1	[0, 0, 0]	-999	PAL1	0	R1228M
321.979	0.0	327588	TEST_PROBE	n/a	2	2	SPARK	n/a	SPARK	MOOSE	1	[0, 0, 0]	-999	PAL1	0	R1228M
321.979	2.94	327588	REC_START	n/a	2	-999	n/a	n/a	n/a	n/a	1	[0, 0, 0]	-999	PAL1	0	R1228M
324.919	1.077	330528	REC_EVENT	2940	2	2	SPARK	<>	SPARK	MOOSE	1	[0, 0, 0]	-999	PAL1	0	R1228M
325.996	1.0	331605	PROBE_OFF	n/a	2	-999	n/a	n/a	n/a	n/a	1	[0, 0, 0]	-999	PAL1	0	R1228M
326.996	0.017	332605	REC_END	n/a	2	-999	n/a	n/a	n/a	n/a	1	[0, 0, 0]	-999	PAL1	0	R1228M
327.013	0.267	332622	TEST_ORIENT	n/a	5	3	SINK	n/a	STORE	SINK	1	[0, 0, 0]	-999	PAL1	0	R1228M
327.28	0.517	332889	RETRIEVAL_ORIENT_OFF	n/a	2	-999	n/a	n/a	n/a	n/a	1	[0, 0, 0]	-999	PAL1	0	R1228M
327.797	0.0	333406	TEST_PROBE	n/a	5	3	SINK	n/a	STORE	SINK	1	[0, 0, 0]	-999	PAL1	0	R1228M
327.797	2.02	333406	REC_START	n/a	5	-999	n/a	n/a	n/a	n/a	1	[0, 0, 0]	-999	PAL1	0	R1228M
329.817	1.997	335426	REC_EVENT	2020	5	3	SINK	<>	STORE	SINK	1	[0, 0, 0]	-999	PAL1	0	R1228M
331.814	1.0	337422	PROBE_OFF	n/a	5	-999	n/a	n/a	n/a	n/a	1	[0, 0, 0]	-999	PAL1	0	R1228M
332.814	0.017	338422	REC_END	n/a	5	-999	n/a	n/a	n/a	n/a	1	[0, 0, 0]	-999	PAL1	0	R1228M
332.831	0.267	338439	TEST_ORIENT	n/a	4	4	SHELL	SIGN	SHELL	SIGN	1	[0, 0, 0]	-999	PAL1	0	R1228M
333.098	0.583	338706	RETRIEVAL_ORIENT_OFF	n/a	5	-999	n/a	n/a	n/a	n/a	1	[0, 0, 0]	-999	PAL1	0	R1228M
333.681	0.001	339289	TEST_PROBE	n/a	4	4	SHELL	SIGN	SHELL	SIGN	1	[0, 0, 0]	-999	PAL1	0	R1228M
333.682	1.85	339290	REC_START	n/a	4	-999	n/a	SIGN	n/a	n/a	1	[0, 0, 0]	-999	PAL1	0	R1228M
335.532	2.167	341140	REC_EVENT	1850	4	4	SHELL	SIGN	SHELL	SIGN	1	[0, 0, 0]	-999	PAL1	0	R1228M
337.699	1.0	343307	PROBE_OFF	n/a	4	-999	n/a	n/a	n/a	n/a	1	[0, 0, 0]	-999	PAL1	0	R1228M
338.699	0.016	344307	REC_END	n/a	4	-999	n/a	n/a	n/a	n/a	1	[0, 0, 0]	-999	PAL1	0	R1228M
338.715	0.267	344323	TEST_ORIENT	n/a	3	5	PIE	n/a	PIE	STAIR	1	[0, 0, 0]	-999	PAL1	0	R1228M
338.982	0.584	344590	RETRIEVAL_ORIENT_OFF	n/a	4	-999	n/a	n/a	n/a	n/a	1	[0, 0, 0]	-999	PAL1	0	R1228M
339.566	0.0	345174	TEST_PROBE	n/a	3	5	PIE	n/a	PIE	STAIR	1	[0, 0, 0]	-999	PAL1	0	R1228M
339.566	2.298	345174	REC_START	n/a	3	-999	n/a	n/a	n/a	n/a	1	[0, 0, 0]	-999	PAL1	0	R1228M
341.864	1.719	347472	REC_EVENT	2298	3	5	PIE	<>	PIE	STAIR	1	[0, 0, 0]	-999	PAL1	0	R1228M
343.583	1.0	349191	PROBE_OFF	n/a	3	-999	n/a	n/a	n/a	n/a	1	[0, 0, 0]	-999	PAL1	0	R1228M
344.583	0.017	350191	REC_END	n/a	3	-999	n/a	n/a	n/a	n/a	1	[0, 0, 0]	-999	PAL1	0	R1228M
344.6	0.267	350208	TEST_ORIENT	n/a	6	6	CHIN	n/a	CHIN	CASH	1	[0, 0, 0]	-999	PAL1	0	R1228M
344.867	0.683	350475	RETRIEVAL_ORIENT_OFF	n/a	3	-999	n/a	n/a	n/a	n/a	1	[0, 0, 0]	-999	PAL1	0	R1228M
345.55	0.001	351158	TEST_PROBE	n/a	6	6	CHIN	n/a	CHIN	CASH	1	[0, 0, 0]	-999	PAL1	0	R1228M
345.551	4.016	351159	REC_START	n/a	6	-999	n/a	n/a	n/a	n/a	1	[0, 0, 0]	-999	PAL1	0	R1228M
349.567	0.535	355174	PROBE_OFF	n/a	6	-999	n/a	n/a	n/a	n/a	1	[0, 0, 0]	-999	PAL1	0	R1228M
350.102	0.465	355709	REC_EVENT	4551	6	6	CHIN	<>	CHIN	CASH	1	[0, 0, 0]	-999	PAL1	0	R1228M
350.567	0.013	356174	REC_END	n/a	6	-999	n/a	n/a	n/a	n/a	1	[0, 0, 0]	-999	PAL1	0	R1228M
350.58	4.989	356187	RECALL_END	n/a	-999	-999	n/a	n/a	n/a	n/a	1	[0, 0, 0]	-999	PAL1	0	R1228M
355.569	10.928	361176	TRIAL	n/a	-999	-999	n/a	n/a	n/a	n/a	2	[0, 0, 0]	-999	PAL1	0	R1228M
366.497	0.007	372103	ENCODING_START	n/a	-999	-999	n/a	n/a	n/a	n/a	2	[0, 0, 0]	-999	PAL1	0	R1228M
366.504	0.267	372110	STUDY_ORIENT	n/a	1	5	CORD	WOOD	ARK	CORD	2	[0, 0, 0]	-999	PAL1	0	R1228M
366.771	0.733	372377	STUDY_ORIENT_OFF	n/a	1	5	CORD	WOOD	ARK	CORD	2	[0, 0, 0]	-999	PAL1	0	R1228M
367.504	4.018	373110	STUDY_PAIR	n/a	1	5	CORD	WOOD	ARK	CORD	2	[0, 0, 0]	-999	PAL1	0	R1228M
371.522	1.017	377128	PAIR_OFF	n/a	1	5	CORD	WOOD	ARK	CORD	2	[0, 0, 0]	-999	PAL1	0	R1228M
372.539	0.266	378145	STUDY_ORIENT	n/a	2	4	NAIL	JEEP	NAIL	JEEP	2	[0, 0, 0]	-999	PAL1	0	R1228M
372.805	0.667	378411	STUDY_ORIENT_OFF	n/a	2	4	NAIL	JEEP	NAIL	JEEP	2	[0, 0, 0]	-999	PAL1	0	R1228M
373.472	4.018	379078	STUDY_PAIR	n/a	2	4	NAIL	JEEP	NAIL	JEEP	2	[0, 0, 0]	-999	PAL1	0	R1228M
377.49	1.016	383096	PAIR_OFF	n/a	2	4	NAIL	JEEP	NAIL	JEEP	2	[0, 0, 0]	-999	PAL1	0	R1228M
378.506	0.267	384112	STUDY_ORIENT	n/a	3	1	BAT	GLOVE	GLOVE	BAT	2	[0, 0, 0]	-999	PAL1	0	R1228M
378.773	0.616	384379	STUDY_ORIENT_OFF	n/a	3	1	BAT	GLOVE	GLOVE	BAT	2	[0, 0, 0]	-999	PAL1	0	R1228M
379.389	4.017	384995	STUDY_PAIR	n/a	3	1	BAT	GLOVE	GLOVE	BAT	2	[0, 0, 0]	-999	PAL1	0	R1228M
383.406	1.017	389012	PAIR_OFF	n/a	3	1	BAT	GLOVE	GLOVE	BAT	2	[0, 0, 0]	-999	PAL1	0	R1228M
384.423	0.251	390028	STUDY_ORIENT	n/a	4	2	HEN	BEAR	HEN	BEAR	2	[0, 0, 0]	-999	PAL1	0	R1228M
384.674	0.567	390279	STUDY_ORIENT_OFF	n/a	4	2	HEN	BEAR	HEN	BEAR	2	[0, 0, 0]	-999	PAL1	0	R1228M
385.241	4.018	390846	STUDY_PAIR	n/a	4	2	HEN	BEAR	HEN	BEAR	2	[0, 0, 0]	-999	PAL1	0	R1228M
389.259	1.016	394864	PAIR_OFF	n/a	4	2	HEN	BEAR	HEN	BEAR	2	[0, 0, 0]	-999	PAL1	0	R1228M
390.275	0.267	395880	STUDY_ORIENT	n/a	5	3	BALL	n/a	HORN	BALL	2	[0, 0, 0]	-999	PAL1	0	R1228M
390.542	0.6	396147	STUDY_ORIENT_OFF	n/a	5	3	BALL	n/a	HORN	BALL	2	[0, 0, 0]	-999	PAL1	0	R1228M
391.142	4.018	396747	STUDY_PAIR	n/a	5	3	BALL	n/a	HORN	BALL	2	[0, 0, 0]	-999	PAL1	0	R1228M
395.16	1.017	400765	PAIR_OFF	n/a	5	3	BALL	n/a	HORN	BALL	2	[0, 0, 0]	-999	PAL1	0	R1228M
396.177	0.265	401782	STUDY_ORIENT	n/a	6	6	DIME	n/a	CLOCK	DIME	2	[0, 0, 0]	-999	PAL1	0	R1228M
396.442	0.668	402047	STUDY_ORIENT_OFF	n/a	6	6	DIME	n/a	CLOCK	DIME	2	[0, 0, 0]	-999	PAL1	0	R1228M
397.11	4.018	402715	STUDY_PAIR	n/a	6	6	DIME	n/a	CLOCK	DIME	2	[0, 0, 0]	-999	PAL1	0	R1228M
401.128	1.001	406733	PAIR_OFF	n/a	6	6	DIME	n/a	CLOCK	DIME	2	[0, 0, 0]	-999	PAL1	0	R1228M
402.129	0.0	407733	ENCODING_END	n/a	-999	-999	n/a	n/a	n/a	n/a	2	[0, 0, 0]	-999	PAL1	0	R1228M
402.129	0.0	407733	MATH_START	n/a	-999	-999	n/a	n/a	n/a	n/a	2	[0, 0, 0]	-999	PAL1	0	R1228M
402.129	0.015	407733	START	n/a	-999	-999	n/a	n/a	n/a	n/a	2	[-999, -999, -999]	-999	PAL1	0	R1228M
402.144	3.568	407748	PROB	3534	-999	-999	n/a	n/a	n/a	n/a	2	[9, 3, 7]	19	PAL1	0	R1228M
405.712	4.484	411316	PROB	4455	-999	-999	n/a	n/a	n/a	n/a	2	[2, 4, 3]	8	PAL1	0	R1228M
410.196	3.467	415800	PROB	3435	-999	-999	n/a	n/a	n/a	n/a	2	[2, 2, 9]	13	PAL1	0	R1228M
413.663	2.766	419267	PROB	2742	-999	-999	n/a	n/a	n/a	n/a	2	[8, 2, 6]	16	PAL1	0	R1228M
416.429	2.819	422033	PROB	2793	-999	-999	n/a	n/a	n/a	n/a	2	[1, 9, 3]	13	PAL1	0	R1228M
419.248	2.7	424852	PROB	2670	-999	-999	n/a	n/a	n/a	n/a	2	[8, 2, 2]	12	PAL1	0	R1228M
421.948	2.497	427551	PROB	2497	-999	-999	n/a	n/a	n/a	n/a	2	[1, 7, 3]	11	PAL1	0	R1228M
424.445	0.02	430048	STOP	n/a	-999	-999	n/a	n/a	n/a	n/a	2	[-999, -999, -999]	-999	PAL1	0	R1228M
424.465	0.001	430068	MATH_END	n/a	-999	-999	n/a	n/a	n/a	n/a	2	[0, 0, 0]	-999	PAL1	0	R1228M
424.466	0.016	430069	RECALL_START	n/a	-999	-999	n/a	n/a	n/a	n/a	2	[0, 0, 0]	-999	PAL1	0	R1228M
424.482	0.267	430085	TEST_ORIENT	n/a	3	1	BAT	GLOVE	GLOVE	BAT	2	[0, 0, 0]	-999	PAL1	0	R1228M
424.749	0.733	430352	RETRIEVAL_ORIENT_OFF	n/a	-999	-999	n/a	n/a	n/a	n/a	2	[0, 0, 0]	-999	PAL1	0	R1228M
425.482	0.001	431085	TEST_PROBE	n/a	3	1	BAT	GLOVE	GLOVE	BAT	2	[0, 0, 0]	-999	PAL1	0	R1228M
425.483	2.088	431086	REC_START	n/a	3	-999	n/a	GLOVE	n/a	n/a	2	[0, 0, 0]	-999	PAL1	0	R1228M
427.571	1.912	433174	REC_EVENT	2088	3	1	BAT	GLOVE	GLOVE	BAT	2	[0, 0, 0]	-999	PAL1	0	R1228M
429.483	1.013	435086	PROBE_OFF	n/a	3	-999	n/a	n/a	n/a	n/a	2	[0, 0, 0]	-999	PAL1	0	R1228M
430.496	0.02	436099	REC_END	n/a	3	-999	n/a	n/a	n/a	n/a	2	[0, 0, 0]	-999	PAL1	0	R1228M
430.516	0.267	436119	TEST_ORIENT	n/a	4	2	HEN	BEAR	HEN	BEAR	2	[0, 0, 0]	-999	PAL1	0	R1228M
430.783	0.633	436386	RETRIEVAL_ORIENT_OFF	n/a	3	-999	n/a	n/a	n/a	n/a	2	[0, 0, 0]	-999	PAL1	0	R1228M
431.416	0.0	437019	TEST_PROBE	n/a	4	2	HEN	BEAR	HEN	BEAR	2	[0, 0, 0]	-999	PAL1	0	R1228M
431.416	1.879	437019	REC_START	n/a	4	-999	n/a	BEAR	n/a	n/a	2	[0, 0, 0]	-999	PAL1	0	R1228M
433.295	2.138	438898	REC_EVENT	1879	4	2	HEN	BEAR	HEN	BEAR	2	[0, 0, 0]	-999	PAL1	0	R1228M
435.433	1.0	441036	PROBE_OFF	n/a	4	-999	n/a	n/a	n/a	n/a	2	[0, 0, 0]	-999	PAL1	0	R1228M
436.433	0.017	442036	REC_END	n/a	4	-999	n/a	n/a	n/a	n/a	2	[0, 0, 0]	-999	PAL1	0	R1228M
436.45	0.268	442053	TEST_ORIENT	n/a	5	3	BALL	n/a	HORN	BALL	2	[0, 0, 0]	-999	PAL1	0	R1228M
436.718	0.599	442321	RETRIEVAL_ORIENT_OFF	n/a	4	-999	n/a	n/a	n/a	n/a	2	[0, 0, 0]	-999	PAL1	0	R1228M
437.317	0.001	442919	TEST_PROBE	n/a	5	3	BALL	n/a	HORN	BALL	2	[0, 0, 0]	-999	PAL1	0	R1228M
437.318	3.088	442920	REC_START	n/a	5	-999	n/a	n/a	n/a	n/a	2	[0, 0, 0]	-999	PAL1	0	R1228M
440.406	0.928	446008	REC_EVENT	3088	5	3	BALL	<>	HORN	BALL	2	[0, 0, 0]	-999	PAL1	0	R1228M
441.334	1.0	446936	PROBE_OFF	n/a	5	-999	n/a	n/a	n/a	n/a	2	[0, 0, 0]	-999	PAL1	0	R1228M
442.334	0.017	447936	REC_END	n/a	5	-999	n/a	n/a	n/a	n/a	2	[0, 0, 0]	-999	PAL1	0	R1228M
442.351	0.251	447953	TEST_ORIENT	n/a	2	4	NAIL	JEEP	NAIL	JEEP	2	[0, 0, 0]	-999	PAL1	0	R1228M
442.602	0.749	448204	RETRIEVAL_ORIENT_OFF	n/a	5	-999	n/a	n/a	n/a	n/a	2	[0, 0, 0]	-999	PAL1	0	R1228M
443.351	0.001	448953	TEST_PROBE	n/a	2	4	NAIL	JEEP	NAIL	JEEP	2	[0, 0, 0]	-999	PAL1	0	R1228M
443.352	4.017	448954	REC_START	n/a	2	-999	n/a	JEEP	n/a	n/a	2	[0, 0, 0]	-999	PAL1	0	R1228M
447.369	0.283	452971	PROBE_OFF	n/a	2	-999	n/a	n/a	n/a	n/a	2	[0, 0, 0]	-999	PAL1	0	R1228M
447.652	0.717	453254	REC_EVENT	4300	2	4	NAIL	JEEP	NAIL	JEEP	2	[0, 0, 0]	-999	PAL1	0	R1228M
448.369	0.016	453971	REC_END	n/a	2	-999	n/a	n/a	n/a	n/a	2	[0, 0, 0]	-999	PAL1	0	R1228M
448.385	0.268	453987	TEST_ORIENT	n/a	1	5	CORD	WOOD	ARK	CORD	2	[0, 0, 0]	-999	PAL1	0	R1228M
448.653	0.584	454255	RETRIEVAL_ORIENT_OFF	n/a	2	-999	n/a	n/a	n/a	n/a	2	[0, 0, 0]	-999	PAL1	0	R1228M
449.237	0.0	454839	TEST_PROBE	n/a	1	5	CORD	WOOD	ARK	CORD	2	[0, 0, 0]	-999	PAL1	0	R1228M
449.237	4.017	454839	REC_START	n/a	1	-999	n/a	WOOD	n/a	n/a	2	[0, 0, 0]	-999	PAL1	0	R1228M
453.254	0.496	458856	PROBE_OFF	n/a	1	-999	n/a	n/a	n/a	n/a	2	[0, 0, 0]	-999	PAL1	0	R1228M
453.75	0.505	459352	REC_EVENT	4513	1	5	CORD	WOOD	ARK	CORD	2	[0, 0, 0]	-999	PAL1	0	R1228M
454.255	0.016	459857	REC_END	n/a	1	-999	n/a	n/a	n/a	n/a	2	[0, 0, 0]	-999	PAL1	0	R1228M
454.271	0.267	459873	TEST_ORIENT	n/a	6	6	DIME	n/a	CLOCK	DIME	2	[0, 0, 0]	-999	PAL1	0	R1228M
454.538	0.517	460140	RETRIEVAL_ORIENT_OFF	n/a	1	-999	n/a	n/a	n/a	n/a	2	[0, 0, 0]	-999	PAL1	0	R1228M
455.055	0.0	460656	TEST_PROBE	n/a	6	6	DIME	n/a	CLOCK	DIME	2	[0, 0, 0]	-999	PAL1	0	R1228M
455.055	2.089	460656	REC_START	n/a	6	-999	n/a	n/a	n/a	n/a	2	[0, 0, 0]	-999	PAL1	0	R1228M
457.144	1.928	462745	REC_EVENT	2089	6	6	DIME	<>	CLOCK	DIME	2	[0, 0, 0]	-999	PAL1	0	R1228M
459.072	1.001	464673	PROBE_OFF	n/a	6	-999	n/a	n/a	n/a	n/a	2	[0, 0, 0]	-999	PAL1	0	R1228M
460.073	0.013	465674	REC_END	n/a	6	-999	n/a	n/a	n/a	n/a	2	[0, 0, 0]	-999	PAL1	0	R1228M
460.086	23.774	465687	RECALL_END	n/a	-999	-999	n/a	n/a	n/a	n/a	2	[0, 0, 0]	-999	PAL1	0	R1228M
483.86	10.928	489460	TRIAL	n/a	-999	-999	n/a	n/a	n/a	n/a	3	[0, 0, 0]	-999	PAL1	0	R1228M
494.788	0.008	500387	ENCODING_START	n/a	-999	-999	n/a	n/a	n/a	n/a	3	[0, 0, 0]	-999	PAL1	0	R1228M
494.796	0.266	500395	STUDY_ORIENT	n/a	1	1	BOX	NEST	NEST	BOX	3	[0, 0, 0]	-999	PAL1	0	R1228M
495.062	0.7	500661	STUDY_ORIENT_OFF	n/a	1	1	BOX	NEST	NEST	BOX	3	[0, 0, 0]	-999	PAL1	0	R1228M
495.762	4.018	501361	STUDY_PAIR	n/a	1	1	BOX	NEST	NEST	BOX	3	[0, 0, 0]	-999	PAL1	0	R1228M
499.78	1.017	505379	PAIR_OFF	n/a	1	1	BOX	NEST	NEST	BOX	3	[0, 0, 0]	-999	PAL1	0	R1228M
500.797	0.266	506396	STUDY_ORIENT	n/a	2	6	HOUSE	n/a	ANT	HOUSE	3	[0, 0, 0]	-999	PAL1	0	R1228M
501.063	0.751	506662	STUDY_ORIENT_OFF	n/a	2	6	HOUSE	n/a	ANT	HOUSE	3	[0, 0, 0]	-999	PAL1	0	R1228M
501.814	4.017	507413	STUDY_PAIR	n/a	2	6	HOUSE	n/a	ANT	HOUSE	3	[0, 0, 0]	-999	PAL1	0	R1228M
505.831	1.017	511430	PAIR_OFF	n/a	2	6	HOUSE	n/a	ANT	HOUSE	3	[0, 0, 0]	-999	PAL1	0	R1228M
506.848	0.267	512447	STUDY_ORIENT	n/a	3	3	LAND	n/a	LAND	BRIDGE	3	[0, 0, 0]	-999	PAL1	0	R1228M
507.115	0.683	512714	STUDY_ORIENT_OFF	n/a	3	3	LAND	n/a	LAND	BRIDGE	3	[0, 0, 0]	-999	PAL1	0	R1228M
507.798	4.018	513397	STUDY_PAIR	n/a	3	3	LAND	n/a	LAND	BRIDGE	3	[0, 0, 0]	-999	PAL1	0	R1228M
511.816	1.016	517414	PAIR_OFF	n/a	3	3	LAND	n/a	LAND	BRIDGE	3	[0, 0, 0]	-999	PAL1	0	R1228M
512.832	0.267	518430	STUDY_ORIENT	n/a	4	2	FUDGE	CLOWN	CLOWN	FUDGE	3	[0, 0, 0]	-999	PAL1	0	R1228M
513.099	0.584	518697	STUDY_ORIENT_OFF	n/a	4	2	FUDGE	CLOWN	CLOWN	FUDGE	3	[0, 0, 0]	-999	PAL1	0	R1228M
513.683	4.017	519281	STUDY_PAIR	n/a	4	2	FUDGE	CLOWN	CLOWN	FUDGE	3	[0, 0, 0]	-999	PAL1	0	R1228M
517.7	1.017	523298	PAIR_OFF	n/a	4	2	FUDGE	CLOWN	CLOWN	FUDGE	3	[0, 0, 0]	-999	PAL1	0	R1228M
518.717	0.267	524315	STUDY_ORIENT	n/a	5	5	SHEEP	n/a	SHEEP	STREET	3	[0, 0, 0]	-999	PAL1	0	R1228M
518.984	0.633	524582	STUDY_ORIENT_OFF	n/a	5	5	SHEEP	n/a	SHEEP	STREET	3	[0, 0, 0]	-999	PAL1	0	R1228M
519.617	4.018	525215	STUDY_PAIR	n/a	5	5	SHEEP	n/a	SHEEP	STREET	3	[0, 0, 0]	-999	PAL1	0	R1228M
523.635	1.016	529233	PAIR_OFF	n/a	5	5	SHEEP	n/a	SHEEP	STREET	3	[0, 0, 0]	-999	PAL1	0	R1228M
524.651	0.267	530249	STUDY_ORIENT	n/a	6	4	SLEEVE	STREET	FARM	SLEEVE	3	[0, 0, 0]	-999	PAL1	0	R1228M
524.918	0.684	530516	STUDY_ORIENT_OFF	n/a	6	4	SLEEVE	STREET	FARM	SLEEVE	3	[0, 0, 0]	-999	PAL1	0	R1228M
525.602	4.017	531200	STUDY_PAIR	n/a	6	4	SLEEVE	STREET	FARM	SLEEVE	3	[0, 0, 0]	-999	PAL1	0	R1228M
529.619	1.0	535216	PAIR_OFF	n/a	6	4	SLEEVE	STREET	FARM	SLEEVE	3	[0, 0, 0]	-999	PAL1	0	R1228M
530.619	0.0	536216	MATH_START	n/a	-999	-999	n/a	n/a	n/a	n/a	3	[0, 0, 0]	-999	PAL1	0	R1228M
530.619	0.001	536216	ENCODING_END	n/a	-999	-999	n/a	n/a	n/a	n/a	3	[0, 0, 0]	-999	PAL1	0	R1228M
530.62	0.016	536217	START	n/a	-999	-999	n/a	n/a	n/a	n/a	3	[-999, -999, -999]	-999	PAL1	0	R1228M
530.636	2.783	536233	PROB	2745	-999	-999	n/a	n/a	n/a	n/a	3	[2, 6, 4]	12	PAL1	0	R1228M
533.419	2.268	539016	PROB	2236	-999	-999	n/a	n/a	n/a	n/a	3	[8, 1, 2]	11	PAL1	0	R1228M
535.687	3.301	541284	PROB	3263	-999	-999	n/a	n/a	n/a	n/a	3	[1, 5, 3]	9	PAL1	0	R1228M
538.988	2.283	544585	PROB	2250	-999	-999	n/a	n/a	n/a	n/a	3	[7, 2, 2]	11	PAL1	0	R1228M
541.271	2.968	546868	PROB	2943	-999	-999	n/a	n/a	n/a	n/a	3	[8, 3, 7]	18	PAL1	0	R1228M
544.239	2.9	549835	PROB	2863	-999	-999	n/a	n/a	n/a	n/a	3	[1, 9, 7]	17	PAL1	0	R1228M
547.139	3.216	552735	PROB	3179	-999	-999	n/a	n/a	n/a	n/a	3	[9, 2, 4]	15	PAL1	0	R1228M
550.355	4.01	555951	PROB	4010	-999	-999	n/a	n/a	n/a	n/a	3	[7, 1, 7]	15	PAL1	0	R1228M
554.365	0.008	559961	STOP	n/a	-999	-999	n/a	n/a	n/a	n/a	3	[-999, -999, -999]	-999	PAL1	0	R1228M
554.373	0.0	559969	MATH_END	n/a	-999	-999	n/a	n/a	n/a	n/a	3	[0, 0, 0]	-999	PAL1	0	R1228M
554.373	0.016	559969	RECALL_START	n/a	-999	-999	n/a	n/a	n/a	n/a	3	[0, 0, 0]	-999	PAL1	0	R1228M
554.389	0.268	559985	TEST_ORIENT	n/a	1	1	BOX	NEST	NEST	BOX	3	[0, 0, 0]	-999	PAL1	0	R1228M
554.657	0.6	560253	RETRIEVAL_ORIENT_OFF	n/a	-999	-999	n/a	n/a	n/a	n/a	3	[0, 0, 0]	-999	PAL1	0	R1228M
555.257	0.001	560853	TEST_PROBE	n/a	1	1	BOX	NEST	NEST	BOX	3	[0, 0, 0]	-999	PAL1	0	R1228M
555.258	3.024	560854	REC_START	n/a	1	-999	n/a	NEST	n/a	n/a	3	[0, 0, 0]	-999	PAL1	0	R1228M
558.282	0.976	563878	REC_EVENT	3024	1	1	BOX	NEST	NEST	BOX	3	[0, 0, 0]	-999	PAL1	0	R1228M
559.258	1.001	564854	PROBE_OFF	n/a	1	-999	n/a	n/a	n/a	n/a	3	[0, 0, 0]	-999	PAL1	0	R1228M
560.259	0.016	565855	REC_END	n/a	1	-999	n/a	n/a	n/a	n/a	3	[0, 0, 0]	-999	PAL1	0	R1228M
560.275	0.267	565871	TEST_ORIENT	n/a	4	2	FUDGE	CLOWN	CLOWN	FUDGE	3	[0, 0, 0]	-999	PAL1	0	R1228M
560.542	0.733	566138	RETRIEVAL_ORIENT_OFF	n/a	1	-999	n/a	n/a	n/a	n/a	3	[0, 0, 0]	-999	PAL1	0	R1228M
561.275	0.001	566871	TEST_PROBE	n/a	4	2	FUDGE	CLOWN	CLOWN	FUDGE	3	[0, 0, 0]	-999	PAL1	0	R1228M
561.276	1.818	566872	REC_START	n/a	4	-999	n/a	CLOWN	n/a	n/a	3	[0, 0, 0]	-999	PAL1	0	R1228M
563.094	2.199	568689	REC_EVENT	1818	4	2	FUDGE	CLOWN	CLOWN	FUDGE	3	[0, 0, 0]	-999	PAL1	0	R1228M
565.293	1.0	570888	PROBE_OFF	n/a	4	-999	n/a	n/a	n/a	n/a	3	[0, 0, 0]	-999	PAL1	0	R1228M
566.293	0.017	571888	REC_END	n/a	4	-999	n/a	n/a	n/a	n/a	3	[0, 0, 0]	-999	PAL1	0	R1228M
566.31	0.266	571905	TEST_ORIENT	n/a	3	3	LAND	n/a	LAND	BRIDGE	3	[0, 0, 0]	-999	PAL1	0	R1228M
566.576	0.534	572171	RETRIEVAL_ORIENT_OFF	n/a	4	-999	n/a	n/a	n/a	n/a	3	[0, 0, 0]	-999	PAL1	0	R1228M
567.11	0.0	572705	TEST_PROBE	n/a	3	3	LAND	n/a	LAND	BRIDGE	3	[0, 0, 0]	-999	PAL1	0	R1228M
567.11	4.017	572705	REC_START	n/a	3	-999	n/a	n/a	n/a	n/a	3	[0, 0, 0]	-999	PAL1	0	R1228M
571.127	0.952	576722	PROBE_OFF	n/a	3	-999	n/a	n/a	n/a	n/a	3	[0, 0, 0]	-999	PAL1	0	R1228M
572.079	0.048	577674	REC_EVENT	4969	3	3	LAND	<>	LAND	BRIDGE	3	[0, 0, 0]	-999	PAL1	0	R1228M
572.127	0.017	577722	REC_END	n/a	3	-999	n/a	n/a	n/a	n/a	3	[0, 0, 0]	-999	PAL1	0	R1228M
572.144	0.266	577739	TEST_ORIENT	n/a	6	4	SLEEVE	STREET	FARM	SLEEVE	3	[0, 0, 0]	-999	PAL1	0	R1228M
572.41	0.751	578005	RETRIEVAL_ORIENT_OFF	n/a	3	-999	n/a	n/a	n/a	n/a	3	[0, 0, 0]	-999	PAL1	0	R1228M
573.161	0.001	578756	TEST_PROBE	n/a	6	4	SLEEVE	STREET	FARM	SLEEVE	3	[0, 0, 0]	-999	PAL1	0	R1228M
573.162	0.0	578757	REC_START	n/a	6	-999	n/a	STREET	n/a	n/a	3	[0, 0, 0]	-999	PAL1	0	R1228M
573.162	4.016	578757	REC_EVENT	0	6	4	SLEEVE	STREET	FARM	SLEEVE	3	[0, 0, 0]	-999	PAL1	0	R1228M
577.178	0.336	582773	PROBE_OFF	n/a	6	-999	n/a	n/a	n/a	n/a	3	[0, 0, 0]	-999	PAL1	0	R1228M
577.514	0.664	583109	REC_EVENT	4352	6	4	SLEEVE	STREET	FARM	SLEEVE	3	[0, 0, 0]	-999	PAL1	0	R1228M
578.178	0.017	583773	REC_END	n/a	6	-999	n/a	n/a	n/a	n/a	3	[0, 0, 0]	-999	PAL1	0	R1228M
578.195	0.267	583790	TEST_ORIENT	n/a	5	5	SHEEP	n/a	SHEEP	STREET	3	[0, 0, 0]	-999	PAL1	0	R1228M
578.462	0.6	584057	RETRIEVAL_ORIENT_OFF	n/a	6	-999	n/a	n/a	n/a	n/a	3	[0, 0, 0]	-999	PAL1	0	R1228M
579.062	0.001	584656	TEST_PROBE	n/a	5	5	SHEEP	n/a	SHEEP	STREET	3	[0, 0, 0]	-999	PAL1	0	R1228M
579.063	4.016	584657	REC_START	n/a	5	-999	n/a	n/a	n/a	n/a	3	[0, 0, 0]	-999	PAL1	0	R1228M
583.079	0.767	588673	PROBE_OFF	n/a	5	-999	n/a	n/a	n/a	n/a	3	[0, 0, 0]	-999	PAL1	0	R1228M
583.846	0.233	589440	REC_EVENT	4783	5	5	SHEEP	<>	SHEEP	STREET	3	[0, 0, 0]	-999	PAL1	0	R1228M
584.079	0.017	589673	REC_END	n/a	5	-999	n/a	n/a	n/a	n/a	3	[0, 0, 0]	-999	PAL1	0	R1228M
584.096	0.266	589690	TEST_ORIENT	n/a	2	6	HOUSE	n/a	ANT	HOUSE	3	[0, 0, 0]	-999	PAL1	0	R1228M
584.362	0.534	589956	RETRIEVAL_ORIENT_OFF	n/a	5	-999	n/a	n/a	n/a	n/a	3	[0, 0, 0]	-999	PAL1	0	R1228M
584.896	0.001	590490	TEST_PROBE	n/a	2	6	HOUSE	n/a	ANT	HOUSE	3	[0, 0, 0]	-999	PAL1	0	R1228M
584.897	1.398	590491	REC_START	n/a	2	-999	n/a	n/a	n/a	n/a	3	[0, 0, 0]	-999	PAL1	0	R1228M
586.295	2.619	591889	REC_EVENT	1398	2	6	HOUSE	<>	ANT	HOUSE	3	[0, 0, 0]	-999	PAL1	0	R1228M
588.914	1.0	594508	PROBE_OFF	n/a	2	-999	n/a	n/a	n/a	n/a	3	[0, 0, 0]	-999	PAL1	0	R1228M
589.914	0.011	595508	REC_END	n/a	2	-999	n/a	n/a	n/a	n/a	3	[0, 0, 0]	-999	PAL1	0	R1228M
589.925	56.883	595519	RECALL_END	n/a	-999	-999	n/a	n/a	n/a	n/a	3	[0, 0, 0]	-999	PAL1	0	R1228M
646.808	10.929	652399	TRIAL	n/a	-999	-999	n/a	n/a	n/a	n/a	4	[0, 0, 0]	-999	PAL1	0	R1228M
657.737	0.007	663327	ENCODING_START	n/a	-999	-999	n/a	n/a	n/a	n/a	4	[0, 0, 0]	-999	PAL1	0	R1228M
657.744	0.267	663334	STUDY_ORIENT	n/a	1	3	YARD	ROOM	YARD	ROOM	4	[0, 0, 0]	-999	PAL1	0	R1228M
658.011	0.666	663601	STUDY_ORIENT_OFF	n/a	1	3	YARD	ROOM	YARD	ROOM	4	[0, 0, 0]	-999	PAL1	0	R1228M
658.677	4.018	664267	STUDY_PAIR	n/a	1	3	YARD	ROOM	YARD	ROOM	4	[0, 0, 0]	-999	PAL1	0	R1228M
662.695	1.017	668285	PAIR_OFF	n/a	1	3	YARD	ROOM	YARD	ROOM	4	[0, 0, 0]	-999	PAL1	0	R1228M
663.712	0.266	669302	STUDY_ORIENT	n/a	2	6	SOAP	n/a	SOAP	DRUM	4	[0, 0, 0]	-999	PAL1	0	R1228M
663.978	0.517	669568	STUDY_ORIENT_OFF	n/a	2	6	SOAP	n/a	SOAP	DRUM	4	[0, 0, 0]	-999	PAL1	0	R1228M
664.495	4.018	670085	STUDY_PAIR	n/a	2	6	SOAP	n/a	SOAP	DRUM	4	[0, 0, 0]	-999	PAL1	0	R1228M
668.513	1.017	674102	PAIR_OFF	n/a	2	6	SOAP	n/a	SOAP	DRUM	4	[0, 0, 0]	-999	PAL1	0	R1228M
669.53	0.266	675119	STUDY_ORIENT	n/a	3	5	FOG	n/a	FOG	SOUP	4	[0, 0, 0]	-999	PAL1	0	R1228M
669.796	0.717	675385	STUDY_ORIENT_OFF	n/a	3	5	FOG	n/a	FOG	SOUP	4	[0, 0, 0]	-999	PAL1	0	R1228M
670.513	4.017	676102	STUDY_PAIR	n/a	3	5	FOG	n/a	FOG	SOUP	4	[0, 0, 0]	-999	PAL1	0	R1228M
674.53	1.017	680119	PAIR_OFF	n/a	3	5	FOG	n/a	FOG	SOUP	4	[0, 0, 0]	-999	PAL1	0	R1228M
675.547	0.267	681136	STUDY_ORIENT	n/a	4	2	HAWK	CHALK	CHALK	HAWK	4	[0, 0, 0]	-999	PAL1	0	R1228M
675.814	0.616	681403	STUDY_ORIENT_OFF	n/a	4	2	HAWK	CHALK	CHALK	HAWK	4	[0, 0, 0]	-999	PAL1	0	R1228M
676.43	4.017	682019	STUDY_PAIR	n/a	4	2	HAWK	CHALK	CHALK	HAWK	4	[0, 0, 0]	-999	PAL1	0	R1228M
680.447	1.018	686036	PAIR_OFF	n/a	4	2	HAWK	CHALK	CHALK	HAWK	4	[0, 0, 0]	-999	PAL1	0	R1228M
681.465	0.267	687054	STUDY_ORIENT	n/a	5	1	WALL	n/a	BEAK	WALL	4	[0, 0, 0]	-999	PAL1	0	R1228M
681.732	0.599	687321	STUDY_ORIENT_OFF	n/a	5	1	WALL	n/a	BEAK	WALL	4	[0, 0, 0]	-999	PAL1	0	R1228M
682.331	4.017	687920	STUDY_PAIR	n/a	5	1	WALL	n/a	BEAK	WALL	4	[0, 0, 0]	-999	PAL1	0	R1228M
686.348	1.017	691936	PAIR_OFF	n/a	5	1	WALL	n/a	BEAK	WALL	4	[0, 0, 0]	-999	PAL1	0	R1228M
687.365	0.251	692953	STUDY_ORIENT	n/a	6	4	HOOF	n/a	TEA	HOOF	4	[0, 0, 0]	-999	PAL1	0	R1228M
687.616	0.699	693204	STUDY_ORIENT_OFF	n/a	6	4	HOOF	n/a	TEA	HOOF	4	[0, 0, 0]	-999	PAL1	0	R1228M
688.315	4.001	693903	STUDY_PAIR	n/a	6	4	HOOF	n/a	TEA	HOOF	4	[0, 0, 0]	-999	PAL1	0	R1228M
692.316	1.001	697904	PAIR_OFF	n/a	6	4	HOOF	n/a	TEA	HOOF	4	[0, 0, 0]	-999	PAL1	0	R1228M
693.317	0.0	698905	ENCODING_END	n/a	-999	-999	n/a	n/a	n/a	n/a	4	[0, 0, 0]	-999	PAL1	0	R1228M
693.317	0.0	698905	MATH_START	n/a	-999	-999	n/a	n/a	n/a	n/a	4	[0, 0, 0]	-999	PAL1	0	R1228M
693.317	0.016	698905	START	n/a	-999	-999	n/a	n/a	n/a	n/a	4	[-999, -999, -999]	-999	PAL1	0	R1228M
693.333	6.486	698921	PROB	6457	-999	-999	n/a	n/a	n/a	n/a	4	[8, 9, 4]	21	PAL1	0	R1228M
699.819	3.017	705407	PROB	2988	-999	-999	n/a	n/a	n/a	n/a	4	[5, 3, 2]	10	PAL1	0	R1228M
702.836	2.751	708424	PROB	2715	-999	-999	n/a	n/a	n/a	n/a	4	[1, 7, 2]	10	PAL1	0	R1228M
705.587	4.017	711174	PROB	3979	-999	-999	n/a	n/a	n/a	n/a	4	[8, 1, 5]	14	PAL1	0	R1228M
709.604	3.93	715191	PROB	3930	-999	-999	n/a	n/a	n/a	n/a	4	[5, 7, 9]	21	PAL1	0	R1228M
713.534	0.021	719121	STOP	n/a	-999	-999	n/a	n/a	n/a	n/a	4	[-999, -999, -999]	-999	PAL1	0	R1228M
713.555	0.0	719142	MATH_END	n/a	-999	-999	n/a	n/a	n/a	n/a	4	[0, 0, 0]	-999	PAL1	0	R1228M
713.555	0.016	719142	RECALL_START	n/a	-999	-999	n/a	n/a	n/a	n/a	4	[0, 0, 0]	-999	PAL1	0	R1228M
713.571	0.267	719158	TEST_ORIENT	n/a	5	1	WALL	n/a	BEAK	WALL	4	[0, 0, 0]	-999	PAL1	0	R1228M
713.838	0.566	719425	RETRIEVAL_ORIENT_OFF	n/a	-999	-999	n/a	n/a	n/a	n/a	4	[0, 0, 0]	-999	PAL1	0	R1228M
714.404	0.0	719991	TEST_PROBE	n/a	5	1	WALL	n/a	BEAK	WALL	4	[0, 0, 0]	-999	PAL1	0	R1228M
714.404	0.719	719991	REC_START	n/a	5	-999	n/a	n/a	n/a	n/a	4	[0, 0, 0]	-999	PAL1	0	R1228M
715.123	3.298	720710	REC_EVENT	719	5	1	WALL	<>	BEAK	WALL	4	[0, 0, 0]	-999	PAL1	0	R1228M
718.421	1.0	724008	PROBE_OFF	n/a	5	-999	n/a	n/a	n/a	n/a	4	[0, 0, 0]	-999	PAL1	0	R1228M
719.421	0.017	725008	REC_END	n/a	5	-999	n/a	n/a	n/a	n/a	4	[0, 0, 0]	-999	PAL1	0	R1228M
719.438	0.268	725025	TEST_ORIENT	n/a	4	2	HAWK	CHALK	CHALK	HAWK	4	[0, 0, 0]	-999	PAL1	0	R1228M
719.706	0.567	725293	RETRIEVAL_ORIENT_OFF	n/a	5	-999	n/a	n/a	n/a	n/a	4	[0, 0, 0]	-999	PAL1	0	R1228M
720.273	0.0	725860	TEST_PROBE	n/a	4	2	HAWK	CHALK	CHALK	HAWK	4	[0, 0, 0]	-999	PAL1	0	R1228M
720.273	2.551	725860	REC_START	n/a	4	-999	n/a	CHALK	n/a	n/a	4	[0, 0, 0]	-999	PAL1	0	R1228M
722.824	1.466	728410	REC_EVENT	2551	4	2	HAWK	CHALK	CHALK	HAWK	4	[0, 0, 0]	-999	PAL1	0	R1228M
724.29	1.0	729876	PROBE_OFF	n/a	4	-999	n/a	n/a	n/a	n/a	4	[0, 0, 0]	-999	PAL1	0	R1228M
725.29	0.017	730876	REC_END	n/a	4	-999	n/a	n/a	n/a	n/a	4	[0, 0, 0]	-999	PAL1	0	R1228M
725.307	0.267	730893	TEST_ORIENT	n/a	1	3	YARD	ROOM	YARD	ROOM	4	[0, 0, 0]	-999	PAL1	0	R1228M
725.574	0.567	731160	RETRIEVAL_ORIENT_OFF	n/a	4	-999	n/a	n/a	n/a	n/a	4	[0, 0, 0]	-999	PAL1	0	R1228M
726.141	0.0	731727	TEST_PROBE	n/a	1	3	YARD	ROOM	YARD	ROOM	4	[0, 0, 0]	-999	PAL1	0	R1228M
726.141	2.389	731727	REC_START	n/a	1	-999	n/a	ROOM	n/a	n/a	4	[0, 0, 0]	-999	PAL1	0	R1228M
728.53	1.628	734116	REC_EVENT	2389	1	3	YARD	ROOM	YARD	ROOM	4	[0, 0, 0]	-999	PAL1	0	R1228M
730.158	1.0	735744	PROBE_OFF	n/a	1	-999	n/a	n/a	n/a	n/a	4	[0, 0, 0]	-999	PAL1	0	R1228M
731.158	0.017	736744	REC_END	n/a	1	-999	n/a	n/a	n/a	n/a	4	[0, 0, 0]	-999	PAL1	0	R1228M
731.175	0.265	736761	TEST_ORIENT	n/a	6	4	HOOF	n/a	TEA	HOOF	4	[0, 0, 0]	-999	PAL1	0	R1228M
731.44	0.702	737026	RETRIEVAL_ORIENT_OFF	n/a	1	-999	n/a	n/a	n/a	n/a	4	[0, 0, 0]	-999	PAL1	0	R1228M
732.142	0.0	737728	TEST_PROBE	n/a	6	4	HOOF	n/a	TEA	HOOF	4	[0, 0, 0]	-999	PAL1	0	R1228M
732.142	1.834	737728	REC_START	n/a	6	-999	n/a	n/a	n/a	n/a	4	[0, 0, 0]	-999	PAL1	0	R1228M
733.976	2.183	739562	REC_EVENT	1834	6	4	HOOF	<>	TEA	HOOF	4	[0, 0, 0]	-999	PAL1	0	R1228M
736.159	1.001	741745	PROBE_OFF	n/a	6	-999	n/a	n/a	n/a	n/a	4	[0, 0, 0]	-999	PAL1	0	R1228M
737.16	0.016	742746	REC_END	n/a	6	-999	n/a	n/a	n/a	n/a	4	[0, 0, 0]	-999	PAL1	0	R1228M
737.176	0.266	742762	TEST_ORIENT	n/a	3	5	FOG	n/a	FOG	SOUP	4	[0, 0, 0]	-999	PAL1	0	R1228M
737.442	0.751	743028	RETRIEVAL_ORIENT_OFF	n/a	6	-999	n/a	n/a	n/a	n/a	4	[0, 0, 0]	-999	PAL1	0	R1228M
738.193	0.0	743779	REC_START	n/a	3	-999	n/a	n/a	n/a	n/a	4	[0, 0, 0]	-999	PAL1	0	R1228M
738.193	2.67	743779	TEST_PROBE	n/a	3	5	FOG	n/a	FOG	SOUP	4	[0, 0, 0]	-999	PAL1	0	R1228M
740.863	1.347	746448	REC_EVENT	2670	3	5	FOG	<>	FOG	SOUP	4	[0, 0, 0]	-999	PAL1	0	R1228M
742.21	1.0	747795	PROBE_OFF	n/a	3	-999	n/a	n/a	n/a	n/a	4	[0, 0, 0]	-999	PAL1	0	R1228M
743.21	0.017	748795	REC_END	n/a	3	-999	n/a	n/a	n/a	n/a	4	[0, 0, 0]	-999	PAL1	0	R1228M
743.227	0.267	748812	TEST_ORIENT	n/a	2	6	SOAP	n/a	SOAP	DRUM	4	[0, 0, 0]	-999	PAL1	0	R1228M
743.494	0.633	749079	RETRIEVAL_ORIENT_OFF	n/a	3	-999	n/a	n/a	n/a	n/a	4	[0, 0, 0]	-999	PAL1	0	R1228M
744.127	0.001	749712	TEST_PROBE	n/a	2	6	SOAP	n/a	SOAP	DRUM	4	[0, 0, 0]	-999	PAL1	0	R1228M
744.128	1.346	749713	REC_START	n/a	2	-999	n/a	n/a	n/a	n/a	4	[0, 0, 0]	-999	PAL1	0	R1228M
745.474	2.671	751059	REC_EVENT	1346	2	6	SOAP	<>	SOAP	DRUM	4	[0, 0, 0]	-999	PAL1	0	R1228M
748.145	1.0	753730	PROBE_OFF	n/a	2	-999	n/a	n/a	n/a	n/a	4	[0, 0, 0]	-999	PAL1	0	R1228M
749.145	0.004	754730	REC_END	n/a	2	-999	n/a	n/a	n/a	n/a	4	[0, 0, 0]	-999	PAL1	0	R1228M
749.149	11.414	754734	RECALL_END	n/a	-999	-999	n/a	n/a	n/a	n/a	4	[0, 0, 0]	-999	PAL1	0	R1228M
760.563	10.928	766147	TRIAL	n/a	-999	-999	n/a	n/a	n/a	n/a	5	[0, 0, 0]	-999	PAL1	0	R1228M
771.491	0.008	777075	ENCODING_START	n/a	-999	-999	n/a	n/a	n/a	n/a	5	[0, 0, 0]	-999	PAL1	0	R1228M
771.499	0.267	777083	STUDY_ORIENT	n/a	1	1	TOOL	n/a	STEM	TOOL	5	[0, 0, 0]	-999	PAL1	0	R1228M
771.766	0.599	777350	STUDY_ORIENT_OFF	n/a	1	1	TOOL	n/a	STEM	TOOL	5	[0, 0, 0]	-999	PAL1	0	R1228M
772.365	4.018	777949	STUDY_PAIR	n/a	1	1	TOOL	n/a	STEM	TOOL	5	[0, 0, 0]	-999	PAL1	0	R1228M
776.383	1.016	781966	PAIR_OFF	n/a	1	1	TOOL	n/a	STEM	TOOL	5	[0, 0, 0]	-999	PAL1	0	R1228M
777.399	0.268	782982	STUDY_ORIENT	n/a	2	2	FAN	n/a	FAN	GOAT	5	[0, 0, 0]	-999	PAL1	0	R1228M
777.667	0.699	783250	STUDY_ORIENT_OFF	n/a	2	2	FAN	n/a	FAN	GOAT	5	[0, 0, 0]	-999	PAL1	0	R1228M
778.366	4.018	783949	STUDY_PAIR	n/a	2	2	FAN	n/a	FAN	GOAT	5	[0, 0, 0]	-999	PAL1	0	R1228M
782.384	1.016	787967	PAIR_OFF	n/a	2	2	FAN	n/a	FAN	GOAT	5	[0, 0, 0]	-999	PAL1	0	R1228M
783.4	0.251	788983	STUDY_ORIENT	n/a	3	5	FUR	WOLF	FUR	WOLF	5	[0, 0, 0]	-999	PAL1	0	R1228M
783.651	0.534	789234	STUDY_ORIENT_OFF	n/a	3	5	FUR	WOLF	FUR	WOLF	5	[0, 0, 0]	-999	PAL1	0	R1228M
784.185	4.018	789768	STUDY_PAIR	n/a	3	5	FUR	WOLF	FUR	WOLF	5	[0, 0, 0]	-999	PAL1	0	R1228M
788.203	1.016	793786	PAIR_OFF	n/a	3	5	FUR	WOLF	FUR	WOLF	5	[0, 0, 0]	-999	PAL1	0	R1228M
789.219	0.267	794802	STUDY_ORIENT	n/a	4	4	SCHOOL	SUIT	SCHOOL	SUIT	5	[0, 0, 0]	-999	PAL1	0	R1228M
789.486	0.734	795069	STUDY_ORIENT_OFF	n/a	4	4	SCHOOL	SUIT	SCHOOL	SUIT	5	[0, 0, 0]	-999	PAL1	0	R1228M
790.22	4.017	795803	STUDY_PAIR	n/a	4	4	SCHOOL	SUIT	SCHOOL	SUIT	5	[0, 0, 0]	-999	PAL1	0	R1228M
794.237	1.017	799819	PAIR_OFF	n/a	4	4	SCHOOL	SUIT	SCHOOL	SUIT	5	[0, 0, 0]	-999	PAL1	0	R1228M
795.254	0.267	800836	STUDY_ORIENT	n/a	5	3	PEACH	BOMB	BOMB	PEACH	5	[0, 0, 0]	-999	PAL1	0	R1228M
795.521	0.666	801103	STUDY_ORIENT_OFF	n/a	5	3	PEACH	BOMB	BOMB	PEACH	5	[0, 0, 0]	-999	PAL1	0	R1228M
796.187	4.018	801769	STUDY_PAIR	n/a	5	3	PEACH	BOMB	BOMB	PEACH	5	[0, 0, 0]	-999	PAL1	0	R1228M
800.205	1.017	805787	PAIR_OFF	n/a	5	3	PEACH	BOMB	BOMB	PEACH	5	[0, 0, 0]	-999	PAL1	0	R1228M
801.222	0.266	806804	STUDY_ORIENT	n/a	6	6	HEART	HORSE	HEART	HORSE	5	[0, 0, 0]	-999	PAL1	0	R1228M
801.488	0.75	807070	STUDY_ORIENT_OFF	n/a	6	6	HEART	HORSE	HEART	HORSE	5	[0, 0, 0]	-999	PAL1	0	R1228M
802.238	4.018	807820	STUDY_PAIR	n/a	6	6	HEART	HORSE	HEART	HORSE	5	[0, 0, 0]	-999	PAL1	0	R1228M
806.256	1.001	811838	PAIR_OFF	n/a	6	6	HEART	HORSE	HEART	HORSE	5	[0, 0, 0]	-999	PAL1	0	R1228M
807.257	0.0	812839	MATH_START	n/a	-999	-999	n/a	n/a	n/a	n/a	5	[0, 0, 0]	-999	PAL1	0	R1228M
807.257	0.0	812839	ENCODING_END	n/a	-999	-999	n/a	n/a	n/a	n/a	5	[0, 0, 0]	-999	PAL1	0	R1228M
807.257	0.016	812839	START	n/a	-999	-999	n/a	n/a	n/a	n/a	5	[-999, -999, -999]	-999	PAL1	0	R1228M
807.273	3.534	812855	PROB	3509	-999	-999	n/a	n/a	n/a	n/a	5	[1, 6, 1]	8	PAL1	0	R1228M
810.807	2.566	816388	PROB	2542	-999	-999	n/a	n/a	n/a	n/a	5	[5, 1, 4]	10	PAL1	0	R1228M
813.373	2.618	818954	PROB	2586	-999	-999	n/a	n/a	n/a	n/a	5	[3, 7, 9]	19	PAL1	0	R1228M
815.991	7.952	821572	PROB	7927	-999	-999	n/a	n/a	n/a	n/a	5	[4, 7, 9]	20	PAL1	0	R1228M
823.943	2.466	829524	PROB	2430	-999	-999	n/a	n/a	n/a	n/a	5	[8, 2, 5]	15	PAL1	0	R1228M
826.409	3.23	831990	PROB	3230	-999	-999	n/a	n/a	n/a	n/a	5	[7, 1, 2]	10	PAL1	0	R1228M
829.639	0.005	835219	STOP	n/a	-999	-999	n/a	n/a	n/a	n/a	5	[-999, -999, -999]	-999	PAL1	0	R1228M
829.644	0.0	835224	MATH_END	n/a	-999	-999	n/a	n/a	n/a	n/a	5	[0, 0, 0]	-999	PAL1	0	R1228M
829.644	0.017	835224	RECALL_START	n/a	-999	-999	n/a	n/a	n/a	n/a	5	[0, 0, 0]	-999	PAL1	0	R1228M
829.661	0.266	835241	TEST_ORIENT	n/a	1	1	TOOL	n/a	STEM	TOOL	5	[0, 0, 0]	-999	PAL1	0	R1228M
829.927	0.584	835507	RETRIEVAL_ORIENT_OFF	n/a	-999	-999	n/a	n/a	n/a	n/a	5	[0, 0, 0]	-999	PAL1	0	R1228M
830.511	0.0	836091	TEST_PROBE	n/a	1	1	TOOL	n/a	STEM	TOOL	5	[0, 0, 0]	-999	PAL1	0	R1228M
830.511	3.065	836091	REC_START	n/a	1	-999	n/a	n/a	n/a	n/a	5	[0, 0, 0]	-999	PAL1	0	R1228M
833.576	0.952	839156	REC_EVENT	3065	1	1	TOOL	<>	STEM	TOOL	5	[0, 0, 0]	-999	PAL1	0	R1228M
834.528	1.001	840108	PROBE_OFF	n/a	1	-999	n/a	n/a	n/a	n/a	5	[0, 0, 0]	-999	PAL1	0	R1228M
835.529	0.016	841109	REC_END	n/a	1	-999	n/a	n/a	n/a	n/a	5	[0, 0, 0]	-999	PAL1	0	R1228M
835.545	0.267	841125	TEST_ORIENT	n/a	2	2	FAN	n/a	FAN	GOAT	5	[0, 0, 0]	-999	PAL1	0	R1228M
835.812	0.716	841392	RETRIEVAL_ORIENT_OFF	n/a	1	-999	n/a	n/a	n/a	n/a	5	[0, 0, 0]	-999	PAL1	0	R1228M
836.528	0.001	842108	TEST_PROBE	n/a	2	2	FAN	n/a	FAN	GOAT	5	[0, 0, 0]	-999	PAL1	0	R1228M
836.529	4.017	842109	REC_START	n/a	2	-999	n/a	n/a	n/a	n/a	5	[0, 0, 0]	-999	PAL1	0	R1228M
840.546	0.255	846126	PROBE_OFF	n/a	2	-999	n/a	n/a	n/a	n/a	5	[0, 0, 0]	-999	PAL1	0	R1228M
840.801	0.745	846381	REC_EVENT	4272	2	2	FAN	<>	FAN	GOAT	5	[0, 0, 0]	-999	PAL1	0	R1228M
841.546	0.017	847126	REC_END	n/a	2	-999	n/a	n/a	n/a	n/a	5	[0, 0, 0]	-999	PAL1	0	R1228M
841.563	0.266	847143	TEST_ORIENT	n/a	5	3	PEACH	BOMB	BOMB	PEACH	5	[0, 0, 0]	-999	PAL1	0	R1228M
841.829	0.516	847409	RETRIEVAL_ORIENT_OFF	n/a	2	-999	n/a	n/a	n/a	n/a	5	[0, 0, 0]	-999	PAL1	0	R1228M
842.345	0.001	847925	TEST_PROBE	n/a	5	3	PEACH	BOMB	BOMB	PEACH	5	[0, 0, 0]	-999	PAL1	0	R1228M
842.346	3.132	847926	REC_START	n/a	5	-999	n/a	BOMB	n/a	n/a	5	[0, 0, 0]	-999	PAL1	0	R1228M
845.478	0.885	851057	REC_EVENT	3132	5	3	PEACH	BOMB	BOMB	PEACH	5	[0, 0, 0]	-999	PAL1	0	R1228M
846.363	1.0	851942	PROBE_OFF	n/a	5	-999	n/a	n/a	n/a	n/a	5	[0, 0, 0]	-999	PAL1	0	R1228M
847.363	0.016	852942	REC_END	n/a	5	-999	n/a	n/a	n/a	n/a	5	[0, 0, 0]	-999	PAL1	0	R1228M
847.379	0.251	852958	TEST_ORIENT	n/a	4	4	SCHOOL	SUIT	SCHOOL	SUIT	5	[0, 0, 0]	-999	PAL1	0	R1228M
847.63	0.75	853209	RETRIEVAL_ORIENT_OFF	n/a	5	-999	n/a	n/a	n/a	n/a	5	[0, 0, 0]	-999	PAL1	0	R1228M
848.38	0.0	853959	TEST_PROBE	n/a	4	4	SCHOOL	SUIT	SCHOOL	SUIT	5	[0, 0, 0]	-999	PAL1	0	R1228M
848.38	4.017	853959	REC_START	n/a	4	-999	n/a	SUIT	n/a	n/a	5	[0, 0, 0]	-999	PAL1	0	R1228M
852.397	0.878	857976	PROBE_OFF	n/a	4	-999	n/a	n/a	n/a	n/a	5	[0, 0, 0]	-999	PAL1	0	R1228M
853.275	0.122	858854	REC_EVENT	4895	4	4	SCHOOL	SUIT	SCHOOL	SUIT	5	[0, 0, 0]	-999	PAL1	0	R1228M
853.397	0.017	858976	REC_END	n/a	4	-999	n/a	n/a	n/a	n/a	5	[0, 0, 0]	-999	PAL1	0	R1228M
853.414	0.268	858993	TEST_ORIENT	n/a	3	5	FUR	WOLF	FUR	WOLF	5	[0, 0, 0]	-999	PAL1	0	R1228M
853.682	0.6	859261	RETRIEVAL_ORIENT_OFF	n/a	4	-999	n/a	n/a	n/a	n/a	5	[0, 0, 0]	-999	PAL1	0	R1228M
854.282	0.001	859861	TEST_PROBE	n/a	3	5	FUR	WOLF	FUR	WOLF	5	[0, 0, 0]	-999	PAL1	0	R1228M
854.283	1.382	859862	REC_START	n/a	3	-999	n/a	WOLF	n/a	n/a	5	[0, 0, 0]	-999	PAL1	0	R1228M
855.665	2.634	861244	REC_EVENT	1382	3	5	FUR	WOLF	FUR	WOLF	5	[0, 0, 0]	-999	PAL1	0	R1228M
858.299	1.0	863878	PROBE_OFF	n/a	3	-999	n/a	n/a	n/a	n/a	5	[0, 0, 0]	-999	PAL1	0	R1228M
859.299	0.016	864878	REC_END	n/a	3	-999	n/a	n/a	n/a	n/a	5	[0, 0, 0]	-999	PAL1	0	R1228M
859.315	0.251	864894	TEST_ORIENT	n/a	6	6	HEART	HORSE	HEART	HORSE	5	[0, 0, 0]	-999	PAL1	0	R1228M
859.566	0.584	865145	RETRIEVAL_ORIENT_OFF	n/a	3	-999	n/a	n/a	n/a	n/a	5	[0, 0, 0]	-999	PAL1	0	R1228M
860.15	0.0	865729	TEST_PROBE	n/a	6	6	HEART	HORSE	HEART	HORSE	5	[0, 0, 0]	-999	PAL1	0	R1228M
860.15	1.332	865729	REC_START	n/a	6	-999	n/a	HORSE	n/a	n/a	5	[0, 0, 0]	-999	PAL1	0	R1228M
861.482	2.685	867061	REC_EVENT	1332	6	6	HEART	HORSE	HEART	HORSE	5	[0, 0, 0]	-999	PAL1	0	R1228M
864.167	1.0	869745	PROBE_OFF	n/a	6	-999	n/a	n/a	n/a	n/a	5	[0, 0, 0]	-999	PAL1	0	R1228M
865.167	0.006	870745	REC_END	n/a	6	-999	n/a	n/a	n/a	n/a	5	[0, 0, 0]	-999	PAL1	0	R1228M
865.173	4.495	870751	RECALL_END	n/a	-999	-999	n/a	n/a	n/a	n/a	5	[0, 0, 0]	-999	PAL1	0	R1228M
869.668	10.929	875246	TRIAL	n/a	-999	-999	n/a	n/a	n/a	n/a	6	[0, 0, 0]	-999	PAL1	0	R1228M
880.597	0.007	886174	ENCODING_START	n/a	-999	-999	n/a	n/a	n/a	n/a	6	[0, 0, 0]	-999	PAL1	0	R1228M
880.604	0.266	886181	STUDY_ORIENT	n/a	1	1	KITE	RAIN	RAIN	KITE	6	[0, 0, 0]	-999	PAL1	0	R1228M
880.87	0.617	886447	STUDY_ORIENT_OFF	n/a	1	1	KITE	RAIN	RAIN	KITE	6	[0, 0, 0]	-999	PAL1	0	R1228M
881.487	4.018	887064	STUDY_PAIR	n/a	1	1	KITE	RAIN	RAIN	KITE	6	[0, 0, 0]	-999	PAL1	0	R1228M
885.505	1.017	891082	PAIR_OFF	n/a	1	1	KITE	RAIN	RAIN	KITE	6	[0, 0, 0]	-999	PAL1	0	R1228M
886.522	0.266	892099	STUDY_ORIENT	n/a	2	2	SOCK	n/a	SOCK	RAT	6	[0, 0, 0]	-999	PAL1	0	R1228M
886.788	0.649	892365	STUDY_ORIENT_OFF	n/a	2	2	SOCK	n/a	SOCK	RAT	6	[0, 0, 0]	-999	PAL1	0	R1228M
887.437	4.018	893014	STUDY_PAIR	n/a	2	2	SOCK	n/a	SOCK	RAT	6	[0, 0, 0]	-999	PAL1	0	R1228M
891.455	1.018	897032	PAIR_OFF	n/a	2	2	SOCK	n/a	SOCK	RAT	6	[0, 0, 0]	-999	PAL1	0	R1228M
892.473	0.266	898050	STUDY_ORIENT	n/a	3	5	WING	FLEA	FLEA	WING	6	[0, 0, 0]	-999	PAL1	0	R1228M
892.739	0.734	898316	STUDY_ORIENT_OFF	n/a	3	5	WING	FLEA	FLEA	WING	6	[0, 0, 0]	-999	PAL1	0	R1228M
893.473	4.017	899050	STUDY_PAIR	n/a	3	5	WING	FLEA	FLEA	WING	6	[0, 0, 0]	-999	PAL1	0	R1228M
897.49	1.017	903067	PAIR_OFF	n/a	3	5	WING	FLEA	FLEA	WING	6	[0, 0, 0]	-999	PAL1	0	R1228M
898.507	0.267	904083	STUDY_ORIENT	n/a	4	4	SAIL	BLOOM	SAIL	BLOOM	6	[0, 0, 0]	-999	PAL1	0	R1228M
898.774	0.717	904350	STUDY_ORIENT_OFF	n/a	4	4	SAIL	BLOOM	SAIL	BLOOM	6	[0, 0, 0]	-999	PAL1	0	R1228M
899.491	4.017	905067	STUDY_PAIR	n/a	4	4	SAIL	BLOOM	SAIL	BLOOM	6	[0, 0, 0]	-999	PAL1	0	R1228M
903.508	1.017	909084	PAIR_OFF	n/a	4	4	SAIL	BLOOM	SAIL	BLOOM	6	[0, 0, 0]	-999	PAL1	0	R1228M
904.525	0.267	910101	STUDY_ORIENT	n/a	5	3	DOG	FLEA	COW	DOG	6	[0, 0, 0]	-999	PAL1	0	R1228M
904.792	0.666	910368	STUDY_ORIENT_OFF	n/a	5	3	DOG	FLEA	COW	DOG	6	[0, 0, 0]	-999	PAL1	0	R1228M
905.458	4.018	911034	STUDY_PAIR	n/a	5	3	DOG	FLEA	COW	DOG	6	[0, 0, 0]	-999	PAL1	0	R1228M
909.476	1.017	915052	PAIR_OFF	n/a	5	3	DOG	FLEA	COW	DOG	6	[0, 0, 0]	-999	PAL1	0	R1228M
910.493	0.267	916069	STUDY_ORIENT	n/a	6	6	CART	SHRIMP	SHRIMP	CART	6	[0, 0, 0]	-999	PAL1	0	R1228M
910.76	0.599	916336	STUDY_ORIENT_OFF	n/a	6	6	CART	SHRIMP	SHRIMP	CART	6	[0, 0, 0]	-999	PAL1	0	R1228M
911.359	4.017	916935	STUDY_PAIR	n/a	6	6	CART	SHRIMP	SHRIMP	CART	6	[0, 0, 0]	-999	PAL1	0	R1228M
915.376	1.001	920952	PAIR_OFF	n/a	6	6	CART	SHRIMP	SHRIMP	CART	6	[0, 0, 0]	-999	PAL1	0	R1228M
916.377	0.0	921952	ENCODING_END	n/a	-999	-999	n/a	n/a	n/a	n/a	6	[0, 0, 0]	-999	PAL1	0	R1228M
916.377	0.0	921952	MATH_START	n/a	-999	-999	n/a	n/a	n/a	n/a	6	[0, 0, 0]	-999	PAL1	0	R1228M
916.377	0.016	921952	START	n/a	-999	-999	n/a	n/a	n/a	n/a	6	[-999, -999, -999]	-999	PAL1	0	R1228M
916.393	7.352	921968	PROB	7317	-999	-999	n/a	n/a	n/a	n/a	6	[2, 1, 4]	7	PAL1	0	R1228M
923.745	2.551	929320	PROB	2526	-999	-999	n/a	n/a	n/a	n/a	6	[4, 6, 3]	13	PAL1	0	R1228M
926.296	5.184	931871	PROB	5150	-999	-999	n/a	n/a	n/a	n/a	6	[4, 7, 8]	21	PAL1	0	R1228M
931.48	3.584	937055	PROB	3551	-999	-999	n/a	n/a	n/a	n/a	6	[1, 4, 1]	6	PAL1	0	R1228M
935.064	3.238	940638	PROB	3238	-999	-999	n/a	n/a	n/a	n/a	6	[3, 4, 4]	11	PAL1	0	R1228M
938.302	0.013	943876	STOP	n/a	-999	-999	n/a	n/a	n/a	n/a	6	[-999, -999, -999]	-999	PAL1	0	R1228M
938.315	0.0	943889	MATH_END	n/a	-999	-999	n/a	n/a	n/a	n/a	6	[0, 0, 0]	-999	PAL1	0	R1228M
938.315	0.016	943889	RECALL_START	n/a	-999	-999	n/a	n/a	n/a	n/a	6	[0, 0, 0]	-999	PAL1	0	R1228M
938.331	0.267	943905	TEST_ORIENT	n/a	1	1	KITE	RAIN	RAIN	KITE	6	[0, 0, 0]	-999	PAL1	0	R1228M
938.598	0.584	944172	RETRIEVAL_ORIENT_OFF	n/a	-999	-999	n/a	n/a	n/a	n/a	6	[0, 0, 0]	-999	PAL1	0	R1228M
939.182	0.0	944756	TEST_PROBE	n/a	1	1	KITE	RAIN	RAIN	KITE	6	[0, 0, 0]	-999	PAL1	0	R1228M
939.182	2.112	944756	REC_START	n/a	1	-999	n/a	RAIN	n/a	n/a	6	[0, 0, 0]	-999	PAL1	0	R1228M
941.294	1.905	946868	REC_EVENT	2112	1	1	KITE	RAIN	RAIN	KITE	6	[0, 0, 0]	-999	PAL1	0	R1228M
943.199	1.0	948773	PROBE_OFF	n/a	1	-999	n/a	n/a	n/a	n/a	6	[0, 0, 0]	-999	PAL1	0	R1228M
944.199	0.017	949773	REC_END	n/a	1	-999	n/a	n/a	n/a	n/a	6	[0, 0, 0]	-999	PAL1	0	R1228M
944.216	0.267	949790	TEST_ORIENT	n/a	2	2	SOCK	n/a	SOCK	RAT	6	[0, 0, 0]	-999	PAL1	0	R1228M
944.483	0.65	950057	RETRIEVAL_ORIENT_OFF	n/a	1	-999	n/a	n/a	n/a	n/a	6	[0, 0, 0]	-999	PAL1	0	R1228M
945.133	0.001	950707	TEST_PROBE	n/a	2	2	SOCK	n/a	SOCK	RAT	6	[0, 0, 0]	-999	PAL1	0	R1228M
945.134	1.393	950708	REC_START	n/a	2	-999	n/a	n/a	n/a	n/a	6	[0, 0, 0]	-999	PAL1	0	R1228M
946.527	2.623	952101	REC_EVENT	1393	2	2	SOCK	<>	SOCK	RAT	6	[0, 0, 0]	-999	PAL1	0	R1228M
949.15	1.0	954724	PROBE_OFF	n/a	2	-999	n/a	n/a	n/a	n/a	6	[0, 0, 0]	-999	PAL1	0	R1228M
950.15	0.017	955724	REC_END	n/a	2	-999	n/a	n/a	n/a	n/a	6	[0, 0, 0]	-999	PAL1	0	R1228M
950.167	0.266	955741	TEST_ORIENT	n/a	5	3	DOG	FLEA	COW	DOG	6	[0, 0, 0]	-999	PAL1	0	R1228M
950.433	0.634	956007	RETRIEVAL_ORIENT_OFF	n/a	2	-999	n/a	n/a	n/a	n/a	6	[0, 0, 0]	-999	PAL1	0	R1228M
951.067	0.001	956641	TEST_PROBE	n/a	5	3	DOG	FLEA	COW	DOG	6	[0, 0, 0]	-999	PAL1	0	R1228M
951.068	2.493	956642	REC_START	n/a	5	-999	n/a	FLEA	n/a	n/a	6	[0, 0, 0]	-999	PAL1	0	R1228M
953.561	1.524	959134	REC_EVENT	2493	5	3	DOG	FLEA	COW	DOG	6	[0, 0, 0]	-999	PAL1	0	R1228M
955.085	1.0	960658	PROBE_OFF	n/a	5	-999	n/a	n/a	n/a	n/a	6	[0, 0, 0]	-999	PAL1	0	R1228M
956.085	0.016	961658	REC_END	n/a	5	-999	n/a	n/a	n/a	n/a	6	[0, 0, 0]	-999	PAL1	0	R1228M
956.101	0.266	961674	TEST_ORIENT	n/a	4	4	SAIL	BLOOM	SAIL	BLOOM	6	[0, 0, 0]	-999	PAL1	0	R1228M
956.367	0.651	961940	RETRIEVAL_ORIENT_OFF	n/a	5	-999	n/a	n/a	n/a	n/a	6	[0, 0, 0]	-999	PAL1	0	R1228M
957.018	0.001	962591	TEST_PROBE	n/a	4	4	SAIL	BLOOM	SAIL	BLOOM	6	[0, 0, 0]	-999	PAL1	0	R1228M
957.019	1.883	962592	REC_START	n/a	4	-999	n/a	BLOOM	n/a	n/a	6	[0, 0, 0]	-999	PAL1	0	R1228M
958.902	2.134	964475	REC_EVENT	1883	4	4	SAIL	BLOOM	SAIL	BLOOM	6	[0, 0, 0]	-999	PAL1	0	R1228M
961.036	1.0	966609	PROBE_OFF	n/a	4	-999	n/a	n/a	n/a	n/a	6	[0, 0, 0]	-999	PAL1	0	R1228M
962.036	0.017	967609	REC_END	n/a	4	-999	n/a	n/a	n/a	n/a	6	[0, 0, 0]	-999	PAL1	0	R1228M
962.053	0.266	967626	TEST_ORIENT	n/a	3	5	WING	FLEA	FLEA	WING	6	[0, 0, 0]	-999	PAL1	0	R1228M
962.319	0.734	967892	RETRIEVAL_ORIENT_OFF	n/a	4	-999	n/a	n/a	n/a	n/a	6	[0, 0, 0]	-999	PAL1	0	R1228M
963.053	0.0	968626	REC_START	n/a	3	-999	n/a	FLEA	n/a	n/a	6	[0, 0, 0]	-999	PAL1	0	R1228M
963.053	3.431	968626	TEST_PROBE	n/a	3	5	WING	FLEA	FLEA	WING	6	[0, 0, 0]	-999	PAL1	0	R1228M
966.484	0.586	972057	REC_EVENT	3431	3	5	WING	FLEA	FLEA	WING	6	[0, 0, 0]	-999	PAL1	0	R1228M
967.07	1.0	972643	PROBE_OFF	n/a	3	-999	n/a	n/a	n/a	n/a	6	[0, 0, 0]	-999	PAL1	0	R1228M
968.07	0.017	973643	REC_END	n/a	3	-999	n/a	n/a	n/a	n/a	6	[0, 0, 0]	-999	PAL1	0	R1228M
968.087	0.266	973660	TEST_ORIENT	n/a	6	6	CART	SHRIMP	SHRIMP	CART	6	[0, 0, 0]	-999	PAL1	0	R1228M
968.353	0.718	973926	RETRIEVAL_ORIENT_OFF	n/a	3	-999	n/a	n/a	n/a	n/a	6	[0, 0, 0]	-999	PAL1	0	R1228M
969.071	0.0	974643	TEST_PROBE	n/a	6	6	CART	SHRIMP	SHRIMP	CART	6	[0, 0, 0]	-999	PAL1	0	R1228M
969.071	3.941	974643	REC_START	n/a	6	-999	n/a	SHRIMP	n/a	n/a	6	[0, 0, 0]	-999	PAL1	0	R1228M
973.012	0.076	978584	REC_EVENT	3941	6	6	CART	SHRIMP	SHRIMP	CART	6	[0, 0, 0]	-999	PAL1	0	R1228M
973.088	1.0	978660	PROBE_OFF	n/a	6	-999	n/a	n/a	n/a	n/a	6	[0, 0, 0]	-999	PAL1	0	R1228M
974.088	0.006	979660	REC_END	n/a	6	-999	n/a	n/a	n/a	n/a	6	[0, 0, 0]	-999	PAL1	0	R1228M
974.094	20.331	979666	RECALL_END	n/a	-999	-999	n/a	n/a	n/a	n/a	6	[0, 0, 0]	-999	PAL1	0	R1228M
994.425	10.928	999996	TRIAL	n/a	-999	-999	n/a	n/a	n/a	n/a	7	[0, 0, 0]	-999	PAL1	0	R1228M
1005.353	0.007	1010923	ENCODING_START	n/a	-999	-999	n/a	n/a	n/a	n/a	7	[0, 0, 0]	-999	PAL1	0	R1228M
1005.36	0.268	1010930	STUDY_ORIENT	n/a	1	1	LIP	n/a	LIP	TREE	7	[0, 0, 0]	-999	PAL1	0	R1228M
1005.628	0.65	1011198	STUDY_ORIENT_OFF	n/a	1	1	LIP	n/a	LIP	TREE	7	[0, 0, 0]	-999	PAL1	0	R1228M
1006.278	4.018	1011848	STUDY_PAIR	n/a	1	1	LIP	n/a	LIP	TREE	7	[0, 0, 0]	-999	PAL1	0	R1228M
1010.296	1.016	1015866	PAIR_OFF	n/a	1	1	LIP	n/a	LIP	TREE	7	[0, 0, 0]	-999	PAL1	0	R1228M
1011.312	0.267	1016882	STUDY_ORIENT	n/a	2	6	JUDGE	n/a	JUDGE	TOAST	7	[0, 0, 0]	-999	PAL1	0	R1228M
1011.579	0.684	1017149	STUDY_ORIENT_OFF	n/a	2	6	JUDGE	n/a	JUDGE	TOAST	7	[0, 0, 0]	-999	PAL1	0	R1228M
1012.263	4.017	1017833	STUDY_PAIR	n/a	2	6	JUDGE	n/a	JUDGE	TOAST	7	[0, 0, 0]	-999	PAL1	0	R1228M
1016.28	1.017	1021850	PAIR_OFF	n/a	2	6	JUDGE	n/a	JUDGE	TOAST	7	[0, 0, 0]	-999	PAL1	0	R1228M
1017.297	0.267	1022867	STUDY_ORIENT	n/a	3	3	CLOTH	n/a	MOON	CLOTH	7	[0, 0, 0]	-999	PAL1	0	R1228M
1017.564	0.616	1023134	STUDY_ORIENT_OFF	n/a	3	3	CLOTH	n/a	MOON	CLOTH	7	[0, 0, 0]	-999	PAL1	0	R1228M
1018.18	4.018	1023750	STUDY_PAIR	n/a	3	3	CLOTH	n/a	MOON	CLOTH	7	[0, 0, 0]	-999	PAL1	0	R1228M
1022.198	1.017	1027767	PAIR_OFF	n/a	3	3	CLOTH	n/a	MOON	CLOTH	7	[0, 0, 0]	-999	PAL1	0	R1228M
1023.215	0.266	1028784	STUDY_ORIENT	n/a	4	2	AXE	n/a	TRAY	AXE	7	[0, 0, 0]	-999	PAL1	0	R1228M
1023.481	0.684	1029050	STUDY_ORIENT_OFF	n/a	4	2	AXE	n/a	TRAY	AXE	7	[0, 0, 0]	-999	PAL1	0	R1228M
1024.165	4.017	1029734	STUDY_PAIR	n/a	4	2	AXE	n/a	TRAY	AXE	7	[0, 0, 0]	-999	PAL1	0	R1228M
1028.182	1.017	1033751	PAIR_OFF	n/a	4	2	AXE	n/a	TRAY	AXE	7	[0, 0, 0]	-999	PAL1	0	R1228M
1029.199	0.267	1034768	STUDY_ORIENT	n/a	5	5	LEAF	n/a	HAT	LEAF	7	[0, 0, 0]	-999	PAL1	0	R1228M
1029.466	0.6	1035035	STUDY_ORIENT_OFF	n/a	5	5	LEAF	n/a	HAT	LEAF	7	[0, 0, 0]	-999	PAL1	0	R1228M
1030.066	4.017	1035635	STUDY_PAIR	n/a	5	5	LEAF	n/a	HAT	LEAF	7	[0, 0, 0]	-999	PAL1	0	R1228M
1034.083	1.017	1039652	PAIR_OFF	n/a	5	5	LEAF	n/a	HAT	LEAF	7	[0, 0, 0]	-999	PAL1	0	R1228M
1035.1	0.266	1040669	STUDY_ORIENT	n/a	6	4	WEB	CONE	CONE	WEB	7	[0, 0, 0]	-999	PAL1	0	R1228M
1035.366	0.634	1040935	STUDY_ORIENT_OFF	n/a	6	4	WEB	CONE	CONE	WEB	7	[0, 0, 0]	-999	PAL1	0	R1228M
1036.0	4.018	1041569	STUDY_PAIR	n/a	6	4	WEB	CONE	CONE	WEB	7	[0, 0, 0]	-999	PAL1	0	R1228M
1040.018	1.0	1045586	PAIR_OFF	n/a	6	4	WEB	CONE	CONE	WEB	7	[0, 0, 0]	-999	PAL1	0	R1228M
1041.018	0.0	1046586	ENCODING_END	n/a	-999	-999	n/a	n/a	n/a	n/a	7	[0, 0, 0]	-999	PAL1	0	R1228M
1041.018	0.0	1046586	MATH_START	n/a	-999	-999	n/a	n/a	n/a	n/a	7	[0, 0, 0]	-999	PAL1	0	R1228M
1041.018	0.017	1046586	START	n/a	-999	-999	n/a	n/a	n/a	n/a	7	[-999, -999, -999]	-999	PAL1	0	R1228M
1041.035	4.451	1046603	PROB	4418	-999	-999	n/a	n/a	n/a	n/a	7	[1, 5, 9]	15	PAL1	0	R1228M
1045.486	4.3	1051054	PROB	4264	-999	-999	n/a	n/a	n/a	n/a	7	[9, 1, 9]	19	PAL1	0	R1228M
1049.786	3.567	1055354	PROB	3531	-999	-999	n/a	n/a	n/a	n/a	7	[3, 6, 1]	10	PAL1	0	R1228M
1053.353	3.468	1058921	PROB	3446	-999	-999	n/a	n/a	n/a	n/a	7	[5, 3, 3]	11	PAL1	0	R1228M
1056.821	3.184	1062389	PROB	3162	-999	-999	n/a	n/a	n/a	n/a	7	[3, 3, 6]	12	PAL1	0	R1228M
1060.005	2.905	1065572	PROB	2905	-999	-999	n/a	n/a	n/a	n/a	7	[7, 5, 5]	17	PAL1	0	R1228M
1062.91	0.012	1068477	STOP	n/a	-999	-999	n/a	n/a	n/a	n/a	7	[-999, -999, -999]	-999	PAL1	0	R1228M
1062.922	0.001	1068489	MATH_END	n/a	-999	-999	n/a	n/a	n/a	n/a	7	[0, 0, 0]	-999	PAL1	0	R1228M
1062.923	0.016	1068490	RECALL_START	n/a	-999	-999	n/a	n/a	n/a	n/a	7	[0, 0, 0]	-999	PAL1	0	R1228M
1062.939	0.267	1068506	TEST_ORIENT	n/a	1	1	LIP	n/a	LIP	TREE	7	[0, 0, 0]	-999	PAL1	0	R1228M
1063.206	0.667	1068773	RETRIEVAL_ORIENT_OFF	n/a	-999	-999	n/a	n/a	n/a	n/a	7	[0, 0, 0]	-999	PAL1	0	R1228M
1063.873	0.0	1069440	TEST_PROBE	n/a	1	1	LIP	n/a	LIP	TREE	7	[0, 0, 0]	-999	PAL1	0	R1228M
1063.873	1.393	1069440	REC_START	n/a	1	-999	n/a	n/a	n/a	n/a	7	[0, 0, 0]	-999	PAL1	0	R1228M
1065.266	2.624	1070833	REC_EVENT	1393	1	1	LIP	<>	LIP	TREE	7	[0, 0, 0]	-999	PAL1	0	R1228M
1067.89	1.0	1073457	PROBE_OFF	n/a	1	-999	n/a	n/a	n/a	n/a	7	[0, 0, 0]	-999	PAL1	0	R1228M
1068.89	0.017	1074457	REC_END	n/a	1	-999	n/a	n/a	n/a	n/a	7	[0, 0, 0]	-999	PAL1	0	R1228M
1068.907	0.267	1074474	TEST_ORIENT	n/a	4	2	AXE	n/a	TRAY	AXE	7	[0, 0, 0]	-999	PAL1	0	R1228M
1069.174	0.666	1074741	RETRIEVAL_ORIENT_OFF	n/a	1	-999	n/a	n/a	n/a	n/a	7	[0, 0, 0]	-999	PAL1	0	R1228M
1069.84	0.001	1075407	TEST_PROBE	n/a	4	2	AXE	n/a	TRAY	AXE	7	[0, 0, 0]	-999	PAL1	0	R1228M
1069.841	0.696	1075408	REC_START	n/a	4	-999	n/a	n/a	n/a	n/a	7	[0, 0, 0]	-999	PAL1	0	R1228M
1070.537	3.304	1076104	REC_EVENT	696	4	2	AXE	<>	TRAY	AXE	7	[0, 0, 0]	-999	PAL1	0	R1228M
1073.841	1.001	1079408	PROBE_OFF	n/a	4	-999	n/a	n/a	n/a	n/a	7	[0, 0, 0]	-999	PAL1	0	R1228M
1074.842	0.016	1080409	REC_END	n/a	4	-999	n/a	n/a	n/a	n/a	7	[0, 0, 0]	-999	PAL1	0	R1228M
1074.858	0.267	1080425	TEST_ORIENT	n/a	3	3	CLOTH	n/a	MOON	CLOTH	7	[0, 0, 0]	-999	PAL1	0	R1228M
1075.125	0.583	1080692	RETRIEVAL_ORIENT_OFF	n/a	4	-999	n/a	n/a	n/a	n/a	7	[0, 0, 0]	-999	PAL1	0	R1228M
1075.708	0.001	1081274	TEST_PROBE	n/a	3	3	CLOTH	n/a	MOON	CLOTH	7	[0, 0, 0]	-999	PAL1	0	R1228M
1075.709	2.786	1081275	REC_START	n/a	3	-999	n/a	n/a	n/a	n/a	7	[0, 0, 0]	-999	PAL1	0	R1228M
1078.495	1.231	1084061	REC_EVENT	2786	3	3	CLOTH	<>	MOON	CLOTH	7	[0, 0, 0]	-999	PAL1	0	R1228M
1079.726	1.0	1085292	PROBE_OFF	n/a	3	-999	n/a	n/a	n/a	n/a	7	[0, 0, 0]	-999	PAL1	0	R1228M
1080.726	0.016	1086292	REC_END	n/a	3	-999	n/a	n/a	n/a	n/a	7	[0, 0, 0]	-999	PAL1	0	R1228M
1080.742	0.267	1086308	TEST_ORIENT	n/a	6	4	WEB	CONE	CONE	WEB	7	[0, 0, 0]	-999	PAL1	0	R1228M
1081.009	0.534	1086575	RETRIEVAL_ORIENT_OFF	n/a	3	-999	n/a	n/a	n/a	n/a	7	[0, 0, 0]	-999	PAL1	0	R1228M
1081.543	0.0	1087109	TEST_PROBE	n/a	6	4	WEB	CONE	CONE	WEB	7	[0, 0, 0]	-999	PAL1	0	R1228M
1081.543	2.091	1087109	REC_START	n/a	6	-999	n/a	CONE	n/a	n/a	7	[0, 0, 0]	-999	PAL1	0	R1228M
1083.634	1.926	1089200	REC_EVENT	2091	6	4	WEB	CONE	CONE	WEB	7	[0, 0, 0]	-999	PAL1	0	R1228M
1085.56	1.0	1091126	PROBE_OFF	n/a	6	-999	n/a	n/a	n/a	n/a	7	[0, 0, 0]	-999	PAL1	0	R1228M
1086.56	0.017	1092126	REC_END	n/a	6	-999	n/a	n/a	n/a	n/a	7	[0, 0, 0]	-999	PAL1	0	R1228M
1086.577	0.267	1092143	TEST_ORIENT	n/a	5	5	LEAF	n/a	HAT	LEAF	7	[0, 0, 0]	-999	PAL1	0	R1228M
1086.844	0.667	1092410	RETRIEVAL_ORIENT_OFF	n/a	6	-999	n/a	n/a	n/a	n/a	7	[0, 0, 0]	-999	PAL1	0	R1228M
1087.511	0.0	1093077	REC_START	n/a	5	-999	n/a	n/a	n/a	n/a	7	[0, 0, 0]	-999	PAL1	0	R1228M
1087.511	0.696	1093077	TEST_PROBE	n/a	5	5	LEAF	n/a	HAT	LEAF	7	[0, 0, 0]	-999	PAL1	0	R1228M
1088.207	3.321	1093773	REC_EVENT	696	5	5	LEAF	<>	HAT	LEAF	7	[0, 0, 0]	-999	PAL1	0	R1228M
1091.528	1.001	1097094	PROBE_OFF	n/a	5	-999	n/a	n/a	n/a	n/a	7	[0, 0, 0]	-999	PAL1	0	R1228M
1092.529	0.016	1098095	REC_END	n/a	5	-999	n/a	n/a	n/a	n/a	7	[0, 0, 0]	-999	PAL1	0	R1228M
1092.545	0.267	1098111	TEST_ORIENT	n/a	2	6	JUDGE	n/a	JUDGE	TOAST	7	[0, 0, 0]	-999	PAL1	0	R1228M
1092.812	0.582	1098378	RETRIEVAL_ORIENT_OFF	n/a	5	-999	n/a	n/a	n/a	n/a	7	[0, 0, 0]	-999	PAL1	0	R1228M
1093.394	0.001	1098959	TEST_PROBE	n/a	2	6	JUDGE	n/a	JUDGE	TOAST	7	[0, 0, 0]	-999	PAL1	0	R1228M
1093.395	3.972	1098960	REC_START	n/a	2	-999	n/a	n/a	n/a	n/a	7	[0, 0, 0]	-999	PAL1	0	R1228M
1097.367	0.044	1102932	REC_EVENT	3972	2	6	JUDGE	<>	JUDGE	TOAST	7	[0, 0, 0]	-999	PAL1	0	R1228M
1097.411	1.0	1102976	PROBE_OFF	n/a	2	-999	n/a	n/a	n/a	n/a	7	[0, 0, 0]	-999	PAL1	0	R1228M
1098.411	0.011	1103976	REC_END	n/a	2	-999	n/a	n/a	n/a	n/a	7	[0, 0, 0]	-999	PAL1	0	R1228M
1098.422	5.625	1103987	RECALL_END	n/a	-999	-999	n/a	n/a	n/a	n/a	7	[0, 0, 0]	-999	PAL1	0	R1228M
1104.047	10.929	1109612	TRIAL	n/a	-999	-999	n/a	n/a	n/a	n/a	8	[0, 0, 0]	-999	PAL1	0	R1228M
1114.976	0.006	1120540	ENCODING_START	n/a	-999	-999	n/a	n/a	n/a	n/a	8	[0, 0, 0]	-999	PAL1	0	R1228M
1114.982	0.267	1120546	STUDY_ORIENT	n/a	1	5	ROOT	n/a	BUSH	ROOT	8	[0, 0, 0]	-999	PAL1	0	R1228M
1115.249	0.65	1120813	STUDY_ORIENT_OFF	n/a	1	5	ROOT	n/a	BUSH	ROOT	8	[0, 0, 0]	-999	PAL1	0	R1228M
1115.899	4.001	1121463	STUDY_PAIR	n/a	1	5	ROOT	n/a	BUSH	ROOT	8	[0, 0, 0]	-999	PAL1	0	R1228M
1119.9	1.017	1125464	PAIR_OFF	n/a	1	5	ROOT	n/a	BUSH	ROOT	8	[0, 0, 0]	-999	PAL1	0	R1228M
1120.917	0.267	1126481	STUDY_ORIENT	n/a	2	6	SEAT	PEA	SEAT	PEA	8	[0, 0, 0]	-999	PAL1	0	R1228M
1121.184	0.516	1126748	STUDY_ORIENT_OFF	n/a	2	6	SEAT	PEA	SEAT	PEA	8	[0, 0, 0]	-999	PAL1	0	R1228M
1121.7	4.018	1127264	STUDY_PAIR	n/a	2	6	SEAT	PEA	SEAT	PEA	8	[0, 0, 0]	-999	PAL1	0	R1228M
1125.718	1.017	1131282	PAIR_OFF	n/a	2	6	SEAT	PEA	SEAT	PEA	8	[0, 0, 0]	-999	PAL1	0	R1228M
1126.735	0.266	1132299	STUDY_ORIENT	n/a	3	1	TRASH	GEESE	GEESE	TRASH	8	[0, 0, 0]	-999	PAL1	0	R1228M
1127.001	0.734	1132565	STUDY_ORIENT_OFF	n/a	3	1	TRASH	GEESE	GEESE	TRASH	8	[0, 0, 0]	-999	PAL1	0	R1228M
1127.735	4.017	1133299	STUDY_PAIR	n/a	3	1	TRASH	GEESE	GEESE	TRASH	8	[0, 0, 0]	-999	PAL1	0	R1228M
1131.752	1.017	1137315	PAIR_OFF	n/a	3	1	TRASH	GEESE	GEESE	TRASH	8	[0, 0, 0]	-999	PAL1	0	R1228M
1132.769	0.267	1138332	STUDY_ORIENT	n/a	4	2	THREAD	n/a	THREAD	BADGE	8	[0, 0, 0]	-999	PAL1	0	R1228M
1133.036	0.717	1138599	STUDY_ORIENT_OFF	n/a	4	2	THREAD	n/a	THREAD	BADGE	8	[0, 0, 0]	-999	PAL1	0	R1228M
1133.753	4.017	1139316	STUDY_PAIR	n/a	4	2	THREAD	n/a	THREAD	BADGE	8	[0, 0, 0]	-999	PAL1	0	R1228M
1137.77	1.017	1143333	PAIR_OFF	n/a	4	2	THREAD	n/a	THREAD	BADGE	8	[0, 0, 0]	-999	PAL1	0	R1228M
1138.787	0.267	1144350	STUDY_ORIENT	n/a	5	3	CAT	VINE	VINE	CAT	8	[0, 0, 0]	-999	PAL1	0	R1228M
1139.054	0.567	1144617	STUDY_ORIENT_OFF	n/a	5	3	CAT	VINE	VINE	CAT	8	[0, 0, 0]	-999	PAL1	0	R1228M
1139.621	4.017	1145184	STUDY_PAIR	n/a	5	3	CAT	VINE	VINE	CAT	8	[0, 0, 0]	-999	PAL1	0	R1228M
1143.638	1.017	1149201	PAIR_OFF	n/a	5	3	CAT	VINE	VINE	CAT	8	[0, 0, 0]	-999	PAL1	0	R1228M
1144.655	0.267	1150218	STUDY_ORIENT	n/a	6	4	SKI	LINE	BREAD	SKI	8	[0, 0, 0]	-999	PAL1	0	R1228M
1144.922	0.65	1150485	STUDY_ORIENT_OFF	n/a	6	4	SKI	LINE	BREAD	SKI	8	[0, 0, 0]	-999	PAL1	0	R1228M
1145.572	4.017	1151135	STUDY_PAIR	n/a	6	4	SKI	LINE	BREAD	SKI	8	[0, 0, 0]	-999	PAL1	0	R1228M
1149.589	1.0	1155151	PAIR_OFF	n/a	6	4	SKI	LINE	BREAD	SKI	8	[0, 0, 0]	-999	PAL1	0	R1228M
1150.589	0.0	1156151	ENCODING_END	n/a	-999	-999	n/a	n/a	n/a	n/a	8	[0, 0, 0]	-999	PAL1	0	R1228M
1150.589	0.001	1156151	MATH_START	n/a	-999	-999	n/a	n/a	n/a	n/a	8	[0, 0, 0]	-999	PAL1	0	R1228M
1150.59	0.016	1156152	START	n/a	-999	-999	n/a	n/a	n/a	n/a	8	[-999, -999, -999]	-999	PAL1	0	R1228M
1150.606	3.134	1156168	PROB	3096	-999	-999	n/a	n/a	n/a	n/a	8	[8, 4, 4]	16	PAL1	0	R1228M
1153.74	2.25	1159302	PROB	2226	-999	-999	n/a	n/a	n/a	n/a	8	[1, 2, 1]	4	PAL1	0	R1228M
1155.99	2.168	1161552	PROB	2137	-999	-999	n/a	n/a	n/a	n/a	8	[7, 3, 4]	14	PAL1	0	R1228M
1158.158	2.95	1163720	PROB	2920	-999	-999	n/a	n/a	n/a	n/a	8	[8, 5, 4]	17	PAL1	0	R1228M
1161.108	5.985	1166670	PROB	5963	-999	-999	n/a	n/a	n/a	n/a	8	[9, 5, 9]	23	PAL1	0	R1228M
1167.093	4.018	1172654	PROB	4018	-999	-999	n/a	n/a	n/a	n/a	8	[3, 8, 7]	18	PAL1	0	R1228M
1171.111	0.016	1176672	STOP	n/a	-999	-999	n/a	n/a	n/a	n/a	8	[-999, -999, -999]	-999	PAL1	0	R1228M
1171.127	0.0	1176688	MATH_END	n/a	-999	-999	n/a	n/a	n/a	n/a	8	[0, 0, 0]	-999	PAL1	0	R1228M
1171.127	0.016	1176688	RECALL_START	n/a	-999	-999	n/a	n/a	n/a	n/a	8	[0, 0, 0]	-999	PAL1	0	R1228M
1171.143	0.266	1176704	TEST_ORIENT	n/a	3	1	TRASH	GEESE	GEESE	TRASH	8	[0, 0, 0]	-999	PAL1	0	R1228M
1171.409	0.735	1176970	RETRIEVAL_ORIENT_OFF	n/a	-999	-999	n/a	n/a	n/a	n/a	8	[0, 0, 0]	-999	PAL1	0	R1228M
1172.144	0.0	1177705	TEST_PROBE	n/a	3	1	TRASH	GEESE	GEESE	TRASH	8	[0, 0, 0]	-999	PAL1	0	R1228M
1172.144	4.017	1177705	REC_START	n/a	3	-999	n/a	GEESE	n/a	n/a	8	[0, 0, 0]	-999	PAL1	0	R1228M
1176.161	0.476	1181722	PROBE_OFF	n/a	3	-999	n/a	n/a	n/a	n/a	8	[0, 0, 0]	-999	PAL1	0	R1228M
1176.637	0.524	1182198	REC_EVENT	4493	3	1	TRASH	GEESE	GEESE	TRASH	8	[0, 0, 0]	-999	PAL1	0	R1228M
1177.161	0.017	1182722	REC_END	n/a	3	-999	n/a	n/a	n/a	n/a	8	[0, 0, 0]	-999	PAL1	0	R1228M
1177.178	0.266	1182739	TEST_ORIENT	n/a	4	2	THREAD	n/a	THREAD	BADGE	8	[0, 0, 0]	-999	PAL1	0	R1228M
1177.444	0.651	1183005	RETRIEVAL_ORIENT_OFF	n/a	3	-999	n/a	n/a	n/a	n/a	8	[0, 0, 0]	-999	PAL1	0	R1228M
1178.095	0.0	1183656	TEST_PROBE	n/a	4	2	THREAD	n/a	THREAD	BADGE	8	[0, 0, 0]	-999	PAL1	0	R1228M
1178.095	2.009	1183656	REC_START	n/a	4	-999	n/a	n/a	n/a	n/a	8	[0, 0, 0]	-999	PAL1	0	R1228M
1180.104	2.008	1185665	REC_EVENT	2009	4	2	THREAD	<>	THREAD	BADGE	8	[0, 0, 0]	-999	PAL1	0	R1228M
1182.112	1.001	1187672	PROBE_OFF	n/a	4	-999	n/a	n/a	n/a	n/a	8	[0, 0, 0]	-999	PAL1	0	R1228M
1183.113	0.016	1188673	REC_END	n/a	4	-999	n/a	n/a	n/a	n/a	8	[0, 0, 0]	-999	PAL1	0	R1228M
1183.129	0.266	1188689	TEST_ORIENT	n/a	5	3	CAT	VINE	VINE	CAT	8	[0, 0, 0]	-999	PAL1	0	R1228M
1183.395	0.584	1188955	RETRIEVAL_ORIENT_OFF	n/a	4	-999	n/a	n/a	n/a	n/a	8	[0, 0, 0]	-999	PAL1	0	R1228M
1183.979	0.001	1189539	TEST_PROBE	n/a	5	3	CAT	VINE	VINE	CAT	8	[0, 0, 0]	-999	PAL1	0	R1228M
1183.98	3.082	1189540	REC_START	n/a	5	-999	n/a	VINE	n/a	n/a	8	[0, 0, 0]	-999	PAL1	0	R1228M
1187.062	0.935	1192622	REC_EVENT	3082	5	3	CAT	VINE	VINE	CAT	8	[0, 0, 0]	-999	PAL1	0	R1228M
1187.997	1.0	1193557	PROBE_OFF	n/a	5	-999	n/a	n/a	n/a	n/a	8	[0, 0, 0]	-999	PAL1	0	R1228M
1188.997	0.016	1194557	REC_END	n/a	5	-999	n/a	n/a	n/a	n/a	8	[0, 0, 0]	-999	PAL1	0	R1228M
1189.013	0.267	1194573	TEST_ORIENT	n/a	6	4	SKI	LINE	BREAD	SKI	8	[0, 0, 0]	-999	PAL1	0	R1228M
1189.28	0.534	1194840	RETRIEVAL_ORIENT_OFF	n/a	5	-999	n/a	n/a	n/a	n/a	8	[0, 0, 0]	-999	PAL1	0	R1228M
1189.814	0.0	1195374	TEST_PROBE	n/a	6	4	SKI	LINE	BREAD	SKI	8	[0, 0, 0]	-999	PAL1	0	R1228M
1189.814	3.76	1195374	REC_START	n/a	6	-999	n/a	LINE	n/a	n/a	8	[0, 0, 0]	-999	PAL1	0	R1228M
1193.574	0.257	1199134	REC_EVENT	3760	6	4	SKI	LINE	BREAD	SKI	8	[0, 0, 0]	-999	PAL1	0	R1228M
1193.831	1.0	1199391	PROBE_OFF	n/a	6	-999	n/a	n/a	n/a	n/a	8	[0, 0, 0]	-999	PAL1	0	R1228M
1194.831	0.017	1200391	REC_END	n/a	6	-999	n/a	n/a	n/a	n/a	8	[0, 0, 0]	-999	PAL1	0	R1228M
1194.848	0.267	1200408	TEST_ORIENT	n/a	1	5	ROOT	n/a	BUSH	ROOT	8	[0, 0, 0]	-999	PAL1	0	R1228M
1195.115	0.683	1200675	RETRIEVAL_ORIENT_OFF	n/a	6	-999	n/a	n/a	n/a	n/a	8	[0, 0, 0]	-999	PAL1	0	R1228M
1195.798	0.001	1201358	TEST_PROBE	n/a	1	5	ROOT	n/a	BUSH	ROOT	8	[0, 0, 0]	-999	PAL1	0	R1228M
1195.799	3.877	1201359	REC_START	n/a	1	-999	n/a	n/a	n/a	n/a	8	[0, 0, 0]	-999	PAL1	0	R1228M
1199.676	0.14	1205235	REC_EVENT	3877	1	5	ROOT	<>	BUSH	ROOT	8	[0, 0, 0]	-999	PAL1	0	R1228M
1199.816	1.012	1205375	PROBE_OFF	n/a	1	-999	n/a	n/a	n/a	n/a	8	[0, 0, 0]	-999	PAL1	0	R1228M
1200.828	0.021	1206387	REC_END	n/a	1	-999	n/a	n/a	n/a	n/a	8	[0, 0, 0]	-999	PAL1	0	R1228M
1200.849	0.267	1206408	TEST_ORIENT	n/a	2	6	SEAT	PEA	SEAT	PEA	8	[0, 0, 0]	-999	PAL1	0	R1228M
1201.116	0.583	1206675	RETRIEVAL_ORIENT_OFF	n/a	1	-999	n/a	n/a	n/a	n/a	8	[0, 0, 0]	-999	PAL1	0	R1228M
1201.699	0.001	1207258	TEST_PROBE	n/a	2	6	SEAT	PEA	SEAT	PEA	8	[0, 0, 0]	-999	PAL1	0	R1228M
1201.7	3.906	1207259	REC_START	n/a	2	-999	n/a	PEA	n/a	n/a	8	[0, 0, 0]	-999	PAL1	0	R1228M
1205.606	0.111	1211165	REC_EVENT	3906	2	6	SEAT	PEA	SEAT	PEA	8	[0, 0, 0]	-999	PAL1	0	R1228M
1205.717	1.0	1211276	PROBE_OFF	n/a	2	-999	n/a	n/a	n/a	n/a	8	[0, 0, 0]	-999	PAL1	0	R1228M
1206.717	0.012	1212276	REC_END	n/a	2	-999	n/a	n/a	n/a	n/a	8	[0, 0, 0]	-999	PAL1	0	R1228M
1206.729	13.69	1212288	RECALL_END	n/a	-999	-999	n/a	n/a	n/a	n/a	8	[0, 0, 0]	-999	PAL1	0	R1228M
1220.419	10.929	1225977	TRIAL	n/a	-999	-999	n/a	n/a	n/a	n/a	9	[0, 0, 0]	-999	PAL1	0	R1228M
1231.348	0.006	1236906	ENCODING_START	n/a	-999	-999	n/a	n/a	n/a	n/a	9	[0, 0, 0]	-999	PAL1	0	R1228M
1231.354	0.268	1236912	STUDY_ORIENT	n/a	1	1	SPRING	LAMB	SPRING	LAMB	9	[0, 0, 0]	-999	PAL1	0	R1228M
1231.622	0.716	1237180	STUDY_ORIENT_OFF	n/a	1	1	SPRING	LAMB	SPRING	LAMB	9	[0, 0, 0]	-999	PAL1	0	R1228M
1232.338	4.017	1237896	STUDY_PAIR	n/a	1	1	SPRING	LAMB	SPRING	LAMB	9	[0, 0, 0]	-999	PAL1	0	R1228M
1236.355	1.017	1241912	PAIR_OFF	n/a	1	1	SPRING	LAMB	SPRING	LAMB	9	[0, 0, 0]	-999	PAL1	0	R1228M
1237.372	0.268	1242929	STUDY_ORIENT	n/a	2	6	STOVE	TRUCK	STOVE	TRUCK	9	[0, 0, 0]	-999	PAL1	0	R1228M
1237.64	0.583	1243197	STUDY_ORIENT_OFF	n/a	2	6	STOVE	TRUCK	STOVE	TRUCK	9	[0, 0, 0]	-999	PAL1	0	R1228M
1238.223	4.018	1243780	STUDY_PAIR	n/a	2	6	STOVE	TRUCK	STOVE	TRUCK	9	[0, 0, 0]	-999	PAL1	0	R1228M
1242.241	1.016	1247798	PAIR_OFF	n/a	2	6	STOVE	TRUCK	STOVE	TRUCK	9	[0, 0, 0]	-999	PAL1	0	R1228M
1243.257	0.267	1248814	STUDY_ORIENT	n/a	3	3	CAGE	n/a	CAGE	LOCK	9	[0, 0, 0]	-999	PAL1	0	R1228M
1243.524	0.6	1249081	STUDY_ORIENT_OFF	n/a	3	3	CAGE	n/a	CAGE	LOCK	9	[0, 0, 0]	-999	PAL1	0	R1228M
1244.124	4.018	1249681	STUDY_PAIR	n/a	3	3	CAGE	n/a	CAGE	LOCK	9	[0, 0, 0]	-999	PAL1	0	R1228M
1248.142	1.017	1253699	PAIR_OFF	n/a	3	3	CAGE	n/a	CAGE	LOCK	9	[0, 0, 0]	-999	PAL1	0	R1228M
1249.159	0.265	1254716	STUDY_ORIENT	n/a	4	4	KEY	PLANE	PLANE	KEY	9	[0, 0, 0]	-999	PAL1	0	R1228M
1249.424	0.551	1254981	STUDY_ORIENT_OFF	n/a	4	4	KEY	PLANE	PLANE	KEY	9	[0, 0, 0]	-999	PAL1	0	R1228M
1249.975	4.018	1255532	STUDY_PAIR	n/a	4	4	KEY	PLANE	PLANE	KEY	9	[0, 0, 0]	-999	PAL1	0	R1228M
1253.993	1.017	1259549	PAIR_OFF	n/a	4	4	KEY	PLANE	PLANE	KEY	9	[0, 0, 0]	-999	PAL1	0	R1228M
1255.01	0.266	1260566	STUDY_ORIENT	n/a	5	5	CLAY	BOAT	BOAT	CLAY	9	[0, 0, 0]	-999	PAL1	0	R1228M
1255.276	0.617	1260832	STUDY_ORIENT_OFF	n/a	5	5	CLAY	BOAT	BOAT	CLAY	9	[0, 0, 0]	-999	PAL1	0	R1228M
1255.893	4.018	1261449	STUDY_PAIR	n/a	5	5	CLAY	BOAT	BOAT	CLAY	9	[0, 0, 0]	-999	PAL1	0	R1228M
1259.911	1.017	1265467	PAIR_OFF	n/a	5	5	CLAY	BOAT	BOAT	CLAY	9	[0, 0, 0]	-999	PAL1	0	R1228M
1260.928	0.266	1266484	STUDY_ORIENT	n/a	6	2	LAKE	THUMB	THUMB	LAKE	9	[0, 0, 0]	-999	PAL1	0	R1228M
1261.194	0.684	1266750	STUDY_ORIENT_OFF	n/a	6	2	LAKE	THUMB	THUMB	LAKE	9	[0, 0, 0]	-999	PAL1	0	R1228M
1261.878	4.017	1267434	STUDY_PAIR	n/a	6	2	LAKE	THUMB	THUMB	LAKE	9	[0, 0, 0]	-999	PAL1	0	R1228M
1265.895	1.001	1271451	PAIR_OFF	n/a	6	2	LAKE	THUMB	THUMB	LAKE	9	[0, 0, 0]	-999	PAL1	0	R1228M
1266.896	0.0	1272452	ENCODING_END	n/a	-999	-999	n/a	n/a	n/a	n/a	9	[0, 0, 0]	-999	PAL1	0	R1228M
1266.896	0.0	1272452	MATH_START	n/a	-999	-999	n/a	n/a	n/a	n/a	9	[0, 0, 0]	-999	PAL1	0	R1228M
1266.896	0.016	1272452	START	n/a	-999	-999	n/a	n/a	n/a	n/a	9	[-999, -999, -999]	-999	PAL1	0	R1228M
1266.912	3.134	1272468	PROB	3110	-999	-999	n/a	n/a	n/a	n/a	9	[4, 6, 9]	19	PAL1	0	R1228M
1270.046	3.951	1275602	PROB	3920	-999	-999	n/a	n/a	n/a	n/a	9	[1, 5, 8]	14	PAL1	0	R1228M
1273.997	2.784	1279552	PROB	2761	-999	-999	n/a	n/a	n/a	n/a	9	[2, 8, 6]	16	PAL1	0	R1228M
1276.781	6.951	1282336	PROB	6913	-999	-999	n/a	n/a	n/a	n/a	9	[1, 8, 4]	13	PAL1	0	R1228M
1283.732	6.898	1289287	PROB	6898	-999	-999	n/a	n/a	n/a	n/a	9	[2, 6, 9]	17	PAL1	0	R1228M
1290.63	0.02	1296184	STOP	n/a	-999	-999	n/a	n/a	n/a	n/a	9	[-999, -999, -999]	-999	PAL1	0	R1228M
1290.65	0.0	1296204	MATH_END	n/a	-999	-999	n/a	n/a	n/a	n/a	9	[0, 0, 0]	-999	PAL1	0	R1228M
1290.65	0.017	1296204	RECALL_START	n/a	-999	-999	n/a	n/a	n/a	n/a	9	[0, 0, 0]	-999	PAL1	0	R1228M
1290.667	0.266	1296221	TEST_ORIENT	n/a	1	1	SPRING	LAMB	SPRING	LAMB	9	[0, 0, 0]	-999	PAL1	0	R1228M
1290.933	0.567	1296487	RETRIEVAL_ORIENT_OFF	n/a	-999	-999	n/a	n/a	n/a	n/a	9	[0, 0, 0]	-999	PAL1	0	R1228M
1291.5	0.001	1297054	TEST_PROBE	n/a	1	1	SPRING	LAMB	SPRING	LAMB	9	[0, 0, 0]	-999	PAL1	0	R1228M
1291.501	1.277	1297055	REC_START	n/a	1	-999	n/a	LAMB	n/a	n/a	9	[0, 0, 0]	-999	PAL1	0	R1228M
1292.778	2.74	1298332	REC_EVENT	1277	1	1	SPRING	LAMB	SPRING	LAMB	9	[0, 0, 0]	-999	PAL1	0	R1228M
1295.518	1.0	1301072	PROBE_OFF	n/a	1	-999	n/a	n/a	n/a	n/a	9	[0, 0, 0]	-999	PAL1	0	R1228M
1296.518	0.016	1302072	REC_END	n/a	1	-999	n/a	n/a	n/a	n/a	9	[0, 0, 0]	-999	PAL1	0	R1228M
1296.534	0.267	1302088	TEST_ORIENT	n/a	6	2	LAKE	THUMB	THUMB	LAKE	9	[0, 0, 0]	-999	PAL1	0	R1228M
1296.801	0.549	1302355	RETRIEVAL_ORIENT_OFF	n/a	1	-999	n/a	n/a	n/a	n/a	9	[0, 0, 0]	-999	PAL1	0	R1228M
1297.35	0.001	1302904	TEST_PROBE	n/a	6	2	LAKE	THUMB	THUMB	LAKE	9	[0, 0, 0]	-999	PAL1	0	R1228M
1297.351	1.859	1302905	REC_START	n/a	6	-999	n/a	THUMB	n/a	n/a	9	[0, 0, 0]	-999	PAL1	0	R1228M
1299.21	2.158	1304764	REC_EVENT	1859	6	2	LAKE	THUMB	THUMB	LAKE	9	[0, 0, 0]	-999	PAL1	0	R1228M
1301.368	1.0	1306922	PROBE_OFF	n/a	6	-999	n/a	n/a	n/a	n/a	9	[0, 0, 0]	-999	PAL1	0	R1228M
1302.368	0.017	1307922	REC_END	n/a	6	-999	n/a	n/a	n/a	n/a	9	[0, 0, 0]	-999	PAL1	0	R1228M
1302.385	0.267	1307939	TEST_ORIENT	n/a	3	3	CAGE	n/a	CAGE	LOCK	9	[0, 0, 0]	-999	PAL1	0	R1228M
1302.652	0.534	1308206	RETRIEVAL_ORIENT_OFF	n/a	6	-999	n/a	n/a	n/a	n/a	9	[0, 0, 0]	-999	PAL1	0	R1228M
1303.186	0.0	1308740	REC_START	n/a	3	-999	n/a	n/a	n/a	n/a	9	[0, 0, 0]	-999	PAL1	0	R1228M
1303.186	4.017	1308740	TEST_PROBE	n/a	3	3	CAGE	n/a	CAGE	LOCK	9	[0, 0, 0]	-999	PAL1	0	R1228M
1307.203	0.933	1312756	PROBE_OFF	n/a	3	-999	n/a	n/a	n/a	n/a	9	[0, 0, 0]	-999	PAL1	0	R1228M
1308.136	0.067	1313689	REC_EVENT	4950	3	3	CAGE	<>	CAGE	LOCK	9	[0, 0, 0]	-999	PAL1	0	R1228M
1308.203	0.017	1313756	REC_END	n/a	3	-999	n/a	n/a	n/a	n/a	9	[0, 0, 0]	-999	PAL1	0	R1228M
1308.22	0.267	1313773	TEST_ORIENT	n/a	4	4	KEY	PLANE	PLANE	KEY	9	[0, 0, 0]	-999	PAL1	0	R1228M
1308.487	0.717	1314040	RETRIEVAL_ORIENT_OFF	n/a	3	-999	n/a	n/a	n/a	n/a	9	[0, 0, 0]	-999	PAL1	0	R1228M
1309.204	0.0	1314757	TEST_PROBE	n/a	4	4	KEY	PLANE	PLANE	KEY	9	[0, 0, 0]	-999	PAL1	0	R1228M
1309.204	2.054	1314757	REC_START	n/a	4	-999	n/a	PLANE	n/a	n/a	9	[0, 0, 0]	-999	PAL1	0	R1228M
1311.258	1.963	1316811	REC_EVENT	2054	4	4	KEY	PLANE	PLANE	KEY	9	[0, 0, 0]	-999	PAL1	0	R1228M
1313.221	1.0	1318774	PROBE_OFF	n/a	4	-999	n/a	n/a	n/a	n/a	9	[0, 0, 0]	-999	PAL1	0	R1228M
1314.221	0.017	1319774	REC_END	n/a	4	-999	n/a	n/a	n/a	n/a	9	[0, 0, 0]	-999	PAL1	0	R1228M
1314.238	0.267	1319791	TEST_ORIENT	n/a	5	5	CLAY	BOAT	BOAT	CLAY	9	[0, 0, 0]	-999	PAL1	0	R1228M
1314.505	0.616	1320058	RETRIEVAL_ORIENT_OFF	n/a	4	-999	n/a	n/a	n/a	n/a	9	[0, 0, 0]	-999	PAL1	0	R1228M
1315.121	0.001	1320674	TEST_PROBE	n/a	5	5	CLAY	BOAT	BOAT	CLAY	9	[0, 0, 0]	-999	PAL1	0	R1228M
1315.122	1.639	1320675	REC_START	n/a	5	-999	n/a	BOAT	n/a	n/a	9	[0, 0, 0]	-999	PAL1	0	R1228M
1316.761	2.361	1322314	REC_EVENT	1639	5	5	CLAY	BOAT	BOAT	CLAY	9	[0, 0, 0]	-999	PAL1	0	R1228M
1319.122	1.001	1324675	PROBE_OFF	n/a	5	-999	n/a	n/a	n/a	n/a	9	[0, 0, 0]	-999	PAL1	0	R1228M
1320.123	0.016	1325676	REC_END	n/a	5	-999	n/a	n/a	n/a	n/a	9	[0, 0, 0]	-999	PAL1	0	R1228M
1320.139	0.266	1325692	TEST_ORIENT	n/a	2	6	STOVE	TRUCK	STOVE	TRUCK	9	[0, 0, 0]	-999	PAL1	0	R1228M
1320.405	0.601	1325958	RETRIEVAL_ORIENT_OFF	n/a	5	-999	n/a	n/a	n/a	n/a	9	[0, 0, 0]	-999	PAL1	0	R1228M
1321.006	0.0	1326559	TEST_PROBE	n/a	2	6	STOVE	TRUCK	STOVE	TRUCK	9	[0, 0, 0]	-999	PAL1	0	R1228M
1321.006	1.728	1326559	REC_START	n/a	2	-999	n/a	TRUCK	n/a	n/a	9	[0, 0, 0]	-999	PAL1	0	R1228M
1322.734	2.289	1328287	REC_EVENT	1728	2	6	STOVE	TRUCK	STOVE	TRUCK	9	[0, 0, 0]	-999	PAL1	0	R1228M
1325.023	1.001	1330575	PROBE_OFF	n/a	2	-999	n/a	n/a	n/a	n/a	9	[0, 0, 0]	-999	PAL1	0	R1228M
1326.024	0.005	1331576	REC_END	n/a	2	-999	n/a	n/a	n/a	n/a	9	[0, 0, 0]	-999	PAL1	0	R1228M
1326.029	15.464	1331581	RECALL_END	n/a	-999	-999	n/a	n/a	n/a	n/a	9	[0, 0, 0]	-999	PAL1	0	R1228M
1341.493	10.929	1347044	TRIAL	n/a	-999	-999	n/a	n/a	n/a	n/a	10	[0, 0, 0]	-999	PAL1	0	R1228M
1352.422	0.006	1357973	ENCODING_START	n/a	-999	-999	n/a	n/a	n/a	n/a	10	[0, 0, 0]	-999	PAL1	0	R1228M
1352.428	0.267	1357979	STUDY_ORIENT	n/a	1	5	SNAKE	n/a	SNAKE	TEETH	10	[0, 0, 0]	-999	PAL1	0	R1228M
1352.695	0.584	1358246	STUDY_ORIENT_OFF	n/a	1	5	SNAKE	n/a	SNAKE	TEETH	10	[0, 0, 0]	-999	PAL1	0	R1228M
1353.279	4.017	1358830	STUDY_PAIR	n/a	1	5	SNAKE	n/a	SNAKE	TEETH	10	[0, 0, 0]	-999	PAL1	0	R1228M
1357.296	1.017	1362847	PAIR_OFF	n/a	1	5	SNAKE	n/a	SNAKE	TEETH	10	[0, 0, 0]	-999	PAL1	0	R1228M
1358.313	0.267	1363864	STUDY_ORIENT	n/a	2	2	BENCH	PIT	PIT	BENCH	10	[0, 0, 0]	-999	PAL1	0	R1228M
1358.58	0.567	1364131	STUDY_ORIENT_OFF	n/a	2	2	BENCH	PIT	PIT	BENCH	10	[0, 0, 0]	-999	PAL1	0	R1228M
1359.147	4.017	1364697	STUDY_PAIR	n/a	2	2	BENCH	PIT	PIT	BENCH	10	[0, 0, 0]	-999	PAL1	0	R1228M
1363.164	1.017	1368714	PAIR_OFF	n/a	2	2	BENCH	PIT	PIT	BENCH	10	[0, 0, 0]	-999	PAL1	0	R1228M
1364.181	0.266	1369731	STUDY_ORIENT	n/a	3	3	SNAIL	FOOT	FOOT	SNAIL	10	[0, 0, 0]	-999	PAL1	0	R1228M
1364.447	0.517	1369997	STUDY_ORIENT_OFF	n/a	3	3	SNAIL	FOOT	FOOT	SNAIL	10	[0, 0, 0]	-999	PAL1	0	R1228M
1364.964	4.018	1370514	STUDY_PAIR	n/a	3	3	SNAIL	FOOT	FOOT	SNAIL	10	[0, 0, 0]	-999	PAL1	0	R1228M
1368.982	1.017	1374532	PAIR_OFF	n/a	3	3	SNAIL	FOOT	FOOT	SNAIL	10	[0, 0, 0]	-999	PAL1	0	R1228M
1369.999	0.266	1375549	STUDY_ORIENT	n/a	4	4	PET	n/a	PET	FOAM	10	[0, 0, 0]	-999	PAL1	0	R1228M
1370.265	0.667	1375815	STUDY_ORIENT_OFF	n/a	4	4	PET	n/a	PET	FOAM	10	[0, 0, 0]	-999	PAL1	0	R1228M
1370.932	4.018	1376482	STUDY_PAIR	n/a	4	4	PET	n/a	PET	FOAM	10	[0, 0, 0]	-999	PAL1	0	R1228M
1374.95	1.016	1380500	PAIR_OFF	n/a	4	4	PET	n/a	PET	FOAM	10	[0, 0, 0]	-999	PAL1	0	R1228M
1375.966	0.267	1381516	STUDY_ORIENT	n/a	5	1	SEED	BEE	SEED	BEE	10	[0, 0, 0]	-999	PAL1	0	R1228M
1376.233	0.584	1381783	STUDY_ORIENT_OFF	n/a	5	1	SEED	BEE	SEED	BEE	10	[0, 0, 0]	-999	PAL1	0	R1228M
1376.817	4.017	1382366	STUDY_PAIR	n/a	5	1	SEED	BEE	SEED	BEE	10	[0, 0, 0]	-999	PAL1	0	R1228M
1380.834	1.017	1386383	PAIR_OFF	n/a	5	1	SEED	BEE	SEED	BEE	10	[0, 0, 0]	-999	PAL1	0	R1228M
1381.851	0.267	1387400	STUDY_ORIENT	n/a	6	6	FLOOR	RUG	RUG	FLOOR	10	[0, 0, 0]	-999	PAL1	0	R1228M
1382.118	0.733	1387667	STUDY_ORIENT_OFF	n/a	6	6	FLOOR	RUG	RUG	FLOOR	10	[0, 0, 0]	-999	PAL1	0	R1228M
1382.851	4.018	1388400	STUDY_PAIR	n/a	6	6	FLOOR	RUG	RUG	FLOOR	10	[0, 0, 0]	-999	PAL1	0	R1228M
1386.869	1.0	1392418	PAIR_OFF	n/a	6	6	FLOOR	RUG	RUG	FLOOR	10	[0, 0, 0]	-999	PAL1	0	R1228M
1387.869	0.0	1393418	ENCODING_END	n/a	-999	-999	n/a	n/a	n/a	n/a	10	[0, 0, 0]	-999	PAL1	0	R1228M
1387.869	0.0	1393418	MATH_START	n/a	-999	-999	n/a	n/a	n/a	n/a	10	[0, 0, 0]	-999	PAL1	0	R1228M
1387.869	0.016	1393418	START	n/a	-999	-999	n/a	n/a	n/a	n/a	10	[-999, -999, -999]	-999	PAL1	0	R1228M
1387.885	3.184	1393434	PROB	3162	-999	-999	n/a	n/a	n/a	n/a	10	[4, 3, 2]	9	PAL1	0	R1228M
1391.069	4.951	1396618	PROB	4929	-999	-999	n/a	n/a	n/a	n/a	10	[2, 9, 9]	20	PAL1	0	R1228M
1396.02	3.584	1401568	PROB	3555	-999	-999	n/a	n/a	n/a	n/a	10	[1, 6, 6]	13	PAL1	0	R1228M
1399.604	2.501	1405152	PROB	2474	-999	-999	n/a	n/a	n/a	n/a	10	[6, 4, 2]	12	PAL1	0	R1228M
1402.105	2.45	1407653	PROB	2413	-999	-999	n/a	n/a	n/a	n/a	10	[3, 6, 3]	12	PAL1	0	R1228M
1404.555	2.167	1410103	PROB	2131	-999	-999	n/a	n/a	n/a	n/a	10	[7, 2, 2]	11	PAL1	0	R1228M
1406.722	2.58	1412270	PROB	2580	-999	-999	n/a	n/a	n/a	n/a	10	[8, 2, 7]	17	PAL1	0	R1228M
1409.302	0.02	1414850	STOP	n/a	-999	-999	n/a	n/a	n/a	n/a	10	[-999, -999, -999]	-999	PAL1	0	R1228M
1409.322	0.0	1414870	MATH_END	n/a	-999	-999	n/a	n/a	n/a	n/a	10	[0, 0, 0]	-999	PAL1	0	R1228M
1409.322	0.017	1414870	RECALL_START	n/a	-999	-999	n/a	n/a	n/a	n/a	10	[0, 0, 0]	-999	PAL1	0	R1228M
1409.339	0.267	1414887	TEST_ORIENT	n/a	5	1	SEED	BEE	SEED	BEE	10	[0, 0, 0]	-999	PAL1	0	R1228M
1409.606	0.634	1415154	RETRIEVAL_ORIENT_OFF	n/a	-999	-999	n/a	n/a	n/a	n/a	10	[0, 0, 0]	-999	PAL1	0	R1228M
1410.24	0.001	1415788	TEST_PROBE	n/a	5	1	SEED	BEE	SEED	BEE	10	[0, 0, 0]	-999	PAL1	0	R1228M
1410.241	3.877	1415789	REC_START	n/a	5	-999	n/a	BEE	n/a	n/a	10	[0, 0, 0]	-999	PAL1	0	R1228M
1414.118	0.139	1419665	REC_EVENT	3877	5	1	SEED	BEE	SEED	BEE	10	[0, 0, 0]	-999	PAL1	0	R1228M
1414.257	1.0	1419804	PROBE_OFF	n/a	5	-999	n/a	n/a	n/a	n/a	10	[0, 0, 0]	-999	PAL1	0	R1228M
1415.257	0.017	1420804	REC_END	n/a	5	-999	n/a	n/a	n/a	n/a	10	[0, 0, 0]	-999	PAL1	0	R1228M
1415.274	0.267	1420821	TEST_ORIENT	n/a	2	2	BENCH	PIT	PIT	BENCH	10	[0, 0, 0]	-999	PAL1	0	R1228M
1415.541	0.517	1421088	RETRIEVAL_ORIENT_OFF	n/a	5	-999	n/a	n/a	n/a	n/a	10	[0, 0, 0]	-999	PAL1	0	R1228M
1416.058	0.0	1421605	TEST_PROBE	n/a	2	2	BENCH	PIT	PIT	BENCH	10	[0, 0, 0]	-999	PAL1	0	R1228M
1416.058	2.363	1421605	REC_START	n/a	2	-999	n/a	PIT	n/a	n/a	10	[0, 0, 0]	-999	PAL1	0	R1228M
1418.421	1.654	1423968	REC_EVENT	2363	2	2	BENCH	PIT	PIT	BENCH	10	[0, 0, 0]	-999	PAL1	0	R1228M
1420.075	1.0	1425622	PROBE_OFF	n/a	2	-999	n/a	n/a	n/a	n/a	10	[0, 0, 0]	-999	PAL1	0	R1228M
1421.075	0.017	1426622	REC_END	n/a	2	-999	n/a	n/a	n/a	n/a	10	[0, 0, 0]	-999	PAL1	0	R1228M
1421.092	0.266	1426639	TEST_ORIENT	n/a	3	3	SNAIL	FOOT	FOOT	SNAIL	10	[0, 0, 0]	-999	PAL1	0	R1228M
1421.358	0.517	1426905	RETRIEVAL_ORIENT_OFF	n/a	2	-999	n/a	n/a	n/a	n/a	10	[0, 0, 0]	-999	PAL1	0	R1228M
1421.875	0.001	1427422	TEST_PROBE	n/a	3	3	SNAIL	FOOT	FOOT	SNAIL	10	[0, 0, 0]	-999	PAL1	0	R1228M
1421.876	3.712	1427423	REC_START	n/a	3	-999	n/a	FOOT	n/a	n/a	10	[0, 0, 0]	-999	PAL1	0	R1228M
1425.588	0.305	1431135	REC_EVENT	3712	3	3	SNAIL	FOOT	FOOT	SNAIL	10	[0, 0, 0]	-999	PAL1	0	R1228M
1425.893	1.0	1431440	PROBE_OFF	n/a	3	-999	n/a	n/a	n/a	n/a	10	[0, 0, 0]	-999	PAL1	0	R1228M
1426.893	0.017	1432440	REC_END	n/a	3	-999	n/a	n/a	n/a	n/a	10	[0, 0, 0]	-999	PAL1	0	R1228M
1426.91	0.266	1432457	TEST_ORIENT	n/a	4	4	PET	n/a	PET	FOAM	10	[0, 0, 0]	-999	PAL1	0	R1228M
1427.176	0.701	1432723	RETRIEVAL_ORIENT_OFF	n/a	3	-999	n/a	n/a	n/a	n/a	10	[0, 0, 0]	-999	PAL1	0	R1228M
1427.877	0.0	1433424	TEST_PROBE	n/a	4	4	PET	n/a	PET	FOAM	10	[0, 0, 0]	-999	PAL1	0	R1228M
1427.877	3.529	1433424	REC_START	n/a	4	-999	n/a	n/a	n/a	n/a	10	[0, 0, 0]	-999	PAL1	0	R1228M
1431.406	0.488	1436952	REC_EVENT	3529	4	4	PET	<>	PET	FOAM	10	[0, 0, 0]	-999	PAL1	0	R1228M
1431.894	1.0	1437440	PROBE_OFF	n/a	4	-999	n/a	n/a	n/a	n/a	10	[0, 0, 0]	-999	PAL1	0	R1228M
1432.894	0.017	1438440	REC_END	n/a	4	-999	n/a	n/a	n/a	n/a	10	[0, 0, 0]	-999	PAL1	0	R1228M
1432.911	0.267	1438457	TEST_ORIENT	n/a	1	5	SNAKE	n/a	SNAKE	TEETH	10	[0, 0, 0]	-999	PAL1	0	R1228M
1433.178	0.583	1438724	RETRIEVAL_ORIENT_OFF	n/a	4	-999	n/a	n/a	n/a	n/a	10	[0, 0, 0]	-999	PAL1	0	R1228M
1433.761	0.001	1439307	TEST_PROBE	n/a	1	5	SNAKE	n/a	SNAKE	TEETH	10	[0, 0, 0]	-999	PAL1	0	R1228M
1433.762	1.695	1439308	REC_START	n/a	1	-999	n/a	n/a	n/a	n/a	10	[0, 0, 0]	-999	PAL1	0	R1228M
1435.457	2.321	1441003	REC_EVENT	1695	1	5	SNAKE	<>	SNAKE	TEETH	10	[0, 0, 0]	-999	PAL1	0	R1228M
1437.778	1.0	1443324	PROBE_OFF	n/a	1	-999	n/a	n/a	n/a	n/a	10	[0, 0, 0]	-999	PAL1	0	R1228M
1438.778	0.017	1444324	REC_END	n/a	1	-999	n/a	n/a	n/a	n/a	10	[0, 0, 0]	-999	PAL1	0	R1228M
1438.795	0.267	1444341	TEST_ORIENT	n/a	6	6	FLOOR	RUG	RUG	FLOOR	10	[0, 0, 0]	-999	PAL1	0	R1228M
1439.062	0.584	1444608	RETRIEVAL_ORIENT_OFF	n/a	1	-999	n/a	n/a	n/a	n/a	10	[0, 0, 0]	-999	PAL1	0	R1228M
1439.646	0.0	1445192	TEST_PROBE	n/a	6	6	FLOOR	RUG	RUG	FLOOR	10	[0, 0, 0]	-999	PAL1	0	R1228M
1439.646	1.796	1445192	REC_START	n/a	6	-999	n/a	RUG	n/a	n/a	10	[0, 0, 0]	-999	PAL1	0	R1228M
1441.442	2.221	1446988	REC_EVENT	1796	6	6	FLOOR	RUG	RUG	FLOOR	10	[0, 0, 0]	-999	PAL1	0	R1228M
1443.663	1.0	1449209	PROBE_OFF	n/a	6	-999	n/a	n/a	n/a	n/a	10	[0, 0, 0]	-999	PAL1	0	R1228M
1444.663	0.005	1450209	REC_END	n/a	6	-999	n/a	n/a	n/a	n/a	10	[0, 0, 0]	-999	PAL1	0	R1228M
1444.668	4.728	1450214	RECALL_END	n/a	-999	-999	n/a	n/a	n/a	n/a	10	[0, 0, 0]	-999	PAL1	0	R1228M
1449.396	10.928	1454941	TRIAL	n/a	-999	-999	n/a	n/a	n/a	n/a	11	[0, 0, 0]	-999	PAL1	0	R1228M
1460.324	0.008	1465869	ENCODING_START	n/a	-999	-999	n/a	n/a	n/a	n/a	11	[0, 0, 0]	-999	PAL1	0	R1228M
1460.332	0.268	1465877	STUDY_ORIENT	n/a	1	3	CORN	BATH	CORN	BATH	11	[0, 0, 0]	-999	PAL1	0	R1228M
1460.6	0.765	1466145	STUDY_ORIENT_OFF	n/a	1	3	CORN	BATH	CORN	BATH	11	[0, 0, 0]	-999	PAL1	0	R1228M
1461.365	4.018	1466910	STUDY_PAIR	n/a	1	3	CORN	BATH	CORN	BATH	11	[0, 0, 0]	-999	PAL1	0	R1228M
1465.383	1.017	1470927	PAIR_OFF	n/a	1	3	CORN	BATH	CORN	BATH	11	[0, 0, 0]	-999	PAL1	0	R1228M
1466.4	0.267	1471944	STUDY_ORIENT	n/a	2	4	DOOR	HILL	HILL	DOOR	11	[0, 0, 0]	-999	PAL1	0	R1228M
1466.667	0.65	1472211	STUDY_ORIENT_OFF	n/a	2	4	DOOR	HILL	HILL	DOOR	11	[0, 0, 0]	-999	PAL1	0	R1228M
1467.317	4.017	1472861	STUDY_PAIR	n/a	2	4	DOOR	HILL	HILL	DOOR	11	[0, 0, 0]	-999	PAL1	0	R1228M
1471.334	1.017	1476878	PAIR_OFF	n/a	2	4	DOOR	HILL	HILL	DOOR	11	[0, 0, 0]	-999	PAL1	0	R1228M
1472.351	0.268	1477895	STUDY_ORIENT	n/a	3	5	COUCH	SWAMP	COUCH	SWAMP	11	[0, 0, 0]	-999	PAL1	0	R1228M
1472.619	0.65	1478163	STUDY_ORIENT_OFF	n/a	3	5	COUCH	SWAMP	COUCH	SWAMP	11	[0, 0, 0]	-999	PAL1	0	R1228M
1473.269	4.017	1478813	STUDY_PAIR	n/a	3	5	COUCH	SWAMP	COUCH	SWAMP	11	[0, 0, 0]	-999	PAL1	0	R1228M
1477.286	1.017	1482830	PAIR_OFF	n/a	3	5	COUCH	SWAMP	COUCH	SWAMP	11	[0, 0, 0]	-999	PAL1	0	R1228M
1478.303	0.267	1483847	STUDY_ORIENT	n/a	4	2	FRUIT	ROPE	ROPE	FRUIT	11	[0, 0, 0]	-999	PAL1	0	R1228M
1478.57	0.749	1484114	STUDY_ORIENT_OFF	n/a	4	2	FRUIT	ROPE	ROPE	FRUIT	11	[0, 0, 0]	-999	PAL1	0	R1228M
1479.319	4.017	1484863	STUDY_PAIR	n/a	4	2	FRUIT	ROPE	ROPE	FRUIT	11	[0, 0, 0]	-999	PAL1	0	R1228M
1483.336	1.017	1488879	PAIR_OFF	n/a	4	2	FRUIT	ROPE	ROPE	FRUIT	11	[0, 0, 0]	-999	PAL1	0	R1228M
1484.353	0.268	1489896	STUDY_ORIENT	n/a	5	1	BEACH	PALM	PALM	BEACH	11	[0, 0, 0]	-999	PAL1	0	R1228M
1484.621	0.533	1490164	STUDY_ORIENT_OFF	n/a	5	1	BEACH	PALM	PALM	BEACH	11	[0, 0, 0]	-999	PAL1	0	R1228M
1485.154	4.018	1490697	STUDY_PAIR	n/a	5	1	BEACH	PALM	PALM	BEACH	11	[0, 0, 0]	-999	PAL1	0	R1228M
1489.172	1.017	1494715	PAIR_OFF	n/a	5	1	BEACH	PALM	PALM	BEACH	11	[0, 0, 0]	-999	PAL1	0	R1228M
1490.189	0.265	1495732	STUDY_ORIENT	n/a	6	6	CHAIR	n/a	OAR	CHAIR	11	[0, 0, 0]	-999	PAL1	0	R1228M
1490.454	0.618	1495997	STUDY_ORIENT_OFF	n/a	6	6	CHAIR	n/a	OAR	CHAIR	11	[0, 0, 0]	-999	PAL1	0	R1228M
1491.072	4.018	1496615	STUDY_PAIR	n/a	6	6	CHAIR	n/a	OAR	CHAIR	11	[0, 0, 0]	-999	PAL1	0	R1228M
1495.09	1.0	1500633	PAIR_OFF	n/a	6	6	CHAIR	n/a	OAR	CHAIR	11	[0, 0, 0]	-999	PAL1	0	R1228M
1496.09	0.0	1501633	ENCODING_END	n/a	-999	-999	n/a	n/a	n/a	n/a	11	[0, 0, 0]	-999	PAL1	0	R1228M
1496.09	0.001	1501633	MATH_START	n/a	-999	-999	n/a	n/a	n/a	n/a	11	[0, 0, 0]	-999	PAL1	0	R1228M
1496.091	0.015	1501634	START	n/a	-999	-999	n/a	n/a	n/a	n/a	11	[-999, -999, -999]	-999	PAL1	0	R1228M
1496.106	4.668	1501649	PROB	4644	-999	-999	n/a	n/a	n/a	n/a	11	[3, 3, 7]	13	PAL1	0	R1228M
1500.774	4.084	1506316	PROB	4057	-999	-999	n/a	n/a	n/a	n/a	11	[8, 3, 3]	14	PAL1	0	R1228M
1504.858	4.951	1510400	PROB	4917	-999	-999	n/a	n/a	n/a	n/a	11	[7, 4, 7]	18	PAL1	0	R1228M
1509.809	4.533	1515351	PROB	4501	-999	-999	n/a	n/a	n/a	n/a	11	[1, 2, 9]	12	PAL1	0	R1228M
1514.342	2.8	1519884	PROB	2800	-999	-999	n/a	n/a	n/a	n/a	11	[9, 1, 8]	18	PAL1	0	R1228M
1517.142	0.019	1522684	STOP	n/a	-999	-999	n/a	n/a	n/a	n/a	11	[-999, -999, -999]	-999	PAL1	0	R1228M
1517.161	0.0	1522703	MATH_END	n/a	-999	-999	n/a	n/a	n/a	n/a	11	[0, 0, 0]	-999	PAL1	0	R1228M
1517.161	0.016	1522703	RECALL_START	n/a	-999	-999	n/a	n/a	n/a	n/a	11	[0, 0, 0]	-999	PAL1	0	R1228M
1517.177	0.266	1522719	TEST_ORIENT	n/a	5	1	BEACH	PALM	PALM	BEACH	11	[0, 0, 0]	-999	PAL1	0	R1228M
1517.443	0.618	1522985	RETRIEVAL_ORIENT_OFF	n/a	-999	-999	n/a	n/a	n/a	n/a	11	[0, 0, 0]	-999	PAL1	0	R1228M
1518.061	0.0	1523603	REC_START	n/a	5	-999	n/a	PALM	n/a	n/a	11	[0, 0, 0]	-999	PAL1	0	R1228M
1518.061	1.374	1523603	TEST_PROBE	n/a	5	1	BEACH	PALM	PALM	BEACH	11	[0, 0, 0]	-999	PAL1	0	R1228M
1519.435	2.643	1524976	REC_EVENT	1374	5	1	BEACH	PALM	PALM	BEACH	11	[0, 0, 0]	-999	PAL1	0	R1228M
1522.078	1.0	1527619	PROBE_OFF	n/a	5	-999	n/a	n/a	n/a	n/a	11	[0, 0, 0]	-999	PAL1	0	R1228M
1523.078	0.017	1528619	REC_END	n/a	5	-999	n/a	n/a	n/a	n/a	11	[0, 0, 0]	-999	PAL1	0	R1228M
1523.095	0.266	1528636	TEST_ORIENT	n/a	4	2	FRUIT	ROPE	ROPE	FRUIT	11	[0, 0, 0]	-999	PAL1	0	R1228M
1523.361	0.584	1528902	RETRIEVAL_ORIENT_OFF	n/a	5	-999	n/a	n/a	n/a	n/a	11	[0, 0, 0]	-999	PAL1	0	R1228M
1523.945	0.001	1529486	TEST_PROBE	n/a	4	2	FRUIT	ROPE	ROPE	FRUIT	11	[0, 0, 0]	-999	PAL1	0	R1228M
1523.946	0.986	1529487	REC_START	n/a	4	-999	n/a	ROPE	n/a	n/a	11	[0, 0, 0]	-999	PAL1	0	R1228M
1524.932	3.031	1530473	REC_EVENT	986	4	2	FRUIT	ROPE	ROPE	FRUIT	11	[0, 0, 0]	-999	PAL1	0	R1228M
1527.963	1.0	1533504	PROBE_OFF	n/a	4	-999	n/a	n/a	n/a	n/a	11	[0, 0, 0]	-999	PAL1	0	R1228M
1528.963	0.016	1534504	REC_END	n/a	4	-999	n/a	n/a	n/a	n/a	11	[0, 0, 0]	-999	PAL1	0	R1228M
1528.979	0.267	1534520	TEST_ORIENT	n/a	1	3	CORN	BATH	CORN	BATH	11	[0, 0, 0]	-999	PAL1	0	R1228M
1529.246	0.734	1534787	RETRIEVAL_ORIENT_OFF	n/a	4	-999	n/a	n/a	n/a	n/a	11	[0, 0, 0]	-999	PAL1	0	R1228M
1529.98	0.0	1535521	TEST_PROBE	n/a	1	3	CORN	BATH	CORN	BATH	11	[0, 0, 0]	-999	PAL1	0	R1228M
1529.98	1.651	1535521	REC_START	n/a	1	-999	n/a	BATH	n/a	n/a	11	[0, 0, 0]	-999	PAL1	0	R1228M
1531.631	2.366	1537172	REC_EVENT	1651	1	3	CORN	BATH	CORN	BATH	11	[0, 0, 0]	-999	PAL1	0	R1228M
1533.997	1.0	1539538	PROBE_OFF	n/a	1	-999	n/a	n/a	n/a	n/a	11	[0, 0, 0]	-999	PAL1	0	R1228M
1534.997	0.017	1540538	REC_END	n/a	1	-999	n/a	n/a	n/a	n/a	11	[0, 0, 0]	-999	PAL1	0	R1228M
1535.014	0.267	1540555	TEST_ORIENT	n/a	2	4	DOOR	HILL	HILL	DOOR	11	[0, 0, 0]	-999	PAL1	0	R1228M
1535.281	0.516	1540822	RETRIEVAL_ORIENT_OFF	n/a	1	-999	n/a	n/a	n/a	n/a	11	[0, 0, 0]	-999	PAL1	0	R1228M
1535.797	0.001	1541338	TEST_PROBE	n/a	2	4	DOOR	HILL	HILL	DOOR	11	[0, 0, 0]	-999	PAL1	0	R1228M
1535.798	2.925	1541339	REC_START	n/a	2	-999	n/a	HILL	n/a	n/a	11	[0, 0, 0]	-999	PAL1	0	R1228M
1538.723	1.092	1544263	REC_EVENT	2925	2	4	DOOR	HILL	HILL	DOOR	11	[0, 0, 0]	-999	PAL1	0	R1228M
1539.815	1.0	1545355	PROBE_OFF	n/a	2	-999	n/a	n/a	n/a	n/a	11	[0, 0, 0]	-999	PAL1	0	R1228M
1540.815	0.017	1546355	REC_END	n/a	2	-999	n/a	n/a	n/a	n/a	11	[0, 0, 0]	-999	PAL1	0	R1228M
1540.832	0.266	1546372	TEST_ORIENT	n/a	3	5	COUCH	SWAMP	COUCH	SWAMP	11	[0, 0, 0]	-999	PAL1	0	R1228M
1541.098	0.701	1546638	RETRIEVAL_ORIENT_OFF	n/a	2	-999	n/a	n/a	n/a	n/a	11	[0, 0, 0]	-999	PAL1	0	R1228M
1541.799	0.0	1547339	TEST_PROBE	n/a	3	5	COUCH	SWAMP	COUCH	SWAMP	11	[0, 0, 0]	-999	PAL1	0	R1228M
1541.799	1.349	1547339	REC_START	n/a	3	-999	n/a	SWAMP	n/a	n/a	11	[0, 0, 0]	-999	PAL1	0	R1228M
1543.148	2.668	1548688	REC_EVENT	1349	3	5	COUCH	SWAMP	COUCH	SWAMP	11	[0, 0, 0]	-999	PAL1	0	R1228M
1545.816	1.0	1551356	PROBE_OFF	n/a	3	-999	n/a	n/a	n/a	n/a	11	[0, 0, 0]	-999	PAL1	0	R1228M
1546.816	0.017	1552356	REC_END	n/a	3	-999	n/a	n/a	n/a	n/a	11	[0, 0, 0]	-999	PAL1	0	R1228M
1546.833	0.267	1552373	TEST_ORIENT	n/a	6	6	CHAIR	n/a	OAR	CHAIR	11	[0, 0, 0]	-999	PAL1	0	R1228M
1547.1	0.6	1552640	RETRIEVAL_ORIENT_OFF	n/a	3	-999	n/a	n/a	n/a	n/a	11	[0, 0, 0]	-999	PAL1	0	R1228M
1547.7	0.0	1553240	TEST_PROBE	n/a	6	6	CHAIR	n/a	OAR	CHAIR	11	[0, 0, 0]	-999	PAL1	0	R1228M
1547.7	1.416	1553240	REC_START	n/a	6	-999	n/a	n/a	n/a	n/a	11	[0, 0, 0]	-999	PAL1	0	R1228M
1549.116	2.601	1554656	REC_EVENT	1416	6	6	CHAIR	<>	OAR	CHAIR	11	[0, 0, 0]	-999	PAL1	0	R1228M
1551.717	1.0	1557257	PROBE_OFF	n/a	6	-999	n/a	n/a	n/a	n/a	11	[0, 0, 0]	-999	PAL1	0	R1228M
1552.717	0.005	1558257	REC_END	n/a	6	-999	n/a	n/a	n/a	n/a	11	[0, 0, 0]	-999	PAL1	0	R1228M
1552.722	7.147	1558262	RECALL_END	n/a	-999	-999	n/a	n/a	n/a	n/a	11	[0, 0, 0]	-999	PAL1	0	R1228M
1559.869	10.928	1565408	TRIAL	n/a	-999	-999	n/a	n/a	n/a	n/a	12	[0, 0, 0]	-999	PAL1	0	R1228M
1570.797	0.007	1576336	ENCODING_START	n/a	-999	-999	n/a	n/a	n/a	n/a	12	[0, 0, 0]	-999	PAL1	0	R1228M
1570.804	0.267	1576343	STUDY_ORIENT	n/a	1	5	BOY	FORT	BOY	FORT	12	[0, 0, 0]	-999	PAL1	0	R1228M
1571.071	0.55	1576610	STUDY_ORIENT_OFF	n/a	1	5	BOY	FORT	BOY	FORT	12	[0, 0, 0]	-999	PAL1	0	R1228M
1571.621	4.018	1577159	STUDY_PAIR	n/a	1	5	BOY	FORT	BOY	FORT	12	[0, 0, 0]	-999	PAL1	0	R1228M
1575.639	1.016	1581177	PAIR_OFF	n/a	1	5	BOY	FORT	BOY	FORT	12	[0, 0, 0]	-999	PAL1	0	R1228M
1576.655	0.267	1582193	STUDY_ORIENT	n/a	2	6	EAR	n/a	EAR	GATE	12	[0, 0, 0]	-999	PAL1	0	R1228M
1576.922	0.684	1582460	STUDY_ORIENT_OFF	n/a	2	6	EAR	n/a	EAR	GATE	12	[0, 0, 0]	-999	PAL1	0	R1228M
1577.606	4.017	1583144	STUDY_PAIR	n/a	2	6	EAR	n/a	EAR	GATE	12	[0, 0, 0]	-999	PAL1	0	R1228M
1581.623	1.017	1587161	PAIR_OFF	n/a	2	6	EAR	n/a	EAR	GATE	12	[0, 0, 0]	-999	PAL1	0	R1228M
1582.64	0.267	1588178	STUDY_ORIENT	n/a	3	1	RICE	n/a	RICE	CAPE	12	[0, 0, 0]	-999	PAL1	0	R1228M
1582.907	0.532	1588445	STUDY_ORIENT_OFF	n/a	3	1	RICE	n/a	RICE	CAPE	12	[0, 0, 0]	-999	PAL1	0	R1228M
1583.439	4.017	1588977	STUDY_PAIR	n/a	3	1	RICE	n/a	RICE	CAPE	12	[0, 0, 0]	-999	PAL1	0	R1228M
1587.456	1.018	1592994	PAIR_OFF	n/a	3	1	RICE	n/a	RICE	CAPE	12	[0, 0, 0]	-999	PAL1	0	R1228M
1588.474	0.267	1594012	STUDY_ORIENT	n/a	4	4	VAN	OAK	VAN	DOLL	12	[0, 0, 0]	-999	PAL1	0	R1228M
1588.741	0.533	1594279	STUDY_ORIENT_OFF	n/a	4	4	VAN	OAK	VAN	DOLL	12	[0, 0, 0]	-999	PAL1	0	R1228M
1589.274	4.018	1594811	STUDY_PAIR	n/a	4	4	VAN	OAK	VAN	DOLL	12	[0, 0, 0]	-999	PAL1	0	R1228M
1593.292	1.017	1598829	PAIR_OFF	n/a	4	4	VAN	OAK	VAN	DOLL	12	[0, 0, 0]	-999	PAL1	0	R1228M
1594.309	0.267	1599846	STUDY_ORIENT	n/a	5	3	DRESS	n/a	OAK	DRESS	12	[0, 0, 0]	-999	PAL1	0	R1228M
1594.576	0.616	1600113	STUDY_ORIENT_OFF	n/a	5	3	DRESS	n/a	OAK	DRESS	12	[0, 0, 0]	-999	PAL1	0	R1228M
1595.192	4.018	1600729	STUDY_PAIR	n/a	5	3	DRESS	n/a	OAK	DRESS	12	[0, 0, 0]	-999	PAL1	0	R1228M
1599.21	1.017	1604747	PAIR_OFF	n/a	5	3	DRESS	n/a	OAK	DRESS	12	[0, 0, 0]	-999	PAL1	0	R1228M
1600.227	0.266	1605764	STUDY_ORIENT	n/a	6	2	SLUSH	n/a	SLUSH	VASE	12	[0, 0, 0]	-999	PAL1	0	R1228M
1600.493	0.55	1606030	STUDY_ORIENT_OFF	n/a	6	2	SLUSH	n/a	SLUSH	VASE	12	[0, 0, 0]	-999	PAL1	0	R1228M
1601.043	4.018	1606580	STUDY_PAIR	n/a	6	2	SLUSH	n/a	SLUSH	VASE	12	[0, 0, 0]	-999	PAL1	0	R1228M
1605.061	1.0	1610598	PAIR_OFF	n/a	6	2	SLUSH	n/a	SLUSH	VASE	12	[0, 0, 0]	-999	PAL1	0	R1228M
1606.061	0.0	1611598	ENCODING_END	n/a	-999	-999	n/a	n/a	n/a	n/a	12	[0, 0, 0]	-999	PAL1	0	R1228M
1606.061	0.001	1611598	MATH_START	n/a	-999	-999	n/a	n/a	n/a	n/a	12	[0, 0, 0]	-999	PAL1	0	R1228M
1606.062	0.016	1611599	START	n/a	-999	-999	n/a	n/a	n/a	n/a	12	[-999, -999, -999]	-999	PAL1	0	R1228M
1606.078	4.366	1611615	PROB	4343	-999	-999	n/a	n/a	n/a	n/a	12	[7, 9, 2]	18	PAL1	0	R1228M
1610.444	2.752	1615980	PROB	2714	-999	-999	n/a	n/a	n/a	n/a	12	[5, 4, 3]	12	PAL1	0	R1228M
1613.196	3.784	1618732	PROB	3747	-999	-999	n/a	n/a	n/a	n/a	12	[8, 8, 7]	23	PAL1	0	R1228M
1616.98	2.084	1622516	PROB	2051	-999	-999	n/a	n/a	n/a	n/a	12	[5, 5, 1]	11	PAL1	0	R1228M
1619.064	2.167	1624600	PROB	2143	-999	-999	n/a	n/a	n/a	n/a	12	[8, 2, 7]	17	PAL1	0	R1228M
1621.231	3.334	1626767	PROB	3303	-999	-999	n/a	n/a	n/a	n/a	12	[6, 9, 2]	17	PAL1	0	R1228M
1624.565	6.721	1630100	PROB	6721	-999	-999	n/a	n/a	n/a	n/a	12	[7, 5, 8]	18	PAL1	0	R1228M
1631.286	0.013	1636821	STOP	n/a	-999	-999	n/a	n/a	n/a	n/a	12	[-999, -999, -999]	-999	PAL1	0	R1228M
1631.299	0.001	1636834	MATH_END	n/a	-999	-999	n/a	n/a	n/a	n/a	12	[0, 0, 0]	-999	PAL1	0	R1228M
1631.3	0.015	1636835	RECALL_START	n/a	-999	-999	n/a	n/a	n/a	n/a	12	[0, 0, 0]	-999	PAL1	0	R1228M
1631.315	0.251	1636850	TEST_ORIENT	n/a	3	1	RICE	n/a	RICE	CAPE	12	[0, 0, 0]	-999	PAL1	0	R1228M
1631.566	0.6	1637101	RETRIEVAL_ORIENT_OFF	n/a	-999	-999	n/a	n/a	n/a	n/a	12	[0, 0, 0]	-999	PAL1	0	R1228M
1632.166	0.001	1637701	TEST_PROBE	n/a	3	1	RICE	n/a	RICE	CAPE	12	[0, 0, 0]	-999	PAL1	0	R1228M
1632.167	2.298	1637702	REC_START	n/a	3	-999	n/a	n/a	n/a	n/a	12	[0, 0, 0]	-999	PAL1	0	R1228M
1634.465	1.719	1640000	REC_EVENT	2298	3	1	RICE	<>	RICE	CAPE	12	[0, 0, 0]	-999	PAL1	0	R1228M
1636.184	1.0	1641719	PROBE_OFF	n/a	3	-999	n/a	n/a	n/a	n/a	12	[0, 0, 0]	-999	PAL1	0	R1228M
1637.184	0.017	1642719	REC_END	n/a	3	-999	n/a	n/a	n/a	n/a	12	[0, 0, 0]	-999	PAL1	0	R1228M
1637.201	0.266	1642736	TEST_ORIENT	n/a	6	2	SLUSH	n/a	SLUSH	VASE	12	[0, 0, 0]	-999	PAL1	0	R1228M
1637.467	0.65	1643002	RETRIEVAL_ORIENT_OFF	n/a	3	-999	n/a	n/a	n/a	n/a	12	[0, 0, 0]	-999	PAL1	0	R1228M
1638.117	0.001	1643652	TEST_PROBE	n/a	6	2	SLUSH	n/a	SLUSH	VASE	12	[0, 0, 0]	-999	PAL1	0	R1228M
1638.118	3.088	1643653	REC_START	n/a	6	-999	n/a	n/a	n/a	n/a	12	[0, 0, 0]	-999	PAL1	0	R1228M
1641.206	0.929	1646741	REC_EVENT	3088	6	2	SLUSH	<>	SLUSH	VASE	12	[0, 0, 0]	-999	PAL1	0	R1228M
1642.135	1.012	1647670	PROBE_OFF	n/a	6	-999	n/a	n/a	n/a	n/a	12	[0, 0, 0]	-999	PAL1	0	R1228M
1643.147	0.021	1648681	REC_END	n/a	6	-999	n/a	n/a	n/a	n/a	12	[0, 0, 0]	-999	PAL1	0	R1228M
1643.168	0.266	1648702	TEST_ORIENT	n/a	5	3	DRESS	n/a	OAK	DRESS	12	[0, 0, 0]	-999	PAL1	0	R1228M
1643.434	0.618	1648968	RETRIEVAL_ORIENT_OFF	n/a	6	-999	n/a	n/a	n/a	n/a	12	[0, 0, 0]	-999	PAL1	0	R1228M
1644.052	0.0	1649586	TEST_PROBE	n/a	5	3	DRESS	n/a	OAK	DRESS	12	[0, 0, 0]	-999	PAL1	0	R1228M
1644.052	1.393	1649586	REC_START	n/a	5	-999	n/a	n/a	n/a	n/a	12	[0, 0, 0]	-999	PAL1	0	R1228M
1645.445	2.624	1650979	REC_EVENT	1393	5	3	DRESS	<>	OAK	DRESS	12	[0, 0, 0]	-999	PAL1	0	R1228M
1648.069	1.0	1653603	PROBE_OFF	n/a	5	-999	n/a	n/a	n/a	n/a	12	[0, 0, 0]	-999	PAL1	0	R1228M
1649.069	0.017	1654603	REC_END	n/a	5	-999	n/a	n/a	n/a	n/a	12	[0, 0, 0]	-999	PAL1	0	R1228M
1649.086	0.266	1654620	TEST_ORIENT	n/a	4	4	VAN	OAK	VAN	DOLL	12	[0, 0, 0]	-999	PAL1	0	R1228M
1649.352	0.651	1654886	RETRIEVAL_ORIENT_OFF	n/a	5	-999	n/a	n/a	n/a	n/a	12	[0, 0, 0]	-999	PAL1	0	R1228M
1650.003	0.001	1655537	TEST_PROBE	n/a	4	4	VAN	OAK	VAN	DOLL	12	[0, 0, 0]	-999	PAL1	0	R1228M
1650.004	0.572	1655538	REC_START	n/a	4	-999	n/a	OAK	n/a	n/a	12	[0, 0, 0]	-999	PAL1	0	R1228M
1650.576	2.098	1656110	REC_EVENT	572	4	4	VAN	OAK	VAN	DOLL	12	[0, 0, 0]	-999	PAL1	0	R1228M
1652.674	1.346	1658208	REC_EVENT	2670	4	4	VAN	<>	VAN	DOLL	12	[0, 0, 0]	-999	PAL1	0	R1228M
1654.02	1.001	1659554	PROBE_OFF	n/a	4	-999	n/a	n/a	n/a	n/a	12	[0, 0, 0]	-999	PAL1	0	R1228M
1655.021	0.016	1660555	REC_END	n/a	4	-999	n/a	n/a	n/a	n/a	12	[0, 0, 0]	-999	PAL1	0	R1228M
1655.037	0.267	1660571	TEST_ORIENT	n/a	1	5	BOY	FORT	BOY	FORT	12	[0, 0, 0]	-999	PAL1	0	R1228M
1655.304	0.583	1660838	RETRIEVAL_ORIENT_OFF	n/a	4	-999	n/a	n/a	n/a	n/a	12	[0, 0, 0]	-999	PAL1	0	R1228M
1655.887	0.001	1661421	TEST_PROBE	n/a	1	5	BOY	FORT	BOY	FORT	12	[0, 0, 0]	-999	PAL1	0	R1228M
1655.888	3.451	1661422	REC_START	n/a	1	-999	n/a	FORT	n/a	n/a	12	[0, 0, 0]	-999	PAL1	0	R1228M
1659.339	0.566	1664873	REC_EVENT	3451	1	5	BOY	FORT	BOY	FORT	12	[0, 0, 0]	-999	PAL1	0	R1228M
1659.905	1.014	1665438	PROBE_OFF	n/a	1	-999	n/a	n/a	n/a	n/a	12	[0, 0, 0]	-999	PAL1	0	R1228M
1660.919	0.019	1666452	REC_END	n/a	1	-999	n/a	n/a	n/a	n/a	12	[0, 0, 0]	-999	PAL1	0	R1228M
1660.938	0.267	1666471	TEST_ORIENT	n/a	2	6	EAR	n/a	EAR	GATE	12	[0, 0, 0]	-999	PAL1	0	R1228M
1661.205	0.534	1666738	RETRIEVAL_ORIENT_OFF	n/a	1	-999	n/a	n/a	n/a	n/a	12	[0, 0, 0]	-999	PAL1	0	R1228M
1661.739	0.0	1667272	REC_START	n/a	2	-999	n/a	n/a	n/a	n/a	12	[0, 0, 0]	-999	PAL1	0	R1228M
1661.739	4.017	1667272	TEST_PROBE	n/a	2	6	EAR	n/a	EAR	GATE	12	[0, 0, 0]	-999	PAL1	0	R1228M
1665.756	0.654	1671289	PROBE_OFF	n/a	2	-999	n/a	n/a	n/a	n/a	12	[0, 0, 0]	-999	PAL1	0	R1228M
1666.41	0.346	1671943	REC_EVENT	4671	2	6	EAR	<>	EAR	GATE	12	[0, 0, 0]	-999	PAL1	0	R1228M
1666.756	0.013	1672289	REC_END	n/a	2	-999	n/a	n/a	n/a	n/a	12	[0, 0, 0]	-999	PAL1	0	R1228M
1666.769	8.372	1672302	RECALL_END	n/a	-999	-999	n/a	n/a	n/a	n/a	12	[0, 0, 0]	-999	PAL1	0	R1228M
1675.141	10.928	1680674	TRIAL	n/a	-999	-999	n/a	n/a	n/a	n/a	13	[0, 0, 0]	-999	PAL1	0	R1228M
1686.069	0.008	1691601	ENCODING_START	n/a	-999	-999	n/a	n/a	n/a	n/a	13	[0, 0, 0]	-999	PAL1	0	R1228M
1686.077	0.265	1691609	STUDY_ORIENT	n/a	1	5	PASTE	ROAD	PASTE	ROAD	13	[0, 0, 0]	-999	PAL1	0	R1228M
1686.342	0.685	1691874	STUDY_ORIENT_OFF	n/a	1	5	PASTE	ROAD	PASTE	ROAD	13	[0, 0, 0]	-999	PAL1	0	R1228M
1687.027	4.017	1692559	STUDY_PAIR	n/a	1	5	PASTE	ROAD	PASTE	ROAD	13	[0, 0, 0]	-999	PAL1	0	R1228M
1691.044	1.017	1696576	PAIR_OFF	n/a	1	5	PASTE	ROAD	PASTE	ROAD	13	[0, 0, 0]	-999	PAL1	0	R1228M
1692.061	0.266	1697593	STUDY_ORIENT	n/a	2	2	STOOL	n/a	STONE	STOOL	13	[0, 0, 0]	-999	PAL1	0	R1228M
1692.327	0.751	1697859	STUDY_ORIENT_OFF	n/a	2	2	STOOL	n/a	STONE	STOOL	13	[0, 0, 0]	-999	PAL1	0	R1228M
1693.078	4.018	1698610	STUDY_PAIR	n/a	2	2	STOOL	n/a	STONE	STOOL	13	[0, 0, 0]	-999	PAL1	0	R1228M
1697.096	1.016	1702627	PAIR_OFF	n/a	2	2	STOOL	n/a	STONE	STOOL	13	[0, 0, 0]	-999	PAL1	0	R1228M
1698.112	0.266	1703643	STUDY_ORIENT	n/a	3	1	CUP	n/a	CALF	CUP	13	[0, 0, 0]	-999	PAL1	0	R1228M
1698.378	0.718	1703909	STUDY_ORIENT_OFF	n/a	3	1	CUP	n/a	CALF	CUP	13	[0, 0, 0]	-999	PAL1	0	R1228M
1699.096	4.017	1704627	STUDY_PAIR	n/a	3	1	CUP	n/a	CALF	CUP	13	[0, 0, 0]	-999	PAL1	0	R1228M
1703.113	1.017	1708644	PAIR_OFF	n/a	3	1	CUP	n/a	CALF	CUP	13	[0, 0, 0]	-999	PAL1	0	R1228M
1704.13	0.266	1709661	STUDY_ORIENT	n/a	4	6	PEARL	LAMP	LAMP	PEARL	13	[0, 0, 0]	-999	PAL1	0	R1228M
1704.396	0.601	1709927	STUDY_ORIENT_OFF	n/a	4	6	PEARL	LAMP	LAMP	PEARL	13	[0, 0, 0]	-999	PAL1	0	R1228M
