onset	duration	sample	trial_type	response_time	stim_file	serialpos	probepos	probe_word	resp_word	study_1	study_2	list	test	answer	experiment	session	subject
0.0	219.429	69882	SESS_START	n/a	n/a	-999	-999	n/a	n/a	n/a	n/a	-999	[0, 0, 0]	-999	PAL1	1	R1028M
219.429	1.017	179585	START	n/a	n/a	-999	-999	n/a	n/a	n/a	n/a	-1	[-999, -999, -999]	-999	PAL1	1	R1028M
220.446	3.767	180093	PROB	3746.0	n/a	-999	-999	n/a	n/a	n/a	n/a	-1	[6, 6, 1]	13	PAL1	1	R1028M
224.213	4.835	181977	PROB	4811.0	n/a	-999	-999	n/a	n/a	n/a	n/a	-1	[3, 3, 5]	11	PAL1	1	R1028M
229.048	5.134	184394	PROB	5112.0	n/a	-999	-999	n/a	n/a	n/a	n/a	-1	[9, 2, 9]	20	PAL1	1	R1028M
234.182	8.194	186961	PROB	8194.0	n/a	-999	-999	n/a	n/a	n/a	n/a	-1	[9, 6, 9]	24	PAL1	1	R1028M
242.376	87.656	191057	STOP	n/a	n/a	-999	-999	n/a	n/a	n/a	n/a	-1	[-999, -999, -999]	-999	PAL1	1	R1028M
330.032	10.454	234881	ENCODING_START	n/a	n/a	0	-999	n/a	n/a	n/a	n/a	1	[0, 0, 0]	-999	PAL1	1	R1028M
340.486	0.275	240107	STUDY_ORIENT	n/a	n/a	1	1	VINE	STEM	VINE	STEM	1	[0, 0, 0]	-999	PAL1	1	R1028M
341.303	4.0	240516	STUDY_PAIR	n/a	wordpools/wordpool_EN.txt	1	1	VINE	STEM	VINE	STEM	1	[0, 0, 0]	-999	PAL1	1	R1028M
346.321	0.275	243025	STUDY_ORIENT	n/a	n/a	2	4	FOX	n/a	PEAR	FOX	1	[0, 0, 0]	-999	PAL1	1	R1028M
347.288	4.0	243508	STUDY_PAIR	n/a	wordpools/wordpool_EN.txt	2	4	FOX	n/a	PEAR	FOX	1	[0, 0, 0]	-999	PAL1	1	R1028M
352.322	0.275	246025	STUDY_ORIENT	n/a	n/a	3	5	THREAD	DITCH	THREAD	DITCH	1	[0, 0, 0]	-999	PAL1	1	R1028M
353.155	4.0	246441	STUDY_PAIR	n/a	wordpools/wordpool_EN.txt	3	5	THREAD	DITCH	THREAD	DITCH	1	[0, 0, 0]	-999	PAL1	1	R1028M
358.173	0.275	248950	STUDY_ORIENT	n/a	n/a	4	6	CRANE	TOOTH	CRANE	TOOTH	1	[0, 0, 0]	-999	PAL1	1	R1028M
359.04	4.0	249383	STUDY_PAIR	n/a	wordpools/wordpool_EN.txt	4	6	CRANE	TOOTH	CRANE	TOOTH	1	[0, 0, 0]	-999	PAL1	1	R1028M
364.074	0.275	251900	STUDY_ORIENT	n/a	n/a	5	3	OAR	FACE	FACE	OAR	1	[0, 0, 0]	-999	PAL1	1	R1028M
364.908	4.0	252317	STUDY_PAIR	n/a	wordpools/wordpool_EN.txt	5	3	OAR	FACE	FACE	OAR	1	[0, 0, 0]	-999	PAL1	1	R1028M
369.942	0.275	254834	STUDY_ORIENT	n/a	n/a	6	2	MOLE	FROG	FROG	MOLE	1	[0, 0, 0]	-999	PAL1	1	R1028M
370.725	4.0	255225	STUDY_PAIR	n/a	wordpools/wordpool_EN.txt	6	2	MOLE	FROG	FROG	MOLE	1	[0, 0, 0]	-999	PAL1	1	R1028M
374.743	0.999	257234	START	n/a	n/a	-999	-999	n/a	n/a	n/a	n/a	1	[-999, -999, -999]	-999	PAL1	1	R1028M
375.742	0.017	257734	MATH_START	n/a	n/a	-999	-999	n/a	n/a	n/a	n/a	1	[0, 0, 0]	-999	PAL1	1	R1028M
375.759	4.352	257742	PROB	4329.0	n/a	-999	-999	n/a	n/a	n/a	n/a	1	[8, 7, 2]	17	PAL1	1	R1028M
380.111	4.533	259918	PROB	4504.0	n/a	-999	-999	n/a	n/a	n/a	n/a	1	[1, 5, 4]	10	PAL1	1	R1028M
384.644	3.984	262184	PROB	3955.0	n/a	-999	-999	n/a	n/a	n/a	n/a	1	[9, 1, 4]	14	PAL1	1	R1028M
388.628	5.134	264176	PROB	5107.0	n/a	-999	-999	n/a	n/a	n/a	n/a	1	[8, 8, 4]	20	PAL1	1	R1028M
393.762	11.078	266743	PROB	11078.0	n/a	-999	-999	n/a	n/a	n/a	n/a	1	[6, 8, 9]	23	PAL1	1	R1028M
404.84	0.009	272281	STOP	n/a	n/a	-999	-999	n/a	n/a	n/a	n/a	1	[-999, -999, -999]	-999	PAL1	1	R1028M
404.849	0.0	272286	MATH_END	n/a	n/a	-999	-999	n/a	n/a	n/a	n/a	1	[0, 0, 0]	-999	PAL1	1	R1028M
404.849	0.017	272286	TEST_START	n/a	n/a	-999	-999	n/a	n/a	n/a	n/a	1	[0, 0, 0]	-999	PAL1	1	R1028M
404.866	0.275	272294	TEST_ORIENT	n/a	n/a	1	1	VINE	STEM	VINE	STEM	1	[0, 0, 0]	-999	PAL1	1	R1028M
405.732	4.0	272727	TEST_PROBE	n/a	wordpools/wordpool_EN.txt	1	1	VINE	STEM	VINE	STEM	1	[0, 0, 0]	-999	PAL1	1	R1028M
405.732	1.0	272727	REC_START	n/a	n/a	1	-999	n/a	STEM	n/a	n/a	1	[0, 0, 0]	-999	PAL1	1	R1028M
406.732	4.017	273227	REC_EVENT	1000.0	n/a	1	1	VINE	STEM	VINE	STEM	1	[0, 0, 0]	-999	PAL1	1	R1028M
410.749	0.017	275235	REC_END	n/a	n/a	1	-999	n/a	n/a	n/a	n/a	1	[0, 0, 0]	-999	PAL1	1	R1028M
410.766	0.275	275244	TEST_ORIENT	n/a	n/a	6	2	MOLE	FROG	FROG	MOLE	1	[0, 0, 0]	-999	PAL1	1	R1028M
411.749	4.0	275735	TEST_PROBE	n/a	wordpools/wordpool_EN.txt	6	2	MOLE	FROG	FROG	MOLE	1	[0, 0, 0]	-999	PAL1	1	R1028M
411.751	1.87	275736	REC_START	n/a	n/a	6	-999	n/a	FROG	n/a	n/a	1	[0, 0, 0]	-999	PAL1	1	R1028M
413.621	3.129	276671	REC_EVENT	1870.0	n/a	6	2	MOLE	FROG	FROG	MOLE	1	[0, 0, 0]	-999	PAL1	1	R1028M
416.75	0.017	278235	REC_END	n/a	n/a	6	-999	n/a	n/a	n/a	n/a	1	[0, 0, 0]	-999	PAL1	1	R1028M
416.767	0.275	278244	TEST_ORIENT	n/a	n/a	5	3	OAR	FACE	FACE	OAR	1	[0, 0, 0]	-999	PAL1	1	R1028M
417.651	4.0	278686	TEST_PROBE	n/a	wordpools/wordpool_EN.txt	5	3	OAR	FACE	FACE	OAR	1	[0, 0, 0]	-999	PAL1	1	R1028M
417.651	1.157	278686	REC_START	n/a	n/a	5	-999	n/a	FACE	n/a	n/a	1	[0, 0, 0]	-999	PAL1	1	R1028M
418.808	3.86	279264	REC_EVENT	1157.0	n/a	5	3	OAR	FACE	FACE	OAR	1	[0, 0, 0]	-999	PAL1	1	R1028M
422.668	0.017	281194	REC_END	n/a	n/a	5	-999	n/a	n/a	n/a	n/a	1	[0, 0, 0]	-999	PAL1	1	R1028M
422.685	0.275	281203	TEST_ORIENT	n/a	n/a	2	4	FOX	n/a	PEAR	FOX	1	[0, 0, 0]	-999	PAL1	1	R1028M
423.552	4.0	281636	TEST_PROBE	n/a	wordpools/wordpool_EN.txt	2	4	FOX	n/a	PEAR	FOX	1	[0, 0, 0]	-999	PAL1	1	R1028M
423.552	4.965	281636	REC_START	n/a	n/a	2	-999	n/a	n/a	n/a	n/a	1	[0, 0, 0]	-999	PAL1	1	R1028M
428.517	0.052	284118	REC_EVENT	4965.0	n/a	2	4	FOX	<>	PEAR	FOX	1	[0, 0, 0]	-999	PAL1	1	R1028M
428.569	0.017	284144	REC_END	n/a	n/a	2	-999	n/a	n/a	n/a	n/a	1	[0, 0, 0]	-999	PAL1	1	R1028M
428.586	0.275	284153	TEST_ORIENT	n/a	n/a	3	5	THREAD	DITCH	THREAD	DITCH	1	[0, 0, 0]	-999	PAL1	1	R1028M
429.42	4.0	284570	TEST_PROBE	n/a	wordpools/wordpool_EN.txt	3	5	THREAD	DITCH	THREAD	DITCH	1	[0, 0, 0]	-999	PAL1	1	R1028M
429.421	1.14	284570	REC_START	n/a	n/a	3	-999	n/a	DITCH	n/a	n/a	1	[0, 0, 0]	-999	PAL1	1	R1028M
430.561	3.868	285140	REC_EVENT	1140.0	n/a	3	5	THREAD	DITCH	THREAD	DITCH	1	[0, 0, 0]	-999	PAL1	1	R1028M
434.429	0.009	287074	REC_END	n/a	n/a	3	-999	n/a	n/a	n/a	n/a	1	[0, 0, 0]	-999	PAL1	1	R1028M
434.438	0.275	287079	TEST_ORIENT	n/a	n/a	4	6	CRANE	TOOTH	CRANE	TOOTH	1	[0, 0, 0]	-999	PAL1	1	R1028M
435.455	0.0	287587	REC_START	n/a	n/a	4	-999	n/a	TOOTH	n/a	n/a	1	[0, 0, 0]	-999	PAL1	1	R1028M
435.455	4.0	287587	TEST_PROBE	n/a	wordpools/wordpool_EN.txt	4	6	CRANE	TOOTH	CRANE	TOOTH	1	[0, 0, 0]	-999	PAL1	1	R1028M
436.794	3.679	288256	REC_EVENT	1339.0	n/a	4	6	CRANE	TOOTH	CRANE	TOOTH	1	[0, 0, 0]	-999	PAL1	1	R1028M
440.473	10.695	290096	REC_END	n/a	n/a	4	-999	n/a	n/a	n/a	n/a	1	[0, 0, 0]	-999	PAL1	1	R1028M
451.168	10.441	295443	ENCODING_START	n/a	n/a	0	-999	n/a	n/a	n/a	n/a	2	[0, 0, 0]	-999	PAL1	1	R1028M
461.609	0.275	300663	STUDY_ORIENT	n/a	n/a	1	3	MOOSE	HOSE	HOSE	MOOSE	2	[0, 0, 0]	-999	PAL1	1	R1028M
462.41	4.0	301063	STUDY_PAIR	n/a	wordpools/wordpool_EN.txt	1	3	MOOSE	HOSE	HOSE	MOOSE	2	[0, 0, 0]	-999	PAL1	1	R1028M
467.428	0.275	303572	STUDY_ORIENT	n/a	n/a	2	4	CLIFF	FUR	FUR	CLIFF	2	[0, 0, 0]	-999	PAL1	1	R1028M
468.262	4.0	303989	STUDY_PAIR	n/a	wordpools/wordpool_EN.txt	2	4	CLIFF	FUR	FUR	CLIFF	2	[0, 0, 0]	-999	PAL1	1	R1028M
473.296	0.275	306506	STUDY_ORIENT	n/a	n/a	3	1	STEAK	TENT	STEAK	TENT	2	[0, 0, 0]	-999	PAL1	1	R1028M
474.296	4.0	307006	STUDY_PAIR	n/a	wordpools/wordpool_EN.txt	3	1	STEAK	TENT	STEAK	TENT	2	[0, 0, 0]	-999	PAL1	1	R1028M
479.314	0.275	309514	STUDY_ORIENT	n/a	n/a	4	2	ROCK	CLOCK	CLOCK	ROCK	2	[0, 0, 0]	-999	PAL1	1	R1028M
480.147	4.0	309931	STUDY_PAIR	n/a	wordpools/wordpool_EN.txt	4	2	ROCK	CLOCK	CLOCK	ROCK	2	[0, 0, 0]	-999	PAL1	1	R1028M
485.165	0.275	312439	STUDY_ORIENT	n/a	n/a	5	5	WING	n/a	SEED	WING	2	[0, 0, 0]	-999	PAL1	1	R1028M
486.132	4.0	312923	STUDY_PAIR	n/a	wordpools/wordpool_EN.txt	5	5	WING	n/a	SEED	WING	2	[0, 0, 0]	-999	PAL1	1	R1028M
491.166	0.275	315440	STUDY_ORIENT	n/a	n/a	6	6	GRAPE	BADGE	BADGE	GRAPE	2	[0, 0, 0]	-999	PAL1	1	R1028M
492.0	4.0	315857	STUDY_PAIR	n/a	wordpools/wordpool_EN.txt	6	6	GRAPE	BADGE	BADGE	GRAPE	2	[0, 0, 0]	-999	PAL1	1	R1028M
496.018	0.999	317865	START	n/a	n/a	-999	-999	n/a	n/a	n/a	n/a	2	[-999, -999, -999]	-999	PAL1	1	R1028M
497.017	0.017	318365	MATH_START	n/a	n/a	-999	-999	n/a	n/a	n/a	n/a	2	[0, 0, 0]	-999	PAL1	1	R1028M
497.034	3.784	318373	PROB	3750.0	n/a	-999	-999	n/a	n/a	n/a	n/a	2	[6, 4, 6]	16	PAL1	1	R1028M
500.818	10.102	320265	PROB	10070.0	n/a	-999	-999	n/a	n/a	n/a	n/a	2	[8, 8, 6]	22	PAL1	1	R1028M
510.92	7.352	325316	PROB	7352.0	n/a	-999	-999	n/a	n/a	n/a	n/a	2	[9, 6, 2]	17	PAL1	1	R1028M
518.272	0.016	328991	STOP	n/a	n/a	-999	-999	n/a	n/a	n/a	n/a	2	[-999, -999, -999]	-999	PAL1	1	R1028M
518.288	0.0	328999	TEST_START	n/a	n/a	-999	-999	n/a	n/a	n/a	n/a	2	[0, 0, 0]	-999	PAL1	1	R1028M
518.288	0.017	328999	MATH_END	n/a	n/a	-999	-999	n/a	n/a	n/a	n/a	2	[0, 0, 0]	-999	PAL1	1	R1028M
518.305	0.275	329008	TEST_ORIENT	n/a	n/a	3	1	STEAK	TENT	STEAK	TENT	2	[0, 0, 0]	-999	PAL1	1	R1028M
519.222	4.0	329466	TEST_PROBE	n/a	wordpools/wordpool_EN.txt	3	1	STEAK	TENT	STEAK	TENT	2	[0, 0, 0]	-999	PAL1	1	R1028M
519.223	1.338	329467	REC_START	n/a	n/a	3	-999	n/a	TENT	n/a	n/a	2	[0, 0, 0]	-999	PAL1	1	R1028M
520.561	3.686	330136	REC_EVENT	1338.0	n/a	3	1	STEAK	TENT	STEAK	TENT	2	[0, 0, 0]	-999	PAL1	1	R1028M
524.247	0.009	331978	REC_END	n/a	n/a	3	-999	n/a	n/a	n/a	n/a	2	[0, 0, 0]	-999	PAL1	1	R1028M
524.256	0.275	331983	TEST_ORIENT	n/a	n/a	4	2	ROCK	CLOCK	CLOCK	ROCK	2	[0, 0, 0]	-999	PAL1	1	R1028M
525.156	4.0	332433	TEST_PROBE	n/a	wordpools/wordpool_EN.txt	4	2	ROCK	CLOCK	CLOCK	ROCK	2	[0, 0, 0]	-999	PAL1	1	R1028M
525.157	1.453	332433	REC_START	n/a	n/a	4	-999	n/a	CLOCK	n/a	n/a	2	[0, 0, 0]	-999	PAL1	1	R1028M
526.61	3.555	333160	REC_EVENT	1453.0	n/a	4	2	ROCK	CLOCK	CLOCK	ROCK	2	[0, 0, 0]	-999	PAL1	1	R1028M
530.165	0.009	334937	REC_END	n/a	n/a	4	-999	n/a	n/a	n/a	n/a	2	[0, 0, 0]	-999	PAL1	1	R1028M
530.174	0.275	334942	TEST_ORIENT	n/a	n/a	1	3	MOOSE	HOSE	HOSE	MOOSE	2	[0, 0, 0]	-999	PAL1	1	R1028M
531.108	4.0	335409	TEST_PROBE	n/a	wordpools/wordpool_EN.txt	1	3	MOOSE	HOSE	HOSE	MOOSE	2	[0, 0, 0]	-999	PAL1	1	R1028M
531.108	1.568	335409	REC_START	n/a	n/a	1	-999	n/a	HOSE	n/a	n/a	2	[0, 0, 0]	-999	PAL1	1	R1028M
532.676	3.449	336193	REC_EVENT	1568.0	n/a	1	3	MOOSE	HOSE	HOSE	MOOSE	2	[0, 0, 0]	-999	PAL1	1	R1028M
536.125	0.017	337917	REC_END	n/a	n/a	1	-999	n/a	n/a	n/a	n/a	2	[0, 0, 0]	-999	PAL1	1	R1028M
536.142	0.275	337925	TEST_ORIENT	n/a	n/a	2	4	CLIFF	FUR	FUR	CLIFF	2	[0, 0, 0]	-999	PAL1	1	R1028M
536.975	4.0	338342	TEST_PROBE	n/a	wordpools/wordpool_EN.txt	2	4	CLIFF	FUR	FUR	CLIFF	2	[0, 0, 0]	-999	PAL1	1	R1028M
536.976	1.466	338342	REC_START	n/a	n/a	2	-999	n/a	FUR	n/a	n/a	2	[0, 0, 0]	-999	PAL1	1	R1028M
538.442	3.542	339075	REC_EVENT	1466.0	n/a	2	4	CLIFF	FUR	FUR	CLIFF	2	[0, 0, 0]	-999	PAL1	1	R1028M
541.984	0.009	340846	REC_END	n/a	n/a	2	-999	n/a	n/a	n/a	n/a	2	[0, 0, 0]	-999	PAL1	1	R1028M
541.993	0.275	340851	TEST_ORIENT	n/a	n/a	5	5	WING	n/a	SEED	WING	2	[0, 0, 0]	-999	PAL1	1	R1028M
543.01	4.0	341359	TEST_PROBE	n/a	wordpools/wordpool_EN.txt	5	5	WING	n/a	SEED	WING	2	[0, 0, 0]	-999	PAL1	1	R1028M
543.01	4.92	341359	REC_START	n/a	n/a	5	-999	n/a	n/a	n/a	n/a	2	[0, 0, 0]	-999	PAL1	1	R1028M
547.93	0.097	343819	REC_EVENT	4920.0	n/a	5	5	WING	<>	SEED	WING	2	[0, 0, 0]	-999	PAL1	1	R1028M
548.027	0.017	343867	REC_END	n/a	n/a	5	-999	n/a	n/a	n/a	n/a	2	[0, 0, 0]	-999	PAL1	1	R1028M
548.044	0.275	343876	TEST_ORIENT	n/a	n/a	6	6	GRAPE	BADGE	BADGE	GRAPE	2	[0, 0, 0]	-999	PAL1	1	R1028M
548.894	4.0	344301	TEST_PROBE	n/a	wordpools/wordpool_EN.txt	6	6	GRAPE	BADGE	BADGE	GRAPE	2	[0, 0, 0]	-999	PAL1	1	R1028M
548.895	1.008	344301	REC_START	n/a	n/a	6	-999	n/a	BADGE	n/a	n/a	2	[0, 0, 0]	-999	PAL1	1	R1028M
549.903	4.0	344805	REC_EVENT	1008.0	n/a	6	6	GRAPE	BADGE	BADGE	GRAPE	2	[0, 0, 0]	-999	PAL1	1	R1028M
553.903	7.656	346805	REC_END	n/a	n/a	6	-999	n/a	n/a	n/a	n/a	2	[0, 0, 0]	-999	PAL1	1	R1028M
561.559	10.44	350633	ENCODING_START	n/a	n/a	0	-999	n/a	n/a	n/a	n/a	3	[0, 0, 0]	-999	PAL1	1	R1028M
571.999	0.275	355852	STUDY_ORIENT	n/a	n/a	1	3	CAPE	HAWK	HAWK	CAPE	3	[0, 0, 0]	-999	PAL1	1	R1028M
572.816	4.0	356261	STUDY_PAIR	n/a	wordpools/wordpool_EN.txt	1	3	CAPE	HAWK	HAWK	CAPE	3	[0, 0, 0]	-999	PAL1	1	R1028M
577.85	0.275	358777	STUDY_ORIENT	n/a	n/a	2	6	SHEEP	CLOUD	SHEEP	CLOUD	3	[0, 0, 0]	-999	PAL1	1	R1028M
578.766	4.0	359235	STUDY_PAIR	n/a	wordpools/wordpool_EN.txt	2	6	SHEEP	CLOUD	SHEEP	CLOUD	3	[0, 0, 0]	-999	PAL1	1	R1028M
583.801	0.275	361752	STUDY_ORIENT	n/a	n/a	3	5	FISH	SPONGE	FISH	SPONGE	3	[0, 0, 0]	-999	PAL1	1	R1028M
584.667	4.0	362185	STUDY_PAIR	n/a	wordpools/wordpool_EN.txt	3	5	FISH	SPONGE	FISH	SPONGE	3	[0, 0, 0]	-999	PAL1	1	R1028M
589.701	0.275	364702	STUDY_ORIENT	n/a	n/a	4	2	SALT	CROWN	CROWN	SALT	3	[0, 0, 0]	-999	PAL1	1	R1028M
590.618	4.0	365161	STUDY_PAIR	n/a	wordpools/wordpool_EN.txt	4	2	SALT	CROWN	CROWN	SALT	3	[0, 0, 0]	-999	PAL1	1	R1028M
595.636	0.275	367669	STUDY_ORIENT	n/a	n/a	5	1	BATH	TOY	TOY	BATH	3	[0, 0, 0]	-999	PAL1	1	R1028M
596.47	4.0	368086	STUDY_PAIR	n/a	wordpools/wordpool_EN.txt	5	1	BATH	TOY	TOY	BATH	3	[0, 0, 0]	-999	PAL1	1	R1028M
601.488	0.275	370595	STUDY_ORIENT	n/a	n/a	6	4	GLOVE	STRING	STRING	GLOVE	3	[0, 0, 0]	-999	PAL1	1	R1028M
602.488	4.0	371095	STUDY_PAIR	n/a	wordpools/wordpool_EN.txt	6	4	GLOVE	STRING	STRING	GLOVE	3	[0, 0, 0]	-999	PAL1	1	R1028M
606.49	0.999	373096	START	n/a	n/a	-999	-999	n/a	n/a	n/a	n/a	3	[-999, -999, -999]	-999	PAL1	1	R1028M
607.489	0.017	373595	MATH_START	n/a	n/a	-999	-999	n/a	n/a	n/a	n/a	3	[0, 0, 0]	-999	PAL1	1	R1028M
607.506	11.786	373604	PROB	11766.0	n/a	-999	-999	n/a	n/a	n/a	n/a	3	[4, 8, 9]	21	PAL1	1	R1028M
619.292	4.167	379496	PROB	4140.0	n/a	-999	-999	n/a	n/a	n/a	n/a	3	[3, 5, 2]	10	PAL1	1	R1028M
623.459	3.413	381579	PROB	3413.0	n/a	-999	-999	n/a	n/a	n/a	n/a	3	[6, 5, 4]	15	PAL1	1	R1028M
626.872	0.004	383286	STOP	n/a	n/a	-999	-999	n/a	n/a	n/a	n/a	3	[-999, -999, -999]	-999	PAL1	1	R1028M
626.876	0.0	383288	TEST_START	n/a	n/a	-999	-999	n/a	n/a	n/a	n/a	3	[0, 0, 0]	-999	PAL1	1	R1028M
626.876	0.017	383288	MATH_END	n/a	n/a	-999	-999	n/a	n/a	n/a	n/a	3	[0, 0, 0]	-999	PAL1	1	R1028M
626.893	0.275	383296	TEST_ORIENT	n/a	n/a	5	1	BATH	TOY	TOY	BATH	3	[0, 0, 0]	-999	PAL1	1	R1028M
627.893	4.0	383796	TEST_PROBE	n/a	wordpools/wordpool_EN.txt	5	1	BATH	TOY	TOY	BATH	3	[0, 0, 0]	-999	PAL1	1	R1028M
627.895	1.442	383797	REC_START	n/a	n/a	5	-999	n/a	TOY	n/a	n/a	3	[0, 0, 0]	-999	PAL1	1	R1028M
629.337	3.557	384518	REC_EVENT	1442.0	n/a	5	1	BATH	TOY	TOY	BATH	3	[0, 0, 0]	-999	PAL1	1	R1028M
632.894	0.017	386296	REC_END	n/a	n/a	5	-999	n/a	n/a	n/a	n/a	3	[0, 0, 0]	-999	PAL1	1	R1028M
632.911	0.275	386305	TEST_ORIENT	n/a	n/a	4	2	SALT	CROWN	CROWN	SALT	3	[0, 0, 0]	-999	PAL1	1	R1028M
633.911	4.0	386805	TEST_PROBE	n/a	wordpools/wordpool_EN.txt	4	2	SALT	CROWN	CROWN	SALT	3	[0, 0, 0]	-999	PAL1	1	R1028M
633.911	1.139	386805	REC_START	n/a	n/a	4	-999	n/a	CROWN	n/a	n/a	3	[0, 0, 0]	-999	PAL1	1	R1028M
635.05	3.879	387374	REC_EVENT	1139.0	n/a	4	2	SALT	CROWN	CROWN	SALT	3	[0, 0, 0]	-999	PAL1	1	R1028M
638.929	0.016	389314	REC_END	n/a	n/a	4	-999	n/a	n/a	n/a	n/a	3	[0, 0, 0]	-999	PAL1	1	R1028M
638.945	0.275	389322	TEST_ORIENT	n/a	n/a	1	3	CAPE	HAWK	HAWK	CAPE	3	[0, 0, 0]	-999	PAL1	1	R1028M
639.829	4.0	389764	TEST_PROBE	n/a	wordpools/wordpool_EN.txt	1	3	CAPE	HAWK	HAWK	CAPE	3	[0, 0, 0]	-999	PAL1	1	R1028M
639.83	1.289	389764	REC_START	n/a	n/a	1	-999	n/a	HAWK	n/a	n/a	3	[0, 0, 0]	-999	PAL1	1	R1028M
641.119	3.727	390409	REC_EVENT	1289.0	n/a	1	3	CAPE	HAWK	HAWK	CAPE	3	[0, 0, 0]	-999	PAL1	1	R1028M
644.846	0.017	392272	REC_END	n/a	n/a	1	-999	n/a	n/a	n/a	n/a	3	[0, 0, 0]	-999	PAL1	1	R1028M
644.863	0.275	392280	TEST_ORIENT	n/a	n/a	6	4	GLOVE	STRING	STRING	GLOVE	3	[0, 0, 0]	-999	PAL1	1	R1028M
645.797	0.0	392747	REC_START	n/a	n/a	6	-999	n/a	STRING	n/a	n/a	3	[0, 0, 0]	-999	PAL1	1	R1028M
645.797	4.0	392747	TEST_PROBE	n/a	wordpools/wordpool_EN.txt	6	4	GLOVE	STRING	STRING	GLOVE	3	[0, 0, 0]	-999	PAL1	1	R1028M
647.766	1.385	393732	REC_EVENT	1969.0	n/a	6	4	GLOVE	THREAD	STRING	GLOVE	3	[0, 0, 0]	-999	PAL1	1	R1028M
649.151	1.663	394424	REC_EVENT	3354.0	n/a	6	4	GLOVE	STRING	STRING	GLOVE	3	[0, 0, 0]	-999	PAL1	1	R1028M
650.814	0.017	395256	REC_END	n/a	n/a	6	-999	n/a	n/a	n/a	n/a	3	[0, 0, 0]	-999	PAL1	1	R1028M
650.831	0.275	395264	TEST_ORIENT	n/a	n/a	3	5	FISH	SPONGE	FISH	SPONGE	3	[0, 0, 0]	-999	PAL1	1	R1028M
651.697	4.0	395697	TEST_PROBE	n/a	wordpools/wordpool_EN.txt	3	5	FISH	SPONGE	FISH	SPONGE	3	[0, 0, 0]	-999	PAL1	1	R1028M
651.697	1.204	395697	REC_START	n/a	n/a	3	-999	n/a	SPONGE	n/a	n/a	3	[0, 0, 0]	-999	PAL1	1	R1028M
652.901	3.813	396299	REC_EVENT	1204.0	n/a	3	5	FISH	SPONGE	FISH	SPONGE	3	[0, 0, 0]	-999	PAL1	1	R1028M
656.714	0.017	398205	REC_END	n/a	n/a	3	-999	n/a	n/a	n/a	n/a	3	[0, 0, 0]	-999	PAL1	1	R1028M
656.731	0.275	398214	TEST_ORIENT	n/a	n/a	2	6	SHEEP	CLOUD	SHEEP	CLOUD	3	[0, 0, 0]	-999	PAL1	1	R1028M
657.681	4.0	398689	TEST_PROBE	n/a	wordpools/wordpool_EN.txt	2	6	SHEEP	CLOUD	SHEEP	CLOUD	3	[0, 0, 0]	-999	PAL1	1	R1028M
657.682	0.956	398689	REC_START	n/a	n/a	2	-999	n/a	CLOUD	n/a	n/a	3	[0, 0, 0]	-999	PAL1	1	R1028M
658.638	4.051	399167	REC_EVENT	956.0	n/a	2	6	SHEEP	CLOUD	SHEEP	CLOUD	3	[0, 0, 0]	-999	PAL1	1	R1028M
662.689	9.319	401192	REC_END	n/a	n/a	2	-999	n/a	n/a	n/a	n/a	3	[0, 0, 0]	-999	PAL1	1	R1028M
672.008	10.446	405851	ENCODING_START	n/a	n/a	0	-999	n/a	n/a	n/a	n/a	4	[0, 0, 0]	-999	PAL1	1	R1028M
682.454	0.275	411074	STUDY_ORIENT	n/a	n/a	1	1	PLATE	TOE	PLATE	TOE	4	[0, 0, 0]	-999	PAL1	1	R1028M
683.338	4.0	411516	STUDY_PAIR	n/a	wordpools/wordpool_EN.txt	1	1	PLATE	TOE	PLATE	TOE	4	[0, 0, 0]	-999	PAL1	1	R1028M
688.372	0.275	414033	STUDY_ORIENT	n/a	n/a	2	2	MUD	NEST	MUD	NEST	4	[0, 0, 0]	-999	PAL1	1	R1028M
689.322	4.0	414508	STUDY_PAIR	n/a	wordpools/wordpool_EN.txt	2	2	MUD	NEST	MUD	NEST	4	[0, 0, 0]	-999	PAL1	1	R1028M
694.34	0.275	417016	STUDY_ORIENT	n/a	n/a	3	3	BIRD	PALM	BIRD	PALM	4	[0, 0, 0]	-999	PAL1	1	R1028M
695.307	4.0	417500	STUDY_PAIR	n/a	wordpools/wordpool_EN.txt	3	3	BIRD	PALM	BIRD	PALM	4	[0, 0, 0]	-999	PAL1	1	R1028M
700.341	0.275	420017	STUDY_ORIENT	n/a	n/a	4	4	DEER	SEAL	SEAL	DEER	4	[0, 0, 0]	-999	PAL1	1	R1028M
701.258	4.0	420475	STUDY_PAIR	n/a	wordpools/wordpool_EN.txt	4	4	DEER	SEAL	SEAL	DEER	4	[0, 0, 0]	-999	PAL1	1	R1028M
706.292	0.275	422992	STUDY_ORIENT	n/a	n/a	5	5	TIE	WAVE	WAVE	TIE	4	[0, 0, 0]	-999	PAL1	1	R1028M
707.192	4.0	423442	STUDY_PAIR	n/a	wordpools/wordpool_EN.txt	5	5	TIE	WAVE	WAVE	TIE	4	[0, 0, 0]	-999	PAL1	1	R1028M
712.21	0.275	425950	STUDY_ORIENT	n/a	n/a	6	6	CROW	PEN	PEN	CROW	4	[0, 0, 0]	-999	PAL1	1	R1028M
713.177	4.0	426434	STUDY_PAIR	n/a	wordpools/wordpool_EN.txt	6	6	CROW	PEN	PEN	CROW	4	[0, 0, 0]	-999	PAL1	1	R1028M
717.195	0.999	428443	START	n/a	n/a	-999	-999	n/a	n/a	n/a	n/a	4	[-999, -999, -999]	-999	PAL1	1	R1028M
718.194	0.017	428942	MATH_START	n/a	n/a	-999	-999	n/a	n/a	n/a	n/a	4	[0, 0, 0]	-999	PAL1	1	R1028M
718.211	3.984	428951	PROB	3957.0	n/a	-999	-999	n/a	n/a	n/a	n/a	4	[1, 5, 2]	8	PAL1	1	R1028M
722.195	4.335	430942	PROB	4301.0	n/a	-999	-999	n/a	n/a	n/a	n/a	4	[6, 4, 2]	12	PAL1	1	R1028M
726.53	5.183	433110	PROB	5157.0	n/a	-999	-999	n/a	n/a	n/a	n/a	4	[7, 4, 2]	13	PAL1	1	R1028M
731.713	4.867	435701	PROB	4838.0	n/a	-999	-999	n/a	n/a	n/a	n/a	4	[8, 7, 5]	20	PAL1	1	R1028M
736.58	3.556	438134	PROB	3556.0	n/a	-999	-999	n/a	n/a	n/a	n/a	4	[7, 5, 5]	17	PAL1	1	R1028M
740.136	0.013	439912	STOP	n/a	n/a	-999	-999	n/a	n/a	n/a	n/a	4	[-999, -999, -999]	-999	PAL1	1	R1028M
740.149	0.0	439919	MATH_END	n/a	n/a	-999	-999	n/a	n/a	n/a	n/a	4	[0, 0, 0]	-999	PAL1	1	R1028M
740.149	0.017	439919	TEST_START	n/a	n/a	-999	-999	n/a	n/a	n/a	n/a	4	[0, 0, 0]	-999	PAL1	1	R1028M
740.166	0.275	439927	TEST_ORIENT	n/a	n/a	1	1	PLATE	TOE	PLATE	TOE	4	[0, 0, 0]	-999	PAL1	1	R1028M
741.166	4.0	440427	TEST_PROBE	n/a	wordpools/wordpool_EN.txt	1	1	PLATE	TOE	PLATE	TOE	4	[0, 0, 0]	-999	PAL1	1	R1028M
741.166	1.032	440427	REC_START	n/a	n/a	1	-999	n/a	TOE	n/a	n/a	4	[0, 0, 0]	-999	PAL1	1	R1028M
742.198	3.985	440943	REC_EVENT	1032.0	n/a	1	1	PLATE	TOE	PLATE	TOE	4	[0, 0, 0]	-999	PAL1	1	R1028M
746.183	0.017	442935	REC_END	n/a	n/a	1	-999	n/a	n/a	n/a	n/a	4	[0, 0, 0]	-999	PAL1	1	R1028M
746.2	0.275	442944	TEST_ORIENT	n/a	n/a	2	2	MUD	NEST	MUD	NEST	4	[0, 0, 0]	-999	PAL1	1	R1028M
747.084	4.0	443386	TEST_PROBE	n/a	wordpools/wordpool_EN.txt	2	2	MUD	NEST	MUD	NEST	4	[0, 0, 0]	-999	PAL1	1	R1028M
747.084	1.458	443386	REC_START	n/a	n/a	2	-999	n/a	NEST	n/a	n/a	4	[0, 0, 0]	-999	PAL1	1	R1028M
748.542	3.559	444115	REC_EVENT	1458.0	n/a	2	2	MUD	NEST	MUD	NEST	4	[0, 0, 0]	-999	PAL1	1	R1028M
752.101	0.017	445894	REC_END	n/a	n/a	2	-999	n/a	n/a	n/a	n/a	4	[0, 0, 0]	-999	PAL1	1	R1028M
752.118	0.275	445902	TEST_ORIENT	n/a	n/a	3	3	BIRD	PALM	BIRD	PALM	4	[0, 0, 0]	-999	PAL1	1	R1028M
752.985	4.0	446336	TEST_PROBE	n/a	wordpools/wordpool_EN.txt	3	3	BIRD	PALM	BIRD	PALM	4	[0, 0, 0]	-999	PAL1	1	R1028M
752.986	1.651	446336	REC_START	n/a	n/a	3	-999	n/a	PALM	n/a	n/a	4	[0, 0, 0]	-999	PAL1	1	R1028M
754.637	3.373	447162	REC_EVENT	1651.0	n/a	3	3	BIRD	PALM	BIRD	PALM	4	[0, 0, 0]	-999	PAL1	1	R1028M
758.01	0.009	448848	REC_END	n/a	n/a	3	-999	n/a	n/a	n/a	n/a	4	[0, 0, 0]	-999	PAL1	1	R1028M
758.019	0.275	448853	TEST_ORIENT	n/a	n/a	4	4	DEER	SEAL	SEAL	DEER	4	[0, 0, 0]	-999	PAL1	1	R1028M
759.036	4.0	449361	TEST_PROBE	n/a	wordpools/wordpool_EN.txt	4	4	DEER	SEAL	SEAL	DEER	4	[0, 0, 0]	-999	PAL1	1	R1028M
759.036	1.402	449361	REC_START	n/a	n/a	4	-999	n/a	SEAL	n/a	n/a	4	[0, 0, 0]	-999	PAL1	1	R1028M
760.438	3.615	450062	REC_EVENT	1402.0	n/a	4	4	DEER	SEAL	SEAL	DEER	4	[0, 0, 0]	-999	PAL1	1	R1028M
764.053	0.017	451869	REC_END	n/a	n/a	4	-999	n/a	n/a	n/a	n/a	4	[0, 0, 0]	-999	PAL1	1	R1028M
764.07	0.275	451878	TEST_ORIENT	n/a	n/a	5	5	TIE	WAVE	WAVE	TIE	4	[0, 0, 0]	-999	PAL1	1	R1028M
764.92	4.0	452303	TEST_PROBE	n/a	wordpools/wordpool_EN.txt	5	5	TIE	WAVE	WAVE	TIE	4	[0, 0, 0]	-999	PAL1	1	R1028M
764.921	1.594	452303	REC_START	n/a	n/a	5	-999	n/a	WAVE	n/a	n/a	4	[0, 0, 0]	-999	PAL1	1	R1028M
766.515	3.414	453100	REC_EVENT	1594.0	n/a	5	5	TIE	WAVE	WAVE	TIE	4	[0, 0, 0]	-999	PAL1	1	R1028M
769.929	0.009	454807	REC_END	n/a	n/a	5	-999	n/a	n/a	n/a	n/a	4	[0, 0, 0]	-999	PAL1	1	R1028M
769.938	0.275	454811	TEST_ORIENT	n/a	n/a	6	6	CROW	PEN	PEN	CROW	4	[0, 0, 0]	-999	PAL1	1	R1028M
770.772	4.0	455228	TEST_PROBE	n/a	wordpools/wordpool_EN.txt	6	6	CROW	PEN	PEN	CROW	4	[0, 0, 0]	-999	PAL1	1	R1028M
770.772	1.562	455228	REC_START	n/a	n/a	6	-999	n/a	PEN	n/a	n/a	4	[0, 0, 0]	-999	PAL1	1	R1028M
772.334	3.455	456009	REC_EVENT	1562.0	n/a	6	6	CROW	PEN	PEN	CROW	4	[0, 0, 0]	-999	PAL1	1	R1028M
775.789	4.211	457737	REC_END	n/a	n/a	6	-999	n/a	n/a	n/a	n/a	4	[0, 0, 0]	-999	PAL1	1	R1028M
780.0	10.442	459842	ENCODING_START	n/a	n/a	0	-999	n/a	n/a	n/a	n/a	5	[0, 0, 0]	-999	PAL1	1	R1028M
790.442	0.275	465062	STUDY_ORIENT	n/a	n/a	1	1	SUIT	SOUP	SOUP	SUIT	5	[0, 0, 0]	-999	PAL1	1	R1028M
791.409	4.0	465546	STUDY_PAIR	n/a	wordpools/wordpool_EN.txt	1	1	SUIT	SOUP	SOUP	SUIT	5	[0, 0, 0]	-999	PAL1	1	R1028M
796.443	0.275	468063	STUDY_ORIENT	n/a	n/a	2	6	WAND	ROSE	WAND	ROSE	5	[0, 0, 0]	-999	PAL1	1	R1028M
797.36	4.0	468521	STUDY_PAIR	n/a	wordpools/wordpool_EN.txt	2	6	WAND	ROSE	WAND	ROSE	5	[0, 0, 0]	-999	PAL1	1	R1028M
802.378	0.275	471030	STUDY_ORIENT	n/a	n/a	3	5	BARN	TOAST	TOAST	BARN	5	[0, 0, 0]	-999	PAL1	1	R1028M
803.278	4.0	471480	STUDY_PAIR	n/a	wordpools/wordpool_EN.txt	3	5	BARN	TOAST	TOAST	BARN	5	[0, 0, 0]	-999	PAL1	1	R1028M
808.296	0.275	473989	STUDY_ORIENT	n/a	n/a	4	2	BRUSH	PLANE	BRUSH	PLANE	5	[0, 0, 0]	-999	PAL1	1	R1028M
809.112	4.0	474396	STUDY_PAIR	n/a	wordpools/wordpool_EN.txt	4	2	BRUSH	PLANE	BRUSH	PLANE	5	[0, 0, 0]	-999	PAL1	1	R1028M
814.13	0.275	476905	STUDY_ORIENT	n/a	n/a	5	3	EAR	AXE	AXE	EAR	5	[0, 0, 0]	-999	PAL1	1	R1028M
814.98	4.0	477330	STUDY_PAIR	n/a	wordpools/wordpool_EN.txt	5	3	EAR	AXE	AXE	EAR	5	[0, 0, 0]	-999	PAL1	1	R1028M
819.998	0.275	479839	STUDY_ORIENT	n/a	n/a	6	4	SPEAR	MILK	MILK	SPEAR	5	[0, 0, 0]	-999	PAL1	1	R1028M
820.815	4.0	480247	STUDY_PAIR	n/a	wordpools/wordpool_EN.txt	6	4	SPEAR	MILK	MILK	SPEAR	5	[0, 0, 0]	-999	PAL1	1	R1028M
824.833	0.999	482256	START	n/a	n/a	-999	-999	n/a	n/a	n/a	n/a	5	[-999, -999, -999]	-999	PAL1	1	R1028M
825.832	0.017	482756	MATH_START	n/a	n/a	-999	-999	n/a	n/a	n/a	n/a	5	[0, 0, 0]	-999	PAL1	1	R1028M
825.849	4.118	482764	PROB	4095.0	n/a	-999	-999	n/a	n/a	n/a	n/a	5	[6, 3, 9]	18	PAL1	1	R1028M
829.967	3.799	484823	PROB	3768.0	n/a	-999	-999	n/a	n/a	n/a	n/a	5	[2, 3, 2]	7	PAL1	1	R1028M
833.766	5.186	486722	PROB	5162.0	n/a	-999	-999	n/a	n/a	n/a	n/a	5	[2, 9, 9]	20	PAL1	1	R1028M
838.952	3.716	489315	PROB	3687.0	n/a	-999	-999	n/a	n/a	n/a	n/a	5	[5, 4, 4]	13	PAL1	1	R1028M
842.668	3.684	491173	PROB	3684.0	n/a	-999	-999	n/a	n/a	n/a	n/a	5	[6, 2, 3]	11	PAL1	1	R1028M
846.352	0.018	493015	STOP	n/a	n/a	-999	-999	n/a	n/a	n/a	n/a	5	[-999, -999, -999]	-999	PAL1	1	R1028M
846.37	0.0	493024	MATH_END	n/a	n/a	-999	-999	n/a	n/a	n/a	n/a	5	[0, 0, 0]	-999	PAL1	1	R1028M
846.37	0.017	493024	TEST_START	n/a	n/a	-999	-999	n/a	n/a	n/a	n/a	5	[0, 0, 0]	-999	PAL1	1	R1028M
846.387	0.275	493032	TEST_ORIENT	n/a	n/a	1	1	SUIT	SOUP	SOUP	SUIT	5	[0, 0, 0]	-999	PAL1	1	R1028M
847.287	4.0	493482	TEST_PROBE	n/a	wordpools/wordpool_EN.txt	1	1	SUIT	SOUP	SOUP	SUIT	5	[0, 0, 0]	-999	PAL1	1	R1028M
847.287	1.083	493482	REC_START	n/a	n/a	1	-999	n/a	SOUP	n/a	n/a	5	[0, 0, 0]	-999	PAL1	1	R1028M
848.37	3.934	494023	REC_EVENT	1083.0	n/a	1	1	SUIT	SOUP	SOUP	SUIT	5	[0, 0, 0]	-999	PAL1	1	R1028M
852.304	0.017	495990	REC_END	n/a	n/a	1	-999	n/a	n/a	n/a	n/a	5	[0, 0, 0]	-999	PAL1	1	R1028M
852.321	0.275	495999	TEST_ORIENT	n/a	n/a	4	2	BRUSH	PLANE	BRUSH	PLANE	5	[0, 0, 0]	-999	PAL1	1	R1028M
853.305	4.0	496491	TEST_PROBE	n/a	wordpools/wordpool_EN.txt	4	2	BRUSH	PLANE	BRUSH	PLANE	5	[0, 0, 0]	-999	PAL1	1	R1028M
853.305	4.436	496491	REC_START	n/a	n/a	4	-999	n/a	PLANE	n/a	n/a	5	[0, 0, 0]	-999	PAL1	1	R1028M
857.741	0.581	498709	REC_EVENT	4436.0	n/a	4	2	BRUSH	PLANE	BRUSH	PLANE	5	[0, 0, 0]	-999	PAL1	1	R1028M
858.322	0.017	498999	REC_END	n/a	n/a	4	-999	n/a	n/a	n/a	n/a	5	[0, 0, 0]	-999	PAL1	1	R1028M
858.339	0.275	499007	TEST_ORIENT	n/a	n/a	5	3	EAR	AXE	AXE	EAR	5	[0, 0, 0]	-999	PAL1	1	R1028M
859.273	4.0	499474	TEST_PROBE	n/a	wordpools/wordpool_EN.txt	5	3	EAR	AXE	AXE	EAR	5	[0, 0, 0]	-999	PAL1	1	R1028M
859.273	0.991	499474	REC_START	n/a	n/a	5	-999	n/a	AXE	n/a	n/a	5	[0, 0, 0]	-999	PAL1	1	R1028M
860.264	4.034	499970	REC_EVENT	991.0	n/a	5	3	EAR	AXE	AXE	EAR	5	[0, 0, 0]	-999	PAL1	1	R1028M
864.298	0.009	501987	REC_END	n/a	n/a	5	-999	n/a	n/a	n/a	n/a	5	[0, 0, 0]	-999	PAL1	1	R1028M
864.307	0.275	501991	TEST_ORIENT	n/a	n/a	6	4	SPEAR	MILK	MILK	SPEAR	5	[0, 0, 0]	-999	PAL1	1	R1028M
865.19	4.0	502433	TEST_PROBE	n/a	wordpools/wordpool_EN.txt	6	4	SPEAR	MILK	MILK	SPEAR	5	[0, 0, 0]	-999	PAL1	1	R1028M
865.191	2.488	502433	REC_START	n/a	n/a	6	-999	n/a	MILK	n/a	n/a	5	[0, 0, 0]	-999	PAL1	1	R1028M
867.679	2.52	503677	REC_EVENT	2488.0	n/a	6	4	SPEAR	MILK	MILK	SPEAR	5	[0, 0, 0]	-999	PAL1	1	R1028M
870.199	0.009	504937	REC_END	n/a	n/a	6	-999	n/a	n/a	n/a	n/a	5	[0, 0, 0]	-999	PAL1	1	R1028M
870.208	0.275	504941	TEST_ORIENT	n/a	n/a	3	5	BARN	TOAST	TOAST	BARN	5	[0, 0, 0]	-999	PAL1	1	R1028M
871.158	4.0	505416	TEST_PROBE	n/a	wordpools/wordpool_EN.txt	3	5	BARN	TOAST	TOAST	BARN	5	[0, 0, 0]	-999	PAL1	1	R1028M
871.159	1.939	505417	REC_START	n/a	n/a	3	-999	n/a	TOAST	n/a	n/a	5	[0, 0, 0]	-999	PAL1	1	R1028M
873.098	3.069	506386	REC_EVENT	1939.0	n/a	3	5	BARN	TOAST	TOAST	BARN	5	[0, 0, 0]	-999	PAL1	1	R1028M
876.167	0.009	507921	REC_END	n/a	n/a	3	-999	n/a	n/a	n/a	n/a	5	[0, 0, 0]	-999	PAL1	1	R1028M
876.176	0.275	507925	TEST_ORIENT	n/a	n/a	2	6	WAND	ROSE	WAND	ROSE	5	[0, 0, 0]	-999	PAL1	1	R1028M
877.193	4.0	508434	TEST_PROBE	n/a	wordpools/wordpool_EN.txt	2	6	WAND	ROSE	WAND	ROSE	5	[0, 0, 0]	-999	PAL1	1	R1028M
877.193	1.05	508434	REC_START	n/a	n/a	2	-999	n/a	ROSE	n/a	n/a	5	[0, 0, 0]	-999	PAL1	1	R1028M
878.243	3.975	508958	REC_EVENT	1050.0	n/a	2	6	WAND	ROSE	WAND	ROSE	5	[0, 0, 0]	-999	PAL1	1	R1028M
882.218	1.894	510946	REC_END	n/a	n/a	2	-999	n/a	n/a	n/a	n/a	5	[0, 0, 0]	-999	PAL1	1	R1028M
884.112	10.45	511893	ENCODING_START	n/a	n/a	0	-999	n/a	n/a	n/a	n/a	6	[0, 0, 0]	-999	PAL1	1	R1028M
894.562	0.275	517117	STUDY_ORIENT	n/a	n/a	1	3	BAND	HOOF	BAND	HOOF	6	[0, 0, 0]	-999	PAL1	1	R1028M
895.463	4.0	517568	STUDY_PAIR	n/a	wordpools/wordpool_EN.txt	1	3	BAND	HOOF	BAND	HOOF	6	[0, 0, 0]	-999	PAL1	1	R1028M
900.481	0.275	520076	STUDY_ORIENT	n/a	n/a	2	2	JAIL	HOLE	JAIL	HOLE	6	[0, 0, 0]	-999	PAL1	1	R1028M
901.498	4.0	520585	STUDY_PAIR	n/a	wordpools/wordpool_EN.txt	2	2	JAIL	HOLE	JAIL	HOLE	6	[0, 0, 0]	-999	PAL1	1	R1028M
906.531	0.275	523101	STUDY_ORIENT	n/a	n/a	3	5	CUP	STAIR	CUP	STAIR	6	[0, 0, 0]	-999	PAL1	1	R1028M
907.432	4.0	523551	STUDY_PAIR	n/a	wordpools/wordpool_EN.txt	3	5	CUP	STAIR	CUP	STAIR	6	[0, 0, 0]	-999	PAL1	1	R1028M
912.45	0.275	526060	STUDY_ORIENT	n/a	n/a	4	4	HEN	STORM	HEN	STORM	6	[0, 0, 0]	-999	PAL1	1	R1028M
913.233	4.0	526452	STUDY_PAIR	n/a	wordpools/wordpool_EN.txt	4	4	HEN	STORM	HEN	STORM	6	[0, 0, 0]	-999	PAL1	1	R1028M
918.268	0.275	528969	STUDY_ORIENT	n/a	n/a	5	1	FOG	PIT	PIT	FOG	6	[0, 0, 0]	-999	PAL1	1	R1028M
919.151	4.0	529410	STUDY_PAIR	n/a	wordpools/wordpool_EN.txt	5	1	FOG	PIT	PIT	FOG	6	[0, 0, 0]	-999	PAL1	1	R1028M
924.169	0.275	531919	STUDY_ORIENT	n/a	n/a	6	6	GOLD	FENCE	FENCE	GOLD	6	[0, 0, 0]	-999	PAL1	1	R1028M
924.969	4.0	532319	STUDY_PAIR	n/a	wordpools/wordpool_EN.txt	6	6	GOLD	FENCE	FENCE	GOLD	6	[0, 0, 0]	-999	PAL1	1	R1028M
928.987	0.999	534328	START	n/a	n/a	-999	-999	n/a	n/a	n/a	n/a	6	[-999, -999, -999]	-999	PAL1	1	R1028M
929.986	0.017	534827	MATH_START	n/a	n/a	-999	-999	n/a	n/a	n/a	n/a	6	[0, 0, 0]	-999	PAL1	1	R1028M
930.003	5.985	534836	PROB	5957.0	n/a	-999	-999	n/a	n/a	n/a	n/a	6	[3, 4, 5]	12	PAL1	1	R1028M
935.988	3.666	537828	PROB	3635.0	n/a	-999	-999	n/a	n/a	n/a	n/a	6	[4, 1, 1]	6	PAL1	1	R1028M
939.654	7.586	539661	PROB	7562.0	n/a	-999	-999	n/a	n/a	n/a	n/a	6	[8, 3, 3]	14	PAL1	1	R1028M
947.24	4.168	543453	PROB	4168.0	n/a	-999	-999	n/a	n/a	n/a	n/a	6	[9, 2, 9]	20	PAL1	1	R1028M
951.408	0.016	545537	STOP	n/a	n/a	-999	-999	n/a	n/a	n/a	n/a	6	[-999, -999, -999]	-999	PAL1	1	R1028M
951.424	0.0	545545	MATH_END	n/a	n/a	-999	-999	n/a	n/a	n/a	n/a	6	[0, 0, 0]	-999	PAL1	1	R1028M
951.424	0.017	545545	TEST_START	n/a	n/a	-999	-999	n/a	n/a	n/a	n/a	6	[0, 0, 0]	-999	PAL1	1	R1028M
951.441	0.275	545554	TEST_ORIENT	n/a	n/a	5	1	FOG	PIT	PIT	FOG	6	[0, 0, 0]	-999	PAL1	1	R1028M
952.374	4.0	546020	TEST_PROBE	n/a	wordpools/wordpool_EN.txt	5	1	FOG	PIT	PIT	FOG	6	[0, 0, 0]	-999	PAL1	1	R1028M
952.375	1.186	546021	REC_START	n/a	n/a	5	-999	n/a	PIT	n/a	n/a	6	[0, 0, 0]	-999	PAL1	1	R1028M
953.561	3.822	546614	REC_EVENT	1186.0	n/a	5	1	FOG	PIT	PIT	FOG	6	[0, 0, 0]	-999	PAL1	1	R1028M
957.383	0.009	548524	REC_END	n/a	n/a	5	-999	n/a	n/a	n/a	n/a	6	[0, 0, 0]	-999	PAL1	1	R1028M
957.392	0.275	548529	TEST_ORIENT	n/a	n/a	2	2	JAIL	HOLE	JAIL	HOLE	6	[0, 0, 0]	-999	PAL1	1	R1028M
958.342	4.0	549004	TEST_PROBE	n/a	wordpools/wordpool_EN.txt	2	2	JAIL	HOLE	JAIL	HOLE	6	[0, 0, 0]	-999	PAL1	1	R1028M
958.343	1.361	549004	REC_START	n/a	n/a	2	-999	n/a	HOLE	n/a	n/a	6	[0, 0, 0]	-999	PAL1	1	R1028M
959.704	3.647	549685	REC_EVENT	1361.0	n/a	2	2	JAIL	HOLE	JAIL	HOLE	6	[0, 0, 0]	-999	PAL1	1	R1028M
963.351	0.009	551508	REC_END	n/a	n/a	2	-999	n/a	n/a	n/a	n/a	6	[0, 0, 0]	-999	PAL1	1	R1028M
963.36	0.275	551513	TEST_ORIENT	n/a	n/a	1	3	BAND	HOOF	BAND	HOOF	6	[0, 0, 0]	-999	PAL1	1	R1028M
964.327	0.0	551996	REC_START	n/a	n/a	1	-999	n/a	HOOF	n/a	n/a	6	[0, 0, 0]	-999	PAL1	1	R1028M
964.327	4.0	551996	TEST_PROBE	n/a	wordpools/wordpool_EN.txt	1	3	BAND	HOOF	BAND	HOOF	6	[0, 0, 0]	-999	PAL1	1	R1028M
966.271	3.073	552968	REC_EVENT	1944.0	n/a	1	3	BAND	HOOF	BAND	HOOF	6	[0, 0, 0]	-999	PAL1	1	R1028M
969.344	0.017	554504	REC_END	n/a	n/a	1	-999	n/a	n/a	n/a	n/a	6	[0, 0, 0]	-999	PAL1	1	R1028M
969.361	0.275	554513	TEST_ORIENT	n/a	n/a	4	4	HEN	STORM	HEN	STORM	6	[0, 0, 0]	-999	PAL1	1	R1028M
970.228	4.0	554946	TEST_PROBE	n/a	wordpools/wordpool_EN.txt	4	4	HEN	STORM	HEN	STORM	6	[0, 0, 0]	-999	PAL1	1	R1028M
970.228	1.46	554946	REC_START	n/a	n/a	4	-999	n/a	STORM	n/a	n/a	6	[0, 0, 0]	-999	PAL1	1	R1028M
971.688	3.557	555676	REC_EVENT	1460.0	n/a	4	4	HEN	STORM	HEN	STORM	6	[0, 0, 0]	-999	PAL1	1	R1028M
975.245	0.017	557455	REC_END	n/a	n/a	4	-999	n/a	n/a	n/a	n/a	6	[0, 0, 0]	-999	PAL1	1	R1028M
975.262	0.275	557463	TEST_ORIENT	n/a	n/a	3	5	CUP	STAIR	CUP	STAIR	6	[0, 0, 0]	-999	PAL1	1	R1028M
976.196	0.0	557930	REC_START	n/a	n/a	3	-999	n/a	STAIR	n/a	n/a	6	[0, 0, 0]	-999	PAL1	1	R1028M
976.196	4.0	557930	TEST_PROBE	n/a	wordpools/wordpool_EN.txt	3	5	CUP	STAIR	CUP	STAIR	6	[0, 0, 0]	-999	PAL1	1	R1028M
977.132	4.081	558398	REC_EVENT	936.0	n/a	3	5	CUP	STAIR	CUP	STAIR	6	[0, 0, 0]	-999	PAL1	1	R1028M
981.213	0.017	560438	REC_END	n/a	n/a	3	-999	n/a	n/a	n/a	n/a	6	[0, 0, 0]	-999	PAL1	1	R1028M
981.23	0.275	560447	TEST_ORIENT	n/a	n/a	6	6	GOLD	FENCE	FENCE	GOLD	6	[0, 0, 0]	-999	PAL1	1	R1028M
982.18	4.0	560922	TEST_PROBE	n/a	wordpools/wordpool_EN.txt	6	6	GOLD	FENCE	FENCE	GOLD	6	[0, 0, 0]	-999	PAL1	1	R1028M
982.181	1.169	560922	REC_START	n/a	n/a	6	-999	n/a	FENCE	n/a	n/a	6	[0, 0, 0]	-999	PAL1	1	R1028M
983.35	3.84	561507	REC_EVENT	1169.0	n/a	6	6	GOLD	FENCE	FENCE	GOLD	6	[0, 0, 0]	-999	PAL1	1	R1028M
987.19	2.018	563426	REC_END	n/a	n/a	6	-999	n/a	n/a	n/a	n/a	6	[0, 0, 0]	-999	PAL1	1	R1028M
989.208	10.441	564435	ENCODING_START	n/a	n/a	0	-999	n/a	n/a	n/a	n/a	7	[0, 0, 0]	-999	PAL1	1	R1028M
999.649	0.275	569655	STUDY_ORIENT	n/a	n/a	1	5	BOX	BANK	BOX	BANK	7	[0, 0, 0]	-999	PAL1	1	R1028M
1000.517	4.0	570089	STUDY_PAIR	n/a	wordpools/wordpool_EN.txt	1	5	BOX	BANK	BOX	BANK	7	[0, 0, 0]	-999	PAL1	1	R1028M
1005.534	0.275	572598	STUDY_ORIENT	n/a	n/a	2	4	STORE	CAR	STORE	CAR	7	[0, 0, 0]	-999	PAL1	1	R1028M
1006.352	4.0	573006	STUDY_PAIR	n/a	wordpools/wordpool_EN.txt	2	4	STORE	CAR	STORE	CAR	7	[0, 0, 0]	-999	PAL1	1	R1028M
1011.386	0.275	575523	STUDY_ORIENT	n/a	n/a	3	3	ROPE	LAMP	LAMP	ROPE	7	[0, 0, 0]	-999	PAL1	1	R1028M
1012.203	4.0	575932	STUDY_PAIR	n/a	wordpools/wordpool_EN.txt	3	3	ROPE	LAMP	LAMP	ROPE	7	[0, 0, 0]	-999	PAL1	1	R1028M
1017.237	0.275	578448	STUDY_ORIENT	n/a	n/a	4	6	MAZE	WHEEL	MAZE	WHEEL	7	[0, 0, 0]	-999	PAL1	1	R1028M
1018.154	4.0	578907	STUDY_PAIR	n/a	wordpools/wordpool_EN.txt	4	6	MAZE	WHEEL	MAZE	WHEEL	7	[0, 0, 0]	-999	PAL1	1	R1028M
1023.172	0.275	581416	STUDY_ORIENT	n/a	n/a	5	1	BALL	CORN	CORN	BALL	7	[0, 0, 0]	-999	PAL1	1	R1028M
1023.972	4.0	581816	STUDY_PAIR	n/a	wordpools/wordpool_EN.txt	5	1	BALL	CORN	CORN	BALL	7	[0, 0, 0]	-999	PAL1	1	R1028M
1029.006	0.275	584332	STUDY_ORIENT	n/a	n/a	6	2	NOSE	HEART	NOSE	HEART	7	[0, 0, 0]	-999	PAL1	1	R1028M
1029.79	4.0	584724	STUDY_PAIR	n/a	wordpools/wordpool_EN.txt	6	2	NOSE	HEART	NOSE	HEART	7	[0, 0, 0]	-999	PAL1	1	R1028M
1033.808	0.999	586733	START	n/a	n/a	-999	-999	n/a	n/a	n/a	n/a	7	[-999, -999, -999]	-999	PAL1	1	R1028M
1034.807	0.017	587233	MATH_START	n/a	n/a	-999	-999	n/a	n/a	n/a	n/a	7	[0, 0, 0]	-999	PAL1	1	R1028M
1034.824	3.051	587241	PROB	3024.0	n/a	-999	-999	n/a	n/a	n/a	n/a	7	[1, 9, 1]	11	PAL1	1	R1028M
1037.875	3.517	588766	PROB	3485.0	n/a	-999	-999	n/a	n/a	n/a	n/a	7	[4, 4, 1]	9	PAL1	1	R1028M
1041.392	3.851	590525	PROB	3824.0	n/a	-999	-999	n/a	n/a	n/a	n/a	7	[3, 1, 2]	6	PAL1	1	R1028M
1045.243	5.151	592450	PROB	5117.0	n/a	-999	-999	n/a	n/a	n/a	n/a	7	[6, 8, 1]	15	PAL1	1	R1028M
1050.394	5.229	595025	PROB	5229.0	n/a	-999	-999	n/a	n/a	n/a	n/a	7	[5, 9, 7]	21	PAL1	1	R1028M
1055.623	0.004	597639	STOP	n/a	n/a	-999	-999	n/a	n/a	n/a	n/a	7	[-999, -999, -999]	-999	PAL1	1	R1028M
1055.627	0.0	597641	MATH_END	n/a	n/a	-999	-999	n/a	n/a	n/a	n/a	7	[0, 0, 0]	-999	PAL1	1	R1028M
1055.627	0.017	597641	TEST_START	n/a	n/a	-999	-999	n/a	n/a	n/a	n/a	7	[0, 0, 0]	-999	PAL1	1	R1028M
1055.644	0.275	597650	TEST_ORIENT	n/a	n/a	5	1	BALL	CORN	CORN	BALL	7	[0, 0, 0]	-999	PAL1	1	R1028M
1056.577	4.0	598116	TEST_PROBE	n/a	wordpools/wordpool_EN.txt	5	1	BALL	CORN	CORN	BALL	7	[0, 0, 0]	-999	PAL1	1	R1028M
1056.578	1.402	598117	REC_START	n/a	n/a	5	-999	n/a	CORN	n/a	n/a	7	[0, 0, 0]	-999	PAL1	1	R1028M
1057.98	3.606	598818	REC_EVENT	1402.0	n/a	5	1	BALL	CORN	CORN	BALL	7	[0, 0, 0]	-999	PAL1	1	R1028M
1061.586	0.009	600621	REC_END	n/a	n/a	5	-999	n/a	n/a	n/a	n/a	7	[0, 0, 0]	-999	PAL1	1	R1028M
1061.595	0.275	600625	TEST_ORIENT	n/a	n/a	6	2	NOSE	HEART	NOSE	HEART	7	[0, 0, 0]	-999	PAL1	1	R1028M
1062.48	4.0	601068	TEST_PROBE	n/a	wordpools/wordpool_EN.txt	6	2	NOSE	HEART	NOSE	HEART	7	[0, 0, 0]	-999	PAL1	1	R1028M
1062.48	1.163	601068	REC_START	n/a	n/a	6	-999	n/a	HEART	n/a	n/a	7	[0, 0, 0]	-999	PAL1	1	R1028M
1063.643	3.862	601649	REC_EVENT	1163.0	n/a	6	2	NOSE	HEART	NOSE	HEART	7	[0, 0, 0]	-999	PAL1	1	R1028M
1067.505	0.009	603580	REC_END	n/a	n/a	6	-999	n/a	n/a	n/a	n/a	7	[0, 0, 0]	-999	PAL1	1	R1028M
1067.514	0.275	603584	TEST_ORIENT	n/a	n/a	3	3	ROPE	LAMP	LAMP	ROPE	7	[0, 0, 0]	-999	PAL1	1	R1028M
1068.547	4.0	604101	TEST_PROBE	n/a	wordpools/wordpool_EN.txt	3	3	ROPE	LAMP	LAMP	ROPE	7	[0, 0, 0]	-999	PAL1	1	R1028M
1068.547	2.183	604101	REC_START	n/a	n/a	3	-999	n/a	LAMP	n/a	n/a	7	[0, 0, 0]	-999	PAL1	1	R1028M
1070.73	2.834	605192	REC_EVENT	2183.0	n/a	3	3	ROPE	LAMP	LAMP	ROPE	7	[0, 0, 0]	-999	PAL1	1	R1028M
1073.564	0.017	606609	REC_END	n/a	n/a	3	-999	n/a	n/a	n/a	n/a	7	[0, 0, 0]	-999	PAL1	1	R1028M
1073.581	0.275	606618	TEST_ORIENT	n/a	n/a	2	4	STORE	CAR	STORE	CAR	7	[0, 0, 0]	-999	PAL1	1	R1028M
1074.548	4.0	607101	TEST_PROBE	n/a	wordpools/wordpool_EN.txt	2	4	STORE	CAR	STORE	CAR	7	[0, 0, 0]	-999	PAL1	1	R1028M
1074.548	1.226	607101	REC_START	n/a	n/a	2	-999	n/a	CAR	n/a	n/a	7	[0, 0, 0]	-999	PAL1	1	R1028M
1075.774	3.799	607714	REC_EVENT	1226.0	n/a	2	4	STORE	CAR	STORE	CAR	7	[0, 0, 0]	-999	PAL1	1	R1028M
1079.573	0.009	609613	REC_END	n/a	n/a	2	-999	n/a	n/a	n/a	n/a	7	[0, 0, 0]	-999	PAL1	1	R1028M
1079.582	0.275	609618	TEST_ORIENT	n/a	n/a	1	5	BOX	BANK	BOX	BANK	7	[0, 0, 0]	-999	PAL1	1	R1028M
1080.433	4.0	610043	TEST_PROBE	n/a	wordpools/wordpool_EN.txt	1	5	BOX	BANK	BOX	BANK	7	[0, 0, 0]	-999	PAL1	1	R1028M
1080.434	1.472	610044	REC_START	n/a	n/a	1	-999	n/a	BANK	n/a	n/a	7	[0, 0, 0]	-999	PAL1	1	R1028M
1081.906	3.536	610780	REC_EVENT	1472.0	n/a	1	5	BOX	BANK	BOX	BANK	7	[0, 0, 0]	-999	PAL1	1	R1028M
1085.442	0.009	612547	REC_END	n/a	n/a	1	-999	n/a	n/a	n/a	n/a	7	[0, 0, 0]	-999	PAL1	1	R1028M
1085.451	0.275	612552	TEST_ORIENT	n/a	n/a	4	6	MAZE	WHEEL	MAZE	WHEEL	7	[0, 0, 0]	-999	PAL1	1	R1028M
1086.268	4.0	612960	TEST_PROBE	n/a	wordpools/wordpool_EN.txt	4	6	MAZE	WHEEL	MAZE	WHEEL	7	[0, 0, 0]	-999	PAL1	1	R1028M
1086.268	1.621	612960	REC_START	n/a	n/a	4	-999	n/a	WHEEL	n/a	n/a	7	[0, 0, 0]	-999	PAL1	1	R1028M
1087.889	3.396	613771	REC_EVENT	1621.0	n/a	4	6	MAZE	WHEEL	MAZE	WHEEL	7	[0, 0, 0]	-999	PAL1	1	R1028M
1091.285	7.723	615469	REC_END	n/a	n/a	4	-999	n/a	n/a	n/a	n/a	7	[0, 0, 0]	-999	PAL1	1	R1028M
1099.008	10.448	619330	ENCODING_START	n/a	n/a	0	-999	n/a	n/a	n/a	n/a	8	[0, 0, 0]	-999	PAL1	1	R1028M
1109.456	0.275	624553	STUDY_ORIENT	n/a	n/a	1	1	SHRIMP	FRUIT	SHRIMP	FRUIT	8	[0, 0, 0]	-999	PAL1	1	R1028M
1110.289	4.0	624970	STUDY_PAIR	n/a	wordpools/wordpool_EN.txt	1	1	SHRIMP	FRUIT	SHRIMP	FRUIT	8	[0, 0, 0]	-999	PAL1	1	R1028M
1115.307	0.275	627478	STUDY_ORIENT	n/a	n/a	2	6	SNOW	STICK	STICK	SNOW	8	[0, 0, 0]	-999	PAL1	1	R1028M
1116.223	4.0	627936	STUDY_PAIR	n/a	wordpools/wordpool_EN.txt	2	6	SNOW	STICK	STICK	SNOW	8	[0, 0, 0]	-999	PAL1	1	R1028M
1121.241	0.275	630445	STUDY_ORIENT	n/a	n/a	3	5	SLUSH	LEAF	SLUSH	LEAF	8	[0, 0, 0]	-999	PAL1	1	R1028M
1122.042	4.0	630846	STUDY_PAIR	n/a	wordpools/wordpool_EN.txt	3	5	SLUSH	LEAF	SLUSH	LEAF	8	[0, 0, 0]	-999	PAL1	1	R1028M
1127.076	0.275	633362	STUDY_ORIENT	n/a	n/a	4	2	ICE	SPOON	SPOON	ICE	8	[0, 0, 0]	-999	PAL1	1	R1028M
1127.926	4.0	633787	STUDY_PAIR	n/a	wordpools/wordpool_EN.txt	4	2	ICE	SPOON	SPOON	ICE	8	[0, 0, 0]	-999	PAL1	1	R1028M
1132.96	0.275	636304	STUDY_ORIENT	n/a	n/a	5	3	BRANCH	WORLD	WORLD	BRANCH	8	[0, 0, 0]	-999	PAL1	1	R1028M
1133.827	4.0	636737	STUDY_PAIR	n/a	wordpools/wordpool_EN.txt	5	3	BRANCH	WORLD	WORLD	BRANCH	8	[0, 0, 0]	-999	PAL1	1	R1028M
1138.845	0.275	639246	STUDY_ORIENT	n/a	n/a	6	4	MOON	SEAT	MOON	SEAT	8	[0, 0, 0]	-999	PAL1	1	R1028M
1139.862	4.0	639755	STUDY_PAIR	n/a	wordpools/wordpool_EN.txt	6	4	MOON	SEAT	MOON	SEAT	8	[0, 0, 0]	-999	PAL1	1	R1028M
1143.88	0.999	641763	START	n/a	n/a	-999	-999	n/a	n/a	n/a	n/a	8	[-999, -999, -999]	-999	PAL1	1	R1028M
1144.879	0.017	642263	MATH_START	n/a	n/a	-999	-999	n/a	n/a	n/a	n/a	8	[0, 0, 0]	-999	PAL1	1	R1028M
1144.896	8.302	642271	PROB	8280.0	n/a	-999	-999	n/a	n/a	n/a	n/a	8	[6, 2, 8]	19	PAL1	1	R1028M
1153.198	7.301	646422	PROB	7282.0	n/a	-999	-999	n/a	n/a	n/a	n/a	8	[9, 5, 6]	20	PAL1	1	R1028M
1160.499	4.845	650072	PROB	4845.0	n/a	-999	-999	n/a	n/a	n/a	n/a	8	[2, 5, 8]	15	PAL1	1	R1028M
1165.344	0.006	652494	STOP	n/a	n/a	-999	-999	n/a	n/a	n/a	n/a	8	[-999, -999, -999]	-999	PAL1	1	R1028M
1165.35	0.0	652497	MATH_END	n/a	n/a	-999	-999	n/a	n/a	n/a	n/a	8	[0, 0, 0]	-999	PAL1	1	R1028M
1165.35	0.017	652497	TEST_START	n/a	n/a	-999	-999	n/a	n/a	n/a	n/a	8	[0, 0, 0]	-999	PAL1	1	R1028M
1165.367	0.275	652506	TEST_ORIENT	n/a	n/a	1	1	SHRIMP	FRUIT	SHRIMP	FRUIT	8	[0, 0, 0]	-999	PAL1	1	R1028M
1166.334	4.0	652989	TEST_PROBE	n/a	wordpools/wordpool_EN.txt	1	1	SHRIMP	FRUIT	SHRIMP	FRUIT	8	[0, 0, 0]	-999	PAL1	1	R1028M
1166.334	1.109	652989	REC_START	n/a	n/a	1	-999	n/a	FRUIT	n/a	n/a	8	[0, 0, 0]	-999	PAL1	1	R1028M
1167.443	3.908	653544	REC_EVENT	1109.0	n/a	1	1	SHRIMP	FRUIT	SHRIMP	FRUIT	8	[0, 0, 0]	-999	PAL1	1	R1028M
1171.351	0.017	655498	REC_END	n/a	n/a	1	-999	n/a	n/a	n/a	n/a	8	[0, 0, 0]	-999	PAL1	1	R1028M
1171.368	0.275	655506	TEST_ORIENT	n/a	n/a	4	2	ICE	SPOON	SPOON	ICE	8	[0, 0, 0]	-999	PAL1	1	R1028M
1172.235	4.0	655940	TEST_PROBE	n/a	wordpools/wordpool_EN.txt	4	2	ICE	SPOON	SPOON	ICE	8	[0, 0, 0]	-999	PAL1	1	R1028M
1172.235	1.237	655940	REC_START	n/a	n/a	4	-999	n/a	SPOON	n/a	n/a	8	[0, 0, 0]	-999	PAL1	1	R1028M
1173.472	3.78	656558	REC_EVENT	1237.0	n/a	4	2	ICE	SPOON	SPOON	ICE	8	[0, 0, 0]	-999	PAL1	1	R1028M
1177.252	0.017	658448	REC_END	n/a	n/a	4	-999	n/a	n/a	n/a	n/a	8	[0, 0, 0]	-999	PAL1	1	R1028M
1177.269	0.275	658456	TEST_ORIENT	n/a	n/a	5	3	BRANCH	WORLD	WORLD	BRANCH	8	[0, 0, 0]	-999	PAL1	1	R1028M
1178.119	4.0	658881	TEST_PROBE	n/a	wordpools/wordpool_EN.txt	5	3	BRANCH	WORLD	WORLD	BRANCH	8	[0, 0, 0]	-999	PAL1	1	R1028M
1178.12	1.205	658882	REC_START	n/a	n/a	5	-999	n/a	WORLD	n/a	n/a	8	[0, 0, 0]	-999	PAL1	1	R1028M
1179.325	3.795	659484	REC_EVENT	1205.0	n/a	5	3	BRANCH	WORLD	WORLD	BRANCH	8	[0, 0, 0]	-999	PAL1	1	R1028M
1183.12	0.017	661381	REC_END	n/a	n/a	5	-999	n/a	n/a	n/a	n/a	8	[0, 0, 0]	-999	PAL1	1	R1028M
1183.137	0.275	661390	TEST_ORIENT	n/a	n/a	6	4	MOON	SEAT	MOON	SEAT	8	[0, 0, 0]	-999	PAL1	1	R1028M
1183.987	4.0	661815	TEST_PROBE	n/a	wordpools/wordpool_EN.txt	6	4	MOON	SEAT	MOON	SEAT	8	[0, 0, 0]	-999	PAL1	1	R1028M
1183.988	1.053	661815	REC_START	n/a	n/a	6	-999	n/a	SEAT	n/a	n/a	8	[0, 0, 0]	-999	PAL1	1	R1028M
1185.041	3.955	662342	REC_EVENT	1053.0	n/a	6	4	MOON	SEAT	MOON	SEAT	8	[0, 0, 0]	-999	PAL1	1	R1028M
1188.996	0.009	664319	REC_END	n/a	n/a	6	-999	n/a	n/a	n/a	n/a	8	[0, 0, 0]	-999	PAL1	1	R1028M
1189.005	0.275	664324	TEST_ORIENT	n/a	n/a	3	5	SLUSH	LEAF	SLUSH	LEAF	8	[0, 0, 0]	-999	PAL1	1	R1028M
1189.922	4.0	664782	TEST_PROBE	n/a	wordpools/wordpool_EN.txt	3	5	SLUSH	LEAF	SLUSH	LEAF	8	[0, 0, 0]	-999	PAL1	1	R1028M
1189.922	4.154	664782	REC_START	n/a	n/a	3	-999	n/a	LEAF	n/a	n/a	8	[0, 0, 0]	-999	PAL1	1	R1028M
1194.076	0.863	666859	REC_EVENT	4154.0	n/a	3	5	SLUSH	LEAF	SLUSH	LEAF	8	[0, 0, 0]	-999	PAL1	1	R1028M
1194.939	0.017	667290	REC_END	n/a	n/a	3	-999	n/a	n/a	n/a	n/a	8	[0, 0, 0]	-999	PAL1	1	R1028M
1194.956	0.275	667299	TEST_ORIENT	n/a	n/a	2	6	SNOW	STICK	STICK	SNOW	8	[0, 0, 0]	-999	PAL1	1	R1028M
1195.823	0.0	667732	REC_START	n/a	n/a	2	-999	n/a	STICK	n/a	n/a	8	[0, 0, 0]	-999	PAL1	1	R1028M
1195.823	4.0	667732	TEST_PROBE	n/a	wordpools/wordpool_EN.txt	2	6	SNOW	STICK	STICK	SNOW	8	[0, 0, 0]	-999	PAL1	1	R1028M
1196.99	3.85	668316	REC_EVENT	1167.0	n/a	2	6	SNOW	STICK	STICK	SNOW	8	[0, 0, 0]	-999	PAL1	1	R1028M
1200.84	48.088	670241	REC_END	n/a	n/a	2	-999	n/a	n/a	n/a	n/a	8	[0, 0, 0]	-999	PAL1	1	R1028M
1248.928	10.441	694282	ENCODING_START	n/a	n/a	0	-999	n/a	n/a	n/a	n/a	9	[0, 0, 0]	-999	PAL1	1	R1028M
1259.369	0.275	699502	STUDY_ORIENT	n/a	n/a	1	1	TREE	n/a	MAT	TREE	9	[0, 0, 0]	-999	PAL1	1	R1028M
1260.252	4.0	699944	STUDY_PAIR	n/a	wordpools/wordpool_EN.txt	1	1	TREE	n/a	MAT	TREE	9	[0, 0, 0]	-999	PAL1	1	R1028M
1265.27	0.275	702452	STUDY_ORIENT	n/a	n/a	2	6	VAN	PIN	PIN	VAN	9	[0, 0, 0]	-999	PAL1	1	R1028M
1266.054	4.0	702844	STUDY_PAIR	n/a	wordpools/wordpool_EN.txt	2	6	VAN	PIN	PIN	VAN	9	[0, 0, 0]	-999	PAL1	1	R1028M
1271.088	0.275	705361	STUDY_ORIENT	n/a	n/a	3	3	SPARK	LAND	SPARK	LAND	9	[0, 0, 0]	-999	PAL1	1	R1028M
1272.055	4.0	705844	STUDY_PAIR	n/a	wordpools/wordpool_EN.txt	3	3	SPARK	LAND	SPARK	LAND	9	[0, 0, 0]	-999	PAL1	1	R1028M
1277.089	0.275	708361	STUDY_ORIENT	n/a	n/a	4	2	ROOM	LOCK	ROOM	LOCK	9	[0, 0, 0]	-999	PAL1	1	R1028M
1277.923	4.0	708778	STUDY_PAIR	n/a	wordpools/wordpool_EN.txt	4	2	ROOM	LOCK	ROOM	LOCK	9	[0, 0, 0]	-999	PAL1	1	R1028M
1282.957	0.275	711295	STUDY_ORIENT	n/a	n/a	5	5	STOVE	SAIL	STOVE	SAIL	9	[0, 0, 0]	-999	PAL1	1	R1028M
1283.807	4.0	711720	STUDY_PAIR	n/a	wordpools/wordpool_EN.txt	5	5	STOVE	SAIL	STOVE	SAIL	9	[0, 0, 0]	-999	PAL1	1	R1028M
1288.841	0.275	714237	STUDY_ORIENT	n/a	n/a	6	4	ZOO	PHONE	ZOO	PHONE	9	[0, 0, 0]	-999	PAL1	1	R1028M
1289.657	4.0	714645	STUDY_PAIR	n/a	wordpools/wordpool_EN.txt	6	4	ZOO	PHONE	ZOO	PHONE	9	[0, 0, 0]	-999	PAL1	1	R1028M
1293.658	1.0	716645	START	n/a	n/a	-999	-999	n/a	n/a	n/a	n/a	9	[-999, -999, -999]	-999	PAL1	1	R1028M
1294.658	0.017	717145	MATH_START	n/a	n/a	-999	-999	n/a	n/a	n/a	n/a	9	[0, 0, 0]	-999	PAL1	1	R1028M
1294.675	6.752	717153	PROB	6733.0	n/a	-999	-999	n/a	n/a	n/a	n/a	9	[3, 8, 3]	14	PAL1	1	R1028M
1301.427	5.085	720529	PROB	5061.0	n/a	-999	-999	n/a	n/a	n/a	n/a	9	[2, 5, 2]	9	PAL1	1	R1028M
1306.512	6.801	723071	PROB	6768.0	n/a	-999	-999	n/a	n/a	n/a	n/a	9	[3, 6, 9]	18	PAL1	1	R1028M
1313.313	3.215	726471	PROB	3215.0	n/a	-999	-999	n/a	n/a	n/a	n/a	9	[3, 3, 7]	13	PAL1	1	R1028M
1316.528	0.018	728079	STOP	n/a	n/a	-999	-999	n/a	n/a	n/a	n/a	9	[-999, -999, -999]	-999	PAL1	1	R1028M
1316.546	0.0	728088	TEST_START	n/a	n/a	-999	-999	n/a	n/a	n/a	n/a	9	[0, 0, 0]	-999	PAL1	1	R1028M
1316.546	0.017	728088	MATH_END	n/a	n/a	-999	-999	n/a	n/a	n/a	n/a	9	[0, 0, 0]	-999	PAL1	1	R1028M
1316.563	0.275	728096	TEST_ORIENT	n/a	n/a	1	1	TREE	n/a	MAT	TREE	9	[0, 0, 0]	-999	PAL1	1	R1028M
1317.596	4.0	728613	TEST_PROBE	n/a	wordpools/wordpool_EN.txt	1	1	TREE	n/a	MAT	TREE	9	[0, 0, 0]	-999	PAL1	1	R1028M
1317.596	4.865	728613	REC_START	n/a	n/a	1	-999	n/a	n/a	n/a	n/a	9	[0, 0, 0]	-999	PAL1	1	R1028M
1322.461	0.153	731045	REC_EVENT	4865.0	n/a	1	1	TREE	<>	MAT	TREE	9	[0, 0, 0]	-999	PAL1	1	R1028M
1322.614	0.016	731121	REC_END	n/a	n/a	1	-999	n/a	n/a	n/a	n/a	9	[0, 0, 0]	-999	PAL1	1	R1028M
1322.63	0.275	731129	TEST_ORIENT	n/a	n/a	4	2	ROOM	LOCK	ROOM	LOCK	9	[0, 0, 0]	-999	PAL1	1	R1028M
1323.448	4.0	731538	TEST_PROBE	n/a	wordpools/wordpool_EN.txt	4	2	ROOM	LOCK	ROOM	LOCK	9	[0, 0, 0]	-999	PAL1	1	R1028M
1323.449	0.998	731539	REC_START	n/a	n/a	4	-999	n/a	LOCK	n/a	n/a	9	[0, 0, 0]	-999	PAL1	1	R1028M
1324.447	4.01	732038	REC_EVENT	998.0	n/a	4	2	ROOM	LOCK	ROOM	LOCK	9	[0, 0, 0]	-999	PAL1	1	R1028M
1328.457	0.009	734043	REC_END	n/a	n/a	4	-999	n/a	n/a	n/a	n/a	9	[0, 0, 0]	-999	PAL1	1	R1028M
1328.466	0.275	734047	TEST_ORIENT	n/a	n/a	3	3	SPARK	LAND	SPARK	LAND	9	[0, 0, 0]	-999	PAL1	1	R1028M
1329.299	4.0	734464	TEST_PROBE	n/a	wordpools/wordpool_EN.txt	3	3	SPARK	LAND	SPARK	LAND	9	[0, 0, 0]	-999	PAL1	1	R1028M
1329.3	1.839	734464	REC_START	n/a	n/a	3	-999	n/a	LAND	n/a	n/a	9	[0, 0, 0]	-999	PAL1	1	R1028M
1331.139	3.169	735383	REC_EVENT	1839.0	n/a	3	3	SPARK	LAND	SPARK	LAND	9	[0, 0, 0]	-999	PAL1	1	R1028M
1334.308	0.009	736968	REC_END	n/a	n/a	3	-999	n/a	n/a	n/a	n/a	9	[0, 0, 0]	-999	PAL1	1	R1028M
1334.317	0.275	736972	TEST_ORIENT	n/a	n/a	6	4	ZOO	PHONE	ZOO	PHONE	9	[0, 0, 0]	-999	PAL1	1	R1028M
1335.134	4.0	737381	TEST_PROBE	n/a	wordpools/wordpool_EN.txt	6	4	ZOO	PHONE	ZOO	PHONE	9	[0, 0, 0]	-999	PAL1	1	R1028M
1335.135	1.14	737381	REC_START	n/a	n/a	6	-999	n/a	PHONE	n/a	n/a	9	[0, 0, 0]	-999	PAL1	1	R1028M
1336.275	3.884	737951	REC_EVENT	1140.0	n/a	6	4	ZOO	PHONE	ZOO	PHONE	9	[0, 0, 0]	-999	PAL1	1	R1028M
1340.159	0.009	739893	REC_END	n/a	n/a	6	-999	n/a	n/a	n/a	n/a	9	[0, 0, 0]	-999	PAL1	1	R1028M
1340.168	0.275	739897	TEST_ORIENT	n/a	n/a	5	5	STOVE	SAIL	STOVE	SAIL	9	[0, 0, 0]	-999	PAL1	1	R1028M
1341.035	4.0	740331	TEST_PROBE	n/a	wordpools/wordpool_EN.txt	5	5	STOVE	SAIL	STOVE	SAIL	9	[0, 0, 0]	-999	PAL1	1	R1028M
1341.036	1.682	740331	REC_START	n/a	n/a	5	-999	n/a	SAIL	n/a	n/a	9	[0, 0, 0]	-999	PAL1	1	R1028M
1342.718	3.326	741172	REC_EVENT	1682.0	n/a	5	5	STOVE	SAIL	STOVE	SAIL	9	[0, 0, 0]	-999	PAL1	1	R1028M
1346.044	0.009	742835	REC_END	n/a	n/a	5	-999	n/a	n/a	n/a	n/a	9	[0, 0, 0]	-999	PAL1	1	R1028M
1346.053	0.275	742840	TEST_ORIENT	n/a	n/a	2	6	VAN	PIN	PIN	VAN	9	[0, 0, 0]	-999	PAL1	1	R1028M
1347.053	4.0	743340	TEST_PROBE	n/a	wordpools/wordpool_EN.txt	2	6	VAN	PIN	PIN	VAN	9	[0, 0, 0]	-999	PAL1	1	R1028M
1347.054	1.228	743340	REC_START	n/a	n/a	2	-999	n/a	PIN	n/a	n/a	9	[0, 0, 0]	-999	PAL1	1	R1028M
1348.282	3.788	743954	REC_EVENT	1228.0	n/a	2	6	VAN	PIN	PIN	VAN	9	[0, 0, 0]	-999	PAL1	1	R1028M
1352.07	8.026	745848	REC_END	n/a	n/a	2	-999	n/a	n/a	n/a	n/a	9	[0, 0, 0]	-999	PAL1	1	R1028M
1360.096	10.444	749860	ENCODING_START	n/a	n/a	0	-999	n/a	n/a	n/a	n/a	10	[0, 0, 0]	-999	PAL1	1	R1028M
1370.54	0.275	755082	STUDY_ORIENT	n/a	n/a	1	1	TAIL	BAG	BAG	TAIL	10	[0, 0, 0]	-999	PAL1	1	R1028M
1371.424	4.0	755524	STUDY_PAIR	n/a	wordpools/wordpool_EN.txt	1	1	TAIL	BAG	BAG	TAIL	10	[0, 0, 0]	-999	PAL1	1	R1028M
1376.442	0.275	758033	STUDY_ORIENT	n/a	n/a	2	2	BRIDGE	TANK	BRIDGE	TANK	10	[0, 0, 0]	-999	PAL1	1	R1028M
1377.276	4.0	758450	STUDY_PAIR	n/a	wordpools/wordpool_EN.txt	2	2	BRIDGE	TANK	BRIDGE	TANK	10	[0, 0, 0]	-999	PAL1	1	R1028M
1382.31	0.275	760966	STUDY_ORIENT	n/a	n/a	3	5	MAP	FORK	MAP	FORK	10	[0, 0, 0]	-999	PAL1	1	R1028M
1383.177	4.0	761400	STUDY_PAIR	n/a	wordpools/wordpool_EN.txt	3	5	MAP	FORK	MAP	FORK	10	[0, 0, 0]	-999	PAL1	1	R1028M
1388.211	0.275	763917	STUDY_ORIENT	n/a	n/a	4	4	MULE	CLOTH	CLOTH	MULE	10	[0, 0, 0]	-999	PAL1	1	R1028M
1389.128	4.0	764375	STUDY_PAIR	n/a	wordpools/wordpool_EN.txt	4	4	MULE	CLOTH	CLOTH	MULE	10	[0, 0, 0]	-999	PAL1	1	R1028M
1394.162	0.275	766892	STUDY_ORIENT	n/a	n/a	5	3	BEACH	DOLL	BEACH	DOLL	10	[0, 0, 0]	-999	PAL1	1	R1028M
1394.946	4.0	767284	STUDY_PAIR	n/a	wordpools/wordpool_EN.txt	5	3	BEACH	DOLL	BEACH	DOLL	10	[0, 0, 0]	-999	PAL1	1	R1028M
1399.98	0.275	769800	STUDY_ORIENT	n/a	n/a	6	6	BEAN	PANTS	BEAN	PANTS	10	[0, 0, 0]	-999	PAL1	1	R1028M
1400.964	4.0	770292	STUDY_PAIR	n/a	wordpools/wordpool_EN.txt	6	6	BEAN	PANTS	BEAN	PANTS	10	[0, 0, 0]	-999	PAL1	1	R1028M
1404.982	0.999	772301	START	n/a	n/a	-999	-999	n/a	n/a	n/a	n/a	10	[-999, -999, -999]	-999	PAL1	1	R1028M
1405.981	0.017	772801	MATH_START	n/a	n/a	-999	-999	n/a	n/a	n/a	n/a	10	[0, 0, 0]	-999	PAL1	1	R1028M
1405.998	4.301	772809	PROB	4274.0	n/a	-999	-999	n/a	n/a	n/a	n/a	10	[6, 1, 8]	15	PAL1	1	R1028M
1410.299	5.233	774959	PROB	5205.0	n/a	-999	-999	n/a	n/a	n/a	n/a	10	[8, 7, 6]	21	PAL1	1	R1028M
1415.532	5.702	777576	PROB	5676.0	n/a	-999	-999	n/a	n/a	n/a	n/a	10	[8, 8, 4]	20	PAL1	1	R1028M
1421.234	12.301	780426	PROB	12301.0	n/a	-999	-999	n/a	n/a	n/a	n/a	10	[7, 9, 8]	24	PAL1	1	R1028M
1433.535	0.018	786576	STOP	n/a	n/a	-999	-999	n/a	n/a	n/a	n/a	10	[-999, -999, -999]	-999	PAL1	1	R1028M
1433.553	0.0	786585	TEST_START	n/a	n/a	-999	-999	n/a	n/a	n/a	n/a	10	[0, 0, 0]	-999	PAL1	1	R1028M
1433.553	0.016	786585	MATH_END	n/a	n/a	-999	-999	n/a	n/a	n/a	n/a	10	[0, 0, 0]	-999	PAL1	1	R1028M
1433.569	0.275	786593	TEST_ORIENT	n/a	n/a	1	1	TAIL	BAG	BAG	TAIL	10	[0, 0, 0]	-999	PAL1	1	R1028M
1434.52	4.0	787069	TEST_PROBE	n/a	wordpools/wordpool_EN.txt	1	1	TAIL	BAG	BAG	TAIL	10	[0, 0, 0]	-999	PAL1	1	R1028M
1434.521	2.446	787069	REC_START	n/a	n/a	1	-999	n/a	BAG	n/a	n/a	10	[0, 0, 0]	-999	PAL1	1	R1028M
1436.967	2.562	788292	REC_EVENT	2446.0	n/a	1	1	TAIL	BAG	BAG	TAIL	10	[0, 0, 0]	-999	PAL1	1	R1028M
1439.529	0.008	789573	REC_END	n/a	n/a	1	-999	n/a	n/a	n/a	n/a	10	[0, 0, 0]	-999	PAL1	1	R1028M
1439.537	0.275	789577	TEST_ORIENT	n/a	n/a	2	2	BRIDGE	TANK	BRIDGE	TANK	10	[0, 0, 0]	-999	PAL1	1	R1028M
1440.322	0.0	789969	REC_START	n/a	n/a	2	-999	n/a	TANK	n/a	n/a	10	[0, 0, 0]	-999	PAL1	1	R1028M
1440.322	4.0	789969	TEST_PROBE	n/a	wordpools/wordpool_EN.txt	2	2	BRIDGE	TANK	BRIDGE	TANK	10	[0, 0, 0]	-999	PAL1	1	R1028M
1442.097	3.242	790857	REC_EVENT	1775.0	n/a	2	2	BRIDGE	TANK	BRIDGE	TANK	10	[0, 0, 0]	-999	PAL1	1	R1028M
1445.339	0.017	792478	REC_END	n/a	n/a	2	-999	n/a	n/a	n/a	n/a	10	[0, 0, 0]	-999	PAL1	1	R1028M
1445.356	0.275	792486	TEST_ORIENT	n/a	n/a	5	3	BEACH	DOLL	BEACH	DOLL	10	[0, 0, 0]	-999	PAL1	1	R1028M
1446.223	4.0	792920	TEST_PROBE	n/a	wordpools/wordpool_EN.txt	5	3	BEACH	DOLL	BEACH	DOLL	10	[0, 0, 0]	-999	PAL1	1	R1028M
1446.223	1.208	792920	REC_START	n/a	n/a	5	-999	n/a	DOLL	n/a	n/a	10	[0, 0, 0]	-999	PAL1	1	R1028M
1447.431	3.809	793524	REC_EVENT	1208.0	n/a	5	3	BEACH	DOLL	BEACH	DOLL	10	[0, 0, 0]	-999	PAL1	1	R1028M
1451.24	0.017	795428	REC_END	n/a	n/a	5	-999	n/a	n/a	n/a	n/a	10	[0, 0, 0]	-999	PAL1	1	R1028M
1451.257	0.275	795436	TEST_ORIENT	n/a	n/a	4	4	MULE	CLOTH	CLOTH	MULE	10	[0, 0, 0]	-999	PAL1	1	R1028M
1452.141	0.0	795878	REC_START	n/a	n/a	4	-999	n/a	CLOTH	n/a	n/a	10	[0, 0, 0]	-999	PAL1	1	R1028M
1452.141	4.0	795878	TEST_PROBE	n/a	wordpools/wordpool_EN.txt	4	4	MULE	CLOTH	CLOTH	MULE	10	[0, 0, 0]	-999	PAL1	1	R1028M
1453.272	3.886	796444	REC_EVENT	1131.0	n/a	4	4	MULE	CLOTH	CLOTH	MULE	10	[0, 0, 0]	-999	PAL1	1	R1028M
1457.158	0.017	798387	REC_END	n/a	n/a	4	-999	n/a	n/a	n/a	n/a	10	[0, 0, 0]	-999	PAL1	1	R1028M
1457.175	0.275	798395	TEST_ORIENT	n/a	n/a	3	5	MAP	FORK	MAP	FORK	10	[0, 0, 0]	-999	PAL1	1	R1028M
1458.208	4.0	798911	TEST_PROBE	n/a	wordpools/wordpool_EN.txt	3	5	MAP	FORK	MAP	FORK	10	[0, 0, 0]	-999	PAL1	1	R1028M
1458.209	1.123	798912	REC_START	n/a	n/a	3	-999	n/a	FORK	n/a	n/a	10	[0, 0, 0]	-999	PAL1	1	R1028M
1459.332	3.877	799473	REC_EVENT	1123.0	n/a	3	5	MAP	FORK	MAP	FORK	10	[0, 0, 0]	-999	PAL1	1	R1028M
1463.209	0.017	801412	REC_END	n/a	n/a	3	-999	n/a	n/a	n/a	n/a	10	[0, 0, 0]	-999	PAL1	1	R1028M
1463.226	0.275	801420	TEST_ORIENT	n/a	n/a	6	6	BEAN	PANTS	BEAN	PANTS	10	[0, 0, 0]	-999	PAL1	1	R1028M
1464.176	4.0	801895	TEST_PROBE	n/a	wordpools/wordpool_EN.txt	6	6	BEAN	PANTS	BEAN	PANTS	10	[0, 0, 0]	-999	PAL1	1	R1028M
1464.177	1.01	801896	REC_START	n/a	n/a	6	-999	n/a	PANTS	n/a	n/a	10	[0, 0, 0]	-999	PAL1	1	R1028M
1465.187	3.998	802401	REC_EVENT	1010.0	n/a	6	6	BEAN	PANTS	BEAN	PANTS	10	[0, 0, 0]	-999	PAL1	1	R1028M
1469.185	5.231	804399	REC_END	n/a	n/a	6	-999	n/a	n/a	n/a	n/a	10	[0, 0, 0]	-999	PAL1	1	R1028M
1474.416	10.448	807015	ENCODING_START	n/a	n/a	0	-999	n/a	n/a	n/a	n/a	11	[0, 0, 0]	-999	PAL1	1	R1028M
1484.864	0.275	812238	STUDY_ORIENT	n/a	n/a	1	1	BREAD	EGG	EGG	BREAD	11	[0, 0, 0]	-999	PAL1	1	R1028M
1485.763	4.0	812688	STUDY_PAIR	n/a	wordpools/wordpool_EN.txt	1	1	BREAD	EGG	EGG	BREAD	11	[0, 0, 0]	-999	PAL1	1	R1028M
1490.798	0.275	815205	STUDY_ORIENT	n/a	n/a	2	4	HORN	PEARL	HORN	PEARL	11	[0, 0, 0]	-999	PAL1	1	R1028M
1491.614	4.0	815613	STUDY_PAIR	n/a	wordpools/wordpool_EN.txt	2	4	HORN	PEARL	HORN	PEARL	11	[0, 0, 0]	-999	PAL1	1	R1028M
1496.632	0.275	818122	STUDY_ORIENT	n/a	n/a	3	5	SQUARE	PANTS	SQUARE	POOL	11	[0, 0, 0]	-999	PAL1	1	R1028M
1497.532	4.0	818571	STUDY_PAIR	n/a	wordpools/wordpool_EN.txt	3	5	SQUARE	PANTS	SQUARE	POOL	11	[0, 0, 0]	-999	PAL1	1	R1028M
1502.566	0.275	821088	STUDY_ORIENT	n/a	n/a	4	6	CHIN	TRAIN	CHIN	TRAIN	11	[0, 0, 0]	-999	PAL1	1	R1028M
1503.55	4.0	821580	STUDY_PAIR	n/a	wordpools/wordpool_EN.txt	4	6	CHIN	TRAIN	CHIN	TRAIN	11	[0, 0, 0]	-999	PAL1	1	R1028M
1508.584	0.275	824097	STUDY_ORIENT	n/a	n/a	5	3	STRAW	BOY	BOY	STRAW	11	[0, 0, 0]	-999	PAL1	1	R1028M
1509.369	4.0	824489	STUDY_PAIR	n/a	wordpools/wordpool_EN.txt	5	3	STRAW	BOY	BOY	STRAW	11	[0, 0, 0]	-999	PAL1	1	R1028M
1514.403	0.275	827006	STUDY_ORIENT	n/a	n/a	6	2	POLE	STONE	STONE	POLE	11	[0, 0, 0]	-999	PAL1	1	R1028M
1515.27	4.0	827440	STUDY_PAIR	n/a	wordpools/wordpool_EN.txt	6	2	POLE	STONE	STONE	POLE	11	[0, 0, 0]	-999	PAL1	1	R1028M
1519.288	0.999	829448	START	n/a	n/a	-999	-999	n/a	n/a	n/a	n/a	11	[-999, -999, -999]	-999	PAL1	1	R1028M
1520.287	0.017	829948	MATH_START	n/a	n/a	-999	-999	n/a	n/a	n/a	n/a	11	[0, 0, 0]	-999	PAL1	1	R1028M
1520.304	5.551	829956	PROB	5528.0	n/a	-999	-999	n/a	n/a	n/a	n/a	11	[9, 8, 9]	26	PAL1	1	R1028M
1525.855	8.801	832732	PROB	8768.0	n/a	-999	-999	n/a	n/a	n/a	n/a	11	[9, 5, 8]	22	PAL1	1	R1028M
1534.656	3.618	837132	PROB	3592.0	n/a	-999	-999	n/a	n/a	n/a	n/a	11	[2, 6, 3]	11	PAL1	1	R1028M
1538.274	3.206	838940	PROB	3206.0	n/a	-999	-999	n/a	n/a	n/a	n/a	11	[4, 5, 2]	11	PAL1	1	R1028M
1541.48	0.012	840543	STOP	n/a	n/a	-999	-999	n/a	n/a	n/a	n/a	11	[-999, -999, -999]	-999	PAL1	1	R1028M
1541.492	0.0	840549	MATH_END	n/a	n/a	-999	-999	n/a	n/a	n/a	n/a	11	[0, 0, 0]	-999	PAL1	1	R1028M
1541.492	0.016	840549	TEST_START	n/a	n/a	-999	-999	n/a	n/a	n/a	n/a	11	[0, 0, 0]	-999	PAL1	1	R1028M
1541.508	0.275	840557	TEST_ORIENT	n/a	n/a	1	1	BREAD	EGG	EGG	BREAD	11	[0, 0, 0]	-999	PAL1	1	R1028M
1542.541	4.0	841074	TEST_PROBE	n/a	wordpools/wordpool_EN.txt	1	1	BREAD	EGG	EGG	BREAD	11	[0, 0, 0]	-999	PAL1	1	R1028M
1542.542	1.257	841074	REC_START	n/a	n/a	1	-999	n/a	EGG	n/a	n/a	11	[0, 0, 0]	-999	PAL1	1	R1028M
1543.799	3.759	841703	REC_EVENT	1257.0	n/a	1	1	BREAD	EGG	EGG	BREAD	11	[0, 0, 0]	-999	PAL1	1	R1028M
1547.558	0.017	843582	REC_END	n/a	n/a	1	-999	n/a	n/a	n/a	n/a	11	[0, 0, 0]	-999	PAL1	1	R1028M
1547.575	0.275	843590	TEST_ORIENT	n/a	n/a	6	2	POLE	STONE	STONE	POLE	11	[0, 0, 0]	-999	PAL1	1	R1028M
1548.476	4.0	844041	TEST_PROBE	n/a	wordpools/wordpool_EN.txt	6	2	POLE	STONE	STONE	POLE	11	[0, 0, 0]	-999	PAL1	1	R1028M
1548.477	1.153	844041	REC_START	n/a	n/a	6	-999	n/a	STONE	n/a	n/a	11	[0, 0, 0]	-999	PAL1	1	R1028M
1549.63	3.855	844618	REC_EVENT	1153.0	n/a	6	2	POLE	STONE	STONE	POLE	11	[0, 0, 0]	-999	PAL1	1	R1028M
1553.485	0.009	846545	REC_END	n/a	n/a	6	-999	n/a	n/a	n/a	n/a	11	[0, 0, 0]	-999	PAL1	1	R1028M
1553.494	0.275	846550	TEST_ORIENT	n/a	n/a	5	3	STRAW	BOY	BOY	STRAW	11	[0, 0, 0]	-999	PAL1	1	R1028M
1554.444	4.0	847025	TEST_PROBE	n/a	wordpools/wordpool_EN.txt	5	3	STRAW	BOY	BOY	STRAW	11	[0, 0, 0]	-999	PAL1	1	R1028M
1554.445	1.05	847025	REC_START	n/a	n/a	5	-999	n/a	BOY	n/a	n/a	11	[0, 0, 0]	-999	PAL1	1	R1028M
1555.495	3.958	847550	REC_EVENT	1050.0	n/a	5	3	STRAW	BOY	BOY	STRAW	11	[0, 0, 0]	-999	PAL1	1	R1028M
1559.453	0.009	849529	REC_END	n/a	n/a	5	-999	n/a	n/a	n/a	n/a	11	[0, 0, 0]	-999	PAL1	1	R1028M
1559.462	0.275	849533	TEST_ORIENT	n/a	n/a	2	4	HORN	PEARL	HORN	PEARL	11	[0, 0, 0]	-999	PAL1	1	R1028M
1560.279	4.0	849942	TEST_PROBE	n/a	wordpools/wordpool_EN.txt	2	4	HORN	PEARL	HORN	PEARL	11	[0, 0, 0]	-999	PAL1	1	R1028M
1560.279	1.168	849942	REC_START	n/a	n/a	2	-999	n/a	PEARL	n/a	n/a	11	[0, 0, 0]	-999	PAL1	1	R1028M
1561.447	3.849	850526	REC_EVENT	1168.0	n/a	2	4	HORN	PEARL	HORN	PEARL	11	[0, 0, 0]	-999	PAL1	1	R1028M
1565.296	0.017	852450	REC_END	n/a	n/a	2	-999	n/a	n/a	n/a	n/a	11	[0, 0, 0]	-999	PAL1	1	R1028M
1565.313	0.275	852459	TEST_ORIENT	n/a	n/a	3	5	SQUARE	PANTS	SQUARE	POOL	11	[0, 0, 0]	-999	PAL1	1	R1028M
1566.28	4.0	852942	TEST_PROBE	n/a	wordpools/wordpool_EN.txt	3	5	SQUARE	PANTS	SQUARE	POOL	11	[0, 0, 0]	-999	PAL1	1	R1028M
1566.28	2.605	852942	REC_START	n/a	n/a	3	-999	n/a	PANTS	n/a	n/a	11	[0, 0, 0]	-999	PAL1	1	R1028M
1568.885	2.412	854244	REC_EVENT	2605.0	n/a	3	5	SQUARE	PANTS	SQUARE	POOL	11	[0, 0, 0]	-999	PAL1	1	R1028M
1571.297	0.017	855450	REC_END	n/a	n/a	3	-999	n/a	n/a	n/a	n/a	11	[0, 0, 0]	-999	PAL1	1	R1028M
1571.314	0.275	855459	TEST_ORIENT	n/a	n/a	4	6	CHIN	TRAIN	CHIN	TRAIN	11	[0, 0, 0]	-999	PAL1	1	R1028M
1572.198	4.0	855901	TEST_PROBE	n/a	wordpools/wordpool_EN.txt	4	6	CHIN	TRAIN	CHIN	TRAIN	11	[0, 0, 0]	-999	PAL1	1	R1028M
1572.198	1.219	855901	REC_START	n/a	n/a	4	-999	n/a	TRAIN	n/a	n/a	11	[0, 0, 0]	-999	PAL1	1	R1028M
1573.417	3.798	856510	REC_EVENT	1219.0	n/a	4	6	CHIN	TRAIN	CHIN	TRAIN	11	[0, 0, 0]	-999	PAL1	1	R1028M
1577.215	5.193	858409	REC_END	n/a	n/a	4	-999	n/a	n/a	n/a	n/a	11	[0, 0, 0]	-999	PAL1	1	R1028M
1582.408	10.444	861005	ENCODING_START	n/a	n/a	0	-999	n/a	n/a	n/a	n/a	12	[0, 0, 0]	-999	PAL1	1	R1028M
1592.852	0.275	866227	STUDY_ORIENT	n/a	n/a	1	1	CORD	WOOD	CORD	WOOD	12	[0, 0, 0]	-999	PAL1	1	R1028M
1593.852	4.0	866727	STUDY_PAIR	n/a	wordpools/wordpool_EN.txt	1	1	CORD	WOOD	CORD	WOOD	12	[0, 0, 0]	-999	PAL1	1	R1028M
1598.87	0.275	869235	STUDY_ORIENT	n/a	n/a	2	6	BOARD	LAMB	LAMB	BOARD	12	[0, 0, 0]	-999	PAL1	1	R1028M
1599.735	4.0	869668	STUDY_PAIR	n/a	wordpools/wordpool_EN.txt	2	6	BOARD	LAMB	LAMB	BOARD	12	[0, 0, 0]	-999	PAL1	1	R1028M
1604.753	0.275	872177	STUDY_ORIENT	n/a	n/a	3	5	KITE	SOAP	KITE	SOAP	12	[0, 0, 0]	-999	PAL1	1	R1028M
1605.62	4.0	872610	STUDY_PAIR	n/a	wordpools/wordpool_EN.txt	3	5	KITE	SOAP	KITE	SOAP	12	[0, 0, 0]	-999	PAL1	1	R1028M
1610.638	0.275	875119	STUDY_ORIENT	n/a	n/a	4	2	BLOOM	RAT	RAT	BLOOM	12	[0, 0, 0]	-999	PAL1	1	R1028M
1611.655	4.0	875627	STUDY_PAIR	n/a	wordpools/wordpool_EN.txt	4	2	BLOOM	RAT	RAT	BLOOM	12	[0, 0, 0]	-999	PAL1	1	R1028M
1616.689	0.275	878144	STUDY_ORIENT	n/a	n/a	5	3	FLOOR	HOUSE	FLOOR	HOUSE	12	[0, 0, 0]	-999	PAL1	1	R1028M
1617.457	4.0	878528	STUDY_PAIR	n/a	wordpools/wordpool_EN.txt	5	3	FLOOR	HOUSE	FLOOR	HOUSE	12	[0, 0, 0]	-999	PAL1	1	R1028M
1622.491	0.275	881045	STUDY_ORIENT	n/a	n/a	6	4	LIP	FOAM	FOAM	LIP	12	[0, 0, 0]	-999	PAL1	1	R1028M
1623.458	4.0	881528	STUDY_PAIR	n/a	wordpools/wordpool_EN.txt	6	4	LIP	FOAM	FOAM	LIP	12	[0, 0, 0]	-999	PAL1	1	R1028M
1627.476	0.999	883537	START	n/a	n/a	-999	-999	n/a	n/a	n/a	n/a	12	[-999, -999, -999]	-999	PAL1	1	R1028M
1628.475	0.017	884036	MATH_START	n/a	n/a	-999	-999	n/a	n/a	n/a	n/a	12	[0, 0, 0]	-999	PAL1	1	R1028M
1628.492	5.1	884045	PROB	5075.0	n/a	-999	-999	n/a	n/a	n/a	n/a	12	[9, 8, 7]	24	PAL1	1	R1028M
1633.592	5.968	886595	PROB	5943.0	n/a	-999	-999	n/a	n/a	n/a	n/a	12	[6, 9, 3]	18	PAL1	1	R1028M
1639.56	9.047	889578	PROB	9047.0	n/a	-999	-999	n/a	n/a	n/a	n/a	12	[7, 6, 2]	15	PAL1	1	R1028M
1648.607	0.005	894101	STOP	n/a	n/a	-999	-999	n/a	n/a	n/a	n/a	12	[-999, -999, -999]	-999	PAL1	1	R1028M
1648.612	0.0	894104	MATH_END	n/a	n/a	-999	-999	n/a	n/a	n/a	n/a	12	[0, 0, 0]	-999	PAL1	1	R1028M
1648.612	0.017	894104	TEST_START	n/a	n/a	-999	-999	n/a	n/a	n/a	n/a	12	[0, 0, 0]	-999	PAL1	1	R1028M
1648.629	0.275	894112	TEST_ORIENT	n/a	n/a	1	1	CORD	WOOD	CORD	WOOD	12	[0, 0, 0]	-999	PAL1	1	R1028M
1649.497	4.0	894546	TEST_PROBE	n/a	wordpools/wordpool_EN.txt	1	1	CORD	WOOD	CORD	WOOD	12	[0, 0, 0]	-999	PAL1	1	R1028M
1649.497	1.733	894546	REC_START	n/a	n/a	1	-999	n/a	WOOD	n/a	n/a	12	[0, 0, 0]	-999	PAL1	1	R1028M
1651.23	3.284	895413	REC_EVENT	1733.0	n/a	1	1	CORD	WOOD	CORD	WOOD	12	[0, 0, 0]	-999	PAL1	1	R1028M
1654.514	0.016	897054	REC_END	n/a	n/a	1	-999	n/a	n/a	n/a	n/a	12	[0, 0, 0]	-999	PAL1	1	R1028M
1654.53	0.275	897062	TEST_ORIENT	n/a	n/a	4	2	BLOOM	RAT	RAT	BLOOM	12	[0, 0, 0]	-999	PAL1	1	R1028M
1655.348	4.0	897471	TEST_PROBE	n/a	wordpools/wordpool_EN.txt	4	2	BLOOM	RAT	RAT	BLOOM	12	[0, 0, 0]	-999	PAL1	1	R1028M
1655.348	1.673	897471	REC_START	n/a	n/a	4	-999	n/a	RAT	n/a	n/a	12	[0, 0, 0]	-999	PAL1	1	R1028M
1657.021	3.344	898308	REC_EVENT	1673.0	n/a	4	2	BLOOM	RAT	RAT	BLOOM	12	[0, 0, 0]	-999	PAL1	1	R1028M
1660.365	0.017	899980	REC_END	n/a	n/a	4	-999	n/a	n/a	n/a	n/a	12	[0, 0, 0]	-999	PAL1	1	R1028M
1660.382	0.275	899988	TEST_ORIENT	n/a	n/a	5	3	FLOOR	HOUSE	FLOOR	HOUSE	12	[0, 0, 0]	-999	PAL1	1	R1028M
1661.382	4.0	900488	TEST_PROBE	n/a	wordpools/wordpool_EN.txt	5	3	FLOOR	HOUSE	FLOOR	HOUSE	12	[0, 0, 0]	-999	PAL1	1	R1028M
1661.383	1.4	900489	REC_START	n/a	n/a	5	-999	n/a	HOUSE	n/a	n/a	12	[0, 0, 0]	-999	PAL1	1	R1028M
1662.783	3.608	901189	REC_EVENT	1400.0	n/a	5	3	FLOOR	HOUSE	FLOOR	HOUSE	12	[0, 0, 0]	-999	PAL1	1	R1028M
1666.391	0.009	902992	REC_END	n/a	n/a	5	-999	n/a	n/a	n/a	n/a	12	[0, 0, 0]	-999	PAL1	1	R1028M
1666.4	0.275	902997	TEST_ORIENT	n/a	n/a	6	4	LIP	FOAM	FOAM	LIP	12	[0, 0, 0]	-999	PAL1	1	R1028M
1667.4	4.0	903497	TEST_PROBE	n/a	wordpools/wordpool_EN.txt	6	4	LIP	FOAM	FOAM	LIP	12	[0, 0, 0]	-999	PAL1	1	R1028M
1667.401	1.205	903497	REC_START	n/a	n/a	6	-999	n/a	FOAM	n/a	n/a	12	[0, 0, 0]	-999	PAL1	1	R1028M
1668.606	3.795	904100	REC_EVENT	1205.0	n/a	6	4	LIP	FOAM	FOAM	LIP	12	[0, 0, 0]	-999	PAL1	1	R1028M
1672.401	0.017	905997	REC_END	n/a	n/a	6	-999	n/a	n/a	n/a	n/a	12	[0, 0, 0]	-999	PAL1	1	R1028M
1672.418	0.275	906006	TEST_ORIENT	n/a	n/a	3	5	KITE	SOAP	KITE	SOAP	12	[0, 0, 0]	-999	PAL1	1	R1028M
1673.385	0.0	906489	REC_START	n/a	n/a	3	-999	n/a	SOAP	n/a	n/a	12	[0, 0, 0]	-999	PAL1	1	R1028M
1673.385	4.0	906489	TEST_PROBE	n/a	wordpools/wordpool_EN.txt	3	5	KITE	SOAP	KITE	SOAP	12	[0, 0, 0]	-999	PAL1	1	R1028M
1674.483	3.919	907038	REC_EVENT	1098.0	n/a	3	5	KITE	SOAP	KITE	SOAP	12	[0, 0, 0]	-999	PAL1	1	R1028M
1678.402	0.017	908997	REC_END	n/a	n/a	3	-999	n/a	n/a	n/a	n/a	12	[0, 0, 0]	-999	PAL1	1	R1028M
1678.419	0.275	909006	TEST_ORIENT	n/a	n/a	2	6	BOARD	LAMB	LAMB	BOARD	12	[0, 0, 0]	-999	PAL1	1	R1028M
1679.286	4.0	909439	TEST_PROBE	n/a	wordpools/wordpool_EN.txt	2	6	BOARD	LAMB	LAMB	BOARD	12	[0, 0, 0]	-999	PAL1	1	R1028M
1679.287	1.204	909440	REC_START	n/a	n/a	2	-999	n/a	LAMB	n/a	n/a	12	[0, 0, 0]	-999	PAL1	1	R1028M
1680.491	3.812	910042	REC_EVENT	1204.0	n/a	2	6	BOARD	LAMB	LAMB	BOARD	12	[0, 0, 0]	-999	PAL1	1	R1028M
1684.303	1.977	911947	REC_END	n/a	n/a	2	-999	n/a	n/a	n/a	n/a	12	[0, 0, 0]	-999	PAL1	1	R1028M
1686.28	10.442	912936	ENCODING_START	n/a	n/a	0	-999	n/a	n/a	n/a	n/a	13	[0, 0, 0]	-999	PAL1	1	R1028M
1696.722	0.275	918156	STUDY_ORIENT	n/a	n/a	1	3	ELF	SMILE	ELF	SMILE	13	[0, 0, 0]	-999	PAL1	1	R1028M
1697.655	4.0	918623	STUDY_PAIR	n/a	wordpools/wordpool_EN.txt	1	3	ELF	SMILE	ELF	SMILE	13	[0, 0, 0]	-999	PAL1	1	R1028M
1702.673	0.275	921132	STUDY_ORIENT	n/a	n/a	2	6	YARD	MOUSE	YARD	MOUSE	13	[0, 0, 0]	-999	PAL1	1	R1028M
1703.59	4.0	921590	STUDY_PAIR	n/a	wordpools/wordpool_EN.txt	2	6	YARD	MOUSE	YARD	MOUSE	13	[0, 0, 0]	-999	PAL1	1	R1028M
1708.624	0.275	924107	STUDY_ORIENT	n/a	n/a	3	5	PLANT	FLAG	FLAG	PLANT	13	[0, 0, 0]	-999	PAL1	1	R1028M
1709.541	4.0	924565	STUDY_PAIR	n/a	wordpools/wordpool_EN.txt	3	5	PLANT	FLAG	FLAG	PLANT	13	[0, 0, 0]	-999	PAL1	1	R1028M
1714.575	0.275	927082	STUDY_ORIENT	n/a	n/a	4	2	CHIEF	COUCH	CHIEF	COUCH	13	[0, 0, 0]	-999	PAL1	1	R1028M
1715.542	4.0	927565	STUDY_PAIR	n/a	wordpools/wordpool_EN.txt	4	2	CHIEF	COUCH	CHIEF	COUCH	13	[0, 0, 0]	-999	PAL1	1	R1028M
1720.576	0.275	930082	STUDY_ORIENT	n/a	n/a	5	1	PRINCE	PURSE	PURSE	PRINCE	13	[0, 0, 0]	-999	PAL1	1	R1028M
1721.494	4.0	930541	STUDY_PAIR	n/a	wordpools/wordpool_EN.txt	5	1	PRINCE	PURSE	PURSE	PRINCE	13	[0, 0, 0]	-999	PAL1	1	R1028M
1726.512	0.275	933050	STUDY_ORIENT	n/a	n/a	6	4	DESK	BAT	DESK	BAT	13	[0, 0, 0]	-999	PAL1	1	R1028M
1727.445	4.0	933516	STUDY_PAIR	n/a	wordpools/wordpool_EN.txt	6	4	DESK	BAT	DESK	BAT	13	[0, 0, 0]	-999	PAL1	1	R1028M
1731.446	1.0	935517	START	n/a	n/a	-999	-999	n/a	n/a	n/a	n/a	13	[-999, -999, -999]	-999	PAL1	1	R1028M
1732.446	0.017	936017	MATH_START	n/a	n/a	-999	-999	n/a	n/a	n/a	n/a	13	[0, 0, 0]	-999	PAL1	1	R1028M
1732.463	4.217	936025	PROB	4192.0	n/a	-999	-999	n/a	n/a	n/a	n/a	13	[5, 3, 3]	11	PAL1	1	R1028M
1736.68	5.602	938133	PROB	5568.0	n/a	-999	-999	n/a	n/a	n/a	n/a	13	[9, 4, 4]	17	PAL1	1	R1028M
1742.282	3.316	940934	PROB	3293.0	n/a	-999	-999	n/a	n/a	n/a	n/a	13	[8, 5, 2]	15	PAL1	1	R1028M
1745.598	3.218	942592	PROB	3194.0	n/a	-999	-999	n/a	n/a	n/a	n/a	13	[2, 2, 2]	6	PAL1	1	R1028M
1748.816	5.096	944201	PROB	5096.0	n/a	-999	-999	n/a	n/a	n/a	n/a	13	[3, 6, 7]	16	PAL1	1	R1028M
1753.912	0.005	946748	STOP	n/a	n/a	-999	-999	n/a	n/a	n/a	n/a	13	[-999, -999, -999]	-999	PAL1	1	R1028M
1753.917	0.0	946751	MATH_END	n/a	n/a	-999	-999	n/a	n/a	n/a	n/a	13	[0, 0, 0]	-999	PAL1	1	R1028M
1753.917	0.017	946751	TEST_START	n/a	n/a	-999	-999	n/a	n/a	n/a	n/a	13	[0, 0, 0]	-999	PAL1	1	R1028M
1753.934	0.275	946759	TEST_ORIENT	n/a	n/a	5	1	PRINCE	PURSE	PURSE	PRINCE	13	[0, 0, 0]	-999	PAL1	1	R1028M
1754.801	4.0	947193	TEST_PROBE	n/a	wordpools/wordpool_EN.txt	5	1	PRINCE	PURSE	PURSE	PRINCE	13	[0, 0, 0]	-999	PAL1	1	R1028M
1754.801	1.176	947193	REC_START	n/a	n/a	5	-999	n/a	PURSE	n/a	n/a	13	[0, 0, 0]	-999	PAL1	1	R1028M
1755.977	3.841	947781	REC_EVENT	1176.0	n/a	5	1	PRINCE	PURSE	PURSE	PRINCE	13	[0, 0, 0]	-999	PAL1	1	R1028M
1759.818	0.017	949701	REC_END	n/a	n/a	5	-999	n/a	n/a	n/a	n/a	13	[0, 0, 0]	-999	PAL1	1	R1028M
1759.835	0.275	949710	TEST_ORIENT	n/a	n/a	4	2	CHIEF	COUCH	CHIEF	COUCH	13	[0, 0, 0]	-999	PAL1	1	R1028M
1760.634	4.0	950109	TEST_PROBE	n/a	wordpools/wordpool_EN.txt	4	2	CHIEF	COUCH	CHIEF	COUCH	13	[0, 0, 0]	-999	PAL1	1	R1028M
1760.635	1.052	950110	REC_START	n/a	n/a	4	-999	n/a	COUCH	n/a	n/a	13	[0, 0, 0]	-999	PAL1	1	R1028M
1761.687	3.956	950636	REC_EVENT	1052.0	n/a	4	2	CHIEF	COUCH	CHIEF	COUCH	13	[0, 0, 0]	-999	PAL1	1	R1028M
1765.643	0.009	952613	REC_END	n/a	n/a	4	-999	n/a	n/a	n/a	n/a	13	[0, 0, 0]	-999	PAL1	1	R1028M
1765.652	0.275	952618	TEST_ORIENT	n/a	n/a	1	3	ELF	SMILE	ELF	SMILE	13	[0, 0, 0]	-999	PAL1	1	R1028M
1766.652	4.0	953118	TEST_PROBE	n/a	wordpools/wordpool_EN.txt	1	3	ELF	SMILE	ELF	SMILE	13	[0, 0, 0]	-999	PAL1	1	R1028M
1766.653	0.902	953118	REC_START	n/a	n/a	1	-999	n/a	SMILE	n/a	n/a	13	[0, 0, 0]	-999	PAL1	1	R1028M
1767.555	4.106	953569	REC_EVENT	902.0	n/a	1	3	ELF	SMILE	ELF	SMILE	13	[0, 0, 0]	-999	PAL1	1	R1028M
1771.661	0.009	955622	REC_END	n/a	n/a	1	-999	n/a	n/a	n/a	n/a	13	[0, 0, 0]	-999	PAL1	1	R1028M
1771.67	0.275	955627	TEST_ORIENT	n/a	n/a	6	4	DESK	BAT	DESK	BAT	13	[0, 0, 0]	-999	PAL1	1	R1028M
1772.454	4.0	956018	TEST_PROBE	n/a	wordpools/wordpool_EN.txt	6	4	DESK	BAT	DESK	BAT	13	[0, 0, 0]	-999	PAL1	1	R1028M
1772.455	1.229	956019	REC_START	n/a	n/a	6	-999	n/a	BAT	n/a	n/a	13	[0, 0, 0]	-999	PAL1	1	R1028M
1773.684	3.779	956633	REC_EVENT	1229.0	n/a	6	4	DESK	BAT	DESK	BAT	13	[0, 0, 0]	-999	PAL1	1	R1028M
1777.463	0.009	958523	REC_END	n/a	n/a	6	-999	n/a	n/a	n/a	n/a	13	[0, 0, 0]	-999	PAL1	1	R1028M
1777.472	0.275	958527	TEST_ORIENT	n/a	n/a	3	5	PLANT	FLAG	FLAG	PLANT	13	[0, 0, 0]	-999	PAL1	1	R1028M
1778.506	0.0	959044	REC_START	n/a	n/a	3	-999	n/a	FLAG	n/a	n/a	13	[0, 0, 0]	-999	PAL1	1	R1028M
1778.506	4.0	959044	TEST_PROBE	n/a	wordpools/wordpool_EN.txt	3	5	PLANT	FLAG	FLAG	PLANT	13	[0, 0, 0]	-999	PAL1	1	R1028M
1779.593	3.93	959588	REC_EVENT	1087.0	n/a	3	5	PLANT	FLAG	FLAG	PLANT	13	[0, 0, 0]	-999	PAL1	1	R1028M
1783.523	0.016	961552	REC_END	n/a	n/a	3	-999	n/a	n/a	n/a	n/a	13	[0, 0, 0]	-999	PAL1	1	R1028M
1783.539	0.275	961560	TEST_ORIENT	n/a	n/a	2	6	YARD	MOUSE	YARD	MOUSE	13	[0, 0, 0]	-999	PAL1	1	R1028M
1784.523	4.0	962052	TEST_PROBE	n/a	wordpools/wordpool_EN.txt	2	6	YARD	MOUSE	YARD	MOUSE	13	[0, 0, 0]	-999	PAL1	1	R1028M
1784.524	1.324	962053	REC_START	n/a	n/a	2	-999	n/a	MOUSE	n/a	n/a	13	[0, 0, 0]	-999	PAL1	1	R1028M
1785.848	3.683	962715	REC_EVENT	1324.0	n/a	2	6	YARD	MOUSE	YARD	MOUSE	13	[0, 0, 0]	-999	PAL1	1	R1028M
1789.531	1.645	964556	REC_END	n/a	n/a	2	-999	n/a	n/a	n/a	n/a	13	[0, 0, 0]	-999	PAL1	1	R1028M
1791.176	10.45	965379	ENCODING_START	n/a	n/a	0	-999	n/a	n/a	n/a	n/a	14	[0, 0, 0]	-999	PAL1	1	R1028M
1801.626	0.275	970603	STUDY_ORIENT	n/a	n/a	1	1	FLEA	COW	COW	FLEA	14	[0, 0, 0]	-999	PAL1	1	R1028M
1802.609	4.0	971094	STUDY_PAIR	n/a	wordpools/wordpool_EN.txt	1	1	FLEA	COW	COW	FLEA	14	[0, 0, 0]	-999	PAL1	1	R1028M
1807.627	0.275	973603	STUDY_ORIENT	n/a	n/a	2	4	FOOD	BOOK	FOOD	BOOK	14	[0, 0, 0]	-999	PAL1	1	R1028M
1808.395	4.0	973987	STUDY_PAIR	n/a	wordpools/wordpool_EN.txt	2	4	FOOD	BOOK	FOOD	BOOK	14	[0, 0, 0]	-999	PAL1	1	R1028M
1813.429	0.275	976504	STUDY_ORIENT	n/a	n/a	3	5	GLASS	PEA	PEA	GLASS	14	[0, 0, 0]	-999	PAL1	1	R1028M
1814.379	4.0	976979	STUDY_PAIR	n/a	wordpools/wordpool_EN.txt	3	5	GLASS	PEA	PEA	GLASS	14	[0, 0, 0]	-999	PAL1	1	R1028M
1819.397	0.275	979488	STUDY_ORIENT	n/a	n/a	4	6	BOMB	VEST	VEST	BOMB	14	[0, 0, 0]	-999	PAL1	1	R1028M
1820.331	4.0	979955	STUDY_PAIR	n/a	wordpools/wordpool_EN.txt	4	6	BOMB	VEST	VEST	BOMB	14	[0, 0, 0]	-999	PAL1	1	R1028M
1825.365	0.275	982471	STUDY_ORIENT	n/a	n/a	5	3	SWAMP	POND	POND	SWAMP	14	[0, 0, 0]	-999	PAL1	1	R1028M
1826.282	4.0	982930	STUDY_PAIR	n/a	wordpools/wordpool_EN.txt	5	3	SWAMP	POND	POND	SWAMP	14	[0, 0, 0]	-999	PAL1	1	R1028M
1831.316	0.275	985446	STUDY_ORIENT	n/a	n/a	6	2	TEA	WEB	TEA	WEB	14	[0, 0, 0]	-999	PAL1	1	R1028M
1832.333	4.0	985955	STUDY_PAIR	n/a	wordpools/wordpool_EN.txt	6	2	TEA	WEB	TEA	WEB	14	[0, 0, 0]	-999	PAL1	1	R1028M
1836.351	0.999	987964	START	n/a	n/a	-999	-999	n/a	n/a	n/a	n/a	14	[-999, -999, -999]	-999	PAL1	1	R1028M
1837.35	0.017	988463	MATH_START	n/a	n/a	-999	-999	n/a	n/a	n/a	n/a	14	[0, 0, 0]	-999	PAL1	1	R1028M
1837.367	4.835	988472	PROB	4801.0	n/a	-999	-999	n/a	n/a	n/a	n/a	14	[8, 3, 2]	13	PAL1	1	R1028M
1842.202	5.416	990889	PROB	5389.0	n/a	-999	-999	n/a	n/a	n/a	n/a	14	[2, 6, 5]	13	PAL1	1	R1028M
1847.618	3.118	993597	PROB	3085.0	n/a	-999	-999	n/a	n/a	n/a	n/a	14	[6, 4, 4]	14	PAL1	1	R1028M
1850.736	5.202	995156	PROB	5168.0	n/a	-999	-999	n/a	n/a	n/a	n/a	14	[4, 9, 3]	16	PAL1	1	R1028M
1855.938	3.773	997756	PROB	3773.0	n/a	-999	-999	n/a	n/a	n/a	n/a	14	[7, 9, 3]	19	PAL1	1	R1028M
1859.711	0.01	999643	STOP	n/a	n/a	-999	-999	n/a	n/a	n/a	n/a	14	[-999, -999, -999]	-999	PAL1	1	R1028M
1859.721	0.0	999648	MATH_END	n/a	n/a	-999	-999	n/a	n/a	n/a	n/a	14	[0, 0, 0]	-999	PAL1	1	R1028M
1859.721	0.016	999648	TEST_START	n/a	n/a	-999	-999	n/a	n/a	n/a	n/a	14	[0, 0, 0]	-999	PAL1	1	R1028M
1859.737	0.275	999656	TEST_ORIENT	n/a	n/a	1	1	FLEA	COW	COW	FLEA	14	[0, 0, 0]	-999	PAL1	1	R1028M
1860.571	4.0	1000073	TEST_PROBE	n/a	wordpools/wordpool_EN.txt	1	1	FLEA	COW	COW	FLEA	14	[0, 0, 0]	-999	PAL1	1	R1028M
1860.571	1.137	1000073	REC_START	n/a	n/a	1	-999	n/a	COW	n/a	n/a	14	[0, 0, 0]	-999	PAL1	1	R1028M
1861.708	3.88	1000641	REC_EVENT	1137.0	n/a	1	1	FLEA	COW	COW	FLEA	14	[0, 0, 0]	-999	PAL1	1	R1028M
1865.588	0.017	1002581	REC_END	n/a	n/a	1	-999	n/a	n/a	n/a	n/a	14	[0, 0, 0]	-999	PAL1	1	R1028M
1865.605	0.275	1002589	TEST_ORIENT	n/a	n/a	6	2	TEA	WEB	TEA	WEB	14	[0, 0, 0]	-999	PAL1	1	R1028M
1866.539	4.0	1003056	TEST_PROBE	n/a	wordpools/wordpool_EN.txt	6	2	TEA	WEB	TEA	WEB	14	[0, 0, 0]	-999	PAL1	1	R1028M
1866.539	1.269	1003056	REC_START	n/a	n/a	6	-999	n/a	WEB	n/a	n/a	14	[0, 0, 0]	-999	PAL1	1	R1028M
1867.808	3.748	1003691	REC_EVENT	1269.0	n/a	6	2	TEA	WEB	TEA	WEB	14	[0, 0, 0]	-999	PAL1	1	R1028M
1871.556	0.017	1005564	REC_END	n/a	n/a	6	-999	n/a	n/a	n/a	n/a	14	[0, 0, 0]	-999	PAL1	1	R1028M
1871.573	0.275	1005573	TEST_ORIENT	n/a	n/a	5	3	SWAMP	POND	POND	SWAMP	14	[0, 0, 0]	-999	PAL1	1	R1028M
1872.391	4.0	1005982	TEST_PROBE	n/a	wordpools/wordpool_EN.txt	5	3	SWAMP	POND	POND	SWAMP	14	[0, 0, 0]	-999	PAL1	1	R1028M
1872.392	1.117	1005982	REC_START	n/a	n/a	5	-999	n/a	POND	n/a	n/a	14	[0, 0, 0]	-999	PAL1	1	R1028M
1873.509	3.907	1006541	REC_EVENT	1117.0	n/a	5	3	SWAMP	POND	POND	SWAMP	14	[0, 0, 0]	-999	PAL1	1	R1028M
1877.416	0.009	1008494	REC_END	n/a	n/a	5	-999	n/a	n/a	n/a	n/a	14	[0, 0, 0]	-999	PAL1	1	R1028M
1877.425	0.275	1008499	TEST_ORIENT	n/a	n/a	2	4	FOOD	BOOK	FOOD	BOOK	14	[0, 0, 0]	-999	PAL1	1	R1028M
1878.292	4.0	1008932	TEST_PROBE	n/a	wordpools/wordpool_EN.txt	2	4	FOOD	BOOK	FOOD	BOOK	14	[0, 0, 0]	-999	PAL1	1	R1028M
1878.293	1.568	1008933	REC_START	n/a	n/a	2	-999	n/a	BOOK	n/a	n/a	14	[0, 0, 0]	-999	PAL1	1	R1028M
1879.861	3.44	1009717	REC_EVENT	1568.0	n/a	2	4	FOOD	BOOK	FOOD	BOOK	14	[0, 0, 0]	-999	PAL1	1	R1028M
1883.301	0.009	1011436	REC_END	n/a	n/a	2	-999	n/a	n/a	n/a	n/a	14	[0, 0, 0]	-999	PAL1	1	R1028M
1883.31	0.275	1011441	TEST_ORIENT	n/a	n/a	3	5	GLASS	PEA	PEA	GLASS	14	[0, 0, 0]	-999	PAL1	1	R1028M
1884.243	4.0	1011907	TEST_PROBE	n/a	wordpools/wordpool_EN.txt	3	5	GLASS	PEA	PEA	GLASS	14	[0, 0, 0]	-999	PAL1	1	R1028M
1884.244	1.113	1011908	REC_START	n/a	n/a	3	-999	n/a	PEA	n/a	n/a	14	[0, 0, 0]	-999	PAL1	1	R1028M
1885.357	3.887	1012464	REC_EVENT	1113.0	n/a	3	5	GLASS	PEA	PEA	GLASS	14	[0, 0, 0]	-999	PAL1	1	R1028M
1889.244	0.017	1014408	REC_END	n/a	n/a	3	-999	n/a	n/a	n/a	n/a	14	[0, 0, 0]	-999	PAL1	1	R1028M
1889.261	0.275	1014416	TEST_ORIENT	n/a	n/a	4	6	BOMB	VEST	VEST	BOMB	14	[0, 0, 0]	-999	PAL1	1	R1028M
1890.211	4.0	1014891	TEST_PROBE	n/a	wordpools/wordpool_EN.txt	4	6	BOMB	VEST	VEST	BOMB	14	[0, 0, 0]	-999	PAL1	1	R1028M
1890.212	1.172	1014892	REC_START	n/a	n/a	4	-999	n/a	VEST	n/a	n/a	14	[0, 0, 0]	-999	PAL1	1	R1028M
1891.384	3.836	1015477	REC_EVENT	1172.0	n/a	4	6	BOMB	VEST	VEST	BOMB	14	[0, 0, 0]	-999	PAL1	1	R1028M
1895.22	1.668	1017395	REC_END	n/a	n/a	4	-999	n/a	n/a	n/a	n/a	14	[0, 0, 0]	-999	PAL1	1	R1028M
1896.888	10.443	1018229	ENCODING_START	n/a	n/a	0	-999	n/a	n/a	n/a	n/a	15	[0, 0, 0]	-999	PAL1	1	R1028M
1907.331	0.275	1023450	STUDY_ORIENT	n/a	n/a	1	1	HOOK	JET	HOOK	JET	15	[0, 0, 0]	-999	PAL1	1	R1028M
1908.115	4.0	1023842	STUDY_PAIR	n/a	wordpools/wordpool_EN.txt	1	1	HOOK	JET	HOOK	JET	15	[0, 0, 0]	-999	PAL1	1	R1028M
1913.149	0.275	1026359	STUDY_ORIENT	n/a	n/a	2	6	SHELL	WOLF	WOLF	SHELL	15	[0, 0, 0]	-999	PAL1	1	R1028M
1914.116	4.0	1026842	STUDY_PAIR	n/a	wordpools/wordpool_EN.txt	2	6	SHELL	WOLF	WOLF	SHELL	15	[0, 0, 0]	-999	PAL1	1	R1028M
1919.15	0.275	1029359	STUDY_ORIENT	n/a	n/a	3	3	FARM	DIME	FARM	DIME	15	[0, 0, 0]	-999	PAL1	1	R1028M
1919.95	4.0	1029759	STUDY_PAIR	n/a	wordpools/wordpool_EN.txt	3	3	FARM	DIME	FARM	DIME	15	[0, 0, 0]	-999	PAL1	1	R1028M
1924.968	0.275	1032268	STUDY_ORIENT	n/a	n/a	4	4	SHIRT	SKY	SHIRT	SKY	15	[0, 0, 0]	-999	PAL1	1	R1028M
1925.767	4.0	1032667	STUDY_PAIR	n/a	wordpools/wordpool_EN.txt	4	4	SHIRT	SKY	SHIRT	SKY	15	[0, 0, 0]	-999	PAL1	1	R1028M
1930.786	0.275	1035176	STUDY_ORIENT	n/a	n/a	5	5	SHEET	TRAY	SHEET	TRAY	15	[0, 0, 0]	-999	PAL1	1	R1028M
1931.618	4.0	1035592	STUDY_PAIR	n/a	wordpools/wordpool_EN.txt	5	5	SHEET	TRAY	SHEET	TRAY	15	[0, 0, 0]	-999	PAL1	1	R1028M
1936.636	0.275	1038101	STUDY_ORIENT	n/a	n/a	6	2	CASH	CUBE	CASH	CUBE	15	[0, 0, 0]	-999	PAL1	1	R1028M
1937.454	4.0	1038510	STUDY_PAIR	n/a	wordpools/wordpool_EN.txt	6	2	CASH	CUBE	CASH	CUBE	15	[0, 0, 0]	-999	PAL1	1	R1028M
1941.472	0.999	1040519	START	n/a	n/a	-999	-999	n/a	n/a	n/a	n/a	15	[-999, -999, -999]	-999	PAL1	1	R1028M
1942.471	0.017	1041018	MATH_START	n/a	n/a	-999	-999	n/a	n/a	n/a	n/a	15	[0, 0, 0]	-999	PAL1	1	R1028M
1942.488	5.234	1041027	PROB	5199.0	n/a	-999	-999	n/a	n/a	n/a	n/a	15	[7, 7, 7]	21	PAL1	1	R1028M
1947.722	5.218	1043644	PROB	5190.0	n/a	-999	-999	n/a	n/a	n/a	n/a	15	[9, 8, 3]	20	PAL1	1	R1028M
1952.94	3.368	1046252	PROB	3348.0	n/a	-999	-999	n/a	n/a	n/a	n/a	15	[2, 2, 1]	5	PAL1	1	R1028M
1956.308	5.548	1047936	PROB	5548.0	n/a	-999	-999	n/a	n/a	n/a	n/a	15	[9, 2, 2]	13	PAL1	1	R1028M
1961.856	0.003	1050710	STOP	n/a	n/a	-999	-999	n/a	n/a	n/a	n/a	15	[-999, -999, -999]	-999	PAL1	1	R1028M
1961.859	0.0	1050711	MATH_END	n/a	n/a	-999	-999	n/a	n/a	n/a	n/a	15	[0, 0, 0]	-999	PAL1	1	R1028M
1961.859	0.017	1050711	TEST_START	n/a	n/a	-999	-999	n/a	n/a	n/a	n/a	15	[0, 0, 0]	-999	PAL1	1	R1028M
1961.876	0.275	1050720	TEST_ORIENT	n/a	n/a	1	1	HOOK	JET	HOOK	JET	15	[0, 0, 0]	-999	PAL1	1	R1028M
1962.792	4.0	1051178	TEST_PROBE	n/a	wordpools/wordpool_EN.txt	1	1	HOOK	JET	HOOK	JET	15	[0, 0, 0]	-999	PAL1	1	R1028M
1962.793	1.513	1051178	REC_START	n/a	n/a	1	-999	n/a	JET	n/a	n/a	15	[0, 0, 0]	-999	PAL1	1	R1028M
1964.306	3.487	1051935	REC_EVENT	1513.0	n/a	1	1	HOOK	JET	HOOK	JET	15	[0, 0, 0]	-999	PAL1	1	R1028M
1967.793	0.017	1053678	REC_END	n/a	n/a	1	-999	n/a	n/a	n/a	n/a	15	[0, 0, 0]	-999	PAL1	1	R1028M
1967.81	0.275	1053687	TEST_ORIENT	n/a	n/a	6	2	CASH	CUBE	CASH	CUBE	15	[0, 0, 0]	-999	PAL1	1	R1028M
1968.743	4.0	1054153	TEST_PROBE	n/a	wordpools/wordpool_EN.txt	6	2	CASH	CUBE	CASH	CUBE	15	[0, 0, 0]	-999	PAL1	1	R1028M
1968.743	1.055	1054153	REC_START	n/a	n/a	6	-999	n/a	CUBE	n/a	n/a	15	[0, 0, 0]	-999	PAL1	1	R1028M
1969.798	3.962	1054680	REC_EVENT	1055.0	n/a	6	2	CASH	CUBE	CASH	CUBE	15	[0, 0, 0]	-999	PAL1	1	R1028M
1973.76	0.018	1056661	REC_END	n/a	n/a	6	-999	n/a	n/a	n/a	n/a	15	[0, 0, 0]	-999	PAL1	1	R1028M
1973.778	0.275	1056670	TEST_ORIENT	n/a	n/a	3	3	FARM	DIME	FARM	DIME	15	[0, 0, 0]	-999	PAL1	1	R1028M
1974.744	0.0	1057153	REC_START	n/a	n/a	3	-999	n/a	DIME	n/a	n/a	15	[0, 0, 0]	-999	PAL1	1	R1028M
1974.744	4.0	1057153	TEST_PROBE	n/a	wordpools/wordpool_EN.txt	3	3	FARM	DIME	FARM	DIME	15	[0, 0, 0]	-999	PAL1	1	R1028M
1975.988	3.773	1057775	REC_EVENT	1244.0	n/a	3	3	FARM	DIME	FARM	DIME	15	[0, 0, 0]	-999	PAL1	1	R1028M
1979.761	0.018	1059661	REC_END	n/a	n/a	3	-999	n/a	n/a	n/a	n/a	15	[0, 0, 0]	-999	PAL1	1	R1028M
1979.779	0.275	1059670	TEST_ORIENT	n/a	n/a	4	4	SHIRT	SKY	SHIRT	SKY	15	[0, 0, 0]	-999	PAL1	1	R1028M
1980.762	4.0	1060162	TEST_PROBE	n/a	wordpools/wordpool_EN.txt	4	4	SHIRT	SKY	SHIRT	SKY	15	[0, 0, 0]	-999	PAL1	1	R1028M
1980.762	1.144	1060162	REC_START	n/a	n/a	4	-999	n/a	SKY	n/a	n/a	15	[0, 0, 0]	-999	PAL1	1	R1028M
1981.906	3.874	1060734	REC_EVENT	1144.0	n/a	4	4	SHIRT	SKY	SHIRT	SKY	15	[0, 0, 0]	-999	PAL1	1	R1028M
1985.78	0.017	1062671	REC_END	n/a	n/a	4	-999	n/a	n/a	n/a	n/a	15	[0, 0, 0]	-999	PAL1	1	R1028M
1985.797	0.275	1062679	TEST_ORIENT	n/a	n/a	5	5	SHEET	TRAY	SHEET	TRAY	15	[0, 0, 0]	-999	PAL1	1	R1028M
1986.629	4.0	1063095	TEST_PROBE	n/a	wordpools/wordpool_EN.txt	5	5	SHEET	TRAY	SHEET	TRAY	15	[0, 0, 0]	-999	PAL1	1	R1028M
1986.63	1.111	1063096	REC_START	n/a	n/a	5	-999	n/a	TRAY	n/a	n/a	15	[0, 0, 0]	-999	PAL1	1	R1028M
1987.741	3.889	1063651	REC_EVENT	1111.0	n/a	5	5	SHEET	TRAY	SHEET	TRAY	15	[0, 0, 0]	-999	PAL1	1	R1028M
1991.63	0.017	1065595	REC_END	n/a	n/a	5	-999	n/a	n/a	n/a	n/a	15	[0, 0, 0]	-999	PAL1	1	R1028M
1991.647	0.275	1065604	TEST_ORIENT	n/a	n/a	2	6	SHELL	WOLF	WOLF	SHELL	15	[0, 0, 0]	-999	PAL1	1	R1028M
1992.631	4.0	1066096	TEST_PROBE	n/a	wordpools/wordpool_EN.txt	2	6	SHELL	WOLF	WOLF	SHELL	15	[0, 0, 0]	-999	PAL1	1	R1028M
1992.631	1.388	1066096	REC_START	n/a	n/a	2	-999	n/a	WOLF	n/a	n/a	15	[0, 0, 0]	-999	PAL1	1	R1028M
1994.019	3.637	1066790	REC_EVENT	1388.0	n/a	2	6	SHELL	WOLF	WOLF	SHELL	15	[0, 0, 0]	-999	PAL1	1	R1028M
1997.656	1.872	1068608	REC_END	n/a	n/a	2	-999	n/a	n/a	n/a	n/a	15	[0, 0, 0]	-999	PAL1	1	R1028M
1999.528	10.44	1069544	ENCODING_START	n/a	n/a	0	-999	n/a	n/a	n/a	n/a	16	[0, 0, 0]	-999	PAL1	1	R1028M
2009.968	0.275	1074763	STUDY_ORIENT	n/a	n/a	1	1	CLOWN	ROAD	ROAD	CLOWN	16	[0, 0, 0]	-999	PAL1	1	R1028M
2010.985	4.0	1075272	STUDY_PAIR	n/a	wordpools/wordpool_EN.txt	1	1	CLOWN	ROAD	ROAD	CLOWN	16	[0, 0, 0]	-999	PAL1	1	R1028M
2016.003	0.275	1077781	STUDY_ORIENT	n/a	n/a	2	6	MOTH	JEEP	JEEP	MOTH	16	[0, 0, 0]	-999	PAL1	1	R1028M
2016.803	4.0	1078181	STUDY_PAIR	n/a	wordpools/wordpool_EN.txt	2	6	MOTH	JEEP	JEEP	MOTH	16	[0, 0, 0]	-999	PAL1	1	R1028M
2021.821	0.275	1080689	STUDY_ORIENT	n/a	n/a	3	3	ROOT	MOUTH	MOUTH	ROOT	16	[0, 0, 0]	-999	PAL1	1	R1028M
2022.753	4.0	1081155	STUDY_PAIR	n/a	wordpools/wordpool_EN.txt	3	3	ROOT	MOUTH	MOUTH	ROOT	16	[0, 0, 0]	-999	PAL1	1	R1028M
2027.772	0.275	1083665	STUDY_ORIENT	n/a	n/a	4	4	CHEEK	SLIME	CHEEK	SLIME	16	[0, 0, 0]	-999	PAL1	1	R1028M
2028.772	4.0	1084164	STUDY_PAIR	n/a	wordpools/wordpool_EN.txt	4	4	CHEEK	SLIME	CHEEK	SLIME	16	[0, 0, 0]	-999	PAL1	1	R1028M
2033.79	0.275	1086673	STUDY_ORIENT	n/a	n/a	5	5	CANE	MOUTH	BOOT	CANE	16	[0, 0, 0]	-999	PAL1	1	R1028M
2034.773	4.0	1087165	STUDY_PAIR	n/a	wordpools/wordpool_EN.txt	5	5	CANE	MOUTH	BOOT	CANE	16	[0, 0, 0]	-999	PAL1	1	R1028M
2039.791	0.275	1089673	STUDY_ORIENT	n/a	n/a	6	2	TEETH	CANE	TEETH	PARK	16	[0, 0, 0]	-999	PAL1	1	R1028M
2040.59	4.0	1090073	STUDY_PAIR	n/a	wordpools/wordpool_EN.txt	6	2	TEETH	CANE	TEETH	PARK	16	[0, 0, 0]	-999	PAL1	1	R1028M
2044.592	0.999	1092074	START	n/a	n/a	-999	-999	n/a	n/a	n/a	n/a	16	[-999, -999, -999]	-999	PAL1	1	R1028M
2045.591	0.017	1092573	MATH_START	n/a	n/a	-999	-999	n/a	n/a	n/a	n/a	16	[0, 0, 0]	-999	PAL1	1	R1028M
2045.608	4.852	1092582	PROB	4824.0	n/a	-999	-999	n/a	n/a	n/a	n/a	16	[4, 1, 7]	12	PAL1	1	R1028M
2050.46	5.518	1095007	PROB	5492.0	n/a	-999	-999	n/a	n/a	n/a	n/a	16	[7, 9, 3]	19	PAL1	1	R1028M
2055.978	4.467	1097766	PROB	4446.0	n/a	-999	-999	n/a	n/a	n/a	n/a	16	[4, 5, 4]	13	PAL1	1	R1028M
2060.445	4.875	1099999	PROB	4875.0	n/a	-999	-999	n/a	n/a	n/a	n/a	16	[1, 6, 1]	8	PAL1	1	R1028M
2065.32	0.009	1102437	STOP	n/a	n/a	-999	-999	n/a	n/a	n/a	n/a	16	[-999, -999, -999]	-999	PAL1	1	R1028M
2065.329	0.0	1102441	MATH_END	n/a	n/a	-999	-999	n/a	n/a	n/a	n/a	16	[0, 0, 0]	-999	PAL1	1	R1028M
2065.329	0.017	1102441	TEST_START	n/a	n/a	-999	-999	n/a	n/a	n/a	n/a	16	[0, 0, 0]	-999	PAL1	1	R1028M
2065.346	0.275	1102450	TEST_ORIENT	n/a	n/a	1	1	CLOWN	ROAD	ROAD	CLOWN	16	[0, 0, 0]	-999	PAL1	1	R1028M
2066.28	0.0	1102917	REC_START	n/a	n/a	1	-999	n/a	ROAD	n/a	n/a	16	[0, 0, 0]	-999	PAL1	1	R1028M
2066.28	4.0	1102917	TEST_PROBE	n/a	wordpools/wordpool_EN.txt	1	1	CLOWN	ROAD	ROAD	CLOWN	16	[0, 0, 0]	-999	PAL1	1	R1028M
2068.551	2.746	1104052	REC_EVENT	2271.0	n/a	1	1	CLOWN	ROAD	ROAD	CLOWN	16	[0, 0, 0]	-999	PAL1	1	R1028M
2071.297	0.017	1105425	REC_END	n/a	n/a	1	-999	n/a	n/a	n/a	n/a	16	[0, 0, 0]	-999	PAL1	1	R1028M
2071.314	0.275	1105433	TEST_ORIENT	n/a	n/a	6	2	TEETH	CANE	TEETH	PARK	16	[0, 0, 0]	-999	PAL1	1	R1028M
2072.214	4.0	1105883	TEST_PROBE	n/a	wordpools/wordpool_EN.txt	6	2	TEETH	CANE	TEETH	PARK	16	[0, 0, 0]	-999	PAL1	1	R1028M
2072.215	2.542	1105884	REC_START	n/a	n/a	6	-999	n/a	CANE	n/a	n/a	16	[0, 0, 0]	-999	PAL1	1	R1028M
2074.757	2.466	1107155	REC_EVENT	2542.0	n/a	6	2	TEETH	CANE	TEETH	PARK	16	[0, 0, 0]	-999	PAL1	1	R1028M
2077.223	0.009	1108387	REC_END	n/a	n/a	6	-999	n/a	n/a	n/a	n/a	16	[0, 0, 0]	-999	PAL1	1	R1028M
2077.232	0.275	1108392	TEST_ORIENT	n/a	n/a	3	3	ROOT	MOUTH	MOUTH	ROOT	16	[0, 0, 0]	-999	PAL1	1	R1028M
2078.132	4.0	1108842	TEST_PROBE	n/a	wordpools/wordpool_EN.txt	3	3	ROOT	MOUTH	MOUTH	ROOT	16	[0, 0, 0]	-999	PAL1	1	R1028M
2078.132	2.664	1108842	REC_START	n/a	n/a	3	-999	n/a	MOUTH	n/a	n/a	16	[0, 0, 0]	-999	PAL1	1	R1028M
2080.796	2.353	1110174	REC_EVENT	2664.0	n/a	3	3	ROOT	MOUTH	MOUTH	ROOT	16	[0, 0, 0]	-999	PAL1	1	R1028M
2083.149	0.017	1111350	REC_END	n/a	n/a	3	-999	n/a	n/a	n/a	n/a	16	[0, 0, 0]	-999	PAL1	1	R1028M
2083.166	0.275	1111359	TEST_ORIENT	n/a	n/a	4	4	CHEEK	SLIME	CHEEK	SLIME	16	[0, 0, 0]	-999	PAL1	1	R1028M
2084.0	4.0	1111776	TEST_PROBE	n/a	wordpools/wordpool_EN.txt	4	4	CHEEK	SLIME	CHEEK	SLIME	16	[0, 0, 0]	-999	PAL1	1	R1028M
2084.0	1.547	1111776	REC_START	n/a	n/a	4	-999	n/a	SLIME	n/a	n/a	16	[0, 0, 0]	-999	PAL1	1	R1028M
2085.547	3.47	1112549	REC_EVENT	1547.0	n/a	4	4	CHEEK	SLIME	CHEEK	SLIME	16	[0, 0, 0]	-999	PAL1	1	R1028M
2089.017	0.017	1114284	REC_END	n/a	n/a	4	-999	n/a	n/a	n/a	n/a	16	[0, 0, 0]	-999	PAL1	1	R1028M
2089.034	0.275	1114292	TEST_ORIENT	n/a	n/a	5	5	CANE	MOUTH	BOOT	CANE	16	[0, 0, 0]	-999	PAL1	1	R1028M
2089.851	4.0	1114701	TEST_PROBE	n/a	wordpools/wordpool_EN.txt	5	5	CANE	MOUTH	BOOT	CANE	16	[0, 0, 0]	-999	PAL1	1	R1028M
2089.852	4.02	1114701	REC_START	n/a	n/a	5	-999	n/a	MOUTH	n/a	n/a	16	[0, 0, 0]	-999	PAL1	1	R1028M
2093.872	1.003	1116711	REC_EVENT	4020.0	n/a	5	5	CANE	MOUTH	BOOT	CANE	16	[0, 0, 0]	-999	PAL1	1	R1028M
2094.875	0.01	1117213	REC_END	n/a	n/a	5	-999	n/a	n/a	n/a	n/a	16	[0, 0, 0]	-999	PAL1	1	R1028M
2094.885	0.275	1117218	TEST_ORIENT	n/a	n/a	2	6	MOTH	JEEP	JEEP	MOTH	16	[0, 0, 0]	-999	PAL1	1	R1028M
2095.902	4.0	1117726	TEST_PROBE	n/a	wordpools/wordpool_EN.txt	2	6	MOTH	JEEP	JEEP	MOTH	16	[0, 0, 0]	-999	PAL1	1	R1028M
2095.903	1.042	1117727	REC_START	n/a	n/a	2	-999	n/a	JEEP	n/a	n/a	16	[0, 0, 0]	-999	PAL1	1	R1028M
2096.945	3.969	1118247	REC_EVENT	1042.0	n/a	2	6	MOTH	JEEP	JEEP	MOTH	16	[0, 0, 0]	-999	PAL1	1	R1028M
2100.914	27.158	1120232	REC_END	n/a	n/a	2	-999	n/a	n/a	n/a	n/a	16	[0, 0, 0]	-999	PAL1	1	R1028M
2128.072	10.439	1133809	ENCODING_START	n/a	n/a	0	-999	n/a	n/a	n/a	n/a	17	[0, 0, 0]	-999	PAL1	1	R1028M
2138.511	0.275	1139028	STUDY_ORIENT	n/a	n/a	1	5	CART	CHALK	CART	CHALK	17	[0, 0, 0]	-999	PAL1	1	R1028M
2139.411	4.0	1139478	STUDY_PAIR	n/a	wordpools/wordpool_EN.txt	1	5	CART	CHALK	CART	CHALK	17	[0, 0, 0]	-999	PAL1	1	R1028M
2144.445	0.275	1141995	STUDY_ORIENT	n/a	n/a	2	6	CAKE	FLUTE	CAKE	FLUTE	17	[0, 0, 0]	-999	PAL1	1	R1028M
2145.229	4.0	1142387	STUDY_PAIR	n/a	wordpools/wordpool_EN.txt	2	6	CAKE	FLUTE	CAKE	FLUTE	17	[0, 0, 0]	-999	PAL1	1	R1028M
2150.263	0.275	1144904	STUDY_ORIENT	n/a	n/a	3	3	ARK	SNAIL	ARK	SNAIL	17	[0, 0, 0]	-999	PAL1	1	R1028M
2151.197	4.0	1145371	STUDY_PAIR	n/a	wordpools/wordpool_EN.txt	3	3	ARK	SNAIL	ARK	SNAIL	17	[0, 0, 0]	-999	PAL1	1	R1028M
2156.231	0.275	1147887	STUDY_ORIENT	n/a	n/a	4	4	HAT	TRASH	HAT	TRASH	17	[0, 0, 0]	-999	PAL1	1	R1028M
2157.198	4.0	1148371	STUDY_PAIR	n/a	wordpools/wordpool_EN.txt	4	4	HAT	TRASH	HAT	TRASH	17	[0, 0, 0]	-999	PAL1	1	R1028M
2162.232	0.275	1150888	STUDY_ORIENT	n/a	n/a	5	1	WEED	SWORD	WEED	SWORD	17	[0, 0, 0]	-999	PAL1	1	R1028M
2163.216	4.0	1151380	STUDY_PAIR	n/a	wordpools/wordpool_EN.txt	5	1	WEED	SWORD	WEED	SWORD	17	[0, 0, 0]	-999	PAL1	1	R1028M
2168.25	0.275	1153896	STUDY_ORIENT	n/a	n/a	6	2	SHARK	COIN	SHARK	COIN	17	[0, 0, 0]	-999	PAL1	1	R1028M
2169.067	4.0	1154305	STUDY_PAIR	n/a	wordpools/wordpool_EN.txt	6	2	SHARK	COIN	SHARK	COIN	17	[0, 0, 0]	-999	PAL1	1	R1028M
2173.085	0.999	1156314	START	n/a	n/a	-999	-999	n/a	n/a	n/a	n/a	17	[-999, -999, -999]	-999	PAL1	1	R1028M
2174.084	0.017	1156813	MATH_START	n/a	n/a	-999	-999	n/a	n/a	n/a	n/a	17	[0, 0, 0]	-999	PAL1	1	R1028M
2174.101	7.467	1156822	PROB	7434.0	n/a	-999	-999	n/a	n/a	n/a	n/a	17	[9, 4, 7]	20	PAL1	1	R1028M
2181.568	4.719	1160555	PROB	4696.0	n/a	-999	-999	n/a	n/a	n/a	n/a	17	[7, 2, 6]	15	PAL1	1	R1028M
2186.287	5.034	1162914	PROB	5009.0	n/a	-999	-999	n/a	n/a	n/a	n/a	17	[4, 1, 8]	13	PAL1	1	R1028M
2191.321	11.767	1165431	PROB	11767.0	n/a	-999	-999	n/a	n/a	n/a	n/a	17	[9, 4, 8]	21	PAL1	1	R1028M
2203.088	0.002	1171314	STOP	n/a	n/a	-999	-999	n/a	n/a	n/a	n/a	17	[-999, -999, -999]	-999	PAL1	1	R1028M
2203.09	0.0	1171315	MATH_END	n/a	n/a	-999	-999	n/a	n/a	n/a	n/a	17	[0, 0, 0]	-999	PAL1	1	R1028M
2203.09	0.017	1171315	TEST_START	n/a	n/a	-999	-999	n/a	n/a	n/a	n/a	17	[0, 0, 0]	-999	PAL1	1	R1028M
2203.107	0.275	1171323	TEST_ORIENT	n/a	n/a	5	1	WEED	SWORD	WEED	SWORD	17	[0, 0, 0]	-999	PAL1	1	R1028M
2204.007	4.0	1171773	TEST_PROBE	n/a	wordpools/wordpool_EN.txt	5	1	WEED	SWORD	WEED	SWORD	17	[0, 0, 0]	-999	PAL1	1	R1028M
2204.008	1.045	1171774	REC_START	n/a	n/a	5	-999	n/a	SWORD	n/a	n/a	17	[0, 0, 0]	-999	PAL1	1	R1028M
2205.053	3.963	1172296	REC_EVENT	1045.0	n/a	5	1	WEED	SWORD	WEED	SWORD	17	[0, 0, 0]	-999	PAL1	1	R1028M
2209.016	0.009	1174277	REC_END	n/a	n/a	5	-999	n/a	n/a	n/a	n/a	17	[0, 0, 0]	-999	PAL1	1	R1028M
2209.025	0.275	1174282	TEST_ORIENT	n/a	n/a	6	2	SHARK	COIN	SHARK	COIN	17	[0, 0, 0]	-999	PAL1	1	R1028M
2210.008	4.0	1174773	TEST_PROBE	n/a	wordpools/wordpool_EN.txt	6	2	SHARK	COIN	SHARK	COIN	17	[0, 0, 0]	-999	PAL1	1	R1028M
2210.009	1.486	1174774	REC_START	n/a	n/a	6	-999	n/a	COIN	n/a	n/a	17	[0, 0, 0]	-999	PAL1	1	R1028M
2211.495	3.514	1175517	REC_EVENT	1486.0	n/a	6	2	SHARK	COIN	SHARK	COIN	17	[0, 0, 0]	-999	PAL1	1	R1028M
2215.009	0.017	1177273	REC_END	n/a	n/a	6	-999	n/a	n/a	n/a	n/a	17	[0, 0, 0]	-999	PAL1	1	R1028M
2215.026	0.275	1177282	TEST_ORIENT	n/a	n/a	3	3	ARK	SNAIL	ARK	SNAIL	17	[0, 0, 0]	-999	PAL1	1	R1028M
2215.893	4.0	1177715	TEST_PROBE	n/a	wordpools/wordpool_EN.txt	3	3	ARK	SNAIL	ARK	SNAIL	17	[0, 0, 0]	-999	PAL1	1	R1028M
2215.893	1.3	1177715	REC_START	n/a	n/a	3	-999	n/a	SNAIL	n/a	n/a	17	[0, 0, 0]	-999	PAL1	1	R1028M
2217.193	3.717	1178365	REC_EVENT	1300.0	n/a	3	3	ARK	SNAIL	ARK	SNAIL	17	[0, 0, 0]	-999	PAL1	1	R1028M
2220.91	0.017	1180224	REC_END	n/a	n/a	3	-999	n/a	n/a	n/a	n/a	17	[0, 0, 0]	-999	PAL1	1	R1028M
2220.927	0.275	1180232	TEST_ORIENT	n/a	n/a	4	4	HAT	TRASH	HAT	TRASH	17	[0, 0, 0]	-999	PAL1	1	R1028M
2221.844	4.0	1180691	TEST_PROBE	n/a	wordpools/wordpool_EN.txt	4	4	HAT	TRASH	HAT	TRASH	17	[0, 0, 0]	-999	PAL1	1	R1028M
2221.845	1.179	1180691	REC_START	n/a	n/a	4	-999	n/a	TRASH	n/a	n/a	17	[0, 0, 0]	-999	PAL1	1	R1028M
2223.024	3.837	1181281	REC_EVENT	1179.0	n/a	4	4	HAT	TRASH	HAT	TRASH	17	[0, 0, 0]	-999	PAL1	1	R1028M
2226.861	0.017	1183199	REC_END	n/a	n/a	4	-999	n/a	n/a	n/a	n/a	17	[0, 0, 0]	-999	PAL1	1	R1028M
2226.878	0.275	1183207	TEST_ORIENT	n/a	n/a	1	5	CART	CHALK	CART	CHALK	17	[0, 0, 0]	-999	PAL1	1	R1028M
2227.744	4.0	1183640	TEST_PROBE	n/a	wordpools/wordpool_EN.txt	1	5	CART	CHALK	CART	CHALK	17	[0, 0, 0]	-999	PAL1	1	R1028M
2227.745	1.252	1183641	REC_START	n/a	n/a	1	-999	n/a	CHALK	n/a	n/a	17	[0, 0, 0]	-999	PAL1	1	R1028M
2228.997	3.748	1184267	REC_EVENT	1252.0	n/a	1	5	CART	CHALK	CART	CHALK	17	[0, 0, 0]	-999	PAL1	1	R1028M
2232.745	0.017	1186141	REC_END	n/a	n/a	1	-999	n/a	n/a	n/a	n/a	17	[0, 0, 0]	-999	PAL1	1	R1028M
2232.762	0.275	1186149	TEST_ORIENT	n/a	n/a	2	6	CAKE	FLUTE	CAKE	FLUTE	17	[0, 0, 0]	-999	PAL1	1	R1028M
2233.712	4.0	1186624	TEST_PROBE	n/a	wordpools/wordpool_EN.txt	2	6	CAKE	FLUTE	CAKE	FLUTE	17	[0, 0, 0]	-999	PAL1	1	R1028M
2233.713	1.301	1186625	REC_START	n/a	n/a	2	-999	n/a	FLUTE	n/a	n/a	17	[0, 0, 0]	-999	PAL1	1	R1028M
2235.014	3.724	1187275	REC_EVENT	1301.0	n/a	2	6	CAKE	FLUTE	CAKE	FLUTE	17	[0, 0, 0]	-999	PAL1	1	R1028M
2238.738	2.39	1189137	REC_END	n/a	n/a	2	-999	n/a	n/a	n/a	n/a	17	[0, 0, 0]	-999	PAL1	1	R1028M
2241.128	10.438	1190332	ENCODING_START	n/a	n/a	0	-999	n/a	n/a	n/a	n/a	18	[0, 0, 0]	-999	PAL1	1	R1028M
2251.566	0.275	1195550	STUDY_ORIENT	n/a	n/a	1	1	CONE	BOWL	CONE	BOWL	18	[0, 0, 0]	-999	PAL1	1	R1028M
2252.417	4.0	1195976	STUDY_PAIR	n/a	wordpools/wordpool_EN.txt	1	1	CONE	BOWL	CONE	BOWL	18	[0, 0, 0]	-999	PAL1	1	R1028M
2257.451	0.275	1198492	STUDY_ORIENT	n/a	n/a	2	2	JAR	HAND	JAR	HAND	18	[0, 0, 0]	-999	PAL1	1	R1028M
2258.318	4.0	1198926	STUDY_PAIR	n/a	wordpools/wordpool_EN.txt	2	2	JAR	HAND	JAR	HAND	18	[0, 0, 0]	-999	PAL1	1	R1028M
2263.352	0.275	1201443	STUDY_ORIENT	n/a	n/a	3	5	PIG	SHIELD	PIG	SHIELD	18	[0, 0, 0]	-999	PAL1	1	R1028M
2264.303	4.0	1201918	STUDY_PAIR	n/a	wordpools/wordpool_EN.txt	3	5	PIG	SHIELD	PIG	SHIELD	18	[0, 0, 0]	-999	PAL1	1	R1028M
2269.337	0.275	1204435	STUDY_ORIENT	n/a	n/a	4	4	BEAR	CAT	CAT	BEAR	18	[0, 0, 0]	-999	PAL1	1	R1028M
2270.32	4.0	1204926	STUDY_PAIR	n/a	wordpools/wordpool_EN.txt	4	4	BEAR	CAT	CAT	BEAR	18	[0, 0, 0]	-999	PAL1	1	R1028M
2275.338	0.275	1207435	STUDY_ORIENT	n/a	n/a	5	3	HILL	WALL	WALL	HILL	18	[0, 0, 0]	-999	PAL1	1	R1028M
2276.288	4.0	1207910	STUDY_PAIR	n/a	wordpools/wordpool_EN.txt	5	3	HILL	WALL	WALL	HILL	18	[0, 0, 0]	-999	PAL1	1	R1028M
2281.306	0.275	1210419	STUDY_ORIENT	n/a	n/a	6	6	ARM	OAK	ARM	OAK	18	[0, 0, 0]	-999	PAL1	1	R1028M
2282.256	4.0	1210894	STUDY_PAIR	n/a	wordpools/wordpool_EN.txt	6	6	ARM	OAK	ARM	OAK	18	[0, 0, 0]	-999	PAL1	1	R1028M
2286.274	1.0	1212902	START	n/a	n/a	-999	-999	n/a	n/a	n/a	n/a	18	[-999, -999, -999]	-999	PAL1	1	R1028M
2287.274	0.016	1213402	MATH_START	n/a	n/a	-999	-999	n/a	n/a	n/a	n/a	18	[0, 0, 0]	-999	PAL1	1	R1028M
2287.29	5.218	1213410	PROB	5189.0	n/a	-999	-999	n/a	n/a	n/a	n/a	18	[6, 4, 7]	17	PAL1	1	R1028M
2292.508	8.051	1216019	PROB	8027.0	n/a	-999	-999	n/a	n/a	n/a	n/a	18	[5, 9, 3]	17	PAL1	1	R1028M
2300.559	7.529	1220044	PROB	7529.0	n/a	-999	-999	n/a	n/a	n/a	n/a	18	[5, 1, 8]	14	PAL1	1	R1028M
2308.088	0.007	1223808	STOP	n/a	n/a	-999	-999	n/a	n/a	n/a	n/a	18	[-999, -999, -999]	-999	PAL1	1	R1028M
2308.095	0.0	1223812	TEST_START	n/a	n/a	-999	-999	n/a	n/a	n/a	n/a	18	[0, 0, 0]	-999	PAL1	1	R1028M
2308.095	0.016	1223812	MATH_END	n/a	n/a	-999	-999	n/a	n/a	n/a	n/a	18	[0, 0, 0]	-999	PAL1	1	R1028M
2308.111	0.275	1223820	TEST_ORIENT	n/a	n/a	1	1	CONE	BOWL	CONE	BOWL	18	[0, 0, 0]	-999	PAL1	1	R1028M
2309.078	4.0	1224303	TEST_PROBE	n/a	wordpools/wordpool_EN.txt	1	1	CONE	BOWL	CONE	BOWL	18	[0, 0, 0]	-999	PAL1	1	R1028M
2309.079	1.042	1224304	REC_START	n/a	n/a	1	-999	n/a	BOWL	n/a	n/a	18	[0, 0, 0]	-999	PAL1	1	R1028M
2310.121	3.984	1224825	REC_EVENT	1042.0	n/a	1	1	CONE	BOWL	CONE	BOWL	18	[0, 0, 0]	-999	PAL1	1	R1028M
2314.105	0.008	1226816	REC_END	n/a	n/a	1	-999	n/a	n/a	n/a	n/a	18	[0, 0, 0]	-999	PAL1	1	R1028M
2314.113	0.275	1226820	TEST_ORIENT	n/a	n/a	2	2	JAR	HAND	JAR	HAND	18	[0, 0, 0]	-999	PAL1	1	R1028M
2314.996	4.0	1227262	TEST_PROBE	n/a	wordpools/wordpool_EN.txt	2	2	JAR	HAND	JAR	HAND	18	[0, 0, 0]	-999	PAL1	1	R1028M
2314.996	1.017	1227262	REC_START	n/a	n/a	2	-999	n/a	HAND	n/a	n/a	18	[0, 0, 0]	-999	PAL1	1	R1028M
2316.013	4.0	1227770	REC_EVENT	1017.0	n/a	2	2	JAR	HAND	JAR	HAND	18	[0, 0, 0]	-999	PAL1	1	R1028M
2320.013	0.017	1229770	REC_END	n/a	n/a	2	-999	n/a	n/a	n/a	n/a	18	[0, 0, 0]	-999	PAL1	1	R1028M
2320.03	0.275	1229779	TEST_ORIENT	n/a	n/a	5	3	HILL	WALL	WALL	HILL	18	[0, 0, 0]	-999	PAL1	1	R1028M
2320.93	4.0	1230229	TEST_PROBE	n/a	wordpools/wordpool_EN.txt	5	3	HILL	WALL	WALL	HILL	18	[0, 0, 0]	-999	PAL1	1	R1028M
2320.931	1.294	1230229	REC_START	n/a	n/a	5	-999	n/a	WALL	n/a	n/a	18	[0, 0, 0]	-999	PAL1	1	R1028M
2322.225	3.714	1230876	REC_EVENT	1294.0	n/a	5	3	HILL	WALL	WALL	HILL	18	[0, 0, 0]	-999	PAL1	1	R1028M
2325.939	0.009	1232733	REC_END	n/a	n/a	5	-999	n/a	n/a	n/a	n/a	18	[0, 0, 0]	-999	PAL1	1	R1028M
2325.948	0.275	1232737	TEST_ORIENT	n/a	n/a	4	4	BEAR	CAT	CAT	BEAR	18	[0, 0, 0]	-999	PAL1	1	R1028M
2326.848	4.0	1233187	TEST_PROBE	n/a	wordpools/wordpool_EN.txt	4	4	BEAR	CAT	CAT	BEAR	18	[0, 0, 0]	-999	PAL1	1	R1028M
2326.849	1.347	1233188	REC_START	n/a	n/a	4	-999	n/a	CAT	n/a	n/a	18	[0, 0, 0]	-999	PAL1	1	R1028M
2328.196	3.663	1233861	REC_EVENT	1347.0	n/a	4	4	BEAR	CAT	CAT	BEAR	18	[0, 0, 0]	-999	PAL1	1	R1028M
2331.859	0.007	1235693	REC_END	n/a	n/a	4	-999	n/a	n/a	n/a	n/a	18	[0, 0, 0]	-999	PAL1	1	R1028M
2331.866	0.275	1235696	TEST_ORIENT	n/a	n/a	3	5	PIG	SHIELD	PIG	SHIELD	18	[0, 0, 0]	-999	PAL1	1	R1028M
2332.665	4.0	1236095	TEST_PROBE	n/a	wordpools/wordpool_EN.txt	3	5	PIG	SHIELD	PIG	SHIELD	18	[0, 0, 0]	-999	PAL1	1	R1028M
2332.665	0.965	1236095	REC_START	n/a	n/a	3	-999	n/a	SHIELD	n/a	n/a	18	[0, 0, 0]	-999	PAL1	1	R1028M
2333.63	4.053	1236578	REC_EVENT	965.0	n/a	3	5	PIG	SHIELD	PIG	SHIELD	18	[0, 0, 0]	-999	PAL1	1	R1028M
2337.683	0.016	1238604	REC_END	n/a	n/a	3	-999	n/a	n/a	n/a	n/a	18	[0, 0, 0]	-999	PAL1	1	R1028M
2337.699	0.275	1238612	TEST_ORIENT	n/a	n/a	6	6	ARM	OAK	ARM	OAK	18	[0, 0, 0]	-999	PAL1	1	R1028M
2338.501	0.0	1239013	REC_START	n/a	n/a	6	-999	n/a	OAK	n/a	n/a	18	[0, 0, 0]	-999	PAL1	1	R1028M
2338.501	4.0	1239013	TEST_PROBE	n/a	wordpools/wordpool_EN.txt	6	6	ARM	OAK	ARM	OAK	18	[0, 0, 0]	-999	PAL1	1	R1028M
2339.991	3.527	1239758	REC_EVENT	1490.0	n/a	6	6	ARM	OAK	ARM	OAK	18	[0, 0, 0]	-999	PAL1	1	R1028M
2343.518	1.946	1241521	REC_END	n/a	n/a	6	-999	n/a	n/a	n/a	n/a	18	[0, 0, 0]	-999	PAL1	1	R1028M
2345.464	10.44	1242494	ENCODING_START	n/a	n/a	0	-999	n/a	n/a	n/a	n/a	19	[0, 0, 0]	-999	PAL1	1	R1028M
2355.904	0.275	1247714	STUDY_ORIENT	n/a	n/a	1	5	FORT	FOOT	FORT	FOOT	19	[0, 0, 0]	-999	PAL1	1	R1028M
2356.804	4.0	1248164	STUDY_PAIR	n/a	wordpools/wordpool_EN.txt	1	5	FORT	FOOT	FORT	FOOT	19	[0, 0, 0]	-999	PAL1	1	R1028M
2361.822	0.275	1250673	STUDY_ORIENT	n/a	n/a	2	4	SHOE	ANT	SHOE	ANT	19	[0, 0, 0]	-999	PAL1	1	R1028M
2362.789	4.0	1251156	STUDY_PAIR	n/a	wordpools/wordpool_EN.txt	2	4	SHOE	ANT	SHOE	ANT	19	[0, 0, 0]	-999	PAL1	1	R1028M
2367.823	0.275	1253673	STUDY_ORIENT	n/a	n/a	3	1	SINK	CLAY	CLAY	SINK	19	[0, 0, 0]	-999	PAL1	1	R1028M
2368.722	4.0	1254122	STUDY_PAIR	n/a	wordpools/wordpool_EN.txt	3	1	SINK	CLAY	CLAY	SINK	19	[0, 0, 0]	-999	PAL1	1	R1028M
2373.74	0.275	1256631	STUDY_ORIENT	n/a	n/a	4	6	GOAT	FLAME	FLAME	GOAT	19	[0, 0, 0]	-999	PAL1	1	R1028M
2374.557	4.0	1257039	STUDY_PAIR	n/a	wordpools/wordpool_EN.txt	4	6	GOAT	FLAME	FLAME	GOAT	19	[0, 0, 0]	-999	PAL1	1	R1028M
2379.591	0.275	1259556	STUDY_ORIENT	n/a	n/a	5	3	SUN	ROOF	ROOF	SUN	19	[0, 0, 0]	-999	PAL1	1	R1028M
2380.442	4.0	1259982	STUDY_PAIR	n/a	wordpools/wordpool_EN.txt	5	3	SUN	ROOF	ROOF	SUN	19	[0, 0, 0]	-999	PAL1	1	R1028M
2385.46	0.275	1262490	STUDY_ORIENT	n/a	n/a	6	2	PET	EEL	PET	EEL	19	[0, 0, 0]	-999	PAL1	1	R1028M
2386.327	4.0	1262924	STUDY_PAIR	n/a	wordpools/wordpool_EN.txt	6	2	PET	EEL	PET	EEL	19	[0, 0, 0]	-999	PAL1	1	R1028M
2390.345	0.999	1264933	START	n/a	n/a	-999	-999	n/a	n/a	n/a	n/a	19	[-999, -999, -999]	-999	PAL1	1	R1028M
2391.344	0.017	1265432	MATH_START	n/a	n/a	-999	-999	n/a	n/a	n/a	n/a	19	[0, 0, 0]	-999	PAL1	1	R1028M
2391.361	7.568	1265441	PROB	7535.0	n/a	-999	-999	n/a	n/a	n/a	n/a	19	[7, 2, 4]	13	PAL1	1	R1028M
2398.929	4.135	1269224	PROB	4103.0	n/a	-999	-999	n/a	n/a	n/a	n/a	19	[9, 2, 9]	20	PAL1	1	R1028M
2403.064	5.616	1271291	PROB	5591.0	n/a	-999	-999	n/a	n/a	n/a	n/a	19	[6, 6, 8]	20	PAL1	1	R1028M
2408.68	3.871	1274099	PROB	3871.0	n/a	-999	-999	n/a	n/a	n/a	n/a	19	[3, 7, 7]	17	PAL1	1	R1028M
2412.551	0.013	1276034	STOP	n/a	n/a	-999	-999	n/a	n/a	n/a	n/a	19	[-999, -999, -999]	-999	PAL1	1	R1028M
2412.564	0.0	1276041	TEST_START	n/a	n/a	-999	-999	n/a	n/a	n/a	n/a	19	[0, 0, 0]	-999	PAL1	1	R1028M
2412.564	0.017	1276041	MATH_END	n/a	n/a	-999	-999	n/a	n/a	n/a	n/a	19	[0, 0, 0]	-999	PAL1	1	R1028M
2412.581	0.275	1276049	TEST_ORIENT	n/a	n/a	3	1	SINK	CLAY	CLAY	SINK	19	[0, 0, 0]	-999	PAL1	1	R1028M
2413.482	4.0	1276500	TEST_PROBE	n/a	wordpools/wordpool_EN.txt	3	1	SINK	CLAY	CLAY	SINK	19	[0, 0, 0]	-999	PAL1	1	R1028M
2413.483	1.151	1276500	REC_START	n/a	n/a	3	-999	n/a	CLAY	n/a	n/a	19	[0, 0, 0]	-999	PAL1	1	R1028M
2414.634	3.857	1277076	REC_EVENT	1151.0	n/a	3	1	SINK	CLAY	CLAY	SINK	19	[0, 0, 0]	-999	PAL1	1	R1028M
2418.491	0.009	1279004	REC_END	n/a	n/a	3	-999	n/a	n/a	n/a	n/a	19	[0, 0, 0]	-999	PAL1	1	R1028M
2418.5	0.275	1279009	TEST_ORIENT	n/a	n/a	6	2	PET	EEL	PET	EEL	19	[0, 0, 0]	-999	PAL1	1	R1028M
2419.532	4.0	1279525	TEST_PROBE	n/a	wordpools/wordpool_EN.txt	6	2	PET	EEL	PET	EEL	19	[0, 0, 0]	-999	PAL1	1	R1028M
2419.533	1.132	1279525	REC_START	n/a	n/a	6	-999	n/a	EEL	n/a	n/a	19	[0, 0, 0]	-999	PAL1	1	R1028M
2420.665	3.868	1280091	REC_EVENT	1132.0	n/a	6	2	PET	EEL	PET	EEL	19	[0, 0, 0]	-999	PAL1	1	R1028M
2424.533	0.017	1282025	REC_END	n/a	n/a	6	-999	n/a	n/a	n/a	n/a	19	[0, 0, 0]	-999	PAL1	1	R1028M
2424.55	0.275	1282033	TEST_ORIENT	n/a	n/a	5	3	SUN	ROOF	ROOF	SUN	19	[0, 0, 0]	-999	PAL1	1	R1028M
2425.435	4.0	1282476	TEST_PROBE	n/a	wordpools/wordpool_EN.txt	5	3	SUN	ROOF	ROOF	SUN	19	[0, 0, 0]	-999	PAL1	1	R1028M
2425.435	1.282	1282476	REC_START	n/a	n/a	5	-999	n/a	ROOF	n/a	n/a	19	[0, 0, 0]	-999	PAL1	1	R1028M
2426.717	3.735	1283117	REC_EVENT	1282.0	n/a	5	3	SUN	ROOF	ROOF	SUN	19	[0, 0, 0]	-999	PAL1	1	R1028M
2430.452	0.017	1284984	REC_END	n/a	n/a	5	-999	n/a	n/a	n/a	n/a	19	[0, 0, 0]	-999	PAL1	1	R1028M
2430.469	0.275	1284993	TEST_ORIENT	n/a	n/a	2	4	SHOE	ANT	SHOE	ANT	19	[0, 0, 0]	-999	PAL1	1	R1028M
2431.486	0.0	1285501	REC_START	n/a	n/a	2	-999	n/a	ANT	n/a	n/a	19	[0, 0, 0]	-999	PAL1	1	R1028M
