onset	duration	sample	trial_type	response_time	serialpos	probepos	probe_word	resp_word	study_1	study_2	list	test	answer	experiment	session	subject
0.0	35.924	1039	INSTRUCT_START	n/a	-999	-999	n/a	n/a	n/a	n/a	-1	[0, 0, 0]	-999	PAL1	3	R1365N
35.924	3.383	36962	INSTRUCT_END	n/a	-999	-999	n/a	n/a	n/a	n/a	-1	[0, 0, 0]	-999	PAL1	3	R1365N
39.307	8.483	40345	MIC TEST_START	n/a	-999	-999	n/a	n/a	n/a	n/a	-1	[0, 0, 0]	-999	PAL1	3	R1365N
47.79	0.012	48827	MIC TEST_END	n/a	-999	-999	n/a	n/a	n/a	n/a	-1	[0, 0, 0]	-999	PAL1	3	R1365N
47.802	0.001	48839	TRIAL_START	n/a	-999	-999	n/a	n/a	n/a	n/a	-1	[0, 0, 0]	-999	PAL1	3	R1365N
47.803	0.0	48840	TRIAL	n/a	-999	-999	n/a	n/a	n/a	n/a	-1	[0, 0, 0]	-999	PAL1	3	R1365N
47.803	1.839	48840	WAITING_START	n/a	-999	-999	n/a	n/a	n/a	n/a	-1	[0, 0, 0]	-999	PAL1	3	R1365N
49.642	0.001	50679	WAITING_END	n/a	-999	-999	n/a	n/a	n/a	n/a	-1	[0, 0, 0]	-999	PAL1	3	R1365N
49.643	10.429	50680	COUNTDOWN_START	n/a	-999	-999	n/a	n/a	n/a	n/a	-1	[0, 0, 0]	-999	PAL1	3	R1365N
60.072	0.001	61109	COUNTDOWN_END	n/a	-999	-999	n/a	n/a	n/a	n/a	-1	[0, 0, 0]	-999	PAL1	3	R1365N
60.073	0.589	61110	ORIENT_START	n/a	-999	-999	n/a	n/a	n/a	n/a	-1	[0, 0, 0]	-999	PAL1	3	R1365N
60.662	0.0	61699	ORIENT_END	n/a	-999	-999	n/a	n/a	n/a	n/a	-1	[0, 0, 0]	-999	PAL1	3	R1365N
60.662	1.154	61699	ENCODING_START	n/a	-999	-999	n/a	n/a	n/a	n/a	-1	[0, 0, 0]	-999	PAL1	3	R1365N
61.816	4.03	62853	STUDY_PAIR	n/a	1	-999	n/a	TONGUE	FLOOD	TONGUE	-1	[0, 0, 0]	-999	PAL1	3	R1365N
65.846	0.557	66883	STUDY_PAIR_OFF	n/a	1	-999	n/a	TONGUE	FLOOD	TONGUE	-1	[0, 0, 0]	-999	PAL1	3	R1365N
66.403	4.009	67440	STUDY_PAIR	n/a	2	-999	n/a	CAMEL	CAMEL	BABY	-1	[0, 0, 0]	-999	PAL1	3	R1365N
70.412	0.526	71448	STUDY_PAIR_OFF	n/a	2	-999	n/a	CAMEL	CAMEL	BABY	-1	[0, 0, 0]	-999	PAL1	3	R1365N
70.938	4.026	71974	STUDY_PAIR	n/a	3	-999	n/a	n/a	BEAM	RING	-1	[0, 0, 0]	-999	PAL1	3	R1365N
74.964	0.577	76000	STUDY_PAIR_OFF	n/a	3	-999	n/a	n/a	BEAM	RING	-1	[0, 0, 0]	-999	PAL1	3	R1365N
75.541	4.04	76577	STUDY_PAIR	n/a	4	-999	n/a	IMAGE	IMAGE	WAGON	-1	[0, 0, 0]	-999	PAL1	3	R1365N
79.581	0.588	80617	STUDY_PAIR_OFF	n/a	4	-999	n/a	IMAGE	IMAGE	WAGON	-1	[0, 0, 0]	-999	PAL1	3	R1365N
80.169	4.03	81205	STUDY_PAIR	n/a	5	-999	n/a	n/a	WATCH	COTTON	-1	[0, 0, 0]	-999	PAL1	3	R1365N
84.199	0.532	85235	STUDY_PAIR_OFF	n/a	5	-999	n/a	n/a	WATCH	COTTON	-1	[0, 0, 0]	-999	PAL1	3	R1365N
84.731	4.035	85767	STUDY_PAIR	n/a	6	-999	n/a	CHEST	RHINO	CHEST	-1	[0, 0, 0]	-999	PAL1	3	R1365N
88.766	0.001	89802	STUDY_PAIR_OFF	n/a	6	-999	n/a	CHEST	RHINO	CHEST	-1	[0, 0, 0]	-999	PAL1	3	R1365N
88.767	0.0	89803	ENCODING_END	n/a	-999	-999	n/a	n/a	n/a	n/a	-1	[0, 0, 0]	-999	PAL1	3	R1365N
88.767	0.0	89803	MATH_START	n/a	-999	-999	n/a	n/a	n/a	n/a	-1	[0, 0, 0]	-999	PAL1	3	R1365N
88.767	0.016	89803	START	n/a	-999	-999	n/a	n/a	n/a	n/a	-1	[-999, -999, -999]	-999	PAL1	3	R1365N
88.783	15.585	89819	PROB	15553	-999	-999	n/a	n/a	n/a	n/a	-1	[3, 4, 5]	12	PAL1	3	R1365N
104.368	4.318	105403	PROB	4287	-999	-999	n/a	n/a	n/a	n/a	-1	[9, 9, 7]	21	PAL1	3	R1365N
108.686	6.315	109721	PROB	6315	-999	-999	n/a	n/a	n/a	n/a	-1	[2, 8, 9]	19	PAL1	3	R1365N
115.001	0.02	116036	STOP	n/a	-999	-999	n/a	n/a	n/a	n/a	-1	[-999, -999, -999]	-999	PAL1	3	R1365N
115.021	0.505	116056	MATH_END	n/a	-999	-999	n/a	n/a	n/a	n/a	-1	[0, 0, 0]	-999	PAL1	3	R1365N
115.526	0.005	116561	RETRIEVAL_START	n/a	-999	-999	n/a	n/a	n/a	n/a	-1	[0, 0, 0]	-999	PAL1	3	R1365N
115.531	0.273	116566	ORIENT_START	n/a	-999	-999	n/a	n/a	n/a	n/a	-1	[0, 0, 0]	-999	PAL1	3	R1365N
115.804	0.75	116839	ORIENT_END	n/a	-999	-999	n/a	n/a	n/a	n/a	-1	[0, 0, 0]	-999	PAL1	3	R1365N
116.554	0.001	117589	REC_START	n/a	3	1	RING	n/a	BEAM	RING	-1	[0, 0, 0]	-999	PAL1	3	R1365N
116.555	4.032	117590	PROBE_START	n/a	3	1	RING	n/a	BEAM	RING	-1	[0, 0, 0]	-999	PAL1	3	R1365N
120.587	1.001	121622	PROBE_END	n/a	3	1	RING	n/a	BEAM	RING	-1	[0, 0, 0]	-999	PAL1	3	R1365N
121.588	0.01	122623	REC_END	n/a	3	1	RING	n/a	BEAM	RING	-1	[0, 0, 0]	-999	PAL1	3	R1365N
121.598	0.257	122633	ORIENT_START	n/a	-999	-999	n/a	n/a	n/a	n/a	-1	[0, 0, 0]	-999	PAL1	3	R1365N
121.855	0.614	122890	ORIENT_END	n/a	-999	-999	n/a	n/a	n/a	n/a	-1	[0, 0, 0]	-999	PAL1	3	R1365N
122.469	0.0	123504	REC_START	n/a	2	2	BABY	CAMEL	CAMEL	BABY	-1	[0, 0, 0]	-999	PAL1	3	R1365N
122.469	0.12	123504	PROBE_START	n/a	2	2	BABY	CAMEL	CAMEL	BABY	-1	[0, 0, 0]	-999	PAL1	3	R1365N
122.589	1.781	123624	REC_EVENT	6034	3	1	RING	<>	BEAM	RING	-1	[0, 0, 0]	-999	PAL1	3	R1365N
124.37	2.135	125405	REC_EVENT	1901	2	2	BABY	CAMEL	CAMEL	BABY	-1	[0, 0, 0]	-999	PAL1	3	R1365N
126.505	1.0	127540	PROBE_END	n/a	2	2	BABY	n/a	CAMEL	BABY	-1	[0, 0, 0]	-999	PAL1	3	R1365N
127.505	0.013	128540	REC_END	n/a	2	2	BABY	n/a	CAMEL	BABY	-1	[0, 0, 0]	-999	PAL1	3	R1365N
127.518	0.271	128553	ORIENT_START	n/a	-999	-999	n/a	n/a	n/a	n/a	-1	[0, 0, 0]	-999	PAL1	3	R1365N
127.789	0.704	128824	ORIENT_END	n/a	-999	-999	n/a	n/a	n/a	n/a	-1	[0, 0, 0]	-999	PAL1	3	R1365N
128.493	0.0	129528	REC_START	n/a	1	3	FLOOD	TONGUE	FLOOD	TONGUE	-1	[0, 0, 0]	-999	PAL1	3	R1365N
128.493	2.037	129528	PROBE_START	n/a	1	3	FLOOD	TONGUE	FLOOD	TONGUE	-1	[0, 0, 0]	-999	PAL1	3	R1365N
130.53	1.993	131564	REC_EVENT	2037	1	3	FLOOD	TONGUE	FLOOD	TONGUE	-1	[0, 0, 0]	-999	PAL1	3	R1365N
132.523	0.999	133557	PROBE_END	n/a	1	3	FLOOD	n/a	FLOOD	TONGUE	-1	[0, 0, 0]	-999	PAL1	3	R1365N
133.522	0.015	134556	REC_END	n/a	1	3	FLOOD	n/a	FLOOD	TONGUE	-1	[0, 0, 0]	-999	PAL1	3	R1365N
133.537	0.287	134571	ORIENT_START	n/a	-999	-999	n/a	n/a	n/a	n/a	-1	[0, 0, 0]	-999	PAL1	3	R1365N
133.824	0.727	134858	ORIENT_END	n/a	-999	-999	n/a	n/a	n/a	n/a	-1	[0, 0, 0]	-999	PAL1	3	R1365N
134.551	0.0	135585	REC_START	n/a	6	4	RHINO	CHEST	RHINO	CHEST	-1	[0, 0, 0]	-999	PAL1	3	R1365N
134.551	1.781	135585	PROBE_START	n/a	6	4	RHINO	CHEST	RHINO	CHEST	-1	[0, 0, 0]	-999	PAL1	3	R1365N
136.332	2.241	137366	REC_EVENT	1781	6	4	RHINO	CHEST	RHINO	CHEST	-1	[0, 0, 0]	-999	PAL1	3	R1365N
138.573	1.008	139607	PROBE_END	n/a	6	4	RHINO	n/a	RHINO	CHEST	-1	[0, 0, 0]	-999	PAL1	3	R1365N
139.581	0.01	140615	REC_END	n/a	6	4	RHINO	n/a	RHINO	CHEST	-1	[0, 0, 0]	-999	PAL1	3	R1365N
139.591	0.284	140625	ORIENT_START	n/a	-999	-999	n/a	n/a	n/a	n/a	-1	[0, 0, 0]	-999	PAL1	3	R1365N
139.875	0.608	140909	ORIENT_END	n/a	-999	-999	n/a	n/a	n/a	n/a	-1	[0, 0, 0]	-999	PAL1	3	R1365N
140.483	0.001	141517	REC_START	n/a	5	5	WATCH	n/a	WATCH	COTTON	-1	[0, 0, 0]	-999	PAL1	3	R1365N
140.484	4.024	141518	PROBE_START	n/a	5	5	WATCH	n/a	WATCH	COTTON	-1	[0, 0, 0]	-999	PAL1	3	R1365N
144.508	1.001	145542	PROBE_END	n/a	5	5	WATCH	n/a	WATCH	COTTON	-1	[0, 0, 0]	-999	PAL1	3	R1365N
145.509	0.013	146543	REC_END	n/a	5	5	WATCH	n/a	WATCH	COTTON	-1	[0, 0, 0]	-999	PAL1	3	R1365N
145.522	0.287	146556	ORIENT_START	n/a	-999	-999	n/a	n/a	n/a	n/a	-1	[0, 0, 0]	-999	PAL1	3	R1365N
145.809	0.596	146843	ORIENT_END	n/a	-999	-999	n/a	n/a	n/a	n/a	-1	[0, 0, 0]	-999	PAL1	3	R1365N
146.405	0.044	147439	REC_EVENT	5921	5	5	WATCH	<>	WATCH	COTTON	-1	[0, 0, 0]	-999	PAL1	3	R1365N
146.449	0.001	147483	REC_START	n/a	4	6	WAGON	IMAGE	IMAGE	WAGON	-1	[0, 0, 0]	-999	PAL1	3	R1365N
146.45	3.399	147484	PROBE_START	n/a	4	6	WAGON	IMAGE	IMAGE	WAGON	-1	[0, 0, 0]	-999	PAL1	3	R1365N
149.849	0.626	150883	REC_EVENT	3399	4	6	WAGON	IMAGE	IMAGE	WAGON	-1	[0, 0, 0]	-999	PAL1	3	R1365N
150.475	1.0	151509	PROBE_END	n/a	4	6	WAGON	n/a	IMAGE	WAGON	-1	[0, 0, 0]	-999	PAL1	3	R1365N
151.475	0.012	152509	REC_END	n/a	4	6	WAGON	n/a	IMAGE	WAGON	-1	[0, 0, 0]	-999	PAL1	3	R1365N
151.487	0.0	152521	RETRIEVAL_END	n/a	-999	-999	n/a	n/a	n/a	n/a	-1	[0, 0, 0]	-999	PAL1	3	R1365N
151.487	31.579	152521	PRACTICE_POST_INSTRUCT_START	n/a	-999	-999	n/a	n/a	n/a	n/a	-1	[0, 0, 0]	-999	PAL1	3	R1365N
183.066	0.0	184099	PRACTICE_POST_INSTRUCT_END	n/a	-999	-999	n/a	n/a	n/a	n/a	-1	[0, 0, 0]	-999	PAL1	3	R1365N
183.066	0.023	184099	TRIAL_END	n/a	-999	-999	n/a	n/a	n/a	n/a	-1	[0, 0, 0]	-999	PAL1	3	R1365N
183.089	0.0	184122	TRIAL_START	n/a	-999	-999	n/a	n/a	n/a	n/a	-1	[0, 0, 0]	-999	PAL1	3	R1365N
183.089	0.0	184122	TRIAL	n/a	-999	-999	n/a	n/a	n/a	n/a	1	[0, 0, 0]	-999	PAL1	3	R1365N
183.089	7.844	184122	WAITING_START	n/a	-999	-999	n/a	n/a	n/a	n/a	1	[0, 0, 0]	-999	PAL1	3	R1365N
190.933	0.001	191965	WAITING_END	n/a	-999	-999	n/a	n/a	n/a	n/a	1	[0, 0, 0]	-999	PAL1	3	R1365N
190.934	10.43	191966	COUNTDOWN_START	n/a	-999	-999	n/a	n/a	n/a	n/a	1	[0, 0, 0]	-999	PAL1	3	R1365N
201.364	0.0	202396	COUNTDOWN_END	n/a	-999	-999	n/a	n/a	n/a	n/a	1	[0, 0, 0]	-999	PAL1	3	R1365N
201.364	0.538	202396	ORIENT_START	n/a	-999	-999	n/a	n/a	n/a	n/a	1	[0, 0, 0]	-999	PAL1	3	R1365N
201.902	0.0	202934	ENCODING_START	n/a	-999	-999	n/a	n/a	n/a	n/a	1	[0, 0, 0]	-999	PAL1	3	R1365N
201.902	1.074	202934	ORIENT_END	n/a	-999	-999	n/a	n/a	n/a	n/a	1	[0, 0, 0]	-999	PAL1	3	R1365N
202.976	4.027	204008	STUDY_PAIR	n/a	1	-999	n/a	BED	BED	CAR	1	[0, 0, 0]	-999	PAL1	3	R1365N
207.003	0.503	208035	STUDY_PAIR_OFF	n/a	1	-999	n/a	BED	BED	CAR	1	[0, 0, 0]	-999	PAL1	3	R1365N
207.506	4.03	208538	STUDY_PAIR	n/a	2	-999	n/a	n/a	DIME	PIE	1	[0, 0, 0]	-999	PAL1	3	R1365N
211.536	0.57	212568	STUDY_PAIR_OFF	n/a	2	-999	n/a	n/a	DIME	PIE	1	[0, 0, 0]	-999	PAL1	3	R1365N
212.106	4.031	213138	STUDY_PAIR	n/a	3	-999	n/a	n/a	WAND	CLOCK	1	[0, 0, 0]	-999	PAL1	3	R1365N
216.137	0.721	217169	STUDY_PAIR_OFF	n/a	3	-999	n/a	n/a	WAND	CLOCK	1	[0, 0, 0]	-999	PAL1	3	R1365N
216.858	4.03	217890	STUDY_PAIR	n/a	4	-999	n/a	n/a	WING	PARK	1	[0, 0, 0]	-999	PAL1	3	R1365N
220.888	0.695	221919	STUDY_PAIR_OFF	n/a	4	-999	n/a	n/a	WING	PARK	1	[0, 0, 0]	-999	PAL1	3	R1365N
221.583	4.038	222614	STUDY_PAIR	n/a	5	-999	n/a	SKUNK	SKUNK	STRAW	1	[0, 0, 0]	-999	PAL1	3	R1365N
225.621	0.676	226652	STUDY_PAIR_OFF	n/a	5	-999	n/a	SKUNK	SKUNK	STRAW	1	[0, 0, 0]	-999	PAL1	3	R1365N
226.297	4.008	227328	STUDY_PAIR	n/a	6	-999	n/a	GOLD	SUN	GOLD	1	[0, 0, 0]	-999	PAL1	3	R1365N
230.305	0.001	231336	STUDY_PAIR_OFF	n/a	6	-999	n/a	GOLD	SUN	GOLD	1	[0, 0, 0]	-999	PAL1	3	R1365N
230.306	0.0	231337	MATH_START	n/a	-999	-999	n/a	n/a	n/a	n/a	1	[0, 0, 0]	-999	PAL1	3	R1365N
230.306	0.0	231337	ENCODING_END	n/a	-999	-999	n/a	n/a	n/a	n/a	1	[0, 0, 0]	-999	PAL1	3	R1365N
230.306	0.016	231337	START	n/a	-999	-999	n/a	n/a	n/a	n/a	1	[-999, -999, -999]	-999	PAL1	3	R1365N
230.322	7.101	231353	PROB	7070	-999	-999	n/a	n/a	n/a	n/a	1	[4, 2, 6]	12	PAL1	3	R1365N
237.423	4.234	238454	PROB	4209	-999	-999	n/a	n/a	n/a	n/a	1	[4, 2, 1]	7	PAL1	3	R1365N
241.657	3.385	242688	PROB	3352	-999	-999	n/a	n/a	n/a	n/a	1	[5, 4, 2]	11	PAL1	3	R1365N
245.042	4.167	246073	PROB	4143	-999	-999	n/a	n/a	n/a	n/a	1	[7, 4, 4]	15	PAL1	3	R1365N
249.209	4.464	250240	PROB	4464	-999	-999	n/a	n/a	n/a	n/a	1	[7, 2, 1]	10	PAL1	3	R1365N
253.673	0.021	254703	STOP	n/a	-999	-999	n/a	n/a	n/a	n/a	1	[-999, -999, -999]	-999	PAL1	3	R1365N
253.694	0.609	254724	MATH_END	n/a	-999	-999	n/a	n/a	n/a	n/a	1	[0, 0, 0]	-999	PAL1	3	R1365N
254.303	0.001	255333	RETRIEVAL_START	n/a	-999	-999	n/a	n/a	n/a	n/a	1	[0, 0, 0]	-999	PAL1	3	R1365N
254.304	0.272	255334	ORIENT_START	n/a	-999	-999	n/a	n/a	n/a	n/a	1	[0, 0, 0]	-999	PAL1	3	R1365N
254.576	0.518	255606	ORIENT_END	n/a	-999	-999	n/a	n/a	n/a	n/a	1	[0, 0, 0]	-999	PAL1	3	R1365N
255.094	0.0	256124	REC_START	n/a	5	1	STRAW	SKUNK	SKUNK	STRAW	1	[0, 0, 0]	-999	PAL1	3	R1365N
255.094	2.049	256124	PROBE_START	n/a	5	1	STRAW	SKUNK	SKUNK	STRAW	1	[0, 0, 0]	-999	PAL1	3	R1365N
257.143	1.985	258173	REC_EVENT	2049	5	1	STRAW	SKUNK	SKUNK	STRAW	1	[0, 0, 0]	-999	PAL1	3	R1365N
259.128	1.0	260158	PROBE_END	n/a	5	1	STRAW	n/a	SKUNK	STRAW	1	[0, 0, 0]	-999	PAL1	3	R1365N
260.128	0.013	261158	REC_END	n/a	5	1	STRAW	n/a	SKUNK	STRAW	1	[0, 0, 0]	-999	PAL1	3	R1365N
260.141	0.269	261171	ORIENT_START	n/a	-999	-999	n/a	n/a	n/a	n/a	1	[0, 0, 0]	-999	PAL1	3	R1365N
260.41	0.561	261440	ORIENT_END	n/a	-999	-999	n/a	n/a	n/a	n/a	1	[0, 0, 0]	-999	PAL1	3	R1365N
260.971	0.001	262001	REC_START	n/a	2	2	PIE	n/a	DIME	PIE	1	[0, 0, 0]	-999	PAL1	3	R1365N
260.972	4.023	262002	PROBE_START	n/a	2	2	PIE	n/a	DIME	PIE	1	[0, 0, 0]	-999	PAL1	3	R1365N
264.995	0.357	266025	PROBE_END	n/a	2	2	PIE	n/a	DIME	PIE	1	[0, 0, 0]	-999	PAL1	3	R1365N
265.352	0.643	266382	REC_EVENT	4380	2	2	PIE	<>	DIME	PIE	1	[0, 0, 0]	-999	PAL1	3	R1365N
265.995	0.013	267025	REC_END	n/a	2	2	PIE	n/a	DIME	PIE	1	[0, 0, 0]	-999	PAL1	3	R1365N
266.008	0.27	267038	ORIENT_START	n/a	-999	-999	n/a	n/a	n/a	n/a	1	[0, 0, 0]	-999	PAL1	3	R1365N
266.278	0.631	267308	ORIENT_END	n/a	-999	-999	n/a	n/a	n/a	n/a	1	[0, 0, 0]	-999	PAL1	3	R1365N
266.909	0.0	267939	REC_START	n/a	3	3	WAND	n/a	WAND	CLOCK	1	[0, 0, 0]	-999	PAL1	3	R1365N
266.909	3.575	267939	PROBE_START	n/a	3	3	WAND	n/a	WAND	CLOCK	1	[0, 0, 0]	-999	PAL1	3	R1365N
270.484	0.462	271514	REC_EVENT	3575	3	3	WAND	<>	WAND	CLOCK	1	[0, 0, 0]	-999	PAL1	3	R1365N
270.946	1.0	271976	PROBE_END	n/a	3	3	WAND	n/a	WAND	CLOCK	1	[0, 0, 0]	-999	PAL1	3	R1365N
271.946	0.014	272976	REC_END	n/a	3	3	WAND	n/a	WAND	CLOCK	1	[0, 0, 0]	-999	PAL1	3	R1365N
271.96	0.27	272990	ORIENT_START	n/a	-999	-999	n/a	n/a	n/a	n/a	1	[0, 0, 0]	-999	PAL1	3	R1365N
272.23	0.53	273260	ORIENT_END	n/a	-999	-999	n/a	n/a	n/a	n/a	1	[0, 0, 0]	-999	PAL1	3	R1365N
272.76	0.0	273790	REC_START	n/a	6	4	SUN	GOLD	SUN	GOLD	1	[0, 0, 0]	-999	PAL1	3	R1365N
272.76	1.966	273790	PROBE_START	n/a	6	4	SUN	GOLD	SUN	GOLD	1	[0, 0, 0]	-999	PAL1	3	R1365N
274.726	2.071	275756	REC_EVENT	1966	6	4	SUN	GOLD	SUN	GOLD	1	[0, 0, 0]	-999	PAL1	3	R1365N
276.797	1.0	277827	PROBE_END	n/a	6	4	SUN	n/a	SUN	GOLD	1	[0, 0, 0]	-999	PAL1	3	R1365N
277.797	0.012	278827	REC_END	n/a	6	4	SUN	n/a	SUN	GOLD	1	[0, 0, 0]	-999	PAL1	3	R1365N
277.809	0.272	278839	ORIENT_START	n/a	-999	-999	n/a	n/a	n/a	n/a	1	[0, 0, 0]	-999	PAL1	3	R1365N
278.081	0.547	279111	ORIENT_END	n/a	-999	-999	n/a	n/a	n/a	n/a	1	[0, 0, 0]	-999	PAL1	3	R1365N
278.628	0.0	279658	REC_START	n/a	1	5	CAR	BED	BED	CAR	1	[0, 0, 0]	-999	PAL1	3	R1365N
278.628	1.814	279658	PROBE_START	n/a	1	5	CAR	BED	BED	CAR	1	[0, 0, 0]	-999	PAL1	3	R1365N
280.442	2.205	281471	REC_EVENT	1814	1	5	CAR	BED	BED	CAR	1	[0, 0, 0]	-999	PAL1	3	R1365N
282.647	1.001	283676	PROBE_END	n/a	1	5	CAR	n/a	BED	CAR	1	[0, 0, 0]	-999	PAL1	3	R1365N
283.648	0.012	284677	REC_END	n/a	1	5	CAR	n/a	BED	CAR	1	[0, 0, 0]	-999	PAL1	3	R1365N
283.66	0.255	284689	ORIENT_START	n/a	-999	-999	n/a	n/a	n/a	n/a	1	[0, 0, 0]	-999	PAL1	3	R1365N
283.915	0.617	284944	ORIENT_END	n/a	-999	-999	n/a	n/a	n/a	n/a	1	[0, 0, 0]	-999	PAL1	3	R1365N
284.532	0.001	285561	REC_START	n/a	4	6	WING	n/a	WING	PARK	1	[0, 0, 0]	-999	PAL1	3	R1365N
284.533	4.032	285562	PROBE_START	n/a	4	6	WING	n/a	WING	PARK	1	[0, 0, 0]	-999	PAL1	3	R1365N
288.565	0.554	289594	PROBE_END	n/a	4	6	WING	n/a	WING	PARK	1	[0, 0, 0]	-999	PAL1	3	R1365N
289.119	0.447	290148	REC_EVENT	4586	4	6	WING	<>	WING	PARK	1	[0, 0, 0]	-999	PAL1	3	R1365N
289.566	0.011	290595	REC_END	n/a	4	6	WING	n/a	WING	PARK	1	[0, 0, 0]	-999	PAL1	3	R1365N
289.577	0.0	290606	RETRIEVAL_END	n/a	-999	-999	n/a	n/a	n/a	n/a	1	[0, 0, 0]	-999	PAL1	3	R1365N
289.577	0.022	290606	TRIAL_END	n/a	-999	-999	n/a	n/a	n/a	n/a	1	[0, 0, 0]	-999	PAL1	3	R1365N
289.599	0.0	290628	TRIAL_START	n/a	-999	-999	n/a	n/a	n/a	n/a	1	[0, 0, 0]	-999	PAL1	3	R1365N
289.599	0.0	290628	TRIAL	n/a	-999	-999	n/a	n/a	n/a	n/a	2	[0, 0, 0]	-999	PAL1	3	R1365N
289.599	3.168	290628	WAITING_START	n/a	-999	-999	n/a	n/a	n/a	n/a	2	[0, 0, 0]	-999	PAL1	3	R1365N
292.767	0.0	293796	WAITING_END	n/a	-999	-999	n/a	n/a	n/a	n/a	2	[0, 0, 0]	-999	PAL1	3	R1365N
292.767	10.429	293796	COUNTDOWN_START	n/a	-999	-999	n/a	n/a	n/a	n/a	2	[0, 0, 0]	-999	PAL1	3	R1365N
303.196	0.0	304225	COUNTDOWN_END	n/a	-999	-999	n/a	n/a	n/a	n/a	2	[0, 0, 0]	-999	PAL1	3	R1365N
303.196	0.573	304225	ORIENT_START	n/a	-999	-999	n/a	n/a	n/a	n/a	2	[0, 0, 0]	-999	PAL1	3	R1365N
303.769	0.0	304798	ENCODING_START	n/a	-999	-999	n/a	n/a	n/a	n/a	2	[0, 0, 0]	-999	PAL1	3	R1365N
303.769	1.052	304798	ORIENT_END	n/a	-999	-999	n/a	n/a	n/a	n/a	2	[0, 0, 0]	-999	PAL1	3	R1365N
304.821	4.032	305850	STUDY_PAIR	n/a	1	-999	n/a	n/a	SKY	ROOM	2	[0, 0, 0]	-999	PAL1	3	R1365N
308.853	0.641	309882	STUDY_PAIR_OFF	n/a	1	-999	n/a	n/a	SKY	ROOM	2	[0, 0, 0]	-999	PAL1	3	R1365N
309.494	4.025	310523	STUDY_PAIR	n/a	2	-999	n/a	PASTE	CLAY	PASTE	2	[0, 0, 0]	-999	PAL1	3	R1365N
313.519	0.624	314547	STUDY_PAIR_OFF	n/a	2	-999	n/a	PASTE	CLAY	PASTE	2	[0, 0, 0]	-999	PAL1	3	R1365N
314.143	4.028	315171	STUDY_PAIR	n/a	3	-999	n/a	n/a	BEAN	STONE	2	[0, 0, 0]	-999	PAL1	3	R1365N
318.171	0.515	319199	STUDY_PAIR_OFF	n/a	3	-999	n/a	n/a	BEAN	STONE	2	[0, 0, 0]	-999	PAL1	3	R1365N
318.686	4.036	319714	STUDY_PAIR	n/a	4	-999	n/a	HOOK	HOOK	BRICK	2	[0, 0, 0]	-999	PAL1	3	R1365N
322.722	0.744	323750	STUDY_PAIR_OFF	n/a	4	-999	n/a	HOOK	HOOK	BRICK	2	[0, 0, 0]	-999	PAL1	3	R1365N
323.466	4.039	324494	STUDY_PAIR	n/a	5	-999	n/a	n/a	VAN	FLAME	2	[0, 0, 0]	-999	PAL1	3	R1365N
327.505	0.573	328533	STUDY_PAIR_OFF	n/a	5	-999	n/a	n/a	VAN	FLAME	2	[0, 0, 0]	-999	PAL1	3	R1365N
328.078	4.028	329106	STUDY_PAIR	n/a	6	-999	n/a	WEED	WEED	GLOVE	2	[0, 0, 0]	-999	PAL1	3	R1365N
332.106	0.001	333134	STUDY_PAIR_OFF	n/a	6	-999	n/a	WEED	WEED	GLOVE	2	[0, 0, 0]	-999	PAL1	3	R1365N
332.107	0.0	333135	MATH_START	n/a	-999	-999	n/a	n/a	n/a	n/a	2	[0, 0, 0]	-999	PAL1	3	R1365N
332.107	0.0	333135	ENCODING_END	n/a	-999	-999	n/a	n/a	n/a	n/a	2	[0, 0, 0]	-999	PAL1	3	R1365N
332.107	0.016	333135	START	n/a	-999	-999	n/a	n/a	n/a	n/a	2	[-999, -999, -999]	-999	PAL1	3	R1365N
332.123	9.4	333151	PROB	9365	-999	-999	n/a	n/a	n/a	n/a	2	[8, 6, 9]	23	PAL1	3	R1365N
341.523	4.152	342550	PROB	4117	-999	-999	n/a	n/a	n/a	n/a	2	[4, 7, 6]	17	PAL1	3	R1365N
345.675	4.101	346702	PROB	4070	-999	-999	n/a	n/a	n/a	n/a	2	[1, 1, 1]	3	PAL1	3	R1365N
349.776	4.815	350803	PROB	4815	-999	-999	n/a	n/a	n/a	n/a	2	[7, 1, 8]	16	PAL1	3	R1365N
354.591	0.018	355618	STOP	n/a	-999	-999	n/a	n/a	n/a	n/a	2	[-999, -999, -999]	-999	PAL1	3	R1365N
354.609	0.7	355636	MATH_END	n/a	-999	-999	n/a	n/a	n/a	n/a	2	[0, 0, 0]	-999	PAL1	3	R1365N
355.309	0.001	356336	RETRIEVAL_START	n/a	-999	-999	n/a	n/a	n/a	n/a	2	[0, 0, 0]	-999	PAL1	3	R1365N
355.31	0.283	356337	ORIENT_START	n/a	-999	-999	n/a	n/a	n/a	n/a	2	[0, 0, 0]	-999	PAL1	3	R1365N
355.593	0.599	356620	ORIENT_END	n/a	-999	-999	n/a	n/a	n/a	n/a	2	[0, 0, 0]	-999	PAL1	3	R1365N
356.192	0.001	357219	REC_START	n/a	3	1	STONE	n/a	BEAN	STONE	2	[0, 0, 0]	-999	PAL1	3	R1365N
356.193	4.035	357220	PROBE_START	n/a	3	1	STONE	n/a	BEAN	STONE	2	[0, 0, 0]	-999	PAL1	3	R1365N
360.228	0.434	361255	PROBE_END	n/a	3	1	STONE	n/a	BEAN	STONE	2	[0, 0, 0]	-999	PAL1	3	R1365N
360.662	0.567	361689	REC_EVENT	4469	3	1	STONE	<>	BEAN	STONE	2	[0, 0, 0]	-999	PAL1	3	R1365N
361.229	0.011	362256	REC_END	n/a	3	1	STONE	n/a	BEAN	STONE	2	[0, 0, 0]	-999	PAL1	3	R1365N
361.24	0.27	362267	ORIENT_START	n/a	-999	-999	n/a	n/a	n/a	n/a	2	[0, 0, 0]	-999	PAL1	3	R1365N
361.51	0.516	362537	ORIENT_END	n/a	-999	-999	n/a	n/a	n/a	n/a	2	[0, 0, 0]	-999	PAL1	3	R1365N
362.026	0.0	363053	REC_START	n/a	2	2	CLAY	PASTE	CLAY	PASTE	2	[0, 0, 0]	-999	PAL1	3	R1365N
362.026	1.891	363053	PROBE_START	n/a	2	2	CLAY	PASTE	CLAY	PASTE	2	[0, 0, 0]	-999	PAL1	3	R1365N
363.917	2.145	364944	REC_EVENT	1891	2	2	CLAY	PASTE	CLAY	PASTE	2	[0, 0, 0]	-999	PAL1	3	R1365N
366.062	1.001	367089	PROBE_END	n/a	2	2	CLAY	n/a	CLAY	PASTE	2	[0, 0, 0]	-999	PAL1	3	R1365N
367.063	0.012	368090	REC_END	n/a	2	2	CLAY	n/a	CLAY	PASTE	2	[0, 0, 0]	-999	PAL1	3	R1365N
367.075	0.27	368102	ORIENT_START	n/a	-999	-999	n/a	n/a	n/a	n/a	2	[0, 0, 0]	-999	PAL1	3	R1365N
367.345	0.673	368372	ORIENT_END	n/a	-999	-999	n/a	n/a	n/a	n/a	2	[0, 0, 0]	-999	PAL1	3	R1365N
368.018	0.0	369045	REC_START	n/a	5	3	VAN	n/a	VAN	FLAME	2	[0, 0, 0]	-999	PAL1	3	R1365N
368.018	4.029	369045	PROBE_START	n/a	5	3	VAN	n/a	VAN	FLAME	2	[0, 0, 0]	-999	PAL1	3	R1365N
372.047	1.0	373073	PROBE_END	n/a	5	3	VAN	n/a	VAN	FLAME	2	[0, 0, 0]	-999	PAL1	3	R1365N
373.047	0.011	374073	REC_END	n/a	5	3	VAN	n/a	VAN	FLAME	2	[0, 0, 0]	-999	PAL1	3	R1365N
373.058	0.271	374084	ORIENT_START	n/a	-999	-999	n/a	n/a	n/a	n/a	2	[0, 0, 0]	-999	PAL1	3	R1365N
373.329	0.637	374355	ORIENT_END	n/a	-999	-999	n/a	n/a	n/a	n/a	2	[0, 0, 0]	-999	PAL1	3	R1365N
373.966	0.001	374992	REC_START	n/a	4	4	BRICK	HOOK	HOOK	BRICK	2	[0, 0, 0]	-999	PAL1	3	R1365N
373.967	0.024	374993	PROBE_START	n/a	4	4	BRICK	HOOK	HOOK	BRICK	2	[0, 0, 0]	-999	PAL1	3	R1365N
373.991	2.397	375017	REC_EVENT	5973	5	3	VAN	<>	VAN	FLAME	2	[0, 0, 0]	-999	PAL1	3	R1365N
376.388	1.61	377414	REC_EVENT	2421	4	4	BRICK	HOOK	HOOK	BRICK	2	[0, 0, 0]	-999	PAL1	3	R1365N
377.998	0.999	379024	PROBE_END	n/a	4	4	BRICK	n/a	HOOK	BRICK	2	[0, 0, 0]	-999	PAL1	3	R1365N
378.997	0.013	380023	REC_END	n/a	4	4	BRICK	n/a	HOOK	BRICK	2	[0, 0, 0]	-999	PAL1	3	R1365N
379.01	0.27	380036	ORIENT_START	n/a	-999	-999	n/a	n/a	n/a	n/a	2	[0, 0, 0]	-999	PAL1	3	R1365N
379.28	0.574	380306	ORIENT_END	n/a	-999	-999	n/a	n/a	n/a	n/a	2	[0, 0, 0]	-999	PAL1	3	R1365N
379.854	0.001	380880	REC_START	n/a	1	5	SKY	n/a	SKY	ROOM	2	[0, 0, 0]	-999	PAL1	3	R1365N
379.855	4.027	380881	PROBE_START	n/a	1	5	SKY	n/a	SKY	ROOM	2	[0, 0, 0]	-999	PAL1	3	R1365N
383.882	1.0	384908	PROBE_END	n/a	1	5	SKY	n/a	SKY	ROOM	2	[0, 0, 0]	-999	PAL1	3	R1365N
384.882	0.013	385908	REC_END	n/a	1	5	SKY	n/a	SKY	ROOM	2	[0, 0, 0]	-999	PAL1	3	R1365N
384.895	0.27	385921	ORIENT_START	n/a	-999	-999	n/a	n/a	n/a	n/a	2	[0, 0, 0]	-999	PAL1	3	R1365N
385.165	0.414	386191	ORIENT_END	n/a	-999	-999	n/a	n/a	n/a	n/a	2	[0, 0, 0]	-999	PAL1	3	R1365N
385.579	0.268	386605	REC_EVENT	5724	1	5	SKY	<>	SKY	ROOM	2	[0, 0, 0]	-999	PAL1	3	R1365N
385.847	0.0	386873	REC_START	n/a	6	6	GLOVE	WEED	WEED	GLOVE	2	[0, 0, 0]	-999	PAL1	3	R1365N
385.847	4.036	386873	PROBE_START	n/a	6	6	GLOVE	WEED	WEED	GLOVE	2	[0, 0, 0]	-999	PAL1	3	R1365N
389.883	0.389	390909	PROBE_END	n/a	6	6	GLOVE	n/a	WEED	GLOVE	2	[0, 0, 0]	-999	PAL1	3	R1365N
390.272	0.612	391298	REC_EVENT	4425	6	6	GLOVE	WEED	WEED	GLOVE	2	[0, 0, 0]	-999	PAL1	3	R1365N
390.884	0.013	391910	REC_END	n/a	6	6	GLOVE	n/a	WEED	GLOVE	2	[0, 0, 0]	-999	PAL1	3	R1365N
390.897	0.0	391923	RETRIEVAL_END	n/a	-999	-999	n/a	n/a	n/a	n/a	2	[0, 0, 0]	-999	PAL1	3	R1365N
390.897	0.019	391923	TRIAL_END	n/a	-999	-999	n/a	n/a	n/a	n/a	2	[0, 0, 0]	-999	PAL1	3	R1365N
390.916	0.001	391942	TRIAL_START	n/a	-999	-999	n/a	n/a	n/a	n/a	2	[0, 0, 0]	-999	PAL1	3	R1365N
390.917	0.0	391943	TRIAL	n/a	-999	-999	n/a	n/a	n/a	n/a	3	[0, 0, 0]	-999	PAL1	3	R1365N
390.917	1.966	391943	WAITING_START	n/a	-999	-999	n/a	n/a	n/a	n/a	3	[0, 0, 0]	-999	PAL1	3	R1365N
392.883	0.001	393909	WAITING_END	n/a	-999	-999	n/a	n/a	n/a	n/a	3	[0, 0, 0]	-999	PAL1	3	R1365N
392.884	10.43	393910	COUNTDOWN_START	n/a	-999	-999	n/a	n/a	n/a	n/a	3	[0, 0, 0]	-999	PAL1	3	R1365N
403.314	0.0	404339	COUNTDOWN_END	n/a	-999	-999	n/a	n/a	n/a	n/a	3	[0, 0, 0]	-999	PAL1	3	R1365N
403.314	0.554	404339	ORIENT_START	n/a	-999	-999	n/a	n/a	n/a	n/a	3	[0, 0, 0]	-999	PAL1	3	R1365N
403.868	0.001	404893	ORIENT_END	n/a	-999	-999	n/a	n/a	n/a	n/a	3	[0, 0, 0]	-999	PAL1	3	R1365N
403.869	1.067	404894	ENCODING_START	n/a	-999	-999	n/a	n/a	n/a	n/a	3	[0, 0, 0]	-999	PAL1	3	R1365N
404.936	4.033	405961	STUDY_PAIR	n/a	1	-999	n/a	n/a	PIT	BOOT	3	[0, 0, 0]	-999	PAL1	3	R1365N
408.969	0.742	409994	STUDY_PAIR_OFF	n/a	1	-999	n/a	n/a	PIT	BOOT	3	[0, 0, 0]	-999	PAL1	3	R1365N
409.711	4.026	410736	STUDY_PAIR	n/a	2	-999	n/a	FAME	MULE	PEN	3	[0, 0, 0]	-999	PAL1	3	R1365N
413.737	0.527	414762	STUDY_PAIR_OFF	n/a	2	-999	n/a	FAME	MULE	PEN	3	[0, 0, 0]	-999	PAL1	3	R1365N
414.264	4.039	415289	STUDY_PAIR	n/a	3	-999	n/a	BOARD	BOARD	BLUSH	3	[0, 0, 0]	-999	PAL1	3	R1365N
418.303	0.731	419328	STUDY_PAIR_OFF	n/a	3	-999	n/a	BOARD	BOARD	BLUSH	3	[0, 0, 0]	-999	PAL1	3	R1365N
419.034	4.038	420059	STUDY_PAIR	n/a	4	-999	n/a	n/a	TRAY	APE	3	[0, 0, 0]	-999	PAL1	3	R1365N
423.072	0.729	424097	STUDY_PAIR_OFF	n/a	4	-999	n/a	n/a	TRAY	APE	3	[0, 0, 0]	-999	PAL1	3	R1365N
423.801	4.021	424826	STUDY_PAIR	n/a	5	-999	n/a	SALT	DUCK	SALT	3	[0, 0, 0]	-999	PAL1	3	R1365N
427.822	0.692	428847	STUDY_PAIR_OFF	n/a	5	-999	n/a	SALT	DUCK	SALT	3	[0, 0, 0]	-999	PAL1	3	R1365N
428.514	4.025	429539	STUDY_PAIR	n/a	6	-999	n/a	n/a	NEST	SPONGE	3	[0, 0, 0]	-999	PAL1	3	R1365N
432.539	0.0	433563	STUDY_PAIR_OFF	n/a	6	-999	n/a	n/a	NEST	SPONGE	3	[0, 0, 0]	-999	PAL1	3	R1365N
432.539	0.001	433563	ENCODING_END	n/a	-999	-999	n/a	n/a	n/a	n/a	3	[0, 0, 0]	-999	PAL1	3	R1365N
432.54	0.0	433564	MATH_START	n/a	-999	-999	n/a	n/a	n/a	n/a	3	[0, 0, 0]	-999	PAL1	3	R1365N
432.54	0.015	433564	START	n/a	-999	-999	n/a	n/a	n/a	n/a	3	[-999, -999, -999]	-999	PAL1	3	R1365N
432.555	5.469	433579	PROB	5430	-999	-999	n/a	n/a	n/a	n/a	3	[2, 9, 1]	12	PAL1	3	R1365N
438.024	3.95	439048	PROB	3920	-999	-999	n/a	n/a	n/a	n/a	3	[2, 7, 4]	14	PAL1	3	R1365N
441.974	3.934	442998	PROB	3899	-999	-999	n/a	n/a	n/a	n/a	3	[4, 6, 6]	16	PAL1	3	R1365N
445.908	4.768	446932	PROB	4732	-999	-999	n/a	n/a	n/a	n/a	3	[2, 9, 8]	19	PAL1	3	R1365N
450.676	5.429	451700	PROB	5429	-999	-999	n/a	n/a	n/a	n/a	3	[1, 8, 5]	14	PAL1	3	R1365N
456.105	0.022	457129	STOP	n/a	-999	-999	n/a	n/a	n/a	n/a	3	[-999, -999, -999]	-999	PAL1	3	R1365N
456.127	0.633	457151	MATH_END	n/a	-999	-999	n/a	n/a	n/a	n/a	3	[0, 0, 0]	-999	PAL1	3	R1365N
456.76	0.002	457784	RETRIEVAL_START	n/a	-999	-999	n/a	n/a	n/a	n/a	3	[0, 0, 0]	-999	PAL1	3	R1365N
456.762	0.282	457786	ORIENT_START	n/a	-999	-999	n/a	n/a	n/a	n/a	3	[0, 0, 0]	-999	PAL1	3	R1365N
457.044	0.511	458068	ORIENT_END	n/a	-999	-999	n/a	n/a	n/a	n/a	3	[0, 0, 0]	-999	PAL1	3	R1365N
457.555	0.001	458579	REC_START	n/a	5	1	DUCK	SALT	DUCK	SALT	3	[0, 0, 0]	-999	PAL1	3	R1365N
457.556	2.005	458580	PROBE_START	n/a	5	1	DUCK	SALT	DUCK	SALT	3	[0, 0, 0]	-999	PAL1	3	R1365N
459.561	2.033	460585	REC_EVENT	2005	5	1	DUCK	SALT	DUCK	SALT	3	[0, 0, 0]	-999	PAL1	3	R1365N
461.594	0.999	462617	PROBE_END	n/a	5	1	DUCK	n/a	DUCK	SALT	3	[0, 0, 0]	-999	PAL1	3	R1365N
462.593	0.011	463616	REC_END	n/a	5	1	DUCK	n/a	DUCK	SALT	3	[0, 0, 0]	-999	PAL1	3	R1365N
462.604	0.274	463627	ORIENT_START	n/a	-999	-999	n/a	n/a	n/a	n/a	3	[0, 0, 0]	-999	PAL1	3	R1365N
462.878	0.57	463901	ORIENT_END	n/a	-999	-999	n/a	n/a	n/a	n/a	3	[0, 0, 0]	-999	PAL1	3	R1365N
463.448	0.0	464471	REC_START	n/a	2	2	MULE	FAME	MULE	PEN	3	[0, 0, 0]	-999	PAL1	3	R1365N
463.448	4.03	464471	PROBE_START	n/a	2	2	MULE	FAME	MULE	PEN	3	[0, 0, 0]	-999	PAL1	3	R1365N
467.478	0.152	468501	PROBE_END	n/a	2	2	MULE	n/a	MULE	PEN	3	[0, 0, 0]	-999	PAL1	3	R1365N
467.63	0.848	468653	REC_EVENT	4182	2	2	MULE	FAME	MULE	PEN	3	[0, 0, 0]	-999	PAL1	3	R1365N
468.478	0.011	469501	REC_END	n/a	2	2	MULE	n/a	MULE	PEN	3	[0, 0, 0]	-999	PAL1	3	R1365N
468.489	0.274	469512	ORIENT_START	n/a	-999	-999	n/a	n/a	n/a	n/a	3	[0, 0, 0]	-999	PAL1	3	R1365N
468.763	0.628	469786	ORIENT_END	n/a	-999	-999	n/a	n/a	n/a	n/a	3	[0, 0, 0]	-999	PAL1	3	R1365N
469.391	0.0	470414	REC_START	n/a	3	3	BLUSH	BOARD	BOARD	BLUSH	3	[0, 0, 0]	-999	PAL1	3	R1365N
469.391	4.038	470414	PROBE_START	n/a	3	3	BLUSH	BOARD	BOARD	BLUSH	3	[0, 0, 0]	-999	PAL1	3	R1365N
473.429	0.089	474452	PROBE_END	n/a	3	3	BLUSH	n/a	BOARD	BLUSH	3	[0, 0, 0]	-999	PAL1	3	R1365N
473.518	0.911	474541	REC_EVENT	4127	3	3	BLUSH	BOARD	BOARD	BLUSH	3	[0, 0, 0]	-999	PAL1	3	R1365N
474.429	0.013	475452	REC_END	n/a	3	3	BLUSH	n/a	BOARD	BLUSH	3	[0, 0, 0]	-999	PAL1	3	R1365N
474.442	0.271	475465	ORIENT_START	n/a	-999	-999	n/a	n/a	n/a	n/a	3	[0, 0, 0]	-999	PAL1	3	R1365N
474.713	0.71	475736	ORIENT_END	n/a	-999	-999	n/a	n/a	n/a	n/a	3	[0, 0, 0]	-999	PAL1	3	R1365N
475.423	0.0	476446	REC_START	n/a	4	4	APE	n/a	TRAY	APE	3	[0, 0, 0]	-999	PAL1	3	R1365N
475.423	4.023	476446	PROBE_START	n/a	4	4	APE	n/a	TRAY	APE	3	[0, 0, 0]	-999	PAL1	3	R1365N
479.446	1.0	480469	PROBE_END	n/a	4	4	APE	n/a	TRAY	APE	3	[0, 0, 0]	-999	PAL1	3	R1365N
480.446	0.011	481469	REC_END	n/a	4	4	APE	n/a	TRAY	APE	3	[0, 0, 0]	-999	PAL1	3	R1365N
480.457	0.274	481480	ORIENT_START	n/a	-999	-999	n/a	n/a	n/a	n/a	3	[0, 0, 0]	-999	PAL1	3	R1365N
480.731	0.537	481754	ORIENT_END	n/a	-999	-999	n/a	n/a	n/a	n/a	3	[0, 0, 0]	-999	PAL1	3	R1365N
481.268	0.0	482291	REC_START	n/a	1	5	BOOT	n/a	PIT	BOOT	3	[0, 0, 0]	-999	PAL1	3	R1365N
481.268	0.157	482291	PROBE_START	n/a	1	5	BOOT	n/a	PIT	BOOT	3	[0, 0, 0]	-999	PAL1	3	R1365N
481.425	3.872	482448	REC_EVENT	6002	4	4	APE	<>	TRAY	APE	3	[0, 0, 0]	-999	PAL1	3	R1365N
485.297	1.001	486320	PROBE_END	n/a	1	5	BOOT	n/a	PIT	BOOT	3	[0, 0, 0]	-999	PAL1	3	R1365N
486.298	0.012	487321	REC_END	n/a	1	5	BOOT	n/a	PIT	BOOT	3	[0, 0, 0]	-999	PAL1	3	R1365N
486.31	0.271	487333	ORIENT_START	n/a	-999	-999	n/a	n/a	n/a	n/a	3	[0, 0, 0]	-999	PAL1	3	R1365N
486.581	0.526	487604	ORIENT_END	n/a	-999	-999	n/a	n/a	n/a	n/a	3	[0, 0, 0]	-999	PAL1	3	R1365N
487.107	0.092	488130	REC_EVENT	5839	1	5	BOOT	<>	PIT	BOOT	3	[0, 0, 0]	-999	PAL1	3	R1365N
487.199	0.0	488222	REC_START	n/a	6	6	NEST	n/a	NEST	SPONGE	3	[0, 0, 0]	-999	PAL1	3	R1365N
487.199	4.034	488222	PROBE_START	n/a	6	6	NEST	n/a	NEST	SPONGE	3	[0, 0, 0]	-999	PAL1	3	R1365N
491.233	1.001	492255	PROBE_END	n/a	6	6	NEST	n/a	NEST	SPONGE	3	[0, 0, 0]	-999	PAL1	3	R1365N
492.234	0.011	493256	REC_END	n/a	6	6	NEST	n/a	NEST	SPONGE	3	[0, 0, 0]	-999	PAL1	3	R1365N
492.245	0.001	493267	RETRIEVAL_END	n/a	-999	-999	n/a	n/a	n/a	n/a	3	[0, 0, 0]	-999	PAL1	3	R1365N
492.246	0.021	493268	TRIAL_END	n/a	-999	-999	n/a	n/a	n/a	n/a	3	[0, 0, 0]	-999	PAL1	3	R1365N
492.267	0.0	493289	TRIAL_START	n/a	-999	-999	n/a	n/a	n/a	n/a	3	[0, 0, 0]	-999	PAL1	3	R1365N
492.267	0.0	493289	TRIAL	n/a	-999	-999	n/a	n/a	n/a	n/a	4	[0, 0, 0]	-999	PAL1	3	R1365N
492.267	0.858	493289	WAITING_START	n/a	-999	-999	n/a	n/a	n/a	n/a	4	[0, 0, 0]	-999	PAL1	3	R1365N
493.125	0.908	494147	REC_EVENT	5926	6	6	NEST	<>	NEST	SPONGE	3	[0, 0, 0]	-999	PAL1	3	R1365N
494.033	0.001	495055	WAITING_END	n/a	-999	-999	n/a	n/a	n/a	n/a	4	[0, 0, 0]	-999	PAL1	3	R1365N
494.034	10.43	495056	COUNTDOWN_START	n/a	-999	-999	n/a	n/a	n/a	n/a	4	[0, 0, 0]	-999	PAL1	3	R1365N
504.464	0.0	505486	COUNTDOWN_END	n/a	-999	-999	n/a	n/a	n/a	n/a	4	[0, 0, 0]	-999	PAL1	3	R1365N
504.464	0.555	505486	ORIENT_START	n/a	-999	-999	n/a	n/a	n/a	n/a	4	[0, 0, 0]	-999	PAL1	3	R1365N
505.019	0.0	506041	ORIENT_END	n/a	-999	-999	n/a	n/a	n/a	n/a	4	[0, 0, 0]	-999	PAL1	3	R1365N
505.019	1.024	506041	ENCODING_START	n/a	-999	-999	n/a	n/a	n/a	n/a	4	[0, 0, 0]	-999	PAL1	3	R1365N
506.043	4.043	507065	STUDY_PAIR	n/a	1	-999	n/a	HAWK	HAWK	SWORD	4	[0, 0, 0]	-999	PAL1	3	R1365N
510.086	0.572	511108	STUDY_PAIR_OFF	n/a	1	-999	n/a	HAWK	HAWK	SWORD	4	[0, 0, 0]	-999	PAL1	3	R1365N
510.658	4.029	511680	STUDY_PAIR	n/a	2	-999	n/a	n/a	COW	HORN	4	[0, 0, 0]	-999	PAL1	3	R1365N
514.687	0.551	515709	STUDY_PAIR_OFF	n/a	2	-999	n/a	n/a	COW	HORN	4	[0, 0, 0]	-999	PAL1	3	R1365N
515.238	4.032	516260	STUDY_PAIR	n/a	3	-999	n/a	BARN	BARN	STOOL	4	[0, 0, 0]	-999	PAL1	3	R1365N
519.27	0.578	520292	STUDY_PAIR_OFF	n/a	3	-999	n/a	BARN	BARN	STOOL	4	[0, 0, 0]	-999	PAL1	3	R1365N
519.848	4.024	520869	STUDY_PAIR	n/a	4	-999	n/a	n/a	BANK	SLIME	4	[0, 0, 0]	-999	PAL1	3	R1365N
523.872	0.598	524893	STUDY_PAIR_OFF	n/a	4	-999	n/a	n/a	BANK	SLIME	4	[0, 0, 0]	-999	PAL1	3	R1365N
524.47	4.035	525491	STUDY_PAIR	n/a	5	-999	n/a	COW	CORD	PURSE	4	[0, 0, 0]	-999	PAL1	3	R1365N
528.505	0.666	529526	STUDY_PAIR_OFF	n/a	5	-999	n/a	COW	CORD	PURSE	4	[0, 0, 0]	-999	PAL1	3	R1365N
529.171	4.036	530192	STUDY_PAIR	n/a	6	-999	n/a	DITCH	ELF	DITCH	4	[0, 0, 0]	-999	PAL1	3	R1365N
533.207	0.0	534228	STUDY_PAIR_OFF	n/a	6	-999	n/a	DITCH	ELF	DITCH	4	[0, 0, 0]	-999	PAL1	3	R1365N
533.207	0.001	534228	ENCODING_END	n/a	-999	-999	n/a	n/a	n/a	n/a	4	[0, 0, 0]	-999	PAL1	3	R1365N
533.208	0.0	534229	MATH_START	n/a	-999	-999	n/a	n/a	n/a	n/a	4	[0, 0, 0]	-999	PAL1	3	R1365N
533.208	0.015	534229	START	n/a	-999	-999	n/a	n/a	n/a	n/a	4	[-999, -999, -999]	-999	PAL1	3	R1365N
533.223	5.601	534244	PROB	5570	-999	-999	n/a	n/a	n/a	n/a	4	[8, 1, 3]	1	PAL1	3	R1365N
538.824	7.301	539845	PROB	7273	-999	-999	n/a	n/a	n/a	n/a	4	[5, 2, 8]	15	PAL1	3	R1365N
546.125	4.067	547146	PROB	4043	-999	-999	n/a	n/a	n/a	n/a	4	[6, 8, 2]	16	PAL1	3	R1365N
550.192	3.841	551212	PROB	3841	-999	-999	n/a	n/a	n/a	n/a	4	[8, 1, 5]	14	PAL1	3	R1365N
554.033	0.01	555053	STOP	n/a	-999	-999	n/a	n/a	n/a	n/a	4	[-999, -999, -999]	-999	PAL1	3	R1365N
554.043	0.674	555063	MATH_END	n/a	-999	-999	n/a	n/a	n/a	n/a	4	[0, 0, 0]	-999	PAL1	3	R1365N
554.717	0.001	555737	RETRIEVAL_START	n/a	-999	-999	n/a	n/a	n/a	n/a	4	[0, 0, 0]	-999	PAL1	3	R1365N
554.718	0.275	555738	ORIENT_START	n/a	-999	-999	n/a	n/a	n/a	n/a	4	[0, 0, 0]	-999	PAL1	3	R1365N
554.993	0.512	556013	ORIENT_END	n/a	-999	-999	n/a	n/a	n/a	n/a	4	[0, 0, 0]	-999	PAL1	3	R1365N
555.505	0.0	556525	REC_START	n/a	1	1	SWORD	HAWK	HAWK	SWORD	4	[0, 0, 0]	-999	PAL1	3	R1365N
555.505	4.038	556525	PROBE_START	n/a	1	1	SWORD	HAWK	HAWK	SWORD	4	[0, 0, 0]	-999	PAL1	3	R1365N
559.543	0.103	560563	PROBE_END	n/a	1	1	SWORD	n/a	HAWK	SWORD	4	[0, 0, 0]	-999	PAL1	3	R1365N
559.646	0.897	560666	REC_EVENT	4141	1	1	SWORD	HAWK	HAWK	SWORD	4	[0, 0, 0]	-999	PAL1	3	R1365N
560.543	0.012	561563	REC_END	n/a	1	1	SWORD	n/a	HAWK	SWORD	4	[0, 0, 0]	-999	PAL1	3	R1365N
560.555	0.273	561575	ORIENT_START	n/a	-999	-999	n/a	n/a	n/a	n/a	4	[0, 0, 0]	-999	PAL1	3	R1365N
560.828	0.738	561848	ORIENT_END	n/a	-999	-999	n/a	n/a	n/a	n/a	4	[0, 0, 0]	-999	PAL1	3	R1365N
561.566	0.001	562586	REC_START	n/a	4	2	BANK	n/a	BANK	SLIME	4	[0, 0, 0]	-999	PAL1	3	R1365N
561.567	4.027	562587	PROBE_START	n/a	4	2	BANK	n/a	BANK	SLIME	4	[0, 0, 0]	-999	PAL1	3	R1365N
565.594	0.512	566614	PROBE_END	n/a	4	2	BANK	n/a	BANK	SLIME	4	[0, 0, 0]	-999	PAL1	3	R1365N
566.106	0.488	567126	REC_EVENT	4539	4	2	BANK	<>	BANK	SLIME	4	[0, 0, 0]	-999	PAL1	3	R1365N
566.594	0.007	567614	REC_END	n/a	4	2	BANK	n/a	BANK	SLIME	4	[0, 0, 0]	-999	PAL1	3	R1365N
566.601	0.278	567621	ORIENT_START	n/a	-999	-999	n/a	n/a	n/a	n/a	4	[0, 0, 0]	-999	PAL1	3	R1365N
566.879	0.521	567899	ORIENT_END	n/a	-999	-999	n/a	n/a	n/a	n/a	4	[0, 0, 0]	-999	PAL1	3	R1365N
567.4	0.0	568420	REC_START	n/a	3	3	STOOL	BARN	BARN	STOOL	4	[0, 0, 0]	-999	PAL1	3	R1365N
567.4	3.136	568420	PROBE_START	n/a	3	3	STOOL	BARN	BARN	STOOL	4	[0, 0, 0]	-999	PAL1	3	R1365N
570.536	0.893	571556	REC_EVENT	3136	3	3	STOOL	BARN	BARN	STOOL	4	[0, 0, 0]	-999	PAL1	3	R1365N
571.429	0.999	572449	PROBE_END	n/a	3	3	STOOL	n/a	BARN	STOOL	4	[0, 0, 0]	-999	PAL1	3	R1365N
572.428	0.011	573448	REC_END	n/a	3	3	STOOL	n/a	BARN	STOOL	4	[0, 0, 0]	-999	PAL1	3	R1365N
572.439	0.274	573459	ORIENT_START	n/a	-999	-999	n/a	n/a	n/a	n/a	4	[0, 0, 0]	-999	PAL1	3	R1365N
572.713	0.737	573733	ORIENT_END	n/a	-999	-999	n/a	n/a	n/a	n/a	4	[0, 0, 0]	-999	PAL1	3	R1365N
573.45	0.001	574470	REC_START	n/a	6	4	ELF	DITCH	ELF	DITCH	4	[0, 0, 0]	-999	PAL1	3	R1365N
573.451	3.816	574471	PROBE_START	n/a	6	4	ELF	DITCH	ELF	DITCH	4	[0, 0, 0]	-999	PAL1	3	R1365N
577.267	0.212	578287	REC_EVENT	3816	6	4	ELF	DITCH	ELF	DITCH	4	[0, 0, 0]	-999	PAL1	3	R1365N
577.479	1.001	578499	PROBE_END	n/a	6	4	ELF	n/a	ELF	DITCH	4	[0, 0, 0]	-999	PAL1	3	R1365N
578.48	0.006	579500	REC_END	n/a	6	4	ELF	n/a	ELF	DITCH	4	[0, 0, 0]	-999	PAL1	3	R1365N
578.486	0.278	579506	ORIENT_START	n/a	-999	-999	n/a	n/a	n/a	n/a	4	[0, 0, 0]	-999	PAL1	3	R1365N
578.764	0.695	579784	ORIENT_END	n/a	-999	-999	n/a	n/a	n/a	n/a	4	[0, 0, 0]	-999	PAL1	3	R1365N
579.459	0.001	580479	REC_START	n/a	5	5	CORD	COW	CORD	PURSE	4	[0, 0, 0]	-999	PAL1	3	R1365N
579.46	4.037	580480	PROBE_START	n/a	5	5	CORD	COW	CORD	PURSE	4	[0, 0, 0]	-999	PAL1	3	R1365N
583.497	0.28	584516	PROBE_END	n/a	5	5	CORD	n/a	CORD	PURSE	4	[0, 0, 0]	-999	PAL1	3	R1365N
583.777	0.72	584796	REC_EVENT	4317	5	5	CORD	COW	CORD	PURSE	4	[0, 0, 0]	-999	PAL1	3	R1365N
584.497	0.013	585516	REC_END	n/a	5	5	CORD	n/a	CORD	PURSE	4	[0, 0, 0]	-999	PAL1	3	R1365N
584.51	0.272	585529	ORIENT_START	n/a	-999	-999	n/a	n/a	n/a	n/a	4	[0, 0, 0]	-999	PAL1	3	R1365N
584.782	0.689	585801	ORIENT_END	n/a	-999	-999	n/a	n/a	n/a	n/a	4	[0, 0, 0]	-999	PAL1	3	R1365N
585.471	0.0	586490	REC_START	n/a	2	6	HORN	n/a	COW	HORN	4	[0, 0, 0]	-999	PAL1	3	R1365N
585.471	3.74	586490	PROBE_START	n/a	2	6	HORN	n/a	COW	HORN	4	[0, 0, 0]	-999	PAL1	3	R1365N
589.211	0.287	590230	REC_EVENT	3740	2	6	HORN	<>	COW	HORN	4	[0, 0, 0]	-999	PAL1	3	R1365N
589.498	0.77	590517	PROBE_END	n/a	2	6	HORN	n/a	COW	HORN	4	[0, 0, 0]	-999	PAL1	3	R1365N
590.268	0.23	591287	REC_EVENT	4797	2	6	HORN	<>	COW	HORN	4	[0, 0, 0]	-999	PAL1	3	R1365N
590.498	0.011	591517	REC_END	n/a	2	6	HORN	n/a	COW	HORN	4	[0, 0, 0]	-999	PAL1	3	R1365N
590.509	0.0	591528	TRIAL_END	n/a	-999	-999	n/a	n/a	n/a	n/a	4	[0, 0, 0]	-999	PAL1	3	R1365N
590.509	0.02	591528	RETRIEVAL_END	n/a	-999	-999	n/a	n/a	n/a	n/a	4	[0, 0, 0]	-999	PAL1	3	R1365N
590.529	0.0	591548	TRIAL_START	n/a	-999	-999	n/a	n/a	n/a	n/a	4	[0, 0, 0]	-999	PAL1	3	R1365N
590.529	0.0	591548	TRIAL	n/a	-999	-999	n/a	n/a	n/a	n/a	5	[0, 0, 0]	-999	PAL1	3	R1365N
590.529	2.421	591548	WAITING_START	n/a	-999	-999	n/a	n/a	n/a	n/a	5	[0, 0, 0]	-999	PAL1	3	R1365N
592.95	0.0	593969	WAITING_END	n/a	-999	-999	n/a	n/a	n/a	n/a	5	[0, 0, 0]	-999	PAL1	3	R1365N
592.95	10.429	593969	COUNTDOWN_START	n/a	-999	-999	n/a	n/a	n/a	n/a	5	[0, 0, 0]	-999	PAL1	3	R1365N
603.379	0.001	604398	COUNTDOWN_END	n/a	-999	-999	n/a	n/a	n/a	n/a	5	[0, 0, 0]	-999	PAL1	3	R1365N
603.38	0.622	604399	ORIENT_START	n/a	-999	-999	n/a	n/a	n/a	n/a	5	[0, 0, 0]	-999	PAL1	3	R1365N
604.002	0.0	605021	ORIENT_END	n/a	-999	-999	n/a	n/a	n/a	n/a	5	[0, 0, 0]	-999	PAL1	3	R1365N
604.002	1.08	605021	ENCODING_START	n/a	-999	-999	n/a	n/a	n/a	n/a	5	[0, 0, 0]	-999	PAL1	3	R1365N
605.082	4.037	606101	STUDY_PAIR	n/a	1	-999	n/a	BOWL	BOWL	BOOK	5	[0, 0, 0]	-999	PAL1	3	R1365N
609.119	0.673	610138	STUDY_PAIR_OFF	n/a	1	-999	n/a	BOWL	BOWL	BOOK	5	[0, 0, 0]	-999	PAL1	3	R1365N
609.792	4.028	610810	STUDY_PAIR	n/a	2	-999	n/a	LEG	CROW	LEG	5	[0, 0, 0]	-999	PAL1	3	R1365N
613.82	0.626	614838	STUDY_PAIR_OFF	n/a	2	-999	n/a	LEG	CROW	LEG	5	[0, 0, 0]	-999	PAL1	3	R1365N
614.446	4.024	615464	STUDY_PAIR	n/a	3	-999	n/a	HAND	HAND	EAR	5	[0, 0, 0]	-999	PAL1	3	R1365N
618.47	0.519	619488	STUDY_PAIR_OFF	n/a	3	-999	n/a	HAND	HAND	EAR	5	[0, 0, 0]	-999	PAL1	3	R1365N
618.989	4.032	620007	STUDY_PAIR	n/a	4	-999	n/a	TEA	TEA	FLUTE	5	[0, 0, 0]	-999	PAL1	3	R1365N
623.021	0.61	624039	STUDY_PAIR_OFF	n/a	4	-999	n/a	TEA	TEA	FLUTE	5	[0, 0, 0]	-999	PAL1	3	R1365N
623.631	4.023	624649	STUDY_PAIR	n/a	5	-999	n/a	HOOK	JET	HEART	5	[0, 0, 0]	-999	PAL1	3	R1365N
627.654	0.736	628672	STUDY_PAIR_OFF	n/a	5	-999	n/a	HOOK	JET	HEART	5	[0, 0, 0]	-999	PAL1	3	R1365N
628.39	4.032	629408	STUDY_PAIR	n/a	6	-999	n/a	n/a	CLIFF	DOCK	5	[0, 0, 0]	-999	PAL1	3	R1365N
632.422	0.0	633440	STUDY_PAIR_OFF	n/a	6	-999	n/a	n/a	CLIFF	DOCK	5	[0, 0, 0]	-999	PAL1	3	R1365N
632.422	0.001	633440	ENCODING_END	n/a	-999	-999	n/a	n/a	n/a	n/a	5	[0, 0, 0]	-999	PAL1	3	R1365N
632.423	0.0	633441	MATH_START	n/a	-999	-999	n/a	n/a	n/a	n/a	5	[0, 0, 0]	-999	PAL1	3	R1365N
632.423	0.015	633441	START	n/a	-999	-999	n/a	n/a	n/a	n/a	5	[-999, -999, -999]	-999	PAL1	3	R1365N
632.438	5.786	633456	PROB	5763	-999	-999	n/a	n/a	n/a	n/a	5	[3, 9, 6]	18	PAL1	3	R1365N
638.224	4.584	639242	PROB	4561	-999	-999	n/a	n/a	n/a	n/a	5	[7, 2, 8]	17	PAL1	3	R1365N
642.808	4.75	643825	PROB	4711	-999	-999	n/a	n/a	n/a	n/a	5	[1, 7, 4]	12	PAL1	3	R1365N
647.558	3.701	648575	PROB	3675	-999	-999	n/a	n/a	n/a	n/a	5	[3, 1, 8]	12	PAL1	3	R1365N
651.259	3.534	652276	PROB	3534	-999	-999	n/a	n/a	n/a	n/a	5	[2, 7, 1]	10	PAL1	3	R1365N
654.793	0.017	655810	STOP	n/a	-999	-999	n/a	n/a	n/a	n/a	5	[-999, -999, -999]	-999	PAL1	3	R1365N
654.81	0.686	655827	MATH_END	n/a	-999	-999	n/a	n/a	n/a	n/a	5	[0, 0, 0]	-999	PAL1	3	R1365N
655.496	0.001	656513	RETRIEVAL_START	n/a	-999	-999	n/a	n/a	n/a	n/a	5	[0, 0, 0]	-999	PAL1	3	R1365N
655.497	0.28	656514	ORIENT_START	n/a	-999	-999	n/a	n/a	n/a	n/a	5	[0, 0, 0]	-999	PAL1	3	R1365N
655.777	0.584	656794	ORIENT_END	n/a	-999	-999	n/a	n/a	n/a	n/a	5	[0, 0, 0]	-999	PAL1	3	R1365N
656.361	0.001	657378	REC_START	n/a	3	1	EAR	HAND	HAND	EAR	5	[0, 0, 0]	-999	PAL1	3	R1365N
656.362	1.999	657379	PROBE_START	n/a	3	1	EAR	HAND	HAND	EAR	5	[0, 0, 0]	-999	PAL1	3	R1365N
658.361	2.032	659378	REC_EVENT	1999	3	1	EAR	HAND	HAND	EAR	5	[0, 0, 0]	-999	PAL1	3	R1365N
660.393	1.0	661410	PROBE_END	n/a	3	1	EAR	n/a	HAND	EAR	5	[0, 0, 0]	-999	PAL1	3	R1365N
661.393	0.012	662410	REC_END	n/a	3	1	EAR	n/a	HAND	EAR	5	[0, 0, 0]	-999	PAL1	3	R1365N
661.405	0.273	662422	ORIENT_START	n/a	-999	-999	n/a	n/a	n/a	n/a	5	[0, 0, 0]	-999	PAL1	3	R1365N
661.678	0.635	662695	ORIENT_END	n/a	-999	-999	n/a	n/a	n/a	n/a	5	[0, 0, 0]	-999	PAL1	3	R1365N
662.313	0.0	663330	REC_START	n/a	4	2	FLUTE	TEA	TEA	FLUTE	5	[0, 0, 0]	-999	PAL1	3	R1365N
662.313	2.118	663330	PROBE_START	n/a	4	2	FLUTE	TEA	TEA	FLUTE	5	[0, 0, 0]	-999	PAL1	3	R1365N
664.431	1.913	665448	REC_EVENT	2118	4	2	FLUTE	TEA	TEA	FLUTE	5	[0, 0, 0]	-999	PAL1	3	R1365N
666.344	1.001	667361	PROBE_END	n/a	4	2	FLUTE	n/a	TEA	FLUTE	5	[0, 0, 0]	-999	PAL1	3	R1365N
667.345	0.012	668362	REC_END	n/a	4	2	FLUTE	n/a	TEA	FLUTE	5	[0, 0, 0]	-999	PAL1	3	R1365N
667.357	0.271	668374	ORIENT_START	n/a	-999	-999	n/a	n/a	n/a	n/a	5	[0, 0, 0]	-999	PAL1	3	R1365N
667.628	0.695	668645	ORIENT_END	n/a	-999	-999	n/a	n/a	n/a	n/a	5	[0, 0, 0]	-999	PAL1	3	R1365N
668.323	0.0	669340	PROBE_START	n/a	1	3	BOOK	BOWL	BOWL	BOOK	5	[0, 0, 0]	-999	PAL1	3	R1365N
668.323	2.051	669340	REC_START	n/a	1	3	BOOK	BOWL	BOWL	BOOK	5	[0, 0, 0]	-999	PAL1	3	R1365N
670.374	1.988	671390	REC_EVENT	2051	1	3	BOOK	BOWL	BOWL	BOOK	5	[0, 0, 0]	-999	PAL1	3	R1365N
672.362	1.0	673378	PROBE_END	n/a	1	3	BOOK	n/a	BOWL	BOOK	5	[0, 0, 0]	-999	PAL1	3	R1365N
673.362	0.013	674378	REC_END	n/a	1	3	BOOK	n/a	BOWL	BOOK	5	[0, 0, 0]	-999	PAL1	3	R1365N
673.375	0.27	674391	ORIENT_START	n/a	-999	-999	n/a	n/a	n/a	n/a	5	[0, 0, 0]	-999	PAL1	3	R1365N
673.645	0.579	674661	ORIENT_END	n/a	-999	-999	n/a	n/a	n/a	n/a	5	[0, 0, 0]	-999	PAL1	3	R1365N
674.224	0.001	675240	REC_START	n/a	6	4	CLIFF	n/a	CLIFF	DOCK	5	[0, 0, 0]	-999	PAL1	3	R1365N
674.225	4.022	675241	PROBE_START	n/a	6	4	CLIFF	n/a	CLIFF	DOCK	5	[0, 0, 0]	-999	PAL1	3	R1365N
678.247	1.0	679263	PROBE_END	n/a	6	4	CLIFF	n/a	CLIFF	DOCK	5	[0, 0, 0]	-999	PAL1	3	R1365N
679.247	0.011	680263	REC_END	n/a	6	4	CLIFF	n/a	CLIFF	DOCK	5	[0, 0, 0]	-999	PAL1	3	R1365N
679.258	0.272	680274	ORIENT_START	n/a	-999	-999	n/a	n/a	n/a	n/a	5	[0, 0, 0]	-999	PAL1	3	R1365N
679.53	0.569	680546	ORIENT_END	n/a	-999	-999	n/a	n/a	n/a	n/a	5	[0, 0, 0]	-999	PAL1	3	R1365N
680.099	0.047	681115	REC_EVENT	5874	6	4	CLIFF	<>	CLIFF	DOCK	5	[0, 0, 0]	-999	PAL1	3	R1365N
680.146	0.001	681162	REC_START	n/a	5	5	JET	HOOK	JET	HEART	5	[0, 0, 0]	-999	PAL1	3	R1365N
680.147	3.055	681163	PROBE_START	n/a	5	5	JET	HOOK	JET	HEART	5	[0, 0, 0]	-999	PAL1	3	R1365N
683.202	0.979	684218	REC_EVENT	3055	5	5	JET	HOOK	JET	HEART	5	[0, 0, 0]	-999	PAL1	3	R1365N
684.181	1.001	685197	PROBE_END	n/a	5	5	JET	n/a	JET	HEART	5	[0, 0, 0]	-999	PAL1	3	R1365N
685.182	0.011	686198	REC_END	n/a	5	5	JET	n/a	JET	HEART	5	[0, 0, 0]	-999	PAL1	3	R1365N
685.193	0.271	686209	ORIENT_START	n/a	-999	-999	n/a	n/a	n/a	n/a	5	[0, 0, 0]	-999	PAL1	3	R1365N
685.464	0.553	686480	ORIENT_END	n/a	-999	-999	n/a	n/a	n/a	n/a	5	[0, 0, 0]	-999	PAL1	3	R1365N
686.017	0.0	687033	REC_START	n/a	2	6	CROW	LEG	CROW	LEG	5	[0, 0, 0]	-999	PAL1	3	R1365N
686.017	2.525	687033	PROBE_START	n/a	2	6	CROW	LEG	CROW	LEG	5	[0, 0, 0]	-999	PAL1	3	R1365N
688.542	1.507	689558	REC_EVENT	2525	2	6	CROW	LEG	CROW	LEG	5	[0, 0, 0]	-999	PAL1	3	R1365N
690.049	1.0	691065	PROBE_END	n/a	2	6	CROW	n/a	CROW	LEG	5	[0, 0, 0]	-999	PAL1	3	R1365N
691.049	0.01	692065	REC_END	n/a	2	6	CROW	n/a	CROW	LEG	5	[0, 0, 0]	-999	PAL1	3	R1365N
691.059	0.0	692075	RETRIEVAL_END	n/a	-999	-999	n/a	n/a	n/a	n/a	5	[0, 0, 0]	-999	PAL1	3	R1365N
691.059	0.02	692075	TRIAL_END	n/a	-999	-999	n/a	n/a	n/a	n/a	5	[0, 0, 0]	-999	PAL1	3	R1365N
691.079	0.0	692095	WAITING_START	n/a	-999	-999	n/a	n/a	n/a	n/a	6	[0, 0, 0]	-999	PAL1	3	R1365N
691.079	0.0	692095	TRIAL	n/a	-999	-999	n/a	n/a	n/a	n/a	6	[0, 0, 0]	-999	PAL1	3	R1365N
691.079	1.469	692095	TRIAL_START	n/a	-999	-999	n/a	n/a	n/a	n/a	5	[0, 0, 0]	-999	PAL1	3	R1365N
692.548	0.001	693564	WAITING_END	n/a	-999	-999	n/a	n/a	n/a	n/a	6	[0, 0, 0]	-999	PAL1	3	R1365N
692.549	10.429	693565	COUNTDOWN_START	n/a	-999	-999	n/a	n/a	n/a	n/a	6	[0, 0, 0]	-999	PAL1	3	R1365N
702.978	0.0	703993	COUNTDOWN_END	n/a	-999	-999	n/a	n/a	n/a	n/a	6	[0, 0, 0]	-999	PAL1	3	R1365N
702.978	0.672	703993	ORIENT_START	n/a	-999	-999	n/a	n/a	n/a	n/a	6	[0, 0, 0]	-999	PAL1	3	R1365N
703.65	0.001	704665	ORIENT_END	n/a	-999	-999	n/a	n/a	n/a	n/a	6	[0, 0, 0]	-999	PAL1	3	R1365N
703.651	1.108	704666	ENCODING_START	n/a	-999	-999	n/a	n/a	n/a	n/a	6	[0, 0, 0]	-999	PAL1	3	R1365N
704.759	4.027	705774	STUDY_PAIR	n/a	1	-999	n/a	TOE	TOE	TRASH	6	[0, 0, 0]	-999	PAL1	3	R1365N
708.786	0.544	709801	STUDY_PAIR_OFF	n/a	1	-999	n/a	TOE	TOE	TRASH	6	[0, 0, 0]	-999	PAL1	3	R1365N
709.33	4.039	710345	STUDY_PAIR	n/a	2	-999	n/a	HOLE	POLE	NOSE	6	[0, 0, 0]	-999	PAL1	3	R1365N
713.369	0.718	714384	STUDY_PAIR_OFF	n/a	2	-999	n/a	HOLE	POLE	NOSE	6	[0, 0, 0]	-999	PAL1	3	R1365N
714.087	4.033	715102	STUDY_PAIR	n/a	3	-999	n/a	n/a	WAVE	STEAK	6	[0, 0, 0]	-999	PAL1	3	R1365N
718.12	0.733	719135	STUDY_PAIR_OFF	n/a	3	-999	n/a	n/a	WAVE	STEAK	6	[0, 0, 0]	-999	PAL1	3	R1365N
718.853	4.035	719868	STUDY_PAIR	n/a	4	-999	n/a	INK	STAR	INK	6	[0, 0, 0]	-999	PAL1	3	R1365N
722.888	0.579	723903	STUDY_PAIR_OFF	n/a	4	-999	n/a	INK	STAR	INK	6	[0, 0, 0]	-999	PAL1	3	R1365N
723.467	4.037	724482	STUDY_PAIR	n/a	5	-999	n/a	n/a	COUCH	SLUSH	6	[0, 0, 0]	-999	PAL1	3	R1365N
727.504	0.689	728519	STUDY_PAIR_OFF	n/a	5	-999	n/a	n/a	COUCH	SLUSH	6	[0, 0, 0]	-999	PAL1	3	R1365N
728.193	4.03	729208	STUDY_PAIR	n/a	6	-999	n/a	n/a	CHALK	OAR	6	[0, 0, 0]	-999	PAL1	3	R1365N
732.223	0.0	733237	STUDY_PAIR_OFF	n/a	6	-999	n/a	n/a	CHALK	OAR	6	[0, 0, 0]	-999	PAL1	3	R1365N
732.223	0.0	733237	ENCODING_END	n/a	-999	-999	n/a	n/a	n/a	n/a	6	[0, 0, 0]	-999	PAL1	3	R1365N
732.223	0.001	733237	MATH_START	n/a	-999	-999	n/a	n/a	n/a	n/a	6	[0, 0, 0]	-999	PAL1	3	R1365N
732.224	0.015	733238	START	n/a	-999	-999	n/a	n/a	n/a	n/a	6	[-999, -999, -999]	-999	PAL1	3	R1365N
732.239	3.183	733253	PROB	3152	-999	-999	n/a	n/a	n/a	n/a	6	[1, 8, 2]	11	PAL1	3	R1365N
735.422	4.201	736436	PROB	4178	-999	-999	n/a	n/a	n/a	n/a	6	[2, 5, 1]	8	PAL1	3	R1365N
739.623	3.9	740637	PROB	3873	-999	-999	n/a	n/a	n/a	n/a	6	[6, 4, 5]	15	PAL1	3	R1365N
743.523	6.686	744537	PROB	6661	-999	-999	n/a	n/a	n/a	n/a	6	[7, 2, 6]	15	PAL1	3	R1365N
750.209	8.832	751223	PROB	8832	-999	-999	n/a	n/a	n/a	n/a	6	[2, 6, 7]	15	PAL1	3	R1365N
759.041	0.02	760055	STOP	n/a	-999	-999	n/a	n/a	n/a	n/a	6	[-999, -999, -999]	-999	PAL1	3	R1365N
759.061	0.547	760075	MATH_END	n/a	-999	-999	n/a	n/a	n/a	n/a	6	[0, 0, 0]	-999	PAL1	3	R1365N
759.608	0.001	760622	RETRIEVAL_START	n/a	-999	-999	n/a	n/a	n/a	n/a	6	[0, 0, 0]	-999	PAL1	3	R1365N
759.609	0.285	760623	ORIENT_START	n/a	-999	-999	n/a	n/a	n/a	n/a	6	[0, 0, 0]	-999	PAL1	3	R1365N
759.894	0.58	760907	ORIENT_END	n/a	-999	-999	n/a	n/a	n/a	n/a	6	[0, 0, 0]	-999	PAL1	3	R1365N
760.474	0.0	761487	REC_START	n/a	5	1	COUCH	n/a	COUCH	SLUSH	6	[0, 0, 0]	-999	PAL1	3	R1365N
760.474	4.036	761487	PROBE_START	n/a	5	1	COUCH	n/a	COUCH	SLUSH	6	[0, 0, 0]	-999	PAL1	3	R1365N
764.51	1.001	765523	PROBE_END	n/a	5	1	COUCH	n/a	COUCH	SLUSH	6	[0, 0, 0]	-999	PAL1	3	R1365N
765.511	0.011	766524	REC_END	n/a	5	1	COUCH	n/a	COUCH	SLUSH	6	[0, 0, 0]	-999	PAL1	3	R1365N
765.522	0.273	766535	ORIENT_START	n/a	-999	-999	n/a	n/a	n/a	n/a	6	[0, 0, 0]	-999	PAL1	3	R1365N
765.795	0.582	766808	ORIENT_END	n/a	-999	-999	n/a	n/a	n/a	n/a	6	[0, 0, 0]	-999	PAL1	3	R1365N
766.377	0.003	767390	REC_EVENT	5903	5	1	COUCH	<>	COUCH	SLUSH	6	[0, 0, 0]	-999	PAL1	3	R1365N
766.38	0.0	767393	REC_START	n/a	2	2	NOSE	HOLE	POLE	NOSE	6	[0, 0, 0]	-999	PAL1	3	R1365N
766.38	2.141	767393	PROBE_START	n/a	2	2	NOSE	HOLE	POLE	NOSE	6	[0, 0, 0]	-999	PAL1	3	R1365N
768.521	1.89	769534	REC_EVENT	2141	2	2	NOSE	HOLE	POLE	NOSE	6	[0, 0, 0]	-999	PAL1	3	R1365N
770.411	1.001	771424	PROBE_END	n/a	2	2	NOSE	n/a	POLE	NOSE	6	[0, 0, 0]	-999	PAL1	3	R1365N
771.412	0.012	772425	REC_END	n/a	2	2	NOSE	n/a	POLE	NOSE	6	[0, 0, 0]	-999	PAL1	3	R1365N
771.424	0.272	772437	ORIENT_START	n/a	-999	-999	n/a	n/a	n/a	n/a	6	[0, 0, 0]	-999	PAL1	3	R1365N
771.696	0.595	772709	ORIENT_END	n/a	-999	-999	n/a	n/a	n/a	n/a	6	[0, 0, 0]	-999	PAL1	3	R1365N
772.291	0.0	773304	REC_START	n/a	1	3	TRASH	TOE	TOE	TRASH	6	[0, 0, 0]	-999	PAL1	3	R1365N
772.291	1.889	773304	PROBE_START	n/a	1	3	TRASH	TOE	TOE	TRASH	6	[0, 0, 0]	-999	PAL1	3	R1365N
774.18	2.149	775193	REC_EVENT	1889	1	3	TRASH	TOE	TOE	TRASH	6	[0, 0, 0]	-999	PAL1	3	R1365N
776.329	1.001	777342	PROBE_END	n/a	1	3	TRASH	n/a	TOE	TRASH	6	[0, 0, 0]	-999	PAL1	3	R1365N
777.33	0.011	778343	REC_END	n/a	1	3	TRASH	n/a	TOE	TRASH	6	[0, 0, 0]	-999	PAL1	3	R1365N
777.341	0.272	778354	ORIENT_START	n/a	-999	-999	n/a	n/a	n/a	n/a	6	[0, 0, 0]	-999	PAL1	3	R1365N
777.613	0.585	778626	ORIENT_END	n/a	-999	-999	n/a	n/a	n/a	n/a	6	[0, 0, 0]	-999	PAL1	3	R1365N
778.198	0.0	779211	REC_START	n/a	6	4	CHALK	n/a	CHALK	OAR	6	[0, 0, 0]	-999	PAL1	3	R1365N
778.198	2.159	779211	PROBE_START	n/a	6	4	CHALK	n/a	CHALK	OAR	6	[0, 0, 0]	-999	PAL1	3	R1365N
780.357	1.874	781370	REC_EVENT	2159	6	4	CHALK	<>	CHALK	OAR	6	[0, 0, 0]	-999	PAL1	3	R1365N
782.231	1.0	783244	PROBE_END	n/a	6	4	CHALK	n/a	CHALK	OAR	6	[0, 0, 0]	-999	PAL1	3	R1365N
783.231	0.011	784244	REC_END	n/a	6	4	CHALK	n/a	CHALK	OAR	6	[0, 0, 0]	-999	PAL1	3	R1365N
783.242	0.272	784255	ORIENT_START	n/a	-999	-999	n/a	n/a	n/a	n/a	6	[0, 0, 0]	-999	PAL1	3	R1365N
783.514	0.68	784527	ORIENT_END	n/a	-999	-999	n/a	n/a	n/a	n/a	6	[0, 0, 0]	-999	PAL1	3	R1365N
784.194	0.0	785207	REC_START	n/a	3	5	STEAK	n/a	WAVE	STEAK	6	[0, 0, 0]	-999	PAL1	3	R1365N
784.194	4.038	785207	PROBE_START	n/a	3	5	STEAK	n/a	WAVE	STEAK	6	[0, 0, 0]	-999	PAL1	3	R1365N
788.232	1.0	789245	PROBE_END	n/a	3	5	STEAK	n/a	WAVE	STEAK	6	[0, 0, 0]	-999	PAL1	3	R1365N
789.232	0.011	790245	REC_END	n/a	3	5	STEAK	n/a	WAVE	STEAK	6	[0, 0, 0]	-999	PAL1	3	R1365N
789.243	0.272	790256	ORIENT_START	n/a	-999	-999	n/a	n/a	n/a	n/a	6	[0, 0, 0]	-999	PAL1	3	R1365N
789.515	0.644	790528	ORIENT_END	n/a	-999	-999	n/a	n/a	n/a	n/a	6	[0, 0, 0]	-999	PAL1	3	R1365N
790.159	0.0	791171	PROBE_START	n/a	4	6	STAR	INK	STAR	INK	6	[0, 0, 0]	-999	PAL1	3	R1365N
790.159	0.025	791171	REC_START	n/a	4	6	STAR	INK	STAR	INK	6	[0, 0, 0]	-999	PAL1	3	R1365N
790.184	3.649	791196	REC_EVENT	5990	3	5	STEAK	<>	WAVE	STEAK	6	[0, 0, 0]	-999	PAL1	3	R1365N
793.833	0.35	794845	REC_EVENT	3674	4	6	STAR	INK	STAR	INK	6	[0, 0, 0]	-999	PAL1	3	R1365N
794.183	1.0	795195	PROBE_END	n/a	4	6	STAR	n/a	STAR	INK	6	[0, 0, 0]	-999	PAL1	3	R1365N
795.183	0.01	796195	REC_END	n/a	4	6	STAR	n/a	STAR	INK	6	[0, 0, 0]	-999	PAL1	3	R1365N
795.193	0.0	796205	RETRIEVAL_END	n/a	-999	-999	n/a	n/a	n/a	n/a	6	[0, 0, 0]	-999	PAL1	3	R1365N
795.193	0.052	796205	TRIAL_END	n/a	-999	-999	n/a	n/a	n/a	n/a	6	[0, 0, 0]	-999	PAL1	3	R1365N
795.245	0.0	796257	TRIAL_START	n/a	-999	-999	n/a	n/a	n/a	n/a	6	[0, 0, 0]	-999	PAL1	3	R1365N
795.245	0.001	796257	TRIAL	n/a	-999	-999	n/a	n/a	n/a	n/a	7	[0, 0, 0]	-999	PAL1	3	R1365N
795.246	3.521	796258	WAITING_START	n/a	-999	-999	n/a	n/a	n/a	n/a	7	[0, 0, 0]	-999	PAL1	3	R1365N
798.767	0.0	799779	WAITING_END	n/a	-999	-999	n/a	n/a	n/a	n/a	7	[0, 0, 0]	-999	PAL1	3	R1365N
798.767	10.43	799779	COUNTDOWN_START	n/a	-999	-999	n/a	n/a	n/a	n/a	7	[0, 0, 0]	-999	PAL1	3	R1365N
809.197	0.0	810209	ORIENT_START	n/a	-999	-999	n/a	n/a	n/a	n/a	7	[0, 0, 0]	-999	PAL1	3	R1365N
809.197	0.739	810209	COUNTDOWN_END	n/a	-999	-999	n/a	n/a	n/a	n/a	7	[0, 0, 0]	-999	PAL1	3	R1365N
809.936	0.0	810948	ORIENT_END	n/a	-999	-999	n/a	n/a	n/a	n/a	7	[0, 0, 0]	-999	PAL1	3	R1365N
809.936	1.077	810948	ENCODING_START	n/a	-999	-999	n/a	n/a	n/a	n/a	7	[0, 0, 0]	-999	PAL1	3	R1365N
811.013	4.04	812025	STUDY_PAIR	n/a	1	-999	n/a	n/a	POND	LAWN	7	[0, 0, 0]	-999	PAL1	3	R1365N
815.053	0.59	816065	STUDY_PAIR_OFF	n/a	1	-999	n/a	n/a	POND	LAWN	7	[0, 0, 0]	-999	PAL1	3	R1365N
815.643	4.028	816655	STUDY_PAIR	n/a	2	-999	n/a	n/a	SQUARE	SNAKE	7	[0, 0, 0]	-999	PAL1	3	R1365N
819.671	0.733	820682	STUDY_PAIR_OFF	n/a	2	-999	n/a	n/a	SQUARE	SNAKE	7	[0, 0, 0]	-999	PAL1	3	R1365N
820.404	4.033	821415	STUDY_PAIR	n/a	3	-999	n/a	n/a	THUMB	DART	7	[0, 0, 0]	-999	PAL1	3	R1365N
824.437	0.544	825448	STUDY_PAIR_OFF	n/a	3	-999	n/a	n/a	THUMB	DART	7	[0, 0, 0]	-999	PAL1	3	R1365N
824.981	4.024	825992	STUDY_PAIR	n/a	4	-999	n/a	PEN	PIN	BRIDGE	7	[0, 0, 0]	-999	PAL1	3	R1365N
829.005	0.613	830016	STUDY_PAIR_OFF	n/a	4	-999	n/a	PEN	PIN	BRIDGE	7	[0, 0, 0]	-999	PAL1	3	R1365N
829.618	4.037	830629	STUDY_PAIR	n/a	5	-999	n/a	FOX	SPRING	FOX	7	[0, 0, 0]	-999	PAL1	3	R1365N
833.655	0.547	834666	STUDY_PAIR_OFF	n/a	5	-999	n/a	FOX	SPRING	FOX	7	[0, 0, 0]	-999	PAL1	3	R1365N
834.202	4.038	835213	STUDY_PAIR	n/a	6	-999	n/a	CROWN	GEESE	CROWN	7	[0, 0, 0]	-999	PAL1	3	R1365N
838.24	0.001	839251	STUDY_PAIR_OFF	n/a	6	-999	n/a	CROWN	GEESE	CROWN	7	[0, 0, 0]	-999	PAL1	3	R1365N
838.241	0.0	839252	ENCODING_END	n/a	-999	-999	n/a	n/a	n/a	n/a	7	[0, 0, 0]	-999	PAL1	3	R1365N
838.241	0.001	839252	MATH_START	n/a	-999	-999	n/a	n/a	n/a	n/a	7	[0, 0, 0]	-999	PAL1	3	R1365N
838.242	0.015	839253	START	n/a	-999	-999	n/a	n/a	n/a	n/a	7	[-999, -999, -999]	-999	PAL1	3	R1365N
838.257	5.534	839268	PROB	5503	-999	-999	n/a	n/a	n/a	n/a	7	[7, 4, 5]	16	PAL1	3	R1365N
843.791	5.201	844802	PROB	5177	-999	-999	n/a	n/a	n/a	n/a	7	[9, 7, 2]	18	PAL1	3	R1365N
848.992	4.917	850003	PROB	4881	-999	-999	n/a	n/a	n/a	n/a	7	[1, 5, 7]	13	PAL1	3	R1365N
853.909	3.818	854919	PROB	3780	-999	-999	n/a	n/a	n/a	n/a	7	[8, 5, 2]	15	PAL1	3	R1365N
857.727	5.185	858737	PROB	5185	-999	-999	n/a	n/a	n/a	n/a	7	[8, 5, 3]	16	PAL1	3	R1365N
862.912	0.016	863922	STOP	n/a	-999	-999	n/a	n/a	n/a	n/a	7	[-999, -999, -999]	-999	PAL1	3	R1365N
862.928	0.584	863938	MATH_END	n/a	-999	-999	n/a	n/a	n/a	n/a	7	[0, 0, 0]	-999	PAL1	3	R1365N
863.512	0.002	864522	RETRIEVAL_START	n/a	-999	-999	n/a	n/a	n/a	n/a	7	[0, 0, 0]	-999	PAL1	3	R1365N
863.514	0.281	864524	ORIENT_START	n/a	-999	-999	n/a	n/a	n/a	n/a	7	[0, 0, 0]	-999	PAL1	3	R1365N
863.795	0.749	864805	ORIENT_END	n/a	-999	-999	n/a	n/a	n/a	n/a	7	[0, 0, 0]	-999	PAL1	3	R1365N
864.544	0.0	865554	REC_START	n/a	1	1	POND	n/a	POND	LAWN	7	[0, 0, 0]	-999	PAL1	3	R1365N
864.544	2.958	865554	PROBE_START	n/a	1	1	POND	n/a	POND	LAWN	7	[0, 0, 0]	-999	PAL1	3	R1365N
867.502	0.47	868512	REC_EVENT	2958	1	1	POND	<>	POND	LAWN	7	[0, 0, 0]	-999	PAL1	3	R1365N
867.972	0.606	868982	REC_EVENT	3428	1	1	POND	<>	POND	LAWN	7	[0, 0, 0]	-999	PAL1	3	R1365N
868.578	0.999	869588	PROBE_END	n/a	1	1	POND	n/a	POND	LAWN	7	[0, 0, 0]	-999	PAL1	3	R1365N
869.577	0.007	870587	REC_END	n/a	1	1	POND	n/a	POND	LAWN	7	[0, 0, 0]	-999	PAL1	3	R1365N
869.584	0.278	870594	ORIENT_START	n/a	-999	-999	n/a	n/a	n/a	n/a	7	[0, 0, 0]	-999	PAL1	3	R1365N
869.862	0.522	870872	ORIENT_END	n/a	-999	-999	n/a	n/a	n/a	n/a	7	[0, 0, 0]	-999	PAL1	3	R1365N
870.384	0.0	871394	REC_START	n/a	2	2	SNAKE	n/a	SQUARE	SNAKE	7	[0, 0, 0]	-999	PAL1	3	R1365N
870.384	4.028	871394	PROBE_START	n/a	2	2	SNAKE	n/a	SQUARE	SNAKE	7	[0, 0, 0]	-999	PAL1	3	R1365N
874.412	1.001	875422	PROBE_END	n/a	2	2	SNAKE	n/a	SQUARE	SNAKE	7	[0, 0, 0]	-999	PAL1	3	R1365N
875.413	0.01	876423	REC_END	n/a	2	2	SNAKE	n/a	SQUARE	SNAKE	7	[0, 0, 0]	-999	PAL1	3	R1365N
875.423	0.273	876433	ORIENT_START	n/a	-999	-999	n/a	n/a	n/a	n/a	7	[0, 0, 0]	-999	PAL1	3	R1365N
875.696	0.516	876706	ORIENT_END	n/a	-999	-999	n/a	n/a	n/a	n/a	7	[0, 0, 0]	-999	PAL1	3	R1365N
876.212	0.159	877222	REC_EVENT	5828	2	2	SNAKE	<>	SQUARE	SNAKE	7	[0, 0, 0]	-999	PAL1	3	R1365N
876.371	0.0	877381	REC_START	n/a	5	3	SPRING	FOX	SPRING	FOX	7	[0, 0, 0]	-999	PAL1	3	R1365N
876.371	2.046	877381	PROBE_START	n/a	5	3	SPRING	FOX	SPRING	FOX	7	[0, 0, 0]	-999	PAL1	3	R1365N
878.417	1.979	879427	REC_EVENT	2046	5	3	SPRING	FOX	SPRING	FOX	7	[0, 0, 0]	-999	PAL1	3	R1365N
880.396	1.0	881405	PROBE_END	n/a	5	3	SPRING	n/a	SPRING	FOX	7	[0, 0, 0]	-999	PAL1	3	R1365N
881.396	0.013	882405	REC_END	n/a	5	3	SPRING	n/a	SPRING	FOX	7	[0, 0, 0]	-999	PAL1	3	R1365N
881.409	0.272	882418	ORIENT_START	n/a	-999	-999	n/a	n/a	n/a	n/a	7	[0, 0, 0]	-999	PAL1	3	R1365N
881.681	0.618	882690	ORIENT_END	n/a	-999	-999	n/a	n/a	n/a	n/a	7	[0, 0, 0]	-999	PAL1	3	R1365N
882.299	0.0	883308	REC_START	n/a	4	4	BRIDGE	PEN	PIN	BRIDGE	7	[0, 0, 0]	-999	PAL1	3	R1365N
882.299	2.817	883308	PROBE_START	n/a	4	4	BRIDGE	PEN	PIN	BRIDGE	7	[0, 0, 0]	-999	PAL1	3	R1365N
885.116	1.215	886125	REC_EVENT	2817	4	4	BRIDGE	PEN	PIN	BRIDGE	7	[0, 0, 0]	-999	PAL1	3	R1365N
886.331	1.0	887340	PROBE_END	n/a	4	4	BRIDGE	n/a	PIN	BRIDGE	7	[0, 0, 0]	-999	PAL1	3	R1365N
887.331	0.011	888340	REC_END	n/a	4	4	BRIDGE	n/a	PIN	BRIDGE	7	[0, 0, 0]	-999	PAL1	3	R1365N
887.342	0.272	888351	ORIENT_START	n/a	-999	-999	n/a	n/a	n/a	n/a	7	[0, 0, 0]	-999	PAL1	3	R1365N
887.614	0.591	888623	ORIENT_END	n/a	-999	-999	n/a	n/a	n/a	n/a	7	[0, 0, 0]	-999	PAL1	3	R1365N
888.205	0.0	889214	REC_START	n/a	3	5	DART	n/a	THUMB	DART	7	[0, 0, 0]	-999	PAL1	3	R1365N
888.205	4.028	889214	PROBE_START	n/a	3	5	DART	n/a	THUMB	DART	7	[0, 0, 0]	-999	PAL1	3	R1365N
892.233	1.0	893242	PROBE_END	n/a	3	5	DART	n/a	THUMB	DART	7	[0, 0, 0]	-999	PAL1	3	R1365N
893.233	0.011	894242	REC_END	n/a	3	5	DART	n/a	THUMB	DART	7	[0, 0, 0]	-999	PAL1	3	R1365N
893.244	0.271	894253	ORIENT_START	n/a	-999	-999	n/a	n/a	n/a	n/a	7	[0, 0, 0]	-999	PAL1	3	R1365N
893.515	0.536	894524	ORIENT_END	n/a	-999	-999	n/a	n/a	n/a	n/a	7	[0, 0, 0]	-999	PAL1	3	R1365N
894.051	0.001	895060	REC_START	n/a	6	6	GEESE	CROWN	GEESE	CROWN	7	[0, 0, 0]	-999	PAL1	3	R1365N
894.052	0.045	895061	PROBE_START	n/a	6	6	GEESE	CROWN	GEESE	CROWN	7	[0, 0, 0]	-999	PAL1	3	R1365N
894.097	1.89	895106	REC_EVENT	5892	3	5	DART	<>	THUMB	DART	7	[0, 0, 0]	-999	PAL1	3	R1365N
895.987	2.097	896996	REC_EVENT	1935	6	6	GEESE	CROWN	GEESE	CROWN	7	[0, 0, 0]	-999	PAL1	3	R1365N
898.084	1.0	899093	PROBE_END	n/a	6	6	GEESE	n/a	GEESE	CROWN	7	[0, 0, 0]	-999	PAL1	3	R1365N
899.084	0.01	900093	REC_END	n/a	6	6	GEESE	n/a	GEESE	CROWN	7	[0, 0, 0]	-999	PAL1	3	R1365N
899.094	0.0	900103	RETRIEVAL_END	n/a	-999	-999	n/a	n/a	n/a	n/a	7	[0, 0, 0]	-999	PAL1	3	R1365N
899.094	0.022	900103	TRIAL_END	n/a	-999	-999	n/a	n/a	n/a	n/a	7	[0, 0, 0]	-999	PAL1	3	R1365N
899.116	0.0	900125	WAITING_START	n/a	-999	-999	n/a	n/a	n/a	n/a	8	[0, 0, 0]	-999	PAL1	3	R1365N
899.116	0.0	900125	TRIAL_START	n/a	-999	-999	n/a	n/a	n/a	n/a	7	[0, 0, 0]	-999	PAL1	3	R1365N
899.116	2.001	900125	TRIAL	n/a	-999	-999	n/a	n/a	n/a	n/a	8	[0, 0, 0]	-999	PAL1	3	R1365N
901.117	0.001	902126	WAITING_END	n/a	-999	-999	n/a	n/a	n/a	n/a	8	[0, 0, 0]	-999	PAL1	3	R1365N
901.118	10.429	902127	COUNTDOWN_START	n/a	-999	-999	n/a	n/a	n/a	n/a	8	[0, 0, 0]	-999	PAL1	3	R1365N
911.547	0.001	912555	COUNTDOWN_END	n/a	-999	-999	n/a	n/a	n/a	n/a	8	[0, 0, 0]	-999	PAL1	3	R1365N
911.548	0.555	912556	ORIENT_START	n/a	-999	-999	n/a	n/a	n/a	n/a	8	[0, 0, 0]	-999	PAL1	3	R1365N
912.103	0.0	913111	ORIENT_END	n/a	-999	-999	n/a	n/a	n/a	n/a	8	[0, 0, 0]	-999	PAL1	3	R1365N
912.103	1.126	913111	ENCODING_START	n/a	-999	-999	n/a	n/a	n/a	n/a	8	[0, 0, 0]	-999	PAL1	3	R1365N
913.229	4.024	914237	STUDY_PAIR	n/a	1	-999	n/a	BOX	ICE	BOX	8	[0, 0, 0]	-999	PAL1	3	R1365N
917.253	0.691	918261	STUDY_PAIR_OFF	n/a	1	-999	n/a	BOX	ICE	BOX	8	[0, 0, 0]	-999	PAL1	3	R1365N
917.944	4.027	918952	STUDY_PAIR	n/a	2	-999	n/a	CAKE	MAP	BREAD	8	[0, 0, 0]	-999	PAL1	3	R1365N
921.971	0.65	922979	STUDY_PAIR_OFF	n/a	2	-999	n/a	CAKE	MAP	BREAD	8	[0, 0, 0]	-999	PAL1	3	R1365N
922.621	4.033	923629	STUDY_PAIR	n/a	3	-999	n/a	TEA	SHEEP	FLEA	8	[0, 0, 0]	-999	PAL1	3	R1365N
926.654	0.555	927662	STUDY_PAIR_OFF	n/a	3	-999	n/a	TEA	SHEEP	FLEA	8	[0, 0, 0]	-999	PAL1	3	R1365N
927.209	4.013	928217	STUDY_PAIR	n/a	4	-999	n/a	n/a	DOLL	CAVE	8	[0, 0, 0]	-999	PAL1	3	R1365N
931.222	0.674	932230	STUDY_PAIR_OFF	n/a	4	-999	n/a	n/a	DOLL	CAVE	8	[0, 0, 0]	-999	PAL1	3	R1365N
931.896	4.027	932904	STUDY_PAIR	n/a	5	-999	n/a	BRIDGE	BEACH	JUDGE	8	[0, 0, 0]	-999	PAL1	3	R1365N
935.923	0.51	936931	STUDY_PAIR_OFF	n/a	5	-999	n/a	BRIDGE	BEACH	JUDGE	8	[0, 0, 0]	-999	PAL1	3	R1365N
936.433	4.023	937441	STUDY_PAIR	n/a	6	-999	n/a	SEA	CAKE	SEED	8	[0, 0, 0]	-999	PAL1	3	R1365N
940.456	0.001	941463	STUDY_PAIR_OFF	n/a	6	-999	n/a	SEA	CAKE	SEED	8	[0, 0, 0]	-999	PAL1	3	R1365N
940.457	0.0	941464	ENCODING_END	n/a	-999	-999	n/a	n/a	n/a	n/a	8	[0, 0, 0]	-999	PAL1	3	R1365N
940.457	0.0	941464	MATH_START	n/a	-999	-999	n/a	n/a	n/a	n/a	8	[0, 0, 0]	-999	PAL1	3	R1365N
940.457	0.016	941464	START	n/a	-999	-999	n/a	n/a	n/a	n/a	8	[-999, -999, -999]	-999	PAL1	3	R1365N
940.473	4.785	941480	PROB	4760	-999	-999	n/a	n/a	n/a	n/a	8	[2, 6, 6]	14	PAL1	3	R1365N
945.258	6.484	946265	PROB	6454	-999	-999	n/a	n/a	n/a	n/a	8	[3, 8, 4]	15	PAL1	3	R1365N
951.742	3.616	952749	PROB	3586	-999	-999	n/a	n/a	n/a	n/a	8	[2, 2, 1]	5	PAL1	3	R1365N
955.358	14.635	956365	PROB	14635	-999	-999	n/a	n/a	n/a	n/a	8	[7, 8, 6]	17	PAL1	3	R1365N
969.993	0.019	970999	STOP	n/a	-999	-999	n/a	n/a	n/a	n/a	8	[-999, -999, -999]	-999	PAL1	3	R1365N
970.012	0.632	971018	MATH_END	n/a	-999	-999	n/a	n/a	n/a	n/a	8	[0, 0, 0]	-999	PAL1	3	R1365N
970.644	0.002	971650	RETRIEVAL_START	n/a	-999	-999	n/a	n/a	n/a	n/a	8	[0, 0, 0]	-999	PAL1	3	R1365N
970.646	0.266	971652	ORIENT_START	n/a	-999	-999	n/a	n/a	n/a	n/a	8	[0, 0, 0]	-999	PAL1	3	R1365N
970.912	0.708	971918	ORIENT_END	n/a	-999	-999	n/a	n/a	n/a	n/a	8	[0, 0, 0]	-999	PAL1	3	R1365N
971.62	0.001	972626	REC_START	n/a	1	1	ICE	BOX	ICE	BOX	8	[0, 0, 0]	-999	PAL1	3	R1365N
971.621	2.095	972627	PROBE_START	n/a	1	1	ICE	BOX	ICE	BOX	8	[0, 0, 0]	-999	PAL1	3	R1365N
973.716	1.929	974722	REC_EVENT	2095	1	1	ICE	BOX	ICE	BOX	8	[0, 0, 0]	-999	PAL1	3	R1365N
975.645	1.001	976651	PROBE_END	n/a	1	1	ICE	n/a	ICE	BOX	8	[0, 0, 0]	-999	PAL1	3	R1365N
976.646	0.013	977652	REC_END	n/a	1	1	ICE	n/a	ICE	BOX	8	[0, 0, 0]	-999	PAL1	3	R1365N
976.659	0.271	977665	ORIENT_START	n/a	-999	-999	n/a	n/a	n/a	n/a	8	[0, 0, 0]	-999	PAL1	3	R1365N
976.93	0.703	977936	ORIENT_END	n/a	-999	-999	n/a	n/a	n/a	n/a	8	[0, 0, 0]	-999	PAL1	3	R1365N
977.633	0.0	978639	REC_START	n/a	6	2	CAKE	SEA	CAKE	SEED	8	[0, 0, 0]	-999	PAL1	3	R1365N
977.633	1.924	978639	PROBE_START	n/a	6	2	CAKE	SEA	CAKE	SEED	8	[0, 0, 0]	-999	PAL1	3	R1365N
979.557	2.106	980563	REC_EVENT	1924	6	2	CAKE	SEA	CAKE	SEED	8	[0, 0, 0]	-999	PAL1	3	R1365N
981.663	1.001	982669	PROBE_END	n/a	6	2	CAKE	n/a	CAKE	SEED	8	[0, 0, 0]	-999	PAL1	3	R1365N
982.664	0.014	983670	REC_END	n/a	6	2	CAKE	n/a	CAKE	SEED	8	[0, 0, 0]	-999	PAL1	3	R1365N
982.678	0.286	983684	ORIENT_START	n/a	-999	-999	n/a	n/a	n/a	n/a	8	[0, 0, 0]	-999	PAL1	3	R1365N
982.964	0.693	983970	ORIENT_END	n/a	-999	-999	n/a	n/a	n/a	n/a	8	[0, 0, 0]	-999	PAL1	3	R1365N
983.657	0.0	984663	REC_START	n/a	3	3	FLEA	TEA	SHEEP	FLEA	8	[0, 0, 0]	-999	PAL1	3	R1365N
983.657	3.621	984663	PROBE_START	n/a	3	3	FLEA	TEA	SHEEP	FLEA	8	[0, 0, 0]	-999	PAL1	3	R1365N
987.278	0.404	988284	REC_EVENT	3621	3	3	FLEA	TEA	SHEEP	FLEA	8	[0, 0, 0]	-999	PAL1	3	R1365N
987.682	0.999	988688	PROBE_END	n/a	3	3	FLEA	n/a	SHEEP	FLEA	8	[0, 0, 0]	-999	PAL1	3	R1365N
988.681	0.012	989687	REC_END	n/a	3	3	FLEA	n/a	SHEEP	FLEA	8	[0, 0, 0]	-999	PAL1	3	R1365N
988.693	0.272	989699	ORIENT_START	n/a	-999	-999	n/a	n/a	n/a	n/a	8	[0, 0, 0]	-999	PAL1	3	R1365N
988.965	0.567	989971	ORIENT_END	n/a	-999	-999	n/a	n/a	n/a	n/a	8	[0, 0, 0]	-999	PAL1	3	R1365N
989.532	0.001	990538	REC_START	n/a	2	4	BREAD	CAKE	MAP	BREAD	8	[0, 0, 0]	-999	PAL1	3	R1365N
989.533	4.032	990539	PROBE_START	n/a	2	4	BREAD	CAKE	MAP	BREAD	8	[0, 0, 0]	-999	PAL1	3	R1365N
993.565	0.553	994571	PROBE_END	n/a	2	4	BREAD	n/a	MAP	BREAD	8	[0, 0, 0]	-999	PAL1	3	R1365N
994.118	0.447	995124	REC_EVENT	4585	2	4	BREAD	CAKE	MAP	BREAD	8	[0, 0, 0]	-999	PAL1	3	R1365N
994.565	0.013	995571	REC_END	n/a	2	4	BREAD	n/a	MAP	BREAD	8	[0, 0, 0]	-999	PAL1	3	R1365N
994.578	0.272	995584	ORIENT_START	n/a	-999	-999	n/a	n/a	n/a	n/a	8	[0, 0, 0]	-999	PAL1	3	R1365N
994.85	0.66	995856	ORIENT_END	n/a	-999	-999	n/a	n/a	n/a	n/a	8	[0, 0, 0]	-999	PAL1	3	R1365N
995.51	0.0	996516	REC_START	n/a	5	5	JUDGE	BRIDGE	BEACH	JUDGE	8	[0, 0, 0]	-999	PAL1	3	R1365N
995.51	3.591	996516	PROBE_START	n/a	5	5	JUDGE	BRIDGE	BEACH	JUDGE	8	[0, 0, 0]	-999	PAL1	3	R1365N
999.101	0.448	1000107	REC_EVENT	3591	5	5	JUDGE	BRIDGE	BEACH	JUDGE	8	[0, 0, 0]	-999	PAL1	3	R1365N
999.549	1.0	1000554	PROBE_END	n/a	5	5	JUDGE	n/a	BEACH	JUDGE	8	[0, 0, 0]	-999	PAL1	3	R1365N
1000.549	0.012	1001554	REC_END	n/a	5	5	JUDGE	n/a	BEACH	JUDGE	8	[0, 0, 0]	-999	PAL1	3	R1365N
1000.561	0.273	1001566	ORIENT_START	n/a	-999	-999	n/a	n/a	n/a	n/a	8	[0, 0, 0]	-999	PAL1	3	R1365N
1000.834	0.609	1001839	ORIENT_END	n/a	-999	-999	n/a	n/a	n/a	n/a	8	[0, 0, 0]	-999	PAL1	3	R1365N
1001.443	0.001	1002448	REC_START	n/a	4	6	DOLL	n/a	DOLL	CAVE	8	[0, 0, 0]	-999	PAL1	3	R1365N
1001.444	4.023	1002449	PROBE_START	n/a	4	6	DOLL	n/a	DOLL	CAVE	8	[0, 0, 0]	-999	PAL1	3	R1365N
1005.467	1.0	1006472	PROBE_END	n/a	4	6	DOLL	n/a	DOLL	CAVE	8	[0, 0, 0]	-999	PAL1	3	R1365N
1006.467	0.012	1007472	REC_END	n/a	4	6	DOLL	n/a	DOLL	CAVE	8	[0, 0, 0]	-999	PAL1	3	R1365N
1006.479	0.001	1007484	RETRIEVAL_END	n/a	-999	-999	n/a	n/a	n/a	n/a	8	[0, 0, 0]	-999	PAL1	3	R1365N
1006.48	0.021	1007485	TRIAL_END	n/a	-999	-999	n/a	n/a	n/a	n/a	8	[0, 0, 0]	-999	PAL1	3	R1365N
1006.501	0.0	1007506	TRIAL_START	n/a	-999	-999	n/a	n/a	n/a	n/a	8	[0, 0, 0]	-999	PAL1	3	R1365N
1006.501	0.0	1007506	TRIAL	n/a	-999	-999	n/a	n/a	n/a	n/a	9	[0, 0, 0]	-999	PAL1	3	R1365N
1006.501	0.852	1007506	WAITING_START	n/a	-999	-999	n/a	n/a	n/a	n/a	9	[0, 0, 0]	-999	PAL1	3	R1365N
1007.353	1.382	1008358	REC_EVENT	5909	4	6	DOLL	<>	DOLL	CAVE	8	[0, 0, 0]	-999	PAL1	3	R1365N
1008.735	0.001	1009740	WAITING_END	n/a	-999	-999	n/a	n/a	n/a	n/a	9	[0, 0, 0]	-999	PAL1	3	R1365N
1008.736	10.428	1009741	COUNTDOWN_START	n/a	-999	-999	n/a	n/a	n/a	n/a	9	[0, 0, 0]	-999	PAL1	3	R1365N
1019.164	0.001	1020169	COUNTDOWN_END	n/a	-999	-999	n/a	n/a	n/a	n/a	9	[0, 0, 0]	-999	PAL1	3	R1365N
1019.165	0.606	1020170	ORIENT_START	n/a	-999	-999	n/a	n/a	n/a	n/a	9	[0, 0, 0]	-999	PAL1	3	R1365N
1019.771	0.0	1020776	ORIENT_END	n/a	-999	-999	n/a	n/a	n/a	n/a	9	[0, 0, 0]	-999	PAL1	3	R1365N
1019.771	1.064	1020776	ENCODING_START	n/a	-999	-999	n/a	n/a	n/a	n/a	9	[0, 0, 0]	-999	PAL1	3	R1365N
1020.835	4.036	1021840	STUDY_PAIR	n/a	1	-999	n/a	n/a	SLEEVE	PEAR	9	[0, 0, 0]	-999	PAL1	3	R1365N
1024.871	0.67	1025876	STUDY_PAIR_OFF	n/a	1	-999	n/a	n/a	SLEEVE	PEAR	9	[0, 0, 0]	-999	PAL1	3	R1365N
1025.541	4.03	1026546	STUDY_PAIR	n/a	2	-999	n/a	PANTS	PLANE	PANTS	9	[0, 0, 0]	-999	PAL1	3	R1365N
1029.571	0.519	1030575	STUDY_PAIR_OFF	n/a	2	-999	n/a	PANTS	PLANE	PANTS	9	[0, 0, 0]	-999	PAL1	3	R1365N
1030.09	4.033	1031094	STUDY_PAIR	n/a	3	-999	n/a	n/a	EEL	ARK	9	[0, 0, 0]	-999	PAL1	3	R1365N
1034.123	0.697	1035127	STUDY_PAIR_OFF	n/a	3	-999	n/a	n/a	EEL	ARK	9	[0, 0, 0]	-999	PAL1	3	R1365N
1034.82	4.037	1035824	STUDY_PAIR	n/a	4	-999	n/a	BANK	JAR	CASH	9	[0, 0, 0]	-999	PAL1	3	R1365N
1038.857	0.509	1039861	STUDY_PAIR_OFF	n/a	4	-999	n/a	BANK	JAR	CASH	9	[0, 0, 0]	-999	PAL1	3	R1365N
1039.366	4.041	1040370	STUDY_PAIR	n/a	5	-999	n/a	n/a	ROCK	BAG	9	[0, 0, 0]	-999	PAL1	3	R1365N
1043.407	0.717	1044411	STUDY_PAIR_OFF	n/a	5	-999	n/a	n/a	ROCK	BAG	9	[0, 0, 0]	-999	PAL1	3	R1365N
1044.124	4.034	1045128	STUDY_PAIR	n/a	6	-999	n/a	n/a	TAIL	PIG	9	[0, 0, 0]	-999	PAL1	3	R1365N
1048.158	0.001	1049162	STUDY_PAIR_OFF	n/a	6	-999	n/a	n/a	TAIL	PIG	9	[0, 0, 0]	-999	PAL1	3	R1365N
1048.159	0.0	1049163	ENCODING_END	n/a	-999	-999	n/a	n/a	n/a	n/a	9	[0, 0, 0]	-999	PAL1	3	R1365N
1048.159	0.0	1049163	MATH_START	n/a	-999	-999	n/a	n/a	n/a	n/a	9	[0, 0, 0]	-999	PAL1	3	R1365N
1048.159	0.016	1049163	START	n/a	-999	-999	n/a	n/a	n/a	n/a	9	[-999, -999, -999]	-999	PAL1	3	R1365N
1048.175	4.984	1049179	PROB	4954	-999	-999	n/a	n/a	n/a	n/a	9	[4, 5, 6]	15	PAL1	3	R1365N
1053.159	5.417	1054163	PROB	5393	-999	-999	n/a	n/a	n/a	n/a	9	[2, 6, 2]	10	PAL1	3	R1365N
1058.576	5.034	1059580	PROB	4999	-999	-999	n/a	n/a	n/a	n/a	9	[6, 7, 6]	19	PAL1	3	R1365N
1063.61	3.717	1064613	PROB	3694	-999	-999	n/a	n/a	n/a	n/a	9	[6, 1, 7]	14	PAL1	3	R1365N
1067.327	3.898	1068330	PROB	3898	-999	-999	n/a	n/a	n/a	n/a	9	[1, 1, 8]	10	PAL1	3	R1365N
1071.225	0.021	1072228	STOP	n/a	-999	-999	n/a	n/a	n/a	n/a	9	[-999, -999, -999]	-999	PAL1	3	R1365N
1071.246	0.656	1072249	MATH_END	n/a	-999	-999	n/a	n/a	n/a	n/a	9	[0, 0, 0]	-999	PAL1	3	R1365N
1071.902	0.001	1072905	RETRIEVAL_START	n/a	-999	-999	n/a	n/a	n/a	n/a	9	[0, 0, 0]	-999	PAL1	3	R1365N
1071.903	0.276	1072906	ORIENT_START	n/a	-999	-999	n/a	n/a	n/a	n/a	9	[0, 0, 0]	-999	PAL1	3	R1365N
1072.179	0.735	1073182	ORIENT_END	n/a	-999	-999	n/a	n/a	n/a	n/a	9	[0, 0, 0]	-999	PAL1	3	R1365N
1072.914	0.001	1073917	REC_START	n/a	3	1	ARK	n/a	EEL	ARK	9	[0, 0, 0]	-999	PAL1	3	R1365N
1072.915	4.032	1073918	PROBE_START	n/a	3	1	ARK	n/a	EEL	ARK	9	[0, 0, 0]	-999	PAL1	3	R1365N
1076.947	0.999	1077950	PROBE_END	n/a	3	1	ARK	n/a	EEL	ARK	9	[0, 0, 0]	-999	PAL1	3	R1365N
1077.946	0.007	1078949	REC_END	n/a	3	1	ARK	n/a	EEL	ARK	9	[0, 0, 0]	-999	PAL1	3	R1365N
1077.953	0.277	1078956	ORIENT_START	n/a	-999	-999	n/a	n/a	n/a	n/a	9	[0, 0, 0]	-999	PAL1	3	R1365N
1078.23	0.679	1079233	ORIENT_END	n/a	-999	-999	n/a	n/a	n/a	n/a	9	[0, 0, 0]	-999	PAL1	3	R1365N
1078.909	0.0	1079912	PROBE_START	n/a	6	2	TAIL	n/a	TAIL	PIG	9	[0, 0, 0]	-999	PAL1	3	R1365N
1078.909	0.048	1079912	REC_START	n/a	6	2	TAIL	n/a	TAIL	PIG	9	[0, 0, 0]	-999	PAL1	3	R1365N
1078.957	2.112	1079960	REC_EVENT	6042	3	1	ARK	<>	EEL	ARK	9	[0, 0, 0]	-999	PAL1	3	R1365N
1081.069	1.879	1082072	REC_EVENT	2160	6	2	TAIL	<>	TAIL	PIG	9	[0, 0, 0]	-999	PAL1	3	R1365N
1082.948	0.999	1083951	PROBE_END	n/a	6	2	TAIL	n/a	TAIL	PIG	9	[0, 0, 0]	-999	PAL1	3	R1365N
1083.947	0.013	1084950	REC_END	n/a	6	2	TAIL	n/a	TAIL	PIG	9	[0, 0, 0]	-999	PAL1	3	R1365N
1083.96	0.271	1084963	ORIENT_START	n/a	-999	-999	n/a	n/a	n/a	n/a	9	[0, 0, 0]	-999	PAL1	3	R1365N
1084.231	0.55	1085234	ORIENT_END	n/a	-999	-999	n/a	n/a	n/a	n/a	9	[0, 0, 0]	-999	PAL1	3	R1365N
1084.781	0.0	1085784	REC_START	n/a	5	3	ROCK	n/a	ROCK	BAG	9	[0, 0, 0]	-999	PAL1	3	R1365N
1084.781	4.034	1085784	PROBE_START	n/a	5	3	ROCK	n/a	ROCK	BAG	9	[0, 0, 0]	-999	PAL1	3	R1365N
1088.815	0.413	1089818	PROBE_END	n/a	5	3	ROCK	n/a	ROCK	BAG	9	[0, 0, 0]	-999	PAL1	3	R1365N
1089.228	0.587	1090231	REC_EVENT	4447	5	3	ROCK	<>	ROCK	BAG	9	[0, 0, 0]	-999	PAL1	3	R1365N
1089.815	0.012	1090817	REC_END	n/a	5	3	ROCK	n/a	ROCK	BAG	9	[0, 0, 0]	-999	PAL1	3	R1365N
1089.827	0.272	1090829	ORIENT_START	n/a	-999	-999	n/a	n/a	n/a	n/a	9	[0, 0, 0]	-999	PAL1	3	R1365N
1090.099	0.671	1091101	ORIENT_END	n/a	-999	-999	n/a	n/a	n/a	n/a	9	[0, 0, 0]	-999	PAL1	3	R1365N
1090.77	0.0	1091772	PROBE_START	n/a	2	4	PLANE	PANTS	PLANE	PANTS	9	[0, 0, 0]	-999	PAL1	3	R1365N
1090.77	2.216	1091772	REC_START	n/a	2	4	PLANE	PANTS	PLANE	PANTS	9	[0, 0, 0]	-999	PAL1	3	R1365N
1092.986	1.813	1093988	REC_EVENT	2216	2	4	PLANE	PANTS	PLANE	PANTS	9	[0, 0, 0]	-999	PAL1	3	R1365N
1094.799	1.0	1095801	PROBE_END	n/a	2	4	PLANE	n/a	PLANE	PANTS	9	[0, 0, 0]	-999	PAL1	3	R1365N
1095.799	0.013	1096801	REC_END	n/a	2	4	PLANE	n/a	PLANE	PANTS	9	[0, 0, 0]	-999	PAL1	3	R1365N
1095.812	0.271	1096814	ORIENT_START	n/a	-999	-999	n/a	n/a	n/a	n/a	9	[0, 0, 0]	-999	PAL1	3	R1365N
1096.083	0.622	1097085	ORIENT_END	n/a	-999	-999	n/a	n/a	n/a	n/a	9	[0, 0, 0]	-999	PAL1	3	R1365N
1096.705	0.0	1097707	REC_START	n/a	1	5	PEAR	n/a	SLEEVE	PEAR	9	[0, 0, 0]	-999	PAL1	3	R1365N
1096.705	4.029	1097707	PROBE_START	n/a	1	5	PEAR	n/a	SLEEVE	PEAR	9	[0, 0, 0]	-999	PAL1	3	R1365N
1100.734	1.0	1101736	PROBE_END	n/a	1	5	PEAR	n/a	SLEEVE	PEAR	9	[0, 0, 0]	-999	PAL1	3	R1365N
1101.734	0.011	1102736	REC_END	n/a	1	5	PEAR	n/a	SLEEVE	PEAR	9	[0, 0, 0]	-999	PAL1	3	R1365N
1101.745	0.272	1102747	ORIENT_START	n/a	-999	-999	n/a	n/a	n/a	n/a	9	[0, 0, 0]	-999	PAL1	3	R1365N
1102.017	0.614	1103019	ORIENT_END	n/a	-999	-999	n/a	n/a	n/a	n/a	9	[0, 0, 0]	-999	PAL1	3	R1365N
1102.631	0.05	1103633	REC_EVENT	5926	1	5	PEAR	<>	SLEEVE	PEAR	9	[0, 0, 0]	-999	PAL1	3	R1365N
1102.681	0.001	1103683	REC_START	n/a	4	6	CASH	BANK	JAR	CASH	9	[0, 0, 0]	-999	PAL1	3	R1365N
1102.682	4.036	1103684	PROBE_START	n/a	4	6	CASH	BANK	JAR	CASH	9	[0, 0, 0]	-999	PAL1	3	R1365N
1106.718	0.292	1107720	PROBE_END	n/a	4	6	CASH	n/a	JAR	CASH	9	[0, 0, 0]	-999	PAL1	3	R1365N
1107.01	0.709	1108012	REC_EVENT	4328	4	6	CASH	BANK	JAR	CASH	9	[0, 0, 0]	-999	PAL1	3	R1365N
1107.719	0.011	1108721	REC_END	n/a	4	6	CASH	n/a	JAR	CASH	9	[0, 0, 0]	-999	PAL1	3	R1365N
1107.73	0.0	1108732	RETRIEVAL_END	n/a	-999	-999	n/a	n/a	n/a	n/a	9	[0, 0, 0]	-999	PAL1	3	R1365N
1107.73	0.019	1108732	TRIAL_END	n/a	-999	-999	n/a	n/a	n/a	n/a	9	[0, 0, 0]	-999	PAL1	3	R1365N
1107.749	0.001	1108751	TRIAL_START	n/a	-999	-999	n/a	n/a	n/a	n/a	9	[0, 0, 0]	-999	PAL1	3	R1365N
1107.75	0.0	1108752	TRIAL	n/a	-999	-999	n/a	n/a	n/a	n/a	10	[0, 0, 0]	-999	PAL1	3	R1365N
1107.75	2.152	1108752	WAITING_START	n/a	-999	-999	n/a	n/a	n/a	n/a	10	[0, 0, 0]	-999	PAL1	3	R1365N
1109.902	0.0	1110904	WAITING_END	n/a	-999	-999	n/a	n/a	n/a	n/a	10	[0, 0, 0]	-999	PAL1	3	R1365N
1109.902	10.43	1110904	COUNTDOWN_START	n/a	-999	-999	n/a	n/a	n/a	n/a	10	[0, 0, 0]	-999	PAL1	3	R1365N
1120.332	0.0	1121333	COUNTDOWN_END	n/a	-999	-999	n/a	n/a	n/a	n/a	10	[0, 0, 0]	-999	PAL1	3	R1365N
1120.332	0.672	1121333	ORIENT_START	n/a	-999	-999	n/a	n/a	n/a	n/a	10	[0, 0, 0]	-999	PAL1	3	R1365N
1121.004	0.0	1122005	ENCODING_START	n/a	-999	-999	n/a	n/a	n/a	n/a	10	[0, 0, 0]	-999	PAL1	3	R1365N
1121.004	1.172	1122005	ORIENT_END	n/a	-999	-999	n/a	n/a	n/a	n/a	10	[0, 0, 0]	-999	PAL1	3	R1365N
1122.176	4.029	1123177	STUDY_PAIR	n/a	1	-999	n/a	SOUP	SOUP	ROOT	10	[0, 0, 0]	-999	PAL1	3	R1365N
1126.205	0.605	1127206	STUDY_PAIR_OFF	n/a	1	-999	n/a	SOUP	SOUP	ROOT	10	[0, 0, 0]	-999	PAL1	3	R1365N
1126.81	4.029	1127811	STUDY_PAIR	n/a	2	-999	n/a	n/a	MUD	PALM	10	[0, 0, 0]	-999	PAL1	3	R1365N
1130.839	0.698	1131840	STUDY_PAIR_OFF	n/a	2	-999	n/a	n/a	MUD	PALM	10	[0, 0, 0]	-999	PAL1	3	R1365N
1131.537	4.035	1132538	STUDY_PAIR	n/a	3	-999	n/a	LEG	EGG	NET	10	[0, 0, 0]	-999	PAL1	3	R1365N
1135.572	0.643	1136573	STUDY_PAIR_OFF	n/a	3	-999	n/a	LEG	EGG	NET	10	[0, 0, 0]	-999	PAL1	3	R1365N
1136.215	4.025	1137216	STUDY_PAIR	n/a	4	-999	n/a	n/a	CHAIR	FORT	10	[0, 0, 0]	-999	PAL1	3	R1365N
1140.24	0.597	1141241	STUDY_PAIR_OFF	n/a	4	-999	n/a	n/a	CHAIR	FORT	10	[0, 0, 0]	-999	PAL1	3	R1365N
1140.837	4.037	1141838	STUDY_PAIR	n/a	5	-999	n/a	COIN	ZOO	COIN	10	[0, 0, 0]	-999	PAL1	3	R1365N
1144.874	0.581	1145875	STUDY_PAIR_OFF	n/a	5	-999	n/a	COIN	ZOO	COIN	10	[0, 0, 0]	-999	PAL1	3	R1365N
1145.455	4.036	1146456	STUDY_PAIR	n/a	6	-999	n/a	FRIDGE	VINE	FUDGE	10	[0, 0, 0]	-999	PAL1	3	R1365N
1149.491	0.0	1150491	STUDY_PAIR_OFF	n/a	6	-999	n/a	FRIDGE	VINE	FUDGE	10	[0, 0, 0]	-999	PAL1	3	R1365N
1149.491	0.001	1150491	ENCODING_END	n/a	-999	-999	n/a	n/a	n/a	n/a	10	[0, 0, 0]	-999	PAL1	3	R1365N
1149.492	0.0	1150492	MATH_START	n/a	-999	-999	n/a	n/a	n/a	n/a	10	[0, 0, 0]	-999	PAL1	3	R1365N
1149.492	0.015	1150492	START	n/a	-999	-999	n/a	n/a	n/a	n/a	10	[-999, -999, -999]	-999	PAL1	3	R1365N
1149.507	6.319	1150507	PROB	6286	-999	-999	n/a	n/a	n/a	n/a	10	[8, 8, 7]	21	PAL1	3	R1365N
1155.826	8.335	1156826	PROB	8311	-999	-999	n/a	n/a	n/a	n/a	10	[5, 1, 8]	14	PAL1	3	R1365N
1164.161	4.55	1165161	PROB	4520	-999	-999	n/a	n/a	n/a	n/a	10	[8, 5, 3]	16	PAL1	3	R1365N
1168.711	2.632	1169711	PROB	2632	-999	-999	n/a	n/a	n/a	n/a	10	[2, 6, 3]	1	PAL1	3	R1365N
1171.343	0.018	1172343	STOP	n/a	-999	-999	n/a	n/a	n/a	n/a	10	[-999, -999, -999]	-999	PAL1	3	R1365N
1171.361	0.556	1172361	MATH_END	n/a	-999	-999	n/a	n/a	n/a	n/a	10	[0, 0, 0]	-999	PAL1	3	R1365N
1171.917	0.001	1172917	RETRIEVAL_START	n/a	-999	-999	n/a	n/a	n/a	n/a	10	[0, 0, 0]	-999	PAL1	3	R1365N
1171.918	0.278	1172918	ORIENT_START	n/a	-999	-999	n/a	n/a	n/a	n/a	10	[0, 0, 0]	-999	PAL1	3	R1365N
1172.196	0.709	1173196	ORIENT_END	n/a	-999	-999	n/a	n/a	n/a	n/a	10	[0, 0, 0]	-999	PAL1	3	R1365N
1172.905	0.0	1173905	REC_START	n/a	3	1	NET	LEG	EGG	NET	10	[0, 0, 0]	-999	PAL1	3	R1365N
1172.905	2.889	1173905	PROBE_START	n/a	3	1	NET	LEG	EGG	NET	10	[0, 0, 0]	-999	PAL1	3	R1365N
1175.794	1.136	1176794	REC_EVENT	2889	3	1	NET	LEG	EGG	NET	10	[0, 0, 0]	-999	PAL1	3	R1365N
1176.93	1.0	1177930	PROBE_END	n/a	3	1	NET	n/a	EGG	NET	10	[0, 0, 0]	-999	PAL1	3	R1365N
1177.93	0.013	1178930	REC_END	n/a	3	1	NET	n/a	EGG	NET	10	[0, 0, 0]	-999	PAL1	3	R1365N
1177.943	0.27	1178943	ORIENT_START	n/a	-999	-999	n/a	n/a	n/a	n/a	10	[0, 0, 0]	-999	PAL1	3	R1365N
1178.213	0.592	1179213	ORIENT_END	n/a	-999	-999	n/a	n/a	n/a	n/a	10	[0, 0, 0]	-999	PAL1	3	R1365N
1178.805	0.0	1179805	PROBE_START	n/a	6	2	VINE	FRIDGE	VINE	FUDGE	10	[0, 0, 0]	-999	PAL1	3	R1365N
1178.805	4.026	1179805	REC_START	n/a	6	2	VINE	FRIDGE	VINE	FUDGE	10	[0, 0, 0]	-999	PAL1	3	R1365N
1182.831	0.325	1183830	PROBE_END	n/a	6	2	VINE	n/a	VINE	FUDGE	10	[0, 0, 0]	-999	PAL1	3	R1365N
1183.156	0.675	1184155	REC_EVENT	4351	6	2	VINE	FRIDGE	VINE	FUDGE	10	[0, 0, 0]	-999	PAL1	3	R1365N
1183.831	0.011	1184830	REC_END	n/a	6	2	VINE	n/a	VINE	FUDGE	10	[0, 0, 0]	-999	PAL1	3	R1365N
1183.842	0.272	1184841	ORIENT_START	n/a	-999	-999	n/a	n/a	n/a	n/a	10	[0, 0, 0]	-999	PAL1	3	R1365N
1184.114	0.643	1185113	ORIENT_END	n/a	-999	-999	n/a	n/a	n/a	n/a	10	[0, 0, 0]	-999	PAL1	3	R1365N
1184.757	0.0	1185756	REC_START	n/a	1	3	ROOT	SOUP	SOUP	ROOT	10	[0, 0, 0]	-999	PAL1	3	R1365N
1184.757	3.585	1185756	PROBE_START	n/a	1	3	ROOT	SOUP	SOUP	ROOT	10	[0, 0, 0]	-999	PAL1	3	R1365N
1188.342	0.44	1189341	REC_EVENT	3585	1	3	ROOT	SOUP	SOUP	ROOT	10	[0, 0, 0]	-999	PAL1	3	R1365N
1188.782	1.0	1189781	PROBE_END	n/a	1	3	ROOT	n/a	SOUP	ROOT	10	[0, 0, 0]	-999	PAL1	3	R1365N
1189.782	0.013	1190781	REC_END	n/a	1	3	ROOT	n/a	SOUP	ROOT	10	[0, 0, 0]	-999	PAL1	3	R1365N
1189.795	0.27	1190794	ORIENT_START	n/a	-999	-999	n/a	n/a	n/a	n/a	10	[0, 0, 0]	-999	PAL1	3	R1365N
1190.065	0.513	1191064	ORIENT_END	n/a	-999	-999	n/a	n/a	n/a	n/a	10	[0, 0, 0]	-999	PAL1	3	R1365N
1190.578	0.001	1191577	REC_START	n/a	2	4	PALM	n/a	MUD	PALM	10	[0, 0, 0]	-999	PAL1	3	R1365N
1190.579	4.019	1191578	PROBE_START	n/a	2	4	PALM	n/a	MUD	PALM	10	[0, 0, 0]	-999	PAL1	3	R1365N
1194.598	1.0	1195597	PROBE_END	n/a	2	4	PALM	n/a	MUD	PALM	10	[0, 0, 0]	-999	PAL1	3	R1365N
1195.598	0.012	1196597	REC_END	n/a	2	4	PALM	n/a	MUD	PALM	10	[0, 0, 0]	-999	PAL1	3	R1365N
1195.61	0.273	1196609	ORIENT_START	n/a	-999	-999	n/a	n/a	n/a	n/a	10	[0, 0, 0]	-999	PAL1	3	R1365N
1195.883	0.5	1196882	ORIENT_END	n/a	-999	-999	n/a	n/a	n/a	n/a	10	[0, 0, 0]	-999	PAL1	3	R1365N
1196.383	0.068	1197382	REC_EVENT	5804	2	4	PALM	<>	MUD	PALM	10	[0, 0, 0]	-999	PAL1	3	R1365N
1196.451	0.001	1197450	REC_START	n/a	5	5	ZOO	COIN	ZOO	COIN	10	[0, 0, 0]	-999	PAL1	3	R1365N
1196.452	2.239	1197451	PROBE_START	n/a	5	5	ZOO	COIN	ZOO	COIN	10	[0, 0, 0]	-999	PAL1	3	R1365N
1198.691	0.771	1199690	REC_EVENT	2239	5	5	ZOO	COMB	ZOO	COIN	10	[0, 0, 0]	-999	PAL1	3	R1365N
1199.462	0.882	1200461	REC_EVENT	3010	5	5	ZOO	COIN	ZOO	COIN	10	[0, 0, 0]	-999	PAL1	3	R1365N
1200.344	0.139	1201343	REC_EVENT	3892	5	5	ZOO	COIN	ZOO	COIN	10	[0, 0, 0]	-999	PAL1	3	R1365N
1200.483	0.999	1201482	PROBE_END	n/a	5	5	ZOO	n/a	ZOO	COIN	10	[0, 0, 0]	-999	PAL1	3	R1365N
1201.482	0.012	1202481	REC_END	n/a	5	5	ZOO	n/a	ZOO	COIN	10	[0, 0, 0]	-999	PAL1	3	R1365N
1201.494	0.273	1202493	ORIENT_START	n/a	-999	-999	n/a	n/a	n/a	n/a	10	[0, 0, 0]	-999	PAL1	3	R1365N
1201.767	0.738	1202766	ORIENT_END	n/a	-999	-999	n/a	n/a	n/a	n/a	10	[0, 0, 0]	-999	PAL1	3	R1365N
1202.505	0.0	1203504	PROBE_START	n/a	4	6	CHAIR	n/a	CHAIR	FORT	10	[0, 0, 0]	-999	PAL1	3	R1365N
1202.505	4.029	1203504	REC_START	n/a	4	6	CHAIR	n/a	CHAIR	FORT	10	[0, 0, 0]	-999	PAL1	3	R1365N
1206.534	0.728	1207533	PROBE_END	n/a	4	6	CHAIR	n/a	CHAIR	FORT	10	[0, 0, 0]	-999	PAL1	3	R1365N
1207.262	0.271	1208261	REC_EVENT	4757	4	6	CHAIR	<>	CHAIR	FORT	10	[0, 0, 0]	-999	PAL1	3	R1365N
1207.533	0.006	1208532	REC_END	n/a	4	6	CHAIR	n/a	CHAIR	FORT	10	[0, 0, 0]	-999	PAL1	3	R1365N
1207.539	0.0	1208538	RETRIEVAL_END	n/a	-999	-999	n/a	n/a	n/a	n/a	10	[0, 0, 0]	-999	PAL1	3	R1365N
1207.539	0.021	1208538	TRIAL_END	n/a	-999	-999	n/a	n/a	n/a	n/a	10	[0, 0, 0]	-999	PAL1	3	R1365N
1207.56	0.0	1208559	TRIAL_START	n/a	-999	-999	n/a	n/a	n/a	n/a	10	[0, 0, 0]	-999	PAL1	3	R1365N
1207.56	0.001	1208559	TRIAL	n/a	-999	-999	n/a	n/a	n/a	n/a	11	[0, 0, 0]	-999	PAL1	3	R1365N
1207.561	2.124	1208560	WAITING_START	n/a	-999	-999	n/a	n/a	n/a	n/a	11	[0, 0, 0]	-999	PAL1	3	R1365N
1209.685	0.001	1210683	WAITING_END	n/a	-999	-999	n/a	n/a	n/a	n/a	11	[0, 0, 0]	-999	PAL1	3	R1365N
1209.686	10.429	1210684	COUNTDOWN_START	n/a	-999	-999	n/a	n/a	n/a	n/a	11	[0, 0, 0]	-999	PAL1	3	R1365N
1220.115	0.001	1221113	COUNTDOWN_END	n/a	-999	-999	n/a	n/a	n/a	n/a	11	[0, 0, 0]	-999	PAL1	3	R1365N
1220.116	0.571	1221114	ORIENT_START	n/a	-999	-999	n/a	n/a	n/a	n/a	11	[0, 0, 0]	-999	PAL1	3	R1365N
1220.687	0.001	1221685	ORIENT_END	n/a	-999	-999	n/a	n/a	n/a	n/a	11	[0, 0, 0]	-999	PAL1	3	R1365N
1220.688	1.159	1221686	ENCODING_START	n/a	-999	-999	n/a	n/a	n/a	n/a	11	[0, 0, 0]	-999	PAL1	3	R1365N
1221.847	4.041	1222845	STUDY_PAIR	n/a	1	-999	n/a	TOOL	TOOL	OAK	11	[0, 0, 0]	-999	PAL1	3	R1365N
1225.888	0.536	1226886	STUDY_PAIR_OFF	n/a	1	-999	n/a	TOOL	TOOL	OAK	11	[0, 0, 0]	-999	PAL1	3	R1365N
1226.424	4.03	1227422	STUDY_PAIR	n/a	2	-999	n/a	n/a	MOUTH	STORE	11	[0, 0, 0]	-999	PAL1	3	R1365N
1230.454	0.523	1231452	STUDY_PAIR_OFF	n/a	2	-999	n/a	n/a	MOUTH	STORE	11	[0, 0, 0]	-999	PAL1	3	R1365N
1230.977	4.029	1231975	STUDY_PAIR	n/a	3	-999	n/a	TOE	FOAM	WALL	11	[0, 0, 0]	-999	PAL1	3	R1365N
1235.006	0.748	1236004	STUDY_PAIR_OFF	n/a	3	-999	n/a	TOE	FOAM	WALL	11	[0, 0, 0]	-999	PAL1	3	R1365N
1235.754	4.036	1236752	STUDY_PAIR	n/a	4	-999	n/a	n/a	LAKE	DESK	11	[0, 0, 0]	-999	PAL1	3	R1365N
1239.79	0.555	1240787	STUDY_PAIR_OFF	n/a	4	-999	n/a	n/a	LAKE	DESK	11	[0, 0, 0]	-999	PAL1	3	R1365N
1240.345	4.028	1241342	STUDY_PAIR	n/a	5	-999	n/a	n/a	FLAG	TRAIN	11	[0, 0, 0]	-999	PAL1	3	R1365N
1244.373	0.548	1245370	STUDY_PAIR_OFF	n/a	5	-999	n/a	n/a	FLAG	TRAIN	11	[0, 0, 0]	-999	PAL1	3	R1365N
1244.921	4.037	1245918	STUDY_PAIR	n/a	6	-999	n/a	n/a	BAND	MAIL	11	[0, 0, 0]	-999	PAL1	3	R1365N
1248.958	0.001	1249955	STUDY_PAIR_OFF	n/a	6	-999	n/a	n/a	BAND	MAIL	11	[0, 0, 0]	-999	PAL1	3	R1365N
1248.959	0.0	1249956	MATH_START	n/a	-999	-999	n/a	n/a	n/a	n/a	11	[0, 0, 0]	-999	PAL1	3	R1365N
1248.959	0.0	1249956	ENCODING_END	n/a	-999	-999	n/a	n/a	n/a	n/a	11	[0, 0, 0]	-999	PAL1	3	R1365N
1248.959	0.016	1249956	START	n/a	-999	-999	n/a	n/a	n/a	n/a	11	[-999, -999, -999]	-999	PAL1	3	R1365N
1248.975	5.867	1249972	PROB	5834	-999	-999	n/a	n/a	n/a	n/a	11	[5, 4, 8]	17	PAL1	3	R1365N
1254.842	4.7	1255839	PROB	4670	-999	-999	n/a	n/a	n/a	n/a	11	[3, 9, 3]	15	PAL1	3	R1365N
1259.542	4.818	1260539	PROB	4786	-999	-999	n/a	n/a	n/a	n/a	11	[3, 5, 8]	16	PAL1	3	R1365N
1264.36	4.184	1265357	PROB	4152	-999	-999	n/a	n/a	n/a	n/a	11	[8, 4, 5]	17	PAL1	3	R1365N
1268.544	4.593	1269541	PROB	4593	-999	-999	n/a	n/a	n/a	n/a	11	[6, 1, 2]	9	PAL1	3	R1365N
1273.137	0.009	1274133	STOP	n/a	-999	-999	n/a	n/a	n/a	n/a	11	[-999, -999, -999]	-999	PAL1	3	R1365N
1273.146	0.601	1274142	MATH_END	n/a	-999	-999	n/a	n/a	n/a	n/a	11	[0, 0, 0]	-999	PAL1	3	R1365N
1273.747	0.001	1274743	RETRIEVAL_START	n/a	-999	-999	n/a	n/a	n/a	n/a	11	[0, 0, 0]	-999	PAL1	3	R1365N
1273.748	0.281	1274744	ORIENT_START	n/a	-999	-999	n/a	n/a	n/a	n/a	11	[0, 0, 0]	-999	PAL1	3	R1365N
1274.029	0.672	1275025	ORIENT_END	n/a	-999	-999	n/a	n/a	n/a	n/a	11	[0, 0, 0]	-999	PAL1	3	R1365N
1274.701	0.0	1275697	REC_START	n/a	5	1	FLAG	n/a	FLAG	TRAIN	11	[0, 0, 0]	-999	PAL1	3	R1365N
1274.701	4.029	1275697	PROBE_START	n/a	5	1	FLAG	n/a	FLAG	TRAIN	11	[0, 0, 0]	-999	PAL1	3	R1365N
1278.73	1.001	1279726	PROBE_END	n/a	5	1	FLAG	n/a	FLAG	TRAIN	11	[0, 0, 0]	-999	PAL1	3	R1365N
1279.731	0.011	1280727	REC_END	n/a	5	1	FLAG	n/a	FLAG	TRAIN	11	[0, 0, 0]	-999	PAL1	3	R1365N
1279.742	0.271	1280738	ORIENT_START	n/a	-999	-999	n/a	n/a	n/a	n/a	11	[0, 0, 0]	-999	PAL1	3	R1365N
1280.013	0.667	1281009	ORIENT_END	n/a	-999	-999	n/a	n/a	n/a	n/a	11	[0, 0, 0]	-999	PAL1	3	R1365N
1280.68	0.0	1281676	REC_EVENT	5979	5	1	FLAG	<>	FLAG	TRAIN	11	[0, 0, 0]	-999	PAL1	3	R1365N
1280.68	0.001	1281676	REC_START	n/a	6	2	BAND	n/a	BAND	MAIL	11	[0, 0, 0]	-999	PAL1	3	R1365N
1280.681	4.033	1281677	PROBE_START	n/a	6	2	BAND	n/a	BAND	MAIL	11	[0, 0, 0]	-999	PAL1	3	R1365N
1284.714	1.0	1285710	PROBE_END	n/a	6	2	BAND	n/a	BAND	MAIL	11	[0, 0, 0]	-999	PAL1	3	R1365N
1285.714	0.011	1286710	REC_END	n/a	6	2	BAND	n/a	BAND	MAIL	11	[0, 0, 0]	-999	PAL1	3	R1365N
1285.725	0.273	1286721	ORIENT_START	n/a	-999	-999	n/a	n/a	n/a	n/a	11	[0, 0, 0]	-999	PAL1	3	R1365N
1285.998	0.533	1286994	ORIENT_END	n/a	-999	-999	n/a	n/a	n/a	n/a	11	[0, 0, 0]	-999	PAL1	3	R1365N
1286.531	0.0	1287527	REC_START	n/a	1	3	OAK	TOOL	TOOL	OAK	11	[0, 0, 0]	-999	PAL1	3	R1365N
1286.531	0.123	1287527	PROBE_START	n/a	1	3	OAK	TOOL	TOOL	OAK	11	[0, 0, 0]	-999	PAL1	3	R1365N
1286.654	1.729	1287650	REC_EVENT	5973	6	2	BAND	<>	BAND	MAIL	11	[0, 0, 0]	-999	PAL1	3	R1365N
1288.383	2.181	1289379	REC_EVENT	1852	1	3	OAK	TOOL	TOOL	OAK	11	[0, 0, 0]	-999	PAL1	3	R1365N
1290.564	1.001	1291560	PROBE_END	n/a	1	3	OAK	n/a	TOOL	OAK	11	[0, 0, 0]	-999	PAL1	3	R1365N
1291.565	0.011	1292561	REC_END	n/a	1	3	OAK	n/a	TOOL	OAK	11	[0, 0, 0]	-999	PAL1	3	R1365N
1291.576	0.273	1292572	ORIENT_START	n/a	-999	-999	n/a	n/a	n/a	n/a	11	[0, 0, 0]	-999	PAL1	3	R1365N
1291.849	0.528	1292845	ORIENT_END	n/a	-999	-999	n/a	n/a	n/a	n/a	11	[0, 0, 0]	-999	PAL1	3	R1365N
1292.377	0.0	1293373	PROBE_START	n/a	4	4	DESK	n/a	LAKE	DESK	11	[0, 0, 0]	-999	PAL1	3	R1365N
1292.377	4.038	1293373	REC_START	n/a	4	4	DESK	n/a	LAKE	DESK	11	[0, 0, 0]	-999	PAL1	3	R1365N
1296.415	1.0	1297411	PROBE_END	n/a	4	4	DESK	n/a	LAKE	DESK	11	[0, 0, 0]	-999	PAL1	3	R1365N
1297.415	0.011	1298411	REC_END	n/a	4	4	DESK	n/a	LAKE	DESK	11	[0, 0, 0]	-999	PAL1	3	R1365N
1297.426	0.274	1298422	ORIENT_START	n/a	-999	-999	n/a	n/a	n/a	n/a	11	[0, 0, 0]	-999	PAL1	3	R1365N
1297.7	0.516	1298696	ORIENT_END	n/a	-999	-999	n/a	n/a	n/a	n/a	11	[0, 0, 0]	-999	PAL1	3	R1365N
1298.216	0.19	1299212	REC_EVENT	5839	4	4	DESK	<>	LAKE	DESK	11	[0, 0, 0]	-999	PAL1	3	R1365N
1298.406	0.0	1299402	REC_START	n/a	3	5	WALL	TOE	FOAM	WALL	11	[0, 0, 0]	-999	PAL1	3	R1365N
1298.406	3.445	1299402	PROBE_START	n/a	3	5	WALL	TOE	FOAM	WALL	11	[0, 0, 0]	-999	PAL1	3	R1365N
1301.851	0.582	1302846	REC_EVENT	3445	3	5	WALL	TOE	FOAM	WALL	11	[0, 0, 0]	-999	PAL1	3	R1365N
1302.433	1.0	1303428	PROBE_END	n/a	3	5	WALL	n/a	FOAM	WALL	11	[0, 0, 0]	-999	PAL1	3	R1365N
1303.433	0.014	1304428	REC_END	n/a	3	5	WALL	n/a	FOAM	WALL	11	[0, 0, 0]	-999	PAL1	3	R1365N
1303.447	0.27	1304442	ORIENT_START	n/a	-999	-999	n/a	n/a	n/a	n/a	11	[0, 0, 0]	-999	PAL1	3	R1365N
1303.717	0.705	1304712	ORIENT_END	n/a	-999	-999	n/a	n/a	n/a	n/a	11	[0, 0, 0]	-999	PAL1	3	R1365N
1304.422	0.001	1305417	REC_START	n/a	2	6	MOUTH	n/a	MOUTH	STORE	11	[0, 0, 0]	-999	PAL1	3	R1365N
1304.423	4.027	1305418	PROBE_START	n/a	2	6	MOUTH	n/a	MOUTH	STORE	11	[0, 0, 0]	-999	PAL1	3	R1365N
1308.45	1.001	1309445	PROBE_END	n/a	2	6	MOUTH	n/a	MOUTH	STORE	11	[0, 0, 0]	-999	PAL1	3	R1365N
1309.451	0.012	1310446	REC_END	n/a	2	6	MOUTH	n/a	MOUTH	STORE	11	[0, 0, 0]	-999	PAL1	3	R1365N
1309.463	0.0	1310458	RETRIEVAL_END	n/a	-999	-999	n/a	n/a	n/a	n/a	11	[0, 0, 0]	-999	PAL1	3	R1365N
1309.463	0.02	1310458	TRIAL_END	n/a	-999	-999	n/a	n/a	n/a	n/a	11	[0, 0, 0]	-999	PAL1	3	R1365N
1309.483	0.0	1310478	TRIAL_START	n/a	-999	-999	n/a	n/a	n/a	n/a	11	[0, 0, 0]	-999	PAL1	3	R1365N
1309.483	0.0	1310478	TRIAL	n/a	-999	-999	n/a	n/a	n/a	n/a	12	[0, 0, 0]	-999	PAL1	3	R1365N
1309.483	0.942	1310478	WAITING_START	n/a	-999	-999	n/a	n/a	n/a	n/a	12	[0, 0, 0]	-999	PAL1	3	R1365N
1310.425	2.844	1311420	REC_EVENT	6002	2	6	MOUTH	<>	MOUTH	STORE	11	[0, 0, 0]	-999	PAL1	3	R1365N
1313.269	0.0	1314264	WAITING_END	n/a	-999	-999	n/a	n/a	n/a	n/a	12	[0, 0, 0]	-999	PAL1	3	R1365N
1313.269	10.429	1314264	COUNTDOWN_START	n/a	-999	-999	n/a	n/a	n/a	n/a	12	[0, 0, 0]	-999	PAL1	3	R1365N
1323.698	0.001	1324693	COUNTDOWN_END	n/a	-999	-999	n/a	n/a	n/a	n/a	12	[0, 0, 0]	-999	PAL1	3	R1365N
1323.699	0.621	1324694	ORIENT_START	n/a	-999	-999	n/a	n/a	n/a	n/a	12	[0, 0, 0]	-999	PAL1	3	R1365N
1324.32	0.0	1325315	ENCODING_START	n/a	-999	-999	n/a	n/a	n/a	n/a	12	[0, 0, 0]	-999	PAL1	3	R1365N
1324.32	1.225	1325315	ORIENT_END	n/a	-999	-999	n/a	n/a	n/a	n/a	12	[0, 0, 0]	-999	PAL1	3	R1365N
1325.545	4.026	1326540	STUDY_PAIR	n/a	1	-999	n/a	VINE	BROOM	VEST	12	[0, 0, 0]	-999	PAL1	3	R1365N
1329.571	0.531	1330565	STUDY_PAIR_OFF	n/a	1	-999	n/a	VINE	BROOM	VEST	12	[0, 0, 0]	-999	PAL1	3	R1365N
1330.102	4.037	1331096	STUDY_PAIR	n/a	2	-999	n/a	SEA	SEA	SPEAR	12	[0, 0, 0]	-999	PAL1	3	R1365N
1334.139	0.57	1335133	STUDY_PAIR_OFF	n/a	2	-999	n/a	SEA	SEA	SPEAR	12	[0, 0, 0]	-999	PAL1	3	R1365N
1334.709	4.031	1335703	STUDY_PAIR	n/a	3	-999	n/a	BOAT	BEAR	SHIP	12	[0, 0, 0]	-999	PAL1	3	R1365N
1338.74	0.683	1339734	STUDY_PAIR_OFF	n/a	3	-999	n/a	BOAT	BEAR	SHIP	12	[0, 0, 0]	-999	PAL1	3	R1365N
1339.423	4.033	1340417	STUDY_PAIR	n/a	4	-999	n/a	n/a	STRING	PIPE	12	[0, 0, 0]	-999	PAL1	3	R1365N
1343.456	0.704	1344450	STUDY_PAIR_OFF	n/a	4	-999	n/a	n/a	STRING	PIPE	12	[0, 0, 0]	-999	PAL1	3	R1365N
1344.16	4.031	1345154	STUDY_PAIR	n/a	5	-999	n/a	PLANT	MAZE	PLANT	12	[0, 0, 0]	-999	PAL1	3	R1365N
1348.191	0.612	1349185	STUDY_PAIR_OFF	n/a	5	-999	n/a	PLANT	MAZE	PLANT	12	[0, 0, 0]	-999	PAL1	3	R1365N
1348.803	4.039	1349797	STUDY_PAIR	n/a	6	-999	n/a	SEA	SHELL	ROPE	12	[0, 0, 0]	-999	PAL1	3	R1365N
1352.842	0.001	1353836	STUDY_PAIR_OFF	n/a	6	-999	n/a	SEA	SHELL	ROPE	12	[0, 0, 0]	-999	PAL1	3	R1365N
1352.843	0.0	1353837	MATH_START	n/a	-999	-999	n/a	n/a	n/a	n/a	12	[0, 0, 0]	-999	PAL1	3	R1365N
1352.843	0.0	1353837	ENCODING_END	n/a	-999	-999	n/a	n/a	n/a	n/a	12	[0, 0, 0]	-999	PAL1	3	R1365N
1352.843	0.016	1353837	START	n/a	-999	-999	n/a	n/a	n/a	n/a	12	[-999, -999, -999]	-999	PAL1	3	R1365N
1352.859	5.75	1353853	PROB	5716	-999	-999	n/a	n/a	n/a	n/a	12	[6, 3, 5]	14	PAL1	3	R1365N
1358.609	5.068	1359603	PROB	5031	-999	-999	n/a	n/a	n/a	n/a	12	[8, 4, 5]	17	PAL1	3	R1365N
1363.677	9.316	1364670	PROB	9316	-999	-999	n/a	n/a	n/a	n/a	12	[9, 7, 6]	22	PAL1	3	R1365N
1372.993	0.019	1373986	STOP	n/a	-999	-999	n/a	n/a	n/a	n/a	12	[-999, -999, -999]	-999	PAL1	3	R1365N
1373.012	0.514	1374005	MATH_END	n/a	-999	-999	n/a	n/a	n/a	n/a	12	[0, 0, 0]	-999	PAL1	3	R1365N
1373.526	0.002	1374519	RETRIEVAL_START	n/a	-999	-999	n/a	n/a	n/a	n/a	12	[0, 0, 0]	-999	PAL1	3	R1365N
1373.528	0.284	1374521	ORIENT_START	n/a	-999	-999	n/a	n/a	n/a	n/a	12	[0, 0, 0]	-999	PAL1	3	R1365N
1373.812	0.502	1374805	ORIENT_END	n/a	-999	-999	n/a	n/a	n/a	n/a	12	[0, 0, 0]	-999	PAL1	3	R1365N
1374.314	0.0	1375307	REC_START	n/a	5	1	MAZE	PLANT	MAZE	PLANT	12	[0, 0, 0]	-999	PAL1	3	R1365N
1374.314	1.735	1375307	PROBE_START	n/a	5	1	MAZE	PLANT	MAZE	PLANT	12	[0, 0, 0]	-999	PAL1	3	R1365N
1376.049	0.786	1377042	REC_EVENT	1735	5	1	MAZE	PLANT	MAZE	PLANT	12	[0, 0, 0]	-999	PAL1	3	R1365N
1376.835	1.51	1377828	REC_EVENT	2521	5	1	MAZE	PLANT	MAZE	PLANT	12	[0, 0, 0]	-999	PAL1	3	R1365N
1378.345	1.0	1379338	PROBE_END	n/a	5	1	MAZE	n/a	MAZE	PLANT	12	[0, 0, 0]	-999	PAL1	3	R1365N
1379.345	0.012	1380338	REC_END	n/a	5	1	MAZE	n/a	MAZE	PLANT	12	[0, 0, 0]	-999	PAL1	3	R1365N
1379.357	0.272	1380350	ORIENT_START	n/a	-999	-999	n/a	n/a	n/a	n/a	12	[0, 0, 0]	-999	PAL1	3	R1365N
1379.629	0.614	1380622	ORIENT_END	n/a	-999	-999	n/a	n/a	n/a	n/a	12	[0, 0, 0]	-999	PAL1	3	R1365N
1380.243	0.0	1381236	PROBE_START	n/a	6	2	SHELL	SEA	SHELL	ROPE	12	[0, 0, 0]	-999	PAL1	3	R1365N
1380.243	3.993	1381236	REC_START	n/a	6	2	SHELL	SEA	SHELL	ROPE	12	[0, 0, 0]	-999	PAL1	3	R1365N
1384.236	0.044	1385229	REC_EVENT	3993	6	2	SHELL	SEA	SHELL	ROPE	12	[0, 0, 0]	-999	PAL1	3	R1365N
1384.28	1.0	1385273	PROBE_END	n/a	6	2	SHELL	n/a	SHELL	ROPE	12	[0, 0, 0]	-999	PAL1	3	R1365N
1385.28	0.013	1386273	REC_END	n/a	6	2	SHELL	n/a	SHELL	ROPE	12	[0, 0, 0]	-999	PAL1	3	R1365N
1385.293	0.27	1386286	ORIENT_START	n/a	-999	-999	n/a	n/a	n/a	n/a	12	[0, 0, 0]	-999	PAL1	3	R1365N
1385.563	0.704	1386556	ORIENT_END	n/a	-999	-999	n/a	n/a	n/a	n/a	12	[0, 0, 0]	-999	PAL1	3	R1365N
1386.267	0.0	1387260	REC_START	n/a	1	3	BROOM	VINE	BROOM	VEST	12	[0, 0, 0]	-999	PAL1	3	R1365N
1386.267	2.873	1387260	PROBE_START	n/a	1	3	BROOM	VINE	BROOM	VEST	12	[0, 0, 0]	-999	PAL1	3	R1365N
1389.14	1.157	1390133	REC_EVENT	2873	1	3	BROOM	VINE	BROOM	VEST	12	[0, 0, 0]	-999	PAL1	3	R1365N
1390.297	1.0	1391289	PROBE_END	n/a	1	3	BROOM	n/a	BROOM	VEST	12	[0, 0, 0]	-999	PAL1	3	R1365N
1391.297	0.012	1392289	REC_END	n/a	1	3	BROOM	n/a	BROOM	VEST	12	[0, 0, 0]	-999	PAL1	3	R1365N
1391.309	0.272	1392301	ORIENT_START	n/a	-999	-999	n/a	n/a	n/a	n/a	12	[0, 0, 0]	-999	PAL1	3	R1365N
1391.581	0.558	1392573	ORIENT_END	n/a	-999	-999	n/a	n/a	n/a	n/a	12	[0, 0, 0]	-999	PAL1	3	R1365N
1392.139	0.001	1393131	REC_START	n/a	2	4	SPEAR	SEA	SEA	SPEAR	12	[0, 0, 0]	-999	PAL1	3	R1365N
1392.14	2.44	1393132	PROBE_START	n/a	2	4	SPEAR	SEA	SEA	SPEAR	12	[0, 0, 0]	-999	PAL1	3	R1365N
1394.58	0.524	1395572	REC_EVENT	2440	2	4	SPEAR	<>	SEA	SPEAR	12	[0, 0, 0]	-999	PAL1	3	R1365N
1395.104	1.062	1396096	REC_EVENT	2964	2	4	SPEAR	SEA	SEA	SPEAR	12	[0, 0, 0]	-999	PAL1	3	R1365N
1396.166	1.001	1397158	PROBE_END	n/a	2	4	SPEAR	n/a	SEA	SPEAR	12	[0, 0, 0]	-999	PAL1	3	R1365N
1397.167	0.011	1398159	REC_END	n/a	2	4	SPEAR	n/a	SEA	SPEAR	12	[0, 0, 0]	-999	PAL1	3	R1365N
1397.178	0.271	1398170	ORIENT_START	n/a	-999	-999	n/a	n/a	n/a	n/a	12	[0, 0, 0]	-999	PAL1	3	R1365N
1397.449	0.644	1398441	ORIENT_END	n/a	-999	-999	n/a	n/a	n/a	n/a	12	[0, 0, 0]	-999	PAL1	3	R1365N
1398.093	0.001	1399085	REC_START	n/a	3	5	SHIP	BOAT	BEAR	SHIP	12	[0, 0, 0]	-999	PAL1	3	R1365N
1398.094	2.36	1399086	PROBE_START	n/a	3	5	SHIP	BOAT	BEAR	SHIP	12	[0, 0, 0]	-999	PAL1	3	R1365N
1400.454	1.663	1401446	REC_EVENT	2360	3	5	SHIP	BOAT	BEAR	SHIP	12	[0, 0, 0]	-999	PAL1	3	R1365N
1402.117	1.0	1403109	PROBE_END	n/a	3	5	SHIP	n/a	BEAR	SHIP	12	[0, 0, 0]	-999	PAL1	3	R1365N
1403.117	0.012	1404109	REC_END	n/a	3	5	SHIP	n/a	BEAR	SHIP	12	[0, 0, 0]	-999	PAL1	3	R1365N
1403.129	0.271	1404121	ORIENT_START	n/a	-999	-999	n/a	n/a	n/a	n/a	12	[0, 0, 0]	-999	PAL1	3	R1365N
1403.4	0.536	1404392	ORIENT_END	n/a	-999	-999	n/a	n/a	n/a	n/a	12	[0, 0, 0]	-999	PAL1	3	R1365N
1403.936	0.001	1404928	REC_START	n/a	4	6	PIPE	n/a	STRING	PIPE	12	[0, 0, 0]	-999	PAL1	3	R1365N
1403.937	4.031	1404929	PROBE_START	n/a	4	6	PIPE	n/a	STRING	PIPE	12	[0, 0, 0]	-999	PAL1	3	R1365N
1407.968	1.001	1408960	PROBE_END	n/a	4	6	PIPE	n/a	STRING	PIPE	12	[0, 0, 0]	-999	PAL1	3	R1365N
1408.969	0.01	1409961	REC_END	n/a	4	6	PIPE	n/a	STRING	PIPE	12	[0, 0, 0]	-999	PAL1	3	R1365N
1408.979	0.0	1409971	RETRIEVAL_END	n/a	-999	-999	n/a	n/a	n/a	n/a	12	[0, 0, 0]	-999	PAL1	3	R1365N
1408.979	0.02	1409971	TRIAL_END	n/a	-999	-999	n/a	n/a	n/a	n/a	12	[0, 0, 0]	-999	PAL1	3	R1365N
1408.999	0.0	1409991	TRIAL_START	n/a	-999	-999	n/a	n/a	n/a	n/a	12	[0, 0, 0]	-999	PAL1	3	R1365N
1408.999	0.0	1409991	TRIAL	n/a	-999	-999	n/a	n/a	n/a	n/a	13	[0, 0, 0]	-999	PAL1	3	R1365N
1408.999	0.783	1409991	WAITING_START	n/a	-999	-999	n/a	n/a	n/a	n/a	13	[0, 0, 0]	-999	PAL1	3	R1365N
1409.782	3.954	1410774	REC_EVENT	5845	4	6	PIPE	<>	STRING	PIPE	12	[0, 0, 0]	-999	PAL1	3	R1365N
1413.736	0.0	1414728	WAITING_END	n/a	-999	-999	n/a	n/a	n/a	n/a	13	[0, 0, 0]	-999	PAL1	3	R1365N
1413.736	10.43	1414728	COUNTDOWN_START	n/a	-999	-999	n/a	n/a	n/a	n/a	13	[0, 0, 0]	-999	PAL1	3	R1365N
1424.166	0.0	1425157	COUNTDOWN_END	n/a	-999	-999	n/a	n/a	n/a	n/a	13	[0, 0, 0]	-999	PAL1	3	R1365N
1424.166	0.688	1425157	ORIENT_START	n/a	-999	-999	n/a	n/a	n/a	n/a	13	[0, 0, 0]	-999	PAL1	3	R1365N
1424.854	0.001	1425845	ORIENT_END	n/a	-999	-999	n/a	n/a	n/a	n/a	13	[0, 0, 0]	-999	PAL1	3	R1365N
1424.855	1.209	1425846	ENCODING_START	n/a	-999	-999	n/a	n/a	n/a	n/a	13	[0, 0, 0]	-999	PAL1	3	R1365N
1426.064	4.024	1427055	STUDY_PAIR	n/a	1	-999	n/a	MOTH	STOVE	MILK	13	[0, 0, 0]	-999	PAL1	3	R1365N
1430.088	0.536	1431079	STUDY_PAIR_OFF	n/a	1	-999	n/a	MOTH	STOVE	MILK	13	[0, 0, 0]	-999	PAL1	3	R1365N
1430.624	4.031	1431615	STUDY_PAIR	n/a	2	-999	n/a	STENCH	SINK	BENCH	13	[0, 0, 0]	-999	PAL1	3	R1365N
1434.655	0.636	1435646	STUDY_PAIR_OFF	n/a	2	-999	n/a	STENCH	SINK	BENCH	13	[0, 0, 0]	-999	PAL1	3	R1365N
1435.291	4.031	1436282	STUDY_PAIR	n/a	3	-999	n/a	n/a	MOON	WORLD	13	[0, 0, 0]	-999	PAL1	3	R1365N
1439.322	0.681	1440313	STUDY_PAIR_OFF	n/a	3	-999	n/a	n/a	MOON	WORLD	13	[0, 0, 0]	-999	PAL1	3	R1365N
1440.003	4.038	1440994	STUDY_PAIR	n/a	4	-999	n/a	DRUM	MOTH	THREAD	13	[0, 0, 0]	-999	PAL1	3	R1365N
1444.041	0.608	1445032	STUDY_PAIR_OFF	n/a	4	-999	n/a	DRUM	MOTH	THREAD	13	[0, 0, 0]	-999	PAL1	3	R1365N
1444.649	4.026	1445640	STUDY_PAIR	n/a	5	-999	n/a	CHEEK	CHEEK	RIB	13	[0, 0, 0]	-999	PAL1	3	R1365N
1448.675	0.677	1449666	STUDY_PAIR_OFF	n/a	5	-999	n/a	CHEEK	CHEEK	RIB	13	[0, 0, 0]	-999	PAL1	3	R1365N
1449.352	4.039	1450342	STUDY_PAIR	n/a	6	-999	n/a	n/a	SKI	HORSE	13	[0, 0, 0]	-999	PAL1	3	R1365N
1453.391	0.001	1454381	STUDY_PAIR_OFF	n/a	6	-999	n/a	n/a	SKI	HORSE	13	[0, 0, 0]	-999	PAL1	3	R1365N
1453.392	0.0	1454382	ENCODING_END	n/a	-999	-999	n/a	n/a	n/a	n/a	13	[0, 0, 0]	-999	PAL1	3	R1365N
1453.392	0.0	1454382	MATH_START	n/a	-999	-999	n/a	n/a	n/a	n/a	13	[0, 0, 0]	-999	PAL1	3	R1365N
1453.392	0.016	1454382	START	n/a	-999	-999	n/a	n/a	n/a	n/a	13	[-999, -999, -999]	-999	PAL1	3	R1365N
1453.408	4.851	1454398	PROB	4817	-999	-999	n/a	n/a	n/a	n/a	13	[5, 1, 3]	9	PAL1	3	R1365N
1458.259	6.968	1459249	PROB	6933	-999	-999	n/a	n/a	n/a	n/a	13	[8, 7, 4]	19	PAL1	3	R1365N
1465.227	8.965	1466217	PROB	8965	-999	-999	n/a	n/a	n/a	n/a	13	[6, 5, 2]	13	PAL1	3	R1365N
1474.192	0.02	1475182	STOP	n/a	-999	-999	n/a	n/a	n/a	n/a	13	[-999, -999, -999]	-999	PAL1	3	R1365N
1474.212	0.677	1475202	MATH_END	n/a	-999	-999	n/a	n/a	n/a	n/a	13	[0, 0, 0]	-999	PAL1	3	R1365N
1474.889	0.001	1475879	RETRIEVAL_START	n/a	-999	-999	n/a	n/a	n/a	n/a	13	[0, 0, 0]	-999	PAL1	3	R1365N
1474.89	0.272	1475880	ORIENT_START	n/a	-999	-999	n/a	n/a	n/a	n/a	13	[0, 0, 0]	-999	PAL1	3	R1365N
1475.162	0.596	1476152	ORIENT_END	n/a	-999	-999	n/a	n/a	n/a	n/a	13	[0, 0, 0]	-999	PAL1	3	R1365N
1475.758	0.0	1476748	REC_START	n/a	1	1	STOVE	MOTH	STOVE	MILK	13	[0, 0, 0]	-999	PAL1	3	R1365N
1475.758	3.104	1476748	PROBE_START	n/a	1	1	STOVE	MOTH	STOVE	MILK	13	[0, 0, 0]	-999	PAL1	3	R1365N
1478.862	0.934	1479852	REC_EVENT	3104	1	1	STOVE	MOTH	STOVE	MILK	13	[0, 0, 0]	-999	PAL1	3	R1365N
1479.796	1.001	1480785	PROBE_END	n/a	1	1	STOVE	n/a	STOVE	MILK	13	[0, 0, 0]	-999	PAL1	3	R1365N
1480.797	0.011	1481786	REC_END	n/a	1	1	STOVE	n/a	STOVE	MILK	13	[0, 0, 0]	-999	PAL1	3	R1365N
1480.808	0.272	1481797	ORIENT_START	n/a	-999	-999	n/a	n/a	n/a	n/a	13	[0, 0, 0]	-999	PAL1	3	R1365N
1481.08	0.574	1482069	ORIENT_END	n/a	-999	-999	n/a	n/a	n/a	n/a	13	[0, 0, 0]	-999	PAL1	3	R1365N
1481.654	0.0	1482643	REC_START	n/a	4	2	MOTH	DRUM	MOTH	THREAD	13	[0, 0, 0]	-999	PAL1	3	R1365N
1481.654	3.169	1482643	PROBE_START	n/a	4	2	MOTH	DRUM	MOTH	THREAD	13	[0, 0, 0]	-999	PAL1	3	R1365N
1484.823	0.858	1485812	REC_EVENT	3169	4	2	MOTH	DRUM	MOTH	THREAD	13	[0, 0, 0]	-999	PAL1	3	R1365N
1485.681	1.001	1486670	PROBE_END	n/a	4	2	MOTH	n/a	MOTH	THREAD	13	[0, 0, 0]	-999	PAL1	3	R1365N
1486.682	0.012	1487671	REC_END	n/a	4	2	MOTH	n/a	MOTH	THREAD	13	[0, 0, 0]	-999	PAL1	3	R1365N
1486.694	0.054	1487683	ORIENT_START	n/a	-999	-999	n/a	n/a	n/a	n/a	13	[0, 0, 0]	-999	PAL1	3	R1365N
1486.748	0.216	1487737	REC_EVENT	5094	4	2	MOTH	<>	MOTH	THREAD	13	[0, 0, 0]	-999	PAL1	3	R1365N
1486.964	0.519	1487953	ORIENT_END	n/a	-999	-999	n/a	n/a	n/a	n/a	13	[0, 0, 0]	-999	PAL1	3	R1365N
1487.483	0.001	1488472	REC_START	n/a	5	3	RIB	CHEEK	CHEEK	RIB	13	[0, 0, 0]	-999	PAL1	3	R1365N
1487.484	2.104	1488473	PROBE_START	n/a	5	3	RIB	CHEEK	CHEEK	RIB	13	[0, 0, 0]	-999	PAL1	3	R1365N
1489.588	0.907	1490577	REC_EVENT	2104	5	3	RIB	CHEST	CHEEK	RIB	13	[0, 0, 0]	-999	PAL1	3	R1365N
1490.495	1.019	1491484	REC_EVENT	3011	5	3	RIB	CHEEK	CHEEK	RIB	13	[0, 0, 0]	-999	PAL1	3	R1365N
1491.514	1.001	1492503	PROBE_END	n/a	5	3	RIB	n/a	CHEEK	RIB	13	[0, 0, 0]	-999	PAL1	3	R1365N
1492.515	0.012	1493504	REC_END	n/a	5	3	RIB	n/a	CHEEK	RIB	13	[0, 0, 0]	-999	PAL1	3	R1365N
1492.527	0.272	1493516	ORIENT_START	n/a	-999	-999	n/a	n/a	n/a	n/a	13	[0, 0, 0]	-999	PAL1	3	R1365N
1492.799	0.544	1493788	ORIENT_END	n/a	-999	-999	n/a	n/a	n/a	n/a	13	[0, 0, 0]	-999	PAL1	3	R1365N
1493.343	0.001	1494332	REC_START	n/a	2	4	BENCH	STENCH	SINK	BENCH	13	[0, 0, 0]	-999	PAL1	3	R1365N
1493.344	3.665	1494333	PROBE_START	n/a	2	4	BENCH	STENCH	SINK	BENCH	13	[0, 0, 0]	-999	PAL1	3	R1365N
1497.009	0.373	1497998	REC_EVENT	3665	2	4	BENCH	STENCH	SINK	BENCH	13	[0, 0, 0]	-999	PAL1	3	R1365N
1497.382	1.001	1498371	PROBE_END	n/a	2	4	BENCH	n/a	SINK	BENCH	13	[0, 0, 0]	-999	PAL1	3	R1365N
1498.383	0.011	1499372	REC_END	n/a	2	4	BENCH	n/a	SINK	BENCH	13	[0, 0, 0]	-999	PAL1	3	R1365N
1498.394	0.272	1499383	ORIENT_START	n/a	-999	-999	n/a	n/a	n/a	n/a	13	[0, 0, 0]	-999	PAL1	3	R1365N
1498.666	0.748	1499655	ORIENT_END	n/a	-999	-999	n/a	n/a	n/a	n/a	13	[0, 0, 0]	-999	PAL1	3	R1365N
1499.414	0.0	1500403	REC_START	n/a	3	5	WORLD	n/a	MOON	WORLD	13	[0, 0, 0]	-999	PAL1	3	R1365N
1499.414	4.011	1500403	PROBE_START	n/a	3	5	WORLD	n/a	MOON	WORLD	13	[0, 0, 0]	-999	PAL1	3	R1365N
1503.425	0.024	1504414	REC_EVENT	4011	3	5	WORLD	<>	MOON	WORLD	13	[0, 0, 0]	-999	PAL1	3	R1365N
1503.449	1.0	1504438	PROBE_END	n/a	3	5	WORLD	n/a	MOON	WORLD	13	[0, 0, 0]	-999	PAL1	3	R1365N
1504.449	0.007	1505438	REC_END	n/a	3	5	WORLD	n/a	MOON	WORLD	13	[0, 0, 0]	-999	PAL1	3	R1365N
1504.456	0.278	1505445	ORIENT_START	n/a	-999	-999	n/a	n/a	n/a	n/a	13	[0, 0, 0]	-999	PAL1	3	R1365N
1504.734	0.65	1505723	ORIENT_END	n/a	-999	-999	n/a	n/a	n/a	n/a	13	[0, 0, 0]	-999	PAL1	3	R1365N
1505.384	0.001	1506373	REC_START	n/a	6	6	SKI	n/a	SKI	HORSE	13	[0, 0, 0]	-999	PAL1	3	R1365N
1505.385	4.032	1506374	PROBE_START	n/a	6	6	SKI	n/a	SKI	HORSE	13	[0, 0, 0]	-999	PAL1	3	R1365N
1509.417	1.001	1510405	PROBE_END	n/a	6	6	SKI	n/a	SKI	HORSE	13	[0, 0, 0]	-999	PAL1	3	R1365N
1510.418	0.011	1511406	REC_END	n/a	6	6	SKI	n/a	SKI	HORSE	13	[0, 0, 0]	-999	PAL1	3	R1365N
1510.429	0.0	1511417	RETRIEVAL_END	n/a	-999	-999	n/a	n/a	n/a	n/a	13	[0, 0, 0]	-999	PAL1	3	R1365N
1510.429	0.021	1511417	TRIAL_END	n/a	-999	-999	n/a	n/a	n/a	n/a	13	[0, 0, 0]	-999	PAL1	3	R1365N
1510.45	0.0	1511438	TRIAL_START	n/a	-999	-999	n/a	n/a	n/a	n/a	13	[0, 0, 0]	-999	PAL1	3	R1365N
1510.45	0.0	1511438	TRIAL	n/a	-999	-999	n/a	n/a	n/a	n/a	14	[0, 0, 0]	-999	PAL1	3	R1365N
1510.45	0.896	1511438	WAITING_START	n/a	-999	-999	n/a	n/a	n/a	n/a	14	[0, 0, 0]	-999	PAL1	3	R1365N
1511.346	2.255	1512334	REC_EVENT	5961	6	6	SKI	<>	SKI	HORSE	13	[0, 0, 0]	-999	PAL1	3	R1365N
1513.601	0.001	1514589	WAITING_END	n/a	-999	-999	n/a	n/a	n/a	n/a	14	[0, 0, 0]	-999	PAL1	3	R1365N
1513.602	10.429	1514590	COUNTDOWN_START	n/a	-999	-999	n/a	n/a	n/a	n/a	14	[0, 0, 0]	-999	PAL1	3	R1365N
1524.031	0.0	1525019	COUNTDOWN_END	n/a	-999	-999	n/a	n/a	n/a	n/a	14	[0, 0, 0]	-999	PAL1	3	R1365N
