onset	duration	sample	trial_type	response_time	stim_file	serialpos	probepos	probe_word	resp_word	study_1	study_2	list	test	answer	experiment	session	subject
0.0	100.082	336434	INSTRUCT_VIDEO_ON	n/a	n/a	-999	-999	n/a	n/a	n/a	n/a	-999	[0, 0, 0]	-999	PAL1	3	R1196N
100.082	0.0	436512	INSTRUCT_VIDEO_ON	n/a	n/a	-999	-999	n/a	n/a	n/a	n/a	-999	[0, 0, 0]	-999	PAL1	3	R1196N
100.082	5.561	436512	INSTRUCT_VIDEO_OFF	n/a	n/a	-999	-999	n/a	n/a	n/a	n/a	-999	[0, 0, 0]	-999	PAL1	3	R1196N
105.643	0.0	442072	SESS_START	n/a	n/a	-999	-999	n/a	n/a	n/a	n/a	-999	[0, 0, 0]	-999	PAL1	3	R1196N
105.643	46.0	442072	MIC_TEST	n/a	n/a	-999	-999	n/a	n/a	n/a	n/a	-999	[0, 0, 0]	-999	PAL1	3	R1196N
151.643	13.343	488071	PRACTICE_TRIAL	n/a	n/a	-999	-999	n/a	n/a	n/a	n/a	-1	[0, 0, 0]	-999	PAL1	3	R1196N
164.986	0.007	501413	ENCODING_START	n/a	n/a	-999	-999	n/a	n/a	n/a	n/a	-1	[0, 0, 0]	-999	PAL1	3	R1196N
164.993	0.267	501420	PRACTICE_ORIENT	n/a	n/a	1	3	BEAM	ATTIC	BEAM	ATTIC	-1	[0, 0, 0]	-999	PAL1	3	R1196N
165.26	0.7	501687	PRACTICE_ORIENT_OFF	n/a	n/a	1	3	BEAM	ATTIC	BEAM	ATTIC	-1	[0, 0, 0]	-999	PAL1	3	R1196N
165.96	4.0	502387	PRACTICE_PAIR	n/a	n/a	1	3	BEAM	ATTIC	BEAM	ATTIC	-1	[0, 0, 0]	-999	PAL1	3	R1196N
169.977	1.017	506404	PRACTICE_PAIR_OFF	n/a	n/a	1	3	BEAM	ATTIC	BEAM	ATTIC	-1	[0, 0, 0]	-999	PAL1	3	R1196N
170.994	0.267	507421	PRACTICE_ORIENT	n/a	n/a	2	2	TONGUE	WAGON	WAGON	TONGUE	-1	[0, 0, 0]	-999	PAL1	3	R1196N
171.261	0.683	507688	PRACTICE_ORIENT_OFF	n/a	n/a	2	2	TONGUE	WAGON	WAGON	TONGUE	-1	[0, 0, 0]	-999	PAL1	3	R1196N
171.944	4.0	508371	PRACTICE_PAIR	n/a	n/a	2	2	TONGUE	WAGON	WAGON	TONGUE	-1	[0, 0, 0]	-999	PAL1	3	R1196N
175.962	1.017	512389	PRACTICE_PAIR_OFF	n/a	n/a	2	2	TONGUE	WAGON	WAGON	TONGUE	-1	[0, 0, 0]	-999	PAL1	3	R1196N
176.979	0.266	513406	PRACTICE_ORIENT	n/a	n/a	3	5	CAMEL	n/a	CAMEL	WATCH	-1	[0, 0, 0]	-999	PAL1	3	R1196N
177.245	0.65	513672	PRACTICE_ORIENT_OFF	n/a	n/a	3	5	CAMEL	n/a	CAMEL	WATCH	-1	[0, 0, 0]	-999	PAL1	3	R1196N
177.895	4.0	514321	PRACTICE_PAIR	n/a	n/a	3	5	CAMEL	n/a	CAMEL	WATCH	-1	[0, 0, 0]	-999	PAL1	3	R1196N
181.913	1.017	518339	PRACTICE_PAIR_OFF	n/a	n/a	3	5	CAMEL	n/a	CAMEL	WATCH	-1	[0, 0, 0]	-999	PAL1	3	R1196N
182.93	0.266	519356	PRACTICE_ORIENT	n/a	n/a	4	4	FLOOD	IRON	FLOOD	IRON	-1	[0, 0, 0]	-999	PAL1	3	R1196N
183.196	0.616	519622	PRACTICE_ORIENT_OFF	n/a	n/a	4	4	FLOOD	IRON	FLOOD	IRON	-1	[0, 0, 0]	-999	PAL1	3	R1196N
183.812	4.0	520238	PRACTICE_PAIR	n/a	n/a	4	4	FLOOD	IRON	FLOOD	IRON	-1	[0, 0, 0]	-999	PAL1	3	R1196N
187.829	1.017	524255	PRACTICE_PAIR_OFF	n/a	n/a	4	4	FLOOD	IRON	FLOOD	IRON	-1	[0, 0, 0]	-999	PAL1	3	R1196N
188.846	0.251	525272	PRACTICE_ORIENT	n/a	n/a	5	1	COTTON	RING	RING	COTTON	-1	[0, 0, 0]	-999	PAL1	3	R1196N
189.097	0.584	525523	PRACTICE_ORIENT_OFF	n/a	n/a	5	1	COTTON	RING	RING	COTTON	-1	[0, 0, 0]	-999	PAL1	3	R1196N
189.681	4.0	526107	PRACTICE_PAIR	n/a	n/a	5	1	COTTON	RING	RING	COTTON	-1	[0, 0, 0]	-999	PAL1	3	R1196N
193.698	1.017	530124	PRACTICE_PAIR_OFF	n/a	n/a	5	1	COTTON	RING	RING	COTTON	-1	[0, 0, 0]	-999	PAL1	3	R1196N
194.715	0.267	531141	PRACTICE_ORIENT	n/a	n/a	6	6	RHINO	CHEST	CHEST	RHINO	-1	[0, 0, 0]	-999	PAL1	3	R1196N
194.982	0.533	531408	PRACTICE_ORIENT_OFF	n/a	n/a	6	6	RHINO	CHEST	CHEST	RHINO	-1	[0, 0, 0]	-999	PAL1	3	R1196N
195.515	4.0	531941	PRACTICE_PAIR	n/a	n/a	6	6	RHINO	CHEST	CHEST	RHINO	-1	[0, 0, 0]	-999	PAL1	3	R1196N
199.532	1.0	535958	PRACTICE_PAIR_OFF	n/a	n/a	6	6	RHINO	CHEST	CHEST	RHINO	-1	[0, 0, 0]	-999	PAL1	3	R1196N
200.532	0.0	536958	ENCODING_END	n/a	n/a	-999	-999	n/a	n/a	n/a	n/a	-1	[0, 0, 0]	-999	PAL1	3	R1196N
200.532	0.0	536958	MATH_START	n/a	n/a	-999	-999	n/a	n/a	n/a	n/a	-1	[0, 0, 0]	-999	PAL1	3	R1196N
200.532	0.017	536958	START	n/a	n/a	-999	-999	n/a	n/a	n/a	n/a	-1	[-999, -999, -999]	-999	PAL1	3	R1196N
200.549	3.234	536975	PROB	3198.0	n/a	-999	-999	n/a	n/a	n/a	n/a	-1	[9, 1, 7]	17	PAL1	3	R1196N
203.783	4.884	540208	PROB	4852.0	n/a	-999	-999	n/a	n/a	n/a	n/a	-1	[4, 5, 8]	17	PAL1	3	R1196N
208.667	2.784	545092	PROB	2761.0	n/a	-999	-999	n/a	n/a	n/a	n/a	-1	[9, 7, 6]	22	PAL1	3	R1196N
211.451	2.9	547876	PROB	2873.0	n/a	-999	-999	n/a	n/a	n/a	n/a	-1	[1, 1, 7]	9	PAL1	3	R1196N
214.351	2.868	550776	PROB	2845.0	n/a	-999	-999	n/a	n/a	n/a	n/a	-1	[4, 8, 5]	17	PAL1	3	R1196N
217.219	3.648	553644	PROB	3648.0	n/a	-999	-999	n/a	n/a	n/a	n/a	-1	[5, 8, 4]	17	PAL1	3	R1196N
220.867	0.018	557292	STOP	n/a	n/a	-999	-999	n/a	n/a	n/a	n/a	-1	[-999, -999, -999]	-999	PAL1	3	R1196N
220.885	0.0	557310	MATH_END	n/a	n/a	-999	-999	n/a	n/a	n/a	n/a	-1	[0, 0, 0]	-999	PAL1	3	R1196N
220.885	0.018	557310	RECALL_START	n/a	n/a	-999	-999	n/a	n/a	n/a	n/a	-1	[0, 0, 0]	-999	PAL1	3	R1196N
220.903	0.266	557328	PRACTICE_RETRIEVAL_ORIENT	n/a	n/a	5	1	COTTON	RING	RING	COTTON	-1	[0, 0, 0]	-999	PAL1	3	R1196N
221.169	0.517	557594	PRACTICE_RETRIEVAL_ORIENT_OFF	n/a	n/a	5	1	COTTON	RING	RING	COTTON	-1	[0, 0, 0]	-999	PAL1	3	R1196N
221.686	4.0	558111	PRACTICE_PROBE	n/a	n/a	5	1	COTTON	RING	RING	COTTON	-1	[0, 0, 0]	-999	PAL1	3	R1196N
221.687	1.389	558112	REC_START	n/a	n/a	5	-999	n/a	RING	n/a	n/a	-1	[0, 0, 0]	-999	PAL1	3	R1196N
223.076	2.627	559501	REC_EVENT	1389.0	n/a	5	1	COTTON	RING	RING	COTTON	-1	[0, 0, 0]	-999	PAL1	3	R1196N
225.703	1.001	562128	PROBE_OFF	n/a	n/a	5	-999	n/a	n/a	n/a	n/a	-1	[0, 0, 0]	-999	PAL1	3	R1196N
226.704	0.016	563129	REC_END	n/a	n/a	5	-999	n/a	n/a	n/a	n/a	-1	[0, 0, 0]	-999	PAL1	3	R1196N
226.72	0.267	563145	PRACTICE_RETRIEVAL_ORIENT	n/a	n/a	2	2	TONGUE	WAGON	WAGON	TONGUE	-1	[0, 0, 0]	-999	PAL1	3	R1196N
226.987	0.683	563412	PRACTICE_RETRIEVAL_ORIENT_OFF	n/a	n/a	2	2	TONGUE	WAGON	WAGON	TONGUE	-1	[0, 0, 0]	-999	PAL1	3	R1196N
227.67	4.0	564095	PRACTICE_PROBE	n/a	n/a	2	2	TONGUE	WAGON	WAGON	TONGUE	-1	[0, 0, 0]	-999	PAL1	3	R1196N
227.671	1.362	564096	REC_START	n/a	n/a	2	-999	n/a	WAGON	n/a	n/a	-1	[0, 0, 0]	-999	PAL1	3	R1196N
229.033	2.638	565457	REC_EVENT	1362.0	n/a	2	2	TONGUE	WAGON	WAGON	TONGUE	-1	[0, 0, 0]	-999	PAL1	3	R1196N
231.671	1.01	568095	PROBE_OFF	n/a	n/a	2	-999	n/a	n/a	n/a	n/a	-1	[0, 0, 0]	-999	PAL1	3	R1196N
232.681	0.007	569105	REC_END	n/a	n/a	2	-999	n/a	n/a	n/a	n/a	-1	[0, 0, 0]	-999	PAL1	3	R1196N
232.688	0.267	569112	PRACTICE_RETRIEVAL_ORIENT	n/a	n/a	1	3	BEAM	ATTIC	BEAM	ATTIC	-1	[0, 0, 0]	-999	PAL1	3	R1196N
232.955	0.733	569379	PRACTICE_RETRIEVAL_ORIENT_OFF	n/a	n/a	1	3	BEAM	ATTIC	BEAM	ATTIC	-1	[0, 0, 0]	-999	PAL1	3	R1196N
233.688	4.0	570112	PRACTICE_PROBE	n/a	n/a	1	3	BEAM	ATTIC	BEAM	ATTIC	-1	[0, 0, 0]	-999	PAL1	3	R1196N
233.689	1.678	570113	REC_START	n/a	n/a	1	-999	n/a	ATTIC	n/a	n/a	-1	[0, 0, 0]	-999	PAL1	3	R1196N
235.367	2.338	571791	REC_EVENT	1678.0	n/a	1	3	BEAM	ATTIC	BEAM	ATTIC	-1	[0, 0, 0]	-999	PAL1	3	R1196N
237.705	1.0	574129	PROBE_OFF	n/a	n/a	1	-999	n/a	n/a	n/a	n/a	-1	[0, 0, 0]	-999	PAL1	3	R1196N
238.705	0.017	575129	REC_END	n/a	n/a	1	-999	n/a	n/a	n/a	n/a	-1	[0, 0, 0]	-999	PAL1	3	R1196N
238.722	0.267	575146	PRACTICE_RETRIEVAL_ORIENT	n/a	n/a	4	4	FLOOD	IRON	FLOOD	IRON	-1	[0, 0, 0]	-999	PAL1	3	R1196N
238.989	0.567	575413	PRACTICE_RETRIEVAL_ORIENT_OFF	n/a	n/a	4	4	FLOOD	IRON	FLOOD	IRON	-1	[0, 0, 0]	-999	PAL1	3	R1196N
239.556	0.0	575980	REC_START	n/a	n/a	4	-999	n/a	IRON	n/a	n/a	-1	[0, 0, 0]	-999	PAL1	3	R1196N
239.556	4.0	575980	PRACTICE_PROBE	n/a	n/a	4	4	FLOOD	IRON	FLOOD	IRON	-1	[0, 0, 0]	-999	PAL1	3	R1196N
240.599	2.974	577023	REC_EVENT	1043.0	n/a	4	4	FLOOD	IRON	FLOOD	IRON	-1	[0, 0, 0]	-999	PAL1	3	R1196N
243.573	1.0	579997	PROBE_OFF	n/a	n/a	4	-999	n/a	n/a	n/a	n/a	-1	[0, 0, 0]	-999	PAL1	3	R1196N
244.573	0.017	580997	REC_END	n/a	n/a	4	-999	n/a	n/a	n/a	n/a	-1	[0, 0, 0]	-999	PAL1	3	R1196N
244.59	0.266	581014	PRACTICE_RETRIEVAL_ORIENT	n/a	n/a	3	5	CAMEL	n/a	CAMEL	WATCH	-1	[0, 0, 0]	-999	PAL1	3	R1196N
244.856	0.551	581280	PRACTICE_RETRIEVAL_ORIENT_OFF	n/a	n/a	3	5	CAMEL	n/a	CAMEL	WATCH	-1	[0, 0, 0]	-999	PAL1	3	R1196N
245.407	4.0	581831	PRACTICE_PROBE	n/a	n/a	3	5	CAMEL	n/a	CAMEL	WATCH	-1	[0, 0, 0]	-999	PAL1	3	R1196N
245.407	4.017	581831	REC_START	n/a	n/a	3	-999	n/a	n/a	n/a	n/a	-1	[0, 0, 0]	-999	PAL1	3	R1196N
249.424	0.998	585848	PROBE_OFF	n/a	n/a	3	-999	n/a	n/a	n/a	n/a	-1	[0, 0, 0]	-999	PAL1	3	R1196N
250.422	0.002	586846	REC_EVENT	5015.0	n/a	3	5	CAMEL	<>	CAMEL	WATCH	-1	[0, 0, 0]	-999	PAL1	3	R1196N
250.424	0.017	586848	REC_END	n/a	n/a	3	-999	n/a	n/a	n/a	n/a	-1	[0, 0, 0]	-999	PAL1	3	R1196N
250.441	0.267	586865	PRACTICE_RETRIEVAL_ORIENT	n/a	n/a	6	6	RHINO	CHEST	CHEST	RHINO	-1	[0, 0, 0]	-999	PAL1	3	R1196N
250.708	0.7	587132	PRACTICE_RETRIEVAL_ORIENT_OFF	n/a	n/a	6	6	RHINO	CHEST	CHEST	RHINO	-1	[0, 0, 0]	-999	PAL1	3	R1196N
251.408	4.0	587832	PRACTICE_PROBE	n/a	n/a	6	6	RHINO	CHEST	CHEST	RHINO	-1	[0, 0, 0]	-999	PAL1	3	R1196N
251.409	1.27	587833	REC_START	n/a	n/a	6	-999	n/a	CHEST	n/a	n/a	-1	[0, 0, 0]	-999	PAL1	3	R1196N
252.679	2.746	589103	REC_EVENT	1270.0	n/a	6	6	RHINO	CHEST	CHEST	RHINO	-1	[0, 0, 0]	-999	PAL1	3	R1196N
255.425	1.0	591848	PROBE_OFF	n/a	n/a	6	-999	n/a	n/a	n/a	n/a	-1	[0, 0, 0]	-999	PAL1	3	R1196N
256.425	0.01	592848	REC_END	n/a	n/a	6	-999	n/a	n/a	n/a	n/a	-1	[0, 0, 0]	-999	PAL1	3	R1196N
256.435	13.926	592858	RECALL_END	n/a	n/a	-999	-999	n/a	n/a	n/a	n/a	-1	[0, 0, 0]	-999	PAL1	3	R1196N
270.361	10.929	606784	TRIAL	n/a	n/a	-999	-999	n/a	n/a	n/a	n/a	1	[0, 0, 0]	-999	PAL1	3	R1196N
281.29	0.006	617712	ENCODING_START	n/a	n/a	-999	-999	n/a	n/a	n/a	n/a	1	[0, 0, 0]	-999	PAL1	3	R1196N
281.296	0.267	617718	STUDY_ORIENT	n/a	n/a	1	3	SMOKE	CORD	SMOKE	CORD	1	[0, 0, 0]	-999	PAL1	3	R1196N
281.563	0.7	617985	STUDY_ORIENT_OFF	n/a	n/a	1	3	SMOKE	CORD	SMOKE	CORD	1	[0, 0, 0]	-999	PAL1	3	R1196N
282.263	4.0	618685	STUDY_PAIR	n/a	wordpools/wordpool_EN.txt	1	3	SMOKE	CORD	SMOKE	CORD	1	[0, 0, 0]	-999	PAL1	3	R1196N
286.28	1.017	622702	PAIR_OFF	n/a	n/a	1	3	SMOKE	CORD	SMOKE	CORD	1	[0, 0, 0]	-999	PAL1	3	R1196N
287.297	0.267	623719	STUDY_ORIENT	n/a	n/a	2	4	FOAM	SHRIMP	FOAM	SHRIMP	1	[0, 0, 0]	-999	PAL1	3	R1196N
287.564	0.566	623986	STUDY_ORIENT_OFF	n/a	n/a	2	4	FOAM	SHRIMP	FOAM	SHRIMP	1	[0, 0, 0]	-999	PAL1	3	R1196N
288.13	4.0	624552	STUDY_PAIR	n/a	wordpools/wordpool_EN.txt	2	4	FOAM	SHRIMP	FOAM	SHRIMP	1	[0, 0, 0]	-999	PAL1	3	R1196N
292.148	1.017	628570	PAIR_OFF	n/a	n/a	2	4	FOAM	SHRIMP	FOAM	SHRIMP	1	[0, 0, 0]	-999	PAL1	3	R1196N
293.165	0.266	629587	STUDY_ORIENT	n/a	n/a	3	1	MULE	PIT	MULE	PIT	1	[0, 0, 0]	-999	PAL1	3	R1196N
293.431	0.701	629853	STUDY_ORIENT_OFF	n/a	n/a	3	1	MULE	PIT	MULE	PIT	1	[0, 0, 0]	-999	PAL1	3	R1196N
294.132	4.0	630554	STUDY_PAIR	n/a	wordpools/wordpool_EN.txt	3	1	MULE	PIT	MULE	PIT	1	[0, 0, 0]	-999	PAL1	3	R1196N
298.149	1.017	634571	PAIR_OFF	n/a	n/a	3	1	MULE	PIT	MULE	PIT	1	[0, 0, 0]	-999	PAL1	3	R1196N
299.166	0.266	635588	STUDY_ORIENT	n/a	n/a	4	2	TIE	SWORD	TIE	SWORD	1	[0, 0, 0]	-999	PAL1	3	R1196N
299.432	0.734	635854	STUDY_ORIENT_OFF	n/a	n/a	4	2	TIE	SWORD	TIE	SWORD	1	[0, 0, 0]	-999	PAL1	3	R1196N
300.166	4.0	636588	STUDY_PAIR	n/a	wordpools/wordpool_EN.txt	4	2	TIE	SWORD	TIE	SWORD	1	[0, 0, 0]	-999	PAL1	3	R1196N
304.183	1.017	640604	PAIR_OFF	n/a	n/a	4	2	TIE	SWORD	TIE	SWORD	1	[0, 0, 0]	-999	PAL1	3	R1196N
305.2	0.267	641621	STUDY_ORIENT	n/a	n/a	5	5	PHONE	FLOOR	FLOOR	PHONE	1	[0, 0, 0]	-999	PAL1	3	R1196N
305.467	0.7	641888	STUDY_ORIENT_OFF	n/a	n/a	5	5	PHONE	FLOOR	FLOOR	PHONE	1	[0, 0, 0]	-999	PAL1	3	R1196N
306.167	4.0	642588	STUDY_PAIR	n/a	wordpools/wordpool_EN.txt	5	5	PHONE	FLOOR	FLOOR	PHONE	1	[0, 0, 0]	-999	PAL1	3	R1196N
310.184	1.017	646605	PAIR_OFF	n/a	n/a	5	5	PHONE	FLOOR	FLOOR	PHONE	1	[0, 0, 0]	-999	PAL1	3	R1196N
311.201	0.267	647622	STUDY_ORIENT	n/a	n/a	6	6	PIG	SPEAR	SPEAR	PIG	1	[0, 0, 0]	-999	PAL1	3	R1196N
311.468	0.583	647889	STUDY_ORIENT_OFF	n/a	n/a	6	6	PIG	SPEAR	SPEAR	PIG	1	[0, 0, 0]	-999	PAL1	3	R1196N
312.051	4.0	648472	STUDY_PAIR	n/a	wordpools/wordpool_EN.txt	6	6	PIG	SPEAR	SPEAR	PIG	1	[0, 0, 0]	-999	PAL1	3	R1196N
316.069	1.0	652490	PAIR_OFF	n/a	n/a	6	6	PIG	SPEAR	SPEAR	PIG	1	[0, 0, 0]	-999	PAL1	3	R1196N
317.069	0.0	653490	ENCODING_END	n/a	n/a	-999	-999	n/a	n/a	n/a	n/a	1	[0, 0, 0]	-999	PAL1	3	R1196N
317.069	0.001	653490	MATH_START	n/a	n/a	-999	-999	n/a	n/a	n/a	n/a	1	[0, 0, 0]	-999	PAL1	3	R1196N
317.07	0.015	653491	START	n/a	n/a	-999	-999	n/a	n/a	n/a	n/a	1	[-999, -999, -999]	-999	PAL1	3	R1196N
317.085	2.501	653506	PROB	2470.0	n/a	-999	-999	n/a	n/a	n/a	n/a	1	[7, 5, 3]	15	PAL1	3	R1196N
319.586	4.084	656007	PROB	4050.0	n/a	-999	-999	n/a	n/a	n/a	n/a	1	[2, 6, 7]	15	PAL1	3	R1196N
323.67	4.183	660091	PROB	4157.0	n/a	-999	-999	n/a	n/a	n/a	n/a	1	[5, 3, 2]	10	PAL1	3	R1196N
327.853	3.718	664274	PROB	3687.0	n/a	-999	-999	n/a	n/a	n/a	n/a	1	[2, 5, 1]	8	PAL1	3	R1196N
331.571	4.084	667991	PROB	4048.0	n/a	-999	-999	n/a	n/a	n/a	n/a	1	[2, 8, 7]	17	PAL1	3	R1196N
335.655	2.669	672075	PROB	2669.0	n/a	-999	-999	n/a	n/a	n/a	n/a	1	[1, 9, 5]	15	PAL1	3	R1196N
338.324	0.015	674744	STOP	n/a	n/a	-999	-999	n/a	n/a	n/a	n/a	1	[-999, -999, -999]	-999	PAL1	3	R1196N
338.339	0.0	674759	MATH_END	n/a	n/a	-999	-999	n/a	n/a	n/a	n/a	1	[0, 0, 0]	-999	PAL1	3	R1196N
338.339	0.017	674759	RECALL_START	n/a	n/a	-999	-999	n/a	n/a	n/a	n/a	1	[0, 0, 0]	-999	PAL1	3	R1196N
338.356	0.266	674776	TEST_ORIENT	n/a	n/a	3	1	MULE	PIT	MULE	PIT	1	[0, 0, 0]	-999	PAL1	3	R1196N
338.622	0.617	675042	RETRIEVAL_ORIENT_OFF	n/a	n/a	-999	-999	n/a	n/a	n/a	n/a	1	[0, 0, 0]	-999	PAL1	3	R1196N
339.239	4.0	675659	TEST_PROBE	n/a	wordpools/wordpool_EN.txt	3	1	MULE	PIT	MULE	PIT	1	[0, 0, 0]	-999	PAL1	3	R1196N
339.24	2.12	675660	REC_START	n/a	n/a	3	-999	n/a	PIT	n/a	n/a	1	[0, 0, 0]	-999	PAL1	3	R1196N
341.36	1.896	677780	REC_EVENT	2120.0	n/a	3	1	MULE	PIT	MULE	PIT	1	[0, 0, 0]	-999	PAL1	3	R1196N
343.256	1.0	679676	PROBE_OFF	n/a	n/a	3	-999	n/a	n/a	n/a	n/a	1	[0, 0, 0]	-999	PAL1	3	R1196N
344.256	0.017	680676	REC_END	n/a	n/a	3	-999	n/a	n/a	n/a	n/a	1	[0, 0, 0]	-999	PAL1	3	R1196N
344.273	0.267	680693	TEST_ORIENT	n/a	n/a	4	2	TIE	SWORD	TIE	SWORD	1	[0, 0, 0]	-999	PAL1	3	R1196N
344.54	0.65	680960	RETRIEVAL_ORIENT_OFF	n/a	n/a	3	-999	n/a	n/a	n/a	n/a	1	[0, 0, 0]	-999	PAL1	3	R1196N
345.19	4.0	681610	TEST_PROBE	n/a	wordpools/wordpool_EN.txt	4	2	TIE	SWORD	TIE	SWORD	1	[0, 0, 0]	-999	PAL1	3	R1196N
345.191	0.953	681611	REC_START	n/a	n/a	4	-999	n/a	SWORD	n/a	n/a	1	[0, 0, 0]	-999	PAL1	3	R1196N
346.144	3.064	682564	REC_EVENT	953.0	n/a	4	2	TIE	SWORD	TIE	SWORD	1	[0, 0, 0]	-999	PAL1	3	R1196N
349.208	1.0	685628	PROBE_OFF	n/a	n/a	4	-999	n/a	n/a	n/a	n/a	1	[0, 0, 0]	-999	PAL1	3	R1196N
350.208	0.016	686628	REC_END	n/a	n/a	4	-999	n/a	n/a	n/a	n/a	1	[0, 0, 0]	-999	PAL1	3	R1196N
350.224	0.267	686644	TEST_ORIENT	n/a	n/a	1	3	SMOKE	CORD	SMOKE	CORD	1	[0, 0, 0]	-999	PAL1	3	R1196N
350.491	0.65	686911	RETRIEVAL_ORIENT_OFF	n/a	n/a	4	-999	n/a	n/a	n/a	n/a	1	[0, 0, 0]	-999	PAL1	3	R1196N
351.141	4.0	687561	TEST_PROBE	n/a	wordpools/wordpool_EN.txt	1	3	SMOKE	CORD	SMOKE	CORD	1	[0, 0, 0]	-999	PAL1	3	R1196N
351.142	1.877	687562	REC_START	n/a	n/a	1	-999	n/a	CORD	n/a	n/a	1	[0, 0, 0]	-999	PAL1	3	R1196N
353.019	2.139	689438	REC_EVENT	1877.0	n/a	1	3	SMOKE	CORD	SMOKE	CORD	1	[0, 0, 0]	-999	PAL1	3	R1196N
355.158	1.0	691577	PROBE_OFF	n/a	n/a	1	-999	n/a	n/a	n/a	n/a	1	[0, 0, 0]	-999	PAL1	3	R1196N
356.158	0.017	692577	REC_END	n/a	n/a	1	-999	n/a	n/a	n/a	n/a	1	[0, 0, 0]	-999	PAL1	3	R1196N
356.175	0.267	692594	TEST_ORIENT	n/a	n/a	2	4	FOAM	SHRIMP	FOAM	SHRIMP	1	[0, 0, 0]	-999	PAL1	3	R1196N
356.442	0.667	692861	RETRIEVAL_ORIENT_OFF	n/a	n/a	1	-999	n/a	n/a	n/a	n/a	1	[0, 0, 0]	-999	PAL1	3	R1196N
357.109	4.0	693528	TEST_PROBE	n/a	wordpools/wordpool_EN.txt	2	4	FOAM	SHRIMP	FOAM	SHRIMP	1	[0, 0, 0]	-999	PAL1	3	R1196N
357.109	0.961	693528	REC_START	n/a	n/a	2	-999	n/a	SHRIMP	n/a	n/a	1	[0, 0, 0]	-999	PAL1	3	R1196N
358.07	3.056	694489	REC_EVENT	961.0	n/a	2	4	FOAM	SHRIMP	FOAM	SHRIMP	1	[0, 0, 0]	-999	PAL1	3	R1196N
361.126	1.0	697545	PROBE_OFF	n/a	n/a	2	-999	n/a	n/a	n/a	n/a	1	[0, 0, 0]	-999	PAL1	3	R1196N
362.126	0.017	698545	REC_END	n/a	n/a	2	-999	n/a	n/a	n/a	n/a	1	[0, 0, 0]	-999	PAL1	3	R1196N
362.143	0.267	698562	TEST_ORIENT	n/a	n/a	5	5	PHONE	FLOOR	FLOOR	PHONE	1	[0, 0, 0]	-999	PAL1	3	R1196N
362.41	0.716	698829	RETRIEVAL_ORIENT_OFF	n/a	n/a	2	-999	n/a	n/a	n/a	n/a	1	[0, 0, 0]	-999	PAL1	3	R1196N
363.126	4.0	699545	TEST_PROBE	n/a	wordpools/wordpool_EN.txt	5	5	PHONE	FLOOR	FLOOR	PHONE	1	[0, 0, 0]	-999	PAL1	3	R1196N
363.127	1.139	699546	REC_START	n/a	n/a	5	-999	n/a	FLOOR	n/a	n/a	1	[0, 0, 0]	-999	PAL1	3	R1196N
364.266	2.878	700685	REC_EVENT	1139.0	n/a	5	5	PHONE	FLOOR	FLOOR	PHONE	1	[0, 0, 0]	-999	PAL1	3	R1196N
367.144	1.0	703563	PROBE_OFF	n/a	n/a	5	-999	n/a	n/a	n/a	n/a	1	[0, 0, 0]	-999	PAL1	3	R1196N
368.144	0.017	704563	REC_END	n/a	n/a	5	-999	n/a	n/a	n/a	n/a	1	[0, 0, 0]	-999	PAL1	3	R1196N
368.161	0.266	704580	TEST_ORIENT	n/a	n/a	6	6	PIG	SPEAR	SPEAR	PIG	1	[0, 0, 0]	-999	PAL1	3	R1196N
368.427	0.701	704846	RETRIEVAL_ORIENT_OFF	n/a	n/a	5	-999	n/a	n/a	n/a	n/a	1	[0, 0, 0]	-999	PAL1	3	R1196N
369.128	4.0	705547	TEST_PROBE	n/a	wordpools/wordpool_EN.txt	6	6	PIG	SPEAR	SPEAR	PIG	1	[0, 0, 0]	-999	PAL1	3	R1196N
369.128	0.761	705547	REC_START	n/a	n/a	6	-999	n/a	SPEAR	n/a	n/a	1	[0, 0, 0]	-999	PAL1	3	R1196N
369.889	3.256	706308	REC_EVENT	761.0	n/a	6	6	PIG	SPEAR	SPEAR	PIG	1	[0, 0, 0]	-999	PAL1	3	R1196N
373.145	1.0	709564	PROBE_OFF	n/a	n/a	6	-999	n/a	n/a	n/a	n/a	1	[0, 0, 0]	-999	PAL1	3	R1196N
374.145	0.004	710564	REC_END	n/a	n/a	6	-999	n/a	n/a	n/a	n/a	1	[0, 0, 0]	-999	PAL1	3	R1196N
374.149	6.547	710568	RECALL_END	n/a	n/a	-999	-999	n/a	n/a	n/a	n/a	1	[0, 0, 0]	-999	PAL1	3	R1196N
380.696	10.929	717114	TRIAL	n/a	n/a	-999	-999	n/a	n/a	n/a	n/a	2	[0, 0, 0]	-999	PAL1	3	R1196N
391.625	0.006	728043	ENCODING_START	n/a	n/a	-999	-999	n/a	n/a	n/a	n/a	2	[0, 0, 0]	-999	PAL1	3	R1196N
391.631	0.267	728049	STUDY_ORIENT	n/a	n/a	1	1	RUG	PRINCE	PRINCE	RUG	2	[0, 0, 0]	-999	PAL1	3	R1196N
391.898	0.633	728316	STUDY_ORIENT_OFF	n/a	n/a	1	1	RUG	PRINCE	PRINCE	RUG	2	[0, 0, 0]	-999	PAL1	3	R1196N
392.531	4.0	728949	STUDY_PAIR	n/a	wordpools/wordpool_EN.txt	1	1	RUG	PRINCE	PRINCE	RUG	2	[0, 0, 0]	-999	PAL1	3	R1196N
396.532	1.017	732950	PAIR_OFF	n/a	n/a	1	1	RUG	PRINCE	PRINCE	RUG	2	[0, 0, 0]	-999	PAL1	3	R1196N
397.549	0.266	733967	STUDY_ORIENT	n/a	n/a	2	6	HOOF	n/a	HOOF	BROOM	2	[0, 0, 0]	-999	PAL1	3	R1196N
397.815	0.601	734233	STUDY_ORIENT_OFF	n/a	n/a	2	6	HOOF	n/a	HOOF	BROOM	2	[0, 0, 0]	-999	PAL1	3	R1196N
398.416	4.0	734834	STUDY_PAIR	n/a	wordpools/wordpool_EN.txt	2	6	HOOF	n/a	HOOF	BROOM	2	[0, 0, 0]	-999	PAL1	3	R1196N
402.433	1.017	738851	PAIR_OFF	n/a	n/a	2	6	HOOF	n/a	HOOF	BROOM	2	[0, 0, 0]	-999	PAL1	3	R1196N
403.45	0.267	739867	STUDY_ORIENT	n/a	n/a	3	3	FACE	GRAPE	GRAPE	FACE	2	[0, 0, 0]	-999	PAL1	3	R1196N
403.717	0.766	740134	STUDY_ORIENT_OFF	n/a	n/a	3	3	FACE	GRAPE	GRAPE	FACE	2	[0, 0, 0]	-999	PAL1	3	R1196N
404.483	4.0	740900	STUDY_PAIR	n/a	wordpools/wordpool_EN.txt	3	3	FACE	GRAPE	GRAPE	FACE	2	[0, 0, 0]	-999	PAL1	3	R1196N
408.501	1.017	744918	PAIR_OFF	n/a	n/a	3	3	FACE	GRAPE	GRAPE	FACE	2	[0, 0, 0]	-999	PAL1	3	R1196N
409.518	0.266	745935	STUDY_ORIENT	n/a	n/a	4	2	CROWN	CROW	CROWN	CROW	2	[0, 0, 0]	-999	PAL1	3	R1196N
409.784	0.767	746201	STUDY_ORIENT_OFF	n/a	n/a	4	2	CROWN	CROW	CROWN	CROW	2	[0, 0, 0]	-999	PAL1	3	R1196N
410.551	4.0	746968	STUDY_PAIR	n/a	wordpools/wordpool_EN.txt	4	2	CROWN	CROW	CROWN	CROW	2	[0, 0, 0]	-999	PAL1	3	R1196N
414.568	1.017	750985	PAIR_OFF	n/a	n/a	4	2	CROWN	CROW	CROWN	CROW	2	[0, 0, 0]	-999	PAL1	3	R1196N
415.585	0.266	752002	STUDY_ORIENT	n/a	n/a	5	5	MOUSE	MOTH	MOTH	MOUSE	2	[0, 0, 0]	-999	PAL1	3	R1196N
415.851	0.685	752268	STUDY_ORIENT_OFF	n/a	n/a	5	5	MOUSE	MOTH	MOTH	MOUSE	2	[0, 0, 0]	-999	PAL1	3	R1196N
416.536	4.0	752953	STUDY_PAIR	n/a	wordpools/wordpool_EN.txt	5	5	MOUSE	MOTH	MOTH	MOUSE	2	[0, 0, 0]	-999	PAL1	3	R1196N
420.553	1.017	756970	PAIR_OFF	n/a	n/a	5	5	MOUSE	MOTH	MOTH	MOUSE	2	[0, 0, 0]	-999	PAL1	3	R1196N
421.57	0.265	757987	STUDY_ORIENT	n/a	n/a	6	4	SNAIL	BRIDGE	BRIDGE	SNAIL	2	[0, 0, 0]	-999	PAL1	3	R1196N
421.835	0.668	758252	STUDY_ORIENT_OFF	n/a	n/a	6	4	SNAIL	BRIDGE	BRIDGE	SNAIL	2	[0, 0, 0]	-999	PAL1	3	R1196N
422.503	4.0	758920	STUDY_PAIR	n/a	wordpools/wordpool_EN.txt	6	4	SNAIL	BRIDGE	BRIDGE	SNAIL	2	[0, 0, 0]	-999	PAL1	3	R1196N
426.52	1.0	762937	PAIR_OFF	n/a	n/a	6	4	SNAIL	BRIDGE	BRIDGE	SNAIL	2	[0, 0, 0]	-999	PAL1	3	R1196N
427.52	0.0	763937	MATH_START	n/a	n/a	-999	-999	n/a	n/a	n/a	n/a	2	[0, 0, 0]	-999	PAL1	3	R1196N
427.52	0.0	763937	ENCODING_END	n/a	n/a	-999	-999	n/a	n/a	n/a	n/a	2	[0, 0, 0]	-999	PAL1	3	R1196N
427.52	0.017	763937	START	n/a	n/a	-999	-999	n/a	n/a	n/a	n/a	2	[-999, -999, -999]	-999	PAL1	3	R1196N
427.537	4.684	763954	PROB	4658.0	n/a	-999	-999	n/a	n/a	n/a	n/a	2	[7, 7, 6]	20	PAL1	3	R1196N
432.221	5.218	768637	PROB	5191.0	n/a	-999	-999	n/a	n/a	n/a	n/a	2	[9, 7, 7]	23	PAL1	3	R1196N
437.439	2.834	773855	PROB	2796.0	n/a	-999	-999	n/a	n/a	n/a	n/a	2	[1, 4, 1]	6	PAL1	3	R1196N
440.273	2.967	776689	PROB	2931.0	n/a	-999	-999	n/a	n/a	n/a	n/a	2	[3, 6, 4]	13	PAL1	3	R1196N
443.24	2.8	779656	PROB	2779.0	n/a	-999	-999	n/a	n/a	n/a	n/a	2	[9, 9, 5]	23	PAL1	3	R1196N
446.04	2.404	782456	PROB	2404.0	n/a	-999	-999	n/a	n/a	n/a	n/a	2	[8, 2, 4]	14	PAL1	3	R1196N
448.444	0.013	784860	STOP	n/a	n/a	-999	-999	n/a	n/a	n/a	n/a	2	[-999, -999, -999]	-999	PAL1	3	R1196N
448.457	0.001	784873	MATH_END	n/a	n/a	-999	-999	n/a	n/a	n/a	n/a	2	[0, 0, 0]	-999	PAL1	3	R1196N
448.458	0.016	784874	RECALL_START	n/a	n/a	-999	-999	n/a	n/a	n/a	n/a	2	[0, 0, 0]	-999	PAL1	3	R1196N
448.474	0.267	784890	TEST_ORIENT	n/a	n/a	1	1	RUG	PRINCE	PRINCE	RUG	2	[0, 0, 0]	-999	PAL1	3	R1196N
448.741	0.533	785157	RETRIEVAL_ORIENT_OFF	n/a	n/a	-999	-999	n/a	n/a	n/a	n/a	2	[0, 0, 0]	-999	PAL1	3	R1196N
449.274	4.0	785690	TEST_PROBE	n/a	wordpools/wordpool_EN.txt	1	1	RUG	PRINCE	PRINCE	RUG	2	[0, 0, 0]	-999	PAL1	3	R1196N
449.275	1.11	785691	REC_START	n/a	n/a	1	-999	n/a	PRINCE	n/a	n/a	2	[0, 0, 0]	-999	PAL1	3	R1196N
450.385	2.907	786801	REC_EVENT	1110.0	n/a	1	1	RUG	PRINCE	PRINCE	RUG	2	[0, 0, 0]	-999	PAL1	3	R1196N
453.292	1.0	789707	PROBE_OFF	n/a	n/a	1	-999	n/a	n/a	n/a	n/a	2	[0, 0, 0]	-999	PAL1	3	R1196N
454.292	0.016	790707	REC_END	n/a	n/a	1	-999	n/a	n/a	n/a	n/a	2	[0, 0, 0]	-999	PAL1	3	R1196N
454.308	0.267	790723	TEST_ORIENT	n/a	n/a	4	2	CROWN	CROW	CROWN	CROW	2	[0, 0, 0]	-999	PAL1	3	R1196N
454.575	0.617	790990	RETRIEVAL_ORIENT_OFF	n/a	n/a	1	-999	n/a	n/a	n/a	n/a	2	[0, 0, 0]	-999	PAL1	3	R1196N
455.192	4.0	791607	TEST_PROBE	n/a	wordpools/wordpool_EN.txt	4	2	CROWN	CROW	CROWN	CROW	2	[0, 0, 0]	-999	PAL1	3	R1196N
455.192	0.907	791607	REC_START	n/a	n/a	4	-999	n/a	CROW	n/a	n/a	2	[0, 0, 0]	-999	PAL1	3	R1196N
456.099	3.11	792514	REC_EVENT	907.0	n/a	4	2	CROWN	CROW	CROWN	CROW	2	[0, 0, 0]	-999	PAL1	3	R1196N
459.209	1.0	795624	PROBE_OFF	n/a	n/a	4	-999	n/a	n/a	n/a	n/a	2	[0, 0, 0]	-999	PAL1	3	R1196N
460.209	0.017	796624	REC_END	n/a	n/a	4	-999	n/a	n/a	n/a	n/a	2	[0, 0, 0]	-999	PAL1	3	R1196N
460.226	0.267	796641	TEST_ORIENT	n/a	n/a	3	3	FACE	GRAPE	GRAPE	FACE	2	[0, 0, 0]	-999	PAL1	3	R1196N
460.493	0.583	796908	RETRIEVAL_ORIENT_OFF	n/a	n/a	4	-999	n/a	n/a	n/a	n/a	2	[0, 0, 0]	-999	PAL1	3	R1196N
461.076	4.0	797491	TEST_PROBE	n/a	wordpools/wordpool_EN.txt	3	3	FACE	GRAPE	GRAPE	FACE	2	[0, 0, 0]	-999	PAL1	3	R1196N
461.077	0.922	797492	REC_START	n/a	n/a	3	-999	n/a	GRAPE	n/a	n/a	2	[0, 0, 0]	-999	PAL1	3	R1196N
461.999	3.095	798414	REC_EVENT	922.0	n/a	3	3	FACE	GRAPE	GRAPE	FACE	2	[0, 0, 0]	-999	PAL1	3	R1196N
465.094	1.0	801509	PROBE_OFF	n/a	n/a	3	-999	n/a	n/a	n/a	n/a	2	[0, 0, 0]	-999	PAL1	3	R1196N
466.094	0.016	802509	REC_END	n/a	n/a	3	-999	n/a	n/a	n/a	n/a	2	[0, 0, 0]	-999	PAL1	3	R1196N
466.11	0.267	802525	TEST_ORIENT	n/a	n/a	6	4	SNAIL	BRIDGE	BRIDGE	SNAIL	2	[0, 0, 0]	-999	PAL1	3	R1196N
466.377	0.617	802792	RETRIEVAL_ORIENT_OFF	n/a	n/a	3	-999	n/a	n/a	n/a	n/a	2	[0, 0, 0]	-999	PAL1	3	R1196N
466.994	4.0	803409	TEST_PROBE	n/a	wordpools/wordpool_EN.txt	6	4	SNAIL	BRIDGE	BRIDGE	SNAIL	2	[0, 0, 0]	-999	PAL1	3	R1196N
466.994	0.938	803409	REC_START	n/a	n/a	6	-999	n/a	BRIDGE	n/a	n/a	2	[0, 0, 0]	-999	PAL1	3	R1196N
467.932	3.079	804347	REC_EVENT	938.0	n/a	6	4	SNAIL	BRIDGE	BRIDGE	SNAIL	2	[0, 0, 0]	-999	PAL1	3	R1196N
471.011	1.0	807426	PROBE_OFF	n/a	n/a	6	-999	n/a	n/a	n/a	n/a	2	[0, 0, 0]	-999	PAL1	3	R1196N
472.011	0.017	808426	REC_END	n/a	n/a	6	-999	n/a	n/a	n/a	n/a	2	[0, 0, 0]	-999	PAL1	3	R1196N
472.028	0.267	808443	TEST_ORIENT	n/a	n/a	5	5	MOUSE	MOTH	MOTH	MOUSE	2	[0, 0, 0]	-999	PAL1	3	R1196N
472.295	0.633	808710	RETRIEVAL_ORIENT_OFF	n/a	n/a	6	-999	n/a	n/a	n/a	n/a	2	[0, 0, 0]	-999	PAL1	3	R1196N
472.928	4.0	809343	TEST_PROBE	n/a	wordpools/wordpool_EN.txt	5	5	MOUSE	MOTH	MOTH	MOUSE	2	[0, 0, 0]	-999	PAL1	3	R1196N
472.929	2.346	809344	REC_START	n/a	n/a	5	-999	n/a	MOTH	n/a	n/a	2	[0, 0, 0]	-999	PAL1	3	R1196N
475.275	1.671	811690	REC_EVENT	2346.0	n/a	5	5	MOUSE	MOTH	MOTH	MOUSE	2	[0, 0, 0]	-999	PAL1	3	R1196N
476.946	1.0	813361	PROBE_OFF	n/a	n/a	5	-999	n/a	n/a	n/a	n/a	2	[0, 0, 0]	-999	PAL1	3	R1196N
477.946	0.016	814361	REC_END	n/a	n/a	5	-999	n/a	n/a	n/a	n/a	2	[0, 0, 0]	-999	PAL1	3	R1196N
477.962	0.267	814377	TEST_ORIENT	n/a	n/a	2	6	HOOF	n/a	HOOF	BROOM	2	[0, 0, 0]	-999	PAL1	3	R1196N
478.229	0.7	814643	RETRIEVAL_ORIENT_OFF	n/a	n/a	5	-999	n/a	n/a	n/a	n/a	2	[0, 0, 0]	-999	PAL1	3	R1196N
478.929	4.0	815343	TEST_PROBE	n/a	wordpools/wordpool_EN.txt	2	6	HOOF	n/a	HOOF	BROOM	2	[0, 0, 0]	-999	PAL1	3	R1196N
478.93	4.017	815344	REC_START	n/a	n/a	2	-999	n/a	n/a	n/a	n/a	2	[0, 0, 0]	-999	PAL1	3	R1196N
482.947	0.998	819361	PROBE_OFF	n/a	n/a	2	-999	n/a	n/a	n/a	n/a	2	[0, 0, 0]	-999	PAL1	3	R1196N
483.945	0.002	820359	REC_EVENT	5015.0	n/a	2	6	HOOF	<>	HOOF	BROOM	2	[0, 0, 0]	-999	PAL1	3	R1196N
483.947	0.004	820361	REC_END	n/a	n/a	2	-999	n/a	n/a	n/a	n/a	2	[0, 0, 0]	-999	PAL1	3	R1196N
483.951	6.83	820365	RECALL_END	n/a	n/a	-999	-999	n/a	n/a	n/a	n/a	2	[0, 0, 0]	-999	PAL1	3	R1196N
490.781	10.928	827195	TRIAL	n/a	n/a	-999	-999	n/a	n/a	n/a	n/a	3	[0, 0, 0]	-999	PAL1	3	R1196N
501.709	0.007	838123	ENCODING_START	n/a	n/a	-999	-999	n/a	n/a	n/a	n/a	3	[0, 0, 0]	-999	PAL1	3	R1196N
501.716	0.267	838130	STUDY_ORIENT	n/a	n/a	1	3	STEM	CLOTH	STEM	CLOTH	3	[0, 0, 0]	-999	PAL1	3	R1196N
501.983	0.75	838397	STUDY_ORIENT_OFF	n/a	n/a	1	3	STEM	CLOTH	STEM	CLOTH	3	[0, 0, 0]	-999	PAL1	3	R1196N
502.733	4.0	839147	STUDY_PAIR	n/a	wordpools/wordpool_EN.txt	1	3	STEM	CLOTH	STEM	CLOTH	3	[0, 0, 0]	-999	PAL1	3	R1196N
506.751	1.016	843164	PAIR_OFF	n/a	n/a	1	3	STEM	CLOTH	STEM	CLOTH	3	[0, 0, 0]	-999	PAL1	3	R1196N
507.767	0.267	844180	STUDY_ORIENT	n/a	n/a	2	4	CASH	n/a	CASH	SOUP	3	[0, 0, 0]	-999	PAL1	3	R1196N
508.034	0.667	844447	STUDY_ORIENT_OFF	n/a	n/a	2	4	CASH	n/a	CASH	SOUP	3	[0, 0, 0]	-999	PAL1	3	R1196N
508.701	4.0	845114	STUDY_PAIR	n/a	wordpools/wordpool_EN.txt	2	4	CASH	n/a	CASH	SOUP	3	[0, 0, 0]	-999	PAL1	3	R1196N
512.718	1.017	849131	PAIR_OFF	n/a	n/a	2	4	CASH	n/a	CASH	SOUP	3	[0, 0, 0]	-999	PAL1	3	R1196N
513.735	0.267	850148	STUDY_ORIENT	n/a	n/a	3	1	FLAG	BRUSH	BRUSH	FLAG	3	[0, 0, 0]	-999	PAL1	3	R1196N
514.002	0.616	850415	STUDY_ORIENT_OFF	n/a	n/a	3	1	FLAG	BRUSH	BRUSH	FLAG	3	[0, 0, 0]	-999	PAL1	3	R1196N
514.618	4.0	851031	STUDY_PAIR	n/a	wordpools/wordpool_EN.txt	3	1	FLAG	BRUSH	BRUSH	FLAG	3	[0, 0, 0]	-999	PAL1	3	R1196N
518.636	1.017	855049	PAIR_OFF	n/a	n/a	3	1	FLAG	BRUSH	BRUSH	FLAG	3	[0, 0, 0]	-999	PAL1	3	R1196N
519.653	0.267	856066	STUDY_ORIENT	n/a	n/a	4	2	BIRD	TRASH	TRASH	BIRD	3	[0, 0, 0]	-999	PAL1	3	R1196N
519.92	0.716	856333	STUDY_ORIENT_OFF	n/a	n/a	4	2	BIRD	TRASH	TRASH	BIRD	3	[0, 0, 0]	-999	PAL1	3	R1196N
520.636	4.0	857049	STUDY_PAIR	n/a	wordpools/wordpool_EN.txt	4	2	BIRD	TRASH	TRASH	BIRD	3	[0, 0, 0]	-999	PAL1	3	R1196N
524.654	1.016	861067	PAIR_OFF	n/a	n/a	4	2	BIRD	TRASH	TRASH	BIRD	3	[0, 0, 0]	-999	PAL1	3	R1196N
525.67	0.267	862083	STUDY_ORIENT	n/a	n/a	5	5	ROCK	POOL	ROCK	POOL	3	[0, 0, 0]	-999	PAL1	3	R1196N
525.937	0.584	862350	STUDY_ORIENT_OFF	n/a	n/a	5	5	ROCK	POOL	ROCK	POOL	3	[0, 0, 0]	-999	PAL1	3	R1196N
526.521	4.0	862934	STUDY_PAIR	n/a	wordpools/wordpool_EN.txt	5	5	ROCK	POOL	ROCK	POOL	3	[0, 0, 0]	-999	PAL1	3	R1196N
530.538	1.017	866950	PAIR_OFF	n/a	n/a	5	5	ROCK	POOL	ROCK	POOL	3	[0, 0, 0]	-999	PAL1	3	R1196N
531.555	0.265	867967	STUDY_ORIENT	n/a	n/a	6	6	PARK	n/a	PARK	STOOL	3	[0, 0, 0]	-999	PAL1	3	R1196N
531.82	0.718	868232	STUDY_ORIENT_OFF	n/a	n/a	6	6	PARK	n/a	PARK	STOOL	3	[0, 0, 0]	-999	PAL1	3	R1196N
532.538	4.0	868950	STUDY_PAIR	n/a	wordpools/wordpool_EN.txt	6	6	PARK	n/a	PARK	STOOL	3	[0, 0, 0]	-999	PAL1	3	R1196N
536.556	1.001	872968	PAIR_OFF	n/a	n/a	6	6	PARK	n/a	PARK	STOOL	3	[0, 0, 0]	-999	PAL1	3	R1196N
537.557	0.0	873969	MATH_START	n/a	n/a	-999	-999	n/a	n/a	n/a	n/a	3	[0, 0, 0]	-999	PAL1	3	R1196N
537.557	0.0	873969	ENCODING_END	n/a	n/a	-999	-999	n/a	n/a	n/a	n/a	3	[0, 0, 0]	-999	PAL1	3	R1196N
537.557	0.015	873969	START	n/a	n/a	-999	-999	n/a	n/a	n/a	n/a	3	[-999, -999, -999]	-999	PAL1	3	R1196N
537.572	3.934	873984	PROB	3903.0	n/a	-999	-999	n/a	n/a	n/a	n/a	3	[5, 9, 6]	20	PAL1	3	R1196N
541.506	2.951	877918	PROB	2914.0	n/a	-999	-999	n/a	n/a	n/a	n/a	3	[5, 6, 1]	12	PAL1	3	R1196N
544.457	1.867	880869	PROB	1835.0	n/a	-999	-999	n/a	n/a	n/a	n/a	3	[1, 6, 5]	12	PAL1	3	R1196N
546.324	5.217	882736	PROB	5184.0	n/a	-999	-999	n/a	n/a	n/a	n/a	3	[5, 9, 6]	20	PAL1	3	R1196N
551.541	3.034	887953	PROB	3007.0	n/a	-999	-999	n/a	n/a	n/a	n/a	3	[7, 3, 6]	16	PAL1	3	R1196N
554.575	2.701	890986	PROB	2677.0	n/a	-999	-999	n/a	n/a	n/a	n/a	3	[4, 7, 3]	14	PAL1	3	R1196N
557.276	3.36	893687	PROB	3360.0	n/a	-999	-999	n/a	n/a	n/a	n/a	3	[3, 4, 1]	8	PAL1	3	R1196N
560.636	0.007	897047	STOP	n/a	n/a	-999	-999	n/a	n/a	n/a	n/a	3	[-999, -999, -999]	-999	PAL1	3	R1196N
560.643	0.0	897054	MATH_END	n/a	n/a	-999	-999	n/a	n/a	n/a	n/a	3	[0, 0, 0]	-999	PAL1	3	R1196N
560.643	0.017	897054	RECALL_START	n/a	n/a	-999	-999	n/a	n/a	n/a	n/a	3	[0, 0, 0]	-999	PAL1	3	R1196N
560.66	0.266	897071	TEST_ORIENT	n/a	n/a	3	1	FLAG	BRUSH	BRUSH	FLAG	3	[0, 0, 0]	-999	PAL1	3	R1196N
560.926	0.684	897337	RETRIEVAL_ORIENT_OFF	n/a	n/a	-999	-999	n/a	n/a	n/a	n/a	3	[0, 0, 0]	-999	PAL1	3	R1196N
561.61	4.0	898021	TEST_PROBE	n/a	wordpools/wordpool_EN.txt	3	1	FLAG	BRUSH	BRUSH	FLAG	3	[0, 0, 0]	-999	PAL1	3	R1196N
561.61	1.179	898021	REC_START	n/a	n/a	3	-999	n/a	BRUSH	n/a	n/a	3	[0, 0, 0]	-999	PAL1	3	R1196N
562.789	2.838	899200	REC_EVENT	1179.0	n/a	3	1	FLAG	BRUSH	BRUSH	FLAG	3	[0, 0, 0]	-999	PAL1	3	R1196N
565.627	1.0	902038	PROBE_OFF	n/a	n/a	3	-999	n/a	n/a	n/a	n/a	3	[0, 0, 0]	-999	PAL1	3	R1196N
566.627	0.017	903038	REC_END	n/a	n/a	3	-999	n/a	n/a	n/a	n/a	3	[0, 0, 0]	-999	PAL1	3	R1196N
566.644	0.267	903055	TEST_ORIENT	n/a	n/a	4	2	BIRD	TRASH	TRASH	BIRD	3	[0, 0, 0]	-999	PAL1	3	R1196N
566.911	0.516	903322	RETRIEVAL_ORIENT_OFF	n/a	n/a	3	-999	n/a	n/a	n/a	n/a	3	[0, 0, 0]	-999	PAL1	3	R1196N
567.427	4.0	903838	TEST_PROBE	n/a	wordpools/wordpool_EN.txt	4	2	BIRD	TRASH	TRASH	BIRD	3	[0, 0, 0]	-999	PAL1	3	R1196N
567.428	1.086	903839	REC_START	n/a	n/a	4	-999	n/a	TRASH	n/a	n/a	3	[0, 0, 0]	-999	PAL1	3	R1196N
568.514	2.931	904925	REC_EVENT	1086.0	n/a	4	2	BIRD	TRASH	TRASH	BIRD	3	[0, 0, 0]	-999	PAL1	3	R1196N
571.445	1.0	907856	PROBE_OFF	n/a	n/a	4	-999	n/a	n/a	n/a	n/a	3	[0, 0, 0]	-999	PAL1	3	R1196N
572.445	0.017	908856	REC_END	n/a	n/a	4	-999	n/a	n/a	n/a	n/a	3	[0, 0, 0]	-999	PAL1	3	R1196N
572.462	0.266	908873	TEST_ORIENT	n/a	n/a	1	3	STEM	CLOTH	STEM	CLOTH	3	[0, 0, 0]	-999	PAL1	3	R1196N
572.728	0.6	909139	RETRIEVAL_ORIENT_OFF	n/a	n/a	4	-999	n/a	n/a	n/a	n/a	3	[0, 0, 0]	-999	PAL1	3	R1196N
573.328	4.0	909739	TEST_PROBE	n/a	wordpools/wordpool_EN.txt	1	3	STEM	CLOTH	STEM	CLOTH	3	[0, 0, 0]	-999	PAL1	3	R1196N
573.329	1.105	909740	REC_START	n/a	n/a	1	-999	n/a	CLOTH	n/a	n/a	3	[0, 0, 0]	-999	PAL1	3	R1196N
574.434	2.912	910845	REC_EVENT	1105.0	n/a	1	3	STEM	CLOTH	STEM	CLOTH	3	[0, 0, 0]	-999	PAL1	3	R1196N
577.346	1.0	913757	PROBE_OFF	n/a	n/a	1	-999	n/a	n/a	n/a	n/a	3	[0, 0, 0]	-999	PAL1	3	R1196N
578.346	0.017	914756	REC_END	n/a	n/a	1	-999	n/a	n/a	n/a	n/a	3	[0, 0, 0]	-999	PAL1	3	R1196N
578.363	0.266	914773	TEST_ORIENT	n/a	n/a	2	4	CASH	n/a	CASH	SOUP	3	[0, 0, 0]	-999	PAL1	3	R1196N
578.629	0.667	915039	RETRIEVAL_ORIENT_OFF	n/a	n/a	1	-999	n/a	n/a	n/a	n/a	3	[0, 0, 0]	-999	PAL1	3	R1196N
579.296	4.0	915706	TEST_PROBE	n/a	wordpools/wordpool_EN.txt	2	4	CASH	n/a	CASH	SOUP	3	[0, 0, 0]	-999	PAL1	3	R1196N
579.297	4.016	915707	REC_START	n/a	n/a	2	-999	n/a	n/a	n/a	n/a	3	[0, 0, 0]	-999	PAL1	3	R1196N
583.313	0.999	919723	PROBE_OFF	n/a	n/a	2	-999	n/a	n/a	n/a	n/a	3	[0, 0, 0]	-999	PAL1	3	R1196N
584.312	0.001	920722	REC_EVENT	5015.0	n/a	2	4	CASH	<>	CASH	SOUP	3	[0, 0, 0]	-999	PAL1	3	R1196N
584.313	0.017	920723	REC_END	n/a	n/a	2	-999	n/a	n/a	n/a	n/a	3	[0, 0, 0]	-999	PAL1	3	R1196N
584.33	0.267	920740	TEST_ORIENT	n/a	n/a	5	5	ROCK	POOL	ROCK	POOL	3	[0, 0, 0]	-999	PAL1	3	R1196N
584.597	0.65	921007	RETRIEVAL_ORIENT_OFF	n/a	n/a	2	-999	n/a	n/a	n/a	n/a	3	[0, 0, 0]	-999	PAL1	3	R1196N
585.247	4.0	921657	TEST_PROBE	n/a	wordpools/wordpool_EN.txt	5	5	ROCK	POOL	ROCK	POOL	3	[0, 0, 0]	-999	PAL1	3	R1196N
585.248	1.333	921658	REC_START	n/a	n/a	5	-999	n/a	POOL	n/a	n/a	3	[0, 0, 0]	-999	PAL1	3	R1196N
586.581	2.683	922991	REC_EVENT	1333.0	n/a	5	5	ROCK	POOL	ROCK	POOL	3	[0, 0, 0]	-999	PAL1	3	R1196N
589.264	1.0	925674	PROBE_OFF	n/a	n/a	5	-999	n/a	n/a	n/a	n/a	3	[0, 0, 0]	-999	PAL1	3	R1196N
590.264	0.017	926674	REC_END	n/a	n/a	5	-999	n/a	n/a	n/a	n/a	3	[0, 0, 0]	-999	PAL1	3	R1196N
590.281	0.267	926691	TEST_ORIENT	n/a	n/a	6	6	PARK	n/a	PARK	STOOL	3	[0, 0, 0]	-999	PAL1	3	R1196N
590.548	0.55	926958	RETRIEVAL_ORIENT_OFF	n/a	n/a	5	-999	n/a	n/a	n/a	n/a	3	[0, 0, 0]	-999	PAL1	3	R1196N
591.098	4.0	927508	TEST_PROBE	n/a	wordpools/wordpool_EN.txt	6	6	PARK	n/a	PARK	STOOL	3	[0, 0, 0]	-999	PAL1	3	R1196N
591.099	4.016	927509	REC_START	n/a	n/a	6	-999	n/a	n/a	n/a	n/a	3	[0, 0, 0]	-999	PAL1	3	R1196N
595.115	0.999	931525	PROBE_OFF	n/a	n/a	6	-999	n/a	n/a	n/a	n/a	3	[0, 0, 0]	-999	PAL1	3	R1196N
596.114	0.001	932524	REC_EVENT	5015.0	n/a	6	6	PARK	<>	PARK	STOOL	3	[0, 0, 0]	-999	PAL1	3	R1196N
596.115	0.008	932525	REC_END	n/a	n/a	6	-999	n/a	n/a	n/a	n/a	3	[0, 0, 0]	-999	PAL1	3	R1196N
596.123	4.36	932533	RECALL_END	n/a	n/a	-999	-999	n/a	n/a	n/a	n/a	3	[0, 0, 0]	-999	PAL1	3	R1196N
600.483	10.928	936893	TRIAL	n/a	n/a	-999	-999	n/a	n/a	n/a	n/a	4	[0, 0, 0]	-999	PAL1	3	R1196N
611.411	0.007	947820	ENCODING_START	n/a	n/a	-999	-999	n/a	n/a	n/a	n/a	4	[0, 0, 0]	-999	PAL1	3	R1196N
611.418	0.267	947827	STUDY_ORIENT	n/a	n/a	1	1	TANK	PANTS	PANTS	TANK	4	[0, 0, 0]	-999	PAL1	3	R1196N
611.685	0.75	948094	STUDY_ORIENT_OFF	n/a	n/a	1	1	TANK	PANTS	PANTS	TANK	4	[0, 0, 0]	-999	PAL1	3	R1196N
612.435	4.0	948844	STUDY_PAIR	n/a	wordpools/wordpool_EN.txt	1	1	TANK	PANTS	PANTS	TANK	4	[0, 0, 0]	-999	PAL1	3	R1196N
616.452	1.017	952861	PAIR_OFF	n/a	n/a	1	1	TANK	PANTS	PANTS	TANK	4	[0, 0, 0]	-999	PAL1	3	R1196N
617.469	0.267	953878	STUDY_ORIENT	n/a	n/a	2	6	BOAT	n/a	PURSE	BOAT	4	[0, 0, 0]	-999	PAL1	3	R1196N
617.736	0.683	954145	STUDY_ORIENT_OFF	n/a	n/a	2	6	BOAT	n/a	PURSE	BOAT	4	[0, 0, 0]	-999	PAL1	3	R1196N
618.419	4.0	954828	STUDY_PAIR	n/a	wordpools/wordpool_EN.txt	2	6	BOAT	n/a	PURSE	BOAT	4	[0, 0, 0]	-999	PAL1	3	R1196N
622.437	1.017	958846	PAIR_OFF	n/a	n/a	2	6	BOAT	n/a	PURSE	BOAT	4	[0, 0, 0]	-999	PAL1	3	R1196N
623.454	0.266	959863	STUDY_ORIENT	n/a	n/a	3	3	PIPE	n/a	MOOSE	PIPE	4	[0, 0, 0]	-999	PAL1	3	R1196N
623.72	0.55	960129	STUDY_ORIENT_OFF	n/a	n/a	3	3	PIPE	n/a	MOOSE	PIPE	4	[0, 0, 0]	-999	PAL1	3	R1196N
624.27	4.0	960679	STUDY_PAIR	n/a	wordpools/wordpool_EN.txt	3	3	PIPE	n/a	MOOSE	PIPE	4	[0, 0, 0]	-999	PAL1	3	R1196N
628.288	1.017	964697	PAIR_OFF	n/a	n/a	3	3	PIPE	n/a	MOOSE	PIPE	4	[0, 0, 0]	-999	PAL1	3	R1196N
629.305	0.266	965713	STUDY_ORIENT	n/a	n/a	4	4	BLOOM	n/a	BLOOM	FARM	4	[0, 0, 0]	-999	PAL1	3	R1196N
629.571	0.55	965979	STUDY_ORIENT_OFF	n/a	n/a	4	4	BLOOM	n/a	BLOOM	FARM	4	[0, 0, 0]	-999	PAL1	3	R1196N
630.121	4.0	966529	STUDY_PAIR	n/a	wordpools/wordpool_EN.txt	4	4	BLOOM	n/a	BLOOM	FARM	4	[0, 0, 0]	-999	PAL1	3	R1196N
634.139	1.017	970547	PAIR_OFF	n/a	n/a	4	4	BLOOM	n/a	BLOOM	FARM	4	[0, 0, 0]	-999	PAL1	3	R1196N
635.156	0.266	971564	STUDY_ORIENT	n/a	n/a	5	5	PEA	TOOL	PEA	TOOL	4	[0, 0, 0]	-999	PAL1	3	R1196N
635.422	0.567	971830	STUDY_ORIENT_OFF	n/a	n/a	5	5	PEA	TOOL	PEA	TOOL	4	[0, 0, 0]	-999	PAL1	3	R1196N
635.989	4.0	972397	STUDY_PAIR	n/a	wordpools/wordpool_EN.txt	5	5	PEA	TOOL	PEA	TOOL	4	[0, 0, 0]	-999	PAL1	3	R1196N
640.006	1.017	976414	PAIR_OFF	n/a	n/a	5	5	PEA	TOOL	PEA	TOOL	4	[0, 0, 0]	-999	PAL1	3	R1196N
641.023	0.267	977431	STUDY_ORIENT	n/a	n/a	6	2	WALL	OAK	WALL	OAK	4	[0, 0, 0]	-999	PAL1	3	R1196N
641.29	0.516	977698	STUDY_ORIENT_OFF	n/a	n/a	6	2	WALL	OAK	WALL	OAK	4	[0, 0, 0]	-999	PAL1	3	R1196N
641.806	4.0	978214	STUDY_PAIR	n/a	wordpools/wordpool_EN.txt	6	2	WALL	OAK	WALL	OAK	4	[0, 0, 0]	-999	PAL1	3	R1196N
645.823	1.0	982231	PAIR_OFF	n/a	n/a	6	2	WALL	OAK	WALL	OAK	4	[0, 0, 0]	-999	PAL1	3	R1196N
646.823	0.0	983231	ENCODING_END	n/a	n/a	-999	-999	n/a	n/a	n/a	n/a	4	[0, 0, 0]	-999	PAL1	3	R1196N
646.823	0.0	983231	MATH_START	n/a	n/a	-999	-999	n/a	n/a	n/a	n/a	4	[0, 0, 0]	-999	PAL1	3	R1196N
646.823	0.017	983231	START	n/a	n/a	-999	-999	n/a	n/a	n/a	n/a	4	[-999, -999, -999]	-999	PAL1	3	R1196N
646.84	4.017	983248	PROB	3995.0	n/a	-999	-999	n/a	n/a	n/a	n/a	4	[5, 4, 9]	18	PAL1	3	R1196N
650.857	2.051	987265	PROB	2017.0	n/a	-999	-999	n/a	n/a	n/a	n/a	4	[3, 9, 1]	13	PAL1	3	R1196N
652.908	2.351	989316	PROB	2328.0	n/a	-999	-999	n/a	n/a	n/a	n/a	4	[2, 8, 5]	15	PAL1	3	R1196N
655.259	3.434	991666	PROB	3401.0	n/a	-999	-999	n/a	n/a	n/a	n/a	4	[4, 8, 5]	17	PAL1	3	R1196N
658.693	2.534	995100	PROB	2511.0	n/a	-999	-999	n/a	n/a	n/a	n/a	4	[6, 4, 5]	15	PAL1	3	R1196N
661.227	2.616	997634	PROB	2584.0	n/a	-999	-999	n/a	n/a	n/a	n/a	4	[7, 6, 3]	16	PAL1	3	R1196N
663.843	6.113	1000250	PROB	6113.0	n/a	-999	-999	n/a	n/a	n/a	n/a	4	[5, 2, 3]	10	PAL1	3	R1196N
669.956	0.005	1006363	STOP	n/a	n/a	-999	-999	n/a	n/a	n/a	n/a	4	[-999, -999, -999]	-999	PAL1	3	R1196N
669.961	0.001	1006368	MATH_END	n/a	n/a	-999	-999	n/a	n/a	n/a	n/a	4	[0, 0, 0]	-999	PAL1	3	R1196N
669.962	0.016	1006369	RECALL_START	n/a	n/a	-999	-999	n/a	n/a	n/a	n/a	4	[0, 0, 0]	-999	PAL1	3	R1196N
669.978	0.267	1006385	TEST_ORIENT	n/a	n/a	1	1	TANK	PANTS	PANTS	TANK	4	[0, 0, 0]	-999	PAL1	3	R1196N
670.245	0.533	1006652	RETRIEVAL_ORIENT_OFF	n/a	n/a	-999	-999	n/a	n/a	n/a	n/a	4	[0, 0, 0]	-999	PAL1	3	R1196N
670.778	4.0	1007185	TEST_PROBE	n/a	wordpools/wordpool_EN.txt	1	1	TANK	PANTS	PANTS	TANK	4	[0, 0, 0]	-999	PAL1	3	R1196N
670.779	1.386	1007186	REC_START	n/a	n/a	1	-999	n/a	PANTS	n/a	n/a	4	[0, 0, 0]	-999	PAL1	3	R1196N
672.165	2.629	1008572	REC_EVENT	1386.0	n/a	1	1	TANK	PANTS	PANTS	TANK	4	[0, 0, 0]	-999	PAL1	3	R1196N
674.794	1.0	1011201	PROBE_OFF	n/a	n/a	1	-999	n/a	n/a	n/a	n/a	4	[0, 0, 0]	-999	PAL1	3	R1196N
675.794	0.017	1012201	REC_END	n/a	n/a	1	-999	n/a	n/a	n/a	n/a	4	[0, 0, 0]	-999	PAL1	3	R1196N
675.811	0.251	1012218	TEST_ORIENT	n/a	n/a	6	2	WALL	OAK	WALL	OAK	4	[0, 0, 0]	-999	PAL1	3	R1196N
676.062	0.749	1012469	RETRIEVAL_ORIENT_OFF	n/a	n/a	1	-999	n/a	n/a	n/a	n/a	4	[0, 0, 0]	-999	PAL1	3	R1196N
676.811	4.0	1013218	TEST_PROBE	n/a	wordpools/wordpool_EN.txt	6	2	WALL	OAK	WALL	OAK	4	[0, 0, 0]	-999	PAL1	3	R1196N
676.812	1.543	1013219	REC_START	n/a	n/a	6	-999	n/a	OAK	n/a	n/a	4	[0, 0, 0]	-999	PAL1	3	R1196N
678.355	2.474	1014762	REC_EVENT	1543.0	n/a	6	2	WALL	OAK	WALL	OAK	4	[0, 0, 0]	-999	PAL1	3	R1196N
680.829	1.01	1017235	PROBE_OFF	n/a	n/a	6	-999	n/a	n/a	n/a	n/a	4	[0, 0, 0]	-999	PAL1	3	R1196N
681.839	0.007	1018245	REC_END	n/a	n/a	6	-999	n/a	n/a	n/a	n/a	4	[0, 0, 0]	-999	PAL1	3	R1196N
681.846	0.267	1018252	TEST_ORIENT	n/a	n/a	3	3	PIPE	n/a	MOOSE	PIPE	4	[0, 0, 0]	-999	PAL1	3	R1196N
682.113	0.634	1018519	RETRIEVAL_ORIENT_OFF	n/a	n/a	6	-999	n/a	n/a	n/a	n/a	4	[0, 0, 0]	-999	PAL1	3	R1196N
682.747	4.0	1019153	TEST_PROBE	n/a	wordpools/wordpool_EN.txt	3	3	PIPE	n/a	MOOSE	PIPE	4	[0, 0, 0]	-999	PAL1	3	R1196N
682.747	4.017	1019153	REC_START	n/a	n/a	3	-999	n/a	n/a	n/a	n/a	4	[0, 0, 0]	-999	PAL1	3	R1196N
686.764	0.998	1023170	PROBE_OFF	n/a	n/a	3	-999	n/a	n/a	n/a	n/a	4	[0, 0, 0]	-999	PAL1	3	R1196N
687.762	0.002	1024168	REC_EVENT	5015.0	n/a	3	3	PIPE	<>	MOOSE	PIPE	4	[0, 0, 0]	-999	PAL1	3	R1196N
687.764	0.017	1024170	REC_END	n/a	n/a	3	-999	n/a	n/a	n/a	n/a	4	[0, 0, 0]	-999	PAL1	3	R1196N
687.781	0.267	1024187	TEST_ORIENT	n/a	n/a	4	4	BLOOM	n/a	BLOOM	FARM	4	[0, 0, 0]	-999	PAL1	3	R1196N
688.048	0.65	1024454	RETRIEVAL_ORIENT_OFF	n/a	n/a	3	-999	n/a	n/a	n/a	n/a	4	[0, 0, 0]	-999	PAL1	3	R1196N
688.698	4.0	1025104	TEST_PROBE	n/a	wordpools/wordpool_EN.txt	4	4	BLOOM	n/a	BLOOM	FARM	4	[0, 0, 0]	-999	PAL1	3	R1196N
688.698	4.017	1025104	REC_START	n/a	n/a	4	-999	n/a	n/a	n/a	n/a	4	[0, 0, 0]	-999	PAL1	3	R1196N
692.715	0.998	1029121	PROBE_OFF	n/a	n/a	4	-999	n/a	n/a	n/a	n/a	4	[0, 0, 0]	-999	PAL1	3	R1196N
693.713	0.002	1030119	REC_EVENT	5015.0	n/a	4	4	BLOOM	<>	BLOOM	FARM	4	[0, 0, 0]	-999	PAL1	3	R1196N
693.715	0.017	1030121	REC_END	n/a	n/a	4	-999	n/a	n/a	n/a	n/a	4	[0, 0, 0]	-999	PAL1	3	R1196N
693.732	0.267	1030138	TEST_ORIENT	n/a	n/a	5	5	PEA	TOOL	PEA	TOOL	4	[0, 0, 0]	-999	PAL1	3	R1196N
693.999	0.7	1030405	RETRIEVAL_ORIENT_OFF	n/a	n/a	4	-999	n/a	n/a	n/a	n/a	4	[0, 0, 0]	-999	PAL1	3	R1196N
694.699	4.0	1031105	TEST_PROBE	n/a	wordpools/wordpool_EN.txt	5	5	PEA	TOOL	PEA	TOOL	4	[0, 0, 0]	-999	PAL1	3	R1196N
694.699	1.192	1031105	REC_START	n/a	n/a	5	-999	n/a	TOOL	n/a	n/a	4	[0, 0, 0]	-999	PAL1	3	R1196N
695.891	2.825	1032297	REC_EVENT	1192.0	n/a	5	5	PEA	TOOL	PEA	TOOL	4	[0, 0, 0]	-999	PAL1	3	R1196N
698.716	1.0	1035122	PROBE_OFF	n/a	n/a	5	-999	n/a	n/a	n/a	n/a	4	[0, 0, 0]	-999	PAL1	3	R1196N
699.716	0.017	1036122	REC_END	n/a	n/a	5	-999	n/a	n/a	n/a	n/a	4	[0, 0, 0]	-999	PAL1	3	R1196N
699.733	0.267	1036139	TEST_ORIENT	n/a	n/a	2	6	BOAT	n/a	PURSE	BOAT	4	[0, 0, 0]	-999	PAL1	3	R1196N
700.0	0.666	1036406	RETRIEVAL_ORIENT_OFF	n/a	n/a	5	-999	n/a	n/a	n/a	n/a	4	[0, 0, 0]	-999	PAL1	3	R1196N
700.666	4.0	1037072	TEST_PROBE	n/a	wordpools/wordpool_EN.txt	2	6	BOAT	n/a	PURSE	BOAT	4	[0, 0, 0]	-999	PAL1	3	R1196N
700.667	4.017	1037073	REC_START	n/a	n/a	2	-999	n/a	n/a	n/a	n/a	4	[0, 0, 0]	-999	PAL1	3	R1196N
704.684	0.998	1041089	PROBE_OFF	n/a	n/a	2	-999	n/a	n/a	n/a	n/a	4	[0, 0, 0]	-999	PAL1	3	R1196N
705.682	0.002	1042087	REC_EVENT	5015.0	n/a	2	6	BOAT	<>	PURSE	BOAT	4	[0, 0, 0]	-999	PAL1	3	R1196N
705.684	0.009	1042089	REC_END	n/a	n/a	2	-999	n/a	n/a	n/a	n/a	4	[0, 0, 0]	-999	PAL1	3	R1196N
705.693	7.592	1042098	RECALL_END	n/a	n/a	-999	-999	n/a	n/a	n/a	n/a	4	[0, 0, 0]	-999	PAL1	3	R1196N
713.285	10.929	1049690	TRIAL	n/a	n/a	-999	-999	n/a	n/a	n/a	n/a	5	[0, 0, 0]	-999	PAL1	3	R1196N
724.214	0.006	1060619	ENCODING_START	n/a	n/a	-999	-999	n/a	n/a	n/a	n/a	5	[0, 0, 0]	-999	PAL1	3	R1196N
724.22	0.267	1060625	STUDY_ORIENT	n/a	n/a	1	3	WEED	LOCK	WEED	LOCK	5	[0, 0, 0]	-999	PAL1	3	R1196N
724.487	0.584	1060892	STUDY_ORIENT_OFF	n/a	n/a	1	3	WEED	LOCK	WEED	LOCK	5	[0, 0, 0]	-999	PAL1	3	R1196N
725.071	4.0	1061476	STUDY_PAIR	n/a	wordpools/wordpool_EN.txt	1	3	WEED	LOCK	WEED	LOCK	5	[0, 0, 0]	-999	PAL1	3	R1196N
729.088	1.017	1065492	PAIR_OFF	n/a	n/a	1	3	WEED	LOCK	WEED	LOCK	5	[0, 0, 0]	-999	PAL1	3	R1196N
730.105	0.266	1066509	STUDY_ORIENT	n/a	n/a	2	6	FISH	YARD	FISH	YARD	5	[0, 0, 0]	-999	PAL1	3	R1196N
730.371	0.551	1066775	STUDY_ORIENT_OFF	n/a	n/a	2	6	FISH	YARD	FISH	YARD	5	[0, 0, 0]	-999	PAL1	3	R1196N
730.922	4.0	1067326	STUDY_PAIR	n/a	wordpools/wordpool_EN.txt	2	6	FISH	YARD	FISH	YARD	5	[0, 0, 0]	-999	PAL1	3	R1196N
734.939	1.017	1071343	PAIR_OFF	n/a	n/a	2	6	FISH	YARD	FISH	YARD	5	[0, 0, 0]	-999	PAL1	3	R1196N
735.956	0.266	1072360	STUDY_ORIENT	n/a	n/a	3	5	COIN	n/a	COIN	DUCK	5	[0, 0, 0]	-999	PAL1	3	R1196N
736.222	0.534	1072626	STUDY_ORIENT_OFF	n/a	n/a	3	5	COIN	n/a	COIN	DUCK	5	[0, 0, 0]	-999	PAL1	3	R1196N
736.756	4.0	1073160	STUDY_PAIR	n/a	wordpools/wordpool_EN.txt	3	5	COIN	n/a	COIN	DUCK	5	[0, 0, 0]	-999	PAL1	3	R1196N
740.773	1.017	1077177	PAIR_OFF	n/a	n/a	3	5	COIN	n/a	COIN	DUCK	5	[0, 0, 0]	-999	PAL1	3	R1196N
741.79	0.267	1078194	STUDY_ORIENT	n/a	n/a	4	2	BARN	n/a	BARN	BOARD	5	[0, 0, 0]	-999	PAL1	3	R1196N
742.057	0.633	1078461	STUDY_ORIENT_OFF	n/a	n/a	4	2	BARN	n/a	BARN	BOARD	5	[0, 0, 0]	-999	PAL1	3	R1196N
742.69	4.0	1079094	STUDY_PAIR	n/a	wordpools/wordpool_EN.txt	4	2	BARN	n/a	BARN	BOARD	5	[0, 0, 0]	-999	PAL1	3	R1196N
746.708	1.016	1083112	PAIR_OFF	n/a	n/a	4	2	BARN	n/a	BARN	BOARD	5	[0, 0, 0]	-999	PAL1	3	R1196N
747.724	0.267	1084128	STUDY_ORIENT	n/a	n/a	5	1	FOOT	HOLE	FOOT	HOLE	5	[0, 0, 0]	-999	PAL1	3	R1196N
747.991	0.75	1084395	STUDY_ORIENT_OFF	n/a	n/a	5	1	FOOT	HOLE	FOOT	HOLE	5	[0, 0, 0]	-999	PAL1	3	R1196N
748.741	4.0	1085145	STUDY_PAIR	n/a	wordpools/wordpool_EN.txt	5	1	FOOT	HOLE	FOOT	HOLE	5	[0, 0, 0]	-999	PAL1	3	R1196N
752.759	1.016	1089163	PAIR_OFF	n/a	n/a	5	1	FOOT	HOLE	FOOT	HOLE	5	[0, 0, 0]	-999	PAL1	3	R1196N
753.775	0.267	1090178	STUDY_ORIENT	n/a	n/a	6	4	ELF	VEST	ELF	VEST	5	[0, 0, 0]	-999	PAL1	3	R1196N
754.042	0.65	1090445	STUDY_ORIENT_OFF	n/a	n/a	6	4	ELF	VEST	ELF	VEST	5	[0, 0, 0]	-999	PAL1	3	R1196N
754.692	4.0	1091095	STUDY_PAIR	n/a	wordpools/wordpool_EN.txt	6	4	ELF	VEST	ELF	VEST	5	[0, 0, 0]	-999	PAL1	3	R1196N
758.71	1.001	1095113	PAIR_OFF	n/a	n/a	6	4	ELF	VEST	ELF	VEST	5	[0, 0, 0]	-999	PAL1	3	R1196N
759.711	0.0	1096114	ENCODING_END	n/a	n/a	-999	-999	n/a	n/a	n/a	n/a	5	[0, 0, 0]	-999	PAL1	3	R1196N
759.711	0.0	1096114	MATH_START	n/a	n/a	-999	-999	n/a	n/a	n/a	n/a	5	[0, 0, 0]	-999	PAL1	3	R1196N
759.711	0.015	1096114	START	n/a	n/a	-999	-999	n/a	n/a	n/a	n/a	5	[-999, -999, -999]	-999	PAL1	3	R1196N
759.726	6.468	1096129	PROB	6430.0	n/a	-999	-999	n/a	n/a	n/a	n/a	5	[3, 2, 4]	9	PAL1	3	R1196N
766.194	3.117	1102597	PROB	3082.0	n/a	-999	-999	n/a	n/a	n/a	n/a	5	[4, 3, 6]	13	PAL1	3	R1196N
769.311	3.218	1105714	PROB	3181.0	n/a	-999	-999	n/a	n/a	n/a	n/a	5	[2, 4, 2]	8	PAL1	3	R1196N
772.529	3.467	1108932	PROB	3435.0	n/a	-999	-999	n/a	n/a	n/a	n/a	5	[2, 9, 5]	16	PAL1	3	R1196N
775.996	3.25	1112399	PROB	3224.0	n/a	-999	-999	n/a	n/a	n/a	n/a	5	[1, 4, 6]	11	PAL1	3	R1196N
779.246	3.798	1115648	PROB	3798.0	n/a	-999	-999	n/a	n/a	n/a	n/a	5	[6, 1, 7]	14	PAL1	3	R1196N
783.044	0.02	1119446	STOP	n/a	n/a	-999	-999	n/a	n/a	n/a	n/a	5	[-999, -999, -999]	-999	PAL1	3	R1196N
783.064	0.0	1119466	MATH_END	n/a	n/a	-999	-999	n/a	n/a	n/a	n/a	5	[0, 0, 0]	-999	PAL1	3	R1196N
783.064	0.016	1119466	RECALL_START	n/a	n/a	-999	-999	n/a	n/a	n/a	n/a	5	[0, 0, 0]	-999	PAL1	3	R1196N
783.08	0.267	1119482	TEST_ORIENT	n/a	n/a	5	1	FOOT	HOLE	FOOT	HOLE	5	[0, 0, 0]	-999	PAL1	3	R1196N
783.347	0.717	1119749	RETRIEVAL_ORIENT_OFF	n/a	n/a	-999	-999	n/a	n/a	n/a	n/a	5	[0, 0, 0]	-999	PAL1	3	R1196N
784.064	4.0	1120466	TEST_PROBE	n/a	wordpools/wordpool_EN.txt	5	1	FOOT	HOLE	FOOT	HOLE	5	[0, 0, 0]	-999	PAL1	3	R1196N
784.064	1.64	1120466	REC_START	n/a	n/a	5	-999	n/a	HOLE	n/a	n/a	5	[0, 0, 0]	-999	PAL1	3	R1196N
785.704	2.377	1122106	REC_EVENT	1640.0	n/a	5	1	FOOT	HOLE	FOOT	HOLE	5	[0, 0, 0]	-999	PAL1	3	R1196N
788.081	1.0	1124483	PROBE_OFF	n/a	n/a	5	-999	n/a	n/a	n/a	n/a	5	[0, 0, 0]	-999	PAL1	3	R1196N
789.081	0.017	1125483	REC_END	n/a	n/a	5	-999	n/a	n/a	n/a	n/a	5	[0, 0, 0]	-999	PAL1	3	R1196N
789.098	0.267	1125500	TEST_ORIENT	n/a	n/a	4	2	BARN	n/a	BARN	BOARD	5	[0, 0, 0]	-999	PAL1	3	R1196N
789.365	0.633	1125767	RETRIEVAL_ORIENT_OFF	n/a	n/a	5	-999	n/a	n/a	n/a	n/a	5	[0, 0, 0]	-999	PAL1	3	R1196N
789.998	4.0	1126400	TEST_PROBE	n/a	wordpools/wordpool_EN.txt	4	2	BARN	n/a	BARN	BOARD	5	[0, 0, 0]	-999	PAL1	3	R1196N
789.999	4.016	1126401	REC_START	n/a	n/a	4	-999	n/a	n/a	n/a	n/a	5	[0, 0, 0]	-999	PAL1	3	R1196N
794.015	0.999	1130417	PROBE_OFF	n/a	n/a	4	-999	n/a	n/a	n/a	n/a	5	[0, 0, 0]	-999	PAL1	3	R1196N
795.014	0.001	1131416	REC_EVENT	5015.0	n/a	4	2	BARN	<>	BARN	BOARD	5	[0, 0, 0]	-999	PAL1	3	R1196N
795.015	0.017	1131417	REC_END	n/a	n/a	4	-999	n/a	n/a	n/a	n/a	5	[0, 0, 0]	-999	PAL1	3	R1196N
795.032	0.267	1131434	TEST_ORIENT	n/a	n/a	1	3	WEED	LOCK	WEED	LOCK	5	[0, 0, 0]	-999	PAL1	3	R1196N
795.299	0.532	1131701	RETRIEVAL_ORIENT_OFF	n/a	n/a	4	-999	n/a	n/a	n/a	n/a	5	[0, 0, 0]	-999	PAL1	3	R1196N
795.831	4.0	1132233	TEST_PROBE	n/a	wordpools/wordpool_EN.txt	1	3	WEED	LOCK	WEED	LOCK	5	[0, 0, 0]	-999	PAL1	3	R1196N
795.832	1.046	1132234	REC_START	n/a	n/a	1	-999	n/a	LOCK	n/a	n/a	5	[0, 0, 0]	-999	PAL1	3	R1196N
796.878	2.971	1133280	REC_EVENT	1046.0	n/a	1	3	WEED	LOCK	WEED	LOCK	5	[0, 0, 0]	-999	PAL1	3	R1196N
799.849	1.0	1136251	PROBE_OFF	n/a	n/a	1	-999	n/a	n/a	n/a	n/a	5	[0, 0, 0]	-999	PAL1	3	R1196N
800.849	0.017	1137251	REC_END	n/a	n/a	1	-999	n/a	n/a	n/a	n/a	5	[0, 0, 0]	-999	PAL1	3	R1196N
800.866	0.267	1137268	TEST_ORIENT	n/a	n/a	6	4	ELF	VEST	ELF	VEST	5	[0, 0, 0]	-999	PAL1	3	R1196N
801.133	0.634	1137535	RETRIEVAL_ORIENT_OFF	n/a	n/a	1	-999	n/a	n/a	n/a	n/a	5	[0, 0, 0]	-999	PAL1	3	R1196N
801.767	4.0	1138169	TEST_PROBE	n/a	wordpools/wordpool_EN.txt	6	4	ELF	VEST	ELF	VEST	5	[0, 0, 0]	-999	PAL1	3	R1196N
801.767	1.006	1138169	REC_START	n/a	n/a	6	-999	n/a	VEST	n/a	n/a	5	[0, 0, 0]	-999	PAL1	3	R1196N
802.773	3.011	1139175	REC_EVENT	1006.0	n/a	6	4	ELF	VEST	ELF	VEST	5	[0, 0, 0]	-999	PAL1	3	R1196N
805.784	1.0	1142185	PROBE_OFF	n/a	n/a	6	-999	n/a	n/a	n/a	n/a	5	[0, 0, 0]	-999	PAL1	3	R1196N
806.784	0.016	1143185	REC_END	n/a	n/a	6	-999	n/a	n/a	n/a	n/a	5	[0, 0, 0]	-999	PAL1	3	R1196N
806.8	0.268	1143201	TEST_ORIENT	n/a	n/a	3	5	COIN	n/a	COIN	DUCK	5	[0, 0, 0]	-999	PAL1	3	R1196N
807.068	0.633	1143469	RETRIEVAL_ORIENT_OFF	n/a	n/a	6	-999	n/a	n/a	n/a	n/a	5	[0, 0, 0]	-999	PAL1	3	R1196N
807.701	0.0	1144102	REC_START	n/a	n/a	3	-999	n/a	n/a	n/a	n/a	5	[0, 0, 0]	-999	PAL1	3	R1196N
807.701	4.0	1144102	TEST_PROBE	n/a	wordpools/wordpool_EN.txt	3	5	COIN	n/a	COIN	DUCK	5	[0, 0, 0]	-999	PAL1	3	R1196N
811.718	0.998	1148119	PROBE_OFF	n/a	n/a	3	-999	n/a	n/a	n/a	n/a	5	[0, 0, 0]	-999	PAL1	3	R1196N
812.716	0.002	1149117	REC_EVENT	5015.0	n/a	3	5	COIN	<>	COIN	DUCK	5	[0, 0, 0]	-999	PAL1	3	R1196N
812.718	0.017	1149119	REC_END	n/a	n/a	3	-999	n/a	n/a	n/a	n/a	5	[0, 0, 0]	-999	PAL1	3	R1196N
812.735	0.267	1149136	TEST_ORIENT	n/a	n/a	2	6	FISH	YARD	FISH	YARD	5	[0, 0, 0]	-999	PAL1	3	R1196N
813.002	0.533	1149403	RETRIEVAL_ORIENT_OFF	n/a	n/a	3	-999	n/a	n/a	n/a	n/a	5	[0, 0, 0]	-999	PAL1	3	R1196N
813.535	4.0	1149936	TEST_PROBE	n/a	wordpools/wordpool_EN.txt	2	6	FISH	YARD	FISH	YARD	5	[0, 0, 0]	-999	PAL1	3	R1196N
813.536	1.074	1149937	REC_START	n/a	n/a	2	-999	n/a	YARD	n/a	n/a	5	[0, 0, 0]	-999	PAL1	3	R1196N
814.61	2.926	1151011	REC_EVENT	1074.0	n/a	2	6	FISH	YARD	FISH	YARD	5	[0, 0, 0]	-999	PAL1	3	R1196N
817.536	1.0	1153937	PROBE_OFF	n/a	n/a	2	-999	n/a	n/a	n/a	n/a	5	[0, 0, 0]	-999	PAL1	3	R1196N
818.536	0.008	1154937	REC_END	n/a	n/a	2	-999	n/a	n/a	n/a	n/a	5	[0, 0, 0]	-999	PAL1	3	R1196N
818.544	6.077	1154945	RECALL_END	n/a	n/a	-999	-999	n/a	n/a	n/a	n/a	5	[0, 0, 0]	-999	PAL1	3	R1196N
824.621	10.929	1161022	TRIAL	n/a	n/a	-999	-999	n/a	n/a	n/a	n/a	6	[0, 0, 0]	-999	PAL1	3	R1196N
835.55	0.006	1171950	ENCODING_START	n/a	n/a	-999	-999	n/a	n/a	n/a	n/a	6	[0, 0, 0]	-999	PAL1	3	R1196N
835.556	0.265	1171956	STUDY_ORIENT	n/a	n/a	1	5	JET	SHELL	SHELL	JET	6	[0, 0, 0]	-999	PAL1	3	R1196N
835.821	0.652	1172221	STUDY_ORIENT_OFF	n/a	n/a	1	5	JET	SHELL	SHELL	JET	6	[0, 0, 0]	-999	PAL1	3	R1196N
836.473	4.0	1172873	STUDY_PAIR	n/a	wordpools/wordpool_EN.txt	1	5	JET	SHELL	SHELL	JET	6	[0, 0, 0]	-999	PAL1	3	R1196N
840.49	1.017	1176890	PAIR_OFF	n/a	n/a	1	5	JET	SHELL	SHELL	JET	6	[0, 0, 0]	-999	PAL1	3	R1196N
841.507	0.267	1177907	STUDY_ORIENT	n/a	n/a	2	6	FLEA	RAKE	RAKE	FLEA	6	[0, 0, 0]	-999	PAL1	3	R1196N
841.774	0.533	1178174	STUDY_ORIENT_OFF	n/a	n/a	2	6	FLEA	RAKE	RAKE	FLEA	6	[0, 0, 0]	-999	PAL1	3	R1196N
842.307	4.0	1178707	STUDY_PAIR	n/a	wordpools/wordpool_EN.txt	2	6	FLEA	RAKE	RAKE	FLEA	6	[0, 0, 0]	-999	PAL1	3	R1196N
846.324	1.017	1182724	PAIR_OFF	n/a	n/a	2	6	FLEA	RAKE	RAKE	FLEA	6	[0, 0, 0]	-999	PAL1	3	R1196N
847.341	0.267	1183741	STUDY_ORIENT	n/a	n/a	3	3	STREET	PEARL	PEARL	STREET	6	[0, 0, 0]	-999	PAL1	3	R1196N
847.608	0.667	1184008	STUDY_ORIENT_OFF	n/a	n/a	3	3	STREET	PEARL	PEARL	STREET	6	[0, 0, 0]	-999	PAL1	3	R1196N
848.275	4.0	1184675	STUDY_PAIR	n/a	wordpools/wordpool_EN.txt	3	3	STREET	PEARL	PEARL	STREET	6	[0, 0, 0]	-999	PAL1	3	R1196N
852.292	1.017	1188692	PAIR_OFF	n/a	n/a	3	3	STREET	PEARL	PEARL	STREET	6	[0, 0, 0]	-999	PAL1	3	R1196N
853.309	0.266	1189709	STUDY_ORIENT	n/a	n/a	4	2	FUDGE	APE	FUDGE	APE	6	[0, 0, 0]	-999	PAL1	3	R1196N
853.575	0.667	1189974	STUDY_ORIENT_OFF	n/a	n/a	4	2	FUDGE	APE	FUDGE	APE	6	[0, 0, 0]	-999	PAL1	3	R1196N
854.242	4.0	1190641	STUDY_PAIR	n/a	wordpools/wordpool_EN.txt	4	2	FUDGE	APE	FUDGE	APE	6	[0, 0, 0]	-999	PAL1	3	R1196N
858.26	1.016	1194659	PAIR_OFF	n/a	n/a	4	2	FUDGE	APE	FUDGE	APE	6	[0, 0, 0]	-999	PAL1	3	R1196N
859.276	0.267	1195675	STUDY_ORIENT	n/a	n/a	5	1	STAIR	n/a	JAR	STAIR	6	[0, 0, 0]	-999	PAL1	3	R1196N
859.543	0.734	1195942	STUDY_ORIENT_OFF	n/a	n/a	5	1	STAIR	n/a	JAR	STAIR	6	[0, 0, 0]	-999	PAL1	3	R1196N
860.277	4.0	1196676	STUDY_PAIR	n/a	wordpools/wordpool_EN.txt	5	1	STAIR	n/a	JAR	STAIR	6	[0, 0, 0]	-999	PAL1	3	R1196N
864.294	1.017	1200693	PAIR_OFF	n/a	n/a	5	1	STAIR	n/a	JAR	STAIR	6	[0, 0, 0]	-999	PAL1	3	R1196N
865.311	0.266	1201710	STUDY_ORIENT	n/a	n/a	6	4	CONE	n/a	POLE	CONE	6	[0, 0, 0]	-999	PAL1	3	R1196N
865.577	0.751	1201976	STUDY_ORIENT_OFF	n/a	n/a	6	4	CONE	n/a	POLE	CONE	6	[0, 0, 0]	-999	PAL1	3	R1196N
866.328	4.0	1202727	STUDY_PAIR	n/a	wordpools/wordpool_EN.txt	6	4	CONE	n/a	POLE	CONE	6	[0, 0, 0]	-999	PAL1	3	R1196N
870.345	1.001	1206744	PAIR_OFF	n/a	n/a	6	4	CONE	n/a	POLE	CONE	6	[0, 0, 0]	-999	PAL1	3	R1196N
871.346	0.0	1207745	ENCODING_END	n/a	n/a	-999	-999	n/a	n/a	n/a	n/a	6	[0, 0, 0]	-999	PAL1	3	R1196N
871.346	0.0	1207745	MATH_START	n/a	n/a	-999	-999	n/a	n/a	n/a	n/a	6	[0, 0, 0]	-999	PAL1	3	R1196N
871.346	0.016	1207745	START	n/a	n/a	-999	-999	n/a	n/a	n/a	n/a	6	[-999, -999, -999]	-999	PAL1	3	R1196N
871.362	6.301	1207761	PROB	6274.0	n/a	-999	-999	n/a	n/a	n/a	n/a	6	[6, 1, 1]	8	PAL1	3	R1196N
877.663	4.401	1214062	PROB	4372.0	n/a	-999	-999	n/a	n/a	n/a	n/a	6	[5, 8, 1]	14	PAL1	3	R1196N
882.064	4.567	1218462	PROB	4539.0	n/a	-999	-999	n/a	n/a	n/a	n/a	6	[9, 5, 2]	16	PAL1	3	R1196N
886.631	8.54	1223029	PROB	8540.0	n/a	-999	-999	n/a	n/a	n/a	n/a	6	[5, 8, 6]	19	PAL1	3	R1196N
895.171	0.011	1231569	STOP	n/a	n/a	-999	-999	n/a	n/a	n/a	n/a	6	[-999, -999, -999]	-999	PAL1	3	R1196N
895.182	0.001	1231580	MATH_END	n/a	n/a	-999	-999	n/a	n/a	n/a	n/a	6	[0, 0, 0]	-999	PAL1	3	R1196N
895.183	0.016	1231581	RECALL_START	n/a	n/a	-999	-999	n/a	n/a	n/a	n/a	6	[0, 0, 0]	-999	PAL1	3	R1196N
895.199	0.267	1231597	TEST_ORIENT	n/a	n/a	5	1	STAIR	n/a	JAR	STAIR	6	[0, 0, 0]	-999	PAL1	3	R1196N
895.466	0.567	1231864	RETRIEVAL_ORIENT_OFF	n/a	n/a	-999	-999	n/a	n/a	n/a	n/a	6	[0, 0, 0]	-999	PAL1	3	R1196N
896.033	0.0	1232431	REC_START	n/a	n/a	5	-999	n/a	n/a	n/a	n/a	6	[0, 0, 0]	-999	PAL1	3	R1196N
896.033	4.0	1232431	TEST_PROBE	n/a	wordpools/wordpool_EN.txt	5	1	STAIR	n/a	JAR	STAIR	6	[0, 0, 0]	-999	PAL1	3	R1196N
900.05	0.998	1236448	PROBE_OFF	n/a	n/a	5	-999	n/a	n/a	n/a	n/a	6	[0, 0, 0]	-999	PAL1	3	R1196N
901.048	0.002	1237446	REC_EVENT	5015.0	n/a	5	1	STAIR	<>	JAR	STAIR	6	[0, 0, 0]	-999	PAL1	3	R1196N
901.05	0.017	1237448	REC_END	n/a	n/a	5	-999	n/a	n/a	n/a	n/a	6	[0, 0, 0]	-999	PAL1	3	R1196N
901.067	0.266	1237465	TEST_ORIENT	n/a	n/a	4	2	FUDGE	APE	FUDGE	APE	6	[0, 0, 0]	-999	PAL1	3	R1196N
901.333	0.667	1237731	RETRIEVAL_ORIENT_OFF	n/a	n/a	5	-999	n/a	n/a	n/a	n/a	6	[0, 0, 0]	-999	PAL1	3	R1196N
902.0	4.0	1238398	TEST_PROBE	n/a	wordpools/wordpool_EN.txt	4	2	FUDGE	APE	FUDGE	APE	6	[0, 0, 0]	-999	PAL1	3	R1196N
902.001	1.402	1238399	REC_START	n/a	n/a	4	-999	n/a	APE	n/a	n/a	6	[0, 0, 0]	-999	PAL1	3	R1196N
903.403	2.615	1239801	REC_EVENT	1402.0	n/a	4	2	FUDGE	APE	FUDGE	APE	6	[0, 0, 0]	-999	PAL1	3	R1196N
906.018	1.0	1242415	PROBE_OFF	n/a	n/a	4	-999	n/a	n/a	n/a	n/a	6	[0, 0, 0]	-999	PAL1	3	R1196N
907.018	0.017	1243415	REC_END	n/a	n/a	4	-999	n/a	n/a	n/a	n/a	6	[0, 0, 0]	-999	PAL1	3	R1196N
907.035	0.266	1243432	TEST_ORIENT	n/a	n/a	3	3	STREET	PEARL	PEARL	STREET	6	[0, 0, 0]	-999	PAL1	3	R1196N
907.301	0.583	1243698	RETRIEVAL_ORIENT_OFF	n/a	n/a	4	-999	n/a	n/a	n/a	n/a	6	[0, 0, 0]	-999	PAL1	3	R1196N
907.884	0.0	1244281	REC_START	n/a	n/a	3	-999	n/a	PEARL	n/a	n/a	6	[0, 0, 0]	-999	PAL1	3	R1196N
907.884	4.0	1244281	TEST_PROBE	n/a	wordpools/wordpool_EN.txt	3	3	STREET	PEARL	PEARL	STREET	6	[0, 0, 0]	-999	PAL1	3	R1196N
909.322	2.58	1245719	REC_EVENT	1438.0	n/a	3	3	STREET	PEARL	PEARL	STREET	6	[0, 0, 0]	-999	PAL1	3	R1196N
911.902	1.0	1248299	PROBE_OFF	n/a	n/a	3	-999	n/a	n/a	n/a	n/a	6	[0, 0, 0]	-999	PAL1	3	R1196N
912.902	0.017	1249299	REC_END	n/a	n/a	3	-999	n/a	n/a	n/a	n/a	6	[0, 0, 0]	-999	PAL1	3	R1196N
912.919	0.267	1249316	TEST_ORIENT	n/a	n/a	6	4	CONE	n/a	POLE	CONE	6	[0, 0, 0]	-999	PAL1	3	R1196N
913.186	0.665	1249583	RETRIEVAL_ORIENT_OFF	n/a	n/a	3	-999	n/a	n/a	n/a	n/a	6	[0, 0, 0]	-999	PAL1	3	R1196N
913.851	4.0	1250248	TEST_PROBE	n/a	wordpools/wordpool_EN.txt	6	4	CONE	n/a	POLE	CONE	6	[0, 0, 0]	-999	PAL1	3	R1196N
913.851	4.018	1250248	REC_START	n/a	n/a	6	-999	n/a	n/a	n/a	n/a	6	[0, 0, 0]	-999	PAL1	3	R1196N
917.869	1.0	1254266	PROBE_OFF	n/a	n/a	6	-999	n/a	n/a	n/a	n/a	6	[0, 0, 0]	-999	PAL1	3	R1196N
918.869	0.003	1255266	REC_END	n/a	n/a	6	-999	n/a	n/a	n/a	n/a	6	[0, 0, 0]	-999	PAL1	3	R1196N
918.872	0.013	1255269	REC_EVENT	5021.0	n/a	6	4	CONE	<>	POLE	CONE	6	[0, 0, 0]	-999	PAL1	3	R1196N
918.885	0.251	1255282	TEST_ORIENT	n/a	n/a	1	5	JET	SHELL	SHELL	JET	6	[0, 0, 0]	-999	PAL1	3	R1196N
919.136	0.534	1255533	RETRIEVAL_ORIENT_OFF	n/a	n/a	6	-999	n/a	n/a	n/a	n/a	6	[0, 0, 0]	-999	PAL1	3	R1196N
919.67	0.0	1256067	REC_START	n/a	n/a	1	-999	n/a	SHELL	n/a	n/a	6	[0, 0, 0]	-999	PAL1	3	R1196N
919.67	4.0	1256067	TEST_PROBE	n/a	wordpools/wordpool_EN.txt	1	5	JET	SHELL	SHELL	JET	6	[0, 0, 0]	-999	PAL1	3	R1196N
920.571	3.116	1256968	REC_EVENT	901.0	n/a	1	5	JET	SHELL	SHELL	JET	6	[0, 0, 0]	-999	PAL1	3	R1196N
923.687	1.0	1260084	PROBE_OFF	n/a	n/a	1	-999	n/a	n/a	n/a	n/a	6	[0, 0, 0]	-999	PAL1	3	R1196N
924.687	0.017	1261084	REC_END	n/a	n/a	1	-999	n/a	n/a	n/a	n/a	6	[0, 0, 0]	-999	PAL1	3	R1196N
924.704	0.267	1261101	TEST_ORIENT	n/a	n/a	2	6	FLEA	RAKE	RAKE	FLEA	6	[0, 0, 0]	-999	PAL1	3	R1196N
924.971	0.633	1261368	RETRIEVAL_ORIENT_OFF	n/a	n/a	1	-999	n/a	n/a	n/a	n/a	6	[0, 0, 0]	-999	PAL1	3	R1196N
925.604	4.0	1262001	TEST_PROBE	n/a	wordpools/wordpool_EN.txt	2	6	FLEA	RAKE	RAKE	FLEA	6	[0, 0, 0]	-999	PAL1	3	R1196N
925.605	0.977	1262002	REC_START	n/a	n/a	2	-999	n/a	RAKE	n/a	n/a	6	[0, 0, 0]	-999	PAL1	3	R1196N
926.582	3.04	1262979	REC_EVENT	977.0	n/a	2	6	FLEA	RAKE	RAKE	FLEA	6	[0, 0, 0]	-999	PAL1	3	R1196N
929.622	1.0	1266018	PROBE_OFF	n/a	n/a	2	-999	n/a	n/a	n/a	n/a	6	[0, 0, 0]	-999	PAL1	3	R1196N
930.622	0.009	1267018	REC_END	n/a	n/a	2	-999	n/a	n/a	n/a	n/a	6	[0, 0, 0]	-999	PAL1	3	R1196N
930.631	4.575	1267027	RECALL_END	n/a	n/a	-999	-999	n/a	n/a	n/a	n/a	6	[0, 0, 0]	-999	PAL1	3	R1196N
935.206	10.928	1271602	TRIAL	n/a	n/a	-999	-999	n/a	n/a	n/a	n/a	7	[0, 0, 0]	-999	PAL1	3	R1196N
946.134	0.007	1282530	ENCODING_START	n/a	n/a	-999	-999	n/a	n/a	n/a	n/a	7	[0, 0, 0]	-999	PAL1	3	R1196N
946.141	0.267	1282537	STUDY_ORIENT	n/a	n/a	1	1	SHOE	n/a	ROOM	SHOE	7	[0, 0, 0]	-999	PAL1	3	R1196N
946.408	0.65	1282804	STUDY_ORIENT_OFF	n/a	n/a	1	1	SHOE	n/a	ROOM	SHOE	7	[0, 0, 0]	-999	PAL1	3	R1196N
947.058	4.0	1283454	STUDY_PAIR	n/a	wordpools/wordpool_EN.txt	1	1	SHOE	n/a	ROOM	SHOE	7	[0, 0, 0]	-999	PAL1	3	R1196N
951.075	1.017	1287471	PAIR_OFF	n/a	n/a	1	1	SHOE	n/a	ROOM	SHOE	7	[0, 0, 0]	-999	PAL1	3	R1196N
952.092	0.267	1288488	STUDY_ORIENT	n/a	n/a	2	4	WOOD	WHALE	WHALE	WOOD	7	[0, 0, 0]	-999	PAL1	3	R1196N
952.359	0.533	1288755	STUDY_ORIENT_OFF	n/a	n/a	2	4	WOOD	WHALE	WHALE	WOOD	7	[0, 0, 0]	-999	PAL1	3	R1196N
952.892	4.0	1289288	STUDY_PAIR	n/a	wordpools/wordpool_EN.txt	2	4	WOOD	WHALE	WHALE	WOOD	7	[0, 0, 0]	-999	PAL1	3	R1196N
956.909	1.017	1293304	PAIR_OFF	n/a	n/a	2	4	WOOD	WHALE	WHALE	WOOD	7	[0, 0, 0]	-999	PAL1	3	R1196N
957.926	0.267	1294321	STUDY_ORIENT	n/a	n/a	3	5	THREAD	INK	INK	THREAD	7	[0, 0, 0]	-999	PAL1	3	R1196N
958.193	0.666	1294588	STUDY_ORIENT_OFF	n/a	n/a	3	5	THREAD	INK	INK	THREAD	7	[0, 0, 0]	-999	PAL1	3	R1196N
958.859	4.0	1295254	STUDY_PAIR	n/a	wordpools/wordpool_EN.txt	3	5	THREAD	INK	INK	THREAD	7	[0, 0, 0]	-999	PAL1	3	R1196N
962.876	1.018	1299271	PAIR_OFF	n/a	n/a	3	5	THREAD	INK	INK	THREAD	7	[0, 0, 0]	-999	PAL1	3	R1196N
963.894	0.267	1300289	STUDY_ORIENT	n/a	n/a	4	2	PEAR	WORLD	PEAR	WORLD	7	[0, 0, 0]	-999	PAL1	3	R1196N
964.161	0.733	1300556	STUDY_ORIENT_OFF	n/a	n/a	4	2	PEAR	WORLD	PEAR	WORLD	7	[0, 0, 0]	-999	PAL1	3	R1196N
964.894	4.0	1301289	STUDY_PAIR	n/a	wordpools/wordpool_EN.txt	4	2	PEAR	WORLD	PEAR	WORLD	7	[0, 0, 0]	-999	PAL1	3	R1196N
968.912	1.016	1305307	PAIR_OFF	n/a	n/a	4	2	PEAR	WORLD	PEAR	WORLD	7	[0, 0, 0]	-999	PAL1	3	R1196N
969.928	0.267	1306323	STUDY_ORIENT	n/a	n/a	5	3	BEE	LAKE	BEE	LAKE	7	[0, 0, 0]	-999	PAL1	3	R1196N
970.195	0.583	1306590	STUDY_ORIENT_OFF	n/a	n/a	5	3	BEE	LAKE	BEE	LAKE	7	[0, 0, 0]	-999	PAL1	3	R1196N
970.778	4.0	1307173	STUDY_PAIR	n/a	wordpools/wordpool_EN.txt	5	3	BEE	LAKE	BEE	LAKE	7	[0, 0, 0]	-999	PAL1	3	R1196N
974.795	1.017	1311190	PAIR_OFF	n/a	n/a	5	3	BEE	LAKE	BEE	LAKE	7	[0, 0, 0]	-999	PAL1	3	R1196N
975.812	0.267	1312207	STUDY_ORIENT	n/a	n/a	6	6	ARK	SIGN	SIGN	ARK	7	[0, 0, 0]	-999	PAL1	3	R1196N
976.079	0.617	1312474	STUDY_ORIENT_OFF	n/a	n/a	6	6	ARK	SIGN	SIGN	ARK	7	[0, 0, 0]	-999	PAL1	3	R1196N
976.696	4.0	1313091	STUDY_PAIR	n/a	wordpools/wordpool_EN.txt	6	6	ARK	SIGN	SIGN	ARK	7	[0, 0, 0]	-999	PAL1	3	R1196N
980.714	1.001	1317108	PAIR_OFF	n/a	n/a	6	6	ARK	SIGN	SIGN	ARK	7	[0, 0, 0]	-999	PAL1	3	R1196N
981.715	0.0	1318109	ENCODING_END	n/a	n/a	-999	-999	n/a	n/a	n/a	n/a	7	[0, 0, 0]	-999	PAL1	3	R1196N
981.715	0.0	1318109	MATH_START	n/a	n/a	-999	-999	n/a	n/a	n/a	n/a	7	[0, 0, 0]	-999	PAL1	3	R1196N
981.715	0.015	1318109	START	n/a	n/a	-999	-999	n/a	n/a	n/a	n/a	7	[-999, -999, -999]	-999	PAL1	3	R1196N
981.73	2.484	1318124	PROB	2450.0	n/a	-999	-999	n/a	n/a	n/a	n/a	7	[1, 2, 3]	6	PAL1	3	R1196N
984.214	3.583	1320608	PROB	3558.0	n/a	-999	-999	n/a	n/a	n/a	n/a	7	[9, 8, 4]	21	PAL1	3	R1196N
987.797	2.067	1324191	PROB	2046.0	n/a	-999	-999	n/a	n/a	n/a	n/a	7	[6, 4, 1]	11	PAL1	3	R1196N
989.864	3.552	1326258	PROB	3524.0	n/a	-999	-999	n/a	n/a	n/a	n/a	7	[1, 7, 8]	16	PAL1	3	R1196N
993.416	5.767	1329810	PROB	5740.0	n/a	-999	-999	n/a	n/a	n/a	n/a	7	[9, 6, 8]	23	PAL1	3	R1196N
999.183	7.245	1335577	PROB	7245.0	n/a	-999	-999	n/a	n/a	n/a	n/a	7	[7, 1, 5]	13	PAL1	3	R1196N
1006.428	0.006	1342821	STOP	n/a	n/a	-999	-999	n/a	n/a	n/a	n/a	7	[-999, -999, -999]	-999	PAL1	3	R1196N
1006.434	0.001	1342827	MATH_END	n/a	n/a	-999	-999	n/a	n/a	n/a	n/a	7	[0, 0, 0]	-999	PAL1	3	R1196N
1006.435	0.016	1342828	RECALL_START	n/a	n/a	-999	-999	n/a	n/a	n/a	n/a	7	[0, 0, 0]	-999	PAL1	3	R1196N
1006.451	0.267	1342844	TEST_ORIENT	n/a	n/a	1	1	SHOE	n/a	ROOM	SHOE	7	[0, 0, 0]	-999	PAL1	3	R1196N
1006.718	0.55	1343111	RETRIEVAL_ORIENT_OFF	n/a	n/a	-999	-999	n/a	n/a	n/a	n/a	7	[0, 0, 0]	-999	PAL1	3	R1196N
1007.268	0.0	1343661	REC_START	n/a	n/a	1	-999	n/a	n/a	n/a	n/a	7	[0, 0, 0]	-999	PAL1	3	R1196N
1007.268	4.0	1343661	TEST_PROBE	n/a	wordpools/wordpool_EN.txt	1	1	SHOE	n/a	ROOM	SHOE	7	[0, 0, 0]	-999	PAL1	3	R1196N
1011.285	0.998	1347678	PROBE_OFF	n/a	n/a	1	-999	n/a	n/a	n/a	n/a	7	[0, 0, 0]	-999	PAL1	3	R1196N
1012.283	0.002	1348676	REC_EVENT	5015.0	n/a	1	1	SHOE	<>	ROOM	SHOE	7	[0, 0, 0]	-999	PAL1	3	R1196N
1012.285	0.017	1348678	REC_END	n/a	n/a	1	-999	n/a	n/a	n/a	n/a	7	[0, 0, 0]	-999	PAL1	3	R1196N
1012.302	0.267	1348695	TEST_ORIENT	n/a	n/a	4	2	PEAR	WORLD	PEAR	WORLD	7	[0, 0, 0]	-999	PAL1	3	R1196N
1012.569	0.55	1348962	RETRIEVAL_ORIENT_OFF	n/a	n/a	1	-999	n/a	n/a	n/a	n/a	7	[0, 0, 0]	-999	PAL1	3	R1196N
1013.119	4.0	1349512	TEST_PROBE	n/a	wordpools/wordpool_EN.txt	4	2	PEAR	WORLD	PEAR	WORLD	7	[0, 0, 0]	-999	PAL1	3	R1196N
1013.119	1.683	1349512	REC_START	n/a	n/a	4	-999	n/a	WORLD	n/a	n/a	7	[0, 0, 0]	-999	PAL1	3	R1196N
1014.802	2.334	1351195	REC_EVENT	1683.0	n/a	4	2	PEAR	WORLD	PEAR	WORLD	7	[0, 0, 0]	-999	PAL1	3	R1196N
1017.136	1.0	1353529	PROBE_OFF	n/a	n/a	4	-999	n/a	n/a	n/a	n/a	7	[0, 0, 0]	-999	PAL1	3	R1196N
1018.136	0.017	1354529	REC_END	n/a	n/a	4	-999	n/a	n/a	n/a	n/a	7	[0, 0, 0]	-999	PAL1	3	R1196N
1018.153	0.267	1354546	TEST_ORIENT	n/a	n/a	5	3	BEE	LAKE	BEE	LAKE	7	[0, 0, 0]	-999	PAL1	3	R1196N
1018.42	0.75	1354813	RETRIEVAL_ORIENT_OFF	n/a	n/a	4	-999	n/a	n/a	n/a	n/a	7	[0, 0, 0]	-999	PAL1	3	R1196N
1019.17	4.0	1355563	TEST_PROBE	n/a	wordpools/wordpool_EN.txt	5	3	BEE	LAKE	BEE	LAKE	7	[0, 0, 0]	-999	PAL1	3	R1196N
1019.171	1.323	1355564	REC_START	n/a	n/a	5	-999	n/a	LAKE	n/a	n/a	7	[0, 0, 0]	-999	PAL1	3	R1196N
1020.494	2.693	1356887	REC_EVENT	1323.0	n/a	5	3	BEE	LAKE	BEE	LAKE	7	[0, 0, 0]	-999	PAL1	3	R1196N
1023.187	1.0	1359580	PROBE_OFF	n/a	n/a	5	-999	n/a	n/a	n/a	n/a	7	[0, 0, 0]	-999	PAL1	3	R1196N
1024.187	0.017	1360580	REC_END	n/a	n/a	5	-999	n/a	n/a	n/a	n/a	7	[0, 0, 0]	-999	PAL1	3	R1196N
1024.204	0.267	1360597	TEST_ORIENT	n/a	n/a	2	4	WOOD	WHALE	WHALE	WOOD	7	[0, 0, 0]	-999	PAL1	3	R1196N
1024.471	0.7	1360864	RETRIEVAL_ORIENT_OFF	n/a	n/a	5	-999	n/a	n/a	n/a	n/a	7	[0, 0, 0]	-999	PAL1	3	R1196N
1025.171	4.0	1361564	TEST_PROBE	n/a	wordpools/wordpool_EN.txt	2	4	WOOD	WHALE	WHALE	WOOD	7	[0, 0, 0]	-999	PAL1	3	R1196N
1025.172	1.132	1361565	REC_START	n/a	n/a	2	-999	n/a	WHALE	n/a	n/a	7	[0, 0, 0]	-999	PAL1	3	R1196N
1026.304	2.884	1362697	REC_EVENT	1132.0	n/a	2	4	WOOD	WHALE	WHALE	WOOD	7	[0, 0, 0]	-999	PAL1	3	R1196N
1029.188	1.0	1365580	PROBE_OFF	n/a	n/a	2	-999	n/a	n/a	n/a	n/a	7	[0, 0, 0]	-999	PAL1	3	R1196N
1030.188	0.017	1366580	REC_END	n/a	n/a	2	-999	n/a	n/a	n/a	n/a	7	[0, 0, 0]	-999	PAL1	3	R1196N
1030.205	0.267	1366597	TEST_ORIENT	n/a	n/a	3	5	THREAD	INK	INK	THREAD	7	[0, 0, 0]	-999	PAL1	3	R1196N
1030.472	0.633	1366864	RETRIEVAL_ORIENT_OFF	n/a	n/a	2	-999	n/a	n/a	n/a	n/a	7	[0, 0, 0]	-999	PAL1	3	R1196N
1031.105	4.0	1367497	TEST_PROBE	n/a	wordpools/wordpool_EN.txt	3	5	THREAD	INK	INK	THREAD	7	[0, 0, 0]	-999	PAL1	3	R1196N
1031.106	1.092	1367498	REC_START	n/a	n/a	3	-999	n/a	INK	n/a	n/a	7	[0, 0, 0]	-999	PAL1	3	R1196N
1032.198	2.908	1368590	REC_EVENT	1092.0	n/a	3	5	THREAD	INK	INK	THREAD	7	[0, 0, 0]	-999	PAL1	3	R1196N
1035.106	1.0	1371498	PROBE_OFF	n/a	n/a	3	-999	n/a	n/a	n/a	n/a	7	[0, 0, 0]	-999	PAL1	3	R1196N
1036.106	0.017	1372498	REC_END	n/a	n/a	3	-999	n/a	n/a	n/a	n/a	7	[0, 0, 0]	-999	PAL1	3	R1196N
1036.123	0.267	1372515	TEST_ORIENT	n/a	n/a	6	6	ARK	SIGN	SIGN	ARK	7	[0, 0, 0]	-999	PAL1	3	R1196N
1036.39	0.55	1372782	RETRIEVAL_ORIENT_OFF	n/a	n/a	3	-999	n/a	n/a	n/a	n/a	7	[0, 0, 0]	-999	PAL1	3	R1196N
1036.94	4.0	1373332	TEST_PROBE	n/a	wordpools/wordpool_EN.txt	6	6	ARK	SIGN	SIGN	ARK	7	[0, 0, 0]	-999	PAL1	3	R1196N
1036.94	1.086	1373332	REC_START	n/a	n/a	6	-999	n/a	SIGN	n/a	n/a	7	[0, 0, 0]	-999	PAL1	3	R1196N
1038.026	2.931	1374418	REC_EVENT	1086.0	n/a	6	6	ARK	SIGN	SIGN	ARK	7	[0, 0, 0]	-999	PAL1	3	R1196N
1040.957	1.018	1377349	PROBE_OFF	n/a	n/a	6	-999	n/a	n/a	n/a	n/a	7	[0, 0, 0]	-999	PAL1	3	R1196N
1041.975	0.003	1378367	REC_END	n/a	n/a	6	-999	n/a	n/a	n/a	n/a	7	[0, 0, 0]	-999	PAL1	3	R1196N
1041.978	5.53	1378370	RECALL_END	n/a	n/a	-999	-999	n/a	n/a	n/a	n/a	7	[0, 0, 0]	-999	PAL1	3	R1196N
1047.508	10.928	1383900	TRIAL	n/a	n/a	-999	-999	n/a	n/a	n/a	n/a	8	[0, 0, 0]	-999	PAL1	3	R1196N
1058.436	0.007	1394827	ENCODING_START	n/a	n/a	-999	-999	n/a	n/a	n/a	n/a	8	[0, 0, 0]	-999	PAL1	3	R1196N
1058.443	0.267	1394834	STUDY_ORIENT	n/a	n/a	1	3	CHAIR	LAND	LAND	CHAIR	8	[0, 0, 0]	-999	PAL1	3	R1196N
1058.71	0.683	1395101	STUDY_ORIENT_OFF	n/a	n/a	1	3	CHAIR	LAND	LAND	CHAIR	8	[0, 0, 0]	-999	PAL1	3	R1196N
1059.393	4.0	1395784	STUDY_PAIR	n/a	wordpools/wordpool_EN.txt	1	3	CHAIR	LAND	LAND	CHAIR	8	[0, 0, 0]	-999	PAL1	3	R1196N
1063.411	1.017	1399802	PAIR_OFF	n/a	n/a	1	3	CHAIR	LAND	LAND	CHAIR	8	[0, 0, 0]	-999	PAL1	3	R1196N
1064.428	0.266	1400819	STUDY_ORIENT	n/a	n/a	2	2	VINE	PIN	VINE	PIN	8	[0, 0, 0]	-999	PAL1	3	R1196N
1064.694	0.717	1401085	STUDY_ORIENT_OFF	n/a	n/a	2	2	VINE	PIN	VINE	PIN	8	[0, 0, 0]	-999	PAL1	3	R1196N
1065.411	4.0	1401802	STUDY_PAIR	n/a	wordpools/wordpool_EN.txt	2	2	VINE	PIN	VINE	PIN	8	[0, 0, 0]	-999	PAL1	3	R1196N
1069.428	1.017	1405819	PAIR_OFF	n/a	n/a	2	2	VINE	PIN	VINE	PIN	8	[0, 0, 0]	-999	PAL1	3	R1196N
1070.445	0.267	1406836	STUDY_ORIENT	n/a	n/a	3	1	CLAY	CART	CART	CLAY	8	[0, 0, 0]	-999	PAL1	3	R1196N
1070.712	0.65	1407103	STUDY_ORIENT_OFF	n/a	n/a	3	1	CLAY	CART	CART	CLAY	8	[0, 0, 0]	-999	PAL1	3	R1196N
1071.362	4.0	1407753	STUDY_PAIR	n/a	wordpools/wordpool_EN.txt	3	1	CLAY	CART	CART	CLAY	8	[0, 0, 0]	-999	PAL1	3	R1196N
1075.379	1.017	1411770	PAIR_OFF	n/a	n/a	3	1	CLAY	CART	CART	CLAY	8	[0, 0, 0]	-999	PAL1	3	R1196N
1076.396	0.267	1412787	STUDY_ORIENT	n/a	n/a	4	4	LAMP	n/a	LAMP	LIP	8	[0, 0, 0]	-999	PAL1	3	R1196N
1076.663	0.55	1413054	STUDY_ORIENT_OFF	n/a	n/a	4	4	LAMP	n/a	LAMP	LIP	8	[0, 0, 0]	-999	PAL1	3	R1196N
1077.213	4.0	1413604	STUDY_PAIR	n/a	wordpools/wordpool_EN.txt	4	4	LAMP	n/a	LAMP	LIP	8	[0, 0, 0]	-999	PAL1	3	R1196N
1081.23	1.017	1417620	PAIR_OFF	n/a	n/a	4	4	LAMP	n/a	LAMP	LIP	8	[0, 0, 0]	-999	PAL1	3	R1196N
1082.247	0.267	1418637	STUDY_ORIENT	n/a	n/a	5	5	CUBE	LIP	CUBE	MAZE	8	[0, 0, 0]	-999	PAL1	3	R1196N
1082.514	0.517	1418904	STUDY_ORIENT_OFF	n/a	n/a	5	5	CUBE	LIP	CUBE	MAZE	8	[0, 0, 0]	-999	PAL1	3	R1196N
1083.031	4.0	1419421	STUDY_PAIR	n/a	wordpools/wordpool_EN.txt	5	5	CUBE	LIP	CUBE	MAZE	8	[0, 0, 0]	-999	PAL1	3	R1196N
1087.048	1.017	1423438	PAIR_OFF	n/a	n/a	5	5	CUBE	LIP	CUBE	MAZE	8	[0, 0, 0]	-999	PAL1	3	R1196N
1088.065	0.267	1424455	STUDY_ORIENT	n/a	n/a	6	6	BOX	n/a	BOX	RAIN	8	[0, 0, 0]	-999	PAL1	3	R1196N
1088.332	0.716	1424722	STUDY_ORIENT_OFF	n/a	n/a	6	6	BOX	n/a	BOX	RAIN	8	[0, 0, 0]	-999	PAL1	3	R1196N
1089.048	4.0	1425438	STUDY_PAIR	n/a	wordpools/wordpool_EN.txt	6	6	BOX	n/a	BOX	RAIN	8	[0, 0, 0]	-999	PAL1	3	R1196N
1093.066	1.0	1429456	PAIR_OFF	n/a	n/a	6	6	BOX	n/a	BOX	RAIN	8	[0, 0, 0]	-999	PAL1	3	R1196N
1094.066	0.0	1430456	ENCODING_END	n/a	n/a	-999	-999	n/a	n/a	n/a	n/a	8	[0, 0, 0]	-999	PAL1	3	R1196N
1094.066	0.0	1430456	MATH_START	n/a	n/a	-999	-999	n/a	n/a	n/a	n/a	8	[0, 0, 0]	-999	PAL1	3	R1196N
1094.066	0.017	1430456	START	n/a	n/a	-999	-999	n/a	n/a	n/a	n/a	8	[-999, -999, -999]	-999	PAL1	3	R1196N
1094.083	5.35	1430473	PROB	5321.0	n/a	-999	-999	n/a	n/a	n/a	n/a	8	[7, 2, 1]	10	PAL1	3	R1196N
1099.433	4.118	1435823	PROB	4082.0	n/a	-999	-999	n/a	n/a	n/a	n/a	8	[6, 5, 9]	20	PAL1	3	R1196N
1103.551	3.1	1439941	PROB	3077.0	n/a	-999	-999	n/a	n/a	n/a	n/a	8	[6, 6, 9]	21	PAL1	3	R1196N
1106.651	4.684	1443040	PROB	4656.0	n/a	-999	-999	n/a	n/a	n/a	n/a	8	[7, 8, 3]	18	PAL1	3	R1196N
1111.335	5.132	1447724	PROB	5132.0	n/a	-999	-999	n/a	n/a	n/a	n/a	8	[5, 9, 3]	17	PAL1	3	R1196N
1116.467	0.019	1452856	STOP	n/a	n/a	-999	-999	n/a	n/a	n/a	n/a	8	[-999, -999, -999]	-999	PAL1	3	R1196N
1116.486	0.001	1452875	MATH_END	n/a	n/a	-999	-999	n/a	n/a	n/a	n/a	8	[0, 0, 0]	-999	PAL1	3	R1196N
1116.487	0.016	1452876	RECALL_START	n/a	n/a	-999	-999	n/a	n/a	n/a	n/a	8	[0, 0, 0]	-999	PAL1	3	R1196N
1116.503	0.267	1452892	TEST_ORIENT	n/a	n/a	3	1	CLAY	CART	CART	CLAY	8	[0, 0, 0]	-999	PAL1	3	R1196N
1116.77	0.683	1453159	RETRIEVAL_ORIENT_OFF	n/a	n/a	-999	-999	n/a	n/a	n/a	n/a	8	[0, 0, 0]	-999	PAL1	3	R1196N
1117.453	4.0	1453842	TEST_PROBE	n/a	wordpools/wordpool_EN.txt	3	1	CLAY	CART	CART	CLAY	8	[0, 0, 0]	-999	PAL1	3	R1196N
1117.454	1.178	1453843	REC_START	n/a	n/a	3	-999	n/a	CART	n/a	n/a	8	[0, 0, 0]	-999	PAL1	3	R1196N
1118.632	2.838	1455021	REC_EVENT	1178.0	n/a	3	1	CLAY	CART	CART	CLAY	8	[0, 0, 0]	-999	PAL1	3	R1196N
1121.47	1.0	1457859	PROBE_OFF	n/a	n/a	3	-999	n/a	n/a	n/a	n/a	8	[0, 0, 0]	-999	PAL1	3	R1196N
1122.47	0.017	1458859	REC_END	n/a	n/a	3	-999	n/a	n/a	n/a	n/a	8	[0, 0, 0]	-999	PAL1	3	R1196N
1122.487	0.267	1458876	TEST_ORIENT	n/a	n/a	2	2	VINE	PIN	VINE	PIN	8	[0, 0, 0]	-999	PAL1	3	R1196N
1122.754	0.75	1459143	RETRIEVAL_ORIENT_OFF	n/a	n/a	3	-999	n/a	n/a	n/a	n/a	8	[0, 0, 0]	-999	PAL1	3	R1196N
1123.504	4.0	1459893	TEST_PROBE	n/a	wordpools/wordpool_EN.txt	2	2	VINE	PIN	VINE	PIN	8	[0, 0, 0]	-999	PAL1	3	R1196N
1123.505	1.378	1459894	REC_START	n/a	n/a	2	-999	n/a	PIN	n/a	n/a	8	[0, 0, 0]	-999	PAL1	3	R1196N
1124.883	2.639	1461272	REC_EVENT	1378.0	n/a	2	2	VINE	PIN	VINE	PIN	8	[0, 0, 0]	-999	PAL1	3	R1196N
1127.522	1.0	1463911	PROBE_OFF	n/a	n/a	2	-999	n/a	n/a	n/a	n/a	8	[0, 0, 0]	-999	PAL1	3	R1196N
1128.522	0.016	1464911	REC_END	n/a	n/a	2	-999	n/a	n/a	n/a	n/a	8	[0, 0, 0]	-999	PAL1	3	R1196N
1128.538	0.266	1464927	TEST_ORIENT	n/a	n/a	1	3	CHAIR	LAND	LAND	CHAIR	8	[0, 0, 0]	-999	PAL1	3	R1196N
1128.804	0.601	1465193	RETRIEVAL_ORIENT_OFF	n/a	n/a	2	-999	n/a	n/a	n/a	n/a	8	[0, 0, 0]	-999	PAL1	3	R1196N
1129.405	4.0	1465793	TEST_PROBE	n/a	wordpools/wordpool_EN.txt	1	3	CHAIR	LAND	LAND	CHAIR	8	[0, 0, 0]	-999	PAL1	3	R1196N
1129.406	1.559	1465794	REC_START	n/a	n/a	1	-999	n/a	LAND	n/a	n/a	8	[0, 0, 0]	-999	PAL1	3	R1196N
1130.965	2.457	1467353	REC_EVENT	1559.0	n/a	1	3	CHAIR	LAND	LAND	CHAIR	8	[0, 0, 0]	-999	PAL1	3	R1196N
1133.422	1.0	1469810	PROBE_OFF	n/a	n/a	1	-999	n/a	n/a	n/a	n/a	8	[0, 0, 0]	-999	PAL1	3	R1196N
1134.422	0.017	1470810	REC_END	n/a	n/a	1	-999	n/a	n/a	n/a	n/a	8	[0, 0, 0]	-999	PAL1	3	R1196N
1134.439	0.267	1470827	TEST_ORIENT	n/a	n/a	4	4	LAMP	n/a	LAMP	LIP	8	[0, 0, 0]	-999	PAL1	3	R1196N
1134.706	0.767	1471094	RETRIEVAL_ORIENT_OFF	n/a	n/a	1	-999	n/a	n/a	n/a	n/a	8	[0, 0, 0]	-999	PAL1	3	R1196N
1135.473	4.0	1471861	TEST_PROBE	n/a	wordpools/wordpool_EN.txt	4	4	LAMP	n/a	LAMP	LIP	8	[0, 0, 0]	-999	PAL1	3	R1196N
1135.473	4.017	1471861	REC_START	n/a	n/a	4	-999	n/a	n/a	n/a	n/a	8	[0, 0, 0]	-999	PAL1	3	R1196N
1139.49	0.998	1475878	PROBE_OFF	n/a	n/a	4	-999	n/a	n/a	n/a	n/a	8	[0, 0, 0]	-999	PAL1	3	R1196N
1140.488	0.002	1476876	REC_EVENT	5015.0	n/a	4	4	LAMP	<>	LAMP	LIP	8	[0, 0, 0]	-999	PAL1	3	R1196N
1140.49	0.017	1476878	REC_END	n/a	n/a	4	-999	n/a	n/a	n/a	n/a	8	[0, 0, 0]	-999	PAL1	3	R1196N
1140.507	0.267	1476895	TEST_ORIENT	n/a	n/a	5	5	CUBE	LIP	CUBE	MAZE	8	[0, 0, 0]	-999	PAL1	3	R1196N
1140.774	0.65	1477162	RETRIEVAL_ORIENT_OFF	n/a	n/a	4	-999	n/a	n/a	n/a	n/a	8	[0, 0, 0]	-999	PAL1	3	R1196N
1141.424	4.0	1477812	TEST_PROBE	n/a	wordpools/wordpool_EN.txt	5	5	CUBE	LIP	CUBE	MAZE	8	[0, 0, 0]	-999	PAL1	3	R1196N
1141.424	1.095	1477812	REC_START	n/a	n/a	5	-999	n/a	LIP	n/a	n/a	8	[0, 0, 0]	-999	PAL1	3	R1196N
1142.519	2.922	1478907	REC_EVENT	1095.0	n/a	5	5	CUBE	LIP	CUBE	MAZE	8	[0, 0, 0]	-999	PAL1	3	R1196N
1145.441	1.0	1481829	PROBE_OFF	n/a	n/a	5	-999	n/a	n/a	n/a	n/a	8	[0, 0, 0]	-999	PAL1	3	R1196N
1146.441	0.017	1482829	REC_END	n/a	n/a	5	-999	n/a	n/a	n/a	n/a	8	[0, 0, 0]	-999	PAL1	3	R1196N
1146.458	0.267	1482846	TEST_ORIENT	n/a	n/a	6	6	BOX	n/a	BOX	RAIN	8	[0, 0, 0]	-999	PAL1	3	R1196N
1146.725	0.6	1483113	RETRIEVAL_ORIENT_OFF	n/a	n/a	5	-999	n/a	n/a	n/a	n/a	8	[0, 0, 0]	-999	PAL1	3	R1196N
1147.325	4.0	1483713	TEST_PROBE	n/a	wordpools/wordpool_EN.txt	6	6	BOX	n/a	BOX	RAIN	8	[0, 0, 0]	-999	PAL1	3	R1196N
1147.325	4.017	1483713	REC_START	n/a	n/a	6	-999	n/a	n/a	n/a	n/a	8	[0, 0, 0]	-999	PAL1	3	R1196N
1151.342	0.998	1487730	PROBE_OFF	n/a	n/a	6	-999	n/a	n/a	n/a	n/a	8	[0, 0, 0]	-999	PAL1	3	R1196N
1152.34	0.002	1488728	REC_EVENT	5015.0	n/a	6	6	BOX	<>	BOX	RAIN	8	[0, 0, 0]	-999	PAL1	3	R1196N
1152.342	0.004	1488730	REC_END	n/a	n/a	6	-999	n/a	n/a	n/a	n/a	8	[0, 0, 0]	-999	PAL1	3	R1196N
1152.346	6.414	1488734	RECALL_END	n/a	n/a	-999	-999	n/a	n/a	n/a	n/a	8	[0, 0, 0]	-999	PAL1	3	R1196N
1158.76	10.929	1495147	TRIAL	n/a	n/a	-999	-999	n/a	n/a	n/a	n/a	9	[0, 0, 0]	-999	PAL1	3	R1196N
1169.689	0.006	1506076	ENCODING_START	n/a	n/a	-999	-999	n/a	n/a	n/a	n/a	9	[0, 0, 0]	-999	PAL1	3	R1196N
1169.695	0.267	1506082	STUDY_ORIENT	n/a	n/a	1	3	FOG	FUR	FUR	FOG	9	[0, 0, 0]	-999	PAL1	3	R1196N
1169.962	0.7	1506349	STUDY_ORIENT_OFF	n/a	n/a	1	3	FOG	FUR	FUR	FOG	9	[0, 0, 0]	-999	PAL1	3	R1196N
1170.662	4.0	1507049	STUDY_PAIR	n/a	wordpools/wordpool_EN.txt	1	3	FOG	FUR	FUR	FOG	9	[0, 0, 0]	-999	PAL1	3	R1196N
1174.679	1.017	1511066	PAIR_OFF	n/a	n/a	1	3	FOG	FUR	FUR	FOG	9	[0, 0, 0]	-999	PAL1	3	R1196N
1175.696	0.267	1512083	STUDY_ORIENT	n/a	n/a	2	2	GRASS	BOWL	GRASS	BOWL	9	[0, 0, 0]	-999	PAL1	3	R1196N
1175.963	0.633	1512350	STUDY_ORIENT_OFF	n/a	n/a	2	2	GRASS	BOWL	GRASS	BOWL	9	[0, 0, 0]	-999	PAL1	3	R1196N
1176.596	4.0	1512983	STUDY_PAIR	n/a	wordpools/wordpool_EN.txt	2	2	GRASS	BOWL	GRASS	BOWL	9	[0, 0, 0]	-999	PAL1	3	R1196N
1180.614	1.017	1517000	PAIR_OFF	n/a	n/a	2	2	GRASS	BOWL	GRASS	BOWL	9	[0, 0, 0]	-999	PAL1	3	R1196N
1181.631	0.266	1518017	STUDY_ORIENT	n/a	n/a	3	5	TEETH	DITCH	DITCH	TEETH	9	[0, 0, 0]	-999	PAL1	3	R1196N
1181.897	0.75	1518283	STUDY_ORIENT_OFF	n/a	n/a	3	5	TEETH	DITCH	DITCH	TEETH	9	[0, 0, 0]	-999	PAL1	3	R1196N
1182.647	4.0	1519033	STUDY_PAIR	n/a	wordpools/wordpool_EN.txt	3	5	TEETH	DITCH	DITCH	TEETH	9	[0, 0, 0]	-999	PAL1	3	R1196N
1186.648	1.017	1523034	PAIR_OFF	n/a	n/a	3	5	TEETH	DITCH	DITCH	TEETH	9	[0, 0, 0]	-999	PAL1	3	R1196N
1187.665	0.267	1524051	STUDY_ORIENT	n/a	n/a	4	6	DOG	n/a	DOG	STORE	9	[0, 0, 0]	-999	PAL1	3	R1196N
1187.932	0.6	1524318	STUDY_ORIENT_OFF	n/a	n/a	4	6	DOG	n/a	DOG	STORE	9	[0, 0, 0]	-999	PAL1	3	R1196N
1188.532	4.0	1524918	STUDY_PAIR	n/a	wordpools/wordpool_EN.txt	4	6	DOG	n/a	DOG	STORE	9	[0, 0, 0]	-999	PAL1	3	R1196N
1192.549	1.017	1528935	PAIR_OFF	n/a	n/a	4	6	DOG	n/a	DOG	STORE	9	[0, 0, 0]	-999	PAL1	3	R1196N
1193.566	0.266	1529952	STUDY_ORIENT	n/a	n/a	5	1	NEST	WING	WING	NEST	9	[0, 0, 0]	-999	PAL1	3	R1196N
1193.832	0.551	1530218	STUDY_ORIENT_OFF	n/a	n/a	5	1	NEST	WING	WING	NEST	9	[0, 0, 0]	-999	PAL1	3	R1196N
1194.383	4.0	1530769	STUDY_PAIR	n/a	wordpools/wordpool_EN.txt	5	1	NEST	WING	WING	NEST	9	[0, 0, 0]	-999	PAL1	3	R1196N
1198.4	1.017	1534786	PAIR_OFF	n/a	n/a	5	1	NEST	WING	WING	NEST	9	[0, 0, 0]	-999	PAL1	3	R1196N
1199.417	0.267	1535803	STUDY_ORIENT	n/a	n/a	6	4	SEA	WHEEL	SEA	WHEEL	9	[0, 0, 0]	-999	PAL1	3	R1196N
1199.684	0.566	1536070	STUDY_ORIENT_OFF	n/a	n/a	6	4	SEA	WHEEL	SEA	WHEEL	9	[0, 0, 0]	-999	PAL1	3	R1196N
1200.25	4.0	1536636	STUDY_PAIR	n/a	wordpools/wordpool_EN.txt	6	4	SEA	WHEEL	SEA	WHEEL	9	[0, 0, 0]	-999	PAL1	3	R1196N
1204.268	1.0	1540653	PAIR_OFF	n/a	n/a	6	4	SEA	WHEEL	SEA	WHEEL	9	[0, 0, 0]	-999	PAL1	3	R1196N
1205.268	0.0	1541653	ENCODING_END	n/a	n/a	-999	-999	n/a	n/a	n/a	n/a	9	[0, 0, 0]	-999	PAL1	3	R1196N
1205.268	0.0	1541653	MATH_START	n/a	n/a	-999	-999	n/a	n/a	n/a	n/a	9	[0, 0, 0]	-999	PAL1	3	R1196N
1205.268	0.017	1541653	START	n/a	n/a	-999	-999	n/a	n/a	n/a	n/a	9	[-999, -999, -999]	-999	PAL1	3	R1196N
1205.285	6.583	1541670	PROB	6550.0	n/a	-999	-999	n/a	n/a	n/a	n/a	9	[6, 1, 9]	16	PAL1	3	R1196N
1211.868	5.719	1548253	PROB	5688.0	n/a	-999	-999	n/a	n/a	n/a	n/a	9	[8, 3, 9]	20	PAL1	3	R1196N
1217.587	2.533	1553972	PROB	2504.0	n/a	-999	-999	n/a	n/a	n/a	n/a	9	[5, 4, 5]	14	PAL1	3	R1196N
1220.12	3.101	1556505	PROB	3075.0	n/a	-999	-999	n/a	n/a	n/a	n/a	9	[7, 2, 4]	13	PAL1	3	R1196N
1223.221	3.358	1559606	PROB	3358.0	n/a	-999	-999	n/a	n/a	n/a	n/a	9	[2, 9, 5]	16	PAL1	3	R1196N
1226.579	0.009	1562964	STOP	n/a	n/a	-999	-999	n/a	n/a	n/a	n/a	9	[-999, -999, -999]	-999	PAL1	3	R1196N
1226.588	0.0	1562973	MATH_END	n/a	n/a	-999	-999	n/a	n/a	n/a	n/a	9	[0, 0, 0]	-999	PAL1	3	R1196N
1226.588	0.017	1562973	RECALL_START	n/a	n/a	-999	-999	n/a	n/a	n/a	n/a	9	[0, 0, 0]	-999	PAL1	3	R1196N
1226.605	0.266	1562990	TEST_ORIENT	n/a	n/a	5	1	NEST	WING	WING	NEST	9	[0, 0, 0]	-999	PAL1	3	R1196N
1226.871	0.584	1563256	RETRIEVAL_ORIENT_OFF	n/a	n/a	-999	-999	n/a	n/a	n/a	n/a	9	[0, 0, 0]	-999	PAL1	3	R1196N
1227.455	4.0	1563840	TEST_PROBE	n/a	wordpools/wordpool_EN.txt	5	1	NEST	WING	WING	NEST	9	[0, 0, 0]	-999	PAL1	3	R1196N
1227.455	1.816	1563840	REC_START	n/a	n/a	5	-999	n/a	WING	n/a	n/a	9	[0, 0, 0]	-999	PAL1	3	R1196N
1229.271	2.201	1565655	REC_EVENT	1816.0	n/a	5	1	NEST	WING	WING	NEST	9	[0, 0, 0]	-999	PAL1	3	R1196N
1231.472	1.0	1567856	PROBE_OFF	n/a	n/a	5	-999	n/a	n/a	n/a	n/a	9	[0, 0, 0]	-999	PAL1	3	R1196N
1232.472	0.017	1568856	REC_END	n/a	n/a	5	-999	n/a	n/a	n/a	n/a	9	[0, 0, 0]	-999	PAL1	3	R1196N
1232.489	0.267	1568873	TEST_ORIENT	n/a	n/a	2	2	GRASS	BOWL	GRASS	BOWL	9	[0, 0, 0]	-999	PAL1	3	R1196N
1232.756	0.55	1569140	RETRIEVAL_ORIENT_OFF	n/a	n/a	5	-999	n/a	n/a	n/a	n/a	9	[0, 0, 0]	-999	PAL1	3	R1196N
1233.306	4.0	1569690	TEST_PROBE	n/a	wordpools/wordpool_EN.txt	2	2	GRASS	BOWL	GRASS	BOWL	9	[0, 0, 0]	-999	PAL1	3	R1196N
1233.306	1.265	1569690	REC_START	n/a	n/a	2	-999	n/a	BOWL	n/a	n/a	9	[0, 0, 0]	-999	PAL1	3	R1196N
1234.571	2.752	1570955	REC_EVENT	1265.0	n/a	2	2	GRASS	BOWL	GRASS	BOWL	9	[0, 0, 0]	-999	PAL1	3	R1196N
1237.323	1.0	1573707	PROBE_OFF	n/a	n/a	2	-999	n/a	n/a	n/a	n/a	9	[0, 0, 0]	-999	PAL1	3	R1196N
1238.323	0.017	1574707	REC_END	n/a	n/a	2	-999	n/a	n/a	n/a	n/a	9	[0, 0, 0]	-999	PAL1	3	R1196N
1238.34	0.267	1574724	TEST_ORIENT	n/a	n/a	1	3	FOG	FUR	FUR	FOG	9	[0, 0, 0]	-999	PAL1	3	R1196N
1238.607	0.733	1574991	RETRIEVAL_ORIENT_OFF	n/a	n/a	2	-999	n/a	n/a	n/a	n/a	9	[0, 0, 0]	-999	PAL1	3	R1196N
1239.34	4.0	1575724	TEST_PROBE	n/a	wordpools/wordpool_EN.txt	1	3	FOG	FUR	FUR	FOG	9	[0, 0, 0]	-999	PAL1	3	R1196N
1239.341	3.01	1575725	REC_START	n/a	n/a	1	-999	n/a	FUR	n/a	n/a	9	[0, 0, 0]	-999	PAL1	3	R1196N
1242.351	1.007	1578735	REC_EVENT	3010.0	n/a	1	3	FOG	FUR	FUR	FOG	9	[0, 0, 0]	-999	PAL1	3	R1196N
1243.358	1.0	1579742	PROBE_OFF	n/a	n/a	1	-999	n/a	n/a	n/a	n/a	9	[0, 0, 0]	-999	PAL1	3	R1196N
1244.358	0.016	1580742	REC_END	n/a	n/a	1	-999	n/a	n/a	n/a	n/a	9	[0, 0, 0]	-999	PAL1	3	R1196N
1244.374	0.267	1580758	TEST_ORIENT	n/a	n/a	6	4	SEA	WHEEL	SEA	WHEEL	9	[0, 0, 0]	-999	PAL1	3	R1196N
1244.641	0.567	1581025	RETRIEVAL_ORIENT_OFF	n/a	n/a	1	-999	n/a	n/a	n/a	n/a	9	[0, 0, 0]	-999	PAL1	3	R1196N
1245.208	4.0	1581592	TEST_PROBE	n/a	wordpools/wordpool_EN.txt	6	4	SEA	WHEEL	SEA	WHEEL	9	[0, 0, 0]	-999	PAL1	3	R1196N
1245.208	1.654	1581592	REC_START	n/a	n/a	6	-999	n/a	WHEEL	n/a	n/a	9	[0, 0, 0]	-999	PAL1	3	R1196N
1246.862	2.363	1583246	REC_EVENT	1654.0	n/a	6	4	SEA	WHEEL	SEA	WHEEL	9	[0, 0, 0]	-999	PAL1	3	R1196N
1249.225	1.001	1585609	PROBE_OFF	n/a	n/a	6	-999	n/a	n/a	n/a	n/a	9	[0, 0, 0]	-999	PAL1	3	R1196N
1250.226	0.016	1586610	REC_END	n/a	n/a	6	-999	n/a	n/a	n/a	n/a	9	[0, 0, 0]	-999	PAL1	3	R1196N
1250.242	0.267	1586626	TEST_ORIENT	n/a	n/a	3	5	TEETH	DITCH	DITCH	TEETH	9	[0, 0, 0]	-999	PAL1	3	R1196N
1250.509	0.617	1586893	RETRIEVAL_ORIENT_OFF	n/a	n/a	6	-999	n/a	n/a	n/a	n/a	9	[0, 0, 0]	-999	PAL1	3	R1196N
1251.126	4.0	1587510	TEST_PROBE	n/a	wordpools/wordpool_EN.txt	3	5	TEETH	DITCH	DITCH	TEETH	9	[0, 0, 0]	-999	PAL1	3	R1196N
1251.126	2.171	1587510	REC_START	n/a	n/a	3	-999	n/a	DITCH	n/a	n/a	9	[0, 0, 0]	-999	PAL1	3	R1196N
1253.297	1.846	1589681	REC_EVENT	2171.0	n/a	3	5	TEETH	DITCH	DITCH	TEETH	9	[0, 0, 0]	-999	PAL1	3	R1196N
1255.143	1.0	1591526	PROBE_OFF	n/a	n/a	3	-999	n/a	n/a	n/a	n/a	9	[0, 0, 0]	-999	PAL1	3	R1196N
1256.143	0.017	1592526	REC_END	n/a	n/a	3	-999	n/a	n/a	n/a	n/a	9	[0, 0, 0]	-999	PAL1	3	R1196N
1256.16	0.266	1592543	TEST_ORIENT	n/a	n/a	4	6	DOG	n/a	DOG	STORE	9	[0, 0, 0]	-999	PAL1	3	R1196N
1256.426	0.701	1592809	RETRIEVAL_ORIENT_OFF	n/a	n/a	3	-999	n/a	n/a	n/a	n/a	9	[0, 0, 0]	-999	PAL1	3	R1196N
1257.127	4.0	1593510	TEST_PROBE	n/a	wordpools/wordpool_EN.txt	4	6	DOG	n/a	DOG	STORE	9	[0, 0, 0]	-999	PAL1	3	R1196N
1257.127	4.017	1593510	REC_START	n/a	n/a	4	-999	n/a	n/a	n/a	n/a	9	[0, 0, 0]	-999	PAL1	3	R1196N
1261.144	0.998	1597527	PROBE_OFF	n/a	n/a	4	-999	n/a	n/a	n/a	n/a	9	[0, 0, 0]	-999	PAL1	3	R1196N
1262.142	0.002	1598525	REC_EVENT	5015.0	n/a	4	6	DOG	<>	DOG	STORE	9	[0, 0, 0]	-999	PAL1	3	R1196N
1262.144	0.005	1598527	REC_END	n/a	n/a	4	-999	n/a	n/a	n/a	n/a	9	[0, 0, 0]	-999	PAL1	3	R1196N
1262.149	6.029	1598532	RECALL_END	n/a	n/a	-999	-999	n/a	n/a	n/a	n/a	9	[0, 0, 0]	-999	PAL1	3	R1196N
1268.178	10.929	1604561	TRIAL	n/a	n/a	-999	-999	n/a	n/a	n/a	n/a	10	[0, 0, 0]	-999	PAL1	3	R1196N
1279.107	0.007	1615489	ENCODING_START	n/a	n/a	-999	-999	n/a	n/a	n/a	n/a	10	[0, 0, 0]	-999	PAL1	3	R1196N
1279.114	0.266	1615496	STUDY_ORIENT	n/a	n/a	1	1	GEESE	BAG	BAG	GEESE	10	[0, 0, 0]	-999	PAL1	3	R1196N
1279.38	0.6	1615762	STUDY_ORIENT_OFF	n/a	n/a	1	1	GEESE	BAG	BAG	GEESE	10	[0, 0, 0]	-999	PAL1	3	R1196N
1279.98	4.0	1616362	STUDY_PAIR	n/a	wordpools/wordpool_EN.txt	1	1	GEESE	BAG	BAG	GEESE	10	[0, 0, 0]	-999	PAL1	3	R1196N
1283.998	1.017	1620380	PAIR_OFF	n/a	n/a	1	1	GEESE	BAG	BAG	GEESE	10	[0, 0, 0]	-999	PAL1	3	R1196N
1285.015	0.266	1621397	STUDY_ORIENT	n/a	n/a	2	6	SNOW	ROOT	SNOW	ROOT	10	[0, 0, 0]	-999	PAL1	3	R1196N
1285.281	0.516	1621663	STUDY_ORIENT_OFF	n/a	n/a	2	6	SNOW	ROOT	SNOW	ROOT	10	[0, 0, 0]	-999	PAL1	3	R1196N
1285.797	4.0	1622179	STUDY_PAIR	n/a	wordpools/wordpool_EN.txt	2	6	SNOW	ROOT	SNOW	ROOT	10	[0, 0, 0]	-999	PAL1	3	R1196N
1289.814	1.017	1626196	PAIR_OFF	n/a	n/a	2	6	SNOW	ROOT	SNOW	ROOT	10	[0, 0, 0]	-999	PAL1	3	R1196N
1290.831	0.251	1627213	STUDY_ORIENT	n/a	n/a	3	5	SEAL	HAT	SEAL	HAT	10	[0, 0, 0]	-999	PAL1	3	R1196N
1291.082	0.583	1627464	STUDY_ORIENT_OFF	n/a	n/a	3	5	SEAL	HAT	SEAL	HAT	10	[0, 0, 0]	-999	PAL1	3	R1196N
1291.665	4.0	1628047	STUDY_PAIR	n/a	wordpools/wordpool_EN.txt	3	5	SEAL	HAT	SEAL	HAT	10	[0, 0, 0]	-999	PAL1	3	R1196N
1295.683	1.017	1632065	PAIR_OFF	n/a	n/a	3	5	SEAL	HAT	SEAL	HAT	10	[0, 0, 0]	-999	PAL1	3	R1196N
1296.7	0.267	1633082	STUDY_ORIENT	n/a	n/a	4	2	MOUTH	n/a	NOSE	MOUTH	10	[0, 0, 0]	-999	PAL1	3	R1196N
1296.967	0.583	1633349	STUDY_ORIENT_OFF	n/a	n/a	4	2	MOUTH	n/a	NOSE	MOUTH	10	[0, 0, 0]	-999	PAL1	3	R1196N
1297.55	4.0	1633932	STUDY_PAIR	n/a	wordpools/wordpool_EN.txt	4	2	MOUTH	n/a	NOSE	MOUTH	10	[0, 0, 0]	-999	PAL1	3	R1196N
1301.567	1.017	1637949	PAIR_OFF	n/a	n/a	4	2	MOUTH	n/a	NOSE	MOUTH	10	[0, 0, 0]	-999	PAL1	3	R1196N
1302.584	0.266	1638966	STUDY_ORIENT	n/a	n/a	5	3	ROPE	n/a	ROPE	MUD	10	[0, 0, 0]	-999	PAL1	3	R1196N
1302.85	0.718	1639232	STUDY_ORIENT_OFF	n/a	n/a	5	3	ROPE	n/a	ROPE	MUD	10	[0, 0, 0]	-999	PAL1	3	R1196N
1303.568	4.0	1639950	STUDY_PAIR	n/a	wordpools/wordpool_EN.txt	5	3	ROPE	n/a	ROPE	MUD	10	[0, 0, 0]	-999	PAL1	3	R1196N
1307.585	1.017	1643966	PAIR_OFF	n/a	n/a	5	3	ROPE	n/a	ROPE	MUD	10	[0, 0, 0]	-999	PAL1	3	R1196N
1308.602	0.266	1644983	STUDY_ORIENT	n/a	n/a	6	4	MOON	BAND	MOON	BAND	10	[0, 0, 0]	-999	PAL1	3	R1196N
1308.868	0.534	1645249	STUDY_ORIENT_OFF	n/a	n/a	6	4	MOON	BAND	MOON	BAND	10	[0, 0, 0]	-999	PAL1	3	R1196N
1309.402	4.0	1645783	STUDY_PAIR	n/a	wordpools/wordpool_EN.txt	6	4	MOON	BAND	MOON	BAND	10	[0, 0, 0]	-999	PAL1	3	R1196N
1313.419	1.001	1649800	PAIR_OFF	n/a	n/a	6	4	MOON	BAND	MOON	BAND	10	[0, 0, 0]	-999	PAL1	3	R1196N
1314.42	0.0	1650801	ENCODING_END	n/a	n/a	-999	-999	n/a	n/a	n/a	n/a	10	[0, 0, 0]	-999	PAL1	3	R1196N
1314.42	0.0	1650801	MATH_START	n/a	n/a	-999	-999	n/a	n/a	n/a	n/a	10	[0, 0, 0]	-999	PAL1	3	R1196N
1314.42	0.016	1650801	START	n/a	n/a	-999	-999	n/a	n/a	n/a	n/a	10	[-999, -999, -999]	-999	PAL1	3	R1196N
1314.436	3.651	1650817	PROB	3623.0	n/a	-999	-999	n/a	n/a	n/a	n/a	10	[4, 8, 7]	19	PAL1	3	R1196N
1318.087	3.35	1654468	PROB	3317.0	n/a	-999	-999	n/a	n/a	n/a	n/a	10	[5, 4, 2]	11	PAL1	3	R1196N
1321.437	3.751	1657818	PROB	3727.0	n/a	-999	-999	n/a	n/a	n/a	n/a	10	[6, 5, 4]	15	PAL1	3	R1196N
1325.188	4.017	1661569	PROB	3984.0	n/a	-999	-999	n/a	n/a	n/a	n/a	10	[2, 3, 3]	8	PAL1	3	R1196N
1329.205	3.401	1665585	PROB	3375.0	n/a	-999	-999	n/a	n/a	n/a	n/a	10	[8, 7, 1]	16	PAL1	3	R1196N
1332.606	6.678	1668986	PROB	6678.0	n/a	-999	-999	n/a	n/a	n/a	n/a	10	[4, 9, 7]	20	PAL1	3	R1196N
1339.284	0.006	1675664	STOP	n/a	n/a	-999	-999	n/a	n/a	n/a	n/a	10	[-999, -999, -999]	-999	PAL1	3	R1196N
1339.29	0.001	1675670	MATH_END	n/a	n/a	-999	-999	n/a	n/a	n/a	n/a	10	[0, 0, 0]	-999	PAL1	3	R1196N
1339.291	0.016	1675671	RECALL_START	n/a	n/a	-999	-999	n/a	n/a	n/a	n/a	10	[0, 0, 0]	-999	PAL1	3	R1196N
1339.307	0.267	1675687	TEST_ORIENT	n/a	n/a	1	1	GEESE	BAG	BAG	GEESE	10	[0, 0, 0]	-999	PAL1	3	R1196N
1339.574	0.55	1675954	RETRIEVAL_ORIENT_OFF	n/a	n/a	-999	-999	n/a	n/a	n/a	n/a	10	[0, 0, 0]	-999	PAL1	3	R1196N
1340.124	4.0	1676504	TEST_PROBE	n/a	wordpools/wordpool_EN.txt	1	1	GEESE	BAG	BAG	GEESE	10	[0, 0, 0]	-999	PAL1	3	R1196N
1340.125	1.504	1676505	REC_START	n/a	n/a	1	-999	n/a	BAG	n/a	n/a	10	[0, 0, 0]	-999	PAL1	3	R1196N
1341.629	2.512	1678009	REC_EVENT	1504.0	n/a	1	1	GEESE	BAG	BAG	GEESE	10	[0, 0, 0]	-999	PAL1	3	R1196N
1344.141	1.001	1680521	PROBE_OFF	n/a	n/a	1	-999	n/a	n/a	n/a	n/a	10	[0, 0, 0]	-999	PAL1	3	R1196N
1345.142	0.016	1681522	REC_END	n/a	n/a	1	-999	n/a	n/a	n/a	n/a	10	[0, 0, 0]	-999	PAL1	3	R1196N
1345.158	0.267	1681538	TEST_ORIENT	n/a	n/a	4	2	MOUTH	n/a	NOSE	MOUTH	10	[0, 0, 0]	-999	PAL1	3	R1196N
1345.425	0.55	1681805	RETRIEVAL_ORIENT_OFF	n/a	n/a	1	-999	n/a	n/a	n/a	n/a	10	[0, 0, 0]	-999	PAL1	3	R1196N
1345.975	4.0	1682355	TEST_PROBE	n/a	wordpools/wordpool_EN.txt	4	2	MOUTH	n/a	NOSE	MOUTH	10	[0, 0, 0]	-999	PAL1	3	R1196N
1345.975	4.017	1682355	REC_START	n/a	n/a	4	-999	n/a	n/a	n/a	n/a	10	[0, 0, 0]	-999	PAL1	3	R1196N
1349.992	0.998	1686372	PROBE_OFF	n/a	n/a	4	-999	n/a	n/a	n/a	n/a	10	[0, 0, 0]	-999	PAL1	3	R1196N
1350.99	0.002	1687370	REC_EVENT	5015.0	n/a	4	2	MOUTH	<>	NOSE	MOUTH	10	[0, 0, 0]	-999	PAL1	3	R1196N
1350.992	0.017	1687372	REC_END	n/a	n/a	4	-999	n/a	n/a	n/a	n/a	10	[0, 0, 0]	-999	PAL1	3	R1196N
1351.009	0.267	1687389	TEST_ORIENT	n/a	n/a	5	3	ROPE	n/a	ROPE	MUD	10	[0, 0, 0]	-999	PAL1	3	R1196N
1351.276	0.532	1687656	RETRIEVAL_ORIENT_OFF	n/a	n/a	4	-999	n/a	n/a	n/a	n/a	10	[0, 0, 0]	-999	PAL1	3	R1196N
1351.808	4.0	1688188	TEST_PROBE	n/a	wordpools/wordpool_EN.txt	5	3	ROPE	n/a	ROPE	MUD	10	[0, 0, 0]	-999	PAL1	3	R1196N
1351.809	4.017	1688189	REC_START	n/a	n/a	5	-999	n/a	n/a	n/a	n/a	10	[0, 0, 0]	-999	PAL1	3	R1196N
1355.826	1.0	1692205	PROBE_OFF	n/a	n/a	5	-999	n/a	n/a	n/a	n/a	10	[0, 0, 0]	-999	PAL1	3	R1196N
1356.826	0.004	1693205	REC_END	n/a	n/a	5	-999	n/a	n/a	n/a	n/a	10	[0, 0, 0]	-999	PAL1	3	R1196N
1356.83	0.012	1693209	REC_EVENT	5021.0	n/a	5	3	ROPE	<>	ROPE	MUD	10	[0, 0, 0]	-999	PAL1	3	R1196N
1356.842	0.251	1693221	TEST_ORIENT	n/a	n/a	6	4	MOON	BAND	MOON	BAND	10	[0, 0, 0]	-999	PAL1	3	R1196N
1357.093	0.766	1693472	RETRIEVAL_ORIENT_OFF	n/a	n/a	5	-999	n/a	n/a	n/a	n/a	10	[0, 0, 0]	-999	PAL1	3	R1196N
1357.859	4.0	1694238	TEST_PROBE	n/a	wordpools/wordpool_EN.txt	6	4	MOON	BAND	MOON	BAND	10	[0, 0, 0]	-999	PAL1	3	R1196N
1357.86	3.271	1694239	REC_START	n/a	n/a	6	-999	n/a	BAND	n/a	n/a	10	[0, 0, 0]	-999	PAL1	3	R1196N
1361.131	0.374	1697510	REC_EVENT	3271.0	n/a	6	4	MOON	<>	MOON	BAND	10	[0, 0, 0]	-999	PAL1	3	R1196N
1361.505	0.372	1697884	REC_EVENT	3645.0	n/a	6	4	MOON	BAND	MOON	BAND	10	[0, 0, 0]	-999	PAL1	3	R1196N
1361.877	1.0	1698256	PROBE_OFF	n/a	n/a	6	-999	n/a	n/a	n/a	n/a	10	[0, 0, 0]	-999	PAL1	3	R1196N
1362.877	0.017	1699256	REC_END	n/a	n/a	6	-999	n/a	n/a	n/a	n/a	10	[0, 0, 0]	-999	PAL1	3	R1196N
1362.894	0.267	1699273	TEST_ORIENT	n/a	n/a	3	5	SEAL	HAT	SEAL	HAT	10	[0, 0, 0]	-999	PAL1	3	R1196N
1363.161	0.75	1699540	RETRIEVAL_ORIENT_OFF	n/a	n/a	6	-999	n/a	n/a	n/a	n/a	10	[0, 0, 0]	-999	PAL1	3	R1196N
1363.911	4.0	1700290	TEST_PROBE	n/a	wordpools/wordpool_EN.txt	3	5	SEAL	HAT	SEAL	HAT	10	[0, 0, 0]	-999	PAL1	3	R1196N
1363.912	2.273	1700291	REC_START	n/a	n/a	3	-999	n/a	HAT	n/a	n/a	10	[0, 0, 0]	-999	PAL1	3	R1196N
1366.185	1.744	1702564	REC_EVENT	2273.0	n/a	3	5	SEAL	HAT	SEAL	HAT	10	[0, 0, 0]	-999	PAL1	3	R1196N
1367.929	1.0	1704308	PROBE_OFF	n/a	n/a	3	-999	n/a	n/a	n/a	n/a	10	[0, 0, 0]	-999	PAL1	3	R1196N
1368.929	0.016	1705308	REC_END	n/a	n/a	3	-999	n/a	n/a	n/a	n/a	10	[0, 0, 0]	-999	PAL1	3	R1196N
1368.945	0.267	1705324	TEST_ORIENT	n/a	n/a	2	6	SNOW	ROOT	SNOW	ROOT	10	[0, 0, 0]	-999	PAL1	3	R1196N
1369.212	0.717	1705591	RETRIEVAL_ORIENT_OFF	n/a	n/a	3	-999	n/a	n/a	n/a	n/a	10	[0, 0, 0]	-999	PAL1	3	R1196N
1369.929	0.0	1706308	REC_START	n/a	n/a	2	-999	n/a	ROOT	n/a	n/a	10	[0, 0, 0]	-999	PAL1	3	R1196N
1369.929	4.0	1706308	TEST_PROBE	n/a	wordpools/wordpool_EN.txt	2	6	SNOW	ROOT	SNOW	ROOT	10	[0, 0, 0]	-999	PAL1	3	R1196N
1370.96	2.986	1707339	REC_EVENT	1031.0	n/a	2	6	SNOW	ROOT	SNOW	ROOT	10	[0, 0, 0]	-999	PAL1	3	R1196N
1373.946	1.0	1710325	PROBE_OFF	n/a	n/a	2	-999	n/a	n/a	n/a	n/a	10	[0, 0, 0]	-999	PAL1	3	R1196N
1374.946	0.003	1711325	REC_END	n/a	n/a	2	-999	n/a	n/a	n/a	n/a	10	[0, 0, 0]	-999	PAL1	3	R1196N
1374.949	9.915	1711328	RECALL_END	n/a	n/a	-999	-999	n/a	n/a	n/a	n/a	10	[0, 0, 0]	-999	PAL1	3	R1196N
1384.864	10.928	1721242	TRIAL	n/a	n/a	-999	-999	n/a	n/a	n/a	n/a	11	[0, 0, 0]	-999	PAL1	3	R1196N
1395.792	0.007	1732170	ENCODING_START	n/a	n/a	-999	-999	n/a	n/a	n/a	n/a	11	[0, 0, 0]	-999	PAL1	3	R1196N
1395.799	0.268	1732177	STUDY_ORIENT	n/a	n/a	1	5	SCHOOL	n/a	STORM	SCHOOL	11	[0, 0, 0]	-999	PAL1	3	R1196N
1396.067	0.583	1732445	STUDY_ORIENT_OFF	n/a	n/a	1	5	SCHOOL	n/a	STORM	SCHOOL	11	[0, 0, 0]	-999	PAL1	3	R1196N
1396.65	4.0	1733028	STUDY_PAIR	n/a	wordpools/wordpool_EN.txt	1	5	SCHOOL	n/a	STORM	SCHOOL	11	[0, 0, 0]	-999	PAL1	3	R1196N
1400.667	1.017	1737045	PAIR_OFF	n/a	n/a	1	5	SCHOOL	n/a	STORM	SCHOOL	11	[0, 0, 0]	-999	PAL1	3	R1196N
1401.684	0.267	1738062	STUDY_ORIENT	n/a	n/a	2	4	BEAR	KITE	BEAR	KITE	11	[0, 0, 0]	-999	PAL1	3	R1196N
1401.951	0.55	1738329	STUDY_ORIENT_OFF	n/a	n/a	2	4	BEAR	KITE	BEAR	KITE	11	[0, 0, 0]	-999	PAL1	3	R1196N
1402.501	4.0	1738879	STUDY_PAIR	n/a	wordpools/wordpool_EN.txt	2	4	BEAR	KITE	BEAR	KITE	11	[0, 0, 0]	-999	PAL1	3	R1196N
1406.518	1.017	1742895	PAIR_OFF	n/a	n/a	2	4	BEAR	KITE	BEAR	KITE	11	[0, 0, 0]	-999	PAL1	3	R1196N
1407.535	0.266	1743912	STUDY_ORIENT	n/a	n/a	3	1	BREAD	PIE	PIE	BREAD	11	[0, 0, 0]	-999	PAL1	3	R1196N
1407.801	0.618	1744178	STUDY_ORIENT_OFF	n/a	n/a	3	1	BREAD	PIE	PIE	BREAD	11	[0, 0, 0]	-999	PAL1	3	R1196N
1408.419	4.0	1744796	STUDY_PAIR	n/a	wordpools/wordpool_EN.txt	3	1	BREAD	PIE	PIE	BREAD	11	[0, 0, 0]	-999	PAL1	3	R1196N
1412.436	1.017	1748813	PAIR_OFF	n/a	n/a	3	1	BREAD	PIE	PIE	BREAD	11	[0, 0, 0]	-999	PAL1	3	R1196N
1413.453	0.267	1749830	STUDY_ORIENT	n/a	n/a	4	6	STOVE	BOOT	BOOT	STOVE	11	[0, 0, 0]	-999	PAL1	3	R1196N
1413.72	0.683	1750097	STUDY_ORIENT_OFF	n/a	n/a	4	6	STOVE	BOOT	BOOT	STOVE	11	[0, 0, 0]	-999	PAL1	3	R1196N
1414.403	4.0	1750780	STUDY_PAIR	n/a	wordpools/wordpool_EN.txt	4	6	STOVE	BOOT	BOOT	STOVE	11	[0, 0, 0]	-999	PAL1	3	R1196N
1418.42	1.017	1754797	PAIR_OFF	n/a	n/a	4	6	STOVE	BOOT	BOOT	STOVE	11	[0, 0, 0]	-999	PAL1	3	R1196N
1419.437	0.267	1755814	STUDY_ORIENT	n/a	n/a	5	3	DART	MILK	MILK	DART	11	[0, 0, 0]	-999	PAL1	3	R1196N
1419.704	0.533	1756081	STUDY_ORIENT_OFF	n/a	n/a	5	3	DART	MILK	MILK	DART	11	[0, 0, 0]	-999	PAL1	3	R1196N
1420.237	4.0	1756614	STUDY_PAIR	n/a	wordpools/wordpool_EN.txt	5	3	DART	MILK	MILK	DART	11	[0, 0, 0]	-999	PAL1	3	R1196N
1424.238	1.017	1760615	PAIR_OFF	n/a	n/a	5	3	DART	MILK	MILK	DART	11	[0, 0, 0]	-999	PAL1	3	R1196N
1425.255	0.267	1761632	STUDY_ORIENT	n/a	n/a	6	2	SHARK	DOOR	DOOR	SHARK	11	[0, 0, 0]	-999	PAL1	3	R1196N
1425.522	0.583	1761899	STUDY_ORIENT_OFF	n/a	n/a	6	2	SHARK	DOOR	DOOR	SHARK	11	[0, 0, 0]	-999	PAL1	3	R1196N
1426.105	4.0	1762482	STUDY_PAIR	n/a	wordpools/wordpool_EN.txt	6	2	SHARK	DOOR	DOOR	SHARK	11	[0, 0, 0]	-999	PAL1	3	R1196N
1430.122	1.0	1766498	PAIR_OFF	n/a	n/a	6	2	SHARK	DOOR	DOOR	SHARK	11	[0, 0, 0]	-999	PAL1	3	R1196N
1431.122	0.0	1767498	ENCODING_END	n/a	n/a	-999	-999	n/a	n/a	n/a	n/a	11	[0, 0, 0]	-999	PAL1	3	R1196N
1431.122	0.0	1767498	MATH_START	n/a	n/a	-999	-999	n/a	n/a	n/a	n/a	11	[0, 0, 0]	-999	PAL1	3	R1196N
1431.122	0.017	1767498	START	n/a	n/a	-999	-999	n/a	n/a	n/a	n/a	11	[-999, -999, -999]	-999	PAL1	3	R1196N
1431.139	6.151	1767515	PROB	6128.0	n/a	-999	-999	n/a	n/a	n/a	n/a	11	[4, 3, 9]	16	PAL1	3	R1196N
1437.29	3.484	1773666	PROB	3450.0	n/a	-999	-999	n/a	n/a	n/a	n/a	11	[7, 4, 4]	15	PAL1	3	R1196N
1440.774	2.934	1777150	PROB	2909.0	n/a	-999	-999	n/a	n/a	n/a	n/a	11	[1, 9, 8]	18	PAL1	3	R1196N
1443.708	4.067	1780084	PROB	4032.0	n/a	-999	-999	n/a	n/a	n/a	n/a	11	[3, 4, 8]	15	PAL1	3	R1196N
1447.775	5.989	1784151	PROB	5989.0	n/a	-999	-999	n/a	n/a	n/a	n/a	11	[8, 6, 3]	17	PAL1	3	R1196N
1453.764	0.012	1790140	STOP	n/a	n/a	-999	-999	n/a	n/a	n/a	n/a	11	[-999, -999, -999]	-999	PAL1	3	R1196N
1453.776	0.001	1790152	MATH_END	n/a	n/a	-999	-999	n/a	n/a	n/a	n/a	11	[0, 0, 0]	-999	PAL1	3	R1196N
1453.777	0.016	1790153	RECALL_START	n/a	n/a	-999	-999	n/a	n/a	n/a	n/a	11	[0, 0, 0]	-999	PAL1	3	R1196N
1453.793	0.267	1790169	TEST_ORIENT	n/a	n/a	3	1	BREAD	PIE	PIE	BREAD	11	[0, 0, 0]	-999	PAL1	3	R1196N
1454.06	0.6	1790436	RETRIEVAL_ORIENT_OFF	n/a	n/a	-999	-999	n/a	n/a	n/a	n/a	11	[0, 0, 0]	-999	PAL1	3	R1196N
1454.66	4.0	1791035	TEST_PROBE	n/a	wordpools/wordpool_EN.txt	3	1	BREAD	PIE	PIE	BREAD	11	[0, 0, 0]	-999	PAL1	3	R1196N
1454.66	1.128	1791035	REC_START	n/a	n/a	3	-999	n/a	PIE	n/a	n/a	11	[0, 0, 0]	-999	PAL1	3	R1196N
1455.788	2.889	1792163	REC_EVENT	1128.0	n/a	3	1	BREAD	PIE	PIE	BREAD	11	[0, 0, 0]	-999	PAL1	3	R1196N
1458.677	1.0	1795052	PROBE_OFF	n/a	n/a	3	-999	n/a	n/a	n/a	n/a	11	[0, 0, 0]	-999	PAL1	3	R1196N
1459.677	0.017	1796052	REC_END	n/a	n/a	3	-999	n/a	n/a	n/a	n/a	11	[0, 0, 0]	-999	PAL1	3	R1196N
1459.694	0.267	1796069	TEST_ORIENT	n/a	n/a	6	2	SHARK	DOOR	DOOR	SHARK	11	[0, 0, 0]	-999	PAL1	3	R1196N
1459.961	0.633	1796336	RETRIEVAL_ORIENT_OFF	n/a	n/a	3	-999	n/a	n/a	n/a	n/a	11	[0, 0, 0]	-999	PAL1	3	R1196N
1460.594	4.0	1796969	TEST_PROBE	n/a	wordpools/wordpool_EN.txt	6	2	SHARK	DOOR	DOOR	SHARK	11	[0, 0, 0]	-999	PAL1	3	R1196N
1460.595	0.901	1796970	REC_START	n/a	n/a	6	-999	n/a	DOOR	n/a	n/a	11	[0, 0, 0]	-999	PAL1	3	R1196N
1461.496	3.115	1797871	REC_EVENT	901.0	n/a	6	2	SHARK	DOOR	DOOR	SHARK	11	[0, 0, 0]	-999	PAL1	3	R1196N
1464.611	1.0	1800986	PROBE_OFF	n/a	n/a	6	-999	n/a	n/a	n/a	n/a	11	[0, 0, 0]	-999	PAL1	3	R1196N
1465.611	0.017	1801986	REC_END	n/a	n/a	6	-999	n/a	n/a	n/a	n/a	11	[0, 0, 0]	-999	PAL1	3	R1196N
1465.628	0.267	1802003	TEST_ORIENT	n/a	n/a	5	3	DART	MILK	MILK	DART	11	[0, 0, 0]	-999	PAL1	3	R1196N
1465.895	0.55	1802270	RETRIEVAL_ORIENT_OFF	n/a	n/a	6	-999	n/a	n/a	n/a	n/a	11	[0, 0, 0]	-999	PAL1	3	R1196N
1466.445	4.0	1802820	TEST_PROBE	n/a	wordpools/wordpool_EN.txt	5	3	DART	MILK	MILK	DART	11	[0, 0, 0]	-999	PAL1	3	R1196N
1466.446	1.059	1802821	REC_START	n/a	n/a	5	-999	n/a	MILK	n/a	n/a	11	[0, 0, 0]	-999	PAL1	3	R1196N
1467.505	2.957	1803880	REC_EVENT	1059.0	n/a	5	3	DART	MILK	MILK	DART	11	[0, 0, 0]	-999	PAL1	3	R1196N
1470.462	1.0	1806837	PROBE_OFF	n/a	n/a	5	-999	n/a	n/a	n/a	n/a	11	[0, 0, 0]	-999	PAL1	3	R1196N
1471.462	0.017	1807837	REC_END	n/a	n/a	5	-999	n/a	n/a	n/a	n/a	11	[0, 0, 0]	-999	PAL1	3	R1196N
1471.479	0.267	1807854	TEST_ORIENT	n/a	n/a	2	4	BEAR	KITE	BEAR	KITE	11	[0, 0, 0]	-999	PAL1	3	R1196N
1471.746	0.683	1808121	RETRIEVAL_ORIENT_OFF	n/a	n/a	5	-999	n/a	n/a	n/a	n/a	11	[0, 0, 0]	-999	PAL1	3	R1196N
1472.429	4.0	1808804	TEST_PROBE	n/a	wordpools/wordpool_EN.txt	2	4	BEAR	KITE	BEAR	KITE	11	[0, 0, 0]	-999	PAL1	3	R1196N
1472.43	2.891	1808805	REC_START	n/a	n/a	2	-999	n/a	KITE	n/a	n/a	11	[0, 0, 0]	-999	PAL1	3	R1196N
1475.321	1.109	1811696	REC_EVENT	2891.0	n/a	2	4	BEAR	KITE	BEAR	KITE	11	[0, 0, 0]	-999	PAL1	3	R1196N
1476.43	1.0	1812805	PROBE_OFF	n/a	n/a	2	-999	n/a	n/a	n/a	n/a	11	[0, 0, 0]	-999	PAL1	3	R1196N
1477.43	0.017	1813805	REC_END	n/a	n/a	2	-999	n/a	n/a	n/a	n/a	11	[0, 0, 0]	-999	PAL1	3	R1196N
1477.447	0.267	1813822	TEST_ORIENT	n/a	n/a	1	5	SCHOOL	n/a	STORM	SCHOOL	11	[0, 0, 0]	-999	PAL1	3	R1196N
1477.714	0.566	1814089	RETRIEVAL_ORIENT_OFF	n/a	n/a	2	-999	n/a	n/a	n/a	n/a	11	[0, 0, 0]	-999	PAL1	3	R1196N
1478.28	4.0	1814655	TEST_PROBE	n/a	wordpools/wordpool_EN.txt	1	5	SCHOOL	n/a	STORM	SCHOOL	11	[0, 0, 0]	-999	PAL1	3	R1196N
1478.281	4.017	1814656	REC_START	n/a	n/a	1	-999	n/a	n/a	n/a	n/a	11	[0, 0, 0]	-999	PAL1	3	R1196N
1482.298	0.998	1818672	PROBE_OFF	n/a	n/a	1	-999	n/a	n/a	n/a	n/a	11	[0, 0, 0]	-999	PAL1	3	R1196N
1483.296	0.002	1819670	REC_EVENT	5015.0	n/a	1	5	SCHOOL	<>	STORM	SCHOOL	11	[0, 0, 0]	-999	PAL1	3	R1196N
1483.298	0.017	1819672	REC_END	n/a	n/a	1	-999	n/a	n/a	n/a	n/a	11	[0, 0, 0]	-999	PAL1	3	R1196N
1483.315	0.266	1819689	TEST_ORIENT	n/a	n/a	4	6	STOVE	BOOT	BOOT	STOVE	11	[0, 0, 0]	-999	PAL1	3	R1196N
1483.581	0.734	1819955	RETRIEVAL_ORIENT_OFF	n/a	n/a	1	-999	n/a	n/a	n/a	n/a	11	[0, 0, 0]	-999	PAL1	3	R1196N
1484.315	0.0	1820689	REC_START	n/a	n/a	4	-999	n/a	BOOT	n/a	n/a	11	[0, 0, 0]	-999	PAL1	3	R1196N
1484.315	4.0	1820689	TEST_PROBE	n/a	wordpools/wordpool_EN.txt	4	6	STOVE	BOOT	BOOT	STOVE	11	[0, 0, 0]	-999	PAL1	3	R1196N
1486.193	2.139	1822567	REC_EVENT	1878.0	n/a	4	6	STOVE	BOOT	BOOT	STOVE	11	[0, 0, 0]	-999	PAL1	3	R1196N
1488.332	1.0	1824706	PROBE_OFF	n/a	n/a	4	-999	n/a	n/a	n/a	n/a	11	[0, 0, 0]	-999	PAL1	3	R1196N
1489.332	0.009	1825706	REC_END	n/a	n/a	4	-999	n/a	n/a	n/a	n/a	11	[0, 0, 0]	-999	PAL1	3	R1196N
1489.341	7.309	1825715	RECALL_END	n/a	n/a	-999	-999	n/a	n/a	n/a	n/a	11	[0, 0, 0]	-999	PAL1	3	R1196N
1496.65	10.929	1833024	TRIAL	n/a	n/a	-999	-999	n/a	n/a	n/a	n/a	12	[0, 0, 0]	-999	PAL1	3	R1196N
1507.579	0.006	1843952	ENCODING_START	n/a	n/a	-999	-999	n/a	n/a	n/a	n/a	12	[0, 0, 0]	-999	PAL1	3	R1196N
1507.585	0.266	1843958	STUDY_ORIENT	n/a	n/a	1	5	SLUSH	CLIFF	SLUSH	CLIFF	12	[0, 0, 0]	-999	PAL1	3	R1196N
1507.851	0.734	1844224	STUDY_ORIENT_OFF	n/a	n/a	1	5	SLUSH	CLIFF	SLUSH	CLIFF	12	[0, 0, 0]	-999	PAL1	3	R1196N
1508.585	4.0	1844958	STUDY_PAIR	n/a	wordpools/wordpool_EN.txt	1	5	SLUSH	CLIFF	SLUSH	CLIFF	12	[0, 0, 0]	-999	PAL1	3	R1196N
1512.586	1.017	1848959	PAIR_OFF	n/a	n/a	1	5	SLUSH	CLIFF	SLUSH	CLIFF	12	[0, 0, 0]	-999	PAL1	3	R1196N
1513.603	0.266	1849976	STUDY_ORIENT	n/a	n/a	2	2	CORN	COUCH	CORN	COUCH	12	[0, 0, 0]	-999	PAL1	3	R1196N
1513.869	0.584	1850242	STUDY_ORIENT_OFF	n/a	n/a	2	2	CORN	COUCH	CORN	COUCH	12	[0, 0, 0]	-999	PAL1	3	R1196N
1514.453	4.0	1850826	STUDY_PAIR	n/a	wordpools/wordpool_EN.txt	2	2	CORN	COUCH	CORN	COUCH	12	[0, 0, 0]	-999	PAL1	3	R1196N
1518.47	1.017	1854843	PAIR_OFF	n/a	n/a	2	2	CORN	COUCH	CORN	COUCH	12	[0, 0, 0]	-999	PAL1	3	R1196N
1519.487	0.267	1855860	STUDY_ORIENT	n/a	n/a	3	1	DIME	TOOTH	TOOTH	DIME	12	[0, 0, 0]	-999	PAL1	3	R1196N
1519.754	0.733	1856127	STUDY_ORIENT_OFF	n/a	n/a	3	1	DIME	TOOTH	TOOTH	DIME	12	[0, 0, 0]	-999	PAL1	3	R1196N
1520.487	4.0	1856860	STUDY_PAIR	n/a	wordpools/wordpool_EN.txt	3	1	DIME	TOOTH	TOOTH	DIME	12	[0, 0, 0]	-999	PAL1	3	R1196N
1524.505	1.017	1860878	PAIR_OFF	n/a	n/a	3	1	DIME	TOOTH	TOOTH	DIME	12	[0, 0, 0]	-999	PAL1	3	R1196N
1525.522	0.266	1861895	STUDY_ORIENT	n/a	n/a	4	4	JEEP	TRAIN	TRAIN	JEEP	12	[0, 0, 0]	-999	PAL1	3	R1196N
1525.788	0.684	1862161	STUDY_ORIENT_OFF	n/a	n/a	4	4	JEEP	TRAIN	TRAIN	JEEP	12	[0, 0, 0]	-999	PAL1	3	R1196N
1526.472	4.0	1862845	STUDY_PAIR	n/a	wordpools/wordpool_EN.txt	4	4	JEEP	TRAIN	TRAIN	JEEP	12	[0, 0, 0]	-999	PAL1	3	R1196N
1530.489	1.017	1866861	PAIR_OFF	n/a	n/a	4	4	JEEP	TRAIN	TRAIN	JEEP	12	[0, 0, 0]	-999	PAL1	3	R1196N
1531.506	0.267	1867878	STUDY_ORIENT	n/a	n/a	5	3	LEG	HILL	HILL	LEG	12	[0, 0, 0]	-999	PAL1	3	R1196N
1531.773	0.75	1868145	STUDY_ORIENT_OFF	n/a	n/a	5	3	LEG	HILL	HILL	LEG	12	[0, 0, 0]	-999	PAL1	3	R1196N
