onset	duration	sample	trial_type	response_time	stim_file	serialpos	probepos	probe_word	resp_word	study_1	study_2	list	test	answer	experiment	session	subject
0.0	0.0	47946	INSTRUCT_VIDEO_ON	n/a	n/a	-999	-999	n/a	n/a	n/a	n/a	-999	[0, 0, 0]	-999	PAL1	2	R1232N
0.0	5.428	47946	INSTRUCT_VIDEO_OFF	n/a	n/a	-999	-999	n/a	n/a	n/a	n/a	-999	[0, 0, 0]	-999	PAL1	2	R1232N
5.428	0.0	53374	SESS_START	n/a	n/a	-999	-999	n/a	n/a	n/a	n/a	-999	[0, 0, 0]	-999	PAL1	2	R1232N
5.428	79.183	53374	MIC_TEST	n/a	n/a	-999	-999	n/a	n/a	n/a	n/a	-999	[0, 0, 0]	-999	PAL1	2	R1232N
84.611	12.699	132554	PRACTICE_TRIAL	n/a	n/a	-999	-999	n/a	n/a	n/a	n/a	-1	[0, 0, 0]	-999	PAL1	2	R1232N
97.31	0.007	145252	ENCODING_START	n/a	n/a	-999	-999	n/a	n/a	n/a	n/a	-1	[0, 0, 0]	-999	PAL1	2	R1232N
97.317	0.266	145259	PRACTICE_ORIENT	n/a	n/a	1	5	FLOOD	WATCH	FLOOD	WATCH	-1	[0, 0, 0]	-999	PAL1	2	R1232N
97.583	0.55	145525	PRACTICE_ORIENT_OFF	n/a	n/a	1	5	FLOOD	WATCH	FLOOD	WATCH	-1	[0, 0, 0]	-999	PAL1	2	R1232N
98.133	4.018	146075	PRACTICE_PAIR	n/a	n/a	1	5	FLOOD	WATCH	FLOOD	WATCH	-1	[0, 0, 0]	-999	PAL1	2	R1232N
102.151	1.017	150093	PRACTICE_PAIR_OFF	n/a	n/a	1	5	FLOOD	WATCH	FLOOD	WATCH	-1	[0, 0, 0]	-999	PAL1	2	R1232N
103.168	0.266	151110	PRACTICE_ORIENT	n/a	n/a	2	2	COTTON	RING	COTTON	IRON	-1	[0, 0, 0]	-999	PAL1	2	R1232N
103.434	0.667	151376	PRACTICE_ORIENT_OFF	n/a	n/a	2	2	COTTON	RING	COTTON	IRON	-1	[0, 0, 0]	-999	PAL1	2	R1232N
104.101	4.017	152043	PRACTICE_PAIR	n/a	n/a	2	2	COTTON	RING	COTTON	IRON	-1	[0, 0, 0]	-999	PAL1	2	R1232N
108.118	1.017	156060	PRACTICE_PAIR_OFF	n/a	n/a	2	2	COTTON	RING	COTTON	IRON	-1	[0, 0, 0]	-999	PAL1	2	R1232N
109.135	0.267	157077	PRACTICE_ORIENT	n/a	n/a	3	3	CHEST	n/a	RHINO	CHEST	-1	[0, 0, 0]	-999	PAL1	2	R1232N
109.402	0.733	157344	PRACTICE_ORIENT_OFF	n/a	n/a	3	3	CHEST	n/a	RHINO	CHEST	-1	[0, 0, 0]	-999	PAL1	2	R1232N
110.135	4.001	158077	PRACTICE_PAIR	n/a	n/a	3	3	CHEST	n/a	RHINO	CHEST	-1	[0, 0, 0]	-999	PAL1	2	R1232N
114.136	1.017	162078	PRACTICE_PAIR_OFF	n/a	n/a	3	3	CHEST	n/a	RHINO	CHEST	-1	[0, 0, 0]	-999	PAL1	2	R1232N
115.153	0.267	163094	PRACTICE_ORIENT	n/a	n/a	4	6	TONGUE	n/a	TONGUE	ATTIC	-1	[0, 0, 0]	-999	PAL1	2	R1232N
115.42	0.583	163361	PRACTICE_ORIENT_OFF	n/a	n/a	4	6	TONGUE	n/a	TONGUE	ATTIC	-1	[0, 0, 0]	-999	PAL1	2	R1232N
116.003	4.017	163944	PRACTICE_PAIR	n/a	n/a	4	6	TONGUE	n/a	TONGUE	ATTIC	-1	[0, 0, 0]	-999	PAL1	2	R1232N
120.02	1.017	167961	PRACTICE_PAIR_OFF	n/a	n/a	4	6	TONGUE	n/a	TONGUE	ATTIC	-1	[0, 0, 0]	-999	PAL1	2	R1232N
121.037	0.267	168978	PRACTICE_ORIENT	n/a	n/a	5	1	BEAM	CAMMEL	CAMEL	BEAM	-1	[0, 0, 0]	-999	PAL1	2	R1232N
121.304	0.634	169245	PRACTICE_ORIENT_OFF	n/a	n/a	5	1	BEAM	CAMMEL	CAMEL	BEAM	-1	[0, 0, 0]	-999	PAL1	2	R1232N
121.938	4.018	169879	PRACTICE_PAIR	n/a	n/a	5	1	BEAM	CAMMEL	CAMEL	BEAM	-1	[0, 0, 0]	-999	PAL1	2	R1232N
125.956	1.017	173897	PRACTICE_PAIR_OFF	n/a	n/a	5	1	BEAM	CAMMEL	CAMEL	BEAM	-1	[0, 0, 0]	-999	PAL1	2	R1232N
126.973	0.265	174914	PRACTICE_ORIENT	n/a	n/a	6	4	RING	TONGUE	WAGON	RING	-1	[0, 0, 0]	-999	PAL1	2	R1232N
127.238	0.651	175179	PRACTICE_ORIENT_OFF	n/a	n/a	6	4	RING	TONGUE	WAGON	RING	-1	[0, 0, 0]	-999	PAL1	2	R1232N
127.889	4.018	175830	PRACTICE_PAIR	n/a	n/a	6	4	RING	TONGUE	WAGON	RING	-1	[0, 0, 0]	-999	PAL1	2	R1232N
131.907	1.001	179848	PRACTICE_PAIR_OFF	n/a	n/a	6	4	RING	TONGUE	WAGON	RING	-1	[0, 0, 0]	-999	PAL1	2	R1232N
132.908	0.0	180849	ENCODING_END	n/a	n/a	-999	-999	n/a	n/a	n/a	n/a	-1	[0, 0, 0]	-999	PAL1	2	R1232N
132.908	0.0	180849	MATH_START	n/a	n/a	-999	-999	n/a	n/a	n/a	n/a	-1	[0, 0, 0]	-999	PAL1	2	R1232N
132.908	0.015	180849	START	n/a	n/a	-999	-999	n/a	n/a	n/a	n/a	-1	[-999, -999, -999]	-999	PAL1	2	R1232N
132.923	3.333	180864	PROB	3300	n/a	-999	-999	n/a	n/a	n/a	n/a	-1	[2, 6, 6]	14	PAL1	2	R1232N
136.256	2.652	184197	PROB	2624	n/a	-999	-999	n/a	n/a	n/a	n/a	-1	[6, 9, 4]	19	PAL1	2	R1232N
138.908	1.816	186849	PROB	1787	n/a	-999	-999	n/a	n/a	n/a	n/a	-1	[6, 2, 3]	11	PAL1	2	R1232N
140.724	2.083	188664	PROB	2050	n/a	-999	-999	n/a	n/a	n/a	n/a	-1	[2, 7, 4]	13	PAL1	2	R1232N
142.807	1.901	190747	PROB	1863	n/a	-999	-999	n/a	n/a	n/a	n/a	-1	[2, 2, 4]	8	PAL1	2	R1232N
144.708	1.75	192648	PROB	1715	n/a	-999	-999	n/a	n/a	n/a	n/a	-1	[3, 4, 4]	11	PAL1	2	R1232N
146.458	1.967	194398	PROB	1933	n/a	-999	-999	n/a	n/a	n/a	n/a	-1	[9, 8, 1]	18	PAL1	2	R1232N
148.425	2.0	196365	PROB	1973	n/a	-999	-999	n/a	n/a	n/a	n/a	-1	[5, 4, 9]	18	PAL1	2	R1232N
150.425	2.758	198365	PROB	2758	n/a	-999	-999	n/a	n/a	n/a	n/a	-1	[1, 3, 9]	13	PAL1	2	R1232N
153.183	0.01	201123	STOP	n/a	n/a	-999	-999	n/a	n/a	n/a	n/a	-1	[-999, -999, -999]	-999	PAL1	2	R1232N
153.193	0.0	201133	MATH_END	n/a	n/a	-999	-999	n/a	n/a	n/a	n/a	-1	[0, 0, 0]	-999	PAL1	2	R1232N
153.193	0.016	201133	RECALL_START	n/a	n/a	-999	-999	n/a	n/a	n/a	n/a	-1	[0, 0, 0]	-999	PAL1	2	R1232N
153.209	0.267	201149	PRACTICE_RETRIEVAL_ORIENT	n/a	n/a	5	1	BEAM	CAMMEL	CAMEL	BEAM	-1	[0, 0, 0]	-999	PAL1	2	R1232N
153.476	0.733	201416	PRACTICE_RETRIEVAL_ORIENT_OFF	n/a	n/a	5	1	BEAM	CAMMEL	CAMEL	BEAM	-1	[0, 0, 0]	-999	PAL1	2	R1232N
154.209	0.005	202149	PRACTICE_PROBE	n/a	n/a	5	1	BEAM	CAMMEL	CAMEL	BEAM	-1	[0, 0, 0]	-999	PAL1	2	R1232N
154.214	1.601	202154	REC_START	n/a	n/a	5	-999	n/a	CAMMEL	n/a	n/a	-1	[0, 0, 0]	-999	PAL1	2	R1232N
155.815	2.412	203755	REC_EVENT	1601	n/a	5	1	BEAM	CAMMEL	CAMEL	BEAM	-1	[0, 0, 0]	-999	PAL1	2	R1232N
158.227	1.0	206167	PROBE_OFF	n/a	n/a	5	-999	n/a	n/a	n/a	n/a	-1	[0, 0, 0]	-999	PAL1	2	R1232N
159.227	0.016	207167	REC_END	n/a	n/a	5	-999	n/a	n/a	n/a	n/a	-1	[0, 0, 0]	-999	PAL1	2	R1232N
159.243	0.267	207183	PRACTICE_RETRIEVAL_ORIENT	n/a	n/a	2	2	COTTON	RING	COTTON	IRON	-1	[0, 0, 0]	-999	PAL1	2	R1232N
159.51	0.567	207450	PRACTICE_RETRIEVAL_ORIENT_OFF	n/a	n/a	2	2	COTTON	RING	COTTON	IRON	-1	[0, 0, 0]	-999	PAL1	2	R1232N
160.077	0.001	208017	PRACTICE_PROBE	n/a	n/a	2	2	COTTON	RING	COTTON	IRON	-1	[0, 0, 0]	-999	PAL1	2	R1232N
160.078	1.189	208018	REC_START	n/a	n/a	2	-999	n/a	RING	n/a	n/a	-1	[0, 0, 0]	-999	PAL1	2	R1232N
161.267	2.827	209207	REC_EVENT	1189	n/a	2	2	COTTON	RING	COTTON	IRON	-1	[0, 0, 0]	-999	PAL1	2	R1232N
164.094	1.0	212033	PROBE_OFF	n/a	n/a	2	-999	n/a	n/a	n/a	n/a	-1	[0, 0, 0]	-999	PAL1	2	R1232N
165.094	0.017	213033	REC_END	n/a	n/a	2	-999	n/a	n/a	n/a	n/a	-1	[0, 0, 0]	-999	PAL1	2	R1232N
165.111	0.267	213050	PRACTICE_RETRIEVAL_ORIENT	n/a	n/a	3	3	CHEST	n/a	RHINO	CHEST	-1	[0, 0, 0]	-999	PAL1	2	R1232N
165.378	0.568	213317	PRACTICE_RETRIEVAL_ORIENT_OFF	n/a	n/a	3	3	CHEST	n/a	RHINO	CHEST	-1	[0, 0, 0]	-999	PAL1	2	R1232N
165.946	0.0	213885	PRACTICE_PROBE	n/a	n/a	3	3	CHEST	n/a	RHINO	CHEST	-1	[0, 0, 0]	-999	PAL1	2	R1232N
165.946	4.017	213885	REC_START	n/a	n/a	3	-999	n/a	n/a	n/a	n/a	-1	[0, 0, 0]	-999	PAL1	2	R1232N
169.963	1.011	217902	PROBE_OFF	n/a	n/a	3	-999	n/a	n/a	n/a	n/a	-1	[0, 0, 0]	-999	PAL1	2	R1232N
170.974	0.004	218913	REC_END	n/a	n/a	3	-999	n/a	n/a	n/a	n/a	-1	[0, 0, 0]	-999	PAL1	2	R1232N
170.978	0.017	218917	REC_EVENT	5032	n/a	3	3	CHEST	<>	RHINO	CHEST	-1	[0, 0, 0]	-999	PAL1	2	R1232N
170.995	0.267	218934	PRACTICE_RETRIEVAL_ORIENT	n/a	n/a	6	4	RING	TONGUE	WAGON	RING	-1	[0, 0, 0]	-999	PAL1	2	R1232N
171.262	0.517	219201	PRACTICE_RETRIEVAL_ORIENT_OFF	n/a	n/a	6	4	RING	TONGUE	WAGON	RING	-1	[0, 0, 0]	-999	PAL1	2	R1232N
171.779	0.0	219718	PRACTICE_PROBE	n/a	n/a	6	4	RING	TONGUE	WAGON	RING	-1	[0, 0, 0]	-999	PAL1	2	R1232N
171.779	4.001	219718	REC_START	n/a	n/a	6	-999	n/a	TONGUE	n/a	n/a	-1	[0, 0, 0]	-999	PAL1	2	R1232N
175.78	0.016	223719	REC_EVENT	4001	n/a	6	4	RING	<>	WAGON	RING	-1	[0, 0, 0]	-999	PAL1	2	R1232N
175.796	0.484	223735	PROBE_OFF	n/a	n/a	6	-999	n/a	n/a	n/a	n/a	-1	[0, 0, 0]	-999	PAL1	2	R1232N
176.28	0.516	224219	REC_EVENT	4501	n/a	6	4	RING	TONGUE	WAGON	RING	-1	[0, 0, 0]	-999	PAL1	2	R1232N
176.796	0.017	224735	REC_END	n/a	n/a	6	-999	n/a	n/a	n/a	n/a	-1	[0, 0, 0]	-999	PAL1	2	R1232N
176.813	0.267	224752	PRACTICE_RETRIEVAL_ORIENT	n/a	n/a	1	5	FLOOD	WATCH	FLOOD	WATCH	-1	[0, 0, 0]	-999	PAL1	2	R1232N
177.08	0.55	225019	PRACTICE_RETRIEVAL_ORIENT_OFF	n/a	n/a	1	5	FLOOD	WATCH	FLOOD	WATCH	-1	[0, 0, 0]	-999	PAL1	2	R1232N
177.63	0.001	225569	PRACTICE_PROBE	n/a	n/a	1	5	FLOOD	WATCH	FLOOD	WATCH	-1	[0, 0, 0]	-999	PAL1	2	R1232N
177.631	1.089	225570	REC_START	n/a	n/a	1	-999	n/a	WATCH	n/a	n/a	-1	[0, 0, 0]	-999	PAL1	2	R1232N
178.72	2.927	226659	REC_EVENT	1089	n/a	1	5	FLOOD	WATCH	FLOOD	WATCH	-1	[0, 0, 0]	-999	PAL1	2	R1232N
181.647	1.0	229586	PROBE_OFF	n/a	n/a	1	-999	n/a	n/a	n/a	n/a	-1	[0, 0, 0]	-999	PAL1	2	R1232N
182.647	0.017	230586	REC_END	n/a	n/a	1	-999	n/a	n/a	n/a	n/a	-1	[0, 0, 0]	-999	PAL1	2	R1232N
182.664	0.268	230603	PRACTICE_RETRIEVAL_ORIENT	n/a	n/a	4	6	TONGUE	n/a	TONGUE	ATTIC	-1	[0, 0, 0]	-999	PAL1	2	R1232N
182.932	0.599	230871	PRACTICE_RETRIEVAL_ORIENT_OFF	n/a	n/a	4	6	TONGUE	n/a	TONGUE	ATTIC	-1	[0, 0, 0]	-999	PAL1	2	R1232N
183.531	0.001	231470	PRACTICE_PROBE	n/a	n/a	4	6	TONGUE	n/a	TONGUE	ATTIC	-1	[0, 0, 0]	-999	PAL1	2	R1232N
183.532	4.016	231471	REC_START	n/a	n/a	4	-999	n/a	n/a	n/a	n/a	-1	[0, 0, 0]	-999	PAL1	2	R1232N
187.548	0.999	235487	PROBE_OFF	n/a	n/a	4	-999	n/a	n/a	n/a	n/a	-1	[0, 0, 0]	-999	PAL1	2	R1232N
188.547	0.001	236485	REC_EVENT	5015	n/a	4	6	TONGUE	<>	TONGUE	ATTIC	-1	[0, 0, 0]	-999	PAL1	2	R1232N
188.548	0.013	236486	REC_END	n/a	n/a	4	-999	n/a	n/a	n/a	n/a	-1	[0, 0, 0]	-999	PAL1	2	R1232N
188.561	7.373	236499	RECALL_END	n/a	n/a	-999	-999	n/a	n/a	n/a	n/a	-1	[0, 0, 0]	-999	PAL1	2	R1232N
195.934	10.929	243872	TRIAL	n/a	n/a	-999	-999	n/a	n/a	n/a	n/a	1	[0, 0, 0]	-999	PAL1	2	R1232N
206.863	0.006	254801	ENCODING_START	n/a	n/a	-999	-999	n/a	n/a	n/a	n/a	1	[0, 0, 0]	-999	PAL1	2	R1232N
206.869	0.266	254807	STUDY_ORIENT	n/a	n/a	1	5	BOAT	FUR	BOAT	FUR	1	[0, 0, 0]	-999	PAL1	2	R1232N
207.135	0.583	255073	STUDY_ORIENT_OFF	n/a	n/a	1	5	BOAT	FUR	BOAT	FUR	1	[0, 0, 0]	-999	PAL1	2	R1232N
207.718	4.017	255656	STUDY_PAIR	n/a	wordpools/wordpool_EN.txt	1	5	BOAT	FUR	BOAT	FUR	1	[0, 0, 0]	-999	PAL1	2	R1232N
211.735	1.017	259673	PAIR_OFF	n/a	n/a	1	5	BOAT	FUR	BOAT	FUR	1	[0, 0, 0]	-999	PAL1	2	R1232N
212.752	0.267	260690	STUDY_ORIENT	n/a	n/a	2	4	STRING	CAT	STRING	CAT	1	[0, 0, 0]	-999	PAL1	2	R1232N
213.019	0.7	260956	STUDY_ORIENT_OFF	n/a	n/a	2	4	STRING	CAT	STRING	CAT	1	[0, 0, 0]	-999	PAL1	2	R1232N
213.719	4.017	261656	STUDY_PAIR	n/a	wordpools/wordpool_EN.txt	2	4	STRING	CAT	STRING	CAT	1	[0, 0, 0]	-999	PAL1	2	R1232N
217.736	1.017	265673	PAIR_OFF	n/a	n/a	2	4	STRING	CAT	STRING	CAT	1	[0, 0, 0]	-999	PAL1	2	R1232N
218.753	0.267	266690	STUDY_ORIENT	n/a	n/a	3	3	STEAK	NEST	STEAK	NEST	1	[0, 0, 0]	-999	PAL1	2	R1232N
219.02	0.75	266957	STUDY_ORIENT_OFF	n/a	n/a	3	3	STEAK	NEST	STEAK	NEST	1	[0, 0, 0]	-999	PAL1	2	R1232N
219.77	4.017	267707	STUDY_PAIR	n/a	wordpools/wordpool_EN.txt	3	3	STEAK	NEST	STEAK	NEST	1	[0, 0, 0]	-999	PAL1	2	R1232N
223.787	1.017	271724	PAIR_OFF	n/a	n/a	3	3	STEAK	NEST	STEAK	NEST	1	[0, 0, 0]	-999	PAL1	2	R1232N
224.804	0.267	272741	STUDY_ORIENT	n/a	n/a	4	2	STRAW	STEAK	STRAW	CLAY	1	[0, 0, 0]	-999	PAL1	2	R1232N
225.071	0.683	273008	STUDY_ORIENT_OFF	n/a	n/a	4	2	STRAW	STEAK	STRAW	CLAY	1	[0, 0, 0]	-999	PAL1	2	R1232N
225.754	4.018	273691	STUDY_PAIR	n/a	wordpools/wordpool_EN.txt	4	2	STRAW	STEAK	STRAW	CLAY	1	[0, 0, 0]	-999	PAL1	2	R1232N
229.772	1.017	277709	PAIR_OFF	n/a	n/a	4	2	STRAW	STEAK	STRAW	CLAY	1	[0, 0, 0]	-999	PAL1	2	R1232N
230.789	0.266	278726	STUDY_ORIENT	n/a	n/a	5	1	SWORD	n/a	SWORD	COIN	1	[0, 0, 0]	-999	PAL1	2	R1232N
231.055	0.7	278992	STUDY_ORIENT_OFF	n/a	n/a	5	1	SWORD	n/a	SWORD	COIN	1	[0, 0, 0]	-999	PAL1	2	R1232N
231.755	4.018	279692	STUDY_PAIR	n/a	wordpools/wordpool_EN.txt	5	1	SWORD	n/a	SWORD	COIN	1	[0, 0, 0]	-999	PAL1	2	R1232N
235.773	1.017	283710	PAIR_OFF	n/a	n/a	5	1	SWORD	n/a	SWORD	COIN	1	[0, 0, 0]	-999	PAL1	2	R1232N
236.79	0.266	284727	STUDY_ORIENT	n/a	n/a	6	6	SQUARE	SHEET	SQUARE	SHEET	1	[0, 0, 0]	-999	PAL1	2	R1232N
237.056	0.7	284993	STUDY_ORIENT_OFF	n/a	n/a	6	6	SQUARE	SHEET	SQUARE	SHEET	1	[0, 0, 0]	-999	PAL1	2	R1232N
237.756	4.018	285692	STUDY_PAIR	n/a	wordpools/wordpool_EN.txt	6	6	SQUARE	SHEET	SQUARE	SHEET	1	[0, 0, 0]	-999	PAL1	2	R1232N
241.774	1.0	289710	PAIR_OFF	n/a	n/a	6	6	SQUARE	SHEET	SQUARE	SHEET	1	[0, 0, 0]	-999	PAL1	2	R1232N
242.774	0.0	290710	MATH_START	n/a	n/a	-999	-999	n/a	n/a	n/a	n/a	1	[0, 0, 0]	-999	PAL1	2	R1232N
242.774	0.001	290710	ENCODING_END	n/a	n/a	-999	-999	n/a	n/a	n/a	n/a	1	[0, 0, 0]	-999	PAL1	2	R1232N
242.775	0.016	290711	START	n/a	n/a	-999	-999	n/a	n/a	n/a	n/a	1	[-999, -999, -999]	-999	PAL1	2	R1232N
242.791	2.4	290727	PROB	2367	n/a	-999	-999	n/a	n/a	n/a	n/a	1	[4, 7, 1]	12	PAL1	2	R1232N
245.191	1.967	293127	PROB	1944	n/a	-999	-999	n/a	n/a	n/a	n/a	1	[4, 1, 7]	12	PAL1	2	R1232N
247.158	2.217	295094	PROB	2185	n/a	-999	-999	n/a	n/a	n/a	n/a	1	[9, 5, 3]	17	PAL1	2	R1232N
249.375	2.551	297311	PROB	2520	n/a	-999	-999	n/a	n/a	n/a	n/a	1	[4, 9, 4]	17	PAL1	2	R1232N
251.926	2.1	299862	PROB	2073	n/a	-999	-999	n/a	n/a	n/a	n/a	1	[9, 8, 6]	23	PAL1	2	R1232N
254.026	3.167	301962	PROB	3140	n/a	-999	-999	n/a	n/a	n/a	n/a	1	[6, 4, 6]	16	PAL1	2	R1232N
257.193	2.2	305129	PROB	2173	n/a	-999	-999	n/a	n/a	n/a	n/a	1	[3, 6, 3]	12	PAL1	2	R1232N
259.393	4.053	307329	PROB	4053	n/a	-999	-999	n/a	n/a	n/a	n/a	1	[5, 9, 5]	19	PAL1	2	R1232N
263.446	0.015	311381	STOP	n/a	n/a	-999	-999	n/a	n/a	n/a	n/a	1	[-999, -999, -999]	-999	PAL1	2	R1232N
263.461	0.0	311396	MATH_END	n/a	n/a	-999	-999	n/a	n/a	n/a	n/a	1	[0, 0, 0]	-999	PAL1	2	R1232N
263.461	0.016	311396	RECALL_START	n/a	n/a	-999	-999	n/a	n/a	n/a	n/a	1	[0, 0, 0]	-999	PAL1	2	R1232N
263.477	0.267	311412	TEST_ORIENT	n/a	n/a	5	1	SWORD	n/a	SWORD	COIN	1	[0, 0, 0]	-999	PAL1	2	R1232N
263.744	0.75	311679	RETRIEVAL_ORIENT_OFF	n/a	n/a	-999	-999	n/a	n/a	n/a	n/a	1	[0, 0, 0]	-999	PAL1	2	R1232N
264.494	0.001	312429	TEST_PROBE	n/a	wordpools/wordpool_EN.txt	5	1	SWORD	n/a	SWORD	COIN	1	[0, 0, 0]	-999	PAL1	2	R1232N
264.495	4.016	312430	REC_START	n/a	n/a	5	-999	n/a	n/a	n/a	n/a	1	[0, 0, 0]	-999	PAL1	2	R1232N
268.511	0.949	316446	PROBE_OFF	n/a	n/a	5	-999	n/a	n/a	n/a	n/a	1	[0, 0, 0]	-999	PAL1	2	R1232N
269.46	0.051	317395	REC_EVENT	4965	n/a	5	1	SWORD	<>	SWORD	COIN	1	[0, 0, 0]	-999	PAL1	2	R1232N
269.511	0.017	317446	REC_END	n/a	n/a	5	-999	n/a	n/a	n/a	n/a	1	[0, 0, 0]	-999	PAL1	2	R1232N
269.528	0.267	317463	TEST_ORIENT	n/a	n/a	4	2	STRAW	STEAK	STRAW	CLAY	1	[0, 0, 0]	-999	PAL1	2	R1232N
269.795	0.633	317730	RETRIEVAL_ORIENT_OFF	n/a	n/a	5	-999	n/a	n/a	n/a	n/a	1	[0, 0, 0]	-999	PAL1	2	R1232N
270.428	0.001	318363	TEST_PROBE	n/a	wordpools/wordpool_EN.txt	4	2	STRAW	STEAK	STRAW	CLAY	1	[0, 0, 0]	-999	PAL1	2	R1232N
270.429	2.985	318364	REC_START	n/a	n/a	4	-999	n/a	STEAK	n/a	n/a	1	[0, 0, 0]	-999	PAL1	2	R1232N
273.414	1.032	321349	REC_EVENT	2985	n/a	4	2	STRAW	STEAK	STRAW	CLAY	1	[0, 0, 0]	-999	PAL1	2	R1232N
274.446	1.011	322381	PROBE_OFF	n/a	n/a	4	-999	n/a	n/a	n/a	n/a	1	[0, 0, 0]	-999	PAL1	2	R1232N
275.457	0.022	323392	REC_END	n/a	n/a	4	-999	n/a	n/a	n/a	n/a	1	[0, 0, 0]	-999	PAL1	2	R1232N
275.479	0.267	323414	TEST_ORIENT	n/a	n/a	3	3	STEAK	NEST	STEAK	NEST	1	[0, 0, 0]	-999	PAL1	2	R1232N
275.746	0.533	323681	RETRIEVAL_ORIENT_OFF	n/a	n/a	4	-999	n/a	n/a	n/a	n/a	1	[0, 0, 0]	-999	PAL1	2	R1232N
276.279	0.001	324214	TEST_PROBE	n/a	wordpools/wordpool_EN.txt	3	3	STEAK	NEST	STEAK	NEST	1	[0, 0, 0]	-999	PAL1	2	R1232N
276.28	1.265	324215	REC_START	n/a	n/a	3	-999	n/a	NEST	n/a	n/a	1	[0, 0, 0]	-999	PAL1	2	R1232N
277.545	0.203	325480	REC_EVENT	1265	n/a	3	3	STEAK	<>	STEAK	NEST	1	[0, 0, 0]	-999	PAL1	2	R1232N
277.748	2.549	325683	REC_EVENT	1468	n/a	3	3	STEAK	SHEET	STEAK	NEST	1	[0, 0, 0]	-999	PAL1	2	R1232N
280.297	0.163	328232	PROBE_OFF	n/a	n/a	3	-999	n/a	n/a	n/a	n/a	1	[0, 0, 0]	-999	PAL1	2	R1232N
280.46	0.185	328395	REC_EVENT	4180	n/a	3	3	STEAK	<>	STEAK	NEST	1	[0, 0, 0]	-999	PAL1	2	R1232N
280.645	0.652	328580	REC_EVENT	4365	n/a	3	3	STEAK	NEST	STEAK	NEST	1	[0, 0, 0]	-999	PAL1	2	R1232N
281.297	0.017	329232	REC_END	n/a	n/a	3	-999	n/a	n/a	n/a	n/a	1	[0, 0, 0]	-999	PAL1	2	R1232N
281.314	0.266	329249	TEST_ORIENT	n/a	n/a	2	4	STRING	CAT	STRING	CAT	1	[0, 0, 0]	-999	PAL1	2	R1232N
281.58	0.667	329515	RETRIEVAL_ORIENT_OFF	n/a	n/a	3	-999	n/a	n/a	n/a	n/a	1	[0, 0, 0]	-999	PAL1	2	R1232N
282.247	0.001	330182	TEST_PROBE	n/a	wordpools/wordpool_EN.txt	2	4	STRING	CAT	STRING	CAT	1	[0, 0, 0]	-999	PAL1	2	R1232N
282.248	2.284	330183	REC_START	n/a	n/a	2	-999	n/a	CAT	n/a	n/a	1	[0, 0, 0]	-999	PAL1	2	R1232N
284.532	1.732	332467	REC_EVENT	2284	n/a	2	4	STRING	CAT	STRING	CAT	1	[0, 0, 0]	-999	PAL1	2	R1232N
286.264	1.0	334199	PROBE_OFF	n/a	n/a	2	-999	n/a	n/a	n/a	n/a	1	[0, 0, 0]	-999	PAL1	2	R1232N
287.264	0.017	335198	REC_END	n/a	n/a	2	-999	n/a	n/a	n/a	n/a	1	[0, 0, 0]	-999	PAL1	2	R1232N
287.281	0.267	335215	TEST_ORIENT	n/a	n/a	1	5	BOAT	FUR	BOAT	FUR	1	[0, 0, 0]	-999	PAL1	2	R1232N
287.548	0.516	335482	RETRIEVAL_ORIENT_OFF	n/a	n/a	2	-999	n/a	n/a	n/a	n/a	1	[0, 0, 0]	-999	PAL1	2	R1232N
288.064	0.001	335998	TEST_PROBE	n/a	wordpools/wordpool_EN.txt	1	5	BOAT	FUR	BOAT	FUR	1	[0, 0, 0]	-999	PAL1	2	R1232N
288.065	1.112	335999	REC_START	n/a	n/a	1	-999	n/a	FUR	n/a	n/a	1	[0, 0, 0]	-999	PAL1	2	R1232N
289.177	2.888	337111	REC_EVENT	1112	n/a	1	5	BOAT	FUR	BOAT	FUR	1	[0, 0, 0]	-999	PAL1	2	R1232N
292.065	1.001	339999	PROBE_OFF	n/a	n/a	1	-999	n/a	n/a	n/a	n/a	1	[0, 0, 0]	-999	PAL1	2	R1232N
293.066	0.016	341000	REC_END	n/a	n/a	1	-999	n/a	n/a	n/a	n/a	1	[0, 0, 0]	-999	PAL1	2	R1232N
293.082	0.267	341016	TEST_ORIENT	n/a	n/a	6	6	SQUARE	SHEET	SQUARE	SHEET	1	[0, 0, 0]	-999	PAL1	2	R1232N
293.349	0.65	341283	RETRIEVAL_ORIENT_OFF	n/a	n/a	1	-999	n/a	n/a	n/a	n/a	1	[0, 0, 0]	-999	PAL1	2	R1232N
293.999	0.001	341933	TEST_PROBE	n/a	wordpools/wordpool_EN.txt	6	6	SQUARE	SHEET	SQUARE	SHEET	1	[0, 0, 0]	-999	PAL1	2	R1232N
294.0	1.393	341934	REC_START	n/a	n/a	6	-999	n/a	SHEET	n/a	n/a	1	[0, 0, 0]	-999	PAL1	2	R1232N
295.393	2.623	343327	REC_EVENT	1393	n/a	6	6	SQUARE	SHEET	SQUARE	SHEET	1	[0, 0, 0]	-999	PAL1	2	R1232N
298.016	1.0	345950	PROBE_OFF	n/a	n/a	6	-999	n/a	n/a	n/a	n/a	1	[0, 0, 0]	-999	PAL1	2	R1232N
299.016	0.01	346950	REC_END	n/a	n/a	6	-999	n/a	n/a	n/a	n/a	1	[0, 0, 0]	-999	PAL1	2	R1232N
299.026	4.391	346960	RECALL_END	n/a	n/a	-999	-999	n/a	n/a	n/a	n/a	1	[0, 0, 0]	-999	PAL1	2	R1232N
303.417	10.929	351351	TRIAL	n/a	n/a	-999	-999	n/a	n/a	n/a	n/a	2	[0, 0, 0]	-999	PAL1	2	R1232N
314.346	0.006	362279	ENCODING_START	n/a	n/a	-999	-999	n/a	n/a	n/a	n/a	2	[0, 0, 0]	-999	PAL1	2	R1232N
314.352	0.267	362285	STUDY_ORIENT	n/a	n/a	1	5	ROOT	SKY	ROOT	SKY	2	[0, 0, 0]	-999	PAL1	2	R1232N
314.619	0.567	362552	STUDY_ORIENT_OFF	n/a	n/a	1	5	ROOT	SKY	ROOT	SKY	2	[0, 0, 0]	-999	PAL1	2	R1232N
315.186	4.017	363119	STUDY_PAIR	n/a	wordpools/wordpool_EN.txt	1	5	ROOT	SKY	ROOT	SKY	2	[0, 0, 0]	-999	PAL1	2	R1232N
319.203	1.017	367136	PAIR_OFF	n/a	n/a	1	5	ROOT	SKY	ROOT	SKY	2	[0, 0, 0]	-999	PAL1	2	R1232N
320.22	0.267	368153	STUDY_ORIENT	n/a	n/a	2	2	NET	PALM	NET	PALM	2	[0, 0, 0]	-999	PAL1	2	R1232N
320.487	0.683	368420	STUDY_ORIENT_OFF	n/a	n/a	2	2	NET	PALM	NET	PALM	2	[0, 0, 0]	-999	PAL1	2	R1232N
321.17	4.017	369103	STUDY_PAIR	n/a	wordpools/wordpool_EN.txt	2	2	NET	PALM	NET	PALM	2	[0, 0, 0]	-999	PAL1	2	R1232N
325.187	1.017	373120	PAIR_OFF	n/a	n/a	2	2	NET	PALM	NET	PALM	2	[0, 0, 0]	-999	PAL1	2	R1232N
326.204	0.267	374137	STUDY_ORIENT	n/a	n/a	3	1	BAND	CAR	CAR	BAND	2	[0, 0, 0]	-999	PAL1	2	R1232N
326.471	0.583	374404	STUDY_ORIENT_OFF	n/a	n/a	3	1	BAND	CAR	CAR	BAND	2	[0, 0, 0]	-999	PAL1	2	R1232N
327.054	4.018	374987	STUDY_PAIR	n/a	wordpools/wordpool_EN.txt	3	1	BAND	CAR	CAR	BAND	2	[0, 0, 0]	-999	PAL1	2	R1232N
331.072	1.017	379005	PAIR_OFF	n/a	n/a	3	1	BAND	CAR	CAR	BAND	2	[0, 0, 0]	-999	PAL1	2	R1232N
332.089	0.266	380022	STUDY_ORIENT	n/a	n/a	4	4	MOUTH	n/a	MOUTH	CASH	2	[0, 0, 0]	-999	PAL1	2	R1232N
332.355	0.551	380288	STUDY_ORIENT_OFF	n/a	n/a	4	4	MOUTH	n/a	MOUTH	CASH	2	[0, 0, 0]	-999	PAL1	2	R1232N
332.906	4.018	380839	STUDY_PAIR	n/a	wordpools/wordpool_EN.txt	4	4	MOUTH	n/a	MOUTH	CASH	2	[0, 0, 0]	-999	PAL1	2	R1232N
336.924	1.017	384856	PAIR_OFF	n/a	n/a	4	4	MOUTH	n/a	MOUTH	CASH	2	[0, 0, 0]	-999	PAL1	2	R1232N
337.941	0.265	385873	STUDY_ORIENT	n/a	n/a	5	3	BANK	BOWL	BANK	BRUSH	2	[0, 0, 0]	-999	PAL1	2	R1232N
338.206	0.65	386138	STUDY_ORIENT_OFF	n/a	n/a	5	3	BANK	BOWL	BANK	BRUSH	2	[0, 0, 0]	-999	PAL1	2	R1232N
338.856	4.019	386788	STUDY_PAIR	n/a	wordpools/wordpool_EN.txt	5	3	BANK	BOWL	BANK	BRUSH	2	[0, 0, 0]	-999	PAL1	2	R1232N
342.875	1.017	390807	PAIR_OFF	n/a	n/a	5	3	BANK	BOWL	BANK	BRUSH	2	[0, 0, 0]	-999	PAL1	2	R1232N
343.892	0.265	391824	STUDY_ORIENT	n/a	n/a	6	6	CHIEF	BOARD	BOARD	CHIEF	2	[0, 0, 0]	-999	PAL1	2	R1232N
344.157	0.584	392089	STUDY_ORIENT_OFF	n/a	n/a	6	6	CHIEF	BOARD	BOARD	CHIEF	2	[0, 0, 0]	-999	PAL1	2	R1232N
344.741	4.017	392673	STUDY_PAIR	n/a	wordpools/wordpool_EN.txt	6	6	CHIEF	BOARD	BOARD	CHIEF	2	[0, 0, 0]	-999	PAL1	2	R1232N
348.758	1.001	396690	PAIR_OFF	n/a	n/a	6	6	CHIEF	BOARD	BOARD	CHIEF	2	[0, 0, 0]	-999	PAL1	2	R1232N
349.759	0.0	397691	ENCODING_END	n/a	n/a	-999	-999	n/a	n/a	n/a	n/a	2	[0, 0, 0]	-999	PAL1	2	R1232N
349.759	0.0	397691	MATH_START	n/a	n/a	-999	-999	n/a	n/a	n/a	n/a	2	[0, 0, 0]	-999	PAL1	2	R1232N
349.759	0.016	397691	START	n/a	n/a	-999	-999	n/a	n/a	n/a	n/a	2	[-999, -999, -999]	-999	PAL1	2	R1232N
349.775	2.35	397707	PROB	2320	n/a	-999	-999	n/a	n/a	n/a	n/a	2	[4, 2, 2]	8	PAL1	2	R1232N
352.125	1.951	400057	PROB	1913	n/a	-999	-999	n/a	n/a	n/a	n/a	2	[4, 9, 1]	14	PAL1	2	R1232N
354.076	2.717	402008	PROB	2682	n/a	-999	-999	n/a	n/a	n/a	n/a	2	[6, 9, 3]	18	PAL1	2	R1232N
356.793	1.95	404725	PROB	1917	n/a	-999	-999	n/a	n/a	n/a	n/a	2	[5, 8, 3]	16	PAL1	2	R1232N
358.743	2.734	406675	PROB	2703	n/a	-999	-999	n/a	n/a	n/a	n/a	2	[4, 2, 6]	12	PAL1	2	R1232N
361.477	3.184	409408	PROB	3154	n/a	-999	-999	n/a	n/a	n/a	n/a	2	[1, 7, 8]	16	PAL1	2	R1232N
364.661	2.067	412592	PROB	2042	n/a	-999	-999	n/a	n/a	n/a	n/a	2	[5, 4, 2]	11	PAL1	2	R1232N
366.728	3.039	414659	PROB	3039	n/a	-999	-999	n/a	n/a	n/a	n/a	2	[1, 8, 6]	15	PAL1	2	R1232N
369.767	0.011	417698	STOP	n/a	n/a	-999	-999	n/a	n/a	n/a	n/a	2	[-999, -999, -999]	-999	PAL1	2	R1232N
369.778	0.0	417709	MATH_END	n/a	n/a	-999	-999	n/a	n/a	n/a	n/a	2	[0, 0, 0]	-999	PAL1	2	R1232N
369.778	0.017	417709	RECALL_START	n/a	n/a	-999	-999	n/a	n/a	n/a	n/a	2	[0, 0, 0]	-999	PAL1	2	R1232N
369.795	0.266	417726	TEST_ORIENT	n/a	n/a	3	1	BAND	CAR	CAR	BAND	2	[0, 0, 0]	-999	PAL1	2	R1232N
370.061	0.551	417992	RETRIEVAL_ORIENT_OFF	n/a	n/a	-999	-999	n/a	n/a	n/a	n/a	2	[0, 0, 0]	-999	PAL1	2	R1232N
370.612	0.0	418543	TEST_PROBE	n/a	wordpools/wordpool_EN.txt	3	1	BAND	CAR	CAR	BAND	2	[0, 0, 0]	-999	PAL1	2	R1232N
370.612	0.956	418543	REC_START	n/a	n/a	3	-999	n/a	CAR	n/a	n/a	2	[0, 0, 0]	-999	PAL1	2	R1232N
371.568	3.061	419499	REC_EVENT	956	n/a	3	1	BAND	CAR	CAR	BAND	2	[0, 0, 0]	-999	PAL1	2	R1232N
374.629	1.0	422560	PROBE_OFF	n/a	n/a	3	-999	n/a	n/a	n/a	n/a	2	[0, 0, 0]	-999	PAL1	2	R1232N
375.629	0.017	423560	REC_END	n/a	n/a	3	-999	n/a	n/a	n/a	n/a	2	[0, 0, 0]	-999	PAL1	2	R1232N
375.646	0.268	423577	TEST_ORIENT	n/a	n/a	2	2	NET	PALM	NET	PALM	2	[0, 0, 0]	-999	PAL1	2	R1232N
375.914	0.715	423845	RETRIEVAL_ORIENT_OFF	n/a	n/a	3	-999	n/a	n/a	n/a	n/a	2	[0, 0, 0]	-999	PAL1	2	R1232N
376.629	0.001	424560	TEST_PROBE	n/a	wordpools/wordpool_EN.txt	2	2	NET	PALM	NET	PALM	2	[0, 0, 0]	-999	PAL1	2	R1232N
376.63	2.44	424561	REC_START	n/a	n/a	2	-999	n/a	PALM	n/a	n/a	2	[0, 0, 0]	-999	PAL1	2	R1232N
379.07	1.577	427001	REC_EVENT	2440	n/a	2	2	NET	PALM	NET	PALM	2	[0, 0, 0]	-999	PAL1	2	R1232N
380.647	1.0	428578	PROBE_OFF	n/a	n/a	2	-999	n/a	n/a	n/a	n/a	2	[0, 0, 0]	-999	PAL1	2	R1232N
381.647	0.017	429578	REC_END	n/a	n/a	2	-999	n/a	n/a	n/a	n/a	2	[0, 0, 0]	-999	PAL1	2	R1232N
381.664	0.267	429595	TEST_ORIENT	n/a	n/a	5	3	BANK	BOWL	BANK	BRUSH	2	[0, 0, 0]	-999	PAL1	2	R1232N
381.931	0.666	429862	RETRIEVAL_ORIENT_OFF	n/a	n/a	2	-999	n/a	n/a	n/a	n/a	2	[0, 0, 0]	-999	PAL1	2	R1232N
382.597	0.001	430528	TEST_PROBE	n/a	wordpools/wordpool_EN.txt	5	3	BANK	BOWL	BANK	BRUSH	2	[0, 0, 0]	-999	PAL1	2	R1232N
382.598	4.016	430529	REC_START	n/a	n/a	5	-999	n/a	BOWL	n/a	n/a	2	[0, 0, 0]	-999	PAL1	2	R1232N
386.614	0.451	434544	PROBE_OFF	n/a	n/a	5	-999	n/a	n/a	n/a	n/a	2	[0, 0, 0]	-999	PAL1	2	R1232N
387.065	0.549	434995	REC_EVENT	4467	n/a	5	3	BANK	BOWL	BANK	BRUSH	2	[0, 0, 0]	-999	PAL1	2	R1232N
387.614	0.017	435544	REC_END	n/a	n/a	5	-999	n/a	n/a	n/a	n/a	2	[0, 0, 0]	-999	PAL1	2	R1232N
387.631	0.268	435561	TEST_ORIENT	n/a	n/a	4	4	MOUTH	n/a	MOUTH	CASH	2	[0, 0, 0]	-999	PAL1	2	R1232N
387.899	0.749	435829	RETRIEVAL_ORIENT_OFF	n/a	n/a	5	-999	n/a	n/a	n/a	n/a	2	[0, 0, 0]	-999	PAL1	2	R1232N
388.648	0.0	436578	TEST_PROBE	n/a	wordpools/wordpool_EN.txt	4	4	MOUTH	n/a	MOUTH	CASH	2	[0, 0, 0]	-999	PAL1	2	R1232N
388.648	4.017	436578	REC_START	n/a	n/a	4	-999	n/a	n/a	n/a	n/a	2	[0, 0, 0]	-999	PAL1	2	R1232N
392.665	0.835	440595	PROBE_OFF	n/a	n/a	4	-999	n/a	n/a	n/a	n/a	2	[0, 0, 0]	-999	PAL1	2	R1232N
393.5	0.165	441430	REC_EVENT	4852	n/a	4	4	MOUTH	<>	MOUTH	CASH	2	[0, 0, 0]	-999	PAL1	2	R1232N
393.665	0.017	441595	REC_END	n/a	n/a	4	-999	n/a	n/a	n/a	n/a	2	[0, 0, 0]	-999	PAL1	2	R1232N
393.682	0.268	441612	TEST_ORIENT	n/a	n/a	1	5	ROOT	SKY	ROOT	SKY	2	[0, 0, 0]	-999	PAL1	2	R1232N
393.95	0.632	441880	RETRIEVAL_ORIENT_OFF	n/a	n/a	4	-999	n/a	n/a	n/a	n/a	2	[0, 0, 0]	-999	PAL1	2	R1232N
394.582	0.001	442512	TEST_PROBE	n/a	wordpools/wordpool_EN.txt	1	5	ROOT	SKY	ROOT	SKY	2	[0, 0, 0]	-999	PAL1	2	R1232N
394.583	0.966	442513	REC_START	n/a	n/a	1	-999	n/a	SKY	n/a	n/a	2	[0, 0, 0]	-999	PAL1	2	R1232N
395.549	3.051	443479	REC_EVENT	966	n/a	1	5	ROOT	SKY	ROOT	SKY	2	[0, 0, 0]	-999	PAL1	2	R1232N
398.6	1.0	446530	PROBE_OFF	n/a	n/a	1	-999	n/a	n/a	n/a	n/a	2	[0, 0, 0]	-999	PAL1	2	R1232N
399.6	0.016	447530	REC_END	n/a	n/a	1	-999	n/a	n/a	n/a	n/a	2	[0, 0, 0]	-999	PAL1	2	R1232N
399.616	0.268	447546	TEST_ORIENT	n/a	n/a	6	6	CHIEF	BOARD	BOARD	CHIEF	2	[0, 0, 0]	-999	PAL1	2	R1232N
399.884	0.766	447814	RETRIEVAL_ORIENT_OFF	n/a	n/a	1	-999	n/a	n/a	n/a	n/a	2	[0, 0, 0]	-999	PAL1	2	R1232N
400.65	0.0	448580	TEST_PROBE	n/a	wordpools/wordpool_EN.txt	6	6	CHIEF	BOARD	BOARD	CHIEF	2	[0, 0, 0]	-999	PAL1	2	R1232N
400.65	1.443	448580	REC_START	n/a	n/a	6	-999	n/a	BOARD	n/a	n/a	2	[0, 0, 0]	-999	PAL1	2	R1232N
402.093	2.574	450023	REC_EVENT	1443	n/a	6	6	CHIEF	BOARD	BOARD	CHIEF	2	[0, 0, 0]	-999	PAL1	2	R1232N
404.667	1.001	452597	PROBE_OFF	n/a	n/a	6	-999	n/a	n/a	n/a	n/a	2	[0, 0, 0]	-999	PAL1	2	R1232N
405.668	0.01	453598	REC_END	n/a	n/a	6	-999	n/a	n/a	n/a	n/a	2	[0, 0, 0]	-999	PAL1	2	R1232N
405.678	4.323	453608	RECALL_END	n/a	n/a	-999	-999	n/a	n/a	n/a	n/a	2	[0, 0, 0]	-999	PAL1	2	R1232N
410.001	10.929	457930	TRIAL	n/a	n/a	-999	-999	n/a	n/a	n/a	n/a	3	[0, 0, 0]	-999	PAL1	2	R1232N
420.93	0.008	468859	ENCODING_START	n/a	n/a	-999	-999	n/a	n/a	n/a	n/a	3	[0, 0, 0]	-999	PAL1	2	R1232N
420.938	0.265	468867	STUDY_ORIENT	n/a	n/a	1	3	COUCH	n/a	COUCH	JAR	3	[0, 0, 0]	-999	PAL1	2	R1232N
421.203	0.768	469132	STUDY_ORIENT_OFF	n/a	n/a	1	3	COUCH	n/a	COUCH	JAR	3	[0, 0, 0]	-999	PAL1	2	R1232N
421.971	4.016	469900	STUDY_PAIR	n/a	wordpools/wordpool_EN.txt	1	3	COUCH	n/a	COUCH	JAR	3	[0, 0, 0]	-999	PAL1	2	R1232N
425.987	1.017	473916	PAIR_OFF	n/a	n/a	1	3	COUCH	n/a	COUCH	JAR	3	[0, 0, 0]	-999	PAL1	2	R1232N
427.004	0.267	474933	STUDY_ORIENT	n/a	n/a	2	4	DOLL	SPEAR	SPEAR	DOLL	3	[0, 0, 0]	-999	PAL1	2	R1232N
427.271	0.55	475200	STUDY_ORIENT_OFF	n/a	n/a	2	4	DOLL	SPEAR	SPEAR	DOLL	3	[0, 0, 0]	-999	PAL1	2	R1232N
427.821	4.017	475750	STUDY_PAIR	n/a	wordpools/wordpool_EN.txt	2	4	DOLL	SPEAR	SPEAR	DOLL	3	[0, 0, 0]	-999	PAL1	2	R1232N
431.838	1.017	479767	PAIR_OFF	n/a	n/a	2	4	DOLL	SPEAR	SPEAR	DOLL	3	[0, 0, 0]	-999	PAL1	2	R1232N
432.855	0.267	480784	STUDY_ORIENT	n/a	n/a	3	1	STOOL	GEESE	GEESE	STOOL	3	[0, 0, 0]	-999	PAL1	2	R1232N
433.122	0.768	481051	STUDY_ORIENT_OFF	n/a	n/a	3	1	STOOL	GEESE	GEESE	STOOL	3	[0, 0, 0]	-999	PAL1	2	R1232N
433.89	4.017	481819	STUDY_PAIR	n/a	wordpools/wordpool_EN.txt	3	1	STOOL	GEESE	GEESE	STOOL	3	[0, 0, 0]	-999	PAL1	2	R1232N
437.907	1.017	485835	PAIR_OFF	n/a	n/a	3	1	STOOL	GEESE	GEESE	STOOL	3	[0, 0, 0]	-999	PAL1	2	R1232N
438.924	0.266	486852	STUDY_ORIENT	n/a	n/a	4	2	CRANE	KITE	KITE	CRANE	3	[0, 0, 0]	-999	PAL1	2	R1232N
439.19	0.734	487118	STUDY_ORIENT_OFF	n/a	n/a	4	2	CRANE	KITE	KITE	CRANE	3	[0, 0, 0]	-999	PAL1	2	R1232N
439.924	4.017	487852	STUDY_PAIR	n/a	wordpools/wordpool_EN.txt	4	2	CRANE	KITE	KITE	CRANE	3	[0, 0, 0]	-999	PAL1	2	R1232N
443.941	1.017	491869	PAIR_OFF	n/a	n/a	4	2	CRANE	KITE	KITE	CRANE	3	[0, 0, 0]	-999	PAL1	2	R1232N
444.958	0.266	492886	STUDY_ORIENT	n/a	n/a	5	5	CHALK	COUCH	AXE	CHALK	3	[0, 0, 0]	-999	PAL1	2	R1232N
445.224	0.55	493152	STUDY_ORIENT_OFF	n/a	n/a	5	5	CHALK	COUCH	AXE	CHALK	3	[0, 0, 0]	-999	PAL1	2	R1232N
445.774	4.017	493702	STUDY_PAIR	n/a	wordpools/wordpool_EN.txt	5	5	CHALK	COUCH	AXE	CHALK	3	[0, 0, 0]	-999	PAL1	2	R1232N
449.791	1.017	497719	PAIR_OFF	n/a	n/a	5	5	CHALK	COUCH	AXE	CHALK	3	[0, 0, 0]	-999	PAL1	2	R1232N
450.808	0.267	498736	STUDY_ORIENT	n/a	n/a	6	6	CAVE	PHONE	PHONE	CAVE	3	[0, 0, 0]	-999	PAL1	2	R1232N
451.075	0.55	499003	STUDY_ORIENT_OFF	n/a	n/a	6	6	CAVE	PHONE	PHONE	CAVE	3	[0, 0, 0]	-999	PAL1	2	R1232N
451.625	4.017	499553	STUDY_PAIR	n/a	wordpools/wordpool_EN.txt	6	6	CAVE	PHONE	PHONE	CAVE	3	[0, 0, 0]	-999	PAL1	2	R1232N
455.642	1.0	503570	PAIR_OFF	n/a	n/a	6	6	CAVE	PHONE	PHONE	CAVE	3	[0, 0, 0]	-999	PAL1	2	R1232N
456.642	0.0	504570	MATH_START	n/a	n/a	-999	-999	n/a	n/a	n/a	n/a	3	[0, 0, 0]	-999	PAL1	2	R1232N
456.642	0.0	504570	ENCODING_END	n/a	n/a	-999	-999	n/a	n/a	n/a	n/a	3	[0, 0, 0]	-999	PAL1	2	R1232N
456.642	0.017	504570	START	n/a	n/a	-999	-999	n/a	n/a	n/a	n/a	3	[-999, -999, -999]	-999	PAL1	2	R1232N
456.659	2.901	504587	PROB	2868	n/a	-999	-999	n/a	n/a	n/a	n/a	3	[7, 8, 8]	23	PAL1	2	R1232N
459.56	2.6	507487	PROB	2575	n/a	-999	-999	n/a	n/a	n/a	n/a	3	[3, 2, 2]	7	PAL1	2	R1232N
462.16	1.917	510087	PROB	1895	n/a	-999	-999	n/a	n/a	n/a	n/a	3	[6, 8, 3]	17	PAL1	2	R1232N
464.077	1.75	512004	PROB	1721	n/a	-999	-999	n/a	n/a	n/a	n/a	3	[1, 7, 3]	11	PAL1	2	R1232N
465.827	2.017	513754	PROB	1988	n/a	-999	-999	n/a	n/a	n/a	n/a	3	[1, 1, 8]	10	PAL1	2	R1232N
467.844	2.484	515771	PROB	2458	n/a	-999	-999	n/a	n/a	n/a	n/a	3	[6, 9, 4]	19	PAL1	2	R1232N
470.328	1.9	518255	PROB	1878	n/a	-999	-999	n/a	n/a	n/a	n/a	3	[4, 1, 2]	7	PAL1	2	R1232N
472.228	2.434	520155	PROB	2411	n/a	-999	-999	n/a	n/a	n/a	n/a	3	[3, 3, 5]	11	PAL1	2	R1232N
474.662	1.834	522589	PROB	1808	n/a	-999	-999	n/a	n/a	n/a	n/a	3	[5, 7, 2]	14	PAL1	2	R1232N
476.496	1.534	524423	PROB	1534	n/a	-999	-999	n/a	n/a	n/a	n/a	3	[4, 4, 2]	8	PAL1	2	R1232N
478.03	0.016	525957	STOP	n/a	n/a	-999	-999	n/a	n/a	n/a	n/a	3	[-999, -999, -999]	-999	PAL1	2	R1232N
478.046	0.0	525973	MATH_END	n/a	n/a	-999	-999	n/a	n/a	n/a	n/a	3	[0, 0, 0]	-999	PAL1	2	R1232N
478.046	0.017	525973	RECALL_START	n/a	n/a	-999	-999	n/a	n/a	n/a	n/a	3	[0, 0, 0]	-999	PAL1	2	R1232N
478.063	0.266	525990	TEST_ORIENT	n/a	n/a	3	1	STOOL	GEESE	GEESE	STOOL	3	[0, 0, 0]	-999	PAL1	2	R1232N
478.329	0.618	526256	RETRIEVAL_ORIENT_OFF	n/a	n/a	-999	-999	n/a	n/a	n/a	n/a	3	[0, 0, 0]	-999	PAL1	2	R1232N
478.947	0.001	526874	TEST_PROBE	n/a	wordpools/wordpool_EN.txt	3	1	STOOL	GEESE	GEESE	STOOL	3	[0, 0, 0]	-999	PAL1	2	R1232N
478.948	0.0	526875	REC_START	n/a	n/a	3	-999	n/a	GEESE	n/a	n/a	3	[0, 0, 0]	-999	PAL1	2	R1232N
478.948	4.016	526875	REC_EVENT	0	n/a	3	1	STOOL	<>	GEESE	STOOL	3	[0, 0, 0]	-999	PAL1	2	R1232N
482.964	0.32	530891	PROBE_OFF	n/a	n/a	3	-999	n/a	n/a	n/a	n/a	3	[0, 0, 0]	-999	PAL1	2	R1232N
483.284	0.68	531210	REC_EVENT	4336	n/a	3	1	STOOL	GEESE	GEESE	STOOL	3	[0, 0, 0]	-999	PAL1	2	R1232N
483.964	0.016	531890	REC_END	n/a	n/a	3	-999	n/a	n/a	n/a	n/a	3	[0, 0, 0]	-999	PAL1	2	R1232N
483.98	0.267	531906	TEST_ORIENT	n/a	n/a	4	2	CRANE	KITE	KITE	CRANE	3	[0, 0, 0]	-999	PAL1	2	R1232N
484.247	0.718	532173	RETRIEVAL_ORIENT_OFF	n/a	n/a	3	-999	n/a	n/a	n/a	n/a	3	[0, 0, 0]	-999	PAL1	2	R1232N
484.965	0.0	532891	TEST_PROBE	n/a	wordpools/wordpool_EN.txt	4	2	CRANE	KITE	KITE	CRANE	3	[0, 0, 0]	-999	PAL1	2	R1232N
484.965	1.189	532891	REC_START	n/a	n/a	4	-999	n/a	KITE	n/a	n/a	3	[0, 0, 0]	-999	PAL1	2	R1232N
486.154	2.827	534080	REC_EVENT	1189	n/a	4	2	CRANE	KITE	KITE	CRANE	3	[0, 0, 0]	-999	PAL1	2	R1232N
488.981	1.0	536907	PROBE_OFF	n/a	n/a	4	-999	n/a	n/a	n/a	n/a	3	[0, 0, 0]	-999	PAL1	2	R1232N
489.981	0.017	537907	REC_END	n/a	n/a	4	-999	n/a	n/a	n/a	n/a	3	[0, 0, 0]	-999	PAL1	2	R1232N
489.998	0.267	537924	TEST_ORIENT	n/a	n/a	1	3	COUCH	n/a	COUCH	JAR	3	[0, 0, 0]	-999	PAL1	2	R1232N
490.265	0.651	538191	RETRIEVAL_ORIENT_OFF	n/a	n/a	4	-999	n/a	n/a	n/a	n/a	3	[0, 0, 0]	-999	PAL1	2	R1232N
490.916	0.001	538842	TEST_PROBE	n/a	wordpools/wordpool_EN.txt	1	3	COUCH	n/a	COUCH	JAR	3	[0, 0, 0]	-999	PAL1	2	R1232N
490.917	4.016	538843	REC_START	n/a	n/a	1	-999	n/a	n/a	n/a	n/a	3	[0, 0, 0]	-999	PAL1	2	R1232N
494.933	0.744	542859	PROBE_OFF	n/a	n/a	1	-999	n/a	n/a	n/a	n/a	3	[0, 0, 0]	-999	PAL1	2	R1232N
495.677	0.256	543603	REC_EVENT	4760	n/a	1	3	COUCH	<>	COUCH	JAR	3	[0, 0, 0]	-999	PAL1	2	R1232N
495.933	0.017	543859	REC_END	n/a	n/a	1	-999	n/a	n/a	n/a	n/a	3	[0, 0, 0]	-999	PAL1	2	R1232N
495.95	0.266	543876	TEST_ORIENT	n/a	n/a	2	4	DOLL	SPEAR	SPEAR	DOLL	3	[0, 0, 0]	-999	PAL1	2	R1232N
496.216	0.55	544142	RETRIEVAL_ORIENT_OFF	n/a	n/a	1	-999	n/a	n/a	n/a	n/a	3	[0, 0, 0]	-999	PAL1	2	R1232N
496.766	0.0	544692	TEST_PROBE	n/a	wordpools/wordpool_EN.txt	2	4	DOLL	SPEAR	SPEAR	DOLL	3	[0, 0, 0]	-999	PAL1	2	R1232N
496.766	1.5	544692	REC_START	n/a	n/a	2	-999	n/a	SPEAR	n/a	n/a	3	[0, 0, 0]	-999	PAL1	2	R1232N
498.266	2.517	546192	REC_EVENT	1500	n/a	2	4	DOLL	SPEAR	SPEAR	DOLL	3	[0, 0, 0]	-999	PAL1	2	R1232N
500.783	1.0	548709	PROBE_OFF	n/a	n/a	2	-999	n/a	n/a	n/a	n/a	3	[0, 0, 0]	-999	PAL1	2	R1232N
501.783	0.017	549709	REC_END	n/a	n/a	2	-999	n/a	n/a	n/a	n/a	3	[0, 0, 0]	-999	PAL1	2	R1232N
501.8	0.267	549726	TEST_ORIENT	n/a	n/a	5	5	CHALK	COUCH	AXE	CHALK	3	[0, 0, 0]	-999	PAL1	2	R1232N
502.067	0.566	549993	RETRIEVAL_ORIENT_OFF	n/a	n/a	2	-999	n/a	n/a	n/a	n/a	3	[0, 0, 0]	-999	PAL1	2	R1232N
502.633	0.001	550559	TEST_PROBE	n/a	wordpools/wordpool_EN.txt	5	5	CHALK	COUCH	AXE	CHALK	3	[0, 0, 0]	-999	PAL1	2	R1232N
502.634	1.955	550560	REC_START	n/a	n/a	5	-999	n/a	COUCH	n/a	n/a	3	[0, 0, 0]	-999	PAL1	2	R1232N
504.589	2.062	552515	REC_EVENT	1955	n/a	5	5	CHALK	COUCH	AXE	CHALK	3	[0, 0, 0]	-999	PAL1	2	R1232N
506.651	1.01	554577	PROBE_OFF	n/a	n/a	5	-999	n/a	n/a	n/a	n/a	3	[0, 0, 0]	-999	PAL1	2	R1232N
507.661	0.006	555587	REC_END	n/a	n/a	5	-999	n/a	n/a	n/a	n/a	3	[0, 0, 0]	-999	PAL1	2	R1232N
507.667	0.251	555593	TEST_ORIENT	n/a	n/a	6	6	CAVE	PHONE	PHONE	CAVE	3	[0, 0, 0]	-999	PAL1	2	R1232N
507.918	0.617	555843	RETRIEVAL_ORIENT_OFF	n/a	n/a	5	-999	n/a	n/a	n/a	n/a	3	[0, 0, 0]	-999	PAL1	2	R1232N
508.535	0.0	556460	TEST_PROBE	n/a	wordpools/wordpool_EN.txt	6	6	CAVE	PHONE	PHONE	CAVE	3	[0, 0, 0]	-999	PAL1	2	R1232N
508.535	1.313	556460	REC_START	n/a	n/a	6	-999	n/a	PHONE	n/a	n/a	3	[0, 0, 0]	-999	PAL1	2	R1232N
509.848	2.704	557773	REC_EVENT	1313	n/a	6	6	CAVE	PHONE	PHONE	CAVE	3	[0, 0, 0]	-999	PAL1	2	R1232N
512.552	1.0	560477	PROBE_OFF	n/a	n/a	6	-999	n/a	n/a	n/a	n/a	3	[0, 0, 0]	-999	PAL1	2	R1232N
513.552	0.005	561477	REC_END	n/a	n/a	6	-999	n/a	n/a	n/a	n/a	3	[0, 0, 0]	-999	PAL1	2	R1232N
513.557	5.112	561482	RECALL_END	n/a	n/a	-999	-999	n/a	n/a	n/a	n/a	3	[0, 0, 0]	-999	PAL1	2	R1232N
518.669	10.929	566594	TRIAL	n/a	n/a	-999	-999	n/a	n/a	n/a	n/a	4	[0, 0, 0]	-999	PAL1	2	R1232N
529.598	0.006	577523	ENCODING_START	n/a	n/a	-999	-999	n/a	n/a	n/a	n/a	4	[0, 0, 0]	-999	PAL1	2	R1232N
529.604	0.268	577529	STUDY_ORIENT	n/a	n/a	1	1	COW	CHARM	COW	LAMP	4	[0, 0, 0]	-999	PAL1	2	R1232N
529.872	0.549	577797	STUDY_ORIENT_OFF	n/a	n/a	1	1	COW	CHARM	COW	LAMP	4	[0, 0, 0]	-999	PAL1	2	R1232N
530.421	4.018	578346	STUDY_PAIR	n/a	wordpools/wordpool_EN.txt	1	1	COW	CHARM	COW	LAMP	4	[0, 0, 0]	-999	PAL1	2	R1232N
534.439	1.017	582363	PAIR_OFF	n/a	n/a	1	1	COW	CHARM	COW	LAMP	4	[0, 0, 0]	-999	PAL1	2	R1232N
535.456	0.266	583380	STUDY_ORIENT	n/a	n/a	2	6	WORM	WHALE	WHALE	WORM	4	[0, 0, 0]	-999	PAL1	2	R1232N
535.722	0.65	583646	STUDY_ORIENT_OFF	n/a	n/a	2	6	WORM	WHALE	WHALE	WORM	4	[0, 0, 0]	-999	PAL1	2	R1232N
536.372	4.018	584296	STUDY_PAIR	n/a	wordpools/wordpool_EN.txt	2	6	WORM	WHALE	WHALE	WORM	4	[0, 0, 0]	-999	PAL1	2	R1232N
540.39	1.016	588314	PAIR_OFF	n/a	n/a	2	6	WORM	WHALE	WHALE	WORM	4	[0, 0, 0]	-999	PAL1	2	R1232N
541.406	0.267	589330	STUDY_ORIENT	n/a	n/a	3	5	DEER	n/a	DEER	SMILE	4	[0, 0, 0]	-999	PAL1	2	R1232N
541.673	0.667	589597	STUDY_ORIENT_OFF	n/a	n/a	3	5	DEER	n/a	DEER	SMILE	4	[0, 0, 0]	-999	PAL1	2	R1232N
542.34	4.017	590264	STUDY_PAIR	n/a	wordpools/wordpool_EN.txt	3	5	DEER	n/a	DEER	SMILE	4	[0, 0, 0]	-999	PAL1	2	R1232N
546.357	1.017	594281	PAIR_OFF	n/a	n/a	3	5	DEER	n/a	DEER	SMILE	4	[0, 0, 0]	-999	PAL1	2	R1232N
547.374	0.267	595298	STUDY_ORIENT	n/a	n/a	4	4	TEA	BOWL	BOWL	TEA	4	[0, 0, 0]	-999	PAL1	2	R1232N
547.641	0.767	595565	STUDY_ORIENT_OFF	n/a	n/a	4	4	TEA	BOWL	BOWL	TEA	4	[0, 0, 0]	-999	PAL1	2	R1232N
548.408	4.017	596332	STUDY_PAIR	n/a	wordpools/wordpool_EN.txt	4	4	TEA	BOWL	BOWL	TEA	4	[0, 0, 0]	-999	PAL1	2	R1232N
552.425	1.017	600349	PAIR_OFF	n/a	n/a	4	4	TEA	BOWL	BOWL	TEA	4	[0, 0, 0]	-999	PAL1	2	R1232N
553.442	0.267	601366	STUDY_ORIENT	n/a	n/a	5	3	DESK	STOOL	DESK	ZOO	4	[0, 0, 0]	-999	PAL1	2	R1232N
553.709	0.516	601633	STUDY_ORIENT_OFF	n/a	n/a	5	3	DESK	STOOL	DESK	ZOO	4	[0, 0, 0]	-999	PAL1	2	R1232N
554.225	4.018	602149	STUDY_PAIR	n/a	wordpools/wordpool_EN.txt	5	3	DESK	STOOL	DESK	ZOO	4	[0, 0, 0]	-999	PAL1	2	R1232N
558.243	1.017	606166	PAIR_OFF	n/a	n/a	5	3	DESK	STOOL	DESK	ZOO	4	[0, 0, 0]	-999	PAL1	2	R1232N
559.26	0.266	607183	STUDY_ORIENT	n/a	n/a	6	2	WING	DOLL	TOOL	WING	4	[0, 0, 0]	-999	PAL1	2	R1232N
559.526	0.567	607449	STUDY_ORIENT_OFF	n/a	n/a	6	2	WING	DOLL	TOOL	WING	4	[0, 0, 0]	-999	PAL1	2	R1232N
560.093	4.017	608016	STUDY_PAIR	n/a	wordpools/wordpool_EN.txt	6	2	WING	DOLL	TOOL	WING	4	[0, 0, 0]	-999	PAL1	2	R1232N
564.11	1.0	612033	PAIR_OFF	n/a	n/a	6	2	WING	DOLL	TOOL	WING	4	[0, 0, 0]	-999	PAL1	2	R1232N
565.11	0.0	613033	ENCODING_END	n/a	n/a	-999	-999	n/a	n/a	n/a	n/a	4	[0, 0, 0]	-999	PAL1	2	R1232N
565.11	0.0	613033	MATH_START	n/a	n/a	-999	-999	n/a	n/a	n/a	n/a	4	[0, 0, 0]	-999	PAL1	2	R1232N
565.11	0.017	613033	START	n/a	n/a	-999	-999	n/a	n/a	n/a	n/a	4	[-999, -999, -999]	-999	PAL1	2	R1232N
565.127	2.951	613050	PROB	2920	n/a	-999	-999	n/a	n/a	n/a	n/a	4	[8, 2, 8]	18	PAL1	2	R1232N
568.078	2.267	616001	PROB	2241	n/a	-999	-999	n/a	n/a	n/a	n/a	4	[8, 3, 6]	17	PAL1	2	R1232N
570.345	3.383	618268	PROB	3350	n/a	-999	-999	n/a	n/a	n/a	n/a	4	[5, 6, 8]	19	PAL1	2	R1232N
573.728	2.368	621651	PROB	2342	n/a	-999	-999	n/a	n/a	n/a	n/a	4	[9, 6, 7]	22	PAL1	2	R1232N
576.096	1.533	624019	PROB	1510	n/a	-999	-999	n/a	n/a	n/a	n/a	4	[4, 3, 4]	11	PAL1	2	R1232N
577.629	2.567	625552	PROB	2537	n/a	-999	-999	n/a	n/a	n/a	n/a	4	[9, 6, 8]	19	PAL1	2	R1232N
580.196	2.735	628119	PROB	2699	n/a	-999	-999	n/a	n/a	n/a	n/a	4	[2, 3, 5]	10	PAL1	2	R1232N
582.931	2.163	630853	PROB	2163	n/a	-999	-999	n/a	n/a	n/a	n/a	4	[3, 1, 7]	11	PAL1	2	R1232N
585.094	0.02	633016	STOP	n/a	n/a	-999	-999	n/a	n/a	n/a	n/a	4	[-999, -999, -999]	-999	PAL1	2	R1232N
585.114	0.0	633036	RECALL_START	n/a	n/a	-999	-999	n/a	n/a	n/a	n/a	4	[0, 0, 0]	-999	PAL1	2	R1232N
585.114	0.016	633036	MATH_END	n/a	n/a	-999	-999	n/a	n/a	n/a	n/a	4	[0, 0, 0]	-999	PAL1	2	R1232N
585.13	0.267	633052	TEST_ORIENT	n/a	n/a	1	1	COW	CHARM	COW	LAMP	4	[0, 0, 0]	-999	PAL1	2	R1232N
585.397	0.6	633319	RETRIEVAL_ORIENT_OFF	n/a	n/a	-999	-999	n/a	n/a	n/a	n/a	4	[0, 0, 0]	-999	PAL1	2	R1232N
585.997	0.001	633919	TEST_PROBE	n/a	wordpools/wordpool_EN.txt	1	1	COW	CHARM	COW	LAMP	4	[0, 0, 0]	-999	PAL1	2	R1232N
585.998	3.362	633920	REC_START	n/a	n/a	1	-999	n/a	CHARM	n/a	n/a	4	[0, 0, 0]	-999	PAL1	2	R1232N
589.36	0.655	637282	REC_EVENT	3362	n/a	1	1	COW	CHARM	COW	LAMP	4	[0, 0, 0]	-999	PAL1	2	R1232N
590.015	1.01	637937	PROBE_OFF	n/a	n/a	1	-999	n/a	n/a	n/a	n/a	4	[0, 0, 0]	-999	PAL1	2	R1232N
591.025	0.023	638947	REC_END	n/a	n/a	1	-999	n/a	n/a	n/a	n/a	4	[0, 0, 0]	-999	PAL1	2	R1232N
591.048	0.267	638970	TEST_ORIENT	n/a	n/a	6	2	WING	DOLL	TOOL	WING	4	[0, 0, 0]	-999	PAL1	2	R1232N
591.315	0.634	639237	RETRIEVAL_ORIENT_OFF	n/a	n/a	1	-999	n/a	n/a	n/a	n/a	4	[0, 0, 0]	-999	PAL1	2	R1232N
591.949	0.001	639871	TEST_PROBE	n/a	wordpools/wordpool_EN.txt	6	2	WING	DOLL	TOOL	WING	4	[0, 0, 0]	-999	PAL1	2	R1232N
591.95	1.311	639872	REC_START	n/a	n/a	6	-999	n/a	DOLL	n/a	n/a	4	[0, 0, 0]	-999	PAL1	2	R1232N
593.261	2.706	641183	REC_EVENT	1311	n/a	6	2	WING	DOLL	TOOL	WING	4	[0, 0, 0]	-999	PAL1	2	R1232N
595.967	1.0	643889	PROBE_OFF	n/a	n/a	6	-999	n/a	n/a	n/a	n/a	4	[0, 0, 0]	-999	PAL1	2	R1232N
596.967	0.015	644889	REC_END	n/a	n/a	6	-999	n/a	n/a	n/a	n/a	4	[0, 0, 0]	-999	PAL1	2	R1232N
596.982	0.267	644904	TEST_ORIENT	n/a	n/a	5	3	DESK	STOOL	DESK	ZOO	4	[0, 0, 0]	-999	PAL1	2	R1232N
597.249	0.635	645171	RETRIEVAL_ORIENT_OFF	n/a	n/a	6	-999	n/a	n/a	n/a	n/a	4	[0, 0, 0]	-999	PAL1	2	R1232N
597.884	0.0	645806	TEST_PROBE	n/a	wordpools/wordpool_EN.txt	5	3	DESK	STOOL	DESK	ZOO	4	[0, 0, 0]	-999	PAL1	2	R1232N
597.884	1.322	645806	REC_START	n/a	n/a	5	-999	n/a	STOOL	n/a	n/a	4	[0, 0, 0]	-999	PAL1	2	R1232N
599.206	2.695	647128	REC_EVENT	1322	n/a	5	3	DESK	STOOL	DESK	ZOO	4	[0, 0, 0]	-999	PAL1	2	R1232N
601.901	1.001	649823	PROBE_OFF	n/a	n/a	5	-999	n/a	n/a	n/a	n/a	4	[0, 0, 0]	-999	PAL1	2	R1232N
602.902	0.016	650824	REC_END	n/a	n/a	5	-999	n/a	n/a	n/a	n/a	4	[0, 0, 0]	-999	PAL1	2	R1232N
602.918	0.265	650840	TEST_ORIENT	n/a	n/a	4	4	TEA	BOWL	BOWL	TEA	4	[0, 0, 0]	-999	PAL1	2	R1232N
603.183	0.617	651105	RETRIEVAL_ORIENT_OFF	n/a	n/a	5	-999	n/a	n/a	n/a	n/a	4	[0, 0, 0]	-999	PAL1	2	R1232N
603.8	0.001	651722	TEST_PROBE	n/a	wordpools/wordpool_EN.txt	4	4	TEA	BOWL	BOWL	TEA	4	[0, 0, 0]	-999	PAL1	2	R1232N
603.801	1.867	651723	REC_START	n/a	n/a	4	-999	n/a	BOWL	n/a	n/a	4	[0, 0, 0]	-999	PAL1	2	R1232N
605.668	2.15	653590	REC_EVENT	1867	n/a	4	4	TEA	BOWL	BOWL	TEA	4	[0, 0, 0]	-999	PAL1	2	R1232N
607.818	1.0	655739	PROBE_OFF	n/a	n/a	4	-999	n/a	n/a	n/a	n/a	4	[0, 0, 0]	-999	PAL1	2	R1232N
608.818	0.016	656739	REC_END	n/a	n/a	4	-999	n/a	n/a	n/a	n/a	4	[0, 0, 0]	-999	PAL1	2	R1232N
608.834	0.267	656755	TEST_ORIENT	n/a	n/a	3	5	DEER	n/a	DEER	SMILE	4	[0, 0, 0]	-999	PAL1	2	R1232N
609.101	0.733	657022	RETRIEVAL_ORIENT_OFF	n/a	n/a	4	-999	n/a	n/a	n/a	n/a	4	[0, 0, 0]	-999	PAL1	2	R1232N
609.834	0.001	657755	TEST_PROBE	n/a	wordpools/wordpool_EN.txt	3	5	DEER	n/a	DEER	SMILE	4	[0, 0, 0]	-999	PAL1	2	R1232N
609.835	4.017	657756	REC_START	n/a	n/a	3	-999	n/a	n/a	n/a	n/a	4	[0, 0, 0]	-999	PAL1	2	R1232N
613.852	0.835	661773	PROBE_OFF	n/a	n/a	3	-999	n/a	n/a	n/a	n/a	4	[0, 0, 0]	-999	PAL1	2	R1232N
614.687	0.165	662608	REC_EVENT	4852	n/a	3	5	DEER	<>	DEER	SMILE	4	[0, 0, 0]	-999	PAL1	2	R1232N
614.852	0.018	662773	REC_END	n/a	n/a	3	-999	n/a	n/a	n/a	n/a	4	[0, 0, 0]	-999	PAL1	2	R1232N
614.87	0.265	662791	TEST_ORIENT	n/a	n/a	2	6	WORM	WHALE	WHALE	WORM	4	[0, 0, 0]	-999	PAL1	2	R1232N
615.135	0.735	663056	RETRIEVAL_ORIENT_OFF	n/a	n/a	3	-999	n/a	n/a	n/a	n/a	4	[0, 0, 0]	-999	PAL1	2	R1232N
615.87	0.0	663791	TEST_PROBE	n/a	wordpools/wordpool_EN.txt	2	6	WORM	WHALE	WHALE	WORM	4	[0, 0, 0]	-999	PAL1	2	R1232N
615.87	0.984	663791	REC_START	n/a	n/a	2	-999	n/a	WHALE	n/a	n/a	4	[0, 0, 0]	-999	PAL1	2	R1232N
616.854	3.033	664775	REC_EVENT	984	n/a	2	6	WORM	WHALE	WHALE	WORM	4	[0, 0, 0]	-999	PAL1	2	R1232N
619.887	1.0	667808	PROBE_OFF	n/a	n/a	2	-999	n/a	n/a	n/a	n/a	4	[0, 0, 0]	-999	PAL1	2	R1232N
620.887	0.005	668808	REC_END	n/a	n/a	2	-999	n/a	n/a	n/a	n/a	4	[0, 0, 0]	-999	PAL1	2	R1232N
620.892	5.295	668813	RECALL_END	n/a	n/a	-999	-999	n/a	n/a	n/a	n/a	4	[0, 0, 0]	-999	PAL1	2	R1232N
626.187	10.928	674108	TRIAL	n/a	n/a	-999	-999	n/a	n/a	n/a	n/a	5	[0, 0, 0]	-999	PAL1	2	R1232N
637.115	0.007	685035	ENCODING_START	n/a	n/a	-999	-999	n/a	n/a	n/a	n/a	5	[0, 0, 0]	-999	PAL1	2	R1232N
637.122	0.267	685042	STUDY_ORIENT	n/a	n/a	1	5	SKI	HAWK	HAWK	SKI	5	[0, 0, 0]	-999	PAL1	2	R1232N
637.389	0.633	685309	STUDY_ORIENT_OFF	n/a	n/a	1	5	SKI	HAWK	HAWK	SKI	5	[0, 0, 0]	-999	PAL1	2	R1232N
638.022	4.018	685942	STUDY_PAIR	n/a	wordpools/wordpool_EN.txt	1	5	SKI	HAWK	HAWK	SKI	5	[0, 0, 0]	-999	PAL1	2	R1232N
642.04	1.017	689960	PAIR_OFF	n/a	n/a	1	5	SKI	HAWK	HAWK	SKI	5	[0, 0, 0]	-999	PAL1	2	R1232N
643.057	0.266	690977	STUDY_ORIENT	n/a	n/a	2	6	BEE	n/a	BENCH	BEE	5	[0, 0, 0]	-999	PAL1	2	R1232N
643.323	0.585	691243	STUDY_ORIENT_OFF	n/a	n/a	2	6	BEE	n/a	BENCH	BEE	5	[0, 0, 0]	-999	PAL1	2	R1232N
643.908	4.017	691828	STUDY_PAIR	n/a	wordpools/wordpool_EN.txt	2	6	BEE	n/a	BENCH	BEE	5	[0, 0, 0]	-999	PAL1	2	R1232N
647.925	1.017	695845	PAIR_OFF	n/a	n/a	2	6	BEE	n/a	BENCH	BEE	5	[0, 0, 0]	-999	PAL1	2	R1232N
648.942	0.266	696862	STUDY_ORIENT	n/a	n/a	3	1	HOSE	WAVE	WAVE	HOSE	5	[0, 0, 0]	-999	PAL1	2	R1232N
649.208	0.734	697128	STUDY_ORIENT_OFF	n/a	n/a	3	1	HOSE	WAVE	WAVE	HOSE	5	[0, 0, 0]	-999	PAL1	2	R1232N
649.942	4.017	697862	STUDY_PAIR	n/a	wordpools/wordpool_EN.txt	3	1	HOSE	WAVE	WAVE	HOSE	5	[0, 0, 0]	-999	PAL1	2	R1232N
653.959	1.017	701879	PAIR_OFF	n/a	n/a	3	1	HOSE	WAVE	WAVE	HOSE	5	[0, 0, 0]	-999	PAL1	2	R1232N
654.976	0.266	702896	STUDY_ORIENT	n/a	n/a	4	2	STREET	MOUSE	MOUSE	STREET	5	[0, 0, 0]	-999	PAL1	2	R1232N
655.242	0.6	703161	STUDY_ORIENT_OFF	n/a	n/a	4	2	STREET	MOUSE	MOUSE	STREET	5	[0, 0, 0]	-999	PAL1	2	R1232N
655.842	4.018	703761	STUDY_PAIR	n/a	wordpools/wordpool_EN.txt	4	2	STREET	MOUSE	MOUSE	STREET	5	[0, 0, 0]	-999	PAL1	2	R1232N
659.86	1.017	707779	PAIR_OFF	n/a	n/a	4	2	STREET	MOUSE	MOUSE	STREET	5	[0, 0, 0]	-999	PAL1	2	R1232N
660.877	0.266	708796	STUDY_ORIENT	n/a	n/a	5	3	CROWN	CAGE	CROWN	CAGE	5	[0, 0, 0]	-999	PAL1	2	R1232N
661.143	0.7	709062	STUDY_ORIENT_OFF	n/a	n/a	5	3	CROWN	CAGE	CROWN	CAGE	5	[0, 0, 0]	-999	PAL1	2	R1232N
661.843	4.018	709762	STUDY_PAIR	n/a	wordpools/wordpool_EN.txt	5	3	CROWN	CAGE	CROWN	CAGE	5	[0, 0, 0]	-999	PAL1	2	R1232N
665.861	1.017	713780	PAIR_OFF	n/a	n/a	5	3	CROWN	CAGE	CROWN	CAGE	5	[0, 0, 0]	-999	PAL1	2	R1232N
666.878	0.266	714797	STUDY_ORIENT	n/a	n/a	6	4	STEM	STREET	STEM	BOMB	5	[0, 0, 0]	-999	PAL1	2	R1232N
667.144	0.734	715063	STUDY_ORIENT_OFF	n/a	n/a	6	4	STEM	STREET	STEM	BOMB	5	[0, 0, 0]	-999	PAL1	2	R1232N
667.878	4.018	715797	STUDY_PAIR	n/a	wordpools/wordpool_EN.txt	6	4	STEM	STREET	STEM	BOMB	5	[0, 0, 0]	-999	PAL1	2	R1232N
671.896	1.006	719815	PAIR_OFF	n/a	n/a	6	4	STEM	STREET	STEM	BOMB	5	[0, 0, 0]	-999	PAL1	2	R1232N
672.902	0.0	720821	ENCODING_END	n/a	n/a	-999	-999	n/a	n/a	n/a	n/a	5	[0, 0, 0]	-999	PAL1	2	R1232N
672.902	0.0	720821	MATH_START	n/a	n/a	-999	-999	n/a	n/a	n/a	n/a	5	[0, 0, 0]	-999	PAL1	2	R1232N
672.902	0.011	720821	START	n/a	n/a	-999	-999	n/a	n/a	n/a	n/a	5	[-999, -999, -999]	-999	PAL1	2	R1232N
672.913	2.932	720832	PROB	2894	n/a	-999	-999	n/a	n/a	n/a	n/a	5	[5, 3, 6]	14	PAL1	2	R1232N
675.845	2.035	723764	PROB	2010	n/a	-999	-999	n/a	n/a	n/a	n/a	5	[2, 5, 9]	16	PAL1	2	R1232N
677.88	1.366	725799	PROB	1334	n/a	-999	-999	n/a	n/a	n/a	n/a	5	[6, 4, 1]	11	PAL1	2	R1232N
679.246	1.75	727165	PROB	1729	n/a	-999	-999	n/a	n/a	n/a	n/a	5	[6, 7, 1]	14	PAL1	2	R1232N
680.996	2.334	728914	PROB	2299	n/a	-999	-999	n/a	n/a	n/a	n/a	5	[4, 9, 8]	21	PAL1	2	R1232N
683.33	2.117	731248	PROB	2085	n/a	-999	-999	n/a	n/a	n/a	n/a	5	[4, 5, 6]	15	PAL1	2	R1232N
685.447	2.167	733365	PROB	2136	n/a	-999	-999	n/a	n/a	n/a	n/a	5	[4, 3, 3]	10	PAL1	2	R1232N
687.614	1.517	735532	PROB	1488	n/a	-999	-999	n/a	n/a	n/a	n/a	5	[5, 6, 1]	12	PAL1	2	R1232N
689.131	2.284	737049	PROB	2252	n/a	-999	-999	n/a	n/a	n/a	n/a	5	[2, 4, 8]	14	PAL1	2	R1232N
691.415	2.816	739333	PROB	2816	n/a	-999	-999	n/a	n/a	n/a	n/a	5	[2, 3, 4]	9	PAL1	2	R1232N
694.231	0.017	742149	STOP	n/a	n/a	-999	-999	n/a	n/a	n/a	n/a	5	[-999, -999, -999]	-999	PAL1	2	R1232N
694.248	0.001	742166	MATH_END	n/a	n/a	-999	-999	n/a	n/a	n/a	n/a	5	[0, 0, 0]	-999	PAL1	2	R1232N
694.249	0.016	742167	RECALL_START	n/a	n/a	-999	-999	n/a	n/a	n/a	n/a	5	[0, 0, 0]	-999	PAL1	2	R1232N
694.265	0.267	742183	TEST_ORIENT	n/a	n/a	3	1	HOSE	WAVE	WAVE	HOSE	5	[0, 0, 0]	-999	PAL1	2	R1232N
694.532	0.75	742450	RETRIEVAL_ORIENT_OFF	n/a	n/a	-999	-999	n/a	n/a	n/a	n/a	5	[0, 0, 0]	-999	PAL1	2	R1232N
695.282	0.001	743200	TEST_PROBE	n/a	wordpools/wordpool_EN.txt	3	1	HOSE	WAVE	WAVE	HOSE	5	[0, 0, 0]	-999	PAL1	2	R1232N
695.283	1.357	743201	REC_START	n/a	n/a	3	-999	n/a	WAVE	n/a	n/a	5	[0, 0, 0]	-999	PAL1	2	R1232N
696.64	2.659	744558	REC_EVENT	1357	n/a	3	1	HOSE	WAVE	WAVE	HOSE	5	[0, 0, 0]	-999	PAL1	2	R1232N
699.299	1.0	747217	PROBE_OFF	n/a	n/a	3	-999	n/a	n/a	n/a	n/a	5	[0, 0, 0]	-999	PAL1	2	R1232N
700.299	0.017	748217	REC_END	n/a	n/a	3	-999	n/a	n/a	n/a	n/a	5	[0, 0, 0]	-999	PAL1	2	R1232N
700.316	0.267	748234	TEST_ORIENT	n/a	n/a	4	2	STREET	MOUSE	MOUSE	STREET	5	[0, 0, 0]	-999	PAL1	2	R1232N
700.583	0.65	748501	RETRIEVAL_ORIENT_OFF	n/a	n/a	3	-999	n/a	n/a	n/a	n/a	5	[0, 0, 0]	-999	PAL1	2	R1232N
701.233	0.0	749151	TEST_PROBE	n/a	wordpools/wordpool_EN.txt	4	2	STREET	MOUSE	MOUSE	STREET	5	[0, 0, 0]	-999	PAL1	2	R1232N
701.233	1.266	749151	REC_START	n/a	n/a	4	-999	n/a	MOUSE	n/a	n/a	5	[0, 0, 0]	-999	PAL1	2	R1232N
702.499	2.751	750417	REC_EVENT	1266	n/a	4	2	STREET	MOUSE	MOUSE	STREET	5	[0, 0, 0]	-999	PAL1	2	R1232N
705.25	1.001	753167	PROBE_OFF	n/a	n/a	4	-999	n/a	n/a	n/a	n/a	5	[0, 0, 0]	-999	PAL1	2	R1232N
706.251	0.016	754168	REC_END	n/a	n/a	4	-999	n/a	n/a	n/a	n/a	5	[0, 0, 0]	-999	PAL1	2	R1232N
706.267	0.267	754184	TEST_ORIENT	n/a	n/a	5	3	CROWN	CAGE	CROWN	CAGE	5	[0, 0, 0]	-999	PAL1	2	R1232N
706.534	0.6	754451	RETRIEVAL_ORIENT_OFF	n/a	n/a	4	-999	n/a	n/a	n/a	n/a	5	[0, 0, 0]	-999	PAL1	2	R1232N
707.134	0.0	755051	TEST_PROBE	n/a	wordpools/wordpool_EN.txt	5	3	CROWN	CAGE	CROWN	CAGE	5	[0, 0, 0]	-999	PAL1	2	R1232N
707.134	2.569	755051	REC_START	n/a	n/a	5	-999	n/a	CAGE	n/a	n/a	5	[0, 0, 0]	-999	PAL1	2	R1232N
709.703	0.78	757620	REC_EVENT	2569	n/a	5	3	CROWN	CAGE	CROWN	CAGE	5	[0, 0, 0]	-999	PAL1	2	R1232N
710.483	0.668	758400	REC_EVENT	3349	n/a	5	3	CROWN	<>	CROWN	CAGE	5	[0, 0, 0]	-999	PAL1	2	R1232N
711.151	1.001	759068	PROBE_OFF	n/a	n/a	5	-999	n/a	n/a	n/a	n/a	5	[0, 0, 0]	-999	PAL1	2	R1232N
712.152	0.016	760069	REC_END	n/a	n/a	5	-999	n/a	n/a	n/a	n/a	5	[0, 0, 0]	-999	PAL1	2	R1232N
712.168	0.267	760085	TEST_ORIENT	n/a	n/a	6	4	STEM	STREET	STEM	BOMB	5	[0, 0, 0]	-999	PAL1	2	R1232N
712.435	0.75	760352	RETRIEVAL_ORIENT_OFF	n/a	n/a	5	-999	n/a	n/a	n/a	n/a	5	[0, 0, 0]	-999	PAL1	2	R1232N
713.185	0.001	761102	TEST_PROBE	n/a	wordpools/wordpool_EN.txt	6	4	STEM	STREET	STEM	BOMB	5	[0, 0, 0]	-999	PAL1	2	R1232N
713.186	3.26	761103	REC_START	n/a	n/a	6	-999	n/a	STREET	n/a	n/a	5	[0, 0, 0]	-999	PAL1	2	R1232N
716.446	0.756	764363	REC_EVENT	3260	n/a	6	4	STEM	STREET	STEM	BOMB	5	[0, 0, 0]	-999	PAL1	2	R1232N
717.202	1.0	765119	PROBE_OFF	n/a	n/a	6	-999	n/a	n/a	n/a	n/a	5	[0, 0, 0]	-999	PAL1	2	R1232N
718.202	0.017	766119	REC_END	n/a	n/a	6	-999	n/a	n/a	n/a	n/a	5	[0, 0, 0]	-999	PAL1	2	R1232N
718.219	0.267	766136	TEST_ORIENT	n/a	n/a	1	5	SKI	HAWK	HAWK	SKI	5	[0, 0, 0]	-999	PAL1	2	R1232N
718.486	0.533	766403	RETRIEVAL_ORIENT_OFF	n/a	n/a	6	-999	n/a	n/a	n/a	n/a	5	[0, 0, 0]	-999	PAL1	2	R1232N
719.019	0.001	766936	TEST_PROBE	n/a	wordpools/wordpool_EN.txt	1	5	SKI	HAWK	HAWK	SKI	5	[0, 0, 0]	-999	PAL1	2	R1232N
719.02	1.075	766937	REC_START	n/a	n/a	1	-999	n/a	HAWK	n/a	n/a	5	[0, 0, 0]	-999	PAL1	2	R1232N
720.095	2.941	768012	REC_EVENT	1075	n/a	1	5	SKI	HAWK	HAWK	SKI	5	[0, 0, 0]	-999	PAL1	2	R1232N
723.036	1.0	770953	PROBE_OFF	n/a	n/a	1	-999	n/a	n/a	n/a	n/a	5	[0, 0, 0]	-999	PAL1	2	R1232N
724.036	0.017	771953	REC_END	n/a	n/a	1	-999	n/a	n/a	n/a	n/a	5	[0, 0, 0]	-999	PAL1	2	R1232N
724.053	0.267	771970	TEST_ORIENT	n/a	n/a	2	6	BEE	n/a	BENCH	BEE	5	[0, 0, 0]	-999	PAL1	2	R1232N
724.32	0.683	772237	RETRIEVAL_ORIENT_OFF	n/a	n/a	1	-999	n/a	n/a	n/a	n/a	5	[0, 0, 0]	-999	PAL1	2	R1232N
725.003	0.001	772920	TEST_PROBE	n/a	wordpools/wordpool_EN.txt	2	6	BEE	n/a	BENCH	BEE	5	[0, 0, 0]	-999	PAL1	2	R1232N
725.004	3.744	772921	REC_START	n/a	n/a	2	-999	n/a	n/a	n/a	n/a	5	[0, 0, 0]	-999	PAL1	2	R1232N
728.748	0.273	776665	REC_EVENT	3744	n/a	2	6	BEE	<>	BENCH	BEE	5	[0, 0, 0]	-999	PAL1	2	R1232N
729.021	1.0	776937	PROBE_OFF	n/a	n/a	2	-999	n/a	n/a	n/a	n/a	5	[0, 0, 0]	-999	PAL1	2	R1232N
730.021	0.01	777937	REC_END	n/a	n/a	2	-999	n/a	n/a	n/a	n/a	5	[0, 0, 0]	-999	PAL1	2	R1232N
730.031	4.39	777947	RECALL_END	n/a	n/a	-999	-999	n/a	n/a	n/a	n/a	5	[0, 0, 0]	-999	PAL1	2	R1232N
734.421	10.928	782337	TRIAL	n/a	n/a	-999	-999	n/a	n/a	n/a	n/a	6	[0, 0, 0]	-999	PAL1	2	R1232N
745.349	0.008	793265	ENCODING_START	n/a	n/a	-999	-999	n/a	n/a	n/a	n/a	6	[0, 0, 0]	-999	PAL1	2	R1232N
745.357	0.267	793273	STUDY_ORIENT	n/a	n/a	1	3	GLASS	RICE	GLASS	RICE	6	[0, 0, 0]	-999	PAL1	2	R1232N
745.624	0.616	793540	STUDY_ORIENT_OFF	n/a	n/a	1	3	GLASS	RICE	GLASS	RICE	6	[0, 0, 0]	-999	PAL1	2	R1232N
746.24	4.018	794156	STUDY_PAIR	n/a	wordpools/wordpool_EN.txt	1	3	GLASS	RICE	GLASS	RICE	6	[0, 0, 0]	-999	PAL1	2	R1232N
750.258	1.016	798174	PAIR_OFF	n/a	n/a	1	3	GLASS	RICE	GLASS	RICE	6	[0, 0, 0]	-999	PAL1	2	R1232N
751.274	0.267	799190	STUDY_ORIENT	n/a	n/a	2	4	BED	TIE	BED	TIE	6	[0, 0, 0]	-999	PAL1	2	R1232N
751.541	0.6	799457	STUDY_ORIENT_OFF	n/a	n/a	2	4	BED	TIE	BED	TIE	6	[0, 0, 0]	-999	PAL1	2	R1232N
752.141	4.018	800057	STUDY_PAIR	n/a	wordpools/wordpool_EN.txt	2	4	BED	TIE	BED	TIE	6	[0, 0, 0]	-999	PAL1	2	R1232N
756.159	1.016	804074	PAIR_OFF	n/a	n/a	2	4	BED	TIE	BED	TIE	6	[0, 0, 0]	-999	PAL1	2	R1232N
757.175	0.267	805090	STUDY_ORIENT	n/a	n/a	3	1	BROOM	n/a	BROOM	JET	6	[0, 0, 0]	-999	PAL1	2	R1232N
757.442	0.584	805357	STUDY_ORIENT_OFF	n/a	n/a	3	1	BROOM	n/a	BROOM	JET	6	[0, 0, 0]	-999	PAL1	2	R1232N
758.026	4.017	805941	STUDY_PAIR	n/a	wordpools/wordpool_EN.txt	3	1	BROOM	n/a	BROOM	JET	6	[0, 0, 0]	-999	PAL1	2	R1232N
762.043	1.017	809958	PAIR_OFF	n/a	n/a	3	1	BROOM	n/a	BROOM	JET	6	[0, 0, 0]	-999	PAL1	2	R1232N
763.06	0.267	810975	STUDY_ORIENT	n/a	n/a	4	6	LAMB	n/a	VASE	LAMB	6	[0, 0, 0]	-999	PAL1	2	R1232N
763.327	0.699	811242	STUDY_ORIENT_OFF	n/a	n/a	4	6	LAMB	n/a	VASE	LAMB	6	[0, 0, 0]	-999	PAL1	2	R1232N
764.026	4.018	811941	STUDY_PAIR	n/a	wordpools/wordpool_EN.txt	4	6	LAMB	n/a	VASE	LAMB	6	[0, 0, 0]	-999	PAL1	2	R1232N
768.044	1.017	815959	PAIR_OFF	n/a	n/a	4	6	LAMB	n/a	VASE	LAMB	6	[0, 0, 0]	-999	PAL1	2	R1232N
769.061	0.267	816976	STUDY_ORIENT	n/a	n/a	5	5	THREAD	n/a	HEART	THREAD	6	[0, 0, 0]	-999	PAL1	2	R1232N
769.328	0.65	817243	STUDY_ORIENT_OFF	n/a	n/a	5	5	THREAD	n/a	HEART	THREAD	6	[0, 0, 0]	-999	PAL1	2	R1232N
769.978	4.017	817893	STUDY_PAIR	n/a	wordpools/wordpool_EN.txt	5	5	THREAD	n/a	HEART	THREAD	6	[0, 0, 0]	-999	PAL1	2	R1232N
773.995	1.017	821910	PAIR_OFF	n/a	n/a	5	5	THREAD	n/a	HEART	THREAD	6	[0, 0, 0]	-999	PAL1	2	R1232N
775.012	0.267	822927	STUDY_ORIENT	n/a	n/a	6	2	FORK	SUIT	FORK	SUIT	6	[0, 0, 0]	-999	PAL1	2	R1232N
775.279	0.516	823194	STUDY_ORIENT_OFF	n/a	n/a	6	2	FORK	SUIT	FORK	SUIT	6	[0, 0, 0]	-999	PAL1	2	R1232N
775.795	4.018	823710	STUDY_PAIR	n/a	wordpools/wordpool_EN.txt	6	2	FORK	SUIT	FORK	SUIT	6	[0, 0, 0]	-999	PAL1	2	R1232N
779.813	1.0	827727	PAIR_OFF	n/a	n/a	6	2	FORK	SUIT	FORK	SUIT	6	[0, 0, 0]	-999	PAL1	2	R1232N
780.813	0.0	828727	ENCODING_END	n/a	n/a	-999	-999	n/a	n/a	n/a	n/a	6	[0, 0, 0]	-999	PAL1	2	R1232N
780.813	0.001	828727	MATH_START	n/a	n/a	-999	-999	n/a	n/a	n/a	n/a	6	[0, 0, 0]	-999	PAL1	2	R1232N
780.814	0.015	828728	START	n/a	n/a	-999	-999	n/a	n/a	n/a	n/a	6	[-999, -999, -999]	-999	PAL1	2	R1232N
780.829	3.351	828743	PROB	3330	n/a	-999	-999	n/a	n/a	n/a	n/a	6	[5, 3, 8]	16	PAL1	2	R1232N
784.18	2.3	832094	PROB	2266	n/a	-999	-999	n/a	n/a	n/a	n/a	6	[2, 8, 7]	17	PAL1	2	R1232N
786.48	2.751	834394	PROB	2719	n/a	-999	-999	n/a	n/a	n/a	n/a	6	[1, 3, 9]	13	PAL1	2	R1232N
789.231	1.9	837145	PROB	1864	n/a	-999	-999	n/a	n/a	n/a	n/a	6	[7, 9, 5]	21	PAL1	2	R1232N
791.131	3.051	839045	PROB	3028	n/a	-999	-999	n/a	n/a	n/a	n/a	6	[9, 1, 3]	13	PAL1	2	R1232N
794.182	19.625	842096	PROB	19625	n/a	-999	-999	n/a	n/a	n/a	n/a	6	[6, 9, 5]	19	PAL1	2	R1232N
813.807	0.011	861720	STOP	n/a	n/a	-999	-999	n/a	n/a	n/a	n/a	6	[-999, -999, -999]	-999	PAL1	2	R1232N
813.818	0.001	861731	MATH_END	n/a	n/a	-999	-999	n/a	n/a	n/a	n/a	6	[0, 0, 0]	-999	PAL1	2	R1232N
813.819	0.016	861732	RECALL_START	n/a	n/a	-999	-999	n/a	n/a	n/a	n/a	6	[0, 0, 0]	-999	PAL1	2	R1232N
813.835	0.267	861748	TEST_ORIENT	n/a	n/a	3	1	BROOM	n/a	BROOM	JET	6	[0, 0, 0]	-999	PAL1	2	R1232N
814.102	0.6	862015	RETRIEVAL_ORIENT_OFF	n/a	n/a	-999	-999	n/a	n/a	n/a	n/a	6	[0, 0, 0]	-999	PAL1	2	R1232N
814.702	0.0	862615	REC_START	n/a	n/a	3	-999	n/a	n/a	n/a	n/a	6	[0, 0, 0]	-999	PAL1	2	R1232N
814.702	0.391	862615	TEST_PROBE	n/a	wordpools/wordpool_EN.txt	3	1	BROOM	n/a	BROOM	JET	6	[0, 0, 0]	-999	PAL1	2	R1232N
815.093	3.365	863006	REC_EVENT	391	n/a	3	1	BROOM	<>	BROOM	JET	6	[0, 0, 0]	-999	PAL1	2	R1232N
818.458	0.261	866371	REC_EVENT	3756	n/a	3	1	BROOM	<>	BROOM	JET	6	[0, 0, 0]	-999	PAL1	2	R1232N
818.719	1.0	866632	PROBE_OFF	n/a	n/a	3	-999	n/a	n/a	n/a	n/a	6	[0, 0, 0]	-999	PAL1	2	R1232N
819.719	0.017	867632	REC_END	n/a	n/a	3	-999	n/a	n/a	n/a	n/a	6	[0, 0, 0]	-999	PAL1	2	R1232N
819.736	0.267	867649	TEST_ORIENT	n/a	n/a	6	2	FORK	SUIT	FORK	SUIT	6	[0, 0, 0]	-999	PAL1	2	R1232N
820.003	0.6	867916	RETRIEVAL_ORIENT_OFF	n/a	n/a	3	-999	n/a	n/a	n/a	n/a	6	[0, 0, 0]	-999	PAL1	2	R1232N
820.603	0.0	868516	TEST_PROBE	n/a	wordpools/wordpool_EN.txt	6	2	FORK	SUIT	FORK	SUIT	6	[0, 0, 0]	-999	PAL1	2	R1232N
820.603	0.19	868516	REC_START	n/a	n/a	6	-999	n/a	SUIT	n/a	n/a	6	[0, 0, 0]	-999	PAL1	2	R1232N
820.793	1.1	868706	REC_EVENT	190	n/a	6	2	FORK	<>	FORK	SUIT	6	[0, 0, 0]	-999	PAL1	2	R1232N
821.893	2.727	869806	REC_EVENT	1290	n/a	6	2	FORK	SUIT	FORK	SUIT	6	[0, 0, 0]	-999	PAL1	2	R1232N
824.62	1.0	872533	PROBE_OFF	n/a	n/a	6	-999	n/a	n/a	n/a	n/a	6	[0, 0, 0]	-999	PAL1	2	R1232N
825.62	0.017	873533	REC_END	n/a	n/a	6	-999	n/a	n/a	n/a	n/a	6	[0, 0, 0]	-999	PAL1	2	R1232N
825.637	0.267	873550	TEST_ORIENT	n/a	n/a	1	3	GLASS	RICE	GLASS	RICE	6	[0, 0, 0]	-999	PAL1	2	R1232N
825.904	0.616	873817	RETRIEVAL_ORIENT_OFF	n/a	n/a	6	-999	n/a	n/a	n/a	n/a	6	[0, 0, 0]	-999	PAL1	2	R1232N
826.52	0.001	874433	TEST_PROBE	n/a	wordpools/wordpool_EN.txt	1	3	GLASS	RICE	GLASS	RICE	6	[0, 0, 0]	-999	PAL1	2	R1232N
826.521	0.943	874434	REC_START	n/a	n/a	1	-999	n/a	RICE	n/a	n/a	6	[0, 0, 0]	-999	PAL1	2	R1232N
827.464	3.074	875376	REC_EVENT	943	n/a	1	3	GLASS	RICE	GLASS	RICE	6	[0, 0, 0]	-999	PAL1	2	R1232N
830.538	1.0	878450	PROBE_OFF	n/a	n/a	1	-999	n/a	n/a	n/a	n/a	6	[0, 0, 0]	-999	PAL1	2	R1232N
831.538	0.016	879450	REC_END	n/a	n/a	1	-999	n/a	n/a	n/a	n/a	6	[0, 0, 0]	-999	PAL1	2	R1232N
831.554	0.267	879466	TEST_ORIENT	n/a	n/a	2	4	BED	TIE	BED	TIE	6	[0, 0, 0]	-999	PAL1	2	R1232N
831.821	0.534	879733	RETRIEVAL_ORIENT_OFF	n/a	n/a	1	-999	n/a	n/a	n/a	n/a	6	[0, 0, 0]	-999	PAL1	2	R1232N
832.355	0.0	880267	TEST_PROBE	n/a	wordpools/wordpool_EN.txt	2	4	BED	TIE	BED	TIE	6	[0, 0, 0]	-999	PAL1	2	R1232N
832.355	1.946	880267	REC_START	n/a	n/a	2	-999	n/a	TIE	n/a	n/a	6	[0, 0, 0]	-999	PAL1	2	R1232N
834.301	2.071	882213	REC_EVENT	1946	n/a	2	4	BED	TIE	BED	TIE	6	[0, 0, 0]	-999	PAL1	2	R1232N
836.372	1.0	884284	PROBE_OFF	n/a	n/a	2	-999	n/a	n/a	n/a	n/a	6	[0, 0, 0]	-999	PAL1	2	R1232N
837.372	0.017	885284	REC_END	n/a	n/a	2	-999	n/a	n/a	n/a	n/a	6	[0, 0, 0]	-999	PAL1	2	R1232N
837.389	0.266	885301	TEST_ORIENT	n/a	n/a	5	5	THREAD	n/a	HEART	THREAD	6	[0, 0, 0]	-999	PAL1	2	R1232N
837.655	0.667	885567	RETRIEVAL_ORIENT_OFF	n/a	n/a	2	-999	n/a	n/a	n/a	n/a	6	[0, 0, 0]	-999	PAL1	2	R1232N
838.322	0.001	886234	TEST_PROBE	n/a	wordpools/wordpool_EN.txt	5	5	THREAD	n/a	HEART	THREAD	6	[0, 0, 0]	-999	PAL1	2	R1232N
838.323	4.017	886235	REC_START	n/a	n/a	5	-999	n/a	n/a	n/a	n/a	6	[0, 0, 0]	-999	PAL1	2	R1232N
842.34	0.835	890252	PROBE_OFF	n/a	n/a	5	-999	n/a	n/a	n/a	n/a	6	[0, 0, 0]	-999	PAL1	2	R1232N
843.175	0.165	891087	REC_EVENT	4852	n/a	5	5	THREAD	<>	HEART	THREAD	6	[0, 0, 0]	-999	PAL1	2	R1232N
843.34	0.016	891252	REC_END	n/a	n/a	5	-999	n/a	n/a	n/a	n/a	6	[0, 0, 0]	-999	PAL1	2	R1232N
843.356	0.267	891268	TEST_ORIENT	n/a	n/a	4	6	LAMB	n/a	VASE	LAMB	6	[0, 0, 0]	-999	PAL1	2	R1232N
843.623	0.65	891535	RETRIEVAL_ORIENT_OFF	n/a	n/a	5	-999	n/a	n/a	n/a	n/a	6	[0, 0, 0]	-999	PAL1	2	R1232N
844.273	0.001	892185	TEST_PROBE	n/a	wordpools/wordpool_EN.txt	4	6	LAMB	n/a	VASE	LAMB	6	[0, 0, 0]	-999	PAL1	2	R1232N
844.274	4.016	892186	REC_START	n/a	n/a	4	-999	n/a	n/a	n/a	n/a	6	[0, 0, 0]	-999	PAL1	2	R1232N
848.29	0.883	896202	PROBE_OFF	n/a	n/a	4	-999	n/a	n/a	n/a	n/a	6	[0, 0, 0]	-999	PAL1	2	R1232N
849.173	0.117	897085	REC_EVENT	4899	n/a	4	6	LAMB	<>	VASE	LAMB	6	[0, 0, 0]	-999	PAL1	2	R1232N
849.29	0.01	897202	REC_END	n/a	n/a	4	-999	n/a	n/a	n/a	n/a	6	[0, 0, 0]	-999	PAL1	2	R1232N
849.3	5.158	897212	RECALL_END	n/a	n/a	-999	-999	n/a	n/a	n/a	n/a	6	[0, 0, 0]	-999	PAL1	2	R1232N
854.458	10.929	902369	TRIAL	n/a	n/a	-999	-999	n/a	n/a	n/a	n/a	7	[0, 0, 0]	-999	PAL1	2	R1232N
865.387	0.006	913298	ENCODING_START	n/a	n/a	-999	-999	n/a	n/a	n/a	n/a	7	[0, 0, 0]	-999	PAL1	2	R1232N
865.393	0.267	913304	STUDY_ORIENT	n/a	n/a	1	1	BATH	FOOT	FOOT	BATH	7	[0, 0, 0]	-999	PAL1	2	R1232N
865.66	0.667	913571	STUDY_ORIENT_OFF	n/a	n/a	1	1	BATH	FOOT	FOOT	BATH	7	[0, 0, 0]	-999	PAL1	2	R1232N
866.327	4.017	914238	STUDY_PAIR	n/a	wordpools/wordpool_EN.txt	1	1	BATH	FOOT	FOOT	BATH	7	[0, 0, 0]	-999	PAL1	2	R1232N
870.344	1.017	918255	PAIR_OFF	n/a	n/a	1	1	BATH	FOOT	FOOT	BATH	7	[0, 0, 0]	-999	PAL1	2	R1232N
871.361	0.267	919272	STUDY_ORIENT	n/a	n/a	2	4	HAT	GRASS	HAT	GRASS	7	[0, 0, 0]	-999	PAL1	2	R1232N
871.628	0.55	919539	STUDY_ORIENT_OFF	n/a	n/a	2	4	HAT	GRASS	HAT	GRASS	7	[0, 0, 0]	-999	PAL1	2	R1232N
872.178	4.017	920089	STUDY_PAIR	n/a	wordpools/wordpool_EN.txt	2	4	HAT	GRASS	HAT	GRASS	7	[0, 0, 0]	-999	PAL1	2	R1232N
876.195	1.017	924105	PAIR_OFF	n/a	n/a	2	4	HAT	GRASS	HAT	GRASS	7	[0, 0, 0]	-999	PAL1	2	R1232N
877.212	0.267	925122	STUDY_ORIENT	n/a	n/a	3	5	DOOR	HAT	ARM	DOOR	7	[0, 0, 0]	-999	PAL1	2	R1232N
877.479	0.666	925389	STUDY_ORIENT_OFF	n/a	n/a	3	5	DOOR	HAT	ARM	DOOR	7	[0, 0, 0]	-999	PAL1	2	R1232N
878.145	4.018	926055	STUDY_PAIR	n/a	wordpools/wordpool_EN.txt	3	5	DOOR	HAT	ARM	DOOR	7	[0, 0, 0]	-999	PAL1	2	R1232N
882.163	1.017	930073	PAIR_OFF	n/a	n/a	3	5	DOOR	HAT	ARM	DOOR	7	[0, 0, 0]	-999	PAL1	2	R1232N
883.18	0.266	931090	STUDY_ORIENT	n/a	n/a	4	2	EAR	APE	EAR	APE	7	[0, 0, 0]	-999	PAL1	2	R1232N
883.446	0.518	931356	STUDY_ORIENT_OFF	n/a	n/a	4	2	EAR	APE	EAR	APE	7	[0, 0, 0]	-999	PAL1	2	R1232N
883.964	4.016	931874	STUDY_PAIR	n/a	wordpools/wordpool_EN.txt	4	2	EAR	APE	EAR	APE	7	[0, 0, 0]	-999	PAL1	2	R1232N
887.98	1.017	935890	PAIR_OFF	n/a	n/a	4	2	EAR	APE	EAR	APE	7	[0, 0, 0]	-999	PAL1	2	R1232N
888.997	0.267	936907	STUDY_ORIENT	n/a	n/a	5	3	BEAK	FLUTE	FLUTE	BEAK	7	[0, 0, 0]	-999	PAL1	2	R1232N
889.264	0.717	937174	STUDY_ORIENT_OFF	n/a	n/a	5	3	BEAK	FLUTE	FLUTE	BEAK	7	[0, 0, 0]	-999	PAL1	2	R1232N
889.981	4.017	937891	STUDY_PAIR	n/a	wordpools/wordpool_EN.txt	5	3	BEAK	FLUTE	FLUTE	BEAK	7	[0, 0, 0]	-999	PAL1	2	R1232N
893.998	1.017	941908	PAIR_OFF	n/a	n/a	5	3	BEAK	FLUTE	FLUTE	BEAK	7	[0, 0, 0]	-999	PAL1	2	R1232N
895.015	0.267	942925	STUDY_ORIENT	n/a	n/a	6	6	CAPE	n/a	CAPE	ANT	7	[0, 0, 0]	-999	PAL1	2	R1232N
895.282	0.601	943192	STUDY_ORIENT_OFF	n/a	n/a	6	6	CAPE	n/a	CAPE	ANT	7	[0, 0, 0]	-999	PAL1	2	R1232N
895.883	4.017	943793	STUDY_PAIR	n/a	wordpools/wordpool_EN.txt	6	6	CAPE	n/a	CAPE	ANT	7	[0, 0, 0]	-999	PAL1	2	R1232N
899.9	1.0	947810	PAIR_OFF	n/a	n/a	6	6	CAPE	n/a	CAPE	ANT	7	[0, 0, 0]	-999	PAL1	2	R1232N
900.9	0.0	948809	ENCODING_END	n/a	n/a	-999	-999	n/a	n/a	n/a	n/a	7	[0, 0, 0]	-999	PAL1	2	R1232N
900.9	0.0	948809	MATH_START	n/a	n/a	-999	-999	n/a	n/a	n/a	n/a	7	[0, 0, 0]	-999	PAL1	2	R1232N
900.9	0.017	948809	START	n/a	n/a	-999	-999	n/a	n/a	n/a	n/a	7	[-999, -999, -999]	-999	PAL1	2	R1232N
900.917	2.783	948826	PROB	2746	n/a	-999	-999	n/a	n/a	n/a	n/a	7	[6, 8, 4]	18	PAL1	2	R1232N
903.7	2.083	951609	PROB	2058	n/a	-999	-999	n/a	n/a	n/a	n/a	7	[1, 6, 6]	13	PAL1	2	R1232N
905.783	1.434	953692	PROB	1400	n/a	-999	-999	n/a	n/a	n/a	n/a	7	[7, 7, 7]	21	PAL1	2	R1232N
907.217	2.134	955126	PROB	2109	n/a	-999	-999	n/a	n/a	n/a	n/a	7	[4, 7, 5]	16	PAL1	2	R1232N
909.351	2.233	957260	PROB	2207	n/a	-999	-999	n/a	n/a	n/a	n/a	7	[1, 4, 8]	13	PAL1	2	R1232N
911.584	3.118	959493	PROB	3095	n/a	-999	-999	n/a	n/a	n/a	n/a	7	[4, 8, 9]	21	PAL1	2	R1232N
914.702	2.8	962611	PROB	2777	n/a	-999	-999	n/a	n/a	n/a	n/a	7	[6, 4, 5]	15	PAL1	2	R1232N
917.502	2.867	965411	PROB	2832	n/a	-999	-999	n/a	n/a	n/a	n/a	7	[8, 1, 9]	18	PAL1	2	R1232N
920.369	3.591	968278	PROB	3591	n/a	-999	-999	n/a	n/a	n/a	n/a	7	[7, 8, 9]	24	PAL1	2	R1232N
923.96	0.011	971869	STOP	n/a	n/a	-999	-999	n/a	n/a	n/a	n/a	7	[-999, -999, -999]	-999	PAL1	2	R1232N
923.971	0.0	971880	MATH_END	n/a	n/a	-999	-999	n/a	n/a	n/a	n/a	7	[0, 0, 0]	-999	PAL1	2	R1232N
923.971	0.015	971880	RECALL_START	n/a	n/a	-999	-999	n/a	n/a	n/a	n/a	7	[0, 0, 0]	-999	PAL1	2	R1232N
923.986	0.267	971895	TEST_ORIENT	n/a	n/a	1	1	BATH	FOOT	FOOT	BATH	7	[0, 0, 0]	-999	PAL1	2	R1232N
924.253	0.567	972162	RETRIEVAL_ORIENT_OFF	n/a	n/a	-999	-999	n/a	n/a	n/a	n/a	7	[0, 0, 0]	-999	PAL1	2	R1232N
924.82	0.0	972729	REC_START	n/a	n/a	1	-999	n/a	FOOT	n/a	n/a	7	[0, 0, 0]	-999	PAL1	2	R1232N
924.82	1.414	972729	TEST_PROBE	n/a	wordpools/wordpool_EN.txt	1	1	BATH	FOOT	FOOT	BATH	7	[0, 0, 0]	-999	PAL1	2	R1232N
926.234	2.603	974142	REC_EVENT	1414	n/a	1	1	BATH	FOOT	FOOT	BATH	7	[0, 0, 0]	-999	PAL1	2	R1232N
928.837	1.0	976745	PROBE_OFF	n/a	n/a	1	-999	n/a	n/a	n/a	n/a	7	[0, 0, 0]	-999	PAL1	2	R1232N
929.837	0.017	977745	REC_END	n/a	n/a	1	-999	n/a	n/a	n/a	n/a	7	[0, 0, 0]	-999	PAL1	2	R1232N
929.854	0.267	977762	TEST_ORIENT	n/a	n/a	4	2	EAR	APE	EAR	APE	7	[0, 0, 0]	-999	PAL1	2	R1232N
930.121	0.633	978029	RETRIEVAL_ORIENT_OFF	n/a	n/a	1	-999	n/a	n/a	n/a	n/a	7	[0, 0, 0]	-999	PAL1	2	R1232N
930.754	0.0	978662	TEST_PROBE	n/a	wordpools/wordpool_EN.txt	4	2	EAR	APE	EAR	APE	7	[0, 0, 0]	-999	PAL1	2	R1232N
930.754	1.037	978662	REC_START	n/a	n/a	4	-999	n/a	APE	n/a	n/a	7	[0, 0, 0]	-999	PAL1	2	R1232N
931.791	2.981	979699	REC_EVENT	1037	n/a	4	2	EAR	APE	EAR	APE	7	[0, 0, 0]	-999	PAL1	2	R1232N
934.772	1.0	982680	PROBE_OFF	n/a	n/a	4	-999	n/a	n/a	n/a	n/a	7	[0, 0, 0]	-999	PAL1	2	R1232N
935.772	0.016	983680	REC_END	n/a	n/a	4	-999	n/a	n/a	n/a	n/a	7	[0, 0, 0]	-999	PAL1	2	R1232N
935.788	0.267	983696	TEST_ORIENT	n/a	n/a	5	3	BEAK	FLUTE	FLUTE	BEAK	7	[0, 0, 0]	-999	PAL1	2	R1232N
936.055	0.6	983963	RETRIEVAL_ORIENT_OFF	n/a	n/a	4	-999	n/a	n/a	n/a	n/a	7	[0, 0, 0]	-999	PAL1	2	R1232N
936.655	0.001	984563	TEST_PROBE	n/a	wordpools/wordpool_EN.txt	5	3	BEAK	FLUTE	FLUTE	BEAK	7	[0, 0, 0]	-999	PAL1	2	R1232N
936.656	1.271	984564	REC_START	n/a	n/a	5	-999	n/a	FLUTE	n/a	n/a	7	[0, 0, 0]	-999	PAL1	2	R1232N
937.927	2.745	985835	REC_EVENT	1271	n/a	5	3	BEAK	FLUTE	FLUTE	BEAK	7	[0, 0, 0]	-999	PAL1	2	R1232N
940.672	1.0	988580	PROBE_OFF	n/a	n/a	5	-999	n/a	n/a	n/a	n/a	7	[0, 0, 0]	-999	PAL1	2	R1232N
941.672	0.017	989580	REC_END	n/a	n/a	5	-999	n/a	n/a	n/a	n/a	7	[0, 0, 0]	-999	PAL1	2	R1232N
941.689	0.268	989597	TEST_ORIENT	n/a	n/a	2	4	HAT	GRASS	HAT	GRASS	7	[0, 0, 0]	-999	PAL1	2	R1232N
941.957	0.749	989865	RETRIEVAL_ORIENT_OFF	n/a	n/a	5	-999	n/a	n/a	n/a	n/a	7	[0, 0, 0]	-999	PAL1	2	R1232N
942.706	0.001	990614	TEST_PROBE	n/a	wordpools/wordpool_EN.txt	2	4	HAT	GRASS	HAT	GRASS	7	[0, 0, 0]	-999	PAL1	2	R1232N
942.707	1.48	990615	REC_START	n/a	n/a	2	-999	n/a	GRASS	n/a	n/a	7	[0, 0, 0]	-999	PAL1	2	R1232N
944.187	2.536	992095	REC_EVENT	1480	n/a	2	4	HAT	GRASS	HAT	GRASS	7	[0, 0, 0]	-999	PAL1	2	R1232N
946.723	1.0	994631	PROBE_OFF	n/a	n/a	2	-999	n/a	n/a	n/a	n/a	7	[0, 0, 0]	-999	PAL1	2	R1232N
947.723	0.017	995631	REC_END	n/a	n/a	2	-999	n/a	n/a	n/a	n/a	7	[0, 0, 0]	-999	PAL1	2	R1232N
947.74	0.267	995648	TEST_ORIENT	n/a	n/a	3	5	DOOR	HAT	ARM	DOOR	7	[0, 0, 0]	-999	PAL1	2	R1232N
948.007	0.65	995915	RETRIEVAL_ORIENT_OFF	n/a	n/a	2	-999	n/a	n/a	n/a	n/a	7	[0, 0, 0]	-999	PAL1	2	R1232N
948.657	0.001	996565	TEST_PROBE	n/a	wordpools/wordpool_EN.txt	3	5	DOOR	HAT	ARM	DOOR	7	[0, 0, 0]	-999	PAL1	2	R1232N
948.658	4.016	996566	REC_START	n/a	n/a	3	-999	n/a	HAT	n/a	n/a	7	[0, 0, 0]	-999	PAL1	2	R1232N
952.674	0.066	1000581	PROBE_OFF	n/a	n/a	3	-999	n/a	n/a	n/a	n/a	7	[0, 0, 0]	-999	PAL1	2	R1232N
952.74	0.934	1000647	REC_EVENT	4082	n/a	3	5	DOOR	HAT	ARM	DOOR	7	[0, 0, 0]	-999	PAL1	2	R1232N
953.674	0.017	1001581	REC_END	n/a	n/a	3	-999	n/a	n/a	n/a	n/a	7	[0, 0, 0]	-999	PAL1	2	R1232N
953.691	0.268	1001598	TEST_ORIENT	n/a	n/a	6	6	CAPE	n/a	CAPE	ANT	7	[0, 0, 0]	-999	PAL1	2	R1232N
953.959	0.666	1001866	RETRIEVAL_ORIENT_OFF	n/a	n/a	3	-999	n/a	n/a	n/a	n/a	7	[0, 0, 0]	-999	PAL1	2	R1232N
954.625	0.0	1002532	TEST_PROBE	n/a	wordpools/wordpool_EN.txt	6	6	CAPE	n/a	CAPE	ANT	7	[0, 0, 0]	-999	PAL1	2	R1232N
954.625	4.017	1002532	REC_START	n/a	n/a	6	-999	n/a	n/a	n/a	n/a	7	[0, 0, 0]	-999	PAL1	2	R1232N
958.642	0.766	1006549	PROBE_OFF	n/a	n/a	6	-999	n/a	n/a	n/a	n/a	7	[0, 0, 0]	-999	PAL1	2	R1232N
959.408	0.234	1007315	REC_EVENT	4783	n/a	6	6	CAPE	<>	CAPE	ANT	7	[0, 0, 0]	-999	PAL1	2	R1232N
959.642	0.01	1007549	REC_END	n/a	n/a	6	-999	n/a	n/a	n/a	n/a	7	[0, 0, 0]	-999	PAL1	2	R1232N
959.652	5.242	1007559	RECALL_END	n/a	n/a	-999	-999	n/a	n/a	n/a	n/a	7	[0, 0, 0]	-999	PAL1	2	R1232N
964.894	10.928	1012801	TRIAL	n/a	n/a	-999	-999	n/a	n/a	n/a	n/a	8	[0, 0, 0]	-999	PAL1	2	R1232N
975.822	0.006	1023728	ENCODING_START	n/a	n/a	-999	-999	n/a	n/a	n/a	n/a	8	[0, 0, 0]	-999	PAL1	2	R1232N
975.828	0.267	1023734	STUDY_ORIENT	n/a	n/a	1	5	ROCK	SALT	ROCK	SALT	8	[0, 0, 0]	-999	PAL1	2	R1232N
976.095	0.717	1024001	STUDY_ORIENT_OFF	n/a	n/a	1	5	ROCK	SALT	ROCK	SALT	8	[0, 0, 0]	-999	PAL1	2	R1232N
976.812	4.017	1024718	STUDY_PAIR	n/a	wordpools/wordpool_EN.txt	1	5	ROCK	SALT	ROCK	SALT	8	[0, 0, 0]	-999	PAL1	2	R1232N
980.829	1.017	1028735	PAIR_OFF	n/a	n/a	1	5	ROCK	SALT	ROCK	SALT	8	[0, 0, 0]	-999	PAL1	2	R1232N
981.846	0.267	1029752	STUDY_ORIENT	n/a	n/a	2	2	TRAY	ROOF	TRAY	ROOF	8	[0, 0, 0]	-999	PAL1	2	R1232N
982.113	0.55	1030019	STUDY_ORIENT_OFF	n/a	n/a	2	2	TRAY	ROOF	TRAY	ROOF	8	[0, 0, 0]	-999	PAL1	2	R1232N
982.663	4.017	1030569	STUDY_PAIR	n/a	wordpools/wordpool_EN.txt	2	2	TRAY	ROOF	TRAY	ROOF	8	[0, 0, 0]	-999	PAL1	2	R1232N
986.68	1.017	1034586	PAIR_OFF	n/a	n/a	2	2	TRAY	ROOF	TRAY	ROOF	8	[0, 0, 0]	-999	PAL1	2	R1232N
987.697	0.268	1035603	STUDY_ORIENT	n/a	n/a	3	1	SHRIMP	SOUP	SHRIMP	SOUP	8	[0, 0, 0]	-999	PAL1	2	R1232N
987.965	0.532	1035871	STUDY_ORIENT_OFF	n/a	n/a	3	1	SHRIMP	SOUP	SHRIMP	SOUP	8	[0, 0, 0]	-999	PAL1	2	R1232N
988.497	4.017	1036403	STUDY_PAIR	n/a	wordpools/wordpool_EN.txt	3	1	SHRIMP	SOUP	SHRIMP	SOUP	8	[0, 0, 0]	-999	PAL1	2	R1232N
992.514	1.017	1040420	PAIR_OFF	n/a	n/a	3	1	SHRIMP	SOUP	SHRIMP	SOUP	8	[0, 0, 0]	-999	PAL1	2	R1232N
993.531	0.267	1041437	STUDY_ORIENT	n/a	n/a	4	4	HOOF	STOOL	STORE	HOOF	8	[0, 0, 0]	-999	PAL1	2	R1232N
993.798	0.55	1041704	STUDY_ORIENT_OFF	n/a	n/a	4	4	HOOF	STOOL	STORE	HOOF	8	[0, 0, 0]	-999	PAL1	2	R1232N
994.348	4.017	1042254	STUDY_PAIR	n/a	wordpools/wordpool_EN.txt	4	4	HOOF	STOOL	STORE	HOOF	8	[0, 0, 0]	-999	PAL1	2	R1232N
998.365	1.017	1046271	PAIR_OFF	n/a	n/a	4	4	HOOF	STOOL	STORE	HOOF	8	[0, 0, 0]	-999	PAL1	2	R1232N
999.382	0.267	1047287	STUDY_ORIENT	n/a	n/a	5	3	FILM	BOY	BOY	FILM	8	[0, 0, 0]	-999	PAL1	2	R1232N
999.649	0.717	1047554	STUDY_ORIENT_OFF	n/a	n/a	5	3	FILM	BOY	BOY	FILM	8	[0, 0, 0]	-999	PAL1	2	R1232N
1000.366	4.017	1048271	STUDY_PAIR	n/a	wordpools/wordpool_EN.txt	5	3	FILM	BOY	BOY	FILM	8	[0, 0, 0]	-999	PAL1	2	R1232N
1004.383	1.017	1052288	PAIR_OFF	n/a	n/a	5	3	FILM	BOY	BOY	FILM	8	[0, 0, 0]	-999	PAL1	2	R1232N
1005.4	0.267	1053305	STUDY_ORIENT	n/a	n/a	6	6	RUG	OAR	RUG	OAR	8	[0, 0, 0]	-999	PAL1	2	R1232N
1005.667	0.566	1053572	STUDY_ORIENT_OFF	n/a	n/a	6	6	RUG	OAR	RUG	OAR	8	[0, 0, 0]	-999	PAL1	2	R1232N
1006.233	4.018	1054138	STUDY_PAIR	n/a	wordpools/wordpool_EN.txt	6	6	RUG	OAR	RUG	OAR	8	[0, 0, 0]	-999	PAL1	2	R1232N
1010.251	1.0	1058156	PAIR_OFF	n/a	n/a	6	6	RUG	OAR	RUG	OAR	8	[0, 0, 0]	-999	PAL1	2	R1232N
1011.251	0.0	1059156	ENCODING_END	n/a	n/a	-999	-999	n/a	n/a	n/a	n/a	8	[0, 0, 0]	-999	PAL1	2	R1232N
1011.251	0.0	1059156	MATH_START	n/a	n/a	-999	-999	n/a	n/a	n/a	n/a	8	[0, 0, 0]	-999	PAL1	2	R1232N
1011.251	0.016	1059156	START	n/a	n/a	-999	-999	n/a	n/a	n/a	n/a	8	[-999, -999, -999]	-999	PAL1	2	R1232N
1011.267	2.751	1059172	PROB	2723	n/a	-999	-999	n/a	n/a	n/a	n/a	8	[9, 9, 4]	22	PAL1	2	R1232N
1014.018	2.067	1061923	PROB	2029	n/a	-999	-999	n/a	n/a	n/a	n/a	8	[9, 1, 1]	11	PAL1	2	R1232N
1016.085	2.284	1063990	PROB	2250	n/a	-999	-999	n/a	n/a	n/a	n/a	8	[6, 2, 7]	16	PAL1	2	R1232N
1018.369	3.3	1066274	PROB	3278	n/a	-999	-999	n/a	n/a	n/a	n/a	8	[2, 1, 7]	10	PAL1	2	R1232N
1021.669	3.401	1069574	PROB	3377	n/a	-999	-999	n/a	n/a	n/a	n/a	8	[4, 2, 3]	9	PAL1	2	R1232N
1025.07	2.467	1072974	PROB	2440	n/a	-999	-999	n/a	n/a	n/a	n/a	8	[8, 6, 9]	23	PAL1	2	R1232N
1027.537	2.3	1075441	PROB	2278	n/a	-999	-999	n/a	n/a	n/a	n/a	8	[2, 8, 3]	13	PAL1	2	R1232N
1029.837	3.059	1077741	PROB	3059	n/a	-999	-999	n/a	n/a	n/a	n/a	8	[9, 7, 2]	18	PAL1	2	R1232N
1032.896	0.009	1080800	STOP	n/a	n/a	-999	-999	n/a	n/a	n/a	n/a	8	[-999, -999, -999]	-999	PAL1	2	R1232N
1032.905	0.001	1080809	MATH_END	n/a	n/a	-999	-999	n/a	n/a	n/a	n/a	8	[0, 0, 0]	-999	PAL1	2	R1232N
1032.906	0.016	1080810	RECALL_START	n/a	n/a	-999	-999	n/a	n/a	n/a	n/a	8	[0, 0, 0]	-999	PAL1	2	R1232N
1032.922	0.266	1080826	TEST_ORIENT	n/a	n/a	3	1	SHRIMP	SOUP	SHRIMP	SOUP	8	[0, 0, 0]	-999	PAL1	2	R1232N
1033.188	0.667	1081092	RETRIEVAL_ORIENT_OFF	n/a	n/a	-999	-999	n/a	n/a	n/a	n/a	8	[0, 0, 0]	-999	PAL1	2	R1232N
1033.855	0.0	1081759	TEST_PROBE	n/a	wordpools/wordpool_EN.txt	3	1	SHRIMP	SOUP	SHRIMP	SOUP	8	[0, 0, 0]	-999	PAL1	2	R1232N
1033.855	0.935	1081759	REC_START	n/a	n/a	3	-999	n/a	SOUP	n/a	n/a	8	[0, 0, 0]	-999	PAL1	2	R1232N
1034.79	3.083	1082694	REC_EVENT	935	n/a	3	1	SHRIMP	SOUP	SHRIMP	SOUP	8	[0, 0, 0]	-999	PAL1	2	R1232N
1037.873	1.0	1085777	PROBE_OFF	n/a	n/a	3	-999	n/a	n/a	n/a	n/a	8	[0, 0, 0]	-999	PAL1	2	R1232N
1038.873	0.017	1086777	REC_END	n/a	n/a	3	-999	n/a	n/a	n/a	n/a	8	[0, 0, 0]	-999	PAL1	2	R1232N
1038.89	0.265	1086794	TEST_ORIENT	n/a	n/a	2	2	TRAY	ROOF	TRAY	ROOF	8	[0, 0, 0]	-999	PAL1	2	R1232N
1039.155	0.534	1087059	RETRIEVAL_ORIENT_OFF	n/a	n/a	3	-999	n/a	n/a	n/a	n/a	8	[0, 0, 0]	-999	PAL1	2	R1232N
1039.689	0.001	1087593	TEST_PROBE	n/a	wordpools/wordpool_EN.txt	2	2	TRAY	ROOF	TRAY	ROOF	8	[0, 0, 0]	-999	PAL1	2	R1232N
1039.69	2.033	1087594	REC_START	n/a	n/a	2	-999	n/a	ROOF	n/a	n/a	8	[0, 0, 0]	-999	PAL1	2	R1232N
1041.723	1.983	1089627	REC_EVENT	2033	n/a	2	2	TRAY	ROOF	TRAY	ROOF	8	[0, 0, 0]	-999	PAL1	2	R1232N
1043.706	1.0	1091610	PROBE_OFF	n/a	n/a	2	-999	n/a	n/a	n/a	n/a	8	[0, 0, 0]	-999	PAL1	2	R1232N
1044.706	0.017	1092610	REC_END	n/a	n/a	2	-999	n/a	n/a	n/a	n/a	8	[0, 0, 0]	-999	PAL1	2	R1232N
1044.723	0.267	1092627	TEST_ORIENT	n/a	n/a	5	3	FILM	BOY	BOY	FILM	8	[0, 0, 0]	-999	PAL1	2	R1232N
1044.99	0.567	1092894	RETRIEVAL_ORIENT_OFF	n/a	n/a	2	-999	n/a	n/a	n/a	n/a	8	[0, 0, 0]	-999	PAL1	2	R1232N
1045.557	0.0	1093461	TEST_PROBE	n/a	wordpools/wordpool_EN.txt	5	3	FILM	BOY	BOY	FILM	8	[0, 0, 0]	-999	PAL1	2	R1232N
1045.557	1.169	1093461	REC_START	n/a	n/a	5	-999	n/a	BOY	n/a	n/a	8	[0, 0, 0]	-999	PAL1	2	R1232N
1046.726	2.848	1094630	REC_EVENT	1169	n/a	5	3	FILM	BOY	BOY	FILM	8	[0, 0, 0]	-999	PAL1	2	R1232N
1049.574	1.0	1097477	PROBE_OFF	n/a	n/a	5	-999	n/a	n/a	n/a	n/a	8	[0, 0, 0]	-999	PAL1	2	R1232N
1050.574	0.017	1098477	REC_END	n/a	n/a	5	-999	n/a	n/a	n/a	n/a	8	[0, 0, 0]	-999	PAL1	2	R1232N
1050.591	0.266	1098494	TEST_ORIENT	n/a	n/a	4	4	HOOF	STOOL	STORE	HOOF	8	[0, 0, 0]	-999	PAL1	2	R1232N
1050.857	0.6	1098760	RETRIEVAL_ORIENT_OFF	n/a	n/a	5	-999	n/a	n/a	n/a	n/a	8	[0, 0, 0]	-999	PAL1	2	R1232N
1051.457	0.001	1099360	TEST_PROBE	n/a	wordpools/wordpool_EN.txt	4	4	HOOF	STOOL	STORE	HOOF	8	[0, 0, 0]	-999	PAL1	2	R1232N
1051.458	2.053	1099361	REC_START	n/a	n/a	4	-999	n/a	STOOL	n/a	n/a	8	[0, 0, 0]	-999	PAL1	2	R1232N
1053.511	1.964	1101414	REC_EVENT	2053	n/a	4	4	HOOF	STOOL	STORE	HOOF	8	[0, 0, 0]	-999	PAL1	2	R1232N
1055.475	1.0	1103378	PROBE_OFF	n/a	n/a	4	-999	n/a	n/a	n/a	n/a	8	[0, 0, 0]	-999	PAL1	2	R1232N
1056.475	0.017	1104378	REC_END	n/a	n/a	4	-999	n/a	n/a	n/a	n/a	8	[0, 0, 0]	-999	PAL1	2	R1232N
1056.492	0.266	1104395	TEST_ORIENT	n/a	n/a	1	5	ROCK	SALT	ROCK	SALT	8	[0, 0, 0]	-999	PAL1	2	R1232N
1056.758	0.55	1104661	RETRIEVAL_ORIENT_OFF	n/a	n/a	4	-999	n/a	n/a	n/a	n/a	8	[0, 0, 0]	-999	PAL1	2	R1232N
1057.308	0.001	1105211	TEST_PROBE	n/a	wordpools/wordpool_EN.txt	1	5	ROCK	SALT	ROCK	SALT	8	[0, 0, 0]	-999	PAL1	2	R1232N
1057.309	1.002	1105212	REC_START	n/a	n/a	1	-999	n/a	SALT	n/a	n/a	8	[0, 0, 0]	-999	PAL1	2	R1232N
1058.311	3.015	1106214	REC_EVENT	1002	n/a	1	5	ROCK	SALT	ROCK	SALT	8	[0, 0, 0]	-999	PAL1	2	R1232N
1061.326	1.01	1109229	PROBE_OFF	n/a	n/a	1	-999	n/a	n/a	n/a	n/a	8	[0, 0, 0]	-999	PAL1	2	R1232N
1062.336	0.006	1110239	REC_END	n/a	n/a	1	-999	n/a	n/a	n/a	n/a	8	[0, 0, 0]	-999	PAL1	2	R1232N
1062.342	0.267	1110245	TEST_ORIENT	n/a	n/a	6	6	RUG	OAR	RUG	OAR	8	[0, 0, 0]	-999	PAL1	2	R1232N
1062.609	0.717	1110512	RETRIEVAL_ORIENT_OFF	n/a	n/a	1	-999	n/a	n/a	n/a	n/a	8	[0, 0, 0]	-999	PAL1	2	R1232N
1063.326	0.001	1111229	TEST_PROBE	n/a	wordpools/wordpool_EN.txt	6	6	RUG	OAR	RUG	OAR	8	[0, 0, 0]	-999	PAL1	2	R1232N
1063.327	1.846	1111230	REC_START	n/a	n/a	6	-999	n/a	OAR	n/a	n/a	8	[0, 0, 0]	-999	PAL1	2	R1232N
1065.173	2.17	1113076	REC_EVENT	1846	n/a	6	6	RUG	OAR	RUG	OAR	8	[0, 0, 0]	-999	PAL1	2	R1232N
1067.343	1.001	1115246	PROBE_OFF	n/a	n/a	6	-999	n/a	n/a	n/a	n/a	8	[0, 0, 0]	-999	PAL1	2	R1232N
1068.344	0.009	1116247	REC_END	n/a	n/a	6	-999	n/a	n/a	n/a	n/a	8	[0, 0, 0]	-999	PAL1	2	R1232N
1068.353	19.827	1116256	RECALL_END	n/a	n/a	-999	-999	n/a	n/a	n/a	n/a	8	[0, 0, 0]	-999	PAL1	2	R1232N
1088.18	10.929	1136082	TRIAL	n/a	n/a	-999	-999	n/a	n/a	n/a	n/a	9	[0, 0, 0]	-999	PAL1	2	R1232N
1099.109	0.006	1147010	ENCODING_START	n/a	n/a	-999	-999	n/a	n/a	n/a	n/a	9	[0, 0, 0]	-999	PAL1	2	R1232N
1099.115	0.267	1147016	STUDY_ORIENT	n/a	n/a	1	1	ARK	FRUIT	FRUIT	ARK	9	[0, 0, 0]	-999	PAL1	2	R1232N
1099.382	0.7	1147283	STUDY_ORIENT_OFF	n/a	n/a	1	1	ARK	FRUIT	FRUIT	ARK	9	[0, 0, 0]	-999	PAL1	2	R1232N
1100.082	4.017	1147983	STUDY_PAIR	n/a	wordpools/wordpool_EN.txt	1	1	ARK	FRUIT	FRUIT	ARK	9	[0, 0, 0]	-999	PAL1	2	R1232N
1104.099	1.017	1152000	PAIR_OFF	n/a	n/a	1	1	ARK	FRUIT	FRUIT	ARK	9	[0, 0, 0]	-999	PAL1	2	R1232N
1105.116	0.267	1153017	STUDY_ORIENT	n/a	n/a	2	6	PIE	n/a	PIE	PRINCE	9	[0, 0, 0]	-999	PAL1	2	R1232N
1105.383	0.717	1153284	STUDY_ORIENT_OFF	n/a	n/a	2	6	PIE	n/a	PIE	PRINCE	9	[0, 0, 0]	-999	PAL1	2	R1232N
1106.1	4.017	1154001	STUDY_PAIR	n/a	wordpools/wordpool_EN.txt	2	6	PIE	n/a	PIE	PRINCE	9	[0, 0, 0]	-999	PAL1	2	R1232N
1110.117	1.017	1158018	PAIR_OFF	n/a	n/a	2	6	PIE	n/a	PIE	PRINCE	9	[0, 0, 0]	-999	PAL1	2	R1232N
1111.134	0.267	1159035	STUDY_ORIENT	n/a	n/a	3	5	RAT	PET	FLAG	RAT	9	[0, 0, 0]	-999	PAL1	2	R1232N
1111.401	0.534	1159302	STUDY_ORIENT_OFF	n/a	n/a	3	5	RAT	PET	FLAG	RAT	9	[0, 0, 0]	-999	PAL1	2	R1232N
1111.935	4.018	1159836	STUDY_PAIR	n/a	wordpools/wordpool_EN.txt	3	5	RAT	PET	FLAG	RAT	9	[0, 0, 0]	-999	PAL1	2	R1232N
1115.953	1.016	1163854	PAIR_OFF	n/a	n/a	3	5	RAT	PET	FLAG	RAT	9	[0, 0, 0]	-999	PAL1	2	R1232N
1116.969	0.266	1164870	STUDY_ORIENT	n/a	n/a	4	4	STICK	JEEP	JEEP	STICK	9	[0, 0, 0]	-999	PAL1	2	R1232N
1117.235	0.75	1165136	STUDY_ORIENT_OFF	n/a	n/a	4	4	STICK	JEEP	JEEP	STICK	9	[0, 0, 0]	-999	PAL1	2	R1232N
1117.985	4.017	1165886	STUDY_PAIR	n/a	wordpools/wordpool_EN.txt	4	4	STICK	JEEP	JEEP	STICK	9	[0, 0, 0]	-999	PAL1	2	R1232N
1122.002	1.017	1169902	PAIR_OFF	n/a	n/a	4	4	STICK	JEEP	JEEP	STICK	9	[0, 0, 0]	-999	PAL1	2	R1232N
1123.019	0.267	1170919	STUDY_ORIENT	n/a	n/a	5	3	PET	CALF	CALF	PET	9	[0, 0, 0]	-999	PAL1	2	R1232N
1123.286	0.651	1171186	STUDY_ORIENT_OFF	n/a	n/a	5	3	PET	CALF	CALF	PET	9	[0, 0, 0]	-999	PAL1	2	R1232N
1123.937	4.017	1171837	STUDY_PAIR	n/a	wordpools/wordpool_EN.txt	5	3	PET	CALF	CALF	PET	9	[0, 0, 0]	-999	PAL1	2	R1232N
1127.954	1.017	1175854	PAIR_OFF	n/a	n/a	5	3	PET	CALF	CALF	PET	9	[0, 0, 0]	-999	PAL1	2	R1232N
1128.971	0.266	1176871	STUDY_ORIENT	n/a	n/a	6	2	NAIL	SNAIL	SNAIL	NAIL	9	[0, 0, 0]	-999	PAL1	2	R1232N
1129.237	0.617	1177137	STUDY_ORIENT_OFF	n/a	n/a	6	2	NAIL	SNAIL	SNAIL	NAIL	9	[0, 0, 0]	-999	PAL1	2	R1232N
1129.854	4.018	1177754	STUDY_PAIR	n/a	wordpools/wordpool_EN.txt	6	2	NAIL	SNAIL	SNAIL	NAIL	9	[0, 0, 0]	-999	PAL1	2	R1232N
1133.872	1.001	1181772	PAIR_OFF	n/a	n/a	6	2	NAIL	SNAIL	SNAIL	NAIL	9	[0, 0, 0]	-999	PAL1	2	R1232N
1134.873	0.0	1182773	ENCODING_END	n/a	n/a	-999	-999	n/a	n/a	n/a	n/a	9	[0, 0, 0]	-999	PAL1	2	R1232N
1134.873	0.0	1182773	MATH_START	n/a	n/a	-999	-999	n/a	n/a	n/a	n/a	9	[0, 0, 0]	-999	PAL1	2	R1232N
1134.873	0.016	1182773	START	n/a	n/a	-999	-999	n/a	n/a	n/a	n/a	9	[-999, -999, -999]	-999	PAL1	2	R1232N
1134.889	2.833	1182789	PROB	2798	n/a	-999	-999	n/a	n/a	n/a	n/a	9	[6, 7, 1]	14	PAL1	2	R1232N
1137.722	1.9	1185622	PROB	1876	n/a	-999	-999	n/a	n/a	n/a	n/a	9	[6, 8, 1]	15	PAL1	2	R1232N
1139.622	3.335	1187522	PROB	3313	n/a	-999	-999	n/a	n/a	n/a	n/a	9	[7, 5, 7]	19	PAL1	2	R1232N
1142.957	2.783	1190857	PROB	2753	n/a	-999	-999	n/a	n/a	n/a	n/a	9	[3, 8, 6]	17	PAL1	2	R1232N
1145.74	2.767	1193640	PROB	2731	n/a	-999	-999	n/a	n/a	n/a	n/a	9	[4, 8, 2]	14	PAL1	2	R1232N
1148.507	2.217	1196406	PROB	2187	n/a	-999	-999	n/a	n/a	n/a	n/a	9	[5, 9, 3]	17	PAL1	2	R1232N
1150.724	1.85	1198623	PROB	1827	n/a	-999	-999	n/a	n/a	n/a	n/a	9	[5, 9, 1]	15	PAL1	2	R1232N
1152.574	5.378	1200473	PROB	5378	n/a	-999	-999	n/a	n/a	n/a	n/a	9	[8, 9, 3]	20	PAL1	2	R1232N
1157.952	0.007	1205851	STOP	n/a	n/a	-999	-999	n/a	n/a	n/a	n/a	9	[-999, -999, -999]	-999	PAL1	2	R1232N
1157.959	0.001	1205858	MATH_END	n/a	n/a	-999	-999	n/a	n/a	n/a	n/a	9	[0, 0, 0]	-999	PAL1	2	R1232N
1157.96	0.016	1205859	RECALL_START	n/a	n/a	-999	-999	n/a	n/a	n/a	n/a	9	[0, 0, 0]	-999	PAL1	2	R1232N
1157.976	0.266	1205875	TEST_ORIENT	n/a	n/a	1	1	ARK	FRUIT	FRUIT	ARK	9	[0, 0, 0]	-999	PAL1	2	R1232N
1158.242	0.684	1206141	RETRIEVAL_ORIENT_OFF	n/a	n/a	-999	-999	n/a	n/a	n/a	n/a	9	[0, 0, 0]	-999	PAL1	2	R1232N
1158.926	0.001	1206825	TEST_PROBE	n/a	wordpools/wordpool_EN.txt	1	1	ARK	FRUIT	FRUIT	ARK	9	[0, 0, 0]	-999	PAL1	2	R1232N
1158.927	1.529	1206826	REC_START	n/a	n/a	1	-999	n/a	FRUIT	n/a	n/a	9	[0, 0, 0]	-999	PAL1	2	R1232N
1160.456	0.169	1208355	REC_EVENT	1529	n/a	1	1	ARK	<>	FRUIT	ARK	9	[0, 0, 0]	-999	PAL1	2	R1232N
1160.625	2.319	1208524	REC_EVENT	1698	n/a	1	1	ARK	FRUIT	FRUIT	ARK	9	[0, 0, 0]	-999	PAL1	2	R1232N
1162.944	1.0	1210843	PROBE_OFF	n/a	n/a	1	-999	n/a	n/a	n/a	n/a	9	[0, 0, 0]	-999	PAL1	2	R1232N
1163.944	0.016	1211843	REC_END	n/a	n/a	1	-999	n/a	n/a	n/a	n/a	9	[0, 0, 0]	-999	PAL1	2	R1232N
1163.96	0.266	1211859	TEST_ORIENT	n/a	n/a	6	2	NAIL	SNAIL	SNAIL	NAIL	9	[0, 0, 0]	-999	PAL1	2	R1232N
1164.226	0.718	1212125	RETRIEVAL_ORIENT_OFF	n/a	n/a	1	-999	n/a	n/a	n/a	n/a	9	[0, 0, 0]	-999	PAL1	2	R1232N
1164.944	0.0	1212843	TEST_PROBE	n/a	wordpools/wordpool_EN.txt	6	2	NAIL	SNAIL	SNAIL	NAIL	9	[0, 0, 0]	-999	PAL1	2	R1232N
1164.944	1.258	1212843	REC_START	n/a	n/a	6	-999	n/a	SNAIL	n/a	n/a	9	[0, 0, 0]	-999	PAL1	2	R1232N
1166.202	2.759	1214101	REC_EVENT	1258	n/a	6	2	NAIL	SNAIL	SNAIL	NAIL	9	[0, 0, 0]	-999	PAL1	2	R1232N
1168.961	1.0	1216860	PROBE_OFF	n/a	n/a	6	-999	n/a	n/a	n/a	n/a	9	[0, 0, 0]	-999	PAL1	2	R1232N
1169.961	0.017	1217860	REC_END	n/a	n/a	6	-999	n/a	n/a	n/a	n/a	9	[0, 0, 0]	-999	PAL1	2	R1232N
1169.978	0.266	1217877	TEST_ORIENT	n/a	n/a	5	3	PET	CALF	CALF	PET	9	[0, 0, 0]	-999	PAL1	2	R1232N
1170.244	0.75	1218143	RETRIEVAL_ORIENT_OFF	n/a	n/a	6	-999	n/a	n/a	n/a	n/a	9	[0, 0, 0]	-999	PAL1	2	R1232N
1170.994	0.001	1218892	TEST_PROBE	n/a	wordpools/wordpool_EN.txt	5	3	PET	CALF	CALF	PET	9	[0, 0, 0]	-999	PAL1	2	R1232N
1170.995	1.147	1218893	REC_START	n/a	n/a	5	-999	n/a	CALF	n/a	n/a	9	[0, 0, 0]	-999	PAL1	2	R1232N
1172.142	2.869	1220040	REC_EVENT	1147	n/a	5	3	PET	CALF	CALF	PET	9	[0, 0, 0]	-999	PAL1	2	R1232N
1175.011	1.0	1222909	PROBE_OFF	n/a	n/a	5	-999	n/a	n/a	n/a	n/a	9	[0, 0, 0]	-999	PAL1	2	R1232N
1176.011	0.017	1223909	REC_END	n/a	n/a	5	-999	n/a	n/a	n/a	n/a	9	[0, 0, 0]	-999	PAL1	2	R1232N
1176.028	0.267	1223926	TEST_ORIENT	n/a	n/a	4	4	STICK	JEEP	JEEP	STICK	9	[0, 0, 0]	-999	PAL1	2	R1232N
1176.295	0.568	1224193	RETRIEVAL_ORIENT_OFF	n/a	n/a	5	-999	n/a	n/a	n/a	n/a	9	[0, 0, 0]	-999	PAL1	2	R1232N
1176.863	0.0	1224761	TEST_PROBE	n/a	wordpools/wordpool_EN.txt	4	4	STICK	JEEP	JEEP	STICK	9	[0, 0, 0]	-999	PAL1	2	R1232N
1176.863	1.651	1224761	REC_START	n/a	n/a	4	-999	n/a	JEEP	n/a	n/a	9	[0, 0, 0]	-999	PAL1	2	R1232N
1178.514	2.366	1226412	REC_EVENT	1651	n/a	4	4	STICK	JEEP	JEEP	STICK	9	[0, 0, 0]	-999	PAL1	2	R1232N
1180.88	1.0	1228778	PROBE_OFF	n/a	n/a	4	-999	n/a	n/a	n/a	n/a	9	[0, 0, 0]	-999	PAL1	2	R1232N
1181.88	0.017	1229778	REC_END	n/a	n/a	4	-999	n/a	n/a	n/a	n/a	9	[0, 0, 0]	-999	PAL1	2	R1232N
1181.897	0.265	1229795	TEST_ORIENT	n/a	n/a	3	5	RAT	PET	FLAG	RAT	9	[0, 0, 0]	-999	PAL1	2	R1232N
1182.162	0.617	1230060	RETRIEVAL_ORIENT_OFF	n/a	n/a	4	-999	n/a	n/a	n/a	n/a	9	[0, 0, 0]	-999	PAL1	2	R1232N
1182.779	0.001	1230677	TEST_PROBE	n/a	wordpools/wordpool_EN.txt	3	5	RAT	PET	FLAG	RAT	9	[0, 0, 0]	-999	PAL1	2	R1232N
1182.78	4.016	1230678	REC_START	n/a	n/a	3	-999	n/a	PET	n/a	n/a	9	[0, 0, 0]	-999	PAL1	2	R1232N
1186.796	0.214	1234694	PROBE_OFF	n/a	n/a	3	-999	n/a	n/a	n/a	n/a	9	[0, 0, 0]	-999	PAL1	2	R1232N
1187.01	0.787	1234908	REC_EVENT	4230	n/a	3	5	RAT	PET	FLAG	RAT	9	[0, 0, 0]	-999	PAL1	2	R1232N
1187.797	0.016	1235695	REC_END	n/a	n/a	3	-999	n/a	n/a	n/a	n/a	9	[0, 0, 0]	-999	PAL1	2	R1232N
1187.813	0.267	1235711	TEST_ORIENT	n/a	n/a	2	6	PIE	n/a	PIE	PRINCE	9	[0, 0, 0]	-999	PAL1	2	R1232N
1188.08	0.55	1235978	RETRIEVAL_ORIENT_OFF	n/a	n/a	3	-999	n/a	n/a	n/a	n/a	9	[0, 0, 0]	-999	PAL1	2	R1232N
1188.63	0.001	1236528	TEST_PROBE	n/a	wordpools/wordpool_EN.txt	2	6	PIE	n/a	PIE	PRINCE	9	[0, 0, 0]	-999	PAL1	2	R1232N
1188.631	0.044	1236529	REC_START	n/a	n/a	2	-999	n/a	n/a	n/a	n/a	9	[0, 0, 0]	-999	PAL1	2	R1232N
1188.675	3.972	1236573	REC_EVENT	44	n/a	2	6	PIE	<>	PIE	PRINCE	9	[0, 0, 0]	-999	PAL1	2	R1232N
1192.647	1.0	1240545	PROBE_OFF	n/a	n/a	2	-999	n/a	n/a	n/a	n/a	9	[0, 0, 0]	-999	PAL1	2	R1232N
1193.647	0.01	1241545	REC_END	n/a	n/a	2	-999	n/a	n/a	n/a	n/a	9	[0, 0, 0]	-999	PAL1	2	R1232N
1193.657	4.441	1241555	RECALL_END	n/a	n/a	-999	-999	n/a	n/a	n/a	n/a	9	[0, 0, 0]	-999	PAL1	2	R1232N
1198.098	10.928	1245995	TRIAL	n/a	n/a	-999	-999	n/a	n/a	n/a	n/a	10	[0, 0, 0]	-999	PAL1	2	R1232N
1209.026	0.008	1256923	ENCODING_START	n/a	n/a	-999	-999	n/a	n/a	n/a	n/a	10	[0, 0, 0]	-999	PAL1	2	R1232N
1209.034	0.266	1256931	STUDY_ORIENT	n/a	n/a	1	5	LIP	MULE	MULE	LIP	10	[0, 0, 0]	-999	PAL1	2	R1232N
1209.3	0.635	1257197	STUDY_ORIENT_OFF	n/a	n/a	1	5	LIP	MULE	MULE	LIP	10	[0, 0, 0]	-999	PAL1	2	R1232N
1209.935	4.017	1257832	STUDY_PAIR	n/a	wordpools/wordpool_EN.txt	1	5	LIP	MULE	MULE	LIP	10	[0, 0, 0]	-999	PAL1	2	R1232N
1213.952	1.017	1261849	PAIR_OFF	n/a	n/a	1	5	LIP	MULE	MULE	LIP	10	[0, 0, 0]	-999	PAL1	2	R1232N
1214.969	0.266	1262866	STUDY_ORIENT	n/a	n/a	2	6	PIN	PIN	PIN	PEN	10	[0, 0, 0]	-999	PAL1	2	R1232N
1215.235	0.75	1263132	STUDY_ORIENT_OFF	n/a	n/a	2	6	PIN	PIN	PIN	PEN	10	[0, 0, 0]	-999	PAL1	2	R1232N
1215.985	4.017	1263882	STUDY_PAIR	n/a	wordpools/wordpool_EN.txt	2	6	PIN	PIN	PIN	PEN	10	[0, 0, 0]	-999	PAL1	2	R1232N
1220.002	1.017	1267899	PAIR_OFF	n/a	n/a	2	6	PIN	PIN	PIN	PEN	10	[0, 0, 0]	-999	PAL1	2	R1232N
1221.019	0.266	1268915	STUDY_ORIENT	n/a	n/a	3	1	HAND	FLOOR	HAND	FLOOR	10	[0, 0, 0]	-999	PAL1	2	R1232N
1221.285	0.534	1269181	STUDY_ORIENT_OFF	n/a	n/a	3	1	HAND	FLOOR	HAND	FLOOR	10	[0, 0, 0]	-999	PAL1	2	R1232N
1221.819	4.017	1269715	STUDY_PAIR	n/a	wordpools/wordpool_EN.txt	3	1	HAND	FLOOR	HAND	FLOOR	10	[0, 0, 0]	-999	PAL1	2	R1232N
1225.836	1.017	1273732	PAIR_OFF	n/a	n/a	3	1	HAND	FLOOR	HAND	FLOOR	10	[0, 0, 0]	-999	PAL1	2	R1232N
1226.853	0.267	1274749	STUDY_ORIENT	n/a	n/a	4	4	PANTS	n/a	FLAME	PANTS	10	[0, 0, 0]	-999	PAL1	2	R1232N
1227.12	0.583	1275016	STUDY_ORIENT_OFF	n/a	n/a	4	4	PANTS	n/a	FLAME	PANTS	10	[0, 0, 0]	-999	PAL1	2	R1232N
1227.703	4.001	1275599	STUDY_PAIR	n/a	wordpools/wordpool_EN.txt	4	4	PANTS	n/a	FLAME	PANTS	10	[0, 0, 0]	-999	PAL1	2	R1232N
1231.704	1.017	1279600	PAIR_OFF	n/a	n/a	4	4	PANTS	n/a	FLAME	PANTS	10	[0, 0, 0]	-999	PAL1	2	R1232N
1232.721	0.266	1280617	STUDY_ORIENT	n/a	n/a	5	3	BLOOM	n/a	CLOUD	BLOOM	10	[0, 0, 0]	-999	PAL1	2	R1232N
1232.987	0.617	1280883	STUDY_ORIENT_OFF	n/a	n/a	5	3	BLOOM	n/a	CLOUD	BLOOM	10	[0, 0, 0]	-999	PAL1	2	R1232N
1233.604	4.018	1281500	STUDY_PAIR	n/a	wordpools/wordpool_EN.txt	5	3	BLOOM	n/a	CLOUD	BLOOM	10	[0, 0, 0]	-999	PAL1	2	R1232N
1237.622	1.016	1285518	PAIR_OFF	n/a	n/a	5	3	BLOOM	n/a	CLOUD	BLOOM	10	[0, 0, 0]	-999	PAL1	2	R1232N
1238.638	0.268	1286534	STUDY_ORIENT	n/a	n/a	6	2	PARK	DOG	PARK	DOG	10	[0, 0, 0]	-999	PAL1	2	R1232N
1238.906	0.716	1286802	STUDY_ORIENT_OFF	n/a	n/a	6	2	PARK	DOG	PARK	DOG	10	[0, 0, 0]	-999	PAL1	2	R1232N
1239.622	4.017	1287518	STUDY_PAIR	n/a	wordpools/wordpool_EN.txt	6	2	PARK	DOG	PARK	DOG	10	[0, 0, 0]	-999	PAL1	2	R1232N
1243.639	1.0	1291535	PAIR_OFF	n/a	n/a	6	2	PARK	DOG	PARK	DOG	10	[0, 0, 0]	-999	PAL1	2	R1232N
1244.639	0.0	1292535	ENCODING_END	n/a	n/a	-999	-999	n/a	n/a	n/a	n/a	10	[0, 0, 0]	-999	PAL1	2	R1232N
1244.639	0.001	1292535	MATH_START	n/a	n/a	-999	-999	n/a	n/a	n/a	n/a	10	[0, 0, 0]	-999	PAL1	2	R1232N
1244.64	0.016	1292536	START	n/a	n/a	-999	-999	n/a	n/a	n/a	n/a	10	[-999, -999, -999]	-999	PAL1	2	R1232N
1244.656	2.884	1292552	PROB	2846	n/a	-999	-999	n/a	n/a	n/a	n/a	10	[1, 7, 2]	10	PAL1	2	R1232N
1247.54	1.75	1295435	PROB	1723	n/a	-999	-999	n/a	n/a	n/a	n/a	10	[5, 4, 5]	14	PAL1	2	R1232N
1249.29	2.984	1297185	PROB	2948	n/a	-999	-999	n/a	n/a	n/a	n/a	10	[8, 3, 5]	16	PAL1	2	R1232N
1252.274	2.601	1300169	PROB	2573	n/a	-999	-999	n/a	n/a	n/a	n/a	10	[4, 1, 7]	12	PAL1	2	R1232N
1254.875	2.6	1302770	PROB	2571	n/a	-999	-999	n/a	n/a	n/a	n/a	10	[4, 3, 9]	16	PAL1	2	R1232N
1257.475	2.418	1305370	PROB	2380	n/a	-999	-999	n/a	n/a	n/a	n/a	10	[2, 3, 8]	14	PAL1	2	R1232N
1259.893	3.199	1307788	PROB	3162	n/a	-999	-999	n/a	n/a	n/a	n/a	10	[4, 9, 8]	21	PAL1	2	R1232N
1263.092	1.955	1310987	PROB	1955	n/a	-999	-999	n/a	n/a	n/a	n/a	10	[3, 3, 7]	13	PAL1	2	R1232N
1265.047	0.012	1312942	STOP	n/a	n/a	-999	-999	n/a	n/a	n/a	n/a	10	[-999, -999, -999]	-999	PAL1	2	R1232N
1265.059	0.001	1312954	MATH_END	n/a	n/a	-999	-999	n/a	n/a	n/a	n/a	10	[0, 0, 0]	-999	PAL1	2	R1232N
1265.06	0.016	1312955	RECALL_START	n/a	n/a	-999	-999	n/a	n/a	n/a	n/a	10	[0, 0, 0]	-999	PAL1	2	R1232N
1265.076	0.267	1312971	TEST_ORIENT	n/a	n/a	3	1	HAND	FLOOR	HAND	FLOOR	10	[0, 0, 0]	-999	PAL1	2	R1232N
1265.343	0.618	1313238	RETRIEVAL_ORIENT_OFF	n/a	n/a	-999	-999	n/a	n/a	n/a	n/a	10	[0, 0, 0]	-999	PAL1	2	R1232N
1265.961	0.0	1313856	TEST_PROBE	n/a	wordpools/wordpool_EN.txt	3	1	HAND	FLOOR	HAND	FLOOR	10	[0, 0, 0]	-999	PAL1	2	R1232N
1265.961	1.054	1313856	REC_START	n/a	n/a	3	-999	n/a	FLOOR	n/a	n/a	10	[0, 0, 0]	-999	PAL1	2	R1232N
1267.015	2.963	1314910	REC_EVENT	1054	n/a	3	1	HAND	FLOOR	HAND	FLOOR	10	[0, 0, 0]	-999	PAL1	2	R1232N
1269.978	1.0	1317872	PROBE_OFF	n/a	n/a	3	-999	n/a	n/a	n/a	n/a	10	[0, 0, 0]	-999	PAL1	2	R1232N
1270.978	0.016	1318872	REC_END	n/a	n/a	3	-999	n/a	n/a	n/a	n/a	10	[0, 0, 0]	-999	PAL1	2	R1232N
1270.994	0.266	1318888	TEST_ORIENT	n/a	n/a	6	2	PARK	DOG	PARK	DOG	10	[0, 0, 0]	-999	PAL1	2	R1232N
1271.26	0.618	1319154	RETRIEVAL_ORIENT_OFF	n/a	n/a	3	-999	n/a	n/a	n/a	n/a	10	[0, 0, 0]	-999	PAL1	2	R1232N
1271.878	0.001	1319772	TEST_PROBE	n/a	wordpools/wordpool_EN.txt	6	2	PARK	DOG	PARK	DOG	10	[0, 0, 0]	-999	PAL1	2	R1232N
1271.879	1.456	1319773	REC_START	n/a	n/a	6	-999	n/a	DOG	n/a	n/a	10	[0, 0, 0]	-999	PAL1	2	R1232N
1273.335	2.561	1321229	REC_EVENT	1456	n/a	6	2	PARK	DOG	PARK	DOG	10	[0, 0, 0]	-999	PAL1	2	R1232N
1275.896	1.011	1323790	PROBE_OFF	n/a	n/a	6	-999	n/a	n/a	n/a	n/a	10	[0, 0, 0]	-999	PAL1	2	R1232N
1276.907	0.022	1324801	REC_END	n/a	n/a	6	-999	n/a	n/a	n/a	n/a	10	[0, 0, 0]	-999	PAL1	2	R1232N
1276.929	0.266	1324823	TEST_ORIENT	n/a	n/a	5	3	BLOOM	n/a	CLOUD	BLOOM	10	[0, 0, 0]	-999	PAL1	2	R1232N
1277.195	0.6	1325089	RETRIEVAL_ORIENT_OFF	n/a	n/a	6	-999	n/a	n/a	n/a	n/a	10	[0, 0, 0]	-999	PAL1	2	R1232N
1277.795	0.0	1325689	TEST_PROBE	n/a	wordpools/wordpool_EN.txt	5	3	BLOOM	n/a	CLOUD	BLOOM	10	[0, 0, 0]	-999	PAL1	2	R1232N
1277.795	4.017	1325689	REC_START	n/a	n/a	5	-999	n/a	n/a	n/a	n/a	10	[0, 0, 0]	-999	PAL1	2	R1232N
1281.812	0.835	1329706	PROBE_OFF	n/a	n/a	5	-999	n/a	n/a	n/a	n/a	10	[0, 0, 0]	-999	PAL1	2	R1232N
1282.647	0.165	1330541	REC_EVENT	4852	n/a	5	3	BLOOM	<>	CLOUD	BLOOM	10	[0, 0, 0]	-999	PAL1	2	R1232N
1282.812	0.017	1330706	REC_END	n/a	n/a	5	-999	n/a	n/a	n/a	n/a	10	[0, 0, 0]	-999	PAL1	2	R1232N
1282.829	0.267	1330723	TEST_ORIENT	n/a	n/a	4	4	PANTS	n/a	FLAME	PANTS	10	[0, 0, 0]	-999	PAL1	2	R1232N
1283.096	0.683	1330990	RETRIEVAL_ORIENT_OFF	n/a	n/a	5	-999	n/a	n/a	n/a	n/a	10	[0, 0, 0]	-999	PAL1	2	R1232N
1283.779	0.001	1331673	TEST_PROBE	n/a	wordpools/wordpool_EN.txt	4	4	PANTS	n/a	FLAME	PANTS	10	[0, 0, 0]	-999	PAL1	2	R1232N
1283.78	4.017	1331674	REC_START	n/a	n/a	4	-999	n/a	n/a	n/a	n/a	10	[0, 0, 0]	-999	PAL1	2	R1232N
1287.797	0.835	1335691	PROBE_OFF	n/a	n/a	4	-999	n/a	n/a	n/a	n/a	10	[0, 0, 0]	-999	PAL1	2	R1232N
1288.632	0.165	1336526	REC_EVENT	4852	n/a	4	4	PANTS	<>	FLAME	PANTS	10	[0, 0, 0]	-999	PAL1	2	R1232N
1288.797	0.016	1336691	REC_END	n/a	n/a	4	-999	n/a	n/a	n/a	n/a	10	[0, 0, 0]	-999	PAL1	2	R1232N
1288.813	0.267	1336707	TEST_ORIENT	n/a	n/a	1	5	LIP	MULE	MULE	LIP	10	[0, 0, 0]	-999	PAL1	2	R1232N
1289.08	0.717	1336974	RETRIEVAL_ORIENT_OFF	n/a	n/a	4	-999	n/a	n/a	n/a	n/a	10	[0, 0, 0]	-999	PAL1	2	R1232N
1289.797	0.0	1337691	TEST_PROBE	n/a	wordpools/wordpool_EN.txt	1	5	LIP	MULE	MULE	LIP	10	[0, 0, 0]	-999	PAL1	2	R1232N
1289.797	0.0	1337691	REC_START	n/a	n/a	1	-999	n/a	MULE	n/a	n/a	10	[0, 0, 0]	-999	PAL1	2	R1232N
1289.797	0.273	1337691	REC_EVENT	0	n/a	1	5	LIP	<>	MULE	LIP	10	[0, 0, 0]	-999	PAL1	2	R1232N
1290.07	1.482	1337964	REC_EVENT	273	n/a	1	5	LIP	FLAME	MULE	LIP	10	[0, 0, 0]	-999	PAL1	2	R1232N
1291.552	2.262	1339446	REC_EVENT	1755	n/a	1	5	LIP	MULE	MULE	LIP	10	[0, 0, 0]	-999	PAL1	2	R1232N
1293.814	1.0	1341707	PROBE_OFF	n/a	n/a	1	-999	n/a	n/a	n/a	n/a	10	[0, 0, 0]	-999	PAL1	2	R1232N
1294.814	0.017	1342707	REC_END	n/a	n/a	1	-999	n/a	n/a	n/a	n/a	10	[0, 0, 0]	-999	PAL1	2	R1232N
1294.831	0.267	1342724	TEST_ORIENT	n/a	n/a	2	6	PIN	PIN	PIN	PEN	10	[0, 0, 0]	-999	PAL1	2	R1232N
1295.098	0.55	1342991	RETRIEVAL_ORIENT_OFF	n/a	n/a	1	-999	n/a	n/a	n/a	n/a	10	[0, 0, 0]	-999	PAL1	2	R1232N
1295.648	0.0	1343541	TEST_PROBE	n/a	wordpools/wordpool_EN.txt	2	6	PIN	PIN	PIN	PEN	10	[0, 0, 0]	-999	PAL1	2	R1232N
1295.648	1.141	1343541	REC_START	n/a	n/a	2	-999	n/a	PIN	n/a	n/a	10	[0, 0, 0]	-999	PAL1	2	R1232N
1296.789	2.876	1344682	REC_EVENT	1141	n/a	2	6	PIN	PIN	PIN	PEN	10	[0, 0, 0]	-999	PAL1	2	R1232N
1299.665	1.0	1347558	PROBE_OFF	n/a	n/a	2	-999	n/a	n/a	n/a	n/a	10	[0, 0, 0]	-999	PAL1	2	R1232N
1300.665	0.005	1348558	REC_END	n/a	n/a	2	-999	n/a	n/a	n/a	n/a	10	[0, 0, 0]	-999	PAL1	2	R1232N
1300.67	38.468	1348563	RECALL_END	n/a	n/a	-999	-999	n/a	n/a	n/a	n/a	10	[0, 0, 0]	-999	PAL1	2	R1232N
1339.138	10.929	1387030	TRIAL	n/a	n/a	-999	-999	n/a	n/a	n/a	n/a	11	[0, 0, 0]	-999	PAL1	2	R1232N
1350.067	0.006	1397958	ENCODING_START	n/a	n/a	-999	-999	n/a	n/a	n/a	n/a	11	[0, 0, 0]	-999	PAL1	2	R1232N
1350.073	0.267	1397964	STUDY_ORIENT	n/a	n/a	1	5	WORLD	LAND	LAND	WORLD	11	[0, 0, 0]	-999	PAL1	2	R1232N
1350.34	0.551	1398231	STUDY_ORIENT_OFF	n/a	n/a	1	5	WORLD	LAND	LAND	WORLD	11	[0, 0, 0]	-999	PAL1	2	R1232N
1350.891	4.018	1398782	STUDY_PAIR	n/a	wordpools/wordpool_EN.txt	1	5	WORLD	LAND	LAND	WORLD	11	[0, 0, 0]	-999	PAL1	2	R1232N
1354.909	1.017	1402800	PAIR_OFF	n/a	n/a	1	5	WORLD	LAND	LAND	WORLD	11	[0, 0, 0]	-999	PAL1	2	R1232N
1355.926	0.265	1403817	STUDY_ORIENT	n/a	n/a	2	4	BIRD	n/a	FISH	BIRD	11	[0, 0, 0]	-999	PAL1	2	R1232N
1356.191	0.584	1404082	STUDY_ORIENT_OFF	n/a	n/a	2	4	BIRD	n/a	FISH	BIRD	11	[0, 0, 0]	-999	PAL1	2	R1232N
1356.775	4.017	1404666	STUDY_PAIR	n/a	wordpools/wordpool_EN.txt	2	4	BIRD	n/a	FISH	BIRD	11	[0, 0, 0]	-999	PAL1	2	R1232N
1360.792	1.017	1408683	PAIR_OFF	n/a	n/a	2	4	BIRD	n/a	FISH	BIRD	11	[0, 0, 0]	-999	PAL1	2	R1232N
1361.809	0.266	1409700	STUDY_ORIENT	n/a	n/a	3	1	SOCK	TOAST	SOCK	TOAST	11	[0, 0, 0]	-999	PAL1	2	R1232N
1362.075	0.701	1409966	STUDY_ORIENT_OFF	n/a	n/a	3	1	SOCK	TOAST	SOCK	TOAST	11	[0, 0, 0]	-999	PAL1	2	R1232N
1362.776	4.017	1410667	STUDY_PAIR	n/a	wordpools/wordpool_EN.txt	3	1	SOCK	TOAST	SOCK	TOAST	11	[0, 0, 0]	-999	PAL1	2	R1232N
1366.793	1.017	1414684	PAIR_OFF	n/a	n/a	3	1	SOCK	TOAST	SOCK	TOAST	11	[0, 0, 0]	-999	PAL1	2	R1232N
1367.81	0.266	1415700	STUDY_ORIENT	n/a	n/a	4	6	BAT	n/a	SHELL	BAT	11	[0, 0, 0]	-999	PAL1	2	R1232N
1368.076	0.551	1415966	STUDY_ORIENT_OFF	n/a	n/a	4	6	BAT	n/a	SHELL	BAT	11	[0, 0, 0]	-999	PAL1	2	R1232N
1368.627	4.017	1416517	STUDY_PAIR	n/a	wordpools/wordpool_EN.txt	4	6	BAT	n/a	SHELL	BAT	11	[0, 0, 0]	-999	PAL1	2	R1232N
1372.644	1.017	1420534	PAIR_OFF	n/a	n/a	4	6	BAT	n/a	SHELL	BAT	11	[0, 0, 0]	-999	PAL1	2	R1232N
1373.661	0.267	1421551	STUDY_ORIENT	n/a	n/a	5	3	CORD	n/a	PIG	CORD	11	[0, 0, 0]	-999	PAL1	2	R1232N
1373.928	0.583	1421818	STUDY_ORIENT_OFF	n/a	n/a	5	3	CORD	n/a	PIG	CORD	11	[0, 0, 0]	-999	PAL1	2	R1232N
1374.511	4.017	1422401	STUDY_PAIR	n/a	wordpools/wordpool_EN.txt	5	3	CORD	n/a	PIG	CORD	11	[0, 0, 0]	-999	PAL1	2	R1232N
1378.528	1.017	1426418	PAIR_OFF	n/a	n/a	5	3	CORD	n/a	PIG	CORD	11	[0, 0, 0]	-999	PAL1	2	R1232N
1379.545	0.267	1427435	STUDY_ORIENT	n/a	n/a	6	2	FAN	BADGE	FAN	BADGE	11	[0, 0, 0]	-999	PAL1	2	R1232N
1379.812	0.633	1427702	STUDY_ORIENT_OFF	n/a	n/a	6	2	FAN	BADGE	FAN	BADGE	11	[0, 0, 0]	-999	PAL1	2	R1232N
1380.445	4.018	1428335	STUDY_PAIR	n/a	wordpools/wordpool_EN.txt	6	2	FAN	BADGE	FAN	BADGE	11	[0, 0, 0]	-999	PAL1	2	R1232N
1384.463	1.001	1432353	PAIR_OFF	n/a	n/a	6	2	FAN	BADGE	FAN	BADGE	11	[0, 0, 0]	-999	PAL1	2	R1232N
1385.464	0.0	1433354	ENCODING_END	n/a	n/a	-999	-999	n/a	n/a	n/a	n/a	11	[0, 0, 0]	-999	PAL1	2	R1232N
1385.464	0.0	1433354	MATH_START	n/a	n/a	-999	-999	n/a	n/a	n/a	n/a	11	[0, 0, 0]	-999	PAL1	2	R1232N
1385.464	0.015	1433354	START	n/a	n/a	-999	-999	n/a	n/a	n/a	n/a	11	[-999, -999, -999]	-999	PAL1	2	R1232N
1385.479	2.984	1433369	PROB	2960	n/a	-999	-999	n/a	n/a	n/a	n/a	11	[5, 4, 4]	13	PAL1	2	R1232N
1388.463	1.834	1436353	PROB	1800	n/a	-999	-999	n/a	n/a	n/a	n/a	11	[7, 8, 6]	21	PAL1	2	R1232N
1390.297	1.95	1438187	PROB	1918	n/a	-999	-999	n/a	n/a	n/a	n/a	11	[8, 6, 4]	18	PAL1	2	R1232N
1392.247	1.817	1440136	PROB	1784	n/a	-999	-999	n/a	n/a	n/a	n/a	11	[7, 7, 1]	15	PAL1	2	R1232N
1394.064	2.45	1441953	PROB	2422	n/a	-999	-999	n/a	n/a	n/a	n/a	11	[5, 1, 9]	15	PAL1	2	R1232N
1396.514	2.484	1444403	PROB	2462	n/a	-999	-999	n/a	n/a	n/a	n/a	11	[1, 4, 5]	10	PAL1	2	R1232N
1398.998	2.234	1446887	PROB	2201	n/a	-999	-999	n/a	n/a	n/a	n/a	11	[5, 6, 2]	13	PAL1	2	R1232N
1401.232	3.184	1449121	PROB	3150	n/a	-999	-999	n/a	n/a	n/a	n/a	11	[4, 5, 7]	13	PAL1	2	R1232N
1404.416	3.246	1452305	PROB	3246	n/a	-999	-999	n/a	n/a	n/a	n/a	11	[8, 8, 7]	23	PAL1	2	R1232N
1407.662	0.021	1455551	STOP	n/a	n/a	-999	-999	n/a	n/a	n/a	n/a	11	[-999, -999, -999]	-999	PAL1	2	R1232N
1407.683	0.0	1455572	MATH_END	n/a	n/a	-999	-999	n/a	n/a	n/a	n/a	11	[0, 0, 0]	-999	PAL1	2	R1232N
1407.683	0.017	1455572	RECALL_START	n/a	n/a	-999	-999	n/a	n/a	n/a	n/a	11	[0, 0, 0]	-999	PAL1	2	R1232N
1407.7	0.267	1455589	TEST_ORIENT	n/a	n/a	3	1	SOCK	TOAST	SOCK	TOAST	11	[0, 0, 0]	-999	PAL1	2	R1232N
1407.967	0.666	1455856	RETRIEVAL_ORIENT_OFF	n/a	n/a	-999	-999	n/a	n/a	n/a	n/a	11	[0, 0, 0]	-999	PAL1	2	R1232N
1408.633	0.001	1456522	TEST_PROBE	n/a	wordpools/wordpool_EN.txt	3	1	SOCK	TOAST	SOCK	TOAST	11	[0, 0, 0]	-999	PAL1	2	R1232N
1408.634	2.525	1456523	REC_START	n/a	n/a	3	-999	n/a	TOAST	n/a	n/a	11	[0, 0, 0]	-999	PAL1	2	R1232N
1411.159	1.492	1459048	REC_EVENT	2525	n/a	3	1	SOCK	TOAST	SOCK	TOAST	11	[0, 0, 0]	-999	PAL1	2	R1232N
1412.651	1.012	1460540	PROBE_OFF	n/a	n/a	3	-999	n/a	n/a	n/a	n/a	11	[0, 0, 0]	-999	PAL1	2	R1232N
1413.663	0.021	1461552	REC_END	n/a	n/a	3	-999	n/a	n/a	n/a	n/a	11	[0, 0, 0]	-999	PAL1	2	R1232N
1413.684	0.268	1461573	TEST_ORIENT	n/a	n/a	6	2	FAN	BADGE	FAN	BADGE	11	[0, 0, 0]	-999	PAL1	2	R1232N
1413.952	0.616	1461841	RETRIEVAL_ORIENT_OFF	n/a	n/a	3	-999	n/a	n/a	n/a	n/a	11	[0, 0, 0]	-999	PAL1	2	R1232N
1414.568	0.0	1462457	TEST_PROBE	n/a	wordpools/wordpool_EN.txt	6	2	FAN	BADGE	FAN	BADGE	11	[0, 0, 0]	-999	PAL1	2	R1232N
1414.568	1.899	1462457	REC_START	n/a	n/a	6	-999	n/a	BADGE	n/a	n/a	11	[0, 0, 0]	-999	PAL1	2	R1232N
1416.467	2.118	1464356	REC_EVENT	1899	n/a	6	2	FAN	BADGE	FAN	BADGE	11	[0, 0, 0]	-999	PAL1	2	R1232N
1418.585	1.0	1466473	PROBE_OFF	n/a	n/a	6	-999	n/a	n/a	n/a	n/a	11	[0, 0, 0]	-999	PAL1	2	R1232N
1419.585	0.017	1467473	REC_END	n/a	n/a	6	-999	n/a	n/a	n/a	n/a	11	[0, 0, 0]	-999	PAL1	2	R1232N
1419.602	0.267	1467490	TEST_ORIENT	n/a	n/a	5	3	CORD	n/a	PIG	CORD	11	[0, 0, 0]	-999	PAL1	2	R1232N
1419.869	0.699	1467757	RETRIEVAL_ORIENT_OFF	n/a	n/a	6	-999	n/a	n/a	n/a	n/a	11	[0, 0, 0]	-999	PAL1	2	R1232N
1420.568	0.001	1468456	TEST_PROBE	n/a	wordpools/wordpool_EN.txt	5	3	CORD	n/a	PIG	CORD	11	[0, 0, 0]	-999	PAL1	2	R1232N
1420.569	3.111	1468457	REC_START	n/a	n/a	5	-999	n/a	n/a	n/a	n/a	11	[0, 0, 0]	-999	PAL1	2	R1232N
1423.68	0.922	1471568	REC_EVENT	3111	n/a	5	3	CORD	<>	PIG	CORD	11	[0, 0, 0]	-999	PAL1	2	R1232N
1424.602	1.001	1472490	PROBE_OFF	n/a	n/a	5	-999	n/a	n/a	n/a	n/a	11	[0, 0, 0]	-999	PAL1	2	R1232N
1425.603	0.016	1473491	REC_END	n/a	n/a	5	-999	n/a	n/a	n/a	n/a	11	[0, 0, 0]	-999	PAL1	2	R1232N
1425.619	0.268	1473507	TEST_ORIENT	n/a	n/a	2	4	BIRD	n/a	FISH	BIRD	11	[0, 0, 0]	-999	PAL1	2	R1232N
1425.887	0.616	1473775	RETRIEVAL_ORIENT_OFF	n/a	n/a	5	-999	n/a	n/a	n/a	n/a	11	[0, 0, 0]	-999	PAL1	2	R1232N
1426.503	0.0	1474391	REC_START	n/a	n/a	2	-999	n/a	n/a	n/a	n/a	11	[0, 0, 0]	-999	PAL1	2	R1232N
1426.503	3.108	1474391	TEST_PROBE	n/a	wordpools/wordpool_EN.txt	2	4	BIRD	n/a	FISH	BIRD	11	[0, 0, 0]	-999	PAL1	2	R1232N
1429.611	0.909	1477499	REC_EVENT	3108	n/a	2	4	BIRD	<>	FISH	BIRD	11	[0, 0, 0]	-999	PAL1	2	R1232N
1430.52	1.001	1478408	PROBE_OFF	n/a	n/a	2	-999	n/a	n/a	n/a	n/a	11	[0, 0, 0]	-999	PAL1	2	R1232N
1431.521	0.016	1479409	REC_END	n/a	n/a	2	-999	n/a	n/a	n/a	n/a	11	[0, 0, 0]	-999	PAL1	2	R1232N
1431.537	0.267	1479425	TEST_ORIENT	n/a	n/a	1	5	WORLD	LAND	LAND	WORLD	11	[0, 0, 0]	-999	PAL1	2	R1232N
1431.804	0.55	1479692	RETRIEVAL_ORIENT_OFF	n/a	n/a	2	-999	n/a	n/a	n/a	n/a	11	[0, 0, 0]	-999	PAL1	2	R1232N
1432.354	0.0	1480242	TEST_PROBE	n/a	wordpools/wordpool_EN.txt	1	5	WORLD	LAND	LAND	WORLD	11	[0, 0, 0]	-999	PAL1	2	R1232N
1432.354	1.084	1480242	REC_START	n/a	n/a	1	-999	n/a	LAND	n/a	n/a	11	[0, 0, 0]	-999	PAL1	2	R1232N
