onset	duration	sample	trial_type	response_time	serialpos	probepos	probe_word	resp_word	study_1	study_2	list	test	answer	experiment	session	subject
0.0	71.018	3965502	SESS_START	n/a	-999	-999	n/a	n/a	n/a	n/a	-999	[0, 0, 0]	-999	PAL1	2	R1095N
71.018	1.017	4036520	START	n/a	-999	-999	n/a	n/a	n/a	n/a	-1	[-999, -999, -999]	-999	PAL1	2	R1095N
72.035	7.702	4037537	PROB	7672	-999	-999	n/a	n/a	n/a	n/a	-1	[8, 4, 8]	20	PAL1	2	R1095N
79.737	3.567	4045239	PROB	3546	-999	-999	n/a	n/a	n/a	n/a	-1	[5, 6, 1]	12	PAL1	2	R1095N
83.304	6.251	4048806	PROB	6227	-999	-999	n/a	n/a	n/a	n/a	-1	[7, 8, 8]	23	PAL1	2	R1095N
89.555	2.672	4055057	PROB	2672	-999	-999	n/a	n/a	n/a	n/a	-1	[2, 1, 2]	5	PAL1	2	R1095N
92.227	35.483	4057729	STOP	n/a	-999	-999	n/a	n/a	n/a	n/a	-1	[-999, -999, -999]	-999	PAL1	2	R1095N
127.71	13.963	4093212	FEEDBACK_SHOW_ALL_PAIRS	n/a	-999	-999	n/a	n/a	n/a	n/a	-999	[0, 0, 0]	-999	PAL1	2	R1095N
141.673	10.439	4107175	ENCODING_START	n/a	0	-999	n/a	n/a	n/a	n/a	1	[0, 0, 0]	-999	PAL1	2	R1095N
152.112	0.8	4117614	STUDY_ORIENT	n/a	1	1	CART	STAIR	CART	STAIR	1	[0, 0, 0]	-999	PAL1	2	R1095N
152.912	5.034	4118414	STUDY_PAIR	n/a	1	1	CART	STAIR	CART	STAIR	1	[0, 0, 0]	-999	PAL1	2	R1095N
157.946	0.967	4123448	STUDY_ORIENT	n/a	2	6	FLAG	SAIL	SAIL	FLAG	1	[0, 0, 0]	-999	PAL1	2	R1095N
158.913	5.034	4124415	STUDY_PAIR	n/a	2	6	FLAG	SAIL	SAIL	FLAG	1	[0, 0, 0]	-999	PAL1	2	R1095N
163.947	0.983	4129449	STUDY_ORIENT	n/a	3	3	WOOD	APE	APE	WOOD	1	[0, 0, 0]	-999	PAL1	2	R1095N
164.93	5.034	4130432	STUDY_PAIR	n/a	3	3	WOOD	APE	APE	WOOD	1	[0, 0, 0]	-999	PAL1	2	R1095N
169.964	0.818	4135466	STUDY_ORIENT	n/a	4	2	SUIT	MILK	SUIT	MILK	1	[0, 0, 0]	-999	PAL1	2	R1095N
170.782	5.034	4136284	STUDY_PAIR	n/a	4	2	SUIT	MILK	SUIT	MILK	1	[0, 0, 0]	-999	PAL1	2	R1095N
175.816	0.85	4141318	STUDY_ORIENT	n/a	5	5	BEAK	VAN	VAN	BEAK	1	[0, 0, 0]	-999	PAL1	2	R1095N
176.666	5.034	4142168	STUDY_PAIR	n/a	5	5	BEAK	VAN	VAN	BEAK	1	[0, 0, 0]	-999	PAL1	2	R1095N
181.7	0.967	4147202	STUDY_ORIENT	n/a	6	4	BUSH	COUCH	BUSH	COUCH	1	[0, 0, 0]	-999	PAL1	2	R1095N
182.667	4.017	4148169	STUDY_PAIR	n/a	6	4	BUSH	COUCH	BUSH	COUCH	1	[0, 0, 0]	-999	PAL1	2	R1095N
186.684	1.0	4152186	START	n/a	-999	-999	n/a	n/a	n/a	n/a	1	[-999, -999, -999]	-999	PAL1	2	R1095N
187.684	0.017	4153186	MATH_START	n/a	-999	-999	n/a	n/a	n/a	n/a	1	[0, 0, 0]	-999	PAL1	2	R1095N
187.701	8.851	4153203	PROB	8817	-999	-999	n/a	n/a	n/a	n/a	1	[8, 7, 4]	19	PAL1	2	R1095N
196.552	3.784	4162054	PROB	3750	-999	-999	n/a	n/a	n/a	n/a	1	[3, 4, 2]	9	PAL1	2	R1095N
200.336	3.433	4165838	PROB	3406	-999	-999	n/a	n/a	n/a	n/a	1	[7, 1, 3]	11	PAL1	2	R1095N
203.769	8.084	4169271	PROB	8084	-999	-999	n/a	n/a	n/a	n/a	1	[5, 4, 9]	18	PAL1	2	R1095N
211.853	0.016	4177355	STOP	n/a	-999	-999	n/a	n/a	n/a	n/a	1	[-999, -999, -999]	-999	PAL1	2	R1095N
211.869	0.0	4177371	TEST_START	n/a	-999	-999	n/a	n/a	n/a	n/a	1	[0, 0, 0]	-999	PAL1	2	R1095N
211.869	0.017	4177371	MATH_END	n/a	-999	-999	n/a	n/a	n/a	n/a	1	[0, 0, 0]	-999	PAL1	2	R1095N
211.886	0.885	4177388	TEST_ORIENT	n/a	1	1	CART	STAIR	CART	STAIR	1	[0, 0, 0]	-999	PAL1	2	R1095N
212.771	0.0	4178273	TEST_PROBE	n/a	1	1	CART	STAIR	CART	STAIR	1	[0, 0, 0]	-999	PAL1	2	R1095N
212.771	1.59	4178273	REC_START	n/a	1	-999	n/a	STAIR	n/a	n/a	1	[0, 0, 0]	-999	PAL1	2	R1095N
214.361	3.434	4179863	REC_EVENT	1590	1	1	CART	STAIR	CART	STAIR	1	[0, 0, 0]	-999	PAL1	2	R1095N
217.795	0.01	4183297	REC_END	n/a	1	-999	n/a	n/a	n/a	n/a	1	[0, 0, 0]	-999	PAL1	2	R1095N
217.805	0.883	4183307	TEST_ORIENT	n/a	4	2	SUIT	MILK	SUIT	MILK	1	[0, 0, 0]	-999	PAL1	2	R1095N
218.688	0.001	4184190	TEST_PROBE	n/a	4	2	SUIT	MILK	SUIT	MILK	1	[0, 0, 0]	-999	PAL1	2	R1095N
218.689	1.051	4184191	REC_START	n/a	4	-999	n/a	MILK	n/a	n/a	1	[0, 0, 0]	-999	PAL1	2	R1095N
219.74	3.973	4185242	REC_EVENT	1051	4	2	SUIT	MILK	SUIT	MILK	1	[0, 0, 0]	-999	PAL1	2	R1095N
223.713	0.009	4189215	REC_END	n/a	4	-999	n/a	n/a	n/a	n/a	1	[0, 0, 0]	-999	PAL1	2	R1095N
223.722	0.833	4189224	TEST_ORIENT	n/a	3	3	WOOD	APE	APE	WOOD	1	[0, 0, 0]	-999	PAL1	2	R1095N
224.555	0.001	4190057	TEST_PROBE	n/a	3	3	WOOD	APE	APE	WOOD	1	[0, 0, 0]	-999	PAL1	2	R1095N
224.556	1.001	4190058	REC_START	n/a	3	-999	n/a	APE	n/a	n/a	1	[0, 0, 0]	-999	PAL1	2	R1095N
225.557	4.007	4191059	REC_EVENT	1001	3	3	WOOD	APE	APE	WOOD	1	[0, 0, 0]	-999	PAL1	2	R1095N
229.564	0.009	4195066	REC_END	n/a	3	-999	n/a	n/a	n/a	n/a	1	[0, 0, 0]	-999	PAL1	2	R1095N
229.573	0.9	4195075	TEST_ORIENT	n/a	6	4	BUSH	COUCH	BUSH	COUCH	1	[0, 0, 0]	-999	PAL1	2	R1095N
230.473	0.0	4195975	REC_START	n/a	6	-999	n/a	COUCH	n/a	n/a	1	[0, 0, 0]	-999	PAL1	2	R1095N
230.473	0.791	4195975	TEST_PROBE	n/a	6	4	BUSH	COUCH	BUSH	COUCH	1	[0, 0, 0]	-999	PAL1	2	R1095N
231.264	4.226	4196766	REC_EVENT	791	6	4	BUSH	COUCH	BUSH	COUCH	1	[0, 0, 0]	-999	PAL1	2	R1095N
235.49	0.017	4200992	REC_END	n/a	6	-999	n/a	n/a	n/a	n/a	1	[0, 0, 0]	-999	PAL1	2	R1095N
235.507	0.9	4201009	TEST_ORIENT	n/a	5	5	BEAK	VAN	VAN	BEAK	1	[0, 0, 0]	-999	PAL1	2	R1095N
236.407	0.001	4201909	TEST_PROBE	n/a	5	5	BEAK	VAN	VAN	BEAK	1	[0, 0, 0]	-999	PAL1	2	R1095N
236.408	1.022	4201910	REC_START	n/a	5	-999	n/a	VAN	n/a	n/a	1	[0, 0, 0]	-999	PAL1	2	R1095N
237.43	4.002	4202932	REC_EVENT	1022	5	5	BEAK	VAN	VAN	BEAK	1	[0, 0, 0]	-999	PAL1	2	R1095N
241.432	0.009	4206934	REC_END	n/a	5	-999	n/a	n/a	n/a	n/a	1	[0, 0, 0]	-999	PAL1	2	R1095N
241.441	0.817	4206943	TEST_ORIENT	n/a	2	6	FLAG	SAIL	SAIL	FLAG	1	[0, 0, 0]	-999	PAL1	2	R1095N
242.258	0.0	4207760	TEST_PROBE	n/a	2	6	FLAG	SAIL	SAIL	FLAG	1	[0, 0, 0]	-999	PAL1	2	R1095N
242.258	0.872	4207760	REC_START	n/a	2	-999	n/a	SAIL	n/a	n/a	1	[0, 0, 0]	-999	PAL1	2	R1095N
243.13	4.145	4208632	REC_EVENT	872	2	6	FLAG	SAIL	SAIL	FLAG	1	[0, 0, 0]	-999	PAL1	2	R1095N
247.275	0.033	4212777	REC_END	n/a	2	-999	n/a	n/a	n/a	n/a	1	[0, 0, 0]	-999	PAL1	2	R1095N
247.308	11.128	4212810	FEEDBACK_SHOW_ALL_PAIRS	n/a	2	-999	n/a	n/a	n/a	n/a	1	[0, 0, 0]	-999	PAL1	2	R1095N
258.436	10.441	4223938	ENCODING_START	n/a	0	-999	n/a	n/a	n/a	n/a	2	[0, 0, 0]	-999	PAL1	2	R1095N
268.877	0.834	4234379	STUDY_ORIENT	n/a	1	5	SALT	BOOK	SALT	BOOK	2	[0, 0, 0]	-999	PAL1	2	R1095N
269.711	5.034	4235213	STUDY_PAIR	n/a	1	5	SALT	BOOK	SALT	BOOK	2	[0, 0, 0]	-999	PAL1	2	R1095N
274.745	0.833	4240247	STUDY_ORIENT	n/a	2	2	DRUM	FORT	FORT	DRUM	2	[0, 0, 0]	-999	PAL1	2	R1095N
275.578	5.018	4241080	STUDY_PAIR	n/a	2	2	DRUM	FORT	FORT	DRUM	2	[0, 0, 0]	-999	PAL1	2	R1095N
280.596	0.95	4246098	STUDY_ORIENT	n/a	3	1	MOLE	CHEEK	MOLE	CHEEK	2	[0, 0, 0]	-999	PAL1	2	R1095N
281.546	5.034	4247048	STUDY_PAIR	n/a	3	1	MOLE	CHEEK	MOLE	CHEEK	2	[0, 0, 0]	-999	PAL1	2	R1095N
286.58	0.8	4252082	STUDY_ORIENT	n/a	4	4	PRINCE	DOG	DOG	PRINCE	2	[0, 0, 0]	-999	PAL1	2	R1095N
287.38	5.034	4252882	STUDY_PAIR	n/a	4	4	PRINCE	DOG	DOG	PRINCE	2	[0, 0, 0]	-999	PAL1	2	R1095N
292.414	0.784	4257916	STUDY_ORIENT	n/a	5	3	BAG	STOVE	STOVE	BAG	2	[0, 0, 0]	-999	PAL1	2	R1095N
293.198	5.034	4258700	STUDY_PAIR	n/a	5	3	BAG	STOVE	STOVE	BAG	2	[0, 0, 0]	-999	PAL1	2	R1095N
298.232	0.898	4263734	STUDY_ORIENT	n/a	6	6	WHEEL	STEAK	WHEEL	STEAK	2	[0, 0, 0]	-999	PAL1	2	R1095N
299.13	4.001	4264632	STUDY_PAIR	n/a	6	6	WHEEL	STEAK	WHEEL	STEAK	2	[0, 0, 0]	-999	PAL1	2	R1095N
303.131	1.0	4268633	START	n/a	-999	-999	n/a	n/a	n/a	n/a	2	[-999, -999, -999]	-999	PAL1	2	R1095N
304.131	0.017	4269634	MATH_START	n/a	-999	-999	n/a	n/a	n/a	n/a	2	[0, 0, 0]	-999	PAL1	2	R1095N
304.148	3.385	4269651	PROB	3350	-999	-999	n/a	n/a	n/a	n/a	2	[7, 1, 3]	11	PAL1	2	R1095N
307.533	5.984	4273036	PROB	5965	-999	-999	n/a	n/a	n/a	n/a	2	[6, 2, 9]	17	PAL1	2	R1095N
313.517	3.366	4279020	PROB	3347	-999	-999	n/a	n/a	n/a	n/a	2	[8, 2, 4]	14	PAL1	2	R1095N
316.883	4.034	4282386	PROB	4013	-999	-999	n/a	n/a	n/a	n/a	2	[2, 9, 8]	19	PAL1	2	R1095N
320.917	5.492	4286420	PROB	5492	-999	-999	n/a	n/a	n/a	n/a	2	[7, 5, 2]	14	PAL1	2	R1095N
326.409	0.01	4291912	STOP	n/a	-999	-999	n/a	n/a	n/a	n/a	2	[-999, -999, -999]	-999	PAL1	2	R1095N
326.419	0.0	4291922	MATH_END	n/a	-999	-999	n/a	n/a	n/a	n/a	2	[0, 0, 0]	-999	PAL1	2	R1095N
326.419	0.016	4291922	TEST_START	n/a	-999	-999	n/a	n/a	n/a	n/a	2	[0, 0, 0]	-999	PAL1	2	R1095N
326.435	0.967	4291938	TEST_ORIENT	n/a	3	1	MOLE	CHEEK	MOLE	CHEEK	2	[0, 0, 0]	-999	PAL1	2	R1095N
327.402	0.0	4292905	TEST_PROBE	n/a	3	1	MOLE	CHEEK	MOLE	CHEEK	2	[0, 0, 0]	-999	PAL1	2	R1095N
327.402	0.845	4292905	REC_START	n/a	3	-999	n/a	CHEEK	n/a	n/a	2	[0, 0, 0]	-999	PAL1	2	R1095N
328.247	4.172	4293750	REC_EVENT	845	3	1	MOLE	CHEEK	MOLE	CHEEK	2	[0, 0, 0]	-999	PAL1	2	R1095N
332.419	0.017	4297922	REC_END	n/a	3	-999	n/a	n/a	n/a	n/a	2	[0, 0, 0]	-999	PAL1	2	R1095N
332.436	0.933	4297939	TEST_ORIENT	n/a	2	2	DRUM	FORT	FORT	DRUM	2	[0, 0, 0]	-999	PAL1	2	R1095N
333.369	0.001	4298872	TEST_PROBE	n/a	2	2	DRUM	FORT	FORT	DRUM	2	[0, 0, 0]	-999	PAL1	2	R1095N
333.37	0.903	4298873	REC_START	n/a	2	-999	n/a	FORT	n/a	n/a	2	[0, 0, 0]	-999	PAL1	2	R1095N
334.273	4.104	4299776	REC_EVENT	903	2	2	DRUM	FORT	FORT	DRUM	2	[0, 0, 0]	-999	PAL1	2	R1095N
338.377	0.01	4303880	REC_END	n/a	2	-999	n/a	n/a	n/a	n/a	2	[0, 0, 0]	-999	PAL1	2	R1095N
338.387	1.017	4303890	TEST_ORIENT	n/a	5	3	BAG	STOVE	STOVE	BAG	2	[0, 0, 0]	-999	PAL1	2	R1095N
339.404	0.0	4304907	TEST_PROBE	n/a	5	3	BAG	STOVE	STOVE	BAG	2	[0, 0, 0]	-999	PAL1	2	R1095N
339.404	0.76	4304907	REC_START	n/a	5	-999	n/a	STOVE	n/a	n/a	2	[0, 0, 0]	-999	PAL1	2	R1095N
340.164	4.257	4305667	REC_EVENT	760	5	3	BAG	STOVE	STOVE	BAG	2	[0, 0, 0]	-999	PAL1	2	R1095N
344.421	0.017	4309924	REC_END	n/a	5	-999	n/a	n/a	n/a	n/a	2	[0, 0, 0]	-999	PAL1	2	R1095N
344.438	0.85	4309941	TEST_ORIENT	n/a	4	4	PRINCE	DOG	DOG	PRINCE	2	[0, 0, 0]	-999	PAL1	2	R1095N
345.288	0.0	4310791	REC_START	n/a	4	-999	n/a	DOG	n/a	n/a	2	[0, 0, 0]	-999	PAL1	2	R1095N
345.288	1.594	4310791	TEST_PROBE	n/a	4	4	PRINCE	DOG	DOG	PRINCE	2	[0, 0, 0]	-999	PAL1	2	R1095N
346.882	3.423	4312385	REC_EVENT	1594	4	4	PRINCE	DOG	DOG	PRINCE	2	[0, 0, 0]	-999	PAL1	2	R1095N
350.305	0.017	4315808	REC_END	n/a	4	-999	n/a	n/a	n/a	n/a	2	[0, 0, 0]	-999	PAL1	2	R1095N
350.322	0.883	4315825	TEST_ORIENT	n/a	1	5	SALT	BOOK	SALT	BOOK	2	[0, 0, 0]	-999	PAL1	2	R1095N
351.205	0.0	4316708	TEST_PROBE	n/a	1	5	SALT	BOOK	SALT	BOOK	2	[0, 0, 0]	-999	PAL1	2	R1095N
351.205	0.992	4316708	REC_START	n/a	1	-999	n/a	BOOK	n/a	n/a	2	[0, 0, 0]	-999	PAL1	2	R1095N
352.197	4.025	4317700	REC_EVENT	992	1	5	SALT	BOOK	SALT	BOOK	2	[0, 0, 0]	-999	PAL1	2	R1095N
356.222	0.017	4321725	REC_END	n/a	1	-999	n/a	n/a	n/a	n/a	2	[0, 0, 0]	-999	PAL1	2	R1095N
356.239	0.95	4321742	TEST_ORIENT	n/a	6	6	WHEEL	STEAK	WHEEL	STEAK	2	[0, 0, 0]	-999	PAL1	2	R1095N
357.189	0.001	4322692	TEST_PROBE	n/a	6	6	WHEEL	STEAK	WHEEL	STEAK	2	[0, 0, 0]	-999	PAL1	2	R1095N
357.19	1.99	4322693	REC_START	n/a	6	-999	n/a	STEAK	n/a	n/a	2	[0, 0, 0]	-999	PAL1	2	R1095N
359.18	3.026	4324683	REC_EVENT	1990	6	6	WHEEL	STEAK	WHEEL	STEAK	2	[0, 0, 0]	-999	PAL1	2	R1095N
362.206	0.034	4327709	REC_END	n/a	6	-999	n/a	n/a	n/a	n/a	2	[0, 0, 0]	-999	PAL1	2	R1095N
362.24	9.367	4327743	FEEDBACK_SHOW_ALL_PAIRS	n/a	6	-999	n/a	n/a	n/a	n/a	2	[0, 0, 0]	-999	PAL1	2	R1095N
371.607	10.451	4337110	ENCODING_START	n/a	0	-999	n/a	n/a	n/a	n/a	3	[0, 0, 0]	-999	PAL1	2	R1095N
382.058	0.984	4347561	STUDY_ORIENT	n/a	1	5	PEAR	HOSE	HOSE	PEAR	3	[0, 0, 0]	-999	PAL1	2	R1095N
383.042	5.033	4348545	STUDY_PAIR	n/a	1	5	PEAR	HOSE	HOSE	PEAR	3	[0, 0, 0]	-999	PAL1	2	R1095N
388.075	1.001	4353578	STUDY_ORIENT	n/a	2	4	JUDGE	GLOVE	JUDGE	GLOVE	3	[0, 0, 0]	-999	PAL1	2	R1095N
389.076	5.034	4354579	STUDY_PAIR	n/a	2	4	JUDGE	GLOVE	JUDGE	GLOVE	3	[0, 0, 0]	-999	PAL1	2	R1095N
394.11	0.816	4359613	STUDY_ORIENT	n/a	3	3	SOCK	FOG	FOG	SOCK	3	[0, 0, 0]	-999	PAL1	2	R1095N
394.926	5.034	4360429	STUDY_PAIR	n/a	3	3	SOCK	FOG	FOG	SOCK	3	[0, 0, 0]	-999	PAL1	2	R1095N
399.96	0.967	4365463	STUDY_ORIENT	n/a	4	2	DUCK	JAR	DUCK	JAR	3	[0, 0, 0]	-999	PAL1	2	R1095N
400.927	5.034	4366430	STUDY_PAIR	n/a	4	2	DUCK	JAR	DUCK	JAR	3	[0, 0, 0]	-999	PAL1	2	R1095N
405.961	1.0	4371464	STUDY_ORIENT	n/a	5	1	BOMB	PANTS	PANTS	BOMB	3	[0, 0, 0]	-999	PAL1	2	R1095N
406.961	5.034	4372464	STUDY_PAIR	n/a	5	1	BOMB	PANTS	PANTS	BOMB	3	[0, 0, 0]	-999	PAL1	2	R1095N
411.995	0.967	4377498	STUDY_ORIENT	n/a	6	6	MOON	JET	MOON	JET	3	[0, 0, 0]	-999	PAL1	2	R1095N
412.962	4.018	4378465	STUDY_PAIR	n/a	6	6	MOON	JET	MOON	JET	3	[0, 0, 0]	-999	PAL1	2	R1095N
416.98	0.999	4382483	START	n/a	-999	-999	n/a	n/a	n/a	n/a	3	[-999, -999, -999]	-999	PAL1	2	R1095N
417.979	0.017	4383482	MATH_START	n/a	-999	-999	n/a	n/a	n/a	n/a	3	[0, 0, 0]	-999	PAL1	2	R1095N
417.996	4.668	4383499	PROB	4641	-999	-999	n/a	n/a	n/a	n/a	3	[9, 8, 2]	19	PAL1	2	R1095N
422.664	5.734	4388167	PROB	5701	-999	-999	n/a	n/a	n/a	n/a	3	[9, 5, 3]	17	PAL1	2	R1095N
428.398	5.75	4393901	PROB	5725	-999	-999	n/a	n/a	n/a	n/a	3	[8, 3, 7]	19	PAL1	2	R1095N
434.148	6.568	4399651	PROB	6568	-999	-999	n/a	n/a	n/a	n/a	3	[9, 5, 6]	20	PAL1	2	R1095N
440.716	0.017	4406219	STOP	n/a	-999	-999	n/a	n/a	n/a	n/a	3	[-999, -999, -999]	-999	PAL1	2	R1095N
440.733	0.0	4406236	MATH_END	n/a	-999	-999	n/a	n/a	n/a	n/a	3	[0, 0, 0]	-999	PAL1	2	R1095N
440.733	0.017	4406236	TEST_START	n/a	-999	-999	n/a	n/a	n/a	n/a	3	[0, 0, 0]	-999	PAL1	2	R1095N
440.75	1.017	4406253	TEST_ORIENT	n/a	5	1	BOMB	PANTS	PANTS	BOMB	3	[0, 0, 0]	-999	PAL1	2	R1095N
441.767	0.0	4407270	TEST_PROBE	n/a	5	1	BOMB	PANTS	PANTS	BOMB	3	[0, 0, 0]	-999	PAL1	2	R1095N
441.767	1.018	4407270	REC_START	n/a	5	-999	n/a	PANTS	n/a	n/a	3	[0, 0, 0]	-999	PAL1	2	R1095N
442.785	3.999	4408288	REC_EVENT	1018	5	1	BOMB	PANTS	PANTS	BOMB	3	[0, 0, 0]	-999	PAL1	2	R1095N
446.784	0.017	4412287	REC_END	n/a	5	-999	n/a	n/a	n/a	n/a	3	[0, 0, 0]	-999	PAL1	2	R1095N
446.801	0.85	4412304	TEST_ORIENT	n/a	4	2	DUCK	JAR	DUCK	JAR	3	[0, 0, 0]	-999	PAL1	2	R1095N
447.651	0.0	4413154	REC_START	n/a	4	-999	n/a	JAR	n/a	n/a	3	[0, 0, 0]	-999	PAL1	2	R1095N
447.651	0.869	4413154	TEST_PROBE	n/a	4	2	DUCK	JAR	DUCK	JAR	3	[0, 0, 0]	-999	PAL1	2	R1095N
448.52	4.148	4414023	REC_EVENT	869	4	2	DUCK	JAR	DUCK	JAR	3	[0, 0, 0]	-999	PAL1	2	R1095N
452.668	0.017	4418171	REC_END	n/a	4	-999	n/a	n/a	n/a	n/a	3	[0, 0, 0]	-999	PAL1	2	R1095N
452.685	0.95	4418188	TEST_ORIENT	n/a	3	3	SOCK	FOG	FOG	SOCK	3	[0, 0, 0]	-999	PAL1	2	R1095N
453.635	0.0	4419138	TEST_PROBE	n/a	3	3	SOCK	FOG	FOG	SOCK	3	[0, 0, 0]	-999	PAL1	2	R1095N
453.635	1.933	4419138	REC_START	n/a	3	-999	n/a	FOG	n/a	n/a	3	[0, 0, 0]	-999	PAL1	2	R1095N
455.568	3.084	4421071	REC_EVENT	1933	3	3	SOCK	FOG	FOG	SOCK	3	[0, 0, 0]	-999	PAL1	2	R1095N
458.652	0.016	4424155	REC_END	n/a	3	-999	n/a	n/a	n/a	n/a	3	[0, 0, 0]	-999	PAL1	2	R1095N
458.668	0.934	4424171	TEST_ORIENT	n/a	2	4	JUDGE	GLOVE	JUDGE	GLOVE	3	[0, 0, 0]	-999	PAL1	2	R1095N
459.602	0.001	4425105	TEST_PROBE	n/a	2	4	JUDGE	GLOVE	JUDGE	GLOVE	3	[0, 0, 0]	-999	PAL1	2	R1095N
459.603	0.931	4425106	REC_START	n/a	2	-999	n/a	GLOVE	n/a	n/a	3	[0, 0, 0]	-999	PAL1	2	R1095N
460.534	4.085	4426037	REC_EVENT	931	2	4	JUDGE	GLOVE	JUDGE	GLOVE	3	[0, 0, 0]	-999	PAL1	2	R1095N
464.619	0.017	4430122	REC_END	n/a	2	-999	n/a	n/a	n/a	n/a	3	[0, 0, 0]	-999	PAL1	2	R1095N
464.636	0.867	4430139	TEST_ORIENT	n/a	1	5	PEAR	HOSE	HOSE	PEAR	3	[0, 0, 0]	-999	PAL1	2	R1095N
465.503	0.0	4431006	TEST_PROBE	n/a	1	5	PEAR	HOSE	HOSE	PEAR	3	[0, 0, 0]	-999	PAL1	2	R1095N
465.503	1.417	4431006	REC_START	n/a	1	-999	n/a	HOSE	n/a	n/a	3	[0, 0, 0]	-999	PAL1	2	R1095N
466.92	3.6	4432423	REC_EVENT	1417	1	5	PEAR	HOSE	HOSE	PEAR	3	[0, 0, 0]	-999	PAL1	2	R1095N
470.52	0.017	4436023	REC_END	n/a	1	-999	n/a	n/a	n/a	n/a	3	[0, 0, 0]	-999	PAL1	2	R1095N
470.537	0.883	4436040	TEST_ORIENT	n/a	6	6	MOON	JET	MOON	JET	3	[0, 0, 0]	-999	PAL1	2	R1095N
471.42	0.001	4436923	TEST_PROBE	n/a	6	6	MOON	JET	MOON	JET	3	[0, 0, 0]	-999	PAL1	2	R1095N
471.421	0.882	4436924	REC_START	n/a	6	-999	n/a	JET	n/a	n/a	3	[0, 0, 0]	-999	PAL1	2	R1095N
472.303	4.126	4437806	REC_EVENT	882	6	6	MOON	JET	MOON	JET	3	[0, 0, 0]	-999	PAL1	2	R1095N
476.429	0.025	4441932	REC_END	n/a	6	-999	n/a	n/a	n/a	n/a	3	[0, 0, 0]	-999	PAL1	2	R1095N
476.454	8.812	4441957	FEEDBACK_SHOW_ALL_PAIRS	n/a	6	-999	n/a	n/a	n/a	n/a	3	[0, 0, 0]	-999	PAL1	2	R1095N
485.266	10.441	4450769	ENCODING_START	n/a	0	-999	n/a	n/a	n/a	n/a	4	[0, 0, 0]	-999	PAL1	2	R1095N
495.707	0.95	4461210	STUDY_ORIENT	n/a	1	3	PLANE	DITCH	PLANE	DITCH	4	[0, 0, 0]	-999	PAL1	2	R1095N
496.657	5.034	4462160	STUDY_PAIR	n/a	1	3	PLANE	DITCH	PLANE	DITCH	4	[0, 0, 0]	-999	PAL1	2	R1095N
501.691	1.017	4467194	STUDY_ORIENT	n/a	2	4	SHEET	TRAIN	TRAIN	SHEET	4	[0, 0, 0]	-999	PAL1	2	R1095N
502.708	5.034	4468211	STUDY_PAIR	n/a	2	4	SHEET	TRAIN	TRAIN	SHEET	4	[0, 0, 0]	-999	PAL1	2	R1095N
507.742	1.0	4473245	STUDY_ORIENT	n/a	3	1	BOARD	WORM	WORM	BOARD	4	[0, 0, 0]	-999	PAL1	2	R1095N
508.742	5.034	4474245	STUDY_PAIR	n/a	3	1	BOARD	WORM	WORM	BOARD	4	[0, 0, 0]	-999	PAL1	2	R1095N
513.776	0.917	4479279	STUDY_ORIENT	n/a	4	6	EGG	SCHOOL	SCHOOL	EGG	4	[0, 0, 0]	-999	PAL1	2	R1095N
514.693	5.034	4480196	STUDY_PAIR	n/a	4	6	EGG	SCHOOL	SCHOOL	EGG	4	[0, 0, 0]	-999	PAL1	2	R1095N
519.727	0.783	4485230	STUDY_ORIENT	n/a	5	5	BEAN	STOVE	CROWN	BEAN	4	[0, 0, 0]	-999	PAL1	2	R1095N
520.51	5.034	4486013	STUDY_PAIR	n/a	5	5	BEAN	STOVE	CROWN	BEAN	4	[0, 0, 0]	-999	PAL1	2	R1095N
525.544	0.967	4491047	STUDY_ORIENT	n/a	6	2	VINE	SOUP	SOUP	VINE	4	[0, 0, 0]	-999	PAL1	2	R1095N
526.511	4.018	4492014	STUDY_PAIR	n/a	6	2	VINE	SOUP	SOUP	VINE	4	[0, 0, 0]	-999	PAL1	2	R1095N
530.529	0.999	4496032	START	n/a	-999	-999	n/a	n/a	n/a	n/a	4	[-999, -999, -999]	-999	PAL1	2	R1095N
531.528	0.017	4497031	MATH_START	n/a	-999	-999	n/a	n/a	n/a	n/a	4	[0, 0, 0]	-999	PAL1	2	R1095N
531.545	3.599	4497048	PROB	3574	-999	-999	n/a	n/a	n/a	n/a	4	[4, 1, 3]	8	PAL1	2	R1095N
535.144	2.168	4500647	PROB	2136	-999	-999	n/a	n/a	n/a	n/a	4	[5, 5, 2]	12	PAL1	2	R1095N
537.312	5.583	4502815	PROB	5551	-999	-999	n/a	n/a	n/a	n/a	4	[8, 1, 6]	15	PAL1	2	R1095N
542.895	2.902	4508398	PROB	2881	-999	-999	n/a	n/a	n/a	n/a	4	[3, 1, 5]	9	PAL1	2	R1095N
545.797	2.683	4511300	PROB	2651	-999	-999	n/a	n/a	n/a	n/a	4	[4, 6, 4]	14	PAL1	2	R1095N
548.48	3.128	4513983	PROB	3128	-999	-999	n/a	n/a	n/a	n/a	4	[2, 8, 7]	17	PAL1	2	R1095N
551.608	0.006	4517111	STOP	n/a	-999	-999	n/a	n/a	n/a	n/a	4	[-999, -999, -999]	-999	PAL1	2	R1095N
551.614	0.0	4517117	MATH_END	n/a	-999	-999	n/a	n/a	n/a	n/a	4	[0, 0, 0]	-999	PAL1	2	R1095N
551.614	0.017	4517117	TEST_START	n/a	-999	-999	n/a	n/a	n/a	n/a	4	[0, 0, 0]	-999	PAL1	2	R1095N
551.631	0.917	4517134	TEST_ORIENT	n/a	3	1	BOARD	WORM	WORM	BOARD	4	[0, 0, 0]	-999	PAL1	2	R1095N
552.548	0.001	4518051	TEST_PROBE	n/a	3	1	BOARD	WORM	WORM	BOARD	4	[0, 0, 0]	-999	PAL1	2	R1095N
552.549	1.693	4518052	REC_START	n/a	3	-999	n/a	WORM	n/a	n/a	4	[0, 0, 0]	-999	PAL1	2	R1095N
554.242	3.323	4519745	REC_EVENT	1693	3	1	BOARD	WORM	WORM	BOARD	4	[0, 0, 0]	-999	PAL1	2	R1095N
557.565	0.017	4523068	REC_END	n/a	3	-999	n/a	n/a	n/a	n/a	4	[0, 0, 0]	-999	PAL1	2	R1095N
557.582	0.916	4523085	TEST_ORIENT	n/a	6	2	VINE	SOUP	SOUP	VINE	4	[0, 0, 0]	-999	PAL1	2	R1095N
558.498	0.001	4524001	TEST_PROBE	n/a	6	2	VINE	SOUP	SOUP	VINE	4	[0, 0, 0]	-999	PAL1	2	R1095N
558.499	0.934	4524002	REC_START	n/a	6	-999	n/a	SOUP	n/a	n/a	4	[0, 0, 0]	-999	PAL1	2	R1095N
559.433	4.082	4524936	REC_EVENT	934	6	2	VINE	SOUP	SOUP	VINE	4	[0, 0, 0]	-999	PAL1	2	R1095N
563.515	0.017	4529018	REC_END	n/a	6	-999	n/a	n/a	n/a	n/a	4	[0, 0, 0]	-999	PAL1	2	R1095N
563.532	1.017	4529035	TEST_ORIENT	n/a	1	3	PLANE	DITCH	PLANE	DITCH	4	[0, 0, 0]	-999	PAL1	2	R1095N
564.549	0.001	4530052	TEST_PROBE	n/a	1	3	PLANE	DITCH	PLANE	DITCH	4	[0, 0, 0]	-999	PAL1	2	R1095N
564.55	0.968	4530053	REC_START	n/a	1	-999	n/a	DITCH	n/a	n/a	4	[0, 0, 0]	-999	PAL1	2	R1095N
565.518	4.048	4531021	REC_EVENT	968	1	3	PLANE	DITCH	PLANE	DITCH	4	[0, 0, 0]	-999	PAL1	2	R1095N
569.566	0.017	4535069	REC_END	n/a	1	-999	n/a	n/a	n/a	n/a	4	[0, 0, 0]	-999	PAL1	2	R1095N
569.583	1.0	4535086	TEST_ORIENT	n/a	2	4	SHEET	TRAIN	TRAIN	SHEET	4	[0, 0, 0]	-999	PAL1	2	R1095N
570.583	0.001	4536086	TEST_PROBE	n/a	2	4	SHEET	TRAIN	TRAIN	SHEET	4	[0, 0, 0]	-999	PAL1	2	R1095N
570.584	0.989	4536087	REC_START	n/a	2	-999	n/a	TRAIN	n/a	n/a	4	[0, 0, 0]	-999	PAL1	2	R1095N
571.573	4.035	4537076	REC_EVENT	989	2	4	SHEET	TRAIN	TRAIN	SHEET	4	[0, 0, 0]	-999	PAL1	2	R1095N
575.608	0.009	4541111	REC_END	n/a	2	-999	n/a	n/a	n/a	n/a	4	[0, 0, 0]	-999	PAL1	2	R1095N
575.617	0.984	4541120	TEST_ORIENT	n/a	5	5	BEAN	STOVE	CROWN	BEAN	4	[0, 0, 0]	-999	PAL1	2	R1095N
576.601	0.0	4542104	TEST_PROBE	n/a	5	5	BEAN	STOVE	CROWN	BEAN	4	[0, 0, 0]	-999	PAL1	2	R1095N
576.601	2.077	4542104	REC_START	n/a	5	-999	n/a	STOVE	n/a	n/a	4	[0, 0, 0]	-999	PAL1	2	R1095N
578.678	1.275	4544181	REC_EVENT	2077	5	5	BEAN	<>	CROWN	BEAN	4	[0, 0, 0]	-999	PAL1	2	R1095N
579.953	1.665	4545456	REC_EVENT	3352	5	5	BEAN	STOVE	CROWN	BEAN	4	[0, 0, 0]	-999	PAL1	2	R1095N
581.618	0.017	4547121	REC_END	n/a	5	-999	n/a	n/a	n/a	n/a	4	[0, 0, 0]	-999	PAL1	2	R1095N
581.635	1.016	4547138	TEST_ORIENT	n/a	4	6	EGG	SCHOOL	SCHOOL	EGG	4	[0, 0, 0]	-999	PAL1	2	R1095N
582.651	0.001	4548154	TEST_PROBE	n/a	4	6	EGG	SCHOOL	SCHOOL	EGG	4	[0, 0, 0]	-999	PAL1	2	R1095N
582.652	0.7	4548155	REC_START	n/a	4	-999	n/a	SCHOOL	n/a	n/a	4	[0, 0, 0]	-999	PAL1	2	R1095N
583.352	4.308	4548855	REC_EVENT	700	4	6	EGG	SCHOOL	SCHOOL	EGG	4	[0, 0, 0]	-999	PAL1	2	R1095N
587.66	0.025	4553163	REC_END	n/a	4	-999	n/a	n/a	n/a	n/a	4	[0, 0, 0]	-999	PAL1	2	R1095N
587.685	9.673	4553188	FEEDBACK_SHOW_ALL_PAIRS	n/a	4	-999	n/a	n/a	n/a	n/a	4	[0, 0, 0]	-999	PAL1	2	R1095N
597.358	10.447	4562861	ENCODING_START	n/a	0	-999	n/a	n/a	n/a	n/a	5	[0, 0, 0]	-999	PAL1	2	R1095N
607.805	0.833	4573308	STUDY_ORIENT	n/a	1	5	PEA	FUR	PEA	FUR	5	[0, 0, 0]	-999	PAL1	2	R1095N
608.638	5.034	4574141	STUDY_PAIR	n/a	1	5	PEA	FUR	PEA	FUR	5	[0, 0, 0]	-999	PAL1	2	R1095N
613.672	0.867	4579175	STUDY_ORIENT	n/a	2	4	PASTE	HAT	HAT	PASTE	5	[0, 0, 0]	-999	PAL1	2	R1095N
614.539	5.034	4580042	STUDY_PAIR	n/a	2	4	PASTE	HAT	HAT	PASTE	5	[0, 0, 0]	-999	PAL1	2	R1095N
619.573	0.883	4585076	STUDY_ORIENT	n/a	3	3	SUN	CAKE	SUN	CAKE	5	[0, 0, 0]	-999	PAL1	2	R1095N
620.456	5.034	4585959	STUDY_PAIR	n/a	3	3	SUN	CAKE	SUN	CAKE	5	[0, 0, 0]	-999	PAL1	2	R1095N
625.49	0.95	4590993	STUDY_ORIENT	n/a	4	6	SINK	JAIL	JAIL	SINK	5	[0, 0, 0]	-999	PAL1	2	R1095N
626.44	5.034	4591943	STUDY_PAIR	n/a	4	6	SINK	JAIL	JAIL	SINK	5	[0, 0, 0]	-999	PAL1	2	R1095N
631.474	1.017	4596977	STUDY_ORIENT	n/a	5	1	BOX	SEED	BOX	SEED	5	[0, 0, 0]	-999	PAL1	2	R1095N
632.491	5.034	4597994	STUDY_PAIR	n/a	5	1	BOX	SEED	BOX	SEED	5	[0, 0, 0]	-999	PAL1	2	R1095N
637.525	0.95	4603028	STUDY_ORIENT	n/a	6	2	ROOT	HAND	ROOT	HAND	5	[0, 0, 0]	-999	PAL1	2	R1095N
638.475	4.018	4603978	STUDY_PAIR	n/a	6	2	ROOT	HAND	ROOT	HAND	5	[0, 0, 0]	-999	PAL1	2	R1095N
642.493	0.999	4607996	START	n/a	-999	-999	n/a	n/a	n/a	n/a	5	[-999, -999, -999]	-999	PAL1	2	R1095N
643.492	0.017	4608995	MATH_START	n/a	-999	-999	n/a	n/a	n/a	n/a	5	[0, 0, 0]	-999	PAL1	2	R1095N
643.509	6.184	4609012	PROB	6150	-999	-999	n/a	n/a	n/a	n/a	5	[9, 4, 4]	17	PAL1	2	R1095N
649.693	3.067	4615196	PROB	3038	-999	-999	n/a	n/a	n/a	n/a	5	[3, 7, 4]	14	PAL1	2	R1095N
652.76	3.801	4618263	PROB	3779	-999	-999	n/a	n/a	n/a	n/a	5	[4, 7, 7]	18	PAL1	2	R1095N
656.561	4.549	4622064	PROB	4521	-999	-999	n/a	n/a	n/a	n/a	5	[8, 5, 6]	19	PAL1	2	R1095N
661.11	2.605	4626613	PROB	2605	-999	-999	n/a	n/a	n/a	n/a	5	[3, 7, 6]	16	PAL1	2	R1095N
663.715	0.013	4629218	STOP	n/a	-999	-999	n/a	n/a	n/a	n/a	5	[-999, -999, -999]	-999	PAL1	2	R1095N
663.728	0.0	4629231	MATH_END	n/a	-999	-999	n/a	n/a	n/a	n/a	5	[0, 0, 0]	-999	PAL1	2	R1095N
663.728	0.017	4629231	TEST_START	n/a	-999	-999	n/a	n/a	n/a	n/a	5	[0, 0, 0]	-999	PAL1	2	R1095N
663.745	1.034	4629248	TEST_ORIENT	n/a	5	1	BOX	SEED	BOX	SEED	5	[0, 0, 0]	-999	PAL1	2	R1095N
664.779	0.0	4630282	REC_START	n/a	5	-999	n/a	SEED	n/a	n/a	5	[0, 0, 0]	-999	PAL1	2	R1095N
664.779	0.862	4630282	TEST_PROBE	n/a	5	1	BOX	SEED	BOX	SEED	5	[0, 0, 0]	-999	PAL1	2	R1095N
665.641	4.155	4631144	REC_EVENT	862	5	1	BOX	SEED	BOX	SEED	5	[0, 0, 0]	-999	PAL1	2	R1095N
669.796	0.017	4635299	REC_END	n/a	5	-999	n/a	n/a	n/a	n/a	5	[0, 0, 0]	-999	PAL1	2	R1095N
669.813	1.0	4635316	TEST_ORIENT	n/a	6	2	ROOT	HAND	ROOT	HAND	5	[0, 0, 0]	-999	PAL1	2	R1095N
670.813	0.0	4636316	TEST_PROBE	n/a	6	2	ROOT	HAND	ROOT	HAND	5	[0, 0, 0]	-999	PAL1	2	R1095N
670.813	0.743	4636316	REC_START	n/a	6	-999	n/a	HAND	n/a	n/a	5	[0, 0, 0]	-999	PAL1	2	R1095N
671.556	4.274	4637059	REC_EVENT	743	6	2	ROOT	HAND	ROOT	HAND	5	[0, 0, 0]	-999	PAL1	2	R1095N
675.83	0.017	4641333	REC_END	n/a	6	-999	n/a	n/a	n/a	n/a	5	[0, 0, 0]	-999	PAL1	2	R1095N
675.847	1.015	4641350	TEST_ORIENT	n/a	3	3	SUN	CAKE	SUN	CAKE	5	[0, 0, 0]	-999	PAL1	2	R1095N
676.862	0.001	4642365	TEST_PROBE	n/a	3	3	SUN	CAKE	SUN	CAKE	5	[0, 0, 0]	-999	PAL1	2	R1095N
676.863	0.839	4642366	REC_START	n/a	3	-999	n/a	CAKE	n/a	n/a	5	[0, 0, 0]	-999	PAL1	2	R1095N
677.702	4.168	4643205	REC_EVENT	839	3	3	SUN	CAKE	SUN	CAKE	5	[0, 0, 0]	-999	PAL1	2	R1095N
681.87	0.01	4647373	REC_END	n/a	3	-999	n/a	n/a	n/a	n/a	5	[0, 0, 0]	-999	PAL1	2	R1095N
681.88	0.951	4647383	TEST_ORIENT	n/a	2	4	PASTE	HAT	HAT	PASTE	5	[0, 0, 0]	-999	PAL1	2	R1095N
682.831	0.0	4648334	TEST_PROBE	n/a	2	4	PASTE	HAT	HAT	PASTE	5	[0, 0, 0]	-999	PAL1	2	R1095N
682.831	0.769	4648334	REC_START	n/a	2	-999	n/a	HAT	n/a	n/a	5	[0, 0, 0]	-999	PAL1	2	R1095N
683.6	4.248	4649103	REC_EVENT	769	2	4	PASTE	HAT	HAT	PASTE	5	[0, 0, 0]	-999	PAL1	2	R1095N
687.848	0.016	4653351	REC_END	n/a	2	-999	n/a	n/a	n/a	n/a	5	[0, 0, 0]	-999	PAL1	2	R1095N
687.864	0.851	4653367	TEST_ORIENT	n/a	1	5	PEA	FUR	PEA	FUR	5	[0, 0, 0]	-999	PAL1	2	R1095N
688.715	0.0	4654218	REC_START	n/a	1	-999	n/a	FUR	n/a	n/a	5	[0, 0, 0]	-999	PAL1	2	R1095N
688.715	0.868	4654218	TEST_PROBE	n/a	1	5	PEA	FUR	PEA	FUR	5	[0, 0, 0]	-999	PAL1	2	R1095N
689.583	4.157	4655086	REC_EVENT	868	1	5	PEA	FUR	PEA	FUR	5	[0, 0, 0]	-999	PAL1	2	R1095N
693.74	0.009	4659243	REC_END	n/a	1	-999	n/a	n/a	n/a	n/a	5	[0, 0, 0]	-999	PAL1	2	R1095N
693.749	0.983	4659252	TEST_ORIENT	n/a	4	6	SINK	JAIL	JAIL	SINK	5	[0, 0, 0]	-999	PAL1	2	R1095N
694.732	0.001	4660235	TEST_PROBE	n/a	4	6	SINK	JAIL	JAIL	SINK	5	[0, 0, 0]	-999	PAL1	2	R1095N
694.733	0.902	4660236	REC_START	n/a	4	-999	n/a	JAIL	n/a	n/a	5	[0, 0, 0]	-999	PAL1	2	R1095N
695.635	4.106	4661138	REC_EVENT	902	4	6	SINK	JAIL	JAIL	SINK	5	[0, 0, 0]	-999	PAL1	2	R1095N
699.741	0.025	4665244	REC_END	n/a	4	-999	n/a	n/a	n/a	n/a	5	[0, 0, 0]	-999	PAL1	2	R1095N
699.766	9.33	4665269	FEEDBACK_SHOW_ALL_PAIRS	n/a	4	-999	n/a	n/a	n/a	n/a	5	[0, 0, 0]	-999	PAL1	2	R1095N
709.096	10.44	4674600	ENCODING_START	n/a	0	-999	n/a	n/a	n/a	n/a	6	[0, 0, 0]	-999	PAL1	2	R1095N
719.536	0.85	4685040	STUDY_ORIENT	n/a	1	3	BIRD	CLOUD	CLOUD	BIRD	6	[0, 0, 0]	-999	PAL1	2	R1095N
720.386	5.034	4685890	STUDY_PAIR	n/a	1	3	BIRD	CLOUD	CLOUD	BIRD	6	[0, 0, 0]	-999	PAL1	2	R1095N
725.42	1.0	4690924	STUDY_ORIENT	n/a	2	4	HEN	STEM	STEM	HEN	6	[0, 0, 0]	-999	PAL1	2	R1095N
726.42	5.034	4691924	STUDY_PAIR	n/a	2	4	HEN	STEM	STEM	HEN	6	[0, 0, 0]	-999	PAL1	2	R1095N
731.454	0.833	4696958	STUDY_ORIENT	n/a	3	1	BATH	GATE	BATH	GATE	6	[0, 0, 0]	-999	PAL1	2	R1095N
732.287	5.034	4697791	STUDY_PAIR	n/a	3	1	BATH	GATE	BATH	GATE	6	[0, 0, 0]	-999	PAL1	2	R1095N
737.321	0.833	4702825	STUDY_ORIENT	n/a	4	6	SEAT	STORE	SEAT	STORE	6	[0, 0, 0]	-999	PAL1	2	R1095N
738.154	5.035	4703658	STUDY_PAIR	n/a	4	6	SEAT	STORE	SEAT	STORE	6	[0, 0, 0]	-999	PAL1	2	R1095N
743.189	0.849	4708693	STUDY_ORIENT	n/a	5	5	MOOSE	SNAIL	SNAIL	MOOSE	6	[0, 0, 0]	-999	PAL1	2	R1095N
744.038	5.034	4709542	STUDY_PAIR	n/a	5	5	MOOSE	SNAIL	SNAIL	MOOSE	6	[0, 0, 0]	-999	PAL1	2	R1095N
749.072	0.866	4714576	STUDY_ORIENT	n/a	6	2	ROCK	STRAW	ROCK	STRAW	6	[0, 0, 0]	-999	PAL1	2	R1095N
749.938	4.001	4715442	STUDY_PAIR	n/a	6	2	ROCK	STRAW	ROCK	STRAW	6	[0, 0, 0]	-999	PAL1	2	R1095N
753.939	1.0	4719443	START	n/a	-999	-999	n/a	n/a	n/a	n/a	6	[-999, -999, -999]	-999	PAL1	2	R1095N
754.939	0.017	4720443	MATH_START	n/a	-999	-999	n/a	n/a	n/a	n/a	6	[0, 0, 0]	-999	PAL1	2	R1095N
754.956	2.967	4720460	PROB	2938	-999	-999	n/a	n/a	n/a	n/a	6	[1, 4, 1]	6	PAL1	2	R1095N
757.923	9.419	4723427	PROB	9388	-999	-999	n/a	n/a	n/a	n/a	6	[5, 7, 9]	20	PAL1	2	R1095N
767.342	2.933	4732846	PROB	2904	-999	-999	n/a	n/a	n/a	n/a	6	[2, 8, 1]	11	PAL1	2	R1095N
770.275	3.034	4735779	PROB	3003	-999	-999	n/a	n/a	n/a	n/a	6	[8, 1, 3]	12	PAL1	2	R1095N
773.309	4.865	4738813	PROB	4865	-999	-999	n/a	n/a	n/a	n/a	6	[8, 3, 9]	20	PAL1	2	R1095N
778.174	0.002	4743678	STOP	n/a	-999	-999	n/a	n/a	n/a	n/a	6	[-999, -999, -999]	-999	PAL1	2	R1095N
778.176	0.0	4743680	MATH_END	n/a	-999	-999	n/a	n/a	n/a	n/a	6	[0, 0, 0]	-999	PAL1	2	R1095N
778.176	0.017	4743680	TEST_START	n/a	-999	-999	n/a	n/a	n/a	n/a	6	[0, 0, 0]	-999	PAL1	2	R1095N
778.193	0.949	4743697	TEST_ORIENT	n/a	3	1	BATH	GATE	BATH	GATE	6	[0, 0, 0]	-999	PAL1	2	R1095N
779.142	0.001	4744646	TEST_PROBE	n/a	3	1	BATH	GATE	BATH	GATE	6	[0, 0, 0]	-999	PAL1	2	R1095N
779.143	0.982	4744647	REC_START	n/a	3	-999	n/a	GATE	n/a	n/a	6	[0, 0, 0]	-999	PAL1	2	R1095N
780.125	4.034	4745629	REC_EVENT	982	3	1	BATH	GATE	BATH	GATE	6	[0, 0, 0]	-999	PAL1	2	R1095N
784.159	0.018	4749663	REC_END	n/a	3	-999	n/a	n/a	n/a	n/a	6	[0, 0, 0]	-999	PAL1	2	R1095N
784.177	0.833	4749681	TEST_ORIENT	n/a	6	2	ROCK	STRAW	ROCK	STRAW	6	[0, 0, 0]	-999	PAL1	2	R1095N
785.01	0.0	4750514	TEST_PROBE	n/a	6	2	ROCK	STRAW	ROCK	STRAW	6	[0, 0, 0]	-999	PAL1	2	R1095N
785.01	0.772	4750514	REC_START	n/a	6	-999	n/a	STRAW	n/a	n/a	6	[0, 0, 0]	-999	PAL1	2	R1095N
785.782	4.245	4751286	REC_EVENT	772	6	2	ROCK	STRAW	ROCK	STRAW	6	[0, 0, 0]	-999	PAL1	2	R1095N
790.027	0.017	4755531	REC_END	n/a	6	-999	n/a	n/a	n/a	n/a	6	[0, 0, 0]	-999	PAL1	2	R1095N
790.044	1.016	4755548	TEST_ORIENT	n/a	1	3	BIRD	CLOUD	CLOUD	BIRD	6	[0, 0, 0]	-999	PAL1	2	R1095N
791.06	0.001	4756564	TEST_PROBE	n/a	1	3	BIRD	CLOUD	CLOUD	BIRD	6	[0, 0, 0]	-999	PAL1	2	R1095N
791.061	0.951	4756565	REC_START	n/a	1	-999	n/a	CLOUD	n/a	n/a	6	[0, 0, 0]	-999	PAL1	2	R1095N
792.012	4.057	4757516	REC_EVENT	951	1	3	BIRD	CLOUD	CLOUD	BIRD	6	[0, 0, 0]	-999	PAL1	2	R1095N
796.069	0.008	4761573	REC_END	n/a	1	-999	n/a	n/a	n/a	n/a	6	[0, 0, 0]	-999	PAL1	2	R1095N
796.077	0.934	4761581	TEST_ORIENT	n/a	2	4	HEN	STEM	STEM	HEN	6	[0, 0, 0]	-999	PAL1	2	R1095N
797.011	0.001	4762515	TEST_PROBE	n/a	2	4	HEN	STEM	STEM	HEN	6	[0, 0, 0]	-999	PAL1	2	R1095N
797.012	0.777	4762516	REC_START	n/a	2	-999	n/a	STEM	n/a	n/a	6	[0, 0, 0]	-999	PAL1	2	R1095N
797.789	4.231	4763293	REC_EVENT	777	2	4	HEN	STEM	STEM	HEN	6	[0, 0, 0]	-999	PAL1	2	R1095N
802.02	0.008	4767524	REC_END	n/a	2	-999	n/a	n/a	n/a	n/a	6	[0, 0, 0]	-999	PAL1	2	R1095N
802.028	0.951	4767532	TEST_ORIENT	n/a	5	5	MOOSE	SNAIL	SNAIL	MOOSE	6	[0, 0, 0]	-999	PAL1	2	R1095N
802.979	0.0	4768483	TEST_PROBE	n/a	5	5	MOOSE	SNAIL	SNAIL	MOOSE	6	[0, 0, 0]	-999	PAL1	2	R1095N
802.979	0.841	4768483	REC_START	n/a	5	-999	n/a	SNAIL	n/a	n/a	6	[0, 0, 0]	-999	PAL1	2	R1095N
803.82	4.176	4769324	REC_EVENT	841	5	5	MOOSE	SNAIL	SNAIL	MOOSE	6	[0, 0, 0]	-999	PAL1	2	R1095N
807.996	0.017	4773500	REC_END	n/a	5	-999	n/a	n/a	n/a	n/a	6	[0, 0, 0]	-999	PAL1	2	R1095N
808.013	0.966	4773517	TEST_ORIENT	n/a	4	6	SEAT	STORE	SEAT	STORE	6	[0, 0, 0]	-999	PAL1	2	R1095N
808.979	0.001	4774483	TEST_PROBE	n/a	4	6	SEAT	STORE	SEAT	STORE	6	[0, 0, 0]	-999	PAL1	2	R1095N
808.98	0.854	4774484	REC_START	n/a	4	-999	n/a	STORE	n/a	n/a	6	[0, 0, 0]	-999	PAL1	2	R1095N
809.834	4.154	4775338	REC_EVENT	854	4	6	SEAT	STORE	SEAT	STORE	6	[0, 0, 0]	-999	PAL1	2	R1095N
813.988	0.025	4779492	REC_END	n/a	4	-999	n/a	n/a	n/a	n/a	6	[0, 0, 0]	-999	PAL1	2	R1095N
814.013	9.639	4779517	FEEDBACK_SHOW_ALL_PAIRS	n/a	4	-999	n/a	n/a	n/a	n/a	6	[0, 0, 0]	-999	PAL1	2	R1095N
823.652	10.447	4789156	ENCODING_START	n/a	0	-999	n/a	n/a	n/a	n/a	7	[0, 0, 0]	-999	PAL1	2	R1095N
834.099	0.834	4799603	STUDY_ORIENT	n/a	1	5	CLOTH	NAIL	NAIL	CLOTH	7	[0, 0, 0]	-999	PAL1	2	R1095N
834.933	5.034	4800437	STUDY_PAIR	n/a	1	5	CLOTH	NAIL	NAIL	CLOTH	7	[0, 0, 0]	-999	PAL1	2	R1095N
839.967	0.868	4805471	STUDY_ORIENT	n/a	2	2	PARK	BOAT	PARK	BOAT	7	[0, 0, 0]	-999	PAL1	2	R1095N
840.835	5.032	4806339	STUDY_PAIR	n/a	2	2	PARK	BOAT	PARK	BOAT	7	[0, 0, 0]	-999	PAL1	2	R1095N
845.867	0.868	4811371	STUDY_ORIENT	n/a	3	1	PEN	WING	PEN	WING	7	[0, 0, 0]	-999	PAL1	2	R1095N
846.735	5.034	4812239	STUDY_PAIR	n/a	3	1	PEN	WING	PEN	WING	7	[0, 0, 0]	-999	PAL1	2	R1095N
851.769	0.817	4817273	STUDY_ORIENT	n/a	4	4	HOOK	ELF	HOOK	ELF	7	[0, 0, 0]	-999	PAL1	2	R1095N
852.586	5.034	4818090	STUDY_PAIR	n/a	4	4	HOOK	ELF	HOOK	ELF	7	[0, 0, 0]	-999	PAL1	2	R1095N
857.62	0.883	4823124	STUDY_ORIENT	n/a	5	3	EEL	PHONE	PHONE	EEL	7	[0, 0, 0]	-999	PAL1	2	R1095N
858.503	5.018	4824007	STUDY_PAIR	n/a	5	3	EEL	PHONE	PHONE	EEL	7	[0, 0, 0]	-999	PAL1	2	R1095N
863.521	0.817	4829025	STUDY_ORIENT	n/a	6	6	TRASH	CORD	TRASH	CORD	7	[0, 0, 0]	-999	PAL1	2	R1095N
864.338	4.017	4829842	STUDY_PAIR	n/a	6	6	TRASH	CORD	TRASH	CORD	7	[0, 0, 0]	-999	PAL1	2	R1095N
868.355	1.0	4833859	START	n/a	-999	-999	n/a	n/a	n/a	n/a	7	[-999, -999, -999]	-999	PAL1	2	R1095N
869.355	0.016	4834859	MATH_START	n/a	-999	-999	n/a	n/a	n/a	n/a	7	[0, 0, 0]	-999	PAL1	2	R1095N
869.371	3.384	4834875	PROB	3359	-999	-999	n/a	n/a	n/a	n/a	7	[2, 8, 7]	17	PAL1	2	R1095N
872.755	4.684	4838259	PROB	4655	-999	-999	n/a	n/a	n/a	n/a	7	[7, 6, 5]	18	PAL1	2	R1095N
877.439	3.55	4842943	PROB	3522	-999	-999	n/a	n/a	n/a	n/a	7	[5, 7, 7]	19	PAL1	2	R1095N
880.989	2.584	4846493	PROB	2565	-999	-999	n/a	n/a	n/a	n/a	7	[6, 4, 8]	18	PAL1	2	R1095N
883.573	3.951	4849077	PROB	3925	-999	-999	n/a	n/a	n/a	n/a	7	[8, 8, 8]	24	PAL1	2	R1095N
887.524	2.597	4853028	PROB	2597	-999	-999	n/a	n/a	n/a	n/a	7	[3, 3, 2]	8	PAL1	2	R1095N
890.121	0.002	4855625	STOP	n/a	-999	-999	n/a	n/a	n/a	n/a	7	[-999, -999, -999]	-999	PAL1	2	R1095N
890.123	0.0	4855627	MATH_END	n/a	-999	-999	n/a	n/a	n/a	n/a	7	[0, 0, 0]	-999	PAL1	2	R1095N
890.123	0.017	4855627	TEST_START	n/a	-999	-999	n/a	n/a	n/a	n/a	7	[0, 0, 0]	-999	PAL1	2	R1095N
890.14	0.933	4855644	TEST_ORIENT	n/a	3	1	PEN	WING	PEN	WING	7	[0, 0, 0]	-999	PAL1	2	R1095N
891.073	0.001	4856577	TEST_PROBE	n/a	3	1	PEN	WING	PEN	WING	7	[0, 0, 0]	-999	PAL1	2	R1095N
891.074	0.987	4856578	REC_START	n/a	3	-999	n/a	WING	n/a	n/a	7	[0, 0, 0]	-999	PAL1	2	R1095N
892.061	4.029	4857565	REC_EVENT	987	3	1	PEN	WING	PEN	WING	7	[0, 0, 0]	-999	PAL1	2	R1095N
896.09	0.017	4861594	REC_END	n/a	3	-999	n/a	n/a	n/a	n/a	7	[0, 0, 0]	-999	PAL1	2	R1095N
896.107	0.867	4861611	TEST_ORIENT	n/a	2	2	PARK	BOAT	PARK	BOAT	7	[0, 0, 0]	-999	PAL1	2	R1095N
896.974	0.0	4862478	TEST_PROBE	n/a	2	2	PARK	BOAT	PARK	BOAT	7	[0, 0, 0]	-999	PAL1	2	R1095N
896.974	1.0	4862478	REC_START	n/a	2	-999	n/a	BOAT	n/a	n/a	7	[0, 0, 0]	-999	PAL1	2	R1095N
897.974	4.017	4863478	REC_EVENT	1000	2	2	PARK	BOAT	PARK	BOAT	7	[0, 0, 0]	-999	PAL1	2	R1095N
901.991	0.017	4867495	REC_END	n/a	2	-999	n/a	n/a	n/a	n/a	7	[0, 0, 0]	-999	PAL1	2	R1095N
902.008	0.917	4867512	TEST_ORIENT	n/a	5	3	EEL	PHONE	PHONE	EEL	7	[0, 0, 0]	-999	PAL1	2	R1095N
902.925	0.0	4868429	TEST_PROBE	n/a	5	3	EEL	PHONE	PHONE	EEL	7	[0, 0, 0]	-999	PAL1	2	R1095N
902.925	1.605	4868429	REC_START	n/a	5	-999	n/a	PHONE	n/a	n/a	7	[0, 0, 0]	-999	PAL1	2	R1095N
904.53	3.412	4870034	REC_EVENT	1605	5	3	EEL	PHONE	PHONE	EEL	7	[0, 0, 0]	-999	PAL1	2	R1095N
907.942	0.017	4873446	REC_END	n/a	5	-999	n/a	n/a	n/a	n/a	7	[0, 0, 0]	-999	PAL1	2	R1095N
907.959	0.851	4873463	TEST_ORIENT	n/a	4	4	HOOK	ELF	HOOK	ELF	7	[0, 0, 0]	-999	PAL1	2	R1095N
908.81	0.001	4874314	TEST_PROBE	n/a	4	4	HOOK	ELF	HOOK	ELF	7	[0, 0, 0]	-999	PAL1	2	R1095N
908.811	1.246	4874315	REC_START	n/a	4	-999	n/a	ELF	n/a	n/a	7	[0, 0, 0]	-999	PAL1	2	R1095N
910.057	3.778	4875561	REC_EVENT	1246	4	4	HOOK	ELF	HOOK	ELF	7	[0, 0, 0]	-999	PAL1	2	R1095N
913.835	0.009	4879339	REC_END	n/a	4	-999	n/a	n/a	n/a	n/a	7	[0, 0, 0]	-999	PAL1	2	R1095N
913.844	0.983	4879348	TEST_ORIENT	n/a	1	5	CLOTH	NAIL	NAIL	CLOTH	7	[0, 0, 0]	-999	PAL1	2	R1095N
914.827	0.001	4880331	TEST_PROBE	n/a	1	5	CLOTH	NAIL	NAIL	CLOTH	7	[0, 0, 0]	-999	PAL1	2	R1095N
914.828	0.961	4880332	REC_START	n/a	1	-999	n/a	NAIL	n/a	n/a	7	[0, 0, 0]	-999	PAL1	2	R1095N
915.789	4.055	4881293	REC_EVENT	961	1	5	CLOTH	NAIL	NAIL	CLOTH	7	[0, 0, 0]	-999	PAL1	2	R1095N
919.844	0.016	4885348	REC_END	n/a	1	-999	n/a	n/a	n/a	n/a	7	[0, 0, 0]	-999	PAL1	2	R1095N
919.86	1.017	4885364	TEST_ORIENT	n/a	6	6	TRASH	CORD	TRASH	CORD	7	[0, 0, 0]	-999	PAL1	2	R1095N
920.877	0.0	4886381	TEST_PROBE	n/a	6	6	TRASH	CORD	TRASH	CORD	7	[0, 0, 0]	-999	PAL1	2	R1095N
920.877	0.913	4886381	REC_START	n/a	6	-999	n/a	CORD	n/a	n/a	7	[0, 0, 0]	-999	PAL1	2	R1095N
921.79	4.104	4887294	REC_EVENT	913	6	6	TRASH	CORD	TRASH	CORD	7	[0, 0, 0]	-999	PAL1	2	R1095N
925.894	0.017	4891398	REC_END	n/a	6	-999	n/a	n/a	n/a	n/a	7	[0, 0, 0]	-999	PAL1	2	R1095N
925.911	9.457	4891415	FEEDBACK_SHOW_ALL_PAIRS	n/a	6	-999	n/a	n/a	n/a	n/a	7	[0, 0, 0]	-999	PAL1	2	R1095N
935.368	10.447	4900872	ENCODING_START	n/a	0	-999	n/a	n/a	n/a	n/a	8	[0, 0, 0]	-999	PAL1	2	R1095N
945.815	0.866	4911319	STUDY_ORIENT	n/a	1	5	MUD	CLAY	MUD	CLAY	8	[0, 0, 0]	-999	PAL1	2	R1095N
946.681	5.034	4912185	STUDY_PAIR	n/a	1	5	MUD	CLAY	MUD	CLAY	8	[0, 0, 0]	-999	PAL1	2	R1095N
951.715	1.001	4917219	STUDY_ORIENT	n/a	2	6	FARM	CHAIR	CHAIR	FARM	8	[0, 0, 0]	-999	PAL1	2	R1095N
952.716	5.033	4918220	STUDY_PAIR	n/a	2	6	FARM	CHAIR	CHAIR	FARM	8	[0, 0, 0]	-999	PAL1	2	R1095N
957.749	0.951	4923253	STUDY_ORIENT	n/a	3	1	SLEEVE	n/a	EAR	SLEEVE	8	[0, 0, 0]	-999	PAL1	2	R1095N
958.7	5.034	4924204	STUDY_PAIR	n/a	3	1	SLEEVE	n/a	EAR	SLEEVE	8	[0, 0, 0]	-999	PAL1	2	R1095N
963.734	1.016	4929238	STUDY_ORIENT	n/a	4	4	SHIELD	STOOL	SHIELD	STOOL	8	[0, 0, 0]	-999	PAL1	2	R1095N
964.75	5.018	4930254	STUDY_PAIR	n/a	4	4	SHIELD	STOOL	SHIELD	STOOL	8	[0, 0, 0]	-999	PAL1	2	R1095N
969.768	0.817	4935272	STUDY_ORIENT	n/a	5	3	STONE	SWORD	SWORD	STONE	8	[0, 0, 0]	-999	PAL1	2	R1095N
970.585	5.033	4936089	STUDY_PAIR	n/a	5	3	STONE	SWORD	SWORD	STONE	8	[0, 0, 0]	-999	PAL1	2	R1095N
975.618	1.001	4941122	STUDY_ORIENT	n/a	6	2	MUG	TEA	TEA	MUG	8	[0, 0, 0]	-999	PAL1	2	R1095N
976.619	4.017	4942123	STUDY_PAIR	n/a	6	2	MUG	TEA	TEA	MUG	8	[0, 0, 0]	-999	PAL1	2	R1095N
980.636	1.0	4946140	START	n/a	-999	-999	n/a	n/a	n/a	n/a	8	[-999, -999, -999]	-999	PAL1	2	R1095N
981.636	0.017	4947140	MATH_START	n/a	-999	-999	n/a	n/a	n/a	n/a	8	[0, 0, 0]	-999	PAL1	2	R1095N
981.653	3.733	4947157	PROB	3704	-999	-999	n/a	n/a	n/a	n/a	8	[8, 4, 6]	18	PAL1	2	R1095N
985.386	3.616	4950890	PROB	3594	-999	-999	n/a	n/a	n/a	n/a	8	[2, 6, 8]	16	PAL1	2	R1095N
989.002	3.252	4954506	PROB	3219	-999	-999	n/a	n/a	n/a	n/a	8	[4, 9, 9]	22	PAL1	2	R1095N
992.254	2.5	4957758	PROB	2479	-999	-999	n/a	n/a	n/a	n/a	8	[5, 5, 4]	14	PAL1	2	R1095N
994.754	5.884	4960258	PROB	5851	-999	-999	n/a	n/a	n/a	n/a	8	[8, 5, 7]	20	PAL1	2	R1095N
1000.638	4.695	4966142	PROB	4695	-999	-999	n/a	n/a	n/a	n/a	8	[7, 5, 8]	20	PAL1	2	R1095N
1005.333	0.006	4970837	STOP	n/a	-999	-999	n/a	n/a	n/a	n/a	8	[-999, -999, -999]	-999	PAL1	2	R1095N
1005.339	0.0	4970843	MATH_END	n/a	-999	-999	n/a	n/a	n/a	n/a	8	[0, 0, 0]	-999	PAL1	2	R1095N
1005.339	0.017	4970843	TEST_START	n/a	-999	-999	n/a	n/a	n/a	n/a	8	[0, 0, 0]	-999	PAL1	2	R1095N
1005.356	0.883	4970860	TEST_ORIENT	n/a	3	1	SLEEVE	n/a	EAR	SLEEVE	8	[0, 0, 0]	-999	PAL1	2	R1095N
1006.239	0.001	4971743	TEST_PROBE	n/a	3	1	SLEEVE	n/a	EAR	SLEEVE	8	[0, 0, 0]	-999	PAL1	2	R1095N
1006.24	5.015	4971744	REC_START	n/a	3	-999	n/a	n/a	n/a	n/a	8	[0, 0, 0]	-999	PAL1	2	R1095N
1011.255	0.001	4976759	REC_EVENT	5015	3	1	SLEEVE	<>	EAR	SLEEVE	8	[0, 0, 0]	-999	PAL1	2	R1095N
1011.256	0.017	4976760	REC_END	n/a	3	-999	n/a	n/a	n/a	n/a	8	[0, 0, 0]	-999	PAL1	2	R1095N
1011.273	1.0	4976777	TEST_ORIENT	n/a	6	2	MUG	TEA	TEA	MUG	8	[0, 0, 0]	-999	PAL1	2	R1095N
1012.273	0.001	4977777	TEST_PROBE	n/a	6	2	MUG	TEA	TEA	MUG	8	[0, 0, 0]	-999	PAL1	2	R1095N
1012.274	0.835	4977778	REC_START	n/a	6	-999	n/a	TEA	n/a	n/a	8	[0, 0, 0]	-999	PAL1	2	R1095N
1013.109	4.181	4978613	REC_EVENT	835	6	2	MUG	TEA	TEA	MUG	8	[0, 0, 0]	-999	PAL1	2	R1095N
1017.29	0.017	4982794	REC_END	n/a	6	-999	n/a	n/a	n/a	n/a	8	[0, 0, 0]	-999	PAL1	2	R1095N
1017.307	0.917	4982811	TEST_ORIENT	n/a	5	3	STONE	SWORD	SWORD	STONE	8	[0, 0, 0]	-999	PAL1	2	R1095N
1018.224	0.0	4983728	TEST_PROBE	n/a	5	3	STONE	SWORD	SWORD	STONE	8	[0, 0, 0]	-999	PAL1	2	R1095N
1018.224	0.826	4983728	REC_START	n/a	5	-999	n/a	SWORD	n/a	n/a	8	[0, 0, 0]	-999	PAL1	2	R1095N
1019.05	4.191	4984554	REC_EVENT	826	5	3	STONE	SWORD	SWORD	STONE	8	[0, 0, 0]	-999	PAL1	2	R1095N
1023.241	0.017	4988745	REC_END	n/a	5	-999	n/a	n/a	n/a	n/a	8	[0, 0, 0]	-999	PAL1	2	R1095N
1023.258	1.033	4988762	TEST_ORIENT	n/a	4	4	SHIELD	STOOL	SHIELD	STOOL	8	[0, 0, 0]	-999	PAL1	2	R1095N
1024.291	0.001	4989795	TEST_PROBE	n/a	4	4	SHIELD	STOOL	SHIELD	STOOL	8	[0, 0, 0]	-999	PAL1	2	R1095N
1024.292	1.057	4989796	REC_START	n/a	4	-999	n/a	STOOL	n/a	n/a	8	[0, 0, 0]	-999	PAL1	2	R1095N
1025.349	3.959	4990853	REC_EVENT	1057	4	4	SHIELD	STOOL	SHIELD	STOOL	8	[0, 0, 0]	-999	PAL1	2	R1095N
1029.308	0.017	4994812	REC_END	n/a	4	-999	n/a	n/a	n/a	n/a	8	[0, 0, 0]	-999	PAL1	2	R1095N
1029.325	1.0	4994829	TEST_ORIENT	n/a	1	5	MUD	CLAY	MUD	CLAY	8	[0, 0, 0]	-999	PAL1	2	R1095N
1030.325	0.001	4995829	TEST_PROBE	n/a	1	5	MUD	CLAY	MUD	CLAY	8	[0, 0, 0]	-999	PAL1	2	R1095N
1030.326	0.815	4995830	REC_START	n/a	1	-999	n/a	CLAY	n/a	n/a	8	[0, 0, 0]	-999	PAL1	2	R1095N
1031.141	4.193	4996645	REC_EVENT	815	1	5	MUD	CLAY	MUD	CLAY	8	[0, 0, 0]	-999	PAL1	2	R1095N
1035.334	0.009	5000838	REC_END	n/a	1	-999	n/a	n/a	n/a	n/a	8	[0, 0, 0]	-999	PAL1	2	R1095N
1035.343	0.799	5000847	TEST_ORIENT	n/a	2	6	FARM	CHAIR	CHAIR	FARM	8	[0, 0, 0]	-999	PAL1	2	R1095N
1036.142	0.0	5001646	TEST_PROBE	n/a	2	6	FARM	CHAIR	CHAIR	FARM	8	[0, 0, 0]	-999	PAL1	2	R1095N
1036.142	0.82	5001646	REC_START	n/a	2	-999	n/a	CHAIR	n/a	n/a	8	[0, 0, 0]	-999	PAL1	2	R1095N
1036.962	4.205	5002466	REC_EVENT	820	2	6	FARM	CHAIR	CHAIR	FARM	8	[0, 0, 0]	-999	PAL1	2	R1095N
1041.167	0.027	5006671	REC_END	n/a	2	-999	n/a	n/a	n/a	n/a	8	[0, 0, 0]	-999	PAL1	2	R1095N
1041.194	9.92	5006698	FEEDBACK_SHOW_ALL_PAIRS	n/a	2	-999	n/a	n/a	n/a	n/a	8	[0, 0, 0]	-999	PAL1	2	R1095N
1051.114	10.449	5016618	ENCODING_START	n/a	0	-999	n/a	n/a	n/a	n/a	9	[0, 0, 0]	-999	PAL1	2	R1095N
1061.563	1.0	5027067	STUDY_ORIENT	n/a	1	5	MULE	CASH	MULE	CASH	9	[0, 0, 0]	-999	PAL1	2	R1095N
1062.563	5.034	5028067	STUDY_PAIR	n/a	1	5	MULE	CASH	MULE	CASH	9	[0, 0, 0]	-999	PAL1	2	R1095N
1067.597	0.933	5033101	STUDY_ORIENT	n/a	2	2	CLOCK	LOCK	LOCK	CLOCK	9	[0, 0, 0]	-999	PAL1	2	R1095N
1068.53	5.034	5034034	STUDY_PAIR	n/a	2	2	CLOCK	LOCK	LOCK	CLOCK	9	[0, 0, 0]	-999	PAL1	2	R1095N
1073.564	0.85	5039068	STUDY_ORIENT	n/a	3	3	FENCE	FISH	FENCE	FISH	9	[0, 0, 0]	-999	PAL1	2	R1095N
1074.414	5.018	5039918	STUDY_PAIR	n/a	3	3	FENCE	FISH	FENCE	FISH	9	[0, 0, 0]	-999	PAL1	2	R1095N
1079.432	0.9	5044936	STUDY_ORIENT	n/a	4	6	PEACH	BLOOM	BLOOM	PEACH	9	[0, 0, 0]	-999	PAL1	2	R1095N
1080.332	5.034	5045836	STUDY_PAIR	n/a	4	6	PEACH	BLOOM	BLOOM	PEACH	9	[0, 0, 0]	-999	PAL1	2	R1095N
1085.366	0.95	5050870	STUDY_ORIENT	n/a	5	1	PIT	TOAST	PIT	TOAST	9	[0, 0, 0]	-999	PAL1	2	R1095N
1086.316	5.034	5051820	STUDY_PAIR	n/a	5	1	PIT	TOAST	PIT	TOAST	9	[0, 0, 0]	-999	PAL1	2	R1095N
1091.35	0.867	5056854	STUDY_ORIENT	n/a	6	4	FROG	GOLD	FROG	GOLD	9	[0, 0, 0]	-999	PAL1	2	R1095N
1092.217	4.017	5057721	STUDY_PAIR	n/a	6	4	FROG	GOLD	FROG	GOLD	9	[0, 0, 0]	-999	PAL1	2	R1095N
1096.234	1.0	5061738	START	n/a	-999	-999	n/a	n/a	n/a	n/a	9	[-999, -999, -999]	-999	PAL1	2	R1095N
1097.234	0.017	5062738	MATH_START	n/a	-999	-999	n/a	n/a	n/a	n/a	9	[0, 0, 0]	-999	PAL1	2	R1095N
1097.251	3.434	5062755	PROB	3414	-999	-999	n/a	n/a	n/a	n/a	9	[9, 5, 5]	19	PAL1	2	R1095N
1100.685	7.567	5066189	PROB	7531	-999	-999	n/a	n/a	n/a	n/a	9	[9, 7, 9]	25	PAL1	2	R1095N
1108.252	3.417	5073756	PROB	3396	-999	-999	n/a	n/a	n/a	n/a	9	[4, 5, 9]	18	PAL1	2	R1095N
1111.669	3.534	5077173	PROB	3498	-999	-999	n/a	n/a	n/a	n/a	9	[3, 4, 2]	9	PAL1	2	R1095N
1115.203	10.756	5080708	PROB	10756	-999	-999	n/a	n/a	n/a	n/a	9	[8, 6, 9]	23	PAL1	2	R1095N
1125.959	0.011	5091464	STOP	n/a	-999	-999	n/a	n/a	n/a	n/a	9	[-999, -999, -999]	-999	PAL1	2	R1095N
1125.97	0.0	5091475	TEST_START	n/a	-999	-999	n/a	n/a	n/a	n/a	9	[0, 0, 0]	-999	PAL1	2	R1095N
1125.97	0.017	5091475	MATH_END	n/a	-999	-999	n/a	n/a	n/a	n/a	9	[0, 0, 0]	-999	PAL1	2	R1095N
1125.987	0.983	5091492	TEST_ORIENT	n/a	5	1	PIT	TOAST	PIT	TOAST	9	[0, 0, 0]	-999	PAL1	2	R1095N
1126.97	0.001	5092475	TEST_PROBE	n/a	5	1	PIT	TOAST	PIT	TOAST	9	[0, 0, 0]	-999	PAL1	2	R1095N
1126.971	1.202	5092476	REC_START	n/a	5	-999	n/a	TOAST	n/a	n/a	9	[0, 0, 0]	-999	PAL1	2	R1095N
1128.173	3.814	5093678	REC_EVENT	1202	5	1	PIT	TOAST	PIT	TOAST	9	[0, 0, 0]	-999	PAL1	2	R1095N
1131.987	0.017	5097492	REC_END	n/a	5	-999	n/a	n/a	n/a	n/a	9	[0, 0, 0]	-999	PAL1	2	R1095N
1132.004	0.785	5097509	TEST_ORIENT	n/a	2	2	CLOCK	LOCK	LOCK	CLOCK	9	[0, 0, 0]	-999	PAL1	2	R1095N
1132.789	0.0	5098294	REC_START	n/a	2	-999	n/a	LOCK	n/a	n/a	9	[0, 0, 0]	-999	PAL1	2	R1095N
1132.789	0.882	5098294	TEST_PROBE	n/a	2	2	CLOCK	LOCK	LOCK	CLOCK	9	[0, 0, 0]	-999	PAL1	2	R1095N
1133.671	4.135	5099176	REC_EVENT	882	2	2	CLOCK	LOCK	LOCK	CLOCK	9	[0, 0, 0]	-999	PAL1	2	R1095N
1137.806	0.016	5103311	REC_END	n/a	2	-999	n/a	n/a	n/a	n/a	9	[0, 0, 0]	-999	PAL1	2	R1095N
1137.822	0.817	5103327	TEST_ORIENT	n/a	3	3	FENCE	FISH	FENCE	FISH	9	[0, 0, 0]	-999	PAL1	2	R1095N
1138.639	0.001	5104144	TEST_PROBE	n/a	3	3	FENCE	FISH	FENCE	FISH	9	[0, 0, 0]	-999	PAL1	2	R1095N
1138.64	0.809	5104145	REC_START	n/a	3	-999	n/a	FISH	n/a	n/a	9	[0, 0, 0]	-999	PAL1	2	R1095N
1139.449	4.199	5104954	REC_EVENT	809	3	3	FENCE	FISH	FENCE	FISH	9	[0, 0, 0]	-999	PAL1	2	R1095N
1143.648	0.009	5109153	REC_END	n/a	3	-999	n/a	n/a	n/a	n/a	9	[0, 0, 0]	-999	PAL1	2	R1095N
1143.657	0.95	5109162	TEST_ORIENT	n/a	6	4	FROG	GOLD	FROG	GOLD	9	[0, 0, 0]	-999	PAL1	2	R1095N
1144.607	0.0	5110112	TEST_PROBE	n/a	6	4	FROG	GOLD	FROG	GOLD	9	[0, 0, 0]	-999	PAL1	2	R1095N
1144.607	0.869	5110112	REC_START	n/a	6	-999	n/a	GOLD	n/a	n/a	9	[0, 0, 0]	-999	PAL1	2	R1095N
1145.476	4.148	5110981	REC_EVENT	869	6	4	FROG	GOLD	FROG	GOLD	9	[0, 0, 0]	-999	PAL1	2	R1095N
1149.624	0.017	5115129	REC_END	n/a	6	-999	n/a	n/a	n/a	n/a	9	[0, 0, 0]	-999	PAL1	2	R1095N
1149.641	0.9	5115146	TEST_ORIENT	n/a	1	5	MULE	CASH	MULE	CASH	9	[0, 0, 0]	-999	PAL1	2	R1095N
1150.541	0.0	5116046	TEST_PROBE	n/a	1	5	MULE	CASH	MULE	CASH	9	[0, 0, 0]	-999	PAL1	2	R1095N
1150.541	0.83	5116046	REC_START	n/a	1	-999	n/a	CASH	n/a	n/a	9	[0, 0, 0]	-999	PAL1	2	R1095N
1151.371	4.187	5116876	REC_EVENT	830	1	5	MULE	CASH	MULE	CASH	9	[0, 0, 0]	-999	PAL1	2	R1095N
1155.558	0.017	5121063	REC_END	n/a	1	-999	n/a	n/a	n/a	n/a	9	[0, 0, 0]	-999	PAL1	2	R1095N
1155.575	0.783	5121080	TEST_ORIENT	n/a	4	6	PEACH	BLOOM	BLOOM	PEACH	9	[0, 0, 0]	-999	PAL1	2	R1095N
1156.358	0.0	5121863	REC_START	n/a	4	-999	n/a	BLOOM	n/a	n/a	9	[0, 0, 0]	-999	PAL1	2	R1095N
1156.358	0.88	5121863	TEST_PROBE	n/a	4	6	PEACH	BLOOM	BLOOM	PEACH	9	[0, 0, 0]	-999	PAL1	2	R1095N
1157.238	4.137	5122743	REC_EVENT	880	4	6	PEACH	BLOOM	BLOOM	PEACH	9	[0, 0, 0]	-999	PAL1	2	R1095N
1161.375	0.017	5126880	REC_END	n/a	4	-999	n/a	n/a	n/a	n/a	9	[0, 0, 0]	-999	PAL1	2	R1095N
1161.392	9.934	5126897	FEEDBACK_SHOW_ALL_PAIRS	n/a	4	-999	n/a	n/a	n/a	n/a	9	[0, 0, 0]	-999	PAL1	2	R1095N
1171.326	10.452	5136831	ENCODING_START	n/a	0	-999	n/a	n/a	n/a	n/a	10	[0, 0, 0]	-999	PAL1	2	R1095N
1181.778	0.934	5147283	STUDY_ORIENT	n/a	1	5	RIB	MAIL	RIB	MAIL	10	[0, 0, 0]	-999	PAL1	2	R1095N
1182.712	5.034	5148217	STUDY_PAIR	n/a	1	5	RIB	MAIL	RIB	MAIL	10	[0, 0, 0]	-999	PAL1	2	R1095N
1187.746	0.95	5153251	STUDY_ORIENT	n/a	2	2	CRANE	CHALK	CRANE	CHALK	10	[0, 0, 0]	-999	PAL1	2	R1095N
1188.696	5.034	5154201	STUDY_PAIR	n/a	2	2	CRANE	CHALK	CRANE	CHALK	10	[0, 0, 0]	-999	PAL1	2	R1095N
1193.73	0.833	5159235	STUDY_ORIENT	n/a	3	1	WOLF	FUDGE	FUDGE	WOLF	10	[0, 0, 0]	-999	PAL1	2	R1095N
1194.563	5.034	5160068	STUDY_PAIR	n/a	3	1	WOLF	FUDGE	FUDGE	WOLF	10	[0, 0, 0]	-999	PAL1	2	R1095N
1199.597	0.9	5165102	STUDY_ORIENT	n/a	4	4	BRANCH	JUICE	BRANCH	JUICE	10	[0, 0, 0]	-999	PAL1	2	R1095N
1200.497	5.034	5166002	STUDY_PAIR	n/a	4	4	BRANCH	JUICE	BRANCH	JUICE	10	[0, 0, 0]	-999	PAL1	2	R1095N
1205.531	0.784	5171036	STUDY_ORIENT	n/a	5	3	SOAP	SEA	SEA	SOAP	10	[0, 0, 0]	-999	PAL1	2	R1095N
1206.315	5.034	5171820	STUDY_PAIR	n/a	5	3	SOAP	SEA	SEA	SOAP	10	[0, 0, 0]	-999	PAL1	2	R1095N
1211.349	0.933	5176854	STUDY_ORIENT	n/a	6	6	COW	HOOF	COW	HOOF	10	[0, 0, 0]	-999	PAL1	2	R1095N
1212.282	4.018	5177787	STUDY_PAIR	n/a	6	6	COW	HOOF	COW	HOOF	10	[0, 0, 0]	-999	PAL1	2	R1095N
1216.3	0.999	5181805	START	n/a	-999	-999	n/a	n/a	n/a	n/a	10	[-999, -999, -999]	-999	PAL1	2	R1095N
1217.299	0.017	5182804	MATH_START	n/a	-999	-999	n/a	n/a	n/a	n/a	10	[0, 0, 0]	-999	PAL1	2	R1095N
1217.316	5.451	5182821	PROB	5424	-999	-999	n/a	n/a	n/a	n/a	10	[3, 9, 4]	16	PAL1	2	R1095N
1222.767	4.233	5188272	PROB	4211	-999	-999	n/a	n/a	n/a	n/a	10	[2, 4, 7]	13	PAL1	2	R1095N
1227.0	6.067	5192505	PROB	6042	-999	-999	n/a	n/a	n/a	n/a	10	[9, 5, 2]	16	PAL1	2	R1095N
1233.067	1.934	5198572	PROB	1903	-999	-999	n/a	n/a	n/a	n/a	10	[5, 5, 1]	11	PAL1	2	R1095N
1235.001	3.121	5200506	PROB	3121	-999	-999	n/a	n/a	n/a	n/a	10	[2, 5, 6]	3	PAL1	2	R1095N
1238.122	0.012	5203627	STOP	n/a	-999	-999	n/a	n/a	n/a	n/a	10	[-999, -999, -999]	-999	PAL1	2	R1095N
1238.134	0.0	5203639	TEST_START	n/a	-999	-999	n/a	n/a	n/a	n/a	10	[0, 0, 0]	-999	PAL1	2	R1095N
1238.134	0.017	5203639	MATH_END	n/a	-999	-999	n/a	n/a	n/a	n/a	10	[0, 0, 0]	-999	PAL1	2	R1095N
1238.151	0.817	5203656	TEST_ORIENT	n/a	3	1	WOLF	FUDGE	FUDGE	WOLF	10	[0, 0, 0]	-999	PAL1	2	R1095N
1238.968	0.001	5204473	TEST_PROBE	n/a	3	1	WOLF	FUDGE	FUDGE	WOLF	10	[0, 0, 0]	-999	PAL1	2	R1095N
1238.969	0.944	5204474	REC_START	n/a	3	-999	n/a	FUDGE	n/a	n/a	10	[0, 0, 0]	-999	PAL1	2	R1095N
1239.913	4.079	5205418	REC_EVENT	944	3	1	WOLF	FUDGE	FUDGE	WOLF	10	[0, 0, 0]	-999	PAL1	2	R1095N
1243.992	0.01	5209497	REC_END	n/a	3	-999	n/a	n/a	n/a	n/a	10	[0, 0, 0]	-999	PAL1	2	R1095N
1244.002	1.0	5209507	TEST_ORIENT	n/a	2	2	CRANE	CHALK	CRANE	CHALK	10	[0, 0, 0]	-999	PAL1	2	R1095N
1245.002	0.0	5210507	TEST_PROBE	n/a	2	2	CRANE	CHALK	CRANE	CHALK	10	[0, 0, 0]	-999	PAL1	2	R1095N
1245.002	0.946	5210507	REC_START	n/a	2	-999	n/a	CHALK	n/a	n/a	10	[0, 0, 0]	-999	PAL1	2	R1095N
1245.948	4.071	5211453	REC_EVENT	946	2	2	CRANE	CHALK	CRANE	CHALK	10	[0, 0, 0]	-999	PAL1	2	R1095N
1250.019	0.017	5215524	REC_END	n/a	2	-999	n/a	n/a	n/a	n/a	10	[0, 0, 0]	-999	PAL1	2	R1095N
1250.036	0.833	5215541	TEST_ORIENT	n/a	5	3	SOAP	SEA	SEA	SOAP	10	[0, 0, 0]	-999	PAL1	2	R1095N
1250.869	0.001	5216374	TEST_PROBE	n/a	5	3	SOAP	SEA	SEA	SOAP	10	[0, 0, 0]	-999	PAL1	2	R1095N
1250.87	0.76	5216375	REC_START	n/a	5	-999	n/a	SEA	n/a	n/a	10	[0, 0, 0]	-999	PAL1	2	R1095N
1251.63	4.248	5217135	REC_EVENT	760	5	3	SOAP	SEA	SEA	SOAP	10	[0, 0, 0]	-999	PAL1	2	R1095N
1255.878	0.009	5221383	REC_END	n/a	5	-999	n/a	n/a	n/a	n/a	10	[0, 0, 0]	-999	PAL1	2	R1095N
1255.887	1.033	5221392	TEST_ORIENT	n/a	4	4	BRANCH	JUICE	BRANCH	JUICE	10	[0, 0, 0]	-999	PAL1	2	R1095N
1256.92	0.001	5222425	TEST_PROBE	n/a	4	4	BRANCH	JUICE	BRANCH	JUICE	10	[0, 0, 0]	-999	PAL1	2	R1095N
1256.921	0.767	5222426	REC_START	n/a	4	-999	n/a	JUICE	n/a	n/a	10	[0, 0, 0]	-999	PAL1	2	R1095N
1257.688	4.249	5223193	REC_EVENT	767	4	4	BRANCH	JUICE	BRANCH	JUICE	10	[0, 0, 0]	-999	PAL1	2	R1095N
1261.937	0.017	5227442	REC_END	n/a	4	-999	n/a	n/a	n/a	n/a	10	[0, 0, 0]	-999	PAL1	2	R1095N
1261.954	0.868	5227459	TEST_ORIENT	n/a	1	5	RIB	MAIL	RIB	MAIL	10	[0, 0, 0]	-999	PAL1	2	R1095N
1262.822	0.001	5228327	TEST_PROBE	n/a	1	5	RIB	MAIL	RIB	MAIL	10	[0, 0, 0]	-999	PAL1	2	R1095N
1262.823	0.895	5228328	REC_START	n/a	1	-999	n/a	MAIL	n/a	n/a	10	[0, 0, 0]	-999	PAL1	2	R1095N
1263.718	4.128	5229223	REC_EVENT	895	1	5	RIB	MAIL	RIB	MAIL	10	[0, 0, 0]	-999	PAL1	2	R1095N
1267.846	0.009	5233351	REC_END	n/a	1	-999	n/a	n/a	n/a	n/a	10	[0, 0, 0]	-999	PAL1	2	R1095N
1267.855	1.033	5233360	TEST_ORIENT	n/a	6	6	COW	HOOF	COW	HOOF	10	[0, 0, 0]	-999	PAL1	2	R1095N
1268.888	0.001	5234393	TEST_PROBE	n/a	6	6	COW	HOOF	COW	HOOF	10	[0, 0, 0]	-999	PAL1	2	R1095N
1268.889	0.865	5234394	REC_START	n/a	6	-999	n/a	HOOF	n/a	n/a	10	[0, 0, 0]	-999	PAL1	2	R1095N
1269.754	4.151	5235259	REC_EVENT	865	6	6	COW	HOOF	COW	HOOF	10	[0, 0, 0]	-999	PAL1	2	R1095N
1273.905	0.034	5239410	REC_END	n/a	6	-999	n/a	n/a	n/a	n/a	10	[0, 0, 0]	-999	PAL1	2	R1095N
1273.939	9.318	5239444	FEEDBACK_SHOW_ALL_PAIRS	n/a	6	-999	n/a	n/a	n/a	n/a	10	[0, 0, 0]	-999	PAL1	2	R1095N
1283.257	10.452	5248762	ENCODING_START	n/a	0	-999	n/a	n/a	n/a	n/a	11	[0, 0, 0]	-999	PAL1	2	R1095N
1293.709	0.967	5259214	STUDY_ORIENT	n/a	1	1	SHELL	PALM	PALM	SHELL	11	[0, 0, 0]	-999	PAL1	2	R1095N
1294.676	5.034	5260181	STUDY_PAIR	n/a	1	1	SHELL	PALM	PALM	SHELL	11	[0, 0, 0]	-999	PAL1	2	R1095N
1299.71	0.917	5265215	STUDY_ORIENT	n/a	2	2	ROSE	STREET	ROSE	STREET	11	[0, 0, 0]	-999	PAL1	2	R1095N
1300.627	5.034	5266132	STUDY_PAIR	n/a	2	2	ROSE	STREET	ROSE	STREET	11	[0, 0, 0]	-999	PAL1	2	R1095N
1305.661	0.883	5271166	STUDY_ORIENT	n/a	3	5	LAWN	GUARD	GUARD	LAWN	11	[0, 0, 0]	-999	PAL1	2	R1095N
1306.544	5.034	5272049	STUDY_PAIR	n/a	3	5	LAWN	GUARD	GUARD	LAWN	11	[0, 0, 0]	-999	PAL1	2	R1095N
1311.578	1.034	5277083	STUDY_ORIENT	n/a	4	4	SMILE	DEER	SMILE	DEER	11	[0, 0, 0]	-999	PAL1	2	R1095N
1312.612	5.034	5278117	STUDY_PAIR	n/a	4	4	SMILE	DEER	SMILE	DEER	11	[0, 0, 0]	-999	PAL1	2	R1095N
1317.646	0.866	5283151	STUDY_ORIENT	n/a	5	3	BAND	SPRING	SPRING	BAND	11	[0, 0, 0]	-999	PAL1	2	R1095N
1318.512	5.018	5284017	STUDY_PAIR	n/a	5	3	BAND	SPRING	SPRING	BAND	11	[0, 0, 0]	-999	PAL1	2	R1095N
1323.53	0.967	5289035	STUDY_ORIENT	n/a	6	6	BRUSH	BREAD	BREAD	BRUSH	11	[0, 0, 0]	-999	PAL1	2	R1095N
1324.497	4.017	5290002	STUDY_PAIR	n/a	6	6	BRUSH	BREAD	BREAD	BRUSH	11	[0, 0, 0]	-999	PAL1	2	R1095N
1328.514	1.0	5294019	START	n/a	-999	-999	n/a	n/a	n/a	n/a	11	[-999, -999, -999]	-999	PAL1	2	R1095N
1329.514	0.017	5295019	MATH_START	n/a	-999	-999	n/a	n/a	n/a	n/a	11	[0, 0, 0]	-999	PAL1	2	R1095N
1329.531	5.2	5295036	PROB	5180	-999	-999	n/a	n/a	n/a	n/a	11	[5, 7, 7]	19	PAL1	2	R1095N
1334.731	5.101	5300236	PROB	5076	-999	-999	n/a	n/a	n/a	n/a	11	[8, 6, 1]	15	PAL1	2	R1095N
1339.832	5.434	5305337	PROB	5407	-999	-999	n/a	n/a	n/a	n/a	11	[7, 4, 8]	19	PAL1	2	R1095N
1345.266	7.899	5310771	PROB	7899	-999	-999	n/a	n/a	n/a	n/a	11	[7, 4, 5]	16	PAL1	2	R1095N
1353.165	0.019	5318670	STOP	n/a	-999	-999	n/a	n/a	n/a	n/a	11	[-999, -999, -999]	-999	PAL1	2	R1095N
1353.184	0.0	5318689	MATH_END	n/a	-999	-999	n/a	n/a	n/a	n/a	11	[0, 0, 0]	-999	PAL1	2	R1095N
1353.184	0.016	5318689	TEST_START	n/a	-999	-999	n/a	n/a	n/a	n/a	11	[0, 0, 0]	-999	PAL1	2	R1095N
1353.2	0.984	5318705	TEST_ORIENT	n/a	1	1	SHELL	PALM	PALM	SHELL	11	[0, 0, 0]	-999	PAL1	2	R1095N
1354.184	0.0	5319689	TEST_PROBE	n/a	1	1	SHELL	PALM	PALM	SHELL	11	[0, 0, 0]	-999	PAL1	2	R1095N
1354.184	0.863	5319689	REC_START	n/a	1	-999	n/a	PALM	n/a	n/a	11	[0, 0, 0]	-999	PAL1	2	R1095N
1355.047	4.154	5320552	REC_EVENT	863	1	1	SHELL	PALM	PALM	SHELL	11	[0, 0, 0]	-999	PAL1	2	R1095N
1359.201	0.017	5324706	REC_END	n/a	1	-999	n/a	n/a	n/a	n/a	11	[0, 0, 0]	-999	PAL1	2	R1095N
1359.218	0.849	5324723	TEST_ORIENT	n/a	2	2	ROSE	STREET	ROSE	STREET	11	[0, 0, 0]	-999	PAL1	2	R1095N
1360.067	0.0	5325572	REC_START	n/a	2	-999	n/a	STREET	n/a	n/a	11	[0, 0, 0]	-999	PAL1	2	R1095N
1360.067	0.758	5325572	TEST_PROBE	n/a	2	2	ROSE	STREET	ROSE	STREET	11	[0, 0, 0]	-999	PAL1	2	R1095N
1360.825	4.259	5326330	REC_EVENT	758	2	2	ROSE	STREET	ROSE	STREET	11	[0, 0, 0]	-999	PAL1	2	R1095N
1365.084	0.017	5330589	REC_END	n/a	2	-999	n/a	n/a	n/a	n/a	11	[0, 0, 0]	-999	PAL1	2	R1095N
1365.101	0.917	5330606	TEST_ORIENT	n/a	5	3	BAND	SPRING	SPRING	BAND	11	[0, 0, 0]	-999	PAL1	2	R1095N
1366.018	0.0	5331523	TEST_PROBE	n/a	5	3	BAND	SPRING	SPRING	BAND	11	[0, 0, 0]	-999	PAL1	2	R1095N
1366.018	0.75	5331523	REC_START	n/a	5	-999	n/a	SPRING	n/a	n/a	11	[0, 0, 0]	-999	PAL1	2	R1095N
1366.768	4.267	5332273	REC_EVENT	750	5	3	BAND	SPRING	SPRING	BAND	11	[0, 0, 0]	-999	PAL1	2	R1095N
1371.035	0.016	5336540	REC_END	n/a	5	-999	n/a	n/a	n/a	n/a	11	[0, 0, 0]	-999	PAL1	2	R1095N
1371.051	0.951	5336556	TEST_ORIENT	n/a	4	4	SMILE	DEER	SMILE	DEER	11	[0, 0, 0]	-999	PAL1	2	R1095N
1372.002	0.0	5337507	REC_START	n/a	4	-999	n/a	DEER	n/a	n/a	11	[0, 0, 0]	-999	PAL1	2	R1095N
1372.002	0.903	5337507	TEST_PROBE	n/a	4	4	SMILE	DEER	SMILE	DEER	11	[0, 0, 0]	-999	PAL1	2	R1095N
1372.905	4.114	5338410	REC_EVENT	903	4	4	SMILE	DEER	SMILE	DEER	11	[0, 0, 0]	-999	PAL1	2	R1095N
1377.019	0.016	5342524	REC_END	n/a	4	-999	n/a	n/a	n/a	n/a	11	[0, 0, 0]	-999	PAL1	2	R1095N
1377.035	0.901	5342540	TEST_ORIENT	n/a	3	5	LAWN	GUARD	GUARD	LAWN	11	[0, 0, 0]	-999	PAL1	2	R1095N
1377.936	0.0	5343441	TEST_PROBE	n/a	3	5	LAWN	GUARD	GUARD	LAWN	11	[0, 0, 0]	-999	PAL1	2	R1095N
1377.936	0.869	5343441	REC_START	n/a	3	-999	n/a	GUARD	n/a	n/a	11	[0, 0, 0]	-999	PAL1	2	R1095N
1378.805	4.148	5344310	REC_EVENT	869	3	5	LAWN	GUARD	GUARD	LAWN	11	[0, 0, 0]	-999	PAL1	2	R1095N
1382.953	0.017	5348458	REC_END	n/a	3	-999	n/a	n/a	n/a	n/a	11	[0, 0, 0]	-999	PAL1	2	R1095N
1382.97	0.851	5348475	TEST_ORIENT	n/a	6	6	BRUSH	BREAD	BREAD	BRUSH	11	[0, 0, 0]	-999	PAL1	2	R1095N
1383.821	0.0	5349326	TEST_PROBE	n/a	6	6	BRUSH	BREAD	BREAD	BRUSH	11	[0, 0, 0]	-999	PAL1	2	R1095N
1383.821	1.101	5349326	REC_START	n/a	6	-999	n/a	BREAD	n/a	n/a	11	[0, 0, 0]	-999	PAL1	2	R1095N
1384.922	3.916	5350427	REC_EVENT	1101	6	6	BRUSH	BREAD	BREAD	BRUSH	11	[0, 0, 0]	-999	PAL1	2	R1095N
1388.838	0.032	5354343	REC_END	n/a	6	-999	n/a	n/a	n/a	n/a	11	[0, 0, 0]	-999	PAL1	2	R1095N
1388.87	9.798	5354375	FEEDBACK_SHOW_ALL_PAIRS	n/a	6	-999	n/a	n/a	n/a	n/a	11	[0, 0, 0]	-999	PAL1	2	R1095N
1398.668	10.438	5364173	ENCODING_START	n/a	0	-999	n/a	n/a	n/a	n/a	12	[0, 0, 0]	-999	PAL1	2	R1095N
1409.106	0.9	5374611	STUDY_ORIENT	n/a	1	1	SPOON	TOY	SPOON	TOY	12	[0, 0, 0]	-999	PAL1	2	R1095N
1410.006	5.018	5375511	STUDY_PAIR	n/a	1	1	SPOON	TOY	SPOON	TOY	12	[0, 0, 0]	-999	PAL1	2	R1095N
1415.024	0.801	5380529	STUDY_ORIENT	n/a	2	2	CONE	CLOWN	CLOWN	CONE	12	[0, 0, 0]	-999	PAL1	2	R1095N
1415.825	5.033	5381330	STUDY_PAIR	n/a	2	2	CONE	CLOWN	CLOWN	CONE	12	[0, 0, 0]	-999	PAL1	2	R1095N
1420.858	0.934	5386363	STUDY_ORIENT	n/a	3	5	FLEA	LIP	FLEA	LIP	12	[0, 0, 0]	-999	PAL1	2	R1095N
1421.792	5.034	5387297	STUDY_PAIR	n/a	3	5	FLEA	LIP	FLEA	LIP	12	[0, 0, 0]	-999	PAL1	2	R1095N
1426.826	0.934	5392331	STUDY_ORIENT	n/a	4	6	DOCK	HEART	HEART	DOCK	12	[0, 0, 0]	-999	PAL1	2	R1095N
1427.76	5.034	5393265	STUDY_PAIR	n/a	4	6	DOCK	HEART	HEART	DOCK	12	[0, 0, 0]	-999	PAL1	2	R1095N
1432.794	0.9	5398299	STUDY_ORIENT	n/a	5	3	FRUIT	WEED	FRUIT	WEED	12	[0, 0, 0]	-999	PAL1	2	R1095N
1433.694	5.034	5399199	STUDY_PAIR	n/a	5	3	FRUIT	WEED	FRUIT	WEED	12	[0, 0, 0]	-999	PAL1	2	R1095N
1438.728	0.983	5404233	STUDY_ORIENT	n/a	6	4	FLOOR	TRAY	FLOOR	TRAY	12	[0, 0, 0]	-999	PAL1	2	R1095N
1439.711	4.018	5405216	STUDY_PAIR	n/a	6	4	FLOOR	TRAY	FLOOR	TRAY	12	[0, 0, 0]	-999	PAL1	2	R1095N
1443.729	0.999	5409234	START	n/a	-999	-999	n/a	n/a	n/a	n/a	12	[-999, -999, -999]	-999	PAL1	2	R1095N
1444.728	0.017	5410233	MATH_START	n/a	-999	-999	n/a	n/a	n/a	n/a	12	[0, 0, 0]	-999	PAL1	2	R1095N
1444.745	2.951	5410250	PROB	2921	-999	-999	n/a	n/a	n/a	n/a	12	[1, 7, 7]	15	PAL1	2	R1095N
1447.696	3.05	5413201	PROB	3026	-999	-999	n/a	n/a	n/a	n/a	12	[9, 3, 1]	13	PAL1	2	R1095N
1450.746	3.467	5416251	PROB	3432	-999	-999	n/a	n/a	n/a	n/a	12	[2, 1, 6]	9	PAL1	2	R1095N
1454.213	2.35	5419718	PROB	2317	-999	-999	n/a	n/a	n/a	n/a	12	[3, 7, 2]	12	PAL1	2	R1095N
1456.563	4.45	5422068	PROB	4422	-999	-999	n/a	n/a	n/a	n/a	12	[8, 3, 9]	20	PAL1	2	R1095N
1461.013	2.401	5426518	PROB	2373	-999	-999	n/a	n/a	n/a	n/a	12	[5, 5, 7]	17	PAL1	2	R1095N
1463.414	2.483	5428919	PROB	2483	-999	-999	n/a	n/a	n/a	n/a	12	[1, 9, 1]	11	PAL1	2	R1095N
1465.897	0.017	5431402	STOP	n/a	-999	-999	n/a	n/a	n/a	n/a	12	[-999, -999, -999]	-999	PAL1	2	R1095N
1465.914	0.0	5431419	MATH_END	n/a	-999	-999	n/a	n/a	n/a	n/a	12	[0, 0, 0]	-999	PAL1	2	R1095N
1465.914	0.016	5431419	TEST_START	n/a	-999	-999	n/a	n/a	n/a	n/a	12	[0, 0, 0]	-999	PAL1	2	R1095N
1465.93	0.95	5431435	TEST_ORIENT	n/a	1	1	SPOON	TOY	SPOON	TOY	12	[0, 0, 0]	-999	PAL1	2	R1095N
1466.88	0.001	5432385	TEST_PROBE	n/a	1	1	SPOON	TOY	SPOON	TOY	12	[0, 0, 0]	-999	PAL1	2	R1095N
1466.881	0.815	5432386	REC_START	n/a	1	-999	n/a	TOY	n/a	n/a	12	[0, 0, 0]	-999	PAL1	2	R1095N
1467.696	4.193	5433201	REC_EVENT	815	1	1	SPOON	TOY	SPOON	TOY	12	[0, 0, 0]	-999	PAL1	2	R1095N
1471.889	0.009	5437394	REC_END	n/a	1	-999	n/a	n/a	n/a	n/a	12	[0, 0, 0]	-999	PAL1	2	R1095N
1471.898	0.983	5437403	TEST_ORIENT	n/a	2	2	CONE	CLOWN	CLOWN	CONE	12	[0, 0, 0]	-999	PAL1	2	R1095N
1472.881	0.001	5438386	TEST_PROBE	n/a	2	2	CONE	CLOWN	CLOWN	CONE	12	[0, 0, 0]	-999	PAL1	2	R1095N
1472.882	0.88	5438387	REC_START	n/a	2	-999	n/a	CLOWN	n/a	n/a	12	[0, 0, 0]	-999	PAL1	2	R1095N
1473.762	4.144	5439267	REC_EVENT	880	2	2	CONE	CLOWN	CLOWN	CONE	12	[0, 0, 0]	-999	PAL1	2	R1095N
1477.906	0.009	5443411	REC_END	n/a	2	-999	n/a	n/a	n/a	n/a	12	[0, 0, 0]	-999	PAL1	2	R1095N
1477.915	0.95	5443420	TEST_ORIENT	n/a	5	3	FRUIT	WEED	FRUIT	WEED	12	[0, 0, 0]	-999	PAL1	2	R1095N
1478.865	0.001	5444370	TEST_PROBE	n/a	5	3	FRUIT	WEED	FRUIT	WEED	12	[0, 0, 0]	-999	PAL1	2	R1095N
1478.866	0.901	5444371	REC_START	n/a	5	-999	n/a	WEED	n/a	n/a	12	[0, 0, 0]	-999	PAL1	2	R1095N
1479.767	4.116	5445272	REC_EVENT	901	5	3	FRUIT	WEED	FRUIT	WEED	12	[0, 0, 0]	-999	PAL1	2	R1095N
1483.883	0.016	5449388	REC_END	n/a	5	-999	n/a	n/a	n/a	n/a	12	[0, 0, 0]	-999	PAL1	2	R1095N
1483.899	1.034	5449404	TEST_ORIENT	n/a	6	4	FLOOR	TRAY	FLOOR	TRAY	12	[0, 0, 0]	-999	PAL1	2	R1095N
1484.933	0.0	5450438	TEST_PROBE	n/a	6	4	FLOOR	TRAY	FLOOR	TRAY	12	[0, 0, 0]	-999	PAL1	2	R1095N
1484.933	1.112	5450438	REC_START	n/a	6	-999	n/a	TRAY	n/a	n/a	12	[0, 0, 0]	-999	PAL1	2	R1095N
1486.045	3.905	5451550	REC_EVENT	1112	6	4	FLOOR	TRAY	FLOOR	TRAY	12	[0, 0, 0]	-999	PAL1	2	R1095N
1489.95	0.017	5455455	REC_END	n/a	6	-999	n/a	n/a	n/a	n/a	12	[0, 0, 0]	-999	PAL1	2	R1095N
1489.967	0.851	5455472	TEST_ORIENT	n/a	3	5	FLEA	LIP	FLEA	LIP	12	[0, 0, 0]	-999	PAL1	2	R1095N
1490.818	0.0	5456323	TEST_PROBE	n/a	3	5	FLEA	LIP	FLEA	LIP	12	[0, 0, 0]	-999	PAL1	2	R1095N
1490.818	0.935	5456323	REC_START	n/a	3	-999	n/a	LIP	n/a	n/a	12	[0, 0, 0]	-999	PAL1	2	R1095N
1491.753	4.09	5457258	REC_EVENT	935	3	5	FLEA	LIP	FLEA	LIP	12	[0, 0, 0]	-999	PAL1	2	R1095N
1495.843	0.008	5461348	REC_END	n/a	3	-999	n/a	n/a	n/a	n/a	12	[0, 0, 0]	-999	PAL1	2	R1095N
1495.851	0.884	5461356	TEST_ORIENT	n/a	4	6	DOCK	HEART	HEART	DOCK	12	[0, 0, 0]	-999	PAL1	2	R1095N
1496.735	0.001	5462240	TEST_PROBE	n/a	4	6	DOCK	HEART	HEART	DOCK	12	[0, 0, 0]	-999	PAL1	2	R1095N
1496.736	1.026	5462241	REC_START	n/a	4	-999	n/a	HEART	n/a	n/a	12	[0, 0, 0]	-999	PAL1	2	R1095N
1497.762	3.99	5463267	REC_EVENT	1026	4	6	DOCK	HEART	HEART	DOCK	12	[0, 0, 0]	-999	PAL1	2	R1095N
1501.752	0.034	5467257	REC_END	n/a	4	-999	n/a	n/a	n/a	n/a	12	[0, 0, 0]	-999	PAL1	2	R1095N
1501.786	9.534	5467291	FEEDBACK_SHOW_ALL_PAIRS	n/a	4	-999	n/a	n/a	n/a	n/a	12	[0, 0, 0]	-999	PAL1	2	R1095N
1511.32	10.452	5476825	ENCODING_START	n/a	0	-999	n/a	n/a	n/a	n/a	13	[0, 0, 0]	-999	PAL1	2	R1095N
1521.772	0.817	5487278	STUDY_ORIENT	n/a	1	5	BOY	YARD	YARD	BOY	13	[0, 0, 0]	-999	PAL1	2	R1095N
1522.589	5.034	5488095	STUDY_PAIR	n/a	1	5	BOY	YARD	YARD	BOY	13	[0, 0, 0]	-999	PAL1	2	R1095N
1527.623	0.883	5493129	STUDY_ORIENT	n/a	2	4	SHIRT	CANE	SHIRT	CANE	13	[0, 0, 0]	-999	PAL1	2	R1095N
1528.506	5.034	5494012	STUDY_PAIR	n/a	2	4	SHIRT	CANE	SHIRT	CANE	13	[0, 0, 0]	-999	PAL1	2	R1095N
1533.54	1.0	5499046	STUDY_ORIENT	n/a	3	1	OAR	n/a	DOOR	OAR	13	[0, 0, 0]	-999	PAL1	2	R1095N
1534.54	5.034	5500046	STUDY_PAIR	n/a	3	1	OAR	n/a	DOOR	OAR	13	[0, 0, 0]	-999	PAL1	2	R1095N
1539.574	0.9	5505080	STUDY_ORIENT	n/a	4	6	PLANT	TIE	TIE	PLANT	13	[0, 0, 0]	-999	PAL1	2	R1095N
1540.474	5.034	5505980	STUDY_PAIR	n/a	4	6	PLANT	TIE	TIE	PLANT	13	[0, 0, 0]	-999	PAL1	2	R1095N
1545.508	0.8	5511014	STUDY_ORIENT	n/a	5	3	NET	SQUARE	NET	SQUARE	13	[0, 0, 0]	-999	PAL1	2	R1095N
1546.308	5.034	5511814	STUDY_PAIR	n/a	5	3	NET	SQUARE	NET	SQUARE	13	[0, 0, 0]	-999	PAL1	2	R1095N
1551.342	0.917	5516848	STUDY_ORIENT	n/a	6	2	STEAM	FOAM	FOAM	STEAM	13	[0, 0, 0]	-999	PAL1	2	R1095N
1552.259	4.018	5517765	STUDY_PAIR	n/a	6	2	STEAM	FOAM	FOAM	STEAM	13	[0, 0, 0]	-999	PAL1	2	R1095N
1556.277	0.999	5521783	START	n/a	-999	-999	n/a	n/a	n/a	n/a	13	[-999, -999, -999]	-999	PAL1	2	R1095N
1557.276	0.017	5522782	MATH_START	n/a	-999	-999	n/a	n/a	n/a	n/a	13	[0, 0, 0]	-999	PAL1	2	R1095N
1557.293	4.666	5522799	PROB	4632	-999	-999	n/a	n/a	n/a	n/a	13	[2, 7, 9]	18	PAL1	2	R1095N
1561.959	3.051	5527465	PROB	3029	-999	-999	n/a	n/a	n/a	n/a	13	[3, 7, 3]	13	PAL1	2	R1095N
1565.01	2.601	5530516	PROB	2571	-999	-999	n/a	n/a	n/a	n/a	13	[7, 7, 7]	21	PAL1	2	R1095N
1567.611	8.601	5533117	PROB	8570	-999	-999	n/a	n/a	n/a	n/a	13	[4, 9, 6]	19	PAL1	2	R1095N
1576.212	3.225	5541718	PROB	3225	-999	-999	n/a	n/a	n/a	n/a	13	[8, 2, 2]	12	PAL1	2	R1095N
1579.437	0.009	5544943	STOP	n/a	-999	-999	n/a	n/a	n/a	n/a	13	[-999, -999, -999]	-999	PAL1	2	R1095N
1579.446	0.0	5544952	MATH_END	n/a	-999	-999	n/a	n/a	n/a	n/a	13	[0, 0, 0]	-999	PAL1	2	R1095N
1579.446	0.016	5544952	TEST_START	n/a	-999	-999	n/a	n/a	n/a	n/a	13	[0, 0, 0]	-999	PAL1	2	R1095N
1579.462	1.017	5544968	TEST_ORIENT	n/a	3	1	OAR	n/a	DOOR	OAR	13	[0, 0, 0]	-999	PAL1	2	R1095N
1580.479	0.001	5545985	TEST_PROBE	n/a	3	1	OAR	n/a	DOOR	OAR	13	[0, 0, 0]	-999	PAL1	2	R1095N
1580.48	5.024	5545986	REC_START	n/a	3	-999	n/a	n/a	n/a	n/a	13	[0, 0, 0]	-999	PAL1	2	R1095N
1585.504	0.003	5551010	REC_END	n/a	3	-999	n/a	n/a	n/a	n/a	13	[0, 0, 0]	-999	PAL1	2	R1095N
1585.507	0.006	5551013	REC_EVENT	5027	3	1	OAR	<>	DOOR	OAR	13	[0, 0, 0]	-999	PAL1	2	R1095N
1585.513	0.984	5551019	TEST_ORIENT	n/a	6	2	STEAM	FOAM	FOAM	STEAM	13	[0, 0, 0]	-999	PAL1	2	R1095N
1586.497	0.0	5552003	TEST_PROBE	n/a	6	2	STEAM	FOAM	FOAM	STEAM	13	[0, 0, 0]	-999	PAL1	2	R1095N
1586.497	0.844	5552003	REC_START	n/a	6	-999	n/a	FOAM	n/a	n/a	13	[0, 0, 0]	-999	PAL1	2	R1095N
1587.341	4.173	5552847	REC_EVENT	844	6	2	STEAM	FOAM	FOAM	STEAM	13	[0, 0, 0]	-999	PAL1	2	R1095N
1591.514	0.017	5557020	REC_END	n/a	6	-999	n/a	n/a	n/a	n/a	13	[0, 0, 0]	-999	PAL1	2	R1095N
1591.531	0.816	5557037	TEST_ORIENT	n/a	5	3	NET	SQUARE	NET	SQUARE	13	[0, 0, 0]	-999	PAL1	2	R1095N
1592.347	0.001	5557853	TEST_PROBE	n/a	5	3	NET	SQUARE	NET	SQUARE	13	[0, 0, 0]	-999	PAL1	2	R1095N
1592.348	0.86	5557854	REC_START	n/a	5	-999	n/a	SQUARE	n/a	n/a	13	[0, 0, 0]	-999	PAL1	2	R1095N
1593.208	4.148	5558714	REC_EVENT	860	5	3	NET	SQUARE	NET	SQUARE	13	[0, 0, 0]	-999	PAL1	2	R1095N
1597.356	0.009	5562862	REC_END	n/a	5	-999	n/a	n/a	n/a	n/a	13	[0, 0, 0]	-999	PAL1	2	R1095N
1597.365	0.95	5562871	TEST_ORIENT	n/a	2	4	SHIRT	CANE	SHIRT	CANE	13	[0, 0, 0]	-999	PAL1	2	R1095N
1598.315	0.0	5563821	TEST_PROBE	n/a	2	4	SHIRT	CANE	SHIRT	CANE	13	[0, 0, 0]	-999	PAL1	2	R1095N
1598.315	1.58	5563821	REC_START	n/a	2	-999	n/a	CANE	n/a	n/a	13	[0, 0, 0]	-999	PAL1	2	R1095N
1599.895	3.445	5565401	REC_EVENT	1580	2	4	SHIRT	CANE	SHIRT	CANE	13	[0, 0, 0]	-999	PAL1	2	R1095N
1603.34	0.009	5568846	REC_END	n/a	2	-999	n/a	n/a	n/a	n/a	13	[0, 0, 0]	-999	PAL1	2	R1095N
1603.349	0.799	5568855	TEST_ORIENT	n/a	1	5	BOY	YARD	YARD	BOY	13	[0, 0, 0]	-999	PAL1	2	R1095N
1604.148	0.0	5569654	TEST_PROBE	n/a	1	5	BOY	YARD	YARD	BOY	13	[0, 0, 0]	-999	PAL1	2	R1095N
1604.148	2.295	5569654	REC_START	n/a	1	-999	n/a	YARD	n/a	n/a	13	[0, 0, 0]	-999	PAL1	2	R1095N
1606.443	2.722	5571949	REC_EVENT	2295	1	5	BOY	YARD	YARD	BOY	13	[0, 0, 0]	-999	PAL1	2	R1095N
1609.165	0.018	5574671	REC_END	n/a	1	-999	n/a	n/a	n/a	n/a	13	[0, 0, 0]	-999	PAL1	2	R1095N
1609.183	0.849	5574689	TEST_ORIENT	n/a	4	6	PLANT	TIE	TIE	PLANT	13	[0, 0, 0]	-999	PAL1	2	R1095N
1610.032	0.0	5575538	TEST_PROBE	n/a	4	6	PLANT	TIE	TIE	PLANT	13	[0, 0, 0]	-999	PAL1	2	R1095N
1610.032	0.886	5575538	REC_START	n/a	4	-999	n/a	TIE	n/a	n/a	13	[0, 0, 0]	-999	PAL1	2	R1095N
1610.918	4.139	5576424	REC_EVENT	886	4	6	PLANT	TIE	TIE	PLANT	13	[0, 0, 0]	-999	PAL1	2	R1095N
1615.057	0.026	5580563	REC_END	n/a	4	-999	n/a	n/a	n/a	n/a	13	[0, 0, 0]	-999	PAL1	2	R1095N
1615.083	9.528	5580589	FEEDBACK_SHOW_ALL_PAIRS	n/a	4	-999	n/a	n/a	n/a	n/a	13	[0, 0, 0]	-999	PAL1	2	R1095N
1624.611	10.458	5590117	ENCODING_START	n/a	0	-999	n/a	n/a	n/a	n/a	14	[0, 0, 0]	-999	PAL1	2	R1095N
1635.069	0.8	5600575	STUDY_ORIENT	n/a	1	1	SKUNK	LAMP	LAMP	SKUNK	14	[0, 0, 0]	-999	PAL1	2	R1095N
1635.869	5.034	5601375	STUDY_PAIR	n/a	1	1	SKUNK	LAMP	LAMP	SKUNK	14	[0, 0, 0]	-999	PAL1	2	R1095N
1640.903	0.983	5606409	STUDY_ORIENT	n/a	2	2	STRING	n/a	STRING	SPONGE	14	[0, 0, 0]	-999	PAL1	2	R1095N
1641.886	5.034	5607392	STUDY_PAIR	n/a	2	2	STRING	n/a	STRING	SPONGE	14	[0, 0, 0]	-999	PAL1	2	R1095N
1646.92	1.0	5612426	STUDY_ORIENT	n/a	3	3	TOAD	BOWL	TOAD	BOWL	14	[0, 0, 0]	-999	PAL1	2	R1095N
1647.92	5.034	5613426	STUDY_PAIR	n/a	3	3	TOAD	BOWL	TOAD	BOWL	14	[0, 0, 0]	-999	PAL1	2	R1095N
1652.954	1.0	5618460	STUDY_ORIENT	n/a	4	6	SHRIMP	CALF	SHRIMP	CALF	14	[0, 0, 0]	-999	PAL1	2	R1095N
1653.954	5.018	5619460	STUDY_PAIR	n/a	4	6	SHRIMP	CALF	SHRIMP	CALF	14	[0, 0, 0]	-999	PAL1	2	R1095N
1658.972	0.916	5624478	STUDY_ORIENT	n/a	5	5	ARK	VEST	ARK	VEST	14	[0, 0, 0]	-999	PAL1	2	R1095N
1659.888	5.018	5625394	STUDY_PAIR	n/a	5	5	ARK	VEST	ARK	VEST	14	[0, 0, 0]	-999	PAL1	2	R1095N
1664.906	1.0	5630412	STUDY_ORIENT	n/a	6	4	BENCH	SWAMP	SWAMP	BENCH	14	[0, 0, 0]	-999	PAL1	2	R1095N
1665.906	4.017	5631412	STUDY_PAIR	n/a	6	4	BENCH	SWAMP	SWAMP	BENCH	14	[0, 0, 0]	-999	PAL1	2	R1095N
1669.923	1.0	5635429	START	n/a	-999	-999	n/a	n/a	n/a	n/a	14	[-999, -999, -999]	-999	PAL1	2	R1095N
1670.923	0.017	5636429	MATH_START	n/a	-999	-999	n/a	n/a	n/a	n/a	14	[0, 0, 0]	-999	PAL1	2	R1095N
1670.94	3.585	5636446	PROB	3557	-999	-999	n/a	n/a	n/a	n/a	14	[8, 1, 8]	17	PAL1	2	R1095N
1674.525	3.332	5640031	PROB	3300	-999	-999	n/a	n/a	n/a	n/a	14	[8, 2, 5]	15	PAL1	2	R1095N
1677.857	3.635	5643363	PROB	3616	-999	-999	n/a	n/a	n/a	n/a	14	[5, 2, 6]	13	PAL1	2	R1095N
1681.492	2.684	5646998	PROB	2660	-999	-999	n/a	n/a	n/a	n/a	14	[2, 8, 5]	15	PAL1	2	R1095N
1684.176	3.916	5649682	PROB	3895	-999	-999	n/a	n/a	n/a	n/a	14	[9, 9, 9]	27	PAL1	2	R1095N
1688.092	3.54	5653598	PROB	3540	-999	-999	n/a	n/a	n/a	n/a	14	[9, 5, 4]	18	PAL1	2	R1095N
1691.632	0.012	5657138	STOP	n/a	-999	-999	n/a	n/a	n/a	n/a	14	[-999, -999, -999]	-999	PAL1	2	R1095N
1691.644	0.0	5657150	MATH_END	n/a	-999	-999	n/a	n/a	n/a	n/a	14	[0, 0, 0]	-999	PAL1	2	R1095N
1691.644	0.016	5657150	TEST_START	n/a	-999	-999	n/a	n/a	n/a	n/a	14	[0, 0, 0]	-999	PAL1	2	R1095N
1691.66	0.8	5657166	TEST_ORIENT	n/a	1	1	SKUNK	LAMP	LAMP	SKUNK	14	[0, 0, 0]	-999	PAL1	2	R1095N
1692.46	0.001	5657966	TEST_PROBE	n/a	1	1	SKUNK	LAMP	LAMP	SKUNK	14	[0, 0, 0]	-999	PAL1	2	R1095N
1692.461	0.821	5657967	REC_START	n/a	1	-999	n/a	LAMP	n/a	n/a	14	[0, 0, 0]	-999	PAL1	2	R1095N
1693.282	4.204	5658788	REC_EVENT	821	1	1	SKUNK	LAMP	LAMP	SKUNK	14	[0, 0, 0]	-999	PAL1	2	R1095N
1697.486	0.008	5662992	REC_END	n/a	1	-999	n/a	n/a	n/a	n/a	14	[0, 0, 0]	-999	PAL1	2	R1095N
1697.494	0.834	5663000	TEST_ORIENT	n/a	2	2	STRING	n/a	STRING	SPONGE	14	[0, 0, 0]	-999	PAL1	2	R1095N
1698.328	0.0	5663834	TEST_PROBE	n/a	2	2	STRING	n/a	STRING	SPONGE	14	[0, 0, 0]	-999	PAL1	2	R1095N
1698.328	5.015	5663834	REC_START	n/a	2	-999	n/a	n/a	n/a	n/a	14	[0, 0, 0]	-999	PAL1	2	R1095N
1703.343	0.002	5668849	REC_EVENT	5015	2	2	STRING	<>	STRING	SPONGE	14	[0, 0, 0]	-999	PAL1	2	R1095N
1703.345	0.017	5668851	REC_END	n/a	2	-999	n/a	n/a	n/a	n/a	14	[0, 0, 0]	-999	PAL1	2	R1095N
1703.362	0.916	5668868	TEST_ORIENT	n/a	3	3	TOAD	BOWL	TOAD	BOWL	14	[0, 0, 0]	-999	PAL1	2	R1095N
1704.278	0.001	5669784	TEST_PROBE	n/a	3	3	TOAD	BOWL	TOAD	BOWL	14	[0, 0, 0]	-999	PAL1	2	R1095N
1704.279	0.871	5669785	REC_START	n/a	3	-999	n/a	BOWL	n/a	n/a	14	[0, 0, 0]	-999	PAL1	2	R1095N
1705.15	4.137	5670656	REC_EVENT	871	3	3	TOAD	BOWL	TOAD	BOWL	14	[0, 0, 0]	-999	PAL1	2	R1095N
1709.287	0.009	5674793	REC_END	n/a	3	-999	n/a	n/a	n/a	n/a	14	[0, 0, 0]	-999	PAL1	2	R1095N
1709.296	0.849	5674802	TEST_ORIENT	n/a	6	4	BENCH	SWAMP	SWAMP	BENCH	14	[0, 0, 0]	-999	PAL1	2	R1095N
1710.145	0.001	5675651	TEST_PROBE	n/a	6	4	BENCH	SWAMP	SWAMP	BENCH	14	[0, 0, 0]	-999	PAL1	2	R1095N
1710.146	0.859	5675652	REC_START	n/a	6	-999	n/a	SWAMP	n/a	n/a	14	[0, 0, 0]	-999	PAL1	2	R1095N
1711.005	4.166	5676511	REC_EVENT	859	6	4	BENCH	SWAMP	SWAMP	BENCH	14	[0, 0, 0]	-999	PAL1	2	R1095N
1715.171	0.009	5680677	REC_END	n/a	6	-999	n/a	n/a	n/a	n/a	14	[0, 0, 0]	-999	PAL1	2	R1095N
1715.18	1.016	5680686	TEST_ORIENT	n/a	5	5	ARK	VEST	ARK	VEST	14	[0, 0, 0]	-999	PAL1	2	R1095N
1716.196	0.001	5681702	TEST_PROBE	n/a	5	5	ARK	VEST	ARK	VEST	14	[0, 0, 0]	-999	PAL1	2	R1095N
1716.197	0.932	5681703	REC_START	n/a	5	-999	n/a	VEST	n/a	n/a	14	[0, 0, 0]	-999	PAL1	2	R1095N
1717.129	4.076	5682635	REC_EVENT	932	5	5	ARK	VEST	ARK	VEST	14	[0, 0, 0]	-999	PAL1	2	R1095N
1721.205	0.009	5686711	REC_END	n/a	5	-999	n/a	n/a	n/a	n/a	14	[0, 0, 0]	-999	PAL1	2	R1095N
1721.214	0.815	5686720	TEST_ORIENT	n/a	4	6	SHRIMP	CALF	SHRIMP	CALF	14	[0, 0, 0]	-999	PAL1	2	R1095N
1722.029	0.002	5687535	TEST_PROBE	n/a	4	6	SHRIMP	CALF	SHRIMP	CALF	14	[0, 0, 0]	-999	PAL1	2	R1095N
1722.031	0.855	5687537	REC_START	n/a	4	-999	n/a	CALF	n/a	n/a	14	[0, 0, 0]	-999	PAL1	2	R1095N
1722.886	4.144	5688392	REC_EVENT	855	4	6	SHRIMP	CALF	SHRIMP	CALF	14	[0, 0, 0]	-999	PAL1	2	R1095N
1727.03	0.034	5692536	REC_END	n/a	4	-999	n/a	n/a	n/a	n/a	14	[0, 0, 0]	-999	PAL1	2	R1095N
1727.064	9.829	5692570	FEEDBACK_SHOW_ALL_PAIRS	n/a	4	-999	n/a	n/a	n/a	n/a	14	[0, 0, 0]	-999	PAL1	2	R1095N
1736.893	10.441	5702399	ENCODING_START	n/a	0	-999	n/a	n/a	n/a	n/a	15	[0, 0, 0]	-999	PAL1	2	R1095N
1747.334	0.85	5712840	STUDY_ORIENT	n/a	1	5	JEEP	STAR	STAR	JEEP	15	[0, 0, 0]	-999	PAL1	2	R1095N
1748.184	5.034	5713690	STUDY_PAIR	n/a	1	5	JEEP	STAR	STAR	JEEP	15	[0, 0, 0]	-999	PAL1	2	R1095N
1753.218	0.782	5718724	STUDY_ORIENT	n/a	2	6	HORSE	AXE	AXE	HORSE	15	[0, 0, 0]	-999	PAL1	2	R1095N
1754.0	5.018	5719506	STUDY_PAIR	n/a	2	6	HORSE	AXE	AXE	HORSE	15	[0, 0, 0]	-999	PAL1	2	R1095N
1759.018	0.933	5724524	STUDY_ORIENT	n/a	3	1	KEY	THUMB	THUMB	KEY	15	[0, 0, 0]	-999	PAL1	2	R1095N
1759.951	5.034	5725457	STUDY_PAIR	n/a	3	1	KEY	THUMB	THUMB	KEY	15	[0, 0, 0]	-999	PAL1	2	R1095N
1764.985	0.867	5730491	STUDY_ORIENT	n/a	4	2	INK	BRIDGE	INK	BRIDGE	15	[0, 0, 0]	-999	PAL1	2	R1095N
1765.852	5.034	5731358	STUDY_PAIR	n/a	4	2	INK	BRIDGE	INK	BRIDGE	15	[0, 0, 0]	-999	PAL1	2	R1095N
1770.886	0.784	5736392	STUDY_ORIENT	n/a	5	3	CHIN	CAR	CHIN	CAR	15	[0, 0, 0]	-999	PAL1	2	R1095N
1771.67	5.018	5737176	STUDY_PAIR	n/a	5	3	CHIN	CAR	CHIN	CAR	15	[0, 0, 0]	-999	PAL1	2	R1095N
1776.688	0.833	5742194	STUDY_ORIENT	n/a	6	4	SKI	SHARK	SHARK	SKI	15	[0, 0, 0]	-999	PAL1	2	R1095N
1777.521	4.018	5743027	STUDY_PAIR	n/a	6	4	SKI	SHARK	SHARK	SKI	15	[0, 0, 0]	-999	PAL1	2	R1095N
1781.539	0.999	5747045	START	n/a	-999	-999	n/a	n/a	n/a	n/a	15	[-999, -999, -999]	-999	PAL1	2	R1095N
1782.538	0.017	5748044	MATH_START	n/a	-999	-999	n/a	n/a	n/a	n/a	15	[0, 0, 0]	-999	PAL1	2	R1095N
1782.555	4.4	5748061	PROB	4368	-999	-999	n/a	n/a	n/a	n/a	15	[9, 9, 5]	23	PAL1	2	R1095N
1786.955	2.501	5752461	PROB	2473	-999	-999	n/a	n/a	n/a	n/a	15	[6, 6, 1]	13	PAL1	2	R1095N
1789.456	2.566	5754962	PROB	2531	-999	-999	n/a	n/a	n/a	n/a	15	[1, 1, 5]	7	PAL1	2	R1095N
1792.022	5.719	5757528	PROB	5694	-999	-999	n/a	n/a	n/a	n/a	15	[4, 9, 7]	20	PAL1	2	R1095N
1797.741	2.833	5763247	PROB	2799	-999	-999	n/a	n/a	n/a	n/a	15	[6, 4, 3]	13	PAL1	2	R1095N
1800.574	4.405	5766080	PROB	4405	-999	-999	n/a	n/a	n/a	n/a	15	[9, 6, 9]	24	PAL1	2	R1095N
1804.979	0.011	5770485	STOP	n/a	-999	-999	n/a	n/a	n/a	n/a	15	[-999, -999, -999]	-999	PAL1	2	R1095N
1804.99	0.0	5770496	MATH_END	n/a	-999	-999	n/a	n/a	n/a	n/a	15	[0, 0, 0]	-999	PAL1	2	R1095N
1804.99	0.017	5770496	TEST_START	n/a	-999	-999	n/a	n/a	n/a	n/a	15	[0, 0, 0]	-999	PAL1	2	R1095N
1805.007	0.9	5770513	TEST_ORIENT	n/a	3	1	KEY	THUMB	THUMB	KEY	15	[0, 0, 0]	-999	PAL1	2	R1095N
1805.907	0.001	5771413	TEST_PROBE	n/a	3	1	KEY	THUMB	THUMB	KEY	15	[0, 0, 0]	-999	PAL1	2	R1095N
1805.908	2.365	5771414	REC_START	n/a	3	-999	n/a	THUMB	n/a	n/a	15	[0, 0, 0]	-999	PAL1	2	R1095N
1808.273	2.659	5773779	REC_EVENT	2365	3	1	KEY	THUMB	THUMB	KEY	15	[0, 0, 0]	-999	PAL1	2	R1095N
1810.932	0.009	5776438	REC_END	n/a	3	-999	n/a	n/a	n/a	n/a	15	[0, 0, 0]	-999	PAL1	2	R1095N
1810.941	0.851	5776447	TEST_ORIENT	n/a	4	2	INK	BRIDGE	INK	BRIDGE	15	[0, 0, 0]	-999	PAL1	2	R1095N
1811.792	0.002	5777298	TEST_PROBE	n/a	4	2	INK	BRIDGE	INK	BRIDGE	15	[0, 0, 0]	-999	PAL1	2	R1095N
1811.794	0.89	5777300	REC_START	n/a	4	-999	n/a	BRIDGE	n/a	n/a	15	[0, 0, 0]	-999	PAL1	2	R1095N
1812.684	4.125	5778190	REC_EVENT	890	4	2	INK	BRIDGE	INK	BRIDGE	15	[0, 0, 0]	-999	PAL1	2	R1095N
1816.809	0.017	5782315	REC_END	n/a	4	-999	n/a	n/a	n/a	n/a	15	[0, 0, 0]	-999	PAL1	2	R1095N
1816.826	0.867	5782332	TEST_ORIENT	n/a	5	3	CHIN	CAR	CHIN	CAR	15	[0, 0, 0]	-999	PAL1	2	R1095N
1817.693	0.0	5783199	REC_START	n/a	5	-999	n/a	CAR	n/a	n/a	15	[0, 0, 0]	-999	PAL1	2	R1095N
1817.693	0.813	5783199	TEST_PROBE	n/a	5	3	CHIN	CAR	CHIN	CAR	15	[0, 0, 0]	-999	PAL1	2	R1095N
1818.506	4.204	5784012	REC_EVENT	813	5	3	CHIN	CAR	CHIN	CAR	15	[0, 0, 0]	-999	PAL1	2	R1095N
1822.71	0.017	5788216	REC_END	n/a	5	-999	n/a	n/a	n/a	n/a	15	[0, 0, 0]	-999	PAL1	2	R1095N
1822.727	0.933	5788233	TEST_ORIENT	n/a	6	4	SKI	SHARK	SHARK	SKI	15	[0, 0, 0]	-999	PAL1	2	R1095N
1823.66	0.001	5789166	TEST_PROBE	n/a	6	4	SKI	SHARK	SHARK	SKI	15	[0, 0, 0]	-999	PAL1	2	R1095N
1823.661	0.775	5789167	REC_START	n/a	6	-999	n/a	SHARK	n/a	n/a	15	[0, 0, 0]	-999	PAL1	2	R1095N
1824.436	4.233	5789942	REC_EVENT	775	6	4	SKI	SHARK	SHARK	SKI	15	[0, 0, 0]	-999	PAL1	2	R1095N
1828.669	0.009	5794175	REC_END	n/a	6	-999	n/a	n/a	n/a	n/a	15	[0, 0, 0]	-999	PAL1	2	R1095N
1828.678	0.95	5794184	TEST_ORIENT	n/a	1	5	JEEP	STAR	STAR	JEEP	15	[0, 0, 0]	-999	PAL1	2	R1095N
1829.628	0.0	5795134	REC_START	n/a	1	-999	n/a	STAR	n/a	n/a	15	[0, 0, 0]	-999	PAL1	2	R1095N
1829.628	0.753	5795134	TEST_PROBE	n/a	1	5	JEEP	STAR	STAR	JEEP	15	[0, 0, 0]	-999	PAL1	2	R1095N
1830.381	4.264	5795887	REC_EVENT	753	1	5	JEEP	STAR	STAR	JEEP	15	[0, 0, 0]	-999	PAL1	2	R1095N
1834.645	0.017	5800151	REC_END	n/a	1	-999	n/a	n/a	n/a	n/a	15	[0, 0, 0]	-999	PAL1	2	R1095N
1834.662	0.867	5800168	TEST_ORIENT	n/a	2	6	HORSE	AXE	AXE	HORSE	15	[0, 0, 0]	-999	PAL1	2	R1095N
1835.529	0.0	5801035	TEST_PROBE	n/a	2	6	HORSE	AXE	AXE	HORSE	15	[0, 0, 0]	-999	PAL1	2	R1095N
1835.529	0.96	5801035	REC_START	n/a	2	-999	n/a	AXE	n/a	n/a	15	[0, 0, 0]	-999	PAL1	2	R1095N
1836.489	4.057	5801995	REC_EVENT	960	2	6	HORSE	AXE	AXE	HORSE	15	[0, 0, 0]	-999	PAL1	2	R1095N
1840.546	0.016	5806052	REC_END	n/a	2	-999	n/a	n/a	n/a	n/a	15	[0, 0, 0]	-999	PAL1	2	R1095N
1840.562	9.479	5806068	FEEDBACK_SHOW_ALL_PAIRS	n/a	2	-999	n/a	n/a	n/a	n/a	15	[0, 0, 0]	-999	PAL1	2	R1095N
1850.041	10.441	5815547	ENCODING_START	n/a	0	-999	n/a	n/a	n/a	n/a	16	[0, 0, 0]	-999	PAL1	2	R1095N
1860.482	0.85	5825988	STUDY_ORIENT	n/a	1	1	MAT	SPARK	MAT	SPARK	16	[0, 0, 0]	-999	PAL1	2	R1095N
1861.332	5.034	5826838	STUDY_PAIR	n/a	1	1	MAT	SPARK	MAT	SPARK	16	[0, 0, 0]	-999	PAL1	2	R1095N
1866.366	0.883	5831872	STUDY_ORIENT	n/a	2	4	LEG	MOUSE	LEG	MOUSE	16	[0, 0, 0]	-999	PAL1	2	R1095N
1867.249	5.018	5832755	STUDY_PAIR	n/a	2	4	LEG	MOUSE	LEG	MOUSE	16	[0, 0, 0]	-999	PAL1	2	R1095N
1872.267	0.865	5837773	STUDY_ORIENT	n/a	3	3	PIN	SPEAR	SPEAR	PIN	16	[0, 0, 0]	-999	PAL1	2	R1095N
1873.132	5.018	5838638	STUDY_PAIR	n/a	3	3	PIN	SPEAR	SPEAR	PIN	16	[0, 0, 0]	-999	PAL1	2	R1095N
1878.15	0.783	5843656	STUDY_ORIENT	n/a	4	6	ANT	DRESS	ANT	DRESS	16	[0, 0, 0]	-999	PAL1	2	R1095N
1878.933	5.034	5844439	STUDY_PAIR	n/a	4	6	ANT	DRESS	ANT	DRESS	16	[0, 0, 0]	-999	PAL1	2	R1095N
1883.967	0.884	5849473	STUDY_ORIENT	n/a	5	5	FORK	CAPE	CAPE	FORK	16	[0, 0, 0]	-999	PAL1	2	R1095N
1884.851	5.034	5850357	STUDY_PAIR	n/a	5	5	FORK	CAPE	CAPE	FORK	16	[0, 0, 0]	-999	PAL1	2	R1095N
1889.885	0.867	5855391	STUDY_ORIENT	n/a	6	2	MAZE	TENT	MAZE	TENT	16	[0, 0, 0]	-999	PAL1	2	R1095N
1890.752	4.001	5856258	STUDY_PAIR	n/a	6	2	MAZE	TENT	MAZE	TENT	16	[0, 0, 0]	-999	PAL1	2	R1095N
1894.753	1.0	5860259	START	n/a	-999	-999	n/a	n/a	n/a	n/a	16	[-999, -999, -999]	-999	PAL1	2	R1095N
1895.753	0.017	5861259	MATH_START	n/a	-999	-999	n/a	n/a	n/a	n/a	16	[0, 0, 0]	-999	PAL1	2	R1095N
1895.77	3.717	5861276	PROB	3686	-999	-999	n/a	n/a	n/a	n/a	16	[1, 3, 6]	10	PAL1	2	R1095N
1899.487	3.2	5864993	PROB	3168	-999	-999	n/a	n/a	n/a	n/a	16	[7, 4, 6]	17	PAL1	2	R1095N
1902.687	2.817	5868193	PROB	2792	-999	-999	n/a	n/a	n/a	n/a	16	[3, 7, 2]	12	PAL1	2	R1095N
1905.504	4.4	5871010	PROB	4374	-999	-999	n/a	n/a	n/a	n/a	16	[3, 4, 8]	15	PAL1	2	R1095N
1909.904	2.484	5875410	PROB	2463	-999	-999	n/a	n/a	n/a	n/a	16	[7, 7, 7]	21	PAL1	2	R1095N
1912.388	3.65	5877894	PROB	3650	-999	-999	n/a	n/a	n/a	n/a	16	[4, 1, 5]	9	PAL1	2	R1095N
1916.038	0.017	5881544	STOP	n/a	-999	-999	n/a	n/a	n/a	n/a	16	[-999, -999, -999]	-999	PAL1	2	R1095N
1916.055	0.0	5881561	MATH_END	n/a	-999	-999	n/a	n/a	n/a	n/a	16	[0, 0, 0]	-999	PAL1	2	R1095N
1916.055	0.016	5881561	TEST_START	n/a	-999	-999	n/a	n/a	n/a	n/a	16	[0, 0, 0]	-999	PAL1	2	R1095N
1916.071	0.934	5881577	TEST_ORIENT	n/a	1	1	MAT	SPARK	MAT	SPARK	16	[0, 0, 0]	-999	PAL1	2	R1095N
1917.005	0.001	5882511	TEST_PROBE	n/a	1	1	MAT	SPARK	MAT	SPARK	16	[0, 0, 0]	-999	PAL1	2	R1095N
1917.006	3.27	5882512	REC_START	n/a	1	-999	n/a	SPARK	n/a	n/a	16	[0, 0, 0]	-999	PAL1	2	R1095N
1920.276	1.754	5885783	REC_EVENT	3270	1	1	MAT	SPARK	MAT	SPARK	16	[0, 0, 0]	-999	PAL1	2	R1095N
1922.03	0.009	5887537	REC_END	n/a	1	-999	n/a	n/a	n/a	n/a	16	[0, 0, 0]	-999	PAL1	2	R1095N
1922.039	0.833	5887546	TEST_ORIENT	n/a	6	2	MAZE	TENT	MAZE	TENT	16	[0, 0, 0]	-999	PAL1	2	R1095N
1922.872	0.001	5888379	TEST_PROBE	n/a	6	2	MAZE	TENT	MAZE	TENT	16	[0, 0, 0]	-999	PAL1	2	R1095N
1922.873	1.917	5888380	REC_START	n/a	6	-999	n/a	TENT	n/a	n/a	16	[0, 0, 0]	-999	PAL1	2	R1095N
1924.79	3.099	5890297	REC_EVENT	1917	6	2	MAZE	TENT	MAZE	TENT	16	[0, 0, 0]	-999	PAL1	2	R1095N
1927.889	0.017	5893396	REC_END	n/a	6	-999	n/a	n/a	n/a	n/a	16	[0, 0, 0]	-999	PAL1	2	R1095N
1927.906	1.017	5893413	TEST_ORIENT	n/a	3	3	PIN	SPEAR	SPEAR	PIN	16	[0, 0, 0]	-999	PAL1	2	R1095N
1928.923	0.0	5894430	REC_START	n/a	3	-999	n/a	SPEAR	n/a	n/a	16	[0, 0, 0]	-999	PAL1	2	R1095N
1928.923	0.801	5894430	TEST_PROBE	n/a	3	3	PIN	SPEAR	SPEAR	PIN	16	[0, 0, 0]	-999	PAL1	2	R1095N
1929.724	4.216	5895231	REC_EVENT	801	3	3	PIN	SPEAR	SPEAR	PIN	16	[0, 0, 0]	-999	PAL1	2	R1095N
1933.94	0.017	5899447	REC_END	n/a	3	-999	n/a	n/a	n/a	n/a	16	[0, 0, 0]	-999	PAL1	2	R1095N
1933.957	0.851	5899464	TEST_ORIENT	n/a	2	4	LEG	MOUSE	LEG	MOUSE	16	[0, 0, 0]	-999	PAL1	2	R1095N
1934.808	0.001	5900315	TEST_PROBE	n/a	2	4	LEG	MOUSE	LEG	MOUSE	16	[0, 0, 0]	-999	PAL1	2	R1095N
1934.809	1.076	5900316	REC_START	n/a	2	-999	n/a	MOUSE	n/a	n/a	16	[0, 0, 0]	-999	PAL1	2	R1095N
1935.885	3.94	5901392	REC_EVENT	1076	2	4	LEG	MOUSE	LEG	MOUSE	16	[0, 0, 0]	-999	PAL1	2	R1095N
1939.825	0.017	5905332	REC_END	n/a	2	-999	n/a	n/a	n/a	n/a	16	[0, 0, 0]	-999	PAL1	2	R1095N
1939.842	0.934	5905349	TEST_ORIENT	n/a	5	5	FORK	CAPE	CAPE	FORK	16	[0, 0, 0]	-999	PAL1	2	R1095N
1940.776	0.0	5906283	REC_START	n/a	5	-999	n/a	CAPE	n/a	n/a	16	[0, 0, 0]	-999	PAL1	2	R1095N
1940.776	2.283	5906283	TEST_PROBE	n/a	5	5	FORK	CAPE	CAPE	FORK	16	[0, 0, 0]	-999	PAL1	2	R1095N
1943.059	2.742	5908566	REC_EVENT	2283	5	5	FORK	CAPE	CAPE	FORK	16	[0, 0, 0]	-999	PAL1	2	R1095N
1945.801	0.008	5911308	REC_END	n/a	5	-999	n/a	n/a	n/a	n/a	16	[0, 0, 0]	-999	PAL1	2	R1095N
1945.809	0.8	5911316	TEST_ORIENT	n/a	4	6	ANT	DRESS	ANT	DRESS	16	[0, 0, 0]	-999	PAL1	2	R1095N
1946.609	0.001	5912116	TEST_PROBE	n/a	4	6	ANT	DRESS	ANT	DRESS	16	[0, 0, 0]	-999	PAL1	2	R1095N
1946.61	1.011	5912117	REC_START	n/a	4	-999	n/a	DRESS	n/a	n/a	16	[0, 0, 0]	-999	PAL1	2	R1095N
1947.621	3.997	5913128	REC_EVENT	1011	4	6	ANT	DRESS	ANT	DRESS	16	[0, 0, 0]	-999	PAL1	2	R1095N
1951.618	0.026	5917125	REC_END	n/a	4	-999	n/a	n/a	n/a	n/a	16	[0, 0, 0]	-999	PAL1	2	R1095N
1951.644	9.809	5917151	FEEDBACK_SHOW_ALL_PAIRS	n/a	4	-999	n/a	n/a	n/a	n/a	16	[0, 0, 0]	-999	PAL1	2	R1095N
1961.453	10.442	5926960	ENCODING_START	n/a	0	-999	n/a	n/a	n/a	n/a	17	[0, 0, 0]	-999	PAL1	2	R1095N
1971.895	0.851	5937402	STUDY_ORIENT	n/a	1	5	POLE	FAN	FAN	POLE	17	[0, 0, 0]	-999	PAL1	2	R1095N
1972.746	5.034	5938253	STUDY_PAIR	n/a	1	5	POLE	FAN	FAN	POLE	17	[0, 0, 0]	-999	PAL1	2	R1095N
1977.78	0.95	5943287	STUDY_ORIENT	n/a	2	4	WALL	RAT	WALL	RAT	17	[0, 0, 0]	-999	PAL1	2	R1095N
1978.73	5.034	5944237	STUDY_PAIR	n/a	2	4	WALL	RAT	WALL	RAT	17	[0, 0, 0]	-999	PAL1	2	R1095N
1983.764	0.817	5949271	STUDY_ORIENT	n/a	3	3	SNOW	GEESE	SNOW	GEESE	17	[0, 0, 0]	-999	PAL1	2	R1095N
1984.581	5.034	5950088	STUDY_PAIR	n/a	3	3	SNOW	GEESE	SNOW	GEESE	17	[0, 0, 0]	-999	PAL1	2	R1095N
1989.615	0.883	5955122	STUDY_ORIENT	n/a	4	6	GLASS	NOSE	NOSE	GLASS	17	[0, 0, 0]	-999	PAL1	2	R1095N
1990.498	5.018	5956005	STUDY_PAIR	n/a	4	6	GLASS	NOSE	NOSE	GLASS	17	[0, 0, 0]	-999	PAL1	2	R1095N
1995.516	0.833	5961023	STUDY_ORIENT	n/a	5	1	BLUSH	CUBE	CUBE	BLUSH	17	[0, 0, 0]	-999	PAL1	2	R1095N
1996.349	5.034	5961856	STUDY_PAIR	n/a	5	1	BLUSH	CUBE	CUBE	BLUSH	17	[0, 0, 0]	-999	PAL1	2	R1095N
2001.383	0.95	5966890	STUDY_ORIENT	n/a	6	2	HORN	HAWK	HORN	HAWK	17	[0, 0, 0]	-999	PAL1	2	R1095N
2002.333	4.001	5967840	STUDY_PAIR	n/a	6	2	HORN	HAWK	HORN	HAWK	17	[0, 0, 0]	-999	PAL1	2	R1095N
2006.334	1.0	5971841	START	n/a	-999	-999	n/a	n/a	n/a	n/a	17	[-999, -999, -999]	-999	PAL1	2	R1095N
2007.334	0.017	5972841	MATH_START	n/a	-999	-999	n/a	n/a	n/a	n/a	17	[0, 0, 0]	-999	PAL1	2	R1095N
2007.351	4.783	5972858	PROB	4755	-999	-999	n/a	n/a	n/a	n/a	17	[6, 3, 3]	12	PAL1	2	R1095N
2012.134	3.584	5977641	PROB	3565	-999	-999	n/a	n/a	n/a	n/a	17	[2, 8, 1]	11	PAL1	2	R1095N
2015.718	3.133	5981225	PROB	3109	-999	-999	n/a	n/a	n/a	n/a	17	[2, 7, 2]	11	PAL1	2	R1095N
2018.851	3.835	5984358	PROB	3808	-999	-999	n/a	n/a	n/a	n/a	17	[4, 1, 5]	10	PAL1	2	R1095N
2022.686	2.967	5988193	PROB	2948	-999	-999	n/a	n/a	n/a	n/a	17	[1, 4, 9]	14	PAL1	2	R1095N
2025.653	3.621	5991160	PROB	3621	-999	-999	n/a	n/a	n/a	n/a	17	[1, 7, 3]	11	PAL1	2	R1095N
2029.274	0.013	5994781	STOP	n/a	-999	-999	n/a	n/a	n/a	n/a	17	[-999, -999, -999]	-999	PAL1	2	R1095N
2029.287	0.0	5994794	MATH_END	n/a	-999	-999	n/a	n/a	n/a	n/a	17	[0, 0, 0]	-999	PAL1	2	R1095N
2029.287	0.016	5994794	TEST_START	n/a	-999	-999	n/a	n/a	n/a	n/a	17	[0, 0, 0]	-999	PAL1	2	R1095N
2029.303	0.884	5994810	TEST_ORIENT	n/a	5	1	BLUSH	CUBE	CUBE	BLUSH	17	[0, 0, 0]	-999	PAL1	2	R1095N
2030.187	0.001	5995694	TEST_PROBE	n/a	5	1	BLUSH	CUBE	CUBE	BLUSH	17	[0, 0, 0]	-999	PAL1	2	R1095N
2030.188	0.976	5995695	REC_START	n/a	5	-999	n/a	CUBE	n/a	n/a	17	[0, 0, 0]	-999	PAL1	2	R1095N
2031.164	4.048	5996671	REC_EVENT	976	5	1	BLUSH	CUBE	CUBE	BLUSH	17	[0, 0, 0]	-999	PAL1	2	R1095N
2035.212	0.009	6000719	REC_END	n/a	5	-999	n/a	n/a	n/a	n/a	17	[0, 0, 0]	-999	PAL1	2	R1095N
2035.221	0.799	6000728	TEST_ORIENT	n/a	6	2	HORN	HAWK	HORN	HAWK	17	[0, 0, 0]	-999	PAL1	2	R1095N
2036.02	0.001	6001527	TEST_PROBE	n/a	6	2	HORN	HAWK	HORN	HAWK	17	[0, 0, 0]	-999	PAL1	2	R1095N
2036.021	0.792	6001528	REC_START	n/a	6	-999	n/a	HAWK	n/a	n/a	17	[0, 0, 0]	-999	PAL1	2	R1095N
2036.813	4.232	6002320	REC_EVENT	792	6	2	HORN	HAWK	HORN	HAWK	17	[0, 0, 0]	-999	PAL1	2	R1095N
2041.045	0.009	6006552	REC_END	n/a	6	-999	n/a	n/a	n/a	n/a	17	[0, 0, 0]	-999	PAL1	2	R1095N
2041.054	0.867	6006561	TEST_ORIENT	n/a	3	3	SNOW	GEESE	SNOW	GEESE	17	[0, 0, 0]	-999	PAL1	2	R1095N
2041.921	0.0	6007428	TEST_PROBE	n/a	3	3	SNOW	GEESE	SNOW	GEESE	17	[0, 0, 0]	-999	PAL1	2	R1095N
2041.921	0.761	6007428	REC_START	n/a	3	-999	n/a	GEESE	n/a	n/a	17	[0, 0, 0]	-999	PAL1	2	R1095N
2042.682	4.256	6008189	REC_EVENT	761	3	3	SNOW	GEESE	SNOW	GEESE	17	[0, 0, 0]	-999	PAL1	2	R1095N
2046.938	0.017	6012445	REC_END	n/a	3	-999	n/a	n/a	n/a	n/a	17	[0, 0, 0]	-999	PAL1	2	R1095N
2046.955	0.801	6012462	TEST_ORIENT	n/a	2	4	WALL	RAT	WALL	RAT	17	[0, 0, 0]	-999	PAL1	2	R1095N
2047.756	0.001	6013263	TEST_PROBE	n/a	2	4	WALL	RAT	WALL	RAT	17	[0, 0, 0]	-999	PAL1	2	R1095N
2047.757	1.023	6013264	REC_START	n/a	2	-999	n/a	RAT	n/a	n/a	17	[0, 0, 0]	-999	PAL1	2	R1095N
2048.78	4.001	6014287	REC_EVENT	1023	2	4	WALL	RAT	WALL	RAT	17	[0, 0, 0]	-999	PAL1	2	R1095N
2052.781	0.009	6018288	REC_END	n/a	2	-999	n/a	n/a	n/a	n/a	17	[0, 0, 0]	-999	PAL1	2	R1095N
2052.79	0.883	6018297	TEST_ORIENT	n/a	1	5	POLE	FAN	FAN	POLE	17	[0, 0, 0]	-999	PAL1	2	R1095N
2053.673	0.001	6019180	TEST_PROBE	n/a	1	5	POLE	FAN	FAN	POLE	17	[0, 0, 0]	-999	PAL1	2	R1095N
2053.674	2.172	6019181	REC_START	n/a	1	-999	n/a	FAN	n/a	n/a	17	[0, 0, 0]	-999	PAL1	2	R1095N
2055.846	2.844	6021353	REC_EVENT	2172	1	5	POLE	FAN	FAN	POLE	17	[0, 0, 0]	-999	PAL1	2	R1095N
2058.69	0.017	6024197	REC_END	n/a	1	-999	n/a	n/a	n/a	n/a	17	[0, 0, 0]	-999	PAL1	2	R1095N
2058.707	0.984	6024214	TEST_ORIENT	n/a	4	6	GLASS	NOSE	NOSE	GLASS	17	[0, 0, 0]	-999	PAL1	2	R1095N
2059.691	0.0	6025198	TEST_PROBE	n/a	4	6	GLASS	NOSE	NOSE	GLASS	17	[0, 0, 0]	-999	PAL1	2	R1095N
2059.691	1.079	6025198	REC_START	n/a	4	-999	n/a	NOSE	n/a	n/a	17	[0, 0, 0]	-999	PAL1	2	R1095N
2060.77	3.946	6026277	REC_EVENT	1079	4	6	GLASS	NOSE	NOSE	GLASS	17	[0, 0, 0]	-999	PAL1	2	R1095N
2064.716	0.025	6030223	REC_END	n/a	4	-999	n/a	n/a	n/a	n/a	17	[0, 0, 0]	-999	PAL1	2	R1095N
2064.741	9.859	6030248	FEEDBACK_SHOW_ALL_PAIRS	n/a	4	-999	n/a	n/a	n/a	n/a	17	[0, 0, 0]	-999	PAL1	2	R1095N
2074.6	10.443	6040107	ENCODING_START	n/a	0	-999	n/a	n/a	n/a	n/a	18	[0, 0, 0]	-999	PAL1	2	R1095N
2085.043	0.85	6050550	STUDY_ORIENT	n/a	1	3	ROAD	ARM	ARM	ROAD	18	[0, 0, 0]	-999	PAL1	2	R1095N
2085.893	5.034	6051400	STUDY_PAIR	n/a	1	3	ROAD	ARM	ARM	ROAD	18	[0, 0, 0]	-999	PAL1	2	R1095N
2090.927	0.984	6056434	STUDY_ORIENT	n/a	2	4	DIME	TOOTH	TOOTH	DIME	18	[0, 0, 0]	-999	PAL1	2	R1095N
2091.911	5.033	6057418	STUDY_PAIR	n/a	2	4	DIME	TOOTH	TOOTH	DIME	18	[0, 0, 0]	-999	PAL1	2	R1095N
2096.944	0.967	6062451	STUDY_ORIENT	n/a	3	1	WORLD	PEARL	PEARL	WORLD	18	[0, 0, 0]	-999	PAL1	2	R1095N
2097.911	5.034	6063418	STUDY_PAIR	n/a	3	1	WORLD	PEARL	PEARL	WORLD	18	[0, 0, 0]	-999	PAL1	2	R1095N
2102.945	0.984	6068452	STUDY_ORIENT	n/a	4	2	CAGE	POOL	CAGE	POOL	18	[0, 0, 0]	-999	PAL1	2	R1095N
2103.929	5.034	6069436	STUDY_PAIR	n/a	4	2	CAGE	POOL	CAGE	POOL	18	[0, 0, 0]	-999	PAL1	2	R1095N
2108.963	0.851	6074470	STUDY_ORIENT	n/a	5	5	DESK	CHIEF	DESK	CHIEF	18	[0, 0, 0]	-999	PAL1	2	R1095N
2109.814	5.034	6075321	STUDY_PAIR	n/a	5	5	DESK	CHIEF	DESK	CHIEF	18	[0, 0, 0]	-999	PAL1	2	R1095N
2114.848	0.8	6080355	STUDY_ORIENT	n/a	6	6	FOOT	SMOKE	FOOT	SMOKE	18	[0, 0, 0]	-999	PAL1	2	R1095N
2115.648	4.018	6081155	STUDY_PAIR	n/a	6	6	FOOT	SMOKE	FOOT	SMOKE	18	[0, 0, 0]	-999	PAL1	2	R1095N
2119.666	0.999	6085173	START	n/a	-999	-999	n/a	n/a	n/a	n/a	18	[-999, -999, -999]	-999	PAL1	2	R1095N
2120.665	0.017	6086172	MATH_START	n/a	-999	-999	n/a	n/a	n/a	n/a	18	[0, 0, 0]	-999	PAL1	2	R1095N
2120.682	4.349	6086189	PROB	4323	-999	-999	n/a	n/a	n/a	n/a	18	[5, 4, 4]	13	PAL1	2	R1095N
2125.031	3.569	6090538	PROB	3535	-999	-999	n/a	n/a	n/a	n/a	18	[4, 9, 5]	18	PAL1	2	R1095N
2128.6	2.583	6094107	PROB	2549	-999	-999	n/a	n/a	n/a	n/a	18	[9, 1, 6]	16	PAL1	2	R1095N
2131.183	2.766	6096690	PROB	2742	-999	-999	n/a	n/a	n/a	n/a	18	[3, 2, 7]	12	PAL1	2	R1095N
2133.949	2.468	6099456	PROB	2433	-999	-999	n/a	n/a	n/a	n/a	18	[9, 4, 1]	14	PAL1	2	R1095N
2136.417	3.381	6101924	PROB	3381	-999	-999	n/a	n/a	n/a	n/a	18	[5, 2, 4]	11	PAL1	2	R1095N
2139.798	0.003	6105305	STOP	n/a	-999	-999	n/a	n/a	n/a	n/a	18	[-999, -999, -999]	-999	PAL1	2	R1095N
2139.801	0.0	6105308	MATH_END	n/a	-999	-999	n/a	n/a	n/a	n/a	18	[0, 0, 0]	-999	PAL1	2	R1095N
2139.801	0.017	6105308	TEST_START	n/a	-999	-999	n/a	n/a	n/a	n/a	18	[0, 0, 0]	-999	PAL1	2	R1095N
2139.818	0.917	6105325	TEST_ORIENT	n/a	3	1	WORLD	PEARL	PEARL	WORLD	18	[0, 0, 0]	-999	PAL1	2	R1095N
2140.735	0.0	6106242	TEST_PROBE	n/a	3	1	WORLD	PEARL	PEARL	WORLD	18	[0, 0, 0]	-999	PAL1	2	R1095N
2140.735	0.948	6106242	REC_START	n/a	3	-999	n/a	PEARL	n/a	n/a	18	[0, 0, 0]	-999	PAL1	2	R1095N
2141.683	4.069	6107190	REC_EVENT	948	3	1	WORLD	PEARL	PEARL	WORLD	18	[0, 0, 0]	-999	PAL1	2	R1095N
2145.752	0.016	6111259	REC_END	n/a	3	-999	n/a	n/a	n/a	n/a	18	[0, 0, 0]	-999	PAL1	2	R1095N
2145.768	1.001	6111275	TEST_ORIENT	n/a	4	2	CAGE	POOL	CAGE	POOL	18	[0, 0, 0]	-999	PAL1	2	R1095N
2146.769	0.0	6112276	TEST_PROBE	n/a	4	2	CAGE	POOL	CAGE	POOL	18	[0, 0, 0]	-999	PAL1	2	R1095N
2146.769	1.044	6112276	REC_START	n/a	4	-999	n/a	POOL	n/a	n/a	18	[0, 0, 0]	-999	PAL1	2	R1095N
2147.813	3.973	6113320	REC_EVENT	1044	4	2	CAGE	POOL	CAGE	POOL	18	[0, 0, 0]	-999	PAL1	2	R1095N
2151.786	0.016	6117293	REC_END	n/a	4	-999	n/a	n/a	n/a	n/a	18	[0, 0, 0]	-999	PAL1	2	R1095N
2151.802	1.001	6117309	TEST_ORIENT	n/a	1	3	ROAD	ARM	ARM	ROAD	18	[0, 0, 0]	-999	PAL1	2	R1095N
2152.803	0.0	6118310	TEST_PROBE	n/a	1	3	ROAD	ARM	ARM	ROAD	18	[0, 0, 0]	-999	PAL1	2	R1095N
2152.803	0.909	6118310	REC_START	n/a	1	-999	n/a	ARM	n/a	n/a	18	[0, 0, 0]	-999	PAL1	2	R1095N
2153.712	4.108	6119219	REC_EVENT	909	1	3	ROAD	ARM	ARM	ROAD	18	[0, 0, 0]	-999	PAL1	2	R1095N
2157.82	0.017	6123327	REC_END	n/a	1	-999	n/a	n/a	n/a	n/a	18	[0, 0, 0]	-999	PAL1	2	R1095N
2157.837	0.9	6123344	TEST_ORIENT	n/a	2	4	DIME	TOOTH	TOOTH	DIME	18	[0, 0, 0]	-999	PAL1	2	R1095N
2158.737	0.0	6124244	TEST_PROBE	n/a	2	4	DIME	TOOTH	TOOTH	DIME	18	[0, 0, 0]	-999	PAL1	2	R1095N
2158.737	1.072	6124244	REC_START	n/a	2	-999	n/a	TOOTH	n/a	n/a	18	[0, 0, 0]	-999	PAL1	2	R1095N
2159.809	3.945	6125316	REC_EVENT	1072	2	4	DIME	TOOTH	TOOTH	DIME	18	[0, 0, 0]	-999	PAL1	2	R1095N
2163.754	0.017	6129261	REC_END	n/a	2	-999	n/a	n/a	n/a	n/a	18	[0, 0, 0]	-999	PAL1	2	R1095N
2163.771	0.883	6129278	TEST_ORIENT	n/a	5	5	DESK	CHIEF	DESK	CHIEF	18	[0, 0, 0]	-999	PAL1	2	R1095N
2164.654	0.001	6130161	TEST_PROBE	n/a	5	5	DESK	CHIEF	DESK	CHIEF	18	[0, 0, 0]	-999	PAL1	2	R1095N
2164.655	1.074	6130162	REC_START	n/a	5	-999	n/a	CHIEF	n/a	n/a	18	[0, 0, 0]	-999	PAL1	2	R1095N
2165.729	3.95	6131236	REC_EVENT	1074	5	5	DESK	CHIEF	DESK	CHIEF	18	[0, 0, 0]	-999	PAL1	2	R1095N
2169.679	0.009	6135186	REC_END	n/a	5	-999	n/a	n/a	n/a	n/a	18	[0, 0, 0]	-999	PAL1	2	R1095N
2169.688	0.984	6135195	TEST_ORIENT	n/a	6	6	FOOT	SMOKE	FOOT	SMOKE	18	[0, 0, 0]	-999	PAL1	2	R1095N
2170.672	0.0	6136179	TEST_PROBE	n/a	6	6	FOOT	SMOKE	FOOT	SMOKE	18	[0, 0, 0]	-999	PAL1	2	R1095N
2170.672	1.013	6136179	REC_START	n/a	6	-999	n/a	SMOKE	n/a	n/a	18	[0, 0, 0]	-999	PAL1	2	R1095N
2171.685	4.004	6137192	REC_EVENT	1013	6	6	FOOT	SMOKE	FOOT	SMOKE	18	[0, 0, 0]	-999	PAL1	2	R1095N
2175.689	0.033	6141196	REC_END	n/a	6	-999	n/a	n/a	n/a	n/a	18	[0, 0, 0]	-999	PAL1	2	R1095N
2175.722	9.834	6141229	FEEDBACK_SHOW_ALL_PAIRS	n/a	6	-999	n/a	n/a	n/a	n/a	18	[0, 0, 0]	-999	PAL1	2	R1095N
2185.556	10.451	6151063	ENCODING_START	n/a	0	-999	n/a	n/a	n/a	n/a	19	[0, 0, 0]	-999	PAL1	2	R1095N
2196.007	0.967	6161514	STUDY_ORIENT	n/a	1	5	PIG	LAKE	PIG	LAKE	19	[0, 0, 0]	-999	PAL1	2	R1095N
2196.974	5.034	6162481	STUDY_PAIR	n/a	1	5	PIG	LAKE	PIG	LAKE	19	[0, 0, 0]	-999	PAL1	2	R1095N
2202.008	0.933	6167515	STUDY_ORIENT	n/a	2	4	SNAKE	WEB	WEB	SNAKE	19	[0, 0, 0]	-999	PAL1	2	R1095N
2202.941	5.018	6168448	STUDY_PAIR	n/a	2	4	SNAKE	WEB	WEB	SNAKE	19	[0, 0, 0]	-999	PAL1	2	R1095N
2207.959	0.867	6173466	STUDY_ORIENT	n/a	3	3	RAKE	SPEAR	RAKE	SIGN	19	[0, 0, 0]	-999	PAL1	2	R1095N
2208.826	5.018	6174333	STUDY_PAIR	n/a	3	3	RAKE	SPEAR	RAKE	SIGN	19	[0, 0, 0]	-999	PAL1	2	R1095N
2213.844	1.016	6179351	STUDY_ORIENT	n/a	4	6	RICE	OAK	RICE	OAK	19	[0, 0, 0]	-999	PAL1	2	R1095N
2214.86	5.034	6180367	STUDY_PAIR	n/a	4	6	RICE	OAK	RICE	OAK	19	[0, 0, 0]	-999	PAL1	2	R1095N
2219.894	0.983	6185401	STUDY_ORIENT	n/a	5	1	SEAL	LAMB	LAMB	SEAL	19	[0, 0, 0]	-999	PAL1	2	R1095N
2220.877	5.034	6186384	STUDY_PAIR	n/a	5	1	SEAL	LAMB	LAMB	SEAL	19	[0, 0, 0]	-999	PAL1	2	R1095N
2225.911	0.983	6191418	STUDY_ORIENT	n/a	6	2	FILM	BALL	FILM	BALL	19	[0, 0, 0]	-999	PAL1	2	R1095N
2226.894	4.001	6192401	STUDY_PAIR	n/a	6	2	FILM	BALL	FILM	BALL	19	[0, 0, 0]	-999	PAL1	2	R1095N
2230.895	1.0	6196402	START	n/a	-999	-999	n/a	n/a	n/a	n/a	19	[-999, -999, -999]	-999	PAL1	2	R1095N
2231.895	0.017	6197402	MATH_START	n/a	-999	-999	n/a	n/a	n/a	n/a	19	[0, 0, 0]	-999	PAL1	2	R1095N
2231.912	4.901	6197419	PROB	4874	-999	-999	n/a	n/a	n/a	n/a	19	[2, 8, 9]	19	PAL1	2	R1095N
2236.813	3.15	6202320	PROB	3123	-999	-999	n/a	n/a	n/a	n/a	19	[7, 2, 2]	11	PAL1	2	R1095N
2239.963	20.23	6205470	PROB	20230	-999	-999	n/a	n/a	n/a	n/a	19	[7, 9, 5]	21	PAL1	2	R1095N
2260.193	0.007	6225700	STOP	n/a	-999	-999	n/a	n/a	n/a	n/a	19	[-999, -999, -999]	-999	PAL1	2	R1095N
2260.2	0.0	6225707	TEST_START	n/a	-999	-999	n/a	n/a	n/a	n/a	19	[0, 0, 0]	-999	PAL1	2	R1095N
2260.2	0.016	6225707	MATH_END	n/a	-999	-999	n/a	n/a	n/a	n/a	19	[0, 0, 0]	-999	PAL1	2	R1095N
2260.216	0.933	6225723	TEST_ORIENT	n/a	5	1	SEAL	LAMB	LAMB	SEAL	19	[0, 0, 0]	-999	PAL1	2	R1095N
2261.149	0.0	6226656	TEST_PROBE	n/a	5	1	SEAL	LAMB	LAMB	SEAL	19	[0, 0, 0]	-999	PAL1	2	R1095N
2261.149	1.075	6226656	REC_START	n/a	5	-999	n/a	LAMB	n/a	n/a	19	[0, 0, 0]	-999	PAL1	2	R1095N
2262.224	3.942	6227731	REC_EVENT	1075	5	1	SEAL	LAMB	LAMB	SEAL	19	[0, 0, 0]	-999	PAL1	2	R1095N
2266.166	0.018	6231673	REC_END	n/a	5	-999	n/a	n/a	n/a	n/a	19	[0, 0, 0]	-999	PAL1	2	R1095N
2266.184	0.899	6231691	TEST_ORIENT	n/a	6	2	FILM	BALL	FILM	BALL	19	[0, 0, 0]	-999	PAL1	2	R1095N
2267.083	0.001	6232590	TEST_PROBE	n/a	6	2	FILM	BALL	FILM	BALL	19	[0, 0, 0]	-999	PAL1	2	R1095N
2267.084	0.968	6232591	REC_START	n/a	6	-999	n/a	BALL	n/a	n/a	19	[0, 0, 0]	-999	PAL1	2	R1095N
2268.052	4.056	6233559	REC_EVENT	968	6	2	FILM	BALL	FILM	BALL	19	[0, 0, 0]	-999	PAL1	2	R1095N
2272.108	0.009	6237615	REC_END	n/a	6	-999	n/a	n/a	n/a	n/a	19	[0, 0, 0]	-999	PAL1	2	R1095N
2272.117	0.95	6237624	TEST_ORIENT	n/a	3	3	RAKE	SPEAR	RAKE	SIGN	19	[0, 0, 0]	-999	PAL1	2	R1095N
2273.067	0.0	6238574	TEST_PROBE	n/a	3	3	RAKE	SPEAR	RAKE	SIGN	19	[0, 0, 0]	-999	PAL1	2	R1095N
2273.067	2.543	6238574	REC_START	n/a	3	-999	n/a	SPEAR	n/a	n/a	19	[0, 0, 0]	-999	PAL1	2	R1095N
2275.61	2.474	6241117	REC_EVENT	2543	3	3	RAKE	SPEAR	RAKE	SIGN	19	[0, 0, 0]	-999	PAL1	2	R1095N
2278.084	0.017	6243591	REC_END	n/a	3	-999	n/a	n/a	n/a	n/a	19	[0, 0, 0]	-999	PAL1	2	R1095N
2278.101	0.883	6243608	TEST_ORIENT	n/a	2	4	SNAKE	WEB	WEB	SNAKE	19	[0, 0, 0]	-999	PAL1	2	R1095N
2278.984	0.001	6244491	TEST_PROBE	n/a	2	4	SNAKE	WEB	WEB	SNAKE	19	[0, 0, 0]	-999	PAL1	2	R1095N
2278.985	1.935	6244492	REC_START	n/a	2	-999	n/a	WEB	n/a	n/a	19	[0, 0, 0]	-999	PAL1	2	R1095N
2280.92	3.072	6246427	REC_EVENT	1935	2	4	SNAKE	WEB	WEB	SNAKE	19	[0, 0, 0]	-999	PAL1	2	R1095N
2283.992	0.01	6249499	REC_END	n/a	2	-999	n/a	n/a	n/a	n/a	19	[0, 0, 0]	-999	PAL1	2	R1095N
2284.002	1.05	6249509	TEST_ORIENT	n/a	1	5	PIG	LAKE	PIG	LAKE	19	[0, 0, 0]	-999	PAL1	2	R1095N
2285.052	0.001	6250559	TEST_PROBE	n/a	1	5	PIG	LAKE	PIG	LAKE	19	[0, 0, 0]	-999	PAL1	2	R1095N
2285.053	0.962	6250560	REC_START	n/a	1	-999	n/a	LAKE	n/a	n/a	19	[0, 0, 0]	-999	PAL1	2	R1095N
2286.015	4.062	6251522	REC_EVENT	962	1	5	PIG	LAKE	PIG	LAKE	19	[0, 0, 0]	-999	PAL1	2	R1095N
2290.077	0.009	6255584	REC_END	n/a	1	-999	n/a	n/a	n/a	n/a	19	[0, 0, 0]	-999	PAL1	2	R1095N
2290.086	1.017	6255593	TEST_ORIENT	n/a	4	6	RICE	OAK	RICE	OAK	19	[0, 0, 0]	-999	PAL1	2	R1095N
2291.103	0.0	6256610	TEST_PROBE	n/a	4	6	RICE	OAK	RICE	OAK	19	[0, 0, 0]	-999	PAL1	2	R1095N
2291.103	0.982	6256610	REC_START	n/a	4	-999	n/a	OAK	n/a	n/a	19	[0, 0, 0]	-999	PAL1	2	R1095N
2292.085	4.035	6257592	REC_EVENT	982	4	6	RICE	OAK	RICE	OAK	19	[0, 0, 0]	-999	PAL1	2	R1095N
2296.12	0.017	6261627	REC_END	n/a	4	-999	n/a	n/a	n/a	n/a	19	[0, 0, 0]	-999	PAL1	2	R1095N
2296.137	9.789	6261644	FEEDBACK_SHOW_ALL_PAIRS	n/a	4	-999	n/a	n/a	n/a	n/a	19	[0, 0, 0]	-999	PAL1	2	R1095N
2305.926	10.448	6271433	ENCODING_START	n/a	0	-999	n/a	n/a	n/a	n/a	20	[0, 0, 0]	-999	PAL1	2	R1095N
2316.374	0.833	6281881	STUDY_ORIENT	n/a	1	1	PURSE	SHOE	PURSE	SHOE	20	[0, 0, 0]	-999	PAL1	2	R1095N
2317.207	5.034	6282714	STUDY_PAIR	n/a	1	1	PURSE	SHOE	PURSE	SHOE	20	[0, 0, 0]	-999	PAL1	2	R1095N
2322.241	1.0	6287748	STUDY_ORIENT	n/a	2	6	ICE	ROOM	ROOM	ICE	20	[0, 0, 0]	-999	PAL1	2	R1095N
2323.241	5.034	6288748	STUDY_PAIR	n/a	2	6	ICE	ROOM	ROOM	ICE	20	[0, 0, 0]	-999	PAL1	2	R1095N
2328.275	0.967	6293783	STUDY_ORIENT	n/a	3	3	BEAR	HILL	BEAR	HILL	20	[0, 0, 0]	-999	PAL1	2	R1095N
2329.242	5.034	6294750	STUDY_PAIR	n/a	3	3	BEAR	HILL	BEAR	HILL	20	[0, 0, 0]	-999	PAL1	2	R1095N
2334.276	0.816	6299784	STUDY_ORIENT	n/a	4	4	BEACH	BARN	BARN	BEACH	20	[0, 0, 0]	-999	PAL1	2	R1095N
2335.092	5.034	6300600	STUDY_PAIR	n/a	4	4	BEACH	BARN	BARN	BEACH	20	[0, 0, 0]	-999	PAL1	2	R1095N
2340.126	0.816	6305634	STUDY_ORIENT	n/a	5	5	HOLE	MOUTH	MOUTH	HOLE	20	[0, 0, 0]	-999	PAL1	2	R1095N
2340.942	5.018	6306450	STUDY_PAIR	n/a	5	5	HOLE	MOUTH	MOUTH	HOLE	20	[0, 0, 0]	-999	PAL1	2	R1095N
2345.96	1.016	6311468	STUDY_ORIENT	n/a	6	2	FLAME	CORN	FLAME	CORN	20	[0, 0, 0]	-999	PAL1	2	R1095N
2346.976	4.002	6312484	STUDY_PAIR	n/a	6	2	FLAME	CORN	FLAME	CORN	20	[0, 0, 0]	-999	PAL1	2	R1095N
2350.978	0.999	6316486	START	n/a	-999	-999	n/a	n/a	n/a	n/a	20	[-999, -999, -999]	-999	PAL1	2	R1095N
2351.977	0.017	6317485	MATH_START	n/a	-999	-999	n/a	n/a	n/a	n/a	20	[0, 0, 0]	-999	PAL1	2	R1095N
2351.994	4.668	6317502	PROB	4643	-999	-999	n/a	n/a	n/a	n/a	20	[8, 5, 1]	14	PAL1	2	R1095N
2356.662	14.63	6322170	PROB	14630	-999	-999	n/a	n/a	n/a	n/a	20	[5, 6, 2]	13	PAL1	2	R1095N
2371.292	0.005	6336800	STOP	n/a	-999	-999	n/a	n/a	n/a	n/a	20	[-999, -999, -999]	-999	PAL1	2	R1095N
2371.297	0.0	6336805	MATH_END	n/a	-999	-999	n/a	n/a	n/a	n/a	20	[0, 0, 0]	-999	PAL1	2	R1095N
2371.297	0.017	6336805	TEST_START	n/a	-999	-999	n/a	n/a	n/a	n/a	20	[0, 0, 0]	-999	PAL1	2	R1095N
2371.314	0.967	6336822	TEST_ORIENT	n/a	1	1	PURSE	SHOE	PURSE	SHOE	20	[0, 0, 0]	-999	PAL1	2	R1095N
2372.281	0.0	6337789	TEST_PROBE	n/a	1	1	PURSE	SHOE	PURSE	SHOE	20	[0, 0, 0]	-999	PAL1	2	R1095N
2372.281	0.904	6337789	REC_START	n/a	1	-999	n/a	SHOE	n/a	n/a	20	[0, 0, 0]	-999	PAL1	2	R1095N
2373.185	4.113	6338693	REC_EVENT	904	1	1	PURSE	SHOE	PURSE	SHOE	20	[0, 0, 0]	-999	PAL1	2	R1095N
2377.298	0.017	6342806	REC_END	n/a	1	-999	n/a	n/a	n/a	n/a	20	[0, 0, 0]	-999	PAL1	2	R1095N
2377.315	1.033	6342823	TEST_ORIENT	n/a	6	2	FLAME	CORN	FLAME	CORN	20	[0, 0, 0]	-999	PAL1	2	R1095N
2378.348	0.0	6343856	REC_START	n/a	6	-999	n/a	CORN	n/a	n/a	20	[0, 0, 0]	-999	PAL1	2	R1095N
2378.348	0.927	6343856	TEST_PROBE	n/a	6	2	FLAME	CORN	FLAME	CORN	20	[0, 0, 0]	-999	PAL1	2	R1095N
2379.275	4.09	6344783	REC_EVENT	927	6	2	FLAME	CORN	FLAME	CORN	20	[0, 0, 0]	-999	PAL1	2	R1095N
2383.365	0.017	6348873	REC_END	n/a	6	-999	n/a	n/a	n/a	n/a	20	[0, 0, 0]	-999	PAL1	2	R1095N
2383.382	1.017	6348890	TEST_ORIENT	n/a	3	3	BEAR	HILL	BEAR	HILL	20	[0, 0, 0]	-999	PAL1	2	R1095N
2384.399	0.001	6349907	TEST_PROBE	n/a	3	3	BEAR	HILL	BEAR	HILL	20	[0, 0, 0]	-999	PAL1	2	R1095N
2384.4	0.817	6349908	REC_START	n/a	3	-999	n/a	HILL	n/a	n/a	20	[0, 0, 0]	-999	PAL1	2	R1095N
