onset	duration	sample	trial_type	response_time	stim_file	serialpos	probepos	probe_word	resp_word	study_1	study_2	list	test	answer	experiment	session	subject
0.0	60.762	893408	SESS_START	n/a	n/a	-999	-999	n/a	n/a	n/a	n/a	-999	[0, 0, 0]	-999	PAL1	0	R1136N
60.762	1.017	954167	START	n/a	n/a	-999	-999	n/a	n/a	n/a	n/a	-1	[-999, -999, -999]	-999	PAL1	0	R1136N
61.779	5.101	955184	PROB	5.073	n/a	-999	-999	n/a	n/a	n/a	n/a	-1	[7, 5, 3]	15	PAL1	0	R1136N
66.88	4.884	960285	PROB	4.86	n/a	-999	-999	n/a	n/a	n/a	n/a	-1	[4, 6, 5]	15	PAL1	0	R1136N
71.764	5.284	965169	PROB	5.256	n/a	-999	-999	n/a	n/a	n/a	n/a	-1	[1, 6, 4]	11	PAL1	0	R1136N
77.048	3.084	970452	PROB	3.052	n/a	-999	-999	n/a	n/a	n/a	n/a	-1	[4, 4, 1]	9	PAL1	0	R1136N
80.132	4.247	973536	PROB	4.247	n/a	-999	-999	n/a	n/a	n/a	n/a	-1	[8, 5, 3]	16	PAL1	0	R1136N
84.379	35.66	977783	STOP	n/a	n/a	-999	-999	n/a	n/a	n/a	n/a	-1	[-999, -999, -999]	-999	PAL1	0	R1136N
120.039	63.381	1013441	FEEDBACK_SHOW_ALL_PAIRS	n/a	n/a	-999	-999	n/a	n/a	n/a	n/a	-999	[0, 0, 0]	-999	PAL1	0	R1136N
183.42	10.448	1076819	ENCODING_START	n/a	n/a	0	-999	n/a	n/a	n/a	n/a	1	[0, 0, 0]	-999	PAL1	0	R1136N
193.868	0.275	1087267	STUDY_ORIENT	n/a	n/a	1	5	JUICE	n/a	WEB	JUICE	1	[0, 0, 0]	-999	PAL1	0	R1136N
194.818	4.0	1088216	STUDY_PAIR	n/a	wordpools/wordpool_EN.txt	1	5	JUICE	n/a	WEB	JUICE	1	[0, 0, 0]	-999	PAL1	0	R1136N
199.852	0.275	1093250	STUDY_ORIENT	n/a	n/a	2	4	WALL	n/a	WALL	ROOT	1	[0, 0, 0]	-999	PAL1	0	R1136N
200.802	4.0	1094200	STUDY_PAIR	n/a	wordpools/wordpool_EN.txt	2	4	WALL	n/a	WALL	ROOT	1	[0, 0, 0]	-999	PAL1	0	R1136N
205.82	0.275	1099218	STUDY_ORIENT	n/a	n/a	3	3	ROSE	n/a	BREAD	ROSE	1	[0, 0, 0]	-999	PAL1	0	R1136N
206.687	4.0	1100085	STUDY_PAIR	n/a	wordpools/wordpool_EN.txt	3	3	ROSE	n/a	BREAD	ROSE	1	[0, 0, 0]	-999	PAL1	0	R1136N
211.721	0.275	1105119	STUDY_ORIENT	n/a	n/a	4	6	PANTS	n/a	DITCH	PANTS	1	[0, 0, 0]	-999	PAL1	0	R1136N
212.688	4.0	1106086	STUDY_PAIR	n/a	wordpools/wordpool_EN.txt	4	6	PANTS	n/a	DITCH	PANTS	1	[0, 0, 0]	-999	PAL1	0	R1136N
217.722	0.275	1111119	STUDY_ORIENT	n/a	n/a	5	1	MAT	n/a	MAT	STICK	1	[0, 0, 0]	-999	PAL1	0	R1136N
218.722	4.0	1112119	STUDY_PAIR	n/a	wordpools/wordpool_EN.txt	5	1	MAT	n/a	MAT	STICK	1	[0, 0, 0]	-999	PAL1	0	R1136N
223.74	0.275	1117137	STUDY_ORIENT	n/a	n/a	6	2	HAWK	n/a	HAWK	BRIDGE	1	[0, 0, 0]	-999	PAL1	0	R1136N
224.69	4.0	1118087	STUDY_PAIR	n/a	wordpools/wordpool_EN.txt	6	2	HAWK	n/a	HAWK	BRIDGE	1	[0, 0, 0]	-999	PAL1	0	R1136N
228.708	0.999	1122105	START	n/a	n/a	-999	-999	n/a	n/a	n/a	n/a	1	[-999, -999, -999]	-999	PAL1	0	R1136N
229.707	0.017	1123104	MATH_START	n/a	n/a	-999	-999	n/a	n/a	n/a	n/a	1	[0, 0, 0]	-999	PAL1	0	R1136N
229.724	8.834	1123121	PROB	8.807	n/a	-999	-999	n/a	n/a	n/a	n/a	1	[7, 5, 9]	21	PAL1	0	R1136N
238.558	5.285	1131954	PROB	5.254	n/a	-999	-999	n/a	n/a	n/a	n/a	1	[5, 7, 7]	19	PAL1	0	R1136N
243.843	3.6	1137239	PROB	3.568	n/a	-999	-999	n/a	n/a	n/a	n/a	1	[8, 9, 4]	21	PAL1	0	R1136N
247.443	5.721	1140839	PROB	5.721	n/a	-999	-999	n/a	n/a	n/a	n/a	1	[8, 7, 9]	24	PAL1	0	R1136N
253.164	0.014	1146560	STOP	n/a	n/a	-999	-999	n/a	n/a	n/a	n/a	1	[-999, -999, -999]	-999	PAL1	0	R1136N
253.178	0.0	1146574	TEST_START	n/a	n/a	-999	-999	n/a	n/a	n/a	n/a	1	[0, 0, 0]	-999	PAL1	0	R1136N
253.178	0.017	1146574	MATH_END	n/a	n/a	-999	-999	n/a	n/a	n/a	n/a	1	[0, 0, 0]	-999	PAL1	0	R1136N
253.195	0.275	1146591	TEST_ORIENT	n/a	n/a	5	1	MAT	n/a	MAT	STICK	1	[0, 0, 0]	-999	PAL1	0	R1136N
254.095	4.0	1147491	TEST_PROBE	n/a	wordpools/wordpool_EN.txt	5	1	MAT	n/a	MAT	STICK	1	[0, 0, 0]	-999	PAL1	0	R1136N
254.095	4.899	1147491	REC_START	n/a	n/a	5	-999	n/a	n/a	n/a	n/a	1	[0, 0, 0]	-999	PAL1	0	R1136N
258.994	0.118	1152389	REC_EVENT	4.899	n/a	5	1	MAT	<>	MAT	STICK	1	[0, 0, 0]	-999	PAL1	0	R1136N
259.112	0.017	1152507	REC_END	n/a	n/a	5	-999	n/a	n/a	n/a	n/a	1	[0, 0, 0]	-999	PAL1	0	R1136N
259.129	0.275	1152524	TEST_ORIENT	n/a	n/a	6	2	HAWK	n/a	HAWK	BRIDGE	1	[0, 0, 0]	-999	PAL1	0	R1136N
260.096	4.0	1153491	TEST_PROBE	n/a	wordpools/wordpool_EN.txt	6	2	HAWK	n/a	HAWK	BRIDGE	1	[0, 0, 0]	-999	PAL1	0	R1136N
260.096	4.922	1153491	REC_START	n/a	n/a	6	-999	n/a	n/a	n/a	n/a	1	[0, 0, 0]	-999	PAL1	0	R1136N
265.018	0.095	1158413	REC_EVENT	4.922	n/a	6	2	HAWK	<>	HAWK	BRIDGE	1	[0, 0, 0]	-999	PAL1	0	R1136N
265.113	0.017	1158508	REC_END	n/a	n/a	6	-999	n/a	n/a	n/a	n/a	1	[0, 0, 0]	-999	PAL1	0	R1136N
265.13	0.275	1158525	TEST_ORIENT	n/a	n/a	3	3	ROSE	n/a	BREAD	ROSE	1	[0, 0, 0]	-999	PAL1	0	R1136N
265.947	4.0	1159342	TEST_PROBE	n/a	wordpools/wordpool_EN.txt	3	3	ROSE	n/a	BREAD	ROSE	1	[0, 0, 0]	-999	PAL1	0	R1136N
265.947	4.876	1159342	REC_START	n/a	n/a	3	-999	n/a	n/a	n/a	n/a	1	[0, 0, 0]	-999	PAL1	0	R1136N
270.823	0.141	1164218	REC_EVENT	4.876	n/a	3	3	ROSE	<>	BREAD	ROSE	1	[0, 0, 0]	-999	PAL1	0	R1136N
270.964	0.017	1164359	REC_END	n/a	n/a	3	-999	n/a	n/a	n/a	n/a	1	[0, 0, 0]	-999	PAL1	0	R1136N
270.981	0.275	1164376	TEST_ORIENT	n/a	n/a	2	4	WALL	n/a	WALL	ROOT	1	[0, 0, 0]	-999	PAL1	0	R1136N
271.848	0.0	1165243	REC_START	n/a	n/a	2	-999	n/a	n/a	n/a	n/a	1	[0, 0, 0]	-999	PAL1	0	R1136N
271.848	4.0	1165243	TEST_PROBE	n/a	wordpools/wordpool_EN.txt	2	4	WALL	n/a	WALL	ROOT	1	[0, 0, 0]	-999	PAL1	0	R1136N
276.77	0.095	1170164	REC_EVENT	4.922	n/a	2	4	WALL	<>	WALL	ROOT	1	[0, 0, 0]	-999	PAL1	0	R1136N
276.865	0.017	1170259	REC_END	n/a	n/a	2	-999	n/a	n/a	n/a	n/a	1	[0, 0, 0]	-999	PAL1	0	R1136N
276.882	0.275	1170276	TEST_ORIENT	n/a	n/a	1	5	JUICE	n/a	WEB	JUICE	1	[0, 0, 0]	-999	PAL1	0	R1136N
277.832	4.0	1171226	TEST_PROBE	n/a	wordpools/wordpool_EN.txt	1	5	JUICE	n/a	WEB	JUICE	1	[0, 0, 0]	-999	PAL1	0	R1136N
277.833	4.899	1171227	REC_START	n/a	n/a	1	-999	n/a	n/a	n/a	n/a	1	[0, 0, 0]	-999	PAL1	0	R1136N
282.732	0.109	1176126	REC_EVENT	4.899	n/a	1	5	JUICE	<>	WEB	JUICE	1	[0, 0, 0]	-999	PAL1	0	R1136N
282.841	0.009	1176235	REC_END	n/a	n/a	1	-999	n/a	n/a	n/a	n/a	1	[0, 0, 0]	-999	PAL1	0	R1136N
282.85	0.275	1176244	TEST_ORIENT	n/a	n/a	4	6	PANTS	n/a	DITCH	PANTS	1	[0, 0, 0]	-999	PAL1	0	R1136N
283.867	4.0	1177261	TEST_PROBE	n/a	wordpools/wordpool_EN.txt	4	6	PANTS	n/a	DITCH	PANTS	1	[0, 0, 0]	-999	PAL1	0	R1136N
283.867	4.899	1177261	REC_START	n/a	n/a	4	-999	n/a	n/a	n/a	n/a	1	[0, 0, 0]	-999	PAL1	0	R1136N
288.766	0.118	1182160	REC_EVENT	4.899	n/a	4	6	PANTS	<>	DITCH	PANTS	1	[0, 0, 0]	-999	PAL1	0	R1136N
288.884	0.033	1182278	REC_END	n/a	n/a	4	-999	n/a	n/a	n/a	n/a	1	[0, 0, 0]	-999	PAL1	0	R1136N
288.917	13.983	1182311	FEEDBACK_SHOW_ALL_PAIRS	n/a	n/a	4	-999	n/a	n/a	n/a	n/a	1	[0, 0, 0]	-999	PAL1	0	R1136N
302.9	10.437	1196293	ENCODING_START	n/a	n/a	0	-999	n/a	n/a	n/a	n/a	2	[0, 0, 0]	-999	PAL1	0	R1136N
313.337	0.275	1206730	STUDY_ORIENT	n/a	n/a	1	1	BENCH	n/a	BENCH	LAMP	2	[0, 0, 0]	-999	PAL1	0	R1136N
314.337	4.0	1207730	STUDY_PAIR	n/a	wordpools/wordpool_EN.txt	1	1	BENCH	n/a	BENCH	LAMP	2	[0, 0, 0]	-999	PAL1	0	R1136N
319.355	0.275	1212747	STUDY_ORIENT	n/a	n/a	2	2	NET	n/a	NET	TOAST	2	[0, 0, 0]	-999	PAL1	0	R1136N
320.173	4.0	1213565	STUDY_PAIR	n/a	wordpools/wordpool_EN.txt	2	2	NET	n/a	NET	TOAST	2	[0, 0, 0]	-999	PAL1	0	R1136N
325.207	0.275	1218599	STUDY_ORIENT	n/a	n/a	3	3	FILM	n/a	CHAIR	FILM	2	[0, 0, 0]	-999	PAL1	0	R1136N
326.107	4.0	1219499	STUDY_PAIR	n/a	wordpools/wordpool_EN.txt	3	3	FILM	n/a	CHAIR	FILM	2	[0, 0, 0]	-999	PAL1	0	R1136N
331.141	0.275	1224533	STUDY_ORIENT	n/a	n/a	4	4	BAT	n/a	BAT	WING	2	[0, 0, 0]	-999	PAL1	0	R1136N
332.025	4.0	1225417	STUDY_PAIR	n/a	wordpools/wordpool_EN.txt	4	4	BAT	n/a	BAT	WING	2	[0, 0, 0]	-999	PAL1	0	R1136N
337.059	0.275	1230450	STUDY_ORIENT	n/a	n/a	5	5	SWORD	n/a	SWORD	LOCK	2	[0, 0, 0]	-999	PAL1	0	R1136N
338.009	4.0	1231400	STUDY_PAIR	n/a	wordpools/wordpool_EN.txt	5	5	SWORD	n/a	SWORD	LOCK	2	[0, 0, 0]	-999	PAL1	0	R1136N
343.043	0.275	1236434	STUDY_ORIENT	n/a	n/a	6	6	ELF	n/a	DOLL	ELF	2	[0, 0, 0]	-999	PAL1	0	R1136N
343.96	4.0	1237351	STUDY_PAIR	n/a	wordpools/wordpool_EN.txt	6	6	ELF	n/a	DOLL	ELF	2	[0, 0, 0]	-999	PAL1	0	R1136N
347.978	0.999	1241369	START	n/a	n/a	-999	-999	n/a	n/a	n/a	n/a	2	[-999, -999, -999]	-999	PAL1	0	R1136N
348.977	0.017	1242368	MATH_START	n/a	n/a	-999	-999	n/a	n/a	n/a	n/a	2	[0, 0, 0]	-999	PAL1	0	R1136N
348.994	4.951	1242385	PROB	4.93	n/a	-999	-999	n/a	n/a	n/a	n/a	2	[7, 1, 4]	12	PAL1	0	R1136N
353.945	6.318	1247336	PROB	6.283	n/a	-999	-999	n/a	n/a	n/a	n/a	2	[7, 5, 9]	21	PAL1	0	R1136N
360.263	6.484	1253653	PROB	6.461	n/a	-999	-999	n/a	n/a	n/a	n/a	2	[7, 9, 9]	25	PAL1	0	R1136N
366.747	3.305	1260137	PROB	3.305	n/a	-999	-999	n/a	n/a	n/a	n/a	2	[5, 6, 1]	12	PAL1	0	R1136N
370.052	0.013	1263442	STOP	n/a	n/a	-999	-999	n/a	n/a	n/a	n/a	2	[-999, -999, -999]	-999	PAL1	0	R1136N
370.065	0.0	1263455	MATH_END	n/a	n/a	-999	-999	n/a	n/a	n/a	n/a	2	[0, 0, 0]	-999	PAL1	0	R1136N
370.065	0.016	1263455	TEST_START	n/a	n/a	-999	-999	n/a	n/a	n/a	n/a	2	[0, 0, 0]	-999	PAL1	0	R1136N
370.081	0.275	1263471	TEST_ORIENT	n/a	n/a	1	1	BENCH	n/a	BENCH	LAMP	2	[0, 0, 0]	-999	PAL1	0	R1136N
371.115	4.0	1264505	TEST_PROBE	n/a	wordpools/wordpool_EN.txt	1	1	BENCH	n/a	BENCH	LAMP	2	[0, 0, 0]	-999	PAL1	0	R1136N
371.115	4.965	1264505	REC_START	n/a	n/a	1	-999	n/a	n/a	n/a	n/a	2	[0, 0, 0]	-999	PAL1	0	R1136N
376.08	0.052	1269469	REC_EVENT	4.965	n/a	1	1	BENCH	<>	BENCH	LAMP	2	[0, 0, 0]	-999	PAL1	0	R1136N
376.132	0.017	1269521	REC_END	n/a	n/a	1	-999	n/a	n/a	n/a	n/a	2	[0, 0, 0]	-999	PAL1	0	R1136N
376.149	0.275	1269538	TEST_ORIENT	n/a	n/a	2	2	NET	n/a	NET	TOAST	2	[0, 0, 0]	-999	PAL1	0	R1136N
376.982	0.0	1270371	REC_START	n/a	n/a	2	-999	n/a	n/a	n/a	n/a	2	[0, 0, 0]	-999	PAL1	0	R1136N
376.982	4.0	1270371	TEST_PROBE	n/a	wordpools/wordpool_EN.txt	2	2	NET	n/a	NET	TOAST	2	[0, 0, 0]	-999	PAL1	0	R1136N
381.953	0.047	1275342	REC_EVENT	4.971	n/a	2	2	NET	<>	NET	TOAST	2	[0, 0, 0]	-999	PAL1	0	R1136N
382.0	0.016	1275389	REC_END	n/a	n/a	2	-999	n/a	n/a	n/a	n/a	2	[0, 0, 0]	-999	PAL1	0	R1136N
382.016	0.275	1275405	TEST_ORIENT	n/a	n/a	3	3	FILM	n/a	CHAIR	FILM	2	[0, 0, 0]	-999	PAL1	0	R1136N
382.817	4.0	1276206	TEST_PROBE	n/a	wordpools/wordpool_EN.txt	3	3	FILM	n/a	CHAIR	FILM	2	[0, 0, 0]	-999	PAL1	0	R1136N
382.817	4.945	1276206	REC_START	n/a	n/a	3	-999	n/a	n/a	n/a	n/a	2	[0, 0, 0]	-999	PAL1	0	R1136N
387.762	0.072	1281151	REC_EVENT	4.945	n/a	3	3	FILM	<>	CHAIR	FILM	2	[0, 0, 0]	-999	PAL1	0	R1136N
387.834	0.017	1281223	REC_END	n/a	n/a	3	-999	n/a	n/a	n/a	n/a	2	[0, 0, 0]	-999	PAL1	0	R1136N
387.851	0.275	1281240	TEST_ORIENT	n/a	n/a	4	4	BAT	n/a	BAT	WING	2	[0, 0, 0]	-999	PAL1	0	R1136N
388.818	4.0	1282207	TEST_PROBE	n/a	wordpools/wordpool_EN.txt	4	4	BAT	n/a	BAT	WING	2	[0, 0, 0]	-999	PAL1	0	R1136N
388.818	4.977	1282207	REC_START	n/a	n/a	4	-999	n/a	n/a	n/a	n/a	2	[0, 0, 0]	-999	PAL1	0	R1136N
393.795	0.048	1287184	REC_EVENT	4.977	n/a	4	4	BAT	<>	BAT	WING	2	[0, 0, 0]	-999	PAL1	0	R1136N
393.843	0.009	1287232	REC_END	n/a	n/a	4	-999	n/a	n/a	n/a	n/a	2	[0, 0, 0]	-999	PAL1	0	R1136N
393.852	0.275	1287241	TEST_ORIENT	n/a	n/a	5	5	SWORD	n/a	SWORD	LOCK	2	[0, 0, 0]	-999	PAL1	0	R1136N
394.769	4.0	1288158	TEST_PROBE	n/a	wordpools/wordpool_EN.txt	5	5	SWORD	n/a	SWORD	LOCK	2	[0, 0, 0]	-999	PAL1	0	R1136N
394.769	4.958	1288158	REC_START	n/a	n/a	5	-999	n/a	n/a	n/a	n/a	2	[0, 0, 0]	-999	PAL1	0	R1136N
399.727	0.059	1293115	REC_EVENT	4.958	n/a	5	5	SWORD	<>	SWORD	LOCK	2	[0, 0, 0]	-999	PAL1	0	R1136N
399.786	0.017	1293174	REC_END	n/a	n/a	5	-999	n/a	n/a	n/a	n/a	2	[0, 0, 0]	-999	PAL1	0	R1136N
399.803	0.275	1293191	TEST_ORIENT	n/a	n/a	6	6	ELF	n/a	DOLL	ELF	2	[0, 0, 0]	-999	PAL1	0	R1136N
400.786	4.0	1294174	TEST_PROBE	n/a	wordpools/wordpool_EN.txt	6	6	ELF	n/a	DOLL	ELF	2	[0, 0, 0]	-999	PAL1	0	R1136N
400.787	4.969	1294175	REC_START	n/a	n/a	6	-999	n/a	n/a	n/a	n/a	2	[0, 0, 0]	-999	PAL1	0	R1136N
405.756	0.031	1299144	REC_EVENT	4.969	n/a	6	6	ELF	<>	DOLL	ELF	2	[0, 0, 0]	-999	PAL1	0	R1136N
405.787	0.033	1299175	REC_END	n/a	n/a	6	-999	n/a	n/a	n/a	n/a	2	[0, 0, 0]	-999	PAL1	0	R1136N
405.82	20.968	1299208	FEEDBACK_SHOW_ALL_PAIRS	n/a	n/a	6	-999	n/a	n/a	n/a	n/a	2	[0, 0, 0]	-999	PAL1	0	R1136N
426.788	10.438	1320175	ENCODING_START	n/a	n/a	0	-999	n/a	n/a	n/a	n/a	3	[0, 0, 0]	-999	PAL1	0	R1136N
437.226	0.275	1330612	STUDY_ORIENT	n/a	n/a	1	3	STRAW	n/a	STRAW	LEG	3	[0, 0, 0]	-999	PAL1	0	R1136N
438.226	4.0	1331612	STUDY_PAIR	n/a	wordpools/wordpool_EN.txt	1	3	STRAW	n/a	STRAW	LEG	3	[0, 0, 0]	-999	PAL1	0	R1136N
443.26	0.275	1336646	STUDY_ORIENT	n/a	n/a	2	4	STOVE	n/a	STOVE	CONE	3	[0, 0, 0]	-999	PAL1	0	R1136N
444.11	4.0	1337496	STUDY_PAIR	n/a	wordpools/wordpool_EN.txt	2	4	STOVE	n/a	STOVE	CONE	3	[0, 0, 0]	-999	PAL1	0	R1136N
449.128	0.275	1342514	STUDY_ORIENT	n/a	n/a	3	5	PLANE	n/a	TIE	PLANE	3	[0, 0, 0]	-999	PAL1	0	R1136N
450.094	4.0	1343480	STUDY_PAIR	n/a	wordpools/wordpool_EN.txt	3	5	PLANE	n/a	TIE	PLANE	3	[0, 0, 0]	-999	PAL1	0	R1136N
455.112	0.275	1348498	STUDY_ORIENT	n/a	n/a	4	6	SNOW	PLANE	DESK	SNOW	3	[0, 0, 0]	-999	PAL1	0	R1136N
456.079	4.0	1349464	STUDY_PAIR	n/a	wordpools/wordpool_EN.txt	4	6	SNOW	PLANE	DESK	SNOW	3	[0, 0, 0]	-999	PAL1	0	R1136N
461.113	0.275	1354498	STUDY_ORIENT	n/a	n/a	5	1	SHEEP	n/a	SHEEP	CORN	3	[0, 0, 0]	-999	PAL1	0	R1136N
462.063	4.0	1355448	STUDY_PAIR	n/a	wordpools/wordpool_EN.txt	5	1	SHEEP	n/a	SHEEP	CORN	3	[0, 0, 0]	-999	PAL1	0	R1136N
467.081	0.275	1360466	STUDY_ORIENT	n/a	n/a	6	2	GLOVE	n/a	TREE	GLOVE	3	[0, 0, 0]	-999	PAL1	0	R1136N
467.914	4.0	1361299	STUDY_PAIR	n/a	wordpools/wordpool_EN.txt	6	2	GLOVE	n/a	TREE	GLOVE	3	[0, 0, 0]	-999	PAL1	0	R1136N
471.915	1.0	1365300	START	n/a	n/a	-999	-999	n/a	n/a	n/a	n/a	3	[-999, -999, -999]	-999	PAL1	0	R1136N
472.915	0.017	1366300	MATH_START	n/a	n/a	-999	-999	n/a	n/a	n/a	n/a	3	[0, 0, 0]	-999	PAL1	0	R1136N
472.932	5.067	1366317	PROB	5.04	n/a	-999	-999	n/a	n/a	n/a	n/a	3	[6, 4, 7]	17	PAL1	0	R1136N
477.999	3.701	1371383	PROB	3.677	n/a	-999	-999	n/a	n/a	n/a	n/a	3	[9, 4, 6]	19	PAL1	0	R1136N
481.7	3.417	1375084	PROB	3.392	n/a	-999	-999	n/a	n/a	n/a	n/a	3	[9, 9, 9]	27	PAL1	0	R1136N
485.117	3.4	1378501	PROB	3.366	n/a	-999	-999	n/a	n/a	n/a	n/a	3	[9, 8, 7]	24	PAL1	0	R1136N
488.517	3.671	1381901	PROB	3.671	n/a	-999	-999	n/a	n/a	n/a	n/a	3	[4, 8, 3]	15	PAL1	0	R1136N
492.188	0.014	1385572	STOP	n/a	n/a	-999	-999	n/a	n/a	n/a	n/a	3	[-999, -999, -999]	-999	PAL1	0	R1136N
492.202	0.0	1385586	MATH_END	n/a	n/a	-999	-999	n/a	n/a	n/a	n/a	3	[0, 0, 0]	-999	PAL1	0	R1136N
492.202	0.017	1385586	TEST_START	n/a	n/a	-999	-999	n/a	n/a	n/a	n/a	3	[0, 0, 0]	-999	PAL1	0	R1136N
492.219	0.275	1385603	TEST_ORIENT	n/a	n/a	5	1	SHEEP	n/a	SHEEP	CORN	3	[0, 0, 0]	-999	PAL1	0	R1136N
493.052	4.0	1386436	TEST_PROBE	n/a	wordpools/wordpool_EN.txt	5	1	SHEEP	n/a	SHEEP	CORN	3	[0, 0, 0]	-999	PAL1	0	R1136N
493.052	5.007	1386436	REC_START	n/a	n/a	5	-999	n/a	n/a	n/a	n/a	3	[0, 0, 0]	-999	PAL1	0	R1136N
498.059	0.01	1391442	REC_EVENT	5.007	n/a	5	1	SHEEP	<>	SHEEP	CORN	3	[0, 0, 0]	-999	PAL1	0	R1136N
498.069	0.017	1391452	REC_END	n/a	n/a	5	-999	n/a	n/a	n/a	n/a	3	[0, 0, 0]	-999	PAL1	0	R1136N
498.086	0.275	1391469	TEST_ORIENT	n/a	n/a	6	2	GLOVE	n/a	TREE	GLOVE	3	[0, 0, 0]	-999	PAL1	0	R1136N
499.07	4.0	1392453	TEST_PROBE	n/a	wordpools/wordpool_EN.txt	6	2	GLOVE	n/a	TREE	GLOVE	3	[0, 0, 0]	-999	PAL1	0	R1136N
499.071	4.969	1392454	REC_START	n/a	n/a	6	-999	n/a	n/a	n/a	n/a	3	[0, 0, 0]	-999	PAL1	0	R1136N
504.04	0.055	1397423	REC_EVENT	4.969	n/a	6	2	GLOVE	<>	TREE	GLOVE	3	[0, 0, 0]	-999	PAL1	0	R1136N
504.095	0.009	1397478	REC_END	n/a	n/a	6	-999	n/a	n/a	n/a	n/a	3	[0, 0, 0]	-999	PAL1	0	R1136N
504.104	0.275	1397487	TEST_ORIENT	n/a	n/a	1	3	STRAW	n/a	STRAW	LEG	3	[0, 0, 0]	-999	PAL1	0	R1136N
504.954	4.0	1398337	TEST_PROBE	n/a	wordpools/wordpool_EN.txt	1	3	STRAW	n/a	STRAW	LEG	3	[0, 0, 0]	-999	PAL1	0	R1136N
504.954	4.971	1398337	REC_START	n/a	n/a	1	-999	n/a	n/a	n/a	n/a	3	[0, 0, 0]	-999	PAL1	0	R1136N
509.925	0.046	1403308	REC_EVENT	4.971	n/a	1	3	STRAW	<>	STRAW	LEG	3	[0, 0, 0]	-999	PAL1	0	R1136N
509.971	0.017	1403354	REC_END	n/a	n/a	1	-999	n/a	n/a	n/a	n/a	3	[0, 0, 0]	-999	PAL1	0	R1136N
509.988	0.275	1403371	TEST_ORIENT	n/a	n/a	2	4	STOVE	n/a	STOVE	CONE	3	[0, 0, 0]	-999	PAL1	0	R1136N
510.838	4.0	1404221	TEST_PROBE	n/a	wordpools/wordpool_EN.txt	2	4	STOVE	n/a	STOVE	CONE	3	[0, 0, 0]	-999	PAL1	0	R1136N
510.839	4.922	1404222	REC_START	n/a	n/a	2	-999	n/a	n/a	n/a	n/a	3	[0, 0, 0]	-999	PAL1	0	R1136N
515.761	0.087	1409143	REC_EVENT	4.922	n/a	2	4	STOVE	<>	STOVE	CONE	3	[0, 0, 0]	-999	PAL1	0	R1136N
515.848	0.008	1409230	REC_END	n/a	n/a	2	-999	n/a	n/a	n/a	n/a	3	[0, 0, 0]	-999	PAL1	0	R1136N
515.856	0.275	1409238	TEST_ORIENT	n/a	n/a	3	5	PLANE	n/a	TIE	PLANE	3	[0, 0, 0]	-999	PAL1	0	R1136N
516.723	4.0	1410105	TEST_PROBE	n/a	wordpools/wordpool_EN.txt	3	5	PLANE	n/a	TIE	PLANE	3	[0, 0, 0]	-999	PAL1	0	R1136N
516.723	4.965	1410105	REC_START	n/a	n/a	3	-999	n/a	n/a	n/a	n/a	3	[0, 0, 0]	-999	PAL1	0	R1136N
521.688	0.052	1415070	REC_EVENT	4.965	n/a	3	5	PLANE	<>	TIE	PLANE	3	[0, 0, 0]	-999	PAL1	0	R1136N
521.74	0.017	1415122	REC_END	n/a	n/a	3	-999	n/a	n/a	n/a	n/a	3	[0, 0, 0]	-999	PAL1	0	R1136N
521.757	0.275	1415139	TEST_ORIENT	n/a	n/a	4	6	SNOW	PLANE	DESK	SNOW	3	[0, 0, 0]	-999	PAL1	0	R1136N
522.589	4.0	1415971	TEST_PROBE	n/a	wordpools/wordpool_EN.txt	4	6	SNOW	PLANE	DESK	SNOW	3	[0, 0, 0]	-999	PAL1	0	R1136N
522.59	1.603	1415972	REC_START	n/a	n/a	4	-999	n/a	PLANE	n/a	n/a	3	[0, 0, 0]	-999	PAL1	0	R1136N
524.193	3.405	1417575	REC_EVENT	1.603	n/a	4	6	SNOW	PLANE	DESK	SNOW	3	[0, 0, 0]	-999	PAL1	0	R1136N
527.598	0.026	1420980	REC_END	n/a	n/a	4	-999	n/a	n/a	n/a	n/a	3	[0, 0, 0]	-999	PAL1	0	R1136N
527.624	19.349	1421006	FEEDBACK_SHOW_ALL_PAIRS	n/a	n/a	4	-999	n/a	n/a	n/a	n/a	3	[0, 0, 0]	-999	PAL1	0	R1136N
546.973	10.439	1440354	ENCODING_START	n/a	n/a	0	-999	n/a	n/a	n/a	n/a	4	[0, 0, 0]	-999	PAL1	0	R1136N
557.412	0.275	1450792	STUDY_ORIENT	n/a	n/a	1	3	SMOKE	BOWL	SMOKE	BOWL	4	[0, 0, 0]	-999	PAL1	0	R1136N
558.362	4.0	1451742	STUDY_PAIR	n/a	wordpools/wordpool_EN.txt	1	3	SMOKE	BOWL	SMOKE	BOWL	4	[0, 0, 0]	-999	PAL1	0	R1136N
563.38	0.275	1456760	STUDY_ORIENT	n/a	n/a	2	2	LAMB	n/a	LAKE	LAMB	4	[0, 0, 0]	-999	PAL1	0	R1136N
564.33	4.0	1457710	STUDY_PAIR	n/a	wordpools/wordpool_EN.txt	2	2	LAMB	n/a	LAKE	LAMB	4	[0, 0, 0]	-999	PAL1	0	R1136N
569.364	0.275	1462744	STUDY_ORIENT	n/a	n/a	3	5	MUG	n/a	MUG	JET	4	[0, 0, 0]	-999	PAL1	0	R1136N
570.297	4.0	1463677	STUDY_PAIR	n/a	wordpools/wordpool_EN.txt	3	5	MUG	n/a	MUG	JET	4	[0, 0, 0]	-999	PAL1	0	R1136N
575.315	0.275	1468695	STUDY_ORIENT	n/a	n/a	4	4	SKI	n/a	TRAY	SKI	4	[0, 0, 0]	-999	PAL1	0	R1136N
576.266	4.0	1469645	STUDY_PAIR	n/a	wordpools/wordpool_EN.txt	4	4	SKI	n/a	TRAY	SKI	4	[0, 0, 0]	-999	PAL1	0	R1136N
581.299	0.275	1474678	STUDY_ORIENT	n/a	n/a	5	1	HEN	n/a	BRUSH	HEN	4	[0, 0, 0]	-999	PAL1	0	R1136N
582.134	4.0	1475513	STUDY_PAIR	n/a	wordpools/wordpool_EN.txt	5	1	HEN	n/a	BRUSH	HEN	4	[0, 0, 0]	-999	PAL1	0	R1136N
587.168	0.275	1480547	STUDY_ORIENT	n/a	n/a	6	6	SPEAR	n/a	SPEAR	PIG	4	[0, 0, 0]	-999	PAL1	0	R1136N
588.101	4.0	1481480	STUDY_PAIR	n/a	wordpools/wordpool_EN.txt	6	6	SPEAR	n/a	SPEAR	PIG	4	[0, 0, 0]	-999	PAL1	0	R1136N
592.102	1.0	1485481	START	n/a	n/a	-999	-999	n/a	n/a	n/a	n/a	4	[-999, -999, -999]	-999	PAL1	0	R1136N
593.102	0.017	1486481	MATH_START	n/a	n/a	-999	-999	n/a	n/a	n/a	n/a	4	[0, 0, 0]	-999	PAL1	0	R1136N
593.119	5.067	1486498	PROB	5.045	n/a	-999	-999	n/a	n/a	n/a	n/a	4	[1, 2, 1]	4	PAL1	0	R1136N
598.186	3.051	1491564	PROB	3.026	n/a	-999	-999	n/a	n/a	n/a	n/a	4	[5, 3, 2]	10	PAL1	0	R1136N
601.237	4.333	1494615	PROB	4.302	n/a	-999	-999	n/a	n/a	n/a	n/a	4	[4, 5, 3]	12	PAL1	0	R1136N
605.57	3.934	1498948	PROB	3.905	n/a	-999	-999	n/a	n/a	n/a	n/a	4	[9, 4, 1]	14	PAL1	0	R1136N
609.504	3.556	1502882	PROB	3.556	n/a	-999	-999	n/a	n/a	n/a	n/a	4	[8, 7, 2]	17	PAL1	0	R1136N
613.06	0.012	1506438	STOP	n/a	n/a	-999	-999	n/a	n/a	n/a	n/a	4	[-999, -999, -999]	-999	PAL1	0	R1136N
613.072	0.0	1506450	MATH_END	n/a	n/a	-999	-999	n/a	n/a	n/a	n/a	4	[0, 0, 0]	-999	PAL1	0	R1136N
613.072	0.017	1506450	TEST_START	n/a	n/a	-999	-999	n/a	n/a	n/a	n/a	4	[0, 0, 0]	-999	PAL1	0	R1136N
613.089	0.275	1506467	TEST_ORIENT	n/a	n/a	5	1	HEN	n/a	BRUSH	HEN	4	[0, 0, 0]	-999	PAL1	0	R1136N
613.989	4.0	1507367	TEST_PROBE	n/a	wordpools/wordpool_EN.txt	5	1	HEN	n/a	BRUSH	HEN	4	[0, 0, 0]	-999	PAL1	0	R1136N
613.99	4.969	1507368	REC_START	n/a	n/a	5	-999	n/a	n/a	n/a	n/a	4	[0, 0, 0]	-999	PAL1	0	R1136N
618.959	0.056	1512336	REC_EVENT	4.969	n/a	5	1	HEN	<>	BRUSH	HEN	4	[0, 0, 0]	-999	PAL1	0	R1136N
619.015	0.008	1512392	REC_END	n/a	n/a	5	-999	n/a	n/a	n/a	n/a	4	[0, 0, 0]	-999	PAL1	0	R1136N
619.023	0.275	1512400	TEST_ORIENT	n/a	n/a	2	2	LAMB	n/a	LAKE	LAMB	4	[0, 0, 0]	-999	PAL1	0	R1136N
619.823	4.0	1513200	TEST_PROBE	n/a	wordpools/wordpool_EN.txt	2	2	LAMB	n/a	LAKE	LAMB	4	[0, 0, 0]	-999	PAL1	0	R1136N
619.824	4.953	1513201	REC_START	n/a	n/a	2	-999	n/a	n/a	n/a	n/a	4	[0, 0, 0]	-999	PAL1	0	R1136N
624.777	0.055	1518154	REC_EVENT	4.953	n/a	2	2	LAMB	<>	LAKE	LAMB	4	[0, 0, 0]	-999	PAL1	0	R1136N
624.832	0.009	1518209	REC_END	n/a	n/a	2	-999	n/a	n/a	n/a	n/a	4	[0, 0, 0]	-999	PAL1	0	R1136N
624.841	0.275	1518218	TEST_ORIENT	n/a	n/a	1	3	SMOKE	BOWL	SMOKE	BOWL	4	[0, 0, 0]	-999	PAL1	0	R1136N
625.791	4.0	1519168	TEST_PROBE	n/a	wordpools/wordpool_EN.txt	1	3	SMOKE	BOWL	SMOKE	BOWL	4	[0, 0, 0]	-999	PAL1	0	R1136N
625.791	3.756	1519168	REC_START	n/a	n/a	1	-999	n/a	BOWL	n/a	n/a	4	[0, 0, 0]	-999	PAL1	0	R1136N
629.547	1.261	1522924	REC_EVENT	3.756	n/a	1	3	SMOKE	BOWL	SMOKE	BOWL	4	[0, 0, 0]	-999	PAL1	0	R1136N
630.808	0.017	1524185	REC_END	n/a	n/a	1	-999	n/a	n/a	n/a	n/a	4	[0, 0, 0]	-999	PAL1	0	R1136N
630.825	0.275	1524202	TEST_ORIENT	n/a	n/a	4	4	SKI	n/a	TRAY	SKI	4	[0, 0, 0]	-999	PAL1	0	R1136N
631.675	4.0	1525052	TEST_PROBE	n/a	wordpools/wordpool_EN.txt	4	4	SKI	n/a	TRAY	SKI	4	[0, 0, 0]	-999	PAL1	0	R1136N
631.676	4.969	1525053	REC_START	n/a	n/a	4	-999	n/a	n/a	n/a	n/a	4	[0, 0, 0]	-999	PAL1	0	R1136N
636.645	0.039	1530021	REC_EVENT	4.969	n/a	4	4	SKI	<>	TRAY	SKI	4	[0, 0, 0]	-999	PAL1	0	R1136N
636.684	0.009	1530060	REC_END	n/a	n/a	4	-999	n/a	n/a	n/a	n/a	4	[0, 0, 0]	-999	PAL1	0	R1136N
636.693	0.275	1530069	TEST_ORIENT	n/a	n/a	3	5	MUG	n/a	MUG	JET	4	[0, 0, 0]	-999	PAL1	0	R1136N
637.575	4.0	1530951	TEST_PROBE	n/a	wordpools/wordpool_EN.txt	3	5	MUG	n/a	MUG	JET	4	[0, 0, 0]	-999	PAL1	0	R1136N
637.576	4.992	1530952	REC_START	n/a	n/a	3	-999	n/a	n/a	n/a	n/a	4	[0, 0, 0]	-999	PAL1	0	R1136N
642.568	0.016	1535944	REC_EVENT	4.992	n/a	3	5	MUG	<>	MUG	JET	4	[0, 0, 0]	-999	PAL1	0	R1136N
642.584	0.009	1535960	REC_END	n/a	n/a	3	-999	n/a	n/a	n/a	n/a	4	[0, 0, 0]	-999	PAL1	0	R1136N
642.593	0.275	1535969	TEST_ORIENT	n/a	n/a	6	6	SPEAR	n/a	SPEAR	PIG	4	[0, 0, 0]	-999	PAL1	0	R1136N
643.56	4.0	1536936	TEST_PROBE	n/a	wordpools/wordpool_EN.txt	6	6	SPEAR	n/a	SPEAR	PIG	4	[0, 0, 0]	-999	PAL1	0	R1136N
643.56	4.945	1536936	REC_START	n/a	n/a	6	-999	n/a	n/a	n/a	n/a	4	[0, 0, 0]	-999	PAL1	0	R1136N
648.505	0.072	1541881	REC_EVENT	4.945	n/a	6	6	SPEAR	<>	SPEAR	PIG	4	[0, 0, 0]	-999	PAL1	0	R1136N
648.577	0.017	1541953	REC_END	n/a	n/a	6	-999	n/a	n/a	n/a	n/a	4	[0, 0, 0]	-999	PAL1	0	R1136N
648.594	16.45	1541970	FEEDBACK_SHOW_ALL_PAIRS	n/a	n/a	6	-999	n/a	n/a	n/a	n/a	4	[0, 0, 0]	-999	PAL1	0	R1136N
665.044	10.438	1558419	ENCODING_START	n/a	n/a	0	-999	n/a	n/a	n/a	n/a	5	[0, 0, 0]	-999	PAL1	0	R1136N
675.482	0.275	1568857	STUDY_ORIENT	n/a	n/a	1	1	ARM	n/a	ARM	STAR	5	[0, 0, 0]	-999	PAL1	0	R1136N
676.282	4.0	1569656	STUDY_PAIR	n/a	wordpools/wordpool_EN.txt	1	1	ARM	n/a	ARM	STAR	5	[0, 0, 0]	-999	PAL1	0	R1136N
681.316	0.275	1574690	STUDY_ORIENT	n/a	n/a	2	6	MAZE	n/a	MAZE	SCHOOL	5	[0, 0, 0]	-999	PAL1	0	R1136N
682.333	4.0	1575707	STUDY_PAIR	n/a	wordpools/wordpool_EN.txt	2	6	MAZE	n/a	MAZE	SCHOOL	5	[0, 0, 0]	-999	PAL1	0	R1136N
687.367	0.275	1580741	STUDY_ORIENT	n/a	n/a	3	5	OAR	n/a	OAR	PEAR	5	[0, 0, 0]	-999	PAL1	0	R1136N
688.284	4.0	1581658	STUDY_PAIR	n/a	wordpools/wordpool_EN.txt	3	5	OAR	n/a	OAR	PEAR	5	[0, 0, 0]	-999	PAL1	0	R1136N
693.318	0.275	1586692	STUDY_ORIENT	n/a	n/a	4	2	JAR	n/a	JAR	GRAPE	5	[0, 0, 0]	-999	PAL1	0	R1136N
694.236	4.0	1587610	STUDY_PAIR	n/a	wordpools/wordpool_EN.txt	4	2	JAR	n/a	JAR	GRAPE	5	[0, 0, 0]	-999	PAL1	0	R1136N
699.27	0.275	1592643	STUDY_ORIENT	n/a	n/a	5	3	BOMB	n/a	SQUARE	BOMB	5	[0, 0, 0]	-999	PAL1	0	R1136N
700.154	4.0	1593527	STUDY_PAIR	n/a	wordpools/wordpool_EN.txt	5	3	BOMB	n/a	SQUARE	BOMB	5	[0, 0, 0]	-999	PAL1	0	R1136N
705.188	0.275	1598561	STUDY_ORIENT	n/a	n/a	6	4	PEN	n/a	RICE	PEN	5	[0, 0, 0]	-999	PAL1	0	R1136N
706.205	4.0	1599578	STUDY_PAIR	n/a	wordpools/wordpool_EN.txt	6	4	PEN	n/a	RICE	PEN	5	[0, 0, 0]	-999	PAL1	0	R1136N
710.222	1.0	1603595	START	n/a	n/a	-999	-999	n/a	n/a	n/a	n/a	5	[-999, -999, -999]	-999	PAL1	0	R1136N
711.222	0.017	1604595	MATH_START	n/a	n/a	-999	-999	n/a	n/a	n/a	n/a	5	[0, 0, 0]	-999	PAL1	0	R1136N
711.239	5.501	1604612	PROB	5.47	n/a	-999	-999	n/a	n/a	n/a	n/a	5	[1, 2, 2]	5	PAL1	0	R1136N
716.74	2.733	1610112	PROB	2.711	n/a	-999	-999	n/a	n/a	n/a	n/a	5	[2, 5, 5]	12	PAL1	0	R1136N
719.473	2.817	1612845	PROB	2.787	n/a	-999	-999	n/a	n/a	n/a	n/a	5	[4, 1, 6]	11	PAL1	0	R1136N
722.29	3.451	1615662	PROB	3.426	n/a	-999	-999	n/a	n/a	n/a	n/a	5	[4, 2, 2]	8	PAL1	0	R1136N
725.741	3.518	1619113	PROB	3.495	n/a	-999	-999	n/a	n/a	n/a	n/a	5	[5, 6, 9]	20	PAL1	0	R1136N
729.259	3.32	1622631	PROB	3.32	n/a	-999	-999	n/a	n/a	n/a	n/a	5	[1, 1, 5]	7	PAL1	0	R1136N
732.579	0.013	1625951	STOP	n/a	n/a	-999	-999	n/a	n/a	n/a	n/a	5	[-999, -999, -999]	-999	PAL1	0	R1136N
732.592	0.0	1625964	MATH_END	n/a	n/a	-999	-999	n/a	n/a	n/a	n/a	5	[0, 0, 0]	-999	PAL1	0	R1136N
732.592	0.016	1625964	TEST_START	n/a	n/a	-999	-999	n/a	n/a	n/a	n/a	5	[0, 0, 0]	-999	PAL1	0	R1136N
732.608	0.275	1625980	TEST_ORIENT	n/a	n/a	1	1	ARM	n/a	ARM	STAR	5	[0, 0, 0]	-999	PAL1	0	R1136N
733.425	4.0	1626797	TEST_PROBE	n/a	wordpools/wordpool_EN.txt	1	1	ARM	n/a	ARM	STAR	5	[0, 0, 0]	-999	PAL1	0	R1136N
733.425	4.945	1626797	REC_START	n/a	n/a	1	-999	n/a	n/a	n/a	n/a	5	[0, 0, 0]	-999	PAL1	0	R1136N
738.37	0.072	1631741	REC_EVENT	4.945	n/a	1	1	ARM	<>	ARM	STAR	5	[0, 0, 0]	-999	PAL1	0	R1136N
738.442	0.017	1631813	REC_END	n/a	n/a	1	-999	n/a	n/a	n/a	n/a	5	[0, 0, 0]	-999	PAL1	0	R1136N
738.459	0.275	1631830	TEST_ORIENT	n/a	n/a	4	2	JAR	n/a	JAR	GRAPE	5	[0, 0, 0]	-999	PAL1	0	R1136N
739.393	4.0	1632764	TEST_PROBE	n/a	wordpools/wordpool_EN.txt	4	2	JAR	n/a	JAR	GRAPE	5	[0, 0, 0]	-999	PAL1	0	R1136N
739.393	4.969	1632764	REC_START	n/a	n/a	4	-999	n/a	n/a	n/a	n/a	5	[0, 0, 0]	-999	PAL1	0	R1136N
744.362	0.048	1637733	REC_EVENT	4.969	n/a	4	2	JAR	<>	JAR	GRAPE	5	[0, 0, 0]	-999	PAL1	0	R1136N
744.41	0.017	1637781	REC_END	n/a	n/a	4	-999	n/a	n/a	n/a	n/a	5	[0, 0, 0]	-999	PAL1	0	R1136N
744.427	0.275	1637798	TEST_ORIENT	n/a	n/a	5	3	BOMB	n/a	SQUARE	BOMB	5	[0, 0, 0]	-999	PAL1	0	R1136N
745.344	4.0	1638715	TEST_PROBE	n/a	wordpools/wordpool_EN.txt	5	3	BOMB	n/a	SQUARE	BOMB	5	[0, 0, 0]	-999	PAL1	0	R1136N
745.344	4.945	1638715	REC_START	n/a	n/a	5	-999	n/a	n/a	n/a	n/a	5	[0, 0, 0]	-999	PAL1	0	R1136N
750.289	0.072	1643660	REC_EVENT	4.945	n/a	5	3	BOMB	<>	SQUARE	BOMB	5	[0, 0, 0]	-999	PAL1	0	R1136N
750.361	0.017	1643732	REC_END	n/a	n/a	5	-999	n/a	n/a	n/a	n/a	5	[0, 0, 0]	-999	PAL1	0	R1136N
750.378	0.275	1643749	TEST_ORIENT	n/a	n/a	6	4	PEN	n/a	RICE	PEN	5	[0, 0, 0]	-999	PAL1	0	R1136N
751.395	4.0	1644766	TEST_PROBE	n/a	wordpools/wordpool_EN.txt	6	4	PEN	n/a	RICE	PEN	5	[0, 0, 0]	-999	PAL1	0	R1136N
751.395	4.852	1644766	REC_START	n/a	n/a	6	-999	n/a	n/a	n/a	n/a	5	[0, 0, 0]	-999	PAL1	0	R1136N
756.247	0.165	1649617	REC_EVENT	4.852	n/a	6	4	PEN	<>	RICE	PEN	5	[0, 0, 0]	-999	PAL1	0	R1136N
756.412	0.017	1649782	REC_END	n/a	n/a	6	-999	n/a	n/a	n/a	n/a	5	[0, 0, 0]	-999	PAL1	0	R1136N
756.429	0.275	1649799	TEST_ORIENT	n/a	n/a	3	5	OAR	n/a	OAR	PEAR	5	[0, 0, 0]	-999	PAL1	0	R1136N
757.263	4.0	1650633	TEST_PROBE	n/a	wordpools/wordpool_EN.txt	3	5	OAR	n/a	OAR	PEAR	5	[0, 0, 0]	-999	PAL1	0	R1136N
757.264	4.899	1650634	REC_START	n/a	n/a	3	-999	n/a	n/a	n/a	n/a	5	[0, 0, 0]	-999	PAL1	0	R1136N
762.163	0.101	1655533	REC_EVENT	4.899	n/a	3	5	OAR	<>	OAR	PEAR	5	[0, 0, 0]	-999	PAL1	0	R1136N
762.264	0.016	1655634	REC_END	n/a	n/a	3	-999	n/a	n/a	n/a	n/a	5	[0, 0, 0]	-999	PAL1	0	R1136N
762.28	0.275	1655650	TEST_ORIENT	n/a	n/a	2	6	MAZE	n/a	MAZE	SCHOOL	5	[0, 0, 0]	-999	PAL1	0	R1136N
763.131	4.0	1656501	TEST_PROBE	n/a	wordpools/wordpool_EN.txt	2	6	MAZE	n/a	MAZE	SCHOOL	5	[0, 0, 0]	-999	PAL1	0	R1136N
763.132	4.965	1656502	REC_START	n/a	n/a	2	-999	n/a	n/a	n/a	n/a	5	[0, 0, 0]	-999	PAL1	0	R1136N
768.097	0.051	1661467	REC_EVENT	4.965	n/a	2	6	MAZE	<>	MAZE	SCHOOL	5	[0, 0, 0]	-999	PAL1	0	R1136N
768.148	0.034	1661518	REC_END	n/a	n/a	2	-999	n/a	n/a	n/a	n/a	5	[0, 0, 0]	-999	PAL1	0	R1136N
768.182	12.062	1661552	FEEDBACK_SHOW_ALL_PAIRS	n/a	n/a	2	-999	n/a	n/a	n/a	n/a	5	[0, 0, 0]	-999	PAL1	0	R1136N
780.244	10.442	1673613	ENCODING_START	n/a	n/a	0	-999	n/a	n/a	n/a	n/a	6	[0, 0, 0]	-999	PAL1	0	R1136N
790.686	0.275	1684055	STUDY_ORIENT	n/a	n/a	1	5	CLOUD	n/a	TRASH	CLOUD	6	[0, 0, 0]	-999	PAL1	0	R1136N
791.602	4.0	1684971	STUDY_PAIR	n/a	wordpools/wordpool_EN.txt	1	5	CLOUD	n/a	TRASH	CLOUD	6	[0, 0, 0]	-999	PAL1	0	R1136N
796.635	0.275	1690003	STUDY_ORIENT	n/a	n/a	2	6	BAND	n/a	BAND	SLIME	6	[0, 0, 0]	-999	PAL1	0	R1136N
797.502	4.0	1690870	STUDY_PAIR	n/a	wordpools/wordpool_EN.txt	2	6	BAND	n/a	BAND	SLIME	6	[0, 0, 0]	-999	PAL1	0	R1136N
802.52	0.275	1695888	STUDY_ORIENT	n/a	n/a	3	3	BADGE	n/a	BADGE	VAN	6	[0, 0, 0]	-999	PAL1	0	R1136N
803.387	4.0	1696755	STUDY_PAIR	n/a	wordpools/wordpool_EN.txt	3	3	BADGE	n/a	BADGE	VAN	6	[0, 0, 0]	-999	PAL1	0	R1136N
808.421	0.275	1701789	STUDY_ORIENT	n/a	n/a	4	4	CAT	n/a	CAT	LAND	6	[0, 0, 0]	-999	PAL1	0	R1136N
809.288	4.0	1702656	STUDY_PAIR	n/a	wordpools/wordpool_EN.txt	4	4	CAT	n/a	CAT	LAND	6	[0, 0, 0]	-999	PAL1	0	R1136N
814.322	0.275	1707690	STUDY_ORIENT	n/a	n/a	5	1	CUBE	n/a	HILL	CUBE	6	[0, 0, 0]	-999	PAL1	0	R1136N
815.157	4.0	1708525	STUDY_PAIR	n/a	wordpools/wordpool_EN.txt	5	1	CUBE	n/a	HILL	CUBE	6	[0, 0, 0]	-999	PAL1	0	R1136N
820.191	0.275	1713558	STUDY_ORIENT	n/a	n/a	6	2	GATE	n/a	GATE	NOSE	6	[0, 0, 0]	-999	PAL1	0	R1136N
821.141	4.0	1714508	STUDY_PAIR	n/a	wordpools/wordpool_EN.txt	6	2	GATE	n/a	GATE	NOSE	6	[0, 0, 0]	-999	PAL1	0	R1136N
825.159	0.999	1718526	START	n/a	n/a	-999	-999	n/a	n/a	n/a	n/a	6	[-999, -999, -999]	-999	PAL1	0	R1136N
826.158	0.017	1719525	MATH_START	n/a	n/a	-999	-999	n/a	n/a	n/a	n/a	6	[0, 0, 0]	-999	PAL1	0	R1136N
826.175	4.3	1719542	PROB	4.276	n/a	-999	-999	n/a	n/a	n/a	n/a	6	[9, 3, 4]	16	PAL1	0	R1136N
830.475	4.017	1723842	PROB	3.984	n/a	-999	-999	n/a	n/a	n/a	n/a	6	[8, 9, 5]	22	PAL1	0	R1136N
834.492	3.151	1727859	PROB	3.127	n/a	-999	-999	n/a	n/a	n/a	n/a	6	[2, 9, 1]	12	PAL1	0	R1136N
837.643	3.767	1731009	PROB	3.736	n/a	-999	-999	n/a	n/a	n/a	n/a	6	[5, 9, 3]	17	PAL1	0	R1136N
841.41	4.658	1734776	PROB	4.658	n/a	-999	-999	n/a	n/a	n/a	n/a	6	[6, 9, 3]	18	PAL1	0	R1136N
846.068	0.01	1739434	STOP	n/a	n/a	-999	-999	n/a	n/a	n/a	n/a	6	[-999, -999, -999]	-999	PAL1	0	R1136N
846.078	0.0	1739444	MATH_END	n/a	n/a	-999	-999	n/a	n/a	n/a	n/a	6	[0, 0, 0]	-999	PAL1	0	R1136N
846.078	0.017	1739444	TEST_START	n/a	n/a	-999	-999	n/a	n/a	n/a	n/a	6	[0, 0, 0]	-999	PAL1	0	R1136N
846.095	0.275	1739461	TEST_ORIENT	n/a	n/a	5	1	CUBE	n/a	HILL	CUBE	6	[0, 0, 0]	-999	PAL1	0	R1136N
846.929	4.0	1740295	TEST_PROBE	n/a	wordpools/wordpool_EN.txt	5	1	CUBE	n/a	HILL	CUBE	6	[0, 0, 0]	-999	PAL1	0	R1136N
846.929	4.922	1740295	REC_START	n/a	n/a	5	-999	n/a	n/a	n/a	n/a	6	[0, 0, 0]	-999	PAL1	0	R1136N
851.851	0.095	1745217	REC_EVENT	4.922	n/a	5	1	CUBE	<>	HILL	CUBE	6	[0, 0, 0]	-999	PAL1	0	R1136N
851.946	0.017	1745312	REC_END	n/a	n/a	5	-999	n/a	n/a	n/a	n/a	6	[0, 0, 0]	-999	PAL1	0	R1136N
851.963	0.275	1745329	TEST_ORIENT	n/a	n/a	6	2	GATE	n/a	GATE	NOSE	6	[0, 0, 0]	-999	PAL1	0	R1136N
852.996	4.0	1746362	TEST_PROBE	n/a	wordpools/wordpool_EN.txt	6	2	GATE	n/a	GATE	NOSE	6	[0, 0, 0]	-999	PAL1	0	R1136N
852.997	4.969	1746363	REC_START	n/a	n/a	6	-999	n/a	n/a	n/a	n/a	6	[0, 0, 0]	-999	PAL1	0	R1136N
857.966	0.039	1751331	REC_EVENT	4.969	n/a	6	2	GATE	<>	GATE	NOSE	6	[0, 0, 0]	-999	PAL1	0	R1136N
858.005	0.009	1751370	REC_END	n/a	n/a	6	-999	n/a	n/a	n/a	n/a	6	[0, 0, 0]	-999	PAL1	0	R1136N
858.014	0.275	1751379	TEST_ORIENT	n/a	n/a	3	3	BADGE	n/a	BADGE	VAN	6	[0, 0, 0]	-999	PAL1	0	R1136N
859.031	4.0	1752396	TEST_PROBE	n/a	wordpools/wordpool_EN.txt	3	3	BADGE	n/a	BADGE	VAN	6	[0, 0, 0]	-999	PAL1	0	R1136N
859.031	4.992	1752396	REC_START	n/a	n/a	3	-999	n/a	n/a	n/a	n/a	6	[0, 0, 0]	-999	PAL1	0	R1136N
864.023	0.025	1757388	REC_EVENT	4.992	n/a	3	3	BADGE	<>	BADGE	VAN	6	[0, 0, 0]	-999	PAL1	0	R1136N
864.048	0.017	1757413	REC_END	n/a	n/a	3	-999	n/a	n/a	n/a	n/a	6	[0, 0, 0]	-999	PAL1	0	R1136N
864.065	0.275	1757430	TEST_ORIENT	n/a	n/a	4	4	CAT	n/a	CAT	LAND	6	[0, 0, 0]	-999	PAL1	0	R1136N
864.998	4.0	1758363	TEST_PROBE	n/a	wordpools/wordpool_EN.txt	4	4	CAT	n/a	CAT	LAND	6	[0, 0, 0]	-999	PAL1	0	R1136N
864.998	4.945	1758363	REC_START	n/a	n/a	4	-999	n/a	n/a	n/a	n/a	6	[0, 0, 0]	-999	PAL1	0	R1136N
869.943	0.073	1763308	REC_EVENT	4.945	n/a	4	4	CAT	<>	CAT	LAND	6	[0, 0, 0]	-999	PAL1	0	R1136N
870.016	0.016	1763381	REC_END	n/a	n/a	4	-999	n/a	n/a	n/a	n/a	6	[0, 0, 0]	-999	PAL1	0	R1136N
870.032	0.275	1763397	TEST_ORIENT	n/a	n/a	1	5	CLOUD	n/a	TRASH	CLOUD	6	[0, 0, 0]	-999	PAL1	0	R1136N
871.049	4.0	1764414	TEST_PROBE	n/a	wordpools/wordpool_EN.txt	1	5	CLOUD	n/a	TRASH	CLOUD	6	[0, 0, 0]	-999	PAL1	0	R1136N
871.05	4.992	1764415	REC_START	n/a	n/a	1	-999	n/a	n/a	n/a	n/a	6	[0, 0, 0]	-999	PAL1	0	R1136N
876.042	0.016	1769407	REC_EVENT	4.992	n/a	1	5	CLOUD	<>	TRASH	CLOUD	6	[0, 0, 0]	-999	PAL1	0	R1136N
876.058	0.009	1769423	REC_END	n/a	n/a	1	-999	n/a	n/a	n/a	n/a	6	[0, 0, 0]	-999	PAL1	0	R1136N
876.067	0.275	1769432	TEST_ORIENT	n/a	n/a	2	6	BAND	n/a	BAND	SLIME	6	[0, 0, 0]	-999	PAL1	0	R1136N
877.067	4.0	1770431	TEST_PROBE	n/a	wordpools/wordpool_EN.txt	2	6	BAND	n/a	BAND	SLIME	6	[0, 0, 0]	-999	PAL1	0	R1136N
877.068	4.799	1770432	REC_START	n/a	n/a	2	-999	n/a	n/a	n/a	n/a	6	[0, 0, 0]	-999	PAL1	0	R1136N
881.867	0.217	1775231	REC_EVENT	4.799	n/a	2	6	BAND	<>	BAND	SLIME	6	[0, 0, 0]	-999	PAL1	0	R1136N
882.084	0.034	1775448	REC_END	n/a	n/a	2	-999	n/a	n/a	n/a	n/a	6	[0, 0, 0]	-999	PAL1	0	R1136N
882.118	12.591	1775482	FEEDBACK_SHOW_ALL_PAIRS	n/a	n/a	2	-999	n/a	n/a	n/a	n/a	6	[0, 0, 0]	-999	PAL1	0	R1136N
894.709	10.446	1788073	ENCODING_START	n/a	n/a	0	-999	n/a	n/a	n/a	n/a	7	[0, 0, 0]	-999	PAL1	0	R1136N
905.155	0.275	1798518	STUDY_ORIENT	n/a	n/a	1	5	FENCE	n/a	BEACH	FENCE	7	[0, 0, 0]	-999	PAL1	0	R1136N
906.039	4.0	1799402	STUDY_PAIR	n/a	wordpools/wordpool_EN.txt	1	5	FENCE	n/a	BEACH	FENCE	7	[0, 0, 0]	-999	PAL1	0	R1136N
911.073	0.275	1804436	STUDY_ORIENT	n/a	n/a	2	4	MAIL	n/a	PARK	MAIL	7	[0, 0, 0]	-999	PAL1	0	R1136N
911.856	4.0	1805219	STUDY_PAIR	n/a	wordpools/wordpool_EN.txt	2	4	MAIL	n/a	PARK	MAIL	7	[0, 0, 0]	-999	PAL1	0	R1136N
916.874	0.275	1810236	STUDY_ORIENT	n/a	n/a	3	1	BOX	n/a	STEAK	BOX	7	[0, 0, 0]	-999	PAL1	0	R1136N
917.691	4.0	1811053	STUDY_PAIR	n/a	wordpools/wordpool_EN.txt	3	1	BOX	n/a	STEAK	BOX	7	[0, 0, 0]	-999	PAL1	0	R1136N
922.725	0.275	1816087	STUDY_ORIENT	n/a	n/a	4	2	DRUM	n/a	PURSE	DRUM	7	[0, 0, 0]	-999	PAL1	0	R1136N
923.657	4.0	1817019	STUDY_PAIR	n/a	wordpools/wordpool_EN.txt	4	2	DRUM	n/a	PURSE	DRUM	7	[0, 0, 0]	-999	PAL1	0	R1136N
928.676	0.275	1822038	STUDY_ORIENT	n/a	n/a	5	3	OAK	n/a	CALF	OAK	7	[0, 0, 0]	-999	PAL1	0	R1136N
929.693	4.0	1823055	STUDY_PAIR	n/a	wordpools/wordpool_EN.txt	5	3	OAK	n/a	CALF	OAK	7	[0, 0, 0]	-999	PAL1	0	R1136N
934.727	0.275	1828089	STUDY_ORIENT	n/a	n/a	6	6	BALL	n/a	MAP	BALL	7	[0, 0, 0]	-999	PAL1	0	R1136N
935.576	4.0	1828938	STUDY_PAIR	n/a	wordpools/wordpool_EN.txt	6	6	BALL	n/a	MAP	BALL	7	[0, 0, 0]	-999	PAL1	0	R1136N
939.594	0.999	1832955	START	n/a	n/a	-999	-999	n/a	n/a	n/a	n/a	7	[-999, -999, -999]	-999	PAL1	0	R1136N
940.593	0.017	1833954	MATH_START	n/a	n/a	-999	-999	n/a	n/a	n/a	n/a	7	[0, 0, 0]	-999	PAL1	0	R1136N
940.61	4.302	1833971	PROB	4.274	n/a	-999	-999	n/a	n/a	n/a	n/a	7	[6, 7, 6]	19	PAL1	0	R1136N
944.912	3.716	1838273	PROB	3.692	n/a	-999	-999	n/a	n/a	n/a	n/a	7	[5, 3, 9]	17	PAL1	0	R1136N
948.628	4.034	1841989	PROB	3.999	n/a	-999	-999	n/a	n/a	n/a	n/a	7	[5, 4, 7]	16	PAL1	0	R1136N
952.662	4.185	1846023	PROB	4.15	n/a	-999	-999	n/a	n/a	n/a	n/a	7	[3, 8, 5]	16	PAL1	0	R1136N
956.847	3.349	1850207	PROB	3.349	n/a	-999	-999	n/a	n/a	n/a	n/a	7	[9, 2, 7]	18	PAL1	0	R1136N
960.196	0.018	1853556	STOP	n/a	n/a	-999	-999	n/a	n/a	n/a	n/a	7	[-999, -999, -999]	-999	PAL1	0	R1136N
960.214	0.0	1853574	MATH_END	n/a	n/a	-999	-999	n/a	n/a	n/a	n/a	7	[0, 0, 0]	-999	PAL1	0	R1136N
960.214	0.017	1853574	TEST_START	n/a	n/a	-999	-999	n/a	n/a	n/a	n/a	7	[0, 0, 0]	-999	PAL1	0	R1136N
960.231	0.275	1853591	TEST_ORIENT	n/a	n/a	3	1	BOX	n/a	STEAK	BOX	7	[0, 0, 0]	-999	PAL1	0	R1136N
961.181	4.0	1854541	TEST_PROBE	n/a	wordpools/wordpool_EN.txt	3	1	BOX	n/a	STEAK	BOX	7	[0, 0, 0]	-999	PAL1	0	R1136N
961.182	4.959	1854542	REC_START	n/a	n/a	3	-999	n/a	n/a	n/a	n/a	7	[0, 0, 0]	-999	PAL1	0	R1136N
966.141	0.049	1859501	REC_EVENT	4.959	n/a	3	1	BOX	<>	STEAK	BOX	7	[0, 0, 0]	-999	PAL1	0	R1136N
966.19	0.009	1859550	REC_END	n/a	n/a	3	-999	n/a	n/a	n/a	n/a	7	[0, 0, 0]	-999	PAL1	0	R1136N
966.199	0.275	1859559	TEST_ORIENT	n/a	n/a	4	2	DRUM	n/a	PURSE	DRUM	7	[0, 0, 0]	-999	PAL1	0	R1136N
967.166	4.0	1860526	TEST_PROBE	n/a	wordpools/wordpool_EN.txt	4	2	DRUM	n/a	PURSE	DRUM	7	[0, 0, 0]	-999	PAL1	0	R1136N
967.166	4.965	1860526	REC_START	n/a	n/a	4	-999	n/a	n/a	n/a	n/a	7	[0, 0, 0]	-999	PAL1	0	R1136N
972.131	0.052	1865491	REC_EVENT	4.965	n/a	4	2	DRUM	<>	PURSE	DRUM	7	[0, 0, 0]	-999	PAL1	0	R1136N
972.183	0.017	1865543	REC_END	n/a	n/a	4	-999	n/a	n/a	n/a	n/a	7	[0, 0, 0]	-999	PAL1	0	R1136N
972.2	0.275	1865560	TEST_ORIENT	n/a	n/a	5	3	OAK	n/a	CALF	OAK	7	[0, 0, 0]	-999	PAL1	0	R1136N
973.15	0.0	1866510	REC_START	n/a	n/a	5	-999	n/a	n/a	n/a	n/a	7	[0, 0, 0]	-999	PAL1	0	R1136N
973.15	4.0	1866510	TEST_PROBE	n/a	wordpools/wordpool_EN.txt	5	3	OAK	n/a	CALF	OAK	7	[0, 0, 0]	-999	PAL1	0	R1136N
978.115	0.052	1871474	REC_EVENT	4.965	n/a	5	3	OAK	<>	CALF	OAK	7	[0, 0, 0]	-999	PAL1	0	R1136N
978.167	0.017	1871526	REC_END	n/a	n/a	5	-999	n/a	n/a	n/a	n/a	7	[0, 0, 0]	-999	PAL1	0	R1136N
978.184	0.275	1871543	TEST_ORIENT	n/a	n/a	2	4	MAIL	n/a	PARK	MAIL	7	[0, 0, 0]	-999	PAL1	0	R1136N
979.101	4.0	1872460	TEST_PROBE	n/a	wordpools/wordpool_EN.txt	2	4	MAIL	n/a	PARK	MAIL	7	[0, 0, 0]	-999	PAL1	0	R1136N
979.101	4.876	1872460	REC_START	n/a	n/a	2	-999	n/a	n/a	n/a	n/a	7	[0, 0, 0]	-999	PAL1	0	R1136N
983.977	0.141	1877336	REC_EVENT	4.876	n/a	2	4	MAIL	<>	PARK	MAIL	7	[0, 0, 0]	-999	PAL1	0	R1136N
984.118	0.017	1877477	REC_END	n/a	n/a	2	-999	n/a	n/a	n/a	n/a	7	[0, 0, 0]	-999	PAL1	0	R1136N
984.135	0.275	1877494	TEST_ORIENT	n/a	n/a	1	5	FENCE	n/a	BEACH	FENCE	7	[0, 0, 0]	-999	PAL1	0	R1136N
985.152	4.0	1878511	TEST_PROBE	n/a	wordpools/wordpool_EN.txt	1	5	FENCE	n/a	BEACH	FENCE	7	[0, 0, 0]	-999	PAL1	0	R1136N
985.152	5.01	1878511	REC_START	n/a	n/a	1	-999	n/a	n/a	n/a	n/a	7	[0, 0, 0]	-999	PAL1	0	R1136N
990.162	0.007	1883521	REC_EVENT	5.01	n/a	1	5	FENCE	<>	BEACH	FENCE	7	[0, 0, 0]	-999	PAL1	0	R1136N
990.169	0.017	1883528	REC_END	n/a	n/a	1	-999	n/a	n/a	n/a	n/a	7	[0, 0, 0]	-999	PAL1	0	R1136N
990.186	0.275	1883545	TEST_ORIENT	n/a	n/a	6	6	BALL	n/a	MAP	BALL	7	[0, 0, 0]	-999	PAL1	0	R1136N
991.136	4.0	1884495	TEST_PROBE	n/a	wordpools/wordpool_EN.txt	6	6	BALL	n/a	MAP	BALL	7	[0, 0, 0]	-999	PAL1	0	R1136N
991.137	4.992	1884496	REC_START	n/a	n/a	6	-999	n/a	n/a	n/a	n/a	7	[0, 0, 0]	-999	PAL1	0	R1136N
996.129	0.016	1889488	REC_EVENT	4.992	n/a	6	6	BALL	<>	MAP	BALL	7	[0, 0, 0]	-999	PAL1	0	R1136N
996.145	0.026	1889504	REC_END	n/a	n/a	6	-999	n/a	n/a	n/a	n/a	7	[0, 0, 0]	-999	PAL1	0	R1136N
996.171	17.385	1889530	FEEDBACK_SHOW_ALL_PAIRS	n/a	n/a	6	-999	n/a	n/a	n/a	n/a	7	[0, 0, 0]	-999	PAL1	0	R1136N
1013.556	10.453	1906914	ENCODING_START	n/a	n/a	0	-999	n/a	n/a	n/a	n/a	8	[0, 0, 0]	-999	PAL1	0	R1136N
1024.009	0.275	1917366	STUDY_ORIENT	n/a	n/a	1	5	BEAK	n/a	APE	BEAK	8	[0, 0, 0]	-999	PAL1	0	R1136N
1024.976	4.0	1918333	STUDY_PAIR	n/a	wordpools/wordpool_EN.txt	1	5	BEAK	n/a	APE	BEAK	8	[0, 0, 0]	-999	PAL1	0	R1136N
1030.01	0.275	1923367	STUDY_ORIENT	n/a	n/a	2	2	VASE	n/a	VASE	FUR	8	[0, 0, 0]	-999	PAL1	0	R1136N
1030.943	4.0	1924300	STUDY_PAIR	n/a	wordpools/wordpool_EN.txt	2	2	VASE	n/a	VASE	FUR	8	[0, 0, 0]	-999	PAL1	0	R1136N
1035.977	0.275	1929334	STUDY_ORIENT	n/a	n/a	3	1	ROPE	n/a	ROPE	SPARK	8	[0, 0, 0]	-999	PAL1	0	R1136N
1036.794	4.0	1930150	STUDY_PAIR	n/a	wordpools/wordpool_EN.txt	3	1	ROPE	n/a	ROPE	SPARK	8	[0, 0, 0]	-999	PAL1	0	R1136N
1041.828	0.275	1935184	STUDY_ORIENT	n/a	n/a	4	4	TEETH	n/a	TEETH	SINK	8	[0, 0, 0]	-999	PAL1	0	R1136N
1042.627	4.0	1935983	STUDY_PAIR	n/a	wordpools/wordpool_EN.txt	4	4	TEETH	n/a	TEETH	SINK	8	[0, 0, 0]	-999	PAL1	0	R1136N
1047.645	0.275	1941001	STUDY_ORIENT	n/a	n/a	5	3	CAVE	n/a	CAVE	CASH	8	[0, 0, 0]	-999	PAL1	0	R1136N
1048.428	4.0	1941784	STUDY_PAIR	n/a	wordpools/wordpool_EN.txt	5	3	CAVE	n/a	CAVE	CASH	8	[0, 0, 0]	-999	PAL1	0	R1136N
1053.446	0.275	1946802	STUDY_ORIENT	n/a	n/a	6	6	MILK	n/a	MILK	OWL	8	[0, 0, 0]	-999	PAL1	0	R1136N
1054.329	4.0	1947685	STUDY_PAIR	n/a	wordpools/wordpool_EN.txt	6	6	MILK	n/a	MILK	OWL	8	[0, 0, 0]	-999	PAL1	0	R1136N
1058.33	1.0	1951685	START	n/a	n/a	-999	-999	n/a	n/a	n/a	n/a	8	[-999, -999, -999]	-999	PAL1	0	R1136N
1059.33	0.017	1952685	MATH_START	n/a	n/a	-999	-999	n/a	n/a	n/a	n/a	8	[0, 0, 0]	-999	PAL1	0	R1136N
1059.347	7.869	1952702	PROB	7.842	n/a	-999	-999	n/a	n/a	n/a	n/a	8	[8, 4, 7]	19	PAL1	0	R1136N
1067.216	3.867	1960571	PROB	3.845	n/a	-999	-999	n/a	n/a	n/a	n/a	8	[3, 1, 9]	13	PAL1	0	R1136N
1071.083	3.684	1964438	PROB	3.657	n/a	-999	-999	n/a	n/a	n/a	n/a	8	[9, 5, 9]	23	PAL1	0	R1136N
1074.767	4.933	1968122	PROB	4.933	n/a	-999	-999	n/a	n/a	n/a	n/a	8	[6, 2, 1]	9	PAL1	0	R1136N
1079.7	0.018	1973054	STOP	n/a	n/a	-999	-999	n/a	n/a	n/a	n/a	8	[-999, -999, -999]	-999	PAL1	0	R1136N
1079.718	0.0	1973072	MATH_END	n/a	n/a	-999	-999	n/a	n/a	n/a	n/a	8	[0, 0, 0]	-999	PAL1	0	R1136N
1079.718	0.016	1973072	TEST_START	n/a	n/a	-999	-999	n/a	n/a	n/a	n/a	8	[0, 0, 0]	-999	PAL1	0	R1136N
1079.734	0.275	1973088	TEST_ORIENT	n/a	n/a	3	1	ROPE	n/a	ROPE	SPARK	8	[0, 0, 0]	-999	PAL1	0	R1136N
1080.667	4.0	1974021	TEST_PROBE	n/a	wordpools/wordpool_EN.txt	3	1	ROPE	n/a	ROPE	SPARK	8	[0, 0, 0]	-999	PAL1	0	R1136N
1080.668	4.992	1974022	REC_START	n/a	n/a	3	-999	n/a	n/a	n/a	n/a	8	[0, 0, 0]	-999	PAL1	0	R1136N
1085.66	0.017	1979014	REC_EVENT	4.992	n/a	3	1	ROPE	<>	ROPE	SPARK	8	[0, 0, 0]	-999	PAL1	0	R1136N
1085.677	0.009	1979031	REC_END	n/a	n/a	3	-999	n/a	n/a	n/a	n/a	8	[0, 0, 0]	-999	PAL1	0	R1136N
1085.686	0.275	1979040	TEST_ORIENT	n/a	n/a	2	2	VASE	n/a	VASE	FUR	8	[0, 0, 0]	-999	PAL1	0	R1136N
1086.719	4.0	1980073	TEST_PROBE	n/a	wordpools/wordpool_EN.txt	2	2	VASE	n/a	VASE	FUR	8	[0, 0, 0]	-999	PAL1	0	R1136N
1086.72	4.969	1980074	REC_START	n/a	n/a	2	-999	n/a	n/a	n/a	n/a	8	[0, 0, 0]	-999	PAL1	0	R1136N
1091.689	0.031	1985043	REC_EVENT	4.969	n/a	2	2	VASE	<>	VASE	FUR	8	[0, 0, 0]	-999	PAL1	0	R1136N
1091.72	0.017	1985074	REC_END	n/a	n/a	2	-999	n/a	n/a	n/a	n/a	8	[0, 0, 0]	-999	PAL1	0	R1136N
1091.737	0.275	1985091	TEST_ORIENT	n/a	n/a	5	3	CAVE	n/a	CAVE	CASH	8	[0, 0, 0]	-999	PAL1	0	R1136N
1092.669	4.0	1986023	TEST_PROBE	n/a	wordpools/wordpool_EN.txt	5	3	CAVE	n/a	CAVE	CASH	8	[0, 0, 0]	-999	PAL1	0	R1136N
1092.67	4.876	1986024	REC_START	n/a	n/a	5	-999	n/a	n/a	n/a	n/a	8	[0, 0, 0]	-999	PAL1	0	R1136N
1097.546	0.133	1990899	REC_EVENT	4.876	n/a	5	3	CAVE	<>	CAVE	CASH	8	[0, 0, 0]	-999	PAL1	0	R1136N
1097.679	0.009	1991032	REC_END	n/a	n/a	5	-999	n/a	n/a	n/a	n/a	8	[0, 0, 0]	-999	PAL1	0	R1136N
1097.688	0.275	1991041	TEST_ORIENT	n/a	n/a	4	4	TEETH	n/a	TEETH	SINK	8	[0, 0, 0]	-999	PAL1	0	R1136N
1098.67	4.0	1992023	TEST_PROBE	n/a	wordpools/wordpool_EN.txt	4	4	TEETH	n/a	TEETH	SINK	8	[0, 0, 0]	-999	PAL1	0	R1136N
1098.672	4.922	1992025	REC_START	n/a	n/a	4	-999	n/a	n/a	n/a	n/a	8	[0, 0, 0]	-999	PAL1	0	R1136N
1103.594	0.086	1996947	REC_EVENT	4.922	n/a	4	4	TEETH	<>	TEETH	SINK	8	[0, 0, 0]	-999	PAL1	0	R1136N
1103.68	0.009	1997033	REC_END	n/a	n/a	4	-999	n/a	n/a	n/a	n/a	8	[0, 0, 0]	-999	PAL1	0	R1136N
1103.689	0.275	1997042	TEST_ORIENT	n/a	n/a	1	5	BEAK	n/a	APE	BEAK	8	[0, 0, 0]	-999	PAL1	0	R1136N
1104.722	4.0	1998075	TEST_PROBE	n/a	wordpools/wordpool_EN.txt	1	5	BEAK	n/a	APE	BEAK	8	[0, 0, 0]	-999	PAL1	0	R1136N
1104.723	4.852	1998076	REC_START	n/a	n/a	1	-999	n/a	n/a	n/a	n/a	8	[0, 0, 0]	-999	PAL1	0	R1136N
1109.575	0.156	2002928	REC_EVENT	4.852	n/a	1	5	BEAK	<>	APE	BEAK	8	[0, 0, 0]	-999	PAL1	0	R1136N
1109.731	0.009	2003084	REC_END	n/a	n/a	1	-999	n/a	n/a	n/a	n/a	8	[0, 0, 0]	-999	PAL1	0	R1136N
1109.74	0.275	2003093	TEST_ORIENT	n/a	n/a	6	6	MILK	n/a	MILK	OWL	8	[0, 0, 0]	-999	PAL1	0	R1136N
1110.757	4.0	2004110	TEST_PROBE	n/a	wordpools/wordpool_EN.txt	6	6	MILK	n/a	MILK	OWL	8	[0, 0, 0]	-999	PAL1	0	R1136N
1110.757	4.876	2004110	REC_START	n/a	n/a	6	-999	n/a	n/a	n/a	n/a	8	[0, 0, 0]	-999	PAL1	0	R1136N
1115.633	0.141	2008986	REC_EVENT	4.876	n/a	6	6	MILK	<>	MILK	OWL	8	[0, 0, 0]	-999	PAL1	0	R1136N
1115.774	0.034	2009127	REC_END	n/a	n/a	6	-999	n/a	n/a	n/a	n/a	8	[0, 0, 0]	-999	PAL1	0	R1136N
1115.808	11.627	2009161	FEEDBACK_SHOW_ALL_PAIRS	n/a	n/a	6	-999	n/a	n/a	n/a	n/a	8	[0, 0, 0]	-999	PAL1	0	R1136N
1127.435	10.443	2020787	ENCODING_START	n/a	n/a	0	-999	n/a	n/a	n/a	n/a	9	[0, 0, 0]	-999	PAL1	0	R1136N
1137.878	0.275	2031229	STUDY_ORIENT	n/a	n/a	1	1	RAKE	STEM	RAKE	STEM	9	[0, 0, 0]	-999	PAL1	0	R1136N
1138.895	4.0	2032246	STUDY_PAIR	n/a	wordpools/wordpool_EN.txt	1	1	RAKE	STEM	RAKE	STEM	9	[0, 0, 0]	-999	PAL1	0	R1136N
1143.929	0.275	2037280	STUDY_ORIENT	n/a	n/a	2	4	TOY	n/a	MOUTH	TOY	9	[0, 0, 0]	-999	PAL1	0	R1136N
1144.712	4.0	2038063	STUDY_PAIR	n/a	wordpools/wordpool_EN.txt	2	4	TOY	n/a	MOUTH	TOY	9	[0, 0, 0]	-999	PAL1	0	R1136N
1149.73	0.275	2043081	STUDY_ORIENT	n/a	n/a	3	3	TOAD	n/a	TOAD	TAIL	9	[0, 0, 0]	-999	PAL1	0	R1136N
1150.512	4.0	2043863	STUDY_PAIR	n/a	wordpools/wordpool_EN.txt	3	3	TOAD	n/a	TOAD	TAIL	9	[0, 0, 0]	-999	PAL1	0	R1136N
1155.53	0.275	2048881	STUDY_ORIENT	n/a	n/a	4	2	PALM	n/a	PALM	SHIRT	9	[0, 0, 0]	-999	PAL1	0	R1136N
1156.397	4.0	2049748	STUDY_PAIR	n/a	wordpools/wordpool_EN.txt	4	2	PALM	n/a	PALM	SHIRT	9	[0, 0, 0]	-999	PAL1	0	R1136N
1161.431	0.275	2054781	STUDY_ORIENT	n/a	n/a	5	5	SKY	n/a	DOCK	SKY	9	[0, 0, 0]	-999	PAL1	0	R1136N
1162.414	4.0	2055764	STUDY_PAIR	n/a	wordpools/wordpool_EN.txt	5	5	SKY	n/a	DOCK	SKY	9	[0, 0, 0]	-999	PAL1	0	R1136N
1167.432	0.275	2060782	STUDY_ORIENT	n/a	n/a	6	6	SHELL	n/a	PEA	SHELL	9	[0, 0, 0]	-999	PAL1	0	R1136N
1168.382	4.0	2061732	STUDY_PAIR	n/a	wordpools/wordpool_EN.txt	6	6	SHELL	n/a	PEA	SHELL	9	[0, 0, 0]	-999	PAL1	0	R1136N
1172.4	0.999	2065750	START	n/a	n/a	-999	-999	n/a	n/a	n/a	n/a	9	[-999, -999, -999]	-999	PAL1	0	R1136N
1173.399	0.017	2066749	MATH_START	n/a	n/a	-999	-999	n/a	n/a	n/a	n/a	9	[0, 0, 0]	-999	PAL1	0	R1136N
1173.416	4.402	2066766	PROB	4.38	n/a	-999	-999	n/a	n/a	n/a	n/a	9	[7, 3, 6]	16	PAL1	0	R1136N
1177.818	4.101	2071167	PROB	4.066	n/a	-999	-999	n/a	n/a	n/a	n/a	9	[6, 1, 8]	15	PAL1	0	R1136N
1181.919	5.784	2075268	PROB	5.757	n/a	-999	-999	n/a	n/a	n/a	n/a	9	[4, 4, 5]	13	PAL1	0	R1136N
1187.703	4.616	2081052	PROB	4.589	n/a	-999	-999	n/a	n/a	n/a	n/a	9	[2, 4, 1]	7	PAL1	0	R1136N
1192.319	4.413	2085668	PROB	4.413	n/a	-999	-999	n/a	n/a	n/a	n/a	9	[3, 6, 4]	13	PAL1	0	R1136N
1196.732	0.006	2090081	STOP	n/a	n/a	-999	-999	n/a	n/a	n/a	n/a	9	[-999, -999, -999]	-999	PAL1	0	R1136N
1196.738	0.0	2090087	MATH_END	n/a	n/a	-999	-999	n/a	n/a	n/a	n/a	9	[0, 0, 0]	-999	PAL1	0	R1136N
1196.738	0.016	2090087	TEST_START	n/a	n/a	-999	-999	n/a	n/a	n/a	n/a	9	[0, 0, 0]	-999	PAL1	0	R1136N
1196.754	0.275	2090103	TEST_ORIENT	n/a	n/a	1	1	RAKE	STEM	RAKE	STEM	9	[0, 0, 0]	-999	PAL1	0	R1136N
1197.754	4.0	2091102	TEST_PROBE	n/a	wordpools/wordpool_EN.txt	1	1	RAKE	STEM	RAKE	STEM	9	[0, 0, 0]	-999	PAL1	0	R1136N
1197.755	4.167	2091103	REC_START	n/a	n/a	1	-999	n/a	STEM	n/a	n/a	9	[0, 0, 0]	-999	PAL1	0	R1136N
1201.922	0.841	2095270	REC_EVENT	4.167	n/a	1	1	RAKE	STEM	RAKE	STEM	9	[0, 0, 0]	-999	PAL1	0	R1136N
1202.763	0.009	2096111	REC_END	n/a	n/a	1	-999	n/a	n/a	n/a	n/a	9	[0, 0, 0]	-999	PAL1	0	R1136N
1202.772	0.275	2096120	TEST_ORIENT	n/a	n/a	4	2	PALM	n/a	PALM	SHIRT	9	[0, 0, 0]	-999	PAL1	0	R1136N
1203.588	4.0	2096936	TEST_PROBE	n/a	wordpools/wordpool_EN.txt	4	2	PALM	n/a	PALM	SHIRT	9	[0, 0, 0]	-999	PAL1	0	R1136N
1203.588	4.969	2096936	REC_START	n/a	n/a	4	-999	n/a	n/a	n/a	n/a	9	[0, 0, 0]	-999	PAL1	0	R1136N
1208.557	0.048	2101905	REC_EVENT	4.969	n/a	4	2	PALM	<>	PALM	SHIRT	9	[0, 0, 0]	-999	PAL1	0	R1136N
1208.605	0.017	2101953	REC_END	n/a	n/a	4	-999	n/a	n/a	n/a	n/a	9	[0, 0, 0]	-999	PAL1	0	R1136N
1208.622	0.275	2101970	TEST_ORIENT	n/a	n/a	3	3	TOAD	n/a	TOAD	TAIL	9	[0, 0, 0]	-999	PAL1	0	R1136N
1209.506	4.0	2102854	TEST_PROBE	n/a	wordpools/wordpool_EN.txt	3	3	TOAD	n/a	TOAD	TAIL	9	[0, 0, 0]	-999	PAL1	0	R1136N
1209.506	4.922	2102854	REC_START	n/a	n/a	3	-999	n/a	n/a	n/a	n/a	9	[0, 0, 0]	-999	PAL1	0	R1136N
1214.428	0.095	2107776	REC_EVENT	4.922	n/a	3	3	TOAD	<>	TOAD	TAIL	9	[0, 0, 0]	-999	PAL1	0	R1136N
1214.523	0.017	2107871	REC_END	n/a	n/a	3	-999	n/a	n/a	n/a	n/a	9	[0, 0, 0]	-999	PAL1	0	R1136N
1214.54	0.275	2107888	TEST_ORIENT	n/a	n/a	2	4	TOY	n/a	MOUTH	TOY	9	[0, 0, 0]	-999	PAL1	0	R1136N
1215.507	4.0	2108855	TEST_PROBE	n/a	wordpools/wordpool_EN.txt	2	4	TOY	n/a	MOUTH	TOY	9	[0, 0, 0]	-999	PAL1	0	R1136N
1215.507	4.876	2108855	REC_START	n/a	n/a	2	-999	n/a	n/a	n/a	n/a	9	[0, 0, 0]	-999	PAL1	0	R1136N
1220.383	0.141	2113730	REC_EVENT	4.876	n/a	2	4	TOY	<>	MOUTH	TOY	9	[0, 0, 0]	-999	PAL1	0	R1136N
1220.524	0.017	2113871	REC_END	n/a	n/a	2	-999	n/a	n/a	n/a	n/a	9	[0, 0, 0]	-999	PAL1	0	R1136N
1220.541	0.275	2113888	TEST_ORIENT	n/a	n/a	5	5	SKY	n/a	DOCK	SKY	9	[0, 0, 0]	-999	PAL1	0	R1136N
1221.574	4.0	2114921	TEST_PROBE	n/a	wordpools/wordpool_EN.txt	5	5	SKY	n/a	DOCK	SKY	9	[0, 0, 0]	-999	PAL1	0	R1136N
1221.575	4.876	2114922	REC_START	n/a	n/a	5	-999	n/a	n/a	n/a	n/a	9	[0, 0, 0]	-999	PAL1	0	R1136N
1226.451	0.132	2119798	REC_EVENT	4.876	n/a	5	5	SKY	<>	DOCK	SKY	9	[0, 0, 0]	-999	PAL1	0	R1136N
1226.583	0.009	2119930	REC_END	n/a	n/a	5	-999	n/a	n/a	n/a	n/a	9	[0, 0, 0]	-999	PAL1	0	R1136N
1226.592	0.275	2119939	TEST_ORIENT	n/a	n/a	6	6	SHELL	n/a	PEA	SHELL	9	[0, 0, 0]	-999	PAL1	0	R1136N
1227.542	4.0	2120889	TEST_PROBE	n/a	wordpools/wordpool_EN.txt	6	6	SHELL	n/a	PEA	SHELL	9	[0, 0, 0]	-999	PAL1	0	R1136N
1227.542	4.852	2120889	REC_START	n/a	n/a	6	-999	n/a	n/a	n/a	n/a	9	[0, 0, 0]	-999	PAL1	0	R1136N
1232.394	0.165	2125741	REC_EVENT	4.852	n/a	6	6	SHELL	<>	PEA	SHELL	9	[0, 0, 0]	-999	PAL1	0	R1136N
1232.559	0.017	2125906	REC_END	n/a	n/a	6	-999	n/a	n/a	n/a	n/a	9	[0, 0, 0]	-999	PAL1	0	R1136N
1232.576	13.109	2125923	FEEDBACK_SHOW_ALL_PAIRS	n/a	n/a	6	-999	n/a	n/a	n/a	n/a	9	[0, 0, 0]	-999	PAL1	0	R1136N
1245.685	10.446	2139031	ENCODING_START	n/a	n/a	0	-999	n/a	n/a	n/a	n/a	10	[0, 0, 0]	-999	PAL1	0	R1136N
1256.131	0.275	2149477	STUDY_ORIENT	n/a	n/a	1	3	STORE	n/a	STORE	BOOT	10	[0, 0, 0]	-999	PAL1	0	R1136N
1256.948	4.0	2150294	STUDY_PAIR	n/a	wordpools/wordpool_EN.txt	1	3	STORE	n/a	STORE	BOOT	10	[0, 0, 0]	-999	PAL1	0	R1136N
1261.982	0.275	2155327	STUDY_ORIENT	n/a	n/a	2	4	BLUSH	n/a	BLUSH	SNAIL	10	[0, 0, 0]	-999	PAL1	0	R1136N
1262.916	4.0	2156261	STUDY_PAIR	n/a	wordpools/wordpool_EN.txt	2	4	BLUSH	n/a	BLUSH	SNAIL	10	[0, 0, 0]	-999	PAL1	0	R1136N
1267.95	0.275	2161295	STUDY_ORIENT	n/a	n/a	3	5	EEL	n/a	GUARD	EEL	10	[0, 0, 0]	-999	PAL1	0	R1136N
1268.917	4.0	2162262	STUDY_PAIR	n/a	wordpools/wordpool_EN.txt	3	5	EEL	n/a	GUARD	EEL	10	[0, 0, 0]	-999	PAL1	0	R1136N
1273.951	0.275	2167296	STUDY_ORIENT	n/a	n/a	4	2	NAIL	n/a	TRUCK	NAIL	10	[0, 0, 0]	-999	PAL1	0	R1136N
1274.868	4.0	2168213	STUDY_PAIR	n/a	wordpools/wordpool_EN.txt	4	2	NAIL	n/a	TRUCK	NAIL	10	[0, 0, 0]	-999	PAL1	0	R1136N
1279.902	0.275	2173246	STUDY_ORIENT	n/a	n/a	5	1	CROWN	n/a	COIN	CROWN	10	[0, 0, 0]	-999	PAL1	0	R1136N
1280.735	4.0	2174079	STUDY_PAIR	n/a	wordpools/wordpool_EN.txt	5	1	CROWN	n/a	COIN	CROWN	10	[0, 0, 0]	-999	PAL1	0	R1136N
1285.753	0.275	2179097	STUDY_ORIENT	n/a	n/a	6	6	SHEET	n/a	BOARD	SHEET	10	[0, 0, 0]	-999	PAL1	0	R1136N
1286.736	4.0	2180080	STUDY_PAIR	n/a	wordpools/wordpool_EN.txt	6	6	SHEET	n/a	BOARD	SHEET	10	[0, 0, 0]	-999	PAL1	0	R1136N
1290.737	1.0	2184081	START	n/a	n/a	-999	-999	n/a	n/a	n/a	n/a	10	[-999, -999, -999]	-999	PAL1	0	R1136N
1291.737	0.017	2185081	MATH_START	n/a	n/a	-999	-999	n/a	n/a	n/a	n/a	10	[0, 0, 0]	-999	PAL1	0	R1136N
1291.754	5.351	2185098	PROB	5.322	n/a	-999	-999	n/a	n/a	n/a	n/a	10	[5, 6, 9]	20	PAL1	0	R1136N
1297.105	4.084	2190448	PROB	4.051	n/a	-999	-999	n/a	n/a	n/a	n/a	10	[2, 8, 7]	17	PAL1	0	R1136N
1301.189	3.449	2194532	PROB	3.431	n/a	-999	-999	n/a	n/a	n/a	n/a	10	[5, 5, 9]	24	PAL1	0	R1136N
1304.638	5.186	2197981	PROB	5.158	n/a	-999	-999	n/a	n/a	n/a	n/a	10	[7, 9, 7]	24	PAL1	0	R1136N
1309.824	4.444	2203167	PROB	4.444	n/a	-999	-999	n/a	n/a	n/a	n/a	10	[3, 3, 9]	15	PAL1	0	R1136N
1314.268	0.006	2207611	STOP	n/a	n/a	-999	-999	n/a	n/a	n/a	n/a	10	[-999, -999, -999]	-999	PAL1	0	R1136N
1314.274	0.0	2207617	MATH_END	n/a	n/a	-999	-999	n/a	n/a	n/a	n/a	10	[0, 0, 0]	-999	PAL1	0	R1136N
1314.274	0.016	2207617	TEST_START	n/a	n/a	-999	-999	n/a	n/a	n/a	n/a	10	[0, 0, 0]	-999	PAL1	0	R1136N
1314.29	0.275	2207633	TEST_ORIENT	n/a	n/a	5	1	CROWN	n/a	COIN	CROWN	10	[0, 0, 0]	-999	PAL1	0	R1136N
1315.158	4.0	2208501	TEST_PROBE	n/a	wordpools/wordpool_EN.txt	5	1	CROWN	n/a	COIN	CROWN	10	[0, 0, 0]	-999	PAL1	0	R1136N
1315.158	4.852	2208501	REC_START	n/a	n/a	5	-999	n/a	n/a	n/a	n/a	10	[0, 0, 0]	-999	PAL1	0	R1136N
1320.01	0.165	2213352	REC_EVENT	4.852	n/a	5	1	CROWN	<>	COIN	CROWN	10	[0, 0, 0]	-999	PAL1	0	R1136N
1320.175	0.017	2213517	REC_END	n/a	n/a	5	-999	n/a	n/a	n/a	n/a	10	[0, 0, 0]	-999	PAL1	0	R1136N
1320.192	0.275	2213534	TEST_ORIENT	n/a	n/a	4	2	NAIL	n/a	TRUCK	NAIL	10	[0, 0, 0]	-999	PAL1	0	R1136N
1321.142	4.0	2214484	TEST_PROBE	n/a	wordpools/wordpool_EN.txt	4	2	NAIL	n/a	TRUCK	NAIL	10	[0, 0, 0]	-999	PAL1	0	R1136N
1321.143	4.899	2214485	REC_START	n/a	n/a	4	-999	n/a	n/a	n/a	n/a	10	[0, 0, 0]	-999	PAL1	0	R1136N
1326.042	0.108	2219384	REC_EVENT	4.899	n/a	4	2	NAIL	<>	TRUCK	NAIL	10	[0, 0, 0]	-999	PAL1	0	R1136N
1326.15	0.01	2219492	REC_END	n/a	n/a	4	-999	n/a	n/a	n/a	n/a	10	[0, 0, 0]	-999	PAL1	0	R1136N
1326.16	0.275	2219502	TEST_ORIENT	n/a	n/a	1	3	STORE	n/a	STORE	BOOT	10	[0, 0, 0]	-999	PAL1	0	R1136N
1327.093	4.0	2220435	TEST_PROBE	n/a	wordpools/wordpool_EN.txt	1	3	STORE	n/a	STORE	BOOT	10	[0, 0, 0]	-999	PAL1	0	R1136N
1327.094	4.876	2220436	REC_START	n/a	n/a	1	-999	n/a	n/a	n/a	n/a	10	[0, 0, 0]	-999	PAL1	0	R1136N
1331.97	0.131	2225312	REC_EVENT	4.876	n/a	1	3	STORE	<>	STORE	BOOT	10	[0, 0, 0]	-999	PAL1	0	R1136N
1332.101	0.01	2225443	REC_END	n/a	n/a	1	-999	n/a	n/a	n/a	n/a	10	[0, 0, 0]	-999	PAL1	0	R1136N
1332.111	0.275	2225453	TEST_ORIENT	n/a	n/a	2	4	BLUSH	n/a	BLUSH	SNAIL	10	[0, 0, 0]	-999	PAL1	0	R1136N
1332.961	4.0	2226303	TEST_PROBE	n/a	wordpools/wordpool_EN.txt	2	4	BLUSH	n/a	BLUSH	SNAIL	10	[0, 0, 0]	-999	PAL1	0	R1136N
1332.961	4.899	2226303	REC_START	n/a	n/a	2	-999	n/a	n/a	n/a	n/a	10	[0, 0, 0]	-999	PAL1	0	R1136N
1337.86	0.118	2231201	REC_EVENT	4.899	n/a	2	4	BLUSH	<>	BLUSH	SNAIL	10	[0, 0, 0]	-999	PAL1	0	R1136N
1337.978	0.017	2231319	REC_END	n/a	n/a	2	-999	n/a	n/a	n/a	n/a	10	[0, 0, 0]	-999	PAL1	0	R1136N
1337.995	0.275	2231336	TEST_ORIENT	n/a	n/a	3	5	EEL	n/a	GUARD	EEL	10	[0, 0, 0]	-999	PAL1	0	R1136N
1338.828	4.0	2232169	TEST_PROBE	n/a	wordpools/wordpool_EN.txt	3	5	EEL	n/a	GUARD	EEL	10	[0, 0, 0]	-999	PAL1	0	R1136N
1338.829	4.829	2232170	REC_START	n/a	n/a	3	-999	n/a	n/a	n/a	n/a	10	[0, 0, 0]	-999	PAL1	0	R1136N
1343.658	0.178	2236999	REC_EVENT	4.829	n/a	3	5	EEL	<>	GUARD	EEL	10	[0, 0, 0]	-999	PAL1	0	R1136N
1343.836	0.01	2237177	REC_END	n/a	n/a	3	-999	n/a	n/a	n/a	n/a	10	[0, 0, 0]	-999	PAL1	0	R1136N
1343.846	0.275	2237187	TEST_ORIENT	n/a	n/a	6	6	SHEET	n/a	BOARD	SHEET	10	[0, 0, 0]	-999	PAL1	0	R1136N
1344.696	4.0	2238037	TEST_PROBE	n/a	wordpools/wordpool_EN.txt	6	6	SHEET	n/a	BOARD	SHEET	10	[0, 0, 0]	-999	PAL1	0	R1136N
1344.697	4.837	2238038	REC_START	n/a	n/a	6	-999	n/a	n/a	n/a	n/a	10	[0, 0, 0]	-999	PAL1	0	R1136N
1349.534	0.17	2242875	REC_EVENT	4.837	n/a	6	6	SHEET	<>	BOARD	SHEET	10	[0, 0, 0]	-999	PAL1	0	R1136N
1349.704	0.026	2243045	REC_END	n/a	n/a	6	-999	n/a	n/a	n/a	n/a	10	[0, 0, 0]	-999	PAL1	0	R1136N
1349.73	11.267	2243071	FEEDBACK_SHOW_ALL_PAIRS	n/a	n/a	6	-999	n/a	n/a	n/a	n/a	10	[0, 0, 0]	-999	PAL1	0	R1136N
1360.997	10.436	2254337	ENCODING_START	n/a	n/a	0	-999	n/a	n/a	n/a	n/a	11	[0, 0, 0]	-999	PAL1	0	R1136N
1371.433	0.275	2264773	STUDY_ORIENT	n/a	n/a	1	5	POOL	ANT	POOL	ANT	11	[0, 0, 0]	-999	PAL1	0	R1136N
1372.35	4.0	2265690	STUDY_PAIR	n/a	wordpools/wordpool_EN.txt	1	5	POOL	ANT	POOL	ANT	11	[0, 0, 0]	-999	PAL1	0	R1136N
1377.384	0.275	2270723	STUDY_ORIENT	n/a	n/a	2	6	BEAN	n/a	PIT	BEAN	11	[0, 0, 0]	-999	PAL1	0	R1136N
1378.185	4.0	2271524	STUDY_PAIR	n/a	wordpools/wordpool_EN.txt	2	6	BEAN	n/a	PIT	BEAN	11	[0, 0, 0]	-999	PAL1	0	R1136N
1383.203	0.275	2276542	STUDY_ORIENT	n/a	n/a	3	1	YARD	n/a	BUSH	YARD	11	[0, 0, 0]	-999	PAL1	0	R1136N
1384.12	4.0	2277459	STUDY_PAIR	n/a	wordpools/wordpool_EN.txt	3	1	YARD	n/a	BUSH	YARD	11	[0, 0, 0]	-999	PAL1	0	R1136N
1389.154	0.275	2282493	STUDY_ORIENT	n/a	n/a	4	2	FOG	n/a	FOG	WOOD	11	[0, 0, 0]	-999	PAL1	0	R1136N
1390.054	4.0	2283393	STUDY_PAIR	n/a	wordpools/wordpool_EN.txt	4	2	FOG	n/a	FOG	WOOD	11	[0, 0, 0]	-999	PAL1	0	R1136N
1395.088	0.275	2288427	STUDY_ORIENT	n/a	n/a	5	3	BEE	n/a	SHOE	BEE	11	[0, 0, 0]	-999	PAL1	0	R1136N
1395.938	4.0	2289277	STUDY_PAIR	n/a	wordpools/wordpool_EN.txt	5	3	BEE	n/a	SHOE	BEE	11	[0, 0, 0]	-999	PAL1	0	R1136N
1400.956	0.275	2294294	STUDY_ORIENT	n/a	n/a	6	4	DRESS	n/a	DRESS	FISH	11	[0, 0, 0]	-999	PAL1	0	R1136N
1401.839	4.0	2295177	STUDY_PAIR	n/a	wordpools/wordpool_EN.txt	6	4	DRESS	n/a	DRESS	FISH	11	[0, 0, 0]	-999	PAL1	0	R1136N
1405.84	1.0	2299178	START	n/a	n/a	-999	-999	n/a	n/a	n/a	n/a	11	[-999, -999, -999]	-999	PAL1	0	R1136N
1406.84	0.017	2300178	MATH_START	n/a	n/a	-999	-999	n/a	n/a	n/a	n/a	11	[0, 0, 0]	-999	PAL1	0	R1136N
1406.857	5.351	2300195	PROB	5.331	n/a	-999	-999	n/a	n/a	n/a	n/a	11	[9, 8, 1]	18	PAL1	0	R1136N
1412.208	5.751	2305546	PROB	5.716	n/a	-999	-999	n/a	n/a	n/a	n/a	11	[8, 4, 3]	15	PAL1	0	R1136N
1417.959	4.2	2311296	PROB	4.181	n/a	-999	-999	n/a	n/a	n/a	n/a	11	[5, 4, 1]	10	PAL1	0	R1136N
1422.159	5.605	2315496	PROB	5.605	n/a	-999	-999	n/a	n/a	n/a	n/a	11	[5, 8, 3]	16	PAL1	0	R1136N
1427.764	0.013	2321101	STOP	n/a	n/a	-999	-999	n/a	n/a	n/a	n/a	11	[-999, -999, -999]	-999	PAL1	0	R1136N
1427.777	0.0	2321114	TEST_START	n/a	n/a	-999	-999	n/a	n/a	n/a	n/a	11	[0, 0, 0]	-999	PAL1	0	R1136N
1427.777	0.017	2321114	MATH_END	n/a	n/a	-999	-999	n/a	n/a	n/a	n/a	11	[0, 0, 0]	-999	PAL1	0	R1136N
1427.794	0.275	2321131	TEST_ORIENT	n/a	n/a	3	1	YARD	n/a	BUSH	YARD	11	[0, 0, 0]	-999	PAL1	0	R1136N
1428.626	4.0	2321963	TEST_PROBE	n/a	wordpools/wordpool_EN.txt	3	1	YARD	n/a	BUSH	YARD	11	[0, 0, 0]	-999	PAL1	0	R1136N
1428.627	4.852	2321964	REC_START	n/a	n/a	3	-999	n/a	n/a	n/a	n/a	11	[0, 0, 0]	-999	PAL1	0	R1136N
1433.479	0.164	2326816	REC_EVENT	4.852	n/a	3	1	YARD	<>	BUSH	YARD	11	[0, 0, 0]	-999	PAL1	0	R1136N
1433.643	0.017	2326980	REC_END	n/a	n/a	3	-999	n/a	n/a	n/a	n/a	11	[0, 0, 0]	-999	PAL1	0	R1136N
1433.66	0.275	2326997	TEST_ORIENT	n/a	n/a	4	2	FOG	n/a	FOG	WOOD	11	[0, 0, 0]	-999	PAL1	0	R1136N
1434.527	4.0	2327864	TEST_PROBE	n/a	wordpools/wordpool_EN.txt	4	2	FOG	n/a	FOG	WOOD	11	[0, 0, 0]	-999	PAL1	0	R1136N
1434.527	4.852	2327864	REC_START	n/a	n/a	4	-999	n/a	n/a	n/a	n/a	11	[0, 0, 0]	-999	PAL1	0	R1136N
1439.379	0.165	2332715	REC_EVENT	4.852	n/a	4	2	FOG	<>	FOG	WOOD	11	[0, 0, 0]	-999	PAL1	0	R1136N
1439.544	0.017	2332880	REC_END	n/a	n/a	4	-999	n/a	n/a	n/a	n/a	11	[0, 0, 0]	-999	PAL1	0	R1136N
1439.561	0.275	2332897	TEST_ORIENT	n/a	n/a	5	3	BEE	n/a	SHOE	BEE	11	[0, 0, 0]	-999	PAL1	0	R1136N
1440.528	4.0	2333864	TEST_PROBE	n/a	wordpools/wordpool_EN.txt	5	3	BEE	n/a	SHOE	BEE	11	[0, 0, 0]	-999	PAL1	0	R1136N
1440.529	4.829	2333865	REC_START	n/a	n/a	5	-999	n/a	n/a	n/a	n/a	11	[0, 0, 0]	-999	PAL1	0	R1136N
1445.358	0.187	2338694	REC_EVENT	4.829	n/a	5	3	BEE	<>	SHOE	BEE	11	[0, 0, 0]	-999	PAL1	0	R1136N
1445.545	0.017	2338881	REC_END	n/a	n/a	5	-999	n/a	n/a	n/a	n/a	11	[0, 0, 0]	-999	PAL1	0	R1136N
1445.562	0.275	2338898	TEST_ORIENT	n/a	n/a	6	4	DRESS	n/a	DRESS	FISH	11	[0, 0, 0]	-999	PAL1	0	R1136N
1446.446	0.0	2339782	REC_START	n/a	n/a	6	-999	n/a	n/a	n/a	n/a	11	[0, 0, 0]	-999	PAL1	0	R1136N
1446.446	4.0	2339782	TEST_PROBE	n/a	wordpools/wordpool_EN.txt	6	4	DRESS	n/a	DRESS	FISH	11	[0, 0, 0]	-999	PAL1	0	R1136N
1451.345	0.118	2344681	REC_EVENT	4.899	n/a	6	4	DRESS	<>	DRESS	FISH	11	[0, 0, 0]	-999	PAL1	0	R1136N
1451.463	0.017	2344799	REC_END	n/a	n/a	6	-999	n/a	n/a	n/a	n/a	11	[0, 0, 0]	-999	PAL1	0	R1136N
1451.48	0.275	2344816	TEST_ORIENT	n/a	n/a	1	5	POOL	ANT	POOL	ANT	11	[0, 0, 0]	-999	PAL1	0	R1136N
1452.347	4.0	2345683	TEST_PROBE	n/a	wordpools/wordpool_EN.txt	1	5	POOL	ANT	POOL	ANT	11	[0, 0, 0]	-999	PAL1	0	R1136N
1452.347	1.356	2345683	REC_START	n/a	n/a	1	-999	n/a	ANT	n/a	n/a	11	[0, 0, 0]	-999	PAL1	0	R1136N
1453.703	3.661	2347039	REC_EVENT	1.356	n/a	1	5	POOL	ANT	POOL	ANT	11	[0, 0, 0]	-999	PAL1	0	R1136N
1457.364	0.017	2350700	REC_END	n/a	n/a	1	-999	n/a	n/a	n/a	n/a	11	[0, 0, 0]	-999	PAL1	0	R1136N
1457.381	0.275	2350717	TEST_ORIENT	n/a	n/a	2	6	BEAN	n/a	PIT	BEAN	11	[0, 0, 0]	-999	PAL1	0	R1136N
1458.215	4.0	2351550	TEST_PROBE	n/a	wordpools/wordpool_EN.txt	2	6	BEAN	n/a	PIT	BEAN	11	[0, 0, 0]	-999	PAL1	0	R1136N
1458.216	4.806	2351551	REC_START	n/a	n/a	2	-999	n/a	n/a	n/a	n/a	11	[0, 0, 0]	-999	PAL1	0	R1136N
1463.022	0.201	2356357	REC_EVENT	4.806	n/a	2	6	BEAN	<>	PIT	BEAN	11	[0, 0, 0]	-999	PAL1	0	R1136N
1463.223	0.027	2356558	REC_END	n/a	n/a	2	-999	n/a	n/a	n/a	n/a	11	[0, 0, 0]	-999	PAL1	0	R1136N
1463.25	11.467	2356585	FEEDBACK_SHOW_ALL_PAIRS	n/a	n/a	2	-999	n/a	n/a	n/a	n/a	11	[0, 0, 0]	-999	PAL1	0	R1136N
1474.717	10.453	2368052	ENCODING_START	n/a	n/a	0	-999	n/a	n/a	n/a	n/a	12	[0, 0, 0]	-999	PAL1	0	R1136N
1485.17	0.275	2378504	STUDY_ORIENT	n/a	n/a	1	3	BOAT	n/a	ROCK	BOAT	12	[0, 0, 0]	-999	PAL1	0	R1136N
1486.087	4.0	2379421	STUDY_PAIR	n/a	wordpools/wordpool_EN.txt	1	3	BOAT	n/a	ROCK	BOAT	12	[0, 0, 0]	-999	PAL1	0	R1136N
1491.121	0.275	2384455	STUDY_ORIENT	n/a	n/a	2	6	GOLD	n/a	PIPE	GOLD	12	[0, 0, 0]	-999	PAL1	0	R1136N
1492.038	4.0	2385372	STUDY_PAIR	n/a	wordpools/wordpool_EN.txt	2	6	GOLD	n/a	PIPE	GOLD	12	[0, 0, 0]	-999	PAL1	0	R1136N
1497.072	0.275	2390406	STUDY_ORIENT	n/a	n/a	3	5	SHIP	n/a	SHIP	WOLF	12	[0, 0, 0]	-999	PAL1	0	R1136N
1498.072	4.0	2391405	STUDY_PAIR	n/a	wordpools/wordpool_EN.txt	3	5	SHIP	n/a	SHIP	WOLF	12	[0, 0, 0]	-999	PAL1	0	R1136N
1503.09	0.275	2396423	STUDY_ORIENT	n/a	n/a	4	2	HORSE	n/a	HORSE	CLOWN	12	[0, 0, 0]	-999	PAL1	0	R1136N
1503.907	4.0	2397240	STUDY_PAIR	n/a	wordpools/wordpool_EN.txt	4	2	HORSE	n/a	HORSE	CLOWN	12	[0, 0, 0]	-999	PAL1	0	R1136N
1508.941	0.275	2402274	STUDY_ORIENT	n/a	n/a	5	1	CAKE	n/a	PIN	CAKE	12	[0, 0, 0]	-999	PAL1	0	R1136N
1509.908	4.0	2403241	STUDY_PAIR	n/a	wordpools/wordpool_EN.txt	5	1	CAKE	n/a	PIN	CAKE	12	[0, 0, 0]	-999	PAL1	0	R1136N
1514.942	0.275	2408275	STUDY_ORIENT	n/a	n/a	6	4	CANE	n/a	SAIL	CANE	12	[0, 0, 0]	-999	PAL1	0	R1136N
1515.925	4.0	2409258	STUDY_PAIR	n/a	wordpools/wordpool_EN.txt	6	4	CANE	n/a	SAIL	CANE	12	[0, 0, 0]	-999	PAL1	0	R1136N
1519.926	1.0	2413258	START	n/a	n/a	-999	-999	n/a	n/a	n/a	n/a	12	[-999, -999, -999]	-999	PAL1	0	R1136N
1520.926	0.017	2414258	MATH_START	n/a	n/a	-999	-999	n/a	n/a	n/a	n/a	12	[0, 0, 0]	-999	PAL1	0	R1136N
1520.943	5.35	2414275	PROB	5.318	n/a	-999	-999	n/a	n/a	n/a	n/a	12	[2, 2, 4]	8	PAL1	0	R1136N
1526.293	5.134	2419625	PROB	5.11	n/a	-999	-999	n/a	n/a	n/a	n/a	12	[6, 7, 5]	18	PAL1	0	R1136N
1531.427	8.118	2424759	PROB	8.088	n/a	-999	-999	n/a	n/a	n/a	n/a	12	[9, 9, 7]	23	PAL1	0	R1136N
1539.545	4.323	2432876	PROB	4.323	n/a	-999	-999	n/a	n/a	n/a	n/a	12	[8, 4, 5]	17	PAL1	0	R1136N
1543.868	0.012	2437199	STOP	n/a	n/a	-999	-999	n/a	n/a	n/a	n/a	12	[-999, -999, -999]	-999	PAL1	0	R1136N
1543.88	0.0	2437211	TEST_START	n/a	n/a	-999	-999	n/a	n/a	n/a	n/a	12	[0, 0, 0]	-999	PAL1	0	R1136N
1543.88	0.017	2437211	MATH_END	n/a	n/a	-999	-999	n/a	n/a	n/a	n/a	12	[0, 0, 0]	-999	PAL1	0	R1136N
1543.897	0.275	2437228	TEST_ORIENT	n/a	n/a	5	1	CAKE	n/a	PIN	CAKE	12	[0, 0, 0]	-999	PAL1	0	R1136N
1544.913	4.0	2438244	TEST_PROBE	n/a	wordpools/wordpool_EN.txt	5	1	CAKE	n/a	PIN	CAKE	12	[0, 0, 0]	-999	PAL1	0	R1136N
1544.914	4.933	2438245	REC_START	n/a	n/a	5	-999	n/a	n/a	n/a	n/a	12	[0, 0, 0]	-999	PAL1	0	R1136N
1549.847	0.075	2443178	REC_EVENT	4.933	n/a	5	1	CAKE	<>	PIN	CAKE	12	[0, 0, 0]	-999	PAL1	0	R1136N
1549.922	0.009	2443253	REC_END	n/a	n/a	5	-999	n/a	n/a	n/a	n/a	12	[0, 0, 0]	-999	PAL1	0	R1136N
1549.931	0.275	2443262	TEST_ORIENT	n/a	n/a	4	2	HORSE	n/a	HORSE	CLOWN	12	[0, 0, 0]	-999	PAL1	0	R1136N
1550.798	4.0	2444129	TEST_PROBE	n/a	wordpools/wordpool_EN.txt	4	2	HORSE	n/a	HORSE	CLOWN	12	[0, 0, 0]	-999	PAL1	0	R1136N
1550.798	4.969	2444129	REC_START	n/a	n/a	4	-999	n/a	n/a	n/a	n/a	12	[0, 0, 0]	-999	PAL1	0	R1136N
1555.767	0.048	2449098	REC_EVENT	4.969	n/a	4	2	HORSE	<>	HORSE	CLOWN	12	[0, 0, 0]	-999	PAL1	0	R1136N
1555.815	0.017	2449146	REC_END	n/a	n/a	4	-999	n/a	n/a	n/a	n/a	12	[0, 0, 0]	-999	PAL1	0	R1136N
1555.832	0.275	2449163	TEST_ORIENT	n/a	n/a	1	3	BOAT	n/a	ROCK	BOAT	12	[0, 0, 0]	-999	PAL1	0	R1136N
1556.849	4.0	2450180	TEST_PROBE	n/a	wordpools/wordpool_EN.txt	1	3	BOAT	n/a	ROCK	BOAT	12	[0, 0, 0]	-999	PAL1	0	R1136N
1556.849	4.945	2450180	REC_START	n/a	n/a	1	-999	n/a	n/a	n/a	n/a	12	[0, 0, 0]	-999	PAL1	0	R1136N
1561.794	0.072	2455124	REC_EVENT	4.945	n/a	1	3	BOAT	<>	ROCK	BOAT	12	[0, 0, 0]	-999	PAL1	0	R1136N
1561.866	0.017	2455196	REC_END	n/a	n/a	1	-999	n/a	n/a	n/a	n/a	12	[0, 0, 0]	-999	PAL1	0	R1136N
1561.883	0.275	2455213	TEST_ORIENT	n/a	n/a	6	4	CANE	n/a	SAIL	CANE	12	[0, 0, 0]	-999	PAL1	0	R1136N
1562.816	4.0	2456146	TEST_PROBE	n/a	wordpools/wordpool_EN.txt	6	4	CANE	n/a	SAIL	CANE	12	[0, 0, 0]	-999	PAL1	0	R1136N
1562.817	4.876	2456147	REC_START	n/a	n/a	6	-999	n/a	n/a	n/a	n/a	12	[0, 0, 0]	-999	PAL1	0	R1136N
1567.693	0.132	2461023	REC_EVENT	4.876	n/a	6	4	CANE	<>	SAIL	CANE	12	[0, 0, 0]	-999	PAL1	0	R1136N
1567.825	0.009	2461155	REC_END	n/a	n/a	6	-999	n/a	n/a	n/a	n/a	12	[0, 0, 0]	-999	PAL1	0	R1136N
1567.834	0.275	2461164	TEST_ORIENT	n/a	n/a	3	5	SHIP	n/a	SHIP	WOLF	12	[0, 0, 0]	-999	PAL1	0	R1136N
1568.65	4.0	2461980	TEST_PROBE	n/a	wordpools/wordpool_EN.txt	3	5	SHIP	n/a	SHIP	WOLF	12	[0, 0, 0]	-999	PAL1	0	R1136N
1568.65	4.899	2461980	REC_START	n/a	n/a	3	-999	n/a	n/a	n/a	n/a	12	[0, 0, 0]	-999	PAL1	0	R1136N
1573.549	0.118	2466879	REC_EVENT	4.899	n/a	3	5	SHIP	<>	SHIP	WOLF	12	[0, 0, 0]	-999	PAL1	0	R1136N
1573.667	0.018	2466997	REC_END	n/a	n/a	3	-999	n/a	n/a	n/a	n/a	12	[0, 0, 0]	-999	PAL1	0	R1136N
1573.685	0.275	2467015	TEST_ORIENT	n/a	n/a	2	6	GOLD	n/a	PIPE	GOLD	12	[0, 0, 0]	-999	PAL1	0	R1136N
1574.484	4.0	2467814	TEST_PROBE	n/a	wordpools/wordpool_EN.txt	2	6	GOLD	n/a	PIPE	GOLD	12	[0, 0, 0]	-999	PAL1	0	R1136N
1574.485	4.806	2467815	REC_START	n/a	n/a	2	-999	n/a	n/a	n/a	n/a	12	[0, 0, 0]	-999	PAL1	0	R1136N
1579.291	0.21	2472620	REC_EVENT	4.806	n/a	2	6	GOLD	<>	PIPE	GOLD	12	[0, 0, 0]	-999	PAL1	0	R1136N
1579.501	0.034	2472830	REC_END	n/a	n/a	2	-999	n/a	n/a	n/a	n/a	12	[0, 0, 0]	-999	PAL1	0	R1136N
1579.535	11.55	2472864	FEEDBACK_SHOW_ALL_PAIRS	n/a	n/a	2	-999	n/a	n/a	n/a	n/a	12	[0, 0, 0]	-999	PAL1	0	R1136N
1591.085	10.437	2484414	ENCODING_START	n/a	n/a	0	-999	n/a	n/a	n/a	n/a	13	[0, 0, 0]	-999	PAL1	0	R1136N
1601.522	0.275	2494850	STUDY_ORIENT	n/a	n/a	1	3	BLOOM	n/a	BLOOM	CLOCK	13	[0, 0, 0]	-999	PAL1	0	R1136N
1602.456	4.0	2495784	STUDY_PAIR	n/a	wordpools/wordpool_EN.txt	1	3	BLOOM	n/a	BLOOM	CLOCK	13	[0, 0, 0]	-999	PAL1	0	R1136N
1607.49	0.275	2500818	STUDY_ORIENT	n/a	n/a	2	6	HOOF	n/a	HOOF	EGG	13	[0, 0, 0]	-999	PAL1	0	R1136N
1608.423	4.0	2501751	STUDY_PAIR	n/a	wordpools/wordpool_EN.txt	2	6	HOOF	n/a	HOOF	EGG	13	[0, 0, 0]	-999	PAL1	0	R1136N
1613.441	0.275	2506769	STUDY_ORIENT	n/a	n/a	3	5	HORN	n/a	COW	HORN	13	[0, 0, 0]	-999	PAL1	0	R1136N
1614.408	4.0	2507736	STUDY_PAIR	n/a	wordpools/wordpool_EN.txt	3	5	HORN	n/a	COW	HORN	13	[0, 0, 0]	-999	PAL1	0	R1136N
1619.442	0.275	2512769	STUDY_ORIENT	n/a	n/a	4	4	CLAY	n/a	CLAY	BROOM	13	[0, 0, 0]	-999	PAL1	0	R1136N
1620.243	4.0	2513570	STUDY_PAIR	n/a	wordpools/wordpool_EN.txt	4	4	CLAY	n/a	CLAY	BROOM	13	[0, 0, 0]	-999	PAL1	0	R1136N
1625.276	0.275	2518603	STUDY_ORIENT	n/a	n/a	5	1	KITE	n/a	KITE	STONE	13	[0, 0, 0]	-999	PAL1	0	R1136N
1626.177	4.0	2519504	STUDY_PAIR	n/a	wordpools/wordpool_EN.txt	5	1	KITE	n/a	KITE	STONE	13	[0, 0, 0]	-999	PAL1	0	R1136N
1631.195	0.275	2524522	STUDY_ORIENT	n/a	n/a	6	2	THREAD	n/a	PRINCE	THREAD	13	[0, 0, 0]	-999	PAL1	0	R1136N
1632.145	4.0	2525472	STUDY_PAIR	n/a	wordpools/wordpool_EN.txt	6	2	THREAD	n/a	PRINCE	THREAD	13	[0, 0, 0]	-999	PAL1	0	R1136N
1636.163	0.999	2529490	START	n/a	n/a	-999	-999	n/a	n/a	n/a	n/a	13	[-999, -999, -999]	-999	PAL1	0	R1136N
1637.162	0.017	2530489	MATH_START	n/a	n/a	-999	-999	n/a	n/a	n/a	n/a	13	[0, 0, 0]	-999	PAL1	0	R1136N
1637.179	4.701	2530506	PROB	4.681	n/a	-999	-999	n/a	n/a	n/a	n/a	13	[8, 8, 3]	19	PAL1	0	R1136N
1641.88	3.583	2535206	PROB	3.555	n/a	-999	-999	n/a	n/a	n/a	n/a	13	[2, 3, 9]	14	PAL1	0	R1136N
1645.463	4.967	2538789	PROB	4.948	n/a	-999	-999	n/a	n/a	n/a	n/a	13	[3, 5, 4]	17	PAL1	0	R1136N
1650.43	3.485	2543756	PROB	3.454	n/a	-999	-999	n/a	n/a	n/a	n/a	13	[7, 5, 9]	21	PAL1	0	R1136N
1653.915	3.889	2547241	PROB	3.889	n/a	-999	-999	n/a	n/a	n/a	n/a	13	[2, 7, 3]	12	PAL1	0	R1136N
1657.804	0.012	2551130	STOP	n/a	n/a	-999	-999	n/a	n/a	n/a	n/a	13	[-999, -999, -999]	-999	PAL1	0	R1136N
1657.816	0.0	2551142	MATH_END	n/a	n/a	-999	-999	n/a	n/a	n/a	n/a	13	[0, 0, 0]	-999	PAL1	0	R1136N
1657.816	0.016	2551142	TEST_START	n/a	n/a	-999	-999	n/a	n/a	n/a	n/a	13	[0, 0, 0]	-999	PAL1	0	R1136N
1657.832	0.275	2551157	TEST_ORIENT	n/a	n/a	5	1	KITE	n/a	KITE	STONE	13	[0, 0, 0]	-999	PAL1	0	R1136N
1658.849	4.0	2552174	TEST_PROBE	n/a	wordpools/wordpool_EN.txt	5	1	KITE	n/a	KITE	STONE	13	[0, 0, 0]	-999	PAL1	0	R1136N
1658.85	4.922	2552175	REC_START	n/a	n/a	5	-999	n/a	n/a	n/a	n/a	13	[0, 0, 0]	-999	PAL1	0	R1136N
1663.772	0.086	2557097	REC_EVENT	4.922	n/a	5	1	KITE	<>	KITE	STONE	13	[0, 0, 0]	-999	PAL1	0	R1136N
1663.858	0.009	2557183	REC_END	n/a	n/a	5	-999	n/a	n/a	n/a	n/a	13	[0, 0, 0]	-999	PAL1	0	R1136N
1663.867	0.275	2557192	TEST_ORIENT	n/a	n/a	6	2	THREAD	n/a	PRINCE	THREAD	13	[0, 0, 0]	-999	PAL1	0	R1136N
1664.884	0.0	2558209	REC_START	n/a	n/a	6	-999	n/a	n/a	n/a	n/a	13	[0, 0, 0]	-999	PAL1	0	R1136N
1664.884	4.0	2558209	TEST_PROBE	n/a	wordpools/wordpool_EN.txt	6	2	THREAD	n/a	PRINCE	THREAD	13	[0, 0, 0]	-999	PAL1	0	R1136N
1669.62	0.281	2562945	REC_EVENT	4.736	n/a	6	2	THREAD	<>	PRINCE	THREAD	13	[0, 0, 0]	-999	PAL1	0	R1136N
1669.901	0.017	2563226	REC_END	n/a	n/a	6	-999	n/a	n/a	n/a	n/a	13	[0, 0, 0]	-999	PAL1	0	R1136N
1669.918	0.275	2563243	TEST_ORIENT	n/a	n/a	1	3	BLOOM	n/a	BLOOM	CLOCK	13	[0, 0, 0]	-999	PAL1	0	R1136N
1670.718	4.0	2564043	TEST_PROBE	n/a	wordpools/wordpool_EN.txt	1	3	BLOOM	n/a	BLOOM	CLOCK	13	[0, 0, 0]	-999	PAL1	0	R1136N
1670.719	4.852	2564044	REC_START	n/a	n/a	1	-999	n/a	n/a	n/a	n/a	13	[0, 0, 0]	-999	PAL1	0	R1136N
1675.571	0.164	2568896	REC_EVENT	4.852	n/a	1	3	BLOOM	<>	BLOOM	CLOCK	13	[0, 0, 0]	-999	PAL1	0	R1136N
1675.735	0.017	2569060	REC_END	n/a	n/a	1	-999	n/a	n/a	n/a	n/a	13	[0, 0, 0]	-999	PAL1	0	R1136N
1675.752	0.275	2569077	TEST_ORIENT	n/a	n/a	4	4	CLAY	n/a	CLAY	BROOM	13	[0, 0, 0]	-999	PAL1	0	R1136N
1676.702	0.0	2570027	REC_START	n/a	n/a	4	-999	n/a	n/a	n/a	n/a	13	[0, 0, 0]	-999	PAL1	0	R1136N
1676.702	4.0	2570027	TEST_PROBE	n/a	wordpools/wordpool_EN.txt	4	4	CLAY	n/a	CLAY	BROOM	13	[0, 0, 0]	-999	PAL1	0	R1136N
1681.578	0.142	2574902	REC_EVENT	4.876	n/a	4	4	CLAY	<>	CLAY	BROOM	13	[0, 0, 0]	-999	PAL1	0	R1136N
1681.72	0.017	2575044	REC_END	n/a	n/a	4	-999	n/a	n/a	n/a	n/a	13	[0, 0, 0]	-999	PAL1	0	R1136N
1681.737	0.275	2575061	TEST_ORIENT	n/a	n/a	3	5	HORN	n/a	COW	HORN	13	[0, 0, 0]	-999	PAL1	0	R1136N
1682.72	4.0	2576044	TEST_PROBE	n/a	wordpools/wordpool_EN.txt	3	5	HORN	n/a	COW	HORN	13	[0, 0, 0]	-999	PAL1	0	R1136N
1682.72	4.922	2576044	REC_START	n/a	n/a	3	-999	n/a	n/a	n/a	n/a	13	[0, 0, 0]	-999	PAL1	0	R1136N
1687.642	0.095	2580966	REC_EVENT	4.922	n/a	3	5	HORN	<>	COW	HORN	13	[0, 0, 0]	-999	PAL1	0	R1136N
1687.737	0.017	2581061	REC_END	n/a	n/a	3	-999	n/a	n/a	n/a	n/a	13	[0, 0, 0]	-999	PAL1	0	R1136N
1687.754	0.275	2581078	TEST_ORIENT	n/a	n/a	2	6	HOOF	n/a	HOOF	EGG	13	[0, 0, 0]	-999	PAL1	0	R1136N
1688.721	4.0	2582045	TEST_PROBE	n/a	wordpools/wordpool_EN.txt	2	6	HOOF	n/a	HOOF	EGG	13	[0, 0, 0]	-999	PAL1	0	R1136N
1688.722	4.922	2582046	REC_START	n/a	n/a	2	-999	n/a	n/a	n/a	n/a	13	[0, 0, 0]	-999	PAL1	0	R1136N
1693.644	0.094	2586968	REC_EVENT	4.922	n/a	2	6	HOOF	<>	HOOF	EGG	13	[0, 0, 0]	-999	PAL1	0	R1136N
1693.738	0.034	2587062	REC_END	n/a	n/a	2	-999	n/a	n/a	n/a	n/a	13	[0, 0, 0]	-999	PAL1	0	R1136N
1693.772	12.832	2587096	FEEDBACK_SHOW_ALL_PAIRS	n/a	n/a	2	-999	n/a	n/a	n/a	n/a	13	[0, 0, 0]	-999	PAL1	0	R1136N
1706.604	10.439	2599927	ENCODING_START	n/a	n/a	0	-999	n/a	n/a	n/a	n/a	14	[0, 0, 0]	-999	PAL1	0	R1136N
1717.043	0.275	2610366	STUDY_ORIENT	n/a	n/a	1	3	STAIR	n/a	FUDGE	STAIR	14	[0, 0, 0]	-999	PAL1	0	R1136N
1717.842	4.0	2611165	STUDY_PAIR	n/a	wordpools/wordpool_EN.txt	1	3	STAIR	n/a	FUDGE	STAIR	14	[0, 0, 0]	-999	PAL1	0	R1136N
1722.86	0.275	2616182	STUDY_ORIENT	n/a	n/a	2	4	TENT	n/a	TENT	SALT	14	[0, 0, 0]	-999	PAL1	0	R1136N
1723.86	4.0	2617182	STUDY_PAIR	n/a	wordpools/wordpool_EN.txt	2	4	TENT	n/a	TENT	SALT	14	[0, 0, 0]	-999	PAL1	0	R1136N
1728.878	0.275	2622200	STUDY_ORIENT	n/a	n/a	3	5	FAN	n/a	FAN	MOTH	14	[0, 0, 0]	-999	PAL1	0	R1136N
1729.895	4.0	2623217	STUDY_PAIR	n/a	wordpools/wordpool_EN.txt	3	5	FAN	n/a	FAN	MOTH	14	[0, 0, 0]	-999	PAL1	0	R1136N
1734.929	0.275	2628251	STUDY_ORIENT	n/a	n/a	4	2	WHEEL	n/a	WHALE	WHEEL	14	[0, 0, 0]	-999	PAL1	0	R1136N
1735.929	4.0	2629251	STUDY_PAIR	n/a	wordpools/wordpool_EN.txt	4	2	WHEEL	n/a	WHALE	WHEEL	14	[0, 0, 0]	-999	PAL1	0	R1136N
1740.963	0.275	2634284	STUDY_ORIENT	n/a	n/a	5	1	POLE	n/a	STOOL	POLE	14	[0, 0, 0]	-999	PAL1	0	R1136N
1741.963	4.0	2635284	STUDY_PAIR	n/a	wordpools/wordpool_EN.txt	5	1	POLE	n/a	STOOL	POLE	14	[0, 0, 0]	-999	PAL1	0	R1136N
1746.981	0.275	2640302	STUDY_ORIENT	n/a	n/a	6	6	CHEEK	HAT	CHEEK	HAT	14	[0, 0, 0]	-999	PAL1	0	R1136N
1747.865	4.0	2641186	STUDY_PAIR	n/a	wordpools/wordpool_EN.txt	6	6	CHEEK	HAT	CHEEK	HAT	14	[0, 0, 0]	-999	PAL1	0	R1136N
1751.882	1.0	2645203	START	n/a	n/a	-999	-999	n/a	n/a	n/a	n/a	14	[-999, -999, -999]	-999	PAL1	0	R1136N
1752.882	0.017	2646203	MATH_START	n/a	n/a	-999	-999	n/a	n/a	n/a	n/a	14	[0, 0, 0]	-999	PAL1	0	R1136N
1752.899	4.15	2646220	PROB	4.121	n/a	-999	-999	n/a	n/a	n/a	n/a	14	[4, 4, 1]	9	PAL1	0	R1136N
1757.049	3.383	2650370	PROB	3.362	n/a	-999	-999	n/a	n/a	n/a	n/a	14	[9, 1, 8]	18	PAL1	0	R1136N
1760.432	5.552	2653752	PROB	5.524	n/a	-999	-999	n/a	n/a	n/a	n/a	14	[7, 3, 9]	19	PAL1	0	R1136N
1765.984	4.818	2659304	PROB	4.797	n/a	-999	-999	n/a	n/a	n/a	n/a	14	[3, 5, 9]	17	PAL1	0	R1136N
1770.802	3.314	2664122	PROB	3.314	n/a	-999	-999	n/a	n/a	n/a	n/a	14	[5, 5, 4]	14	PAL1	0	R1136N
1774.116	0.003	2667436	STOP	n/a	n/a	-999	-999	n/a	n/a	n/a	n/a	14	[-999, -999, -999]	-999	PAL1	0	R1136N
1774.119	0.0	2667439	MATH_END	n/a	n/a	-999	-999	n/a	n/a	n/a	n/a	14	[0, 0, 0]	-999	PAL1	0	R1136N
1774.119	0.017	2667439	TEST_START	n/a	n/a	-999	-999	n/a	n/a	n/a	n/a	14	[0, 0, 0]	-999	PAL1	0	R1136N
1774.136	0.275	2667456	TEST_ORIENT	n/a	n/a	5	1	POLE	n/a	STOOL	POLE	14	[0, 0, 0]	-999	PAL1	0	R1136N
1775.069	4.0	2668389	TEST_PROBE	n/a	wordpools/wordpool_EN.txt	5	1	POLE	n/a	STOOL	POLE	14	[0, 0, 0]	-999	PAL1	0	R1136N
1775.07	4.876	2668390	REC_START	n/a	n/a	5	-999	n/a	n/a	n/a	n/a	14	[0, 0, 0]	-999	PAL1	0	R1136N
1779.946	0.14	2673265	REC_EVENT	4.876	n/a	5	1	POLE	<>	STOOL	POLE	14	[0, 0, 0]	-999	PAL1	0	R1136N
1780.086	0.017	2673405	REC_END	n/a	n/a	5	-999	n/a	n/a	n/a	n/a	14	[0, 0, 0]	-999	PAL1	0	R1136N
1780.103	0.275	2673422	TEST_ORIENT	n/a	n/a	4	2	WHEEL	n/a	WHALE	WHEEL	14	[0, 0, 0]	-999	PAL1	0	R1136N
1780.97	4.0	2674289	TEST_PROBE	n/a	wordpools/wordpool_EN.txt	4	2	WHEEL	n/a	WHALE	WHEEL	14	[0, 0, 0]	-999	PAL1	0	R1136N
1780.971	4.992	2674290	REC_START	n/a	n/a	4	-999	n/a	n/a	n/a	n/a	14	[0, 0, 0]	-999	PAL1	0	R1136N
1785.963	0.024	2679282	REC_EVENT	4.992	n/a	4	2	WHEEL	<>	WHALE	WHEEL	14	[0, 0, 0]	-999	PAL1	0	R1136N
1785.987	0.017	2679306	REC_END	n/a	n/a	4	-999	n/a	n/a	n/a	n/a	14	[0, 0, 0]	-999	PAL1	0	R1136N
1786.004	0.275	2679323	TEST_ORIENT	n/a	n/a	1	3	STAIR	n/a	FUDGE	STAIR	14	[0, 0, 0]	-999	PAL1	0	R1136N
1786.904	4.0	2680223	TEST_PROBE	n/a	wordpools/wordpool_EN.txt	1	3	STAIR	n/a	FUDGE	STAIR	14	[0, 0, 0]	-999	PAL1	0	R1136N
1786.905	4.829	2680224	REC_START	n/a	n/a	1	-999	n/a	n/a	n/a	n/a	14	[0, 0, 0]	-999	PAL1	0	R1136N
1791.734	0.179	2685053	REC_EVENT	4.829	n/a	1	3	STAIR	<>	FUDGE	STAIR	14	[0, 0, 0]	-999	PAL1	0	R1136N
1791.913	0.009	2685232	REC_END	n/a	n/a	1	-999	n/a	n/a	n/a	n/a	14	[0, 0, 0]	-999	PAL1	0	R1136N
1791.922	0.275	2685241	TEST_ORIENT	n/a	n/a	2	4	TENT	n/a	TENT	SALT	14	[0, 0, 0]	-999	PAL1	0	R1136N
1792.822	4.0	2686141	TEST_PROBE	n/a	wordpools/wordpool_EN.txt	2	4	TENT	n/a	TENT	SALT	14	[0, 0, 0]	-999	PAL1	0	R1136N
1792.822	4.969	2686141	REC_START	n/a	n/a	2	-999	n/a	n/a	n/a	n/a	14	[0, 0, 0]	-999	PAL1	0	R1136N
1797.791	0.048	2691110	REC_EVENT	4.969	n/a	2	4	TENT	<>	TENT	SALT	14	[0, 0, 0]	-999	PAL1	0	R1136N
1797.839	0.017	2691158	REC_END	n/a	n/a	2	-999	n/a	n/a	n/a	n/a	14	[0, 0, 0]	-999	PAL1	0	R1136N
1797.856	0.275	2691175	TEST_ORIENT	n/a	n/a	3	5	FAN	n/a	FAN	MOTH	14	[0, 0, 0]	-999	PAL1	0	R1136N
1798.79	4.0	2692108	TEST_PROBE	n/a	wordpools/wordpool_EN.txt	3	5	FAN	n/a	FAN	MOTH	14	[0, 0, 0]	-999	PAL1	0	R1136N
1798.79	4.899	2692108	REC_START	n/a	n/a	3	-999	n/a	n/a	n/a	n/a	14	[0, 0, 0]	-999	PAL1	0	R1136N
1803.689	0.118	2697007	REC_EVENT	4.899	n/a	3	5	FAN	<>	FAN	MOTH	14	[0, 0, 0]	-999	PAL1	0	R1136N
1803.807	0.017	2697125	REC_END	n/a	n/a	3	-999	n/a	n/a	n/a	n/a	14	[0, 0, 0]	-999	PAL1	0	R1136N
1803.824	0.275	2697142	TEST_ORIENT	n/a	n/a	6	6	CHEEK	HAT	CHEEK	HAT	14	[0, 0, 0]	-999	PAL1	0	R1136N
1804.64	4.0	2697958	TEST_PROBE	n/a	wordpools/wordpool_EN.txt	6	6	CHEEK	HAT	CHEEK	HAT	14	[0, 0, 0]	-999	PAL1	0	R1136N
1804.64	1.702	2697958	REC_START	n/a	n/a	6	-999	n/a	HAT	n/a	n/a	14	[0, 0, 0]	-999	PAL1	0	R1136N
1806.342	3.315	2699660	REC_EVENT	1.702	n/a	6	6	CHEEK	HAT	CHEEK	HAT	14	[0, 0, 0]	-999	PAL1	0	R1136N
1809.657	0.018	2702975	REC_END	n/a	n/a	6	-999	n/a	n/a	n/a	n/a	14	[0, 0, 0]	-999	PAL1	0	R1136N
1809.675	8.473	2702993	FEEDBACK_SHOW_ALL_PAIRS	n/a	n/a	6	-999	n/a	n/a	n/a	n/a	14	[0, 0, 0]	-999	PAL1	0	R1136N
1818.148	10.446	2711466	ENCODING_START	n/a	n/a	0	-999	n/a	n/a	n/a	n/a	15	[0, 0, 0]	-999	PAL1	0	R1136N
1828.594	0.275	2721911	STUDY_ORIENT	n/a	n/a	1	5	SEAL	n/a	SEAL	WEED	15	[0, 0, 0]	-999	PAL1	0	R1136N
1829.544	4.0	2722861	STUDY_PAIR	n/a	wordpools/wordpool_EN.txt	1	5	SEAL	n/a	SEAL	WEED	15	[0, 0, 0]	-999	PAL1	0	R1136N
1834.578	0.275	2727895	STUDY_ORIENT	n/a	n/a	2	2	AXE	n/a	AXE	ROOF	15	[0, 0, 0]	-999	PAL1	0	R1136N
1835.412	4.0	2728729	STUDY_PAIR	n/a	wordpools/wordpool_EN.txt	2	2	AXE	n/a	AXE	ROOF	15	[0, 0, 0]	-999	PAL1	0	R1136N
1840.446	0.275	2733762	STUDY_ORIENT	n/a	n/a	3	3	FORT	n/a	DOG	FORT	15	[0, 0, 0]	-999	PAL1	0	R1136N
1841.413	4.0	2734729	STUDY_PAIR	n/a	wordpools/wordpool_EN.txt	3	3	FORT	n/a	DOG	FORT	15	[0, 0, 0]	-999	PAL1	0	R1136N
1846.447	0.275	2739763	STUDY_ORIENT	n/a	n/a	4	4	DUCK	n/a	DUCK	PEARL	15	[0, 0, 0]	-999	PAL1	0	R1136N
1847.447	4.0	2740763	STUDY_PAIR	n/a	wordpools/wordpool_EN.txt	4	4	DUCK	n/a	DUCK	PEARL	15	[0, 0, 0]	-999	PAL1	0	R1136N
1852.481	0.275	2745797	STUDY_ORIENT	n/a	n/a	5	1	NEST	n/a	PLANT	NEST	15	[0, 0, 0]	-999	PAL1	0	R1136N
1853.281	4.0	2746597	STUDY_PAIR	n/a	wordpools/wordpool_EN.txt	5	1	NEST	n/a	PLANT	NEST	15	[0, 0, 0]	-999	PAL1	0	R1136N
1858.299	0.275	2751614	STUDY_ORIENT	n/a	n/a	6	6	POND	n/a	POND	HOOK	15	[0, 0, 0]	-999	PAL1	0	R1136N
1859.117	4.0	2752432	STUDY_PAIR	n/a	wordpools/wordpool_EN.txt	6	6	POND	n/a	POND	HOOK	15	[0, 0, 0]	-999	PAL1	0	R1136N
1863.134	1.0	2756449	START	n/a	n/a	-999	-999	n/a	n/a	n/a	n/a	15	[-999, -999, -999]	-999	PAL1	0	R1136N
1864.134	0.017	2757449	MATH_START	n/a	n/a	-999	-999	n/a	n/a	n/a	n/a	15	[0, 0, 0]	-999	PAL1	0	R1136N
1864.151	5.283	2757466	PROB	5.26	n/a	-999	-999	n/a	n/a	n/a	n/a	15	[7, 2, 6]	14	PAL1	0	R1136N
1869.434	6.118	2762749	PROB	6.089	n/a	-999	-999	n/a	n/a	n/a	n/a	15	[3, 4, 2]	9	PAL1	0	R1136N
1875.552	2.685	2768867	PROB	2.66	n/a	-999	-999	n/a	n/a	n/a	n/a	15	[3, 2, 1]	6	PAL1	0	R1136N
1878.237	3.066	2771552	PROB	3.046	n/a	-999	-999	n/a	n/a	n/a	n/a	15	[2, 3, 7]	12	PAL1	0	R1136N
1881.303	7.02	2774617	PROB	7.02	n/a	-999	-999	n/a	n/a	n/a	n/a	15	[5, 3, 6]	14	PAL1	0	R1136N
1888.323	0.014	2781637	STOP	n/a	n/a	-999	-999	n/a	n/a	n/a	n/a	15	[-999, -999, -999]	-999	PAL1	0	R1136N
1888.337	0.0	2781651	MATH_END	n/a	n/a	-999	-999	n/a	n/a	n/a	n/a	15	[0, 0, 0]	-999	PAL1	0	R1136N
1888.337	0.017	2781651	TEST_START	n/a	n/a	-999	-999	n/a	n/a	n/a	n/a	15	[0, 0, 0]	-999	PAL1	0	R1136N
1888.354	0.275	2781668	TEST_ORIENT	n/a	n/a	5	1	NEST	n/a	PLANT	NEST	15	[0, 0, 0]	-999	PAL1	0	R1136N
1889.155	4.0	2782469	TEST_PROBE	n/a	wordpools/wordpool_EN.txt	5	1	NEST	n/a	PLANT	NEST	15	[0, 0, 0]	-999	PAL1	0	R1136N
1889.156	4.899	2782470	REC_START	n/a	n/a	5	-999	n/a	n/a	n/a	n/a	15	[0, 0, 0]	-999	PAL1	0	R1136N
1894.055	0.126	2787369	REC_EVENT	4.899	n/a	5	1	NEST	<>	PLANT	NEST	15	[0, 0, 0]	-999	PAL1	0	R1136N
1894.181	0.008	2787495	REC_END	n/a	n/a	5	-999	n/a	n/a	n/a	n/a	15	[0, 0, 0]	-999	PAL1	0	R1136N
1894.189	0.275	2787503	TEST_ORIENT	n/a	n/a	2	2	AXE	n/a	AXE	ROOF	15	[0, 0, 0]	-999	PAL1	0	R1136N
1895.206	4.0	2788520	TEST_PROBE	n/a	wordpools/wordpool_EN.txt	2	2	AXE	n/a	AXE	ROOF	15	[0, 0, 0]	-999	PAL1	0	R1136N
1895.207	4.783	2788521	REC_START	n/a	n/a	2	-999	n/a	n/a	n/a	n/a	15	[0, 0, 0]	-999	PAL1	0	R1136N
1899.99	0.233	2793303	REC_EVENT	4.783	n/a	2	2	AXE	<>	AXE	ROOF	15	[0, 0, 0]	-999	PAL1	0	R1136N
1900.223	0.017	2793536	REC_END	n/a	n/a	2	-999	n/a	n/a	n/a	n/a	15	[0, 0, 0]	-999	PAL1	0	R1136N
1900.24	0.275	2793553	TEST_ORIENT	n/a	n/a	3	3	FORT	n/a	DOG	FORT	15	[0, 0, 0]	-999	PAL1	0	R1136N
1901.124	4.0	2794437	TEST_PROBE	n/a	wordpools/wordpool_EN.txt	3	3	FORT	n/a	DOG	FORT	15	[0, 0, 0]	-999	PAL1	0	R1136N
1901.124	4.922	2794437	REC_START	n/a	n/a	3	-999	n/a	n/a	n/a	n/a	15	[0, 0, 0]	-999	PAL1	0	R1136N
1906.046	0.095	2799359	REC_EVENT	4.922	n/a	3	3	FORT	<>	DOG	FORT	15	[0, 0, 0]	-999	PAL1	0	R1136N
1906.141	0.017	2799454	REC_END	n/a	n/a	3	-999	n/a	n/a	n/a	n/a	15	[0, 0, 0]	-999	PAL1	0	R1136N
1906.158	0.275	2799471	TEST_ORIENT	n/a	n/a	4	4	DUCK	n/a	DUCK	PEARL	15	[0, 0, 0]	-999	PAL1	0	R1136N
1906.991	4.0	2800304	TEST_PROBE	n/a	wordpools/wordpool_EN.txt	4	4	DUCK	n/a	DUCK	PEARL	15	[0, 0, 0]	-999	PAL1	0	R1136N
1906.992	4.922	2800305	REC_START	n/a	n/a	4	-999	n/a	n/a	n/a	n/a	15	[0, 0, 0]	-999	PAL1	0	R1136N
1911.914	0.086	2805227	REC_EVENT	4.922	n/a	4	4	DUCK	<>	DUCK	PEARL	15	[0, 0, 0]	-999	PAL1	0	R1136N
1912.0	0.009	2805313	REC_END	n/a	n/a	4	-999	n/a	n/a	n/a	n/a	15	[0, 0, 0]	-999	PAL1	0	R1136N
1912.009	0.275	2805322	TEST_ORIENT	n/a	n/a	1	5	SEAL	n/a	SEAL	WEED	15	[0, 0, 0]	-999	PAL1	0	R1136N
1913.042	4.0	2806355	TEST_PROBE	n/a	wordpools/wordpool_EN.txt	1	5	SEAL	n/a	SEAL	WEED	15	[0, 0, 0]	-999	PAL1	0	R1136N
1913.043	4.922	2806356	REC_START	n/a	n/a	1	-999	n/a	n/a	n/a	n/a	15	[0, 0, 0]	-999	PAL1	0	R1136N
1917.965	0.086	2811278	REC_EVENT	4.922	n/a	1	5	SEAL	<>	SEAL	WEED	15	[0, 0, 0]	-999	PAL1	0	R1136N
1918.051	0.009	2811364	REC_END	n/a	n/a	1	-999	n/a	n/a	n/a	n/a	15	[0, 0, 0]	-999	PAL1	0	R1136N
1918.06	0.275	2811373	TEST_ORIENT	n/a	n/a	6	6	POND	n/a	POND	HOOK	15	[0, 0, 0]	-999	PAL1	0	R1136N
1918.893	4.0	2812205	TEST_PROBE	n/a	wordpools/wordpool_EN.txt	6	6	POND	n/a	POND	HOOK	15	[0, 0, 0]	-999	PAL1	0	R1136N
1918.894	4.736	2812206	REC_START	n/a	n/a	6	-999	n/a	n/a	n/a	n/a	15	[0, 0, 0]	-999	PAL1	0	R1136N
1923.63	0.275	2816942	REC_EVENT	4.736	n/a	6	6	POND	<>	POND	HOOK	15	[0, 0, 0]	-999	PAL1	0	R1136N
1923.905	0.023	2817217	REC_END	n/a	n/a	6	-999	n/a	n/a	n/a	n/a	15	[0, 0, 0]	-999	PAL1	0	R1136N
1923.928	11.26	2817240	FEEDBACK_SHOW_ALL_PAIRS	n/a	n/a	6	-999	n/a	n/a	n/a	n/a	15	[0, 0, 0]	-999	PAL1	0	R1136N
1935.188	10.442	2828500	ENCODING_START	n/a	n/a	0	-999	n/a	n/a	n/a	n/a	16	[0, 0, 0]	-999	PAL1	0	R1136N
1945.63	0.275	2838941	STUDY_ORIENT	n/a	n/a	1	1	LAWN	n/a	HOLE	LAWN	16	[0, 0, 0]	-999	PAL1	0	R1136N
1946.58	4.0	2839891	STUDY_PAIR	n/a	wordpools/wordpool_EN.txt	1	1	LAWN	n/a	HOLE	LAWN	16	[0, 0, 0]	-999	PAL1	0	R1136N
1951.615	0.275	2844926	STUDY_ORIENT	n/a	n/a	2	2	SOUP	n/a	MOON	SOUP	16	[0, 0, 0]	-999	PAL1	0	R1136N
1952.415	4.0	2845726	STUDY_PAIR	n/a	wordpools/wordpool_EN.txt	2	2	SOUP	n/a	MOON	SOUP	16	[0, 0, 0]	-999	PAL1	0	R1136N
1957.449	0.275	2850760	STUDY_ORIENT	n/a	n/a	3	5	CROW	n/a	SIGN	CROW	16	[0, 0, 0]	-999	PAL1	0	R1136N
1958.449	4.0	2851760	STUDY_PAIR	n/a	wordpools/wordpool_EN.txt	3	5	CROW	n/a	SIGN	CROW	16	[0, 0, 0]	-999	PAL1	0	R1136N
1963.467	0.275	2856777	STUDY_ORIENT	n/a	n/a	4	4	STORM	TEA	TEA	STORM	16	[0, 0, 0]	-999	PAL1	0	R1136N
1964.367	4.0	2857677	STUDY_PAIR	n/a	wordpools/wordpool_EN.txt	4	4	STORM	TEA	TEA	STORM	16	[0, 0, 0]	-999	PAL1	0	R1136N
1969.401	0.275	2862711	STUDY_ORIENT	n/a	n/a	5	3	FLOOR	n/a	TRAIN	FLOOR	16	[0, 0, 0]	-999	PAL1	0	R1136N
1970.334	4.0	2863644	STUDY_PAIR	n/a	wordpools/wordpool_EN.txt	5	3	FLOOR	n/a	TRAIN	FLOOR	16	[0, 0, 0]	-999	PAL1	0	R1136N
1975.352	0.275	2868662	STUDY_ORIENT	n/a	n/a	6	6	CAGE	n/a	CAGE	FORK	16	[0, 0, 0]	-999	PAL1	0	R1136N
1976.336	4.0	2869646	STUDY_PAIR	n/a	wordpools/wordpool_EN.txt	6	6	CAGE	n/a	CAGE	FORK	16	[0, 0, 0]	-999	PAL1	0	R1136N
1980.353	1.0	2873662	START	n/a	n/a	-999	-999	n/a	n/a	n/a	n/a	16	[-999, -999, -999]	-999	PAL1	0	R1136N
1981.353	0.017	2874662	MATH_START	n/a	n/a	-999	-999	n/a	n/a	n/a	n/a	16	[0, 0, 0]	-999	PAL1	0	R1136N
1981.37	4.552	2874679	PROB	4.53	n/a	-999	-999	n/a	n/a	n/a	n/a	16	[6, 1, 2]	9	PAL1	0	R1136N
1985.922	4.466	2879231	PROB	4.434	n/a	-999	-999	n/a	n/a	n/a	n/a	16	[4, 5, 9]	18	PAL1	0	R1136N
1990.388	4.718	2883697	PROB	4.696	n/a	-999	-999	n/a	n/a	n/a	n/a	16	[5, 9, 6]	20	PAL1	0	R1136N
1995.106	4.651	2888415	PROB	4.626	n/a	-999	-999	n/a	n/a	n/a	n/a	16	[9, 1, 2]	12	PAL1	0	R1136N
1999.757	4.686	2893065	PROB	4.686	n/a	-999	-999	n/a	n/a	n/a	n/a	16	[7, 5, 1]	13	PAL1	0	R1136N
2004.443	0.014	2897751	STOP	n/a	n/a	-999	-999	n/a	n/a	n/a	n/a	16	[-999, -999, -999]	-999	PAL1	0	R1136N
2004.457	0.0	2897765	MATH_END	n/a	n/a	-999	-999	n/a	n/a	n/a	n/a	16	[0, 0, 0]	-999	PAL1	0	R1136N
2004.457	0.017	2897765	TEST_START	n/a	n/a	-999	-999	n/a	n/a	n/a	n/a	16	[0, 0, 0]	-999	PAL1	0	R1136N
2004.474	0.275	2897782	TEST_ORIENT	n/a	n/a	1	1	LAWN	n/a	HOLE	LAWN	16	[0, 0, 0]	-999	PAL1	0	R1136N
2005.324	4.0	2898632	TEST_PROBE	n/a	wordpools/wordpool_EN.txt	1	1	LAWN	n/a	HOLE	LAWN	16	[0, 0, 0]	-999	PAL1	0	R1136N
2005.325	4.922	2898633	REC_START	n/a	n/a	1	-999	n/a	n/a	n/a	n/a	16	[0, 0, 0]	-999	PAL1	0	R1136N
2010.247	0.102	2903555	REC_EVENT	4.922	n/a	1	1	LAWN	<>	HOLE	LAWN	16	[0, 0, 0]	-999	PAL1	0	R1136N
2010.349	0.009	2903657	REC_END	n/a	n/a	1	-999	n/a	n/a	n/a	n/a	16	[0, 0, 0]	-999	PAL1	0	R1136N
2010.358	0.275	2903666	TEST_ORIENT	n/a	n/a	2	2	SOUP	n/a	MOON	SOUP	16	[0, 0, 0]	-999	PAL1	0	R1136N
2011.308	4.0	2904616	TEST_PROBE	n/a	wordpools/wordpool_EN.txt	2	2	SOUP	n/a	MOON	SOUP	16	[0, 0, 0]	-999	PAL1	0	R1136N
2011.309	4.922	2904617	REC_START	n/a	n/a	2	-999	n/a	n/a	n/a	n/a	16	[0, 0, 0]	-999	PAL1	0	R1136N
2016.231	0.103	2909539	REC_EVENT	4.922	n/a	2	2	SOUP	<>	MOON	SOUP	16	[0, 0, 0]	-999	PAL1	0	R1136N
2016.334	0.008	2909642	REC_END	n/a	n/a	2	-999	n/a	n/a	n/a	n/a	16	[0, 0, 0]	-999	PAL1	0	R1136N
2016.342	0.275	2909650	TEST_ORIENT	n/a	n/a	5	3	FLOOR	n/a	TRAIN	FLOOR	16	[0, 0, 0]	-999	PAL1	0	R1136N
2017.21	4.0	2910518	TEST_PROBE	n/a	wordpools/wordpool_EN.txt	5	3	FLOOR	n/a	TRAIN	FLOOR	16	[0, 0, 0]	-999	PAL1	0	R1136N
2017.211	4.922	2910519	REC_START	n/a	n/a	5	-999	n/a	n/a	n/a	n/a	16	[0, 0, 0]	-999	PAL1	0	R1136N
2022.133	0.103	2915440	REC_EVENT	4.922	n/a	5	3	FLOOR	<>	TRAIN	FLOOR	16	[0, 0, 0]	-999	PAL1	0	R1136N
2022.236	0.008	2915543	REC_END	n/a	n/a	5	-999	n/a	n/a	n/a	n/a	16	[0, 0, 0]	-999	PAL1	0	R1136N
2022.244	0.275	2915551	TEST_ORIENT	n/a	n/a	4	4	STORM	TEA	TEA	STORM	16	[0, 0, 0]	-999	PAL1	0	R1136N
2023.161	4.0	2916468	TEST_PROBE	n/a	wordpools/wordpool_EN.txt	4	4	STORM	TEA	TEA	STORM	16	[0, 0, 0]	-999	PAL1	0	R1136N
2023.162	2.146	2916469	REC_START	n/a	n/a	4	-999	n/a	TEA	n/a	n/a	16	[0, 0, 0]	-999	PAL1	0	R1136N
2025.308	2.87	2918615	REC_EVENT	2.146	n/a	4	4	STORM	TEA	TEA	STORM	16	[0, 0, 0]	-999	PAL1	0	R1136N
2028.178	0.017	2921485	REC_END	n/a	n/a	4	-999	n/a	n/a	n/a	n/a	16	[0, 0, 0]	-999	PAL1	0	R1136N
2028.195	0.275	2921502	TEST_ORIENT	n/a	n/a	3	5	CROW	n/a	SIGN	CROW	16	[0, 0, 0]	-999	PAL1	0	R1136N
2029.079	0.0	2922386	REC_START	n/a	n/a	3	-999	n/a	n/a	n/a	n/a	16	[0, 0, 0]	-999	PAL1	0	R1136N
2029.079	4.0	2922386	TEST_PROBE	n/a	wordpools/wordpool_EN.txt	3	5	CROW	n/a	SIGN	CROW	16	[0, 0, 0]	-999	PAL1	0	R1136N
2033.978	0.118	2927285	REC_EVENT	4.899	n/a	3	5	CROW	<>	SIGN	CROW	16	[0, 0, 0]	-999	PAL1	0	R1136N
2034.096	0.017	2927403	REC_END	n/a	n/a	3	-999	n/a	n/a	n/a	n/a	16	[0, 0, 0]	-999	PAL1	0	R1136N
2034.113	0.275	2927420	TEST_ORIENT	n/a	n/a	6	6	CAGE	n/a	CAGE	FORK	16	[0, 0, 0]	-999	PAL1	0	R1136N
2035.046	4.0	2928353	TEST_PROBE	n/a	wordpools/wordpool_EN.txt	6	6	CAGE	n/a	CAGE	FORK	16	[0, 0, 0]	-999	PAL1	0	R1136N
2035.047	4.922	2928354	REC_START	n/a	n/a	6	-999	n/a	n/a	n/a	n/a	16	[0, 0, 0]	-999	PAL1	0	R1136N
2039.969	0.086	2933275	REC_EVENT	4.922	n/a	6	6	CAGE	<>	CAGE	FORK	16	[0, 0, 0]	-999	PAL1	0	R1136N
2040.055	0.026	2933361	REC_END	n/a	n/a	6	-999	n/a	n/a	n/a	n/a	16	[0, 0, 0]	-999	PAL1	0	R1136N
2040.081	11.411	2933387	FEEDBACK_SHOW_ALL_PAIRS	n/a	n/a	6	-999	n/a	n/a	n/a	n/a	16	[0, 0, 0]	-999	PAL1	0	R1136N
2051.492	10.442	2944798	ENCODING_START	n/a	n/a	0	-999	n/a	n/a	n/a	n/a	17	[0, 0, 0]	-999	PAL1	0	R1136N
2061.934	0.275	2955239	STUDY_ORIENT	n/a	n/a	1	5	SEAT	n/a	BRANCH	SEAT	17	[0, 0, 0]	-999	PAL1	0	R1136N
2062.718	4.0	2956023	STUDY_PAIR	n/a	wordpools/wordpool_EN.txt	1	5	SEAT	n/a	BRANCH	SEAT	17	[0, 0, 0]	-999	PAL1	0	R1136N
2067.752	0.275	2961057	STUDY_ORIENT	n/a	n/a	2	2	PET	n/a	SPONGE	PET	17	[0, 0, 0]	-999	PAL1	0	R1136N
2068.618	4.0	2961923	STUDY_PAIR	n/a	wordpools/wordpool_EN.txt	2	2	PET	n/a	SPONGE	PET	17	[0, 0, 0]	-999	PAL1	0	R1136N
2073.652	0.275	2966957	STUDY_ORIENT	n/a	n/a	3	3	ICE	n/a	ICE	HOSE	17	[0, 0, 0]	-999	PAL1	0	R1136N
2074.502	4.0	2967807	STUDY_PAIR	n/a	wordpools/wordpool_EN.txt	3	3	ICE	n/a	ICE	HOSE	17	[0, 0, 0]	-999	PAL1	0	R1136N
2079.536	0.275	2972840	STUDY_ORIENT	n/a	n/a	4	4	DART	n/a	DART	PHONE	17	[0, 0, 0]	-999	PAL1	0	R1136N
2080.453	4.0	2973757	STUDY_PAIR	n/a	wordpools/wordpool_EN.txt	4	4	DART	n/a	DART	PHONE	17	[0, 0, 0]	-999	PAL1	0	R1136N
2085.487	0.275	2978791	STUDY_ORIENT	n/a	n/a	5	1	FACE	n/a	PLATE	FACE	17	[0, 0, 0]	-999	PAL1	0	R1136N
2086.404	4.0	2979708	STUDY_PAIR	n/a	wordpools/wordpool_EN.txt	5	1	FACE	n/a	PLATE	FACE	17	[0, 0, 0]	-999	PAL1	0	R1136N
2091.438	0.275	2984742	STUDY_ORIENT	n/a	n/a	6	6	RAT	BANK	BANK	RAT	17	[0, 0, 0]	-999	PAL1	0	R1136N
2092.289	4.0	2985593	STUDY_PAIR	n/a	wordpools/wordpool_EN.txt	6	6	RAT	BANK	BANK	RAT	17	[0, 0, 0]	-999	PAL1	0	R1136N
2096.306	1.0	2989610	START	n/a	n/a	-999	-999	n/a	n/a	n/a	n/a	17	[-999, -999, -999]	-999	PAL1	0	R1136N
2097.306	0.017	2990610	MATH_START	n/a	n/a	-999	-999	n/a	n/a	n/a	n/a	17	[0, 0, 0]	-999	PAL1	0	R1136N
2097.323	4.967	2990627	PROB	4.937	n/a	-999	-999	n/a	n/a	n/a	n/a	17	[2, 3, 3]	8	PAL1	0	R1136N
2102.29	5.018	2995593	PROB	4.993	n/a	-999	-999	n/a	n/a	n/a	n/a	17	[7, 4, 9]	20	PAL1	0	R1136N
2107.308	4.551	3000611	PROB	4.52	n/a	-999	-999	n/a	n/a	n/a	n/a	17	[2, 8, 8]	18	PAL1	0	R1136N
2111.859	4.068	3005162	PROB	4.041	n/a	-999	-999	n/a	n/a	n/a	n/a	17	[5, 3, 8]	16	PAL1	0	R1136N
2115.927	3.468	3009230	PROB	3.468	n/a	-999	-999	n/a	n/a	n/a	n/a	17	[9, 2, 9]	20	PAL1	0	R1136N
2119.395	0.015	3012697	STOP	n/a	n/a	-999	-999	n/a	n/a	n/a	n/a	17	[-999, -999, -999]	-999	PAL1	0	R1136N
2119.41	0.0	3012712	MATH_END	n/a	n/a	-999	-999	n/a	n/a	n/a	n/a	17	[0, 0, 0]	-999	PAL1	0	R1136N
2119.41	0.017	3012712	TEST_START	n/a	n/a	-999	-999	n/a	n/a	n/a	n/a	17	[0, 0, 0]	-999	PAL1	0	R1136N
2119.427	0.275	3012729	TEST_ORIENT	n/a	n/a	5	1	FACE	n/a	PLATE	FACE	17	[0, 0, 0]	-999	PAL1	0	R1136N
2120.343	4.0	3013645	TEST_PROBE	n/a	wordpools/wordpool_EN.txt	5	1	FACE	n/a	PLATE	FACE	17	[0, 0, 0]	-999	PAL1	0	R1136N
2120.344	4.899	3013646	REC_START	n/a	n/a	5	-999	n/a	n/a	n/a	n/a	17	[0, 0, 0]	-999	PAL1	0	R1136N
2125.243	0.101	3018545	REC_EVENT	4.899	n/a	5	1	FACE	<>	PLATE	FACE	17	[0, 0, 0]	-999	PAL1	0	R1136N
2125.344	0.017	3018646	REC_END	n/a	n/a	5	-999	n/a	n/a	n/a	n/a	17	[0, 0, 0]	-999	PAL1	0	R1136N
2125.361	0.275	3018663	TEST_ORIENT	n/a	n/a	2	2	PET	n/a	SPONGE	PET	17	[0, 0, 0]	-999	PAL1	0	R1136N
2126.212	4.0	3019514	TEST_PROBE	n/a	wordpools/wordpool_EN.txt	2	2	PET	n/a	SPONGE	PET	17	[0, 0, 0]	-999	PAL1	0	R1136N
2126.212	4.969	3019514	REC_START	n/a	n/a	2	-999	n/a	n/a	n/a	n/a	17	[0, 0, 0]	-999	PAL1	0	R1136N
2131.181	0.048	3024483	REC_EVENT	4.969	n/a	2	2	PET	<>	SPONGE	PET	17	[0, 0, 0]	-999	PAL1	0	R1136N
2131.229	0.017	3024531	REC_END	n/a	n/a	2	-999	n/a	n/a	n/a	n/a	17	[0, 0, 0]	-999	PAL1	0	R1136N
2131.246	0.275	3024548	TEST_ORIENT	n/a	n/a	3	3	ICE	n/a	ICE	HOSE	17	[0, 0, 0]	-999	PAL1	0	R1136N
2132.046	4.0	3025348	TEST_PROBE	n/a	wordpools/wordpool_EN.txt	3	3	ICE	n/a	ICE	HOSE	17	[0, 0, 0]	-999	PAL1	0	R1136N
2132.047	4.876	3025349	REC_START	n/a	n/a	3	-999	n/a	n/a	n/a	n/a	17	[0, 0, 0]	-999	PAL1	0	R1136N
2136.923	0.124	3030225	REC_EVENT	4.876	n/a	3	3	ICE	<>	ICE	HOSE	17	[0, 0, 0]	-999	PAL1	0	R1136N
2137.047	0.017	3030349	REC_END	n/a	n/a	3	-999	n/a	n/a	n/a	n/a	17	[0, 0, 0]	-999	PAL1	0	R1136N
2137.064	0.275	3030366	TEST_ORIENT	n/a	n/a	4	4	DART	n/a	DART	PHONE	17	[0, 0, 0]	-999	PAL1	0	R1136N
2138.081	4.0	3031383	TEST_PROBE	n/a	wordpools/wordpool_EN.txt	4	4	DART	n/a	DART	PHONE	17	[0, 0, 0]	-999	PAL1	0	R1136N
2138.081	4.922	3031383	REC_START	n/a	n/a	4	-999	n/a	n/a	n/a	n/a	17	[0, 0, 0]	-999	PAL1	0	R1136N
2143.003	0.095	3036304	REC_EVENT	4.922	n/a	4	4	DART	<>	DART	PHONE	17	[0, 0, 0]	-999	PAL1	0	R1136N
2143.098	0.017	3036399	REC_END	n/a	n/a	4	-999	n/a	n/a	n/a	n/a	17	[0, 0, 0]	-999	PAL1	0	R1136N
2143.115	0.275	3036416	TEST_ORIENT	n/a	n/a	1	5	SEAT	n/a	BRANCH	SEAT	17	[0, 0, 0]	-999	PAL1	0	R1136N
2143.998	4.0	3037299	TEST_PROBE	n/a	wordpools/wordpool_EN.txt	1	5	SEAT	n/a	BRANCH	SEAT	17	[0, 0, 0]	-999	PAL1	0	R1136N
2143.999	4.852	3037300	REC_START	n/a	n/a	1	-999	n/a	n/a	n/a	n/a	17	[0, 0, 0]	-999	PAL1	0	R1136N
2148.851	0.157	3042152	REC_EVENT	4.852	n/a	1	5	SEAT	<>	BRANCH	SEAT	17	[0, 0, 0]	-999	PAL1	0	R1136N
2149.008	0.008	3042309	REC_END	n/a	n/a	1	-999	n/a	n/a	n/a	n/a	17	[0, 0, 0]	-999	PAL1	0	R1136N
2149.016	0.275	3042317	TEST_ORIENT	n/a	n/a	6	6	RAT	BANK	BANK	RAT	17	[0, 0, 0]	-999	PAL1	0	R1136N
2149.883	4.0	3043184	TEST_PROBE	n/a	wordpools/wordpool_EN.txt	6	6	RAT	BANK	BANK	RAT	17	[0, 0, 0]	-999	PAL1	0	R1136N
2149.883	2.78	3043184	REC_START	n/a	n/a	6	-999	n/a	BANK	n/a	n/a	17	[0, 0, 0]	-999	PAL1	0	R1136N
2152.663	2.237	3045964	REC_EVENT	2.78	n/a	6	6	RAT	BANK	BANK	RAT	17	[0, 0, 0]	-999	PAL1	0	R1136N
2154.9	0.033	3048201	REC_END	n/a	n/a	6	-999	n/a	n/a	n/a	n/a	17	[0, 0, 0]	-999	PAL1	0	R1136N
2154.933	9.896	3048234	FEEDBACK_SHOW_ALL_PAIRS	n/a	n/a	6	-999	n/a	n/a	n/a	n/a	17	[0, 0, 0]	-999	PAL1	0	R1136N
2164.829	10.441	3058129	ENCODING_START	n/a	n/a	0	-999	n/a	n/a	n/a	n/a	18	[0, 0, 0]	-999	PAL1	0	R1136N
2175.27	0.275	3068570	STUDY_ORIENT	n/a	n/a	1	3	DOOR	n/a	SEED	DOOR	18	[0, 0, 0]	-999	PAL1	0	R1136N
2176.286	4.0	3069586	STUDY_PAIR	n/a	wordpools/wordpool_EN.txt	1	3	DOOR	n/a	SEED	DOOR	18	[0, 0, 0]	-999	PAL1	0	R1136N
2181.304	0.275	3074603	STUDY_ORIENT	n/a	n/a	2	6	FOOT	n/a	FOOT	PASTE	18	[0, 0, 0]	-999	PAL1	0	R1136N
2182.271	4.0	3075570	STUDY_PAIR	n/a	wordpools/wordpool_EN.txt	2	6	FOOT	n/a	FOOT	PASTE	18	[0, 0, 0]	-999	PAL1	0	R1136N
2187.288	0.275	3080587	STUDY_ORIENT	n/a	n/a	3	1	SWAMP	n/a	SWAMP	BOY	18	[0, 0, 0]	-999	PAL1	0	R1136N
2188.106	4.0	3081405	STUDY_PAIR	n/a	wordpools/wordpool_EN.txt	3	1	SWAMP	n/a	SWAMP	BOY	18	[0, 0, 0]	-999	PAL1	0	R1136N
2193.14	0.275	3086439	STUDY_ORIENT	n/a	n/a	4	4	BAG	n/a	STRING	BAG	18	[0, 0, 0]	-999	PAL1	0	R1136N
2193.94	4.0	3087239	STUDY_PAIR	n/a	wordpools/wordpool_EN.txt	4	4	BAG	n/a	STRING	BAG	18	[0, 0, 0]	-999	PAL1	0	R1136N
2198.974	0.275	3092272	STUDY_ORIENT	n/a	n/a	5	5	PEACH	n/a	PEACH	MULE	18	[0, 0, 0]	-999	PAL1	0	R1136N
2199.974	4.0	3093272	STUDY_PAIR	n/a	wordpools/wordpool_EN.txt	5	5	PEACH	n/a	PEACH	MULE	18	[0, 0, 0]	-999	PAL1	0	R1136N
2204.992	0.275	3098290	STUDY_ORIENT	n/a	n/a	6	2	MOLE	n/a	DIME	MOLE	18	[0, 0, 0]	-999	PAL1	0	R1136N
2205.775	4.0	3099073	STUDY_PAIR	n/a	wordpools/wordpool_EN.txt	6	2	MOLE	n/a	DIME	MOLE	18	[0, 0, 0]	-999	PAL1	0	R1136N
2209.776	1.0	3103074	START	n/a	n/a	-999	-999	n/a	n/a	n/a	n/a	18	[-999, -999, -999]	-999	PAL1	0	R1136N
2210.776	0.017	3104074	MATH_START	n/a	n/a	-999	-999	n/a	n/a	n/a	n/a	18	[0, 0, 0]	-999	PAL1	0	R1136N
2210.793	11.501	3104091	PROB	11.482	n/a	-999	-999	n/a	n/a	n/a	n/a	18	[4, 2, 6]	12	PAL1	0	R1136N
2222.294	4.167	3115591	PROB	4.141	n/a	-999	-999	n/a	n/a	n/a	n/a	18	[2, 1, 7]	10	PAL1	0	R1136N
2226.461	4.535	3119758	PROB	4.535	n/a	-999	-999	n/a	n/a	n/a	n/a	18	[2, 9, 2]	13	PAL1	0	R1136N
2230.996	0.017	3124293	STOP	n/a	n/a	-999	-999	n/a	n/a	n/a	n/a	18	[-999, -999, -999]	-999	PAL1	0	R1136N
2231.013	0.0	3124310	MATH_END	n/a	n/a	-999	-999	n/a	n/a	n/a	n/a	18	[0, 0, 0]	-999	PAL1	0	R1136N
2231.013	0.017	3124310	TEST_START	n/a	n/a	-999	-999	n/a	n/a	n/a	n/a	18	[0, 0, 0]	-999	PAL1	0	R1136N
2231.03	0.275	3124327	TEST_ORIENT	n/a	n/a	3	1	SWAMP	n/a	SWAMP	BOY	18	[0, 0, 0]	-999	PAL1	0	R1136N
2231.846	4.0	3125143	TEST_PROBE	n/a	wordpools/wordpool_EN.txt	3	1	SWAMP	n/a	SWAMP	BOY	18	[0, 0, 0]	-999	PAL1	0	R1136N
2231.847	4.998	3125144	REC_START	n/a	n/a	3	-999	n/a	n/a	n/a	n/a	18	[0, 0, 0]	-999	PAL1	0	R1136N
2236.845	0.009	3130142	REC_EVENT	4.998	n/a	3	1	SWAMP	<>	SWAMP	BOY	18	[0, 0, 0]	-999	PAL1	0	R1136N
2236.854	0.01	3130151	REC_END	n/a	n/a	3	-999	n/a	n/a	n/a	n/a	18	[0, 0, 0]	-999	PAL1	0	R1136N
2236.864	0.275	3130161	TEST_ORIENT	n/a	n/a	6	2	MOLE	n/a	DIME	MOLE	18	[0, 0, 0]	-999	PAL1	0	R1136N
2237.747	4.0	3131044	TEST_PROBE	n/a	wordpools/wordpool_EN.txt	6	2	MOLE	n/a	DIME	MOLE	18	[0, 0, 0]	-999	PAL1	0	R1136N
2237.748	4.954	3131045	REC_START	n/a	n/a	6	-999	n/a	n/a	n/a	n/a	18	[0, 0, 0]	-999	PAL1	0	R1136N
2242.702	0.053	3135998	REC_EVENT	4.954	n/a	6	2	MOLE	<>	DIME	MOLE	18	[0, 0, 0]	-999	PAL1	0	R1136N
2242.755	0.01	3136051	REC_END	n/a	n/a	6	-999	n/a	n/a	n/a	n/a	18	[0, 0, 0]	-999	PAL1	0	R1136N
2242.765	0.275	3136061	TEST_ORIENT	n/a	n/a	1	3	DOOR	n/a	SEED	DOOR	18	[0, 0, 0]	-999	PAL1	0	R1136N
2243.647	4.0	3136943	TEST_PROBE	n/a	wordpools/wordpool_EN.txt	1	3	DOOR	n/a	SEED	DOOR	18	[0, 0, 0]	-999	PAL1	0	R1136N
2243.648	4.899	3136944	REC_START	n/a	n/a	1	-999	n/a	n/a	n/a	n/a	18	[0, 0, 0]	-999	PAL1	0	R1136N
2248.547	0.108	3141843	REC_EVENT	4.899	n/a	1	3	DOOR	<>	SEED	DOOR	18	[0, 0, 0]	-999	PAL1	0	R1136N
2248.655	0.01	3141951	REC_END	n/a	n/a	1	-999	n/a	n/a	n/a	n/a	18	[0, 0, 0]	-999	PAL1	0	R1136N
2248.665	0.275	3141961	TEST_ORIENT	n/a	n/a	4	4	BAG	n/a	STRING	BAG	18	[0, 0, 0]	-999	PAL1	0	R1136N
2249.548	4.0	3142844	TEST_PROBE	n/a	wordpools/wordpool_EN.txt	4	4	BAG	n/a	STRING	BAG	18	[0, 0, 0]	-999	PAL1	0	R1136N
2249.549	4.899	3142845	REC_START	n/a	n/a	4	-999	n/a	n/a	n/a	n/a	18	[0, 0, 0]	-999	PAL1	0	R1136N
2254.448	0.108	3147744	REC_EVENT	4.899	n/a	4	4	BAG	<>	STRING	BAG	18	[0, 0, 0]	-999	PAL1	0	R1136N
2254.556	0.01	3147852	REC_END	n/a	n/a	4	-999	n/a	n/a	n/a	n/a	18	[0, 0, 0]	-999	PAL1	0	R1136N
2254.566	0.275	3147862	TEST_ORIENT	n/a	n/a	5	5	PEACH	n/a	PEACH	MULE	18	[0, 0, 0]	-999	PAL1	0	R1136N
2255.449	4.0	3148745	TEST_PROBE	n/a	wordpools/wordpool_EN.txt	5	5	PEACH	n/a	PEACH	MULE	18	[0, 0, 0]	-999	PAL1	0	R1136N
2255.45	4.953	3148746	REC_START	n/a	n/a	5	-999	n/a	n/a	n/a	n/a	18	[0, 0, 0]	-999	PAL1	0	R1136N
2260.403	0.054	3153698	REC_EVENT	4.953	n/a	5	5	PEACH	<>	PEACH	MULE	18	[0, 0, 0]	-999	PAL1	0	R1136N
2260.457	0.01	3153752	REC_END	n/a	n/a	5	-999	n/a	n/a	n/a	n/a	18	[0, 0, 0]	-999	PAL1	0	R1136N
2260.467	0.275	3153762	TEST_ORIENT	n/a	n/a	2	6	FOOT	n/a	FOOT	PASTE	18	[0, 0, 0]	-999	PAL1	0	R1136N
2261.467	4.0	3154762	TEST_PROBE	n/a	wordpools/wordpool_EN.txt	2	6	FOOT	n/a	FOOT	PASTE	18	[0, 0, 0]	-999	PAL1	0	R1136N
2261.468	4.922	3154763	REC_START	n/a	n/a	2	-999	n/a	n/a	n/a	n/a	18	[0, 0, 0]	-999	PAL1	0	R1136N
2266.39	0.094	3159685	REC_EVENT	4.922	n/a	2	6	FOOT	<>	FOOT	PASTE	18	[0, 0, 0]	-999	PAL1	0	R1136N
2266.484	0.034	3159779	REC_END	n/a	n/a	2	-999	n/a	n/a	n/a	n/a	18	[0, 0, 0]	-999	PAL1	0	R1136N
2266.518	8.399	3159813	FEEDBACK_SHOW_ALL_PAIRS	n/a	n/a	2	-999	n/a	n/a	n/a	n/a	18	[0, 0, 0]	-999	PAL1	0	R1136N
2274.917	10.437	3168212	ENCODING_START	n/a	n/a	0	-999	n/a	n/a	n/a	n/a	19	[0, 0, 0]	-999	PAL1	0	R1136N
2285.354	0.275	3178648	STUDY_ORIENT	n/a	n/a	1	3	SKUNK	n/a	SKUNK	ZOO	19	[0, 0, 0]	-999	PAL1	0	R1136N
2286.371	4.0	3179665	STUDY_PAIR	n/a	wordpools/wordpool_EN.txt	1	3	SKUNK	n/a	SKUNK	ZOO	19	[0, 0, 0]	-999	PAL1	0	R1136N
2291.389	0.275	3184683	STUDY_ORIENT	n/a	n/a	2	6	FOX	n/a	FOX	CART	19	[0, 0, 0]	-999	PAL1	0	R1136N
2292.223	4.0	3185517	STUDY_PAIR	n/a	wordpools/wordpool_EN.txt	2	6	FOX	n/a	FOX	CART	19	[0, 0, 0]	-999	PAL1	0	R1136N
2297.241	0.275	3190535	STUDY_ORIENT	n/a	n/a	3	5	BOOK	n/a	RIB	BOOK	19	[0, 0, 0]	-999	PAL1	0	R1136N
2298.241	4.0	3191535	STUDY_PAIR	n/a	wordpools/wordpool_EN.txt	3	5	BOOK	n/a	RIB	BOOK	19	[0, 0, 0]	-999	PAL1	0	R1136N
2303.274	0.275	3196567	STUDY_ORIENT	n/a	n/a	4	4	ROAD	n/a	CRANE	ROAD	19	[0, 0, 0]	-999	PAL1	0	R1136N
2304.274	4.0	3197567	STUDY_PAIR	n/a	wordpools/wordpool_EN.txt	4	4	ROAD	n/a	CRANE	ROAD	19	[0, 0, 0]	-999	PAL1	0	R1136N
2309.292	0.275	3202585	STUDY_ORIENT	n/a	n/a	5	1	FLAG	n/a	FLAG	SHRIMP	19	[0, 0, 0]	-999	PAL1	0	R1136N
2310.193	4.0	3203486	STUDY_PAIR	n/a	wordpools/wordpool_EN.txt	5	1	FLAG	n/a	FLAG	SHRIMP	19	[0, 0, 0]	-999	PAL1	0	R1136N
2315.227	0.275	3208520	STUDY_ORIENT	n/a	n/a	6	2	SOAP	n/a	SOAP	CUP	19	[0, 0, 0]	-999	PAL1	0	R1136N
2315.994	4.0	3209287	STUDY_PAIR	n/a	wordpools/wordpool_EN.txt	6	2	SOAP	n/a	SOAP	CUP	19	[0, 0, 0]	-999	PAL1	0	R1136N
