onset	duration	sample	trial_type	response_time	stim_file	serialpos	probepos	probe_word	resp_word	study_1	study_2	list	test	answer	experiment	session	subject
0.0	80.847	141582	SESS_START	n/a	n/a	-999	-999	n/a	n/a	n/a	n/a	-999	[0, 0, 0]	-999	PAL1	0	R1130M
80.847	1.016	182003	START	n/a	n/a	-999	-999	n/a	n/a	n/a	n/a	-1	[-999, -999, -999]	-999	PAL1	0	R1130M
81.863	11.803	182511	PROB	11.775	n/a	-999	-999	n/a	n/a	n/a	n/a	-1	[2, 5, 7]	14	PAL1	0	R1130M
93.666	9.596	188412	PROB	9.596	n/a	-999	-999	n/a	n/a	n/a	n/a	-1	[2, 2, 4]	8	PAL1	0	R1130M
103.262	60.407	193210	STOP	n/a	n/a	-999	-999	n/a	n/a	n/a	n/a	-1	[-999, -999, -999]	-999	PAL1	0	R1130M
163.669	10.446	223412	ENCODING_START	n/a	n/a	0	-999	n/a	n/a	n/a	n/a	1	[0, 0, 0]	-999	PAL1	0	R1130M
174.115	0.275	228634	STUDY_ORIENT	n/a	n/a	1	1	BEAK	n/a	MOOSE	BEAK	1	[0, 0, 0]	-999	PAL1	0	R1130M
175.099	4.0	229126	STUDY_PAIR	n/a	wordpools/wordpool_EN.txt	1	1	BEAK	n/a	MOOSE	BEAK	1	[0, 0, 0]	-999	PAL1	0	R1130M
180.133	0.275	231643	STUDY_ORIENT	n/a	n/a	2	6	STOVE	n/a	ROAD	STOVE	1	[0, 0, 0]	-999	PAL1	0	R1130M
181.15	4.0	232152	STUDY_PAIR	n/a	wordpools/wordpool_EN.txt	2	6	STOVE	n/a	ROAD	STOVE	1	[0, 0, 0]	-999	PAL1	0	R1130M
186.184	0.275	234668	STUDY_ORIENT	n/a	n/a	3	5	RAT	n/a	RAT	STOOL	1	[0, 0, 0]	-999	PAL1	0	R1130M
186.951	4.0	235052	STUDY_PAIR	n/a	wordpools/wordpool_EN.txt	3	5	RAT	n/a	RAT	STOOL	1	[0, 0, 0]	-999	PAL1	0	R1130M
191.985	0.275	237569	STUDY_ORIENT	n/a	n/a	4	2	PEAR	n/a	PEAR	ROPE	1	[0, 0, 0]	-999	PAL1	0	R1130M
192.902	4.0	238027	STUDY_PAIR	n/a	wordpools/wordpool_EN.txt	4	2	PEAR	n/a	PEAR	ROPE	1	[0, 0, 0]	-999	PAL1	0	R1130M
197.936	0.275	240544	STUDY_ORIENT	n/a	n/a	5	3	CHEEK	MOUSE	SKUNK	CHEEK	1	[0, 0, 0]	-999	PAL1	0	R1130M
198.887	4.0	241020	STUDY_PAIR	n/a	wordpools/wordpool_EN.txt	5	3	CHEEK	MOUSE	SKUNK	CHEEK	1	[0, 0, 0]	-999	PAL1	0	R1130M
203.921	0.275	243536	STUDY_ORIENT	n/a	n/a	6	4	MAZE	n/a	PARK	MAZE	1	[0, 0, 0]	-999	PAL1	0	R1130M
204.904	4.0	244028	STUDY_PAIR	n/a	wordpools/wordpool_EN.txt	6	4	MAZE	n/a	PARK	MAZE	1	[0, 0, 0]	-999	PAL1	0	R1130M
208.905	1.0	246028	START	n/a	n/a	-999	-999	n/a	n/a	n/a	n/a	1	[-999, -999, -999]	-999	PAL1	0	R1130M
209.905	0.017	246528	MATH_START	n/a	n/a	-999	-999	n/a	n/a	n/a	n/a	1	[0, 0, 0]	-999	PAL1	0	R1130M
209.922	10.37	246537	PROB	10.348	n/a	-999	-999	n/a	n/a	n/a	n/a	1	[7, 5, 4]	16	PAL1	0	R1130M
220.292	9.521	251721	PROB	9.521	n/a	-999	-999	n/a	n/a	n/a	n/a	1	[4, 8, 5]	17	PAL1	0	R1130M
229.813	0.013	256482	STOP	n/a	n/a	-999	-999	n/a	n/a	n/a	n/a	1	[-999, -999, -999]	-999	PAL1	0	R1130M
229.826	0.0	256488	MATH_END	n/a	n/a	-999	-999	n/a	n/a	n/a	n/a	1	[0, 0, 0]	-999	PAL1	0	R1130M
229.826	0.017	256488	TEST_START	n/a	n/a	-999	-999	n/a	n/a	n/a	n/a	1	[0, 0, 0]	-999	PAL1	0	R1130M
229.843	0.275	256497	TEST_ORIENT	n/a	n/a	1	1	BEAK	n/a	MOOSE	BEAK	1	[0, 0, 0]	-999	PAL1	0	R1130M
230.743	4.0	256947	TEST_PROBE	n/a	wordpools/wordpool_EN.txt	1	1	BEAK	n/a	MOOSE	BEAK	1	[0, 0, 0]	-999	PAL1	0	R1130M
230.744	5.025	256947	REC_START	n/a	n/a	1	-999	n/a	n/a	n/a	n/a	1	[0, 0, 0]	-999	PAL1	0	R1130M
235.769	0.002	259460	REC_END	n/a	n/a	1	-999	n/a	n/a	n/a	n/a	1	[0, 0, 0]	-999	PAL1	0	R1130M
235.771	0.006	259461	REC_EVENT	5.027	n/a	1	1	BEAK	<>	MOOSE	BEAK	1	[0, 0, 0]	-999	PAL1	0	R1130M
235.777	0.275	259464	TEST_ORIENT	n/a	n/a	4	2	PEAR	n/a	PEAR	ROPE	1	[0, 0, 0]	-999	PAL1	0	R1130M
236.71	4.0	259930	TEST_PROBE	n/a	wordpools/wordpool_EN.txt	4	2	PEAR	n/a	PEAR	ROPE	1	[0, 0, 0]	-999	PAL1	0	R1130M
236.711	0.0	259930	REC_START	n/a	n/a	4	-999	n/a	n/a	n/a	n/a	1	[0, 0, 0]	-999	PAL1	0	R1130M
236.711	5.009	259930	REC_EVENT	0.0	n/a	4	2	PEAR	<>	PEAR	ROPE	1	[0, 0, 0]	-999	PAL1	0	R1130M
241.72	0.008	262435	REC_END	n/a	n/a	4	-999	n/a	n/a	n/a	n/a	1	[0, 0, 0]	-999	PAL1	0	R1130M
241.728	0.275	262439	TEST_ORIENT	n/a	n/a	5	3	CHEEK	MOUSE	SKUNK	CHEEK	1	[0, 0, 0]	-999	PAL1	0	R1130M
242.762	4.0	262956	TEST_PROBE	n/a	wordpools/wordpool_EN.txt	5	3	CHEEK	MOUSE	SKUNK	CHEEK	1	[0, 0, 0]	-999	PAL1	0	R1130M
242.762	2.729	262956	REC_START	n/a	n/a	5	-999	n/a	MOUSE	n/a	n/a	1	[0, 0, 0]	-999	PAL1	0	R1130M
245.491	2.288	264320	REC_EVENT	2.729	n/a	5	3	CHEEK	MOUSE	SKUNK	CHEEK	1	[0, 0, 0]	-999	PAL1	0	R1130M
247.779	0.017	265464	REC_END	n/a	n/a	5	-999	n/a	n/a	n/a	n/a	1	[0, 0, 0]	-999	PAL1	0	R1130M
247.796	0.275	265473	TEST_ORIENT	n/a	n/a	6	4	MAZE	n/a	PARK	MAZE	1	[0, 0, 0]	-999	PAL1	0	R1130M
248.647	4.0	265898	TEST_PROBE	n/a	wordpools/wordpool_EN.txt	6	4	MAZE	n/a	PARK	MAZE	1	[0, 0, 0]	-999	PAL1	0	R1130M
248.648	0.0	265899	REC_START	n/a	n/a	6	-999	n/a	n/a	n/a	n/a	1	[0, 0, 0]	-999	PAL1	0	R1130M
248.648	5.009	265899	REC_EVENT	0.0	n/a	6	4	MAZE	<>	PARK	MAZE	1	[0, 0, 0]	-999	PAL1	0	R1130M
253.657	0.008	268403	REC_END	n/a	n/a	6	-999	n/a	n/a	n/a	n/a	1	[0, 0, 0]	-999	PAL1	0	R1130M
253.665	0.275	268407	TEST_ORIENT	n/a	n/a	3	5	RAT	n/a	RAT	STOOL	1	[0, 0, 0]	-999	PAL1	0	R1130M
254.615	4.0	268882	TEST_PROBE	n/a	wordpools/wordpool_EN.txt	3	5	RAT	n/a	RAT	STOOL	1	[0, 0, 0]	-999	PAL1	0	R1130M
254.616	0.0	268883	REC_START	n/a	n/a	3	-999	n/a	n/a	n/a	n/a	1	[0, 0, 0]	-999	PAL1	0	R1130M
254.616	5.008	268883	REC_EVENT	0.0	n/a	3	5	RAT	<>	RAT	STOOL	1	[0, 0, 0]	-999	PAL1	0	R1130M
259.624	0.009	271386	REC_END	n/a	n/a	3	-999	n/a	n/a	n/a	n/a	1	[0, 0, 0]	-999	PAL1	0	R1130M
259.633	0.275	271391	TEST_ORIENT	n/a	n/a	2	6	STOVE	n/a	ROAD	STOVE	1	[0, 0, 0]	-999	PAL1	0	R1130M
260.483	4.0	271816	TEST_PROBE	n/a	wordpools/wordpool_EN.txt	2	6	STOVE	n/a	ROAD	STOVE	1	[0, 0, 0]	-999	PAL1	0	R1130M
260.484	0.0	271816	REC_EVENT	0.0	n/a	2	6	STOVE	<>	ROAD	STOVE	1	[0, 0, 0]	-999	PAL1	0	R1130M
260.484	5.008	271816	REC_START	n/a	n/a	2	-999	n/a	n/a	n/a	n/a	1	[0, 0, 0]	-999	PAL1	0	R1130M
265.492	14.529	274320	REC_END	n/a	n/a	2	-999	n/a	n/a	n/a	n/a	1	[0, 0, 0]	-999	PAL1	0	R1130M
280.021	10.451	281584	ENCODING_START	n/a	n/a	0	-999	n/a	n/a	n/a	n/a	2	[0, 0, 0]	-999	PAL1	0	R1130M
290.472	0.275	286810	STUDY_ORIENT	n/a	n/a	1	5	THUMB	n/a	KITE	THUMB	2	[0, 0, 0]	-999	PAL1	0	R1130M
291.506	4.0	287326	STUDY_PAIR	n/a	wordpools/wordpool_EN.txt	1	5	THUMB	n/a	KITE	THUMB	2	[0, 0, 0]	-999	PAL1	0	R1130M
296.54	0.275	289843	STUDY_ORIENT	n/a	n/a	2	2	VEST	n/a	CLIFF	VEST	2	[0, 0, 0]	-999	PAL1	0	R1130M
297.374	4.0	290260	STUDY_PAIR	n/a	wordpools/wordpool_EN.txt	2	2	VEST	n/a	CLIFF	VEST	2	[0, 0, 0]	-999	PAL1	0	R1130M
302.408	0.275	292777	STUDY_ORIENT	n/a	n/a	3	1	BUSH	n/a	STONE	BUSH	2	[0, 0, 0]	-999	PAL1	0	R1130M
303.258	4.0	293202	STUDY_PAIR	n/a	wordpools/wordpool_EN.txt	3	1	BUSH	n/a	STONE	BUSH	2	[0, 0, 0]	-999	PAL1	0	R1130M
308.276	0.275	295711	STUDY_ORIENT	n/a	n/a	4	4	RAKE	n/a	CORD	RAKE	2	[0, 0, 0]	-999	PAL1	0	R1130M
309.175	4.0	296160	STUDY_PAIR	n/a	wordpools/wordpool_EN.txt	4	4	RAKE	n/a	CORD	RAKE	2	[0, 0, 0]	-999	PAL1	0	R1130M
314.193	0.275	298669	STUDY_ORIENT	n/a	n/a	5	3	JAIL	n/a	JAIL	VASE	2	[0, 0, 0]	-999	PAL1	0	R1130M
314.976	4.0	299061	STUDY_PAIR	n/a	wordpools/wordpool_EN.txt	5	3	JAIL	n/a	JAIL	VASE	2	[0, 0, 0]	-999	PAL1	0	R1130M
319.994	0.275	301570	STUDY_ORIENT	n/a	n/a	6	6	BOOK	n/a	PANTS	BOOK	2	[0, 0, 0]	-999	PAL1	0	R1130M
320.844	4.0	301995	STUDY_PAIR	n/a	wordpools/wordpool_EN.txt	6	6	BOOK	n/a	PANTS	BOOK	2	[0, 0, 0]	-999	PAL1	0	R1130M
324.862	1.0	304004	START	n/a	n/a	-999	-999	n/a	n/a	n/a	n/a	2	[-999, -999, -999]	-999	PAL1	0	R1130M
325.862	0.016	304504	MATH_START	n/a	n/a	-999	-999	n/a	n/a	n/a	n/a	2	[0, 0, 0]	-999	PAL1	0	R1130M
325.878	6.202	304512	PROB	6.175	n/a	-999	-999	n/a	n/a	n/a	n/a	2	[7, 5, 5]	17	PAL1	0	R1130M
332.08	7.935	307612	PROB	7.901	n/a	-999	-999	n/a	n/a	n/a	n/a	2	[3, 9, 5]	17	PAL1	0	R1130M
340.015	7.311	311580	PROB	7.311	n/a	-999	-999	n/a	n/a	n/a	n/a	2	[3, 6, 6]	15	PAL1	0	R1130M
347.326	0.008	315235	STOP	n/a	n/a	-999	-999	n/a	n/a	n/a	n/a	2	[-999, -999, -999]	-999	PAL1	0	R1130M
347.334	0.0	315239	MATH_END	n/a	n/a	-999	-999	n/a	n/a	n/a	n/a	2	[0, 0, 0]	-999	PAL1	0	R1130M
347.334	0.016	315239	TEST_START	n/a	n/a	-999	-999	n/a	n/a	n/a	n/a	2	[0, 0, 0]	-999	PAL1	0	R1130M
347.35	0.275	315247	TEST_ORIENT	n/a	n/a	3	1	BUSH	n/a	STONE	BUSH	2	[0, 0, 0]	-999	PAL1	0	R1130M
348.351	4.0	315747	TEST_PROBE	n/a	wordpools/wordpool_EN.txt	3	1	BUSH	n/a	STONE	BUSH	2	[0, 0, 0]	-999	PAL1	0	R1130M
348.352	0.0	315748	REC_START	n/a	n/a	3	-999	n/a	n/a	n/a	n/a	2	[0, 0, 0]	-999	PAL1	0	R1130M
348.352	5.025	315748	REC_EVENT	0.0	n/a	3	1	BUSH	<>	STONE	BUSH	2	[0, 0, 0]	-999	PAL1	0	R1130M
353.377	0.008	318260	REC_END	n/a	n/a	3	-999	n/a	n/a	n/a	n/a	2	[0, 0, 0]	-999	PAL1	0	R1130M
353.385	0.275	318264	TEST_ORIENT	n/a	n/a	2	2	VEST	n/a	CLIFF	VEST	2	[0, 0, 0]	-999	PAL1	0	R1130M
354.184	4.0	318664	TEST_PROBE	n/a	wordpools/wordpool_EN.txt	2	2	VEST	n/a	CLIFF	VEST	2	[0, 0, 0]	-999	PAL1	0	R1130M
354.184	0.0	318664	REC_START	n/a	n/a	2	-999	n/a	n/a	n/a	n/a	2	[0, 0, 0]	-999	PAL1	0	R1130M
354.184	5.018	318664	REC_EVENT	0.0	n/a	2	2	VEST	<>	CLIFF	VEST	2	[0, 0, 0]	-999	PAL1	0	R1130M
359.202	0.017	321173	REC_END	n/a	n/a	2	-999	n/a	n/a	n/a	n/a	2	[0, 0, 0]	-999	PAL1	0	R1130M
359.219	0.275	321181	TEST_ORIENT	n/a	n/a	5	3	JAIL	n/a	JAIL	VASE	2	[0, 0, 0]	-999	PAL1	0	R1130M
360.085	4.0	321614	TEST_PROBE	n/a	wordpools/wordpool_EN.txt	5	3	JAIL	n/a	JAIL	VASE	2	[0, 0, 0]	-999	PAL1	0	R1130M
360.086	0.0	321615	REC_START	n/a	n/a	5	-999	n/a	n/a	n/a	n/a	2	[0, 0, 0]	-999	PAL1	0	R1130M
360.086	5.009	321615	REC_EVENT	0.0	n/a	5	3	JAIL	<>	JAIL	VASE	2	[0, 0, 0]	-999	PAL1	0	R1130M
365.095	0.008	324119	REC_END	n/a	n/a	5	-999	n/a	n/a	n/a	n/a	2	[0, 0, 0]	-999	PAL1	0	R1130M
365.103	0.275	324123	TEST_ORIENT	n/a	n/a	4	4	RAKE	n/a	CORD	RAKE	2	[0, 0, 0]	-999	PAL1	0	R1130M
365.903	4.0	324523	TEST_PROBE	n/a	wordpools/wordpool_EN.txt	4	4	RAKE	n/a	CORD	RAKE	2	[0, 0, 0]	-999	PAL1	0	R1130M
365.903	0.0	324523	REC_START	n/a	n/a	4	-999	n/a	n/a	n/a	n/a	2	[0, 0, 0]	-999	PAL1	0	R1130M
365.903	5.018	324523	REC_EVENT	0.0	n/a	4	4	RAKE	<>	CORD	RAKE	2	[0, 0, 0]	-999	PAL1	0	R1130M
370.921	0.016	327032	REC_END	n/a	n/a	4	-999	n/a	n/a	n/a	n/a	2	[0, 0, 0]	-999	PAL1	0	R1130M
370.937	0.275	327040	TEST_ORIENT	n/a	n/a	1	5	THUMB	n/a	KITE	THUMB	2	[0, 0, 0]	-999	PAL1	0	R1130M
371.921	4.0	327532	TEST_PROBE	n/a	wordpools/wordpool_EN.txt	1	5	THUMB	n/a	KITE	THUMB	2	[0, 0, 0]	-999	PAL1	0	R1130M
371.922	0.0	327532	REC_START	n/a	n/a	1	-999	n/a	n/a	n/a	n/a	2	[0, 0, 0]	-999	PAL1	0	R1130M
371.922	5.016	327532	REC_EVENT	0.0	n/a	1	5	THUMB	<>	KITE	THUMB	2	[0, 0, 0]	-999	PAL1	0	R1130M
376.938	0.017	330040	REC_END	n/a	n/a	1	-999	n/a	n/a	n/a	n/a	2	[0, 0, 0]	-999	PAL1	0	R1130M
376.955	0.275	330049	TEST_ORIENT	n/a	n/a	6	6	BOOK	n/a	PANTS	BOOK	2	[0, 0, 0]	-999	PAL1	0	R1130M
377.955	4.0	330549	TEST_PROBE	n/a	wordpools/wordpool_EN.txt	6	6	BOOK	n/a	PANTS	BOOK	2	[0, 0, 0]	-999	PAL1	0	R1130M
377.956	0.0	330549	REC_EVENT	0.0	n/a	6	6	BOOK	<>	PANTS	BOOK	2	[0, 0, 0]	-999	PAL1	0	R1130M
377.956	5.008	330549	REC_START	n/a	n/a	6	-999	n/a	n/a	n/a	n/a	2	[0, 0, 0]	-999	PAL1	0	R1130M
382.964	26.769	333053	REC_END	n/a	n/a	6	-999	n/a	n/a	n/a	n/a	2	[0, 0, 0]	-999	PAL1	0	R1130M
409.733	10.448	346437	ENCODING_START	n/a	n/a	0	-999	n/a	n/a	n/a	n/a	3	[0, 0, 0]	-999	PAL1	0	R1130M
420.181	0.275	351660	STUDY_ORIENT	n/a	n/a	1	1	GOLD	n/a	FORT	GOLD	3	[0, 0, 0]	-999	PAL1	0	R1130M
421.114	4.0	352127	STUDY_PAIR	n/a	wordpools/wordpool_EN.txt	1	1	GOLD	n/a	FORT	GOLD	3	[0, 0, 0]	-999	PAL1	0	R1130M
426.148	0.275	354644	STUDY_ORIENT	n/a	n/a	2	2	VAN	n/a	VAN	SEED	3	[0, 0, 0]	-999	PAL1	0	R1130M
427.032	4.0	355086	STUDY_PAIR	n/a	wordpools/wordpool_EN.txt	2	2	VAN	n/a	VAN	SEED	3	[0, 0, 0]	-999	PAL1	0	R1130M
432.066	0.275	357603	STUDY_ORIENT	n/a	n/a	3	3	BRIDGE	n/a	BRIDGE	PHONE	3	[0, 0, 0]	-999	PAL1	0	R1130M
432.9	4.0	358020	STUDY_PAIR	n/a	wordpools/wordpool_EN.txt	3	3	BRIDGE	n/a	BRIDGE	PHONE	3	[0, 0, 0]	-999	PAL1	0	R1130M
437.934	0.275	360536	STUDY_ORIENT	n/a	n/a	4	6	SPARK	n/a	GRASS	SPARK	3	[0, 0, 0]	-999	PAL1	0	R1130M
438.851	4.0	360995	STUDY_PAIR	n/a	wordpools/wordpool_EN.txt	4	6	SPARK	n/a	GRASS	SPARK	3	[0, 0, 0]	-999	PAL1	0	R1130M
443.885	0.275	363512	STUDY_ORIENT	n/a	n/a	5	5	EGG	STRAW	EGG	STRAW	3	[0, 0, 0]	-999	PAL1	0	R1130M
444.902	4.0	364020	STUDY_PAIR	n/a	wordpools/wordpool_EN.txt	5	5	EGG	STRAW	EGG	STRAW	3	[0, 0, 0]	-999	PAL1	0	R1130M
449.92	0.275	366529	STUDY_ORIENT	n/a	n/a	6	4	TANK	GOLD	TANK	CASH	3	[0, 0, 0]	-999	PAL1	0	R1130M
450.853	4.0	366996	STUDY_PAIR	n/a	wordpools/wordpool_EN.txt	6	4	TANK	GOLD	TANK	CASH	3	[0, 0, 0]	-999	PAL1	0	R1130M
454.854	1.0	368996	START	n/a	n/a	-999	-999	n/a	n/a	n/a	n/a	3	[-999, -999, -999]	-999	PAL1	0	R1130M
455.854	0.017	369496	MATH_START	n/a	n/a	-999	-999	n/a	n/a	n/a	n/a	3	[0, 0, 0]	-999	PAL1	0	R1130M
455.871	7.968	369504	PROB	7.934	n/a	-999	-999	n/a	n/a	n/a	n/a	3	[7, 3, 4]	14	PAL1	0	R1130M
463.839	7.436	373488	PROB	7.407	n/a	-999	-999	n/a	n/a	n/a	n/a	3	[7, 7, 6]	20	PAL1	0	R1130M
471.275	7.027	377206	PROB	7.027	n/a	-999	-999	n/a	n/a	n/a	n/a	3	[6, 3, 2]	11	PAL1	0	R1130M
478.302	0.008	380719	STOP	n/a	n/a	-999	-999	n/a	n/a	n/a	n/a	3	[-999, -999, -999]	-999	PAL1	0	R1130M
478.31	0.0	380723	MATH_END	n/a	n/a	-999	-999	n/a	n/a	n/a	n/a	3	[0, 0, 0]	-999	PAL1	0	R1130M
478.31	0.016	380723	TEST_START	n/a	n/a	-999	-999	n/a	n/a	n/a	n/a	3	[0, 0, 0]	-999	PAL1	0	R1130M
478.326	0.275	380731	TEST_ORIENT	n/a	n/a	1	1	GOLD	n/a	FORT	GOLD	3	[0, 0, 0]	-999	PAL1	0	R1130M
479.277	4.0	381207	TEST_PROBE	n/a	wordpools/wordpool_EN.txt	1	1	GOLD	n/a	FORT	GOLD	3	[0, 0, 0]	-999	PAL1	0	R1130M
479.277	0.0	381207	REC_START	n/a	n/a	1	-999	n/a	n/a	n/a	n/a	3	[0, 0, 0]	-999	PAL1	0	R1130M
479.277	5.017	381207	REC_EVENT	0.0	n/a	1	1	GOLD	<>	FORT	GOLD	3	[0, 0, 0]	-999	PAL1	0	R1130M
484.294	0.017	383715	REC_END	n/a	n/a	1	-999	n/a	n/a	n/a	n/a	3	[0, 0, 0]	-999	PAL1	0	R1130M
484.311	0.275	383724	TEST_ORIENT	n/a	n/a	2	2	VAN	n/a	VAN	SEED	3	[0, 0, 0]	-999	PAL1	0	R1130M
485.328	4.0	384232	TEST_PROBE	n/a	wordpools/wordpool_EN.txt	2	2	VAN	n/a	VAN	SEED	3	[0, 0, 0]	-999	PAL1	0	R1130M
485.328	0.0	384232	REC_START	n/a	n/a	2	-999	n/a	n/a	n/a	n/a	3	[0, 0, 0]	-999	PAL1	0	R1130M
485.328	5.017	384232	REC_EVENT	0.0	n/a	2	2	VAN	<>	VAN	SEED	3	[0, 0, 0]	-999	PAL1	0	R1130M
490.345	0.017	386740	REC_END	n/a	n/a	2	-999	n/a	n/a	n/a	n/a	3	[0, 0, 0]	-999	PAL1	0	R1130M
490.362	0.275	386749	TEST_ORIENT	n/a	n/a	3	3	BRIDGE	n/a	BRIDGE	PHONE	3	[0, 0, 0]	-999	PAL1	0	R1130M
491.262	4.0	387199	TEST_PROBE	n/a	wordpools/wordpool_EN.txt	3	3	BRIDGE	n/a	BRIDGE	PHONE	3	[0, 0, 0]	-999	PAL1	0	R1130M
491.263	0.0	387199	REC_START	n/a	n/a	3	-999	n/a	n/a	n/a	n/a	3	[0, 0, 0]	-999	PAL1	0	R1130M
491.263	5.009	387199	REC_EVENT	0.0	n/a	3	3	BRIDGE	<>	BRIDGE	PHONE	3	[0, 0, 0]	-999	PAL1	0	R1130M
496.272	0.008	389704	REC_END	n/a	n/a	3	-999	n/a	n/a	n/a	n/a	3	[0, 0, 0]	-999	PAL1	0	R1130M
496.28	0.275	389708	TEST_ORIENT	n/a	n/a	6	4	TANK	GOLD	TANK	CASH	3	[0, 0, 0]	-999	PAL1	0	R1130M
497.179	4.0	390157	TEST_PROBE	n/a	wordpools/wordpool_EN.txt	6	4	TANK	GOLD	TANK	CASH	3	[0, 0, 0]	-999	PAL1	0	R1130M
497.18	3.022	390158	REC_START	n/a	n/a	6	-999	n/a	GOLD	n/a	n/a	3	[0, 0, 0]	-999	PAL1	0	R1130M
500.202	1.987	391669	REC_EVENT	3.022	n/a	6	4	TANK	GOLD	TANK	CASH	3	[0, 0, 0]	-999	PAL1	0	R1130M
502.189	0.008	392662	REC_END	n/a	n/a	6	-999	n/a	n/a	n/a	n/a	3	[0, 0, 0]	-999	PAL1	0	R1130M
502.197	0.275	392666	TEST_ORIENT	n/a	n/a	5	5	EGG	STRAW	EGG	STRAW	3	[0, 0, 0]	-999	PAL1	0	R1130M
503.215	4.0	393175	TEST_PROBE	n/a	wordpools/wordpool_EN.txt	5	5	EGG	STRAW	EGG	STRAW	3	[0, 0, 0]	-999	PAL1	0	R1130M
503.215	1.253	393175	REC_START	n/a	n/a	5	-999	n/a	STRAW	n/a	n/a	3	[0, 0, 0]	-999	PAL1	0	R1130M
504.468	3.764	393802	REC_EVENT	1.253	n/a	5	5	EGG	STRAW	EGG	STRAW	3	[0, 0, 0]	-999	PAL1	0	R1130M
508.232	0.017	395683	REC_END	n/a	n/a	5	-999	n/a	n/a	n/a	n/a	3	[0, 0, 0]	-999	PAL1	0	R1130M
508.249	0.275	395692	TEST_ORIENT	n/a	n/a	4	6	SPARK	n/a	GRASS	SPARK	3	[0, 0, 0]	-999	PAL1	0	R1130M
509.081	4.0	396108	TEST_PROBE	n/a	wordpools/wordpool_EN.txt	4	6	SPARK	n/a	GRASS	SPARK	3	[0, 0, 0]	-999	PAL1	0	R1130M
509.082	0.0	396108	REC_EVENT	0.0	n/a	4	6	SPARK	<>	GRASS	SPARK	3	[0, 0, 0]	-999	PAL1	0	R1130M
509.082	5.009	396108	REC_START	n/a	n/a	4	-999	n/a	n/a	n/a	n/a	3	[0, 0, 0]	-999	PAL1	0	R1130M
514.091	26.61	398613	REC_END	n/a	n/a	4	-999	n/a	n/a	n/a	n/a	3	[0, 0, 0]	-999	PAL1	0	R1130M
540.701	10.439	411917	ENCODING_START	n/a	n/a	0	-999	n/a	n/a	n/a	n/a	4	[0, 0, 0]	-999	PAL1	0	R1130M
551.14	0.275	417136	STUDY_ORIENT	n/a	n/a	1	5	SCHOOL	EEL	SCHOOL	EEL	4	[0, 0, 0]	-999	PAL1	0	R1130M
552.107	4.0	417620	STUDY_PAIR	n/a	wordpools/wordpool_EN.txt	1	5	SCHOOL	EEL	SCHOOL	EEL	4	[0, 0, 0]	-999	PAL1	0	R1130M
557.141	0.275	420137	STUDY_ORIENT	n/a	n/a	2	4	MAT	HOUSE	MAT	HOUSE	4	[0, 0, 0]	-999	PAL1	0	R1130M
558.025	4.0	420579	STUDY_PAIR	n/a	wordpools/wordpool_EN.txt	2	4	MAT	HOUSE	MAT	HOUSE	4	[0, 0, 0]	-999	PAL1	0	R1130M
563.059	0.275	423095	STUDY_ORIENT	n/a	n/a	3	3	BARN	POLE	POLE	BARN	4	[0, 0, 0]	-999	PAL1	0	R1130M
563.893	4.0	423512	STUDY_PAIR	n/a	wordpools/wordpool_EN.txt	3	3	BARN	POLE	POLE	BARN	4	[0, 0, 0]	-999	PAL1	0	R1130M
568.927	0.275	426029	STUDY_ORIENT	n/a	n/a	4	2	HAT	n/a	WORM	HAT	4	[0, 0, 0]	-999	PAL1	0	R1130M
569.927	4.0	426529	STUDY_PAIR	n/a	wordpools/wordpool_EN.txt	4	2	HAT	n/a	WORM	HAT	4	[0, 0, 0]	-999	PAL1	0	R1130M
574.961	0.275	429046	STUDY_ORIENT	n/a	n/a	5	1	OWL	TOAST	TOAST	OWL	4	[0, 0, 0]	-999	PAL1	0	R1130M
575.878	4.0	429505	STUDY_PAIR	n/a	wordpools/wordpool_EN.txt	5	1	OWL	TOAST	TOAST	OWL	4	[0, 0, 0]	-999	PAL1	0	R1130M
580.896	0.275	432013	STUDY_ORIENT	n/a	n/a	6	6	STORE	SALT	STORE	SALT	4	[0, 0, 0]	-999	PAL1	0	R1130M
581.846	4.0	432488	STUDY_PAIR	n/a	wordpools/wordpool_EN.txt	6	6	STORE	SALT	STORE	SALT	4	[0, 0, 0]	-999	PAL1	0	R1130M
585.864	1.0	434497	START	n/a	n/a	-999	-999	n/a	n/a	n/a	n/a	4	[-999, -999, -999]	-999	PAL1	0	R1130M
586.864	0.016	434997	MATH_START	n/a	n/a	-999	-999	n/a	n/a	n/a	n/a	4	[0, 0, 0]	-999	PAL1	0	R1130M
586.88	5.786	435005	PROB	5.766	n/a	-999	-999	n/a	n/a	n/a	n/a	4	[4, 1, 4]	9	PAL1	0	R1130M
592.666	7.935	437898	PROB	7.9	n/a	-999	-999	n/a	n/a	n/a	n/a	4	[2, 7, 4]	13	PAL1	0	R1130M
600.601	7.653	441865	PROB	7.653	n/a	-999	-999	n/a	n/a	n/a	n/a	4	[6, 3, 7]	16	PAL1	0	R1130M
608.254	0.015	445692	STOP	n/a	n/a	-999	-999	n/a	n/a	n/a	n/a	4	[-999, -999, -999]	-999	PAL1	0	R1130M
608.269	0.0	445699	MATH_END	n/a	n/a	-999	-999	n/a	n/a	n/a	n/a	4	[0, 0, 0]	-999	PAL1	0	R1130M
608.269	0.017	445699	TEST_START	n/a	n/a	-999	-999	n/a	n/a	n/a	n/a	4	[0, 0, 0]	-999	PAL1	0	R1130M
608.286	0.275	445708	TEST_ORIENT	n/a	n/a	5	1	OWL	TOAST	TOAST	OWL	4	[0, 0, 0]	-999	PAL1	0	R1130M
609.085	4.0	446107	TEST_PROBE	n/a	wordpools/wordpool_EN.txt	5	1	OWL	TOAST	TOAST	OWL	4	[0, 0, 0]	-999	PAL1	0	R1130M
609.086	1.455	446108	REC_START	n/a	n/a	5	-999	n/a	TOAST	n/a	n/a	4	[0, 0, 0]	-999	PAL1	0	R1130M
610.541	3.561	446835	REC_EVENT	1.455	n/a	5	1	OWL	TOAST	TOAST	OWL	4	[0, 0, 0]	-999	PAL1	0	R1130M
614.102	0.017	448616	REC_END	n/a	n/a	5	-999	n/a	n/a	n/a	n/a	4	[0, 0, 0]	-999	PAL1	0	R1130M
614.119	0.275	448624	TEST_ORIENT	n/a	n/a	4	2	HAT	n/a	WORM	HAT	4	[0, 0, 0]	-999	PAL1	0	R1130M
615.136	4.0	449133	TEST_PROBE	n/a	wordpools/wordpool_EN.txt	4	2	HAT	n/a	WORM	HAT	4	[0, 0, 0]	-999	PAL1	0	R1130M
615.137	0.0	449133	REC_START	n/a	n/a	4	-999	n/a	n/a	n/a	n/a	4	[0, 0, 0]	-999	PAL1	0	R1130M
615.137	5.016	449133	REC_EVENT	0.0	n/a	4	2	HAT	<>	WORM	HAT	4	[0, 0, 0]	-999	PAL1	0	R1130M
620.153	0.017	451641	REC_END	n/a	n/a	4	-999	n/a	n/a	n/a	n/a	4	[0, 0, 0]	-999	PAL1	0	R1130M
620.17	0.275	451649	TEST_ORIENT	n/a	n/a	3	3	BARN	POLE	POLE	BARN	4	[0, 0, 0]	-999	PAL1	0	R1130M
621.054	4.0	452091	TEST_PROBE	n/a	wordpools/wordpool_EN.txt	3	3	BARN	POLE	POLE	BARN	4	[0, 0, 0]	-999	PAL1	0	R1130M
621.054	1.068	452091	REC_START	n/a	n/a	3	-999	n/a	POLE	n/a	n/a	4	[0, 0, 0]	-999	PAL1	0	R1130M
622.122	3.949	452625	REC_EVENT	1.068	n/a	3	3	BARN	POLE	POLE	BARN	4	[0, 0, 0]	-999	PAL1	0	R1130M
626.071	0.017	454600	REC_END	n/a	n/a	3	-999	n/a	n/a	n/a	n/a	4	[0, 0, 0]	-999	PAL1	0	R1130M
626.088	0.275	454608	TEST_ORIENT	n/a	n/a	2	4	MAT	HOUSE	MAT	HOUSE	4	[0, 0, 0]	-999	PAL1	0	R1130M
626.988	4.0	455058	TEST_PROBE	n/a	wordpools/wordpool_EN.txt	2	4	MAT	HOUSE	MAT	HOUSE	4	[0, 0, 0]	-999	PAL1	0	R1130M
626.989	1.226	455059	REC_START	n/a	n/a	2	-999	n/a	HOUSE	n/a	n/a	4	[0, 0, 0]	-999	PAL1	0	R1130M
628.215	3.782	455672	REC_EVENT	1.226	n/a	2	4	MAT	HOUSE	MAT	HOUSE	4	[0, 0, 0]	-999	PAL1	0	R1130M
631.997	0.009	457563	REC_END	n/a	n/a	2	-999	n/a	n/a	n/a	n/a	4	[0, 0, 0]	-999	PAL1	0	R1130M
632.006	0.275	457567	TEST_ORIENT	n/a	n/a	1	5	SCHOOL	EEL	SCHOOL	EEL	4	[0, 0, 0]	-999	PAL1	0	R1130M
632.906	4.0	458017	TEST_PROBE	n/a	wordpools/wordpool_EN.txt	1	5	SCHOOL	EEL	SCHOOL	EEL	4	[0, 0, 0]	-999	PAL1	0	R1130M
632.907	1.966	458018	REC_START	n/a	n/a	1	-999	n/a	EEL	n/a	n/a	4	[0, 0, 0]	-999	PAL1	0	R1130M
634.873	3.042	459000	REC_EVENT	1.966	n/a	1	5	SCHOOL	EEL	SCHOOL	EEL	4	[0, 0, 0]	-999	PAL1	0	R1130M
637.915	0.009	460521	REC_END	n/a	n/a	1	-999	n/a	n/a	n/a	n/a	4	[0, 0, 0]	-999	PAL1	0	R1130M
637.924	0.275	460526	TEST_ORIENT	n/a	n/a	6	6	STORE	SALT	STORE	SALT	4	[0, 0, 0]	-999	PAL1	0	R1130M
638.757	4.0	460942	TEST_PROBE	n/a	wordpools/wordpool_EN.txt	6	6	STORE	SALT	STORE	SALT	4	[0, 0, 0]	-999	PAL1	0	R1130M
638.759	1.19	460943	REC_START	n/a	n/a	6	-999	n/a	SALT	n/a	n/a	4	[0, 0, 0]	-999	PAL1	0	R1130M
639.949	3.809	461538	REC_EVENT	1.19	n/a	6	6	STORE	SALT	STORE	SALT	4	[0, 0, 0]	-999	PAL1	0	R1130M
643.758	21.327	463443	REC_END	n/a	n/a	6	-999	n/a	n/a	n/a	n/a	4	[0, 0, 0]	-999	PAL1	0	R1130M
665.085	10.447	474106	ENCODING_START	n/a	n/a	0	-999	n/a	n/a	n/a	n/a	5	[0, 0, 0]	-999	PAL1	0	R1130M
675.532	0.275	479329	STUDY_ORIENT	n/a	n/a	1	1	ANT	BAT	TRAIN	ANT	5	[0, 0, 0]	-999	PAL1	0	R1130M
676.533	4.0	479829	STUDY_PAIR	n/a	wordpools/wordpool_EN.txt	1	1	ANT	BAT	TRAIN	ANT	5	[0, 0, 0]	-999	PAL1	0	R1130M
681.567	0.275	482346	STUDY_ORIENT	n/a	n/a	2	4	DEER	n/a	BAT	DEER	5	[0, 0, 0]	-999	PAL1	0	R1130M
682.451	4.0	482788	STUDY_PAIR	n/a	wordpools/wordpool_EN.txt	2	4	DEER	n/a	BAT	DEER	5	[0, 0, 0]	-999	PAL1	0	R1130M
687.485	0.275	485305	STUDY_ORIENT	n/a	n/a	3	5	POND	SWAMP	SWAMP	POND	5	[0, 0, 0]	-999	PAL1	0	R1130M
688.451	4.0	485788	STUDY_PAIR	n/a	wordpools/wordpool_EN.txt	3	5	POND	SWAMP	SWAMP	POND	5	[0, 0, 0]	-999	PAL1	0	R1130M
693.469	0.275	488297	STUDY_ORIENT	n/a	n/a	4	2	LAMB	BALL	LAMB	BALL	5	[0, 0, 0]	-999	PAL1	0	R1130M
694.369	4.0	488747	STUDY_PAIR	n/a	wordpools/wordpool_EN.txt	4	2	LAMB	BALL	LAMB	BALL	5	[0, 0, 0]	-999	PAL1	0	R1130M
699.387	0.275	491256	STUDY_ORIENT	n/a	n/a	5	3	SMOKE	CHIEF	CHIEF	SMOKE	5	[0, 0, 0]	-999	PAL1	0	R1130M
700.287	4.0	491706	STUDY_PAIR	n/a	wordpools/wordpool_EN.txt	5	3	SMOKE	CHIEF	CHIEF	SMOKE	5	[0, 0, 0]	-999	PAL1	0	R1130M
705.305	0.275	494214	STUDY_ORIENT	n/a	n/a	6	6	SMILE	CLOWN	SMILE	CLOWN	5	[0, 0, 0]	-999	PAL1	0	R1130M
706.239	4.0	494681	STUDY_PAIR	n/a	wordpools/wordpool_EN.txt	6	6	SMILE	CLOWN	SMILE	CLOWN	5	[0, 0, 0]	-999	PAL1	0	R1130M
710.257	0.999	496690	START	n/a	n/a	-999	-999	n/a	n/a	n/a	n/a	5	[-999, -999, -999]	-999	PAL1	0	R1130M
711.256	0.017	497190	MATH_START	n/a	n/a	-999	-999	n/a	n/a	n/a	n/a	5	[0, 0, 0]	-999	PAL1	0	R1130M
711.273	16.819	497198	PROB	16.796	n/a	-999	-999	n/a	n/a	n/a	n/a	5	[8, 1, 6]	15	PAL1	0	R1130M
728.092	7.833	505607	PROB	7.833	n/a	-999	-999	n/a	n/a	n/a	n/a	5	[4, 5, 6]	15	PAL1	0	R1130M
735.925	0.019	509524	STOP	n/a	n/a	-999	-999	n/a	n/a	n/a	n/a	5	[-999, -999, -999]	-999	PAL1	0	R1130M
735.944	0.0	509533	MATH_END	n/a	n/a	-999	-999	n/a	n/a	n/a	n/a	5	[0, 0, 0]	-999	PAL1	0	R1130M
735.944	0.016	509533	TEST_START	n/a	n/a	-999	-999	n/a	n/a	n/a	n/a	5	[0, 0, 0]	-999	PAL1	0	R1130M
735.96	0.275	509541	TEST_ORIENT	n/a	n/a	1	1	ANT	BAT	TRAIN	ANT	5	[0, 0, 0]	-999	PAL1	0	R1130M
736.977	4.0	510050	TEST_PROBE	n/a	wordpools/wordpool_EN.txt	1	1	ANT	BAT	TRAIN	ANT	5	[0, 0, 0]	-999	PAL1	0	R1130M
736.978	4.237	510050	REC_START	n/a	n/a	1	-999	n/a	BAT	n/a	n/a	5	[0, 0, 0]	-999	PAL1	0	R1130M
741.215	0.779	512169	REC_EVENT	4.237	n/a	1	1	ANT	BAT	TRAIN	ANT	5	[0, 0, 0]	-999	PAL1	0	R1130M
741.994	0.017	512558	REC_END	n/a	n/a	1	-999	n/a	n/a	n/a	n/a	5	[0, 0, 0]	-999	PAL1	0	R1130M
742.011	0.275	512566	TEST_ORIENT	n/a	n/a	4	2	LAMB	BALL	LAMB	BALL	5	[0, 0, 0]	-999	PAL1	0	R1130M
742.878	4.0	513000	TEST_PROBE	n/a	wordpools/wordpool_EN.txt	4	2	LAMB	BALL	LAMB	BALL	5	[0, 0, 0]	-999	PAL1	0	R1130M
742.879	1.647	513000	REC_START	n/a	n/a	4	-999	n/a	BALL	n/a	n/a	5	[0, 0, 0]	-999	PAL1	0	R1130M
744.526	3.361	513824	REC_EVENT	1.647	n/a	4	2	LAMB	BALL	LAMB	BALL	5	[0, 0, 0]	-999	PAL1	0	R1130M
747.887	0.009	515504	REC_END	n/a	n/a	4	-999	n/a	n/a	n/a	n/a	5	[0, 0, 0]	-999	PAL1	0	R1130M
747.896	0.275	515509	TEST_ORIENT	n/a	n/a	5	3	SMOKE	CHIEF	CHIEF	SMOKE	5	[0, 0, 0]	-999	PAL1	0	R1130M
748.929	4.0	516025	TEST_PROBE	n/a	wordpools/wordpool_EN.txt	5	3	SMOKE	CHIEF	CHIEF	SMOKE	5	[0, 0, 0]	-999	PAL1	0	R1130M
748.93	1.408	516026	REC_START	n/a	n/a	5	-999	n/a	CHIEF	n/a	n/a	5	[0, 0, 0]	-999	PAL1	0	R1130M
750.338	3.6	516730	REC_EVENT	1.408	n/a	5	3	SMOKE	CHIEF	CHIEF	SMOKE	5	[0, 0, 0]	-999	PAL1	0	R1130M
753.938	0.009	518530	REC_END	n/a	n/a	5	-999	n/a	n/a	n/a	n/a	5	[0, 0, 0]	-999	PAL1	0	R1130M
753.947	0.275	518534	TEST_ORIENT	n/a	n/a	2	4	DEER	n/a	BAT	DEER	5	[0, 0, 0]	-999	PAL1	0	R1130M
754.914	4.0	519018	TEST_PROBE	n/a	wordpools/wordpool_EN.txt	2	4	DEER	n/a	BAT	DEER	5	[0, 0, 0]	-999	PAL1	0	R1130M
754.914	0.0	519018	REC_START	n/a	n/a	2	-999	n/a	n/a	n/a	n/a	5	[0, 0, 0]	-999	PAL1	0	R1130M
754.914	5.017	519018	REC_EVENT	0.0	n/a	2	4	DEER	<>	BAT	DEER	5	[0, 0, 0]	-999	PAL1	0	R1130M
759.931	0.017	521526	REC_END	n/a	n/a	2	-999	n/a	n/a	n/a	n/a	5	[0, 0, 0]	-999	PAL1	0	R1130M
759.948	0.275	521534	TEST_ORIENT	n/a	n/a	3	5	POND	SWAMP	SWAMP	POND	5	[0, 0, 0]	-999	PAL1	0	R1130M
760.798	4.0	521959	TEST_PROBE	n/a	wordpools/wordpool_EN.txt	3	5	POND	SWAMP	SWAMP	POND	5	[0, 0, 0]	-999	PAL1	0	R1130M
760.799	1.144	521960	REC_START	n/a	n/a	3	-999	n/a	SWAMP	n/a	n/a	5	[0, 0, 0]	-999	PAL1	0	R1130M
761.943	3.864	522532	REC_EVENT	1.144	n/a	3	5	POND	SWAMP	SWAMP	POND	5	[0, 0, 0]	-999	PAL1	0	R1130M
765.807	0.009	524464	REC_END	n/a	n/a	3	-999	n/a	n/a	n/a	n/a	5	[0, 0, 0]	-999	PAL1	0	R1130M
765.816	0.275	524468	TEST_ORIENT	n/a	n/a	6	6	SMILE	CLOWN	SMILE	CLOWN	5	[0, 0, 0]	-999	PAL1	0	R1130M
766.733	0.0	524927	REC_START	n/a	n/a	6	-999	n/a	CLOWN	n/a	n/a	5	[0, 0, 0]	-999	PAL1	0	R1130M
766.733	4.0	524927	TEST_PROBE	n/a	wordpools/wordpool_EN.txt	6	6	SMILE	CLOWN	SMILE	CLOWN	5	[0, 0, 0]	-999	PAL1	0	R1130M
767.901	3.849	525511	REC_EVENT	1.168	n/a	6	6	SMILE	CLOWN	SMILE	CLOWN	5	[0, 0, 0]	-999	PAL1	0	R1130M
771.75	20.279	527435	REC_END	n/a	n/a	6	-999	n/a	n/a	n/a	n/a	5	[0, 0, 0]	-999	PAL1	0	R1130M
792.029	10.445	537574	ENCODING_START	n/a	n/a	0	-999	n/a	n/a	n/a	n/a	6	[0, 0, 0]	-999	PAL1	0	R1130M
802.474	0.275	542796	STUDY_ORIENT	n/a	n/a	1	5	MOON	n/a	MOON	BOMB	6	[0, 0, 0]	-999	PAL1	0	R1130M
803.341	4.0	543230	STUDY_PAIR	n/a	wordpools/wordpool_EN.txt	1	5	MOON	n/a	MOON	BOMB	6	[0, 0, 0]	-999	PAL1	0	R1130M
808.359	0.275	545739	STUDY_ORIENT	n/a	n/a	2	6	STEAM	n/a	SNAKE	STEAM	6	[0, 0, 0]	-999	PAL1	0	R1130M
809.191	4.0	546155	STUDY_PAIR	n/a	wordpools/wordpool_EN.txt	2	6	STEAM	n/a	SNAKE	STEAM	6	[0, 0, 0]	-999	PAL1	0	R1130M
814.21	0.275	548664	STUDY_ORIENT	n/a	n/a	3	3	ROOF	n/a	COIN	ROOF	6	[0, 0, 0]	-999	PAL1	0	R1130M
815.076	4.0	549097	STUDY_PAIR	n/a	wordpools/wordpool_EN.txt	3	3	ROOF	n/a	COIN	ROOF	6	[0, 0, 0]	-999	PAL1	0	R1130M
820.11	0.275	551614	STUDY_ORIENT	n/a	n/a	4	4	BATH	n/a	TOOL	BATH	6	[0, 0, 0]	-999	PAL1	0	R1130M
820.927	4.0	552022	STUDY_PAIR	n/a	wordpools/wordpool_EN.txt	4	4	BATH	n/a	TOOL	BATH	6	[0, 0, 0]	-999	PAL1	0	R1130M
825.961	0.275	554539	STUDY_ORIENT	n/a	n/a	5	1	BAG	n/a	BAG	TEETH	6	[0, 0, 0]	-999	PAL1	0	R1130M
826.811	4.0	554964	STUDY_PAIR	n/a	wordpools/wordpool_EN.txt	5	1	BAG	n/a	BAG	TEETH	6	[0, 0, 0]	-999	PAL1	0	R1130M
831.829	0.275	557473	STUDY_ORIENT	n/a	n/a	6	2	SINK	n/a	SINK	FENCE	6	[0, 0, 0]	-999	PAL1	0	R1130M
832.812	4.0	557964	STUDY_PAIR	n/a	wordpools/wordpool_EN.txt	6	2	SINK	n/a	SINK	FENCE	6	[0, 0, 0]	-999	PAL1	0	R1130M
836.814	0.999	559965	START	n/a	n/a	-999	-999	n/a	n/a	n/a	n/a	6	[-999, -999, -999]	-999	PAL1	0	R1130M
837.813	0.017	560465	MATH_START	n/a	n/a	-999	-999	n/a	n/a	n/a	n/a	6	[0, 0, 0]	-999	PAL1	0	R1130M
837.83	9.052	560473	PROB	9.031	n/a	-999	-999	n/a	n/a	n/a	n/a	6	[3, 4, 9]	16	PAL1	0	R1130M
846.882	10.051	564999	PROB	10.051	n/a	-999	-999	n/a	n/a	n/a	n/a	6	[4, 9, 8]	21	PAL1	0	R1130M
856.933	0.018	570024	STOP	n/a	n/a	-999	-999	n/a	n/a	n/a	n/a	6	[-999, -999, -999]	-999	PAL1	0	R1130M
856.951	0.0	570033	MATH_END	n/a	n/a	-999	-999	n/a	n/a	n/a	n/a	6	[0, 0, 0]	-999	PAL1	0	R1130M
856.951	0.017	570033	TEST_START	n/a	n/a	-999	-999	n/a	n/a	n/a	n/a	6	[0, 0, 0]	-999	PAL1	0	R1130M
856.968	0.275	570042	TEST_ORIENT	n/a	n/a	5	1	BAG	n/a	BAG	TEETH	6	[0, 0, 0]	-999	PAL1	0	R1130M
857.834	4.0	570475	TEST_PROBE	n/a	wordpools/wordpool_EN.txt	5	1	BAG	n/a	BAG	TEETH	6	[0, 0, 0]	-999	PAL1	0	R1130M
857.835	0.0	570475	REC_EVENT	0.0	n/a	5	1	BAG	<>	BAG	TEETH	6	[0, 0, 0]	-999	PAL1	0	R1130M
857.835	5.009	570475	REC_START	n/a	n/a	5	-999	n/a	n/a	n/a	n/a	6	[0, 0, 0]	-999	PAL1	0	R1130M
862.844	0.008	572980	REC_END	n/a	n/a	5	-999	n/a	n/a	n/a	n/a	6	[0, 0, 0]	-999	PAL1	0	R1130M
862.852	0.275	572984	TEST_ORIENT	n/a	n/a	6	2	SINK	n/a	SINK	FENCE	6	[0, 0, 0]	-999	PAL1	0	R1130M
863.736	4.0	573426	TEST_PROBE	n/a	wordpools/wordpool_EN.txt	6	2	SINK	n/a	SINK	FENCE	6	[0, 0, 0]	-999	PAL1	0	R1130M
863.736	0.0	573426	REC_START	n/a	n/a	6	-999	n/a	n/a	n/a	n/a	6	[0, 0, 0]	-999	PAL1	0	R1130M
863.736	5.017	573426	REC_EVENT	0.0	n/a	6	2	SINK	<>	SINK	FENCE	6	[0, 0, 0]	-999	PAL1	0	R1130M
868.753	0.017	575934	REC_END	n/a	n/a	6	-999	n/a	n/a	n/a	n/a	6	[0, 0, 0]	-999	PAL1	0	R1130M
868.77	0.275	575942	TEST_ORIENT	n/a	n/a	3	3	ROOF	n/a	COIN	ROOF	6	[0, 0, 0]	-999	PAL1	0	R1130M
869.803	4.0	576459	TEST_PROBE	n/a	wordpools/wordpool_EN.txt	3	3	ROOF	n/a	COIN	ROOF	6	[0, 0, 0]	-999	PAL1	0	R1130M
869.804	0.0	576459	REC_START	n/a	n/a	3	-999	n/a	n/a	n/a	n/a	6	[0, 0, 0]	-999	PAL1	0	R1130M
869.804	5.009	576459	REC_EVENT	0.0	n/a	3	3	ROOF	<>	COIN	ROOF	6	[0, 0, 0]	-999	PAL1	0	R1130M
874.813	0.008	578964	REC_END	n/a	n/a	3	-999	n/a	n/a	n/a	n/a	6	[0, 0, 0]	-999	PAL1	0	R1130M
874.821	0.275	578968	TEST_ORIENT	n/a	n/a	4	4	BATH	n/a	TOOL	BATH	6	[0, 0, 0]	-999	PAL1	0	R1130M
875.656	4.0	579385	TEST_PROBE	n/a	wordpools/wordpool_EN.txt	4	4	BATH	n/a	TOOL	BATH	6	[0, 0, 0]	-999	PAL1	0	R1130M
875.656	0.0	579385	REC_START	n/a	n/a	4	-999	n/a	n/a	n/a	n/a	6	[0, 0, 0]	-999	PAL1	0	R1130M
875.656	5.016	579385	REC_EVENT	0.0	n/a	4	4	BATH	<>	TOOL	BATH	6	[0, 0, 0]	-999	PAL1	0	R1130M
880.672	0.017	581893	REC_END	n/a	n/a	4	-999	n/a	n/a	n/a	n/a	6	[0, 0, 0]	-999	PAL1	0	R1130M
880.689	0.275	581902	TEST_ORIENT	n/a	n/a	1	5	MOON	n/a	MOON	BOMB	6	[0, 0, 0]	-999	PAL1	0	R1130M
881.573	4.0	582344	TEST_PROBE	n/a	wordpools/wordpool_EN.txt	1	5	MOON	n/a	MOON	BOMB	6	[0, 0, 0]	-999	PAL1	0	R1130M
881.574	0.0	582344	REC_START	n/a	n/a	1	-999	n/a	n/a	n/a	n/a	6	[0, 0, 0]	-999	PAL1	0	R1130M
881.574	5.008	582344	REC_EVENT	0.0	n/a	1	5	MOON	<>	MOON	BOMB	6	[0, 0, 0]	-999	PAL1	0	R1130M
886.582	0.009	584848	REC_END	n/a	n/a	1	-999	n/a	n/a	n/a	n/a	6	[0, 0, 0]	-999	PAL1	0	R1130M
886.591	0.275	584852	TEST_ORIENT	n/a	n/a	2	6	STEAM	n/a	SNAKE	STEAM	6	[0, 0, 0]	-999	PAL1	0	R1130M
887.491	4.0	585302	TEST_PROBE	n/a	wordpools/wordpool_EN.txt	2	6	STEAM	n/a	SNAKE	STEAM	6	[0, 0, 0]	-999	PAL1	0	R1130M
887.492	0.0	585303	REC_EVENT	0.0	n/a	2	6	STEAM	<>	SNAKE	STEAM	6	[0, 0, 0]	-999	PAL1	0	R1130M
887.492	5.008	585303	REC_START	n/a	n/a	2	-999	n/a	n/a	n/a	n/a	6	[0, 0, 0]	-999	PAL1	0	R1130M
892.5	3.185	587807	REC_END	n/a	n/a	2	-999	n/a	n/a	n/a	n/a	6	[0, 0, 0]	-999	PAL1	0	R1130M
895.685	10.442	589399	ENCODING_START	n/a	n/a	0	-999	n/a	n/a	n/a	n/a	7	[0, 0, 0]	-999	PAL1	0	R1130M
906.127	0.275	594620	STUDY_ORIENT	n/a	n/a	1	3	ROSE	CLAY	ROSE	CLAY	7	[0, 0, 0]	-999	PAL1	0	R1130M
907.028	4.0	595070	STUDY_PAIR	n/a	wordpools/wordpool_EN.txt	1	3	ROSE	CLAY	ROSE	CLAY	7	[0, 0, 0]	-999	PAL1	0	R1130M
912.062	0.275	597587	STUDY_ORIENT	n/a	n/a	2	4	FAN	n/a	BLUSH	FAN	7	[0, 0, 0]	-999	PAL1	0	R1130M
912.912	4.0	598012	STUDY_PAIR	n/a	wordpools/wordpool_EN.txt	2	4	FAN	n/a	BLUSH	FAN	7	[0, 0, 0]	-999	PAL1	0	R1130M
917.946	0.275	600529	STUDY_ORIENT	n/a	n/a	3	1	PIE	n/a	PIE	NET	7	[0, 0, 0]	-999	PAL1	0	R1130M
918.813	4.0	600963	STUDY_PAIR	n/a	wordpools/wordpool_EN.txt	3	1	PIE	n/a	PIE	NET	7	[0, 0, 0]	-999	PAL1	0	R1130M
923.831	0.275	603471	STUDY_ORIENT	n/a	n/a	4	6	FLAME	n/a	FLAME	MOUTH	7	[0, 0, 0]	-999	PAL1	0	R1130M
924.748	4.0	603930	STUDY_PAIR	n/a	wordpools/wordpool_EN.txt	4	6	FLAME	n/a	FLAME	MOUTH	7	[0, 0, 0]	-999	PAL1	0	R1130M
929.782	0.275	606447	STUDY_ORIENT	n/a	n/a	5	5	PASTE	n/a	PASTE	BROOM	7	[0, 0, 0]	-999	PAL1	0	R1130M
930.616	4.0	606864	STUDY_PAIR	n/a	wordpools/wordpool_EN.txt	5	5	PASTE	n/a	PASTE	BROOM	7	[0, 0, 0]	-999	PAL1	0	R1130M
935.634	0.275	609373	STUDY_ORIENT	n/a	n/a	6	2	SNOW	n/a	WEED	SNOW	7	[0, 0, 0]	-999	PAL1	0	R1130M
936.468	4.0	609790	STUDY_PAIR	n/a	wordpools/wordpool_EN.txt	6	2	SNOW	n/a	WEED	SNOW	7	[0, 0, 0]	-999	PAL1	0	R1130M
940.486	0.999	611798	START	n/a	n/a	-999	-999	n/a	n/a	n/a	n/a	7	[-999, -999, -999]	-999	PAL1	0	R1130M
941.485	0.017	612298	MATH_START	n/a	n/a	-999	-999	n/a	n/a	n/a	n/a	7	[0, 0, 0]	-999	PAL1	0	R1130M
941.502	7.001	612306	PROB	6.976	n/a	-999	-999	n/a	n/a	n/a	n/a	7	[7, 6, 3]	16	PAL1	0	R1130M
948.503	6.735	615807	PROB	6.702	n/a	-999	-999	n/a	n/a	n/a	n/a	7	[8, 3, 1]	12	PAL1	0	R1130M
955.238	9.36	619174	PROB	9.36	n/a	-999	-999	n/a	n/a	n/a	n/a	7	[8, 4, 1]	13	PAL1	0	R1130M
964.598	0.009	623854	STOP	n/a	n/a	-999	-999	n/a	n/a	n/a	n/a	7	[-999, -999, -999]	-999	PAL1	0	R1130M
964.607	0.0	623858	MATH_END	n/a	n/a	-999	-999	n/a	n/a	n/a	n/a	7	[0, 0, 0]	-999	PAL1	0	R1130M
964.607	0.016	623858	TEST_START	n/a	n/a	-999	-999	n/a	n/a	n/a	n/a	7	[0, 0, 0]	-999	PAL1	0	R1130M
964.623	0.275	623866	TEST_ORIENT	n/a	n/a	3	1	PIE	n/a	PIE	NET	7	[0, 0, 0]	-999	PAL1	0	R1130M
965.423	4.0	624266	TEST_PROBE	n/a	wordpools/wordpool_EN.txt	3	1	PIE	n/a	PIE	NET	7	[0, 0, 0]	-999	PAL1	0	R1130M
965.424	0.0	624267	REC_START	n/a	n/a	3	-999	n/a	n/a	n/a	n/a	7	[0, 0, 0]	-999	PAL1	0	R1130M
965.424	5.008	624267	REC_EVENT	0.0	n/a	3	1	PIE	<>	PIE	NET	7	[0, 0, 0]	-999	PAL1	0	R1130M
970.432	0.009	626771	REC_END	n/a	n/a	3	-999	n/a	n/a	n/a	n/a	7	[0, 0, 0]	-999	PAL1	0	R1130M
970.441	0.275	626775	TEST_ORIENT	n/a	n/a	6	2	SNOW	n/a	WEED	SNOW	7	[0, 0, 0]	-999	PAL1	0	R1130M
971.275	4.0	627192	TEST_PROBE	n/a	wordpools/wordpool_EN.txt	6	2	SNOW	n/a	WEED	SNOW	7	[0, 0, 0]	-999	PAL1	0	R1130M
971.275	0.0	627192	REC_START	n/a	n/a	6	-999	n/a	n/a	n/a	n/a	7	[0, 0, 0]	-999	PAL1	0	R1130M
971.275	5.017	627192	REC_EVENT	0.0	n/a	6	2	SNOW	<>	WEED	SNOW	7	[0, 0, 0]	-999	PAL1	0	R1130M
976.292	0.017	629700	REC_END	n/a	n/a	6	-999	n/a	n/a	n/a	n/a	7	[0, 0, 0]	-999	PAL1	0	R1130M
976.309	0.275	629709	TEST_ORIENT	n/a	n/a	1	3	ROSE	CLAY	ROSE	CLAY	7	[0, 0, 0]	-999	PAL1	0	R1130M
977.292	4.0	630200	TEST_PROBE	n/a	wordpools/wordpool_EN.txt	1	3	ROSE	CLAY	ROSE	CLAY	7	[0, 0, 0]	-999	PAL1	0	R1130M
977.293	0.509	630201	REC_START	n/a	n/a	1	-999	n/a	CLAY	n/a	n/a	7	[0, 0, 0]	-999	PAL1	0	R1130M
977.802	1.669	630455	REC_EVENT	0.509	n/a	1	3	ROSE	<>	ROSE	CLAY	7	[0, 0, 0]	-999	PAL1	0	R1130M
979.471	2.83	631290	REC_EVENT	2.178	n/a	1	3	ROSE	CLAY	ROSE	CLAY	7	[0, 0, 0]	-999	PAL1	0	R1130M
982.301	0.009	632705	REC_END	n/a	n/a	1	-999	n/a	n/a	n/a	n/a	7	[0, 0, 0]	-999	PAL1	0	R1130M
982.31	0.275	632709	TEST_ORIENT	n/a	n/a	2	4	FAN	n/a	BLUSH	FAN	7	[0, 0, 0]	-999	PAL1	0	R1130M
983.126	4.0	633117	TEST_PROBE	n/a	wordpools/wordpool_EN.txt	2	4	FAN	n/a	BLUSH	FAN	7	[0, 0, 0]	-999	PAL1	0	R1130M
983.127	0.0	633118	REC_START	n/a	n/a	2	-999	n/a	n/a	n/a	n/a	7	[0, 0, 0]	-999	PAL1	0	R1130M
983.127	5.033	633118	REC_EVENT	0.0	n/a	2	4	FAN	<>	BLUSH	FAN	7	[0, 0, 0]	-999	PAL1	0	R1130M
988.16	0.017	635634	REC_END	n/a	n/a	2	-999	n/a	n/a	n/a	n/a	7	[0, 0, 0]	-999	PAL1	0	R1130M
988.177	0.275	635643	TEST_ORIENT	n/a	n/a	5	5	PASTE	n/a	PASTE	BROOM	7	[0, 0, 0]	-999	PAL1	0	R1130M
989.111	4.0	636110	TEST_PROBE	n/a	wordpools/wordpool_EN.txt	5	5	PASTE	n/a	PASTE	BROOM	7	[0, 0, 0]	-999	PAL1	0	R1130M
989.111	0.0	636110	REC_START	n/a	n/a	5	-999	n/a	n/a	n/a	n/a	7	[0, 0, 0]	-999	PAL1	0	R1130M
989.111	5.017	636110	REC_EVENT	0.0	n/a	5	5	PASTE	<>	PASTE	BROOM	7	[0, 0, 0]	-999	PAL1	0	R1130M
994.128	0.017	638618	REC_END	n/a	n/a	5	-999	n/a	n/a	n/a	n/a	7	[0, 0, 0]	-999	PAL1	0	R1130M
994.145	0.275	638626	TEST_ORIENT	n/a	n/a	4	6	FLAME	n/a	FLAME	MOUTH	7	[0, 0, 0]	-999	PAL1	0	R1130M
995.062	0.0	639085	REC_EVENT	0.0	n/a	4	6	FLAME	<>	FLAME	MOUTH	7	[0, 0, 0]	-999	PAL1	0	R1130M
995.062	0.0	639085	REC_START	n/a	n/a	4	-999	n/a	n/a	n/a	n/a	7	[0, 0, 0]	-999	PAL1	0	R1130M
995.062	4.0	639085	TEST_PROBE	n/a	wordpools/wordpool_EN.txt	4	6	FLAME	n/a	FLAME	MOUTH	7	[0, 0, 0]	-999	PAL1	0	R1130M
1000.08	5.174	641594	REC_END	n/a	n/a	4	-999	n/a	n/a	n/a	n/a	7	[0, 0, 0]	-999	PAL1	0	R1130M
1005.254	10.445	644181	ENCODING_START	n/a	n/a	0	-999	n/a	n/a	n/a	n/a	8	[0, 0, 0]	-999	PAL1	0	R1130M
1015.699	0.275	649403	STUDY_ORIENT	n/a	n/a	1	3	SWORD	n/a	SWORD	FOX	8	[0, 0, 0]	-999	PAL1	0	R1130M
1016.666	4.0	649886	STUDY_PAIR	n/a	wordpools/wordpool_EN.txt	1	3	SWORD	n/a	SWORD	FOX	8	[0, 0, 0]	-999	PAL1	0	R1130M
1021.684	0.275	652395	STUDY_ORIENT	n/a	n/a	2	4	FILM	n/a	CONE	FILM	8	[0, 0, 0]	-999	PAL1	0	R1130M
1022.602	4.0	652854	STUDY_PAIR	n/a	wordpools/wordpool_EN.txt	2	4	FILM	n/a	CONE	FILM	8	[0, 0, 0]	-999	PAL1	0	R1130M
1027.636	0.275	655371	STUDY_ORIENT	n/a	n/a	3	5	ELF	n/a	ELF	FUR	8	[0, 0, 0]	-999	PAL1	0	R1130M
1028.453	4.0	655780	STUDY_PAIR	n/a	wordpools/wordpool_EN.txt	3	5	ELF	n/a	ELF	FUR	8	[0, 0, 0]	-999	PAL1	0	R1130M
1033.487	0.275	658296	STUDY_ORIENT	n/a	n/a	4	6	DART	SUN	DART	SUN	8	[0, 0, 0]	-999	PAL1	0	R1130M
1034.287	4.0	658696	STUDY_PAIR	n/a	wordpools/wordpool_EN.txt	4	6	DART	SUN	DART	SUN	8	[0, 0, 0]	-999	PAL1	0	R1130M
1039.305	0.275	661205	STUDY_ORIENT	n/a	n/a	5	1	BADGE	FACE	FACE	BADGE	8	[0, 0, 0]	-999	PAL1	0	R1130M
1040.137	4.0	661621	STUDY_PAIR	n/a	wordpools/wordpool_EN.txt	5	1	BADGE	FACE	FACE	BADGE	8	[0, 0, 0]	-999	PAL1	0	R1130M
1045.155	0.275	664130	STUDY_ORIENT	n/a	n/a	6	2	ROOT	n/a	PIPE	ROOT	8	[0, 0, 0]	-999	PAL1	0	R1130M
1045.939	4.0	664522	STUDY_PAIR	n/a	wordpools/wordpool_EN.txt	6	2	ROOT	n/a	PIPE	ROOT	8	[0, 0, 0]	-999	PAL1	0	R1130M
1049.956	1.0	666530	START	n/a	n/a	-999	-999	n/a	n/a	n/a	n/a	8	[-999, -999, -999]	-999	PAL1	0	R1130M
1050.956	0.017	667030	MATH_START	n/a	n/a	-999	-999	n/a	n/a	n/a	n/a	8	[0, 0, 0]	-999	PAL1	0	R1130M
1050.973	7.118	667039	PROB	7.088	n/a	-999	-999	n/a	n/a	n/a	n/a	8	[8, 3, 3]	14	PAL1	0	R1130M
1058.091	9.869	670598	PROB	9.834	n/a	-999	-999	n/a	n/a	n/a	n/a	8	[9, 9, 7]	26	PAL1	0	R1130M
1067.96	10.109	675532	PROB	10.109	n/a	-999	-999	n/a	n/a	n/a	n/a	8	[3, 7, 7]	17	PAL1	0	R1130M
1078.069	0.009	680586	STOP	n/a	n/a	-999	-999	n/a	n/a	n/a	n/a	8	[-999, -999, -999]	-999	PAL1	0	R1130M
1078.078	0.0	680591	MATH_END	n/a	n/a	-999	-999	n/a	n/a	n/a	n/a	8	[0, 0, 0]	-999	PAL1	0	R1130M
1078.078	0.017	680591	TEST_START	n/a	n/a	-999	-999	n/a	n/a	n/a	n/a	8	[0, 0, 0]	-999	PAL1	0	R1130M
1078.095	0.275	680599	TEST_ORIENT	n/a	n/a	5	1	BADGE	FACE	FACE	BADGE	8	[0, 0, 0]	-999	PAL1	0	R1130M
1078.878	4.0	680991	TEST_PROBE	n/a	wordpools/wordpool_EN.txt	5	1	BADGE	FACE	FACE	BADGE	8	[0, 0, 0]	-999	PAL1	0	R1130M
1078.879	1.676	680991	REC_START	n/a	n/a	5	-999	n/a	FACE	n/a	n/a	8	[0, 0, 0]	-999	PAL1	0	R1130M
1080.555	3.332	681829	REC_EVENT	1.676	n/a	5	1	BADGE	FACE	FACE	BADGE	8	[0, 0, 0]	-999	PAL1	0	R1130M
1083.887	0.009	683495	REC_END	n/a	n/a	5	-999	n/a	n/a	n/a	n/a	8	[0, 0, 0]	-999	PAL1	0	R1130M
1083.896	0.275	683499	TEST_ORIENT	n/a	n/a	6	2	ROOT	n/a	PIPE	ROOT	8	[0, 0, 0]	-999	PAL1	0	R1130M
1084.813	4.0	683958	TEST_PROBE	n/a	wordpools/wordpool_EN.txt	6	2	ROOT	n/a	PIPE	ROOT	8	[0, 0, 0]	-999	PAL1	0	R1130M
1084.813	0.0	683958	REC_START	n/a	n/a	6	-999	n/a	n/a	n/a	n/a	8	[0, 0, 0]	-999	PAL1	0	R1130M
1084.813	5.017	683958	REC_EVENT	0.0	n/a	6	2	ROOT	<>	PIPE	ROOT	8	[0, 0, 0]	-999	PAL1	0	R1130M
1089.83	0.017	686466	REC_END	n/a	n/a	6	-999	n/a	n/a	n/a	n/a	8	[0, 0, 0]	-999	PAL1	0	R1130M
1089.847	0.275	686475	TEST_ORIENT	n/a	n/a	1	3	SWORD	n/a	SWORD	FOX	8	[0, 0, 0]	-999	PAL1	0	R1130M
1090.747	4.0	686925	TEST_PROBE	n/a	wordpools/wordpool_EN.txt	1	3	SWORD	n/a	SWORD	FOX	8	[0, 0, 0]	-999	PAL1	0	R1130M
1090.748	0.0	686925	REC_START	n/a	n/a	1	-999	n/a	n/a	n/a	n/a	8	[0, 0, 0]	-999	PAL1	0	R1130M
1090.748	5.008	686925	REC_EVENT	0.0	n/a	1	3	SWORD	<>	SWORD	FOX	8	[0, 0, 0]	-999	PAL1	0	R1130M
1095.756	0.009	689429	REC_END	n/a	n/a	1	-999	n/a	n/a	n/a	n/a	8	[0, 0, 0]	-999	PAL1	0	R1130M
1095.765	0.275	689434	TEST_ORIENT	n/a	n/a	2	4	FILM	n/a	CONE	FILM	8	[0, 0, 0]	-999	PAL1	0	R1130M
1096.732	4.0	689917	TEST_PROBE	n/a	wordpools/wordpool_EN.txt	2	4	FILM	n/a	CONE	FILM	8	[0, 0, 0]	-999	PAL1	0	R1130M
1096.732	0.0	689917	REC_START	n/a	n/a	2	-999	n/a	n/a	n/a	n/a	8	[0, 0, 0]	-999	PAL1	0	R1130M
1096.732	5.018	689917	REC_EVENT	0.0	n/a	2	4	FILM	<>	CONE	FILM	8	[0, 0, 0]	-999	PAL1	0	R1130M
1101.75	0.016	692426	REC_END	n/a	n/a	2	-999	n/a	n/a	n/a	n/a	8	[0, 0, 0]	-999	PAL1	0	R1130M
1101.766	0.275	692434	TEST_ORIENT	n/a	n/a	3	5	ELF	n/a	ELF	FUR	8	[0, 0, 0]	-999	PAL1	0	R1130M
1102.618	4.0	692860	TEST_PROBE	n/a	wordpools/wordpool_EN.txt	3	5	ELF	n/a	ELF	FUR	8	[0, 0, 0]	-999	PAL1	0	R1130M
1102.618	0.0	692860	REC_START	n/a	n/a	3	-999	n/a	n/a	n/a	n/a	8	[0, 0, 0]	-999	PAL1	0	R1130M
1102.618	5.017	692860	REC_EVENT	0.0	n/a	3	5	ELF	<>	ELF	FUR	8	[0, 0, 0]	-999	PAL1	0	R1130M
1107.635	0.017	695368	REC_END	n/a	n/a	3	-999	n/a	n/a	n/a	n/a	8	[0, 0, 0]	-999	PAL1	0	R1130M
1107.652	0.275	695377	TEST_ORIENT	n/a	n/a	4	6	DART	SUN	DART	SUN	8	[0, 0, 0]	-999	PAL1	0	R1130M
1108.619	4.0	695860	TEST_PROBE	n/a	wordpools/wordpool_EN.txt	4	6	DART	SUN	DART	SUN	8	[0, 0, 0]	-999	PAL1	0	R1130M
1108.62	2.452	695861	REC_START	n/a	n/a	4	-999	n/a	SUN	n/a	n/a	8	[0, 0, 0]	-999	PAL1	0	R1130M
1111.072	2.572	697087	REC_EVENT	2.452	n/a	4	6	DART	SUN	DART	SUN	8	[0, 0, 0]	-999	PAL1	0	R1130M
1113.644	7.049	698373	REC_END	n/a	n/a	4	-999	n/a	n/a	n/a	n/a	8	[0, 0, 0]	-999	PAL1	0	R1130M
1120.693	10.446	701897	ENCODING_START	n/a	n/a	0	-999	n/a	n/a	n/a	n/a	9	[0, 0, 0]	-999	PAL1	0	R1130M
1131.139	0.275	707120	STUDY_ORIENT	n/a	n/a	1	1	OAR	MOTH	OAR	MOTH	9	[0, 0, 0]	-999	PAL1	0	R1130M
1131.973	4.0	707537	STUDY_PAIR	n/a	wordpools/wordpool_EN.txt	1	1	OAR	MOTH	OAR	MOTH	9	[0, 0, 0]	-999	PAL1	0	R1130M
1137.007	0.275	710054	STUDY_ORIENT	n/a	n/a	2	4	SEAL	n/a	SEAL	PEA	9	[0, 0, 0]	-999	PAL1	0	R1130M
1137.89	4.0	710495	STUDY_PAIR	n/a	wordpools/wordpool_EN.txt	2	4	SEAL	n/a	SEAL	PEA	9	[0, 0, 0]	-999	PAL1	0	R1130M
1142.908	0.275	713004	STUDY_ORIENT	n/a	n/a	3	3	CLOCK	n/a	CHIN	CLOCK	9	[0, 0, 0]	-999	PAL1	0	R1130M
1143.925	4.0	713512	STUDY_PAIR	n/a	wordpools/wordpool_EN.txt	3	3	CLOCK	n/a	CHIN	CLOCK	9	[0, 0, 0]	-999	PAL1	0	R1130M
1148.959	0.275	716029	STUDY_ORIENT	n/a	n/a	4	2	RUG	n/a	RUG	GLASS	9	[0, 0, 0]	-999	PAL1	0	R1130M
1149.943	4.0	716521	STUDY_PAIR	n/a	wordpools/wordpool_EN.txt	4	2	RUG	n/a	RUG	GLASS	9	[0, 0, 0]	-999	PAL1	0	R1130M
1154.977	0.275	719038	STUDY_ORIENT	n/a	n/a	5	5	CHAIR	n/a	STORM	CHAIR	9	[0, 0, 0]	-999	PAL1	0	R1130M
1155.844	4.0	719472	STUDY_PAIR	n/a	wordpools/wordpool_EN.txt	5	5	CHAIR	n/a	STORM	CHAIR	9	[0, 0, 0]	-999	PAL1	0	R1130M
1160.878	0.275	721988	STUDY_ORIENT	n/a	n/a	6	6	SLUSH	n/a	SPEAR	SLUSH	9	[0, 0, 0]	-999	PAL1	0	R1130M
1161.712	4.0	722405	STUDY_PAIR	n/a	wordpools/wordpool_EN.txt	6	6	SLUSH	n/a	SPEAR	SLUSH	9	[0, 0, 0]	-999	PAL1	0	R1130M
1165.73	0.999	724414	START	n/a	n/a	-999	-999	n/a	n/a	n/a	n/a	9	[-999, -999, -999]	-999	PAL1	0	R1130M
1166.729	0.017	724914	MATH_START	n/a	n/a	-999	-999	n/a	n/a	n/a	n/a	9	[0, 0, 0]	-999	PAL1	0	R1130M
1166.746	7.486	724922	PROB	7.459	n/a	-999	-999	n/a	n/a	n/a	n/a	9	[9, 9, 9]	27	PAL1	0	R1130M
1174.232	9.767	728665	PROB	9.733	n/a	-999	-999	n/a	n/a	n/a	n/a	9	[7, 6, 6]	19	PAL1	0	R1130M
1183.999	6.415	733548	PROB	6.415	n/a	-999	-999	n/a	n/a	n/a	n/a	9	[1, 2, 9]	12	PAL1	0	R1130M
1190.414	0.004	736756	STOP	n/a	n/a	-999	-999	n/a	n/a	n/a	n/a	9	[-999, -999, -999]	-999	PAL1	0	R1130M
1190.418	0.0	736758	MATH_END	n/a	n/a	-999	-999	n/a	n/a	n/a	n/a	9	[0, 0, 0]	-999	PAL1	0	R1130M
1190.418	0.017	736758	TEST_START	n/a	n/a	-999	-999	n/a	n/a	n/a	n/a	9	[0, 0, 0]	-999	PAL1	0	R1130M
1190.435	0.275	736766	TEST_ORIENT	n/a	n/a	1	1	OAR	MOTH	OAR	MOTH	9	[0, 0, 0]	-999	PAL1	0	R1130M
1191.335	4.0	737216	TEST_PROBE	n/a	wordpools/wordpool_EN.txt	1	1	OAR	MOTH	OAR	MOTH	9	[0, 0, 0]	-999	PAL1	0	R1130M
1191.336	1.948	737217	REC_START	n/a	n/a	1	-999	n/a	MOTH	n/a	n/a	9	[0, 0, 0]	-999	PAL1	0	R1130M
1193.284	3.06	738190	REC_EVENT	1.948	n/a	1	1	OAR	MOTH	OAR	MOTH	9	[0, 0, 0]	-999	PAL1	0	R1130M
1196.344	0.009	739720	REC_END	n/a	n/a	1	-999	n/a	n/a	n/a	n/a	9	[0, 0, 0]	-999	PAL1	0	R1130M
1196.353	0.275	739725	TEST_ORIENT	n/a	n/a	4	2	RUG	n/a	RUG	GLASS	9	[0, 0, 0]	-999	PAL1	0	R1130M
1197.22	4.0	740158	TEST_PROBE	n/a	wordpools/wordpool_EN.txt	4	2	RUG	n/a	RUG	GLASS	9	[0, 0, 0]	-999	PAL1	0	R1130M
1197.22	0.0	740158	REC_START	n/a	n/a	4	-999	n/a	n/a	n/a	n/a	9	[0, 0, 0]	-999	PAL1	0	R1130M
1197.22	5.017	740158	REC_EVENT	0.0	n/a	4	2	RUG	<>	RUG	GLASS	9	[0, 0, 0]	-999	PAL1	0	R1130M
1202.237	0.017	742667	REC_END	n/a	n/a	4	-999	n/a	n/a	n/a	n/a	9	[0, 0, 0]	-999	PAL1	0	R1130M
1202.254	0.275	742675	TEST_ORIENT	n/a	n/a	3	3	CLOCK	n/a	CHIN	CLOCK	9	[0, 0, 0]	-999	PAL1	0	R1130M
1203.238	4.0	743167	TEST_PROBE	n/a	wordpools/wordpool_EN.txt	3	3	CLOCK	n/a	CHIN	CLOCK	9	[0, 0, 0]	-999	PAL1	0	R1130M
1203.238	0.0	743167	REC_START	n/a	n/a	3	-999	n/a	n/a	n/a	n/a	9	[0, 0, 0]	-999	PAL1	0	R1130M
1203.238	5.017	743167	REC_EVENT	0.0	n/a	3	3	CLOCK	<>	CHIN	CLOCK	9	[0, 0, 0]	-999	PAL1	0	R1130M
1208.255	0.017	745676	REC_END	n/a	n/a	3	-999	n/a	n/a	n/a	n/a	9	[0, 0, 0]	-999	PAL1	0	R1130M
1208.272	0.275	745684	TEST_ORIENT	n/a	n/a	2	4	SEAL	n/a	SEAL	PEA	9	[0, 0, 0]	-999	PAL1	0	R1130M
1209.104	4.0	746100	TEST_PROBE	n/a	wordpools/wordpool_EN.txt	2	4	SEAL	n/a	SEAL	PEA	9	[0, 0, 0]	-999	PAL1	0	R1130M
1209.105	0.0	746101	REC_START	n/a	n/a	2	-999	n/a	n/a	n/a	n/a	9	[0, 0, 0]	-999	PAL1	0	R1130M
1209.105	5.009	746101	REC_EVENT	0.0	n/a	2	4	SEAL	<>	SEAL	PEA	9	[0, 0, 0]	-999	PAL1	0	R1130M
1214.114	0.008	748605	REC_END	n/a	n/a	2	-999	n/a	n/a	n/a	n/a	9	[0, 0, 0]	-999	PAL1	0	R1130M
1214.122	0.275	748609	TEST_ORIENT	n/a	n/a	5	5	CHAIR	n/a	STORM	CHAIR	9	[0, 0, 0]	-999	PAL1	0	R1130M
1215.039	4.0	749067	TEST_PROBE	n/a	wordpools/wordpool_EN.txt	5	5	CHAIR	n/a	STORM	CHAIR	9	[0, 0, 0]	-999	PAL1	0	R1130M
1215.039	0.0	749067	REC_START	n/a	n/a	5	-999	n/a	n/a	n/a	n/a	9	[0, 0, 0]	-999	PAL1	0	R1130M
1215.039	5.017	749067	REC_EVENT	0.0	n/a	5	5	CHAIR	<>	STORM	CHAIR	9	[0, 0, 0]	-999	PAL1	0	R1130M
1220.056	0.017	751576	REC_END	n/a	n/a	5	-999	n/a	n/a	n/a	n/a	9	[0, 0, 0]	-999	PAL1	0	R1130M
1220.073	0.275	751584	TEST_ORIENT	n/a	n/a	6	6	SLUSH	n/a	SPEAR	SLUSH	9	[0, 0, 0]	-999	PAL1	0	R1130M
1221.007	4.0	752051	TEST_PROBE	n/a	wordpools/wordpool_EN.txt	6	6	SLUSH	n/a	SPEAR	SLUSH	9	[0, 0, 0]	-999	PAL1	0	R1130M
1221.008	0.0	752052	REC_EVENT	0.0	n/a	6	6	SLUSH	<>	SPEAR	SLUSH	9	[0, 0, 0]	-999	PAL1	0	R1130M
1221.008	5.016	752052	REC_START	n/a	n/a	6	-999	n/a	n/a	n/a	n/a	9	[0, 0, 0]	-999	PAL1	0	R1130M
1226.024	12.502	754560	REC_END	n/a	n/a	6	-999	n/a	n/a	n/a	n/a	9	[0, 0, 0]	-999	PAL1	0	R1130M
1238.526	10.453	760810	ENCODING_START	n/a	n/a	0	-999	n/a	n/a	n/a	n/a	10	[0, 0, 0]	-999	PAL1	0	R1130M
1248.979	0.275	766036	STUDY_ORIENT	n/a	n/a	1	3	SPONGE	n/a	HORN	SPONGE	10	[0, 0, 0]	-999	PAL1	0	R1130M
1249.846	4.0	766470	STUDY_PAIR	n/a	wordpools/wordpool_EN.txt	1	3	SPONGE	n/a	HORN	SPONGE	10	[0, 0, 0]	-999	PAL1	0	R1130M
1254.88	0.275	768987	STUDY_ORIENT	n/a	n/a	2	6	VINE	n/a	SHRIMP	VINE	10	[0, 0, 0]	-999	PAL1	0	R1130M
1255.747	4.0	769420	STUDY_PAIR	n/a	wordpools/wordpool_EN.txt	2	6	VINE	n/a	SHRIMP	VINE	10	[0, 0, 0]	-999	PAL1	0	R1130M
1260.765	0.275	771929	STUDY_ORIENT	n/a	n/a	3	1	MULE	PEA	MULE	BED	10	[0, 0, 0]	-999	PAL1	0	R1130M
1261.599	4.0	772346	STUDY_PAIR	n/a	wordpools/wordpool_EN.txt	3	1	MULE	PEA	MULE	BED	10	[0, 0, 0]	-999	PAL1	0	R1130M
1266.617	0.275	774855	STUDY_ORIENT	n/a	n/a	4	4	PET	n/a	PET	MUG	10	[0, 0, 0]	-999	PAL1	0	R1130M
1267.634	4.0	775363	STUDY_PAIR	n/a	wordpools/wordpool_EN.txt	4	4	PET	n/a	PET	MUG	10	[0, 0, 0]	-999	PAL1	0	R1130M
1272.667	0.275	777880	STUDY_ORIENT	n/a	n/a	5	5	DRUM	n/a	DRUM	TEA	10	[0, 0, 0]	-999	PAL1	0	R1130M
1273.502	4.0	778297	STUDY_PAIR	n/a	wordpools/wordpool_EN.txt	5	5	DRUM	n/a	DRUM	TEA	10	[0, 0, 0]	-999	PAL1	0	R1130M
1278.536	0.275	780814	STUDY_ORIENT	n/a	n/a	6	2	FOG	DIME	DIME	FOG	10	[0, 0, 0]	-999	PAL1	0	R1130M
1279.319	4.0	781206	STUDY_PAIR	n/a	wordpools/wordpool_EN.txt	6	2	FOG	DIME	DIME	FOG	10	[0, 0, 0]	-999	PAL1	0	R1130M
1283.32	1.0	783206	START	n/a	n/a	-999	-999	n/a	n/a	n/a	n/a	10	[-999, -999, -999]	-999	PAL1	0	R1130M
1284.32	0.017	783706	MATH_START	n/a	n/a	-999	-999	n/a	n/a	n/a	n/a	10	[0, 0, 0]	-999	PAL1	0	R1130M
1284.337	16.819	783714	PROB	16.788	n/a	-999	-999	n/a	n/a	n/a	n/a	10	[9, 3, 2]	14	PAL1	0	R1130M
1301.156	7.921	792123	PROB	7.921	n/a	-999	-999	n/a	n/a	n/a	n/a	10	[8, 8, 8]	24	PAL1	0	R1130M
1309.077	0.014	796084	STOP	n/a	n/a	-999	-999	n/a	n/a	n/a	n/a	10	[-999, -999, -999]	-999	PAL1	0	R1130M
1309.091	0.0	796091	MATH_END	n/a	n/a	-999	-999	n/a	n/a	n/a	n/a	10	[0, 0, 0]	-999	PAL1	0	R1130M
1309.091	0.017	796091	TEST_START	n/a	n/a	-999	-999	n/a	n/a	n/a	n/a	10	[0, 0, 0]	-999	PAL1	0	R1130M
1309.108	0.275	796099	TEST_ORIENT	n/a	n/a	3	1	MULE	PEA	MULE	BED	10	[0, 0, 0]	-999	PAL1	0	R1130M
1309.908	4.0	796499	TEST_PROBE	n/a	wordpools/wordpool_EN.txt	3	1	MULE	PEA	MULE	BED	10	[0, 0, 0]	-999	PAL1	0	R1130M
1309.908	3.541	796499	REC_START	n/a	n/a	3	-999	n/a	PEA	n/a	n/a	10	[0, 0, 0]	-999	PAL1	0	R1130M
1313.449	1.476	798270	REC_EVENT	3.541	n/a	3	1	MULE	PEA	MULE	BED	10	[0, 0, 0]	-999	PAL1	0	R1130M
1314.925	0.017	799008	REC_END	n/a	n/a	3	-999	n/a	n/a	n/a	n/a	10	[0, 0, 0]	-999	PAL1	0	R1130M
1314.942	0.275	799016	TEST_ORIENT	n/a	n/a	6	2	FOG	DIME	DIME	FOG	10	[0, 0, 0]	-999	PAL1	0	R1130M
1315.942	4.0	799516	TEST_PROBE	n/a	wordpools/wordpool_EN.txt	6	2	FOG	DIME	DIME	FOG	10	[0, 0, 0]	-999	PAL1	0	R1130M
1315.943	1.549	799517	REC_START	n/a	n/a	6	-999	n/a	DIME	n/a	n/a	10	[0, 0, 0]	-999	PAL1	0	R1130M
1317.492	3.459	800291	REC_EVENT	1.549	n/a	6	2	FOG	DIME	DIME	FOG	10	[0, 0, 0]	-999	PAL1	0	R1130M
1320.951	0.009	802020	REC_END	n/a	n/a	6	-999	n/a	n/a	n/a	n/a	10	[0, 0, 0]	-999	PAL1	0	R1130M
1320.96	0.275	802025	TEST_ORIENT	n/a	n/a	1	3	SPONGE	n/a	HORN	SPONGE	10	[0, 0, 0]	-999	PAL1	0	R1130M
1321.843	4.0	802466	TEST_PROBE	n/a	wordpools/wordpool_EN.txt	1	3	SPONGE	n/a	HORN	SPONGE	10	[0, 0, 0]	-999	PAL1	0	R1130M
1321.844	0.0	802467	REC_START	n/a	n/a	1	-999	n/a	n/a	n/a	n/a	10	[0, 0, 0]	-999	PAL1	0	R1130M
1321.844	5.008	802467	REC_EVENT	0.0	n/a	1	3	SPONGE	<>	HORN	SPONGE	10	[0, 0, 0]	-999	PAL1	0	R1130M
1326.852	0.009	804971	REC_END	n/a	n/a	1	-999	n/a	n/a	n/a	n/a	10	[0, 0, 0]	-999	PAL1	0	R1130M
1326.861	0.275	804975	TEST_ORIENT	n/a	n/a	4	4	PET	n/a	PET	MUG	10	[0, 0, 0]	-999	PAL1	0	R1130M
1327.828	4.0	805459	TEST_PROBE	n/a	wordpools/wordpool_EN.txt	4	4	PET	n/a	PET	MUG	10	[0, 0, 0]	-999	PAL1	0	R1130M
1327.828	0.0	805459	REC_START	n/a	n/a	4	-999	n/a	n/a	n/a	n/a	10	[0, 0, 0]	-999	PAL1	0	R1130M
1327.828	5.018	805459	REC_EVENT	0.0	n/a	4	4	PET	<>	PET	MUG	10	[0, 0, 0]	-999	PAL1	0	R1130M
1332.846	0.016	807968	REC_END	n/a	n/a	4	-999	n/a	n/a	n/a	n/a	10	[0, 0, 0]	-999	PAL1	0	R1130M
1332.862	0.275	807976	TEST_ORIENT	n/a	n/a	5	5	DRUM	n/a	DRUM	TEA	10	[0, 0, 0]	-999	PAL1	0	R1130M
1333.779	4.0	808434	TEST_PROBE	n/a	wordpools/wordpool_EN.txt	5	5	DRUM	n/a	DRUM	TEA	10	[0, 0, 0]	-999	PAL1	0	R1130M
1333.78	0.0	808435	REC_START	n/a	n/a	5	-999	n/a	n/a	n/a	n/a	10	[0, 0, 0]	-999	PAL1	0	R1130M
1333.78	5.009	808435	REC_EVENT	0.0	n/a	5	5	DRUM	<>	DRUM	TEA	10	[0, 0, 0]	-999	PAL1	0	R1130M
1338.789	0.008	810939	REC_END	n/a	n/a	5	-999	n/a	n/a	n/a	n/a	10	[0, 0, 0]	-999	PAL1	0	R1130M
1338.797	0.275	810943	TEST_ORIENT	n/a	n/a	2	6	VINE	n/a	SHRIMP	VINE	10	[0, 0, 0]	-999	PAL1	0	R1130M
1339.78	4.0	811434	TEST_PROBE	n/a	wordpools/wordpool_EN.txt	2	6	VINE	n/a	SHRIMP	VINE	10	[0, 0, 0]	-999	PAL1	0	R1130M
1339.781	0.0	811435	REC_EVENT	0.0	n/a	2	6	VINE	<>	SHRIMP	VINE	10	[0, 0, 0]	-999	PAL1	0	R1130M
1339.781	5.009	811435	REC_START	n/a	n/a	2	-999	n/a	n/a	n/a	n/a	10	[0, 0, 0]	-999	PAL1	0	R1130M
1344.79	18.951	813939	REC_END	n/a	n/a	2	-999	n/a	n/a	n/a	n/a	10	[0, 0, 0]	-999	PAL1	0	R1130M
1363.741	10.446	823414	ENCODING_START	n/a	n/a	0	-999	n/a	n/a	n/a	n/a	11	[0, 0, 0]	-999	PAL1	0	R1130M
1374.187	0.275	828637	STUDY_ORIENT	n/a	n/a	1	3	FOOD	n/a	WAND	FOOD	11	[0, 0, 0]	-999	PAL1	0	R1130M
1375.154	4.0	829120	STUDY_PAIR	n/a	wordpools/wordpool_EN.txt	1	3	FOOD	n/a	WAND	FOOD	11	[0, 0, 0]	-999	PAL1	0	R1130M
1380.172	0.275	831629	STUDY_ORIENT	n/a	n/a	2	6	WAVE	n/a	CAR	WAVE	11	[0, 0, 0]	-999	PAL1	0	R1130M
1381.089	4.0	832088	STUDY_PAIR	n/a	wordpools/wordpool_EN.txt	2	6	WAVE	n/a	CAR	WAVE	11	[0, 0, 0]	-999	PAL1	0	R1130M
1386.123	0.275	834605	STUDY_ORIENT	n/a	n/a	3	5	FROG	n/a	HOOF	FROG	11	[0, 0, 0]	-999	PAL1	0	R1130M
1386.973	4.0	835030	STUDY_PAIR	n/a	wordpools/wordpool_EN.txt	3	5	FROG	n/a	HOOF	FROG	11	[0, 0, 0]	-999	PAL1	0	R1130M
1391.991	0.275	837538	STUDY_ORIENT	n/a	n/a	4	2	PEN	n/a	PEN	PEACH	11	[0, 0, 0]	-999	PAL1	0	R1130M
1392.841	4.0	837963	STUDY_PAIR	n/a	wordpools/wordpool_EN.txt	4	2	PEN	n/a	PEN	PEACH	11	[0, 0, 0]	-999	PAL1	0	R1130M
1397.859	0.275	840472	STUDY_ORIENT	n/a	n/a	5	1	DITCH	STICK	DITCH	STICK	11	[0, 0, 0]	-999	PAL1	0	R1130M
1398.676	4.0	840881	STUDY_PAIR	n/a	wordpools/wordpool_EN.txt	5	1	DITCH	STICK	DITCH	STICK	11	[0, 0, 0]	-999	PAL1	0	R1130M
1403.71	0.275	843398	STUDY_ORIENT	n/a	n/a	6	4	BOY	n/a	TAIL	BOY	11	[0, 0, 0]	-999	PAL1	0	R1130M
1404.561	4.0	843823	STUDY_PAIR	n/a	wordpools/wordpool_EN.txt	6	4	BOY	n/a	TAIL	BOY	11	[0, 0, 0]	-999	PAL1	0	R1130M
1408.563	0.999	845824	START	n/a	n/a	-999	-999	n/a	n/a	n/a	n/a	11	[-999, -999, -999]	-999	PAL1	0	R1130M
1409.562	0.017	846323	MATH_START	n/a	n/a	-999	-999	n/a	n/a	n/a	n/a	11	[0, 0, 0]	-999	PAL1	0	R1130M
1409.579	7.45	846332	PROB	7.426	n/a	-999	-999	n/a	n/a	n/a	n/a	11	[5, 6, 2]	13	PAL1	0	R1130M
1417.029	9.019	850057	PROB	8.992	n/a	-999	-999	n/a	n/a	n/a	n/a	11	[2, 8, 8]	18	PAL1	0	R1130M
1426.048	6.494	854566	PROB	6.494	n/a	-999	-999	n/a	n/a	n/a	n/a	11	[9, 4, 9]	22	PAL1	0	R1130M
1432.542	0.008	857813	STOP	n/a	n/a	-999	-999	n/a	n/a	n/a	n/a	11	[-999, -999, -999]	-999	PAL1	0	R1130M
1432.55	0.0	857817	MATH_END	n/a	n/a	-999	-999	n/a	n/a	n/a	n/a	11	[0, 0, 0]	-999	PAL1	0	R1130M
1432.55	0.017	857817	TEST_START	n/a	n/a	-999	-999	n/a	n/a	n/a	n/a	11	[0, 0, 0]	-999	PAL1	0	R1130M
1432.567	0.275	857825	TEST_ORIENT	n/a	n/a	5	1	DITCH	STICK	DITCH	STICK	11	[0, 0, 0]	-999	PAL1	0	R1130M
1433.5	4.0	858292	TEST_PROBE	n/a	wordpools/wordpool_EN.txt	5	1	DITCH	STICK	DITCH	STICK	11	[0, 0, 0]	-999	PAL1	0	R1130M
1433.501	1.587	858292	REC_START	n/a	n/a	5	-999	n/a	STICK	n/a	n/a	11	[0, 0, 0]	-999	PAL1	0	R1130M
1435.088	3.42	859086	REC_EVENT	1.587	n/a	5	1	DITCH	STICK	DITCH	STICK	11	[0, 0, 0]	-999	PAL1	0	R1130M
1438.508	0.01	860796	REC_END	n/a	n/a	5	-999	n/a	n/a	n/a	n/a	11	[0, 0, 0]	-999	PAL1	0	R1130M
1438.518	0.275	860801	TEST_ORIENT	n/a	n/a	4	2	PEN	n/a	PEN	PEACH	11	[0, 0, 0]	-999	PAL1	0	R1130M
1439.335	4.0	861209	TEST_PROBE	n/a	wordpools/wordpool_EN.txt	4	2	PEN	n/a	PEN	PEACH	11	[0, 0, 0]	-999	PAL1	0	R1130M
1439.336	0.0	861210	REC_START	n/a	n/a	4	-999	n/a	n/a	n/a	n/a	11	[0, 0, 0]	-999	PAL1	0	R1130M
1439.336	5.024	861210	REC_EVENT	0.0	n/a	4	2	PEN	<>	PEN	PEACH	11	[0, 0, 0]	-999	PAL1	0	R1130M
1444.36	0.009	863722	REC_END	n/a	n/a	4	-999	n/a	n/a	n/a	n/a	11	[0, 0, 0]	-999	PAL1	0	R1130M
1444.369	0.275	863726	TEST_ORIENT	n/a	n/a	1	3	FOOD	n/a	WAND	FOOD	11	[0, 0, 0]	-999	PAL1	0	R1130M
1445.353	4.0	864218	TEST_PROBE	n/a	wordpools/wordpool_EN.txt	1	3	FOOD	n/a	WAND	FOOD	11	[0, 0, 0]	-999	PAL1	0	R1130M
1445.353	0.0	864218	REC_START	n/a	n/a	1	-999	n/a	n/a	n/a	n/a	11	[0, 0, 0]	-999	PAL1	0	R1130M
1445.353	5.026	864218	REC_EVENT	0.0	n/a	1	3	FOOD	<>	WAND	FOOD	11	[0, 0, 0]	-999	PAL1	0	R1130M
1450.379	0.008	866731	REC_END	n/a	n/a	1	-999	n/a	n/a	n/a	n/a	11	[0, 0, 0]	-999	PAL1	0	R1130M
1450.387	0.275	866735	TEST_ORIENT	n/a	n/a	6	4	BOY	n/a	TAIL	BOY	11	[0, 0, 0]	-999	PAL1	0	R1130M
1451.237	4.0	867160	TEST_PROBE	n/a	wordpools/wordpool_EN.txt	6	4	BOY	n/a	TAIL	BOY	11	[0, 0, 0]	-999	PAL1	0	R1130M
1451.238	0.0	867160	REC_START	n/a	n/a	6	-999	n/a	n/a	n/a	n/a	11	[0, 0, 0]	-999	PAL1	0	R1130M
1451.238	5.025	867160	REC_EVENT	0.0	n/a	6	4	BOY	<>	TAIL	BOY	11	[0, 0, 0]	-999	PAL1	0	R1130M
1456.263	0.008	869673	REC_END	n/a	n/a	6	-999	n/a	n/a	n/a	n/a	11	[0, 0, 0]	-999	PAL1	0	R1130M
1456.271	0.275	869677	TEST_ORIENT	n/a	n/a	3	5	FROG	n/a	HOOF	FROG	11	[0, 0, 0]	-999	PAL1	0	R1130M
1457.305	4.0	870194	TEST_PROBE	n/a	wordpools/wordpool_EN.txt	3	5	FROG	n/a	HOOF	FROG	11	[0, 0, 0]	-999	PAL1	0	R1130M
1457.306	0.0	870194	REC_START	n/a	n/a	3	-999	n/a	n/a	n/a	n/a	11	[0, 0, 0]	-999	PAL1	0	R1130M
1457.306	5.016	870194	REC_EVENT	0.0	n/a	3	5	FROG	<>	HOOF	FROG	11	[0, 0, 0]	-999	PAL1	0	R1130M
1462.322	0.017	872702	REC_END	n/a	n/a	3	-999	n/a	n/a	n/a	n/a	11	[0, 0, 0]	-999	PAL1	0	R1130M
1462.339	0.275	872711	TEST_ORIENT	n/a	n/a	2	6	WAVE	n/a	CAR	WAVE	11	[0, 0, 0]	-999	PAL1	0	R1130M
1463.306	4.0	873194	TEST_PROBE	n/a	wordpools/wordpool_EN.txt	2	6	WAVE	n/a	CAR	WAVE	11	[0, 0, 0]	-999	PAL1	0	R1130M
1463.307	0.0	873194	REC_EVENT	0.0	n/a	2	6	WAVE	<>	CAR	WAVE	11	[0, 0, 0]	-999	PAL1	0	R1130M
1463.307	5.008	873194	REC_START	n/a	n/a	2	-999	n/a	n/a	n/a	n/a	11	[0, 0, 0]	-999	PAL1	0	R1130M
1468.315	8.442	875698	REC_END	n/a	n/a	2	-999	n/a	n/a	n/a	n/a	11	[0, 0, 0]	-999	PAL1	0	R1130M
1476.757	10.454	879919	ENCODING_START	n/a	n/a	0	-999	n/a	n/a	n/a	n/a	12	[0, 0, 0]	-999	PAL1	0	R1130M
1487.211	0.275	885146	STUDY_ORIENT	n/a	n/a	1	3	PURSE	HAND	HAND	PURSE	12	[0, 0, 0]	-999	PAL1	0	R1130M
1488.143	4.0	885612	STUDY_PAIR	n/a	wordpools/wordpool_EN.txt	1	3	PURSE	HAND	HAND	PURSE	12	[0, 0, 0]	-999	PAL1	0	R1130M
1493.161	0.275	888121	STUDY_ORIENT	n/a	n/a	2	2	FARM	n/a	FARM	SEA	12	[0, 0, 0]	-999	PAL1	0	R1130M
1493.961	4.0	888521	STUDY_PAIR	n/a	wordpools/wordpool_EN.txt	2	2	FARM	n/a	FARM	SEA	12	[0, 0, 0]	-999	PAL1	0	R1130M
1498.979	0.275	891029	STUDY_ORIENT	n/a	n/a	3	5	TOOTH	LOCK	LOCK	TOOTH	12	[0, 0, 0]	-999	PAL1	0	R1130M
1499.962	4.0	891521	STUDY_PAIR	n/a	wordpools/wordpool_EN.txt	3	5	TOOTH	LOCK	LOCK	TOOTH	12	[0, 0, 0]	-999	PAL1	0	R1130M
1504.98	0.275	894030	STUDY_ORIENT	n/a	n/a	4	6	FORK	n/a	TOE	FORK	12	[0, 0, 0]	-999	PAL1	0	R1130M
1505.98	4.0	894530	STUDY_PAIR	n/a	wordpools/wordpool_EN.txt	4	6	FORK	n/a	TOE	FORK	12	[0, 0, 0]	-999	PAL1	0	R1130M
1510.998	0.275	897039	STUDY_ORIENT	n/a	n/a	5	1	SHEET	INK	SHEET	INK	12	[0, 0, 0]	-999	PAL1	0	R1130M
1511.782	4.0	897431	STUDY_PAIR	n/a	wordpools/wordpool_EN.txt	5	1	SHEET	INK	SHEET	INK	12	[0, 0, 0]	-999	PAL1	0	R1130M
1516.816	0.275	899947	STUDY_ORIENT	n/a	n/a	6	4	SHOE	MAP	MAP	SHOE	12	[0, 0, 0]	-999	PAL1	0	R1130M
1517.683	4.0	900381	STUDY_PAIR	n/a	wordpools/wordpool_EN.txt	6	4	SHOE	MAP	MAP	SHOE	12	[0, 0, 0]	-999	PAL1	0	R1130M
1521.701	0.999	902390	START	n/a	n/a	-999	-999	n/a	n/a	n/a	n/a	12	[-999, -999, -999]	-999	PAL1	0	R1130M
1522.7	0.017	902889	MATH_START	n/a	n/a	-999	-999	n/a	n/a	n/a	n/a	12	[0, 0, 0]	-999	PAL1	0	R1130M
1522.717	8.402	902898	PROB	8.368	n/a	-999	-999	n/a	n/a	n/a	n/a	12	[2, 7, 9]	18	PAL1	0	R1130M
1531.119	4.767	907099	PROB	4.734	n/a	-999	-999	n/a	n/a	n/a	n/a	12	[9, 1, 2]	12	PAL1	0	R1130M
1535.886	8.528	909482	PROB	8.528	n/a	-999	-999	n/a	n/a	n/a	n/a	12	[7, 8, 4]	19	PAL1	0	R1130M
1544.414	0.008	913746	STOP	n/a	n/a	-999	-999	n/a	n/a	n/a	n/a	12	[-999, -999, -999]	-999	PAL1	0	R1130M
1544.422	0.0	913750	MATH_END	n/a	n/a	-999	-999	n/a	n/a	n/a	n/a	12	[0, 0, 0]	-999	PAL1	0	R1130M
1544.422	0.017	913750	TEST_START	n/a	n/a	-999	-999	n/a	n/a	n/a	n/a	12	[0, 0, 0]	-999	PAL1	0	R1130M
1544.439	0.275	913758	TEST_ORIENT	n/a	n/a	5	1	SHEET	INK	SHEET	INK	12	[0, 0, 0]	-999	PAL1	0	R1130M
1545.356	4.0	914217	TEST_PROBE	n/a	wordpools/wordpool_EN.txt	5	1	SHEET	INK	SHEET	INK	12	[0, 0, 0]	-999	PAL1	0	R1130M
1545.356	1.954	914217	REC_START	n/a	n/a	5	-999	n/a	INK	n/a	n/a	12	[0, 0, 0]	-999	PAL1	0	R1130M
1547.31	3.063	915194	REC_EVENT	1.954	n/a	5	1	SHEET	INK	SHEET	INK	12	[0, 0, 0]	-999	PAL1	0	R1130M
1550.373	0.017	916725	REC_END	n/a	n/a	5	-999	n/a	n/a	n/a	n/a	12	[0, 0, 0]	-999	PAL1	0	R1130M
1550.39	0.275	916734	TEST_ORIENT	n/a	n/a	2	2	FARM	n/a	FARM	SEA	12	[0, 0, 0]	-999	PAL1	0	R1130M
1551.257	4.0	917167	TEST_PROBE	n/a	wordpools/wordpool_EN.txt	2	2	FARM	n/a	FARM	SEA	12	[0, 0, 0]	-999	PAL1	0	R1130M
1551.258	0.0	917168	REC_START	n/a	n/a	2	-999	n/a	n/a	n/a	n/a	12	[0, 0, 0]	-999	PAL1	0	R1130M
1551.258	5.016	917168	REC_EVENT	0.0	n/a	2	2	FARM	<>	FARM	SEA	12	[0, 0, 0]	-999	PAL1	0	R1130M
1556.274	0.017	919675	REC_END	n/a	n/a	2	-999	n/a	n/a	n/a	n/a	12	[0, 0, 0]	-999	PAL1	0	R1130M
1556.291	0.275	919684	TEST_ORIENT	n/a	n/a	1	3	PURSE	HAND	HAND	PURSE	12	[0, 0, 0]	-999	PAL1	0	R1130M
1557.091	4.0	920084	TEST_PROBE	n/a	wordpools/wordpool_EN.txt	1	3	PURSE	HAND	HAND	PURSE	12	[0, 0, 0]	-999	PAL1	0	R1130M
1557.091	1.14	920084	REC_START	n/a	n/a	1	-999	n/a	HAND	n/a	n/a	12	[0, 0, 0]	-999	PAL1	0	R1130M
1558.231	3.877	920654	REC_EVENT	1.14	n/a	1	3	PURSE	HAND	HAND	PURSE	12	[0, 0, 0]	-999	PAL1	0	R1130M
1562.108	0.017	922592	REC_END	n/a	n/a	1	-999	n/a	n/a	n/a	n/a	12	[0, 0, 0]	-999	PAL1	0	R1130M
1562.125	0.275	922601	TEST_ORIENT	n/a	n/a	6	4	SHOE	MAP	MAP	SHOE	12	[0, 0, 0]	-999	PAL1	0	R1130M
1562.975	4.0	923026	TEST_PROBE	n/a	wordpools/wordpool_EN.txt	6	4	SHOE	MAP	MAP	SHOE	12	[0, 0, 0]	-999	PAL1	0	R1130M
1562.976	2.138	923026	REC_START	n/a	n/a	6	-999	n/a	MAP	n/a	n/a	12	[0, 0, 0]	-999	PAL1	0	R1130M
1565.114	2.878	924095	REC_EVENT	2.138	n/a	6	4	SHOE	MAP	MAP	SHOE	12	[0, 0, 0]	-999	PAL1	0	R1130M
1567.992	0.017	925534	REC_END	n/a	n/a	6	-999	n/a	n/a	n/a	n/a	12	[0, 0, 0]	-999	PAL1	0	R1130M
1568.009	0.275	925543	TEST_ORIENT	n/a	n/a	3	5	TOOTH	LOCK	LOCK	TOOTH	12	[0, 0, 0]	-999	PAL1	0	R1130M
1568.793	4.0	925935	TEST_PROBE	n/a	wordpools/wordpool_EN.txt	3	5	TOOTH	LOCK	LOCK	TOOTH	12	[0, 0, 0]	-999	PAL1	0	R1130M
1568.793	1.219	925935	REC_START	n/a	n/a	3	-999	n/a	LOCK	n/a	n/a	12	[0, 0, 0]	-999	PAL1	0	R1130M
1570.012	3.798	926544	REC_EVENT	1.219	n/a	3	5	TOOTH	LOCK	LOCK	TOOTH	12	[0, 0, 0]	-999	PAL1	0	R1130M
1573.81	0.017	928443	REC_END	n/a	n/a	3	-999	n/a	n/a	n/a	n/a	12	[0, 0, 0]	-999	PAL1	0	R1130M
1573.827	0.275	928451	TEST_ORIENT	n/a	n/a	4	6	FORK	n/a	TOE	FORK	12	[0, 0, 0]	-999	PAL1	0	R1130M
1574.811	0.0	928943	REC_START	n/a	n/a	4	-999	n/a	n/a	n/a	n/a	12	[0, 0, 0]	-999	PAL1	0	R1130M
1574.811	4.0	928943	TEST_PROBE	n/a	wordpools/wordpool_EN.txt	4	6	FORK	n/a	TOE	FORK	12	[0, 0, 0]	-999	PAL1	0	R1130M
1574.811	5.017	928943	REC_EVENT	0.0	n/a	4	6	FORK	<>	TOE	FORK	12	[0, 0, 0]	-999	PAL1	0	R1130M
1579.828	15.985	931452	REC_END	n/a	n/a	4	-999	n/a	n/a	n/a	n/a	12	[0, 0, 0]	-999	PAL1	0	R1130M
1595.813	10.455	939444	ENCODING_START	n/a	n/a	0	-999	n/a	n/a	n/a	n/a	13	[0, 0, 0]	-999	PAL1	0	R1130M
1606.268	0.275	944671	STUDY_ORIENT	n/a	n/a	1	5	BEE	n/a	FLUTE	BEE	13	[0, 0, 0]	-999	PAL1	0	R1130M
1607.285	4.0	945179	STUDY_PAIR	n/a	wordpools/wordpool_EN.txt	1	5	BEE	n/a	FLUTE	BEE	13	[0, 0, 0]	-999	PAL1	0	R1130M
1612.319	0.275	947696	STUDY_ORIENT	n/a	n/a	2	6	SUIT	n/a	DOOR	SUIT	13	[0, 0, 0]	-999	PAL1	0	R1130M
1613.286	4.0	948180	STUDY_PAIR	n/a	wordpools/wordpool_EN.txt	2	6	SUIT	n/a	DOOR	SUIT	13	[0, 0, 0]	-999	PAL1	0	R1130M
1618.32	0.275	950697	STUDY_ORIENT	n/a	n/a	3	3	BOOT	n/a	BOOT	SHELL	13	[0, 0, 0]	-999	PAL1	0	R1130M
1619.203	4.0	951138	STUDY_PAIR	n/a	wordpools/wordpool_EN.txt	3	3	BOOT	n/a	BOOT	SHELL	13	[0, 0, 0]	-999	PAL1	0	R1130M
1624.238	0.275	953656	STUDY_ORIENT	n/a	n/a	4	2	PIG	JAR	JAR	PIG	13	[0, 0, 0]	-999	PAL1	0	R1130M
1625.104	4.0	954088	STUDY_PAIR	n/a	wordpools/wordpool_EN.txt	4	2	PIG	JAR	JAR	PIG	13	[0, 0, 0]	-999	PAL1	0	R1130M
1630.138	0.275	956605	STUDY_ORIENT	n/a	n/a	5	1	MILK	n/a	MILK	TIE	13	[0, 0, 0]	-999	PAL1	0	R1130M
1630.938	4.0	957005	STUDY_PAIR	n/a	wordpools/wordpool_EN.txt	5	1	MILK	n/a	MILK	TIE	13	[0, 0, 0]	-999	PAL1	0	R1130M
1635.956	0.275	959514	STUDY_ORIENT	n/a	n/a	6	4	JUDGE	BRANCH	BRANCH	JUDGE	13	[0, 0, 0]	-999	PAL1	0	R1130M
1636.94	4.0	960006	STUDY_PAIR	n/a	wordpools/wordpool_EN.txt	6	4	JUDGE	BRANCH	BRANCH	JUDGE	13	[0, 0, 0]	-999	PAL1	0	R1130M
1640.958	0.999	962015	START	n/a	n/a	-999	-999	n/a	n/a	n/a	n/a	13	[-999, -999, -999]	-999	PAL1	0	R1130M
1641.957	0.017	962515	MATH_START	n/a	n/a	-999	-999	n/a	n/a	n/a	n/a	13	[0, 0, 0]	-999	PAL1	0	R1130M
1641.974	8.035	962523	PROB	8.007	n/a	-999	-999	n/a	n/a	n/a	n/a	13	[3, 2, 4]	9	PAL1	0	R1130M
1650.009	6.701	966540	PROB	6.668	n/a	-999	-999	n/a	n/a	n/a	n/a	13	[1, 3, 9]	13	PAL1	0	R1130M
1656.71	7.023	969891	PROB	7.023	n/a	-999	-999	n/a	n/a	n/a	n/a	13	[6, 4, 9]	19	PAL1	0	R1130M
1663.733	0.012	973402	STOP	n/a	n/a	-999	-999	n/a	n/a	n/a	n/a	13	[-999, -999, -999]	-999	PAL1	0	R1130M
1663.745	0.0	973408	MATH_END	n/a	n/a	-999	-999	n/a	n/a	n/a	n/a	13	[0, 0, 0]	-999	PAL1	0	R1130M
1663.745	0.017	973408	TEST_START	n/a	n/a	-999	-999	n/a	n/a	n/a	n/a	13	[0, 0, 0]	-999	PAL1	0	R1130M
1663.762	0.275	973416	TEST_ORIENT	n/a	n/a	5	1	MILK	n/a	MILK	TIE	13	[0, 0, 0]	-999	PAL1	0	R1130M
1664.663	4.0	973867	TEST_PROBE	n/a	wordpools/wordpool_EN.txt	5	1	MILK	n/a	MILK	TIE	13	[0, 0, 0]	-999	PAL1	0	R1130M
1664.664	0.0	973867	REC_START	n/a	n/a	5	-999	n/a	n/a	n/a	n/a	13	[0, 0, 0]	-999	PAL1	0	R1130M
1664.664	5.015	973867	REC_EVENT	0.0	n/a	5	1	MILK	<>	MILK	TIE	13	[0, 0, 0]	-999	PAL1	0	R1130M
1669.679	0.017	976375	REC_END	n/a	n/a	5	-999	n/a	n/a	n/a	n/a	13	[0, 0, 0]	-999	PAL1	0	R1130M
1669.696	0.275	976383	TEST_ORIENT	n/a	n/a	4	2	PIG	JAR	JAR	PIG	13	[0, 0, 0]	-999	PAL1	0	R1130M
1670.614	4.0	976842	TEST_PROBE	n/a	wordpools/wordpool_EN.txt	4	2	PIG	JAR	JAR	PIG	13	[0, 0, 0]	-999	PAL1	0	R1130M
1670.615	1.852	976843	REC_START	n/a	n/a	4	-999	n/a	JAR	n/a	n/a	13	[0, 0, 0]	-999	PAL1	0	R1130M
1672.467	3.157	977769	REC_EVENT	1.852	n/a	4	2	PIG	JAR	JAR	PIG	13	[0, 0, 0]	-999	PAL1	0	R1130M
1675.624	0.008	979347	REC_END	n/a	n/a	4	-999	n/a	n/a	n/a	n/a	13	[0, 0, 0]	-999	PAL1	0	R1130M
1675.632	0.275	979351	TEST_ORIENT	n/a	n/a	3	3	BOOT	n/a	BOOT	SHELL	13	[0, 0, 0]	-999	PAL1	0	R1130M
1676.632	4.0	979851	TEST_PROBE	n/a	wordpools/wordpool_EN.txt	3	3	BOOT	n/a	BOOT	SHELL	13	[0, 0, 0]	-999	PAL1	0	R1130M
1676.632	0.0	979851	REC_START	n/a	n/a	3	-999	n/a	n/a	n/a	n/a	13	[0, 0, 0]	-999	PAL1	0	R1130M
1676.632	5.017	979851	REC_EVENT	0.0	n/a	3	3	BOOT	<>	BOOT	SHELL	13	[0, 0, 0]	-999	PAL1	0	R1130M
1681.649	0.017	982359	REC_END	n/a	n/a	3	-999	n/a	n/a	n/a	n/a	13	[0, 0, 0]	-999	PAL1	0	R1130M
1681.666	0.275	982368	TEST_ORIENT	n/a	n/a	6	4	JUDGE	BRANCH	BRANCH	JUDGE	13	[0, 0, 0]	-999	PAL1	0	R1130M
1682.682	4.0	982876	TEST_PROBE	n/a	wordpools/wordpool_EN.txt	6	4	JUDGE	BRANCH	BRANCH	JUDGE	13	[0, 0, 0]	-999	PAL1	0	R1130M
1682.683	3.849	982876	REC_START	n/a	n/a	6	-999	n/a	BRANCH	n/a	n/a	13	[0, 0, 0]	-999	PAL1	0	R1130M
1686.532	1.16	984801	REC_EVENT	3.849	n/a	6	4	JUDGE	BRANCH	BRANCH	JUDGE	13	[0, 0, 0]	-999	PAL1	0	R1130M
1687.692	0.008	985381	REC_END	n/a	n/a	6	-999	n/a	n/a	n/a	n/a	13	[0, 0, 0]	-999	PAL1	0	R1130M
1687.7	0.275	985385	TEST_ORIENT	n/a	n/a	1	5	BEE	n/a	FLUTE	BEE	13	[0, 0, 0]	-999	PAL1	0	R1130M
1688.717	4.0	985893	TEST_PROBE	n/a	wordpools/wordpool_EN.txt	1	5	BEE	n/a	FLUTE	BEE	13	[0, 0, 0]	-999	PAL1	0	R1130M
1688.717	0.0	985893	REC_START	n/a	n/a	1	-999	n/a	n/a	n/a	n/a	13	[0, 0, 0]	-999	PAL1	0	R1130M
1688.717	5.018	985893	REC_EVENT	0.0	n/a	1	5	BEE	<>	FLUTE	BEE	13	[0, 0, 0]	-999	PAL1	0	R1130M
1693.735	0.016	988402	REC_END	n/a	n/a	1	-999	n/a	n/a	n/a	n/a	13	[0, 0, 0]	-999	PAL1	0	R1130M
1693.751	0.275	988410	TEST_ORIENT	n/a	n/a	2	6	SUIT	n/a	DOOR	SUIT	13	[0, 0, 0]	-999	PAL1	0	R1130M
1694.619	4.0	988844	TEST_PROBE	n/a	wordpools/wordpool_EN.txt	2	6	SUIT	n/a	DOOR	SUIT	13	[0, 0, 0]	-999	PAL1	0	R1130M
1694.62	0.0	988845	REC_START	n/a	n/a	2	-999	n/a	n/a	n/a	n/a	13	[0, 0, 0]	-999	PAL1	0	R1130M
1694.62	5.016	988845	REC_EVENT	0.0	n/a	2	6	SUIT	<>	DOOR	SUIT	13	[0, 0, 0]	-999	PAL1	0	R1130M
1699.636	10.626	991352	REC_END	n/a	n/a	2	-999	n/a	n/a	n/a	n/a	13	[0, 0, 0]	-999	PAL1	0	R1130M
1710.262	10.445	996665	ENCODING_START	n/a	n/a	0	-999	n/a	n/a	n/a	n/a	14	[0, 0, 0]	-999	PAL1	0	R1130M
1720.707	0.275	1001887	STUDY_ORIENT	n/a	n/a	1	1	DOG	n/a	CAKE	DOG	14	[0, 0, 0]	-999	PAL1	0	R1130M
1721.641	4.0	1002354	STUDY_PAIR	n/a	wordpools/wordpool_EN.txt	1	1	DOG	n/a	CAKE	DOG	14	[0, 0, 0]	-999	PAL1	0	R1130M
1726.674	0.275	1004871	STUDY_ORIENT	n/a	n/a	2	6	LAMP	n/a	LAMP	BANK	14	[0, 0, 0]	-999	PAL1	0	R1130M
1727.609	4.0	1005338	STUDY_PAIR	n/a	wordpools/wordpool_EN.txt	2	6	LAMP	n/a	LAMP	BANK	14	[0, 0, 0]	-999	PAL1	0	R1130M
1732.643	0.275	1007855	STUDY_ORIENT	n/a	n/a	3	3	STEAK	n/a	STEAK	CANE	14	[0, 0, 0]	-999	PAL1	0	R1130M
1733.527	4.0	1008297	STUDY_PAIR	n/a	wordpools/wordpool_EN.txt	3	3	STEAK	n/a	STEAK	CANE	14	[0, 0, 0]	-999	PAL1	0	R1130M
1738.561	0.275	1010814	STUDY_ORIENT	n/a	n/a	4	2	TRUCK	HOSE	HOSE	TRUCK	14	[0, 0, 0]	-999	PAL1	0	R1130M
1739.495	4.0	1011281	STUDY_PAIR	n/a	wordpools/wordpool_EN.txt	4	2	TRUCK	HOSE	HOSE	TRUCK	14	[0, 0, 0]	-999	PAL1	0	R1130M
1744.529	0.275	1013798	STUDY_ORIENT	n/a	n/a	5	5	BRICK	n/a	BRICK	DUCK	14	[0, 0, 0]	-999	PAL1	0	R1130M
1745.512	4.0	1014289	STUDY_PAIR	n/a	wordpools/wordpool_EN.txt	5	5	BRICK	n/a	BRICK	DUCK	14	[0, 0, 0]	-999	PAL1	0	R1130M
1750.53	0.275	1016798	STUDY_ORIENT	n/a	n/a	6	4	BOWL	n/a	BOWL	TRAY	14	[0, 0, 0]	-999	PAL1	0	R1130M
1751.497	4.0	1017281	STUDY_PAIR	n/a	wordpools/wordpool_EN.txt	6	4	BOWL	n/a	BOWL	TRAY	14	[0, 0, 0]	-999	PAL1	0	R1130M
1755.515	0.999	1019290	START	n/a	n/a	-999	-999	n/a	n/a	n/a	n/a	14	[-999, -999, -999]	-999	PAL1	0	R1130M
1756.514	0.017	1019790	MATH_START	n/a	n/a	-999	-999	n/a	n/a	n/a	n/a	14	[0, 0, 0]	-999	PAL1	0	R1130M
1756.531	11.185	1019798	PROB	11.154	n/a	-999	-999	n/a	n/a	n/a	n/a	14	[5, 9, 7]	21	PAL1	0	R1130M
1767.716	7.802	1025391	PROB	7.77	n/a	-999	-999	n/a	n/a	n/a	n/a	14	[1, 9, 3]	13	PAL1	0	R1130M
1775.518	6.215	1029291	PROB	6.215	n/a	-999	-999	n/a	n/a	n/a	n/a	14	[4, 2, 2]	8	PAL1	0	R1130M
1781.733	0.002	1032399	STOP	n/a	n/a	-999	-999	n/a	n/a	n/a	n/a	14	[-999, -999, -999]	-999	PAL1	0	R1130M
1781.735	0.0	1032400	MATH_END	n/a	n/a	-999	-999	n/a	n/a	n/a	n/a	14	[0, 0, 0]	-999	PAL1	0	R1130M
1781.735	0.017	1032400	TEST_START	n/a	n/a	-999	-999	n/a	n/a	n/a	n/a	14	[0, 0, 0]	-999	PAL1	0	R1130M
1781.752	0.275	1032408	TEST_ORIENT	n/a	n/a	1	1	DOG	n/a	CAKE	DOG	14	[0, 0, 0]	-999	PAL1	0	R1130M
1782.769	4.0	1032917	TEST_PROBE	n/a	wordpools/wordpool_EN.txt	1	1	DOG	n/a	CAKE	DOG	14	[0, 0, 0]	-999	PAL1	0	R1130M
1782.77	0.0	1032917	REC_START	n/a	n/a	1	-999	n/a	n/a	n/a	n/a	14	[0, 0, 0]	-999	PAL1	0	R1130M
1782.77	5.016	1032917	REC_EVENT	0.0	n/a	1	1	DOG	<>	CAKE	DOG	14	[0, 0, 0]	-999	PAL1	0	R1130M
1787.786	0.017	1035425	REC_END	n/a	n/a	1	-999	n/a	n/a	n/a	n/a	14	[0, 0, 0]	-999	PAL1	0	R1130M
1787.803	0.275	1035433	TEST_ORIENT	n/a	n/a	4	2	TRUCK	HOSE	HOSE	TRUCK	14	[0, 0, 0]	-999	PAL1	0	R1130M
1788.654	4.0	1035859	TEST_PROBE	n/a	wordpools/wordpool_EN.txt	4	2	TRUCK	HOSE	HOSE	TRUCK	14	[0, 0, 0]	-999	PAL1	0	R1130M
1788.655	2.256	1035859	REC_START	n/a	n/a	4	-999	n/a	HOSE	n/a	n/a	14	[0, 0, 0]	-999	PAL1	0	R1130M
1790.911	2.752	1036987	REC_EVENT	2.256	n/a	4	2	TRUCK	HOSE	HOSE	TRUCK	14	[0, 0, 0]	-999	PAL1	0	R1130M
1793.663	0.008	1038363	REC_END	n/a	n/a	4	-999	n/a	n/a	n/a	n/a	14	[0, 0, 0]	-999	PAL1	0	R1130M
1793.671	0.275	1038367	TEST_ORIENT	n/a	n/a	3	3	STEAK	n/a	STEAK	CANE	14	[0, 0, 0]	-999	PAL1	0	R1130M
1794.472	4.0	1038768	TEST_PROBE	n/a	wordpools/wordpool_EN.txt	3	3	STEAK	n/a	STEAK	CANE	14	[0, 0, 0]	-999	PAL1	0	R1130M
1794.473	0.0	1038768	REC_START	n/a	n/a	3	-999	n/a	n/a	n/a	n/a	14	[0, 0, 0]	-999	PAL1	0	R1130M
1794.473	5.008	1038768	REC_EVENT	0.0	n/a	3	3	STEAK	<>	STEAK	CANE	14	[0, 0, 0]	-999	PAL1	0	R1130M
1799.481	0.009	1041272	REC_END	n/a	n/a	3	-999	n/a	n/a	n/a	n/a	14	[0, 0, 0]	-999	PAL1	0	R1130M
1799.49	0.275	1041277	TEST_ORIENT	n/a	n/a	6	4	BOWL	n/a	BOWL	TRAY	14	[0, 0, 0]	-999	PAL1	0	R1130M
1800.373	4.0	1041718	TEST_PROBE	n/a	wordpools/wordpool_EN.txt	6	4	BOWL	n/a	BOWL	TRAY	14	[0, 0, 0]	-999	PAL1	0	R1130M
1800.374	0.0	1041719	REC_EVENT	0.0	n/a	6	4	BOWL	<>	BOWL	TRAY	14	[0, 0, 0]	-999	PAL1	0	R1130M
1800.374	5.009	1041719	REC_START	n/a	n/a	6	-999	n/a	n/a	n/a	n/a	14	[0, 0, 0]	-999	PAL1	0	R1130M
1805.383	0.008	1044223	REC_END	n/a	n/a	6	-999	n/a	n/a	n/a	n/a	14	[0, 0, 0]	-999	PAL1	0	R1130M
1805.391	0.275	1044227	TEST_ORIENT	n/a	n/a	5	5	BRICK	n/a	BRICK	DUCK	14	[0, 0, 0]	-999	PAL1	0	R1130M
1806.324	4.0	1044693	TEST_PROBE	n/a	wordpools/wordpool_EN.txt	5	5	BRICK	n/a	BRICK	DUCK	14	[0, 0, 0]	-999	PAL1	0	R1130M
1806.325	0.0	1044694	REC_START	n/a	n/a	5	-999	n/a	n/a	n/a	n/a	14	[0, 0, 0]	-999	PAL1	0	R1130M
1806.325	5.009	1044694	REC_EVENT	0.0	n/a	5	5	BRICK	<>	BRICK	DUCK	14	[0, 0, 0]	-999	PAL1	0	R1130M
1811.334	0.008	1047198	REC_END	n/a	n/a	5	-999	n/a	n/a	n/a	n/a	14	[0, 0, 0]	-999	PAL1	0	R1130M
1811.342	0.275	1047202	TEST_ORIENT	n/a	n/a	2	6	LAMP	n/a	LAMP	BANK	14	[0, 0, 0]	-999	PAL1	0	R1130M
1812.276	4.0	1047669	TEST_PROBE	n/a	wordpools/wordpool_EN.txt	2	6	LAMP	n/a	LAMP	BANK	14	[0, 0, 0]	-999	PAL1	0	R1130M
1812.276	0.0	1047669	REC_START	n/a	n/a	2	-999	n/a	n/a	n/a	n/a	14	[0, 0, 0]	-999	PAL1	0	R1130M
1812.276	5.017	1047669	REC_EVENT	0.0	n/a	2	6	LAMP	<>	LAMP	BANK	14	[0, 0, 0]	-999	PAL1	0	R1130M
1817.293	7.945	1050178	REC_END	n/a	n/a	2	-999	n/a	n/a	n/a	n/a	14	[0, 0, 0]	-999	PAL1	0	R1130M
1825.238	10.441	1054150	ENCODING_START	n/a	n/a	0	-999	n/a	n/a	n/a	n/a	15	[0, 0, 0]	-999	PAL1	0	R1130M
1835.679	0.275	1059370	STUDY_ORIENT	n/a	n/a	1	5	CAVE	n/a	CAVE	MUD	15	[0, 0, 0]	-999	PAL1	0	R1130M
1836.696	4.0	1059879	STUDY_PAIR	n/a	wordpools/wordpool_EN.txt	1	5	CAVE	n/a	CAVE	MUD	15	[0, 0, 0]	-999	PAL1	0	R1130M
1841.714	0.275	1062387	STUDY_ORIENT	n/a	n/a	2	6	SLIME	n/a	SLIME	CAGE	15	[0, 0, 0]	-999	PAL1	0	R1130M
1842.648	4.0	1062854	STUDY_PAIR	n/a	wordpools/wordpool_EN.txt	2	6	SLIME	n/a	SLIME	CAGE	15	[0, 0, 0]	-999	PAL1	0	R1130M
1847.666	0.275	1065363	STUDY_ORIENT	n/a	n/a	3	3	JEEP	n/a	KEY	JEEP	15	[0, 0, 0]	-999	PAL1	0	R1130M
1848.666	4.0	1065863	STUDY_PAIR	n/a	wordpools/wordpool_EN.txt	3	3	JEEP	n/a	KEY	JEEP	15	[0, 0, 0]	-999	PAL1	0	R1130M
1853.666	0.275	1068363	STUDY_ORIENT	n/a	n/a	4	2	WORLD	FLOOR	WORLD	FLOOR	15	[0, 0, 0]	-999	PAL1	0	R1130M
1854.451	4.0	1068756	STUDY_PAIR	n/a	wordpools/wordpool_EN.txt	4	2	WORLD	FLOOR	WORLD	FLOOR	15	[0, 0, 0]	-999	PAL1	0	R1130M
1859.485	0.275	1071272	STUDY_ORIENT	n/a	n/a	5	1	RAIN	n/a	ARM	RAIN	15	[0, 0, 0]	-999	PAL1	0	R1130M
1860.469	4.0	1071764	STUDY_PAIR	n/a	wordpools/wordpool_EN.txt	5	1	RAIN	n/a	ARM	RAIN	15	[0, 0, 0]	-999	PAL1	0	R1130M
1865.503	0.275	1074281	STUDY_ORIENT	n/a	n/a	6	4	CLOUD	n/a	CLOUD	BEAN	15	[0, 0, 0]	-999	PAL1	0	R1130M
1866.52	4.0	1074790	STUDY_PAIR	n/a	wordpools/wordpool_EN.txt	6	4	CLOUD	n/a	CLOUD	BEAN	15	[0, 0, 0]	-999	PAL1	0	R1130M
1870.538	0.999	1076799	START	n/a	n/a	-999	-999	n/a	n/a	n/a	n/a	15	[-999, -999, -999]	-999	PAL1	0	R1130M
1871.537	0.017	1077298	MATH_START	n/a	n/a	-999	-999	n/a	n/a	n/a	n/a	15	[0, 0, 0]	-999	PAL1	0	R1130M
1871.554	5.718	1077307	PROB	5.686	n/a	-999	-999	n/a	n/a	n/a	n/a	15	[1, 3, 1]	5	PAL1	0	R1130M
1877.272	9.152	1080165	PROB	9.118	n/a	-999	-999	n/a	n/a	n/a	n/a	15	[2, 9, 8]	19	PAL1	0	R1130M
1886.424	5.293	1084741	PROB	5.293	n/a	-999	-999	n/a	n/a	n/a	n/a	15	[3, 5, 1]	9	PAL1	0	R1130M
1891.717	0.007	1087388	STOP	n/a	n/a	-999	-999	n/a	n/a	n/a	n/a	15	[-999, -999, -999]	-999	PAL1	0	R1130M
1891.724	0.0	1087391	MATH_END	n/a	n/a	-999	-999	n/a	n/a	n/a	n/a	15	[0, 0, 0]	-999	PAL1	0	R1130M
1891.724	0.017	1087391	TEST_START	n/a	n/a	-999	-999	n/a	n/a	n/a	n/a	15	[0, 0, 0]	-999	PAL1	0	R1130M
1891.741	0.275	1087400	TEST_ORIENT	n/a	n/a	5	1	RAIN	n/a	ARM	RAIN	15	[0, 0, 0]	-999	PAL1	0	R1130M
1892.609	4.0	1087834	TEST_PROBE	n/a	wordpools/wordpool_EN.txt	5	1	RAIN	n/a	ARM	RAIN	15	[0, 0, 0]	-999	PAL1	0	R1130M
1892.609	0.0	1087834	REC_START	n/a	n/a	5	-999	n/a	n/a	n/a	n/a	15	[0, 0, 0]	-999	PAL1	0	R1130M
1892.609	5.017	1087834	REC_EVENT	0.0	n/a	5	1	RAIN	<>	ARM	RAIN	15	[0, 0, 0]	-999	PAL1	0	R1130M
1897.626	0.017	1090342	REC_END	n/a	n/a	5	-999	n/a	n/a	n/a	n/a	15	[0, 0, 0]	-999	PAL1	0	R1130M
1897.643	0.275	1090350	TEST_ORIENT	n/a	n/a	4	2	WORLD	FLOOR	WORLD	FLOOR	15	[0, 0, 0]	-999	PAL1	0	R1130M
1898.493	4.0	1090775	TEST_PROBE	n/a	wordpools/wordpool_EN.txt	4	2	WORLD	FLOOR	WORLD	FLOOR	15	[0, 0, 0]	-999	PAL1	0	R1130M
1898.494	2.108	1090776	REC_START	n/a	n/a	4	-999	n/a	FLOOR	n/a	n/a	15	[0, 0, 0]	-999	PAL1	0	R1130M
1900.602	2.908	1091830	REC_EVENT	2.108	n/a	4	2	WORLD	FLOOR	WORLD	FLOOR	15	[0, 0, 0]	-999	PAL1	0	R1130M
1903.51	0.017	1093284	REC_END	n/a	n/a	4	-999	n/a	n/a	n/a	n/a	15	[0, 0, 0]	-999	PAL1	0	R1130M
1903.527	0.275	1093292	TEST_ORIENT	n/a	n/a	3	3	JEEP	n/a	KEY	JEEP	15	[0, 0, 0]	-999	PAL1	0	R1130M
1904.344	4.0	1093701	TEST_PROBE	n/a	wordpools/wordpool_EN.txt	3	3	JEEP	n/a	KEY	JEEP	15	[0, 0, 0]	-999	PAL1	0	R1130M
1904.345	0.0	1093701	REC_START	n/a	n/a	3	-999	n/a	n/a	n/a	n/a	15	[0, 0, 0]	-999	PAL1	0	R1130M
1904.345	5.009	1093701	REC_EVENT	0.0	n/a	3	3	JEEP	<>	KEY	JEEP	15	[0, 0, 0]	-999	PAL1	0	R1130M
1909.354	0.008	1096206	REC_END	n/a	n/a	3	-999	n/a	n/a	n/a	n/a	15	[0, 0, 0]	-999	PAL1	0	R1130M
1909.362	0.275	1096210	TEST_ORIENT	n/a	n/a	6	4	CLOUD	n/a	CLOUD	BEAN	15	[0, 0, 0]	-999	PAL1	0	R1130M
1910.178	0.0	1096618	REC_EVENT	0.0	n/a	6	4	CLOUD	<>	CLOUD	BEAN	15	[0, 0, 0]	-999	PAL1	0	R1130M
1910.178	0.0	1096618	REC_START	n/a	n/a	6	-999	n/a	n/a	n/a	n/a	15	[0, 0, 0]	-999	PAL1	0	R1130M
1910.178	4.0	1096618	TEST_PROBE	n/a	wordpools/wordpool_EN.txt	6	4	CLOUD	n/a	CLOUD	BEAN	15	[0, 0, 0]	-999	PAL1	0	R1130M
1915.195	0.018	1099126	REC_END	n/a	n/a	6	-999	n/a	n/a	n/a	n/a	15	[0, 0, 0]	-999	PAL1	0	R1130M
1915.213	0.275	1099135	TEST_ORIENT	n/a	n/a	1	5	CAVE	n/a	CAVE	MUD	15	[0, 0, 0]	-999	PAL1	0	R1130M
1916.23	4.0	1099643	TEST_PROBE	n/a	wordpools/wordpool_EN.txt	1	5	CAVE	n/a	CAVE	MUD	15	[0, 0, 0]	-999	PAL1	0	R1130M
1916.23	0.0	1099643	REC_START	n/a	n/a	1	-999	n/a	n/a	n/a	n/a	15	[0, 0, 0]	-999	PAL1	0	R1130M
1916.23	5.017	1099643	REC_EVENT	0.0	n/a	1	5	CAVE	<>	CAVE	MUD	15	[0, 0, 0]	-999	PAL1	0	R1130M
1921.247	0.017	1102152	REC_END	n/a	n/a	1	-999	n/a	n/a	n/a	n/a	15	[0, 0, 0]	-999	PAL1	0	R1130M
1921.264	0.275	1102160	TEST_ORIENT	n/a	n/a	2	6	SLIME	n/a	SLIME	CAGE	15	[0, 0, 0]	-999	PAL1	0	R1130M
1922.113	4.0	1102585	TEST_PROBE	n/a	wordpools/wordpool_EN.txt	2	6	SLIME	n/a	SLIME	CAGE	15	[0, 0, 0]	-999	PAL1	0	R1130M
1922.114	0.0	1102585	REC_START	n/a	n/a	2	-999	n/a	n/a	n/a	n/a	15	[0, 0, 0]	-999	PAL1	0	R1130M
1922.114	5.0	1102585	REC_EVENT	0.0	n/a	2	6	SLIME	<>	SLIME	CAGE	15	[0, 0, 0]	-999	PAL1	0	R1130M
1927.114	10.492	1105085	REC_END	n/a	n/a	2	-999	n/a	n/a	n/a	n/a	15	[0, 0, 0]	-999	PAL1	0	R1130M
1937.606	10.446	1110331	ENCODING_START	n/a	n/a	0	-999	n/a	n/a	n/a	n/a	16	[0, 0, 0]	-999	PAL1	0	R1130M
1948.052	0.275	1115554	STUDY_ORIENT	n/a	n/a	1	1	LAND	n/a	FLAG	LAND	16	[0, 0, 0]	-999	PAL1	0	R1130M
1948.885	4.0	1115970	STUDY_PAIR	n/a	wordpools/wordpool_EN.txt	1	1	LAND	n/a	FLAG	LAND	16	[0, 0, 0]	-999	PAL1	0	R1130M
1953.903	0.275	1118479	STUDY_ORIENT	n/a	n/a	2	4	EAR	JUICE	EAR	JUICE	16	[0, 0, 0]	-999	PAL1	0	R1130M
1954.77	4.0	1118912	STUDY_PAIR	n/a	wordpools/wordpool_EN.txt	2	4	EAR	JUICE	EAR	JUICE	16	[0, 0, 0]	-999	PAL1	0	R1130M
1959.804	0.275	1121429	STUDY_ORIENT	n/a	n/a	3	5	NOSE	n/a	NOSE	PIT	16	[0, 0, 0]	-999	PAL1	0	R1130M
1960.639	4.0	1121847	STUDY_PAIR	n/a	wordpools/wordpool_EN.txt	3	5	NOSE	n/a	NOSE	PIT	16	[0, 0, 0]	-999	PAL1	0	R1130M
1965.672	0.275	1124363	STUDY_ORIENT	n/a	n/a	4	6	HOOK	n/a	HOOK	SNAIL	16	[0, 0, 0]	-999	PAL1	0	R1130M
1966.607	4.0	1124831	STUDY_PAIR	n/a	wordpools/wordpool_EN.txt	4	6	HOOK	n/a	HOOK	SNAIL	16	[0, 0, 0]	-999	PAL1	0	R1130M
1971.641	0.275	1127347	STUDY_ORIENT	n/a	n/a	5	3	NAIL	n/a	PRINCE	NAIL	16	[0, 0, 0]	-999	PAL1	0	R1130M
1972.508	4.0	1127781	STUDY_PAIR	n/a	wordpools/wordpool_EN.txt	5	3	NAIL	n/a	PRINCE	NAIL	16	[0, 0, 0]	-999	PAL1	0	R1130M
1977.542	0.275	1130298	STUDY_ORIENT	n/a	n/a	6	2	FUDGE	n/a	FUDGE	RIB	16	[0, 0, 0]	-999	PAL1	0	R1130M
1978.492	4.0	1130773	STUDY_PAIR	n/a	wordpools/wordpool_EN.txt	6	2	FUDGE	n/a	FUDGE	RIB	16	[0, 0, 0]	-999	PAL1	0	R1130M
1982.493	1.0	1132773	START	n/a	n/a	-999	-999	n/a	n/a	n/a	n/a	16	[-999, -999, -999]	-999	PAL1	0	R1130M
1983.493	0.017	1133273	MATH_START	n/a	n/a	-999	-999	n/a	n/a	n/a	n/a	16	[0, 0, 0]	-999	PAL1	0	R1130M
1983.51	16.737	1133282	PROB	16.704	n/a	-999	-999	n/a	n/a	n/a	n/a	16	[2, 9, 3]	14	PAL1	0	R1130M
2000.247	7.359	1141650	PROB	7.359	n/a	-999	-999	n/a	n/a	n/a	n/a	16	[1, 8, 7]	16	PAL1	0	R1130M
2007.606	0.009	1145329	STOP	n/a	n/a	-999	-999	n/a	n/a	n/a	n/a	16	[-999, -999, -999]	-999	PAL1	0	R1130M
2007.615	0.0	1145333	MATH_END	n/a	n/a	-999	-999	n/a	n/a	n/a	n/a	16	[0, 0, 0]	-999	PAL1	0	R1130M
2007.615	0.016	1145333	TEST_START	n/a	n/a	-999	-999	n/a	n/a	n/a	n/a	16	[0, 0, 0]	-999	PAL1	0	R1130M
2007.631	0.275	1145341	TEST_ORIENT	n/a	n/a	1	1	LAND	n/a	FLAG	LAND	16	[0, 0, 0]	-999	PAL1	0	R1130M
2008.548	4.0	1145800	TEST_PROBE	n/a	wordpools/wordpool_EN.txt	1	1	LAND	n/a	FLAG	LAND	16	[0, 0, 0]	-999	PAL1	0	R1130M
2008.549	0.0	1145800	REC_START	n/a	n/a	1	-999	n/a	n/a	n/a	n/a	16	[0, 0, 0]	-999	PAL1	0	R1130M
2008.549	5.008	1145800	REC_EVENT	0.0	n/a	1	1	LAND	<>	FLAG	LAND	16	[0, 0, 0]	-999	PAL1	0	R1130M
2013.557	0.009	1148304	REC_END	n/a	n/a	1	-999	n/a	n/a	n/a	n/a	16	[0, 0, 0]	-999	PAL1	0	R1130M
2013.566	0.275	1148309	TEST_ORIENT	n/a	n/a	6	2	FUDGE	n/a	FUDGE	RIB	16	[0, 0, 0]	-999	PAL1	0	R1130M
2014.433	0.0	1148742	REC_EVENT	0.0	n/a	6	2	FUDGE	<>	FUDGE	RIB	16	[0, 0, 0]	-999	PAL1	0	R1130M
2014.433	4.0	1148742	TEST_PROBE	n/a	wordpools/wordpool_EN.txt	6	2	FUDGE	n/a	FUDGE	RIB	16	[0, 0, 0]	-999	PAL1	0	R1130M
2014.433	5.017	1148742	REC_START	n/a	n/a	6	-999	n/a	n/a	n/a	n/a	16	[0, 0, 0]	-999	PAL1	0	R1130M
2019.45	0.017	1151251	REC_END	n/a	n/a	6	-999	n/a	n/a	n/a	n/a	16	[0, 0, 0]	-999	PAL1	0	R1130M
2019.467	0.275	1151259	TEST_ORIENT	n/a	n/a	5	3	NAIL	n/a	PRINCE	NAIL	16	[0, 0, 0]	-999	PAL1	0	R1130M
2020.417	4.0	1151734	TEST_PROBE	n/a	wordpools/wordpool_EN.txt	5	3	NAIL	n/a	PRINCE	NAIL	16	[0, 0, 0]	-999	PAL1	0	R1130M
2020.418	0.0	1151735	REC_START	n/a	n/a	5	-999	n/a	n/a	n/a	n/a	16	[0, 0, 0]	-999	PAL1	0	R1130M
2020.418	5.009	1151735	REC_EVENT	0.0	n/a	5	3	NAIL	<>	PRINCE	NAIL	16	[0, 0, 0]	-999	PAL1	0	R1130M
2025.427	0.008	1154239	REC_END	n/a	n/a	5	-999	n/a	n/a	n/a	n/a	16	[0, 0, 0]	-999	PAL1	0	R1130M
2025.435	0.275	1154243	TEST_ORIENT	n/a	n/a	2	4	EAR	JUICE	EAR	JUICE	16	[0, 0, 0]	-999	PAL1	0	R1130M
2026.385	4.0	1154718	TEST_PROBE	n/a	wordpools/wordpool_EN.txt	2	4	EAR	JUICE	EAR	JUICE	16	[0, 0, 0]	-999	PAL1	0	R1130M
2026.386	1.013	1154718	REC_START	n/a	n/a	2	-999	n/a	JUICE	n/a	n/a	16	[0, 0, 0]	-999	PAL1	0	R1130M
2027.399	3.996	1155225	REC_EVENT	1.013	n/a	2	4	EAR	JUICE	EAR	JUICE	16	[0, 0, 0]	-999	PAL1	0	R1130M
2031.395	0.008	1157223	REC_END	n/a	n/a	2	-999	n/a	n/a	n/a	n/a	16	[0, 0, 0]	-999	PAL1	0	R1130M
2031.403	0.275	1157227	TEST_ORIENT	n/a	n/a	3	5	NOSE	n/a	NOSE	PIT	16	[0, 0, 0]	-999	PAL1	0	R1130M
2032.22	4.0	1157635	TEST_PROBE	n/a	wordpools/wordpool_EN.txt	3	5	NOSE	n/a	NOSE	PIT	16	[0, 0, 0]	-999	PAL1	0	R1130M
2032.22	0.0	1157635	REC_START	n/a	n/a	3	-999	n/a	n/a	n/a	n/a	16	[0, 0, 0]	-999	PAL1	0	R1130M
2032.22	5.026	1157635	REC_EVENT	0.0	n/a	3	5	NOSE	<>	NOSE	PIT	16	[0, 0, 0]	-999	PAL1	0	R1130M
2037.246	0.008	1160148	REC_END	n/a	n/a	3	-999	n/a	n/a	n/a	n/a	16	[0, 0, 0]	-999	PAL1	0	R1130M
2037.254	0.275	1160152	TEST_ORIENT	n/a	n/a	4	6	HOOK	n/a	HOOK	SNAIL	16	[0, 0, 0]	-999	PAL1	0	R1130M
2038.053	4.0	1160552	TEST_PROBE	n/a	wordpools/wordpool_EN.txt	4	6	HOOK	n/a	HOOK	SNAIL	16	[0, 0, 0]	-999	PAL1	0	R1130M
2038.054	0.0	1160552	REC_EVENT	0.0	n/a	4	6	HOOK	<>	HOOK	SNAIL	16	[0, 0, 0]	-999	PAL1	0	R1130M
2038.054	5.008	1160552	REC_START	n/a	n/a	4	-999	n/a	n/a	n/a	n/a	16	[0, 0, 0]	-999	PAL1	0	R1130M
2043.062	0.0	1163056	REC_END	n/a	n/a	4	-999	n/a	n/a	n/a	n/a	16	[0, 0, 0]	-999	PAL1	0	R1130M
