onset	duration	sample	trial_type	response_time	stim_file	serialpos	probepos	probe_word	resp_word	study_1	study_2	list	test	answer	experiment	session	subject
0.0	70.324	8575	SESS_START	n/a	n/a	-999	-999	n/a	n/a	n/a	n/a	-999	[0, 0, 0]	-999	PAL1	0	R1035M
70.324	1.017	43735	START	n/a	n/a	-999	-999	n/a	n/a	n/a	n/a	-1	[-999, -999, -999]	-999	PAL1	0	R1035M
71.341	1290.868	44244	PROB	1290.868	n/a	-999	-999	n/a	n/a	n/a	n/a	-1	[7, 3, 1]	11	PAL1	0	R1035M
1362.209	62.335	689644	STOP	n/a	n/a	-999	-999	n/a	n/a	n/a	n/a	-1	[-999, -999, -999]	-999	PAL1	0	R1035M
1424.544	10.452	720810	ENCODING_START	n/a	n/a	0	-999	n/a	n/a	n/a	n/a	1	[0, 0, 0]	-999	PAL1	0	R1035M
1434.996	0.275	726036	STUDY_ORIENT	n/a	n/a	1	1	MOUSE	n/a	MOUSE	SEED	1	[0, 0, 0]	-999	PAL1	0	R1035M
1435.829	4.0	726453	STUDY_PAIR	n/a	wordpools/wordpool_EN.txt	1	1	MOUSE	n/a	MOUSE	SEED	1	[0, 0, 0]	-999	PAL1	0	R1035M
1440.863	0.275	728969	STUDY_ORIENT	n/a	n/a	2	4	SWAMP	SEED	SWAMP	PEAR	1	[0, 0, 0]	-999	PAL1	0	R1035M
1441.763	4.0	729419	STUDY_PAIR	n/a	wordpools/wordpool_EN.txt	2	4	SWAMP	SEED	SWAMP	PEAR	1	[0, 0, 0]	-999	PAL1	0	R1035M
1446.797	0.275	731936	STUDY_ORIENT	n/a	n/a	3	5	STORM	n/a	BANK	STORM	1	[0, 0, 0]	-999	PAL1	0	R1035M
1447.631	4.0	732353	STUDY_PAIR	n/a	wordpools/wordpool_EN.txt	3	5	STORM	n/a	BANK	STORM	1	[0, 0, 0]	-999	PAL1	0	R1035M
1452.665	0.275	734870	STUDY_ORIENT	n/a	n/a	4	6	PANTS	FLY	PANTS	SKY	1	[0, 0, 0]	-999	PAL1	0	R1035M
1453.448	4.0	735262	STUDY_PAIR	n/a	wordpools/wordpool_EN.txt	4	6	PANTS	FLY	PANTS	SKY	1	[0, 0, 0]	-999	PAL1	0	R1035M
1458.466	0.275	737770	STUDY_ORIENT	n/a	n/a	5	3	SPEAR	DART	DART	SPEAR	1	[0, 0, 0]	-999	PAL1	0	R1035M
1459.334	4.0	738204	STUDY_PAIR	n/a	wordpools/wordpool_EN.txt	5	3	SPEAR	DART	DART	SPEAR	1	[0, 0, 0]	-999	PAL1	0	R1035M
1464.352	0.275	740713	STUDY_ORIENT	n/a	n/a	6	2	FENCE	n/a	FENCE	STOVE	1	[0, 0, 0]	-999	PAL1	0	R1035M
1465.368	4.0	741221	STUDY_PAIR	n/a	wordpools/wordpool_EN.txt	6	2	FENCE	n/a	FENCE	STOVE	1	[0, 0, 0]	-999	PAL1	0	R1035M
1469.386	0.999	743230	START	n/a	n/a	-999	-999	n/a	n/a	n/a	n/a	1	[-999, -999, -999]	-999	PAL1	0	R1035M
1470.385	0.017	743730	MATH_START	n/a	n/a	-999	-999	n/a	n/a	n/a	n/a	1	[0, 0, 0]	-999	PAL1	0	R1035M
1470.402	7.185	743738	PROB	7.158	n/a	-999	-999	n/a	n/a	n/a	n/a	1	[7, 6, 6]	19	PAL1	0	R1035M
1477.587	5.151	747330	PROB	5.117	n/a	-999	-999	n/a	n/a	n/a	n/a	1	[2, 3, 3]	8	PAL1	0	R1035M
1482.738	4.234	749906	PROB	4.206	n/a	-999	-999	n/a	n/a	n/a	n/a	1	[7, 7, 8]	23	PAL1	0	R1035M
1486.972	8.093	752023	PROB	8.093	n/a	-999	-999	n/a	n/a	n/a	n/a	1	[5, 3, 6]	14	PAL1	0	R1035M
1495.065	0.01	756069	STOP	n/a	n/a	-999	-999	n/a	n/a	n/a	n/a	1	[-999, -999, -999]	-999	PAL1	0	R1035M
1495.075	0.0	756074	MATH_END	n/a	n/a	-999	-999	n/a	n/a	n/a	n/a	1	[0, 0, 0]	-999	PAL1	0	R1035M
1495.075	0.016	756074	TEST_START	n/a	n/a	-999	-999	n/a	n/a	n/a	n/a	1	[0, 0, 0]	-999	PAL1	0	R1035M
1495.091	0.275	756082	TEST_ORIENT	n/a	n/a	1	1	MOUSE	n/a	MOUSE	SEED	1	[0, 0, 0]	-999	PAL1	0	R1035M
1496.008	4.0	756540	TEST_PROBE	n/a	wordpools/wordpool_EN.txt	1	1	MOUSE	n/a	MOUSE	SEED	1	[0, 0, 0]	-999	PAL1	0	R1035M
1496.009	5.004	756541	REC_START	n/a	n/a	1	-999	n/a	n/a	n/a	n/a	1	[0, 0, 0]	-999	PAL1	0	R1035M
1501.013	0.005	759043	REC_EVENT	5.004	n/a	1	1	MOUSE	<>	MOUSE	SEED	1	[0, 0, 0]	-999	PAL1	0	R1035M
1501.018	0.008	759045	REC_END	n/a	n/a	1	-999	n/a	n/a	n/a	n/a	1	[0, 0, 0]	-999	PAL1	0	R1035M
1501.026	0.275	759049	TEST_ORIENT	n/a	n/a	6	2	FENCE	n/a	FENCE	STOVE	1	[0, 0, 0]	-999	PAL1	0	R1035M
1502.009	4.0	759541	TEST_PROBE	n/a	wordpools/wordpool_EN.txt	6	2	FENCE	n/a	FENCE	STOVE	1	[0, 0, 0]	-999	PAL1	0	R1035M
1502.01	4.969	759541	REC_START	n/a	n/a	6	-999	n/a	n/a	n/a	n/a	1	[0, 0, 0]	-999	PAL1	0	R1035M
1506.979	0.04	762026	REC_EVENT	4.969	n/a	6	2	FENCE	<>	FENCE	STOVE	1	[0, 0, 0]	-999	PAL1	0	R1035M
1507.019	0.008	762046	REC_END	n/a	n/a	6	-999	n/a	n/a	n/a	n/a	1	[0, 0, 0]	-999	PAL1	0	R1035M
1507.027	0.275	762050	TEST_ORIENT	n/a	n/a	5	3	SPEAR	DART	DART	SPEAR	1	[0, 0, 0]	-999	PAL1	0	R1035M
1507.943	4.0	762508	TEST_PROBE	n/a	wordpools/wordpool_EN.txt	5	3	SPEAR	DART	DART	SPEAR	1	[0, 0, 0]	-999	PAL1	0	R1035M
1507.944	1.993	762508	REC_START	n/a	n/a	5	-999	n/a	DART	n/a	n/a	1	[0, 0, 0]	-999	PAL1	0	R1035M
1509.937	3.023	763505	REC_EVENT	1.993	n/a	5	3	SPEAR	DART	DART	SPEAR	1	[0, 0, 0]	-999	PAL1	0	R1035M
1512.96	0.017	765016	REC_END	n/a	n/a	5	-999	n/a	n/a	n/a	n/a	1	[0, 0, 0]	-999	PAL1	0	R1035M
1512.977	0.275	765025	TEST_ORIENT	n/a	n/a	2	4	SWAMP	SEED	SWAMP	PEAR	1	[0, 0, 0]	-999	PAL1	0	R1035M
1513.977	4.0	765525	TEST_PROBE	n/a	wordpools/wordpool_EN.txt	2	4	SWAMP	SEED	SWAMP	PEAR	1	[0, 0, 0]	-999	PAL1	0	R1035M
1513.978	2.9	765525	REC_START	n/a	n/a	2	-999	n/a	SEED	n/a	n/a	1	[0, 0, 0]	-999	PAL1	0	R1035M
1516.878	2.109	766975	REC_EVENT	2.9	n/a	2	4	SWAMP	SEED	SWAMP	PEAR	1	[0, 0, 0]	-999	PAL1	0	R1035M
1518.987	0.009	768029	REC_END	n/a	n/a	2	-999	n/a	n/a	n/a	n/a	1	[0, 0, 0]	-999	PAL1	0	R1035M
1518.996	0.275	768034	TEST_ORIENT	n/a	n/a	3	5	STORM	n/a	BANK	STORM	1	[0, 0, 0]	-999	PAL1	0	R1035M
1519.996	4.0	768534	TEST_PROBE	n/a	wordpools/wordpool_EN.txt	3	5	STORM	n/a	BANK	STORM	1	[0, 0, 0]	-999	PAL1	0	R1035M
1519.997	4.859	768534	REC_START	n/a	n/a	3	-999	n/a	n/a	n/a	n/a	1	[0, 0, 0]	-999	PAL1	0	R1035M
1524.856	0.149	770964	REC_EVENT	4.859	n/a	3	5	STORM	<>	BANK	STORM	1	[0, 0, 0]	-999	PAL1	0	R1035M
1525.005	0.009	771038	REC_END	n/a	n/a	3	-999	n/a	n/a	n/a	n/a	1	[0, 0, 0]	-999	PAL1	0	R1035M
1525.014	0.275	771043	TEST_ORIENT	n/a	n/a	4	6	PANTS	FLY	PANTS	SKY	1	[0, 0, 0]	-999	PAL1	0	R1035M
1525.846	4.0	771459	TEST_PROBE	n/a	wordpools/wordpool_EN.txt	4	6	PANTS	FLY	PANTS	SKY	1	[0, 0, 0]	-999	PAL1	0	R1035M
1525.847	2.828	771459	REC_START	n/a	n/a	4	-999	n/a	FLY	n/a	n/a	1	[0, 0, 0]	-999	PAL1	0	R1035M
1528.675	2.189	772873	REC_EVENT	2.828	n/a	4	6	PANTS	FLY	PANTS	SKY	1	[0, 0, 0]	-999	PAL1	0	R1035M
1530.864	34.481	773968	REC_END	n/a	n/a	4	-999	n/a	n/a	n/a	n/a	1	[0, 0, 0]	-999	PAL1	0	R1035M
1565.345	10.445	791207	ENCODING_START	n/a	n/a	0	-999	n/a	n/a	n/a	n/a	2	[0, 0, 0]	-999	PAL1	0	R1035M
1575.79	0.275	796429	STUDY_ORIENT	n/a	n/a	1	1	TANK	n/a	TANK	SHEET	2	[0, 0, 0]	-999	PAL1	0	R1035M
1576.607	4.0	796838	STUDY_PAIR	n/a	wordpools/wordpool_EN.txt	1	1	TANK	n/a	TANK	SHEET	2	[0, 0, 0]	-999	PAL1	0	R1035M
1581.641	0.275	799355	STUDY_ORIENT	n/a	n/a	2	2	FOOT	n/a	KEY	FOOT	2	[0, 0, 0]	-999	PAL1	0	R1035M
1582.558	4.0	799813	STUDY_PAIR	n/a	wordpools/wordpool_EN.txt	2	2	FOOT	n/a	KEY	FOOT	2	[0, 0, 0]	-999	PAL1	0	R1035M
1587.592	0.275	802330	STUDY_ORIENT	n/a	n/a	3	3	NEST	THREAD	THREAD	NEST	2	[0, 0, 0]	-999	PAL1	0	R1035M
1588.592	4.0	802830	STUDY_PAIR	n/a	wordpools/wordpool_EN.txt	3	3	NEST	THREAD	THREAD	NEST	2	[0, 0, 0]	-999	PAL1	0	R1035M
1593.61	0.275	805339	STUDY_ORIENT	n/a	n/a	4	6	FLAME	n/a	FLAME	BLOOM	2	[0, 0, 0]	-999	PAL1	0	R1035M
1594.393	4.0	805730	STUDY_PAIR	n/a	wordpools/wordpool_EN.txt	4	6	FLAME	n/a	FLAME	BLOOM	2	[0, 0, 0]	-999	PAL1	0	R1035M
1599.411	0.275	808239	STUDY_ORIENT	n/a	n/a	5	5	BIRD	NEST	BIRD	DOOR	2	[0, 0, 0]	-999	PAL1	0	R1035M
1600.212	4.0	808640	STUDY_PAIR	n/a	wordpools/wordpool_EN.txt	5	5	BIRD	NEST	BIRD	DOOR	2	[0, 0, 0]	-999	PAL1	0	R1035M
1605.23	0.275	811149	STUDY_ORIENT	n/a	n/a	6	4	FARM	n/a	FARM	BREAD	2	[0, 0, 0]	-999	PAL1	0	R1035M
1606.063	4.0	811565	STUDY_PAIR	n/a	wordpools/wordpool_EN.txt	6	4	FARM	n/a	FARM	BREAD	2	[0, 0, 0]	-999	PAL1	0	R1035M
1610.064	1.0	813566	START	n/a	n/a	-999	-999	n/a	n/a	n/a	n/a	2	[-999, -999, -999]	-999	PAL1	0	R1035M
1611.064	0.017	814065	MATH_START	n/a	n/a	-999	-999	n/a	n/a	n/a	n/a	2	[0, 0, 0]	-999	PAL1	0	R1035M
1611.081	4.001	814074	PROB	3.968	n/a	-999	-999	n/a	n/a	n/a	n/a	2	[1, 6, 6]	13	PAL1	0	R1035M
1615.082	6.584	816074	PROB	6.55	n/a	-999	-999	n/a	n/a	n/a	n/a	2	[9, 3, 2]	14	PAL1	0	R1035M
1621.666	7.301	819366	PROB	7.278	n/a	-999	-999	n/a	n/a	n/a	n/a	2	[9, 7, 1]	17	PAL1	0	R1035M
1628.967	4.905	823017	PROB	4.905	n/a	-999	-999	n/a	n/a	n/a	n/a	2	[5, 1, 8]	14	PAL1	0	R1035M
1633.872	0.013	825469	STOP	n/a	n/a	-999	-999	n/a	n/a	n/a	n/a	2	[-999, -999, -999]	-999	PAL1	0	R1035M
1633.885	0.0	825475	MATH_END	n/a	n/a	-999	-999	n/a	n/a	n/a	n/a	2	[0, 0, 0]	-999	PAL1	0	R1035M
1633.885	0.016	825475	TEST_START	n/a	n/a	-999	-999	n/a	n/a	n/a	n/a	2	[0, 0, 0]	-999	PAL1	0	R1035M
1633.901	0.275	825483	TEST_ORIENT	n/a	n/a	1	1	TANK	n/a	TANK	SHEET	2	[0, 0, 0]	-999	PAL1	0	R1035M
1634.801	4.0	825933	TEST_PROBE	n/a	wordpools/wordpool_EN.txt	1	1	TANK	n/a	TANK	SHEET	2	[0, 0, 0]	-999	PAL1	0	R1035M
1634.802	4.365	825934	REC_START	n/a	n/a	1	-999	n/a	n/a	n/a	n/a	2	[0, 0, 0]	-999	PAL1	0	R1035M
1639.167	0.644	828116	REC_EVENT	4.365	n/a	1	1	TANK	<>	TANK	SHEET	2	[0, 0, 0]	-999	PAL1	0	R1035M
1639.811	0.008	828438	REC_END	n/a	n/a	1	-999	n/a	n/a	n/a	n/a	2	[0, 0, 0]	-999	PAL1	0	R1035M
1639.819	0.275	828442	TEST_ORIENT	n/a	n/a	2	2	FOOT	n/a	KEY	FOOT	2	[0, 0, 0]	-999	PAL1	0	R1035M
1640.652	4.0	828859	TEST_PROBE	n/a	wordpools/wordpool_EN.txt	2	2	FOOT	n/a	KEY	FOOT	2	[0, 0, 0]	-999	PAL1	0	R1035M
1640.653	4.667	828859	REC_START	n/a	n/a	2	-999	n/a	n/a	n/a	n/a	2	[0, 0, 0]	-999	PAL1	0	R1035M
1645.32	0.333	831193	REC_EVENT	4.667	n/a	2	2	FOOT	<>	KEY	FOOT	2	[0, 0, 0]	-999	PAL1	0	R1035M
1645.653	0.017	831359	REC_END	n/a	n/a	2	-999	n/a	n/a	n/a	n/a	2	[0, 0, 0]	-999	PAL1	0	R1035M
1645.67	0.275	831368	TEST_ORIENT	n/a	n/a	3	3	NEST	THREAD	THREAD	NEST	2	[0, 0, 0]	-999	PAL1	0	R1035M
1646.587	4.0	831826	TEST_PROBE	n/a	wordpools/wordpool_EN.txt	3	3	NEST	THREAD	THREAD	NEST	2	[0, 0, 0]	-999	PAL1	0	R1035M
1646.588	1.468	831827	REC_START	n/a	n/a	3	-999	n/a	THREAD	n/a	n/a	2	[0, 0, 0]	-999	PAL1	0	R1035M
1648.056	3.541	832561	REC_EVENT	1.468	n/a	3	3	NEST	THREAD	THREAD	NEST	2	[0, 0, 0]	-999	PAL1	0	R1035M
1651.597	0.008	834331	REC_END	n/a	n/a	3	-999	n/a	n/a	n/a	n/a	2	[0, 0, 0]	-999	PAL1	0	R1035M
1651.605	0.275	834335	TEST_ORIENT	n/a	n/a	6	4	FARM	n/a	FARM	BREAD	2	[0, 0, 0]	-999	PAL1	0	R1035M
1652.538	4.0	834801	TEST_PROBE	n/a	wordpools/wordpool_EN.txt	6	4	FARM	n/a	FARM	BREAD	2	[0, 0, 0]	-999	PAL1	0	R1035M
1652.539	4.852	834802	REC_START	n/a	n/a	6	-999	n/a	n/a	n/a	n/a	2	[0, 0, 0]	-999	PAL1	0	R1035M
1657.391	0.156	837228	REC_EVENT	4.852	n/a	6	4	FARM	<>	FARM	BREAD	2	[0, 0, 0]	-999	PAL1	0	R1035M
1657.547	0.009	837306	REC_END	n/a	n/a	6	-999	n/a	n/a	n/a	n/a	2	[0, 0, 0]	-999	PAL1	0	R1035M
1657.556	0.275	837310	TEST_ORIENT	n/a	n/a	5	5	BIRD	NEST	BIRD	DOOR	2	[0, 0, 0]	-999	PAL1	0	R1035M
1658.39	0.0	837727	REC_START	n/a	n/a	5	-999	n/a	NEST	n/a	n/a	2	[0, 0, 0]	-999	PAL1	0	R1035M
1658.39	4.0	837727	TEST_PROBE	n/a	wordpools/wordpool_EN.txt	5	5	BIRD	NEST	BIRD	DOOR	2	[0, 0, 0]	-999	PAL1	0	R1035M
1662.315	1.092	839690	REC_EVENT	3.925	n/a	5	5	BIRD	NEST	BIRD	DOOR	2	[0, 0, 0]	-999	PAL1	0	R1035M
1663.407	0.017	840236	REC_END	n/a	n/a	5	-999	n/a	n/a	n/a	n/a	2	[0, 0, 0]	-999	PAL1	0	R1035M
1663.424	0.275	840244	TEST_ORIENT	n/a	n/a	4	6	FLAME	n/a	FLAME	BLOOM	2	[0, 0, 0]	-999	PAL1	0	R1035M
1664.407	4.0	840736	TEST_PROBE	n/a	wordpools/wordpool_EN.txt	4	6	FLAME	n/a	FLAME	BLOOM	2	[0, 0, 0]	-999	PAL1	0	R1035M
1664.408	4.76	840736	REC_START	n/a	n/a	4	-999	n/a	n/a	n/a	n/a	2	[0, 0, 0]	-999	PAL1	0	R1035M
1669.168	0.249	843116	REC_EVENT	4.76	n/a	4	6	FLAME	<>	FLAME	BLOOM	2	[0, 0, 0]	-999	PAL1	0	R1035M
1669.417	11.608	843240	REC_END	n/a	n/a	4	-999	n/a	n/a	n/a	n/a	2	[0, 0, 0]	-999	PAL1	0	R1035M
1681.025	10.438	849044	ENCODING_START	n/a	n/a	0	-999	n/a	n/a	n/a	n/a	3	[0, 0, 0]	-999	PAL1	0	R1035M
1691.463	0.275	854263	STUDY_ORIENT	n/a	n/a	1	1	PALM	n/a	DUCK	PALM	3	[0, 0, 0]	-999	PAL1	0	R1035M
1692.314	4.0	854688	STUDY_PAIR	n/a	wordpools/wordpool_EN.txt	1	1	PALM	n/a	DUCK	PALM	3	[0, 0, 0]	-999	PAL1	0	R1035M
1697.348	0.275	857205	STUDY_ORIENT	n/a	n/a	2	6	TRAIN	TREE	SMILE	TRAIN	3	[0, 0, 0]	-999	PAL1	0	R1035M
1698.132	4.0	857597	STUDY_PAIR	n/a	wordpools/wordpool_EN.txt	2	6	TRAIN	TREE	SMILE	TRAIN	3	[0, 0, 0]	-999	PAL1	0	R1035M
1703.166	0.275	860114	STUDY_ORIENT	n/a	n/a	3	5	DESK	DECK	PIE	DESK	3	[0, 0, 0]	-999	PAL1	0	R1035M
1704.083	4.0	860573	STUDY_PAIR	n/a	wordpools/wordpool_EN.txt	3	5	DESK	DECK	PIE	DESK	3	[0, 0, 0]	-999	PAL1	0	R1035M
1709.117	0.275	863089	STUDY_ORIENT	n/a	n/a	4	2	JAR	PEANUT	CORN	JAR	3	[0, 0, 0]	-999	PAL1	0	R1035M
1710.134	4.0	863598	STUDY_PAIR	n/a	wordpools/wordpool_EN.txt	4	2	JAR	PEANUT	CORN	JAR	3	[0, 0, 0]	-999	PAL1	0	R1035M
1715.152	0.275	866107	STUDY_ORIENT	n/a	n/a	5	3	FUDGE	n/a	SHIRT	FUDGE	3	[0, 0, 0]	-999	PAL1	0	R1035M
1716.135	4.0	866598	STUDY_PAIR	n/a	wordpools/wordpool_EN.txt	5	3	FUDGE	n/a	SHIRT	FUDGE	3	[0, 0, 0]	-999	PAL1	0	R1035M
1721.153	0.275	869107	STUDY_ORIENT	n/a	n/a	6	4	BAND	n/a	BAND	TOY	3	[0, 0, 0]	-999	PAL1	0	R1035M
1722.02	4.0	869541	STUDY_PAIR	n/a	wordpools/wordpool_EN.txt	6	4	BAND	n/a	BAND	TOY	3	[0, 0, 0]	-999	PAL1	0	R1035M
1726.038	0.999	871550	START	n/a	n/a	-999	-999	n/a	n/a	n/a	n/a	3	[-999, -999, -999]	-999	PAL1	0	R1035M
1727.037	0.017	872049	MATH_START	n/a	n/a	-999	-999	n/a	n/a	n/a	n/a	3	[0, 0, 0]	-999	PAL1	0	R1035M
1727.054	5.817	872057	PROB	5.786	n/a	-999	-999	n/a	n/a	n/a	n/a	3	[6, 9, 6]	21	PAL1	0	R1035M
1732.871	5.568	874966	PROB	5.545	n/a	-999	-999	n/a	n/a	n/a	n/a	3	[5, 5, 7]	17	PAL1	0	R1035M
1738.439	6.068	877750	PROB	6.041	n/a	-999	-999	n/a	n/a	n/a	n/a	3	[3, 1, 9]	13	PAL1	0	R1035M
1744.507	8.005	880784	PROB	8.005	n/a	-999	-999	n/a	n/a	n/a	n/a	3	[8, 7, 1]	16	PAL1	0	R1035M
1752.512	0.013	884786	STOP	n/a	n/a	-999	-999	n/a	n/a	n/a	n/a	3	[-999, -999, -999]	-999	PAL1	0	R1035M
1752.525	0.0	884792	MATH_END	n/a	n/a	-999	-999	n/a	n/a	n/a	n/a	3	[0, 0, 0]	-999	PAL1	0	R1035M
1752.525	0.017	884792	TEST_START	n/a	n/a	-999	-999	n/a	n/a	n/a	n/a	3	[0, 0, 0]	-999	PAL1	0	R1035M
1752.542	0.275	884801	TEST_ORIENT	n/a	n/a	1	1	PALM	n/a	DUCK	PALM	3	[0, 0, 0]	-999	PAL1	0	R1035M
1753.509	4.0	885284	TEST_PROBE	n/a	wordpools/wordpool_EN.txt	1	1	PALM	n/a	DUCK	PALM	3	[0, 0, 0]	-999	PAL1	0	R1035M
1753.509	4.736	885284	REC_START	n/a	n/a	1	-999	n/a	n/a	n/a	n/a	3	[0, 0, 0]	-999	PAL1	0	R1035M
1758.245	0.289	887652	REC_EVENT	4.736	n/a	1	1	PALM	<>	DUCK	PALM	3	[0, 0, 0]	-999	PAL1	0	R1035M
1758.534	0.009	887797	REC_END	n/a	n/a	1	-999	n/a	n/a	n/a	n/a	3	[0, 0, 0]	-999	PAL1	0	R1035M
1758.543	0.275	887801	TEST_ORIENT	n/a	n/a	4	2	JAR	PEANUT	CORN	JAR	3	[0, 0, 0]	-999	PAL1	0	R1035M
1759.36	4.0	888210	TEST_PROBE	n/a	wordpools/wordpool_EN.txt	4	2	JAR	PEANUT	CORN	JAR	3	[0, 0, 0]	-999	PAL1	0	R1035M
1759.36	3.31	888210	REC_START	n/a	n/a	4	-999	n/a	PEANUT	n/a	n/a	3	[0, 0, 0]	-999	PAL1	0	R1035M
1762.67	1.707	889865	REC_EVENT	3.31	n/a	4	2	JAR	PEANUT	CORN	JAR	3	[0, 0, 0]	-999	PAL1	0	R1035M
1764.377	0.017	890718	REC_END	n/a	n/a	4	-999	n/a	n/a	n/a	n/a	3	[0, 0, 0]	-999	PAL1	0	R1035M
1764.394	0.275	890727	TEST_ORIENT	n/a	n/a	5	3	FUDGE	n/a	SHIRT	FUDGE	3	[0, 0, 0]	-999	PAL1	0	R1035M
1765.411	4.0	891235	TEST_PROBE	n/a	wordpools/wordpool_EN.txt	5	3	FUDGE	n/a	SHIRT	FUDGE	3	[0, 0, 0]	-999	PAL1	0	R1035M
1765.412	4.643	891236	REC_START	n/a	n/a	5	-999	n/a	n/a	n/a	n/a	3	[0, 0, 0]	-999	PAL1	0	R1035M
1770.055	0.373	893557	REC_EVENT	4.643	n/a	5	3	FUDGE	<>	SHIRT	FUDGE	3	[0, 0, 0]	-999	PAL1	0	R1035M
1770.428	0.017	893743	REC_END	n/a	n/a	5	-999	n/a	n/a	n/a	n/a	3	[0, 0, 0]	-999	PAL1	0	R1035M
1770.445	0.275	893752	TEST_ORIENT	n/a	n/a	6	4	BAND	n/a	BAND	TOY	3	[0, 0, 0]	-999	PAL1	0	R1035M
1771.429	4.0	894244	TEST_PROBE	n/a	wordpools/wordpool_EN.txt	6	4	BAND	n/a	BAND	TOY	3	[0, 0, 0]	-999	PAL1	0	R1035M
1771.429	4.527	894244	REC_START	n/a	n/a	6	-999	n/a	n/a	n/a	n/a	3	[0, 0, 0]	-999	PAL1	0	R1035M
1775.956	0.49	896507	REC_EVENT	4.527	n/a	6	4	BAND	<>	BAND	TOY	3	[0, 0, 0]	-999	PAL1	0	R1035M
1776.446	0.017	896752	REC_END	n/a	n/a	6	-999	n/a	n/a	n/a	n/a	3	[0, 0, 0]	-999	PAL1	0	R1035M
1776.463	0.275	896761	TEST_ORIENT	n/a	n/a	3	5	DESK	DECK	PIE	DESK	3	[0, 0, 0]	-999	PAL1	0	R1035M
1777.331	4.0	897195	TEST_PROBE	n/a	wordpools/wordpool_EN.txt	3	5	DESK	DECK	PIE	DESK	3	[0, 0, 0]	-999	PAL1	0	R1035M
1777.331	2.644	897195	REC_START	n/a	n/a	3	-999	n/a	DECK	n/a	n/a	3	[0, 0, 0]	-999	PAL1	0	R1035M
1779.975	2.373	898517	REC_EVENT	2.644	n/a	3	5	DESK	DECK	PIE	DESK	3	[0, 0, 0]	-999	PAL1	0	R1035M
1782.348	0.016	899703	REC_END	n/a	n/a	3	-999	n/a	n/a	n/a	n/a	3	[0, 0, 0]	-999	PAL1	0	R1035M
1782.364	0.275	899711	TEST_ORIENT	n/a	n/a	2	6	TRAIN	TREE	SMILE	TRAIN	3	[0, 0, 0]	-999	PAL1	0	R1035M
1783.332	4.0	900195	TEST_PROBE	n/a	wordpools/wordpool_EN.txt	2	6	TRAIN	TREE	SMILE	TRAIN	3	[0, 0, 0]	-999	PAL1	0	R1035M
1783.332	4.067	900195	REC_START	n/a	n/a	2	-999	n/a	TREE	n/a	n/a	3	[0, 0, 0]	-999	PAL1	0	R1035M
1787.399	0.951	902228	REC_EVENT	4.067	n/a	2	6	TRAIN	TREE	SMILE	TRAIN	3	[0, 0, 0]	-999	PAL1	0	R1035M
1788.35	4.21	902704	REC_END	n/a	n/a	2	-999	n/a	n/a	n/a	n/a	3	[0, 0, 0]	-999	PAL1	0	R1035M
1792.56	10.443	904809	ENCODING_START	n/a	n/a	0	-999	n/a	n/a	n/a	n/a	4	[0, 0, 0]	-999	PAL1	0	R1035M
1803.003	0.275	910030	STUDY_ORIENT	n/a	n/a	1	1	RAIN	SQUARE	SQUARE	RAIN	4	[0, 0, 0]	-999	PAL1	0	R1035M
1804.019	4.0	910538	STUDY_PAIR	n/a	wordpools/wordpool_EN.txt	1	1	RAIN	SQUARE	SQUARE	RAIN	4	[0, 0, 0]	-999	PAL1	0	R1035M
1809.037	0.275	913047	STUDY_ORIENT	n/a	n/a	2	2	RAT	GRASS	RAT	GRASS	4	[0, 0, 0]	-999	PAL1	0	R1035M
1809.92	4.0	913488	STUDY_PAIR	n/a	wordpools/wordpool_EN.txt	2	2	RAT	GRASS	RAT	GRASS	4	[0, 0, 0]	-999	PAL1	0	R1035M
1814.954	0.275	916005	STUDY_ORIENT	n/a	n/a	3	5	THUMB	n/a	MAZE	THUMB	4	[0, 0, 0]	-999	PAL1	0	R1035M
1815.954	4.0	916505	STUDY_PAIR	n/a	wordpools/wordpool_EN.txt	3	5	THUMB	n/a	MAZE	THUMB	4	[0, 0, 0]	-999	PAL1	0	R1035M
1820.972	0.275	919014	STUDY_ORIENT	n/a	n/a	4	6	BRIDGE	RAT	BRIDGE	HEN	4	[0, 0, 0]	-999	PAL1	0	R1035M
1821.889	4.0	919473	STUDY_PAIR	n/a	wordpools/wordpool_EN.txt	4	6	BRIDGE	RAT	BRIDGE	HEN	4	[0, 0, 0]	-999	PAL1	0	R1035M
1826.923	0.275	921989	STUDY_ORIENT	n/a	n/a	5	3	JUICE	STEAK	JUICE	STEAK	4	[0, 0, 0]	-999	PAL1	0	R1035M
1827.74	4.0	922398	STUDY_PAIR	n/a	wordpools/wordpool_EN.txt	5	3	JUICE	STEAK	JUICE	STEAK	4	[0, 0, 0]	-999	PAL1	0	R1035M
1832.758	0.275	924907	STUDY_ORIENT	n/a	n/a	6	4	PARK	n/a	MUG	PARK	4	[0, 0, 0]	-999	PAL1	0	R1035M
1833.675	4.0	925365	STUDY_PAIR	n/a	wordpools/wordpool_EN.txt	6	4	PARK	n/a	MUG	PARK	4	[0, 0, 0]	-999	PAL1	0	R1035M
1837.693	0.999	927374	START	n/a	n/a	-999	-999	n/a	n/a	n/a	n/a	4	[-999, -999, -999]	-999	PAL1	0	R1035M
1838.692	0.017	927874	MATH_START	n/a	n/a	-999	-999	n/a	n/a	n/a	n/a	4	[0, 0, 0]	-999	PAL1	0	R1035M
1838.709	9.235	927882	PROB	9.211	n/a	-999	-999	n/a	n/a	n/a	n/a	4	[9, 6, 1]	16	PAL1	0	R1035M
1847.944	16.04	932499	PROB	16.04	n/a	-999	-999	n/a	n/a	n/a	n/a	4	[8, 5, 4]	17	PAL1	0	R1035M
1863.984	0.014	940519	STOP	n/a	n/a	-999	-999	n/a	n/a	n/a	n/a	4	[-999, -999, -999]	-999	PAL1	0	R1035M
1863.998	0.0	940526	MATH_END	n/a	n/a	-999	-999	n/a	n/a	n/a	n/a	4	[0, 0, 0]	-999	PAL1	0	R1035M
1863.998	0.017	940526	TEST_START	n/a	n/a	-999	-999	n/a	n/a	n/a	n/a	4	[0, 0, 0]	-999	PAL1	0	R1035M
1864.015	0.275	940534	TEST_ORIENT	n/a	n/a	1	1	RAIN	SQUARE	SQUARE	RAIN	4	[0, 0, 0]	-999	PAL1	0	R1035M
1864.964	4.0	941009	TEST_PROBE	n/a	wordpools/wordpool_EN.txt	1	1	RAIN	SQUARE	SQUARE	RAIN	4	[0, 0, 0]	-999	PAL1	0	R1035M
1864.965	3.091	941009	REC_START	n/a	n/a	1	-999	n/a	SQUARE	n/a	n/a	4	[0, 0, 0]	-999	PAL1	0	R1035M
1868.056	1.918	942555	REC_EVENT	3.091	n/a	1	1	RAIN	SQUARE	SQUARE	RAIN	4	[0, 0, 0]	-999	PAL1	0	R1035M
1869.974	0.008	943514	REC_END	n/a	n/a	1	-999	n/a	n/a	n/a	n/a	4	[0, 0, 0]	-999	PAL1	0	R1035M
1869.982	0.275	943518	TEST_ORIENT	n/a	n/a	2	2	RAT	GRASS	RAT	GRASS	4	[0, 0, 0]	-999	PAL1	0	R1035M
1870.765	4.0	943909	TEST_PROBE	n/a	wordpools/wordpool_EN.txt	2	2	RAT	GRASS	RAT	GRASS	4	[0, 0, 0]	-999	PAL1	0	R1035M
1870.766	3.667	943910	REC_START	n/a	n/a	2	-999	n/a	GRASS	n/a	n/a	4	[0, 0, 0]	-999	PAL1	0	R1035M
1874.433	1.342	945743	REC_EVENT	3.667	n/a	2	2	RAT	GRASS	RAT	GRASS	4	[0, 0, 0]	-999	PAL1	0	R1035M
1875.775	0.008	946414	REC_END	n/a	n/a	2	-999	n/a	n/a	n/a	n/a	4	[0, 0, 0]	-999	PAL1	0	R1035M
1875.783	0.275	946418	TEST_ORIENT	n/a	n/a	5	3	JUICE	STEAK	JUICE	STEAK	4	[0, 0, 0]	-999	PAL1	0	R1035M
1876.733	4.0	946893	TEST_PROBE	n/a	wordpools/wordpool_EN.txt	5	3	JUICE	STEAK	JUICE	STEAK	4	[0, 0, 0]	-999	PAL1	0	R1035M
1876.734	1.277	946894	REC_START	n/a	n/a	5	-999	n/a	STEAK	n/a	n/a	4	[0, 0, 0]	-999	PAL1	0	R1035M
1878.011	3.732	947532	REC_EVENT	1.277	n/a	5	3	JUICE	STEAK	JUICE	STEAK	4	[0, 0, 0]	-999	PAL1	0	R1035M
1881.743	0.008	949398	REC_END	n/a	n/a	5	-999	n/a	n/a	n/a	n/a	4	[0, 0, 0]	-999	PAL1	0	R1035M
1881.751	0.275	949402	TEST_ORIENT	n/a	n/a	6	4	PARK	n/a	MUG	PARK	4	[0, 0, 0]	-999	PAL1	0	R1035M
1882.618	0.0	949835	REC_START	n/a	n/a	6	-999	n/a	n/a	n/a	n/a	4	[0, 0, 0]	-999	PAL1	0	R1035M
1882.618	4.0	949835	TEST_PROBE	n/a	wordpools/wordpool_EN.txt	6	4	PARK	n/a	MUG	PARK	4	[0, 0, 0]	-999	PAL1	0	R1035M
1887.354	0.281	952203	REC_EVENT	4.736	n/a	6	4	PARK	<>	MUG	PARK	4	[0, 0, 0]	-999	PAL1	0	R1035M
1887.635	0.017	952344	REC_END	n/a	n/a	6	-999	n/a	n/a	n/a	n/a	4	[0, 0, 0]	-999	PAL1	0	R1035M
1887.652	0.275	952352	TEST_ORIENT	n/a	n/a	3	5	THUMB	n/a	MAZE	THUMB	4	[0, 0, 0]	-999	PAL1	0	R1035M
1888.552	4.0	952802	TEST_PROBE	n/a	wordpools/wordpool_EN.txt	3	5	THUMB	n/a	MAZE	THUMB	4	[0, 0, 0]	-999	PAL1	0	R1035M
1888.553	4.69	952803	REC_START	n/a	n/a	3	-999	n/a	n/a	n/a	n/a	4	[0, 0, 0]	-999	PAL1	0	R1035M
1893.243	0.318	955148	REC_EVENT	4.69	n/a	3	5	THUMB	<>	MAZE	THUMB	4	[0, 0, 0]	-999	PAL1	0	R1035M
1893.561	0.009	955307	REC_END	n/a	n/a	3	-999	n/a	n/a	n/a	n/a	4	[0, 0, 0]	-999	PAL1	0	R1035M
1893.57	0.275	955311	TEST_ORIENT	n/a	n/a	4	6	BRIDGE	RAT	BRIDGE	HEN	4	[0, 0, 0]	-999	PAL1	0	R1035M
1894.437	4.0	955745	TEST_PROBE	n/a	wordpools/wordpool_EN.txt	4	6	BRIDGE	RAT	BRIDGE	HEN	4	[0, 0, 0]	-999	PAL1	0	R1035M
1894.437	3.835	955745	REC_START	n/a	n/a	4	-999	n/a	RAT	n/a	n/a	4	[0, 0, 0]	-999	PAL1	0	R1035M
1898.272	1.182	957662	REC_EVENT	3.835	n/a	4	6	BRIDGE	RAT	BRIDGE	HEN	4	[0, 0, 0]	-999	PAL1	0	R1035M
1899.454	5.506	958253	REC_END	n/a	n/a	4	-999	n/a	n/a	n/a	n/a	4	[0, 0, 0]	-999	PAL1	0	R1035M
1904.96	10.448	961006	ENCODING_START	n/a	n/a	0	-999	n/a	n/a	n/a	n/a	5	[0, 0, 0]	-999	PAL1	0	R1035M
1915.408	0.275	966230	STUDY_ORIENT	n/a	n/a	1	1	HOOF	n/a	LIP	HOOF	5	[0, 0, 0]	-999	PAL1	0	R1035M
1916.275	4.0	966663	STUDY_PAIR	n/a	wordpools/wordpool_EN.txt	1	1	HOOF	n/a	LIP	HOOF	5	[0, 0, 0]	-999	PAL1	0	R1035M
1921.293	0.275	969172	STUDY_ORIENT	n/a	n/a	2	4	SNAKE	GRASS	SNAKE	VEST	5	[0, 0, 0]	-999	PAL1	0	R1035M
1922.193	4.0	969622	STUDY_PAIR	n/a	wordpools/wordpool_EN.txt	2	4	SNAKE	GRASS	SNAKE	VEST	5	[0, 0, 0]	-999	PAL1	0	R1035M
1927.211	0.275	972131	STUDY_ORIENT	n/a	n/a	3	3	SUN	LIP	LEG	SUN	5	[0, 0, 0]	-999	PAL1	0	R1035M
1928.078	4.0	972564	STUDY_PAIR	n/a	wordpools/wordpool_EN.txt	3	3	SUN	LIP	LEG	SUN	5	[0, 0, 0]	-999	PAL1	0	R1035M
1933.112	0.275	975081	STUDY_ORIENT	n/a	n/a	4	2	MAP	SWIM	MAP	POOL	5	[0, 0, 0]	-999	PAL1	0	R1035M
1933.944	4.0	975497	STUDY_PAIR	n/a	wordpools/wordpool_EN.txt	4	2	MAP	SWIM	MAP	POOL	5	[0, 0, 0]	-999	PAL1	0	R1035M
1938.962	0.275	978006	STUDY_ORIENT	n/a	n/a	5	5	MUD	n/a	MUD	COUCH	5	[0, 0, 0]	-999	PAL1	0	R1035M
1939.913	4.0	978482	STUDY_PAIR	n/a	wordpools/wordpool_EN.txt	5	5	MUD	n/a	MUD	COUCH	5	[0, 0, 0]	-999	PAL1	0	R1035M
1944.947	0.275	980998	STUDY_ORIENT	n/a	n/a	6	6	ROPE	n/a	ROPE	INK	5	[0, 0, 0]	-999	PAL1	0	R1035M
1945.747	4.0	981398	STUDY_PAIR	n/a	wordpools/wordpool_EN.txt	6	6	ROPE	n/a	ROPE	INK	5	[0, 0, 0]	-999	PAL1	0	R1035M
1949.765	1.0	983407	START	n/a	n/a	-999	-999	n/a	n/a	n/a	n/a	5	[-999, -999, -999]	-999	PAL1	0	R1035M
1950.765	0.016	983907	MATH_START	n/a	n/a	-999	-999	n/a	n/a	n/a	n/a	5	[0, 0, 0]	-999	PAL1	0	R1035M
1950.781	4.018	983915	PROB	3.995	n/a	-999	-999	n/a	n/a	n/a	n/a	5	[1, 2, 6]	9	PAL1	0	R1035M
1954.799	10.135	985924	PROB	10.105	n/a	-999	-999	n/a	n/a	n/a	n/a	5	[6, 9, 6]	21	PAL1	0	R1035M
1964.934	4.734	990991	PROB	4.706	n/a	-999	-999	n/a	n/a	n/a	n/a	5	[5, 6, 8]	19	PAL1	0	R1035M
1969.668	4.764	993358	PROB	4.764	n/a	-999	-999	n/a	n/a	n/a	n/a	5	[2, 6, 4]	12	PAL1	0	R1035M
1974.432	0.004	995740	STOP	n/a	n/a	-999	-999	n/a	n/a	n/a	n/a	5	[-999, -999, -999]	-999	PAL1	0	R1035M
1974.436	0.0	995742	TEST_START	n/a	n/a	-999	-999	n/a	n/a	n/a	n/a	5	[0, 0, 0]	-999	PAL1	0	R1035M
1974.436	0.017	995742	MATH_END	n/a	n/a	-999	-999	n/a	n/a	n/a	n/a	5	[0, 0, 0]	-999	PAL1	0	R1035M
1974.453	0.275	995751	TEST_ORIENT	n/a	n/a	1	1	HOOF	n/a	LIP	HOOF	5	[0, 0, 0]	-999	PAL1	0	R1035M
1975.436	4.0	996242	TEST_PROBE	n/a	wordpools/wordpool_EN.txt	1	1	HOOF	n/a	LIP	HOOF	5	[0, 0, 0]	-999	PAL1	0	R1035M
1975.437	4.574	996243	REC_START	n/a	n/a	1	-999	n/a	n/a	n/a	n/a	5	[0, 0, 0]	-999	PAL1	0	R1035M
1980.011	0.434	998529	REC_EVENT	4.574	n/a	1	1	HOOF	<>	LIP	HOOF	5	[0, 0, 0]	-999	PAL1	0	R1035M
1980.445	0.009	998746	REC_END	n/a	n/a	1	-999	n/a	n/a	n/a	n/a	5	[0, 0, 0]	-999	PAL1	0	R1035M
1980.454	0.275	998751	TEST_ORIENT	n/a	n/a	4	2	MAP	SWIM	MAP	POOL	5	[0, 0, 0]	-999	PAL1	0	R1035M
1981.437	4.0	999242	TEST_PROBE	n/a	wordpools/wordpool_EN.txt	4	2	MAP	SWIM	MAP	POOL	5	[0, 0, 0]	-999	PAL1	0	R1035M
1981.438	2.848	999243	REC_START	n/a	n/a	4	-999	n/a	SWIM	n/a	n/a	5	[0, 0, 0]	-999	PAL1	0	R1035M
1984.286	2.161	1000667	REC_EVENT	2.848	n/a	4	2	MAP	SWIM	MAP	POOL	5	[0, 0, 0]	-999	PAL1	0	R1035M
1986.447	0.008	1001747	REC_END	n/a	n/a	4	-999	n/a	n/a	n/a	n/a	5	[0, 0, 0]	-999	PAL1	0	R1035M
1986.455	0.275	1001751	TEST_ORIENT	n/a	n/a	3	3	SUN	LIP	LEG	SUN	5	[0, 0, 0]	-999	PAL1	0	R1035M
1987.455	4.0	1002251	TEST_PROBE	n/a	wordpools/wordpool_EN.txt	3	3	SUN	LIP	LEG	SUN	5	[0, 0, 0]	-999	PAL1	0	R1035M
1987.456	3.7	1002252	REC_START	n/a	n/a	3	-999	n/a	LIP	n/a	n/a	5	[0, 0, 0]	-999	PAL1	0	R1035M
1991.156	1.309	1004102	REC_EVENT	3.7	n/a	3	3	SUN	LIP	LEG	SUN	5	[0, 0, 0]	-999	PAL1	0	R1035M
1992.465	0.008	1004756	REC_END	n/a	n/a	3	-999	n/a	n/a	n/a	n/a	5	[0, 0, 0]	-999	PAL1	0	R1035M
1992.473	0.275	1004760	TEST_ORIENT	n/a	n/a	2	4	SNAKE	GRASS	SNAKE	VEST	5	[0, 0, 0]	-999	PAL1	0	R1035M
1993.39	4.0	1005219	TEST_PROBE	n/a	wordpools/wordpool_EN.txt	2	4	SNAKE	GRASS	SNAKE	VEST	5	[0, 0, 0]	-999	PAL1	0	R1035M
1993.398	3.892	1005223	REC_START	n/a	n/a	2	-999	n/a	GRASS	n/a	n/a	5	[0, 0, 0]	-999	PAL1	0	R1035M
1997.29	1.126	1007169	REC_EVENT	3.892	n/a	2	4	SNAKE	GRASS	SNAKE	VEST	5	[0, 0, 0]	-999	PAL1	0	R1035M
1998.416	0.008	1007731	REC_END	n/a	n/a	2	-999	n/a	n/a	n/a	n/a	5	[0, 0, 0]	-999	PAL1	0	R1035M
1998.424	0.275	1007735	TEST_ORIENT	n/a	n/a	5	5	MUD	n/a	MUD	COUCH	5	[0, 0, 0]	-999	PAL1	0	R1035M
1999.441	4.0	1008244	TEST_PROBE	n/a	wordpools/wordpool_EN.txt	5	5	MUD	n/a	MUD	COUCH	5	[0, 0, 0]	-999	PAL1	0	R1035M
1999.442	4.783	1008244	REC_START	n/a	n/a	5	-999	n/a	n/a	n/a	n/a	5	[0, 0, 0]	-999	PAL1	0	R1035M
2004.225	0.226	1010636	REC_EVENT	4.783	n/a	5	5	MUD	<>	MUD	COUCH	5	[0, 0, 0]	-999	PAL1	0	R1035M
2004.451	0.008	1010749	REC_END	n/a	n/a	5	-999	n/a	n/a	n/a	n/a	5	[0, 0, 0]	-999	PAL1	0	R1035M
2004.459	0.275	1010753	TEST_ORIENT	n/a	n/a	6	6	ROPE	n/a	ROPE	INK	5	[0, 0, 0]	-999	PAL1	0	R1035M
2005.492	4.0	1011269	TEST_PROBE	n/a	wordpools/wordpool_EN.txt	6	6	ROPE	n/a	ROPE	INK	5	[0, 0, 0]	-999	PAL1	0	R1035M
2005.492	4.829	1011269	REC_START	n/a	n/a	6	-999	n/a	n/a	n/a	n/a	5	[0, 0, 0]	-999	PAL1	0	R1035M
2010.321	0.189	1013684	REC_EVENT	4.829	n/a	6	6	ROPE	<>	ROPE	INK	5	[0, 0, 0]	-999	PAL1	0	R1035M
2010.51	45.258	1013778	REC_END	n/a	n/a	6	-999	n/a	n/a	n/a	n/a	5	[0, 0, 0]	-999	PAL1	0	R1035M
2055.768	10.454	1036406	ENCODING_START	n/a	n/a	0	-999	n/a	n/a	n/a	n/a	6	[0, 0, 0]	-999	PAL1	0	R1035M
2066.222	0.275	1041633	STUDY_ORIENT	n/a	n/a	1	1	SHRIMP	n/a	CLOWN	SHRIMP	6	[0, 0, 0]	-999	PAL1	0	R1035M
2067.189	4.0	1042116	STUDY_PAIR	n/a	wordpools/wordpool_EN.txt	1	1	SHRIMP	n/a	CLOWN	SHRIMP	6	[0, 0, 0]	-999	PAL1	0	R1035M
2072.223	0.275	1044633	STUDY_ORIENT	n/a	n/a	2	2	CLOTH	n/a	ROCK	CLOTH	6	[0, 0, 0]	-999	PAL1	0	R1035M
2073.057	4.0	1045050	STUDY_PAIR	n/a	wordpools/wordpool_EN.txt	2	2	CLOTH	n/a	ROCK	CLOTH	6	[0, 0, 0]	-999	PAL1	0	R1035M
2078.091	0.275	1047567	STUDY_ORIENT	n/a	n/a	3	5	BENCH	n/a	SHIELD	BENCH	6	[0, 0, 0]	-999	PAL1	0	R1035M
2078.874	4.0	1047958	STUDY_PAIR	n/a	wordpools/wordpool_EN.txt	3	5	BENCH	n/a	SHIELD	BENCH	6	[0, 0, 0]	-999	PAL1	0	R1035M
2083.908	0.275	1050475	STUDY_ORIENT	n/a	n/a	4	4	WHEEL	n/a	GLOVE	WHEEL	6	[0, 0, 0]	-999	PAL1	0	R1035M
2084.725	4.0	1050884	STUDY_PAIR	n/a	wordpools/wordpool_EN.txt	4	4	WHEEL	n/a	GLOVE	WHEEL	6	[0, 0, 0]	-999	PAL1	0	R1035M
2089.759	0.275	1053401	STUDY_ORIENT	n/a	n/a	5	3	GEESE	n/a	GEESE	BROOM	6	[0, 0, 0]	-999	PAL1	0	R1035M
2090.609	4.0	1053826	STUDY_PAIR	n/a	wordpools/wordpool_EN.txt	5	3	GEESE	n/a	GEESE	BROOM	6	[0, 0, 0]	-999	PAL1	0	R1035M
2095.627	0.275	1056334	STUDY_ORIENT	n/a	n/a	6	6	SAIL	TRAIL	BEACH	SAIL	6	[0, 0, 0]	-999	PAL1	0	R1035M
2096.561	4.0	1056801	STUDY_PAIR	n/a	wordpools/wordpool_EN.txt	6	6	SAIL	TRAIL	BEACH	SAIL	6	[0, 0, 0]	-999	PAL1	0	R1035M
2100.579	0.999	1058810	START	n/a	n/a	-999	-999	n/a	n/a	n/a	n/a	6	[-999, -999, -999]	-999	PAL1	0	R1035M
2101.578	0.017	1059310	MATH_START	n/a	n/a	-999	-999	n/a	n/a	n/a	n/a	6	[0, 0, 0]	-999	PAL1	0	R1035M
2101.595	5.784	1059318	PROB	5.757	n/a	-999	-999	n/a	n/a	n/a	n/a	6	[4, 7, 7]	18	PAL1	0	R1035M
2107.379	9.552	1062210	PROB	9.533	n/a	-999	-999	n/a	n/a	n/a	n/a	6	[7, 8, 8]	23	PAL1	0	R1035M
2116.931	3.933	1066986	PROB	3.933	n/a	-999	-999	n/a	n/a	n/a	n/a	6	[4, 7, 7]	18	PAL1	0	R1035M
2120.864	0.018	1068952	STOP	n/a	n/a	-999	-999	n/a	n/a	n/a	n/a	6	[-999, -999, -999]	-999	PAL1	0	R1035M
2120.882	0.0	1068961	MATH_END	n/a	n/a	-999	-999	n/a	n/a	n/a	n/a	6	[0, 0, 0]	-999	PAL1	0	R1035M
2120.882	0.017	1068961	TEST_START	n/a	n/a	-999	-999	n/a	n/a	n/a	n/a	6	[0, 0, 0]	-999	PAL1	0	R1035M
2120.899	0.275	1068970	TEST_ORIENT	n/a	n/a	1	1	SHRIMP	n/a	CLOWN	SHRIMP	6	[0, 0, 0]	-999	PAL1	0	R1035M
2121.715	4.0	1069378	TEST_PROBE	n/a	wordpools/wordpool_EN.txt	1	1	SHRIMP	n/a	CLOWN	SHRIMP	6	[0, 0, 0]	-999	PAL1	0	R1035M
2121.716	4.869	1069378	REC_START	n/a	n/a	1	-999	n/a	n/a	n/a	n/a	6	[0, 0, 0]	-999	PAL1	0	R1035M
2126.585	0.139	1071813	REC_EVENT	4.869	n/a	1	1	SHRIMP	<>	CLOWN	SHRIMP	6	[0, 0, 0]	-999	PAL1	0	R1035M
2126.724	0.009	1071882	REC_END	n/a	n/a	1	-999	n/a	n/a	n/a	n/a	6	[0, 0, 0]	-999	PAL1	0	R1035M
2126.733	0.275	1071887	TEST_ORIENT	n/a	n/a	2	2	CLOTH	n/a	ROCK	CLOTH	6	[0, 0, 0]	-999	PAL1	0	R1035M
2127.567	4.0	1072304	TEST_PROBE	n/a	wordpools/wordpool_EN.txt	2	2	CLOTH	n/a	ROCK	CLOTH	6	[0, 0, 0]	-999	PAL1	0	R1035M
2127.567	4.574	1072304	REC_START	n/a	n/a	2	-999	n/a	n/a	n/a	n/a	6	[0, 0, 0]	-999	PAL1	0	R1035M
2132.141	0.443	1074591	REC_EVENT	4.574	n/a	2	2	CLOTH	<>	ROCK	CLOTH	6	[0, 0, 0]	-999	PAL1	0	R1035M
2132.584	0.017	1074812	REC_END	n/a	n/a	2	-999	n/a	n/a	n/a	n/a	6	[0, 0, 0]	-999	PAL1	0	R1035M
2132.601	0.275	1074821	TEST_ORIENT	n/a	n/a	5	3	GEESE	n/a	GEESE	BROOM	6	[0, 0, 0]	-999	PAL1	0	R1035M
2133.635	4.0	1075338	TEST_PROBE	n/a	wordpools/wordpool_EN.txt	5	3	GEESE	n/a	GEESE	BROOM	6	[0, 0, 0]	-999	PAL1	0	R1035M
2133.635	4.481	1075338	REC_START	n/a	n/a	5	-999	n/a	n/a	n/a	n/a	6	[0, 0, 0]	-999	PAL1	0	R1035M
2138.116	0.536	1077578	REC_EVENT	4.481	n/a	5	3	GEESE	<>	GEESE	BROOM	6	[0, 0, 0]	-999	PAL1	0	R1035M
2138.652	0.017	1077846	REC_END	n/a	n/a	5	-999	n/a	n/a	n/a	n/a	6	[0, 0, 0]	-999	PAL1	0	R1035M
2138.669	0.275	1077854	TEST_ORIENT	n/a	n/a	4	4	WHEEL	n/a	GLOVE	WHEEL	6	[0, 0, 0]	-999	PAL1	0	R1035M
2139.652	4.0	1078346	TEST_PROBE	n/a	wordpools/wordpool_EN.txt	4	4	WHEEL	n/a	GLOVE	WHEEL	6	[0, 0, 0]	-999	PAL1	0	R1035M
2139.653	4.736	1078346	REC_START	n/a	n/a	4	-999	n/a	n/a	n/a	n/a	6	[0, 0, 0]	-999	PAL1	0	R1035M
2144.389	0.273	1080714	REC_EVENT	4.736	n/a	4	4	WHEEL	<>	GLOVE	WHEEL	6	[0, 0, 0]	-999	PAL1	0	R1035M
2144.662	0.008	1080851	REC_END	n/a	n/a	4	-999	n/a	n/a	n/a	n/a	6	[0, 0, 0]	-999	PAL1	0	R1035M
2144.67	0.275	1080855	TEST_ORIENT	n/a	n/a	3	5	BENCH	n/a	SHIELD	BENCH	6	[0, 0, 0]	-999	PAL1	0	R1035M
2145.687	4.0	1081363	TEST_PROBE	n/a	wordpools/wordpool_EN.txt	3	5	BENCH	n/a	SHIELD	BENCH	6	[0, 0, 0]	-999	PAL1	0	R1035M
2145.688	4.504	1081364	REC_START	n/a	n/a	3	-999	n/a	n/a	n/a	n/a	6	[0, 0, 0]	-999	PAL1	0	R1035M
2150.192	0.512	1083616	REC_EVENT	4.504	n/a	3	5	BENCH	<>	SHIELD	BENCH	6	[0, 0, 0]	-999	PAL1	0	R1035M
2150.704	0.017	1083872	REC_END	n/a	n/a	3	-999	n/a	n/a	n/a	n/a	6	[0, 0, 0]	-999	PAL1	0	R1035M
2150.721	0.275	1083880	TEST_ORIENT	n/a	n/a	6	6	SAIL	TRAIL	BEACH	SAIL	6	[0, 0, 0]	-999	PAL1	0	R1035M
2151.522	4.0	1084281	TEST_PROBE	n/a	wordpools/wordpool_EN.txt	6	6	SAIL	TRAIL	BEACH	SAIL	6	[0, 0, 0]	-999	PAL1	0	R1035M
2151.522	2.509	1084281	REC_START	n/a	n/a	6	-999	n/a	TRAIL	n/a	n/a	6	[0, 0, 0]	-999	PAL1	0	R1035M
2154.031	2.508	1085535	REC_EVENT	2.509	n/a	6	6	SAIL	TRAIL	BEACH	SAIL	6	[0, 0, 0]	-999	PAL1	0	R1035M
2156.539	8.718	1086789	REC_END	n/a	n/a	6	-999	n/a	n/a	n/a	n/a	6	[0, 0, 0]	-999	PAL1	0	R1035M
2165.257	10.453	1091148	ENCODING_START	n/a	n/a	0	-999	n/a	n/a	n/a	n/a	7	[0, 0, 0]	-999	PAL1	0	R1035M
2175.71	0.275	1096374	STUDY_ORIENT	n/a	n/a	1	1	PURSE	n/a	PURSE	KITE	7	[0, 0, 0]	-999	PAL1	0	R1035M
2176.676	4.0	1096857	STUDY_PAIR	n/a	wordpools/wordpool_EN.txt	1	1	PURSE	n/a	PURSE	KITE	7	[0, 0, 0]	-999	PAL1	0	R1035M
2181.694	0.275	1099366	STUDY_ORIENT	n/a	n/a	2	4	DIME	n/a	DIME	RIB	7	[0, 0, 0]	-999	PAL1	0	R1035M
2182.511	4.0	1099774	STUDY_PAIR	n/a	wordpools/wordpool_EN.txt	2	4	DIME	n/a	DIME	RIB	7	[0, 0, 0]	-999	PAL1	0	R1035M
2187.529	0.275	1102283	STUDY_ORIENT	n/a	n/a	3	5	PRINCE	n/a	PRINCE	FACE	7	[0, 0, 0]	-999	PAL1	0	R1035M
2188.529	4.0	1102783	STUDY_PAIR	n/a	wordpools/wordpool_EN.txt	3	5	PRINCE	n/a	PRINCE	FACE	7	[0, 0, 0]	-999	PAL1	0	R1035M
2193.563	0.275	1105300	STUDY_ORIENT	n/a	n/a	4	6	BRUSH	TEETH	BRUSH	FAN	7	[0, 0, 0]	-999	PAL1	0	R1035M
2194.38	4.0	1105708	STUDY_PAIR	n/a	wordpools/wordpool_EN.txt	4	6	BRUSH	TEETH	BRUSH	FAN	7	[0, 0, 0]	-999	PAL1	0	R1035M
2199.398	0.275	1108217	STUDY_ORIENT	n/a	n/a	5	3	HEART	SAND	HEART	SEAT	7	[0, 0, 0]	-999	PAL1	0	R1035M
2200.316	4.0	1108676	STUDY_PAIR	n/a	wordpools/wordpool_EN.txt	5	3	HEART	SAND	HEART	SEAT	7	[0, 0, 0]	-999	PAL1	0	R1035M
2205.35	0.275	1111193	STUDY_ORIENT	n/a	n/a	6	2	PLATE	n/a	PLATE	HOUSE	7	[0, 0, 0]	-999	PAL1	0	R1035M
2206.284	4.0	1111660	STUDY_PAIR	n/a	wordpools/wordpool_EN.txt	6	2	PLATE	n/a	PLATE	HOUSE	7	[0, 0, 0]	-999	PAL1	0	R1035M
2210.302	0.999	1113669	START	n/a	n/a	-999	-999	n/a	n/a	n/a	n/a	7	[-999, -999, -999]	-999	PAL1	0	R1035M
2211.301	0.017	1114168	MATH_START	n/a	n/a	-999	-999	n/a	n/a	n/a	n/a	7	[0, 0, 0]	-999	PAL1	0	R1035M
2211.318	5.801	1114177	PROB	5.771	n/a	-999	-999	n/a	n/a	n/a	n/a	7	[7, 9, 7]	23	PAL1	0	R1035M
2217.119	4.233	1117077	PROB	4.202	n/a	-999	-999	n/a	n/a	n/a	n/a	7	[2, 2, 5]	9	PAL1	0	R1035M
2221.352	4.134	1119194	PROB	4.112	n/a	-999	-999	n/a	n/a	n/a	n/a	7	[1, 8, 8]	17	PAL1	0	R1035M
2225.486	4.401	1121261	PROB	4.378	n/a	-999	-999	n/a	n/a	n/a	n/a	7	[2, 9, 4]	15	PAL1	0	R1035M
2229.887	3.985	1123461	PROB	3.985	n/a	-999	-999	n/a	n/a	n/a	n/a	7	[8, 1, 3]	12	PAL1	0	R1035M
2233.872	0.016	1125453	STOP	n/a	n/a	-999	-999	n/a	n/a	n/a	n/a	7	[-999, -999, -999]	-999	PAL1	0	R1035M
2233.888	0.0	1125461	MATH_END	n/a	n/a	-999	-999	n/a	n/a	n/a	n/a	7	[0, 0, 0]	-999	PAL1	0	R1035M
2233.888	0.017	1125461	TEST_START	n/a	n/a	-999	-999	n/a	n/a	n/a	n/a	7	[0, 0, 0]	-999	PAL1	0	R1035M
2233.905	0.275	1125470	TEST_ORIENT	n/a	n/a	1	1	PURSE	n/a	PURSE	KITE	7	[0, 0, 0]	-999	PAL1	0	R1035M
2234.738	4.0	1125886	TEST_PROBE	n/a	wordpools/wordpool_EN.txt	1	1	PURSE	n/a	PURSE	KITE	7	[0, 0, 0]	-999	PAL1	0	R1035M
2234.739	4.643	1125887	REC_START	n/a	n/a	1	-999	n/a	n/a	n/a	n/a	7	[0, 0, 0]	-999	PAL1	0	R1035M
2239.382	0.365	1128208	REC_EVENT	4.643	n/a	1	1	PURSE	<>	PURSE	KITE	7	[0, 0, 0]	-999	PAL1	0	R1035M
2239.747	0.009	1128391	REC_END	n/a	n/a	1	-999	n/a	n/a	n/a	n/a	7	[0, 0, 0]	-999	PAL1	0	R1035M
2239.756	0.275	1128395	TEST_ORIENT	n/a	n/a	6	2	PLATE	n/a	PLATE	HOUSE	7	[0, 0, 0]	-999	PAL1	0	R1035M
2240.706	0.0	1128870	REC_START	n/a	n/a	6	-999	n/a	n/a	n/a	n/a	7	[0, 0, 0]	-999	PAL1	0	R1035M
2240.706	4.0	1128870	TEST_PROBE	n/a	wordpools/wordpool_EN.txt	6	2	PLATE	n/a	PLATE	HOUSE	7	[0, 0, 0]	-999	PAL1	0	R1035M
2245.605	0.119	1131320	REC_EVENT	4.899	n/a	6	2	PLATE	<>	PLATE	HOUSE	7	[0, 0, 0]	-999	PAL1	0	R1035M
2245.724	0.016	1131379	REC_END	n/a	n/a	6	-999	n/a	n/a	n/a	n/a	7	[0, 0, 0]	-999	PAL1	0	R1035M
2245.74	0.275	1131387	TEST_ORIENT	n/a	n/a	5	3	HEART	SAND	HEART	SEAT	7	[0, 0, 0]	-999	PAL1	0	R1035M
2246.657	4.0	1131846	TEST_PROBE	n/a	wordpools/wordpool_EN.txt	5	3	HEART	SAND	HEART	SEAT	7	[0, 0, 0]	-999	PAL1	0	R1035M
2246.658	3.549	1131846	REC_START	n/a	n/a	5	-999	n/a	SAND	n/a	n/a	7	[0, 0, 0]	-999	PAL1	0	R1035M
2250.207	1.46	1133620	REC_EVENT	3.549	n/a	5	3	HEART	SAND	HEART	SEAT	7	[0, 0, 0]	-999	PAL1	0	R1035M
2251.667	0.008	1134350	REC_END	n/a	n/a	5	-999	n/a	n/a	n/a	n/a	7	[0, 0, 0]	-999	PAL1	0	R1035M
2251.675	0.275	1134354	TEST_ORIENT	n/a	n/a	2	4	DIME	n/a	DIME	RIB	7	[0, 0, 0]	-999	PAL1	0	R1035M
2252.592	4.0	1134813	TEST_PROBE	n/a	wordpools/wordpool_EN.txt	2	4	DIME	n/a	DIME	RIB	7	[0, 0, 0]	-999	PAL1	0	R1035M
2252.592	4.736	1134813	REC_START	n/a	n/a	2	-999	n/a	n/a	n/a	n/a	7	[0, 0, 0]	-999	PAL1	0	R1035M
2257.328	0.29	1137181	REC_EVENT	4.736	n/a	2	4	DIME	<>	DIME	RIB	7	[0, 0, 0]	-999	PAL1	0	R1035M
2257.618	0.008	1137326	REC_END	n/a	n/a	2	-999	n/a	n/a	n/a	n/a	7	[0, 0, 0]	-999	PAL1	0	R1035M
2257.626	0.275	1137330	TEST_ORIENT	n/a	n/a	3	5	PRINCE	n/a	PRINCE	FACE	7	[0, 0, 0]	-999	PAL1	0	R1035M
2258.526	4.0	1137780	TEST_PROBE	n/a	wordpools/wordpool_EN.txt	3	5	PRINCE	n/a	PRINCE	FACE	7	[0, 0, 0]	-999	PAL1	0	R1035M
2258.527	4.76	1137780	REC_START	n/a	n/a	3	-999	n/a	n/a	n/a	n/a	7	[0, 0, 0]	-999	PAL1	0	R1035M
2263.287	0.249	1140160	REC_EVENT	4.76	n/a	3	5	PRINCE	<>	PRINCE	FACE	7	[0, 0, 0]	-999	PAL1	0	R1035M
2263.536	0.008	1140285	REC_END	n/a	n/a	3	-999	n/a	n/a	n/a	n/a	7	[0, 0, 0]	-999	PAL1	0	R1035M
2263.544	0.275	1140289	TEST_ORIENT	n/a	n/a	4	6	BRUSH	TEETH	BRUSH	FAN	7	[0, 0, 0]	-999	PAL1	0	R1035M
2264.411	4.0	1140722	TEST_PROBE	n/a	wordpools/wordpool_EN.txt	4	6	BRUSH	TEETH	BRUSH	FAN	7	[0, 0, 0]	-999	PAL1	0	R1035M
2264.411	1.911	1140722	REC_START	n/a	n/a	4	-999	n/a	TEETH	n/a	n/a	7	[0, 0, 0]	-999	PAL1	0	R1035M
2266.322	3.106	1141678	REC_EVENT	1.911	n/a	4	6	BRUSH	TEETH	BRUSH	FAN	7	[0, 0, 0]	-999	PAL1	0	R1035M
2269.428	2.797	1143230	REC_END	n/a	n/a	4	-999	n/a	n/a	n/a	n/a	7	[0, 0, 0]	-999	PAL1	0	R1035M
2272.225	10.439	1144629	ENCODING_START	n/a	n/a	0	-999	n/a	n/a	n/a	n/a	8	[0, 0, 0]	-999	PAL1	0	R1035M
2282.664	0.275	1149848	STUDY_ORIENT	n/a	n/a	1	1	SPOON	n/a	SPOON	CUP	8	[0, 0, 0]	-999	PAL1	0	R1035M
2283.598	4.0	1150315	STUDY_PAIR	n/a	wordpools/wordpool_EN.txt	1	1	SPOON	n/a	SPOON	CUP	8	[0, 0, 0]	-999	PAL1	0	R1035M
2288.632	0.275	1152832	STUDY_ORIENT	n/a	n/a	2	6	STREET	MAIL	STREET	MAIL	8	[0, 0, 0]	-999	PAL1	0	R1035M
2289.482	4.0	1153257	STUDY_PAIR	n/a	wordpools/wordpool_EN.txt	2	6	STREET	MAIL	STREET	MAIL	8	[0, 0, 0]	-999	PAL1	0	R1035M
2294.5	0.275	1155766	STUDY_ORIENT	n/a	n/a	3	5	SHARK	n/a	BEAR	SHARK	8	[0, 0, 0]	-999	PAL1	0	R1035M
2295.318	4.0	1156175	STUDY_PAIR	n/a	wordpools/wordpool_EN.txt	3	5	SHARK	n/a	BEAR	SHARK	8	[0, 0, 0]	-999	PAL1	0	R1035M
2300.352	0.275	1158692	STUDY_ORIENT	n/a	n/a	4	4	FRUIT	CAKE	FRUIT	CANE	8	[0, 0, 0]	-999	PAL1	0	R1035M
2301.136	4.0	1159084	STUDY_PAIR	n/a	wordpools/wordpool_EN.txt	4	4	FRUIT	CAKE	FRUIT	CANE	8	[0, 0, 0]	-999	PAL1	0	R1035M
2306.17	0.275	1161601	STUDY_ORIENT	n/a	n/a	5	3	BOWL	SPOON	BOWL	WAND	8	[0, 0, 0]	-999	PAL1	0	R1035M
2307.153	4.0	1162092	STUDY_PAIR	n/a	wordpools/wordpool_EN.txt	5	3	BOWL	SPOON	BOWL	WAND	8	[0, 0, 0]	-999	PAL1	0	R1035M
2312.171	0.275	1164601	STUDY_ORIENT	n/a	n/a	6	2	SOUP	n/a	SOUP	SMOKE	8	[0, 0, 0]	-999	PAL1	0	R1035M
2313.188	4.0	1165109	STUDY_PAIR	n/a	wordpools/wordpool_EN.txt	6	2	SOUP	n/a	SOUP	SMOKE	8	[0, 0, 0]	-999	PAL1	0	R1035M
2317.189	1.0	1167110	START	n/a	n/a	-999	-999	n/a	n/a	n/a	n/a	8	[-999, -999, -999]	-999	PAL1	0	R1035M
2318.189	0.017	1167610	MATH_START	n/a	n/a	-999	-999	n/a	n/a	n/a	n/a	8	[0, 0, 0]	-999	PAL1	0	R1035M
2318.206	7.985	1167618	PROB	7.963	n/a	-999	-999	n/a	n/a	n/a	n/a	8	[9, 5, 8]	22	PAL1	0	R1035M
2326.191	4.383	1171611	PROB	4.361	n/a	-999	-999	n/a	n/a	n/a	n/a	8	[7, 8, 2]	17	PAL1	0	R1035M
2330.574	4.017	1173802	PROB	3.994	n/a	-999	-999	n/a	n/a	n/a	n/a	8	[2, 4, 4]	10	PAL1	0	R1035M
2334.591	4.602	1175810	PROB	4.602	n/a	-999	-999	n/a	n/a	n/a	n/a	8	[5, 9, 9]	23	PAL1	0	R1035M
2339.193	0.017	1178111	STOP	n/a	n/a	-999	-999	n/a	n/a	n/a	n/a	8	[-999, -999, -999]	-999	PAL1	0	R1035M
2339.21	0.0	1178120	MATH_END	n/a	n/a	-999	-999	n/a	n/a	n/a	n/a	8	[0, 0, 0]	-999	PAL1	0	R1035M
2339.21	0.017	1178120	TEST_START	n/a	n/a	-999	-999	n/a	n/a	n/a	n/a	8	[0, 0, 0]	-999	PAL1	0	R1035M
2339.227	0.275	1178128	TEST_ORIENT	n/a	n/a	1	1	SPOON	n/a	SPOON	CUP	8	[0, 0, 0]	-999	PAL1	0	R1035M
2340.177	4.0	1178603	TEST_PROBE	n/a	wordpools/wordpool_EN.txt	1	1	SPOON	n/a	SPOON	CUP	8	[0, 0, 0]	-999	PAL1	0	R1035M
2340.177	4.504	1178603	REC_START	n/a	n/a	1	-999	n/a	n/a	n/a	n/a	8	[0, 0, 0]	-999	PAL1	0	R1035M
2344.681	0.513	1180855	REC_EVENT	4.504	n/a	1	1	SPOON	<>	SPOON	CUP	8	[0, 0, 0]	-999	PAL1	0	R1035M
2345.194	0.017	1181112	REC_END	n/a	n/a	1	-999	n/a	n/a	n/a	n/a	8	[0, 0, 0]	-999	PAL1	0	R1035M
2345.211	0.275	1181120	TEST_ORIENT	n/a	n/a	6	2	SOUP	n/a	SOUP	SMOKE	8	[0, 0, 0]	-999	PAL1	0	R1035M
2346.078	4.0	1181554	TEST_PROBE	n/a	wordpools/wordpool_EN.txt	6	2	SOUP	n/a	SOUP	SMOKE	8	[0, 0, 0]	-999	PAL1	0	R1035M
2346.079	4.713	1181554	REC_START	n/a	n/a	6	-999	n/a	n/a	n/a	n/a	8	[0, 0, 0]	-999	PAL1	0	R1035M
2350.792	0.287	1183910	REC_EVENT	4.713	n/a	6	2	SOUP	<>	SOUP	SMOKE	8	[0, 0, 0]	-999	PAL1	0	R1035M
2351.079	0.017	1184054	REC_END	n/a	n/a	6	-999	n/a	n/a	n/a	n/a	8	[0, 0, 0]	-999	PAL1	0	R1035M
2351.096	0.275	1184062	TEST_ORIENT	n/a	n/a	5	3	BOWL	SPOON	BOWL	WAND	8	[0, 0, 0]	-999	PAL1	0	R1035M
2352.063	4.0	1184546	TEST_PROBE	n/a	wordpools/wordpool_EN.txt	5	3	BOWL	SPOON	BOWL	WAND	8	[0, 0, 0]	-999	PAL1	0	R1035M
2352.063	3.408	1184546	REC_START	n/a	n/a	5	-999	n/a	SPOON	n/a	n/a	8	[0, 0, 0]	-999	PAL1	0	R1035M
2355.471	1.609	1186250	REC_EVENT	3.408	n/a	5	3	BOWL	SPOON	BOWL	WAND	8	[0, 0, 0]	-999	PAL1	0	R1035M
2357.08	0.017	1187054	REC_END	n/a	n/a	5	-999	n/a	n/a	n/a	n/a	8	[0, 0, 0]	-999	PAL1	0	R1035M
2357.097	0.275	1187063	TEST_ORIENT	n/a	n/a	4	4	FRUIT	CAKE	FRUIT	CANE	8	[0, 0, 0]	-999	PAL1	0	R1035M
2357.896	4.0	1187462	TEST_PROBE	n/a	wordpools/wordpool_EN.txt	4	4	FRUIT	CAKE	FRUIT	CANE	8	[0, 0, 0]	-999	PAL1	0	R1035M
2357.897	1.954	1187463	REC_START	n/a	n/a	4	-999	n/a	CAKE	n/a	n/a	8	[0, 0, 0]	-999	PAL1	0	R1035M
2359.851	3.054	1188440	REC_EVENT	1.954	n/a	4	4	FRUIT	CAKE	FRUIT	CANE	8	[0, 0, 0]	-999	PAL1	0	R1035M
2362.905	0.009	1189967	REC_END	n/a	n/a	4	-999	n/a	n/a	n/a	n/a	8	[0, 0, 0]	-999	PAL1	0	R1035M
2362.914	0.275	1189971	TEST_ORIENT	n/a	n/a	3	5	SHARK	n/a	BEAR	SHARK	8	[0, 0, 0]	-999	PAL1	0	R1035M
2363.831	4.0	1190430	TEST_PROBE	n/a	wordpools/wordpool_EN.txt	3	5	SHARK	n/a	BEAR	SHARK	8	[0, 0, 0]	-999	PAL1	0	R1035M
2363.831	4.527	1190430	REC_START	n/a	n/a	3	-999	n/a	n/a	n/a	n/a	8	[0, 0, 0]	-999	PAL1	0	R1035M
2368.358	0.49	1192693	REC_EVENT	4.527	n/a	3	5	SHARK	<>	BEAR	SHARK	8	[0, 0, 0]	-999	PAL1	0	R1035M
2368.848	0.017	1192938	REC_END	n/a	n/a	3	-999	n/a	n/a	n/a	n/a	8	[0, 0, 0]	-999	PAL1	0	R1035M
2368.865	0.275	1192946	TEST_ORIENT	n/a	n/a	2	6	STREET	MAIL	STREET	MAIL	8	[0, 0, 0]	-999	PAL1	0	R1035M
2369.832	4.0	1193430	TEST_PROBE	n/a	wordpools/wordpool_EN.txt	2	6	STREET	MAIL	STREET	MAIL	8	[0, 0, 0]	-999	PAL1	0	R1035M
2369.832	1.765	1193430	REC_START	n/a	n/a	2	-999	n/a	MAIL	n/a	n/a	8	[0, 0, 0]	-999	PAL1	0	R1035M
2371.597	3.252	1194312	REC_EVENT	1.765	n/a	2	6	STREET	MAIL	STREET	MAIL	8	[0, 0, 0]	-999	PAL1	0	R1035M
2374.849	3.368	1195938	REC_END	n/a	n/a	2	-999	n/a	n/a	n/a	n/a	8	[0, 0, 0]	-999	PAL1	0	R1035M
2378.217	10.452	1197622	ENCODING_START	n/a	n/a	0	-999	n/a	n/a	n/a	n/a	9	[0, 0, 0]	-999	PAL1	0	R1035M
2388.669	0.275	1202848	STUDY_ORIENT	n/a	n/a	1	5	RAKE	CAKE	RAKE	BARN	9	[0, 0, 0]	-999	PAL1	0	R1035M
2389.636	4.0	1203331	STUDY_PAIR	n/a	wordpools/wordpool_EN.txt	1	5	RAKE	CAKE	RAKE	BARN	9	[0, 0, 0]	-999	PAL1	0	R1035M
2394.67	0.275	1205848	STUDY_ORIENT	n/a	n/a	2	6	CRANE	PAIN	TOAST	CRANE	9	[0, 0, 0]	-999	PAL1	0	R1035M
2395.654	4.0	1206340	STUDY_PAIR	n/a	wordpools/wordpool_EN.txt	2	6	CRANE	PAIN	TOAST	CRANE	9	[0, 0, 0]	-999	PAL1	0	R1035M
2400.688	0.275	1208857	STUDY_ORIENT	n/a	n/a	3	1	NOSE	n/a	LAWN	NOSE	9	[0, 0, 0]	-999	PAL1	0	R1035M
2401.655	4.0	1209341	STUDY_PAIR	n/a	wordpools/wordpool_EN.txt	3	1	NOSE	n/a	LAWN	NOSE	9	[0, 0, 0]	-999	PAL1	0	R1035M
2406.689	0.275	1211857	STUDY_ORIENT	n/a	n/a	4	2	SUIT	n/a	SUIT	STRAW	9	[0, 0, 0]	-999	PAL1	0	R1035M
2407.556	4.0	1212291	STUDY_PAIR	n/a	wordpools/wordpool_EN.txt	4	2	SUIT	n/a	SUIT	STRAW	9	[0, 0, 0]	-999	PAL1	0	R1035M
2412.574	0.275	1214800	STUDY_ORIENT	n/a	n/a	5	3	FOAM	SHOE	CLOCK	FOAM	9	[0, 0, 0]	-999	PAL1	0	R1035M
2413.474	4.0	1215250	STUDY_PAIR	n/a	wordpools/wordpool_EN.txt	5	3	FOAM	SHOE	CLOCK	FOAM	9	[0, 0, 0]	-999	PAL1	0	R1035M
2418.508	0.275	1217767	STUDY_ORIENT	n/a	n/a	6	4	SNAIL	PALE	SNAIL	SLIME	9	[0, 0, 0]	-999	PAL1	0	R1035M
2419.475	4.0	1218250	STUDY_PAIR	n/a	wordpools/wordpool_EN.txt	6	4	SNAIL	PALE	SNAIL	SLIME	9	[0, 0, 0]	-999	PAL1	0	R1035M
2423.476	1.0	1220251	START	n/a	n/a	-999	-999	n/a	n/a	n/a	n/a	9	[-999, -999, -999]	-999	PAL1	0	R1035M
2424.476	0.017	1220750	MATH_START	n/a	n/a	-999	-999	n/a	n/a	n/a	n/a	9	[0, 0, 0]	-999	PAL1	0	R1035M
2424.493	7.334	1220759	PROB	7.307	n/a	-999	-999	n/a	n/a	n/a	n/a	9	[9, 2, 8]	19	PAL1	0	R1035M
2431.827	6.219	1224426	PROB	6.198	n/a	-999	-999	n/a	n/a	n/a	n/a	9	[4, 7, 7]	18	PAL1	0	R1035M
2438.046	3.884	1227535	PROB	3.858	n/a	-999	-999	n/a	n/a	n/a	n/a	9	[7, 3, 9]	19	PAL1	0	R1035M
2441.93	4.774	1229477	PROB	4.774	n/a	-999	-999	n/a	n/a	n/a	n/a	9	[1, 4, 2]	7	PAL1	0	R1035M
2446.704	0.01	1231864	STOP	n/a	n/a	-999	-999	n/a	n/a	n/a	n/a	9	[-999, -999, -999]	-999	PAL1	0	R1035M
2446.714	0.0	1231869	MATH_END	n/a	n/a	-999	-999	n/a	n/a	n/a	n/a	9	[0, 0, 0]	-999	PAL1	0	R1035M
2446.714	0.017	1231869	TEST_START	n/a	n/a	-999	-999	n/a	n/a	n/a	n/a	9	[0, 0, 0]	-999	PAL1	0	R1035M
2446.731	0.275	1231877	TEST_ORIENT	n/a	n/a	3	1	NOSE	n/a	LAWN	NOSE	9	[0, 0, 0]	-999	PAL1	0	R1035M
2447.598	0.0	1232311	REC_START	n/a	n/a	3	-999	n/a	n/a	n/a	n/a	9	[0, 0, 0]	-999	PAL1	0	R1035M
2447.598	4.0	1232311	TEST_PROBE	n/a	wordpools/wordpool_EN.txt	3	1	NOSE	n/a	LAWN	NOSE	9	[0, 0, 0]	-999	PAL1	0	R1035M
2452.263	0.352	1234643	REC_EVENT	4.665	n/a	3	1	NOSE	<>	LAWN	NOSE	9	[0, 0, 0]	-999	PAL1	0	R1035M
2452.615	0.017	1234819	REC_END	n/a	n/a	3	-999	n/a	n/a	n/a	n/a	9	[0, 0, 0]	-999	PAL1	0	R1035M
2452.632	0.275	1234828	TEST_ORIENT	n/a	n/a	4	2	SUIT	n/a	SUIT	STRAW	9	[0, 0, 0]	-999	PAL1	0	R1035M
2453.582	4.0	1235303	TEST_PROBE	n/a	wordpools/wordpool_EN.txt	4	2	SUIT	n/a	SUIT	STRAW	9	[0, 0, 0]	-999	PAL1	0	R1035M
2453.589	4.806	1235306	REC_START	n/a	n/a	4	-999	n/a	n/a	n/a	n/a	9	[0, 0, 0]	-999	PAL1	0	R1035M
2458.395	0.204	1237709	REC_EVENT	4.806	n/a	4	2	SUIT	<>	SUIT	STRAW	9	[0, 0, 0]	-999	PAL1	0	R1035M
2458.599	0.017	1237811	REC_END	n/a	n/a	4	-999	n/a	n/a	n/a	n/a	9	[0, 0, 0]	-999	PAL1	0	R1035M
2458.616	0.275	1237820	TEST_ORIENT	n/a	n/a	5	3	FOAM	SHOE	CLOCK	FOAM	9	[0, 0, 0]	-999	PAL1	0	R1035M
2459.417	4.0	1238220	TEST_PROBE	n/a	wordpools/wordpool_EN.txt	5	3	FOAM	SHOE	CLOCK	FOAM	9	[0, 0, 0]	-999	PAL1	0	R1035M
2459.425	3.162	1238224	REC_START	n/a	n/a	5	-999	n/a	SHOE	n/a	n/a	9	[0, 0, 0]	-999	PAL1	0	R1035M
2462.587	1.855	1239805	REC_EVENT	3.162	n/a	5	3	FOAM	SHOE	CLOCK	FOAM	9	[0, 0, 0]	-999	PAL1	0	R1035M
2464.442	0.009	1240732	REC_END	n/a	n/a	5	-999	n/a	n/a	n/a	n/a	9	[0, 0, 0]	-999	PAL1	0	R1035M
2464.451	0.275	1240737	TEST_ORIENT	n/a	n/a	6	4	SNAIL	PALE	SNAIL	SLIME	9	[0, 0, 0]	-999	PAL1	0	R1035M
2465.468	0.0	1241245	REC_START	n/a	n/a	6	-999	n/a	PALE	n/a	n/a	9	[0, 0, 0]	-999	PAL1	0	R1035M
2465.468	4.0	1241245	TEST_PROBE	n/a	wordpools/wordpool_EN.txt	6	4	SNAIL	PALE	SNAIL	SLIME	9	[0, 0, 0]	-999	PAL1	0	R1035M
2468.713	1.782	1242868	REC_EVENT	3.245	n/a	6	4	SNAIL	PALE	SNAIL	SLIME	9	[0, 0, 0]	-999	PAL1	0	R1035M
2470.495	0.024	1243759	REC_END	n/a	n/a	6	-999	n/a	n/a	n/a	n/a	9	[0, 0, 0]	-999	PAL1	0	R1035M
2470.519	0.275	1243771	TEST_ORIENT	n/a	n/a	1	5	RAKE	CAKE	RAKE	BARN	9	[0, 0, 0]	-999	PAL1	0	R1035M
2471.519	4.0	1244271	TEST_PROBE	n/a	wordpools/wordpool_EN.txt	1	5	RAKE	CAKE	RAKE	BARN	9	[0, 0, 0]	-999	PAL1	0	R1035M
2471.519	2.827	1244271	REC_START	n/a	n/a	1	-999	n/a	CAKE	n/a	n/a	9	[0, 0, 0]	-999	PAL1	0	R1035M
2474.346	2.19	1245684	REC_EVENT	2.827	n/a	1	5	RAKE	CAKE	RAKE	BARN	9	[0, 0, 0]	-999	PAL1	0	R1035M
2476.536	0.017	1246779	REC_END	n/a	n/a	1	-999	n/a	n/a	n/a	n/a	9	[0, 0, 0]	-999	PAL1	0	R1035M
2476.553	0.275	1246788	TEST_ORIENT	n/a	n/a	2	6	CRANE	PAIN	TOAST	CRANE	9	[0, 0, 0]	-999	PAL1	0	R1035M
2477.403	4.0	1247213	TEST_PROBE	n/a	wordpools/wordpool_EN.txt	2	6	CRANE	PAIN	TOAST	CRANE	9	[0, 0, 0]	-999	PAL1	0	R1035M
2477.404	2.909	1247213	REC_START	n/a	n/a	2	-999	n/a	PAIN	n/a	n/a	9	[0, 0, 0]	-999	PAL1	0	R1035M
2480.313	2.1	1248668	REC_EVENT	2.909	n/a	2	6	CRANE	PAIN	TOAST	CRANE	9	[0, 0, 0]	-999	PAL1	0	R1035M
2482.413	4.475	1249717	REC_END	n/a	n/a	2	-999	n/a	n/a	n/a	n/a	9	[0, 0, 0]	-999	PAL1	0	R1035M
2486.888	10.454	1251955	ENCODING_START	n/a	n/a	0	-999	n/a	n/a	n/a	n/a	10	[0, 0, 0]	-999	PAL1	0	R1035M
2497.342	0.275	1257182	STUDY_ORIENT	n/a	n/a	1	1	CROW	BOAT	CROW	BOAT	10	[0, 0, 0]	-999	PAL1	0	R1035M
2498.175	4.0	1257598	STUDY_PAIR	n/a	wordpools/wordpool_EN.txt	1	1	CROW	BOAT	CROW	BOAT	10	[0, 0, 0]	-999	PAL1	0	R1035M
2503.193	0.275	1260107	STUDY_ORIENT	n/a	n/a	2	6	SWORD	FISH	VINE	SWORD	10	[0, 0, 0]	-999	PAL1	0	R1035M
2504.093	4.0	1260557	STUDY_PAIR	n/a	wordpools/wordpool_EN.txt	2	6	SWORD	FISH	VINE	SWORD	10	[0, 0, 0]	-999	PAL1	0	R1035M
2509.111	0.275	1263066	STUDY_ORIENT	n/a	n/a	3	3	STAIR	n/a	STAIR	BAT	10	[0, 0, 0]	-999	PAL1	0	R1035M
2510.028	4.0	1263524	STUDY_PAIR	n/a	wordpools/wordpool_EN.txt	3	3	STAIR	n/a	STAIR	BAT	10	[0, 0, 0]	-999	PAL1	0	R1035M
2515.062	0.275	1266041	STUDY_ORIENT	n/a	n/a	4	4	DOLL	PAPER	PIG	DOLL	10	[0, 0, 0]	-999	PAL1	0	R1035M
2515.878	4.0	1266449	STUDY_PAIR	n/a	wordpools/wordpool_EN.txt	4	4	DOLL	PAPER	PIG	DOLL	10	[0, 0, 0]	-999	PAL1	0	R1035M
2520.912	0.275	1268966	STUDY_ORIENT	n/a	n/a	5	5	BALL	n/a	BALL	WING	10	[0, 0, 0]	-999	PAL1	0	R1035M
2521.746	4.0	1269383	STUDY_PAIR	n/a	wordpools/wordpool_EN.txt	5	5	BALL	n/a	BALL	WING	10	[0, 0, 0]	-999	PAL1	0	R1035M
2526.78	0.275	1271900	STUDY_ORIENT	n/a	n/a	6	2	CAPE	n/a	CHIN	CAPE	10	[0, 0, 0]	-999	PAL1	0	R1035M
2527.647	4.0	1272333	STUDY_PAIR	n/a	wordpools/wordpool_EN.txt	6	2	CAPE	n/a	CHIN	CAPE	10	[0, 0, 0]	-999	PAL1	0	R1035M
2531.665	0.999	1274342	START	n/a	n/a	-999	-999	n/a	n/a	n/a	n/a	10	[-999, -999, -999]	-999	PAL1	0	R1035M
2532.664	0.017	1274842	MATH_START	n/a	n/a	-999	-999	n/a	n/a	n/a	n/a	10	[0, 0, 0]	-999	PAL1	0	R1035M
2532.681	3.635	1274850	PROB	3.608	n/a	-999	-999	n/a	n/a	n/a	n/a	10	[1, 6, 2]	9	PAL1	0	R1035M
2536.316	3.05	1276668	PROB	3.029	n/a	-999	-999	n/a	n/a	n/a	n/a	10	[1, 7, 3]	11	PAL1	0	R1035M
2539.366	4.818	1278193	PROB	4.787	n/a	-999	-999	n/a	n/a	n/a	n/a	10	[8, 8, 5]	21	PAL1	0	R1035M
2544.184	5.835	1280601	PROB	5.8	n/a	-999	-999	n/a	n/a	n/a	n/a	10	[6, 3, 3]	12	PAL1	0	R1035M
2550.019	3.565	1283519	PROB	3.565	n/a	-999	-999	n/a	n/a	n/a	n/a	10	[2, 5, 4]	11	PAL1	0	R1035M
2553.584	0.018	1285301	STOP	n/a	n/a	-999	-999	n/a	n/a	n/a	n/a	10	[-999, -999, -999]	-999	PAL1	0	R1035M
2553.602	0.0	1285310	TEST_START	n/a	n/a	-999	-999	n/a	n/a	n/a	n/a	10	[0, 0, 0]	-999	PAL1	0	R1035M
2553.602	0.017	1285310	MATH_END	n/a	n/a	-999	-999	n/a	n/a	n/a	n/a	10	[0, 0, 0]	-999	PAL1	0	R1035M
2553.619	0.275	1285319	TEST_ORIENT	n/a	n/a	1	1	CROW	BOAT	CROW	BOAT	10	[0, 0, 0]	-999	PAL1	0	R1035M
2554.452	4.0	1285735	TEST_PROBE	n/a	wordpools/wordpool_EN.txt	1	1	CROW	BOAT	CROW	BOAT	10	[0, 0, 0]	-999	PAL1	0	R1035M
2554.453	2.022	1285736	REC_START	n/a	n/a	1	-999	n/a	BOAT	n/a	n/a	10	[0, 0, 0]	-999	PAL1	0	R1035M
2556.475	2.978	1286747	REC_EVENT	2.022	n/a	1	1	CROW	BOAT	CROW	BOAT	10	[0, 0, 0]	-999	PAL1	0	R1035M
2559.453	0.017	1288236	REC_END	n/a	n/a	1	-999	n/a	n/a	n/a	n/a	10	[0, 0, 0]	-999	PAL1	0	R1035M
2559.47	0.275	1288244	TEST_ORIENT	n/a	n/a	6	2	CAPE	n/a	CHIN	CAPE	10	[0, 0, 0]	-999	PAL1	0	R1035M
2560.321	4.0	1288669	TEST_PROBE	n/a	wordpools/wordpool_EN.txt	6	2	CAPE	n/a	CHIN	CAPE	10	[0, 0, 0]	-999	PAL1	0	R1035M
2560.321	4.574	1288669	REC_START	n/a	n/a	6	-999	n/a	n/a	n/a	n/a	10	[0, 0, 0]	-999	PAL1	0	R1035M
2564.895	0.443	1290956	REC_EVENT	4.574	n/a	6	2	CAPE	<>	CHIN	CAPE	10	[0, 0, 0]	-999	PAL1	0	R1035M
2565.338	0.016	1291178	REC_END	n/a	n/a	6	-999	n/a	n/a	n/a	n/a	10	[0, 0, 0]	-999	PAL1	0	R1035M
2565.354	0.275	1291186	TEST_ORIENT	n/a	n/a	3	3	STAIR	n/a	STAIR	BAT	10	[0, 0, 0]	-999	PAL1	0	R1035M
2566.222	0.0	1291620	REC_START	n/a	n/a	3	-999	n/a	n/a	n/a	n/a	10	[0, 0, 0]	-999	PAL1	0	R1035M
2566.222	4.0	1291620	TEST_PROBE	n/a	wordpools/wordpool_EN.txt	3	3	STAIR	n/a	STAIR	BAT	10	[0, 0, 0]	-999	PAL1	0	R1035M
2571.087	0.153	1294052	REC_EVENT	4.865	n/a	3	3	STAIR	<>	STAIR	BAT	10	[0, 0, 0]	-999	PAL1	0	R1035M
2571.24	0.017	1294129	REC_END	n/a	n/a	3	-999	n/a	n/a	n/a	n/a	10	[0, 0, 0]	-999	PAL1	0	R1035M
2571.257	0.275	1294137	TEST_ORIENT	n/a	n/a	4	4	DOLL	PAPER	PIG	DOLL	10	[0, 0, 0]	-999	PAL1	0	R1035M
2572.207	4.0	1294612	TEST_PROBE	n/a	wordpools/wordpool_EN.txt	4	4	DOLL	PAPER	PIG	DOLL	10	[0, 0, 0]	-999	PAL1	0	R1035M
2572.207	2.961	1294612	REC_START	n/a	n/a	4	-999	n/a	PAPER	n/a	n/a	10	[0, 0, 0]	-999	PAL1	0	R1035M
2575.168	2.056	1296093	REC_EVENT	2.961	n/a	4	4	DOLL	PAPER	PIG	DOLL	10	[0, 0, 0]	-999	PAL1	0	R1035M
2577.224	0.017	1297121	REC_END	n/a	n/a	4	-999	n/a	n/a	n/a	n/a	10	[0, 0, 0]	-999	PAL1	0	R1035M
2577.241	0.275	1297129	TEST_ORIENT	n/a	n/a	5	5	BALL	n/a	BALL	WING	10	[0, 0, 0]	-999	PAL1	0	R1035M
2578.124	4.0	1297571	TEST_PROBE	n/a	wordpools/wordpool_EN.txt	5	5	BALL	n/a	BALL	WING	10	[0, 0, 0]	-999	PAL1	0	R1035M
2578.125	4.643	1297571	REC_START	n/a	n/a	5	-999	n/a	n/a	n/a	n/a	10	[0, 0, 0]	-999	PAL1	0	R1035M
2582.768	0.366	1299892	REC_EVENT	4.643	n/a	5	5	BALL	<>	BALL	WING	10	[0, 0, 0]	-999	PAL1	0	R1035M
2583.134	0.008	1300075	REC_END	n/a	n/a	5	-999	n/a	n/a	n/a	n/a	10	[0, 0, 0]	-999	PAL1	0	R1035M
2583.142	0.275	1300079	TEST_ORIENT	n/a	n/a	2	6	SWORD	FISH	VINE	SWORD	10	[0, 0, 0]	-999	PAL1	0	R1035M
2584.076	0.0	1300546	REC_START	n/a	n/a	2	-999	n/a	FISH	n/a	n/a	10	[0, 0, 0]	-999	PAL1	0	R1035M
2584.076	4.0	1300546	TEST_PROBE	n/a	wordpools/wordpool_EN.txt	2	6	SWORD	FISH	VINE	SWORD	10	[0, 0, 0]	-999	PAL1	0	R1035M
2586.791	2.302	1301904	REC_EVENT	2.715	n/a	2	6	SWORD	FISH	VINE	SWORD	10	[0, 0, 0]	-999	PAL1	0	R1035M
2589.093	202.355	1303055	REC_END	n/a	n/a	2	-999	n/a	n/a	n/a	n/a	10	[0, 0, 0]	-999	PAL1	0	R1035M
2791.448	10.454	1404227	ENCODING_START	n/a	n/a	0	-999	n/a	n/a	n/a	n/a	11	[0, 0, 0]	-999	PAL1	0	R1035M
2801.902	0.275	1409454	STUDY_ORIENT	n/a	n/a	1	5	NAIL	SPEAR	LAKE	NAIL	11	[0, 0, 0]	-999	PAL1	0	R1035M
2802.702	4.0	1409854	STUDY_PAIR	n/a	wordpools/wordpool_EN.txt	1	5	NAIL	SPEAR	LAKE	NAIL	11	[0, 0, 0]	-999	PAL1	0	R1035M
2807.736	0.275	1412371	STUDY_ORIENT	n/a	n/a	2	6	WORLD	n/a	WORLD	YARD	11	[0, 0, 0]	-999	PAL1	0	R1035M
2808.67	4.0	1412838	STUDY_PAIR	n/a	wordpools/wordpool_EN.txt	2	6	WORLD	n/a	WORLD	YARD	11	[0, 0, 0]	-999	PAL1	0	R1035M
2813.704	0.275	1415354	STUDY_ORIENT	n/a	n/a	3	3	TOE	SHOE	STICK	TOE	11	[0, 0, 0]	-999	PAL1	0	R1035M
2814.571	4.0	1415788	STUDY_PAIR	n/a	wordpools/wordpool_EN.txt	3	3	TOE	SHOE	STICK	TOE	11	[0, 0, 0]	-999	PAL1	0	R1035M
2819.605	0.275	1418305	STUDY_ORIENT	n/a	n/a	4	2	TRAY	n/a	JEEP	TRAY	11	[0, 0, 0]	-999	PAL1	0	R1035M
2820.622	4.0	1418813	STUDY_PAIR	n/a	wordpools/wordpool_EN.txt	4	2	TRAY	n/a	JEEP	TRAY	11	[0, 0, 0]	-999	PAL1	0	R1035M
2825.64	0.275	1421322	STUDY_ORIENT	n/a	n/a	5	1	TOOTH	n/a	CHIEF	TOOTH	11	[0, 0, 0]	-999	PAL1	0	R1035M
2826.457	4.0	1421731	STUDY_PAIR	n/a	wordpools/wordpool_EN.txt	5	1	TOOTH	n/a	CHIEF	TOOTH	11	[0, 0, 0]	-999	PAL1	0	R1035M
2831.491	0.275	1424247	STUDY_ORIENT	n/a	n/a	6	4	VAN	PAINT	VAN	BATH	11	[0, 0, 0]	-999	PAL1	0	R1035M
2832.475	4.0	1424739	STUDY_PAIR	n/a	wordpools/wordpool_EN.txt	6	4	VAN	PAINT	VAN	BATH	11	[0, 0, 0]	-999	PAL1	0	R1035M
2836.493	0.999	1426748	START	n/a	n/a	-999	-999	n/a	n/a	n/a	n/a	11	[-999, -999, -999]	-999	PAL1	0	R1035M
2837.492	0.017	1427248	MATH_START	n/a	n/a	-999	-999	n/a	n/a	n/a	n/a	11	[0, 0, 0]	-999	PAL1	0	R1035M
2837.509	6.334	1427256	PROB	6.315	n/a	-999	-999	n/a	n/a	n/a	n/a	11	[2, 9, 5]	16	PAL1	0	R1035M
2843.843	5.001	1430423	PROB	4.973	n/a	-999	-999	n/a	n/a	n/a	n/a	11	[7, 8, 7]	22	PAL1	0	R1035M
2848.844	5.752	1432924	PROB	5.724	n/a	-999	-999	n/a	n/a	n/a	n/a	11	[8, 1, 4]	13	PAL1	0	R1035M
2854.596	5.565	1435799	PROB	5.565	n/a	-999	-999	n/a	n/a	n/a	n/a	11	[5, 3, 3]	11	PAL1	0	R1035M
2860.161	0.003	1438582	STOP	n/a	n/a	-999	-999	n/a	n/a	n/a	n/a	11	[-999, -999, -999]	-999	PAL1	0	R1035M
2860.164	0.0	1438583	MATH_END	n/a	n/a	-999	-999	n/a	n/a	n/a	n/a	11	[0, 0, 0]	-999	PAL1	0	R1035M
2860.164	0.017	1438583	TEST_START	n/a	n/a	-999	-999	n/a	n/a	n/a	n/a	11	[0, 0, 0]	-999	PAL1	0	R1035M
2860.181	0.275	1438592	TEST_ORIENT	n/a	n/a	5	1	TOOTH	n/a	CHIEF	TOOTH	11	[0, 0, 0]	-999	PAL1	0	R1035M
2860.98	4.0	1438991	TEST_PROBE	n/a	wordpools/wordpool_EN.txt	5	1	TOOTH	n/a	CHIEF	TOOTH	11	[0, 0, 0]	-999	PAL1	0	R1035M
2860.981	4.859	1438992	REC_START	n/a	n/a	5	-999	n/a	n/a	n/a	n/a	11	[0, 0, 0]	-999	PAL1	0	R1035M
2865.84	0.15	1441421	REC_EVENT	4.859	n/a	5	1	TOOTH	<>	CHIEF	TOOTH	11	[0, 0, 0]	-999	PAL1	0	R1035M
2865.99	0.009	1441496	REC_END	n/a	n/a	5	-999	n/a	n/a	n/a	n/a	11	[0, 0, 0]	-999	PAL1	0	R1035M
2865.999	0.275	1441501	TEST_ORIENT	n/a	n/a	4	2	TRAY	n/a	JEEP	TRAY	11	[0, 0, 0]	-999	PAL1	0	R1035M
2867.032	4.0	1442017	TEST_PROBE	n/a	wordpools/wordpool_EN.txt	4	2	TRAY	n/a	JEEP	TRAY	11	[0, 0, 0]	-999	PAL1	0	R1035M
2867.033	4.458	1442018	REC_START	n/a	n/a	4	-999	n/a	n/a	n/a	n/a	11	[0, 0, 0]	-999	PAL1	0	R1035M
2871.491	0.55	1444246	REC_EVENT	4.458	n/a	4	2	TRAY	<>	JEEP	TRAY	11	[0, 0, 0]	-999	PAL1	0	R1035M
2872.041	0.009	1444521	REC_END	n/a	n/a	4	-999	n/a	n/a	n/a	n/a	11	[0, 0, 0]	-999	PAL1	0	R1035M
2872.05	0.275	1444526	TEST_ORIENT	n/a	n/a	3	3	TOE	SHOE	STICK	TOE	11	[0, 0, 0]	-999	PAL1	0	R1035M
2873.017	0.0	1445009	REC_START	n/a	n/a	3	-999	n/a	SHOE	n/a	n/a	11	[0, 0, 0]	-999	PAL1	0	R1035M
2873.017	4.0	1445009	TEST_PROBE	n/a	wordpools/wordpool_EN.txt	3	3	TOE	SHOE	STICK	TOE	11	[0, 0, 0]	-999	PAL1	0	R1035M
2875.883	2.151	1446442	REC_EVENT	2.866	n/a	3	3	TOE	SHOE	STICK	TOE	11	[0, 0, 0]	-999	PAL1	0	R1035M
2878.034	0.017	1447518	REC_END	n/a	n/a	3	-999	n/a	n/a	n/a	n/a	11	[0, 0, 0]	-999	PAL1	0	R1035M
2878.051	0.275	1447526	TEST_ORIENT	n/a	n/a	6	4	VAN	PAINT	VAN	BATH	11	[0, 0, 0]	-999	PAL1	0	R1035M
2878.867	4.0	1447934	TEST_PROBE	n/a	wordpools/wordpool_EN.txt	6	4	VAN	PAINT	VAN	BATH	11	[0, 0, 0]	-999	PAL1	0	R1035M
2878.868	3.772	1447935	REC_START	n/a	n/a	6	-999	n/a	PAINT	n/a	n/a	11	[0, 0, 0]	-999	PAL1	0	R1035M
2882.64	1.236	1449821	REC_EVENT	3.772	n/a	6	4	VAN	PAINT	VAN	BATH	11	[0, 0, 0]	-999	PAL1	0	R1035M
2883.876	0.009	1450439	REC_END	n/a	n/a	6	-999	n/a	n/a	n/a	n/a	11	[0, 0, 0]	-999	PAL1	0	R1035M
2883.885	0.275	1450443	TEST_ORIENT	n/a	n/a	1	5	NAIL	SPEAR	LAKE	NAIL	11	[0, 0, 0]	-999	PAL1	0	R1035M
2884.868	4.0	1450935	TEST_PROBE	n/a	wordpools/wordpool_EN.txt	1	5	NAIL	SPEAR	LAKE	NAIL	11	[0, 0, 0]	-999	PAL1	0	R1035M
2884.869	3.801	1450935	REC_START	n/a	n/a	1	-999	n/a	SPEAR	n/a	n/a	11	[0, 0, 0]	-999	PAL1	0	R1035M
2888.67	1.207	1452836	REC_EVENT	3.801	n/a	1	5	NAIL	SPEAR	LAKE	NAIL	11	[0, 0, 0]	-999	PAL1	0	R1035M
2889.877	0.009	1453439	REC_END	n/a	n/a	1	-999	n/a	n/a	n/a	n/a	11	[0, 0, 0]	-999	PAL1	0	R1035M
2889.886	0.275	1453443	TEST_ORIENT	n/a	n/a	2	6	WORLD	n/a	WORLD	YARD	11	[0, 0, 0]	-999	PAL1	0	R1035M
2890.686	4.0	1453843	TEST_PROBE	n/a	wordpools/wordpool_EN.txt	2	6	WORLD	n/a	WORLD	YARD	11	[0, 0, 0]	-999	PAL1	0	R1035M
2890.687	4.504	1453844	REC_START	n/a	n/a	2	-999	n/a	n/a	n/a	n/a	11	[0, 0, 0]	-999	PAL1	0	R1035M
2895.191	0.504	1456096	REC_EVENT	4.504	n/a	2	6	WORLD	<>	WORLD	YARD	11	[0, 0, 0]	-999	PAL1	0	R1035M
2895.695	3.681	1456348	REC_END	n/a	n/a	2	-999	n/a	n/a	n/a	n/a	11	[0, 0, 0]	-999	PAL1	0	R1035M
2899.376	10.447	1458188	ENCODING_START	n/a	n/a	0	-999	n/a	n/a	n/a	n/a	12	[0, 0, 0]	-999	PAL1	0	R1035M
2909.823	0.275	1463411	STUDY_ORIENT	n/a	n/a	1	1	SKI	SAIL	BEAN	SKI	12	[0, 0, 0]	-999	PAL1	0	R1035M
2910.64	4.0	1463820	STUDY_PAIR	n/a	wordpools/wordpool_EN.txt	1	1	SKI	SAIL	BEAN	SKI	12	[0, 0, 0]	-999	PAL1	0	R1035M
2915.658	0.275	1466329	STUDY_ORIENT	n/a	n/a	2	2	CALF	n/a	CALF	BOMB	12	[0, 0, 0]	-999	PAL1	0	R1035M
2916.541	4.0	1466770	STUDY_PAIR	n/a	wordpools/wordpool_EN.txt	2	2	CALF	n/a	CALF	BOMB	12	[0, 0, 0]	-999	PAL1	0	R1035M
2921.559	0.275	1469279	STUDY_ORIENT	n/a	n/a	3	5	ROSE	NOSE	BOOK	ROSE	12	[0, 0, 0]	-999	PAL1	0	R1035M
2922.543	4.0	1469771	STUDY_PAIR	n/a	wordpools/wordpool_EN.txt	3	5	ROSE	NOSE	BOOK	ROSE	12	[0, 0, 0]	-999	PAL1	0	R1035M
2927.577	0.275	1472288	STUDY_ORIENT	n/a	n/a	4	6	LAND	FARM	SLEEVE	LAND	12	[0, 0, 0]	-999	PAL1	0	R1035M
2928.427	4.0	1472713	STUDY_PAIR	n/a	wordpools/wordpool_EN.txt	4	6	LAND	FARM	SLEEVE	LAND	12	[0, 0, 0]	-999	PAL1	0	R1035M
2933.461	0.275	1475230	STUDY_ORIENT	n/a	n/a	5	3	JAIL	SAIL	VASE	JAIL	12	[0, 0, 0]	-999	PAL1	0	R1035M
2934.478	4.0	1475738	STUDY_PAIR	n/a	wordpools/wordpool_EN.txt	5	3	JAIL	SAIL	VASE	JAIL	12	[0, 0, 0]	-999	PAL1	0	R1035M
2939.496	0.275	1478247	STUDY_ORIENT	n/a	n/a	6	4	BRANCH	TREE	TREE	BRANCH	12	[0, 0, 0]	-999	PAL1	0	R1035M
2940.496	4.0	1478747	STUDY_PAIR	n/a	wordpools/wordpool_EN.txt	6	4	BRANCH	TREE	TREE	BRANCH	12	[0, 0, 0]	-999	PAL1	0	R1035M
2944.498	0.999	1480748	START	n/a	n/a	-999	-999	n/a	n/a	n/a	n/a	12	[-999, -999, -999]	-999	PAL1	0	R1035M
2945.497	0.017	1481248	MATH_START	n/a	n/a	-999	-999	n/a	n/a	n/a	n/a	12	[0, 0, 0]	-999	PAL1	0	R1035M
2945.514	5.884	1481256	PROB	5.862	n/a	-999	-999	n/a	n/a	n/a	n/a	12	[3, 9, 5]	17	PAL1	0	R1035M
2951.398	5.151	1484198	PROB	5.13	n/a	-999	-999	n/a	n/a	n/a	n/a	12	[5, 5, 7]	17	PAL1	0	R1035M
2956.549	4.151	1486773	PROB	4.131	n/a	-999	-999	n/a	n/a	n/a	n/a	12	[4, 5, 6]	15	PAL1	0	R1035M
2960.7	4.268	1488849	PROB	4.268	n/a	-999	-999	n/a	n/a	n/a	n/a	12	[4, 2, 8]	16	PAL1	0	R1035M
2964.968	0.016	1490983	STOP	n/a	n/a	-999	-999	n/a	n/a	n/a	n/a	12	[-999, -999, -999]	-999	PAL1	0	R1035M
2964.984	0.0	1490991	MATH_END	n/a	n/a	-999	-999	n/a	n/a	n/a	n/a	12	[0, 0, 0]	-999	PAL1	0	R1035M
2964.984	0.018	1490991	TEST_START	n/a	n/a	-999	-999	n/a	n/a	n/a	n/a	12	[0, 0, 0]	-999	PAL1	0	R1035M
2965.002	0.275	1491000	TEST_ORIENT	n/a	n/a	1	1	SKI	SAIL	BEAN	SKI	12	[0, 0, 0]	-999	PAL1	0	R1035M
2965.951	4.0	1491474	TEST_PROBE	n/a	wordpools/wordpool_EN.txt	1	1	SKI	SAIL	BEAN	SKI	12	[0, 0, 0]	-999	PAL1	0	R1035M
2965.952	4.087	1491475	REC_START	n/a	n/a	1	-999	n/a	SAIL	n/a	n/a	12	[0, 0, 0]	-999	PAL1	0	R1035M
2970.039	0.922	1493518	REC_EVENT	4.087	n/a	1	1	SKI	SAIL	BEAN	SKI	12	[0, 0, 0]	-999	PAL1	0	R1035M
2970.961	0.008	1493979	REC_END	n/a	n/a	1	-999	n/a	n/a	n/a	n/a	12	[0, 0, 0]	-999	PAL1	0	R1035M
2970.969	0.275	1493983	TEST_ORIENT	n/a	n/a	2	2	CALF	n/a	CALF	BOMB	12	[0, 0, 0]	-999	PAL1	0	R1035M
2971.802	4.0	1494399	TEST_PROBE	n/a	wordpools/wordpool_EN.txt	2	2	CALF	n/a	CALF	BOMB	12	[0, 0, 0]	-999	PAL1	0	R1035M
2971.803	4.643	1494400	REC_START	n/a	n/a	2	-999	n/a	n/a	n/a	n/a	12	[0, 0, 0]	-999	PAL1	0	R1035M
2976.446	0.367	1496721	REC_EVENT	4.643	n/a	2	2	CALF	<>	CALF	BOMB	12	[0, 0, 0]	-999	PAL1	0	R1035M
2976.813	0.007	1496905	REC_END	n/a	n/a	2	-999	n/a	n/a	n/a	n/a	12	[0, 0, 0]	-999	PAL1	0	R1035M
2976.82	0.275	1496908	TEST_ORIENT	n/a	n/a	5	3	JAIL	SAIL	VASE	JAIL	12	[0, 0, 0]	-999	PAL1	0	R1035M
2977.704	4.0	1497350	TEST_PROBE	n/a	wordpools/wordpool_EN.txt	5	3	JAIL	SAIL	VASE	JAIL	12	[0, 0, 0]	-999	PAL1	0	R1035M
2977.704	3.293	1497350	REC_START	n/a	n/a	5	-999	n/a	SAIL	n/a	n/a	12	[0, 0, 0]	-999	PAL1	0	R1035M
2980.997	1.724	1498997	REC_EVENT	3.293	n/a	5	3	JAIL	SAIL	VASE	JAIL	12	[0, 0, 0]	-999	PAL1	0	R1035M
2982.721	0.017	1499859	REC_END	n/a	n/a	5	-999	n/a	n/a	n/a	n/a	12	[0, 0, 0]	-999	PAL1	0	R1035M
2982.738	0.275	1499867	TEST_ORIENT	n/a	n/a	6	4	BRANCH	TREE	TREE	BRANCH	12	[0, 0, 0]	-999	PAL1	0	R1035M
2983.671	4.0	1500334	TEST_PROBE	n/a	wordpools/wordpool_EN.txt	6	4	BRANCH	TREE	TREE	BRANCH	12	[0, 0, 0]	-999	PAL1	0	R1035M
2983.672	2.427	1500334	REC_START	n/a	n/a	6	-999	n/a	TREE	n/a	n/a	12	[0, 0, 0]	-999	PAL1	0	R1035M
2986.099	2.582	1501547	REC_EVENT	2.427	n/a	6	4	BRANCH	TREE	TREE	BRANCH	12	[0, 0, 0]	-999	PAL1	0	R1035M
2988.681	0.008	1502838	REC_END	n/a	n/a	6	-999	n/a	n/a	n/a	n/a	12	[0, 0, 0]	-999	PAL1	0	R1035M
2988.689	0.275	1502842	TEST_ORIENT	n/a	n/a	3	5	ROSE	NOSE	BOOK	ROSE	12	[0, 0, 0]	-999	PAL1	0	R1035M
2989.539	4.0	1503267	TEST_PROBE	n/a	wordpools/wordpool_EN.txt	3	5	ROSE	NOSE	BOOK	ROSE	12	[0, 0, 0]	-999	PAL1	0	R1035M
2989.54	2.041	1503268	REC_START	n/a	n/a	3	-999	n/a	NOSE	n/a	n/a	12	[0, 0, 0]	-999	PAL1	0	R1035M
2991.581	2.968	1504288	REC_EVENT	2.041	n/a	3	5	ROSE	NOSE	BOOK	ROSE	12	[0, 0, 0]	-999	PAL1	0	R1035M
2994.549	0.008	1505772	REC_END	n/a	n/a	3	-999	n/a	n/a	n/a	n/a	12	[0, 0, 0]	-999	PAL1	0	R1035M
2994.557	0.275	1505776	TEST_ORIENT	n/a	n/a	4	6	LAND	FARM	SLEEVE	LAND	12	[0, 0, 0]	-999	PAL1	0	R1035M
2995.457	4.0	1506226	TEST_PROBE	n/a	wordpools/wordpool_EN.txt	4	6	LAND	FARM	SLEEVE	LAND	12	[0, 0, 0]	-999	PAL1	0	R1035M
2995.457	2.932	1506226	REC_START	n/a	n/a	4	-999	n/a	FARM	n/a	n/a	12	[0, 0, 0]	-999	PAL1	0	R1035M
2998.389	2.086	1507692	REC_EVENT	2.932	n/a	4	6	LAND	FARM	SLEEVE	LAND	12	[0, 0, 0]	-999	PAL1	0	R1035M
3000.475	6.293	1508735	REC_END	n/a	n/a	4	-999	n/a	n/a	n/a	n/a	12	[0, 0, 0]	-999	PAL1	0	R1035M
3006.768	10.444	1511881	ENCODING_START	n/a	n/a	0	-999	n/a	n/a	n/a	n/a	13	[0, 0, 0]	-999	PAL1	0	R1035M
3017.212	0.275	1517103	STUDY_ORIENT	n/a	n/a	1	3	SOAP	GOLD	GOLD	SOAP	13	[0, 0, 0]	-999	PAL1	0	R1035M
3018.029	4.0	1517512	STUDY_PAIR	n/a	wordpools/wordpool_EN.txt	1	3	SOAP	GOLD	GOLD	SOAP	13	[0, 0, 0]	-999	PAL1	0	R1035M
3023.047	0.275	1520021	STUDY_ORIENT	n/a	n/a	2	2	DOG	EAR	DOG	EAR	13	[0, 0, 0]	-999	PAL1	0	R1035M
3024.064	4.0	1520529	STUDY_PAIR	n/a	wordpools/wordpool_EN.txt	2	2	DOG	EAR	DOG	EAR	13	[0, 0, 0]	-999	PAL1	0	R1035M
3029.098	0.275	1523046	STUDY_ORIENT	n/a	n/a	3	5	STAR	n/a	HOSE	STAR	13	[0, 0, 0]	-999	PAL1	0	R1035M
3030.098	4.0	1523546	STUDY_PAIR	n/a	wordpools/wordpool_EN.txt	3	5	STAR	n/a	HOSE	STAR	13	[0, 0, 0]	-999	PAL1	0	R1035M
3035.116	0.275	1526055	STUDY_ORIENT	n/a	n/a	4	6	DRESS	PANTS	DRESS	ZOO	13	[0, 0, 0]	-999	PAL1	0	R1035M
3035.932	4.0	1526463	STUDY_PAIR	n/a	wordpools/wordpool_EN.txt	4	6	DRESS	PANTS	DRESS	ZOO	13	[0, 0, 0]	-999	PAL1	0	R1035M
3040.966	0.275	1528980	STUDY_ORIENT	n/a	n/a	5	1	DOCK	n/a	TIE	DOCK	13	[0, 0, 0]	-999	PAL1	0	R1035M
3041.85	4.0	1529422	STUDY_PAIR	n/a	wordpools/wordpool_EN.txt	5	1	DOCK	n/a	TIE	DOCK	13	[0, 0, 0]	-999	PAL1	0	R1035M
3046.884	0.275	1531938	STUDY_ORIENT	n/a	n/a	6	4	STEM	n/a	STEM	MAT	13	[0, 0, 0]	-999	PAL1	0	R1035M
3047.834	4.0	1532413	STUDY_PAIR	n/a	wordpools/wordpool_EN.txt	6	4	STEM	n/a	STEM	MAT	13	[0, 0, 0]	-999	PAL1	0	R1035M
3051.835	1.0	1534414	START	n/a	n/a	-999	-999	n/a	n/a	n/a	n/a	13	[-999, -999, -999]	-999	PAL1	0	R1035M
3052.835	0.017	1534914	MATH_START	n/a	n/a	-999	-999	n/a	n/a	n/a	n/a	13	[0, 0, 0]	-999	PAL1	0	R1035M
3052.852	4.285	1534922	PROB	4.261	n/a	-999	-999	n/a	n/a	n/a	n/a	13	[9, 1, 5]	15	PAL1	0	R1035M
3057.137	5.267	1537065	PROB	5.239	n/a	-999	-999	n/a	n/a	n/a	n/a	13	[2, 8, 2]	12	PAL1	0	R1035M
3062.404	5.401	1539698	PROB	5.38	n/a	-999	-999	n/a	n/a	n/a	n/a	13	[3, 1, 6]	10	PAL1	0	R1035M
3067.805	3.951	1542398	PROB	3.931	n/a	-999	-999	n/a	n/a	n/a	n/a	13	[8, 7, 7]	22	PAL1	0	R1035M
3071.756	4.349	1544374	PROB	4.349	n/a	-999	-999	n/a	n/a	n/a	n/a	13	[2, 1, 7]	10	PAL1	0	R1035M
3076.105	0.002	1546548	STOP	n/a	n/a	-999	-999	n/a	n/a	n/a	n/a	13	[-999, -999, -999]	-999	PAL1	0	R1035M
3076.107	0.0	1546549	MATH_END	n/a	n/a	-999	-999	n/a	n/a	n/a	n/a	13	[0, 0, 0]	-999	PAL1	0	R1035M
3076.107	0.017	1546549	TEST_START	n/a	n/a	-999	-999	n/a	n/a	n/a	n/a	13	[0, 0, 0]	-999	PAL1	0	R1035M
3076.124	0.275	1546558	TEST_ORIENT	n/a	n/a	5	1	DOCK	n/a	TIE	DOCK	13	[0, 0, 0]	-999	PAL1	0	R1035M
3077.074	4.0	1547033	TEST_PROBE	n/a	wordpools/wordpool_EN.txt	5	1	DOCK	n/a	TIE	DOCK	13	[0, 0, 0]	-999	PAL1	0	R1035M
3077.075	4.69	1547033	REC_START	n/a	n/a	5	-999	n/a	n/a	n/a	n/a	13	[0, 0, 0]	-999	PAL1	0	R1035M
3081.765	0.344	1549378	REC_EVENT	4.69	n/a	5	1	DOCK	<>	TIE	DOCK	13	[0, 0, 0]	-999	PAL1	0	R1035M
3082.109	0.016	1549550	REC_END	n/a	n/a	5	-999	n/a	n/a	n/a	n/a	13	[0, 0, 0]	-999	PAL1	0	R1035M
3082.125	0.275	1549558	TEST_ORIENT	n/a	n/a	2	2	DOG	EAR	DOG	EAR	13	[0, 0, 0]	-999	PAL1	0	R1035M
3082.941	0.0	1549966	REC_START	n/a	n/a	2	-999	n/a	EAR	n/a	n/a	13	[0, 0, 0]	-999	PAL1	0	R1035M
3082.941	4.0	1549966	TEST_PROBE	n/a	wordpools/wordpool_EN.txt	2	2	DOG	EAR	DOG	EAR	13	[0, 0, 0]	-999	PAL1	0	R1035M
3084.512	3.447	1550751	REC_EVENT	1.571	n/a	2	2	DOG	EAR	DOG	EAR	13	[0, 0, 0]	-999	PAL1	0	R1035M
3087.959	0.017	1552475	REC_END	n/a	n/a	2	-999	n/a	n/a	n/a	n/a	13	[0, 0, 0]	-999	PAL1	0	R1035M
3087.976	0.275	1552483	TEST_ORIENT	n/a	n/a	1	3	SOAP	GOLD	GOLD	SOAP	13	[0, 0, 0]	-999	PAL1	0	R1035M
3088.859	4.0	1552925	TEST_PROBE	n/a	wordpools/wordpool_EN.txt	1	3	SOAP	GOLD	GOLD	SOAP	13	[0, 0, 0]	-999	PAL1	0	R1035M
3088.86	2.254	1552925	REC_START	n/a	n/a	1	-999	n/a	GOLD	n/a	n/a	13	[0, 0, 0]	-999	PAL1	0	R1035M
3091.114	2.756	1554052	REC_EVENT	2.254	n/a	1	3	SOAP	GOLD	GOLD	SOAP	13	[0, 0, 0]	-999	PAL1	0	R1035M
3093.87	0.007	1555430	REC_END	n/a	n/a	1	-999	n/a	n/a	n/a	n/a	13	[0, 0, 0]	-999	PAL1	0	R1035M
3093.877	0.275	1555434	TEST_ORIENT	n/a	n/a	6	4	STEM	n/a	STEM	MAT	13	[0, 0, 0]	-999	PAL1	0	R1035M
3094.727	4.0	1555859	TEST_PROBE	n/a	wordpools/wordpool_EN.txt	6	4	STEM	n/a	STEM	MAT	13	[0, 0, 0]	-999	PAL1	0	R1035M
3094.727	4.692	1555859	REC_START	n/a	n/a	6	-999	n/a	n/a	n/a	n/a	13	[0, 0, 0]	-999	PAL1	0	R1035M
3099.419	0.325	1558205	REC_EVENT	4.692	n/a	6	4	STEM	<>	STEM	MAT	13	[0, 0, 0]	-999	PAL1	0	R1035M
3099.744	0.017	1558367	REC_END	n/a	n/a	6	-999	n/a	n/a	n/a	n/a	13	[0, 0, 0]	-999	PAL1	0	R1035M
3099.761	0.275	1558376	TEST_ORIENT	n/a	n/a	3	5	STAR	n/a	HOSE	STAR	13	[0, 0, 0]	-999	PAL1	0	R1035M
3100.661	4.0	1558826	TEST_PROBE	n/a	wordpools/wordpool_EN.txt	3	5	STAR	n/a	HOSE	STAR	13	[0, 0, 0]	-999	PAL1	0	R1035M
3100.662	4.62	1558826	REC_START	n/a	n/a	3	-999	n/a	n/a	n/a	n/a	13	[0, 0, 0]	-999	PAL1	0	R1035M
3105.282	0.389	1561136	REC_EVENT	4.62	n/a	3	5	STAR	<>	HOSE	STAR	13	[0, 0, 0]	-999	PAL1	0	R1035M
3105.671	0.008	1561330	REC_END	n/a	n/a	3	-999	n/a	n/a	n/a	n/a	13	[0, 0, 0]	-999	PAL1	0	R1035M
3105.679	0.275	1561334	TEST_ORIENT	n/a	n/a	4	6	DRESS	PANTS	DRESS	ZOO	13	[0, 0, 0]	-999	PAL1	0	R1035M
3106.612	4.0	1561801	TEST_PROBE	n/a	wordpools/wordpool_EN.txt	4	6	DRESS	PANTS	DRESS	ZOO	13	[0, 0, 0]	-999	PAL1	0	R1035M
3106.613	3.1	1561801	REC_START	n/a	n/a	4	-999	n/a	PANTS	n/a	n/a	13	[0, 0, 0]	-999	PAL1	0	R1035M
3109.713	1.909	1563351	REC_EVENT	3.1	n/a	4	6	DRESS	PANTS	DRESS	ZOO	13	[0, 0, 0]	-999	PAL1	0	R1035M
3111.622	10.667	1564306	REC_END	n/a	n/a	4	-999	n/a	n/a	n/a	n/a	13	[0, 0, 0]	-999	PAL1	0	R1035M
3122.289	10.446	1569639	ENCODING_START	n/a	n/a	0	-999	n/a	n/a	n/a	n/a	14	[0, 0, 0]	-999	PAL1	0	R1035M
3132.735	0.275	1574862	STUDY_ORIENT	n/a	n/a	1	5	HAT	n/a	CORD	HAT	14	[0, 0, 0]	-999	PAL1	0	R1035M
3133.701	4.0	1575345	STUDY_PAIR	n/a	wordpools/wordpool_EN.txt	1	5	HAT	n/a	CORD	HAT	14	[0, 0, 0]	-999	PAL1	0	R1035M
3138.719	0.275	1577854	STUDY_ORIENT	n/a	n/a	2	4	DITCH	n/a	SPONGE	DITCH	14	[0, 0, 0]	-999	PAL1	0	R1035M
3139.636	4.0	1578312	STUDY_PAIR	n/a	wordpools/wordpool_EN.txt	2	4	DITCH	n/a	SPONGE	DITCH	14	[0, 0, 0]	-999	PAL1	0	R1035M
3144.67	0.275	1580829	STUDY_ORIENT	n/a	n/a	3	1	WEB	TOAD	TOAD	WEB	14	[0, 0, 0]	-999	PAL1	0	R1035M
3145.67	4.0	1581329	STUDY_PAIR	n/a	wordpools/wordpool_EN.txt	3	1	WEB	TOAD	TOAD	WEB	14	[0, 0, 0]	-999	PAL1	0	R1035M
3150.688	0.275	1583838	STUDY_ORIENT	n/a	n/a	4	6	BEAK	n/a	HOOK	BEAK	14	[0, 0, 0]	-999	PAL1	0	R1035M
3151.588	4.0	1584288	STUDY_PAIR	n/a	wordpools/wordpool_EN.txt	4	6	BEAK	n/a	HOOK	BEAK	14	[0, 0, 0]	-999	PAL1	0	R1035M
3156.606	0.275	1586797	STUDY_ORIENT	n/a	n/a	5	3	MILK	ELF	ELF	MILK	14	[0, 0, 0]	-999	PAL1	0	R1035M
3157.59	4.0	1587289	STUDY_PAIR	n/a	wordpools/wordpool_EN.txt	5	3	MILK	ELF	ELF	MILK	14	[0, 0, 0]	-999	PAL1	0	R1035M
3162.624	0.275	1589805	STUDY_ORIENT	n/a	n/a	6	2	BOARD	CHALK	CHALK	BOARD	14	[0, 0, 0]	-999	PAL1	0	R1035M
3163.441	4.0	1590214	STUDY_PAIR	n/a	wordpools/wordpool_EN.txt	6	2	BOARD	CHALK	CHALK	BOARD	14	[0, 0, 0]	-999	PAL1	0	R1035M
3167.459	0.999	1592223	START	n/a	n/a	-999	-999	n/a	n/a	n/a	n/a	14	[-999, -999, -999]	-999	PAL1	0	R1035M
3168.458	0.017	1592722	MATH_START	n/a	n/a	-999	-999	n/a	n/a	n/a	n/a	14	[0, 0, 0]	-999	PAL1	0	R1035M
3168.475	4.968	1592731	PROB	4.933	n/a	-999	-999	n/a	n/a	n/a	n/a	14	[8, 4, 1]	13	PAL1	0	R1035M
3173.443	3.517	1595215	PROB	3.493	n/a	-999	-999	n/a	n/a	n/a	n/a	14	[4, 6, 7]	17	PAL1	0	R1035M
3176.96	4.135	1596973	PROB	4.113	n/a	-999	-999	n/a	n/a	n/a	n/a	14	[1, 7, 1]	10	PAL1	0	R1035M
3181.095	9.505	1599040	PROB	9.505	n/a	-999	-999	n/a	n/a	n/a	n/a	14	[5, 2, 8]	15	PAL1	0	R1035M
3190.6	0.013	1603793	STOP	n/a	n/a	-999	-999	n/a	n/a	n/a	n/a	14	[-999, -999, -999]	-999	PAL1	0	R1035M
3190.613	0.0	1603799	MATH_END	n/a	n/a	-999	-999	n/a	n/a	n/a	n/a	14	[0, 0, 0]	-999	PAL1	0	R1035M
3190.613	0.017	1603799	TEST_START	n/a	n/a	-999	-999	n/a	n/a	n/a	n/a	14	[0, 0, 0]	-999	PAL1	0	R1035M
3190.63	0.275	1603808	TEST_ORIENT	n/a	n/a	3	1	WEB	TOAD	TOAD	WEB	14	[0, 0, 0]	-999	PAL1	0	R1035M
3191.663	4.0	1604324	TEST_PROBE	n/a	wordpools/wordpool_EN.txt	3	1	WEB	TOAD	TOAD	WEB	14	[0, 0, 0]	-999	PAL1	0	R1035M
3191.664	1.828	1604325	REC_START	n/a	n/a	3	-999	n/a	TOAD	n/a	n/a	14	[0, 0, 0]	-999	PAL1	0	R1035M
3193.492	3.197	1605239	REC_EVENT	1.828	n/a	3	1	WEB	TOAD	TOAD	WEB	14	[0, 0, 0]	-999	PAL1	0	R1035M
3196.689	0.008	1606837	REC_END	n/a	n/a	3	-999	n/a	n/a	n/a	n/a	14	[0, 0, 0]	-999	PAL1	0	R1035M
3196.697	0.275	1606841	TEST_ORIENT	n/a	n/a	6	2	BOARD	CHALK	CHALK	BOARD	14	[0, 0, 0]	-999	PAL1	0	R1035M
3197.581	4.0	1607283	TEST_PROBE	n/a	wordpools/wordpool_EN.txt	6	2	BOARD	CHALK	CHALK	BOARD	14	[0, 0, 0]	-999	PAL1	0	R1035M
3197.581	2.535	1607283	REC_START	n/a	n/a	6	-999	n/a	CHALK	n/a	n/a	14	[0, 0, 0]	-999	PAL1	0	R1035M
3200.116	2.482	1608550	REC_EVENT	2.535	n/a	6	2	BOARD	CHALK	CHALK	BOARD	14	[0, 0, 0]	-999	PAL1	0	R1035M
3202.598	0.017	1609791	REC_END	n/a	n/a	6	-999	n/a	n/a	n/a	n/a	14	[0, 0, 0]	-999	PAL1	0	R1035M
3202.615	0.275	1609800	TEST_ORIENT	n/a	n/a	5	3	MILK	ELF	ELF	MILK	14	[0, 0, 0]	-999	PAL1	0	R1035M
3203.532	4.0	1610258	TEST_PROBE	n/a	wordpools/wordpool_EN.txt	5	3	MILK	ELF	ELF	MILK	14	[0, 0, 0]	-999	PAL1	0	R1035M
3203.533	1.473	1610259	REC_START	n/a	n/a	5	-999	n/a	ELF	n/a	n/a	14	[0, 0, 0]	-999	PAL1	0	R1035M
3205.006	3.535	1610995	REC_EVENT	1.473	n/a	5	3	MILK	ELF	ELF	MILK	14	[0, 0, 0]	-999	PAL1	0	R1035M
3208.541	0.009	1612763	REC_END	n/a	n/a	5	-999	n/a	n/a	n/a	n/a	14	[0, 0, 0]	-999	PAL1	0	R1035M
3208.55	0.275	1612767	TEST_ORIENT	n/a	n/a	2	4	DITCH	n/a	SPONGE	DITCH	14	[0, 0, 0]	-999	PAL1	0	R1035M
3209.483	4.0	1613234	TEST_PROBE	n/a	wordpools/wordpool_EN.txt	2	4	DITCH	n/a	SPONGE	DITCH	14	[0, 0, 0]	-999	PAL1	0	R1035M
3209.484	4.667	1613234	REC_START	n/a	n/a	2	-999	n/a	n/a	n/a	n/a	14	[0, 0, 0]	-999	PAL1	0	R1035M
3214.151	0.341	1615568	REC_EVENT	4.667	n/a	2	4	DITCH	<>	SPONGE	DITCH	14	[0, 0, 0]	-999	PAL1	0	R1035M
3214.492	0.009	1615738	REC_END	n/a	n/a	2	-999	n/a	n/a	n/a	n/a	14	[0, 0, 0]	-999	PAL1	0	R1035M
3214.501	0.275	1615743	TEST_ORIENT	n/a	n/a	1	5	HAT	n/a	CORD	HAT	14	[0, 0, 0]	-999	PAL1	0	R1035M
3215.335	4.0	1616160	TEST_PROBE	n/a	wordpools/wordpool_EN.txt	1	5	HAT	n/a	CORD	HAT	14	[0, 0, 0]	-999	PAL1	0	R1035M
3215.336	4.736	1616160	REC_START	n/a	n/a	1	-999	n/a	n/a	n/a	n/a	14	[0, 0, 0]	-999	PAL1	0	R1035M
3220.072	0.272	1618528	REC_EVENT	4.736	n/a	1	5	HAT	<>	CORD	HAT	14	[0, 0, 0]	-999	PAL1	0	R1035M
3220.344	0.008	1618664	REC_END	n/a	n/a	1	-999	n/a	n/a	n/a	n/a	14	[0, 0, 0]	-999	PAL1	0	R1035M
3220.352	0.275	1618668	TEST_ORIENT	n/a	n/a	4	6	BEAK	n/a	HOOK	BEAK	14	[0, 0, 0]	-999	PAL1	0	R1035M
3221.253	4.0	1619118	TEST_PROBE	n/a	wordpools/wordpool_EN.txt	4	6	BEAK	n/a	HOOK	BEAK	14	[0, 0, 0]	-999	PAL1	0	R1035M
3221.254	4.648	1619119	REC_START	n/a	n/a	4	-999	n/a	n/a	n/a	n/a	14	[0, 0, 0]	-999	PAL1	0	R1035M
3225.902	0.352	1621443	REC_EVENT	4.648	n/a	4	6	BEAK	<>	HOOK	BEAK	14	[0, 0, 0]	-999	PAL1	0	R1035M
3226.254	13.13	1621619	REC_END	n/a	n/a	4	-999	n/a	n/a	n/a	n/a	14	[0, 0, 0]	-999	PAL1	0	R1035M
3239.384	10.441	1628183	ENCODING_START	n/a	n/a	0	-999	n/a	n/a	n/a	n/a	15	[0, 0, 0]	-999	PAL1	0	R1035M
3249.825	0.275	1633404	STUDY_ORIENT	n/a	n/a	1	3	BAG	n/a	BOX	BAG	15	[0, 0, 0]	-999	PAL1	0	R1035M
3250.825	4.0	1633904	STUDY_PAIR	n/a	wordpools/wordpool_EN.txt	1	3	BAG	n/a	BOX	BAG	15	[0, 0, 0]	-999	PAL1	0	R1035M
3255.859	0.275	1636421	STUDY_ORIENT	n/a	n/a	2	4	PHONE	CALL	PHONE	APE	15	[0, 0, 0]	-999	PAL1	0	R1035M
3256.776	4.0	1636879	STUDY_PAIR	n/a	wordpools/wordpool_EN.txt	2	4	PHONE	CALL	PHONE	APE	15	[0, 0, 0]	-999	PAL1	0	R1035M
3261.794	0.275	1639388	STUDY_ORIENT	n/a	n/a	3	1	CAVE	n/a	CAVE	CAR	15	[0, 0, 0]	-999	PAL1	0	R1035M
3262.627	4.0	1639804	STUDY_PAIR	n/a	wordpools/wordpool_EN.txt	3	1	CAVE	n/a	CAVE	CAR	15	[0, 0, 0]	-999	PAL1	0	R1035M
3267.645	0.275	1642313	STUDY_ORIENT	n/a	n/a	4	6	WAVE	WHALE	WAVE	COIN	15	[0, 0, 0]	-999	PAL1	0	R1035M
3268.562	4.0	1642772	STUDY_PAIR	n/a	wordpools/wordpool_EN.txt	4	6	WAVE	WHALE	WAVE	COIN	15	[0, 0, 0]	-999	PAL1	0	R1035M
3273.596	0.275	1645289	STUDY_ORIENT	n/a	n/a	5	5	SHEEP	BEAK	SHEEP	OWL	15	[0, 0, 0]	-999	PAL1	0	R1035M
3274.546	4.0	1645764	STUDY_PAIR	n/a	wordpools/wordpool_EN.txt	5	5	SHEEP	BEAK	SHEEP	OWL	15	[0, 0, 0]	-999	PAL1	0	R1035M
3279.564	0.275	1648272	STUDY_ORIENT	n/a	n/a	6	2	HORN	n/a	PET	HORN	15	[0, 0, 0]	-999	PAL1	0	R1035M
3280.448	4.0	1648714	STUDY_PAIR	n/a	wordpools/wordpool_EN.txt	6	2	HORN	n/a	PET	HORN	15	[0, 0, 0]	-999	PAL1	0	R1035M
3284.466	0.999	1650723	START	n/a	n/a	-999	-999	n/a	n/a	n/a	n/a	15	[-999, -999, -999]	-999	PAL1	0	R1035M
3285.465	0.017	1651223	MATH_START	n/a	n/a	-999	-999	n/a	n/a	n/a	n/a	15	[0, 0, 0]	-999	PAL1	0	R1035M
3285.482	4.934	1651231	PROB	4.902	n/a	-999	-999	n/a	n/a	n/a	n/a	15	[4, 5, 6]	15	PAL1	0	R1035M
3290.416	4.619	1653698	PROB	4.593	n/a	-999	-999	n/a	n/a	n/a	n/a	15	[1, 5, 1]	7	PAL1	0	R1035M
3295.035	6.251	1656008	PROB	6.23	n/a	-999	-999	n/a	n/a	n/a	n/a	15	[6, 1, 5]	12	PAL1	0	R1035M
3301.286	3.835	1659133	PROB	3.835	n/a	-999	-999	n/a	n/a	n/a	n/a	15	[2, 1, 5]	8	PAL1	0	R1035M
3305.121	0.016	1661050	STOP	n/a	n/a	-999	-999	n/a	n/a	n/a	n/a	15	[-999, -999, -999]	-999	PAL1	0	R1035M
3305.137	0.0	1661058	MATH_END	n/a	n/a	-999	-999	n/a	n/a	n/a	n/a	15	[0, 0, 0]	-999	PAL1	0	R1035M
3305.137	0.016	1661058	TEST_START	n/a	n/a	-999	-999	n/a	n/a	n/a	n/a	15	[0, 0, 0]	-999	PAL1	0	R1035M
3305.153	0.275	1661066	TEST_ORIENT	n/a	n/a	3	1	CAVE	n/a	CAVE	CAR	15	[0, 0, 0]	-999	PAL1	0	R1035M
3305.986	4.0	1661483	TEST_PROBE	n/a	wordpools/wordpool_EN.txt	3	1	CAVE	n/a	CAVE	CAR	15	[0, 0, 0]	-999	PAL1	0	R1035M
3305.988	4.69	1661484	REC_START	n/a	n/a	3	-999	n/a	n/a	n/a	n/a	15	[0, 0, 0]	-999	PAL1	0	R1035M
3310.678	0.326	1663829	REC_EVENT	4.69	n/a	3	1	CAVE	<>	CAVE	CAR	15	[0, 0, 0]	-999	PAL1	0	R1035M
3311.004	0.017	1663992	REC_END	n/a	n/a	3	-999	n/a	n/a	n/a	n/a	15	[0, 0, 0]	-999	PAL1	0	R1035M
3311.021	0.275	1664000	TEST_ORIENT	n/a	n/a	6	2	HORN	n/a	PET	HORN	15	[0, 0, 0]	-999	PAL1	0	R1035M
3311.954	4.0	1664467	TEST_PROBE	n/a	wordpools/wordpool_EN.txt	6	2	HORN	n/a	PET	HORN	15	[0, 0, 0]	-999	PAL1	0	R1035M
3311.954	4.62	1664467	REC_START	n/a	n/a	6	-999	n/a	n/a	n/a	n/a	15	[0, 0, 0]	-999	PAL1	0	R1035M
3316.574	0.397	1666776	REC_EVENT	4.62	n/a	6	2	HORN	<>	PET	HORN	15	[0, 0, 0]	-999	PAL1	0	R1035M
3316.971	0.018	1666975	REC_END	n/a	n/a	6	-999	n/a	n/a	n/a	n/a	15	[0, 0, 0]	-999	PAL1	0	R1035M
3316.989	0.275	1666984	TEST_ORIENT	n/a	n/a	1	3	BAG	n/a	BOX	BAG	15	[0, 0, 0]	-999	PAL1	0	R1035M
3317.938	4.0	1667458	TEST_PROBE	n/a	wordpools/wordpool_EN.txt	1	3	BAG	n/a	BOX	BAG	15	[0, 0, 0]	-999	PAL1	0	R1035M
3317.939	4.852	1667459	REC_START	n/a	n/a	1	-999	n/a	n/a	n/a	n/a	15	[0, 0, 0]	-999	PAL1	0	R1035M
3322.791	0.157	1669885	REC_EVENT	4.852	n/a	1	3	BAG	<>	BOX	BAG	15	[0, 0, 0]	-999	PAL1	0	R1035M
3322.948	0.008	1669963	REC_END	n/a	n/a	1	-999	n/a	n/a	n/a	n/a	15	[0, 0, 0]	-999	PAL1	0	R1035M
3322.956	0.275	1669967	TEST_ORIENT	n/a	n/a	2	4	PHONE	CALL	PHONE	APE	15	[0, 0, 0]	-999	PAL1	0	R1035M
3323.756	4.0	1670367	TEST_PROBE	n/a	wordpools/wordpool_EN.txt	2	4	PHONE	CALL	PHONE	APE	15	[0, 0, 0]	-999	PAL1	0	R1035M
3323.757	3.504	1670368	REC_START	n/a	n/a	2	-999	n/a	CALL	n/a	n/a	15	[0, 0, 0]	-999	PAL1	0	R1035M
3327.261	1.505	1672120	REC_EVENT	3.504	n/a	2	4	PHONE	CALL	PHONE	APE	15	[0, 0, 0]	-999	PAL1	0	R1035M
3328.766	0.008	1672872	REC_END	n/a	n/a	2	-999	n/a	n/a	n/a	n/a	15	[0, 0, 0]	-999	PAL1	0	R1035M
3328.774	0.275	1672876	TEST_ORIENT	n/a	n/a	5	5	SHEEP	BEAK	SHEEP	OWL	15	[0, 0, 0]	-999	PAL1	0	R1035M
3329.774	4.0	1673376	TEST_PROBE	n/a	wordpools/wordpool_EN.txt	5	5	SHEEP	BEAK	SHEEP	OWL	15	[0, 0, 0]	-999	PAL1	0	R1035M
3329.775	2.825	1673377	REC_START	n/a	n/a	5	-999	n/a	BEAK	n/a	n/a	15	[0, 0, 0]	-999	PAL1	0	R1035M
3332.6	2.191	1674789	REC_EVENT	2.825	n/a	5	5	SHEEP	BEAK	SHEEP	OWL	15	[0, 0, 0]	-999	PAL1	0	R1035M
3334.791	0.017	1675884	REC_END	n/a	n/a	5	-999	n/a	n/a	n/a	n/a	15	[0, 0, 0]	-999	PAL1	0	R1035M
3334.808	0.275	1675893	TEST_ORIENT	n/a	n/a	4	6	WAVE	WHALE	WAVE	COIN	15	[0, 0, 0]	-999	PAL1	0	R1035M
3335.625	4.0	1676301	TEST_PROBE	n/a	wordpools/wordpool_EN.txt	4	6	WAVE	WHALE	WAVE	COIN	15	[0, 0, 0]	-999	PAL1	0	R1035M
3335.626	2.765	1676302	REC_START	n/a	n/a	4	-999	n/a	WHALE	n/a	n/a	15	[0, 0, 0]	-999	PAL1	0	R1035M
3338.391	2.244	1677684	REC_EVENT	2.765	n/a	4	6	WAVE	WHALE	WAVE	COIN	15	[0, 0, 0]	-999	PAL1	0	R1035M
3340.635	17.414	1678806	REC_END	n/a	n/a	4	-999	n/a	n/a	n/a	n/a	15	[0, 0, 0]	-999	PAL1	0	R1035M
3358.049	10.449	1687513	ENCODING_START	n/a	n/a	0	-999	n/a	n/a	n/a	n/a	16	[0, 0, 0]	-999	PAL1	0	R1035M
3368.498	0.275	1692737	STUDY_ORIENT	n/a	n/a	1	5	WALL	MALL	WALL	SEAL	16	[0, 0, 0]	-999	PAL1	0	R1035M
3369.365	4.0	1693171	STUDY_PAIR	n/a	wordpools/wordpool_EN.txt	1	5	WALL	MALL	WALL	SEAL	16	[0, 0, 0]	-999	PAL1	0	R1035M
3374.383	0.275	1695679	STUDY_ORIENT	n/a	n/a	2	4	SOCK	HAT	HAND	SOCK	16	[0, 0, 0]	-999	PAL1	0	R1035M
3375.167	4.0	1696071	STUDY_PAIR	n/a	wordpools/wordpool_EN.txt	2	4	SOCK	HAT	HAND	SOCK	16	[0, 0, 0]	-999	PAL1	0	R1035M
3380.185	0.275	1698580	STUDY_ORIENT	n/a	n/a	3	3	CLAY	TREE	NET	CLAY	16	[0, 0, 0]	-999	PAL1	0	R1035M
3381.202	4.0	1699089	STUDY_PAIR	n/a	wordpools/wordpool_EN.txt	3	3	CLAY	TREE	NET	CLAY	16	[0, 0, 0]	-999	PAL1	0	R1035M
3386.236	0.275	1701606	STUDY_ORIENT	n/a	n/a	4	6	HAWK	BIRD	HAWK	BED	16	[0, 0, 0]	-999	PAL1	0	R1035M
3387.253	4.0	1702114	STUDY_PAIR	n/a	wordpools/wordpool_EN.txt	4	6	HAWK	BIRD	HAWK	BED	16	[0, 0, 0]	-999	PAL1	0	R1035M
3392.271	0.275	1704623	STUDY_ORIENT	n/a	n/a	5	1	MOOSE	n/a	MOOSE	BOY	16	[0, 0, 0]	-999	PAL1	0	R1035M
3393.104	4.0	1705039	STUDY_PAIR	n/a	wordpools/wordpool_EN.txt	5	1	MOOSE	n/a	MOOSE	BOY	16	[0, 0, 0]	-999	PAL1	0	R1035M
3398.122	0.275	1707548	STUDY_ORIENT	n/a	n/a	6	2	TRASH	CATCH	TRASH	WOLF	16	[0, 0, 0]	-999	PAL1	0	R1035M
3399.089	4.0	1708032	STUDY_PAIR	n/a	wordpools/wordpool_EN.txt	6	2	TRASH	CATCH	TRASH	WOLF	16	[0, 0, 0]	-999	PAL1	0	R1035M
3403.107	0.999	1710041	START	n/a	n/a	-999	-999	n/a	n/a	n/a	n/a	16	[-999, -999, -999]	-999	PAL1	0	R1035M
3404.106	0.017	1710540	MATH_START	n/a	n/a	-999	-999	n/a	n/a	n/a	n/a	16	[0, 0, 0]	-999	PAL1	0	R1035M
3404.123	5.218	1710549	PROB	5.198	n/a	-999	-999	n/a	n/a	n/a	n/a	16	[9, 4, 7]	20	PAL1	0	R1035M
3409.341	3.701	1713158	PROB	3.676	n/a	-999	-999	n/a	n/a	n/a	n/a	16	[1, 3, 4]	8	PAL1	0	R1035M
3413.042	4.0	1715008	PROB	3.967	n/a	-999	-999	n/a	n/a	n/a	n/a	16	[1, 6, 8]	15	PAL1	0	R1035M
3417.042	4.235	1717008	PROB	4.215	n/a	-999	-999	n/a	n/a	n/a	n/a	16	[3, 1, 4]	8	PAL1	0	R1035M
3421.277	3.499	1719125	PROB	3.499	n/a	-999	-999	n/a	n/a	n/a	n/a	16	[2, 2, 7]	11	PAL1	0	R1035M
3424.776	0.017	1720875	STOP	n/a	n/a	-999	-999	n/a	n/a	n/a	n/a	16	[-999, -999, -999]	-999	PAL1	0	R1035M
3424.793	0.0	1720883	MATH_END	n/a	n/a	-999	-999	n/a	n/a	n/a	n/a	16	[0, 0, 0]	-999	PAL1	0	R1035M
3424.793	0.017	1720883	TEST_START	n/a	n/a	-999	-999	n/a	n/a	n/a	n/a	16	[0, 0, 0]	-999	PAL1	0	R1035M
3424.81	0.275	1720892	TEST_ORIENT	n/a	n/a	5	1	MOOSE	n/a	MOOSE	BOY	16	[0, 0, 0]	-999	PAL1	0	R1035M
3425.627	4.0	1721300	TEST_PROBE	n/a	wordpools/wordpool_EN.txt	5	1	MOOSE	n/a	MOOSE	BOY	16	[0, 0, 0]	-999	PAL1	0	R1035M
3425.627	4.806	1721300	REC_START	n/a	n/a	5	-999	n/a	n/a	n/a	n/a	16	[0, 0, 0]	-999	PAL1	0	R1035M
3430.433	0.211	1723703	REC_EVENT	4.806	n/a	5	1	MOOSE	<>	MOOSE	BOY	16	[0, 0, 0]	-999	PAL1	0	R1035M
3430.644	0.017	1723809	REC_END	n/a	n/a	5	-999	n/a	n/a	n/a	n/a	16	[0, 0, 0]	-999	PAL1	0	R1035M
3430.661	0.275	1723817	TEST_ORIENT	n/a	n/a	6	2	TRASH	CATCH	TRASH	WOLF	16	[0, 0, 0]	-999	PAL1	0	R1035M
3431.678	4.0	1724325	TEST_PROBE	n/a	wordpools/wordpool_EN.txt	6	2	TRASH	CATCH	TRASH	WOLF	16	[0, 0, 0]	-999	PAL1	0	R1035M
3431.678	3.82	1724325	REC_START	n/a	n/a	6	-999	n/a	CATCH	n/a	n/a	16	[0, 0, 0]	-999	PAL1	0	R1035M
3435.498	1.197	1726235	REC_EVENT	3.82	n/a	6	2	TRASH	CATCH	TRASH	WOLF	16	[0, 0, 0]	-999	PAL1	0	R1035M
3436.695	0.017	1726834	REC_END	n/a	n/a	6	-999	n/a	n/a	n/a	n/a	16	[0, 0, 0]	-999	PAL1	0	R1035M
3436.712	0.275	1726842	TEST_ORIENT	n/a	n/a	3	3	CLAY	TREE	NET	CLAY	16	[0, 0, 0]	-999	PAL1	0	R1035M
3437.696	0.0	1727334	REC_START	n/a	n/a	3	-999	n/a	TREE	n/a	n/a	16	[0, 0, 0]	-999	PAL1	0	R1035M
3437.696	4.0	1727334	TEST_PROBE	n/a	wordpools/wordpool_EN.txt	3	3	CLAY	TREE	NET	CLAY	16	[0, 0, 0]	-999	PAL1	0	R1035M
3440.606	2.107	1728789	REC_EVENT	2.91	n/a	3	3	CLAY	TREE	NET	CLAY	16	[0, 0, 0]	-999	PAL1	0	R1035M
3442.713	0.017	1729843	REC_END	n/a	n/a	3	-999	n/a	n/a	n/a	n/a	16	[0, 0, 0]	-999	PAL1	0	R1035M
3442.73	0.275	1729851	TEST_ORIENT	n/a	n/a	2	4	SOCK	HAT	HAND	SOCK	16	[0, 0, 0]	-999	PAL1	0	R1035M
3443.53	4.0	1730251	TEST_PROBE	n/a	wordpools/wordpool_EN.txt	2	4	SOCK	HAT	HAND	SOCK	16	[0, 0, 0]	-999	PAL1	0	R1035M
3443.531	3.388	1730252	REC_START	n/a	n/a	2	-999	n/a	HAT	n/a	n/a	16	[0, 0, 0]	-999	PAL1	0	R1035M
3446.919	1.621	1731946	REC_EVENT	3.388	n/a	2	4	SOCK	HAT	HAND	SOCK	16	[0, 0, 0]	-999	PAL1	0	R1035M
3448.54	0.008	1732756	REC_END	n/a	n/a	2	-999	n/a	n/a	n/a	n/a	16	[0, 0, 0]	-999	PAL1	0	R1035M
3448.548	0.275	1732760	TEST_ORIENT	n/a	n/a	1	5	WALL	MALL	WALL	SEAL	16	[0, 0, 0]	-999	PAL1	0	R1035M
3449.565	4.0	1733269	TEST_PROBE	n/a	wordpools/wordpool_EN.txt	1	5	WALL	MALL	WALL	SEAL	16	[0, 0, 0]	-999	PAL1	0	R1035M
3449.565	3.146	1733269	REC_START	n/a	n/a	1	-999	n/a	MALL	n/a	n/a	16	[0, 0, 0]	-999	PAL1	0	R1035M
3452.711	1.871	1734841	REC_EVENT	3.146	n/a	1	5	WALL	MALL	WALL	SEAL	16	[0, 0, 0]	-999	PAL1	0	R1035M
3454.582	0.017	1735777	REC_END	n/a	n/a	1	-999	n/a	n/a	n/a	n/a	16	[0, 0, 0]	-999	PAL1	0	R1035M
3454.599	0.275	1735785	TEST_ORIENT	n/a	n/a	4	6	HAWK	BIRD	HAWK	BED	16	[0, 0, 0]	-999	PAL1	0	R1035M
3455.399	4.0	1736185	TEST_PROBE	n/a	wordpools/wordpool_EN.txt	4	6	HAWK	BIRD	HAWK	BED	16	[0, 0, 0]	-999	PAL1	0	R1035M
3455.4	4.17	1736186	REC_START	n/a	n/a	4	-999	n/a	BIRD	n/a	n/a	16	[0, 0, 0]	-999	PAL1	0	R1035M
3459.57	0.83	1738271	REC_EVENT	4.17	n/a	4	6	HAWK	BIRD	HAWK	BED	16	[0, 0, 0]	-999	PAL1	0	R1035M
3460.4	30.609	1738686	REC_END	n/a	n/a	4	-999	n/a	n/a	n/a	n/a	16	[0, 0, 0]	-999	PAL1	0	R1035M
3491.009	10.449	1753989	ENCODING_START	n/a	n/a	0	-999	n/a	n/a	n/a	n/a	17	[0, 0, 0]	-999	PAL1	0	R1035M
3501.458	0.275	1759214	STUDY_ORIENT	n/a	n/a	1	1	STOOL	STAIR	SPARK	STOOL	17	[0, 0, 0]	-999	PAL1	0	R1035M
3502.442	4.0	1759706	STUDY_PAIR	n/a	wordpools/wordpool_EN.txt	1	1	STOOL	STAIR	SPARK	STOOL	17	[0, 0, 0]	-999	PAL1	0	R1035M
3507.476	0.275	1762223	STUDY_ORIENT	n/a	n/a	2	2	TAIL	TEA	PEA	TAIL	17	[0, 0, 0]	-999	PAL1	0	R1035M
3508.294	4.0	1762632	STUDY_PAIR	n/a	wordpools/wordpool_EN.txt	2	2	TAIL	TEA	PEA	TAIL	17	[0, 0, 0]	-999	PAL1	0	R1035M
3513.312	0.275	1765140	STUDY_ORIENT	n/a	n/a	3	5	OAR	PLUG	OAR	FLAG	17	[0, 0, 0]	-999	PAL1	0	R1035M
3514.312	4.0	1765640	STUDY_PAIR	n/a	wordpools/wordpool_EN.txt	3	5	OAR	PLUG	OAR	FLAG	17	[0, 0, 0]	-999	PAL1	0	R1035M
3519.346	0.275	1768157	STUDY_ORIENT	n/a	n/a	4	4	SHOE	PANTS	SCHOOL	SHOE	17	[0, 0, 0]	-999	PAL1	0	R1035M
3520.347	4.0	1768658	STUDY_PAIR	n/a	wordpools/wordpool_EN.txt	4	4	SHOE	PANTS	SCHOOL	SHOE	17	[0, 0, 0]	-999	PAL1	0	R1035M
3525.38	0.275	1771174	STUDY_ORIENT	n/a	n/a	5	3	FOG	n/a	GRAPE	FOG	17	[0, 0, 0]	-999	PAL1	0	R1035M
3526.348	4.0	1771658	STUDY_PAIR	n/a	wordpools/wordpool_EN.txt	5	3	FOG	n/a	GRAPE	FOG	17	[0, 0, 0]	-999	PAL1	0	R1035M
3531.381	0.275	1774174	STUDY_ORIENT	n/a	n/a	6	6	SHIP	n/a	BLUSH	SHIP	17	[0, 0, 0]	-999	PAL1	0	R1035M
3532.381	4.0	1774674	STUDY_PAIR	n/a	wordpools/wordpool_EN.txt	6	6	SHIP	n/a	BLUSH	SHIP	17	[0, 0, 0]	-999	PAL1	0	R1035M
3536.382	1.0	1776675	START	n/a	n/a	-999	-999	n/a	n/a	n/a	n/a	17	[-999, -999, -999]	-999	PAL1	0	R1035M
3537.382	0.017	1777175	MATH_START	n/a	n/a	-999	-999	n/a	n/a	n/a	n/a	17	[0, 0, 0]	-999	PAL1	0	R1035M
3537.399	5.051	1777183	PROB	5.025	n/a	-999	-999	n/a	n/a	n/a	n/a	17	[5, 9, 6]	20	PAL1	0	R1035M
3542.45	4.685	1779709	PROB	4.663	n/a	-999	-999	n/a	n/a	n/a	n/a	17	[8, 2, 2]	12	PAL1	0	R1035M
3547.135	5.7	1782051	PROB	5.673	n/a	-999	-999	n/a	n/a	n/a	n/a	17	[9, 8, 3]	20	PAL1	0	R1035M
3552.835	3.534	1784901	PROB	3.502	n/a	-999	-999	n/a	n/a	n/a	n/a	17	[7, 3, 4]	14	PAL1	0	R1035M
3556.369	6.808	1786668	PROB	6.808	n/a	-999	-999	n/a	n/a	n/a	n/a	17	[3, 7, 9]	19	PAL1	0	R1035M
3563.177	0.011	1790072	STOP	n/a	n/a	-999	-999	n/a	n/a	n/a	n/a	17	[-999, -999, -999]	-999	PAL1	0	R1035M
3563.188	0.0	1790077	MATH_END	n/a	n/a	-999	-999	n/a	n/a	n/a	n/a	17	[0, 0, 0]	-999	PAL1	0	R1035M
3563.188	0.017	1790077	TEST_START	n/a	n/a	-999	-999	n/a	n/a	n/a	n/a	17	[0, 0, 0]	-999	PAL1	0	R1035M
3563.205	0.275	1790086	TEST_ORIENT	n/a	n/a	1	1	STOOL	STAIR	SPARK	STOOL	17	[0, 0, 0]	-999	PAL1	0	R1035M
3564.205	4.0	1790586	TEST_PROBE	n/a	wordpools/wordpool_EN.txt	1	1	STOOL	STAIR	SPARK	STOOL	17	[0, 0, 0]	-999	PAL1	0	R1035M
3564.206	4.165	1790586	REC_START	n/a	n/a	1	-999	n/a	STAIR	n/a	n/a	17	[0, 0, 0]	-999	PAL1	0	R1035M
3568.371	0.844	1792668	REC_EVENT	4.165	n/a	1	1	STOOL	STAIR	SPARK	STOOL	17	[0, 0, 0]	-999	PAL1	0	R1035M
3569.215	0.008	1793090	REC_END	n/a	n/a	1	-999	n/a	n/a	n/a	n/a	17	[0, 0, 0]	-999	PAL1	0	R1035M
3569.223	0.275	1793094	TEST_ORIENT	n/a	n/a	2	2	TAIL	TEA	PEA	TAIL	17	[0, 0, 0]	-999	PAL1	0	R1035M
3570.09	4.0	1793528	TEST_PROBE	n/a	wordpools/wordpool_EN.txt	2	2	TAIL	TEA	PEA	TAIL	17	[0, 0, 0]	-999	PAL1	0	R1035M
3570.09	4.289	1793528	REC_START	n/a	n/a	2	-999	n/a	TEA	n/a	n/a	17	[0, 0, 0]	-999	PAL1	0	R1035M
3574.379	0.728	1795672	REC_EVENT	4.289	n/a	2	2	TAIL	TEA	PEA	TAIL	17	[0, 0, 0]	-999	PAL1	0	R1035M
3575.107	0.017	1796036	REC_END	n/a	n/a	2	-999	n/a	n/a	n/a	n/a	17	[0, 0, 0]	-999	PAL1	0	R1035M
3575.124	0.275	1796045	TEST_ORIENT	n/a	n/a	5	3	FOG	n/a	GRAPE	FOG	17	[0, 0, 0]	-999	PAL1	0	R1035M
3576.024	4.0	1796495	TEST_PROBE	n/a	wordpools/wordpool_EN.txt	5	3	FOG	n/a	GRAPE	FOG	17	[0, 0, 0]	-999	PAL1	0	R1035M
3576.025	4.829	1796495	REC_START	n/a	n/a	5	-999	n/a	n/a	n/a	n/a	17	[0, 0, 0]	-999	PAL1	0	R1035M
3580.854	0.171	1798910	REC_EVENT	4.829	n/a	5	3	FOG	<>	GRAPE	FOG	17	[0, 0, 0]	-999	PAL1	0	R1035M
3581.025	0.017	1798995	REC_END	n/a	n/a	5	-999	n/a	n/a	n/a	n/a	17	[0, 0, 0]	-999	PAL1	0	R1035M
3581.042	0.275	1799004	TEST_ORIENT	n/a	n/a	4	4	SHOE	PANTS	SCHOOL	SHOE	17	[0, 0, 0]	-999	PAL1	0	R1035M
3581.975	4.0	1799470	TEST_PROBE	n/a	wordpools/wordpool_EN.txt	4	4	SHOE	PANTS	SCHOOL	SHOE	17	[0, 0, 0]	-999	PAL1	0	R1035M
3581.975	3.36	1799470	REC_START	n/a	n/a	4	-999	n/a	PANTS	n/a	n/a	17	[0, 0, 0]	-999	PAL1	0	R1035M
3585.335	1.658	1801150	REC_EVENT	3.36	n/a	4	4	SHOE	PANTS	SCHOOL	SHOE	17	[0, 0, 0]	-999	PAL1	0	R1035M
3586.993	0.017	1801979	REC_END	n/a	n/a	4	-999	n/a	n/a	n/a	n/a	17	[0, 0, 0]	-999	PAL1	0	R1035M
3587.01	0.275	1801987	TEST_ORIENT	n/a	n/a	3	5	OAR	PLUG	OAR	FLAG	17	[0, 0, 0]	-999	PAL1	0	R1035M
3587.993	4.0	1802479	TEST_PROBE	n/a	wordpools/wordpool_EN.txt	3	5	OAR	PLUG	OAR	FLAG	17	[0, 0, 0]	-999	PAL1	0	R1035M
3587.994	2.311	1802479	REC_START	n/a	n/a	3	-999	n/a	PLUG	n/a	n/a	17	[0, 0, 0]	-999	PAL1	0	R1035M
3590.305	2.697	1803635	REC_EVENT	2.311	n/a	3	5	OAR	PLUG	OAR	FLAG	17	[0, 0, 0]	-999	PAL1	0	R1035M
3593.002	0.009	1804983	REC_END	n/a	n/a	3	-999	n/a	n/a	n/a	n/a	17	[0, 0, 0]	-999	PAL1	0	R1035M
3593.011	0.275	1804988	TEST_ORIENT	n/a	n/a	6	6	SHIP	n/a	BLUSH	SHIP	17	[0, 0, 0]	-999	PAL1	0	R1035M
3594.045	4.0	1805505	TEST_PROBE	n/a	wordpools/wordpool_EN.txt	6	6	SHIP	n/a	BLUSH	SHIP	17	[0, 0, 0]	-999	PAL1	0	R1035M
3594.045	4.69	1805505	REC_START	n/a	n/a	6	-999	n/a	n/a	n/a	n/a	17	[0, 0, 0]	-999	PAL1	0	R1035M
3598.735	0.327	1807850	REC_EVENT	4.69	n/a	6	6	SHIP	<>	BLUSH	SHIP	17	[0, 0, 0]	-999	PAL1	0	R1035M
3599.062	6.378	1808013	REC_END	n/a	n/a	6	-999	n/a	n/a	n/a	n/a	17	[0, 0, 0]	-999	PAL1	0	R1035M
3605.44	10.441	1811202	ENCODING_START	n/a	n/a	0	-999	n/a	n/a	n/a	n/a	18	[0, 0, 0]	-999	PAL1	0	R1035M
3615.881	0.275	1816422	STUDY_ORIENT	n/a	n/a	1	3	SIGN	SEA	BOOT	SIGN	18	[0, 0, 0]	-999	PAL1	0	R1035M
3616.698	4.0	1816831	STUDY_PAIR	n/a	wordpools/wordpool_EN.txt	1	3	SIGN	SEA	BOOT	SIGN	18	[0, 0, 0]	-999	PAL1	0	R1035M
3621.716	0.275	1819340	STUDY_ORIENT	n/a	n/a	2	4	FUR	TAIL	FUR	CAT	18	[0, 0, 0]	-999	PAL1	0	R1035M
3622.616	4.0	1819790	STUDY_PAIR	n/a	wordpools/wordpool_EN.txt	2	4	FUR	TAIL	FUR	CAT	18	[0, 0, 0]	-999	PAL1	0	R1035M
3627.65	0.275	1822306	STUDY_ORIENT	n/a	n/a	3	5	WORM	n/a	WORM	CART	18	[0, 0, 0]	-999	PAL1	0	R1035M
3628.584	4.0	1822773	STUDY_PAIR	n/a	wordpools/wordpool_EN.txt	3	5	WORM	n/a	WORM	CART	18	[0, 0, 0]	-999	PAL1	0	R1035M
3633.618	0.275	1825290	STUDY_ORIENT	n/a	n/a	4	6	FORK	SPOON	ROOM	FORK	18	[0, 0, 0]	-999	PAL1	0	R1035M
3634.418	4.0	1825690	STUDY_PAIR	n/a	wordpools/wordpool_EN.txt	4	6	FORK	SPOON	ROOM	FORK	18	[0, 0, 0]	-999	PAL1	0	R1035M
3639.436	0.275	1828199	STUDY_ORIENT	n/a	n/a	5	1	WHALE	n/a	FROG	WHALE	18	[0, 0, 0]	-999	PAL1	0	R1035M
3640.304	4.0	1828633	STUDY_PAIR	n/a	wordpools/wordpool_EN.txt	5	1	WHALE	n/a	FROG	WHALE	18	[0, 0, 0]	-999	PAL1	0	R1035M
3645.338	0.275	1831150	STUDY_ORIENT	n/a	n/a	6	2	LAMB	DOG	COW	LAMB	18	[0, 0, 0]	-999	PAL1	0	R1035M
3646.172	4.0	1831567	STUDY_PAIR	n/a	wordpools/wordpool_EN.txt	6	2	LAMB	DOG	COW	LAMB	18	[0, 0, 0]	-999	PAL1	0	R1035M
3650.19	0.999	1833576	START	n/a	n/a	-999	-999	n/a	n/a	n/a	n/a	18	[-999, -999, -999]	-999	PAL1	0	R1035M
3651.189	0.017	1834075	MATH_START	n/a	n/a	-999	-999	n/a	n/a	n/a	n/a	18	[0, 0, 0]	-999	PAL1	0	R1035M
3651.206	9.785	1834084	PROB	9.754	n/a	-999	-999	n/a	n/a	n/a	n/a	18	[6, 7, 8]	21	PAL1	0	R1035M
3660.991	3.967	1838976	PROB	3.937	n/a	-999	-999	n/a	n/a	n/a	n/a	18	[4, 1, 5]	10	PAL1	0	R1035M
3664.958	5.085	1840959	PROB	5.059	n/a	-999	-999	n/a	n/a	n/a	n/a	18	[5, 3, 9]	16	PAL1	0	R1035M
3670.043	5.038	1843502	PROB	5.038	n/a	-999	-999	n/a	n/a	n/a	n/a	18	[3, 5, 1]	9	PAL1	0	R1035M
3675.081	0.013	1846021	STOP	n/a	n/a	-999	-999	n/a	n/a	n/a	n/a	18	[-999, -999, -999]	-999	PAL1	0	R1035M
3675.094	0.0	1846027	MATH_END	n/a	n/a	-999	-999	n/a	n/a	n/a	n/a	18	[0, 0, 0]	-999	PAL1	0	R1035M
3675.094	0.017	1846027	TEST_START	n/a	n/a	-999	-999	n/a	n/a	n/a	n/a	18	[0, 0, 0]	-999	PAL1	0	R1035M
3675.111	0.275	1846036	TEST_ORIENT	n/a	n/a	5	1	WHALE	n/a	FROG	WHALE	18	[0, 0, 0]	-999	PAL1	0	R1035M
3675.943	4.0	1846452	TEST_PROBE	n/a	wordpools/wordpool_EN.txt	5	1	WHALE	n/a	FROG	WHALE	18	[0, 0, 0]	-999	PAL1	0	R1035M
3675.944	4.338	1846452	REC_START	n/a	n/a	5	-999	n/a	n/a	n/a	n/a	18	[0, 0, 0]	-999	PAL1	0	R1035M
3680.282	0.67	1848621	REC_EVENT	4.338	n/a	5	1	WHALE	<>	FROG	WHALE	18	[0, 0, 0]	-999	PAL1	0	R1035M
3680.952	0.009	1848956	REC_END	n/a	n/a	5	-999	n/a	n/a	n/a	n/a	18	[0, 0, 0]	-999	PAL1	0	R1035M
3680.961	0.275	1848961	TEST_ORIENT	n/a	n/a	6	2	LAMB	DOG	COW	LAMB	18	[0, 0, 0]	-999	PAL1	0	R1035M
3681.778	4.0	1849369	TEST_PROBE	n/a	wordpools/wordpool_EN.txt	6	2	LAMB	DOG	COW	LAMB	18	[0, 0, 0]	-999	PAL1	0	R1035M
3681.779	3.466	1849370	REC_START	n/a	n/a	6	-999	n/a	DOG	n/a	n/a	18	[0, 0, 0]	-999	PAL1	0	R1035M
3685.245	1.55	1851102	REC_EVENT	3.466	n/a	6	2	LAMB	DOG	COW	LAMB	18	[0, 0, 0]	-999	PAL1	0	R1035M
3686.795	0.017	1851877	REC_END	n/a	n/a	6	-999	n/a	n/a	n/a	n/a	18	[0, 0, 0]	-999	PAL1	0	R1035M
3686.812	0.275	1851886	TEST_ORIENT	n/a	n/a	1	3	SIGN	SEA	BOOT	SIGN	18	[0, 0, 0]	-999	PAL1	0	R1035M
3687.779	4.0	1852369	TEST_PROBE	n/a	wordpools/wordpool_EN.txt	1	3	SIGN	SEA	BOOT	SIGN	18	[0, 0, 0]	-999	PAL1	0	R1035M
3687.78	3.84	1852370	REC_START	n/a	n/a	1	-999	n/a	SEA	n/a	n/a	18	[0, 0, 0]	-999	PAL1	0	R1035M
3691.62	1.186	1854290	REC_EVENT	3.84	n/a	1	3	SIGN	SEA	BOOT	SIGN	18	[0, 0, 0]	-999	PAL1	0	R1035M
3692.806	0.007	1854883	REC_END	n/a	n/a	1	-999	n/a	n/a	n/a	n/a	18	[0, 0, 0]	-999	PAL1	0	R1035M
3692.813	0.275	1854886	TEST_ORIENT	n/a	n/a	2	4	FUR	TAIL	FUR	CAT	18	[0, 0, 0]	-999	PAL1	0	R1035M
3693.747	4.0	1855353	TEST_PROBE	n/a	wordpools/wordpool_EN.txt	2	4	FUR	TAIL	FUR	CAT	18	[0, 0, 0]	-999	PAL1	0	R1035M
3693.747	2.03	1855353	REC_START	n/a	n/a	2	-999	n/a	TAIL	n/a	n/a	18	[0, 0, 0]	-999	PAL1	0	R1035M
3695.777	2.987	1856368	REC_EVENT	2.03	n/a	2	4	FUR	TAIL	FUR	CAT	18	[0, 0, 0]	-999	PAL1	0	R1035M
3698.764	0.017	1857862	REC_END	n/a	n/a	2	-999	n/a	n/a	n/a	n/a	18	[0, 0, 0]	-999	PAL1	0	R1035M
3698.781	0.275	1857870	TEST_ORIENT	n/a	n/a	3	5	WORM	n/a	WORM	CART	18	[0, 0, 0]	-999	PAL1	0	R1035M
3699.781	4.0	1858370	TEST_PROBE	n/a	wordpools/wordpool_EN.txt	3	5	WORM	n/a	WORM	CART	18	[0, 0, 0]	-999	PAL1	0	R1035M
3699.782	4.411	1858371	REC_START	n/a	n/a	3	-999	n/a	n/a	n/a	n/a	18	[0, 0, 0]	-999	PAL1	0	R1035M
3704.193	0.598	1860576	REC_EVENT	4.411	n/a	3	5	WORM	<>	WORM	CART	18	[0, 0, 0]	-999	PAL1	0	R1035M
3704.791	0.008	1860875	REC_END	n/a	n/a	3	-999	n/a	n/a	n/a	n/a	18	[0, 0, 0]	-999	PAL1	0	R1035M
3704.799	0.275	1860879	TEST_ORIENT	n/a	n/a	4	6	FORK	SPOON	ROOM	FORK	18	[0, 0, 0]	-999	PAL1	0	R1035M
3705.716	4.0	1861337	TEST_PROBE	n/a	wordpools/wordpool_EN.txt	4	6	FORK	SPOON	ROOM	FORK	18	[0, 0, 0]	-999	PAL1	0	R1035M
3705.716	2.213	1861337	REC_START	n/a	n/a	4	-999	n/a	SPOON	n/a	n/a	18	[0, 0, 0]	-999	PAL1	0	R1035M
3707.929	2.804	1862444	REC_EVENT	2.213	n/a	4	6	FORK	SPOON	ROOM	FORK	18	[0, 0, 0]	-999	PAL1	0	R1035M
3710.733	6.115	1863846	REC_END	n/a	n/a	4	-999	n/a	n/a	n/a	n/a	18	[0, 0, 0]	-999	PAL1	0	R1035M
3716.848	10.44	1866903	ENCODING_START	n/a	n/a	0	-999	n/a	n/a	n/a	n/a	19	[0, 0, 0]	-999	PAL1	0	R1035M
3727.288	0.275	1872123	STUDY_ORIENT	n/a	n/a	1	1	MULE	SEAGULL	MULE	SEA	19	[0, 0, 0]	-999	PAL1	0	R1035M
3728.205	4.0	1872581	STUDY_PAIR	n/a	wordpools/wordpool_EN.txt	1	1	MULE	SEAGULL	MULE	SEA	19	[0, 0, 0]	-999	PAL1	0	R1035M
3733.239	0.275	1875098	STUDY_ORIENT	n/a	n/a	2	2	MOUTH	TAIL	PEN	MOUTH	19	[0, 0, 0]	-999	PAL1	0	R1035M
3734.206	4.0	1875582	STUDY_PAIR	n/a	wordpools/wordpool_EN.txt	2	2	MOUTH	TAIL	PEN	MOUTH	19	[0, 0, 0]	-999	PAL1	0	R1035M
3739.24	0.275	1878099	STUDY_ORIENT	n/a	n/a	3	5	PEARL	n/a	PEARL	AXE	19	[0, 0, 0]	-999	PAL1	0	R1035M
3740.057	4.0	1878507	STUDY_PAIR	n/a	wordpools/wordpool_EN.txt	3	5	PEARL	n/a	PEARL	AXE	19	[0, 0, 0]	-999	PAL1	0	R1035M
3745.075	0.275	1881016	STUDY_ORIENT	n/a	n/a	4	6	STONE	CLONE	JET	STONE	19	[0, 0, 0]	-999	PAL1	0	R1035M
3746.058	4.0	1881507	STUDY_PAIR	n/a	wordpools/wordpool_EN.txt	4	6	STONE	CLONE	JET	STONE	19	[0, 0, 0]	-999	PAL1	0	R1035M
3751.076	0.275	1884016	STUDY_ORIENT	n/a	n/a	5	3	JUDGE	n/a	FOX	JUDGE	19	[0, 0, 0]	-999	PAL1	0	R1035M
3752.093	4.0	1884525	STUDY_PAIR	n/a	wordpools/wordpool_EN.txt	5	3	JUDGE	n/a	FOX	JUDGE	19	[0, 0, 0]	-999	PAL1	0	R1035M
3757.127	0.275	1887042	STUDY_ORIENT	n/a	n/a	6	4	STEAM	BEAN	STEAM	ROOF	19	[0, 0, 0]	-999	PAL1	0	R1035M
3757.96	4.0	1887458	STUDY_PAIR	n/a	wordpools/wordpool_EN.txt	6	4	STEAM	BEAN	STEAM	ROOF	19	[0, 0, 0]	-999	PAL1	0	R1035M
3761.978	0.999	1889467	START	n/a	n/a	-999	-999	n/a	n/a	n/a	n/a	19	[-999, -999, -999]	-999	PAL1	0	R1035M
3762.977	0.018	1889966	MATH_START	n/a	n/a	-999	-999	n/a	n/a	n/a	n/a	19	[0, 0, 0]	-999	PAL1	0	R1035M
3762.995	4.617	1889975	PROB	4.597	n/a	-999	-999	n/a	n/a	n/a	n/a	19	[3, 5, 6]	14	PAL1	0	R1035M
3767.612	4.067	1892284	PROB	4.036	n/a	-999	-999	n/a	n/a	n/a	n/a	19	[2, 8, 6]	16	PAL1	0	R1035M
3771.679	2.884	1894317	PROB	2.857	n/a	-999	-999	n/a	n/a	n/a	n/a	19	[4, 6, 1]	11	PAL1	0	R1035M
3774.563	3.167	1895759	PROB	3.133	n/a	-999	-999	n/a	n/a	n/a	n/a	19	[1, 3, 3]	7	PAL1	0	R1035M
3777.73	3.234	1897343	PROB	3.214	n/a	-999	-999	n/a	n/a	n/a	n/a	19	[5, 1, 6]	12	PAL1	0	R1035M
3780.964	3.716	1898959	PROB	3.716	n/a	-999	-999	n/a	n/a	n/a	n/a	19	[1, 9, 6]	16	PAL1	0	R1035M
3784.68	0.018	1900817	STOP	n/a	n/a	-999	-999	n/a	n/a	n/a	n/a	19	[-999, -999, -999]	-999	PAL1	0	R1035M
3784.698	0.0	1900826	MATH_END	n/a	n/a	-999	-999	n/a	n/a	n/a	n/a	19	[0, 0, 0]	-999	PAL1	0	R1035M
3784.698	0.017	1900826	TEST_START	n/a	n/a	-999	-999	n/a	n/a	n/a	n/a	19	[0, 0, 0]	-999	PAL1	0	R1035M
3784.715	0.275	1900835	TEST_ORIENT	n/a	n/a	1	1	MULE	SEAGULL	MULE	SEA	19	[0, 0, 0]	-999	PAL1	0	R1035M
3785.682	4.0	1901318	TEST_PROBE	n/a	wordpools/wordpool_EN.txt	1	1	MULE	SEAGULL	MULE	SEA	19	[0, 0, 0]	-999	PAL1	0	R1035M
3785.682	3.661	1901318	REC_START	n/a	n/a	1	-999	n/a	SEAGULL	n/a	n/a	19	[0, 0, 0]	-999	PAL1	0	R1035M
3789.343	1.356	1903149	REC_EVENT	3.661	n/a	1	1	MULE	SEAGULL	MULE	SEA	19	[0, 0, 0]	-999	PAL1	0	R1035M
3790.699	0.017	1903827	REC_END	n/a	n/a	1	-999	n/a	n/a	n/a	n/a	19	[0, 0, 0]	-999	PAL1	0	R1035M
3790.716	0.275	1903835	TEST_ORIENT	n/a	n/a	2	2	MOUTH	TAIL	PEN	MOUTH	19	[0, 0, 0]	-999	PAL1	0	R1035M
3791.583	4.0	1904269	TEST_PROBE	n/a	wordpools/wordpool_EN.txt	2	2	MOUTH	TAIL	PEN	MOUTH	19	[0, 0, 0]	-999	PAL1	0	R1035M
3791.584	2.674	1904269	REC_START	n/a	n/a	2	-999	n/a	TAIL	n/a	n/a	19	[0, 0, 0]	-999	PAL1	0	R1035M
3794.258	2.335	1905606	REC_EVENT	2.674	n/a	2	2	MOUTH	TAIL	PEN	MOUTH	19	[0, 0, 0]	-999	PAL1	0	R1035M
3796.593	0.008	1906774	REC_END	n/a	n/a	2	-999	n/a	n/a	n/a	n/a	19	[0, 0, 0]	-999	PAL1	0	R1035M
3796.601	0.275	1906778	TEST_ORIENT	n/a	n/a	5	3	JUDGE	n/a	FOX	JUDGE	19	[0, 0, 0]	-999	PAL1	0	R1035M
3797.484	4.0	1907219	TEST_PROBE	n/a	wordpools/wordpool_EN.txt	5	3	JUDGE	n/a	FOX	JUDGE	19	[0, 0, 0]	-999	PAL1	0	R1035M
3797.485	4.574	1907220	REC_START	n/a	n/a	5	-999	n/a	n/a	n/a	n/a	19	[0, 0, 0]	-999	PAL1	0	R1035M
3802.059	0.426	1909506	REC_EVENT	4.574	n/a	5	3	JUDGE	<>	FOX	JUDGE	19	[0, 0, 0]	-999	PAL1	0	R1035M
3802.485	0.017	1909719	REC_END	n/a	n/a	5	-999	n/a	n/a	n/a	n/a	19	[0, 0, 0]	-999	PAL1	0	R1035M
