onset	duration	sample	trial_type	response_time	serialpos	probepos	probe_word	resp_word	study_1	study_2	list	test	answer	experiment	session	subject
0.0	60.911	492688	SESS_START	n/a	-999	-999	n/a	n/a	n/a	n/a	-999	[0, 0, 0]	-999	PAL1	0	R1003P
60.911	1.016	523143	START	n/a	-999	-999	n/a	n/a	n/a	n/a	-1	[-999, -999, -999]	-999	PAL1	0	R1003P
61.927	6.001	523651	PROB	5975	-999	-999	n/a	n/a	n/a	n/a	-1	[4, 2, 1]	7	PAL1	0	R1003P
67.928	7.436	526652	PROB	7407	-999	-999	n/a	n/a	n/a	n/a	-1	[8, 8, 8]	24	PAL1	0	R1003P
75.364	4.517	530370	PROB	4482	-999	-999	n/a	n/a	n/a	n/a	-1	[2, 5, 3]	10	PAL1	0	R1003P
79.881	3.709	532628	PROB	3709	-999	-999	n/a	n/a	n/a	n/a	-1	[1, 9, 3]	13	PAL1	0	R1003P
83.59	79.785	534483	STOP	n/a	-999	-999	n/a	n/a	n/a	n/a	-1	[-999, -999, -999]	-999	PAL1	0	R1003P
163.375	10.441	574375	ENCODING_START	n/a	0	-999	n/a	n/a	n/a	n/a	1	[0, 0, 0]	-999	PAL1	0	R1003P
173.816	0.816	579595	STUDY_ORIENT	n/a	1	5	BALL	BADGE	BADGE	BALL	1	[0, 0, 0]	-999	PAL1	0	R1003P
174.632	5.018	580003	STUDY_PAIR	n/a	1	5	BALL	BADGE	BADGE	BALL	1	[0, 0, 0]	-999	PAL1	0	R1003P
179.65	0.834	582512	STUDY_ORIENT	n/a	2	4	SEED	PLANT	PASTE	SEED	1	[0, 0, 0]	-999	PAL1	0	R1003P
180.484	5.017	582929	STUDY_PAIR	n/a	2	4	SEED	PLANT	PASTE	SEED	1	[0, 0, 0]	-999	PAL1	0	R1003P
185.501	0.951	585438	STUDY_ORIENT	n/a	3	1	MUG	WHALE	MUG	BLOOM	1	[0, 0, 0]	-999	PAL1	0	R1003P
186.452	5.018	585913	STUDY_PAIR	n/a	3	1	MUG	WHALE	MUG	BLOOM	1	[0, 0, 0]	-999	PAL1	0	R1003P
191.47	0.834	588422	STUDY_ORIENT	n/a	4	6	FLAME	PASS	PARK	FLAME	1	[0, 0, 0]	-999	PAL1	0	R1003P
192.304	5.034	588839	STUDY_PAIR	n/a	4	6	FLAME	PASS	PARK	FLAME	1	[0, 0, 0]	-999	PAL1	0	R1003P
197.338	0.816	591356	STUDY_ORIENT	n/a	5	3	CLOCK	n/a	HEART	CLOCK	1	[0, 0, 0]	-999	PAL1	0	R1003P
198.154	5.034	591764	STUDY_PAIR	n/a	5	3	CLOCK	n/a	HEART	CLOCK	1	[0, 0, 0]	-999	PAL1	0	R1003P
203.188	0.95	594281	STUDY_ORIENT	n/a	6	2	BAT	BADGE	WHALE	BAT	1	[0, 0, 0]	-999	PAL1	0	R1003P
204.138	4.018	594756	STUDY_PAIR	n/a	6	2	BAT	BADGE	WHALE	BAT	1	[0, 0, 0]	-999	PAL1	0	R1003P
208.156	1.0	596765	START	n/a	-999	-999	n/a	n/a	n/a	n/a	1	[-999, -999, -999]	-999	PAL1	0	R1003P
209.156	0.016	597265	MATH_START	n/a	-999	-999	n/a	n/a	n/a	n/a	1	[0, 0, 0]	-999	PAL1	0	R1003P
209.172	4.068	597273	PROB	4042	-999	-999	n/a	n/a	n/a	n/a	1	[4, 3, 1]	8	PAL1	0	R1003P
213.24	3.684	599307	PROB	3654	-999	-999	n/a	n/a	n/a	n/a	1	[5, 2, 5]	12	PAL1	0	R1003P
216.924	4.101	601149	PROB	4074	-999	-999	n/a	n/a	n/a	n/a	1	[7, 4, 1]	12	PAL1	0	R1003P
221.025	4.117	603200	PROB	4093	-999	-999	n/a	n/a	n/a	n/a	1	[2, 2, 3]	7	PAL1	0	R1003P
225.142	8.464	605258	PROB	8464	-999	-999	n/a	n/a	n/a	n/a	1	[7, 7, 8]	22	PAL1	0	R1003P
233.606	0.004	609490	STOP	n/a	-999	-999	n/a	n/a	n/a	n/a	1	[-999, -999, -999]	-999	PAL1	0	R1003P
233.61	0.0	609492	MATH_END	n/a	-999	-999	n/a	n/a	n/a	n/a	1	[0, 0, 0]	-999	PAL1	0	R1003P
233.61	0.017	609492	TEST_START	n/a	-999	-999	n/a	n/a	n/a	n/a	1	[0, 0, 0]	-999	PAL1	0	R1003P
233.627	0.917	609501	TEST_ORIENT	n/a	3	1	MUG	WHALE	MUG	BLOOM	1	[0, 0, 0]	-999	PAL1	0	R1003P
234.544	0.0	609959	TEST_PROBE	n/a	3	1	MUG	WHALE	MUG	BLOOM	1	[0, 0, 0]	-999	PAL1	0	R1003P
234.544	3.638	609959	REC_START	n/a	3	-999	n/a	WHALE	n/a	n/a	1	[0, 0, 0]	-999	PAL1	0	R1003P
238.182	1.379	611778	REC_EVENT	3638	3	1	MUG	WHALE	MUG	BLOOM	1	[0, 0, 0]	-999	PAL1	0	R1003P
239.561	0.017	612468	REC_END	n/a	3	-999	n/a	n/a	n/a	n/a	1	[0, 0, 0]	-999	PAL1	0	R1003P
239.578	0.918	612476	TEST_ORIENT	n/a	6	2	BAT	BADGE	WHALE	BAT	1	[0, 0, 0]	-999	PAL1	0	R1003P
240.496	0.001	612935	TEST_PROBE	n/a	6	2	BAT	BADGE	WHALE	BAT	1	[0, 0, 0]	-999	PAL1	0	R1003P
240.497	3.108	612936	REC_START	n/a	6	-999	n/a	BADGE	n/a	n/a	1	[0, 0, 0]	-999	PAL1	0	R1003P
243.605	1.917	614489	REC_EVENT	3108	6	2	BAT	BADGE	WHALE	BAT	1	[0, 0, 0]	-999	PAL1	0	R1003P
245.522	0.007	615448	REC_END	n/a	6	-999	n/a	n/a	n/a	n/a	1	[0, 0, 0]	-999	PAL1	0	R1003P
245.529	0.984	615451	TEST_ORIENT	n/a	5	3	CLOCK	n/a	HEART	CLOCK	1	[0, 0, 0]	-999	PAL1	0	R1003P
246.513	0.001	615943	TEST_PROBE	n/a	5	3	CLOCK	n/a	HEART	CLOCK	1	[0, 0, 0]	-999	PAL1	0	R1003P
246.514	5.015	615944	REC_START	n/a	5	-999	n/a	n/a	n/a	n/a	1	[0, 0, 0]	-999	PAL1	0	R1003P
251.529	0.001	618451	REC_EVENT	5015	5	3	CLOCK	<>	HEART	CLOCK	1	[0, 0, 0]	-999	PAL1	0	R1003P
251.53	0.017	618452	REC_END	n/a	5	-999	n/a	n/a	n/a	n/a	1	[0, 0, 0]	-999	PAL1	0	R1003P
251.547	0.851	618460	TEST_ORIENT	n/a	2	4	SEED	PLANT	PASTE	SEED	1	[0, 0, 0]	-999	PAL1	0	R1003P
252.398	0.001	618886	TEST_PROBE	n/a	2	4	SEED	PLANT	PASTE	SEED	1	[0, 0, 0]	-999	PAL1	0	R1003P
252.399	0.968	618886	REC_START	n/a	2	-999	n/a	PLANT	n/a	n/a	1	[0, 0, 0]	-999	PAL1	0	R1003P
253.367	2.127	619370	REC_EVENT	968	2	4	SEED	<>	PASTE	SEED	1	[0, 0, 0]	-999	PAL1	0	R1003P
255.494	1.914	620434	REC_EVENT	3095	2	4	SEED	PLANT	PASTE	SEED	1	[0, 0, 0]	-999	PAL1	0	R1003P
257.408	0.008	621391	REC_END	n/a	2	-999	n/a	n/a	n/a	n/a	1	[0, 0, 0]	-999	PAL1	0	R1003P
257.416	0.934	621395	TEST_ORIENT	n/a	1	5	BALL	BADGE	BADGE	BALL	1	[0, 0, 0]	-999	PAL1	0	R1003P
258.35	0.0	621862	TEST_PROBE	n/a	1	5	BALL	BADGE	BADGE	BALL	1	[0, 0, 0]	-999	PAL1	0	R1003P
258.35	3.453	621862	REC_START	n/a	1	-999	n/a	BADGE	n/a	n/a	1	[0, 0, 0]	-999	PAL1	0	R1003P
261.803	1.564	623588	REC_EVENT	3453	1	5	BALL	BADGE	BADGE	BALL	1	[0, 0, 0]	-999	PAL1	0	R1003P
263.367	0.017	624370	REC_END	n/a	1	-999	n/a	n/a	n/a	n/a	1	[0, 0, 0]	-999	PAL1	0	R1003P
263.384	0.832	624379	TEST_ORIENT	n/a	4	6	FLAME	PASS	PARK	FLAME	1	[0, 0, 0]	-999	PAL1	0	R1003P
264.216	0.001	624795	TEST_PROBE	n/a	4	6	FLAME	PASS	PARK	FLAME	1	[0, 0, 0]	-999	PAL1	0	R1003P
264.217	2.947	624795	REC_START	n/a	4	-999	n/a	PASS	n/a	n/a	1	[0, 0, 0]	-999	PAL1	0	R1003P
267.164	2.062	626269	REC_EVENT	2947	4	6	FLAME	PASS	PARK	FLAME	1	[0, 0, 0]	-999	PAL1	0	R1003P
269.226	13.093	627300	REC_END	n/a	4	-999	n/a	n/a	n/a	n/a	1	[0, 0, 0]	-999	PAL1	0	R1003P
282.319	10.436	633846	ENCODING_START	n/a	0	-999	n/a	n/a	n/a	n/a	2	[0, 0, 0]	-999	PAL1	0	R1003P
292.755	1.017	639064	STUDY_ORIENT	n/a	1	3	COW	PASS	TRASH	COW	2	[0, 0, 0]	-999	PAL1	0	R1003P
293.772	5.034	639573	STUDY_PAIR	n/a	1	3	COW	PASS	TRASH	COW	2	[0, 0, 0]	-999	PAL1	0	R1003P
298.806	0.917	642090	STUDY_ORIENT	n/a	2	6	PEARL	n/a	FOAM	PEARL	2	[0, 0, 0]	-999	PAL1	0	R1003P
299.723	5.018	642548	STUDY_PAIR	n/a	2	6	PEARL	n/a	FOAM	PEARL	2	[0, 0, 0]	-999	PAL1	0	R1003P
304.741	0.9	645057	STUDY_ORIENT	n/a	3	5	GRASS	PASS	CAVE	GRASS	2	[0, 0, 0]	-999	PAL1	0	R1003P
305.641	5.034	645507	STUDY_PAIR	n/a	3	5	GRASS	PASS	CAVE	GRASS	2	[0, 0, 0]	-999	PAL1	0	R1003P
310.675	0.934	648024	STUDY_ORIENT	n/a	4	4	RICE	PLANT	RICE	LAKE	2	[0, 0, 0]	-999	PAL1	0	R1003P
311.609	5.034	648491	STUDY_PAIR	n/a	4	4	RICE	PLANT	RICE	LAKE	2	[0, 0, 0]	-999	PAL1	0	R1003P
316.643	0.835	651008	STUDY_ORIENT	n/a	5	1	CAT	TREE	TREE	CAT	2	[0, 0, 0]	-999	PAL1	0	R1003P
317.478	5.033	651426	STUDY_PAIR	n/a	5	1	CAT	TREE	TREE	CAT	2	[0, 0, 0]	-999	PAL1	0	R1003P
322.511	0.834	653942	STUDY_ORIENT	n/a	6	2	MOTH	CANE	CANE	MOTH	2	[0, 0, 0]	-999	PAL1	0	R1003P
323.345	4.002	654359	STUDY_PAIR	n/a	6	2	MOTH	CANE	CANE	MOTH	2	[0, 0, 0]	-999	PAL1	0	R1003P
327.347	0.999	656360	START	n/a	-999	-999	n/a	n/a	n/a	n/a	2	[-999, -999, -999]	-999	PAL1	0	R1003P
328.346	0.017	656860	MATH_START	n/a	-999	-999	n/a	n/a	n/a	n/a	2	[0, 0, 0]	-999	PAL1	0	R1003P
328.363	4.383	656868	PROB	4363	-999	-999	n/a	n/a	n/a	n/a	2	[2, 1, 8]	11	PAL1	0	R1003P
332.746	3.468	659060	PROB	3436	-999	-999	n/a	n/a	n/a	n/a	2	[1, 6, 2]	9	PAL1	0	R1003P
336.214	6.701	660794	PROB	6672	-999	-999	n/a	n/a	n/a	n/a	2	[3, 5, 9]	17	PAL1	0	R1003P
342.915	3.385	664144	PROB	3355	-999	-999	n/a	n/a	n/a	n/a	2	[8, 9, 1]	18	PAL1	0	R1003P
346.3	6.25	665836	PROB	6250	-999	-999	n/a	n/a	n/a	n/a	2	[6, 6, 9]	21	PAL1	0	R1003P
352.55	0.017	668961	STOP	n/a	-999	-999	n/a	n/a	n/a	n/a	2	[-999, -999, -999]	-999	PAL1	0	R1003P
352.567	0.0	668970	TEST_START	n/a	-999	-999	n/a	n/a	n/a	n/a	2	[0, 0, 0]	-999	PAL1	0	R1003P
352.567	0.016	668970	MATH_END	n/a	-999	-999	n/a	n/a	n/a	n/a	2	[0, 0, 0]	-999	PAL1	0	R1003P
352.583	0.885	668978	TEST_ORIENT	n/a	5	1	CAT	TREE	TREE	CAT	2	[0, 0, 0]	-999	PAL1	0	R1003P
353.468	0.001	669420	TEST_PROBE	n/a	5	1	CAT	TREE	TREE	CAT	2	[0, 0, 0]	-999	PAL1	0	R1003P
353.469	1.457	669421	REC_START	n/a	5	-999	n/a	TREE	n/a	n/a	2	[0, 0, 0]	-999	PAL1	0	R1003P
354.926	3.559	670149	REC_EVENT	1457	5	1	CAT	TREE	TREE	CAT	2	[0, 0, 0]	-999	PAL1	0	R1003P
358.485	0.016	671929	REC_END	n/a	5	-999	n/a	n/a	n/a	n/a	2	[0, 0, 0]	-999	PAL1	0	R1003P
358.501	0.885	671937	TEST_ORIENT	n/a	6	2	MOTH	CANE	CANE	MOTH	2	[0, 0, 0]	-999	PAL1	0	R1003P
359.386	0.0	672379	TEST_PROBE	n/a	6	2	MOTH	CANE	CANE	MOTH	2	[0, 0, 0]	-999	PAL1	0	R1003P
359.386	1.797	672379	REC_START	n/a	6	-999	n/a	CANE	n/a	n/a	2	[0, 0, 0]	-999	PAL1	0	R1003P
361.183	3.228	673278	REC_EVENT	1797	6	2	MOTH	CANE	CANE	MOTH	2	[0, 0, 0]	-999	PAL1	0	R1003P
364.411	0.009	674892	REC_END	n/a	6	-999	n/a	n/a	n/a	n/a	2	[0, 0, 0]	-999	PAL1	0	R1003P
364.42	0.866	674896	TEST_ORIENT	n/a	1	3	COW	PASS	TRASH	COW	2	[0, 0, 0]	-999	PAL1	0	R1003P
365.286	0.0	675329	TEST_PROBE	n/a	1	3	COW	PASS	TRASH	COW	2	[0, 0, 0]	-999	PAL1	0	R1003P
365.286	2.434	675329	REC_START	n/a	1	-999	n/a	PASS	n/a	n/a	2	[0, 0, 0]	-999	PAL1	0	R1003P
367.72	2.584	676546	REC_EVENT	2434	1	3	COW	PASS	TRASH	COW	2	[0, 0, 0]	-999	PAL1	0	R1003P
370.304	0.017	677838	REC_END	n/a	1	-999	n/a	n/a	n/a	n/a	2	[0, 0, 0]	-999	PAL1	0	R1003P
370.321	0.949	677847	TEST_ORIENT	n/a	4	4	RICE	PLANT	RICE	LAKE	2	[0, 0, 0]	-999	PAL1	0	R1003P
371.27	0.001	678321	TEST_PROBE	n/a	4	4	RICE	PLANT	RICE	LAKE	2	[0, 0, 0]	-999	PAL1	0	R1003P
371.271	2.008	678322	REC_START	n/a	4	-999	n/a	PLANT	n/a	n/a	2	[0, 0, 0]	-999	PAL1	0	R1003P
373.279	3.001	679326	REC_EVENT	2008	4	4	RICE	PLANT	RICE	LAKE	2	[0, 0, 0]	-999	PAL1	0	R1003P
376.28	0.008	680826	REC_END	n/a	4	-999	n/a	n/a	n/a	n/a	2	[0, 0, 0]	-999	PAL1	0	R1003P
376.288	0.867	680830	TEST_ORIENT	n/a	3	5	GRASS	PASS	CAVE	GRASS	2	[0, 0, 0]	-999	PAL1	0	R1003P
377.155	0.0	681264	TEST_PROBE	n/a	3	5	GRASS	PASS	CAVE	GRASS	2	[0, 0, 0]	-999	PAL1	0	R1003P
377.155	2.346	681264	REC_START	n/a	3	-999	n/a	PASS	n/a	n/a	2	[0, 0, 0]	-999	PAL1	0	R1003P
379.501	2.671	682437	REC_EVENT	2346	3	5	GRASS	PASS	CAVE	GRASS	2	[0, 0, 0]	-999	PAL1	0	R1003P
382.172	0.017	683772	REC_END	n/a	3	-999	n/a	n/a	n/a	n/a	2	[0, 0, 0]	-999	PAL1	0	R1003P
382.189	0.934	683781	TEST_ORIENT	n/a	2	6	PEARL	n/a	FOAM	PEARL	2	[0, 0, 0]	-999	PAL1	0	R1003P
383.123	0.0	684248	REC_START	n/a	2	-999	n/a	n/a	n/a	n/a	2	[0, 0, 0]	-999	PAL1	0	R1003P
383.123	5.015	684248	TEST_PROBE	n/a	2	6	PEARL	n/a	FOAM	PEARL	2	[0, 0, 0]	-999	PAL1	0	R1003P
388.138	0.002	686755	REC_EVENT	5015	2	6	PEARL	<>	FOAM	PEARL	2	[0, 0, 0]	-999	PAL1	0	R1003P
388.14	1.97	686756	REC_END	n/a	2	-999	n/a	n/a	n/a	n/a	2	[0, 0, 0]	-999	PAL1	0	R1003P
390.11	10.449	687741	ENCODING_START	n/a	0	-999	n/a	n/a	n/a	n/a	3	[0, 0, 0]	-999	PAL1	0	R1003P
400.559	0.851	692966	STUDY_ORIENT	n/a	1	5	OAK	TREE	HORSE	OAK	3	[0, 0, 0]	-999	PAL1	0	R1003P
401.41	5.018	693391	STUDY_PAIR	n/a	1	5	OAK	TREE	HORSE	OAK	3	[0, 0, 0]	-999	PAL1	0	R1003P
406.428	0.833	695900	STUDY_ORIENT	n/a	2	4	GLOVE	PASS	GLOVE	WING	3	[0, 0, 0]	-999	PAL1	0	R1003P
407.261	5.035	696317	STUDY_PAIR	n/a	2	4	GLOVE	PASS	GLOVE	WING	3	[0, 0, 0]	-999	PAL1	0	R1003P
412.296	0.916	698834	STUDY_ORIENT	n/a	3	1	SINK	ROOF	SINK	OWL	3	[0, 0, 0]	-999	PAL1	0	R1003P
413.212	5.034	699292	STUDY_PAIR	n/a	3	1	SINK	ROOF	SINK	OWL	3	[0, 0, 0]	-999	PAL1	0	R1003P
418.246	0.917	701809	STUDY_ORIENT	n/a	4	2	DITCH	PASS	DITCH	BLUSH	3	[0, 0, 0]	-999	PAL1	0	R1003P
419.163	5.034	702268	STUDY_PAIR	n/a	4	2	DITCH	PASS	DITCH	BLUSH	3	[0, 0, 0]	-999	PAL1	0	R1003P
424.197	0.9	704785	STUDY_ORIENT	n/a	5	3	SLEEVE	CLOTH	SLEEVE	CLOTH	3	[0, 0, 0]	-999	PAL1	0	R1003P
425.097	5.018	705235	STUDY_PAIR	n/a	5	3	SLEEVE	CLOTH	SLEEVE	CLOTH	3	[0, 0, 0]	-999	PAL1	0	R1003P
430.115	0.984	707744	STUDY_ORIENT	n/a	6	6	ROOF	BEE	BEE	ROOF	3	[0, 0, 0]	-999	PAL1	0	R1003P
431.099	4.018	708236	STUDY_PAIR	n/a	6	6	ROOF	BEE	BEE	ROOF	3	[0, 0, 0]	-999	PAL1	0	R1003P
435.117	0.999	710245	START	n/a	-999	-999	n/a	n/a	n/a	n/a	3	[-999, -999, -999]	-999	PAL1	0	R1003P
436.116	0.017	710744	MATH_START	n/a	-999	-999	n/a	n/a	n/a	n/a	3	[0, 0, 0]	-999	PAL1	0	R1003P
436.133	5.185	710753	PROB	5162	-999	-999	n/a	n/a	n/a	n/a	3	[6, 5, 6]	17	PAL1	0	R1003P
441.318	6.534	713345	PROB	6512	-999	-999	n/a	n/a	n/a	n/a	3	[7, 8, 4]	19	PAL1	0	R1003P
447.852	3.784	716612	PROB	3762	-999	-999	n/a	n/a	n/a	n/a	3	[5, 6, 5]	16	PAL1	0	R1003P
451.636	6.41	718504	PROB	6410	-999	-999	n/a	n/a	n/a	n/a	3	[3, 4, 9]	16	PAL1	0	R1003P
458.046	0.008	721709	STOP	n/a	-999	-999	n/a	n/a	n/a	n/a	3	[-999, -999, -999]	-999	PAL1	0	R1003P
458.054	0.0	721713	TEST_START	n/a	-999	-999	n/a	n/a	n/a	n/a	3	[0, 0, 0]	-999	PAL1	0	R1003P
458.054	0.016	721713	MATH_END	n/a	-999	-999	n/a	n/a	n/a	n/a	3	[0, 0, 0]	-999	PAL1	0	R1003P
458.07	0.867	721721	TEST_ORIENT	n/a	3	1	SINK	ROOF	SINK	OWL	3	[0, 0, 0]	-999	PAL1	0	R1003P
458.937	0.001	722154	TEST_PROBE	n/a	3	1	SINK	ROOF	SINK	OWL	3	[0, 0, 0]	-999	PAL1	0	R1003P
458.938	2.124	722155	REC_START	n/a	3	-999	n/a	ROOF	n/a	n/a	3	[0, 0, 0]	-999	PAL1	0	R1003P
461.062	2.886	723217	REC_EVENT	2124	3	1	SINK	ROOF	SINK	OWL	3	[0, 0, 0]	-999	PAL1	0	R1003P
463.948	0.007	724660	REC_END	n/a	3	-999	n/a	n/a	n/a	n/a	3	[0, 0, 0]	-999	PAL1	0	R1003P
463.955	0.867	724663	TEST_ORIENT	n/a	4	2	DITCH	PASS	DITCH	BLUSH	3	[0, 0, 0]	-999	PAL1	0	R1003P
464.822	0.0	725097	TEST_PROBE	n/a	4	2	DITCH	PASS	DITCH	BLUSH	3	[0, 0, 0]	-999	PAL1	0	R1003P
464.822	2.204	725097	REC_START	n/a	4	-999	n/a	PASS	n/a	n/a	3	[0, 0, 0]	-999	PAL1	0	R1003P
467.026	2.813	726199	REC_EVENT	2204	4	2	DITCH	PASS	DITCH	BLUSH	3	[0, 0, 0]	-999	PAL1	0	R1003P
469.839	0.017	727605	REC_END	n/a	4	-999	n/a	n/a	n/a	n/a	3	[0, 0, 0]	-999	PAL1	0	R1003P
469.856	1.034	727614	TEST_ORIENT	n/a	5	3	SLEEVE	CLOTH	SLEEVE	CLOTH	3	[0, 0, 0]	-999	PAL1	0	R1003P
470.89	0.0	728131	TEST_PROBE	n/a	5	3	SLEEVE	CLOTH	SLEEVE	CLOTH	3	[0, 0, 0]	-999	PAL1	0	R1003P
470.89	1.471	728131	REC_START	n/a	5	-999	n/a	CLOTH	n/a	n/a	3	[0, 0, 0]	-999	PAL1	0	R1003P
472.361	3.549	728866	REC_EVENT	1471	5	3	SLEEVE	CLOTH	SLEEVE	CLOTH	3	[0, 0, 0]	-999	PAL1	0	R1003P
475.91	0.014	730641	REC_END	n/a	5	-999	n/a	n/a	n/a	n/a	3	[0, 0, 0]	-999	PAL1	0	R1003P
475.924	0.95	730648	TEST_ORIENT	n/a	2	4	GLOVE	PASS	GLOVE	WING	3	[0, 0, 0]	-999	PAL1	0	R1003P
476.874	0.001	731123	TEST_PROBE	n/a	2	4	GLOVE	PASS	GLOVE	WING	3	[0, 0, 0]	-999	PAL1	0	R1003P
476.875	4.175	731123	REC_START	n/a	2	-999	n/a	PASS	n/a	n/a	3	[0, 0, 0]	-999	PAL1	0	R1003P
481.05	0.841	733211	REC_EVENT	4175	2	4	GLOVE	PASS	GLOVE	WING	3	[0, 0, 0]	-999	PAL1	0	R1003P
481.891	0.017	733631	REC_END	n/a	2	-999	n/a	n/a	n/a	n/a	3	[0, 0, 0]	-999	PAL1	0	R1003P
481.908	0.951	733640	TEST_ORIENT	n/a	1	5	OAK	TREE	HORSE	OAK	3	[0, 0, 0]	-999	PAL1	0	R1003P
482.859	0.0	734115	TEST_PROBE	n/a	1	5	OAK	TREE	HORSE	OAK	3	[0, 0, 0]	-999	PAL1	0	R1003P
482.859	1.557	734115	REC_START	n/a	1	-999	n/a	TREE	n/a	n/a	3	[0, 0, 0]	-999	PAL1	0	R1003P
484.416	3.46	734894	REC_EVENT	1557	1	5	OAK	TREE	HORSE	OAK	3	[0, 0, 0]	-999	PAL1	0	R1003P
487.876	0.017	736624	REC_END	n/a	1	-999	n/a	n/a	n/a	n/a	3	[0, 0, 0]	-999	PAL1	0	R1003P
487.893	0.817	736632	TEST_ORIENT	n/a	6	6	ROOF	BEE	BEE	ROOF	3	[0, 0, 0]	-999	PAL1	0	R1003P
488.71	0.0	737041	REC_START	n/a	6	-999	n/a	BEE	n/a	n/a	3	[0, 0, 0]	-999	PAL1	0	R1003P
488.71	1.291	737041	TEST_PROBE	n/a	6	6	ROOF	BEE	BEE	ROOF	3	[0, 0, 0]	-999	PAL1	0	R1003P
490.001	3.726	737686	REC_EVENT	1291	6	6	ROOF	BEE	BEE	ROOF	3	[0, 0, 0]	-999	PAL1	0	R1003P
493.727	1.919	739549	REC_END	n/a	6	-999	n/a	n/a	n/a	n/a	3	[0, 0, 0]	-999	PAL1	0	R1003P
495.646	10.45	740509	ENCODING_START	n/a	0	-999	n/a	n/a	n/a	n/a	4	[0, 0, 0]	-999	PAL1	0	R1003P
506.096	0.767	745734	STUDY_ORIENT	n/a	1	5	CLIFF	PASS	CLIFF	STAR	4	[0, 0, 0]	-999	PAL1	0	R1003P
506.863	5.018	746117	STUDY_PAIR	n/a	1	5	CLIFF	PASS	CLIFF	STAR	4	[0, 0, 0]	-999	PAL1	0	R1003P
511.881	0.967	748626	STUDY_ORIENT	n/a	2	4	COUCH	NAIL	COUCH	NAIL	4	[0, 0, 0]	-999	PAL1	0	R1003P
512.848	5.034	749110	STUDY_PAIR	n/a	2	4	COUCH	NAIL	COUCH	NAIL	4	[0, 0, 0]	-999	PAL1	0	R1003P
517.882	0.983	751627	STUDY_ORIENT	n/a	3	3	STRAW	BEE	JUDGE	STRAW	4	[0, 0, 0]	-999	PAL1	0	R1003P
518.865	5.018	752118	STUDY_PAIR	n/a	3	3	STRAW	BEE	JUDGE	STRAW	4	[0, 0, 0]	-999	PAL1	0	R1003P
523.883	0.917	754627	STUDY_ORIENT	n/a	4	2	CHIEF	STAR	CHIEF	CLOUD	4	[0, 0, 0]	-999	PAL1	0	R1003P
524.8	5.034	755086	STUDY_PAIR	n/a	4	2	CHIEF	STAR	CHIEF	CLOUD	4	[0, 0, 0]	-999	PAL1	0	R1003P
529.834	0.85	757603	STUDY_ORIENT	n/a	5	1	HOOF	SHOE	HOOF	FISH	4	[0, 0, 0]	-999	PAL1	0	R1003P
530.684	5.018	758028	STUDY_PAIR	n/a	5	1	HOOF	SHOE	HOOF	FISH	4	[0, 0, 0]	-999	PAL1	0	R1003P
535.702	0.984	760537	STUDY_ORIENT	n/a	6	6	CORN	PASS	CORN	JEEP	4	[0, 0, 0]	-999	PAL1	0	R1003P
536.686	4.018	761029	STUDY_PAIR	n/a	6	6	CORN	PASS	CORN	JEEP	4	[0, 0, 0]	-999	PAL1	0	R1003P
540.704	0.999	763038	START	n/a	-999	-999	n/a	n/a	n/a	n/a	4	[-999, -999, -999]	-999	PAL1	0	R1003P
541.703	0.017	763537	MATH_START	n/a	-999	-999	n/a	n/a	n/a	n/a	4	[0, 0, 0]	-999	PAL1	0	R1003P
541.72	9.385	763546	PROB	9366	-999	-999	n/a	n/a	n/a	n/a	4	[5, 2, 6]	13	PAL1	0	R1003P
551.105	3.567	768238	PROB	3533	-999	-999	n/a	n/a	n/a	n/a	4	[8, 6, 3]	17	PAL1	0	R1003P
554.672	6.838	770021	PROB	6838	-999	-999	n/a	n/a	n/a	n/a	4	[8, 7, 3]	18	PAL1	0	R1003P
561.51	0.014	773440	STOP	n/a	-999	-999	n/a	n/a	n/a	n/a	4	[-999, -999, -999]	-999	PAL1	0	R1003P
561.524	0.0	773447	TEST_START	n/a	-999	-999	n/a	n/a	n/a	n/a	4	[0, 0, 0]	-999	PAL1	0	R1003P
561.524	0.016	773447	MATH_END	n/a	-999	-999	n/a	n/a	n/a	n/a	4	[0, 0, 0]	-999	PAL1	0	R1003P
561.54	0.984	773455	TEST_ORIENT	n/a	5	1	HOOF	SHOE	HOOF	FISH	4	[0, 0, 0]	-999	PAL1	0	R1003P
562.524	0.0	773947	TEST_PROBE	n/a	5	1	HOOF	SHOE	HOOF	FISH	4	[0, 0, 0]	-999	PAL1	0	R1003P
562.524	2.002	773947	REC_START	n/a	5	-999	n/a	SHOE	n/a	n/a	4	[0, 0, 0]	-999	PAL1	0	R1003P
564.526	3.015	774948	REC_EVENT	2002	5	1	HOOF	SHOE	HOOF	FISH	4	[0, 0, 0]	-999	PAL1	0	R1003P
567.541	0.017	776456	REC_END	n/a	5	-999	n/a	n/a	n/a	n/a	4	[0, 0, 0]	-999	PAL1	0	R1003P
567.558	0.801	776464	TEST_ORIENT	n/a	4	2	CHIEF	STAR	CHIEF	CLOUD	4	[0, 0, 0]	-999	PAL1	0	R1003P
568.359	0.001	776865	TEST_PROBE	n/a	4	2	CHIEF	STAR	CHIEF	CLOUD	4	[0, 0, 0]	-999	PAL1	0	R1003P
568.36	1.649	776865	REC_START	n/a	4	-999	n/a	STAR	n/a	n/a	4	[0, 0, 0]	-999	PAL1	0	R1003P
570.009	3.362	777690	REC_EVENT	1649	4	2	CHIEF	STAR	CHIEF	CLOUD	4	[0, 0, 0]	-999	PAL1	0	R1003P
573.371	0.023	779371	REC_END	n/a	4	-999	n/a	n/a	n/a	n/a	4	[0, 0, 0]	-999	PAL1	0	R1003P
573.394	0.882	779382	TEST_ORIENT	n/a	3	3	STRAW	BEE	JUDGE	STRAW	4	[0, 0, 0]	-999	PAL1	0	R1003P
574.276	0.001	779823	TEST_PROBE	n/a	3	3	STRAW	BEE	JUDGE	STRAW	4	[0, 0, 0]	-999	PAL1	0	R1003P
574.277	2.95	779824	REC_START	n/a	3	-999	n/a	BEE	n/a	n/a	4	[0, 0, 0]	-999	PAL1	0	R1003P
577.227	2.06	781299	REC_EVENT	2950	3	3	STRAW	BEE	JUDGE	STRAW	4	[0, 0, 0]	-999	PAL1	0	R1003P
579.287	0.024	782329	REC_END	n/a	3	-999	n/a	n/a	n/a	n/a	4	[0, 0, 0]	-999	PAL1	0	R1003P
579.311	0.85	782341	TEST_ORIENT	n/a	2	4	COUCH	NAIL	COUCH	NAIL	4	[0, 0, 0]	-999	PAL1	0	R1003P
580.161	0.0	782766	REC_START	n/a	2	-999	n/a	NAIL	n/a	n/a	4	[0, 0, 0]	-999	PAL1	0	R1003P
580.161	1.729	782766	TEST_PROBE	n/a	2	4	COUCH	NAIL	COUCH	NAIL	4	[0, 0, 0]	-999	PAL1	0	R1003P
581.89	3.288	783630	REC_EVENT	1729	2	4	COUCH	NAIL	COUCH	NAIL	4	[0, 0, 0]	-999	PAL1	0	R1003P
585.178	0.017	785274	REC_END	n/a	2	-999	n/a	n/a	n/a	n/a	4	[0, 0, 0]	-999	PAL1	0	R1003P
585.195	0.817	785283	TEST_ORIENT	n/a	1	5	CLIFF	PASS	CLIFF	STAR	4	[0, 0, 0]	-999	PAL1	0	R1003P
586.012	0.0	785691	TEST_PROBE	n/a	1	5	CLIFF	PASS	CLIFF	STAR	4	[0, 0, 0]	-999	PAL1	0	R1003P
586.012	3.223	785691	REC_START	n/a	1	-999	n/a	PASS	n/a	n/a	4	[0, 0, 0]	-999	PAL1	0	R1003P
589.235	1.794	787303	REC_EVENT	3223	1	5	CLIFF	PASS	CLIFF	STAR	4	[0, 0, 0]	-999	PAL1	0	R1003P
591.029	0.017	788200	REC_END	n/a	1	-999	n/a	n/a	n/a	n/a	4	[0, 0, 0]	-999	PAL1	0	R1003P
591.046	0.867	788208	TEST_ORIENT	n/a	6	6	CORN	PASS	CORN	JEEP	4	[0, 0, 0]	-999	PAL1	0	R1003P
591.913	0.001	788642	TEST_PROBE	n/a	6	6	CORN	PASS	CORN	JEEP	4	[0, 0, 0]	-999	PAL1	0	R1003P
591.914	2.737	788642	REC_START	n/a	6	-999	n/a	PASS	n/a	n/a	4	[0, 0, 0]	-999	PAL1	0	R1003P
594.651	2.279	790011	REC_EVENT	2737	6	6	CORN	PASS	CORN	JEEP	4	[0, 0, 0]	-999	PAL1	0	R1003P
596.93	1.493	791150	REC_END	n/a	6	-999	n/a	n/a	n/a	n/a	4	[0, 0, 0]	-999	PAL1	0	R1003P
598.423	10.443	791897	ENCODING_START	n/a	0	-999	n/a	n/a	n/a	n/a	5	[0, 0, 0]	-999	PAL1	0	R1003P
608.866	1.017	797118	STUDY_ORIENT	n/a	1	1	CART	PASS	CART	FRUIT	5	[0, 0, 0]	-999	PAL1	0	R1003P
609.883	5.034	797627	STUDY_PAIR	n/a	1	1	CART	PASS	CART	FRUIT	5	[0, 0, 0]	-999	PAL1	0	R1003P
614.917	0.917	800144	STUDY_ORIENT	n/a	2	4	PIPE	PASS	SPEAR	PIPE	5	[0, 0, 0]	-999	PAL1	0	R1003P
615.834	5.018	800602	STUDY_PAIR	n/a	2	4	PIPE	PASS	SPEAR	PIPE	5	[0, 0, 0]	-999	PAL1	0	R1003P
620.852	0.95	803111	STUDY_ORIENT	n/a	3	3	RIB	SWORD	SWORD	RIB	5	[0, 0, 0]	-999	PAL1	0	R1003P
621.802	5.034	803586	STUDY_PAIR	n/a	3	3	RIB	SWORD	SWORD	RIB	5	[0, 0, 0]	-999	PAL1	0	R1003P
626.836	1.017	806103	STUDY_ORIENT	n/a	4	6	SMOKE	TENT	SMOKE	SEAT	5	[0, 0, 0]	-999	PAL1	0	R1003P
627.853	5.018	806612	STUDY_PAIR	n/a	4	6	SMOKE	TENT	SMOKE	SEAT	5	[0, 0, 0]	-999	PAL1	0	R1003P
632.871	0.933	809121	STUDY_ORIENT	n/a	5	5	TENT	PIPE	TENT	PRINCE	5	[0, 0, 0]	-999	PAL1	0	R1003P
633.804	5.018	809587	STUDY_PAIR	n/a	5	5	TENT	PIPE	TENT	PRINCE	5	[0, 0, 0]	-999	PAL1	0	R1003P
638.822	0.883	812096	STUDY_ORIENT	n/a	6	2	SHIELD	PASS	SHIELD	LAMP	5	[0, 0, 0]	-999	PAL1	0	R1003P
639.705	4.002	812538	STUDY_PAIR	n/a	6	2	SHIELD	PASS	SHIELD	LAMP	5	[0, 0, 0]	-999	PAL1	0	R1003P
643.707	0.999	814539	START	n/a	-999	-999	n/a	n/a	n/a	n/a	5	[-999, -999, -999]	-999	PAL1	0	R1003P
644.706	0.017	815038	MATH_START	n/a	-999	-999	n/a	n/a	n/a	n/a	5	[0, 0, 0]	-999	PAL1	0	R1003P
644.723	4.384	815047	PROB	4363	-999	-999	n/a	n/a	n/a	n/a	5	[6, 4, 3]	13	PAL1	0	R1003P
649.107	5.418	817238	PROB	5395	-999	-999	n/a	n/a	n/a	n/a	5	[9, 2, 5]	16	PAL1	0	R1003P
654.525	7.351	819947	PROB	7321	-999	-999	n/a	n/a	n/a	n/a	5	[9, 7, 9]	25	PAL1	0	R1003P
661.876	4.042	823623	PROB	4042	-999	-999	n/a	n/a	n/a	n/a	5	[4, 2, 3]	9	PAL1	0	R1003P
665.918	0.009	825644	STOP	n/a	-999	-999	n/a	n/a	n/a	n/a	5	[-999, -999, -999]	-999	PAL1	0	R1003P
665.927	0.0	825648	MATH_END	n/a	-999	-999	n/a	n/a	n/a	n/a	5	[0, 0, 0]	-999	PAL1	0	R1003P
665.927	0.017	825648	TEST_START	n/a	-999	-999	n/a	n/a	n/a	n/a	5	[0, 0, 0]	-999	PAL1	0	R1003P
665.944	0.983	825657	TEST_ORIENT	n/a	1	1	CART	PASS	CART	FRUIT	5	[0, 0, 0]	-999	PAL1	0	R1003P
666.927	0.001	826148	TEST_PROBE	n/a	1	1	CART	PASS	CART	FRUIT	5	[0, 0, 0]	-999	PAL1	0	R1003P
666.928	3.84	826149	REC_START	n/a	1	-999	n/a	PASS	n/a	n/a	5	[0, 0, 0]	-999	PAL1	0	R1003P
670.768	1.171	828069	REC_EVENT	3840	1	1	CART	PASS	CART	FRUIT	5	[0, 0, 0]	-999	PAL1	0	R1003P
671.939	0.023	828654	REC_END	n/a	1	-999	n/a	n/a	n/a	n/a	5	[0, 0, 0]	-999	PAL1	0	R1003P
671.962	0.85	828666	TEST_ORIENT	n/a	6	2	SHIELD	PASS	SHIELD	LAMP	5	[0, 0, 0]	-999	PAL1	0	R1003P
672.812	0.0	829091	REC_START	n/a	6	-999	n/a	PASS	n/a	n/a	5	[0, 0, 0]	-999	PAL1	0	R1003P
672.812	2.432	829091	TEST_PROBE	n/a	6	2	SHIELD	PASS	SHIELD	LAMP	5	[0, 0, 0]	-999	PAL1	0	R1003P
675.244	2.585	830307	REC_EVENT	2432	6	2	SHIELD	PASS	SHIELD	LAMP	5	[0, 0, 0]	-999	PAL1	0	R1003P
677.829	0.017	831599	REC_END	n/a	6	-999	n/a	n/a	n/a	n/a	5	[0, 0, 0]	-999	PAL1	0	R1003P
677.846	1.0	831608	TEST_ORIENT	n/a	3	3	RIB	SWORD	SWORD	RIB	5	[0, 0, 0]	-999	PAL1	0	R1003P
678.846	0.001	832108	TEST_PROBE	n/a	3	3	RIB	SWORD	SWORD	RIB	5	[0, 0, 0]	-999	PAL1	0	R1003P
678.847	1.431	832108	REC_START	n/a	3	-999	n/a	SWORD	n/a	n/a	5	[0, 0, 0]	-999	PAL1	0	R1003P
680.278	3.58	832824	REC_EVENT	1431	3	3	RIB	SWORD	SWORD	RIB	5	[0, 0, 0]	-999	PAL1	0	R1003P
683.858	0.023	834614	REC_END	n/a	3	-999	n/a	n/a	n/a	n/a	5	[0, 0, 0]	-999	PAL1	0	R1003P
683.881	0.85	834625	TEST_ORIENT	n/a	2	4	PIPE	PASS	SPEAR	PIPE	5	[0, 0, 0]	-999	PAL1	0	R1003P
684.731	0.001	835050	TEST_PROBE	n/a	2	4	PIPE	PASS	SPEAR	PIPE	5	[0, 0, 0]	-999	PAL1	0	R1003P
684.732	2.432	835051	REC_START	n/a	2	-999	n/a	PASS	n/a	n/a	5	[0, 0, 0]	-999	PAL1	0	R1003P
687.164	2.595	836267	REC_EVENT	2432	2	4	PIPE	PASS	SPEAR	PIPE	5	[0, 0, 0]	-999	PAL1	0	R1003P
689.759	0.023	837564	REC_END	n/a	2	-999	n/a	n/a	n/a	n/a	5	[0, 0, 0]	-999	PAL1	0	R1003P
689.782	0.95	837576	TEST_ORIENT	n/a	5	5	TENT	PIPE	TENT	PRINCE	5	[0, 0, 0]	-999	PAL1	0	R1003P
690.732	0.001	838051	TEST_PROBE	n/a	5	5	TENT	PIPE	TENT	PRINCE	5	[0, 0, 0]	-999	PAL1	0	R1003P
690.733	2.532	838051	REC_START	n/a	5	-999	n/a	PIPE	n/a	n/a	5	[0, 0, 0]	-999	PAL1	0	R1003P
693.265	2.484	839317	REC_EVENT	2532	5	5	TENT	PIPE	TENT	PRINCE	5	[0, 0, 0]	-999	PAL1	0	R1003P
695.749	0.017	840559	REC_END	n/a	5	-999	n/a	n/a	n/a	n/a	5	[0, 0, 0]	-999	PAL1	0	R1003P
695.766	0.95	840568	TEST_ORIENT	n/a	4	6	SMOKE	TENT	SMOKE	SEAT	5	[0, 0, 0]	-999	PAL1	0	R1003P
696.716	0.001	841043	TEST_PROBE	n/a	4	6	SMOKE	TENT	SMOKE	SEAT	5	[0, 0, 0]	-999	PAL1	0	R1003P
696.717	2.134	841043	REC_START	n/a	4	-999	n/a	TENT	n/a	n/a	5	[0, 0, 0]	-999	PAL1	0	R1003P
698.851	2.876	842110	REC_EVENT	2134	4	6	SMOKE	TENT	SMOKE	SEAT	5	[0, 0, 0]	-999	PAL1	0	R1003P
701.727	1.367	843548	REC_END	n/a	4	-999	n/a	n/a	n/a	n/a	5	[0, 0, 0]	-999	PAL1	0	R1003P
703.094	10.442	844232	ENCODING_START	n/a	0	-999	n/a	n/a	n/a	n/a	6	[0, 0, 0]	-999	PAL1	0	R1003P
713.536	0.851	849453	STUDY_ORIENT	n/a	1	1	FENCE	PET	FENCE	PET	6	[0, 0, 0]	-999	PAL1	0	R1003P
714.387	5.018	849878	STUDY_PAIR	n/a	1	1	FENCE	PET	FENCE	PET	6	[0, 0, 0]	-999	PAL1	0	R1003P
719.405	0.917	852387	STUDY_ORIENT	n/a	2	2	ZOO	MULE	MULE	ZOO	6	[0, 0, 0]	-999	PAL1	0	R1003P
720.322	5.034	852846	STUDY_PAIR	n/a	2	2	ZOO	MULE	MULE	ZOO	6	[0, 0, 0]	-999	PAL1	0	R1003P
725.356	1.0	855363	STUDY_ORIENT	n/a	3	3	NOSE	STORM	STORM	NOSE	6	[0, 0, 0]	-999	PAL1	0	R1003P
726.356	5.018	855863	STUDY_PAIR	n/a	3	3	NOSE	STORM	STORM	NOSE	6	[0, 0, 0]	-999	PAL1	0	R1003P
731.374	0.833	858372	STUDY_ORIENT	n/a	4	6	BOOT	PASS	BOOT	SOUP	6	[0, 0, 0]	-999	PAL1	0	R1003P
732.207	5.034	858788	STUDY_PAIR	n/a	4	6	BOOT	PASS	BOOT	SOUP	6	[0, 0, 0]	-999	PAL1	0	R1003P
737.241	0.917	861305	STUDY_ORIENT	n/a	5	5	STEAK	PASS	THREAD	STEAK	6	[0, 0, 0]	-999	PAL1	0	R1003P
738.158	5.034	861764	STUDY_PAIR	n/a	5	5	STEAK	PASS	THREAD	STEAK	6	[0, 0, 0]	-999	PAL1	0	R1003P
743.192	0.9	864281	STUDY_ORIENT	n/a	6	4	WOOD	PASS	WOOD	CHEEK	6	[0, 0, 0]	-999	PAL1	0	R1003P
744.092	4.001	864731	STUDY_PAIR	n/a	6	4	WOOD	PASS	WOOD	CHEEK	6	[0, 0, 0]	-999	PAL1	0	R1003P
748.093	1.0	866731	START	n/a	-999	-999	n/a	n/a	n/a	n/a	6	[-999, -999, -999]	-999	PAL1	0	R1003P
749.093	0.017	867231	MATH_START	n/a	-999	-999	n/a	n/a	n/a	n/a	6	[0, 0, 0]	-999	PAL1	0	R1003P
749.11	5.252	867240	PROB	5225	-999	-999	n/a	n/a	n/a	n/a	6	[6, 1, 9]	16	PAL1	0	R1003P
754.362	4.15	869865	PROB	4125	-999	-999	n/a	n/a	n/a	n/a	6	[6, 2, 9]	15	PAL1	0	R1003P
758.512	5.802	871940	PROB	5774	-999	-999	n/a	n/a	n/a	n/a	6	[6, 6, 3]	15	PAL1	0	R1003P
764.314	5.085	874841	PROB	5085	-999	-999	n/a	n/a	n/a	n/a	6	[7, 2, 6]	15	PAL1	0	R1003P
769.399	0.016	877384	STOP	n/a	-999	-999	n/a	n/a	n/a	n/a	6	[-999, -999, -999]	-999	PAL1	0	R1003P
769.415	0.0	877392	MATH_END	n/a	-999	-999	n/a	n/a	n/a	n/a	6	[0, 0, 0]	-999	PAL1	0	R1003P
769.415	0.016	877392	TEST_START	n/a	-999	-999	n/a	n/a	n/a	n/a	6	[0, 0, 0]	-999	PAL1	0	R1003P
769.431	0.816	877400	TEST_ORIENT	n/a	1	1	FENCE	PET	FENCE	PET	6	[0, 0, 0]	-999	PAL1	0	R1003P
770.247	0.001	877808	TEST_PROBE	n/a	1	1	FENCE	PET	FENCE	PET	6	[0, 0, 0]	-999	PAL1	0	R1003P
770.248	2.056	877808	REC_START	n/a	1	-999	n/a	PET	n/a	n/a	6	[0, 0, 0]	-999	PAL1	0	R1003P
772.304	2.955	878836	REC_EVENT	2056	1	1	FENCE	PET	FENCE	PET	6	[0, 0, 0]	-999	PAL1	0	R1003P
775.259	0.023	880314	REC_END	n/a	1	-999	n/a	n/a	n/a	n/a	6	[0, 0, 0]	-999	PAL1	0	R1003P
775.282	0.833	880325	TEST_ORIENT	n/a	2	2	ZOO	MULE	MULE	ZOO	6	[0, 0, 0]	-999	PAL1	0	R1003P
776.115	0.001	880742	TEST_PROBE	n/a	2	2	ZOO	MULE	MULE	ZOO	6	[0, 0, 0]	-999	PAL1	0	R1003P
776.116	0.813	880742	REC_START	n/a	2	-999	n/a	MULE	n/a	n/a	6	[0, 0, 0]	-999	PAL1	0	R1003P
776.929	4.215	881149	REC_EVENT	813	2	2	ZOO	MULE	MULE	ZOO	6	[0, 0, 0]	-999	PAL1	0	R1003P
781.144	0.022	883256	REC_END	n/a	2	-999	n/a	n/a	n/a	n/a	6	[0, 0, 0]	-999	PAL1	0	R1003P
781.166	0.934	883267	TEST_ORIENT	n/a	3	3	NOSE	STORM	STORM	NOSE	6	[0, 0, 0]	-999	PAL1	0	R1003P
782.1	0.0	883734	TEST_PROBE	n/a	3	3	NOSE	STORM	STORM	NOSE	6	[0, 0, 0]	-999	PAL1	0	R1003P
782.1	1.465	883734	REC_START	n/a	3	-999	n/a	STORM	n/a	n/a	6	[0, 0, 0]	-999	PAL1	0	R1003P
783.565	3.552	884467	REC_EVENT	1465	3	3	NOSE	STORM	STORM	NOSE	6	[0, 0, 0]	-999	PAL1	0	R1003P
787.117	0.017	886243	REC_END	n/a	3	-999	n/a	n/a	n/a	n/a	6	[0, 0, 0]	-999	PAL1	0	R1003P
787.134	0.833	886251	TEST_ORIENT	n/a	6	4	WOOD	PASS	WOOD	CHEEK	6	[0, 0, 0]	-999	PAL1	0	R1003P
787.967	0.001	886668	TEST_PROBE	n/a	6	4	WOOD	PASS	WOOD	CHEEK	6	[0, 0, 0]	-999	PAL1	0	R1003P
787.968	1.885	886668	REC_START	n/a	6	-999	n/a	PASS	n/a	n/a	6	[0, 0, 0]	-999	PAL1	0	R1003P
789.853	3.126	887611	REC_EVENT	1885	6	4	WOOD	PASS	WOOD	CHEEK	6	[0, 0, 0]	-999	PAL1	0	R1003P
792.979	0.023	889174	REC_END	n/a	6	-999	n/a	n/a	n/a	n/a	6	[0, 0, 0]	-999	PAL1	0	R1003P
793.002	0.867	889185	TEST_ORIENT	n/a	5	5	STEAK	PASS	THREAD	STEAK	6	[0, 0, 0]	-999	PAL1	0	R1003P
793.869	0.0	889619	TEST_PROBE	n/a	5	5	STEAK	PASS	THREAD	STEAK	6	[0, 0, 0]	-999	PAL1	0	R1003P
793.869	2.376	889619	REC_START	n/a	5	-999	n/a	PASS	n/a	n/a	6	[0, 0, 0]	-999	PAL1	0	R1003P
796.245	2.652	890807	REC_EVENT	2376	5	5	STEAK	PASS	THREAD	STEAK	6	[0, 0, 0]	-999	PAL1	0	R1003P
798.897	0.022	892133	REC_END	n/a	5	-999	n/a	n/a	n/a	n/a	6	[0, 0, 0]	-999	PAL1	0	R1003P
798.919	0.967	892144	TEST_ORIENT	n/a	4	6	BOOT	PASS	BOOT	SOUP	6	[0, 0, 0]	-999	PAL1	0	R1003P
799.886	0.001	892627	TEST_PROBE	n/a	4	6	BOOT	PASS	BOOT	SOUP	6	[0, 0, 0]	-999	PAL1	0	R1003P
799.887	3.261	892628	REC_START	n/a	4	-999	n/a	PASS	n/a	n/a	6	[0, 0, 0]	-999	PAL1	0	R1003P
803.148	1.75	894258	REC_EVENT	3261	4	6	BOOT	PASS	BOOT	SOUP	6	[0, 0, 0]	-999	PAL1	0	R1003P
804.898	1.421	895133	REC_END	n/a	4	-999	n/a	n/a	n/a	n/a	6	[0, 0, 0]	-999	PAL1	0	R1003P
806.319	10.437	895844	ENCODING_START	n/a	0	-999	n/a	n/a	n/a	n/a	7	[0, 0, 0]	-999	PAL1	0	R1003P
816.756	0.984	901062	STUDY_ORIENT	n/a	1	3	LAWN	PASS	SHIP	LAWN	7	[0, 0, 0]	-999	PAL1	0	R1003P
817.74	5.034	901554	STUDY_PAIR	n/a	1	3	LAWN	PASS	SHIP	LAWN	7	[0, 0, 0]	-999	PAL1	0	R1003P
822.774	0.967	904071	STUDY_ORIENT	n/a	2	6	SMILE	PASS	SMILE	PURSE	7	[0, 0, 0]	-999	PAL1	0	R1003P
823.741	5.034	904555	STUDY_PAIR	n/a	2	6	SMILE	PASS	SMILE	PURSE	7	[0, 0, 0]	-999	PAL1	0	R1003P
828.775	0.85	907072	STUDY_ORIENT	n/a	3	5	FACE	PASS	ROCK	FACE	7	[0, 0, 0]	-999	PAL1	0	R1003P
829.625	5.018	907497	STUDY_PAIR	n/a	3	5	FACE	PASS	ROCK	FACE	7	[0, 0, 0]	-999	PAL1	0	R1003P
834.643	0.9	910006	STUDY_ORIENT	n/a	4	2	MUD	BOOT	MUD	DESK	7	[0, 0, 0]	-999	PAL1	0	R1003P
835.543	5.018	910456	STUDY_PAIR	n/a	4	2	MUD	BOOT	MUD	DESK	7	[0, 0, 0]	-999	PAL1	0	R1003P
840.561	0.901	912965	STUDY_ORIENT	n/a	5	1	TOAD	MULE	TOAD	CONE	7	[0, 0, 0]	-999	PAL1	0	R1003P
841.462	5.034	913415	STUDY_PAIR	n/a	5	1	TOAD	MULE	TOAD	CONE	7	[0, 0, 0]	-999	PAL1	0	R1003P
846.496	0.901	915932	STUDY_ORIENT	n/a	6	4	FILM	PASS	GATE	FILM	7	[0, 0, 0]	-999	PAL1	0	R1003P
847.397	4.018	916383	STUDY_PAIR	n/a	6	4	FILM	PASS	GATE	FILM	7	[0, 0, 0]	-999	PAL1	0	R1003P
851.415	0.999	918392	START	n/a	-999	-999	n/a	n/a	n/a	n/a	7	[-999, -999, -999]	-999	PAL1	0	R1003P
852.414	0.017	918891	MATH_START	n/a	-999	-999	n/a	n/a	n/a	n/a	7	[0, 0, 0]	-999	PAL1	0	R1003P
852.431	3.8	918899	PROB	3767	-999	-999	n/a	n/a	n/a	n/a	7	[3, 1, 6]	10	PAL1	0	R1003P
856.231	5.085	920799	PROB	5064	-999	-999	n/a	n/a	n/a	n/a	7	[7, 8, 7]	22	PAL1	0	R1003P
861.316	6.517	923342	PROB	6490	-999	-999	n/a	n/a	n/a	n/a	7	[5, 6, 9]	20	PAL1	0	R1003P
867.833	6.997	926600	PROB	6997	-999	-999	n/a	n/a	n/a	n/a	7	[4, 8, 5]	17	PAL1	0	R1003P
874.83	0.004	930099	STOP	n/a	-999	-999	n/a	n/a	n/a	n/a	7	[-999, -999, -999]	-999	PAL1	0	R1003P
874.834	0.0	930101	MATH_END	n/a	-999	-999	n/a	n/a	n/a	n/a	7	[0, 0, 0]	-999	PAL1	0	R1003P
874.834	0.017	930101	TEST_START	n/a	-999	-999	n/a	n/a	n/a	n/a	7	[0, 0, 0]	-999	PAL1	0	R1003P
874.851	0.85	930109	TEST_ORIENT	n/a	5	1	TOAD	MULE	TOAD	CONE	7	[0, 0, 0]	-999	PAL1	0	R1003P
875.701	0.0	930534	TEST_PROBE	n/a	5	1	TOAD	MULE	TOAD	CONE	7	[0, 0, 0]	-999	PAL1	0	R1003P
875.701	2.747	930534	REC_START	n/a	5	-999	n/a	MULE	n/a	n/a	7	[0, 0, 0]	-999	PAL1	0	R1003P
878.448	2.27	931908	REC_EVENT	2747	5	1	TOAD	MULE	TOAD	CONE	7	[0, 0, 0]	-999	PAL1	0	R1003P
880.718	0.017	933043	REC_END	n/a	5	-999	n/a	n/a	n/a	n/a	7	[0, 0, 0]	-999	PAL1	0	R1003P
880.735	0.867	933051	TEST_ORIENT	n/a	4	2	MUD	BOOT	MUD	DESK	7	[0, 0, 0]	-999	PAL1	0	R1003P
881.602	0.001	933485	TEST_PROBE	n/a	4	2	MUD	BOOT	MUD	DESK	7	[0, 0, 0]	-999	PAL1	0	R1003P
881.603	1.346	933485	REC_START	n/a	4	-999	n/a	BOOT	n/a	n/a	7	[0, 0, 0]	-999	PAL1	0	R1003P
882.949	3.665	934158	REC_EVENT	1346	4	2	MUD	BOOT	MUD	DESK	7	[0, 0, 0]	-999	PAL1	0	R1003P
886.614	0.022	935991	REC_END	n/a	4	-999	n/a	n/a	n/a	n/a	7	[0, 0, 0]	-999	PAL1	0	R1003P
886.636	1.017	936002	TEST_ORIENT	n/a	1	3	LAWN	PASS	SHIP	LAWN	7	[0, 0, 0]	-999	PAL1	0	R1003P
887.653	0.001	936510	TEST_PROBE	n/a	1	3	LAWN	PASS	SHIP	LAWN	7	[0, 0, 0]	-999	PAL1	0	R1003P
887.654	1.677	936511	REC_START	n/a	1	-999	n/a	PASS	n/a	n/a	7	[0, 0, 0]	-999	PAL1	0	R1003P
889.331	3.323	937349	REC_EVENT	1677	1	3	LAWN	PASS	SHIP	LAWN	7	[0, 0, 0]	-999	PAL1	0	R1003P
892.654	0.017	939011	REC_END	n/a	1	-999	n/a	n/a	n/a	n/a	7	[0, 0, 0]	-999	PAL1	0	R1003P
892.671	1.033	939019	TEST_ORIENT	n/a	6	4	FILM	PASS	GATE	FILM	7	[0, 0, 0]	-999	PAL1	0	R1003P
893.704	0.001	939536	TEST_PROBE	n/a	6	4	FILM	PASS	GATE	FILM	7	[0, 0, 0]	-999	PAL1	0	R1003P
893.705	1.645	939536	REC_START	n/a	6	-999	n/a	PASS	n/a	n/a	7	[0, 0, 0]	-999	PAL1	0	R1003P
895.35	3.366	940359	REC_EVENT	1645	6	4	FILM	PASS	GATE	FILM	7	[0, 0, 0]	-999	PAL1	0	R1003P
898.716	0.023	942042	REC_END	n/a	6	-999	n/a	n/a	n/a	n/a	7	[0, 0, 0]	-999	PAL1	0	R1003P
898.739	0.9	942053	TEST_ORIENT	n/a	3	5	FACE	PASS	ROCK	FACE	7	[0, 0, 0]	-999	PAL1	0	R1003P
899.639	0.0	942503	TEST_PROBE	n/a	3	5	FACE	PASS	ROCK	FACE	7	[0, 0, 0]	-999	PAL1	0	R1003P
899.639	2.447	942503	REC_START	n/a	3	-999	n/a	PASS	n/a	n/a	7	[0, 0, 0]	-999	PAL1	0	R1003P
902.086	2.57	943727	REC_EVENT	2447	3	5	FACE	PASS	ROCK	FACE	7	[0, 0, 0]	-999	PAL1	0	R1003P
904.656	0.017	945012	REC_END	n/a	3	-999	n/a	n/a	n/a	n/a	7	[0, 0, 0]	-999	PAL1	0	R1003P
904.673	0.984	945020	TEST_ORIENT	n/a	2	6	SMILE	PASS	SMILE	PURSE	7	[0, 0, 0]	-999	PAL1	0	R1003P
905.657	0.0	945512	TEST_PROBE	n/a	2	6	SMILE	PASS	SMILE	PURSE	7	[0, 0, 0]	-999	PAL1	0	R1003P
905.657	2.966	945512	REC_START	n/a	2	-999	n/a	PASS	n/a	n/a	7	[0, 0, 0]	-999	PAL1	0	R1003P
908.623	2.051	946995	REC_EVENT	2966	2	6	SMILE	PASS	SMILE	PURSE	7	[0, 0, 0]	-999	PAL1	0	R1003P
910.674	1.27	948021	REC_END	n/a	2	-999	n/a	n/a	n/a	n/a	7	[0, 0, 0]	-999	PAL1	0	R1003P
911.944	10.45	948656	ENCODING_START	n/a	0	-999	n/a	n/a	n/a	n/a	8	[0, 0, 0]	-999	PAL1	0	R1003P
922.394	0.9	953881	STUDY_ORIENT	n/a	1	3	GRAPE	SALT	GRAPE	SALT	8	[0, 0, 0]	-999	PAL1	0	R1003P
923.294	5.018	954331	STUDY_PAIR	n/a	1	3	GRAPE	SALT	GRAPE	SALT	8	[0, 0, 0]	-999	PAL1	0	R1003P
928.312	0.899	956840	STUDY_ORIENT	n/a	2	6	BAND	PASS	BIRD	BAND	8	[0, 0, 0]	-999	PAL1	0	R1003P
929.211	5.018	957289	STUDY_PAIR	n/a	2	6	BAND	PASS	BIRD	BAND	8	[0, 0, 0]	-999	PAL1	0	R1003P
934.229	0.85	959798	STUDY_ORIENT	n/a	3	5	SLIME	PASS	SLIME	SPRING	8	[0, 0, 0]	-999	PAL1	0	R1003P
935.079	5.034	960223	STUDY_PAIR	n/a	3	5	SLIME	PASS	SLIME	SPRING	8	[0, 0, 0]	-999	PAL1	0	R1003P
940.113	0.851	962740	STUDY_ORIENT	n/a	4	4	MOUTH	PASS	RUG	MOUTH	8	[0, 0, 0]	-999	PAL1	0	R1003P
940.964	5.034	963166	STUDY_PAIR	n/a	4	4	MOUTH	PASS	RUG	MOUTH	8	[0, 0, 0]	-999	PAL1	0	R1003P
945.998	0.917	965683	STUDY_ORIENT	n/a	5	1	PANTS	JAR	JAR	PANTS	8	[0, 0, 0]	-999	PAL1	0	R1003P
946.915	5.034	966141	STUDY_PAIR	n/a	5	1	PANTS	JAR	JAR	PANTS	8	[0, 0, 0]	-999	PAL1	0	R1003P
951.949	0.883	968658	STUDY_ORIENT	n/a	6	2	BOMB	n/a	FAN	BOMB	8	[0, 0, 0]	-999	PAL1	0	R1003P
952.832	4.001	969100	STUDY_PAIR	n/a	6	2	BOMB	n/a	FAN	BOMB	8	[0, 0, 0]	-999	PAL1	0	R1003P
956.833	1.0	971100	START	n/a	-999	-999	n/a	n/a	n/a	n/a	8	[-999, -999, -999]	-999	PAL1	0	R1003P
957.833	0.017	971600	MATH_START	n/a	-999	-999	n/a	n/a	n/a	n/a	8	[0, 0, 0]	-999	PAL1	0	R1003P
957.85	5.735	971608	PROB	5700	-999	-999	n/a	n/a	n/a	n/a	8	[9, 8, 6]	23	PAL1	0	R1003P
963.585	3.7	974476	PROB	3669	-999	-999	n/a	n/a	n/a	n/a	8	[3, 4, 4]	11	PAL1	0	R1003P
967.285	2.684	976326	PROB	2665	-999	-999	n/a	n/a	n/a	n/a	8	[2, 5, 1]	8	PAL1	0	R1003P
969.969	3.151	977668	PROB	3125	-999	-999	n/a	n/a	n/a	n/a	8	[2, 7, 3]	12	PAL1	0	R1003P
973.12	6.327	979243	PROB	6327	-999	-999	n/a	n/a	n/a	n/a	8	[4, 7, 6]	17	PAL1	0	R1003P
979.447	0.008	982407	STOP	n/a	-999	-999	n/a	n/a	n/a	n/a	8	[-999, -999, -999]	-999	PAL1	0	R1003P
979.455	0.0	982411	MATH_END	n/a	-999	-999	n/a	n/a	n/a	n/a	8	[0, 0, 0]	-999	PAL1	0	R1003P
979.455	0.017	982411	TEST_START	n/a	-999	-999	n/a	n/a	n/a	n/a	8	[0, 0, 0]	-999	PAL1	0	R1003P
979.472	0.85	982419	TEST_ORIENT	n/a	5	1	PANTS	JAR	JAR	PANTS	8	[0, 0, 0]	-999	PAL1	0	R1003P
980.322	0.001	982844	TEST_PROBE	n/a	5	1	PANTS	JAR	JAR	PANTS	8	[0, 0, 0]	-999	PAL1	0	R1003P
980.323	2.227	982845	REC_START	n/a	5	-999	n/a	JAR	n/a	n/a	8	[0, 0, 0]	-999	PAL1	0	R1003P
982.55	2.784	983958	REC_EVENT	2227	5	1	PANTS	JAR	JAR	PANTS	8	[0, 0, 0]	-999	PAL1	0	R1003P
985.334	0.023	985350	REC_END	n/a	5	-999	n/a	n/a	n/a	n/a	8	[0, 0, 0]	-999	PAL1	0	R1003P
985.357	0.983	985362	TEST_ORIENT	n/a	6	2	BOMB	n/a	FAN	BOMB	8	[0, 0, 0]	-999	PAL1	0	R1003P
986.34	0.001	985853	TEST_PROBE	n/a	6	2	BOMB	n/a	FAN	BOMB	8	[0, 0, 0]	-999	PAL1	0	R1003P
986.341	5.015	985854	REC_START	n/a	6	-999	n/a	n/a	n/a	n/a	8	[0, 0, 0]	-999	PAL1	0	R1003P
991.356	0.001	988361	REC_EVENT	5015	6	2	BOMB	<>	FAN	BOMB	8	[0, 0, 0]	-999	PAL1	0	R1003P
991.357	0.017	988362	REC_END	n/a	6	-999	n/a	n/a	n/a	n/a	8	[0, 0, 0]	-999	PAL1	0	R1003P
991.374	0.934	988370	TEST_ORIENT	n/a	1	3	GRAPE	SALT	GRAPE	SALT	8	[0, 0, 0]	-999	PAL1	0	R1003P
992.308	0.0	988837	TEST_PROBE	n/a	1	3	GRAPE	SALT	GRAPE	SALT	8	[0, 0, 0]	-999	PAL1	0	R1003P
992.308	1.406	988837	REC_START	n/a	1	-999	n/a	SALT	n/a	n/a	8	[0, 0, 0]	-999	PAL1	0	R1003P
993.714	3.611	989540	REC_EVENT	1406	1	3	GRAPE	SALT	GRAPE	SALT	8	[0, 0, 0]	-999	PAL1	0	R1003P
997.325	0.017	991346	REC_END	n/a	1	-999	n/a	n/a	n/a	n/a	8	[0, 0, 0]	-999	PAL1	0	R1003P
997.342	0.916	991354	TEST_ORIENT	n/a	4	4	MOUTH	PASS	RUG	MOUTH	8	[0, 0, 0]	-999	PAL1	0	R1003P
998.258	0.0	991812	TEST_PROBE	n/a	4	4	MOUTH	PASS	RUG	MOUTH	8	[0, 0, 0]	-999	PAL1	0	R1003P
998.258	2.732	991812	REC_START	n/a	4	-999	n/a	PASS	n/a	n/a	8	[0, 0, 0]	-999	PAL1	0	R1003P
1000.99	2.285	993178	REC_EVENT	2732	4	4	MOUTH	PASS	RUG	MOUTH	8	[0, 0, 0]	-999	PAL1	0	R1003P
1003.275	0.018	994321	REC_END	n/a	4	-999	n/a	n/a	n/a	n/a	8	[0, 0, 0]	-999	PAL1	0	R1003P
1003.293	0.833	994330	TEST_ORIENT	n/a	3	5	SLIME	PASS	SLIME	SPRING	8	[0, 0, 0]	-999	PAL1	0	R1003P
1004.126	0.0	994746	TEST_PROBE	n/a	3	5	SLIME	PASS	SLIME	SPRING	8	[0, 0, 0]	-999	PAL1	0	R1003P
1004.126	2.498	994746	REC_START	n/a	3	-999	n/a	PASS	n/a	n/a	8	[0, 0, 0]	-999	PAL1	0	R1003P
1006.624	2.519	995995	REC_EVENT	2498	3	5	SLIME	PASS	SLIME	SPRING	8	[0, 0, 0]	-999	PAL1	0	R1003P
1009.143	0.017	997255	REC_END	n/a	3	-999	n/a	n/a	n/a	n/a	8	[0, 0, 0]	-999	PAL1	0	R1003P
1009.16	0.95	997263	TEST_ORIENT	n/a	2	6	BAND	PASS	BIRD	BAND	8	[0, 0, 0]	-999	PAL1	0	R1003P
1010.11	0.001	997738	TEST_PROBE	n/a	2	6	BAND	PASS	BIRD	BAND	8	[0, 0, 0]	-999	PAL1	0	R1003P
1010.111	2.283	997739	REC_START	n/a	2	-999	n/a	PASS	n/a	n/a	8	[0, 0, 0]	-999	PAL1	0	R1003P
1012.394	2.728	998880	REC_EVENT	2283	2	6	BAND	PASS	BIRD	BAND	8	[0, 0, 0]	-999	PAL1	0	R1003P
1015.122	1.333	1000244	REC_END	n/a	2	-999	n/a	n/a	n/a	n/a	8	[0, 0, 0]	-999	PAL1	0	R1003P
1016.455	10.442	1000911	ENCODING_START	n/a	0	-999	n/a	n/a	n/a	n/a	9	[0, 0, 0]	-999	PAL1	0	R1003P
1026.897	0.816	1006132	STUDY_ORIENT	n/a	1	5	RAT	PASS	RAT	MAIL	9	[0, 0, 0]	-999	PAL1	0	R1003P
1027.713	5.018	1006540	STUDY_PAIR	n/a	1	5	RAT	PASS	RAT	MAIL	9	[0, 0, 0]	-999	PAL1	0	R1003P
1032.731	1.017	1009049	STUDY_ORIENT	n/a	2	6	BARN	PASS	FARM	BARN	9	[0, 0, 0]	-999	PAL1	0	R1003P
1033.748	5.018	1009557	STUDY_PAIR	n/a	2	6	BARN	PASS	FARM	BARN	9	[0, 0, 0]	-999	PAL1	0	R1003P
1038.766	0.883	1012066	STUDY_ORIENT	n/a	3	3	SNOW	LEAF	SNOW	KITE	9	[0, 0, 0]	-999	PAL1	0	R1003P
1039.649	5.018	1012508	STUDY_PAIR	n/a	3	3	SNOW	LEAF	SNOW	KITE	9	[0, 0, 0]	-999	PAL1	0	R1003P
1044.667	0.883	1015017	STUDY_ORIENT	n/a	4	2	RAKE	LION	STONE	RAKE	9	[0, 0, 0]	-999	PAL1	0	R1003P
1045.55	5.018	1015458	STUDY_PAIR	n/a	4	2	RAKE	LION	STONE	RAKE	9	[0, 0, 0]	-999	PAL1	0	R1003P
1050.568	1.017	1017967	STUDY_ORIENT	n/a	5	1	MAP	PASS	CRANE	MAP	9	[0, 0, 0]	-999	PAL1	0	R1003P
1051.585	5.034	1018476	STUDY_PAIR	n/a	5	1	MAP	PASS	CRANE	MAP	9	[0, 0, 0]	-999	PAL1	0	R1003P
1056.619	0.801	1020992	STUDY_ORIENT	n/a	6	4	LAND	PASS	LAND	HORN	9	[0, 0, 0]	-999	PAL1	0	R1003P
1057.42	4.002	1021393	STUDY_PAIR	n/a	6	4	LAND	PASS	LAND	HORN	9	[0, 0, 0]	-999	PAL1	0	R1003P
1061.422	0.999	1023394	START	n/a	-999	-999	n/a	n/a	n/a	n/a	9	[-999, -999, -999]	-999	PAL1	0	R1003P
1062.421	0.017	1023893	MATH_START	n/a	-999	-999	n/a	n/a	n/a	n/a	9	[0, 0, 0]	-999	PAL1	0	R1003P
1062.438	3.583	1023902	PROB	3560	-999	-999	n/a	n/a	n/a	n/a	9	[1, 8, 8]	17	PAL1	0	R1003P
1066.021	3.418	1025693	PROB	3386	-999	-999	n/a	n/a	n/a	n/a	9	[7, 2, 7]	16	PAL1	0	R1003P
1069.439	4.217	1027402	PROB	4183	-999	-999	n/a	n/a	n/a	n/a	9	[9, 9, 1]	19	PAL1	0	R1003P
1073.656	6.802	1029511	PROB	6767	-999	-999	n/a	n/a	n/a	n/a	9	[6, 6, 8]	24	PAL1	0	R1003P
1080.458	5.492	1032912	PROB	5492	-999	-999	n/a	n/a	n/a	n/a	9	[6, 8, 6]	24	PAL1	0	R1003P
1085.95	0.008	1035658	STOP	n/a	-999	-999	n/a	n/a	n/a	n/a	9	[-999, -999, -999]	-999	PAL1	0	R1003P
1085.958	0.0	1035662	MATH_END	n/a	-999	-999	n/a	n/a	n/a	n/a	9	[0, 0, 0]	-999	PAL1	0	R1003P
1085.958	0.017	1035662	TEST_START	n/a	-999	-999	n/a	n/a	n/a	n/a	9	[0, 0, 0]	-999	PAL1	0	R1003P
1085.975	0.917	1035670	TEST_ORIENT	n/a	5	1	MAP	PASS	CRANE	MAP	9	[0, 0, 0]	-999	PAL1	0	R1003P
1086.892	0.0	1036129	TEST_PROBE	n/a	5	1	MAP	PASS	CRANE	MAP	9	[0, 0, 0]	-999	PAL1	0	R1003P
1086.892	2.475	1036129	REC_START	n/a	5	-999	n/a	PASS	n/a	n/a	9	[0, 0, 0]	-999	PAL1	0	R1003P
1089.367	2.542	1037366	REC_EVENT	2475	5	1	MAP	PASS	CRANE	MAP	9	[0, 0, 0]	-999	PAL1	0	R1003P
1091.909	0.017	1038637	REC_END	n/a	5	-999	n/a	n/a	n/a	n/a	9	[0, 0, 0]	-999	PAL1	0	R1003P
1091.926	0.9	1038646	TEST_ORIENT	n/a	4	2	RAKE	LION	STONE	RAKE	9	[0, 0, 0]	-999	PAL1	0	R1003P
1092.826	0.001	1039096	TEST_PROBE	n/a	4	2	RAKE	LION	STONE	RAKE	9	[0, 0, 0]	-999	PAL1	0	R1003P
1092.827	2.634	1039096	REC_START	n/a	4	-999	n/a	LION	n/a	n/a	9	[0, 0, 0]	-999	PAL1	0	R1003P
1095.461	2.377	1040413	REC_EVENT	2634	4	2	RAKE	LION	STONE	RAKE	9	[0, 0, 0]	-999	PAL1	0	R1003P
1097.838	0.022	1041602	REC_END	n/a	4	-999	n/a	n/a	n/a	n/a	9	[0, 0, 0]	-999	PAL1	0	R1003P
1097.86	0.934	1041613	TEST_ORIENT	n/a	3	3	SNOW	LEAF	SNOW	KITE	9	[0, 0, 0]	-999	PAL1	0	R1003P
1098.794	0.0	1042080	TEST_PROBE	n/a	3	3	SNOW	LEAF	SNOW	KITE	9	[0, 0, 0]	-999	PAL1	0	R1003P
1098.794	1.967	1042080	REC_START	n/a	3	-999	n/a	LEAF	n/a	n/a	9	[0, 0, 0]	-999	PAL1	0	R1003P
1100.761	3.05	1043063	REC_EVENT	1967	3	3	SNOW	LEAF	SNOW	KITE	9	[0, 0, 0]	-999	PAL1	0	R1003P
1103.811	0.017	1044588	REC_END	n/a	3	-999	n/a	n/a	n/a	n/a	9	[0, 0, 0]	-999	PAL1	0	R1003P
1103.828	0.967	1044597	TEST_ORIENT	n/a	6	4	LAND	PASS	LAND	HORN	9	[0, 0, 0]	-999	PAL1	0	R1003P
1104.795	0.001	1045080	TEST_PROBE	n/a	6	4	LAND	PASS	LAND	HORN	9	[0, 0, 0]	-999	PAL1	0	R1003P
1104.796	2.193	1045081	REC_START	n/a	6	-999	n/a	PASS	n/a	n/a	9	[0, 0, 0]	-999	PAL1	0	R1003P
1106.989	2.817	1046177	REC_EVENT	2193	6	4	LAND	PASS	LAND	HORN	9	[0, 0, 0]	-999	PAL1	0	R1003P
1109.806	0.023	1047586	REC_END	n/a	6	-999	n/a	n/a	n/a	n/a	9	[0, 0, 0]	-999	PAL1	0	R1003P
1109.829	1.034	1047597	TEST_ORIENT	n/a	1	5	RAT	PASS	RAT	MAIL	9	[0, 0, 0]	-999	PAL1	0	R1003P
1110.863	0.001	1048114	TEST_PROBE	n/a	1	5	RAT	PASS	RAT	MAIL	9	[0, 0, 0]	-999	PAL1	0	R1003P
1110.864	2.354	1048115	REC_START	n/a	1	-999	n/a	PASS	n/a	n/a	9	[0, 0, 0]	-999	PAL1	0	R1003P
1113.218	2.662	1049292	REC_EVENT	2354	1	5	RAT	PASS	RAT	MAIL	9	[0, 0, 0]	-999	PAL1	0	R1003P
1115.88	0.017	1050623	REC_END	n/a	1	-999	n/a	n/a	n/a	n/a	9	[0, 0, 0]	-999	PAL1	0	R1003P
1115.897	0.9	1050631	TEST_ORIENT	n/a	2	6	BARN	PASS	FARM	BARN	9	[0, 0, 0]	-999	PAL1	0	R1003P
1116.797	0.001	1051081	TEST_PROBE	n/a	2	6	BARN	PASS	FARM	BARN	9	[0, 0, 0]	-999	PAL1	0	R1003P
1116.798	2.713	1051082	REC_START	n/a	2	-999	n/a	PASS	n/a	n/a	9	[0, 0, 0]	-999	PAL1	0	R1003P
1119.511	2.297	1052438	REC_EVENT	2713	2	6	BARN	PASS	FARM	BARN	9	[0, 0, 0]	-999	PAL1	0	R1003P
1121.808	1.382	1053587	REC_END	n/a	2	-999	n/a	n/a	n/a	n/a	9	[0, 0, 0]	-999	PAL1	0	R1003P
1123.19	10.444	1054278	ENCODING_START	n/a	0	-999	n/a	n/a	n/a	n/a	10	[0, 0, 0]	-999	PAL1	0	R1003P
1133.634	0.851	1059500	STUDY_ORIENT	n/a	1	1	EGG	WHITE	WORM	EGG	10	[0, 0, 0]	-999	PAL1	0	R1003P
1134.485	5.017	1059925	STUDY_PAIR	n/a	1	1	EGG	WHITE	WORM	EGG	10	[0, 0, 0]	-999	PAL1	0	R1003P
1139.502	0.851	1062434	STUDY_ORIENT	n/a	2	6	VAN	PASS	PEACH	VAN	10	[0, 0, 0]	-999	PAL1	0	R1003P
1140.353	5.034	1062859	STUDY_PAIR	n/a	2	6	VAN	PASS	PEACH	VAN	10	[0, 0, 0]	-999	PAL1	0	R1003P
1145.387	0.816	1065376	STUDY_ORIENT	n/a	3	3	STOOL	CHAIR	STOOL	CHAIR	10	[0, 0, 0]	-999	PAL1	0	R1003P
1146.203	5.018	1065784	STUDY_PAIR	n/a	3	3	STOOL	CHAIR	STOOL	CHAIR	10	[0, 0, 0]	-999	PAL1	0	R1003P
1151.221	0.8	1068293	STUDY_ORIENT	n/a	4	4	BED	SHEET	BED	FLOOR	10	[0, 0, 0]	-999	PAL1	0	R1003P
1152.021	5.034	1068693	STUDY_PAIR	n/a	4	4	BED	SHEET	BED	FLOOR	10	[0, 0, 0]	-999	PAL1	0	R1003P
1157.055	0.8	1071210	STUDY_ORIENT	n/a	5	5	CHIN	STOOL	CHIN	SPOON	10	[0, 0, 0]	-999	PAL1	0	R1003P
1157.855	5.018	1071610	STUDY_PAIR	n/a	5	5	CHIN	STOOL	CHIN	SPOON	10	[0, 0, 0]	-999	PAL1	0	R1003P
1162.873	0.8	1074119	STUDY_ORIENT	n/a	6	2	SHEET	DRESS	DRESS	SHEET	10	[0, 0, 0]	-999	PAL1	0	R1003P
1163.673	4.001	1074519	STUDY_PAIR	n/a	6	2	SHEET	DRESS	DRESS	SHEET	10	[0, 0, 0]	-999	PAL1	0	R1003P
1167.674	1.0	1076519	START	n/a	-999	-999	n/a	n/a	n/a	n/a	10	[-999, -999, -999]	-999	PAL1	0	R1003P
1168.674	0.017	1077019	MATH_START	n/a	-999	-999	n/a	n/a	n/a	n/a	10	[0, 0, 0]	-999	PAL1	0	R1003P
1168.691	4.451	1077028	PROB	4427	-999	-999	n/a	n/a	n/a	n/a	10	[3, 3, 7]	13	PAL1	0	R1003P
1173.142	3.984	1079253	PROB	3952	-999	-999	n/a	n/a	n/a	n/a	10	[6, 3, 6]	15	PAL1	0	R1003P
1177.126	3.185	1081245	PROB	3152	-999	-999	n/a	n/a	n/a	n/a	10	[3, 2, 8]	13	PAL1	0	R1003P
1180.311	3.95	1082838	PROB	3919	-999	-999	n/a	n/a	n/a	n/a	10	[7, 4, 6]	17	PAL1	0	R1003P
1184.261	4.433	1084813	PROB	4433	-999	-999	n/a	n/a	n/a	n/a	10	[2, 2, 5]	9	PAL1	0	R1003P
1188.694	0.017	1087029	STOP	n/a	-999	-999	n/a	n/a	n/a	n/a	10	[-999, -999, -999]	-999	PAL1	0	R1003P
1188.711	0.0	1087038	MATH_END	n/a	-999	-999	n/a	n/a	n/a	n/a	10	[0, 0, 0]	-999	PAL1	0	R1003P
1188.711	0.017	1087038	TEST_START	n/a	-999	-999	n/a	n/a	n/a	n/a	10	[0, 0, 0]	-999	PAL1	0	R1003P
1188.728	0.9	1087046	TEST_ORIENT	n/a	1	1	EGG	WHITE	WORM	EGG	10	[0, 0, 0]	-999	PAL1	0	R1003P
1189.628	0.001	1087496	TEST_PROBE	n/a	1	1	EGG	WHITE	WORM	EGG	10	[0, 0, 0]	-999	PAL1	0	R1003P
1189.629	2.538	1087497	REC_START	n/a	1	-999	n/a	WHITE	n/a	n/a	10	[0, 0, 0]	-999	PAL1	0	R1003P
1192.167	2.472	1088766	REC_EVENT	2538	1	1	EGG	WHITE	WORM	EGG	10	[0, 0, 0]	-999	PAL1	0	R1003P
1194.639	0.023	1090002	REC_END	n/a	1	-999	n/a	n/a	n/a	n/a	10	[0, 0, 0]	-999	PAL1	0	R1003P
1194.662	0.802	1090013	TEST_ORIENT	n/a	6	2	SHEET	DRESS	DRESS	SHEET	10	[0, 0, 0]	-999	PAL1	0	R1003P
1195.464	0.0	1090414	TEST_PROBE	n/a	6	2	SHEET	DRESS	DRESS	SHEET	10	[0, 0, 0]	-999	PAL1	0	R1003P
1195.464	1.649	1090414	REC_START	n/a	6	-999	n/a	DRESS	n/a	n/a	10	[0, 0, 0]	-999	PAL1	0	R1003P
1197.113	3.368	1091239	REC_EVENT	1649	6	2	SHEET	DRESS	DRESS	SHEET	10	[0, 0, 0]	-999	PAL1	0	R1003P
1200.481	0.017	1092923	REC_END	n/a	6	-999	n/a	n/a	n/a	n/a	10	[0, 0, 0]	-999	PAL1	0	R1003P
1200.498	0.85	1092931	TEST_ORIENT	n/a	3	3	STOOL	CHAIR	STOOL	CHAIR	10	[0, 0, 0]	-999	PAL1	0	R1003P
1201.348	0.001	1093356	TEST_PROBE	n/a	3	3	STOOL	CHAIR	STOOL	CHAIR	10	[0, 0, 0]	-999	PAL1	0	R1003P
1201.349	1.933	1093357	REC_START	n/a	3	-999	n/a	CHAIR	n/a	n/a	10	[0, 0, 0]	-999	PAL1	0	R1003P
1203.282	3.077	1094323	REC_EVENT	1933	3	3	STOOL	CHAIR	STOOL	CHAIR	10	[0, 0, 0]	-999	PAL1	0	R1003P
1206.359	0.023	1095862	REC_END	n/a	3	-999	n/a	n/a	n/a	n/a	10	[0, 0, 0]	-999	PAL1	0	R1003P
1206.382	0.984	1095873	TEST_ORIENT	n/a	4	4	BED	SHEET	BED	FLOOR	10	[0, 0, 0]	-999	PAL1	0	R1003P
1207.366	0.001	1096365	TEST_PROBE	n/a	4	4	BED	SHEET	BED	FLOOR	10	[0, 0, 0]	-999	PAL1	0	R1003P
1207.367	3.417	1096366	REC_START	n/a	4	-999	n/a	SHEET	n/a	n/a	10	[0, 0, 0]	-999	PAL1	0	R1003P
1210.784	1.599	1098074	REC_EVENT	3417	4	4	BED	SHEET	BED	FLOOR	10	[0, 0, 0]	-999	PAL1	0	R1003P
1212.383	0.017	1098874	REC_END	n/a	4	-999	n/a	n/a	n/a	n/a	10	[0, 0, 0]	-999	PAL1	0	R1003P
1212.4	0.984	1098882	TEST_ORIENT	n/a	5	5	CHIN	STOOL	CHIN	SPOON	10	[0, 0, 0]	-999	PAL1	0	R1003P
1213.384	0.0	1099374	TEST_PROBE	n/a	5	5	CHIN	STOOL	CHIN	SPOON	10	[0, 0, 0]	-999	PAL1	0	R1003P
1213.384	1.691	1099374	REC_START	n/a	5	-999	n/a	STOOL	n/a	n/a	10	[0, 0, 0]	-999	PAL1	0	R1003P
1215.075	3.326	1100220	REC_EVENT	1691	5	5	CHIN	STOOL	CHIN	SPOON	10	[0, 0, 0]	-999	PAL1	0	R1003P
1218.401	0.017	1101883	REC_END	n/a	5	-999	n/a	n/a	n/a	n/a	10	[0, 0, 0]	-999	PAL1	0	R1003P
1218.418	1.0	1101891	TEST_ORIENT	n/a	2	6	VAN	PASS	PEACH	VAN	10	[0, 0, 0]	-999	PAL1	0	R1003P
1219.418	0.001	1102391	TEST_PROBE	n/a	2	6	VAN	PASS	PEACH	VAN	10	[0, 0, 0]	-999	PAL1	0	R1003P
1219.419	1.678	1102392	REC_START	n/a	2	-999	n/a	PASS	n/a	n/a	10	[0, 0, 0]	-999	PAL1	0	R1003P
1221.097	3.333	1103231	REC_EVENT	1678	2	6	VAN	PASS	PEACH	VAN	10	[0, 0, 0]	-999	PAL1	0	R1003P
1224.43	1.496	1104897	REC_END	n/a	2	-999	n/a	n/a	n/a	n/a	10	[0, 0, 0]	-999	PAL1	0	R1003P
1225.926	10.446	1105645	ENCODING_START	n/a	0	-999	n/a	n/a	n/a	n/a	11	[0, 0, 0]	-999	PAL1	0	R1003P
1236.372	0.865	1110868	STUDY_ORIENT	n/a	1	1	SKI	DOG	DOG	SKI	11	[0, 0, 0]	-999	PAL1	0	R1003P
1237.237	5.018	1111301	STUDY_PAIR	n/a	1	1	SKI	DOG	DOG	SKI	11	[0, 0, 0]	-999	PAL1	0	R1003P
1242.255	0.817	1113810	STUDY_ORIENT	n/a	2	4	FORK	SLED	FORK	STREET	11	[0, 0, 0]	-999	PAL1	0	R1003P
1243.072	5.034	1114218	STUDY_PAIR	n/a	2	4	FORK	SLED	FORK	STREET	11	[0, 0, 0]	-999	PAL1	0	R1003P
1248.106	0.817	1116735	STUDY_ORIENT	n/a	3	5	CAR	SHED	SLUSH	CAR	11	[0, 0, 0]	-999	PAL1	0	R1003P
1248.923	5.034	1117144	STUDY_PAIR	n/a	3	5	CAR	SHED	SLUSH	CAR	11	[0, 0, 0]	-999	PAL1	0	R1003P
1253.957	0.834	1119661	STUDY_ORIENT	n/a	4	2	SOCK	HOSE	SOCK	HOSE	11	[0, 0, 0]	-999	PAL1	0	R1003P
1254.791	5.034	1120078	STUDY_PAIR	n/a	4	2	SOCK	HOSE	SOCK	HOSE	11	[0, 0, 0]	-999	PAL1	0	R1003P
1259.825	0.984	1122594	STUDY_ORIENT	n/a	5	3	ARK	ARK	TEETH	ARK	11	[0, 0, 0]	-999	PAL1	0	R1003P
1260.809	5.034	1123086	STUDY_PAIR	n/a	5	3	ARK	ARK	TEETH	ARK	11	[0, 0, 0]	-999	PAL1	0	R1003P
1265.843	0.783	1125603	STUDY_ORIENT	n/a	6	6	LEG	HOSE	LEG	RAIN	11	[0, 0, 0]	-999	PAL1	0	R1003P
1266.626	4.001	1125995	STUDY_PAIR	n/a	6	6	LEG	HOSE	LEG	RAIN	11	[0, 0, 0]	-999	PAL1	0	R1003P
1270.627	1.0	1127995	START	n/a	-999	-999	n/a	n/a	n/a	n/a	11	[-999, -999, -999]	-999	PAL1	0	R1003P
1271.627	0.017	1128495	MATH_START	n/a	-999	-999	n/a	n/a	n/a	n/a	11	[0, 0, 0]	-999	PAL1	0	R1003P
1271.644	3.685	1128504	PROB	3651	-999	-999	n/a	n/a	n/a	n/a	11	[2, 7, 1]	10	PAL1	0	R1003P
1275.329	2.85	1130346	PROB	2829	-999	-999	n/a	n/a	n/a	n/a	11	[4, 2, 3]	9	PAL1	0	R1003P
1278.179	5.185	1131771	PROB	5156	-999	-999	n/a	n/a	n/a	n/a	11	[7, 6, 9]	22	PAL1	0	R1003P
1283.364	4.051	1134364	PROB	4027	-999	-999	n/a	n/a	n/a	n/a	11	[2, 6, 8]	16	PAL1	0	R1003P
1287.415	3.888	1136389	PROB	3888	-999	-999	n/a	n/a	n/a	n/a	11	[4, 1, 5]	10	PAL1	0	R1003P
1291.303	0.012	1138333	STOP	n/a	-999	-999	n/a	n/a	n/a	n/a	11	[-999, -999, -999]	-999	PAL1	0	R1003P
1291.315	0.0	1138339	MATH_END	n/a	-999	-999	n/a	n/a	n/a	n/a	11	[0, 0, 0]	-999	PAL1	0	R1003P
1291.315	0.017	1138339	TEST_START	n/a	-999	-999	n/a	n/a	n/a	n/a	11	[0, 0, 0]	-999	PAL1	0	R1003P
1291.332	1.034	1138348	TEST_ORIENT	n/a	1	1	SKI	DOG	DOG	SKI	11	[0, 0, 0]	-999	PAL1	0	R1003P
1292.366	0.0	1138865	TEST_PROBE	n/a	1	1	SKI	DOG	DOG	SKI	11	[0, 0, 0]	-999	PAL1	0	R1003P
1292.366	1.325	1138865	REC_START	n/a	1	-999	n/a	DOG	n/a	n/a	11	[0, 0, 0]	-999	PAL1	0	R1003P
1293.691	3.692	1139527	REC_EVENT	1325	1	1	SKI	DOG	DOG	SKI	11	[0, 0, 0]	-999	PAL1	0	R1003P
1297.383	0.017	1141373	REC_END	n/a	1	-999	n/a	n/a	n/a	n/a	11	[0, 0, 0]	-999	PAL1	0	R1003P
1297.4	0.95	1141382	TEST_ORIENT	n/a	4	2	SOCK	HOSE	SOCK	HOSE	11	[0, 0, 0]	-999	PAL1	0	R1003P
1298.35	0.001	1141857	TEST_PROBE	n/a	4	2	SOCK	HOSE	SOCK	HOSE	11	[0, 0, 0]	-999	PAL1	0	R1003P
1298.351	1.119	1141857	REC_START	n/a	4	-999	n/a	HOSE	n/a	n/a	11	[0, 0, 0]	-999	PAL1	0	R1003P
1299.47	3.891	1142417	REC_EVENT	1119	4	2	SOCK	HOSE	SOCK	HOSE	11	[0, 0, 0]	-999	PAL1	0	R1003P
1303.361	0.023	1144362	REC_END	n/a	4	-999	n/a	n/a	n/a	n/a	11	[0, 0, 0]	-999	PAL1	0	R1003P
1303.384	0.984	1144374	TEST_ORIENT	n/a	5	3	ARK	ARK	TEETH	ARK	11	[0, 0, 0]	-999	PAL1	0	R1003P
1304.368	0.0	1144866	TEST_PROBE	n/a	5	3	ARK	ARK	TEETH	ARK	11	[0, 0, 0]	-999	PAL1	0	R1003P
1304.368	1.677	1144866	REC_START	n/a	5	-999	n/a	ARK	n/a	n/a	11	[0, 0, 0]	-999	PAL1	0	R1003P
1306.045	3.34	1145704	REC_EVENT	1677	5	3	ARK	ARK	TEETH	ARK	11	[0, 0, 0]	-999	PAL1	0	R1003P
1309.385	0.017	1147374	REC_END	n/a	5	-999	n/a	n/a	n/a	n/a	11	[0, 0, 0]	-999	PAL1	0	R1003P
1309.402	0.833	1147383	TEST_ORIENT	n/a	2	4	FORK	SLED	FORK	STREET	11	[0, 0, 0]	-999	PAL1	0	R1003P
1310.235	0.0	1147799	TEST_PROBE	n/a	2	4	FORK	SLED	FORK	STREET	11	[0, 0, 0]	-999	PAL1	0	R1003P
1310.235	1.71	1147799	REC_START	n/a	2	-999	n/a	SLED	n/a	n/a	11	[0, 0, 0]	-999	PAL1	0	R1003P
1311.945	3.307	1148654	REC_EVENT	1710	2	4	FORK	SLED	FORK	STREET	11	[0, 0, 0]	-999	PAL1	0	R1003P
1315.252	0.017	1150308	REC_END	n/a	2	-999	n/a	n/a	n/a	n/a	11	[0, 0, 0]	-999	PAL1	0	R1003P
1315.269	0.95	1150316	TEST_ORIENT	n/a	3	5	CAR	SHED	SLUSH	CAR	11	[0, 0, 0]	-999	PAL1	0	R1003P
1316.219	0.001	1150791	TEST_PROBE	n/a	3	5	CAR	SHED	SLUSH	CAR	11	[0, 0, 0]	-999	PAL1	0	R1003P
1316.22	2.557	1150792	REC_START	n/a	3	-999	n/a	SHED	n/a	n/a	11	[0, 0, 0]	-999	PAL1	0	R1003P
1318.777	2.453	1152070	REC_EVENT	2557	3	5	CAR	SHED	SLUSH	CAR	11	[0, 0, 0]	-999	PAL1	0	R1003P
1321.23	0.024	1153297	REC_END	n/a	3	-999	n/a	n/a	n/a	n/a	11	[0, 0, 0]	-999	PAL1	0	R1003P
1321.254	0.866	1153309	TEST_ORIENT	n/a	6	6	LEG	HOSE	LEG	RAIN	11	[0, 0, 0]	-999	PAL1	0	R1003P
1322.12	0.001	1153742	TEST_PROBE	n/a	6	6	LEG	HOSE	LEG	RAIN	11	[0, 0, 0]	-999	PAL1	0	R1003P
1322.121	1.582	1153742	REC_START	n/a	6	-999	n/a	HOSE	n/a	n/a	11	[0, 0, 0]	-999	PAL1	0	R1003P
1323.703	3.428	1154533	REC_EVENT	1582	6	6	LEG	HOSE	LEG	RAIN	11	[0, 0, 0]	-999	PAL1	0	R1003P
1327.131	1.172	1156247	REC_END	n/a	6	-999	n/a	n/a	n/a	n/a	11	[0, 0, 0]	-999	PAL1	0	R1003P
1328.303	10.437	1156833	ENCODING_START	n/a	0	-999	n/a	n/a	n/a	n/a	12	[0, 0, 0]	-999	PAL1	0	R1003P
1338.74	0.951	1162052	STUDY_ORIENT	n/a	1	3	OAR	SLED	OAR	CROWN	12	[0, 0, 0]	-999	PAL1	0	R1003P
1339.691	5.034	1162527	STUDY_PAIR	n/a	1	3	OAR	SLED	OAR	CROWN	12	[0, 0, 0]	-999	PAL1	0	R1003P
1344.725	0.917	1165044	STUDY_ORIENT	n/a	2	6	BOY	LIP	BOY	LIP	12	[0, 0, 0]	-999	PAL1	0	R1003P
1345.642	5.034	1165503	STUDY_PAIR	n/a	2	6	BOY	LIP	BOY	LIP	12	[0, 0, 0]	-999	PAL1	0	R1003P
1350.676	0.95	1168020	STUDY_ORIENT	n/a	3	1	ELF	POLE	ELF	POLE	12	[0, 0, 0]	-999	PAL1	0	R1003P
1351.626	5.018	1168495	STUDY_PAIR	n/a	3	1	ELF	POLE	ELF	POLE	12	[0, 0, 0]	-999	PAL1	0	R1003P
1356.644	0.851	1171004	STUDY_ORIENT	n/a	4	2	ROAD	PASS	COIN	ROAD	12	[0, 0, 0]	-999	PAL1	0	R1003P
1357.495	5.033	1171429	STUDY_PAIR	n/a	4	2	ROAD	PASS	COIN	ROAD	12	[0, 0, 0]	-999	PAL1	0	R1003P
1362.528	0.801	1173945	STUDY_ORIENT	n/a	5	5	TRAY	SPOON	WEED	TRAY	12	[0, 0, 0]	-999	PAL1	0	R1003P
1363.329	5.018	1174346	STUDY_PAIR	n/a	5	5	TRAY	SPOON	WEED	TRAY	12	[0, 0, 0]	-999	PAL1	0	R1003P
1368.347	0.916	1176855	STUDY_ORIENT	n/a	6	4	PIE	PASS	SNAIL	PIE	12	[0, 0, 0]	-999	PAL1	0	R1003P
1369.263	4.018	1177313	STUDY_PAIR	n/a	6	4	PIE	PASS	SNAIL	PIE	12	[0, 0, 0]	-999	PAL1	0	R1003P
1373.281	0.999	1179322	START	n/a	-999	-999	n/a	n/a	n/a	n/a	12	[-999, -999, -999]	-999	PAL1	0	R1003P
1374.28	0.018	1179821	MATH_START	n/a	-999	-999	n/a	n/a	n/a	n/a	12	[0, 0, 0]	-999	PAL1	0	R1003P
1374.298	5.75	1179830	PROB	5724	-999	-999	n/a	n/a	n/a	n/a	12	[8, 2, 3]	13	PAL1	0	R1003P
1380.048	3.567	1182705	PROB	3542	-999	-999	n/a	n/a	n/a	n/a	12	[2, 1, 5]	8	PAL1	0	R1003P
1383.615	5.952	1184489	PROB	5919	-999	-999	n/a	n/a	n/a	n/a	12	[6, 7, 2]	15	PAL1	0	R1003P
1389.567	5.84	1187465	PROB	5840	-999	-999	n/a	n/a	n/a	n/a	12	[9, 6, 1]	16	PAL1	0	R1003P
1395.407	0.012	1190385	STOP	n/a	-999	-999	n/a	n/a	n/a	n/a	12	[-999, -999, -999]	-999	PAL1	0	R1003P
1395.419	0.0	1190391	MATH_END	n/a	-999	-999	n/a	n/a	n/a	n/a	12	[0, 0, 0]	-999	PAL1	0	R1003P
1395.419	0.017	1190391	TEST_START	n/a	-999	-999	n/a	n/a	n/a	n/a	12	[0, 0, 0]	-999	PAL1	0	R1003P
1395.436	0.966	1190399	TEST_ORIENT	n/a	3	1	ELF	POLE	ELF	POLE	12	[0, 0, 0]	-999	PAL1	0	R1003P
1396.402	0.001	1190882	TEST_PROBE	n/a	3	1	ELF	POLE	ELF	POLE	12	[0, 0, 0]	-999	PAL1	0	R1003P
1396.403	1.166	1190883	REC_START	n/a	3	-999	n/a	POLE	n/a	n/a	12	[0, 0, 0]	-999	PAL1	0	R1003P
1397.569	3.844	1191466	REC_EVENT	1166	3	1	ELF	POLE	ELF	POLE	12	[0, 0, 0]	-999	PAL1	0	R1003P
1401.413	0.024	1193388	REC_END	n/a	3	-999	n/a	n/a	n/a	n/a	12	[0, 0, 0]	-999	PAL1	0	R1003P
1401.437	0.816	1193400	TEST_ORIENT	n/a	4	2	ROAD	PASS	COIN	ROAD	12	[0, 0, 0]	-999	PAL1	0	R1003P
1402.253	0.0	1193808	TEST_PROBE	n/a	4	2	ROAD	PASS	COIN	ROAD	12	[0, 0, 0]	-999	PAL1	0	R1003P
1402.253	3.951	1193808	REC_START	n/a	4	-999	n/a	PASS	n/a	n/a	12	[0, 0, 0]	-999	PAL1	0	R1003P
1406.204	1.066	1195783	REC_EVENT	3951	4	2	ROAD	PASS	COIN	ROAD	12	[0, 0, 0]	-999	PAL1	0	R1003P
1407.27	0.017	1196316	REC_END	n/a	4	-999	n/a	n/a	n/a	n/a	12	[0, 0, 0]	-999	PAL1	0	R1003P
1407.287	0.9	1196325	TEST_ORIENT	n/a	1	3	OAR	SLED	OAR	CROWN	12	[0, 0, 0]	-999	PAL1	0	R1003P
1408.187	0.001	1196775	TEST_PROBE	n/a	1	3	OAR	SLED	OAR	CROWN	12	[0, 0, 0]	-999	PAL1	0	R1003P
1408.188	2.012	1196775	REC_START	n/a	1	-999	n/a	SLED	n/a	n/a	12	[0, 0, 0]	-999	PAL1	0	R1003P
1410.2	3.015	1197781	REC_EVENT	2012	1	3	OAR	SLED	OAR	CROWN	12	[0, 0, 0]	-999	PAL1	0	R1003P
1413.215	0.023	1199289	REC_END	n/a	1	-999	n/a	n/a	n/a	n/a	12	[0, 0, 0]	-999	PAL1	0	R1003P
1413.238	0.85	1199300	TEST_ORIENT	n/a	6	4	PIE	PASS	SNAIL	PIE	12	[0, 0, 0]	-999	PAL1	0	R1003P
1414.088	0.001	1199725	TEST_PROBE	n/a	6	4	PIE	PASS	SNAIL	PIE	12	[0, 0, 0]	-999	PAL1	0	R1003P
1414.089	1.697	1199726	REC_START	n/a	6	-999	n/a	PASS	n/a	n/a	12	[0, 0, 0]	-999	PAL1	0	R1003P
1415.786	3.303	1200574	REC_EVENT	1697	6	4	PIE	PASS	SNAIL	PIE	12	[0, 0, 0]	-999	PAL1	0	R1003P
1419.089	0.017	1202226	REC_END	n/a	6	-999	n/a	n/a	n/a	n/a	12	[0, 0, 0]	-999	PAL1	0	R1003P
1419.106	0.783	1202234	TEST_ORIENT	n/a	5	5	TRAY	SPOON	WEED	TRAY	12	[0, 0, 0]	-999	PAL1	0	R1003P
1419.889	0.001	1202626	TEST_PROBE	n/a	5	5	TRAY	SPOON	WEED	TRAY	12	[0, 0, 0]	-999	PAL1	0	R1003P
1419.89	1.415	1202626	REC_START	n/a	5	-999	n/a	SPOON	n/a	n/a	12	[0, 0, 0]	-999	PAL1	0	R1003P
1421.305	3.596	1203334	REC_EVENT	1415	5	5	TRAY	SPOON	WEED	TRAY	12	[0, 0, 0]	-999	PAL1	0	R1003P
1424.901	0.023	1205132	REC_END	n/a	5	-999	n/a	n/a	n/a	n/a	12	[0, 0, 0]	-999	PAL1	0	R1003P
1424.924	0.933	1205143	TEST_ORIENT	n/a	2	6	BOY	LIP	BOY	LIP	12	[0, 0, 0]	-999	PAL1	0	R1003P
1425.857	0.001	1205610	TEST_PROBE	n/a	2	6	BOY	LIP	BOY	LIP	12	[0, 0, 0]	-999	PAL1	0	R1003P
1425.858	0.997	1205610	REC_START	n/a	2	-999	n/a	LIP	n/a	n/a	12	[0, 0, 0]	-999	PAL1	0	R1003P
1426.855	4.03	1206109	REC_EVENT	997	2	6	BOY	LIP	BOY	LIP	12	[0, 0, 0]	-999	PAL1	0	R1003P
1430.885	1.49	1208124	REC_END	n/a	2	-999	n/a	n/a	n/a	n/a	12	[0, 0, 0]	-999	PAL1	0	R1003P
1432.375	10.452	1208869	ENCODING_START	n/a	0	-999	n/a	n/a	n/a	n/a	13	[0, 0, 0]	-999	PAL1	0	R1003P
1442.827	0.817	1214095	STUDY_ORIENT	n/a	1	3	THUMB	NAIL	THUMB	BATH	13	[0, 0, 0]	-999	PAL1	0	R1003P
1443.644	5.034	1214503	STUDY_PAIR	n/a	1	3	THUMB	NAIL	THUMB	BATH	13	[0, 0, 0]	-999	PAL1	0	R1003P
1448.678	0.884	1217020	STUDY_ORIENT	n/a	2	4	EEL	MOOSE	MOOSE	EEL	13	[0, 0, 0]	-999	PAL1	0	R1003P
1449.562	5.034	1217462	STUDY_PAIR	n/a	2	4	EEL	MOOSE	MOOSE	EEL	13	[0, 0, 0]	-999	PAL1	0	R1003P
1454.596	0.95	1219979	STUDY_ORIENT	n/a	3	5	LAMB	PASS	PEAR	LAMB	13	[0, 0, 0]	-999	PAL1	0	R1003P
1455.546	5.018	1220454	STUDY_PAIR	n/a	3	5	LAMB	PASS	PEAR	LAMB	13	[0, 0, 0]	-999	PAL1	0	R1003P
1460.564	0.95	1222963	STUDY_ORIENT	n/a	4	2	POND	SWIM	HILL	POND	13	[0, 0, 0]	-999	PAL1	0	R1003P
1461.514	5.034	1223438	STUDY_PAIR	n/a	4	2	POND	SWIM	HILL	POND	13	[0, 0, 0]	-999	PAL1	0	R1003P
1466.548	0.901	1225955	STUDY_ORIENT	n/a	5	1	POOL	VASE	POOL	VASE	13	[0, 0, 0]	-999	PAL1	0	R1003P
1467.449	5.018	1226405	STUDY_PAIR	n/a	5	1	POOL	VASE	POOL	VASE	13	[0, 0, 0]	-999	PAL1	0	R1003P
1472.467	0.884	1228914	STUDY_ORIENT	n/a	6	6	CORD	PASS	CORD	SHEEP	13	[0, 0, 0]	-999	PAL1	0	R1003P
1473.351	4.017	1229356	STUDY_PAIR	n/a	6	6	CORD	PASS	CORD	SHEEP	13	[0, 0, 0]	-999	PAL1	0	R1003P
1477.368	1.0	1231365	START	n/a	-999	-999	n/a	n/a	n/a	n/a	13	[-999, -999, -999]	-999	PAL1	0	R1003P
1478.368	0.017	1231865	MATH_START	n/a	-999	-999	n/a	n/a	n/a	n/a	13	[0, 0, 0]	-999	PAL1	0	R1003P
1478.385	3.017	1231873	PROB	2990	-999	-999	n/a	n/a	n/a	n/a	13	[5, 5, 2]	12	PAL1	0	R1003P
1481.402	3.383	1233382	PROB	3364	-999	-999	n/a	n/a	n/a	n/a	13	[5, 6, 4]	15	PAL1	0	R1003P
1484.785	2.934	1235073	PROB	2901	-999	-999	n/a	n/a	n/a	n/a	13	[5, 9, 1]	15	PAL1	0	R1003P
1487.719	7.268	1236540	PROB	7239	-999	-999	n/a	n/a	n/a	n/a	13	[5, 8, 9]	22	PAL1	0	R1003P
1494.987	2.651	1240174	PROB	2651	-999	-999	n/a	n/a	n/a	n/a	13	[4, 1, 1]	6	PAL1	0	R1003P
1497.638	0.016	1241500	STOP	n/a	-999	-999	n/a	n/a	n/a	n/a	13	[-999, -999, -999]	-999	PAL1	0	R1003P
1497.654	0.0	1241508	MATH_END	n/a	-999	-999	n/a	n/a	n/a	n/a	13	[0, 0, 0]	-999	PAL1	0	R1003P
1497.654	0.017	1241508	TEST_START	n/a	-999	-999	n/a	n/a	n/a	n/a	13	[0, 0, 0]	-999	PAL1	0	R1003P
1497.671	0.917	1241516	TEST_ORIENT	n/a	5	1	POOL	VASE	POOL	VASE	13	[0, 0, 0]	-999	PAL1	0	R1003P
1498.588	0.0	1241975	TEST_PROBE	n/a	5	1	POOL	VASE	POOL	VASE	13	[0, 0, 0]	-999	PAL1	0	R1003P
1498.588	2.048	1241975	REC_START	n/a	5	-999	n/a	VASE	n/a	n/a	13	[0, 0, 0]	-999	PAL1	0	R1003P
1500.636	2.969	1242999	REC_EVENT	2048	5	1	POOL	VASE	POOL	VASE	13	[0, 0, 0]	-999	PAL1	0	R1003P
1503.605	0.017	1244483	REC_END	n/a	5	-999	n/a	n/a	n/a	n/a	13	[0, 0, 0]	-999	PAL1	0	R1003P
1503.622	0.934	1244492	TEST_ORIENT	n/a	4	2	POND	SWIM	HILL	POND	13	[0, 0, 0]	-999	PAL1	0	R1003P
1504.556	0.0	1244959	TEST_PROBE	n/a	4	2	POND	SWIM	HILL	POND	13	[0, 0, 0]	-999	PAL1	0	R1003P
1504.556	1.16	1244959	REC_START	n/a	4	-999	n/a	SWIM	n/a	n/a	13	[0, 0, 0]	-999	PAL1	0	R1003P
1505.716	3.867	1245539	REC_EVENT	1160	4	2	POND	SWIM	HILL	POND	13	[0, 0, 0]	-999	PAL1	0	R1003P
1509.583	0.024	1247472	REC_END	n/a	4	-999	n/a	n/a	n/a	n/a	13	[0, 0, 0]	-999	PAL1	0	R1003P
1509.607	0.966	1247484	TEST_ORIENT	n/a	1	3	THUMB	NAIL	THUMB	BATH	13	[0, 0, 0]	-999	PAL1	0	R1003P
1510.573	0.001	1247967	TEST_PROBE	n/a	1	3	THUMB	NAIL	THUMB	BATH	13	[0, 0, 0]	-999	PAL1	0	R1003P
1510.574	2.056	1247968	REC_START	n/a	1	-999	n/a	NAIL	n/a	n/a	13	[0, 0, 0]	-999	PAL1	0	R1003P
1512.63	2.955	1248996	REC_EVENT	2056	1	3	THUMB	NAIL	THUMB	BATH	13	[0, 0, 0]	-999	PAL1	0	R1003P
1515.585	0.023	1250473	REC_END	n/a	1	-999	n/a	n/a	n/a	n/a	13	[0, 0, 0]	-999	PAL1	0	R1003P
1515.608	1.033	1250485	TEST_ORIENT	n/a	2	4	EEL	MOOSE	MOOSE	EEL	13	[0, 0, 0]	-999	PAL1	0	R1003P
1516.641	0.001	1251001	TEST_PROBE	n/a	2	4	EEL	MOOSE	MOOSE	EEL	13	[0, 0, 0]	-999	PAL1	0	R1003P
1516.642	1.664	1251002	REC_START	n/a	2	-999	n/a	MOOSE	n/a	n/a	13	[0, 0, 0]	-999	PAL1	0	R1003P
1518.306	0.32	1251834	REC_EVENT	1664	2	4	EEL	<>	MOOSE	EEL	13	[0, 0, 0]	-999	PAL1	0	R1003P
1518.626	3.027	1251994	REC_EVENT	1984	2	4	EEL	MOOSE	MOOSE	EEL	13	[0, 0, 0]	-999	PAL1	0	R1003P
1521.653	0.023	1253507	REC_END	n/a	2	-999	n/a	n/a	n/a	n/a	13	[0, 0, 0]	-999	PAL1	0	R1003P
1521.676	0.85	1253519	TEST_ORIENT	n/a	3	5	LAMB	PASS	PEAR	LAMB	13	[0, 0, 0]	-999	PAL1	0	R1003P
1522.526	0.0	1253944	REC_START	n/a	3	-999	n/a	PASS	n/a	n/a	13	[0, 0, 0]	-999	PAL1	0	R1003P
1522.526	2.0	1253944	TEST_PROBE	n/a	3	5	LAMB	PASS	PEAR	LAMB	13	[0, 0, 0]	-999	PAL1	0	R1003P
1524.526	3.017	1254944	REC_EVENT	2000	3	5	LAMB	PASS	PEAR	LAMB	13	[0, 0, 0]	-999	PAL1	0	R1003P
1527.543	0.017	1256452	REC_END	n/a	3	-999	n/a	n/a	n/a	n/a	13	[0, 0, 0]	-999	PAL1	0	R1003P
1527.56	1.0	1256461	TEST_ORIENT	n/a	6	6	CORD	PASS	CORD	SHEEP	13	[0, 0, 0]	-999	PAL1	0	R1003P
1528.56	0.001	1256961	TEST_PROBE	n/a	6	6	CORD	PASS	CORD	SHEEP	13	[0, 0, 0]	-999	PAL1	0	R1003P
1528.561	1.667	1256961	REC_START	n/a	6	-999	n/a	PASS	n/a	n/a	13	[0, 0, 0]	-999	PAL1	0	R1003P
1530.228	3.344	1257795	REC_EVENT	1667	6	6	CORD	PASS	CORD	SHEEP	13	[0, 0, 0]	-999	PAL1	0	R1003P
1533.572	4.962	1259467	REC_END	n/a	6	-999	n/a	n/a	n/a	n/a	13	[0, 0, 0]	-999	PAL1	0	R1003P
1538.534	10.463	1261948	ENCODING_START	n/a	0	-999	n/a	n/a	n/a	n/a	14	[0, 0, 0]	-999	PAL1	0	R1003P
1548.997	0.867	1267179	STUDY_ORIENT	n/a	1	1	CUBE	BEE	BOARD	CUBE	14	[0, 0, 0]	-999	PAL1	0	R1003P
1549.864	5.018	1267613	STUDY_PAIR	n/a	1	1	CUBE	BEE	BOARD	CUBE	14	[0, 0, 0]	-999	PAL1	0	R1003P
1554.882	0.95	1270122	STUDY_ORIENT	n/a	2	4	ROOT	PLANT	ROOT	DOCK	14	[0, 0, 0]	-999	PAL1	0	R1003P
1555.832	5.018	1270597	STUDY_PAIR	n/a	2	4	ROOT	PLANT	ROOT	DOCK	14	[0, 0, 0]	-999	PAL1	0	R1003P
1560.85	0.8	1273106	STUDY_ORIENT	n/a	3	5	CUP	PASS	CUP	PLANE	14	[0, 0, 0]	-999	PAL1	0	R1003P
1561.65	5.034	1273506	STUDY_PAIR	n/a	3	5	CUP	PASS	CUP	PLANE	14	[0, 0, 0]	-999	PAL1	0	R1003P
1566.684	0.917	1276022	STUDY_ORIENT	n/a	4	6	BOAT	PASS	TRUCK	BOAT	14	[0, 0, 0]	-999	PAL1	0	R1003P
1567.601	5.018	1276481	STUDY_PAIR	n/a	4	6	BOAT	PASS	TRUCK	BOAT	14	[0, 0, 0]	-999	PAL1	0	R1003P
1572.619	0.851	1278990	STUDY_ORIENT	n/a	5	3	CASH	PASS	BRUSH	CASH	14	[0, 0, 0]	-999	PAL1	0	R1003P
1573.47	5.033	1279415	STUDY_PAIR	n/a	5	3	CASH	PASS	BRUSH	CASH	14	[0, 0, 0]	-999	PAL1	0	R1003P
1578.503	0.968	1281932	STUDY_ORIENT	n/a	6	2	BRANCH	PLANT	PHONE	BRANCH	14	[0, 0, 0]	-999	PAL1	0	R1003P
1579.471	4.018	1282416	STUDY_PAIR	n/a	6	2	BRANCH	PLANT	PHONE	BRANCH	14	[0, 0, 0]	-999	PAL1	0	R1003P
1583.489	0.999	1284425	START	n/a	-999	-999	n/a	n/a	n/a	n/a	14	[-999, -999, -999]	-999	PAL1	0	R1003P
1584.488	0.016	1284924	MATH_START	n/a	-999	-999	n/a	n/a	n/a	n/a	14	[0, 0, 0]	-999	PAL1	0	R1003P
1584.504	7.002	1284932	PROB	6983	-999	-999	n/a	n/a	n/a	n/a	14	[6, 5, 7]	18	PAL1	0	R1003P
1591.506	4.534	1288433	PROB	4500	-999	-999	n/a	n/a	n/a	n/a	14	[5, 6, 3]	14	PAL1	0	R1003P
1596.04	4.184	1290700	PROB	4150	-999	-999	n/a	n/a	n/a	n/a	14	[2, 7, 6]	15	PAL1	0	R1003P
1600.224	4.79	1292792	PROB	4790	-999	-999	n/a	n/a	n/a	n/a	14	[4, 9, 2]	15	PAL1	0	R1003P
1605.014	0.011	1295187	STOP	n/a	-999	-999	n/a	n/a	n/a	n/a	14	[-999, -999, -999]	-999	PAL1	0	R1003P
1605.025	0.0	1295193	MATH_END	n/a	-999	-999	n/a	n/a	n/a	n/a	14	[0, 0, 0]	-999	PAL1	0	R1003P
1605.025	0.017	1295193	TEST_START	n/a	-999	-999	n/a	n/a	n/a	n/a	14	[0, 0, 0]	-999	PAL1	0	R1003P
1605.042	0.967	1295201	TEST_ORIENT	n/a	1	1	CUBE	BEE	BOARD	CUBE	14	[0, 0, 0]	-999	PAL1	0	R1003P
1606.009	0.0	1295685	TEST_PROBE	n/a	1	1	CUBE	BEE	BOARD	CUBE	14	[0, 0, 0]	-999	PAL1	0	R1003P
1606.009	1.611	1295685	REC_START	n/a	1	-999	n/a	BEE	n/a	n/a	14	[0, 0, 0]	-999	PAL1	0	R1003P
1607.62	3.406	1296490	REC_EVENT	1611	1	1	CUBE	BEE	BOARD	CUBE	14	[0, 0, 0]	-999	PAL1	0	R1003P
1611.026	0.017	1298193	REC_END	n/a	1	-999	n/a	n/a	n/a	n/a	14	[0, 0, 0]	-999	PAL1	0	R1003P
1611.043	0.917	1298202	TEST_ORIENT	n/a	6	2	BRANCH	PLANT	PHONE	BRANCH	14	[0, 0, 0]	-999	PAL1	0	R1003P
1611.96	0.0	1298660	TEST_PROBE	n/a	6	2	BRANCH	PLANT	PHONE	BRANCH	14	[0, 0, 0]	-999	PAL1	0	R1003P
1611.96	1.863	1298660	REC_START	n/a	6	-999	n/a	PLANT	n/a	n/a	14	[0, 0, 0]	-999	PAL1	0	R1003P
1613.823	3.154	1299592	REC_EVENT	1863	6	2	BRANCH	PLANT	PHONE	BRANCH	14	[0, 0, 0]	-999	PAL1	0	R1003P
1616.977	0.017	1301169	REC_END	n/a	6	-999	n/a	n/a	n/a	n/a	14	[0, 0, 0]	-999	PAL1	0	R1003P
1616.994	1.034	1301177	TEST_ORIENT	n/a	5	3	CASH	PASS	BRUSH	CASH	14	[0, 0, 0]	-999	PAL1	0	R1003P
1618.028	0.0	1301694	REC_START	n/a	5	-999	n/a	PASS	n/a	n/a	14	[0, 0, 0]	-999	PAL1	0	R1003P
1618.028	3.057	1301694	TEST_PROBE	n/a	5	3	CASH	PASS	BRUSH	CASH	14	[0, 0, 0]	-999	PAL1	0	R1003P
1621.085	1.977	1303223	REC_EVENT	3057	5	3	CASH	PASS	BRUSH	CASH	14	[0, 0, 0]	-999	PAL1	0	R1003P
1623.062	0.017	1304211	REC_END	n/a	5	-999	n/a	n/a	n/a	n/a	14	[0, 0, 0]	-999	PAL1	0	R1003P
1623.079	0.983	1304220	TEST_ORIENT	n/a	2	4	ROOT	PLANT	ROOT	DOCK	14	[0, 0, 0]	-999	PAL1	0	R1003P
1624.062	0.001	1304711	TEST_PROBE	n/a	2	4	ROOT	PLANT	ROOT	DOCK	14	[0, 0, 0]	-999	PAL1	0	R1003P
1624.063	2.138	1304712	REC_START	n/a	2	-999	n/a	PLANT	n/a	n/a	14	[0, 0, 0]	-999	PAL1	0	R1003P
1626.201	2.878	1305781	REC_EVENT	2138	2	4	ROOT	PLANT	ROOT	DOCK	14	[0, 0, 0]	-999	PAL1	0	R1003P
1629.079	0.017	1307220	REC_END	n/a	2	-999	n/a	n/a	n/a	n/a	14	[0, 0, 0]	-999	PAL1	0	R1003P
1629.096	0.834	1307228	TEST_ORIENT	n/a	3	5	CUP	PASS	CUP	PLANE	14	[0, 0, 0]	-999	PAL1	0	R1003P
1629.93	0.0	1307645	REC_START	n/a	3	-999	n/a	PASS	n/a	n/a	14	[0, 0, 0]	-999	PAL1	0	R1003P
1629.93	2.278	1307645	TEST_PROBE	n/a	3	5	CUP	PASS	CUP	PLANE	14	[0, 0, 0]	-999	PAL1	0	R1003P
1632.208	2.739	1308784	REC_EVENT	2278	3	5	CUP	PASS	CUP	PLANE	14	[0, 0, 0]	-999	PAL1	0	R1003P
1634.947	0.017	1310154	REC_END	n/a	3	-999	n/a	n/a	n/a	n/a	14	[0, 0, 0]	-999	PAL1	0	R1003P
1634.964	0.934	1310162	TEST_ORIENT	n/a	4	6	BOAT	PASS	TRUCK	BOAT	14	[0, 0, 0]	-999	PAL1	0	R1003P
1635.898	0.0	1310629	TEST_PROBE	n/a	4	6	BOAT	PASS	TRUCK	BOAT	14	[0, 0, 0]	-999	PAL1	0	R1003P
1635.898	1.715	1310629	REC_START	n/a	4	-999	n/a	PASS	n/a	n/a	14	[0, 0, 0]	-999	PAL1	0	R1003P
1637.613	3.302	1311487	REC_EVENT	1715	4	6	BOAT	PASS	TRUCK	BOAT	14	[0, 0, 0]	-999	PAL1	0	R1003P
1640.915	1.42	1313138	REC_END	n/a	4	-999	n/a	n/a	n/a	n/a	14	[0, 0, 0]	-999	PAL1	0	R1003P
1642.335	10.449	1313848	ENCODING_START	n/a	0	-999	n/a	n/a	n/a	n/a	15	[0, 0, 0]	-999	PAL1	0	R1003P
1652.784	0.8	1319072	STUDY_ORIENT	n/a	1	1	WORLD	BRICK	WORLD	FROG	15	[0, 0, 0]	-999	PAL1	0	R1003P
1653.584	5.018	1319472	STUDY_PAIR	n/a	1	1	WORLD	BRICK	WORLD	FROG	15	[0, 0, 0]	-999	PAL1	0	R1003P
1658.602	0.885	1321981	STUDY_ORIENT	n/a	2	2	LOCK	FROG	JUICE	LOCK	15	[0, 0, 0]	-999	PAL1	0	R1003P
1659.487	5.033	1322424	STUDY_PAIR	n/a	2	2	LOCK	FROG	JUICE	LOCK	15	[0, 0, 0]	-999	PAL1	0	R1003P
1664.52	0.851	1324940	STUDY_ORIENT	n/a	3	5	BRICK	TRICK	DUCK	BRICK	15	[0, 0, 0]	-999	PAL1	0	R1003P
1665.371	5.034	1325366	STUDY_PAIR	n/a	3	5	BRICK	TRICK	DUCK	BRICK	15	[0, 0, 0]	-999	PAL1	0	R1003P
1670.405	0.95	1327882	STUDY_ORIENT	n/a	4	6	AXE	WAND	BEACH	AXE	15	[0, 0, 0]	-999	PAL1	0	R1003P
1671.355	5.018	1328357	STUDY_PAIR	n/a	4	6	AXE	WAND	BEACH	AXE	15	[0, 0, 0]	-999	PAL1	0	R1003P
1676.373	0.816	1330866	STUDY_ORIENT	n/a	5	3	PLATE	PASS	PLATE	WALL	15	[0, 0, 0]	-999	PAL1	0	R1003P
1677.189	5.034	1331274	STUDY_PAIR	n/a	5	3	PLATE	PASS	PLATE	WALL	15	[0, 0, 0]	-999	PAL1	0	R1003P
1682.223	0.85	1333791	STUDY_ORIENT	n/a	6	4	WAND	PASS	CHALK	WAND	15	[0, 0, 0]	-999	PAL1	0	R1003P
1683.073	4.001	1334216	STUDY_PAIR	n/a	6	4	WAND	PASS	CHALK	WAND	15	[0, 0, 0]	-999	PAL1	0	R1003P
1687.074	1.0	1336217	START	n/a	-999	-999	n/a	n/a	n/a	n/a	15	[-999, -999, -999]	-999	PAL1	0	R1003P
1688.074	0.017	1336717	MATH_START	n/a	-999	-999	n/a	n/a	n/a	n/a	15	[0, 0, 0]	-999	PAL1	0	R1003P
1688.091	2.351	1336725	PROB	2332	-999	-999	n/a	n/a	n/a	n/a	15	[5, 1, 1]	7	PAL1	0	R1003P
1690.442	2.8	1337901	PROB	2772	-999	-999	n/a	n/a	n/a	n/a	15	[1, 2, 3]	6	PAL1	0	R1003P
1693.242	3.252	1339301	PROB	3229	-999	-999	n/a	n/a	n/a	n/a	15	[7, 2, 7]	16	PAL1	0	R1003P
1696.494	3.533	1340927	PROB	3512	-999	-999	n/a	n/a	n/a	n/a	15	[4, 4, 8]	16	PAL1	0	R1003P
1700.027	4.251	1342693	PROB	4219	-999	-999	n/a	n/a	n/a	n/a	15	[3, 2, 7]	12	PAL1	0	R1003P
1704.278	5.432	1344819	PROB	5432	-999	-999	n/a	n/a	n/a	n/a	15	[6, 9, 9]	23	PAL1	0	R1003P
1709.71	0.002	1347535	STOP	n/a	-999	-999	n/a	n/a	n/a	n/a	15	[-999, -999, -999]	-999	PAL1	0	R1003P
1709.712	0.0	1347536	MATH_END	n/a	-999	-999	n/a	n/a	n/a	n/a	15	[0, 0, 0]	-999	PAL1	0	R1003P
1709.712	0.016	1347536	TEST_START	n/a	-999	-999	n/a	n/a	n/a	n/a	15	[0, 0, 0]	-999	PAL1	0	R1003P
1709.728	1.034	1347544	TEST_ORIENT	n/a	1	1	WORLD	BRICK	WORLD	FROG	15	[0, 0, 0]	-999	PAL1	0	R1003P
1710.762	0.0	1348061	TEST_PROBE	n/a	1	1	WORLD	BRICK	WORLD	FROG	15	[0, 0, 0]	-999	PAL1	0	R1003P
1710.762	2.302	1348061	REC_START	n/a	1	-999	n/a	BRICK	n/a	n/a	15	[0, 0, 0]	-999	PAL1	0	R1003P
1713.064	2.727	1349212	REC_EVENT	2302	1	1	WORLD	BRICK	WORLD	FROG	15	[0, 0, 0]	-999	PAL1	0	R1003P
1715.791	0.022	1350575	REC_END	n/a	1	-999	n/a	n/a	n/a	n/a	15	[0, 0, 0]	-999	PAL1	0	R1003P
1715.813	0.884	1350586	TEST_ORIENT	n/a	2	2	LOCK	FROG	JUICE	LOCK	15	[0, 0, 0]	-999	PAL1	0	R1003P
1716.697	0.0	1351028	TEST_PROBE	n/a	2	2	LOCK	FROG	JUICE	LOCK	15	[0, 0, 0]	-999	PAL1	0	R1003P
1716.697	2.815	1351028	REC_START	n/a	2	-999	n/a	FROG	n/a	n/a	15	[0, 0, 0]	-999	PAL1	0	R1003P
1719.512	2.202	1352436	REC_EVENT	2815	2	2	LOCK	FROG	JUICE	LOCK	15	[0, 0, 0]	-999	PAL1	0	R1003P
1721.714	0.017	1353537	REC_END	n/a	2	-999	n/a	n/a	n/a	n/a	15	[0, 0, 0]	-999	PAL1	0	R1003P
1721.731	0.967	1353545	TEST_ORIENT	n/a	5	3	PLATE	PASS	PLATE	WALL	15	[0, 0, 0]	-999	PAL1	0	R1003P
1722.698	0.0	1354029	REC_START	n/a	5	-999	n/a	PASS	n/a	n/a	15	[0, 0, 0]	-999	PAL1	0	R1003P
1722.698	2.581	1354029	TEST_PROBE	n/a	5	3	PLATE	PASS	PLATE	WALL	15	[0, 0, 0]	-999	PAL1	0	R1003P
1725.279	2.436	1355319	REC_EVENT	2581	5	3	PLATE	PASS	PLATE	WALL	15	[0, 0, 0]	-999	PAL1	0	R1003P
1727.715	0.017	1356537	REC_END	n/a	5	-999	n/a	n/a	n/a	n/a	15	[0, 0, 0]	-999	PAL1	0	R1003P
1727.732	0.967	1356546	TEST_ORIENT	n/a	6	4	WAND	PASS	CHALK	WAND	15	[0, 0, 0]	-999	PAL1	0	R1003P
1728.699	0.0	1357029	TEST_PROBE	n/a	6	4	WAND	PASS	CHALK	WAND	15	[0, 0, 0]	-999	PAL1	0	R1003P
1728.699	3.301	1357029	REC_START	n/a	6	-999	n/a	PASS	n/a	n/a	15	[0, 0, 0]	-999	PAL1	0	R1003P
1732.0	1.716	1358680	REC_EVENT	3301	6	4	WAND	PASS	CHALK	WAND	15	[0, 0, 0]	-999	PAL1	0	R1003P
1733.716	0.017	1359538	REC_END	n/a	6	-999	n/a	n/a	n/a	n/a	15	[0, 0, 0]	-999	PAL1	0	R1003P
1733.733	0.967	1359546	TEST_ORIENT	n/a	3	5	BRICK	TRICK	DUCK	BRICK	15	[0, 0, 0]	-999	PAL1	0	R1003P
1734.7	0.001	1360030	TEST_PROBE	n/a	3	5	BRICK	TRICK	DUCK	BRICK	15	[0, 0, 0]	-999	PAL1	0	R1003P
1734.701	3.385	1360030	REC_START	n/a	3	-999	n/a	TRICK	n/a	n/a	15	[0, 0, 0]	-999	PAL1	0	R1003P
1738.086	1.631	1361723	REC_EVENT	3385	3	5	BRICK	TRICK	DUCK	BRICK	15	[0, 0, 0]	-999	PAL1	0	R1003P
1739.717	0.017	1362538	REC_END	n/a	3	-999	n/a	n/a	n/a	n/a	15	[0, 0, 0]	-999	PAL1	0	R1003P
1739.734	0.884	1362547	TEST_ORIENT	n/a	4	6	AXE	WAND	BEACH	AXE	15	[0, 0, 0]	-999	PAL1	0	R1003P
1740.618	0.001	1362989	TEST_PROBE	n/a	4	6	AXE	WAND	BEACH	AXE	15	[0, 0, 0]	-999	PAL1	0	R1003P
1740.619	1.456	1362989	REC_START	n/a	4	-999	n/a	WAND	n/a	n/a	15	[0, 0, 0]	-999	PAL1	0	R1003P
1742.075	3.56	1363717	REC_EVENT	1456	4	6	AXE	WAND	BEACH	AXE	15	[0, 0, 0]	-999	PAL1	0	R1003P
1745.635	1.531	1365497	REC_END	n/a	4	-999	n/a	n/a	n/a	n/a	15	[0, 0, 0]	-999	PAL1	0	R1003P
1747.166	10.438	1366263	ENCODING_START	n/a	0	-999	n/a	n/a	n/a	n/a	16	[0, 0, 0]	-999	PAL1	0	R1003P
1757.604	0.818	1371482	STUDY_ORIENT	n/a	1	3	WHEEL	MOLE	WHEEL	MOLE	16	[0, 0, 0]	-999	PAL1	0	R1003P
1758.422	5.018	1371891	STUDY_PAIR	n/a	1	3	WHEEL	MOLE	WHEEL	MOLE	16	[0, 0, 0]	-999	PAL1	0	R1003P
1763.44	1.034	1374400	STUDY_ORIENT	n/a	2	4	FLUTE	MULE	FLUTE	SHOE	16	[0, 0, 0]	-999	PAL1	0	R1003P
1764.474	5.033	1374917	STUDY_PAIR	n/a	2	4	FLUTE	MULE	FLUTE	SHOE	16	[0, 0, 0]	-999	PAL1	0	R1003P
1769.507	0.801	1377433	STUDY_ORIENT	n/a	3	1	MILK	COOKIE	MOON	MILK	16	[0, 0, 0]	-999	PAL1	0	R1003P
1770.308	5.034	1377833	STUDY_PAIR	n/a	3	1	MILK	COOKIE	MOON	MILK	16	[0, 0, 0]	-999	PAL1	0	R1003P
1775.342	1.017	1380350	STUDY_ORIENT	n/a	4	2	STRING	PASS	STRING	STOVE	16	[0, 0, 0]	-999	PAL1	0	R1003P
1776.359	5.034	1380859	STUDY_PAIR	n/a	4	2	STRING	PASS	STRING	STOVE	16	[0, 0, 0]	-999	PAL1	0	R1003P
1781.393	0.883	1383376	STUDY_ORIENT	n/a	5	5	JET	PASS	JET	LEAF	16	[0, 0, 0]	-999	PAL1	0	R1003P
1782.276	5.035	1383817	STUDY_PAIR	n/a	5	5	JET	PASS	JET	LEAF	16	[0, 0, 0]	-999	PAL1	0	R1003P
1787.311	0.984	1386335	STUDY_ORIENT	n/a	6	6	GEESE	PASS	GEESE	DOOR	16	[0, 0, 0]	-999	PAL1	0	R1003P
1788.295	4.018	1386827	STUDY_PAIR	n/a	6	6	GEESE	PASS	GEESE	DOOR	16	[0, 0, 0]	-999	PAL1	0	R1003P
1792.313	0.999	1388836	START	n/a	-999	-999	n/a	n/a	n/a	n/a	16	[-999, -999, -999]	-999	PAL1	0	R1003P
1793.312	1760.813	1389335	MATH_START	n/a	-999	-999	n/a	n/a	n/a	n/a	16	[0, 0, 0]	-999	PAL1	0	R1003P
3554.125	10.922	2269733	SESS_START	n/a	-999	-999	n/a	n/a	n/a	n/a	16	[0, 0, 0]	-999	PAL1	0	R1003P
3565.047	10.45	2275194	ENCODING_START	n/a	0	-999	n/a	n/a	n/a	n/a	16	[0, 0, 0]	-999	PAL1	0	R1003P
3575.497	0.833	2280419	STUDY_ORIENT	n/a	1	3	WHEEL	MOLE	WHEEL	MOLE	16	[0, 0, 0]	-999	PAL1	0	R1003P
3576.33	5.034	2280836	STUDY_PAIR	n/a	1	3	WHEEL	MOLE	WHEEL	MOLE	16	[0, 0, 0]	-999	PAL1	0	R1003P
3581.364	0.984	2283353	STUDY_ORIENT	n/a	2	4	FLUTE	MULE	FLUTE	SHOE	16	[0, 0, 0]	-999	PAL1	0	R1003P
3582.348	5.034	2283845	STUDY_PAIR	n/a	2	4	FLUTE	MULE	FLUTE	SHOE	16	[0, 0, 0]	-999	PAL1	0	R1003P
3587.382	0.816	2286362	STUDY_ORIENT	n/a	3	1	MILK	COOKIE	MOON	MILK	16	[0, 0, 0]	-999	PAL1	0	R1003P
3588.198	5.034	2286770	STUDY_PAIR	n/a	3	1	MILK	COOKIE	MOON	MILK	16	[0, 0, 0]	-999	PAL1	0	R1003P
3593.232	0.9	2289287	STUDY_ORIENT	n/a	4	2	STRING	PASS	STRING	STOVE	16	[0, 0, 0]	-999	PAL1	0	R1003P
3594.132	5.018	2289737	STUDY_PAIR	n/a	4	2	STRING	PASS	STRING	STOVE	16	[0, 0, 0]	-999	PAL1	0	R1003P
3599.15	0.767	2292245	STUDY_ORIENT	n/a	5	5	JET	PASS	JET	LEAF	16	[0, 0, 0]	-999	PAL1	0	R1003P
3599.917	5.034	2292629	STUDY_PAIR	n/a	5	5	JET	PASS	JET	LEAF	16	[0, 0, 0]	-999	PAL1	0	R1003P
3604.951	0.85	2295146	STUDY_ORIENT	n/a	6	6	GEESE	PASS	GEESE	DOOR	16	[0, 0, 0]	-999	PAL1	0	R1003P
3605.801	4.001	2295571	STUDY_PAIR	n/a	6	6	GEESE	PASS	GEESE	DOOR	16	[0, 0, 0]	-999	PAL1	0	R1003P
3609.802	1.0	2297571	START	n/a	-999	-999	n/a	n/a	n/a	n/a	17	[-999, -999, -999]	-999	PAL1	0	R1003P
3610.802	0.017	2298071	MATH_START	n/a	-999	-999	n/a	n/a	n/a	n/a	16	[0, 0, 0]	-999	PAL1	0	R1003P
3610.819	4.552	2298080	PROB	4525	-999	-999	n/a	n/a	n/a	n/a	17	[1, 1, 3]	5	PAL1	0	R1003P
3615.371	3.533	2300356	PROB	3500	-999	-999	n/a	n/a	n/a	n/a	17	[5, 9, 5]	19	PAL1	0	R1003P
3618.904	4.768	2302122	PROB	4744	-999	-999	n/a	n/a	n/a	n/a	17	[2, 2, 6]	10	PAL1	0	R1003P
3623.672	6.143	2304506	PROB	6143	-999	-999	n/a	n/a	n/a	n/a	17	[6, 6, 9]	21	PAL1	0	R1003P
3629.815	0.008	2307578	STOP	n/a	-999	-999	n/a	n/a	n/a	n/a	17	[-999, -999, -999]	-999	PAL1	0	R1003P
3629.823	0.0	2307582	MATH_END	n/a	-999	-999	n/a	n/a	n/a	n/a	16	[0, 0, 0]	-999	PAL1	0	R1003P
3629.823	0.016	2307582	TEST_START	n/a	-999	-999	n/a	n/a	n/a	n/a	16	[0, 0, 0]	-999	PAL1	0	R1003P
3629.839	0.984	2307590	TEST_ORIENT	n/a	3	1	MILK	COOKIE	MOON	MILK	16	[0, 0, 0]	-999	PAL1	0	R1003P
3630.823	0.0	2308082	TEST_PROBE	n/a	3	1	MILK	COOKIE	MOON	MILK	16	[0, 0, 0]	-999	PAL1	0	R1003P
3630.823	2.873	2308082	REC_START	n/a	3	-999	n/a	COOKIE	n/a	n/a	16	[0, 0, 0]	-999	PAL1	0	R1003P
3633.696	2.144	2309518	REC_EVENT	2873	3	1	MILK	COOKIE	MOON	MILK	16	[0, 0, 0]	-999	PAL1	0	R1003P
3635.84	0.017	2310590	REC_END	n/a	3	-999	n/a	n/a	n/a	n/a	16	[0, 0, 0]	-999	PAL1	0	R1003P
3635.857	0.885	2310599	TEST_ORIENT	n/a	4	2	STRING	PASS	STRING	STOVE	16	[0, 0, 0]	-999	PAL1	0	R1003P
3636.742	0.0	2311041	REC_START	n/a	4	-999	n/a	PASS	n/a	n/a	16	[0, 0, 0]	-999	PAL1	0	R1003P
3636.742	2.017	2311041	TEST_PROBE	n/a	4	2	STRING	PASS	STRING	STOVE	16	[0, 0, 0]	-999	PAL1	0	R1003P
3638.759	3.0	2312050	REC_EVENT	2017	4	2	STRING	PASS	STRING	STOVE	16	[0, 0, 0]	-999	PAL1	0	R1003P
3641.759	0.016	2313550	REC_END	n/a	4	-999	n/a	n/a	n/a	n/a	16	[0, 0, 0]	-999	PAL1	0	R1003P
3641.775	0.918	2313558	TEST_ORIENT	n/a	1	3	WHEEL	MOLE	WHEEL	MOLE	16	[0, 0, 0]	-999	PAL1	0	R1003P
3642.693	0.0	2314017	TEST_PROBE	n/a	1	3	WHEEL	MOLE	WHEEL	MOLE	16	[0, 0, 0]	-999	PAL1	0	R1003P
3642.693	1.583	2314017	REC_START	n/a	1	-999	n/a	MOLE	n/a	n/a	16	[0, 0, 0]	-999	PAL1	0	R1003P
3644.276	3.434	2314808	REC_EVENT	1583	1	3	WHEEL	MOLE	WHEEL	MOLE	16	[0, 0, 0]	-999	PAL1	0	R1003P
3647.71	0.017	2316525	REC_END	n/a	1	-999	n/a	n/a	n/a	n/a	16	[0, 0, 0]	-999	PAL1	0	R1003P
3647.727	0.867	2316534	TEST_ORIENT	n/a	2	4	FLUTE	MULE	FLUTE	SHOE	16	[0, 0, 0]	-999	PAL1	0	R1003P
3648.594	0.0	2316967	REC_START	n/a	2	-999	n/a	MULE	n/a	n/a	16	[0, 0, 0]	-999	PAL1	0	R1003P
3648.594	2.995	2316967	TEST_PROBE	n/a	2	4	FLUTE	MULE	FLUTE	SHOE	16	[0, 0, 0]	-999	PAL1	0	R1003P
3651.589	2.022	2318465	REC_EVENT	2995	2	4	FLUTE	MULE	FLUTE	SHOE	16	[0, 0, 0]	-999	PAL1	0	R1003P
3653.611	0.017	2319476	REC_END	n/a	2	-999	n/a	n/a	n/a	n/a	16	[0, 0, 0]	-999	PAL1	0	R1003P
3653.628	0.834	2319484	TEST_ORIENT	n/a	5	5	JET	PASS	JET	LEAF	16	[0, 0, 0]	-999	PAL1	0	R1003P
3654.462	0.0	2319901	TEST_PROBE	n/a	5	5	JET	PASS	JET	LEAF	16	[0, 0, 0]	-999	PAL1	0	R1003P
3654.462	1.446	2319901	REC_START	n/a	5	-999	n/a	PASS	n/a	n/a	16	[0, 0, 0]	-999	PAL1	0	R1003P
3655.908	3.571	2320624	REC_EVENT	1446	5	5	JET	PASS	JET	LEAF	16	[0, 0, 0]	-999	PAL1	0	R1003P
3659.479	0.017	2322410	REC_END	n/a	5	-999	n/a	n/a	n/a	n/a	16	[0, 0, 0]	-999	PAL1	0	R1003P
3659.496	0.817	2322418	TEST_ORIENT	n/a	6	6	GEESE	PASS	GEESE	DOOR	16	[0, 0, 0]	-999	PAL1	0	R1003P
3660.313	0.0	2322827	TEST_PROBE	n/a	6	6	GEESE	PASS	GEESE	DOOR	16	[0, 0, 0]	-999	PAL1	0	R1003P
3660.313	2.263	2322827	REC_START	n/a	6	-999	n/a	PASS	n/a	n/a	16	[0, 0, 0]	-999	PAL1	0	R1003P
3662.576	2.754	2323958	REC_EVENT	2263	6	6	GEESE	PASS	GEESE	DOOR	16	[0, 0, 0]	-999	PAL1	0	R1003P
3665.33	1.142	2325335	REC_END	n/a	6	-999	n/a	n/a	n/a	n/a	16	[0, 0, 0]	-999	PAL1	0	R1003P
3666.472	10.443	2325906	ENCODING_START	n/a	0	-999	n/a	n/a	n/a	n/a	17	[0, 0, 0]	-999	PAL1	0	R1003P
3676.915	0.917	2331128	STUDY_ORIENT	n/a	1	3	HAND	BRAILLE	FLAG	HAND	17	[0, 0, 0]	-999	PAL1	0	R1003P
3677.832	5.034	2331586	STUDY_PAIR	n/a	1	3	HAND	BRAILLE	FLAG	HAND	17	[0, 0, 0]	-999	PAL1	0	R1003P
3682.866	0.785	2334103	STUDY_ORIENT	n/a	2	4	BOX	PASS	HOUSE	BOX	17	[0, 0, 0]	-999	PAL1	0	R1003P
3683.651	5.034	2334496	STUDY_PAIR	n/a	2	4	BOX	PASS	HOUSE	BOX	17	[0, 0, 0]	-999	PAL1	0	R1003P
3688.685	0.783	2337013	STUDY_ORIENT	n/a	3	1	SQUARE	PASS	SQUARE	SIGN	17	[0, 0, 0]	-999	PAL1	0	R1003P
3689.468	5.018	2337404	STUDY_PAIR	n/a	3	1	SQUARE	PASS	SQUARE	SIGN	17	[0, 0, 0]	-999	PAL1	0	R1003P
3694.486	0.984	2339913	STUDY_ORIENT	n/a	4	6	FLEA	PASS	FLEA	HEN	17	[0, 0, 0]	-999	PAL1	0	R1003P
3695.47	5.034	2340405	STUDY_PAIR	n/a	4	6	FLEA	PASS	FLEA	HEN	17	[0, 0, 0]	-999	PAL1	0	R1003P
3700.504	0.883	2342922	STUDY_ORIENT	n/a	5	5	SUN	PASS	FOX	SUN	17	[0, 0, 0]	-999	PAL1	0	R1003P
3701.387	5.018	2343363	STUDY_PAIR	n/a	5	5	SUN	PASS	FOX	SUN	17	[0, 0, 0]	-999	PAL1	0	R1003P
3706.405	0.967	2345872	STUDY_ORIENT	n/a	6	2	ICE	PASS	TRAIN	ICE	17	[0, 0, 0]	-999	PAL1	0	R1003P
3707.372	4.018	2346356	STUDY_PAIR	n/a	6	2	ICE	PASS	TRAIN	ICE	17	[0, 0, 0]	-999	PAL1	0	R1003P
3711.39	0.999	2348365	START	n/a	-999	-999	n/a	n/a	n/a	n/a	18	[-999, -999, -999]	-999	PAL1	0	R1003P
3712.389	0.017	2348864	MATH_START	n/a	-999	-999	n/a	n/a	n/a	n/a	17	[0, 0, 0]	-999	PAL1	0	R1003P
3712.406	5.4	2348873	PROB	5369	-999	-999	n/a	n/a	n/a	n/a	18	[8, 4, 8]	20	PAL1	0	R1003P
3717.806	8.402	2351573	PROB	8377	-999	-999	n/a	n/a	n/a	n/a	18	[2, 3, 9]	14	PAL1	0	R1003P
3726.208	4.951	2355774	PROB	4919	-999	-999	n/a	n/a	n/a	n/a	18	[3, 6, 9]	18	PAL1	0	R1003P
3731.159	7.553	2358249	PROB	7553	-999	-999	n/a	n/a	n/a	n/a	18	[5, 2, 4]	11	PAL1	0	R1003P
3738.712	0.016	2362026	STOP	n/a	-999	-999	n/a	n/a	n/a	n/a	18	[-999, -999, -999]	-999	PAL1	0	R1003P
3738.728	0.0	2362034	MATH_END	n/a	-999	-999	n/a	n/a	n/a	n/a	17	[0, 0, 0]	-999	PAL1	0	R1003P
3738.728	0.017	2362034	TEST_START	n/a	-999	-999	n/a	n/a	n/a	n/a	17	[0, 0, 0]	-999	PAL1	0	R1003P
3738.745	0.816	2362042	TEST_ORIENT	n/a	3	1	SQUARE	PASS	SQUARE	SIGN	17	[0, 0, 0]	-999	PAL1	0	R1003P
3739.561	0.001	2362450	TEST_PROBE	n/a	3	1	SQUARE	PASS	SQUARE	SIGN	17	[0, 0, 0]	-999	PAL1	0	R1003P
3739.562	2.1	2362451	REC_START	n/a	3	-999	n/a	PASS	n/a	n/a	17	[0, 0, 0]	-999	PAL1	0	R1003P
3741.662	2.9	2363501	REC_EVENT	2100	3	1	SQUARE	PASS	SQUARE	SIGN	17	[0, 0, 0]	-999	PAL1	0	R1003P
3744.562	0.017	2364951	REC_END	n/a	3	-999	n/a	n/a	n/a	n/a	17	[0, 0, 0]	-999	PAL1	0	R1003P
3744.579	0.95	2364959	TEST_ORIENT	n/a	6	2	ICE	PASS	TRAIN	ICE	17	[0, 0, 0]	-999	PAL1	0	R1003P
3745.529	0.001	2365434	TEST_PROBE	n/a	6	2	ICE	PASS	TRAIN	ICE	17	[0, 0, 0]	-999	PAL1	0	R1003P
3745.53	3.092	2365435	REC_START	n/a	6	-999	n/a	PASS	n/a	n/a	17	[0, 0, 0]	-999	PAL1	0	R1003P
3748.622	1.917	2366981	REC_EVENT	3092	6	2	ICE	PASS	TRAIN	ICE	17	[0, 0, 0]	-999	PAL1	0	R1003P
3750.539	0.008	2367939	REC_END	n/a	6	-999	n/a	n/a	n/a	n/a	17	[0, 0, 0]	-999	PAL1	0	R1003P
3750.547	0.883	2367943	TEST_ORIENT	n/a	1	3	HAND	BRAILLE	FLAG	HAND	17	[0, 0, 0]	-999	PAL1	0	R1003P
3751.43	0.001	2368385	TEST_PROBE	n/a	1	3	HAND	BRAILLE	FLAG	HAND	17	[0, 0, 0]	-999	PAL1	0	R1003P
3751.431	2.926	2368385	REC_START	n/a	1	-999	n/a	BRAILLE	n/a	n/a	17	[0, 0, 0]	-999	PAL1	0	R1003P
3754.357	2.074	2369848	REC_EVENT	2926	1	3	HAND	BRAILLE	FLAG	HAND	17	[0, 0, 0]	-999	PAL1	0	R1003P
3756.431	0.017	2370885	REC_END	n/a	1	-999	n/a	n/a	n/a	n/a	17	[0, 0, 0]	-999	PAL1	0	R1003P
3756.448	0.85	2370894	TEST_ORIENT	n/a	2	4	BOX	PASS	HOUSE	BOX	17	[0, 0, 0]	-999	PAL1	0	R1003P
3757.298	0.001	2371319	TEST_PROBE	n/a	2	4	BOX	PASS	HOUSE	BOX	17	[0, 0, 0]	-999	PAL1	0	R1003P
3757.299	1.881	2371319	REC_START	n/a	2	-999	n/a	PASS	n/a	n/a	17	[0, 0, 0]	-999	PAL1	0	R1003P
3759.18	3.128	2372260	REC_EVENT	1881	2	4	BOX	PASS	HOUSE	BOX	17	[0, 0, 0]	-999	PAL1	0	R1003P
3762.308	0.008	2373824	REC_END	n/a	2	-999	n/a	n/a	n/a	n/a	17	[0, 0, 0]	-999	PAL1	0	R1003P
3762.316	0.932	2373828	TEST_ORIENT	n/a	5	5	SUN	PASS	FOX	SUN	17	[0, 0, 0]	-999	PAL1	0	R1003P
3763.248	0.001	2374294	TEST_PROBE	n/a	5	5	SUN	PASS	FOX	SUN	17	[0, 0, 0]	-999	PAL1	0	R1003P
3763.249	1.795	2374294	REC_START	n/a	5	-999	n/a	PASS	n/a	n/a	17	[0, 0, 0]	-999	PAL1	0	R1003P
3765.044	3.213	2375192	REC_EVENT	1795	5	5	SUN	PASS	FOX	SUN	17	[0, 0, 0]	-999	PAL1	0	R1003P
3768.257	0.009	2376798	REC_END	n/a	5	-999	n/a	n/a	n/a	n/a	17	[0, 0, 0]	-999	PAL1	0	R1003P
3768.266	0.967	2376803	TEST_ORIENT	n/a	4	6	FLEA	PASS	FLEA	HEN	17	[0, 0, 0]	-999	PAL1	0	R1003P
3769.233	0.001	2377286	TEST_PROBE	n/a	4	6	FLEA	PASS	FLEA	HEN	17	[0, 0, 0]	-999	PAL1	0	R1003P
3769.234	2.241	2377287	REC_START	n/a	4	-999	n/a	PASS	n/a	n/a	17	[0, 0, 0]	-999	PAL1	0	R1003P
3771.475	2.783	2378407	REC_EVENT	2241	4	6	FLEA	PASS	FLEA	HEN	17	[0, 0, 0]	-999	PAL1	0	R1003P
3774.258	1.254	2379799	REC_END	n/a	4	-999	n/a	n/a	n/a	n/a	17	[0, 0, 0]	-999	PAL1	0	R1003P
3775.512	10.441	2380426	ENCODING_START	n/a	0	-999	n/a	n/a	n/a	n/a	18	[0, 0, 0]	-999	PAL1	0	R1003P
3785.953	0.833	2385646	STUDY_ORIENT	n/a	1	5	CROW	PASS	PIT	CROW	18	[0, 0, 0]	-999	PAL1	0	R1003P
3786.786	5.018	2386063	STUDY_PAIR	n/a	1	5	CROW	PASS	PIT	CROW	18	[0, 0, 0]	-999	PAL1	0	R1003P
3791.804	0.818	2388572	STUDY_ORIENT	n/a	2	4	DRUM	TOOL	STAIR	DRUM	18	[0, 0, 0]	-999	PAL1	0	R1003P
3792.622	5.034	2388981	STUDY_PAIR	n/a	2	4	DRUM	TOOL	STAIR	DRUM	18	[0, 0, 0]	-999	PAL1	0	R1003P
3797.656	1.017	2391498	STUDY_ORIENT	n/a	3	3	SWAMP	PIN	DART	SWAMP	18	[0, 0, 0]	-999	PAL1	0	R1003P
3798.673	5.034	2392006	STUDY_PAIR	n/a	3	3	SWAMP	PIN	DART	SWAMP	18	[0, 0, 0]	-999	PAL1	0	R1003P
3803.707	0.95	2394523	STUDY_ORIENT	n/a	4	2	SHIRT	DRESS	SHIRT	DOLL	18	[0, 0, 0]	-999	PAL1	0	R1003P
3804.657	5.018	2394998	STUDY_PAIR	n/a	4	2	SHIRT	DRESS	SHIRT	DOLL	18	[0, 0, 0]	-999	PAL1	0	R1003P
3809.675	0.867	2397507	STUDY_ORIENT	n/a	5	1	PLANT	WHEEL	PLANT	CAPE	18	[0, 0, 0]	-999	PAL1	0	R1003P
3810.542	5.034	2397940	STUDY_PAIR	n/a	5	1	PLANT	WHEEL	PLANT	CAPE	18	[0, 0, 0]	-999	PAL1	0	R1003P
3815.576	0.9	2400457	STUDY_ORIENT	n/a	6	6	BEAN	OWL	PIN	BEAN	18	[0, 0, 0]	-999	PAL1	0	R1003P
3816.476	4.001	2400907	STUDY_PAIR	n/a	6	6	BEAN	OWL	PIN	BEAN	18	[0, 0, 0]	-999	PAL1	0	R1003P
3820.477	1.0	2402908	START	n/a	-999	-999	n/a	n/a	n/a	n/a	19	[-999, -999, -999]	-999	PAL1	0	R1003P
3821.477	0.017	2403408	MATH_START	n/a	-999	-999	n/a	n/a	n/a	n/a	18	[0, 0, 0]	-999	PAL1	0	R1003P
3821.494	4.167	2403416	PROB	4146	-999	-999	n/a	n/a	n/a	n/a	19	[5, 8, 5]	18	PAL1	0	R1003P
3825.661	7.735	2405500	PROB	7707	-999	-999	n/a	n/a	n/a	n/a	19	[5, 7, 6]	18	PAL1	0	R1003P
3833.396	7.819	2409367	PROB	7819	-999	-999	n/a	n/a	n/a	n/a	19	[4, 3, 6]	16	PAL1	0	R1003P
3841.215	0.015	2413277	STOP	n/a	-999	-999	n/a	n/a	n/a	n/a	19	[-999, -999, -999]	-999	PAL1	0	R1003P
3841.23	0.0	2413284	MATH_END	n/a	-999	-999	n/a	n/a	n/a	n/a	18	[0, 0, 0]	-999	PAL1	0	R1003P
3841.23	0.017	2413284	TEST_START	n/a	-999	-999	n/a	n/a	n/a	n/a	18	[0, 0, 0]	-999	PAL1	0	R1003P
3841.247	0.817	2413293	TEST_ORIENT	n/a	5	1	PLANT	WHEEL	PLANT	CAPE	18	[0, 0, 0]	-999	PAL1	0	R1003P
3842.064	0.0	2413701	TEST_PROBE	n/a	5	1	PLANT	WHEEL	PLANT	CAPE	18	[0, 0, 0]	-999	PAL1	0	R1003P
3842.064	3.185	2413701	REC_START	n/a	5	-999	n/a	WHEEL	n/a	n/a	18	[0, 0, 0]	-999	PAL1	0	R1003P
3845.249	1.832	2415294	REC_EVENT	3185	5	1	PLANT	WHEEL	PLANT	CAPE	18	[0, 0, 0]	-999	PAL1	0	R1003P
3847.081	0.017	2416210	REC_END	n/a	5	-999	n/a	n/a	n/a	n/a	18	[0, 0, 0]	-999	PAL1	0	R1003P
3847.098	0.783	2416218	TEST_ORIENT	n/a	4	2	SHIRT	DRESS	SHIRT	DOLL	18	[0, 0, 0]	-999	PAL1	0	R1003P
3847.881	0.001	2416610	TEST_PROBE	n/a	4	2	SHIRT	DRESS	SHIRT	DOLL	18	[0, 0, 0]	-999	PAL1	0	R1003P
3847.882	1.227	2416610	REC_START	n/a	4	-999	n/a	DRESS	n/a	n/a	18	[0, 0, 0]	-999	PAL1	0	R1003P
3849.109	3.782	2417224	REC_EVENT	1227	4	2	SHIRT	DRESS	SHIRT	DOLL	18	[0, 0, 0]	-999	PAL1	0	R1003P
3852.891	0.008	2419115	REC_END	n/a	4	-999	n/a	n/a	n/a	n/a	18	[0, 0, 0]	-999	PAL1	0	R1003P
3852.899	0.818	2419119	TEST_ORIENT	n/a	3	3	SWAMP	PIN	DART	SWAMP	18	[0, 0, 0]	-999	PAL1	0	R1003P
3853.717	0.0	2419528	TEST_PROBE	n/a	3	3	SWAMP	PIN	DART	SWAMP	18	[0, 0, 0]	-999	PAL1	0	R1003P
3853.717	1.934	2419528	REC_START	n/a	3	-999	n/a	PIN	n/a	n/a	18	[0, 0, 0]	-999	PAL1	0	R1003P
3855.651	3.083	2420495	REC_EVENT	1934	3	3	SWAMP	PIN	DART	SWAMP	18	[0, 0, 0]	-999	PAL1	0	R1003P
3858.734	0.017	2422036	REC_END	n/a	3	-999	n/a	n/a	n/a	n/a	18	[0, 0, 0]	-999	PAL1	0	R1003P
3858.751	0.917	2422045	TEST_ORIENT	n/a	2	4	DRUM	TOOL	STAIR	DRUM	18	[0, 0, 0]	-999	PAL1	0	R1003P
3859.668	0.0	2422503	TEST_PROBE	n/a	2	4	DRUM	TOOL	STAIR	DRUM	18	[0, 0, 0]	-999	PAL1	0	R1003P
3859.668	1.826	2422503	REC_START	n/a	2	-999	n/a	TOOL	n/a	n/a	18	[0, 0, 0]	-999	PAL1	0	R1003P
3861.494	3.191	2423416	REC_EVENT	1826	2	4	DRUM	TOOL	STAIR	DRUM	18	[0, 0, 0]	-999	PAL1	0	R1003P
3864.685	0.017	2425012	REC_END	n/a	2	-999	n/a	n/a	n/a	n/a	18	[0, 0, 0]	-999	PAL1	0	R1003P
3864.702	0.8	2425020	TEST_ORIENT	n/a	1	5	CROW	PASS	PIT	CROW	18	[0, 0, 0]	-999	PAL1	0	R1003P
3865.502	0.001	2425420	TEST_PROBE	n/a	1	5	CROW	PASS	PIT	CROW	18	[0, 0, 0]	-999	PAL1	0	R1003P
3865.503	1.75	2425421	REC_START	n/a	1	-999	n/a	PASS	n/a	n/a	18	[0, 0, 0]	-999	PAL1	0	R1003P
3867.253	3.258	2426296	REC_EVENT	1750	1	5	CROW	PASS	PIT	CROW	18	[0, 0, 0]	-999	PAL1	0	R1003P
3870.511	0.009	2427925	REC_END	n/a	1	-999	n/a	n/a	n/a	n/a	18	[0, 0, 0]	-999	PAL1	0	R1003P
3870.52	0.8	2427929	TEST_ORIENT	n/a	6	6	BEAN	OWL	PIN	BEAN	18	[0, 0, 0]	-999	PAL1	0	R1003P
3871.32	0.001	2428329	TEST_PROBE	n/a	6	6	BEAN	OWL	PIN	BEAN	18	[0, 0, 0]	-999	PAL1	0	R1003P
3871.321	2.218	2428330	REC_START	n/a	6	-999	n/a	OWL	n/a	n/a	18	[0, 0, 0]	-999	PAL1	0	R1003P
3873.539	2.791	2429439	REC_EVENT	2218	6	6	BEAN	OWL	PIN	BEAN	18	[0, 0, 0]	-999	PAL1	0	R1003P
3876.33	1.262	2430834	REC_END	n/a	6	-999	n/a	n/a	n/a	n/a	18	[0, 0, 0]	-999	PAL1	0	R1003P
3877.592	10.447	2431465	ENCODING_START	n/a	0	-999	n/a	n/a	n/a	n/a	19	[0, 0, 0]	-999	PAL1	0	R1003P
3888.039	1.017	2436689	STUDY_ORIENT	n/a	1	5	SHARK	TIE	SHARK	ROSE	19	[0, 0, 0]	-999	PAL1	0	R1003P
3889.056	5.034	2437197	STUDY_PAIR	n/a	1	5	SHARK	TIE	SHARK	ROSE	19	[0, 0, 0]	-999	PAL1	0	R1003P
3894.09	0.95	2439714	STUDY_ORIENT	n/a	2	6	SEAL	PASS	SEAL	PEN	19	[0, 0, 0]	-999	PAL1	0	R1003P
3895.04	5.018	2440189	STUDY_PAIR	n/a	2	6	SEAL	PASS	SEAL	PEN	19	[0, 0, 0]	-999	PAL1	0	R1003P
3900.058	0.967	2442698	STUDY_ORIENT	n/a	3	1	BREAD	INK	SKUNK	BREAD	19	[0, 0, 0]	-999	PAL1	0	R1003P
3901.025	5.034	2443182	STUDY_PAIR	n/a	3	1	BREAD	INK	SKUNK	BREAD	19	[0, 0, 0]	-999	PAL1	0	R1003P
3906.059	0.9	2445698	STUDY_ORIENT	n/a	4	4	FOOD	JUICE	FOOD	ANT	19	[0, 0, 0]	-999	PAL1	0	R1003P
3906.959	5.018	2446148	STUDY_PAIR	n/a	4	4	FOOD	JUICE	FOOD	ANT	19	[0, 0, 0]	-999	PAL1	0	R1003P
3911.977	0.884	2448657	STUDY_ORIENT	n/a	5	3	STEAM	PASS	INK	STEAM	19	[0, 0, 0]	-999	PAL1	0	R1003P
3912.861	5.034	2449099	STUDY_PAIR	n/a	5	3	STEAM	PASS	INK	STEAM	19	[0, 0, 0]	-999	PAL1	0	R1003P
3917.895	0.967	2451616	STUDY_ORIENT	n/a	6	2	TIE	PASS	EAR	TIE	19	[0, 0, 0]	-999	PAL1	0	R1003P
3918.862	4.018	2452100	STUDY_PAIR	n/a	6	2	TIE	PASS	EAR	TIE	19	[0, 0, 0]	-999	PAL1	0	R1003P
3922.88	0.999	2454109	START	n/a	-999	-999	n/a	n/a	n/a	n/a	20	[-999, -999, -999]	-999	PAL1	0	R1003P
3923.879	0.017	2454608	MATH_START	n/a	-999	-999	n/a	n/a	n/a	n/a	19	[0, 0, 0]	-999	PAL1	0	R1003P
3923.896	3.702	2454617	PROB	3672	-999	-999	n/a	n/a	n/a	n/a	20	[6, 4, 9]	19	PAL1	0	R1003P
3927.598	4.283	2456468	PROB	4249	-999	-999	n/a	n/a	n/a	n/a	20	[2, 2, 6]	10	PAL1	0	R1003P
3931.881	6.168	2458609	PROB	6142	-999	-999	n/a	n/a	n/a	n/a	20	[3, 2, 4]	9	PAL1	0	R1003P
3938.049	6.454	2461693	PROB	6454	-999	-999	n/a	n/a	n/a	n/a	20	[4, 8, 4]	16	PAL1	0	R1003P
3944.503	0.015	2464920	STOP	n/a	-999	-999	n/a	n/a	n/a	n/a	20	[-999, -999, -999]	-999	PAL1	0	R1003P
3944.518	0.0	2464928	MATH_END	n/a	-999	-999	n/a	n/a	n/a	n/a	19	[0, 0, 0]	-999	PAL1	0	R1003P
3944.518	0.016	2464928	TEST_START	n/a	-999	-999	n/a	n/a	n/a	n/a	19	[0, 0, 0]	-999	PAL1	0	R1003P
3944.534	0.917	2464936	TEST_ORIENT	n/a	3	1	BREAD	INK	SKUNK	BREAD	19	[0, 0, 0]	-999	PAL1	0	R1003P
3945.451	0.001	2465394	TEST_PROBE	n/a	3	1	BREAD	INK	SKUNK	BREAD	19	[0, 0, 0]	-999	PAL1	0	R1003P
3945.452	2.123	2465395	REC_START	n/a	3	-999	n/a	INK	n/a	n/a	19	[0, 0, 0]	-999	PAL1	0	R1003P
3947.575	2.885	2466456	REC_EVENT	2123	3	1	BREAD	INK	SKUNK	BREAD	19	[0, 0, 0]	-999	PAL1	0	R1003P
3950.46	0.009	2467899	REC_END	n/a	3	-999	n/a	n/a	n/a	n/a	19	[0, 0, 0]	-999	PAL1	0	R1003P
3950.469	0.867	2467903	TEST_ORIENT	n/a	6	2	TIE	PASS	EAR	TIE	19	[0, 0, 0]	-999	PAL1	0	R1003P
3951.336	0.0	2468337	TEST_PROBE	n/a	6	2	TIE	PASS	EAR	TIE	19	[0, 0, 0]	-999	PAL1	0	R1003P
3951.336	2.97	2468337	REC_START	n/a	6	-999	n/a	PASS	n/a	n/a	19	[0, 0, 0]	-999	PAL1	0	R1003P
3954.306	2.047	2469822	REC_EVENT	2970	6	2	TIE	PASS	EAR	TIE	19	[0, 0, 0]	-999	PAL1	0	R1003P
3956.353	0.017	2470845	REC_END	n/a	6	-999	n/a	n/a	n/a	n/a	19	[0, 0, 0]	-999	PAL1	0	R1003P
3956.37	0.933	2470854	TEST_ORIENT	n/a	5	3	STEAM	PASS	INK	STEAM	19	[0, 0, 0]	-999	PAL1	0	R1003P
3957.303	0.001	2471320	TEST_PROBE	n/a	5	3	STEAM	PASS	INK	STEAM	19	[0, 0, 0]	-999	PAL1	0	R1003P
3957.304	2.797	2471321	REC_START	n/a	5	-999	n/a	PASS	n/a	n/a	19	[0, 0, 0]	-999	PAL1	0	R1003P
3960.101	2.211	2472719	REC_EVENT	2797	5	3	STEAM	PASS	INK	STEAM	19	[0, 0, 0]	-999	PAL1	0	R1003P
3962.312	0.009	2473825	REC_END	n/a	5	-999	n/a	n/a	n/a	n/a	19	[0, 0, 0]	-999	PAL1	0	R1003P
3962.321	1.017	2473829	TEST_ORIENT	n/a	4	4	FOOD	JUICE	FOOD	ANT	19	[0, 0, 0]	-999	PAL1	0	R1003P
3963.338	0.001	2474338	TEST_PROBE	n/a	4	4	FOOD	JUICE	FOOD	ANT	19	[0, 0, 0]	-999	PAL1	0	R1003P
3963.339	2.223	2474338	REC_START	n/a	4	-999	n/a	JUICE	n/a	n/a	19	[0, 0, 0]	-999	PAL1	0	R1003P
3965.562	2.793	2475450	REC_EVENT	2223	4	4	FOOD	JUICE	FOOD	ANT	19	[0, 0, 0]	-999	PAL1	0	R1003P
3968.355	0.017	2476846	REC_END	n/a	4	-999	n/a	n/a	n/a	n/a	19	[0, 0, 0]	-999	PAL1	0	R1003P
3968.372	0.95	2476855	TEST_ORIENT	n/a	1	5	SHARK	TIE	SHARK	ROSE	19	[0, 0, 0]	-999	PAL1	0	R1003P
3969.322	0.001	2477330	TEST_PROBE	n/a	1	5	SHARK	TIE	SHARK	ROSE	19	[0, 0, 0]	-999	PAL1	0	R1003P
3969.323	2.197	2477330	REC_START	n/a	1	-999	n/a	TIE	n/a	n/a	19	[0, 0, 0]	-999	PAL1	0	R1003P
3971.52	2.811	2478429	REC_EVENT	2197	1	5	SHARK	TIE	SHARK	ROSE	19	[0, 0, 0]	-999	PAL1	0	R1003P
3974.331	0.009	2479834	REC_END	n/a	1	-999	n/a	n/a	n/a	n/a	19	[0, 0, 0]	-999	PAL1	0	R1003P
3974.34	0.833	2479839	TEST_ORIENT	n/a	2	6	SEAL	PASS	SEAL	PEN	19	[0, 0, 0]	-999	PAL1	0	R1003P
3975.173	0.0	2480255	TEST_PROBE	n/a	2	6	SEAL	PASS	SEAL	PEN	19	[0, 0, 0]	-999	PAL1	0	R1003P
3975.173	3.212	2480255	REC_START	n/a	2	-999	n/a	PASS	n/a	n/a	19	[0, 0, 0]	-999	PAL1	0	R1003P
3978.385	1.805	2481861	REC_EVENT	3212	2	6	SEAL	PASS	SEAL	PEN	19	[0, 0, 0]	-999	PAL1	0	R1003P
3980.19	1.434	2482764	REC_END	n/a	2	-999	n/a	n/a	n/a	n/a	19	[0, 0, 0]	-999	PAL1	0	R1003P
3981.624	10.452	2483481	ENCODING_START	n/a	0	-999	n/a	n/a	n/a	n/a	20	[0, 0, 0]	-999	PAL1	0	R1003P
3992.076	0.817	2488707	STUDY_ORIENT	n/a	1	3	NEST	TOE	NEST	TOOL	20	[0, 0, 0]	-999	PAL1	0	R1003P
3992.893	5.034	2489115	STUDY_PAIR	n/a	1	3	NEST	TOE	NEST	TOOL	20	[0, 0, 0]	-999	PAL1	0	R1003P
3997.927	1.017	2491632	STUDY_ORIENT	n/a	2	2	CALF	SHOE	CALF	HAT	20	[0, 0, 0]	-999	PAL1	0	R1003P
3998.944	5.034	2492141	STUDY_PAIR	n/a	2	2	CALF	SHOE	CALF	HAT	20	[0, 0, 0]	-999	PAL1	0	R1003P
4003.978	0.817	2494658	STUDY_ORIENT	n/a	3	1	STORE	BOOK	HAWK	STORE	20	[0, 0, 0]	-999	PAL1	0	R1003P
4004.795	5.034	2495066	STUDY_PAIR	n/a	3	1	STORE	BOOK	HAWK	STORE	20	[0, 0, 0]	-999	PAL1	0	R1003P
4009.829	0.785	2497583	STUDY_ORIENT	n/a	4	6	BENCH	STOOL	BENCH	FOOT	20	[0, 0, 0]	-999	PAL1	0	R1003P
4010.614	5.034	2497975	STUDY_PAIR	n/a	4	6	BENCH	STOOL	BENCH	FOOT	20	[0, 0, 0]	-999	PAL1	0	R1003P
4015.648	0.817	2500492	STUDY_ORIENT	n/a	5	5	WOLF	PASS	TOOTH	WOLF	20	[0, 0, 0]	-999	PAL1	0	R1003P
4016.465	5.034	2500901	STUDY_PAIR	n/a	5	5	WOLF	PASS	TOOTH	WOLF	20	[0, 0, 0]	-999	PAL1	0	R1003P
4021.499	0.934	2503418	STUDY_ORIENT	n/a	6	4	TOE	OAT	TOE	BOOK	20	[0, 0, 0]	-999	PAL1	0	R1003P
4022.433	4.018	2503885	STUDY_PAIR	n/a	6	4	TOE	OAT	TOE	BOOK	20	[0, 0, 0]	-999	PAL1	0	R1003P
4026.451	0.999	2505894	START	n/a	-999	-999	n/a	n/a	n/a	n/a	21	[-999, -999, -999]	-999	PAL1	0	R1003P
4027.45	0.017	2506393	MATH_START	n/a	-999	-999	n/a	n/a	n/a	n/a	20	[0, 0, 0]	-999	PAL1	0	R1003P
4027.467	3.316	2506402	PROB	3293	-999	-999	n/a	n/a	n/a	n/a	21	[2, 2, 2]	6	PAL1	0	R1003P
4030.783	7.468	2508060	PROB	7448	-999	-999	n/a	n/a	n/a	n/a	21	[8, 4, 9]	21	PAL1	0	R1003P
4038.251	4.985	2511794	PROB	4964	-999	-999	n/a	n/a	n/a	n/a	21	[2, 9, 2]	13	PAL1	0	R1003P
4043.236	8.18	2514286	PROB	8180	-999	-999	n/a	n/a	n/a	n/a	21	[7, 5, 6]	18	PAL1	0	R1003P
4051.416	0.006	2518376	STOP	n/a	-999	-999	n/a	n/a	n/a	n/a	21	[-999, -999, -999]	-999	PAL1	0	R1003P
4051.422	0.0	2518379	MATH_END	n/a	-999	-999	n/a	n/a	n/a	n/a	20	[0, 0, 0]	-999	PAL1	0	R1003P
4051.422	0.016	2518379	TEST_START	n/a	-999	-999	n/a	n/a	n/a	n/a	20	[0, 0, 0]	-999	PAL1	0	R1003P
4051.438	0.867	2518387	TEST_ORIENT	n/a	3	1	STORE	BOOK	HAWK	STORE	20	[0, 0, 0]	-999	PAL1	0	R1003P
4052.305	0.001	2518821	TEST_PROBE	n/a	3	1	STORE	BOOK	HAWK	STORE	20	[0, 0, 0]	-999	PAL1	0	R1003P
4052.306	1.284	2518821	REC_START	n/a	3	-999	n/a	BOOK	n/a	n/a	20	[0, 0, 0]	-999	PAL1	0	R1003P
4053.59	3.749	2519463	REC_EVENT	1284	3	1	STORE	BOOK	HAWK	STORE	20	[0, 0, 0]	-999	PAL1	0	R1003P
4057.339	0.017	2521338	REC_END	n/a	3	-999	n/a	n/a	n/a	n/a	20	[0, 0, 0]	-999	PAL1	0	R1003P
4057.356	0.967	2521346	TEST_ORIENT	n/a	2	2	CALF	SHOE	CALF	HAT	20	[0, 0, 0]	-999	PAL1	0	R1003P
4058.323	0.0	2521830	TEST_PROBE	n/a	2	2	CALF	SHOE	CALF	HAT	20	[0, 0, 0]	-999	PAL1	0	R1003P
4058.323	1.648	2521830	REC_START	n/a	2	-999	n/a	SHOE	n/a	n/a	20	[0, 0, 0]	-999	PAL1	0	R1003P
4059.971	3.369	2522654	REC_EVENT	1648	2	2	CALF	SHOE	CALF	HAT	20	[0, 0, 0]	-999	PAL1	0	R1003P
4063.34	0.017	2524338	REC_END	n/a	2	-999	n/a	n/a	n/a	n/a	20	[0, 0, 0]	-999	PAL1	0	R1003P
4063.357	0.916	2524347	TEST_ORIENT	n/a	1	3	NEST	TOE	NEST	TOOL	20	[0, 0, 0]	-999	PAL1	0	R1003P
4064.273	0.001	2524805	TEST_PROBE	n/a	1	3	NEST	TOE	NEST	TOOL	20	[0, 0, 0]	-999	PAL1	0	R1003P
4064.274	1.563	2524805	REC_START	n/a	1	-999	n/a	TOE	n/a	n/a	20	[0, 0, 0]	-999	PAL1	0	R1003P
4065.837	3.446	2525587	REC_EVENT	1563	1	3	NEST	TOE	NEST	TOOL	20	[0, 0, 0]	-999	PAL1	0	R1003P
4069.283	0.009	2527310	REC_END	n/a	1	-999	n/a	n/a	n/a	n/a	20	[0, 0, 0]	-999	PAL1	0	R1003P
4069.292	0.832	2527314	TEST_ORIENT	n/a	6	4	TOE	OAT	TOE	BOOK	20	[0, 0, 0]	-999	PAL1	0	R1003P
4070.124	0.001	2527730	TEST_PROBE	n/a	6	4	TOE	OAT	TOE	BOOK	20	[0, 0, 0]	-999	PAL1	0	R1003P
4070.125	1.332	2527731	REC_START	n/a	6	-999	n/a	OAT	n/a	n/a	20	[0, 0, 0]	-999	PAL1	0	R1003P
4071.457	3.676	2528397	REC_EVENT	1332	6	4	TOE	OAT	TOE	BOOK	20	[0, 0, 0]	-999	PAL1	0	R1003P
4075.133	0.009	2530235	REC_END	n/a	6	-999	n/a	n/a	n/a	n/a	20	[0, 0, 0]	-999	PAL1	0	R1003P
4075.142	0.9	2530239	TEST_ORIENT	n/a	5	5	WOLF	PASS	TOOTH	WOLF	20	[0, 0, 0]	-999	PAL1	0	R1003P
4076.042	0.001	2530689	TEST_PROBE	n/a	5	5	WOLF	PASS	TOOTH	WOLF	20	[0, 0, 0]	-999	PAL1	0	R1003P
4076.043	1.936	2530690	REC_START	n/a	5	-999	n/a	PASS	n/a	n/a	20	[0, 0, 0]	-999	PAL1	0	R1003P
4077.979	3.08	2531658	REC_EVENT	1936	5	5	WOLF	PASS	TOOTH	WOLF	20	[0, 0, 0]	-999	PAL1	0	R1003P
4081.059	0.017	2533198	REC_END	n/a	5	-999	n/a	n/a	n/a	n/a	20	[0, 0, 0]	-999	PAL1	0	R1003P
4081.076	0.817	2533206	TEST_ORIENT	n/a	4	6	BENCH	STOOL	BENCH	FOOT	20	[0, 0, 0]	-999	PAL1	0	R1003P
4081.893	0.001	2533615	TEST_PROBE	n/a	4	6	BENCH	STOOL	BENCH	FOOT	20	[0, 0, 0]	-999	PAL1	0	R1003P
4081.894	1.48	2533615	REC_START	n/a	4	-999	n/a	STOOL	n/a	n/a	20	[0, 0, 0]	-999	PAL1	0	R1003P
4083.374	3.529	2534355	REC_EVENT	1480	4	6	BENCH	STOOL	BENCH	FOOT	20	[0, 0, 0]	-999	PAL1	0	R1003P
4086.903	1.312	2536120	REC_END	n/a	4	-999	n/a	n/a	n/a	n/a	20	[0, 0, 0]	-999	PAL1	0	R1003P
4088.215	10.449	2536776	ENCODING_START	n/a	0	-999	n/a	n/a	n/a	n/a	21	[0, 0, 0]	-999	PAL1	0	R1003P
4098.664	0.9	2542000	STUDY_ORIENT	n/a	1	5	GOAT	PASS	HOLE	GOAT	21	[0, 0, 0]	-999	PAL1	0	R1003P
4099.564	5.018	2542450	STUDY_PAIR	n/a	1	5	GOAT	PASS	HOLE	GOAT	21	[0, 0, 0]	-999	PAL1	0	R1003P
4104.582	0.867	2544959	STUDY_ORIENT	n/a	2	6	MAZE	PASS	APE	MAZE	21	[0, 0, 0]	-999	PAL1	0	R1003P
4105.449	5.034	2545393	STUDY_PAIR	n/a	2	6	MAZE	PASS	APE	MAZE	21	[0, 0, 0]	-999	PAL1	0	R1003P
4110.483	0.884	2547909	STUDY_ORIENT	n/a	3	3	WEB	PASS	BANK	WEB	21	[0, 0, 0]	-999	PAL1	0	R1003P
4111.367	5.034	2548351	STUDY_PAIR	n/a	3	3	WEB	PASS	BANK	WEB	21	[0, 0, 0]	-999	PAL1	0	R1003P
