onset	duration	sample	trial_type	response_time	serialpos	probepos	probe_word	resp_word	study_1	study_2	list	test	answer	experiment	session	subject
0.0	0.0	186137	INSTRUCT_VIDEO_ON	n/a	-999	-999	n/a	n/a	n/a	n/a	-999	[0, 0, 0]	-999	PAL1	3	R1278E
0.0	5.416	186137	INSTRUCT_VIDEO_OFF	n/a	-999	-999	n/a	n/a	n/a	n/a	-999	[0, 0, 0]	-999	PAL1	3	R1278E
5.416	0.0	191553	SESS_START	n/a	-999	-999	n/a	n/a	n/a	n/a	-999	[0, 0, 0]	-999	PAL1	3	R1278E
5.416	12.001	191553	MIC_TEST	n/a	-999	-999	n/a	n/a	n/a	n/a	-999	[0, 0, 0]	-999	PAL1	3	R1278E
17.417	24.135	203554	PRACTICE_TRIAL	n/a	-999	-999	n/a	n/a	n/a	n/a	-1	[0, 0, 0]	-999	PAL1	3	R1278E
41.552	0.004	227688	ENCODING_START	n/a	-999	-999	n/a	n/a	n/a	n/a	-1	[0, 0, 0]	-999	PAL1	3	R1278E
41.556	0.268	227692	PRACTICE_ORIENT	n/a	1	5	WATCH	n/a	IRON	WATCH	-1	[0, 0, 0]	-999	PAL1	3	R1278E
41.824	0.65	227960	PRACTICE_ORIENT_OFF	n/a	1	5	WATCH	n/a	IRON	WATCH	-1	[0, 0, 0]	-999	PAL1	3	R1278E
42.474	4.017	228610	PRACTICE_PAIR	n/a	1	5	WATCH	n/a	IRON	WATCH	-1	[0, 0, 0]	-999	PAL1	3	R1278E
46.491	1.017	232627	PRACTICE_PAIR_OFF	n/a	1	5	WATCH	n/a	IRON	WATCH	-1	[0, 0, 0]	-999	PAL1	3	R1278E
47.508	0.267	233644	PRACTICE_ORIENT	n/a	2	4	RING	PASS	RING	TONGUE	-1	[0, 0, 0]	-999	PAL1	3	R1278E
47.775	0.566	233911	PRACTICE_ORIENT_OFF	n/a	2	4	RING	PASS	RING	TONGUE	-1	[0, 0, 0]	-999	PAL1	3	R1278E
48.341	4.018	234476	PRACTICE_PAIR	n/a	2	4	RING	PASS	RING	TONGUE	-1	[0, 0, 0]	-999	PAL1	3	R1278E
52.359	1.017	238494	PRACTICE_PAIR_OFF	n/a	2	4	RING	PASS	RING	TONGUE	-1	[0, 0, 0]	-999	PAL1	3	R1278E
53.376	0.266	239511	PRACTICE_ORIENT	n/a	3	3	FLOOD	PASS	FLOOD	CAMEL	-1	[0, 0, 0]	-999	PAL1	3	R1278E
53.642	0.584	239777	PRACTICE_ORIENT_OFF	n/a	3	3	FLOOD	PASS	FLOOD	CAMEL	-1	[0, 0, 0]	-999	PAL1	3	R1278E
54.226	4.017	240361	PRACTICE_PAIR	n/a	3	3	FLOOD	PASS	FLOOD	CAMEL	-1	[0, 0, 0]	-999	PAL1	3	R1278E
58.243	1.017	244378	PRACTICE_PAIR_OFF	n/a	3	3	FLOOD	PASS	FLOOD	CAMEL	-1	[0, 0, 0]	-999	PAL1	3	R1278E
59.26	0.267	245395	PRACTICE_ORIENT	n/a	4	6	WAGON	COTTON	COTTON	WAGON	-1	[0, 0, 0]	-999	PAL1	3	R1278E
59.527	0.65	245662	PRACTICE_ORIENT_OFF	n/a	4	6	WAGON	COTTON	COTTON	WAGON	-1	[0, 0, 0]	-999	PAL1	3	R1278E
60.177	4.017	246312	PRACTICE_PAIR	n/a	4	6	WAGON	COTTON	COTTON	WAGON	-1	[0, 0, 0]	-999	PAL1	3	R1278E
64.194	1.017	250329	PRACTICE_PAIR_OFF	n/a	4	6	WAGON	COTTON	COTTON	WAGON	-1	[0, 0, 0]	-999	PAL1	3	R1278E
65.211	0.267	251346	PRACTICE_ORIENT	n/a	5	1	BEAM	RHINO	RHINO	BEAM	-1	[0, 0, 0]	-999	PAL1	3	R1278E
65.478	0.75	251613	PRACTICE_ORIENT_OFF	n/a	5	1	BEAM	RHINO	RHINO	BEAM	-1	[0, 0, 0]	-999	PAL1	3	R1278E
66.228	4.017	252363	PRACTICE_PAIR	n/a	5	1	BEAM	RHINO	RHINO	BEAM	-1	[0, 0, 0]	-999	PAL1	3	R1278E
70.245	1.017	256380	PRACTICE_PAIR_OFF	n/a	5	1	BEAM	RHINO	RHINO	BEAM	-1	[0, 0, 0]	-999	PAL1	3	R1278E
71.262	0.267	257397	PRACTICE_ORIENT	n/a	6	2	CHEST	ATTIC	CHEST	ATTIC	-1	[0, 0, 0]	-999	PAL1	3	R1278E
71.529	0.733	257664	PRACTICE_ORIENT_OFF	n/a	6	2	CHEST	ATTIC	CHEST	ATTIC	-1	[0, 0, 0]	-999	PAL1	3	R1278E
72.262	4.018	258397	PRACTICE_PAIR	n/a	6	2	CHEST	ATTIC	CHEST	ATTIC	-1	[0, 0, 0]	-999	PAL1	3	R1278E
76.28	1.001	262414	PRACTICE_PAIR_OFF	n/a	6	2	CHEST	ATTIC	CHEST	ATTIC	-1	[0, 0, 0]	-999	PAL1	3	R1278E
77.281	0.0	263415	ENCODING_END	n/a	-999	-999	n/a	n/a	n/a	n/a	-1	[0, 0, 0]	-999	PAL1	3	R1278E
77.281	0.001	263415	MATH_START	n/a	-999	-999	n/a	n/a	n/a	n/a	-1	[0, 0, 0]	-999	PAL1	3	R1278E
77.282	0.014	263416	START	n/a	-999	-999	n/a	n/a	n/a	n/a	-1	[-999, -999, -999]	-999	PAL1	3	R1278E
77.296	3.751	263430	PROB	3726	-999	-999	n/a	n/a	n/a	n/a	-1	[4, 6, 1]	11	PAL1	3	R1278E
81.047	4.768	267181	PROB	4735	-999	-999	n/a	n/a	n/a	n/a	-1	[8, 6, 3]	17	PAL1	3	R1278E
85.815	5.067	271949	PROB	5032	-999	-999	n/a	n/a	n/a	n/a	-1	[8, 8, 7]	23	PAL1	3	R1278E
90.882	5.418	277016	PROB	5390	-999	-999	n/a	n/a	n/a	n/a	-1	[8, 7, 1]	16	PAL1	3	R1278E
96.3	7.04	282434	PROB	7040	-999	-999	n/a	n/a	n/a	n/a	-1	[8, 9, 2]	19	PAL1	3	R1278E
103.34	0.011	289473	STOP	n/a	-999	-999	n/a	n/a	n/a	n/a	-1	[-999, -999, -999]	-999	PAL1	3	R1278E
103.351	0.0	289484	MATH_END	n/a	-999	-999	n/a	n/a	n/a	n/a	-1	[0, 0, 0]	-999	PAL1	3	R1278E
103.351	0.017	289484	RECALL_START	n/a	-999	-999	n/a	n/a	n/a	n/a	-1	[0, 0, 0]	-999	PAL1	3	R1278E
103.368	0.266	289501	PRACTICE_RETRIEVAL_ORIENT	n/a	5	1	BEAM	RHINO	RHINO	BEAM	-1	[0, 0, 0]	-999	PAL1	3	R1278E
103.634	0.634	289767	PRACTICE_RETRIEVAL_ORIENT_OFF	n/a	5	1	BEAM	RHINO	RHINO	BEAM	-1	[0, 0, 0]	-999	PAL1	3	R1278E
104.268	0.001	290401	PRACTICE_PROBE	n/a	5	1	BEAM	RHINO	RHINO	BEAM	-1	[0, 0, 0]	-999	PAL1	3	R1278E
104.269	2.084	290402	REC_START	n/a	5	-999	n/a	RHINO	n/a	n/a	-1	[0, 0, 0]	-999	PAL1	3	R1278E
106.353	1.932	292486	REC_EVENT	2084	5	1	BEAM	RHINO	RHINO	BEAM	-1	[0, 0, 0]	-999	PAL1	3	R1278E
108.285	1.0	294418	PROBE_OFF	n/a	5	-999	n/a	n/a	n/a	n/a	-1	[0, 0, 0]	-999	PAL1	3	R1278E
109.285	0.017	295418	REC_END	n/a	5	-999	n/a	n/a	n/a	n/a	-1	[0, 0, 0]	-999	PAL1	3	R1278E
109.302	0.266	295435	PRACTICE_RETRIEVAL_ORIENT	n/a	6	2	CHEST	ATTIC	CHEST	ATTIC	-1	[0, 0, 0]	-999	PAL1	3	R1278E
109.568	0.668	295701	PRACTICE_RETRIEVAL_ORIENT_OFF	n/a	6	2	CHEST	ATTIC	CHEST	ATTIC	-1	[0, 0, 0]	-999	PAL1	3	R1278E
110.236	0.0	296369	REC_START	n/a	6	-999	n/a	ATTIC	n/a	n/a	-1	[0, 0, 0]	-999	PAL1	3	R1278E
110.236	2.614	296369	PRACTICE_PROBE	n/a	6	2	CHEST	ATTIC	CHEST	ATTIC	-1	[0, 0, 0]	-999	PAL1	3	R1278E
112.85	1.403	298983	REC_EVENT	2614	6	2	CHEST	ATTIC	CHEST	ATTIC	-1	[0, 0, 0]	-999	PAL1	3	R1278E
114.253	1.0	300386	PROBE_OFF	n/a	6	-999	n/a	n/a	n/a	n/a	-1	[0, 0, 0]	-999	PAL1	3	R1278E
115.253	0.017	301386	REC_END	n/a	6	-999	n/a	n/a	n/a	n/a	-1	[0, 0, 0]	-999	PAL1	3	R1278E
115.27	0.266	301403	PRACTICE_RETRIEVAL_ORIENT	n/a	3	3	FLOOD	PASS	FLOOD	CAMEL	-1	[0, 0, 0]	-999	PAL1	3	R1278E
115.536	0.767	301669	PRACTICE_RETRIEVAL_ORIENT_OFF	n/a	3	3	FLOOD	PASS	FLOOD	CAMEL	-1	[0, 0, 0]	-999	PAL1	3	R1278E
116.303	0.001	302436	PRACTICE_PROBE	n/a	3	3	FLOOD	PASS	FLOOD	CAMEL	-1	[0, 0, 0]	-999	PAL1	3	R1278E
116.304	3.559	302437	REC_START	n/a	3	-999	n/a	PASS	n/a	n/a	-1	[0, 0, 0]	-999	PAL1	3	R1278E
119.863	0.458	305996	REC_EVENT	3559	3	3	FLOOD	PASS	FLOOD	CAMEL	-1	[0, 0, 0]	-999	PAL1	3	R1278E
120.321	1.0	306454	PROBE_OFF	n/a	3	-999	n/a	n/a	n/a	n/a	-1	[0, 0, 0]	-999	PAL1	3	R1278E
121.321	0.016	307454	REC_END	n/a	3	-999	n/a	n/a	n/a	n/a	-1	[0, 0, 0]	-999	PAL1	3	R1278E
121.337	0.267	307470	PRACTICE_RETRIEVAL_ORIENT	n/a	2	4	RING	PASS	RING	TONGUE	-1	[0, 0, 0]	-999	PAL1	3	R1278E
121.604	0.734	307737	PRACTICE_RETRIEVAL_ORIENT_OFF	n/a	2	4	RING	PASS	RING	TONGUE	-1	[0, 0, 0]	-999	PAL1	3	R1278E
122.338	0.0	308471	PRACTICE_PROBE	n/a	2	4	RING	PASS	RING	TONGUE	-1	[0, 0, 0]	-999	PAL1	3	R1278E
122.338	1.799	308471	REC_START	n/a	2	-999	n/a	PASS	n/a	n/a	-1	[0, 0, 0]	-999	PAL1	3	R1278E
124.137	0.762	310270	REC_EVENT	1799	2	4	RING	<>	RING	TONGUE	-1	[0, 0, 0]	-999	PAL1	3	R1278E
124.899	1.0	311032	REC_EVENT	2561	2	4	RING	<>	RING	TONGUE	-1	[0, 0, 0]	-999	PAL1	3	R1278E
125.899	0.352	312031	REC_EVENT	3561	2	4	RING	<>	RING	TONGUE	-1	[0, 0, 0]	-999	PAL1	3	R1278E
126.251	0.104	312383	REC_EVENT	3913	2	4	RING	PASS	RING	TONGUE	-1	[0, 0, 0]	-999	PAL1	3	R1278E
126.355	1.0	312487	PROBE_OFF	n/a	2	-999	n/a	n/a	n/a	n/a	-1	[0, 0, 0]	-999	PAL1	3	R1278E
127.355	0.017	313487	REC_END	n/a	2	-999	n/a	n/a	n/a	n/a	-1	[0, 0, 0]	-999	PAL1	3	R1278E
127.372	0.267	313504	PRACTICE_RETRIEVAL_ORIENT	n/a	1	5	WATCH	n/a	IRON	WATCH	-1	[0, 0, 0]	-999	PAL1	3	R1278E
127.639	0.55	313771	PRACTICE_RETRIEVAL_ORIENT_OFF	n/a	1	5	WATCH	n/a	IRON	WATCH	-1	[0, 0, 0]	-999	PAL1	3	R1278E
128.189	0.0	314321	PRACTICE_PROBE	n/a	1	5	WATCH	n/a	IRON	WATCH	-1	[0, 0, 0]	-999	PAL1	3	R1278E
128.189	4.017	314321	REC_START	n/a	1	-999	n/a	n/a	n/a	n/a	-1	[0, 0, 0]	-999	PAL1	3	R1278E
132.206	0.998	318338	PROBE_OFF	n/a	1	-999	n/a	n/a	n/a	n/a	-1	[0, 0, 0]	-999	PAL1	3	R1278E
133.204	0.002	319336	REC_EVENT	5015	1	5	WATCH	<>	IRON	WATCH	-1	[0, 0, 0]	-999	PAL1	3	R1278E
133.206	0.017	319338	REC_END	n/a	1	-999	n/a	n/a	n/a	n/a	-1	[0, 0, 0]	-999	PAL1	3	R1278E
133.223	0.267	319355	PRACTICE_RETRIEVAL_ORIENT	n/a	4	6	WAGON	COTTON	COTTON	WAGON	-1	[0, 0, 0]	-999	PAL1	3	R1278E
133.49	0.566	319622	PRACTICE_RETRIEVAL_ORIENT_OFF	n/a	6	6	WAGON	COTTON	COTTON	WAGON	-1	[0, 0, 0]	-999	PAL1	3	R1278E
134.056	0.001	320188	PRACTICE_PROBE	n/a	4	6	WAGON	COTTON	COTTON	WAGON	-1	[0, 0, 0]	-999	PAL1	3	R1278E
134.057	0.844	320189	REC_START	n/a	4	-999	n/a	COTTON	n/a	n/a	-1	[0, 0, 0]	-999	PAL1	3	R1278E
134.901	0.86	321033	REC_EVENT	844	4	6	WAGON	<>	COTTON	WAGON	-1	[0, 0, 0]	-999	PAL1	3	R1278E
135.761	2.313	321893	REC_EVENT	1704	4	6	WAGON	COTTON	COTTON	WAGON	-1	[0, 0, 0]	-999	PAL1	3	R1278E
138.074	1.0	324206	PROBE_OFF	n/a	4	-999	n/a	n/a	n/a	n/a	-1	[0, 0, 0]	-999	PAL1	3	R1278E
139.074	0.009	325206	REC_END	n/a	4	-999	n/a	n/a	n/a	n/a	-1	[0, 0, 0]	-999	PAL1	3	R1278E
139.083	8.076	325215	RECALL_END	n/a	-999	-999	n/a	n/a	n/a	n/a	-1	[0, 0, 0]	-999	PAL1	3	R1278E
147.159	10.929	333291	TRIAL	n/a	-999	-999	n/a	n/a	n/a	n/a	1	[0, 0, 0]	-999	PAL1	3	R1278E
158.088	0.006	344219	ENCODING_START	n/a	-999	-999	n/a	n/a	n/a	n/a	1	[0, 0, 0]	-999	PAL1	3	R1278E
158.094	0.267	344225	STUDY_ORIENT	n/a	1	5	WEB	PASS	WEB	MUD	1	[0, 0, 0]	-999	PAL1	3	R1278E
158.361	0.616	344492	STUDY_ORIENT_OFF	n/a	1	5	WEB	PASS	WEB	MUD	1	[0, 0, 0]	-999	PAL1	3	R1278E
158.977	4.018	345108	STUDY_PAIR	n/a	1	5	WEB	PASS	WEB	MUD	1	[0, 0, 0]	-999	PAL1	3	R1278E
162.995	1.017	349126	PAIR_OFF	n/a	1	5	WEB	PASS	WEB	MUD	1	[0, 0, 0]	-999	PAL1	3	R1278E
164.012	0.266	350143	STUDY_ORIENT	n/a	2	4	CANE	BATH	BATH	CANE	1	[0, 0, 0]	-999	PAL1	3	R1278E
164.278	0.75	350409	STUDY_ORIENT_OFF	n/a	2	4	CANE	BATH	BATH	CANE	1	[0, 0, 0]	-999	PAL1	3	R1278E
165.028	4.018	351159	STUDY_PAIR	n/a	2	4	CANE	BATH	BATH	CANE	1	[0, 0, 0]	-999	PAL1	3	R1278E
169.046	1.017	355177	PAIR_OFF	n/a	2	4	CANE	BATH	BATH	CANE	1	[0, 0, 0]	-999	PAL1	3	R1278E
170.063	0.266	356194	STUDY_ORIENT	n/a	3	3	MAP	PASS	MAP	CASH	1	[0, 0, 0]	-999	PAL1	3	R1278E
170.329	0.684	356460	STUDY_ORIENT_OFF	n/a	3	3	MAP	PASS	MAP	CASH	1	[0, 0, 0]	-999	PAL1	3	R1278E
171.013	4.017	357144	STUDY_PAIR	n/a	3	3	MAP	PASS	MAP	CASH	1	[0, 0, 0]	-999	PAL1	3	R1278E
175.03	1.017	361161	PAIR_OFF	n/a	3	3	MAP	PASS	MAP	CASH	1	[0, 0, 0]	-999	PAL1	3	R1278E
176.047	0.267	362178	STUDY_ORIENT	n/a	4	6	HAT	FUDGE	HAT	FUDGE	1	[0, 0, 0]	-999	PAL1	3	R1278E
176.314	0.667	362445	STUDY_ORIENT_OFF	n/a	4	6	HAT	FUDGE	HAT	FUDGE	1	[0, 0, 0]	-999	PAL1	3	R1278E
176.981	4.017	363111	STUDY_PAIR	n/a	4	6	HAT	FUDGE	HAT	FUDGE	1	[0, 0, 0]	-999	PAL1	3	R1278E
180.998	1.017	367128	PAIR_OFF	n/a	4	6	HAT	FUDGE	HAT	FUDGE	1	[0, 0, 0]	-999	PAL1	3	R1278E
182.015	0.267	368145	STUDY_ORIENT	n/a	5	1	EEL	DART	EEL	DART	1	[0, 0, 0]	-999	PAL1	3	R1278E
182.282	0.733	368412	STUDY_ORIENT_OFF	n/a	5	1	EEL	DART	EEL	DART	1	[0, 0, 0]	-999	PAL1	3	R1278E
183.015	4.017	369145	STUDY_PAIR	n/a	5	1	EEL	DART	EEL	DART	1	[0, 0, 0]	-999	PAL1	3	R1278E
187.032	1.017	373162	PAIR_OFF	n/a	5	1	EEL	DART	EEL	DART	1	[0, 0, 0]	-999	PAL1	3	R1278E
188.049	0.267	374179	STUDY_ORIENT	n/a	6	2	TOE	SHOE	SHOE	TOE	1	[0, 0, 0]	-999	PAL1	3	R1278E
188.316	0.683	374446	STUDY_ORIENT_OFF	n/a	6	2	TOE	SHOE	SHOE	TOE	1	[0, 0, 0]	-999	PAL1	3	R1278E
188.999	4.018	375129	STUDY_PAIR	n/a	6	2	TOE	SHOE	SHOE	TOE	1	[0, 0, 0]	-999	PAL1	3	R1278E
193.017	1.001	379147	PAIR_OFF	n/a	6	2	TOE	SHOE	SHOE	TOE	1	[0, 0, 0]	-999	PAL1	3	R1278E
194.018	0.0	380148	ENCODING_END	n/a	-999	-999	n/a	n/a	n/a	n/a	1	[0, 0, 0]	-999	PAL1	3	R1278E
194.018	0.0	380148	MATH_START	n/a	-999	-999	n/a	n/a	n/a	n/a	1	[0, 0, 0]	-999	PAL1	3	R1278E
194.018	0.016	380148	START	n/a	-999	-999	n/a	n/a	n/a	n/a	1	[-999, -999, -999]	-999	PAL1	3	R1278E
194.034	3.483	380164	PROB	3459	-999	-999	n/a	n/a	n/a	n/a	1	[4, 7, 1]	12	PAL1	3	R1278E
197.517	3.468	383647	PROB	3433	-999	-999	n/a	n/a	n/a	n/a	1	[9, 2, 9]	20	PAL1	3	R1278E
200.985	6.301	387115	PROB	6271	-999	-999	n/a	n/a	n/a	n/a	1	[8, 9, 5]	22	PAL1	3	R1278E
207.286	2.9	393415	PROB	2867	-999	-999	n/a	n/a	n/a	n/a	1	[3, 1, 8]	12	PAL1	3	R1278E
210.186	4.83	396315	PROB	4830	-999	-999	n/a	n/a	n/a	n/a	1	[9, 7, 3]	19	PAL1	3	R1278E
215.016	0.004	401145	STOP	n/a	-999	-999	n/a	n/a	n/a	n/a	1	[-999, -999, -999]	-999	PAL1	3	R1278E
215.02	0.001	401149	MATH_END	n/a	-999	-999	n/a	n/a	n/a	n/a	1	[0, 0, 0]	-999	PAL1	3	R1278E
215.021	0.016	401150	RECALL_START	n/a	-999	-999	n/a	n/a	n/a	n/a	1	[0, 0, 0]	-999	PAL1	3	R1278E
215.037	0.267	401166	TEST_ORIENT	n/a	5	1	EEL	DART	EEL	DART	1	[0, 0, 0]	-999	PAL1	3	R1278E
215.304	0.517	401433	RETRIEVAL_ORIENT_OFF	n/a	-999	-999	n/a	n/a	n/a	n/a	1	[0, 0, 0]	-999	PAL1	3	R1278E
215.821	0.0	401950	TEST_PROBE	n/a	5	1	EEL	DART	EEL	DART	1	[0, 0, 0]	-999	PAL1	3	R1278E
215.821	1.824	401950	REC_START	n/a	5	-999	n/a	DART	n/a	n/a	1	[0, 0, 0]	-999	PAL1	3	R1278E
217.645	2.193	403774	REC_EVENT	1824	5	1	EEL	DART	EEL	DART	1	[0, 0, 0]	-999	PAL1	3	R1278E
219.838	1.0	405967	PROBE_OFF	n/a	5	-999	n/a	n/a	n/a	n/a	1	[0, 0, 0]	-999	PAL1	3	R1278E
220.838	0.017	406967	REC_END	n/a	5	-999	n/a	n/a	n/a	n/a	1	[0, 0, 0]	-999	PAL1	3	R1278E
220.855	0.267	406984	TEST_ORIENT	n/a	6	2	TOE	SHOE	SHOE	TOE	1	[0, 0, 0]	-999	PAL1	3	R1278E
221.122	0.766	407251	RETRIEVAL_ORIENT_OFF	n/a	5	-999	n/a	n/a	n/a	n/a	1	[0, 0, 0]	-999	PAL1	3	R1278E
221.888	0.001	408017	TEST_PROBE	n/a	6	2	TOE	SHOE	SHOE	TOE	1	[0, 0, 0]	-999	PAL1	3	R1278E
221.889	0.9	408018	REC_START	n/a	6	-999	n/a	SHOE	n/a	n/a	1	[0, 0, 0]	-999	PAL1	3	R1278E
222.789	3.117	408918	REC_EVENT	900	6	2	TOE	SHOE	SHOE	TOE	1	[0, 0, 0]	-999	PAL1	3	R1278E
225.906	1.0	412035	PROBE_OFF	n/a	6	-999	n/a	n/a	n/a	n/a	1	[0, 0, 0]	-999	PAL1	3	R1278E
226.906	0.017	413035	REC_END	n/a	6	-999	n/a	n/a	n/a	n/a	1	[0, 0, 0]	-999	PAL1	3	R1278E
226.923	0.266	413052	TEST_ORIENT	n/a	3	3	MAP	PASS	MAP	CASH	1	[0, 0, 0]	-999	PAL1	3	R1278E
227.189	0.667	413318	RETRIEVAL_ORIENT_OFF	n/a	6	-999	n/a	n/a	n/a	n/a	1	[0, 0, 0]	-999	PAL1	3	R1278E
227.856	0.001	413985	TEST_PROBE	n/a	3	3	MAP	PASS	MAP	CASH	1	[0, 0, 0]	-999	PAL1	3	R1278E
227.857	3.464	413986	REC_START	n/a	3	-999	n/a	PASS	n/a	n/a	1	[0, 0, 0]	-999	PAL1	3	R1278E
231.321	0.552	417449	REC_EVENT	3464	3	3	MAP	PASS	MAP	CASH	1	[0, 0, 0]	-999	PAL1	3	R1278E
231.873	1.0	418001	PROBE_OFF	n/a	3	-999	n/a	n/a	n/a	n/a	1	[0, 0, 0]	-999	PAL1	3	R1278E
232.873	0.017	419001	REC_END	n/a	3	-999	n/a	n/a	n/a	n/a	1	[0, 0, 0]	-999	PAL1	3	R1278E
232.89	0.267	419018	TEST_ORIENT	n/a	2	4	CANE	BATH	BATH	CANE	1	[0, 0, 0]	-999	PAL1	3	R1278E
233.157	0.567	419285	RETRIEVAL_ORIENT_OFF	n/a	3	-999	n/a	n/a	n/a	n/a	1	[0, 0, 0]	-999	PAL1	3	R1278E
233.724	0.0	419852	REC_START	n/a	2	-999	n/a	BATH	n/a	n/a	1	[0, 0, 0]	-999	PAL1	3	R1278E
233.724	1.315	419852	TEST_PROBE	n/a	2	4	CANE	BATH	BATH	CANE	1	[0, 0, 0]	-999	PAL1	3	R1278E
235.039	2.702	421167	REC_EVENT	1315	2	4	CANE	BATH	BATH	CANE	1	[0, 0, 0]	-999	PAL1	3	R1278E
237.741	1.001	423869	PROBE_OFF	n/a	2	-999	n/a	n/a	n/a	n/a	1	[0, 0, 0]	-999	PAL1	3	R1278E
238.742	0.016	424870	REC_END	n/a	2	-999	n/a	n/a	n/a	n/a	1	[0, 0, 0]	-999	PAL1	3	R1278E
238.758	0.267	424886	TEST_ORIENT	n/a	1	5	WEB	PASS	WEB	MUD	1	[0, 0, 0]	-999	PAL1	3	R1278E
239.025	0.65	425153	RETRIEVAL_ORIENT_OFF	n/a	2	-999	n/a	n/a	n/a	n/a	1	[0, 0, 0]	-999	PAL1	3	R1278E
239.675	0.0	425803	TEST_PROBE	n/a	1	5	WEB	PASS	WEB	MUD	1	[0, 0, 0]	-999	PAL1	3	R1278E
239.675	3.674	425803	REC_START	n/a	1	-999	n/a	PASS	n/a	n/a	1	[0, 0, 0]	-999	PAL1	3	R1278E
243.349	0.343	429477	REC_EVENT	3674	1	5	WEB	PASS	WEB	MUD	1	[0, 0, 0]	-999	PAL1	3	R1278E
243.692	1.0	429820	PROBE_OFF	n/a	1	-999	n/a	n/a	n/a	n/a	1	[0, 0, 0]	-999	PAL1	3	R1278E
244.692	0.017	430820	REC_END	n/a	1	-999	n/a	n/a	n/a	n/a	1	[0, 0, 0]	-999	PAL1	3	R1278E
244.709	0.267	430837	TEST_ORIENT	n/a	4	6	HAT	FUDGE	HAT	FUDGE	1	[0, 0, 0]	-999	PAL1	3	R1278E
244.976	0.667	431104	RETRIEVAL_ORIENT_OFF	n/a	1	-999	n/a	n/a	n/a	n/a	1	[0, 0, 0]	-999	PAL1	3	R1278E
245.643	0.0	431771	TEST_PROBE	n/a	4	6	HAT	FUDGE	HAT	FUDGE	1	[0, 0, 0]	-999	PAL1	3	R1278E
245.643	1.139	431771	REC_START	n/a	4	-999	n/a	FUDGE	n/a	n/a	1	[0, 0, 0]	-999	PAL1	3	R1278E
246.782	2.878	432910	REC_EVENT	1139	4	6	HAT	FUDGE	HAT	FUDGE	1	[0, 0, 0]	-999	PAL1	3	R1278E
249.66	1.0	435788	PROBE_OFF	n/a	4	-999	n/a	n/a	n/a	n/a	1	[0, 0, 0]	-999	PAL1	3	R1278E
250.66	0.004	436788	REC_END	n/a	4	-999	n/a	n/a	n/a	n/a	1	[0, 0, 0]	-999	PAL1	3	R1278E
250.664	4.247	436792	RECALL_END	n/a	-999	-999	n/a	n/a	n/a	n/a	1	[0, 0, 0]	-999	PAL1	3	R1278E
254.911	10.929	441038	TRIAL	n/a	-999	-999	n/a	n/a	n/a	n/a	2	[0, 0, 0]	-999	PAL1	3	R1278E
265.84	0.006	451967	ENCODING_START	n/a	-999	-999	n/a	n/a	n/a	n/a	2	[0, 0, 0]	-999	PAL1	3	R1278E
265.846	0.267	451973	STUDY_ORIENT	n/a	1	3	GEESE	SEAT	SEAT	GEESE	2	[0, 0, 0]	-999	PAL1	3	R1278E
266.113	0.7	452240	STUDY_ORIENT_OFF	n/a	1	3	GEESE	SEAT	SEAT	GEESE	2	[0, 0, 0]	-999	PAL1	3	R1278E
266.813	4.017	452940	STUDY_PAIR	n/a	1	3	GEESE	SEAT	SEAT	GEESE	2	[0, 0, 0]	-999	PAL1	3	R1278E
270.83	1.017	456957	PAIR_OFF	n/a	1	3	GEESE	SEAT	SEAT	GEESE	2	[0, 0, 0]	-999	PAL1	3	R1278E
271.847	0.267	457974	STUDY_ORIENT	n/a	2	6	DIME	CROWN	CROWN	DIME	2	[0, 0, 0]	-999	PAL1	3	R1278E
272.114	0.55	458241	STUDY_ORIENT_OFF	n/a	2	6	DIME	CROWN	CROWN	DIME	2	[0, 0, 0]	-999	PAL1	3	R1278E
272.664	4.017	458791	STUDY_PAIR	n/a	2	6	DIME	CROWN	CROWN	DIME	2	[0, 0, 0]	-999	PAL1	3	R1278E
276.681	1.017	462808	PAIR_OFF	n/a	2	6	DIME	CROWN	CROWN	DIME	2	[0, 0, 0]	-999	PAL1	3	R1278E
277.698	0.267	463825	STUDY_ORIENT	n/a	3	5	PIG	PASS	PIG	SPARK	2	[0, 0, 0]	-999	PAL1	3	R1278E
277.965	0.633	464092	STUDY_ORIENT_OFF	n/a	3	5	PIG	PASS	PIG	SPARK	2	[0, 0, 0]	-999	PAL1	3	R1278E
278.598	4.018	464725	STUDY_PAIR	n/a	3	5	PIG	PASS	PIG	SPARK	2	[0, 0, 0]	-999	PAL1	3	R1278E
282.616	1.016	468742	PAIR_OFF	n/a	3	5	PIG	PASS	PIG	SPARK	2	[0, 0, 0]	-999	PAL1	3	R1278E
283.632	0.267	469758	STUDY_ORIENT	n/a	4	2	WHALE	BRUSH	WHALE	BRUSH	2	[0, 0, 0]	-999	PAL1	3	R1278E
283.899	0.55	470025	STUDY_ORIENT_OFF	n/a	4	2	WHALE	BRUSH	WHALE	BRUSH	2	[0, 0, 0]	-999	PAL1	3	R1278E
284.449	4.018	470575	STUDY_PAIR	n/a	4	2	WHALE	BRUSH	WHALE	BRUSH	2	[0, 0, 0]	-999	PAL1	3	R1278E
288.467	1.017	474593	PAIR_OFF	n/a	4	2	WHALE	BRUSH	WHALE	BRUSH	2	[0, 0, 0]	-999	PAL1	3	R1278E
289.484	0.266	475610	STUDY_ORIENT	n/a	5	1	SWAMP	PASS	TOAST	SWAMP	2	[0, 0, 0]	-999	PAL1	3	R1278E
289.75	0.634	475876	STUDY_ORIENT_OFF	n/a	5	1	SWAMP	PASS	TOAST	SWAMP	2	[0, 0, 0]	-999	PAL1	3	R1278E
290.384	4.017	476510	STUDY_PAIR	n/a	5	1	SWAMP	PASS	TOAST	SWAMP	2	[0, 0, 0]	-999	PAL1	3	R1278E
294.401	1.017	480527	PAIR_OFF	n/a	5	1	SWAMP	PASS	TOAST	SWAMP	2	[0, 0, 0]	-999	PAL1	3	R1278E
295.418	0.267	481544	STUDY_ORIENT	n/a	6	4	JAR	n/a	JAR	WALL	2	[0, 0, 0]	-999	PAL1	3	R1278E
295.685	0.616	481811	STUDY_ORIENT_OFF	n/a	6	4	JAR	n/a	JAR	WALL	2	[0, 0, 0]	-999	PAL1	3	R1278E
296.301	4.018	482427	STUDY_PAIR	n/a	6	4	JAR	n/a	JAR	WALL	2	[0, 0, 0]	-999	PAL1	3	R1278E
300.319	1.0	486445	PAIR_OFF	n/a	6	4	JAR	n/a	JAR	WALL	2	[0, 0, 0]	-999	PAL1	3	R1278E
301.319	0.0	487445	MATH_START	n/a	-999	-999	n/a	n/a	n/a	n/a	2	[0, 0, 0]	-999	PAL1	3	R1278E
301.319	0.001	487445	ENCODING_END	n/a	-999	-999	n/a	n/a	n/a	n/a	2	[0, 0, 0]	-999	PAL1	3	R1278E
301.32	0.016	487446	START	n/a	-999	-999	n/a	n/a	n/a	n/a	2	[-999, -999, -999]	-999	PAL1	3	R1278E
301.336	2.417	487462	PROB	2394	-999	-999	n/a	n/a	n/a	n/a	2	[1, 4, 1]	6	PAL1	3	R1278E
303.753	2.9	489879	PROB	2866	-999	-999	n/a	n/a	n/a	n/a	2	[6, 6, 1]	13	PAL1	3	R1278E
306.653	2.684	492778	PROB	2646	-999	-999	n/a	n/a	n/a	n/a	2	[9, 3, 9]	21	PAL1	3	R1278E
309.337	8.234	495462	PROB	8209	-999	-999	n/a	n/a	n/a	n/a	2	[8, 5, 4]	17	PAL1	3	R1278E
317.571	1.968	503696	PROB	1935	-999	-999	n/a	n/a	n/a	n/a	2	[1, 2, 5]	8	PAL1	3	R1278E
319.539	4.943	505664	PROB	4943	-999	-999	n/a	n/a	n/a	n/a	2	[4, 9, 7]	20	PAL1	3	R1278E
324.482	0.008	510607	STOP	n/a	-999	-999	n/a	n/a	n/a	n/a	2	[-999, -999, -999]	-999	PAL1	3	R1278E
324.49	0.0	510615	MATH_END	n/a	-999	-999	n/a	n/a	n/a	n/a	2	[0, 0, 0]	-999	PAL1	3	R1278E
324.49	0.016	510615	RECALL_START	n/a	-999	-999	n/a	n/a	n/a	n/a	2	[0, 0, 0]	-999	PAL1	3	R1278E
324.506	0.267	510631	TEST_ORIENT	n/a	5	1	SWAMP	PASS	TOAST	SWAMP	2	[0, 0, 0]	-999	PAL1	3	R1278E
324.773	0.634	510898	RETRIEVAL_ORIENT_OFF	n/a	-999	-999	n/a	n/a	n/a	n/a	2	[0, 0, 0]	-999	PAL1	3	R1278E
325.407	0.0	511532	TEST_PROBE	n/a	5	1	SWAMP	PASS	TOAST	SWAMP	2	[0, 0, 0]	-999	PAL1	3	R1278E
325.407	4.017	511532	REC_START	n/a	5	-999	n/a	PASS	n/a	n/a	2	[0, 0, 0]	-999	PAL1	3	R1278E
329.424	0.262	515549	PROBE_OFF	n/a	5	-999	n/a	n/a	n/a	n/a	2	[0, 0, 0]	-999	PAL1	3	R1278E
329.686	0.738	515811	REC_EVENT	4279	5	1	SWAMP	PASS	TOAST	SWAMP	2	[0, 0, 0]	-999	PAL1	3	R1278E
330.424	0.017	516549	REC_END	n/a	5	-999	n/a	n/a	n/a	n/a	2	[0, 0, 0]	-999	PAL1	3	R1278E
330.441	0.266	516566	TEST_ORIENT	n/a	4	2	WHALE	BRUSH	WHALE	BRUSH	2	[0, 0, 0]	-999	PAL1	3	R1278E
330.707	0.717	516832	RETRIEVAL_ORIENT_OFF	n/a	5	-999	n/a	n/a	n/a	n/a	2	[0, 0, 0]	-999	PAL1	3	R1278E
331.424	0.001	517548	TEST_PROBE	n/a	4	2	WHALE	BRUSH	WHALE	BRUSH	2	[0, 0, 0]	-999	PAL1	3	R1278E
331.425	1.22	517549	REC_START	n/a	4	-999	n/a	BRUSH	n/a	n/a	2	[0, 0, 0]	-999	PAL1	3	R1278E
332.645	2.797	518769	REC_EVENT	1220	4	2	WHALE	BRUSH	WHALE	BRUSH	2	[0, 0, 0]	-999	PAL1	3	R1278E
335.442	1.001	521566	PROBE_OFF	n/a	4	-999	n/a	n/a	n/a	n/a	2	[0, 0, 0]	-999	PAL1	3	R1278E
336.443	0.015	522567	REC_END	n/a	4	-999	n/a	n/a	n/a	n/a	2	[0, 0, 0]	-999	PAL1	3	R1278E
336.458	0.267	522582	TEST_ORIENT	n/a	1	3	GEESE	SEAT	SEAT	GEESE	2	[0, 0, 0]	-999	PAL1	3	R1278E
336.725	0.717	522849	RETRIEVAL_ORIENT_OFF	n/a	4	-999	n/a	n/a	n/a	n/a	2	[0, 0, 0]	-999	PAL1	3	R1278E
337.442	0.0	523566	TEST_PROBE	n/a	1	3	GEESE	SEAT	SEAT	GEESE	2	[0, 0, 0]	-999	PAL1	3	R1278E
337.442	2.014	523566	REC_START	n/a	1	-999	n/a	SEAT	n/a	n/a	2	[0, 0, 0]	-999	PAL1	3	R1278E
339.456	2.003	525580	REC_EVENT	2014	1	3	GEESE	SEAT	SEAT	GEESE	2	[0, 0, 0]	-999	PAL1	3	R1278E
341.459	1.0	527583	PROBE_OFF	n/a	1	-999	n/a	n/a	n/a	n/a	2	[0, 0, 0]	-999	PAL1	3	R1278E
342.459	0.017	528583	REC_END	n/a	1	-999	n/a	n/a	n/a	n/a	2	[0, 0, 0]	-999	PAL1	3	R1278E
342.476	0.267	528600	TEST_ORIENT	n/a	6	4	JAR	n/a	JAR	WALL	2	[0, 0, 0]	-999	PAL1	3	R1278E
342.743	0.683	528867	RETRIEVAL_ORIENT_OFF	n/a	1	-999	n/a	n/a	n/a	n/a	2	[0, 0, 0]	-999	PAL1	3	R1278E
343.426	0.001	529550	TEST_PROBE	n/a	6	4	JAR	n/a	JAR	WALL	2	[0, 0, 0]	-999	PAL1	3	R1278E
343.427	4.017	529551	REC_START	n/a	6	-999	n/a	n/a	n/a	n/a	2	[0, 0, 0]	-999	PAL1	3	R1278E
347.444	0.983	533568	PROBE_OFF	n/a	6	-999	n/a	n/a	n/a	n/a	2	[0, 0, 0]	-999	PAL1	3	R1278E
348.427	0.018	534551	REC_EVENT	5000	6	4	JAR	<>	JAR	WALL	2	[0, 0, 0]	-999	PAL1	3	R1278E
348.445	0.016	534569	REC_END	n/a	6	-999	n/a	n/a	n/a	n/a	2	[0, 0, 0]	-999	PAL1	3	R1278E
348.461	0.266	534585	TEST_ORIENT	n/a	3	5	PIG	PASS	PIG	SPARK	2	[0, 0, 0]	-999	PAL1	3	R1278E
348.727	0.734	534851	RETRIEVAL_ORIENT_OFF	n/a	6	-999	n/a	n/a	n/a	n/a	2	[0, 0, 0]	-999	PAL1	3	R1278E
349.461	0.0	535585	TEST_PROBE	n/a	3	5	PIG	PASS	PIG	SPARK	2	[0, 0, 0]	-999	PAL1	3	R1278E
349.461	2.479	535585	REC_START	n/a	3	-999	n/a	PASS	n/a	n/a	2	[0, 0, 0]	-999	PAL1	3	R1278E
351.94	0.66	538064	REC_EVENT	2479	3	5	PIG	<>	PIG	SPARK	2	[0, 0, 0]	-999	PAL1	3	R1278E
352.6	0.878	538724	REC_EVENT	3139	3	5	PIG	PASS	PIG	SPARK	2	[0, 0, 0]	-999	PAL1	3	R1278E
353.478	1.001	539602	PROBE_OFF	n/a	3	-999	n/a	n/a	n/a	n/a	2	[0, 0, 0]	-999	PAL1	3	R1278E
354.479	0.016	540603	REC_END	n/a	3	-999	n/a	n/a	n/a	n/a	2	[0, 0, 0]	-999	PAL1	3	R1278E
354.495	0.267	540619	TEST_ORIENT	n/a	2	6	DIME	CROWN	CROWN	DIME	2	[0, 0, 0]	-999	PAL1	3	R1278E
354.762	0.516	540886	RETRIEVAL_ORIENT_OFF	n/a	3	-999	n/a	n/a	n/a	n/a	2	[0, 0, 0]	-999	PAL1	3	R1278E
355.278	0.001	541402	TEST_PROBE	n/a	2	6	DIME	CROWN	CROWN	DIME	2	[0, 0, 0]	-999	PAL1	3	R1278E
355.279	1.544	541403	REC_START	n/a	2	-999	n/a	CROWN	n/a	n/a	2	[0, 0, 0]	-999	PAL1	3	R1278E
356.823	2.473	542947	REC_EVENT	1544	2	6	DIME	CROWN	CROWN	DIME	2	[0, 0, 0]	-999	PAL1	3	R1278E
359.296	1.0	545419	PROBE_OFF	n/a	2	-999	n/a	n/a	n/a	n/a	2	[0, 0, 0]	-999	PAL1	3	R1278E
360.296	0.009	546419	REC_END	n/a	2	-999	n/a	n/a	n/a	n/a	2	[0, 0, 0]	-999	PAL1	3	R1278E
360.305	5.042	546428	RECALL_END	n/a	-999	-999	n/a	n/a	n/a	n/a	2	[0, 0, 0]	-999	PAL1	3	R1278E
365.347	10.928	551470	TRIAL	n/a	-999	-999	n/a	n/a	n/a	n/a	3	[0, 0, 0]	-999	PAL1	3	R1278E
376.275	0.007	562398	ENCODING_START	n/a	-999	-999	n/a	n/a	n/a	n/a	3	[0, 0, 0]	-999	PAL1	3	R1278E
376.282	0.266	562405	STUDY_ORIENT	n/a	1	5	TEA	JUICE	TEA	JUICE	3	[0, 0, 0]	-999	PAL1	3	R1278E
376.548	0.751	562671	STUDY_ORIENT_OFF	n/a	1	5	TEA	JUICE	TEA	JUICE	3	[0, 0, 0]	-999	PAL1	3	R1278E
377.299	4.017	563422	STUDY_PAIR	n/a	1	5	TEA	JUICE	TEA	JUICE	3	[0, 0, 0]	-999	PAL1	3	R1278E
381.316	1.017	567439	PAIR_OFF	n/a	1	5	TEA	JUICE	TEA	JUICE	3	[0, 0, 0]	-999	PAL1	3	R1278E
382.333	0.267	568456	STUDY_ORIENT	n/a	2	4	PIT	HEART	PIT	HEART	3	[0, 0, 0]	-999	PAL1	3	R1278E
382.6	0.7	568723	STUDY_ORIENT_OFF	n/a	2	4	PIT	HEART	PIT	HEART	3	[0, 0, 0]	-999	PAL1	3	R1278E
383.3	4.017	569422	STUDY_PAIR	n/a	2	4	PIT	HEART	PIT	HEART	3	[0, 0, 0]	-999	PAL1	3	R1278E
387.317	1.017	573439	PAIR_OFF	n/a	2	4	PIT	HEART	PIT	HEART	3	[0, 0, 0]	-999	PAL1	3	R1278E
388.334	0.267	574456	STUDY_ORIENT	n/a	3	3	CORN	n/a	CORN	HEN	3	[0, 0, 0]	-999	PAL1	3	R1278E
388.601	0.683	574723	STUDY_ORIENT_OFF	n/a	3	3	CORN	n/a	CORN	HEN	3	[0, 0, 0]	-999	PAL1	3	R1278E
389.284	4.018	575406	STUDY_PAIR	n/a	3	3	CORN	n/a	CORN	HEN	3	[0, 0, 0]	-999	PAL1	3	R1278E
393.302	1.017	579424	PAIR_OFF	n/a	3	3	CORN	n/a	CORN	HEN	3	[0, 0, 0]	-999	PAL1	3	R1278E
394.319	0.265	580441	STUDY_ORIENT	n/a	4	2	RICE	BARN	RICE	BARN	3	[0, 0, 0]	-999	PAL1	3	R1278E
394.584	0.685	580706	STUDY_ORIENT_OFF	n/a	4	2	RICE	BARN	RICE	BARN	3	[0, 0, 0]	-999	PAL1	3	R1278E
395.269	4.017	581391	STUDY_PAIR	n/a	4	2	RICE	BARN	RICE	BARN	3	[0, 0, 0]	-999	PAL1	3	R1278E
399.286	1.017	585408	PAIR_OFF	n/a	4	2	RICE	BARN	RICE	BARN	3	[0, 0, 0]	-999	PAL1	3	R1278E
400.303	0.266	586425	STUDY_ORIENT	n/a	5	1	TOOL	PASS	TOOL	MOTH	3	[0, 0, 0]	-999	PAL1	3	R1278E
400.569	0.617	586691	STUDY_ORIENT_OFF	n/a	5	1	TOOL	PASS	TOOL	MOTH	3	[0, 0, 0]	-999	PAL1	3	R1278E
401.186	4.018	587308	STUDY_PAIR	n/a	5	1	TOOL	PASS	TOOL	MOTH	3	[0, 0, 0]	-999	PAL1	3	R1278E
405.204	1.017	591326	PAIR_OFF	n/a	5	1	TOOL	PASS	TOOL	MOTH	3	[0, 0, 0]	-999	PAL1	3	R1278E
406.221	0.266	592343	STUDY_ORIENT	n/a	6	6	FLAME	n/a	FOX	FLAME	3	[0, 0, 0]	-999	PAL1	3	R1278E
406.487	0.6	592609	STUDY_ORIENT_OFF	n/a	6	6	FLAME	n/a	FOX	FLAME	3	[0, 0, 0]	-999	PAL1	3	R1278E
407.087	4.018	593209	STUDY_PAIR	n/a	6	6	FLAME	n/a	FOX	FLAME	3	[0, 0, 0]	-999	PAL1	3	R1278E
411.105	1.001	597226	PAIR_OFF	n/a	6	6	FLAME	n/a	FOX	FLAME	3	[0, 0, 0]	-999	PAL1	3	R1278E
412.106	0.0	598227	ENCODING_END	n/a	-999	-999	n/a	n/a	n/a	n/a	3	[0, 0, 0]	-999	PAL1	3	R1278E
412.106	0.0	598227	MATH_START	n/a	-999	-999	n/a	n/a	n/a	n/a	3	[0, 0, 0]	-999	PAL1	3	R1278E
412.106	0.016	598227	START	n/a	-999	-999	n/a	n/a	n/a	n/a	3	[-999, -999, -999]	-999	PAL1	3	R1278E
412.122	4.05	598243	PROB	4013	-999	-999	n/a	n/a	n/a	n/a	3	[2, 4, 7]	13	PAL1	3	R1278E
416.172	3.084	602293	PROB	3059	-999	-999	n/a	n/a	n/a	n/a	3	[6, 4, 2]	12	PAL1	3	R1278E
419.256	3.101	605377	PROB	3071	-999	-999	n/a	n/a	n/a	n/a	3	[1, 3, 9]	13	PAL1	3	R1278E
422.357	4.35	608478	PROB	4322	-999	-999	n/a	n/a	n/a	n/a	3	[8, 7, 2]	17	PAL1	3	R1278E
426.707	4.835	612828	PROB	4812	-999	-999	n/a	n/a	n/a	n/a	3	[5, 8, 6]	19	PAL1	3	R1278E
431.542	5.161	617663	PROB	5161	-999	-999	n/a	n/a	n/a	n/a	3	[2, 6, 7]	15	PAL1	3	R1278E
436.703	0.006	622823	STOP	n/a	-999	-999	n/a	n/a	n/a	n/a	3	[-999, -999, -999]	-999	PAL1	3	R1278E
436.709	0.001	622829	MATH_END	n/a	-999	-999	n/a	n/a	n/a	n/a	3	[0, 0, 0]	-999	PAL1	3	R1278E
436.71	0.016	622830	RECALL_START	n/a	-999	-999	n/a	n/a	n/a	n/a	3	[0, 0, 0]	-999	PAL1	3	R1278E
436.726	0.267	622846	TEST_ORIENT	n/a	5	1	TOOL	PASS	TOOL	MOTH	3	[0, 0, 0]	-999	PAL1	3	R1278E
436.993	0.617	623113	RETRIEVAL_ORIENT_OFF	n/a	-999	-999	n/a	n/a	n/a	n/a	3	[0, 0, 0]	-999	PAL1	3	R1278E
437.61	0.0	623730	TEST_PROBE	n/a	5	1	TOOL	PASS	TOOL	MOTH	3	[0, 0, 0]	-999	PAL1	3	R1278E
437.61	2.794	623730	REC_START	n/a	5	-999	n/a	PASS	n/a	n/a	3	[0, 0, 0]	-999	PAL1	3	R1278E
440.404	1.223	626524	REC_EVENT	2794	5	1	TOOL	PASS	TOOL	MOTH	3	[0, 0, 0]	-999	PAL1	3	R1278E
441.627	1.01	627747	PROBE_OFF	n/a	5	-999	n/a	n/a	n/a	n/a	3	[0, 0, 0]	-999	PAL1	3	R1278E
442.637	0.006	628757	REC_END	n/a	5	-999	n/a	n/a	n/a	n/a	3	[0, 0, 0]	-999	PAL1	3	R1278E
442.643	0.267	628763	TEST_ORIENT	n/a	4	2	RICE	BARN	RICE	BARN	3	[0, 0, 0]	-999	PAL1	3	R1278E
442.91	0.734	629030	RETRIEVAL_ORIENT_OFF	n/a	5	-999	n/a	n/a	n/a	n/a	3	[0, 0, 0]	-999	PAL1	3	R1278E
443.644	0.0	629764	TEST_PROBE	n/a	4	2	RICE	BARN	RICE	BARN	3	[0, 0, 0]	-999	PAL1	3	R1278E
443.644	0.884	629764	REC_START	n/a	4	-999	n/a	BARN	n/a	n/a	3	[0, 0, 0]	-999	PAL1	3	R1278E
444.528	0.23	630648	REC_EVENT	884	4	2	RICE	<>	RICE	BARN	3	[0, 0, 0]	-999	PAL1	3	R1278E
444.758	2.903	630878	REC_EVENT	1114	4	2	RICE	BARN	RICE	BARN	3	[0, 0, 0]	-999	PAL1	3	R1278E
447.661	1.0	633781	PROBE_OFF	n/a	4	-999	n/a	n/a	n/a	n/a	3	[0, 0, 0]	-999	PAL1	3	R1278E
448.661	0.017	634781	REC_END	n/a	4	-999	n/a	n/a	n/a	n/a	3	[0, 0, 0]	-999	PAL1	3	R1278E
448.678	0.267	634798	TEST_ORIENT	n/a	3	3	CORN	n/a	CORN	HEN	3	[0, 0, 0]	-999	PAL1	3	R1278E
448.945	0.583	635065	RETRIEVAL_ORIENT_OFF	n/a	4	-999	n/a	n/a	n/a	n/a	3	[0, 0, 0]	-999	PAL1	3	R1278E
449.528	0.001	635648	TEST_PROBE	n/a	3	3	CORN	n/a	CORN	HEN	3	[0, 0, 0]	-999	PAL1	3	R1278E
449.529	4.017	635649	REC_START	n/a	3	-999	n/a	n/a	n/a	n/a	3	[0, 0, 0]	-999	PAL1	3	R1278E
453.546	1.0	639666	PROBE_OFF	n/a	3	-999	n/a	n/a	n/a	n/a	3	[0, 0, 0]	-999	PAL1	3	R1278E
454.546	0.004	640666	REC_END	n/a	3	-999	n/a	n/a	n/a	n/a	3	[0, 0, 0]	-999	PAL1	3	R1278E
454.55	0.011	640670	REC_EVENT	5021	3	3	CORN	<>	CORN	HEN	3	[0, 0, 0]	-999	PAL1	3	R1278E
454.561	0.251	640681	TEST_ORIENT	n/a	2	4	PIT	HEART	PIT	HEART	3	[0, 0, 0]	-999	PAL1	3	R1278E
454.812	0.617	640932	RETRIEVAL_ORIENT_OFF	n/a	3	-999	n/a	n/a	n/a	n/a	3	[0, 0, 0]	-999	PAL1	3	R1278E
455.429	0.001	641549	TEST_PROBE	n/a	2	4	PIT	HEART	PIT	HEART	3	[0, 0, 0]	-999	PAL1	3	R1278E
455.43	1.254	641550	REC_START	n/a	2	-999	n/a	HEART	n/a	n/a	3	[0, 0, 0]	-999	PAL1	3	R1278E
456.684	2.763	642804	REC_EVENT	1254	2	4	PIT	HEART	PIT	HEART	3	[0, 0, 0]	-999	PAL1	3	R1278E
459.447	1.0	645567	PROBE_OFF	n/a	2	-999	n/a	n/a	n/a	n/a	3	[0, 0, 0]	-999	PAL1	3	R1278E
460.447	0.016	646566	REC_END	n/a	2	-999	n/a	n/a	n/a	n/a	3	[0, 0, 0]	-999	PAL1	3	R1278E
460.463	0.267	646582	TEST_ORIENT	n/a	1	5	TEA	JUICE	TEA	JUICE	3	[0, 0, 0]	-999	PAL1	3	R1278E
460.73	0.584	646849	RETRIEVAL_ORIENT_OFF	n/a	2	-999	n/a	n/a	n/a	n/a	3	[0, 0, 0]	-999	PAL1	3	R1278E
461.314	0.0	647433	TEST_PROBE	n/a	1	5	TEA	JUICE	TEA	JUICE	3	[0, 0, 0]	-999	PAL1	3	R1278E
461.314	0.785	647433	REC_START	n/a	1	-999	n/a	JUICE	n/a	n/a	3	[0, 0, 0]	-999	PAL1	3	R1278E
462.099	3.232	648218	REC_EVENT	785	1	5	TEA	JUICE	TEA	JUICE	3	[0, 0, 0]	-999	PAL1	3	R1278E
465.331	1.0	651450	PROBE_OFF	n/a	1	-999	n/a	n/a	n/a	n/a	3	[0, 0, 0]	-999	PAL1	3	R1278E
466.331	0.017	652450	REC_END	n/a	1	-999	n/a	n/a	n/a	n/a	3	[0, 0, 0]	-999	PAL1	3	R1278E
466.348	0.266	652467	TEST_ORIENT	n/a	6	6	FLAME	n/a	FOX	FLAME	3	[0, 0, 0]	-999	PAL1	3	R1278E
466.614	0.584	652733	RETRIEVAL_ORIENT_OFF	n/a	1	-999	n/a	n/a	n/a	n/a	3	[0, 0, 0]	-999	PAL1	3	R1278E
467.198	0.001	653317	TEST_PROBE	n/a	6	6	FLAME	n/a	FOX	FLAME	3	[0, 0, 0]	-999	PAL1	3	R1278E
467.199	4.016	653318	REC_START	n/a	6	-999	n/a	n/a	n/a	n/a	3	[0, 0, 0]	-999	PAL1	3	R1278E
471.215	0.999	657334	PROBE_OFF	n/a	6	-999	n/a	n/a	n/a	n/a	3	[0, 0, 0]	-999	PAL1	3	R1278E
472.214	0.001	658333	REC_EVENT	5015	6	6	FLAME	<>	FOX	FLAME	3	[0, 0, 0]	-999	PAL1	3	R1278E
472.215	0.011	658334	REC_END	n/a	6	-999	n/a	n/a	n/a	n/a	3	[0, 0, 0]	-999	PAL1	3	R1278E
472.226	4.39	658345	RECALL_END	n/a	-999	-999	n/a	n/a	n/a	n/a	3	[0, 0, 0]	-999	PAL1	3	R1278E
476.616	10.928	662735	TRIAL	n/a	-999	-999	n/a	n/a	n/a	n/a	4	[0, 0, 0]	-999	PAL1	3	R1278E
487.544	0.006	673662	ENCODING_START	n/a	-999	-999	n/a	n/a	n/a	n/a	4	[0, 0, 0]	-999	PAL1	3	R1278E
487.55	0.251	673668	STUDY_ORIENT	n/a	1	5	DOOR	PASS	OWL	DOOR	4	[0, 0, 0]	-999	PAL1	3	R1278E
487.801	0.601	673919	STUDY_ORIENT_OFF	n/a	1	5	DOOR	PASS	OWL	DOOR	4	[0, 0, 0]	-999	PAL1	3	R1278E
488.402	4.017	674520	STUDY_PAIR	n/a	1	5	DOOR	PASS	OWL	DOOR	4	[0, 0, 0]	-999	PAL1	3	R1278E
492.419	1.017	678537	PAIR_OFF	n/a	1	5	DOOR	PASS	OWL	DOOR	4	[0, 0, 0]	-999	PAL1	3	R1278E
493.436	0.267	679554	STUDY_ORIENT	n/a	2	2	SNAKE	PASS	FOOD	SNAKE	4	[0, 0, 0]	-999	PAL1	3	R1278E
493.703	0.683	679821	STUDY_ORIENT_OFF	n/a	2	2	SNAKE	PASS	FOOD	SNAKE	4	[0, 0, 0]	-999	PAL1	3	R1278E
494.386	4.017	680504	STUDY_PAIR	n/a	2	2	SNAKE	PASS	FOOD	SNAKE	4	[0, 0, 0]	-999	PAL1	3	R1278E
498.403	1.017	684521	PAIR_OFF	n/a	2	2	SNAKE	PASS	FOOD	SNAKE	4	[0, 0, 0]	-999	PAL1	3	R1278E
499.42	0.267	685538	STUDY_ORIENT	n/a	3	3	PEAR	PASS	PEAR	VINE	4	[0, 0, 0]	-999	PAL1	3	R1278E
499.687	0.7	685805	STUDY_ORIENT_OFF	n/a	3	3	PEAR	PASS	PEAR	VINE	4	[0, 0, 0]	-999	PAL1	3	R1278E
500.387	4.017	686505	STUDY_PAIR	n/a	3	3	PEAR	PASS	PEAR	VINE	4	[0, 0, 0]	-999	PAL1	3	R1278E
504.404	1.017	690522	PAIR_OFF	n/a	3	3	PEAR	PASS	PEAR	VINE	4	[0, 0, 0]	-999	PAL1	3	R1278E
505.421	0.267	691539	STUDY_ORIENT	n/a	4	6	BRIDGE	n/a	BRIDGE	WOLF	4	[0, 0, 0]	-999	PAL1	3	R1278E
505.688	0.7	691806	STUDY_ORIENT_OFF	n/a	4	6	BRIDGE	n/a	BRIDGE	WOLF	4	[0, 0, 0]	-999	PAL1	3	R1278E
506.388	4.018	692506	STUDY_PAIR	n/a	4	6	BRIDGE	n/a	BRIDGE	WOLF	4	[0, 0, 0]	-999	PAL1	3	R1278E
510.406	1.016	696524	PAIR_OFF	n/a	4	6	BRIDGE	n/a	BRIDGE	WOLF	4	[0, 0, 0]	-999	PAL1	3	R1278E
511.422	0.267	697539	STUDY_ORIENT	n/a	5	1	SNOW	SCHOOL	SNOW	SCHOOL	4	[0, 0, 0]	-999	PAL1	3	R1278E
511.689	0.6	697806	STUDY_ORIENT_OFF	n/a	5	1	SNOW	SCHOOL	SNOW	SCHOOL	4	[0, 0, 0]	-999	PAL1	3	R1278E
512.289	4.018	698406	STUDY_PAIR	n/a	5	1	SNOW	SCHOOL	SNOW	SCHOOL	4	[0, 0, 0]	-999	PAL1	3	R1278E
516.307	1.016	702424	PAIR_OFF	n/a	5	1	SNOW	SCHOOL	SNOW	SCHOOL	4	[0, 0, 0]	-999	PAL1	3	R1278E
517.323	0.266	703440	STUDY_ORIENT	n/a	6	4	DRUM	STEAM	STEAM	DRUM	4	[0, 0, 0]	-999	PAL1	3	R1278E
517.589	0.568	703706	STUDY_ORIENT_OFF	n/a	6	4	DRUM	STEAM	STEAM	DRUM	4	[0, 0, 0]	-999	PAL1	3	R1278E
518.157	4.017	704274	STUDY_PAIR	n/a	6	4	DRUM	STEAM	STEAM	DRUM	4	[0, 0, 0]	-999	PAL1	3	R1278E
522.174	1.0	708291	PAIR_OFF	n/a	6	4	DRUM	STEAM	STEAM	DRUM	4	[0, 0, 0]	-999	PAL1	3	R1278E
523.174	0.0	709291	ENCODING_END	n/a	-999	-999	n/a	n/a	n/a	n/a	4	[0, 0, 0]	-999	PAL1	3	R1278E
523.174	0.0	709291	MATH_START	n/a	-999	-999	n/a	n/a	n/a	n/a	4	[0, 0, 0]	-999	PAL1	3	R1278E
523.174	0.017	709291	START	n/a	-999	-999	n/a	n/a	n/a	n/a	4	[-999, -999, -999]	-999	PAL1	3	R1278E
523.191	3.017	709308	PROB	2987	-999	-999	n/a	n/a	n/a	n/a	4	[2, 6, 3]	11	PAL1	3	R1278E
526.208	2.366	712325	PROB	2344	-999	-999	n/a	n/a	n/a	n/a	4	[9, 5, 5]	19	PAL1	3	R1278E
528.574	3.169	714691	PROB	3139	-999	-999	n/a	n/a	n/a	n/a	4	[5, 8, 8]	21	PAL1	3	R1278E
531.743	3.784	717860	PROB	3747	-999	-999	n/a	n/a	n/a	n/a	4	[6, 2, 3]	11	PAL1	3	R1278E
535.527	3.2	721644	PROB	3178	-999	-999	n/a	n/a	n/a	n/a	4	[4, 3, 2]	9	PAL1	3	R1278E
538.727	3.034	724843	PROB	3002	-999	-999	n/a	n/a	n/a	n/a	4	[7, 2, 7]	16	PAL1	3	R1278E
541.761	2.976	727877	PROB	2976	-999	-999	n/a	n/a	n/a	n/a	4	[4, 2, 3]	9	PAL1	3	R1278E
544.737	0.008	730853	STOP	n/a	-999	-999	n/a	n/a	n/a	n/a	4	[-999, -999, -999]	-999	PAL1	3	R1278E
544.745	0.0	730861	RECALL_START	n/a	-999	-999	n/a	n/a	n/a	n/a	4	[0, 0, 0]	-999	PAL1	3	R1278E
544.745	0.017	730861	MATH_END	n/a	-999	-999	n/a	n/a	n/a	n/a	4	[0, 0, 0]	-999	PAL1	3	R1278E
544.762	0.266	730878	TEST_ORIENT	n/a	5	1	SNOW	SCHOOL	SNOW	SCHOOL	4	[0, 0, 0]	-999	PAL1	3	R1278E
545.028	0.7	731144	RETRIEVAL_ORIENT_OFF	n/a	-999	-999	n/a	n/a	n/a	n/a	4	[0, 0, 0]	-999	PAL1	3	R1278E
545.728	0.001	731844	TEST_PROBE	n/a	5	1	SNOW	SCHOOL	SNOW	SCHOOL	4	[0, 0, 0]	-999	PAL1	3	R1278E
545.729	1.209	731845	REC_START	n/a	5	-999	n/a	SCHOOL	n/a	n/a	4	[0, 0, 0]	-999	PAL1	3	R1278E
546.938	2.791	733054	REC_EVENT	1209	5	1	SNOW	SCHOOL	SNOW	SCHOOL	4	[0, 0, 0]	-999	PAL1	3	R1278E
549.729	1.0	735845	PROBE_OFF	n/a	5	-999	n/a	n/a	n/a	n/a	4	[0, 0, 0]	-999	PAL1	3	R1278E
550.729	0.017	736845	REC_END	n/a	5	-999	n/a	n/a	n/a	n/a	4	[0, 0, 0]	-999	PAL1	3	R1278E
550.746	0.267	736862	TEST_ORIENT	n/a	2	2	SNAKE	PASS	FOOD	SNAKE	4	[0, 0, 0]	-999	PAL1	3	R1278E
551.013	0.6	737129	RETRIEVAL_ORIENT_OFF	n/a	5	-999	n/a	n/a	n/a	n/a	4	[0, 0, 0]	-999	PAL1	3	R1278E
551.613	0.0	737729	TEST_PROBE	n/a	2	2	SNAKE	PASS	FOOD	SNAKE	4	[0, 0, 0]	-999	PAL1	3	R1278E
551.613	3.119	737729	REC_START	n/a	2	-999	n/a	PASS	n/a	n/a	4	[0, 0, 0]	-999	PAL1	3	R1278E
554.732	0.898	740848	REC_EVENT	3119	2	2	SNAKE	PASS	FOOD	SNAKE	4	[0, 0, 0]	-999	PAL1	3	R1278E
555.63	1.0	741746	PROBE_OFF	n/a	2	-999	n/a	n/a	n/a	n/a	4	[0, 0, 0]	-999	PAL1	3	R1278E
556.63	0.017	742746	REC_END	n/a	2	-999	n/a	n/a	n/a	n/a	4	[0, 0, 0]	-999	PAL1	3	R1278E
556.647	0.267	742763	TEST_ORIENT	n/a	3	3	PEAR	PASS	PEAR	VINE	4	[0, 0, 0]	-999	PAL1	3	R1278E
556.914	0.566	743030	RETRIEVAL_ORIENT_OFF	n/a	2	-999	n/a	n/a	n/a	n/a	4	[0, 0, 0]	-999	PAL1	3	R1278E
557.48	0.001	743596	TEST_PROBE	n/a	3	3	PEAR	PASS	PEAR	VINE	4	[0, 0, 0]	-999	PAL1	3	R1278E
557.481	3.644	743597	REC_START	n/a	3	-999	n/a	PASS	n/a	n/a	4	[0, 0, 0]	-999	PAL1	3	R1278E
561.125	0.373	747241	REC_EVENT	3644	3	3	PEAR	PEAR	PEAR	VINE	4	[0, 0, 0]	-999	PAL1	3	R1278E
561.498	0.017	747614	PROBE_OFF	n/a	3	-999	n/a	n/a	n/a	n/a	4	[0, 0, 0]	-999	PAL1	3	R1278E
561.515	0.993	747631	REC_EVENT	4034	3	3	PEAR	PASS	PEAR	VINE	4	[0, 0, 0]	-999	PAL1	3	R1278E
562.508	0.023	748624	REC_END	n/a	3	-999	n/a	n/a	n/a	n/a	4	[0, 0, 0]	-999	PAL1	3	R1278E
562.531	0.267	748647	TEST_ORIENT	n/a	6	4	DRUM	STEAM	STEAM	DRUM	4	[0, 0, 0]	-999	PAL1	3	R1278E
562.798	0.667	748914	RETRIEVAL_ORIENT_OFF	n/a	3	-999	n/a	n/a	n/a	n/a	4	[0, 0, 0]	-999	PAL1	3	R1278E
563.465	0.0	749580	TEST_PROBE	n/a	6	4	DRUM	STEAM	STEAM	DRUM	4	[0, 0, 0]	-999	PAL1	3	R1278E
563.465	1.149	749580	REC_START	n/a	6	-999	n/a	STEAM	n/a	n/a	4	[0, 0, 0]	-999	PAL1	3	R1278E
564.614	1.0	750729	REC_EVENT	1149	6	4	DRUM	STEAM	STEAM	DRUM	4	[0, 0, 0]	-999	PAL1	3	R1278E
565.614	1.868	751729	REC_EVENT	2149	6	4	DRUM	<>	STEAM	DRUM	4	[0, 0, 0]	-999	PAL1	3	R1278E
567.482	1.0	753597	PROBE_OFF	n/a	6	-999	n/a	n/a	n/a	n/a	4	[0, 0, 0]	-999	PAL1	3	R1278E
568.482	0.017	754597	REC_END	n/a	6	-999	n/a	n/a	n/a	n/a	4	[0, 0, 0]	-999	PAL1	3	R1278E
568.499	0.267	754614	TEST_ORIENT	n/a	1	5	DOOR	PASS	OWL	DOOR	4	[0, 0, 0]	-999	PAL1	3	R1278E
568.766	0.633	754881	RETRIEVAL_ORIENT_OFF	n/a	6	-999	n/a	n/a	n/a	n/a	4	[0, 0, 0]	-999	PAL1	3	R1278E
569.399	0.0	755514	TEST_PROBE	n/a	1	5	DOOR	PASS	OWL	DOOR	4	[0, 0, 0]	-999	PAL1	3	R1278E
569.399	4.018	755514	REC_START	n/a	1	-999	n/a	PASS	n/a	n/a	4	[0, 0, 0]	-999	PAL1	3	R1278E
573.417	0.256	759532	PROBE_OFF	n/a	1	-999	n/a	n/a	n/a	n/a	4	[0, 0, 0]	-999	PAL1	3	R1278E
573.673	0.755	759788	REC_EVENT	4274	1	5	DOOR	PASS	OWL	DOOR	4	[0, 0, 0]	-999	PAL1	3	R1278E
574.428	0.022	760543	REC_END	n/a	1	-999	n/a	n/a	n/a	n/a	4	[0, 0, 0]	-999	PAL1	3	R1278E
574.45	0.267	760565	TEST_ORIENT	n/a	4	6	BRIDGE	n/a	BRIDGE	WOLF	4	[0, 0, 0]	-999	PAL1	3	R1278E
574.717	0.767	760832	RETRIEVAL_ORIENT_OFF	n/a	1	-999	n/a	n/a	n/a	n/a	4	[0, 0, 0]	-999	PAL1	3	R1278E
575.484	0.0	761599	TEST_PROBE	n/a	4	6	BRIDGE	n/a	BRIDGE	WOLF	4	[0, 0, 0]	-999	PAL1	3	R1278E
575.484	3.234	761599	REC_START	n/a	4	-999	n/a	n/a	n/a	n/a	4	[0, 0, 0]	-999	PAL1	3	R1278E
578.718	0.783	764833	REC_EVENT	3234	4	6	BRIDGE	<>	BRIDGE	WOLF	4	[0, 0, 0]	-999	PAL1	3	R1278E
579.501	1.01	765616	PROBE_OFF	n/a	4	-999	n/a	n/a	n/a	n/a	4	[0, 0, 0]	-999	PAL1	3	R1278E
580.511	0.004	766626	REC_END	n/a	4	-999	n/a	n/a	n/a	n/a	4	[0, 0, 0]	-999	PAL1	3	R1278E
580.515	6.587	766630	RECALL_END	n/a	-999	-999	n/a	n/a	n/a	n/a	4	[0, 0, 0]	-999	PAL1	3	R1278E
587.102	10.929	773217	TRIAL	n/a	-999	-999	n/a	n/a	n/a	n/a	5	[0, 0, 0]	-999	PAL1	3	R1278E
598.031	0.007	784145	ENCODING_START	n/a	-999	-999	n/a	n/a	n/a	n/a	5	[0, 0, 0]	-999	PAL1	3	R1278E
598.038	0.266	784152	STUDY_ORIENT	n/a	1	5	ELF	CHEEK	CHEEK	ELF	5	[0, 0, 0]	-999	PAL1	3	R1278E
598.304	0.75	784418	STUDY_ORIENT_OFF	n/a	1	5	ELF	CHEEK	CHEEK	ELF	5	[0, 0, 0]	-999	PAL1	3	R1278E
599.054	4.018	785168	STUDY_PAIR	n/a	1	5	ELF	CHEEK	CHEEK	ELF	5	[0, 0, 0]	-999	PAL1	3	R1278E
603.072	1.017	789186	PAIR_OFF	n/a	1	5	ELF	CHEEK	CHEEK	ELF	5	[0, 0, 0]	-999	PAL1	3	R1278E
604.089	0.266	790203	STUDY_ORIENT	n/a	2	6	PARK	STREET	STREET	PARK	5	[0, 0, 0]	-999	PAL1	3	R1278E
604.355	0.584	790469	STUDY_ORIENT_OFF	n/a	2	6	PARK	STREET	STREET	PARK	5	[0, 0, 0]	-999	PAL1	3	R1278E
604.939	4.017	791053	STUDY_PAIR	n/a	2	6	PARK	STREET	STREET	PARK	5	[0, 0, 0]	-999	PAL1	3	R1278E
608.956	1.017	795070	PAIR_OFF	n/a	2	6	PARK	STREET	STREET	PARK	5	[0, 0, 0]	-999	PAL1	3	R1278E
609.973	0.267	796087	STUDY_ORIENT	n/a	3	1	MOUTH	BEACH	BEACH	MOUTH	5	[0, 0, 0]	-999	PAL1	3	R1278E
610.24	0.75	796354	STUDY_ORIENT_OFF	n/a	3	1	MOUTH	BEACH	BEACH	MOUTH	5	[0, 0, 0]	-999	PAL1	3	R1278E
610.99	4.017	797104	STUDY_PAIR	n/a	3	1	MOUTH	BEACH	BEACH	MOUTH	5	[0, 0, 0]	-999	PAL1	3	R1278E
615.007	1.017	801120	PAIR_OFF	n/a	3	1	MOUTH	BEACH	BEACH	MOUTH	5	[0, 0, 0]	-999	PAL1	3	R1278E
616.024	0.267	802137	STUDY_ORIENT	n/a	4	4	CALF	PASS	POLE	CALF	5	[0, 0, 0]	-999	PAL1	3	R1278E
616.291	0.75	802404	STUDY_ORIENT_OFF	n/a	4	4	CALF	PASS	POLE	CALF	5	[0, 0, 0]	-999	PAL1	3	R1278E
617.041	4.017	803154	STUDY_PAIR	n/a	4	4	CALF	PASS	POLE	CALF	5	[0, 0, 0]	-999	PAL1	3	R1278E
621.058	1.017	807171	PAIR_OFF	n/a	4	4	CALF	PASS	POLE	CALF	5	[0, 0, 0]	-999	PAL1	3	R1278E
622.075	0.267	808188	STUDY_ORIENT	n/a	5	3	MULE	ICE	ICE	MULE	5	[0, 0, 0]	-999	PAL1	3	R1278E
622.342	0.65	808455	STUDY_ORIENT_OFF	n/a	5	3	MULE	ICE	ICE	MULE	5	[0, 0, 0]	-999	PAL1	3	R1278E
622.992	4.017	809105	STUDY_PAIR	n/a	5	3	MULE	ICE	ICE	MULE	5	[0, 0, 0]	-999	PAL1	3	R1278E
627.009	1.017	813122	PAIR_OFF	n/a	5	3	MULE	ICE	ICE	MULE	5	[0, 0, 0]	-999	PAL1	3	R1278E
628.026	0.267	814139	STUDY_ORIENT	n/a	6	2	WOOD	PASS	STRAW	WOOD	5	[0, 0, 0]	-999	PAL1	3	R1278E
628.293	0.65	814406	STUDY_ORIENT_OFF	n/a	6	2	WOOD	PASS	STRAW	WOOD	5	[0, 0, 0]	-999	PAL1	3	R1278E
628.943	4.017	815056	STUDY_PAIR	n/a	6	2	WOOD	PASS	STRAW	WOOD	5	[0, 0, 0]	-999	PAL1	3	R1278E
632.96	1.0	819073	PAIR_OFF	n/a	6	2	WOOD	PASS	STRAW	WOOD	5	[0, 0, 0]	-999	PAL1	3	R1278E
633.96	0.0	820073	ENCODING_END	n/a	-999	-999	n/a	n/a	n/a	n/a	5	[0, 0, 0]	-999	PAL1	3	R1278E
633.96	0.0	820073	MATH_START	n/a	-999	-999	n/a	n/a	n/a	n/a	5	[0, 0, 0]	-999	PAL1	3	R1278E
633.96	0.017	820073	START	n/a	-999	-999	n/a	n/a	n/a	n/a	5	[-999, -999, -999]	-999	PAL1	3	R1278E
633.977	4.818	820090	PROB	4790	-999	-999	n/a	n/a	n/a	n/a	5	[9, 7, 1]	17	PAL1	3	R1278E
638.795	2.167	824908	PROB	2140	-999	-999	n/a	n/a	n/a	n/a	5	[1, 9, 2]	12	PAL1	3	R1278E
640.962	2.417	827074	PROB	2381	-999	-999	n/a	n/a	n/a	n/a	5	[4, 3, 1]	8	PAL1	3	R1278E
643.379	2.934	829491	PROB	2900	-999	-999	n/a	n/a	n/a	n/a	5	[6, 1, 3]	10	PAL1	3	R1278E
646.313	2.167	832425	PROB	2135	-999	-999	n/a	n/a	n/a	n/a	5	[9, 1, 1]	11	PAL1	3	R1278E
648.48	4.15	834592	PROB	4127	-999	-999	n/a	n/a	n/a	n/a	5	[5, 8, 3]	16	PAL1	3	R1278E
652.63	6.284	838742	PROB	6284	-999	-999	n/a	n/a	n/a	n/a	5	[9, 4, 8]	21	PAL1	3	R1278E
658.914	0.018	845026	STOP	n/a	-999	-999	n/a	n/a	n/a	n/a	5	[-999, -999, -999]	-999	PAL1	3	R1278E
658.932	0.0	845044	MATH_END	n/a	-999	-999	n/a	n/a	n/a	n/a	5	[0, 0, 0]	-999	PAL1	3	R1278E
658.932	0.016	845044	RECALL_START	n/a	-999	-999	n/a	n/a	n/a	n/a	5	[0, 0, 0]	-999	PAL1	3	R1278E
658.948	0.267	845060	TEST_ORIENT	n/a	3	1	MOUTH	BEACH	BEACH	MOUTH	5	[0, 0, 0]	-999	PAL1	3	R1278E
659.215	0.567	845327	RETRIEVAL_ORIENT_OFF	n/a	-999	-999	n/a	n/a	n/a	n/a	5	[0, 0, 0]	-999	PAL1	3	R1278E
659.782	0.0	845894	TEST_PROBE	n/a	3	1	MOUTH	BEACH	BEACH	MOUTH	5	[0, 0, 0]	-999	PAL1	3	R1278E
659.782	1.189	845894	REC_START	n/a	3	-999	n/a	BEACH	n/a	n/a	5	[0, 0, 0]	-999	PAL1	3	R1278E
660.971	2.828	847083	REC_EVENT	1189	3	1	MOUTH	BEACH	BEACH	MOUTH	5	[0, 0, 0]	-999	PAL1	3	R1278E
663.799	1.001	849911	PROBE_OFF	n/a	3	-999	n/a	n/a	n/a	n/a	5	[0, 0, 0]	-999	PAL1	3	R1278E
664.8	0.016	850912	REC_END	n/a	3	-999	n/a	n/a	n/a	n/a	5	[0, 0, 0]	-999	PAL1	3	R1278E
664.816	0.267	850928	TEST_ORIENT	n/a	6	2	WOOD	PASS	STRAW	WOOD	5	[0, 0, 0]	-999	PAL1	3	R1278E
665.083	0.716	851195	RETRIEVAL_ORIENT_OFF	n/a	3	-999	n/a	n/a	n/a	n/a	5	[0, 0, 0]	-999	PAL1	3	R1278E
665.799	0.001	851910	TEST_PROBE	n/a	6	2	WOOD	PASS	STRAW	WOOD	5	[0, 0, 0]	-999	PAL1	3	R1278E
665.8	3.114	851911	REC_START	n/a	6	-999	n/a	PASS	n/a	n/a	5	[0, 0, 0]	-999	PAL1	3	R1278E
668.914	0.886	855025	REC_EVENT	3114	6	2	WOOD	PASS	STRAW	WOOD	5	[0, 0, 0]	-999	PAL1	3	R1278E
669.8	1.0	855911	PROBE_OFF	n/a	6	-999	n/a	n/a	n/a	n/a	5	[0, 0, 0]	-999	PAL1	3	R1278E
670.8	0.017	856911	REC_END	n/a	6	-999	n/a	n/a	n/a	n/a	5	[0, 0, 0]	-999	PAL1	3	R1278E
670.817	0.267	856928	TEST_ORIENT	n/a	5	3	MULE	ICE	ICE	MULE	5	[0, 0, 0]	-999	PAL1	3	R1278E
671.084	0.566	857195	RETRIEVAL_ORIENT_OFF	n/a	6	-999	n/a	n/a	n/a	n/a	5	[0, 0, 0]	-999	PAL1	3	R1278E
671.65	0.001	857761	TEST_PROBE	n/a	5	3	MULE	ICE	ICE	MULE	5	[0, 0, 0]	-999	PAL1	3	R1278E
671.651	1.099	857762	REC_START	n/a	5	-999	n/a	ICE	n/a	n/a	5	[0, 0, 0]	-999	PAL1	3	R1278E
672.75	2.918	858861	REC_EVENT	1099	5	3	MULE	ICE	ICE	MULE	5	[0, 0, 0]	-999	PAL1	3	R1278E
675.668	1.01	861779	PROBE_OFF	n/a	5	-999	n/a	n/a	n/a	n/a	5	[0, 0, 0]	-999	PAL1	3	R1278E
676.678	0.023	862789	REC_END	n/a	5	-999	n/a	n/a	n/a	n/a	5	[0, 0, 0]	-999	PAL1	3	R1278E
676.701	0.267	862812	TEST_ORIENT	n/a	4	4	CALF	PASS	POLE	CALF	5	[0, 0, 0]	-999	PAL1	3	R1278E
676.968	0.533	863079	RETRIEVAL_ORIENT_OFF	n/a	5	-999	n/a	n/a	n/a	n/a	5	[0, 0, 0]	-999	PAL1	3	R1278E
677.501	0.001	863612	TEST_PROBE	n/a	4	4	CALF	PASS	POLE	CALF	5	[0, 0, 0]	-999	PAL1	3	R1278E
677.502	3.834	863613	REC_START	n/a	4	-999	n/a	PASS	n/a	n/a	5	[0, 0, 0]	-999	PAL1	3	R1278E
681.336	0.183	867447	REC_EVENT	3834	4	4	CALF	PASS	POLE	CALF	5	[0, 0, 0]	-999	PAL1	3	R1278E
681.519	1.0	867630	PROBE_OFF	n/a	4	-999	n/a	n/a	n/a	n/a	5	[0, 0, 0]	-999	PAL1	3	R1278E
682.519	0.017	868630	REC_END	n/a	4	-999	n/a	n/a	n/a	n/a	5	[0, 0, 0]	-999	PAL1	3	R1278E
682.536	0.266	868647	TEST_ORIENT	n/a	1	5	ELF	CHEEK	CHEEK	ELF	5	[0, 0, 0]	-999	PAL1	3	R1278E
682.802	0.6	868913	RETRIEVAL_ORIENT_OFF	n/a	4	-999	n/a	n/a	n/a	n/a	5	[0, 0, 0]	-999	PAL1	3	R1278E
683.402	0.001	869513	TEST_PROBE	n/a	1	5	ELF	CHEEK	CHEEK	ELF	5	[0, 0, 0]	-999	PAL1	3	R1278E
683.403	1.259	869514	REC_START	n/a	1	-999	n/a	CHEEK	n/a	n/a	5	[0, 0, 0]	-999	PAL1	3	R1278E
684.662	2.758	870773	REC_EVENT	1259	1	5	ELF	CHEEK	CHEEK	ELF	5	[0, 0, 0]	-999	PAL1	3	R1278E
687.42	1.0	873531	PROBE_OFF	n/a	1	-999	n/a	n/a	n/a	n/a	5	[0, 0, 0]	-999	PAL1	3	R1278E
688.42	0.017	874531	REC_END	n/a	1	-999	n/a	n/a	n/a	n/a	5	[0, 0, 0]	-999	PAL1	3	R1278E
688.437	0.266	874548	TEST_ORIENT	n/a	2	6	PARK	STREET	STREET	PARK	5	[0, 0, 0]	-999	PAL1	3	R1278E
688.703	0.667	874814	RETRIEVAL_ORIENT_OFF	n/a	1	-999	n/a	n/a	n/a	n/a	5	[0, 0, 0]	-999	PAL1	3	R1278E
689.37	0.0	875481	TEST_PROBE	n/a	2	6	PARK	STREET	STREET	PARK	5	[0, 0, 0]	-999	PAL1	3	R1278E
689.37	1.219	875481	REC_START	n/a	2	-999	n/a	STREET	n/a	n/a	5	[0, 0, 0]	-999	PAL1	3	R1278E
690.589	2.799	876700	REC_EVENT	1219	2	6	PARK	STREET	STREET	PARK	5	[0, 0, 0]	-999	PAL1	3	R1278E
693.388	1.0	879498	PROBE_OFF	n/a	2	-999	n/a	n/a	n/a	n/a	5	[0, 0, 0]	-999	PAL1	3	R1278E
694.388	0.004	880498	REC_END	n/a	2	-999	n/a	n/a	n/a	n/a	5	[0, 0, 0]	-999	PAL1	3	R1278E
694.392	3.98	880502	RECALL_END	n/a	-999	-999	n/a	n/a	n/a	n/a	5	[0, 0, 0]	-999	PAL1	3	R1278E
698.372	10.929	884482	TRIAL	n/a	-999	-999	n/a	n/a	n/a	n/a	6	[0, 0, 0]	-999	PAL1	3	R1278E
709.301	0.006	895411	ENCODING_START	n/a	-999	-999	n/a	n/a	n/a	n/a	6	[0, 0, 0]	-999	PAL1	3	R1278E
709.307	0.266	895417	STUDY_ORIENT	n/a	1	5	VASE	n/a	AXE	VASE	6	[0, 0, 0]	-999	PAL1	3	R1278E
709.573	0.734	895683	STUDY_ORIENT_OFF	n/a	1	5	VASE	n/a	AXE	VASE	6	[0, 0, 0]	-999	PAL1	3	R1278E
710.307	4.018	896417	STUDY_PAIR	n/a	1	5	VASE	n/a	AXE	VASE	6	[0, 0, 0]	-999	PAL1	3	R1278E
714.325	1.016	900435	PAIR_OFF	n/a	1	5	VASE	n/a	AXE	VASE	6	[0, 0, 0]	-999	PAL1	3	R1278E
715.341	0.267	901451	STUDY_ORIENT	n/a	2	2	COUCH	n/a	COUCH	BRICK	6	[0, 0, 0]	-999	PAL1	3	R1278E
715.608	0.717	901718	STUDY_ORIENT_OFF	n/a	2	2	COUCH	n/a	COUCH	BRICK	6	[0, 0, 0]	-999	PAL1	3	R1278E
716.325	4.017	902435	STUDY_PAIR	n/a	2	2	COUCH	n/a	COUCH	BRICK	6	[0, 0, 0]	-999	PAL1	3	R1278E
720.342	1.017	906451	PAIR_OFF	n/a	2	2	COUCH	n/a	COUCH	BRICK	6	[0, 0, 0]	-999	PAL1	3	R1278E
721.359	0.267	907468	STUDY_ORIENT	n/a	3	1	TRAIN	PASS	CHIN	TRAIN	6	[0, 0, 0]	-999	PAL1	3	R1278E
721.626	0.733	907735	STUDY_ORIENT_OFF	n/a	3	1	TRAIN	PASS	CHIN	TRAIN	6	[0, 0, 0]	-999	PAL1	3	R1278E
722.359	4.018	908468	STUDY_PAIR	n/a	3	1	TRAIN	PASS	CHIN	TRAIN	6	[0, 0, 0]	-999	PAL1	3	R1278E
726.377	1.016	912486	PAIR_OFF	n/a	3	1	TRAIN	PASS	CHIN	TRAIN	6	[0, 0, 0]	-999	PAL1	3	R1278E
727.393	0.267	913502	STUDY_ORIENT	n/a	4	4	VAN	STEM	VAN	STEM	6	[0, 0, 0]	-999	PAL1	3	R1278E
727.66	0.65	913769	STUDY_ORIENT_OFF	n/a	4	4	VAN	STEM	VAN	STEM	6	[0, 0, 0]	-999	PAL1	3	R1278E
728.31	4.018	914419	STUDY_PAIR	n/a	4	4	VAN	STEM	VAN	STEM	6	[0, 0, 0]	-999	PAL1	3	R1278E
732.328	1.017	918437	PAIR_OFF	n/a	4	4	VAN	STEM	VAN	STEM	6	[0, 0, 0]	-999	PAL1	3	R1278E
733.345	0.266	919454	STUDY_ORIENT	n/a	5	3	NOSE	n/a	BEE	NOSE	6	[0, 0, 0]	-999	PAL1	3	R1278E
733.611	0.684	919720	STUDY_ORIENT_OFF	n/a	5	3	NOSE	n/a	BEE	NOSE	6	[0, 0, 0]	-999	PAL1	3	R1278E
734.295	4.017	920404	STUDY_PAIR	n/a	5	3	NOSE	n/a	BEE	NOSE	6	[0, 0, 0]	-999	PAL1	3	R1278E
738.312	1.017	924421	PAIR_OFF	n/a	5	3	NOSE	n/a	BEE	NOSE	6	[0, 0, 0]	-999	PAL1	3	R1278E
739.329	0.266	925438	STUDY_ORIENT	n/a	6	6	PEA	PASS	PEA	TOY	6	[0, 0, 0]	-999	PAL1	3	R1278E
739.595	0.751	925704	STUDY_ORIENT_OFF	n/a	6	6	PEA	PASS	PEA	TOY	6	[0, 0, 0]	-999	PAL1	3	R1278E
740.346	4.017	926455	STUDY_PAIR	n/a	6	6	PEA	PASS	PEA	TOY	6	[0, 0, 0]	-999	PAL1	3	R1278E
744.363	1.001	930471	PAIR_OFF	n/a	6	6	PEA	PASS	PEA	TOY	6	[0, 0, 0]	-999	PAL1	3	R1278E
745.364	0.0	931472	ENCODING_END	n/a	-999	-999	n/a	n/a	n/a	n/a	6	[0, 0, 0]	-999	PAL1	3	R1278E
745.364	0.0	931472	MATH_START	n/a	-999	-999	n/a	n/a	n/a	n/a	6	[0, 0, 0]	-999	PAL1	3	R1278E
745.364	0.016	931472	START	n/a	-999	-999	n/a	n/a	n/a	n/a	6	[-999, -999, -999]	-999	PAL1	3	R1278E
745.38	6.284	931488	PROB	6253	-999	-999	n/a	n/a	n/a	n/a	6	[7, 6, 8]	21	PAL1	3	R1278E
751.664	1.684	937772	PROB	1649	-999	-999	n/a	n/a	n/a	n/a	6	[1, 5, 1]	7	PAL1	3	R1278E
753.348	3.817	939456	PROB	3788	-999	-999	n/a	n/a	n/a	n/a	6	[9, 1, 8]	18	PAL1	3	R1278E
757.165	1.734	943273	PROB	1700	-999	-999	n/a	n/a	n/a	n/a	6	[1, 1, 4]	6	PAL1	3	R1278E
758.899	3.051	945007	PROB	3014	-999	-999	n/a	n/a	n/a	n/a	6	[5, 4, 9]	18	PAL1	3	R1278E
761.95	3.183	948058	PROB	3147	-999	-999	n/a	n/a	n/a	n/a	6	[9, 9, 4]	22	PAL1	3	R1278E
765.133	9.114	951241	PROB	9114	-999	-999	n/a	n/a	n/a	n/a	6	[6, 8, 6]	20	PAL1	3	R1278E
774.247	0.004	960354	STOP	n/a	-999	-999	n/a	n/a	n/a	n/a	6	[-999, -999, -999]	-999	PAL1	3	R1278E
774.251	0.001	960358	MATH_END	n/a	-999	-999	n/a	n/a	n/a	n/a	6	[0, 0, 0]	-999	PAL1	3	R1278E
774.252	0.016	960359	RECALL_START	n/a	-999	-999	n/a	n/a	n/a	n/a	6	[0, 0, 0]	-999	PAL1	3	R1278E
774.268	0.267	960375	TEST_ORIENT	n/a	3	1	TRAIN	PASS	CHIN	TRAIN	6	[0, 0, 0]	-999	PAL1	3	R1278E
774.535	0.534	960642	RETRIEVAL_ORIENT_OFF	n/a	-999	-999	n/a	n/a	n/a	n/a	6	[0, 0, 0]	-999	PAL1	3	R1278E
775.069	0.0	961176	TEST_PROBE	n/a	3	1	TRAIN	PASS	CHIN	TRAIN	6	[0, 0, 0]	-999	PAL1	3	R1278E
775.069	3.519	961176	REC_START	n/a	3	-999	n/a	PASS	n/a	n/a	6	[0, 0, 0]	-999	PAL1	3	R1278E
778.588	0.498	964695	REC_EVENT	3519	3	1	TRAIN	PASS	CHIN	TRAIN	6	[0, 0, 0]	-999	PAL1	3	R1278E
779.086	1.0	965193	PROBE_OFF	n/a	3	-999	n/a	n/a	n/a	n/a	6	[0, 0, 0]	-999	PAL1	3	R1278E
780.086	0.017	966193	REC_END	n/a	3	-999	n/a	n/a	n/a	n/a	6	[0, 0, 0]	-999	PAL1	3	R1278E
780.103	0.266	966210	TEST_ORIENT	n/a	2	2	COUCH	n/a	COUCH	BRICK	6	[0, 0, 0]	-999	PAL1	3	R1278E
780.369	0.601	966476	RETRIEVAL_ORIENT_OFF	n/a	3	-999	n/a	n/a	n/a	n/a	6	[0, 0, 0]	-999	PAL1	3	R1278E
780.97	0.0	967077	TEST_PROBE	n/a	2	2	COUCH	n/a	COUCH	BRICK	6	[0, 0, 0]	-999	PAL1	3	R1278E
780.97	4.017	967077	REC_START	n/a	2	-999	n/a	n/a	n/a	n/a	6	[0, 0, 0]	-999	PAL1	3	R1278E
784.987	0.867	971094	PROBE_OFF	n/a	2	-999	n/a	n/a	n/a	n/a	6	[0, 0, 0]	-999	PAL1	3	R1278E
785.854	0.133	971961	REC_EVENT	4884	2	2	COUCH	<>	COUCH	BRICK	6	[0, 0, 0]	-999	PAL1	3	R1278E
785.987	0.017	972094	REC_END	n/a	2	-999	n/a	n/a	n/a	n/a	6	[0, 0, 0]	-999	PAL1	3	R1278E
786.004	0.267	972111	TEST_ORIENT	n/a	5	3	NOSE	n/a	BEE	NOSE	6	[0, 0, 0]	-999	PAL1	3	R1278E
786.271	0.583	972378	RETRIEVAL_ORIENT_OFF	n/a	2	-999	n/a	n/a	n/a	n/a	6	[0, 0, 0]	-999	PAL1	3	R1278E
786.854	0.0	972961	TEST_PROBE	n/a	5	3	NOSE	n/a	BEE	NOSE	6	[0, 0, 0]	-999	PAL1	3	R1278E
786.854	4.017	972961	REC_START	n/a	5	-999	n/a	n/a	n/a	n/a	6	[0, 0, 0]	-999	PAL1	3	R1278E
790.871	0.692	976978	PROBE_OFF	n/a	5	-999	n/a	n/a	n/a	n/a	6	[0, 0, 0]	-999	PAL1	3	R1278E
791.563	0.308	977670	REC_EVENT	4709	5	3	NOSE	<>	BEE	NOSE	6	[0, 0, 0]	-999	PAL1	3	R1278E
791.871	0.017	977978	REC_END	n/a	5	-999	n/a	n/a	n/a	n/a	6	[0, 0, 0]	-999	PAL1	3	R1278E
791.888	0.267	977995	TEST_ORIENT	n/a	4	4	VAN	STEM	VAN	STEM	6	[0, 0, 0]	-999	PAL1	3	R1278E
792.155	0.617	978262	RETRIEVAL_ORIENT_OFF	n/a	5	-999	n/a	n/a	n/a	n/a	6	[0, 0, 0]	-999	PAL1	3	R1278E
792.772	0.0	978879	TEST_PROBE	n/a	4	4	VAN	STEM	VAN	STEM	6	[0, 0, 0]	-999	PAL1	3	R1278E
792.772	0.964	978879	REC_START	n/a	4	-999	n/a	STEM	n/a	n/a	6	[0, 0, 0]	-999	PAL1	3	R1278E
793.736	3.053	979843	REC_EVENT	964	4	4	VAN	STEM	VAN	STEM	6	[0, 0, 0]	-999	PAL1	3	R1278E
796.789	1.0	982895	PROBE_OFF	n/a	4	-999	n/a	n/a	n/a	n/a	6	[0, 0, 0]	-999	PAL1	3	R1278E
797.789	0.017	983895	REC_END	n/a	4	-999	n/a	n/a	n/a	n/a	6	[0, 0, 0]	-999	PAL1	3	R1278E
797.806	0.267	983912	TEST_ORIENT	n/a	1	5	VASE	n/a	AXE	VASE	6	[0, 0, 0]	-999	PAL1	3	R1278E
798.073	0.65	984179	RETRIEVAL_ORIENT_OFF	n/a	4	-999	n/a	n/a	n/a	n/a	6	[0, 0, 0]	-999	PAL1	3	R1278E
798.723	0.0	984829	TEST_PROBE	n/a	1	5	VASE	n/a	AXE	VASE	6	[0, 0, 0]	-999	PAL1	3	R1278E
798.723	4.017	984829	REC_START	n/a	1	-999	n/a	n/a	n/a	n/a	6	[0, 0, 0]	-999	PAL1	3	R1278E
802.74	0.282	988846	PROBE_OFF	n/a	1	-999	n/a	n/a	n/a	n/a	6	[0, 0, 0]	-999	PAL1	3	R1278E
803.022	0.32	989128	REC_EVENT	4299	1	5	VASE	<>	AXE	VASE	6	[0, 0, 0]	-999	PAL1	3	R1278E
803.342	0.398	989448	REC_EVENT	4619	1	5	VASE	<>	AXE	VASE	6	[0, 0, 0]	-999	PAL1	3	R1278E
803.74	0.017	989846	REC_END	n/a	1	-999	n/a	n/a	n/a	n/a	6	[0, 0, 0]	-999	PAL1	3	R1278E
803.757	0.267	989863	TEST_ORIENT	n/a	6	6	PEA	PASS	PEA	TOY	6	[0, 0, 0]	-999	PAL1	3	R1278E
804.024	0.633	990130	RETRIEVAL_ORIENT_OFF	n/a	1	-999	n/a	n/a	n/a	n/a	6	[0, 0, 0]	-999	PAL1	3	R1278E
804.657	0.001	990763	TEST_PROBE	n/a	6	6	PEA	PASS	PEA	TOY	6	[0, 0, 0]	-999	PAL1	3	R1278E
804.658	3.434	990764	REC_START	n/a	6	-999	n/a	PASS	n/a	n/a	6	[0, 0, 0]	-999	PAL1	3	R1278E
808.092	0.582	994198	REC_EVENT	3434	6	6	PEA	PASS	PEA	TOY	6	[0, 0, 0]	-999	PAL1	3	R1278E
808.674	1.0	994780	PROBE_OFF	n/a	6	-999	n/a	n/a	n/a	n/a	6	[0, 0, 0]	-999	PAL1	3	R1278E
809.674	0.009	995780	REC_END	n/a	6	-999	n/a	n/a	n/a	n/a	6	[0, 0, 0]	-999	PAL1	3	R1278E
809.683	7.476	995789	RECALL_END	n/a	-999	-999	n/a	n/a	n/a	n/a	6	[0, 0, 0]	-999	PAL1	3	R1278E
817.159	10.929	1003265	TRIAL	n/a	-999	-999	n/a	n/a	n/a	n/a	7	[0, 0, 0]	-999	PAL1	3	R1278E
828.088	0.007	1014193	ENCODING_START	n/a	-999	-999	n/a	n/a	n/a	n/a	7	[0, 0, 0]	-999	PAL1	3	R1278E
828.095	0.266	1014200	STUDY_ORIENT	n/a	1	5	STRING	PASS	BRANCH	STRING	7	[0, 0, 0]	-999	PAL1	3	R1278E
828.361	0.684	1014466	STUDY_ORIENT_OFF	n/a	1	5	STRING	PASS	BRANCH	STRING	7	[0, 0, 0]	-999	PAL1	3	R1278E
829.045	4.017	1015150	STUDY_PAIR	n/a	1	5	STRING	PASS	BRANCH	STRING	7	[0, 0, 0]	-999	PAL1	3	R1278E
833.062	1.017	1019167	PAIR_OFF	n/a	1	5	STRING	PASS	BRANCH	STRING	7	[0, 0, 0]	-999	PAL1	3	R1278E
834.079	0.267	1020184	STUDY_ORIENT	n/a	2	4	CAR	CLIFF	CLIFF	CAR	7	[0, 0, 0]	-999	PAL1	3	R1278E
834.346	0.583	1020451	STUDY_ORIENT_OFF	n/a	2	4	CAR	CLIFF	CLIFF	CAR	7	[0, 0, 0]	-999	PAL1	3	R1278E
834.929	4.017	1021034	STUDY_PAIR	n/a	2	4	CAR	CLIFF	CLIFF	CAR	7	[0, 0, 0]	-999	PAL1	3	R1278E
838.946	1.017	1025051	PAIR_OFF	n/a	2	4	CAR	CLIFF	CLIFF	CAR	7	[0, 0, 0]	-999	PAL1	3	R1278E
839.963	0.267	1026068	STUDY_ORIENT	n/a	3	3	RUG	SHIRT	RUG	SHIRT	7	[0, 0, 0]	-999	PAL1	3	R1278E
840.23	0.65	1026335	STUDY_ORIENT_OFF	n/a	3	3	RUG	SHIRT	RUG	SHIRT	7	[0, 0, 0]	-999	PAL1	3	R1278E
840.88	4.017	1026985	STUDY_PAIR	n/a	3	3	RUG	SHIRT	RUG	SHIRT	7	[0, 0, 0]	-999	PAL1	3	R1278E
844.897	1.017	1031002	PAIR_OFF	n/a	3	3	RUG	SHIRT	RUG	SHIRT	7	[0, 0, 0]	-999	PAL1	3	R1278E
845.914	0.267	1032018	STUDY_ORIENT	n/a	4	2	SHELL	OAR	OAR	SHELL	7	[0, 0, 0]	-999	PAL1	3	R1278E
846.181	0.617	1032285	STUDY_ORIENT_OFF	n/a	4	2	SHELL	OAR	OAR	SHELL	7	[0, 0, 0]	-999	PAL1	3	R1278E
846.798	4.017	1032902	STUDY_PAIR	n/a	4	2	SHELL	OAR	OAR	SHELL	7	[0, 0, 0]	-999	PAL1	3	R1278E
850.815	1.017	1036919	PAIR_OFF	n/a	4	2	SHELL	OAR	OAR	SHELL	7	[0, 0, 0]	-999	PAL1	3	R1278E
851.832	0.267	1037936	STUDY_ORIENT	n/a	5	1	SPOON	SPOON	SPOON	LAWN	7	[0, 0, 0]	-999	PAL1	3	R1278E
852.099	0.517	1038203	STUDY_ORIENT_OFF	n/a	5	1	SPOON	SPOON	SPOON	LAWN	7	[0, 0, 0]	-999	PAL1	3	R1278E
852.616	4.017	1038720	STUDY_PAIR	n/a	5	1	SPOON	SPOON	SPOON	LAWN	7	[0, 0, 0]	-999	PAL1	3	R1278E
856.633	1.017	1042737	PAIR_OFF	n/a	5	1	SPOON	SPOON	SPOON	LAWN	7	[0, 0, 0]	-999	PAL1	3	R1278E
857.65	0.266	1043754	STUDY_ORIENT	n/a	6	6	TRUCK	n/a	TRUCK	HOSE	7	[0, 0, 0]	-999	PAL1	3	R1278E
857.916	0.666	1044020	STUDY_ORIENT_OFF	n/a	6	6	TRUCK	n/a	TRUCK	HOSE	7	[0, 0, 0]	-999	PAL1	3	R1278E
858.582	4.019	1044686	STUDY_PAIR	n/a	6	6	TRUCK	n/a	TRUCK	HOSE	7	[0, 0, 0]	-999	PAL1	3	R1278E
862.601	1.0	1048705	PAIR_OFF	n/a	6	6	TRUCK	n/a	TRUCK	HOSE	7	[0, 0, 0]	-999	PAL1	3	R1278E
863.601	0.0	1049705	ENCODING_END	n/a	-999	-999	n/a	n/a	n/a	n/a	7	[0, 0, 0]	-999	PAL1	3	R1278E
863.601	0.0	1049705	MATH_START	n/a	-999	-999	n/a	n/a	n/a	n/a	7	[0, 0, 0]	-999	PAL1	3	R1278E
863.601	0.016	1049705	START	n/a	-999	-999	n/a	n/a	n/a	n/a	7	[-999, -999, -999]	-999	PAL1	3	R1278E
863.617	3.584	1049721	PROB	3556	-999	-999	n/a	n/a	n/a	n/a	7	[6, 3, 2]	11	PAL1	3	R1278E
867.201	2.701	1053305	PROB	2676	-999	-999	n/a	n/a	n/a	n/a	7	[5, 5, 7]	17	PAL1	3	R1278E
869.902	3.15	1056006	PROB	3119	-999	-999	n/a	n/a	n/a	n/a	7	[5, 3, 8]	16	PAL1	3	R1278E
873.052	4.568	1059155	PROB	4536	-999	-999	n/a	n/a	n/a	n/a	7	[5, 4, 7]	16	PAL1	3	R1278E
877.62	3.534	1063723	PROB	3505	-999	-999	n/a	n/a	n/a	n/a	7	[2, 5, 7]	14	PAL1	3	R1278E
881.154	3.643	1067257	PROB	3643	-999	-999	n/a	n/a	n/a	n/a	7	[9, 1, 5]	15	PAL1	3	R1278E
884.797	0.007	1070900	STOP	n/a	-999	-999	n/a	n/a	n/a	n/a	7	[-999, -999, -999]	-999	PAL1	3	R1278E
884.804	0.001	1070907	MATH_END	n/a	-999	-999	n/a	n/a	n/a	n/a	7	[0, 0, 0]	-999	PAL1	3	R1278E
884.805	0.016	1070908	RECALL_START	n/a	-999	-999	n/a	n/a	n/a	n/a	7	[0, 0, 0]	-999	PAL1	3	R1278E
884.821	0.267	1070924	TEST_ORIENT	n/a	5	1	SPOON	SPOON	SPOON	LAWN	7	[0, 0, 0]	-999	PAL1	3	R1278E
885.088	0.583	1071191	RETRIEVAL_ORIENT_OFF	n/a	-999	-999	n/a	n/a	n/a	n/a	7	[0, 0, 0]	-999	PAL1	3	R1278E
885.671	0.001	1071774	TEST_PROBE	n/a	5	1	SPOON	SPOON	SPOON	LAWN	7	[0, 0, 0]	-999	PAL1	3	R1278E
885.672	0.899	1071775	REC_START	n/a	5	-999	n/a	SPOON	n/a	n/a	7	[0, 0, 0]	-999	PAL1	3	R1278E
886.571	3.118	1072674	REC_EVENT	899	5	1	SPOON	SPOON	SPOON	LAWN	7	[0, 0, 0]	-999	PAL1	3	R1278E
889.689	1.0	1075792	PROBE_OFF	n/a	5	-999	n/a	n/a	n/a	n/a	7	[0, 0, 0]	-999	PAL1	3	R1278E
890.689	0.016	1076792	REC_END	n/a	5	-999	n/a	n/a	n/a	n/a	7	[0, 0, 0]	-999	PAL1	3	R1278E
890.705	0.267	1076808	TEST_ORIENT	n/a	4	2	SHELL	OAR	OAR	SHELL	7	[0, 0, 0]	-999	PAL1	3	R1278E
890.972	0.616	1077075	RETRIEVAL_ORIENT_OFF	n/a	5	-999	n/a	n/a	n/a	n/a	7	[0, 0, 0]	-999	PAL1	3	R1278E
891.588	0.001	1077691	TEST_PROBE	n/a	4	2	SHELL	OAR	OAR	SHELL	7	[0, 0, 0]	-999	PAL1	3	R1278E
891.589	0.94	1077692	REC_START	n/a	4	-999	n/a	OAR	n/a	n/a	7	[0, 0, 0]	-999	PAL1	3	R1278E
892.529	3.077	1078632	REC_EVENT	940	4	2	SHELL	OAR	OAR	SHELL	7	[0, 0, 0]	-999	PAL1	3	R1278E
895.606	1.001	1081709	PROBE_OFF	n/a	4	-999	n/a	n/a	n/a	n/a	7	[0, 0, 0]	-999	PAL1	3	R1278E
896.607	0.016	1082710	REC_END	n/a	4	-999	n/a	n/a	n/a	n/a	7	[0, 0, 0]	-999	PAL1	3	R1278E
896.623	0.267	1082726	TEST_ORIENT	n/a	3	3	RUG	SHIRT	RUG	SHIRT	7	[0, 0, 0]	-999	PAL1	3	R1278E
896.89	0.6	1082993	RETRIEVAL_ORIENT_OFF	n/a	4	-999	n/a	n/a	n/a	n/a	7	[0, 0, 0]	-999	PAL1	3	R1278E
897.49	0.001	1083592	TEST_PROBE	n/a	3	3	RUG	SHIRT	RUG	SHIRT	7	[0, 0, 0]	-999	PAL1	3	R1278E
897.491	1.329	1083593	REC_START	n/a	3	-999	n/a	SHIRT	n/a	n/a	7	[0, 0, 0]	-999	PAL1	3	R1278E
898.82	2.687	1084922	REC_EVENT	1329	3	3	RUG	SHIRT	RUG	SHIRT	7	[0, 0, 0]	-999	PAL1	3	R1278E
901.507	1.0	1087609	PROBE_OFF	n/a	3	-999	n/a	n/a	n/a	n/a	7	[0, 0, 0]	-999	PAL1	3	R1278E
902.507	0.017	1088609	REC_END	n/a	3	-999	n/a	n/a	n/a	n/a	7	[0, 0, 0]	-999	PAL1	3	R1278E
902.524	0.267	1088626	TEST_ORIENT	n/a	2	4	CAR	CLIFF	CLIFF	CAR	7	[0, 0, 0]	-999	PAL1	3	R1278E
902.791	0.617	1088893	RETRIEVAL_ORIENT_OFF	n/a	3	-999	n/a	n/a	n/a	n/a	7	[0, 0, 0]	-999	PAL1	3	R1278E
903.408	0.0	1089510	TEST_PROBE	n/a	2	4	CAR	CLIFF	CLIFF	CAR	7	[0, 0, 0]	-999	PAL1	3	R1278E
903.408	0.904	1089510	REC_START	n/a	2	-999	n/a	CLIFF	n/a	n/a	7	[0, 0, 0]	-999	PAL1	3	R1278E
904.312	3.113	1090414	REC_EVENT	904	2	4	CAR	CLIFF	CLIFF	CAR	7	[0, 0, 0]	-999	PAL1	3	R1278E
907.425	1.001	1093527	PROBE_OFF	n/a	2	-999	n/a	n/a	n/a	n/a	7	[0, 0, 0]	-999	PAL1	3	R1278E
908.426	0.016	1094528	REC_END	n/a	2	-999	n/a	n/a	n/a	n/a	7	[0, 0, 0]	-999	PAL1	3	R1278E
908.442	0.267	1094544	TEST_ORIENT	n/a	1	5	STRING	PASS	BRANCH	STRING	7	[0, 0, 0]	-999	PAL1	3	R1278E
908.709	0.716	1094811	RETRIEVAL_ORIENT_OFF	n/a	2	-999	n/a	n/a	n/a	n/a	7	[0, 0, 0]	-999	PAL1	3	R1278E
909.425	0.001	1095527	TEST_PROBE	n/a	1	5	STRING	PASS	BRANCH	STRING	7	[0, 0, 0]	-999	PAL1	3	R1278E
909.426	3.094	1095528	REC_START	n/a	1	-999	n/a	PASS	n/a	n/a	7	[0, 0, 0]	-999	PAL1	3	R1278E
912.52	0.312	1098622	REC_EVENT	3094	1	5	STRING	<>	BRANCH	STRING	7	[0, 0, 0]	-999	PAL1	3	R1278E
912.832	0.611	1098934	REC_EVENT	3406	1	5	STRING	PASS	BRANCH	STRING	7	[0, 0, 0]	-999	PAL1	3	R1278E
913.443	0.148	1099545	PROBE_OFF	n/a	1	-999	n/a	n/a	n/a	n/a	7	[0, 0, 0]	-999	PAL1	3	R1278E
913.591	0.852	1099693	REC_EVENT	4165	1	5	STRING	<>	BRANCH	STRING	7	[0, 0, 0]	-999	PAL1	3	R1278E
914.443	0.017	1100545	REC_END	n/a	1	-999	n/a	n/a	n/a	n/a	7	[0, 0, 0]	-999	PAL1	3	R1278E
914.46	0.266	1100562	TEST_ORIENT	n/a	6	6	TRUCK	n/a	TRUCK	HOSE	7	[0, 0, 0]	-999	PAL1	3	R1278E
914.726	0.551	1100828	RETRIEVAL_ORIENT_OFF	n/a	1	-999	n/a	n/a	n/a	n/a	7	[0, 0, 0]	-999	PAL1	3	R1278E
915.277	0.0	1101379	TEST_PROBE	n/a	6	6	TRUCK	n/a	TRUCK	HOSE	7	[0, 0, 0]	-999	PAL1	3	R1278E
915.277	4.017	1101379	REC_START	n/a	6	-999	n/a	n/a	n/a	n/a	7	[0, 0, 0]	-999	PAL1	3	R1278E
919.294	0.983	1105396	PROBE_OFF	n/a	6	-999	n/a	n/a	n/a	n/a	7	[0, 0, 0]	-999	PAL1	3	R1278E
920.277	0.027	1106379	REC_EVENT	5000	6	6	TRUCK	<>	TRUCK	HOSE	7	[0, 0, 0]	-999	PAL1	3	R1278E
920.304	0.004	1106406	REC_END	n/a	6	-999	n/a	n/a	n/a	n/a	7	[0, 0, 0]	-999	PAL1	3	R1278E
920.308	94.586	1106410	RECALL_END	n/a	-999	-999	n/a	n/a	n/a	n/a	7	[0, 0, 0]	-999	PAL1	3	R1278E
1014.894	10.929	1200992	TRIAL	n/a	-999	-999	n/a	n/a	n/a	n/a	8	[0, 0, 0]	-999	PAL1	3	R1278E
1025.823	0.006	1211921	ENCODING_START	n/a	-999	-999	n/a	n/a	n/a	n/a	8	[0, 0, 0]	-999	PAL1	3	R1278E
1025.829	0.267	1211927	STUDY_ORIENT	n/a	1	1	BOX	HAWK	HAWK	BOX	8	[0, 0, 0]	-999	PAL1	3	R1278E
1026.096	0.6	1212193	STUDY_ORIENT_OFF	n/a	1	1	BOX	HAWK	HAWK	BOX	8	[0, 0, 0]	-999	PAL1	3	R1278E
1026.696	4.017	1212793	STUDY_PAIR	n/a	1	1	BOX	HAWK	HAWK	BOX	8	[0, 0, 0]	-999	PAL1	3	R1278E
1030.713	1.017	1216810	PAIR_OFF	n/a	1	1	BOX	HAWK	HAWK	BOX	8	[0, 0, 0]	-999	PAL1	3	R1278E
1031.73	0.267	1217827	STUDY_ORIENT	n/a	2	6	JET	n/a	JET	CONE	8	[0, 0, 0]	-999	PAL1	3	R1278E
1031.997	0.733	1218094	STUDY_ORIENT_OFF	n/a	2	6	JET	n/a	JET	CONE	8	[0, 0, 0]	-999	PAL1	3	R1278E
1032.73	4.018	1218827	STUDY_PAIR	n/a	2	6	JET	n/a	JET	CONE	8	[0, 0, 0]	-999	PAL1	3	R1278E
1036.748	1.017	1222845	PAIR_OFF	n/a	2	6	JET	n/a	JET	CONE	8	[0, 0, 0]	-999	PAL1	3	R1278E
1037.765	0.266	1223862	STUDY_ORIENT	n/a	3	5	FARM	PASS	MOOSE	FARM	8	[0, 0, 0]	-999	PAL1	3	R1278E
1038.031	0.7	1224128	STUDY_ORIENT_OFF	n/a	3	5	FARM	PASS	MOOSE	FARM	8	[0, 0, 0]	-999	PAL1	3	R1278E
1038.731	4.018	1224828	STUDY_PAIR	n/a	3	5	FARM	PASS	MOOSE	FARM	8	[0, 0, 0]	-999	PAL1	3	R1278E
1042.749	1.017	1228846	PAIR_OFF	n/a	3	5	FARM	PASS	MOOSE	FARM	8	[0, 0, 0]	-999	PAL1	3	R1278E
1043.766	0.266	1229863	STUDY_ORIENT	n/a	4	4	BOARD	SHEET	SHEET	BOARD	8	[0, 0, 0]	-999	PAL1	3	R1278E
1044.032	0.567	1230129	STUDY_ORIENT_OFF	n/a	4	4	BOARD	SHEET	SHEET	BOARD	8	[0, 0, 0]	-999	PAL1	3	R1278E
1044.599	4.017	1230696	STUDY_PAIR	n/a	4	4	BOARD	SHEET	SHEET	BOARD	8	[0, 0, 0]	-999	PAL1	3	R1278E
1048.616	1.017	1234713	PAIR_OFF	n/a	4	4	BOARD	SHEET	SHEET	BOARD	8	[0, 0, 0]	-999	PAL1	3	R1278E
1049.633	0.267	1235730	STUDY_ORIENT	n/a	5	3	PRINCE	STONE	PRINCE	STONE	8	[0, 0, 0]	-999	PAL1	3	R1278E
1049.9	0.633	1235997	STUDY_ORIENT_OFF	n/a	5	3	PRINCE	STONE	PRINCE	STONE	8	[0, 0, 0]	-999	PAL1	3	R1278E
1050.533	4.017	1236630	STUDY_PAIR	n/a	5	3	PRINCE	STONE	PRINCE	STONE	8	[0, 0, 0]	-999	PAL1	3	R1278E
1054.55	1.017	1240646	PAIR_OFF	n/a	5	3	PRINCE	STONE	PRINCE	STONE	8	[0, 0, 0]	-999	PAL1	3	R1278E
1055.567	0.268	1241663	STUDY_ORIENT	n/a	6	2	INK	ZOO	ZOO	INK	8	[0, 0, 0]	-999	PAL1	3	R1278E
1055.835	0.683	1241931	STUDY_ORIENT_OFF	n/a	6	2	INK	ZOO	ZOO	INK	8	[0, 0, 0]	-999	PAL1	3	R1278E
1056.518	4.017	1242614	STUDY_PAIR	n/a	6	2	INK	ZOO	ZOO	INK	8	[0, 0, 0]	-999	PAL1	3	R1278E
1060.535	1.001	1246631	PAIR_OFF	n/a	6	2	INK	ZOO	ZOO	INK	8	[0, 0, 0]	-999	PAL1	3	R1278E
1061.536	0.0	1247632	ENCODING_END	n/a	-999	-999	n/a	n/a	n/a	n/a	8	[0, 0, 0]	-999	PAL1	3	R1278E
1061.536	0.0	1247632	MATH_START	n/a	-999	-999	n/a	n/a	n/a	n/a	8	[0, 0, 0]	-999	PAL1	3	R1278E
1061.536	0.015	1247632	START	n/a	-999	-999	n/a	n/a	n/a	n/a	8	[-999, -999, -999]	-999	PAL1	3	R1278E
1061.551	2.968	1247647	PROB	2935	-999	-999	n/a	n/a	n/a	n/a	8	[1, 2, 9]	12	PAL1	3	R1278E
1064.519	4.835	1250615	PROB	4807	-999	-999	n/a	n/a	n/a	n/a	8	[9, 7, 1]	17	PAL1	3	R1278E
1069.354	3.133	1255450	PROB	3100	-999	-999	n/a	n/a	n/a	n/a	8	[2, 3, 9]	14	PAL1	3	R1278E
1072.487	2.851	1258583	PROB	2815	-999	-999	n/a	n/a	n/a	n/a	8	[6, 4, 1]	11	PAL1	3	R1278E
1075.338	2.817	1261434	PROB	2779	-999	-999	n/a	n/a	n/a	n/a	8	[4, 1, 9]	14	PAL1	3	R1278E
1078.155	5.344	1264250	PROB	5344	-999	-999	n/a	n/a	n/a	n/a	8	[9, 6, 5]	20	PAL1	3	R1278E
1083.499	0.007	1269594	STOP	n/a	-999	-999	n/a	n/a	n/a	n/a	8	[-999, -999, -999]	-999	PAL1	3	R1278E
1083.506	0.0	1269601	MATH_END	n/a	-999	-999	n/a	n/a	n/a	n/a	8	[0, 0, 0]	-999	PAL1	3	R1278E
1083.506	0.017	1269601	RECALL_START	n/a	-999	-999	n/a	n/a	n/a	n/a	8	[0, 0, 0]	-999	PAL1	3	R1278E
1083.523	0.266	1269618	TEST_ORIENT	n/a	1	1	BOX	HAWK	HAWK	BOX	8	[0, 0, 0]	-999	PAL1	3	R1278E
1083.789	0.617	1269884	RETRIEVAL_ORIENT_OFF	n/a	-999	-999	n/a	n/a	n/a	n/a	8	[0, 0, 0]	-999	PAL1	3	R1278E
1084.406	0.001	1270501	TEST_PROBE	n/a	1	1	BOX	HAWK	HAWK	BOX	8	[0, 0, 0]	-999	PAL1	3	R1278E
1084.407	1.064	1270502	REC_START	n/a	1	-999	n/a	HAWK	n/a	n/a	8	[0, 0, 0]	-999	PAL1	3	R1278E
1085.471	2.953	1271566	REC_EVENT	1064	1	1	BOX	HAWK	HAWK	BOX	8	[0, 0, 0]	-999	PAL1	3	R1278E
1088.424	1.01	1274519	PROBE_OFF	n/a	1	-999	n/a	n/a	n/a	n/a	8	[0, 0, 0]	-999	PAL1	3	R1278E
1089.434	0.023	1275529	REC_END	n/a	1	-999	n/a	n/a	n/a	n/a	8	[0, 0, 0]	-999	PAL1	3	R1278E
1089.457	0.267	1275552	TEST_ORIENT	n/a	6	2	INK	ZOO	ZOO	INK	8	[0, 0, 0]	-999	PAL1	3	R1278E
1089.724	0.7	1275819	RETRIEVAL_ORIENT_OFF	n/a	1	-999	n/a	n/a	n/a	n/a	8	[0, 0, 0]	-999	PAL1	3	R1278E
1090.424	0.0	1276519	TEST_PROBE	n/a	6	2	INK	ZOO	ZOO	INK	8	[0, 0, 0]	-999	PAL1	3	R1278E
1090.424	1.395	1276519	REC_START	n/a	6	-999	n/a	ZOO	n/a	n/a	8	[0, 0, 0]	-999	PAL1	3	R1278E
1091.819	2.622	1277914	REC_EVENT	1395	6	2	INK	ZOO	ZOO	INK	8	[0, 0, 0]	-999	PAL1	3	R1278E
1094.441	0.592	1280536	PROBE_OFF	n/a	6	-999	n/a	n/a	n/a	n/a	8	[0, 0, 0]	-999	PAL1	3	R1278E
1095.033	0.408	1281128	REC_EVENT	4609	6	2	INK	<>	ZOO	INK	8	[0, 0, 0]	-999	PAL1	3	R1278E
1095.441	0.017	1281536	REC_END	n/a	6	-999	n/a	n/a	n/a	n/a	8	[0, 0, 0]	-999	PAL1	3	R1278E
1095.458	0.267	1281553	TEST_ORIENT	n/a	5	3	PRINCE	STONE	PRINCE	STONE	8	[0, 0, 0]	-999	PAL1	3	R1278E
1095.725	0.733	1281820	RETRIEVAL_ORIENT_OFF	n/a	6	-999	n/a	n/a	n/a	n/a	8	[0, 0, 0]	-999	PAL1	3	R1278E
1096.458	0.001	1282553	TEST_PROBE	n/a	5	3	PRINCE	STONE	PRINCE	STONE	8	[0, 0, 0]	-999	PAL1	3	R1278E
1096.459	0.904	1282554	REC_START	n/a	5	-999	n/a	STONE	n/a	n/a	8	[0, 0, 0]	-999	PAL1	3	R1278E
1097.363	3.113	1283458	REC_EVENT	904	5	3	PRINCE	STONE	PRINCE	STONE	8	[0, 0, 0]	-999	PAL1	3	R1278E
1100.476	1.0	1286571	PROBE_OFF	n/a	5	-999	n/a	n/a	n/a	n/a	8	[0, 0, 0]	-999	PAL1	3	R1278E
1101.476	0.016	1287571	REC_END	n/a	5	-999	n/a	n/a	n/a	n/a	8	[0, 0, 0]	-999	PAL1	3	R1278E
1101.492	0.267	1287587	TEST_ORIENT	n/a	4	4	BOARD	SHEET	SHEET	BOARD	8	[0, 0, 0]	-999	PAL1	3	R1278E
1101.759	0.75	1287854	RETRIEVAL_ORIENT_OFF	n/a	5	-999	n/a	n/a	n/a	n/a	8	[0, 0, 0]	-999	PAL1	3	R1278E
1102.509	0.001	1288604	TEST_PROBE	n/a	4	4	BOARD	SHEET	SHEET	BOARD	8	[0, 0, 0]	-999	PAL1	3	R1278E
1102.51	1.239	1288605	REC_START	n/a	4	-999	n/a	SHEET	n/a	n/a	8	[0, 0, 0]	-999	PAL1	3	R1278E
1103.749	2.778	1289843	REC_EVENT	1239	4	4	BOARD	SHEET	SHEET	BOARD	8	[0, 0, 0]	-999	PAL1	3	R1278E
1106.527	1.0	1292621	PROBE_OFF	n/a	4	-999	n/a	n/a	n/a	n/a	8	[0, 0, 0]	-999	PAL1	3	R1278E
1107.527	0.016	1293621	REC_END	n/a	4	-999	n/a	n/a	n/a	n/a	8	[0, 0, 0]	-999	PAL1	3	R1278E
1107.543	0.267	1293637	TEST_ORIENT	n/a	3	5	FARM	PASS	MOOSE	FARM	8	[0, 0, 0]	-999	PAL1	3	R1278E
1107.81	0.684	1293904	RETRIEVAL_ORIENT_OFF	n/a	4	-999	n/a	n/a	n/a	n/a	8	[0, 0, 0]	-999	PAL1	3	R1278E
1108.494	0.0	1294588	TEST_PROBE	n/a	3	5	FARM	PASS	MOOSE	FARM	8	[0, 0, 0]	-999	PAL1	3	R1278E
1108.494	3.249	1294588	REC_START	n/a	3	-999	n/a	PASS	n/a	n/a	8	[0, 0, 0]	-999	PAL1	3	R1278E
1111.743	0.768	1297837	REC_EVENT	3249	3	5	FARM	PASS	MOOSE	FARM	8	[0, 0, 0]	-999	PAL1	3	R1278E
1112.511	1.0	1298605	PROBE_OFF	n/a	3	-999	n/a	n/a	n/a	n/a	8	[0, 0, 0]	-999	PAL1	3	R1278E
1113.511	0.017	1299605	REC_END	n/a	3	-999	n/a	n/a	n/a	n/a	8	[0, 0, 0]	-999	PAL1	3	R1278E
1113.528	0.267	1299622	TEST_ORIENT	n/a	2	6	JET	n/a	JET	CONE	8	[0, 0, 0]	-999	PAL1	3	R1278E
1113.795	0.55	1299889	RETRIEVAL_ORIENT_OFF	n/a	3	-999	n/a	n/a	n/a	n/a	8	[0, 0, 0]	-999	PAL1	3	R1278E
1114.345	0.0	1300439	TEST_PROBE	n/a	2	6	JET	n/a	JET	CONE	8	[0, 0, 0]	-999	PAL1	3	R1278E
1114.345	1.574	1300439	REC_START	n/a	2	-999	n/a	n/a	n/a	n/a	8	[0, 0, 0]	-999	PAL1	3	R1278E
1115.919	0.445	1302013	REC_EVENT	1574	2	6	JET	<>	JET	CONE	8	[0, 0, 0]	-999	PAL1	3	R1278E
1116.364	1.0	1302458	REC_EVENT	2019	2	6	JET	<>	JET	CONE	8	[0, 0, 0]	-999	PAL1	3	R1278E
1117.364	0.998	1303458	REC_EVENT	3019	2	6	JET	<>	JET	CONE	8	[0, 0, 0]	-999	PAL1	3	R1278E
1118.362	0.002	1304456	PROBE_OFF	n/a	2	-999	n/a	n/a	n/a	n/a	8	[0, 0, 0]	-999	PAL1	3	R1278E
1118.364	0.998	1304458	REC_EVENT	4019	2	6	JET	<>	JET	CONE	8	[0, 0, 0]	-999	PAL1	3	R1278E
1119.362	0.002	1305456	REC_END	n/a	2	-999	n/a	n/a	n/a	n/a	8	[0, 0, 0]	-999	PAL1	3	R1278E
1119.364	0.007	1305458	REC_EVENT	5019	2	6	JET	<>	JET	CONE	8	[0, 0, 0]	-999	PAL1	3	R1278E
1119.371	4.309	1305465	RECALL_END	n/a	-999	-999	n/a	n/a	n/a	n/a	8	[0, 0, 0]	-999	PAL1	3	R1278E
1123.68	10.929	1309774	TRIAL	n/a	-999	-999	n/a	n/a	n/a	n/a	9	[0, 0, 0]	-999	PAL1	3	R1278E
1134.609	0.006	1320702	ENCODING_START	n/a	-999	-999	n/a	n/a	n/a	n/a	9	[0, 0, 0]	-999	PAL1	3	R1278E
1134.615	0.267	1320708	STUDY_ORIENT	n/a	1	3	MOLE	BEAR	MOLE	BEAR	9	[0, 0, 0]	-999	PAL1	3	R1278E
1134.882	0.682	1320975	STUDY_ORIENT_OFF	n/a	1	3	MOLE	BEAR	MOLE	BEAR	9	[0, 0, 0]	-999	PAL1	3	R1278E
1135.564	4.017	1321657	STUDY_PAIR	n/a	1	3	MOLE	BEAR	MOLE	BEAR	9	[0, 0, 0]	-999	PAL1	3	R1278E
1139.581	1.018	1325674	PAIR_OFF	n/a	1	3	MOLE	BEAR	MOLE	BEAR	9	[0, 0, 0]	-999	PAL1	3	R1278E
1140.599	0.267	1326692	STUDY_ORIENT	n/a	2	2	MILK	PASS	SIGN	MILK	9	[0, 0, 0]	-999	PAL1	3	R1278E
1140.866	0.55	1326959	STUDY_ORIENT_OFF	n/a	2	2	MILK	PASS	SIGN	MILK	9	[0, 0, 0]	-999	PAL1	3	R1278E
1141.416	4.017	1327509	STUDY_PAIR	n/a	2	2	MILK	PASS	SIGN	MILK	9	[0, 0, 0]	-999	PAL1	3	R1278E
1145.433	1.017	1331526	PAIR_OFF	n/a	2	2	MILK	PASS	SIGN	MILK	9	[0, 0, 0]	-999	PAL1	3	R1278E
1146.45	0.267	1332543	STUDY_ORIENT	n/a	3	5	ROAD	PASS	CLOWN	ROAD	9	[0, 0, 0]	-999	PAL1	3	R1278E
1146.717	0.65	1332810	STUDY_ORIENT_OFF	n/a	3	5	ROAD	PASS	CLOWN	ROAD	9	[0, 0, 0]	-999	PAL1	3	R1278E
1147.367	4.018	1333460	STUDY_PAIR	n/a	3	5	ROAD	PASS	CLOWN	ROAD	9	[0, 0, 0]	-999	PAL1	3	R1278E
1151.385	1.016	1337478	PAIR_OFF	n/a	3	5	ROAD	PASS	CLOWN	ROAD	9	[0, 0, 0]	-999	PAL1	3	R1278E
1152.401	0.267	1338494	STUDY_ORIENT	n/a	4	6	TIE	n/a	GOLD	TIE	9	[0, 0, 0]	-999	PAL1	3	R1278E
1152.668	0.667	1338761	STUDY_ORIENT_OFF	n/a	4	6	TIE	n/a	GOLD	TIE	9	[0, 0, 0]	-999	PAL1	3	R1278E
1153.335	4.017	1339428	STUDY_PAIR	n/a	4	6	TIE	n/a	GOLD	TIE	9	[0, 0, 0]	-999	PAL1	3	R1278E
1157.352	1.017	1343444	PAIR_OFF	n/a	4	6	TIE	n/a	GOLD	TIE	9	[0, 0, 0]	-999	PAL1	3	R1278E
1158.369	0.267	1344461	STUDY_ORIENT	n/a	5	1	WHEEL	THREAD	WHEEL	THREAD	9	[0, 0, 0]	-999	PAL1	3	R1278E
1158.636	0.683	1344728	STUDY_ORIENT_OFF	n/a	5	1	WHEEL	THREAD	WHEEL	THREAD	9	[0, 0, 0]	-999	PAL1	3	R1278E
1159.319	4.018	1345411	STUDY_PAIR	n/a	5	1	WHEEL	THREAD	WHEEL	THREAD	9	[0, 0, 0]	-999	PAL1	3	R1278E
1163.337	1.017	1349429	PAIR_OFF	n/a	5	1	WHEEL	THREAD	WHEEL	THREAD	9	[0, 0, 0]	-999	PAL1	3	R1278E
1164.354	0.266	1350446	STUDY_ORIENT	n/a	6	4	STICK	SHIP	STICK	SHIP	9	[0, 0, 0]	-999	PAL1	3	R1278E
1164.62	0.734	1350712	STUDY_ORIENT_OFF	n/a	6	4	STICK	SHIP	STICK	SHIP	9	[0, 0, 0]	-999	PAL1	3	R1278E
1165.354	4.017	1351446	STUDY_PAIR	n/a	6	4	STICK	SHIP	STICK	SHIP	9	[0, 0, 0]	-999	PAL1	3	R1278E
1169.371	1.001	1355463	PAIR_OFF	n/a	6	4	STICK	SHIP	STICK	SHIP	9	[0, 0, 0]	-999	PAL1	3	R1278E
1170.372	0.0	1356464	ENCODING_END	n/a	-999	-999	n/a	n/a	n/a	n/a	9	[0, 0, 0]	-999	PAL1	3	R1278E
1170.372	0.0	1356464	MATH_START	n/a	-999	-999	n/a	n/a	n/a	n/a	9	[0, 0, 0]	-999	PAL1	3	R1278E
1170.372	0.016	1356464	START	n/a	-999	-999	n/a	n/a	n/a	n/a	9	[-999, -999, -999]	-999	PAL1	3	R1278E
1170.388	5.234	1356480	PROB	5207	-999	-999	n/a	n/a	n/a	n/a	9	[5, 2, 8]	15	PAL1	3	R1278E
1175.622	2.517	1361714	PROB	2494	-999	-999	n/a	n/a	n/a	n/a	9	[5, 2, 5]	12	PAL1	3	R1278E
1178.139	9.285	1364231	PROB	9257	-999	-999	n/a	n/a	n/a	n/a	9	[8, 7, 9]	24	PAL1	3	R1278E
1187.424	3.428	1373515	PROB	3428	-999	-999	n/a	n/a	n/a	n/a	9	[3, 2, 6]	11	PAL1	3	R1278E
1190.852	0.006	1376943	STOP	n/a	-999	-999	n/a	n/a	n/a	n/a	9	[-999, -999, -999]	-999	PAL1	3	R1278E
1190.858	0.0	1376949	MATH_END	n/a	-999	-999	n/a	n/a	n/a	n/a	9	[0, 0, 0]	-999	PAL1	3	R1278E
1190.858	0.017	1376949	RECALL_START	n/a	-999	-999	n/a	n/a	n/a	n/a	9	[0, 0, 0]	-999	PAL1	3	R1278E
1190.875	0.267	1376966	TEST_ORIENT	n/a	5	1	WHEEL	THREAD	WHEEL	THREAD	9	[0, 0, 0]	-999	PAL1	3	R1278E
1191.142	0.6	1377233	RETRIEVAL_ORIENT_OFF	n/a	-999	-999	n/a	n/a	n/a	n/a	9	[0, 0, 0]	-999	PAL1	3	R1278E
1191.742	0.0	1377833	REC_START	n/a	5	-999	n/a	THREAD	n/a	n/a	9	[0, 0, 0]	-999	PAL1	3	R1278E
1191.742	1.604	1377833	TEST_PROBE	n/a	5	1	WHEEL	THREAD	WHEEL	THREAD	9	[0, 0, 0]	-999	PAL1	3	R1278E
1193.346	2.413	1379437	REC_EVENT	1604	5	1	WHEEL	THREAD	WHEEL	THREAD	9	[0, 0, 0]	-999	PAL1	3	R1278E
1195.759	1.0	1381850	PROBE_OFF	n/a	5	-999	n/a	n/a	n/a	n/a	9	[0, 0, 0]	-999	PAL1	3	R1278E
1196.759	0.017	1382850	REC_END	n/a	5	-999	n/a	n/a	n/a	n/a	9	[0, 0, 0]	-999	PAL1	3	R1278E
1196.776	0.267	1382867	TEST_ORIENT	n/a	2	2	MILK	PASS	SIGN	MILK	9	[0, 0, 0]	-999	PAL1	3	R1278E
1197.043	0.716	1383134	RETRIEVAL_ORIENT_OFF	n/a	5	-999	n/a	n/a	n/a	n/a	9	[0, 0, 0]	-999	PAL1	3	R1278E
1197.759	0.001	1383850	TEST_PROBE	n/a	2	2	MILK	PASS	SIGN	MILK	9	[0, 0, 0]	-999	PAL1	3	R1278E
1197.76	3.024	1383851	REC_START	n/a	2	-999	n/a	PASS	n/a	n/a	9	[0, 0, 0]	-999	PAL1	3	R1278E
1200.784	0.993	1386875	REC_EVENT	3024	2	2	MILK	PASS	SIGN	MILK	9	[0, 0, 0]	-999	PAL1	3	R1278E
1201.777	1.0	1387868	PROBE_OFF	n/a	2	-999	n/a	n/a	n/a	n/a	9	[0, 0, 0]	-999	PAL1	3	R1278E
1202.777	0.017	1388868	REC_END	n/a	2	-999	n/a	n/a	n/a	n/a	9	[0, 0, 0]	-999	PAL1	3	R1278E
1202.794	0.266	1388885	TEST_ORIENT	n/a	1	3	MOLE	BEAR	MOLE	BEAR	9	[0, 0, 0]	-999	PAL1	3	R1278E
1203.06	0.634	1389151	RETRIEVAL_ORIENT_OFF	n/a	2	-999	n/a	n/a	n/a	n/a	9	[0, 0, 0]	-999	PAL1	3	R1278E
1203.694	0.0	1389785	REC_START	n/a	1	-999	n/a	BEAR	n/a	n/a	9	[0, 0, 0]	-999	PAL1	3	R1278E
1203.694	0.98	1389785	TEST_PROBE	n/a	1	3	MOLE	BEAR	MOLE	BEAR	9	[0, 0, 0]	-999	PAL1	3	R1278E
1204.674	3.037	1390765	REC_EVENT	980	1	3	MOLE	BEAR	MOLE	BEAR	9	[0, 0, 0]	-999	PAL1	3	R1278E
1207.711	1.001	1393801	PROBE_OFF	n/a	1	-999	n/a	n/a	n/a	n/a	9	[0, 0, 0]	-999	PAL1	3	R1278E
1208.712	0.016	1394802	REC_END	n/a	1	-999	n/a	n/a	n/a	n/a	9	[0, 0, 0]	-999	PAL1	3	R1278E
1208.728	0.267	1394818	TEST_ORIENT	n/a	6	4	STICK	SHIP	STICK	SHIP	9	[0, 0, 0]	-999	PAL1	3	R1278E
1208.995	0.666	1395085	RETRIEVAL_ORIENT_OFF	n/a	1	-999	n/a	n/a	n/a	n/a	9	[0, 0, 0]	-999	PAL1	3	R1278E
1209.661	0.001	1395751	TEST_PROBE	n/a	6	4	STICK	SHIP	STICK	SHIP	9	[0, 0, 0]	-999	PAL1	3	R1278E
1209.662	0.995	1395752	REC_START	n/a	6	-999	n/a	SHIP	n/a	n/a	9	[0, 0, 0]	-999	PAL1	3	R1278E
1210.657	3.022	1396747	REC_EVENT	995	6	4	STICK	SHIP	STICK	SHIP	9	[0, 0, 0]	-999	PAL1	3	R1278E
1213.679	1.0	1399769	PROBE_OFF	n/a	6	-999	n/a	n/a	n/a	n/a	9	[0, 0, 0]	-999	PAL1	3	R1278E
1214.679	0.017	1400769	REC_END	n/a	6	-999	n/a	n/a	n/a	n/a	9	[0, 0, 0]	-999	PAL1	3	R1278E
1214.696	0.266	1400786	TEST_ORIENT	n/a	3	5	ROAD	PASS	CLOWN	ROAD	9	[0, 0, 0]	-999	PAL1	3	R1278E
1214.962	0.517	1401052	RETRIEVAL_ORIENT_OFF	n/a	6	-999	n/a	n/a	n/a	n/a	9	[0, 0, 0]	-999	PAL1	3	R1278E
1215.479	0.001	1401569	TEST_PROBE	n/a	3	5	ROAD	PASS	CLOWN	ROAD	9	[0, 0, 0]	-999	PAL1	3	R1278E
1215.48	2.834	1401570	REC_START	n/a	3	-999	n/a	PASS	n/a	n/a	9	[0, 0, 0]	-999	PAL1	3	R1278E
1218.314	1.182	1404404	REC_EVENT	2834	3	5	ROAD	PASS	CLOWN	ROAD	9	[0, 0, 0]	-999	PAL1	3	R1278E
1219.496	1.0	1405586	PROBE_OFF	n/a	3	-999	n/a	n/a	n/a	n/a	9	[0, 0, 0]	-999	PAL1	3	R1278E
1220.496	0.017	1406586	REC_END	n/a	3	-999	n/a	n/a	n/a	n/a	9	[0, 0, 0]	-999	PAL1	3	R1278E
1220.513	0.267	1406603	TEST_ORIENT	n/a	4	6	TIE	n/a	GOLD	TIE	9	[0, 0, 0]	-999	PAL1	3	R1278E
1220.78	0.717	1406870	RETRIEVAL_ORIENT_OFF	n/a	3	-999	n/a	n/a	n/a	n/a	9	[0, 0, 0]	-999	PAL1	3	R1278E
1221.497	0.0	1407587	TEST_PROBE	n/a	4	6	TIE	n/a	GOLD	TIE	9	[0, 0, 0]	-999	PAL1	3	R1278E
1221.497	3.569	1407587	REC_START	n/a	4	-999	n/a	n/a	n/a	n/a	9	[0, 0, 0]	-999	PAL1	3	R1278E
1225.066	0.448	1411156	REC_EVENT	3569	4	6	TIE	<>	GOLD	TIE	9	[0, 0, 0]	-999	PAL1	3	R1278E
1225.514	0.552	1411604	PROBE_OFF	n/a	4	-999	n/a	n/a	n/a	n/a	9	[0, 0, 0]	-999	PAL1	3	R1278E
1226.066	0.448	1412156	REC_EVENT	4569	4	6	TIE	<>	GOLD	TIE	9	[0, 0, 0]	-999	PAL1	3	R1278E
1226.514	0.01	1412604	REC_END	n/a	4	-999	n/a	n/a	n/a	n/a	9	[0, 0, 0]	-999	PAL1	3	R1278E
1226.524	5.891	1412614	RECALL_END	n/a	-999	-999	n/a	n/a	n/a	n/a	9	[0, 0, 0]	-999	PAL1	3	R1278E
1232.415	10.928	1418504	TRIAL	n/a	-999	-999	n/a	n/a	n/a	n/a	10	[0, 0, 0]	-999	PAL1	3	R1278E
1243.343	0.008	1429432	ENCODING_START	n/a	-999	-999	n/a	n/a	n/a	n/a	10	[0, 0, 0]	-999	PAL1	3	R1278E
1243.351	0.266	1429440	STUDY_ORIENT	n/a	1	5	HOOK	PASS	HOOK	FOG	10	[0, 0, 0]	-999	PAL1	3	R1278E
1243.617	0.7	1429706	STUDY_ORIENT_OFF	n/a	1	5	HOOK	PASS	HOOK	FOG	10	[0, 0, 0]	-999	PAL1	3	R1278E
1244.317	4.018	1430406	STUDY_PAIR	n/a	1	5	HOOK	PASS	HOOK	FOG	10	[0, 0, 0]	-999	PAL1	3	R1278E
1248.335	1.017	1434424	PAIR_OFF	n/a	1	5	HOOK	PASS	HOOK	FOG	10	[0, 0, 0]	-999	PAL1	3	R1278E
1249.352	0.266	1435441	STUDY_ORIENT	n/a	2	4	BEAK	n/a	BEAK	LOCK	10	[0, 0, 0]	-999	PAL1	3	R1278E
1249.618	0.617	1435707	STUDY_ORIENT_OFF	n/a	2	4	BEAK	n/a	BEAK	LOCK	10	[0, 0, 0]	-999	PAL1	3	R1278E
1250.235	4.018	1436324	STUDY_PAIR	n/a	2	4	BEAK	n/a	BEAK	LOCK	10	[0, 0, 0]	-999	PAL1	3	R1278E
1254.253	1.016	1440342	PAIR_OFF	n/a	2	4	BEAK	n/a	BEAK	LOCK	10	[0, 0, 0]	-999	PAL1	3	R1278E
1255.269	0.267	1441358	STUDY_ORIENT	n/a	3	1	SHRIMP	n/a	SHRIMP	SLEEVE	10	[0, 0, 0]	-999	PAL1	3	R1278E
1255.536	0.734	1441625	STUDY_ORIENT_OFF	n/a	3	1	SHRIMP	n/a	SHRIMP	SLEEVE	10	[0, 0, 0]	-999	PAL1	3	R1278E
1256.27	4.017	1442359	STUDY_PAIR	n/a	3	1	SHRIMP	n/a	SHRIMP	SLEEVE	10	[0, 0, 0]	-999	PAL1	3	R1278E
1260.287	1.017	1446375	PAIR_OFF	n/a	3	1	SHRIMP	n/a	SHRIMP	SLEEVE	10	[0, 0, 0]	-999	PAL1	3	R1278E
1261.304	0.266	1447392	STUDY_ORIENT	n/a	4	6	BOAT	n/a	BOAT	GRAPE	10	[0, 0, 0]	-999	PAL1	3	R1278E
1261.57	0.634	1447658	STUDY_ORIENT_OFF	n/a	4	6	BOAT	n/a	BOAT	GRAPE	10	[0, 0, 0]	-999	PAL1	3	R1278E
1262.204	4.017	1448292	STUDY_PAIR	n/a	4	6	BOAT	n/a	BOAT	GRAPE	10	[0, 0, 0]	-999	PAL1	3	R1278E
1266.221	1.017	1452309	PAIR_OFF	n/a	4	6	BOAT	n/a	BOAT	GRAPE	10	[0, 0, 0]	-999	PAL1	3	R1278E
1267.238	0.267	1453326	STUDY_ORIENT	n/a	5	3	GRASS	PASS	DITCH	GRASS	10	[0, 0, 0]	-999	PAL1	3	R1278E
1267.505	0.683	1453593	STUDY_ORIENT_OFF	n/a	5	3	GRASS	PASS	DITCH	GRASS	10	[0, 0, 0]	-999	PAL1	3	R1278E
1268.188	4.018	1454276	STUDY_PAIR	n/a	5	3	GRASS	PASS	DITCH	GRASS	10	[0, 0, 0]	-999	PAL1	3	R1278E
1272.206	1.017	1458294	PAIR_OFF	n/a	5	3	GRASS	PASS	DITCH	GRASS	10	[0, 0, 0]	-999	PAL1	3	R1278E
1273.223	0.266	1459311	STUDY_ORIENT	n/a	6	2	BADGE	CORD	BADGE	CORD	10	[0, 0, 0]	-999	PAL1	3	R1278E
1273.489	0.617	1459577	STUDY_ORIENT_OFF	n/a	6	2	BADGE	CORD	BADGE	CORD	10	[0, 0, 0]	-999	PAL1	3	R1278E
1274.106	4.017	1460194	STUDY_PAIR	n/a	6	2	BADGE	CORD	BADGE	CORD	10	[0, 0, 0]	-999	PAL1	3	R1278E
1278.123	1.001	1464211	PAIR_OFF	n/a	6	2	BADGE	CORD	BADGE	CORD	10	[0, 0, 0]	-999	PAL1	3	R1278E
1279.124	0.0	1465212	ENCODING_END	n/a	-999	-999	n/a	n/a	n/a	n/a	10	[0, 0, 0]	-999	PAL1	3	R1278E
1279.124	0.0	1465212	MATH_START	n/a	-999	-999	n/a	n/a	n/a	n/a	10	[0, 0, 0]	-999	PAL1	3	R1278E
1279.124	0.016	1465212	START	n/a	-999	-999	n/a	n/a	n/a	n/a	10	[-999, -999, -999]	-999	PAL1	3	R1278E
1279.14	4.484	1465228	PROB	4447	-999	-999	n/a	n/a	n/a	n/a	10	[8, 6, 2]	16	PAL1	3	R1278E
1283.624	3.701	1469711	PROB	3675	-999	-999	n/a	n/a	n/a	n/a	10	[7, 6, 2]	15	PAL1	3	R1278E
1287.325	3.167	1473412	PROB	3135	-999	-999	n/a	n/a	n/a	n/a	10	[6, 6, 5]	17	PAL1	3	R1278E
1290.492	3.784	1476579	PROB	3757	-999	-999	n/a	n/a	n/a	n/a	10	[2, 3, 3]	8	PAL1	3	R1278E
1294.276	2.784	1480363	PROB	2749	-999	-999	n/a	n/a	n/a	n/a	10	[7, 3, 7]	17	PAL1	3	R1278E
1297.06	2.017	1483147	PROB	1989	-999	-999	n/a	n/a	n/a	n/a	10	[1, 2, 8]	11	PAL1	3	R1278E
1299.077	2.58	1485164	PROB	2580	-999	-999	n/a	n/a	n/a	n/a	10	[7, 2, 5]	14	PAL1	3	R1278E
1301.657	0.021	1487744	STOP	n/a	-999	-999	n/a	n/a	n/a	n/a	10	[-999, -999, -999]	-999	PAL1	3	R1278E
1301.678	0.0	1487765	MATH_END	n/a	-999	-999	n/a	n/a	n/a	n/a	10	[0, 0, 0]	-999	PAL1	3	R1278E
1301.678	0.016	1487765	RECALL_START	n/a	-999	-999	n/a	n/a	n/a	n/a	10	[0, 0, 0]	-999	PAL1	3	R1278E
1301.694	0.267	1487781	TEST_ORIENT	n/a	3	1	SHRIMP	n/a	SHRIMP	SLEEVE	10	[0, 0, 0]	-999	PAL1	3	R1278E
1301.961	0.533	1488048	RETRIEVAL_ORIENT_OFF	n/a	-999	-999	n/a	n/a	n/a	n/a	10	[0, 0, 0]	-999	PAL1	3	R1278E
1302.494	0.001	1488581	TEST_PROBE	n/a	3	1	SHRIMP	n/a	SHRIMP	SLEEVE	10	[0, 0, 0]	-999	PAL1	3	R1278E
1302.495	4.017	1488582	REC_START	n/a	3	-999	n/a	n/a	n/a	n/a	10	[0, 0, 0]	-999	PAL1	3	R1278E
1306.512	0.983	1492599	PROBE_OFF	n/a	3	-999	n/a	n/a	n/a	n/a	10	[0, 0, 0]	-999	PAL1	3	R1278E
1307.495	0.017	1493582	REC_EVENT	5000	3	1	SHRIMP	<>	SHRIMP	SLEEVE	10	[0, 0, 0]	-999	PAL1	3	R1278E
1307.512	0.017	1493599	REC_END	n/a	3	-999	n/a	n/a	n/a	n/a	10	[0, 0, 0]	-999	PAL1	3	R1278E
1307.529	0.266	1493616	TEST_ORIENT	n/a	6	2	BADGE	CORD	BADGE	CORD	10	[0, 0, 0]	-999	PAL1	3	R1278E
1307.795	0.684	1493882	RETRIEVAL_ORIENT_OFF	n/a	3	-999	n/a	n/a	n/a	n/a	10	[0, 0, 0]	-999	PAL1	3	R1278E
1308.479	0.0	1494566	TEST_PROBE	n/a	6	2	BADGE	CORD	BADGE	CORD	10	[0, 0, 0]	-999	PAL1	3	R1278E
1308.479	1.284	1494566	REC_START	n/a	6	-999	n/a	CORD	n/a	n/a	10	[0, 0, 0]	-999	PAL1	3	R1278E
1309.763	2.733	1495849	REC_EVENT	1284	6	2	BADGE	CORD	BADGE	CORD	10	[0, 0, 0]	-999	PAL1	3	R1278E
1312.496	1.0	1498582	PROBE_OFF	n/a	6	-999	n/a	n/a	n/a	n/a	10	[0, 0, 0]	-999	PAL1	3	R1278E
1313.496	0.017	1499582	REC_END	n/a	6	-999	n/a	n/a	n/a	n/a	10	[0, 0, 0]	-999	PAL1	3	R1278E
1313.513	0.267	1499599	TEST_ORIENT	n/a	5	3	GRASS	PASS	DITCH	GRASS	10	[0, 0, 0]	-999	PAL1	3	R1278E
1313.78	0.633	1499866	RETRIEVAL_ORIENT_OFF	n/a	6	-999	n/a	n/a	n/a	n/a	10	[0, 0, 0]	-999	PAL1	3	R1278E
1314.413	0.001	1500499	TEST_PROBE	n/a	5	3	GRASS	PASS	DITCH	GRASS	10	[0, 0, 0]	-999	PAL1	3	R1278E
1314.414	3.629	1500500	REC_START	n/a	5	-999	n/a	PASS	n/a	n/a	10	[0, 0, 0]	-999	PAL1	3	R1278E
1318.043	0.388	1504129	REC_EVENT	3629	5	3	GRASS	PASS	DITCH	GRASS	10	[0, 0, 0]	-999	PAL1	3	R1278E
1318.431	1.01	1504517	PROBE_OFF	n/a	5	-999	n/a	n/a	n/a	n/a	10	[0, 0, 0]	-999	PAL1	3	R1278E
1319.441	0.023	1505527	REC_END	n/a	5	-999	n/a	n/a	n/a	n/a	10	[0, 0, 0]	-999	PAL1	3	R1278E
1319.464	0.267	1505550	TEST_ORIENT	n/a	2	4	BEAK	n/a	BEAK	LOCK	10	[0, 0, 0]	-999	PAL1	3	R1278E
1319.731	0.667	1505817	RETRIEVAL_ORIENT_OFF	n/a	5	-999	n/a	n/a	n/a	n/a	10	[0, 0, 0]	-999	PAL1	3	R1278E
1320.398	0.0	1506484	TEST_PROBE	n/a	2	4	BEAK	n/a	BEAK	LOCK	10	[0, 0, 0]	-999	PAL1	3	R1278E
1320.398	2.324	1506484	REC_START	n/a	2	-999	n/a	n/a	n/a	n/a	10	[0, 0, 0]	-999	PAL1	3	R1278E
1322.722	1.693	1508808	REC_EVENT	2324	2	4	BEAK	<>	BEAK	LOCK	10	[0, 0, 0]	-999	PAL1	3	R1278E
1324.415	1.0	1510501	PROBE_OFF	n/a	2	-999	n/a	n/a	n/a	n/a	10	[0, 0, 0]	-999	PAL1	3	R1278E
1325.415	0.017	1511501	REC_END	n/a	2	-999	n/a	n/a	n/a	n/a	10	[0, 0, 0]	-999	PAL1	3	R1278E
1325.432	0.266	1511518	TEST_ORIENT	n/a	1	5	HOOK	PASS	HOOK	FOG	10	[0, 0, 0]	-999	PAL1	3	R1278E
1325.698	0.701	1511784	RETRIEVAL_ORIENT_OFF	n/a	2	-999	n/a	n/a	n/a	n/a	10	[0, 0, 0]	-999	PAL1	3	R1278E
1326.399	0.0	1512485	TEST_PROBE	n/a	1	5	HOOK	PASS	HOOK	FOG	10	[0, 0, 0]	-999	PAL1	3	R1278E
1326.399	4.017	1512485	REC_START	n/a	1	-999	n/a	PASS	n/a	n/a	10	[0, 0, 0]	-999	PAL1	3	R1278E
1330.416	0.252	1516502	PROBE_OFF	n/a	1	-999	n/a	n/a	n/a	n/a	10	[0, 0, 0]	-999	PAL1	3	R1278E
1330.668	0.749	1516754	REC_EVENT	4269	1	5	HOOK	PASS	HOOK	FOG	10	[0, 0, 0]	-999	PAL1	3	R1278E
1331.417	0.016	1517503	REC_END	n/a	1	-999	n/a	n/a	n/a	n/a	10	[0, 0, 0]	-999	PAL1	3	R1278E
1331.433	0.267	1517519	TEST_ORIENT	n/a	4	6	BOAT	n/a	BOAT	GRAPE	10	[0, 0, 0]	-999	PAL1	3	R1278E
1331.7	0.566	1517786	RETRIEVAL_ORIENT_OFF	n/a	1	-999	n/a	n/a	n/a	n/a	10	[0, 0, 0]	-999	PAL1	3	R1278E
1332.266	0.001	1518352	TEST_PROBE	n/a	4	6	BOAT	n/a	BOAT	GRAPE	10	[0, 0, 0]	-999	PAL1	3	R1278E
1332.267	4.017	1518353	REC_START	n/a	4	-999	n/a	n/a	n/a	n/a	10	[0, 0, 0]	-999	PAL1	3	R1278E
1336.284	0.998	1522369	PROBE_OFF	n/a	4	-999	n/a	n/a	n/a	n/a	10	[0, 0, 0]	-999	PAL1	3	R1278E
1337.282	0.002	1523367	REC_EVENT	5015	4	6	BOAT	<>	BOAT	GRAPE	10	[0, 0, 0]	-999	PAL1	3	R1278E
1337.284	0.009	1523369	REC_END	n/a	4	-999	n/a	n/a	n/a	n/a	10	[0, 0, 0]	-999	PAL1	3	R1278E
1337.293	5.075	1523378	RECALL_END	n/a	-999	-999	n/a	n/a	n/a	n/a	10	[0, 0, 0]	-999	PAL1	3	R1278E
1342.368	10.929	1528453	TRIAL	n/a	-999	-999	n/a	n/a	n/a	n/a	11	[0, 0, 0]	-999	PAL1	3	R1278E
1353.297	0.006	1539382	ENCODING_START	n/a	-999	-999	n/a	n/a	n/a	n/a	11	[0, 0, 0]	-999	PAL1	3	R1278E
1353.303	0.266	1539388	STUDY_ORIENT	n/a	1	3	WORLD	BALL	BALL	WORLD	11	[0, 0, 0]	-999	PAL1	3	R1278E
1353.569	0.668	1539654	STUDY_ORIENT_OFF	n/a	1	3	WORLD	BALL	BALL	WORLD	11	[0, 0, 0]	-999	PAL1	3	R1278E
1354.237	4.017	1540322	STUDY_PAIR	n/a	1	3	WORLD	BALL	BALL	WORLD	11	[0, 0, 0]	-999	PAL1	3	R1278E
1358.254	1.017	1544339	PAIR_OFF	n/a	1	3	WORLD	BALL	BALL	WORLD	11	[0, 0, 0]	-999	PAL1	3	R1278E
1359.271	0.267	1545356	STUDY_ORIENT	n/a	2	6	MUG	FOAM	MUG	FOAM	11	[0, 0, 0]	-999	PAL1	3	R1278E
1359.538	0.7	1545623	STUDY_ORIENT_OFF	n/a	2	6	MUG	FOAM	MUG	FOAM	11	[0, 0, 0]	-999	PAL1	3	R1278E
1360.238	4.017	1546323	STUDY_PAIR	n/a	2	6	MUG	FOAM	MUG	FOAM	11	[0, 0, 0]	-999	PAL1	3	R1278E
1364.255	1.017	1550339	PAIR_OFF	n/a	2	6	MUG	FOAM	MUG	FOAM	11	[0, 0, 0]	-999	PAL1	3	R1278E
1365.272	0.267	1551356	STUDY_ORIENT	n/a	3	1	HORN	CRANE	HORN	CRANE	11	[0, 0, 0]	-999	PAL1	3	R1278E
1365.539	0.767	1551623	STUDY_ORIENT_OFF	n/a	3	1	HORN	CRANE	HORN	CRANE	11	[0, 0, 0]	-999	PAL1	3	R1278E
1366.306	4.017	1552390	STUDY_PAIR	n/a	3	1	HORN	CRANE	HORN	CRANE	11	[0, 0, 0]	-999	PAL1	3	R1278E
1370.323	1.017	1556407	PAIR_OFF	n/a	3	1	HORN	CRANE	HORN	CRANE	11	[0, 0, 0]	-999	PAL1	3	R1278E
1371.34	0.267	1557424	STUDY_ORIENT	n/a	4	4	HOOF	BOY	BOY	HOOF	11	[0, 0, 0]	-999	PAL1	3	R1278E
1371.607	0.55	1557691	STUDY_ORIENT_OFF	n/a	4	4	HOOF	BOY	BOY	HOOF	11	[0, 0, 0]	-999	PAL1	3	R1278E
1372.157	4.017	1558241	STUDY_PAIR	n/a	4	4	HOOF	BOY	BOY	HOOF	11	[0, 0, 0]	-999	PAL1	3	R1278E
1376.174	1.017	1562258	PAIR_OFF	n/a	4	4	HOOF	BOY	BOY	HOOF	11	[0, 0, 0]	-999	PAL1	3	R1278E
1377.191	0.267	1563275	STUDY_ORIENT	n/a	5	5	ANT	PANTS	ANT	PANTS	11	[0, 0, 0]	-999	PAL1	3	R1278E
1377.458	0.716	1563542	STUDY_ORIENT_OFF	n/a	5	5	ANT	PANTS	ANT	PANTS	11	[0, 0, 0]	-999	PAL1	3	R1278E
1378.174	4.018	1564258	STUDY_PAIR	n/a	5	5	ANT	PANTS	ANT	PANTS	11	[0, 0, 0]	-999	PAL1	3	R1278E
1382.192	1.017	1568276	PAIR_OFF	n/a	5	5	ANT	PANTS	ANT	PANTS	11	[0, 0, 0]	-999	PAL1	3	R1278E
1383.209	0.266	1569293	STUDY_ORIENT	n/a	6	2	FLEA	FUR	FUR	FLEA	11	[0, 0, 0]	-999	PAL1	3	R1278E
1383.475	0.534	1569559	STUDY_ORIENT_OFF	n/a	6	2	FLEA	FUR	FUR	FLEA	11	[0, 0, 0]	-999	PAL1	3	R1278E
1384.009	4.017	1570093	STUDY_PAIR	n/a	6	2	FLEA	FUR	FUR	FLEA	11	[0, 0, 0]	-999	PAL1	3	R1278E
1388.026	1.0	1574109	PAIR_OFF	n/a	6	2	FLEA	FUR	FUR	FLEA	11	[0, 0, 0]	-999	PAL1	3	R1278E
1389.026	0.0	1575109	ENCODING_END	n/a	-999	-999	n/a	n/a	n/a	n/a	11	[0, 0, 0]	-999	PAL1	3	R1278E
1389.026	0.001	1575109	MATH_START	n/a	-999	-999	n/a	n/a	n/a	n/a	11	[0, 0, 0]	-999	PAL1	3	R1278E
1389.027	0.016	1575110	START	n/a	-999	-999	n/a	n/a	n/a	n/a	11	[-999, -999, -999]	-999	PAL1	3	R1278E
1389.043	4.751	1575126	PROB	4722	-999	-999	n/a	n/a	n/a	n/a	11	[3, 3, 6]	12	PAL1	3	R1278E
1393.794	5.217	1579877	PROB	5196	-999	-999	n/a	n/a	n/a	n/a	11	[6, 7, 4]	17	PAL1	3	R1278E
1399.011	3.868	1585094	PROB	3834	-999	-999	n/a	n/a	n/a	n/a	11	[3, 6, 8]	17	PAL1	3	R1278E
1402.879	3.65	1588962	PROB	3622	-999	-999	n/a	n/a	n/a	n/a	11	[9, 5, 9]	23	PAL1	3	R1278E
1406.529	4.301	1592612	PROB	4301	-999	-999	n/a	n/a	n/a	n/a	11	[7, 1, 9]	17	PAL1	3	R1278E
1410.83	0.017	1596913	STOP	n/a	-999	-999	n/a	n/a	n/a	n/a	11	[-999, -999, -999]	-999	PAL1	3	R1278E
1410.847	0.0	1596930	MATH_END	n/a	-999	-999	n/a	n/a	n/a	n/a	11	[0, 0, 0]	-999	PAL1	3	R1278E
1410.847	0.016	1596930	RECALL_START	n/a	-999	-999	n/a	n/a	n/a	n/a	11	[0, 0, 0]	-999	PAL1	3	R1278E
1410.863	0.267	1596946	TEST_ORIENT	n/a	3	1	HORN	CRANE	HORN	CRANE	11	[0, 0, 0]	-999	PAL1	3	R1278E
1411.13	0.667	1597213	RETRIEVAL_ORIENT_OFF	n/a	-999	-999	n/a	n/a	n/a	n/a	11	[0, 0, 0]	-999	PAL1	3	R1278E
1411.797	0.0	1597879	TEST_PROBE	n/a	3	1	HORN	CRANE	HORN	CRANE	11	[0, 0, 0]	-999	PAL1	3	R1278E
1411.797	1.129	1597879	REC_START	n/a	3	-999	n/a	CRANE	n/a	n/a	11	[0, 0, 0]	-999	PAL1	3	R1278E
1412.926	2.888	1599008	REC_EVENT	1129	3	1	HORN	CRANE	HORN	CRANE	11	[0, 0, 0]	-999	PAL1	3	R1278E
1415.814	1.0	1601896	PROBE_OFF	n/a	3	-999	n/a	n/a	n/a	n/a	11	[0, 0, 0]	-999	PAL1	3	R1278E
1416.814	0.017	1602896	REC_END	n/a	3	-999	n/a	n/a	n/a	n/a	11	[0, 0, 0]	-999	PAL1	3	R1278E
1416.831	0.267	1602913	TEST_ORIENT	n/a	6	2	FLEA	FUR	FUR	FLEA	11	[0, 0, 0]	-999	PAL1	3	R1278E
1417.098	0.517	1603180	RETRIEVAL_ORIENT_OFF	n/a	3	-999	n/a	n/a	n/a	n/a	11	[0, 0, 0]	-999	PAL1	3	R1278E
1417.615	0.0	1603697	TEST_PROBE	n/a	6	2	FLEA	FUR	FUR	FLEA	11	[0, 0, 0]	-999	PAL1	3	R1278E
1417.615	0.829	1603697	REC_START	n/a	6	-999	n/a	FUR	n/a	n/a	11	[0, 0, 0]	-999	PAL1	3	R1278E
1418.444	0.165	1604526	REC_EVENT	829	6	2	FLEA	<>	FUR	FLEA	11	[0, 0, 0]	-999	PAL1	3	R1278E
1418.609	3.023	1604691	REC_EVENT	994	6	2	FLEA	FUR	FUR	FLEA	11	[0, 0, 0]	-999	PAL1	3	R1278E
1421.632	1.0	1607714	PROBE_OFF	n/a	6	-999	n/a	n/a	n/a	n/a	11	[0, 0, 0]	-999	PAL1	3	R1278E
1422.632	0.017	1608714	REC_END	n/a	6	-999	n/a	n/a	n/a	n/a	11	[0, 0, 0]	-999	PAL1	3	R1278E
1422.649	0.267	1608731	TEST_ORIENT	n/a	1	3	WORLD	BALL	BALL	WORLD	11	[0, 0, 0]	-999	PAL1	3	R1278E
1422.916	0.533	1608998	RETRIEVAL_ORIENT_OFF	n/a	6	-999	n/a	n/a	n/a	n/a	11	[0, 0, 0]	-999	PAL1	3	R1278E
1423.449	0.001	1609531	TEST_PROBE	n/a	1	3	WORLD	BALL	BALL	WORLD	11	[0, 0, 0]	-999	PAL1	3	R1278E
1423.45	1.029	1609532	REC_START	n/a	1	-999	n/a	BALL	n/a	n/a	11	[0, 0, 0]	-999	PAL1	3	R1278E
1424.479	2.987	1610561	REC_EVENT	1029	1	3	WORLD	BALL	BALL	WORLD	11	[0, 0, 0]	-999	PAL1	3	R1278E
1427.466	1.0	1613548	PROBE_OFF	n/a	1	-999	n/a	n/a	n/a	n/a	11	[0, 0, 0]	-999	PAL1	3	R1278E
1428.466	0.017	1614548	REC_END	n/a	1	-999	n/a	n/a	n/a	n/a	11	[0, 0, 0]	-999	PAL1	3	R1278E
1428.483	0.267	1614565	TEST_ORIENT	n/a	4	4	HOOF	BOY	BOY	HOOF	11	[0, 0, 0]	-999	PAL1	3	R1278E
1428.75	0.517	1614832	RETRIEVAL_ORIENT_OFF	n/a	1	-999	n/a	n/a	n/a	n/a	11	[0, 0, 0]	-999	PAL1	3	R1278E
1429.267	0.0	1615349	TEST_PROBE	n/a	4	4	HOOF	BOY	BOY	HOOF	11	[0, 0, 0]	-999	PAL1	3	R1278E
1429.267	0.834	1615349	REC_START	n/a	4	-999	n/a	BOY	n/a	n/a	11	[0, 0, 0]	-999	PAL1	3	R1278E
1430.101	3.183	1616183	REC_EVENT	834	4	4	HOOF	BOY	BOY	HOOF	11	[0, 0, 0]	-999	PAL1	3	R1278E
1433.284	1.0	1619366	PROBE_OFF	n/a	4	-999	n/a	n/a	n/a	n/a	11	[0, 0, 0]	-999	PAL1	3	R1278E
1434.284	0.017	1620366	REC_END	n/a	4	-999	n/a	n/a	n/a	n/a	11	[0, 0, 0]	-999	PAL1	3	R1278E
1434.301	0.266	1620383	TEST_ORIENT	n/a	5	5	ANT	PANTS	ANT	PANTS	11	[0, 0, 0]	-999	PAL1	3	R1278E
1434.567	0.684	1620649	RETRIEVAL_ORIENT_OFF	n/a	4	-999	n/a	n/a	n/a	n/a	11	[0, 0, 0]	-999	PAL1	3	R1278E
1435.251	0.001	1621333	TEST_PROBE	n/a	5	5	ANT	PANTS	ANT	PANTS	11	[0, 0, 0]	-999	PAL1	3	R1278E
1435.252	0.774	1621334	REC_START	n/a	5	-999	n/a	PANTS	n/a	n/a	11	[0, 0, 0]	-999	PAL1	3	R1278E
1436.026	3.242	1622108	REC_EVENT	774	5	5	ANT	PANTS	ANT	PANTS	11	[0, 0, 0]	-999	PAL1	3	R1278E
1439.268	1.0	1625349	PROBE_OFF	n/a	5	-999	n/a	n/a	n/a	n/a	11	[0, 0, 0]	-999	PAL1	3	R1278E
1440.268	0.017	1626349	REC_END	n/a	5	-999	n/a	n/a	n/a	n/a	11	[0, 0, 0]	-999	PAL1	3	R1278E
1440.285	0.266	1626366	TEST_ORIENT	n/a	2	6	MUG	FOAM	MUG	FOAM	11	[0, 0, 0]	-999	PAL1	3	R1278E
1440.551	0.735	1626632	RETRIEVAL_ORIENT_OFF	n/a	5	-999	n/a	n/a	n/a	n/a	11	[0, 0, 0]	-999	PAL1	3	R1278E
1441.286	0.0	1627367	REC_START	n/a	2	-999	n/a	FOAM	n/a	n/a	11	[0, 0, 0]	-999	PAL1	3	R1278E
1441.286	0.899	1627367	TEST_PROBE	n/a	2	6	MUG	FOAM	MUG	FOAM	11	[0, 0, 0]	-999	PAL1	3	R1278E
1442.185	3.118	1628266	REC_EVENT	899	2	6	MUG	FOAM	MUG	FOAM	11	[0, 0, 0]	-999	PAL1	3	R1278E
1445.303	1.0	1631384	PROBE_OFF	n/a	2	-999	n/a	n/a	n/a	n/a	11	[0, 0, 0]	-999	PAL1	3	R1278E
1446.303	0.004	1632384	REC_END	n/a	2	-999	n/a	n/a	n/a	n/a	11	[0, 0, 0]	-999	PAL1	3	R1278E
1446.307	4.147	1632388	RECALL_END	n/a	-999	-999	n/a	n/a	n/a	n/a	11	[0, 0, 0]	-999	PAL1	3	R1278E
1450.454	10.929	1636535	TRIAL	n/a	-999	-999	n/a	n/a	n/a	n/a	12	[0, 0, 0]	-999	PAL1	3	R1278E
1461.383	0.006	1647464	ENCODING_START	n/a	-999	-999	n/a	n/a	n/a	n/a	12	[0, 0, 0]	-999	PAL1	3	R1278E
1461.389	0.267	1647470	STUDY_ORIENT	n/a	1	3	EGG	PHONE	EGG	PHONE	12	[0, 0, 0]	-999	PAL1	3	R1278E
1461.656	0.55	1647737	STUDY_ORIENT_OFF	n/a	1	3	EGG	PHONE	EGG	PHONE	12	[0, 0, 0]	-999	PAL1	3	R1278E
1462.206	4.017	1648287	STUDY_PAIR	n/a	1	3	EGG	PHONE	EGG	PHONE	12	[0, 0, 0]	-999	PAL1	3	R1278E
1466.223	1.017	1652303	PAIR_OFF	n/a	1	3	EGG	PHONE	EGG	PHONE	12	[0, 0, 0]	-999	PAL1	3	R1278E
1467.24	0.267	1653320	STUDY_ORIENT	n/a	2	6	PLANE	SPRING	SPRING	PLANE	12	[0, 0, 0]	-999	PAL1	3	R1278E
1467.507	0.733	1653587	STUDY_ORIENT_OFF	n/a	2	6	PLANE	SPRING	SPRING	PLANE	12	[0, 0, 0]	-999	PAL1	3	R1278E
1468.24	4.018	1654320	STUDY_PAIR	n/a	2	6	PLANE	SPRING	SPRING	PLANE	12	[0, 0, 0]	-999	PAL1	3	R1278E
1472.258	1.016	1658338	PAIR_OFF	n/a	2	6	PLANE	SPRING	SPRING	PLANE	12	[0, 0, 0]	-999	PAL1	3	R1278E
1473.274	0.267	1659354	STUDY_ORIENT	n/a	3	5	GOAT	GLOVE	GOAT	GLOVE	12	[0, 0, 0]	-999	PAL1	3	R1278E
1473.541	0.717	1659621	STUDY_ORIENT_OFF	n/a	3	5	GOAT	GLOVE	GOAT	GLOVE	12	[0, 0, 0]	-999	PAL1	3	R1278E
1474.258	4.017	1660338	STUDY_PAIR	n/a	3	5	GOAT	GLOVE	GOAT	GLOVE	12	[0, 0, 0]	-999	PAL1	3	R1278E
1478.275	1.017	1664355	PAIR_OFF	n/a	3	5	GOAT	GLOVE	GOAT	GLOVE	12	[0, 0, 0]	-999	PAL1	3	R1278E
1479.292	0.266	1665372	STUDY_ORIENT	n/a	4	2	SPEAR	PASS	MOUSE	SPEAR	12	[0, 0, 0]	-999	PAL1	3	R1278E
1479.558	0.551	1665638	STUDY_ORIENT_OFF	n/a	4	2	SPEAR	PASS	MOUSE	SPEAR	12	[0, 0, 0]	-999	PAL1	3	R1278E
1480.109	4.017	1666189	STUDY_PAIR	n/a	4	2	SPEAR	PASS	MOUSE	SPEAR	12	[0, 0, 0]	-999	PAL1	3	R1278E
1484.126	1.017	1670206	PAIR_OFF	n/a	4	2	SPEAR	PASS	MOUSE	SPEAR	12	[0, 0, 0]	-999	PAL1	3	R1278E
1485.143	0.267	1671223	STUDY_ORIENT	n/a	5	1	BROOM	SHIELD	SHIELD	BROOM	12	[0, 0, 0]	-999	PAL1	3	R1278E
1485.41	0.567	1671490	STUDY_ORIENT_OFF	n/a	5	1	BROOM	SHIELD	SHIELD	BROOM	12	[0, 0, 0]	-999	PAL1	3	R1278E
1485.977	4.017	1672057	STUDY_PAIR	n/a	5	1	BROOM	SHIELD	SHIELD	BROOM	12	[0, 0, 0]	-999	PAL1	3	R1278E
1489.994	1.017	1676073	PAIR_OFF	n/a	5	1	BROOM	SHIELD	SHIELD	BROOM	12	[0, 0, 0]	-999	PAL1	3	R1278E
1491.011	0.267	1677090	STUDY_ORIENT	n/a	6	4	CLOUD	PASS	CLOUD	HORSE	12	[0, 0, 0]	-999	PAL1	3	R1278E
1491.278	0.75	1677357	STUDY_ORIENT_OFF	n/a	6	4	CLOUD	PASS	CLOUD	HORSE	12	[0, 0, 0]	-999	PAL1	3	R1278E
1492.028	4.017	1678107	STUDY_PAIR	n/a	6	4	CLOUD	PASS	CLOUD	HORSE	12	[0, 0, 0]	-999	PAL1	3	R1278E
1496.045	1.0	1682124	PAIR_OFF	n/a	6	4	CLOUD	PASS	CLOUD	HORSE	12	[0, 0, 0]	-999	PAL1	3	R1278E
1497.045	0.0	1683124	ENCODING_END	n/a	-999	-999	n/a	n/a	n/a	n/a	12	[0, 0, 0]	-999	PAL1	3	R1278E
1497.045	0.001	1683124	MATH_START	n/a	-999	-999	n/a	n/a	n/a	n/a	12	[0, 0, 0]	-999	PAL1	3	R1278E
1497.046	0.016	1683125	START	n/a	-999	-999	n/a	n/a	n/a	n/a	12	[-999, -999, -999]	-999	PAL1	3	R1278E
1497.062	5.568	1683141	PROB	5531	-999	-999	n/a	n/a	n/a	n/a	12	[9, 6, 5]	20	PAL1	3	R1278E
1502.63	2.85	1688709	PROB	2819	-999	-999	n/a	n/a	n/a	n/a	12	[4, 9, 9]	22	PAL1	3	R1278E
1505.48	4.001	1691559	PROB	3978	-999	-999	n/a	n/a	n/a	n/a	12	[7, 3, 5]	15	PAL1	3	R1278E
1509.481	2.5	1695560	PROB	2464	-999	-999	n/a	n/a	n/a	n/a	12	[8, 3, 1]	12	PAL1	3	R1278E
1511.981	4.151	1698060	PROB	4124	-999	-999	n/a	n/a	n/a	n/a	12	[5, 7, 1]	13	PAL1	3	R1278E
1516.132	2.629	1702210	PROB	2629	-999	-999	n/a	n/a	n/a	n/a	12	[1, 8, 4]	13	PAL1	3	R1278E
1518.761	0.022	1704839	STOP	n/a	-999	-999	n/a	n/a	n/a	n/a	12	[-999, -999, -999]	-999	PAL1	3	R1278E
1518.783	0.0	1704861	MATH_END	n/a	-999	-999	n/a	n/a	n/a	n/a	12	[0, 0, 0]	-999	PAL1	3	R1278E
1518.783	0.016	1704861	RECALL_START	n/a	-999	-999	n/a	n/a	n/a	n/a	12	[0, 0, 0]	-999	PAL1	3	R1278E
1518.799	0.267	1704877	TEST_ORIENT	n/a	5	1	BROOM	SHIELD	SHIELD	BROOM	12	[0, 0, 0]	-999	PAL1	3	R1278E
1519.066	0.7	1705144	RETRIEVAL_ORIENT_OFF	n/a	-999	-999	n/a	n/a	n/a	n/a	12	[0, 0, 0]	-999	PAL1	3	R1278E
1519.766	0.001	1705844	TEST_PROBE	n/a	5	1	BROOM	SHIELD	SHIELD	BROOM	12	[0, 0, 0]	-999	PAL1	3	R1278E
1519.767	1.024	1705845	REC_START	n/a	5	-999	n/a	SHIELD	n/a	n/a	12	[0, 0, 0]	-999	PAL1	3	R1278E
1520.791	2.992	1706869	REC_EVENT	1024	5	1	BROOM	SHIELD	SHIELD	BROOM	12	[0, 0, 0]	-999	PAL1	3	R1278E
1523.783	1.0	1709861	PROBE_OFF	n/a	5	-999	n/a	n/a	n/a	n/a	12	[0, 0, 0]	-999	PAL1	3	R1278E
1524.783	0.017	1710861	REC_END	n/a	5	-999	n/a	n/a	n/a	n/a	12	[0, 0, 0]	-999	PAL1	3	R1278E
1524.8	0.267	1710878	TEST_ORIENT	n/a	4	2	SPEAR	PASS	MOUSE	SPEAR	12	[0, 0, 0]	-999	PAL1	3	R1278E
1525.067	0.7	1711145	RETRIEVAL_ORIENT_OFF	n/a	5	-999	n/a	n/a	n/a	n/a	12	[0, 0, 0]	-999	PAL1	3	R1278E
1525.767	0.001	1711845	TEST_PROBE	n/a	4	2	SPEAR	PASS	MOUSE	SPEAR	12	[0, 0, 0]	-999	PAL1	3	R1278E
1525.768	1.594	1711846	REC_START	n/a	4	-999	n/a	PASS	n/a	n/a	12	[0, 0, 0]	-999	PAL1	3	R1278E
1527.362	1.0	1713440	REC_EVENT	1594	4	2	SPEAR	<>	MOUSE	SPEAR	12	[0, 0, 0]	-999	PAL1	3	R1278E
1528.362	0.915	1714440	REC_EVENT	2594	4	2	SPEAR	<>	MOUSE	SPEAR	12	[0, 0, 0]	-999	PAL1	3	R1278E
1529.277	0.507	1715355	REC_EVENT	3509	4	2	SPEAR	PASS	MOUSE	SPEAR	12	[0, 0, 0]	-999	PAL1	3	R1278E
1529.784	1.0	1715862	PROBE_OFF	n/a	4	-999	n/a	n/a	n/a	n/a	12	[0, 0, 0]	-999	PAL1	3	R1278E
1530.784	0.017	1716862	REC_END	n/a	4	-999	n/a	n/a	n/a	n/a	12	[0, 0, 0]	-999	PAL1	3	R1278E
1530.801	0.267	1716879	TEST_ORIENT	n/a	1	3	EGG	PHONE	EGG	PHONE	12	[0, 0, 0]	-999	PAL1	3	R1278E
1531.068	0.633	1717146	RETRIEVAL_ORIENT_OFF	n/a	4	-999	n/a	n/a	n/a	n/a	12	[0, 0, 0]	-999	PAL1	3	R1278E
1531.701	0.001	1717779	TEST_PROBE	n/a	1	3	EGG	PHONE	EGG	PHONE	12	[0, 0, 0]	-999	PAL1	3	R1278E
1531.702	0.869	1717780	REC_START	n/a	1	-999	n/a	PHONE	n/a	n/a	12	[0, 0, 0]	-999	PAL1	3	R1278E
1532.571	3.148	1718649	REC_EVENT	869	1	3	EGG	PHONE	EGG	PHONE	12	[0, 0, 0]	-999	PAL1	3	R1278E
1535.719	1.01	1721797	PROBE_OFF	n/a	1	-999	n/a	n/a	n/a	n/a	12	[0, 0, 0]	-999	PAL1	3	R1278E
1536.729	0.023	1722807	REC_END	n/a	1	-999	n/a	n/a	n/a	n/a	12	[0, 0, 0]	-999	PAL1	3	R1278E
1536.752	0.267	1722830	TEST_ORIENT	n/a	6	4	CLOUD	PASS	CLOUD	HORSE	12	[0, 0, 0]	-999	PAL1	3	R1278E
1537.019	0.6	1723097	RETRIEVAL_ORIENT_OFF	n/a	1	-999	n/a	n/a	n/a	n/a	12	[0, 0, 0]	-999	PAL1	3	R1278E
1537.619	0.001	1723697	TEST_PROBE	n/a	6	4	CLOUD	PASS	CLOUD	HORSE	12	[0, 0, 0]	-999	PAL1	3	R1278E
1537.62	3.704	1723698	REC_START	n/a	6	-999	n/a	PASS	n/a	n/a	12	[0, 0, 0]	-999	PAL1	3	R1278E
1541.324	0.312	1727401	REC_EVENT	3704	6	4	CLOUD	PASS	CLOUD	HORSE	12	[0, 0, 0]	-999	PAL1	3	R1278E
1541.636	1.0	1727713	PROBE_OFF	n/a	6	-999	n/a	n/a	n/a	n/a	12	[0, 0, 0]	-999	PAL1	3	R1278E
1542.636	0.017	1728713	REC_END	n/a	6	-999	n/a	n/a	n/a	n/a	12	[0, 0, 0]	-999	PAL1	3	R1278E
1542.653	0.267	1728730	TEST_ORIENT	n/a	3	5	GOAT	GLOVE	GOAT	GLOVE	12	[0, 0, 0]	-999	PAL1	3	R1278E
1542.92	0.666	1728997	RETRIEVAL_ORIENT_OFF	n/a	6	-999	n/a	n/a	n/a	n/a	12	[0, 0, 0]	-999	PAL1	3	R1278E
1543.586	0.0	1729663	TEST_PROBE	n/a	3	5	GOAT	GLOVE	GOAT	GLOVE	12	[0, 0, 0]	-999	PAL1	3	R1278E
1543.586	1.099	1729663	REC_START	n/a	3	-999	n/a	GLOVE	n/a	n/a	12	[0, 0, 0]	-999	PAL1	3	R1278E
1544.685	2.919	1730762	REC_EVENT	1099	3	5	GOAT	GLOVE	GOAT	GLOVE	12	[0, 0, 0]	-999	PAL1	3	R1278E
1547.604	1.0	1733681	PROBE_OFF	n/a	3	-999	n/a	n/a	n/a	n/a	12	[0, 0, 0]	-999	PAL1	3	R1278E
1548.604	0.017	1734681	REC_END	n/a	3	-999	n/a	n/a	n/a	n/a	12	[0, 0, 0]	-999	PAL1	3	R1278E
1548.621	0.267	1734698	TEST_ORIENT	n/a	2	6	PLANE	SPRING	SPRING	PLANE	12	[0, 0, 0]	-999	PAL1	3	R1278E
1548.888	0.533	1734965	RETRIEVAL_ORIENT_OFF	n/a	3	-999	n/a	n/a	n/a	n/a	12	[0, 0, 0]	-999	PAL1	3	R1278E
1549.421	0.001	1735498	TEST_PROBE	n/a	2	6	PLANE	SPRING	SPRING	PLANE	12	[0, 0, 0]	-999	PAL1	3	R1278E
1549.422	1.854	1735499	REC_START	n/a	2	-999	n/a	SPRING	n/a	n/a	12	[0, 0, 0]	-999	PAL1	3	R1278E
1551.276	2.163	1737353	REC_EVENT	1854	2	6	PLANE	SPRING	SPRING	PLANE	12	[0, 0, 0]	-999	PAL1	3	R1278E
