onset	duration	sample	trial_type	response_time	serialpos	probepos	probe_word	resp_word	study_1	study_2	list	experiment	session	subject
0.0	0.0	55701	SESS_START	n/a	-999	-999	n/a	n/a	n/a	n/a	-999	PAL1	0	R1238N
0.0	184.909	55701	MIC_TEST	n/a	-999	-999	n/a	n/a	n/a	n/a	-999	PAL1	0	R1238N
184.909	17.682	240606	PRACTICE_TRIAL	n/a	-999	-999	n/a	n/a	n/a	n/a	-1	PAL1	0	R1238N
202.591	0.006	258288	ENCODING_START	n/a	-999	-999	n/a	n/a	n/a	n/a	-1	PAL1	0	R1238N
202.597	0.267	258294	PRACTICE_ORIENT	n/a	1	3	ATICO	ATTICO	RINOCERONTE	ATICO	-1	PAL1	0	R1238N
202.864	0.65	258561	PRACTICE_ORIENT_OFF	n/a	1	3	ATICO	ATTICO	RINOCERONTE	ATICO	-1	PAL1	0	R1238N
203.514	4.017	259211	PRACTICE_PAIR	n/a	1	3	ATICO	ATTICO	RINOCERONTE	ATICO	-1	PAL1	0	R1238N
207.531	1.017	263228	PRACTICE_PAIR_OFF	n/a	1	3	ATICO	ATTICO	RINOCERONTE	ATICO	-1	PAL1	0	R1238N
208.548	0.266	264245	PRACTICE_ORIENT	n/a	2	2	LENGUA	n/a	LENGUA	HIERRO	-1	PAL1	0	R1238N
208.814	0.649	264511	PRACTICE_ORIENT_OFF	n/a	2	2	LENGUA	n/a	LENGUA	HIERRO	-1	PAL1	0	R1238N
209.463	4.018	265160	PRACTICE_PAIR	n/a	2	2	LENGUA	n/a	LENGUA	HIERRO	-1	PAL1	0	R1238N
213.481	1.018	269178	PRACTICE_PAIR_OFF	n/a	2	2	LENGUA	n/a	LENGUA	HIERRO	-1	PAL1	0	R1238N
214.499	0.266	270196	PRACTICE_ORIENT	n/a	3	1	ANILLO	n/a	ANILLO	VAGON	-1	PAL1	0	R1238N
214.765	0.633	270462	PRACTICE_ORIENT_OFF	n/a	3	1	ANILLO	n/a	ANILLO	VAGON	-1	PAL1	0	R1238N
215.398	4.017	271095	PRACTICE_PAIR	n/a	3	1	ANILLO	n/a	ANILLO	VAGON	-1	PAL1	0	R1238N
219.415	1.0	275112	PRACTICE_PAIR_OFF	n/a	3	1	ANILLO	n/a	ANILLO	VAGON	-1	PAL1	0	R1238N
220.415	0.0	276111	ENCODING_END	n/a	-999	-999	n/a	n/a	n/a	n/a	-1	PAL1	0	R1238N
220.415	80.262	276111	MATH_START	n/a	-999	-999	n/a	n/a	n/a	n/a	-1	PAL1	0	R1238N
300.677	0.0	356372	MATH_END	n/a	-999	-999	n/a	n/a	n/a	n/a	-1	PAL1	0	R1238N
300.677	0.017	356372	RECALL_START	n/a	-999	-999	n/a	n/a	n/a	n/a	-1	PAL1	0	R1238N
300.694	0.266	356389	PRACTICE_RETRIEVAL_ORIENT	n/a	3	1	ANILLO	n/a	ANILLO	VAGON	-1	PAL1	0	R1238N
300.96	0.75	356655	PRACTICE_RETRIEVAL_ORIENT_OFF	n/a	3	1	ANILLO	n/a	ANILLO	VAGON	-1	PAL1	0	R1238N
301.71	0.001	357405	PRACTICE_PROBE	n/a	3	1	ANILLO	n/a	ANILLO	VAGON	-1	PAL1	0	R1238N
301.711	4.017	357406	REC_START	n/a	3	-999	n/a	n/a	n/a	n/a	-1	PAL1	0	R1238N
305.728	0.753	361423	PROBE_OFF	n/a	3	-999	n/a	n/a	n/a	n/a	-1	PAL1	0	R1238N
306.481	0.247	362176	REC_EVENT	4770	3	1	ANILLO	<>	ANILLO	VAGON	-1	PAL1	0	R1238N
306.728	0.016	362423	REC_END	n/a	3	-999	n/a	n/a	n/a	n/a	-1	PAL1	0	R1238N
306.744	0.267	362439	PRACTICE_RETRIEVAL_ORIENT	n/a	2	2	LENGUA	n/a	LENGUA	HIERRO	-1	PAL1	0	R1238N
307.011	0.55	362706	PRACTICE_RETRIEVAL_ORIENT_OFF	n/a	2	2	LENGUA	n/a	LENGUA	HIERRO	-1	PAL1	0	R1238N
307.561	0.001	363256	PRACTICE_PROBE	n/a	2	2	LENGUA	n/a	LENGUA	HIERRO	-1	PAL1	0	R1238N
307.562	4.016	363257	REC_START	n/a	2	-999	n/a	n/a	n/a	n/a	-1	PAL1	0	R1238N
311.578	0.883	367273	PROBE_OFF	n/a	2	-999	n/a	n/a	n/a	n/a	-1	PAL1	0	R1238N
312.461	0.117	368156	REC_EVENT	4899	2	2	LENGUA	<>	LENGUA	HIERRO	-1	PAL1	0	R1238N
312.578	0.017	368273	REC_END	n/a	2	-999	n/a	n/a	n/a	n/a	-1	PAL1	0	R1238N
312.595	0.267	368290	PRACTICE_RETRIEVAL_ORIENT	n/a	1	3	ATICO	ATTICO	RINOCERONTE	ATICO	-1	PAL1	0	R1238N
312.862	0.616	368557	PRACTICE_RETRIEVAL_ORIENT_OFF	n/a	1	3	ATICO	ATTICO	RINOCERONTE	ATICO	-1	PAL1	0	R1238N
313.478	0.0	369173	PRACTICE_PROBE	n/a	1	3	ATICO	ATTICO	RINOCERONTE	ATICO	-1	PAL1	0	R1238N
313.478	2.724	369173	REC_START	n/a	1	-999	n/a	ATTICO	n/a	n/a	-1	PAL1	0	R1238N
316.202	1.294	371897	REC_EVENT	2724	1	3	ATICO	ATTICO	RINOCERONTE	ATICO	-1	PAL1	0	R1238N
317.496	1.001	373191	PROBE_OFF	n/a	1	-999	n/a	n/a	n/a	n/a	-1	PAL1	0	R1238N
318.497	0.004	374191	REC_END	n/a	1	-999	n/a	n/a	n/a	n/a	-1	PAL1	0	R1238N
318.501	166.55	374195	RECALL_END	n/a	-999	-999	n/a	n/a	n/a	n/a	-1	PAL1	0	R1238N
485.051	10.928	540742	TRIAL	n/a	-999	-999	n/a	n/a	n/a	n/a	1	PAL1	0	R1238N
495.979	0.008	551670	ENCODING_START	n/a	-999	-999	n/a	n/a	n/a	n/a	1	PAL1	0	R1238N
495.987	0.265	551678	STUDY_ORIENT	n/a	1	3	CABALLO	NINO	CABALLO	ESQUI	1	PAL1	0	R1238N
496.252	0.751	551943	STUDY_ORIENT_OFF	n/a	1	3	CABALLO	NINO	CABALLO	ESQUI	1	PAL1	0	R1238N
497.003	4.018	552694	STUDY_PAIR	n/a	1	3	CABALLO	NINO	CABALLO	ESQUI	1	PAL1	0	R1238N
501.021	1.016	556712	PAIR_OFF	n/a	1	3	CABALLO	NINO	CABALLO	ESQUI	1	PAL1	0	R1238N
502.037	0.266	557728	STUDY_ORIENT	n/a	2	2	RUEDA	CABALLO	RUEDA	BASTON	1	PAL1	0	R1238N
502.303	0.75	557994	STUDY_ORIENT_OFF	n/a	2	2	RUEDA	CABALLO	RUEDA	BASTON	1	PAL1	0	R1238N
503.053	4.017	558744	STUDY_PAIR	n/a	2	2	RUEDA	CABALLO	RUEDA	BASTON	1	PAL1	0	R1238N
507.07	1.017	562761	PAIR_OFF	n/a	2	2	RUEDA	CABALLO	RUEDA	BASTON	1	PAL1	0	R1238N
508.087	0.267	563778	STUDY_ORIENT	n/a	3	1	POZO	n/a	RUBOR	POZO	1	PAL1	0	R1238N
508.354	0.601	564045	STUDY_ORIENT_OFF	n/a	3	1	POZO	n/a	RUBOR	POZO	1	PAL1	0	R1238N
508.955	4.017	564646	STUDY_PAIR	n/a	3	1	POZO	n/a	RUBOR	POZO	1	PAL1	0	R1238N
512.972	1.0	568663	PAIR_OFF	n/a	3	1	POZO	n/a	RUBOR	POZO	1	PAL1	0	R1238N
513.972	0.0	569662	ENCODING_END	n/a	-999	-999	n/a	n/a	n/a	n/a	1	PAL1	0	R1238N
513.972	11.151	569662	MATH_START	n/a	-999	-999	n/a	n/a	n/a	n/a	1	PAL1	0	R1238N
525.123	0.0	580813	MATH_END	n/a	-999	-999	n/a	n/a	n/a	n/a	1	PAL1	0	R1238N
525.123	0.017	580813	RECALL_START	n/a	-999	-999	n/a	n/a	n/a	n/a	1	PAL1	0	R1238N
525.14	0.266	580830	TEST_ORIENT	n/a	3	1	POZO	n/a	RUBOR	POZO	1	PAL1	0	R1238N
525.406	0.601	581096	RETRIEVAL_ORIENT_OFF	n/a	-999	-999	n/a	n/a	n/a	n/a	1	PAL1	0	R1238N
526.007	0.001	581697	TEST_PROBE	n/a	3	1	POZO	n/a	RUBOR	POZO	1	PAL1	0	R1238N
526.008	4.017	581698	REC_START	n/a	3	-999	n/a	n/a	n/a	n/a	1	PAL1	0	R1238N
530.025	0.905	585715	PROBE_OFF	n/a	3	-999	n/a	n/a	n/a	n/a	1	PAL1	0	R1238N
530.93	0.095	586620	REC_EVENT	4922	3	1	POZO	<>	RUBOR	POZO	1	PAL1	0	R1238N
531.025	0.016	586715	REC_END	n/a	3	-999	n/a	n/a	n/a	n/a	1	PAL1	0	R1238N
531.041	0.266	586731	TEST_ORIENT	n/a	2	2	RUEDA	CABALLO	RUEDA	BASTON	1	PAL1	0	R1238N
531.307	0.568	586997	RETRIEVAL_ORIENT_OFF	n/a	3	-999	n/a	n/a	n/a	n/a	1	PAL1	0	R1238N
531.875	0.0	587565	TEST_PROBE	n/a	2	2	RUEDA	CABALLO	RUEDA	BASTON	1	PAL1	0	R1238N
531.875	1.689	587565	REC_START	n/a	2	-999	n/a	CABALLO	n/a	n/a	1	PAL1	0	R1238N
533.564	2.328	589254	REC_EVENT	1689	2	2	RUEDA	CABALLO	RUEDA	BASTON	1	PAL1	0	R1238N
535.892	1.0	591582	PROBE_OFF	n/a	2	-999	n/a	n/a	n/a	n/a	1	PAL1	0	R1238N
536.892	0.017	592582	REC_END	n/a	2	-999	n/a	n/a	n/a	n/a	1	PAL1	0	R1238N
536.909	0.266	592599	TEST_ORIENT	n/a	1	3	CABALLO	NINO	CABALLO	ESQUI	1	PAL1	0	R1238N
537.175	0.567	592865	RETRIEVAL_ORIENT_OFF	n/a	2	-999	n/a	n/a	n/a	n/a	1	PAL1	0	R1238N
537.742	0.001	593432	TEST_PROBE	n/a	1	3	CABALLO	NINO	CABALLO	ESQUI	1	PAL1	0	R1238N
537.743	0.821	593433	REC_START	n/a	1	-999	n/a	NINO	n/a	n/a	1	PAL1	0	R1238N
538.564	1.382	594254	REC_EVENT	821	1	3	CABALLO	NINO	CABALLO	ESQUI	1	PAL1	0	R1238N
539.946	0.684	595636	REC_EVENT	2203	1	3	CABALLO	<>	CABALLO	ESQUI	1	PAL1	0	R1238N
540.63	1.129	596320	REC_EVENT	2887	1	3	CABALLO	<>	CABALLO	ESQUI	1	PAL1	0	R1238N
541.759	1.0	597449	PROBE_OFF	n/a	1	-999	n/a	n/a	n/a	n/a	1	PAL1	0	R1238N
542.759	0.011	598449	REC_END	n/a	1	-999	n/a	n/a	n/a	n/a	1	PAL1	0	R1238N
542.77	6.124	598460	RECALL_END	n/a	-999	-999	n/a	n/a	n/a	n/a	1	PAL1	0	R1238N
548.894	10.929	604584	TRIAL	n/a	-999	-999	n/a	n/a	n/a	n/a	2	PAL1	0	R1238N
559.823	0.006	615513	ENCODING_START	n/a	-999	-999	n/a	n/a	n/a	n/a	2	PAL1	0	R1238N
559.829	0.265	615519	STUDY_ORIENT	n/a	1	3	TERRENO	n/a	CANDADO	TERRENO	2	PAL1	0	R1238N
560.094	0.668	615784	STUDY_ORIENT_OFF	n/a	1	3	TERRENO	n/a	CANDADO	TERRENO	2	PAL1	0	R1238N
560.762	4.017	616452	STUDY_PAIR	n/a	1	3	TERRENO	n/a	CANDADO	TERRENO	2	PAL1	0	R1238N
564.779	1.017	620468	PAIR_OFF	n/a	1	3	TERRENO	n/a	CANDADO	TERRENO	2	PAL1	0	R1238N
565.796	0.266	621485	STUDY_ORIENT	n/a	2	2	GUISANTE	n/a	GUISANTE	PLANTA	2	PAL1	0	R1238N
566.062	0.751	621751	STUDY_ORIENT_OFF	n/a	2	2	GUISANTE	n/a	GUISANTE	PLANTA	2	PAL1	0	R1238N
566.813	4.017	622502	STUDY_PAIR	n/a	2	2	GUISANTE	n/a	GUISANTE	PLANTA	2	PAL1	0	R1238N
570.83	1.017	626519	PAIR_OFF	n/a	2	2	GUISANTE	n/a	GUISANTE	PLANTA	2	PAL1	0	R1238N
571.847	0.266	627536	STUDY_ORIENT	n/a	3	1	PICO	TERRENO	LADRILLO	PICO	2	PAL1	0	R1238N
572.113	0.584	627802	STUDY_ORIENT_OFF	n/a	3	1	PICO	TERRENO	LADRILLO	PICO	2	PAL1	0	R1238N
572.697	4.017	628386	STUDY_PAIR	n/a	3	1	PICO	TERRENO	LADRILLO	PICO	2	PAL1	0	R1238N
576.714	1.001	632403	PAIR_OFF	n/a	3	1	PICO	TERRENO	LADRILLO	PICO	2	PAL1	0	R1238N
577.715	0.0	633404	ENCODING_END	n/a	-999	-999	n/a	n/a	n/a	n/a	2	PAL1	0	R1238N
577.715	7.566	633404	MATH_START	n/a	-999	-999	n/a	n/a	n/a	n/a	2	PAL1	0	R1238N
585.281	0.0	640970	MATH_END	n/a	-999	-999	n/a	n/a	n/a	n/a	2	PAL1	0	R1238N
585.281	0.017	640970	RECALL_START	n/a	-999	-999	n/a	n/a	n/a	n/a	2	PAL1	0	R1238N
585.298	0.267	640987	TEST_ORIENT	n/a	3	1	PICO	TERRENO	LADRILLO	PICO	2	PAL1	0	R1238N
585.565	0.749	641254	RETRIEVAL_ORIENT_OFF	n/a	-999	-999	n/a	n/a	n/a	n/a	2	PAL1	0	R1238N
586.314	0.001	642003	TEST_PROBE	n/a	3	1	PICO	TERRENO	LADRILLO	PICO	2	PAL1	0	R1238N
586.315	2.384	642004	REC_START	n/a	3	-999	n/a	TERRENO	n/a	n/a	2	PAL1	0	R1238N
588.699	1.633	644388	REC_EVENT	2384	3	1	PICO	TERRENO	LADRILLO	PICO	2	PAL1	0	R1238N
590.332	1.0	646021	PROBE_OFF	n/a	3	-999	n/a	n/a	n/a	n/a	2	PAL1	0	R1238N
591.332	0.016	647021	REC_END	n/a	3	-999	n/a	n/a	n/a	n/a	2	PAL1	0	R1238N
591.348	0.251	647037	TEST_ORIENT	n/a	2	2	GUISANTE	n/a	GUISANTE	PLANTA	2	PAL1	0	R1238N
591.599	0.633	647288	RETRIEVAL_ORIENT_OFF	n/a	3	-999	n/a	n/a	n/a	n/a	2	PAL1	0	R1238N
592.232	0.0	647921	TEST_PROBE	n/a	2	2	GUISANTE	n/a	GUISANTE	PLANTA	2	PAL1	0	R1238N
592.232	4.017	647921	REC_START	n/a	2	-999	n/a	n/a	n/a	n/a	2	PAL1	0	R1238N
596.249	0.743	651938	PROBE_OFF	n/a	2	-999	n/a	n/a	n/a	n/a	2	PAL1	0	R1238N
596.992	0.257	652681	REC_EVENT	4760	2	2	GUISANTE	<>	GUISANTE	PLANTA	2	PAL1	0	R1238N
597.249	0.017	652938	REC_END	n/a	2	-999	n/a	n/a	n/a	n/a	2	PAL1	0	R1238N
597.266	0.268	652955	TEST_ORIENT	n/a	1	3	TERRENO	n/a	CANDADO	TERRENO	2	PAL1	0	R1238N
597.534	0.699	653223	RETRIEVAL_ORIENT_OFF	n/a	2	-999	n/a	n/a	n/a	n/a	2	PAL1	0	R1238N
598.233	0.001	653922	TEST_PROBE	n/a	1	3	TERRENO	n/a	CANDADO	TERRENO	2	PAL1	0	R1238N
598.234	4.016	653923	REC_START	n/a	1	-999	n/a	n/a	n/a	n/a	2	PAL1	0	R1238N
602.25	0.836	657939	PROBE_OFF	n/a	1	-999	n/a	n/a	n/a	n/a	2	PAL1	0	R1238N
603.086	0.164	658775	REC_EVENT	4852	1	3	TERRENO	<>	CANDADO	TERRENO	2	PAL1	0	R1238N
603.25	0.011	658939	REC_END	n/a	1	-999	n/a	n/a	n/a	n/a	2	PAL1	0	R1238N
603.261	7.508	658950	RECALL_END	n/a	-999	-999	n/a	n/a	n/a	n/a	2	PAL1	0	R1238N
610.769	10.928	666458	TRIAL	n/a	-999	-999	n/a	n/a	n/a	n/a	3	PAL1	0	R1238N
621.697	0.007	677385	ENCODING_START	n/a	-999	-999	n/a	n/a	n/a	n/a	3	PAL1	0	R1238N
621.704	0.266	677392	STUDY_ORIENT	n/a	1	1	SERPIENTE	n/a	ESPONJA	SERPIENTE	3	PAL1	0	R1238N
621.97	0.634	677658	STUDY_ORIENT_OFF	n/a	1	1	SERPIENTE	n/a	ESPONJA	SERPIENTE	3	PAL1	0	R1238N
622.604	4.017	678292	STUDY_PAIR	n/a	1	1	SERPIENTE	n/a	ESPONJA	SERPIENTE	3	PAL1	0	R1238N
626.621	1.017	682309	PAIR_OFF	n/a	1	1	SERPIENTE	n/a	ESPONJA	SERPIENTE	3	PAL1	0	R1238N
627.638	0.266	683326	STUDY_ORIENT	n/a	2	2	SEMILLA	ANZUELO	SOL	SEMILLA	3	PAL1	0	R1238N
627.904	0.583	683592	STUDY_ORIENT_OFF	n/a	2	2	SEMILLA	ANZUELO	SOL	SEMILLA	3	PAL1	0	R1238N
628.487	4.018	684175	STUDY_PAIR	n/a	2	2	SEMILLA	ANZUELO	SOL	SEMILLA	3	PAL1	0	R1238N
632.505	1.017	688193	PAIR_OFF	n/a	2	2	SEMILLA	ANZUELO	SOL	SEMILLA	3	PAL1	0	R1238N
633.522	0.267	689210	STUDY_ORIENT	n/a	3	3	BOLIGRAFO	SERPIENTE	BOLIGRAFO	ANZUELO	3	PAL1	0	R1238N
633.789	0.565	689477	STUDY_ORIENT_OFF	n/a	3	3	BOLIGRAFO	SERPIENTE	BOLIGRAFO	ANZUELO	3	PAL1	0	R1238N
634.354	4.017	690042	STUDY_PAIR	n/a	3	3	BOLIGRAFO	SERPIENTE	BOLIGRAFO	ANZUELO	3	PAL1	0	R1238N
638.371	1.0	694059	PAIR_OFF	n/a	3	3	BOLIGRAFO	SERPIENTE	BOLIGRAFO	ANZUELO	3	PAL1	0	R1238N
639.371	0.0	695059	ENCODING_END	n/a	-999	-999	n/a	n/a	n/a	n/a	3	PAL1	0	R1238N
639.371	8.969	695059	MATH_START	n/a	-999	-999	n/a	n/a	n/a	n/a	3	PAL1	0	R1238N
648.34	0.0	704028	MATH_END	n/a	-999	-999	n/a	n/a	n/a	n/a	3	PAL1	0	R1238N
648.34	0.016	704028	RECALL_START	n/a	-999	-999	n/a	n/a	n/a	n/a	3	PAL1	0	R1238N
648.356	0.268	704044	TEST_ORIENT	n/a	1	1	SERPIENTE	n/a	ESPONJA	SERPIENTE	3	PAL1	0	R1238N
648.624	0.566	704312	RETRIEVAL_ORIENT_OFF	n/a	-999	-999	n/a	n/a	n/a	n/a	3	PAL1	0	R1238N
649.19	0.001	704878	TEST_PROBE	n/a	1	1	SERPIENTE	n/a	ESPONJA	SERPIENTE	3	PAL1	0	R1238N
649.191	3.961	704879	REC_START	n/a	1	-999	n/a	n/a	n/a	n/a	3	PAL1	0	R1238N
653.152	0.055	708840	REC_EVENT	3961	1	1	SERPIENTE	<>	ESPONJA	SERPIENTE	3	PAL1	0	R1238N
653.207	1.001	708895	PROBE_OFF	n/a	1	-999	n/a	n/a	n/a	n/a	3	PAL1	0	R1238N
654.208	0.016	709896	REC_END	n/a	1	-999	n/a	n/a	n/a	n/a	3	PAL1	0	R1238N
654.224	0.266	709912	TEST_ORIENT	n/a	2	2	SEMILLA	ANZUELO	SOL	SEMILLA	3	PAL1	0	R1238N
654.49	0.617	710178	RETRIEVAL_ORIENT_OFF	n/a	1	-999	n/a	n/a	n/a	n/a	3	PAL1	0	R1238N
655.107	0.001	710795	TEST_PROBE	n/a	2	2	SEMILLA	ANZUELO	SOL	SEMILLA	3	PAL1	0	R1238N
655.108	1.236	710796	REC_START	n/a	2	-999	n/a	ANZUELO	n/a	n/a	3	PAL1	0	R1238N
656.344	2.78	712032	REC_EVENT	1236	2	2	SEMILLA	ANZUELO	SOL	SEMILLA	3	PAL1	0	R1238N
659.124	1.0	714812	PROBE_OFF	n/a	2	-999	n/a	n/a	n/a	n/a	3	PAL1	0	R1238N
660.124	0.017	715812	REC_END	n/a	2	-999	n/a	n/a	n/a	n/a	3	PAL1	0	R1238N
660.141	0.267	715829	TEST_ORIENT	n/a	3	3	BOLIGRAFO	SERPIENTE	BOLIGRAFO	ANZUELO	3	PAL1	0	R1238N
660.408	0.717	716096	RETRIEVAL_ORIENT_OFF	n/a	2	-999	n/a	n/a	n/a	n/a	3	PAL1	0	R1238N
661.125	0.0	716812	TEST_PROBE	n/a	3	3	BOLIGRAFO	SERPIENTE	BOLIGRAFO	ANZUELO	3	PAL1	0	R1238N
661.125	1.243	716812	REC_START	n/a	3	-999	n/a	SERPIENTE	n/a	n/a	3	PAL1	0	R1238N
662.368	2.774	718055	REC_EVENT	1243	3	3	BOLIGRAFO	ANZUELO	BOLIGRAFO	ANZUELO	3	PAL1	0	R1238N
665.142	0.058	720829	PROBE_OFF	n/a	3	-999	n/a	n/a	n/a	n/a	3	PAL1	0	R1238N
665.2	0.942	720887	REC_EVENT	4075	3	3	BOLIGRAFO	SERPIENTE	BOLIGRAFO	ANZUELO	3	PAL1	0	R1238N
666.142	0.005	721829	REC_END	n/a	3	-999	n/a	n/a	n/a	n/a	3	PAL1	0	R1238N
666.147	10.497	721834	RECALL_END	n/a	-999	-999	n/a	n/a	n/a	n/a	3	PAL1	0	R1238N
676.644	10.929	732331	TRIAL	n/a	-999	-999	n/a	n/a	n/a	n/a	4	PAL1	0	R1238N
687.573	0.006	743260	ENCODING_START	n/a	-999	-999	n/a	n/a	n/a	n/a	4	PAL1	0	R1238N
687.579	0.267	743266	STUDY_ORIENT	n/a	1	3	DIENTE	n/a	DIENTE	FRUTA	4	PAL1	0	R1238N
687.846	0.566	743533	STUDY_ORIENT_OFF	n/a	1	3	DIENTE	n/a	DIENTE	FRUTA	4	PAL1	0	R1238N
688.412	4.017	744099	STUDY_PAIR	n/a	1	3	DIENTE	n/a	DIENTE	FRUTA	4	PAL1	0	R1238N
692.429	1.017	748116	PAIR_OFF	n/a	1	3	DIENTE	n/a	DIENTE	FRUTA	4	PAL1	0	R1238N
693.446	0.267	749133	STUDY_ORIENT	n/a	2	2	VESTIDO	SERPIENTE	SILLA	VESTIDO	4	PAL1	0	R1238N
693.713	0.699	749400	STUDY_ORIENT_OFF	n/a	2	2	VESTIDO	SERPIENTE	SILLA	VESTIDO	4	PAL1	0	R1238N
694.412	4.018	750099	STUDY_PAIR	n/a	2	2	VESTIDO	SERPIENTE	SILLA	VESTIDO	4	PAL1	0	R1238N
698.43	1.016	754117	PAIR_OFF	n/a	2	2	VESTIDO	SERPIENTE	SILLA	VESTIDO	4	PAL1	0	R1238N
699.446	0.268	755133	STUDY_ORIENT	n/a	3	1	CAMISA	n/a	CAMISA	TAPETE	4	PAL1	0	R1238N
699.714	0.749	755401	STUDY_ORIENT_OFF	n/a	3	1	CAMISA	n/a	CAMISA	TAPETE	4	PAL1	0	R1238N
700.463	4.017	756150	STUDY_PAIR	n/a	3	1	CAMISA	n/a	CAMISA	TAPETE	4	PAL1	0	R1238N
704.48	1.0	760167	PAIR_OFF	n/a	3	1	CAMISA	n/a	CAMISA	TAPETE	4	PAL1	0	R1238N
705.48	0.0	761167	MATH_START	n/a	-999	-999	n/a	n/a	n/a	n/a	4	PAL1	0	R1238N
705.48	16.703	761167	ENCODING_END	n/a	-999	-999	n/a	n/a	n/a	n/a	4	PAL1	0	R1238N
722.183	0.0	777869	MATH_END	n/a	-999	-999	n/a	n/a	n/a	n/a	4	PAL1	0	R1238N
722.183	0.017	777869	RECALL_START	n/a	-999	-999	n/a	n/a	n/a	n/a	4	PAL1	0	R1238N
722.2	0.266	777886	TEST_ORIENT	n/a	3	1	CAMISA	n/a	CAMISA	TAPETE	4	PAL1	0	R1238N
722.466	0.7	778152	RETRIEVAL_ORIENT_OFF	n/a	-999	-999	n/a	n/a	n/a	n/a	4	PAL1	0	R1238N
723.166	0.001	778852	TEST_PROBE	n/a	3	1	CAMISA	n/a	CAMISA	TAPETE	4	PAL1	0	R1238N
723.167	1.981	778853	REC_START	n/a	3	-999	n/a	n/a	n/a	n/a	4	PAL1	0	R1238N
725.148	2.036	780834	REC_EVENT	1981	3	1	CAMISA	<>	CAMISA	TAPETE	4	PAL1	0	R1238N
727.184	1.0	782870	PROBE_OFF	n/a	3	-999	n/a	n/a	n/a	n/a	4	PAL1	0	R1238N
728.184	0.016	783870	REC_END	n/a	3	-999	n/a	n/a	n/a	n/a	4	PAL1	0	R1238N
728.2	0.267	783886	TEST_ORIENT	n/a	2	2	VESTIDO	SERPIENTE	SILLA	VESTIDO	4	PAL1	0	R1238N
728.467	0.583	784153	RETRIEVAL_ORIENT_OFF	n/a	3	-999	n/a	n/a	n/a	n/a	4	PAL1	0	R1238N
729.05	0.001	784736	TEST_PROBE	n/a	2	2	VESTIDO	SERPIENTE	SILLA	VESTIDO	4	PAL1	0	R1238N
729.051	1.418	784737	REC_START	n/a	2	-999	n/a	SERPIENTE	n/a	n/a	4	PAL1	0	R1238N
730.469	2.615	786155	REC_EVENT	1418	2	2	VESTIDO	SERPIENTE	SILLA	VESTIDO	4	PAL1	0	R1238N
733.084	1.003	788770	PROBE_OFF	n/a	2	-999	n/a	n/a	n/a	n/a	4	PAL1	0	R1238N
734.087	0.014	789773	REC_END	n/a	2	-999	n/a	n/a	n/a	n/a	4	PAL1	0	R1238N
734.101	0.267	789787	TEST_ORIENT	n/a	1	3	DIENTE	n/a	DIENTE	FRUTA	4	PAL1	0	R1238N
734.368	0.75	790054	RETRIEVAL_ORIENT_OFF	n/a	2	-999	n/a	n/a	n/a	n/a	4	PAL1	0	R1238N
735.118	0.0	790804	TEST_PROBE	n/a	1	3	DIENTE	n/a	DIENTE	FRUTA	4	PAL1	0	R1238N
735.118	4.017	790804	REC_START	n/a	1	-999	n/a	n/a	n/a	n/a	4	PAL1	0	R1238N
739.135	0.766	794821	PROBE_OFF	n/a	1	-999	n/a	n/a	n/a	n/a	4	PAL1	0	R1238N
739.901	0.235	795587	REC_EVENT	4783	1	3	DIENTE	<>	DIENTE	FRUTA	4	PAL1	0	R1238N
740.136	0.004	795822	REC_END	n/a	1	-999	n/a	n/a	n/a	n/a	4	PAL1	0	R1238N
740.14	14.682	795826	RECALL_END	n/a	-999	-999	n/a	n/a	n/a	n/a	4	PAL1	0	R1238N
754.822	10.929	810508	TRIAL	n/a	-999	-999	n/a	n/a	n/a	n/a	5	PAL1	0	R1238N
765.751	0.005	821436	ENCODING_START	n/a	-999	-999	n/a	n/a	n/a	n/a	5	PAL1	0	R1238N
765.756	0.267	821441	STUDY_ORIENT	n/a	1	3	SIGNO	n/a	SIGNO	CARCEL	5	PAL1	0	R1238N
766.023	0.7	821708	STUDY_ORIENT_OFF	n/a	1	3	SIGNO	n/a	SIGNO	CARCEL	5	PAL1	0	R1238N
766.723	4.017	822408	STUDY_PAIR	n/a	1	3	SIGNO	n/a	SIGNO	CARCEL	5	PAL1	0	R1238N
770.74	1.017	826425	PAIR_OFF	n/a	1	3	SIGNO	n/a	SIGNO	CARCEL	5	PAL1	0	R1238N
771.757	0.267	827442	STUDY_ORIENT	n/a	2	2	ESCUDO	ESCUDO	LLUVIA	ESCUDO	5	PAL1	0	R1238N
772.024	0.767	827709	STUDY_ORIENT_OFF	n/a	2	2	ESCUDO	ESCUDO	LLUVIA	ESCUDO	5	PAL1	0	R1238N
772.791	4.017	828476	STUDY_PAIR	n/a	2	2	ESCUDO	ESCUDO	LLUVIA	ESCUDO	5	PAL1	0	R1238N
776.808	1.017	832493	PAIR_OFF	n/a	2	2	ESCUDO	ESCUDO	LLUVIA	ESCUDO	5	PAL1	0	R1238N
777.825	0.265	833510	STUDY_ORIENT	n/a	3	1	VENADO	VESTIDO	VENADO	VELA	5	PAL1	0	R1238N
778.09	0.518	833775	STUDY_ORIENT_OFF	n/a	3	1	VENADO	VESTIDO	VENADO	VELA	5	PAL1	0	R1238N
778.608	4.017	834293	STUDY_PAIR	n/a	3	1	VENADO	VESTIDO	VENADO	VELA	5	PAL1	0	R1238N
782.625	1.001	838310	PAIR_OFF	n/a	3	1	VENADO	VESTIDO	VENADO	VELA	5	PAL1	0	R1238N
783.626	0.0	839311	ENCODING_END	n/a	-999	-999	n/a	n/a	n/a	n/a	5	PAL1	0	R1238N
783.626	20.952	839311	MATH_START	n/a	-999	-999	n/a	n/a	n/a	n/a	5	PAL1	0	R1238N
804.578	0.001	860263	MATH_END	n/a	-999	-999	n/a	n/a	n/a	n/a	5	PAL1	0	R1238N
804.579	0.016	860264	RECALL_START	n/a	-999	-999	n/a	n/a	n/a	n/a	5	PAL1	0	R1238N
804.595	0.267	860280	TEST_ORIENT	n/a	3	1	VENADO	VESTIDO	VENADO	VELA	5	PAL1	0	R1238N
804.862	0.633	860547	RETRIEVAL_ORIENT_OFF	n/a	-999	-999	n/a	n/a	n/a	n/a	5	PAL1	0	R1238N
805.495	0.001	861180	TEST_PROBE	n/a	3	1	VENADO	VESTIDO	VENADO	VELA	5	PAL1	0	R1238N
805.496	1.482	861181	REC_START	n/a	3	-999	n/a	VESTIDO	n/a	n/a	5	PAL1	0	R1238N
806.978	2.301	862663	REC_EVENT	1482	3	1	VENADO	<>	VENADO	VELA	5	PAL1	0	R1238N
809.279	0.233	864963	REC_EVENT	3783	3	1	VENADO	VESTIDO	VENADO	VELA	5	PAL1	0	R1238N
809.512	1.0	865196	PROBE_OFF	n/a	3	-999	n/a	n/a	n/a	n/a	5	PAL1	0	R1238N
810.512	0.017	866196	REC_END	n/a	3	-999	n/a	n/a	n/a	n/a	5	PAL1	0	R1238N
810.529	0.267	866213	TEST_ORIENT	n/a	2	2	ESCUDO	ESCUDO	LLUVIA	ESCUDO	5	PAL1	0	R1238N
810.796	0.582	866480	RETRIEVAL_ORIENT_OFF	n/a	3	-999	n/a	n/a	n/a	n/a	5	PAL1	0	R1238N
811.378	0.0	867062	TEST_PROBE	n/a	2	2	ESCUDO	ESCUDO	LLUVIA	ESCUDO	5	PAL1	0	R1238N
811.378	3.477	867062	REC_START	n/a	2	-999	n/a	ESCUDO	n/a	n/a	5	PAL1	0	R1238N
814.855	0.54	870539	REC_EVENT	3477	2	2	ESCUDO	ESCUDO	LLUVIA	ESCUDO	5	PAL1	0	R1238N
815.395	1.001	871079	PROBE_OFF	n/a	2	-999	n/a	n/a	n/a	n/a	5	PAL1	0	R1238N
816.396	0.016	872080	REC_END	n/a	2	-999	n/a	n/a	n/a	n/a	5	PAL1	0	R1238N
816.412	0.268	872096	TEST_ORIENT	n/a	1	3	SIGNO	n/a	SIGNO	CARCEL	5	PAL1	0	R1238N
816.68	0.532	872364	RETRIEVAL_ORIENT_OFF	n/a	2	-999	n/a	n/a	n/a	n/a	5	PAL1	0	R1238N
817.212	0.001	872896	TEST_PROBE	n/a	1	3	SIGNO	n/a	SIGNO	CARCEL	5	PAL1	0	R1238N
817.213	1.25	872897	REC_START	n/a	1	-999	n/a	n/a	n/a	n/a	5	PAL1	0	R1238N
818.463	1.0	874147	REC_EVENT	1250	1	3	SIGNO	<>	SIGNO	CARCEL	5	PAL1	0	R1238N
819.463	1.0	875147	REC_EVENT	2250	1	3	SIGNO	<>	SIGNO	CARCEL	5	PAL1	0	R1238N
820.463	0.767	876147	REC_EVENT	3250	1	3	SIGNO	<>	SIGNO	CARCEL	5	PAL1	0	R1238N
821.23	1.012	876914	PROBE_OFF	n/a	1	-999	n/a	n/a	n/a	n/a	5	PAL1	0	R1238N
822.242	0.003	877926	REC_END	n/a	1	-999	n/a	n/a	n/a	n/a	5	PAL1	0	R1238N
822.245	6.102	877929	RECALL_END	n/a	-999	-999	n/a	n/a	n/a	n/a	5	PAL1	0	R1238N
828.347	10.928	884031	TRIAL	n/a	-999	-999	n/a	n/a	n/a	n/a	6	PAL1	0	R1238N
839.275	0.007	894959	ENCODING_START	n/a	-999	-999	n/a	n/a	n/a	n/a	6	PAL1	0	R1238N
839.282	0.268	894966	STUDY_ORIENT	n/a	1	3	HIELO	ARROZ	FILETE	HIELO	6	PAL1	0	R1238N
839.55	0.715	895234	STUDY_ORIENT_OFF	n/a	1	3	HIELO	ARROZ	FILETE	HIELO	6	PAL1	0	R1238N
840.265	4.018	895949	STUDY_PAIR	n/a	1	3	HIELO	ARROZ	FILETE	HIELO	6	PAL1	0	R1238N
844.283	1.016	899967	PAIR_OFF	n/a	1	3	HIELO	ARROZ	FILETE	HIELO	6	PAL1	0	R1238N
845.299	0.268	900983	STUDY_ORIENT	n/a	2	2	COPA	TORMENTA	COPA	ARCA	6	PAL1	0	R1238N
845.567	0.766	901251	STUDY_ORIENT_OFF	n/a	2	2	COPA	TORMENTA	COPA	ARCA	6	PAL1	0	R1238N
846.333	4.017	902017	STUDY_PAIR	n/a	2	2	COPA	TORMENTA	COPA	ARCA	6	PAL1	0	R1238N
850.35	1.017	906034	PAIR_OFF	n/a	2	2	COPA	TORMENTA	COPA	ARCA	6	PAL1	0	R1238N
851.367	0.268	907051	STUDY_ORIENT	n/a	3	1	ARROZ	ARROZ	ARROZ	TORMENTA	6	PAL1	0	R1238N
851.635	0.532	907319	STUDY_ORIENT_OFF	n/a	3	1	ARROZ	ARROZ	ARROZ	TORMENTA	6	PAL1	0	R1238N
852.167	4.017	907851	STUDY_PAIR	n/a	3	1	ARROZ	ARROZ	ARROZ	TORMENTA	6	PAL1	0	R1238N
856.184	1.001	911868	PAIR_OFF	n/a	3	1	ARROZ	ARROZ	ARROZ	TORMENTA	6	PAL1	0	R1238N
857.185	0.0	912868	MATH_START	n/a	-999	-999	n/a	n/a	n/a	n/a	6	PAL1	0	R1238N
857.185	6.384	912868	ENCODING_END	n/a	-999	-999	n/a	n/a	n/a	n/a	6	PAL1	0	R1238N
863.569	0.001	919252	MATH_END	n/a	-999	-999	n/a	n/a	n/a	n/a	6	PAL1	0	R1238N
863.57	0.016	919253	RECALL_START	n/a	-999	-999	n/a	n/a	n/a	n/a	6	PAL1	0	R1238N
863.586	0.267	919269	TEST_ORIENT	n/a	3	1	ARROZ	ARROZ	ARROZ	TORMENTA	6	PAL1	0	R1238N
863.853	0.532	919536	RETRIEVAL_ORIENT_OFF	n/a	-999	-999	n/a	n/a	n/a	n/a	6	PAL1	0	R1238N
864.385	0.001	920068	TEST_PROBE	n/a	3	1	ARROZ	ARROZ	ARROZ	TORMENTA	6	PAL1	0	R1238N
864.386	1.139	920069	REC_START	n/a	3	-999	n/a	ARROZ	n/a	n/a	6	PAL1	0	R1238N
865.525	1.0	921208	REC_EVENT	1139	3	1	ARROZ	ARROZ	ARROZ	TORMENTA	6	PAL1	0	R1238N
866.525	1.0	922208	REC_EVENT	2139	3	1	ARROZ	<>	ARROZ	TORMENTA	6	PAL1	0	R1238N
867.525	0.878	923208	REC_EVENT	3139	3	1	ARROZ	<>	ARROZ	TORMENTA	6	PAL1	0	R1238N
868.403	1.0	924086	PROBE_OFF	n/a	3	-999	n/a	n/a	n/a	n/a	6	PAL1	0	R1238N
869.403	0.016	925086	REC_END	n/a	3	-999	n/a	n/a	n/a	n/a	6	PAL1	0	R1238N
869.419	0.251	925102	TEST_ORIENT	n/a	2	2	COPA	TORMENTA	COPA	ARCA	6	PAL1	0	R1238N
869.67	0.583	925353	RETRIEVAL_ORIENT_OFF	n/a	3	-999	n/a	n/a	n/a	n/a	6	PAL1	0	R1238N
870.253	0.0	925936	REC_START	n/a	2	-999	n/a	TORMENTA	n/a	n/a	6	PAL1	0	R1238N
870.253	1.508	925936	TEST_PROBE	n/a	2	2	COPA	TORMENTA	COPA	ARCA	6	PAL1	0	R1238N
871.761	0.434	927444	REC_EVENT	1508	2	2	COPA	NO	COPA	ARCA	6	PAL1	0	R1238N
872.195	2.033	927878	REC_EVENT	1942	2	2	COPA	TORMENTA	COPA	ARCA	6	PAL1	0	R1238N
874.228	0.042	929911	REC_EVENT	3975	2	2	COPA	TORMENTA	COPA	ARCA	6	PAL1	0	R1238N
874.27	1.0	929953	PROBE_OFF	n/a	2	-999	n/a	n/a	n/a	n/a	6	PAL1	0	R1238N
875.27	0.017	930953	REC_END	n/a	2	-999	n/a	n/a	n/a	n/a	6	PAL1	0	R1238N
875.287	0.268	930970	TEST_ORIENT	n/a	1	3	HIELO	ARROZ	FILETE	HIELO	6	PAL1	0	R1238N
875.555	0.615	931238	RETRIEVAL_ORIENT_OFF	n/a	2	-999	n/a	n/a	n/a	n/a	6	PAL1	0	R1238N
876.17	0.001	931853	TEST_PROBE	n/a	1	3	HIELO	ARROZ	FILETE	HIELO	6	PAL1	0	R1238N
876.171	2.911	931854	REC_START	n/a	1	-999	n/a	ARROZ	n/a	n/a	6	PAL1	0	R1238N
879.082	0.624	934765	REC_EVENT	2911	1	3	HIELO	HIELO	FILETE	HIELO	6	PAL1	0	R1238N
879.706	0.482	935389	REC_EVENT	3535	1	3	HIELO	ARROZ	FILETE	HIELO	6	PAL1	0	R1238N
880.188	1.0	935871	PROBE_OFF	n/a	1	-999	n/a	n/a	n/a	n/a	6	PAL1	0	R1238N
881.188	0.005	936871	REC_END	n/a	1	-999	n/a	n/a	n/a	n/a	6	PAL1	0	R1238N
881.193	9.58	936876	RECALL_END	n/a	-999	-999	n/a	n/a	n/a	n/a	6	PAL1	0	R1238N
890.773	10.928	946456	TRIAL	n/a	-999	-999	n/a	n/a	n/a	n/a	7	PAL1	0	R1238N
901.701	0.007	957384	ENCODING_START	n/a	-999	-999	n/a	n/a	n/a	n/a	7	PAL1	0	R1238N
901.708	0.267	957391	STUDY_ORIENT	n/a	1	3	BOLSO	n/a	BOLSO	ZAPATO	7	PAL1	0	R1238N
901.975	0.6	957658	STUDY_ORIENT_OFF	n/a	1	3	BOLSO	n/a	BOLSO	ZAPATO	7	PAL1	0	R1238N
902.575	4.017	958258	STUDY_PAIR	n/a	1	3	BOLSO	n/a	BOLSO	ZAPATO	7	PAL1	0	R1238N
906.592	1.017	962274	PAIR_OFF	n/a	1	3	BOLSO	n/a	BOLSO	ZAPATO	7	PAL1	0	R1238N
907.609	0.267	963291	STUDY_ORIENT	n/a	2	2	AGUANIEVE	n/a	AGUANIEVE	TABURETE	7	PAL1	0	R1238N
907.876	0.766	963558	STUDY_ORIENT_OFF	n/a	2	2	AGUANIEVE	n/a	AGUANIEVE	TABURETE	7	PAL1	0	R1238N
908.642	4.018	964324	STUDY_PAIR	n/a	2	2	AGUANIEVE	n/a	AGUANIEVE	TABURETE	7	PAL1	0	R1238N
912.66	1.016	968342	PAIR_OFF	n/a	2	2	AGUANIEVE	n/a	AGUANIEVE	TABURETE	7	PAL1	0	R1238N
913.676	0.267	969358	STUDY_ORIENT	n/a	3	1	DIENTES	n/a	ARBOL	DIENTES	7	PAL1	0	R1238N
913.943	0.767	969625	STUDY_ORIENT_OFF	n/a	3	1	DIENTES	n/a	ARBOL	DIENTES	7	PAL1	0	R1238N
914.71	4.017	970392	STUDY_PAIR	n/a	3	1	DIENTES	n/a	ARBOL	DIENTES	7	PAL1	0	R1238N
918.727	1.0	974409	PAIR_OFF	n/a	3	1	DIENTES	n/a	ARBOL	DIENTES	7	PAL1	0	R1238N
919.727	0.0	975409	ENCODING_END	n/a	-999	-999	n/a	n/a	n/a	n/a	7	PAL1	0	R1238N
919.727	20.669	975409	MATH_START	n/a	-999	-999	n/a	n/a	n/a	n/a	7	PAL1	0	R1238N
940.396	0.0	996078	MATH_END	n/a	-999	-999	n/a	n/a	n/a	n/a	7	PAL1	0	R1238N
940.396	0.016	996078	RECALL_START	n/a	-999	-999	n/a	n/a	n/a	n/a	7	PAL1	0	R1238N
940.412	0.268	996094	TEST_ORIENT	n/a	3	1	DIENTES	n/a	ARBOL	DIENTES	7	PAL1	0	R1238N
940.68	0.749	996362	RETRIEVAL_ORIENT_OFF	n/a	-999	-999	n/a	n/a	n/a	n/a	7	PAL1	0	R1238N
941.429	0.001	997111	TEST_PROBE	n/a	3	1	DIENTES	n/a	ARBOL	DIENTES	7	PAL1	0	R1238N
941.43	3.573	997112	REC_START	n/a	3	-999	n/a	n/a	n/a	n/a	7	PAL1	0	R1238N
945.003	0.443	1000685	REC_EVENT	3573	3	1	DIENTES	<>	ARBOL	DIENTES	7	PAL1	0	R1238N
945.446	1.0	1001128	PROBE_OFF	n/a	3	-999	n/a	n/a	n/a	n/a	7	PAL1	0	R1238N
946.446	0.017	1002128	REC_END	n/a	3	-999	n/a	n/a	n/a	n/a	7	PAL1	0	R1238N
946.463	0.268	1002145	TEST_ORIENT	n/a	2	2	AGUANIEVE	n/a	AGUANIEVE	TABURETE	7	PAL1	0	R1238N
946.731	0.749	1002413	RETRIEVAL_ORIENT_OFF	n/a	3	-999	n/a	n/a	n/a	n/a	7	PAL1	0	R1238N
947.48	0.0	1003162	TEST_PROBE	n/a	2	2	AGUANIEVE	n/a	AGUANIEVE	TABURETE	7	PAL1	0	R1238N
947.48	4.018	1003162	REC_START	n/a	2	-999	n/a	n/a	n/a	n/a	7	PAL1	0	R1238N
951.498	0.834	1007180	PROBE_OFF	n/a	2	-999	n/a	n/a	n/a	n/a	7	PAL1	0	R1238N
952.332	0.166	1008014	REC_EVENT	4852	2	2	AGUANIEVE	<>	AGUANIEVE	TABURETE	7	PAL1	0	R1238N
952.498	0.017	1008180	REC_END	n/a	2	-999	n/a	n/a	n/a	n/a	7	PAL1	0	R1238N
952.515	0.267	1008197	TEST_ORIENT	n/a	1	3	BOLSO	n/a	BOLSO	ZAPATO	7	PAL1	0	R1238N
952.782	0.632	1008464	RETRIEVAL_ORIENT_OFF	n/a	2	-999	n/a	n/a	n/a	n/a	7	PAL1	0	R1238N
953.414	0.001	1009096	TEST_PROBE	n/a	1	3	BOLSO	n/a	BOLSO	ZAPATO	7	PAL1	0	R1238N
953.415	4.016	1009097	REC_START	n/a	1	-999	n/a	n/a	n/a	n/a	7	PAL1	0	R1238N
957.431	0.836	1013112	PROBE_OFF	n/a	1	-999	n/a	n/a	n/a	n/a	7	PAL1	0	R1238N
958.267	0.165	1013948	REC_EVENT	4852	1	3	BOLSO	<>	BOLSO	ZAPATO	7	PAL1	0	R1238N
958.432	0.004	1014113	REC_END	n/a	1	-999	n/a	n/a	n/a	n/a	7	PAL1	0	R1238N
958.436	9.198	1014117	RECALL_END	n/a	-999	-999	n/a	n/a	n/a	n/a	7	PAL1	0	R1238N
967.634	10.929	1023315	TRIAL	n/a	-999	-999	n/a	n/a	n/a	n/a	8	PAL1	0	R1238N
978.563	0.006	1034244	ENCODING_START	n/a	-999	-999	n/a	n/a	n/a	n/a	8	PAL1	0	R1238N
978.569	0.266	1034250	STUDY_ORIENT	n/a	1	3	PERLA	n/a	PERLA	CARACOL	8	PAL1	0	R1238N
978.835	0.616	1034516	STUDY_ORIENT_OFF	n/a	1	3	PERLA	n/a	PERLA	CARACOL	8	PAL1	0	R1238N
979.451	4.017	1035132	STUDY_PAIR	n/a	1	3	PERLA	n/a	PERLA	CARACOL	8	PAL1	0	R1238N
983.468	1.017	1039149	PAIR_OFF	n/a	1	3	PERLA	n/a	PERLA	CARACOL	8	PAL1	0	R1238N
984.485	0.268	1040166	STUDY_ORIENT	n/a	2	2	PIERNA	n/a	GUSANO	PIERNA	8	PAL1	0	R1238N
984.753	0.582	1040434	STUDY_ORIENT_OFF	n/a	2	2	PIERNA	n/a	GUSANO	PIERNA	8	PAL1	0	R1238N
985.335	4.017	1041016	STUDY_PAIR	n/a	2	2	PIERNA	n/a	GUSANO	PIERNA	8	PAL1	0	R1238N
989.352	1.017	1045033	PAIR_OFF	n/a	2	2	PIERNA	n/a	GUSANO	PIERNA	8	PAL1	0	R1238N
990.369	0.268	1046050	STUDY_ORIENT	n/a	3	1	ASIENTO	CARACOL	ASIENTO	SOMBRERO	8	PAL1	0	R1238N
990.637	0.699	1046318	STUDY_ORIENT_OFF	n/a	3	1	ASIENTO	CARACOL	ASIENTO	SOMBRERO	8	PAL1	0	R1238N
991.336	4.017	1047017	STUDY_PAIR	n/a	3	1	ASIENTO	CARACOL	ASIENTO	SOMBRERO	8	PAL1	0	R1238N
995.353	1.0	1051034	PAIR_OFF	n/a	3	1	ASIENTO	CARACOL	ASIENTO	SOMBRERO	8	PAL1	0	R1238N
996.353	0.0	1052034	ENCODING_END	n/a	-999	-999	n/a	n/a	n/a	n/a	8	PAL1	0	R1238N
996.353	13.203	1052034	MATH_START	n/a	-999	-999	n/a	n/a	n/a	n/a	8	PAL1	0	R1238N
1009.556	0.0	1065236	MATH_END	n/a	-999	-999	n/a	n/a	n/a	n/a	8	PAL1	0	R1238N
1009.556	0.017	1065236	RECALL_START	n/a	-999	-999	n/a	n/a	n/a	n/a	8	PAL1	0	R1238N
1009.573	0.266	1065253	TEST_ORIENT	n/a	3	1	ASIENTO	CARACOL	ASIENTO	SOMBRERO	8	PAL1	0	R1238N
1009.839	0.667	1065519	RETRIEVAL_ORIENT_OFF	n/a	-999	-999	n/a	n/a	n/a	n/a	8	PAL1	0	R1238N
1010.506	0.001	1066186	TEST_PROBE	n/a	3	1	ASIENTO	CARACOL	ASIENTO	SOMBRERO	8	PAL1	0	R1238N
1010.507	2.33	1066187	REC_START	n/a	3	-999	n/a	CARACOL	n/a	n/a	8	PAL1	0	R1238N
1012.837	1.686	1068517	REC_EVENT	2330	3	1	ASIENTO	CARACOL	ASIENTO	SOMBRERO	8	PAL1	0	R1238N
1014.523	1.0	1070203	PROBE_OFF	n/a	3	-999	n/a	n/a	n/a	n/a	8	PAL1	0	R1238N
1015.523	0.017	1071203	REC_END	n/a	3	-999	n/a	n/a	n/a	n/a	8	PAL1	0	R1238N
1015.54	0.267	1071220	TEST_ORIENT	n/a	2	2	PIERNA	n/a	GUSANO	PIERNA	8	PAL1	0	R1238N
1015.807	0.632	1071487	RETRIEVAL_ORIENT_OFF	n/a	3	-999	n/a	n/a	n/a	n/a	8	PAL1	0	R1238N
1016.439	0.001	1072119	TEST_PROBE	n/a	2	2	PIERNA	n/a	GUSANO	PIERNA	8	PAL1	0	R1238N
1016.44	4.017	1072120	REC_START	n/a	2	-999	n/a	n/a	n/a	n/a	8	PAL1	0	R1238N
1020.457	0.766	1076137	PROBE_OFF	n/a	2	-999	n/a	n/a	n/a	n/a	8	PAL1	0	R1238N
1021.223	0.234	1076903	REC_EVENT	4783	2	2	PIERNA	<>	GUSANO	PIERNA	8	PAL1	0	R1238N
1021.457	0.016	1077137	REC_END	n/a	2	-999	n/a	n/a	n/a	n/a	8	PAL1	0	R1238N
1021.473	0.268	1077153	TEST_ORIENT	n/a	1	3	PERLA	n/a	PERLA	CARACOL	8	PAL1	0	R1238N
1021.741	0.566	1077421	RETRIEVAL_ORIENT_OFF	n/a	2	-999	n/a	n/a	n/a	n/a	8	PAL1	0	R1238N
1022.307	0.0	1077987	TEST_PROBE	n/a	1	3	PERLA	n/a	PERLA	CARACOL	8	PAL1	0	R1238N
1022.307	4.017	1077987	REC_START	n/a	1	-999	n/a	n/a	n/a	n/a	8	PAL1	0	R1238N
1026.324	0.859	1082004	PROBE_OFF	n/a	1	-999	n/a	n/a	n/a	n/a	8	PAL1	0	R1238N
1027.183	0.141	1082863	REC_EVENT	4876	1	3	PERLA	<>	PERLA	CARACOL	8	PAL1	0	R1238N
1027.324	0.005	1083004	REC_END	n/a	1	-999	n/a	n/a	n/a	n/a	8	PAL1	0	R1238N
1027.329	55.654	1083009	RECALL_END	n/a	-999	-999	n/a	n/a	n/a	n/a	8	PAL1	0	R1238N
1082.983	10.928	1138662	TRIAL	n/a	-999	-999	n/a	n/a	n/a	n/a	9	PAL1	0	R1238N
1093.911	0.006	1149590	ENCODING_START	n/a	-999	-999	n/a	n/a	n/a	n/a	9	PAL1	0	R1238N
1093.917	0.266	1149596	STUDY_ORIENT	n/a	1	1	ESCRITORIO	BANDERA	VID	ESCRITORIO	9	PAL1	0	R1238N
1094.183	0.518	1149862	STUDY_ORIENT_OFF	n/a	1	1	ESCRITORIO	BANDERA	VID	ESCRITORIO	9	PAL1	0	R1238N
1094.701	4.017	1150380	STUDY_PAIR	n/a	1	1	ESCRITORIO	BANDERA	VID	ESCRITORIO	9	PAL1	0	R1238N
1098.718	1.017	1154397	PAIR_OFF	n/a	1	1	ESCRITORIO	BANDERA	VID	ESCRITORIO	9	PAL1	0	R1238N
1099.735	0.267	1155414	STUDY_ORIENT	n/a	2	2	BANDERA	BANDERA	MUNDO	BANDERA	9	PAL1	0	R1238N
1100.002	0.7	1155681	STUDY_ORIENT_OFF	n/a	2	2	BANDERA	BANDERA	MUNDO	BANDERA	9	PAL1	0	R1238N
1100.702	4.017	1156381	STUDY_PAIR	n/a	2	2	BANDERA	BANDERA	MUNDO	BANDERA	9	PAL1	0	R1238N
1104.719	1.017	1160397	PAIR_OFF	n/a	2	2	BANDERA	BANDERA	MUNDO	BANDERA	9	PAL1	0	R1238N
1105.736	0.266	1161414	STUDY_ORIENT	n/a	3	3	MONO	MONEDA	MONEDA	MONO	9	PAL1	0	R1238N
1106.002	0.517	1161680	STUDY_ORIENT_OFF	n/a	3	3	MONO	MONEDA	MONEDA	MONO	9	PAL1	0	R1238N
1106.519	4.017	1162197	STUDY_PAIR	n/a	3	3	MONO	MONEDA	MONEDA	MONO	9	PAL1	0	R1238N
1110.536	1.0	1166214	PAIR_OFF	n/a	3	3	MONO	MONEDA	MONEDA	MONO	9	PAL1	0	R1238N
1111.536	0.0	1167214	ENCODING_END	n/a	-999	-999	n/a	n/a	n/a	n/a	9	PAL1	0	R1238N
1111.536	7.018	1167214	MATH_START	n/a	-999	-999	n/a	n/a	n/a	n/a	9	PAL1	0	R1238N
1118.554	0.0	1174232	MATH_END	n/a	-999	-999	n/a	n/a	n/a	n/a	9	PAL1	0	R1238N
1118.554	0.017	1174232	RECALL_START	n/a	-999	-999	n/a	n/a	n/a	n/a	9	PAL1	0	R1238N
1118.571	0.267	1174249	TEST_ORIENT	n/a	1	1	ESCRITORIO	BANDERA	VID	ESCRITORIO	9	PAL1	0	R1238N
1118.838	0.7	1174516	RETRIEVAL_ORIENT_OFF	n/a	-999	-999	n/a	n/a	n/a	n/a	9	PAL1	0	R1238N
1119.538	0.0	1175216	TEST_PROBE	n/a	1	1	ESCRITORIO	BANDERA	VID	ESCRITORIO	9	PAL1	0	R1238N
1119.538	1.706	1175216	REC_START	n/a	1	-999	n/a	BANDERA	n/a	n/a	9	PAL1	0	R1238N
1121.244	2.311	1176922	REC_EVENT	1706	1	1	ESCRITORIO	BANDERA	VID	ESCRITORIO	9	PAL1	0	R1238N
1123.555	1.0	1179233	PROBE_OFF	n/a	1	-999	n/a	n/a	n/a	n/a	9	PAL1	0	R1238N
1124.555	0.017	1180233	REC_END	n/a	1	-999	n/a	n/a	n/a	n/a	9	PAL1	0	R1238N
1124.572	0.266	1180250	TEST_ORIENT	n/a	2	2	BANDERA	BANDERA	MUNDO	BANDERA	9	PAL1	0	R1238N
1124.838	0.599	1180516	RETRIEVAL_ORIENT_OFF	n/a	1	-999	n/a	n/a	n/a	n/a	9	PAL1	0	R1238N
1125.437	0.001	1181115	TEST_PROBE	n/a	2	2	BANDERA	BANDERA	MUNDO	BANDERA	9	PAL1	0	R1238N
1125.438	2.147	1181116	REC_START	n/a	2	-999	n/a	BANDERA	n/a	n/a	9	PAL1	0	R1238N
1127.585	1.87	1183263	REC_EVENT	2147	2	2	BANDERA	BANDERA	MUNDO	BANDERA	9	PAL1	0	R1238N
1129.455	1.0	1185133	PROBE_OFF	n/a	2	-999	n/a	n/a	n/a	n/a	9	PAL1	0	R1238N
1130.455	0.016	1186133	REC_END	n/a	2	-999	n/a	n/a	n/a	n/a	9	PAL1	0	R1238N
1130.471	0.251	1186149	TEST_ORIENT	n/a	3	3	MONO	MONEDA	MONEDA	MONO	9	PAL1	0	R1238N
1130.722	0.583	1186400	RETRIEVAL_ORIENT_OFF	n/a	2	-999	n/a	n/a	n/a	n/a	9	PAL1	0	R1238N
1131.305	0.0	1186983	TEST_PROBE	n/a	3	3	MONO	MONEDA	MONEDA	MONO	9	PAL1	0	R1238N
1131.305	1.676	1186983	REC_START	n/a	3	-999	n/a	MONEDA	n/a	n/a	9	PAL1	0	R1238N
1132.981	0.878	1188659	REC_EVENT	1676	3	3	MONO	MONO	MONEDA	MONO	9	PAL1	0	R1238N
1133.859	1.463	1189537	REC_EVENT	2554	3	3	MONO	MONEDA	MONEDA	MONO	9	PAL1	0	R1238N
1135.322	1.001	1191000	PROBE_OFF	n/a	3	-999	n/a	n/a	n/a	n/a	9	PAL1	0	R1238N
1136.323	0.01	1192001	REC_END	n/a	3	-999	n/a	n/a	n/a	n/a	9	PAL1	0	R1238N
1136.333	32.461	1192011	RECALL_END	n/a	-999	-999	n/a	n/a	n/a	n/a	9	PAL1	0	R1238N
1168.794	10.929	1224471	TRIAL	n/a	-999	-999	n/a	n/a	n/a	n/a	10	PAL1	0	R1238N
1179.723	0.006	1235400	ENCODING_START	n/a	-999	-999	n/a	n/a	n/a	n/a	10	PAL1	0	R1238N
1179.729	0.267	1235406	STUDY_ORIENT	n/a	1	3	POLO	MONEDA	POLO	BANDEJA	10	PAL1	0	R1238N
1179.996	0.7	1235673	STUDY_ORIENT_OFF	n/a	1	3	POLO	MONEDA	POLO	BANDEJA	10	PAL1	0	R1238N
1180.696	4.017	1236373	STUDY_PAIR	n/a	1	3	POLO	MONEDA	POLO	BANDEJA	10	PAL1	0	R1238N
1184.713	1.017	1240390	PAIR_OFF	n/a	1	3	POLO	MONEDA	POLO	BANDEJA	10	PAL1	0	R1238N
1185.73	0.267	1241407	STUDY_ORIENT	n/a	2	2	PALO	n/a	PALO	PRINCIPE	10	PAL1	0	R1238N
1185.997	0.633	1241674	STUDY_ORIENT_OFF	n/a	2	2	PALO	n/a	PALO	PRINCIPE	10	PAL1	0	R1238N
1186.63	4.017	1242307	STUDY_PAIR	n/a	2	2	PALO	n/a	PALO	PRINCIPE	10	PAL1	0	R1238N
1190.647	1.017	1246324	PAIR_OFF	n/a	2	2	PALO	n/a	PALO	PRINCIPE	10	PAL1	0	R1238N
1191.664	0.267	1247341	STUDY_ORIENT	n/a	3	1	HACHA	n/a	HACHA	PASTEL	10	PAL1	0	R1238N
1191.931	0.7	1247608	STUDY_ORIENT_OFF	n/a	3	1	HACHA	n/a	HACHA	PASTEL	10	PAL1	0	R1238N
1192.631	4.017	1248308	STUDY_PAIR	n/a	3	1	HACHA	n/a	HACHA	PASTEL	10	PAL1	0	R1238N
1196.648	1.0	1252325	PAIR_OFF	n/a	3	1	HACHA	n/a	HACHA	PASTEL	10	PAL1	0	R1238N
1197.648	0.0	1253325	ENCODING_END	n/a	-999	-999	n/a	n/a	n/a	n/a	10	PAL1	0	R1238N
1197.648	10.051	1253325	MATH_START	n/a	-999	-999	n/a	n/a	n/a	n/a	10	PAL1	0	R1238N
1207.699	0.001	1263375	MATH_END	n/a	-999	-999	n/a	n/a	n/a	n/a	10	PAL1	0	R1238N
1207.7	0.016	1263376	RECALL_START	n/a	-999	-999	n/a	n/a	n/a	n/a	10	PAL1	0	R1238N
1207.716	0.267	1263392	TEST_ORIENT	n/a	3	1	HACHA	n/a	HACHA	PASTEL	10	PAL1	0	R1238N
1207.983	0.583	1263659	RETRIEVAL_ORIENT_OFF	n/a	-999	-999	n/a	n/a	n/a	n/a	10	PAL1	0	R1238N
1208.566	0.001	1264242	TEST_PROBE	n/a	3	1	HACHA	n/a	HACHA	PASTEL	10	PAL1	0	R1238N
1208.567	1.724	1264243	REC_START	n/a	3	-999	n/a	n/a	n/a	n/a	10	PAL1	0	R1238N
1210.291	2.292	1265967	REC_EVENT	1724	3	1	HACHA	<>	HACHA	PASTEL	10	PAL1	0	R1238N
1212.583	1.0	1268259	PROBE_OFF	n/a	3	-999	n/a	n/a	n/a	n/a	10	PAL1	0	R1238N
1213.583	0.017	1269259	REC_END	n/a	3	-999	n/a	n/a	n/a	n/a	10	PAL1	0	R1238N
1213.6	0.267	1269276	TEST_ORIENT	n/a	2	2	PALO	n/a	PALO	PRINCIPE	10	PAL1	0	R1238N
1213.867	0.667	1269543	RETRIEVAL_ORIENT_OFF	n/a	3	-999	n/a	n/a	n/a	n/a	10	PAL1	0	R1238N
1214.534	0.0	1270210	TEST_PROBE	n/a	2	2	PALO	n/a	PALO	PRINCIPE	10	PAL1	0	R1238N
1214.534	4.017	1270210	REC_START	n/a	2	-999	n/a	n/a	n/a	n/a	10	PAL1	0	R1238N
1218.551	0.812	1274227	PROBE_OFF	n/a	2	-999	n/a	n/a	n/a	n/a	10	PAL1	0	R1238N
1219.363	0.189	1275039	REC_EVENT	4829	2	2	PALO	<>	PALO	PRINCIPE	10	PAL1	0	R1238N
1219.552	0.016	1275228	REC_END	n/a	2	-999	n/a	n/a	n/a	n/a	10	PAL1	0	R1238N
1219.568	0.266	1275244	TEST_ORIENT	n/a	1	3	POLO	MONEDA	POLO	BANDEJA	10	PAL1	0	R1238N
1219.834	0.55	1275510	RETRIEVAL_ORIENT_OFF	n/a	2	-999	n/a	n/a	n/a	n/a	10	PAL1	0	R1238N
1220.384	0.0	1276060	TEST_PROBE	n/a	1	3	POLO	MONEDA	POLO	BANDEJA	10	PAL1	0	R1238N
1220.384	1.406	1276060	REC_START	n/a	1	-999	n/a	MONEDA	n/a	n/a	10	PAL1	0	R1238N
1221.79	0.89	1277466	REC_EVENT	1406	1	3	POLO	MONO	POLO	BANDEJA	10	PAL1	0	R1238N
1222.68	1.721	1278356	REC_EVENT	2296	1	3	POLO	MONEDA	POLO	BANDEJA	10	PAL1	0	R1238N
1224.401	1.001	1280077	PROBE_OFF	n/a	1	-999	n/a	n/a	n/a	n/a	10	PAL1	0	R1238N
1225.402	0.004	1281078	REC_END	n/a	1	-999	n/a	n/a	n/a	n/a	10	PAL1	0	R1238N
1225.406	4.53	1281082	RECALL_END	n/a	-999	-999	n/a	n/a	n/a	n/a	10	PAL1	0	R1238N
1229.936	10.928	1285612	TRIAL	n/a	-999	-999	n/a	n/a	n/a	n/a	11	PAL1	0	R1238N
1240.864	0.007	1296540	ENCODING_START	n/a	-999	-999	n/a	n/a	n/a	n/a	11	PAL1	0	R1238N
1240.871	0.265	1296547	STUDY_ORIENT	n/a	1	3	CARNET	n/a	CARNET	PLATO	11	PAL1	0	R1238N
1241.136	0.685	1296812	STUDY_ORIENT_OFF	n/a	1	3	CARNET	n/a	CARNET	PLATO	11	PAL1	0	R1238N
1241.821	4.017	1297497	STUDY_PAIR	n/a	1	3	CARNET	n/a	CARNET	PLATO	11	PAL1	0	R1238N
1245.838	1.017	1301514	PAIR_OFF	n/a	1	3	CARNET	n/a	CARNET	PLATO	11	PAL1	0	R1238N
1246.855	0.266	1302531	STUDY_ORIENT	n/a	2	2	MALEZA	n/a	MALEZA	RED	11	PAL1	0	R1238N
1247.121	0.567	1302797	STUDY_ORIENT_OFF	n/a	2	2	MALEZA	n/a	MALEZA	RED	11	PAL1	0	R1238N
1247.688	4.018	1303364	STUDY_PAIR	n/a	2	2	MALEZA	n/a	MALEZA	RED	11	PAL1	0	R1238N
1251.706	1.016	1307381	PAIR_OFF	n/a	2	2	MALEZA	n/a	MALEZA	RED	11	PAL1	0	R1238N
1252.722	0.267	1308397	STUDY_ORIENT	n/a	3	1	JAULA	n/a	JAULA	MOFETA	11	PAL1	0	R1238N
1252.989	0.55	1308664	STUDY_ORIENT_OFF	n/a	3	1	JAULA	n/a	JAULA	MOFETA	11	PAL1	0	R1238N
1253.539	4.017	1309214	STUDY_PAIR	n/a	3	1	JAULA	n/a	JAULA	MOFETA	11	PAL1	0	R1238N
1257.556	1.001	1313231	PAIR_OFF	n/a	3	1	JAULA	n/a	JAULA	MOFETA	11	PAL1	0	R1238N
1258.557	0.0	1314232	ENCODING_END	n/a	-999	-999	n/a	n/a	n/a	n/a	11	PAL1	0	R1238N
1258.557	11.201	1314232	MATH_START	n/a	-999	-999	n/a	n/a	n/a	n/a	11	PAL1	0	R1238N
1269.758	0.0	1325433	MATH_END	n/a	-999	-999	n/a	n/a	n/a	n/a	11	PAL1	0	R1238N
1269.758	0.017	1325433	RECALL_START	n/a	-999	-999	n/a	n/a	n/a	n/a	11	PAL1	0	R1238N
1269.775	0.266	1325450	TEST_ORIENT	n/a	3	1	JAULA	n/a	JAULA	MOFETA	11	PAL1	0	R1238N
1270.041	0.534	1325716	RETRIEVAL_ORIENT_OFF	n/a	-999	-999	n/a	n/a	n/a	n/a	11	PAL1	0	R1238N
1270.575	0.001	1326250	TEST_PROBE	n/a	3	1	JAULA	n/a	JAULA	MOFETA	11	PAL1	0	R1238N
1270.576	4.016	1326251	REC_START	n/a	3	-999	n/a	n/a	n/a	n/a	11	PAL1	0	R1238N
1274.592	0.813	1330267	PROBE_OFF	n/a	3	-999	n/a	n/a	n/a	n/a	11	PAL1	0	R1238N
1275.405	0.198	1331080	REC_EVENT	4829	3	1	JAULA	<>	JAULA	MOFETA	11	PAL1	0	R1238N
1275.603	0.005	1331278	REC_END	n/a	3	-999	n/a	n/a	n/a	n/a	11	PAL1	0	R1238N
1275.608	0.267	1331283	TEST_ORIENT	n/a	2	2	MALEZA	n/a	MALEZA	RED	11	PAL1	0	R1238N
1275.875	0.533	1331550	RETRIEVAL_ORIENT_OFF	n/a	3	-999	n/a	n/a	n/a	n/a	11	PAL1	0	R1238N
1276.408	0.0	1332083	TEST_PROBE	n/a	2	2	MALEZA	n/a	MALEZA	RED	11	PAL1	0	R1238N
1276.408	4.017	1332083	REC_START	n/a	2	-999	n/a	n/a	n/a	n/a	11	PAL1	0	R1238N
1280.425	0.812	1336100	PROBE_OFF	n/a	2	-999	n/a	n/a	n/a	n/a	11	PAL1	0	R1238N
1281.237	0.189	1336912	REC_EVENT	4829	2	2	MALEZA	<>	MALEZA	RED	11	PAL1	0	R1238N
1281.426	0.016	1337101	REC_END	n/a	2	-999	n/a	n/a	n/a	n/a	11	PAL1	0	R1238N
1281.442	0.268	1337117	TEST_ORIENT	n/a	1	3	CARNET	n/a	CARNET	PLATO	11	PAL1	0	R1238N
1281.71	0.599	1337385	RETRIEVAL_ORIENT_OFF	n/a	2	-999	n/a	n/a	n/a	n/a	11	PAL1	0	R1238N
1282.309	0.0	1337984	TEST_PROBE	n/a	1	3	CARNET	n/a	CARNET	PLATO	11	PAL1	0	R1238N
1282.309	4.017	1337984	REC_START	n/a	1	-999	n/a	n/a	n/a	n/a	11	PAL1	0	R1238N
1286.326	0.905	1342001	PROBE_OFF	n/a	1	-999	n/a	n/a	n/a	n/a	11	PAL1	0	R1238N
1287.231	0.095	1342906	REC_EVENT	4922	1	3	CARNET	<>	CARNET	PLATO	11	PAL1	0	R1238N
1287.326	0.01	1343001	REC_END	n/a	1	-999	n/a	n/a	n/a	n/a	11	PAL1	0	R1238N
1287.336	6.625	1343011	RECALL_END	n/a	-999	-999	n/a	n/a	n/a	n/a	11	PAL1	0	R1238N
1293.961	10.929	1349636	TRIAL	n/a	-999	-999	n/a	n/a	n/a	n/a	12	PAL1	0	R1238N
1304.89	0.006	1360564	ENCODING_START	n/a	-999	-999	n/a	n/a	n/a	n/a	12	PAL1	0	R1238N
1304.896	0.266	1360570	STUDY_ORIENT	n/a	1	3	JUEZ	n/a	CIELO	JUEZ	12	PAL1	0	R1238N
1305.162	0.684	1360836	STUDY_ORIENT_OFF	n/a	1	3	JUEZ	n/a	CIELO	JUEZ	12	PAL1	0	R1238N
1305.846	4.017	1361520	STUDY_PAIR	n/a	1	3	JUEZ	n/a	CIELO	JUEZ	12	PAL1	0	R1238N
1309.863	1.017	1365537	PAIR_OFF	n/a	1	3	JUEZ	n/a	CIELO	JUEZ	12	PAL1	0	R1238N
1310.88	0.266	1366554	STUDY_ORIENT	n/a	2	2	RAMA	PRIMAVERA	ELFO	RAMA	12	PAL1	0	R1238N
1311.146	0.518	1366820	STUDY_ORIENT_OFF	n/a	2	2	RAMA	PRIMAVERA	ELFO	RAMA	12	PAL1	0	R1238N
1311.664	4.017	1367338	STUDY_PAIR	n/a	2	2	RAMA	PRIMAVERA	ELFO	RAMA	12	PAL1	0	R1238N
1315.681	1.017	1371355	PAIR_OFF	n/a	2	2	RAMA	PRIMAVERA	ELFO	RAMA	12	PAL1	0	R1238N
1316.698	0.266	1372372	STUDY_ORIENT	n/a	3	1	LUNA	n/a	LUNA	PRIMAVERA	12	PAL1	0	R1238N
1316.964	0.567	1372638	STUDY_ORIENT_OFF	n/a	3	1	LUNA	n/a	LUNA	PRIMAVERA	12	PAL1	0	R1238N
1317.531	4.017	1373205	STUDY_PAIR	n/a	3	1	LUNA	n/a	LUNA	PRIMAVERA	12	PAL1	0	R1238N
1321.548	1.0	1377222	PAIR_OFF	n/a	3	1	LUNA	n/a	LUNA	PRIMAVERA	12	PAL1	0	R1238N
1322.548	0.0	1378222	MATH_START	n/a	-999	-999	n/a	n/a	n/a	n/a	12	PAL1	0	R1238N
1322.548	14.618	1378222	ENCODING_END	n/a	-999	-999	n/a	n/a	n/a	n/a	12	PAL1	0	R1238N
1337.166	0.0	1392840	MATH_END	n/a	-999	-999	n/a	n/a	n/a	n/a	12	PAL1	0	R1238N
1337.166	0.017	1392840	RECALL_START	n/a	-999	-999	n/a	n/a	n/a	n/a	12	PAL1	0	R1238N
1337.183	0.266	1392857	TEST_ORIENT	n/a	3	1	LUNA	n/a	LUNA	PRIMAVERA	12	PAL1	0	R1238N
1337.449	0.535	1393123	RETRIEVAL_ORIENT_OFF	n/a	-999	-999	n/a	n/a	n/a	n/a	12	PAL1	0	R1238N
1337.984	0.001	1393658	TEST_PROBE	n/a	3	1	LUNA	n/a	LUNA	PRIMAVERA	12	PAL1	0	R1238N
1337.985	4.016	1393659	REC_START	n/a	3	-999	n/a	n/a	n/a	n/a	12	PAL1	0	R1238N
1342.001	0.86	1397675	PROBE_OFF	n/a	3	-999	n/a	n/a	n/a	n/a	12	PAL1	0	R1238N
1342.861	0.141	1398535	REC_EVENT	4876	3	1	LUNA	<>	LUNA	PRIMAVERA	12	PAL1	0	R1238N
1343.002	0.016	1398676	REC_END	n/a	3	-999	n/a	n/a	n/a	n/a	12	PAL1	0	R1238N
1343.018	0.266	1398692	TEST_ORIENT	n/a	2	2	RAMA	PRIMAVERA	ELFO	RAMA	12	PAL1	0	R1238N
1343.284	0.717	1398958	RETRIEVAL_ORIENT_OFF	n/a	3	-999	n/a	n/a	n/a	n/a	12	PAL1	0	R1238N
1344.001	0.001	1399675	TEST_PROBE	n/a	2	2	RAMA	PRIMAVERA	ELFO	RAMA	12	PAL1	0	R1238N
1344.002	1.551	1399676	REC_START	n/a	2	-999	n/a	PRIMAVERA	n/a	n/a	12	PAL1	0	R1238N
1345.553	2.466	1401227	REC_EVENT	1551	2	2	RAMA	PRIMAVERA	ELFO	RAMA	12	PAL1	0	R1238N
1348.019	1.0	1403692	PROBE_OFF	n/a	2	-999	n/a	n/a	n/a	n/a	12	PAL1	0	R1238N
1349.019	0.016	1404692	REC_END	n/a	2	-999	n/a	n/a	n/a	n/a	12	PAL1	0	R1238N
1349.035	0.266	1404708	TEST_ORIENT	n/a	1	3	JUEZ	n/a	CIELO	JUEZ	12	PAL1	0	R1238N
1349.301	0.618	1404974	RETRIEVAL_ORIENT_OFF	n/a	2	-999	n/a	n/a	n/a	n/a	12	PAL1	0	R1238N
1349.919	0.0	1405592	TEST_PROBE	n/a	1	3	JUEZ	n/a	CIELO	JUEZ	12	PAL1	0	R1238N
1349.919	4.017	1405592	REC_START	n/a	1	-999	n/a	n/a	n/a	n/a	12	PAL1	0	R1238N
1353.936	0.835	1409609	PROBE_OFF	n/a	1	-999	n/a	n/a	n/a	n/a	12	PAL1	0	R1238N
1354.771	0.165	1410444	REC_EVENT	4852	1	3	JUEZ	<>	CIELO	JUEZ	12	PAL1	0	R1238N
1354.936	0.01	1410609	REC_END	n/a	1	-999	n/a	n/a	n/a	n/a	12	PAL1	0	R1238N
1354.946	161.378	1410619	RECALL_END	n/a	-999	-999	n/a	n/a	n/a	n/a	12	PAL1	0	R1238N
1516.324	10.929	1571994	TRIAL	n/a	-999	-999	n/a	n/a	n/a	n/a	13	PAL1	0	R1238N
1527.253	0.005	1582923	ENCODING_START	n/a	-999	-999	n/a	n/a	n/a	n/a	13	PAL1	0	R1238N
1527.258	0.268	1582928	STUDY_ORIENT	n/a	1	1	LANZA	ABEJA	ABEJA	LANZA	13	PAL1	0	R1238N
1527.526	0.666	1583196	STUDY_ORIENT_OFF	n/a	1	1	LANZA	ABEJA	ABEJA	LANZA	13	PAL1	0	R1238N
1528.192	4.017	1583862	STUDY_PAIR	n/a	1	1	LANZA	ABEJA	ABEJA	LANZA	13	PAL1	0	R1238N
1532.209	1.017	1587879	PAIR_OFF	n/a	1	1	LANZA	ABEJA	ABEJA	LANZA	13	PAL1	0	R1238N
1533.226	0.267	1588896	STUDY_ORIENT	n/a	2	2	ZOOLOGICO	n/a	BANCA	ZOOLOGICO	13	PAL1	0	R1238N
1533.493	0.733	1589163	STUDY_ORIENT_OFF	n/a	2	2	ZOOLOGICO	n/a	BANCA	ZOOLOGICO	13	PAL1	0	R1238N
1534.226	4.017	1589896	STUDY_PAIR	n/a	2	2	ZOOLOGICO	n/a	BANCA	ZOOLOGICO	13	PAL1	0	R1238N
1538.243	1.017	1593913	PAIR_OFF	n/a	2	2	ZOOLOGICO	n/a	BANCA	ZOOLOGICO	13	PAL1	0	R1238N
1539.26	0.268	1594930	STUDY_ORIENT	n/a	3	3	DEDO	DEDO	SOPA	DEDO	13	PAL1	0	R1238N
1539.528	0.566	1595198	STUDY_ORIENT_OFF	n/a	3	3	DEDO	DEDO	SOPA	DEDO	13	PAL1	0	R1238N
1540.094	4.017	1595764	STUDY_PAIR	n/a	3	3	DEDO	DEDO	SOPA	DEDO	13	PAL1	0	R1238N
1544.111	1.0	1599780	PAIR_OFF	n/a	3	3	DEDO	DEDO	SOPA	DEDO	13	PAL1	0	R1238N
1545.111	0.0	1600780	ENCODING_END	n/a	-999	-999	n/a	n/a	n/a	n/a	13	PAL1	0	R1238N
1545.111	8.368	1600780	MATH_START	n/a	-999	-999	n/a	n/a	n/a	n/a	13	PAL1	0	R1238N
1553.479	0.0	1609148	MATH_END	n/a	-999	-999	n/a	n/a	n/a	n/a	13	PAL1	0	R1238N
1553.479	0.017	1609148	RECALL_START	n/a	-999	-999	n/a	n/a	n/a	n/a	13	PAL1	0	R1238N
1553.496	0.267	1609165	TEST_ORIENT	n/a	1	1	LANZA	ABEJA	ABEJA	LANZA	13	PAL1	0	R1238N
1553.763	0.616	1609432	RETRIEVAL_ORIENT_OFF	n/a	-999	-999	n/a	n/a	n/a	n/a	13	PAL1	0	R1238N
1554.379	0.0	1610048	TEST_PROBE	n/a	1	1	LANZA	ABEJA	ABEJA	LANZA	13	PAL1	0	R1238N
1554.379	1.684	1610048	REC_START	n/a	1	-999	n/a	ABEJA	n/a	n/a	13	PAL1	0	R1238N
1556.063	2.333	1611732	REC_EVENT	1684	1	1	LANZA	ABEJA	ABEJA	LANZA	13	PAL1	0	R1238N
1558.396	1.011	1614065	PROBE_OFF	n/a	1	-999	n/a	n/a	n/a	n/a	13	PAL1	0	R1238N
1559.407	0.022	1615076	REC_END	n/a	1	-999	n/a	n/a	n/a	n/a	13	PAL1	0	R1238N
1559.429	0.251	1615098	TEST_ORIENT	n/a	2	2	ZOOLOGICO	n/a	BANCA	ZOOLOGICO	13	PAL1	0	R1238N
1559.68	0.683	1615349	RETRIEVAL_ORIENT_OFF	n/a	1	-999	n/a	n/a	n/a	n/a	13	PAL1	0	R1238N
1560.363	0.001	1616032	TEST_PROBE	n/a	2	2	ZOOLOGICO	n/a	BANCA	ZOOLOGICO	13	PAL1	0	R1238N
1560.364	4.016	1616033	REC_START	n/a	2	-999	n/a	n/a	n/a	n/a	13	PAL1	0	R1238N
1564.38	0.813	1620049	PROBE_OFF	n/a	2	-999	n/a	n/a	n/a	n/a	13	PAL1	0	R1238N
1565.193	0.187	1620862	REC_EVENT	4829	2	2	ZOOLOGICO	<>	BANCA	ZOOLOGICO	13	PAL1	0	R1238N
1565.38	0.017	1621049	REC_END	n/a	2	-999	n/a	n/a	n/a	n/a	13	PAL1	0	R1238N
1565.397	0.268	1621066	TEST_ORIENT	n/a	3	3	DEDO	DEDO	SOPA	DEDO	13	PAL1	0	R1238N
1565.665	0.599	1621334	RETRIEVAL_ORIENT_OFF	n/a	2	-999	n/a	n/a	n/a	n/a	13	PAL1	0	R1238N
1566.264	0.0	1621933	TEST_PROBE	n/a	3	3	DEDO	DEDO	SOPA	DEDO	13	PAL1	0	R1238N
1566.264	1.181	1621933	REC_START	n/a	3	-999	n/a	DEDO	n/a	n/a	13	PAL1	0	R1238N
1567.445	2.836	1623114	REC_EVENT	1181	3	3	DEDO	DEDO	SOPA	DEDO	13	PAL1	0	R1238N
1570.281	1.0	1625950	PROBE_OFF	n/a	3	-999	n/a	n/a	n/a	n/a	13	PAL1	0	R1238N
1571.281	0.005	1626950	REC_END	n/a	3	-999	n/a	n/a	n/a	n/a	13	PAL1	0	R1238N
1571.286	9.631	1626955	RECALL_END	n/a	-999	-999	n/a	n/a	n/a	n/a	13	PAL1	0	R1238N
1580.917	10.929	1636586	TRIAL	n/a	-999	-999	n/a	n/a	n/a	n/a	14	PAL1	0	R1238N
1591.846	0.006	1647514	ENCODING_START	n/a	-999	-999	n/a	n/a	n/a	n/a	14	PAL1	0	R1238N
1591.852	0.265	1647520	STUDY_ORIENT	n/a	1	3	JUGUETE	n/a	JUGUETE	HIERBA	14	PAL1	0	R1238N
1592.117	0.734	1647785	STUDY_ORIENT_OFF	n/a	1	3	JUGUETE	n/a	JUGUETE	HIERBA	14	PAL1	0	R1238N
1592.851	4.001	1648519	STUDY_PAIR	n/a	1	3	JUGUETE	n/a	JUGUETE	HIERBA	14	PAL1	0	R1238N
1596.852	1.017	1652520	PAIR_OFF	n/a	1	3	JUGUETE	n/a	JUGUETE	HIERBA	14	PAL1	0	R1238N
1597.869	0.266	1653537	STUDY_ORIENT	n/a	2	2	BARCO	n/a	BARCO	CARA	14	PAL1	0	R1238N
1598.135	0.517	1653803	STUDY_ORIENT_OFF	n/a	2	2	BARCO	n/a	BARCO	CARA	14	PAL1	0	R1238N
1598.652	4.018	1654320	STUDY_PAIR	n/a	2	2	BARCO	n/a	BARCO	CARA	14	PAL1	0	R1238N
1602.67	1.016	1658338	PAIR_OFF	n/a	2	2	BARCO	n/a	BARCO	CARA	14	PAL1	0	R1238N
1603.686	0.267	1659354	STUDY_ORIENT	n/a	3	1	PLAYA	JUGUETE	SOGA	PLAYA	14	PAL1	0	R1238N
1603.953	0.584	1659621	STUDY_ORIENT_OFF	n/a	3	1	PLAYA	JUGUETE	SOGA	PLAYA	14	PAL1	0	R1238N
1604.537	4.017	1660205	STUDY_PAIR	n/a	3	1	PLAYA	JUGUETE	SOGA	PLAYA	14	PAL1	0	R1238N
1608.554	1.001	1664222	PAIR_OFF	n/a	3	1	PLAYA	JUGUETE	SOGA	PLAYA	14	PAL1	0	R1238N
1609.555	0.0	1665223	ENCODING_END	n/a	-999	-999	n/a	n/a	n/a	n/a	14	PAL1	0	R1238N
1609.555	5.732	1665223	MATH_START	n/a	-999	-999	n/a	n/a	n/a	n/a	14	PAL1	0	R1238N
1615.287	0.0	1670955	MATH_END	n/a	-999	-999	n/a	n/a	n/a	n/a	14	PAL1	0	R1238N
1615.287	0.017	1670955	RECALL_START	n/a	-999	-999	n/a	n/a	n/a	n/a	14	PAL1	0	R1238N
1615.304	0.267	1670972	TEST_ORIENT	n/a	3	1	PLAYA	JUGUETE	SOGA	PLAYA	14	PAL1	0	R1238N
1615.571	0.583	1671239	RETRIEVAL_ORIENT_OFF	n/a	-999	-999	n/a	n/a	n/a	n/a	14	PAL1	0	R1238N
1616.154	0.0	1671822	TEST_PROBE	n/a	3	1	PLAYA	JUGUETE	SOGA	PLAYA	14	PAL1	0	R1238N
1616.154	3.073	1671822	REC_START	n/a	3	-999	n/a	JUGUETE	n/a	n/a	14	PAL1	0	R1238N
1619.227	0.944	1674895	REC_EVENT	3073	3	1	PLAYA	JUGUETE	SOGA	PLAYA	14	PAL1	0	R1238N
1620.171	0.423	1675839	PROBE_OFF	n/a	3	-999	n/a	n/a	n/a	n/a	14	PAL1	0	R1238N
1620.594	0.577	1676262	REC_EVENT	4440	3	1	PLAYA	<>	SOGA	PLAYA	14	PAL1	0	R1238N
1621.171	0.017	1676839	REC_END	n/a	3	-999	n/a	n/a	n/a	n/a	14	PAL1	0	R1238N
1621.188	0.267	1676856	TEST_ORIENT	n/a	2	2	BARCO	n/a	BARCO	CARA	14	PAL1	0	R1238N
1621.455	0.517	1677123	RETRIEVAL_ORIENT_OFF	n/a	3	-999	n/a	n/a	n/a	n/a	14	PAL1	0	R1238N
1621.972	0.001	1677640	TEST_PROBE	n/a	2	2	BARCO	n/a	BARCO	CARA	14	PAL1	0	R1238N
1621.973	2.6	1677641	REC_START	n/a	2	-999	n/a	n/a	n/a	n/a	14	PAL1	0	R1238N
1624.573	1.416	1680241	REC_EVENT	2600	2	2	BARCO	<>	BARCO	CARA	14	PAL1	0	R1238N
1625.989	1.0	1681657	PROBE_OFF	n/a	2	-999	n/a	n/a	n/a	n/a	14	PAL1	0	R1238N
1626.989	0.017	1682657	REC_END	n/a	2	-999	n/a	n/a	n/a	n/a	14	PAL1	0	R1238N
1627.006	0.266	1682674	TEST_ORIENT	n/a	1	3	JUGUETE	n/a	JUGUETE	HIERBA	14	PAL1	0	R1238N
1627.272	0.667	1682940	RETRIEVAL_ORIENT_OFF	n/a	2	-999	n/a	n/a	n/a	n/a	14	PAL1	0	R1238N
1627.939	0.001	1683607	TEST_PROBE	n/a	1	3	JUGUETE	n/a	JUGUETE	HIERBA	14	PAL1	0	R1238N
1627.94	4.017	1683608	REC_START	n/a	1	-999	n/a	n/a	n/a	n/a	14	PAL1	0	R1238N
1631.957	0.812	1687625	PROBE_OFF	n/a	1	-999	n/a	n/a	n/a	n/a	14	PAL1	0	R1238N
1632.769	0.188	1688437	REC_EVENT	4829	1	3	JUGUETE	<>	JUGUETE	HIERBA	14	PAL1	0	R1238N
1632.957	0.004	1688625	REC_END	n/a	1	-999	n/a	n/a	n/a	n/a	14	PAL1	0	R1238N
1632.961	7.096	1688629	RECALL_END	n/a	-999	-999	n/a	n/a	n/a	n/a	14	PAL1	0	R1238N
1640.057	10.929	1695724	TRIAL	n/a	-999	-999	n/a	n/a	n/a	n/a	15	PAL1	0	R1238N
1650.986	0.007	1706653	ENCODING_START	n/a	-999	-999	n/a	n/a	n/a	n/a	15	PAL1	0	R1238N
1650.993	0.266	1706660	STUDY_ORIENT	n/a	1	1	GUANTE	n/a	GUANTE	ESCUELA	15	PAL1	0	R1238N
1651.259	0.651	1706926	STUDY_ORIENT_OFF	n/a	1	1	GUANTE	n/a	GUANTE	ESCUELA	15	PAL1	0	R1238N
1651.91	4.017	1707577	STUDY_PAIR	n/a	1	1	GUANTE	n/a	GUANTE	ESCUELA	15	PAL1	0	R1238N
1655.927	1.017	1711594	PAIR_OFF	n/a	1	1	GUANTE	n/a	GUANTE	ESCUELA	15	PAL1	0	R1238N
1656.944	0.265	1712611	STUDY_ORIENT	n/a	2	2	LABERINTO	TAZON	ROSA	LABERINTO	15	PAL1	0	R1238N
1657.209	0.735	1712876	STUDY_ORIENT_OFF	n/a	2	2	LABERINTO	TAZON	ROSA	LABERINTO	15	PAL1	0	R1238N
1657.944	4.017	1713611	STUDY_PAIR	n/a	2	2	LABERINTO	TAZON	ROSA	LABERINTO	15	PAL1	0	R1238N
1661.961	1.017	1717628	PAIR_OFF	n/a	2	2	LABERINTO	TAZON	ROSA	LABERINTO	15	PAL1	0	R1238N
1662.978	0.265	1718645	STUDY_ORIENT	n/a	3	3	TAZON	LABERINTO	TAZON	PEZUNA	15	PAL1	0	R1238N
1663.243	0.635	1718910	STUDY_ORIENT_OFF	n/a	3	3	TAZON	LABERINTO	TAZON	PEZUNA	15	PAL1	0	R1238N
1663.878	4.017	1719545	STUDY_PAIR	n/a	3	3	TAZON	LABERINTO	TAZON	PEZUNA	15	PAL1	0	R1238N
1667.895	1.001	1723562	PAIR_OFF	n/a	3	3	TAZON	LABERINTO	TAZON	PEZUNA	15	PAL1	0	R1238N
1668.896	0.0	1724563	ENCODING_END	n/a	-999	-999	n/a	n/a	n/a	n/a	15	PAL1	0	R1238N
1668.896	11.017	1724563	MATH_START	n/a	-999	-999	n/a	n/a	n/a	n/a	15	PAL1	0	R1238N
1679.913	0.001	1735580	MATH_END	n/a	-999	-999	n/a	n/a	n/a	n/a	15	PAL1	0	R1238N
1679.914	0.016	1735581	RECALL_START	n/a	-999	-999	n/a	n/a	n/a	n/a	15	PAL1	0	R1238N
1679.93	0.266	1735597	TEST_ORIENT	n/a	1	1	GUANTE	n/a	GUANTE	ESCUELA	15	PAL1	0	R1238N
1680.196	0.534	1735863	RETRIEVAL_ORIENT_OFF	n/a	-999	-999	n/a	n/a	n/a	n/a	15	PAL1	0	R1238N
1680.73	0.001	1736397	TEST_PROBE	n/a	1	1	GUANTE	n/a	GUANTE	ESCUELA	15	PAL1	0	R1238N
1680.731	4.016	1736398	REC_START	n/a	1	-999	n/a	n/a	n/a	n/a	15	PAL1	0	R1238N
1684.747	0.86	1740414	PROBE_OFF	n/a	1	-999	n/a	n/a	n/a	n/a	15	PAL1	0	R1238N
1685.607	0.14	1741274	REC_EVENT	4876	1	1	GUANTE	<>	GUANTE	ESCUELA	15	PAL1	0	R1238N
1685.747	0.017	1741414	REC_END	n/a	1	-999	n/a	n/a	n/a	n/a	15	PAL1	0	R1238N
1685.764	0.267	1741431	TEST_ORIENT	n/a	2	2	LABERINTO	TAZON	ROSA	LABERINTO	15	PAL1	0	R1238N
1686.031	0.533	1741698	RETRIEVAL_ORIENT_OFF	n/a	1	-999	n/a	n/a	n/a	n/a	15	PAL1	0	R1238N
1686.564	0.001	1742231	TEST_PROBE	n/a	2	2	LABERINTO	TAZON	ROSA	LABERINTO	15	PAL1	0	R1238N
1686.565	1.941	1742232	REC_START	n/a	2	-999	n/a	TAZON	n/a	n/a	15	PAL1	0	R1238N
1688.506	2.075	1744172	REC_EVENT	1941	2	2	LABERINTO	TAZON	ROSA	LABERINTO	15	PAL1	0	R1238N
1690.581	1.0	1746247	PROBE_OFF	n/a	2	-999	n/a	n/a	n/a	n/a	15	PAL1	0	R1238N
1691.581	0.017	1747247	REC_END	n/a	2	-999	n/a	n/a	n/a	n/a	15	PAL1	0	R1238N
1691.598	0.267	1747264	TEST_ORIENT	n/a	3	3	TAZON	LABERINTO	TAZON	PEZUNA	15	PAL1	0	R1238N
1691.865	0.667	1747531	RETRIEVAL_ORIENT_OFF	n/a	2	-999	n/a	n/a	n/a	n/a	15	PAL1	0	R1238N
1692.532	0.0	1748198	TEST_PROBE	n/a	3	3	TAZON	LABERINTO	TAZON	PEZUNA	15	PAL1	0	R1238N
1692.532	1.468	1748198	REC_START	n/a	3	-999	n/a	LABERINTO	n/a	n/a	15	PAL1	0	R1238N
1694.0	2.549	1749666	REC_EVENT	1468	3	3	TAZON	LABERINTO	TAZON	PEZUNA	15	PAL1	0	R1238N
1696.549	1.011	1752215	PROBE_OFF	n/a	3	-999	n/a	n/a	n/a	n/a	15	PAL1	0	R1238N
1697.56	0.003	1753226	REC_END	n/a	3	-999	n/a	n/a	n/a	n/a	15	PAL1	0	R1238N
1697.563	10.238	1753229	RECALL_END	n/a	-999	-999	n/a	n/a	n/a	n/a	15	PAL1	0	R1238N
1707.801	10.928	1763467	TRIAL	n/a	-999	-999	n/a	n/a	n/a	n/a	16	PAL1	0	R1238N
1718.729	0.006	1774395	ENCODING_START	n/a	-999	-999	n/a	n/a	n/a	n/a	16	PAL1	0	R1238N
1718.735	0.267	1774401	STUDY_ORIENT	n/a	1	3	TRAPO	MASCOTA	RANA	TRAPO	16	PAL1	0	R1238N
1719.002	0.517	1774668	STUDY_ORIENT_OFF	n/a	1	3	TRAPO	MASCOTA	RANA	TRAPO	16	PAL1	0	R1238N
1719.519	4.017	1775185	STUDY_PAIR	n/a	1	3	TRAPO	MASCOTA	RANA	TRAPO	16	PAL1	0	R1238N
1723.536	1.017	1779202	PAIR_OFF	n/a	1	3	TRAPO	MASCOTA	RANA	TRAPO	16	PAL1	0	R1238N
1724.553	0.266	1780219	STUDY_ORIENT	n/a	2	2	TINTA	n/a	TARRO	TINTA	16	PAL1	0	R1238N
1724.819	0.751	1780485	STUDY_ORIENT_OFF	n/a	2	2	TINTA	n/a	TARRO	TINTA	16	PAL1	0	R1238N
1725.57	4.017	1781236	STUDY_PAIR	n/a	2	2	TINTA	n/a	TARRO	TINTA	16	PAL1	0	R1238N
1729.587	1.017	1785253	PAIR_OFF	n/a	2	2	TINTA	n/a	TARRO	TINTA	16	PAL1	0	R1238N
1730.604	0.266	1786270	STUDY_ORIENT	n/a	3	1	MASCOTA	TARRO	ALA	MASCOTA	16	PAL1	0	R1238N
1730.87	0.616	1786536	STUDY_ORIENT_OFF	n/a	3	1	MASCOTA	TARRO	ALA	MASCOTA	16	PAL1	0	R1238N
1731.486	4.018	1787152	STUDY_PAIR	n/a	3	1	MASCOTA	TARRO	ALA	MASCOTA	16	PAL1	0	R1238N
1735.504	1.001	1791170	PAIR_OFF	n/a	3	1	MASCOTA	TARRO	ALA	MASCOTA	16	PAL1	0	R1238N
1736.505	0.0	1792171	ENCODING_END	n/a	-999	-999	n/a	n/a	n/a	n/a	16	PAL1	0	R1238N
1736.505	6.599	1792171	MATH_START	n/a	-999	-999	n/a	n/a	n/a	n/a	16	PAL1	0	R1238N
1743.104	0.0	1798769	MATH_END	n/a	-999	-999	n/a	n/a	n/a	n/a	16	PAL1	0	R1238N
1743.104	0.017	1798769	RECALL_START	n/a	-999	-999	n/a	n/a	n/a	n/a	16	PAL1	0	R1238N
1743.121	0.267	1798786	TEST_ORIENT	n/a	3	1	MASCOTA	TARRO	ALA	MASCOTA	16	PAL1	0	R1238N
1743.388	0.733	1799053	RETRIEVAL_ORIENT_OFF	n/a	-999	-999	n/a	n/a	n/a	n/a	16	PAL1	0	R1238N
1744.121	0.001	1799786	TEST_PROBE	n/a	3	1	MASCOTA	TARRO	ALA	MASCOTA	16	PAL1	0	R1238N
1744.122	2.475	1799787	REC_START	n/a	3	-999	n/a	TARRO	n/a	n/a	16	PAL1	0	R1238N
1746.597	1.541	1802262	REC_EVENT	2475	3	1	MASCOTA	TARRO	ALA	MASCOTA	16	PAL1	0	R1238N
1748.138	1.0	1803803	PROBE_OFF	n/a	3	-999	n/a	n/a	n/a	n/a	16	PAL1	0	R1238N
1749.138	0.017	1804803	REC_END	n/a	3	-999	n/a	n/a	n/a	n/a	16	PAL1	0	R1238N
1749.155	0.267	1804820	TEST_ORIENT	n/a	2	2	TINTA	n/a	TARRO	TINTA	16	PAL1	0	R1238N
1749.422	0.584	1805087	RETRIEVAL_ORIENT_OFF	n/a	3	-999	n/a	n/a	n/a	n/a	16	PAL1	0	R1238N
1750.006	0.001	1805671	TEST_PROBE	n/a	2	2	TINTA	n/a	TARRO	TINTA	16	PAL1	0	R1238N
1750.007	4.017	1805672	REC_START	n/a	2	-999	n/a	n/a	n/a	n/a	16	PAL1	0	R1238N
1754.024	0.998	1809689	PROBE_OFF	n/a	2	-999	n/a	n/a	n/a	n/a	16	PAL1	0	R1238N
1755.022	0.013	1810687	REC_EVENT	5015	2	2	TINTA	<>	TARRO	TINTA	16	PAL1	0	R1238N
1755.035	0.021	1810700	REC_END	n/a	2	-999	n/a	n/a	n/a	n/a	16	PAL1	0	R1238N
1755.056	0.267	1810721	TEST_ORIENT	n/a	1	3	TRAPO	MASCOTA	RANA	TRAPO	16	PAL1	0	R1238N
1755.323	0.717	1810988	RETRIEVAL_ORIENT_OFF	n/a	2	-999	n/a	n/a	n/a	n/a	16	PAL1	0	R1238N
1756.04	0.001	1811705	TEST_PROBE	n/a	1	3	TRAPO	MASCOTA	RANA	TRAPO	16	PAL1	0	R1238N
1756.041	2.423	1811706	REC_START	n/a	1	-999	n/a	MASCOTA	n/a	n/a	16	PAL1	0	R1238N
1758.464	1.593	1814129	REC_EVENT	2423	1	3	TRAPO	MASCOTA	RANA	TRAPO	16	PAL1	0	R1238N
1760.057	1.011	1815722	PROBE_OFF	n/a	1	-999	n/a	n/a	n/a	n/a	16	PAL1	0	R1238N
1761.068	0.003	1816733	REC_END	n/a	1	-999	n/a	n/a	n/a	n/a	16	PAL1	0	R1238N
1761.071	8.187	1816736	RECALL_END	n/a	-999	-999	n/a	n/a	n/a	n/a	16	PAL1	0	R1238N
1769.258	10.928	1824923	TRIAL	n/a	-999	-999	n/a	n/a	n/a	n/a	17	PAL1	0	R1238N
1780.186	0.007	1835851	ENCODING_START	n/a	-999	-999	n/a	n/a	n/a	n/a	17	PAL1	0	R1238N
1780.193	0.266	1835858	STUDY_ORIENT	n/a	1	3	COSTILLA	n/a	TELARANA	COSTILLA	17	PAL1	0	R1238N
1780.459	0.617	1836124	STUDY_ORIENT_OFF	n/a	1	3	COSTILLA	n/a	TELARANA	COSTILLA	17	PAL1	0	R1238N
1781.076	4.017	1836741	STUDY_PAIR	n/a	1	3	COSTILLA	n/a	TELARANA	COSTILLA	17	PAL1	0	R1238N
1785.093	1.017	1840758	PAIR_OFF	n/a	1	3	COSTILLA	n/a	TELARANA	COSTILLA	17	PAL1	0	R1238N
1786.11	0.267	1841775	STUDY_ORIENT	n/a	2	2	PARED	LABERINTO	CALLE	PARED	17	PAL1	0	R1238N
1786.377	0.617	1842041	STUDY_ORIENT_OFF	n/a	2	2	PARED	LABERINTO	CALLE	PARED	17	PAL1	0	R1238N
1786.994	4.001	1842658	STUDY_PAIR	n/a	2	2	PARED	LABERINTO	CALLE	PARED	17	PAL1	0	R1238N
1790.995	1.017	1846659	PAIR_OFF	n/a	2	2	PARED	LABERINTO	CALLE	PARED	17	PAL1	0	R1238N
1792.012	0.266	1847676	STUDY_ORIENT	n/a	3	1	ESTERA	CUCHARA	ESTERA	CUCHARA	17	PAL1	0	R1238N
1792.278	0.717	1847942	STUDY_ORIENT_OFF	n/a	3	1	ESTERA	CUCHARA	ESTERA	CUCHARA	17	PAL1	0	R1238N
1792.995	4.018	1848659	STUDY_PAIR	n/a	3	1	ESTERA	CUCHARA	ESTERA	CUCHARA	17	PAL1	0	R1238N
1797.013	1.007	1852677	PAIR_OFF	n/a	3	1	ESTERA	CUCHARA	ESTERA	CUCHARA	17	PAL1	0	R1238N
1798.02	0.0	1853684	ENCODING_END	n/a	-999	-999	n/a	n/a	n/a	n/a	17	PAL1	0	R1238N
1798.02	5.777	1853684	MATH_START	n/a	-999	-999	n/a	n/a	n/a	n/a	17	PAL1	0	R1238N
1803.797	0.0	1859461	MATH_END	n/a	-999	-999	n/a	n/a	n/a	n/a	17	PAL1	0	R1238N
1803.797	0.017	1859461	RECALL_START	n/a	-999	-999	n/a	n/a	n/a	n/a	17	PAL1	0	R1238N
1803.814	0.265	1859478	TEST_ORIENT	n/a	3	1	ESTERA	CUCHARA	ESTERA	CUCHARA	17	PAL1	0	R1238N
1804.079	0.685	1859743	RETRIEVAL_ORIENT_OFF	n/a	-999	-999	n/a	n/a	n/a	n/a	17	PAL1	0	R1238N
1804.764	0.0	1860428	TEST_PROBE	n/a	3	1	ESTERA	CUCHARA	ESTERA	CUCHARA	17	PAL1	0	R1238N
1804.764	1.069	1860428	REC_START	n/a	3	-999	n/a	CUCHARA	n/a	n/a	17	PAL1	0	R1238N
1805.833	1.233	1861497	REC_EVENT	1069	3	1	ESTERA	ESTERA	ESTERA	CUCHARA	17	PAL1	0	R1238N
1807.066	1.715	1862730	REC_EVENT	2302	3	1	ESTERA	CUCHARA	ESTERA	CUCHARA	17	PAL1	0	R1238N
1808.781	1.0	1864445	PROBE_OFF	n/a	3	-999	n/a	n/a	n/a	n/a	17	PAL1	0	R1238N
1809.781	0.017	1865445	REC_END	n/a	3	-999	n/a	n/a	n/a	n/a	17	PAL1	0	R1238N
1809.798	0.265	1865462	TEST_ORIENT	n/a	2	2	PARED	LABERINTO	CALLE	PARED	17	PAL1	0	R1238N
1810.063	0.535	1865727	RETRIEVAL_ORIENT_OFF	n/a	3	-999	n/a	n/a	n/a	n/a	17	PAL1	0	R1238N
1810.598	0.001	1866262	TEST_PROBE	n/a	2	2	PARED	LABERINTO	CALLE	PARED	17	PAL1	0	R1238N
1810.599	0.95	1866263	REC_START	n/a	2	-999	n/a	LABERINTO	n/a	n/a	17	PAL1	0	R1238N
1811.549	0.588	1867213	REC_EVENT	950	2	2	PARED	PARED	CALLE	PARED	17	PAL1	0	R1238N
1812.137	2.478	1867801	REC_EVENT	1538	2	2	PARED	LABERINTO	CALLE	PARED	17	PAL1	0	R1238N
1814.615	1.0	1870279	PROBE_OFF	n/a	2	-999	n/a	n/a	n/a	n/a	17	PAL1	0	R1238N
1815.615	0.017	1871279	REC_END	n/a	2	-999	n/a	n/a	n/a	n/a	17	PAL1	0	R1238N
1815.632	0.266	1871296	TEST_ORIENT	n/a	1	3	COSTILLA	n/a	TELARANA	COSTILLA	17	PAL1	0	R1238N
1815.898	0.533	1871562	RETRIEVAL_ORIENT_OFF	n/a	2	-999	n/a	n/a	n/a	n/a	17	PAL1	0	R1238N
1816.431	0.0	1872095	TEST_PROBE	n/a	1	3	COSTILLA	n/a	TELARANA	COSTILLA	17	PAL1	0	R1238N
1816.431	4.017	1872095	REC_START	n/a	1	-999	n/a	n/a	n/a	n/a	17	PAL1	0	R1238N
1820.448	0.859	1876112	PROBE_OFF	n/a	1	-999	n/a	n/a	n/a	n/a	17	PAL1	0	R1238N
1821.307	0.141	1876971	REC_EVENT	4876	1	3	COSTILLA	<>	TELARANA	COSTILLA	17	PAL1	0	R1238N
1821.448	0.004	1877112	REC_END	n/a	1	-999	n/a	n/a	n/a	n/a	17	PAL1	0	R1238N
1821.452	6.548	1877116	RECALL_END	n/a	-999	-999	n/a	n/a	n/a	n/a	17	PAL1	0	R1238N
1828.0	10.929	1883664	TRIAL	n/a	-999	-999	n/a	n/a	n/a	n/a	18	PAL1	0	R1238N
1838.929	0.006	1894592	ENCODING_START	n/a	-999	-999	n/a	n/a	n/a	n/a	18	PAL1	0	R1238N
1838.935	0.266	1894598	STUDY_ORIENT	n/a	1	3	MUNECO	LABERINTO	MAIZ	MUNECO	18	PAL1	0	R1238N
1839.201	0.634	1894864	STUDY_ORIENT_OFF	n/a	1	3	MUNECO	LABERINTO	MAIZ	MUNECO	18	PAL1	0	R1238N
1839.835	4.017	1895498	STUDY_PAIR	n/a	1	3	MUNECO	LABERINTO	MAIZ	MUNECO	18	PAL1	0	R1238N
1843.852	1.017	1899515	PAIR_OFF	n/a	1	3	MUNECO	LABERINTO	MAIZ	MUNECO	18	PAL1	0	R1238N
1844.869	0.266	1900532	STUDY_ORIENT	n/a	2	2	FICHA	CUCHARA	BRAZO	FICHA	18	PAL1	0	R1238N
1845.135	0.617	1900798	STUDY_ORIENT_OFF	n/a	2	2	FICHA	CUCHARA	BRAZO	FICHA	18	PAL1	0	R1238N
1845.752	4.018	1901415	STUDY_PAIR	n/a	2	2	FICHA	CUCHARA	BRAZO	FICHA	18	PAL1	0	R1238N
1849.77	1.017	1905433	PAIR_OFF	n/a	2	2	FICHA	CUCHARA	BRAZO	FICHA	18	PAL1	0	R1238N
1850.787	0.265	1906450	STUDY_ORIENT	n/a	3	1	GUARDIA	GUARDIA	GUARDIA	GRUA	18	PAL1	0	R1238N
1851.052	0.618	1906715	STUDY_ORIENT_OFF	n/a	3	1	GUARDIA	GUARDIA	GUARDIA	GRUA	18	PAL1	0	R1238N
1851.67	4.017	1907333	STUDY_PAIR	n/a	3	1	GUARDIA	GUARDIA	GUARDIA	GRUA	18	PAL1	0	R1238N
1855.687	1.001	1911350	PAIR_OFF	n/a	3	1	GUARDIA	GUARDIA	GUARDIA	GRUA	18	PAL1	0	R1238N
1856.688	0.0	1912351	ENCODING_END	n/a	-999	-999	n/a	n/a	n/a	n/a	18	PAL1	0	R1238N
1856.688	6.184	1912351	MATH_START	n/a	-999	-999	n/a	n/a	n/a	n/a	18	PAL1	0	R1238N
1862.872	0.0	1918535	MATH_END	n/a	-999	-999	n/a	n/a	n/a	n/a	18	PAL1	0	R1238N
1862.872	0.016	1918535	RECALL_START	n/a	-999	-999	n/a	n/a	n/a	n/a	18	PAL1	0	R1238N
1862.888	0.266	1918551	TEST_ORIENT	n/a	3	1	GUARDIA	GUARDIA	GUARDIA	GRUA	18	PAL1	0	R1238N
1863.154	0.768	1918817	RETRIEVAL_ORIENT_OFF	n/a	-999	-999	n/a	n/a	n/a	n/a	18	PAL1	0	R1238N
1863.922	0.0	1919585	REC_START	n/a	3	-999	n/a	GUARDIA	n/a	n/a	18	PAL1	0	R1238N
1863.922	1.173	1919585	TEST_PROBE	n/a	3	1	GUARDIA	GUARDIA	GUARDIA	GRUA	18	PAL1	0	R1238N
1865.095	1.669	1920758	REC_EVENT	1173	3	1	GUARDIA	GUARDIA	GUARDIA	GRUA	18	PAL1	0	R1238N
1866.764	1.175	1922427	REC_EVENT	2842	3	1	GUARDIA	<>	GUARDIA	GRUA	18	PAL1	0	R1238N
1867.939	1.0	1923602	PROBE_OFF	n/a	3	-999	n/a	n/a	n/a	n/a	18	PAL1	0	R1238N
1868.939	0.017	1924602	REC_END	n/a	3	-999	n/a	n/a	n/a	n/a	18	PAL1	0	R1238N
1868.956	0.265	1924619	TEST_ORIENT	n/a	2	2	FICHA	CUCHARA	BRAZO	FICHA	18	PAL1	0	R1238N
1869.221	0.568	1924884	RETRIEVAL_ORIENT_OFF	n/a	3	-999	n/a	n/a	n/a	n/a	18	PAL1	0	R1238N
1869.789	0.001	1925452	TEST_PROBE	n/a	2	2	FICHA	CUCHARA	BRAZO	FICHA	18	PAL1	0	R1238N
1869.79	0.965	1925453	REC_START	n/a	2	-999	n/a	CUCHARA	n/a	n/a	18	PAL1	0	R1238N
1870.755	0.741	1926418	REC_EVENT	965	2	2	FICHA	FICHA	BRAZO	FICHA	18	PAL1	0	R1238N
1871.496	2.31	1927159	REC_EVENT	1706	2	2	FICHA	CUCHARA	BRAZO	FICHA	18	PAL1	0	R1238N
1873.806	1.0	1929469	PROBE_OFF	n/a	2	-999	n/a	n/a	n/a	n/a	18	PAL1	0	R1238N
1874.806	0.017	1930469	REC_END	n/a	2	-999	n/a	n/a	n/a	n/a	18	PAL1	0	R1238N
1874.823	0.266	1930486	TEST_ORIENT	n/a	1	3	MUNECO	LABERINTO	MAIZ	MUNECO	18	PAL1	0	R1238N
1875.089	0.734	1930752	RETRIEVAL_ORIENT_OFF	n/a	2	-999	n/a	n/a	n/a	n/a	18	PAL1	0	R1238N
1875.823	0.001	1931486	TEST_PROBE	n/a	1	3	MUNECO	LABERINTO	MAIZ	MUNECO	18	PAL1	0	R1238N
1875.824	1.479	1931487	REC_START	n/a	1	-999	n/a	LABERINTO	n/a	n/a	18	PAL1	0	R1238N
1877.303	0.925	1932966	REC_EVENT	1479	1	3	MUNECO	MUNECO	MAIZ	MUNECO	18	PAL1	0	R1238N
1878.228	1.613	1933891	REC_EVENT	2404	1	3	MUNECO	LABERINTO	MAIZ	MUNECO	18	PAL1	0	R1238N
1879.841	1.011	1935504	PROBE_OFF	n/a	1	-999	n/a	n/a	n/a	n/a	18	PAL1	0	R1238N
1880.852	0.003	1936515	REC_END	n/a	1	-999	n/a	n/a	n/a	n/a	18	PAL1	0	R1238N
1880.855	6.17	1936518	RECALL_END	n/a	-999	-999	n/a	n/a	n/a	n/a	18	PAL1	0	R1238N
1887.025	10.929	1942687	TRIAL	n/a	-999	-999	n/a	n/a	n/a	n/a	19	PAL1	0	R1238N
1897.954	0.006	1953616	ENCODING_START	n/a	-999	-999	n/a	n/a	n/a	n/a	19	PAL1	0	R1238N
1897.96	0.265	1953622	STUDY_ORIENT	n/a	1	1	MUELLE	MUELLE	MENTON	MUELLE	19	PAL1	0	R1238N
1898.225	0.601	1953887	STUDY_ORIENT_OFF	n/a	1	1	MUELLE	MUELLE	MENTON	MUELLE	19	PAL1	0	R1238N
1898.826	4.001	1954488	STUDY_PAIR	n/a	1	1	MUELLE	MUELLE	MENTON	MUELLE	19	PAL1	0	R1238N
1902.827	1.017	1958489	PAIR_OFF	n/a	1	1	MUELLE	MUELLE	MENTON	MUELLE	19	PAL1	0	R1238N
1903.844	0.265	1959506	STUDY_ORIENT	n/a	2	2	PISCINA	PAYASO	PISCINA	PAYASO	19	PAL1	0	R1238N
1904.109	0.585	1959771	STUDY_ORIENT_OFF	n/a	2	2	PISCINA	PAYASO	PISCINA	PAYASO	19	PAL1	0	R1238N
1904.694	4.017	1960356	STUDY_PAIR	n/a	2	2	PISCINA	PAYASO	PISCINA	PAYASO	19	PAL1	0	R1238N
1908.711	1.017	1964373	PAIR_OFF	n/a	2	2	PISCINA	PAYASO	PISCINA	PAYASO	19	PAL1	0	R1238N
1909.728	0.267	1965390	STUDY_ORIENT	n/a	3	3	TANQUE	TANQUE	TANQUE	BANO	19	PAL1	0	R1238N
1909.995	0.65	1965657	STUDY_ORIENT_OFF	n/a	3	3	TANQUE	TANQUE	TANQUE	BANO	19	PAL1	0	R1238N
1910.645	4.017	1966307	STUDY_PAIR	n/a	3	3	TANQUE	TANQUE	TANQUE	BANO	19	PAL1	0	R1238N
1914.662	1.0	1970324	PAIR_OFF	n/a	3	3	TANQUE	TANQUE	TANQUE	BANO	19	PAL1	0	R1238N
1915.662	0.0	1971324	ENCODING_END	n/a	-999	-999	n/a	n/a	n/a	n/a	19	PAL1	0	R1238N
1915.662	7.951	1971324	MATH_START	n/a	-999	-999	n/a	n/a	n/a	n/a	19	PAL1	0	R1238N
1923.613	0.0	1979275	MATH_END	n/a	-999	-999	n/a	n/a	n/a	n/a	19	PAL1	0	R1238N
1923.613	0.017	1979275	RECALL_START	n/a	-999	-999	n/a	n/a	n/a	n/a	19	PAL1	0	R1238N
1923.63	0.266	1979292	TEST_ORIENT	n/a	1	1	MUELLE	MUELLE	MENTON	MUELLE	19	PAL1	0	R1238N
1923.896	0.583	1979558	RETRIEVAL_ORIENT_OFF	n/a	-999	-999	n/a	n/a	n/a	n/a	19	PAL1	0	R1238N
1924.479	0.0	1980141	TEST_PROBE	n/a	1	1	MUELLE	MUELLE	MENTON	MUELLE	19	PAL1	0	R1238N
1924.479	1.44	1980141	REC_START	n/a	1	-999	n/a	MUELLE	n/a	n/a	19	PAL1	0	R1238N
1925.919	2.578	1981581	REC_EVENT	1440	1	1	MUELLE	MUELLE	MENTON	MUELLE	19	PAL1	0	R1238N
1928.497	1.0	1984159	PROBE_OFF	n/a	1	-999	n/a	n/a	n/a	n/a	19	PAL1	0	R1238N
1929.497	0.017	1985159	REC_END	n/a	1	-999	n/a	n/a	n/a	n/a	19	PAL1	0	R1238N
1929.514	0.267	1985176	TEST_ORIENT	n/a	2	2	PISCINA	PAYASO	PISCINA	PAYASO	19	PAL1	0	R1238N
1929.781	0.75	1985443	RETRIEVAL_ORIENT_OFF	n/a	1	-999	n/a	n/a	n/a	n/a	19	PAL1	0	R1238N
1930.531	0.001	1986193	TEST_PROBE	n/a	2	2	PISCINA	PAYASO	PISCINA	PAYASO	19	PAL1	0	R1238N
1930.532	1.039	1986194	REC_START	n/a	2	-999	n/a	PAYASO	n/a	n/a	19	PAL1	0	R1238N
1931.571	1.089	1987233	REC_EVENT	1039	2	2	PISCINA	PISCINA	PISCINA	PAYASO	19	PAL1	0	R1238N
1932.66	1.888	1988322	REC_EVENT	2128	2	2	PISCINA	PAYASO	PISCINA	PAYASO	19	PAL1	0	R1238N
1934.548	1.0	1990209	PROBE_OFF	n/a	2	-999	n/a	n/a	n/a	n/a	19	PAL1	0	R1238N
1935.548	0.017	1991209	REC_END	n/a	2	-999	n/a	n/a	n/a	n/a	19	PAL1	0	R1238N
1935.565	0.266	1991226	TEST_ORIENT	n/a	3	3	TANQUE	TANQUE	TANQUE	BANO	19	PAL1	0	R1238N
1935.831	0.751	1991492	RETRIEVAL_ORIENT_OFF	n/a	2	-999	n/a	n/a	n/a	n/a	19	PAL1	0	R1238N
1936.582	0.0	1992243	TEST_PROBE	n/a	3	3	TANQUE	TANQUE	TANQUE	BANO	19	PAL1	0	R1238N
1936.582	1.34	1992243	REC_START	n/a	3	-999	n/a	TANQUE	n/a	n/a	19	PAL1	0	R1238N
1937.922	2.677	1993583	REC_EVENT	1340	3	3	TANQUE	TANQUE	TANQUE	BANO	19	PAL1	0	R1238N
1940.599	1.001	1996260	PROBE_OFF	n/a	3	-999	n/a	n/a	n/a	n/a	19	PAL1	0	R1238N
1941.6	0.004	1997261	REC_END	n/a	3	-999	n/a	n/a	n/a	n/a	19	PAL1	0	R1238N
1941.604	129.412	1997265	RECALL_END	n/a	-999	-999	n/a	n/a	n/a	n/a	19	PAL1	0	R1238N
2071.016	10.929	2126675	TRIAL	n/a	-999	-999	n/a	n/a	n/a	n/a	20	PAL1	0	R1238N
2081.945	0.006	2137603	ENCODING_START	n/a	-999	-999	n/a	n/a	n/a	n/a	20	PAL1	0	R1238N
2081.951	0.266	2137609	STUDY_ORIENT	n/a	1	3	PAN	HUEVO	PAN	JEFE	20	PAL1	0	R1238N
2082.217	0.551	2137875	STUDY_ORIENT_OFF	n/a	1	3	PAN	HUEVO	PAN	JEFE	20	PAL1	0	R1238N
2082.768	4.017	2138426	STUDY_PAIR	n/a	1	3	PAN	HUEVO	PAN	JEFE	20	PAL1	0	R1238N
2086.785	1.017	2142443	PAIR_OFF	n/a	1	3	PAN	HUEVO	PAN	JEFE	20	PAL1	0	R1238N
2087.802	0.266	2143460	STUDY_ORIENT	n/a	2	2	HUEVO	JEFE	HUEVO	POLILLA	20	PAL1	0	R1238N
2088.068	0.667	2143726	STUDY_ORIENT_OFF	n/a	2	2	HUEVO	JEFE	HUEVO	POLILLA	20	PAL1	0	R1238N
2088.735	4.018	2144393	STUDY_PAIR	n/a	2	2	HUEVO	JEFE	HUEVO	POLILLA	20	PAL1	0	R1238N
2092.753	1.016	2148411	PAIR_OFF	n/a	2	2	HUEVO	JEFE	HUEVO	POLILLA	20	PAL1	0	R1238N
2093.769	0.267	2149427	STUDY_ORIENT	n/a	3	1	MEJILLA	POLILLA	MEJILLA	BOMBA	20	PAL1	0	R1238N
2094.036	0.55	2149694	STUDY_ORIENT_OFF	n/a	3	1	MEJILLA	POLILLA	MEJILLA	BOMBA	20	PAL1	0	R1238N
2094.586	4.017	2150244	STUDY_PAIR	n/a	3	1	MEJILLA	POLILLA	MEJILLA	BOMBA	20	PAL1	0	R1238N
2098.603	1.0	2154261	PAIR_OFF	n/a	3	1	MEJILLA	POLILLA	MEJILLA	BOMBA	20	PAL1	0	R1238N
2099.603	0.0	2155261	ENCODING_END	n/a	-999	-999	n/a	n/a	n/a	n/a	20	PAL1	0	R1238N
2099.603	8.817	2155261	MATH_START	n/a	-999	-999	n/a	n/a	n/a	n/a	20	PAL1	0	R1238N
2108.42	0.001	2164078	MATH_END	n/a	-999	-999	n/a	n/a	n/a	n/a	20	PAL1	0	R1238N
2108.421	0.016	2164079	RECALL_START	n/a	-999	-999	n/a	n/a	n/a	n/a	20	PAL1	0	R1238N
2108.437	0.268	2164095	TEST_ORIENT	n/a	3	1	MEJILLA	POLILLA	MEJILLA	BOMBA	20	PAL1	0	R1238N
2108.705	0.716	2164363	RETRIEVAL_ORIENT_OFF	n/a	-999	-999	n/a	n/a	n/a	n/a	20	PAL1	0	R1238N
2109.421	0.0	2165079	TEST_PROBE	n/a	3	1	MEJILLA	POLILLA	MEJILLA	BOMBA	20	PAL1	0	R1238N
2109.421	1.229	2165079	REC_START	n/a	3	-999	n/a	POLILLA	n/a	n/a	20	PAL1	0	R1238N
2110.65	2.788	2166308	REC_EVENT	1229	3	1	MEJILLA	MEJILLA	MEJILLA	BOMBA	20	PAL1	0	R1238N
2113.438	0.222	2169096	PROBE_OFF	n/a	3	-999	n/a	n/a	n/a	n/a	20	PAL1	0	R1238N
2113.66	0.778	2169318	REC_EVENT	4239	3	1	MEJILLA	POLILLA	MEJILLA	BOMBA	20	PAL1	0	R1238N
2114.438	0.017	2170096	REC_END	n/a	3	-999	n/a	n/a	n/a	n/a	20	PAL1	0	R1238N
2114.455	0.267	2170113	TEST_ORIENT	n/a	2	2	HUEVO	JEFE	HUEVO	POLILLA	20	PAL1	0	R1238N
2114.722	0.749	2170380	RETRIEVAL_ORIENT_OFF	n/a	3	-999	n/a	n/a	n/a	n/a	20	PAL1	0	R1238N
2115.471	0.001	2171129	TEST_PROBE	n/a	2	2	HUEVO	JEFE	HUEVO	POLILLA	20	PAL1	0	R1238N
2115.472	0.931	2171130	REC_START	n/a	2	-999	n/a	JEFE	n/a	n/a	20	PAL1	0	R1238N
2116.403	0.881	2172061	REC_EVENT	931	2	2	HUEVO	HUEVO	HUEVO	POLILLA	20	PAL1	0	R1238N
2117.284	2.205	2172942	REC_EVENT	1812	2	2	HUEVO	JEFE	HUEVO	POLILLA	20	PAL1	0	R1238N
2119.489	1.0	2175147	PROBE_OFF	n/a	2	-999	n/a	n/a	n/a	n/a	20	PAL1	0	R1238N
2120.489	0.017	2176147	REC_END	n/a	2	-999	n/a	n/a	n/a	n/a	20	PAL1	0	R1238N
2120.506	0.267	2176164	TEST_ORIENT	n/a	1	3	PAN	HUEVO	PAN	JEFE	20	PAL1	0	R1238N
2120.773	0.583	2176431	RETRIEVAL_ORIENT_OFF	n/a	2	-999	n/a	n/a	n/a	n/a	20	PAL1	0	R1238N
2121.356	0.0	2177014	REC_START	n/a	1	-999	n/a	HUEVO	n/a	n/a	20	PAL1	0	R1238N
2121.356	2.462	2177014	TEST_PROBE	n/a	1	3	PAN	HUEVO	PAN	JEFE	20	PAL1	0	R1238N
2123.818	1.555	2179476	REC_EVENT	2462	1	3	PAN	PAN	PAN	JEFE	20	PAL1	0	R1238N
2125.373	0.36	2181031	PROBE_OFF	n/a	1	-999	n/a	n/a	n/a	n/a	20	PAL1	0	R1238N
2125.733	0.64	2181391	REC_EVENT	4377	1	3	PAN	HUEVO	PAN	JEFE	20	PAL1	0	R1238N
2126.373	0.01	2182031	REC_END	n/a	1	-999	n/a	n/a	n/a	n/a	20	PAL1	0	R1238N
2126.383	285.945	2182041	RECALL_END	n/a	-999	-999	n/a	n/a	n/a	n/a	20	PAL1	0	R1238N
2412.328	10.929	2467980	TRIAL	n/a	-999	-999	n/a	n/a	n/a	n/a	21	PAL1	0	R1238N
2423.257	0.006	2478908	ENCODING_START	n/a	-999	-999	n/a	n/a	n/a	n/a	21	PAL1	0	R1238N
2423.263	0.251	2478914	STUDY_ORIENT	n/a	1	3	CORAZON	n/a	PELAJE	CORAZON	21	PAL1	0	R1238N
2423.514	0.599	2479165	STUDY_ORIENT_OFF	n/a	1	3	CORAZON	n/a	PELAJE	CORAZON	21	PAL1	0	R1238N
2424.113	4.017	2479764	STUDY_PAIR	n/a	1	3	CORAZON	n/a	PELAJE	CORAZON	21	PAL1	0	R1238N
2428.13	1.017	2483781	PAIR_OFF	n/a	1	3	CORAZON	n/a	PELAJE	CORAZON	21	PAL1	0	R1238N
2429.147	0.267	2484798	STUDY_ORIENT	n/a	2	2	BOTA	n/a	BOTA	CORONA	21	PAL1	0	R1238N
2429.414	0.567	2485065	STUDY_ORIENT_OFF	n/a	2	2	BOTA	n/a	BOTA	CORONA	21	PAL1	0	R1238N
2429.981	4.018	2485632	STUDY_PAIR	n/a	2	2	BOTA	n/a	BOTA	CORONA	21	PAL1	0	R1238N
2433.999	1.017	2489650	PAIR_OFF	n/a	2	2	BOTA	n/a	BOTA	CORONA	21	PAL1	0	R1238N
2435.016	0.265	2490667	STUDY_ORIENT	n/a	3	1	PIPA	HOYO	PIPA	HOYO	21	PAL1	0	R1238N
2435.281	0.685	2490932	STUDY_ORIENT_OFF	n/a	3	1	PIPA	HOYO	PIPA	HOYO	21	PAL1	0	R1238N
2435.966	4.017	2491617	STUDY_PAIR	n/a	3	1	PIPA	HOYO	PIPA	HOYO	21	PAL1	0	R1238N
2439.983	1.001	2495634	PAIR_OFF	n/a	3	1	PIPA	HOYO	PIPA	HOYO	21	PAL1	0	R1238N
2440.984	0.0	2496635	ENCODING_END	n/a	-999	-999	n/a	n/a	n/a	n/a	21	PAL1	0	R1238N
2440.984	12.116	2496635	MATH_START	n/a	-999	-999	n/a	n/a	n/a	n/a	21	PAL1	0	R1238N
2453.1	0.001	2508751	MATH_END	n/a	-999	-999	n/a	n/a	n/a	n/a	21	PAL1	0	R1238N
2453.101	0.016	2508752	RECALL_START	n/a	-999	-999	n/a	n/a	n/a	n/a	21	PAL1	0	R1238N
2453.117	0.267	2508768	TEST_ORIENT	n/a	3	1	PIPA	HOYO	PIPA	HOYO	21	PAL1	0	R1238N
2453.384	0.667	2509035	RETRIEVAL_ORIENT_OFF	n/a	-999	-999	n/a	n/a	n/a	n/a	21	PAL1	0	R1238N
2454.051	0.0	2509702	TEST_PROBE	n/a	3	1	PIPA	HOYO	PIPA	HOYO	21	PAL1	0	R1238N
2454.051	1.147	2509702	REC_START	n/a	3	-999	n/a	HOYO	n/a	n/a	21	PAL1	0	R1238N
2455.198	0.414	2510849	REC_EVENT	1147	3	1	PIPA	PIPA	PIPA	HOYO	21	PAL1	0	R1238N
2455.612	2.456	2511263	REC_EVENT	1561	3	1	PIPA	HOYO	PIPA	HOYO	21	PAL1	0	R1238N
2458.068	1.011	2513719	PROBE_OFF	n/a	3	-999	n/a	n/a	n/a	n/a	21	PAL1	0	R1238N
2459.079	0.022	2514730	REC_END	n/a	3	-999	n/a	n/a	n/a	n/a	21	PAL1	0	R1238N
2459.101	0.267	2514752	TEST_ORIENT	n/a	2	2	BOTA	n/a	BOTA	CORONA	21	PAL1	0	R1238N
2459.368	0.668	2515019	RETRIEVAL_ORIENT_OFF	n/a	3	-999	n/a	n/a	n/a	n/a	21	PAL1	0	R1238N
2460.036	0.0	2515687	TEST_PROBE	n/a	2	2	BOTA	n/a	BOTA	CORONA	21	PAL1	0	R1238N
2460.036	4.016	2515687	REC_START	n/a	2	-999	n/a	n/a	n/a	n/a	21	PAL1	0	R1238N
2464.052	0.674	2519703	PROBE_OFF	n/a	2	-999	n/a	n/a	n/a	n/a	21	PAL1	0	R1238N
2464.726	0.326	2520377	REC_EVENT	4690	2	2	BOTA	<>	BOTA	CORONA	21	PAL1	0	R1238N
2465.052	0.017	2520703	REC_END	n/a	2	-999	n/a	n/a	n/a	n/a	21	PAL1	0	R1238N
2465.069	0.266	2520720	TEST_ORIENT	n/a	1	3	CORAZON	n/a	PELAJE	CORAZON	21	PAL1	0	R1238N
2465.335	0.734	2520986	RETRIEVAL_ORIENT_OFF	n/a	2	-999	n/a	n/a	n/a	n/a	21	PAL1	0	R1238N
2466.069	0.0	2521720	TEST_PROBE	n/a	1	3	CORAZON	n/a	PELAJE	CORAZON	21	PAL1	0	R1238N
2466.069	4.017	2521720	REC_START	n/a	1	-999	n/a	n/a	n/a	n/a	21	PAL1	0	R1238N
2470.086	0.905	2525737	PROBE_OFF	n/a	1	-999	n/a	n/a	n/a	n/a	21	PAL1	0	R1238N
2470.991	0.095	2526642	REC_EVENT	4922	1	3	CORAZON	<>	PELAJE	CORAZON	21	PAL1	0	R1238N
2471.086	0.01	2526737	REC_END	n/a	1	-999	n/a	n/a	n/a	n/a	21	PAL1	0	R1238N
2471.096	7.224	2526747	RECALL_END	n/a	-999	-999	n/a	n/a	n/a	n/a	21	PAL1	0	R1238N
2478.32	10.928	2533970	TRIAL	n/a	-999	-999	n/a	n/a	n/a	n/a	22	PAL1	0	R1238N
2489.248	0.007	2544898	ENCODING_START	n/a	-999	-999	n/a	n/a	n/a	n/a	22	PAL1	0	R1238N
2489.255	0.251	2544905	STUDY_ORIENT	n/a	1	3	TABLERO	CUADRADO	TABLERO	CUEVA	22	PAL1	0	R1238N
2489.506	0.699	2545156	STUDY_ORIENT_OFF	n/a	1	3	TABLERO	CUADRADO	TABLERO	CUEVA	22	PAL1	0	R1238N
2490.205	4.018	2545855	STUDY_PAIR	n/a	1	3	TABLERO	CUADRADO	TABLERO	CUEVA	22	PAL1	0	R1238N
2494.223	1.016	2549873	PAIR_OFF	n/a	1	3	TABLERO	CUADRADO	TABLERO	CUEVA	22	PAL1	0	R1238N
2495.239	0.268	2550889	STUDY_ORIENT	n/a	2	2	SAPO	SAPO	SAPO	FUERTE	22	PAL1	0	R1238N
2495.507	0.682	2551157	STUDY_ORIENT_OFF	n/a	2	2	SAPO	SAPO	SAPO	FUERTE	22	PAL1	0	R1238N
2496.189	4.018	2551839	STUDY_PAIR	n/a	2	2	SAPO	SAPO	SAPO	FUERTE	22	PAL1	0	R1238N
2500.207	1.016	2555857	PAIR_OFF	n/a	2	2	SAPO	SAPO	SAPO	FUERTE	22	PAL1	0	R1238N
2501.223	0.267	2556873	STUDY_ORIENT	n/a	3	1	OVEJA	OVEJA	CUADRADO	OVEJA	22	PAL1	0	R1238N
2501.49	0.667	2557140	STUDY_ORIENT_OFF	n/a	3	1	OVEJA	OVEJA	CUADRADO	OVEJA	22	PAL1	0	R1238N
2502.157	4.017	2557807	STUDY_PAIR	n/a	3	1	OVEJA	OVEJA	CUADRADO	OVEJA	22	PAL1	0	R1238N
2506.174	1.0	2561824	PAIR_OFF	n/a	3	1	OVEJA	OVEJA	CUADRADO	OVEJA	22	PAL1	0	R1238N
2507.174	0.0	2562824	ENCODING_END	n/a	-999	-999	n/a	n/a	n/a	n/a	22	PAL1	0	R1238N
2507.174	15.553	2562824	MATH_START	n/a	-999	-999	n/a	n/a	n/a	n/a	22	PAL1	0	R1238N
2522.727	0.001	2578376	MATH_END	n/a	-999	-999	n/a	n/a	n/a	n/a	22	PAL1	0	R1238N
2522.728	0.016	2578377	RECALL_START	n/a	-999	-999	n/a	n/a	n/a	n/a	22	PAL1	0	R1238N
2522.744	0.267	2578393	TEST_ORIENT	n/a	3	1	OVEJA	OVEJA	CUADRADO	OVEJA	22	PAL1	0	R1238N
2523.011	0.717	2578660	RETRIEVAL_ORIENT_OFF	n/a	-999	-999	n/a	n/a	n/a	n/a	22	PAL1	0	R1238N
2523.728	0.0	2579377	TEST_PROBE	n/a	3	1	OVEJA	OVEJA	CUADRADO	OVEJA	22	PAL1	0	R1238N
2523.728	3.617	2579377	REC_START	n/a	3	-999	n/a	OVEJA	n/a	n/a	22	PAL1	0	R1238N
2527.345	0.4	2582994	REC_EVENT	3617	3	1	OVEJA	OVEJA	CUADRADO	OVEJA	22	PAL1	0	R1238N
2527.745	1.0	2583394	PROBE_OFF	n/a	3	-999	n/a	n/a	n/a	n/a	22	PAL1	0	R1238N
2528.745	0.017	2584394	REC_END	n/a	3	-999	n/a	n/a	n/a	n/a	22	PAL1	0	R1238N
2528.762	0.266	2584411	TEST_ORIENT	n/a	2	2	SAPO	SAPO	SAPO	FUERTE	22	PAL1	0	R1238N
2529.028	0.667	2584677	RETRIEVAL_ORIENT_OFF	n/a	3	-999	n/a	n/a	n/a	n/a	22	PAL1	0	R1238N
2529.695	0.001	2585344	TEST_PROBE	n/a	2	2	SAPO	SAPO	SAPO	FUERTE	22	PAL1	0	R1238N
2529.696	1.858	2585345	REC_START	n/a	2	-999	n/a	SAPO	n/a	n/a	22	PAL1	0	R1238N
2531.554	2.158	2587203	REC_EVENT	1858	2	2	SAPO	SAPO	SAPO	FUERTE	22	PAL1	0	R1238N
2533.712	1.0	2589361	PROBE_OFF	n/a	2	-999	n/a	n/a	n/a	n/a	22	PAL1	0	R1238N
2534.712	0.017	2590361	REC_END	n/a	2	-999	n/a	n/a	n/a	n/a	22	PAL1	0	R1238N
2534.729	0.267	2590378	TEST_ORIENT	n/a	1	3	TABLERO	CUADRADO	TABLERO	CUEVA	22	PAL1	0	R1238N
2534.996	0.583	2590645	RETRIEVAL_ORIENT_OFF	n/a	2	-999	n/a	n/a	n/a	n/a	22	PAL1	0	R1238N
2535.579	0.001	2591228	TEST_PROBE	n/a	1	3	TABLERO	CUADRADO	TABLERO	CUEVA	22	PAL1	0	R1238N
2535.58	1.478	2591229	REC_START	n/a	1	-999	n/a	CUADRADO	n/a	n/a	22	PAL1	0	R1238N
2537.058	2.538	2592707	REC_EVENT	1478	1	3	TABLERO	CUADRADO	TABLERO	CUEVA	22	PAL1	0	R1238N
2539.596	1.0	2595245	PROBE_OFF	n/a	1	-999	n/a	n/a	n/a	n/a	22	PAL1	0	R1238N
2540.596	0.01	2596245	REC_END	n/a	1	-999	n/a	n/a	n/a	n/a	22	PAL1	0	R1238N
2540.606	7.724	2596255	RECALL_END	n/a	-999	-999	n/a	n/a	n/a	n/a	22	PAL1	0	R1238N
2548.33	10.929	2603979	TRIAL	n/a	-999	-999	n/a	n/a	n/a	n/a	23	PAL1	0	R1238N
2559.259	0.006	2614908	ENCODING_START	n/a	-999	-999	n/a	n/a	n/a	n/a	23	PAL1	0	R1238N
2559.265	0.267	2614914	STUDY_ORIENT	n/a	1	1	LABIO	JUGO	LABIO	CORBATA	23	PAL1	0	R1238N
2559.532	0.616	2615181	STUDY_ORIENT_OFF	n/a	1	1	LABIO	JUGO	LABIO	CORBATA	23	PAL1	0	R1238N
2560.148	4.017	2615797	STUDY_PAIR	n/a	1	1	LABIO	JUGO	LABIO	CORBATA	23	PAL1	0	R1238N
2564.165	1.017	2619814	PAIR_OFF	n/a	1	1	LABIO	JUGO	LABIO	CORBATA	23	PAL1	0	R1238N
2565.182	0.267	2620831	STUDY_ORIENT	n/a	2	2	COMIDA	COMIDA	CAPA	COMIDA	23	PAL1	0	R1238N
2565.449	0.65	2621098	STUDY_ORIENT_OFF	n/a	2	2	COMIDA	COMIDA	CAPA	COMIDA	23	PAL1	0	R1238N
2566.099	4.017	2621748	STUDY_PAIR	n/a	2	2	COMIDA	COMIDA	CAPA	COMIDA	23	PAL1	0	R1238N
2570.116	1.017	2625764	PAIR_OFF	n/a	2	2	COMIDA	COMIDA	CAPA	COMIDA	23	PAL1	0	R1238N
2571.133	0.267	2626781	STUDY_ORIENT	n/a	3	3	JUGO	n/a	AUTO	JUGO	23	PAL1	0	R1238N
2571.4	0.584	2627048	STUDY_ORIENT_OFF	n/a	3	3	JUGO	n/a	AUTO	JUGO	23	PAL1	0	R1238N
2571.984	4.017	2627632	STUDY_PAIR	n/a	3	3	JUGO	n/a	AUTO	JUGO	23	PAL1	0	R1238N
2576.001	1.001	2631649	PAIR_OFF	n/a	3	3	JUGO	n/a	AUTO	JUGO	23	PAL1	0	R1238N
2577.002	0.0	2632650	ENCODING_END	n/a	-999	-999	n/a	n/a	n/a	n/a	23	PAL1	0	R1238N
2577.002	10.034	2632650	MATH_START	n/a	-999	-999	n/a	n/a	n/a	n/a	23	PAL1	0	R1238N
2587.036	0.0	2642684	MATH_END	n/a	-999	-999	n/a	n/a	n/a	n/a	23	PAL1	0	R1238N
2587.036	0.016	2642684	RECALL_START	n/a	-999	-999	n/a	n/a	n/a	n/a	23	PAL1	0	R1238N
2587.052	0.267	2642700	TEST_ORIENT	n/a	1	1	LABIO	JUGO	LABIO	CORBATA	23	PAL1	0	R1238N
2587.319	0.567	2642967	RETRIEVAL_ORIENT_OFF	n/a	-999	-999	n/a	n/a	n/a	n/a	23	PAL1	0	R1238N
2587.886	0.001	2643534	TEST_PROBE	n/a	1	1	LABIO	JUGO	LABIO	CORBATA	23	PAL1	0	R1238N
2587.887	0.956	2643535	REC_START	n/a	1	-999	n/a	JUGO	n/a	n/a	23	PAL1	0	R1238N
2588.843	2.292	2644491	REC_EVENT	956	1	1	LABIO	JUGO	LABIO	CORBATA	23	PAL1	0	R1238N
2591.135	0.769	2646783	REC_EVENT	3248	1	1	LABIO	<>	LABIO	CORBATA	23	PAL1	0	R1238N
2591.904	1.011	2647552	PROBE_OFF	n/a	1	-999	n/a	n/a	n/a	n/a	23	PAL1	0	R1238N
2592.915	0.022	2648563	REC_END	n/a	1	-999	n/a	n/a	n/a	n/a	23	PAL1	0	R1238N
2592.937	0.266	2648585	TEST_ORIENT	n/a	2	2	COMIDA	COMIDA	CAPA	COMIDA	23	PAL1	0	R1238N
2593.203	0.601	2648851	RETRIEVAL_ORIENT_OFF	n/a	1	-999	n/a	n/a	n/a	n/a	23	PAL1	0	R1238N
2593.804	0.0	2649452	REC_START	n/a	2	-999	n/a	COMIDA	n/a	n/a	23	PAL1	0	R1238N
2593.804	0.883	2649452	TEST_PROBE	n/a	2	2	COMIDA	COMIDA	CAPA	COMIDA	23	PAL1	0	R1238N
2594.687	1.23	2650335	REC_EVENT	883	2	2	COMIDA	COMIDA	CAPA	COMIDA	23	PAL1	0	R1238N
2595.917	1.904	2651565	REC_EVENT	2113	2	2	COMIDA	<>	CAPA	COMIDA	23	PAL1	0	R1238N
2597.821	1.0	2653469	PROBE_OFF	n/a	2	-999	n/a	n/a	n/a	n/a	23	PAL1	0	R1238N
2598.821	0.017	2654469	REC_END	n/a	2	-999	n/a	n/a	n/a	n/a	23	PAL1	0	R1238N
2598.838	0.265	2654486	TEST_ORIENT	n/a	3	3	JUGO	n/a	AUTO	JUGO	23	PAL1	0	R1238N
2599.103	0.618	2654751	RETRIEVAL_ORIENT_OFF	n/a	2	-999	n/a	n/a	n/a	n/a	23	PAL1	0	R1238N
2599.721	0.001	2655369	TEST_PROBE	n/a	3	3	JUGO	n/a	AUTO	JUGO	23	PAL1	0	R1238N
2599.722	1.415	2655370	REC_START	n/a	3	-999	n/a	n/a	n/a	n/a	23	PAL1	0	R1238N
2601.137	2.601	2656785	REC_EVENT	1415	3	3	JUGO	<>	AUTO	JUGO	23	PAL1	0	R1238N
2603.738	1.0	2659386	PROBE_OFF	n/a	3	-999	n/a	n/a	n/a	n/a	23	PAL1	0	R1238N
2604.738	0.011	2660386	REC_END	n/a	3	-999	n/a	n/a	n/a	n/a	23	PAL1	0	R1238N
2604.749	7.974	2660397	RECALL_END	n/a	-999	-999	n/a	n/a	n/a	n/a	23	PAL1	0	R1238N
2612.723	10.929	2668371	TRIAL	n/a	-999	-999	n/a	n/a	n/a	n/a	24	PAL1	0	R1238N
2623.652	0.006	2679299	ENCODING_START	n/a	-999	-999	n/a	n/a	n/a	n/a	24	PAL1	0	R1238N
2623.658	0.266	2679305	STUDY_ORIENT	n/a	1	3	CORDERO	CORDERO	CORDERO	CERDO	24	PAL1	0	R1238N
2623.924	0.584	2679571	STUDY_ORIENT_OFF	n/a	1	3	CORDERO	CORDERO	CORDERO	CERDO	24	PAL1	0	R1238N
2624.508	4.017	2680155	STUDY_PAIR	n/a	1	3	CORDERO	CORDERO	CORDERO	CERDO	24	PAL1	0	R1238N
2628.525	1.017	2684172	PAIR_OFF	n/a	1	3	CORDERO	CORDERO	CORDERO	CERDO	24	PAL1	0	R1238N
2629.542	0.267	2685189	STUDY_ORIENT	n/a	2	2	SAL	SAL	ESCOBA	SAL	24	PAL1	0	R1238N
2629.809	0.599	2685456	STUDY_ORIENT_OFF	n/a	2	2	SAL	SAL	ESCOBA	SAL	24	PAL1	0	R1238N
2630.408	4.017	2686055	STUDY_PAIR	n/a	2	2	SAL	SAL	ESCOBA	SAL	24	PAL1	0	R1238N
2634.425	1.017	2690072	PAIR_OFF	n/a	2	2	SAL	SAL	ESCOBA	SAL	24	PAL1	0	R1238N
2635.442	0.267	2691089	STUDY_ORIENT	n/a	3	1	CUERDA	n/a	CORDEL	CUERDA	24	PAL1	0	R1238N
2635.709	0.716	2691356	STUDY_ORIENT_OFF	n/a	3	1	CUERDA	n/a	CORDEL	CUERDA	24	PAL1	0	R1238N
2636.425	4.017	2692072	STUDY_PAIR	n/a	3	1	CUERDA	n/a	CORDEL	CUERDA	24	PAL1	0	R1238N
2640.442	1.001	2696089	PAIR_OFF	n/a	3	1	CUERDA	n/a	CORDEL	CUERDA	24	PAL1	0	R1238N
2641.443	0.0	2697090	ENCODING_END	n/a	-999	-999	n/a	n/a	n/a	n/a	24	PAL1	0	R1238N
2641.443	12.884	2697090	MATH_START	n/a	-999	-999	n/a	n/a	n/a	n/a	24	PAL1	0	R1238N
2654.327	0.001	2709974	MATH_END	n/a	-999	-999	n/a	n/a	n/a	n/a	24	PAL1	0	R1238N
2654.328	0.016	2709975	RECALL_START	n/a	-999	-999	n/a	n/a	n/a	n/a	24	PAL1	0	R1238N
2654.344	0.251	2709991	TEST_ORIENT	n/a	3	1	CUERDA	n/a	CORDEL	CUERDA	24	PAL1	0	R1238N
2654.595	0.549	2710242	RETRIEVAL_ORIENT_OFF	n/a	-999	-999	n/a	n/a	n/a	n/a	24	PAL1	0	R1238N
2655.144	0.002	2710791	TEST_PROBE	n/a	3	1	CUERDA	n/a	CORDEL	CUERDA	24	PAL1	0	R1238N
2655.146	3.416	2710793	REC_START	n/a	3	-999	n/a	n/a	n/a	n/a	24	PAL1	0	R1238N
2658.562	0.6	2714209	REC_EVENT	3416	3	1	CUERDA	<>	CORDEL	CUERDA	24	PAL1	0	R1238N
2659.162	0.373	2714809	PROBE_OFF	n/a	3	-999	n/a	n/a	n/a	n/a	24	PAL1	0	R1238N
2659.535	0.627	2715182	REC_EVENT	4389	3	1	CUERDA	<>	CORDEL	CUERDA	24	PAL1	0	R1238N
2660.162	0.016	2715809	REC_END	n/a	3	-999	n/a	n/a	n/a	n/a	24	PAL1	0	R1238N
2660.178	0.267	2715825	TEST_ORIENT	n/a	2	2	SAL	SAL	ESCOBA	SAL	24	PAL1	0	R1238N
2660.445	0.7	2716092	RETRIEVAL_ORIENT_OFF	n/a	3	-999	n/a	n/a	n/a	n/a	24	PAL1	0	R1238N
2661.145	0.001	2716792	TEST_PROBE	n/a	2	2	SAL	SAL	ESCOBA	SAL	24	PAL1	0	R1238N
2661.146	1.059	2716793	REC_START	n/a	2	-999	n/a	SAL	n/a	n/a	24	PAL1	0	R1238N
2662.205	2.957	2717852	REC_EVENT	1059	2	2	SAL	SAL	ESCOBA	SAL	24	PAL1	0	R1238N
2665.162	1.001	2720809	PROBE_OFF	n/a	2	-999	n/a	n/a	n/a	n/a	24	PAL1	0	R1238N
2666.163	0.016	2721810	REC_END	n/a	2	-999	n/a	n/a	n/a	n/a	24	PAL1	0	R1238N
2666.179	0.267	2721826	TEST_ORIENT	n/a	1	3	CORDERO	CORDERO	CORDERO	CERDO	24	PAL1	0	R1238N
2666.446	0.7	2722093	RETRIEVAL_ORIENT_OFF	n/a	2	-999	n/a	n/a	n/a	n/a	24	PAL1	0	R1238N
2667.146	0.001	2722793	TEST_PROBE	n/a	1	3	CORDERO	CORDERO	CORDERO	CERDO	24	PAL1	0	R1238N
2667.147	1.5	2722794	REC_START	n/a	1	-999	n/a	CORDERO	n/a	n/a	24	PAL1	0	R1238N
2668.647	2.516	2724293	REC_EVENT	1500	1	3	CORDERO	CORDERO	CORDERO	CERDO	24	PAL1	0	R1238N
2671.163	1.0	2726809	PROBE_OFF	n/a	1	-999	n/a	n/a	n/a	n/a	24	PAL1	0	R1238N
2672.163	0.011	2727809	REC_END	n/a	1	-999	n/a	n/a	n/a	n/a	24	PAL1	0	R1238N
2672.174	8.307	2727820	RECALL_END	n/a	-999	-999	n/a	n/a	n/a	n/a	24	PAL1	0	R1238N
2680.481	10.928	2736127	TRIAL	n/a	-999	-999	n/a	n/a	n/a	n/a	25	PAL1	0	R1238N
2691.409	0.007	2747055	ENCODING_START	n/a	-999	-999	n/a	n/a	n/a	n/a	25	PAL1	0	R1238N
2691.416	0.268	2747062	STUDY_ORIENT	n/a	1	3	TELEFONO	PISO	VENTILADOR	TELEFONO	25	PAL1	0	R1238N
2691.684	0.665	2747330	STUDY_ORIENT_OFF	n/a	1	3	TELEFONO	PISO	VENTILADOR	TELEFONO	25	PAL1	0	R1238N
2692.349	4.018	2747995	STUDY_PAIR	n/a	1	3	TELEFONO	PISO	VENTILADOR	TELEFONO	25	PAL1	0	R1238N
2696.367	1.016	2752013	PAIR_OFF	n/a	1	3	TELEFONO	PISO	VENTILADOR	TELEFONO	25	PAL1	0	R1238N
2697.383	0.268	2753029	STUDY_ORIENT	n/a	2	2	PISO	n/a	PISO	RELOJ	25	PAL1	0	R1238N
2697.651	0.749	2753297	STUDY_ORIENT_OFF	n/a	2	2	PISO	n/a	PISO	RELOJ	25	PAL1	0	R1238N
2698.4	4.017	2754046	STUDY_PAIR	n/a	2	2	PISO	n/a	PISO	RELOJ	25	PAL1	0	R1238N
2702.417	1.017	2758063	PAIR_OFF	n/a	2	2	PISO	n/a	PISO	RELOJ	25	PAL1	0	R1238N
2703.434	0.268	2759080	STUDY_ORIENT	n/a	3	1	CHALECO	RELOJ	CHALECO	TALLO	25	PAL1	0	R1238N
2703.702	0.666	2759348	STUDY_ORIENT_OFF	n/a	3	1	CHALECO	RELOJ	CHALECO	TALLO	25	PAL1	0	R1238N
2704.368	4.017	2760014	STUDY_PAIR	n/a	3	1	CHALECO	RELOJ	CHALECO	TALLO	25	PAL1	0	R1238N
2708.385	1.0	2764031	PAIR_OFF	n/a	3	1	CHALECO	RELOJ	CHALECO	TALLO	25	PAL1	0	R1238N
2709.385	0.0	2765031	ENCODING_END	n/a	-999	-999	n/a	n/a	n/a	n/a	25	PAL1	0	R1238N
2709.385	6.635	2765031	MATH_START	n/a	-999	-999	n/a	n/a	n/a	n/a	25	PAL1	0	R1238N
2716.02	0.001	2771666	MATH_END	n/a	-999	-999	n/a	n/a	n/a	n/a	25	PAL1	0	R1238N
2716.021	0.016	2771667	RECALL_START	n/a	-999	-999	n/a	n/a	n/a	n/a	25	PAL1	0	R1238N
2716.037	0.266	2771683	TEST_ORIENT	n/a	3	1	CHALECO	RELOJ	CHALECO	TALLO	25	PAL1	0	R1238N
2716.303	0.717	2771948	RETRIEVAL_ORIENT_OFF	n/a	-999	-999	n/a	n/a	n/a	n/a	25	PAL1	0	R1238N
2717.02	0.001	2772665	TEST_PROBE	n/a	3	1	CHALECO	RELOJ	CHALECO	TALLO	25	PAL1	0	R1238N
2717.021	1.325	2772666	REC_START	n/a	3	-999	n/a	RELOJ	n/a	n/a	25	PAL1	0	R1238N
2718.346	0.902	2773991	REC_EVENT	1325	3	1	CHALECO	CHALECO	CHALECO	TALLO	25	PAL1	0	R1238N
2719.248	1.79	2774893	REC_EVENT	2227	3	1	CHALECO	RELOJ	CHALECO	TALLO	25	PAL1	0	R1238N
2721.038	1.0	2776683	PROBE_OFF	n/a	3	-999	n/a	n/a	n/a	n/a	25	PAL1	0	R1238N
2722.038	0.015	2777683	REC_END	n/a	3	-999	n/a	n/a	n/a	n/a	25	PAL1	0	R1238N
2722.053	0.267	2777698	TEST_ORIENT	n/a	2	2	PISO	n/a	PISO	RELOJ	25	PAL1	0	R1238N
2722.32	0.668	2777965	RETRIEVAL_ORIENT_OFF	n/a	3	-999	n/a	n/a	n/a	n/a	25	PAL1	0	R1238N
2722.988	0.0	2778633	REC_START	n/a	2	-999	n/a	n/a	n/a	n/a	25	PAL1	0	R1238N
2722.988	4.017	2778633	TEST_PROBE	n/a	2	2	PISO	n/a	PISO	RELOJ	25	PAL1	0	R1238N
2727.005	0.882	2782650	PROBE_OFF	n/a	2	-999	n/a	n/a	n/a	n/a	25	PAL1	0	R1238N
2727.887	0.118	2783532	REC_EVENT	4899	2	2	PISO	<>	PISO	RELOJ	25	PAL1	0	R1238N
2728.005	0.017	2783650	REC_END	n/a	2	-999	n/a	n/a	n/a	n/a	25	PAL1	0	R1238N
2728.022	0.266	2783667	TEST_ORIENT	n/a	1	3	TELEFONO	PISO	VENTILADOR	TELEFONO	25	PAL1	0	R1238N
2728.288	0.551	2783933	RETRIEVAL_ORIENT_OFF	n/a	2	-999	n/a	n/a	n/a	n/a	25	PAL1	0	R1238N
2728.839	0.0	2784484	TEST_PROBE	n/a	1	3	TELEFONO	PISO	VENTILADOR	TELEFONO	25	PAL1	0	R1238N
2728.839	1.643	2784484	REC_START	n/a	1	-999	n/a	PISO	n/a	n/a	25	PAL1	0	R1238N
2730.482	2.374	2786127	REC_EVENT	1643	1	3	TELEFONO	TELEFONO	VENTILADOR	TELEFONO	25	PAL1	0	R1238N
2732.856	0.757	2788501	PROBE_OFF	n/a	1	-999	n/a	n/a	n/a	n/a	25	PAL1	0	R1238N
2733.613	0.254	2789258	REC_EVENT	4774	1	3	TELEFONO	PISO	VENTILADOR	TELEFONO	25	PAL1	0	R1238N
2733.867	0.003	2789512	REC_END	n/a	1	-999	n/a	n/a	n/a	n/a	25	PAL1	0	R1238N
2733.87	7.704	2789515	RECALL_END	n/a	-999	-999	n/a	n/a	n/a	n/a	25	PAL1	0	R1238N
2741.574	10.929	2797219	TRIAL	n/a	-999	-999	n/a	n/a	n/a	n/a	26	PAL1	0	R1238N
2752.503	0.006	2808148	ENCODING_START	n/a	-999	-999	n/a	n/a	n/a	n/a	26	PAL1	0	R1238N
2752.509	0.266	2808154	STUDY_ORIENT	n/a	1	1	CUERVO	n/a	ROBLE	CUERVO	26	PAL1	0	R1238N
2752.775	0.75	2808420	STUDY_ORIENT_OFF	n/a	1	1	CUERVO	n/a	ROBLE	CUERVO	26	PAL1	0	R1238N
2753.525	4.018	2809170	STUDY_PAIR	n/a	1	1	CUERVO	n/a	ROBLE	CUERVO	26	PAL1	0	R1238N
2757.543	1.016	2813188	PAIR_OFF	n/a	1	1	CUERVO	n/a	ROBLE	CUERVO	26	PAL1	0	R1238N
2758.559	0.267	2814204	STUDY_ORIENT	n/a	2	2	CORREO	ROBLE	CORREO	MANGA	26	PAL1	0	R1238N
2758.826	0.733	2814471	STUDY_ORIENT_OFF	n/a	2	2	CORREO	ROBLE	CORREO	MANGA	26	PAL1	0	R1238N
2759.559	4.018	2815204	STUDY_PAIR	n/a	2	2	CORREO	ROBLE	CORREO	MANGA	26	PAL1	0	R1238N
2763.577	1.017	2819222	PAIR_OFF	n/a	2	2	CORREO	ROBLE	CORREO	MANGA	26	PAL1	0	R1238N
2764.594	0.266	2820239	STUDY_ORIENT	n/a	3	3	MANGUERA	n/a	PATO	MANGUERA	26	PAL1	0	R1238N
2764.86	0.616	2820505	STUDY_ORIENT_OFF	n/a	3	3	MANGUERA	n/a	PATO	MANGUERA	26	PAL1	0	R1238N
2765.476	4.017	2821120	STUDY_PAIR	n/a	3	3	MANGUERA	n/a	PATO	MANGUERA	26	PAL1	0	R1238N
2769.493	1.002	2825137	PAIR_OFF	n/a	3	3	MANGUERA	n/a	PATO	MANGUERA	26	PAL1	0	R1238N
2770.495	0.0	2826139	ENCODING_END	n/a	-999	-999	n/a	n/a	n/a	n/a	26	PAL1	0	R1238N
2770.495	10.983	2826139	MATH_START	n/a	-999	-999	n/a	n/a	n/a	n/a	26	PAL1	0	R1238N
2781.478	0.0	2837122	MATH_END	n/a	-999	-999	n/a	n/a	n/a	n/a	26	PAL1	0	R1238N
2781.478	0.018	2837122	RECALL_START	n/a	-999	-999	n/a	n/a	n/a	n/a	26	PAL1	0	R1238N
2781.496	0.266	2837140	TEST_ORIENT	n/a	1	1	CUERVO	n/a	ROBLE	CUERVO	26	PAL1	0	R1238N
2781.762	0.583	2837406	RETRIEVAL_ORIENT_OFF	n/a	-999	-999	n/a	n/a	n/a	n/a	26	PAL1	0	R1238N
2782.345	0.001	2837989	TEST_PROBE	n/a	1	1	CUERVO	n/a	ROBLE	CUERVO	26	PAL1	0	R1238N
2782.346	2.142	2837990	REC_START	n/a	1	-999	n/a	n/a	n/a	n/a	26	PAL1	0	R1238N
2784.488	1.874	2840132	REC_EVENT	2142	1	1	CUERVO	<>	ROBLE	CUERVO	26	PAL1	0	R1238N
2786.362	1.0	2842006	PROBE_OFF	n/a	1	-999	n/a	n/a	n/a	n/a	26	PAL1	0	R1238N
2787.362	0.017	2843006	REC_END	n/a	1	-999	n/a	n/a	n/a	n/a	26	PAL1	0	R1238N
2787.379	0.251	2843023	TEST_ORIENT	n/a	2	2	CORREO	ROBLE	CORREO	MANGA	26	PAL1	0	R1238N
2787.63	0.699	2843274	RETRIEVAL_ORIENT_OFF	n/a	1	-999	n/a	n/a	n/a	n/a	26	PAL1	0	R1238N
2788.329	0.001	2843973	TEST_PROBE	n/a	2	2	CORREO	ROBLE	CORREO	MANGA	26	PAL1	0	R1238N
2788.33	1.149	2843974	REC_START	n/a	2	-999	n/a	ROBLE	n/a	n/a	26	PAL1	0	R1238N
2789.479	0.673	2845123	REC_EVENT	1149	2	2	CORREO	CORREO	CORREO	MANGA	26	PAL1	0	R1238N
2790.152	2.194	2845796	REC_EVENT	1822	2	2	CORREO	ROBLE	CORREO	MANGA	26	PAL1	0	R1238N
2792.346	1.001	2847990	PROBE_OFF	n/a	2	-999	n/a	n/a	n/a	n/a	26	PAL1	0	R1238N
2793.347	0.016	2848991	REC_END	n/a	2	-999	n/a	n/a	n/a	n/a	26	PAL1	0	R1238N
2793.363	0.268	2849007	TEST_ORIENT	n/a	3	3	MANGUERA	n/a	PATO	MANGUERA	26	PAL1	0	R1238N
2793.631	0.699	2849275	RETRIEVAL_ORIENT_OFF	n/a	2	-999	n/a	n/a	n/a	n/a	26	PAL1	0	R1238N
2794.33	0.0	2849974	REC_START	n/a	3	-999	n/a	n/a	n/a	n/a	26	PAL1	0	R1238N
2794.33	4.017	2849974	TEST_PROBE	n/a	3	3	MANGUERA	n/a	PATO	MANGUERA	26	PAL1	0	R1238N
2798.347	0.719	2853991	PROBE_OFF	n/a	3	-999	n/a	n/a	n/a	n/a	26	PAL1	0	R1238N
2799.066	0.281	2854710	REC_EVENT	4736	3	3	MANGUERA	<>	PATO	MANGUERA	26	PAL1	0	R1238N
2799.347	0.01	2854991	REC_END	n/a	3	-999	n/a	n/a	n/a	n/a	26	PAL1	0	R1238N
2799.357	10.276	2855001	RECALL_END	n/a	-999	-999	n/a	n/a	n/a	n/a	26	PAL1	0	R1238N
2809.633	10.928	2865277	TRIAL	n/a	-999	-999	n/a	n/a	n/a	n/a	27	PAL1	0	R1238N
2820.561	0.007	2876204	ENCODING_START	n/a	-999	-999	n/a	n/a	n/a	n/a	27	PAL1	0	R1238N
2820.568	0.266	2876211	STUDY_ORIENT	n/a	1	3	VACA	VACA	VACA	ARBUSTO	27	PAL1	0	R1238N
2820.834	0.533	2876477	STUDY_ORIENT_OFF	n/a	1	3	VACA	VACA	VACA	ARBUSTO	27	PAL1	0	R1238N
2821.367	4.017	2877010	STUDY_PAIR	n/a	1	3	VACA	VACA	VACA	ARBUSTO	27	PAL1	0	R1238N
2825.384	1.017	2881027	PAIR_OFF	n/a	1	3	VACA	VACA	VACA	ARBUSTO	27	PAL1	0	R1238N
2826.401	0.268	2882044	STUDY_ORIENT	n/a	2	2	BASURA	BASURA	CAMARON	BASURA	27	PAL1	0	R1238N
2826.669	0.732	2882312	STUDY_ORIENT_OFF	n/a	2	2	BASURA	BASURA	CAMARON	BASURA	27	PAL1	0	R1238N
2827.401	4.017	2883044	STUDY_PAIR	n/a	2	2	BASURA	BASURA	CAMARON	BASURA	27	PAL1	0	R1238N
2831.418	1.017	2887061	PAIR_OFF	n/a	2	2	BASURA	BASURA	CAMARON	BASURA	27	PAL1	0	R1238N
2832.435	0.268	2888078	STUDY_ORIENT	n/a	3	1	EFECTIVO	ZANJA	EFECTIVO	ZANJA	27	PAL1	0	R1238N
2832.703	0.599	2888346	STUDY_ORIENT_OFF	n/a	3	1	EFECTIVO	ZANJA	EFECTIVO	ZANJA	27	PAL1	0	R1238N
2833.302	4.017	2888945	STUDY_PAIR	n/a	3	1	EFECTIVO	ZANJA	EFECTIVO	ZANJA	27	PAL1	0	R1238N
2837.319	1.001	2892962	PAIR_OFF	n/a	3	1	EFECTIVO	ZANJA	EFECTIVO	ZANJA	27	PAL1	0	R1238N
2838.32	0.0	2893963	ENCODING_END	n/a	-999	-999	n/a	n/a	n/a	n/a	27	PAL1	0	R1238N
2838.32	8.85	2893963	MATH_START	n/a	-999	-999	n/a	n/a	n/a	n/a	27	PAL1	0	R1238N
2847.17	0.001	2902813	MATH_END	n/a	-999	-999	n/a	n/a	n/a	n/a	27	PAL1	0	R1238N
2847.171	0.016	2902814	RECALL_START	n/a	-999	-999	n/a	n/a	n/a	n/a	27	PAL1	0	R1238N
2847.187	0.267	2902830	TEST_ORIENT	n/a	3	1	EFECTIVO	ZANJA	EFECTIVO	ZANJA	27	PAL1	0	R1238N
2847.454	0.633	2903097	RETRIEVAL_ORIENT_OFF	n/a	-999	-999	n/a	n/a	n/a	n/a	27	PAL1	0	R1238N
2848.087	0.001	2903730	TEST_PROBE	n/a	3	1	EFECTIVO	ZANJA	EFECTIVO	ZANJA	27	PAL1	0	R1238N
2848.088	1.438	2903731	REC_START	n/a	3	-999	n/a	ZANJA	n/a	n/a	27	PAL1	0	R1238N
2849.526	0.895	2905169	REC_EVENT	1438	3	1	EFECTIVO	EFECTIVO	EFECTIVO	ZANJA	27	PAL1	0	R1238N
2850.421	1.683	2906064	REC_EVENT	2333	3	1	EFECTIVO	ZANJA	EFECTIVO	ZANJA	27	PAL1	0	R1238N
2852.104	1.0	2907747	PROBE_OFF	n/a	3	-999	n/a	n/a	n/a	n/a	27	PAL1	0	R1238N
2853.104	0.017	2908747	REC_END	n/a	3	-999	n/a	n/a	n/a	n/a	27	PAL1	0	R1238N
2853.121	0.267	2908764	TEST_ORIENT	n/a	2	2	BASURA	BASURA	CAMARON	BASURA	27	PAL1	0	R1238N
2853.388	0.683	2909031	RETRIEVAL_ORIENT_OFF	n/a	3	-999	n/a	n/a	n/a	n/a	27	PAL1	0	R1238N
2854.071	0.001	2909714	TEST_PROBE	n/a	2	2	BASURA	BASURA	CAMARON	BASURA	27	PAL1	0	R1238N
2854.072	0.994	2909715	REC_START	n/a	2	-999	n/a	BASURA	n/a	n/a	27	PAL1	0	R1238N
2855.066	1.735	2910709	REC_EVENT	994	2	2	BASURA	BASURA	CAMARON	BASURA	27	PAL1	0	R1238N
2856.801	1.288	2912444	REC_EVENT	2729	2	2	BASURA	<>	CAMARON	BASURA	27	PAL1	0	R1238N
2858.089	1.0	2913732	PROBE_OFF	n/a	2	-999	n/a	n/a	n/a	n/a	27	PAL1	0	R1238N
2859.089	0.016	2914732	REC_END	n/a	2	-999	n/a	n/a	n/a	n/a	27	PAL1	0	R1238N
2859.105	0.267	2914748	TEST_ORIENT	n/a	1	3	VACA	VACA	VACA	ARBUSTO	27	PAL1	0	R1238N
2859.372	0.767	2915015	RETRIEVAL_ORIENT_OFF	n/a	2	-999	n/a	n/a	n/a	n/a	27	PAL1	0	R1238N
2860.139	0.0	2915782	TEST_PROBE	n/a	1	3	VACA	VACA	VACA	ARBUSTO	27	PAL1	0	R1238N
2860.139	1.341	2915782	REC_START	n/a	1	-999	n/a	VACA	n/a	n/a	27	PAL1	0	R1238N
2861.48	2.676	2917123	REC_EVENT	1341	1	3	VACA	VACA	VACA	ARBUSTO	27	PAL1	0	R1238N
2864.156	1.0	2919798	PROBE_OFF	n/a	1	-999	n/a	n/a	n/a	n/a	27	PAL1	0	R1238N
2865.156	0.011	2920798	REC_END	n/a	1	-999	n/a	n/a	n/a	n/a	27	PAL1	0	R1238N
2865.167	7.475	2920809	RECALL_END	n/a	-999	-999	n/a	n/a	n/a	n/a	27	PAL1	0	R1238N
2872.642	10.929	2928284	TRIAL	n/a	-999	-999	n/a	n/a	n/a	n/a	28	PAL1	0	R1238N
2883.571	0.005	2939213	ENCODING_START	n/a	-999	-999	n/a	n/a	n/a	n/a	28	PAL1	0	R1238N
2883.576	0.267	2939218	STUDY_ORIENT	n/a	1	1	LAGO	LAGO	LAGO	CONCHA	28	PAL1	0	R1238N
2883.843	0.599	2939485	STUDY_ORIENT_OFF	n/a	1	1	LAGO	LAGO	LAGO	CONCHA	28	PAL1	0	R1238N
2884.442	4.017	2940084	STUDY_PAIR	n/a	1	1	LAGO	LAGO	LAGO	CONCHA	28	PAL1	0	R1238N
2888.459	1.017	2944101	PAIR_OFF	n/a	1	1	LAGO	LAGO	LAGO	CONCHA	28	PAL1	0	R1238N
2889.476	0.268	2945118	STUDY_ORIENT	n/a	2	2	TENEDOR	n/a	CABRA	TENEDOR	28	PAL1	0	R1238N
2889.744	0.767	2945386	STUDY_ORIENT_OFF	n/a	2	2	TENEDOR	n/a	CABRA	TENEDOR	28	PAL1	0	R1238N
2890.511	4.017	2946153	STUDY_PAIR	n/a	2	2	TENEDOR	n/a	CABRA	TENEDOR	28	PAL1	0	R1238N
2894.528	1.017	2950170	PAIR_OFF	n/a	2	2	TENEDOR	n/a	CABRA	TENEDOR	28	PAL1	0	R1238N
2895.545	0.266	2951187	STUDY_ORIENT	n/a	3	3	HUMO	PANTALONES	HUMO	PANTALONES	28	PAL1	0	R1238N
2895.811	0.616	2951453	STUDY_ORIENT_OFF	n/a	3	3	HUMO	PANTALONES	HUMO	PANTALONES	28	PAL1	0	R1238N
2896.427	4.017	2952069	STUDY_PAIR	n/a	3	3	HUMO	PANTALONES	HUMO	PANTALONES	28	PAL1	0	R1238N
2900.444	1.0	2956086	PAIR_OFF	n/a	3	3	HUMO	PANTALONES	HUMO	PANTALONES	28	PAL1	0	R1238N
2901.444	0.0	2957086	ENCODING_END	n/a	-999	-999	n/a	n/a	n/a	n/a	28	PAL1	0	R1238N
2901.444	6.701	2957086	MATH_START	n/a	-999	-999	n/a	n/a	n/a	n/a	28	PAL1	0	R1238N
2908.145	0.001	2963787	MATH_END	n/a	-999	-999	n/a	n/a	n/a	n/a	28	PAL1	0	R1238N
2908.146	0.016	2963788	RECALL_START	n/a	-999	-999	n/a	n/a	n/a	n/a	28	PAL1	0	R1238N
2908.162	0.267	2963804	TEST_ORIENT	n/a	1	1	LAGO	LAGO	LAGO	CONCHA	28	PAL1	0	R1238N
2908.429	0.584	2964071	RETRIEVAL_ORIENT_OFF	n/a	-999	-999	n/a	n/a	n/a	n/a	28	PAL1	0	R1238N
2909.013	0.001	2964655	TEST_PROBE	n/a	1	1	LAGO	LAGO	LAGO	CONCHA	28	PAL1	0	R1238N
2909.014	1.116	2964656	REC_START	n/a	1	-999	n/a	LAGO	n/a	n/a	28	PAL1	0	R1238N
2910.13	2.9	2965772	REC_EVENT	1116	1	1	LAGO	LAGO	LAGO	CONCHA	28	PAL1	0	R1238N
2913.03	1.001	2968671	PROBE_OFF	n/a	1	-999	n/a	n/a	n/a	n/a	28	PAL1	0	R1238N
2914.031	0.015	2969672	REC_END	n/a	1	-999	n/a	n/a	n/a	n/a	28	PAL1	0	R1238N
2914.046	0.267	2969687	TEST_ORIENT	n/a	2	2	TENEDOR	n/a	CABRA	TENEDOR	28	PAL1	0	R1238N
2914.313	0.701	2969954	RETRIEVAL_ORIENT_OFF	n/a	1	-999	n/a	n/a	n/a	n/a	28	PAL1	0	R1238N
2915.014	0.0	2970655	TEST_PROBE	n/a	2	2	TENEDOR	n/a	CABRA	TENEDOR	28	PAL1	0	R1238N
2915.014	1.065	2970655	REC_START	n/a	2	-999	n/a	n/a	n/a	n/a	28	PAL1	0	R1238N
2916.079	2.952	2971720	REC_EVENT	1065	2	2	TENEDOR	<>	CABRA	TENEDOR	28	PAL1	0	R1238N
2919.031	1.0	2974672	PROBE_OFF	n/a	2	-999	n/a	n/a	n/a	n/a	28	PAL1	0	R1238N
2920.031	0.016	2975672	REC_END	n/a	2	-999	n/a	n/a	n/a	n/a	28	PAL1	0	R1238N
2920.047	0.267	2975688	TEST_ORIENT	n/a	3	3	HUMO	PANTALONES	HUMO	PANTALONES	28	PAL1	0	R1238N
2920.314	0.766	2975955	RETRIEVAL_ORIENT_OFF	n/a	2	-999	n/a	n/a	n/a	n/a	28	PAL1	0	R1238N
2921.08	0.002	2976721	TEST_PROBE	n/a	3	3	HUMO	PANTALONES	HUMO	PANTALONES	28	PAL1	0	R1238N
2921.082	1.58	2976723	REC_START	n/a	3	-999	n/a	PANTALONES	n/a	n/a	28	PAL1	0	R1238N
2922.662	2.069	2978303	REC_EVENT	1580	3	3	HUMO	<>	HUMO	PANTALONES	28	PAL1	0	R1238N
2924.731	0.35	2980372	REC_EVENT	3649	3	3	HUMO	PANTALONES	HUMO	PANTALONES	28	PAL1	0	R1238N
2925.081	1.0	2980722	PROBE_OFF	n/a	3	-999	n/a	n/a	n/a	n/a	28	PAL1	0	R1238N
2926.081	0.01	2981722	REC_END	n/a	3	-999	n/a	n/a	n/a	n/a	28	PAL1	0	R1238N
2926.091	8.742	2981732	RECALL_END	n/a	-999	-999	n/a	n/a	n/a	n/a	28	PAL1	0	R1238N
2934.833	10.928	2990474	TRIAL	n/a	-999	-999	n/a	n/a	n/a	n/a	29	PAL1	0	R1238N
2945.761	0.007	3001402	ENCODING_START	n/a	-999	-999	n/a	n/a	n/a	n/a	29	PAL1	0	R1238N
2945.768	0.267	3001409	STUDY_ORIENT	n/a	1	1	TIZA	TIZA	TIZA	TIBURON	29	PAL1	0	R1238N
2946.035	0.717	3001676	STUDY_ORIENT_OFF	n/a	1	1	TIZA	TIZA	TIZA	TIBURON	29	PAL1	0	R1238N
2946.752	4.017	3002393	STUDY_PAIR	n/a	1	1	TIZA	TIZA	TIZA	TIBURON	29	PAL1	0	R1238N
2950.769	1.017	3006410	PAIR_OFF	n/a	1	1	TIZA	TIZA	TIZA	TIBURON	29	PAL1	0	R1238N
2951.786	0.265	3007427	STUDY_ORIENT	n/a	2	2	HILO	TIBURON	HILO	TE	29	PAL1	0	R1238N
2952.051	0.668	3007692	STUDY_ORIENT_OFF	n/a	2	2	HILO	TIBURON	HILO	TE	29	PAL1	0	R1238N
2952.719	4.017	3008360	STUDY_PAIR	n/a	2	2	HILO	TIBURON	HILO	TE	29	PAL1	0	R1238N
2956.736	1.017	3012377	PAIR_OFF	n/a	2	2	HILO	TIBURON	HILO	TE	29	PAL1	0	R1238N
2957.753	0.267	3013394	STUDY_ORIENT	n/a	3	3	CAMA	n/a	ESTUFA	CAMA	29	PAL1	0	R1238N
2958.02	0.616	3013661	STUDY_ORIENT_OFF	n/a	3	3	CAMA	n/a	ESTUFA	CAMA	29	PAL1	0	R1238N
2958.636	4.018	3014277	STUDY_PAIR	n/a	3	3	CAMA	n/a	ESTUFA	CAMA	29	PAL1	0	R1238N
2962.654	1.001	3018294	PAIR_OFF	n/a	3	3	CAMA	n/a	ESTUFA	CAMA	29	PAL1	0	R1238N
2963.655	0.0	3019295	ENCODING_END	n/a	-999	-999	n/a	n/a	n/a	n/a	29	PAL1	0	R1238N
2963.655	6.465	3019295	MATH_START	n/a	-999	-999	n/a	n/a	n/a	n/a	29	PAL1	0	R1238N
2970.12	0.0	3025760	MATH_END	n/a	-999	-999	n/a	n/a	n/a	n/a	29	PAL1	0	R1238N
