onset	duration	sample	trial_type	response_time	stim_file	serialpos	probepos	probe_word	resp_word	study_1	study_2	list	test	answer	experiment	session	subject
0.0	75.595	165542	SESS_START	n/a	n/a	-999	-999	n/a	n/a	n/a	n/a	-999	[0, 0, 0]	-999	PAL1	0	R1263C
75.595	1.017	203337	START	n/a	n/a	-999	-999	n/a	n/a	n/a	n/a	-1	[-999, -999, -999]	-999	PAL1	0	R1263C
76.612	16.003	203846	PROB	15976	n/a	-999	-999	n/a	n/a	n/a	n/a	-1	[3, 7, 8]	18	PAL1	0	R1263C
92.615	7.645	211847	PROB	7645	n/a	-999	-999	n/a	n/a	n/a	n/a	-1	[3, 4, 1]	8	PAL1	0	R1263C
100.26	82.016	215669	STOP	n/a	n/a	-999	-999	n/a	n/a	n/a	n/a	-1	[-999, -999, -999]	-999	PAL1	0	R1263C
182.276	10.441	256674	ENCODING_START	n/a	n/a	0	-999	n/a	n/a	n/a	n/a	1	[0, 0, 0]	-999	PAL1	0	R1263C
192.717	0.767	261894	STUDY_ORIENT	n/a	n/a	1	1	WEED	n/a	DUCK	WEED	1	[0, 0, 0]	-999	PAL1	0	R1263C
193.484	5.018	262278	STUDY_PAIR	n/a	wordpools/wordpool_EN.txt	1	1	WEED	n/a	DUCK	WEED	1	[0, 0, 0]	-999	PAL1	0	R1263C
198.502	0.9	264786	STUDY_ORIENT	n/a	n/a	2	4	EEL	PASS	FAN	EEL	1	[0, 0, 0]	-999	PAL1	0	R1263C
199.402	5.034	265236	STUDY_PAIR	n/a	wordpools/wordpool_EN.txt	2	4	EEL	PASS	FAN	EEL	1	[0, 0, 0]	-999	PAL1	0	R1263C
204.436	0.801	267753	STUDY_ORIENT	n/a	n/a	3	5	HOSE	n/a	PIN	HOSE	1	[0, 0, 0]	-999	PAL1	0	R1263C
205.237	5.034	268154	STUDY_PAIR	n/a	wordpools/wordpool_EN.txt	3	5	HOSE	n/a	PIN	HOSE	1	[0, 0, 0]	-999	PAL1	0	R1263C
210.271	0.817	270670	STUDY_ORIENT	n/a	n/a	4	2	ROSE	PASS	ROSE	ARM	1	[0, 0, 0]	-999	PAL1	0	R1263C
211.088	5.034	271079	STUDY_PAIR	n/a	wordpools/wordpool_EN.txt	4	2	ROSE	PASS	ROSE	ARM	1	[0, 0, 0]	-999	PAL1	0	R1263C
216.122	0.883	273596	STUDY_ORIENT	n/a	n/a	5	3	HOLE	n/a	HOLE	STEAM	1	[0, 0, 0]	-999	PAL1	0	R1263C
217.005	5.018	274037	STUDY_PAIR	n/a	wordpools/wordpool_EN.txt	5	3	HOLE	n/a	HOLE	STEAM	1	[0, 0, 0]	-999	PAL1	0	R1263C
222.023	1.0	276546	STUDY_ORIENT	n/a	n/a	6	6	LAKE	BEE	LAKE	BEE	1	[0, 0, 0]	-999	PAL1	0	R1263C
223.023	4.001	277046	STUDY_PAIR	n/a	wordpools/wordpool_EN.txt	6	6	LAKE	BEE	LAKE	BEE	1	[0, 0, 0]	-999	PAL1	0	R1263C
227.024	1.0	279046	START	n/a	n/a	-999	-999	n/a	n/a	n/a	n/a	1	[-999, -999, -999]	-999	PAL1	0	R1263C
228.024	0.017	279546	MATH_START	n/a	n/a	-999	-999	n/a	n/a	n/a	n/a	1	[0, 0, 0]	-999	PAL1	0	R1263C
228.041	17.787	279555	PROB	17763	n/a	-999	-999	n/a	n/a	n/a	n/a	1	[6, 9, 8]	23	PAL1	0	R1263C
245.828	13.304	288448	PROB	13304	n/a	-999	-999	n/a	n/a	n/a	n/a	1	[8, 4, 5]	17	PAL1	0	R1263C
259.132	0.015	295099	STOP	n/a	n/a	-999	-999	n/a	n/a	n/a	n/a	1	[-999, -999, -999]	-999	PAL1	0	R1263C
259.147	0.0	295107	MATH_END	n/a	n/a	-999	-999	n/a	n/a	n/a	n/a	1	[0, 0, 0]	-999	PAL1	0	R1263C
259.147	0.016	295107	TEST_START	n/a	n/a	-999	-999	n/a	n/a	n/a	n/a	1	[0, 0, 0]	-999	PAL1	0	R1263C
259.163	0.967	295115	TEST_ORIENT	n/a	n/a	1	1	WEED	n/a	DUCK	WEED	1	[0, 0, 0]	-999	PAL1	0	R1263C
260.13	0.002	295598	TEST_PROBE	n/a	wordpools/wordpool_EN.txt	1	1	WEED	n/a	DUCK	WEED	1	[0, 0, 0]	-999	PAL1	0	R1263C
260.132	4.133	295599	REC_START	n/a	n/a	1	-999	n/a	n/a	n/a	n/a	1	[0, 0, 0]	-999	PAL1	0	R1263C
264.265	0.394	297666	REC_EVENT	4133	n/a	1	1	WEED	<>	DUCK	WEED	1	[0, 0, 0]	-999	PAL1	0	R1263C
264.659	0.472	297863	REC_EVENT	4527	n/a	1	1	WEED	<>	DUCK	WEED	1	[0, 0, 0]	-999	PAL1	0	R1263C
265.131	0.017	298099	REC_END	n/a	n/a	1	-999	n/a	n/a	n/a	n/a	1	[0, 0, 0]	-999	PAL1	0	R1263C
265.148	0.9	298107	TEST_ORIENT	n/a	n/a	4	2	ROSE	PASS	ROSE	ARM	1	[0, 0, 0]	-999	PAL1	0	R1263C
266.048	0.001	298557	TEST_PROBE	n/a	wordpools/wordpool_EN.txt	4	2	ROSE	PASS	ROSE	ARM	1	[0, 0, 0]	-999	PAL1	0	R1263C
266.049	0.063	298558	REC_START	n/a	n/a	4	-999	n/a	PASS	n/a	n/a	1	[0, 0, 0]	-999	PAL1	0	R1263C
266.112	1.0	298589	REC_EVENT	63	n/a	4	2	ROSE	PASS	ROSE	ARM	1	[0, 0, 0]	-999	PAL1	0	R1263C
267.112	2.418	299089	REC_EVENT	1063	n/a	4	2	ROSE	<>	ROSE	ARM	1	[0, 0, 0]	-999	PAL1	0	R1263C
269.53	0.37	300298	REC_EVENT	3481	n/a	4	2	ROSE	<>	ROSE	ARM	1	[0, 0, 0]	-999	PAL1	0	R1263C
269.9	0.551	300483	REC_EVENT	3851	n/a	4	2	ROSE	<>	ROSE	ARM	1	[0, 0, 0]	-999	PAL1	0	R1263C
270.451	0.269	300758	REC_EVENT	4402	n/a	4	2	ROSE	<>	ROSE	ARM	1	[0, 0, 0]	-999	PAL1	0	R1263C
270.72	0.355	300893	REC_EVENT	4671	n/a	4	2	ROSE	<>	ROSE	ARM	1	[0, 0, 0]	-999	PAL1	0	R1263C
271.075	0.008	301070	REC_END	n/a	n/a	4	-999	n/a	n/a	n/a	n/a	1	[0, 0, 0]	-999	PAL1	0	R1263C
271.083	0.966	301074	TEST_ORIENT	n/a	n/a	5	3	HOLE	n/a	HOLE	STEAM	1	[0, 0, 0]	-999	PAL1	0	R1263C
272.049	0.001	301557	TEST_PROBE	n/a	wordpools/wordpool_EN.txt	5	3	HOLE	n/a	HOLE	STEAM	1	[0, 0, 0]	-999	PAL1	0	R1263C
272.05	2.279	301558	REC_START	n/a	n/a	5	-999	n/a	n/a	n/a	n/a	1	[0, 0, 0]	-999	PAL1	0	R1263C
274.329	0.505	302697	REC_EVENT	2279	n/a	5	3	HOLE	<>	HOLE	STEAM	1	[0, 0, 0]	-999	PAL1	0	R1263C
274.834	2.225	302950	REC_EVENT	2784	n/a	5	3	HOLE	<>	HOLE	STEAM	1	[0, 0, 0]	-999	PAL1	0	R1263C
277.059	0.008	304062	REC_END	n/a	n/a	5	-999	n/a	n/a	n/a	n/a	1	[0, 0, 0]	-999	PAL1	0	R1263C
277.067	0.967	304066	TEST_ORIENT	n/a	n/a	2	4	EEL	PASS	FAN	EEL	1	[0, 0, 0]	-999	PAL1	0	R1263C
278.034	0.0	304550	TEST_PROBE	n/a	wordpools/wordpool_EN.txt	2	4	EEL	PASS	FAN	EEL	1	[0, 0, 0]	-999	PAL1	0	R1263C
278.034	0.291	304550	REC_START	n/a	n/a	2	-999	n/a	PASS	n/a	n/a	1	[0, 0, 0]	-999	PAL1	0	R1263C
278.325	0.39	304695	REC_EVENT	291	n/a	2	4	EEL	PASS	FAN	EEL	1	[0, 0, 0]	-999	PAL1	0	R1263C
278.715	4.336	304890	REC_EVENT	681	n/a	2	4	EEL	<>	FAN	EEL	1	[0, 0, 0]	-999	PAL1	0	R1263C
283.051	0.017	307058	REC_END	n/a	n/a	2	-999	n/a	n/a	n/a	n/a	1	[0, 0, 0]	-999	PAL1	0	R1263C
283.068	1.017	307066	TEST_ORIENT	n/a	n/a	3	5	HOSE	n/a	PIN	HOSE	1	[0, 0, 0]	-999	PAL1	0	R1263C
284.085	0.0	307575	TEST_PROBE	n/a	wordpools/wordpool_EN.txt	3	5	HOSE	n/a	PIN	HOSE	1	[0, 0, 0]	-999	PAL1	0	R1263C
284.085	1.543	307575	REC_START	n/a	n/a	3	-999	n/a	n/a	n/a	n/a	1	[0, 0, 0]	-999	PAL1	0	R1263C
285.628	0.485	308346	REC_EVENT	1543	n/a	3	5	HOSE	<>	PIN	HOSE	1	[0, 0, 0]	-999	PAL1	0	R1263C
286.113	1.069	308589	REC_EVENT	2028	n/a	3	5	HOSE	<>	PIN	HOSE	1	[0, 0, 0]	-999	PAL1	0	R1263C
287.182	0.365	309123	REC_EVENT	3097	n/a	3	5	HOSE	<>	PIN	HOSE	1	[0, 0, 0]	-999	PAL1	0	R1263C
287.547	0.603	309306	REC_EVENT	3462	n/a	3	5	HOSE	<>	PIN	HOSE	1	[0, 0, 0]	-999	PAL1	0	R1263C
288.15	0.395	309607	REC_EVENT	4065	n/a	3	5	HOSE	<>	PIN	HOSE	1	[0, 0, 0]	-999	PAL1	0	R1263C
288.545	0.557	309805	REC_EVENT	4460	n/a	3	5	HOSE	<>	PIN	HOSE	1	[0, 0, 0]	-999	PAL1	0	R1263C
289.102	0.017	310083	REC_END	n/a	n/a	3	-999	n/a	n/a	n/a	n/a	1	[0, 0, 0]	-999	PAL1	0	R1263C
289.119	0.9	310092	TEST_ORIENT	n/a	n/a	6	6	LAKE	BEE	LAKE	BEE	1	[0, 0, 0]	-999	PAL1	0	R1263C
290.019	0.001	310542	TEST_PROBE	n/a	wordpools/wordpool_EN.txt	6	6	LAKE	BEE	LAKE	BEE	1	[0, 0, 0]	-999	PAL1	0	R1263C
290.02	2.602	310542	REC_START	n/a	n/a	6	-999	n/a	BEE	n/a	n/a	1	[0, 0, 0]	-999	PAL1	0	R1263C
292.622	0.323	311843	REC_EVENT	2602	n/a	6	6	LAKE	BEE	LAKE	BEE	1	[0, 0, 0]	-999	PAL1	0	R1263C
292.945	0.834	312005	REC_EVENT	2925	n/a	6	6	LAKE	<>	LAKE	BEE	1	[0, 0, 0]	-999	PAL1	0	R1263C
293.779	0.251	312422	REC_EVENT	3759	n/a	6	6	LAKE	BEE	LAKE	BEE	1	[0, 0, 0]	-999	PAL1	0	R1263C
294.03	0.474	312547	REC_EVENT	4010	n/a	6	6	LAKE	<>	LAKE	BEE	1	[0, 0, 0]	-999	PAL1	0	R1263C
294.504	0.405	312784	REC_EVENT	4484	n/a	6	6	LAKE	<>	LAKE	BEE	1	[0, 0, 0]	-999	PAL1	0	R1263C
294.909	0.12	312986	REC_EVENT	4889	n/a	6	6	LAKE	<>	LAKE	BEE	1	[0, 0, 0]	-999	PAL1	0	R1263C
295.029	21.615	313046	REC_END	n/a	n/a	6	-999	n/a	n/a	n/a	n/a	1	[0, 0, 0]	-999	PAL1	0	R1263C
316.644	10.449	323853	ENCODING_START	n/a	n/a	0	-999	n/a	n/a	n/a	n/a	2	[0, 0, 0]	-999	PAL1	0	R1263C
327.093	0.851	329077	STUDY_ORIENT	n/a	n/a	1	5	BEAR	n/a	MUG	BEAR	2	[0, 0, 0]	-999	PAL1	0	R1263C
327.944	5.018	329503	STUDY_PAIR	n/a	wordpools/wordpool_EN.txt	1	5	BEAR	n/a	MUG	BEAR	2	[0, 0, 0]	-999	PAL1	0	R1263C
332.962	0.932	332012	STUDY_ORIENT	n/a	n/a	2	6	RAKE	n/a	RAKE	PLANE	2	[0, 0, 0]	-999	PAL1	0	R1263C
333.894	5.018	332478	STUDY_PAIR	n/a	wordpools/wordpool_EN.txt	2	6	RAKE	n/a	RAKE	PLANE	2	[0, 0, 0]	-999	PAL1	0	R1263C
338.912	0.984	334986	STUDY_ORIENT	n/a	n/a	3	3	BARN	RAKE	BARN	SUN	2	[0, 0, 0]	-999	PAL1	0	R1263C
339.896	5.035	335478	STUDY_PAIR	n/a	wordpools/wordpool_EN.txt	3	3	BARN	RAKE	BARN	SUN	2	[0, 0, 0]	-999	PAL1	0	R1263C
344.931	0.932	337996	STUDY_ORIENT	n/a	n/a	4	4	POND	n/a	SOCK	POND	2	[0, 0, 0]	-999	PAL1	0	R1263C
345.863	5.018	338462	STUDY_PAIR	n/a	wordpools/wordpool_EN.txt	4	4	POND	n/a	SOCK	POND	2	[0, 0, 0]	-999	PAL1	0	R1263C
350.881	0.783	340971	STUDY_ORIENT	n/a	n/a	5	1	POLE	SHEET	POLE	SHEET	2	[0, 0, 0]	-999	PAL1	0	R1263C
351.664	5.018	341362	STUDY_PAIR	n/a	wordpools/wordpool_EN.txt	5	1	POLE	SHEET	POLE	SHEET	2	[0, 0, 0]	-999	PAL1	0	R1263C
356.682	0.817	343871	STUDY_ORIENT	n/a	n/a	6	2	SKUNK	n/a	SIGN	SKUNK	2	[0, 0, 0]	-999	PAL1	0	R1263C
357.499	4.018	344279	STUDY_PAIR	n/a	wordpools/wordpool_EN.txt	6	2	SKUNK	n/a	SIGN	SKUNK	2	[0, 0, 0]	-999	PAL1	0	R1263C
361.517	0.999	346288	START	n/a	n/a	-999	-999	n/a	n/a	n/a	n/a	2	[-999, -999, -999]	-999	PAL1	0	R1263C
362.516	0.017	346788	MATH_START	n/a	n/a	-999	-999	n/a	n/a	n/a	n/a	2	[0, 0, 0]	-999	PAL1	0	R1263C
362.533	5.601	346796	PROB	5575	n/a	-999	-999	n/a	n/a	n/a	n/a	2	[1, 3, 4]	8	PAL1	0	R1263C
368.134	7.618	349596	PROB	7598	n/a	-999	-999	n/a	n/a	n/a	n/a	2	[2, 3, 4]	9	PAL1	0	R1263C
375.752	9.684	353405	PROB	9684	n/a	-999	-999	n/a	n/a	n/a	n/a	2	[2, 3, 9]	14	PAL1	0	R1263C
385.436	0.001	358247	STOP	n/a	n/a	-999	-999	n/a	n/a	n/a	n/a	2	[-999, -999, -999]	-999	PAL1	0	R1263C
385.437	0.0	358247	MATH_END	n/a	n/a	-999	-999	n/a	n/a	n/a	n/a	2	[0, 0, 0]	-999	PAL1	0	R1263C
385.437	0.017	358247	TEST_START	n/a	n/a	-999	-999	n/a	n/a	n/a	n/a	2	[0, 0, 0]	-999	PAL1	0	R1263C
385.454	0.9	358256	TEST_ORIENT	n/a	n/a	5	1	POLE	SHEET	POLE	SHEET	2	[0, 0, 0]	-999	PAL1	0	R1263C
386.354	0.001	358706	TEST_PROBE	n/a	wordpools/wordpool_EN.txt	5	1	POLE	SHEET	POLE	SHEET	2	[0, 0, 0]	-999	PAL1	0	R1263C
386.355	1.669	358706	REC_START	n/a	n/a	5	-999	n/a	SHEET	n/a	n/a	2	[0, 0, 0]	-999	PAL1	0	R1263C
388.024	0.557	359541	REC_EVENT	1669	n/a	5	1	POLE	SHEET	POLE	SHEET	2	[0, 0, 0]	-999	PAL1	0	R1263C
388.581	2.783	359819	REC_EVENT	2226	n/a	5	1	POLE	<>	POLE	SHEET	2	[0, 0, 0]	-999	PAL1	0	R1263C
391.364	0.008	361211	REC_END	n/a	n/a	5	-999	n/a	n/a	n/a	n/a	2	[0, 0, 0]	-999	PAL1	0	R1263C
391.372	1.017	361215	TEST_ORIENT	n/a	n/a	6	2	SKUNK	n/a	SIGN	SKUNK	2	[0, 0, 0]	-999	PAL1	0	R1263C
392.389	0.0	361723	TEST_PROBE	n/a	wordpools/wordpool_EN.txt	6	2	SKUNK	n/a	SIGN	SKUNK	2	[0, 0, 0]	-999	PAL1	0	R1263C
392.389	4.842	361723	REC_START	n/a	n/a	6	-999	n/a	n/a	n/a	n/a	2	[0, 0, 0]	-999	PAL1	0	R1263C
397.231	0.05	364144	REC_EVENT	4842	n/a	6	2	SKUNK	<>	SIGN	SKUNK	2	[0, 0, 0]	-999	PAL1	0	R1263C
397.281	0.125	364169	REC_EVENT	4892	n/a	6	2	SKUNK	<>	SIGN	SKUNK	2	[0, 0, 0]	-999	PAL1	0	R1263C
397.406	0.017	364231	REC_END	n/a	n/a	6	-999	n/a	n/a	n/a	n/a	2	[0, 0, 0]	-999	PAL1	0	R1263C
397.423	0.884	364240	TEST_ORIENT	n/a	n/a	3	3	BARN	RAKE	BARN	SUN	2	[0, 0, 0]	-999	PAL1	0	R1263C
398.307	0.0	364682	TEST_PROBE	n/a	wordpools/wordpool_EN.txt	3	3	BARN	RAKE	BARN	SUN	2	[0, 0, 0]	-999	PAL1	0	R1263C
398.307	2.423	364682	REC_START	n/a	n/a	3	-999	n/a	RAKE	n/a	n/a	2	[0, 0, 0]	-999	PAL1	0	R1263C
400.73	0.454	365893	REC_EVENT	2423	n/a	3	3	BARN	RAKE	BARN	SUN	2	[0, 0, 0]	-999	PAL1	0	R1263C
401.184	2.14	366120	REC_EVENT	2877	n/a	3	3	BARN	<>	BARN	SUN	2	[0, 0, 0]	-999	PAL1	0	R1263C
403.324	0.017	367190	REC_END	n/a	n/a	3	-999	n/a	n/a	n/a	n/a	2	[0, 0, 0]	-999	PAL1	0	R1263C
403.341	0.9	367199	TEST_ORIENT	n/a	n/a	4	4	POND	n/a	SOCK	POND	2	[0, 0, 0]	-999	PAL1	0	R1263C
404.241	0.0	367649	TEST_PROBE	n/a	wordpools/wordpool_EN.txt	4	4	POND	n/a	SOCK	POND	2	[0, 0, 0]	-999	PAL1	0	R1263C
404.241	4.633	367649	REC_START	n/a	n/a	4	-999	n/a	n/a	n/a	n/a	2	[0, 0, 0]	-999	PAL1	0	R1263C
408.874	0.05	369965	REC_EVENT	4633	n/a	4	4	POND	<>	SOCK	POND	2	[0, 0, 0]	-999	PAL1	0	R1263C
408.924	0.335	369990	REC_EVENT	4683	n/a	4	4	POND	<>	SOCK	POND	2	[0, 0, 0]	-999	PAL1	0	R1263C
409.259	0.016	370157	REC_END	n/a	n/a	4	-999	n/a	n/a	n/a	n/a	2	[0, 0, 0]	-999	PAL1	0	R1263C
409.275	0.984	370165	TEST_ORIENT	n/a	n/a	1	5	BEAR	n/a	MUG	BEAR	2	[0, 0, 0]	-999	PAL1	0	R1263C
410.259	0.001	370657	TEST_PROBE	n/a	wordpools/wordpool_EN.txt	1	5	BEAR	n/a	MUG	BEAR	2	[0, 0, 0]	-999	PAL1	0	R1263C
410.26	3.917	370658	REC_START	n/a	n/a	1	-999	n/a	n/a	n/a	n/a	2	[0, 0, 0]	-999	PAL1	0	R1263C
414.177	0.25	372616	REC_EVENT	3917	n/a	1	5	BEAR	<>	MUG	BEAR	2	[0, 0, 0]	-999	PAL1	0	R1263C
414.427	0.842	372741	REC_EVENT	4167	n/a	1	5	BEAR	<>	MUG	BEAR	2	[0, 0, 0]	-999	PAL1	0	R1263C
415.269	0.008	373162	REC_END	n/a	n/a	1	-999	n/a	n/a	n/a	n/a	2	[0, 0, 0]	-999	PAL1	0	R1263C
415.277	0.916	373166	TEST_ORIENT	n/a	n/a	2	6	RAKE	n/a	RAKE	PLANE	2	[0, 0, 0]	-999	PAL1	0	R1263C
416.193	0.001	373624	TEST_PROBE	n/a	wordpools/wordpool_EN.txt	2	6	RAKE	n/a	RAKE	PLANE	2	[0, 0, 0]	-999	PAL1	0	R1263C
416.194	2.717	373625	REC_START	n/a	n/a	2	-999	n/a	n/a	n/a	n/a	2	[0, 0, 0]	-999	PAL1	0	R1263C
418.911	0.766	374983	REC_EVENT	2717	n/a	2	6	RAKE	<>	RAKE	PLANE	2	[0, 0, 0]	-999	PAL1	0	R1263C
419.677	1.525	375366	REC_EVENT	3483	n/a	2	6	RAKE	<>	RAKE	PLANE	2	[0, 0, 0]	-999	PAL1	0	R1263C
421.202	11.61	376129	REC_END	n/a	n/a	2	-999	n/a	n/a	n/a	n/a	2	[0, 0, 0]	-999	PAL1	0	R1263C
432.812	10.453	381933	ENCODING_START	n/a	n/a	0	-999	n/a	n/a	n/a	n/a	3	[0, 0, 0]	-999	PAL1	0	R1263C
443.265	1.001	387159	STUDY_ORIENT	n/a	n/a	1	3	SEAL	n/a	RAT	SEAL	3	[0, 0, 0]	-999	PAL1	0	R1263C
444.266	5.034	387660	STUDY_PAIR	n/a	wordpools/wordpool_EN.txt	1	3	SEAL	n/a	RAT	SEAL	3	[0, 0, 0]	-999	PAL1	0	R1263C
449.3	0.8	390177	STUDY_ORIENT	n/a	n/a	2	4	FUDGE	n/a	FUDGE	RIB	3	[0, 0, 0]	-999	PAL1	0	R1263C
450.1	5.034	390576	STUDY_PAIR	n/a	wordpools/wordpool_EN.txt	2	4	FUDGE	n/a	FUDGE	RIB	3	[0, 0, 0]	-999	PAL1	0	R1263C
455.134	0.934	393093	STUDY_ORIENT	n/a	n/a	3	1	TREE	n/a	YARD	TREE	3	[0, 0, 0]	-999	PAL1	0	R1263C
456.068	5.034	393560	STUDY_PAIR	n/a	wordpools/wordpool_EN.txt	3	1	TREE	n/a	YARD	TREE	3	[0, 0, 0]	-999	PAL1	0	R1263C
461.102	0.983	396077	STUDY_ORIENT	n/a	n/a	4	2	GOLD	n/a	PHONE	GOLD	3	[0, 0, 0]	-999	PAL1	0	R1263C
462.085	5.018	396569	STUDY_PAIR	n/a	wordpools/wordpool_EN.txt	4	2	GOLD	n/a	PHONE	GOLD	3	[0, 0, 0]	-999	PAL1	0	R1263C
467.103	0.934	399077	STUDY_ORIENT	n/a	n/a	5	5	WORLD	n/a	WORLD	STEM	3	[0, 0, 0]	-999	PAL1	0	R1263C
468.037	5.034	399544	STUDY_PAIR	n/a	wordpools/wordpool_EN.txt	5	5	WORLD	n/a	WORLD	STEM	3	[0, 0, 0]	-999	PAL1	0	R1263C
473.071	0.885	402061	STUDY_ORIENT	n/a	n/a	6	6	BOY	MOUTH	BOY	MOUTH	3	[0, 0, 0]	-999	PAL1	0	R1263C
473.956	4.018	402504	STUDY_PAIR	n/a	wordpools/wordpool_EN.txt	6	6	BOY	MOUTH	BOY	MOUTH	3	[0, 0, 0]	-999	PAL1	0	R1263C
477.974	0.999	404512	START	n/a	n/a	-999	-999	n/a	n/a	n/a	n/a	3	[-999, -999, -999]	-999	PAL1	0	R1263C
478.973	0.017	405012	MATH_START	n/a	n/a	-999	-999	n/a	n/a	n/a	n/a	3	[0, 0, 0]	-999	PAL1	0	R1263C
478.99	9.417	405020	PROB	9390	n/a	-999	-999	n/a	n/a	n/a	n/a	3	[9, 6, 3]	18	PAL1	0	R1263C
488.407	6.135	409729	PROB	6109	n/a	-999	-999	n/a	n/a	n/a	n/a	3	[6, 1, 4]	11	PAL1	0	R1263C
494.542	7.734	412796	PROB	7734	n/a	-999	-999	n/a	n/a	n/a	n/a	3	[2, 8, 9]	19	PAL1	0	R1263C
502.276	0.017	416663	STOP	n/a	n/a	-999	-999	n/a	n/a	n/a	n/a	3	[-999, -999, -999]	-999	PAL1	0	R1263C
502.293	0.0	416671	MATH_END	n/a	n/a	-999	-999	n/a	n/a	n/a	n/a	3	[0, 0, 0]	-999	PAL1	0	R1263C
502.293	0.017	416671	TEST_START	n/a	n/a	-999	-999	n/a	n/a	n/a	n/a	3	[0, 0, 0]	-999	PAL1	0	R1263C
502.31	1.0	416680	TEST_ORIENT	n/a	n/a	3	1	TREE	n/a	YARD	TREE	3	[0, 0, 0]	-999	PAL1	0	R1263C
503.31	0.001	417180	TEST_PROBE	n/a	wordpools/wordpool_EN.txt	3	1	TREE	n/a	YARD	TREE	3	[0, 0, 0]	-999	PAL1	0	R1263C
503.311	1.177	417180	REC_START	n/a	n/a	3	-999	n/a	n/a	n/a	n/a	3	[0, 0, 0]	-999	PAL1	0	R1263C
504.488	0.859	417769	REC_EVENT	1177	n/a	3	1	TREE	<>	YARD	TREE	3	[0, 0, 0]	-999	PAL1	0	R1263C
505.347	2.975	418198	REC_EVENT	2036	n/a	3	1	TREE	<>	YARD	TREE	3	[0, 0, 0]	-999	PAL1	0	R1263C
508.322	0.022	419685	REC_END	n/a	n/a	3	-999	n/a	n/a	n/a	n/a	3	[0, 0, 0]	-999	PAL1	0	R1263C
508.344	1.034	419696	TEST_ORIENT	n/a	n/a	4	2	GOLD	n/a	PHONE	GOLD	3	[0, 0, 0]	-999	PAL1	0	R1263C
509.378	0.0	420213	TEST_PROBE	n/a	wordpools/wordpool_EN.txt	4	2	GOLD	n/a	PHONE	GOLD	3	[0, 0, 0]	-999	PAL1	0	R1263C
509.378	2.555	420213	REC_START	n/a	n/a	4	-999	n/a	n/a	n/a	n/a	3	[0, 0, 0]	-999	PAL1	0	R1263C
511.933	0.511	421491	REC_EVENT	2555	n/a	4	2	GOLD	<>	PHONE	GOLD	3	[0, 0, 0]	-999	PAL1	0	R1263C
512.444	1.951	421746	REC_EVENT	3066	n/a	4	2	GOLD	<>	PHONE	GOLD	3	[0, 0, 0]	-999	PAL1	0	R1263C
514.395	0.017	422722	REC_END	n/a	n/a	4	-999	n/a	n/a	n/a	n/a	3	[0, 0, 0]	-999	PAL1	0	R1263C
514.412	0.85	422730	TEST_ORIENT	n/a	n/a	1	3	SEAL	n/a	RAT	SEAL	3	[0, 0, 0]	-999	PAL1	0	R1263C
515.262	0.001	423155	TEST_PROBE	n/a	wordpools/wordpool_EN.txt	1	3	SEAL	n/a	RAT	SEAL	3	[0, 0, 0]	-999	PAL1	0	R1263C
515.263	4.049	423156	REC_START	n/a	n/a	1	-999	n/a	n/a	n/a	n/a	3	[0, 0, 0]	-999	PAL1	0	R1263C
519.312	0.96	425180	REC_EVENT	4049	n/a	1	3	SEAL	<>	RAT	SEAL	3	[0, 0, 0]	-999	PAL1	0	R1263C
520.272	0.002	425660	REC_EVENT	5009	n/a	1	3	SEAL	<>	RAT	SEAL	3	[0, 0, 0]	-999	PAL1	0	R1263C
520.274	0.023	425661	REC_END	n/a	n/a	1	-999	n/a	n/a	n/a	n/a	3	[0, 0, 0]	-999	PAL1	0	R1263C
520.297	0.933	425672	TEST_ORIENT	n/a	n/a	2	4	FUDGE	n/a	FUDGE	RIB	3	[0, 0, 0]	-999	PAL1	0	R1263C
521.23	0.001	426139	TEST_PROBE	n/a	wordpools/wordpool_EN.txt	2	4	FUDGE	n/a	FUDGE	RIB	3	[0, 0, 0]	-999	PAL1	0	R1263C
521.231	2.112	426139	REC_START	n/a	n/a	2	-999	n/a	n/a	n/a	n/a	3	[0, 0, 0]	-999	PAL1	0	R1263C
523.343	0.739	427195	REC_EVENT	2112	n/a	2	4	FUDGE	<>	FUDGE	RIB	3	[0, 0, 0]	-999	PAL1	0	R1263C
524.082	2.16	427565	REC_EVENT	2851	n/a	2	4	FUDGE	<>	FUDGE	RIB	3	[0, 0, 0]	-999	PAL1	0	R1263C
526.242	0.023	428645	REC_END	n/a	n/a	2	-999	n/a	n/a	n/a	n/a	3	[0, 0, 0]	-999	PAL1	0	R1263C
526.265	0.833	428656	TEST_ORIENT	n/a	n/a	5	5	WORLD	n/a	WORLD	STEM	3	[0, 0, 0]	-999	PAL1	0	R1263C
527.098	0.001	429073	TEST_PROBE	n/a	wordpools/wordpool_EN.txt	5	5	WORLD	n/a	WORLD	STEM	3	[0, 0, 0]	-999	PAL1	0	R1263C
527.099	2.503	429073	REC_START	n/a	n/a	5	-999	n/a	n/a	n/a	n/a	3	[0, 0, 0]	-999	PAL1	0	R1263C
529.602	0.159	430325	REC_EVENT	2503	n/a	5	5	WORLD	<>	WORLD	STEM	3	[0, 0, 0]	-999	PAL1	0	R1263C
529.761	2.366	430404	REC_EVENT	2662	n/a	5	5	WORLD	<>	WORLD	STEM	3	[0, 0, 0]	-999	PAL1	0	R1263C
532.127	0.022	431587	REC_END	n/a	n/a	5	-999	n/a	n/a	n/a	n/a	3	[0, 0, 0]	-999	PAL1	0	R1263C
532.149	0.967	431598	TEST_ORIENT	n/a	n/a	6	6	BOY	MOUTH	BOY	MOUTH	3	[0, 0, 0]	-999	PAL1	0	R1263C
533.116	0.0	432082	TEST_PROBE	n/a	wordpools/wordpool_EN.txt	6	6	BOY	MOUTH	BOY	MOUTH	3	[0, 0, 0]	-999	PAL1	0	R1263C
533.116	1.32	432082	REC_START	n/a	n/a	6	-999	n/a	MOUTH	n/a	n/a	3	[0, 0, 0]	-999	PAL1	0	R1263C
534.436	0.729	432741	REC_EVENT	1320	n/a	6	6	BOY	MOUTH	BOY	MOUTH	3	[0, 0, 0]	-999	PAL1	0	R1263C
535.165	2.968	433106	REC_EVENT	2049	n/a	6	6	BOY	<>	BOY	MOUTH	3	[0, 0, 0]	-999	PAL1	0	R1263C
538.133	2.623	434590	REC_END	n/a	n/a	6	-999	n/a	n/a	n/a	n/a	3	[0, 0, 0]	-999	PAL1	0	R1263C
540.756	10.447	435901	ENCODING_START	n/a	n/a	0	-999	n/a	n/a	n/a	n/a	4	[0, 0, 0]	-999	PAL1	0	R1263C
551.203	1.0	441124	STUDY_ORIENT	n/a	n/a	1	1	DEER	LAWN	DEER	LAWN	4	[0, 0, 0]	-999	PAL1	0	R1263C
552.203	5.034	441624	STUDY_PAIR	n/a	wordpools/wordpool_EN.txt	1	1	DEER	LAWN	DEER	LAWN	4	[0, 0, 0]	-999	PAL1	0	R1263C
557.237	0.884	444141	STUDY_ORIENT	n/a	n/a	2	2	CAR	SMILE	CAR	SMILE	4	[0, 0, 0]	-999	PAL1	0	R1263C
558.121	5.034	444583	STUDY_PAIR	n/a	wordpools/wordpool_EN.txt	2	2	CAR	SMILE	CAR	SMILE	4	[0, 0, 0]	-999	PAL1	0	R1263C
563.155	0.9	447100	STUDY_ORIENT	n/a	n/a	3	5	PEACH	BRUSH	PEACH	BRUSH	4	[0, 0, 0]	-999	PAL1	0	R1263C
564.055	5.034	447550	STUDY_PAIR	n/a	wordpools/wordpool_EN.txt	3	5	PEACH	BRUSH	PEACH	BRUSH	4	[0, 0, 0]	-999	PAL1	0	R1263C
569.089	0.967	450067	STUDY_ORIENT	n/a	n/a	4	6	SOAP	n/a	TOAD	SOAP	4	[0, 0, 0]	-999	PAL1	0	R1263C
570.056	5.018	450550	STUDY_PAIR	n/a	wordpools/wordpool_EN.txt	4	6	SOAP	n/a	TOAD	SOAP	4	[0, 0, 0]	-999	PAL1	0	R1263C
575.074	0.817	453059	STUDY_ORIENT	n/a	n/a	5	3	SHRIMP	n/a	CLOWN	SHRIMP	4	[0, 0, 0]	-999	PAL1	0	R1263C
575.891	5.035	453468	STUDY_PAIR	n/a	wordpools/wordpool_EN.txt	5	3	SHRIMP	n/a	CLOWN	SHRIMP	4	[0, 0, 0]	-999	PAL1	0	R1263C
580.926	1.0	455985	STUDY_ORIENT	n/a	n/a	6	4	PURSE	SLEEVE	SLEEVE	PURSE	4	[0, 0, 0]	-999	PAL1	0	R1263C
581.926	4.001	456485	STUDY_PAIR	n/a	wordpools/wordpool_EN.txt	6	4	PURSE	SLEEVE	SLEEVE	PURSE	4	[0, 0, 0]	-999	PAL1	0	R1263C
585.927	1.0	458485	START	n/a	n/a	-999	-999	n/a	n/a	n/a	n/a	4	[-999, -999, -999]	-999	PAL1	0	R1263C
586.927	0.017	458985	MATH_START	n/a	n/a	-999	-999	n/a	n/a	n/a	n/a	4	[0, 0, 0]	-999	PAL1	0	R1263C
586.944	12.618	458994	PROB	12588	n/a	-999	-999	n/a	n/a	n/a	n/a	4	[6, 5, 9]	20	PAL1	0	R1263C
599.562	8.97	465302	PROB	8970	n/a	-999	-999	n/a	n/a	n/a	n/a	4	[3, 8, 4]	15	PAL1	0	R1263C
608.532	0.015	469787	STOP	n/a	n/a	-999	-999	n/a	n/a	n/a	n/a	4	[-999, -999, -999]	-999	PAL1	0	R1263C
608.547	0.0	469794	MATH_END	n/a	n/a	-999	-999	n/a	n/a	n/a	n/a	4	[0, 0, 0]	-999	PAL1	0	R1263C
608.547	0.017	469794	TEST_START	n/a	n/a	-999	-999	n/a	n/a	n/a	n/a	4	[0, 0, 0]	-999	PAL1	0	R1263C
608.564	1.017	469803	TEST_ORIENT	n/a	n/a	1	1	DEER	LAWN	DEER	LAWN	4	[0, 0, 0]	-999	PAL1	0	R1263C
609.581	0.0	470311	TEST_PROBE	n/a	wordpools/wordpool_EN.txt	1	1	DEER	LAWN	DEER	LAWN	4	[0, 0, 0]	-999	PAL1	0	R1263C
609.581	2.488	470311	REC_START	n/a	n/a	1	-999	n/a	LAWN	n/a	n/a	4	[0, 0, 0]	-999	PAL1	0	R1263C
612.069	0.697	471555	REC_EVENT	2488	n/a	1	1	DEER	LAWN	DEER	LAWN	4	[0, 0, 0]	-999	PAL1	0	R1263C
612.766	1.832	471904	REC_EVENT	3185	n/a	1	1	DEER	<>	DEER	LAWN	4	[0, 0, 0]	-999	PAL1	0	R1263C
614.598	0.017	472820	REC_END	n/a	n/a	1	-999	n/a	n/a	n/a	n/a	4	[0, 0, 0]	-999	PAL1	0	R1263C
614.615	0.983	472828	TEST_ORIENT	n/a	n/a	2	2	CAR	SMILE	CAR	SMILE	4	[0, 0, 0]	-999	PAL1	0	R1263C
615.598	0.001	473320	TEST_PROBE	n/a	wordpools/wordpool_EN.txt	2	2	CAR	SMILE	CAR	SMILE	4	[0, 0, 0]	-999	PAL1	0	R1263C
615.599	1.137	473320	REC_START	n/a	n/a	2	-999	n/a	SMILE	n/a	n/a	4	[0, 0, 0]	-999	PAL1	0	R1263C
616.736	0.627	473889	REC_EVENT	1137	n/a	2	2	CAR	SMILE	CAR	SMILE	4	[0, 0, 0]	-999	PAL1	0	R1263C
617.363	3.247	474202	REC_EVENT	1764	n/a	2	2	CAR	<>	CAR	SMILE	4	[0, 0, 0]	-999	PAL1	0	R1263C
620.61	0.023	475825	REC_END	n/a	n/a	2	-999	n/a	n/a	n/a	n/a	4	[0, 0, 0]	-999	PAL1	0	R1263C
620.633	0.999	475837	TEST_ORIENT	n/a	n/a	5	3	SHRIMP	n/a	CLOWN	SHRIMP	4	[0, 0, 0]	-999	PAL1	0	R1263C
621.632	0.001	476336	TEST_PROBE	n/a	wordpools/wordpool_EN.txt	5	3	SHRIMP	n/a	CLOWN	SHRIMP	4	[0, 0, 0]	-999	PAL1	0	R1263C
621.633	1.237	476337	REC_START	n/a	n/a	5	-999	n/a	n/a	n/a	n/a	4	[0, 0, 0]	-999	PAL1	0	R1263C
622.87	0.418	476955	REC_EVENT	1237	n/a	5	3	SHRIMP	<>	CLOWN	SHRIMP	4	[0, 0, 0]	-999	PAL1	0	R1263C
623.288	3.356	477164	REC_EVENT	1655	n/a	5	3	SHRIMP	<>	CLOWN	SHRIMP	4	[0, 0, 0]	-999	PAL1	0	R1263C
626.644	0.023	478842	REC_END	n/a	n/a	5	-999	n/a	n/a	n/a	n/a	4	[0, 0, 0]	-999	PAL1	0	R1263C
626.667	0.917	478854	TEST_ORIENT	n/a	n/a	6	4	PURSE	SLEEVE	SLEEVE	PURSE	4	[0, 0, 0]	-999	PAL1	0	R1263C
627.584	0.001	479312	TEST_PROBE	n/a	wordpools/wordpool_EN.txt	6	4	PURSE	SLEEVE	SLEEVE	PURSE	4	[0, 0, 0]	-999	PAL1	0	R1263C
627.585	1.384	479313	REC_START	n/a	n/a	6	-999	n/a	SLEEVE	n/a	n/a	4	[0, 0, 0]	-999	PAL1	0	R1263C
628.969	0.7	480005	REC_EVENT	1384	n/a	6	4	PURSE	SLEEVE	SLEEVE	PURSE	4	[0, 0, 0]	-999	PAL1	0	R1263C
629.669	2.943	480355	REC_EVENT	2084	n/a	6	4	PURSE	<>	SLEEVE	PURSE	4	[0, 0, 0]	-999	PAL1	0	R1263C
632.612	0.023	481826	REC_END	n/a	n/a	6	-999	n/a	n/a	n/a	n/a	4	[0, 0, 0]	-999	PAL1	0	R1263C
632.635	0.85	481838	TEST_ORIENT	n/a	n/a	3	5	PEACH	BRUSH	PEACH	BRUSH	4	[0, 0, 0]	-999	PAL1	0	R1263C
633.485	0.0	482262	TEST_PROBE	n/a	wordpools/wordpool_EN.txt	3	5	PEACH	BRUSH	PEACH	BRUSH	4	[0, 0, 0]	-999	PAL1	0	R1263C
633.485	1.638	482262	REC_START	n/a	n/a	3	-999	n/a	BRUSH	n/a	n/a	4	[0, 0, 0]	-999	PAL1	0	R1263C
635.123	0.702	483081	REC_EVENT	1638	n/a	3	5	PEACH	BRUSH	PEACH	BRUSH	4	[0, 0, 0]	-999	PAL1	0	R1263C
635.825	2.677	483432	REC_EVENT	2340	n/a	3	5	PEACH	<>	PEACH	BRUSH	4	[0, 0, 0]	-999	PAL1	0	R1263C
638.502	0.017	484771	REC_END	n/a	n/a	3	-999	n/a	n/a	n/a	n/a	4	[0, 0, 0]	-999	PAL1	0	R1263C
638.519	0.9	484779	TEST_ORIENT	n/a	n/a	4	6	SOAP	n/a	TOAD	SOAP	4	[0, 0, 0]	-999	PAL1	0	R1263C
639.419	0.001	485229	TEST_PROBE	n/a	wordpools/wordpool_EN.txt	4	6	SOAP	n/a	TOAD	SOAP	4	[0, 0, 0]	-999	PAL1	0	R1263C
639.42	4.636	485230	REC_START	n/a	n/a	4	-999	n/a	n/a	n/a	n/a	4	[0, 0, 0]	-999	PAL1	0	R1263C
644.056	0.373	487548	REC_EVENT	4636	n/a	4	6	SOAP	<>	TOAD	SOAP	4	[0, 0, 0]	-999	PAL1	0	R1263C
644.429	0.002	487734	REC_EVENT	5009	n/a	4	6	SOAP	<>	TOAD	SOAP	4	[0, 0, 0]	-999	PAL1	0	R1263C
644.431	1.837	487735	REC_END	n/a	n/a	4	-999	n/a	n/a	n/a	n/a	4	[0, 0, 0]	-999	PAL1	0	R1263C
646.268	10.438	488654	ENCODING_START	n/a	n/a	0	-999	n/a	n/a	n/a	n/a	5	[0, 0, 0]	-999	PAL1	0	R1263C
656.706	0.933	493872	STUDY_ORIENT	n/a	n/a	1	5	WOLF	n/a	WOLF	SWORD	5	[0, 0, 0]	-999	PAL1	0	R1263C
657.639	5.018	494339	STUDY_PAIR	n/a	wordpools/wordpool_EN.txt	1	5	WOLF	n/a	WOLF	SWORD	5	[0, 0, 0]	-999	PAL1	0	R1263C
662.657	0.9	496847	STUDY_ORIENT	n/a	n/a	2	6	TIE	n/a	PASTE	TIE	5	[0, 0, 0]	-999	PAL1	0	R1263C
663.557	5.018	497297	STUDY_PAIR	n/a	wordpools/wordpool_EN.txt	2	6	TIE	n/a	PASTE	TIE	5	[0, 0, 0]	-999	PAL1	0	R1263C
668.575	0.967	499806	STUDY_ORIENT	n/a	n/a	3	1	BIRD	FROG	FROG	BIRD	5	[0, 0, 0]	-999	PAL1	0	R1263C
669.542	5.034	500290	STUDY_PAIR	n/a	wordpools/wordpool_EN.txt	3	1	BIRD	FROG	FROG	BIRD	5	[0, 0, 0]	-999	PAL1	0	R1263C
674.576	0.917	502807	STUDY_ORIENT	n/a	n/a	4	4	ICE	n/a	SKI	ICE	5	[0, 0, 0]	-999	PAL1	0	R1263C
675.493	5.034	503265	STUDY_PAIR	n/a	wordpools/wordpool_EN.txt	4	4	ICE	n/a	SKI	ICE	5	[0, 0, 0]	-999	PAL1	0	R1263C
680.527	0.984	505782	STUDY_ORIENT	n/a	n/a	5	3	SOUP	n/a	WORM	SOUP	5	[0, 0, 0]	-999	PAL1	0	R1263C
681.511	5.034	506274	STUDY_PAIR	n/a	wordpools/wordpool_EN.txt	5	3	SOUP	n/a	WORM	SOUP	5	[0, 0, 0]	-999	PAL1	0	R1263C
686.545	0.933	508791	STUDY_ORIENT	n/a	n/a	6	2	STORM	n/a	STORM	CAGE	5	[0, 0, 0]	-999	PAL1	0	R1263C
687.478	4.002	509257	STUDY_PAIR	n/a	wordpools/wordpool_EN.txt	6	2	STORM	n/a	STORM	CAGE	5	[0, 0, 0]	-999	PAL1	0	R1263C
691.48	0.999	511258	START	n/a	n/a	-999	-999	n/a	n/a	n/a	n/a	5	[-999, -999, -999]	-999	PAL1	0	R1263C
692.479	0.017	511757	MATH_START	n/a	n/a	-999	-999	n/a	n/a	n/a	n/a	5	[0, 0, 0]	-999	PAL1	0	R1263C
692.496	6.735	511766	PROB	6716	n/a	-999	-999	n/a	n/a	n/a	n/a	5	[1, 2, 8]	11	PAL1	0	R1263C
699.231	7.185	515133	PROB	7165	n/a	-999	-999	n/a	n/a	n/a	n/a	5	[9, 6, 2]	13	PAL1	0	R1263C
706.416	10.716	518725	PROB	10716	n/a	-999	-999	n/a	n/a	n/a	n/a	5	[7, 4, 7]	18	PAL1	0	R1263C
717.132	0.002	524083	STOP	n/a	n/a	-999	-999	n/a	n/a	n/a	n/a	5	[-999, -999, -999]	-999	PAL1	0	R1263C
717.134	0.0	524084	MATH_END	n/a	n/a	-999	-999	n/a	n/a	n/a	n/a	5	[0, 0, 0]	-999	PAL1	0	R1263C
717.134	0.017	524084	TEST_START	n/a	n/a	-999	-999	n/a	n/a	n/a	n/a	5	[0, 0, 0]	-999	PAL1	0	R1263C
717.151	0.85	524093	TEST_ORIENT	n/a	n/a	3	1	BIRD	FROG	FROG	BIRD	5	[0, 0, 0]	-999	PAL1	0	R1263C
718.001	0.001	524517	TEST_PROBE	n/a	wordpools/wordpool_EN.txt	3	1	BIRD	FROG	FROG	BIRD	5	[0, 0, 0]	-999	PAL1	0	R1263C
718.002	1.004	524518	REC_START	n/a	n/a	3	-999	n/a	FROG	n/a	n/a	5	[0, 0, 0]	-999	PAL1	0	R1263C
719.006	1.0	525020	REC_EVENT	1004	n/a	3	1	BIRD	<>	FROG	BIRD	5	[0, 0, 0]	-999	PAL1	0	R1263C
720.006	0.631	525520	REC_EVENT	2004	n/a	3	1	BIRD	<>	FROG	BIRD	5	[0, 0, 0]	-999	PAL1	0	R1263C
720.637	0.557	525835	REC_EVENT	2635	n/a	3	1	BIRD	FROG	FROG	BIRD	5	[0, 0, 0]	-999	PAL1	0	R1263C
721.194	1.819	526114	REC_EVENT	3192	n/a	3	1	BIRD	<>	FROG	BIRD	5	[0, 0, 0]	-999	PAL1	0	R1263C
723.013	0.023	527023	REC_END	n/a	n/a	3	-999	n/a	n/a	n/a	n/a	5	[0, 0, 0]	-999	PAL1	0	R1263C
723.036	0.951	527035	TEST_ORIENT	n/a	n/a	6	2	STORM	n/a	STORM	CAGE	5	[0, 0, 0]	-999	PAL1	0	R1263C
723.987	0.0	527510	TEST_PROBE	n/a	wordpools/wordpool_EN.txt	6	2	STORM	n/a	STORM	CAGE	5	[0, 0, 0]	-999	PAL1	0	R1263C
723.987	4.015	527510	REC_START	n/a	n/a	6	-999	n/a	n/a	n/a	n/a	5	[0, 0, 0]	-999	PAL1	0	R1263C
728.002	0.5	529518	REC_EVENT	4015	n/a	6	2	STORM	<>	STORM	CAGE	5	[0, 0, 0]	-999	PAL1	0	R1263C
728.502	0.501	529768	REC_EVENT	4515	n/a	6	2	STORM	<>	STORM	CAGE	5	[0, 0, 0]	-999	PAL1	0	R1263C
729.003	0.017	530018	REC_END	n/a	n/a	6	-999	n/a	n/a	n/a	n/a	5	[0, 0, 0]	-999	PAL1	0	R1263C
729.02	0.934	530027	TEST_ORIENT	n/a	n/a	5	3	SOUP	n/a	WORM	SOUP	5	[0, 0, 0]	-999	PAL1	0	R1263C
729.954	0.001	530494	TEST_PROBE	n/a	wordpools/wordpool_EN.txt	5	3	SOUP	n/a	WORM	SOUP	5	[0, 0, 0]	-999	PAL1	0	R1263C
729.955	1.509	530494	REC_START	n/a	n/a	5	-999	n/a	n/a	n/a	n/a	5	[0, 0, 0]	-999	PAL1	0	R1263C
731.464	1.463	531249	REC_EVENT	1509	n/a	5	3	SOUP	<>	WORM	SOUP	5	[0, 0, 0]	-999	PAL1	0	R1263C
732.927	2.039	531980	REC_EVENT	2972	n/a	5	3	SOUP	<>	WORM	SOUP	5	[0, 0, 0]	-999	PAL1	0	R1263C
734.966	0.023	532999	REC_END	n/a	n/a	5	-999	n/a	n/a	n/a	n/a	5	[0, 0, 0]	-999	PAL1	0	R1263C
734.989	0.866	533011	TEST_ORIENT	n/a	n/a	4	4	ICE	n/a	SKI	ICE	5	[0, 0, 0]	-999	PAL1	0	R1263C
735.855	0.0	533444	REC_START	n/a	n/a	4	-999	n/a	n/a	n/a	n/a	5	[0, 0, 0]	-999	PAL1	0	R1263C
735.855	1.825	533444	TEST_PROBE	n/a	wordpools/wordpool_EN.txt	4	4	ICE	n/a	SKI	ICE	5	[0, 0, 0]	-999	PAL1	0	R1263C
737.68	1.301	534356	REC_EVENT	1825	n/a	4	4	ICE	<>	SKI	ICE	5	[0, 0, 0]	-999	PAL1	0	R1263C
738.981	1.891	535007	REC_EVENT	3126	n/a	4	4	ICE	<>	SKI	ICE	5	[0, 0, 0]	-999	PAL1	0	R1263C
740.872	0.017	535952	REC_END	n/a	n/a	4	-999	n/a	n/a	n/a	n/a	5	[0, 0, 0]	-999	PAL1	0	R1263C
740.889	0.95	535961	TEST_ORIENT	n/a	n/a	1	5	WOLF	n/a	WOLF	SWORD	5	[0, 0, 0]	-999	PAL1	0	R1263C
741.839	0.001	536436	TEST_PROBE	n/a	wordpools/wordpool_EN.txt	1	5	WOLF	n/a	WOLF	SWORD	5	[0, 0, 0]	-999	PAL1	0	R1263C
741.84	2.795	536436	REC_START	n/a	n/a	1	-999	n/a	n/a	n/a	n/a	5	[0, 0, 0]	-999	PAL1	0	R1263C
744.635	0.139	537834	REC_EVENT	2795	n/a	1	5	WOLF	<>	WOLF	SWORD	5	[0, 0, 0]	-999	PAL1	0	R1263C
744.774	2.082	537903	REC_EVENT	2934	n/a	1	5	WOLF	<>	WOLF	SWORD	5	[0, 0, 0]	-999	PAL1	0	R1263C
746.856	0.017	538944	REC_END	n/a	n/a	1	-999	n/a	n/a	n/a	n/a	5	[0, 0, 0]	-999	PAL1	0	R1263C
746.873	0.967	538952	TEST_ORIENT	n/a	n/a	2	6	TIE	n/a	PASTE	TIE	5	[0, 0, 0]	-999	PAL1	0	R1263C
747.84	0.001	539436	TEST_PROBE	n/a	wordpools/wordpool_EN.txt	2	6	TIE	n/a	PASTE	TIE	5	[0, 0, 0]	-999	PAL1	0	R1263C
747.841	4.118	539436	REC_START	n/a	n/a	2	-999	n/a	n/a	n/a	n/a	5	[0, 0, 0]	-999	PAL1	0	R1263C
751.959	0.109	541495	REC_EVENT	4118	n/a	2	6	TIE	<>	PASTE	TIE	5	[0, 0, 0]	-999	PAL1	0	R1263C
752.068	0.773	541550	REC_EVENT	4227	n/a	2	6	TIE	<>	PASTE	TIE	5	[0, 0, 0]	-999	PAL1	0	R1263C
752.841	1.779	541936	REC_END	n/a	n/a	2	-999	n/a	n/a	n/a	n/a	5	[0, 0, 0]	-999	PAL1	0	R1263C
754.62	10.44	542826	ENCODING_START	n/a	n/a	0	-999	n/a	n/a	n/a	n/a	6	[0, 0, 0]	-999	PAL1	0	R1263C
765.06	0.901	548045	STUDY_ORIENT	n/a	n/a	1	5	THUMB	STRING	THUMB	STRING	6	[0, 0, 0]	-999	PAL1	0	R1263C
765.961	5.018	548496	STUDY_PAIR	n/a	wordpools/wordpool_EN.txt	1	5	THUMB	STRING	THUMB	STRING	6	[0, 0, 0]	-999	PAL1	0	R1263C
770.979	1.0	551005	STUDY_ORIENT	n/a	n/a	2	4	GRASS	THUMB	GRASS	LEG	6	[0, 0, 0]	-999	PAL1	0	R1263C
771.979	5.017	551505	STUDY_PAIR	n/a	wordpools/wordpool_EN.txt	2	4	GRASS	THUMB	GRASS	LEG	6	[0, 0, 0]	-999	PAL1	0	R1263C
776.996	0.85	554013	STUDY_ORIENT	n/a	n/a	3	1	COIN	n/a	MOLE	COIN	6	[0, 0, 0]	-999	PAL1	0	R1263C
777.846	5.034	554438	STUDY_PAIR	n/a	wordpools/wordpool_EN.txt	3	1	COIN	n/a	MOLE	COIN	6	[0, 0, 0]	-999	PAL1	0	R1263C
782.88	0.9	556955	STUDY_ORIENT	n/a	n/a	4	2	SHARK	CAVE	SHARK	CAVE	6	[0, 0, 0]	-999	PAL1	0	R1263C
783.78	5.018	557405	STUDY_PAIR	n/a	wordpools/wordpool_EN.txt	4	2	SHARK	CAVE	SHARK	CAVE	6	[0, 0, 0]	-999	PAL1	0	R1263C
788.798	0.984	559913	STUDY_ORIENT	n/a	n/a	5	3	FRUIT	BRUSH	VASE	FRUIT	6	[0, 0, 0]	-999	PAL1	0	R1263C
789.782	5.034	560405	STUDY_PAIR	n/a	wordpools/wordpool_EN.txt	5	3	FRUIT	BRUSH	VASE	FRUIT	6	[0, 0, 0]	-999	PAL1	0	R1263C
794.816	0.883	562922	STUDY_ORIENT	n/a	n/a	6	6	PLANT	TENT	PLANT	TENT	6	[0, 0, 0]	-999	PAL1	0	R1263C
795.699	4.001	563364	STUDY_PAIR	n/a	wordpools/wordpool_EN.txt	6	6	PLANT	TENT	PLANT	TENT	6	[0, 0, 0]	-999	PAL1	0	R1263C
799.7	1.0	565364	START	n/a	n/a	-999	-999	n/a	n/a	n/a	n/a	6	[-999, -999, -999]	-999	PAL1	0	R1263C
800.7	0.017	565864	MATH_START	n/a	n/a	-999	-999	n/a	n/a	n/a	n/a	6	[0, 0, 0]	-999	PAL1	0	R1263C
800.717	13.669	565873	PROB	13639	n/a	-999	-999	n/a	n/a	n/a	n/a	6	[3, 8, 3]	14	PAL1	0	R1263C
814.386	6.778	572707	PROB	6778	n/a	-999	-999	n/a	n/a	n/a	n/a	6	[5, 9, 5]	19	PAL1	0	R1263C
821.164	0.007	576095	STOP	n/a	n/a	-999	-999	n/a	n/a	n/a	n/a	6	[-999, -999, -999]	-999	PAL1	0	R1263C
821.171	0.0	576099	TEST_START	n/a	n/a	-999	-999	n/a	n/a	n/a	n/a	6	[0, 0, 0]	-999	PAL1	0	R1263C
821.171	0.017	576099	MATH_END	n/a	n/a	-999	-999	n/a	n/a	n/a	n/a	6	[0, 0, 0]	-999	PAL1	0	R1263C
821.188	0.849	576107	TEST_ORIENT	n/a	n/a	3	1	COIN	n/a	MOLE	COIN	6	[0, 0, 0]	-999	PAL1	0	R1263C
822.037	0.001	576532	TEST_PROBE	n/a	wordpools/wordpool_EN.txt	3	1	COIN	n/a	MOLE	COIN	6	[0, 0, 0]	-999	PAL1	0	R1263C
822.038	1.021	576532	REC_START	n/a	n/a	3	-999	n/a	n/a	n/a	n/a	6	[0, 0, 0]	-999	PAL1	0	R1263C
823.059	0.05	577043	REC_EVENT	1021	n/a	3	1	COIN	<>	MOLE	COIN	6	[0, 0, 0]	-999	PAL1	0	R1263C
823.109	3.94	577068	REC_EVENT	1071	n/a	3	1	COIN	<>	MOLE	COIN	6	[0, 0, 0]	-999	PAL1	0	R1263C
827.049	0.023	579038	REC_END	n/a	n/a	3	-999	n/a	n/a	n/a	n/a	6	[0, 0, 0]	-999	PAL1	0	R1263C
827.072	0.934	579049	TEST_ORIENT	n/a	n/a	4	2	SHARK	CAVE	SHARK	CAVE	6	[0, 0, 0]	-999	PAL1	0	R1263C
828.006	0.0	579516	TEST_PROBE	n/a	wordpools/wordpool_EN.txt	4	2	SHARK	CAVE	SHARK	CAVE	6	[0, 0, 0]	-999	PAL1	0	R1263C
828.006	2.478	579516	REC_START	n/a	n/a	4	-999	n/a	CAVE	n/a	n/a	6	[0, 0, 0]	-999	PAL1	0	R1263C
830.484	0.653	580755	REC_EVENT	2478	n/a	4	2	SHARK	CAVE	SHARK	CAVE	6	[0, 0, 0]	-999	PAL1	0	R1263C
831.137	1.886	581081	REC_EVENT	3131	n/a	4	2	SHARK	<>	SHARK	CAVE	6	[0, 0, 0]	-999	PAL1	0	R1263C
833.023	0.017	582024	REC_END	n/a	n/a	4	-999	n/a	n/a	n/a	n/a	6	[0, 0, 0]	-999	PAL1	0	R1263C
833.04	0.867	582033	TEST_ORIENT	n/a	n/a	5	3	FRUIT	BRUSH	VASE	FRUIT	6	[0, 0, 0]	-999	PAL1	0	R1263C
833.907	0.0	582466	REC_START	n/a	n/a	5	-999	n/a	BRUSH	n/a	n/a	6	[0, 0, 0]	-999	PAL1	0	R1263C
833.907	3.872	582466	TEST_PROBE	n/a	wordpools/wordpool_EN.txt	5	3	FRUIT	BRUSH	VASE	FRUIT	6	[0, 0, 0]	-999	PAL1	0	R1263C
837.779	0.47	584402	REC_EVENT	3872	n/a	5	3	FRUIT	BRUSH	VASE	FRUIT	6	[0, 0, 0]	-999	PAL1	0	R1263C
838.249	0.676	584637	REC_EVENT	4342	n/a	5	3	FRUIT	<>	VASE	FRUIT	6	[0, 0, 0]	-999	PAL1	0	R1263C
838.925	0.017	584975	REC_END	n/a	n/a	5	-999	n/a	n/a	n/a	n/a	6	[0, 0, 0]	-999	PAL1	0	R1263C
838.942	0.832	584984	TEST_ORIENT	n/a	n/a	2	4	GRASS	THUMB	GRASS	LEG	6	[0, 0, 0]	-999	PAL1	0	R1263C
839.774	0.001	585400	TEST_PROBE	n/a	wordpools/wordpool_EN.txt	2	4	GRASS	THUMB	GRASS	LEG	6	[0, 0, 0]	-999	PAL1	0	R1263C
839.775	3.274	585400	REC_START	n/a	n/a	2	-999	n/a	THUMB	n/a	n/a	6	[0, 0, 0]	-999	PAL1	0	R1263C
843.049	0.534	587037	REC_EVENT	3274	n/a	2	4	GRASS	THUMB	GRASS	LEG	6	[0, 0, 0]	-999	PAL1	0	R1263C
843.583	1.203	587304	REC_EVENT	3808	n/a	2	4	GRASS	<>	GRASS	LEG	6	[0, 0, 0]	-999	PAL1	0	R1263C
844.786	0.023	587905	REC_END	n/a	n/a	2	-999	n/a	n/a	n/a	n/a	6	[0, 0, 0]	-999	PAL1	0	R1263C
844.809	0.867	587917	TEST_ORIENT	n/a	n/a	1	5	THUMB	STRING	THUMB	STRING	6	[0, 0, 0]	-999	PAL1	0	R1263C
845.676	0.0	588350	TEST_PROBE	n/a	wordpools/wordpool_EN.txt	1	5	THUMB	STRING	THUMB	STRING	6	[0, 0, 0]	-999	PAL1	0	R1263C
845.676	2.589	588350	REC_START	n/a	n/a	1	-999	n/a	STRING	n/a	n/a	6	[0, 0, 0]	-999	PAL1	0	R1263C
848.265	0.58	589645	REC_EVENT	2589	n/a	1	5	THUMB	STRING	THUMB	STRING	6	[0, 0, 0]	-999	PAL1	0	R1263C
848.845	1.859	589935	REC_EVENT	3169	n/a	1	5	THUMB	<>	THUMB	STRING	6	[0, 0, 0]	-999	PAL1	0	R1263C
850.704	0.023	590864	REC_END	n/a	n/a	1	-999	n/a	n/a	n/a	n/a	6	[0, 0, 0]	-999	PAL1	0	R1263C
850.727	1.0	590876	TEST_ORIENT	n/a	n/a	6	6	PLANT	TENT	PLANT	TENT	6	[0, 0, 0]	-999	PAL1	0	R1263C
851.727	0.0	591376	TEST_PROBE	n/a	wordpools/wordpool_EN.txt	6	6	PLANT	TENT	PLANT	TENT	6	[0, 0, 0]	-999	PAL1	0	R1263C
851.727	3.998	591376	REC_START	n/a	n/a	6	-999	n/a	TENT	n/a	n/a	6	[0, 0, 0]	-999	PAL1	0	R1263C
855.725	0.254	593375	REC_EVENT	3998	n/a	6	6	PLANT	TENT	PLANT	TENT	6	[0, 0, 0]	-999	PAL1	0	R1263C
855.979	0.227	593502	REC_EVENT	4252	n/a	6	6	PLANT	<>	PLANT	TENT	6	[0, 0, 0]	-999	PAL1	0	R1263C
856.206	0.536	593615	REC_EVENT	4479	n/a	6	6	PLANT	TENT	PLANT	TENT	6	[0, 0, 0]	-999	PAL1	0	R1263C
856.742	0.002	593883	REC_EVENT	5015	n/a	6	6	PLANT	<>	PLANT	TENT	6	[0, 0, 0]	-999	PAL1	0	R1263C
856.744	3.316	593884	REC_END	n/a	n/a	6	-999	n/a	n/a	n/a	n/a	6	[0, 0, 0]	-999	PAL1	0	R1263C
860.06	10.437	595542	ENCODING_START	n/a	n/a	0	-999	n/a	n/a	n/a	n/a	7	[0, 0, 0]	-999	PAL1	0	R1263C
870.497	0.983	600760	STUDY_ORIENT	n/a	n/a	1	5	CONE	MUD	MUD	CONE	7	[0, 0, 0]	-999	PAL1	0	R1263C
871.48	5.018	601252	STUDY_PAIR	n/a	wordpools/wordpool_EN.txt	1	5	CONE	MUD	MUD	CONE	7	[0, 0, 0]	-999	PAL1	0	R1263C
876.498	1.0	603760	STUDY_ORIENT	n/a	n/a	2	6	BLOOM	n/a	CLIFF	BLOOM	7	[0, 0, 0]	-999	PAL1	0	R1263C
877.498	5.018	604260	STUDY_PAIR	n/a	wordpools/wordpool_EN.txt	2	6	BLOOM	n/a	CLIFF	BLOOM	7	[0, 0, 0]	-999	PAL1	0	R1263C
882.516	0.933	606769	STUDY_ORIENT	n/a	n/a	3	1	COUCH	SHIP	SHIP	COUCH	7	[0, 0, 0]	-999	PAL1	0	R1263C
883.449	5.018	607236	STUDY_PAIR	n/a	wordpools/wordpool_EN.txt	3	1	COUCH	SHIP	SHIP	COUCH	7	[0, 0, 0]	-999	PAL1	0	R1263C
888.467	0.984	609744	STUDY_ORIENT	n/a	n/a	4	2	ROAD	CART	ROAD	CHAIR	7	[0, 0, 0]	-999	PAL1	0	R1263C
889.451	5.034	610236	STUDY_PAIR	n/a	wordpools/wordpool_EN.txt	4	2	ROAD	CART	ROAD	CHAIR	7	[0, 0, 0]	-999	PAL1	0	R1263C
894.485	0.867	612753	STUDY_ORIENT	n/a	n/a	5	3	DART	BIRD	WING	DART	7	[0, 0, 0]	-999	PAL1	0	R1263C
895.352	5.034	613187	STUDY_PAIR	n/a	wordpools/wordpool_EN.txt	5	3	DART	BIRD	WING	DART	7	[0, 0, 0]	-999	PAL1	0	R1263C
900.386	0.934	615704	STUDY_ORIENT	n/a	n/a	6	4	CART	n/a	CART	FUR	7	[0, 0, 0]	-999	PAL1	0	R1263C
901.32	4.018	616170	STUDY_PAIR	n/a	wordpools/wordpool_EN.txt	6	4	CART	n/a	CART	FUR	7	[0, 0, 0]	-999	PAL1	0	R1263C
905.338	0.999	618179	START	n/a	n/a	-999	-999	n/a	n/a	n/a	n/a	7	[-999, -999, -999]	-999	PAL1	0	R1263C
906.337	0.017	618679	MATH_START	n/a	n/a	-999	-999	n/a	n/a	n/a	n/a	7	[0, 0, 0]	-999	PAL1	0	R1263C
906.354	7.735	618687	PROB	7714	n/a	-999	-999	n/a	n/a	n/a	n/a	7	[3, 5, 4]	12	PAL1	0	R1263C
914.089	8.785	622555	PROB	8755	n/a	-999	-999	n/a	n/a	n/a	n/a	7	[7, 9, 7]	23	PAL1	0	R1263C
922.874	8.842	626947	PROB	8842	n/a	-999	-999	n/a	n/a	n/a	n/a	7	[9, 2, 3]	14	PAL1	0	R1263C
931.716	0.009	631367	STOP	n/a	n/a	-999	-999	n/a	n/a	n/a	n/a	7	[-999, -999, -999]	-999	PAL1	0	R1263C
931.725	0.0	631372	MATH_END	n/a	n/a	-999	-999	n/a	n/a	n/a	n/a	7	[0, 0, 0]	-999	PAL1	0	R1263C
931.725	0.017	631372	TEST_START	n/a	n/a	-999	-999	n/a	n/a	n/a	n/a	7	[0, 0, 0]	-999	PAL1	0	R1263C
931.742	0.967	631380	TEST_ORIENT	n/a	n/a	3	1	COUCH	SHIP	SHIP	COUCH	7	[0, 0, 0]	-999	PAL1	0	R1263C
932.709	0.0	631864	TEST_PROBE	n/a	wordpools/wordpool_EN.txt	3	1	COUCH	SHIP	SHIP	COUCH	7	[0, 0, 0]	-999	PAL1	0	R1263C
932.709	1.944	631864	REC_START	n/a	n/a	3	-999	n/a	SHIP	n/a	n/a	7	[0, 0, 0]	-999	PAL1	0	R1263C
934.653	0.753	632836	REC_EVENT	1944	n/a	3	1	COUCH	SHIP	SHIP	COUCH	7	[0, 0, 0]	-999	PAL1	0	R1263C
935.406	2.32	633212	REC_EVENT	2697	n/a	3	1	COUCH	<>	SHIP	COUCH	7	[0, 0, 0]	-999	PAL1	0	R1263C
937.726	0.017	634372	REC_END	n/a	n/a	3	-999	n/a	n/a	n/a	n/a	7	[0, 0, 0]	-999	PAL1	0	R1263C
937.743	0.95	634381	TEST_ORIENT	n/a	n/a	4	2	ROAD	CART	ROAD	CHAIR	7	[0, 0, 0]	-999	PAL1	0	R1263C
938.693	0.001	634856	TEST_PROBE	n/a	wordpools/wordpool_EN.txt	4	2	ROAD	CART	ROAD	CHAIR	7	[0, 0, 0]	-999	PAL1	0	R1263C
938.694	3.289	634856	REC_START	n/a	n/a	4	-999	n/a	CART	n/a	n/a	7	[0, 0, 0]	-999	PAL1	0	R1263C
941.983	0.487	636501	REC_EVENT	3289	n/a	4	2	ROAD	CART	ROAD	CHAIR	7	[0, 0, 0]	-999	PAL1	0	R1263C
942.47	1.235	636744	REC_EVENT	3776	n/a	4	2	ROAD	<>	ROAD	CHAIR	7	[0, 0, 0]	-999	PAL1	0	R1263C
943.705	0.023	637361	REC_END	n/a	n/a	4	-999	n/a	n/a	n/a	n/a	7	[0, 0, 0]	-999	PAL1	0	R1263C
943.728	0.916	637373	TEST_ORIENT	n/a	n/a	5	3	DART	BIRD	WING	DART	7	[0, 0, 0]	-999	PAL1	0	R1263C
944.644	0.001	637831	TEST_PROBE	n/a	wordpools/wordpool_EN.txt	5	3	DART	BIRD	WING	DART	7	[0, 0, 0]	-999	PAL1	0	R1263C
944.645	2.37	637831	REC_START	n/a	n/a	5	-999	n/a	BIRD	n/a	n/a	7	[0, 0, 0]	-999	PAL1	0	R1263C
947.015	0.388	639016	REC_EVENT	2370	n/a	5	3	DART	BIRD	WING	DART	7	[0, 0, 0]	-999	PAL1	0	R1263C
947.403	2.253	639210	REC_EVENT	2758	n/a	5	3	DART	<>	WING	DART	7	[0, 0, 0]	-999	PAL1	0	R1263C
949.656	0.023	640337	REC_END	n/a	n/a	5	-999	n/a	n/a	n/a	n/a	7	[0, 0, 0]	-999	PAL1	0	R1263C
949.679	0.95	640348	TEST_ORIENT	n/a	n/a	6	4	CART	n/a	CART	FUR	7	[0, 0, 0]	-999	PAL1	0	R1263C
950.629	0.001	640823	TEST_PROBE	n/a	wordpools/wordpool_EN.txt	6	4	CART	n/a	CART	FUR	7	[0, 0, 0]	-999	PAL1	0	R1263C
950.63	3.622	640824	REC_START	n/a	n/a	6	-999	n/a	n/a	n/a	n/a	7	[0, 0, 0]	-999	PAL1	0	R1263C
954.252	0.5	642635	REC_EVENT	3622	n/a	6	4	CART	<>	CART	FUR	7	[0, 0, 0]	-999	PAL1	0	R1263C
954.752	0.894	642885	REC_EVENT	4122	n/a	6	4	CART	<>	CART	FUR	7	[0, 0, 0]	-999	PAL1	0	R1263C
955.646	0.017	643332	REC_END	n/a	n/a	6	-999	n/a	n/a	n/a	n/a	7	[0, 0, 0]	-999	PAL1	0	R1263C
955.663	0.867	643340	TEST_ORIENT	n/a	n/a	1	5	CONE	MUD	MUD	CONE	7	[0, 0, 0]	-999	PAL1	0	R1263C
956.53	0.0	643774	TEST_PROBE	n/a	wordpools/wordpool_EN.txt	1	5	CONE	MUD	MUD	CONE	7	[0, 0, 0]	-999	PAL1	0	R1263C
956.53	2.098	643774	REC_START	n/a	n/a	1	-999	n/a	MUD	n/a	n/a	7	[0, 0, 0]	-999	PAL1	0	R1263C
958.628	0.58	644822	REC_EVENT	2098	n/a	1	5	CONE	MUD	MUD	CONE	7	[0, 0, 0]	-999	PAL1	0	R1263C
959.208	2.339	645112	REC_EVENT	2678	n/a	1	5	CONE	<>	MUD	CONE	7	[0, 0, 0]	-999	PAL1	0	R1263C
961.547	0.017	646282	REC_END	n/a	n/a	1	-999	n/a	n/a	n/a	n/a	7	[0, 0, 0]	-999	PAL1	0	R1263C
961.564	0.817	646290	TEST_ORIENT	n/a	n/a	2	6	BLOOM	n/a	CLIFF	BLOOM	7	[0, 0, 0]	-999	PAL1	0	R1263C
962.381	0.001	646699	TEST_PROBE	n/a	wordpools/wordpool_EN.txt	2	6	BLOOM	n/a	CLIFF	BLOOM	7	[0, 0, 0]	-999	PAL1	0	R1263C
962.382	4.226	646699	REC_START	n/a	n/a	2	-999	n/a	n/a	n/a	n/a	7	[0, 0, 0]	-999	PAL1	0	R1263C
966.608	0.5	648812	REC_EVENT	4226	n/a	2	6	BLOOM	<>	CLIFF	BLOOM	7	[0, 0, 0]	-999	PAL1	0	R1263C
967.108	0.285	649062	REC_EVENT	4726	n/a	2	6	BLOOM	<>	CLIFF	BLOOM	7	[0, 0, 0]	-999	PAL1	0	R1263C
967.393	1.763	649205	REC_END	n/a	n/a	2	-999	n/a	n/a	n/a	n/a	7	[0, 0, 0]	-999	PAL1	0	R1263C
969.156	10.445	650086	ENCODING_START	n/a	n/a	0	-999	n/a	n/a	n/a	n/a	8	[0, 0, 0]	-999	PAL1	0	R1263C
979.601	0.817	655308	STUDY_ORIENT	n/a	n/a	1	3	FOOD	HAND	HAND	FOOD	8	[0, 0, 0]	-999	PAL1	0	R1263C
980.418	5.017	655717	STUDY_PAIR	n/a	wordpools/wordpool_EN.txt	1	3	FOOD	HAND	HAND	FOOD	8	[0, 0, 0]	-999	PAL1	0	R1263C
985.435	0.817	658225	STUDY_ORIENT	n/a	n/a	2	4	CUBE	n/a	GEESE	CUBE	8	[0, 0, 0]	-999	PAL1	0	R1263C
986.252	5.018	658633	STUDY_PAIR	n/a	wordpools/wordpool_EN.txt	2	4	CUBE	n/a	GEESE	CUBE	8	[0, 0, 0]	-999	PAL1	0	R1263C
991.27	1.034	661142	STUDY_ORIENT	n/a	n/a	3	1	CLOUD	n/a	CLOUD	BOAT	8	[0, 0, 0]	-999	PAL1	0	R1263C
992.304	5.034	661659	STUDY_PAIR	n/a	wordpools/wordpool_EN.txt	3	1	CLOUD	n/a	CLOUD	BOAT	8	[0, 0, 0]	-999	PAL1	0	R1263C
997.338	1.0	664176	STUDY_ORIENT	n/a	n/a	4	6	BRICK	TRAIN	TRAIN	BRICK	8	[0, 0, 0]	-999	PAL1	0	R1263C
998.338	5.034	664676	STUDY_PAIR	n/a	wordpools/wordpool_EN.txt	4	6	BRICK	TRAIN	TRAIN	BRICK	8	[0, 0, 0]	-999	PAL1	0	R1263C
1003.372	0.8	667193	STUDY_ORIENT	n/a	n/a	5	5	VAN	n/a	VAN	AXE	8	[0, 0, 0]	-999	PAL1	0	R1263C
1004.172	5.018	667593	STUDY_PAIR	n/a	wordpools/wordpool_EN.txt	5	5	VAN	n/a	VAN	AXE	8	[0, 0, 0]	-999	PAL1	0	R1263C
1009.19	0.9	670102	STUDY_ORIENT	n/a	n/a	6	2	HEN	n/a	HEN	CLAY	8	[0, 0, 0]	-999	PAL1	0	R1263C
1010.09	4.001	670552	STUDY_PAIR	n/a	wordpools/wordpool_EN.txt	6	2	HEN	n/a	HEN	CLAY	8	[0, 0, 0]	-999	PAL1	0	R1263C
1014.091	1.0	672552	START	n/a	n/a	-999	-999	n/a	n/a	n/a	n/a	8	[-999, -999, -999]	-999	PAL1	0	R1263C
1015.091	0.017	673052	MATH_START	n/a	n/a	-999	-999	n/a	n/a	n/a	n/a	8	[0, 0, 0]	-999	PAL1	0	R1263C
1015.108	11.836	673060	PROB	11817	n/a	-999	-999	n/a	n/a	n/a	n/a	8	[8, 8, 3]	19	PAL1	0	R1263C
1026.944	7.796	678978	PROB	7796	n/a	-999	-999	n/a	n/a	n/a	n/a	8	[8, 4, 9]	23	PAL1	0	R1263C
1034.74	0.005	682876	STOP	n/a	n/a	-999	-999	n/a	n/a	n/a	n/a	8	[-999, -999, -999]	-999	PAL1	0	R1263C
1034.745	0.0	682878	TEST_START	n/a	n/a	-999	-999	n/a	n/a	n/a	n/a	8	[0, 0, 0]	-999	PAL1	0	R1263C
1034.745	0.017	682878	MATH_END	n/a	n/a	-999	-999	n/a	n/a	n/a	n/a	8	[0, 0, 0]	-999	PAL1	0	R1263C
1034.762	0.833	682887	TEST_ORIENT	n/a	n/a	3	1	CLOUD	n/a	CLOUD	BOAT	8	[0, 0, 0]	-999	PAL1	0	R1263C
1035.595	0.001	683303	TEST_PROBE	n/a	wordpools/wordpool_EN.txt	3	1	CLOUD	n/a	CLOUD	BOAT	8	[0, 0, 0]	-999	PAL1	0	R1263C
1035.596	0.159	683304	REC_START	n/a	n/a	3	-999	n/a	n/a	n/a	n/a	8	[0, 0, 0]	-999	PAL1	0	R1263C
1035.755	0.294	683383	REC_EVENT	159	n/a	3	1	CLOUD	<>	CLOUD	BOAT	8	[0, 0, 0]	-999	PAL1	0	R1263C
1036.049	4.557	683530	REC_EVENT	453	n/a	3	1	CLOUD	<>	CLOUD	BOAT	8	[0, 0, 0]	-999	PAL1	0	R1263C
1040.606	0.023	685809	REC_END	n/a	n/a	3	-999	n/a	n/a	n/a	n/a	8	[0, 0, 0]	-999	PAL1	0	R1263C
1040.629	0.834	685820	TEST_ORIENT	n/a	n/a	6	2	HEN	n/a	HEN	CLAY	8	[0, 0, 0]	-999	PAL1	0	R1263C
1041.463	0.0	686237	TEST_PROBE	n/a	wordpools/wordpool_EN.txt	6	2	HEN	n/a	HEN	CLAY	8	[0, 0, 0]	-999	PAL1	0	R1263C
1041.463	1.411	686237	REC_START	n/a	n/a	6	-999	n/a	n/a	n/a	n/a	8	[0, 0, 0]	-999	PAL1	0	R1263C
1042.874	0.541	686942	REC_EVENT	1411	n/a	6	2	HEN	<>	HEN	CLAY	8	[0, 0, 0]	-999	PAL1	0	R1263C
1043.415	3.065	687213	REC_EVENT	1952	n/a	6	2	HEN	<>	HEN	CLAY	8	[0, 0, 0]	-999	PAL1	0	R1263C
1046.48	0.017	688745	REC_END	n/a	n/a	6	-999	n/a	n/a	n/a	n/a	8	[0, 0, 0]	-999	PAL1	0	R1263C
1046.497	0.884	688754	TEST_ORIENT	n/a	n/a	1	3	FOOD	HAND	HAND	FOOD	8	[0, 0, 0]	-999	PAL1	0	R1263C
1047.381	0.0	689196	REC_START	n/a	n/a	1	-999	n/a	HAND	n/a	n/a	8	[0, 0, 0]	-999	PAL1	0	R1263C
1047.381	1.336	689196	TEST_PROBE	n/a	wordpools/wordpool_EN.txt	1	3	FOOD	HAND	HAND	FOOD	8	[0, 0, 0]	-999	PAL1	0	R1263C
1048.717	0.664	689864	REC_EVENT	1336	n/a	1	3	FOOD	HAND	HAND	FOOD	8	[0, 0, 0]	-999	PAL1	0	R1263C
1049.381	3.017	690196	REC_EVENT	2000	n/a	1	3	FOOD	<>	HAND	FOOD	8	[0, 0, 0]	-999	PAL1	0	R1263C
1052.398	0.017	691704	REC_END	n/a	n/a	1	-999	n/a	n/a	n/a	n/a	8	[0, 0, 0]	-999	PAL1	0	R1263C
1052.415	0.884	691713	TEST_ORIENT	n/a	n/a	2	4	CUBE	n/a	GEESE	CUBE	8	[0, 0, 0]	-999	PAL1	0	R1263C
1053.299	0.0	692155	TEST_PROBE	n/a	wordpools/wordpool_EN.txt	2	4	CUBE	n/a	GEESE	CUBE	8	[0, 0, 0]	-999	PAL1	0	R1263C
1053.299	2.275	692155	REC_START	n/a	n/a	2	-999	n/a	n/a	n/a	n/a	8	[0, 0, 0]	-999	PAL1	0	R1263C
1055.574	0.45	693292	REC_EVENT	2275	n/a	2	4	CUBE	<>	GEESE	CUBE	8	[0, 0, 0]	-999	PAL1	0	R1263C
1056.024	2.292	693517	REC_EVENT	2725	n/a	2	4	CUBE	<>	GEESE	CUBE	8	[0, 0, 0]	-999	PAL1	0	R1263C
1058.316	0.017	694663	REC_END	n/a	n/a	2	-999	n/a	n/a	n/a	n/a	8	[0, 0, 0]	-999	PAL1	0	R1263C
1058.333	0.983	694671	TEST_ORIENT	n/a	n/a	5	5	VAN	n/a	VAN	AXE	8	[0, 0, 0]	-999	PAL1	0	R1263C
1059.316	0.001	695163	TEST_PROBE	n/a	wordpools/wordpool_EN.txt	5	5	VAN	n/a	VAN	AXE	8	[0, 0, 0]	-999	PAL1	0	R1263C
1059.317	3.458	695163	REC_START	n/a	n/a	5	-999	n/a	n/a	n/a	n/a	8	[0, 0, 0]	-999	PAL1	0	R1263C
1062.775	0.159	696892	REC_EVENT	3458	n/a	5	5	VAN	<>	VAN	AXE	8	[0, 0, 0]	-999	PAL1	0	R1263C
1062.934	1.394	696972	REC_EVENT	3617	n/a	5	5	VAN	<>	VAN	AXE	8	[0, 0, 0]	-999	PAL1	0	R1263C
1064.328	0.023	697669	REC_END	n/a	n/a	5	-999	n/a	n/a	n/a	n/a	8	[0, 0, 0]	-999	PAL1	0	R1263C
1064.351	0.866	697680	TEST_ORIENT	n/a	n/a	4	6	BRICK	TRAIN	TRAIN	BRICK	8	[0, 0, 0]	-999	PAL1	0	R1263C
1065.217	0.001	698113	TEST_PROBE	n/a	wordpools/wordpool_EN.txt	4	6	BRICK	TRAIN	TRAIN	BRICK	8	[0, 0, 0]	-999	PAL1	0	R1263C
1065.218	2.762	698114	REC_START	n/a	n/a	4	-999	n/a	TRAIN	n/a	n/a	8	[0, 0, 0]	-999	PAL1	0	R1263C
1067.98	0.397	699495	REC_EVENT	2762	n/a	4	6	BRICK	TRAIN	TRAIN	BRICK	8	[0, 0, 0]	-999	PAL1	0	R1263C
1068.377	1.851	699693	REC_EVENT	3159	n/a	4	6	BRICK	<>	TRAIN	BRICK	8	[0, 0, 0]	-999	PAL1	0	R1263C
1070.228	1.68	700619	REC_END	n/a	n/a	4	-999	n/a	n/a	n/a	n/a	8	[0, 0, 0]	-999	PAL1	0	R1263C
1071.908	10.446	701458	ENCODING_START	n/a	n/a	0	-999	n/a	n/a	n/a	n/a	9	[0, 0, 0]	-999	PAL1	0	R1263C
1082.354	0.884	706681	STUDY_ORIENT	n/a	n/a	1	1	SALT	n/a	SALT	CRANE	9	[0, 0, 0]	-999	PAL1	0	R1263C
1083.238	5.034	707123	STUDY_PAIR	n/a	wordpools/wordpool_EN.txt	1	1	SALT	n/a	SALT	CRANE	9	[0, 0, 0]	-999	PAL1	0	R1263C
1088.272	0.967	709640	STUDY_ORIENT	n/a	n/a	2	4	BAT	CAT	BEAN	BAT	9	[0, 0, 0]	-999	PAL1	0	R1263C
1089.239	5.034	710123	STUDY_PAIR	n/a	wordpools/wordpool_EN.txt	2	4	BAT	CAT	BEAN	BAT	9	[0, 0, 0]	-999	PAL1	0	R1263C
1094.273	1.034	712640	STUDY_ORIENT	n/a	n/a	3	5	FLAG	STAR	STAR	FLAG	9	[0, 0, 0]	-999	PAL1	0	R1263C
1095.307	5.034	713157	STUDY_PAIR	n/a	wordpools/wordpool_EN.txt	3	5	FLAG	STAR	STAR	FLAG	9	[0, 0, 0]	-999	PAL1	0	R1263C
1100.341	0.95	715674	STUDY_ORIENT	n/a	n/a	4	6	TRUCK	PEN	TRUCK	PEN	9	[0, 0, 0]	-999	PAL1	0	R1263C
1101.291	5.034	716149	STUDY_PAIR	n/a	wordpools/wordpool_EN.txt	4	6	TRUCK	PEN	TRUCK	PEN	9	[0, 0, 0]	-999	PAL1	0	R1263C
1106.325	0.984	718666	STUDY_ORIENT	n/a	n/a	5	3	TEETH	ROPE	ROPE	TEETH	9	[0, 0, 0]	-999	PAL1	0	R1263C
1107.309	5.034	719158	STUDY_PAIR	n/a	wordpools/wordpool_EN.txt	5	3	TEETH	ROPE	ROPE	TEETH	9	[0, 0, 0]	-999	PAL1	0	R1263C
1112.343	0.967	721675	STUDY_ORIENT	n/a	n/a	6	2	HAT	CAT	HAT	CAT	9	[0, 0, 0]	-999	PAL1	0	R1263C
1113.31	4.018	722158	STUDY_PAIR	n/a	wordpools/wordpool_EN.txt	6	2	HAT	CAT	HAT	CAT	9	[0, 0, 0]	-999	PAL1	0	R1263C
1117.328	0.999	724167	START	n/a	n/a	-999	-999	n/a	n/a	n/a	n/a	9	[-999, -999, -999]	-999	PAL1	0	R1263C
1118.327	0.017	724666	MATH_START	n/a	n/a	-999	-999	n/a	n/a	n/a	n/a	9	[0, 0, 0]	-999	PAL1	0	R1263C
1118.344	6.502	724675	PROB	6468	n/a	-999	-999	n/a	n/a	n/a	n/a	9	[2, 8, 8]	18	PAL1	0	R1263C
1124.846	6.267	727926	PROB	6246	n/a	-999	-999	n/a	n/a	n/a	n/a	9	[4, 1, 7]	12	PAL1	0	R1263C
1131.113	7.555	731059	PROB	7555	n/a	-999	-999	n/a	n/a	n/a	n/a	9	[2, 7, 6]	15	PAL1	0	R1263C
1138.668	0.013	734836	STOP	n/a	n/a	-999	-999	n/a	n/a	n/a	n/a	9	[-999, -999, -999]	-999	PAL1	0	R1263C
1138.681	0.0	734843	MATH_END	n/a	n/a	-999	-999	n/a	n/a	n/a	n/a	9	[0, 0, 0]	-999	PAL1	0	R1263C
1138.681	0.017	734843	TEST_START	n/a	n/a	-999	-999	n/a	n/a	n/a	n/a	9	[0, 0, 0]	-999	PAL1	0	R1263C
1138.698	0.95	734851	TEST_ORIENT	n/a	n/a	1	1	SALT	n/a	SALT	CRANE	9	[0, 0, 0]	-999	PAL1	0	R1263C
1139.648	0.001	735326	TEST_PROBE	n/a	wordpools/wordpool_EN.txt	1	1	SALT	n/a	SALT	CRANE	9	[0, 0, 0]	-999	PAL1	0	R1263C
1139.649	2.972	735327	REC_START	n/a	n/a	1	-999	n/a	n/a	n/a	n/a	9	[0, 0, 0]	-999	PAL1	0	R1263C
1142.621	0.5	736812	REC_EVENT	2972	n/a	1	1	SALT	<>	SALT	CRANE	9	[0, 0, 0]	-999	PAL1	0	R1263C
1143.121	1.539	737062	REC_EVENT	3472	n/a	1	1	SALT	<>	SALT	CRANE	9	[0, 0, 0]	-999	PAL1	0	R1263C
1144.66	0.023	737832	REC_END	n/a	n/a	1	-999	n/a	n/a	n/a	n/a	9	[0, 0, 0]	-999	PAL1	0	R1263C
1144.683	0.967	737843	TEST_ORIENT	n/a	n/a	6	2	HAT	CAT	HAT	CAT	9	[0, 0, 0]	-999	PAL1	0	R1263C
1145.65	0.0	738327	REC_START	n/a	n/a	6	-999	n/a	CAT	n/a	n/a	9	[0, 0, 0]	-999	PAL1	0	R1263C
1145.65	1.073	738327	TEST_PROBE	n/a	wordpools/wordpool_EN.txt	6	2	HAT	CAT	HAT	CAT	9	[0, 0, 0]	-999	PAL1	0	R1263C
1146.723	0.595	738863	REC_EVENT	1073	n/a	6	2	HAT	CAT	HAT	CAT	9	[0, 0, 0]	-999	PAL1	0	R1263C
1147.318	3.349	739161	REC_EVENT	1668	n/a	6	2	HAT	<>	HAT	CAT	9	[0, 0, 0]	-999	PAL1	0	R1263C
1150.667	0.017	740835	REC_END	n/a	n/a	6	-999	n/a	n/a	n/a	n/a	9	[0, 0, 0]	-999	PAL1	0	R1263C
1150.684	0.917	740844	TEST_ORIENT	n/a	n/a	5	3	TEETH	ROPE	ROPE	TEETH	9	[0, 0, 0]	-999	PAL1	0	R1263C
1151.601	0.0	741302	TEST_PROBE	n/a	wordpools/wordpool_EN.txt	5	3	TEETH	ROPE	ROPE	TEETH	9	[0, 0, 0]	-999	PAL1	0	R1263C
1151.601	1.497	741302	REC_START	n/a	n/a	5	-999	n/a	ROPE	n/a	n/a	9	[0, 0, 0]	-999	PAL1	0	R1263C
1153.098	0.668	742051	REC_EVENT	1497	n/a	5	3	TEETH	ROPE	ROPE	TEETH	9	[0, 0, 0]	-999	PAL1	0	R1263C
1153.766	2.852	742385	REC_EVENT	2165	n/a	5	3	TEETH	<>	ROPE	TEETH	9	[0, 0, 0]	-999	PAL1	0	R1263C
1156.618	0.017	743810	REC_END	n/a	n/a	5	-999	n/a	n/a	n/a	n/a	9	[0, 0, 0]	-999	PAL1	0	R1263C
1156.635	1.0	743819	TEST_ORIENT	n/a	n/a	2	4	BAT	CAT	BEAN	BAT	9	[0, 0, 0]	-999	PAL1	0	R1263C
1157.635	0.001	744319	TEST_PROBE	n/a	wordpools/wordpool_EN.txt	2	4	BAT	CAT	BEAN	BAT	9	[0, 0, 0]	-999	PAL1	0	R1263C
1157.636	3.825	744319	REC_START	n/a	n/a	2	-999	n/a	CAT	n/a	n/a	9	[0, 0, 0]	-999	PAL1	0	R1263C
1161.461	0.481	746232	REC_EVENT	3825	n/a	2	4	BAT	CAT	BEAN	BAT	9	[0, 0, 0]	-999	PAL1	0	R1263C
1161.942	0.694	746472	REC_EVENT	4306	n/a	2	4	BAT	<>	BEAN	BAT	9	[0, 0, 0]	-999	PAL1	0	R1263C
1162.636	0.017	746819	REC_END	n/a	n/a	2	-999	n/a	n/a	n/a	n/a	9	[0, 0, 0]	-999	PAL1	0	R1263C
1162.653	1.05	746828	TEST_ORIENT	n/a	n/a	3	5	FLAG	STAR	STAR	FLAG	9	[0, 0, 0]	-999	PAL1	0	R1263C
1163.703	0.0	747353	TEST_PROBE	n/a	wordpools/wordpool_EN.txt	3	5	FLAG	STAR	STAR	FLAG	9	[0, 0, 0]	-999	PAL1	0	R1263C
1163.703	1.043	747353	REC_START	n/a	n/a	3	-999	n/a	STAR	n/a	n/a	9	[0, 0, 0]	-999	PAL1	0	R1263C
1164.746	0.826	747874	REC_EVENT	1043	n/a	3	5	FLAG	STAR	STAR	FLAG	9	[0, 0, 0]	-999	PAL1	0	R1263C
1165.572	3.148	748287	REC_EVENT	1869	n/a	3	5	FLAG	<>	STAR	FLAG	9	[0, 0, 0]	-999	PAL1	0	R1263C
1168.72	0.017	749861	REC_END	n/a	n/a	3	-999	n/a	n/a	n/a	n/a	9	[0, 0, 0]	-999	PAL1	0	R1263C
1168.737	0.867	749870	TEST_ORIENT	n/a	n/a	4	6	TRUCK	PEN	TRUCK	PEN	9	[0, 0, 0]	-999	PAL1	0	R1263C
1169.604	0.001	750303	TEST_PROBE	n/a	wordpools/wordpool_EN.txt	4	6	TRUCK	PEN	TRUCK	PEN	9	[0, 0, 0]	-999	PAL1	0	R1263C
1169.605	1.53	750303	REC_START	n/a	n/a	4	-999	n/a	PEN	n/a	n/a	9	[0, 0, 0]	-999	PAL1	0	R1263C
1171.135	0.48	751068	REC_EVENT	1530	n/a	4	6	TRUCK	PEN	TRUCK	PEN	9	[0, 0, 0]	-999	PAL1	0	R1263C
1171.615	3.018	751308	REC_EVENT	2010	n/a	4	6	TRUCK	<>	TRUCK	PEN	9	[0, 0, 0]	-999	PAL1	0	R1263C
1174.633	1.707	752817	REC_END	n/a	n/a	4	-999	n/a	n/a	n/a	n/a	9	[0, 0, 0]	-999	PAL1	0	R1263C
1176.34	10.451	753671	ENCODING_START	n/a	n/a	0	-999	n/a	n/a	n/a	n/a	10	[0, 0, 0]	-999	PAL1	0	R1263C
1186.791	0.967	758896	STUDY_ORIENT	n/a	n/a	1	1	WAVE	n/a	WAVE	WALL	10	[0, 0, 0]	-999	PAL1	0	R1263C
1187.758	5.034	759379	STUDY_PAIR	n/a	wordpools/wordpool_EN.txt	1	1	WAVE	n/a	WAVE	WALL	10	[0, 0, 0]	-999	PAL1	0	R1263C
1192.792	0.8	761896	STUDY_ORIENT	n/a	n/a	2	4	FENCE	n/a	SQUARE	FENCE	10	[0, 0, 0]	-999	PAL1	0	R1263C
1193.592	5.034	762296	STUDY_PAIR	n/a	wordpools/wordpool_EN.txt	2	4	FENCE	n/a	SQUARE	FENCE	10	[0, 0, 0]	-999	PAL1	0	R1263C
1198.626	0.984	764813	STUDY_ORIENT	n/a	n/a	3	5	EAR	SHELL	EAR	SHELL	10	[0, 0, 0]	-999	PAL1	0	R1263C
1199.61	5.034	765305	STUDY_PAIR	n/a	wordpools/wordpool_EN.txt	3	5	EAR	SHELL	EAR	SHELL	10	[0, 0, 0]	-999	PAL1	0	R1263C
1204.644	0.834	767822	STUDY_ORIENT	n/a	n/a	4	2	BOOK	BEACH	BOOK	BEACH	10	[0, 0, 0]	-999	PAL1	0	R1263C
1205.478	5.034	768239	STUDY_PAIR	n/a	wordpools/wordpool_EN.txt	4	2	BOOK	BEACH	BOOK	BEACH	10	[0, 0, 0]	-999	PAL1	0	R1263C
1210.512	0.833	770756	STUDY_ORIENT	n/a	n/a	5	3	SPEAR	n/a	SPEAR	JUDGE	10	[0, 0, 0]	-999	PAL1	0	R1263C
1211.345	5.018	771172	STUDY_PAIR	n/a	wordpools/wordpool_EN.txt	5	3	SPEAR	n/a	SPEAR	JUDGE	10	[0, 0, 0]	-999	PAL1	0	R1263C
1216.363	0.9	773681	STUDY_ORIENT	n/a	n/a	6	6	MOOSE	n/a	KITE	MOOSE	10	[0, 0, 0]	-999	PAL1	0	R1263C
1217.263	4.001	774131	STUDY_PAIR	n/a	wordpools/wordpool_EN.txt	6	6	MOOSE	n/a	KITE	MOOSE	10	[0, 0, 0]	-999	PAL1	0	R1263C
1221.264	1.0	776131	START	n/a	n/a	-999	-999	n/a	n/a	n/a	n/a	10	[-999, -999, -999]	-999	PAL1	0	R1263C
1222.264	0.017	776631	MATH_START	n/a	n/a	-999	-999	n/a	n/a	n/a	n/a	10	[0, 0, 0]	-999	PAL1	0	R1263C
1222.281	6.518	776640	PROB	6499	n/a	-999	-999	n/a	n/a	n/a	n/a	10	[2, 5, 1]	8	PAL1	0	R1263C
1228.799	6.601	779898	PROB	6573	n/a	-999	-999	n/a	n/a	n/a	n/a	10	[1, 5, 9]	15	PAL1	0	R1263C
1235.4	4.618	783199	PROB	4596	n/a	-999	-999	n/a	n/a	n/a	n/a	10	[1, 5, 9]	15	PAL1	0	R1263C
1240.018	5.106	785507	PROB	5106	n/a	-999	-999	n/a	n/a	n/a	n/a	10	[1, 3, 9]	13	PAL1	0	R1263C
1245.124	0.011	788060	STOP	n/a	n/a	-999	-999	n/a	n/a	n/a	n/a	10	[-999, -999, -999]	-999	PAL1	0	R1263C
1245.135	0.0	788066	MATH_END	n/a	n/a	-999	-999	n/a	n/a	n/a	n/a	10	[0, 0, 0]	-999	PAL1	0	R1263C
1245.135	0.017	788066	TEST_START	n/a	n/a	-999	-999	n/a	n/a	n/a	n/a	10	[0, 0, 0]	-999	PAL1	0	R1263C
1245.152	0.967	788074	TEST_ORIENT	n/a	n/a	1	1	WAVE	n/a	WAVE	WALL	10	[0, 0, 0]	-999	PAL1	0	R1263C
1246.119	0.0	788558	REC_START	n/a	n/a	1	-999	n/a	n/a	n/a	n/a	10	[0, 0, 0]	-999	PAL1	0	R1263C
1246.119	4.713	788558	TEST_PROBE	n/a	wordpools/wordpool_EN.txt	1	1	WAVE	n/a	WAVE	WALL	10	[0, 0, 0]	-999	PAL1	0	R1263C
1250.832	0.1	790914	REC_EVENT	4713	n/a	1	1	WAVE	<>	WAVE	WALL	10	[0, 0, 0]	-999	PAL1	0	R1263C
1250.932	0.204	790964	REC_EVENT	4813	n/a	1	1	WAVE	<>	WAVE	WALL	10	[0, 0, 0]	-999	PAL1	0	R1263C
1251.136	0.017	791066	REC_END	n/a	n/a	1	-999	n/a	n/a	n/a	n/a	10	[0, 0, 0]	-999	PAL1	0	R1263C
1251.153	0.884	791075	TEST_ORIENT	n/a	n/a	4	2	BOOK	BEACH	BOOK	BEACH	10	[0, 0, 0]	-999	PAL1	0	R1263C
1252.037	0.0	791517	TEST_PROBE	n/a	wordpools/wordpool_EN.txt	4	2	BOOK	BEACH	BOOK	BEACH	10	[0, 0, 0]	-999	PAL1	0	R1263C
1252.037	3.273	791517	REC_START	n/a	n/a	4	-999	n/a	BEACH	n/a	n/a	10	[0, 0, 0]	-999	PAL1	0	R1263C
1255.31	0.733	793153	REC_EVENT	3273	n/a	4	2	BOOK	BEACH	BOOK	BEACH	10	[0, 0, 0]	-999	PAL1	0	R1263C
1256.043	1.011	793519	REC_EVENT	4006	n/a	4	2	BOOK	<>	BOOK	BEACH	10	[0, 0, 0]	-999	PAL1	0	R1263C
1257.054	0.017	794025	REC_END	n/a	n/a	4	-999	n/a	n/a	n/a	n/a	10	[0, 0, 0]	-999	PAL1	0	R1263C
1257.071	0.833	794033	TEST_ORIENT	n/a	n/a	5	3	SPEAR	n/a	SPEAR	JUDGE	10	[0, 0, 0]	-999	PAL1	0	R1263C
1257.904	0.001	794450	TEST_PROBE	n/a	wordpools/wordpool_EN.txt	5	3	SPEAR	n/a	SPEAR	JUDGE	10	[0, 0, 0]	-999	PAL1	0	R1263C
1257.905	1.008	794450	REC_START	n/a	n/a	5	-999	n/a	n/a	n/a	n/a	10	[0, 0, 0]	-999	PAL1	0	R1263C
1258.913	0.336	794954	REC_EVENT	1008	n/a	5	3	SPEAR	<>	SPEAR	JUDGE	10	[0, 0, 0]	-999	PAL1	0	R1263C
1259.249	3.667	795122	REC_EVENT	1344	n/a	5	3	SPEAR	<>	SPEAR	JUDGE	10	[0, 0, 0]	-999	PAL1	0	R1263C
1262.916	0.024	796956	REC_END	n/a	n/a	5	-999	n/a	n/a	n/a	n/a	10	[0, 0, 0]	-999	PAL1	0	R1263C
1262.94	0.915	796968	TEST_ORIENT	n/a	n/a	2	4	FENCE	n/a	SQUARE	FENCE	10	[0, 0, 0]	-999	PAL1	0	R1263C
1263.855	0.001	797425	TEST_PROBE	n/a	wordpools/wordpool_EN.txt	2	4	FENCE	n/a	SQUARE	FENCE	10	[0, 0, 0]	-999	PAL1	0	R1263C
1263.856	1.494	797426	REC_START	n/a	n/a	2	-999	n/a	n/a	n/a	n/a	10	[0, 0, 0]	-999	PAL1	0	R1263C
1265.35	1.347	798173	REC_EVENT	1494	n/a	2	4	FENCE	<>	SQUARE	FENCE	10	[0, 0, 0]	-999	PAL1	0	R1263C
1266.697	2.17	798846	REC_EVENT	2841	n/a	2	4	FENCE	<>	SQUARE	FENCE	10	[0, 0, 0]	-999	PAL1	0	R1263C
1268.867	0.023	799931	REC_END	n/a	n/a	2	-999	n/a	n/a	n/a	n/a	10	[0, 0, 0]	-999	PAL1	0	R1263C
1268.89	0.9	799942	TEST_ORIENT	n/a	n/a	3	5	EAR	SHELL	EAR	SHELL	10	[0, 0, 0]	-999	PAL1	0	R1263C
1269.79	0.0	800392	TEST_PROBE	n/a	wordpools/wordpool_EN.txt	3	5	EAR	SHELL	EAR	SHELL	10	[0, 0, 0]	-999	PAL1	0	R1263C
1269.79	1.241	800392	REC_START	n/a	n/a	3	-999	n/a	SHELL	n/a	n/a	10	[0, 0, 0]	-999	PAL1	0	R1263C
1271.031	0.543	801013	REC_EVENT	1241	n/a	3	5	EAR	SHELL	EAR	SHELL	10	[0, 0, 0]	-999	PAL1	0	R1263C
1271.574	3.233	801284	REC_EVENT	1784	n/a	3	5	EAR	<>	EAR	SHELL	10	[0, 0, 0]	-999	PAL1	0	R1263C
1274.807	0.017	802901	REC_END	n/a	n/a	3	-999	n/a	n/a	n/a	n/a	10	[0, 0, 0]	-999	PAL1	0	R1263C
1274.824	0.9	802909	TEST_ORIENT	n/a	n/a	6	6	MOOSE	n/a	KITE	MOOSE	10	[0, 0, 0]	-999	PAL1	0	R1263C
1275.724	0.001	803359	TEST_PROBE	n/a	wordpools/wordpool_EN.txt	6	6	MOOSE	n/a	KITE	MOOSE	10	[0, 0, 0]	-999	PAL1	0	R1263C
1275.725	3.97	803360	REC_START	n/a	n/a	6	-999	n/a	n/a	n/a	n/a	10	[0, 0, 0]	-999	PAL1	0	R1263C
1279.695	0.5	805345	REC_EVENT	3970	n/a	6	6	MOOSE	<>	KITE	MOOSE	10	[0, 0, 0]	-999	PAL1	0	R1263C
1280.195	0.541	805595	REC_EVENT	4470	n/a	6	6	MOOSE	<>	KITE	MOOSE	10	[0, 0, 0]	-999	PAL1	0	R1263C
1280.736	1.732	805865	REC_END	n/a	n/a	6	-999	n/a	n/a	n/a	n/a	10	[0, 0, 0]	-999	PAL1	0	R1263C
1282.468	10.443	806731	ENCODING_START	n/a	n/a	0	-999	n/a	n/a	n/a	n/a	11	[0, 0, 0]	-999	PAL1	0	R1263C
1292.911	0.833	811952	STUDY_ORIENT	n/a	n/a	1	1	ROOT	n/a	GUARD	ROOT	11	[0, 0, 0]	-999	PAL1	0	R1263C
1293.744	5.018	812369	STUDY_PAIR	n/a	wordpools/wordpool_EN.txt	1	1	ROOT	n/a	GUARD	ROOT	11	[0, 0, 0]	-999	PAL1	0	R1263C
1298.762	0.783	814877	STUDY_ORIENT	n/a	n/a	2	2	INK	n/a	COW	INK	11	[0, 0, 0]	-999	PAL1	0	R1263C
1299.545	5.018	815269	STUDY_PAIR	n/a	wordpools/wordpool_EN.txt	2	2	INK	n/a	COW	INK	11	[0, 0, 0]	-999	PAL1	0	R1263C
1304.563	1.0	817778	STUDY_ORIENT	n/a	n/a	3	5	RAIN	RIVER	RAIN	SEA	11	[0, 0, 0]	-999	PAL1	0	R1263C
1305.563	5.018	818278	STUDY_PAIR	n/a	wordpools/wordpool_EN.txt	3	5	RAIN	RIVER	RAIN	SEA	11	[0, 0, 0]	-999	PAL1	0	R1263C
1310.581	0.9	820786	STUDY_ORIENT	n/a	n/a	4	6	BATH	n/a	FOAM	BATH	11	[0, 0, 0]	-999	PAL1	0	R1263C
1311.481	5.018	821236	STUDY_PAIR	n/a	wordpools/wordpool_EN.txt	4	6	BATH	n/a	FOAM	BATH	11	[0, 0, 0]	-999	PAL1	0	R1263C
1316.499	0.933	823745	STUDY_ORIENT	n/a	n/a	5	3	CROWN	PARK	PARK	CROWN	11	[0, 0, 0]	-999	PAL1	0	R1263C
1317.432	5.018	824212	STUDY_PAIR	n/a	wordpools/wordpool_EN.txt	5	3	CROWN	PARK	PARK	CROWN	11	[0, 0, 0]	-999	PAL1	0	R1263C
1322.45	0.783	826721	STUDY_ORIENT	n/a	n/a	6	4	STRAW	n/a	STRAW	LIP	11	[0, 0, 0]	-999	PAL1	0	R1263C
1323.233	4.001	827112	STUDY_PAIR	n/a	wordpools/wordpool_EN.txt	6	4	STRAW	n/a	STRAW	LIP	11	[0, 0, 0]	-999	PAL1	0	R1263C
1327.234	1.0	829112	START	n/a	n/a	-999	-999	n/a	n/a	n/a	n/a	11	[-999, -999, -999]	-999	PAL1	0	R1263C
1328.234	0.017	829612	MATH_START	n/a	n/a	-999	-999	n/a	n/a	n/a	n/a	11	[0, 0, 0]	-999	PAL1	0	R1263C
1328.251	4.368	829621	PROB	4345	n/a	-999	-999	n/a	n/a	n/a	n/a	11	[5, 6, 1]	12	PAL1	0	R1263C
1332.619	5.617	831805	PROB	5593	n/a	-999	-999	n/a	n/a	n/a	n/a	11	[7, 4, 2]	13	PAL1	0	R1263C
1338.236	4.785	834613	PROB	4753	n/a	-999	-999	n/a	n/a	n/a	n/a	11	[1, 3, 2]	6	PAL1	0	R1263C
1343.021	9.023	837005	PROB	9023	n/a	-999	-999	n/a	n/a	n/a	n/a	11	[9, 3, 6]	18	PAL1	0	R1263C
1352.044	0.012	841517	STOP	n/a	n/a	-999	-999	n/a	n/a	n/a	n/a	11	[-999, -999, -999]	-999	PAL1	0	R1263C
1352.056	0.0	841523	MATH_END	n/a	n/a	-999	-999	n/a	n/a	n/a	n/a	11	[0, 0, 0]	-999	PAL1	0	R1263C
1352.056	0.016	841523	TEST_START	n/a	n/a	-999	-999	n/a	n/a	n/a	n/a	11	[0, 0, 0]	-999	PAL1	0	R1263C
1352.072	1.017	841531	TEST_ORIENT	n/a	n/a	1	1	ROOT	n/a	GUARD	ROOT	11	[0, 0, 0]	-999	PAL1	0	R1263C
1353.089	0.0	842039	TEST_PROBE	n/a	wordpools/wordpool_EN.txt	1	1	ROOT	n/a	GUARD	ROOT	11	[0, 0, 0]	-999	PAL1	0	R1263C
1353.089	2.856	842039	REC_START	n/a	n/a	1	-999	n/a	n/a	n/a	n/a	11	[0, 0, 0]	-999	PAL1	0	R1263C
1355.945	0.505	843467	REC_EVENT	2856	n/a	1	1	ROOT	<>	GUARD	ROOT	11	[0, 0, 0]	-999	PAL1	0	R1263C
1356.45	1.657	843719	REC_EVENT	3361	n/a	1	1	ROOT	<>	GUARD	ROOT	11	[0, 0, 0]	-999	PAL1	0	R1263C
1358.107	0.016	844548	REC_END	n/a	n/a	1	-999	n/a	n/a	n/a	n/a	11	[0, 0, 0]	-999	PAL1	0	R1263C
1358.123	0.868	844556	TEST_ORIENT	n/a	n/a	2	2	INK	n/a	COW	INK	11	[0, 0, 0]	-999	PAL1	0	R1263C
1358.991	0.001	844990	TEST_PROBE	n/a	wordpools/wordpool_EN.txt	2	2	INK	n/a	COW	INK	11	[0, 0, 0]	-999	PAL1	0	R1263C
1358.992	1.044	844990	REC_START	n/a	n/a	2	-999	n/a	n/a	n/a	n/a	11	[0, 0, 0]	-999	PAL1	0	R1263C
1360.036	0.5	845512	REC_EVENT	1044	n/a	2	2	INK	<>	COW	INK	11	[0, 0, 0]	-999	PAL1	0	R1263C
1360.536	3.465	845762	REC_EVENT	1544	n/a	2	2	INK	<>	COW	INK	11	[0, 0, 0]	-999	PAL1	0	R1263C
1364.001	0.024	847495	REC_END	n/a	n/a	2	-999	n/a	n/a	n/a	n/a	11	[0, 0, 0]	-999	PAL1	0	R1263C
1364.025	0.951	847507	TEST_ORIENT	n/a	n/a	5	3	CROWN	PARK	PARK	CROWN	11	[0, 0, 0]	-999	PAL1	0	R1263C
1364.976	0.0	847982	TEST_PROBE	n/a	wordpools/wordpool_EN.txt	5	3	CROWN	PARK	PARK	CROWN	11	[0, 0, 0]	-999	PAL1	0	R1263C
1364.976	2.481	847982	REC_START	n/a	n/a	5	-999	n/a	PARK	n/a	n/a	11	[0, 0, 0]	-999	PAL1	0	R1263C
1367.457	0.539	849222	REC_EVENT	2481	n/a	5	3	CROWN	PARK	PARK	CROWN	11	[0, 0, 0]	-999	PAL1	0	R1263C
1367.996	1.997	849492	REC_EVENT	3020	n/a	5	3	CROWN	<>	PARK	CROWN	11	[0, 0, 0]	-999	PAL1	0	R1263C
1369.993	0.016	850490	REC_END	n/a	n/a	5	-999	n/a	n/a	n/a	n/a	11	[0, 0, 0]	-999	PAL1	0	R1263C
1370.009	0.834	850498	TEST_ORIENT	n/a	n/a	6	4	STRAW	n/a	STRAW	LIP	11	[0, 0, 0]	-999	PAL1	0	R1263C
1370.843	0.0	850915	TEST_PROBE	n/a	wordpools/wordpool_EN.txt	6	4	STRAW	n/a	STRAW	LIP	11	[0, 0, 0]	-999	PAL1	0	R1263C
1370.843	3.413	850915	REC_START	n/a	n/a	6	-999	n/a	n/a	n/a	n/a	11	[0, 0, 0]	-999	PAL1	0	R1263C
1374.256	0.05	852622	REC_EVENT	3413	n/a	6	4	STRAW	<>	STRAW	LIP	11	[0, 0, 0]	-999	PAL1	0	R1263C
1374.306	1.554	852647	REC_EVENT	3463	n/a	6	4	STRAW	<>	STRAW	LIP	11	[0, 0, 0]	-999	PAL1	0	R1263C
1375.86	0.017	853424	REC_END	n/a	n/a	6	-999	n/a	n/a	n/a	n/a	11	[0, 0, 0]	-999	PAL1	0	R1263C
1375.877	0.8	853432	TEST_ORIENT	n/a	n/a	3	5	RAIN	RIVER	RAIN	SEA	11	[0, 0, 0]	-999	PAL1	0	R1263C
1376.677	0.0	853832	REC_START	n/a	n/a	3	-999	n/a	RIVER	n/a	n/a	11	[0, 0, 0]	-999	PAL1	0	R1263C
1376.677	1.464	853832	TEST_PROBE	n/a	wordpools/wordpool_EN.txt	3	5	RAIN	RIVER	RAIN	SEA	11	[0, 0, 0]	-999	PAL1	0	R1263C
1378.141	0.4	854564	REC_EVENT	1464	n/a	3	5	RAIN	RIVER	RAIN	SEA	11	[0, 0, 0]	-999	PAL1	0	R1263C
1378.541	3.153	854764	REC_EVENT	1864	n/a	3	5	RAIN	<>	RAIN	SEA	11	[0, 0, 0]	-999	PAL1	0	R1263C
1381.694	0.017	856340	REC_END	n/a	n/a	3	-999	n/a	n/a	n/a	n/a	11	[0, 0, 0]	-999	PAL1	0	R1263C
1381.711	0.867	856349	TEST_ORIENT	n/a	n/a	4	6	BATH	n/a	FOAM	BATH	11	[0, 0, 0]	-999	PAL1	0	R1263C
1382.578	0.0	856782	TEST_PROBE	n/a	wordpools/wordpool_EN.txt	4	6	BATH	n/a	FOAM	BATH	11	[0, 0, 0]	-999	PAL1	0	R1263C
1382.578	1.537	856782	REC_START	n/a	n/a	4	-999	n/a	n/a	n/a	n/a	11	[0, 0, 0]	-999	PAL1	0	R1263C
1384.115	0.125	857551	REC_EVENT	1537	n/a	4	6	BATH	<>	FOAM	BATH	11	[0, 0, 0]	-999	PAL1	0	R1263C
1384.24	2.669	857613	REC_EVENT	1662	n/a	4	6	BATH	<>	FOAM	BATH	11	[0, 0, 0]	-999	PAL1	0	R1263C
1386.909	0.687	858948	REC_EVENT	4331	n/a	4	6	BATH	<>	FOAM	BATH	11	[0, 0, 0]	-999	PAL1	0	R1263C
1387.596	0.003	859291	REC_END	n/a	n/a	4	-999	n/a	n/a	n/a	n/a	11	[0, 0, 0]	-999	PAL1	0	R1263C
1387.599	5.366	859293	REC_EVENT	5021	n/a	4	6	BATH	<>	FOAM	BATH	11	[0, 0, 0]	-999	PAL1	0	R1263C
1392.965	10.45	861976	ENCODING_START	n/a	n/a	0	-999	n/a	n/a	n/a	n/a	12	[0, 0, 0]	-999	PAL1	0	R1263C
1403.415	0.784	867200	STUDY_ORIENT	n/a	n/a	1	3	CLOCK	n/a	CLOCK	FLUTE	12	[0, 0, 0]	-999	PAL1	0	R1263C
1404.199	5.034	867592	STUDY_PAIR	n/a	wordpools/wordpool_EN.txt	1	3	CLOCK	n/a	CLOCK	FLUTE	12	[0, 0, 0]	-999	PAL1	0	R1263C
1409.233	0.867	870109	STUDY_ORIENT	n/a	n/a	2	4	MAIL	n/a	HILL	MAIL	12	[0, 0, 0]	-999	PAL1	0	R1263C
1410.1	5.034	870542	STUDY_PAIR	n/a	wordpools/wordpool_EN.txt	2	4	MAIL	n/a	HILL	MAIL	12	[0, 0, 0]	-999	PAL1	0	R1263C
1415.134	0.984	873059	STUDY_ORIENT	n/a	n/a	3	1	LAND	PRINCE	LAND	PRINCE	12	[0, 0, 0]	-999	PAL1	0	R1263C
1416.118	5.034	873551	STUDY_PAIR	n/a	wordpools/wordpool_EN.txt	3	1	LAND	PRINCE	LAND	PRINCE	12	[0, 0, 0]	-999	PAL1	0	R1263C
1421.152	0.934	876068	STUDY_ORIENT	n/a	n/a	4	2	SNAKE	FLUTE	GRAPE	SNAKE	12	[0, 0, 0]	-999	PAL1	0	R1263C
1422.086	5.034	876535	STUDY_PAIR	n/a	wordpools/wordpool_EN.txt	4	2	SNAKE	FLUTE	GRAPE	SNAKE	12	[0, 0, 0]	-999	PAL1	0	R1263C
1427.12	0.933	879052	STUDY_ORIENT	n/a	n/a	5	5	FORK	n/a	FORK	JET	12	[0, 0, 0]	-999	PAL1	0	R1263C
1428.053	5.018	879518	STUDY_PAIR	n/a	wordpools/wordpool_EN.txt	5	5	FORK	n/a	FORK	JET	12	[0, 0, 0]	-999	PAL1	0	R1263C
1433.071	1.017	882027	STUDY_ORIENT	n/a	n/a	6	6	SCHOOL	n/a	DOG	SCHOOL	12	[0, 0, 0]	-999	PAL1	0	R1263C
1434.088	4.018	882536	STUDY_PAIR	n/a	wordpools/wordpool_EN.txt	6	6	SCHOOL	n/a	DOG	SCHOOL	12	[0, 0, 0]	-999	PAL1	0	R1263C
1438.106	0.999	884544	START	n/a	n/a	-999	-999	n/a	n/a	n/a	n/a	12	[-999, -999, -999]	-999	PAL1	0	R1263C
1439.105	0.017	885044	MATH_START	n/a	n/a	-999	-999	n/a	n/a	n/a	n/a	12	[0, 0, 0]	-999	PAL1	0	R1263C
1439.122	4.819	885052	PROB	4786	n/a	-999	-999	n/a	n/a	n/a	n/a	12	[5, 2, 5]	12	PAL1	0	R1263C
1443.941	10.534	887462	PROB	10511	n/a	-999	-999	n/a	n/a	n/a	n/a	12	[6, 7, 6]	19	PAL1	0	R1263C
1454.475	5.929	892728	PROB	5929	n/a	-999	-999	n/a	n/a	n/a	n/a	12	[1, 9, 8]	18	PAL1	0	R1263C
1460.404	0.006	895693	STOP	n/a	n/a	-999	-999	n/a	n/a	n/a	n/a	12	[-999, -999, -999]	-999	PAL1	0	R1263C
1460.41	0.0	895696	MATH_END	n/a	n/a	-999	-999	n/a	n/a	n/a	n/a	12	[0, 0, 0]	-999	PAL1	0	R1263C
1460.41	0.016	895696	TEST_START	n/a	n/a	-999	-999	n/a	n/a	n/a	n/a	12	[0, 0, 0]	-999	PAL1	0	R1263C
1460.426	0.9	895704	TEST_ORIENT	n/a	n/a	3	1	LAND	PRINCE	LAND	PRINCE	12	[0, 0, 0]	-999	PAL1	0	R1263C
1461.326	0.001	896154	TEST_PROBE	n/a	wordpools/wordpool_EN.txt	3	1	LAND	PRINCE	LAND	PRINCE	12	[0, 0, 0]	-999	PAL1	0	R1263C
1461.327	3.265	896154	REC_START	n/a	n/a	3	-999	n/a	PRINCE	n/a	n/a	12	[0, 0, 0]	-999	PAL1	0	R1263C
1464.592	0.61	897787	REC_EVENT	3265	n/a	3	1	LAND	PRINCE	LAND	PRINCE	12	[0, 0, 0]	-999	PAL1	0	R1263C
1465.202	1.136	898092	REC_EVENT	3875	n/a	3	1	LAND	<>	LAND	PRINCE	12	[0, 0, 0]	-999	PAL1	0	R1263C
1466.338	0.023	898659	REC_END	n/a	n/a	3	-999	n/a	n/a	n/a	n/a	12	[0, 0, 0]	-999	PAL1	0	R1263C
1466.361	0.9	898671	TEST_ORIENT	n/a	n/a	4	2	SNAKE	FLUTE	GRAPE	SNAKE	12	[0, 0, 0]	-999	PAL1	0	R1263C
1467.261	0.0	899121	TEST_PROBE	n/a	wordpools/wordpool_EN.txt	4	2	SNAKE	FLUTE	GRAPE	SNAKE	12	[0, 0, 0]	-999	PAL1	0	R1263C
1467.261	1.745	899121	REC_START	n/a	n/a	4	-999	n/a	FLUTE	n/a	n/a	12	[0, 0, 0]	-999	PAL1	0	R1263C
1469.006	0.625	899993	REC_EVENT	1745	n/a	4	2	SNAKE	FLUTE	GRAPE	SNAKE	12	[0, 0, 0]	-999	PAL1	0	R1263C
1469.631	2.647	900306	REC_EVENT	2370	n/a	4	2	SNAKE	<>	GRAPE	SNAKE	12	[0, 0, 0]	-999	PAL1	0	R1263C
1472.278	0.017	901629	REC_END	n/a	n/a	4	-999	n/a	n/a	n/a	n/a	12	[0, 0, 0]	-999	PAL1	0	R1263C
1472.295	1.0	901638	TEST_ORIENT	n/a	n/a	1	3	CLOCK	n/a	CLOCK	FLUTE	12	[0, 0, 0]	-999	PAL1	0	R1263C
1473.295	0.001	902138	TEST_PROBE	n/a	wordpools/wordpool_EN.txt	1	3	CLOCK	n/a	CLOCK	FLUTE	12	[0, 0, 0]	-999	PAL1	0	R1263C
1473.296	3.993	902138	REC_START	n/a	n/a	1	-999	n/a	n/a	n/a	n/a	12	[0, 0, 0]	-999	PAL1	0	R1263C
1477.289	0.5	904135	REC_EVENT	3993	n/a	1	3	CLOCK	<>	CLOCK	FLUTE	12	[0, 0, 0]	-999	PAL1	0	R1263C
1477.789	0.541	904385	REC_EVENT	4493	n/a	1	3	CLOCK	<>	CLOCK	FLUTE	12	[0, 0, 0]	-999	PAL1	0	R1263C
1478.33	0.016	904655	REC_END	n/a	n/a	1	-999	n/a	n/a	n/a	n/a	12	[0, 0, 0]	-999	PAL1	0	R1263C
1478.346	0.834	904663	TEST_ORIENT	n/a	n/a	2	4	MAIL	n/a	HILL	MAIL	12	[0, 0, 0]	-999	PAL1	0	R1263C
1479.18	0.0	905080	TEST_PROBE	n/a	wordpools/wordpool_EN.txt	2	4	MAIL	n/a	HILL	MAIL	12	[0, 0, 0]	-999	PAL1	0	R1263C
1479.18	3.622	905080	REC_START	n/a	n/a	2	-999	n/a	n/a	n/a	n/a	12	[0, 0, 0]	-999	PAL1	0	R1263C
1482.802	0.5	906891	REC_EVENT	3622	n/a	2	4	MAIL	<>	HILL	MAIL	12	[0, 0, 0]	-999	PAL1	0	R1263C
1483.302	0.895	907141	REC_EVENT	4122	n/a	2	4	MAIL	<>	HILL	MAIL	12	[0, 0, 0]	-999	PAL1	0	R1263C
1484.197	0.017	907588	REC_END	n/a	n/a	2	-999	n/a	n/a	n/a	n/a	12	[0, 0, 0]	-999	PAL1	0	R1263C
1484.214	0.834	907597	TEST_ORIENT	n/a	n/a	5	5	FORK	n/a	FORK	JET	12	[0, 0, 0]	-999	PAL1	0	R1263C
1485.048	0.0	908014	TEST_PROBE	n/a	wordpools/wordpool_EN.txt	5	5	FORK	n/a	FORK	JET	12	[0, 0, 0]	-999	PAL1	0	R1263C
1485.048	1.068	908014	REC_START	n/a	n/a	5	-999	n/a	n/a	n/a	n/a	12	[0, 0, 0]	-999	PAL1	0	R1263C
1486.116	0.5	908548	REC_EVENT	1068	n/a	5	5	FORK	<>	FORK	JET	12	[0, 0, 0]	-999	PAL1	0	R1263C
1486.616	3.449	908798	REC_EVENT	1568	n/a	5	5	FORK	<>	FORK	JET	12	[0, 0, 0]	-999	PAL1	0	R1263C
1490.065	0.017	910522	REC_END	n/a	n/a	5	-999	n/a	n/a	n/a	n/a	12	[0, 0, 0]	-999	PAL1	0	R1263C
1490.082	0.901	910531	TEST_ORIENT	n/a	n/a	6	6	SCHOOL	n/a	DOG	SCHOOL	12	[0, 0, 0]	-999	PAL1	0	R1263C
1490.983	0.001	910981	TEST_PROBE	n/a	wordpools/wordpool_EN.txt	6	6	SCHOOL	n/a	DOG	SCHOOL	12	[0, 0, 0]	-999	PAL1	0	R1263C
1490.984	1.996	910982	REC_START	n/a	n/a	6	-999	n/a	n/a	n/a	n/a	12	[0, 0, 0]	-999	PAL1	0	R1263C
1492.98	0.5	911980	REC_EVENT	1996	n/a	6	6	SCHOOL	<>	DOG	SCHOOL	12	[0, 0, 0]	-999	PAL1	0	R1263C
1493.48	2.531	912229	REC_EVENT	2496	n/a	6	6	SCHOOL	<>	DOG	SCHOOL	12	[0, 0, 0]	-999	PAL1	0	R1263C
1496.011	8.113	913495	REC_END	n/a	n/a	6	-999	n/a	n/a	n/a	n/a	12	[0, 0, 0]	-999	PAL1	0	R1263C
1504.124	10.446	917551	ENCODING_START	n/a	n/a	0	-999	n/a	n/a	n/a	n/a	13	[0, 0, 0]	-999	PAL1	0	R1263C
1514.57	0.85	922774	STUDY_ORIENT	n/a	n/a	1	3	TOY	SHIRT	SHIRT	TOY	13	[0, 0, 0]	-999	PAL1	0	R1263C
1515.42	5.034	923199	STUDY_PAIR	n/a	wordpools/wordpool_EN.txt	1	3	TOY	SHIRT	SHIRT	TOY	13	[0, 0, 0]	-999	PAL1	0	R1263C
1520.454	0.951	925716	STUDY_ORIENT	n/a	n/a	2	2	TEA	PARK	TEA	SEAT	13	[0, 0, 0]	-999	PAL1	0	R1263C
1521.405	5.034	926191	STUDY_PAIR	n/a	wordpools/wordpool_EN.txt	2	2	TEA	PARK	TEA	SEAT	13	[0, 0, 0]	-999	PAL1	0	R1263C
1526.439	0.8	928708	STUDY_ORIENT	n/a	n/a	3	1	BOWL	n/a	BOWL	BAND	13	[0, 0, 0]	-999	PAL1	0	R1263C
1527.239	5.034	929108	STUDY_PAIR	n/a	wordpools/wordpool_EN.txt	3	1	BOWL	n/a	BOWL	BAND	13	[0, 0, 0]	-999	PAL1	0	R1263C
1532.273	0.967	931625	STUDY_ORIENT	n/a	n/a	4	4	JUICE	PIPE	JUICE	BLUSH	13	[0, 0, 0]	-999	PAL1	0	R1263C
1533.24	5.018	932108	STUDY_PAIR	n/a	wordpools/wordpool_EN.txt	4	4	JUICE	PIPE	JUICE	BLUSH	13	[0, 0, 0]	-999	PAL1	0	R1263C
1538.258	1.017	934617	STUDY_ORIENT	n/a	n/a	5	5	NOSE	n/a	BOOT	NOSE	13	[0, 0, 0]	-999	PAL1	0	R1263C
1539.275	5.034	935125	STUDY_PAIR	n/a	wordpools/wordpool_EN.txt	5	5	NOSE	n/a	BOOT	NOSE	13	[0, 0, 0]	-999	PAL1	0	R1263C
1544.309	0.917	937642	STUDY_ORIENT	n/a	n/a	6	6	PEARL	PIPE	PEARL	PIPE	13	[0, 0, 0]	-999	PAL1	0	R1263C
1545.226	4.018	938101	STUDY_PAIR	n/a	wordpools/wordpool_EN.txt	6	6	PEARL	PIPE	PEARL	PIPE	13	[0, 0, 0]	-999	PAL1	0	R1263C
1549.244	0.999	940110	START	n/a	n/a	-999	-999	n/a	n/a	n/a	n/a	13	[-999, -999, -999]	-999	PAL1	0	R1263C
1550.243	0.017	940609	MATH_START	n/a	n/a	-999	-999	n/a	n/a	n/a	n/a	13	[0, 0, 0]	-999	PAL1	0	R1263C
1550.26	7.168	940617	PROB	7144	n/a	-999	-999	n/a	n/a	n/a	n/a	13	[8, 6, 3]	17	PAL1	0	R1263C
1557.428	8.018	944201	PROB	7984	n/a	-999	-999	n/a	n/a	n/a	n/a	13	[2, 6, 3]	11	PAL1	0	R1263C
1565.446	6.118	948210	PROB	6118	n/a	-999	-999	n/a	n/a	n/a	n/a	13	[1, 2, 8]	11	PAL1	0	R1263C
1571.564	0.017	951269	STOP	n/a	n/a	-999	-999	n/a	n/a	n/a	n/a	13	[-999, -999, -999]	-999	PAL1	0	R1263C
1571.581	0.0	951277	MATH_END	n/a	n/a	-999	-999	n/a	n/a	n/a	n/a	13	[0, 0, 0]	-999	PAL1	0	R1263C
1571.581	0.017	951277	TEST_START	n/a	n/a	-999	-999	n/a	n/a	n/a	n/a	13	[0, 0, 0]	-999	PAL1	0	R1263C
1571.598	0.933	951286	TEST_ORIENT	n/a	n/a	3	1	BOWL	n/a	BOWL	BAND	13	[0, 0, 0]	-999	PAL1	0	R1263C
1572.531	0.001	951752	TEST_PROBE	n/a	wordpools/wordpool_EN.txt	3	1	BOWL	n/a	BOWL	BAND	13	[0, 0, 0]	-999	PAL1	0	R1263C
1572.532	2.159	951753	REC_START	n/a	n/a	3	-999	n/a	n/a	n/a	n/a	13	[0, 0, 0]	-999	PAL1	0	R1263C
1574.691	0.5	952832	REC_EVENT	2159	n/a	3	1	BOWL	<>	BOWL	BAND	13	[0, 0, 0]	-999	PAL1	0	R1263C
1575.191	2.357	953082	REC_EVENT	2659	n/a	3	1	BOWL	<>	BOWL	BAND	13	[0, 0, 0]	-999	PAL1	0	R1263C
1577.548	0.017	954261	REC_END	n/a	n/a	3	-999	n/a	n/a	n/a	n/a	13	[0, 0, 0]	-999	PAL1	0	R1263C
1577.565	0.8	954269	TEST_ORIENT	n/a	n/a	2	2	TEA	PARK	TEA	SEAT	13	[0, 0, 0]	-999	PAL1	0	R1263C
1578.365	0.001	954669	TEST_PROBE	n/a	wordpools/wordpool_EN.txt	2	2	TEA	PARK	TEA	SEAT	13	[0, 0, 0]	-999	PAL1	0	R1263C
1578.366	3.881	954669	REC_START	n/a	n/a	2	-999	n/a	PARK	n/a	n/a	13	[0, 0, 0]	-999	PAL1	0	R1263C
1582.247	0.674	956610	REC_EVENT	3881	n/a	2	2	TEA	PARK	TEA	SEAT	13	[0, 0, 0]	-999	PAL1	0	R1263C
1582.921	0.456	956947	REC_EVENT	4555	n/a	2	2	TEA	<>	TEA	SEAT	13	[0, 0, 0]	-999	PAL1	0	R1263C
1583.377	0.023	957175	REC_END	n/a	n/a	2	-999	n/a	n/a	n/a	n/a	13	[0, 0, 0]	-999	PAL1	0	R1263C
1583.4	0.883	957186	TEST_ORIENT	n/a	n/a	1	3	TOY	SHIRT	SHIRT	TOY	13	[0, 0, 0]	-999	PAL1	0	R1263C
1584.283	0.001	957628	TEST_PROBE	n/a	wordpools/wordpool_EN.txt	1	3	TOY	SHIRT	SHIRT	TOY	13	[0, 0, 0]	-999	PAL1	0	R1263C
1584.284	1.275	957628	REC_START	n/a	n/a	1	-999	n/a	SHIRT	n/a	n/a	13	[0, 0, 0]	-999	PAL1	0	R1263C
1585.559	0.749	958266	REC_EVENT	1275	n/a	1	3	TOY	SHIRT	SHIRT	TOY	13	[0, 0, 0]	-999	PAL1	0	R1263C
1586.308	2.987	958640	REC_EVENT	2024	n/a	1	3	TOY	<>	SHIRT	TOY	13	[0, 0, 0]	-999	PAL1	0	R1263C
1589.295	0.023	960134	REC_END	n/a	n/a	1	-999	n/a	n/a	n/a	n/a	13	[0, 0, 0]	-999	PAL1	0	R1263C
1589.318	0.816	960145	TEST_ORIENT	n/a	n/a	4	4	JUICE	PIPE	JUICE	BLUSH	13	[0, 0, 0]	-999	PAL1	0	R1263C
1590.134	0.001	960553	TEST_PROBE	n/a	wordpools/wordpool_EN.txt	4	4	JUICE	PIPE	JUICE	BLUSH	13	[0, 0, 0]	-999	PAL1	0	R1263C
1590.135	4.808	960554	REC_START	n/a	n/a	4	-999	n/a	PIPE	n/a	n/a	13	[0, 0, 0]	-999	PAL1	0	R1263C
1594.943	0.192	962957	REC_EVENT	4808	n/a	4	4	JUICE	PIPE	JUICE	BLUSH	13	[0, 0, 0]	-999	PAL1	0	R1263C
1595.135	0.003	963053	REC_END	n/a	n/a	4	-999	n/a	n/a	n/a	n/a	13	[0, 0, 0]	-999	PAL1	0	R1263C
1595.138	0.014	963055	REC_EVENT	5003	n/a	4	4	JUICE	<>	JUICE	BLUSH	13	[0, 0, 0]	-999	PAL1	0	R1263C
1595.152	1.034	963062	TEST_ORIENT	n/a	n/a	5	5	NOSE	n/a	BOOT	NOSE	13	[0, 0, 0]	-999	PAL1	0	R1263C
1596.186	0.0	963579	TEST_PROBE	n/a	wordpools/wordpool_EN.txt	5	5	NOSE	n/a	BOOT	NOSE	13	[0, 0, 0]	-999	PAL1	0	R1263C
1596.186	4.179	963579	REC_START	n/a	n/a	5	-999	n/a	n/a	n/a	n/a	13	[0, 0, 0]	-999	PAL1	0	R1263C
1600.365	0.05	965668	REC_EVENT	4179	n/a	5	5	NOSE	<>	BOOT	NOSE	13	[0, 0, 0]	-999	PAL1	0	R1263C
1600.415	0.788	965693	REC_EVENT	4229	n/a	5	5	NOSE	<>	BOOT	NOSE	13	[0, 0, 0]	-999	PAL1	0	R1263C
1601.203	0.017	966087	REC_END	n/a	n/a	5	-999	n/a	n/a	n/a	n/a	13	[0, 0, 0]	-999	PAL1	0	R1263C
1601.22	0.85	966096	TEST_ORIENT	n/a	n/a	6	6	PEARL	PIPE	PEARL	PIPE	13	[0, 0, 0]	-999	PAL1	0	R1263C
1602.07	0.0	966521	TEST_PROBE	n/a	wordpools/wordpool_EN.txt	6	6	PEARL	PIPE	PEARL	PIPE	13	[0, 0, 0]	-999	PAL1	0	R1263C
1602.07	1.268	966521	REC_START	n/a	n/a	6	-999	n/a	PIPE	n/a	n/a	13	[0, 0, 0]	-999	PAL1	0	R1263C
1603.338	0.795	967155	REC_EVENT	1268	n/a	6	6	PEARL	PIPE	PEARL	PIPE	13	[0, 0, 0]	-999	PAL1	0	R1263C
1604.133	0.302	967552	REC_EVENT	2063	n/a	6	6	PEARL	<>	PEARL	PIPE	13	[0, 0, 0]	-999	PAL1	0	R1263C
1604.435	0.384	967703	REC_EVENT	2365	n/a	6	6	PEARL	<>	PEARL	PIPE	13	[0, 0, 0]	-999	PAL1	0	R1263C
1604.819	0.604	967895	REC_EVENT	2749	n/a	6	6	PEARL	<>	PEARL	PIPE	13	[0, 0, 0]	-999	PAL1	0	R1263C
1605.423	0.365	968197	REC_EVENT	3353	n/a	6	6	PEARL	<>	PEARL	PIPE	13	[0, 0, 0]	-999	PAL1	0	R1263C
1605.788	0.627	968380	REC_EVENT	3718	n/a	6	6	PEARL	<>	PEARL	PIPE	13	[0, 0, 0]	-999	PAL1	0	R1263C
1606.415	0.672	968693	REC_EVENT	4345	n/a	6	6	PEARL	<>	PEARL	PIPE	13	[0, 0, 0]	-999	PAL1	0	R1263C
1607.087	11.541	969029	REC_END	n/a	n/a	6	-999	n/a	n/a	n/a	n/a	13	[0, 0, 0]	-999	PAL1	0	R1263C
1618.628	10.447	974799	ENCODING_START	n/a	n/a	0	-999	n/a	n/a	n/a	n/a	14	[0, 0, 0]	-999	PAL1	0	R1263C
1629.075	1.017	980022	STUDY_ORIENT	n/a	n/a	1	1	TRAY	SPARK	SPARK	TRAY	14	[0, 0, 0]	-999	PAL1	0	R1263C
1630.092	5.034	980531	STUDY_PAIR	n/a	wordpools/wordpool_EN.txt	1	1	TRAY	SPARK	SPARK	TRAY	14	[0, 0, 0]	-999	PAL1	0	R1263C
1635.126	0.9	983047	STUDY_ORIENT	n/a	n/a	2	2	ARK	GATE	GATE	ARK	14	[0, 0, 0]	-999	PAL1	0	R1263C
1636.026	5.018	983497	STUDY_PAIR	n/a	wordpools/wordpool_EN.txt	2	2	ARK	GATE	GATE	ARK	14	[0, 0, 0]	-999	PAL1	0	R1263C
1641.044	0.817	986006	STUDY_ORIENT	n/a	n/a	3	3	ROCK	HOOF	HOOF	ROCK	14	[0, 0, 0]	-999	PAL1	0	R1263C
1641.861	5.034	986415	STUDY_PAIR	n/a	wordpools/wordpool_EN.txt	3	3	ROCK	HOOF	HOOF	ROCK	14	[0, 0, 0]	-999	PAL1	0	R1263C
1646.895	0.884	988932	STUDY_ORIENT	n/a	n/a	4	4	STORE	TANK	STORE	TANK	14	[0, 0, 0]	-999	PAL1	0	R1263C
1647.779	5.034	989374	STUDY_PAIR	n/a	wordpools/wordpool_EN.txt	4	4	STORE	TANK	STORE	TANK	14	[0, 0, 0]	-999	PAL1	0	R1263C
1652.813	0.984	991890	STUDY_ORIENT	n/a	n/a	5	5	FLOOR	STEAK	FLOOR	STEAK	14	[0, 0, 0]	-999	PAL1	0	R1263C
1653.797	5.034	992382	STUDY_PAIR	n/a	wordpools/wordpool_EN.txt	5	5	FLOOR	STEAK	FLOOR	STEAK	14	[0, 0, 0]	-999	PAL1	0	R1263C
1658.831	0.817	994899	STUDY_ORIENT	n/a	n/a	6	6	BOX	OAK	BOX	OAK	14	[0, 0, 0]	-999	PAL1	0	R1263C
1659.648	4.018	995308	STUDY_PAIR	n/a	wordpools/wordpool_EN.txt	6	6	BOX	OAK	BOX	OAK	14	[0, 0, 0]	-999	PAL1	0	R1263C
1663.666	0.999	997316	START	n/a	n/a	-999	-999	n/a	n/a	n/a	n/a	14	[-999, -999, -999]	-999	PAL1	0	R1263C
1664.665	0.017	997816	MATH_START	n/a	n/a	-999	-999	n/a	n/a	n/a	n/a	14	[0, 0, 0]	-999	PAL1	0	R1263C
1664.682	4.084	997824	PROB	4050	n/a	-999	-999	n/a	n/a	n/a	n/a	14	[2, 1, 3]	6	PAL1	0	R1263C
1668.766	7.902	999866	PROB	7878	n/a	-999	-999	n/a	n/a	n/a	n/a	14	[9, 5, 4]	18	PAL1	0	R1263C
1676.668	5.717	1003817	PROB	5688	n/a	-999	-999	n/a	n/a	n/a	n/a	14	[2, 1, 5]	8	PAL1	0	R1263C
1682.385	3.883	1006675	PROB	3883	n/a	-999	-999	n/a	n/a	n/a	n/a	14	[3, 2, 2]	7	PAL1	0	R1263C
1686.268	0.018	1008617	STOP	n/a	n/a	-999	-999	n/a	n/a	n/a	n/a	14	[-999, -999, -999]	-999	PAL1	0	R1263C
1686.286	0.0	1008626	MATH_END	n/a	n/a	-999	-999	n/a	n/a	n/a	n/a	14	[0, 0, 0]	-999	PAL1	0	R1263C
1686.286	0.017	1008626	TEST_START	n/a	n/a	-999	-999	n/a	n/a	n/a	n/a	14	[0, 0, 0]	-999	PAL1	0	R1263C
1686.303	0.967	1008634	TEST_ORIENT	n/a	n/a	1	1	TRAY	SPARK	SPARK	TRAY	14	[0, 0, 0]	-999	PAL1	0	R1263C
1687.27	0.001	1009118	TEST_PROBE	n/a	wordpools/wordpool_EN.txt	1	1	TRAY	SPARK	SPARK	TRAY	14	[0, 0, 0]	-999	PAL1	0	R1263C
1687.271	1.071	1009118	REC_START	n/a	n/a	1	-999	n/a	SPARK	n/a	n/a	14	[0, 0, 0]	-999	PAL1	0	R1263C
1688.342	0.805	1009654	REC_EVENT	1071	n/a	1	1	TRAY	SPARK	SPARK	TRAY	14	[0, 0, 0]	-999	PAL1	0	R1263C
1689.147	3.152	1010056	REC_EVENT	1876	n/a	1	1	TRAY	<>	SPARK	TRAY	14	[0, 0, 0]	-999	PAL1	0	R1263C
1692.299	0.022	1011632	REC_END	n/a	n/a	1	-999	n/a	n/a	n/a	n/a	14	[0, 0, 0]	-999	PAL1	0	R1263C
1692.321	0.85	1011643	TEST_ORIENT	n/a	n/a	2	2	ARK	GATE	GATE	ARK	14	[0, 0, 0]	-999	PAL1	0	R1263C
1693.171	0.0	1012068	TEST_PROBE	n/a	wordpools/wordpool_EN.txt	2	2	ARK	GATE	GATE	ARK	14	[0, 0, 0]	-999	PAL1	0	R1263C
1693.171	2.841	1012068	REC_START	n/a	n/a	2	-999	n/a	GATE	n/a	n/a	14	[0, 0, 0]	-999	PAL1	0	R1263C
1696.012	0.569	1013488	REC_EVENT	2841	n/a	2	2	ARK	GATE	GATE	ARK	14	[0, 0, 0]	-999	PAL1	0	R1263C
1696.581	1.607	1013773	REC_EVENT	3410	n/a	2	2	ARK	<>	GATE	ARK	14	[0, 0, 0]	-999	PAL1	0	R1263C
1698.188	0.017	1014576	REC_END	n/a	n/a	2	-999	n/a	n/a	n/a	n/a	14	[0, 0, 0]	-999	PAL1	0	R1263C
1698.205	0.984	1014585	TEST_ORIENT	n/a	n/a	3	3	ROCK	HOOF	HOOF	ROCK	14	[0, 0, 0]	-999	PAL1	0	R1263C
1699.189	0.0	1015077	TEST_PROBE	n/a	wordpools/wordpool_EN.txt	3	3	ROCK	HOOF	HOOF	ROCK	14	[0, 0, 0]	-999	PAL1	0	R1263C
1699.189	2.278	1015077	REC_START	n/a	n/a	3	-999	n/a	HOOF	n/a	n/a	14	[0, 0, 0]	-999	PAL1	0	R1263C
1701.467	0.53	1016216	REC_EVENT	2278	n/a	3	3	ROCK	HOOF	HOOF	ROCK	14	[0, 0, 0]	-999	PAL1	0	R1263C
1701.997	2.209	1016481	REC_EVENT	2808	n/a	3	3	ROCK	<>	HOOF	ROCK	14	[0, 0, 0]	-999	PAL1	0	R1263C
1704.206	0.017	1017585	REC_END	n/a	n/a	3	-999	n/a	n/a	n/a	n/a	14	[0, 0, 0]	-999	PAL1	0	R1263C
1704.223	0.917	1017594	TEST_ORIENT	n/a	n/a	4	4	STORE	TANK	STORE	TANK	14	[0, 0, 0]	-999	PAL1	0	R1263C
1705.14	0.0	1018052	TEST_PROBE	n/a	wordpools/wordpool_EN.txt	4	4	STORE	TANK	STORE	TANK	14	[0, 0, 0]	-999	PAL1	0	R1263C
1705.14	1.198	1018052	REC_START	n/a	n/a	4	-999	n/a	TANK	n/a	n/a	14	[0, 0, 0]	-999	PAL1	0	R1263C
1706.338	0.195	1018651	REC_EVENT	1198	n/a	4	4	STORE	<>	STORE	TANK	14	[0, 0, 0]	-999	PAL1	0	R1263C
1706.533	0.716	1018748	REC_EVENT	1393	n/a	4	4	STORE	<>	STORE	TANK	14	[0, 0, 0]	-999	PAL1	0	R1263C
1707.249	0.577	1019106	REC_EVENT	2109	n/a	4	4	STORE	TANK	STORE	TANK	14	[0, 0, 0]	-999	PAL1	0	R1263C
1707.826	2.331	1019395	REC_EVENT	2686	n/a	4	4	STORE	<>	STORE	TANK	14	[0, 0, 0]	-999	PAL1	0	R1263C
1710.157	0.017	1020560	REC_END	n/a	n/a	4	-999	n/a	n/a	n/a	n/a	14	[0, 0, 0]	-999	PAL1	0	R1263C
1710.174	1.017	1020569	TEST_ORIENT	n/a	n/a	5	5	FLOOR	STEAK	FLOOR	STEAK	14	[0, 0, 0]	-999	PAL1	0	R1263C
1711.191	0.001	1021077	TEST_PROBE	n/a	wordpools/wordpool_EN.txt	5	5	FLOOR	STEAK	FLOOR	STEAK	14	[0, 0, 0]	-999	PAL1	0	R1263C
1711.192	2.09	1021078	REC_START	n/a	n/a	5	-999	n/a	STEAK	n/a	n/a	14	[0, 0, 0]	-999	PAL1	0	R1263C
1713.282	0.708	1022123	REC_EVENT	2090	n/a	5	5	FLOOR	STEAK	FLOOR	STEAK	14	[0, 0, 0]	-999	PAL1	0	R1263C
1713.99	2.229	1022477	REC_EVENT	2798	n/a	5	5	FLOOR	<>	FLOOR	STEAK	14	[0, 0, 0]	-999	PAL1	0	R1263C
1716.219	0.023	1023591	REC_END	n/a	n/a	5	-999	n/a	n/a	n/a	n/a	14	[0, 0, 0]	-999	PAL1	0	R1263C
1716.242	0.95	1023603	TEST_ORIENT	n/a	n/a	6	6	BOX	OAK	BOX	OAK	14	[0, 0, 0]	-999	PAL1	0	R1263C
1717.192	0.001	1024078	TEST_PROBE	n/a	wordpools/wordpool_EN.txt	6	6	BOX	OAK	BOX	OAK	14	[0, 0, 0]	-999	PAL1	0	R1263C
1717.193	1.584	1024078	REC_START	n/a	n/a	6	-999	n/a	OAK	n/a	n/a	14	[0, 0, 0]	-999	PAL1	0	R1263C
1718.777	0.529	1024870	REC_EVENT	1584	n/a	6	6	BOX	OAK	BOX	OAK	14	[0, 0, 0]	-999	PAL1	0	R1263C
1719.306	2.903	1025134	REC_EVENT	2113	n/a	6	6	BOX	<>	BOX	OAK	14	[0, 0, 0]	-999	PAL1	0	R1263C
1722.209	3.099	1026586	REC_END	n/a	n/a	6	-999	n/a	n/a	n/a	n/a	14	[0, 0, 0]	-999	PAL1	0	R1263C
1725.308	10.437	1028135	ENCODING_START	n/a	n/a	0	-999	n/a	n/a	n/a	n/a	15	[0, 0, 0]	-999	PAL1	0	R1263C
1735.745	0.801	1033353	STUDY_ORIENT	n/a	n/a	1	5	SNOW	n/a	SNOW	BED	15	[0, 0, 0]	-999	PAL1	0	R1263C
1736.546	5.034	1033754	STUDY_PAIR	n/a	wordpools/wordpool_EN.txt	1	5	SNOW	n/a	SNOW	BED	15	[0, 0, 0]	-999	PAL1	0	R1263C
1741.58	1.017	1036271	STUDY_ORIENT	n/a	n/a	2	6	WAND	n/a	WAND	ZOO	15	[0, 0, 0]	-999	PAL1	0	R1263C
1742.597	5.034	1036779	STUDY_PAIR	n/a	wordpools/wordpool_EN.txt	2	6	WAND	n/a	WAND	ZOO	15	[0, 0, 0]	-999	PAL1	0	R1263C
1747.631	0.8	1039296	STUDY_ORIENT	n/a	n/a	3	3	BANK	n/a	DOLL	BANK	15	[0, 0, 0]	-999	PAL1	0	R1263C
1748.431	5.018	1039696	STUDY_PAIR	n/a	wordpools/wordpool_EN.txt	3	3	BANK	n/a	DOLL	BANK	15	[0, 0, 0]	-999	PAL1	0	R1263C
1753.449	0.867	1042205	STUDY_ORIENT	n/a	n/a	4	2	STONE	n/a	HORN	STONE	15	[0, 0, 0]	-999	PAL1	0	R1263C
1754.316	5.034	1042638	STUDY_PAIR	n/a	wordpools/wordpool_EN.txt	4	2	STONE	n/a	HORN	STONE	15	[0, 0, 0]	-999	PAL1	0	R1263C
1759.35	0.984	1045155	STUDY_ORIENT	n/a	n/a	5	1	CANE	n/a	CANE	NET	15	[0, 0, 0]	-999	PAL1	0	R1263C
1760.334	5.034	1045647	STUDY_PAIR	n/a	wordpools/wordpool_EN.txt	5	1	CANE	n/a	CANE	NET	15	[0, 0, 0]	-999	PAL1	0	R1263C
1765.368	1.017	1048164	STUDY_ORIENT	n/a	n/a	6	4	TOAST	n/a	ELF	TOAST	15	[0, 0, 0]	-999	PAL1	0	R1263C
1766.385	4.018	1048672	STUDY_PAIR	n/a	wordpools/wordpool_EN.txt	6	4	TOAST	n/a	ELF	TOAST	15	[0, 0, 0]	-999	PAL1	0	R1263C
1770.403	0.999	1050681	START	n/a	n/a	-999	-999	n/a	n/a	n/a	n/a	15	[-999, -999, -999]	-999	PAL1	0	R1263C
1771.402	0.017	1051181	MATH_START	n/a	n/a	-999	-999	n/a	n/a	n/a	n/a	15	[0, 0, 0]	-999	PAL1	0	R1263C
1771.419	7.502	1051189	PROB	7473	n/a	-999	-999	n/a	n/a	n/a	n/a	15	[2, 3, 8]	13	PAL1	0	R1263C
1778.921	6.317	1054940	PROB	6291	n/a	-999	-999	n/a	n/a	n/a	n/a	15	[1, 5, 7]	13	PAL1	0	R1263C
1785.238	5.174	1058098	PROB	5174	n/a	-999	-999	n/a	n/a	n/a	n/a	15	[6, 7, 7]	20	PAL1	0	R1263C
1790.412	0.011	1060685	STOP	n/a	n/a	-999	-999	n/a	n/a	n/a	n/a	15	[-999, -999, -999]	-999	PAL1	0	R1263C
1790.423	0.0	1060690	MATH_END	n/a	n/a	-999	-999	n/a	n/a	n/a	n/a	15	[0, 0, 0]	-999	PAL1	0	R1263C
1790.423	0.016	1060690	TEST_START	n/a	n/a	-999	-999	n/a	n/a	n/a	n/a	15	[0, 0, 0]	-999	PAL1	0	R1263C
1790.439	0.9	1060698	TEST_ORIENT	n/a	n/a	5	1	CANE	n/a	CANE	NET	15	[0, 0, 0]	-999	PAL1	0	R1263C
1791.339	0.001	1061148	TEST_PROBE	n/a	wordpools/wordpool_EN.txt	5	1	CANE	n/a	CANE	NET	15	[0, 0, 0]	-999	PAL1	0	R1263C
1791.34	4.365	1061149	REC_START	n/a	n/a	5	-999	n/a	n/a	n/a	n/a	15	[0, 0, 0]	-999	PAL1	0	R1263C
1795.705	0.5	1063331	REC_EVENT	4365	n/a	5	1	CANE	<>	CANE	NET	15	[0, 0, 0]	-999	PAL1	0	R1263C
1796.205	0.146	1063581	REC_EVENT	4865	n/a	5	1	CANE	<>	CANE	NET	15	[0, 0, 0]	-999	PAL1	0	R1263C
1796.351	0.023	1063654	REC_END	n/a	n/a	5	-999	n/a	n/a	n/a	n/a	15	[0, 0, 0]	-999	PAL1	0	R1263C
1796.374	1.033	1063666	TEST_ORIENT	n/a	n/a	4	2	STONE	n/a	HORN	STONE	15	[0, 0, 0]	-999	PAL1	0	R1263C
1797.407	0.001	1064182	TEST_PROBE	n/a	wordpools/wordpool_EN.txt	4	2	STONE	n/a	HORN	STONE	15	[0, 0, 0]	-999	PAL1	0	R1263C
1797.408	2.229	1064183	REC_START	n/a	n/a	4	-999	n/a	n/a	n/a	n/a	15	[0, 0, 0]	-999	PAL1	0	R1263C
1799.637	0.5	1065297	REC_EVENT	2229	n/a	4	2	STONE	<>	HORN	STONE	15	[0, 0, 0]	-999	PAL1	0	R1263C
1800.137	2.282	1065547	REC_EVENT	2729	n/a	4	2	STONE	<>	HORN	STONE	15	[0, 0, 0]	-999	PAL1	0	R1263C
1802.419	0.023	1066688	REC_END	n/a	n/a	4	-999	n/a	n/a	n/a	n/a	15	[0, 0, 0]	-999	PAL1	0	R1263C
1802.442	1.016	1066700	TEST_ORIENT	n/a	n/a	3	3	BANK	n/a	DOLL	BANK	15	[0, 0, 0]	-999	PAL1	0	R1263C
1803.458	0.001	1067208	TEST_PROBE	n/a	wordpools/wordpool_EN.txt	3	3	BANK	n/a	DOLL	BANK	15	[0, 0, 0]	-999	PAL1	0	R1263C
1803.459	3.738	1067208	REC_START	n/a	n/a	3	-999	n/a	n/a	n/a	n/a	15	[0, 0, 0]	-999	PAL1	0	R1263C
1807.197	0.5	1069077	REC_EVENT	3738	n/a	3	3	BANK	<>	DOLL	BANK	15	[0, 0, 0]	-999	PAL1	0	R1263C
1807.697	0.773	1069327	REC_EVENT	4238	n/a	3	3	BANK	<>	DOLL	BANK	15	[0, 0, 0]	-999	PAL1	0	R1263C
1808.47	0.023	1069713	REC_END	n/a	n/a	3	-999	n/a	n/a	n/a	n/a	15	[0, 0, 0]	-999	PAL1	0	R1263C
1808.493	0.916	1069725	TEST_ORIENT	n/a	n/a	6	4	TOAST	n/a	ELF	TOAST	15	[0, 0, 0]	-999	PAL1	0	R1263C
1809.409	0.002	1070183	TEST_PROBE	n/a	wordpools/wordpool_EN.txt	6	4	TOAST	n/a	ELF	TOAST	15	[0, 0, 0]	-999	PAL1	0	R1263C
1809.411	2.321	1070184	REC_START	n/a	n/a	6	-999	n/a	n/a	n/a	n/a	15	[0, 0, 0]	-999	PAL1	0	R1263C
1811.732	0.5	1071344	REC_EVENT	2321	n/a	6	4	TOAST	<>	ELF	TOAST	15	[0, 0, 0]	-999	PAL1	0	R1263C
1812.232	2.178	1071594	REC_EVENT	2821	n/a	6	4	TOAST	<>	ELF	TOAST	15	[0, 0, 0]	-999	PAL1	0	R1263C
1814.41	0.017	1072683	REC_END	n/a	n/a	6	-999	n/a	n/a	n/a	n/a	15	[0, 0, 0]	-999	PAL1	0	R1263C
1814.427	1.034	1072692	TEST_ORIENT	n/a	n/a	1	5	SNOW	n/a	SNOW	BED	15	[0, 0, 0]	-999	PAL1	0	R1263C
1815.461	0.0	1073209	TEST_PROBE	n/a	wordpools/wordpool_EN.txt	1	5	SNOW	n/a	SNOW	BED	15	[0, 0, 0]	-999	PAL1	0	R1263C
1815.461	4.574	1073209	REC_START	n/a	n/a	1	-999	n/a	n/a	n/a	n/a	15	[0, 0, 0]	-999	PAL1	0	R1263C
1820.035	0.341	1075495	REC_EVENT	4574	n/a	1	5	SNOW	<>	SNOW	BED	15	[0, 0, 0]	-999	PAL1	0	R1263C
1820.376	0.102	1075666	REC_EVENT	4915	n/a	1	5	SNOW	<>	SNOW	BED	15	[0, 0, 0]	-999	PAL1	0	R1263C
1820.478	0.017	1075717	REC_END	n/a	n/a	1	-999	n/a	n/a	n/a	n/a	15	[0, 0, 0]	-999	PAL1	0	R1263C
1820.495	1.033	1075725	TEST_ORIENT	n/a	n/a	2	6	WAND	n/a	WAND	ZOO	15	[0, 0, 0]	-999	PAL1	0	R1263C
1821.528	0.001	1076242	TEST_PROBE	n/a	wordpools/wordpool_EN.txt	2	6	WAND	n/a	WAND	ZOO	15	[0, 0, 0]	-999	PAL1	0	R1263C
1821.529	4.376	1076242	REC_START	n/a	n/a	2	-999	n/a	n/a	n/a	n/a	15	[0, 0, 0]	-999	PAL1	0	R1263C
1825.905	0.5	1078430	REC_EVENT	4376	n/a	2	6	WAND	<>	WAND	ZOO	15	[0, 0, 0]	-999	PAL1	0	R1263C
1826.405	0.135	1078680	REC_EVENT	4876	n/a	2	6	WAND	<>	WAND	ZOO	15	[0, 0, 0]	-999	PAL1	0	R1263C
1826.54	8.184	1078748	REC_END	n/a	n/a	2	-999	n/a	n/a	n/a	n/a	15	[0, 0, 0]	-999	PAL1	0	R1263C
1834.724	10.442	1082839	ENCODING_START	n/a	n/a	0	-999	n/a	n/a	n/a	n/a	16	[0, 0, 0]	-999	PAL1	0	R1263C
1845.166	1.001	1088060	STUDY_ORIENT	n/a	n/a	1	3	BRANCH	n/a	CHALK	BRANCH	16	[0, 0, 0]	-999	PAL1	0	R1263C
1846.167	5.034	1088560	STUDY_PAIR	n/a	wordpools/wordpool_EN.txt	1	3	BRANCH	n/a	CHALK	BRANCH	16	[0, 0, 0]	-999	PAL1	0	R1263C
1851.201	1.0	1091077	STUDY_ORIENT	n/a	n/a	2	2	PEAR	HEART	HEART	PEAR	16	[0, 0, 0]	-999	PAL1	0	R1263C
1852.201	5.034	1091577	STUDY_PAIR	n/a	wordpools/wordpool_EN.txt	2	2	PEAR	HEART	HEART	PEAR	16	[0, 0, 0]	-999	PAL1	0	R1263C
1857.235	0.917	1094094	STUDY_ORIENT	n/a	n/a	3	1	POOL	FISH	FISH	POOL	16	[0, 0, 0]	-999	PAL1	0	R1263C
1858.152	5.018	1094553	STUDY_PAIR	n/a	wordpools/wordpool_EN.txt	3	1	POOL	FISH	FISH	POOL	16	[0, 0, 0]	-999	PAL1	0	R1263C
1863.17	0.9	1097061	STUDY_ORIENT	n/a	n/a	4	6	THREAD	n/a	HAWK	THREAD	16	[0, 0, 0]	-999	PAL1	0	R1263C
1864.07	5.034	1097511	STUDY_PAIR	n/a	wordpools/wordpool_EN.txt	4	6	THREAD	n/a	HAWK	THREAD	16	[0, 0, 0]	-999	PAL1	0	R1263C
1869.104	0.818	1100028	STUDY_ORIENT	n/a	n/a	5	5	STOVE	TRASH	STOVE	TRASH	16	[0, 0, 0]	-999	PAL1	0	R1263C
1869.922	5.018	1100437	STUDY_PAIR	n/a	wordpools/wordpool_EN.txt	5	5	STOVE	TRASH	STOVE	TRASH	16	[0, 0, 0]	-999	PAL1	0	R1263C
1874.94	0.866	1102946	STUDY_ORIENT	n/a	n/a	6	4	DRESS	STOOL	DRESS	STOOL	16	[0, 0, 0]	-999	PAL1	0	R1263C
1875.806	4.017	1103379	STUDY_PAIR	n/a	wordpools/wordpool_EN.txt	6	4	DRESS	STOOL	DRESS	STOOL	16	[0, 0, 0]	-999	PAL1	0	R1263C
1879.823	1.0	1105387	START	n/a	n/a	-999	-999	n/a	n/a	n/a	n/a	16	[-999, -999, -999]	-999	PAL1	0	R1263C
1880.823	0.017	1105887	MATH_START	n/a	n/a	-999	-999	n/a	n/a	n/a	n/a	16	[0, 0, 0]	-999	PAL1	0	R1263C
1880.84	16.586	1105896	PROB	16556	n/a	-999	-999	n/a	n/a	n/a	n/a	16	[1, 3, 1]	5	PAL1	0	R1263C
1897.426	5.555	1114188	PROB	5555	n/a	-999	-999	n/a	n/a	n/a	n/a	16	[2, 2, 4]	8	PAL1	0	R1263C
1902.981	0.014	1116965	STOP	n/a	n/a	-999	-999	n/a	n/a	n/a	n/a	16	[-999, -999, -999]	-999	PAL1	0	R1263C
1902.995	0.0	1116972	MATH_END	n/a	n/a	-999	-999	n/a	n/a	n/a	n/a	16	[0, 0, 0]	-999	PAL1	0	R1263C
1902.995	0.016	1116972	TEST_START	n/a	n/a	-999	-999	n/a	n/a	n/a	n/a	16	[0, 0, 0]	-999	PAL1	0	R1263C
1903.011	1.0	1116980	TEST_ORIENT	n/a	n/a	3	1	POOL	FISH	FISH	POOL	16	[0, 0, 0]	-999	PAL1	0	R1263C
1904.011	0.001	1117480	TEST_PROBE	n/a	wordpools/wordpool_EN.txt	3	1	POOL	FISH	FISH	POOL	16	[0, 0, 0]	-999	PAL1	0	R1263C
1904.012	1.172	1117481	REC_START	n/a	n/a	3	-999	n/a	FISH	n/a	n/a	16	[0, 0, 0]	-999	PAL1	0	R1263C
1905.184	0.592	1118067	REC_EVENT	1172	n/a	3	1	POOL	FISH	FISH	POOL	16	[0, 0, 0]	-999	PAL1	0	R1263C
1905.776	3.269	1118363	REC_EVENT	1764	n/a	3	1	POOL	<>	FISH	POOL	16	[0, 0, 0]	-999	PAL1	0	R1263C
1909.045	0.017	1119997	REC_END	n/a	n/a	3	-999	n/a	n/a	n/a	n/a	16	[0, 0, 0]	-999	PAL1	0	R1263C
1909.062	0.983	1120006	TEST_ORIENT	n/a	n/a	2	2	PEAR	HEART	HEART	PEAR	16	[0, 0, 0]	-999	PAL1	0	R1263C
1910.045	0.001	1120497	TEST_PROBE	n/a	wordpools/wordpool_EN.txt	2	2	PEAR	HEART	HEART	PEAR	16	[0, 0, 0]	-999	PAL1	0	R1263C
1910.046	1.173	1120498	REC_START	n/a	n/a	2	-999	n/a	HEART	n/a	n/a	16	[0, 0, 0]	-999	PAL1	0	R1263C
1911.219	0.317	1121084	REC_EVENT	1173	n/a	2	2	PEAR	<>	HEART	PEAR	16	[0, 0, 0]	-999	PAL1	0	R1263C
1911.536	0.256	1121243	REC_EVENT	1490	n/a	2	2	PEAR	<>	HEART	PEAR	16	[0, 0, 0]	-999	PAL1	0	R1263C
1911.792	0.707	1121371	REC_EVENT	1746	n/a	2	2	PEAR	HEART	HEART	PEAR	16	[0, 0, 0]	-999	PAL1	0	R1263C
1912.499	2.558	1121724	REC_EVENT	2453	n/a	2	2	PEAR	<>	HEART	PEAR	16	[0, 0, 0]	-999	PAL1	0	R1263C
1915.057	0.023	1123003	REC_END	n/a	n/a	2	-999	n/a	n/a	n/a	n/a	16	[0, 0, 0]	-999	PAL1	0	R1263C
1915.08	1.0	1123015	TEST_ORIENT	n/a	n/a	1	3	BRANCH	n/a	CHALK	BRANCH	16	[0, 0, 0]	-999	PAL1	0	R1263C
1916.08	0.0	1123515	TEST_PROBE	n/a	wordpools/wordpool_EN.txt	1	3	BRANCH	n/a	CHALK	BRANCH	16	[0, 0, 0]	-999	PAL1	0	R1263C
1916.08	1.667	1123515	REC_START	n/a	n/a	1	-999	n/a	n/a	n/a	n/a	16	[0, 0, 0]	-999	PAL1	0	R1263C
1917.747	0.592	1124348	REC_EVENT	1667	n/a	1	3	BRANCH	<>	CHALK	BRANCH	16	[0, 0, 0]	-999	PAL1	0	R1263C
1918.339	2.758	1124644	REC_EVENT	2259	n/a	1	3	BRANCH	<>	CHALK	BRANCH	16	[0, 0, 0]	-999	PAL1	0	R1263C
1921.097	0.017	1126023	REC_END	n/a	n/a	1	-999	n/a	n/a	n/a	n/a	16	[0, 0, 0]	-999	PAL1	0	R1263C
1921.114	1.017	1126031	TEST_ORIENT	n/a	n/a	6	4	DRESS	STOOL	DRESS	STOOL	16	[0, 0, 0]	-999	PAL1	0	R1263C
1922.131	0.001	1126540	TEST_PROBE	n/a	wordpools/wordpool_EN.txt	6	4	DRESS	STOOL	DRESS	STOOL	16	[0, 0, 0]	-999	PAL1	0	R1263C
1922.132	1.118	1126540	REC_START	n/a	n/a	6	-999	n/a	STOOL	n/a	n/a	16	[0, 0, 0]	-999	PAL1	0	R1263C
1923.25	0.487	1127099	REC_EVENT	1118	n/a	6	4	DRESS	STOOL	DRESS	STOOL	16	[0, 0, 0]	-999	PAL1	0	R1263C
1923.737	3.423	1127343	REC_EVENT	1605	n/a	6	4	DRESS	<>	DRESS	STOOL	16	[0, 0, 0]	-999	PAL1	0	R1263C
1927.16	0.022	1129054	REC_END	n/a	n/a	6	-999	n/a	n/a	n/a	n/a	16	[0, 0, 0]	-999	PAL1	0	R1263C
1927.182	0.817	1129065	TEST_ORIENT	n/a	n/a	5	5	STOVE	TRASH	STOVE	TRASH	16	[0, 0, 0]	-999	PAL1	0	R1263C
1927.999	0.001	1129474	TEST_PROBE	n/a	wordpools/wordpool_EN.txt	5	5	STOVE	TRASH	STOVE	TRASH	16	[0, 0, 0]	-999	PAL1	0	R1263C
1928.0	1.074	1129474	REC_START	n/a	n/a	5	-999	n/a	TRASH	n/a	n/a	16	[0, 0, 0]	-999	PAL1	0	R1263C
1929.074	0.673	1130011	REC_EVENT	1074	n/a	5	5	STOVE	TRASH	STOVE	TRASH	16	[0, 0, 0]	-999	PAL1	0	R1263C
1929.747	3.28	1130348	REC_EVENT	1747	n/a	5	5	STOVE	<>	STOVE	TRASH	16	[0, 0, 0]	-999	PAL1	0	R1263C
1933.027	0.023	1131987	REC_END	n/a	n/a	5	-999	n/a	n/a	n/a	n/a	16	[0, 0, 0]	-999	PAL1	0	R1263C
1933.05	0.817	1131999	TEST_ORIENT	n/a	n/a	4	6	THREAD	n/a	HAWK	THREAD	16	[0, 0, 0]	-999	PAL1	0	R1263C
1933.867	0.0	1132407	REC_START	n/a	n/a	4	-999	n/a	n/a	n/a	n/a	16	[0, 0, 0]	-999	PAL1	0	R1263C
1933.867	0.597	1132407	TEST_PROBE	n/a	wordpools/wordpool_EN.txt	4	6	THREAD	n/a	HAWK	THREAD	16	[0, 0, 0]	-999	PAL1	0	R1263C
1934.464	1.0	1132706	REC_EVENT	597	n/a	4	6	THREAD	<>	HAWK	THREAD	16	[0, 0, 0]	-999	PAL1	0	R1263C
1935.464	3.42	1133206	REC_EVENT	1597	n/a	4	6	THREAD	<>	HAWK	THREAD	16	[0, 0, 0]	-999	PAL1	0	R1263C
1938.884	875.68	1134916	REC_END	n/a	n/a	4	-999	n/a	n/a	n/a	n/a	16	[0, 0, 0]	-999	PAL1	0	R1263C
2814.564	10.44	1572725	ENCODING_START	n/a	n/a	0	-999	n/a	n/a	n/a	n/a	17	[0, 0, 0]	-999	PAL1	0	R1263C
2825.004	0.984	1577944	STUDY_ORIENT	n/a	n/a	1	5	BEAK	n/a	DESK	BEAK	17	[0, 0, 0]	-999	PAL1	0	R1263C
2825.988	5.017	1578436	STUDY_PAIR	n/a	wordpools/wordpool_EN.txt	1	5	BEAK	n/a	DESK	BEAK	17	[0, 0, 0]	-999	PAL1	0	R1263C
2831.005	0.833	1580945	STUDY_ORIENT	n/a	n/a	2	4	PANTS	n/a	PANTS	MAT	17	[0, 0, 0]	-999	PAL1	0	R1263C
2831.838	5.018	1581361	STUDY_PAIR	n/a	wordpools/wordpool_EN.txt	2	4	PANTS	n/a	PANTS	MAT	17	[0, 0, 0]	-999	PAL1	0	R1263C
2836.856	1.017	1583870	STUDY_ORIENT	n/a	n/a	3	3	BAG	JEEP	JEEP	BAG	17	[0, 0, 0]	-999	PAL1	0	R1263C
2837.873	5.034	1584378	STUDY_PAIR	n/a	wordpools/wordpool_EN.txt	3	3	BAG	JEEP	JEEP	BAG	17	[0, 0, 0]	-999	PAL1	0	R1263C
2842.907	0.9	1586895	STUDY_ORIENT	n/a	n/a	4	6	LEAF	BIRD	LEAF	GOAT	17	[0, 0, 0]	-999	PAL1	0	R1263C
2843.807	5.018	1587345	STUDY_PAIR	n/a	wordpools/wordpool_EN.txt	4	6	LEAF	BIRD	LEAF	GOAT	17	[0, 0, 0]	-999	PAL1	0	R1263C
2848.825	0.783	1589854	STUDY_ORIENT	n/a	n/a	5	1	DIME	CASH	CASH	DIME	17	[0, 0, 0]	-999	PAL1	0	R1263C
2849.608	5.018	1590245	STUDY_PAIR	n/a	wordpools/wordpool_EN.txt	5	1	DIME	CASH	CASH	DIME	17	[0, 0, 0]	-999	PAL1	0	R1263C
2854.626	0.95	1592754	STUDY_ORIENT	n/a	n/a	6	2	CORD	n/a	SPONGE	CORD	17	[0, 0, 0]	-999	PAL1	0	R1263C
2855.576	4.001	1593229	STUDY_PAIR	n/a	wordpools/wordpool_EN.txt	6	2	CORD	n/a	SPONGE	CORD	17	[0, 0, 0]	-999	PAL1	0	R1263C
2859.577	1.0	1595230	START	n/a	n/a	-999	-999	n/a	n/a	n/a	n/a	17	[-999, -999, -999]	-999	PAL1	0	R1263C
2860.577	0.017	1595730	MATH_START	n/a	n/a	-999	-999	n/a	n/a	n/a	n/a	17	[0, 0, 0]	-999	PAL1	0	R1263C
2860.594	6.568	1595738	PROB	6538	n/a	-999	-999	n/a	n/a	n/a	n/a	17	[5, 9, 1]	15	PAL1	0	R1263C
2867.162	9.035	1599022	PROB	9010	n/a	-999	-999	n/a	n/a	n/a	n/a	17	[7, 4, 1]	12	PAL1	0	R1263C
2876.197	10.311	1603539	PROB	10311	n/a	-999	-999	n/a	n/a	n/a	n/a	17	[9, 4, 7]	20	PAL1	0	R1263C
2886.508	0.008	1608694	STOP	n/a	n/a	-999	-999	n/a	n/a	n/a	n/a	17	[-999, -999, -999]	-999	PAL1	0	R1263C
2886.516	0.0	1608698	MATH_END	n/a	n/a	-999	-999	n/a	n/a	n/a	n/a	17	[0, 0, 0]	-999	PAL1	0	R1263C
2886.516	0.016	1608698	TEST_START	n/a	n/a	-999	-999	n/a	n/a	n/a	n/a	17	[0, 0, 0]	-999	PAL1	0	R1263C
2886.532	0.917	1608706	TEST_ORIENT	n/a	n/a	5	1	DIME	CASH	CASH	DIME	17	[0, 0, 0]	-999	PAL1	0	R1263C
2887.449	0.0	1609165	TEST_PROBE	n/a	wordpools/wordpool_EN.txt	5	1	DIME	CASH	CASH	DIME	17	[0, 0, 0]	-999	PAL1	0	R1263C
2887.449	2.277	1609165	REC_START	n/a	n/a	5	-999	n/a	CASH	n/a	n/a	17	[0, 0, 0]	-999	PAL1	0	R1263C
2889.726	0.586	1610303	REC_EVENT	2277	n/a	5	1	DIME	CASH	CASH	DIME	17	[0, 0, 0]	-999	PAL1	0	R1263C
2890.312	2.154	1610596	REC_EVENT	2863	n/a	5	1	DIME	<>	CASH	DIME	17	[0, 0, 0]	-999	PAL1	0	R1263C
2892.466	0.017	1611673	REC_END	n/a	n/a	5	-999	n/a	n/a	n/a	n/a	17	[0, 0, 0]	-999	PAL1	0	R1263C
2892.483	1.017	1611681	TEST_ORIENT	n/a	n/a	6	2	CORD	n/a	SPONGE	CORD	17	[0, 0, 0]	-999	PAL1	0	R1263C
2893.5	0.001	1612190	TEST_PROBE	n/a	wordpools/wordpool_EN.txt	6	2	CORD	n/a	SPONGE	CORD	17	[0, 0, 0]	-999	PAL1	0	R1263C
2893.501	4.295	1612190	REC_START	n/a	n/a	6	-999	n/a	n/a	n/a	n/a	17	[0, 0, 0]	-999	PAL1	0	R1263C
2897.796	0.5	1614338	REC_EVENT	4295	n/a	6	2	CORD	<>	SPONGE	CORD	17	[0, 0, 0]	-999	PAL1	0	R1263C
2898.296	0.216	1614588	REC_EVENT	4795	n/a	6	2	CORD	<>	SPONGE	CORD	17	[0, 0, 0]	-999	PAL1	0	R1263C
2898.512	0.022	1614696	REC_END	n/a	n/a	6	-999	n/a	n/a	n/a	n/a	17	[0, 0, 0]	-999	PAL1	0	R1263C
2898.534	0.917	1614707	TEST_ORIENT	n/a	n/a	3	3	BAG	JEEP	JEEP	BAG	17	[0, 0, 0]	-999	PAL1	0	R1263C
2899.451	0.001	1615165	TEST_PROBE	n/a	wordpools/wordpool_EN.txt	3	3	BAG	JEEP	JEEP	BAG	17	[0, 0, 0]	-999	PAL1	0	R1263C
2899.452	3.402	1615166	REC_START	n/a	n/a	3	-999	n/a	JEEP	n/a	n/a	17	[0, 0, 0]	-999	PAL1	0	R1263C
2902.854	0.557	1616867	REC_EVENT	3402	n/a	3	3	BAG	JEEP	JEEP	BAG	17	[0, 0, 0]	-999	PAL1	0	R1263C
2903.411	1.052	1617145	REC_EVENT	3959	n/a	3	3	BAG	<>	JEEP	BAG	17	[0, 0, 0]	-999	PAL1	0	R1263C
2904.463	0.023	1617671	REC_END	n/a	n/a	3	-999	n/a	n/a	n/a	n/a	17	[0, 0, 0]	-999	PAL1	0	R1263C
2904.486	0.95	1617682	TEST_ORIENT	n/a	n/a	2	4	PANTS	n/a	PANTS	MAT	17	[0, 0, 0]	-999	PAL1	0	R1263C
2905.436	0.0	1618157	TEST_PROBE	n/a	wordpools/wordpool_EN.txt	2	4	PANTS	n/a	PANTS	MAT	17	[0, 0, 0]	-999	PAL1	0	R1263C
2905.436	3.993	1618157	REC_START	n/a	n/a	2	-999	n/a	n/a	n/a	n/a	17	[0, 0, 0]	-999	PAL1	0	R1263C
2909.429	0.5	1620154	REC_EVENT	3993	n/a	2	4	PANTS	<>	PANTS	MAT	17	[0, 0, 0]	-999	PAL1	0	R1263C
2909.929	0.524	1620404	REC_EVENT	4493	n/a	2	4	PANTS	<>	PANTS	MAT	17	[0, 0, 0]	-999	PAL1	0	R1263C
2910.453	0.017	1620666	REC_END	n/a	n/a	2	-999	n/a	n/a	n/a	n/a	17	[0, 0, 0]	-999	PAL1	0	R1263C
2910.47	0.884	1620674	TEST_ORIENT	n/a	n/a	1	5	BEAK	n/a	DESK	BEAK	17	[0, 0, 0]	-999	PAL1	0	R1263C
2911.354	0.0	1621116	REC_START	n/a	n/a	1	-999	n/a	n/a	n/a	n/a	17	[0, 0, 0]	-999	PAL1	0	R1263C
2911.354	1.578	1621116	TEST_PROBE	n/a	wordpools/wordpool_EN.txt	1	5	BEAK	n/a	DESK	BEAK	17	[0, 0, 0]	-999	PAL1	0	R1263C
2912.932	0.5	1621905	REC_EVENT	1578	n/a	1	5	BEAK	<>	DESK	BEAK	17	[0, 0, 0]	-999	PAL1	0	R1263C
2913.432	2.939	1622155	REC_EVENT	2078	n/a	1	5	BEAK	<>	DESK	BEAK	17	[0, 0, 0]	-999	PAL1	0	R1263C
2916.371	0.017	1623625	REC_END	n/a	n/a	1	-999	n/a	n/a	n/a	n/a	17	[0, 0, 0]	-999	PAL1	0	R1263C
2916.388	0.883	1623633	TEST_ORIENT	n/a	n/a	4	6	LEAF	BIRD	LEAF	GOAT	17	[0, 0, 0]	-999	PAL1	0	R1263C
2917.271	0.001	1624075	TEST_PROBE	n/a	wordpools/wordpool_EN.txt	4	6	LEAF	BIRD	LEAF	GOAT	17	[0, 0, 0]	-999	PAL1	0	R1263C
2917.272	1.793	1624075	REC_START	n/a	n/a	4	-999	n/a	BIRD	n/a	n/a	17	[0, 0, 0]	-999	PAL1	0	R1263C
2919.065	0.456	1624971	REC_EVENT	1793	n/a	4	6	LEAF	BIRD	LEAF	GOAT	17	[0, 0, 0]	-999	PAL1	0	R1263C
