onset	duration	sample	trial_type	response_time	stim_file	serialpos	probepos	probe_word	resp_word	study_1	study_2	list	test	answer	experiment	session	subject
0.0	339.946	-1	INSTRUCT_START	n/a	n/a	-999	-999	n/a	n/a	n/a	n/a	-1	[0, 0, 0]	-999	PAL1	0	R1312N
339.946	5.234	215116	INSTRUCT_END	n/a	n/a	-999	-999	n/a	n/a	n/a	n/a	-1	[0, 0, 0]	-999	PAL1	0	R1312N
345.18	9.988	220350	MIC TEST_START	n/a	n/a	-999	-999	n/a	n/a	n/a	n/a	-1	[0, 0, 0]	-999	PAL1	0	R1312N
355.168	0.012	230339	MIC TEST_END	n/a	n/a	-999	-999	n/a	n/a	n/a	n/a	-1	[0, 0, 0]	-999	PAL1	0	R1312N
355.18	0.001	230351	TRIAL_START	n/a	n/a	-999	-999	n/a	n/a	n/a	n/a	-1	[0, 0, 0]	-999	PAL1	0	R1312N
355.181	0.0	230352	TRIAL	n/a	n/a	-999	-999	n/a	n/a	n/a	n/a	-1	[0, 0, 0]	-999	PAL1	0	R1312N
355.181	18.086	230352	WAITING_START	n/a	n/a	-999	-999	n/a	n/a	n/a	n/a	-1	[0, 0, 0]	-999	PAL1	0	R1312N
373.267	0.001	248438	WAITING_END	n/a	n/a	-999	-999	n/a	n/a	n/a	n/a	-1	[0, 0, 0]	-999	PAL1	0	R1312N
373.268	10.0	248439	COUNTDOWN_START	n/a	n/a	-999	-999	n/a	n/a	n/a	n/a	-1	[0, 0, 0]	-999	PAL1	0	R1312N
383.696	0.001	258868	COUNTDOWN_END	n/a	n/a	-999	-999	n/a	n/a	n/a	n/a	-1	[0, 0, 0]	-999	PAL1	0	R1312N
383.697	0.556	258869	ORIENT_START	n/a	n/a	-999	-999	n/a	n/a	n/a	n/a	-1	[0, 0, 0]	-999	PAL1	0	R1312N
384.253	0.0	259425	ORIENT_END	n/a	n/a	-999	-999	n/a	n/a	n/a	n/a	-1	[0, 0, 0]	-999	PAL1	0	R1312N
384.253	1.159	259425	ENCODING_START	n/a	n/a	-999	-999	n/a	n/a	n/a	n/a	-1	[0, 0, 0]	-999	PAL1	0	R1312N
385.412	4.0	260584	STUDY_PAIR	n/a	n/a	1	-999	n/a	FLOOD	IMAGE	FLOOD	-1	[0, 0, 0]	-999	PAL1	0	R1312N
389.453	0.648	264625	STUDY_PAIR_OFF	n/a	n/a	1	-999	n/a	FLOOD	IMAGE	FLOOD	-1	[0, 0, 0]	-999	PAL1	0	R1312N
390.101	4.0	265273	STUDY_PAIR	n/a	n/a	2	-999	n/a	RHINO	RHINO	BEAM	-1	[0, 0, 0]	-999	PAL1	0	R1312N
394.138	0.667	269310	STUDY_PAIR_OFF	n/a	n/a	2	-999	n/a	RHINO	RHINO	BEAM	-1	[0, 0, 0]	-999	PAL1	0	R1312N
394.805	4.0	269977	STUDY_PAIR	n/a	n/a	3	-999	n/a	n/a	WAGON	TONGUE	-1	[0, 0, 0]	-999	PAL1	0	R1312N
398.838	0.565	274010	STUDY_PAIR_OFF	n/a	n/a	3	-999	n/a	n/a	WAGON	TONGUE	-1	[0, 0, 0]	-999	PAL1	0	R1312N
399.403	4.0	274575	STUDY_PAIR	n/a	n/a	4	-999	n/a	CHEST	COTTON	CHEST	-1	[0, 0, 0]	-999	PAL1	0	R1312N
403.438	0.74	278611	STUDY_PAIR_OFF	n/a	n/a	4	-999	n/a	CHEST	COTTON	CHEST	-1	[0, 0, 0]	-999	PAL1	0	R1312N
404.178	4.0	279351	STUDY_PAIR	n/a	n/a	5	-999	n/a	n/a	RING	WATCH	-1	[0, 0, 0]	-999	PAL1	0	R1312N
408.19	0.649	283363	STUDY_PAIR_OFF	n/a	n/a	5	-999	n/a	n/a	RING	WATCH	-1	[0, 0, 0]	-999	PAL1	0	R1312N
408.839	4.0	284012	STUDY_PAIR	n/a	n/a	6	-999	n/a	RHINO	BABY	CAMEL	-1	[0, 0, 0]	-999	PAL1	0	R1312N
412.874	0.001	288047	STUDY_PAIR_OFF	n/a	n/a	6	-999	n/a	RHINO	BABY	CAMEL	-1	[0, 0, 0]	-999	PAL1	0	R1312N
412.875	0.0	288048	ENCODING_END	n/a	n/a	-999	-999	n/a	n/a	n/a	n/a	-1	[0, 0, 0]	-999	PAL1	0	R1312N
412.875	0.001	288048	MATH_START	n/a	n/a	-999	-999	n/a	n/a	n/a	n/a	-1	[0, 0, 0]	-999	PAL1	0	R1312N
412.876	0.015	288049	START	n/a	n/a	-999	-999	n/a	n/a	n/a	n/a	-1	[-999, -999, -999]	-999	PAL1	0	R1312N
412.891	9.517	288064	PROB	9479.0	n/a	-999	-999	n/a	n/a	n/a	n/a	-1	[9, 4, 5]	18	PAL1	0	R1312N
422.408	5.934	297581	PROB	5906.0	n/a	-999	-999	n/a	n/a	n/a	n/a	-1	[1, 7, 2]	10	PAL1	0	R1312N
428.342	13.964	303515	PROB	13964.0	n/a	-999	-999	n/a	n/a	n/a	n/a	-1	[6, 7, 9]	22	PAL1	0	R1312N
442.306	0.022	317480	STOP	n/a	n/a	-999	-999	n/a	n/a	n/a	n/a	-1	[-999, -999, -999]	-999	PAL1	0	R1312N
442.328	0.603	317502	MATH_END	n/a	n/a	-999	-999	n/a	n/a	n/a	n/a	-1	[0, 0, 0]	-999	PAL1	0	R1312N
442.931	0.005	318105	RETRIEVAL_START	n/a	n/a	-999	-999	n/a	n/a	n/a	n/a	-1	[0, 0, 0]	-999	PAL1	0	R1312N
442.936	0.276	318110	ORIENT_START	n/a	n/a	-999	-999	n/a	n/a	n/a	n/a	-1	[0, 0, 0]	-999	PAL1	0	R1312N
443.212	0.551	318386	ORIENT_END	n/a	n/a	-999	-999	n/a	n/a	n/a	n/a	-1	[0, 0, 0]	-999	PAL1	0	R1312N
443.763	0.001	318937	REC_START	n/a	n/a	1	1	IMAGE	FLOOD	IMAGE	FLOOD	-1	[0, 0, 0]	-999	PAL1	0	R1312N
443.764	4.0	318938	PROBE_START	n/a	n/a	1	1	IMAGE	FLOOD	IMAGE	FLOOD	-1	[0, 0, 0]	-999	PAL1	0	R1312N
445.746	0.333	320920	REC_EVENT	1982.0	n/a	1	1	IMAGE	WHICH	IMAGE	FLOOD	-1	[0, 0, 0]	-999	PAL1	0	R1312N
446.079	1.717	321253	REC_EVENT	2315.0	n/a	1	1	IMAGE	FLOOD	IMAGE	FLOOD	-1	[0, 0, 0]	-999	PAL1	0	R1312N
447.796	1.001	322970	PROBE_END	n/a	n/a	1	1	IMAGE	n/a	IMAGE	FLOOD	-1	[0, 0, 0]	-999	PAL1	0	R1312N
448.797	0.014	323971	REC_END	n/a	n/a	1	1	IMAGE	n/a	IMAGE	FLOOD	-1	[0, 0, 0]	-999	PAL1	0	R1312N
448.811	0.286	323985	ORIENT_START	n/a	n/a	-999	-999	n/a	n/a	n/a	n/a	-1	[0, 0, 0]	-999	PAL1	0	R1312N
449.097	0.725	324271	ORIENT_END	n/a	n/a	-999	-999	n/a	n/a	n/a	n/a	-1	[0, 0, 0]	-999	PAL1	0	R1312N
449.822	0.0	324996	REC_START	n/a	n/a	6	2	BABY	RHINO	BABY	CAMEL	-1	[0, 0, 0]	-999	PAL1	0	R1312N
449.822	4.0	324996	PROBE_START	n/a	n/a	6	2	BABY	RHINO	BABY	CAMEL	-1	[0, 0, 0]	-999	PAL1	0	R1312N
452.595	1.252	327769	REC_EVENT	2773.0	n/a	6	2	BABY	RHINO	BABY	CAMEL	-1	[0, 0, 0]	-999	PAL1	0	R1312N
453.847	1.0	329021	PROBE_END	n/a	n/a	6	2	BABY	n/a	BABY	CAMEL	-1	[0, 0, 0]	-999	PAL1	0	R1312N
454.847	0.009	330021	REC_END	n/a	n/a	6	2	BABY	n/a	BABY	CAMEL	-1	[0, 0, 0]	-999	PAL1	0	R1312N
454.856	0.275	330030	ORIENT_START	n/a	n/a	-999	-999	n/a	n/a	n/a	n/a	-1	[0, 0, 0]	-999	PAL1	0	R1312N
455.131	0.571	330305	ORIENT_END	n/a	n/a	-999	-999	n/a	n/a	n/a	n/a	-1	[0, 0, 0]	-999	PAL1	0	R1312N
455.702	0.001	330876	REC_START	n/a	n/a	5	3	WATCH	n/a	RING	WATCH	-1	[0, 0, 0]	-999	PAL1	0	R1312N
455.703	4.0	330877	PROBE_START	n/a	n/a	5	3	WATCH	n/a	RING	WATCH	-1	[0, 0, 0]	-999	PAL1	0	R1312N
459.731	0.678	334906	PROBE_END	n/a	n/a	5	3	WATCH	n/a	RING	WATCH	-1	[0, 0, 0]	-999	PAL1	0	R1312N
460.409	0.322	335584	REC_EVENT	4706.0	n/a	5	3	WATCH	<>	RING	WATCH	-1	[0, 0, 0]	-999	PAL1	0	R1312N
460.731	0.013	335906	REC_END	n/a	n/a	5	3	WATCH	n/a	RING	WATCH	-1	[0, 0, 0]	-999	PAL1	0	R1312N
460.744	0.272	335919	ORIENT_START	n/a	n/a	-999	-999	n/a	n/a	n/a	n/a	-1	[0, 0, 0]	-999	PAL1	0	R1312N
461.016	0.511	336191	ORIENT_END	n/a	n/a	-999	-999	n/a	n/a	n/a	n/a	-1	[0, 0, 0]	-999	PAL1	0	R1312N
461.527	0.0	336702	REC_START	n/a	n/a	4	4	CHEST	CHEST	COTTON	CHEST	-1	[0, 0, 0]	-999	PAL1	0	R1312N
461.527	4.0	336702	PROBE_START	n/a	n/a	4	4	CHEST	CHEST	COTTON	CHEST	-1	[0, 0, 0]	-999	PAL1	0	R1312N
463.543	0.759	338718	REC_EVENT	2016.0	n/a	4	4	CHEST	COTTON	COTTON	CHEST	-1	[0, 0, 0]	-999	PAL1	0	R1312N
464.302	1.264	339477	REC_EVENT	2775.0	n/a	4	4	CHEST	CHEST	COTTON	CHEST	-1	[0, 0, 0]	-999	PAL1	0	R1312N
465.566	1.0	340741	PROBE_END	n/a	n/a	4	4	CHEST	n/a	COTTON	CHEST	-1	[0, 0, 0]	-999	PAL1	0	R1312N
466.566	0.013	341741	REC_END	n/a	n/a	4	4	CHEST	n/a	COTTON	CHEST	-1	[0, 0, 0]	-999	PAL1	0	R1312N
466.579	0.27	341754	ORIENT_START	n/a	n/a	-999	-999	n/a	n/a	n/a	n/a	-1	[0, 0, 0]	-999	PAL1	0	R1312N
466.849	0.549	342024	ORIENT_END	n/a	n/a	-999	-999	n/a	n/a	n/a	n/a	-1	[0, 0, 0]	-999	PAL1	0	R1312N
467.398	0.0	342573	REC_START	n/a	n/a	3	5	TONGUE	n/a	WAGON	TONGUE	-1	[0, 0, 0]	-999	PAL1	0	R1312N
467.398	4.0	342573	PROBE_START	n/a	n/a	3	5	TONGUE	n/a	WAGON	TONGUE	-1	[0, 0, 0]	-999	PAL1	0	R1312N
471.433	0.348	346608	PROBE_END	n/a	n/a	3	5	TONGUE	n/a	WAGON	TONGUE	-1	[0, 0, 0]	-999	PAL1	0	R1312N
471.781	0.653	346956	REC_EVENT	4383.0	n/a	3	5	TONGUE	<>	WAGON	TONGUE	-1	[0, 0, 0]	-999	PAL1	0	R1312N
472.434	0.013	347609	REC_END	n/a	n/a	3	5	TONGUE	n/a	WAGON	TONGUE	-1	[0, 0, 0]	-999	PAL1	0	R1312N
472.447	0.27	347622	ORIENT_START	n/a	n/a	-999	-999	n/a	n/a	n/a	n/a	-1	[0, 0, 0]	-999	PAL1	0	R1312N
472.717	0.589	347892	ORIENT_END	n/a	n/a	-999	-999	n/a	n/a	n/a	n/a	-1	[0, 0, 0]	-999	PAL1	0	R1312N
473.306	0.001	348481	REC_START	n/a	n/a	2	6	RHINO	RHINO	RHINO	BEAM	-1	[0, 0, 0]	-999	PAL1	0	R1312N
473.307	4.0	348482	PROBE_START	n/a	n/a	2	6	RHINO	RHINO	RHINO	BEAM	-1	[0, 0, 0]	-999	PAL1	0	R1312N
476.088	0.555	351263	REC_EVENT	2781.0	n/a	2	6	RHINO	BABY	RHINO	BEAM	-1	[0, 0, 0]	-999	PAL1	0	R1312N
476.643	0.691	351818	REC_EVENT	3336.0	n/a	2	6	RHINO	RHINO	RHINO	BEAM	-1	[0, 0, 0]	-999	PAL1	0	R1312N
477.334	1.0	352509	PROBE_END	n/a	n/a	2	6	RHINO	n/a	RHINO	BEAM	-1	[0, 0, 0]	-999	PAL1	0	R1312N
478.334	0.013	353509	REC_END	n/a	n/a	2	6	RHINO	n/a	RHINO	BEAM	-1	[0, 0, 0]	-999	PAL1	0	R1312N
478.347	0.0	353522	RETRIEVAL_END	n/a	n/a	-999	-999	n/a	n/a	n/a	n/a	-1	[0, 0, 0]	-999	PAL1	0	R1312N
478.347	32.761	353522	PRACTICE_POST_INSTRUCT_START	n/a	n/a	-999	-999	n/a	n/a	n/a	n/a	-1	[0, 0, 0]	-999	PAL1	0	R1312N
511.108	0.0	386285	PRACTICE_POST_INSTRUCT_END	n/a	n/a	-999	-999	n/a	n/a	n/a	n/a	-1	[0, 0, 0]	-999	PAL1	0	R1312N
511.108	0.022	386285	TRIAL_END	n/a	n/a	-999	-999	n/a	n/a	n/a	n/a	-1	[0, 0, 0]	-999	PAL1	0	R1312N
511.13	0.0	386307	TRIAL_START	n/a	n/a	-999	-999	n/a	n/a	n/a	n/a	-1	[0, 0, 0]	-999	PAL1	0	R1312N
511.13	0.0	386307	TRIAL	n/a	n/a	-999	-999	n/a	n/a	n/a	n/a	1	[0, 0, 0]	-999	PAL1	0	R1312N
511.13	3.677	386307	WAITING_START	n/a	n/a	-999	-999	n/a	n/a	n/a	n/a	1	[0, 0, 0]	-999	PAL1	0	R1312N
514.807	0.001	389984	WAITING_END	n/a	n/a	-999	-999	n/a	n/a	n/a	n/a	1	[0, 0, 0]	-999	PAL1	0	R1312N
514.808	10.0	389985	COUNTDOWN_START	n/a	n/a	-999	-999	n/a	n/a	n/a	n/a	1	[0, 0, 0]	-999	PAL1	0	R1312N
525.237	0.0	400414	ORIENT_START	n/a	n/a	-999	-999	n/a	n/a	n/a	n/a	1	[0, 0, 0]	-999	PAL1	0	R1312N
525.237	0.656	400414	COUNTDOWN_END	n/a	n/a	-999	-999	n/a	n/a	n/a	n/a	1	[0, 0, 0]	-999	PAL1	0	R1312N
525.893	0.001	401070	ORIENT_END	n/a	n/a	-999	-999	n/a	n/a	n/a	n/a	1	[0, 0, 0]	-999	PAL1	0	R1312N
525.894	1.234	401071	ENCODING_START	n/a	n/a	-999	-999	n/a	n/a	n/a	n/a	1	[0, 0, 0]	-999	PAL1	0	R1312N
527.128	4.0	402305	STUDY_PAIR	n/a	wordpools/wordpool_EN.txt	1	-999	n/a	BEARD	THREAD	MOUTH	1	[0, 0, 0]	-999	PAL1	0	R1312N
531.161	0.549	406338	STUDY_PAIR_OFF	n/a	n/a	1	-999	n/a	BEARD	THREAD	MOUTH	1	[0, 0, 0]	-999	PAL1	0	R1312N
531.71	4.0	406887	STUDY_PAIR	n/a	wordpools/wordpool_EN.txt	2	-999	n/a	n/a	CROWN	ICE	1	[0, 0, 0]	-999	PAL1	0	R1312N
535.744	0.522	410921	STUDY_PAIR_OFF	n/a	n/a	2	-999	n/a	n/a	CROWN	ICE	1	[0, 0, 0]	-999	PAL1	0	R1312N
536.266	4.0	411443	STUDY_PAIR	n/a	wordpools/wordpool_EN.txt	3	-999	n/a	BREAD	SALT	BREAD	1	[0, 0, 0]	-999	PAL1	0	R1312N
540.294	0.699	415472	STUDY_PAIR_OFF	n/a	n/a	3	-999	n/a	BREAD	SALT	BREAD	1	[0, 0, 0]	-999	PAL1	0	R1312N
540.993	4.0	416171	STUDY_PAIR	n/a	wordpools/wordpool_EN.txt	4	-999	n/a	BRUSH	BRUSH	HOLE	1	[0, 0, 0]	-999	PAL1	0	R1312N
545.03	0.561	420208	STUDY_PAIR_OFF	n/a	n/a	4	-999	n/a	BRUSH	BRUSH	HOLE	1	[0, 0, 0]	-999	PAL1	0	R1312N
545.591	4.0	420769	STUDY_PAIR	n/a	wordpools/wordpool_EN.txt	5	-999	n/a	PIG	PIG	DRUM	1	[0, 0, 0]	-999	PAL1	0	R1312N
549.629	0.519	424807	STUDY_PAIR_OFF	n/a	n/a	5	-999	n/a	PIG	PIG	DRUM	1	[0, 0, 0]	-999	PAL1	0	R1312N
550.148	4.0	425326	STUDY_PAIR	n/a	wordpools/wordpool_EN.txt	6	-999	n/a	FAN	CAGE	FAN	1	[0, 0, 0]	-999	PAL1	0	R1312N
554.181	0.0	429359	ENCODING_END	n/a	n/a	-999	-999	n/a	n/a	n/a	n/a	1	[0, 0, 0]	-999	PAL1	0	R1312N
554.181	0.001	429359	STUDY_PAIR_OFF	n/a	n/a	6	-999	n/a	FAN	CAGE	FAN	1	[0, 0, 0]	-999	PAL1	0	R1312N
554.182	0.0	429360	MATH_START	n/a	n/a	-999	-999	n/a	n/a	n/a	n/a	1	[0, 0, 0]	-999	PAL1	0	R1312N
554.182	0.015	429360	START	n/a	n/a	-999	-999	n/a	n/a	n/a	n/a	1	[-999, -999, -999]	-999	PAL1	0	R1312N
554.197	5.6	429375	PROB	5573.0	n/a	-999	-999	n/a	n/a	n/a	n/a	1	[4, 8, 1]	13	PAL1	0	R1312N
559.797	6.069	434975	PROB	6044.0	n/a	-999	-999	n/a	n/a	n/a	n/a	1	[8, 8, 5]	21	PAL1	0	R1312N
565.866	9.08	441045	PROB	9080.0	n/a	-999	-999	n/a	n/a	n/a	n/a	1	[8, 3, 6]	17	PAL1	0	R1312N
574.946	0.022	450125	STOP	n/a	n/a	-999	-999	n/a	n/a	n/a	n/a	1	[-999, -999, -999]	-999	PAL1	0	R1312N
574.968	0.689	450147	MATH_END	n/a	n/a	-999	-999	n/a	n/a	n/a	n/a	1	[0, 0, 0]	-999	PAL1	0	R1312N
575.657	0.001	450836	RETRIEVAL_START	n/a	n/a	-999	-999	n/a	n/a	n/a	n/a	1	[0, 0, 0]	-999	PAL1	0	R1312N
575.658	0.277	450837	ORIENT_START	n/a	n/a	-999	-999	n/a	n/a	n/a	n/a	1	[0, 0, 0]	-999	PAL1	0	R1312N
575.935	0.609	451114	ORIENT_END	n/a	n/a	-999	-999	n/a	n/a	n/a	n/a	1	[0, 0, 0]	-999	PAL1	0	R1312N
576.544	0.0	451723	REC_START	n/a	n/a	3	1	SALT	BREAD	SALT	BREAD	1	[0, 0, 0]	-999	PAL1	0	R1312N
576.544	4.0	451723	PROBE_START	n/a	wordpools/wordpool_EN.txt	3	1	SALT	BREAD	SALT	BREAD	1	[0, 0, 0]	-999	PAL1	0	R1312N
579.698	0.87	454877	REC_EVENT	3154.0	n/a	3	1	SALT	BREAD	SALT	BREAD	1	[0, 0, 0]	-999	PAL1	0	R1312N
580.568	1.001	455747	PROBE_END	n/a	n/a	3	1	SALT	n/a	SALT	BREAD	1	[0, 0, 0]	-999	PAL1	0	R1312N
581.569	0.012	456748	REC_END	n/a	n/a	3	1	SALT	n/a	SALT	BREAD	1	[0, 0, 0]	-999	PAL1	0	R1312N
581.581	0.271	456760	ORIENT_START	n/a	n/a	-999	-999	n/a	n/a	n/a	n/a	1	[0, 0, 0]	-999	PAL1	0	R1312N
581.852	0.543	457031	ORIENT_END	n/a	n/a	-999	-999	n/a	n/a	n/a	n/a	1	[0, 0, 0]	-999	PAL1	0	R1312N
582.395	0.001	457574	REC_START	n/a	n/a	4	2	HOLE	BRUSH	BRUSH	HOLE	1	[0, 0, 0]	-999	PAL1	0	R1312N
582.396	4.0	457575	PROBE_START	n/a	wordpools/wordpool_EN.txt	4	2	HOLE	BRUSH	BRUSH	HOLE	1	[0, 0, 0]	-999	PAL1	0	R1312N
584.37	2.049	459549	REC_EVENT	1974.0	n/a	4	2	HOLE	BRUSH	BRUSH	HOLE	1	[0, 0, 0]	-999	PAL1	0	R1312N
586.419	1.001	461598	PROBE_END	n/a	n/a	4	2	HOLE	n/a	BRUSH	HOLE	1	[0, 0, 0]	-999	PAL1	0	R1312N
587.42	0.012	462599	REC_END	n/a	n/a	4	2	HOLE	n/a	BRUSH	HOLE	1	[0, 0, 0]	-999	PAL1	0	R1312N
587.432	0.27	462611	ORIENT_START	n/a	n/a	-999	-999	n/a	n/a	n/a	n/a	1	[0, 0, 0]	-999	PAL1	0	R1312N
587.702	0.65	462881	ORIENT_END	n/a	n/a	-999	-999	n/a	n/a	n/a	n/a	1	[0, 0, 0]	-999	PAL1	0	R1312N
588.352	0.0	463531	REC_START	n/a	n/a	5	3	DRUM	PIG	PIG	DRUM	1	[0, 0, 0]	-999	PAL1	0	R1312N
588.352	4.0	463531	PROBE_START	n/a	wordpools/wordpool_EN.txt	5	3	DRUM	PIG	PIG	DRUM	1	[0, 0, 0]	-999	PAL1	0	R1312N
590.637	1.749	465816	REC_EVENT	2285.0	n/a	5	3	DRUM	PIG	PIG	DRUM	1	[0, 0, 0]	-999	PAL1	0	R1312N
592.386	1.0	467566	PROBE_END	n/a	n/a	5	3	DRUM	n/a	PIG	DRUM	1	[0, 0, 0]	-999	PAL1	0	R1312N
593.386	0.011	468566	REC_END	n/a	n/a	5	3	DRUM	n/a	PIG	DRUM	1	[0, 0, 0]	-999	PAL1	0	R1312N
593.397	0.273	468577	ORIENT_START	n/a	n/a	-999	-999	n/a	n/a	n/a	n/a	1	[0, 0, 0]	-999	PAL1	0	R1312N
593.67	0.657	468850	ORIENT_END	n/a	n/a	-999	-999	n/a	n/a	n/a	n/a	1	[0, 0, 0]	-999	PAL1	0	R1312N
594.327	4.0	469507	PROBE_START	n/a	wordpools/wordpool_EN.txt	2	4	ICE	n/a	CROWN	ICE	1	[0, 0, 0]	-999	PAL1	0	R1312N
594.327	3.31	469507	REC_START	n/a	n/a	2	4	ICE	n/a	CROWN	ICE	1	[0, 0, 0]	-999	PAL1	0	R1312N
597.637	0.717	472817	REC_EVENT	3310.0	n/a	2	4	ICE	<>	CROWN	ICE	1	[0, 0, 0]	-999	PAL1	0	R1312N
598.354	1.0	473534	PROBE_END	n/a	n/a	2	4	ICE	n/a	CROWN	ICE	1	[0, 0, 0]	-999	PAL1	0	R1312N
599.354	0.012	474534	REC_END	n/a	n/a	2	4	ICE	n/a	CROWN	ICE	1	[0, 0, 0]	-999	PAL1	0	R1312N
599.366	0.271	474546	ORIENT_START	n/a	n/a	-999	-999	n/a	n/a	n/a	n/a	1	[0, 0, 0]	-999	PAL1	0	R1312N
599.637	0.673	474817	ORIENT_END	n/a	n/a	-999	-999	n/a	n/a	n/a	n/a	1	[0, 0, 0]	-999	PAL1	0	R1312N
600.31	0.001	475490	REC_START	n/a	n/a	1	5	THREAD	BEARD	THREAD	MOUTH	1	[0, 0, 0]	-999	PAL1	0	R1312N
600.311	4.0	475491	PROBE_START	n/a	wordpools/wordpool_EN.txt	1	5	THREAD	BEARD	THREAD	MOUTH	1	[0, 0, 0]	-999	PAL1	0	R1312N
603.737	0.601	478917	REC_EVENT	3426.0	n/a	1	5	THREAD	BEARD	THREAD	MOUTH	1	[0, 0, 0]	-999	PAL1	0	R1312N
604.338	1.0	479518	PROBE_END	n/a	n/a	1	5	THREAD	n/a	THREAD	MOUTH	1	[0, 0, 0]	-999	PAL1	0	R1312N
605.338	0.012	480518	REC_END	n/a	n/a	1	5	THREAD	n/a	THREAD	MOUTH	1	[0, 0, 0]	-999	PAL1	0	R1312N
605.35	0.272	480530	ORIENT_START	n/a	n/a	-999	-999	n/a	n/a	n/a	n/a	1	[0, 0, 0]	-999	PAL1	0	R1312N
605.622	0.519	480802	ORIENT_END	n/a	n/a	-999	-999	n/a	n/a	n/a	n/a	1	[0, 0, 0]	-999	PAL1	0	R1312N
606.141	4.0	481321	PROBE_START	n/a	wordpools/wordpool_EN.txt	6	6	CAGE	FAN	CAGE	FAN	1	[0, 0, 0]	-999	PAL1	0	R1312N
606.141	1.976	481321	REC_START	n/a	n/a	6	6	CAGE	FAN	CAGE	FAN	1	[0, 0, 0]	-999	PAL1	0	R1312N
608.117	2.057	483297	REC_EVENT	1976.0	n/a	6	6	CAGE	FAN	CAGE	FAN	1	[0, 0, 0]	-999	PAL1	0	R1312N
610.174	0.999	485354	PROBE_END	n/a	n/a	6	6	CAGE	n/a	CAGE	FAN	1	[0, 0, 0]	-999	PAL1	0	R1312N
611.173	0.009	486353	REC_END	n/a	n/a	6	6	CAGE	n/a	CAGE	FAN	1	[0, 0, 0]	-999	PAL1	0	R1312N
611.182	0.0	486362	RETRIEVAL_END	n/a	n/a	-999	-999	n/a	n/a	n/a	n/a	1	[0, 0, 0]	-999	PAL1	0	R1312N
611.182	0.019	486362	TRIAL_END	n/a	n/a	-999	-999	n/a	n/a	n/a	n/a	1	[0, 0, 0]	-999	PAL1	0	R1312N
611.201	0.0	486381	TRIAL_START	n/a	n/a	-999	-999	n/a	n/a	n/a	n/a	1	[0, 0, 0]	-999	PAL1	0	R1312N
611.201	0.0	486381	TRIAL	n/a	n/a	-999	-999	n/a	n/a	n/a	n/a	2	[0, 0, 0]	-999	PAL1	0	R1312N
611.201	4.639	486381	WAITING_START	n/a	n/a	-999	-999	n/a	n/a	n/a	n/a	2	[0, 0, 0]	-999	PAL1	0	R1312N
615.84	0.001	491020	WAITING_END	n/a	n/a	-999	-999	n/a	n/a	n/a	n/a	2	[0, 0, 0]	-999	PAL1	0	R1312N
615.841	10.0	491021	COUNTDOWN_START	n/a	n/a	-999	-999	n/a	n/a	n/a	n/a	2	[0, 0, 0]	-999	PAL1	0	R1312N
626.269	0.0	501450	COUNTDOWN_END	n/a	n/a	-999	-999	n/a	n/a	n/a	n/a	2	[0, 0, 0]	-999	PAL1	0	R1312N
626.269	0.624	501450	ORIENT_START	n/a	n/a	-999	-999	n/a	n/a	n/a	n/a	2	[0, 0, 0]	-999	PAL1	0	R1312N
626.893	0.0	502074	ENCODING_START	n/a	n/a	-999	-999	n/a	n/a	n/a	n/a	2	[0, 0, 0]	-999	PAL1	0	R1312N
626.893	1.009	502074	ORIENT_END	n/a	n/a	-999	-999	n/a	n/a	n/a	n/a	2	[0, 0, 0]	-999	PAL1	0	R1312N
627.902	4.0	503083	STUDY_PAIR	n/a	wordpools/wordpool_EN.txt	1	-999	n/a	n/a	LAMP	SHOE	2	[0, 0, 0]	-999	PAL1	0	R1312N
631.927	0.563	507108	STUDY_PAIR_OFF	n/a	n/a	1	-999	n/a	n/a	LAMP	SHOE	2	[0, 0, 0]	-999	PAL1	0	R1312N
632.49	4.0	507671	STUDY_PAIR	n/a	wordpools/wordpool_EN.txt	2	-999	n/a	n/a	CORD	ZOO	2	[0, 0, 0]	-999	PAL1	0	R1312N
636.527	0.572	511708	STUDY_PAIR_OFF	n/a	n/a	2	-999	n/a	n/a	CORD	ZOO	2	[0, 0, 0]	-999	PAL1	0	R1312N
637.099	4.0	512280	STUDY_PAIR	n/a	wordpools/wordpool_EN.txt	3	-999	n/a	n/a	BOX	SMILE	2	[0, 0, 0]	-999	PAL1	0	R1312N
641.129	0.64	516310	STUDY_PAIR_OFF	n/a	n/a	3	-999	n/a	n/a	BOX	SMILE	2	[0, 0, 0]	-999	PAL1	0	R1312N
641.769	4.0	516950	STUDY_PAIR	n/a	wordpools/wordpool_EN.txt	4	-999	n/a	PEN	HEN	SOCK	2	[0, 0, 0]	-999	PAL1	0	R1312N
645.795	0.627	520976	STUDY_PAIR_OFF	n/a	n/a	4	-999	n/a	PEN	HEN	SOCK	2	[0, 0, 0]	-999	PAL1	0	R1312N
646.422	4.0	521604	STUDY_PAIR	n/a	wordpools/wordpool_EN.txt	5	-999	n/a	STEAM	STEAM	BENCH	2	[0, 0, 0]	-999	PAL1	0	R1312N
650.463	0.638	525645	STUDY_PAIR_OFF	n/a	n/a	5	-999	n/a	STEAM	STEAM	BENCH	2	[0, 0, 0]	-999	PAL1	0	R1312N
651.101	4.0	526283	STUDY_PAIR	n/a	wordpools/wordpool_EN.txt	6	-999	n/a	n/a	BROOM	STONE	2	[0, 0, 0]	-999	PAL1	0	R1312N
655.114	0.001	530296	STUDY_PAIR_OFF	n/a	n/a	6	-999	n/a	n/a	BROOM	STONE	2	[0, 0, 0]	-999	PAL1	0	R1312N
655.115	0.0	530297	MATH_START	n/a	n/a	-999	-999	n/a	n/a	n/a	n/a	2	[0, 0, 0]	-999	PAL1	0	R1312N
655.115	0.0	530297	ENCODING_END	n/a	n/a	-999	-999	n/a	n/a	n/a	n/a	2	[0, 0, 0]	-999	PAL1	0	R1312N
655.115	0.016	530297	START	n/a	n/a	-999	-999	n/a	n/a	n/a	n/a	2	[-999, -999, -999]	-999	PAL1	0	R1312N
655.131	7.317	530313	PROB	7287.0	n/a	-999	-999	n/a	n/a	n/a	n/a	2	[7, 6, 3]	16	PAL1	0	R1312N
662.448	9.736	537630	PROB	9699.0	n/a	-999	-999	n/a	n/a	n/a	n/a	2	[6, 6, 4]	18	PAL1	0	R1312N
672.184	9.49	547366	PROB	9490.0	n/a	-999	-999	n/a	n/a	n/a	n/a	2	[5, 8, 2]	14	PAL1	0	R1312N
681.674	0.01	556857	STOP	n/a	n/a	-999	-999	n/a	n/a	n/a	n/a	2	[-999, -999, -999]	-999	PAL1	0	R1312N
681.684	0.591	556867	MATH_END	n/a	n/a	-999	-999	n/a	n/a	n/a	n/a	2	[0, 0, 0]	-999	PAL1	0	R1312N
682.275	0.001	557458	RETRIEVAL_START	n/a	n/a	-999	-999	n/a	n/a	n/a	n/a	2	[0, 0, 0]	-999	PAL1	0	R1312N
682.276	0.275	557459	ORIENT_START	n/a	n/a	-999	-999	n/a	n/a	n/a	n/a	2	[0, 0, 0]	-999	PAL1	0	R1312N
682.551	0.603	557734	ORIENT_END	n/a	n/a	-999	-999	n/a	n/a	n/a	n/a	2	[0, 0, 0]	-999	PAL1	0	R1312N
683.154	0.0	558337	REC_START	n/a	n/a	1	1	SHOE	n/a	LAMP	SHOE	2	[0, 0, 0]	-999	PAL1	0	R1312N
683.154	4.0	558337	PROBE_START	n/a	wordpools/wordpool_EN.txt	1	1	SHOE	n/a	LAMP	SHOE	2	[0, 0, 0]	-999	PAL1	0	R1312N
687.186	0.837	562369	PROBE_END	n/a	n/a	1	1	SHOE	n/a	LAMP	SHOE	2	[0, 0, 0]	-999	PAL1	0	R1312N
688.023	0.164	563206	REC_EVENT	4869.0	n/a	1	1	SHOE	<>	LAMP	SHOE	2	[0, 0, 0]	-999	PAL1	0	R1312N
688.187	0.011	563370	REC_END	n/a	n/a	1	1	SHOE	n/a	LAMP	SHOE	2	[0, 0, 0]	-999	PAL1	0	R1312N
688.198	0.271	563381	ORIENT_START	n/a	n/a	-999	-999	n/a	n/a	n/a	n/a	2	[0, 0, 0]	-999	PAL1	0	R1312N
688.469	0.701	563652	ORIENT_END	n/a	n/a	-999	-999	n/a	n/a	n/a	n/a	2	[0, 0, 0]	-999	PAL1	0	R1312N
689.17	0.0	564353	REC_START	n/a	n/a	6	2	BROOM	n/a	BROOM	STONE	2	[0, 0, 0]	-999	PAL1	0	R1312N
689.17	4.0	564353	PROBE_START	n/a	wordpools/wordpool_EN.txt	6	2	BROOM	n/a	BROOM	STONE	2	[0, 0, 0]	-999	PAL1	0	R1312N
693.203	1.0	568386	PROBE_END	n/a	n/a	6	2	BROOM	n/a	BROOM	STONE	2	[0, 0, 0]	-999	PAL1	0	R1312N
694.203	0.012	569386	REC_END	n/a	n/a	6	2	BROOM	n/a	BROOM	STONE	2	[0, 0, 0]	-999	PAL1	0	R1312N
694.215	0.272	569398	ORIENT_START	n/a	n/a	-999	-999	n/a	n/a	n/a	n/a	2	[0, 0, 0]	-999	PAL1	0	R1312N
694.487	0.65	569670	ORIENT_END	n/a	n/a	-999	-999	n/a	n/a	n/a	n/a	2	[0, 0, 0]	-999	PAL1	0	R1312N
695.137	0.093	570320	REC_EVENT	5967.0	n/a	6	2	BROOM	<>	BROOM	STONE	2	[0, 0, 0]	-999	PAL1	0	R1312N
695.23	0.0	570413	REC_START	n/a	n/a	3	3	SMILE	n/a	BOX	SMILE	2	[0, 0, 0]	-999	PAL1	0	R1312N
695.23	4.0	570413	PROBE_START	n/a	wordpools/wordpool_EN.txt	3	3	SMILE	n/a	BOX	SMILE	2	[0, 0, 0]	-999	PAL1	0	R1312N
699.254	1.0	574437	PROBE_END	n/a	n/a	3	3	SMILE	n/a	BOX	SMILE	2	[0, 0, 0]	-999	PAL1	0	R1312N
700.254	0.006	575437	REC_END	n/a	n/a	3	3	SMILE	n/a	BOX	SMILE	2	[0, 0, 0]	-999	PAL1	0	R1312N
700.26	0.015	575443	ORIENT_START	n/a	n/a	-999	-999	n/a	n/a	n/a	n/a	2	[0, 0, 0]	-999	PAL1	0	R1312N
700.275	0.263	575458	REC_EVENT	5045.0	n/a	3	3	SMILE	<>	BOX	SMILE	2	[0, 0, 0]	-999	PAL1	0	R1312N
700.538	0.511	575722	ORIENT_END	n/a	n/a	-999	-999	n/a	n/a	n/a	n/a	2	[0, 0, 0]	-999	PAL1	0	R1312N
701.049	0.001	576233	REC_START	n/a	n/a	2	4	CORD	n/a	CORD	ZOO	2	[0, 0, 0]	-999	PAL1	0	R1312N
701.05	4.0	576234	PROBE_START	n/a	wordpools/wordpool_EN.txt	2	4	CORD	n/a	CORD	ZOO	2	[0, 0, 0]	-999	PAL1	0	R1312N
705.073	0.61	580257	PROBE_END	n/a	n/a	2	4	CORD	n/a	CORD	ZOO	2	[0, 0, 0]	-999	PAL1	0	R1312N
705.683	0.389	580867	REC_EVENT	4633.0	n/a	2	4	CORD	<>	CORD	ZOO	2	[0, 0, 0]	-999	PAL1	0	R1312N
706.072	0.01	581256	REC_END	n/a	n/a	2	4	CORD	n/a	CORD	ZOO	2	[0, 0, 0]	-999	PAL1	0	R1312N
706.082	0.273	581266	ORIENT_START	n/a	n/a	-999	-999	n/a	n/a	n/a	n/a	2	[0, 0, 0]	-999	PAL1	0	R1312N
706.355	0.601	581539	ORIENT_END	n/a	n/a	-999	-999	n/a	n/a	n/a	n/a	2	[0, 0, 0]	-999	PAL1	0	R1312N
706.956	0.001	582140	REC_START	n/a	n/a	5	5	STEAM	STEAM	STEAM	BENCH	2	[0, 0, 0]	-999	PAL1	0	R1312N
706.957	4.0	582141	PROBE_START	n/a	wordpools/wordpool_EN.txt	5	5	STEAM	STEAM	STEAM	BENCH	2	[0, 0, 0]	-999	PAL1	0	R1312N
708.702	2.288	583886	REC_EVENT	1745.0	n/a	5	5	STEAM	STEAM	STEAM	BENCH	2	[0, 0, 0]	-999	PAL1	0	R1312N
710.99	1.0	586174	PROBE_END	n/a	n/a	5	5	STEAM	n/a	STEAM	BENCH	2	[0, 0, 0]	-999	PAL1	0	R1312N
711.99	0.01	587174	REC_END	n/a	n/a	5	5	STEAM	n/a	STEAM	BENCH	2	[0, 0, 0]	-999	PAL1	0	R1312N
712.0	0.273	587184	ORIENT_START	n/a	n/a	-999	-999	n/a	n/a	n/a	n/a	2	[0, 0, 0]	-999	PAL1	0	R1312N
712.273	0.687	587457	ORIENT_END	n/a	n/a	-999	-999	n/a	n/a	n/a	n/a	2	[0, 0, 0]	-999	PAL1	0	R1312N
712.96	0.0	588144	REC_START	n/a	n/a	4	6	SOCK	PEN	HEN	SOCK	2	[0, 0, 0]	-999	PAL1	0	R1312N
712.96	4.0	588144	PROBE_START	n/a	wordpools/wordpool_EN.txt	4	6	SOCK	PEN	HEN	SOCK	2	[0, 0, 0]	-999	PAL1	0	R1312N
715.144	1.847	590328	REC_EVENT	2184.0	n/a	4	6	SOCK	PEN	HEN	SOCK	2	[0, 0, 0]	-999	PAL1	0	R1312N
716.991	1.0	592175	PROBE_END	n/a	n/a	4	6	SOCK	n/a	HEN	SOCK	2	[0, 0, 0]	-999	PAL1	0	R1312N
717.991	0.01	593175	REC_END	n/a	n/a	4	6	SOCK	n/a	HEN	SOCK	2	[0, 0, 0]	-999	PAL1	0	R1312N
718.001	0.0	593185	RETRIEVAL_END	n/a	n/a	-999	-999	n/a	n/a	n/a	n/a	2	[0, 0, 0]	-999	PAL1	0	R1312N
718.001	0.022	593185	TRIAL_END	n/a	n/a	-999	-999	n/a	n/a	n/a	n/a	2	[0, 0, 0]	-999	PAL1	0	R1312N
718.023	0.001	593207	TRIAL_START	n/a	n/a	-999	-999	n/a	n/a	n/a	n/a	2	[0, 0, 0]	-999	PAL1	0	R1312N
718.024	0.0	593208	TRIAL	n/a	n/a	-999	-999	n/a	n/a	n/a	n/a	3	[0, 0, 0]	-999	PAL1	0	R1312N
718.024	5.818	593208	WAITING_START	n/a	n/a	-999	-999	n/a	n/a	n/a	n/a	3	[0, 0, 0]	-999	PAL1	0	R1312N
723.842	0.0	599026	WAITING_END	n/a	n/a	-999	-999	n/a	n/a	n/a	n/a	3	[0, 0, 0]	-999	PAL1	0	R1312N
723.842	10.0	599026	COUNTDOWN_START	n/a	n/a	-999	-999	n/a	n/a	n/a	n/a	3	[0, 0, 0]	-999	PAL1	0	R1312N
734.271	0.0	609456	COUNTDOWN_END	n/a	n/a	-999	-999	n/a	n/a	n/a	n/a	3	[0, 0, 0]	-999	PAL1	0	R1312N
734.271	0.657	609456	ORIENT_START	n/a	n/a	-999	-999	n/a	n/a	n/a	n/a	3	[0, 0, 0]	-999	PAL1	0	R1312N
734.928	0.0	610113	ORIENT_END	n/a	n/a	-999	-999	n/a	n/a	n/a	n/a	3	[0, 0, 0]	-999	PAL1	0	R1312N
734.928	1.079	610113	ENCODING_START	n/a	n/a	-999	-999	n/a	n/a	n/a	n/a	3	[0, 0, 0]	-999	PAL1	0	R1312N
736.007	4.0	611192	STUDY_PAIR	n/a	wordpools/wordpool_EN.txt	1	-999	n/a	RAT	BIRD	RAT	3	[0, 0, 0]	-999	PAL1	0	R1312N
740.045	0.651	615230	STUDY_PAIR_OFF	n/a	n/a	1	-999	n/a	RAT	BIRD	RAT	3	[0, 0, 0]	-999	PAL1	0	R1312N
740.696	4.0	615881	STUDY_PAIR	n/a	wordpools/wordpool_EN.txt	2	-999	n/a	n/a	WHALE	FLAME	3	[0, 0, 0]	-999	PAL1	0	R1312N
744.728	0.587	619913	STUDY_PAIR_OFF	n/a	n/a	2	-999	n/a	n/a	WHALE	FLAME	3	[0, 0, 0]	-999	PAL1	0	R1312N
745.315	4.0	620500	STUDY_PAIR	n/a	wordpools/wordpool_EN.txt	3	-999	n/a	n/a	PLANT	STOOL	3	[0, 0, 0]	-999	PAL1	0	R1312N
749.346	0.536	624531	STUDY_PAIR_OFF	n/a	n/a	3	-999	n/a	n/a	PLANT	STOOL	3	[0, 0, 0]	-999	PAL1	0	R1312N
749.882	4.0	625067	STUDY_PAIR	n/a	wordpools/wordpool_EN.txt	4	-999	n/a	SHIELD	SHIELD	VASE	3	[0, 0, 0]	-999	PAL1	0	R1312N
753.914	0.685	629099	STUDY_PAIR_OFF	n/a	n/a	4	-999	n/a	SHIELD	SHIELD	VASE	3	[0, 0, 0]	-999	PAL1	0	R1312N
754.599	4.0	629784	STUDY_PAIR	n/a	wordpools/wordpool_EN.txt	5	-999	n/a	GLASS	PLANE	GLASS	3	[0, 0, 0]	-999	PAL1	0	R1312N
758.63	0.583	633816	STUDY_PAIR_OFF	n/a	n/a	5	-999	n/a	GLASS	PLANE	GLASS	3	[0, 0, 0]	-999	PAL1	0	R1312N
759.213	4.0	634399	STUDY_PAIR	n/a	wordpools/wordpool_EN.txt	6	-999	n/a	PASS	CHAIR	SLUSH	3	[0, 0, 0]	-999	PAL1	0	R1312N
763.248	0.001	638434	STUDY_PAIR_OFF	n/a	n/a	6	-999	n/a	PASS	CHAIR	SLUSH	3	[0, 0, 0]	-999	PAL1	0	R1312N
763.249	0.0	638435	MATH_START	n/a	n/a	-999	-999	n/a	n/a	n/a	n/a	3	[0, 0, 0]	-999	PAL1	0	R1312N
763.249	0.0	638435	ENCODING_END	n/a	n/a	-999	-999	n/a	n/a	n/a	n/a	3	[0, 0, 0]	-999	PAL1	0	R1312N
763.249	0.015	638435	START	n/a	n/a	-999	-999	n/a	n/a	n/a	n/a	3	[-999, -999, -999]	-999	PAL1	0	R1312N
763.264	12.386	638450	PROB	12354.0	n/a	-999	-999	n/a	n/a	n/a	n/a	3	[5, 9, 8]	24	PAL1	0	R1312N
775.65	9.736	650836	PROB	9736.0	n/a	-999	-999	n/a	n/a	n/a	n/a	3	[8, 4, 2]	12	PAL1	0	R1312N
785.386	0.016	660573	STOP	n/a	n/a	-999	-999	n/a	n/a	n/a	n/a	3	[-999, -999, -999]	-999	PAL1	0	R1312N
785.402	0.637	660589	MATH_END	n/a	n/a	-999	-999	n/a	n/a	n/a	n/a	3	[0, 0, 0]	-999	PAL1	0	R1312N
786.039	0.002	661226	RETRIEVAL_START	n/a	n/a	-999	-999	n/a	n/a	n/a	n/a	3	[0, 0, 0]	-999	PAL1	0	R1312N
786.041	0.277	661228	ORIENT_START	n/a	n/a	-999	-999	n/a	n/a	n/a	n/a	3	[0, 0, 0]	-999	PAL1	0	R1312N
786.318	0.638	661505	ORIENT_END	n/a	n/a	-999	-999	n/a	n/a	n/a	n/a	3	[0, 0, 0]	-999	PAL1	0	R1312N
786.956	0.0	662143	REC_START	n/a	n/a	5	1	PLANE	GLASS	PLANE	GLASS	3	[0, 0, 0]	-999	PAL1	0	R1312N
786.956	4.0	662143	PROBE_START	n/a	wordpools/wordpool_EN.txt	5	1	PLANE	GLASS	PLANE	GLASS	3	[0, 0, 0]	-999	PAL1	0	R1312N
789.734	1.253	664921	REC_EVENT	2778.0	n/a	5	1	PLANE	GLASS	PLANE	GLASS	3	[0, 0, 0]	-999	PAL1	0	R1312N
790.987	1.001	666174	PROBE_END	n/a	n/a	5	1	PLANE	n/a	PLANE	GLASS	3	[0, 0, 0]	-999	PAL1	0	R1312N
791.988	0.01	667175	REC_END	n/a	n/a	5	1	PLANE	n/a	PLANE	GLASS	3	[0, 0, 0]	-999	PAL1	0	R1312N
791.998	0.271	667185	ORIENT_START	n/a	n/a	-999	-999	n/a	n/a	n/a	n/a	3	[0, 0, 0]	-999	PAL1	0	R1312N
792.269	0.584	667456	ORIENT_END	n/a	n/a	-999	-999	n/a	n/a	n/a	n/a	3	[0, 0, 0]	-999	PAL1	0	R1312N
792.853	0.0	668040	REC_START	n/a	n/a	2	2	WHALE	n/a	WHALE	FLAME	3	[0, 0, 0]	-999	PAL1	0	R1312N
792.853	4.0	668040	PROBE_START	n/a	wordpools/wordpool_EN.txt	2	2	WHALE	n/a	WHALE	FLAME	3	[0, 0, 0]	-999	PAL1	0	R1312N
796.584	0.304	671771	REC_EVENT	3731.0	n/a	2	2	WHALE	<>	WHALE	FLAME	3	[0, 0, 0]	-999	PAL1	0	R1312N
796.888	1.001	672075	PROBE_END	n/a	n/a	2	2	WHALE	n/a	WHALE	FLAME	3	[0, 0, 0]	-999	PAL1	0	R1312N
797.889	0.011	673076	REC_END	n/a	n/a	2	2	WHALE	n/a	WHALE	FLAME	3	[0, 0, 0]	-999	PAL1	0	R1312N
797.9	0.271	673087	ORIENT_START	n/a	n/a	-999	-999	n/a	n/a	n/a	n/a	3	[0, 0, 0]	-999	PAL1	0	R1312N
798.171	0.741	673358	ORIENT_END	n/a	n/a	-999	-999	n/a	n/a	n/a	n/a	3	[0, 0, 0]	-999	PAL1	0	R1312N
798.912	0.0	674099	REC_START	n/a	n/a	3	3	STOOL	n/a	PLANT	STOOL	3	[0, 0, 0]	-999	PAL1	0	R1312N
798.912	4.0	674099	PROBE_START	n/a	wordpools/wordpool_EN.txt	3	3	STOOL	n/a	PLANT	STOOL	3	[0, 0, 0]	-999	PAL1	0	R1312N
802.939	0.632	678126	PROBE_END	n/a	n/a	3	3	STOOL	n/a	PLANT	STOOL	3	[0, 0, 0]	-999	PAL1	0	R1312N
803.571	0.368	678758	REC_EVENT	4659.0	n/a	3	3	STOOL	<>	PLANT	STOOL	3	[0, 0, 0]	-999	PAL1	0	R1312N
803.939	0.005	679126	REC_END	n/a	n/a	3	3	STOOL	n/a	PLANT	STOOL	3	[0, 0, 0]	-999	PAL1	0	R1312N
803.944	0.277	679131	ORIENT_START	n/a	n/a	-999	-999	n/a	n/a	n/a	n/a	3	[0, 0, 0]	-999	PAL1	0	R1312N
804.221	0.543	679408	ORIENT_END	n/a	n/a	-999	-999	n/a	n/a	n/a	n/a	3	[0, 0, 0]	-999	PAL1	0	R1312N
804.764	0.0	679951	REC_START	n/a	n/a	4	4	VASE	SHIELD	SHIELD	VASE	3	[0, 0, 0]	-999	PAL1	0	R1312N
804.764	4.0	679951	PROBE_START	n/a	wordpools/wordpool_EN.txt	4	4	VASE	SHIELD	SHIELD	VASE	3	[0, 0, 0]	-999	PAL1	0	R1312N
808.176	0.613	683363	REC_EVENT	3412.0	n/a	4	4	VASE	SHIELD	SHIELD	VASE	3	[0, 0, 0]	-999	PAL1	0	R1312N
808.789	1.0	683976	PROBE_END	n/a	n/a	4	4	VASE	n/a	SHIELD	VASE	3	[0, 0, 0]	-999	PAL1	0	R1312N
809.789	0.012	684977	REC_END	n/a	n/a	4	4	VASE	n/a	SHIELD	VASE	3	[0, 0, 0]	-999	PAL1	0	R1312N
809.801	0.272	684989	ORIENT_START	n/a	n/a	-999	-999	n/a	n/a	n/a	n/a	3	[0, 0, 0]	-999	PAL1	0	R1312N
810.073	0.565	685261	ORIENT_END	n/a	n/a	-999	-999	n/a	n/a	n/a	n/a	3	[0, 0, 0]	-999	PAL1	0	R1312N
810.638	0.001	685826	REC_START	n/a	n/a	1	5	BIRD	RAT	BIRD	RAT	3	[0, 0, 0]	-999	PAL1	0	R1312N
810.639	4.0	685827	PROBE_START	n/a	wordpools/wordpool_EN.txt	1	5	BIRD	RAT	BIRD	RAT	3	[0, 0, 0]	-999	PAL1	0	R1312N
814.673	0.629	689861	PROBE_END	n/a	n/a	1	5	BIRD	n/a	BIRD	RAT	3	[0, 0, 0]	-999	PAL1	0	R1312N
815.302	0.371	690490	REC_EVENT	4663.0	n/a	1	5	BIRD	RAT	BIRD	RAT	3	[0, 0, 0]	-999	PAL1	0	R1312N
815.673	0.012	690861	REC_END	n/a	n/a	1	5	BIRD	n/a	BIRD	RAT	3	[0, 0, 0]	-999	PAL1	0	R1312N
815.685	0.273	690873	ORIENT_START	n/a	n/a	-999	-999	n/a	n/a	n/a	n/a	3	[0, 0, 0]	-999	PAL1	0	R1312N
815.958	0.687	691146	ORIENT_END	n/a	n/a	-999	-999	n/a	n/a	n/a	n/a	3	[0, 0, 0]	-999	PAL1	0	R1312N
816.645	0.001	691833	REC_START	n/a	n/a	6	6	SLUSH	PASS	CHAIR	SLUSH	3	[0, 0, 0]	-999	PAL1	0	R1312N
816.646	4.0	691834	PROBE_START	n/a	wordpools/wordpool_EN.txt	6	6	SLUSH	PASS	CHAIR	SLUSH	3	[0, 0, 0]	-999	PAL1	0	R1312N
820.674	0.188	695862	PROBE_END	n/a	n/a	6	6	SLUSH	n/a	CHAIR	SLUSH	3	[0, 0, 0]	-999	PAL1	0	R1312N
820.862	0.813	696050	REC_EVENT	4216.0	n/a	6	6	SLUSH	PASS	CHAIR	SLUSH	3	[0, 0, 0]	-999	PAL1	0	R1312N
821.675	0.011	696863	REC_END	n/a	n/a	6	6	SLUSH	n/a	CHAIR	SLUSH	3	[0, 0, 0]	-999	PAL1	0	R1312N
821.686	0.0	696874	RETRIEVAL_END	n/a	n/a	-999	-999	n/a	n/a	n/a	n/a	3	[0, 0, 0]	-999	PAL1	0	R1312N
821.686	0.053	696874	TRIAL_END	n/a	n/a	-999	-999	n/a	n/a	n/a	n/a	3	[0, 0, 0]	-999	PAL1	0	R1312N
821.739	0.0	696927	TRIAL_START	n/a	n/a	-999	-999	n/a	n/a	n/a	n/a	3	[0, 0, 0]	-999	PAL1	0	R1312N
821.739	0.0	696927	TRIAL	n/a	n/a	-999	-999	n/a	n/a	n/a	n/a	4	[0, 0, 0]	-999	PAL1	0	R1312N
821.739	2.387	696927	WAITING_START	n/a	n/a	-999	-999	n/a	n/a	n/a	n/a	4	[0, 0, 0]	-999	PAL1	0	R1312N
824.126	0.0	699314	WAITING_END	n/a	n/a	-999	-999	n/a	n/a	n/a	n/a	4	[0, 0, 0]	-999	PAL1	0	R1312N
824.126	10.0	699314	COUNTDOWN_START	n/a	n/a	-999	-999	n/a	n/a	n/a	n/a	4	[0, 0, 0]	-999	PAL1	0	R1312N
834.555	0.001	709743	COUNTDOWN_END	n/a	n/a	-999	-999	n/a	n/a	n/a	n/a	4	[0, 0, 0]	-999	PAL1	0	R1312N
834.556	0.654	709744	ORIENT_START	n/a	n/a	-999	-999	n/a	n/a	n/a	n/a	4	[0, 0, 0]	-999	PAL1	0	R1312N
835.21	0.0	710398	ORIENT_END	n/a	n/a	-999	-999	n/a	n/a	n/a	n/a	4	[0, 0, 0]	-999	PAL1	0	R1312N
835.21	1.25	710398	ENCODING_START	n/a	n/a	-999	-999	n/a	n/a	n/a	n/a	4	[0, 0, 0]	-999	PAL1	0	R1312N
836.46	4.0	711649	STUDY_PAIR	n/a	wordpools/wordpool_EN.txt	1	-999	n/a	n/a	CHEEK	WAND	4	[0, 0, 0]	-999	PAL1	0	R1312N
840.494	0.664	715683	STUDY_PAIR_OFF	n/a	n/a	1	-999	n/a	n/a	CHEEK	WAND	4	[0, 0, 0]	-999	PAL1	0	R1312N
841.158	4.0	716347	STUDY_PAIR	n/a	wordpools/wordpool_EN.txt	2	-999	n/a	n/a	WEB	SOUP	4	[0, 0, 0]	-999	PAL1	0	R1312N
845.195	0.501	720384	STUDY_PAIR_OFF	n/a	n/a	2	-999	n/a	n/a	WEB	SOUP	4	[0, 0, 0]	-999	PAL1	0	R1312N
845.696	4.0	720885	STUDY_PAIR	n/a	wordpools/wordpool_EN.txt	3	-999	n/a	n/a	FLAG	DOCK	4	[0, 0, 0]	-999	PAL1	0	R1312N
849.729	0.6	724918	STUDY_PAIR_OFF	n/a	n/a	3	-999	n/a	n/a	FLAG	DOCK	4	[0, 0, 0]	-999	PAL1	0	R1312N
850.329	4.0	725518	STUDY_PAIR	n/a	wordpools/wordpool_EN.txt	4	-999	n/a	n/a	BOAT	WOLF	4	[0, 0, 0]	-999	PAL1	0	R1312N
854.346	0.609	729535	STUDY_PAIR_OFF	n/a	n/a	4	-999	n/a	n/a	BOAT	WOLF	4	[0, 0, 0]	-999	PAL1	0	R1312N
854.955	4.0	730144	STUDY_PAIR	n/a	wordpools/wordpool_EN.txt	5	-999	n/a	n/a	CALF	ROOM	4	[0, 0, 0]	-999	PAL1	0	R1312N
858.981	0.712	734170	STUDY_PAIR_OFF	n/a	n/a	5	-999	n/a	n/a	CALF	ROOM	4	[0, 0, 0]	-999	PAL1	0	R1312N
859.693	4.0	734882	STUDY_PAIR	n/a	wordpools/wordpool_EN.txt	6	-999	n/a	VEST	FOX	VEST	4	[0, 0, 0]	-999	PAL1	0	R1312N
863.731	0.001	738921	STUDY_PAIR_OFF	n/a	n/a	6	-999	n/a	VEST	FOX	VEST	4	[0, 0, 0]	-999	PAL1	0	R1312N
863.732	0.0	738922	ENCODING_END	n/a	n/a	-999	-999	n/a	n/a	n/a	n/a	4	[0, 0, 0]	-999	PAL1	0	R1312N
863.732	0.0	738922	MATH_START	n/a	n/a	-999	-999	n/a	n/a	n/a	n/a	4	[0, 0, 0]	-999	PAL1	0	R1312N
863.732	0.016	738922	START	n/a	n/a	-999	-999	n/a	n/a	n/a	n/a	4	[-999, -999, -999]	-999	PAL1	0	R1312N
863.748	14.203	738938	PROB	14174.0	n/a	-999	-999	n/a	n/a	n/a	n/a	4	[8, 8, 8]	23	PAL1	0	R1312N
877.951	4.35	753141	PROB	4315.0	n/a	-999	-999	n/a	n/a	n/a	n/a	4	[1, 1, 8]	10	PAL1	0	R1312N
882.301	7.67	757491	PROB	7670.0	n/a	-999	-999	n/a	n/a	n/a	n/a	4	[3, 1, 4]	8	PAL1	0	R1312N
889.971	0.015	765161	STOP	n/a	n/a	-999	-999	n/a	n/a	n/a	n/a	4	[-999, -999, -999]	-999	PAL1	0	R1312N
889.986	0.587	765176	MATH_END	n/a	n/a	-999	-999	n/a	n/a	n/a	n/a	4	[0, 0, 0]	-999	PAL1	0	R1312N
890.573	0.001	765764	RETRIEVAL_START	n/a	n/a	-999	-999	n/a	n/a	n/a	n/a	4	[0, 0, 0]	-999	PAL1	0	R1312N
890.574	0.279	765765	ORIENT_START	n/a	n/a	-999	-999	n/a	n/a	n/a	n/a	4	[0, 0, 0]	-999	PAL1	0	R1312N
890.853	0.701	766044	ORIENT_END	n/a	n/a	-999	-999	n/a	n/a	n/a	n/a	4	[0, 0, 0]	-999	PAL1	0	R1312N
891.554	0.0	766745	REC_START	n/a	n/a	1	1	WAND	n/a	CHEEK	WAND	4	[0, 0, 0]	-999	PAL1	0	R1312N
891.554	4.0	766745	PROBE_START	n/a	wordpools/wordpool_EN.txt	1	1	WAND	n/a	CHEEK	WAND	4	[0, 0, 0]	-999	PAL1	0	R1312N
895.586	1.0	770777	PROBE_END	n/a	n/a	1	1	WAND	n/a	CHEEK	WAND	4	[0, 0, 0]	-999	PAL1	0	R1312N
896.586	0.011	771777	REC_END	n/a	n/a	1	1	WAND	n/a	CHEEK	WAND	4	[0, 0, 0]	-999	PAL1	0	R1312N
896.597	0.274	771788	ORIENT_START	n/a	n/a	-999	-999	n/a	n/a	n/a	n/a	4	[0, 0, 0]	-999	PAL1	0	R1312N
896.871	0.246	772062	ORIENT_END	n/a	n/a	-999	-999	n/a	n/a	n/a	n/a	4	[0, 0, 0]	-999	PAL1	0	R1312N
897.117	0.309	772308	REC_EVENT	5563.0	n/a	1	1	WAND	<>	CHEEK	WAND	4	[0, 0, 0]	-999	PAL1	0	R1312N
897.426	0.0	772617	REC_START	n/a	n/a	4	2	BOAT	n/a	BOAT	WOLF	4	[0, 0, 0]	-999	PAL1	0	R1312N
897.426	4.0	772617	PROBE_START	n/a	wordpools/wordpool_EN.txt	4	2	BOAT	n/a	BOAT	WOLF	4	[0, 0, 0]	-999	PAL1	0	R1312N
901.454	0.389	776645	PROBE_END	n/a	n/a	4	2	BOAT	n/a	BOAT	WOLF	4	[0, 0, 0]	-999	PAL1	0	R1312N
901.843	0.611	777034	REC_EVENT	4417.0	n/a	4	2	BOAT	<>	BOAT	WOLF	4	[0, 0, 0]	-999	PAL1	0	R1312N
902.454	0.011	777645	REC_END	n/a	n/a	4	2	BOAT	n/a	BOAT	WOLF	4	[0, 0, 0]	-999	PAL1	0	R1312N
902.465	0.273	777656	ORIENT_START	n/a	n/a	-999	-999	n/a	n/a	n/a	n/a	4	[0, 0, 0]	-999	PAL1	0	R1312N
902.738	0.695	777929	ORIENT_END	n/a	n/a	-999	-999	n/a	n/a	n/a	n/a	4	[0, 0, 0]	-999	PAL1	0	R1312N
903.433	0.001	778624	REC_START	n/a	n/a	3	3	DOCK	n/a	FLAG	DOCK	4	[0, 0, 0]	-999	PAL1	0	R1312N
903.434	4.0	778625	PROBE_START	n/a	wordpools/wordpool_EN.txt	3	3	DOCK	n/a	FLAG	DOCK	4	[0, 0, 0]	-999	PAL1	0	R1312N
907.472	0.729	782663	PROBE_END	n/a	n/a	3	3	DOCK	n/a	FLAG	DOCK	4	[0, 0, 0]	-999	PAL1	0	R1312N
908.201	0.27	783392	REC_EVENT	4767.0	n/a	3	3	DOCK	<>	FLAG	DOCK	4	[0, 0, 0]	-999	PAL1	0	R1312N
908.471	0.013	783662	REC_END	n/a	n/a	3	3	DOCK	n/a	FLAG	DOCK	4	[0, 0, 0]	-999	PAL1	0	R1312N
908.484	0.271	783675	ORIENT_START	n/a	n/a	-999	-999	n/a	n/a	n/a	n/a	4	[0, 0, 0]	-999	PAL1	0	R1312N
908.755	0.657	783946	ORIENT_END	n/a	n/a	-999	-999	n/a	n/a	n/a	n/a	4	[0, 0, 0]	-999	PAL1	0	R1312N
909.412	4.0	784603	PROBE_START	n/a	wordpools/wordpool_EN.txt	6	4	FOX	VEST	FOX	VEST	4	[0, 0, 0]	-999	PAL1	0	R1312N
909.412	2.1	784603	REC_START	n/a	n/a	6	4	FOX	VEST	FOX	VEST	4	[0, 0, 0]	-999	PAL1	0	R1312N
911.512	1.927	786703	REC_EVENT	2100.0	n/a	6	4	FOX	VEST	FOX	VEST	4	[0, 0, 0]	-999	PAL1	0	R1312N
913.439	1.0	788630	PROBE_END	n/a	n/a	6	4	FOX	n/a	FOX	VEST	4	[0, 0, 0]	-999	PAL1	0	R1312N
914.439	0.011	789630	REC_END	n/a	n/a	6	4	FOX	n/a	FOX	VEST	4	[0, 0, 0]	-999	PAL1	0	R1312N
914.45	0.273	789641	ORIENT_START	n/a	n/a	-999	-999	n/a	n/a	n/a	n/a	4	[0, 0, 0]	-999	PAL1	0	R1312N
914.723	0.521	789914	ORIENT_END	n/a	n/a	-999	-999	n/a	n/a	n/a	n/a	4	[0, 0, 0]	-999	PAL1	0	R1312N
915.244	0.0	790435	REC_START	n/a	n/a	5	5	ROOM	n/a	CALF	ROOM	4	[0, 0, 0]	-999	PAL1	0	R1312N
915.244	4.0	790435	PROBE_START	n/a	wordpools/wordpool_EN.txt	5	5	ROOM	n/a	CALF	ROOM	4	[0, 0, 0]	-999	PAL1	0	R1312N
918.44	0.834	793632	REC_EVENT	3196.0	n/a	5	5	ROOM	<>	CALF	ROOM	4	[0, 0, 0]	-999	PAL1	0	R1312N
919.274	0.999	794466	PROBE_END	n/a	n/a	5	5	ROOM	n/a	CALF	ROOM	4	[0, 0, 0]	-999	PAL1	0	R1312N
920.273	0.011	795465	REC_END	n/a	n/a	5	5	ROOM	n/a	CALF	ROOM	4	[0, 0, 0]	-999	PAL1	0	R1312N
920.284	0.273	795476	ORIENT_START	n/a	n/a	-999	-999	n/a	n/a	n/a	n/a	4	[0, 0, 0]	-999	PAL1	0	R1312N
920.557	0.648	795749	ORIENT_END	n/a	n/a	-999	-999	n/a	n/a	n/a	n/a	4	[0, 0, 0]	-999	PAL1	0	R1312N
921.205	0.0	796397	REC_START	n/a	n/a	2	6	WEB	n/a	WEB	SOUP	4	[0, 0, 0]	-999	PAL1	0	R1312N
921.205	4.0	796397	PROBE_START	n/a	wordpools/wordpool_EN.txt	2	6	WEB	n/a	WEB	SOUP	4	[0, 0, 0]	-999	PAL1	0	R1312N
925.241	0.893	800433	PROBE_END	n/a	n/a	2	6	WEB	n/a	WEB	SOUP	4	[0, 0, 0]	-999	PAL1	0	R1312N
926.134	0.107	801326	REC_EVENT	4929.0	n/a	2	6	WEB	<>	WEB	SOUP	4	[0, 0, 0]	-999	PAL1	0	R1312N
926.241	0.012	801433	REC_END	n/a	n/a	2	6	WEB	n/a	WEB	SOUP	4	[0, 0, 0]	-999	PAL1	0	R1312N
926.253	0.0	801445	TRIAL_END	n/a	n/a	-999	-999	n/a	n/a	n/a	n/a	4	[0, 0, 0]	-999	PAL1	0	R1312N
926.253	0.018	801445	RETRIEVAL_END	n/a	n/a	-999	-999	n/a	n/a	n/a	n/a	4	[0, 0, 0]	-999	PAL1	0	R1312N
926.271	0.001	801463	TRIAL_START	n/a	n/a	-999	-999	n/a	n/a	n/a	n/a	4	[0, 0, 0]	-999	PAL1	0	R1312N
926.272	0.0	801464	TRIAL	n/a	n/a	-999	-999	n/a	n/a	n/a	n/a	5	[0, 0, 0]	-999	PAL1	0	R1312N
926.272	4.855	801464	WAITING_START	n/a	n/a	-999	-999	n/a	n/a	n/a	n/a	5	[0, 0, 0]	-999	PAL1	0	R1312N
931.127	0.0	806319	WAITING_END	n/a	n/a	-999	-999	n/a	n/a	n/a	n/a	5	[0, 0, 0]	-999	PAL1	0	R1312N
931.127	10.0	806319	COUNTDOWN_START	n/a	n/a	-999	-999	n/a	n/a	n/a	n/a	5	[0, 0, 0]	-999	PAL1	0	R1312N
941.556	0.0	816748	COUNTDOWN_END	n/a	n/a	-999	-999	n/a	n/a	n/a	n/a	5	[0, 0, 0]	-999	PAL1	0	R1312N
941.556	0.522	816748	ORIENT_START	n/a	n/a	-999	-999	n/a	n/a	n/a	n/a	5	[0, 0, 0]	-999	PAL1	0	R1312N
942.078	0.001	817270	ORIENT_END	n/a	n/a	-999	-999	n/a	n/a	n/a	n/a	5	[0, 0, 0]	-999	PAL1	0	R1312N
942.079	1.218	817271	ENCODING_START	n/a	n/a	-999	-999	n/a	n/a	n/a	n/a	5	[0, 0, 0]	-999	PAL1	0	R1312N
943.297	4.0	818489	STUDY_PAIR	n/a	wordpools/wordpool_EN.txt	1	-999	n/a	HAND	HAND	SWAMP	5	[0, 0, 0]	-999	PAL1	0	R1312N
947.328	0.652	822521	STUDY_PAIR_OFF	n/a	n/a	1	-999	n/a	HAND	HAND	SWAMP	5	[0, 0, 0]	-999	PAL1	0	R1312N
947.98	4.0	823173	STUDY_PAIR	n/a	wordpools/wordpool_EN.txt	2	-999	n/a	PIT	PIT	MUD	5	[0, 0, 0]	-999	PAL1	0	R1312N
952.013	0.637	827206	STUDY_PAIR_OFF	n/a	n/a	2	-999	n/a	PIT	PIT	MUD	5	[0, 0, 0]	-999	PAL1	0	R1312N
952.65	4.0	827843	STUDY_PAIR	n/a	wordpools/wordpool_EN.txt	3	-999	n/a	MULE	TRASH	MULE	5	[0, 0, 0]	-999	PAL1	0	R1312N
956.68	0.747	831873	STUDY_PAIR_OFF	n/a	n/a	3	-999	n/a	MULE	TRASH	MULE	5	[0, 0, 0]	-999	PAL1	0	R1312N
957.427	4.0	832620	STUDY_PAIR	n/a	wordpools/wordpool_EN.txt	4	-999	n/a	SPOON	SPOON	CLOCK	5	[0, 0, 0]	-999	PAL1	0	R1312N
961.464	0.587	836657	STUDY_PAIR_OFF	n/a	n/a	4	-999	n/a	SPOON	SPOON	CLOCK	5	[0, 0, 0]	-999	PAL1	0	R1312N
962.051	4.0	837244	STUDY_PAIR	n/a	wordpools/wordpool_EN.txt	5	-999	n/a	n/a	OAK	TENT	5	[0, 0, 0]	-999	PAL1	0	R1312N
966.082	0.572	841275	STUDY_PAIR_OFF	n/a	n/a	5	-999	n/a	n/a	OAK	TENT	5	[0, 0, 0]	-999	PAL1	0	R1312N
966.654	4.0	841847	STUDY_PAIR	n/a	wordpools/wordpool_EN.txt	6	-999	n/a	STORE	MAP	STORE	5	[0, 0, 0]	-999	PAL1	0	R1312N
970.682	0.001	845875	STUDY_PAIR_OFF	n/a	n/a	6	-999	n/a	STORE	MAP	STORE	5	[0, 0, 0]	-999	PAL1	0	R1312N
970.683	0.0	845876	ENCODING_END	n/a	n/a	-999	-999	n/a	n/a	n/a	n/a	5	[0, 0, 0]	-999	PAL1	0	R1312N
970.683	0.0	845876	MATH_START	n/a	n/a	-999	-999	n/a	n/a	n/a	n/a	5	[0, 0, 0]	-999	PAL1	0	R1312N
970.683	0.016	845876	START	n/a	n/a	-999	-999	n/a	n/a	n/a	n/a	5	[-999, -999, -999]	-999	PAL1	0	R1312N
970.699	4.485	845892	PROB	4448.0	n/a	-999	-999	n/a	n/a	n/a	n/a	5	[5, 3, 2]	10	PAL1	0	R1312N
975.184	6.616	850378	PROB	6586.0	n/a	-999	-999	n/a	n/a	n/a	n/a	5	[9, 2, 3]	15	PAL1	0	R1312N
981.8	15.889	856994	PROB	15889.0	n/a	-999	-999	n/a	n/a	n/a	n/a	5	[9, 5, 7]	19	PAL1	0	R1312N
997.689	0.014	872883	STOP	n/a	n/a	-999	-999	n/a	n/a	n/a	n/a	5	[-999, -999, -999]	-999	PAL1	0	R1312N
997.703	0.584	872897	MATH_END	n/a	n/a	-999	-999	n/a	n/a	n/a	n/a	5	[0, 0, 0]	-999	PAL1	0	R1312N
998.287	0.001	873481	RETRIEVAL_START	n/a	n/a	-999	-999	n/a	n/a	n/a	n/a	5	[0, 0, 0]	-999	PAL1	0	R1312N
998.288	0.282	873482	ORIENT_START	n/a	n/a	-999	-999	n/a	n/a	n/a	n/a	5	[0, 0, 0]	-999	PAL1	0	R1312N
998.57	0.672	873764	ORIENT_END	n/a	n/a	-999	-999	n/a	n/a	n/a	n/a	5	[0, 0, 0]	-999	PAL1	0	R1312N
999.242	0.0	874437	REC_START	n/a	n/a	5	1	OAK	n/a	OAK	TENT	5	[0, 0, 0]	-999	PAL1	0	R1312N
999.242	4.0	874437	PROBE_START	n/a	wordpools/wordpool_EN.txt	5	1	OAK	n/a	OAK	TENT	5	[0, 0, 0]	-999	PAL1	0	R1312N
1003.271	0.999	878466	PROBE_END	n/a	n/a	5	1	OAK	n/a	OAK	TENT	5	[0, 0, 0]	-999	PAL1	0	R1312N
1004.27	0.013	879465	REC_END	n/a	n/a	5	1	OAK	n/a	OAK	TENT	5	[0, 0, 0]	-999	PAL1	0	R1312N
1004.283	0.271	879478	ORIENT_START	n/a	n/a	-999	-999	n/a	n/a	n/a	n/a	5	[0, 0, 0]	-999	PAL1	0	R1312N
1004.554	0.657	879749	ORIENT_END	n/a	n/a	-999	-999	n/a	n/a	n/a	n/a	5	[0, 0, 0]	-999	PAL1	0	R1312N
1005.211	0.032	880406	REC_EVENT	5969.0	n/a	5	1	OAK	<>	OAK	TENT	5	[0, 0, 0]	-999	PAL1	0	R1312N
1005.243	0.0	880438	REC_START	n/a	n/a	4	2	CLOCK	SPOON	SPOON	CLOCK	5	[0, 0, 0]	-999	PAL1	0	R1312N
1005.243	4.0	880438	PROBE_START	n/a	wordpools/wordpool_EN.txt	4	2	CLOCK	SPOON	SPOON	CLOCK	5	[0, 0, 0]	-999	PAL1	0	R1312N
1007.048	2.224	882243	REC_EVENT	1805.0	n/a	4	2	CLOCK	SPOON	SPOON	CLOCK	5	[0, 0, 0]	-999	PAL1	0	R1312N
1009.272	0.999	884467	PROBE_END	n/a	n/a	4	2	CLOCK	n/a	SPOON	CLOCK	5	[0, 0, 0]	-999	PAL1	0	R1312N
1010.271	0.011	885466	REC_END	n/a	n/a	4	2	CLOCK	n/a	SPOON	CLOCK	5	[0, 0, 0]	-999	PAL1	0	R1312N
1010.282	0.273	885477	ORIENT_START	n/a	n/a	-999	-999	n/a	n/a	n/a	n/a	5	[0, 0, 0]	-999	PAL1	0	R1312N
1010.555	0.646	885750	ORIENT_END	n/a	n/a	-999	-999	n/a	n/a	n/a	n/a	5	[0, 0, 0]	-999	PAL1	0	R1312N
1011.201	0.0	886396	REC_START	n/a	n/a	1	3	SWAMP	HAND	HAND	SWAMP	5	[0, 0, 0]	-999	PAL1	0	R1312N
1011.201	4.0	886396	PROBE_START	n/a	wordpools/wordpool_EN.txt	1	3	SWAMP	HAND	HAND	SWAMP	5	[0, 0, 0]	-999	PAL1	0	R1312N
1012.862	2.377	888057	REC_EVENT	1661.0	n/a	1	3	SWAMP	HAND	HAND	SWAMP	5	[0, 0, 0]	-999	PAL1	0	R1312N
1015.239	1.0	890434	PROBE_END	n/a	n/a	1	3	SWAMP	n/a	HAND	SWAMP	5	[0, 0, 0]	-999	PAL1	0	R1312N
1016.239	0.011	891434	REC_END	n/a	n/a	1	3	SWAMP	n/a	HAND	SWAMP	5	[0, 0, 0]	-999	PAL1	0	R1312N
1016.25	0.273	891445	ORIENT_START	n/a	n/a	-999	-999	n/a	n/a	n/a	n/a	5	[0, 0, 0]	-999	PAL1	0	R1312N
1016.523	0.577	891718	ORIENT_END	n/a	n/a	-999	-999	n/a	n/a	n/a	n/a	5	[0, 0, 0]	-999	PAL1	0	R1312N
1017.1	0.0	892295	REC_START	n/a	n/a	2	4	MUD	PIT	PIT	MUD	5	[0, 0, 0]	-999	PAL1	0	R1312N
1017.1	4.0	892295	PROBE_START	n/a	wordpools/wordpool_EN.txt	2	4	MUD	PIT	PIT	MUD	5	[0, 0, 0]	-999	PAL1	0	R1312N
1019.032	2.093	894227	REC_EVENT	1932.0	n/a	2	4	MUD	PIT	PIT	MUD	5	[0, 0, 0]	-999	PAL1	0	R1312N
1021.125	1.0	896320	PROBE_END	n/a	n/a	2	4	MUD	n/a	PIT	MUD	5	[0, 0, 0]	-999	PAL1	0	R1312N
1022.125	0.01	897320	REC_END	n/a	n/a	2	4	MUD	n/a	PIT	MUD	5	[0, 0, 0]	-999	PAL1	0	R1312N
1022.135	0.272	897330	ORIENT_START	n/a	n/a	-999	-999	n/a	n/a	n/a	n/a	5	[0, 0, 0]	-999	PAL1	0	R1312N
1022.407	0.643	897602	ORIENT_END	n/a	n/a	-999	-999	n/a	n/a	n/a	n/a	5	[0, 0, 0]	-999	PAL1	0	R1312N
1023.05	0.0	898245	REC_START	n/a	n/a	3	5	TRASH	MULE	TRASH	MULE	5	[0, 0, 0]	-999	PAL1	0	R1312N
1023.05	4.0	898245	PROBE_START	n/a	wordpools/wordpool_EN.txt	3	5	TRASH	MULE	TRASH	MULE	5	[0, 0, 0]	-999	PAL1	0	R1312N
1025.187	1.889	900382	REC_EVENT	2137.0	n/a	3	5	TRASH	MULE	TRASH	MULE	5	[0, 0, 0]	-999	PAL1	0	R1312N
1027.076	1.0	902272	PROBE_END	n/a	n/a	3	5	TRASH	n/a	TRASH	MULE	5	[0, 0, 0]	-999	PAL1	0	R1312N
1028.076	0.011	903272	REC_END	n/a	n/a	3	5	TRASH	n/a	TRASH	MULE	5	[0, 0, 0]	-999	PAL1	0	R1312N
1028.087	0.271	903283	ORIENT_START	n/a	n/a	-999	-999	n/a	n/a	n/a	n/a	5	[0, 0, 0]	-999	PAL1	0	R1312N
1028.358	0.509	903554	ORIENT_END	n/a	n/a	-999	-999	n/a	n/a	n/a	n/a	5	[0, 0, 0]	-999	PAL1	0	R1312N
1028.867	0.0	904063	REC_START	n/a	n/a	6	6	MAP	STORE	MAP	STORE	5	[0, 0, 0]	-999	PAL1	0	R1312N
1028.867	4.0	904063	PROBE_START	n/a	wordpools/wordpool_EN.txt	6	6	MAP	STORE	MAP	STORE	5	[0, 0, 0]	-999	PAL1	0	R1312N
1030.855	2.038	906051	REC_EVENT	1988.0	n/a	6	6	MAP	STORE	MAP	STORE	5	[0, 0, 0]	-999	PAL1	0	R1312N
1032.893	1.001	908089	PROBE_END	n/a	n/a	6	6	MAP	n/a	MAP	STORE	5	[0, 0, 0]	-999	PAL1	0	R1312N
1033.894	0.011	909090	REC_END	n/a	n/a	6	6	MAP	n/a	MAP	STORE	5	[0, 0, 0]	-999	PAL1	0	R1312N
1033.905	0.0	909101	TRIAL_END	n/a	n/a	-999	-999	n/a	n/a	n/a	n/a	5	[0, 0, 0]	-999	PAL1	0	R1312N
1033.905	0.02	909101	RETRIEVAL_END	n/a	n/a	-999	-999	n/a	n/a	n/a	n/a	5	[0, 0, 0]	-999	PAL1	0	R1312N
1033.925	0.0	909121	TRIAL_START	n/a	n/a	-999	-999	n/a	n/a	n/a	n/a	5	[0, 0, 0]	-999	PAL1	0	R1312N
1033.925	0.0	909121	TRIAL	n/a	n/a	-999	-999	n/a	n/a	n/a	n/a	6	[0, 0, 0]	-999	PAL1	0	R1312N
1033.925	3.969	909121	WAITING_START	n/a	n/a	-999	-999	n/a	n/a	n/a	n/a	6	[0, 0, 0]	-999	PAL1	0	R1312N
1037.894	0.001	913090	WAITING_END	n/a	n/a	-999	-999	n/a	n/a	n/a	n/a	6	[0, 0, 0]	-999	PAL1	0	R1312N
1037.895	10.0	913091	COUNTDOWN_START	n/a	n/a	-999	-999	n/a	n/a	n/a	n/a	6	[0, 0, 0]	-999	PAL1	0	R1312N
1048.324	0.0	923520	COUNTDOWN_END	n/a	n/a	-999	-999	n/a	n/a	n/a	n/a	6	[0, 0, 0]	-999	PAL1	0	R1312N
1048.324	0.655	923520	ORIENT_START	n/a	n/a	-999	-999	n/a	n/a	n/a	n/a	6	[0, 0, 0]	-999	PAL1	0	R1312N
1048.979	0.001	924175	ORIENT_END	n/a	n/a	-999	-999	n/a	n/a	n/a	n/a	6	[0, 0, 0]	-999	PAL1	0	R1312N
1048.98	1.015	924176	ENCODING_START	n/a	n/a	-999	-999	n/a	n/a	n/a	n/a	6	[0, 0, 0]	-999	PAL1	0	R1312N
1049.995	4.0	925191	STUDY_PAIR	n/a	wordpools/wordpool_EN.txt	1	-999	n/a	CLAY	CLAY	SINK	6	[0, 0, 0]	-999	PAL1	0	R1312N
1054.03	0.582	929227	STUDY_PAIR_OFF	n/a	n/a	1	-999	n/a	CLAY	CLAY	SINK	6	[0, 0, 0]	-999	PAL1	0	R1312N
1054.612	4.0	929809	STUDY_PAIR	n/a	wordpools/wordpool_EN.txt	2	-999	n/a	WORLD	WORLD	PEN	6	[0, 0, 0]	-999	PAL1	0	R1312N
1058.647	0.64	933844	STUDY_PAIR_OFF	n/a	n/a	2	-999	n/a	WORLD	WORLD	PEN	6	[0, 0, 0]	-999	PAL1	0	R1312N
1059.287	4.0	934484	STUDY_PAIR	n/a	wordpools/wordpool_EN.txt	3	-999	n/a	TOOL	CORN	TOOL	6	[0, 0, 0]	-999	PAL1	0	R1312N
1063.314	0.544	938511	STUDY_PAIR_OFF	n/a	n/a	3	-999	n/a	TOOL	CORN	TOOL	6	[0, 0, 0]	-999	PAL1	0	R1312N
1063.858	4.0	939055	STUDY_PAIR	n/a	wordpools/wordpool_EN.txt	4	-999	n/a	HILL	CAKE	HILL	6	[0, 0, 0]	-999	PAL1	0	R1312N
1067.883	0.688	943080	STUDY_PAIR_OFF	n/a	n/a	4	-999	n/a	HILL	CAKE	HILL	6	[0, 0, 0]	-999	PAL1	0	R1312N
1068.571	4.0	943768	STUDY_PAIR	n/a	wordpools/wordpool_EN.txt	5	-999	n/a	SNOW	SNOW	BED	6	[0, 0, 0]	-999	PAL1	0	R1312N
1072.599	0.539	947796	STUDY_PAIR_OFF	n/a	n/a	5	-999	n/a	SNOW	SNOW	BED	6	[0, 0, 0]	-999	PAL1	0	R1312N
1073.138	4.0	948335	STUDY_PAIR	n/a	wordpools/wordpool_EN.txt	6	-999	n/a	EGG	PLATE	EGG	6	[0, 0, 0]	-999	PAL1	0	R1312N
1077.167	0.001	952364	STUDY_PAIR_OFF	n/a	n/a	6	-999	n/a	EGG	PLATE	EGG	6	[0, 0, 0]	-999	PAL1	0	R1312N
1077.168	0.0	952365	ENCODING_END	n/a	n/a	-999	-999	n/a	n/a	n/a	n/a	6	[0, 0, 0]	-999	PAL1	0	R1312N
1077.168	0.0	952365	MATH_START	n/a	n/a	-999	-999	n/a	n/a	n/a	n/a	6	[0, 0, 0]	-999	PAL1	0	R1312N
1077.168	0.016	952365	START	n/a	n/a	-999	-999	n/a	n/a	n/a	n/a	6	[-999, -999, -999]	-999	PAL1	0	R1312N
1077.184	4.099	952381	PROB	4066.0	n/a	-999	-999	n/a	n/a	n/a	n/a	6	[1, 6, 6]	13	PAL1	0	R1312N
1081.283	19.359	956481	PROB	19359.0	n/a	-999	-999	n/a	n/a	n/a	n/a	6	[3, 9, 5]	17	PAL1	0	R1312N
1100.642	0.012	975840	STOP	n/a	n/a	-999	-999	n/a	n/a	n/a	n/a	6	[-999, -999, -999]	-999	PAL1	0	R1312N
1100.654	0.574	975852	MATH_END	n/a	n/a	-999	-999	n/a	n/a	n/a	n/a	6	[0, 0, 0]	-999	PAL1	0	R1312N
1101.228	0.002	976426	RETRIEVAL_START	n/a	n/a	-999	-999	n/a	n/a	n/a	n/a	6	[0, 0, 0]	-999	PAL1	0	R1312N
1101.23	0.274	976428	ORIENT_START	n/a	n/a	-999	-999	n/a	n/a	n/a	n/a	6	[0, 0, 0]	-999	PAL1	0	R1312N
1101.504	0.502	976702	ORIENT_END	n/a	n/a	-999	-999	n/a	n/a	n/a	n/a	6	[0, 0, 0]	-999	PAL1	0	R1312N
1102.006	4.0	977204	PROBE_START	n/a	wordpools/wordpool_EN.txt	3	1	CORN	TOOL	CORN	TOOL	6	[0, 0, 0]	-999	PAL1	0	R1312N
1102.006	2.4	977204	REC_START	n/a	n/a	3	1	CORN	TOOL	CORN	TOOL	6	[0, 0, 0]	-999	PAL1	0	R1312N
1104.406	1.633	979604	REC_EVENT	2400.0	n/a	3	1	CORN	TOOL	CORN	TOOL	6	[0, 0, 0]	-999	PAL1	0	R1312N
1106.039	1.0	981237	PROBE_END	n/a	n/a	3	1	CORN	n/a	CORN	TOOL	6	[0, 0, 0]	-999	PAL1	0	R1312N
1107.039	0.011	982237	REC_END	n/a	n/a	3	1	CORN	n/a	CORN	TOOL	6	[0, 0, 0]	-999	PAL1	0	R1312N
1107.05	0.271	982248	ORIENT_START	n/a	n/a	-999	-999	n/a	n/a	n/a	n/a	6	[0, 0, 0]	-999	PAL1	0	R1312N
1107.321	0.741	982519	ORIENT_END	n/a	n/a	-999	-999	n/a	n/a	n/a	n/a	6	[0, 0, 0]	-999	PAL1	0	R1312N
1108.062	0.0	983261	REC_START	n/a	n/a	2	2	PEN	WORLD	WORLD	PEN	6	[0, 0, 0]	-999	PAL1	0	R1312N
1108.062	4.0	983261	PROBE_START	n/a	wordpools/wordpool_EN.txt	2	2	PEN	WORLD	WORLD	PEN	6	[0, 0, 0]	-999	PAL1	0	R1312N
1110.946	1.144	986145	REC_EVENT	2884.0	n/a	2	2	PEN	WORLD	WORLD	PEN	6	[0, 0, 0]	-999	PAL1	0	R1312N
1112.09	1.001	987289	PROBE_END	n/a	n/a	2	2	PEN	n/a	WORLD	PEN	6	[0, 0, 0]	-999	PAL1	0	R1312N
1113.091	0.006	988290	REC_END	n/a	n/a	2	2	PEN	n/a	WORLD	PEN	6	[0, 0, 0]	-999	PAL1	0	R1312N
1113.097	0.275	988296	ORIENT_START	n/a	n/a	-999	-999	n/a	n/a	n/a	n/a	6	[0, 0, 0]	-999	PAL1	0	R1312N
1113.372	0.678	988571	ORIENT_END	n/a	n/a	-999	-999	n/a	n/a	n/a	n/a	6	[0, 0, 0]	-999	PAL1	0	R1312N
1114.05	4.0	989249	PROBE_START	n/a	wordpools/wordpool_EN.txt	5	3	BED	SNOW	SNOW	BED	6	[0, 0, 0]	-999	PAL1	0	R1312N
1114.05	2.271	989249	REC_START	n/a	n/a	5	3	BED	SNOW	SNOW	BED	6	[0, 0, 0]	-999	PAL1	0	R1312N
1116.321	1.753	991520	REC_EVENT	2271.0	n/a	5	3	BED	SNOW	SNOW	BED	6	[0, 0, 0]	-999	PAL1	0	R1312N
1118.074	1.001	993273	PROBE_END	n/a	n/a	5	3	BED	n/a	SNOW	BED	6	[0, 0, 0]	-999	PAL1	0	R1312N
1119.075	0.012	994274	REC_END	n/a	n/a	5	3	BED	n/a	SNOW	BED	6	[0, 0, 0]	-999	PAL1	0	R1312N
1119.087	0.27	994286	ORIENT_START	n/a	n/a	-999	-999	n/a	n/a	n/a	n/a	6	[0, 0, 0]	-999	PAL1	0	R1312N
1119.357	0.74	994556	ORIENT_END	n/a	n/a	-999	-999	n/a	n/a	n/a	n/a	6	[0, 0, 0]	-999	PAL1	0	R1312N
1120.097	0.0	995296	REC_START	n/a	n/a	4	4	CAKE	HILL	CAKE	HILL	6	[0, 0, 0]	-999	PAL1	0	R1312N
1120.097	4.0	995296	PROBE_START	n/a	wordpools/wordpool_EN.txt	4	4	CAKE	HILL	CAKE	HILL	6	[0, 0, 0]	-999	PAL1	0	R1312N
1122.391	1.734	997590	REC_EVENT	2294.0	n/a	4	4	CAKE	HILL	CAKE	HILL	6	[0, 0, 0]	-999	PAL1	0	R1312N
1124.125	1.001	999324	PROBE_END	n/a	n/a	4	4	CAKE	n/a	CAKE	HILL	6	[0, 0, 0]	-999	PAL1	0	R1312N
1125.126	0.005	1000325	REC_END	n/a	n/a	4	4	CAKE	n/a	CAKE	HILL	6	[0, 0, 0]	-999	PAL1	0	R1312N
1125.131	0.277	1000330	ORIENT_START	n/a	n/a	-999	-999	n/a	n/a	n/a	n/a	6	[0, 0, 0]	-999	PAL1	0	R1312N
1125.408	0.58	1000607	ORIENT_END	n/a	n/a	-999	-999	n/a	n/a	n/a	n/a	6	[0, 0, 0]	-999	PAL1	0	R1312N
1125.988	0.001	1001187	REC_START	n/a	n/a	1	5	SINK	CLAY	CLAY	SINK	6	[0, 0, 0]	-999	PAL1	0	R1312N
1125.989	4.0	1001188	PROBE_START	n/a	wordpools/wordpool_EN.txt	1	5	SINK	CLAY	CLAY	SINK	6	[0, 0, 0]	-999	PAL1	0	R1312N
1128.045	1.981	1003244	REC_EVENT	2056.0	n/a	1	5	SINK	CLAY	CLAY	SINK	6	[0, 0, 0]	-999	PAL1	0	R1312N
1130.026	1.0	1005225	PROBE_END	n/a	n/a	1	5	SINK	n/a	CLAY	SINK	6	[0, 0, 0]	-999	PAL1	0	R1312N
1131.026	0.01	1006225	REC_END	n/a	n/a	1	5	SINK	n/a	CLAY	SINK	6	[0, 0, 0]	-999	PAL1	0	R1312N
1131.036	0.273	1006235	ORIENT_START	n/a	n/a	-999	-999	n/a	n/a	n/a	n/a	6	[0, 0, 0]	-999	PAL1	0	R1312N
1131.309	0.595	1006508	ORIENT_END	n/a	n/a	-999	-999	n/a	n/a	n/a	n/a	6	[0, 0, 0]	-999	PAL1	0	R1312N
1131.904	0.001	1007103	REC_START	n/a	n/a	6	6	PLATE	EGG	PLATE	EGG	6	[0, 0, 0]	-999	PAL1	0	R1312N
1131.905	4.0	1007104	PROBE_START	n/a	wordpools/wordpool_EN.txt	6	6	PLATE	EGG	PLATE	EGG	6	[0, 0, 0]	-999	PAL1	0	R1312N
1134.018	1.909	1009217	REC_EVENT	2113.0	n/a	6	6	PLATE	EGG	PLATE	EGG	6	[0, 0, 0]	-999	PAL1	0	R1312N
1135.927	1.0	1011127	PROBE_END	n/a	n/a	6	6	PLATE	n/a	PLATE	EGG	6	[0, 0, 0]	-999	PAL1	0	R1312N
1136.927	0.01	1012127	REC_END	n/a	n/a	6	6	PLATE	n/a	PLATE	EGG	6	[0, 0, 0]	-999	PAL1	0	R1312N
1136.937	0.0	1012137	RETRIEVAL_END	n/a	n/a	-999	-999	n/a	n/a	n/a	n/a	6	[0, 0, 0]	-999	PAL1	0	R1312N
1136.937	0.019	1012137	TRIAL_END	n/a	n/a	-999	-999	n/a	n/a	n/a	n/a	6	[0, 0, 0]	-999	PAL1	0	R1312N
1136.956	0.0	1012156	WAITING_START	n/a	n/a	-999	-999	n/a	n/a	n/a	n/a	7	[0, 0, 0]	-999	PAL1	0	R1312N
1136.956	0.0	1012156	TRIAL_START	n/a	n/a	-999	-999	n/a	n/a	n/a	n/a	6	[0, 0, 0]	-999	PAL1	0	R1312N
1136.956	5.139	1012156	TRIAL	n/a	n/a	-999	-999	n/a	n/a	n/a	n/a	7	[0, 0, 0]	-999	PAL1	0	R1312N
1142.095	0.0	1017295	WAITING_END	n/a	n/a	-999	-999	n/a	n/a	n/a	n/a	7	[0, 0, 0]	-999	PAL1	0	R1312N
1142.095	10.0	1017295	COUNTDOWN_START	n/a	n/a	-999	-999	n/a	n/a	n/a	n/a	7	[0, 0, 0]	-999	PAL1	0	R1312N
1152.525	0.0	1027725	COUNTDOWN_END	n/a	n/a	-999	-999	n/a	n/a	n/a	n/a	7	[0, 0, 0]	-999	PAL1	0	R1312N
1152.525	0.522	1027725	ORIENT_START	n/a	n/a	-999	-999	n/a	n/a	n/a	n/a	7	[0, 0, 0]	-999	PAL1	0	R1312N
1153.047	0.0	1028247	ORIENT_END	n/a	n/a	-999	-999	n/a	n/a	n/a	n/a	7	[0, 0, 0]	-999	PAL1	0	R1312N
1153.047	1.039	1028247	ENCODING_START	n/a	n/a	-999	-999	n/a	n/a	n/a	n/a	7	[0, 0, 0]	-999	PAL1	0	R1312N
1154.086	4.0	1029286	STUDY_PAIR	n/a	wordpools/wordpool_EN.txt	1	-999	n/a	n/a	BUSH	PEACH	7	[0, 0, 0]	-999	PAL1	0	R1312N
1158.114	0.573	1033314	STUDY_PAIR_OFF	n/a	n/a	1	-999	n/a	n/a	BUSH	PEACH	7	[0, 0, 0]	-999	PAL1	0	R1312N
1158.687	4.0	1033887	STUDY_PAIR	n/a	wordpools/wordpool_EN.txt	2	-999	n/a	FLUTE	SLIME	FLUTE	7	[0, 0, 0]	-999	PAL1	0	R1312N
1162.714	0.57	1037915	STUDY_PAIR_OFF	n/a	n/a	2	-999	n/a	FLUTE	SLIME	FLUTE	7	[0, 0, 0]	-999	PAL1	0	R1312N
1163.284	4.0	1038485	STUDY_PAIR	n/a	wordpools/wordpool_EN.txt	3	-999	n/a	HAT	APE	HAT	7	[0, 0, 0]	-999	PAL1	0	R1312N
1167.314	0.741	1042515	STUDY_PAIR_OFF	n/a	n/a	3	-999	n/a	HAT	APE	HAT	7	[0, 0, 0]	-999	PAL1	0	R1312N
1168.055	4.0	1043256	STUDY_PAIR	n/a	wordpools/wordpool_EN.txt	4	-999	n/a	CALF	BAT	CLOTH	7	[0, 0, 0]	-999	PAL1	0	R1312N
1172.083	0.719	1047284	STUDY_PAIR_OFF	n/a	n/a	4	-999	n/a	CALF	BAT	CLOTH	7	[0, 0, 0]	-999	PAL1	0	R1312N
1172.802	4.0	1048003	STUDY_PAIR	n/a	wordpools/wordpool_EN.txt	5	-999	n/a	BALL	BALL	ARM	7	[0, 0, 0]	-999	PAL1	0	R1312N
1176.833	0.631	1052034	STUDY_PAIR_OFF	n/a	n/a	5	-999	n/a	BALL	BALL	ARM	7	[0, 0, 0]	-999	PAL1	0	R1312N
1177.464	4.0	1052665	STUDY_PAIR	n/a	wordpools/wordpool_EN.txt	6	-999	n/a	n/a	ROOT	SOAP	7	[0, 0, 0]	-999	PAL1	0	R1312N
1181.5	0.001	1056701	STUDY_PAIR_OFF	n/a	n/a	6	-999	n/a	n/a	ROOT	SOAP	7	[0, 0, 0]	-999	PAL1	0	R1312N
1181.501	0.0	1056702	ENCODING_END	n/a	n/a	-999	-999	n/a	n/a	n/a	n/a	7	[0, 0, 0]	-999	PAL1	0	R1312N
1181.501	0.0	1056702	MATH_START	n/a	n/a	-999	-999	n/a	n/a	n/a	n/a	7	[0, 0, 0]	-999	PAL1	0	R1312N
1181.501	0.016	1056702	START	n/a	n/a	-999	-999	n/a	n/a	n/a	n/a	7	[-999, -999, -999]	-999	PAL1	0	R1312N
1181.517	4.917	1056718	PROB	4885.0	n/a	-999	-999	n/a	n/a	n/a	n/a	7	[3, 8, 2]	13	PAL1	0	R1312N
1186.434	12.002	1061635	PROB	11976.0	n/a	-999	-999	n/a	n/a	n/a	n/a	7	[5, 7, 9]	21	PAL1	0	R1312N
1198.436	10.294	1073638	PROB	10294.0	n/a	-999	-999	n/a	n/a	n/a	n/a	7	[8, 4, 1]	14	PAL1	0	R1312N
1208.73	0.008	1083932	STOP	n/a	n/a	-999	-999	n/a	n/a	n/a	n/a	7	[-999, -999, -999]	-999	PAL1	0	R1312N
1208.738	0.679	1083940	MATH_END	n/a	n/a	-999	-999	n/a	n/a	n/a	n/a	7	[0, 0, 0]	-999	PAL1	0	R1312N
1209.417	0.002	1084619	RETRIEVAL_START	n/a	n/a	-999	-999	n/a	n/a	n/a	n/a	7	[0, 0, 0]	-999	PAL1	0	R1312N
1209.419	0.269	1084621	ORIENT_START	n/a	n/a	-999	-999	n/a	n/a	n/a	n/a	7	[0, 0, 0]	-999	PAL1	0	R1312N
1209.688	0.522	1084890	ORIENT_END	n/a	n/a	-999	-999	n/a	n/a	n/a	n/a	7	[0, 0, 0]	-999	PAL1	0	R1312N
1210.21	4.0	1085412	PROBE_START	n/a	wordpools/wordpool_EN.txt	1	1	PEACH	n/a	BUSH	PEACH	7	[0, 0, 0]	-999	PAL1	0	R1312N
1210.21	4.029	1085412	REC_START	n/a	n/a	1	1	PEACH	n/a	BUSH	PEACH	7	[0, 0, 0]	-999	PAL1	0	R1312N
1214.239	0.868	1089441	PROBE_END	n/a	n/a	1	1	PEACH	n/a	BUSH	PEACH	7	[0, 0, 0]	-999	PAL1	0	R1312N
1215.107	0.132	1090309	REC_EVENT	4897.0	n/a	1	1	PEACH	<>	BUSH	PEACH	7	[0, 0, 0]	-999	PAL1	0	R1312N
1215.239	0.01	1090441	REC_END	n/a	n/a	1	1	PEACH	n/a	BUSH	PEACH	7	[0, 0, 0]	-999	PAL1	0	R1312N
1215.249	0.273	1090451	ORIENT_START	n/a	n/a	-999	-999	n/a	n/a	n/a	n/a	7	[0, 0, 0]	-999	PAL1	0	R1312N
1215.522	0.647	1090724	ORIENT_END	n/a	n/a	-999	-999	n/a	n/a	n/a	n/a	7	[0, 0, 0]	-999	PAL1	0	R1312N
1216.169	0.001	1091371	REC_START	n/a	n/a	6	2	ROOT	n/a	ROOT	SOAP	7	[0, 0, 0]	-999	PAL1	0	R1312N
1216.17	4.0	1091372	PROBE_START	n/a	wordpools/wordpool_EN.txt	6	2	ROOT	n/a	ROOT	SOAP	7	[0, 0, 0]	-999	PAL1	0	R1312N
1219.07	1.137	1094273	REC_EVENT	2900.0	n/a	6	2	ROOT	<>	ROOT	SOAP	7	[0, 0, 0]	-999	PAL1	0	R1312N
1220.207	1.0	1095410	PROBE_END	n/a	n/a	6	2	ROOT	n/a	ROOT	SOAP	7	[0, 0, 0]	-999	PAL1	0	R1312N
1221.207	0.012	1096410	REC_END	n/a	n/a	6	2	ROOT	n/a	ROOT	SOAP	7	[0, 0, 0]	-999	PAL1	0	R1312N
1221.219	0.271	1096422	ORIENT_START	n/a	n/a	-999	-999	n/a	n/a	n/a	n/a	7	[0, 0, 0]	-999	PAL1	0	R1312N
1221.49	0.666	1096693	ORIENT_END	n/a	n/a	-999	-999	n/a	n/a	n/a	n/a	7	[0, 0, 0]	-999	PAL1	0	R1312N
1222.156	0.001	1097359	REC_START	n/a	n/a	3	3	APE	HAT	APE	HAT	7	[0, 0, 0]	-999	PAL1	0	R1312N
1222.157	4.0	1097360	PROBE_START	n/a	wordpools/wordpool_EN.txt	3	3	APE	HAT	APE	HAT	7	[0, 0, 0]	-999	PAL1	0	R1312N
1224.283	1.892	1099486	REC_EVENT	2126.0	n/a	3	3	APE	HAT	APE	HAT	7	[0, 0, 0]	-999	PAL1	0	R1312N
1226.175	1.0	1101378	PROBE_END	n/a	n/a	3	3	APE	n/a	APE	HAT	7	[0, 0, 0]	-999	PAL1	0	R1312N
1227.175	0.012	1102378	REC_END	n/a	n/a	3	3	APE	n/a	APE	HAT	7	[0, 0, 0]	-999	PAL1	0	R1312N
1227.187	0.271	1102390	ORIENT_START	n/a	n/a	-999	-999	n/a	n/a	n/a	n/a	7	[0, 0, 0]	-999	PAL1	0	R1312N
1227.458	0.67	1102661	ORIENT_END	n/a	n/a	-999	-999	n/a	n/a	n/a	n/a	7	[0, 0, 0]	-999	PAL1	0	R1312N
1228.128	0.0	1103331	REC_START	n/a	n/a	4	4	CLOTH	CALF	BAT	CLOTH	7	[0, 0, 0]	-999	PAL1	0	R1312N
1228.128	4.0	1103331	PROBE_START	n/a	wordpools/wordpool_EN.txt	4	4	CLOTH	CALF	BAT	CLOTH	7	[0, 0, 0]	-999	PAL1	0	R1312N
1231.498	0.662	1106701	REC_EVENT	3370.0	n/a	4	4	CLOTH	CALF	BAT	CLOTH	7	[0, 0, 0]	-999	PAL1	0	R1312N
1232.16	1.0	1107363	PROBE_END	n/a	n/a	4	4	CLOTH	n/a	BAT	CLOTH	7	[0, 0, 0]	-999	PAL1	0	R1312N
1233.16	0.011	1108363	REC_END	n/a	n/a	4	4	CLOTH	n/a	BAT	CLOTH	7	[0, 0, 0]	-999	PAL1	0	R1312N
1233.171	0.271	1108374	ORIENT_START	n/a	n/a	-999	-999	n/a	n/a	n/a	n/a	7	[0, 0, 0]	-999	PAL1	0	R1312N
1233.442	0.608	1108645	ORIENT_END	n/a	n/a	-999	-999	n/a	n/a	n/a	n/a	7	[0, 0, 0]	-999	PAL1	0	R1312N
1234.05	4.0	1109253	PROBE_START	n/a	wordpools/wordpool_EN.txt	5	5	ARM	BALL	BALL	ARM	7	[0, 0, 0]	-999	PAL1	0	R1312N
1234.05	2.847	1109253	REC_START	n/a	n/a	5	5	ARM	BALL	BALL	ARM	7	[0, 0, 0]	-999	PAL1	0	R1312N
1236.897	1.18	1112100	REC_EVENT	2847.0	n/a	5	5	ARM	BALL	BALL	ARM	7	[0, 0, 0]	-999	PAL1	0	R1312N
1238.077	1.001	1113280	PROBE_END	n/a	n/a	5	5	ARM	n/a	BALL	ARM	7	[0, 0, 0]	-999	PAL1	0	R1312N
1239.078	0.011	1114281	REC_END	n/a	n/a	5	5	ARM	n/a	BALL	ARM	7	[0, 0, 0]	-999	PAL1	0	R1312N
1239.089	0.271	1114292	ORIENT_START	n/a	n/a	-999	-999	n/a	n/a	n/a	n/a	7	[0, 0, 0]	-999	PAL1	0	R1312N
1239.36	0.542	1114563	ORIENT_END	n/a	n/a	-999	-999	n/a	n/a	n/a	n/a	7	[0, 0, 0]	-999	PAL1	0	R1312N
1239.902	0.001	1115105	REC_START	n/a	n/a	2	6	SLIME	FLUTE	SLIME	FLUTE	7	[0, 0, 0]	-999	PAL1	0	R1312N
1239.903	4.0	1115106	PROBE_START	n/a	wordpools/wordpool_EN.txt	2	6	SLIME	FLUTE	SLIME	FLUTE	7	[0, 0, 0]	-999	PAL1	0	R1312N
1242.136	1.792	1117339	REC_EVENT	2233.0	n/a	2	6	SLIME	FLUTE	SLIME	FLUTE	7	[0, 0, 0]	-999	PAL1	0	R1312N
1243.928	1.0	1119132	PROBE_END	n/a	n/a	2	6	SLIME	n/a	SLIME	FLUTE	7	[0, 0, 0]	-999	PAL1	0	R1312N
1244.928	0.01	1120132	REC_END	n/a	n/a	2	6	SLIME	n/a	SLIME	FLUTE	7	[0, 0, 0]	-999	PAL1	0	R1312N
1244.938	0.0	1120142	TRIAL_END	n/a	n/a	-999	-999	n/a	n/a	n/a	n/a	7	[0, 0, 0]	-999	PAL1	0	R1312N
1244.938	0.019	1120142	RETRIEVAL_END	n/a	n/a	-999	-999	n/a	n/a	n/a	n/a	7	[0, 0, 0]	-999	PAL1	0	R1312N
1244.957	0.0	1120161	TRIAL	n/a	n/a	-999	-999	n/a	n/a	n/a	n/a	8	[0, 0, 0]	-999	PAL1	0	R1312N
1244.957	0.0	1120161	WAITING_START	n/a	n/a	-999	-999	n/a	n/a	n/a	n/a	8	[0, 0, 0]	-999	PAL1	0	R1312N
1244.957	3.222	1120161	TRIAL_START	n/a	n/a	-999	-999	n/a	n/a	n/a	n/a	7	[0, 0, 0]	-999	PAL1	0	R1312N
1248.179	0.0	1123383	WAITING_END	n/a	n/a	-999	-999	n/a	n/a	n/a	n/a	8	[0, 0, 0]	-999	PAL1	0	R1312N
1248.179	10.0	1123383	COUNTDOWN_START	n/a	n/a	-999	-999	n/a	n/a	n/a	n/a	8	[0, 0, 0]	-999	PAL1	0	R1312N
1258.608	0.0	1133812	COUNTDOWN_END	n/a	n/a	-999	-999	n/a	n/a	n/a	n/a	8	[0, 0, 0]	-999	PAL1	0	R1312N
1258.608	0.573	1133812	ORIENT_START	n/a	n/a	-999	-999	n/a	n/a	n/a	n/a	8	[0, 0, 0]	-999	PAL1	0	R1312N
1259.181	0.0	1134385	ORIENT_END	n/a	n/a	-999	-999	n/a	n/a	n/a	n/a	8	[0, 0, 0]	-999	PAL1	0	R1312N
1259.181	1.167	1134385	ENCODING_START	n/a	n/a	-999	-999	n/a	n/a	n/a	n/a	8	[0, 0, 0]	-999	PAL1	0	R1312N
1260.348	4.0	1135552	STUDY_PAIR	n/a	wordpools/wordpool_EN.txt	1	-999	n/a	LAMB	LAMB	SPONGE	8	[0, 0, 0]	-999	PAL1	0	R1312N
1264.381	0.624	1139585	STUDY_PAIR_OFF	n/a	n/a	1	-999	n/a	LAMB	LAMB	SPONGE	8	[0, 0, 0]	-999	PAL1	0	R1312N
1265.005	4.0	1140209	STUDY_PAIR	n/a	wordpools/wordpool_EN.txt	2	-999	n/a	n/a	SQUARE	HORSE	8	[0, 0, 0]	-999	PAL1	0	R1312N
1269.032	0.671	1144236	STUDY_PAIR_OFF	n/a	n/a	2	-999	n/a	n/a	SQUARE	HORSE	8	[0, 0, 0]	-999	PAL1	0	R1312N
1269.703	4.0	1144907	STUDY_PAIR	n/a	wordpools/wordpool_EN.txt	3	-999	n/a	n/a	STREET	SHELL	8	[0, 0, 0]	-999	PAL1	0	R1312N
1273.732	0.601	1148937	STUDY_PAIR_OFF	n/a	n/a	3	-999	n/a	n/a	STREET	SHELL	8	[0, 0, 0]	-999	PAL1	0	R1312N
1274.333	4.0	1149538	STUDY_PAIR	n/a	wordpools/wordpool_EN.txt	4	-999	n/a	n/a	TIE	CANE	8	[0, 0, 0]	-999	PAL1	0	R1312N
1278.366	0.607	1153571	STUDY_PAIR_OFF	n/a	n/a	4	-999	n/a	n/a	TIE	CANE	8	[0, 0, 0]	-999	PAL1	0	R1312N
1278.973	4.0	1154178	STUDY_PAIR	n/a	wordpools/wordpool_EN.txt	5	-999	n/a	BOWL	EEL	BOWL	8	[0, 0, 0]	-999	PAL1	0	R1312N
1283.001	0.576	1158206	STUDY_PAIR_OFF	n/a	n/a	5	-999	n/a	BOWL	EEL	BOWL	8	[0, 0, 0]	-999	PAL1	0	R1312N
1283.577	4.0	1158782	STUDY_PAIR	n/a	wordpools/wordpool_EN.txt	6	-999	n/a	SKUNK	SKUNK	GOLD	8	[0, 0, 0]	-999	PAL1	0	R1312N
1287.601	0.001	1162806	STUDY_PAIR_OFF	n/a	n/a	6	-999	n/a	SKUNK	SKUNK	GOLD	8	[0, 0, 0]	-999	PAL1	0	R1312N
1287.602	0.0	1162807	ENCODING_END	n/a	n/a	-999	-999	n/a	n/a	n/a	n/a	8	[0, 0, 0]	-999	PAL1	0	R1312N
1287.602	0.0	1162807	MATH_START	n/a	n/a	-999	-999	n/a	n/a	n/a	n/a	8	[0, 0, 0]	-999	PAL1	0	R1312N
1287.602	0.016	1162807	START	n/a	n/a	-999	-999	n/a	n/a	n/a	n/a	8	[-999, -999, -999]	-999	PAL1	0	R1312N
1287.618	5.984	1162823	PROB	5951.0	n/a	-999	-999	n/a	n/a	n/a	n/a	8	[6, 1, 1]	8	PAL1	0	R1312N
1293.602	7.419	1168807	PROB	7385.0	n/a	-999	-999	n/a	n/a	n/a	n/a	8	[4, 2, 2]	8	PAL1	0	R1312N
1301.021	9.477	1176227	PROB	9477.0	n/a	-999	-999	n/a	n/a	n/a	n/a	8	[9, 7, 4]	20	PAL1	0	R1312N
1310.498	0.007	1185704	STOP	n/a	n/a	-999	-999	n/a	n/a	n/a	n/a	8	[-999, -999, -999]	-999	PAL1	0	R1312N
1310.505	0.516	1185711	MATH_END	n/a	n/a	-999	-999	n/a	n/a	n/a	n/a	8	[0, 0, 0]	-999	PAL1	0	R1312N
1311.021	0.002	1186227	RETRIEVAL_START	n/a	n/a	-999	-999	n/a	n/a	n/a	n/a	8	[0, 0, 0]	-999	PAL1	0	R1312N
1311.023	0.282	1186229	ORIENT_START	n/a	n/a	-999	-999	n/a	n/a	n/a	n/a	8	[0, 0, 0]	-999	PAL1	0	R1312N
1311.305	0.6	1186511	ORIENT_END	n/a	n/a	-999	-999	n/a	n/a	n/a	n/a	8	[0, 0, 0]	-999	PAL1	0	R1312N
1311.905	0.0	1187111	REC_START	n/a	n/a	1	1	SPONGE	LAMB	LAMB	SPONGE	8	[0, 0, 0]	-999	PAL1	0	R1312N
1311.905	4.0	1187111	PROBE_START	n/a	wordpools/wordpool_EN.txt	1	1	SPONGE	LAMB	LAMB	SPONGE	8	[0, 0, 0]	-999	PAL1	0	R1312N
1314.034	1.906	1189240	REC_EVENT	2129.0	n/a	1	1	SPONGE	LAB	LAMB	SPONGE	8	[0, 0, 0]	-999	PAL1	0	R1312N
1315.94	0.448	1191146	PROBE_END	n/a	n/a	1	1	SPONGE	n/a	LAMB	SPONGE	8	[0, 0, 0]	-999	PAL1	0	R1312N
1316.388	0.553	1191594	REC_EVENT	4483.0	n/a	1	1	SPONGE	LAMB	LAMB	SPONGE	8	[0, 0, 0]	-999	PAL1	0	R1312N
1316.941	0.011	1192147	REC_END	n/a	n/a	1	1	SPONGE	n/a	LAMB	SPONGE	8	[0, 0, 0]	-999	PAL1	0	R1312N
1316.952	0.271	1192158	ORIENT_START	n/a	n/a	-999	-999	n/a	n/a	n/a	n/a	8	[0, 0, 0]	-999	PAL1	0	R1312N
1317.223	0.612	1192429	ORIENT_END	n/a	n/a	-999	-999	n/a	n/a	n/a	n/a	8	[0, 0, 0]	-999	PAL1	0	R1312N
1317.835	0.001	1193041	REC_START	n/a	n/a	4	2	TIE	n/a	TIE	CANE	8	[0, 0, 0]	-999	PAL1	0	R1312N
1317.836	4.0	1193042	PROBE_START	n/a	wordpools/wordpool_EN.txt	4	2	TIE	n/a	TIE	CANE	8	[0, 0, 0]	-999	PAL1	0	R1312N
1321.722	0.152	1196928	REC_EVENT	3886.0	n/a	4	2	TIE	<>	TIE	CANE	8	[0, 0, 0]	-999	PAL1	0	R1312N
1321.874	1.0	1197080	PROBE_END	n/a	n/a	4	2	TIE	n/a	TIE	CANE	8	[0, 0, 0]	-999	PAL1	0	R1312N
1322.874	0.011	1198080	REC_END	n/a	n/a	4	2	TIE	n/a	TIE	CANE	8	[0, 0, 0]	-999	PAL1	0	R1312N
1322.885	0.273	1198091	ORIENT_START	n/a	n/a	-999	-999	n/a	n/a	n/a	n/a	8	[0, 0, 0]	-999	PAL1	0	R1312N
1323.158	0.618	1198364	ORIENT_END	n/a	n/a	-999	-999	n/a	n/a	n/a	n/a	8	[0, 0, 0]	-999	PAL1	0	R1312N
1323.776	4.0	1198982	PROBE_START	n/a	wordpools/wordpool_EN.txt	5	3	EEL	BOWL	EEL	BOWL	8	[0, 0, 0]	-999	PAL1	0	R1312N
1323.776	2.14	1198982	REC_START	n/a	n/a	5	3	EEL	BOWL	EEL	BOWL	8	[0, 0, 0]	-999	PAL1	0	R1312N
1325.916	1.892	1201123	REC_EVENT	2140.0	n/a	5	3	EEL	BOWL	EEL	BOWL	8	[0, 0, 0]	-999	PAL1	0	R1312N
1327.808	0.999	1203015	PROBE_END	n/a	n/a	5	3	EEL	n/a	EEL	BOWL	8	[0, 0, 0]	-999	PAL1	0	R1312N
1328.807	0.01	1204014	REC_END	n/a	n/a	5	3	EEL	n/a	EEL	BOWL	8	[0, 0, 0]	-999	PAL1	0	R1312N
1328.817	0.258	1204024	ORIENT_START	n/a	n/a	-999	-999	n/a	n/a	n/a	n/a	8	[0, 0, 0]	-999	PAL1	0	R1312N
1329.075	0.729	1204282	ORIENT_END	n/a	n/a	-999	-999	n/a	n/a	n/a	n/a	8	[0, 0, 0]	-999	PAL1	0	R1312N
1329.804	0.001	1205011	REC_START	n/a	n/a	2	4	HORSE	n/a	SQUARE	HORSE	8	[0, 0, 0]	-999	PAL1	0	R1312N
1329.805	4.0	1205012	PROBE_START	n/a	wordpools/wordpool_EN.txt	2	4	HORSE	n/a	SQUARE	HORSE	8	[0, 0, 0]	-999	PAL1	0	R1312N
1333.842	0.92	1209049	PROBE_END	n/a	n/a	2	4	HORSE	n/a	SQUARE	HORSE	8	[0, 0, 0]	-999	PAL1	0	R1312N
1334.762	0.08	1209969	REC_EVENT	4957.0	n/a	2	4	HORSE	<>	SQUARE	HORSE	8	[0, 0, 0]	-999	PAL1	0	R1312N
1334.842	0.013	1210049	REC_END	n/a	n/a	2	4	HORSE	n/a	SQUARE	HORSE	8	[0, 0, 0]	-999	PAL1	0	R1312N
1334.855	0.272	1210062	ORIENT_START	n/a	n/a	-999	-999	n/a	n/a	n/a	n/a	8	[0, 0, 0]	-999	PAL1	0	R1312N
1335.127	0.739	1210334	ORIENT_END	n/a	n/a	-999	-999	n/a	n/a	n/a	n/a	8	[0, 0, 0]	-999	PAL1	0	R1312N
1335.866	0.001	1211073	REC_START	n/a	n/a	3	5	STREET	n/a	STREET	SHELL	8	[0, 0, 0]	-999	PAL1	0	R1312N
1335.867	4.0	1211074	PROBE_START	n/a	wordpools/wordpool_EN.txt	3	5	STREET	n/a	STREET	SHELL	8	[0, 0, 0]	-999	PAL1	0	R1312N
1339.877	1.0	1215084	PROBE_END	n/a	n/a	3	5	STREET	n/a	STREET	SHELL	8	[0, 0, 0]	-999	PAL1	0	R1312N
1340.877	0.006	1216084	REC_END	n/a	n/a	3	5	STREET	n/a	STREET	SHELL	8	[0, 0, 0]	-999	PAL1	0	R1312N
1340.883	0.278	1216090	ORIENT_START	n/a	n/a	-999	-999	n/a	n/a	n/a	n/a	8	[0, 0, 0]	-999	PAL1	0	R1312N
1341.161	0.68	1216368	ORIENT_END	n/a	n/a	-999	-999	n/a	n/a	n/a	n/a	8	[0, 0, 0]	-999	PAL1	0	R1312N
1341.841	0.0	1217048	REC_START	n/a	n/a	6	6	GOLD	SKUNK	SKUNK	GOLD	8	[0, 0, 0]	-999	PAL1	0	R1312N
1341.841	4.0	1217048	PROBE_START	n/a	wordpools/wordpool_EN.txt	6	6	GOLD	SKUNK	SKUNK	GOLD	8	[0, 0, 0]	-999	PAL1	0	R1312N
1341.866	1.982	1217073	REC_EVENT	5999.0	n/a	3	5	STREET	<>	STREET	SHELL	8	[0, 0, 0]	-999	PAL1	0	R1312N
1343.848	2.03	1219055	REC_EVENT	2007.0	n/a	6	6	GOLD	SKUNK	SKUNK	GOLD	8	[0, 0, 0]	-999	PAL1	0	R1312N
1345.878	1.0	1221085	PROBE_END	n/a	n/a	6	6	GOLD	n/a	SKUNK	GOLD	8	[0, 0, 0]	-999	PAL1	0	R1312N
1346.878	0.011	1222085	REC_END	n/a	n/a	6	6	GOLD	n/a	SKUNK	GOLD	8	[0, 0, 0]	-999	PAL1	0	R1312N
1346.889	0.0	1222096	RETRIEVAL_END	n/a	n/a	-999	-999	n/a	n/a	n/a	n/a	8	[0, 0, 0]	-999	PAL1	0	R1312N
1346.889	0.019	1222096	TRIAL_END	n/a	n/a	-999	-999	n/a	n/a	n/a	n/a	8	[0, 0, 0]	-999	PAL1	0	R1312N
1346.908	0.0	1222115	WAITING_START	n/a	n/a	-999	-999	n/a	n/a	n/a	n/a	9	[0, 0, 0]	-999	PAL1	0	R1312N
1346.908	0.0	1222115	TRIAL_START	n/a	n/a	-999	-999	n/a	n/a	n/a	n/a	8	[0, 0, 0]	-999	PAL1	0	R1312N
1346.908	2.92	1222115	TRIAL	n/a	n/a	-999	-999	n/a	n/a	n/a	n/a	9	[0, 0, 0]	-999	PAL1	0	R1312N
1349.828	0.001	1225035	WAITING_END	n/a	n/a	-999	-999	n/a	n/a	n/a	n/a	9	[0, 0, 0]	-999	PAL1	0	R1312N
1349.829	10.0	1225036	COUNTDOWN_START	n/a	n/a	-999	-999	n/a	n/a	n/a	n/a	9	[0, 0, 0]	-999	PAL1	0	R1312N
1360.258	0.0	1235466	COUNTDOWN_END	n/a	n/a	-999	-999	n/a	n/a	n/a	n/a	9	[0, 0, 0]	-999	PAL1	0	R1312N
1360.258	0.539	1235466	ORIENT_START	n/a	n/a	-999	-999	n/a	n/a	n/a	n/a	9	[0, 0, 0]	-999	PAL1	0	R1312N
1360.797	0.0	1236005	ORIENT_END	n/a	n/a	-999	-999	n/a	n/a	n/a	n/a	9	[0, 0, 0]	-999	PAL1	0	R1312N
1360.797	1.006	1236005	ENCODING_START	n/a	n/a	-999	-999	n/a	n/a	n/a	n/a	9	[0, 0, 0]	-999	PAL1	0	R1312N
1361.803	4.0	1237011	STUDY_PAIR	n/a	wordpools/wordpool_EN.txt	1	-999	n/a	BRANCH	BRANCH	PARK	9	[0, 0, 0]	-999	PAL1	0	R1312N
1365.831	0.655	1241039	STUDY_PAIR_OFF	n/a	n/a	1	-999	n/a	BRANCH	BRANCH	PARK	9	[0, 0, 0]	-999	PAL1	0	R1312N
1366.486	4.0	1241694	STUDY_PAIR	n/a	wordpools/wordpool_EN.txt	2	-999	n/a	n/a	TRUCK	CLIFF	9	[0, 0, 0]	-999	PAL1	0	R1312N
1370.515	0.582	1245723	STUDY_PAIR_OFF	n/a	n/a	2	-999	n/a	n/a	TRUCK	CLIFF	9	[0, 0, 0]	-999	PAL1	0	R1312N
1371.097	4.0	1246305	STUDY_PAIR	n/a	wordpools/wordpool_EN.txt	3	-999	n/a	n/a	JAIL	NEST	9	[0, 0, 0]	-999	PAL1	0	R1312N
1375.133	0.558	1250341	STUDY_PAIR_OFF	n/a	n/a	3	-999	n/a	n/a	JAIL	NEST	9	[0, 0, 0]	-999	PAL1	0	R1312N
1375.691	4.0	1250899	STUDY_PAIR	n/a	wordpools/wordpool_EN.txt	4	-999	n/a	FLEA	JAR	FLEA	9	[0, 0, 0]	-999	PAL1	0	R1312N
1379.716	0.709	1254925	STUDY_PAIR_OFF	n/a	n/a	4	-999	n/a	FLEA	JAR	FLEA	9	[0, 0, 0]	-999	PAL1	0	R1312N
1380.425	4.0	1255634	STUDY_PAIR	n/a	wordpools/wordpool_EN.txt	5	-999	n/a	n/a	MAIL	DIME	9	[0, 0, 0]	-999	PAL1	0	R1312N
1384.45	0.523	1259659	STUDY_PAIR_OFF	n/a	n/a	5	-999	n/a	n/a	MAIL	DIME	9	[0, 0, 0]	-999	PAL1	0	R1312N
1384.973	4.0	1260182	STUDY_PAIR	n/a	wordpools/wordpool_EN.txt	6	-999	n/a	n/a	SUIT	PASTE	9	[0, 0, 0]	-999	PAL1	0	R1312N
1389.002	0.001	1264211	STUDY_PAIR_OFF	n/a	n/a	6	-999	n/a	n/a	SUIT	PASTE	9	[0, 0, 0]	-999	PAL1	0	R1312N
1389.003	0.0	1264212	ENCODING_END	n/a	n/a	-999	-999	n/a	n/a	n/a	n/a	9	[0, 0, 0]	-999	PAL1	0	R1312N
1389.003	0.0	1264212	MATH_START	n/a	n/a	-999	-999	n/a	n/a	n/a	n/a	9	[0, 0, 0]	-999	PAL1	0	R1312N
1389.003	0.016	1264212	START	n/a	n/a	-999	-999	n/a	n/a	n/a	n/a	9	[-999, -999, -999]	-999	PAL1	0	R1312N
1389.019	17.818	1264228	PROB	17782.0	n/a	-999	-999	n/a	n/a	n/a	n/a	9	[9, 9, 8]	27	PAL1	0	R1312N
1406.837	6.078	1282047	PROB	6078.0	n/a	-999	-999	n/a	n/a	n/a	n/a	9	[2, 1, 1]	4	PAL1	0	R1312N
1412.915	0.008	1288125	STOP	n/a	n/a	-999	-999	n/a	n/a	n/a	n/a	9	[-999, -999, -999]	-999	PAL1	0	R1312N
1412.923	0.665	1288133	MATH_END	n/a	n/a	-999	-999	n/a	n/a	n/a	n/a	9	[0, 0, 0]	-999	PAL1	0	R1312N
1413.588	0.001	1288798	RETRIEVAL_START	n/a	n/a	-999	-999	n/a	n/a	n/a	n/a	9	[0, 0, 0]	-999	PAL1	0	R1312N
1413.589	0.284	1288799	ORIENT_START	n/a	n/a	-999	-999	n/a	n/a	n/a	n/a	9	[0, 0, 0]	-999	PAL1	0	R1312N
1413.873	0.709	1289083	ORIENT_END	n/a	n/a	-999	-999	n/a	n/a	n/a	n/a	9	[0, 0, 0]	-999	PAL1	0	R1312N
1414.582	4.0	1289792	PROBE_START	n/a	wordpools/wordpool_EN.txt	5	1	MAIL	n/a	MAIL	DIME	9	[0, 0, 0]	-999	PAL1	0	R1312N
1414.582	3.879	1289792	REC_START	n/a	n/a	5	1	MAIL	n/a	MAIL	DIME	9	[0, 0, 0]	-999	PAL1	0	R1312N
1418.461	0.145	1293671	REC_EVENT	3879.0	n/a	5	1	MAIL	<>	MAIL	DIME	9	[0, 0, 0]	-999	PAL1	0	R1312N
1418.606	1.0	1293816	PROBE_END	n/a	n/a	5	1	MAIL	n/a	MAIL	DIME	9	[0, 0, 0]	-999	PAL1	0	R1312N
1419.606	0.012	1294816	REC_END	n/a	n/a	5	1	MAIL	n/a	MAIL	DIME	9	[0, 0, 0]	-999	PAL1	0	R1312N
1419.618	0.273	1294828	ORIENT_START	n/a	n/a	-999	-999	n/a	n/a	n/a	n/a	9	[0, 0, 0]	-999	PAL1	0	R1312N
1419.891	0.622	1295101	ORIENT_END	n/a	n/a	-999	-999	n/a	n/a	n/a	n/a	9	[0, 0, 0]	-999	PAL1	0	R1312N
1420.513	0.0	1295723	REC_START	n/a	n/a	6	2	PASTE	n/a	SUIT	PASTE	9	[0, 0, 0]	-999	PAL1	0	R1312N
1420.513	4.0	1295723	PROBE_START	n/a	wordpools/wordpool_EN.txt	6	2	PASTE	n/a	SUIT	PASTE	9	[0, 0, 0]	-999	PAL1	0	R1312N
1424.54	0.228	1299750	PROBE_END	n/a	n/a	6	2	PASTE	n/a	SUIT	PASTE	9	[0, 0, 0]	-999	PAL1	0	R1312N
1424.768	0.772	1299978	REC_EVENT	4255.0	n/a	6	2	PASTE	<>	SUIT	PASTE	9	[0, 0, 0]	-999	PAL1	0	R1312N
1425.54	0.011	1300750	REC_END	n/a	n/a	6	2	PASTE	n/a	SUIT	PASTE	9	[0, 0, 0]	-999	PAL1	0	R1312N
1425.551	0.273	1300761	ORIENT_START	n/a	n/a	-999	-999	n/a	n/a	n/a	n/a	9	[0, 0, 0]	-999	PAL1	0	R1312N
1425.824	0.738	1301034	ORIENT_END	n/a	n/a	-999	-999	n/a	n/a	n/a	n/a	9	[0, 0, 0]	-999	PAL1	0	R1312N
1426.562	4.0	1301772	PROBE_START	n/a	wordpools/wordpool_EN.txt	3	3	JAIL	n/a	JAIL	NEST	9	[0, 0, 0]	-999	PAL1	0	R1312N
1426.562	4.029	1301772	REC_START	n/a	n/a	3	3	JAIL	n/a	JAIL	NEST	9	[0, 0, 0]	-999	PAL1	0	R1312N
1430.591	1.001	1305801	PROBE_END	n/a	n/a	3	3	JAIL	n/a	JAIL	NEST	9	[0, 0, 0]	-999	PAL1	0	R1312N
1431.592	0.006	1306802	REC_END	n/a	n/a	3	3	JAIL	n/a	JAIL	NEST	9	[0, 0, 0]	-999	PAL1	0	R1312N
1431.598	0.278	1306808	ORIENT_START	n/a	n/a	-999	-999	n/a	n/a	n/a	n/a	9	[0, 0, 0]	-999	PAL1	0	R1312N
1431.876	0.706	1307086	ORIENT_END	n/a	n/a	-999	-999	n/a	n/a	n/a	n/a	9	[0, 0, 0]	-999	PAL1	0	R1312N
1432.582	0.001	1307792	REC_START	n/a	n/a	2	4	CLIFF	n/a	TRUCK	CLIFF	9	[0, 0, 0]	-999	PAL1	0	R1312N
1432.583	4.0	1307793	PROBE_START	n/a	wordpools/wordpool_EN.txt	2	4	CLIFF	n/a	TRUCK	CLIFF	9	[0, 0, 0]	-999	PAL1	0	R1312N
1432.599	4.01	1307809	REC_EVENT	6037.0	n/a	3	3	JAIL	<>	JAIL	NEST	9	[0, 0, 0]	-999	PAL1	0	R1312N
1436.609	0.266	1311820	PROBE_END	n/a	n/a	2	4	CLIFF	n/a	TRUCK	CLIFF	9	[0, 0, 0]	-999	PAL1	0	R1312N
1436.875	0.735	1312086	REC_EVENT	4292.0	n/a	2	4	CLIFF	<>	TRUCK	CLIFF	9	[0, 0, 0]	-999	PAL1	0	R1312N
1437.61	0.011	1312821	REC_END	n/a	n/a	2	4	CLIFF	n/a	TRUCK	CLIFF	9	[0, 0, 0]	-999	PAL1	0	R1312N
1437.621	0.273	1312832	ORIENT_START	n/a	n/a	-999	-999	n/a	n/a	n/a	n/a	9	[0, 0, 0]	-999	PAL1	0	R1312N
1437.894	0.746	1313105	ORIENT_END	n/a	n/a	-999	-999	n/a	n/a	n/a	n/a	9	[0, 0, 0]	-999	PAL1	0	R1312N
1438.64	0.0	1313851	REC_START	n/a	n/a	1	5	PARK	BRANCH	BRANCH	PARK	9	[0, 0, 0]	-999	PAL1	0	R1312N
1438.64	4.0	1313851	PROBE_START	n/a	wordpools/wordpool_EN.txt	1	5	PARK	BRANCH	BRANCH	PARK	9	[0, 0, 0]	-999	PAL1	0	R1312N
1440.858	1.819	1316069	REC_EVENT	2218.0	n/a	1	5	PARK	BRANCH	BRANCH	PARK	9	[0, 0, 0]	-999	PAL1	0	R1312N
1442.677	1.0	1317888	PROBE_END	n/a	n/a	1	5	PARK	n/a	BRANCH	PARK	9	[0, 0, 0]	-999	PAL1	0	R1312N
1443.677	0.006	1318888	REC_END	n/a	n/a	1	5	PARK	n/a	BRANCH	PARK	9	[0, 0, 0]	-999	PAL1	0	R1312N
1443.683	0.261	1318894	ORIENT_START	n/a	n/a	-999	-999	n/a	n/a	n/a	n/a	9	[0, 0, 0]	-999	PAL1	0	R1312N
1443.944	0.637	1319155	ORIENT_END	n/a	n/a	-999	-999	n/a	n/a	n/a	n/a	9	[0, 0, 0]	-999	PAL1	0	R1312N
1444.581	0.0	1319792	REC_START	n/a	n/a	4	6	JAR	FLEA	JAR	FLEA	9	[0, 0, 0]	-999	PAL1	0	R1312N
1444.581	4.0	1319792	PROBE_START	n/a	wordpools/wordpool_EN.txt	4	6	JAR	FLEA	JAR	FLEA	9	[0, 0, 0]	-999	PAL1	0	R1312N
1446.529	2.082	1321740	REC_EVENT	1948.0	n/a	4	6	JAR	FLEA	JAR	FLEA	9	[0, 0, 0]	-999	PAL1	0	R1312N
1448.611	1.0	1323822	PROBE_END	n/a	n/a	4	6	JAR	n/a	JAR	FLEA	9	[0, 0, 0]	-999	PAL1	0	R1312N
1449.611	0.01	1324822	REC_END	n/a	n/a	4	6	JAR	n/a	JAR	FLEA	9	[0, 0, 0]	-999	PAL1	0	R1312N
1449.621	0.0	1324832	RETRIEVAL_END	n/a	n/a	-999	-999	n/a	n/a	n/a	n/a	9	[0, 0, 0]	-999	PAL1	0	R1312N
1449.621	0.019	1324832	TRIAL_END	n/a	n/a	-999	-999	n/a	n/a	n/a	n/a	9	[0, 0, 0]	-999	PAL1	0	R1312N
1449.64	0.0	1324851	TRIAL_START	n/a	n/a	-999	-999	n/a	n/a	n/a	n/a	9	[0, 0, 0]	-999	PAL1	0	R1312N
1449.64	0.0	1324851	TRIAL	n/a	n/a	-999	-999	n/a	n/a	n/a	n/a	10	[0, 0, 0]	-999	PAL1	0	R1312N
1449.64	19.858	1324851	WAITING_START	n/a	n/a	-999	-999	n/a	n/a	n/a	n/a	10	[0, 0, 0]	-999	PAL1	0	R1312N
1469.498	10.0	1344710	COUNTDOWN_START	n/a	n/a	-999	-999	n/a	n/a	n/a	n/a	10	[0, 0, 0]	-999	PAL1	0	R1312N
1469.498	10.429	1344710	WAITING_END	n/a	n/a	-999	-999	n/a	n/a	n/a	n/a	10	[0, 0, 0]	-999	PAL1	0	R1312N
1479.927	0.0	1355139	COUNTDOWN_END	n/a	n/a	-999	-999	n/a	n/a	n/a	n/a	10	[0, 0, 0]	-999	PAL1	0	R1312N
1479.927	0.606	1355139	ORIENT_START	n/a	n/a	-999	-999	n/a	n/a	n/a	n/a	10	[0, 0, 0]	-999	PAL1	0	R1312N
1480.533	0.0	1355745	ORIENT_END	n/a	n/a	-999	-999	n/a	n/a	n/a	n/a	10	[0, 0, 0]	-999	PAL1	0	R1312N
1480.533	1.155	1355745	ENCODING_START	n/a	n/a	-999	-999	n/a	n/a	n/a	n/a	10	[0, 0, 0]	-999	PAL1	0	R1312N
1481.688	4.0	1356900	STUDY_PAIR	n/a	wordpools/wordpool_EN.txt	1	-999	n/a	n/a	TEETH	ANT	10	[0, 0, 0]	-999	PAL1	0	R1312N
1485.717	0.715	1360929	STUDY_PAIR_OFF	n/a	n/a	1	-999	n/a	n/a	TEETH	ANT	10	[0, 0, 0]	-999	PAL1	0	R1312N
1486.432	4.0	1361644	STUDY_PAIR	n/a	wordpools/wordpool_EN.txt	2	-999	n/a	PET	PET	ROAD	10	[0, 0, 0]	-999	PAL1	0	R1312N
1490.468	0.537	1365681	STUDY_PAIR_OFF	n/a	n/a	2	-999	n/a	PET	PET	ROAD	10	[0, 0, 0]	-999	PAL1	0	R1312N
1491.005	4.0	1366218	STUDY_PAIR	n/a	wordpools/wordpool_EN.txt	3	-999	n/a	CHIN	SCHOOL	CHIN	10	[0, 0, 0]	-999	PAL1	0	R1312N
1495.036	0.614	1370249	STUDY_PAIR_OFF	n/a	n/a	3	-999	n/a	CHIN	SCHOOL	CHIN	10	[0, 0, 0]	-999	PAL1	0	R1312N
1495.65	4.0	1370863	STUDY_PAIR	n/a	wordpools/wordpool_EN.txt	4	-999	n/a	KEY	KEY	WAVE	10	[0, 0, 0]	-999	PAL1	0	R1312N
1499.686	0.744	1374899	STUDY_PAIR_OFF	n/a	n/a	4	-999	n/a	KEY	KEY	WAVE	10	[0, 0, 0]	-999	PAL1	0	R1312N
1500.43	4.0	1375643	STUDY_PAIR	n/a	wordpools/wordpool_EN.txt	5	-999	n/a	n/a	MOON	OAR	10	[0, 0, 0]	-999	PAL1	0	R1312N
1504.47	0.531	1379683	STUDY_PAIR_OFF	n/a	n/a	5	-999	n/a	n/a	MOON	OAR	10	[0, 0, 0]	-999	PAL1	0	R1312N
1505.001	4.0	1380214	STUDY_PAIR	n/a	wordpools/wordpool_EN.txt	6	-999	n/a	n/a	CAPE	POOL	10	[0, 0, 0]	-999	PAL1	0	R1312N
1509.039	0.0	1384252	STUDY_PAIR_OFF	n/a	n/a	6	-999	n/a	n/a	CAPE	POOL	10	[0, 0, 0]	-999	PAL1	0	R1312N
1509.039	0.0	1384252	ENCODING_END	n/a	n/a	-999	-999	n/a	n/a	n/a	n/a	10	[0, 0, 0]	-999	PAL1	0	R1312N
1509.039	0.001	1384252	MATH_START	n/a	n/a	-999	-999	n/a	n/a	n/a	n/a	10	[0, 0, 0]	-999	PAL1	0	R1312N
1509.04	0.015	1384253	START	n/a	n/a	-999	-999	n/a	n/a	n/a	n/a	10	[-999, -999, -999]	-999	PAL1	0	R1312N
1509.055	9.267	1384268	PROB	9234.0	n/a	-999	-999	n/a	n/a	n/a	n/a	10	[6, 4, 4]	12	PAL1	0	R1312N
1518.322	10.119	1393536	PROB	10087.0	n/a	-999	-999	n/a	n/a	n/a	n/a	10	[7, 4, 1]	11	PAL1	0	R1312N
1528.441	8.328	1403655	PROB	8328.0	n/a	-999	-999	n/a	n/a	n/a	n/a	10	[1, 3, 7]	11	PAL1	0	R1312N
1536.769	0.006	1411983	STOP	n/a	n/a	-999	-999	n/a	n/a	n/a	n/a	10	[-999, -999, -999]	-999	PAL1	0	R1312N
1536.775	0.517	1411989	MATH_END	n/a	n/a	-999	-999	n/a	n/a	n/a	n/a	10	[0, 0, 0]	-999	PAL1	0	R1312N
1537.292	0.002	1412506	RETRIEVAL_START	n/a	n/a	-999	-999	n/a	n/a	n/a	n/a	10	[0, 0, 0]	-999	PAL1	0	R1312N
1537.294	0.282	1412508	ORIENT_START	n/a	n/a	-999	-999	n/a	n/a	n/a	n/a	10	[0, 0, 0]	-999	PAL1	0	R1312N
1537.576	0.713	1412790	ORIENT_END	n/a	n/a	-999	-999	n/a	n/a	n/a	n/a	10	[0, 0, 0]	-999	PAL1	0	R1312N
1538.289	0.001	1413503	REC_START	n/a	n/a	1	1	TEETH	n/a	TEETH	ANT	10	[0, 0, 0]	-999	PAL1	0	R1312N
1538.29	4.0	1413504	PROBE_START	n/a	wordpools/wordpool_EN.txt	1	1	TEETH	n/a	TEETH	ANT	10	[0, 0, 0]	-999	PAL1	0	R1312N
1542.327	0.812	1417541	PROBE_END	n/a	n/a	1	1	TEETH	n/a	TEETH	ANT	10	[0, 0, 0]	-999	PAL1	0	R1312N
1543.139	0.187	1418354	REC_EVENT	4849.0	n/a	1	1	TEETH	<>	TEETH	ANT	10	[0, 0, 0]	-999	PAL1	0	R1312N
1543.326	0.012	1418541	REC_END	n/a	n/a	1	1	TEETH	n/a	TEETH	ANT	10	[0, 0, 0]	-999	PAL1	0	R1312N
1543.338	0.272	1418553	ORIENT_START	n/a	n/a	-999	-999	n/a	n/a	n/a	n/a	10	[0, 0, 0]	-999	PAL1	0	R1312N
1543.61	0.662	1418825	ORIENT_END	n/a	n/a	-999	-999	n/a	n/a	n/a	n/a	10	[0, 0, 0]	-999	PAL1	0	R1312N
1544.272	0.001	1419487	REC_START	n/a	n/a	6	2	CAPE	n/a	CAPE	POOL	10	[0, 0, 0]	-999	PAL1	0	R1312N
1544.273	4.0	1419488	PROBE_START	n/a	wordpools/wordpool_EN.txt	6	2	CAPE	n/a	CAPE	POOL	10	[0, 0, 0]	-999	PAL1	0	R1312N
1548.311	1.001	1423526	PROBE_END	n/a	n/a	6	2	CAPE	n/a	CAPE	POOL	10	[0, 0, 0]	-999	PAL1	0	R1312N
1549.312	0.01	1424527	REC_END	n/a	n/a	6	2	CAPE	n/a	CAPE	POOL	10	[0, 0, 0]	-999	PAL1	0	R1312N
1549.322	0.272	1424537	ORIENT_START	n/a	n/a	-999	-999	n/a	n/a	n/a	n/a	10	[0, 0, 0]	-999	PAL1	0	R1312N
1549.594	0.551	1424809	ORIENT_END	n/a	n/a	-999	-999	n/a	n/a	n/a	n/a	10	[0, 0, 0]	-999	PAL1	0	R1312N
1550.145	0.0	1425360	REC_START	n/a	n/a	5	3	OAR	n/a	MOON	OAR	10	[0, 0, 0]	-999	PAL1	0	R1312N
1550.145	4.0	1425360	PROBE_START	n/a	wordpools/wordpool_EN.txt	5	3	OAR	n/a	MOON	OAR	10	[0, 0, 0]	-999	PAL1	0	R1312N
1550.221	2.901	1425436	REC_EVENT	5948.0	n/a	6	2	CAPE	<>	CAPE	POOL	10	[0, 0, 0]	-999	PAL1	0	R1312N
1553.122	1.057	1428337	REC_EVENT	2977.0	n/a	5	3	OAR	<>	MOON	OAR	10	[0, 0, 0]	-999	PAL1	0	R1312N
1554.179	1.001	1429394	PROBE_END	n/a	n/a	5	3	OAR	n/a	MOON	OAR	10	[0, 0, 0]	-999	PAL1	0	R1312N
1555.18	0.012	1430395	REC_END	n/a	n/a	5	3	OAR	n/a	MOON	OAR	10	[0, 0, 0]	-999	PAL1	0	R1312N
1555.192	0.27	1430407	ORIENT_START	n/a	n/a	-999	-999	n/a	n/a	n/a	n/a	10	[0, 0, 0]	-999	PAL1	0	R1312N
1555.462	0.596	1430677	ORIENT_END	n/a	n/a	-999	-999	n/a	n/a	n/a	n/a	10	[0, 0, 0]	-999	PAL1	0	R1312N
1556.058	0.0	1431273	REC_START	n/a	n/a	2	4	ROAD	PET	PET	ROAD	10	[0, 0, 0]	-999	PAL1	0	R1312N
1556.058	4.0	1431273	PROBE_START	n/a	wordpools/wordpool_EN.txt	2	4	ROAD	PET	PET	ROAD	10	[0, 0, 0]	-999	PAL1	0	R1312N
1557.878	2.219	1433093	REC_EVENT	1820.0	n/a	2	4	ROAD	PET	PET	ROAD	10	[0, 0, 0]	-999	PAL1	0	R1312N
1560.097	1.001	1435312	PROBE_END	n/a	n/a	2	4	ROAD	n/a	PET	ROAD	10	[0, 0, 0]	-999	PAL1	0	R1312N
1561.098	0.01	1436313	REC_END	n/a	n/a	2	4	ROAD	n/a	PET	ROAD	10	[0, 0, 0]	-999	PAL1	0	R1312N
1561.108	0.272	1436323	ORIENT_START	n/a	n/a	-999	-999	n/a	n/a	n/a	n/a	10	[0, 0, 0]	-999	PAL1	0	R1312N
1561.38	0.582	1436595	ORIENT_END	n/a	n/a	-999	-999	n/a	n/a	n/a	n/a	10	[0, 0, 0]	-999	PAL1	0	R1312N
1561.962	0.001	1437177	REC_START	n/a	n/a	3	5	SCHOOL	CHIN	SCHOOL	CHIN	10	[0, 0, 0]	-999	PAL1	0	R1312N
1561.963	4.0	1437178	PROBE_START	n/a	wordpools/wordpool_EN.txt	3	5	SCHOOL	CHIN	SCHOOL	CHIN	10	[0, 0, 0]	-999	PAL1	0	R1312N
1564.054	1.944	1439269	REC_EVENT	2091.0	n/a	3	5	SCHOOL	CHIN	SCHOOL	CHIN	10	[0, 0, 0]	-999	PAL1	0	R1312N
1565.998	1.0	1441213	PROBE_END	n/a	n/a	3	5	SCHOOL	n/a	SCHOOL	CHIN	10	[0, 0, 0]	-999	PAL1	0	R1312N
1566.998	0.012	1442213	REC_END	n/a	n/a	3	5	SCHOOL	n/a	SCHOOL	CHIN	10	[0, 0, 0]	-999	PAL1	0	R1312N
1567.01	0.271	1442225	ORIENT_START	n/a	n/a	-999	-999	n/a	n/a	n/a	n/a	10	[0, 0, 0]	-999	PAL1	0	R1312N
1567.281	0.499	1442496	ORIENT_END	n/a	n/a	-999	-999	n/a	n/a	n/a	n/a	10	[0, 0, 0]	-999	PAL1	0	R1312N
1567.78	0.001	1442995	REC_START	n/a	n/a	4	6	WAVE	KEY	KEY	WAVE	10	[0, 0, 0]	-999	PAL1	0	R1312N
1567.781	4.0	1442996	PROBE_START	n/a	wordpools/wordpool_EN.txt	4	6	WAVE	KEY	KEY	WAVE	10	[0, 0, 0]	-999	PAL1	0	R1312N
1571.815	0.257	1447031	PROBE_END	n/a	n/a	4	6	WAVE	n/a	KEY	WAVE	10	[0, 0, 0]	-999	PAL1	0	R1312N
1572.072	0.742	1447288	REC_EVENT	4291.0	n/a	4	6	WAVE	KEY	KEY	WAVE	10	[0, 0, 0]	-999	PAL1	0	R1312N
1572.814	0.01	1448030	REC_END	n/a	n/a	4	6	WAVE	n/a	KEY	WAVE	10	[0, 0, 0]	-999	PAL1	0	R1312N
1572.824	0.0	1448040	RETRIEVAL_END	n/a	n/a	-999	-999	n/a	n/a	n/a	n/a	10	[0, 0, 0]	-999	PAL1	0	R1312N
1572.824	0.019	1448040	TRIAL_END	n/a	n/a	-999	-999	n/a	n/a	n/a	n/a	10	[0, 0, 0]	-999	PAL1	0	R1312N
1572.843	0.0	1448059	TRIAL_START	n/a	n/a	-999	-999	n/a	n/a	n/a	n/a	10	[0, 0, 0]	-999	PAL1	0	R1312N
1572.843	0.0	1448059	TRIAL	n/a	n/a	-999	-999	n/a	n/a	n/a	n/a	11	[0, 0, 0]	-999	PAL1	0	R1312N
1572.843	5.59	1448059	WAITING_START	n/a	n/a	-999	-999	n/a	n/a	n/a	n/a	11	[0, 0, 0]	-999	PAL1	0	R1312N
1578.433	10.0	1453649	COUNTDOWN_START	n/a	n/a	-999	-999	n/a	n/a	n/a	n/a	11	[0, 0, 0]	-999	PAL1	0	R1312N
1578.433	10.429	1453649	WAITING_END	n/a	n/a	-999	-999	n/a	n/a	n/a	n/a	11	[0, 0, 0]	-999	PAL1	0	R1312N
1588.862	0.001	1464078	COUNTDOWN_END	n/a	n/a	-999	-999	n/a	n/a	n/a	n/a	11	[0, 0, 0]	-999	PAL1	0	R1312N
1588.863	0.671	1464079	ORIENT_START	n/a	n/a	-999	-999	n/a	n/a	n/a	n/a	11	[0, 0, 0]	-999	PAL1	0	R1312N
1589.534	0.001	1464750	ORIENT_END	n/a	n/a	-999	-999	n/a	n/a	n/a	n/a	11	[0, 0, 0]	-999	PAL1	0	R1312N
1589.535	1.05	1464751	ENCODING_START	n/a	n/a	-999	-999	n/a	n/a	n/a	n/a	11	[0, 0, 0]	-999	PAL1	0	R1312N
1590.585	4.0	1465801	STUDY_PAIR	n/a	wordpools/wordpool_EN.txt	1	-999	n/a	SPEAR	SPEAR	DUCK	11	[0, 0, 0]	-999	PAL1	0	R1312N
1594.618	0.623	1469834	STUDY_PAIR_OFF	n/a	n/a	1	-999	n/a	SPEAR	SPEAR	DUCK	11	[0, 0, 0]	-999	PAL1	0	R1312N
1595.241	4.0	1470457	STUDY_PAIR	n/a	wordpools/wordpool_EN.txt	2	-999	n/a	STEAK	FOOT	STEAK	11	[0, 0, 0]	-999	PAL1	0	R1312N
1599.269	0.71	1474486	STUDY_PAIR_OFF	n/a	n/a	2	-999	n/a	STEAK	FOOT	STEAK	11	[0, 0, 0]	-999	PAL1	0	R1312N
1599.979	4.0	1475196	STUDY_PAIR	n/a	wordpools/wordpool_EN.txt	3	-999	n/a	n/a	BOOT	CAT	11	[0, 0, 0]	-999	PAL1	0	R1312N
1604.004	0.53	1479221	STUDY_PAIR_OFF	n/a	n/a	3	-999	n/a	n/a	BOOT	CAT	11	[0, 0, 0]	-999	PAL1	0	R1312N
1604.534	4.0	1479751	STUDY_PAIR	n/a	wordpools/wordpool_EN.txt	4	-999	n/a	DOLL	FENCE	DOLL	11	[0, 0, 0]	-999	PAL1	0	R1312N
1608.571	0.75	1483788	STUDY_PAIR_OFF	n/a	n/a	4	-999	n/a	DOLL	FENCE	DOLL	11	[0, 0, 0]	-999	PAL1	0	R1312N
1609.321	4.0	1484538	STUDY_PAIR	n/a	wordpools/wordpool_EN.txt	5	-999	n/a	SMOKE	SMOKE	BARN	11	[0, 0, 0]	-999	PAL1	0	R1312N
1613.355	0.613	1488572	STUDY_PAIR_OFF	n/a	n/a	5	-999	n/a	SMOKE	SMOKE	BARN	11	[0, 0, 0]	-999	PAL1	0	R1312N
1613.968	4.0	1489185	STUDY_PAIR	n/a	wordpools/wordpool_EN.txt	6	-999	n/a	STICK	LAWN	STICK	11	[0, 0, 0]	-999	PAL1	0	R1312N
1618.007	0.0	1493224	STUDY_PAIR_OFF	n/a	n/a	6	-999	n/a	STICK	LAWN	STICK	11	[0, 0, 0]	-999	PAL1	0	R1312N
1618.007	0.001	1493224	ENCODING_END	n/a	n/a	-999	-999	n/a	n/a	n/a	n/a	11	[0, 0, 0]	-999	PAL1	0	R1312N
1618.008	0.0	1493225	MATH_START	n/a	n/a	-999	-999	n/a	n/a	n/a	n/a	11	[0, 0, 0]	-999	PAL1	0	R1312N
1618.008	0.015	1493225	START	n/a	n/a	-999	-999	n/a	n/a	n/a	n/a	11	[-999, -999, -999]	-999	PAL1	0	R1312N
1618.023	7.968	1493240	PROB	7940.0	n/a	-999	-999	n/a	n/a	n/a	n/a	11	[5, 7, 3]	15	PAL1	0	R1312N
1625.991	8.584	1501209	PROB	8547.0	n/a	-999	-999	n/a	n/a	n/a	n/a	11	[6, 3, 4]	13	PAL1	0	R1312N
1634.575	17.38	1509793	PROB	17380.0	n/a	-999	-999	n/a	n/a	n/a	n/a	11	[8, 9, 6]	23	PAL1	0	R1312N
1651.955	0.007	1527174	STOP	n/a	n/a	-999	-999	n/a	n/a	n/a	n/a	11	[-999, -999, -999]	-999	PAL1	0	R1312N
1651.962	0.602	1527181	MATH_END	n/a	n/a	-999	-999	n/a	n/a	n/a	n/a	11	[0, 0, 0]	-999	PAL1	0	R1312N
1652.564	0.002	1527783	RETRIEVAL_START	n/a	n/a	-999	-999	n/a	n/a	n/a	n/a	11	[0, 0, 0]	-999	PAL1	0	R1312N
1652.566	0.279	1527785	ORIENT_START	n/a	n/a	-999	-999	n/a	n/a	n/a	n/a	11	[0, 0, 0]	-999	PAL1	0	R1312N
1652.845	0.693	1528064	ORIENT_END	n/a	n/a	-999	-999	n/a	n/a	n/a	n/a	11	[0, 0, 0]	-999	PAL1	0	R1312N
1653.538	0.0	1528757	REC_START	n/a	n/a	1	1	DUCK	SPEAR	SPEAR	DUCK	11	[0, 0, 0]	-999	PAL1	0	R1312N
1653.538	4.0	1528757	PROBE_START	n/a	wordpools/wordpool_EN.txt	1	1	DUCK	SPEAR	SPEAR	DUCK	11	[0, 0, 0]	-999	PAL1	0	R1312N
1655.425	2.137	1530644	REC_EVENT	1887.0	n/a	1	1	DUCK	SPEAR	SPEAR	DUCK	11	[0, 0, 0]	-999	PAL1	0	R1312N
1657.562	1.0	1532781	PROBE_END	n/a	n/a	1	1	DUCK	n/a	SPEAR	DUCK	11	[0, 0, 0]	-999	PAL1	0	R1312N
1658.562	0.012	1533781	REC_END	n/a	n/a	1	1	DUCK	n/a	SPEAR	DUCK	11	[0, 0, 0]	-999	PAL1	0	R1312N
1658.574	0.272	1533793	ORIENT_START	n/a	n/a	-999	-999	n/a	n/a	n/a	n/a	11	[0, 0, 0]	-999	PAL1	0	R1312N
1658.846	0.627	1534065	ORIENT_END	n/a	n/a	-999	-999	n/a	n/a	n/a	n/a	11	[0, 0, 0]	-999	PAL1	0	R1312N
1659.473	0.0	1534692	REC_START	n/a	n/a	2	2	FOOT	STEAK	FOOT	STEAK	11	[0, 0, 0]	-999	PAL1	0	R1312N
1659.473	4.0	1534692	PROBE_START	n/a	wordpools/wordpool_EN.txt	2	2	FOOT	STEAK	FOOT	STEAK	11	[0, 0, 0]	-999	PAL1	0	R1312N
1661.949	1.547	1537168	REC_EVENT	2476.0	n/a	2	2	FOOT	STEAK	FOOT	STEAK	11	[0, 0, 0]	-999	PAL1	0	R1312N
1663.496	1.0	1538715	PROBE_END	n/a	n/a	2	2	FOOT	n/a	FOOT	STEAK	11	[0, 0, 0]	-999	PAL1	0	R1312N
1664.496	0.012	1539715	REC_END	n/a	n/a	2	2	FOOT	n/a	FOOT	STEAK	11	[0, 0, 0]	-999	PAL1	0	R1312N
1664.508	0.272	1539727	ORIENT_START	n/a	n/a	-999	-999	n/a	n/a	n/a	n/a	11	[0, 0, 0]	-999	PAL1	0	R1312N
1664.78	0.679	1539999	ORIENT_END	n/a	n/a	-999	-999	n/a	n/a	n/a	n/a	11	[0, 0, 0]	-999	PAL1	0	R1312N
1665.459	0.0	1540678	REC_START	n/a	n/a	5	3	BARN	SMOKE	SMOKE	BARN	11	[0, 0, 0]	-999	PAL1	0	R1312N
1665.459	4.0	1540678	PROBE_START	n/a	wordpools/wordpool_EN.txt	5	3	BARN	SMOKE	SMOKE	BARN	11	[0, 0, 0]	-999	PAL1	0	R1312N
1667.485	2.012	1542704	REC_EVENT	2026.0	n/a	5	3	BARN	SMOKE	SMOKE	BARN	11	[0, 0, 0]	-999	PAL1	0	R1312N
1669.497	1.006	1544716	PROBE_END	n/a	n/a	5	3	BARN	n/a	SMOKE	BARN	11	[0, 0, 0]	-999	PAL1	0	R1312N
1670.503	0.011	1545722	REC_END	n/a	n/a	5	3	BARN	n/a	SMOKE	BARN	11	[0, 0, 0]	-999	PAL1	0	R1312N
1670.514	0.284	1545733	ORIENT_START	n/a	n/a	-999	-999	n/a	n/a	n/a	n/a	11	[0, 0, 0]	-999	PAL1	0	R1312N
1670.798	0.653	1546017	ORIENT_END	n/a	n/a	-999	-999	n/a	n/a	n/a	n/a	11	[0, 0, 0]	-999	PAL1	0	R1312N
1671.451	0.001	1546670	REC_START	n/a	n/a	6	4	LAWN	STICK	LAWN	STICK	11	[0, 0, 0]	-999	PAL1	0	R1312N
1671.452	4.0	1546671	PROBE_START	n/a	wordpools/wordpool_EN.txt	6	4	LAWN	STICK	LAWN	STICK	11	[0, 0, 0]	-999	PAL1	0	R1312N
1673.723	1.759	1548942	REC_EVENT	2271.0	n/a	6	4	LAWN	STICK	LAWN	STICK	11	[0, 0, 0]	-999	PAL1	0	R1312N
1675.482	1.0	1550701	PROBE_END	n/a	n/a	6	4	LAWN	n/a	LAWN	STICK	11	[0, 0, 0]	-999	PAL1	0	R1312N
1676.482	0.012	1551701	REC_END	n/a	n/a	6	4	LAWN	n/a	LAWN	STICK	11	[0, 0, 0]	-999	PAL1	0	R1312N
1676.494	0.271	1551713	ORIENT_START	n/a	n/a	-999	-999	n/a	n/a	n/a	n/a	11	[0, 0, 0]	-999	PAL1	0	R1312N
1676.765	0.609	1551984	ORIENT_END	n/a	n/a	-999	-999	n/a	n/a	n/a	n/a	11	[0, 0, 0]	-999	PAL1	0	R1312N
1677.374	0.001	1552593	REC_START	n/a	n/a	3	5	CAT	n/a	BOOT	CAT	11	[0, 0, 0]	-999	PAL1	0	R1312N
1677.375	4.0	1552594	PROBE_START	n/a	wordpools/wordpool_EN.txt	3	5	CAT	n/a	BOOT	CAT	11	[0, 0, 0]	-999	PAL1	0	R1312N
1680.903	0.496	1556123	REC_EVENT	3528.0	n/a	3	5	CAT	<>	BOOT	CAT	11	[0, 0, 0]	-999	PAL1	0	R1312N
1681.399	1.0	1556619	PROBE_END	n/a	n/a	3	5	CAT	n/a	BOOT	CAT	11	[0, 0, 0]	-999	PAL1	0	R1312N
1682.399	0.012	1557619	REC_END	n/a	n/a	3	5	CAT	n/a	BOOT	CAT	11	[0, 0, 0]	-999	PAL1	0	R1312N
1682.411	0.272	1557631	ORIENT_START	n/a	n/a	-999	-999	n/a	n/a	n/a	n/a	11	[0, 0, 0]	-999	PAL1	0	R1312N
1682.683	0.581	1557903	ORIENT_END	n/a	n/a	-999	-999	n/a	n/a	n/a	n/a	11	[0, 0, 0]	-999	PAL1	0	R1312N
1683.264	0.0	1558484	REC_START	n/a	n/a	4	6	FENCE	DOLL	FENCE	DOLL	11	[0, 0, 0]	-999	PAL1	0	R1312N
1683.264	4.0	1558484	PROBE_START	n/a	wordpools/wordpool_EN.txt	4	6	FENCE	DOLL	FENCE	DOLL	11	[0, 0, 0]	-999	PAL1	0	R1312N
1685.506	1.794	1560726	REC_EVENT	2242.0	n/a	4	6	FENCE	DOLL	FENCE	DOLL	11	[0, 0, 0]	-999	PAL1	0	R1312N
1687.3	1.001	1562520	PROBE_END	n/a	n/a	4	6	FENCE	n/a	FENCE	DOLL	11	[0, 0, 0]	-999	PAL1	0	R1312N
1688.301	0.009	1563521	REC_END	n/a	n/a	4	6	FENCE	n/a	FENCE	DOLL	11	[0, 0, 0]	-999	PAL1	0	R1312N
1688.31	0.0	1563530	RETRIEVAL_END	n/a	n/a	-999	-999	n/a	n/a	n/a	n/a	11	[0, 0, 0]	-999	PAL1	0	R1312N
1688.31	0.02	1563530	TRIAL_END	n/a	n/a	-999	-999	n/a	n/a	n/a	n/a	11	[0, 0, 0]	-999	PAL1	0	R1312N
1688.33	0.0	1563550	TRIAL_START	n/a	n/a	-999	-999	n/a	n/a	n/a	n/a	11	[0, 0, 0]	-999	PAL1	0	R1312N
1688.33	0.0	1563550	TRIAL	n/a	n/a	-999	-999	n/a	n/a	n/a	n/a	12	[0, 0, 0]	-999	PAL1	0	R1312N
1688.33	2.755	1563550	WAITING_START	n/a	n/a	-999	-999	n/a	n/a	n/a	n/a	12	[0, 0, 0]	-999	PAL1	0	R1312N
1691.085	0.001	1566305	WAITING_END	n/a	n/a	-999	-999	n/a	n/a	n/a	n/a	12	[0, 0, 0]	-999	PAL1	0	R1312N
1691.086	10.0	1566306	COUNTDOWN_START	n/a	n/a	-999	-999	n/a	n/a	n/a	n/a	12	[0, 0, 0]	-999	PAL1	0	R1312N
1701.515	0.001	1576735	COUNTDOWN_END	n/a	n/a	-999	-999	n/a	n/a	n/a	n/a	12	[0, 0, 0]	-999	PAL1	0	R1312N
1701.516	0.621	1576736	ORIENT_START	n/a	n/a	-999	-999	n/a	n/a	n/a	n/a	12	[0, 0, 0]	-999	PAL1	0	R1312N
1702.137	0.001	1577357	ORIENT_END	n/a	n/a	-999	-999	n/a	n/a	n/a	n/a	12	[0, 0, 0]	-999	PAL1	0	R1312N
1702.138	1.0	1577358	ENCODING_START	n/a	n/a	-999	-999	n/a	n/a	n/a	n/a	12	[0, 0, 0]	-999	PAL1	0	R1312N
1703.138	4.0	1578358	STUDY_PAIR	n/a	wordpools/wordpool_EN.txt	1	-999	n/a	n/a	CRANE	PIPE	12	[0, 0, 0]	-999	PAL1	0	R1312N
1707.171	0.663	1582392	STUDY_PAIR_OFF	n/a	n/a	1	-999	n/a	n/a	CRANE	PIPE	12	[0, 0, 0]	-999	PAL1	0	R1312N
1707.834	4.0	1583055	STUDY_PAIR	n/a	wordpools/wordpool_EN.txt	2	-999	n/a	EAR	INK	EAR	12	[0, 0, 0]	-999	PAL1	0	R1312N
1711.872	0.712	1587093	STUDY_PAIR_OFF	n/a	n/a	2	-999	n/a	EAR	INK	EAR	12	[0, 0, 0]	-999	PAL1	0	R1312N
1712.584	4.0	1587805	STUDY_PAIR	n/a	wordpools/wordpool_EN.txt	3	-999	n/a	BEAR	CHALK	BEAR	12	[0, 0, 0]	-999	PAL1	0	R1312N
1716.622	0.517	1591843	STUDY_PAIR_OFF	n/a	n/a	3	-999	n/a	BEAR	CHALK	BEAR	12	[0, 0, 0]	-999	PAL1	0	R1312N
1717.139	4.0	1592360	STUDY_PAIR	n/a	wordpools/wordpool_EN.txt	4	-999	n/a	SUN	SUN	STAIR	12	[0, 0, 0]	-999	PAL1	0	R1312N
1721.174	0.52	1596395	STUDY_PAIR_OFF	n/a	n/a	4	-999	n/a	SUN	SUN	STAIR	12	[0, 0, 0]	-999	PAL1	0	R1312N
1721.694	4.0	1596915	STUDY_PAIR	n/a	wordpools/wordpool_EN.txt	5	-999	n/a	HORSE	HOUSE	HORN	12	[0, 0, 0]	-999	PAL1	0	R1312N
1725.723	0.641	1600944	STUDY_PAIR_OFF	n/a	n/a	5	-999	n/a	HORSE	HOUSE	HORN	12	[0, 0, 0]	-999	PAL1	0	R1312N
1726.364	4.0	1601585	STUDY_PAIR	n/a	wordpools/wordpool_EN.txt	6	-999	n/a	GUARD	PANTS	GUARD	12	[0, 0, 0]	-999	PAL1	0	R1312N
1730.374	0.001	1605595	STUDY_PAIR_OFF	n/a	n/a	6	-999	n/a	GUARD	PANTS	GUARD	12	[0, 0, 0]	-999	PAL1	0	R1312N
1730.375	0.0	1605596	ENCODING_END	n/a	n/a	-999	-999	n/a	n/a	n/a	n/a	12	[0, 0, 0]	-999	PAL1	0	R1312N
1730.375	0.0	1605596	MATH_START	n/a	n/a	-999	-999	n/a	n/a	n/a	n/a	12	[0, 0, 0]	-999	PAL1	0	R1312N
1730.375	0.016	1605596	START	n/a	n/a	-999	-999	n/a	n/a	n/a	n/a	12	[-999, -999, -999]	-999	PAL1	0	R1312N
1730.391	4.184	1605612	PROB	4147.0	n/a	-999	-999	n/a	n/a	n/a	n/a	12	[3, 3, 5]	11	PAL1	0	R1312N
1734.575	9.651	1609797	PROB	9618.0	n/a	-999	-999	n/a	n/a	n/a	n/a	12	[8, 9, 3]	20	PAL1	0	R1312N
1744.226	7.216	1619448	PROB	7216.0	n/a	-999	-999	n/a	n/a	n/a	n/a	12	[1, 3, 4]	8	PAL1	0	R1312N
1751.442	0.019	1626664	STOP	n/a	n/a	-999	-999	n/a	n/a	n/a	n/a	12	[-999, -999, -999]	-999	PAL1	0	R1312N
1751.461	0.635	1626683	MATH_END	n/a	n/a	-999	-999	n/a	n/a	n/a	n/a	12	[0, 0, 0]	-999	PAL1	0	R1312N
1752.096	0.002	1627318	RETRIEVAL_START	n/a	n/a	-999	-999	n/a	n/a	n/a	n/a	12	[0, 0, 0]	-999	PAL1	0	R1312N
1752.098	0.28	1627320	ORIENT_START	n/a	n/a	-999	-999	n/a	n/a	n/a	n/a	12	[0, 0, 0]	-999	PAL1	0	R1312N
1752.378	0.709	1627600	ORIENT_END	n/a	n/a	-999	-999	n/a	n/a	n/a	n/a	12	[0, 0, 0]	-999	PAL1	0	R1312N
1753.087	0.001	1628309	REC_START	n/a	n/a	3	1	CHALK	BEAR	CHALK	BEAR	12	[0, 0, 0]	-999	PAL1	0	R1312N
1753.088	4.0	1628310	PROBE_START	n/a	wordpools/wordpool_EN.txt	3	1	CHALK	BEAR	CHALK	BEAR	12	[0, 0, 0]	-999	PAL1	0	R1312N
1755.624	1.489	1630846	REC_EVENT	2536.0	n/a	3	1	CHALK	BEAR	CHALK	BEAR	12	[0, 0, 0]	-999	PAL1	0	R1312N
1757.113	1.001	1632335	PROBE_END	n/a	n/a	3	1	CHALK	n/a	CHALK	BEAR	12	[0, 0, 0]	-999	PAL1	0	R1312N
1758.114	0.011	1633336	REC_END	n/a	n/a	3	1	CHALK	n/a	CHALK	BEAR	12	[0, 0, 0]	-999	PAL1	0	R1312N
1758.125	0.271	1633347	ORIENT_START	n/a	n/a	-999	-999	n/a	n/a	n/a	n/a	12	[0, 0, 0]	-999	PAL1	0	R1312N
1758.396	0.699	1633618	ORIENT_END	n/a	n/a	-999	-999	n/a	n/a	n/a	n/a	12	[0, 0, 0]	-999	PAL1	0	R1312N
1759.095	4.0	1634317	PROBE_START	n/a	wordpools/wordpool_EN.txt	2	2	INK	EAR	INK	EAR	12	[0, 0, 0]	-999	PAL1	0	R1312N
1759.095	2.428	1634317	REC_START	n/a	n/a	2	2	INK	EAR	INK	EAR	12	[0, 0, 0]	-999	PAL1	0	R1312N
1761.523	1.608	1636746	REC_EVENT	2428.0	n/a	2	2	INK	EAR	INK	EAR	12	[0, 0, 0]	-999	PAL1	0	R1312N
1763.131	1.0	1638354	PROBE_END	n/a	n/a	2	2	INK	n/a	INK	EAR	12	[0, 0, 0]	-999	PAL1	0	R1312N
1764.131	0.011	1639354	REC_END	n/a	n/a	2	2	INK	n/a	INK	EAR	12	[0, 0, 0]	-999	PAL1	0	R1312N
1764.142	0.271	1639365	ORIENT_START	n/a	n/a	-999	-999	n/a	n/a	n/a	n/a	12	[0, 0, 0]	-999	PAL1	0	R1312N
1764.413	0.603	1639636	ORIENT_END	n/a	n/a	-999	-999	n/a	n/a	n/a	n/a	12	[0, 0, 0]	-999	PAL1	0	R1312N
1765.016	0.001	1640239	REC_START	n/a	n/a	5	3	HORN	HORSE	HOUSE	HORN	12	[0, 0, 0]	-999	PAL1	0	R1312N
1765.017	4.0	1640240	PROBE_START	n/a	wordpools/wordpool_EN.txt	5	3	HORN	HORSE	HOUSE	HORN	12	[0, 0, 0]	-999	PAL1	0	R1312N
1767.066	1.982	1642289	REC_EVENT	2049.0	n/a	5	3	HORN	HORSE	HOUSE	HORN	12	[0, 0, 0]	-999	PAL1	0	R1312N
1769.048	1.0	1644271	PROBE_END	n/a	n/a	5	3	HORN	n/a	HOUSE	HORN	12	[0, 0, 0]	-999	PAL1	0	R1312N
1770.048	0.011	1645271	REC_END	n/a	n/a	5	3	HORN	n/a	HOUSE	HORN	12	[0, 0, 0]	-999	PAL1	0	R1312N
1770.059	0.272	1645282	ORIENT_START	n/a	n/a	-999	-999	n/a	n/a	n/a	n/a	12	[0, 0, 0]	-999	PAL1	0	R1312N
1770.331	0.565	1645554	ORIENT_END	n/a	n/a	-999	-999	n/a	n/a	n/a	n/a	12	[0, 0, 0]	-999	PAL1	0	R1312N
1770.896	4.0	1646119	PROBE_START	n/a	wordpools/wordpool_EN.txt	6	4	PANTS	GUARD	PANTS	GUARD	12	[0, 0, 0]	-999	PAL1	0	R1312N
1770.896	2.417	1646119	REC_START	n/a	n/a	6	4	PANTS	GUARD	PANTS	GUARD	12	[0, 0, 0]	-999	PAL1	0	R1312N
1773.313	1.62	1648536	REC_EVENT	2417.0	n/a	6	4	PANTS	GUARD	PANTS	GUARD	12	[0, 0, 0]	-999	PAL1	0	R1312N
1774.933	0.999	1650156	PROBE_END	n/a	n/a	6	4	PANTS	n/a	PANTS	GUARD	12	[0, 0, 0]	-999	PAL1	0	R1312N
1775.932	0.01	1651155	REC_END	n/a	n/a	6	4	PANTS	n/a	PANTS	GUARD	12	[0, 0, 0]	-999	PAL1	0	R1312N
1775.942	0.273	1651165	ORIENT_START	n/a	n/a	-999	-999	n/a	n/a	n/a	n/a	12	[0, 0, 0]	-999	PAL1	0	R1312N
1776.215	0.628	1651438	ORIENT_END	n/a	n/a	-999	-999	n/a	n/a	n/a	n/a	12	[0, 0, 0]	-999	PAL1	0	R1312N
1776.843	0.0	1652066	REC_START	n/a	n/a	1	5	PIPE	n/a	CRANE	PIPE	12	[0, 0, 0]	-999	PAL1	0	R1312N
1776.843	4.0	1652066	PROBE_START	n/a	wordpools/wordpool_EN.txt	1	5	PIPE	n/a	CRANE	PIPE	12	[0, 0, 0]	-999	PAL1	0	R1312N
1780.237	0.63	1655460	REC_EVENT	3394.0	n/a	1	5	PIPE	<>	CRANE	PIPE	12	[0, 0, 0]	-999	PAL1	0	R1312N
1780.867	1.001	1656090	PROBE_END	n/a	n/a	1	5	PIPE	n/a	CRANE	PIPE	12	[0, 0, 0]	-999	PAL1	0	R1312N
1781.868	0.01	1657091	REC_END	n/a	n/a	1	5	PIPE	n/a	CRANE	PIPE	12	[0, 0, 0]	-999	PAL1	0	R1312N
1781.878	0.272	1657101	ORIENT_START	n/a	n/a	-999	-999	n/a	n/a	n/a	n/a	12	[0, 0, 0]	-999	PAL1	0	R1312N
1782.15	0.535	1657373	ORIENT_END	n/a	n/a	-999	-999	n/a	n/a	n/a	n/a	12	[0, 0, 0]	-999	PAL1	0	R1312N
1782.685	0.0	1657908	REC_START	n/a	n/a	4	6	STAIR	SUN	SUN	STAIR	12	[0, 0, 0]	-999	PAL1	0	R1312N
1782.685	4.0	1657908	PROBE_START	n/a	wordpools/wordpool_EN.txt	4	6	STAIR	SUN	SUN	STAIR	12	[0, 0, 0]	-999	PAL1	0	R1312N
1784.639	2.078	1659862	REC_EVENT	1954.0	n/a	4	6	STAIR	SUN	SUN	STAIR	12	[0, 0, 0]	-999	PAL1	0	R1312N
1786.717	1.0	1661940	PROBE_END	n/a	n/a	4	6	STAIR	n/a	SUN	STAIR	12	[0, 0, 0]	-999	PAL1	0	R1312N
1787.717	0.011	1662941	REC_END	n/a	n/a	4	6	STAIR	n/a	SUN	STAIR	12	[0, 0, 0]	-999	PAL1	0	R1312N
1787.728	0.0	1662952	RETRIEVAL_END	n/a	n/a	-999	-999	n/a	n/a	n/a	n/a	12	[0, 0, 0]	-999	PAL1	0	R1312N
1787.728	0.02	1662952	TRIAL_END	n/a	n/a	-999	-999	n/a	n/a	n/a	n/a	12	[0, 0, 0]	-999	PAL1	0	R1312N
1787.748	0.0	1662972	TRIAL_START	n/a	n/a	-999	-999	n/a	n/a	n/a	n/a	12	[0, 0, 0]	-999	PAL1	0	R1312N
1787.748	0.0	1662972	TRIAL	n/a	n/a	-999	-999	n/a	n/a	n/a	n/a	13	[0, 0, 0]	-999	PAL1	0	R1312N
1787.748	12.189	1662972	WAITING_START	n/a	n/a	-999	-999	n/a	n/a	n/a	n/a	13	[0, 0, 0]	-999	PAL1	0	R1312N
1799.937	0.0	1675161	WAITING_END	n/a	n/a	-999	-999	n/a	n/a	n/a	n/a	13	[0, 0, 0]	-999	PAL1	0	R1312N
1799.937	10.0	1675161	COUNTDOWN_START	n/a	n/a	-999	-999	n/a	n/a	n/a	n/a	13	[0, 0, 0]	-999	PAL1	0	R1312N
1810.366	0.001	1685590	COUNTDOWN_END	n/a	n/a	-999	-999	n/a	n/a	n/a	n/a	13	[0, 0, 0]	-999	PAL1	0	R1312N
1810.367	0.538	1685591	ORIENT_START	n/a	n/a	-999	-999	n/a	n/a	n/a	n/a	13	[0, 0, 0]	-999	PAL1	0	R1312N
1810.905	0.001	1686129	ORIENT_END	n/a	n/a	-999	-999	n/a	n/a	n/a	n/a	13	[0, 0, 0]	-999	PAL1	0	R1312N
1810.906	1.232	1686130	ENCODING_START	n/a	n/a	-999	-999	n/a	n/a	n/a	n/a	13	[0, 0, 0]	-999	PAL1	0	R1312N
1812.138	4.0	1687362	STUDY_PAIR	n/a	wordpools/wordpool_EN.txt	1	-999	n/a	n/a	CLOWN	TOAD	13	[0, 0, 0]	-999	PAL1	0	R1312N
1816.173	0.638	1691398	STUDY_PAIR_OFF	n/a	n/a	1	-999	n/a	n/a	CLOWN	TOAD	13	[0, 0, 0]	-999	PAL1	0	R1312N
1816.811	4.0	1692036	STUDY_PAIR	n/a	wordpools/wordpool_EN.txt	2	-999	n/a	CUP	TOY	CUP	13	[0, 0, 0]	-999	PAL1	0	R1312N
1820.839	0.542	1696064	STUDY_PAIR_OFF	n/a	n/a	2	-999	n/a	CUP	TOY	CUP	13	[0, 0, 0]	-999	PAL1	0	R1312N
1821.381	4.0	1696606	STUDY_PAIR	n/a	wordpools/wordpool_EN.txt	3	-999	n/a	n/a	FARM	FISH	13	[0, 0, 0]	-999	PAL1	0	R1312N
1825.407	0.664	1700632	STUDY_PAIR_OFF	n/a	n/a	3	-999	n/a	n/a	FARM	FISH	13	[0, 0, 0]	-999	PAL1	0	R1312N
1826.071	4.0	1701296	STUDY_PAIR	n/a	wordpools/wordpool_EN.txt	4	-999	n/a	n/a	ROCK	TREE	13	[0, 0, 0]	-999	PAL1	0	R1312N
1830.108	0.52	1705333	STUDY_PAIR_OFF	n/a	n/a	4	-999	n/a	n/a	ROCK	TREE	13	[0, 0, 0]	-999	PAL1	0	R1312N
1830.628	4.0	1705853	STUDY_PAIR	n/a	wordpools/wordpool_EN.txt	5	-999	n/a	BRICK	DOOR	BRICK	13	[0, 0, 0]	-999	PAL1	0	R1312N
1834.658	0.719	1709883	STUDY_PAIR_OFF	n/a	n/a	5	-999	n/a	BRICK	DOOR	BRICK	13	[0, 0, 0]	-999	PAL1	0	R1312N
1835.377	4.0	1710602	STUDY_PAIR	n/a	wordpools/wordpool_EN.txt	6	-999	n/a	FROG	ROOF	FROG	13	[0, 0, 0]	-999	PAL1	0	R1312N
1839.409	0.0	1714634	STUDY_PAIR_OFF	n/a	n/a	6	-999	n/a	FROG	ROOF	FROG	13	[0, 0, 0]	-999	PAL1	0	R1312N
