onset	duration	sample	trial_type	response_time	stim_file	serialpos	probepos	probe_word	resp_word	study_1	study_2	list	test	answer	experiment	session	subject
0.0	70.726	210999	SESS_START	n/a	n/a	-999	-999	n/a	n/a	n/a	n/a	-999	[0, 0, 0]	-999	PAL1	0	R1063C
70.726	1.016	246359	START	n/a	n/a	-999	-999	n/a	n/a	n/a	n/a	1	[-999, -999, -999]	-999	PAL1	0	R1063C
71.742	5.868	246867	PROB	5833.0	n/a	-999	-999	n/a	n/a	n/a	n/a	1	[6, 8, 6]	20	PAL1	0	R1063C
77.61	5.068	249800	PROB	5037.0	n/a	-999	-999	n/a	n/a	n/a	n/a	1	[8, 6, 5]	19	PAL1	0	R1063C
82.678	3.701	252334	PROB	3666.0	n/a	-999	-999	n/a	n/a	n/a	n/a	1	[5, 4, 1]	10	PAL1	0	R1063C
86.379	5.077	254185	PROB	5077.0	n/a	-999	-999	n/a	n/a	n/a	n/a	1	[4, 7, 9]	20	PAL1	0	R1063C
91.456	86.504	256723	STOP	n/a	n/a	-999	-999	n/a	n/a	n/a	n/a	1	[-999, -999, -999]	-999	PAL1	0	R1063C
177.96	10.439	299971	ENCODING_START	n/a	n/a	0	-999	n/a	n/a	n/a	n/a	1	[0, 0, 0]	-999	PAL1	0	R1063C
188.399	0.275	305190	STUDY_ORIENT	n/a	n/a	1	1	EEL	n/a	EEL	YARD	1	[0, 0, 0]	-999	PAL1	0	R1063C
189.315	4.0	305648	STUDY_PAIR	n/a	wordpools/wordpool_EN.txt	1	1	EEL	n/a	EEL	YARD	1	[0, 0, 0]	-999	PAL1	0	R1063C
194.333	0.275	308157	STUDY_ORIENT	n/a	n/a	2	2	FROG	BOMB	FROG	BOMB	1	[0, 0, 0]	-999	PAL1	0	R1063C
195.25	4.0	308615	STUDY_PAIR	n/a	wordpools/wordpool_EN.txt	2	2	FROG	BOMB	FROG	BOMB	1	[0, 0, 0]	-999	PAL1	0	R1063C
200.268	0.275	311124	STUDY_ORIENT	n/a	n/a	3	5	PET	n/a	ROOM	PET	1	[0, 0, 0]	-999	PAL1	0	R1063C
201.151	4.0	311566	STUDY_PAIR	n/a	wordpools/wordpool_EN.txt	3	5	PET	n/a	ROOM	PET	1	[0, 0, 0]	-999	PAL1	0	R1063C
206.169	0.275	314074	STUDY_ORIENT	n/a	n/a	4	6	BEE	PLANE	BEE	PLANE	1	[0, 0, 0]	-999	PAL1	0	R1063C
207.086	4.0	314533	STUDY_PAIR	n/a	wordpools/wordpool_EN.txt	4	6	BEE	PLANE	BEE	PLANE	1	[0, 0, 0]	-999	PAL1	0	R1063C
212.12	0.275	317050	STUDY_ORIENT	n/a	n/a	5	3	BAG	FACE	BAG	FACE	1	[0, 0, 0]	-999	PAL1	0	R1063C
212.904	4.0	317442	STUDY_PAIR	n/a	wordpools/wordpool_EN.txt	5	3	BAG	FACE	BAG	FACE	1	[0, 0, 0]	-999	PAL1	0	R1063C
217.938	0.275	319958	STUDY_ORIENT	n/a	n/a	6	4	DUCK	n/a	DUCK	LAWN	1	[0, 0, 0]	-999	PAL1	0	R1063C
218.82	4.0	320399	STUDY_PAIR	n/a	wordpools/wordpool_EN.txt	6	4	DUCK	n/a	DUCK	LAWN	1	[0, 0, 0]	-999	PAL1	0	R1063C
222.821	1.0	322400	START	n/a	n/a	-999	-999	n/a	n/a	n/a	n/a	2	[-999, -999, -999]	-999	PAL1	0	R1063C
223.821	0.017	322900	MATH_START	n/a	n/a	-999	-999	n/a	n/a	n/a	n/a	1	[0, 0, 0]	-999	PAL1	0	R1063C
223.838	7.653	322908	PROB	7618.0	n/a	-999	-999	n/a	n/a	n/a	n/a	2	[3, 5, 9]	17	PAL1	0	R1063C
231.491	5.183	326734	PROB	5164.0	n/a	-999	-999	n/a	n/a	n/a	n/a	2	[4, 7, 9]	20	PAL1	0	R1063C
236.674	5.117	329326	PROB	5085.0	n/a	-999	-999	n/a	n/a	n/a	n/a	2	[3, 5, 8]	16	PAL1	0	R1063C
241.791	4.281	331884	PROB	4281.0	n/a	-999	-999	n/a	n/a	n/a	n/a	2	[4, 7, 9]	20	PAL1	0	R1063C
246.072	0.005	334024	STOP	n/a	n/a	-999	-999	n/a	n/a	n/a	n/a	2	[-999, -999, -999]	-999	PAL1	0	R1063C
246.077	0.0	334027	MATH_END	n/a	n/a	-999	-999	n/a	n/a	n/a	n/a	1	[0, 0, 0]	-999	PAL1	0	R1063C
246.077	0.016	334027	TEST_START	n/a	n/a	-999	-999	n/a	n/a	n/a	n/a	1	[0, 0, 0]	-999	PAL1	0	R1063C
246.093	0.275	334035	TEST_ORIENT	n/a	n/a	1	1	EEL	n/a	EEL	YARD	1	[0, 0, 0]	-999	PAL1	0	R1063C
246.927	4.0	334452	TEST_PROBE	n/a	wordpools/wordpool_EN.txt	1	1	EEL	n/a	EEL	YARD	1	[0, 0, 0]	-999	PAL1	0	R1063C
246.927	0.458	334452	REC_START	n/a	n/a	1	-999	n/a	n/a	n/a	n/a	1	[0, 0, 0]	-999	PAL1	0	R1063C
247.385	4.559	334681	REC_EVENT	458.0	n/a	1	1	EEL	<>	EEL	YARD	1	[0, 0, 0]	-999	PAL1	0	R1063C
251.944	0.017	336960	REC_END	n/a	n/a	1	-999	n/a	n/a	n/a	n/a	1	[0, 0, 0]	-999	PAL1	0	R1063C
251.961	0.275	336969	TEST_ORIENT	n/a	n/a	2	2	FROG	BOMB	FROG	BOMB	1	[0, 0, 0]	-999	PAL1	0	R1063C
252.945	4.0	337460	TEST_PROBE	n/a	wordpools/wordpool_EN.txt	2	2	FROG	BOMB	FROG	BOMB	1	[0, 0, 0]	-999	PAL1	0	R1063C
252.945	1.845	337460	REC_START	n/a	n/a	2	-999	n/a	BOMB	n/a	n/a	1	[0, 0, 0]	-999	PAL1	0	R1063C
254.79	3.172	338383	REC_EVENT	1845.0	n/a	2	2	FROG	BOMB	FROG	BOMB	1	[0, 0, 0]	-999	PAL1	0	R1063C
257.962	0.017	339969	REC_END	n/a	n/a	2	-999	n/a	n/a	n/a	n/a	1	[0, 0, 0]	-999	PAL1	0	R1063C
257.979	0.275	339977	TEST_ORIENT	n/a	n/a	5	3	BAG	FACE	BAG	FACE	1	[0, 0, 0]	-999	PAL1	0	R1063C
258.912	4.0	340444	TEST_PROBE	n/a	wordpools/wordpool_EN.txt	5	3	BAG	FACE	BAG	FACE	1	[0, 0, 0]	-999	PAL1	0	R1063C
258.913	1.279	340444	REC_START	n/a	n/a	5	-999	n/a	FACE	n/a	n/a	1	[0, 0, 0]	-999	PAL1	0	R1063C
260.192	3.728	341084	REC_EVENT	1279.0	n/a	5	3	BAG	FACE	BAG	FACE	1	[0, 0, 0]	-999	PAL1	0	R1063C
263.92	0.01	342948	REC_END	n/a	n/a	5	-999	n/a	n/a	n/a	n/a	1	[0, 0, 0]	-999	PAL1	0	R1063C
263.93	0.275	342953	TEST_ORIENT	n/a	n/a	6	4	DUCK	n/a	DUCK	LAWN	1	[0, 0, 0]	-999	PAL1	0	R1063C
264.93	4.0	343452	TEST_PROBE	n/a	wordpools/wordpool_EN.txt	6	4	DUCK	n/a	DUCK	LAWN	1	[0, 0, 0]	-999	PAL1	0	R1063C
264.931	5.007	343453	REC_START	n/a	n/a	6	-999	n/a	n/a	n/a	n/a	1	[0, 0, 0]	-999	PAL1	0	R1063C
269.938	0.002	345956	REC_END	n/a	n/a	6	-999	n/a	n/a	n/a	n/a	1	[0, 0, 0]	-999	PAL1	0	R1063C
269.94	0.008	345957	REC_EVENT	5009.0	n/a	6	4	DUCK	<>	DUCK	LAWN	1	[0, 0, 0]	-999	PAL1	0	R1063C
269.948	0.275	345961	TEST_ORIENT	n/a	n/a	3	5	PET	n/a	ROOM	PET	1	[0, 0, 0]	-999	PAL1	0	R1063C
270.764	4.0	346369	TEST_PROBE	n/a	wordpools/wordpool_EN.txt	3	5	PET	n/a	ROOM	PET	1	[0, 0, 0]	-999	PAL1	0	R1063C
270.764	5.015	346369	REC_START	n/a	n/a	3	-999	n/a	n/a	n/a	n/a	1	[0, 0, 0]	-999	PAL1	0	R1063C
275.779	0.002	348877	REC_EVENT	5015.0	n/a	3	5	PET	<>	ROOM	PET	1	[0, 0, 0]	-999	PAL1	0	R1063C
275.781	0.017	348878	REC_END	n/a	n/a	3	-999	n/a	n/a	n/a	n/a	1	[0, 0, 0]	-999	PAL1	0	R1063C
275.798	0.275	348886	TEST_ORIENT	n/a	n/a	4	6	BEE	PLANE	BEE	PLANE	1	[0, 0, 0]	-999	PAL1	0	R1063C
276.681	4.0	349327	TEST_PROBE	n/a	wordpools/wordpool_EN.txt	4	6	BEE	PLANE	BEE	PLANE	1	[0, 0, 0]	-999	PAL1	0	R1063C
276.682	1.176	349328	REC_START	n/a	n/a	4	-999	n/a	PLANE	n/a	n/a	1	[0, 0, 0]	-999	PAL1	0	R1063C
277.858	3.831	349916	REC_EVENT	1176.0	n/a	4	6	BEE	PLANE	BEE	PLANE	1	[0, 0, 0]	-999	PAL1	0	R1063C
281.689	7.814	351831	REC_END	n/a	n/a	4	-999	n/a	n/a	n/a	n/a	1	[0, 0, 0]	-999	PAL1	0	R1063C
289.503	10.451	355738	ENCODING_START	n/a	n/a	0	-999	n/a	n/a	n/a	n/a	2	[0, 0, 0]	-999	PAL1	0	R1063C
299.954	0.275	360963	STUDY_ORIENT	n/a	n/a	1	3	MUD	BED	MUD	BED	2	[0, 0, 0]	-999	PAL1	0	R1063C
300.803	4.0	361387	STUDY_PAIR	n/a	wordpools/wordpool_EN.txt	1	3	MUD	BED	MUD	BED	2	[0, 0, 0]	-999	PAL1	0	R1063C
305.837	0.275	363904	STUDY_ORIENT	n/a	n/a	2	2	SUIT	n/a	SUIT	ARM	2	[0, 0, 0]	-999	PAL1	0	R1063C
306.837	4.0	364404	STUDY_PAIR	n/a	wordpools/wordpool_EN.txt	2	2	SUIT	n/a	SUIT	ARM	2	[0, 0, 0]	-999	PAL1	0	R1063C
311.856	0.275	366913	STUDY_ORIENT	n/a	n/a	3	1	COIN	n/a	DOCK	COIN	2	[0, 0, 0]	-999	PAL1	0	R1063C
312.772	4.0	367371	STUDY_PAIR	n/a	wordpools/wordpool_EN.txt	3	1	COIN	n/a	DOCK	COIN	2	[0, 0, 0]	-999	PAL1	0	R1063C
317.806	0.275	369888	STUDY_ORIENT	n/a	n/a	4	6	DOG	SEAT	SEAT	DOG	2	[0, 0, 0]	-999	PAL1	0	R1063C
318.59	4.0	370280	STUDY_PAIR	n/a	wordpools/wordpool_EN.txt	4	6	DOG	SEAT	SEAT	DOG	2	[0, 0, 0]	-999	PAL1	0	R1063C
323.624	0.275	372797	STUDY_ORIENT	n/a	n/a	5	5	BOOT	DOOR	BOOT	DOOR	2	[0, 0, 0]	-999	PAL1	0	R1063C
324.475	4.0	373222	STUDY_PAIR	n/a	wordpools/wordpool_EN.txt	5	5	BOOT	DOOR	BOOT	DOOR	2	[0, 0, 0]	-999	PAL1	0	R1063C
329.508	0.275	375739	STUDY_ORIENT	n/a	n/a	6	4	TREE	CROWN	TREE	CROWN	2	[0, 0, 0]	-999	PAL1	0	R1063C
330.476	4.0	376223	STUDY_PAIR	n/a	wordpools/wordpool_EN.txt	6	4	TREE	CROWN	TREE	CROWN	2	[0, 0, 0]	-999	PAL1	0	R1063C
334.477	1.0	378223	START	n/a	n/a	-999	-999	n/a	n/a	n/a	n/a	3	[-999, -999, -999]	-999	PAL1	0	R1063C
335.477	0.017	378723	MATH_START	n/a	n/a	-999	-999	n/a	n/a	n/a	n/a	2	[0, 0, 0]	-999	PAL1	0	R1063C
335.494	4.617	378731	PROB	4594.0	n/a	-999	-999	n/a	n/a	n/a	n/a	3	[4, 2, 4]	10	PAL1	0	R1063C
340.111	3.733	381040	PROB	3704.0	n/a	-999	-999	n/a	n/a	n/a	n/a	3	[7, 3, 4]	14	PAL1	0	R1063C
343.844	3.235	382906	PROB	3204.0	n/a	-999	-999	n/a	n/a	n/a	n/a	3	[2, 7, 9]	18	PAL1	0	R1063C
347.079	2.934	384523	PROB	2905.0	n/a	-999	-999	n/a	n/a	n/a	n/a	3	[3, 3, 1]	7	PAL1	0	R1063C
350.013	2.951	385990	PROB	2931.0	n/a	-999	-999	n/a	n/a	n/a	n/a	3	[6, 5, 6]	17	PAL1	0	R1063C
352.964	3.803	387466	PROB	3803.0	n/a	-999	-999	n/a	n/a	n/a	n/a	3	[9, 4, 9]	22	PAL1	0	R1063C
356.767	0.013	389367	STOP	n/a	n/a	-999	-999	n/a	n/a	n/a	n/a	3	[-999, -999, -999]	-999	PAL1	0	R1063C
356.78	0.0	389374	MATH_END	n/a	n/a	-999	-999	n/a	n/a	n/a	n/a	2	[0, 0, 0]	-999	PAL1	0	R1063C
356.78	0.017	389374	TEST_START	n/a	n/a	-999	-999	n/a	n/a	n/a	n/a	2	[0, 0, 0]	-999	PAL1	0	R1063C
356.797	0.275	389382	TEST_ORIENT	n/a	n/a	3	1	COIN	n/a	DOCK	COIN	2	[0, 0, 0]	-999	PAL1	0	R1063C
357.68	4.0	389824	TEST_PROBE	n/a	wordpools/wordpool_EN.txt	3	1	COIN	n/a	DOCK	COIN	2	[0, 0, 0]	-999	PAL1	0	R1063C
357.68	5.015	389824	REC_START	n/a	n/a	3	-999	n/a	n/a	n/a	n/a	2	[0, 0, 0]	-999	PAL1	0	R1063C
362.695	0.003	392331	REC_EVENT	5015.0	n/a	3	1	COIN	<>	DOCK	COIN	2	[0, 0, 0]	-999	PAL1	0	R1063C
362.698	0.017	392332	REC_END	n/a	n/a	3	-999	n/a	n/a	n/a	n/a	2	[0, 0, 0]	-999	PAL1	0	R1063C
362.715	0.275	392341	TEST_ORIENT	n/a	n/a	2	2	SUIT	n/a	SUIT	ARM	2	[0, 0, 0]	-999	PAL1	0	R1063C
363.565	4.0	392766	TEST_PROBE	n/a	wordpools/wordpool_EN.txt	2	2	SUIT	n/a	SUIT	ARM	2	[0, 0, 0]	-999	PAL1	0	R1063C
363.565	4.475	392766	REC_START	n/a	n/a	2	-999	n/a	n/a	n/a	n/a	2	[0, 0, 0]	-999	PAL1	0	R1063C
368.04	0.542	395003	REC_EVENT	4475.0	n/a	2	2	SUIT	<>	SUIT	ARM	2	[0, 0, 0]	-999	PAL1	0	R1063C
368.582	0.017	395274	REC_END	n/a	n/a	2	-999	n/a	n/a	n/a	n/a	2	[0, 0, 0]	-999	PAL1	0	R1063C
368.599	0.275	395283	TEST_ORIENT	n/a	n/a	1	3	MUD	BED	MUD	BED	2	[0, 0, 0]	-999	PAL1	0	R1063C
369.434	0.0	395700	REC_START	n/a	n/a	1	-999	n/a	BED	n/a	n/a	2	[0, 0, 0]	-999	PAL1	0	R1063C
369.434	4.0	395700	TEST_PROBE	n/a	wordpools/wordpool_EN.txt	1	3	MUD	BED	MUD	BED	2	[0, 0, 0]	-999	PAL1	0	R1063C
370.619	3.832	396292	REC_EVENT	1185.0	n/a	1	3	MUD	BED	MUD	BED	2	[0, 0, 0]	-999	PAL1	0	R1063C
374.451	0.017	398208	REC_END	n/a	n/a	1	-999	n/a	n/a	n/a	n/a	2	[0, 0, 0]	-999	PAL1	0	R1063C
374.468	0.275	398217	TEST_ORIENT	n/a	n/a	6	4	TREE	CROWN	TREE	CROWN	2	[0, 0, 0]	-999	PAL1	0	R1063C
375.5	4.0	398733	TEST_PROBE	n/a	wordpools/wordpool_EN.txt	6	4	TREE	CROWN	TREE	CROWN	2	[0, 0, 0]	-999	PAL1	0	R1063C
375.501	1.627	398733	REC_START	n/a	n/a	6	-999	n/a	CROWN	n/a	n/a	2	[0, 0, 0]	-999	PAL1	0	R1063C
377.128	3.381	399547	REC_EVENT	1627.0	n/a	6	4	TREE	CROWN	TREE	CROWN	2	[0, 0, 0]	-999	PAL1	0	R1063C
380.509	0.009	401237	REC_END	n/a	n/a	6	-999	n/a	n/a	n/a	n/a	2	[0, 0, 0]	-999	PAL1	0	R1063C
380.518	0.275	401242	TEST_ORIENT	n/a	n/a	5	5	BOOT	DOOR	BOOT	DOOR	2	[0, 0, 0]	-999	PAL1	0	R1063C
381.403	4.0	401684	TEST_PROBE	n/a	wordpools/wordpool_EN.txt	5	5	BOOT	DOOR	BOOT	DOOR	2	[0, 0, 0]	-999	PAL1	0	R1063C
381.403	1.979	401684	REC_START	n/a	n/a	5	-999	n/a	DOOR	n/a	n/a	2	[0, 0, 0]	-999	PAL1	0	R1063C
383.382	3.038	402673	REC_EVENT	1979.0	n/a	5	5	BOOT	DOOR	BOOT	DOOR	2	[0, 0, 0]	-999	PAL1	0	R1063C
386.42	0.017	404192	REC_END	n/a	n/a	5	-999	n/a	n/a	n/a	n/a	2	[0, 0, 0]	-999	PAL1	0	R1063C
386.437	0.275	404201	TEST_ORIENT	n/a	n/a	4	6	DOG	SEAT	SEAT	DOG	2	[0, 0, 0]	-999	PAL1	0	R1063C
387.404	4.0	404684	TEST_PROBE	n/a	wordpools/wordpool_EN.txt	4	6	DOG	SEAT	SEAT	DOG	2	[0, 0, 0]	-999	PAL1	0	R1063C
387.404	1.161	404684	REC_START	n/a	n/a	4	-999	n/a	SEAT	n/a	n/a	2	[0, 0, 0]	-999	PAL1	0	R1063C
388.565	0.681	405265	REC_EVENT	1161.0	n/a	4	6	DOG	<>	SEAT	DOG	2	[0, 0, 0]	-999	PAL1	0	R1063C
389.246	0.9	405605	REC_EVENT	1842.0	n/a	4	6	DOG	<>	SEAT	DOG	2	[0, 0, 0]	-999	PAL1	0	R1063C
390.146	0.554	406055	REC_EVENT	2742.0	n/a	4	6	DOG	SEAT	SEAT	DOG	2	[0, 0, 0]	-999	PAL1	0	R1063C
390.7	0.655	406332	REC_EVENT	3296.0	n/a	4	6	DOG	<>	SEAT	DOG	2	[0, 0, 0]	-999	PAL1	0	R1063C
391.355	0.527	406660	REC_EVENT	3951.0	n/a	4	6	DOG	SEAT	SEAT	DOG	2	[0, 0, 0]	-999	PAL1	0	R1063C
391.882	0.539	406923	REC_EVENT	4478.0	n/a	4	6	DOG	<>	SEAT	DOG	2	[0, 0, 0]	-999	PAL1	0	R1063C
392.421	8.218	407193	REC_END	n/a	n/a	4	-999	n/a	n/a	n/a	n/a	2	[0, 0, 0]	-999	PAL1	0	R1063C
400.639	10.453	411301	ENCODING_START	n/a	n/a	0	-999	n/a	n/a	n/a	n/a	3	[0, 0, 0]	-999	PAL1	0	R1063C
411.092	0.275	416527	STUDY_ORIENT	n/a	n/a	1	5	BRICK	INK	BRICK	INK	3	[0, 0, 0]	-999	PAL1	0	R1063C
411.892	4.0	416927	STUDY_PAIR	n/a	wordpools/wordpool_EN.txt	1	5	BRICK	INK	BRICK	INK	3	[0, 0, 0]	-999	PAL1	0	R1063C
416.926	0.275	419444	STUDY_ORIENT	n/a	n/a	2	2	MAP	n/a	MAP	BARN	3	[0, 0, 0]	-999	PAL1	0	R1063C
417.792	4.0	419877	STUDY_PAIR	n/a	wordpools/wordpool_EN.txt	2	2	MAP	n/a	MAP	BARN	3	[0, 0, 0]	-999	PAL1	0	R1063C
422.826	0.275	422394	STUDY_ORIENT	n/a	n/a	3	3	SMILE	CAR	SMILE	ROAD	3	[0, 0, 0]	-999	PAL1	0	R1063C
423.726	4.0	422844	STUDY_PAIR	n/a	wordpools/wordpool_EN.txt	3	3	SMILE	CAR	SMILE	ROAD	3	[0, 0, 0]	-999	PAL1	0	R1063C
428.744	0.275	425353	STUDY_ORIENT	n/a	n/a	4	6	MOUTH	n/a	MOUTH	SKY	3	[0, 0, 0]	-999	PAL1	0	R1063C
429.694	4.0	425827	STUDY_PAIR	n/a	wordpools/wordpool_EN.txt	4	6	MOUTH	n/a	MOUTH	SKY	3	[0, 0, 0]	-999	PAL1	0	R1063C
434.712	0.275	428336	STUDY_ORIENT	n/a	n/a	5	1	FORT	n/a	FORT	WHEEL	3	[0, 0, 0]	-999	PAL1	0	R1063C
435.645	4.0	428803	STUDY_PAIR	n/a	wordpools/wordpool_EN.txt	5	1	FORT	n/a	FORT	WHEEL	3	[0, 0, 0]	-999	PAL1	0	R1063C
440.663	0.275	431311	STUDY_ORIENT	n/a	n/a	6	4	SPONGE	SMILE	SPONGE	TOY	3	[0, 0, 0]	-999	PAL1	0	R1063C
441.563	4.0	431761	STUDY_PAIR	n/a	wordpools/wordpool_EN.txt	6	4	SPONGE	SMILE	SPONGE	TOY	3	[0, 0, 0]	-999	PAL1	0	R1063C
445.581	0.999	433770	START	n/a	n/a	-999	-999	n/a	n/a	n/a	n/a	4	[-999, -999, -999]	-999	PAL1	0	R1063C
446.58	0.017	434270	MATH_START	n/a	n/a	-999	-999	n/a	n/a	n/a	n/a	3	[0, 0, 0]	-999	PAL1	0	R1063C
446.597	4.652	434278	PROB	4627.0	n/a	-999	-999	n/a	n/a	n/a	n/a	4	[9, 1, 8]	18	PAL1	0	R1063C
451.249	3.267	436604	PROB	3239.0	n/a	-999	-999	n/a	n/a	n/a	n/a	4	[8, 1, 4]	13	PAL1	0	R1063C
454.516	6.984	438237	PROB	6956.0	n/a	-999	-999	n/a	n/a	n/a	n/a	4	[8, 4, 6]	18	PAL1	0	R1063C
461.5	3.251	441729	PROB	3219.0	n/a	-999	-999	n/a	n/a	n/a	n/a	4	[8, 3, 5]	16	PAL1	0	R1063C
464.751	2.976	443354	PROB	2976.0	n/a	-999	-999	n/a	n/a	n/a	n/a	4	[5, 8, 3]	16	PAL1	0	R1063C
467.727	0.008	444842	STOP	n/a	n/a	-999	-999	n/a	n/a	n/a	n/a	4	[-999, -999, -999]	-999	PAL1	0	R1063C
467.735	0.0	444846	MATH_END	n/a	n/a	-999	-999	n/a	n/a	n/a	n/a	3	[0, 0, 0]	-999	PAL1	0	R1063C
467.735	0.016	444846	TEST_START	n/a	n/a	-999	-999	n/a	n/a	n/a	n/a	3	[0, 0, 0]	-999	PAL1	0	R1063C
467.751	0.275	444854	TEST_ORIENT	n/a	n/a	5	1	FORT	n/a	FORT	WHEEL	3	[0, 0, 0]	-999	PAL1	0	R1063C
468.735	4.0	445346	TEST_PROBE	n/a	wordpools/wordpool_EN.txt	5	1	FORT	n/a	FORT	WHEEL	3	[0, 0, 0]	-999	PAL1	0	R1063C
468.735	2.648	445346	REC_START	n/a	n/a	5	-999	n/a	n/a	n/a	n/a	3	[0, 0, 0]	-999	PAL1	0	R1063C
471.383	1.0	446670	REC_EVENT	2648.0	n/a	5	1	FORT	<>	FORT	WHEEL	3	[0, 0, 0]	-999	PAL1	0	R1063C
472.383	1.369	447170	REC_EVENT	3648.0	n/a	5	1	FORT	<>	FORT	WHEEL	3	[0, 0, 0]	-999	PAL1	0	R1063C
473.752	0.017	447855	REC_END	n/a	n/a	5	-999	n/a	n/a	n/a	n/a	3	[0, 0, 0]	-999	PAL1	0	R1063C
473.769	0.275	447863	TEST_ORIENT	n/a	n/a	2	2	MAP	n/a	MAP	BARN	3	[0, 0, 0]	-999	PAL1	0	R1063C
474.652	4.0	448305	TEST_PROBE	n/a	wordpools/wordpool_EN.txt	2	2	MAP	n/a	MAP	BARN	3	[0, 0, 0]	-999	PAL1	0	R1063C
474.653	5.003	448305	REC_START	n/a	n/a	2	-999	n/a	n/a	n/a	n/a	3	[0, 0, 0]	-999	PAL1	0	R1063C
479.656	0.004	450806	REC_EVENT	5003.0	n/a	2	2	MAP	<>	MAP	BARN	3	[0, 0, 0]	-999	PAL1	0	R1063C
479.66	0.01	450808	REC_END	n/a	n/a	2	-999	n/a	n/a	n/a	n/a	3	[0, 0, 0]	-999	PAL1	0	R1063C
479.67	0.275	450813	TEST_ORIENT	n/a	n/a	3	3	SMILE	CAR	SMILE	ROAD	3	[0, 0, 0]	-999	PAL1	0	R1063C
480.571	4.0	451264	TEST_PROBE	n/a	wordpools/wordpool_EN.txt	3	3	SMILE	CAR	SMILE	ROAD	3	[0, 0, 0]	-999	PAL1	0	R1063C
480.571	2.391	451264	REC_START	n/a	n/a	3	-999	n/a	CAR	n/a	n/a	3	[0, 0, 0]	-999	PAL1	0	R1063C
482.962	1.0	452459	REC_EVENT	2391.0	n/a	3	3	SMILE	CAR	SMILE	ROAD	3	[0, 0, 0]	-999	PAL1	0	R1063C
483.962	1.626	452959	REC_EVENT	3391.0	n/a	3	3	SMILE	<>	SMILE	ROAD	3	[0, 0, 0]	-999	PAL1	0	R1063C
485.588	0.017	453772	REC_END	n/a	n/a	3	-999	n/a	n/a	n/a	n/a	3	[0, 0, 0]	-999	PAL1	0	R1063C
485.605	0.275	453781	TEST_ORIENT	n/a	n/a	6	4	SPONGE	SMILE	SPONGE	TOY	3	[0, 0, 0]	-999	PAL1	0	R1063C
486.555	4.0	454256	TEST_PROBE	n/a	wordpools/wordpool_EN.txt	6	4	SPONGE	SMILE	SPONGE	TOY	3	[0, 0, 0]	-999	PAL1	0	R1063C
486.556	1.165	454256	REC_START	n/a	n/a	6	-999	n/a	SMILE	n/a	n/a	3	[0, 0, 0]	-999	PAL1	0	R1063C
487.721	1.0	454838	REC_EVENT	1165.0	n/a	6	4	SPONGE	<>	SPONGE	TOY	3	[0, 0, 0]	-999	PAL1	0	R1063C
488.721	0.946	455338	REC_EVENT	2165.0	n/a	6	4	SPONGE	<>	SPONGE	TOY	3	[0, 0, 0]	-999	PAL1	0	R1063C
489.667	1.913	455811	REC_EVENT	3111.0	n/a	6	4	SPONGE	SMILE	SPONGE	TOY	3	[0, 0, 0]	-999	PAL1	0	R1063C
491.58	0.009	456768	REC_END	n/a	n/a	6	-999	n/a	n/a	n/a	n/a	3	[0, 0, 0]	-999	PAL1	0	R1063C
491.589	0.275	456772	TEST_ORIENT	n/a	n/a	1	5	BRICK	INK	BRICK	INK	3	[0, 0, 0]	-999	PAL1	0	R1063C
492.556	4.0	457256	TEST_PROBE	n/a	wordpools/wordpool_EN.txt	1	5	BRICK	INK	BRICK	INK	3	[0, 0, 0]	-999	PAL1	0	R1063C
492.557	1.834	457256	REC_START	n/a	n/a	1	-999	n/a	INK	n/a	n/a	3	[0, 0, 0]	-999	PAL1	0	R1063C
494.391	0.4	458173	REC_EVENT	1834.0	n/a	1	5	BRICK	INK	BRICK	INK	3	[0, 0, 0]	-999	PAL1	0	R1063C
494.791	1.041	458373	REC_EVENT	2234.0	n/a	1	5	BRICK	<>	BRICK	INK	3	[0, 0, 0]	-999	PAL1	0	R1063C
495.832	0.754	458894	REC_EVENT	3275.0	n/a	1	5	BRICK	BRICK	BRICK	INK	3	[0, 0, 0]	-999	PAL1	0	R1063C
496.586	0.979	459271	REC_EVENT	4029.0	n/a	1	5	BRICK	INK	BRICK	INK	3	[0, 0, 0]	-999	PAL1	0	R1063C
497.565	0.009	459760	REC_END	n/a	n/a	1	-999	n/a	n/a	n/a	n/a	3	[0, 0, 0]	-999	PAL1	0	R1063C
497.574	0.275	459765	TEST_ORIENT	n/a	n/a	4	6	MOUTH	n/a	MOUTH	SKY	3	[0, 0, 0]	-999	PAL1	0	R1063C
498.607	4.0	460281	TEST_PROBE	n/a	wordpools/wordpool_EN.txt	4	6	MOUTH	n/a	MOUTH	SKY	3	[0, 0, 0]	-999	PAL1	0	R1063C
498.608	4.998	460282	REC_START	n/a	n/a	4	-999	n/a	n/a	n/a	n/a	3	[0, 0, 0]	-999	PAL1	0	R1063C
503.606	0.002	462780	REC_EVENT	4998.0	n/a	4	6	MOUTH	<>	MOUTH	SKY	3	[0, 0, 0]	-999	PAL1	0	R1063C
503.608	9.848	462781	REC_END	n/a	n/a	4	-999	n/a	n/a	n/a	n/a	3	[0, 0, 0]	-999	PAL1	0	R1063C
513.456	10.441	467705	ENCODING_START	n/a	n/a	0	-999	n/a	n/a	n/a	n/a	4	[0, 0, 0]	-999	PAL1	0	R1063C
523.897	0.275	472925	STUDY_ORIENT	n/a	n/a	1	1	OAR	BEAR	BEAR	OAR	4	[0, 0, 0]	-999	PAL1	0	R1063C
524.746	4.0	473349	STUDY_PAIR	n/a	wordpools/wordpool_EN.txt	1	1	OAR	BEAR	BEAR	OAR	4	[0, 0, 0]	-999	PAL1	0	R1063C
529.78	0.275	475866	STUDY_ORIENT	n/a	n/a	2	6	BUSH	BEE	NEST	BUSH	4	[0, 0, 0]	-999	PAL1	0	R1063C
530.563	4.0	476258	STUDY_PAIR	n/a	wordpools/wordpool_EN.txt	2	6	BUSH	BEE	NEST	BUSH	4	[0, 0, 0]	-999	PAL1	0	R1063C
535.581	0.275	478766	STUDY_ORIENT	n/a	n/a	3	3	PASTE	n/a	HOOK	PASTE	4	[0, 0, 0]	-999	PAL1	0	R1063C
536.415	4.0	479183	STUDY_PAIR	n/a	wordpools/wordpool_EN.txt	3	3	PASTE	n/a	HOOK	PASTE	4	[0, 0, 0]	-999	PAL1	0	R1063C
541.433	0.275	481692	STUDY_ORIENT	n/a	n/a	4	2	CAGE	BEE	CAGE	CLIFF	4	[0, 0, 0]	-999	PAL1	0	R1063C
542.433	4.0	482192	STUDY_PAIR	n/a	wordpools/wordpool_EN.txt	4	2	CAGE	BEE	CAGE	CLIFF	4	[0, 0, 0]	-999	PAL1	0	R1063C
547.451	0.275	484701	STUDY_ORIENT	n/a	n/a	5	5	SHEEP	n/a	SHEEP	FLAG	4	[0, 0, 0]	-999	PAL1	0	R1063C
548.401	4.0	485176	STUDY_PAIR	n/a	wordpools/wordpool_EN.txt	5	5	SHEEP	n/a	SHEEP	FLAG	4	[0, 0, 0]	-999	PAL1	0	R1063C
553.419	0.275	487685	STUDY_ORIENT	n/a	n/a	6	4	LEG	n/a	LEG	CAKE	4	[0, 0, 0]	-999	PAL1	0	R1063C
554.202	4.0	488076	STUDY_PAIR	n/a	wordpools/wordpool_EN.txt	6	4	LEG	n/a	LEG	CAKE	4	[0, 0, 0]	-999	PAL1	0	R1063C
558.203	1.0	490076	START	n/a	n/a	-999	-999	n/a	n/a	n/a	n/a	5	[-999, -999, -999]	-999	PAL1	0	R1063C
559.203	0.017	490576	MATH_START	n/a	n/a	-999	-999	n/a	n/a	n/a	n/a	4	[0, 0, 0]	-999	PAL1	0	R1063C
559.22	7.135	490585	PROB	7108.0	n/a	-999	-999	n/a	n/a	n/a	n/a	5	[3, 5, 4]	12	PAL1	0	R1063C
566.355	3.1	494152	PROB	3069.0	n/a	-999	-999	n/a	n/a	n/a	n/a	5	[6, 9, 3]	18	PAL1	0	R1063C
569.455	3.401	495702	PROB	3376.0	n/a	-999	-999	n/a	n/a	n/a	n/a	5	[4, 3, 5]	12	PAL1	0	R1063C
572.856	2.134	497402	PROB	2112.0	n/a	-999	-999	n/a	n/a	n/a	n/a	5	[2, 2, 8]	12	PAL1	0	R1063C
574.99	4.673	498469	PROB	4673.0	n/a	-999	-999	n/a	n/a	n/a	n/a	5	[7, 9, 3]	19	PAL1	0	R1063C
579.663	0.01	500806	STOP	n/a	n/a	-999	-999	n/a	n/a	n/a	n/a	5	[-999, -999, -999]	-999	PAL1	0	R1063C
579.673	0.0	500811	MATH_END	n/a	n/a	-999	-999	n/a	n/a	n/a	n/a	4	[0, 0, 0]	-999	PAL1	0	R1063C
579.673	0.017	500811	TEST_START	n/a	n/a	-999	-999	n/a	n/a	n/a	n/a	4	[0, 0, 0]	-999	PAL1	0	R1063C
579.69	0.275	500819	TEST_ORIENT	n/a	n/a	1	1	OAR	BEAR	BEAR	OAR	4	[0, 0, 0]	-999	PAL1	0	R1063C
580.491	4.0	501220	TEST_PROBE	n/a	wordpools/wordpool_EN.txt	1	1	OAR	BEAR	BEAR	OAR	4	[0, 0, 0]	-999	PAL1	0	R1063C
580.491	3.116	501220	REC_START	n/a	n/a	1	-999	n/a	BEAR	n/a	n/a	4	[0, 0, 0]	-999	PAL1	0	R1063C
583.607	1.9	502777	REC_EVENT	3116.0	n/a	1	1	OAR	BEAR	BEAR	OAR	4	[0, 0, 0]	-999	PAL1	0	R1063C
585.507	0.017	503727	REC_END	n/a	n/a	1	-999	n/a	n/a	n/a	n/a	4	[0, 0, 0]	-999	PAL1	0	R1063C
585.524	0.275	503736	TEST_ORIENT	n/a	n/a	4	2	CAGE	BEE	CAGE	CLIFF	4	[0, 0, 0]	-999	PAL1	0	R1063C
586.475	4.0	504211	TEST_PROBE	n/a	wordpools/wordpool_EN.txt	4	2	CAGE	BEE	CAGE	CLIFF	4	[0, 0, 0]	-999	PAL1	0	R1063C
586.475	1.709	504211	REC_START	n/a	n/a	4	-999	n/a	BEE	n/a	n/a	4	[0, 0, 0]	-999	PAL1	0	R1063C
588.184	1.816	505066	REC_EVENT	1709.0	n/a	4	2	CAGE	<>	CAGE	CLIFF	4	[0, 0, 0]	-999	PAL1	0	R1063C
590.0	1.493	505974	REC_EVENT	3525.0	n/a	4	2	CAGE	BEE	CAGE	CLIFF	4	[0, 0, 0]	-999	PAL1	0	R1063C
591.493	0.015	506720	REC_END	n/a	n/a	4	-999	n/a	n/a	n/a	n/a	4	[0, 0, 0]	-999	PAL1	0	R1063C
591.508	0.275	506728	TEST_ORIENT	n/a	n/a	3	3	PASTE	n/a	HOOK	PASTE	4	[0, 0, 0]	-999	PAL1	0	R1063C
592.443	4.0	507195	TEST_PROBE	n/a	wordpools/wordpool_EN.txt	3	3	PASTE	n/a	HOOK	PASTE	4	[0, 0, 0]	-999	PAL1	0	R1063C
592.443	5.015	507195	REC_START	n/a	n/a	3	-999	n/a	n/a	n/a	n/a	4	[0, 0, 0]	-999	PAL1	0	R1063C
597.458	0.002	509702	REC_EVENT	5015.0	n/a	3	3	PASTE	<>	HOOK	PASTE	4	[0, 0, 0]	-999	PAL1	0	R1063C
597.46	0.017	509703	REC_END	n/a	n/a	3	-999	n/a	n/a	n/a	n/a	4	[0, 0, 0]	-999	PAL1	0	R1063C
597.477	0.275	509712	TEST_ORIENT	n/a	n/a	6	4	LEG	n/a	LEG	CAKE	4	[0, 0, 0]	-999	PAL1	0	R1063C
598.377	4.0	510162	TEST_PROBE	n/a	wordpools/wordpool_EN.txt	6	4	LEG	n/a	LEG	CAKE	4	[0, 0, 0]	-999	PAL1	0	R1063C
598.378	5.007	510162	REC_START	n/a	n/a	6	-999	n/a	n/a	n/a	n/a	4	[0, 0, 0]	-999	PAL1	0	R1063C
603.385	0.002	512666	REC_END	n/a	n/a	6	-999	n/a	n/a	n/a	n/a	4	[0, 0, 0]	-999	PAL1	0	R1063C
603.387	0.008	512667	REC_EVENT	5009.0	n/a	6	4	LEG	<>	LEG	CAKE	4	[0, 0, 0]	-999	PAL1	0	R1063C
603.395	0.275	512671	TEST_ORIENT	n/a	n/a	5	5	SHEEP	n/a	SHEEP	FLAG	4	[0, 0, 0]	-999	PAL1	0	R1063C
604.395	4.0	513171	TEST_PROBE	n/a	wordpools/wordpool_EN.txt	5	5	SHEEP	n/a	SHEEP	FLAG	4	[0, 0, 0]	-999	PAL1	0	R1063C
604.396	5.003	513171	REC_START	n/a	n/a	5	-999	n/a	n/a	n/a	n/a	4	[0, 0, 0]	-999	PAL1	0	R1063C
609.399	0.005	515672	REC_EVENT	5003.0	n/a	5	5	SHEEP	<>	SHEEP	FLAG	4	[0, 0, 0]	-999	PAL1	0	R1063C
609.404	0.009	515675	REC_END	n/a	n/a	5	-999	n/a	n/a	n/a	n/a	4	[0, 0, 0]	-999	PAL1	0	R1063C
609.413	0.275	515679	TEST_ORIENT	n/a	n/a	2	6	BUSH	BEE	NEST	BUSH	4	[0, 0, 0]	-999	PAL1	0	R1063C
610.23	4.0	516088	TEST_PROBE	n/a	wordpools/wordpool_EN.txt	2	6	BUSH	BEE	NEST	BUSH	4	[0, 0, 0]	-999	PAL1	0	R1063C
610.23	2.9	516088	REC_START	n/a	n/a	2	-999	n/a	BEE	n/a	n/a	4	[0, 0, 0]	-999	PAL1	0	R1063C
613.13	1.0	517538	REC_EVENT	2900.0	n/a	2	6	BUSH	BEE	NEST	BUSH	4	[0, 0, 0]	-999	PAL1	0	R1063C
614.13	1.117	518038	REC_EVENT	3900.0	n/a	2	6	BUSH	<>	NEST	BUSH	4	[0, 0, 0]	-999	PAL1	0	R1063C
615.247	7.673	518596	REC_END	n/a	n/a	2	-999	n/a	n/a	n/a	n/a	4	[0, 0, 0]	-999	PAL1	0	R1063C
622.92	10.448	522432	ENCODING_START	n/a	n/a	0	-999	n/a	n/a	n/a	n/a	5	[0, 0, 0]	-999	PAL1	0	R1063C
633.368	0.275	527656	STUDY_ORIENT	n/a	n/a	1	3	WOLF	BEAR	WOLF	PALM	5	[0, 0, 0]	-999	PAL1	0	R1063C
634.201	4.0	528072	STUDY_PAIR	n/a	wordpools/wordpool_EN.txt	1	3	WOLF	BEAR	WOLF	PALM	5	[0, 0, 0]	-999	PAL1	0	R1063C
639.235	0.275	530589	STUDY_ORIENT	n/a	n/a	2	6	HILL	SPOON	FORK	HILL	5	[0, 0, 0]	-999	PAL1	0	R1063C
640.135	4.0	531039	STUDY_PAIR	n/a	wordpools/wordpool_EN.txt	2	6	HILL	SPOON	FORK	HILL	5	[0, 0, 0]	-999	PAL1	0	R1063C
645.153	0.275	533548	STUDY_ORIENT	n/a	n/a	3	1	STEAM	n/a	SHOE	STEAM	5	[0, 0, 0]	-999	PAL1	0	R1063C
646.087	4.0	534015	STUDY_PAIR	n/a	wordpools/wordpool_EN.txt	3	1	STEAM	n/a	SHOE	STEAM	5	[0, 0, 0]	-999	PAL1	0	R1063C
651.121	0.275	536532	STUDY_ORIENT	n/a	n/a	4	4	MAIL	SAIL	MAIL	SAIL	5	[0, 0, 0]	-999	PAL1	0	R1063C
652.138	4.0	537040	STUDY_PAIR	n/a	wordpools/wordpool_EN.txt	4	4	MAIL	SAIL	MAIL	SAIL	5	[0, 0, 0]	-999	PAL1	0	R1063C
657.172	0.275	539557	STUDY_ORIENT	n/a	n/a	5	5	WAND	n/a	GATE	WAND	5	[0, 0, 0]	-999	PAL1	0	R1063C
658.006	4.0	539974	STUDY_PAIR	n/a	wordpools/wordpool_EN.txt	5	5	WAND	n/a	GATE	WAND	5	[0, 0, 0]	-999	PAL1	0	R1063C
663.04	0.275	542491	STUDY_ORIENT	n/a	n/a	6	2	SPOON	n/a	GUARD	SPOON	5	[0, 0, 0]	-999	PAL1	0	R1063C
663.873	4.0	542907	STUDY_PAIR	n/a	wordpools/wordpool_EN.txt	6	2	SPOON	n/a	GUARD	SPOON	5	[0, 0, 0]	-999	PAL1	0	R1063C
667.875	0.999	544908	START	n/a	n/a	-999	-999	n/a	n/a	n/a	n/a	6	[-999, -999, -999]	-999	PAL1	0	R1063C
668.874	0.017	545407	MATH_START	n/a	n/a	-999	-999	n/a	n/a	n/a	n/a	5	[0, 0, 0]	-999	PAL1	0	R1063C
668.891	3.7	545416	PROB	3676.0	n/a	-999	-999	n/a	n/a	n/a	n/a	6	[6, 1, 7]	14	PAL1	0	R1063C
672.591	6.719	547266	PROB	6689.0	n/a	-999	-999	n/a	n/a	n/a	n/a	6	[9, 9, 9]	27	PAL1	0	R1063C
679.31	3.584	550625	PROB	3554.0	n/a	-999	-999	n/a	n/a	n/a	n/a	6	[6, 2, 5]	13	PAL1	0	R1063C
682.894	4.933	552417	PROB	4905.0	n/a	-999	-999	n/a	n/a	n/a	n/a	6	[4, 6, 4]	14	PAL1	0	R1063C
687.827	3.78	554883	PROB	3780.0	n/a	-999	-999	n/a	n/a	n/a	n/a	6	[8, 3, 6]	17	PAL1	0	R1063C
691.607	0.004	556773	STOP	n/a	n/a	-999	-999	n/a	n/a	n/a	n/a	6	[-999, -999, -999]	-999	PAL1	0	R1063C
691.611	0.0	556775	TEST_START	n/a	n/a	-999	-999	n/a	n/a	n/a	n/a	5	[0, 0, 0]	-999	PAL1	0	R1063C
691.611	0.017	556775	MATH_END	n/a	n/a	-999	-999	n/a	n/a	n/a	n/a	5	[0, 0, 0]	-999	PAL1	0	R1063C
691.628	0.275	556783	TEST_ORIENT	n/a	n/a	3	1	STEAM	n/a	SHOE	STEAM	5	[0, 0, 0]	-999	PAL1	0	R1063C
692.445	4.0	557192	TEST_PROBE	n/a	wordpools/wordpool_EN.txt	3	1	STEAM	n/a	SHOE	STEAM	5	[0, 0, 0]	-999	PAL1	0	R1063C
692.449	0.879	557194	REC_START	n/a	n/a	3	-999	n/a	n/a	n/a	n/a	5	[0, 0, 0]	-999	PAL1	0	R1063C
693.328	4.118	557633	REC_EVENT	879.0	n/a	3	1	STEAM	<>	SHOE	STEAM	5	[0, 0, 0]	-999	PAL1	0	R1063C
697.446	0.017	559692	REC_END	n/a	n/a	3	-999	n/a	n/a	n/a	n/a	5	[0, 0, 0]	-999	PAL1	0	R1063C
697.463	0.275	559701	TEST_ORIENT	n/a	n/a	6	2	SPOON	n/a	GUARD	SPOON	5	[0, 0, 0]	-999	PAL1	0	R1063C
698.28	4.0	560109	TEST_PROBE	n/a	wordpools/wordpool_EN.txt	6	2	SPOON	n/a	GUARD	SPOON	5	[0, 0, 0]	-999	PAL1	0	R1063C
698.28	1.102	560109	REC_START	n/a	n/a	6	-999	n/a	n/a	n/a	n/a	5	[0, 0, 0]	-999	PAL1	0	R1063C
699.382	1.0	560660	REC_EVENT	1102.0	n/a	6	2	SPOON	<>	GUARD	SPOON	5	[0, 0, 0]	-999	PAL1	0	R1063C
700.382	2.915	561160	REC_EVENT	2102.0	n/a	6	2	SPOON	<>	GUARD	SPOON	5	[0, 0, 0]	-999	PAL1	0	R1063C
703.297	0.017	562617	REC_END	n/a	n/a	6	-999	n/a	n/a	n/a	n/a	5	[0, 0, 0]	-999	PAL1	0	R1063C
703.314	0.275	562626	TEST_ORIENT	n/a	n/a	1	3	WOLF	BEAR	WOLF	PALM	5	[0, 0, 0]	-999	PAL1	0	R1063C
704.314	4.0	563126	TEST_PROBE	n/a	wordpools/wordpool_EN.txt	1	3	WOLF	BEAR	WOLF	PALM	5	[0, 0, 0]	-999	PAL1	0	R1063C
704.315	2.566	563126	REC_START	n/a	n/a	1	-999	n/a	BEAR	n/a	n/a	5	[0, 0, 0]	-999	PAL1	0	R1063C
706.881	2.444	564409	REC_EVENT	2566.0	n/a	1	3	WOLF	BEAR	WOLF	PALM	5	[0, 0, 0]	-999	PAL1	0	R1063C
709.325	0.007	565631	REC_END	n/a	n/a	1	-999	n/a	n/a	n/a	n/a	5	[0, 0, 0]	-999	PAL1	0	R1063C
709.332	0.275	565635	TEST_ORIENT	n/a	n/a	4	4	MAIL	SAIL	MAIL	SAIL	5	[0, 0, 0]	-999	PAL1	0	R1063C
710.182	4.0	566060	TEST_PROBE	n/a	wordpools/wordpool_EN.txt	4	4	MAIL	SAIL	MAIL	SAIL	5	[0, 0, 0]	-999	PAL1	0	R1063C
710.183	1.68	566060	REC_START	n/a	n/a	4	-999	n/a	SAIL	n/a	n/a	5	[0, 0, 0]	-999	PAL1	0	R1063C
711.863	3.329	566900	REC_EVENT	1680.0	n/a	4	4	MAIL	SAIL	MAIL	SAIL	5	[0, 0, 0]	-999	PAL1	0	R1063C
715.192	0.008	568564	REC_END	n/a	n/a	4	-999	n/a	n/a	n/a	n/a	5	[0, 0, 0]	-999	PAL1	0	R1063C
715.2	0.275	568568	TEST_ORIENT	n/a	n/a	5	5	WAND	n/a	GATE	WAND	5	[0, 0, 0]	-999	PAL1	0	R1063C
716.183	4.0	569060	TEST_PROBE	n/a	wordpools/wordpool_EN.txt	5	5	WAND	n/a	GATE	WAND	5	[0, 0, 0]	-999	PAL1	0	R1063C
716.184	5.009	569060	REC_START	n/a	n/a	5	-999	n/a	n/a	n/a	n/a	5	[0, 0, 0]	-999	PAL1	0	R1063C
721.193	0.0	571565	REC_EVENT	5009.0	n/a	5	5	WAND	<>	GATE	WAND	5	[0, 0, 0]	-999	PAL1	0	R1063C
721.193	0.008	571565	REC_END	n/a	n/a	5	-999	n/a	n/a	n/a	n/a	5	[0, 0, 0]	-999	PAL1	0	R1063C
721.201	0.275	571569	TEST_ORIENT	n/a	n/a	2	6	HILL	SPOON	FORK	HILL	5	[0, 0, 0]	-999	PAL1	0	R1063C
722.035	0.0	571986	REC_START	n/a	n/a	2	-999	n/a	SPOON	n/a	n/a	5	[0, 0, 0]	-999	PAL1	0	R1063C
722.035	4.0	571986	TEST_PROBE	n/a	wordpools/wordpool_EN.txt	2	6	HILL	SPOON	FORK	HILL	5	[0, 0, 0]	-999	PAL1	0	R1063C
724.033	3.019	572984	REC_EVENT	1998.0	n/a	2	6	HILL	SPOON	FORK	HILL	5	[0, 0, 0]	-999	PAL1	0	R1063C
727.052	6.707	574494	REC_END	n/a	n/a	2	-999	n/a	n/a	n/a	n/a	5	[0, 0, 0]	-999	PAL1	0	R1063C
733.759	10.446	577847	ENCODING_START	n/a	n/a	0	-999	n/a	n/a	n/a	n/a	6	[0, 0, 0]	-999	PAL1	0	R1063C
744.205	0.275	583070	STUDY_ORIENT	n/a	n/a	1	5	MUG	n/a	MUG	SLUSH	6	[0, 0, 0]	-999	PAL1	0	R1063C
745.206	4.0	583570	STUDY_PAIR	n/a	wordpools/wordpool_EN.txt	1	5	MUG	n/a	MUG	SLUSH	6	[0, 0, 0]	-999	PAL1	0	R1063C
750.24	0.275	586087	STUDY_ORIENT	n/a	n/a	2	6	BROOM	DOOR	BROOM	SHIELD	6	[0, 0, 0]	-999	PAL1	0	R1063C
751.223	4.0	586578	STUDY_PAIR	n/a	wordpools/wordpool_EN.txt	2	6	BROOM	DOOR	BROOM	SHIELD	6	[0, 0, 0]	-999	PAL1	0	R1063C
756.241	0.275	589087	STUDY_ORIENT	n/a	n/a	3	3	GRAPE	TOAD	TEETH	GRAPE	6	[0, 0, 0]	-999	PAL1	0	R1063C
757.208	4.0	589571	STUDY_PAIR	n/a	wordpools/wordpool_EN.txt	3	3	GRAPE	TOAD	TEETH	GRAPE	6	[0, 0, 0]	-999	PAL1	0	R1063C
762.242	0.275	592087	STUDY_ORIENT	n/a	n/a	4	2	CAVE	WAND	CAVE	BRUSH	6	[0, 0, 0]	-999	PAL1	0	R1063C
763.042	4.0	592487	STUDY_PAIR	n/a	wordpools/wordpool_EN.txt	4	2	CAVE	WAND	CAVE	BRUSH	6	[0, 0, 0]	-999	PAL1	0	R1063C
768.06	0.275	594996	STUDY_ORIENT	n/a	n/a	5	1	TOAD	BRUSH	CONE	TOAD	6	[0, 0, 0]	-999	PAL1	0	R1063C
769.044	4.0	595488	STUDY_PAIR	n/a	wordpools/wordpool_EN.txt	5	1	TOAD	BRUSH	CONE	TOAD	6	[0, 0, 0]	-999	PAL1	0	R1063C
774.078	0.275	598005	STUDY_ORIENT	n/a	n/a	6	4	CROW	TREE	CLOTH	CROW	6	[0, 0, 0]	-999	PAL1	0	R1063C
774.961	4.0	598446	STUDY_PAIR	n/a	wordpools/wordpool_EN.txt	6	4	CROW	TREE	CLOTH	CROW	6	[0, 0, 0]	-999	PAL1	0	R1063C
778.963	0.999	600447	START	n/a	n/a	-999	-999	n/a	n/a	n/a	n/a	7	[-999, -999, -999]	-999	PAL1	0	R1063C
779.962	0.017	600947	MATH_START	n/a	n/a	-999	-999	n/a	n/a	n/a	n/a	6	[0, 0, 0]	-999	PAL1	0	R1063C
779.979	3.55	600955	PROB	3516.0	n/a	-999	-999	n/a	n/a	n/a	n/a	7	[2, 7, 1]	10	PAL1	0	R1063C
783.529	2.684	602730	PROB	2663.0	n/a	-999	-999	n/a	n/a	n/a	n/a	7	[6, 1, 8]	15	PAL1	0	R1063C
786.213	2.868	604072	PROB	2843.0	n/a	-999	-999	n/a	n/a	n/a	n/a	7	[2, 3, 7]	13	PAL1	0	R1063C
789.081	4.384	605506	PROB	4359.0	n/a	-999	-999	n/a	n/a	n/a	n/a	7	[6, 5, 4]	16	PAL1	0	R1063C
793.465	5.066	607697	PROB	5038.0	n/a	-999	-999	n/a	n/a	n/a	n/a	7	[4, 5, 1]	10	PAL1	0	R1063C
798.531	2.949	610230	PROB	2949.0	n/a	-999	-999	n/a	n/a	n/a	n/a	7	[8, 3, 8]	19	PAL1	0	R1063C
801.48	0.003	611705	STOP	n/a	n/a	-999	-999	n/a	n/a	n/a	n/a	7	[-999, -999, -999]	-999	PAL1	0	R1063C
801.483	0.0	611706	TEST_START	n/a	n/a	-999	-999	n/a	n/a	n/a	n/a	6	[0, 0, 0]	-999	PAL1	0	R1063C
801.483	0.016	611706	MATH_END	n/a	n/a	-999	-999	n/a	n/a	n/a	n/a	6	[0, 0, 0]	-999	PAL1	0	R1063C
801.499	0.275	611714	TEST_ORIENT	n/a	n/a	5	1	TOAD	BRUSH	CONE	TOAD	6	[0, 0, 0]	-999	PAL1	0	R1063C
802.3	4.0	612115	TEST_PROBE	n/a	wordpools/wordpool_EN.txt	5	1	TOAD	BRUSH	CONE	TOAD	6	[0, 0, 0]	-999	PAL1	0	R1063C
802.303	1.524	612116	REC_START	n/a	n/a	5	-999	n/a	BRUSH	n/a	n/a	6	[0, 0, 0]	-999	PAL1	0	R1063C
803.827	1.077	612878	REC_EVENT	1524.0	n/a	5	1	TOAD	<>	CONE	TOAD	6	[0, 0, 0]	-999	PAL1	0	R1063C
804.904	2.413	613416	REC_EVENT	2601.0	n/a	5	1	TOAD	BRUSH	CONE	TOAD	6	[0, 0, 0]	-999	PAL1	0	R1063C
807.317	0.017	614623	REC_END	n/a	n/a	5	-999	n/a	n/a	n/a	n/a	6	[0, 0, 0]	-999	PAL1	0	R1063C
807.334	0.275	614631	TEST_ORIENT	n/a	n/a	4	2	CAVE	WAND	CAVE	BRUSH	6	[0, 0, 0]	-999	PAL1	0	R1063C
808.234	4.0	615081	TEST_PROBE	n/a	wordpools/wordpool_EN.txt	4	2	CAVE	WAND	CAVE	BRUSH	6	[0, 0, 0]	-999	PAL1	0	R1063C
808.235	2.164	615082	REC_START	n/a	n/a	4	-999	n/a	WAND	n/a	n/a	6	[0, 0, 0]	-999	PAL1	0	R1063C
810.399	2.464	616164	REC_EVENT	2164.0	n/a	4	2	CAVE	WAND	CAVE	BRUSH	6	[0, 0, 0]	-999	PAL1	0	R1063C
812.863	0.381	617396	REC_EVENT	4628.0	n/a	4	2	CAVE	<>	CAVE	BRUSH	6	[0, 0, 0]	-999	PAL1	0	R1063C
813.244	0.008	617586	REC_END	n/a	n/a	4	-999	n/a	n/a	n/a	n/a	6	[0, 0, 0]	-999	PAL1	0	R1063C
813.252	0.275	617590	TEST_ORIENT	n/a	n/a	3	3	GRAPE	TOAD	TEETH	GRAPE	6	[0, 0, 0]	-999	PAL1	0	R1063C
814.052	4.0	617990	TEST_PROBE	n/a	wordpools/wordpool_EN.txt	3	3	GRAPE	TOAD	TEETH	GRAPE	6	[0, 0, 0]	-999	PAL1	0	R1063C
814.053	3.715	617991	REC_START	n/a	n/a	3	-999	n/a	TOAD	n/a	n/a	6	[0, 0, 0]	-999	PAL1	0	R1063C
817.768	1.294	619848	REC_EVENT	3715.0	n/a	3	3	GRAPE	TOAD	TEETH	GRAPE	6	[0, 0, 0]	-999	PAL1	0	R1063C
819.062	0.007	620495	REC_END	n/a	n/a	3	-999	n/a	n/a	n/a	n/a	6	[0, 0, 0]	-999	PAL1	0	R1063C
819.069	0.275	620498	TEST_ORIENT	n/a	n/a	6	4	CROW	TREE	CLOTH	CROW	6	[0, 0, 0]	-999	PAL1	0	R1063C
819.903	4.0	620915	TEST_PROBE	n/a	wordpools/wordpool_EN.txt	6	4	CROW	TREE	CLOTH	CROW	6	[0, 0, 0]	-999	PAL1	0	R1063C
819.904	2.977	620916	REC_START	n/a	n/a	6	-999	n/a	TREE	n/a	n/a	6	[0, 0, 0]	-999	PAL1	0	R1063C
822.881	1.0	622404	REC_EVENT	2977.0	n/a	6	4	CROW	TREE	CLOTH	CROW	6	[0, 0, 0]	-999	PAL1	0	R1063C
823.881	1.032	622904	REC_EVENT	3977.0	n/a	6	4	CROW	<>	CLOTH	CROW	6	[0, 0, 0]	-999	PAL1	0	R1063C
824.913	0.008	623420	REC_END	n/a	n/a	6	-999	n/a	n/a	n/a	n/a	6	[0, 0, 0]	-999	PAL1	0	R1063C
824.921	0.275	623424	TEST_ORIENT	n/a	n/a	1	5	MUG	n/a	MUG	SLUSH	6	[0, 0, 0]	-999	PAL1	0	R1063C
825.871	4.0	623899	TEST_PROBE	n/a	wordpools/wordpool_EN.txt	1	5	MUG	n/a	MUG	SLUSH	6	[0, 0, 0]	-999	PAL1	0	R1063C
825.872	5.015	623900	REC_START	n/a	n/a	1	-999	n/a	n/a	n/a	n/a	6	[0, 0, 0]	-999	PAL1	0	R1063C
830.887	0.001	626407	REC_EVENT	5015.0	n/a	1	5	MUG	<>	MUG	SLUSH	6	[0, 0, 0]	-999	PAL1	0	R1063C
830.888	0.017	626407	REC_END	n/a	n/a	1	-999	n/a	n/a	n/a	n/a	6	[0, 0, 0]	-999	PAL1	0	R1063C
830.905	0.275	626416	TEST_ORIENT	n/a	n/a	2	6	BROOM	DOOR	BROOM	SHIELD	6	[0, 0, 0]	-999	PAL1	0	R1063C
831.738	4.0	626832	TEST_PROBE	n/a	wordpools/wordpool_EN.txt	2	6	BROOM	DOOR	BROOM	SHIELD	6	[0, 0, 0]	-999	PAL1	0	R1063C
831.739	1.782	626833	REC_START	n/a	n/a	2	-999	n/a	DOOR	n/a	n/a	6	[0, 0, 0]	-999	PAL1	0	R1063C
833.521	1.13	627724	REC_EVENT	1782.0	n/a	2	6	BROOM	<>	BROOM	SHIELD	6	[0, 0, 0]	-999	PAL1	0	R1063C
834.651	0.985	628289	REC_EVENT	2912.0	n/a	2	6	BROOM	<>	BROOM	SHIELD	6	[0, 0, 0]	-999	PAL1	0	R1063C
835.636	1.129	628781	REC_EVENT	3897.0	n/a	2	6	BROOM	DOOR	BROOM	SHIELD	6	[0, 0, 0]	-999	PAL1	0	R1063C
836.765	3.89	629346	REC_END	n/a	n/a	2	-999	n/a	n/a	n/a	n/a	6	[0, 0, 0]	-999	PAL1	0	R1063C
840.655	10.454	631290	ENCODING_START	n/a	n/a	0	-999	n/a	n/a	n/a	n/a	7	[0, 0, 0]	-999	PAL1	0	R1063C
851.109	0.275	636517	STUDY_ORIENT	n/a	n/a	1	3	GRASS	PASS	GRASS	BOARD	7	[0, 0, 0]	-999	PAL1	0	R1063C
852.093	4.0	637009	STUDY_PAIR	n/a	wordpools/wordpool_EN.txt	1	3	GRASS	PASS	GRASS	BOARD	7	[0, 0, 0]	-999	PAL1	0	R1063C
857.127	0.275	639526	STUDY_ORIENT	n/a	n/a	2	2	ROPE	WORLD	WORLD	ROPE	7	[0, 0, 0]	-999	PAL1	0	R1063C
857.944	4.0	639934	STUDY_PAIR	n/a	wordpools/wordpool_EN.txt	2	2	ROPE	WORLD	WORLD	ROPE	7	[0, 0, 0]	-999	PAL1	0	R1063C
862.978	0.275	642451	STUDY_ORIENT	n/a	n/a	3	1	PEAR	PASS	BALL	PEAR	7	[0, 0, 0]	-999	PAL1	0	R1063C
863.912	4.0	642918	STUDY_PAIR	n/a	wordpools/wordpool_EN.txt	3	1	PEAR	PASS	BALL	PEAR	7	[0, 0, 0]	-999	PAL1	0	R1063C
868.946	0.275	645435	STUDY_ORIENT	n/a	n/a	4	6	BAND	COW	BAND	COW	7	[0, 0, 0]	-999	PAL1	0	R1063C
869.963	4.0	645943	STUDY_PAIR	n/a	wordpools/wordpool_EN.txt	4	6	BAND	COW	BAND	COW	7	[0, 0, 0]	-999	PAL1	0	R1063C
874.997	0.275	648460	STUDY_ORIENT	n/a	n/a	5	5	SNOW	GLASS	GLASS	SNOW	7	[0, 0, 0]	-999	PAL1	0	R1063C
875.897	4.0	648910	STUDY_PAIR	n/a	wordpools/wordpool_EN.txt	5	5	SNOW	GLASS	GLASS	SNOW	7	[0, 0, 0]	-999	PAL1	0	R1063C
880.915	0.275	651419	STUDY_ORIENT	n/a	n/a	6	4	PURSE	CHIEF	PURSE	CHIEF	7	[0, 0, 0]	-999	PAL1	0	R1063C
881.781	4.0	651852	STUDY_PAIR	n/a	wordpools/wordpool_EN.txt	6	4	PURSE	CHIEF	PURSE	CHIEF	7	[0, 0, 0]	-999	PAL1	0	R1063C
885.799	0.999	653861	START	n/a	n/a	-999	-999	n/a	n/a	n/a	n/a	8	[-999, -999, -999]	-999	PAL1	0	R1063C
886.798	0.017	654360	MATH_START	n/a	n/a	-999	-999	n/a	n/a	n/a	n/a	7	[0, 0, 0]	-999	PAL1	0	R1063C
886.815	5.202	654368	PROB	5177.0	n/a	-999	-999	n/a	n/a	n/a	n/a	8	[2, 7, 8]	17	PAL1	0	R1063C
892.017	3.867	656969	PROB	3847.0	n/a	-999	-999	n/a	n/a	n/a	n/a	8	[1, 8, 7]	16	PAL1	0	R1063C
895.884	3.368	658903	PROB	3348.0	n/a	-999	-999	n/a	n/a	n/a	n/a	8	[1, 7, 4]	12	PAL1	0	R1063C
899.252	2.566	660586	PROB	2531.0	n/a	-999	-999	n/a	n/a	n/a	n/a	8	[3, 6, 6]	15	PAL1	0	R1063C
901.818	2.268	661869	PROB	2238.0	n/a	-999	-999	n/a	n/a	n/a	n/a	8	[1, 9, 6]	16	PAL1	0	R1063C
904.086	3.386	663003	PROB	3386.0	n/a	-999	-999	n/a	n/a	n/a	n/a	8	[7, 8, 3]	18	PAL1	0	R1063C
907.472	0.015	664696	STOP	n/a	n/a	-999	-999	n/a	n/a	n/a	n/a	8	[-999, -999, -999]	-999	PAL1	0	R1063C
907.487	0.0	664704	MATH_END	n/a	n/a	-999	-999	n/a	n/a	n/a	n/a	7	[0, 0, 0]	-999	PAL1	0	R1063C
907.487	0.015	664704	TEST_START	n/a	n/a	-999	-999	n/a	n/a	n/a	n/a	7	[0, 0, 0]	-999	PAL1	0	R1063C
907.502	0.275	664711	TEST_ORIENT	n/a	n/a	3	1	PEAR	PASS	BALL	PEAR	7	[0, 0, 0]	-999	PAL1	0	R1063C
908.42	4.0	665170	TEST_PROBE	n/a	wordpools/wordpool_EN.txt	3	1	PEAR	PASS	BALL	PEAR	7	[0, 0, 0]	-999	PAL1	0	R1063C
908.423	2.151	665172	REC_START	n/a	n/a	3	-999	n/a	PASS	n/a	n/a	7	[0, 0, 0]	-999	PAL1	0	R1063C
910.574	2.847	666247	REC_EVENT	2151.0	n/a	3	1	PEAR	PASS	BALL	PEAR	7	[0, 0, 0]	-999	PAL1	0	R1063C
913.421	0.017	667670	REC_END	n/a	n/a	3	-999	n/a	n/a	n/a	n/a	7	[0, 0, 0]	-999	PAL1	0	R1063C
913.438	0.275	667679	TEST_ORIENT	n/a	n/a	2	2	ROPE	WORLD	WORLD	ROPE	7	[0, 0, 0]	-999	PAL1	0	R1063C
914.405	4.0	668162	TEST_PROBE	n/a	wordpools/wordpool_EN.txt	2	2	ROPE	WORLD	WORLD	ROPE	7	[0, 0, 0]	-999	PAL1	0	R1063C
914.405	2.833	668162	REC_START	n/a	n/a	2	-999	n/a	WORLD	n/a	n/a	7	[0, 0, 0]	-999	PAL1	0	R1063C
917.238	2.184	669579	REC_EVENT	2833.0	n/a	2	2	ROPE	WORLD	WORLD	ROPE	7	[0, 0, 0]	-999	PAL1	0	R1063C
919.422	0.017	670671	REC_END	n/a	n/a	2	-999	n/a	n/a	n/a	n/a	7	[0, 0, 0]	-999	PAL1	0	R1063C
919.439	0.275	670679	TEST_ORIENT	n/a	n/a	1	3	GRASS	PASS	GRASS	BOARD	7	[0, 0, 0]	-999	PAL1	0	R1063C
920.389	4.0	671154	TEST_PROBE	n/a	wordpools/wordpool_EN.txt	1	3	GRASS	PASS	GRASS	BOARD	7	[0, 0, 0]	-999	PAL1	0	R1063C
920.39	2.926	671155	REC_START	n/a	n/a	1	-999	n/a	PASS	n/a	n/a	7	[0, 0, 0]	-999	PAL1	0	R1063C
923.316	2.083	672617	REC_EVENT	2926.0	n/a	1	3	GRASS	PASS	GRASS	BOARD	7	[0, 0, 0]	-999	PAL1	0	R1063C
925.399	0.008	673659	REC_END	n/a	n/a	1	-999	n/a	n/a	n/a	n/a	7	[0, 0, 0]	-999	PAL1	0	R1063C
925.407	0.275	673663	TEST_ORIENT	n/a	n/a	6	4	PURSE	CHIEF	PURSE	CHIEF	7	[0, 0, 0]	-999	PAL1	0	R1063C
926.224	4.0	674071	TEST_PROBE	n/a	wordpools/wordpool_EN.txt	6	4	PURSE	CHIEF	PURSE	CHIEF	7	[0, 0, 0]	-999	PAL1	0	R1063C
926.224	2.062	674071	REC_START	n/a	n/a	6	-999	n/a	CHIEF	n/a	n/a	7	[0, 0, 0]	-999	PAL1	0	R1063C
928.286	2.955	675102	REC_EVENT	2062.0	n/a	6	4	PURSE	CHIEF	PURSE	CHIEF	7	[0, 0, 0]	-999	PAL1	0	R1063C
931.241	0.017	676580	REC_END	n/a	n/a	6	-999	n/a	n/a	n/a	n/a	7	[0, 0, 0]	-999	PAL1	0	R1063C
931.258	0.275	676588	TEST_ORIENT	n/a	n/a	5	5	SNOW	GLASS	GLASS	SNOW	7	[0, 0, 0]	-999	PAL1	0	R1063C
932.175	4.0	677047	TEST_PROBE	n/a	wordpools/wordpool_EN.txt	5	5	SNOW	GLASS	GLASS	SNOW	7	[0, 0, 0]	-999	PAL1	0	R1063C
932.175	1.41	677047	REC_START	n/a	n/a	5	-999	n/a	GLASS	n/a	n/a	7	[0, 0, 0]	-999	PAL1	0	R1063C
933.585	3.607	677751	REC_EVENT	1410.0	n/a	5	5	SNOW	GLASS	GLASS	SNOW	7	[0, 0, 0]	-999	PAL1	0	R1063C
937.192	0.017	679555	REC_END	n/a	n/a	5	-999	n/a	n/a	n/a	n/a	7	[0, 0, 0]	-999	PAL1	0	R1063C
937.209	0.275	679563	TEST_ORIENT	n/a	n/a	4	6	BAND	COW	BAND	COW	7	[0, 0, 0]	-999	PAL1	0	R1063C
938.043	4.0	679980	TEST_PROBE	n/a	wordpools/wordpool_EN.txt	4	6	BAND	COW	BAND	COW	7	[0, 0, 0]	-999	PAL1	0	R1063C
938.043	1.342	679980	REC_START	n/a	n/a	4	-999	n/a	COW	n/a	n/a	7	[0, 0, 0]	-999	PAL1	0	R1063C
939.385	3.675	680651	REC_EVENT	1342.0	n/a	4	6	BAND	COW	BAND	COW	7	[0, 0, 0]	-999	PAL1	0	R1063C
943.06	2.531	682489	REC_END	n/a	n/a	4	-999	n/a	n/a	n/a	n/a	7	[0, 0, 0]	-999	PAL1	0	R1063C
945.591	10.438	683754	ENCODING_START	n/a	n/a	0	-999	n/a	n/a	n/a	n/a	8	[0, 0, 0]	-999	PAL1	0	R1063C
956.029	0.275	688973	STUDY_ORIENT	n/a	n/a	1	5	TENT	NAIL	TENT	NAIL	8	[0, 0, 0]	-999	PAL1	0	R1063C
956.996	4.0	689456	STUDY_PAIR	n/a	wordpools/wordpool_EN.txt	1	5	TENT	NAIL	TENT	NAIL	8	[0, 0, 0]	-999	PAL1	0	R1063C
962.014	0.275	691965	STUDY_ORIENT	n/a	n/a	2	6	KITE	KITE	KITE	FLUTE	8	[0, 0, 0]	-999	PAL1	0	R1063C
962.981	4.0	692448	STUDY_PAIR	n/a	wordpools/wordpool_EN.txt	2	6	KITE	KITE	KITE	FLUTE	8	[0, 0, 0]	-999	PAL1	0	R1063C
968.015	0.275	694965	STUDY_ORIENT	n/a	n/a	3	3	WHALE	CAVE	VASE	WHALE	8	[0, 0, 0]	-999	PAL1	0	R1063C
968.965	4.0	695440	STUDY_PAIR	n/a	wordpools/wordpool_EN.txt	3	3	WHALE	CAVE	VASE	WHALE	8	[0, 0, 0]	-999	PAL1	0	R1063C
973.983	0.275	697949	STUDY_ORIENT	n/a	n/a	4	4	SNAIL	PASS	SNAIL	SPEAR	8	[0, 0, 0]	-999	PAL1	0	R1063C
974.933	4.0	698424	STUDY_PAIR	n/a	wordpools/wordpool_EN.txt	4	4	SNAIL	PASS	SNAIL	SPEAR	8	[0, 0, 0]	-999	PAL1	0	R1063C
979.967	0.275	700941	STUDY_ORIENT	n/a	n/a	5	1	LAMB	STOVE	STAR	LAMB	8	[0, 0, 0]	-999	PAL1	0	R1063C
980.867	4.0	701390	STUDY_PAIR	n/a	wordpools/wordpool_EN.txt	5	1	LAMB	STOVE	STAR	LAMB	8	[0, 0, 0]	-999	PAL1	0	R1063C
985.885	0.275	703899	STUDY_ORIENT	n/a	n/a	6	2	JAIL	STOVE	JAIL	STOVE	8	[0, 0, 0]	-999	PAL1	0	R1063C
986.734	4.0	704324	STUDY_PAIR	n/a	wordpools/wordpool_EN.txt	6	2	JAIL	STOVE	JAIL	STOVE	8	[0, 0, 0]	-999	PAL1	0	R1063C
990.735	1.0	706324	START	n/a	n/a	-999	-999	n/a	n/a	n/a	n/a	9	[-999, -999, -999]	-999	PAL1	0	R1063C
991.735	0.017	706824	MATH_START	n/a	n/a	-999	-999	n/a	n/a	n/a	n/a	8	[0, 0, 0]	-999	PAL1	0	R1063C
991.752	10.536	706833	PROB	10512.0	n/a	-999	-999	n/a	n/a	n/a	n/a	9	[7, 9, 5]	21	PAL1	0	R1063C
1002.288	4.101	712100	PROB	4072.0	n/a	-999	-999	n/a	n/a	n/a	n/a	9	[2, 2, 6]	10	PAL1	0	R1063C
1006.389	4.515	714150	PROB	4515.0	n/a	-999	-999	n/a	n/a	n/a	n/a	9	[8, 3, 6]	17	PAL1	0	R1063C
1010.904	0.002	716408	STOP	n/a	n/a	-999	-999	n/a	n/a	n/a	n/a	9	[-999, -999, -999]	-999	PAL1	0	R1063C
1010.906	0.0	716409	MATH_END	n/a	n/a	-999	-999	n/a	n/a	n/a	n/a	8	[0, 0, 0]	-999	PAL1	0	R1063C
1010.906	0.017	716409	TEST_START	n/a	n/a	-999	-999	n/a	n/a	n/a	n/a	8	[0, 0, 0]	-999	PAL1	0	R1063C
1010.923	0.275	716417	TEST_ORIENT	n/a	n/a	5	1	LAMB	STOVE	STAR	LAMB	8	[0, 0, 0]	-999	PAL1	0	R1063C
1011.806	4.0	716859	TEST_PROBE	n/a	wordpools/wordpool_EN.txt	5	1	LAMB	STOVE	STAR	LAMB	8	[0, 0, 0]	-999	PAL1	0	R1063C
1011.806	3.759	716859	REC_START	n/a	n/a	5	-999	n/a	STOVE	n/a	n/a	8	[0, 0, 0]	-999	PAL1	0	R1063C
1015.565	0.853	718738	REC_EVENT	3759.0	n/a	5	1	LAMB	STOVE	STAR	LAMB	8	[0, 0, 0]	-999	PAL1	0	R1063C
1016.418	0.405	719164	REC_EVENT	4612.0	n/a	5	1	LAMB	<>	STAR	LAMB	8	[0, 0, 0]	-999	PAL1	0	R1063C
1016.823	0.017	719367	REC_END	n/a	n/a	5	-999	n/a	n/a	n/a	n/a	8	[0, 0, 0]	-999	PAL1	0	R1063C
1016.84	0.275	719375	TEST_ORIENT	n/a	n/a	6	2	JAIL	STOVE	JAIL	STOVE	8	[0, 0, 0]	-999	PAL1	0	R1063C
1017.723	4.0	719817	TEST_PROBE	n/a	wordpools/wordpool_EN.txt	6	2	JAIL	STOVE	JAIL	STOVE	8	[0, 0, 0]	-999	PAL1	0	R1063C
1017.724	1.415	719817	REC_START	n/a	n/a	6	-999	n/a	STOVE	n/a	n/a	8	[0, 0, 0]	-999	PAL1	0	R1063C
1019.139	1.203	720525	REC_EVENT	1415.0	n/a	6	2	JAIL	<>	JAIL	STOVE	8	[0, 0, 0]	-999	PAL1	0	R1063C
1020.342	1.151	721126	REC_EVENT	2618.0	n/a	6	2	JAIL	STOVE	JAIL	STOVE	8	[0, 0, 0]	-999	PAL1	0	R1063C
1021.493	1.241	721702	REC_EVENT	3769.0	n/a	6	2	JAIL	<>	JAIL	STOVE	8	[0, 0, 0]	-999	PAL1	0	R1063C
1022.734	0.007	722322	REC_END	n/a	n/a	6	-999	n/a	n/a	n/a	n/a	8	[0, 0, 0]	-999	PAL1	0	R1063C
1022.741	0.275	722326	TEST_ORIENT	n/a	n/a	3	3	WHALE	CAVE	VASE	WHALE	8	[0, 0, 0]	-999	PAL1	0	R1063C
1023.591	4.0	722751	TEST_PROBE	n/a	wordpools/wordpool_EN.txt	3	3	WHALE	CAVE	VASE	WHALE	8	[0, 0, 0]	-999	PAL1	0	R1063C
1023.592	1.213	722751	REC_START	n/a	n/a	3	-999	n/a	CAVE	n/a	n/a	8	[0, 0, 0]	-999	PAL1	0	R1063C
1024.805	0.749	723358	REC_EVENT	1213.0	n/a	3	3	WHALE	<>	VASE	WHALE	8	[0, 0, 0]	-999	PAL1	0	R1063C
1025.554	1.568	723732	REC_EVENT	1962.0	n/a	3	3	WHALE	<>	VASE	WHALE	8	[0, 0, 0]	-999	PAL1	0	R1063C
1027.122	1.035	724516	REC_EVENT	3530.0	n/a	3	3	WHALE	CAVE	VASE	WHALE	8	[0, 0, 0]	-999	PAL1	0	R1063C
1028.157	0.445	725033	REC_EVENT	4565.0	n/a	3	3	WHALE	<>	VASE	WHALE	8	[0, 0, 0]	-999	PAL1	0	R1063C
1028.602	0.007	725256	REC_END	n/a	n/a	3	-999	n/a	n/a	n/a	n/a	8	[0, 0, 0]	-999	PAL1	0	R1063C
1028.609	0.275	725259	TEST_ORIENT	n/a	n/a	4	4	SNAIL	PASS	SNAIL	SPEAR	8	[0, 0, 0]	-999	PAL1	0	R1063C
1029.393	4.0	725651	TEST_PROBE	n/a	wordpools/wordpool_EN.txt	4	4	SNAIL	PASS	SNAIL	SPEAR	8	[0, 0, 0]	-999	PAL1	0	R1063C
1029.394	0.885	725652	REC_START	n/a	n/a	4	-999	n/a	PASS	n/a	n/a	8	[0, 0, 0]	-999	PAL1	0	R1063C
1030.279	1.708	726094	REC_EVENT	885.0	n/a	4	4	SNAIL	<>	SNAIL	SPEAR	8	[0, 0, 0]	-999	PAL1	0	R1063C
1031.987	2.416	726948	REC_EVENT	2593.0	n/a	4	4	SNAIL	PASS	SNAIL	SPEAR	8	[0, 0, 0]	-999	PAL1	0	R1063C
1034.403	0.008	728156	REC_END	n/a	n/a	4	-999	n/a	n/a	n/a	n/a	8	[0, 0, 0]	-999	PAL1	0	R1063C
1034.411	0.275	728160	TEST_ORIENT	n/a	n/a	1	5	TENT	NAIL	TENT	NAIL	8	[0, 0, 0]	-999	PAL1	0	R1063C
1035.295	4.0	728602	TEST_PROBE	n/a	wordpools/wordpool_EN.txt	1	5	TENT	NAIL	TENT	NAIL	8	[0, 0, 0]	-999	PAL1	0	R1063C
1035.295	2.743	728602	REC_START	n/a	n/a	1	-999	n/a	NAIL	n/a	n/a	8	[0, 0, 0]	-999	PAL1	0	R1063C
1038.038	0.373	729974	REC_EVENT	2743.0	n/a	1	5	TENT	<>	TENT	NAIL	8	[0, 0, 0]	-999	PAL1	0	R1063C
1038.411	1.901	730160	REC_EVENT	3116.0	n/a	1	5	TENT	NAIL	TENT	NAIL	8	[0, 0, 0]	-999	PAL1	0	R1063C
1040.312	0.017	731110	REC_END	n/a	n/a	1	-999	n/a	n/a	n/a	n/a	8	[0, 0, 0]	-999	PAL1	0	R1063C
1040.329	0.275	731119	TEST_ORIENT	n/a	n/a	2	6	KITE	KITE	KITE	FLUTE	8	[0, 0, 0]	-999	PAL1	0	R1063C
1041.196	4.0	731552	TEST_PROBE	n/a	wordpools/wordpool_EN.txt	2	6	KITE	KITE	KITE	FLUTE	8	[0, 0, 0]	-999	PAL1	0	R1063C
1041.196	2.115	731552	REC_START	n/a	n/a	2	-999	n/a	KITE	n/a	n/a	8	[0, 0, 0]	-999	PAL1	0	R1063C
1043.311	1.598	732610	REC_EVENT	2115.0	n/a	2	6	KITE	KITE	KITE	FLUTE	8	[0, 0, 0]	-999	PAL1	0	R1063C
1044.909	1.0	733409	REC_EVENT	3713.0	n/a	2	6	KITE	<>	KITE	FLUTE	8	[0, 0, 0]	-999	PAL1	0	R1063C
1045.909	0.314	733909	REC_EVENT	4713.0	n/a	2	6	KITE	<>	KITE	FLUTE	8	[0, 0, 0]	-999	PAL1	0	R1063C
1046.223	2.544	734066	REC_END	n/a	n/a	2	-999	n/a	n/a	n/a	n/a	8	[0, 0, 0]	-999	PAL1	0	R1063C
1048.767	10.449	735338	ENCODING_START	n/a	n/a	0	-999	n/a	n/a	n/a	n/a	9	[0, 0, 0]	-999	PAL1	0	R1063C
1059.216	0.275	740562	STUDY_ORIENT	n/a	n/a	1	1	HAND	SPARE	HAND	PANTS	9	[0, 0, 0]	-999	PAL1	0	R1063C
1060.149	4.0	741028	STUDY_PAIR	n/a	wordpools/wordpool_EN.txt	1	1	HAND	SPARE	HAND	PANTS	9	[0, 0, 0]	-999	PAL1	0	R1063C
1065.167	0.275	743537	STUDY_ORIENT	n/a	n/a	2	4	STAIR	STAIR	CALF	STAIR	9	[0, 0, 0]	-999	PAL1	0	R1063C
1066.017	4.0	743962	STUDY_PAIR	n/a	wordpools/wordpool_EN.txt	2	4	STAIR	STAIR	CALF	STAIR	9	[0, 0, 0]	-999	PAL1	0	R1063C
1071.051	0.275	746479	STUDY_ORIENT	n/a	n/a	3	3	FAN	PASS	FAN	FOX	9	[0, 0, 0]	-999	PAL1	0	R1063C
1071.985	4.0	746946	STUDY_PAIR	n/a	wordpools/wordpool_EN.txt	3	3	FAN	PASS	FAN	FOX	9	[0, 0, 0]	-999	PAL1	0	R1063C
1077.019	0.275	749462	STUDY_ORIENT	n/a	n/a	4	2	RICE	POLE	POLE	RICE	9	[0, 0, 0]	-999	PAL1	0	R1063C
1077.903	4.0	749904	STUDY_PAIR	n/a	wordpools/wordpool_EN.txt	4	2	RICE	POLE	POLE	RICE	9	[0, 0, 0]	-999	PAL1	0	R1063C
1082.937	0.275	752421	STUDY_ORIENT	n/a	n/a	5	5	RIB	KEY	RIB	KEY	9	[0, 0, 0]	-999	PAL1	0	R1063C
1083.836	4.0	752871	STUDY_PAIR	n/a	wordpools/wordpool_EN.txt	5	5	RIB	KEY	RIB	KEY	9	[0, 0, 0]	-999	PAL1	0	R1063C
1088.872	0.275	755388	STUDY_ORIENT	n/a	n/a	6	6	TRUCK	EAR	EAR	TRUCK	9	[0, 0, 0]	-999	PAL1	0	R1063C
1089.687	4.0	755796	STUDY_PAIR	n/a	wordpools/wordpool_EN.txt	6	6	TRUCK	EAR	EAR	TRUCK	9	[0, 0, 0]	-999	PAL1	0	R1063C
1093.688	1.0	757796	START	n/a	n/a	-999	-999	n/a	n/a	n/a	n/a	10	[-999, -999, -999]	-999	PAL1	0	R1063C
1094.688	0.017	758296	MATH_START	n/a	n/a	-999	-999	n/a	n/a	n/a	n/a	9	[0, 0, 0]	-999	PAL1	0	R1063C
1094.705	5.101	758305	PROB	5078.0	n/a	-999	-999	n/a	n/a	n/a	n/a	10	[2, 1, 3]	6	PAL1	0	R1063C
1099.806	3.335	760855	PROB	3306.0	n/a	-999	-999	n/a	n/a	n/a	n/a	10	[7, 5, 3]	15	PAL1	0	R1063C
1103.141	1.666	762522	PROB	1634.0	n/a	-999	-999	n/a	n/a	n/a	n/a	10	[1, 1, 2]	4	PAL1	0	R1063C
1104.807	2.185	763355	PROB	2161.0	n/a	-999	-999	n/a	n/a	n/a	n/a	10	[5, 2, 2]	9	PAL1	0	R1063C
1106.992	5.351	764448	PROB	5328.0	n/a	-999	-999	n/a	n/a	n/a	n/a	10	[8, 9, 5]	22	PAL1	0	R1063C
1112.343	3.2	767123	PROB	3200.0	n/a	-999	-999	n/a	n/a	n/a	n/a	10	[5, 5, 9]	19	PAL1	0	R1063C
1115.543	0.016	768723	STOP	n/a	n/a	-999	-999	n/a	n/a	n/a	n/a	10	[-999, -999, -999]	-999	PAL1	0	R1063C
1115.559	0.0	768731	TEST_START	n/a	n/a	-999	-999	n/a	n/a	n/a	n/a	9	[0, 0, 0]	-999	PAL1	0	R1063C
1115.559	0.017	768731	MATH_END	n/a	n/a	-999	-999	n/a	n/a	n/a	n/a	9	[0, 0, 0]	-999	PAL1	0	R1063C
1115.576	0.275	768739	TEST_ORIENT	n/a	n/a	1	1	HAND	SPARE	HAND	PANTS	9	[0, 0, 0]	-999	PAL1	0	R1063C
1116.427	4.0	769165	TEST_PROBE	n/a	wordpools/wordpool_EN.txt	1	1	HAND	SPARE	HAND	PANTS	9	[0, 0, 0]	-999	PAL1	0	R1063C
1116.427	1.224	769165	REC_START	n/a	n/a	1	-999	n/a	SPARE	n/a	n/a	9	[0, 0, 0]	-999	PAL1	0	R1063C
1117.651	0.792	769777	REC_EVENT	1224.0	n/a	1	1	HAND	<>	HAND	PANTS	9	[0, 0, 0]	-999	PAL1	0	R1063C
1118.443	1.0	770173	REC_EVENT	2016.0	n/a	1	1	HAND	SPARE	HAND	PANTS	9	[0, 0, 0]	-999	PAL1	0	R1063C
1119.443	1.074	770673	REC_EVENT	3016.0	n/a	1	1	HAND	<>	HAND	PANTS	9	[0, 0, 0]	-999	PAL1	0	R1063C
1120.517	0.927	771210	REC_EVENT	4090.0	n/a	1	1	HAND	<>	HAND	PANTS	9	[0, 0, 0]	-999	PAL1	0	R1063C
1121.444	0.017	771673	REC_END	n/a	n/a	1	-999	n/a	n/a	n/a	n/a	9	[0, 0, 0]	-999	PAL1	0	R1063C
1121.461	0.275	771681	TEST_ORIENT	n/a	n/a	4	2	RICE	POLE	POLE	RICE	9	[0, 0, 0]	-999	PAL1	0	R1063C
1122.495	4.0	772198	TEST_PROBE	n/a	wordpools/wordpool_EN.txt	4	2	RICE	POLE	POLE	RICE	9	[0, 0, 0]	-999	PAL1	0	R1063C
1122.495	0.9	772198	REC_START	n/a	n/a	4	-999	n/a	POLE	n/a	n/a	9	[0, 0, 0]	-999	PAL1	0	R1063C
1123.395	1.034	772648	REC_EVENT	900.0	n/a	4	2	RICE	RICE	POLE	RICE	9	[0, 0, 0]	-999	PAL1	0	R1063C
1124.429	3.082	773165	REC_EVENT	1934.0	n/a	4	2	RICE	POLE	POLE	RICE	9	[0, 0, 0]	-999	PAL1	0	R1063C
1127.511	0.017	774706	REC_END	n/a	n/a	4	-999	n/a	n/a	n/a	n/a	9	[0, 0, 0]	-999	PAL1	0	R1063C
1127.528	0.275	774715	TEST_ORIENT	n/a	n/a	3	3	FAN	PASS	FAN	FOX	9	[0, 0, 0]	-999	PAL1	0	R1063C
1128.561	4.0	775231	TEST_PROBE	n/a	wordpools/wordpool_EN.txt	3	3	FAN	PASS	FAN	FOX	9	[0, 0, 0]	-999	PAL1	0	R1063C
1128.562	0.222	775232	REC_START	n/a	n/a	3	-999	n/a	PASS	n/a	n/a	9	[0, 0, 0]	-999	PAL1	0	R1063C
1128.784	3.435	775343	REC_EVENT	222.0	n/a	3	3	FAN	BEAR	FAN	FOX	9	[0, 0, 0]	-999	PAL1	0	R1063C
1132.219	1.352	777060	REC_EVENT	3657.0	n/a	3	3	FAN	PASS	FAN	FOX	9	[0, 0, 0]	-999	PAL1	0	R1063C
1133.571	0.008	777736	REC_END	n/a	n/a	3	-999	n/a	n/a	n/a	n/a	9	[0, 0, 0]	-999	PAL1	0	R1063C
1133.579	0.275	777740	TEST_ORIENT	n/a	n/a	2	4	STAIR	STAIR	CALF	STAIR	9	[0, 0, 0]	-999	PAL1	0	R1063C
1134.513	4.0	778207	TEST_PROBE	n/a	wordpools/wordpool_EN.txt	2	4	STAIR	STAIR	CALF	STAIR	9	[0, 0, 0]	-999	PAL1	0	R1063C
1134.513	1.685	778207	REC_START	n/a	n/a	2	-999	n/a	STAIR	n/a	n/a	9	[0, 0, 0]	-999	PAL1	0	R1063C
1136.198	1.0	779049	REC_EVENT	1685.0	n/a	2	4	STAIR	STAIR	CALF	STAIR	9	[0, 0, 0]	-999	PAL1	0	R1063C
1137.198	2.057	779549	REC_EVENT	2685.0	n/a	2	4	STAIR	<>	CALF	STAIR	9	[0, 0, 0]	-999	PAL1	0	R1063C
1139.255	0.284	780578	REC_EVENT	4742.0	n/a	2	4	STAIR	<>	CALF	STAIR	9	[0, 0, 0]	-999	PAL1	0	R1063C
1139.539	0.008	780720	REC_END	n/a	n/a	2	-999	n/a	n/a	n/a	n/a	9	[0, 0, 0]	-999	PAL1	0	R1063C
1139.547	0.275	780724	TEST_ORIENT	n/a	n/a	5	5	RIB	KEY	RIB	KEY	9	[0, 0, 0]	-999	PAL1	0	R1063C
1140.547	4.0	781224	TEST_PROBE	n/a	wordpools/wordpool_EN.txt	5	5	RIB	KEY	RIB	KEY	9	[0, 0, 0]	-999	PAL1	0	R1063C
1140.548	2.17	781224	REC_START	n/a	n/a	5	-999	n/a	KEY	n/a	n/a	9	[0, 0, 0]	-999	PAL1	0	R1063C
1142.718	2.847	782309	REC_EVENT	2170.0	n/a	5	5	RIB	KEY	RIB	KEY	9	[0, 0, 0]	-999	PAL1	0	R1063C
1145.565	0.016	783732	REC_END	n/a	n/a	5	-999	n/a	n/a	n/a	n/a	9	[0, 0, 0]	-999	PAL1	0	R1063C
1145.581	0.275	783740	TEST_ORIENT	n/a	n/a	6	6	TRUCK	EAR	EAR	TRUCK	9	[0, 0, 0]	-999	PAL1	0	R1063C
1146.399	4.0	784149	TEST_PROBE	n/a	wordpools/wordpool_EN.txt	6	6	TRUCK	EAR	EAR	TRUCK	9	[0, 0, 0]	-999	PAL1	0	R1063C
1146.399	2.915	784149	REC_START	n/a	n/a	6	-999	n/a	EAR	n/a	n/a	9	[0, 0, 0]	-999	PAL1	0	R1063C
1149.314	2.103	785607	REC_EVENT	2915.0	n/a	6	6	TRUCK	EAR	EAR	TRUCK	9	[0, 0, 0]	-999	PAL1	0	R1063C
1151.417	2.687	786658	REC_END	n/a	n/a	6	-999	n/a	n/a	n/a	n/a	9	[0, 0, 0]	-999	PAL1	0	R1063C
1154.104	10.448	788002	ENCODING_START	n/a	n/a	0	-999	n/a	n/a	n/a	n/a	10	[0, 0, 0]	-999	PAL1	0	R1063C
1164.552	0.275	793225	STUDY_ORIENT	n/a	n/a	1	3	LOCK	WEED	LOCK	WEED	10	[0, 0, 0]	-999	PAL1	0	R1063C
1165.486	4.0	793692	STUDY_PAIR	n/a	wordpools/wordpool_EN.txt	1	3	LOCK	WEED	LOCK	WEED	10	[0, 0, 0]	-999	PAL1	0	R1063C
1170.503	0.275	796200	STUDY_ORIENT	n/a	n/a	2	2	WEB	PASS	HEN	WEB	10	[0, 0, 0]	-999	PAL1	0	R1063C
1171.321	4.0	796609	STUDY_PAIR	n/a	wordpools/wordpool_EN.txt	2	2	WEB	PASS	HEN	WEB	10	[0, 0, 0]	-999	PAL1	0	R1063C
1176.355	0.275	799126	STUDY_ORIENT	n/a	n/a	3	5	ARK	CHAIR	ARK	SLIME	10	[0, 0, 0]	-999	PAL1	0	R1063C
1177.255	4.0	799576	STUDY_PAIR	n/a	wordpools/wordpool_EN.txt	3	5	ARK	CHAIR	ARK	SLIME	10	[0, 0, 0]	-999	PAL1	0	R1063C
1182.273	0.275	802085	STUDY_ORIENT	n/a	n/a	4	6	VEST	BIRD	BIRD	VEST	10	[0, 0, 0]	-999	PAL1	0	R1063C
1183.056	4.0	802476	STUDY_PAIR	n/a	wordpools/wordpool_EN.txt	4	6	VEST	BIRD	BIRD	VEST	10	[0, 0, 0]	-999	PAL1	0	R1063C
1188.074	0.275	804985	STUDY_ORIENT	n/a	n/a	5	1	MOON	n/a	MOON	SOUP	10	[0, 0, 0]	-999	PAL1	0	R1063C
1189.091	4.0	805494	STUDY_PAIR	n/a	wordpools/wordpool_EN.txt	5	1	MOON	n/a	MOON	SOUP	10	[0, 0, 0]	-999	PAL1	0	R1063C
1194.125	0.275	808010	STUDY_ORIENT	n/a	n/a	6	4	STOOL	ROOT	ROOT	STOOL	10	[0, 0, 0]	-999	PAL1	0	R1063C
1194.908	4.0	808402	STUDY_PAIR	n/a	wordpools/wordpool_EN.txt	6	4	STOOL	ROOT	ROOT	STOOL	10	[0, 0, 0]	-999	PAL1	0	R1063C
1198.909	1.0	810402	START	n/a	n/a	-999	-999	n/a	n/a	n/a	n/a	11	[-999, -999, -999]	-999	PAL1	0	R1063C
1199.909	0.017	810902	MATH_START	n/a	n/a	-999	-999	n/a	n/a	n/a	n/a	10	[0, 0, 0]	-999	PAL1	0	R1063C
1199.926	4.568	810911	PROB	4538.0	n/a	-999	-999	n/a	n/a	n/a	n/a	11	[7, 9, 7]	23	PAL1	0	R1063C
1204.494	3.6	813194	PROB	3578.0	n/a	-999	-999	n/a	n/a	n/a	n/a	11	[4, 8, 2]	14	PAL1	0	R1063C
1208.094	2.267	814994	PROB	2242.0	n/a	-999	-999	n/a	n/a	n/a	n/a	11	[6, 4, 9]	1	PAL1	0	R1063C
1210.361	5.3	816128	PROB	5270.0	n/a	-999	-999	n/a	n/a	n/a	n/a	11	[3, 2, 4]	9	PAL1	0	R1063C
1215.661	9.922	818777	PROB	9922.0	n/a	-999	-999	n/a	n/a	n/a	n/a	11	[5, 8, 9]	23	PAL1	0	R1063C
1225.583	0.014	823738	STOP	n/a	n/a	-999	-999	n/a	n/a	n/a	n/a	11	[-999, -999, -999]	-999	PAL1	0	R1063C
1225.597	0.0	823745	MATH_END	n/a	n/a	-999	-999	n/a	n/a	n/a	n/a	10	[0, 0, 0]	-999	PAL1	0	R1063C
1225.597	0.016	823745	TEST_START	n/a	n/a	-999	-999	n/a	n/a	n/a	n/a	10	[0, 0, 0]	-999	PAL1	0	R1063C
1225.613	0.275	823753	TEST_ORIENT	n/a	n/a	5	1	MOON	n/a	MOON	SOUP	10	[0, 0, 0]	-999	PAL1	0	R1063C
1226.58	4.0	824237	TEST_PROBE	n/a	wordpools/wordpool_EN.txt	5	1	MOON	n/a	MOON	SOUP	10	[0, 0, 0]	-999	PAL1	0	R1063C
1226.581	0.0	824237	REC_START	n/a	n/a	5	-999	n/a	n/a	n/a	n/a	10	[0, 0, 0]	-999	PAL1	0	R1063C
1226.581	3.939	824237	REC_EVENT	0.0	n/a	5	1	MOON	<>	MOON	SOUP	10	[0, 0, 0]	-999	PAL1	0	R1063C
1230.52	1.07	826206	REC_EVENT	3939.0	n/a	5	1	MOON	<>	MOON	SOUP	10	[0, 0, 0]	-999	PAL1	0	R1063C
1231.59	0.008	826741	REC_END	n/a	n/a	5	-999	n/a	n/a	n/a	n/a	10	[0, 0, 0]	-999	PAL1	0	R1063C
1231.598	0.275	826745	TEST_ORIENT	n/a	n/a	2	2	WEB	PASS	HEN	WEB	10	[0, 0, 0]	-999	PAL1	0	R1063C
1232.548	4.0	827220	TEST_PROBE	n/a	wordpools/wordpool_EN.txt	2	2	WEB	PASS	HEN	WEB	10	[0, 0, 0]	-999	PAL1	0	R1063C
1232.549	4.224	827221	REC_START	n/a	n/a	2	-999	n/a	PASS	n/a	n/a	10	[0, 0, 0]	-999	PAL1	0	R1063C
1236.773	0.803	829333	REC_EVENT	4224.0	n/a	2	2	WEB	PASS	HEN	WEB	10	[0, 0, 0]	-999	PAL1	0	R1063C
1237.576	0.023	829734	REC_END	n/a	n/a	2	-999	n/a	n/a	n/a	n/a	10	[0, 0, 0]	-999	PAL1	0	R1063C
1237.599	0.275	829746	TEST_ORIENT	n/a	n/a	1	3	LOCK	WEED	LOCK	WEED	10	[0, 0, 0]	-999	PAL1	0	R1063C
1238.516	4.0	830204	TEST_PROBE	n/a	wordpools/wordpool_EN.txt	1	3	LOCK	WEED	LOCK	WEED	10	[0, 0, 0]	-999	PAL1	0	R1063C
1238.516	2.035	830204	REC_START	n/a	n/a	1	-999	n/a	WEED	n/a	n/a	10	[0, 0, 0]	-999	PAL1	0	R1063C
1240.551	0.393	831221	REC_EVENT	2035.0	n/a	1	3	LOCK	<>	LOCK	WEED	10	[0, 0, 0]	-999	PAL1	0	R1063C
1240.944	1.228	831418	REC_EVENT	2428.0	n/a	1	3	LOCK	WEED	LOCK	WEED	10	[0, 0, 0]	-999	PAL1	0	R1063C
1242.172	1.361	832032	REC_EVENT	3656.0	n/a	1	3	LOCK	<>	LOCK	WEED	10	[0, 0, 0]	-999	PAL1	0	R1063C
1243.533	0.017	832712	REC_END	n/a	n/a	1	-999	n/a	n/a	n/a	n/a	10	[0, 0, 0]	-999	PAL1	0	R1063C
1243.55	0.275	832721	TEST_ORIENT	n/a	n/a	6	4	STOOL	ROOT	ROOT	STOOL	10	[0, 0, 0]	-999	PAL1	0	R1063C
1244.468	4.0	833180	TEST_PROBE	n/a	wordpools/wordpool_EN.txt	6	4	STOOL	ROOT	ROOT	STOOL	10	[0, 0, 0]	-999	PAL1	0	R1063C
1244.469	1.29	833180	REC_START	n/a	n/a	6	-999	n/a	ROOT	n/a	n/a	10	[0, 0, 0]	-999	PAL1	0	R1063C
1245.759	0.737	833825	REC_EVENT	1290.0	n/a	6	4	STOOL	STOOL	ROOT	STOOL	10	[0, 0, 0]	-999	PAL1	0	R1063C
1246.496	2.233	834194	REC_EVENT	2027.0	n/a	6	4	STOOL	ROOTS	ROOT	STOOL	10	[0, 0, 0]	-999	PAL1	0	R1063C
1248.729	0.756	835310	REC_EVENT	4260.0	n/a	6	4	STOOL	ROOT	ROOT	STOOL	10	[0, 0, 0]	-999	PAL1	0	R1063C
1249.485	0.016	835688	REC_END	n/a	n/a	6	-999	n/a	n/a	n/a	n/a	10	[0, 0, 0]	-999	PAL1	0	R1063C
1249.501	0.275	835696	TEST_ORIENT	n/a	n/a	3	5	ARK	CHAIR	ARK	SLIME	10	[0, 0, 0]	-999	PAL1	0	R1063C
1250.353	4.0	836122	TEST_PROBE	n/a	wordpools/wordpool_EN.txt	3	5	ARK	CHAIR	ARK	SLIME	10	[0, 0, 0]	-999	PAL1	0	R1063C
1250.353	3.066	836122	REC_START	n/a	n/a	3	-999	n/a	CHAIR	n/a	n/a	10	[0, 0, 0]	-999	PAL1	0	R1063C
1253.419	1.951	837655	REC_EVENT	3066.0	n/a	3	5	ARK	CHAIR	ARK	SLIME	10	[0, 0, 0]	-999	PAL1	0	R1063C
1255.37	0.017	838630	REC_END	n/a	n/a	3	-999	n/a	n/a	n/a	n/a	10	[0, 0, 0]	-999	PAL1	0	R1063C
1255.387	0.275	838639	TEST_ORIENT	n/a	n/a	4	6	VEST	BIRD	BIRD	VEST	10	[0, 0, 0]	-999	PAL1	0	R1063C
1256.27	4.0	839080	TEST_PROBE	n/a	wordpools/wordpool_EN.txt	4	6	VEST	BIRD	BIRD	VEST	10	[0, 0, 0]	-999	PAL1	0	R1063C
1256.271	1.451	839081	REC_START	n/a	n/a	4	-999	n/a	BIRD	n/a	n/a	10	[0, 0, 0]	-999	PAL1	0	R1063C
1257.722	0.734	839806	REC_EVENT	1451.0	n/a	4	6	VEST	BIRD	BIRD	VEST	10	[0, 0, 0]	-999	PAL1	0	R1063C
1258.456	0.811	840173	REC_EVENT	2185.0	n/a	4	6	VEST	VEST	BIRD	VEST	10	[0, 0, 0]	-999	PAL1	0	R1063C
1259.267	2.014	840579	REC_EVENT	2996.0	n/a	4	6	VEST	BIRD	BIRD	VEST	10	[0, 0, 0]	-999	PAL1	0	R1063C
1261.281	1.751	841586	REC_END	n/a	n/a	4	-999	n/a	n/a	n/a	n/a	10	[0, 0, 0]	-999	PAL1	0	R1063C
1263.032	10.442	842461	ENCODING_START	n/a	n/a	0	-999	n/a	n/a	n/a	n/a	11	[0, 0, 0]	-999	PAL1	0	R1063C
1273.474	0.275	847682	STUDY_ORIENT	n/a	n/a	1	1	PLANT	GLOVE	FILM	PLANT	11	[0, 0, 0]	-999	PAL1	0	R1063C
1274.324	4.0	848106	STUDY_PAIR	n/a	wordpools/wordpool_EN.txt	1	1	PLANT	GLOVE	FILM	PLANT	11	[0, 0, 0]	-999	PAL1	0	R1063C
1279.358	0.275	850623	STUDY_ORIENT	n/a	n/a	2	2	AXE	n/a	ANT	AXE	11	[0, 0, 0]	-999	PAL1	0	R1063C
1280.325	4.0	851107	STUDY_PAIR	n/a	wordpools/wordpool_EN.txt	2	2	AXE	n/a	ANT	AXE	11	[0, 0, 0]	-999	PAL1	0	R1063C
1285.359	0.275	853624	STUDY_ORIENT	n/a	n/a	3	5	JUICE	STORE	STORE	JUICE	11	[0, 0, 0]	-999	PAL1	0	R1063C
1286.259	4.0	854073	STUDY_PAIR	n/a	wordpools/wordpool_EN.txt	3	5	JUICE	STORE	STORE	JUICE	11	[0, 0, 0]	-999	PAL1	0	R1063C
1291.277	0.275	856582	STUDY_ORIENT	n/a	n/a	4	4	SIGN	OWL	OWL	SIGN	11	[0, 0, 0]	-999	PAL1	0	R1063C
1292.177	4.0	857032	STUDY_PAIR	n/a	wordpools/wordpool_EN.txt	4	4	SIGN	OWL	OWL	SIGN	11	[0, 0, 0]	-999	PAL1	0	R1063C
1297.195	0.275	859541	STUDY_ORIENT	n/a	n/a	5	3	BENCH	GLOVE	BENCH	GLOVE	11	[0, 0, 0]	-999	PAL1	0	R1063C
1298.212	4.0	860049	STUDY_PAIR	n/a	wordpools/wordpool_EN.txt	5	3	BENCH	GLOVE	BENCH	GLOVE	11	[0, 0, 0]	-999	PAL1	0	R1063C
1303.246	0.275	862566	STUDY_ORIENT	n/a	n/a	6	6	FARM	PASS	FARM	SNAKE	11	[0, 0, 0]	-999	PAL1	0	R1063C
1304.163	4.0	863025	STUDY_PAIR	n/a	wordpools/wordpool_EN.txt	6	6	FARM	PASS	FARM	SNAKE	11	[0, 0, 0]	-999	PAL1	0	R1063C
1308.181	0.999	865034	START	n/a	n/a	-999	-999	n/a	n/a	n/a	n/a	12	[-999, -999, -999]	-999	PAL1	0	R1063C
1309.18	0.017	865533	MATH_START	n/a	n/a	-999	-999	n/a	n/a	n/a	n/a	11	[0, 0, 0]	-999	PAL1	0	R1063C
1309.197	4.218	865541	PROB	4187.0	n/a	-999	-999	n/a	n/a	n/a	n/a	12	[9, 4, 6]	19	PAL1	0	R1063C
1313.415	3.517	867650	PROB	3497.0	n/a	-999	-999	n/a	n/a	n/a	n/a	12	[7, 1, 4]	12	PAL1	0	R1063C
1316.932	4.434	869409	PROB	4404.0	n/a	-999	-999	n/a	n/a	n/a	n/a	12	[9, 6, 4]	19	PAL1	0	R1063C
1321.366	4.734	871625	PROB	4714.0	n/a	-999	-999	n/a	n/a	n/a	n/a	12	[6, 9, 7]	22	PAL1	0	R1063C
1326.1	9.324	873992	PROB	9324.0	n/a	-999	-999	n/a	n/a	n/a	n/a	12	[5, 8, 9]	24	PAL1	0	R1063C
1335.424	0.011	878654	STOP	n/a	n/a	-999	-999	n/a	n/a	n/a	n/a	12	[-999, -999, -999]	-999	PAL1	0	R1063C
1335.435	0.0	878659	MATH_END	n/a	n/a	-999	-999	n/a	n/a	n/a	n/a	11	[0, 0, 0]	-999	PAL1	0	R1063C
1335.435	0.017	878659	TEST_START	n/a	n/a	-999	-999	n/a	n/a	n/a	n/a	11	[0, 0, 0]	-999	PAL1	0	R1063C
1335.452	0.275	878668	TEST_ORIENT	n/a	n/a	1	1	PLANT	GLOVE	FILM	PLANT	11	[0, 0, 0]	-999	PAL1	0	R1063C
1336.386	0.0	879135	REC_START	n/a	n/a	1	-999	n/a	GLOVE	n/a	n/a	11	[0, 0, 0]	-999	PAL1	0	R1063C
1336.386	4.0	879135	TEST_PROBE	n/a	wordpools/wordpool_EN.txt	1	1	PLANT	GLOVE	FILM	PLANT	11	[0, 0, 0]	-999	PAL1	0	R1063C
1339.351	2.052	880617	REC_EVENT	2965.0	n/a	1	1	PLANT	GLOVE	FILM	PLANT	11	[0, 0, 0]	-999	PAL1	0	R1063C
1341.403	0.017	881643	REC_END	n/a	n/a	1	-999	n/a	n/a	n/a	n/a	11	[0, 0, 0]	-999	PAL1	0	R1063C
1341.42	0.275	881652	TEST_ORIENT	n/a	n/a	2	2	AXE	n/a	ANT	AXE	11	[0, 0, 0]	-999	PAL1	0	R1063C
1342.237	4.0	882060	TEST_PROBE	n/a	wordpools/wordpool_EN.txt	2	2	AXE	n/a	ANT	AXE	11	[0, 0, 0]	-999	PAL1	0	R1063C
1342.237	1.445	882060	REC_START	n/a	n/a	2	-999	n/a	n/a	n/a	n/a	11	[0, 0, 0]	-999	PAL1	0	R1063C
1343.682	3.105	882783	REC_EVENT	1445.0	n/a	2	2	AXE	<>	ANT	AXE	11	[0, 0, 0]	-999	PAL1	0	R1063C
1346.787	0.467	884335	REC_EVENT	4550.0	n/a	2	2	AXE	<>	ANT	AXE	11	[0, 0, 0]	-999	PAL1	0	R1063C
1347.254	0.017	884568	REC_END	n/a	n/a	2	-999	n/a	n/a	n/a	n/a	11	[0, 0, 0]	-999	PAL1	0	R1063C
1347.271	0.275	884577	TEST_ORIENT	n/a	n/a	5	3	BENCH	GLOVE	BENCH	GLOVE	11	[0, 0, 0]	-999	PAL1	0	R1063C
1348.255	4.0	885069	TEST_PROBE	n/a	wordpools/wordpool_EN.txt	5	3	BENCH	GLOVE	BENCH	GLOVE	11	[0, 0, 0]	-999	PAL1	0	R1063C
1348.255	1.292	885069	REC_START	n/a	n/a	5	-999	n/a	GLOVE	n/a	n/a	11	[0, 0, 0]	-999	PAL1	0	R1063C
1349.547	0.432	885715	REC_EVENT	1292.0	n/a	5	3	BENCH	<>	BENCH	GLOVE	11	[0, 0, 0]	-999	PAL1	0	R1063C
1349.979	0.617	885931	REC_EVENT	1724.0	n/a	5	3	BENCH	GLOVE	BENCH	GLOVE	11	[0, 0, 0]	-999	PAL1	0	R1063C
1350.596	2.676	886239	REC_EVENT	2341.0	n/a	5	3	BENCH	<>	BENCH	GLOVE	11	[0, 0, 0]	-999	PAL1	0	R1063C
1353.272	0.017	887577	REC_END	n/a	n/a	5	-999	n/a	n/a	n/a	n/a	11	[0, 0, 0]	-999	PAL1	0	R1063C
1353.289	0.275	887586	TEST_ORIENT	n/a	n/a	4	4	SIGN	OWL	OWL	SIGN	11	[0, 0, 0]	-999	PAL1	0	R1063C
1354.256	4.0	888069	TEST_PROBE	n/a	wordpools/wordpool_EN.txt	4	4	SIGN	OWL	OWL	SIGN	11	[0, 0, 0]	-999	PAL1	0	R1063C
1354.256	0.649	888069	REC_START	n/a	n/a	4	-999	n/a	OWL	n/a	n/a	11	[0, 0, 0]	-999	PAL1	0	R1063C
1354.905	0.721	888394	REC_EVENT	649.0	n/a	4	4	SIGN	<>	OWL	SIGN	11	[0, 0, 0]	-999	PAL1	0	R1063C
1355.626	3.647	888754	REC_EVENT	1370.0	n/a	4	4	SIGN	OWL	OWL	SIGN	11	[0, 0, 0]	-999	PAL1	0	R1063C
1359.273	0.017	890577	REC_END	n/a	n/a	4	-999	n/a	n/a	n/a	n/a	11	[0, 0, 0]	-999	PAL1	0	R1063C
1359.29	0.275	890586	TEST_ORIENT	n/a	n/a	3	5	JUICE	STORE	STORE	JUICE	11	[0, 0, 0]	-999	PAL1	0	R1063C
1360.157	4.0	891019	TEST_PROBE	n/a	wordpools/wordpool_EN.txt	3	5	JUICE	STORE	STORE	JUICE	11	[0, 0, 0]	-999	PAL1	0	R1063C
1360.157	1.108	891019	REC_START	n/a	n/a	3	-999	n/a	STORE	n/a	n/a	11	[0, 0, 0]	-999	PAL1	0	R1063C
1361.265	3.909	891573	REC_EVENT	1108.0	n/a	3	5	JUICE	STORE	STORE	JUICE	11	[0, 0, 0]	-999	PAL1	0	R1063C
1365.174	0.017	893528	REC_END	n/a	n/a	3	-999	n/a	n/a	n/a	n/a	11	[0, 0, 0]	-999	PAL1	0	R1063C
1365.191	0.275	893536	TEST_ORIENT	n/a	n/a	6	6	FARM	PASS	FARM	SNAKE	11	[0, 0, 0]	-999	PAL1	0	R1063C
1366.225	4.0	894053	TEST_PROBE	n/a	wordpools/wordpool_EN.txt	6	6	FARM	PASS	FARM	SNAKE	11	[0, 0, 0]	-999	PAL1	0	R1063C
1366.225	2.391	894053	REC_START	n/a	n/a	6	-999	n/a	PASS	n/a	n/a	11	[0, 0, 0]	-999	PAL1	0	R1063C
1368.616	2.626	895248	REC_EVENT	2391.0	n/a	6	6	FARM	PASS	FARM	SNAKE	11	[0, 0, 0]	-999	PAL1	0	R1063C
1371.242	1.597	896561	REC_END	n/a	n/a	6	-999	n/a	n/a	n/a	n/a	11	[0, 0, 0]	-999	PAL1	0	R1063C
1372.839	10.439	897360	ENCODING_START	n/a	n/a	0	-999	n/a	n/a	n/a	n/a	12	[0, 0, 0]	-999	PAL1	0	R1063C
1383.278	0.275	902579	STUDY_ORIENT	n/a	n/a	1	3	CAPE	POLE	STICK	CAPE	12	[0, 0, 0]	-999	PAL1	0	R1063C
1384.261	4.0	903070	STUDY_PAIR	n/a	wordpools/wordpool_EN.txt	1	3	CAPE	POLE	STICK	CAPE	12	[0, 0, 0]	-999	PAL1	0	R1063C
1389.279	0.275	905579	STUDY_ORIENT	n/a	n/a	2	4	BEAK	n/a	SOAP	BEAK	12	[0, 0, 0]	-999	PAL1	0	R1063C
1390.163	4.0	906021	STUDY_PAIR	n/a	wordpools/wordpool_EN.txt	2	4	BEAK	n/a	SOAP	BEAK	12	[0, 0, 0]	-999	PAL1	0	R1063C
1395.197	0.275	908538	STUDY_ORIENT	n/a	n/a	3	1	LEAF	JAR	LEAF	JAR	12	[0, 0, 0]	-999	PAL1	0	R1063C
1396.047	4.0	908963	STUDY_PAIR	n/a	wordpools/wordpool_EN.txt	3	1	LEAF	JAR	LEAF	JAR	12	[0, 0, 0]	-999	PAL1	0	R1063C
1401.065	0.275	911472	STUDY_ORIENT	n/a	n/a	4	2	OAK	PASS	OAK	DITCH	12	[0, 0, 0]	-999	PAL1	0	R1063C
1402.032	4.0	911955	STUDY_PAIR	n/a	wordpools/wordpool_EN.txt	4	2	OAK	PASS	OAK	DITCH	12	[0, 0, 0]	-999	PAL1	0	R1063C
1407.066	0.275	914472	STUDY_ORIENT	n/a	n/a	5	5	ROCK	WHALE	SEAL	ROCK	12	[0, 0, 0]	-999	PAL1	0	R1063C
1408.066	4.0	914972	STUDY_PAIR	n/a	wordpools/wordpool_EN.txt	5	5	ROCK	WHALE	SEAL	ROCK	12	[0, 0, 0]	-999	PAL1	0	R1063C
1413.1	0.275	917489	STUDY_ORIENT	n/a	n/a	6	6	LAND	TREE	LAND	FRUIT	12	[0, 0, 0]	-999	PAL1	0	R1063C
1414.101	4.0	917989	STUDY_PAIR	n/a	wordpools/wordpool_EN.txt	6	6	LAND	TREE	LAND	FRUIT	12	[0, 0, 0]	-999	PAL1	0	R1063C
1418.118	1.0	919997	START	n/a	n/a	-999	-999	n/a	n/a	n/a	n/a	13	[-999, -999, -999]	-999	PAL1	0	R1063C
1419.118	0.017	920497	MATH_START	n/a	n/a	-999	-999	n/a	n/a	n/a	n/a	12	[0, 0, 0]	-999	PAL1	0	R1063C
1419.135	4.767	920506	PROB	4745.0	n/a	-999	-999	n/a	n/a	n/a	n/a	13	[6, 6, 3]	15	PAL1	0	R1063C
1423.902	5.435	922889	PROB	5410.0	n/a	-999	-999	n/a	n/a	n/a	n/a	13	[8, 3, 6]	17	PAL1	0	R1063C
1429.337	4.034	925606	PROB	3999.0	n/a	-999	-999	n/a	n/a	n/a	n/a	13	[3, 9, 8]	20	PAL1	0	R1063C
1433.371	4.684	927623	PROB	4653.0	n/a	-999	-999	n/a	n/a	n/a	n/a	13	[7, 1, 3]	11	PAL1	0	R1063C
1438.055	2.72	929965	PROB	2720.0	n/a	-999	-999	n/a	n/a	n/a	n/a	13	[5, 6, 9]	20	PAL1	0	R1063C
1440.775	0.013	931325	STOP	n/a	n/a	-999	-999	n/a	n/a	n/a	n/a	13	[-999, -999, -999]	-999	PAL1	0	R1063C
1440.788	0.0	931331	MATH_END	n/a	n/a	-999	-999	n/a	n/a	n/a	n/a	12	[0, 0, 0]	-999	PAL1	0	R1063C
1440.788	0.017	931331	TEST_START	n/a	n/a	-999	-999	n/a	n/a	n/a	n/a	12	[0, 0, 0]	-999	PAL1	0	R1063C
1440.805	0.275	931340	TEST_ORIENT	n/a	n/a	3	1	LEAF	JAR	LEAF	JAR	12	[0, 0, 0]	-999	PAL1	0	R1063C
1441.788	4.0	931831	TEST_PROBE	n/a	wordpools/wordpool_EN.txt	3	1	LEAF	JAR	LEAF	JAR	12	[0, 0, 0]	-999	PAL1	0	R1063C
1441.789	2.916	931832	REC_START	n/a	n/a	3	-999	n/a	JAR	n/a	n/a	12	[0, 0, 0]	-999	PAL1	0	R1063C
1444.705	2.093	933290	REC_EVENT	2916.0	n/a	3	1	LEAF	JAR	LEAF	JAR	12	[0, 0, 0]	-999	PAL1	0	R1063C
1446.798	0.007	934336	REC_END	n/a	n/a	3	-999	n/a	n/a	n/a	n/a	12	[0, 0, 0]	-999	PAL1	0	R1063C
1446.805	0.275	934340	TEST_ORIENT	n/a	n/a	4	2	OAK	PASS	OAK	DITCH	12	[0, 0, 0]	-999	PAL1	0	R1063C
1447.656	4.0	934765	TEST_PROBE	n/a	wordpools/wordpool_EN.txt	4	2	OAK	PASS	OAK	DITCH	12	[0, 0, 0]	-999	PAL1	0	R1063C
1447.656	2.476	934765	REC_START	n/a	n/a	4	-999	n/a	PASS	n/a	n/a	12	[0, 0, 0]	-999	PAL1	0	R1063C
1450.132	2.542	936003	REC_EVENT	2476.0	n/a	4	2	OAK	PASS	OAK	DITCH	12	[0, 0, 0]	-999	PAL1	0	R1063C
1452.674	0.016	937274	REC_END	n/a	n/a	4	-999	n/a	n/a	n/a	n/a	12	[0, 0, 0]	-999	PAL1	0	R1063C
1452.69	0.275	937282	TEST_ORIENT	n/a	n/a	1	3	CAPE	POLE	STICK	CAPE	12	[0, 0, 0]	-999	PAL1	0	R1063C
1453.657	4.0	937765	TEST_PROBE	n/a	wordpools/wordpool_EN.txt	1	3	CAPE	POLE	STICK	CAPE	12	[0, 0, 0]	-999	PAL1	0	R1063C
1453.657	4.275	937765	REC_START	n/a	n/a	1	-999	n/a	POLE	n/a	n/a	12	[0, 0, 0]	-999	PAL1	0	R1063C
1457.932	0.743	939903	REC_EVENT	4275.0	n/a	1	3	CAPE	POLE	STICK	CAPE	12	[0, 0, 0]	-999	PAL1	0	R1063C
1458.675	0.016	940274	REC_END	n/a	n/a	1	-999	n/a	n/a	n/a	n/a	12	[0, 0, 0]	-999	PAL1	0	R1063C
1458.691	0.275	940282	TEST_ORIENT	n/a	n/a	2	4	BEAK	n/a	SOAP	BEAK	12	[0, 0, 0]	-999	PAL1	0	R1063C
1459.625	4.0	940749	TEST_PROBE	n/a	wordpools/wordpool_EN.txt	2	4	BEAK	n/a	SOAP	BEAK	12	[0, 0, 0]	-999	PAL1	0	R1063C
1459.625	2.236	940749	REC_START	n/a	n/a	2	-999	n/a	n/a	n/a	n/a	12	[0, 0, 0]	-999	PAL1	0	R1063C
1461.861	2.781	941867	REC_EVENT	2236.0	n/a	2	4	BEAK	<>	SOAP	BEAK	12	[0, 0, 0]	-999	PAL1	0	R1063C
1464.642	0.017	943257	REC_END	n/a	n/a	2	-999	n/a	n/a	n/a	n/a	12	[0, 0, 0]	-999	PAL1	0	R1063C
1464.659	0.275	943266	TEST_ORIENT	n/a	n/a	5	5	ROCK	WHALE	SEAL	ROCK	12	[0, 0, 0]	-999	PAL1	0	R1063C
1465.609	4.0	943741	TEST_PROBE	n/a	wordpools/wordpool_EN.txt	5	5	ROCK	WHALE	SEAL	ROCK	12	[0, 0, 0]	-999	PAL1	0	R1063C
1465.61	2.854	943741	REC_START	n/a	n/a	5	-999	n/a	WHALE	n/a	n/a	12	[0, 0, 0]	-999	PAL1	0	R1063C
1468.464	2.146	945168	REC_EVENT	2854.0	n/a	5	5	ROCK	WHALE	SEAL	ROCK	12	[0, 0, 0]	-999	PAL1	0	R1063C
1470.61	0.017	946241	REC_END	n/a	n/a	5	-999	n/a	n/a	n/a	n/a	12	[0, 0, 0]	-999	PAL1	0	R1063C
1470.627	0.275	946250	TEST_ORIENT	n/a	n/a	6	6	LAND	TREE	LAND	FRUIT	12	[0, 0, 0]	-999	PAL1	0	R1063C
1471.611	4.0	946742	TEST_PROBE	n/a	wordpools/wordpool_EN.txt	6	6	LAND	TREE	LAND	FRUIT	12	[0, 0, 0]	-999	PAL1	0	R1063C
1471.611	1.547	946742	REC_START	n/a	n/a	6	-999	n/a	TREE	n/a	n/a	12	[0, 0, 0]	-999	PAL1	0	R1063C
1473.158	0.933	947515	REC_EVENT	1547.0	n/a	6	6	LAND	<>	LAND	FRUIT	12	[0, 0, 0]	-999	PAL1	0	R1063C
1474.091	2.537	947981	REC_EVENT	2480.0	n/a	6	6	LAND	TREE	LAND	FRUIT	12	[0, 0, 0]	-999	PAL1	0	R1063C
1476.628	3.187	949250	REC_END	n/a	n/a	6	-999	n/a	n/a	n/a	n/a	12	[0, 0, 0]	-999	PAL1	0	R1063C
1479.815	10.45	950843	ENCODING_START	n/a	n/a	0	-999	n/a	n/a	n/a	n/a	13	[0, 0, 0]	-999	PAL1	0	R1063C
1490.265	0.275	956068	STUDY_ORIENT	n/a	n/a	1	5	MOLE	WHALE	MOLE	WAVE	13	[0, 0, 0]	-999	PAL1	0	R1063C
1491.115	4.0	956493	STUDY_PAIR	n/a	wordpools/wordpool_EN.txt	1	5	MOLE	WHALE	MOLE	WAVE	13	[0, 0, 0]	-999	PAL1	0	R1063C
1496.133	0.275	959002	STUDY_ORIENT	n/a	n/a	2	4	CORD	BANK	CORD	BANK	13	[0, 0, 0]	-999	PAL1	0	R1063C
1497.0	4.0	959435	STUDY_PAIR	n/a	wordpools/wordpool_EN.txt	2	4	CORD	BANK	CORD	BANK	13	[0, 0, 0]	-999	PAL1	0	R1063C
1502.034	0.275	961952	STUDY_ORIENT	n/a	n/a	3	1	BOOK	n/a	CHIN	BOOK	13	[0, 0, 0]	-999	PAL1	0	R1063C
1503.018	4.0	962444	STUDY_PAIR	n/a	wordpools/wordpool_EN.txt	3	1	BOOK	n/a	CHIN	BOOK	13	[0, 0, 0]	-999	PAL1	0	R1063C
1508.052	0.275	964961	STUDY_ORIENT	n/a	n/a	4	6	GOAT	SWAMP	GOAT	SWAMP	13	[0, 0, 0]	-999	PAL1	0	R1063C
1508.952	4.0	965410	STUDY_PAIR	n/a	wordpools/wordpool_EN.txt	4	6	GOAT	SWAMP	GOAT	SWAMP	13	[0, 0, 0]	-999	PAL1	0	R1063C
1513.986	0.275	967927	STUDY_ORIENT	n/a	n/a	5	3	CART	PRINCE	CART	PRINCE	13	[0, 0, 0]	-999	PAL1	0	R1063C
1514.769	4.0	968319	STUDY_PAIR	n/a	wordpools/wordpool_EN.txt	5	3	CART	PRINCE	CART	PRINCE	13	[0, 0, 0]	-999	PAL1	0	R1063C
1519.803	0.275	970836	STUDY_ORIENT	n/a	n/a	6	2	GOLD	BEAN	GOLD	BEAN	13	[0, 0, 0]	-999	PAL1	0	R1063C
1520.737	4.0	971302	STUDY_PAIR	n/a	wordpools/wordpool_EN.txt	6	2	GOLD	BEAN	GOLD	BEAN	13	[0, 0, 0]	-999	PAL1	0	R1063C
1524.755	0.999	973311	START	n/a	n/a	-999	-999	n/a	n/a	n/a	n/a	14	[-999, -999, -999]	-999	PAL1	0	R1063C
1525.754	0.017	973811	MATH_START	n/a	n/a	-999	-999	n/a	n/a	n/a	n/a	13	[0, 0, 0]	-999	PAL1	0	R1063C
1525.771	4.419	973819	PROB	4389.0	n/a	-999	-999	n/a	n/a	n/a	n/a	14	[2, 2, 7]	11	PAL1	0	R1063C
1530.19	2.817	976029	PROB	2786.0	n/a	-999	-999	n/a	n/a	n/a	n/a	14	[9, 6, 6]	21	PAL1	0	R1063C
1533.007	3.184	977437	PROB	3153.0	n/a	-999	-999	n/a	n/a	n/a	n/a	14	[2, 5, 9]	16	PAL1	0	R1063C
1536.191	4.316	979029	PROB	4289.0	n/a	-999	-999	n/a	n/a	n/a	n/a	14	[6, 3, 8]	17	PAL1	0	R1063C
1540.507	2.368	981187	PROB	2340.0	n/a	-999	-999	n/a	n/a	n/a	n/a	14	[3, 1, 9]	13	PAL1	0	R1063C
1542.875	3.133	982371	PROB	3133.0	n/a	-999	-999	n/a	n/a	n/a	n/a	14	[2, 7, 3]	12	PAL1	0	R1063C
1546.008	0.018	983937	STOP	n/a	n/a	-999	-999	n/a	n/a	n/a	n/a	14	[-999, -999, -999]	-999	PAL1	0	R1063C
1546.026	0.0	983946	MATH_END	n/a	n/a	-999	-999	n/a	n/a	n/a	n/a	13	[0, 0, 0]	-999	PAL1	0	R1063C
1546.026	0.016	983946	TEST_START	n/a	n/a	-999	-999	n/a	n/a	n/a	n/a	13	[0, 0, 0]	-999	PAL1	0	R1063C
1546.042	0.275	983954	TEST_ORIENT	n/a	n/a	3	1	BOOK	n/a	CHIN	BOOK	13	[0, 0, 0]	-999	PAL1	0	R1063C
1546.893	4.0	984379	TEST_PROBE	n/a	wordpools/wordpool_EN.txt	3	1	BOOK	n/a	CHIN	BOOK	13	[0, 0, 0]	-999	PAL1	0	R1063C
1546.893	3.207	984379	REC_START	n/a	n/a	3	-999	n/a	n/a	n/a	n/a	13	[0, 0, 0]	-999	PAL1	0	R1063C
1550.1	1.81	985983	REC_EVENT	3207.0	n/a	3	1	BOOK	<>	CHIN	BOOK	13	[0, 0, 0]	-999	PAL1	0	R1063C
1551.91	0.017	986888	REC_END	n/a	n/a	3	-999	n/a	n/a	n/a	n/a	13	[0, 0, 0]	-999	PAL1	0	R1063C
1551.927	0.275	986896	TEST_ORIENT	n/a	n/a	6	2	GOLD	BEAN	GOLD	BEAN	13	[0, 0, 0]	-999	PAL1	0	R1063C
1552.776	4.0	987321	TEST_PROBE	n/a	wordpools/wordpool_EN.txt	6	2	GOLD	BEAN	GOLD	BEAN	13	[0, 0, 0]	-999	PAL1	0	R1063C
1552.776	2.269	987321	REC_START	n/a	n/a	6	-999	n/a	BEAN	n/a	n/a	13	[0, 0, 0]	-999	PAL1	0	R1063C
1555.045	2.749	988455	REC_EVENT	2269.0	n/a	6	2	GOLD	BEAN	GOLD	BEAN	13	[0, 0, 0]	-999	PAL1	0	R1063C
1557.794	0.016	989829	REC_END	n/a	n/a	6	-999	n/a	n/a	n/a	n/a	13	[0, 0, 0]	-999	PAL1	0	R1063C
1557.81	0.275	989837	TEST_ORIENT	n/a	n/a	5	3	CART	PRINCE	CART	PRINCE	13	[0, 0, 0]	-999	PAL1	0	R1063C
1558.661	0.0	990263	REC_START	n/a	n/a	5	-999	n/a	PRINCE	n/a	n/a	13	[0, 0, 0]	-999	PAL1	0	R1063C
1558.661	4.0	990263	TEST_PROBE	n/a	wordpools/wordpool_EN.txt	5	3	CART	PRINCE	CART	PRINCE	13	[0, 0, 0]	-999	PAL1	0	R1063C
1560.043	3.635	990954	REC_EVENT	1382.0	n/a	5	3	CART	PRINCE	CART	PRINCE	13	[0, 0, 0]	-999	PAL1	0	R1063C
1563.678	0.017	992771	REC_END	n/a	n/a	5	-999	n/a	n/a	n/a	n/a	13	[0, 0, 0]	-999	PAL1	0	R1063C
1563.695	0.275	992780	TEST_ORIENT	n/a	n/a	2	4	CORD	BANK	CORD	BANK	13	[0, 0, 0]	-999	PAL1	0	R1063C
1564.712	4.0	993288	TEST_PROBE	n/a	wordpools/wordpool_EN.txt	2	4	CORD	BANK	CORD	BANK	13	[0, 0, 0]	-999	PAL1	0	R1063C
1564.712	1.369	993288	REC_START	n/a	n/a	2	-999	n/a	BANK	n/a	n/a	13	[0, 0, 0]	-999	PAL1	0	R1063C
1566.081	3.648	993973	REC_EVENT	1369.0	n/a	2	4	CORD	BANK	CORD	BANK	13	[0, 0, 0]	-999	PAL1	0	R1063C
1569.729	0.017	995796	REC_END	n/a	n/a	2	-999	n/a	n/a	n/a	n/a	13	[0, 0, 0]	-999	PAL1	0	R1063C
1569.746	0.275	995805	TEST_ORIENT	n/a	n/a	1	5	MOLE	WHALE	MOLE	WAVE	13	[0, 0, 0]	-999	PAL1	0	R1063C
1570.63	4.0	996247	TEST_PROBE	n/a	wordpools/wordpool_EN.txt	1	5	MOLE	WHALE	MOLE	WAVE	13	[0, 0, 0]	-999	PAL1	0	R1063C
1570.63	1.441	996247	REC_START	n/a	n/a	1	-999	n/a	WHALE	n/a	n/a	13	[0, 0, 0]	-999	PAL1	0	R1063C
1572.071	3.576	996967	REC_EVENT	1441.0	n/a	1	5	MOLE	WHALE	MOLE	WAVE	13	[0, 0, 0]	-999	PAL1	0	R1063C
1575.647	0.017	998755	REC_END	n/a	n/a	1	-999	n/a	n/a	n/a	n/a	13	[0, 0, 0]	-999	PAL1	0	R1063C
1575.664	0.275	998764	TEST_ORIENT	n/a	n/a	4	6	GOAT	SWAMP	GOAT	SWAMP	13	[0, 0, 0]	-999	PAL1	0	R1063C
1576.631	0.0	999247	REC_START	n/a	n/a	4	-999	n/a	SWAMP	n/a	n/a	13	[0, 0, 0]	-999	PAL1	0	R1063C
1576.631	4.0	999247	TEST_PROBE	n/a	wordpools/wordpool_EN.txt	4	6	GOAT	SWAMP	GOAT	SWAMP	13	[0, 0, 0]	-999	PAL1	0	R1063C
1578.286	0.326	1000075	REC_EVENT	1655.0	n/a	4	6	GOAT	<>	GOAT	SWAMP	13	[0, 0, 0]	-999	PAL1	0	R1063C
1578.612	3.036	1000238	REC_EVENT	1981.0	n/a	4	6	GOAT	SWAMP	GOAT	SWAMP	13	[0, 0, 0]	-999	PAL1	0	R1063C
1581.648	3.464	1001755	REC_END	n/a	n/a	4	-999	n/a	n/a	n/a	n/a	13	[0, 0, 0]	-999	PAL1	0	R1063C
1585.112	10.439	1003487	ENCODING_START	n/a	n/a	0	-999	n/a	n/a	n/a	n/a	14	[0, 0, 0]	-999	PAL1	0	R1063C
1595.551	0.275	1008706	STUDY_ORIENT	n/a	n/a	1	3	FOOT	SPARK	BAT	FOOT	14	[0, 0, 0]	-999	PAL1	0	R1063C
1596.535	4.0	1009198	STUDY_PAIR	n/a	wordpools/wordpool_EN.txt	1	3	FOOT	SPARK	BAT	FOOT	14	[0, 0, 0]	-999	PAL1	0	R1063C
1601.569	0.275	1011715	STUDY_ORIENT	n/a	n/a	2	4	HOSE	n/a	MULE	HOSE	14	[0, 0, 0]	-999	PAL1	0	R1063C
1602.387	4.0	1012124	STUDY_PAIR	n/a	wordpools/wordpool_EN.txt	2	4	HOSE	n/a	MULE	HOSE	14	[0, 0, 0]	-999	PAL1	0	R1063C
1607.421	0.275	1014641	STUDY_ORIENT	n/a	n/a	3	1	CRANE	n/a	CRANE	CHALK	14	[0, 0, 0]	-999	PAL1	0	R1063C
1608.304	4.0	1015082	STUDY_PAIR	n/a	wordpools/wordpool_EN.txt	3	1	CRANE	n/a	CRANE	CHALK	14	[0, 0, 0]	-999	PAL1	0	R1063C
1613.322	0.275	1017591	STUDY_ORIENT	n/a	n/a	4	2	SEA	TEA	PIN	SEA	14	[0, 0, 0]	-999	PAL1	0	R1063C
1614.222	4.0	1018041	STUDY_PAIR	n/a	wordpools/wordpool_EN.txt	4	2	SEA	TEA	PIN	SEA	14	[0, 0, 0]	-999	PAL1	0	R1063C
1619.24	0.275	1020550	STUDY_ORIENT	n/a	n/a	5	5	SPARK	n/a	SPARK	SPRING	14	[0, 0, 0]	-999	PAL1	0	R1063C
1620.223	4.0	1021041	STUDY_PAIR	n/a	wordpools/wordpool_EN.txt	5	5	SPARK	n/a	SPARK	SPRING	14	[0, 0, 0]	-999	PAL1	0	R1063C
1625.241	0.275	1023550	STUDY_ORIENT	n/a	n/a	6	6	LAKE	TEA	LAKE	TEA	14	[0, 0, 0]	-999	PAL1	0	R1063C
1626.108	4.0	1023983	STUDY_PAIR	n/a	wordpools/wordpool_EN.txt	6	6	LAKE	TEA	LAKE	TEA	14	[0, 0, 0]	-999	PAL1	0	R1063C
1630.126	0.999	1025992	START	n/a	n/a	-999	-999	n/a	n/a	n/a	n/a	15	[-999, -999, -999]	-999	PAL1	0	R1063C
1631.125	0.017	1026492	MATH_START	n/a	n/a	-999	-999	n/a	n/a	n/a	n/a	14	[0, 0, 0]	-999	PAL1	0	R1063C
1631.142	8.367	1026500	PROB	8338.0	n/a	-999	-999	n/a	n/a	n/a	n/a	15	[7, 8, 7]	22	PAL1	0	R1063C
1639.509	4.035	1030683	PROB	4002.0	n/a	-999	-999	n/a	n/a	n/a	n/a	15	[3, 3, 5]	11	PAL1	0	R1063C
1643.544	2.668	1032701	PROB	2640.0	n/a	-999	-999	n/a	n/a	n/a	n/a	15	[3, 1, 5]	9	PAL1	0	R1063C
1646.212	2.7	1034035	PROB	2676.0	n/a	-999	-999	n/a	n/a	n/a	n/a	15	[3, 2, 4]	9	PAL1	0	R1063C
1648.912	2.096	1035385	PROB	2096.0	n/a	-999	-999	n/a	n/a	n/a	n/a	15	[1, 9, 2]	12	PAL1	0	R1063C
1651.008	0.005	1036432	STOP	n/a	n/a	-999	-999	n/a	n/a	n/a	n/a	15	[-999, -999, -999]	-999	PAL1	0	R1063C
1651.013	0.0	1036435	MATH_END	n/a	n/a	-999	-999	n/a	n/a	n/a	n/a	14	[0, 0, 0]	-999	PAL1	0	R1063C
1651.013	0.016	1036435	TEST_START	n/a	n/a	-999	-999	n/a	n/a	n/a	n/a	14	[0, 0, 0]	-999	PAL1	0	R1063C
1651.029	0.275	1036443	TEST_ORIENT	n/a	n/a	3	1	CRANE	n/a	CRANE	CHALK	14	[0, 0, 0]	-999	PAL1	0	R1063C
1651.896	4.0	1036876	TEST_PROBE	n/a	wordpools/wordpool_EN.txt	3	1	CRANE	n/a	CRANE	CHALK	14	[0, 0, 0]	-999	PAL1	0	R1063C
1651.897	5.009	1036877	REC_START	n/a	n/a	3	-999	n/a	n/a	n/a	n/a	14	[0, 0, 0]	-999	PAL1	0	R1063C
1656.906	0.001	1039381	REC_EVENT	5009.0	n/a	3	1	CRANE	<>	CRANE	CHALK	14	[0, 0, 0]	-999	PAL1	0	R1063C
1656.907	0.023	1039382	REC_END	n/a	n/a	3	-999	n/a	n/a	n/a	n/a	14	[0, 0, 0]	-999	PAL1	0	R1063C
1656.93	0.275	1039393	TEST_ORIENT	n/a	n/a	4	2	SEA	TEA	PIN	SEA	14	[0, 0, 0]	-999	PAL1	0	R1063C
1657.881	4.0	1039869	TEST_PROBE	n/a	wordpools/wordpool_EN.txt	4	2	SEA	TEA	PIN	SEA	14	[0, 0, 0]	-999	PAL1	0	R1063C
1657.881	1.679	1039869	REC_START	n/a	n/a	4	-999	n/a	TEA	n/a	n/a	14	[0, 0, 0]	-999	PAL1	0	R1063C
1659.56	3.338	1040708	REC_EVENT	1679.0	n/a	4	2	SEA	TEA	PIN	SEA	14	[0, 0, 0]	-999	PAL1	0	R1063C
1662.898	0.017	1042377	REC_END	n/a	n/a	4	-999	n/a	n/a	n/a	n/a	14	[0, 0, 0]	-999	PAL1	0	R1063C
1662.915	0.275	1042385	TEST_ORIENT	n/a	n/a	1	3	FOOT	SPARK	BAT	FOOT	14	[0, 0, 0]	-999	PAL1	0	R1063C
1663.814	4.0	1042835	TEST_PROBE	n/a	wordpools/wordpool_EN.txt	1	3	FOOT	SPARK	BAT	FOOT	14	[0, 0, 0]	-999	PAL1	0	R1063C
1663.815	2.23	1042835	REC_START	n/a	n/a	1	-999	n/a	SPARK	n/a	n/a	14	[0, 0, 0]	-999	PAL1	0	R1063C
1666.045	1.409	1043950	REC_EVENT	2230.0	n/a	1	3	FOOT	SPARK	BAT	FOOT	14	[0, 0, 0]	-999	PAL1	0	R1063C
1667.454	1.377	1044655	REC_EVENT	3639.0	n/a	1	3	FOOT	<>	BAT	FOOT	14	[0, 0, 0]	-999	PAL1	0	R1063C
1668.831	0.017	1045343	REC_END	n/a	n/a	1	-999	n/a	n/a	n/a	n/a	14	[0, 0, 0]	-999	PAL1	0	R1063C
1668.848	0.275	1045352	TEST_ORIENT	n/a	n/a	2	4	HOSE	n/a	MULE	HOSE	14	[0, 0, 0]	-999	PAL1	0	R1063C
1669.632	4.0	1045744	TEST_PROBE	n/a	wordpools/wordpool_EN.txt	2	4	HOSE	n/a	MULE	HOSE	14	[0, 0, 0]	-999	PAL1	0	R1063C
1669.632	5.017	1045744	REC_START	n/a	n/a	2	-999	n/a	n/a	n/a	n/a	14	[0, 0, 0]	-999	PAL1	0	R1063C
1674.649	0.004	1048252	REC_END	n/a	n/a	2	-999	n/a	n/a	n/a	n/a	14	[0, 0, 0]	-999	PAL1	0	R1063C
1674.653	0.013	1048254	REC_EVENT	5021.0	n/a	2	4	HOSE	<>	MULE	HOSE	14	[0, 0, 0]	-999	PAL1	0	R1063C
1674.666	0.275	1048260	TEST_ORIENT	n/a	n/a	5	5	SPARK	n/a	SPARK	SPRING	14	[0, 0, 0]	-999	PAL1	0	R1063C
1675.5	4.0	1048677	TEST_PROBE	n/a	wordpools/wordpool_EN.txt	5	5	SPARK	n/a	SPARK	SPRING	14	[0, 0, 0]	-999	PAL1	0	R1063C
1675.5	1.774	1048677	REC_START	n/a	n/a	5	-999	n/a	n/a	n/a	n/a	14	[0, 0, 0]	-999	PAL1	0	R1063C
1677.274	1.0	1049564	REC_EVENT	1774.0	n/a	5	5	SPARK	<>	SPARK	SPRING	14	[0, 0, 0]	-999	PAL1	0	R1063C
1678.274	2.243	1050064	REC_EVENT	2774.0	n/a	5	5	SPARK	<>	SPARK	SPRING	14	[0, 0, 0]	-999	PAL1	0	R1063C
1680.517	0.017	1051186	REC_END	n/a	n/a	5	-999	n/a	n/a	n/a	n/a	14	[0, 0, 0]	-999	PAL1	0	R1063C
1680.534	0.275	1051194	TEST_ORIENT	n/a	n/a	6	6	LAKE	TEA	LAKE	TEA	14	[0, 0, 0]	-999	PAL1	0	R1063C
1681.402	4.0	1051628	TEST_PROBE	n/a	wordpools/wordpool_EN.txt	6	6	LAKE	TEA	LAKE	TEA	14	[0, 0, 0]	-999	PAL1	0	R1063C
1681.403	4.371	1051629	REC_START	n/a	n/a	6	-999	n/a	TEA	n/a	n/a	14	[0, 0, 0]	-999	PAL1	0	R1063C
1685.774	0.655	1053814	REC_EVENT	4371.0	n/a	6	6	LAKE	TEA	LAKE	TEA	14	[0, 0, 0]	-999	PAL1	0	R1063C
1686.429	3.266	1054141	REC_END	n/a	n/a	6	-999	n/a	n/a	n/a	n/a	14	[0, 0, 0]	-999	PAL1	0	R1063C
1689.695	10.444	1055774	ENCODING_START	n/a	n/a	0	-999	n/a	n/a	n/a	n/a	15	[0, 0, 0]	-999	PAL1	0	R1063C
1700.139	0.275	1060996	STUDY_ORIENT	n/a	n/a	1	1	RUG	PASS	BREAD	RUG	15	[0, 0, 0]	-999	PAL1	0	R1063C
1700.939	4.0	1061396	STUDY_PAIR	n/a	wordpools/wordpool_EN.txt	1	1	RUG	PASS	BREAD	RUG	15	[0, 0, 0]	-999	PAL1	0	R1063C
1705.973	0.275	1063913	STUDY_ORIENT	n/a	n/a	2	4	TRAY	n/a	JET	TRAY	15	[0, 0, 0]	-999	PAL1	0	R1063C
1706.822	4.0	1064337	STUDY_PAIR	n/a	wordpools/wordpool_EN.txt	2	4	TRAY	n/a	JET	TRAY	15	[0, 0, 0]	-999	PAL1	0	R1063C
1711.84	0.275	1066846	STUDY_ORIENT	n/a	n/a	3	5	THUMB	CUP	CUP	THUMB	15	[0, 0, 0]	-999	PAL1	0	R1063C
1712.774	4.0	1067313	STUDY_PAIR	n/a	wordpools/wordpool_EN.txt	3	5	THUMB	CUP	CUP	THUMB	15	[0, 0, 0]	-999	PAL1	0	R1063C
1717.808	0.275	1069830	STUDY_ORIENT	n/a	n/a	4	2	CLOUD	n/a	STONE	CLOUD	15	[0, 0, 0]	-999	PAL1	0	R1063C
1718.658	4.0	1070255	STUDY_PAIR	n/a	wordpools/wordpool_EN.txt	4	2	CLOUD	n/a	STONE	CLOUD	15	[0, 0, 0]	-999	PAL1	0	R1063C
1723.692	0.275	1072771	STUDY_ORIENT	n/a	n/a	5	3	GEESE	n/a	DRESS	GEESE	15	[0, 0, 0]	-999	PAL1	0	R1063C
1724.642	4.0	1073246	STUDY_PAIR	n/a	wordpools/wordpool_EN.txt	5	3	GEESE	n/a	DRESS	GEESE	15	[0, 0, 0]	-999	PAL1	0	R1063C
1729.66	0.275	1075755	STUDY_ORIENT	n/a	n/a	6	6	TRASH	POND	TRASH	POND	15	[0, 0, 0]	-999	PAL1	0	R1063C
1730.56	4.0	1076205	STUDY_PAIR	n/a	wordpools/wordpool_EN.txt	6	6	TRASH	POND	TRASH	POND	15	[0, 0, 0]	-999	PAL1	0	R1063C
1734.561	1.0	1078205	START	n/a	n/a	-999	-999	n/a	n/a	n/a	n/a	16	[-999, -999, -999]	-999	PAL1	0	R1063C
1735.561	0.017	1078705	MATH_START	n/a	n/a	-999	-999	n/a	n/a	n/a	n/a	15	[0, 0, 0]	-999	PAL1	0	R1063C
1735.578	4.418	1078714	PROB	4398.0	n/a	-999	-999	n/a	n/a	n/a	n/a	16	[1, 2, 4]	7	PAL1	0	R1063C
1739.996	2.017	1080923	PROB	1988.0	n/a	-999	-999	n/a	n/a	n/a	n/a	16	[3, 5, 1]	9	PAL1	0	R1063C
1742.013	2.284	1081931	PROB	2259.0	n/a	-999	-999	n/a	n/a	n/a	n/a	16	[2, 5, 5]	12	PAL1	0	R1063C
1744.297	1.917	1083073	PROB	1895.0	n/a	-999	-999	n/a	n/a	n/a	n/a	16	[4, 5, 4]	13	PAL1	0	R1063C
1746.214	3.6	1084031	PROB	3577.0	n/a	-999	-999	n/a	n/a	n/a	n/a	16	[6, 8, 6]	20	PAL1	0	R1063C
1749.814	2.485	1085831	PROB	2466.0	n/a	-999	-999	n/a	n/a	n/a	n/a	16	[2, 8, 6]	16	PAL1	0	R1063C
1752.299	2.516	1087074	PROB	2516.0	n/a	-999	-999	n/a	n/a	n/a	n/a	16	[3, 5, 2]	10	PAL1	0	R1063C
1754.815	0.017	1088332	STOP	n/a	n/a	-999	-999	n/a	n/a	n/a	n/a	16	[-999, -999, -999]	-999	PAL1	0	R1063C
1754.832	0.0	1088340	MATH_END	n/a	n/a	-999	-999	n/a	n/a	n/a	n/a	15	[0, 0, 0]	-999	PAL1	0	R1063C
1754.832	0.016	1088340	TEST_START	n/a	n/a	-999	-999	n/a	n/a	n/a	n/a	15	[0, 0, 0]	-999	PAL1	0	R1063C
1754.848	0.275	1088348	TEST_ORIENT	n/a	n/a	1	1	RUG	PASS	BREAD	RUG	15	[0, 0, 0]	-999	PAL1	0	R1063C
1755.732	4.0	1088790	TEST_PROBE	n/a	wordpools/wordpool_EN.txt	1	1	RUG	PASS	BREAD	RUG	15	[0, 0, 0]	-999	PAL1	0	R1063C
1755.732	3.961	1088790	REC_START	n/a	n/a	1	-999	n/a	PASS	n/a	n/a	15	[0, 0, 0]	-999	PAL1	0	R1063C
1759.693	1.056	1090770	REC_EVENT	3961.0	n/a	1	1	RUG	PASS	BREAD	RUG	15	[0, 0, 0]	-999	PAL1	0	R1063C
1760.749	0.017	1091298	REC_END	n/a	n/a	1	-999	n/a	n/a	n/a	n/a	15	[0, 0, 0]	-999	PAL1	0	R1063C
1760.766	0.275	1091307	TEST_ORIENT	n/a	n/a	4	2	CLOUD	n/a	STONE	CLOUD	15	[0, 0, 0]	-999	PAL1	0	R1063C
1761.583	4.0	1091715	TEST_PROBE	n/a	wordpools/wordpool_EN.txt	4	2	CLOUD	n/a	STONE	CLOUD	15	[0, 0, 0]	-999	PAL1	0	R1063C
1761.583	5.017	1091715	REC_START	n/a	n/a	4	-999	n/a	n/a	n/a	n/a	15	[0, 0, 0]	-999	PAL1	0	R1063C
1766.6	0.004	1094224	REC_END	n/a	n/a	4	-999	n/a	n/a	n/a	n/a	15	[0, 0, 0]	-999	PAL1	0	R1063C
1766.604	0.013	1094226	REC_EVENT	5021.0	n/a	4	2	CLOUD	<>	STONE	CLOUD	15	[0, 0, 0]	-999	PAL1	0	R1063C
1766.617	0.275	1094232	TEST_ORIENT	n/a	n/a	5	3	GEESE	n/a	DRESS	GEESE	15	[0, 0, 0]	-999	PAL1	0	R1063C
1767.617	4.0	1094732	TEST_PROBE	n/a	wordpools/wordpool_EN.txt	5	3	GEESE	n/a	DRESS	GEESE	15	[0, 0, 0]	-999	PAL1	0	R1063C
1767.618	4.013	1094732	REC_START	n/a	n/a	5	-999	n/a	n/a	n/a	n/a	15	[0, 0, 0]	-999	PAL1	0	R1063C
1771.631	0.997	1096739	REC_EVENT	4013.0	n/a	5	3	GEESE	<>	DRESS	GEESE	15	[0, 0, 0]	-999	PAL1	0	R1063C
1772.628	0.024	1097237	REC_END	n/a	n/a	5	-999	n/a	n/a	n/a	n/a	15	[0, 0, 0]	-999	PAL1	0	R1063C
1772.652	0.275	1097249	TEST_ORIENT	n/a	n/a	2	4	TRAY	n/a	JET	TRAY	15	[0, 0, 0]	-999	PAL1	0	R1063C
1773.486	4.0	1097666	TEST_PROBE	n/a	wordpools/wordpool_EN.txt	2	4	TRAY	n/a	JET	TRAY	15	[0, 0, 0]	-999	PAL1	0	R1063C
1773.487	4.998	1097667	REC_START	n/a	n/a	2	-999	n/a	n/a	n/a	n/a	15	[0, 0, 0]	-999	PAL1	0	R1063C
1778.485	0.002	1100165	REC_EVENT	4998.0	n/a	2	4	TRAY	<>	JET	TRAY	15	[0, 0, 0]	-999	PAL1	0	R1063C
1778.487	0.016	1100166	REC_END	n/a	n/a	2	-999	n/a	n/a	n/a	n/a	15	[0, 0, 0]	-999	PAL1	0	R1063C
1778.503	0.275	1100174	TEST_ORIENT	n/a	n/a	3	5	THUMB	CUP	CUP	THUMB	15	[0, 0, 0]	-999	PAL1	0	R1063C
1779.454	4.0	1100650	TEST_PROBE	n/a	wordpools/wordpool_EN.txt	3	5	THUMB	CUP	CUP	THUMB	15	[0, 0, 0]	-999	PAL1	0	R1063C
1779.454	1.63	1100650	REC_START	n/a	n/a	3	-999	n/a	CUP	n/a	n/a	15	[0, 0, 0]	-999	PAL1	0	R1063C
1781.084	3.387	1101465	REC_EVENT	1630.0	n/a	3	5	THUMB	CUP	CUP	THUMB	15	[0, 0, 0]	-999	PAL1	0	R1063C
1784.471	0.017	1103158	REC_END	n/a	n/a	3	-999	n/a	n/a	n/a	n/a	15	[0, 0, 0]	-999	PAL1	0	R1063C
1784.488	0.275	1103167	TEST_ORIENT	n/a	n/a	6	6	TRASH	POND	TRASH	POND	15	[0, 0, 0]	-999	PAL1	0	R1063C
1785.388	4.0	1103617	TEST_PROBE	n/a	wordpools/wordpool_EN.txt	6	6	TRASH	POND	TRASH	POND	15	[0, 0, 0]	-999	PAL1	0	R1063C
1785.389	1.771	1103617	REC_START	n/a	n/a	6	-999	n/a	POND	n/a	n/a	15	[0, 0, 0]	-999	PAL1	0	R1063C
1787.16	0.801	1104503	REC_EVENT	1771.0	n/a	6	6	TRASH	POND	TRASH	POND	15	[0, 0, 0]	-999	PAL1	0	R1063C
1787.961	2.438	1104903	REC_EVENT	2572.0	n/a	6	6	TRASH	<>	TRASH	POND	15	[0, 0, 0]	-999	PAL1	0	R1063C
1790.399	7.673	1106122	REC_END	n/a	n/a	6	-999	n/a	n/a	n/a	n/a	15	[0, 0, 0]	-999	PAL1	0	R1063C
1798.072	10.436	1109958	ENCODING_START	n/a	n/a	0	-999	n/a	n/a	n/a	n/a	16	[0, 0, 0]	-999	PAL1	0	R1063C
1808.508	0.275	1115176	STUDY_ORIENT	n/a	n/a	1	5	CLOCK	n/a	CLOCK	ZOO	16	[0, 0, 0]	-999	PAL1	0	R1063C
1809.293	4.0	1115568	STUDY_PAIR	n/a	wordpools/wordpool_EN.txt	1	5	CLOCK	n/a	CLOCK	ZOO	16	[0, 0, 0]	-999	PAL1	0	R1063C
1814.327	0.275	1118085	STUDY_ORIENT	n/a	n/a	2	4	TRAIN	n/a	SKI	TRAIN	16	[0, 0, 0]	-999	PAL1	0	R1063C
1815.211	4.0	1118527	STUDY_PAIR	n/a	wordpools/wordpool_EN.txt	2	4	TRAIN	n/a	SKI	TRAIN	16	[0, 0, 0]	-999	PAL1	0	R1063C
1820.245	0.275	1121044	STUDY_ORIENT	n/a	n/a	3	3	BEACH	n/a	STRAW	BEACH	16	[0, 0, 0]	-999	PAL1	0	R1063C
1821.112	4.0	1121477	STUDY_PAIR	n/a	wordpools/wordpool_EN.txt	3	3	BEACH	n/a	STRAW	BEACH	16	[0, 0, 0]	-999	PAL1	0	R1063C
1826.146	0.275	1123994	STUDY_ORIENT	n/a	n/a	4	2	WING	n/a	PHONE	WING	16	[0, 0, 0]	-999	PAL1	0	R1063C
1827.013	4.0	1124427	STUDY_PAIR	n/a	wordpools/wordpool_EN.txt	4	2	WING	n/a	PHONE	WING	16	[0, 0, 0]	-999	PAL1	0	R1063C
1832.047	0.275	1126944	STUDY_ORIENT	n/a	n/a	5	1	NOSE	STRAW	THREAD	NOSE	16	[0, 0, 0]	-999	PAL1	0	R1063C
1832.981	4.0	1127411	STUDY_PAIR	n/a	wordpools/wordpool_EN.txt	5	1	NOSE	STRAW	THREAD	NOSE	16	[0, 0, 0]	-999	PAL1	0	R1063C
1838.015	0.275	1129928	STUDY_ORIENT	n/a	n/a	6	6	TOOL	CAR	TOOL	CAR	16	[0, 0, 0]	-999	PAL1	0	R1063C
1838.848	4.0	1130344	STUDY_PAIR	n/a	wordpools/wordpool_EN.txt	6	6	TOOL	CAR	TOOL	CAR	16	[0, 0, 0]	-999	PAL1	0	R1063C
1842.867	0.999	1132354	START	n/a	n/a	-999	-999	n/a	n/a	n/a	n/a	17	[-999, -999, -999]	-999	PAL1	0	R1063C
1843.866	0.017	1132853	MATH_START	n/a	n/a	-999	-999	n/a	n/a	n/a	n/a	16	[0, 0, 0]	-999	PAL1	0	R1063C
1843.883	5.984	1132862	PROB	5964.0	n/a	-999	-999	n/a	n/a	n/a	n/a	17	[3, 4, 5]	17	PAL1	0	R1063C
1849.867	7.002	1135853	PROB	6972.0	n/a	-999	-999	n/a	n/a	n/a	n/a	17	[7, 9, 5]	21	PAL1	0	R1063C
1856.869	2.234	1139354	PROB	2211.0	n/a	-999	-999	n/a	n/a	n/a	n/a	17	[1, 3, 1]	5	PAL1	0	R1063C
1859.103	5.712	1140471	PROB	5712.0	n/a	-999	-999	n/a	n/a	n/a	n/a	17	[5, 5, 4]	14	PAL1	0	R1063C
1864.815	0.004	1143327	STOP	n/a	n/a	-999	-999	n/a	n/a	n/a	n/a	17	[-999, -999, -999]	-999	PAL1	0	R1063C
1864.819	0.0	1143329	MATH_END	n/a	n/a	-999	-999	n/a	n/a	n/a	n/a	16	[0, 0, 0]	-999	PAL1	0	R1063C
1864.819	0.017	1143329	TEST_START	n/a	n/a	-999	-999	n/a	n/a	n/a	n/a	16	[0, 0, 0]	-999	PAL1	0	R1063C
1864.836	0.275	1143337	TEST_ORIENT	n/a	n/a	5	1	NOSE	STRAW	THREAD	NOSE	16	[0, 0, 0]	-999	PAL1	0	R1063C
1865.803	4.0	1143821	TEST_PROBE	n/a	wordpools/wordpool_EN.txt	5	1	NOSE	STRAW	THREAD	NOSE	16	[0, 0, 0]	-999	PAL1	0	R1063C
1865.803	1.34	1143821	REC_START	n/a	n/a	5	-999	n/a	STRAW	n/a	n/a	16	[0, 0, 0]	-999	PAL1	0	R1063C
1867.143	0.965	1144491	REC_EVENT	1340.0	n/a	5	1	NOSE	<>	THREAD	NOSE	16	[0, 0, 0]	-999	PAL1	0	R1063C
1868.108	1.0	1144973	REC_EVENT	2305.0	n/a	5	1	NOSE	STRAW	THREAD	NOSE	16	[0, 0, 0]	-999	PAL1	0	R1063C
1869.108	1.712	1145473	REC_EVENT	3305.0	n/a	5	1	NOSE	<>	THREAD	NOSE	16	[0, 0, 0]	-999	PAL1	0	R1063C
1870.82	0.017	1146329	REC_END	n/a	n/a	5	-999	n/a	n/a	n/a	n/a	16	[0, 0, 0]	-999	PAL1	0	R1063C
1870.837	0.275	1146338	TEST_ORIENT	n/a	n/a	4	2	WING	n/a	PHONE	WING	16	[0, 0, 0]	-999	PAL1	0	R1063C
1871.621	0.0	1146730	REC_START	n/a	n/a	4	-999	n/a	n/a	n/a	n/a	16	[0, 0, 0]	-999	PAL1	0	R1063C
1871.621	4.0	1146730	TEST_PROBE	n/a	wordpools/wordpool_EN.txt	4	2	WING	n/a	PHONE	WING	16	[0, 0, 0]	-999	PAL1	0	R1063C
1876.636	0.002	1149237	REC_EVENT	5015.0	n/a	4	2	WING	<>	PHONE	WING	16	[0, 0, 0]	-999	PAL1	0	R1063C
1876.638	0.017	1149238	REC_END	n/a	n/a	4	-999	n/a	n/a	n/a	n/a	16	[0, 0, 0]	-999	PAL1	0	R1063C
1876.655	0.275	1149246	TEST_ORIENT	n/a	n/a	3	3	BEACH	n/a	STRAW	BEACH	16	[0, 0, 0]	-999	PAL1	0	R1063C
1877.456	4.0	1149647	TEST_PROBE	n/a	wordpools/wordpool_EN.txt	3	3	BEACH	n/a	STRAW	BEACH	16	[0, 0, 0]	-999	PAL1	0	R1063C
1877.456	1.688	1149647	REC_START	n/a	n/a	3	-999	n/a	n/a	n/a	n/a	16	[0, 0, 0]	-999	PAL1	0	R1063C
1879.144	1.633	1150491	REC_EVENT	1688.0	n/a	3	3	BEACH	<>	STRAW	BEACH	16	[0, 0, 0]	-999	PAL1	0	R1063C
1880.777	1.696	1151307	REC_EVENT	3321.0	n/a	3	3	BEACH	<>	STRAW	BEACH	16	[0, 0, 0]	-999	PAL1	0	R1063C
1882.473	0.017	1152155	REC_END	n/a	n/a	3	-999	n/a	n/a	n/a	n/a	16	[0, 0, 0]	-999	PAL1	0	R1063C
1882.49	0.275	1152164	TEST_ORIENT	n/a	n/a	2	4	TRAIN	n/a	SKI	TRAIN	16	[0, 0, 0]	-999	PAL1	0	R1063C
1883.391	4.0	1152614	TEST_PROBE	n/a	wordpools/wordpool_EN.txt	2	4	TRAIN	n/a	SKI	TRAIN	16	[0, 0, 0]	-999	PAL1	0	R1063C
1883.391	5.015	1152614	REC_START	n/a	n/a	2	-999	n/a	n/a	n/a	n/a	16	[0, 0, 0]	-999	PAL1	0	R1063C
1888.406	0.002	1155121	REC_EVENT	5015.0	n/a	2	4	TRAIN	<>	SKI	TRAIN	16	[0, 0, 0]	-999	PAL1	0	R1063C
1888.408	0.017	1155122	REC_END	n/a	n/a	2	-999	n/a	n/a	n/a	n/a	16	[0, 0, 0]	-999	PAL1	0	R1063C
1888.425	0.275	1155131	TEST_ORIENT	n/a	n/a	1	5	CLOCK	n/a	CLOCK	ZOO	16	[0, 0, 0]	-999	PAL1	0	R1063C
1889.425	4.0	1155631	TEST_PROBE	n/a	wordpools/wordpool_EN.txt	1	5	CLOCK	n/a	CLOCK	ZOO	16	[0, 0, 0]	-999	PAL1	0	R1063C
1889.426	5.015	1155631	REC_START	n/a	n/a	1	-999	n/a	n/a	n/a	n/a	16	[0, 0, 0]	-999	PAL1	0	R1063C
1894.441	0.001	1158139	REC_EVENT	5015.0	n/a	1	5	CLOCK	<>	CLOCK	ZOO	16	[0, 0, 0]	-999	PAL1	0	R1063C
1894.442	0.017	1158139	REC_END	n/a	n/a	1	-999	n/a	n/a	n/a	n/a	16	[0, 0, 0]	-999	PAL1	0	R1063C
1894.459	0.275	1158148	TEST_ORIENT	n/a	n/a	6	6	TOOL	CAR	TOOL	CAR	16	[0, 0, 0]	-999	PAL1	0	R1063C
1895.343	4.0	1158590	TEST_PROBE	n/a	wordpools/wordpool_EN.txt	6	6	TOOL	CAR	TOOL	CAR	16	[0, 0, 0]	-999	PAL1	0	R1063C
1895.343	1.601	1158590	REC_START	n/a	n/a	6	-999	n/a	CAR	n/a	n/a	16	[0, 0, 0]	-999	PAL1	0	R1063C
1896.944	3.416	1159390	REC_EVENT	1601.0	n/a	6	6	TOOL	CAR	TOOL	CAR	16	[0, 0, 0]	-999	PAL1	0	R1063C
1900.36	39.984	1161098	REC_END	n/a	n/a	6	-999	n/a	n/a	n/a	n/a	16	[0, 0, 0]	-999	PAL1	0	R1063C
1940.344	10.442	1181088	ENCODING_START	n/a	n/a	0	-999	n/a	n/a	n/a	n/a	17	[0, 0, 0]	-999	PAL1	0	R1063C
1950.786	0.275	1186309	STUDY_ORIENT	n/a	n/a	1	1	BLOOM	n/a	BLOOM	STRING	17	[0, 0, 0]	-999	PAL1	0	R1063C
1951.586	4.0	1186709	STUDY_PAIR	n/a	wordpools/wordpool_EN.txt	1	1	BLOOM	n/a	BLOOM	STRING	17	[0, 0, 0]	-999	PAL1	0	R1063C
1956.62	0.275	1189225	STUDY_ORIENT	n/a	n/a	2	6	SUN	n/a	SUN	SINK	17	[0, 0, 0]	-999	PAL1	0	R1063C
1957.52	4.0	1189675	STUDY_PAIR	n/a	wordpools/wordpool_EN.txt	2	6	SUN	n/a	SUN	SINK	17	[0, 0, 0]	-999	PAL1	0	R1063C
1962.538	0.275	1192184	STUDY_ORIENT	n/a	n/a	3	3	HAT	SUN	HAT	FLAME	17	[0, 0, 0]	-999	PAL1	0	R1063C
1963.389	4.0	1192610	STUDY_PAIR	n/a	wordpools/wordpool_EN.txt	3	3	HAT	SUN	HAT	FLAME	17	[0, 0, 0]	-999	PAL1	0	R1063C
1968.407	0.275	1195118	STUDY_ORIENT	n/a	n/a	4	4	TIE	n/a	ELF	TIE	17	[0, 0, 0]	-999	PAL1	0	R1063C
1969.39	4.0	1195610	STUDY_PAIR	n/a	wordpools/wordpool_EN.txt	4	4	TIE	n/a	ELF	TIE	17	[0, 0, 0]	-999	PAL1	0	R1063C
1974.408	0.275	1198119	STUDY_ORIENT	n/a	n/a	5	5	SHELL	n/a	TOOTH	SHELL	17	[0, 0, 0]	-999	PAL1	0	R1063C
1975.292	4.0	1198561	STUDY_PAIR	n/a	wordpools/wordpool_EN.txt	5	5	SHELL	n/a	TOOTH	SHELL	17	[0, 0, 0]	-999	PAL1	0	R1063C
1980.326	0.275	1201077	STUDY_ORIENT	n/a	n/a	6	2	TAIL	n/a	VINE	TAIL	17	[0, 0, 0]	-999	PAL1	0	R1063C
1981.276	4.0	1201552	STUDY_PAIR	n/a	wordpools/wordpool_EN.txt	6	2	TAIL	n/a	VINE	TAIL	17	[0, 0, 0]	-999	PAL1	0	R1063C
1985.294	0.999	1203561	START	n/a	n/a	-999	-999	n/a	n/a	n/a	n/a	18	[-999, -999, -999]	-999	PAL1	0	R1063C
1986.293	0.017	1204061	MATH_START	n/a	n/a	-999	-999	n/a	n/a	n/a	n/a	17	[0, 0, 0]	-999	PAL1	0	R1063C
1986.31	7.417	1204069	PROB	7385.0	n/a	-999	-999	n/a	n/a	n/a	n/a	18	[8, 9, 8]	25	PAL1	0	R1063C
1993.727	6.436	1207777	PROB	6409.0	n/a	-999	-999	n/a	n/a	n/a	n/a	18	[6, 7, 6]	19	PAL1	0	R1063C
2000.163	2.7	1210995	PROB	2668.0	n/a	-999	-999	n/a	n/a	n/a	n/a	18	[4, 8, 4]	16	PAL1	0	R1063C
2002.863	3.784	1212345	PROB	3784.0	n/a	-999	-999	n/a	n/a	n/a	n/a	18	[5, 2, 4]	11	PAL1	0	R1063C
2006.647	0.016	1214237	STOP	n/a	n/a	-999	-999	n/a	n/a	n/a	n/a	18	[-999, -999, -999]	-999	PAL1	0	R1063C
2006.663	0.0	1214245	MATH_END	n/a	n/a	-999	-999	n/a	n/a	n/a	n/a	17	[0, 0, 0]	-999	PAL1	0	R1063C
2006.663	0.017	1214245	TEST_START	n/a	n/a	-999	-999	n/a	n/a	n/a	n/a	17	[0, 0, 0]	-999	PAL1	0	R1063C
2006.68	0.275	1214253	TEST_ORIENT	n/a	n/a	1	1	BLOOM	n/a	BLOOM	STRING	17	[0, 0, 0]	-999	PAL1	0	R1063C
2007.647	4.0	1214737	TEST_PROBE	n/a	wordpools/wordpool_EN.txt	1	1	BLOOM	n/a	BLOOM	STRING	17	[0, 0, 0]	-999	PAL1	0	R1063C
2007.647	5.015	1214737	REC_START	n/a	n/a	1	-999	n/a	n/a	n/a	n/a	17	[0, 0, 0]	-999	PAL1	0	R1063C
2012.662	0.002	1217244	REC_EVENT	5015.0	n/a	1	1	BLOOM	<>	BLOOM	STRING	17	[0, 0, 0]	-999	PAL1	0	R1063C
2012.664	0.017	1217245	REC_END	n/a	n/a	1	-999	n/a	n/a	n/a	n/a	17	[0, 0, 0]	-999	PAL1	0	R1063C
2012.681	0.275	1217254	TEST_ORIENT	n/a	n/a	6	2	TAIL	n/a	VINE	TAIL	17	[0, 0, 0]	-999	PAL1	0	R1063C
2013.548	0.0	1217687	REC_START	n/a	n/a	6	-999	n/a	n/a	n/a	n/a	17	[0, 0, 0]	-999	PAL1	0	R1063C
2013.548	4.0	1217687	TEST_PROBE	n/a	wordpools/wordpool_EN.txt	6	2	TAIL	n/a	VINE	TAIL	17	[0, 0, 0]	-999	PAL1	0	R1063C
2018.563	0.002	1220194	REC_EVENT	5015.0	n/a	6	2	TAIL	<>	VINE	TAIL	17	[0, 0, 0]	-999	PAL1	0	R1063C
2018.565	0.017	1220195	REC_END	n/a	n/a	6	-999	n/a	n/a	n/a	n/a	17	[0, 0, 0]	-999	PAL1	0	R1063C
2018.582	0.275	1220204	TEST_ORIENT	n/a	n/a	3	3	HAT	SUN	HAT	FLAME	17	[0, 0, 0]	-999	PAL1	0	R1063C
2019.417	4.0	1220621	TEST_PROBE	n/a	wordpools/wordpool_EN.txt	3	3	HAT	SUN	HAT	FLAME	17	[0, 0, 0]	-999	PAL1	0	R1063C
2019.417	1.825	1220621	REC_START	n/a	n/a	3	-999	n/a	SUN	n/a	n/a	17	[0, 0, 0]	-999	PAL1	0	R1063C
2021.242	3.192	1221534	REC_EVENT	1825.0	n/a	3	3	HAT	SUN	HAT	FLAME	17	[0, 0, 0]	-999	PAL1	0	R1063C
2024.434	0.017	1223130	REC_END	n/a	n/a	3	-999	n/a	n/a	n/a	n/a	17	[0, 0, 0]	-999	PAL1	0	R1063C
2024.451	0.275	1223138	TEST_ORIENT	n/a	n/a	4	4	TIE	n/a	ELF	TIE	17	[0, 0, 0]	-999	PAL1	0	R1063C
2025.484	4.0	1223654	TEST_PROBE	n/a	wordpools/wordpool_EN.txt	4	4	TIE	n/a	ELF	TIE	17	[0, 0, 0]	-999	PAL1	0	R1063C
2025.485	5.009	1223655	REC_START	n/a	n/a	4	-999	n/a	n/a	n/a	n/a	17	[0, 0, 0]	-999	PAL1	0	R1063C
2030.494	0.0	1226159	REC_EVENT	5009.0	n/a	4	4	TIE	<>	ELF	TIE	17	[0, 0, 0]	-999	PAL1	0	R1063C
2030.494	0.007	1226159	REC_END	n/a	n/a	4	-999	n/a	n/a	n/a	n/a	17	[0, 0, 0]	-999	PAL1	0	R1063C
2030.501	0.275	1226163	TEST_ORIENT	n/a	n/a	5	5	SHELL	n/a	TOOTH	SHELL	17	[0, 0, 0]	-999	PAL1	0	R1063C
2031.319	0.0	1226572	REC_START	n/a	n/a	5	-999	n/a	n/a	n/a	n/a	17	[0, 0, 0]	-999	PAL1	0	R1063C
2031.319	4.0	1226572	TEST_PROBE	n/a	wordpools/wordpool_EN.txt	5	5	SHELL	n/a	TOOTH	SHELL	17	[0, 0, 0]	-999	PAL1	0	R1063C
2036.336	0.004	1229080	REC_END	n/a	n/a	5	-999	n/a	n/a	n/a	n/a	17	[0, 0, 0]	-999	PAL1	0	R1063C
2036.34	0.013	1229082	REC_EVENT	5021.0	n/a	5	5	SHELL	<>	TOOTH	SHELL	17	[0, 0, 0]	-999	PAL1	0	R1063C
2036.353	0.275	1229089	TEST_ORIENT	n/a	n/a	2	6	SUN	n/a	SUN	SINK	17	[0, 0, 0]	-999	PAL1	0	R1063C
2037.236	4.0	1229530	TEST_PROBE	n/a	wordpools/wordpool_EN.txt	2	6	SUN	n/a	SUN	SINK	17	[0, 0, 0]	-999	PAL1	0	R1063C
2037.237	1.243	1229530	REC_START	n/a	n/a	2	-999	n/a	n/a	n/a	n/a	17	[0, 0, 0]	-999	PAL1	0	R1063C
2038.48	1.0	1230152	REC_EVENT	1243.0	n/a	2	6	SUN	<>	SUN	SINK	17	[0, 0, 0]	-999	PAL1	0	R1063C
2039.48	2.791	1230652	REC_EVENT	2243.0	n/a	2	6	SUN	<>	SUN	SINK	17	[0, 0, 0]	-999	PAL1	0	R1063C
2042.271	17.272	1232047	REC_END	n/a	n/a	2	-999	n/a	n/a	n/a	n/a	17	[0, 0, 0]	-999	PAL1	0	R1063C
2059.543	10.45	1240683	ENCODING_START	n/a	n/a	0	-999	n/a	n/a	n/a	n/a	18	[0, 0, 0]	-999	PAL1	0	R1063C
2069.993	0.275	1245907	STUDY_ORIENT	n/a	n/a	1	3	CHAIR	n/a	COUCH	CHAIR	18	[0, 0, 0]	-999	PAL1	0	R1063C
2070.842	4.0	1246332	STUDY_PAIR	n/a	wordpools/wordpool_EN.txt	1	3	CHAIR	n/a	COUCH	CHAIR	18	[0, 0, 0]	-999	PAL1	0	R1063C
2075.861	0.275	1248841	STUDY_ORIENT	n/a	n/a	2	4	BADGE	PEARL	BADGE	PEARL	18	[0, 0, 0]	-999	PAL1	0	R1063C
2076.727	4.0	1249274	STUDY_PAIR	n/a	wordpools/wordpool_EN.txt	2	4	BADGE	PEARL	BADGE	PEARL	18	[0, 0, 0]	-999	PAL1	0	R1063C
2081.761	0.275	1251791	STUDY_ORIENT	n/a	n/a	3	5	HOLE	STREET	STREET	HOLE	18	[0, 0, 0]	-999	PAL1	0	R1063C
2082.628	4.0	1252224	STUDY_PAIR	n/a	wordpools/wordpool_EN.txt	3	5	HOLE	STREET	STREET	HOLE	18	[0, 0, 0]	-999	PAL1	0	R1063C
2087.662	0.275	1254741	STUDY_ORIENT	n/a	n/a	4	2	SWORD	BOX	BOX	SWORD	18	[0, 0, 0]	-999	PAL1	0	R1063C
2088.512	4.0	1255166	STUDY_PAIR	n/a	wordpools/wordpool_EN.txt	4	2	SWORD	BOX	BOX	SWORD	18	[0, 0, 0]	-999	PAL1	0	R1063C
2093.53	0.275	1257675	STUDY_ORIENT	n/a	n/a	5	1	PEACH	n/a	RAT	PEACH	18	[0, 0, 0]	-999	PAL1	0	R1063C
2094.431	4.0	1258125	STUDY_PAIR	n/a	wordpools/wordpool_EN.txt	5	1	PEACH	n/a	RAT	PEACH	18	[0, 0, 0]	-999	PAL1	0	R1063C
2099.465	0.275	1260642	STUDY_ORIENT	n/a	n/a	6	6	SEED	n/a	DART	SEED	18	[0, 0, 0]	-999	PAL1	0	R1063C
2100.415	4.0	1261117	STUDY_PAIR	n/a	wordpools/wordpool_EN.txt	6	6	SEED	n/a	DART	SEED	18	[0, 0, 0]	-999	PAL1	0	R1063C
2104.416	1.0	1263117	START	n/a	n/a	-999	-999	n/a	n/a	n/a	n/a	19	[-999, -999, -999]	-999	PAL1	0	R1063C
2105.416	0.017	1263617	MATH_START	n/a	n/a	-999	-999	n/a	n/a	n/a	n/a	18	[0, 0, 0]	-999	PAL1	0	R1063C
2105.433	3.216	1263626	PROB	3182.0	n/a	-999	-999	n/a	n/a	n/a	n/a	19	[7, 3, 2]	12	PAL1	0	R1063C
2108.649	2.485	1265233	PROB	2463.0	n/a	-999	-999	n/a	n/a	n/a	n/a	19	[4, 1, 7]	12	PAL1	0	R1063C
2111.134	4.667	1266476	PROB	4633.0	n/a	-999	-999	n/a	n/a	n/a	n/a	19	[3, 5, 3]	11	PAL1	0	R1063C
2115.801	3.668	1268809	PROB	3647.0	n/a	-999	-999	n/a	n/a	n/a	n/a	19	[7, 5, 9]	21	PAL1	0	R1063C
2119.469	4.018	1270643	PROB	3995.0	n/a	-999	-999	n/a	n/a	n/a	n/a	19	[2, 6, 3]	11	PAL1	0	R1063C
2123.487	4.064	1272652	PROB	4064.0	n/a	-999	-999	n/a	n/a	n/a	n/a	19	[5, 8, 7]	21	PAL1	0	R1063C
2127.551	0.002	1274684	STOP	n/a	n/a	-999	-999	n/a	n/a	n/a	n/a	19	[-999, -999, -999]	-999	PAL1	0	R1063C
2127.553	0.0	1274685	MATH_END	n/a	n/a	-999	-999	n/a	n/a	n/a	n/a	18	[0, 0, 0]	-999	PAL1	0	R1063C
2127.553	0.017	1274685	TEST_START	n/a	n/a	-999	-999	n/a	n/a	n/a	n/a	18	[0, 0, 0]	-999	PAL1	0	R1063C
2127.57	0.275	1274693	TEST_ORIENT	n/a	n/a	5	1	PEACH	n/a	RAT	PEACH	18	[0, 0, 0]	-999	PAL1	0	R1063C
2128.371	4.0	1275094	TEST_PROBE	n/a	wordpools/wordpool_EN.txt	5	1	PEACH	n/a	RAT	PEACH	18	[0, 0, 0]	-999	PAL1	0	R1063C
