onset	duration	sample	trial_type	response_time	stim_file	serialpos	probepos	probe_word	resp_word	study_1	study_2	list	test	answer	experiment	session	subject
0.0	63.802	586183	SESS_START	n/a	n/a	-999	-999	n/a	n/a	n/a	n/a	-999	[0, 0, 0]	-999	PAL1	0	R1087N
63.802	1.016	649981	START	n/a	n/a	-999	-999	n/a	n/a	n/a	n/a	-1	[-999, -999, -999]	-999	PAL1	0	R1087N
64.818	6.952	650997	PROB	6.915	n/a	-999	-999	n/a	n/a	n/a	n/a	-1	[7, 4, 8]	19	PAL1	0	R1087N
71.77	4.301	657949	PROB	4.267	n/a	-999	-999	n/a	n/a	n/a	n/a	-1	[1, 2, 4]	7	PAL1	0	R1087N
76.071	3.667	662250	PROB	3.638	n/a	-999	-999	n/a	n/a	n/a	n/a	-1	[1, 9, 7]	17	PAL1	0	R1087N
79.738	3.833	665917	PROB	3.811	n/a	-999	-999	n/a	n/a	n/a	n/a	-1	[2, 9, 9]	20	PAL1	0	R1087N
83.571	5.114	669749	PROB	5.114	n/a	-999	-999	n/a	n/a	n/a	n/a	-1	[8, 3, 3]	14	PAL1	0	R1087N
88.685	35.744	674863	STOP	n/a	n/a	-999	-999	n/a	n/a	n/a	n/a	-1	[-999, -999, -999]	-999	PAL1	0	R1087N
124.429	96.216	710605	FEEDBACK_SHOW_ALL_PAIRS	n/a	n/a	-999	-999	n/a	n/a	n/a	n/a	-999	[0, 0, 0]	-999	PAL1	0	R1087N
220.645	10.451	806817	ENCODING_START	n/a	n/a	0	-999	n/a	n/a	n/a	n/a	1	[0, 0, 0]	-999	PAL1	0	R1087N
231.096	0.275	817267	STUDY_ORIENT	n/a	n/a	1	5	SOCK	n/a	SOCK	SIGN	1	[0, 0, 0]	-999	PAL1	0	R1087N
231.88	4.0	818051	STUDY_PAIR	n/a	wordpools/wordpool_EN.txt	1	5	SOCK	n/a	SOCK	SIGN	1	[0, 0, 0]	-999	PAL1	0	R1087N
236.914	0.275	823085	STUDY_ORIENT	n/a	n/a	2	2	CUBE	BEAN	BOARD	CUBE	1	[0, 0, 0]	-999	PAL1	0	R1087N
237.764	4.0	823935	STUDY_PAIR	n/a	wordpools/wordpool_EN.txt	2	2	CUBE	BEAN	BOARD	CUBE	1	[0, 0, 0]	-999	PAL1	0	R1087N
242.799	0.275	828969	STUDY_ORIENT	n/a	n/a	3	3	PIN	n/a	PIN	FOG	1	[0, 0, 0]	-999	PAL1	0	R1087N
243.632	4.0	829802	STUDY_PAIR	n/a	wordpools/wordpool_EN.txt	3	3	PIN	n/a	PIN	FOG	1	[0, 0, 0]	-999	PAL1	0	R1087N
248.666	0.275	834836	STUDY_ORIENT	n/a	n/a	4	6	FLAG	n/a	FLAG	WOLF	1	[0, 0, 0]	-999	PAL1	0	R1087N
249.466	4.0	835636	STUDY_PAIR	n/a	wordpools/wordpool_EN.txt	4	6	FLAG	n/a	FLAG	WOLF	1	[0, 0, 0]	-999	PAL1	0	R1087N
254.5	0.275	840670	STUDY_ORIENT	n/a	n/a	5	1	BRANCH	BEACH	SHRIMP	BRANCH	1	[0, 0, 0]	-999	PAL1	0	R1087N
255.517	4.0	841687	STUDY_PAIR	n/a	wordpools/wordpool_EN.txt	5	1	BRANCH	BEACH	SHRIMP	BRANCH	1	[0, 0, 0]	-999	PAL1	0	R1087N
260.551	0.275	846721	STUDY_ORIENT	n/a	n/a	6	4	GEESE	GOOSE	GEESE	STONE	1	[0, 0, 0]	-999	PAL1	0	R1087N
261.385	4.0	847555	STUDY_PAIR	n/a	wordpools/wordpool_EN.txt	6	4	GEESE	GOOSE	GEESE	STONE	1	[0, 0, 0]	-999	PAL1	0	R1087N
265.403	0.999	851572	START	n/a	n/a	-999	-999	n/a	n/a	n/a	n/a	1	[-999, -999, -999]	-999	PAL1	0	R1087N
266.402	0.017	852571	MATH_START	n/a	n/a	-999	-999	n/a	n/a	n/a	n/a	1	[0, 0, 0]	-999	PAL1	0	R1087N
266.419	3.65	852588	PROB	3.618	n/a	-999	-999	n/a	n/a	n/a	n/a	1	[2, 3, 3]	8	PAL1	0	R1087N
270.069	9.053	856238	PROB	9.024	n/a	-999	-999	n/a	n/a	n/a	n/a	1	[3, 7, 8]	18	PAL1	0	R1087N
279.122	4.901	865291	PROB	4.867	n/a	-999	-999	n/a	n/a	n/a	n/a	1	[7, 9, 2]	18	PAL1	0	R1087N
284.023	3.734	870191	PROB	3.734	n/a	-999	-999	n/a	n/a	n/a	n/a	1	[2, 1, 9]	12	PAL1	0	R1087N
287.757	0.016	873925	STOP	n/a	n/a	-999	-999	n/a	n/a	n/a	n/a	1	[-999, -999, -999]	-999	PAL1	0	R1087N
287.773	0.0	873941	MATH_END	n/a	n/a	-999	-999	n/a	n/a	n/a	n/a	1	[0, 0, 0]	-999	PAL1	0	R1087N
287.773	0.016	873941	TEST_START	n/a	n/a	-999	-999	n/a	n/a	n/a	n/a	1	[0, 0, 0]	-999	PAL1	0	R1087N
287.789	0.275	873957	TEST_ORIENT	n/a	n/a	5	1	BRANCH	BEACH	SHRIMP	BRANCH	1	[0, 0, 0]	-999	PAL1	0	R1087N
288.756	4.0	874924	TEST_PROBE	n/a	wordpools/wordpool_EN.txt	5	1	BRANCH	BEACH	SHRIMP	BRANCH	1	[0, 0, 0]	-999	PAL1	0	R1087N
288.757	2.659	874925	REC_START	n/a	n/a	5	-999	n/a	BEACH	n/a	n/a	1	[0, 0, 0]	-999	PAL1	0	R1087N
291.416	2.367	877584	REC_EVENT	2.659	n/a	5	1	BRANCH	BEACH	SHRIMP	BRANCH	1	[0, 0, 0]	-999	PAL1	0	R1087N
293.783	0.007	879951	REC_END	n/a	n/a	5	-999	n/a	n/a	n/a	n/a	1	[0, 0, 0]	-999	PAL1	0	R1087N
293.79	0.275	879958	TEST_ORIENT	n/a	n/a	2	2	CUBE	BEAN	BOARD	CUBE	1	[0, 0, 0]	-999	PAL1	0	R1087N
294.707	4.0	880875	TEST_PROBE	n/a	wordpools/wordpool_EN.txt	2	2	CUBE	BEAN	BOARD	CUBE	1	[0, 0, 0]	-999	PAL1	0	R1087N
294.708	3.085	880876	REC_START	n/a	n/a	2	-999	n/a	BEAN	n/a	n/a	1	[0, 0, 0]	-999	PAL1	0	R1087N
297.793	0.293	883961	REC_EVENT	3.085	n/a	2	2	CUBE	<>	BOARD	CUBE	1	[0, 0, 0]	-999	PAL1	0	R1087N
298.086	1.639	884254	REC_EVENT	3.378	n/a	2	2	CUBE	BEAN	BOARD	CUBE	1	[0, 0, 0]	-999	PAL1	0	R1087N
299.725	0.016	885893	REC_END	n/a	n/a	2	-999	n/a	n/a	n/a	n/a	1	[0, 0, 0]	-999	PAL1	0	R1087N
299.741	0.275	885909	TEST_ORIENT	n/a	n/a	3	3	PIN	n/a	PIN	FOG	1	[0, 0, 0]	-999	PAL1	0	R1087N
300.725	4.0	886893	TEST_PROBE	n/a	wordpools/wordpool_EN.txt	3	3	PIN	n/a	PIN	FOG	1	[0, 0, 0]	-999	PAL1	0	R1087N
300.725	4.969	886893	REC_START	n/a	n/a	3	-999	n/a	n/a	n/a	n/a	1	[0, 0, 0]	-999	PAL1	0	R1087N
305.694	0.048	891861	REC_EVENT	4.969	n/a	3	3	PIN	<>	PIN	FOG	1	[0, 0, 0]	-999	PAL1	0	R1087N
305.742	0.017	891909	REC_END	n/a	n/a	3	-999	n/a	n/a	n/a	n/a	1	[0, 0, 0]	-999	PAL1	0	R1087N
305.759	0.275	891926	TEST_ORIENT	n/a	n/a	6	4	GEESE	GOOSE	GEESE	STONE	1	[0, 0, 0]	-999	PAL1	0	R1087N
306.793	4.0	892960	TEST_PROBE	n/a	wordpools/wordpool_EN.txt	6	4	GEESE	GOOSE	GEESE	STONE	1	[0, 0, 0]	-999	PAL1	0	R1087N
306.793	3.0	892960	REC_START	n/a	n/a	6	-999	n/a	GOOSE	n/a	n/a	1	[0, 0, 0]	-999	PAL1	0	R1087N
309.793	1.4	895960	REC_EVENT	3.0	n/a	6	4	GEESE	GEESE	GEESE	STONE	1	[0, 0, 0]	-999	PAL1	0	R1087N
311.193	0.617	897360	REC_EVENT	4.4	n/a	6	4	GEESE	GOOSE	GEESE	STONE	1	[0, 0, 0]	-999	PAL1	0	R1087N
311.81	0.017	897977	REC_END	n/a	n/a	6	-999	n/a	n/a	n/a	n/a	1	[0, 0, 0]	-999	PAL1	0	R1087N
311.827	0.275	897994	TEST_ORIENT	n/a	n/a	1	5	SOCK	n/a	SOCK	SIGN	1	[0, 0, 0]	-999	PAL1	0	R1087N
312.677	4.0	898844	TEST_PROBE	n/a	wordpools/wordpool_EN.txt	1	5	SOCK	n/a	SOCK	SIGN	1	[0, 0, 0]	-999	PAL1	0	R1087N
312.677	3.462	898844	REC_START	n/a	n/a	1	-999	n/a	n/a	n/a	n/a	1	[0, 0, 0]	-999	PAL1	0	R1087N
316.139	0.426	902306	REC_EVENT	3.462	n/a	1	5	SOCK	<>	SOCK	SIGN	1	[0, 0, 0]	-999	PAL1	0	R1087N
316.565	1.129	902732	REC_EVENT	3.888	n/a	1	5	SOCK	<>	SOCK	SIGN	1	[0, 0, 0]	-999	PAL1	0	R1087N
317.694	0.017	903861	REC_END	n/a	n/a	1	-999	n/a	n/a	n/a	n/a	1	[0, 0, 0]	-999	PAL1	0	R1087N
317.711	0.275	903878	TEST_ORIENT	n/a	n/a	4	6	FLAG	n/a	FLAG	WOLF	1	[0, 0, 0]	-999	PAL1	0	R1087N
318.728	4.0	904895	TEST_PROBE	n/a	wordpools/wordpool_EN.txt	4	6	FLAG	n/a	FLAG	WOLF	1	[0, 0, 0]	-999	PAL1	0	R1087N
318.728	3.959	904895	REC_START	n/a	n/a	4	-999	n/a	n/a	n/a	n/a	1	[0, 0, 0]	-999	PAL1	0	R1087N
322.687	0.408	908853	REC_EVENT	3.959	n/a	4	6	FLAG	<>	FLAG	WOLF	1	[0, 0, 0]	-999	PAL1	0	R1087N
323.095	0.65	909261	REC_EVENT	4.367	n/a	4	6	FLAG	<>	FLAG	WOLF	1	[0, 0, 0]	-999	PAL1	0	R1087N
323.745	0.016	909911	REC_END	n/a	n/a	4	-999	n/a	n/a	n/a	n/a	1	[0, 0, 0]	-999	PAL1	0	R1087N
323.761	20.548	909927	FEEDBACK_SHOW_ALL_PAIRS	n/a	n/a	4	-999	n/a	n/a	n/a	n/a	1	[0, 0, 0]	-999	PAL1	0	R1087N
344.309	10.442	930474	ENCODING_START	n/a	n/a	0	-999	n/a	n/a	n/a	n/a	2	[0, 0, 0]	-999	PAL1	0	R1087N
354.751	0.275	940916	STUDY_ORIENT	n/a	n/a	1	1	MULE	n/a	MULE	FLUTE	2	[0, 0, 0]	-999	PAL1	0	R1087N
355.535	4.0	941700	STUDY_PAIR	n/a	wordpools/wordpool_EN.txt	1	1	MULE	n/a	MULE	FLUTE	2	[0, 0, 0]	-999	PAL1	0	R1087N
360.568	0.275	946733	STUDY_ORIENT	n/a	n/a	2	2	SWAMP	n/a	FUR	SWAMP	2	[0, 0, 0]	-999	PAL1	0	R1087N
361.436	4.0	947601	STUDY_PAIR	n/a	wordpools/wordpool_EN.txt	2	2	SWAMP	n/a	FUR	SWAMP	2	[0, 0, 0]	-999	PAL1	0	R1087N
366.469	0.275	952633	STUDY_ORIENT	n/a	n/a	3	3	ROSE	BIRD	WING	ROSE	2	[0, 0, 0]	-999	PAL1	0	R1087N
367.486	4.0	953650	STUDY_PAIR	n/a	wordpools/wordpool_EN.txt	3	3	ROSE	BIRD	WING	ROSE	2	[0, 0, 0]	-999	PAL1	0	R1087N
372.52	0.275	958684	STUDY_ORIENT	n/a	n/a	4	6	COW	n/a	BAND	COW	2	[0, 0, 0]	-999	PAL1	0	R1087N
373.37	4.0	959534	STUDY_PAIR	n/a	wordpools/wordpool_EN.txt	4	6	COW	n/a	BAND	COW	2	[0, 0, 0]	-999	PAL1	0	R1087N
378.405	0.275	964569	STUDY_ORIENT	n/a	n/a	5	5	BOOK	BATH	BATH	BOOK	2	[0, 0, 0]	-999	PAL1	0	R1087N
379.288	4.0	965452	STUDY_PAIR	n/a	wordpools/wordpool_EN.txt	5	5	BOOK	BATH	BATH	BOOK	2	[0, 0, 0]	-999	PAL1	0	R1087N
384.322	0.275	970485	STUDY_ORIENT	n/a	n/a	6	4	SLEEVE	SLEEVE	SQUARE	SLEEVE	2	[0, 0, 0]	-999	PAL1	0	R1087N
385.206	4.0	971369	STUDY_PAIR	n/a	wordpools/wordpool_EN.txt	6	4	SLEEVE	SLEEVE	SQUARE	SLEEVE	2	[0, 0, 0]	-999	PAL1	0	R1087N
389.224	1.0	975387	START	n/a	n/a	-999	-999	n/a	n/a	n/a	n/a	2	[-999, -999, -999]	-999	PAL1	0	R1087N
390.224	0.016	976387	MATH_START	n/a	n/a	-999	-999	n/a	n/a	n/a	n/a	2	[0, 0, 0]	-999	PAL1	0	R1087N
390.24	3.734	976403	PROB	3.709	n/a	-999	-999	n/a	n/a	n/a	n/a	2	[2, 1, 5]	8	PAL1	0	R1087N
393.974	7.252	980137	PROB	7.215	n/a	-999	-999	n/a	n/a	n/a	n/a	2	[4, 9, 6]	19	PAL1	0	R1087N
401.226	6.533	987389	PROB	6.507	n/a	-999	-999	n/a	n/a	n/a	n/a	2	[3, 1, 7]	11	PAL1	0	R1087N
407.759	6.102	993921	PROB	6.102	n/a	-999	-999	n/a	n/a	n/a	n/a	2	[8, 9, 3]	20	PAL1	0	R1087N
413.861	0.017	1000023	STOP	n/a	n/a	-999	-999	n/a	n/a	n/a	n/a	2	[-999, -999, -999]	-999	PAL1	0	R1087N
413.878	0.0	1000040	MATH_END	n/a	n/a	-999	-999	n/a	n/a	n/a	n/a	2	[0, 0, 0]	-999	PAL1	0	R1087N
413.878	0.016	1000040	TEST_START	n/a	n/a	-999	-999	n/a	n/a	n/a	n/a	2	[0, 0, 0]	-999	PAL1	0	R1087N
413.894	0.275	1000056	TEST_ORIENT	n/a	n/a	1	1	MULE	n/a	MULE	FLUTE	2	[0, 0, 0]	-999	PAL1	0	R1087N
414.861	4.0	1001023	TEST_PROBE	n/a	wordpools/wordpool_EN.txt	1	1	MULE	n/a	MULE	FLUTE	2	[0, 0, 0]	-999	PAL1	0	R1087N
414.862	5.005	1001024	REC_START	n/a	n/a	1	-999	n/a	n/a	n/a	n/a	2	[0, 0, 0]	-999	PAL1	0	R1087N
419.867	0.019	1006029	REC_EVENT	5.005	n/a	1	1	MULE	<>	MULE	FLUTE	2	[0, 0, 0]	-999	PAL1	0	R1087N
419.886	0.009	1006048	REC_END	n/a	n/a	1	-999	n/a	n/a	n/a	n/a	2	[0, 0, 0]	-999	PAL1	0	R1087N
419.895	0.275	1006057	TEST_ORIENT	n/a	n/a	2	2	SWAMP	n/a	FUR	SWAMP	2	[0, 0, 0]	-999	PAL1	0	R1087N
420.812	0.0	1006974	REC_START	n/a	n/a	2	-999	n/a	n/a	n/a	n/a	2	[0, 0, 0]	-999	PAL1	0	R1087N
420.812	4.0	1006974	TEST_PROBE	n/a	wordpools/wordpool_EN.txt	2	2	SWAMP	n/a	FUR	SWAMP	2	[0, 0, 0]	-999	PAL1	0	R1087N
425.781	0.048	1011942	REC_EVENT	4.969	n/a	2	2	SWAMP	<>	FUR	SWAMP	2	[0, 0, 0]	-999	PAL1	0	R1087N
425.829	0.017	1011990	REC_END	n/a	n/a	2	-999	n/a	n/a	n/a	n/a	2	[0, 0, 0]	-999	PAL1	0	R1087N
425.846	0.275	1012007	TEST_ORIENT	n/a	n/a	3	3	ROSE	BIRD	WING	ROSE	2	[0, 0, 0]	-999	PAL1	0	R1087N
426.713	4.0	1012874	TEST_PROBE	n/a	wordpools/wordpool_EN.txt	3	3	ROSE	BIRD	WING	ROSE	2	[0, 0, 0]	-999	PAL1	0	R1087N
426.713	1.721	1012874	REC_START	n/a	n/a	3	-999	n/a	BIRD	n/a	n/a	2	[0, 0, 0]	-999	PAL1	0	R1087N
428.434	2.706	1014595	REC_EVENT	1.721	n/a	3	3	ROSE	BIRD	WING	ROSE	2	[0, 0, 0]	-999	PAL1	0	R1087N
431.14	0.59	1017301	REC_EVENT	4.427	n/a	3	3	ROSE	<>	WING	ROSE	2	[0, 0, 0]	-999	PAL1	0	R1087N
431.73	0.017	1017891	REC_END	n/a	n/a	3	-999	n/a	n/a	n/a	n/a	2	[0, 0, 0]	-999	PAL1	0	R1087N
431.747	0.275	1017908	TEST_ORIENT	n/a	n/a	6	4	SLEEVE	SLEEVE	SQUARE	SLEEVE	2	[0, 0, 0]	-999	PAL1	0	R1087N
432.598	4.0	1018759	TEST_PROBE	n/a	wordpools/wordpool_EN.txt	6	4	SLEEVE	SLEEVE	SQUARE	SLEEVE	2	[0, 0, 0]	-999	PAL1	0	R1087N
432.598	1.807	1018759	REC_START	n/a	n/a	6	-999	n/a	SLEEVE	n/a	n/a	2	[0, 0, 0]	-999	PAL1	0	R1087N
434.405	0.752	1020566	REC_EVENT	1.807	n/a	6	4	SLEEVE	SLEEVE	SQUARE	SLEEVE	2	[0, 0, 0]	-999	PAL1	0	R1087N
435.157	2.457	1021318	REC_EVENT	2.559	n/a	6	4	SLEEVE	<>	SQUARE	SLEEVE	2	[0, 0, 0]	-999	PAL1	0	R1087N
437.614	0.017	1023775	REC_END	n/a	n/a	6	-999	n/a	n/a	n/a	n/a	2	[0, 0, 0]	-999	PAL1	0	R1087N
437.631	0.275	1023792	TEST_ORIENT	n/a	n/a	5	5	BOOK	BATH	BATH	BOOK	2	[0, 0, 0]	-999	PAL1	0	R1087N
438.465	4.0	1024626	TEST_PROBE	n/a	wordpools/wordpool_EN.txt	5	5	BOOK	BATH	BATH	BOOK	2	[0, 0, 0]	-999	PAL1	0	R1087N
438.465	1.386	1024626	REC_START	n/a	n/a	5	-999	n/a	BATH	n/a	n/a	2	[0, 0, 0]	-999	PAL1	0	R1087N
439.851	3.631	1026012	REC_EVENT	1.386	n/a	5	5	BOOK	BATH	BATH	BOOK	2	[0, 0, 0]	-999	PAL1	0	R1087N
443.482	0.017	1029642	REC_END	n/a	n/a	5	-999	n/a	n/a	n/a	n/a	2	[0, 0, 0]	-999	PAL1	0	R1087N
443.499	0.275	1029659	TEST_ORIENT	n/a	n/a	4	6	COW	n/a	BAND	COW	2	[0, 0, 0]	-999	PAL1	0	R1087N
444.482	4.0	1030642	TEST_PROBE	n/a	wordpools/wordpool_EN.txt	4	6	COW	n/a	BAND	COW	2	[0, 0, 0]	-999	PAL1	0	R1087N
444.483	4.969	1030643	REC_START	n/a	n/a	4	-999	n/a	n/a	n/a	n/a	2	[0, 0, 0]	-999	PAL1	0	R1087N
449.452	0.056	1035612	REC_EVENT	4.969	n/a	4	6	COW	<>	BAND	COW	2	[0, 0, 0]	-999	PAL1	0	R1087N
449.508	0.025	1035668	REC_END	n/a	n/a	4	-999	n/a	n/a	n/a	n/a	2	[0, 0, 0]	-999	PAL1	0	R1087N
449.533	20.84	1035693	FEEDBACK_SHOW_ALL_PAIRS	n/a	n/a	4	-999	n/a	n/a	n/a	n/a	2	[0, 0, 0]	-999	PAL1	0	R1087N
470.373	10.449	1056532	ENCODING_START	n/a	n/a	0	-999	n/a	n/a	n/a	n/a	3	[0, 0, 0]	-999	PAL1	0	R1087N
480.822	0.275	1066981	STUDY_ORIENT	n/a	n/a	1	3	TRASH	OWL	SUIT	TRASH	3	[0, 0, 0]	-999	PAL1	0	R1087N
481.806	4.0	1067965	STUDY_PAIR	n/a	wordpools/wordpool_EN.txt	1	3	TRASH	OWL	SUIT	TRASH	3	[0, 0, 0]	-999	PAL1	0	R1087N
486.84	0.275	1072998	STUDY_ORIENT	n/a	n/a	2	2	PASTE	PASTE	SALT	PASTE	3	[0, 0, 0]	-999	PAL1	0	R1087N
487.64	4.0	1073798	STUDY_PAIR	n/a	wordpools/wordpool_EN.txt	2	2	PASTE	PASTE	SALT	PASTE	3	[0, 0, 0]	-999	PAL1	0	R1087N
492.674	0.275	1078832	STUDY_ORIENT	n/a	n/a	3	5	CHIN	BRAKE	CHIN	TOOTH	3	[0, 0, 0]	-999	PAL1	0	R1087N
493.525	4.0	1079683	STUDY_PAIR	n/a	wordpools/wordpool_EN.txt	3	5	CHIN	BRAKE	CHIN	TOOTH	3	[0, 0, 0]	-999	PAL1	0	R1087N
498.558	0.275	1084716	STUDY_ORIENT	n/a	n/a	4	6	BEAK	JAIL	JAIL	BEAK	3	[0, 0, 0]	-999	PAL1	0	R1087N
499.392	4.0	1085550	STUDY_PAIR	n/a	wordpools/wordpool_EN.txt	4	6	BEAK	JAIL	JAIL	BEAK	3	[0, 0, 0]	-999	PAL1	0	R1087N
504.427	0.275	1090584	STUDY_ORIENT	n/a	n/a	5	1	OWL	OWL	CORD	OWL	3	[0, 0, 0]	-999	PAL1	0	R1087N
505.376	4.0	1091533	STUDY_PAIR	n/a	wordpools/wordpool_EN.txt	5	1	OWL	OWL	CORD	OWL	3	[0, 0, 0]	-999	PAL1	0	R1087N
510.41	0.275	1096567	STUDY_ORIENT	n/a	n/a	6	4	PEN	n/a	PEN	JET	3	[0, 0, 0]	-999	PAL1	0	R1087N
511.378	4.0	1097535	STUDY_PAIR	n/a	wordpools/wordpool_EN.txt	6	4	PEN	n/a	PEN	JET	3	[0, 0, 0]	-999	PAL1	0	R1087N
515.395	1.0	1101552	START	n/a	n/a	-999	-999	n/a	n/a	n/a	n/a	3	[-999, -999, -999]	-999	PAL1	0	R1087N
516.395	0.017	1102552	MATH_START	n/a	n/a	-999	-999	n/a	n/a	n/a	n/a	3	[0, 0, 0]	-999	PAL1	0	R1087N
516.412	5.067	1102569	PROB	5.041	n/a	-999	-999	n/a	n/a	n/a	n/a	3	[6, 4, 6]	16	PAL1	0	R1087N
521.479	14.454	1107636	PROB	14.454	n/a	-999	-999	n/a	n/a	n/a	n/a	3	[7, 9, 7]	23	PAL1	0	R1087N
535.933	0.015	1122089	STOP	n/a	n/a	-999	-999	n/a	n/a	n/a	n/a	3	[-999, -999, -999]	-999	PAL1	0	R1087N
535.948	0.0	1122104	MATH_END	n/a	n/a	-999	-999	n/a	n/a	n/a	n/a	3	[0, 0, 0]	-999	PAL1	0	R1087N
535.948	0.017	1122104	TEST_START	n/a	n/a	-999	-999	n/a	n/a	n/a	n/a	3	[0, 0, 0]	-999	PAL1	0	R1087N
535.965	0.275	1122121	TEST_ORIENT	n/a	n/a	5	1	OWL	OWL	CORD	OWL	3	[0, 0, 0]	-999	PAL1	0	R1087N
536.931	4.0	1123087	TEST_PROBE	n/a	wordpools/wordpool_EN.txt	5	1	OWL	OWL	CORD	OWL	3	[0, 0, 0]	-999	PAL1	0	R1087N
536.933	3.578	1123089	REC_START	n/a	n/a	5	-999	n/a	OWL	n/a	n/a	3	[0, 0, 0]	-999	PAL1	0	R1087N
540.511	1.438	1126667	REC_EVENT	3.578	n/a	5	1	OWL	OWL	CORD	OWL	3	[0, 0, 0]	-999	PAL1	0	R1087N
541.949	0.016	1128105	REC_END	n/a	n/a	5	-999	n/a	n/a	n/a	n/a	3	[0, 0, 0]	-999	PAL1	0	R1087N
541.965	0.275	1128121	TEST_ORIENT	n/a	n/a	2	2	PASTE	PASTE	SALT	PASTE	3	[0, 0, 0]	-999	PAL1	0	R1087N
542.932	4.0	1129087	TEST_PROBE	n/a	wordpools/wordpool_EN.txt	2	2	PASTE	PASTE	SALT	PASTE	3	[0, 0, 0]	-999	PAL1	0	R1087N
542.933	1.303	1129088	REC_START	n/a	n/a	2	-999	n/a	PASTE	n/a	n/a	3	[0, 0, 0]	-999	PAL1	0	R1087N
544.236	3.722	1130391	REC_EVENT	1.303	n/a	2	2	PASTE	PASTE	SALT	PASTE	3	[0, 0, 0]	-999	PAL1	0	R1087N
547.958	0.008	1134113	REC_END	n/a	n/a	2	-999	n/a	n/a	n/a	n/a	3	[0, 0, 0]	-999	PAL1	0	R1087N
547.966	0.275	1134121	TEST_ORIENT	n/a	n/a	1	3	TRASH	OWL	SUIT	TRASH	3	[0, 0, 0]	-999	PAL1	0	R1087N
548.883	4.0	1135038	TEST_PROBE	n/a	wordpools/wordpool_EN.txt	1	3	TRASH	OWL	SUIT	TRASH	3	[0, 0, 0]	-999	PAL1	0	R1087N
548.884	2.194	1135039	REC_START	n/a	n/a	1	-999	n/a	OWL	n/a	n/a	3	[0, 0, 0]	-999	PAL1	0	R1087N
551.078	0.58	1137233	REC_EVENT	2.194	n/a	1	3	TRASH	OWL	SUIT	TRASH	3	[0, 0, 0]	-999	PAL1	0	R1087N
551.658	0.181	1137813	REC_EVENT	2.774	n/a	1	3	TRASH	<>	SUIT	TRASH	3	[0, 0, 0]	-999	PAL1	0	R1087N
551.839	0.905	1137994	REC_EVENT	2.955	n/a	1	3	TRASH	TRASH	SUIT	TRASH	3	[0, 0, 0]	-999	PAL1	0	R1087N
552.744	0.578	1138899	REC_EVENT	3.86	n/a	1	3	TRASH	OWL	SUIT	TRASH	3	[0, 0, 0]	-999	PAL1	0	R1087N
553.322	0.588	1139477	REC_EVENT	4.438	n/a	1	3	TRASH	OWL	SUIT	TRASH	3	[0, 0, 0]	-999	PAL1	0	R1087N
553.91	0.007	1140065	REC_END	n/a	n/a	1	-999	n/a	n/a	n/a	n/a	3	[0, 0, 0]	-999	PAL1	0	R1087N
553.917	0.275	1140072	TEST_ORIENT	n/a	n/a	6	4	PEN	n/a	PEN	JET	3	[0, 0, 0]	-999	PAL1	0	R1087N
554.868	4.0	1141023	TEST_PROBE	n/a	wordpools/wordpool_EN.txt	6	4	PEN	n/a	PEN	JET	3	[0, 0, 0]	-999	PAL1	0	R1087N
554.868	3.225	1141023	REC_START	n/a	n/a	6	-999	n/a	n/a	n/a	n/a	3	[0, 0, 0]	-999	PAL1	0	R1087N
558.093	1.02	1144248	REC_EVENT	3.225	n/a	6	4	PEN	<>	PEN	JET	3	[0, 0, 0]	-999	PAL1	0	R1087N
559.113	0.772	1145268	REC_EVENT	4.245	n/a	6	4	PEN	<>	PEN	JET	3	[0, 0, 0]	-999	PAL1	0	R1087N
559.885	0.017	1146040	REC_END	n/a	n/a	6	-999	n/a	n/a	n/a	n/a	3	[0, 0, 0]	-999	PAL1	0	R1087N
559.902	0.275	1146057	TEST_ORIENT	n/a	n/a	3	5	CHIN	BRAKE	CHIN	TOOTH	3	[0, 0, 0]	-999	PAL1	0	R1087N
560.853	4.0	1147008	TEST_PROBE	n/a	wordpools/wordpool_EN.txt	3	5	CHIN	BRAKE	CHIN	TOOTH	3	[0, 0, 0]	-999	PAL1	0	R1087N
560.853	1.935	1147008	REC_START	n/a	n/a	3	-999	n/a	BRAKE	n/a	n/a	3	[0, 0, 0]	-999	PAL1	0	R1087N
562.788	3.081	1148942	REC_EVENT	1.935	n/a	3	5	CHIN	BRAKE	CHIN	TOOTH	3	[0, 0, 0]	-999	PAL1	0	R1087N
565.869	0.017	1152023	REC_END	n/a	n/a	3	-999	n/a	n/a	n/a	n/a	3	[0, 0, 0]	-999	PAL1	0	R1087N
565.886	0.275	1152040	TEST_ORIENT	n/a	n/a	4	6	BEAK	JAIL	JAIL	BEAK	3	[0, 0, 0]	-999	PAL1	0	R1087N
566.82	4.0	1152974	TEST_PROBE	n/a	wordpools/wordpool_EN.txt	4	6	BEAK	JAIL	JAIL	BEAK	3	[0, 0, 0]	-999	PAL1	0	R1087N
566.821	1.553	1152975	REC_START	n/a	n/a	4	-999	n/a	JAIL	n/a	n/a	3	[0, 0, 0]	-999	PAL1	0	R1087N
568.374	1.057	1154528	REC_EVENT	1.553	n/a	4	6	BEAK	JAIL	JAIL	BEAK	3	[0, 0, 0]	-999	PAL1	0	R1087N
569.431	2.406	1155585	REC_EVENT	2.61	n/a	4	6	BEAK	<>	JAIL	BEAK	3	[0, 0, 0]	-999	PAL1	0	R1087N
571.837	0.033	1157991	REC_END	n/a	n/a	4	-999	n/a	n/a	n/a	n/a	3	[0, 0, 0]	-999	PAL1	0	R1087N
571.87	39.655	1158024	FEEDBACK_SHOW_ALL_PAIRS	n/a	n/a	4	-999	n/a	n/a	n/a	n/a	3	[0, 0, 0]	-999	PAL1	0	R1087N
611.525	10.454	1197677	ENCODING_START	n/a	n/a	0	-999	n/a	n/a	n/a	n/a	4	[0, 0, 0]	-999	PAL1	0	R1087N
621.979	0.275	1208131	STUDY_ORIENT	n/a	n/a	1	1	PEAR	n/a	PEAR	WALL	4	[0, 0, 0]	-999	PAL1	0	R1087N
622.779	4.0	1208930	STUDY_PAIR	n/a	wordpools/wordpool_EN.txt	1	1	PEAR	n/a	PEAR	WALL	4	[0, 0, 0]	-999	PAL1	0	R1087N
627.813	0.275	1213964	STUDY_ORIENT	n/a	n/a	2	4	CROW	ROW	SAIL	CROW	4	[0, 0, 0]	-999	PAL1	0	R1087N
628.631	4.0	1214782	STUDY_PAIR	n/a	wordpools/wordpool_EN.txt	2	4	CROW	ROW	SAIL	CROW	4	[0, 0, 0]	-999	PAL1	0	R1087N
633.665	0.275	1219816	STUDY_ORIENT	n/a	n/a	3	3	ROOT	n/a	STOOL	ROOT	4	[0, 0, 0]	-999	PAL1	0	R1087N
634.615	4.0	1220766	STUDY_PAIR	n/a	wordpools/wordpool_EN.txt	3	3	ROOT	n/a	STOOL	ROOT	4	[0, 0, 0]	-999	PAL1	0	R1087N
639.649	0.275	1225800	STUDY_ORIENT	n/a	n/a	4	2	JUDGE	EEL	EEL	JUDGE	4	[0, 0, 0]	-999	PAL1	0	R1087N
640.449	4.0	1226600	STUDY_PAIR	n/a	wordpools/wordpool_EN.txt	4	2	JUDGE	EEL	EEL	JUDGE	4	[0, 0, 0]	-999	PAL1	0	R1087N
645.483	0.275	1231633	STUDY_ORIENT	n/a	n/a	5	5	APE	n/a	APE	SMOKE	4	[0, 0, 0]	-999	PAL1	0	R1087N
646.501	4.0	1232651	STUDY_PAIR	n/a	wordpools/wordpool_EN.txt	5	5	APE	n/a	APE	SMOKE	4	[0, 0, 0]	-999	PAL1	0	R1087N
651.534	0.275	1237684	STUDY_ORIENT	n/a	n/a	6	6	BOWL	BOWL	BOWL	LAND	4	[0, 0, 0]	-999	PAL1	0	R1087N
652.318	4.0	1238468	STUDY_PAIR	n/a	wordpools/wordpool_EN.txt	6	6	BOWL	BOWL	BOWL	LAND	4	[0, 0, 0]	-999	PAL1	0	R1087N
656.336	1.0	1242486	START	n/a	n/a	-999	-999	n/a	n/a	n/a	n/a	4	[-999, -999, -999]	-999	PAL1	0	R1087N
657.336	0.016	1243486	MATH_START	n/a	n/a	-999	-999	n/a	n/a	n/a	n/a	4	[0, 0, 0]	-999	PAL1	0	R1087N
657.352	6.217	1243502	PROB	6.189	n/a	-999	-999	n/a	n/a	n/a	n/a	4	[7, 4, 7]	18	PAL1	0	R1087N
663.569	5.052	1249718	PROB	5.02	n/a	-999	-999	n/a	n/a	n/a	n/a	4	[7, 3, 9]	19	PAL1	0	R1087N
668.621	7.752	1254770	PROB	7.752	n/a	-999	-999	n/a	n/a	n/a	n/a	4	[7, 3, 6]	21	PAL1	0	R1087N
676.373	0.015	1262522	STOP	n/a	n/a	-999	-999	n/a	n/a	n/a	n/a	4	[-999, -999, -999]	-999	PAL1	0	R1087N
676.388	0.0	1262537	MATH_END	n/a	n/a	-999	-999	n/a	n/a	n/a	n/a	4	[0, 0, 0]	-999	PAL1	0	R1087N
676.388	0.017	1262537	TEST_START	n/a	n/a	-999	-999	n/a	n/a	n/a	n/a	4	[0, 0, 0]	-999	PAL1	0	R1087N
676.405	0.275	1262554	TEST_ORIENT	n/a	n/a	1	1	PEAR	n/a	PEAR	WALL	4	[0, 0, 0]	-999	PAL1	0	R1087N
677.239	4.0	1263388	TEST_PROBE	n/a	wordpools/wordpool_EN.txt	1	1	PEAR	n/a	PEAR	WALL	4	[0, 0, 0]	-999	PAL1	0	R1087N
677.24	4.197	1263389	REC_START	n/a	n/a	1	-999	n/a	n/a	n/a	n/a	4	[0, 0, 0]	-999	PAL1	0	R1087N
681.437	0.819	1267586	REC_EVENT	4.197	n/a	1	1	PEAR	<>	PEAR	WALL	4	[0, 0, 0]	-999	PAL1	0	R1087N
682.256	0.016	1268405	REC_END	n/a	n/a	1	-999	n/a	n/a	n/a	n/a	4	[0, 0, 0]	-999	PAL1	0	R1087N
682.272	0.275	1268421	TEST_ORIENT	n/a	n/a	4	2	JUDGE	EEL	EEL	JUDGE	4	[0, 0, 0]	-999	PAL1	0	R1087N
683.273	4.0	1269421	TEST_PROBE	n/a	wordpools/wordpool_EN.txt	4	2	JUDGE	EEL	EEL	JUDGE	4	[0, 0, 0]	-999	PAL1	0	R1087N
683.273	1.457	1269421	REC_START	n/a	n/a	4	-999	n/a	EEL	n/a	n/a	4	[0, 0, 0]	-999	PAL1	0	R1087N
684.73	3.567	1270878	REC_EVENT	1.457	n/a	4	2	JUDGE	EEL	EEL	JUDGE	4	[0, 0, 0]	-999	PAL1	0	R1087N
688.297	0.01	1274445	REC_END	n/a	n/a	4	-999	n/a	n/a	n/a	n/a	4	[0, 0, 0]	-999	PAL1	0	R1087N
688.307	0.275	1274455	TEST_ORIENT	n/a	n/a	3	3	ROOT	n/a	STOOL	ROOT	4	[0, 0, 0]	-999	PAL1	0	R1087N
689.257	4.0	1275405	TEST_PROBE	n/a	wordpools/wordpool_EN.txt	3	3	ROOT	n/a	STOOL	ROOT	4	[0, 0, 0]	-999	PAL1	0	R1087N
689.258	4.945	1275406	REC_START	n/a	n/a	3	-999	n/a	n/a	n/a	n/a	4	[0, 0, 0]	-999	PAL1	0	R1087N
694.203	0.08	1280351	REC_EVENT	4.945	n/a	3	3	ROOT	<>	STOOL	ROOT	4	[0, 0, 0]	-999	PAL1	0	R1087N
694.283	0.008	1280431	REC_END	n/a	n/a	3	-999	n/a	n/a	n/a	n/a	4	[0, 0, 0]	-999	PAL1	0	R1087N
694.291	0.275	1280439	TEST_ORIENT	n/a	n/a	2	4	CROW	ROW	SAIL	CROW	4	[0, 0, 0]	-999	PAL1	0	R1087N
695.192	4.0	1281340	TEST_PROBE	n/a	wordpools/wordpool_EN.txt	2	4	CROW	ROW	SAIL	CROW	4	[0, 0, 0]	-999	PAL1	0	R1087N
695.192	2.664	1281340	REC_START	n/a	n/a	2	-999	n/a	ROW	n/a	n/a	4	[0, 0, 0]	-999	PAL1	0	R1087N
697.856	2.022	1284004	REC_EVENT	2.664	n/a	2	4	CROW	ROW	SAIL	CROW	4	[0, 0, 0]	-999	PAL1	0	R1087N
699.878	0.331	1286026	REC_EVENT	4.686	n/a	2	4	CROW	<>	SAIL	CROW	4	[0, 0, 0]	-999	PAL1	0	R1087N
700.209	0.017	1286357	REC_END	n/a	n/a	2	-999	n/a	n/a	n/a	n/a	4	[0, 0, 0]	-999	PAL1	0	R1087N
700.226	0.275	1286374	TEST_ORIENT	n/a	n/a	5	5	APE	n/a	APE	SMOKE	4	[0, 0, 0]	-999	PAL1	0	R1087N
701.159	4.0	1287307	TEST_PROBE	n/a	wordpools/wordpool_EN.txt	5	5	APE	n/a	APE	SMOKE	4	[0, 0, 0]	-999	PAL1	0	R1087N
701.159	4.965	1287307	REC_START	n/a	n/a	5	-999	n/a	n/a	n/a	n/a	4	[0, 0, 0]	-999	PAL1	0	R1087N
706.124	0.061	1292271	REC_EVENT	4.965	n/a	5	5	APE	<>	APE	SMOKE	4	[0, 0, 0]	-999	PAL1	0	R1087N
706.185	0.026	1292332	REC_END	n/a	n/a	5	-999	n/a	n/a	n/a	n/a	4	[0, 0, 0]	-999	PAL1	0	R1087N
706.211	0.275	1292358	TEST_ORIENT	n/a	n/a	6	6	BOWL	BOWL	BOWL	LAND	4	[0, 0, 0]	-999	PAL1	0	R1087N
707.21	4.0	1293357	TEST_PROBE	n/a	wordpools/wordpool_EN.txt	6	6	BOWL	BOWL	BOWL	LAND	4	[0, 0, 0]	-999	PAL1	0	R1087N
707.211	2.653	1293358	REC_START	n/a	n/a	6	-999	n/a	BOWL	n/a	n/a	4	[0, 0, 0]	-999	PAL1	0	R1087N
709.864	2.363	1296011	REC_EVENT	2.653	n/a	6	6	BOWL	BOWL	BOWL	LAND	4	[0, 0, 0]	-999	PAL1	0	R1087N
712.227	0.034	1298374	REC_END	n/a	n/a	6	-999	n/a	n/a	n/a	n/a	4	[0, 0, 0]	-999	PAL1	0	R1087N
712.261	17.888	1298408	FEEDBACK_SHOW_ALL_PAIRS	n/a	n/a	6	-999	n/a	n/a	n/a	n/a	4	[0, 0, 0]	-999	PAL1	0	R1087N
730.149	10.45	1316295	ENCODING_START	n/a	n/a	0	-999	n/a	n/a	n/a	n/a	5	[0, 0, 0]	-999	PAL1	0	R1087N
740.599	0.275	1326745	STUDY_ORIENT	n/a	n/a	1	1	CORN	SNOW	SNOW	CORN	5	[0, 0, 0]	-999	PAL1	0	R1087N
741.616	4.0	1327762	STUDY_PAIR	n/a	wordpools/wordpool_EN.txt	1	1	CORN	SNOW	SNOW	CORN	5	[0, 0, 0]	-999	PAL1	0	R1087N
746.65	0.275	1332795	STUDY_ORIENT	n/a	n/a	2	6	BADGE	BADGE	DRUM	BADGE	5	[0, 0, 0]	-999	PAL1	0	R1087N
747.667	4.0	1333812	STUDY_PAIR	n/a	wordpools/wordpool_EN.txt	2	6	BADGE	BADGE	DRUM	BADGE	5	[0, 0, 0]	-999	PAL1	0	R1087N
752.702	0.275	1338847	STUDY_ORIENT	n/a	n/a	3	5	HILL	SNOW	FISH	HILL	5	[0, 0, 0]	-999	PAL1	0	R1087N
753.718	4.0	1339863	STUDY_PAIR	n/a	wordpools/wordpool_EN.txt	3	5	HILL	SNOW	FISH	HILL	5	[0, 0, 0]	-999	PAL1	0	R1087N
758.753	0.275	1344898	STUDY_ORIENT	n/a	n/a	4	2	RAT	OWL	RAT	OAR	5	[0, 0, 0]	-999	PAL1	0	R1087N
759.736	4.0	1345881	STUDY_PAIR	n/a	wordpools/wordpool_EN.txt	4	2	RAT	OWL	RAT	OAR	5	[0, 0, 0]	-999	PAL1	0	R1087N
764.77	0.275	1350914	STUDY_ORIENT	n/a	n/a	5	3	STEM	n/a	STEM	HAWK	5	[0, 0, 0]	-999	PAL1	0	R1087N
765.587	4.0	1351731	STUDY_PAIR	n/a	wordpools/wordpool_EN.txt	5	3	STEM	n/a	STEM	HAWK	5	[0, 0, 0]	-999	PAL1	0	R1087N
770.621	0.275	1356765	STUDY_ORIENT	n/a	n/a	6	4	TOOL	TOOL	PIE	TOOL	5	[0, 0, 0]	-999	PAL1	0	R1087N
771.604	4.0	1357748	STUDY_PAIR	n/a	wordpools/wordpool_EN.txt	6	4	TOOL	TOOL	PIE	TOOL	5	[0, 0, 0]	-999	PAL1	0	R1087N
775.622	1.0	1361766	START	n/a	n/a	-999	-999	n/a	n/a	n/a	n/a	5	[-999, -999, -999]	-999	PAL1	0	R1087N
776.622	0.017	1362766	MATH_START	n/a	n/a	-999	-999	n/a	n/a	n/a	n/a	5	[0, 0, 0]	-999	PAL1	0	R1087N
776.639	7.634	1362783	PROB	7.598	n/a	-999	-999	n/a	n/a	n/a	n/a	5	[9, 9, 9]	27	PAL1	0	R1087N
784.273	5.718	1370416	PROB	5.692	n/a	-999	-999	n/a	n/a	n/a	n/a	5	[3, 8, 7]	18	PAL1	0	R1087N
789.991	6.87	1376134	PROB	6.87	n/a	-999	-999	n/a	n/a	n/a	n/a	5	[8, 9, 8]	25	PAL1	0	R1087N
796.861	0.014	1383004	STOP	n/a	n/a	-999	-999	n/a	n/a	n/a	n/a	5	[-999, -999, -999]	-999	PAL1	0	R1087N
796.875	0.0	1383018	MATH_END	n/a	n/a	-999	-999	n/a	n/a	n/a	n/a	5	[0, 0, 0]	-999	PAL1	0	R1087N
796.875	0.017	1383018	TEST_START	n/a	n/a	-999	-999	n/a	n/a	n/a	n/a	5	[0, 0, 0]	-999	PAL1	0	R1087N
796.892	0.275	1383035	TEST_ORIENT	n/a	n/a	1	1	CORN	SNOW	SNOW	CORN	5	[0, 0, 0]	-999	PAL1	0	R1087N
797.692	4.0	1383835	TEST_PROBE	n/a	wordpools/wordpool_EN.txt	1	1	CORN	SNOW	SNOW	CORN	5	[0, 0, 0]	-999	PAL1	0	R1087N
797.694	3.015	1383837	REC_START	n/a	n/a	1	-999	n/a	SNOW	n/a	n/a	5	[0, 0, 0]	-999	PAL1	0	R1087N
800.709	0.548	1386852	REC_EVENT	3.015	n/a	1	1	CORN	CORN	SNOW	CORN	5	[0, 0, 0]	-999	PAL1	0	R1087N
801.257	1.452	1387400	REC_EVENT	3.563	n/a	1	1	CORN	SNOW	SNOW	CORN	5	[0, 0, 0]	-999	PAL1	0	R1087N
802.709	0.017	1388852	REC_END	n/a	n/a	1	-999	n/a	n/a	n/a	n/a	5	[0, 0, 0]	-999	PAL1	0	R1087N
802.726	0.275	1388869	TEST_ORIENT	n/a	n/a	4	2	RAT	OWL	RAT	OAR	5	[0, 0, 0]	-999	PAL1	0	R1087N
803.544	4.0	1389686	TEST_PROBE	n/a	wordpools/wordpool_EN.txt	4	2	RAT	OWL	RAT	OAR	5	[0, 0, 0]	-999	PAL1	0	R1087N
803.544	2.195	1389686	REC_START	n/a	n/a	4	-999	n/a	OWL	n/a	n/a	5	[0, 0, 0]	-999	PAL1	0	R1087N
805.739	2.822	1391881	REC_EVENT	2.195	n/a	4	2	RAT	OWL	RAT	OAR	5	[0, 0, 0]	-999	PAL1	0	R1087N
808.561	0.016	1394703	REC_END	n/a	n/a	4	-999	n/a	n/a	n/a	n/a	5	[0, 0, 0]	-999	PAL1	0	R1087N
808.577	0.275	1394719	TEST_ORIENT	n/a	n/a	5	3	STEM	n/a	STEM	HAWK	5	[0, 0, 0]	-999	PAL1	0	R1087N
809.428	4.0	1395570	TEST_PROBE	n/a	wordpools/wordpool_EN.txt	5	3	STEM	n/a	STEM	HAWK	5	[0, 0, 0]	-999	PAL1	0	R1087N
809.429	2.409	1395571	REC_START	n/a	n/a	5	-999	n/a	n/a	n/a	n/a	5	[0, 0, 0]	-999	PAL1	0	R1087N
811.838	2.615	1397980	REC_EVENT	2.409	n/a	5	3	STEM	<>	STEM	HAWK	5	[0, 0, 0]	-999	PAL1	0	R1087N
814.453	0.008	1400595	REC_END	n/a	n/a	5	-999	n/a	n/a	n/a	n/a	5	[0, 0, 0]	-999	PAL1	0	R1087N
814.461	0.275	1400603	TEST_ORIENT	n/a	n/a	6	4	TOOL	TOOL	PIE	TOOL	5	[0, 0, 0]	-999	PAL1	0	R1087N
815.278	4.0	1401420	TEST_PROBE	n/a	wordpools/wordpool_EN.txt	6	4	TOOL	TOOL	PIE	TOOL	5	[0, 0, 0]	-999	PAL1	0	R1087N
815.279	2.198	1401421	REC_START	n/a	n/a	6	-999	n/a	TOOL	n/a	n/a	5	[0, 0, 0]	-999	PAL1	0	R1087N
817.477	1.745	1403619	REC_EVENT	2.198	n/a	6	4	TOOL	STOOL	PIE	TOOL	5	[0, 0, 0]	-999	PAL1	0	R1087N
819.222	1.082	1405364	REC_EVENT	3.943	n/a	6	4	TOOL	TOOL	PIE	TOOL	5	[0, 0, 0]	-999	PAL1	0	R1087N
820.304	0.009	1406446	REC_END	n/a	n/a	6	-999	n/a	n/a	n/a	n/a	5	[0, 0, 0]	-999	PAL1	0	R1087N
820.313	0.275	1406455	TEST_ORIENT	n/a	n/a	3	5	HILL	SNOW	FISH	HILL	5	[0, 0, 0]	-999	PAL1	0	R1087N
821.197	4.0	1407339	TEST_PROBE	n/a	wordpools/wordpool_EN.txt	3	5	HILL	SNOW	FISH	HILL	5	[0, 0, 0]	-999	PAL1	0	R1087N
821.197	1.87	1407339	REC_START	n/a	n/a	3	-999	n/a	SNOW	n/a	n/a	5	[0, 0, 0]	-999	PAL1	0	R1087N
823.067	0.353	1409208	REC_EVENT	1.87	n/a	3	5	HILL	<>	FISH	HILL	5	[0, 0, 0]	-999	PAL1	0	R1087N
823.42	0.42	1409561	REC_EVENT	2.223	n/a	3	5	HILL	HILL	FISH	HILL	5	[0, 0, 0]	-999	PAL1	0	R1087N
823.84	2.373	1409981	REC_EVENT	2.643	n/a	3	5	HILL	SNOW	FISH	HILL	5	[0, 0, 0]	-999	PAL1	0	R1087N
826.213	0.017	1412354	REC_END	n/a	n/a	3	-999	n/a	n/a	n/a	n/a	5	[0, 0, 0]	-999	PAL1	0	R1087N
826.23	0.275	1412371	TEST_ORIENT	n/a	n/a	2	6	BADGE	BADGE	DRUM	BADGE	5	[0, 0, 0]	-999	PAL1	0	R1087N
827.231	4.0	1413372	TEST_PROBE	n/a	wordpools/wordpool_EN.txt	2	6	BADGE	BADGE	DRUM	BADGE	5	[0, 0, 0]	-999	PAL1	0	R1087N
827.231	2.124	1413372	REC_START	n/a	n/a	2	-999	n/a	BADGE	n/a	n/a	5	[0, 0, 0]	-999	PAL1	0	R1087N
829.355	0.43	1415496	REC_EVENT	2.124	n/a	2	6	BADGE	BANG	DRUM	BADGE	5	[0, 0, 0]	-999	PAL1	0	R1087N
829.785	0.232	1415926	REC_EVENT	2.554	n/a	2	6	BADGE	<>	DRUM	BADGE	5	[0, 0, 0]	-999	PAL1	0	R1087N
830.017	2.231	1416158	REC_EVENT	2.786	n/a	2	6	BADGE	BADGE	DRUM	BADGE	5	[0, 0, 0]	-999	PAL1	0	R1087N
832.248	0.016	1418389	REC_END	n/a	n/a	2	-999	n/a	n/a	n/a	n/a	5	[0, 0, 0]	-999	PAL1	0	R1087N
832.264	15.581	1418405	FEEDBACK_SHOW_ALL_PAIRS	n/a	n/a	2	-999	n/a	n/a	n/a	n/a	5	[0, 0, 0]	-999	PAL1	0	R1087N
847.845	10.441	1433985	ENCODING_START	n/a	n/a	0	-999	n/a	n/a	n/a	n/a	6	[0, 0, 0]	-999	PAL1	0	R1087N
858.286	0.275	1444426	STUDY_ORIENT	n/a	n/a	1	5	MAT	MAT	MAT	TANK	6	[0, 0, 0]	-999	PAL1	0	R1087N
859.286	4.0	1445426	STUDY_PAIR	n/a	wordpools/wordpool_EN.txt	1	5	MAT	MAT	MAT	TANK	6	[0, 0, 0]	-999	PAL1	0	R1087N
864.32	0.275	1450459	STUDY_ORIENT	n/a	n/a	2	6	BEE	HORN	FORT	BEE	6	[0, 0, 0]	-999	PAL1	0	R1087N
865.27	4.0	1451409	STUDY_PAIR	n/a	wordpools/wordpool_EN.txt	2	6	BEE	HORN	FORT	BEE	6	[0, 0, 0]	-999	PAL1	0	R1087N
870.305	0.275	1456444	STUDY_ORIENT	n/a	n/a	3	1	CHAIR	BEER	BANK	CHAIR	6	[0, 0, 0]	-999	PAL1	0	R1087N
871.254	4.0	1457393	STUDY_PAIR	n/a	wordpools/wordpool_EN.txt	3	1	CHAIR	BEER	BANK	CHAIR	6	[0, 0, 0]	-999	PAL1	0	R1087N
876.289	0.275	1462428	STUDY_ORIENT	n/a	n/a	4	4	FRUIT	PIE	FRUIT	TIE	6	[0, 0, 0]	-999	PAL1	0	R1087N
877.223	4.0	1463362	STUDY_PAIR	n/a	wordpools/wordpool_EN.txt	4	4	FRUIT	PIE	FRUIT	TIE	6	[0, 0, 0]	-999	PAL1	0	R1087N
882.256	0.275	1468395	STUDY_ORIENT	n/a	n/a	5	3	CAVE	PIE	MAIL	CAVE	6	[0, 0, 0]	-999	PAL1	0	R1087N
883.224	4.0	1469362	STUDY_PAIR	n/a	wordpools/wordpool_EN.txt	5	3	CAVE	PIE	MAIL	CAVE	6	[0, 0, 0]	-999	PAL1	0	R1087N
888.258	0.275	1474396	STUDY_ORIENT	n/a	n/a	6	2	WORM	BARN	HORN	WORM	6	[0, 0, 0]	-999	PAL1	0	R1087N
889.074	4.0	1475212	STUDY_PAIR	n/a	wordpools/wordpool_EN.txt	6	2	WORM	BARN	HORN	WORM	6	[0, 0, 0]	-999	PAL1	0	R1087N
893.092	1.0	1479230	START	n/a	n/a	-999	-999	n/a	n/a	n/a	n/a	6	[-999, -999, -999]	-999	PAL1	0	R1087N
894.092	0.016	1480230	MATH_START	n/a	n/a	-999	-999	n/a	n/a	n/a	n/a	6	[0, 0, 0]	-999	PAL1	0	R1087N
894.108	8.453	1480246	PROB	8.425	n/a	-999	-999	n/a	n/a	n/a	n/a	6	[1, 6, 5]	17	PAL1	0	R1087N
902.561	7.017	1488699	PROB	6.996	n/a	-999	-999	n/a	n/a	n/a	n/a	6	[4, 8, 5]	17	PAL1	0	R1087N
909.578	6.627	1495715	PROB	6.627	n/a	-999	-999	n/a	n/a	n/a	n/a	6	[3, 6, 9]	18	PAL1	0	R1087N
916.205	0.007	1502342	STOP	n/a	n/a	-999	-999	n/a	n/a	n/a	n/a	6	[-999, -999, -999]	-999	PAL1	0	R1087N
916.212	0.0	1502349	TEST_START	n/a	n/a	-999	-999	n/a	n/a	n/a	n/a	6	[0, 0, 0]	-999	PAL1	0	R1087N
916.212	0.017	1502349	MATH_END	n/a	n/a	-999	-999	n/a	n/a	n/a	n/a	6	[0, 0, 0]	-999	PAL1	0	R1087N
916.229	0.275	1502366	TEST_ORIENT	n/a	n/a	3	1	CHAIR	BEER	BANK	CHAIR	6	[0, 0, 0]	-999	PAL1	0	R1087N
917.262	4.0	1503399	TEST_PROBE	n/a	wordpools/wordpool_EN.txt	3	1	CHAIR	BEER	BANK	CHAIR	6	[0, 0, 0]	-999	PAL1	0	R1087N
917.263	4.107	1503400	REC_START	n/a	n/a	3	-999	n/a	BEER	n/a	n/a	6	[0, 0, 0]	-999	PAL1	0	R1087N
921.37	0.918	1507507	REC_EVENT	4.107	n/a	3	1	CHAIR	BEER	BANK	CHAIR	6	[0, 0, 0]	-999	PAL1	0	R1087N
922.288	0.008	1508425	REC_END	n/a	n/a	3	-999	n/a	n/a	n/a	n/a	6	[0, 0, 0]	-999	PAL1	0	R1087N
922.296	0.275	1508433	TEST_ORIENT	n/a	n/a	6	2	WORM	BARN	HORN	WORM	6	[0, 0, 0]	-999	PAL1	0	R1087N
923.197	4.0	1509333	TEST_PROBE	n/a	wordpools/wordpool_EN.txt	6	2	WORM	BARN	HORN	WORM	6	[0, 0, 0]	-999	PAL1	0	R1087N
923.198	1.25	1509334	REC_START	n/a	n/a	6	-999	n/a	BARN	n/a	n/a	6	[0, 0, 0]	-999	PAL1	0	R1087N
924.448	2.98	1510584	REC_EVENT	1.25	n/a	6	2	WORM	BARN	HORN	WORM	6	[0, 0, 0]	-999	PAL1	0	R1087N
927.428	0.794	1513564	REC_EVENT	4.23	n/a	6	2	WORM	<>	HORN	WORM	6	[0, 0, 0]	-999	PAL1	0	R1087N
928.222	0.009	1514358	REC_END	n/a	n/a	6	-999	n/a	n/a	n/a	n/a	6	[0, 0, 0]	-999	PAL1	0	R1087N
928.231	0.275	1514367	TEST_ORIENT	n/a	n/a	5	3	CAVE	PIE	MAIL	CAVE	6	[0, 0, 0]	-999	PAL1	0	R1087N
929.082	4.0	1515218	TEST_PROBE	n/a	wordpools/wordpool_EN.txt	5	3	CAVE	PIE	MAIL	CAVE	6	[0, 0, 0]	-999	PAL1	0	R1087N
929.082	2.366	1515218	REC_START	n/a	n/a	5	-999	n/a	PIE	n/a	n/a	6	[0, 0, 0]	-999	PAL1	0	R1087N
931.448	2.651	1517584	REC_EVENT	2.366	n/a	5	3	CAVE	PIE	MAIL	CAVE	6	[0, 0, 0]	-999	PAL1	0	R1087N
934.099	0.016	1520235	REC_END	n/a	n/a	5	-999	n/a	n/a	n/a	n/a	6	[0, 0, 0]	-999	PAL1	0	R1087N
934.115	0.275	1520251	TEST_ORIENT	n/a	n/a	4	4	FRUIT	PIE	FRUIT	TIE	6	[0, 0, 0]	-999	PAL1	0	R1087N
934.983	0.0	1521119	REC_START	n/a	n/a	4	-999	n/a	PIE	n/a	n/a	6	[0, 0, 0]	-999	PAL1	0	R1087N
934.983	4.0	1521119	TEST_PROBE	n/a	wordpools/wordpool_EN.txt	4	4	FRUIT	PIE	FRUIT	TIE	6	[0, 0, 0]	-999	PAL1	0	R1087N
937.581	0.35	1523717	REC_EVENT	2.598	n/a	4	4	FRUIT	FRUIT	FRUIT	TIE	6	[0, 0, 0]	-999	PAL1	0	R1087N
937.931	2.068	1524067	REC_EVENT	2.948	n/a	4	4	FRUIT	PIE	FRUIT	TIE	6	[0, 0, 0]	-999	PAL1	0	R1087N
939.999	0.017	1526135	REC_END	n/a	n/a	4	-999	n/a	n/a	n/a	n/a	6	[0, 0, 0]	-999	PAL1	0	R1087N
940.016	0.275	1526152	TEST_ORIENT	n/a	n/a	1	5	MAT	MAT	MAT	TANK	6	[0, 0, 0]	-999	PAL1	0	R1087N
940.983	4.0	1527119	TEST_PROBE	n/a	wordpools/wordpool_EN.txt	1	5	MAT	MAT	MAT	TANK	6	[0, 0, 0]	-999	PAL1	0	R1087N
940.984	2.407	1527120	REC_START	n/a	n/a	1	-999	n/a	MAT	n/a	n/a	6	[0, 0, 0]	-999	PAL1	0	R1087N
943.391	1.54	1529526	REC_EVENT	2.407	n/a	1	5	MAT	RAT	MAT	TANK	6	[0, 0, 0]	-999	PAL1	0	R1087N
944.931	0.365	1531066	REC_EVENT	3.947	n/a	1	5	MAT	<>	MAT	TANK	6	[0, 0, 0]	-999	PAL1	0	R1087N
945.296	0.713	1531431	REC_EVENT	4.312	n/a	1	5	MAT	MAT	MAT	TANK	6	[0, 0, 0]	-999	PAL1	0	R1087N
946.009	0.008	1532144	REC_END	n/a	n/a	1	-999	n/a	n/a	n/a	n/a	6	[0, 0, 0]	-999	PAL1	0	R1087N
946.017	0.275	1532152	TEST_ORIENT	n/a	n/a	2	6	BEE	HORN	FORT	BEE	6	[0, 0, 0]	-999	PAL1	0	R1087N
947.051	4.0	1533186	TEST_PROBE	n/a	wordpools/wordpool_EN.txt	2	6	BEE	HORN	FORT	BEE	6	[0, 0, 0]	-999	PAL1	0	R1087N
947.052	1.541	1533187	REC_START	n/a	n/a	2	-999	n/a	HORN	n/a	n/a	6	[0, 0, 0]	-999	PAL1	0	R1087N
948.593	3.483	1534728	REC_EVENT	1.541	n/a	2	6	BEE	HORN	FORT	BEE	6	[0, 0, 0]	-999	PAL1	0	R1087N
952.076	0.026	1538211	REC_END	n/a	n/a	2	-999	n/a	n/a	n/a	n/a	6	[0, 0, 0]	-999	PAL1	0	R1087N
952.102	12.791	1538237	FEEDBACK_SHOW_ALL_PAIRS	n/a	n/a	2	-999	n/a	n/a	n/a	n/a	6	[0, 0, 0]	-999	PAL1	0	R1087N
964.893	10.446	1551027	ENCODING_START	n/a	n/a	0	-999	n/a	n/a	n/a	n/a	7	[0, 0, 0]	-999	PAL1	0	R1087N
975.339	0.275	1561473	STUDY_ORIENT	n/a	n/a	1	5	TRAY	TRAY	PIT	TRAY	7	[0, 0, 0]	-999	PAL1	0	R1087N
976.19	4.0	1562324	STUDY_PAIR	n/a	wordpools/wordpool_EN.txt	1	5	TRAY	TRAY	PIT	TRAY	7	[0, 0, 0]	-999	PAL1	0	R1087N
981.223	0.275	1567357	STUDY_ORIENT	n/a	n/a	2	2	RUG	n/a	STEAK	RUG	7	[0, 0, 0]	-999	PAL1	0	R1087N
982.19	4.0	1568324	STUDY_PAIR	n/a	wordpools/wordpool_EN.txt	2	2	RUG	n/a	STEAK	RUG	7	[0, 0, 0]	-999	PAL1	0	R1087N
987.224	0.275	1573357	STUDY_ORIENT	n/a	n/a	3	1	SEAT	ROPE	HAT	SEAT	7	[0, 0, 0]	-999	PAL1	0	R1087N
988.025	4.0	1574158	STUDY_PAIR	n/a	wordpools/wordpool_EN.txt	3	1	SEAT	ROPE	HAT	SEAT	7	[0, 0, 0]	-999	PAL1	0	R1087N
993.058	0.275	1579191	STUDY_ORIENT	n/a	n/a	4	6	BROOM	BROOM	BROOM	TRAIN	7	[0, 0, 0]	-999	PAL1	0	R1087N
994.009	4.0	1580142	STUDY_PAIR	n/a	wordpools/wordpool_EN.txt	4	6	BROOM	BROOM	BROOM	TRAIN	7	[0, 0, 0]	-999	PAL1	0	R1087N
999.043	0.275	1585176	STUDY_ORIENT	n/a	n/a	5	3	COIN	BARN	COIN	SKUNK	7	[0, 0, 0]	-999	PAL1	0	R1087N
999.977	4.0	1586110	STUDY_PAIR	n/a	wordpools/wordpool_EN.txt	5	3	COIN	BARN	COIN	SKUNK	7	[0, 0, 0]	-999	PAL1	0	R1087N
1005.011	0.275	1591143	STUDY_ORIENT	n/a	n/a	6	4	ROPE	SEAT	SKI	ROPE	7	[0, 0, 0]	-999	PAL1	0	R1087N
1005.877	4.0	1592009	STUDY_PAIR	n/a	wordpools/wordpool_EN.txt	6	4	ROPE	SEAT	SKI	ROPE	7	[0, 0, 0]	-999	PAL1	0	R1087N
1009.895	1.0	1596027	START	n/a	n/a	-999	-999	n/a	n/a	n/a	n/a	7	[-999, -999, -999]	-999	PAL1	0	R1087N
1010.895	0.017	1597027	MATH_START	n/a	n/a	-999	-999	n/a	n/a	n/a	n/a	7	[0, 0, 0]	-999	PAL1	0	R1087N
1010.912	3.583	1597044	PROB	3.549	n/a	-999	-999	n/a	n/a	n/a	n/a	7	[6, 9, 1]	16	PAL1	0	R1087N
1014.495	3.401	1600627	PROB	3.374	n/a	-999	-999	n/a	n/a	n/a	n/a	7	[3, 3, 1]	7	PAL1	0	R1087N
1017.896	11.485	1604028	PROB	11.453	n/a	-999	-999	n/a	n/a	n/a	n/a	7	[9, 6, 7]	22	PAL1	0	R1087N
1029.381	7.28	1615512	PROB	7.28	n/a	-999	-999	n/a	n/a	n/a	n/a	7	[6, 8, 7]	26	PAL1	0	R1087N
1036.661	0.005	1622792	STOP	n/a	n/a	-999	-999	n/a	n/a	n/a	n/a	7	[-999, -999, -999]	-999	PAL1	0	R1087N
1036.666	0.0	1622797	MATH_END	n/a	n/a	-999	-999	n/a	n/a	n/a	n/a	7	[0, 0, 0]	-999	PAL1	0	R1087N
1036.666	0.017	1622797	TEST_START	n/a	n/a	-999	-999	n/a	n/a	n/a	n/a	7	[0, 0, 0]	-999	PAL1	0	R1087N
1036.683	0.275	1622814	TEST_ORIENT	n/a	n/a	3	1	SEAT	ROPE	HAT	SEAT	7	[0, 0, 0]	-999	PAL1	0	R1087N
1037.583	4.0	1623714	TEST_PROBE	n/a	wordpools/wordpool_EN.txt	3	1	SEAT	ROPE	HAT	SEAT	7	[0, 0, 0]	-999	PAL1	0	R1087N
1037.584	2.326	1623715	REC_START	n/a	n/a	3	-999	n/a	ROPE	n/a	n/a	7	[0, 0, 0]	-999	PAL1	0	R1087N
1039.91	2.69	1626041	REC_EVENT	2.326	n/a	3	1	SEAT	ROPE	HAT	SEAT	7	[0, 0, 0]	-999	PAL1	0	R1087N
1042.6	0.017	1628731	REC_END	n/a	n/a	3	-999	n/a	n/a	n/a	n/a	7	[0, 0, 0]	-999	PAL1	0	R1087N
1042.617	0.275	1628748	TEST_ORIENT	n/a	n/a	2	2	RUG	n/a	STEAK	RUG	7	[0, 0, 0]	-999	PAL1	0	R1087N
1043.484	4.0	1629614	TEST_PROBE	n/a	wordpools/wordpool_EN.txt	2	2	RUG	n/a	STEAK	RUG	7	[0, 0, 0]	-999	PAL1	0	R1087N
1043.485	3.541	1629615	REC_START	n/a	n/a	2	-999	n/a	n/a	n/a	n/a	7	[0, 0, 0]	-999	PAL1	0	R1087N
1047.026	1.483	1633156	REC_EVENT	3.541	n/a	2	2	RUG	<>	STEAK	RUG	7	[0, 0, 0]	-999	PAL1	0	R1087N
1048.509	0.009	1634639	REC_END	n/a	n/a	2	-999	n/a	n/a	n/a	n/a	7	[0, 0, 0]	-999	PAL1	0	R1087N
1048.518	0.275	1634648	TEST_ORIENT	n/a	n/a	5	3	COIN	BARN	COIN	SKUNK	7	[0, 0, 0]	-999	PAL1	0	R1087N
1049.401	4.0	1635531	TEST_PROBE	n/a	wordpools/wordpool_EN.txt	5	3	COIN	BARN	COIN	SKUNK	7	[0, 0, 0]	-999	PAL1	0	R1087N
1049.402	2.788	1635532	REC_START	n/a	n/a	5	-999	n/a	BARN	n/a	n/a	7	[0, 0, 0]	-999	PAL1	0	R1087N
1052.19	2.237	1638320	REC_EVENT	2.788	n/a	5	3	COIN	BARN	COIN	SKUNK	7	[0, 0, 0]	-999	PAL1	0	R1087N
1054.427	0.009	1640557	REC_END	n/a	n/a	5	-999	n/a	n/a	n/a	n/a	7	[0, 0, 0]	-999	PAL1	0	R1087N
1054.436	0.275	1640566	TEST_ORIENT	n/a	n/a	6	4	ROPE	SEAT	SKI	ROPE	7	[0, 0, 0]	-999	PAL1	0	R1087N
1055.436	4.0	1641566	TEST_PROBE	n/a	wordpools/wordpool_EN.txt	6	4	ROPE	SEAT	SKI	ROPE	7	[0, 0, 0]	-999	PAL1	0	R1087N
1055.437	4.524	1641567	REC_START	n/a	n/a	6	-999	n/a	SEAT	n/a	n/a	7	[0, 0, 0]	-999	PAL1	0	R1087N
1059.961	0.501	1646091	REC_EVENT	4.524	n/a	6	4	ROPE	SEAT	SKI	ROPE	7	[0, 0, 0]	-999	PAL1	0	R1087N
1060.462	0.008	1646592	REC_END	n/a	n/a	6	-999	n/a	n/a	n/a	n/a	7	[0, 0, 0]	-999	PAL1	0	R1087N
1060.47	0.275	1646600	TEST_ORIENT	n/a	n/a	1	5	TRAY	TRAY	PIT	TRAY	7	[0, 0, 0]	-999	PAL1	0	R1087N
1061.42	4.0	1647550	TEST_PROBE	n/a	wordpools/wordpool_EN.txt	1	5	TRAY	TRAY	PIT	TRAY	7	[0, 0, 0]	-999	PAL1	0	R1087N
1061.421	1.341	1647551	REC_START	n/a	n/a	1	-999	n/a	TRAY	n/a	n/a	7	[0, 0, 0]	-999	PAL1	0	R1087N
1062.762	3.684	1648892	REC_EVENT	1.341	n/a	1	5	TRAY	TRAY	PIT	TRAY	7	[0, 0, 0]	-999	PAL1	0	R1087N
1066.446	0.008	1652575	REC_END	n/a	n/a	1	-999	n/a	n/a	n/a	n/a	7	[0, 0, 0]	-999	PAL1	0	R1087N
1066.454	0.275	1652583	TEST_ORIENT	n/a	n/a	4	6	BROOM	BROOM	BROOM	TRAIN	7	[0, 0, 0]	-999	PAL1	0	R1087N
1067.421	4.0	1653550	TEST_PROBE	n/a	wordpools/wordpool_EN.txt	4	6	BROOM	BROOM	BROOM	TRAIN	7	[0, 0, 0]	-999	PAL1	0	R1087N
1067.422	2.775	1653551	REC_START	n/a	n/a	4	-999	n/a	BROOM	n/a	n/a	7	[0, 0, 0]	-999	PAL1	0	R1087N
1070.197	1.453	1656326	REC_EVENT	2.775	n/a	4	6	BROOM	ROOM	BROOM	TRAIN	7	[0, 0, 0]	-999	PAL1	0	R1087N
1071.65	0.205	1657779	REC_EVENT	4.228	n/a	4	6	BROOM	<>	BROOM	TRAIN	7	[0, 0, 0]	-999	PAL1	0	R1087N
1071.855	0.584	1657984	REC_EVENT	4.433	n/a	4	6	BROOM	BROOM	BROOM	TRAIN	7	[0, 0, 0]	-999	PAL1	0	R1087N
1072.439	0.033	1658568	REC_END	n/a	n/a	4	-999	n/a	n/a	n/a	n/a	7	[0, 0, 0]	-999	PAL1	0	R1087N
1072.472	34.581	1658601	FEEDBACK_SHOW_ALL_PAIRS	n/a	n/a	4	-999	n/a	n/a	n/a	n/a	7	[0, 0, 0]	-999	PAL1	0	R1087N
1107.053	10.443	1693180	ENCODING_START	n/a	n/a	0	-999	n/a	n/a	n/a	n/a	8	[0, 0, 0]	-999	PAL1	0	R1087N
1117.496	0.275	1703623	STUDY_ORIENT	n/a	n/a	1	5	SCHOOL	SCHOOL	DITCH	SCHOOL	8	[0, 0, 0]	-999	PAL1	0	R1087N
1118.314	4.0	1704441	STUDY_PAIR	n/a	wordpools/wordpool_EN.txt	1	5	SCHOOL	SCHOOL	DITCH	SCHOOL	8	[0, 0, 0]	-999	PAL1	0	R1087N
1123.347	0.275	1709474	STUDY_ORIENT	n/a	n/a	2	2	RICE	ROAD	RICE	ROAD	8	[0, 0, 0]	-999	PAL1	0	R1087N
1124.181	4.0	1710307	STUDY_PAIR	n/a	wordpools/wordpool_EN.txt	2	2	RICE	ROAD	RICE	ROAD	8	[0, 0, 0]	-999	PAL1	0	R1087N
1129.215	0.275	1715341	STUDY_ORIENT	n/a	n/a	3	1	STRING	n/a	STRING	SEED	8	[0, 0, 0]	-999	PAL1	0	R1087N
1130.032	4.0	1716158	STUDY_PAIR	n/a	wordpools/wordpool_EN.txt	3	1	STRING	n/a	STRING	SEED	8	[0, 0, 0]	-999	PAL1	0	R1087N
1135.066	0.275	1721192	STUDY_ORIENT	n/a	n/a	4	6	SPONGE	BADGE	SPONGE	HOOF	8	[0, 0, 0]	-999	PAL1	0	R1087N
1136.033	4.0	1722159	STUDY_PAIR	n/a	wordpools/wordpool_EN.txt	4	6	SPONGE	BADGE	SPONGE	HOOF	8	[0, 0, 0]	-999	PAL1	0	R1087N
1141.067	0.275	1727193	STUDY_ORIENT	n/a	n/a	5	3	GLOVE	n/a	NEST	GLOVE	8	[0, 0, 0]	-999	PAL1	0	R1087N
1142.068	4.0	1728194	STUDY_PAIR	n/a	wordpools/wordpool_EN.txt	5	3	GLOVE	n/a	NEST	GLOVE	8	[0, 0, 0]	-999	PAL1	0	R1087N
1147.102	0.275	1733227	STUDY_ORIENT	n/a	n/a	6	4	SUN	RICE	SUN	SHELL	8	[0, 0, 0]	-999	PAL1	0	R1087N
1147.918	4.0	1734043	STUDY_PAIR	n/a	wordpools/wordpool_EN.txt	6	4	SUN	RICE	SUN	SHELL	8	[0, 0, 0]	-999	PAL1	0	R1087N
1151.936	0.999	1738061	START	n/a	n/a	-999	-999	n/a	n/a	n/a	n/a	8	[-999, -999, -999]	-999	PAL1	0	R1087N
1152.935	0.017	1739060	MATH_START	n/a	n/a	-999	-999	n/a	n/a	n/a	n/a	8	[0, 0, 0]	-999	PAL1	0	R1087N
1152.952	4.918	1739077	PROB	4.877	n/a	-999	-999	n/a	n/a	n/a	n/a	8	[2, 5, 4]	11	PAL1	0	R1087N
1157.87	4.717	1743995	PROB	4.695	n/a	-999	-999	n/a	n/a	n/a	n/a	8	[9, 2, 3]	14	PAL1	0	R1087N
1162.587	4.568	1748712	PROB	4.538	n/a	-999	-999	n/a	n/a	n/a	n/a	8	[1, 2, 3]	6	PAL1	0	R1087N
1167.155	5.106	1753279	PROB	5.106	n/a	-999	-999	n/a	n/a	n/a	n/a	8	[6, 5, 5]	16	PAL1	0	R1087N
1172.261	0.011	1758385	STOP	n/a	n/a	-999	-999	n/a	n/a	n/a	n/a	8	[-999, -999, -999]	-999	PAL1	0	R1087N
1172.272	0.0	1758396	MATH_END	n/a	n/a	-999	-999	n/a	n/a	n/a	n/a	8	[0, 0, 0]	-999	PAL1	0	R1087N
1172.272	0.017	1758396	TEST_START	n/a	n/a	-999	-999	n/a	n/a	n/a	n/a	8	[0, 0, 0]	-999	PAL1	0	R1087N
1172.289	0.275	1758413	TEST_ORIENT	n/a	n/a	3	1	STRING	n/a	STRING	SEED	8	[0, 0, 0]	-999	PAL1	0	R1087N
1173.122	4.0	1759246	TEST_PROBE	n/a	wordpools/wordpool_EN.txt	3	1	STRING	n/a	STRING	SEED	8	[0, 0, 0]	-999	PAL1	0	R1087N
1173.123	4.945	1759247	REC_START	n/a	n/a	3	-999	n/a	n/a	n/a	n/a	8	[0, 0, 0]	-999	PAL1	0	R1087N
1178.068	0.072	1764192	REC_EVENT	4.945	n/a	3	1	STRING	<>	STRING	SEED	8	[0, 0, 0]	-999	PAL1	0	R1087N
1178.14	0.017	1764264	REC_END	n/a	n/a	3	-999	n/a	n/a	n/a	n/a	8	[0, 0, 0]	-999	PAL1	0	R1087N
1178.157	0.275	1764281	TEST_ORIENT	n/a	n/a	2	2	RICE	ROAD	RICE	ROAD	8	[0, 0, 0]	-999	PAL1	0	R1087N
1178.974	4.0	1765098	TEST_PROBE	n/a	wordpools/wordpool_EN.txt	2	2	RICE	ROAD	RICE	ROAD	8	[0, 0, 0]	-999	PAL1	0	R1087N
1178.974	2.183	1765098	REC_START	n/a	n/a	2	-999	n/a	ROAD	n/a	n/a	8	[0, 0, 0]	-999	PAL1	0	R1087N
1181.157	0.777	1767281	REC_EVENT	2.183	n/a	2	2	RICE	ICE	RICE	ROAD	8	[0, 0, 0]	-999	PAL1	0	R1087N
1181.934	2.057	1768058	REC_EVENT	2.96	n/a	2	2	RICE	ROAD	RICE	ROAD	8	[0, 0, 0]	-999	PAL1	0	R1087N
1183.991	0.016	1770114	REC_END	n/a	n/a	2	-999	n/a	n/a	n/a	n/a	8	[0, 0, 0]	-999	PAL1	0	R1087N
1184.007	0.275	1770130	TEST_ORIENT	n/a	n/a	5	3	GLOVE	n/a	NEST	GLOVE	8	[0, 0, 0]	-999	PAL1	0	R1087N
1184.874	4.0	1770997	TEST_PROBE	n/a	wordpools/wordpool_EN.txt	5	3	GLOVE	n/a	NEST	GLOVE	8	[0, 0, 0]	-999	PAL1	0	R1087N
1184.875	4.876	1770998	REC_START	n/a	n/a	5	-999	n/a	n/a	n/a	n/a	8	[0, 0, 0]	-999	PAL1	0	R1087N
1189.751	0.149	1775874	REC_EVENT	4.876	n/a	5	3	GLOVE	<>	NEST	GLOVE	8	[0, 0, 0]	-999	PAL1	0	R1087N
1189.9	0.008	1776023	REC_END	n/a	n/a	5	-999	n/a	n/a	n/a	n/a	8	[0, 0, 0]	-999	PAL1	0	R1087N
1189.908	0.275	1776031	TEST_ORIENT	n/a	n/a	6	4	SUN	RICE	SUN	SHELL	8	[0, 0, 0]	-999	PAL1	0	R1087N
1190.809	4.0	1776932	TEST_PROBE	n/a	wordpools/wordpool_EN.txt	6	4	SUN	RICE	SUN	SHELL	8	[0, 0, 0]	-999	PAL1	0	R1087N
1190.81	3.585	1776933	REC_START	n/a	n/a	6	-999	n/a	RICE	n/a	n/a	8	[0, 0, 0]	-999	PAL1	0	R1087N
1194.395	0.518	1780518	REC_EVENT	3.585	n/a	6	4	SUN	SUN	SUN	SHELL	8	[0, 0, 0]	-999	PAL1	0	R1087N
1194.913	0.921	1781036	REC_EVENT	4.103	n/a	6	4	SUN	RICE	SUN	SHELL	8	[0, 0, 0]	-999	PAL1	0	R1087N
1195.834	0.009	1781957	REC_END	n/a	n/a	6	-999	n/a	n/a	n/a	n/a	8	[0, 0, 0]	-999	PAL1	0	R1087N
1195.843	0.275	1781966	TEST_ORIENT	n/a	n/a	1	5	SCHOOL	SCHOOL	DITCH	SCHOOL	8	[0, 0, 0]	-999	PAL1	0	R1087N
1196.71	4.0	1782833	TEST_PROBE	n/a	wordpools/wordpool_EN.txt	1	5	SCHOOL	SCHOOL	DITCH	SCHOOL	8	[0, 0, 0]	-999	PAL1	0	R1087N
1196.711	1.018	1782834	REC_START	n/a	n/a	1	-999	n/a	SCHOOL	n/a	n/a	8	[0, 0, 0]	-999	PAL1	0	R1087N
1197.729	3.712	1783852	REC_EVENT	1.018	n/a	1	5	SCHOOL	SCHOOL	DITCH	SCHOOL	8	[0, 0, 0]	-999	PAL1	0	R1087N
1201.441	0.294	1787564	REC_EVENT	4.73	n/a	1	5	SCHOOL	<>	DITCH	SCHOOL	8	[0, 0, 0]	-999	PAL1	0	R1087N
1201.735	0.009	1787858	REC_END	n/a	n/a	1	-999	n/a	n/a	n/a	n/a	8	[0, 0, 0]	-999	PAL1	0	R1087N
1201.744	0.275	1787867	TEST_ORIENT	n/a	n/a	4	6	SPONGE	BADGE	SPONGE	HOOF	8	[0, 0, 0]	-999	PAL1	0	R1087N
1202.577	4.0	1788700	TEST_PROBE	n/a	wordpools/wordpool_EN.txt	4	6	SPONGE	BADGE	SPONGE	HOOF	8	[0, 0, 0]	-999	PAL1	0	R1087N
1202.578	1.788	1788701	REC_START	n/a	n/a	4	-999	n/a	BADGE	n/a	n/a	8	[0, 0, 0]	-999	PAL1	0	R1087N
1204.366	2.949	1790488	REC_EVENT	1.788	n/a	4	6	SPONGE	SPONGE	SPONGE	HOOF	8	[0, 0, 0]	-999	PAL1	0	R1087N
1207.315	0.279	1793437	REC_EVENT	4.737	n/a	4	6	SPONGE	BADGE	SPONGE	HOOF	8	[0, 0, 0]	-999	PAL1	0	R1087N
1207.594	0.034	1793716	REC_END	n/a	n/a	4	-999	n/a	n/a	n/a	n/a	8	[0, 0, 0]	-999	PAL1	0	R1087N
1207.628	13.961	1793750	FEEDBACK_SHOW_ALL_PAIRS	n/a	n/a	4	-999	n/a	n/a	n/a	n/a	8	[0, 0, 0]	-999	PAL1	0	R1087N
1221.589	10.444	1807711	ENCODING_START	n/a	n/a	0	-999	n/a	n/a	n/a	n/a	9	[0, 0, 0]	-999	PAL1	0	R1087N
1232.033	0.275	1818154	STUDY_ORIENT	n/a	n/a	1	1	NAIL	n/a	NAIL	CASH	9	[0, 0, 0]	-999	PAL1	0	R1087N
1232.916	4.0	1819037	STUDY_PAIR	n/a	wordpools/wordpool_EN.txt	1	1	NAIL	n/a	NAIL	CASH	9	[0, 0, 0]	-999	PAL1	0	R1087N
1237.95	0.275	1824071	STUDY_ORIENT	n/a	n/a	2	6	FACE	n/a	FACE	TRUCK	9	[0, 0, 0]	-999	PAL1	0	R1087N
1238.867	4.0	1824988	STUDY_PAIR	n/a	wordpools/wordpool_EN.txt	2	6	FACE	n/a	FACE	TRUCK	9	[0, 0, 0]	-999	PAL1	0	R1087N
1243.901	0.275	1830021	STUDY_ORIENT	n/a	n/a	3	3	POOL	STOOL	POOL	SEA	9	[0, 0, 0]	-999	PAL1	0	R1087N
1244.918	4.0	1831038	STUDY_PAIR	n/a	wordpools/wordpool_EN.txt	3	3	POOL	STOOL	POOL	SEA	9	[0, 0, 0]	-999	PAL1	0	R1087N
1249.953	0.275	1836073	STUDY_ORIENT	n/a	n/a	4	4	BED	BARN	BED	BARN	9	[0, 0, 0]	-999	PAL1	0	R1087N
1250.969	4.0	1837089	STUDY_PAIR	n/a	wordpools/wordpool_EN.txt	4	4	BED	BARN	BED	BARN	9	[0, 0, 0]	-999	PAL1	0	R1087N
1256.003	0.275	1842123	STUDY_ORIENT	n/a	n/a	5	5	NOSE	n/a	LAKE	NOSE	9	[0, 0, 0]	-999	PAL1	0	R1087N
1256.987	4.0	1843107	STUDY_PAIR	n/a	wordpools/wordpool_EN.txt	5	5	NOSE	n/a	LAKE	NOSE	9	[0, 0, 0]	-999	PAL1	0	R1087N
1262.021	0.275	1848141	STUDY_ORIENT	n/a	n/a	6	2	SKY	n/a	SKY	FLAME	9	[0, 0, 0]	-999	PAL1	0	R1087N
1262.821	4.0	1848941	STUDY_PAIR	n/a	wordpools/wordpool_EN.txt	6	2	SKY	n/a	SKY	FLAME	9	[0, 0, 0]	-999	PAL1	0	R1087N
1266.839	0.999	1852958	START	n/a	n/a	-999	-999	n/a	n/a	n/a	n/a	9	[-999, -999, -999]	-999	PAL1	0	R1087N
1267.838	0.018	1853957	MATH_START	n/a	n/a	-999	-999	n/a	n/a	n/a	n/a	9	[0, 0, 0]	-999	PAL1	0	R1087N
1267.856	10.817	1853975	PROB	10.789	n/a	-999	-999	n/a	n/a	n/a	n/a	9	[8, 5, 9]	22	PAL1	0	R1087N
1278.673	5.219	1864792	PROB	5.196	n/a	-999	-999	n/a	n/a	n/a	n/a	9	[2, 4, 3]	9	PAL1	0	R1087N
1283.892	4.265	1870010	PROB	4.265	n/a	-999	-999	n/a	n/a	n/a	n/a	9	[6, 6, 3]	15	PAL1	0	R1087N
1288.157	0.019	1874275	STOP	n/a	n/a	-999	-999	n/a	n/a	n/a	n/a	9	[-999, -999, -999]	-999	PAL1	0	R1087N
1288.176	0.0	1874294	MATH_END	n/a	n/a	-999	-999	n/a	n/a	n/a	n/a	9	[0, 0, 0]	-999	PAL1	0	R1087N
1288.176	0.017	1874294	TEST_START	n/a	n/a	-999	-999	n/a	n/a	n/a	n/a	9	[0, 0, 0]	-999	PAL1	0	R1087N
1288.193	0.275	1874311	TEST_ORIENT	n/a	n/a	1	1	NAIL	n/a	NAIL	CASH	9	[0, 0, 0]	-999	PAL1	0	R1087N
1289.142	0.0	1875260	REC_START	n/a	n/a	1	-999	n/a	n/a	n/a	n/a	9	[0, 0, 0]	-999	PAL1	0	R1087N
1289.142	4.0	1875260	TEST_PROBE	n/a	wordpools/wordpool_EN.txt	1	1	NAIL	n/a	NAIL	CASH	9	[0, 0, 0]	-999	PAL1	0	R1087N
1294.041	0.119	1880159	REC_EVENT	4.899	n/a	1	1	NAIL	<>	NAIL	CASH	9	[0, 0, 0]	-999	PAL1	0	R1087N
1294.16	0.016	1880278	REC_END	n/a	n/a	1	-999	n/a	n/a	n/a	n/a	9	[0, 0, 0]	-999	PAL1	0	R1087N
1294.176	0.275	1880294	TEST_ORIENT	n/a	n/a	6	2	SKY	n/a	SKY	FLAME	9	[0, 0, 0]	-999	PAL1	0	R1087N
1295.143	4.0	1881261	TEST_PROBE	n/a	wordpools/wordpool_EN.txt	6	2	SKY	n/a	SKY	FLAME	9	[0, 0, 0]	-999	PAL1	0	R1087N
1295.143	3.716	1881261	REC_START	n/a	n/a	6	-999	n/a	n/a	n/a	n/a	9	[0, 0, 0]	-999	PAL1	0	R1087N
1298.859	1.301	1884977	REC_EVENT	3.716	n/a	6	2	SKY	<>	SKY	FLAME	9	[0, 0, 0]	-999	PAL1	0	R1087N
1300.16	0.017	1886278	REC_END	n/a	n/a	6	-999	n/a	n/a	n/a	n/a	9	[0, 0, 0]	-999	PAL1	0	R1087N
1300.177	0.275	1886295	TEST_ORIENT	n/a	n/a	3	3	POOL	STOOL	POOL	SEA	9	[0, 0, 0]	-999	PAL1	0	R1087N
1301.044	4.0	1887162	TEST_PROBE	n/a	wordpools/wordpool_EN.txt	3	3	POOL	STOOL	POOL	SEA	9	[0, 0, 0]	-999	PAL1	0	R1087N
1301.045	1.868	1887163	REC_START	n/a	n/a	3	-999	n/a	STOOL	n/a	n/a	9	[0, 0, 0]	-999	PAL1	0	R1087N
1302.913	3.156	1889031	REC_EVENT	1.868	n/a	3	3	POOL	STOOL	POOL	SEA	9	[0, 0, 0]	-999	PAL1	0	R1087N
1306.069	0.009	1892186	REC_END	n/a	n/a	3	-999	n/a	n/a	n/a	n/a	9	[0, 0, 0]	-999	PAL1	0	R1087N
1306.078	0.275	1892195	TEST_ORIENT	n/a	n/a	4	4	BED	BARN	BED	BARN	9	[0, 0, 0]	-999	PAL1	0	R1087N
1307.045	4.0	1893162	TEST_PROBE	n/a	wordpools/wordpool_EN.txt	4	4	BED	BARN	BED	BARN	9	[0, 0, 0]	-999	PAL1	0	R1087N
1307.046	1.336	1893163	REC_START	n/a	n/a	4	-999	n/a	BARN	n/a	n/a	9	[0, 0, 0]	-999	PAL1	0	R1087N
1308.382	3.68	1894499	REC_EVENT	1.336	n/a	4	4	BED	BARN	BED	BARN	9	[0, 0, 0]	-999	PAL1	0	R1087N
1312.062	0.017	1898179	REC_END	n/a	n/a	4	-999	n/a	n/a	n/a	n/a	9	[0, 0, 0]	-999	PAL1	0	R1087N
1312.079	0.275	1898196	TEST_ORIENT	n/a	n/a	5	5	NOSE	n/a	LAKE	NOSE	9	[0, 0, 0]	-999	PAL1	0	R1087N
1313.063	0.0	1899180	REC_START	n/a	n/a	5	-999	n/a	n/a	n/a	n/a	9	[0, 0, 0]	-999	PAL1	0	R1087N
1313.063	4.0	1899180	TEST_PROBE	n/a	wordpools/wordpool_EN.txt	5	5	NOSE	n/a	LAKE	NOSE	9	[0, 0, 0]	-999	PAL1	0	R1087N
1318.008	0.072	1904125	REC_EVENT	4.945	n/a	5	5	NOSE	<>	LAKE	NOSE	9	[0, 0, 0]	-999	PAL1	0	R1087N
1318.08	0.017	1904197	REC_END	n/a	n/a	5	-999	n/a	n/a	n/a	n/a	9	[0, 0, 0]	-999	PAL1	0	R1087N
1318.097	0.275	1904214	TEST_ORIENT	n/a	n/a	2	6	FACE	n/a	FACE	TRUCK	9	[0, 0, 0]	-999	PAL1	0	R1087N
1318.93	4.0	1905047	TEST_PROBE	n/a	wordpools/wordpool_EN.txt	2	6	FACE	n/a	FACE	TRUCK	9	[0, 0, 0]	-999	PAL1	0	R1087N
1318.931	4.945	1905048	REC_START	n/a	n/a	2	-999	n/a	n/a	n/a	n/a	9	[0, 0, 0]	-999	PAL1	0	R1087N
1323.876	0.08	1909993	REC_EVENT	4.945	n/a	2	6	FACE	<>	FACE	TRUCK	9	[0, 0, 0]	-999	PAL1	0	R1087N
1323.956	0.025	1910072	REC_END	n/a	n/a	2	-999	n/a	n/a	n/a	n/a	9	[0, 0, 0]	-999	PAL1	0	R1087N
1323.981	12.704	1910097	FEEDBACK_SHOW_ALL_PAIRS	n/a	n/a	2	-999	n/a	n/a	n/a	n/a	9	[0, 0, 0]	-999	PAL1	0	R1087N
1336.685	10.45	1922801	ENCODING_START	n/a	n/a	0	-999	n/a	n/a	n/a	n/a	10	[0, 0, 0]	-999	PAL1	0	R1087N
1347.135	0.275	1933250	STUDY_ORIENT	n/a	n/a	1	1	TOAST	n/a	SPEAR	TOAST	10	[0, 0, 0]	-999	PAL1	0	R1087N
1347.969	4.0	1934084	STUDY_PAIR	n/a	wordpools/wordpool_EN.txt	1	1	TOAST	n/a	SPEAR	TOAST	10	[0, 0, 0]	-999	PAL1	0	R1087N
1353.003	0.275	1939118	STUDY_ORIENT	n/a	n/a	2	2	JUICE	ROPE	JUICE	PANTS	10	[0, 0, 0]	-999	PAL1	0	R1087N
1353.953	4.0	1940068	STUDY_PAIR	n/a	wordpools/wordpool_EN.txt	2	2	JUICE	ROPE	JUICE	PANTS	10	[0, 0, 0]	-999	PAL1	0	R1087N
1358.987	0.275	1945102	STUDY_ORIENT	n/a	n/a	3	5	DART	ROPE	DART	LAMP	10	[0, 0, 0]	-999	PAL1	0	R1087N
1359.971	4.0	1946086	STUDY_PAIR	n/a	wordpools/wordpool_EN.txt	3	5	DART	ROPE	DART	LAMP	10	[0, 0, 0]	-999	PAL1	0	R1087N
1365.005	0.275	1951119	STUDY_ORIENT	n/a	n/a	4	4	CANE	CRANE	DIME	CANE	10	[0, 0, 0]	-999	PAL1	0	R1087N
1365.988	4.0	1952102	STUDY_PAIR	n/a	wordpools/wordpool_EN.txt	4	4	CANE	CRANE	DIME	CANE	10	[0, 0, 0]	-999	PAL1	0	R1087N
1371.022	0.275	1957136	STUDY_ORIENT	n/a	n/a	5	3	POLE	BOWL	LAMB	POLE	10	[0, 0, 0]	-999	PAL1	0	R1087N
1371.89	4.0	1958004	STUDY_PAIR	n/a	wordpools/wordpool_EN.txt	5	3	POLE	BOWL	LAMB	POLE	10	[0, 0, 0]	-999	PAL1	0	R1087N
1376.924	0.275	1963038	STUDY_ORIENT	n/a	n/a	6	6	CHIEF	LAMB	GLASS	CHIEF	10	[0, 0, 0]	-999	PAL1	0	R1087N
1377.757	4.0	1963871	STUDY_PAIR	n/a	wordpools/wordpool_EN.txt	6	6	CHIEF	LAMB	GLASS	CHIEF	10	[0, 0, 0]	-999	PAL1	0	R1087N
1381.775	0.999	1967889	START	n/a	n/a	-999	-999	n/a	n/a	n/a	n/a	10	[-999, -999, -999]	-999	PAL1	0	R1087N
1382.774	0.017	1968888	MATH_START	n/a	n/a	-999	-999	n/a	n/a	n/a	n/a	10	[0, 0, 0]	-999	PAL1	0	R1087N
1382.791	10.902	1968905	PROB	10.87	n/a	-999	-999	n/a	n/a	n/a	n/a	10	[5, 8, 6]	19	PAL1	0	R1087N
1393.693	9.768	1979806	PROB	9.768	n/a	-999	-999	n/a	n/a	n/a	n/a	10	[9, 5, 8]	23	PAL1	0	R1087N
1403.461	0.017	1989574	STOP	n/a	n/a	-999	-999	n/a	n/a	n/a	n/a	10	[-999, -999, -999]	-999	PAL1	0	R1087N
1403.478	0.0	1989591	MATH_END	n/a	n/a	-999	-999	n/a	n/a	n/a	n/a	10	[0, 0, 0]	-999	PAL1	0	R1087N
1403.478	0.017	1989591	TEST_START	n/a	n/a	-999	-999	n/a	n/a	n/a	n/a	10	[0, 0, 0]	-999	PAL1	0	R1087N
1403.495	0.275	1989608	TEST_ORIENT	n/a	n/a	1	1	TOAST	n/a	SPEAR	TOAST	10	[0, 0, 0]	-999	PAL1	0	R1087N
1404.361	4.0	1990473	TEST_PROBE	n/a	wordpools/wordpool_EN.txt	1	1	TOAST	n/a	SPEAR	TOAST	10	[0, 0, 0]	-999	PAL1	0	R1087N
1404.362	0.0	1990474	REC_EVENT	0.0	n/a	1	1	TOAST	<>	SPEAR	TOAST	10	[0, 0, 0]	-999	PAL1	0	R1087N
1404.362	5.024	1990474	REC_START	n/a	n/a	1	-999	n/a	n/a	n/a	n/a	10	[0, 0, 0]	-999	PAL1	0	R1087N
1409.386	0.009	1995498	REC_END	n/a	n/a	1	-999	n/a	n/a	n/a	n/a	10	[0, 0, 0]	-999	PAL1	0	R1087N
1409.395	0.275	1995507	TEST_ORIENT	n/a	n/a	2	2	JUICE	ROPE	JUICE	PANTS	10	[0, 0, 0]	-999	PAL1	0	R1087N
1410.429	4.0	1996541	TEST_PROBE	n/a	wordpools/wordpool_EN.txt	2	2	JUICE	ROPE	JUICE	PANTS	10	[0, 0, 0]	-999	PAL1	0	R1087N
1410.43	3.394	1996542	REC_START	n/a	n/a	2	-999	n/a	ROPE	n/a	n/a	10	[0, 0, 0]	-999	PAL1	0	R1087N
1413.824	1.622	1999936	REC_EVENT	3.394	n/a	2	2	JUICE	ROPE	JUICE	PANTS	10	[0, 0, 0]	-999	PAL1	0	R1087N
1415.446	0.017	2001558	REC_END	n/a	n/a	2	-999	n/a	n/a	n/a	n/a	10	[0, 0, 0]	-999	PAL1	0	R1087N
1415.463	0.275	2001575	TEST_ORIENT	n/a	n/a	5	3	POLE	BOWL	LAMB	POLE	10	[0, 0, 0]	-999	PAL1	0	R1087N
1416.497	4.0	2002609	TEST_PROBE	n/a	wordpools/wordpool_EN.txt	5	3	POLE	BOWL	LAMB	POLE	10	[0, 0, 0]	-999	PAL1	0	R1087N
1416.498	3.114	2002610	REC_START	n/a	n/a	5	-999	n/a	BOWL	n/a	n/a	10	[0, 0, 0]	-999	PAL1	0	R1087N
1419.612	1.91	2005724	REC_EVENT	3.114	n/a	5	3	POLE	BOWL	LAMB	POLE	10	[0, 0, 0]	-999	PAL1	0	R1087N
1421.522	0.009	2007634	REC_END	n/a	n/a	5	-999	n/a	n/a	n/a	n/a	10	[0, 0, 0]	-999	PAL1	0	R1087N
1421.531	0.275	2007643	TEST_ORIENT	n/a	n/a	4	4	CANE	CRANE	DIME	CANE	10	[0, 0, 0]	-999	PAL1	0	R1087N
1422.448	4.0	2008560	TEST_PROBE	n/a	wordpools/wordpool_EN.txt	4	4	CANE	CRANE	DIME	CANE	10	[0, 0, 0]	-999	PAL1	0	R1087N
1422.448	2.082	2008560	REC_START	n/a	n/a	4	-999	n/a	CRANE	n/a	n/a	10	[0, 0, 0]	-999	PAL1	0	R1087N
1424.53	2.935	2010641	REC_EVENT	2.082	n/a	4	4	CANE	CRANE	DIME	CANE	10	[0, 0, 0]	-999	PAL1	0	R1087N
1427.465	0.017	2013576	REC_END	n/a	n/a	4	-999	n/a	n/a	n/a	n/a	10	[0, 0, 0]	-999	PAL1	0	R1087N
1427.482	0.275	2013593	TEST_ORIENT	n/a	n/a	3	5	DART	ROPE	DART	LAMP	10	[0, 0, 0]	-999	PAL1	0	R1087N
1428.415	4.0	2014526	TEST_PROBE	n/a	wordpools/wordpool_EN.txt	3	5	DART	ROPE	DART	LAMP	10	[0, 0, 0]	-999	PAL1	0	R1087N
1428.416	1.9	2014527	REC_START	n/a	n/a	3	-999	n/a	ROPE	n/a	n/a	10	[0, 0, 0]	-999	PAL1	0	R1087N
1430.316	1.928	2016427	REC_EVENT	1.9	n/a	3	5	DART	ROPE	DART	LAMP	10	[0, 0, 0]	-999	PAL1	0	R1087N
1432.244	1.189	2018355	REC_EVENT	3.828	n/a	3	5	DART	<>	DART	LAMP	10	[0, 0, 0]	-999	PAL1	0	R1087N
1433.433	0.017	2019544	REC_END	n/a	n/a	3	-999	n/a	n/a	n/a	n/a	10	[0, 0, 0]	-999	PAL1	0	R1087N
1433.45	0.275	2019561	TEST_ORIENT	n/a	n/a	6	6	CHIEF	LAMB	GLASS	CHIEF	10	[0, 0, 0]	-999	PAL1	0	R1087N
1434.35	4.0	2020461	TEST_PROBE	n/a	wordpools/wordpool_EN.txt	6	6	CHIEF	LAMB	GLASS	CHIEF	10	[0, 0, 0]	-999	PAL1	0	R1087N
1434.35	2.875	2020461	REC_START	n/a	n/a	6	-999	n/a	LAMB	n/a	n/a	10	[0, 0, 0]	-999	PAL1	0	R1087N
1437.225	2.143	2023336	REC_EVENT	2.875	n/a	6	6	CHIEF	LAMB	GLASS	CHIEF	10	[0, 0, 0]	-999	PAL1	0	R1087N
1439.368	0.033	2025479	REC_END	n/a	n/a	6	-999	n/a	n/a	n/a	n/a	10	[0, 0, 0]	-999	PAL1	0	R1087N
1439.401	20.98	2025512	FEEDBACK_SHOW_ALL_PAIRS	n/a	n/a	6	-999	n/a	n/a	n/a	n/a	10	[0, 0, 0]	-999	PAL1	0	R1087N
1460.381	10.442	2046491	ENCODING_START	n/a	n/a	0	-999	n/a	n/a	n/a	n/a	11	[0, 0, 0]	-999	PAL1	0	R1087N
1470.823	0.275	2056932	STUDY_ORIENT	n/a	n/a	1	5	BLUSH	n/a	BLUSH	WOOD	11	[0, 0, 0]	-999	PAL1	0	R1087N
1471.673	4.0	2057782	STUDY_PAIR	n/a	wordpools/wordpool_EN.txt	1	5	BLUSH	n/a	BLUSH	WOOD	11	[0, 0, 0]	-999	PAL1	0	R1087N
1476.707	0.275	2062816	STUDY_ORIENT	n/a	n/a	2	4	TOY	TRAIN	TOY	CHALK	11	[0, 0, 0]	-999	PAL1	0	R1087N
1477.507	4.0	2063616	STUDY_PAIR	n/a	wordpools/wordpool_EN.txt	2	4	TOY	TRAIN	TOY	CHALK	11	[0, 0, 0]	-999	PAL1	0	R1087N
1482.542	0.275	2068651	STUDY_ORIENT	n/a	n/a	3	3	FLOOR	n/a	THUMB	FLOOR	11	[0, 0, 0]	-999	PAL1	0	R1087N
1483.475	4.0	2069584	STUDY_PAIR	n/a	wordpools/wordpool_EN.txt	3	3	FLOOR	n/a	THUMB	FLOOR	11	[0, 0, 0]	-999	PAL1	0	R1087N
1488.509	0.275	2074617	STUDY_ORIENT	n/a	n/a	4	2	HOUSE	MOUSE	STORM	HOUSE	11	[0, 0, 0]	-999	PAL1	0	R1087N
1489.51	4.0	2075618	STUDY_PAIR	n/a	wordpools/wordpool_EN.txt	4	2	HOUSE	MOUSE	STORM	HOUSE	11	[0, 0, 0]	-999	PAL1	0	R1087N
1494.543	0.275	2080651	STUDY_ORIENT	n/a	n/a	5	1	FILM	n/a	FILM	STOVE	11	[0, 0, 0]	-999	PAL1	0	R1087N
1495.411	4.0	2081519	STUDY_PAIR	n/a	wordpools/wordpool_EN.txt	5	1	FILM	n/a	FILM	STOVE	11	[0, 0, 0]	-999	PAL1	0	R1087N
1500.444	0.275	2086552	STUDY_ORIENT	n/a	n/a	6	6	BEACH	DOLL	BEACH	DOLL	11	[0, 0, 0]	-999	PAL1	0	R1087N
1501.244	4.0	2087352	STUDY_PAIR	n/a	wordpools/wordpool_EN.txt	6	6	BEACH	DOLL	BEACH	DOLL	11	[0, 0, 0]	-999	PAL1	0	R1087N
1505.262	1.0	2091369	START	n/a	n/a	-999	-999	n/a	n/a	n/a	n/a	11	[-999, -999, -999]	-999	PAL1	0	R1087N
1506.262	0.017	2092369	MATH_START	n/a	n/a	-999	-999	n/a	n/a	n/a	n/a	11	[0, 0, 0]	-999	PAL1	0	R1087N
1506.279	8.685	2092386	PROB	8.662	n/a	-999	-999	n/a	n/a	n/a	n/a	11	[7, 5, 6]	14	PAL1	0	R1087N
1514.964	6.134	2101071	PROB	6.105	n/a	-999	-999	n/a	n/a	n/a	n/a	11	[4, 7, 7]	18	PAL1	0	R1087N
1521.098	4.531	2107205	PROB	4.531	n/a	-999	-999	n/a	n/a	n/a	n/a	11	[2, 1, 6]	9	PAL1	0	R1087N
1525.629	0.02	2111735	STOP	n/a	n/a	-999	-999	n/a	n/a	n/a	n/a	11	[-999, -999, -999]	-999	PAL1	0	R1087N
1525.649	0.0	2111755	MATH_END	n/a	n/a	-999	-999	n/a	n/a	n/a	n/a	11	[0, 0, 0]	-999	PAL1	0	R1087N
1525.649	0.016	2111755	TEST_START	n/a	n/a	-999	-999	n/a	n/a	n/a	n/a	11	[0, 0, 0]	-999	PAL1	0	R1087N
1525.665	0.275	2111771	TEST_ORIENT	n/a	n/a	5	1	FILM	n/a	FILM	STOVE	11	[0, 0, 0]	-999	PAL1	0	R1087N
1526.533	4.0	2112639	TEST_PROBE	n/a	wordpools/wordpool_EN.txt	5	1	FILM	n/a	FILM	STOVE	11	[0, 0, 0]	-999	PAL1	0	R1087N
1526.533	4.876	2112639	REC_START	n/a	n/a	5	-999	n/a	n/a	n/a	n/a	11	[0, 0, 0]	-999	PAL1	0	R1087N
1531.409	0.14	2117515	REC_EVENT	4.876	n/a	5	1	FILM	<>	FILM	STOVE	11	[0, 0, 0]	-999	PAL1	0	R1087N
1531.549	0.017	2117655	REC_END	n/a	n/a	5	-999	n/a	n/a	n/a	n/a	11	[0, 0, 0]	-999	PAL1	0	R1087N
1531.566	0.275	2117672	TEST_ORIENT	n/a	n/a	4	2	HOUSE	MOUSE	STORM	HOUSE	11	[0, 0, 0]	-999	PAL1	0	R1087N
1532.6	4.0	2118706	TEST_PROBE	n/a	wordpools/wordpool_EN.txt	4	2	HOUSE	MOUSE	STORM	HOUSE	11	[0, 0, 0]	-999	PAL1	0	R1087N
1532.601	1.923	2118707	REC_START	n/a	n/a	4	-999	n/a	MOUSE	n/a	n/a	11	[0, 0, 0]	-999	PAL1	0	R1087N
1534.524	2.258	2120630	REC_EVENT	1.923	n/a	4	2	HOUSE	MOUSE	STORM	HOUSE	11	[0, 0, 0]	-999	PAL1	0	R1087N
1536.782	0.844	2122888	REC_EVENT	4.181	n/a	4	2	HOUSE	<>	STORM	HOUSE	11	[0, 0, 0]	-999	PAL1	0	R1087N
1537.626	0.008	2123732	REC_END	n/a	n/a	4	-999	n/a	n/a	n/a	n/a	11	[0, 0, 0]	-999	PAL1	0	R1087N
1537.634	0.275	2123740	TEST_ORIENT	n/a	n/a	3	3	FLOOR	n/a	THUMB	FLOOR	11	[0, 0, 0]	-999	PAL1	0	R1087N
1538.484	4.0	2124590	TEST_PROBE	n/a	wordpools/wordpool_EN.txt	3	3	FLOOR	n/a	THUMB	FLOOR	11	[0, 0, 0]	-999	PAL1	0	R1087N
1538.485	2.815	2124591	REC_START	n/a	n/a	3	-999	n/a	n/a	n/a	n/a	11	[0, 0, 0]	-999	PAL1	0	R1087N
1541.3	2.201	2127406	REC_EVENT	2.815	n/a	3	3	FLOOR	<>	THUMB	FLOOR	11	[0, 0, 0]	-999	PAL1	0	R1087N
1543.501	0.017	2129607	REC_END	n/a	n/a	3	-999	n/a	n/a	n/a	n/a	11	[0, 0, 0]	-999	PAL1	0	R1087N
1543.518	0.275	2129624	TEST_ORIENT	n/a	n/a	2	4	TOY	TRAIN	TOY	CHALK	11	[0, 0, 0]	-999	PAL1	0	R1087N
1544.336	4.0	2130442	TEST_PROBE	n/a	wordpools/wordpool_EN.txt	2	4	TOY	TRAIN	TOY	CHALK	11	[0, 0, 0]	-999	PAL1	0	R1087N
1544.336	1.533	2130442	REC_START	n/a	n/a	2	-999	n/a	TRAIN	n/a	n/a	11	[0, 0, 0]	-999	PAL1	0	R1087N
1545.869	3.484	2131974	REC_EVENT	1.533	n/a	2	4	TOY	TRAIN	TOY	CHALK	11	[0, 0, 0]	-999	PAL1	0	R1087N
1549.353	0.016	2135458	REC_END	n/a	n/a	2	-999	n/a	n/a	n/a	n/a	11	[0, 0, 0]	-999	PAL1	0	R1087N
1549.369	0.275	2135474	TEST_ORIENT	n/a	n/a	1	5	BLUSH	n/a	BLUSH	WOOD	11	[0, 0, 0]	-999	PAL1	0	R1087N
1550.203	4.0	2136308	TEST_PROBE	n/a	wordpools/wordpool_EN.txt	1	5	BLUSH	n/a	BLUSH	WOOD	11	[0, 0, 0]	-999	PAL1	0	R1087N
1550.203	4.969	2136308	REC_START	n/a	n/a	1	-999	n/a	n/a	n/a	n/a	11	[0, 0, 0]	-999	PAL1	0	R1087N
1555.172	0.048	2141277	REC_EVENT	4.969	n/a	1	5	BLUSH	<>	BLUSH	WOOD	11	[0, 0, 0]	-999	PAL1	0	R1087N
1555.22	0.017	2141325	REC_END	n/a	n/a	1	-999	n/a	n/a	n/a	n/a	11	[0, 0, 0]	-999	PAL1	0	R1087N
1555.237	0.275	2141342	TEST_ORIENT	n/a	n/a	6	6	BEACH	DOLL	BEACH	DOLL	11	[0, 0, 0]	-999	PAL1	0	R1087N
1556.054	4.0	2142159	TEST_PROBE	n/a	wordpools/wordpool_EN.txt	6	6	BEACH	DOLL	BEACH	DOLL	11	[0, 0, 0]	-999	PAL1	0	R1087N
1556.055	1.354	2142160	REC_START	n/a	n/a	6	-999	n/a	DOLL	n/a	n/a	11	[0, 0, 0]	-999	PAL1	0	R1087N
1557.409	1.168	2143514	REC_EVENT	1.354	n/a	6	6	BEACH	DOLL	BEACH	DOLL	11	[0, 0, 0]	-999	PAL1	0	R1087N
1558.577	0.297	2144682	REC_EVENT	2.522	n/a	6	6	BEACH	BEACH	BEACH	DOLL	11	[0, 0, 0]	-999	PAL1	0	R1087N
1558.874	2.205	2144979	REC_EVENT	2.819	n/a	6	6	BEACH	DOLL	BEACH	DOLL	11	[0, 0, 0]	-999	PAL1	0	R1087N
1561.079	0.027	2147184	REC_END	n/a	n/a	6	-999	n/a	n/a	n/a	n/a	11	[0, 0, 0]	-999	PAL1	0	R1087N
1561.106	25.003	2147211	FEEDBACK_SHOW_ALL_PAIRS	n/a	n/a	6	-999	n/a	n/a	n/a	n/a	11	[0, 0, 0]	-999	PAL1	0	R1087N
1586.109	10.452	2172212	ENCODING_START	n/a	n/a	0	-999	n/a	n/a	n/a	n/a	12	[0, 0, 0]	-999	PAL1	0	R1087N
1596.561	0.275	2182664	STUDY_ORIENT	n/a	n/a	1	3	OAK	STAIR	OAK	STICK	12	[0, 0, 0]	-999	PAL1	0	R1087N
1597.544	4.0	2183647	STUDY_PAIR	n/a	wordpools/wordpool_EN.txt	1	3	OAK	STAIR	OAK	STICK	12	[0, 0, 0]	-999	PAL1	0	R1087N
1602.578	0.275	2188681	STUDY_ORIENT	n/a	n/a	2	2	FLEA	n/a	FLEA	FORK	12	[0, 0, 0]	-999	PAL1	0	R1087N
1603.362	4.0	2189465	STUDY_PAIR	n/a	wordpools/wordpool_EN.txt	2	2	FLEA	n/a	FLEA	FORK	12	[0, 0, 0]	-999	PAL1	0	R1087N
1608.396	0.275	2194498	STUDY_ORIENT	n/a	n/a	3	5	SHIRT	BOOK	DOG	SHIRT	12	[0, 0, 0]	-999	PAL1	0	R1087N
1609.23	4.0	2195332	STUDY_PAIR	n/a	wordpools/wordpool_EN.txt	3	5	SHIRT	BOOK	DOG	SHIRT	12	[0, 0, 0]	-999	PAL1	0	R1087N
1614.264	0.275	2200366	STUDY_ORIENT	n/a	n/a	4	4	ROCK	n/a	ROCK	HOOK	12	[0, 0, 0]	-999	PAL1	0	R1087N
1615.097	4.0	2201199	STUDY_PAIR	n/a	wordpools/wordpool_EN.txt	4	4	ROCK	n/a	ROCK	HOOK	12	[0, 0, 0]	-999	PAL1	0	R1087N
1620.131	0.275	2206233	STUDY_ORIENT	n/a	n/a	5	1	GRAPE	n/a	STAR	GRAPE	12	[0, 0, 0]	-999	PAL1	0	R1087N
1620.948	4.0	2207050	STUDY_PAIR	n/a	wordpools/wordpool_EN.txt	5	1	GRAPE	n/a	STAR	GRAPE	12	[0, 0, 0]	-999	PAL1	0	R1087N
1625.982	0.275	2212083	STUDY_ORIENT	n/a	n/a	6	6	SPOON	n/a	SPOON	HOSE	12	[0, 0, 0]	-999	PAL1	0	R1087N
1626.8	4.0	2212901	STUDY_PAIR	n/a	wordpools/wordpool_EN.txt	6	6	SPOON	n/a	SPOON	HOSE	12	[0, 0, 0]	-999	PAL1	0	R1087N
1630.817	0.999	2216918	START	n/a	n/a	-999	-999	n/a	n/a	n/a	n/a	12	[-999, -999, -999]	-999	PAL1	0	R1087N
1631.816	0.018	2217917	MATH_START	n/a	n/a	-999	-999	n/a	n/a	n/a	n/a	12	[0, 0, 0]	-999	PAL1	0	R1087N
1631.834	6.251	2217935	PROB	6.227	n/a	-999	-999	n/a	n/a	n/a	n/a	12	[6, 3, 7]	16	PAL1	0	R1087N
1638.085	4.5	2224186	PROB	4.472	n/a	-999	-999	n/a	n/a	n/a	n/a	12	[6, 9, 2]	17	PAL1	0	R1087N
1642.585	9.74	2228686	PROB	9.74	n/a	-999	-999	n/a	n/a	n/a	n/a	12	[2, 7, 6]	15	PAL1	0	R1087N
1652.325	0.012	2238425	STOP	n/a	n/a	-999	-999	n/a	n/a	n/a	n/a	12	[-999, -999, -999]	-999	PAL1	0	R1087N
1652.337	0.0	2238437	MATH_END	n/a	n/a	-999	-999	n/a	n/a	n/a	n/a	12	[0, 0, 0]	-999	PAL1	0	R1087N
1652.337	0.016	2238437	TEST_START	n/a	n/a	-999	-999	n/a	n/a	n/a	n/a	12	[0, 0, 0]	-999	PAL1	0	R1087N
1652.353	0.275	2238453	TEST_ORIENT	n/a	n/a	5	1	GRAPE	n/a	STAR	GRAPE	12	[0, 0, 0]	-999	PAL1	0	R1087N
1653.237	4.0	2239337	TEST_PROBE	n/a	wordpools/wordpool_EN.txt	5	1	GRAPE	n/a	STAR	GRAPE	12	[0, 0, 0]	-999	PAL1	0	R1087N
1653.238	3.843	2239338	REC_START	n/a	n/a	5	-999	n/a	n/a	n/a	n/a	12	[0, 0, 0]	-999	PAL1	0	R1087N
1657.081	1.054	2243181	REC_EVENT	3.843	n/a	5	1	GRAPE	<>	STAR	GRAPE	12	[0, 0, 0]	-999	PAL1	0	R1087N
1658.135	0.128	2244235	REC_EVENT	4.897	n/a	5	1	GRAPE	<>	STAR	GRAPE	12	[0, 0, 0]	-999	PAL1	0	R1087N
1658.263	0.008	2244363	REC_END	n/a	n/a	5	-999	n/a	n/a	n/a	n/a	12	[0, 0, 0]	-999	PAL1	0	R1087N
1658.271	0.275	2244371	TEST_ORIENT	n/a	n/a	2	2	FLEA	n/a	FLEA	FORK	12	[0, 0, 0]	-999	PAL1	0	R1087N
1659.288	4.0	2245388	TEST_PROBE	n/a	wordpools/wordpool_EN.txt	2	2	FLEA	n/a	FLEA	FORK	12	[0, 0, 0]	-999	PAL1	0	R1087N
1659.288	2.55	2245388	REC_START	n/a	n/a	2	-999	n/a	n/a	n/a	n/a	12	[0, 0, 0]	-999	PAL1	0	R1087N
1661.838	2.467	2247938	REC_EVENT	2.55	n/a	2	2	FLEA	<>	FLEA	FORK	12	[0, 0, 0]	-999	PAL1	0	R1087N
1664.305	0.017	2250405	REC_END	n/a	n/a	2	-999	n/a	n/a	n/a	n/a	12	[0, 0, 0]	-999	PAL1	0	R1087N
1664.322	0.275	2250422	TEST_ORIENT	n/a	n/a	1	3	OAK	STAIR	OAK	STICK	12	[0, 0, 0]	-999	PAL1	0	R1087N
1665.323	0.0	2251422	REC_START	n/a	n/a	1	-999	n/a	STAIR	n/a	n/a	12	[0, 0, 0]	-999	PAL1	0	R1087N
1665.323	4.0	2251422	TEST_PROBE	n/a	wordpools/wordpool_EN.txt	1	3	OAK	STAIR	OAK	STICK	12	[0, 0, 0]	-999	PAL1	0	R1087N
1667.289	0.922	2253388	REC_EVENT	1.966	n/a	1	3	OAK	STAIR	OAK	STICK	12	[0, 0, 0]	-999	PAL1	0	R1087N
1668.211	2.129	2254310	REC_EVENT	2.888	n/a	1	3	OAK	<>	OAK	STICK	12	[0, 0, 0]	-999	PAL1	0	R1087N
1670.34	0.017	2256439	REC_END	n/a	n/a	1	-999	n/a	n/a	n/a	n/a	12	[0, 0, 0]	-999	PAL1	0	R1087N
1670.357	0.275	2256456	TEST_ORIENT	n/a	n/a	4	4	ROCK	n/a	ROCK	HOOK	12	[0, 0, 0]	-999	PAL1	0	R1087N
1671.374	4.0	2257473	TEST_PROBE	n/a	wordpools/wordpool_EN.txt	4	4	ROCK	n/a	ROCK	HOOK	12	[0, 0, 0]	-999	PAL1	0	R1087N
1671.375	4.922	2257474	REC_START	n/a	n/a	4	-999	n/a	n/a	n/a	n/a	12	[0, 0, 0]	-999	PAL1	0	R1087N
1676.297	0.093	2262396	REC_EVENT	4.922	n/a	4	4	ROCK	<>	ROCK	HOOK	12	[0, 0, 0]	-999	PAL1	0	R1087N
1676.39	0.017	2262489	REC_END	n/a	n/a	4	-999	n/a	n/a	n/a	n/a	12	[0, 0, 0]	-999	PAL1	0	R1087N
1676.407	0.275	2262506	TEST_ORIENT	n/a	n/a	3	5	SHIRT	BOOK	DOG	SHIRT	12	[0, 0, 0]	-999	PAL1	0	R1087N
1677.257	4.0	2263356	TEST_PROBE	n/a	wordpools/wordpool_EN.txt	3	5	SHIRT	BOOK	DOG	SHIRT	12	[0, 0, 0]	-999	PAL1	0	R1087N
1677.258	1.848	2263357	REC_START	n/a	n/a	3	-999	n/a	BOOK	n/a	n/a	12	[0, 0, 0]	-999	PAL1	0	R1087N
1679.106	2.591	2265205	REC_EVENT	1.848	n/a	3	5	SHIRT	<>	DOG	SHIRT	12	[0, 0, 0]	-999	PAL1	0	R1087N
1681.697	0.587	2267796	REC_EVENT	4.439	n/a	3	5	SHIRT	BOOK	DOG	SHIRT	12	[0, 0, 0]	-999	PAL1	0	R1087N
1682.284	0.008	2268383	REC_END	n/a	n/a	3	-999	n/a	n/a	n/a	n/a	12	[0, 0, 0]	-999	PAL1	0	R1087N
1682.292	0.275	2268391	TEST_ORIENT	n/a	n/a	6	6	SPOON	n/a	SPOON	HOSE	12	[0, 0, 0]	-999	PAL1	0	R1087N
1683.225	4.0	2269324	TEST_PROBE	n/a	wordpools/wordpool_EN.txt	6	6	SPOON	n/a	SPOON	HOSE	12	[0, 0, 0]	-999	PAL1	0	R1087N
1683.226	4.922	2269325	REC_START	n/a	n/a	6	-999	n/a	n/a	n/a	n/a	12	[0, 0, 0]	-999	PAL1	0	R1087N
1688.148	0.094	2274246	REC_EVENT	4.922	n/a	6	6	SPOON	<>	SPOON	HOSE	12	[0, 0, 0]	-999	PAL1	0	R1087N
1688.242	0.035	2274340	REC_END	n/a	n/a	6	-999	n/a	n/a	n/a	n/a	12	[0, 0, 0]	-999	PAL1	0	R1087N
1688.277	16.968	2274375	FEEDBACK_SHOW_ALL_PAIRS	n/a	n/a	6	-999	n/a	n/a	n/a	n/a	12	[0, 0, 0]	-999	PAL1	0	R1087N
1705.245	10.453	2291342	ENCODING_START	n/a	n/a	0	-999	n/a	n/a	n/a	n/a	13	[0, 0, 0]	-999	PAL1	0	R1087N
1715.698	0.275	2301795	STUDY_ORIENT	n/a	n/a	1	3	CHEEK	WEED	CHEEK	WAND	13	[0, 0, 0]	-999	PAL1	0	R1087N
1716.665	4.0	2302762	STUDY_PAIR	n/a	wordpools/wordpool_EN.txt	1	3	CHEEK	WEED	CHEEK	WAND	13	[0, 0, 0]	-999	PAL1	0	R1087N
1721.698	0.275	2307795	STUDY_ORIENT	n/a	n/a	2	2	CONE	BENDER	CONE	BOX	13	[0, 0, 0]	-999	PAL1	0	R1087N
1722.616	4.0	2308713	STUDY_PAIR	n/a	wordpools/wordpool_EN.txt	2	2	CONE	BENDER	CONE	BOX	13	[0, 0, 0]	-999	PAL1	0	R1087N
1727.65	0.275	2313746	STUDY_ORIENT	n/a	n/a	3	1	MOUSE	n/a	MOUSE	HOLE	13	[0, 0, 0]	-999	PAL1	0	R1087N
1728.533	4.0	2314629	STUDY_PAIR	n/a	wordpools/wordpool_EN.txt	3	1	MOUSE	n/a	MOUSE	HOLE	13	[0, 0, 0]	-999	PAL1	0	R1087N
1733.567	0.275	2319663	STUDY_ORIENT	n/a	n/a	4	6	BREAD	BIN	DEER	BREAD	13	[0, 0, 0]	-999	PAL1	0	R1087N
1734.517	4.0	2320613	STUDY_PAIR	n/a	wordpools/wordpool_EN.txt	4	6	BREAD	BIN	DEER	BREAD	13	[0, 0, 0]	-999	PAL1	0	R1087N
1739.552	0.275	2325648	STUDY_ORIENT	n/a	n/a	5	5	PEARL	HOUSE	FOX	PEARL	13	[0, 0, 0]	-999	PAL1	0	R1087N
1740.385	4.0	2326481	STUDY_PAIR	n/a	wordpools/wordpool_EN.txt	5	5	PEARL	HOUSE	FOX	PEARL	13	[0, 0, 0]	-999	PAL1	0	R1087N
1745.42	0.275	2331515	STUDY_ORIENT	n/a	n/a	6	4	GATE	HOLE	GATE	BUSH	13	[0, 0, 0]	-999	PAL1	0	R1087N
1746.419	4.0	2332514	STUDY_PAIR	n/a	wordpools/wordpool_EN.txt	6	4	GATE	HOLE	GATE	BUSH	13	[0, 0, 0]	-999	PAL1	0	R1087N
1750.437	1.0	2336532	START	n/a	n/a	-999	-999	n/a	n/a	n/a	n/a	13	[-999, -999, -999]	-999	PAL1	0	R1087N
1751.437	0.017	2337532	MATH_START	n/a	n/a	-999	-999	n/a	n/a	n/a	n/a	13	[0, 0, 0]	-999	PAL1	0	R1087N
1751.454	3.833	2337549	PROB	3.799	n/a	-999	-999	n/a	n/a	n/a	n/a	13	[1, 9, 9]	19	PAL1	0	R1087N
1755.287	13.603	2341382	PROB	13.582	n/a	-999	-999	n/a	n/a	n/a	n/a	13	[3, 8, 6]	16	PAL1	0	R1087N
1768.89	6.475	2354984	PROB	6.475	n/a	-999	-999	n/a	n/a	n/a	n/a	13	[3, 4, 2]	10	PAL1	0	R1087N
1775.365	0.01	2361459	STOP	n/a	n/a	-999	-999	n/a	n/a	n/a	n/a	13	[-999, -999, -999]	-999	PAL1	0	R1087N
1775.375	0.0	2361469	MATH_END	n/a	n/a	-999	-999	n/a	n/a	n/a	n/a	13	[0, 0, 0]	-999	PAL1	0	R1087N
1775.375	0.016	2361469	TEST_START	n/a	n/a	-999	-999	n/a	n/a	n/a	n/a	13	[0, 0, 0]	-999	PAL1	0	R1087N
1775.391	0.275	2361485	TEST_ORIENT	n/a	n/a	3	1	MOUSE	n/a	MOUSE	HOLE	13	[0, 0, 0]	-999	PAL1	0	R1087N
1776.241	4.0	2362335	TEST_PROBE	n/a	wordpools/wordpool_EN.txt	3	1	MOUSE	n/a	MOUSE	HOLE	13	[0, 0, 0]	-999	PAL1	0	R1087N
1776.242	4.969	2362336	REC_START	n/a	n/a	3	-999	n/a	n/a	n/a	n/a	13	[0, 0, 0]	-999	PAL1	0	R1087N
1781.211	0.056	2367305	REC_EVENT	4.969	n/a	3	1	MOUSE	<>	MOUSE	HOLE	13	[0, 0, 0]	-999	PAL1	0	R1087N
1781.267	0.008	2367361	REC_END	n/a	n/a	3	-999	n/a	n/a	n/a	n/a	13	[0, 0, 0]	-999	PAL1	0	R1087N
1781.275	0.275	2367369	TEST_ORIENT	n/a	n/a	2	2	CONE	BENDER	CONE	BOX	13	[0, 0, 0]	-999	PAL1	0	R1087N
1782.276	4.0	2368370	TEST_PROBE	n/a	wordpools/wordpool_EN.txt	2	2	CONE	BENDER	CONE	BOX	13	[0, 0, 0]	-999	PAL1	0	R1087N
1782.277	2.106	2368371	REC_START	n/a	n/a	2	-999	n/a	BENDER	n/a	n/a	13	[0, 0, 0]	-999	PAL1	0	R1087N
1784.383	1.328	2370477	REC_EVENT	2.106	n/a	2	2	CONE	BIN	CONE	BOX	13	[0, 0, 0]	-999	PAL1	0	R1087N
1785.711	1.582	2371804	REC_EVENT	3.434	n/a	2	2	CONE	BENDER	CONE	BOX	13	[0, 0, 0]	-999	PAL1	0	R1087N
1787.293	0.017	2373386	REC_END	n/a	n/a	2	-999	n/a	n/a	n/a	n/a	13	[0, 0, 0]	-999	PAL1	0	R1087N
1787.31	0.275	2373403	TEST_ORIENT	n/a	n/a	1	3	CHEEK	WEED	CHEEK	WAND	13	[0, 0, 0]	-999	PAL1	0	R1087N
1788.144	4.0	2374237	TEST_PROBE	n/a	wordpools/wordpool_EN.txt	1	3	CHEEK	WEED	CHEEK	WAND	13	[0, 0, 0]	-999	PAL1	0	R1087N
1788.144	2.744	2374237	REC_START	n/a	n/a	1	-999	n/a	WEED	n/a	n/a	13	[0, 0, 0]	-999	PAL1	0	R1087N
1790.888	1.024	2376981	REC_EVENT	2.744	n/a	1	3	CHEEK	WHEAT	CHEEK	WAND	13	[0, 0, 0]	-999	PAL1	0	R1087N
1791.912	1.248	2378005	REC_EVENT	3.768	n/a	1	3	CHEEK	WEED	CHEEK	WAND	13	[0, 0, 0]	-999	PAL1	0	R1087N
1793.16	0.017	2379253	REC_END	n/a	n/a	1	-999	n/a	n/a	n/a	n/a	13	[0, 0, 0]	-999	PAL1	0	R1087N
1793.177	0.275	2379270	TEST_ORIENT	n/a	n/a	6	4	GATE	HOLE	GATE	BUSH	13	[0, 0, 0]	-999	PAL1	0	R1087N
1794.161	4.0	2380254	TEST_PROBE	n/a	wordpools/wordpool_EN.txt	6	4	GATE	HOLE	GATE	BUSH	13	[0, 0, 0]	-999	PAL1	0	R1087N
1794.162	3.275	2380255	REC_START	n/a	n/a	6	-999	n/a	HOLE	n/a	n/a	13	[0, 0, 0]	-999	PAL1	0	R1087N
1797.437	1.741	2383530	REC_EVENT	3.275	n/a	6	4	GATE	HOLE	GATE	BUSH	13	[0, 0, 0]	-999	PAL1	0	R1087N
1799.178	0.017	2385271	REC_END	n/a	n/a	6	-999	n/a	n/a	n/a	n/a	13	[0, 0, 0]	-999	PAL1	0	R1087N
1799.195	0.275	2385288	TEST_ORIENT	n/a	n/a	5	5	PEARL	HOUSE	FOX	PEARL	13	[0, 0, 0]	-999	PAL1	0	R1087N
1800.111	4.0	2386204	TEST_PROBE	n/a	wordpools/wordpool_EN.txt	5	5	PEARL	HOUSE	FOX	PEARL	13	[0, 0, 0]	-999	PAL1	0	R1087N
1800.112	2.87	2386205	REC_START	n/a	n/a	5	-999	n/a	HOUSE	n/a	n/a	13	[0, 0, 0]	-999	PAL1	0	R1087N
1802.982	2.155	2389075	REC_EVENT	2.87	n/a	5	5	PEARL	HOUSE	FOX	PEARL	13	[0, 0, 0]	-999	PAL1	0	R1087N
1805.137	0.009	2391229	REC_END	n/a	n/a	5	-999	n/a	n/a	n/a	n/a	13	[0, 0, 0]	-999	PAL1	0	R1087N
1805.146	0.275	2391238	TEST_ORIENT	n/a	n/a	4	6	BREAD	BIN	DEER	BREAD	13	[0, 0, 0]	-999	PAL1	0	R1087N
1806.113	4.0	2392205	TEST_PROBE	n/a	wordpools/wordpool_EN.txt	4	6	BREAD	BIN	DEER	BREAD	13	[0, 0, 0]	-999	PAL1	0	R1087N
1806.113	3.477	2392205	REC_START	n/a	n/a	4	-999	n/a	BIN	n/a	n/a	13	[0, 0, 0]	-999	PAL1	0	R1087N
1809.59	1.54	2395682	REC_EVENT	3.477	n/a	4	6	BREAD	BIN	DEER	BREAD	13	[0, 0, 0]	-999	PAL1	0	R1087N
1811.13	0.017	2397222	REC_END	n/a	n/a	4	-999	n/a	n/a	n/a	n/a	13	[0, 0, 0]	-999	PAL1	0	R1087N
1811.147	12.818	2397239	FEEDBACK_SHOW_ALL_PAIRS	n/a	n/a	4	-999	n/a	n/a	n/a	n/a	13	[0, 0, 0]	-999	PAL1	0	R1087N
1823.965	10.453	2410057	ENCODING_START	n/a	n/a	0	-999	n/a	n/a	n/a	n/a	14	[0, 0, 0]	-999	PAL1	0	R1087N
1834.418	0.275	2420509	STUDY_ORIENT	n/a	n/a	1	1	HORSE	BARN	HORSE	ROOF	14	[0, 0, 0]	-999	PAL1	0	R1087N
1835.318	4.0	2421409	STUDY_PAIR	n/a	wordpools/wordpool_EN.txt	1	1	HORSE	BARN	HORSE	ROOF	14	[0, 0, 0]	-999	PAL1	0	R1087N
1840.352	0.275	2426443	STUDY_ORIENT	n/a	n/a	2	2	CAT	FARM	CAT	FARM	14	[0, 0, 0]	-999	PAL1	0	R1087N
1841.135	4.0	2427226	STUDY_PAIR	n/a	wordpools/wordpool_EN.txt	2	2	CAT	FARM	CAT	FARM	14	[0, 0, 0]	-999	PAL1	0	R1087N
1846.169	0.275	2432259	STUDY_ORIENT	n/a	n/a	3	5	AXE	BEAR	AXE	BEAR	14	[0, 0, 0]	-999	PAL1	0	R1087N
1847.02	4.0	2433110	STUDY_PAIR	n/a	wordpools/wordpool_EN.txt	3	5	AXE	BEAR	AXE	BEAR	14	[0, 0, 0]	-999	PAL1	0	R1087N
1852.054	0.275	2438144	STUDY_ORIENT	n/a	n/a	4	6	DESK	n/a	DESK	BRIDGE	14	[0, 0, 0]	-999	PAL1	0	R1087N
1852.921	4.0	2439011	STUDY_PAIR	n/a	wordpools/wordpool_EN.txt	4	6	DESK	n/a	DESK	BRIDGE	14	[0, 0, 0]	-999	PAL1	0	R1087N
1857.955	0.275	2444045	STUDY_ORIENT	n/a	n/a	5	3	BRICK	n/a	BRICK	FOOD	14	[0, 0, 0]	-999	PAL1	0	R1087N
1858.772	4.0	2444862	STUDY_PAIR	n/a	wordpools/wordpool_EN.txt	5	3	BRICK	n/a	BRICK	FOOD	14	[0, 0, 0]	-999	PAL1	0	R1087N
1863.806	0.275	2449896	STUDY_ORIENT	n/a	n/a	6	4	PURSE	n/a	PURSE	TEETH	14	[0, 0, 0]	-999	PAL1	0	R1087N
1864.773	4.0	2450863	STUDY_PAIR	n/a	wordpools/wordpool_EN.txt	6	4	PURSE	n/a	PURSE	TEETH	14	[0, 0, 0]	-999	PAL1	0	R1087N
1868.79	1.0	2454879	START	n/a	n/a	-999	-999	n/a	n/a	n/a	n/a	14	[-999, -999, -999]	-999	PAL1	0	R1087N
1869.79	0.017	2455879	MATH_START	n/a	n/a	-999	-999	n/a	n/a	n/a	n/a	14	[0, 0, 0]	-999	PAL1	0	R1087N
1869.807	4.917	2455896	PROB	4.894	n/a	-999	-999	n/a	n/a	n/a	n/a	14	[1, 8, 2]	11	PAL1	0	R1087N
1874.724	5.235	2460813	PROB	5.201	n/a	-999	-999	n/a	n/a	n/a	n/a	14	[8, 3, 5]	16	PAL1	0	R1087N
1879.959	5.385	2466048	PROB	5.35	n/a	-999	-999	n/a	n/a	n/a	n/a	14	[4, 1, 3]	8	PAL1	0	R1087N
1885.344	4.373	2471432	PROB	4.373	n/a	-999	-999	n/a	n/a	n/a	n/a	14	[5, 9, 5]	19	PAL1	0	R1087N
1889.717	0.01	2475805	STOP	n/a	n/a	-999	-999	n/a	n/a	n/a	n/a	14	[-999, -999, -999]	-999	PAL1	0	R1087N
1889.727	0.0	2475815	MATH_END	n/a	n/a	-999	-999	n/a	n/a	n/a	n/a	14	[0, 0, 0]	-999	PAL1	0	R1087N
1889.727	0.017	2475815	TEST_START	n/a	n/a	-999	-999	n/a	n/a	n/a	n/a	14	[0, 0, 0]	-999	PAL1	0	R1087N
1889.744	0.275	2475832	TEST_ORIENT	n/a	n/a	1	1	HORSE	BARN	HORSE	ROOF	14	[0, 0, 0]	-999	PAL1	0	R1087N
1890.694	4.0	2476782	TEST_PROBE	n/a	wordpools/wordpool_EN.txt	1	1	HORSE	BARN	HORSE	ROOF	14	[0, 0, 0]	-999	PAL1	0	R1087N
1890.695	3.16	2476783	REC_START	n/a	n/a	1	-999	n/a	BARN	n/a	n/a	14	[0, 0, 0]	-999	PAL1	0	R1087N
1893.855	1.864	2479943	REC_EVENT	3.16	n/a	1	1	HORSE	BARN	HORSE	ROOF	14	[0, 0, 0]	-999	PAL1	0	R1087N
1895.719	0.009	2481807	REC_END	n/a	n/a	1	-999	n/a	n/a	n/a	n/a	14	[0, 0, 0]	-999	PAL1	0	R1087N
1895.728	0.275	2481816	TEST_ORIENT	n/a	n/a	2	2	CAT	FARM	CAT	FARM	14	[0, 0, 0]	-999	PAL1	0	R1087N
1896.728	4.0	2482816	TEST_PROBE	n/a	wordpools/wordpool_EN.txt	2	2	CAT	FARM	CAT	FARM	14	[0, 0, 0]	-999	PAL1	0	R1087N
1896.729	3.656	2482817	REC_START	n/a	n/a	2	-999	n/a	FARM	n/a	n/a	14	[0, 0, 0]	-999	PAL1	0	R1087N
1900.385	1.36	2486473	REC_EVENT	3.656	n/a	2	2	CAT	FARM	CAT	FARM	14	[0, 0, 0]	-999	PAL1	0	R1087N
1901.745	0.018	2487833	REC_END	n/a	n/a	2	-999	n/a	n/a	n/a	n/a	14	[0, 0, 0]	-999	PAL1	0	R1087N
1901.763	0.275	2487851	TEST_ORIENT	n/a	n/a	5	3	BRICK	n/a	BRICK	FOOD	14	[0, 0, 0]	-999	PAL1	0	R1087N
1902.763	4.0	2488851	TEST_PROBE	n/a	wordpools/wordpool_EN.txt	5	3	BRICK	n/a	BRICK	FOOD	14	[0, 0, 0]	-999	PAL1	0	R1087N
1902.764	4.945	2488852	REC_START	n/a	n/a	5	-999	n/a	n/a	n/a	n/a	14	[0, 0, 0]	-999	PAL1	0	R1087N
1907.709	0.079	2493796	REC_EVENT	4.945	n/a	5	3	BRICK	<>	BRICK	FOOD	14	[0, 0, 0]	-999	PAL1	0	R1087N
1907.788	0.009	2493875	REC_END	n/a	n/a	5	-999	n/a	n/a	n/a	n/a	14	[0, 0, 0]	-999	PAL1	0	R1087N
1907.797	0.275	2493884	TEST_ORIENT	n/a	n/a	6	4	PURSE	n/a	PURSE	TEETH	14	[0, 0, 0]	-999	PAL1	0	R1087N
1908.647	4.0	2494734	TEST_PROBE	n/a	wordpools/wordpool_EN.txt	6	4	PURSE	n/a	PURSE	TEETH	14	[0, 0, 0]	-999	PAL1	0	R1087N
1908.647	4.992	2494734	REC_START	n/a	n/a	6	-999	n/a	n/a	n/a	n/a	14	[0, 0, 0]	-999	PAL1	0	R1087N
1913.639	0.026	2499726	REC_EVENT	4.992	n/a	6	4	PURSE	<>	PURSE	TEETH	14	[0, 0, 0]	-999	PAL1	0	R1087N
1913.665	0.016	2499752	REC_END	n/a	n/a	6	-999	n/a	n/a	n/a	n/a	14	[0, 0, 0]	-999	PAL1	0	R1087N
1913.681	0.275	2499768	TEST_ORIENT	n/a	n/a	3	5	AXE	BEAR	AXE	BEAR	14	[0, 0, 0]	-999	PAL1	0	R1087N
1914.648	4.0	2500735	TEST_PROBE	n/a	wordpools/wordpool_EN.txt	3	5	AXE	BEAR	AXE	BEAR	14	[0, 0, 0]	-999	PAL1	0	R1087N
1914.649	3.227	2500736	REC_START	n/a	n/a	3	-999	n/a	BEAR	n/a	n/a	14	[0, 0, 0]	-999	PAL1	0	R1087N
1917.876	1.797	2503963	REC_EVENT	3.227	n/a	3	5	AXE	BEAR	AXE	BEAR	14	[0, 0, 0]	-999	PAL1	0	R1087N
1919.673	0.009	2505760	REC_END	n/a	n/a	3	-999	n/a	n/a	n/a	n/a	14	[0, 0, 0]	-999	PAL1	0	R1087N
1919.682	0.275	2505769	TEST_ORIENT	n/a	n/a	4	6	DESK	n/a	DESK	BRIDGE	14	[0, 0, 0]	-999	PAL1	0	R1087N
1920.682	4.0	2506769	TEST_PROBE	n/a	wordpools/wordpool_EN.txt	4	6	DESK	n/a	DESK	BRIDGE	14	[0, 0, 0]	-999	PAL1	0	R1087N
1920.683	4.969	2506770	REC_START	n/a	n/a	4	-999	n/a	n/a	n/a	n/a	14	[0, 0, 0]	-999	PAL1	0	R1087N
1925.652	0.066	2511738	REC_EVENT	4.969	n/a	4	6	DESK	<>	DESK	BRIDGE	14	[0, 0, 0]	-999	PAL1	0	R1087N
1925.718	0.032	2511804	REC_END	n/a	n/a	4	-999	n/a	n/a	n/a	n/a	14	[0, 0, 0]	-999	PAL1	0	R1087N
1925.75	41.151	2511836	FEEDBACK_SHOW_ALL_PAIRS	n/a	n/a	4	-999	n/a	n/a	n/a	n/a	14	[0, 0, 0]	-999	PAL1	0	R1087N
1966.901	10.441	2552985	ENCODING_START	n/a	n/a	0	-999	n/a	n/a	n/a	n/a	15	[0, 0, 0]	-999	PAL1	0	R1087N
1977.342	0.275	2563426	STUDY_ORIENT	n/a	n/a	1	1	PET	n/a	PET	WORLD	15	[0, 0, 0]	-999	PAL1	0	R1087N
1978.326	4.0	2564410	STUDY_PAIR	n/a	wordpools/wordpool_EN.txt	1	1	PET	n/a	PET	WORLD	15	[0, 0, 0]	-999	PAL1	0	R1087N
1983.359	0.275	2569443	STUDY_ORIENT	n/a	n/a	2	4	MOON	LIGHT	HEART	MOON	15	[0, 0, 0]	-999	PAL1	0	R1087N
1984.277	4.0	2570361	STUDY_PAIR	n/a	wordpools/wordpool_EN.txt	2	4	MOON	LIGHT	HEART	MOON	15	[0, 0, 0]	-999	PAL1	0	R1087N
1989.311	0.275	2575394	STUDY_ORIENT	n/a	n/a	3	5	BIRD	HOUSE	STAIR	BIRD	15	[0, 0, 0]	-999	PAL1	0	R1087N
1990.128	4.0	2576211	STUDY_PAIR	n/a	wordpools/wordpool_EN.txt	3	5	BIRD	HOUSE	STAIR	BIRD	15	[0, 0, 0]	-999	PAL1	0	R1087N
1995.162	0.275	2581245	STUDY_ORIENT	n/a	n/a	4	6	LEAF	WEAVE	LEAF	BENCH	15	[0, 0, 0]	-999	PAL1	0	R1087N
1996.129	4.0	2582212	STUDY_PAIR	n/a	wordpools/wordpool_EN.txt	4	6	LEAF	WEAVE	LEAF	BENCH	15	[0, 0, 0]	-999	PAL1	0	R1087N
2001.162	0.275	2587245	STUDY_ORIENT	n/a	n/a	5	3	INK	BANK	VASE	INK	15	[0, 0, 0]	-999	PAL1	0	R1087N
2001.946	4.0	2588029	STUDY_PAIR	n/a	wordpools/wordpool_EN.txt	5	3	INK	BANK	VASE	INK	15	[0, 0, 0]	-999	PAL1	0	R1087N
2006.98	0.275	2593062	STUDY_ORIENT	n/a	n/a	6	2	FAN	n/a	WAVE	FAN	15	[0, 0, 0]	-999	PAL1	0	R1087N
2007.864	4.0	2593946	STUDY_PAIR	n/a	wordpools/wordpool_EN.txt	6	2	FAN	n/a	WAVE	FAN	15	[0, 0, 0]	-999	PAL1	0	R1087N
2011.882	0.999	2597964	START	n/a	n/a	-999	-999	n/a	n/a	n/a	n/a	15	[-999, -999, -999]	-999	PAL1	0	R1087N
2012.881	0.017	2598963	MATH_START	n/a	n/a	-999	-999	n/a	n/a	n/a	n/a	15	[0, 0, 0]	-999	PAL1	0	R1087N
2012.898	6.802	2598980	PROB	6.779	n/a	-999	-999	n/a	n/a	n/a	n/a	15	[4, 7, 8]	19	PAL1	0	R1087N
2019.7	4.066	2605782	PROB	4.041	n/a	-999	-999	n/a	n/a	n/a	n/a	15	[8, 5, 5]	18	PAL1	0	R1087N
2023.766	7.852	2609848	PROB	7.831	n/a	-999	-999	n/a	n/a	n/a	n/a	15	[7, 8, 4]	19	PAL1	0	R1087N
2031.618	8.747	2617699	PROB	8.747	n/a	-999	-999	n/a	n/a	n/a	n/a	15	[6, 7, 6]	19	PAL1	0	R1087N
2040.365	0.004	2626446	STOP	n/a	n/a	-999	-999	n/a	n/a	n/a	n/a	15	[-999, -999, -999]	-999	PAL1	0	R1087N
2040.369	0.0	2626450	MATH_END	n/a	n/a	-999	-999	n/a	n/a	n/a	n/a	15	[0, 0, 0]	-999	PAL1	0	R1087N
2040.369	0.017	2626450	TEST_START	n/a	n/a	-999	-999	n/a	n/a	n/a	n/a	15	[0, 0, 0]	-999	PAL1	0	R1087N
2040.386	0.275	2626467	TEST_ORIENT	n/a	n/a	1	1	PET	n/a	PET	WORLD	15	[0, 0, 0]	-999	PAL1	0	R1087N
2041.402	4.0	2627483	TEST_PROBE	n/a	wordpools/wordpool_EN.txt	1	1	PET	n/a	PET	WORLD	15	[0, 0, 0]	-999	PAL1	0	R1087N
2041.403	4.969	2627484	REC_START	n/a	n/a	1	-999	n/a	n/a	n/a	n/a	15	[0, 0, 0]	-999	PAL1	0	R1087N
2046.372	0.056	2632452	REC_EVENT	4.969	n/a	1	1	PET	<>	PET	WORLD	15	[0, 0, 0]	-999	PAL1	0	R1087N
2046.428	0.009	2632508	REC_END	n/a	n/a	1	-999	n/a	n/a	n/a	n/a	15	[0, 0, 0]	-999	PAL1	0	R1087N
2046.437	0.275	2632517	TEST_ORIENT	n/a	n/a	6	2	FAN	n/a	WAVE	FAN	15	[0, 0, 0]	-999	PAL1	0	R1087N
2047.303	4.0	2633383	TEST_PROBE	n/a	wordpools/wordpool_EN.txt	6	2	FAN	n/a	WAVE	FAN	15	[0, 0, 0]	-999	PAL1	0	R1087N
2047.304	3.956	2633384	REC_START	n/a	n/a	6	-999	n/a	n/a	n/a	n/a	15	[0, 0, 0]	-999	PAL1	0	R1087N
2051.26	0.79	2637340	REC_EVENT	3.956	n/a	6	2	FAN	<>	WAVE	FAN	15	[0, 0, 0]	-999	PAL1	0	R1087N
2052.05	0.271	2638130	REC_EVENT	4.746	n/a	6	2	FAN	<>	WAVE	FAN	15	[0, 0, 0]	-999	PAL1	0	R1087N
2052.321	0.017	2638401	REC_END	n/a	n/a	6	-999	n/a	n/a	n/a	n/a	15	[0, 0, 0]	-999	PAL1	0	R1087N
2052.338	0.275	2638418	TEST_ORIENT	n/a	n/a	5	3	INK	BANK	VASE	INK	15	[0, 0, 0]	-999	PAL1	0	R1087N
2053.239	0.0	2639319	REC_START	n/a	n/a	5	-999	n/a	BANK	n/a	n/a	15	[0, 0, 0]	-999	PAL1	0	R1087N
2053.239	4.0	2639319	TEST_PROBE	n/a	wordpools/wordpool_EN.txt	5	3	INK	BANK	VASE	INK	15	[0, 0, 0]	-999	PAL1	0	R1087N
2055.799	1.057	2641879	REC_EVENT	2.56	n/a	5	3	INK	BANK	VASE	INK	15	[0, 0, 0]	-999	PAL1	0	R1087N
2056.856	1.399	2642936	REC_EVENT	3.617	n/a	5	3	INK	<>	VASE	INK	15	[0, 0, 0]	-999	PAL1	0	R1087N
2058.255	0.018	2644335	REC_END	n/a	n/a	5	-999	n/a	n/a	n/a	n/a	15	[0, 0, 0]	-999	PAL1	0	R1087N
2058.273	0.275	2644353	TEST_ORIENT	n/a	n/a	2	4	MOON	LIGHT	HEART	MOON	15	[0, 0, 0]	-999	PAL1	0	R1087N
2059.289	4.0	2645369	TEST_PROBE	n/a	wordpools/wordpool_EN.txt	2	4	MOON	LIGHT	HEART	MOON	15	[0, 0, 0]	-999	PAL1	0	R1087N
2059.289	2.097	2645369	REC_START	n/a	n/a	2	-999	n/a	LIGHT	n/a	n/a	15	[0, 0, 0]	-999	PAL1	0	R1087N
2061.386	2.92	2647466	REC_EVENT	2.097	n/a	2	4	MOON	LIGHT	HEART	MOON	15	[0, 0, 0]	-999	PAL1	0	R1087N
2064.306	0.017	2650386	REC_END	n/a	n/a	2	-999	n/a	n/a	n/a	n/a	15	[0, 0, 0]	-999	PAL1	0	R1087N
2064.323	0.275	2650403	TEST_ORIENT	n/a	n/a	3	5	BIRD	HOUSE	STAIR	BIRD	15	[0, 0, 0]	-999	PAL1	0	R1087N
2065.206	4.0	2651286	TEST_PROBE	n/a	wordpools/wordpool_EN.txt	3	5	BIRD	HOUSE	STAIR	BIRD	15	[0, 0, 0]	-999	PAL1	0	R1087N
2065.207	3.175	2651287	REC_START	n/a	n/a	3	-999	n/a	HOUSE	n/a	n/a	15	[0, 0, 0]	-999	PAL1	0	R1087N
2068.382	0.25	2654461	REC_EVENT	3.175	n/a	3	5	BIRD	BIRD	STAIR	BIRD	15	[0, 0, 0]	-999	PAL1	0	R1087N
2068.632	1.6	2654711	REC_EVENT	3.425	n/a	3	5	BIRD	HOUSE	STAIR	BIRD	15	[0, 0, 0]	-999	PAL1	0	R1087N
2070.232	0.009	2656311	REC_END	n/a	n/a	3	-999	n/a	n/a	n/a	n/a	15	[0, 0, 0]	-999	PAL1	0	R1087N
2070.241	0.275	2656320	TEST_ORIENT	n/a	n/a	4	6	LEAF	WEAVE	LEAF	BENCH	15	[0, 0, 0]	-999	PAL1	0	R1087N
2071.108	4.0	2657187	TEST_PROBE	n/a	wordpools/wordpool_EN.txt	4	6	LEAF	WEAVE	LEAF	BENCH	15	[0, 0, 0]	-999	PAL1	0	R1087N
2071.108	1.41	2657187	REC_START	n/a	n/a	4	-999	n/a	WEAVE	n/a	n/a	15	[0, 0, 0]	-999	PAL1	0	R1087N
2072.518	1.555	2658597	REC_EVENT	1.41	n/a	4	6	LEAF	WEAVE	LEAF	BENCH	15	[0, 0, 0]	-999	PAL1	0	R1087N
2074.073	0.773	2660152	REC_EVENT	2.965	n/a	4	6	LEAF	WEAVE	LEAF	BENCH	15	[0, 0, 0]	-999	PAL1	0	R1087N
2074.846	1.28	2660925	REC_EVENT	3.738	n/a	4	6	LEAF	<>	LEAF	BENCH	15	[0, 0, 0]	-999	PAL1	0	R1087N
2076.126	0.033	2662205	REC_END	n/a	n/a	4	-999	n/a	n/a	n/a	n/a	15	[0, 0, 0]	-999	PAL1	0	R1087N
2076.159	12.534	2662238	FEEDBACK_SHOW_ALL_PAIRS	n/a	n/a	4	-999	n/a	n/a	n/a	n/a	15	[0, 0, 0]	-999	PAL1	0	R1087N
2088.693	10.453	2674771	ENCODING_START	n/a	n/a	0	-999	n/a	n/a	n/a	n/a	16	[0, 0, 0]	-999	PAL1	0	R1087N
2099.146	0.275	2685224	STUDY_ORIENT	n/a	n/a	1	5	SPRING	RAKE	TEA	SPRING	16	[0, 0, 0]	-999	PAL1	0	R1087N
2100.13	4.0	2686208	STUDY_PAIR	n/a	wordpools/wordpool_EN.txt	1	5	SPRING	RAKE	TEA	SPRING	16	[0, 0, 0]	-999	PAL1	0	R1087N
2105.164	0.275	2691242	STUDY_ORIENT	n/a	n/a	2	4	TAIL	OWL	TAIL	PALM	16	[0, 0, 0]	-999	PAL1	0	R1087N
2106.114	4.0	2692191	STUDY_PAIR	n/a	wordpools/wordpool_EN.txt	2	4	TAIL	OWL	TAIL	PALM	16	[0, 0, 0]	-999	PAL1	0	R1087N
2111.148	0.275	2697225	STUDY_ORIENT	n/a	n/a	3	3	CLOTH	n/a	SPARK	CLOTH	16	[0, 0, 0]	-999	PAL1	0	R1087N
2111.964	4.0	2698041	STUDY_PAIR	n/a	wordpools/wordpool_EN.txt	3	3	CLOTH	n/a	SPARK	CLOTH	16	[0, 0, 0]	-999	PAL1	0	R1087N
2116.999	0.275	2703076	STUDY_ORIENT	n/a	n/a	4	6	ANT	n/a	ICE	ANT	16	[0, 0, 0]	-999	PAL1	0	R1087N
2117.966	4.0	2704043	STUDY_PAIR	n/a	wordpools/wordpool_EN.txt	4	6	ANT	n/a	ICE	ANT	16	[0, 0, 0]	-999	PAL1	0	R1087N
2123.0	0.275	2709077	STUDY_ORIENT	n/a	n/a	5	1	RAKE	SNAKE	BLOOM	RAKE	16	[0, 0, 0]	-999	PAL1	0	R1087N
2124.0	4.0	2710077	STUDY_PAIR	n/a	wordpools/wordpool_EN.txt	5	1	RAKE	SNAKE	BLOOM	RAKE	16	[0, 0, 0]	-999	PAL1	0	R1087N
2129.034	0.275	2715110	STUDY_ORIENT	n/a	n/a	6	2	HAND	PLANT	SNAIL	HAND	16	[0, 0, 0]	-999	PAL1	0	R1087N
2130.052	4.0	2716128	STUDY_PAIR	n/a	wordpools/wordpool_EN.txt	6	2	HAND	PLANT	SNAIL	HAND	16	[0, 0, 0]	-999	PAL1	0	R1087N
2134.069	0.999	2720145	START	n/a	n/a	-999	-999	n/a	n/a	n/a	n/a	16	[-999, -999, -999]	-999	PAL1	0	R1087N
2135.068	0.017	2721144	MATH_START	n/a	n/a	-999	-999	n/a	n/a	n/a	n/a	16	[0, 0, 0]	-999	PAL1	0	R1087N
2135.085	11.786	2721161	PROB	11.76	n/a	-999	-999	n/a	n/a	n/a	n/a	16	[8, 9, 1]	18	PAL1	0	R1087N
2146.871	6.101	2732946	PROB	6.078	n/a	-999	-999	n/a	n/a	n/a	n/a	16	[2, 6, 5]	13	PAL1	0	R1087N
2152.972	2.889	2739047	PROB	2.889	n/a	-999	-999	n/a	n/a	n/a	n/a	16	[7, 7, 7]	21	PAL1	0	R1087N
2155.861	0.011	2741936	STOP	n/a	n/a	-999	-999	n/a	n/a	n/a	n/a	16	[-999, -999, -999]	-999	PAL1	0	R1087N
2155.872	0.0	2741947	TEST_START	n/a	n/a	-999	-999	n/a	n/a	n/a	n/a	16	[0, 0, 0]	-999	PAL1	0	R1087N
2155.872	0.016	2741947	MATH_END	n/a	n/a	-999	-999	n/a	n/a	n/a	n/a	16	[0, 0, 0]	-999	PAL1	0	R1087N
2155.888	0.275	2741963	TEST_ORIENT	n/a	n/a	5	1	RAKE	SNAKE	BLOOM	RAKE	16	[0, 0, 0]	-999	PAL1	0	R1087N
2156.872	4.0	2742947	TEST_PROBE	n/a	wordpools/wordpool_EN.txt	5	1	RAKE	SNAKE	BLOOM	RAKE	16	[0, 0, 0]	-999	PAL1	0	R1087N
2156.872	4.388	2742947	REC_START	n/a	n/a	5	-999	n/a	SNAKE	n/a	n/a	16	[0, 0, 0]	-999	PAL1	0	R1087N
2161.26	0.63	2747335	REC_EVENT	4.388	n/a	5	1	RAKE	SNAKE	BLOOM	RAKE	16	[0, 0, 0]	-999	PAL1	0	R1087N
2161.89	0.016	2747965	REC_END	n/a	n/a	5	-999	n/a	n/a	n/a	n/a	16	[0, 0, 0]	-999	PAL1	0	R1087N
2161.906	0.275	2747981	TEST_ORIENT	n/a	n/a	6	2	HAND	PLANT	SNAIL	HAND	16	[0, 0, 0]	-999	PAL1	0	R1087N
2162.923	4.0	2748998	TEST_PROBE	n/a	wordpools/wordpool_EN.txt	6	2	HAND	PLANT	SNAIL	HAND	16	[0, 0, 0]	-999	PAL1	0	R1087N
2162.924	2.898	2748999	REC_START	n/a	n/a	6	-999	n/a	PLANT	n/a	n/a	16	[0, 0, 0]	-999	PAL1	0	R1087N
2165.822	0.561	2751896	REC_EVENT	2.898	n/a	6	2	HAND	PLANT	SNAIL	HAND	16	[0, 0, 0]	-999	PAL1	0	R1087N
2166.383	1.566	2752457	REC_EVENT	3.459	n/a	6	2	HAND	<>	SNAIL	HAND	16	[0, 0, 0]	-999	PAL1	0	R1087N
2167.949	0.008	2754023	REC_END	n/a	n/a	6	-999	n/a	n/a	n/a	n/a	16	[0, 0, 0]	-999	PAL1	0	R1087N
2167.957	0.275	2754031	TEST_ORIENT	n/a	n/a	3	3	CLOTH	n/a	SPARK	CLOTH	16	[0, 0, 0]	-999	PAL1	0	R1087N
2168.957	4.0	2755031	TEST_PROBE	n/a	wordpools/wordpool_EN.txt	3	3	CLOTH	n/a	SPARK	CLOTH	16	[0, 0, 0]	-999	PAL1	0	R1087N
2168.958	3.526	2755032	REC_START	n/a	n/a	3	-999	n/a	n/a	n/a	n/a	16	[0, 0, 0]	-999	PAL1	0	R1087N
2172.484	1.087	2758558	REC_EVENT	3.526	n/a	3	3	CLOTH	<>	SPARK	CLOTH	16	[0, 0, 0]	-999	PAL1	0	R1087N
2173.571	0.412	2759645	REC_EVENT	4.613	n/a	3	3	CLOTH	<>	SPARK	CLOTH	16	[0, 0, 0]	-999	PAL1	0	R1087N
2173.983	0.008	2760057	REC_END	n/a	n/a	3	-999	n/a	n/a	n/a	n/a	16	[0, 0, 0]	-999	PAL1	0	R1087N
2173.991	0.275	2760065	TEST_ORIENT	n/a	n/a	2	4	TAIL	OWL	TAIL	PALM	16	[0, 0, 0]	-999	PAL1	0	R1087N
2174.876	4.0	2760950	TEST_PROBE	n/a	wordpools/wordpool_EN.txt	2	4	TAIL	OWL	TAIL	PALM	16	[0, 0, 0]	-999	PAL1	0	R1087N
2174.877	2.156	2760951	REC_START	n/a	n/a	2	-999	n/a	OWL	n/a	n/a	16	[0, 0, 0]	-999	PAL1	0	R1087N
2177.033	1.996	2763107	REC_EVENT	2.156	n/a	2	4	TAIL	OWL	TAIL	PALM	16	[0, 0, 0]	-999	PAL1	0	R1087N
2179.029	0.872	2765103	REC_EVENT	4.152	n/a	2	4	TAIL	<>	TAIL	PALM	16	[0, 0, 0]	-999	PAL1	0	R1087N
2179.901	0.008	2765975	REC_END	n/a	n/a	2	-999	n/a	n/a	n/a	n/a	16	[0, 0, 0]	-999	PAL1	0	R1087N
2179.909	0.275	2765983	TEST_ORIENT	n/a	n/a	1	5	SPRING	RAKE	TEA	SPRING	16	[0, 0, 0]	-999	PAL1	0	R1087N
2180.826	4.0	2766900	TEST_PROBE	n/a	wordpools/wordpool_EN.txt	1	5	SPRING	RAKE	TEA	SPRING	16	[0, 0, 0]	-999	PAL1	0	R1087N
2180.826	2.981	2766900	REC_START	n/a	n/a	1	-999	n/a	RAKE	n/a	n/a	16	[0, 0, 0]	-999	PAL1	0	R1087N
2183.807	2.036	2769881	REC_EVENT	2.981	n/a	1	5	SPRING	RAKE	TEA	SPRING	16	[0, 0, 0]	-999	PAL1	0	R1087N
2185.843	0.017	2771916	REC_END	n/a	n/a	1	-999	n/a	n/a	n/a	n/a	16	[0, 0, 0]	-999	PAL1	0	R1087N
2185.86	0.275	2771933	TEST_ORIENT	n/a	n/a	4	6	ANT	n/a	ICE	ANT	16	[0, 0, 0]	-999	PAL1	0	R1087N
2186.66	4.0	2772733	TEST_PROBE	n/a	wordpools/wordpool_EN.txt	4	6	ANT	n/a	ICE	ANT	16	[0, 0, 0]	-999	PAL1	0	R1087N
2186.661	4.922	2772734	REC_START	n/a	n/a	4	-999	n/a	n/a	n/a	n/a	16	[0, 0, 0]	-999	PAL1	0	R1087N
2191.583	0.095	2777656	REC_EVENT	4.922	n/a	4	6	ANT	<>	ICE	ANT	16	[0, 0, 0]	-999	PAL1	0	R1087N
2191.678	0.034	2777751	REC_END	n/a	n/a	4	-999	n/a	n/a	n/a	n/a	16	[0, 0, 0]	-999	PAL1	0	R1087N
2191.712	30.525	2777785	FEEDBACK_SHOW_ALL_PAIRS	n/a	n/a	4	-999	n/a	n/a	n/a	n/a	16	[0, 0, 0]	-999	PAL1	0	R1087N
2222.237	10.448	2808309	ENCODING_START	n/a	n/a	0	-999	n/a	n/a	n/a	n/a	17	[0, 0, 0]	-999	PAL1	0	R1087N
2232.685	0.275	2818756	STUDY_ORIENT	n/a	n/a	1	3	GOLD	n/a	ROOM	GOLD	17	[0, 0, 0]	-999	PAL1	0	R1087N
2233.635	4.0	2819706	STUDY_PAIR	n/a	wordpools/wordpool_EN.txt	1	3	GOLD	n/a	ROOM	GOLD	17	[0, 0, 0]	-999	PAL1	0	R1087N
2238.67	0.275	2824741	STUDY_ORIENT	n/a	n/a	2	2	SOUP	PEA	PEA	SOUP	17	[0, 0, 0]	-999	PAL1	0	R1087N
2239.636	4.0	2825707	STUDY_PAIR	n/a	wordpools/wordpool_EN.txt	2	2	SOUP	PEA	PEA	SOUP	17	[0, 0, 0]	-999	PAL1	0	R1087N
2244.671	0.275	2830742	STUDY_ORIENT	n/a	n/a	3	5	VINE	n/a	PIPE	VINE	17	[0, 0, 0]	-999	PAL1	0	R1087N
2245.621	4.0	2831692	STUDY_PAIR	n/a	wordpools/wordpool_EN.txt	3	5	VINE	n/a	PIPE	VINE	17	[0, 0, 0]	-999	PAL1	0	R1087N
2250.655	0.275	2836725	STUDY_ORIENT	n/a	n/a	4	6	CLOUD	DUST	CLOUD	MOTH	17	[0, 0, 0]	-999	PAL1	0	R1087N
2251.571	4.0	2837641	STUDY_PAIR	n/a	wordpools/wordpool_EN.txt	4	6	CLOUD	DUST	CLOUD	MOTH	17	[0, 0, 0]	-999	PAL1	0	R1087N
2256.606	0.275	2842676	STUDY_ORIENT	n/a	n/a	5	1	TREE	n/a	TREE	STREET	17	[0, 0, 0]	-999	PAL1	0	R1087N
2257.622	4.0	2843692	STUDY_PAIR	n/a	wordpools/wordpool_EN.txt	5	1	TREE	n/a	TREE	STREET	17	[0, 0, 0]	-999	PAL1	0	R1087N
2262.656	0.275	2848726	STUDY_ORIENT	n/a	n/a	6	4	COUCH	n/a	COUCH	FROG	17	[0, 0, 0]	-999	PAL1	0	R1087N
2263.523	4.0	2849593	STUDY_PAIR	n/a	wordpools/wordpool_EN.txt	6	4	COUCH	n/a	COUCH	FROG	17	[0, 0, 0]	-999	PAL1	0	R1087N
2267.542	0.999	2853611	START	n/a	n/a	-999	-999	n/a	n/a	n/a	n/a	17	[-999, -999, -999]	-999	PAL1	0	R1087N
2268.541	0.017	2854610	MATH_START	n/a	n/a	-999	-999	n/a	n/a	n/a	n/a	17	[0, 0, 0]	-999	PAL1	0	R1087N
2268.558	9.152	2854627	PROB	9.119	n/a	-999	-999	n/a	n/a	n/a	n/a	17	[1, 6, 5]	12	PAL1	0	R1087N
2277.71	6.384	2863779	PROB	6.351	n/a	-999	-999	n/a	n/a	n/a	n/a	17	[4, 3, 8]	14	PAL1	0	R1087N
2284.094	5.047	2870163	PROB	5.047	n/a	-999	-999	n/a	n/a	n/a	n/a	17	[8, 8, 5]	21	PAL1	0	R1087N
2289.141	0.004	2875209	STOP	n/a	n/a	-999	-999	n/a	n/a	n/a	n/a	17	[-999, -999, -999]	-999	PAL1	0	R1087N
2289.145	0.0	2875213	MATH_END	n/a	n/a	-999	-999	n/a	n/a	n/a	n/a	17	[0, 0, 0]	-999	PAL1	0	R1087N
2289.145	0.016	2875213	TEST_START	n/a	n/a	-999	-999	n/a	n/a	n/a	n/a	17	[0, 0, 0]	-999	PAL1	0	R1087N
2289.161	0.275	2875229	TEST_ORIENT	n/a	n/a	5	1	TREE	n/a	TREE	STREET	17	[0, 0, 0]	-999	PAL1	0	R1087N
2289.995	4.0	2876063	TEST_PROBE	n/a	wordpools/wordpool_EN.txt	5	1	TREE	n/a	TREE	STREET	17	[0, 0, 0]	-999	PAL1	0	R1087N
2289.996	4.969	2876064	REC_START	n/a	n/a	5	-999	n/a	n/a	n/a	n/a	17	[0, 0, 0]	-999	PAL1	0	R1087N
2294.965	0.055	2881033	REC_EVENT	4.969	n/a	5	1	TREE	<>	TREE	STREET	17	[0, 0, 0]	-999	PAL1	0	R1087N
2295.02	0.009	2881088	REC_END	n/a	n/a	5	-999	n/a	n/a	n/a	n/a	17	[0, 0, 0]	-999	PAL1	0	R1087N
2295.029	0.275	2881097	TEST_ORIENT	n/a	n/a	2	2	SOUP	PEA	PEA	SOUP	17	[0, 0, 0]	-999	PAL1	0	R1087N
2295.846	4.0	2881914	TEST_PROBE	n/a	wordpools/wordpool_EN.txt	2	2	SOUP	PEA	PEA	SOUP	17	[0, 0, 0]	-999	PAL1	0	R1087N
2295.847	2.834	2881915	REC_START	n/a	n/a	2	-999	n/a	PEA	n/a	n/a	17	[0, 0, 0]	-999	PAL1	0	R1087N
2298.681	2.19	2884749	REC_EVENT	2.834	n/a	2	2	SOUP	PEA	PEA	SOUP	17	[0, 0, 0]	-999	PAL1	0	R1087N
2300.871	0.009	2886939	REC_END	n/a	n/a	2	-999	n/a	n/a	n/a	n/a	17	[0, 0, 0]	-999	PAL1	0	R1087N
2300.88	0.275	2886948	TEST_ORIENT	n/a	n/a	1	3	GOLD	n/a	ROOM	GOLD	17	[0, 0, 0]	-999	PAL1	0	R1087N
2301.813	4.0	2887881	TEST_PROBE	n/a	wordpools/wordpool_EN.txt	1	3	GOLD	n/a	ROOM	GOLD	17	[0, 0, 0]	-999	PAL1	0	R1087N
2301.814	4.969	2887882	REC_START	n/a	n/a	1	-999	n/a	n/a	n/a	n/a	17	[0, 0, 0]	-999	PAL1	0	R1087N
2306.783	0.048	2892850	REC_EVENT	4.969	n/a	1	3	GOLD	<>	ROOM	GOLD	17	[0, 0, 0]	-999	PAL1	0	R1087N
2306.831	0.016	2892898	REC_END	n/a	n/a	1	-999	n/a	n/a	n/a	n/a	17	[0, 0, 0]	-999	PAL1	0	R1087N
2306.847	0.275	2892914	TEST_ORIENT	n/a	n/a	6	4	COUCH	n/a	COUCH	FROG	17	[0, 0, 0]	-999	PAL1	0	R1087N
2307.665	4.0	2893732	TEST_PROBE	n/a	wordpools/wordpool_EN.txt	6	4	COUCH	n/a	COUCH	FROG	17	[0, 0, 0]	-999	PAL1	0	R1087N
2307.666	4.969	2893733	REC_START	n/a	n/a	6	-999	n/a	n/a	n/a	n/a	17	[0, 0, 0]	-999	PAL1	0	R1087N
2312.635	0.055	2898702	REC_EVENT	4.969	n/a	6	4	COUCH	<>	COUCH	FROG	17	[0, 0, 0]	-999	PAL1	0	R1087N
2312.69	0.008	2898757	REC_END	n/a	n/a	6	-999	n/a	n/a	n/a	n/a	17	[0, 0, 0]	-999	PAL1	0	R1087N
2312.698	0.275	2898765	TEST_ORIENT	n/a	n/a	3	5	VINE	n/a	PIPE	VINE	17	[0, 0, 0]	-999	PAL1	0	R1087N
2313.515	4.0	2899582	TEST_PROBE	n/a	wordpools/wordpool_EN.txt	3	5	VINE	n/a	PIPE	VINE	17	[0, 0, 0]	-999	PAL1	0	R1087N
2313.516	2.986	2899583	REC_START	n/a	n/a	3	-999	n/a	n/a	n/a	n/a	17	[0, 0, 0]	-999	PAL1	0	R1087N
2316.502	2.03	2902569	REC_EVENT	2.986	n/a	3	5	VINE	<>	PIPE	VINE	17	[0, 0, 0]	-999	PAL1	0	R1087N
2318.532	0.018	2904599	REC_END	n/a	n/a	3	-999	n/a	n/a	n/a	n/a	17	[0, 0, 0]	-999	PAL1	0	R1087N
2318.55	0.275	2904617	TEST_ORIENT	n/a	n/a	4	6	CLOUD	DUST	CLOUD	MOTH	17	[0, 0, 0]	-999	PAL1	0	R1087N
2319.433	4.0	2905500	TEST_PROBE	n/a	wordpools/wordpool_EN.txt	4	6	CLOUD	DUST	CLOUD	MOTH	17	[0, 0, 0]	-999	PAL1	0	R1087N
2319.434	2.636	2905501	REC_START	n/a	n/a	4	-999	n/a	DUST	n/a	n/a	17	[0, 0, 0]	-999	PAL1	0	R1087N
2322.07	2.388	2908137	REC_EVENT	2.636	n/a	4	6	CLOUD	DUST	CLOUD	MOTH	17	[0, 0, 0]	-999	PAL1	0	R1087N
2324.458	0.026	2910525	REC_END	n/a	n/a	4	-999	n/a	n/a	n/a	n/a	17	[0, 0, 0]	-999	PAL1	0	R1087N
2324.484	14.489	2910551	FEEDBACK_SHOW_ALL_PAIRS	n/a	n/a	4	-999	n/a	n/a	n/a	n/a	17	[0, 0, 0]	-999	PAL1	0	R1087N
2338.973	10.449	2925039	ENCODING_START	n/a	n/a	0	-999	n/a	n/a	n/a	n/a	18	[0, 0, 0]	-999	PAL1	0	R1087N
2349.422	0.275	2935487	STUDY_ORIENT	n/a	n/a	1	3	ZOO	PET	ZOO	BAT	18	[0, 0, 0]	-999	PAL1	0	R1087N
2350.322	4.0	2936387	STUDY_PAIR	n/a	wordpools/wordpool_EN.txt	1	3	ZOO	PET	ZOO	BAT	18	[0, 0, 0]	-999	PAL1	0	R1087N
2355.356	0.275	2941421	STUDY_ORIENT	n/a	n/a	2	2	EGG	n/a	EGG	BOOT	18	[0, 0, 0]	-999	PAL1	0	R1087N
2356.189	4.0	2942254	STUDY_PAIR	n/a	wordpools/wordpool_EN.txt	2	2	EGG	n/a	EGG	BOOT	18	[0, 0, 0]	-999	PAL1	0	R1087N
2361.223	0.275	2947288	STUDY_ORIENT	n/a	n/a	3	1	JEEP	n/a	JEEP	ARK	18	[0, 0, 0]	-999	PAL1	0	R1087N
2362.14	4.0	2948205	STUDY_PAIR	n/a	wordpools/wordpool_EN.txt	3	1	JEEP	n/a	JEEP	ARK	18	[0, 0, 0]	-999	PAL1	0	R1087N
2367.174	0.275	2953238	STUDY_ORIENT	n/a	n/a	4	6	BRUSH	RAKE	BRUSH	PLANT	18	[0, 0, 0]	-999	PAL1	0	R1087N
2368.075	4.0	2954139	STUDY_PAIR	n/a	wordpools/wordpool_EN.txt	4	6	BRUSH	RAKE	BRUSH	PLANT	18	[0, 0, 0]	-999	PAL1	0	R1087N
2373.109	0.275	2959173	STUDY_ORIENT	n/a	n/a	5	5	MAZE	JEEP	MAZE	MUG	18	[0, 0, 0]	-999	PAL1	0	R1087N
2374.092	4.0	2960156	STUDY_PAIR	n/a	wordpools/wordpool_EN.txt	5	5	MAZE	JEEP	MAZE	MUG	18	[0, 0, 0]	-999	PAL1	0	R1087N
2379.126	0.275	2965190	STUDY_ORIENT	n/a	n/a	6	4	YARD	RAKE	YARD	SHEET	18	[0, 0, 0]	-999	PAL1	0	R1087N
2379.943	4.0	2966007	STUDY_PAIR	n/a	wordpools/wordpool_EN.txt	6	4	YARD	RAKE	YARD	SHEET	18	[0, 0, 0]	-999	PAL1	0	R1087N
2383.961	0.999	2970025	START	n/a	n/a	-999	-999	n/a	n/a	n/a	n/a	18	[-999, -999, -999]	-999	PAL1	0	R1087N
2384.96	0.017	2971024	MATH_START	n/a	n/a	-999	-999	n/a	n/a	n/a	n/a	18	[0, 0, 0]	-999	PAL1	0	R1087N
2384.977	6.435	2971041	PROB	6.412	n/a	-999	-999	n/a	n/a	n/a	n/a	18	[1, 2, 6]	9	PAL1	0	R1087N
2391.412	8.401	2977475	PROB	8.369	n/a	-999	-999	n/a	n/a	n/a	n/a	18	[8, 1, 7]	16	PAL1	0	R1087N
2399.813	5.28	2985876	PROB	5.28	n/a	-999	-999	n/a	n/a	n/a	n/a	18	[3, 7, 5]	15	PAL1	0	R1087N
2405.093	0.005	2991156	STOP	n/a	n/a	-999	-999	n/a	n/a	n/a	n/a	18	[-999, -999, -999]	-999	PAL1	0	R1087N
2405.098	0.0	2991161	TEST_START	n/a	n/a	-999	-999	n/a	n/a	n/a	n/a	18	[0, 0, 0]	-999	PAL1	0	R1087N
2405.098	0.017	2991161	MATH_END	n/a	n/a	-999	-999	n/a	n/a	n/a	n/a	18	[0, 0, 0]	-999	PAL1	0	R1087N
2405.115	0.275	2991178	TEST_ORIENT	n/a	n/a	3	1	JEEP	n/a	JEEP	ARK	18	[0, 0, 0]	-999	PAL1	0	R1087N
2405.948	4.0	2992011	TEST_PROBE	n/a	wordpools/wordpool_EN.txt	3	1	JEEP	n/a	JEEP	ARK	18	[0, 0, 0]	-999	PAL1	0	R1087N
2405.948	4.489	2992011	REC_START	n/a	n/a	3	-999	n/a	n/a	n/a	n/a	18	[0, 0, 0]	-999	PAL1	0	R1087N
2410.437	0.528	2996499	REC_EVENT	4.489	n/a	3	1	JEEP	<>	JEEP	ARK	18	[0, 0, 0]	-999	PAL1	0	R1087N
2410.965	0.017	2997027	REC_END	n/a	n/a	3	-999	n/a	n/a	n/a	n/a	18	[0, 0, 0]	-999	PAL1	0	R1087N
2410.982	0.275	2997044	TEST_ORIENT	n/a	n/a	2	2	EGG	n/a	EGG	BOOT	18	[0, 0, 0]	-999	PAL1	0	R1087N
2411.949	4.0	2998011	TEST_PROBE	n/a	wordpools/wordpool_EN.txt	2	2	EGG	n/a	EGG	BOOT	18	[0, 0, 0]	-999	PAL1	0	R1087N
2411.95	2.865	2998012	REC_START	n/a	n/a	2	-999	n/a	n/a	n/a	n/a	18	[0, 0, 0]	-999	PAL1	0	R1087N
2414.815	1.022	3000877	REC_EVENT	2.865	n/a	2	2	EGG	<>	EGG	BOOT	18	[0, 0, 0]	-999	PAL1	0	R1087N
2415.837	1.136	3001899	REC_EVENT	3.887	n/a	2	2	EGG	<>	EGG	BOOT	18	[0, 0, 0]	-999	PAL1	0	R1087N
2416.973	0.01	3003035	REC_END	n/a	n/a	2	-999	n/a	n/a	n/a	n/a	18	[0, 0, 0]	-999	PAL1	0	R1087N
2416.983	0.275	3003045	TEST_ORIENT	n/a	n/a	1	3	ZOO	PET	ZOO	BAT	18	[0, 0, 0]	-999	PAL1	0	R1087N
2417.95	4.0	3004012	TEST_PROBE	n/a	wordpools/wordpool_EN.txt	1	3	ZOO	PET	ZOO	BAT	18	[0, 0, 0]	-999	PAL1	0	R1087N
2417.95	2.342	3004012	REC_START	n/a	n/a	1	-999	n/a	PET	n/a	n/a	18	[0, 0, 0]	-999	PAL1	0	R1087N
2420.292	2.676	3006354	REC_EVENT	2.342	n/a	1	3	ZOO	PET	ZOO	BAT	18	[0, 0, 0]	-999	PAL1	0	R1087N
2422.968	0.016	3009030	REC_END	n/a	n/a	1	-999	n/a	n/a	n/a	n/a	18	[0, 0, 0]	-999	PAL1	0	R1087N
2422.984	0.275	3009046	TEST_ORIENT	n/a	n/a	6	4	YARD	RAKE	YARD	SHEET	18	[0, 0, 0]	-999	PAL1	0	R1087N
2423.951	0.0	3010013	REC_START	n/a	n/a	6	-999	n/a	RAKE	n/a	n/a	18	[0, 0, 0]	-999	PAL1	0	R1087N
2423.951	4.0	3010013	TEST_PROBE	n/a	wordpools/wordpool_EN.txt	6	4	YARD	RAKE	YARD	SHEET	18	[0, 0, 0]	-999	PAL1	0	R1087N
