onset	duration	sample	trial_type	response_time	stim_file	serialpos	probepos	probe_word	resp_word	study_1	study_2	list	test	answer	experiment	session	subject
0.0	56.968	1481	INSTRUCT_START	n/a	n/a	-999	-999	n/a	n/a	n/a	n/a	-1	[0, 0, 0]	-999	PAL1	3	R1312N
56.968	5.15	58448	INSTRUCT_END	n/a	n/a	-999	-999	n/a	n/a	n/a	n/a	-1	[0, 0, 0]	-999	PAL1	3	R1312N
62.118	12.187	63598	MIC TEST_START	n/a	n/a	-999	-999	n/a	n/a	n/a	n/a	-1	[0, 0, 0]	-999	PAL1	3	R1312N
74.305	0.013	75784	MIC TEST_END	n/a	n/a	-999	-999	n/a	n/a	n/a	n/a	-1	[0, 0, 0]	-999	PAL1	3	R1312N
74.318	0.0	75797	TRIAL_START	n/a	n/a	-999	-999	n/a	n/a	n/a	n/a	-1	[0, 0, 0]	-999	PAL1	3	R1312N
74.318	0.0	75797	TRIAL	n/a	n/a	-999	-999	n/a	n/a	n/a	n/a	-1	[0, 0, 0]	-999	PAL1	3	R1312N
74.318	5.154	75797	WAITING_START	n/a	n/a	-999	-999	n/a	n/a	n/a	n/a	-1	[0, 0, 0]	-999	PAL1	3	R1312N
79.472	0.0	80951	WAITING_END	n/a	n/a	-999	-999	n/a	n/a	n/a	n/a	-1	[0, 0, 0]	-999	PAL1	3	R1312N
79.472	10.43	80951	COUNTDOWN_START	n/a	n/a	-999	-999	n/a	n/a	n/a	n/a	-1	[0, 0, 0]	-999	PAL1	3	R1312N
89.902	0.001	91381	COUNTDOWN_END	n/a	n/a	-999	-999	n/a	n/a	n/a	n/a	-1	[0, 0, 0]	-999	PAL1	3	R1312N
89.903	0.638	91382	ORIENT_START	n/a	n/a	-999	-999	n/a	n/a	n/a	n/a	-1	[0, 0, 0]	-999	PAL1	3	R1312N
90.541	0.001	92020	ORIENT_END	n/a	n/a	-999	-999	n/a	n/a	n/a	n/a	-1	[0, 0, 0]	-999	PAL1	3	R1312N
90.542	1.033	92021	ENCODING_START	n/a	n/a	-999	-999	n/a	n/a	n/a	n/a	-1	[0, 0, 0]	-999	PAL1	3	R1312N
91.575	4.033	93054	STUDY_PAIR	n/a	n/a	1	-999	n/a	FLOOD	IMAGE	FLOOD	-1	[0, 0, 0]	-999	PAL1	3	R1312N
95.608	0.641	97087	STUDY_PAIR_OFF	n/a	n/a	1	-999	n/a	FLOOD	IMAGE	FLOOD	-1	[0, 0, 0]	-999	PAL1	3	R1312N
96.249	4.025	97727	STUDY_PAIR	n/a	n/a	2	-999	n/a	BABY	RHINO	BEAM	-1	[0, 0, 0]	-999	PAL1	3	R1312N
100.274	0.639	101752	STUDY_PAIR_OFF	n/a	n/a	2	-999	n/a	BABY	RHINO	BEAM	-1	[0, 0, 0]	-999	PAL1	3	R1312N
100.913	4.012	102391	STUDY_PAIR	n/a	n/a	3	-999	n/a	WAGON	WAGON	TONGUE	-1	[0, 0, 0]	-999	PAL1	3	R1312N
104.925	0.5	106403	STUDY_PAIR_OFF	n/a	n/a	3	-999	n/a	WAGON	WAGON	TONGUE	-1	[0, 0, 0]	-999	PAL1	3	R1312N
105.425	4.035	106903	STUDY_PAIR	n/a	n/a	4	-999	n/a	COTTON	COTTON	CHEST	-1	[0, 0, 0]	-999	PAL1	3	R1312N
109.46	0.518	110938	STUDY_PAIR_OFF	n/a	n/a	4	-999	n/a	COTTON	COTTON	CHEST	-1	[0, 0, 0]	-999	PAL1	3	R1312N
109.978	4.032	111456	STUDY_PAIR	n/a	n/a	5	-999	n/a	RAIN	RING	WATCH	-1	[0, 0, 0]	-999	PAL1	3	R1312N
114.01	0.645	115488	STUDY_PAIR_OFF	n/a	n/a	5	-999	n/a	RAIN	RING	WATCH	-1	[0, 0, 0]	-999	PAL1	3	R1312N
114.655	4.022	116133	STUDY_PAIR	n/a	n/a	6	-999	n/a	CHANNEL	BABY	CAMEL	-1	[0, 0, 0]	-999	PAL1	3	R1312N
118.677	0.001	120155	STUDY_PAIR_OFF	n/a	n/a	6	-999	n/a	CHANNEL	BABY	CAMEL	-1	[0, 0, 0]	-999	PAL1	3	R1312N
118.678	0.0	120156	ENCODING_END	n/a	n/a	-999	-999	n/a	n/a	n/a	n/a	-1	[0, 0, 0]	-999	PAL1	3	R1312N
118.678	0.0	120156	MATH_START	n/a	n/a	-999	-999	n/a	n/a	n/a	n/a	-1	[0, 0, 0]	-999	PAL1	3	R1312N
118.678	0.016	120156	START	n/a	n/a	-999	-999	n/a	n/a	n/a	n/a	-1	[-999, -999, -999]	-999	PAL1	3	R1312N
118.694	6.735	120172	PROB	6711	n/a	-999	-999	n/a	n/a	n/a	n/a	-1	[9, 5, 2]	16	PAL1	3	R1312N
125.429	5.6	126907	PROB	5567	n/a	-999	-999	n/a	n/a	n/a	n/a	-1	[8, 3, 9]	21	PAL1	3	R1312N
131.029	11.799	132506	PROB	11799	n/a	-999	-999	n/a	n/a	n/a	n/a	-1	[6, 7, 8]	21	PAL1	3	R1312N
142.828	0.02	144305	STOP	n/a	n/a	-999	-999	n/a	n/a	n/a	n/a	-1	[-999, -999, -999]	-999	PAL1	3	R1312N
142.848	0.502	144325	MATH_END	n/a	n/a	-999	-999	n/a	n/a	n/a	n/a	-1	[0, 0, 0]	-999	PAL1	3	R1312N
143.35	0.001	144827	RETRIEVAL_START	n/a	n/a	-999	-999	n/a	n/a	n/a	n/a	-1	[0, 0, 0]	-999	PAL1	3	R1312N
143.351	0.281	144828	ORIENT_START	n/a	n/a	-999	-999	n/a	n/a	n/a	n/a	-1	[0, 0, 0]	-999	PAL1	3	R1312N
143.632	0.505	145109	ORIENT_END	n/a	n/a	-999	-999	n/a	n/a	n/a	n/a	-1	[0, 0, 0]	-999	PAL1	3	R1312N
144.137	0.0	145614	REC_START	n/a	n/a	3	1	TONGUE	WAGON	WAGON	TONGUE	-1	[0, 0, 0]	-999	PAL1	3	R1312N
144.137	3.277	145614	PROBE_START	n/a	n/a	3	1	TONGUE	WAGON	WAGON	TONGUE	-1	[0, 0, 0]	-999	PAL1	3	R1312N
147.414	0.752	148891	REC_EVENT	3277	n/a	3	1	TONGUE	WAGON	WAGON	TONGUE	-1	[0, 0, 0]	-999	PAL1	3	R1312N
148.166	0.999	149643	PROBE_END	n/a	n/a	3	1	TONGUE	n/a	WAGON	TONGUE	-1	[0, 0, 0]	-999	PAL1	3	R1312N
149.165	0.012	150642	REC_END	n/a	n/a	3	1	TONGUE	n/a	WAGON	TONGUE	-1	[0, 0, 0]	-999	PAL1	3	R1312N
149.177	0.273	150654	ORIENT_START	n/a	n/a	-999	-999	n/a	n/a	n/a	n/a	-1	[0, 0, 0]	-999	PAL1	3	R1312N
149.45	0.687	150927	ORIENT_END	n/a	n/a	-999	-999	n/a	n/a	n/a	n/a	-1	[0, 0, 0]	-999	PAL1	3	R1312N
150.137	0.0	151614	REC_START	n/a	n/a	4	2	CHEST	COTTON	COTTON	CHEST	-1	[0, 0, 0]	-999	PAL1	3	R1312N
150.137	2.542	151614	PROBE_START	n/a	n/a	4	2	CHEST	COTTON	COTTON	CHEST	-1	[0, 0, 0]	-999	PAL1	3	R1312N
152.679	1.487	154156	REC_EVENT	2542	n/a	4	2	CHEST	COTTON	COTTON	CHEST	-1	[0, 0, 0]	-999	PAL1	3	R1312N
154.166	1.001	155643	PROBE_END	n/a	n/a	4	2	CHEST	n/a	COTTON	CHEST	-1	[0, 0, 0]	-999	PAL1	3	R1312N
155.167	0.014	156644	REC_END	n/a	n/a	4	2	CHEST	n/a	COTTON	CHEST	-1	[0, 0, 0]	-999	PAL1	3	R1312N
155.181	0.27	156658	ORIENT_START	n/a	n/a	-999	-999	n/a	n/a	n/a	n/a	-1	[0, 0, 0]	-999	PAL1	3	R1312N
155.451	0.616	156928	ORIENT_END	n/a	n/a	-999	-999	n/a	n/a	n/a	n/a	-1	[0, 0, 0]	-999	PAL1	3	R1312N
156.067	0.001	157544	REC_START	n/a	n/a	1	3	IMAGE	FLOOD	IMAGE	FLOOD	-1	[0, 0, 0]	-999	PAL1	3	R1312N
156.068	2.228	157545	PROBE_START	n/a	n/a	1	3	IMAGE	FLOOD	IMAGE	FLOOD	-1	[0, 0, 0]	-999	PAL1	3	R1312N
158.296	1.788	159773	REC_EVENT	2228	n/a	1	3	IMAGE	FLOOD	IMAGE	FLOOD	-1	[0, 0, 0]	-999	PAL1	3	R1312N
160.084	1.0	161561	PROBE_END	n/a	n/a	1	3	IMAGE	n/a	IMAGE	FLOOD	-1	[0, 0, 0]	-999	PAL1	3	R1312N
161.084	0.011	162561	REC_END	n/a	n/a	1	3	IMAGE	n/a	IMAGE	FLOOD	-1	[0, 0, 0]	-999	PAL1	3	R1312N
161.095	0.273	162572	ORIENT_START	n/a	n/a	-999	-999	n/a	n/a	n/a	n/a	-1	[0, 0, 0]	-999	PAL1	3	R1312N
161.368	0.554	162845	ORIENT_END	n/a	n/a	-999	-999	n/a	n/a	n/a	n/a	-1	[0, 0, 0]	-999	PAL1	3	R1312N
161.922	0.0	163399	REC_START	n/a	n/a	6	4	BABY	CHANNEL	BABY	CAMEL	-1	[0, 0, 0]	-999	PAL1	3	R1312N
161.922	1.775	163399	PROBE_START	n/a	n/a	6	4	BABY	CHANNEL	BABY	CAMEL	-1	[0, 0, 0]	-999	PAL1	3	R1312N
163.697	2.255	165173	REC_EVENT	1775	n/a	6	4	BABY	CHANNEL	BABY	CAMEL	-1	[0, 0, 0]	-999	PAL1	3	R1312N
165.952	1.0	167428	PROBE_END	n/a	n/a	6	4	BABY	n/a	BABY	CAMEL	-1	[0, 0, 0]	-999	PAL1	3	R1312N
166.952	0.011	168428	REC_END	n/a	n/a	6	4	BABY	n/a	BABY	CAMEL	-1	[0, 0, 0]	-999	PAL1	3	R1312N
166.963	0.272	168439	ORIENT_START	n/a	n/a	-999	-999	n/a	n/a	n/a	n/a	-1	[0, 0, 0]	-999	PAL1	3	R1312N
167.235	0.685	168711	ORIENT_END	n/a	n/a	-999	-999	n/a	n/a	n/a	n/a	-1	[0, 0, 0]	-999	PAL1	3	R1312N
167.92	0.0	169396	REC_START	n/a	n/a	5	5	WATCH	RAIN	RING	WATCH	-1	[0, 0, 0]	-999	PAL1	3	R1312N
167.92	2.113	169396	PROBE_START	n/a	n/a	5	5	WATCH	RAIN	RING	WATCH	-1	[0, 0, 0]	-999	PAL1	3	R1312N
170.033	1.92	171509	REC_EVENT	2113	n/a	5	5	WATCH	RAIN	RING	WATCH	-1	[0, 0, 0]	-999	PAL1	3	R1312N
171.953	1.0	173429	PROBE_END	n/a	n/a	5	5	WATCH	n/a	RING	WATCH	-1	[0, 0, 0]	-999	PAL1	3	R1312N
172.953	0.012	174429	REC_END	n/a	n/a	5	5	WATCH	n/a	RING	WATCH	-1	[0, 0, 0]	-999	PAL1	3	R1312N
172.965	0.271	174441	ORIENT_START	n/a	n/a	-999	-999	n/a	n/a	n/a	n/a	-1	[0, 0, 0]	-999	PAL1	3	R1312N
173.236	0.709	174712	ORIENT_END	n/a	n/a	-999	-999	n/a	n/a	n/a	n/a	-1	[0, 0, 0]	-999	PAL1	3	R1312N
173.945	0.0	175421	REC_START	n/a	n/a	2	6	RHINO	BABY	RHINO	BEAM	-1	[0, 0, 0]	-999	PAL1	3	R1312N
173.945	2.708	175421	PROBE_START	n/a	n/a	2	6	RHINO	BABY	RHINO	BEAM	-1	[0, 0, 0]	-999	PAL1	3	R1312N
176.653	1.318	178129	REC_EVENT	2708	n/a	2	6	RHINO	BABY	RHINO	BEAM	-1	[0, 0, 0]	-999	PAL1	3	R1312N
177.971	1.0	179447	PROBE_END	n/a	n/a	2	6	RHINO	n/a	RHINO	BEAM	-1	[0, 0, 0]	-999	PAL1	3	R1312N
178.971	0.012	180447	REC_END	n/a	n/a	2	6	RHINO	n/a	RHINO	BEAM	-1	[0, 0, 0]	-999	PAL1	3	R1312N
178.983	0.0	180459	RETRIEVAL_END	n/a	n/a	-999	-999	n/a	n/a	n/a	n/a	-1	[0, 0, 0]	-999	PAL1	3	R1312N
178.983	3.172	180459	PRACTICE_POST_INSTRUCT_START	n/a	n/a	-999	-999	n/a	n/a	n/a	n/a	-1	[0, 0, 0]	-999	PAL1	3	R1312N
182.155	0.001	183631	PRACTICE_POST_INSTRUCT_END	n/a	n/a	-999	-999	n/a	n/a	n/a	n/a	-1	[0, 0, 0]	-999	PAL1	3	R1312N
182.156	0.023	183632	TRIAL_END	n/a	n/a	-999	-999	n/a	n/a	n/a	n/a	-1	[0, 0, 0]	-999	PAL1	3	R1312N
182.179	0.001	183655	TRIAL_START	n/a	n/a	-999	-999	n/a	n/a	n/a	n/a	-1	[0, 0, 0]	-999	PAL1	3	R1312N
182.18	0.0	183656	TRIAL	n/a	n/a	-999	-999	n/a	n/a	n/a	n/a	1	[0, 0, 0]	-999	PAL1	3	R1312N
182.18	0.958	183656	WAITING_START	n/a	n/a	-999	-999	n/a	n/a	n/a	n/a	1	[0, 0, 0]	-999	PAL1	3	R1312N
183.138	0.0	184614	WAITING_END	n/a	n/a	-999	-999	n/a	n/a	n/a	n/a	1	[0, 0, 0]	-999	PAL1	3	R1312N
183.138	10.43	184614	COUNTDOWN_START	n/a	n/a	-999	-999	n/a	n/a	n/a	n/a	1	[0, 0, 0]	-999	PAL1	3	R1312N
193.568	0.001	195044	COUNTDOWN_END	n/a	n/a	-999	-999	n/a	n/a	n/a	n/a	1	[0, 0, 0]	-999	PAL1	3	R1312N
193.569	0.638	195045	ORIENT_START	n/a	n/a	-999	-999	n/a	n/a	n/a	n/a	1	[0, 0, 0]	-999	PAL1	3	R1312N
194.207	0.0	195683	ENCODING_START	n/a	n/a	-999	-999	n/a	n/a	n/a	n/a	1	[0, 0, 0]	-999	PAL1	3	R1312N
194.207	1.148	195683	ORIENT_END	n/a	n/a	-999	-999	n/a	n/a	n/a	n/a	1	[0, 0, 0]	-999	PAL1	3	R1312N
195.355	4.037	196831	STUDY_PAIR	n/a	wordpools/wordpool_EN.txt	1	-999	n/a	MOUTH	THREAD	MOUTH	1	[0, 0, 0]	-999	PAL1	3	R1312N
199.392	0.656	200867	STUDY_PAIR_OFF	n/a	n/a	1	-999	n/a	MOUTH	THREAD	MOUTH	1	[0, 0, 0]	-999	PAL1	3	R1312N
200.048	4.027	201523	STUDY_PAIR	n/a	wordpools/wordpool_EN.txt	2	-999	n/a	WAND	CROWN	ICE	1	[0, 0, 0]	-999	PAL1	3	R1312N
204.075	0.651	205550	STUDY_PAIR_OFF	n/a	n/a	2	-999	n/a	WAND	CROWN	ICE	1	[0, 0, 0]	-999	PAL1	3	R1312N
204.726	4.033	206201	STUDY_PAIR	n/a	wordpools/wordpool_EN.txt	3	-999	n/a	BREAD	SALT	BREAD	1	[0, 0, 0]	-999	PAL1	3	R1312N
208.759	0.639	210234	STUDY_PAIR_OFF	n/a	n/a	3	-999	n/a	BREAD	SALT	BREAD	1	[0, 0, 0]	-999	PAL1	3	R1312N
209.398	4.029	210873	STUDY_PAIR	n/a	wordpools/wordpool_EN.txt	4	-999	n/a	BRUSH	BRUSH	HOLE	1	[0, 0, 0]	-999	PAL1	3	R1312N
213.427	0.711	214902	STUDY_PAIR_OFF	n/a	n/a	4	-999	n/a	BRUSH	BRUSH	HOLE	1	[0, 0, 0]	-999	PAL1	3	R1312N
214.138	4.039	215613	STUDY_PAIR	n/a	wordpools/wordpool_EN.txt	5	-999	n/a	PIG	PIG	DRUM	1	[0, 0, 0]	-999	PAL1	3	R1312N
218.177	0.53	219652	STUDY_PAIR_OFF	n/a	n/a	5	-999	n/a	PIG	PIG	DRUM	1	[0, 0, 0]	-999	PAL1	3	R1312N
218.707	4.038	220182	STUDY_PAIR	n/a	wordpools/wordpool_EN.txt	6	-999	n/a	FAN	CAGE	FAN	1	[0, 0, 0]	-999	PAL1	3	R1312N
222.745	0.0	224220	MATH_START	n/a	n/a	-999	-999	n/a	n/a	n/a	n/a	1	[0, 0, 0]	-999	PAL1	3	R1312N
222.745	0.0	224220	ENCODING_END	n/a	n/a	-999	-999	n/a	n/a	n/a	n/a	1	[0, 0, 0]	-999	PAL1	3	R1312N
222.745	0.001	224220	STUDY_PAIR_OFF	n/a	n/a	6	-999	n/a	FAN	CAGE	FAN	1	[0, 0, 0]	-999	PAL1	3	R1312N
222.746	0.015	224221	START	n/a	n/a	-999	-999	n/a	n/a	n/a	n/a	1	[-999, -999, -999]	-999	PAL1	3	R1312N
222.761	5.619	224236	PROB	5595	n/a	-999	-999	n/a	n/a	n/a	n/a	1	[6, 3, 5]	12	PAL1	3	R1312N
228.38	6.184	229855	PROB	6153	n/a	-999	-999	n/a	n/a	n/a	n/a	1	[6, 6, 6]	18	PAL1	3	R1312N
234.564	6.067	236038	PROB	6034	n/a	-999	-999	n/a	n/a	n/a	n/a	1	[3, 2, 3]	8	PAL1	3	R1312N
240.631	3.414	242105	PROB	3414	n/a	-999	-999	n/a	n/a	n/a	n/a	1	[2, 5, 4]	11	PAL1	3	R1312N
244.045	0.02	245519	STOP	n/a	n/a	-999	-999	n/a	n/a	n/a	n/a	1	[-999, -999, -999]	-999	PAL1	3	R1312N
244.065	0.627	245539	MATH_END	n/a	n/a	-999	-999	n/a	n/a	n/a	n/a	1	[0, 0, 0]	-999	PAL1	3	R1312N
244.692	0.002	246166	RETRIEVAL_START	n/a	n/a	-999	-999	n/a	n/a	n/a	n/a	1	[0, 0, 0]	-999	PAL1	3	R1312N
244.694	0.271	246168	ORIENT_START	n/a	n/a	-999	-999	n/a	n/a	n/a	n/a	1	[0, 0, 0]	-999	PAL1	3	R1312N
244.965	0.691	246439	ORIENT_END	n/a	n/a	-999	-999	n/a	n/a	n/a	n/a	1	[0, 0, 0]	-999	PAL1	3	R1312N
245.656	0.0	247130	REC_START	n/a	n/a	5	1	DRUM	PIG	PIG	DRUM	1	[0, 0, 0]	-999	PAL1	3	R1312N
245.656	2.046	247130	PROBE_START	n/a	wordpools/wordpool_EN.txt	5	1	DRUM	PIG	PIG	DRUM	1	[0, 0, 0]	-999	PAL1	3	R1312N
247.702	1.98	249176	REC_EVENT	2046	n/a	5	1	DRUM	PIG	PIG	DRUM	1	[0, 0, 0]	-999	PAL1	3	R1312N
249.682	1.0	251156	PROBE_END	n/a	n/a	5	1	DRUM	n/a	PIG	DRUM	1	[0, 0, 0]	-999	PAL1	3	R1312N
250.682	0.015	252156	REC_END	n/a	n/a	5	1	DRUM	n/a	PIG	DRUM	1	[0, 0, 0]	-999	PAL1	3	R1312N
250.697	0.269	252171	ORIENT_START	n/a	n/a	-999	-999	n/a	n/a	n/a	n/a	1	[0, 0, 0]	-999	PAL1	3	R1312N
250.966	0.694	252440	ORIENT_END	n/a	n/a	-999	-999	n/a	n/a	n/a	n/a	1	[0, 0, 0]	-999	PAL1	3	R1312N
251.66	0.001	253134	REC_START	n/a	n/a	2	2	ICE	WAND	CROWN	ICE	1	[0, 0, 0]	-999	PAL1	3	R1312N
251.661	1.738	253135	PROBE_START	n/a	wordpools/wordpool_EN.txt	2	2	ICE	WAND	CROWN	ICE	1	[0, 0, 0]	-999	PAL1	3	R1312N
253.399	2.284	254873	REC_EVENT	1738	n/a	2	2	ICE	WAND	CROWN	ICE	1	[0, 0, 0]	-999	PAL1	3	R1312N
255.683	1.001	257157	PROBE_END	n/a	n/a	2	2	ICE	n/a	CROWN	ICE	1	[0, 0, 0]	-999	PAL1	3	R1312N
256.684	0.013	258158	REC_END	n/a	n/a	2	2	ICE	n/a	CROWN	ICE	1	[0, 0, 0]	-999	PAL1	3	R1312N
256.697	0.27	258171	ORIENT_START	n/a	n/a	-999	-999	n/a	n/a	n/a	n/a	1	[0, 0, 0]	-999	PAL1	3	R1312N
256.967	0.586	258441	ORIENT_END	n/a	n/a	-999	-999	n/a	n/a	n/a	n/a	1	[0, 0, 0]	-999	PAL1	3	R1312N
257.553	0.0	259027	REC_START	n/a	n/a	3	3	SALT	BREAD	SALT	BREAD	1	[0, 0, 0]	-999	PAL1	3	R1312N
257.553	1.946	259027	PROBE_START	n/a	wordpools/wordpool_EN.txt	3	3	SALT	BREAD	SALT	BREAD	1	[0, 0, 0]	-999	PAL1	3	R1312N
259.499	2.086	260973	REC_EVENT	1946	n/a	3	3	SALT	BREAD	SALT	BREAD	1	[0, 0, 0]	-999	PAL1	3	R1312N
261.585	1.0	263059	PROBE_END	n/a	n/a	3	3	SALT	n/a	SALT	BREAD	1	[0, 0, 0]	-999	PAL1	3	R1312N
262.585	0.011	264059	REC_END	n/a	n/a	3	3	SALT	n/a	SALT	BREAD	1	[0, 0, 0]	-999	PAL1	3	R1312N
262.596	0.272	264070	ORIENT_START	n/a	n/a	-999	-999	n/a	n/a	n/a	n/a	1	[0, 0, 0]	-999	PAL1	3	R1312N
262.868	0.509	264342	ORIENT_END	n/a	n/a	-999	-999	n/a	n/a	n/a	n/a	1	[0, 0, 0]	-999	PAL1	3	R1312N
263.377	0.0	264850	REC_START	n/a	n/a	4	4	HOLE	BRUSH	BRUSH	HOLE	1	[0, 0, 0]	-999	PAL1	3	R1312N
263.377	1.677	264850	PROBE_START	n/a	wordpools/wordpool_EN.txt	4	4	HOLE	BRUSH	BRUSH	HOLE	1	[0, 0, 0]	-999	PAL1	3	R1312N
265.054	2.349	266527	REC_EVENT	1677	n/a	4	4	HOLE	BRUSH	BRUSH	HOLE	1	[0, 0, 0]	-999	PAL1	3	R1312N
267.403	1.001	268876	PROBE_END	n/a	n/a	4	4	HOLE	n/a	BRUSH	HOLE	1	[0, 0, 0]	-999	PAL1	3	R1312N
268.404	0.012	269877	REC_END	n/a	n/a	4	4	HOLE	n/a	BRUSH	HOLE	1	[0, 0, 0]	-999	PAL1	3	R1312N
268.416	0.269	269889	ORIENT_START	n/a	n/a	-999	-999	n/a	n/a	n/a	n/a	1	[0, 0, 0]	-999	PAL1	3	R1312N
268.685	0.561	270158	ORIENT_END	n/a	n/a	-999	-999	n/a	n/a	n/a	n/a	1	[0, 0, 0]	-999	PAL1	3	R1312N
269.246	0.001	270719	REC_START	n/a	n/a	1	5	THREAD	MOUTH	THREAD	MOUTH	1	[0, 0, 0]	-999	PAL1	3	R1312N
269.247	1.97	270720	PROBE_START	n/a	wordpools/wordpool_EN.txt	1	5	THREAD	MOUTH	THREAD	MOUTH	1	[0, 0, 0]	-999	PAL1	3	R1312N
271.217	2.069	272690	REC_EVENT	1970	n/a	1	5	THREAD	MOUTH	THREAD	MOUTH	1	[0, 0, 0]	-999	PAL1	3	R1312N
273.286	1.0	274759	PROBE_END	n/a	n/a	1	5	THREAD	n/a	THREAD	MOUTH	1	[0, 0, 0]	-999	PAL1	3	R1312N
274.286	0.012	275759	REC_END	n/a	n/a	1	5	THREAD	n/a	THREAD	MOUTH	1	[0, 0, 0]	-999	PAL1	3	R1312N
274.298	0.273	275771	ORIENT_START	n/a	n/a	-999	-999	n/a	n/a	n/a	n/a	1	[0, 0, 0]	-999	PAL1	3	R1312N
274.571	0.68	276044	ORIENT_END	n/a	n/a	-999	-999	n/a	n/a	n/a	n/a	1	[0, 0, 0]	-999	PAL1	3	R1312N
275.251	0.001	276724	REC_START	n/a	n/a	6	6	CAGE	FAN	CAGE	FAN	1	[0, 0, 0]	-999	PAL1	3	R1312N
275.252	1.905	276725	PROBE_START	n/a	wordpools/wordpool_EN.txt	6	6	CAGE	FAN	CAGE	FAN	1	[0, 0, 0]	-999	PAL1	3	R1312N
277.157	2.13	278630	REC_EVENT	1905	n/a	6	6	CAGE	FAN	CAGE	FAN	1	[0, 0, 0]	-999	PAL1	3	R1312N
279.287	1.001	280760	PROBE_END	n/a	n/a	6	6	CAGE	n/a	CAGE	FAN	1	[0, 0, 0]	-999	PAL1	3	R1312N
280.288	0.011	281761	REC_END	n/a	n/a	6	6	CAGE	n/a	CAGE	FAN	1	[0, 0, 0]	-999	PAL1	3	R1312N
280.299	0.001	281772	RETRIEVAL_END	n/a	n/a	-999	-999	n/a	n/a	n/a	n/a	1	[0, 0, 0]	-999	PAL1	3	R1312N
280.3	0.022	281773	TRIAL_END	n/a	n/a	-999	-999	n/a	n/a	n/a	n/a	1	[0, 0, 0]	-999	PAL1	3	R1312N
280.322	0.0	281795	TRIAL_START	n/a	n/a	-999	-999	n/a	n/a	n/a	n/a	1	[0, 0, 0]	-999	PAL1	3	R1312N
280.322	0.0	281795	TRIAL	n/a	n/a	-999	-999	n/a	n/a	n/a	n/a	2	[0, 0, 0]	-999	PAL1	3	R1312N
280.322	1.616	281795	WAITING_START	n/a	n/a	-999	-999	n/a	n/a	n/a	n/a	2	[0, 0, 0]	-999	PAL1	3	R1312N
281.938	0.0	283411	WAITING_END	n/a	n/a	-999	-999	n/a	n/a	n/a	n/a	2	[0, 0, 0]	-999	PAL1	3	R1312N
281.938	10.429	283411	COUNTDOWN_START	n/a	n/a	-999	-999	n/a	n/a	n/a	n/a	2	[0, 0, 0]	-999	PAL1	3	R1312N
292.367	0.0	293840	COUNTDOWN_END	n/a	n/a	-999	-999	n/a	n/a	n/a	n/a	2	[0, 0, 0]	-999	PAL1	3	R1312N
292.367	0.739	293840	ORIENT_START	n/a	n/a	-999	-999	n/a	n/a	n/a	n/a	2	[0, 0, 0]	-999	PAL1	3	R1312N
293.106	0.001	294579	ORIENT_END	n/a	n/a	-999	-999	n/a	n/a	n/a	n/a	2	[0, 0, 0]	-999	PAL1	3	R1312N
293.107	1.112	294580	ENCODING_START	n/a	n/a	-999	-999	n/a	n/a	n/a	n/a	2	[0, 0, 0]	-999	PAL1	3	R1312N
294.219	4.021	295692	STUDY_PAIR	n/a	wordpools/wordpool_EN.txt	1	-999	n/a	LAMP	LAMP	SHOE	2	[0, 0, 0]	-999	PAL1	3	R1312N
298.24	0.684	299712	STUDY_PAIR_OFF	n/a	n/a	1	-999	n/a	LAMP	LAMP	SHOE	2	[0, 0, 0]	-999	PAL1	3	R1312N
298.924	4.034	300396	STUDY_PAIR	n/a	wordpools/wordpool_EN.txt	2	-999	n/a	ZOO	CORD	ZOO	2	[0, 0, 0]	-999	PAL1	3	R1312N
302.958	0.631	304430	STUDY_PAIR_OFF	n/a	n/a	2	-999	n/a	ZOO	CORD	ZOO	2	[0, 0, 0]	-999	PAL1	3	R1312N
303.589	4.036	305061	STUDY_PAIR	n/a	wordpools/wordpool_EN.txt	3	-999	n/a	BOX	BOX	SMILE	2	[0, 0, 0]	-999	PAL1	3	R1312N
307.625	0.655	309097	STUDY_PAIR_OFF	n/a	n/a	3	-999	n/a	BOX	BOX	SMILE	2	[0, 0, 0]	-999	PAL1	3	R1312N
308.28	4.029	309752	STUDY_PAIR	n/a	wordpools/wordpool_EN.txt	4	-999	n/a	HEN	HEN	SOCK	2	[0, 0, 0]	-999	PAL1	3	R1312N
312.309	0.602	313781	STUDY_PAIR_OFF	n/a	n/a	4	-999	n/a	HEN	HEN	SOCK	2	[0, 0, 0]	-999	PAL1	3	R1312N
312.911	4.032	314383	STUDY_PAIR	n/a	wordpools/wordpool_EN.txt	5	-999	n/a	BENCH	STEAM	BENCH	2	[0, 0, 0]	-999	PAL1	3	R1312N
316.943	0.655	318415	STUDY_PAIR_OFF	n/a	n/a	5	-999	n/a	BENCH	STEAM	BENCH	2	[0, 0, 0]	-999	PAL1	3	R1312N
317.598	4.029	319070	STUDY_PAIR	n/a	wordpools/wordpool_EN.txt	6	-999	n/a	STONE	BROOM	STONE	2	[0, 0, 0]	-999	PAL1	3	R1312N
321.627	0.001	323099	STUDY_PAIR_OFF	n/a	n/a	6	-999	n/a	STONE	BROOM	STONE	2	[0, 0, 0]	-999	PAL1	3	R1312N
321.628	0.0	323100	ENCODING_END	n/a	n/a	-999	-999	n/a	n/a	n/a	n/a	2	[0, 0, 0]	-999	PAL1	3	R1312N
321.628	0.001	323100	MATH_START	n/a	n/a	-999	-999	n/a	n/a	n/a	n/a	2	[0, 0, 0]	-999	PAL1	3	R1312N
321.629	0.015	323101	START	n/a	n/a	-999	-999	n/a	n/a	n/a	n/a	2	[-999, -999, -999]	-999	PAL1	3	R1312N
321.644	5.634	323116	PROB	5608	n/a	-999	-999	n/a	n/a	n/a	n/a	2	[4, 8, 2]	14	PAL1	3	R1312N
327.278	3.185	328750	PROB	3159	n/a	-999	-999	n/a	n/a	n/a	n/a	2	[4, 1, 1]	6	PAL1	3	R1312N
330.463	6.018	331934	PROB	5982	n/a	-999	-999	n/a	n/a	n/a	n/a	2	[6, 5, 4]	14	PAL1	3	R1312N
336.481	6.243	337952	PROB	6243	n/a	-999	-999	n/a	n/a	n/a	n/a	2	[4, 3, 6]	13	PAL1	3	R1312N
342.724	0.007	344195	STOP	n/a	n/a	-999	-999	n/a	n/a	n/a	n/a	2	[-999, -999, -999]	-999	PAL1	3	R1312N
342.731	0.67	344202	MATH_END	n/a	n/a	-999	-999	n/a	n/a	n/a	n/a	2	[0, 0, 0]	-999	PAL1	3	R1312N
343.401	0.001	344872	RETRIEVAL_START	n/a	n/a	-999	-999	n/a	n/a	n/a	n/a	2	[0, 0, 0]	-999	PAL1	3	R1312N
343.402	0.279	344873	ORIENT_START	n/a	n/a	-999	-999	n/a	n/a	n/a	n/a	2	[0, 0, 0]	-999	PAL1	3	R1312N
343.681	0.639	345152	ORIENT_END	n/a	n/a	-999	-999	n/a	n/a	n/a	n/a	2	[0, 0, 0]	-999	PAL1	3	R1312N
344.32	0.0	345791	REC_START	n/a	n/a	3	1	SMILE	BOX	BOX	SMILE	2	[0, 0, 0]	-999	PAL1	3	R1312N
344.32	1.953	345791	PROBE_START	n/a	wordpools/wordpool_EN.txt	3	1	SMILE	BOX	BOX	SMILE	2	[0, 0, 0]	-999	PAL1	3	R1312N
346.273	2.075	347744	REC_EVENT	1953	n/a	3	1	SMILE	BOX	BOX	SMILE	2	[0, 0, 0]	-999	PAL1	3	R1312N
348.348	1.0	349819	PROBE_END	n/a	n/a	3	1	SMILE	n/a	BOX	SMILE	2	[0, 0, 0]	-999	PAL1	3	R1312N
349.348	0.012	350819	REC_END	n/a	n/a	3	1	SMILE	n/a	BOX	SMILE	2	[0, 0, 0]	-999	PAL1	3	R1312N
349.36	0.272	350831	ORIENT_START	n/a	n/a	-999	-999	n/a	n/a	n/a	n/a	2	[0, 0, 0]	-999	PAL1	3	R1312N
349.632	0.503	351103	ORIENT_END	n/a	n/a	-999	-999	n/a	n/a	n/a	n/a	2	[0, 0, 0]	-999	PAL1	3	R1312N
350.135	0.001	351606	REC_START	n/a	n/a	6	2	BROOM	STONE	BROOM	STONE	2	[0, 0, 0]	-999	PAL1	3	R1312N
350.136	2.228	351607	PROBE_START	n/a	wordpools/wordpool_EN.txt	6	2	BROOM	STONE	BROOM	STONE	2	[0, 0, 0]	-999	PAL1	3	R1312N
352.364	1.802	353835	REC_EVENT	2228	n/a	6	2	BROOM	STONE	BROOM	STONE	2	[0, 0, 0]	-999	PAL1	3	R1312N
354.166	1.0	355637	PROBE_END	n/a	n/a	6	2	BROOM	n/a	BROOM	STONE	2	[0, 0, 0]	-999	PAL1	3	R1312N
355.166	0.01	356637	REC_END	n/a	n/a	6	2	BROOM	n/a	BROOM	STONE	2	[0, 0, 0]	-999	PAL1	3	R1312N
355.176	0.275	356647	ORIENT_START	n/a	n/a	-999	-999	n/a	n/a	n/a	n/a	2	[0, 0, 0]	-999	PAL1	3	R1312N
355.451	0.561	356922	ORIENT_END	n/a	n/a	-999	-999	n/a	n/a	n/a	n/a	2	[0, 0, 0]	-999	PAL1	3	R1312N
356.012	0.001	357483	REC_START	n/a	n/a	1	3	SHOE	LAMP	LAMP	SHOE	2	[0, 0, 0]	-999	PAL1	3	R1312N
356.013	3.982	357484	PROBE_START	n/a	wordpools/wordpool_EN.txt	1	3	SHOE	LAMP	LAMP	SHOE	2	[0, 0, 0]	-999	PAL1	3	R1312N
359.995	0.055	361466	REC_EVENT	3982	n/a	1	3	SHOE	LAMP	LAMP	SHOE	2	[0, 0, 0]	-999	PAL1	3	R1312N
360.05	1.0	361521	PROBE_END	n/a	n/a	1	3	SHOE	n/a	LAMP	SHOE	2	[0, 0, 0]	-999	PAL1	3	R1312N
361.05	0.01	362521	REC_END	n/a	n/a	1	3	SHOE	n/a	LAMP	SHOE	2	[0, 0, 0]	-999	PAL1	3	R1312N
361.06	0.274	362531	ORIENT_START	n/a	n/a	-999	-999	n/a	n/a	n/a	n/a	2	[0, 0, 0]	-999	PAL1	3	R1312N
361.334	0.53	362805	ORIENT_END	n/a	n/a	-999	-999	n/a	n/a	n/a	n/a	2	[0, 0, 0]	-999	PAL1	3	R1312N
361.864	0.0	363335	REC_START	n/a	n/a	2	4	CORD	ZOO	CORD	ZOO	2	[0, 0, 0]	-999	PAL1	3	R1312N
361.864	1.678	363335	PROBE_START	n/a	wordpools/wordpool_EN.txt	2	4	CORD	ZOO	CORD	ZOO	2	[0, 0, 0]	-999	PAL1	3	R1312N
363.542	2.359	365012	REC_EVENT	1678	n/a	2	4	CORD	ZOO	CORD	ZOO	2	[0, 0, 0]	-999	PAL1	3	R1312N
365.901	1.0	367371	PROBE_END	n/a	n/a	2	4	CORD	n/a	CORD	ZOO	2	[0, 0, 0]	-999	PAL1	3	R1312N
366.901	0.012	368371	REC_END	n/a	n/a	2	4	CORD	n/a	CORD	ZOO	2	[0, 0, 0]	-999	PAL1	3	R1312N
366.913	0.272	368383	ORIENT_START	n/a	n/a	-999	-999	n/a	n/a	n/a	n/a	2	[0, 0, 0]	-999	PAL1	3	R1312N
367.185	0.656	368655	ORIENT_END	n/a	n/a	-999	-999	n/a	n/a	n/a	n/a	2	[0, 0, 0]	-999	PAL1	3	R1312N
367.841	0.0	369311	REC_START	n/a	n/a	5	5	STEAM	BENCH	STEAM	BENCH	2	[0, 0, 0]	-999	PAL1	3	R1312N
367.841	2.205	369311	PROBE_START	n/a	wordpools/wordpool_EN.txt	5	5	STEAM	BENCH	STEAM	BENCH	2	[0, 0, 0]	-999	PAL1	3	R1312N
370.046	1.823	371516	REC_EVENT	2205	n/a	5	5	STEAM	BENCH	STEAM	BENCH	2	[0, 0, 0]	-999	PAL1	3	R1312N
371.869	1.001	373339	PROBE_END	n/a	n/a	5	5	STEAM	n/a	STEAM	BENCH	2	[0, 0, 0]	-999	PAL1	3	R1312N
372.87	0.011	374340	REC_END	n/a	n/a	5	5	STEAM	n/a	STEAM	BENCH	2	[0, 0, 0]	-999	PAL1	3	R1312N
372.881	0.271	374351	ORIENT_START	n/a	n/a	-999	-999	n/a	n/a	n/a	n/a	2	[0, 0, 0]	-999	PAL1	3	R1312N
373.152	0.665	374622	ORIENT_END	n/a	n/a	-999	-999	n/a	n/a	n/a	n/a	2	[0, 0, 0]	-999	PAL1	3	R1312N
373.817	0.0	375287	REC_START	n/a	n/a	4	6	SOCK	HEN	HEN	SOCK	2	[0, 0, 0]	-999	PAL1	3	R1312N
373.817	2.163	375287	PROBE_START	n/a	wordpools/wordpool_EN.txt	4	6	SOCK	HEN	HEN	SOCK	2	[0, 0, 0]	-999	PAL1	3	R1312N
375.98	1.873	377450	REC_EVENT	2163	n/a	4	6	SOCK	HEN	HEN	SOCK	2	[0, 0, 0]	-999	PAL1	3	R1312N
377.853	1.001	379323	PROBE_END	n/a	n/a	4	6	SOCK	n/a	HEN	SOCK	2	[0, 0, 0]	-999	PAL1	3	R1312N
378.854	0.012	380324	REC_END	n/a	n/a	4	6	SOCK	n/a	HEN	SOCK	2	[0, 0, 0]	-999	PAL1	3	R1312N
378.866	0.0	380336	RETRIEVAL_END	n/a	n/a	-999	-999	n/a	n/a	n/a	n/a	2	[0, 0, 0]	-999	PAL1	3	R1312N
378.866	0.022	380336	TRIAL_END	n/a	n/a	-999	-999	n/a	n/a	n/a	n/a	2	[0, 0, 0]	-999	PAL1	3	R1312N
378.888	0.0	380358	TRIAL_START	n/a	n/a	-999	-999	n/a	n/a	n/a	n/a	2	[0, 0, 0]	-999	PAL1	3	R1312N
378.888	0.0	380358	TRIAL	n/a	n/a	-999	-999	n/a	n/a	n/a	n/a	3	[0, 0, 0]	-999	PAL1	3	R1312N
378.888	2.149	380358	WAITING_START	n/a	n/a	-999	-999	n/a	n/a	n/a	n/a	3	[0, 0, 0]	-999	PAL1	3	R1312N
381.037	0.001	382507	WAITING_END	n/a	n/a	-999	-999	n/a	n/a	n/a	n/a	3	[0, 0, 0]	-999	PAL1	3	R1312N
381.038	10.428	382508	COUNTDOWN_START	n/a	n/a	-999	-999	n/a	n/a	n/a	n/a	3	[0, 0, 0]	-999	PAL1	3	R1312N
391.466	0.001	392936	COUNTDOWN_END	n/a	n/a	-999	-999	n/a	n/a	n/a	n/a	3	[0, 0, 0]	-999	PAL1	3	R1312N
391.467	0.555	392937	ORIENT_START	n/a	n/a	-999	-999	n/a	n/a	n/a	n/a	3	[0, 0, 0]	-999	PAL1	3	R1312N
392.022	0.001	393492	ORIENT_END	n/a	n/a	-999	-999	n/a	n/a	n/a	n/a	3	[0, 0, 0]	-999	PAL1	3	R1312N
392.023	1.172	393493	ENCODING_START	n/a	n/a	-999	-999	n/a	n/a	n/a	n/a	3	[0, 0, 0]	-999	PAL1	3	R1312N
393.195	4.028	394665	STUDY_PAIR	n/a	wordpools/wordpool_EN.txt	1	-999	n/a	RAT	BIRD	RAT	3	[0, 0, 0]	-999	PAL1	3	R1312N
397.223	0.675	398692	STUDY_PAIR_OFF	n/a	n/a	1	-999	n/a	RAT	BIRD	RAT	3	[0, 0, 0]	-999	PAL1	3	R1312N
397.898	4.026	399367	STUDY_PAIR	n/a	wordpools/wordpool_EN.txt	2	-999	n/a	FLAME	WHALE	FLAME	3	[0, 0, 0]	-999	PAL1	3	R1312N
401.924	0.701	403393	STUDY_PAIR_OFF	n/a	n/a	2	-999	n/a	FLAME	WHALE	FLAME	3	[0, 0, 0]	-999	PAL1	3	R1312N
402.625	4.016	404094	STUDY_PAIR	n/a	wordpools/wordpool_EN.txt	3	-999	n/a	PLANT	PLANT	STOOL	3	[0, 0, 0]	-999	PAL1	3	R1312N
406.641	0.504	408110	STUDY_PAIR_OFF	n/a	n/a	3	-999	n/a	PLANT	PLANT	STOOL	3	[0, 0, 0]	-999	PAL1	3	R1312N
407.145	4.03	408614	STUDY_PAIR	n/a	wordpools/wordpool_EN.txt	4	-999	n/a	SHIELD	SHIELD	VASE	3	[0, 0, 0]	-999	PAL1	3	R1312N
411.175	0.543	412644	STUDY_PAIR_OFF	n/a	n/a	4	-999	n/a	SHIELD	SHIELD	VASE	3	[0, 0, 0]	-999	PAL1	3	R1312N
411.718	4.025	413187	STUDY_PAIR	n/a	wordpools/wordpool_EN.txt	5	-999	n/a	CLASS	PLANE	GLASS	3	[0, 0, 0]	-999	PAL1	3	R1312N
415.743	0.687	417212	STUDY_PAIR_OFF	n/a	n/a	5	-999	n/a	CLASS	PLANE	GLASS	3	[0, 0, 0]	-999	PAL1	3	R1312N
416.43	4.031	417899	STUDY_PAIR	n/a	wordpools/wordpool_EN.txt	6	-999	n/a	CHAIR	CHAIR	SLUSH	3	[0, 0, 0]	-999	PAL1	3	R1312N
420.461	0.001	421930	STUDY_PAIR_OFF	n/a	n/a	6	-999	n/a	CHAIR	CHAIR	SLUSH	3	[0, 0, 0]	-999	PAL1	3	R1312N
420.462	0.0	421931	ENCODING_END	n/a	n/a	-999	-999	n/a	n/a	n/a	n/a	3	[0, 0, 0]	-999	PAL1	3	R1312N
420.462	0.0	421931	MATH_START	n/a	n/a	-999	-999	n/a	n/a	n/a	n/a	3	[0, 0, 0]	-999	PAL1	3	R1312N
420.462	0.016	421931	START	n/a	n/a	-999	-999	n/a	n/a	n/a	n/a	3	[-999, -999, -999]	-999	PAL1	3	R1312N
420.478	3.583	421947	PROB	3559	n/a	-999	-999	n/a	n/a	n/a	n/a	3	[7, 1, 3]	11	PAL1	3	R1312N
424.061	6.217	425530	PROB	6183	n/a	-999	-999	n/a	n/a	n/a	n/a	3	[8, 2, 3]	13	PAL1	3	R1312N
430.278	9.452	431746	PROB	9415	n/a	-999	-999	n/a	n/a	n/a	n/a	3	[3, 4, 9]	16	PAL1	3	R1312N
439.73	2.626	441198	PROB	2626	n/a	-999	-999	n/a	n/a	n/a	n/a	3	[1, 5, 1]	7	PAL1	3	R1312N
442.356	0.008	443824	STOP	n/a	n/a	-999	-999	n/a	n/a	n/a	n/a	3	[-999, -999, -999]	-999	PAL1	3	R1312N
442.364	0.612	443832	MATH_END	n/a	n/a	-999	-999	n/a	n/a	n/a	n/a	3	[0, 0, 0]	-999	PAL1	3	R1312N
442.976	0.001	444444	RETRIEVAL_START	n/a	n/a	-999	-999	n/a	n/a	n/a	n/a	3	[0, 0, 0]	-999	PAL1	3	R1312N
442.977	0.27	444445	ORIENT_START	n/a	n/a	-999	-999	n/a	n/a	n/a	n/a	3	[0, 0, 0]	-999	PAL1	3	R1312N
443.247	0.573	444715	ORIENT_END	n/a	n/a	-999	-999	n/a	n/a	n/a	n/a	3	[0, 0, 0]	-999	PAL1	3	R1312N
443.82	0.001	445288	REC_START	n/a	n/a	3	1	STOOL	PLANT	PLANT	STOOL	3	[0, 0, 0]	-999	PAL1	3	R1312N
443.821	2.082	445289	PROBE_START	n/a	wordpools/wordpool_EN.txt	3	1	STOOL	PLANT	PLANT	STOOL	3	[0, 0, 0]	-999	PAL1	3	R1312N
445.903	1.945	447371	REC_EVENT	2082	n/a	3	1	STOOL	PLANT	PLANT	STOOL	3	[0, 0, 0]	-999	PAL1	3	R1312N
447.848	1.001	449316	PROBE_END	n/a	n/a	3	1	STOOL	n/a	PLANT	STOOL	3	[0, 0, 0]	-999	PAL1	3	R1312N
448.849	0.011	450317	REC_END	n/a	n/a	3	1	STOOL	n/a	PLANT	STOOL	3	[0, 0, 0]	-999	PAL1	3	R1312N
448.86	0.272	450328	ORIENT_START	n/a	n/a	-999	-999	n/a	n/a	n/a	n/a	3	[0, 0, 0]	-999	PAL1	3	R1312N
449.132	0.742	450600	ORIENT_END	n/a	n/a	-999	-999	n/a	n/a	n/a	n/a	3	[0, 0, 0]	-999	PAL1	3	R1312N
449.874	0.0	451342	REC_START	n/a	n/a	4	2	VASE	SHIELD	SHIELD	VASE	3	[0, 0, 0]	-999	PAL1	3	R1312N
449.874	2.264	451342	PROBE_START	n/a	wordpools/wordpool_EN.txt	4	2	VASE	SHIELD	SHIELD	VASE	3	[0, 0, 0]	-999	PAL1	3	R1312N
452.138	1.761	453606	REC_EVENT	2264	n/a	4	2	VASE	SHIELD	SHIELD	VASE	3	[0, 0, 0]	-999	PAL1	3	R1312N
453.899	1.0	455367	PROBE_END	n/a	n/a	4	2	VASE	n/a	SHIELD	VASE	3	[0, 0, 0]	-999	PAL1	3	R1312N
454.899	0.006	456367	REC_END	n/a	n/a	4	2	VASE	n/a	SHIELD	VASE	3	[0, 0, 0]	-999	PAL1	3	R1312N
454.905	0.278	456373	ORIENT_START	n/a	n/a	-999	-999	n/a	n/a	n/a	n/a	3	[0, 0, 0]	-999	PAL1	3	R1312N
455.183	0.597	456651	ORIENT_END	n/a	n/a	-999	-999	n/a	n/a	n/a	n/a	3	[0, 0, 0]	-999	PAL1	3	R1312N
455.78	0.001	457248	REC_START	n/a	n/a	5	3	PLANE	CLASS	PLANE	GLASS	3	[0, 0, 0]	-999	PAL1	3	R1312N
455.781	2.144	457249	PROBE_START	n/a	wordpools/wordpool_EN.txt	5	3	PLANE	CLASS	PLANE	GLASS	3	[0, 0, 0]	-999	PAL1	3	R1312N
457.925	1.892	459393	REC_EVENT	2144	n/a	5	3	PLANE	CLASS	PLANE	GLASS	3	[0, 0, 0]	-999	PAL1	3	R1312N
459.817	0.999	461285	PROBE_END	n/a	n/a	5	3	PLANE	n/a	PLANE	GLASS	3	[0, 0, 0]	-999	PAL1	3	R1312N
460.816	0.012	462284	REC_END	n/a	n/a	5	3	PLANE	n/a	PLANE	GLASS	3	[0, 0, 0]	-999	PAL1	3	R1312N
460.828	0.272	462296	ORIENT_START	n/a	n/a	-999	-999	n/a	n/a	n/a	n/a	3	[0, 0, 0]	-999	PAL1	3	R1312N
461.1	0.502	462568	ORIENT_END	n/a	n/a	-999	-999	n/a	n/a	n/a	n/a	3	[0, 0, 0]	-999	PAL1	3	R1312N
461.602	0.0	463070	REC_START	n/a	n/a	2	4	WHALE	FLAME	WHALE	FLAME	3	[0, 0, 0]	-999	PAL1	3	R1312N
461.602	1.558	463070	PROBE_START	n/a	wordpools/wordpool_EN.txt	2	4	WHALE	FLAME	WHALE	FLAME	3	[0, 0, 0]	-999	PAL1	3	R1312N
463.16	2.474	464628	REC_EVENT	1558	n/a	2	4	WHALE	FLAME	WHALE	FLAME	3	[0, 0, 0]	-999	PAL1	3	R1312N
465.634	1.0	467101	PROBE_END	n/a	n/a	2	4	WHALE	n/a	WHALE	FLAME	3	[0, 0, 0]	-999	PAL1	3	R1312N
466.634	0.01	468101	REC_END	n/a	n/a	2	4	WHALE	n/a	WHALE	FLAME	3	[0, 0, 0]	-999	PAL1	3	R1312N
466.644	0.274	468111	ORIENT_START	n/a	n/a	-999	-999	n/a	n/a	n/a	n/a	3	[0, 0, 0]	-999	PAL1	3	R1312N
466.918	0.502	468385	ORIENT_END	n/a	n/a	-999	-999	n/a	n/a	n/a	n/a	3	[0, 0, 0]	-999	PAL1	3	R1312N
467.42	0.0	468887	REC_START	n/a	n/a	1	5	BIRD	RAT	BIRD	RAT	3	[0, 0, 0]	-999	PAL1	3	R1312N
467.42	1.997	468887	PROBE_START	n/a	wordpools/wordpool_EN.txt	1	5	BIRD	RAT	BIRD	RAT	3	[0, 0, 0]	-999	PAL1	3	R1312N
469.417	2.036	470884	REC_EVENT	1997	n/a	1	5	BIRD	RAT	BIRD	RAT	3	[0, 0, 0]	-999	PAL1	3	R1312N
471.453	1.001	472920	PROBE_END	n/a	n/a	1	5	BIRD	n/a	BIRD	RAT	3	[0, 0, 0]	-999	PAL1	3	R1312N
472.454	0.011	473921	REC_END	n/a	n/a	1	5	BIRD	n/a	BIRD	RAT	3	[0, 0, 0]	-999	PAL1	3	R1312N
472.465	0.27	473932	ORIENT_START	n/a	n/a	-999	-999	n/a	n/a	n/a	n/a	3	[0, 0, 0]	-999	PAL1	3	R1312N
472.735	0.709	474202	ORIENT_END	n/a	n/a	-999	-999	n/a	n/a	n/a	n/a	3	[0, 0, 0]	-999	PAL1	3	R1312N
473.444	0.001	474911	REC_START	n/a	n/a	6	6	SLUSH	CHAIR	CHAIR	SLUSH	3	[0, 0, 0]	-999	PAL1	3	R1312N
473.445	2.073	474912	PROBE_START	n/a	wordpools/wordpool_EN.txt	6	6	SLUSH	CHAIR	CHAIR	SLUSH	3	[0, 0, 0]	-999	PAL1	3	R1312N
475.518	1.953	476985	REC_EVENT	2073	n/a	6	6	SLUSH	CHAIR	CHAIR	SLUSH	3	[0, 0, 0]	-999	PAL1	3	R1312N
477.471	1.0	478938	PROBE_END	n/a	n/a	6	6	SLUSH	n/a	CHAIR	SLUSH	3	[0, 0, 0]	-999	PAL1	3	R1312N
478.471	0.01	479938	REC_END	n/a	n/a	6	6	SLUSH	n/a	CHAIR	SLUSH	3	[0, 0, 0]	-999	PAL1	3	R1312N
478.481	0.0	479948	TRIAL_END	n/a	n/a	-999	-999	n/a	n/a	n/a	n/a	3	[0, 0, 0]	-999	PAL1	3	R1312N
478.481	0.021	479948	RETRIEVAL_END	n/a	n/a	-999	-999	n/a	n/a	n/a	n/a	3	[0, 0, 0]	-999	PAL1	3	R1312N
478.502	0.0	479969	TRIAL_START	n/a	n/a	-999	-999	n/a	n/a	n/a	n/a	3	[0, 0, 0]	-999	PAL1	3	R1312N
478.502	0.0	479969	TRIAL	n/a	n/a	-999	-999	n/a	n/a	n/a	n/a	4	[0, 0, 0]	-999	PAL1	3	R1312N
478.502	11.353	479969	WAITING_START	n/a	n/a	-999	-999	n/a	n/a	n/a	n/a	4	[0, 0, 0]	-999	PAL1	3	R1312N
489.855	0.001	491322	WAITING_END	n/a	n/a	-999	-999	n/a	n/a	n/a	n/a	4	[0, 0, 0]	-999	PAL1	3	R1312N
489.856	10.428	491323	COUNTDOWN_START	n/a	n/a	-999	-999	n/a	n/a	n/a	n/a	4	[0, 0, 0]	-999	PAL1	3	R1312N
500.284	0.001	501750	COUNTDOWN_END	n/a	n/a	-999	-999	n/a	n/a	n/a	n/a	4	[0, 0, 0]	-999	PAL1	3	R1312N
500.285	0.638	501751	ORIENT_START	n/a	n/a	-999	-999	n/a	n/a	n/a	n/a	4	[0, 0, 0]	-999	PAL1	3	R1312N
500.923	0.001	502389	ORIENT_END	n/a	n/a	-999	-999	n/a	n/a	n/a	n/a	4	[0, 0, 0]	-999	PAL1	3	R1312N
500.924	1.248	502390	ENCODING_START	n/a	n/a	-999	-999	n/a	n/a	n/a	n/a	4	[0, 0, 0]	-999	PAL1	3	R1312N
502.172	4.036	503638	STUDY_PAIR	n/a	wordpools/wordpool_EN.txt	1	-999	n/a	CHEEK	CHEEK	WAND	4	[0, 0, 0]	-999	PAL1	3	R1312N
506.208	0.656	507674	STUDY_PAIR_OFF	n/a	n/a	1	-999	n/a	CHEEK	CHEEK	WAND	4	[0, 0, 0]	-999	PAL1	3	R1312N
506.864	4.028	508330	STUDY_PAIR	n/a	wordpools/wordpool_EN.txt	2	-999	n/a	SOUP	WEB	SOUP	4	[0, 0, 0]	-999	PAL1	3	R1312N
510.892	0.566	512358	STUDY_PAIR_OFF	n/a	n/a	2	-999	n/a	SOUP	WEB	SOUP	4	[0, 0, 0]	-999	PAL1	3	R1312N
511.458	4.035	512924	STUDY_PAIR	n/a	wordpools/wordpool_EN.txt	3	-999	n/a	FLAG	FLAG	DOCK	4	[0, 0, 0]	-999	PAL1	3	R1312N
515.493	0.549	516959	STUDY_PAIR_OFF	n/a	n/a	3	-999	n/a	FLAG	FLAG	DOCK	4	[0, 0, 0]	-999	PAL1	3	R1312N
516.042	4.035	517508	STUDY_PAIR	n/a	wordpools/wordpool_EN.txt	4	-999	n/a	WOLF	BOAT	WOLF	4	[0, 0, 0]	-999	PAL1	3	R1312N
520.077	0.621	521543	STUDY_PAIR_OFF	n/a	n/a	4	-999	n/a	WOLF	BOAT	WOLF	4	[0, 0, 0]	-999	PAL1	3	R1312N
520.698	4.029	522164	STUDY_PAIR	n/a	wordpools/wordpool_EN.txt	5	-999	n/a	n/a	CALF	ROOM	4	[0, 0, 0]	-999	PAL1	3	R1312N
524.727	0.725	526193	STUDY_PAIR_OFF	n/a	n/a	5	-999	n/a	n/a	CALF	ROOM	4	[0, 0, 0]	-999	PAL1	3	R1312N
525.452	4.027	526918	STUDY_PAIR	n/a	wordpools/wordpool_EN.txt	6	-999	n/a	DESK	FOX	VEST	4	[0, 0, 0]	-999	PAL1	3	R1312N
529.479	0.001	530945	STUDY_PAIR_OFF	n/a	n/a	6	-999	n/a	DESK	FOX	VEST	4	[0, 0, 0]	-999	PAL1	3	R1312N
529.48	0.0	530946	ENCODING_END	n/a	n/a	-999	-999	n/a	n/a	n/a	n/a	4	[0, 0, 0]	-999	PAL1	3	R1312N
529.48	0.001	530946	MATH_START	n/a	n/a	-999	-999	n/a	n/a	n/a	n/a	4	[0, 0, 0]	-999	PAL1	3	R1312N
529.481	0.015	530947	START	n/a	n/a	-999	-999	n/a	n/a	n/a	n/a	4	[-999, -999, -999]	-999	PAL1	3	R1312N
529.496	9.167	530962	PROB	9140	n/a	-999	-999	n/a	n/a	n/a	n/a	4	[6, 8, 6]	18	PAL1	3	R1312N
538.663	10.351	540128	PROB	10317	n/a	-999	-999	n/a	n/a	n/a	n/a	4	[8, 9, 6]	24	PAL1	3	R1312N
549.014	6.798	550479	PROB	6798	n/a	-999	-999	n/a	n/a	n/a	n/a	4	[3, 1, 3]	7	PAL1	3	R1312N
555.812	0.02	557277	STOP	n/a	n/a	-999	-999	n/a	n/a	n/a	n/a	4	[-999, -999, -999]	-999	PAL1	3	R1312N
555.832	0.511	557297	MATH_END	n/a	n/a	-999	-999	n/a	n/a	n/a	n/a	4	[0, 0, 0]	-999	PAL1	3	R1312N
556.343	0.002	557808	RETRIEVAL_START	n/a	n/a	-999	-999	n/a	n/a	n/a	n/a	4	[0, 0, 0]	-999	PAL1	3	R1312N
556.345	0.272	557810	ORIENT_START	n/a	n/a	-999	-999	n/a	n/a	n/a	n/a	4	[0, 0, 0]	-999	PAL1	3	R1312N
556.617	0.683	558082	ORIENT_END	n/a	n/a	-999	-999	n/a	n/a	n/a	n/a	4	[0, 0, 0]	-999	PAL1	3	R1312N
557.3	0.001	558765	REC_START	n/a	n/a	3	1	DOCK	FLAG	FLAG	DOCK	4	[0, 0, 0]	-999	PAL1	3	R1312N
557.301	2.027	558766	PROBE_START	n/a	wordpools/wordpool_EN.txt	3	1	DOCK	FLAG	FLAG	DOCK	4	[0, 0, 0]	-999	PAL1	3	R1312N
559.328	2.005	560793	REC_EVENT	2027	n/a	3	1	DOCK	FLAG	FLAG	DOCK	4	[0, 0, 0]	-999	PAL1	3	R1312N
561.333	1.001	562798	PROBE_END	n/a	n/a	3	1	DOCK	n/a	FLAG	DOCK	4	[0, 0, 0]	-999	PAL1	3	R1312N
562.334	0.012	563799	REC_END	n/a	n/a	3	1	DOCK	n/a	FLAG	DOCK	4	[0, 0, 0]	-999	PAL1	3	R1312N
562.346	0.272	563811	ORIENT_START	n/a	n/a	-999	-999	n/a	n/a	n/a	n/a	4	[0, 0, 0]	-999	PAL1	3	R1312N
562.618	0.606	564083	ORIENT_END	n/a	n/a	-999	-999	n/a	n/a	n/a	n/a	4	[0, 0, 0]	-999	PAL1	3	R1312N
563.224	0.0	564689	REC_START	n/a	n/a	2	2	WEB	SOUP	WEB	SOUP	4	[0, 0, 0]	-999	PAL1	3	R1312N
563.224	2.035	564689	PROBE_START	n/a	wordpools/wordpool_EN.txt	2	2	WEB	SOUP	WEB	SOUP	4	[0, 0, 0]	-999	PAL1	3	R1312N
565.259	1.992	566723	REC_EVENT	2035	n/a	2	2	WEB	SOUP	WEB	SOUP	4	[0, 0, 0]	-999	PAL1	3	R1312N
567.251	1.0	568715	PROBE_END	n/a	n/a	2	2	WEB	n/a	WEB	SOUP	4	[0, 0, 0]	-999	PAL1	3	R1312N
568.251	0.011	569715	REC_END	n/a	n/a	2	2	WEB	n/a	WEB	SOUP	4	[0, 0, 0]	-999	PAL1	3	R1312N
568.262	0.274	569726	ORIENT_START	n/a	n/a	-999	-999	n/a	n/a	n/a	n/a	4	[0, 0, 0]	-999	PAL1	3	R1312N
568.536	0.513	570000	ORIENT_END	n/a	n/a	-999	-999	n/a	n/a	n/a	n/a	4	[0, 0, 0]	-999	PAL1	3	R1312N
569.049	0.0	570513	REC_START	n/a	n/a	5	3	ROOM	n/a	CALF	ROOM	4	[0, 0, 0]	-999	PAL1	3	R1312N
569.049	3.504	570513	PROBE_START	n/a	wordpools/wordpool_EN.txt	5	3	ROOM	n/a	CALF	ROOM	4	[0, 0, 0]	-999	PAL1	3	R1312N
572.553	0.532	574017	REC_EVENT	3504	n/a	5	3	ROOM	<>	CALF	ROOM	4	[0, 0, 0]	-999	PAL1	3	R1312N
573.085	1.0	574549	PROBE_END	n/a	n/a	5	3	ROOM	n/a	CALF	ROOM	4	[0, 0, 0]	-999	PAL1	3	R1312N
574.085	0.012	575549	REC_END	n/a	n/a	5	3	ROOM	n/a	CALF	ROOM	4	[0, 0, 0]	-999	PAL1	3	R1312N
574.097	0.272	575561	ORIENT_START	n/a	n/a	-999	-999	n/a	n/a	n/a	n/a	4	[0, 0, 0]	-999	PAL1	3	R1312N
574.369	0.749	575833	ORIENT_END	n/a	n/a	-999	-999	n/a	n/a	n/a	n/a	4	[0, 0, 0]	-999	PAL1	3	R1312N
575.118	0.0	576582	REC_START	n/a	n/a	4	4	BOAT	WOLF	BOAT	WOLF	4	[0, 0, 0]	-999	PAL1	3	R1312N
575.118	2.478	576582	PROBE_START	n/a	wordpools/wordpool_EN.txt	4	4	BOAT	WOLF	BOAT	WOLF	4	[0, 0, 0]	-999	PAL1	3	R1312N
577.596	1.557	579060	REC_EVENT	2478	n/a	4	4	BOAT	WOLF	BOAT	WOLF	4	[0, 0, 0]	-999	PAL1	3	R1312N
579.153	1.0	580617	PROBE_END	n/a	n/a	4	4	BOAT	n/a	BOAT	WOLF	4	[0, 0, 0]	-999	PAL1	3	R1312N
580.153	0.006	581617	REC_END	n/a	n/a	4	4	BOAT	n/a	BOAT	WOLF	4	[0, 0, 0]	-999	PAL1	3	R1312N
580.159	0.278	581623	ORIENT_START	n/a	n/a	-999	-999	n/a	n/a	n/a	n/a	4	[0, 0, 0]	-999	PAL1	3	R1312N
580.437	0.51	581901	ORIENT_END	n/a	n/a	-999	-999	n/a	n/a	n/a	n/a	4	[0, 0, 0]	-999	PAL1	3	R1312N
580.947	0.001	582411	REC_START	n/a	n/a	1	5	WAND	CHEEK	CHEEK	WAND	4	[0, 0, 0]	-999	PAL1	3	R1312N
580.948	1.56	582412	PROBE_START	n/a	wordpools/wordpool_EN.txt	1	5	WAND	CHEEK	CHEEK	WAND	4	[0, 0, 0]	-999	PAL1	3	R1312N
582.508	2.463	583972	REC_EVENT	1560	n/a	1	5	WAND	CHEEK	CHEEK	WAND	4	[0, 0, 0]	-999	PAL1	3	R1312N
584.971	0.999	586435	PROBE_END	n/a	n/a	1	5	WAND	n/a	CHEEK	WAND	4	[0, 0, 0]	-999	PAL1	3	R1312N
585.97	0.01	587434	REC_END	n/a	n/a	1	5	WAND	n/a	CHEEK	WAND	4	[0, 0, 0]	-999	PAL1	3	R1312N
585.98	0.274	587444	ORIENT_START	n/a	n/a	-999	-999	n/a	n/a	n/a	n/a	4	[0, 0, 0]	-999	PAL1	3	R1312N
586.254	0.54	587718	ORIENT_END	n/a	n/a	-999	-999	n/a	n/a	n/a	n/a	4	[0, 0, 0]	-999	PAL1	3	R1312N
586.794	0.0	588258	REC_START	n/a	n/a	6	6	FOX	DESK	FOX	VEST	4	[0, 0, 0]	-999	PAL1	3	R1312N
586.794	2.241	588258	PROBE_START	n/a	wordpools/wordpool_EN.txt	6	6	FOX	DESK	FOX	VEST	4	[0, 0, 0]	-999	PAL1	3	R1312N
589.035	1.787	590499	REC_EVENT	2241	n/a	6	6	FOX	DESK	FOX	VEST	4	[0, 0, 0]	-999	PAL1	3	R1312N
590.822	1.0	592286	PROBE_END	n/a	n/a	6	6	FOX	n/a	FOX	VEST	4	[0, 0, 0]	-999	PAL1	3	R1312N
591.822	0.011	593286	REC_END	n/a	n/a	6	6	FOX	n/a	FOX	VEST	4	[0, 0, 0]	-999	PAL1	3	R1312N
591.833	0.0	593297	RETRIEVAL_END	n/a	n/a	-999	-999	n/a	n/a	n/a	n/a	4	[0, 0, 0]	-999	PAL1	3	R1312N
591.833	0.02	593297	TRIAL_END	n/a	n/a	-999	-999	n/a	n/a	n/a	n/a	4	[0, 0, 0]	-999	PAL1	3	R1312N
591.853	0.0	593317	WAITING_START	n/a	n/a	-999	-999	n/a	n/a	n/a	n/a	5	[0, 0, 0]	-999	PAL1	3	R1312N
591.853	0.0	593317	TRIAL	n/a	n/a	-999	-999	n/a	n/a	n/a	n/a	5	[0, 0, 0]	-999	PAL1	3	R1312N
591.853	7.538	593317	TRIAL_START	n/a	n/a	-999	-999	n/a	n/a	n/a	n/a	4	[0, 0, 0]	-999	PAL1	3	R1312N
599.391	0.0	600854	WAITING_END	n/a	n/a	-999	-999	n/a	n/a	n/a	n/a	5	[0, 0, 0]	-999	PAL1	3	R1312N
599.391	10.431	600854	COUNTDOWN_START	n/a	n/a	-999	-999	n/a	n/a	n/a	n/a	5	[0, 0, 0]	-999	PAL1	3	R1312N
609.822	0.0	611285	COUNTDOWN_END	n/a	n/a	-999	-999	n/a	n/a	n/a	n/a	5	[0, 0, 0]	-999	PAL1	3	R1312N
609.822	0.737	611285	ORIENT_START	n/a	n/a	-999	-999	n/a	n/a	n/a	n/a	5	[0, 0, 0]	-999	PAL1	3	R1312N
610.559	0.001	612022	ORIENT_END	n/a	n/a	-999	-999	n/a	n/a	n/a	n/a	5	[0, 0, 0]	-999	PAL1	3	R1312N
610.56	1.045	612023	ENCODING_START	n/a	n/a	-999	-999	n/a	n/a	n/a	n/a	5	[0, 0, 0]	-999	PAL1	3	R1312N
611.605	4.037	613068	STUDY_PAIR	n/a	wordpools/wordpool_EN.txt	1	-999	n/a	HAND	HAND	SWAMP	5	[0, 0, 0]	-999	PAL1	3	R1312N
615.642	0.666	617105	STUDY_PAIR_OFF	n/a	n/a	1	-999	n/a	HAND	HAND	SWAMP	5	[0, 0, 0]	-999	PAL1	3	R1312N
616.308	4.035	617771	STUDY_PAIR	n/a	wordpools/wordpool_EN.txt	2	-999	n/a	PIT	PIT	MUD	5	[0, 0, 0]	-999	PAL1	3	R1312N
620.343	0.73	621806	STUDY_PAIR_OFF	n/a	n/a	2	-999	n/a	PIT	PIT	MUD	5	[0, 0, 0]	-999	PAL1	3	R1312N
621.073	4.038	622536	STUDY_PAIR	n/a	wordpools/wordpool_EN.txt	3	-999	n/a	MULE	TRASH	MULE	5	[0, 0, 0]	-999	PAL1	3	R1312N
625.111	0.651	626574	STUDY_PAIR_OFF	n/a	n/a	3	-999	n/a	MULE	TRASH	MULE	5	[0, 0, 0]	-999	PAL1	3	R1312N
625.762	4.033	627225	STUDY_PAIR	n/a	wordpools/wordpool_EN.txt	4	-999	n/a	SPOON	SPOON	CLOCK	5	[0, 0, 0]	-999	PAL1	3	R1312N
629.795	0.577	631258	STUDY_PAIR_OFF	n/a	n/a	4	-999	n/a	SPOON	SPOON	CLOCK	5	[0, 0, 0]	-999	PAL1	3	R1312N
630.372	4.024	631835	STUDY_PAIR	n/a	wordpools/wordpool_EN.txt	5	-999	n/a	TENT	OAK	TENT	5	[0, 0, 0]	-999	PAL1	3	R1312N
634.396	0.514	635858	STUDY_PAIR_OFF	n/a	n/a	5	-999	n/a	TENT	OAK	TENT	5	[0, 0, 0]	-999	PAL1	3	R1312N
634.91	4.036	636372	STUDY_PAIR	n/a	wordpools/wordpool_EN.txt	6	-999	n/a	STORE	MAP	STORE	5	[0, 0, 0]	-999	PAL1	3	R1312N
638.946	0.001	640408	STUDY_PAIR_OFF	n/a	n/a	6	-999	n/a	STORE	MAP	STORE	5	[0, 0, 0]	-999	PAL1	3	R1312N
638.947	0.0	640409	ENCODING_END	n/a	n/a	-999	-999	n/a	n/a	n/a	n/a	5	[0, 0, 0]	-999	PAL1	3	R1312N
638.947	0.0	640409	MATH_START	n/a	n/a	-999	-999	n/a	n/a	n/a	n/a	5	[0, 0, 0]	-999	PAL1	3	R1312N
638.947	0.016	640409	START	n/a	n/a	-999	-999	n/a	n/a	n/a	n/a	5	[-999, -999, -999]	-999	PAL1	3	R1312N
638.963	5.834	640425	PROB	5809	n/a	-999	-999	n/a	n/a	n/a	n/a	5	[5, 8, 1]	14	PAL1	3	R1312N
644.797	5.517	646259	PROB	5479	n/a	-999	-999	n/a	n/a	n/a	n/a	5	[6, 7, 4]	17	PAL1	3	R1312N
650.314	7.668	651776	PROB	7634	n/a	-999	-999	n/a	n/a	n/a	n/a	5	[6, 9, 5]	20	PAL1	3	R1312N
657.982	10.399	659444	PROB	10399	n/a	-999	-999	n/a	n/a	n/a	n/a	5	[9, 2, 5]	16	PAL1	3	R1312N
668.381	0.021	669842	STOP	n/a	n/a	-999	-999	n/a	n/a	n/a	n/a	5	[-999, -999, -999]	-999	PAL1	3	R1312N
668.402	0.663	669863	MATH_END	n/a	n/a	-999	-999	n/a	n/a	n/a	n/a	5	[0, 0, 0]	-999	PAL1	3	R1312N
669.065	0.002	670526	RETRIEVAL_START	n/a	n/a	-999	-999	n/a	n/a	n/a	n/a	5	[0, 0, 0]	-999	PAL1	3	R1312N
669.067	0.284	670528	ORIENT_START	n/a	n/a	-999	-999	n/a	n/a	n/a	n/a	5	[0, 0, 0]	-999	PAL1	3	R1312N
669.351	0.559	670812	ORIENT_END	n/a	n/a	-999	-999	n/a	n/a	n/a	n/a	5	[0, 0, 0]	-999	PAL1	3	R1312N
669.91	0.0	671371	REC_START	n/a	n/a	3	1	TRASH	MULE	TRASH	MULE	5	[0, 0, 0]	-999	PAL1	3	R1312N
669.91	1.78	671371	PROBE_START	n/a	wordpools/wordpool_EN.txt	3	1	TRASH	MULE	TRASH	MULE	5	[0, 0, 0]	-999	PAL1	3	R1312N
671.69	2.245	673151	REC_EVENT	1780	n/a	3	1	TRASH	MULE	TRASH	MULE	5	[0, 0, 0]	-999	PAL1	3	R1312N
673.935	1.0	675396	PROBE_END	n/a	n/a	3	1	TRASH	n/a	TRASH	MULE	5	[0, 0, 0]	-999	PAL1	3	R1312N
674.935	0.012	676396	REC_END	n/a	n/a	3	1	TRASH	n/a	TRASH	MULE	5	[0, 0, 0]	-999	PAL1	3	R1312N
674.947	0.272	676408	ORIENT_START	n/a	n/a	-999	-999	n/a	n/a	n/a	n/a	5	[0, 0, 0]	-999	PAL1	3	R1312N
675.219	0.577	676680	ORIENT_END	n/a	n/a	-999	-999	n/a	n/a	n/a	n/a	5	[0, 0, 0]	-999	PAL1	3	R1312N
675.796	0.0	677257	REC_START	n/a	n/a	6	2	MAP	STORE	MAP	STORE	5	[0, 0, 0]	-999	PAL1	3	R1312N
675.796	1.763	677257	PROBE_START	n/a	wordpools/wordpool_EN.txt	6	2	MAP	STORE	MAP	STORE	5	[0, 0, 0]	-999	PAL1	3	R1312N
677.559	2.26	679020	REC_EVENT	1763	n/a	6	2	MAP	STORE	MAP	STORE	5	[0, 0, 0]	-999	PAL1	3	R1312N
679.819	1.0	681280	PROBE_END	n/a	n/a	6	2	MAP	n/a	MAP	STORE	5	[0, 0, 0]	-999	PAL1	3	R1312N
680.819	0.011	682280	REC_END	n/a	n/a	6	2	MAP	n/a	MAP	STORE	5	[0, 0, 0]	-999	PAL1	3	R1312N
680.83	0.273	682291	ORIENT_START	n/a	n/a	-999	-999	n/a	n/a	n/a	n/a	5	[0, 0, 0]	-999	PAL1	3	R1312N
681.103	0.692	682564	ORIENT_END	n/a	n/a	-999	-999	n/a	n/a	n/a	n/a	5	[0, 0, 0]	-999	PAL1	3	R1312N
681.795	0.0	683256	REC_START	n/a	n/a	1	3	SWAMP	HAND	HAND	SWAMP	5	[0, 0, 0]	-999	PAL1	3	R1312N
681.795	1.901	683256	PROBE_START	n/a	wordpools/wordpool_EN.txt	1	3	SWAMP	HAND	HAND	SWAMP	5	[0, 0, 0]	-999	PAL1	3	R1312N
683.696	2.125	685157	REC_EVENT	1901	n/a	1	3	SWAMP	HAND	HAND	SWAMP	5	[0, 0, 0]	-999	PAL1	3	R1312N
685.821	0.999	687282	PROBE_END	n/a	n/a	1	3	SWAMP	n/a	HAND	SWAMP	5	[0, 0, 0]	-999	PAL1	3	R1312N
686.82	0.011	688281	REC_END	n/a	n/a	1	3	SWAMP	n/a	HAND	SWAMP	5	[0, 0, 0]	-999	PAL1	3	R1312N
686.831	0.273	688292	ORIENT_START	n/a	n/a	-999	-999	n/a	n/a	n/a	n/a	5	[0, 0, 0]	-999	PAL1	3	R1312N
687.104	0.723	688565	ORIENT_END	n/a	n/a	-999	-999	n/a	n/a	n/a	n/a	5	[0, 0, 0]	-999	PAL1	3	R1312N
687.827	0.001	689288	REC_START	n/a	n/a	4	4	CLOCK	SPOON	SPOON	CLOCK	5	[0, 0, 0]	-999	PAL1	3	R1312N
687.828	1.695	689289	PROBE_START	n/a	wordpools/wordpool_EN.txt	4	4	CLOCK	SPOON	SPOON	CLOCK	5	[0, 0, 0]	-999	PAL1	3	R1312N
689.523	2.332	690984	REC_EVENT	1695	n/a	4	4	CLOCK	SPOON	SPOON	CLOCK	5	[0, 0, 0]	-999	PAL1	3	R1312N
691.855	1.001	693316	PROBE_END	n/a	n/a	4	4	CLOCK	n/a	SPOON	CLOCK	5	[0, 0, 0]	-999	PAL1	3	R1312N
692.856	0.011	694317	REC_END	n/a	n/a	4	4	CLOCK	n/a	SPOON	CLOCK	5	[0, 0, 0]	-999	PAL1	3	R1312N
692.867	0.271	694328	ORIENT_START	n/a	n/a	-999	-999	n/a	n/a	n/a	n/a	5	[0, 0, 0]	-999	PAL1	3	R1312N
693.138	0.639	694599	ORIENT_END	n/a	n/a	-999	-999	n/a	n/a	n/a	n/a	5	[0, 0, 0]	-999	PAL1	3	R1312N
693.777	0.001	695238	REC_START	n/a	n/a	5	5	OAK	TENT	OAK	TENT	5	[0, 0, 0]	-999	PAL1	3	R1312N
693.778	2.032	695239	PROBE_START	n/a	wordpools/wordpool_EN.txt	5	5	OAK	TENT	OAK	TENT	5	[0, 0, 0]	-999	PAL1	3	R1312N
695.81	1.996	697271	REC_EVENT	2032	n/a	5	5	OAK	TENT	OAK	TENT	5	[0, 0, 0]	-999	PAL1	3	R1312N
697.806	1.0	699266	PROBE_END	n/a	n/a	5	5	OAK	n/a	OAK	TENT	5	[0, 0, 0]	-999	PAL1	3	R1312N
698.806	0.011	700266	REC_END	n/a	n/a	5	5	OAK	n/a	OAK	TENT	5	[0, 0, 0]	-999	PAL1	3	R1312N
698.817	0.272	700277	ORIENT_START	n/a	n/a	-999	-999	n/a	n/a	n/a	n/a	5	[0, 0, 0]	-999	PAL1	3	R1312N
699.089	0.709	700549	ORIENT_END	n/a	n/a	-999	-999	n/a	n/a	n/a	n/a	5	[0, 0, 0]	-999	PAL1	3	R1312N
699.798	0.0	701258	REC_START	n/a	n/a	2	6	MUD	PIT	PIT	MUD	5	[0, 0, 0]	-999	PAL1	3	R1312N
699.798	1.904	701258	PROBE_START	n/a	wordpools/wordpool_EN.txt	2	6	MUD	PIT	PIT	MUD	5	[0, 0, 0]	-999	PAL1	3	R1312N
701.702	2.122	703162	REC_EVENT	1904	n/a	2	6	MUD	PIT	PIT	MUD	5	[0, 0, 0]	-999	PAL1	3	R1312N
703.824	0.999	705284	PROBE_END	n/a	n/a	2	6	MUD	n/a	PIT	MUD	5	[0, 0, 0]	-999	PAL1	3	R1312N
704.823	0.01	706283	REC_END	n/a	n/a	2	6	MUD	n/a	PIT	MUD	5	[0, 0, 0]	-999	PAL1	3	R1312N
704.833	0.0	706293	RETRIEVAL_END	n/a	n/a	-999	-999	n/a	n/a	n/a	n/a	5	[0, 0, 0]	-999	PAL1	3	R1312N
704.833	0.02	706293	TRIAL_END	n/a	n/a	-999	-999	n/a	n/a	n/a	n/a	5	[0, 0, 0]	-999	PAL1	3	R1312N
704.853	0.0	706313	TRIAL	n/a	n/a	-999	-999	n/a	n/a	n/a	n/a	6	[0, 0, 0]	-999	PAL1	3	R1312N
704.853	0.0	706313	WAITING_START	n/a	n/a	-999	-999	n/a	n/a	n/a	n/a	6	[0, 0, 0]	-999	PAL1	3	R1312N
704.853	2.488	706313	TRIAL_START	n/a	n/a	-999	-999	n/a	n/a	n/a	n/a	5	[0, 0, 0]	-999	PAL1	3	R1312N
707.341	0.0	708801	WAITING_END	n/a	n/a	-999	-999	n/a	n/a	n/a	n/a	6	[0, 0, 0]	-999	PAL1	3	R1312N
707.341	10.429	708801	COUNTDOWN_START	n/a	n/a	-999	-999	n/a	n/a	n/a	n/a	6	[0, 0, 0]	-999	PAL1	3	R1312N
717.77	0.0	719230	COUNTDOWN_END	n/a	n/a	-999	-999	n/a	n/a	n/a	n/a	6	[0, 0, 0]	-999	PAL1	3	R1312N
717.77	0.674	719230	ORIENT_START	n/a	n/a	-999	-999	n/a	n/a	n/a	n/a	6	[0, 0, 0]	-999	PAL1	3	R1312N
718.444	0.0	719904	ORIENT_END	n/a	n/a	-999	-999	n/a	n/a	n/a	n/a	6	[0, 0, 0]	-999	PAL1	3	R1312N
718.444	1.247	719904	ENCODING_START	n/a	n/a	-999	-999	n/a	n/a	n/a	n/a	6	[0, 0, 0]	-999	PAL1	3	R1312N
719.691	4.036	721151	STUDY_PAIR	n/a	wordpools/wordpool_EN.txt	1	-999	n/a	CLAY	CLAY	SINK	6	[0, 0, 0]	-999	PAL1	3	R1312N
723.727	0.75	725187	STUDY_PAIR_OFF	n/a	n/a	1	-999	n/a	CLAY	CLAY	SINK	6	[0, 0, 0]	-999	PAL1	3	R1312N
724.477	4.018	725937	STUDY_PAIR	n/a	wordpools/wordpool_EN.txt	2	-999	n/a	WORLD	WORLD	PEN	6	[0, 0, 0]	-999	PAL1	3	R1312N
728.495	0.639	729955	STUDY_PAIR_OFF	n/a	n/a	2	-999	n/a	WORLD	WORLD	PEN	6	[0, 0, 0]	-999	PAL1	3	R1312N
729.134	4.028	730594	STUDY_PAIR	n/a	wordpools/wordpool_EN.txt	3	-999	n/a	TOOL	CORN	TOOL	6	[0, 0, 0]	-999	PAL1	3	R1312N
733.162	0.572	734621	STUDY_PAIR_OFF	n/a	n/a	3	-999	n/a	TOOL	CORN	TOOL	6	[0, 0, 0]	-999	PAL1	3	R1312N
733.734	4.028	735193	STUDY_PAIR	n/a	wordpools/wordpool_EN.txt	4	-999	n/a	HILL	CAKE	HILL	6	[0, 0, 0]	-999	PAL1	3	R1312N
737.762	0.565	739221	STUDY_PAIR_OFF	n/a	n/a	4	-999	n/a	HILL	CAKE	HILL	6	[0, 0, 0]	-999	PAL1	3	R1312N
738.327	4.036	739786	STUDY_PAIR	n/a	wordpools/wordpool_EN.txt	5	-999	n/a	SNOW	SNOW	BED	6	[0, 0, 0]	-999	PAL1	3	R1312N
742.363	0.55	743822	STUDY_PAIR_OFF	n/a	n/a	5	-999	n/a	SNOW	SNOW	BED	6	[0, 0, 0]	-999	PAL1	3	R1312N
742.913	4.034	744372	STUDY_PAIR	n/a	wordpools/wordpool_EN.txt	6	-999	n/a	EGG	PLATE	EGG	6	[0, 0, 0]	-999	PAL1	3	R1312N
746.947	0.001	748406	STUDY_PAIR_OFF	n/a	n/a	6	-999	n/a	EGG	PLATE	EGG	6	[0, 0, 0]	-999	PAL1	3	R1312N
746.948	0.0	748407	ENCODING_END	n/a	n/a	-999	-999	n/a	n/a	n/a	n/a	6	[0, 0, 0]	-999	PAL1	3	R1312N
746.948	0.0	748407	MATH_START	n/a	n/a	-999	-999	n/a	n/a	n/a	n/a	6	[0, 0, 0]	-999	PAL1	3	R1312N
746.948	0.016	748407	START	n/a	n/a	-999	-999	n/a	n/a	n/a	n/a	6	[-999, -999, -999]	-999	PAL1	3	R1312N
746.964	5.502	748423	PROB	5465	n/a	-999	-999	n/a	n/a	n/a	n/a	6	[8, 1, 4]	13	PAL1	3	R1312N
752.466	7.9	753925	PROB	7875	n/a	-999	-999	n/a	n/a	n/a	n/a	6	[4, 5, 9]	18	PAL1	3	R1312N
760.366	9.806	761825	PROB	9806	n/a	-999	-999	n/a	n/a	n/a	n/a	6	[7, 7, 6]	20	PAL1	3	R1312N
770.172	0.012	771630	STOP	n/a	n/a	-999	-999	n/a	n/a	n/a	n/a	6	[-999, -999, -999]	-999	PAL1	3	R1312N
770.184	0.59	771642	MATH_END	n/a	n/a	-999	-999	n/a	n/a	n/a	n/a	6	[0, 0, 0]	-999	PAL1	3	R1312N
770.774	0.001	772232	RETRIEVAL_START	n/a	n/a	-999	-999	n/a	n/a	n/a	n/a	6	[0, 0, 0]	-999	PAL1	3	R1312N
770.775	0.276	772233	ORIENT_START	n/a	n/a	-999	-999	n/a	n/a	n/a	n/a	6	[0, 0, 0]	-999	PAL1	3	R1312N
771.051	0.678	772509	ORIENT_END	n/a	n/a	-999	-999	n/a	n/a	n/a	n/a	6	[0, 0, 0]	-999	PAL1	3	R1312N
771.729	0.0	773187	REC_START	n/a	n/a	3	1	CORN	TOOL	CORN	TOOL	6	[0, 0, 0]	-999	PAL1	3	R1312N
771.729	2.51	773187	PROBE_START	n/a	wordpools/wordpool_EN.txt	3	1	CORN	TOOL	CORN	TOOL	6	[0, 0, 0]	-999	PAL1	3	R1312N
774.239	1.513	775697	REC_EVENT	2510	n/a	3	1	CORN	TOOL	CORN	TOOL	6	[0, 0, 0]	-999	PAL1	3	R1312N
775.752	1.0	777210	PROBE_END	n/a	n/a	3	1	CORN	n/a	CORN	TOOL	6	[0, 0, 0]	-999	PAL1	3	R1312N
776.752	0.011	778210	REC_END	n/a	n/a	3	1	CORN	n/a	CORN	TOOL	6	[0, 0, 0]	-999	PAL1	3	R1312N
776.763	0.272	778221	ORIENT_START	n/a	n/a	-999	-999	n/a	n/a	n/a	n/a	6	[0, 0, 0]	-999	PAL1	3	R1312N
777.035	0.683	778493	ORIENT_END	n/a	n/a	-999	-999	n/a	n/a	n/a	n/a	6	[0, 0, 0]	-999	PAL1	3	R1312N
777.718	0.0	779176	REC_START	n/a	n/a	6	2	PLATE	EGG	PLATE	EGG	6	[0, 0, 0]	-999	PAL1	3	R1312N
777.718	1.955	779176	PROBE_START	n/a	wordpools/wordpool_EN.txt	6	2	PLATE	EGG	PLATE	EGG	6	[0, 0, 0]	-999	PAL1	3	R1312N
779.673	2.08	781131	REC_EVENT	1955	n/a	6	2	PLATE	EGG	PLATE	EGG	6	[0, 0, 0]	-999	PAL1	3	R1312N
781.753	1.0	783211	PROBE_END	n/a	n/a	6	2	PLATE	n/a	PLATE	EGG	6	[0, 0, 0]	-999	PAL1	3	R1312N
782.753	0.011	784211	REC_END	n/a	n/a	6	2	PLATE	n/a	PLATE	EGG	6	[0, 0, 0]	-999	PAL1	3	R1312N
782.764	0.273	784222	ORIENT_START	n/a	n/a	-999	-999	n/a	n/a	n/a	n/a	6	[0, 0, 0]	-999	PAL1	3	R1312N
783.037	0.639	784495	ORIENT_END	n/a	n/a	-999	-999	n/a	n/a	n/a	n/a	6	[0, 0, 0]	-999	PAL1	3	R1312N
783.676	0.0	785134	REC_START	n/a	n/a	5	3	BED	SNOW	SNOW	BED	6	[0, 0, 0]	-999	PAL1	3	R1312N
783.676	1.927	785134	PROBE_START	n/a	wordpools/wordpool_EN.txt	5	3	BED	SNOW	SNOW	BED	6	[0, 0, 0]	-999	PAL1	3	R1312N
785.603	2.101	787061	REC_EVENT	1927	n/a	5	3	BED	SNOW	SNOW	BED	6	[0, 0, 0]	-999	PAL1	3	R1312N
787.704	1.0	789162	PROBE_END	n/a	n/a	5	3	BED	n/a	SNOW	BED	6	[0, 0, 0]	-999	PAL1	3	R1312N
788.704	0.012	790162	REC_END	n/a	n/a	5	3	BED	n/a	SNOW	BED	6	[0, 0, 0]	-999	PAL1	3	R1312N
788.716	0.272	790174	ORIENT_START	n/a	n/a	-999	-999	n/a	n/a	n/a	n/a	6	[0, 0, 0]	-999	PAL1	3	R1312N
788.988	0.672	790446	ORIENT_END	n/a	n/a	-999	-999	n/a	n/a	n/a	n/a	6	[0, 0, 0]	-999	PAL1	3	R1312N
789.66	0.0	791118	REC_START	n/a	n/a	2	4	PEN	WORLD	WORLD	PEN	6	[0, 0, 0]	-999	PAL1	3	R1312N
789.66	1.825	791118	PROBE_START	n/a	wordpools/wordpool_EN.txt	2	4	PEN	WORLD	WORLD	PEN	6	[0, 0, 0]	-999	PAL1	3	R1312N
791.485	2.203	792943	REC_EVENT	1825	n/a	2	4	PEN	WORLD	WORLD	PEN	6	[0, 0, 0]	-999	PAL1	3	R1312N
793.688	1.001	795146	PROBE_END	n/a	n/a	2	4	PEN	n/a	WORLD	PEN	6	[0, 0, 0]	-999	PAL1	3	R1312N
794.689	0.011	796147	REC_END	n/a	n/a	2	4	PEN	n/a	WORLD	PEN	6	[0, 0, 0]	-999	PAL1	3	R1312N
794.7	0.272	796158	ORIENT_START	n/a	n/a	-999	-999	n/a	n/a	n/a	n/a	6	[0, 0, 0]	-999	PAL1	3	R1312N
794.972	0.692	796430	ORIENT_END	n/a	n/a	-999	-999	n/a	n/a	n/a	n/a	6	[0, 0, 0]	-999	PAL1	3	R1312N
795.664	0.0	797122	REC_START	n/a	n/a	1	5	SINK	CLAY	CLAY	SINK	6	[0, 0, 0]	-999	PAL1	3	R1312N
795.664	1.771	797122	PROBE_START	n/a	wordpools/wordpool_EN.txt	1	5	SINK	CLAY	CLAY	SINK	6	[0, 0, 0]	-999	PAL1	3	R1312N
797.435	2.254	798893	REC_EVENT	1771	n/a	1	5	SINK	CLAY	CLAY	SINK	6	[0, 0, 0]	-999	PAL1	3	R1312N
799.689	1.0	801146	PROBE_END	n/a	n/a	1	5	SINK	n/a	CLAY	SINK	6	[0, 0, 0]	-999	PAL1	3	R1312N
800.689	0.01	802146	REC_END	n/a	n/a	1	5	SINK	n/a	CLAY	SINK	6	[0, 0, 0]	-999	PAL1	3	R1312N
800.699	0.274	802156	ORIENT_START	n/a	n/a	-999	-999	n/a	n/a	n/a	n/a	6	[0, 0, 0]	-999	PAL1	3	R1312N
800.973	0.696	802430	ORIENT_END	n/a	n/a	-999	-999	n/a	n/a	n/a	n/a	6	[0, 0, 0]	-999	PAL1	3	R1312N
801.669	0.0	803126	REC_START	n/a	n/a	4	6	CAKE	HILL	CAKE	HILL	6	[0, 0, 0]	-999	PAL1	3	R1312N
801.669	2.168	803126	PROBE_START	n/a	wordpools/wordpool_EN.txt	4	6	CAKE	HILL	CAKE	HILL	6	[0, 0, 0]	-999	PAL1	3	R1312N
803.837	1.87	805294	REC_EVENT	2168	n/a	4	6	CAKE	HILL	CAKE	HILL	6	[0, 0, 0]	-999	PAL1	3	R1312N
805.707	1.001	807164	PROBE_END	n/a	n/a	4	6	CAKE	n/a	CAKE	HILL	6	[0, 0, 0]	-999	PAL1	3	R1312N
806.708	0.01	808165	REC_END	n/a	n/a	4	6	CAKE	n/a	CAKE	HILL	6	[0, 0, 0]	-999	PAL1	3	R1312N
806.718	0.0	808175	RETRIEVAL_END	n/a	n/a	-999	-999	n/a	n/a	n/a	n/a	6	[0, 0, 0]	-999	PAL1	3	R1312N
806.718	0.022	808175	TRIAL_END	n/a	n/a	-999	-999	n/a	n/a	n/a	n/a	6	[0, 0, 0]	-999	PAL1	3	R1312N
806.74	0.0	808197	TRIAL_START	n/a	n/a	-999	-999	n/a	n/a	n/a	n/a	6	[0, 0, 0]	-999	PAL1	3	R1312N
806.74	0.0	808197	TRIAL	n/a	n/a	-999	-999	n/a	n/a	n/a	n/a	7	[0, 0, 0]	-999	PAL1	3	R1312N
806.74	6.535	808197	WAITING_START	n/a	n/a	-999	-999	n/a	n/a	n/a	n/a	7	[0, 0, 0]	-999	PAL1	3	R1312N
813.275	0.0	814732	COUNTDOWN_START	n/a	n/a	-999	-999	n/a	n/a	n/a	n/a	7	[0, 0, 0]	-999	PAL1	3	R1312N
813.275	10.429	814732	WAITING_END	n/a	n/a	-999	-999	n/a	n/a	n/a	n/a	7	[0, 0, 0]	-999	PAL1	3	R1312N
823.704	0.0	825161	COUNTDOWN_END	n/a	n/a	-999	-999	n/a	n/a	n/a	n/a	7	[0, 0, 0]	-999	PAL1	3	R1312N
823.704	0.69	825161	ORIENT_START	n/a	n/a	-999	-999	n/a	n/a	n/a	n/a	7	[0, 0, 0]	-999	PAL1	3	R1312N
824.394	0.001	825851	ORIENT_END	n/a	n/a	-999	-999	n/a	n/a	n/a	n/a	7	[0, 0, 0]	-999	PAL1	3	R1312N
824.395	1.071	825852	ENCODING_START	n/a	n/a	-999	-999	n/a	n/a	n/a	n/a	7	[0, 0, 0]	-999	PAL1	3	R1312N
825.466	4.029	826923	STUDY_PAIR	n/a	wordpools/wordpool_EN.txt	1	-999	n/a	BUSH	BUSH	PEACH	7	[0, 0, 0]	-999	PAL1	3	R1312N
829.495	0.66	830952	STUDY_PAIR_OFF	n/a	n/a	1	-999	n/a	BUSH	BUSH	PEACH	7	[0, 0, 0]	-999	PAL1	3	R1312N
830.155	4.04	831612	STUDY_PAIR	n/a	wordpools/wordpool_EN.txt	2	-999	n/a	FLUTE	SLIME	FLUTE	7	[0, 0, 0]	-999	PAL1	3	R1312N
834.195	0.555	835651	STUDY_PAIR_OFF	n/a	n/a	2	-999	n/a	FLUTE	SLIME	FLUTE	7	[0, 0, 0]	-999	PAL1	3	R1312N
834.75	4.029	836206	STUDY_PAIR	n/a	wordpools/wordpool_EN.txt	3	-999	n/a	HAT	APE	HAT	7	[0, 0, 0]	-999	PAL1	3	R1312N
838.779	0.706	840235	STUDY_PAIR_OFF	n/a	n/a	3	-999	n/a	HAT	APE	HAT	7	[0, 0, 0]	-999	PAL1	3	R1312N
839.485	4.029	840941	STUDY_PAIR	n/a	wordpools/wordpool_EN.txt	4	-999	n/a	BAT	BAT	CLOTH	7	[0, 0, 0]	-999	PAL1	3	R1312N
843.514	0.509	844970	STUDY_PAIR_OFF	n/a	n/a	4	-999	n/a	BAT	BAT	CLOTH	7	[0, 0, 0]	-999	PAL1	3	R1312N
844.023	4.007	845479	STUDY_PAIR	n/a	wordpools/wordpool_EN.txt	5	-999	n/a	BALL	BALL	ARM	7	[0, 0, 0]	-999	PAL1	3	R1312N
848.03	0.541	849486	STUDY_PAIR_OFF	n/a	n/a	5	-999	n/a	BALL	BALL	ARM	7	[0, 0, 0]	-999	PAL1	3	R1312N
848.571	4.028	850027	STUDY_PAIR	n/a	wordpools/wordpool_EN.txt	6	-999	n/a	SOAP	ROOT	SOAP	7	[0, 0, 0]	-999	PAL1	3	R1312N
852.599	0.001	854055	STUDY_PAIR_OFF	n/a	n/a	6	-999	n/a	SOAP	ROOT	SOAP	7	[0, 0, 0]	-999	PAL1	3	R1312N
852.6	0.0	854056	ENCODING_END	n/a	n/a	-999	-999	n/a	n/a	n/a	n/a	7	[0, 0, 0]	-999	PAL1	3	R1312N
852.6	0.0	854056	MATH_START	n/a	n/a	-999	-999	n/a	n/a	n/a	n/a	7	[0, 0, 0]	-999	PAL1	3	R1312N
852.6	0.015	854056	START	n/a	n/a	-999	-999	n/a	n/a	n/a	n/a	7	[-999, -999, -999]	-999	PAL1	3	R1312N
852.615	7.952	854071	PROB	7918	n/a	-999	-999	n/a	n/a	n/a	n/a	7	[7, 9, 2]	18	PAL1	3	R1312N
860.567	5.233	862023	PROB	5205	n/a	-999	-999	n/a	n/a	n/a	n/a	7	[7, 7, 5]	19	PAL1	3	R1312N
865.8	8.189	867255	PROB	8189	n/a	-999	-999	n/a	n/a	n/a	n/a	7	[7, 4, 5]	16	PAL1	3	R1312N
873.989	0.012	875444	STOP	n/a	n/a	-999	-999	n/a	n/a	n/a	n/a	7	[-999, -999, -999]	-999	PAL1	3	R1312N
874.001	0.64	875456	MATH_END	n/a	n/a	-999	-999	n/a	n/a	n/a	n/a	7	[0, 0, 0]	-999	PAL1	3	R1312N
874.641	0.002	876096	RETRIEVAL_START	n/a	n/a	-999	-999	n/a	n/a	n/a	n/a	7	[0, 0, 0]	-999	PAL1	3	R1312N
874.643	0.275	876098	ORIENT_START	n/a	n/a	-999	-999	n/a	n/a	n/a	n/a	7	[0, 0, 0]	-999	PAL1	3	R1312N
874.918	0.629	876373	ORIENT_END	n/a	n/a	-999	-999	n/a	n/a	n/a	n/a	7	[0, 0, 0]	-999	PAL1	3	R1312N
875.547	0.0	877002	REC_START	n/a	n/a	5	1	ARM	BALL	BALL	ARM	7	[0, 0, 0]	-999	PAL1	3	R1312N
875.547	2.043	877002	PROBE_START	n/a	wordpools/wordpool_EN.txt	5	1	ARM	BALL	BALL	ARM	7	[0, 0, 0]	-999	PAL1	3	R1312N
877.59	1.98	879045	REC_EVENT	2043	n/a	5	1	ARM	BALL	BALL	ARM	7	[0, 0, 0]	-999	PAL1	3	R1312N
879.57	1.001	881025	PROBE_END	n/a	n/a	5	1	ARM	n/a	BALL	ARM	7	[0, 0, 0]	-999	PAL1	3	R1312N
880.571	0.011	882026	REC_END	n/a	n/a	5	1	ARM	n/a	BALL	ARM	7	[0, 0, 0]	-999	PAL1	3	R1312N
880.582	0.27	882037	ORIENT_START	n/a	n/a	-999	-999	n/a	n/a	n/a	n/a	7	[0, 0, 0]	-999	PAL1	3	R1312N
880.852	0.688	882307	ORIENT_END	n/a	n/a	-999	-999	n/a	n/a	n/a	n/a	7	[0, 0, 0]	-999	PAL1	3	R1312N
881.54	0.0	882995	REC_START	n/a	n/a	2	2	SLIME	FLUTE	SLIME	FLUTE	7	[0, 0, 0]	-999	PAL1	3	R1312N
881.54	1.695	882995	PROBE_START	n/a	wordpools/wordpool_EN.txt	2	2	SLIME	FLUTE	SLIME	FLUTE	7	[0, 0, 0]	-999	PAL1	3	R1312N
883.235	2.336	884690	REC_EVENT	1695	n/a	2	2	SLIME	FLUTE	SLIME	FLUTE	7	[0, 0, 0]	-999	PAL1	3	R1312N
885.571	1.001	887026	PROBE_END	n/a	n/a	2	2	SLIME	n/a	SLIME	FLUTE	7	[0, 0, 0]	-999	PAL1	3	R1312N
886.572	0.012	888027	REC_END	n/a	n/a	2	2	SLIME	n/a	SLIME	FLUTE	7	[0, 0, 0]	-999	PAL1	3	R1312N
886.584	0.269	888039	ORIENT_START	n/a	n/a	-999	-999	n/a	n/a	n/a	n/a	7	[0, 0, 0]	-999	PAL1	3	R1312N
886.853	0.706	888308	ORIENT_END	n/a	n/a	-999	-999	n/a	n/a	n/a	n/a	7	[0, 0, 0]	-999	PAL1	3	R1312N
887.559	0.0	889014	REC_START	n/a	n/a	1	3	PEACH	BUSH	BUSH	PEACH	7	[0, 0, 0]	-999	PAL1	3	R1312N
887.559	2.598	889014	PROBE_START	n/a	wordpools/wordpool_EN.txt	1	3	PEACH	BUSH	BUSH	PEACH	7	[0, 0, 0]	-999	PAL1	3	R1312N
890.157	1.432	891612	REC_EVENT	2598	n/a	1	3	PEACH	BUSH	BUSH	PEACH	7	[0, 0, 0]	-999	PAL1	3	R1312N
891.589	1.0	893044	PROBE_END	n/a	n/a	1	3	PEACH	n/a	BUSH	PEACH	7	[0, 0, 0]	-999	PAL1	3	R1312N
892.589	0.012	894044	REC_END	n/a	n/a	1	3	PEACH	n/a	BUSH	PEACH	7	[0, 0, 0]	-999	PAL1	3	R1312N
892.601	0.27	894056	ORIENT_START	n/a	n/a	-999	-999	n/a	n/a	n/a	n/a	7	[0, 0, 0]	-999	PAL1	3	R1312N
892.871	0.741	894326	ORIENT_END	n/a	n/a	-999	-999	n/a	n/a	n/a	n/a	7	[0, 0, 0]	-999	PAL1	3	R1312N
893.612	0.0	895067	REC_START	n/a	n/a	4	4	CLOTH	BAT	BAT	CLOTH	7	[0, 0, 0]	-999	PAL1	3	R1312N
893.612	2.066	895067	PROBE_START	n/a	wordpools/wordpool_EN.txt	4	4	CLOTH	BAT	BAT	CLOTH	7	[0, 0, 0]	-999	PAL1	3	R1312N
895.678	1.961	897133	REC_EVENT	2066	n/a	4	4	CLOTH	BAT	BAT	CLOTH	7	[0, 0, 0]	-999	PAL1	3	R1312N
897.639	0.999	899094	PROBE_END	n/a	n/a	4	4	CLOTH	n/a	BAT	CLOTH	7	[0, 0, 0]	-999	PAL1	3	R1312N
898.638	0.006	900092	REC_END	n/a	n/a	4	4	CLOTH	n/a	BAT	CLOTH	7	[0, 0, 0]	-999	PAL1	3	R1312N
898.644	0.278	900098	ORIENT_START	n/a	n/a	-999	-999	n/a	n/a	n/a	n/a	7	[0, 0, 0]	-999	PAL1	3	R1312N
898.922	0.634	900376	ORIENT_END	n/a	n/a	-999	-999	n/a	n/a	n/a	n/a	7	[0, 0, 0]	-999	PAL1	3	R1312N
899.556	0.001	901010	REC_START	n/a	n/a	3	5	APE	HAT	APE	HAT	7	[0, 0, 0]	-999	PAL1	3	R1312N
899.557	2.109	901011	PROBE_START	n/a	wordpools/wordpool_EN.txt	3	5	APE	HAT	APE	HAT	7	[0, 0, 0]	-999	PAL1	3	R1312N
901.666	1.925	903120	REC_EVENT	2109	n/a	3	5	APE	HAT	APE	HAT	7	[0, 0, 0]	-999	PAL1	3	R1312N
903.591	0.999	905045	PROBE_END	n/a	n/a	3	5	APE	n/a	APE	HAT	7	[0, 0, 0]	-999	PAL1	3	R1312N
904.59	0.01	906044	REC_END	n/a	n/a	3	5	APE	n/a	APE	HAT	7	[0, 0, 0]	-999	PAL1	3	R1312N
904.6	0.273	906054	ORIENT_START	n/a	n/a	-999	-999	n/a	n/a	n/a	n/a	7	[0, 0, 0]	-999	PAL1	3	R1312N
904.873	0.545	906327	ORIENT_END	n/a	n/a	-999	-999	n/a	n/a	n/a	n/a	7	[0, 0, 0]	-999	PAL1	3	R1312N
905.418	0.001	906872	REC_START	n/a	n/a	6	6	ROOT	SOAP	ROOT	SOAP	7	[0, 0, 0]	-999	PAL1	3	R1312N
905.419	1.718	906873	PROBE_START	n/a	wordpools/wordpool_EN.txt	6	6	ROOT	SOAP	ROOT	SOAP	7	[0, 0, 0]	-999	PAL1	3	R1312N
907.137	2.305	908591	REC_EVENT	1718	n/a	6	6	ROOT	SOAP	ROOT	SOAP	7	[0, 0, 0]	-999	PAL1	3	R1312N
909.442	0.999	910896	PROBE_END	n/a	n/a	6	6	ROOT	n/a	ROOT	SOAP	7	[0, 0, 0]	-999	PAL1	3	R1312N
910.441	0.01	911895	REC_END	n/a	n/a	6	6	ROOT	n/a	ROOT	SOAP	7	[0, 0, 0]	-999	PAL1	3	R1312N
910.451	0.0	911905	RETRIEVAL_END	n/a	n/a	-999	-999	n/a	n/a	n/a	n/a	7	[0, 0, 0]	-999	PAL1	3	R1312N
910.451	0.02	911905	TRIAL_END	n/a	n/a	-999	-999	n/a	n/a	n/a	n/a	7	[0, 0, 0]	-999	PAL1	3	R1312N
910.471	0.0	911925	TRIAL_START	n/a	n/a	-999	-999	n/a	n/a	n/a	n/a	7	[0, 0, 0]	-999	PAL1	3	R1312N
910.471	0.0	911925	TRIAL	n/a	n/a	-999	-999	n/a	n/a	n/a	n/a	8	[0, 0, 0]	-999	PAL1	3	R1312N
910.471	2.121	911925	WAITING_START	n/a	n/a	-999	-999	n/a	n/a	n/a	n/a	8	[0, 0, 0]	-999	PAL1	3	R1312N
912.592	0.0	914046	WAITING_END	n/a	n/a	-999	-999	n/a	n/a	n/a	n/a	8	[0, 0, 0]	-999	PAL1	3	R1312N
912.592	10.43	914046	COUNTDOWN_START	n/a	n/a	-999	-999	n/a	n/a	n/a	n/a	8	[0, 0, 0]	-999	PAL1	3	R1312N
923.022	0.001	924476	COUNTDOWN_END	n/a	n/a	-999	-999	n/a	n/a	n/a	n/a	8	[0, 0, 0]	-999	PAL1	3	R1312N
923.023	0.72	924477	ORIENT_START	n/a	n/a	-999	-999	n/a	n/a	n/a	n/a	8	[0, 0, 0]	-999	PAL1	3	R1312N
923.743	0.001	925197	ORIENT_END	n/a	n/a	-999	-999	n/a	n/a	n/a	n/a	8	[0, 0, 0]	-999	PAL1	3	R1312N
923.744	1.024	925198	ENCODING_START	n/a	n/a	-999	-999	n/a	n/a	n/a	n/a	8	[0, 0, 0]	-999	PAL1	3	R1312N
924.768	4.026	926222	STUDY_PAIR	n/a	wordpools/wordpool_EN.txt	1	-999	n/a	PLANT	LAMB	SPONGE	8	[0, 0, 0]	-999	PAL1	3	R1312N
928.794	0.543	930248	STUDY_PAIR_OFF	n/a	n/a	1	-999	n/a	PLANT	LAMB	SPONGE	8	[0, 0, 0]	-999	PAL1	3	R1312N
929.337	4.042	930791	STUDY_PAIR	n/a	wordpools/wordpool_EN.txt	2	-999	n/a	SQUARE	SQUARE	HORSE	8	[0, 0, 0]	-999	PAL1	3	R1312N
933.379	0.696	934832	STUDY_PAIR_OFF	n/a	n/a	2	-999	n/a	SQUARE	SQUARE	HORSE	8	[0, 0, 0]	-999	PAL1	3	R1312N
934.075	4.037	935528	STUDY_PAIR	n/a	wordpools/wordpool_EN.txt	3	-999	n/a	SHELL	STREET	SHELL	8	[0, 0, 0]	-999	PAL1	3	R1312N
938.112	0.691	939565	STUDY_PAIR_OFF	n/a	n/a	3	-999	n/a	SHELL	STREET	SHELL	8	[0, 0, 0]	-999	PAL1	3	R1312N
938.803	4.026	940256	STUDY_PAIR	n/a	wordpools/wordpool_EN.txt	4	-999	n/a	CANE	TIE	CANE	8	[0, 0, 0]	-999	PAL1	3	R1312N
942.829	0.65	944282	STUDY_PAIR_OFF	n/a	n/a	4	-999	n/a	CANE	TIE	CANE	8	[0, 0, 0]	-999	PAL1	3	R1312N
943.479	4.035	944932	STUDY_PAIR	n/a	wordpools/wordpool_EN.txt	5	-999	n/a	BOWL	EEL	BOWL	8	[0, 0, 0]	-999	PAL1	3	R1312N
947.514	0.643	948967	STUDY_PAIR_OFF	n/a	n/a	5	-999	n/a	BOWL	EEL	BOWL	8	[0, 0, 0]	-999	PAL1	3	R1312N
948.157	4.041	949610	STUDY_PAIR	n/a	wordpools/wordpool_EN.txt	6	-999	n/a	SKUNK	SKUNK	GOLD	8	[0, 0, 0]	-999	PAL1	3	R1312N
952.198	0.0	953651	ENCODING_END	n/a	n/a	-999	-999	n/a	n/a	n/a	n/a	8	[0, 0, 0]	-999	PAL1	3	R1312N
952.198	0.001	953651	STUDY_PAIR_OFF	n/a	n/a	6	-999	n/a	SKUNK	SKUNK	GOLD	8	[0, 0, 0]	-999	PAL1	3	R1312N
952.199	0.0	953652	MATH_START	n/a	n/a	-999	-999	n/a	n/a	n/a	n/a	8	[0, 0, 0]	-999	PAL1	3	R1312N
952.199	0.015	953652	START	n/a	n/a	-999	-999	n/a	n/a	n/a	n/a	8	[-999, -999, -999]	-999	PAL1	3	R1312N
952.214	7.169	953667	PROB	7142	n/a	-999	-999	n/a	n/a	n/a	n/a	8	[2, 9, 4]	15	PAL1	3	R1312N
959.383	3.383	960836	PROB	3357	n/a	-999	-999	n/a	n/a	n/a	n/a	8	[3, 5, 3]	11	PAL1	3	R1312N
962.766	7.201	964219	PROB	7167	n/a	-999	-999	n/a	n/a	n/a	n/a	8	[9, 8, 7]	26	PAL1	3	R1312N
969.967	8.198	971419	PROB	8198	n/a	-999	-999	n/a	n/a	n/a	n/a	8	[5, 3, 8]	16	PAL1	3	R1312N
978.165	0.02	979617	STOP	n/a	n/a	-999	-999	n/a	n/a	n/a	n/a	8	[-999, -999, -999]	-999	PAL1	3	R1312N
978.185	0.514	979637	MATH_END	n/a	n/a	-999	-999	n/a	n/a	n/a	n/a	8	[0, 0, 0]	-999	PAL1	3	R1312N
978.699	0.002	980151	RETRIEVAL_START	n/a	n/a	-999	-999	n/a	n/a	n/a	n/a	8	[0, 0, 0]	-999	PAL1	3	R1312N
978.701	0.284	980153	ORIENT_START	n/a	n/a	-999	-999	n/a	n/a	n/a	n/a	8	[0, 0, 0]	-999	PAL1	3	R1312N
978.985	0.586	980437	ORIENT_END	n/a	n/a	-999	-999	n/a	n/a	n/a	n/a	8	[0, 0, 0]	-999	PAL1	3	R1312N
979.571	0.0	981023	REC_START	n/a	n/a	1	1	SPONGE	PLANT	LAMB	SPONGE	8	[0, 0, 0]	-999	PAL1	3	R1312N
979.571	2.0	981023	PROBE_START	n/a	wordpools/wordpool_EN.txt	1	1	SPONGE	PLANT	LAMB	SPONGE	8	[0, 0, 0]	-999	PAL1	3	R1312N
981.571	2.033	983023	REC_EVENT	2000	n/a	1	1	SPONGE	PLANT	LAMB	SPONGE	8	[0, 0, 0]	-999	PAL1	3	R1312N
983.604	1.0	985056	PROBE_END	n/a	n/a	1	1	SPONGE	n/a	LAMB	SPONGE	8	[0, 0, 0]	-999	PAL1	3	R1312N
984.604	0.01	986056	REC_END	n/a	n/a	1	1	SPONGE	n/a	LAMB	SPONGE	8	[0, 0, 0]	-999	PAL1	3	R1312N
984.614	0.272	986066	ORIENT_START	n/a	n/a	-999	-999	n/a	n/a	n/a	n/a	8	[0, 0, 0]	-999	PAL1	3	R1312N
984.886	0.642	986338	ORIENT_END	n/a	n/a	-999	-999	n/a	n/a	n/a	n/a	8	[0, 0, 0]	-999	PAL1	3	R1312N
985.528	0.0	986980	PROBE_START	n/a	wordpools/wordpool_EN.txt	6	2	GOLD	SKUNK	SKUNK	GOLD	8	[0, 0, 0]	-999	PAL1	3	R1312N
985.528	1.705	986980	REC_START	n/a	n/a	6	2	GOLD	SKUNK	SKUNK	GOLD	8	[0, 0, 0]	-999	PAL1	3	R1312N
987.233	2.322	988685	REC_EVENT	1705	n/a	6	2	GOLD	SKUNK	SKUNK	GOLD	8	[0, 0, 0]	-999	PAL1	3	R1312N
989.555	1.0	991007	PROBE_END	n/a	n/a	6	2	GOLD	n/a	SKUNK	GOLD	8	[0, 0, 0]	-999	PAL1	3	R1312N
990.555	0.012	992007	REC_END	n/a	n/a	6	2	GOLD	n/a	SKUNK	GOLD	8	[0, 0, 0]	-999	PAL1	3	R1312N
990.567	0.27	992019	ORIENT_START	n/a	n/a	-999	-999	n/a	n/a	n/a	n/a	8	[0, 0, 0]	-999	PAL1	3	R1312N
990.837	0.747	992289	ORIENT_END	n/a	n/a	-999	-999	n/a	n/a	n/a	n/a	8	[0, 0, 0]	-999	PAL1	3	R1312N
991.584	0.0	993036	REC_START	n/a	n/a	5	3	EEL	BOWL	EEL	BOWL	8	[0, 0, 0]	-999	PAL1	3	R1312N
991.584	2.036	993036	PROBE_START	n/a	wordpools/wordpool_EN.txt	5	3	EEL	BOWL	EEL	BOWL	8	[0, 0, 0]	-999	PAL1	3	R1312N
993.62	1.986	995072	REC_EVENT	2036	n/a	5	3	EEL	BOWL	EEL	BOWL	8	[0, 0, 0]	-999	PAL1	3	R1312N
995.606	1.0	997058	PROBE_END	n/a	n/a	5	3	EEL	n/a	EEL	BOWL	8	[0, 0, 0]	-999	PAL1	3	R1312N
996.606	0.006	998058	REC_END	n/a	n/a	5	3	EEL	n/a	EEL	BOWL	8	[0, 0, 0]	-999	PAL1	3	R1312N
996.612	0.276	998064	ORIENT_START	n/a	n/a	-999	-999	n/a	n/a	n/a	n/a	8	[0, 0, 0]	-999	PAL1	3	R1312N
996.888	0.597	998340	ORIENT_END	n/a	n/a	-999	-999	n/a	n/a	n/a	n/a	8	[0, 0, 0]	-999	PAL1	3	R1312N
997.485	0.001	998937	REC_START	n/a	n/a	4	4	TIE	CANE	TIE	CANE	8	[0, 0, 0]	-999	PAL1	3	R1312N
997.486	1.855	998938	PROBE_START	n/a	wordpools/wordpool_EN.txt	4	4	TIE	CANE	TIE	CANE	8	[0, 0, 0]	-999	PAL1	3	R1312N
999.341	2.166	1000792	REC_EVENT	1855	n/a	4	4	TIE	CANE	TIE	CANE	8	[0, 0, 0]	-999	PAL1	3	R1312N
1001.507	1.0	1002958	PROBE_END	n/a	n/a	4	4	TIE	n/a	TIE	CANE	8	[0, 0, 0]	-999	PAL1	3	R1312N
1002.507	0.01	1003958	REC_END	n/a	n/a	4	4	TIE	n/a	TIE	CANE	8	[0, 0, 0]	-999	PAL1	3	R1312N
1002.517	0.272	1003968	ORIENT_START	n/a	n/a	-999	-999	n/a	n/a	n/a	n/a	8	[0, 0, 0]	-999	PAL1	3	R1312N
1002.789	0.581	1004240	ORIENT_END	n/a	n/a	-999	-999	n/a	n/a	n/a	n/a	8	[0, 0, 0]	-999	PAL1	3	R1312N
1003.37	0.001	1004821	REC_START	n/a	n/a	3	5	STREET	SHELL	STREET	SHELL	8	[0, 0, 0]	-999	PAL1	3	R1312N
1003.371	1.905	1004822	PROBE_START	n/a	wordpools/wordpool_EN.txt	3	5	STREET	SHELL	STREET	SHELL	8	[0, 0, 0]	-999	PAL1	3	R1312N
1005.276	2.132	1006727	REC_EVENT	1905	n/a	3	5	STREET	SHELL	STREET	SHELL	8	[0, 0, 0]	-999	PAL1	3	R1312N
1007.408	1.01	1008859	PROBE_END	n/a	n/a	3	5	STREET	n/a	STREET	SHELL	8	[0, 0, 0]	-999	PAL1	3	R1312N
1008.418	0.009	1009869	REC_END	n/a	n/a	3	5	STREET	n/a	STREET	SHELL	8	[0, 0, 0]	-999	PAL1	3	R1312N
1008.427	0.28	1009878	ORIENT_START	n/a	n/a	-999	-999	n/a	n/a	n/a	n/a	8	[0, 0, 0]	-999	PAL1	3	R1312N
1008.707	0.553	1010158	ORIENT_END	n/a	n/a	-999	-999	n/a	n/a	n/a	n/a	8	[0, 0, 0]	-999	PAL1	3	R1312N
1009.26	0.0	1010711	PROBE_START	n/a	wordpools/wordpool_EN.txt	2	6	HORSE	SQUARE	SQUARE	HORSE	8	[0, 0, 0]	-999	PAL1	3	R1312N
1009.26	1.582	1010711	REC_START	n/a	n/a	2	6	HORSE	SQUARE	SQUARE	HORSE	8	[0, 0, 0]	-999	PAL1	3	R1312N
1010.842	2.449	1012293	REC_EVENT	1582	n/a	2	6	HORSE	SQUARE	SQUARE	HORSE	8	[0, 0, 0]	-999	PAL1	3	R1312N
1013.291	1.001	1014742	PROBE_END	n/a	n/a	2	6	HORSE	n/a	SQUARE	HORSE	8	[0, 0, 0]	-999	PAL1	3	R1312N
1014.292	0.009	1015743	REC_END	n/a	n/a	2	6	HORSE	n/a	SQUARE	HORSE	8	[0, 0, 0]	-999	PAL1	3	R1312N
1014.301	0.001	1015752	RETRIEVAL_END	n/a	n/a	-999	-999	n/a	n/a	n/a	n/a	8	[0, 0, 0]	-999	PAL1	3	R1312N
1014.302	0.02	1015753	TRIAL_END	n/a	n/a	-999	-999	n/a	n/a	n/a	n/a	8	[0, 0, 0]	-999	PAL1	3	R1312N
1014.322	0.001	1015773	TRIAL_START	n/a	n/a	-999	-999	n/a	n/a	n/a	n/a	8	[0, 0, 0]	-999	PAL1	3	R1312N
1014.323	0.0	1015774	TRIAL	n/a	n/a	-999	-999	n/a	n/a	n/a	n/a	9	[0, 0, 0]	-999	PAL1	3	R1312N
1014.323	11.703	1015774	WAITING_START	n/a	n/a	-999	-999	n/a	n/a	n/a	n/a	9	[0, 0, 0]	-999	PAL1	3	R1312N
1026.026	0.001	1027477	WAITING_END	n/a	n/a	-999	-999	n/a	n/a	n/a	n/a	9	[0, 0, 0]	-999	PAL1	3	R1312N
1026.027	10.428	1027478	COUNTDOWN_START	n/a	n/a	-999	-999	n/a	n/a	n/a	n/a	9	[0, 0, 0]	-999	PAL1	3	R1312N
1036.455	0.001	1037905	COUNTDOWN_END	n/a	n/a	-999	-999	n/a	n/a	n/a	n/a	9	[0, 0, 0]	-999	PAL1	3	R1312N
1036.456	0.756	1037906	ORIENT_START	n/a	n/a	-999	-999	n/a	n/a	n/a	n/a	9	[0, 0, 0]	-999	PAL1	3	R1312N
1037.212	0.0	1038662	ENCODING_START	n/a	n/a	-999	-999	n/a	n/a	n/a	n/a	9	[0, 0, 0]	-999	PAL1	3	R1312N
1037.212	1.206	1038662	ORIENT_END	n/a	n/a	-999	-999	n/a	n/a	n/a	n/a	9	[0, 0, 0]	-999	PAL1	3	R1312N
1038.418	4.029	1039868	STUDY_PAIR	n/a	wordpools/wordpool_EN.txt	1	-999	n/a	BRANCH	BRANCH	PARK	9	[0, 0, 0]	-999	PAL1	3	R1312N
1042.447	0.69	1043897	STUDY_PAIR_OFF	n/a	n/a	1	-999	n/a	BRANCH	BRANCH	PARK	9	[0, 0, 0]	-999	PAL1	3	R1312N
1043.137	4.026	1044587	STUDY_PAIR	n/a	wordpools/wordpool_EN.txt	2	-999	n/a	TRUCK	TRUCK	CLIFF	9	[0, 0, 0]	-999	PAL1	3	R1312N
1047.163	0.581	1048613	STUDY_PAIR_OFF	n/a	n/a	2	-999	n/a	TRUCK	TRUCK	CLIFF	9	[0, 0, 0]	-999	PAL1	3	R1312N
1047.744	4.037	1049194	STUDY_PAIR	n/a	wordpools/wordpool_EN.txt	3	-999	n/a	NEST	JAIL	NEST	9	[0, 0, 0]	-999	PAL1	3	R1312N
1051.781	0.659	1053231	STUDY_PAIR_OFF	n/a	n/a	3	-999	n/a	NEST	JAIL	NEST	9	[0, 0, 0]	-999	PAL1	3	R1312N
1052.44	4.026	1053890	STUDY_PAIR	n/a	wordpools/wordpool_EN.txt	4	-999	n/a	FLEA	JAR	FLEA	9	[0, 0, 0]	-999	PAL1	3	R1312N
1056.466	0.578	1057916	STUDY_PAIR_OFF	n/a	n/a	4	-999	n/a	FLEA	JAR	FLEA	9	[0, 0, 0]	-999	PAL1	3	R1312N
1057.044	4.038	1058494	STUDY_PAIR	n/a	wordpools/wordpool_EN.txt	5	-999	n/a	DIME	MAIL	DIME	9	[0, 0, 0]	-999	PAL1	3	R1312N
1061.082	0.663	1062532	STUDY_PAIR_OFF	n/a	n/a	5	-999	n/a	DIME	MAIL	DIME	9	[0, 0, 0]	-999	PAL1	3	R1312N
1061.745	4.038	1063195	STUDY_PAIR	n/a	wordpools/wordpool_EN.txt	6	-999	n/a	SUIT	SUIT	PASTE	9	[0, 0, 0]	-999	PAL1	3	R1312N
1065.783	0.001	1067232	STUDY_PAIR_OFF	n/a	n/a	6	-999	n/a	SUIT	SUIT	PASTE	9	[0, 0, 0]	-999	PAL1	3	R1312N
1065.784	0.0	1067233	MATH_START	n/a	n/a	-999	-999	n/a	n/a	n/a	n/a	9	[0, 0, 0]	-999	PAL1	3	R1312N
1065.784	0.0	1067233	ENCODING_END	n/a	n/a	-999	-999	n/a	n/a	n/a	n/a	9	[0, 0, 0]	-999	PAL1	3	R1312N
1065.784	0.015	1067233	START	n/a	n/a	-999	-999	n/a	n/a	n/a	n/a	9	[-999, -999, -999]	-999	PAL1	3	R1312N
1065.799	5.985	1067248	PROB	5957	n/a	-999	-999	n/a	n/a	n/a	n/a	9	[1, 5, 3]	9	PAL1	3	R1312N
1071.784	5.602	1073233	PROB	5572	n/a	-999	-999	n/a	n/a	n/a	n/a	9	[4, 7, 4]	15	PAL1	3	R1312N
1077.386	14.482	1078835	PROB	14482	n/a	-999	-999	n/a	n/a	n/a	n/a	9	[8, 5, 7]	20	PAL1	3	R1312N
1091.868	0.019	1093317	STOP	n/a	n/a	-999	-999	n/a	n/a	n/a	n/a	9	[-999, -999, -999]	-999	PAL1	3	R1312N
1091.887	0.594	1093336	MATH_END	n/a	n/a	-999	-999	n/a	n/a	n/a	n/a	9	[0, 0, 0]	-999	PAL1	3	R1312N
1092.481	0.002	1093930	RETRIEVAL_START	n/a	n/a	-999	-999	n/a	n/a	n/a	n/a	9	[0, 0, 0]	-999	PAL1	3	R1312N
1092.483	0.271	1093932	ORIENT_START	n/a	n/a	-999	-999	n/a	n/a	n/a	n/a	9	[0, 0, 0]	-999	PAL1	3	R1312N
1092.754	0.662	1094203	ORIENT_END	n/a	n/a	-999	-999	n/a	n/a	n/a	n/a	9	[0, 0, 0]	-999	PAL1	3	R1312N
1093.416	0.0	1094865	REC_START	n/a	n/a	3	1	JAIL	NEST	JAIL	NEST	9	[0, 0, 0]	-999	PAL1	3	R1312N
1093.416	2.547	1094865	PROBE_START	n/a	wordpools/wordpool_EN.txt	3	1	JAIL	NEST	JAIL	NEST	9	[0, 0, 0]	-999	PAL1	3	R1312N
1095.963	1.476	1097412	REC_EVENT	2547	n/a	3	1	JAIL	NEST	JAIL	NEST	9	[0, 0, 0]	-999	PAL1	3	R1312N
1097.439	1.0	1098888	PROBE_END	n/a	n/a	3	1	JAIL	n/a	JAIL	NEST	9	[0, 0, 0]	-999	PAL1	3	R1312N
1098.439	0.011	1099887	REC_END	n/a	n/a	3	1	JAIL	n/a	JAIL	NEST	9	[0, 0, 0]	-999	PAL1	3	R1312N
1098.45	0.272	1099898	ORIENT_START	n/a	n/a	-999	-999	n/a	n/a	n/a	n/a	9	[0, 0, 0]	-999	PAL1	3	R1312N
1098.722	0.511	1100170	ORIENT_END	n/a	n/a	-999	-999	n/a	n/a	n/a	n/a	9	[0, 0, 0]	-999	PAL1	3	R1312N
1099.233	0.0	1100681	PROBE_START	n/a	wordpools/wordpool_EN.txt	2	2	CLIFF	TRUCK	TRUCK	CLIFF	9	[0, 0, 0]	-999	PAL1	3	R1312N
1099.233	1.602	1100681	REC_START	n/a	n/a	2	2	CLIFF	TRUCK	TRUCK	CLIFF	9	[0, 0, 0]	-999	PAL1	3	R1312N
1100.835	2.421	1102283	REC_EVENT	1602	n/a	2	2	CLIFF	TRUCK	TRUCK	CLIFF	9	[0, 0, 0]	-999	PAL1	3	R1312N
1103.256	1.0	1104704	PROBE_END	n/a	n/a	2	2	CLIFF	n/a	TRUCK	CLIFF	9	[0, 0, 0]	-999	PAL1	3	R1312N
1104.256	0.012	1105704	REC_END	n/a	n/a	2	2	CLIFF	n/a	TRUCK	CLIFF	9	[0, 0, 0]	-999	PAL1	3	R1312N
1104.268	0.255	1105716	ORIENT_START	n/a	n/a	-999	-999	n/a	n/a	n/a	n/a	9	[0, 0, 0]	-999	PAL1	3	R1312N
1104.523	0.534	1105971	ORIENT_END	n/a	n/a	-999	-999	n/a	n/a	n/a	n/a	9	[0, 0, 0]	-999	PAL1	3	R1312N
1105.057	0.001	1106505	REC_START	n/a	n/a	1	3	PARK	BRANCH	BRANCH	PARK	9	[0, 0, 0]	-999	PAL1	3	R1312N
1105.058	1.787	1106506	PROBE_START	n/a	wordpools/wordpool_EN.txt	1	3	PARK	BRANCH	BRANCH	PARK	9	[0, 0, 0]	-999	PAL1	3	R1312N
1106.845	2.245	1108293	REC_EVENT	1787	n/a	1	3	PARK	BRANCH	BRANCH	PARK	9	[0, 0, 0]	-999	PAL1	3	R1312N
1109.09	1.0	1110538	PROBE_END	n/a	n/a	1	3	PARK	n/a	BRANCH	PARK	9	[0, 0, 0]	-999	PAL1	3	R1312N
1110.09	0.01	1111538	REC_END	n/a	n/a	1	3	PARK	n/a	BRANCH	PARK	9	[0, 0, 0]	-999	PAL1	3	R1312N
1110.1	0.274	1111548	ORIENT_START	n/a	n/a	-999	-999	n/a	n/a	n/a	n/a	9	[0, 0, 0]	-999	PAL1	3	R1312N
1110.374	0.609	1111822	ORIENT_END	n/a	n/a	-999	-999	n/a	n/a	n/a	n/a	9	[0, 0, 0]	-999	PAL1	3	R1312N
1110.983	0.001	1112431	REC_START	n/a	n/a	6	4	PASTE	SUIT	SUIT	PASTE	9	[0, 0, 0]	-999	PAL1	3	R1312N
1110.984	1.878	1112432	PROBE_START	n/a	wordpools/wordpool_EN.txt	6	4	PASTE	SUIT	SUIT	PASTE	9	[0, 0, 0]	-999	PAL1	3	R1312N
1112.862	2.146	1114310	REC_EVENT	1878	n/a	6	4	PASTE	SUIT	SUIT	PASTE	9	[0, 0, 0]	-999	PAL1	3	R1312N
1115.008	1.0	1116456	PROBE_END	n/a	n/a	6	4	PASTE	n/a	SUIT	PASTE	9	[0, 0, 0]	-999	PAL1	3	R1312N
1116.008	0.012	1117456	REC_END	n/a	n/a	6	4	PASTE	n/a	SUIT	PASTE	9	[0, 0, 0]	-999	PAL1	3	R1312N
1116.02	0.271	1117468	ORIENT_START	n/a	n/a	-999	-999	n/a	n/a	n/a	n/a	9	[0, 0, 0]	-999	PAL1	3	R1312N
1116.291	0.543	1117739	ORIENT_END	n/a	n/a	-999	-999	n/a	n/a	n/a	n/a	9	[0, 0, 0]	-999	PAL1	3	R1312N
1116.834	0.001	1118282	REC_START	n/a	n/a	5	5	MAIL	DIME	MAIL	DIME	9	[0, 0, 0]	-999	PAL1	3	R1312N
1116.835	1.855	1118283	PROBE_START	n/a	wordpools/wordpool_EN.txt	5	5	MAIL	DIME	MAIL	DIME	9	[0, 0, 0]	-999	PAL1	3	R1312N
1118.69	2.169	1120138	REC_EVENT	1855	n/a	5	5	MAIL	DIME	MAIL	DIME	9	[0, 0, 0]	-999	PAL1	3	R1312N
1120.859	0.999	1122307	PROBE_END	n/a	n/a	5	5	MAIL	n/a	MAIL	DIME	9	[0, 0, 0]	-999	PAL1	3	R1312N
1121.858	0.011	1123306	REC_END	n/a	n/a	5	5	MAIL	n/a	MAIL	DIME	9	[0, 0, 0]	-999	PAL1	3	R1312N
1121.869	0.273	1123317	ORIENT_START	n/a	n/a	-999	-999	n/a	n/a	n/a	n/a	9	[0, 0, 0]	-999	PAL1	3	R1312N
1122.142	0.625	1123590	ORIENT_END	n/a	n/a	-999	-999	n/a	n/a	n/a	n/a	9	[0, 0, 0]	-999	PAL1	3	R1312N
1122.767	0.001	1124215	REC_START	n/a	n/a	4	6	JAR	FLEA	JAR	FLEA	9	[0, 0, 0]	-999	PAL1	3	R1312N
1122.768	1.855	1124216	PROBE_START	n/a	wordpools/wordpool_EN.txt	4	6	JAR	FLEA	JAR	FLEA	9	[0, 0, 0]	-999	PAL1	3	R1312N
1124.623	2.17	1126071	REC_EVENT	1855	n/a	4	6	JAR	FLEA	JAR	FLEA	9	[0, 0, 0]	-999	PAL1	3	R1312N
1126.793	1.0	1128241	PROBE_END	n/a	n/a	4	6	JAR	n/a	JAR	FLEA	9	[0, 0, 0]	-999	PAL1	3	R1312N
1127.793	0.01	1129241	REC_END	n/a	n/a	4	6	JAR	n/a	JAR	FLEA	9	[0, 0, 0]	-999	PAL1	3	R1312N
1127.803	0.0	1129251	RETRIEVAL_END	n/a	n/a	-999	-999	n/a	n/a	n/a	n/a	9	[0, 0, 0]	-999	PAL1	3	R1312N
1127.803	0.022	1129251	TRIAL_END	n/a	n/a	-999	-999	n/a	n/a	n/a	n/a	9	[0, 0, 0]	-999	PAL1	3	R1312N
1127.825	0.001	1129273	TRIAL_START	n/a	n/a	-999	-999	n/a	n/a	n/a	n/a	9	[0, 0, 0]	-999	PAL1	3	R1312N
1127.826	0.0	1129274	TRIAL	n/a	n/a	-999	-999	n/a	n/a	n/a	n/a	10	[0, 0, 0]	-999	PAL1	3	R1312N
1127.826	6.652	1129274	WAITING_START	n/a	n/a	-999	-999	n/a	n/a	n/a	n/a	10	[0, 0, 0]	-999	PAL1	3	R1312N
1134.478	0.001	1135925	WAITING_END	n/a	n/a	-999	-999	n/a	n/a	n/a	n/a	10	[0, 0, 0]	-999	PAL1	3	R1312N
1134.479	10.429	1135926	COUNTDOWN_START	n/a	n/a	-999	-999	n/a	n/a	n/a	n/a	10	[0, 0, 0]	-999	PAL1	3	R1312N
1144.908	0.0	1146355	COUNTDOWN_END	n/a	n/a	-999	-999	n/a	n/a	n/a	n/a	10	[0, 0, 0]	-999	PAL1	3	R1312N
1144.908	0.738	1146355	ORIENT_START	n/a	n/a	-999	-999	n/a	n/a	n/a	n/a	10	[0, 0, 0]	-999	PAL1	3	R1312N
1145.646	0.001	1147093	ORIENT_END	n/a	n/a	-999	-999	n/a	n/a	n/a	n/a	10	[0, 0, 0]	-999	PAL1	3	R1312N
1145.647	1.2	1147094	ENCODING_START	n/a	n/a	-999	-999	n/a	n/a	n/a	n/a	10	[0, 0, 0]	-999	PAL1	3	R1312N
1146.847	4.033	1148294	STUDY_PAIR	n/a	wordpools/wordpool_EN.txt	1	-999	n/a	ANT	TEETH	ANT	10	[0, 0, 0]	-999	PAL1	3	R1312N
1150.88	0.65	1152327	STUDY_PAIR_OFF	n/a	n/a	1	-999	n/a	ANT	TEETH	ANT	10	[0, 0, 0]	-999	PAL1	3	R1312N
1151.53	4.035	1152977	STUDY_PAIR	n/a	wordpools/wordpool_EN.txt	2	-999	n/a	PET	PET	ROAD	10	[0, 0, 0]	-999	PAL1	3	R1312N
1155.565	0.678	1157012	STUDY_PAIR_OFF	n/a	n/a	2	-999	n/a	PET	PET	ROAD	10	[0, 0, 0]	-999	PAL1	3	R1312N
1156.243	4.039	1157690	STUDY_PAIR	n/a	wordpools/wordpool_EN.txt	3	-999	n/a	CHIN	SCHOOL	CHIN	10	[0, 0, 0]	-999	PAL1	3	R1312N
1160.282	0.615	1161729	STUDY_PAIR_OFF	n/a	n/a	3	-999	n/a	CHIN	SCHOOL	CHIN	10	[0, 0, 0]	-999	PAL1	3	R1312N
1160.897	4.036	1162344	STUDY_PAIR	n/a	wordpools/wordpool_EN.txt	4	-999	n/a	KEY	KEY	WAVE	10	[0, 0, 0]	-999	PAL1	3	R1312N
1164.933	0.68	1166380	STUDY_PAIR_OFF	n/a	n/a	4	-999	n/a	KEY	KEY	WAVE	10	[0, 0, 0]	-999	PAL1	3	R1312N
1165.613	4.037	1167059	STUDY_PAIR	n/a	wordpools/wordpool_EN.txt	5	-999	n/a	WING	MOON	OAR	10	[0, 0, 0]	-999	PAL1	3	R1312N
1169.65	0.513	1171096	STUDY_PAIR_OFF	n/a	n/a	5	-999	n/a	WING	MOON	OAR	10	[0, 0, 0]	-999	PAL1	3	R1312N
1170.163	4.038	1171609	STUDY_PAIR	n/a	wordpools/wordpool_EN.txt	6	-999	n/a	POOL	CAPE	POOL	10	[0, 0, 0]	-999	PAL1	3	R1312N
1174.201	0.0	1175647	STUDY_PAIR_OFF	n/a	n/a	6	-999	n/a	POOL	CAPE	POOL	10	[0, 0, 0]	-999	PAL1	3	R1312N
1174.201	0.0	1175647	ENCODING_END	n/a	n/a	-999	-999	n/a	n/a	n/a	n/a	10	[0, 0, 0]	-999	PAL1	3	R1312N
1174.201	0.001	1175647	MATH_START	n/a	n/a	-999	-999	n/a	n/a	n/a	n/a	10	[0, 0, 0]	-999	PAL1	3	R1312N
1174.202	0.015	1175648	START	n/a	n/a	-999	-999	n/a	n/a	n/a	n/a	10	[-999, -999, -999]	-999	PAL1	3	R1312N
1174.217	6.901	1175663	PROB	6867	n/a	-999	-999	n/a	n/a	n/a	n/a	10	[2, 7, 9]	18	PAL1	3	R1312N
1181.118	4.134	1182564	PROB	4111	n/a	-999	-999	n/a	n/a	n/a	n/a	10	[5, 8, 1]	14	PAL1	3	R1312N
1185.252	3.302	1186698	PROB	3273	n/a	-999	-999	n/a	n/a	n/a	n/a	10	[7, 5, 5]	17	PAL1	3	R1312N
1188.554	14.122	1190000	PROB	14122	n/a	-999	-999	n/a	n/a	n/a	n/a	10	[6, 8, 7]	21	PAL1	3	R1312N
1202.676	0.013	1204121	STOP	n/a	n/a	-999	-999	n/a	n/a	n/a	n/a	10	[-999, -999, -999]	-999	PAL1	3	R1312N
1202.689	0.614	1204134	MATH_END	n/a	n/a	-999	-999	n/a	n/a	n/a	n/a	10	[0, 0, 0]	-999	PAL1	3	R1312N
1203.303	0.002	1204748	RETRIEVAL_START	n/a	n/a	-999	-999	n/a	n/a	n/a	n/a	10	[0, 0, 0]	-999	PAL1	3	R1312N
1203.305	0.285	1204750	ORIENT_START	n/a	n/a	-999	-999	n/a	n/a	n/a	n/a	10	[0, 0, 0]	-999	PAL1	3	R1312N
1203.59	0.742	1205035	ORIENT_END	n/a	n/a	-999	-999	n/a	n/a	n/a	n/a	10	[0, 0, 0]	-999	PAL1	3	R1312N
1204.332	0.0	1205777	REC_START	n/a	n/a	1	1	TEETH	ANT	TEETH	ANT	10	[0, 0, 0]	-999	PAL1	3	R1312N
1204.332	2.081	1205777	PROBE_START	n/a	wordpools/wordpool_EN.txt	1	1	TEETH	ANT	TEETH	ANT	10	[0, 0, 0]	-999	PAL1	3	R1312N
1206.413	1.943	1207858	REC_EVENT	2081	n/a	1	1	TEETH	ANT	TEETH	ANT	10	[0, 0, 0]	-999	PAL1	3	R1312N
1208.356	1.001	1209801	PROBE_END	n/a	n/a	1	1	TEETH	n/a	TEETH	ANT	10	[0, 0, 0]	-999	PAL1	3	R1312N
1209.357	0.006	1210802	REC_END	n/a	n/a	1	1	TEETH	n/a	TEETH	ANT	10	[0, 0, 0]	-999	PAL1	3	R1312N
1209.363	0.277	1210808	ORIENT_START	n/a	n/a	-999	-999	n/a	n/a	n/a	n/a	10	[0, 0, 0]	-999	PAL1	3	R1312N
1209.64	0.72	1211085	ORIENT_END	n/a	n/a	-999	-999	n/a	n/a	n/a	n/a	10	[0, 0, 0]	-999	PAL1	3	R1312N
1210.36	0.0	1211805	REC_START	n/a	n/a	2	2	ROAD	PET	PET	ROAD	10	[0, 0, 0]	-999	PAL1	3	R1312N
1210.36	2.154	1211805	PROBE_START	n/a	wordpools/wordpool_EN.txt	2	2	ROAD	PET	PET	ROAD	10	[0, 0, 0]	-999	PAL1	3	R1312N
1212.514	1.878	1213959	REC_EVENT	2154	n/a	2	2	ROAD	PET	PET	ROAD	10	[0, 0, 0]	-999	PAL1	3	R1312N
1214.392	0.999	1215837	PROBE_END	n/a	n/a	2	2	ROAD	n/a	PET	ROAD	10	[0, 0, 0]	-999	PAL1	3	R1312N
1215.391	0.011	1216836	REC_END	n/a	n/a	2	2	ROAD	n/a	PET	ROAD	10	[0, 0, 0]	-999	PAL1	3	R1312N
1215.402	0.272	1216847	ORIENT_START	n/a	n/a	-999	-999	n/a	n/a	n/a	n/a	10	[0, 0, 0]	-999	PAL1	3	R1312N
1215.674	0.738	1217119	ORIENT_END	n/a	n/a	-999	-999	n/a	n/a	n/a	n/a	10	[0, 0, 0]	-999	PAL1	3	R1312N
1216.412	0.0	1217857	REC_START	n/a	n/a	5	3	OAR	WING	MOON	OAR	10	[0, 0, 0]	-999	PAL1	3	R1312N
1216.412	2.089	1217857	PROBE_START	n/a	wordpools/wordpool_EN.txt	5	3	OAR	WING	MOON	OAR	10	[0, 0, 0]	-999	PAL1	3	R1312N
1218.501	1.942	1219946	REC_EVENT	2089	n/a	5	3	OAR	WING	MOON	OAR	10	[0, 0, 0]	-999	PAL1	3	R1312N
1220.443	0.999	1221888	PROBE_END	n/a	n/a	5	3	OAR	n/a	MOON	OAR	10	[0, 0, 0]	-999	PAL1	3	R1312N
1221.442	0.007	1222887	REC_END	n/a	n/a	5	3	OAR	n/a	MOON	OAR	10	[0, 0, 0]	-999	PAL1	3	R1312N
1221.449	0.276	1222894	ORIENT_START	n/a	n/a	-999	-999	n/a	n/a	n/a	n/a	10	[0, 0, 0]	-999	PAL1	3	R1312N
1221.725	0.586	1223170	ORIENT_END	n/a	n/a	-999	-999	n/a	n/a	n/a	n/a	10	[0, 0, 0]	-999	PAL1	3	R1312N
1222.311	0.0	1223756	REC_START	n/a	n/a	6	4	CAPE	POOL	CAPE	POOL	10	[0, 0, 0]	-999	PAL1	3	R1312N
1222.311	2.18	1223756	PROBE_START	n/a	wordpools/wordpool_EN.txt	6	4	CAPE	POOL	CAPE	POOL	10	[0, 0, 0]	-999	PAL1	3	R1312N
1224.491	1.852	1225936	REC_EVENT	2180	n/a	6	4	CAPE	POOL	CAPE	POOL	10	[0, 0, 0]	-999	PAL1	3	R1312N
1226.343	1.0	1227788	PROBE_END	n/a	n/a	6	4	CAPE	n/a	CAPE	POOL	10	[0, 0, 0]	-999	PAL1	3	R1312N
1227.343	0.01	1228788	REC_END	n/a	n/a	6	4	CAPE	n/a	CAPE	POOL	10	[0, 0, 0]	-999	PAL1	3	R1312N
1227.353	0.273	1228798	ORIENT_START	n/a	n/a	-999	-999	n/a	n/a	n/a	n/a	10	[0, 0, 0]	-999	PAL1	3	R1312N
1227.626	0.62	1229071	ORIENT_END	n/a	n/a	-999	-999	n/a	n/a	n/a	n/a	10	[0, 0, 0]	-999	PAL1	3	R1312N
1228.246	0.0	1229691	REC_START	n/a	n/a	3	5	SCHOOL	CHIN	SCHOOL	CHIN	10	[0, 0, 0]	-999	PAL1	3	R1312N
1228.246	2.16	1229691	PROBE_START	n/a	wordpools/wordpool_EN.txt	3	5	SCHOOL	CHIN	SCHOOL	CHIN	10	[0, 0, 0]	-999	PAL1	3	R1312N
1230.406	1.871	1231851	REC_EVENT	2160	n/a	3	5	SCHOOL	CHIN	SCHOOL	CHIN	10	[0, 0, 0]	-999	PAL1	3	R1312N
1232.277	1.0	1233721	PROBE_END	n/a	n/a	3	5	SCHOOL	n/a	SCHOOL	CHIN	10	[0, 0, 0]	-999	PAL1	3	R1312N
1233.277	0.01	1234721	REC_END	n/a	n/a	3	5	SCHOOL	n/a	SCHOOL	CHIN	10	[0, 0, 0]	-999	PAL1	3	R1312N
1233.287	0.274	1234731	ORIENT_START	n/a	n/a	-999	-999	n/a	n/a	n/a	n/a	10	[0, 0, 0]	-999	PAL1	3	R1312N
1233.561	0.702	1235005	ORIENT_END	n/a	n/a	-999	-999	n/a	n/a	n/a	n/a	10	[0, 0, 0]	-999	PAL1	3	R1312N
1234.263	0.0	1235707	REC_START	n/a	n/a	4	6	WAVE	KEY	KEY	WAVE	10	[0, 0, 0]	-999	PAL1	3	R1312N
1234.263	2.368	1235707	PROBE_START	n/a	wordpools/wordpool_EN.txt	4	6	WAVE	KEY	KEY	WAVE	10	[0, 0, 0]	-999	PAL1	3	R1312N
1236.631	1.664	1238075	REC_EVENT	2368	n/a	4	6	WAVE	KEY	KEY	WAVE	10	[0, 0, 0]	-999	PAL1	3	R1312N
1238.295	0.999	1239739	PROBE_END	n/a	n/a	4	6	WAVE	n/a	KEY	WAVE	10	[0, 0, 0]	-999	PAL1	3	R1312N
1239.294	0.012	1240738	REC_END	n/a	n/a	4	6	WAVE	n/a	KEY	WAVE	10	[0, 0, 0]	-999	PAL1	3	R1312N
1239.306	0.001	1240750	RETRIEVAL_END	n/a	n/a	-999	-999	n/a	n/a	n/a	n/a	10	[0, 0, 0]	-999	PAL1	3	R1312N
1239.307	0.019	1240751	TRIAL_END	n/a	n/a	-999	-999	n/a	n/a	n/a	n/a	10	[0, 0, 0]	-999	PAL1	3	R1312N
1239.326	0.0	1240770	TRIAL_START	n/a	n/a	-999	-999	n/a	n/a	n/a	n/a	10	[0, 0, 0]	-999	PAL1	3	R1312N
1239.326	0.0	1240770	TRIAL	n/a	n/a	-999	-999	n/a	n/a	n/a	n/a	11	[0, 0, 0]	-999	PAL1	3	R1312N
1239.326	2.103	1240770	WAITING_START	n/a	n/a	-999	-999	n/a	n/a	n/a	n/a	11	[0, 0, 0]	-999	PAL1	3	R1312N
1241.429	0.001	1242873	WAITING_END	n/a	n/a	-999	-999	n/a	n/a	n/a	n/a	11	[0, 0, 0]	-999	PAL1	3	R1312N
1241.43	10.429	1242874	COUNTDOWN_START	n/a	n/a	-999	-999	n/a	n/a	n/a	n/a	11	[0, 0, 0]	-999	PAL1	3	R1312N
1251.859	0.0	1253303	COUNTDOWN_END	n/a	n/a	-999	-999	n/a	n/a	n/a	n/a	11	[0, 0, 0]	-999	PAL1	3	R1312N
1251.859	0.706	1253303	ORIENT_START	n/a	n/a	-999	-999	n/a	n/a	n/a	n/a	11	[0, 0, 0]	-999	PAL1	3	R1312N
1252.565	0.0	1254009	ORIENT_END	n/a	n/a	-999	-999	n/a	n/a	n/a	n/a	11	[0, 0, 0]	-999	PAL1	3	R1312N
1252.565	1.004	1254009	ENCODING_START	n/a	n/a	-999	-999	n/a	n/a	n/a	n/a	11	[0, 0, 0]	-999	PAL1	3	R1312N
1253.569	4.03	1255013	STUDY_PAIR	n/a	wordpools/wordpool_EN.txt	1	-999	n/a	SPEAR	SPEAR	DUCK	11	[0, 0, 0]	-999	PAL1	3	R1312N
1257.599	0.679	1259043	STUDY_PAIR_OFF	n/a	n/a	1	-999	n/a	SPEAR	SPEAR	DUCK	11	[0, 0, 0]	-999	PAL1	3	R1312N
1258.278	4.037	1259722	STUDY_PAIR	n/a	wordpools/wordpool_EN.txt	2	-999	n/a	STEAK	FOOT	STEAK	11	[0, 0, 0]	-999	PAL1	3	R1312N
1262.315	0.603	1263759	STUDY_PAIR_OFF	n/a	n/a	2	-999	n/a	STEAK	FOOT	STEAK	11	[0, 0, 0]	-999	PAL1	3	R1312N
1262.918	4.031	1264362	STUDY_PAIR	n/a	wordpools/wordpool_EN.txt	3	-999	n/a	n/a	BOOT	CAT	11	[0, 0, 0]	-999	PAL1	3	R1312N
1266.949	0.624	1268392	STUDY_PAIR_OFF	n/a	n/a	3	-999	n/a	n/a	BOOT	CAT	11	[0, 0, 0]	-999	PAL1	3	R1312N
1267.573	4.011	1269016	STUDY_PAIR	n/a	wordpools/wordpool_EN.txt	4	-999	n/a	DOLL	FENCE	DOLL	11	[0, 0, 0]	-999	PAL1	3	R1312N
1271.584	0.52	1273027	STUDY_PAIR_OFF	n/a	n/a	4	-999	n/a	DOLL	FENCE	DOLL	11	[0, 0, 0]	-999	PAL1	3	R1312N
1272.104	4.03	1273547	STUDY_PAIR	n/a	wordpools/wordpool_EN.txt	5	-999	n/a	SMOKE	SMOKE	BARN	11	[0, 0, 0]	-999	PAL1	3	R1312N
1276.134	0.607	1277577	STUDY_PAIR_OFF	n/a	n/a	5	-999	n/a	SMOKE	SMOKE	BARN	11	[0, 0, 0]	-999	PAL1	3	R1312N
1276.741	4.027	1278184	STUDY_PAIR	n/a	wordpools/wordpool_EN.txt	6	-999	n/a	STICK	LAWN	STICK	11	[0, 0, 0]	-999	PAL1	3	R1312N
1280.768	0.001	1282211	STUDY_PAIR_OFF	n/a	n/a	6	-999	n/a	STICK	LAWN	STICK	11	[0, 0, 0]	-999	PAL1	3	R1312N
1280.769	0.0	1282212	ENCODING_END	n/a	n/a	-999	-999	n/a	n/a	n/a	n/a	11	[0, 0, 0]	-999	PAL1	3	R1312N
1280.769	0.0	1282212	MATH_START	n/a	n/a	-999	-999	n/a	n/a	n/a	n/a	11	[0, 0, 0]	-999	PAL1	3	R1312N
1280.769	0.016	1282212	START	n/a	n/a	-999	-999	n/a	n/a	n/a	n/a	11	[-999, -999, -999]	-999	PAL1	3	R1312N
1280.785	13.736	1282228	PROB	13708	n/a	-999	-999	n/a	n/a	n/a	n/a	11	[3, 6, 4]	15	PAL1	3	R1312N
1294.521	10.885	1295964	PROB	10885	n/a	-999	-999	n/a	n/a	n/a	n/a	11	[8, 7, 6]	21	PAL1	3	R1312N
1305.406	0.017	1306848	STOP	n/a	n/a	-999	-999	n/a	n/a	n/a	n/a	11	[-999, -999, -999]	-999	PAL1	3	R1312N
1305.423	0.67	1306865	MATH_END	n/a	n/a	-999	-999	n/a	n/a	n/a	n/a	11	[0, 0, 0]	-999	PAL1	3	R1312N
1306.093	0.002	1307535	RETRIEVAL_START	n/a	n/a	-999	-999	n/a	n/a	n/a	n/a	11	[0, 0, 0]	-999	PAL1	3	R1312N
1306.095	0.278	1307537	ORIENT_START	n/a	n/a	-999	-999	n/a	n/a	n/a	n/a	11	[0, 0, 0]	-999	PAL1	3	R1312N
1306.373	0.664	1307815	ORIENT_END	n/a	n/a	-999	-999	n/a	n/a	n/a	n/a	11	[0, 0, 0]	-999	PAL1	3	R1312N
1307.037	0.0	1308479	REC_START	n/a	n/a	3	1	CAT	n/a	BOOT	CAT	11	[0, 0, 0]	-999	PAL1	3	R1312N
1307.037	2.357	1308479	PROBE_START	n/a	wordpools/wordpool_EN.txt	3	1	CAT	n/a	BOOT	CAT	11	[0, 0, 0]	-999	PAL1	3	R1312N
1309.394	0.685	1310836	REC_EVENT	2357	n/a	3	1	CAT	<>	BOOT	CAT	11	[0, 0, 0]	-999	PAL1	3	R1312N
1310.079	0.75	1311521	REC_EVENT	3042	n/a	3	1	CAT	<>	BOOT	CAT	11	[0, 0, 0]	-999	PAL1	3	R1312N
1310.829	0.244	1312271	REC_EVENT	3792	n/a	3	1	CAT	<>	BOOT	CAT	11	[0, 0, 0]	-999	PAL1	3	R1312N
1311.073	1.001	1312515	PROBE_END	n/a	n/a	3	1	CAT	n/a	BOOT	CAT	11	[0, 0, 0]	-999	PAL1	3	R1312N
1312.074	0.012	1313516	REC_END	n/a	n/a	3	1	CAT	n/a	BOOT	CAT	11	[0, 0, 0]	-999	PAL1	3	R1312N
1312.086	0.271	1313528	ORIENT_START	n/a	n/a	-999	-999	n/a	n/a	n/a	n/a	11	[0, 0, 0]	-999	PAL1	3	R1312N
1312.357	0.575	1313799	ORIENT_END	n/a	n/a	-999	-999	n/a	n/a	n/a	n/a	11	[0, 0, 0]	-999	PAL1	3	R1312N
1312.932	0.001	1314374	REC_START	n/a	n/a	4	2	FENCE	DOLL	FENCE	DOLL	11	[0, 0, 0]	-999	PAL1	3	R1312N
1312.933	1.63	1314375	PROBE_START	n/a	wordpools/wordpool_EN.txt	4	2	FENCE	DOLL	FENCE	DOLL	11	[0, 0, 0]	-999	PAL1	3	R1312N
1314.563	2.394	1316005	REC_EVENT	1630	n/a	4	2	FENCE	DOLL	FENCE	DOLL	11	[0, 0, 0]	-999	PAL1	3	R1312N
1316.957	1.0	1318399	PROBE_END	n/a	n/a	4	2	FENCE	n/a	FENCE	DOLL	11	[0, 0, 0]	-999	PAL1	3	R1312N
1317.957	0.01	1319399	REC_END	n/a	n/a	4	2	FENCE	n/a	FENCE	DOLL	11	[0, 0, 0]	-999	PAL1	3	R1312N
1317.967	0.274	1319409	ORIENT_START	n/a	n/a	-999	-999	n/a	n/a	n/a	n/a	11	[0, 0, 0]	-999	PAL1	3	R1312N
1318.241	0.592	1319683	ORIENT_END	n/a	n/a	-999	-999	n/a	n/a	n/a	n/a	11	[0, 0, 0]	-999	PAL1	3	R1312N
1318.833	0.0	1320275	REC_START	n/a	n/a	1	3	DUCK	SPEAR	SPEAR	DUCK	11	[0, 0, 0]	-999	PAL1	3	R1312N
1318.833	2.097	1320275	PROBE_START	n/a	wordpools/wordpool_EN.txt	1	3	DUCK	SPEAR	SPEAR	DUCK	11	[0, 0, 0]	-999	PAL1	3	R1312N
1320.93	1.928	1322372	REC_EVENT	2097	n/a	1	3	DUCK	SPEAR	SPEAR	DUCK	11	[0, 0, 0]	-999	PAL1	3	R1312N
1322.858	1.0	1324300	PROBE_END	n/a	n/a	1	3	DUCK	n/a	SPEAR	DUCK	11	[0, 0, 0]	-999	PAL1	3	R1312N
1323.858	0.01	1325300	REC_END	n/a	n/a	1	3	DUCK	n/a	SPEAR	DUCK	11	[0, 0, 0]	-999	PAL1	3	R1312N
1323.868	0.274	1325310	ORIENT_START	n/a	n/a	-999	-999	n/a	n/a	n/a	n/a	11	[0, 0, 0]	-999	PAL1	3	R1312N
1324.142	0.748	1325584	ORIENT_END	n/a	n/a	-999	-999	n/a	n/a	n/a	n/a	11	[0, 0, 0]	-999	PAL1	3	R1312N
1324.89	0.001	1326332	REC_START	n/a	n/a	2	4	FOOT	STEAK	FOOT	STEAK	11	[0, 0, 0]	-999	PAL1	3	R1312N
1324.891	2.047	1326333	PROBE_START	n/a	wordpools/wordpool_EN.txt	2	4	FOOT	STEAK	FOOT	STEAK	11	[0, 0, 0]	-999	PAL1	3	R1312N
1326.938	1.988	1328380	REC_EVENT	2047	n/a	2	4	FOOT	STEAK	FOOT	STEAK	11	[0, 0, 0]	-999	PAL1	3	R1312N
1328.926	1.0	1330368	PROBE_END	n/a	n/a	2	4	FOOT	n/a	FOOT	STEAK	11	[0, 0, 0]	-999	PAL1	3	R1312N
1329.926	0.006	1331368	REC_END	n/a	n/a	2	4	FOOT	n/a	FOOT	STEAK	11	[0, 0, 0]	-999	PAL1	3	R1312N
1329.932	0.278	1331374	ORIENT_START	n/a	n/a	-999	-999	n/a	n/a	n/a	n/a	11	[0, 0, 0]	-999	PAL1	3	R1312N
1330.21	0.639	1331652	ORIENT_END	n/a	n/a	-999	-999	n/a	n/a	n/a	n/a	11	[0, 0, 0]	-999	PAL1	3	R1312N
1330.849	0.001	1332291	REC_START	n/a	n/a	5	5	BARN	SMOKE	SMOKE	BARN	11	[0, 0, 0]	-999	PAL1	3	R1312N
1330.85	1.982	1332292	PROBE_START	n/a	wordpools/wordpool_EN.txt	5	5	BARN	SMOKE	SMOKE	BARN	11	[0, 0, 0]	-999	PAL1	3	R1312N
1332.832	2.045	1334273	REC_EVENT	1982	n/a	5	5	BARN	SMOKE	SMOKE	BARN	11	[0, 0, 0]	-999	PAL1	3	R1312N
1334.877	1.001	1336318	PROBE_END	n/a	n/a	5	5	BARN	n/a	SMOKE	BARN	11	[0, 0, 0]	-999	PAL1	3	R1312N
1335.878	0.011	1337319	REC_END	n/a	n/a	5	5	BARN	n/a	SMOKE	BARN	11	[0, 0, 0]	-999	PAL1	3	R1312N
1335.889	0.272	1337330	ORIENT_START	n/a	n/a	-999	-999	n/a	n/a	n/a	n/a	11	[0, 0, 0]	-999	PAL1	3	R1312N
1336.161	0.641	1337602	ORIENT_END	n/a	n/a	-999	-999	n/a	n/a	n/a	n/a	11	[0, 0, 0]	-999	PAL1	3	R1312N
1336.802	0.001	1338243	REC_START	n/a	n/a	6	6	LAWN	STICK	LAWN	STICK	11	[0, 0, 0]	-999	PAL1	3	R1312N
1336.803	1.732	1338244	PROBE_START	n/a	wordpools/wordpool_EN.txt	6	6	LAWN	STICK	LAWN	STICK	11	[0, 0, 0]	-999	PAL1	3	R1312N
1338.535	0.825	1339976	REC_EVENT	1732	n/a	6	6	LAWN	<>	LAWN	STICK	11	[0, 0, 0]	-999	PAL1	3	R1312N
1339.36	1.468	1340801	REC_EVENT	2557	n/a	6	6	LAWN	STICK	LAWN	STICK	11	[0, 0, 0]	-999	PAL1	3	R1312N
1340.828	1.001	1342269	PROBE_END	n/a	n/a	6	6	LAWN	n/a	LAWN	STICK	11	[0, 0, 0]	-999	PAL1	3	R1312N
1341.829	0.01	1343270	REC_END	n/a	n/a	6	6	LAWN	n/a	LAWN	STICK	11	[0, 0, 0]	-999	PAL1	3	R1312N
1341.839	0.0	1343280	RETRIEVAL_END	n/a	n/a	-999	-999	n/a	n/a	n/a	n/a	11	[0, 0, 0]	-999	PAL1	3	R1312N
1341.839	0.021	1343280	TRIAL_END	n/a	n/a	-999	-999	n/a	n/a	n/a	n/a	11	[0, 0, 0]	-999	PAL1	3	R1312N
1341.86	0.001	1343301	TRIAL_START	n/a	n/a	-999	-999	n/a	n/a	n/a	n/a	11	[0, 0, 0]	-999	PAL1	3	R1312N
1341.861	0.0	1343302	TRIAL	n/a	n/a	-999	-999	n/a	n/a	n/a	n/a	12	[0, 0, 0]	-999	PAL1	3	R1312N
1341.861	2.468	1343302	WAITING_START	n/a	n/a	-999	-999	n/a	n/a	n/a	n/a	12	[0, 0, 0]	-999	PAL1	3	R1312N
1344.329	0.0	1345770	WAITING_END	n/a	n/a	-999	-999	n/a	n/a	n/a	n/a	12	[0, 0, 0]	-999	PAL1	3	R1312N
1344.329	10.429	1345770	COUNTDOWN_START	n/a	n/a	-999	-999	n/a	n/a	n/a	n/a	12	[0, 0, 0]	-999	PAL1	3	R1312N
1354.758	0.001	1356199	COUNTDOWN_END	n/a	n/a	-999	-999	n/a	n/a	n/a	n/a	12	[0, 0, 0]	-999	PAL1	3	R1312N
1354.759	0.673	1356200	ORIENT_START	n/a	n/a	-999	-999	n/a	n/a	n/a	n/a	12	[0, 0, 0]	-999	PAL1	3	R1312N
1355.432	0.0	1356873	ORIENT_END	n/a	n/a	-999	-999	n/a	n/a	n/a	n/a	12	[0, 0, 0]	-999	PAL1	3	R1312N
1355.432	1.051	1356873	ENCODING_START	n/a	n/a	-999	-999	n/a	n/a	n/a	n/a	12	[0, 0, 0]	-999	PAL1	3	R1312N
1356.483	4.033	1357924	STUDY_PAIR	n/a	wordpools/wordpool_EN.txt	1	-999	n/a	CRANE	CRANE	PIPE	12	[0, 0, 0]	-999	PAL1	3	R1312N
1360.516	0.507	1361957	STUDY_PAIR_OFF	n/a	n/a	1	-999	n/a	CRANE	CRANE	PIPE	12	[0, 0, 0]	-999	PAL1	3	R1312N
1361.023	4.026	1362464	STUDY_PAIR	n/a	wordpools/wordpool_EN.txt	2	-999	n/a	EAR	INK	EAR	12	[0, 0, 0]	-999	PAL1	3	R1312N
1365.049	0.688	1366490	STUDY_PAIR_OFF	n/a	n/a	2	-999	n/a	EAR	INK	EAR	12	[0, 0, 0]	-999	PAL1	3	R1312N
1365.737	4.029	1367177	STUDY_PAIR	n/a	wordpools/wordpool_EN.txt	3	-999	n/a	BEAR	CHALK	BEAR	12	[0, 0, 0]	-999	PAL1	3	R1312N
1369.766	0.518	1371206	STUDY_PAIR_OFF	n/a	n/a	3	-999	n/a	BEAR	CHALK	BEAR	12	[0, 0, 0]	-999	PAL1	3	R1312N
1370.284	4.033	1371724	STUDY_PAIR	n/a	wordpools/wordpool_EN.txt	4	-999	n/a	SUN	SUN	STAIR	12	[0, 0, 0]	-999	PAL1	3	R1312N
1374.317	0.748	1375757	STUDY_PAIR_OFF	n/a	n/a	4	-999	n/a	SUN	SUN	STAIR	12	[0, 0, 0]	-999	PAL1	3	R1312N
1375.065	4.036	1376505	STUDY_PAIR	n/a	wordpools/wordpool_EN.txt	5	-999	n/a	n/a	HOUSE	HORN	12	[0, 0, 0]	-999	PAL1	3	R1312N
1379.101	0.578	1380541	STUDY_PAIR_OFF	n/a	n/a	5	-999	n/a	n/a	HOUSE	HORN	12	[0, 0, 0]	-999	PAL1	3	R1312N
1379.679	4.039	1381119	STUDY_PAIR	n/a	wordpools/wordpool_EN.txt	6	-999	n/a	GUARD	PANTS	GUARD	12	[0, 0, 0]	-999	PAL1	3	R1312N
1383.718	0.001	1385158	STUDY_PAIR_OFF	n/a	n/a	6	-999	n/a	GUARD	PANTS	GUARD	12	[0, 0, 0]	-999	PAL1	3	R1312N
1383.719	0.0	1385159	ENCODING_END	n/a	n/a	-999	-999	n/a	n/a	n/a	n/a	12	[0, 0, 0]	-999	PAL1	3	R1312N
1383.719	0.0	1385159	MATH_START	n/a	n/a	-999	-999	n/a	n/a	n/a	n/a	12	[0, 0, 0]	-999	PAL1	3	R1312N
1383.719	0.016	1385159	START	n/a	n/a	-999	-999	n/a	n/a	n/a	n/a	12	[-999, -999, -999]	-999	PAL1	3	R1312N
1383.735	9.719	1385175	PROB	9694	n/a	-999	-999	n/a	n/a	n/a	n/a	12	[9, 3, 7]	19	PAL1	3	R1312N
1393.454	5.283	1394894	PROB	5255	n/a	-999	-999	n/a	n/a	n/a	n/a	12	[3, 1, 8]	12	PAL1	3	R1312N
1398.737	5.386	1400177	PROB	5386	n/a	-999	-999	n/a	n/a	n/a	n/a	12	[8, 6, 2]	16	PAL1	3	R1312N
1404.123	0.015	1405562	STOP	n/a	n/a	-999	-999	n/a	n/a	n/a	n/a	12	[-999, -999, -999]	-999	PAL1	3	R1312N
1404.138	0.661	1405577	MATH_END	n/a	n/a	-999	-999	n/a	n/a	n/a	n/a	12	[0, 0, 0]	-999	PAL1	3	R1312N
1404.799	0.001	1406238	RETRIEVAL_START	n/a	n/a	-999	-999	n/a	n/a	n/a	n/a	12	[0, 0, 0]	-999	PAL1	3	R1312N
1404.8	0.272	1406239	ORIENT_START	n/a	n/a	-999	-999	n/a	n/a	n/a	n/a	12	[0, 0, 0]	-999	PAL1	3	R1312N
1405.072	0.598	1406511	ORIENT_END	n/a	n/a	-999	-999	n/a	n/a	n/a	n/a	12	[0, 0, 0]	-999	PAL1	3	R1312N
1405.67	0.0	1407109	REC_START	n/a	n/a	5	1	HORN	n/a	HOUSE	HORN	12	[0, 0, 0]	-999	PAL1	3	R1312N
1405.67	2.322	1407109	PROBE_START	n/a	wordpools/wordpool_EN.txt	5	1	HORN	n/a	HOUSE	HORN	12	[0, 0, 0]	-999	PAL1	3	R1312N
1407.992	1.714	1409431	REC_EVENT	2322	n/a	5	1	HORN	<>	HOUSE	HORN	12	[0, 0, 0]	-999	PAL1	3	R1312N
1409.706	1.0	1411145	PROBE_END	n/a	n/a	5	1	HORN	n/a	HOUSE	HORN	12	[0, 0, 0]	-999	PAL1	3	R1312N
1410.706	0.01	1412145	REC_END	n/a	n/a	5	1	HORN	n/a	HOUSE	HORN	12	[0, 0, 0]	-999	PAL1	3	R1312N
1410.716	0.274	1412155	ORIENT_START	n/a	n/a	-999	-999	n/a	n/a	n/a	n/a	12	[0, 0, 0]	-999	PAL1	3	R1312N
1410.99	0.652	1412429	ORIENT_END	n/a	n/a	-999	-999	n/a	n/a	n/a	n/a	12	[0, 0, 0]	-999	PAL1	3	R1312N
1411.642	0.0	1413081	REC_START	n/a	n/a	4	2	STAIR	SUN	SUN	STAIR	12	[0, 0, 0]	-999	PAL1	3	R1312N
1411.642	1.965	1413081	PROBE_START	n/a	wordpools/wordpool_EN.txt	4	2	STAIR	SUN	SUN	STAIR	12	[0, 0, 0]	-999	PAL1	3	R1312N
1413.607	2.067	1415046	REC_EVENT	1965	n/a	4	2	STAIR	SUN	SUN	STAIR	12	[0, 0, 0]	-999	PAL1	3	R1312N
1415.674	0.999	1417113	PROBE_END	n/a	n/a	4	2	STAIR	n/a	SUN	STAIR	12	[0, 0, 0]	-999	PAL1	3	R1312N
1416.673	0.011	1418112	REC_END	n/a	n/a	4	2	STAIR	n/a	SUN	STAIR	12	[0, 0, 0]	-999	PAL1	3	R1312N
1416.684	0.273	1418123	ORIENT_START	n/a	n/a	-999	-999	n/a	n/a	n/a	n/a	12	[0, 0, 0]	-999	PAL1	3	R1312N
1416.957	0.555	1418396	ORIENT_END	n/a	n/a	-999	-999	n/a	n/a	n/a	n/a	12	[0, 0, 0]	-999	PAL1	3	R1312N
1417.512	0.001	1418951	REC_START	n/a	n/a	3	3	CHALK	BEAR	CHALK	BEAR	12	[0, 0, 0]	-999	PAL1	3	R1312N
1417.513	1.824	1418952	PROBE_START	n/a	wordpools/wordpool_EN.txt	3	3	CHALK	BEAR	CHALK	BEAR	12	[0, 0, 0]	-999	PAL1	3	R1312N
1419.337	2.205	1420776	REC_EVENT	1824	n/a	3	3	CHALK	BEAR	CHALK	BEAR	12	[0, 0, 0]	-999	PAL1	3	R1312N
1421.542	1.0	1422981	PROBE_END	n/a	n/a	3	3	CHALK	n/a	CHALK	BEAR	12	[0, 0, 0]	-999	PAL1	3	R1312N
1422.542	0.011	1423981	REC_END	n/a	n/a	3	3	CHALK	n/a	CHALK	BEAR	12	[0, 0, 0]	-999	PAL1	3	R1312N
1422.553	0.272	1423992	ORIENT_START	n/a	n/a	-999	-999	n/a	n/a	n/a	n/a	12	[0, 0, 0]	-999	PAL1	3	R1312N
1422.825	0.599	1424264	ORIENT_END	n/a	n/a	-999	-999	n/a	n/a	n/a	n/a	12	[0, 0, 0]	-999	PAL1	3	R1312N
1423.424	0.001	1424863	REC_START	n/a	n/a	2	4	INK	EAR	INK	EAR	12	[0, 0, 0]	-999	PAL1	3	R1312N
1423.425	1.972	1424864	PROBE_START	n/a	wordpools/wordpool_EN.txt	2	4	INK	EAR	INK	EAR	12	[0, 0, 0]	-999	PAL1	3	R1312N
1425.397	2.063	1426836	REC_EVENT	1972	n/a	2	4	INK	EAR	INK	EAR	12	[0, 0, 0]	-999	PAL1	3	R1312N
1427.46	1.001	1428899	PROBE_END	n/a	n/a	2	4	INK	n/a	INK	EAR	12	[0, 0, 0]	-999	PAL1	3	R1312N
1428.461	0.011	1429900	REC_END	n/a	n/a	2	4	INK	n/a	INK	EAR	12	[0, 0, 0]	-999	PAL1	3	R1312N
1428.472	0.27	1429911	ORIENT_START	n/a	n/a	-999	-999	n/a	n/a	n/a	n/a	12	[0, 0, 0]	-999	PAL1	3	R1312N
1428.742	0.561	1430181	ORIENT_END	n/a	n/a	-999	-999	n/a	n/a	n/a	n/a	12	[0, 0, 0]	-999	PAL1	3	R1312N
1429.303	0.001	1430742	REC_START	n/a	n/a	1	5	PIPE	CRANE	CRANE	PIPE	12	[0, 0, 0]	-999	PAL1	3	R1312N
1429.304	1.781	1430743	PROBE_START	n/a	wordpools/wordpool_EN.txt	1	5	PIPE	CRANE	CRANE	PIPE	12	[0, 0, 0]	-999	PAL1	3	R1312N
1431.085	2.242	1432524	REC_EVENT	1781	n/a	1	5	PIPE	CRANE	CRANE	PIPE	12	[0, 0, 0]	-999	PAL1	3	R1312N
1433.327	1.0	1434765	PROBE_END	n/a	n/a	1	5	PIPE	n/a	CRANE	PIPE	12	[0, 0, 0]	-999	PAL1	3	R1312N
1434.327	0.01	1435765	REC_END	n/a	n/a	1	5	PIPE	n/a	CRANE	PIPE	12	[0, 0, 0]	-999	PAL1	3	R1312N
1434.337	0.257	1435775	ORIENT_START	n/a	n/a	-999	-999	n/a	n/a	n/a	n/a	12	[0, 0, 0]	-999	PAL1	3	R1312N
1434.594	0.52	1436032	ORIENT_END	n/a	n/a	-999	-999	n/a	n/a	n/a	n/a	12	[0, 0, 0]	-999	PAL1	3	R1312N
1435.114	0.001	1436552	REC_START	n/a	n/a	6	6	PANTS	GUARD	PANTS	GUARD	12	[0, 0, 0]	-999	PAL1	3	R1312N
1435.115	1.721	1436553	PROBE_START	n/a	wordpools/wordpool_EN.txt	6	6	PANTS	GUARD	PANTS	GUARD	12	[0, 0, 0]	-999	PAL1	3	R1312N
1436.836	2.308	1438274	REC_EVENT	1721	n/a	6	6	PANTS	GUARD	PANTS	GUARD	12	[0, 0, 0]	-999	PAL1	3	R1312N
1439.144	1.001	1440582	PROBE_END	n/a	n/a	6	6	PANTS	n/a	PANTS	GUARD	12	[0, 0, 0]	-999	PAL1	3	R1312N
1440.145	0.011	1441583	REC_END	n/a	n/a	6	6	PANTS	n/a	PANTS	GUARD	12	[0, 0, 0]	-999	PAL1	3	R1312N
1440.156	0.0	1441594	RETRIEVAL_END	n/a	n/a	-999	-999	n/a	n/a	n/a	n/a	12	[0, 0, 0]	-999	PAL1	3	R1312N
1440.156	0.022	1441594	TRIAL_END	n/a	n/a	-999	-999	n/a	n/a	n/a	n/a	12	[0, 0, 0]	-999	PAL1	3	R1312N
1440.178	0.0	1441616	TRIAL_START	n/a	n/a	-999	-999	n/a	n/a	n/a	n/a	12	[0, 0, 0]	-999	PAL1	3	R1312N
1440.178	0.001	1441616	TRIAL	n/a	n/a	-999	-999	n/a	n/a	n/a	n/a	13	[0, 0, 0]	-999	PAL1	3	R1312N
1440.179	1.632	1441617	WAITING_START	n/a	n/a	-999	-999	n/a	n/a	n/a	n/a	13	[0, 0, 0]	-999	PAL1	3	R1312N
1441.811	0.001	1443249	WAITING_END	n/a	n/a	-999	-999	n/a	n/a	n/a	n/a	13	[0, 0, 0]	-999	PAL1	3	R1312N
1441.812	10.429	1443250	COUNTDOWN_START	n/a	n/a	-999	-999	n/a	n/a	n/a	n/a	13	[0, 0, 0]	-999	PAL1	3	R1312N
1452.241	0.0	1453679	COUNTDOWN_END	n/a	n/a	-999	-999	n/a	n/a	n/a	n/a	13	[0, 0, 0]	-999	PAL1	3	R1312N
1452.241	0.605	1453679	ORIENT_START	n/a	n/a	-999	-999	n/a	n/a	n/a	n/a	13	[0, 0, 0]	-999	PAL1	3	R1312N
1452.846	0.001	1454284	ORIENT_END	n/a	n/a	-999	-999	n/a	n/a	n/a	n/a	13	[0, 0, 0]	-999	PAL1	3	R1312N
1452.847	1.128	1454285	ENCODING_START	n/a	n/a	-999	-999	n/a	n/a	n/a	n/a	13	[0, 0, 0]	-999	PAL1	3	R1312N
1453.975	4.039	1455413	STUDY_PAIR	n/a	wordpools/wordpool_EN.txt	1	-999	n/a	HAT	CLOWN	TOAD	13	[0, 0, 0]	-999	PAL1	3	R1312N
1458.014	0.514	1459452	STUDY_PAIR_OFF	n/a	n/a	1	-999	n/a	HAT	CLOWN	TOAD	13	[0, 0, 0]	-999	PAL1	3	R1312N
1458.528	4.038	1459966	STUDY_PAIR	n/a	wordpools/wordpool_EN.txt	2	-999	n/a	CUP	TOY	CUP	13	[0, 0, 0]	-999	PAL1	3	R1312N
1462.566	0.678	1464004	STUDY_PAIR_OFF	n/a	n/a	2	-999	n/a	CUP	TOY	CUP	13	[0, 0, 0]	-999	PAL1	3	R1312N
1463.244	4.038	1464682	STUDY_PAIR	n/a	wordpools/wordpool_EN.txt	3	-999	n/a	FISHBOWL	FARM	FISH	13	[0, 0, 0]	-999	PAL1	3	R1312N
1467.282	0.576	1468719	STUDY_PAIR_OFF	n/a	n/a	3	-999	n/a	FISHBOWL	FARM	FISH	13	[0, 0, 0]	-999	PAL1	3	R1312N
1467.858	4.025	1469295	STUDY_PAIR	n/a	wordpools/wordpool_EN.txt	4	-999	n/a	TREE	ROCK	TREE	13	[0, 0, 0]	-999	PAL1	3	R1312N
1471.883	0.696	1473320	STUDY_PAIR_OFF	n/a	n/a	4	-999	n/a	TREE	ROCK	TREE	13	[0, 0, 0]	-999	PAL1	3	R1312N
