onset	duration	sample	trial_type	response_time	stim_file	serialpos	probepos	probe_word	resp_word	study_1	study_2	list	test	answer	experiment	session	subject
0.0	250.901	143243	START	n/a	n/a	-999	-999	n/a	n/a	n/a	n/a	-1	[-999, -999, -999]	-999	PAL1	1	R1097N
250.901	404.166	394026	SESS_START	n/a	n/a	-999	-999	n/a	n/a	n/a	n/a	-999	[0, 0, 0]	-999	PAL1	1	R1097N
655.067	0.005	798000	START	n/a	n/a	-999	-999	n/a	n/a	n/a	n/a	1	[-999, -999, -999]	-999	PAL1	1	R1097N
655.072	11.174	798005	PROB	11169.0	n/a	-999	-999	n/a	n/a	n/a	n/a	1	[4, 9, 6]	15	PAL1	1	R1097N
666.246	6.939	809174	PROB	6934.0	n/a	-999	-999	n/a	n/a	n/a	n/a	1	[3, 8, 8]	19	PAL1	1	R1097N
673.185	4.602	816110	PROB	4597.0	n/a	-999	-999	n/a	n/a	n/a	n/a	1	[7, 7, 1]	15	PAL1	1	R1097N
677.787	5.114	820710	PROB	5109.0	n/a	-999	-999	n/a	n/a	n/a	n/a	1	[1, 8, 5]	14	PAL1	1	R1097N
682.901	5.886	825821	PROB	5886.0	n/a	-999	-999	n/a	n/a	n/a	n/a	1	[9, 4, 3]	16	PAL1	1	R1097N
688.787	17.6	831704	STOP	n/a	n/a	-999	-999	n/a	n/a	n/a	n/a	1	[-999, -999, -999]	-999	PAL1	1	R1097N
706.387	0.003	849296	ENCODING_START	n/a	n/a	0	-999	n/a	n/a	n/a	n/a	1	[0, 0, 0]	-999	PAL1	1	R1097N
706.39	0.275	849299	STUDY_ORIENT	n/a	n/a	1	3	DUCK	BEAR	BEAR	DUCK	1	[0, 0, 0]	-999	PAL1	1	R1097N
707.371	4.0	850280	STUDY_PAIR	n/a	wordpools/wordpool_EN.txt	1	3	DUCK	BEAR	BEAR	DUCK	1	[0, 0, 0]	-999	PAL1	1	R1097N
712.372	0.275	855278	STUDY_ORIENT	n/a	n/a	2	4	ICE	NET	ICE	NET	1	[0, 0, 0]	-999	PAL1	1	R1097N
713.203	4.0	856109	STUDY_PAIR	n/a	wordpools/wordpool_EN.txt	2	4	ICE	NET	ICE	NET	1	[0, 0, 0]	-999	PAL1	1	R1097N
718.203	0.275	861107	STUDY_ORIENT	n/a	n/a	3	5	PIE	n/a	BLUSH	PIE	1	[0, 0, 0]	-999	PAL1	1	R1097N
719.088	4.0	861991	STUDY_PAIR	n/a	wordpools/wordpool_EN.txt	3	5	PIE	n/a	BLUSH	PIE	1	[0, 0, 0]	-999	PAL1	1	R1097N
724.088	0.275	866989	STUDY_ORIENT	n/a	n/a	4	6	BEACH	n/a	POLE	BEACH	1	[0, 0, 0]	-999	PAL1	1	R1097N
724.964	4.0	867864	STUDY_PAIR	n/a	wordpools/wordpool_EN.txt	4	6	BEACH	n/a	POLE	BEACH	1	[0, 0, 0]	-999	PAL1	1	R1097N
729.964	0.275	872862	STUDY_ORIENT	n/a	n/a	5	1	STICK	n/a	STICK	CAT	1	[0, 0, 0]	-999	PAL1	1	R1097N
730.93	4.0	873827	STUDY_PAIR	n/a	wordpools/wordpool_EN.txt	5	1	STICK	n/a	STICK	CAT	1	[0, 0, 0]	-999	PAL1	1	R1097N
735.931	0.275	878826	STUDY_ORIENT	n/a	n/a	6	2	GATE	CAT	GATE	HORN	1	[0, 0, 0]	-999	PAL1	1	R1097N
736.699	4.0	879594	STUDY_PAIR	n/a	wordpools/wordpool_EN.txt	6	2	GATE	CAT	GATE	HORN	1	[0, 0, 0]	-999	PAL1	1	R1097N
740.7	0.999	883593	START	n/a	n/a	-999	-999	n/a	n/a	n/a	n/a	2	[-999, -999, -999]	-999	PAL1	1	R1097N
741.699	0.001	884591	MATH_START	n/a	n/a	-999	-999	n/a	n/a	n/a	n/a	1	[0, 0, 0]	-999	PAL1	1	R1097N
741.7	13.08	884592	PROB	13075.0	n/a	-999	-999	n/a	n/a	n/a	n/a	2	[3, 6, 1]	10	PAL1	1	R1097N
754.78	6.118	897666	PROB	6118.0	n/a	-999	-999	n/a	n/a	n/a	n/a	2	[5, 6, 3]	14	PAL1	1	R1097N
760.898	0.001	903781	STOP	n/a	n/a	-999	-999	n/a	n/a	n/a	n/a	2	[-999, -999, -999]	-999	PAL1	1	R1097N
760.899	0.0	903782	MATH_END	n/a	n/a	-999	-999	n/a	n/a	n/a	n/a	1	[0, 0, 0]	-999	PAL1	1	R1097N
760.899	0.002	903782	TEST_START	n/a	n/a	-999	-999	n/a	n/a	n/a	n/a	1	[0, 0, 0]	-999	PAL1	1	R1097N
760.901	0.275	903784	TEST_ORIENT	n/a	n/a	5	1	STICK	n/a	STICK	CAT	1	[0, 0, 0]	-999	PAL1	1	R1097N
761.677	4.0	904560	TEST_PROBE	n/a	wordpools/wordpool_EN.txt	5	1	STICK	n/a	STICK	CAT	1	[0, 0, 0]	-999	PAL1	1	R1097N
761.679	2.368	904562	REC_START	n/a	n/a	5	-999	n/a	n/a	n/a	n/a	1	[0, 0, 0]	-999	PAL1	1	R1097N
764.047	1.08	906929	REC_EVENT	2368.0	n/a	5	1	STICK	<>	STICK	CAT	1	[0, 0, 0]	-999	PAL1	1	R1097N
765.127	1.55	908008	REC_EVENT	3448.0	n/a	5	1	STICK	<>	STICK	CAT	1	[0, 0, 0]	-999	PAL1	1	R1097N
766.677	0.018	909558	REC_END	n/a	n/a	5	-999	n/a	n/a	n/a	n/a	1	[0, 0, 0]	-999	PAL1	1	R1097N
766.695	0.275	909576	TEST_ORIENT	n/a	n/a	6	2	GATE	CAT	GATE	HORN	1	[0, 0, 0]	-999	PAL1	1	R1097N
767.608	4.0	910488	TEST_PROBE	n/a	wordpools/wordpool_EN.txt	6	2	GATE	CAT	GATE	HORN	1	[0, 0, 0]	-999	PAL1	1	R1097N
767.609	0.813	910489	REC_START	n/a	n/a	6	-999	n/a	CAT	n/a	n/a	1	[0, 0, 0]	-999	PAL1	1	R1097N
768.422	0.507	911302	REC_EVENT	813.0	n/a	6	2	GATE	<>	GATE	HORN	1	[0, 0, 0]	-999	PAL1	1	R1097N
768.929	0.749	911808	REC_EVENT	1320.0	n/a	6	2	GATE	<>	GATE	HORN	1	[0, 0, 0]	-999	PAL1	1	R1097N
769.678	0.867	912557	REC_EVENT	2069.0	n/a	6	2	GATE	GATE	GATE	HORN	1	[0, 0, 0]	-999	PAL1	1	R1097N
770.545	0.617	913424	REC_EVENT	2936.0	n/a	6	2	GATE	CAT	GATE	HORN	1	[0, 0, 0]	-999	PAL1	1	R1097N
771.162	0.992	914040	REC_EVENT	3553.0	n/a	6	2	GATE	<>	GATE	HORN	1	[0, 0, 0]	-999	PAL1	1	R1097N
772.154	0.454	915032	REC_EVENT	4545.0	n/a	6	2	GATE	<>	GATE	HORN	1	[0, 0, 0]	-999	PAL1	1	R1097N
772.608	0.017	915486	REC_END	n/a	n/a	6	-999	n/a	n/a	n/a	n/a	1	[0, 0, 0]	-999	PAL1	1	R1097N
772.625	0.275	915503	TEST_ORIENT	n/a	n/a	1	3	DUCK	BEAR	BEAR	DUCK	1	[0, 0, 0]	-999	PAL1	1	R1097N
773.585	4.0	916462	TEST_PROBE	n/a	wordpools/wordpool_EN.txt	1	3	DUCK	BEAR	BEAR	DUCK	1	[0, 0, 0]	-999	PAL1	1	R1097N
773.586	1.603	916463	REC_START	n/a	n/a	1	-999	n/a	BEAR	n/a	n/a	1	[0, 0, 0]	-999	PAL1	1	R1097N
775.189	3.396	918066	REC_EVENT	1603.0	n/a	1	3	DUCK	BEAR	BEAR	DUCK	1	[0, 0, 0]	-999	PAL1	1	R1097N
778.585	0.017	921460	REC_END	n/a	n/a	1	-999	n/a	n/a	n/a	n/a	1	[0, 0, 0]	-999	PAL1	1	R1097N
778.602	0.275	921477	TEST_ORIENT	n/a	n/a	2	4	ICE	NET	ICE	NET	1	[0, 0, 0]	-999	PAL1	1	R1097N
779.362	4.0	922237	TEST_PROBE	n/a	wordpools/wordpool_EN.txt	2	4	ICE	NET	ICE	NET	1	[0, 0, 0]	-999	PAL1	1	R1097N
779.363	2.343	922238	REC_START	n/a	n/a	2	-999	n/a	NET	n/a	n/a	1	[0, 0, 0]	-999	PAL1	1	R1097N
781.706	2.656	924579	REC_EVENT	2343.0	n/a	2	4	ICE	NET	ICE	NET	1	[0, 0, 0]	-999	PAL1	1	R1097N
784.362	0.019	927234	REC_END	n/a	n/a	2	-999	n/a	n/a	n/a	n/a	1	[0, 0, 0]	-999	PAL1	1	R1097N
784.381	0.275	927253	TEST_ORIENT	n/a	n/a	3	5	PIE	n/a	BLUSH	PIE	1	[0, 0, 0]	-999	PAL1	1	R1097N
785.308	4.0	928180	TEST_PROBE	n/a	wordpools/wordpool_EN.txt	3	5	PIE	n/a	BLUSH	PIE	1	[0, 0, 0]	-999	PAL1	1	R1097N
785.309	1.622	928181	REC_START	n/a	n/a	3	-999	n/a	n/a	n/a	n/a	1	[0, 0, 0]	-999	PAL1	1	R1097N
786.931	1.0	929802	REC_EVENT	1622.0	n/a	3	5	PIE	<>	BLUSH	PIE	1	[0, 0, 0]	-999	PAL1	1	R1097N
787.931	1.0	930802	REC_EVENT	2622.0	n/a	3	5	PIE	<>	BLUSH	PIE	1	[0, 0, 0]	-999	PAL1	1	R1097N
788.931	1.0	931801	REC_EVENT	3622.0	n/a	3	5	PIE	<>	BLUSH	PIE	1	[0, 0, 0]	-999	PAL1	1	R1097N
789.931	0.377	932801	REC_EVENT	4622.0	n/a	3	5	PIE	<>	BLUSH	PIE	1	[0, 0, 0]	-999	PAL1	1	R1097N
790.308	0.018	933177	REC_END	n/a	n/a	3	-999	n/a	n/a	n/a	n/a	1	[0, 0, 0]	-999	PAL1	1	R1097N
790.326	0.275	933195	TEST_ORIENT	n/a	n/a	4	6	BEACH	n/a	POLE	BEACH	1	[0, 0, 0]	-999	PAL1	1	R1097N
791.225	4.0	934094	TEST_PROBE	n/a	wordpools/wordpool_EN.txt	4	6	BEACH	n/a	POLE	BEACH	1	[0, 0, 0]	-999	PAL1	1	R1097N
791.226	2.587	934095	REC_START	n/a	n/a	4	-999	n/a	n/a	n/a	n/a	1	[0, 0, 0]	-999	PAL1	1	R1097N
793.813	1.0	936681	REC_EVENT	2587.0	n/a	4	6	BEACH	<>	POLE	BEACH	1	[0, 0, 0]	-999	PAL1	1	R1097N
794.813	1.412	937680	REC_EVENT	3587.0	n/a	4	6	BEACH	<>	POLE	BEACH	1	[0, 0, 0]	-999	PAL1	1	R1097N
796.225	0.031	939092	REC_END	n/a	n/a	4	-999	n/a	n/a	n/a	n/a	1	[0, 0, 0]	-999	PAL1	1	R1097N
796.256	18.625	939123	FORCED_BREAK	n/a	n/a	4	-999	n/a	n/a	n/a	n/a	1	[0, 0, 0]	-999	PAL1	1	R1097N
814.881	0.003	957739	ENCODING_START	n/a	n/a	0	-999	n/a	n/a	n/a	n/a	2	[0, 0, 0]	-999	PAL1	1	R1097N
814.884	0.275	957742	STUDY_ORIENT	n/a	n/a	1	1	SQUARE	ANT	ANT	SQUARE	2	[0, 0, 0]	-999	PAL1	1	R1097N
815.785	4.0	958642	STUDY_PAIR	n/a	wordpools/wordpool_EN.txt	1	1	SQUARE	ANT	ANT	SQUARE	2	[0, 0, 0]	-999	PAL1	1	R1097N
820.786	0.275	963641	STUDY_ORIENT	n/a	n/a	2	4	JUDGE	HAT	JUDGE	HAT	2	[0, 0, 0]	-999	PAL1	1	R1097N
821.538	4.0	964393	STUDY_PAIR	n/a	wordpools/wordpool_EN.txt	2	4	JUDGE	HAT	JUDGE	HAT	2	[0, 0, 0]	-999	PAL1	1	R1097N
826.538	0.275	969390	STUDY_ORIENT	n/a	n/a	3	3	RAKE	n/a	SPOON	RAKE	2	[0, 0, 0]	-999	PAL1	1	R1097N
827.385	4.0	970237	STUDY_PAIR	n/a	wordpools/wordpool_EN.txt	3	3	RAKE	n/a	SPOON	RAKE	2	[0, 0, 0]	-999	PAL1	1	R1097N
832.385	0.275	975234	STUDY_ORIENT	n/a	n/a	4	6	CLAY	CLAY	CLAY	COIN	2	[0, 0, 0]	-999	PAL1	1	R1097N
833.287	4.0	976136	STUDY_PAIR	n/a	wordpools/wordpool_EN.txt	4	6	CLAY	CLAY	CLAY	COIN	2	[0, 0, 0]	-999	PAL1	1	R1097N
838.288	0.275	981135	STUDY_ORIENT	n/a	n/a	5	5	SKY	PASS	RIB	SKY	2	[0, 0, 0]	-999	PAL1	1	R1097N
839.057	4.0	981903	STUDY_PAIR	n/a	wordpools/wordpool_EN.txt	5	5	SKY	PASS	RIB	SKY	2	[0, 0, 0]	-999	PAL1	1	R1097N
844.058	0.275	986902	STUDY_ORIENT	n/a	n/a	6	2	SHIELD	HOUSE	HOUSE	SHIELD	2	[0, 0, 0]	-999	PAL1	1	R1097N
845.021	4.0	987864	STUDY_PAIR	n/a	wordpools/wordpool_EN.txt	6	2	SHIELD	HOUSE	HOUSE	SHIELD	2	[0, 0, 0]	-999	PAL1	1	R1097N
849.022	0.999	991864	START	n/a	n/a	-999	-999	n/a	n/a	n/a	n/a	3	[-999, -999, -999]	-999	PAL1	1	R1097N
850.021	0.001	992862	MATH_START	n/a	n/a	-999	-999	n/a	n/a	n/a	n/a	2	[0, 0, 0]	-999	PAL1	1	R1097N
850.022	7.666	992863	PROB	7662.0	n/a	-999	-999	n/a	n/a	n/a	n/a	3	[4, 8, 2]	14	PAL1	1	R1097N
857.688	7.674	1000525	PROB	7670.0	n/a	-999	-999	n/a	n/a	n/a	n/a	3	[8, 2, 6]	16	PAL1	1	R1097N
865.362	3.91	1008196	PROB	3910.0	n/a	-999	-999	n/a	n/a	n/a	n/a	3	[3, 1, 3]	7	PAL1	1	R1097N
869.272	0.001	1012104	STOP	n/a	n/a	-999	-999	n/a	n/a	n/a	n/a	3	[-999, -999, -999]	-999	PAL1	1	R1097N
869.273	0.0	1012105	MATH_END	n/a	n/a	-999	-999	n/a	n/a	n/a	n/a	2	[0, 0, 0]	-999	PAL1	1	R1097N
869.273	0.002	1012105	TEST_START	n/a	n/a	-999	-999	n/a	n/a	n/a	n/a	2	[0, 0, 0]	-999	PAL1	1	R1097N
869.275	0.275	1012107	TEST_ORIENT	n/a	n/a	1	1	SQUARE	ANT	ANT	SQUARE	2	[0, 0, 0]	-999	PAL1	1	R1097N
870.157	4.0	1012989	TEST_PROBE	n/a	wordpools/wordpool_EN.txt	1	1	SQUARE	ANT	ANT	SQUARE	2	[0, 0, 0]	-999	PAL1	1	R1097N
870.158	1.745	1012990	REC_START	n/a	n/a	1	-999	n/a	ANT	n/a	n/a	2	[0, 0, 0]	-999	PAL1	1	R1097N
871.903	3.254	1014734	REC_EVENT	1745.0	n/a	1	1	SQUARE	ANT	ANT	SQUARE	2	[0, 0, 0]	-999	PAL1	1	R1097N
875.157	0.018	1017986	REC_END	n/a	n/a	1	-999	n/a	n/a	n/a	n/a	2	[0, 0, 0]	-999	PAL1	1	R1097N
875.175	0.275	1018004	TEST_ORIENT	n/a	n/a	6	2	SHIELD	HOUSE	HOUSE	SHIELD	2	[0, 0, 0]	-999	PAL1	1	R1097N
876.097	4.0	1018926	TEST_PROBE	n/a	wordpools/wordpool_EN.txt	6	2	SHIELD	HOUSE	HOUSE	SHIELD	2	[0, 0, 0]	-999	PAL1	1	R1097N
876.098	1.735	1018927	REC_START	n/a	n/a	6	-999	n/a	HOUSE	n/a	n/a	2	[0, 0, 0]	-999	PAL1	1	R1097N
877.833	3.264	1020661	REC_EVENT	1735.0	n/a	6	2	SHIELD	HOUSE	HOUSE	SHIELD	2	[0, 0, 0]	-999	PAL1	1	R1097N
881.097	0.018	1023923	REC_END	n/a	n/a	6	-999	n/a	n/a	n/a	n/a	2	[0, 0, 0]	-999	PAL1	1	R1097N
881.115	0.275	1023941	TEST_ORIENT	n/a	n/a	3	3	RAKE	n/a	SPOON	RAKE	2	[0, 0, 0]	-999	PAL1	1	R1097N
881.948	4.0	1024774	TEST_PROBE	n/a	wordpools/wordpool_EN.txt	3	3	RAKE	n/a	SPOON	RAKE	2	[0, 0, 0]	-999	PAL1	1	R1097N
881.949	4.998	1024775	REC_START	n/a	n/a	3	-999	n/a	n/a	n/a	n/a	2	[0, 0, 0]	-999	PAL1	1	R1097N
886.947	0.001	1029771	REC_EVENT	4998.0	n/a	3	3	RAKE	<>	SPOON	RAKE	2	[0, 0, 0]	-999	PAL1	1	R1097N
886.948	0.019	1029772	REC_END	n/a	n/a	3	-999	n/a	n/a	n/a	n/a	2	[0, 0, 0]	-999	PAL1	1	R1097N
886.967	0.275	1029791	TEST_ORIENT	n/a	n/a	2	4	JUDGE	HAT	JUDGE	HAT	2	[0, 0, 0]	-999	PAL1	1	R1097N
887.925	4.0	1030748	TEST_PROBE	n/a	wordpools/wordpool_EN.txt	2	4	JUDGE	HAT	JUDGE	HAT	2	[0, 0, 0]	-999	PAL1	1	R1097N
887.926	1.435	1030749	REC_START	n/a	n/a	2	-999	n/a	HAT	n/a	n/a	2	[0, 0, 0]	-999	PAL1	1	R1097N
889.361	3.564	1032183	REC_EVENT	1435.0	n/a	2	4	JUDGE	HAT	JUDGE	HAT	2	[0, 0, 0]	-999	PAL1	1	R1097N
892.925	0.018	1035746	REC_END	n/a	n/a	2	-999	n/a	n/a	n/a	n/a	2	[0, 0, 0]	-999	PAL1	1	R1097N
892.943	0.275	1035764	TEST_ORIENT	n/a	n/a	5	5	SKY	PASS	RIB	SKY	2	[0, 0, 0]	-999	PAL1	1	R1097N
893.878	4.0	1036698	TEST_PROBE	n/a	wordpools/wordpool_EN.txt	5	5	SKY	PASS	RIB	SKY	2	[0, 0, 0]	-999	PAL1	1	R1097N
893.879	3.545	1036699	REC_START	n/a	n/a	5	-999	n/a	PASS	n/a	n/a	2	[0, 0, 0]	-999	PAL1	1	R1097N
897.424	1.454	1040243	REC_EVENT	3545.0	n/a	5	5	SKY	PASS	RIB	SKY	2	[0, 0, 0]	-999	PAL1	1	R1097N
898.878	0.018	1041696	REC_END	n/a	n/a	5	-999	n/a	n/a	n/a	n/a	2	[0, 0, 0]	-999	PAL1	1	R1097N
898.896	0.275	1041714	TEST_ORIENT	n/a	n/a	4	6	CLAY	CLAY	CLAY	COIN	2	[0, 0, 0]	-999	PAL1	1	R1097N
899.864	4.0	1042682	TEST_PROBE	n/a	wordpools/wordpool_EN.txt	4	6	CLAY	CLAY	CLAY	COIN	2	[0, 0, 0]	-999	PAL1	1	R1097N
899.865	1.528	1042683	REC_START	n/a	n/a	4	-999	n/a	CLAY	n/a	n/a	2	[0, 0, 0]	-999	PAL1	1	R1097N
901.393	1.629	1044210	REC_EVENT	1528.0	n/a	4	6	CLAY	CLAY	CLAY	COIN	2	[0, 0, 0]	-999	PAL1	1	R1097N
903.022	1.842	1045838	REC_EVENT	3157.0	n/a	4	6	CLAY	<>	CLAY	COIN	2	[0, 0, 0]	-999	PAL1	1	R1097N
904.864	0.026	1047679	REC_END	n/a	n/a	4	-999	n/a	n/a	n/a	n/a	2	[0, 0, 0]	-999	PAL1	1	R1097N
904.89	16.053	1047705	FORCED_BREAK	n/a	n/a	4	-999	n/a	n/a	n/a	n/a	2	[0, 0, 0]	-999	PAL1	1	R1097N
920.943	0.003	1063751	ENCODING_START	n/a	n/a	0	-999	n/a	n/a	n/a	n/a	3	[0, 0, 0]	-999	PAL1	1	R1097N
920.946	0.275	1063754	STUDY_ORIENT	n/a	n/a	1	5	WORM	WORM	WORM	SEED	3	[0, 0, 0]	-999	PAL1	1	R1097N
921.753	4.0	1064560	STUDY_PAIR	n/a	wordpools/wordpool_EN.txt	1	5	WORM	WORM	WORM	SEED	3	[0, 0, 0]	-999	PAL1	1	R1097N
926.754	0.275	1069559	STUDY_ORIENT	n/a	n/a	2	2	BRIDGE	SWORD	BRIDGE	SWORD	3	[0, 0, 0]	-999	PAL1	1	R1097N
927.548	4.0	1070352	STUDY_PAIR	n/a	wordpools/wordpool_EN.txt	2	2	BRIDGE	SWORD	BRIDGE	SWORD	3	[0, 0, 0]	-999	PAL1	1	R1097N
932.549	0.275	1075351	STUDY_ORIENT	n/a	n/a	3	1	DITCH	PASS	DITCH	CLOUD	3	[0, 0, 0]	-999	PAL1	1	R1097N
933.327	4.0	1076129	STUDY_PAIR	n/a	wordpools/wordpool_EN.txt	3	1	DITCH	PASS	DITCH	CLOUD	3	[0, 0, 0]	-999	PAL1	1	R1097N
938.328	0.275	1081127	STUDY_ORIENT	n/a	n/a	4	4	FENCE	FRUIT	FENCE	FRUIT	3	[0, 0, 0]	-999	PAL1	1	R1097N
939.17	4.0	1081969	STUDY_PAIR	n/a	wordpools/wordpool_EN.txt	4	4	FENCE	FRUIT	FENCE	FRUIT	3	[0, 0, 0]	-999	PAL1	1	R1097N
944.171	0.275	1086968	STUDY_ORIENT	n/a	n/a	5	3	LEG	FOREST	LEG	PARK	3	[0, 0, 0]	-999	PAL1	1	R1097N
945.114	4.0	1087910	STUDY_PAIR	n/a	wordpools/wordpool_EN.txt	5	3	LEG	FOREST	LEG	PARK	3	[0, 0, 0]	-999	PAL1	1	R1097N
950.115	0.275	1092909	STUDY_ORIENT	n/a	n/a	6	6	BALL	FLAME	BALL	FLAME	3	[0, 0, 0]	-999	PAL1	1	R1097N
951.098	4.0	1093891	STUDY_PAIR	n/a	wordpools/wordpool_EN.txt	6	6	BALL	FLAME	BALL	FLAME	3	[0, 0, 0]	-999	PAL1	1	R1097N
955.099	0.999	1097890	START	n/a	n/a	-999	-999	n/a	n/a	n/a	n/a	4	[-999, -999, -999]	-999	PAL1	1	R1097N
956.098	0.001	1098889	MATH_START	n/a	n/a	-999	-999	n/a	n/a	n/a	n/a	3	[0, 0, 0]	-999	PAL1	1	R1097N
956.099	5.514	1098890	PROB	5509.0	n/a	-999	-999	n/a	n/a	n/a	n/a	4	[7, 9, 1]	17	PAL1	1	R1097N
961.613	3.609	1104401	PROB	3605.0	n/a	-999	-999	n/a	n/a	n/a	n/a	4	[5, 5, 7]	17	PAL1	1	R1097N
965.222	3.33	1108009	PROB	3325.0	n/a	-999	-999	n/a	n/a	n/a	n/a	4	[3, 7, 2]	12	PAL1	1	R1097N
968.552	7.27	1111337	PROB	7270.0	n/a	-999	-999	n/a	n/a	n/a	n/a	4	[7, 8, 9]	24	PAL1	1	R1097N
975.822	0.002	1118604	STOP	n/a	n/a	-999	-999	n/a	n/a	n/a	n/a	4	[-999, -999, -999]	-999	PAL1	1	R1097N
975.824	0.0	1118606	MATH_END	n/a	n/a	-999	-999	n/a	n/a	n/a	n/a	3	[0, 0, 0]	-999	PAL1	1	R1097N
975.824	0.002	1118606	TEST_START	n/a	n/a	-999	-999	n/a	n/a	n/a	n/a	3	[0, 0, 0]	-999	PAL1	1	R1097N
975.826	0.275	1118608	TEST_ORIENT	n/a	n/a	3	1	DITCH	PASS	DITCH	CLOUD	3	[0, 0, 0]	-999	PAL1	1	R1097N
976.681	4.0	1119462	TEST_PROBE	n/a	wordpools/wordpool_EN.txt	3	1	DITCH	PASS	DITCH	CLOUD	3	[0, 0, 0]	-999	PAL1	1	R1097N
976.682	3.089	1119463	REC_START	n/a	n/a	3	-999	n/a	PASS	n/a	n/a	3	[0, 0, 0]	-999	PAL1	1	R1097N
979.771	1.91	1122551	REC_EVENT	3089.0	n/a	3	1	DITCH	PASS	DITCH	CLOUD	3	[0, 0, 0]	-999	PAL1	1	R1097N
981.681	0.018	1124460	REC_END	n/a	n/a	3	-999	n/a	n/a	n/a	n/a	3	[0, 0, 0]	-999	PAL1	1	R1097N
981.699	0.275	1124478	TEST_ORIENT	n/a	n/a	2	2	BRIDGE	SWORD	BRIDGE	SWORD	3	[0, 0, 0]	-999	PAL1	1	R1097N
982.691	4.0	1125469	TEST_PROBE	n/a	wordpools/wordpool_EN.txt	2	2	BRIDGE	SWORD	BRIDGE	SWORD	3	[0, 0, 0]	-999	PAL1	1	R1097N
982.692	1.712	1125470	REC_START	n/a	n/a	2	-999	n/a	SWORD	n/a	n/a	3	[0, 0, 0]	-999	PAL1	1	R1097N
984.404	3.287	1127182	REC_EVENT	1712.0	n/a	2	2	BRIDGE	SWORD	BRIDGE	SWORD	3	[0, 0, 0]	-999	PAL1	1	R1097N
987.691	0.018	1130467	REC_END	n/a	n/a	2	-999	n/a	n/a	n/a	n/a	3	[0, 0, 0]	-999	PAL1	1	R1097N
987.709	0.275	1130485	TEST_ORIENT	n/a	n/a	5	3	LEG	FOREST	LEG	PARK	3	[0, 0, 0]	-999	PAL1	1	R1097N
988.609	4.0	1131385	TEST_PROBE	n/a	wordpools/wordpool_EN.txt	5	3	LEG	FOREST	LEG	PARK	3	[0, 0, 0]	-999	PAL1	1	R1097N
988.61	3.864	1131386	REC_START	n/a	n/a	5	-999	n/a	FOREST	n/a	n/a	3	[0, 0, 0]	-999	PAL1	1	R1097N
992.474	1.135	1135248	REC_EVENT	3864.0	n/a	5	3	LEG	FOREST	LEG	PARK	3	[0, 0, 0]	-999	PAL1	1	R1097N
993.609	0.018	1136382	REC_END	n/a	n/a	5	-999	n/a	n/a	n/a	n/a	3	[0, 0, 0]	-999	PAL1	1	R1097N
993.627	0.275	1136400	TEST_ORIENT	n/a	n/a	4	4	FENCE	FRUIT	FENCE	FRUIT	3	[0, 0, 0]	-999	PAL1	1	R1097N
994.479	4.0	1137252	TEST_PROBE	n/a	wordpools/wordpool_EN.txt	4	4	FENCE	FRUIT	FENCE	FRUIT	3	[0, 0, 0]	-999	PAL1	1	R1097N
994.48	2.448	1137253	REC_START	n/a	n/a	4	-999	n/a	FRUIT	n/a	n/a	3	[0, 0, 0]	-999	PAL1	1	R1097N
996.928	2.551	1139700	REC_EVENT	2448.0	n/a	4	4	FENCE	FRUIT	FENCE	FRUIT	3	[0, 0, 0]	-999	PAL1	1	R1097N
999.479	0.018	1142249	REC_END	n/a	n/a	4	-999	n/a	n/a	n/a	n/a	3	[0, 0, 0]	-999	PAL1	1	R1097N
999.497	0.275	1142267	TEST_ORIENT	n/a	n/a	1	5	WORM	WORM	WORM	SEED	3	[0, 0, 0]	-999	PAL1	1	R1097N
1000.405	4.0	1143175	TEST_PROBE	n/a	wordpools/wordpool_EN.txt	1	5	WORM	WORM	WORM	SEED	3	[0, 0, 0]	-999	PAL1	1	R1097N
1000.406	1.692	1143176	REC_START	n/a	n/a	1	-999	n/a	WORM	n/a	n/a	3	[0, 0, 0]	-999	PAL1	1	R1097N
1002.098	1.3	1144867	REC_EVENT	1692.0	n/a	1	5	WORM	WORM	WORM	SEED	3	[0, 0, 0]	-999	PAL1	1	R1097N
1003.398	1.0	1146167	REC_EVENT	2992.0	n/a	1	5	WORM	<>	WORM	SEED	3	[0, 0, 0]	-999	PAL1	1	R1097N
1004.398	1.007	1147166	REC_EVENT	3992.0	n/a	1	5	WORM	<>	WORM	SEED	3	[0, 0, 0]	-999	PAL1	1	R1097N
1005.405	0.018	1148173	REC_END	n/a	n/a	1	-999	n/a	n/a	n/a	n/a	3	[0, 0, 0]	-999	PAL1	1	R1097N
1005.423	0.275	1148191	TEST_ORIENT	n/a	n/a	6	6	BALL	FLAME	BALL	FLAME	3	[0, 0, 0]	-999	PAL1	1	R1097N
1006.178	4.0	1148945	TEST_PROBE	n/a	wordpools/wordpool_EN.txt	6	6	BALL	FLAME	BALL	FLAME	3	[0, 0, 0]	-999	PAL1	1	R1097N
1006.179	2.135	1148946	REC_START	n/a	n/a	6	-999	n/a	FLAME	n/a	n/a	3	[0, 0, 0]	-999	PAL1	1	R1097N
1008.314	2.864	1151080	REC_EVENT	2135.0	n/a	6	6	BALL	FLAME	BALL	FLAME	3	[0, 0, 0]	-999	PAL1	1	R1097N
1011.178	0.027	1153943	REC_END	n/a	n/a	6	-999	n/a	n/a	n/a	n/a	3	[0, 0, 0]	-999	PAL1	1	R1097N
1011.205	14.295	1153970	FORCED_BREAK	n/a	n/a	6	-999	n/a	n/a	n/a	n/a	3	[0, 0, 0]	-999	PAL1	1	R1097N
1025.5	0.003	1168258	ENCODING_START	n/a	n/a	0	-999	n/a	n/a	n/a	n/a	4	[0, 0, 0]	-999	PAL1	1	R1097N
1025.503	0.275	1168261	STUDY_ORIENT	n/a	n/a	1	3	WEED	PASS	WEED	SHRIMP	4	[0, 0, 0]	-999	PAL1	1	R1097N
1026.361	4.0	1169119	STUDY_PAIR	n/a	wordpools/wordpool_EN.txt	1	3	WEED	PASS	WEED	SHRIMP	4	[0, 0, 0]	-999	PAL1	1	R1097N
1031.362	0.275	1174117	STUDY_ORIENT	n/a	n/a	2	2	FORT	PASS	FORT	HOLE	4	[0, 0, 0]	-999	PAL1	1	R1097N
1032.14	4.0	1174895	STUDY_PAIR	n/a	wordpools/wordpool_EN.txt	2	2	FORT	PASS	FORT	HOLE	4	[0, 0, 0]	-999	PAL1	1	R1097N
1037.141	0.275	1179894	STUDY_ORIENT	n/a	n/a	3	5	LAND	LEAF	LEAF	LAND	4	[0, 0, 0]	-999	PAL1	1	R1097N
1037.926	4.0	1180678	STUDY_PAIR	n/a	wordpools/wordpool_EN.txt	3	5	LAND	LEAF	LEAF	LAND	4	[0, 0, 0]	-999	PAL1	1	R1097N
1042.927	0.275	1185677	STUDY_ORIENT	n/a	n/a	4	4	GOAT	n/a	SALT	GOAT	4	[0, 0, 0]	-999	PAL1	1	R1097N
1043.848	4.0	1186597	STUDY_PAIR	n/a	wordpools/wordpool_EN.txt	4	4	GOAT	n/a	SALT	GOAT	4	[0, 0, 0]	-999	PAL1	1	R1097N
1048.848	0.275	1191595	STUDY_ORIENT	n/a	n/a	5	1	PIPE	n/a	PIPE	PEACH	4	[0, 0, 0]	-999	PAL1	1	R1097N
1049.661	4.0	1192408	STUDY_PAIR	n/a	wordpools/wordpool_EN.txt	5	1	PIPE	n/a	PIPE	PEACH	4	[0, 0, 0]	-999	PAL1	1	R1097N
1054.662	0.275	1197406	STUDY_ORIENT	n/a	n/a	6	6	SHEET	n/a	SHEET	SEAT	4	[0, 0, 0]	-999	PAL1	1	R1097N
1055.474	4.0	1198218	STUDY_PAIR	n/a	wordpools/wordpool_EN.txt	6	6	SHEET	n/a	SHEET	SEAT	4	[0, 0, 0]	-999	PAL1	1	R1097N
1059.475	0.999	1202217	START	n/a	n/a	-999	-999	n/a	n/a	n/a	n/a	5	[-999, -999, -999]	-999	PAL1	1	R1097N
1060.474	0.001	1203216	MATH_START	n/a	n/a	-999	-999	n/a	n/a	n/a	n/a	4	[0, 0, 0]	-999	PAL1	1	R1097N
1060.475	7.224	1203217	PROB	7219.0	n/a	-999	-999	n/a	n/a	n/a	n/a	5	[7, 6, 7]	20	PAL1	1	R1097N
1067.699	6.074	1210437	PROB	6069.0	n/a	-999	-999	n/a	n/a	n/a	n/a	5	[9, 5, 8]	22	PAL1	1	R1097N
1073.773	3.93	1216508	PROB	3925.0	n/a	-999	-999	n/a	n/a	n/a	n/a	5	[4, 9, 1]	14	PAL1	1	R1097N
1077.703	4.389	1220436	PROB	4389.0	n/a	-999	-999	n/a	n/a	n/a	n/a	5	[2, 4, 5]	11	PAL1	1	R1097N
1082.092	0.001	1224823	STOP	n/a	n/a	-999	-999	n/a	n/a	n/a	n/a	5	[-999, -999, -999]	-999	PAL1	1	R1097N
1082.093	0.0	1224824	MATH_END	n/a	n/a	-999	-999	n/a	n/a	n/a	n/a	4	[0, 0, 0]	-999	PAL1	1	R1097N
1082.093	0.003	1224824	TEST_START	n/a	n/a	-999	-999	n/a	n/a	n/a	n/a	4	[0, 0, 0]	-999	PAL1	1	R1097N
1082.096	0.275	1224827	TEST_ORIENT	n/a	n/a	5	1	PIPE	n/a	PIPE	PEACH	4	[0, 0, 0]	-999	PAL1	1	R1097N
1083.053	4.0	1225784	TEST_PROBE	n/a	wordpools/wordpool_EN.txt	5	1	PIPE	n/a	PIPE	PEACH	4	[0, 0, 0]	-999	PAL1	1	R1097N
1083.054	4.998	1225785	REC_START	n/a	n/a	5	-999	n/a	n/a	n/a	n/a	4	[0, 0, 0]	-999	PAL1	1	R1097N
1088.052	0.001	1230780	REC_EVENT	4998.0	n/a	5	1	PIPE	<>	PIPE	PEACH	4	[0, 0, 0]	-999	PAL1	1	R1097N
1088.053	0.018	1230781	REC_END	n/a	n/a	5	-999	n/a	n/a	n/a	n/a	4	[0, 0, 0]	-999	PAL1	1	R1097N
1088.071	0.275	1230799	TEST_ORIENT	n/a	n/a	2	2	FORT	PASS	FORT	HOLE	4	[0, 0, 0]	-999	PAL1	1	R1097N
1088.962	4.0	1231690	TEST_PROBE	n/a	wordpools/wordpool_EN.txt	2	2	FORT	PASS	FORT	HOLE	4	[0, 0, 0]	-999	PAL1	1	R1097N
1088.962	2.99	1231690	REC_START	n/a	n/a	2	-999	n/a	PASS	n/a	n/a	4	[0, 0, 0]	-999	PAL1	1	R1097N
1091.952	2.026	1234679	REC_EVENT	2990.0	n/a	2	2	FORT	PASS	FORT	HOLE	4	[0, 0, 0]	-999	PAL1	1	R1097N
1093.978	0.013	1236704	REC_END	n/a	n/a	2	-999	n/a	n/a	n/a	n/a	4	[0, 0, 0]	-999	PAL1	1	R1097N
1093.991	0.275	1236717	TEST_ORIENT	n/a	n/a	1	3	WEED	PASS	WEED	SHRIMP	4	[0, 0, 0]	-999	PAL1	1	R1097N
1094.891	4.0	1237616	TEST_PROBE	n/a	wordpools/wordpool_EN.txt	1	3	WEED	PASS	WEED	SHRIMP	4	[0, 0, 0]	-999	PAL1	1	R1097N
1094.892	3.871	1237617	REC_START	n/a	n/a	1	-999	n/a	PASS	n/a	n/a	4	[0, 0, 0]	-999	PAL1	1	R1097N
1098.763	1.128	1241486	REC_EVENT	3871.0	n/a	1	3	WEED	PASS	WEED	SHRIMP	4	[0, 0, 0]	-999	PAL1	1	R1097N
1099.891	0.017	1242614	REC_END	n/a	n/a	1	-999	n/a	n/a	n/a	n/a	4	[0, 0, 0]	-999	PAL1	1	R1097N
1099.908	0.275	1242631	TEST_ORIENT	n/a	n/a	4	4	GOAT	n/a	SALT	GOAT	4	[0, 0, 0]	-999	PAL1	1	R1097N
1100.884	4.0	1243606	TEST_PROBE	n/a	wordpools/wordpool_EN.txt	4	4	GOAT	n/a	SALT	GOAT	4	[0, 0, 0]	-999	PAL1	1	R1097N
1100.885	4.998	1243607	REC_START	n/a	n/a	4	-999	n/a	n/a	n/a	n/a	4	[0, 0, 0]	-999	PAL1	1	R1097N
1105.883	0.001	1248603	REC_EVENT	4998.0	n/a	4	4	GOAT	<>	SALT	GOAT	4	[0, 0, 0]	-999	PAL1	1	R1097N
1105.884	0.017	1248604	REC_END	n/a	n/a	4	-999	n/a	n/a	n/a	n/a	4	[0, 0, 0]	-999	PAL1	1	R1097N
1105.901	0.275	1248621	TEST_ORIENT	n/a	n/a	3	5	LAND	LEAF	LEAF	LAND	4	[0, 0, 0]	-999	PAL1	1	R1097N
1106.777	4.0	1249497	TEST_PROBE	n/a	wordpools/wordpool_EN.txt	3	5	LAND	LEAF	LEAF	LAND	4	[0, 0, 0]	-999	PAL1	1	R1097N
1106.778	1.659	1249498	REC_START	n/a	n/a	3	-999	n/a	LEAF	n/a	n/a	4	[0, 0, 0]	-999	PAL1	1	R1097N
1108.437	3.368	1251156	REC_EVENT	1659.0	n/a	3	5	LAND	LEAF	LEAF	LAND	4	[0, 0, 0]	-999	PAL1	1	R1097N
1111.805	0.014	1254522	REC_END	n/a	n/a	3	-999	n/a	n/a	n/a	n/a	4	[0, 0, 0]	-999	PAL1	1	R1097N
1111.819	0.275	1254536	TEST_ORIENT	n/a	n/a	6	6	SHEET	n/a	SHEET	SEAT	4	[0, 0, 0]	-999	PAL1	1	R1097N
1112.743	4.0	1255460	TEST_PROBE	n/a	wordpools/wordpool_EN.txt	6	6	SHEET	n/a	SHEET	SEAT	4	[0, 0, 0]	-999	PAL1	1	R1097N
1112.744	3.193	1255461	REC_START	n/a	n/a	6	-999	n/a	n/a	n/a	n/a	4	[0, 0, 0]	-999	PAL1	1	R1097N
1115.937	1.806	1258652	REC_EVENT	3193.0	n/a	6	6	SHEET	<>	SHEET	SEAT	4	[0, 0, 0]	-999	PAL1	1	R1097N
1117.743	0.026	1260457	REC_END	n/a	n/a	6	-999	n/a	n/a	n/a	n/a	4	[0, 0, 0]	-999	PAL1	1	R1097N
1117.769	13.952	1260483	FORCED_BREAK	n/a	n/a	6	-999	n/a	n/a	n/a	n/a	4	[0, 0, 0]	-999	PAL1	1	R1097N
1131.721	0.004	1274429	ENCODING_START	n/a	n/a	0	-999	n/a	n/a	n/a	n/a	5	[0, 0, 0]	-999	PAL1	1	R1097N
1131.725	0.275	1274433	STUDY_ORIENT	n/a	n/a	1	5	VEST	RAIN	VEST	RAIN	5	[0, 0, 0]	-999	PAL1	1	R1097N
1132.477	4.0	1275184	STUDY_PAIR	n/a	wordpools/wordpool_EN.txt	1	5	VEST	RAIN	VEST	RAIN	5	[0, 0, 0]	-999	PAL1	1	R1097N
1137.478	0.275	1280183	STUDY_ORIENT	n/a	n/a	2	6	PALM	PASS	DART	PALM	5	[0, 0, 0]	-999	PAL1	1	R1097N
1138.394	4.0	1281099	STUDY_PAIR	n/a	wordpools/wordpool_EN.txt	2	6	PALM	PASS	DART	PALM	5	[0, 0, 0]	-999	PAL1	1	R1097N
1143.395	0.275	1286097	STUDY_ORIENT	n/a	n/a	3	1	BOAT	PASS	BOAT	SHELL	5	[0, 0, 0]	-999	PAL1	1	R1097N
1144.376	4.0	1287078	STUDY_PAIR	n/a	wordpools/wordpool_EN.txt	3	1	BOAT	PASS	BOAT	SHELL	5	[0, 0, 0]	-999	PAL1	1	R1097N
1149.377	0.275	1292076	STUDY_ORIENT	n/a	n/a	4	4	FOG	n/a	STEM	FOG	5	[0, 0, 0]	-999	PAL1	1	R1097N
1150.354	4.0	1293053	STUDY_PAIR	n/a	wordpools/wordpool_EN.txt	4	4	FOG	n/a	STEM	FOG	5	[0, 0, 0]	-999	PAL1	1	R1097N
1155.355	0.275	1298052	STUDY_ORIENT	n/a	n/a	5	3	PASTE	PASS	PASTE	VAN	5	[0, 0, 0]	-999	PAL1	1	R1097N
1156.333	4.0	1299029	STUDY_PAIR	n/a	wordpools/wordpool_EN.txt	5	3	PASTE	PASS	PASTE	VAN	5	[0, 0, 0]	-999	PAL1	1	R1097N
1161.334	0.275	1304028	STUDY_ORIENT	n/a	n/a	6	2	HILL	n/a	SWAMP	HILL	5	[0, 0, 0]	-999	PAL1	1	R1097N
1162.25	4.0	1304943	STUDY_PAIR	n/a	wordpools/wordpool_EN.txt	6	2	HILL	n/a	SWAMP	HILL	5	[0, 0, 0]	-999	PAL1	1	R1097N
1166.251	0.999	1308942	START	n/a	n/a	-999	-999	n/a	n/a	n/a	n/a	6	[-999, -999, -999]	-999	PAL1	1	R1097N
1167.25	0.001	1309941	MATH_START	n/a	n/a	-999	-999	n/a	n/a	n/a	n/a	5	[0, 0, 0]	-999	PAL1	1	R1097N
1167.251	7.141	1309942	PROB	7137.0	n/a	-999	-999	n/a	n/a	n/a	n/a	6	[6, 4, 9]	19	PAL1	1	R1097N
1174.392	6.97	1317080	PROB	6966.0	n/a	-999	-999	n/a	n/a	n/a	n/a	6	[6, 8, 9]	23	PAL1	1	R1097N
1181.362	6.279	1324046	PROB	6279.0	n/a	-999	-999	n/a	n/a	n/a	n/a	6	[7, 8, 4]	19	PAL1	1	R1097N
1187.641	0.002	1330322	STOP	n/a	n/a	-999	-999	n/a	n/a	n/a	n/a	6	[-999, -999, -999]	-999	PAL1	1	R1097N
1187.643	0.0	1330324	MATH_END	n/a	n/a	-999	-999	n/a	n/a	n/a	n/a	5	[0, 0, 0]	-999	PAL1	1	R1097N
1187.643	0.002	1330324	TEST_START	n/a	n/a	-999	-999	n/a	n/a	n/a	n/a	5	[0, 0, 0]	-999	PAL1	1	R1097N
1187.645	0.275	1330326	TEST_ORIENT	n/a	n/a	3	1	BOAT	PASS	BOAT	SHELL	5	[0, 0, 0]	-999	PAL1	1	R1097N
1188.622	4.0	1331303	TEST_PROBE	n/a	wordpools/wordpool_EN.txt	3	1	BOAT	PASS	BOAT	SHELL	5	[0, 0, 0]	-999	PAL1	1	R1097N
1188.623	4.323	1331304	REC_START	n/a	n/a	3	-999	n/a	PASS	n/a	n/a	5	[0, 0, 0]	-999	PAL1	1	R1097N
1192.946	0.676	1335625	REC_EVENT	4323.0	n/a	3	1	BOAT	PASS	BOAT	SHELL	5	[0, 0, 0]	-999	PAL1	1	R1097N
1193.622	0.018	1336301	REC_END	n/a	n/a	3	-999	n/a	n/a	n/a	n/a	5	[0, 0, 0]	-999	PAL1	1	R1097N
1193.64	0.275	1336318	TEST_ORIENT	n/a	n/a	6	2	HILL	n/a	SWAMP	HILL	5	[0, 0, 0]	-999	PAL1	1	R1097N
1194.523	4.0	1337201	TEST_PROBE	n/a	wordpools/wordpool_EN.txt	6	2	HILL	n/a	SWAMP	HILL	5	[0, 0, 0]	-999	PAL1	1	R1097N
1194.524	4.748	1337202	REC_START	n/a	n/a	6	-999	n/a	n/a	n/a	n/a	5	[0, 0, 0]	-999	PAL1	1	R1097N
1199.272	0.251	1341948	REC_EVENT	4748.0	n/a	6	2	HILL	<>	SWAMP	HILL	5	[0, 0, 0]	-999	PAL1	1	R1097N
1199.523	0.018	1342199	REC_END	n/a	n/a	6	-999	n/a	n/a	n/a	n/a	5	[0, 0, 0]	-999	PAL1	1	R1097N
1199.541	0.275	1342217	TEST_ORIENT	n/a	n/a	5	3	PASTE	PASS	PASTE	VAN	5	[0, 0, 0]	-999	PAL1	1	R1097N
1200.488	4.0	1343163	TEST_PROBE	n/a	wordpools/wordpool_EN.txt	5	3	PASTE	PASS	PASTE	VAN	5	[0, 0, 0]	-999	PAL1	1	R1097N
1200.489	2.69	1343164	REC_START	n/a	n/a	5	-999	n/a	PASS	n/a	n/a	5	[0, 0, 0]	-999	PAL1	1	R1097N
1203.179	2.309	1345853	REC_EVENT	2690.0	n/a	5	3	PASTE	PASS	PASTE	VAN	5	[0, 0, 0]	-999	PAL1	1	R1097N
1205.488	0.018	1348161	REC_END	n/a	n/a	5	-999	n/a	n/a	n/a	n/a	5	[0, 0, 0]	-999	PAL1	1	R1097N
1205.506	0.275	1348179	TEST_ORIENT	n/a	n/a	4	4	FOG	n/a	STEM	FOG	5	[0, 0, 0]	-999	PAL1	1	R1097N
1206.456	4.0	1349128	TEST_PROBE	n/a	wordpools/wordpool_EN.txt	4	4	FOG	n/a	STEM	FOG	5	[0, 0, 0]	-999	PAL1	1	R1097N
1206.457	5.027	1349129	REC_START	n/a	n/a	4	-999	n/a	n/a	n/a	n/a	5	[0, 0, 0]	-999	PAL1	1	R1097N
1211.484	0.001	1354154	REC_EVENT	5027.0	n/a	4	4	FOG	<>	STEM	FOG	5	[0, 0, 0]	-999	PAL1	1	R1097N
1211.485	0.014	1354155	REC_END	n/a	n/a	4	-999	n/a	n/a	n/a	n/a	5	[0, 0, 0]	-999	PAL1	1	R1097N
1211.499	0.275	1354169	TEST_ORIENT	n/a	n/a	1	5	VEST	RAIN	VEST	RAIN	5	[0, 0, 0]	-999	PAL1	1	R1097N
1212.484	4.0	1355154	TEST_PROBE	n/a	wordpools/wordpool_EN.txt	1	5	VEST	RAIN	VEST	RAIN	5	[0, 0, 0]	-999	PAL1	1	R1097N
1212.485	1.514	1355155	REC_START	n/a	n/a	1	-999	n/a	RAIN	n/a	n/a	5	[0, 0, 0]	-999	PAL1	1	R1097N
1213.999	3.485	1356668	REC_EVENT	1514.0	n/a	1	5	VEST	RAIN	VEST	RAIN	5	[0, 0, 0]	-999	PAL1	1	R1097N
1217.484	0.018	1360151	REC_END	n/a	n/a	1	-999	n/a	n/a	n/a	n/a	5	[0, 0, 0]	-999	PAL1	1	R1097N
1217.502	0.275	1360169	TEST_ORIENT	n/a	n/a	2	6	PALM	PASS	DART	PALM	5	[0, 0, 0]	-999	PAL1	1	R1097N
1218.363	4.0	1361030	TEST_PROBE	n/a	wordpools/wordpool_EN.txt	2	6	PALM	PASS	DART	PALM	5	[0, 0, 0]	-999	PAL1	1	R1097N
1218.364	2.998	1361031	REC_START	n/a	n/a	2	-999	n/a	PASS	n/a	n/a	5	[0, 0, 0]	-999	PAL1	1	R1097N
1221.362	2.001	1364027	REC_EVENT	2998.0	n/a	2	6	PALM	PASS	DART	PALM	5	[0, 0, 0]	-999	PAL1	1	R1097N
1223.363	0.027	1366027	REC_END	n/a	n/a	2	-999	n/a	n/a	n/a	n/a	5	[0, 0, 0]	-999	PAL1	1	R1097N
1223.39	21.212	1366054	FORCED_BREAK	n/a	n/a	2	-999	n/a	n/a	n/a	n/a	5	[0, 0, 0]	-999	PAL1	1	R1097N
1244.602	0.003	1387256	ENCODING_START	n/a	n/a	0	-999	n/a	n/a	n/a	n/a	6	[0, 0, 0]	-999	PAL1	1	R1097N
1244.605	0.275	1387259	STUDY_ORIENT	n/a	n/a	1	1	SLUSH	PASS	SLUSH	SPONGE	6	[0, 0, 0]	-999	PAL1	1	R1097N
1245.451	4.0	1388105	STUDY_PAIR	n/a	wordpools/wordpool_EN.txt	1	1	SLUSH	PASS	SLUSH	SPONGE	6	[0, 0, 0]	-999	PAL1	1	R1097N
1250.452	0.275	1393104	STUDY_ORIENT	n/a	n/a	2	2	CASH	COIN	DIME	CASH	6	[0, 0, 0]	-999	PAL1	1	R1097N
1251.203	4.0	1393854	STUDY_PAIR	n/a	wordpools/wordpool_EN.txt	2	2	CASH	COIN	DIME	CASH	6	[0, 0, 0]	-999	PAL1	1	R1097N
1256.203	0.275	1398852	STUDY_ORIENT	n/a	n/a	3	3	WORLD	n/a	WORLD	TANK	6	[0, 0, 0]	-999	PAL1	1	R1097N
1256.986	4.0	1399635	STUDY_PAIR	n/a	wordpools/wordpool_EN.txt	3	3	WORLD	n/a	WORLD	TANK	6	[0, 0, 0]	-999	PAL1	1	R1097N
1261.987	0.275	1404633	STUDY_ORIENT	n/a	n/a	4	4	BAG	BAG	BAG	ROOF	6	[0, 0, 0]	-999	PAL1	1	R1097N
1262.965	4.0	1405611	STUDY_PAIR	n/a	wordpools/wordpool_EN.txt	4	4	BAG	BAG	BAG	ROOF	6	[0, 0, 0]	-999	PAL1	1	R1097N
1267.966	0.275	1410609	STUDY_ORIENT	n/a	n/a	5	5	CORN	STREET	CORN	STREET	6	[0, 0, 0]	-999	PAL1	1	R1097N
1268.77	4.0	1411413	STUDY_PAIR	n/a	wordpools/wordpool_EN.txt	5	5	CORN	STREET	CORN	STREET	6	[0, 0, 0]	-999	PAL1	1	R1097N
1273.771	0.275	1416412	STUDY_ORIENT	n/a	n/a	6	6	FUR	PLATE	FUR	BOWL	6	[0, 0, 0]	-999	PAL1	1	R1097N
1274.571	4.0	1417211	STUDY_PAIR	n/a	wordpools/wordpool_EN.txt	6	6	FUR	PLATE	FUR	BOWL	6	[0, 0, 0]	-999	PAL1	1	R1097N
1278.572	0.999	1421210	START	n/a	n/a	-999	-999	n/a	n/a	n/a	n/a	7	[-999, -999, -999]	-999	PAL1	1	R1097N
1279.571	0.001	1422209	MATH_START	n/a	n/a	-999	-999	n/a	n/a	n/a	n/a	6	[0, 0, 0]	-999	PAL1	1	R1097N
1279.572	9.221	1422210	PROB	9217.0	n/a	-999	-999	n/a	n/a	n/a	n/a	7	[6, 3, 2]	11	PAL1	1	R1097N
1288.793	4.05	1431426	PROB	4046.0	n/a	-999	-999	n/a	n/a	n/a	n/a	7	[3, 6, 2]	11	PAL1	1	R1097N
1292.843	4.05	1435475	PROB	4045.0	n/a	-999	-999	n/a	n/a	n/a	n/a	7	[2, 7, 5]	14	PAL1	1	R1097N
1296.893	4.269	1439523	PROB	4269.0	n/a	-999	-999	n/a	n/a	n/a	n/a	7	[9, 1, 9]	19	PAL1	1	R1097N
1301.162	0.002	1443790	STOP	n/a	n/a	-999	-999	n/a	n/a	n/a	n/a	7	[-999, -999, -999]	-999	PAL1	1	R1097N
1301.164	0.0	1443792	TEST_START	n/a	n/a	-999	-999	n/a	n/a	n/a	n/a	6	[0, 0, 0]	-999	PAL1	1	R1097N
1301.164	0.002	1443792	MATH_END	n/a	n/a	-999	-999	n/a	n/a	n/a	n/a	6	[0, 0, 0]	-999	PAL1	1	R1097N
1301.166	0.275	1443794	TEST_ORIENT	n/a	n/a	1	1	SLUSH	PASS	SLUSH	SPONGE	6	[0, 0, 0]	-999	PAL1	1	R1097N
1302.011	4.0	1444638	TEST_PROBE	n/a	wordpools/wordpool_EN.txt	1	1	SLUSH	PASS	SLUSH	SPONGE	6	[0, 0, 0]	-999	PAL1	1	R1097N
1302.014	2.577	1444641	REC_START	n/a	n/a	1	-999	n/a	PASS	n/a	n/a	6	[0, 0, 0]	-999	PAL1	1	R1097N
1304.591	2.42	1447217	REC_EVENT	2577.0	n/a	1	1	SLUSH	PASS	SLUSH	SPONGE	6	[0, 0, 0]	-999	PAL1	1	R1097N
1307.011	0.018	1449636	REC_END	n/a	n/a	1	-999	n/a	n/a	n/a	n/a	6	[0, 0, 0]	-999	PAL1	1	R1097N
1307.029	0.275	1449654	TEST_ORIENT	n/a	n/a	2	2	CASH	COIN	DIME	CASH	6	[0, 0, 0]	-999	PAL1	1	R1097N
1307.791	4.0	1450415	TEST_PROBE	n/a	wordpools/wordpool_EN.txt	2	2	CASH	COIN	DIME	CASH	6	[0, 0, 0]	-999	PAL1	1	R1097N
1307.792	1.273	1450416	REC_START	n/a	n/a	2	-999	n/a	COIN	n/a	n/a	6	[0, 0, 0]	-999	PAL1	1	R1097N
1309.065	3.726	1451689	REC_EVENT	1273.0	n/a	2	2	CASH	COIN	DIME	CASH	6	[0, 0, 0]	-999	PAL1	1	R1097N
1312.791	0.018	1455413	REC_END	n/a	n/a	2	-999	n/a	n/a	n/a	n/a	6	[0, 0, 0]	-999	PAL1	1	R1097N
1312.809	0.275	1455431	TEST_ORIENT	n/a	n/a	3	3	WORLD	n/a	WORLD	TANK	6	[0, 0, 0]	-999	PAL1	1	R1097N
1313.57	4.0	1456192	TEST_PROBE	n/a	wordpools/wordpool_EN.txt	3	3	WORLD	n/a	WORLD	TANK	6	[0, 0, 0]	-999	PAL1	1	R1097N
1313.571	4.998	1456193	REC_START	n/a	n/a	3	-999	n/a	n/a	n/a	n/a	6	[0, 0, 0]	-999	PAL1	1	R1097N
1318.569	0.001	1461188	REC_EVENT	4998.0	n/a	3	3	WORLD	<>	WORLD	TANK	6	[0, 0, 0]	-999	PAL1	1	R1097N
1318.57	0.018	1461189	REC_END	n/a	n/a	3	-999	n/a	n/a	n/a	n/a	6	[0, 0, 0]	-999	PAL1	1	R1097N
1318.588	0.275	1461207	TEST_ORIENT	n/a	n/a	4	4	BAG	BAG	BAG	ROOF	6	[0, 0, 0]	-999	PAL1	1	R1097N
1319.454	4.0	1462073	TEST_PROBE	n/a	wordpools/wordpool_EN.txt	4	4	BAG	BAG	BAG	ROOF	6	[0, 0, 0]	-999	PAL1	1	R1097N
1319.456	2.643	1462075	REC_START	n/a	n/a	4	-999	n/a	BAG	n/a	n/a	6	[0, 0, 0]	-999	PAL1	1	R1097N
1322.099	2.355	1464717	REC_EVENT	2643.0	n/a	4	4	BAG	BAG	BAG	ROOF	6	[0, 0, 0]	-999	PAL1	1	R1097N
1324.454	0.018	1467071	REC_END	n/a	n/a	4	-999	n/a	n/a	n/a	n/a	6	[0, 0, 0]	-999	PAL1	1	R1097N
1324.472	0.275	1467089	TEST_ORIENT	n/a	n/a	5	5	CORN	STREET	CORN	STREET	6	[0, 0, 0]	-999	PAL1	1	R1097N
1325.346	4.0	1467962	TEST_PROBE	n/a	wordpools/wordpool_EN.txt	5	5	CORN	STREET	CORN	STREET	6	[0, 0, 0]	-999	PAL1	1	R1097N
1325.347	2.252	1467963	REC_START	n/a	n/a	5	-999	n/a	STREET	n/a	n/a	6	[0, 0, 0]	-999	PAL1	1	R1097N
1327.599	2.747	1470214	REC_EVENT	2252.0	n/a	5	5	CORN	STREET	CORN	STREET	6	[0, 0, 0]	-999	PAL1	1	R1097N
1330.346	0.018	1472960	REC_END	n/a	n/a	5	-999	n/a	n/a	n/a	n/a	6	[0, 0, 0]	-999	PAL1	1	R1097N
1330.364	0.275	1472978	TEST_ORIENT	n/a	n/a	6	6	FUR	PLATE	FUR	BOWL	6	[0, 0, 0]	-999	PAL1	1	R1097N
1331.146	4.0	1473759	TEST_PROBE	n/a	wordpools/wordpool_EN.txt	6	6	FUR	PLATE	FUR	BOWL	6	[0, 0, 0]	-999	PAL1	1	R1097N
1331.147	2.098	1473760	REC_START	n/a	n/a	6	-999	n/a	PLATE	n/a	n/a	6	[0, 0, 0]	-999	PAL1	1	R1097N
1333.245	0.834	1475857	REC_EVENT	2098.0	n/a	6	6	FUR	FUR	FUR	BOWL	6	[0, 0, 0]	-999	PAL1	1	R1097N
1334.079	2.067	1476691	REC_EVENT	2932.0	n/a	6	6	FUR	PLATE	FUR	BOWL	6	[0, 0, 0]	-999	PAL1	1	R1097N
1336.146	0.026	1478757	REC_END	n/a	n/a	6	-999	n/a	n/a	n/a	n/a	6	[0, 0, 0]	-999	PAL1	1	R1097N
1336.172	138.385	1478783	FORCED_BREAK	n/a	n/a	6	-999	n/a	n/a	n/a	n/a	6	[0, 0, 0]	-999	PAL1	1	R1097N
1474.557	0.004	1617103	ENCODING_START	n/a	n/a	0	-999	n/a	n/a	n/a	n/a	7	[0, 0, 0]	-999	PAL1	1	R1097N
1474.561	0.275	1617107	STUDY_ORIENT	n/a	n/a	1	1	BED	TIE	BED	TIE	7	[0, 0, 0]	-999	PAL1	1	R1097N
1475.314	4.0	1617859	STUDY_PAIR	n/a	wordpools/wordpool_EN.txt	1	1	BED	TIE	BED	TIE	7	[0, 0, 0]	-999	PAL1	1	R1097N
1480.314	0.275	1622857	STUDY_ORIENT	n/a	n/a	2	4	CLOWN	FLEA	FLEA	CLOWN	7	[0, 0, 0]	-999	PAL1	1	R1097N
1481.252	4.0	1623794	STUDY_PAIR	n/a	wordpools/wordpool_EN.txt	2	4	CLOWN	FLEA	FLEA	CLOWN	7	[0, 0, 0]	-999	PAL1	1	R1097N
1486.253	0.275	1628793	STUDY_ORIENT	n/a	n/a	3	3	BEE	ROAD	BEE	ROAD	7	[0, 0, 0]	-999	PAL1	1	R1097N
1487.209	4.0	1629749	STUDY_PAIR	n/a	wordpools/wordpool_EN.txt	3	3	BEE	ROAD	BEE	ROAD	7	[0, 0, 0]	-999	PAL1	1	R1097N
1492.21	0.275	1634747	STUDY_ORIENT	n/a	n/a	4	2	HAWK	FLUTE	MOOSE	HAWK	7	[0, 0, 0]	-999	PAL1	1	R1097N
1493.17	4.0	1635707	STUDY_PAIR	n/a	wordpools/wordpool_EN.txt	4	2	HAWK	FLUTE	MOOSE	HAWK	7	[0, 0, 0]	-999	PAL1	1	R1097N
1498.171	0.275	1640705	STUDY_ORIENT	n/a	n/a	5	5	CONE	HAND	CONE	HAND	7	[0, 0, 0]	-999	PAL1	1	R1097N
1499.068	4.0	1641602	STUDY_PAIR	n/a	wordpools/wordpool_EN.txt	5	5	CONE	HAND	CONE	HAND	7	[0, 0, 0]	-999	PAL1	1	R1097N
1504.068	0.275	1646600	STUDY_ORIENT	n/a	n/a	6	6	STOVE	STOVE	FLUTE	STOVE	7	[0, 0, 0]	-999	PAL1	1	R1097N
1504.946	4.0	1647477	STUDY_PAIR	n/a	wordpools/wordpool_EN.txt	6	6	STOVE	STOVE	FLUTE	STOVE	7	[0, 0, 0]	-999	PAL1	1	R1097N
1508.947	0.999	1651476	START	n/a	n/a	-999	-999	n/a	n/a	n/a	n/a	8	[-999, -999, -999]	-999	PAL1	1	R1097N
1509.946	0.001	1652475	MATH_START	n/a	n/a	-999	-999	n/a	n/a	n/a	n/a	7	[0, 0, 0]	-999	PAL1	1	R1097N
1509.947	8.873	1652476	PROB	8869.0	n/a	-999	-999	n/a	n/a	n/a	n/a	8	[1, 9, 2]	12	PAL1	1	R1097N
1518.82	7.612	1661345	PROB	7607.0	n/a	-999	-999	n/a	n/a	n/a	n/a	8	[5, 1, 4]	10	PAL1	1	R1097N
1526.432	4.781	1668953	PROB	4781.0	n/a	-999	-999	n/a	n/a	n/a	n/a	8	[8, 1, 7]	16	PAL1	1	R1097N
1531.213	0.002	1673732	STOP	n/a	n/a	-999	-999	n/a	n/a	n/a	n/a	8	[-999, -999, -999]	-999	PAL1	1	R1097N
1531.215	0.0	1673734	MATH_END	n/a	n/a	-999	-999	n/a	n/a	n/a	n/a	7	[0, 0, 0]	-999	PAL1	1	R1097N
1531.215	0.002	1673734	TEST_START	n/a	n/a	-999	-999	n/a	n/a	n/a	n/a	7	[0, 0, 0]	-999	PAL1	1	R1097N
1531.217	0.275	1673736	TEST_ORIENT	n/a	n/a	1	1	BED	TIE	BED	TIE	7	[0, 0, 0]	-999	PAL1	1	R1097N
1532.137	4.0	1674655	TEST_PROBE	n/a	wordpools/wordpool_EN.txt	1	1	BED	TIE	BED	TIE	7	[0, 0, 0]	-999	PAL1	1	R1097N
1532.139	2.537	1674657	REC_START	n/a	n/a	1	-999	n/a	TIE	n/a	n/a	7	[0, 0, 0]	-999	PAL1	1	R1097N
1534.676	2.461	1677193	REC_EVENT	2537.0	n/a	1	1	BED	TIE	BED	TIE	7	[0, 0, 0]	-999	PAL1	1	R1097N
1537.137	0.018	1679653	REC_END	n/a	n/a	1	-999	n/a	n/a	n/a	n/a	7	[0, 0, 0]	-999	PAL1	1	R1097N
1537.155	0.275	1679671	TEST_ORIENT	n/a	n/a	4	2	HAWK	FLUTE	MOOSE	HAWK	7	[0, 0, 0]	-999	PAL1	1	R1097N
1538.095	4.0	1680610	TEST_PROBE	n/a	wordpools/wordpool_EN.txt	4	2	HAWK	FLUTE	MOOSE	HAWK	7	[0, 0, 0]	-999	PAL1	1	R1097N
1538.096	1.598	1680611	REC_START	n/a	n/a	4	-999	n/a	FLUTE	n/a	n/a	7	[0, 0, 0]	-999	PAL1	1	R1097N
1539.694	3.401	1682209	REC_EVENT	1598.0	n/a	4	2	HAWK	FLUTE	MOOSE	HAWK	7	[0, 0, 0]	-999	PAL1	1	R1097N
1543.095	0.018	1685608	REC_END	n/a	n/a	4	-999	n/a	n/a	n/a	n/a	7	[0, 0, 0]	-999	PAL1	1	R1097N
1543.113	0.275	1685626	TEST_ORIENT	n/a	n/a	3	3	BEE	ROAD	BEE	ROAD	7	[0, 0, 0]	-999	PAL1	1	R1097N
1543.911	4.0	1686424	TEST_PROBE	n/a	wordpools/wordpool_EN.txt	3	3	BEE	ROAD	BEE	ROAD	7	[0, 0, 0]	-999	PAL1	1	R1097N
1543.912	1.663	1686425	REC_START	n/a	n/a	3	-999	n/a	ROAD	n/a	n/a	7	[0, 0, 0]	-999	PAL1	1	R1097N
1545.575	1.936	1688087	REC_EVENT	1663.0	n/a	3	3	BEE	BEE	BEE	ROAD	7	[0, 0, 0]	-999	PAL1	1	R1097N
1547.511	1.4	1690022	REC_EVENT	3599.0	n/a	3	3	BEE	ROAD	BEE	ROAD	7	[0, 0, 0]	-999	PAL1	1	R1097N
1548.911	0.019	1691421	REC_END	n/a	n/a	3	-999	n/a	n/a	n/a	n/a	7	[0, 0, 0]	-999	PAL1	1	R1097N
1548.93	0.275	1691440	TEST_ORIENT	n/a	n/a	2	4	CLOWN	FLEA	FLEA	CLOWN	7	[0, 0, 0]	-999	PAL1	1	R1097N
1549.732	4.0	1692242	TEST_PROBE	n/a	wordpools/wordpool_EN.txt	2	4	CLOWN	FLEA	FLEA	CLOWN	7	[0, 0, 0]	-999	PAL1	1	R1097N
1549.733	1.407	1692243	REC_START	n/a	n/a	2	-999	n/a	FLEA	n/a	n/a	7	[0, 0, 0]	-999	PAL1	1	R1097N
1551.14	2.146	1693649	REC_EVENT	1407.0	n/a	2	4	CLOWN	CLOWN	FLEA	CLOWN	7	[0, 0, 0]	-999	PAL1	1	R1097N
1553.286	1.446	1695794	REC_EVENT	3553.0	n/a	2	4	CLOWN	FLEA	FLEA	CLOWN	7	[0, 0, 0]	-999	PAL1	1	R1097N
1554.732	0.019	1697240	REC_END	n/a	n/a	2	-999	n/a	n/a	n/a	n/a	7	[0, 0, 0]	-999	PAL1	1	R1097N
1554.751	0.275	1697259	TEST_ORIENT	n/a	n/a	5	5	CONE	HAND	CONE	HAND	7	[0, 0, 0]	-999	PAL1	1	R1097N
1555.519	4.0	1698026	TEST_PROBE	n/a	wordpools/wordpool_EN.txt	5	5	CONE	HAND	CONE	HAND	7	[0, 0, 0]	-999	PAL1	1	R1097N
1555.52	1.25	1698027	REC_START	n/a	n/a	5	-999	n/a	HAND	n/a	n/a	7	[0, 0, 0]	-999	PAL1	1	R1097N
1556.77	2.393	1699277	REC_EVENT	1250.0	n/a	5	5	CONE	CONE	CONE	HAND	7	[0, 0, 0]	-999	PAL1	1	R1097N
1559.163	1.356	1701669	REC_EVENT	3643.0	n/a	5	5	CONE	HAND	CONE	HAND	7	[0, 0, 0]	-999	PAL1	1	R1097N
1560.519	0.019	1703024	REC_END	n/a	n/a	5	-999	n/a	n/a	n/a	n/a	7	[0, 0, 0]	-999	PAL1	1	R1097N
1560.538	0.275	1703043	TEST_ORIENT	n/a	n/a	6	6	STOVE	STOVE	FLUTE	STOVE	7	[0, 0, 0]	-999	PAL1	1	R1097N
1561.509	4.0	1704013	TEST_PROBE	n/a	wordpools/wordpool_EN.txt	6	6	STOVE	STOVE	FLUTE	STOVE	7	[0, 0, 0]	-999	PAL1	1	R1097N
1561.51	1.965	1704014	REC_START	n/a	n/a	6	-999	n/a	STOVE	n/a	n/a	7	[0, 0, 0]	-999	PAL1	1	R1097N
1563.475	3.034	1705978	REC_EVENT	1965.0	n/a	6	6	STOVE	STOVE	FLUTE	STOVE	7	[0, 0, 0]	-999	PAL1	1	R1097N
1566.509	0.027	1709011	REC_END	n/a	n/a	6	-999	n/a	n/a	n/a	n/a	7	[0, 0, 0]	-999	PAL1	1	R1097N
1566.536	16.355	1709038	FORCED_BREAK	n/a	n/a	6	-999	n/a	n/a	n/a	n/a	7	[0, 0, 0]	-999	PAL1	1	R1097N
1582.891	0.004	1725385	ENCODING_START	n/a	n/a	0	-999	n/a	n/a	n/a	n/a	8	[0, 0, 0]	-999	PAL1	1	R1097N
1582.895	0.275	1725389	STUDY_ORIENT	n/a	n/a	1	3	SLIME	LINE	SLIME	SMILE	8	[0, 0, 0]	-999	PAL1	1	R1097N
1583.695	4.0	1726189	STUDY_PAIR	n/a	wordpools/wordpool_EN.txt	1	3	SLIME	LINE	SLIME	SMILE	8	[0, 0, 0]	-999	PAL1	1	R1097N
1588.696	0.275	1731188	STUDY_ORIENT	n/a	n/a	2	4	TOY	MAZE	MAZE	TOY	8	[0, 0, 0]	-999	PAL1	1	R1097N
1589.599	4.0	1732090	STUDY_PAIR	n/a	wordpools/wordpool_EN.txt	2	4	TOY	MAZE	MAZE	TOY	8	[0, 0, 0]	-999	PAL1	1	R1097N
1594.599	0.275	1737088	STUDY_ORIENT	n/a	n/a	3	1	BRICK	PASS	BRICK	STEAK	8	[0, 0, 0]	-999	PAL1	1	R1097N
1595.391	4.0	1737879	STUDY_PAIR	n/a	wordpools/wordpool_EN.txt	3	1	BRICK	PASS	BRICK	STEAK	8	[0, 0, 0]	-999	PAL1	1	R1097N
1600.392	0.275	1742878	STUDY_ORIENT	n/a	n/a	4	6	PLANT	n/a	CANE	PLANT	8	[0, 0, 0]	-999	PAL1	1	R1097N
1601.321	4.0	1743807	STUDY_PAIR	n/a	wordpools/wordpool_EN.txt	4	6	PLANT	n/a	CANE	PLANT	8	[0, 0, 0]	-999	PAL1	1	R1097N
1606.322	0.275	1748805	STUDY_ORIENT	n/a	n/a	5	5	LOCK	BATH	BATH	LOCK	8	[0, 0, 0]	-999	PAL1	1	R1097N
1607.086	4.0	1749569	STUDY_PAIR	n/a	wordpools/wordpool_EN.txt	5	5	LOCK	BATH	BATH	LOCK	8	[0, 0, 0]	-999	PAL1	1	R1097N
1612.087	0.275	1754567	STUDY_ORIENT	n/a	n/a	6	2	STORM	STORM	LAMP	STORM	8	[0, 0, 0]	-999	PAL1	1	R1097N
1612.89	4.0	1755370	STUDY_PAIR	n/a	wordpools/wordpool_EN.txt	6	2	STORM	STORM	LAMP	STORM	8	[0, 0, 0]	-999	PAL1	1	R1097N
1616.891	0.999	1759369	START	n/a	n/a	-999	-999	n/a	n/a	n/a	n/a	9	[-999, -999, -999]	-999	PAL1	1	R1097N
1617.89	0.001	1760368	MATH_START	n/a	n/a	-999	-999	n/a	n/a	n/a	n/a	8	[0, 0, 0]	-999	PAL1	1	R1097N
1617.891	3.926	1760369	PROB	3921.0	n/a	-999	-999	n/a	n/a	n/a	n/a	9	[2, 2, 8]	12	PAL1	1	R1097N
1621.817	5.754	1764293	PROB	5750.0	n/a	-999	-999	n/a	n/a	n/a	n/a	9	[2, 8, 6]	16	PAL1	1	R1097N
1627.571	5.178	1770044	PROB	5174.0	n/a	-999	-999	n/a	n/a	n/a	n/a	9	[4, 2, 7]	13	PAL1	1	R1097N
1632.749	4.502	1775220	PROB	4502.0	n/a	-999	-999	n/a	n/a	n/a	n/a	9	[5, 5, 6]	16	PAL1	1	R1097N
1637.251	0.001	1779720	STOP	n/a	n/a	-999	-999	n/a	n/a	n/a	n/a	9	[-999, -999, -999]	-999	PAL1	1	R1097N
1637.252	0.0	1779721	TEST_START	n/a	n/a	-999	-999	n/a	n/a	n/a	n/a	8	[0, 0, 0]	-999	PAL1	1	R1097N
1637.252	0.002	1779721	MATH_END	n/a	n/a	-999	-999	n/a	n/a	n/a	n/a	8	[0, 0, 0]	-999	PAL1	1	R1097N
1637.254	0.275	1779723	TEST_ORIENT	n/a	n/a	3	1	BRICK	PASS	BRICK	STEAK	8	[0, 0, 0]	-999	PAL1	1	R1097N
1638.016	4.0	1780484	TEST_PROBE	n/a	wordpools/wordpool_EN.txt	3	1	BRICK	PASS	BRICK	STEAK	8	[0, 0, 0]	-999	PAL1	1	R1097N
1638.017	3.835	1780485	REC_START	n/a	n/a	3	-999	n/a	PASS	n/a	n/a	8	[0, 0, 0]	-999	PAL1	1	R1097N
1641.852	1.164	1784318	REC_EVENT	3835.0	n/a	3	1	BRICK	PASS	BRICK	STEAK	8	[0, 0, 0]	-999	PAL1	1	R1097N
1643.016	0.018	1785482	REC_END	n/a	n/a	3	-999	n/a	n/a	n/a	n/a	8	[0, 0, 0]	-999	PAL1	1	R1097N
1643.034	0.275	1785500	TEST_ORIENT	n/a	n/a	6	2	STORM	STORM	LAMP	STORM	8	[0, 0, 0]	-999	PAL1	1	R1097N
1643.821	4.0	1786286	TEST_PROBE	n/a	wordpools/wordpool_EN.txt	6	2	STORM	STORM	LAMP	STORM	8	[0, 0, 0]	-999	PAL1	1	R1097N
1643.822	2.349	1786287	REC_START	n/a	n/a	6	-999	n/a	STORM	n/a	n/a	8	[0, 0, 0]	-999	PAL1	1	R1097N
1646.171	0.637	1788635	REC_EVENT	2349.0	n/a	6	2	STORM	LAMP	LAMP	STORM	8	[0, 0, 0]	-999	PAL1	1	R1097N
1646.808	2.013	1789272	REC_EVENT	2986.0	n/a	6	2	STORM	STORM	LAMP	STORM	8	[0, 0, 0]	-999	PAL1	1	R1097N
1648.821	0.018	1791284	REC_END	n/a	n/a	6	-999	n/a	n/a	n/a	n/a	8	[0, 0, 0]	-999	PAL1	1	R1097N
1648.839	0.275	1791302	TEST_ORIENT	n/a	n/a	1	3	SLIME	LINE	SLIME	SMILE	8	[0, 0, 0]	-999	PAL1	1	R1097N
1649.652	4.0	1792115	TEST_PROBE	n/a	wordpools/wordpool_EN.txt	1	3	SLIME	LINE	SLIME	SMILE	8	[0, 0, 0]	-999	PAL1	1	R1097N
1649.653	1.108	1792116	REC_START	n/a	n/a	1	-999	n/a	LINE	n/a	n/a	8	[0, 0, 0]	-999	PAL1	1	R1097N
1650.761	1.863	1793223	REC_EVENT	1108.0	n/a	1	3	SLIME	SLIME	SLIME	SMILE	8	[0, 0, 0]	-999	PAL1	1	R1097N
1652.624	2.028	1795085	REC_EVENT	2971.0	n/a	1	3	SLIME	LINE	SLIME	SMILE	8	[0, 0, 0]	-999	PAL1	1	R1097N
1654.652	0.018	1797112	REC_END	n/a	n/a	1	-999	n/a	n/a	n/a	n/a	8	[0, 0, 0]	-999	PAL1	1	R1097N
1654.67	0.275	1797130	TEST_ORIENT	n/a	n/a	2	4	TOY	MAZE	MAZE	TOY	8	[0, 0, 0]	-999	PAL1	1	R1097N
1655.638	4.0	1798098	TEST_PROBE	n/a	wordpools/wordpool_EN.txt	2	4	TOY	MAZE	MAZE	TOY	8	[0, 0, 0]	-999	PAL1	1	R1097N
1655.64	1.398	1798100	REC_START	n/a	n/a	2	-999	n/a	MAZE	n/a	n/a	8	[0, 0, 0]	-999	PAL1	1	R1097N
1657.038	0.479	1799497	REC_EVENT	1398.0	n/a	2	4	TOY	TOY	MAZE	TOY	8	[0, 0, 0]	-999	PAL1	1	R1097N
1657.517	3.121	1799976	REC_EVENT	1877.0	n/a	2	4	TOY	MAZE	MAZE	TOY	8	[0, 0, 0]	-999	PAL1	1	R1097N
1660.638	0.018	1803095	REC_END	n/a	n/a	2	-999	n/a	n/a	n/a	n/a	8	[0, 0, 0]	-999	PAL1	1	R1097N
1660.656	0.275	1803113	TEST_ORIENT	n/a	n/a	5	5	LOCK	BATH	BATH	LOCK	8	[0, 0, 0]	-999	PAL1	1	R1097N
1661.627	4.0	1804084	TEST_PROBE	n/a	wordpools/wordpool_EN.txt	5	5	LOCK	BATH	BATH	LOCK	8	[0, 0, 0]	-999	PAL1	1	R1097N
1661.628	1.107	1804085	REC_START	n/a	n/a	5	-999	n/a	BATH	n/a	n/a	8	[0, 0, 0]	-999	PAL1	1	R1097N
1662.735	0.873	1805191	REC_EVENT	1107.0	n/a	5	5	LOCK	LOCK	BATH	LOCK	8	[0, 0, 0]	-999	PAL1	1	R1097N
1663.608	3.019	1806064	REC_EVENT	1980.0	n/a	5	5	LOCK	BATH	BATH	LOCK	8	[0, 0, 0]	-999	PAL1	1	R1097N
1666.627	0.018	1809082	REC_END	n/a	n/a	5	-999	n/a	n/a	n/a	n/a	8	[0, 0, 0]	-999	PAL1	1	R1097N
1666.645	0.275	1809100	TEST_ORIENT	n/a	n/a	4	6	PLANT	n/a	CANE	PLANT	8	[0, 0, 0]	-999	PAL1	1	R1097N
1667.481	4.0	1809935	TEST_PROBE	n/a	wordpools/wordpool_EN.txt	4	6	PLANT	n/a	CANE	PLANT	8	[0, 0, 0]	-999	PAL1	1	R1097N
1667.482	4.998	1809936	REC_START	n/a	n/a	4	-999	n/a	n/a	n/a	n/a	8	[0, 0, 0]	-999	PAL1	1	R1097N
1672.48	0.001	1814932	REC_EVENT	4998.0	n/a	4	6	PLANT	<>	CANE	PLANT	8	[0, 0, 0]	-999	PAL1	1	R1097N
1672.481	0.026	1814933	REC_END	n/a	n/a	4	-999	n/a	n/a	n/a	n/a	8	[0, 0, 0]	-999	PAL1	1	R1097N
1672.507	14.621	1814959	FORCED_BREAK	n/a	n/a	4	-999	n/a	n/a	n/a	n/a	8	[0, 0, 0]	-999	PAL1	1	R1097N
1687.128	0.004	1829573	ENCODING_START	n/a	n/a	0	-999	n/a	n/a	n/a	n/a	9	[0, 0, 0]	-999	PAL1	1	R1097N
1687.132	0.275	1829577	STUDY_ORIENT	n/a	n/a	1	1	WOOD	FLOOR	FLOOR	WOOD	9	[0, 0, 0]	-999	PAL1	1	R1097N
1688.033	4.0	1830478	STUDY_PAIR	n/a	wordpools/wordpool_EN.txt	1	1	WOOD	FLOOR	FLOOR	WOOD	9	[0, 0, 0]	-999	PAL1	1	R1097N
1693.034	0.275	1835476	STUDY_ORIENT	n/a	n/a	2	6	TOOTH	NEST	NEST	TOOTH	9	[0, 0, 0]	-999	PAL1	1	R1097N
1693.897	4.0	1836339	STUDY_PAIR	n/a	wordpools/wordpool_EN.txt	2	6	TOOTH	NEST	NEST	TOOTH	9	[0, 0, 0]	-999	PAL1	1	R1097N
1698.898	0.275	1841337	STUDY_ORIENT	n/a	n/a	3	5	HEN	SKUNK	HEN	SKUNK	9	[0, 0, 0]	-999	PAL1	1	R1097N
1699.67	4.0	1842109	STUDY_PAIR	n/a	wordpools/wordpool_EN.txt	3	5	HEN	SKUNK	HEN	SKUNK	9	[0, 0, 0]	-999	PAL1	1	R1097N
1704.67	0.275	1847107	STUDY_ORIENT	n/a	n/a	4	4	PIN	SIGN	PIN	SIGN	9	[0, 0, 0]	-999	PAL1	1	R1097N
1705.648	4.0	1848084	STUDY_PAIR	n/a	wordpools/wordpool_EN.txt	4	4	PIN	SIGN	PIN	SIGN	9	[0, 0, 0]	-999	PAL1	1	R1097N
1710.649	0.275	1853083	STUDY_ORIENT	n/a	n/a	5	3	TREE	PLANE	TREE	PLANE	9	[0, 0, 0]	-999	PAL1	1	R1097N
1711.522	4.0	1853955	STUDY_PAIR	n/a	wordpools/wordpool_EN.txt	5	3	TREE	PLANE	TREE	PLANE	9	[0, 0, 0]	-999	PAL1	1	R1097N
1716.522	0.275	1858953	STUDY_ORIENT	n/a	n/a	6	2	SMOKE	ZOO	SMOKE	ZOO	9	[0, 0, 0]	-999	PAL1	1	R1097N
1717.274	4.0	1859705	STUDY_PAIR	n/a	wordpools/wordpool_EN.txt	6	2	SMOKE	ZOO	SMOKE	ZOO	9	[0, 0, 0]	-999	PAL1	1	R1097N
1721.275	0.999	1863704	START	n/a	n/a	-999	-999	n/a	n/a	n/a	n/a	10	[-999, -999, -999]	-999	PAL1	1	R1097N
1722.274	0.001	1864702	MATH_START	n/a	n/a	-999	-999	n/a	n/a	n/a	n/a	9	[0, 0, 0]	-999	PAL1	1	R1097N
1722.275	4.819	1864703	PROB	4814.0	n/a	-999	-999	n/a	n/a	n/a	n/a	10	[6, 6, 6]	18	PAL1	1	R1097N
1727.094	3.498	1869520	PROB	3493.0	n/a	-999	-999	n/a	n/a	n/a	n/a	10	[9, 1, 8]	18	PAL1	1	R1097N
1730.592	4.105	1873016	PROB	4101.0	n/a	-999	-999	n/a	n/a	n/a	n/a	10	[7, 4, 2]	13	PAL1	1	R1097N
1734.697	3.081	1877119	PROB	3077.0	n/a	-999	-999	n/a	n/a	n/a	n/a	10	[5, 4, 5]	14	PAL1	1	R1097N
1737.778	5.655	1880199	PROB	5655.0	n/a	-999	-999	n/a	n/a	n/a	n/a	10	[5, 6, 3]	14	PAL1	1	R1097N
1743.433	0.001	1885851	STOP	n/a	n/a	-999	-999	n/a	n/a	n/a	n/a	10	[-999, -999, -999]	-999	PAL1	1	R1097N
1743.434	0.0	1885852	MATH_END	n/a	n/a	-999	-999	n/a	n/a	n/a	n/a	9	[0, 0, 0]	-999	PAL1	1	R1097N
1743.434	0.002	1885852	TEST_START	n/a	n/a	-999	-999	n/a	n/a	n/a	n/a	9	[0, 0, 0]	-999	PAL1	1	R1097N
1743.436	0.275	1885854	TEST_ORIENT	n/a	n/a	1	1	WOOD	FLOOR	FLOOR	WOOD	9	[0, 0, 0]	-999	PAL1	1	R1097N
1744.268	4.0	1886686	TEST_PROBE	n/a	wordpools/wordpool_EN.txt	1	1	WOOD	FLOOR	FLOOR	WOOD	9	[0, 0, 0]	-999	PAL1	1	R1097N
1744.269	1.17	1886687	REC_START	n/a	n/a	1	-999	n/a	FLOOR	n/a	n/a	9	[0, 0, 0]	-999	PAL1	1	R1097N
1745.439	1.173	1887856	REC_EVENT	1170.0	n/a	1	1	WOOD	WOOD	FLOOR	WOOD	9	[0, 0, 0]	-999	PAL1	1	R1097N
1746.612	2.656	1889029	REC_EVENT	2343.0	n/a	1	1	WOOD	FLOOR	FLOOR	WOOD	9	[0, 0, 0]	-999	PAL1	1	R1097N
1749.268	0.017	1891684	REC_END	n/a	n/a	1	-999	n/a	n/a	n/a	n/a	9	[0, 0, 0]	-999	PAL1	1	R1097N
1749.285	0.275	1891701	TEST_ORIENT	n/a	n/a	6	2	SMOKE	ZOO	SMOKE	ZOO	9	[0, 0, 0]	-999	PAL1	1	R1097N
1750.239	4.0	1892654	TEST_PROBE	n/a	wordpools/wordpool_EN.txt	6	2	SMOKE	ZOO	SMOKE	ZOO	9	[0, 0, 0]	-999	PAL1	1	R1097N
1750.24	0.895	1892655	REC_START	n/a	n/a	6	-999	n/a	ZOO	n/a	n/a	9	[0, 0, 0]	-999	PAL1	1	R1097N
1751.135	4.104	1893550	REC_EVENT	895.0	n/a	6	2	SMOKE	ZOO	SMOKE	ZOO	9	[0, 0, 0]	-999	PAL1	1	R1097N
1755.239	0.02	1897652	REC_END	n/a	n/a	6	-999	n/a	n/a	n/a	n/a	9	[0, 0, 0]	-999	PAL1	1	R1097N
1755.259	0.275	1897672	TEST_ORIENT	n/a	n/a	5	3	TREE	PLANE	TREE	PLANE	9	[0, 0, 0]	-999	PAL1	1	R1097N
1756.164	4.0	1898576	TEST_PROBE	n/a	wordpools/wordpool_EN.txt	5	3	TREE	PLANE	TREE	PLANE	9	[0, 0, 0]	-999	PAL1	1	R1097N
1756.165	1.242	1898577	REC_START	n/a	n/a	5	-999	n/a	PLANE	n/a	n/a	9	[0, 0, 0]	-999	PAL1	1	R1097N
1757.407	3.757	1899819	REC_EVENT	1242.0	n/a	5	3	TREE	PLANE	TREE	PLANE	9	[0, 0, 0]	-999	PAL1	1	R1097N
1761.164	0.018	1903574	REC_END	n/a	n/a	5	-999	n/a	n/a	n/a	n/a	9	[0, 0, 0]	-999	PAL1	1	R1097N
1761.182	0.275	1903592	TEST_ORIENT	n/a	n/a	4	4	PIN	SIGN	PIN	SIGN	9	[0, 0, 0]	-999	PAL1	1	R1097N
1762.003	4.0	1904413	TEST_PROBE	n/a	wordpools/wordpool_EN.txt	4	4	PIN	SIGN	PIN	SIGN	9	[0, 0, 0]	-999	PAL1	1	R1097N
1762.005	1.156	1904415	REC_START	n/a	n/a	4	-999	n/a	SIGN	n/a	n/a	9	[0, 0, 0]	-999	PAL1	1	R1097N
1763.161	0.482	1905570	REC_EVENT	1156.0	n/a	4	4	PIN	PIN	PIN	SIGN	9	[0, 0, 0]	-999	PAL1	1	R1097N
1763.643	3.36	1906052	REC_EVENT	1638.0	n/a	4	4	PIN	SIGN	PIN	SIGN	9	[0, 0, 0]	-999	PAL1	1	R1097N
1767.003	0.018	1909410	REC_END	n/a	n/a	4	-999	n/a	n/a	n/a	n/a	9	[0, 0, 0]	-999	PAL1	1	R1097N
1767.021	0.275	1909428	TEST_ORIENT	n/a	n/a	3	5	HEN	SKUNK	HEN	SKUNK	9	[0, 0, 0]	-999	PAL1	1	R1097N
1767.954	4.0	1910361	TEST_PROBE	n/a	wordpools/wordpool_EN.txt	3	5	HEN	SKUNK	HEN	SKUNK	9	[0, 0, 0]	-999	PAL1	1	R1097N
1767.955	1.323	1910362	REC_START	n/a	n/a	3	-999	n/a	SKUNK	n/a	n/a	9	[0, 0, 0]	-999	PAL1	1	R1097N
1769.278	0.49	1911684	REC_EVENT	1323.0	n/a	3	5	HEN	<>	HEN	SKUNK	9	[0, 0, 0]	-999	PAL1	1	R1097N
1769.768	3.186	1912174	REC_EVENT	1813.0	n/a	3	5	HEN	SKUNK	HEN	SKUNK	9	[0, 0, 0]	-999	PAL1	1	R1097N
1772.954	0.018	1915358	REC_END	n/a	n/a	3	-999	n/a	n/a	n/a	n/a	9	[0, 0, 0]	-999	PAL1	1	R1097N
1772.972	0.275	1915376	TEST_ORIENT	n/a	n/a	2	6	TOOTH	NEST	NEST	TOOTH	9	[0, 0, 0]	-999	PAL1	1	R1097N
1773.902	4.0	1916306	TEST_PROBE	n/a	wordpools/wordpool_EN.txt	2	6	TOOTH	NEST	NEST	TOOTH	9	[0, 0, 0]	-999	PAL1	1	R1097N
1773.903	0.868	1916307	REC_START	n/a	n/a	2	-999	n/a	NEST	n/a	n/a	9	[0, 0, 0]	-999	PAL1	1	R1097N
1774.771	0.911	1917174	REC_EVENT	868.0	n/a	2	6	TOOTH	TOOTH	NEST	TOOTH	9	[0, 0, 0]	-999	PAL1	1	R1097N
1775.682	3.22	1918085	REC_EVENT	1779.0	n/a	2	6	TOOTH	NEST	NEST	TOOTH	9	[0, 0, 0]	-999	PAL1	1	R1097N
1778.902	0.026	1921304	REC_END	n/a	n/a	2	-999	n/a	n/a	n/a	n/a	9	[0, 0, 0]	-999	PAL1	1	R1097N
1778.928	27.836	1921330	FORCED_BREAK	n/a	n/a	2	-999	n/a	n/a	n/a	n/a	9	[0, 0, 0]	-999	PAL1	1	R1097N
1806.764	0.003	1949152	ENCODING_START	n/a	n/a	0	-999	n/a	n/a	n/a	n/a	10	[0, 0, 0]	-999	PAL1	1	R1097N
1806.767	0.275	1949155	STUDY_ORIENT	n/a	n/a	1	3	TRASH	RICE	RICE	TRASH	10	[0, 0, 0]	-999	PAL1	1	R1097N
1807.62	4.0	1950008	STUDY_PAIR	n/a	wordpools/wordpool_EN.txt	1	3	TRASH	RICE	RICE	TRASH	10	[0, 0, 0]	-999	PAL1	1	R1097N
1812.621	0.275	1955007	STUDY_ORIENT	n/a	n/a	2	2	CHALK	n/a	CHALK	STEAM	10	[0, 0, 0]	-999	PAL1	1	R1097N
1813.479	4.0	1955864	STUDY_PAIR	n/a	wordpools/wordpool_EN.txt	2	2	CHALK	n/a	CHALK	STEAM	10	[0, 0, 0]	-999	PAL1	1	R1097N
1818.48	0.275	1960863	STUDY_ORIENT	n/a	n/a	3	5	CROW	CROW	OAK	CROW	10	[0, 0, 0]	-999	PAL1	1	R1097N
1819.398	4.0	1961780	STUDY_PAIR	n/a	wordpools/wordpool_EN.txt	3	5	CROW	CROW	OAK	CROW	10	[0, 0, 0]	-999	PAL1	1	R1097N
1824.399	0.275	1966779	STUDY_ORIENT	n/a	n/a	4	4	ARM	FARM	FARM	ARM	10	[0, 0, 0]	-999	PAL1	1	R1097N
1825.315	4.0	1967695	STUDY_PAIR	n/a	wordpools/wordpool_EN.txt	4	4	ARM	FARM	FARM	ARM	10	[0, 0, 0]	-999	PAL1	1	R1097N
1830.315	0.275	1972692	STUDY_ORIENT	n/a	n/a	5	1	SINK	n/a	SINK	SLEEVE	10	[0, 0, 0]	-999	PAL1	1	R1097N
1831.145	4.0	1973522	STUDY_PAIR	n/a	wordpools/wordpool_EN.txt	5	1	SINK	n/a	SINK	SLEEVE	10	[0, 0, 0]	-999	PAL1	1	R1097N
1836.151	0.275	1978525	STUDY_ORIENT	n/a	n/a	6	6	COUCH	EEL	EEL	COUCH	10	[0, 0, 0]	-999	PAL1	1	R1097N
1837.002	4.0	1979376	STUDY_PAIR	n/a	wordpools/wordpool_EN.txt	6	6	COUCH	EEL	EEL	COUCH	10	[0, 0, 0]	-999	PAL1	1	R1097N
1841.003	0.999	1983375	START	n/a	n/a	-999	-999	n/a	n/a	n/a	n/a	11	[-999, -999, -999]	-999	PAL1	1	R1097N
1842.002	0.001	1984374	MATH_START	n/a	n/a	-999	-999	n/a	n/a	n/a	n/a	10	[0, 0, 0]	-999	PAL1	1	R1097N
1842.003	8.192	1984375	PROB	8187.0	n/a	-999	-999	n/a	n/a	n/a	n/a	11	[8, 6, 1]	15	PAL1	1	R1097N
1850.195	7.923	1992563	PROB	7919.0	n/a	-999	-999	n/a	n/a	n/a	n/a	11	[8, 7, 3]	18	PAL1	1	R1097N
1858.118	7.615	2000482	PROB	7615.0	n/a	-999	-999	n/a	n/a	n/a	n/a	11	[1, 5, 4]	10	PAL1	1	R1097N
1865.733	0.002	2008093	STOP	n/a	n/a	-999	-999	n/a	n/a	n/a	n/a	11	[-999, -999, -999]	-999	PAL1	1	R1097N
1865.735	0.0	2008095	MATH_END	n/a	n/a	-999	-999	n/a	n/a	n/a	n/a	10	[0, 0, 0]	-999	PAL1	1	R1097N
1865.735	0.002	2008095	TEST_START	n/a	n/a	-999	-999	n/a	n/a	n/a	n/a	10	[0, 0, 0]	-999	PAL1	1	R1097N
1865.737	0.275	2008097	TEST_ORIENT	n/a	n/a	5	1	SINK	n/a	SINK	SLEEVE	10	[0, 0, 0]	-999	PAL1	1	R1097N
1866.673	4.0	2009033	TEST_PROBE	n/a	wordpools/wordpool_EN.txt	5	1	SINK	n/a	SINK	SLEEVE	10	[0, 0, 0]	-999	PAL1	1	R1097N
1866.674	4.992	2009034	REC_START	n/a	n/a	5	-999	n/a	n/a	n/a	n/a	10	[0, 0, 0]	-999	PAL1	1	R1097N
1871.666	0.007	2014024	REC_EVENT	4992.0	n/a	5	1	SINK	<>	SINK	SLEEVE	10	[0, 0, 0]	-999	PAL1	1	R1097N
1871.673	0.018	2014031	REC_END	n/a	n/a	5	-999	n/a	n/a	n/a	n/a	10	[0, 0, 0]	-999	PAL1	1	R1097N
1871.691	0.275	2014049	TEST_ORIENT	n/a	n/a	2	2	CHALK	n/a	CHALK	STEAM	10	[0, 0, 0]	-999	PAL1	1	R1097N
1872.645	4.0	2015002	TEST_PROBE	n/a	wordpools/wordpool_EN.txt	2	2	CHALK	n/a	CHALK	STEAM	10	[0, 0, 0]	-999	PAL1	1	R1097N
1872.646	4.998	2015003	REC_START	n/a	n/a	2	-999	n/a	n/a	n/a	n/a	10	[0, 0, 0]	-999	PAL1	1	R1097N
1877.644	0.001	2019999	REC_EVENT	4998.0	n/a	2	2	CHALK	<>	CHALK	STEAM	10	[0, 0, 0]	-999	PAL1	1	R1097N
1877.645	0.018	2020000	REC_END	n/a	n/a	2	-999	n/a	n/a	n/a	n/a	10	[0, 0, 0]	-999	PAL1	1	R1097N
1877.663	0.275	2020018	TEST_ORIENT	n/a	n/a	1	3	TRASH	RICE	RICE	TRASH	10	[0, 0, 0]	-999	PAL1	1	R1097N
1878.444	4.0	2020798	TEST_PROBE	n/a	wordpools/wordpool_EN.txt	1	3	TRASH	RICE	RICE	TRASH	10	[0, 0, 0]	-999	PAL1	1	R1097N
1878.445	1.989	2020799	REC_START	n/a	n/a	1	-999	n/a	RICE	n/a	n/a	10	[0, 0, 0]	-999	PAL1	1	R1097N
1880.434	1.035	2022787	REC_EVENT	1989.0	n/a	1	3	TRASH	TRASH	RICE	TRASH	10	[0, 0, 0]	-999	PAL1	1	R1097N
1881.469	1.975	2023822	REC_EVENT	3024.0	n/a	1	3	TRASH	RICE	RICE	TRASH	10	[0, 0, 0]	-999	PAL1	1	R1097N
1883.444	0.018	2025796	REC_END	n/a	n/a	1	-999	n/a	n/a	n/a	n/a	10	[0, 0, 0]	-999	PAL1	1	R1097N
1883.462	0.275	2025814	TEST_ORIENT	n/a	n/a	4	4	ARM	FARM	FARM	ARM	10	[0, 0, 0]	-999	PAL1	1	R1097N
1884.288	4.0	2026640	TEST_PROBE	n/a	wordpools/wordpool_EN.txt	4	4	ARM	FARM	FARM	ARM	10	[0, 0, 0]	-999	PAL1	1	R1097N
1884.289	1.316	2026641	REC_START	n/a	n/a	4	-999	n/a	FARM	n/a	n/a	10	[0, 0, 0]	-999	PAL1	1	R1097N
1885.605	0.608	2027956	REC_EVENT	1316.0	n/a	4	4	ARM	ARM	FARM	ARM	10	[0, 0, 0]	-999	PAL1	1	R1097N
1886.213	3.075	2028564	REC_EVENT	1924.0	n/a	4	4	ARM	FARM	FARM	ARM	10	[0, 0, 0]	-999	PAL1	1	R1097N
1889.288	0.019	2031637	REC_END	n/a	n/a	4	-999	n/a	n/a	n/a	n/a	10	[0, 0, 0]	-999	PAL1	1	R1097N
1889.307	0.275	2031656	TEST_ORIENT	n/a	n/a	3	5	CROW	CROW	OAK	CROW	10	[0, 0, 0]	-999	PAL1	1	R1097N
1890.119	4.0	2032468	TEST_PROBE	n/a	wordpools/wordpool_EN.txt	3	5	CROW	CROW	OAK	CROW	10	[0, 0, 0]	-999	PAL1	1	R1097N
1890.12	2.189	2032469	REC_START	n/a	n/a	3	-999	n/a	CROW	n/a	n/a	10	[0, 0, 0]	-999	PAL1	1	R1097N
1892.309	2.81	2034657	REC_EVENT	2189.0	n/a	3	5	CROW	CROW	OAK	CROW	10	[0, 0, 0]	-999	PAL1	1	R1097N
1895.119	0.019	2037466	REC_END	n/a	n/a	3	-999	n/a	n/a	n/a	n/a	10	[0, 0, 0]	-999	PAL1	1	R1097N
1895.138	0.275	2037485	TEST_ORIENT	n/a	n/a	6	6	COUCH	EEL	EEL	COUCH	10	[0, 0, 0]	-999	PAL1	1	R1097N
1896.084	4.0	2038430	TEST_PROBE	n/a	wordpools/wordpool_EN.txt	6	6	COUCH	EEL	EEL	COUCH	10	[0, 0, 0]	-999	PAL1	1	R1097N
1896.085	1.232	2038431	REC_START	n/a	n/a	6	-999	n/a	EEL	n/a	n/a	10	[0, 0, 0]	-999	PAL1	1	R1097N
1897.317	3.216	2039662	REC_EVENT	1232.0	n/a	6	6	COUCH	EEL	EEL	COUCH	10	[0, 0, 0]	-999	PAL1	1	R1097N
1900.533	0.551	2042877	REC_EVENT	4448.0	n/a	6	6	COUCH	<>	EEL	COUCH	10	[0, 0, 0]	-999	PAL1	1	R1097N
1901.084	0.027	2043428	REC_END	n/a	n/a	6	-999	n/a	n/a	n/a	n/a	10	[0, 0, 0]	-999	PAL1	1	R1097N
1901.111	12.931	2043455	FORCED_BREAK	n/a	n/a	6	-999	n/a	n/a	n/a	n/a	10	[0, 0, 0]	-999	PAL1	1	R1097N
1914.042	0.003	2056380	ENCODING_START	n/a	n/a	0	-999	n/a	n/a	n/a	n/a	11	[0, 0, 0]	-999	PAL1	1	R1097N
1914.045	0.275	2056383	STUDY_ORIENT	n/a	n/a	1	1	EAR	n/a	EAR	BLOOM	11	[0, 0, 0]	-999	PAL1	1	R1097N
1914.916	4.0	2057253	STUDY_PAIR	n/a	wordpools/wordpool_EN.txt	1	1	EAR	n/a	EAR	BLOOM	11	[0, 0, 0]	-999	PAL1	1	R1097N
1919.917	0.275	2062252	STUDY_ORIENT	n/a	n/a	2	4	WHALE	ARK	WHALE	ARK	11	[0, 0, 0]	-999	PAL1	1	R1097N
1920.895	4.0	2063229	STUDY_PAIR	n/a	wordpools/wordpool_EN.txt	2	4	WHALE	ARK	WHALE	ARK	11	[0, 0, 0]	-999	PAL1	1	R1097N
1925.896	0.275	2068228	STUDY_ORIENT	n/a	n/a	3	5	SOAP	ENVELOPE	MAIL	SOAP	11	[0, 0, 0]	-999	PAL1	1	R1097N
1926.894	4.0	2069225	STUDY_PAIR	n/a	wordpools/wordpool_EN.txt	3	5	SOAP	ENVELOPE	MAIL	SOAP	11	[0, 0, 0]	-999	PAL1	1	R1097N
1931.895	0.275	2074224	STUDY_ORIENT	n/a	n/a	4	6	BOOK	CAKE	CAKE	BOOK	11	[0, 0, 0]	-999	PAL1	1	R1097N
1932.799	4.0	2075128	STUDY_PAIR	n/a	wordpools/wordpool_EN.txt	4	6	BOOK	CAKE	CAKE	BOOK	11	[0, 0, 0]	-999	PAL1	1	R1097N
1937.8	0.275	2080126	STUDY_ORIENT	n/a	n/a	5	3	ROOT	n/a	GLOVE	ROOT	11	[0, 0, 0]	-999	PAL1	1	R1097N
1938.661	4.0	2080987	STUDY_PAIR	n/a	wordpools/wordpool_EN.txt	5	3	ROOT	n/a	GLOVE	ROOT	11	[0, 0, 0]	-999	PAL1	1	R1097N
1943.661	0.275	2085985	STUDY_ORIENT	n/a	n/a	6	2	PEARL	MOTH	MOTH	PEARL	11	[0, 0, 0]	-999	PAL1	1	R1097N
1944.643	4.0	2086966	STUDY_PAIR	n/a	wordpools/wordpool_EN.txt	6	2	PEARL	MOTH	MOTH	PEARL	11	[0, 0, 0]	-999	PAL1	1	R1097N
1948.644	0.999	2090965	START	n/a	n/a	-999	-999	n/a	n/a	n/a	n/a	12	[-999, -999, -999]	-999	PAL1	1	R1097N
1949.643	0.001	2091964	MATH_START	n/a	n/a	-999	-999	n/a	n/a	n/a	n/a	11	[0, 0, 0]	-999	PAL1	1	R1097N
1949.644	11.846	2091965	PROB	11842.0	n/a	-999	-999	n/a	n/a	n/a	n/a	12	[2, 1, 5]	8	PAL1	1	R1097N
1961.49	7.223	2103805	PROB	7223.0	n/a	-999	-999	n/a	n/a	n/a	n/a	12	[1, 2, 8]	11	PAL1	1	R1097N
1968.713	0.002	2111025	STOP	n/a	n/a	-999	-999	n/a	n/a	n/a	n/a	12	[-999, -999, -999]	-999	PAL1	1	R1097N
1968.715	0.0	2111027	MATH_END	n/a	n/a	-999	-999	n/a	n/a	n/a	n/a	11	[0, 0, 0]	-999	PAL1	1	R1097N
1968.715	0.002	2111027	TEST_START	n/a	n/a	-999	-999	n/a	n/a	n/a	n/a	11	[0, 0, 0]	-999	PAL1	1	R1097N
1968.717	0.275	2111029	TEST_ORIENT	n/a	n/a	1	1	EAR	n/a	EAR	BLOOM	11	[0, 0, 0]	-999	PAL1	1	R1097N
1969.703	4.0	2112014	TEST_PROBE	n/a	wordpools/wordpool_EN.txt	1	1	EAR	n/a	EAR	BLOOM	11	[0, 0, 0]	-999	PAL1	1	R1097N
1969.704	3.452	2112015	REC_START	n/a	n/a	1	-999	n/a	n/a	n/a	n/a	11	[0, 0, 0]	-999	PAL1	1	R1097N
1973.156	1.0	2115466	REC_EVENT	3452.0	n/a	1	1	EAR	<>	EAR	BLOOM	11	[0, 0, 0]	-999	PAL1	1	R1097N
1974.156	0.547	2116465	REC_EVENT	4452.0	n/a	1	1	EAR	<>	EAR	BLOOM	11	[0, 0, 0]	-999	PAL1	1	R1097N
1974.703	0.018	2117012	REC_END	n/a	n/a	1	-999	n/a	n/a	n/a	n/a	11	[0, 0, 0]	-999	PAL1	1	R1097N
1974.721	0.275	2117030	TEST_ORIENT	n/a	n/a	6	2	PEARL	MOTH	MOTH	PEARL	11	[0, 0, 0]	-999	PAL1	1	R1097N
1975.69	4.0	2117998	TEST_PROBE	n/a	wordpools/wordpool_EN.txt	6	2	PEARL	MOTH	MOTH	PEARL	11	[0, 0, 0]	-999	PAL1	1	R1097N
1975.691	1.363	2117999	REC_START	n/a	n/a	6	-999	n/a	MOTH	n/a	n/a	11	[0, 0, 0]	-999	PAL1	1	R1097N
1977.054	3.636	2119362	REC_EVENT	1363.0	n/a	6	2	PEARL	MOTH	MOTH	PEARL	11	[0, 0, 0]	-999	PAL1	1	R1097N
1980.69	0.019	2122996	REC_END	n/a	n/a	6	-999	n/a	n/a	n/a	n/a	11	[0, 0, 0]	-999	PAL1	1	R1097N
1980.709	0.275	2123015	TEST_ORIENT	n/a	n/a	5	3	ROOT	n/a	GLOVE	ROOT	11	[0, 0, 0]	-999	PAL1	1	R1097N
1981.693	4.0	2123999	TEST_PROBE	n/a	wordpools/wordpool_EN.txt	5	3	ROOT	n/a	GLOVE	ROOT	11	[0, 0, 0]	-999	PAL1	1	R1097N
1981.694	2.388	2124000	REC_START	n/a	n/a	5	-999	n/a	n/a	n/a	n/a	11	[0, 0, 0]	-999	PAL1	1	R1097N
1984.082	1.0	2126386	REC_EVENT	2388.0	n/a	5	3	ROOT	<>	GLOVE	ROOT	11	[0, 0, 0]	-999	PAL1	1	R1097N
1985.082	1.0	2127386	REC_EVENT	3388.0	n/a	5	3	ROOT	<>	GLOVE	ROOT	11	[0, 0, 0]	-999	PAL1	1	R1097N
1986.082	0.611	2128385	REC_EVENT	4388.0	n/a	5	3	ROOT	<>	GLOVE	ROOT	11	[0, 0, 0]	-999	PAL1	1	R1097N
1986.693	0.018	2128996	REC_END	n/a	n/a	5	-999	n/a	n/a	n/a	n/a	11	[0, 0, 0]	-999	PAL1	1	R1097N
1986.711	0.275	2129014	TEST_ORIENT	n/a	n/a	2	4	WHALE	ARK	WHALE	ARK	11	[0, 0, 0]	-999	PAL1	1	R1097N
1987.479	4.0	2129782	TEST_PROBE	n/a	wordpools/wordpool_EN.txt	2	4	WHALE	ARK	WHALE	ARK	11	[0, 0, 0]	-999	PAL1	1	R1097N
1987.48	1.455	2129783	REC_START	n/a	n/a	2	-999	n/a	ARK	n/a	n/a	11	[0, 0, 0]	-999	PAL1	1	R1097N
1988.935	3.544	2131237	REC_EVENT	1455.0	n/a	2	4	WHALE	ARK	WHALE	ARK	11	[0, 0, 0]	-999	PAL1	1	R1097N
1992.479	0.019	2134779	REC_END	n/a	n/a	2	-999	n/a	n/a	n/a	n/a	11	[0, 0, 0]	-999	PAL1	1	R1097N
1992.498	0.275	2134798	TEST_ORIENT	n/a	n/a	3	5	SOAP	ENVELOPE	MAIL	SOAP	11	[0, 0, 0]	-999	PAL1	1	R1097N
1993.403	4.0	2135703	TEST_PROBE	n/a	wordpools/wordpool_EN.txt	3	5	SOAP	ENVELOPE	MAIL	SOAP	11	[0, 0, 0]	-999	PAL1	1	R1097N
1993.404	1.552	2135704	REC_START	n/a	n/a	3	-999	n/a	ENVELOPE	n/a	n/a	11	[0, 0, 0]	-999	PAL1	1	R1097N
1994.956	0.936	2137255	REC_EVENT	1552.0	n/a	3	5	SOAP	<>	MAIL	SOAP	11	[0, 0, 0]	-999	PAL1	1	R1097N
1995.892	1.0	2138191	REC_EVENT	2488.0	n/a	3	5	SOAP	<>	MAIL	SOAP	11	[0, 0, 0]	-999	PAL1	1	R1097N
1996.892	0.557	2139190	REC_EVENT	3488.0	n/a	3	5	SOAP	<>	MAIL	SOAP	11	[0, 0, 0]	-999	PAL1	1	R1097N
1997.449	0.954	2139747	REC_EVENT	4045.0	n/a	3	5	SOAP	ENVELOPE	MAIL	SOAP	11	[0, 0, 0]	-999	PAL1	1	R1097N
1998.403	0.018	2140701	REC_END	n/a	n/a	3	-999	n/a	n/a	n/a	n/a	11	[0, 0, 0]	-999	PAL1	1	R1097N
1998.421	0.275	2140719	TEST_ORIENT	n/a	n/a	4	6	BOOK	CAKE	CAKE	BOOK	11	[0, 0, 0]	-999	PAL1	1	R1097N
1999.188	4.0	2141485	TEST_PROBE	n/a	wordpools/wordpool_EN.txt	4	6	BOOK	CAKE	CAKE	BOOK	11	[0, 0, 0]	-999	PAL1	1	R1097N
1999.189	0.0	2141486	REC_EVENT	0.0	n/a	4	6	BOOK	<>	CAKE	BOOK	11	[0, 0, 0]	-999	PAL1	1	R1097N
1999.189	1.0	2141486	REC_START	n/a	n/a	4	-999	n/a	CAKE	n/a	n/a	11	[0, 0, 0]	-999	PAL1	1	R1097N
2000.189	0.617	2142486	REC_EVENT	1000.0	n/a	4	6	BOOK	<>	CAKE	BOOK	11	[0, 0, 0]	-999	PAL1	1	R1097N
2000.806	0.541	2143102	REC_EVENT	1617.0	n/a	4	6	BOOK	CAKE	CAKE	BOOK	11	[0, 0, 0]	-999	PAL1	1	R1097N
2001.347	2.841	2143643	REC_EVENT	2158.0	n/a	4	6	BOOK	<>	CAKE	BOOK	11	[0, 0, 0]	-999	PAL1	1	R1097N
2004.188	0.027	2146483	REC_END	n/a	n/a	4	-999	n/a	n/a	n/a	n/a	11	[0, 0, 0]	-999	PAL1	1	R1097N
2004.215	14.48	2146510	FORCED_BREAK	n/a	n/a	4	-999	n/a	n/a	n/a	n/a	11	[0, 0, 0]	-999	PAL1	1	R1097N
2018.695	0.003	2160983	ENCODING_START	n/a	n/a	0	-999	n/a	n/a	n/a	n/a	12	[0, 0, 0]	-999	PAL1	1	R1097N
2018.698	0.275	2160986	STUDY_ORIENT	n/a	n/a	1	5	LAWN	SOUP	LAWN	SOUP	12	[0, 0, 0]	-999	PAL1	1	R1097N
2019.495	4.0	2161783	STUDY_PAIR	n/a	wordpools/wordpool_EN.txt	1	5	LAWN	SOUP	LAWN	SOUP	12	[0, 0, 0]	-999	PAL1	1	R1097N
2024.496	0.275	2166781	STUDY_ORIENT	n/a	n/a	2	4	MUG	PASS	MUG	OAR	12	[0, 0, 0]	-999	PAL1	1	R1097N
2025.429	4.0	2167714	STUDY_PAIR	n/a	wordpools/wordpool_EN.txt	2	4	MUG	PASS	MUG	OAR	12	[0, 0, 0]	-999	PAL1	1	R1097N
2030.43	0.275	2172712	STUDY_ORIENT	n/a	n/a	3	3	DOCK	DOCK	POND	DOCK	12	[0, 0, 0]	-999	PAL1	1	R1097N
2031.325	4.0	2173607	STUDY_PAIR	n/a	wordpools/wordpool_EN.txt	3	3	DOCK	DOCK	POND	DOCK	12	[0, 0, 0]	-999	PAL1	1	R1097N
2036.326	0.275	2178606	STUDY_ORIENT	n/a	n/a	4	6	SPRING	SPRING	SPRING	CALF	12	[0, 0, 0]	-999	PAL1	1	R1097N
2037.134	4.0	2179413	STUDY_PAIR	n/a	wordpools/wordpool_EN.txt	4	6	SPRING	SPRING	SPRING	CALF	12	[0, 0, 0]	-999	PAL1	1	R1097N
2042.135	0.275	2184412	STUDY_ORIENT	n/a	n/a	5	1	CHAIR	PASS	CHAIR	BOX	12	[0, 0, 0]	-999	PAL1	1	R1097N
2043.043	4.0	2185320	STUDY_PAIR	n/a	wordpools/wordpool_EN.txt	5	1	CHAIR	PASS	CHAIR	BOX	12	[0, 0, 0]	-999	PAL1	1	R1097N
2048.044	0.275	2190318	STUDY_ORIENT	n/a	n/a	6	2	MULE	TRAY	TRAY	MULE	12	[0, 0, 0]	-999	PAL1	1	R1097N
2048.837	4.0	2191111	STUDY_PAIR	n/a	wordpools/wordpool_EN.txt	6	2	MULE	TRAY	TRAY	MULE	12	[0, 0, 0]	-999	PAL1	1	R1097N
2052.838	0.999	2195110	START	n/a	n/a	-999	-999	n/a	n/a	n/a	n/a	13	[-999, -999, -999]	-999	PAL1	1	R1097N
2053.837	0.001	2196108	MATH_START	n/a	n/a	-999	-999	n/a	n/a	n/a	n/a	12	[0, 0, 0]	-999	PAL1	1	R1097N
2053.838	4.646	2196109	PROB	4642.0	n/a	-999	-999	n/a	n/a	n/a	n/a	13	[1, 3, 9]	13	PAL1	1	R1097N
2058.484	4.378	2200753	PROB	4374.0	n/a	-999	-999	n/a	n/a	n/a	n/a	13	[9, 9, 1]	19	PAL1	1	R1097N
2062.862	4.811	2205129	PROB	4806.0	n/a	-999	-999	n/a	n/a	n/a	n/a	13	[9, 6, 5]	20	PAL1	1	R1097N
2067.673	3.745	2209938	PROB	3740.0	n/a	-999	-999	n/a	n/a	n/a	n/a	13	[4, 4, 2]	10	PAL1	1	R1097N
2071.418	3.973	2213681	PROB	3973.0	n/a	-999	-999	n/a	n/a	n/a	n/a	13	[1, 9, 5]	15	PAL1	1	R1097N
2075.391	0.002	2217652	STOP	n/a	n/a	-999	-999	n/a	n/a	n/a	n/a	13	[-999, -999, -999]	-999	PAL1	1	R1097N
2075.393	0.0	2217654	MATH_END	n/a	n/a	-999	-999	n/a	n/a	n/a	n/a	12	[0, 0, 0]	-999	PAL1	1	R1097N
2075.393	0.002	2217654	TEST_START	n/a	n/a	-999	-999	n/a	n/a	n/a	n/a	12	[0, 0, 0]	-999	PAL1	1	R1097N
2075.395	0.275	2217656	TEST_ORIENT	n/a	n/a	5	1	CHAIR	PASS	CHAIR	BOX	12	[0, 0, 0]	-999	PAL1	1	R1097N
2076.229	4.0	2218490	TEST_PROBE	n/a	wordpools/wordpool_EN.txt	5	1	CHAIR	PASS	CHAIR	BOX	12	[0, 0, 0]	-999	PAL1	1	R1097N
2076.23	3.296	2218491	REC_START	n/a	n/a	5	-999	n/a	PASS	n/a	n/a	12	[0, 0, 0]	-999	PAL1	1	R1097N
2079.526	1.703	2221785	REC_EVENT	3296.0	n/a	5	1	CHAIR	PASS	CHAIR	BOX	12	[0, 0, 0]	-999	PAL1	1	R1097N
2081.229	0.018	2223487	REC_END	n/a	n/a	5	-999	n/a	n/a	n/a	n/a	12	[0, 0, 0]	-999	PAL1	1	R1097N
2081.247	0.275	2223505	TEST_ORIENT	n/a	n/a	6	2	MULE	TRAY	TRAY	MULE	12	[0, 0, 0]	-999	PAL1	1	R1097N
2082.222	4.0	2224480	TEST_PROBE	n/a	wordpools/wordpool_EN.txt	6	2	MULE	TRAY	TRAY	MULE	12	[0, 0, 0]	-999	PAL1	1	R1097N
2082.223	0.985	2224481	REC_START	n/a	n/a	6	-999	n/a	TRAY	n/a	n/a	12	[0, 0, 0]	-999	PAL1	1	R1097N
2083.208	4.014	2225466	REC_EVENT	985.0	n/a	6	2	MULE	TRAY	TRAY	MULE	12	[0, 0, 0]	-999	PAL1	1	R1097N
2087.222	0.018	2229478	REC_END	n/a	n/a	6	-999	n/a	n/a	n/a	n/a	12	[0, 0, 0]	-999	PAL1	1	R1097N
2087.24	0.275	2229496	TEST_ORIENT	n/a	n/a	3	3	DOCK	DOCK	POND	DOCK	12	[0, 0, 0]	-999	PAL1	1	R1097N
2088.152	4.0	2230407	TEST_PROBE	n/a	wordpools/wordpool_EN.txt	3	3	DOCK	DOCK	POND	DOCK	12	[0, 0, 0]	-999	PAL1	1	R1097N
2088.153	3.775	2230408	REC_START	n/a	n/a	3	-999	n/a	DOCK	n/a	n/a	12	[0, 0, 0]	-999	PAL1	1	R1097N
2091.928	1.224	2234181	REC_EVENT	3775.0	n/a	3	3	DOCK	DOCK	POND	DOCK	12	[0, 0, 0]	-999	PAL1	1	R1097N
2093.152	0.018	2235405	REC_END	n/a	n/a	3	-999	n/a	n/a	n/a	n/a	12	[0, 0, 0]	-999	PAL1	1	R1097N
2093.17	0.275	2235423	TEST_ORIENT	n/a	n/a	2	4	MUG	PASS	MUG	OAR	12	[0, 0, 0]	-999	PAL1	1	R1097N
2094.116	4.0	2236368	TEST_PROBE	n/a	wordpools/wordpool_EN.txt	2	4	MUG	PASS	MUG	OAR	12	[0, 0, 0]	-999	PAL1	1	R1097N
2094.117	2.433	2236369	REC_START	n/a	n/a	2	-999	n/a	PASS	n/a	n/a	12	[0, 0, 0]	-999	PAL1	1	R1097N
2096.55	0.885	2238801	REC_EVENT	2433.0	n/a	2	4	MUG	<>	MUG	OAR	12	[0, 0, 0]	-999	PAL1	1	R1097N
2097.435	1.681	2239686	REC_EVENT	3318.0	n/a	2	4	MUG	PASS	MUG	OAR	12	[0, 0, 0]	-999	PAL1	1	R1097N
2099.116	0.018	2241366	REC_END	n/a	n/a	2	-999	n/a	n/a	n/a	n/a	12	[0, 0, 0]	-999	PAL1	1	R1097N
2099.134	0.275	2241384	TEST_ORIENT	n/a	n/a	1	5	LAWN	SOUP	LAWN	SOUP	12	[0, 0, 0]	-999	PAL1	1	R1097N
2099.917	4.0	2242167	TEST_PROBE	n/a	wordpools/wordpool_EN.txt	1	5	LAWN	SOUP	LAWN	SOUP	12	[0, 0, 0]	-999	PAL1	1	R1097N
2099.918	1.5	2242168	REC_START	n/a	n/a	1	-999	n/a	SOUP	n/a	n/a	12	[0, 0, 0]	-999	PAL1	1	R1097N
2101.418	1.016	2243667	REC_EVENT	1500.0	n/a	1	5	LAWN	LAWN	LAWN	SOUP	12	[0, 0, 0]	-999	PAL1	1	R1097N
2102.434	2.483	2244682	REC_EVENT	2516.0	n/a	1	5	LAWN	SOUP	LAWN	SOUP	12	[0, 0, 0]	-999	PAL1	1	R1097N
2104.917	0.018	2247164	REC_END	n/a	n/a	1	-999	n/a	n/a	n/a	n/a	12	[0, 0, 0]	-999	PAL1	1	R1097N
2104.935	0.275	2247182	TEST_ORIENT	n/a	n/a	4	6	SPRING	SPRING	SPRING	CALF	12	[0, 0, 0]	-999	PAL1	1	R1097N
2105.84	4.0	2248087	TEST_PROBE	n/a	wordpools/wordpool_EN.txt	4	6	SPRING	SPRING	SPRING	CALF	12	[0, 0, 0]	-999	PAL1	1	R1097N
2105.841	1.822	2248088	REC_START	n/a	n/a	4	-999	n/a	SPRING	n/a	n/a	12	[0, 0, 0]	-999	PAL1	1	R1097N
2107.663	1.0	2249909	REC_EVENT	1822.0	n/a	4	6	SPRING	<>	SPRING	CALF	12	[0, 0, 0]	-999	PAL1	1	R1097N
2108.663	0.954	2250908	REC_EVENT	2822.0	n/a	4	6	SPRING	<>	SPRING	CALF	12	[0, 0, 0]	-999	PAL1	1	R1097N
2109.617	0.852	2251862	REC_EVENT	3776.0	n/a	4	6	SPRING	SPRING	SPRING	CALF	12	[0, 0, 0]	-999	PAL1	1	R1097N
2110.469	0.371	2252714	REC_EVENT	4628.0	n/a	4	6	SPRING	<>	SPRING	CALF	12	[0, 0, 0]	-999	PAL1	1	R1097N
2110.84	0.027	2253084	REC_END	n/a	n/a	4	-999	n/a	n/a	n/a	n/a	12	[0, 0, 0]	-999	PAL1	1	R1097N
2110.867	12.801	2253111	FORCED_BREAK	n/a	n/a	4	-999	n/a	n/a	n/a	n/a	12	[0, 0, 0]	-999	PAL1	1	R1097N
2123.668	0.003	2265906	ENCODING_START	n/a	n/a	0	-999	n/a	n/a	n/a	n/a	13	[0, 0, 0]	-999	PAL1	1	R1097N
2123.671	0.275	2265909	STUDY_ORIENT	n/a	n/a	1	3	BREAD	STRAW	BREAD	STRAW	13	[0, 0, 0]	-999	PAL1	1	R1097N
2124.622	4.0	2266860	STUDY_PAIR	n/a	wordpools/wordpool_EN.txt	1	3	BREAD	STRAW	BREAD	STRAW	13	[0, 0, 0]	-999	PAL1	1	R1097N
2129.623	0.275	2271859	STUDY_ORIENT	n/a	n/a	2	2	FORK	n/a	MAT	FORK	13	[0, 0, 0]	-999	PAL1	1	R1097N
2130.393	4.0	2272628	STUDY_PAIR	n/a	wordpools/wordpool_EN.txt	2	2	FORK	n/a	MAT	FORK	13	[0, 0, 0]	-999	PAL1	1	R1097N
2135.394	0.275	2277627	STUDY_ORIENT	n/a	n/a	3	5	TAIL	SAIL	TENT	TAIL	13	[0, 0, 0]	-999	PAL1	1	R1097N
2136.155	4.0	2278387	STUDY_PAIR	n/a	wordpools/wordpool_EN.txt	3	5	TAIL	SAIL	TENT	TAIL	13	[0, 0, 0]	-999	PAL1	1	R1097N
2141.156	0.275	2283386	STUDY_ORIENT	n/a	n/a	4	6	MILK	CROWN	CROWN	MILK	13	[0, 0, 0]	-999	PAL1	1	R1097N
2142.098	4.0	2284328	STUDY_PAIR	n/a	wordpools/wordpool_EN.txt	4	6	MILK	CROWN	CROWN	MILK	13	[0, 0, 0]	-999	PAL1	1	R1097N
2147.099	0.275	2289326	STUDY_ORIENT	n/a	n/a	5	1	MOUTH	CAVE	CAVE	MOUTH	13	[0, 0, 0]	-999	PAL1	1	R1097N
2147.886	4.0	2290113	STUDY_PAIR	n/a	wordpools/wordpool_EN.txt	5	1	MOUTH	CAVE	CAVE	MOUTH	13	[0, 0, 0]	-999	PAL1	1	R1097N
2152.886	0.275	2295111	STUDY_ORIENT	n/a	n/a	6	4	BEAK	n/a	TOAD	BEAK	13	[0, 0, 0]	-999	PAL1	1	R1097N
2153.817	4.0	2296041	STUDY_PAIR	n/a	wordpools/wordpool_EN.txt	6	4	BEAK	n/a	TOAD	BEAK	13	[0, 0, 0]	-999	PAL1	1	R1097N
2157.818	0.999	2300040	START	n/a	n/a	-999	-999	n/a	n/a	n/a	n/a	14	[-999, -999, -999]	-999	PAL1	1	R1097N
2158.817	0.001	2301039	MATH_START	n/a	n/a	-999	-999	n/a	n/a	n/a	n/a	13	[0, 0, 0]	-999	PAL1	1	R1097N
2158.818	6.68	2301040	PROB	6676.0	n/a	-999	-999	n/a	n/a	n/a	n/a	14	[3, 5, 8]	16	PAL1	1	R1097N
2165.498	4.186	2307717	PROB	4182.0	n/a	-999	-999	n/a	n/a	n/a	n/a	14	[9, 8, 3]	20	PAL1	1	R1097N
2169.684	9.304	2311901	PROB	9304.0	n/a	-999	-999	n/a	n/a	n/a	n/a	14	[8, 4, 6]	18	PAL1	1	R1097N
2178.988	0.001	2321200	STOP	n/a	n/a	-999	-999	n/a	n/a	n/a	n/a	14	[-999, -999, -999]	-999	PAL1	1	R1097N
2178.989	0.0	2321201	MATH_END	n/a	n/a	-999	-999	n/a	n/a	n/a	n/a	13	[0, 0, 0]	-999	PAL1	1	R1097N
2178.989	0.002	2321201	TEST_START	n/a	n/a	-999	-999	n/a	n/a	n/a	n/a	13	[0, 0, 0]	-999	PAL1	1	R1097N
2178.991	0.275	2321203	TEST_ORIENT	n/a	n/a	5	1	MOUTH	CAVE	CAVE	MOUTH	13	[0, 0, 0]	-999	PAL1	1	R1097N
2179.952	4.0	2322164	TEST_PROBE	n/a	wordpools/wordpool_EN.txt	5	1	MOUTH	CAVE	CAVE	MOUTH	13	[0, 0, 0]	-999	PAL1	1	R1097N
2179.954	1.619	2322166	REC_START	n/a	n/a	5	-999	n/a	CAVE	n/a	n/a	13	[0, 0, 0]	-999	PAL1	1	R1097N
2181.573	0.49	2323784	REC_EVENT	1619.0	n/a	5	1	MOUTH	MOUTH	CAVE	MOUTH	13	[0, 0, 0]	-999	PAL1	1	R1097N
2182.063	2.889	2324274	REC_EVENT	2109.0	n/a	5	1	MOUTH	CAVE	CAVE	MOUTH	13	[0, 0, 0]	-999	PAL1	1	R1097N
2184.952	0.018	2327161	REC_END	n/a	n/a	5	-999	n/a	n/a	n/a	n/a	13	[0, 0, 0]	-999	PAL1	1	R1097N
2184.97	0.275	2327179	TEST_ORIENT	n/a	n/a	2	2	FORK	n/a	MAT	FORK	13	[0, 0, 0]	-999	PAL1	1	R1097N
2185.932	4.0	2328141	TEST_PROBE	n/a	wordpools/wordpool_EN.txt	2	2	FORK	n/a	MAT	FORK	13	[0, 0, 0]	-999	PAL1	1	R1097N
2185.933	2.398	2328142	REC_START	n/a	n/a	2	-999	n/a	n/a	n/a	n/a	13	[0, 0, 0]	-999	PAL1	1	R1097N
2188.331	2.601	2330539	REC_EVENT	2398.0	n/a	2	2	FORK	<>	MAT	FORK	13	[0, 0, 0]	-999	PAL1	1	R1097N
2190.932	0.018	2333139	REC_END	n/a	n/a	2	-999	n/a	n/a	n/a	n/a	13	[0, 0, 0]	-999	PAL1	1	R1097N
2190.95	0.275	2333157	TEST_ORIENT	n/a	n/a	1	3	BREAD	STRAW	BREAD	STRAW	13	[0, 0, 0]	-999	PAL1	1	R1097N
2191.873	4.0	2334079	TEST_PROBE	n/a	wordpools/wordpool_EN.txt	1	3	BREAD	STRAW	BREAD	STRAW	13	[0, 0, 0]	-999	PAL1	1	R1097N
2191.874	1.258	2334080	REC_START	n/a	n/a	1	-999	n/a	STRAW	n/a	n/a	13	[0, 0, 0]	-999	PAL1	1	R1097N
2193.132	2.058	2335337	REC_EVENT	1258.0	n/a	1	3	BREAD	BREAD	BREAD	STRAW	13	[0, 0, 0]	-999	PAL1	1	R1097N
2195.19	0.52	2337395	REC_EVENT	3316.0	n/a	1	3	BREAD	<>	BREAD	STRAW	13	[0, 0, 0]	-999	PAL1	1	R1097N
2195.71	1.163	2337914	REC_EVENT	3836.0	n/a	1	3	BREAD	STRAW	BREAD	STRAW	13	[0, 0, 0]	-999	PAL1	1	R1097N
2196.873	0.019	2339077	REC_END	n/a	n/a	1	-999	n/a	n/a	n/a	n/a	13	[0, 0, 0]	-999	PAL1	1	R1097N
2196.892	0.275	2339096	TEST_ORIENT	n/a	n/a	6	4	BEAK	n/a	TOAD	BEAK	13	[0, 0, 0]	-999	PAL1	1	R1097N
2197.704	4.0	2339907	TEST_PROBE	n/a	wordpools/wordpool_EN.txt	6	4	BEAK	n/a	TOAD	BEAK	13	[0, 0, 0]	-999	PAL1	1	R1097N
2197.705	3.232	2339908	REC_START	n/a	n/a	6	-999	n/a	n/a	n/a	n/a	13	[0, 0, 0]	-999	PAL1	1	R1097N
2200.937	1.767	2343139	REC_EVENT	3232.0	n/a	6	4	BEAK	<>	TOAD	BEAK	13	[0, 0, 0]	-999	PAL1	1	R1097N
2202.704	0.018	2344905	REC_END	n/a	n/a	6	-999	n/a	n/a	n/a	n/a	13	[0, 0, 0]	-999	PAL1	1	R1097N
2202.722	0.275	2344923	TEST_ORIENT	n/a	n/a	3	5	TAIL	SAIL	TENT	TAIL	13	[0, 0, 0]	-999	PAL1	1	R1097N
2203.493	4.0	2345694	TEST_PROBE	n/a	wordpools/wordpool_EN.txt	3	5	TAIL	SAIL	TENT	TAIL	13	[0, 0, 0]	-999	PAL1	1	R1097N
2203.494	1.454	2345695	REC_START	n/a	n/a	3	-999	n/a	SAIL	n/a	n/a	13	[0, 0, 0]	-999	PAL1	1	R1097N
2204.948	1.189	2347148	REC_EVENT	1454.0	n/a	3	5	TAIL	TENT	TENT	TAIL	13	[0, 0, 0]	-999	PAL1	1	R1097N
2206.137	2.356	2348336	REC_EVENT	2643.0	n/a	3	5	TAIL	SAIL	TENT	TAIL	13	[0, 0, 0]	-999	PAL1	1	R1097N
2208.493	0.018	2350691	REC_END	n/a	n/a	3	-999	n/a	n/a	n/a	n/a	13	[0, 0, 0]	-999	PAL1	1	R1097N
2208.511	0.275	2350709	TEST_ORIENT	n/a	n/a	4	6	MILK	CROWN	CROWN	MILK	13	[0, 0, 0]	-999	PAL1	1	R1097N
2209.425	4.0	2351623	TEST_PROBE	n/a	wordpools/wordpool_EN.txt	4	6	MILK	CROWN	CROWN	MILK	13	[0, 0, 0]	-999	PAL1	1	R1097N
2209.426	1.164	2351624	REC_START	n/a	n/a	4	-999	n/a	CROWN	n/a	n/a	13	[0, 0, 0]	-999	PAL1	1	R1097N
2210.59	3.835	2352787	REC_EVENT	1164.0	n/a	4	6	MILK	CROWN	CROWN	MILK	13	[0, 0, 0]	-999	PAL1	1	R1097N
2214.425	0.027	2356620	REC_END	n/a	n/a	4	-999	n/a	n/a	n/a	n/a	13	[0, 0, 0]	-999	PAL1	1	R1097N
2214.452	13.773	2356647	FORCED_BREAK	n/a	n/a	4	-999	n/a	n/a	n/a	n/a	13	[0, 0, 0]	-999	PAL1	1	R1097N
2228.225	0.003	2370414	ENCODING_START	n/a	n/a	0	-999	n/a	n/a	n/a	n/a	14	[0, 0, 0]	-999	PAL1	1	R1097N
2228.228	0.275	2370417	STUDY_ORIENT	n/a	n/a	1	5	SEAL	n/a	JEEP	SEAL	14	[0, 0, 0]	-999	PAL1	1	R1097N
2229.07	4.0	2371258	STUDY_PAIR	n/a	wordpools/wordpool_EN.txt	1	5	SEAL	n/a	JEEP	SEAL	14	[0, 0, 0]	-999	PAL1	1	R1097N
2234.071	0.275	2376257	STUDY_ORIENT	n/a	n/a	2	6	CHEEK	PASS	CHEEK	DESK	14	[0, 0, 0]	-999	PAL1	1	R1097N
2235.045	4.0	2377231	STUDY_PAIR	n/a	wordpools/wordpool_EN.txt	2	6	CHEEK	PASS	CHEEK	DESK	14	[0, 0, 0]	-999	PAL1	1	R1097N
2240.045	0.275	2382228	STUDY_ORIENT	n/a	n/a	3	3	PEN	WAND	PEN	BAND	14	[0, 0, 0]	-999	PAL1	1	R1097N
2240.818	4.0	2383001	STUDY_PAIR	n/a	wordpools/wordpool_EN.txt	3	3	PEN	WAND	PEN	BAND	14	[0, 0, 0]	-999	PAL1	1	R1097N
2245.819	0.275	2388000	STUDY_ORIENT	n/a	n/a	4	4	LAMB	LAMB	LAMB	BOMB	14	[0, 0, 0]	-999	PAL1	1	R1097N
2246.69	4.0	2388870	STUDY_PAIR	n/a	wordpools/wordpool_EN.txt	4	4	LAMB	LAMB	LAMB	BOMB	14	[0, 0, 0]	-999	PAL1	1	R1097N
2251.691	0.275	2393869	STUDY_ORIENT	n/a	n/a	5	1	WING	FOAM	FOAM	WING	14	[0, 0, 0]	-999	PAL1	1	R1097N
2252.474	4.0	2394651	STUDY_PAIR	n/a	wordpools/wordpool_EN.txt	5	1	WING	FOAM	FOAM	WING	14	[0, 0, 0]	-999	PAL1	1	R1097N
2257.475	0.275	2399650	STUDY_ORIENT	n/a	n/a	6	2	NAIL	n/a	NAIL	JUICE	14	[0, 0, 0]	-999	PAL1	1	R1097N
2258.277	4.0	2400452	STUDY_PAIR	n/a	wordpools/wordpool_EN.txt	6	2	NAIL	n/a	NAIL	JUICE	14	[0, 0, 0]	-999	PAL1	1	R1097N
2262.278	0.999	2404451	START	n/a	n/a	-999	-999	n/a	n/a	n/a	n/a	15	[-999, -999, -999]	-999	PAL1	1	R1097N
2263.277	0.001	2405449	MATH_START	n/a	n/a	-999	-999	n/a	n/a	n/a	n/a	14	[0, 0, 0]	-999	PAL1	1	R1097N
2263.278	7.097	2405450	PROB	7093.0	n/a	-999	-999	n/a	n/a	n/a	n/a	15	[1, 9, 5]	15	PAL1	1	R1097N
2270.375	6.7	2412544	PROB	6695.0	n/a	-999	-999	n/a	n/a	n/a	n/a	15	[8, 6, 8]	22	PAL1	1	R1097N
2277.075	5.001	2419241	PROB	4997.0	n/a	-999	-999	n/a	n/a	n/a	n/a	15	[4, 4, 8]	16	PAL1	1	R1097N
2282.076	5.727	2424239	PROB	5727.0	n/a	-999	-999	n/a	n/a	n/a	n/a	15	[8, 2, 8]	18	PAL1	1	R1097N
2287.803	0.001	2429964	STOP	n/a	n/a	-999	-999	n/a	n/a	n/a	n/a	15	[-999, -999, -999]	-999	PAL1	1	R1097N
2287.804	0.0	2429965	MATH_END	n/a	n/a	-999	-999	n/a	n/a	n/a	n/a	14	[0, 0, 0]	-999	PAL1	1	R1097N
2287.804	0.002	2429965	TEST_START	n/a	n/a	-999	-999	n/a	n/a	n/a	n/a	14	[0, 0, 0]	-999	PAL1	1	R1097N
2287.806	0.275	2429967	TEST_ORIENT	n/a	n/a	5	1	WING	FOAM	FOAM	WING	14	[0, 0, 0]	-999	PAL1	1	R1097N
2288.645	4.0	2430805	TEST_PROBE	n/a	wordpools/wordpool_EN.txt	5	1	WING	FOAM	FOAM	WING	14	[0, 0, 0]	-999	PAL1	1	R1097N
2288.646	1.702	2430806	REC_START	n/a	n/a	5	-999	n/a	FOAM	n/a	n/a	14	[0, 0, 0]	-999	PAL1	1	R1097N
2290.348	3.297	2432507	REC_EVENT	1702.0	n/a	5	1	WING	FOAM	FOAM	WING	14	[0, 0, 0]	-999	PAL1	1	R1097N
2293.645	0.018	2435803	REC_END	n/a	n/a	5	-999	n/a	n/a	n/a	n/a	14	[0, 0, 0]	-999	PAL1	1	R1097N
2293.663	0.275	2435821	TEST_ORIENT	n/a	n/a	6	2	NAIL	n/a	NAIL	JUICE	14	[0, 0, 0]	-999	PAL1	1	R1097N
2294.64	4.0	2436797	TEST_PROBE	n/a	wordpools/wordpool_EN.txt	6	2	NAIL	n/a	NAIL	JUICE	14	[0, 0, 0]	-999	PAL1	1	R1097N
2294.641	1.468	2436798	REC_START	n/a	n/a	6	-999	n/a	n/a	n/a	n/a	14	[0, 0, 0]	-999	PAL1	1	R1097N
2296.109	2.152	2438266	REC_EVENT	1468.0	n/a	6	2	NAIL	<>	NAIL	JUICE	14	[0, 0, 0]	-999	PAL1	1	R1097N
2298.261	1.379	2440417	REC_EVENT	3620.0	n/a	6	2	NAIL	<>	NAIL	JUICE	14	[0, 0, 0]	-999	PAL1	1	R1097N
2299.64	0.018	2441795	REC_END	n/a	n/a	6	-999	n/a	n/a	n/a	n/a	14	[0, 0, 0]	-999	PAL1	1	R1097N
2299.658	0.275	2441813	TEST_ORIENT	n/a	n/a	3	3	PEN	WAND	PEN	BAND	14	[0, 0, 0]	-999	PAL1	1	R1097N
2300.558	4.0	2442713	TEST_PROBE	n/a	wordpools/wordpool_EN.txt	3	3	PEN	WAND	PEN	BAND	14	[0, 0, 0]	-999	PAL1	1	R1097N
2300.559	1.498	2442714	REC_START	n/a	n/a	3	-999	n/a	WAND	n/a	n/a	14	[0, 0, 0]	-999	PAL1	1	R1097N
2302.057	0.669	2444211	REC_EVENT	1498.0	n/a	3	3	PEN	LAND	PEN	BAND	14	[0, 0, 0]	-999	PAL1	1	R1097N
2302.726	2.832	2444880	REC_EVENT	2167.0	n/a	3	3	PEN	WAND	PEN	BAND	14	[0, 0, 0]	-999	PAL1	1	R1097N
2305.558	0.018	2447710	REC_END	n/a	n/a	3	-999	n/a	n/a	n/a	n/a	14	[0, 0, 0]	-999	PAL1	1	R1097N
2305.576	0.275	2447728	TEST_ORIENT	n/a	n/a	4	4	LAMB	LAMB	LAMB	BOMB	14	[0, 0, 0]	-999	PAL1	1	R1097N
2306.442	4.0	2448594	TEST_PROBE	n/a	wordpools/wordpool_EN.txt	4	4	LAMB	LAMB	LAMB	BOMB	14	[0, 0, 0]	-999	PAL1	1	R1097N
2306.443	2.173	2448595	REC_START	n/a	n/a	4	-999	n/a	LAMB	n/a	n/a	14	[0, 0, 0]	-999	PAL1	1	R1097N
2308.616	2.826	2450767	REC_EVENT	2173.0	n/a	4	4	LAMB	LAMB	LAMB	BOMB	14	[0, 0, 0]	-999	PAL1	1	R1097N
2311.442	0.019	2453591	REC_END	n/a	n/a	4	-999	n/a	n/a	n/a	n/a	14	[0, 0, 0]	-999	PAL1	1	R1097N
2311.461	0.275	2453610	TEST_ORIENT	n/a	n/a	1	5	SEAL	n/a	JEEP	SEAL	14	[0, 0, 0]	-999	PAL1	1	R1097N
2312.277	4.0	2454426	TEST_PROBE	n/a	wordpools/wordpool_EN.txt	1	5	SEAL	n/a	JEEP	SEAL	14	[0, 0, 0]	-999	PAL1	1	R1097N
2312.278	4.172	2454427	REC_START	n/a	n/a	1	-999	n/a	n/a	n/a	n/a	14	[0, 0, 0]	-999	PAL1	1	R1097N
2316.45	0.827	2458597	REC_EVENT	4172.0	n/a	1	5	SEAL	<>	JEEP	SEAL	14	[0, 0, 0]	-999	PAL1	1	R1097N
2317.277	0.018	2459424	REC_END	n/a	n/a	1	-999	n/a	n/a	n/a	n/a	14	[0, 0, 0]	-999	PAL1	1	R1097N
2317.295	0.275	2459442	TEST_ORIENT	n/a	n/a	2	6	CHEEK	PASS	CHEEK	DESK	14	[0, 0, 0]	-999	PAL1	1	R1097N
2318.216	4.0	2460362	TEST_PROBE	n/a	wordpools/wordpool_EN.txt	2	6	CHEEK	PASS	CHEEK	DESK	14	[0, 0, 0]	-999	PAL1	1	R1097N
2318.217	1.792	2460363	REC_START	n/a	n/a	2	-999	n/a	PASS	n/a	n/a	14	[0, 0, 0]	-999	PAL1	1	R1097N
2320.009	3.207	2462154	REC_EVENT	1792.0	n/a	2	6	CHEEK	PASS	CHEEK	DESK	14	[0, 0, 0]	-999	PAL1	1	R1097N
2323.216	0.027	2465360	REC_END	n/a	n/a	2	-999	n/a	n/a	n/a	n/a	14	[0, 0, 0]	-999	PAL1	1	R1097N
2323.243	12.644	2465387	FORCED_BREAK	n/a	n/a	2	-999	n/a	n/a	n/a	n/a	14	[0, 0, 0]	-999	PAL1	1	R1097N
2335.887	0.004	2478025	ENCODING_START	n/a	n/a	0	-999	n/a	n/a	n/a	n/a	15	[0, 0, 0]	-999	PAL1	1	R1097N
2335.891	0.275	2478029	STUDY_ORIENT	n/a	n/a	1	1	SHIRT	PASS	SHIRT	FUDGE	15	[0, 0, 0]	-999	PAL1	1	R1097N
2336.865	4.0	2479002	STUDY_PAIR	n/a	wordpools/wordpool_EN.txt	1	1	SHIRT	PASS	SHIRT	FUDGE	15	[0, 0, 0]	-999	PAL1	1	R1097N
2341.866	0.275	2484001	STUDY_ORIENT	n/a	n/a	2	4	FISH	CLOCK	FISH	CLOCK	15	[0, 0, 0]	-999	PAL1	1	R1097N
2342.773	4.0	2484908	STUDY_PAIR	n/a	wordpools/wordpool_EN.txt	2	4	FISH	CLOCK	FISH	CLOCK	15	[0, 0, 0]	-999	PAL1	1	R1097N
2347.774	0.275	2489906	STUDY_ORIENT	n/a	n/a	3	3	EGG	WHEEL	EGG	WHEEL	15	[0, 0, 0]	-999	PAL1	1	R1097N
2348.578	4.0	2490710	STUDY_PAIR	n/a	wordpools/wordpool_EN.txt	3	3	EGG	WHEEL	EGG	WHEEL	15	[0, 0, 0]	-999	PAL1	1	R1097N
2353.578	0.275	2495708	STUDY_ORIENT	n/a	n/a	4	6	CHIN	BIRD	BIRD	CHIN	15	[0, 0, 0]	-999	PAL1	1	R1097N
2354.571	4.0	2496700	STUDY_PAIR	n/a	wordpools/wordpool_EN.txt	4	6	CHIN	BIRD	BIRD	CHIN	15	[0, 0, 0]	-999	PAL1	1	R1097N
2359.571	0.275	2501698	STUDY_ORIENT	n/a	n/a	5	5	FLAG	YARD	FLAG	YARD	15	[0, 0, 0]	-999	PAL1	1	R1097N
2360.546	4.0	2502672	STUDY_PAIR	n/a	wordpools/wordpool_EN.txt	5	5	FLAG	YARD	FLAG	YARD	15	[0, 0, 0]	-999	PAL1	1	R1097N
2365.547	0.275	2507671	STUDY_ORIENT	n/a	n/a	6	2	CUBE	n/a	GUARD	CUBE	15	[0, 0, 0]	-999	PAL1	1	R1097N
2366.331	4.0	2508455	STUDY_PAIR	n/a	wordpools/wordpool_EN.txt	6	2	CUBE	n/a	GUARD	CUBE	15	[0, 0, 0]	-999	PAL1	1	R1097N
2370.332	0.999	2512454	START	n/a	n/a	-999	-999	n/a	n/a	n/a	n/a	16	[-999, -999, -999]	-999	PAL1	1	R1097N
2371.331	0.001	2513452	MATH_START	n/a	n/a	-999	-999	n/a	n/a	n/a	n/a	15	[0, 0, 0]	-999	PAL1	1	R1097N
2371.332	6.024	2513453	PROB	6020.0	n/a	-999	-999	n/a	n/a	n/a	n/a	16	[6, 4, 9]	19	PAL1	1	R1097N
2377.356	3.243	2519474	PROB	3238.0	n/a	-999	-999	n/a	n/a	n/a	n/a	16	[3, 1, 7]	11	PAL1	1	R1097N
2380.599	3.658	2522716	PROB	3653.0	n/a	-999	-999	n/a	n/a	n/a	n/a	16	[3, 5, 6]	14	PAL1	1	R1097N
2384.257	3.329	2526372	PROB	3324.0	n/a	-999	-999	n/a	n/a	n/a	n/a	16	[1, 8, 5]	14	PAL1	1	R1097N
2387.586	4.565	2529699	PROB	4565.0	n/a	-999	-999	n/a	n/a	n/a	n/a	16	[3, 1, 4]	8	PAL1	1	R1097N
2392.151	0.002	2534262	STOP	n/a	n/a	-999	-999	n/a	n/a	n/a	n/a	16	[-999, -999, -999]	-999	PAL1	1	R1097N
2392.153	0.0	2534264	MATH_END	n/a	n/a	-999	-999	n/a	n/a	n/a	n/a	15	[0, 0, 0]	-999	PAL1	1	R1097N
2392.153	0.002	2534264	TEST_START	n/a	n/a	-999	-999	n/a	n/a	n/a	n/a	15	[0, 0, 0]	-999	PAL1	1	R1097N
2392.155	0.275	2534266	TEST_ORIENT	n/a	n/a	1	1	SHIRT	PASS	SHIRT	FUDGE	15	[0, 0, 0]	-999	PAL1	1	R1097N
2392.974	4.0	2535085	TEST_PROBE	n/a	wordpools/wordpool_EN.txt	1	1	SHIRT	PASS	SHIRT	FUDGE	15	[0, 0, 0]	-999	PAL1	1	R1097N
2392.975	2.207	2535086	REC_START	n/a	n/a	1	-999	n/a	PASS	n/a	n/a	15	[0, 0, 0]	-999	PAL1	1	R1097N
2395.182	1.26	2537292	REC_EVENT	2207.0	n/a	1	1	SHIRT	<>	SHIRT	FUDGE	15	[0, 0, 0]	-999	PAL1	1	R1097N
2396.442	1.532	2538551	REC_EVENT	3467.0	n/a	1	1	SHIRT	PASS	SHIRT	FUDGE	15	[0, 0, 0]	-999	PAL1	1	R1097N
2397.974	0.017	2540083	REC_END	n/a	n/a	1	-999	n/a	n/a	n/a	n/a	15	[0, 0, 0]	-999	PAL1	1	R1097N
2397.991	0.275	2540100	TEST_ORIENT	n/a	n/a	6	2	CUBE	n/a	GUARD	CUBE	15	[0, 0, 0]	-999	PAL1	1	R1097N
2398.824	4.0	2540932	TEST_PROBE	n/a	wordpools/wordpool_EN.txt	6	2	CUBE	n/a	GUARD	CUBE	15	[0, 0, 0]	-999	PAL1	1	R1097N
2398.825	4.992	2540933	REC_START	n/a	n/a	6	-999	n/a	n/a	n/a	n/a	15	[0, 0, 0]	-999	PAL1	1	R1097N
2403.817	0.007	2545923	REC_EVENT	4992.0	n/a	6	2	CUBE	<>	GUARD	CUBE	15	[0, 0, 0]	-999	PAL1	1	R1097N
2403.824	0.019	2545930	REC_END	n/a	n/a	6	-999	n/a	n/a	n/a	n/a	15	[0, 0, 0]	-999	PAL1	1	R1097N
2403.843	0.275	2545949	TEST_ORIENT	n/a	n/a	3	3	EGG	WHEEL	EGG	WHEEL	15	[0, 0, 0]	-999	PAL1	1	R1097N
2404.691	4.0	2546796	TEST_PROBE	n/a	wordpools/wordpool_EN.txt	3	3	EGG	WHEEL	EGG	WHEEL	15	[0, 0, 0]	-999	PAL1	1	R1097N
2404.692	1.718	2546797	REC_START	n/a	n/a	3	-999	n/a	WHEEL	n/a	n/a	15	[0, 0, 0]	-999	PAL1	1	R1097N
2406.41	3.31	2548515	REC_EVENT	1718.0	n/a	3	3	EGG	WHEEL	EGG	WHEEL	15	[0, 0, 0]	-999	PAL1	1	R1097N
2409.72	0.012	2551823	REC_END	n/a	n/a	3	-999	n/a	n/a	n/a	n/a	15	[0, 0, 0]	-999	PAL1	1	R1097N
2409.732	0.275	2551835	TEST_ORIENT	n/a	n/a	2	4	FISH	CLOCK	FISH	CLOCK	15	[0, 0, 0]	-999	PAL1	1	R1097N
2410.686	4.0	2552789	TEST_PROBE	n/a	wordpools/wordpool_EN.txt	2	4	FISH	CLOCK	FISH	CLOCK	15	[0, 0, 0]	-999	PAL1	1	R1097N
2410.687	1.824	2552790	REC_START	n/a	n/a	2	-999	n/a	CLOCK	n/a	n/a	15	[0, 0, 0]	-999	PAL1	1	R1097N
2412.511	3.175	2554613	REC_EVENT	1824.0	n/a	2	4	FISH	CLOCK	FISH	CLOCK	15	[0, 0, 0]	-999	PAL1	1	R1097N
2415.686	0.018	2557786	REC_END	n/a	n/a	2	-999	n/a	n/a	n/a	n/a	15	[0, 0, 0]	-999	PAL1	1	R1097N
2415.704	0.275	2557804	TEST_ORIENT	n/a	n/a	5	5	FLAG	YARD	FLAG	YARD	15	[0, 0, 0]	-999	PAL1	1	R1097N
2416.561	4.0	2558661	TEST_PROBE	n/a	wordpools/wordpool_EN.txt	5	5	FLAG	YARD	FLAG	YARD	15	[0, 0, 0]	-999	PAL1	1	R1097N
2416.562	1.632	2558662	REC_START	n/a	n/a	5	-999	n/a	YARD	n/a	n/a	15	[0, 0, 0]	-999	PAL1	1	R1097N
2418.194	3.367	2560293	REC_EVENT	1632.0	n/a	5	5	FLAG	YARD	FLAG	YARD	15	[0, 0, 0]	-999	PAL1	1	R1097N
2421.561	0.018	2563658	REC_END	n/a	n/a	5	-999	n/a	n/a	n/a	n/a	15	[0, 0, 0]	-999	PAL1	1	R1097N
2421.579	0.275	2563676	TEST_ORIENT	n/a	n/a	4	6	CHIN	BIRD	BIRD	CHIN	15	[0, 0, 0]	-999	PAL1	1	R1097N
2422.395	4.0	2564492	TEST_PROBE	n/a	wordpools/wordpool_EN.txt	4	6	CHIN	BIRD	BIRD	CHIN	15	[0, 0, 0]	-999	PAL1	1	R1097N
2422.396	1.568	2564493	REC_START	n/a	n/a	4	-999	n/a	BIRD	n/a	n/a	15	[0, 0, 0]	-999	PAL1	1	R1097N
2423.964	1.205	2566060	REC_EVENT	1568.0	n/a	4	6	CHIN	<>	BIRD	CHIN	15	[0, 0, 0]	-999	PAL1	1	R1097N
2425.169	0.846	2567265	REC_EVENT	2773.0	n/a	4	6	CHIN	BIRD	BIRD	CHIN	15	[0, 0, 0]	-999	PAL1	1	R1097N
2426.015	1.38	2568110	REC_EVENT	3619.0	n/a	4	6	CHIN	<>	BIRD	CHIN	15	[0, 0, 0]	-999	PAL1	1	R1097N
2427.395	0.026	2569490	REC_END	n/a	n/a	4	-999	n/a	n/a	n/a	n/a	15	[0, 0, 0]	-999	PAL1	1	R1097N
2427.421	34.633	2569516	FORCED_BREAK	n/a	n/a	4	-999	n/a	n/a	n/a	n/a	15	[0, 0, 0]	-999	PAL1	1	R1097N
2462.054	0.003	2604132	ENCODING_START	n/a	n/a	0	-999	n/a	n/a	n/a	n/a	16	[0, 0, 0]	-999	PAL1	1	R1097N
2462.057	0.275	2604135	STUDY_ORIENT	n/a	n/a	1	5	LAKE	NOSE	RAT	LAKE	16	[0, 0, 0]	-999	PAL1	1	R1097N
2463.025	4.0	2605103	STUDY_PAIR	n/a	wordpools/wordpool_EN.txt	1	5	LAKE	NOSE	RAT	LAKE	16	[0, 0, 0]	-999	PAL1	1	R1097N
2468.026	0.275	2610101	STUDY_ORIENT	n/a	n/a	2	2	FOOD	FOOD	SHIP	FOOD	16	[0, 0, 0]	-999	PAL1	1	R1097N
2468.956	4.0	2611031	STUDY_PAIR	n/a	wordpools/wordpool_EN.txt	2	2	FOOD	FOOD	SHIP	FOOD	16	[0, 0, 0]	-999	PAL1	1	R1097N
2473.956	0.275	2616029	STUDY_ORIENT	n/a	n/a	3	3	SHOE	NOSE	NOSE	SHOE	16	[0, 0, 0]	-999	PAL1	1	R1097N
2474.903	4.0	2616975	STUDY_PAIR	n/a	wordpools/wordpool_EN.txt	3	3	SHOE	NOSE	NOSE	SHOE	16	[0, 0, 0]	-999	PAL1	1	R1097N
2479.904	0.275	2621974	STUDY_ORIENT	n/a	n/a	4	4	MOON	DOG	DOG	MOON	16	[0, 0, 0]	-999	PAL1	1	R1097N
2480.757	4.0	2622826	STUDY_PAIR	n/a	wordpools/wordpool_EN.txt	4	4	MOON	DOG	DOG	MOON	16	[0, 0, 0]	-999	PAL1	1	R1097N
2485.758	0.275	2627825	STUDY_ORIENT	n/a	n/a	5	1	SNOW	STORE	SNOW	STORE	16	[0, 0, 0]	-999	PAL1	1	R1097N
2486.659	4.0	2628726	STUDY_PAIR	n/a	wordpools/wordpool_EN.txt	5	1	SNOW	STORE	SNOW	STORE	16	[0, 0, 0]	-999	PAL1	1	R1097N
2491.66	0.275	2633724	STUDY_ORIENT	n/a	n/a	6	6	FOX	FACE	FACE	FOX	16	[0, 0, 0]	-999	PAL1	1	R1097N
2492.553	4.0	2634617	STUDY_PAIR	n/a	wordpools/wordpool_EN.txt	6	6	FOX	FACE	FACE	FOX	16	[0, 0, 0]	-999	PAL1	1	R1097N
2496.554	0.999	2638616	START	n/a	n/a	-999	-999	n/a	n/a	n/a	n/a	17	[-999, -999, -999]	-999	PAL1	1	R1097N
2497.553	0.001	2639614	MATH_START	n/a	n/a	-999	-999	n/a	n/a	n/a	n/a	16	[0, 0, 0]	-999	PAL1	1	R1097N
2497.554	6.13	2639615	PROB	6125.0	n/a	-999	-999	n/a	n/a	n/a	n/a	17	[7, 3, 5]	15	PAL1	1	R1097N
2503.684	3.833	2645743	PROB	3829.0	n/a	-999	-999	n/a	n/a	n/a	n/a	17	[3, 7, 3]	13	PAL1	1	R1097N
2507.517	3.874	2649574	PROB	3870.0	n/a	-999	-999	n/a	n/a	n/a	n/a	17	[2, 2, 7]	11	PAL1	1	R1097N
2511.391	4.45	2653446	PROB	4446.0	n/a	-999	-999	n/a	n/a	n/a	n/a	17	[4, 2, 9]	15	PAL1	1	R1097N
2515.841	3.821	2657894	PROB	3821.0	n/a	-999	-999	n/a	n/a	n/a	n/a	17	[1, 2, 7]	10	PAL1	1	R1097N
2519.662	0.002	2661713	STOP	n/a	n/a	-999	-999	n/a	n/a	n/a	n/a	17	[-999, -999, -999]	-999	PAL1	1	R1097N
2519.664	0.0	2661715	MATH_END	n/a	n/a	-999	-999	n/a	n/a	n/a	n/a	16	[0, 0, 0]	-999	PAL1	1	R1097N
2519.664	0.001	2661715	TEST_START	n/a	n/a	-999	-999	n/a	n/a	n/a	n/a	16	[0, 0, 0]	-999	PAL1	1	R1097N
2519.665	0.275	2661716	TEST_ORIENT	n/a	n/a	5	1	SNOW	STORE	SNOW	STORE	16	[0, 0, 0]	-999	PAL1	1	R1097N
2520.43	4.0	2662481	TEST_PROBE	n/a	wordpools/wordpool_EN.txt	5	1	SNOW	STORE	SNOW	STORE	16	[0, 0, 0]	-999	PAL1	1	R1097N
2520.431	1.29	2662482	REC_START	n/a	n/a	5	-999	n/a	STORE	n/a	n/a	16	[0, 0, 0]	-999	PAL1	1	R1097N
2521.721	0.616	2663771	REC_EVENT	1290.0	n/a	5	1	SNOW	SNOW	SNOW	STORE	16	[0, 0, 0]	-999	PAL1	1	R1097N
2522.337	3.093	2664387	REC_EVENT	1906.0	n/a	5	1	SNOW	STORE	SNOW	STORE	16	[0, 0, 0]	-999	PAL1	1	R1097N
2525.43	0.018	2667478	REC_END	n/a	n/a	5	-999	n/a	n/a	n/a	n/a	16	[0, 0, 0]	-999	PAL1	1	R1097N
2525.448	0.275	2667496	TEST_ORIENT	n/a	n/a	2	2	FOOD	FOOD	SHIP	FOOD	16	[0, 0, 0]	-999	PAL1	1	R1097N
2526.287	4.0	2668335	TEST_PROBE	n/a	wordpools/wordpool_EN.txt	2	2	FOOD	FOOD	SHIP	FOOD	16	[0, 0, 0]	-999	PAL1	1	R1097N
2526.288	1.948	2668336	REC_START	n/a	n/a	2	-999	n/a	FOOD	n/a	n/a	16	[0, 0, 0]	-999	PAL1	1	R1097N
2528.236	1.45	2670283	REC_EVENT	1948.0	n/a	2	2	FOOD	FOOD	SHIP	FOOD	16	[0, 0, 0]	-999	PAL1	1	R1097N
2529.686	1.601	2671732	REC_EVENT	3398.0	n/a	2	2	FOOD	<>	SHIP	FOOD	16	[0, 0, 0]	-999	PAL1	1	R1097N
2531.287	0.019	2673332	REC_END	n/a	n/a	2	-999	n/a	n/a	n/a	n/a	16	[0, 0, 0]	-999	PAL1	1	R1097N
2531.306	0.275	2673351	TEST_ORIENT	n/a	n/a	3	3	SHOE	NOSE	NOSE	SHOE	16	[0, 0, 0]	-999	PAL1	1	R1097N
2532.071	4.0	2674116	TEST_PROBE	n/a	wordpools/wordpool_EN.txt	3	3	SHOE	NOSE	NOSE	SHOE	16	[0, 0, 0]	-999	PAL1	1	R1097N
2532.072	1.104	2674117	REC_START	n/a	n/a	3	-999	n/a	NOSE	n/a	n/a	16	[0, 0, 0]	-999	PAL1	1	R1097N
2533.176	0.98	2675221	REC_EVENT	1104.0	n/a	3	3	SHOE	SHOE	NOSE	SHOE	16	[0, 0, 0]	-999	PAL1	1	R1097N
2534.156	2.915	2676200	REC_EVENT	2084.0	n/a	3	3	SHOE	NOSE	NOSE	SHOE	16	[0, 0, 0]	-999	PAL1	1	R1097N
2537.071	0.018	2679114	REC_END	n/a	n/a	3	-999	n/a	n/a	n/a	n/a	16	[0, 0, 0]	-999	PAL1	1	R1097N
2537.089	0.275	2679132	TEST_ORIENT	n/a	n/a	4	4	MOON	DOG	DOG	MOON	16	[0, 0, 0]	-999	PAL1	1	R1097N
2537.92	4.0	2679962	TEST_PROBE	n/a	wordpools/wordpool_EN.txt	4	4	MOON	DOG	DOG	MOON	16	[0, 0, 0]	-999	PAL1	1	R1097N
2537.921	0.903	2679963	REC_START	n/a	n/a	4	-999	n/a	DOG	n/a	n/a	16	[0, 0, 0]	-999	PAL1	1	R1097N
2538.824	0.607	2680866	REC_EVENT	903.0	n/a	4	4	MOON	MOON	DOG	MOON	16	[0, 0, 0]	-999	PAL1	1	R1097N
2539.431	3.489	2681473	REC_EVENT	1510.0	n/a	4	4	MOON	DOG	DOG	MOON	16	[0, 0, 0]	-999	PAL1	1	R1097N
2542.92	0.019	2684960	REC_END	n/a	n/a	4	-999	n/a	n/a	n/a	n/a	16	[0, 0, 0]	-999	PAL1	1	R1097N
2542.939	0.275	2684979	TEST_ORIENT	n/a	n/a	1	5	LAKE	NOSE	RAT	LAKE	16	[0, 0, 0]	-999	PAL1	1	R1097N
2543.912	4.0	2685951	TEST_PROBE	n/a	wordpools/wordpool_EN.txt	1	5	LAKE	NOSE	RAT	LAKE	16	[0, 0, 0]	-999	PAL1	1	R1097N
2543.913	1.086	2685952	REC_START	n/a	n/a	1	-999	n/a	NOSE	n/a	n/a	16	[0, 0, 0]	-999	PAL1	1	R1097N
2544.999	1.753	2687038	REC_EVENT	1086.0	n/a	1	5	LAKE	LAKE	RAT	LAKE	16	[0, 0, 0]	-999	PAL1	1	R1097N
2546.752	2.16	2688790	REC_EVENT	2839.0	n/a	1	5	LAKE	NOSE	RAT	LAKE	16	[0, 0, 0]	-999	PAL1	1	R1097N
2548.912	0.019	2690949	REC_END	n/a	n/a	1	-999	n/a	n/a	n/a	n/a	16	[0, 0, 0]	-999	PAL1	1	R1097N
2548.931	0.275	2690968	TEST_ORIENT	n/a	n/a	6	6	FOX	FACE	FACE	FOX	16	[0, 0, 0]	-999	PAL1	1	R1097N
2549.696	4.0	2691733	TEST_PROBE	n/a	wordpools/wordpool_EN.txt	6	6	FOX	FACE	FACE	FOX	16	[0, 0, 0]	-999	PAL1	1	R1097N
2549.697	1.665	2691734	REC_START	n/a	n/a	6	-999	n/a	FACE	n/a	n/a	16	[0, 0, 0]	-999	PAL1	1	R1097N
2551.362	0.928	2693398	REC_EVENT	1665.0	n/a	6	6	FOX	FOX	FACE	FOX	16	[0, 0, 0]	-999	PAL1	1	R1097N
2552.29	2.406	2694326	REC_EVENT	2593.0	n/a	6	6	FOX	FACE	FACE	FOX	16	[0, 0, 0]	-999	PAL1	1	R1097N
2554.696	0.027	2696730	REC_END	n/a	n/a	6	-999	n/a	n/a	n/a	n/a	16	[0, 0, 0]	-999	PAL1	1	R1097N
2554.723	43.133	2696757	FORCED_BREAK	n/a	n/a	6	-999	n/a	n/a	n/a	n/a	16	[0, 0, 0]	-999	PAL1	1	R1097N
2597.856	0.004	2739870	ENCODING_START	n/a	n/a	0	-999	n/a	n/a	n/a	n/a	17	[0, 0, 0]	-999	PAL1	1	R1097N
2597.86	0.275	2739874	STUDY_ORIENT	n/a	n/a	1	1	SNAKE	STOOL	SNAKE	STOOL	17	[0, 0, 0]	-999	PAL1	1	R1097N
2598.76	4.0	2740774	STUDY_PAIR	n/a	wordpools/wordpool_EN.txt	1	1	SNAKE	STOOL	SNAKE	STOOL	17	[0, 0, 0]	-999	PAL1	1	R1097N
2603.761	0.275	2745772	STUDY_ORIENT	n/a	n/a	2	6	DRESS	STRING	ROPE	DRESS	17	[0, 0, 0]	-999	PAL1	1	R1097N
2604.517	4.0	2746528	STUDY_PAIR	n/a	wordpools/wordpool_EN.txt	2	6	DRESS	STRING	ROPE	DRESS	17	[0, 0, 0]	-999	PAL1	1	R1097N
2609.518	0.275	2751526	STUDY_ORIENT	n/a	n/a	3	5	WAVE	POOL	WAVE	POOL	17	[0, 0, 0]	-999	PAL1	1	R1097N
2610.308	4.0	2752316	STUDY_PAIR	n/a	wordpools/wordpool_EN.txt	3	5	WAVE	POOL	WAVE	POOL	17	[0, 0, 0]	-999	PAL1	1	R1097N
2615.308	0.275	2757314	STUDY_ORIENT	n/a	n/a	4	2	CART	n/a	CART	JAR	17	[0, 0, 0]	-999	PAL1	1	R1097N
2616.083	4.0	2758088	STUDY_PAIR	n/a	wordpools/wordpool_EN.txt	4	2	CART	n/a	CART	JAR	17	[0, 0, 0]	-999	PAL1	1	R1097N
2621.084	0.275	2763087	STUDY_ORIENT	n/a	n/a	5	3	PIG	PIG	BAT	PIG	17	[0, 0, 0]	-999	PAL1	1	R1097N
2621.952	4.0	2763955	STUDY_PAIR	n/a	wordpools/wordpool_EN.txt	5	3	PIG	PIG	BAT	PIG	17	[0, 0, 0]	-999	PAL1	1	R1097N
2626.953	0.275	2768953	STUDY_ORIENT	n/a	n/a	6	4	CAPE	CAPE	MAP	CAPE	17	[0, 0, 0]	-999	PAL1	1	R1097N
2627.927	4.0	2769927	STUDY_PAIR	n/a	wordpools/wordpool_EN.txt	6	4	CAPE	CAPE	MAP	CAPE	17	[0, 0, 0]	-999	PAL1	1	R1097N
2631.928	0.999	2773926	START	n/a	n/a	-999	-999	n/a	n/a	n/a	n/a	18	[-999, -999, -999]	-999	PAL1	1	R1097N
2632.927	0.001	2774924	MATH_START	n/a	n/a	-999	-999	n/a	n/a	n/a	n/a	17	[0, 0, 0]	-999	PAL1	1	R1097N
2632.928	3.869	2774925	PROB	3865.0	n/a	-999	-999	n/a	n/a	n/a	n/a	18	[1, 3, 7]	11	PAL1	1	R1097N
2636.797	9.812	2778793	PROB	9808.0	n/a	-999	-999	n/a	n/a	n/a	n/a	18	[8, 1, 5]	14	PAL1	1	R1097N
2646.609	4.106	2788600	PROB	4101.0	n/a	-999	-999	n/a	n/a	n/a	n/a	18	[3, 7, 4]	14	PAL1	1	R1097N
2650.715	6.11	2792704	PROB	6110.0	n/a	-999	-999	n/a	n/a	n/a	n/a	18	[2, 2, 6]	10	PAL1	1	R1097N
2656.825	0.002	2798811	STOP	n/a	n/a	-999	-999	n/a	n/a	n/a	n/a	18	[-999, -999, -999]	-999	PAL1	1	R1097N
2656.827	0.0	2798813	TEST_START	n/a	n/a	-999	-999	n/a	n/a	n/a	n/a	17	[0, 0, 0]	-999	PAL1	1	R1097N
2656.827	0.002	2798813	MATH_END	n/a	n/a	-999	-999	n/a	n/a	n/a	n/a	17	[0, 0, 0]	-999	PAL1	1	R1097N
2656.829	0.275	2798815	TEST_ORIENT	n/a	n/a	1	1	SNAKE	STOOL	SNAKE	STOOL	17	[0, 0, 0]	-999	PAL1	1	R1097N
2657.725	4.0	2799711	TEST_PROBE	n/a	wordpools/wordpool_EN.txt	1	1	SNAKE	STOOL	SNAKE	STOOL	17	[0, 0, 0]	-999	PAL1	1	R1097N
2657.726	1.418	2799712	REC_START	n/a	n/a	1	-999	n/a	STOOL	n/a	n/a	17	[0, 0, 0]	-999	PAL1	1	R1097N
2659.144	3.055	2801129	REC_EVENT	1418.0	n/a	1	1	SNAKE	STOOL	SNAKE	STOOL	17	[0, 0, 0]	-999	PAL1	1	R1097N
2662.199	0.526	2804182	REC_EVENT	4473.0	n/a	1	1	SNAKE	<>	SNAKE	STOOL	17	[0, 0, 0]	-999	PAL1	1	R1097N
2662.725	0.019	2804708	REC_END	n/a	n/a	1	-999	n/a	n/a	n/a	n/a	17	[0, 0, 0]	-999	PAL1	1	R1097N
2662.744	0.275	2804727	TEST_ORIENT	n/a	n/a	4	2	CART	n/a	CART	JAR	17	[0, 0, 0]	-999	PAL1	1	R1097N
2663.692	4.0	2805675	TEST_PROBE	n/a	wordpools/wordpool_EN.txt	4	2	CART	n/a	CART	JAR	17	[0, 0, 0]	-999	PAL1	1	R1097N
2663.693	2.257	2805676	REC_START	n/a	n/a	4	-999	n/a	n/a	n/a	n/a	17	[0, 0, 0]	-999	PAL1	1	R1097N
2665.95	2.742	2807932	REC_EVENT	2257.0	n/a	4	2	CART	<>	CART	JAR	17	[0, 0, 0]	-999	PAL1	1	R1097N
2668.692	0.019	2810672	REC_END	n/a	n/a	4	-999	n/a	n/a	n/a	n/a	17	[0, 0, 0]	-999	PAL1	1	R1097N
2668.711	0.275	2810691	TEST_ORIENT	n/a	n/a	5	3	PIG	PIG	BAT	PIG	17	[0, 0, 0]	-999	PAL1	1	R1097N
2669.625	4.0	2811605	TEST_PROBE	n/a	wordpools/wordpool_EN.txt	5	3	PIG	PIG	BAT	PIG	17	[0, 0, 0]	-999	PAL1	1	R1097N
2669.626	2.163	2811606	REC_START	n/a	n/a	5	-999	n/a	PIG	n/a	n/a	17	[0, 0, 0]	-999	PAL1	1	R1097N
2671.789	1.371	2813768	REC_EVENT	2163.0	n/a	5	3	PIG	PIG	BAT	PIG	17	[0, 0, 0]	-999	PAL1	1	R1097N
2673.16	1.0	2815138	REC_EVENT	3534.0	n/a	5	3	PIG	<>	BAT	PIG	17	[0, 0, 0]	-999	PAL1	1	R1097N
2674.16	0.465	2816138	REC_EVENT	4534.0	n/a	5	3	PIG	<>	BAT	PIG	17	[0, 0, 0]	-999	PAL1	1	R1097N
2674.625	0.018	2816603	REC_END	n/a	n/a	5	-999	n/a	n/a	n/a	n/a	17	[0, 0, 0]	-999	PAL1	1	R1097N
2674.643	0.275	2816621	TEST_ORIENT	n/a	n/a	6	4	CAPE	CAPE	MAP	CAPE	17	[0, 0, 0]	-999	PAL1	1	R1097N
2675.503	4.0	2817480	TEST_PROBE	n/a	wordpools/wordpool_EN.txt	6	4	CAPE	CAPE	MAP	CAPE	17	[0, 0, 0]	-999	PAL1	1	R1097N
2675.504	2.053	2817481	REC_START	n/a	n/a	6	-999	n/a	CAPE	n/a	n/a	17	[0, 0, 0]	-999	PAL1	1	R1097N
2677.557	2.946	2819533	REC_EVENT	2053.0	n/a	6	4	CAPE	CAPE	MAP	CAPE	17	[0, 0, 0]	-999	PAL1	1	R1097N
2680.503	0.018	2822478	REC_END	n/a	n/a	6	-999	n/a	n/a	n/a	n/a	17	[0, 0, 0]	-999	PAL1	1	R1097N
2680.521	0.275	2822496	TEST_ORIENT	n/a	n/a	3	5	WAVE	POOL	WAVE	POOL	17	[0, 0, 0]	-999	PAL1	1	R1097N
2681.425	4.0	2823399	TEST_PROBE	n/a	wordpools/wordpool_EN.txt	3	5	WAVE	POOL	WAVE	POOL	17	[0, 0, 0]	-999	PAL1	1	R1097N
2681.426	0.187	2823400	REC_START	n/a	n/a	3	-999	n/a	POOL	n/a	n/a	17	[0, 0, 0]	-999	PAL1	1	R1097N
2681.613	1.457	2823587	REC_EVENT	187.0	n/a	3	5	WAVE	BAT	WAVE	POOL	17	[0, 0, 0]	-999	PAL1	1	R1097N
2683.07	1.188	2825044	REC_EVENT	1644.0	n/a	3	5	WAVE	WAVE	WAVE	POOL	17	[0, 0, 0]	-999	PAL1	1	R1097N
2684.258	2.167	2826231	REC_EVENT	2832.0	n/a	3	5	WAVE	POOL	WAVE	POOL	17	[0, 0, 0]	-999	PAL1	1	R1097N
2686.425	0.018	2828397	REC_END	n/a	n/a	3	-999	n/a	n/a	n/a	n/a	17	[0, 0, 0]	-999	PAL1	1	R1097N
2686.443	0.275	2828415	TEST_ORIENT	n/a	n/a	2	6	DRESS	STRING	ROPE	DRESS	17	[0, 0, 0]	-999	PAL1	1	R1097N
2687.21	4.0	2829182	TEST_PROBE	n/a	wordpools/wordpool_EN.txt	2	6	DRESS	STRING	ROPE	DRESS	17	[0, 0, 0]	-999	PAL1	1	R1097N
2687.211	1.163	2829183	REC_START	n/a	n/a	2	-999	n/a	STRING	n/a	n/a	17	[0, 0, 0]	-999	PAL1	1	R1097N
2688.374	1.351	2830345	REC_EVENT	1163.0	n/a	2	6	DRESS	DRESS	ROPE	DRESS	17	[0, 0, 0]	-999	PAL1	1	R1097N
2689.725	0.98	2831695	REC_EVENT	2514.0	n/a	2	6	DRESS	ROPE	ROPE	DRESS	17	[0, 0, 0]	-999	PAL1	1	R1097N
2690.705	1.505	2832675	REC_EVENT	3494.0	n/a	2	6	DRESS	STRING	ROPE	DRESS	17	[0, 0, 0]	-999	PAL1	1	R1097N
2692.21	0.027	2834179	REC_END	n/a	n/a	2	-999	n/a	n/a	n/a	n/a	17	[0, 0, 0]	-999	PAL1	1	R1097N
2692.237	22.149	2834206	FORCED_BREAK	n/a	n/a	2	-999	n/a	n/a	n/a	n/a	17	[0, 0, 0]	-999	PAL1	1	R1097N
2714.386	0.003	2856345	ENCODING_START	n/a	n/a	0	-999	n/a	n/a	n/a	n/a	18	[0, 0, 0]	-999	PAL1	1	R1097N
2714.389	0.275	2856348	STUDY_ORIENT	n/a	n/a	1	5	PEA	VASE	PEA	VASE	18	[0, 0, 0]	-999	PAL1	1	R1097N
2715.35	4.0	2857308	STUDY_PAIR	n/a	wordpools/wordpool_EN.txt	1	5	PEA	VASE	PEA	VASE	18	[0, 0, 0]	-999	PAL1	1	R1097N
2720.351	0.275	2862307	STUDY_ORIENT	n/a	n/a	2	4	WOLF	ROOM	ROOM	WOLF	18	[0, 0, 0]	-999	PAL1	1	R1097N
2721.144	4.0	2863100	STUDY_PAIR	n/a	wordpools/wordpool_EN.txt	2	4	WOLF	ROOM	ROOM	WOLF	18	[0, 0, 0]	-999	PAL1	1	R1097N
2726.145	0.275	2868098	STUDY_ORIENT	n/a	n/a	3	1	GOLD	STAR	STAR	GOLD	18	[0, 0, 0]	-999	PAL1	1	R1097N
2727.006	4.0	2868959	STUDY_PAIR	n/a	wordpools/wordpool_EN.txt	3	1	GOLD	STAR	STAR	GOLD	18	[0, 0, 0]	-999	PAL1	1	R1097N
2732.007	0.275	2873957	STUDY_ORIENT	n/a	n/a	4	2	CLOTH	GRAPE	CLOTH	GRAPE	18	[0, 0, 0]	-999	PAL1	1	R1097N
2732.926	4.0	2874876	STUDY_PAIR	n/a	wordpools/wordpool_EN.txt	4	2	CLOTH	GRAPE	CLOTH	GRAPE	18	[0, 0, 0]	-999	PAL1	1	R1097N
2737.926	0.275	2879874	STUDY_ORIENT	n/a	n/a	5	3	BARN	BOAT	BOOT	BARN	18	[0, 0, 0]	-999	PAL1	1	R1097N
2738.888	4.0	2880835	STUDY_PAIR	n/a	wordpools/wordpool_EN.txt	5	3	BARN	BOAT	BOOT	BARN	18	[0, 0, 0]	-999	PAL1	1	R1097N
