onset	duration	sample	trial_type	response_time	serialpos	probepos	probe_word	resp_word	study_1	study_2	list	test	answer	experiment	session	subject
0.0	4.617	333	INSTRUCT_START	n/a	-999	-999	n/a	n/a	n/a	n/a	-999	[0, 0, 0]	-999	PAL1	5	R1365N
4.617	4.535	4950	INSTRUCT_END	n/a	-999	-999	n/a	n/a	n/a	n/a	-999	[0, 0, 0]	-999	PAL1	5	R1365N
9.152	7.698	9485	MIC TEST_START	n/a	-999	-999	n/a	n/a	n/a	n/a	-999	[0, 0, 0]	-999	PAL1	5	R1365N
16.85	0.011	17183	MIC TEST_END	n/a	-999	-999	n/a	n/a	n/a	n/a	-999	[0, 0, 0]	-999	PAL1	5	R1365N
16.861	0.0	17194	TRIAL_START	n/a	-999	-999	n/a	n/a	n/a	n/a	-999	[0, 0, 0]	-999	PAL1	5	R1365N
16.861	0.0	17194	TRIAL	n/a	-999	-999	n/a	n/a	n/a	n/a	-1	[0, 0, 0]	-999	PAL1	5	R1365N
16.861	1.292	17194	WAITING_START	n/a	-999	-999	n/a	n/a	n/a	n/a	-1	[0, 0, 0]	-999	PAL1	5	R1365N
18.153	0.0	18485	WAITING_END	n/a	-999	-999	n/a	n/a	n/a	n/a	-1	[0, 0, 0]	-999	PAL1	5	R1365N
18.153	10.43	18485	COUNTDOWN_START	n/a	-999	-999	n/a	n/a	n/a	n/a	-1	[0, 0, 0]	-999	PAL1	5	R1365N
28.583	0.0	28915	COUNTDOWN_END	n/a	-999	-999	n/a	n/a	n/a	n/a	-1	[0, 0, 0]	-999	PAL1	5	R1365N
28.583	0.539	28915	ORIENT_START	n/a	-999	-999	n/a	n/a	n/a	n/a	-1	[0, 0, 0]	-999	PAL1	5	R1365N
29.122	0.001	29454	ORIENT_END	n/a	-999	-999	n/a	n/a	n/a	n/a	-1	[0, 0, 0]	-999	PAL1	5	R1365N
29.123	1.103	29455	ENCODING_START	n/a	-999	-999	n/a	n/a	n/a	n/a	-1	[0, 0, 0]	-999	PAL1	5	R1365N
30.226	4.029	30558	STUDY_PAIR	n/a	3	3	n/a	BEAM	BEAM	RING	-1	[0, 0, 0]	-999	PAL1	5	R1365N
34.255	0.745	34587	STUDY_PAIR_OFF	n/a	3	3	n/a	BEAM	BEAM	RING	-1	[0, 0, 0]	-999	PAL1	5	R1365N
35.0	4.04	35332	STUDY_PAIR	n/a	2	4	n/a	CAMEL	CAMEL	BABY	-1	[0, 0, 0]	-999	PAL1	5	R1365N
39.04	0.72	39372	STUDY_PAIR_OFF	n/a	2	4	n/a	CAMEL	CAMEL	BABY	-1	[0, 0, 0]	-999	PAL1	5	R1365N
39.76	4.031	40092	STUDY_PAIR	n/a	3	3	n/a	BEAM	BEAM	RING	-1	[0, 0, 0]	-999	PAL1	5	R1365N
43.791	0.688	44123	STUDY_PAIR_OFF	n/a	3	3	n/a	BEAM	BEAM	RING	-1	[0, 0, 0]	-999	PAL1	5	R1365N
44.479	4.028	44811	STUDY_PAIR	n/a	4	2	n/a	IMAGE	IMAGE	WAGON	-1	[0, 0, 0]	-999	PAL1	5	R1365N
48.507	0.692	48839	STUDY_PAIR_OFF	n/a	4	2	n/a	IMAGE	IMAGE	WAGON	-1	[0, 0, 0]	-999	PAL1	5	R1365N
49.199	4.025	49531	STUDY_PAIR	n/a	5	1	n/a	COTTON	WATCH	COTTON	-1	[0, 0, 0]	-999	PAL1	5	R1365N
53.224	0.546	53555	STUDY_PAIR_OFF	n/a	5	1	n/a	COTTON	WATCH	COTTON	-1	[0, 0, 0]	-999	PAL1	5	R1365N
53.77	4.04	54101	STUDY_PAIR	n/a	6	6	n/a	CHEST	RHINO	CHEST	-1	[0, 0, 0]	-999	PAL1	5	R1365N
57.81	0.0	58141	STUDY_PAIR_OFF	n/a	6	6	n/a	CHEST	RHINO	CHEST	-1	[0, 0, 0]	-999	PAL1	5	R1365N
57.81	0.0	58141	ENCODING_END	n/a	-999	-999	n/a	n/a	n/a	n/a	-1	[0, 0, 0]	-999	PAL1	5	R1365N
57.81	0.0	58141	MATH_START	n/a	-999	-999	n/a	n/a	n/a	n/a	-1	[0, 0, 0]	-999	PAL1	5	R1365N
57.81	0.016	58141	START	n/a	-999	-999	n/a	n/a	n/a	n/a	-1	[-999, -999, -999]	-999	PAL1	5	R1365N
57.826	12.319	58157	PROB	12284	-999	-999	n/a	n/a	n/a	n/a	-1	[6, 5, 8]	17	PAL1	5	R1365N
70.145	4.617	70476	PROB	4589	-999	-999	n/a	n/a	n/a	n/a	-1	[2, 3, 2]	7	PAL1	5	R1365N
74.762	6.762	75093	PROB	6762	-999	-999	n/a	n/a	n/a	n/a	-1	[3, 3, 5]	11	PAL1	5	R1365N
81.524	0.022	81855	STOP	n/a	-999	-999	n/a	n/a	n/a	n/a	-1	[-999, -999, -999]	-999	PAL1	5	R1365N
81.546	0.613	81877	MATH_END	n/a	-999	-999	n/a	n/a	n/a	n/a	-1	[0, 0, 0]	-999	PAL1	5	R1365N
82.159	0.002	82490	RETRIEVAL_START	n/a	-999	-999	n/a	n/a	n/a	n/a	-1	[0, 0, 0]	-999	PAL1	5	R1365N
82.161	0.285	82492	ORIENT_START	n/a	-999	-999	n/a	n/a	n/a	n/a	-1	[0, 0, 0]	-999	PAL1	5	R1365N
82.446	0.517	82777	ORIENT_END	n/a	-999	-999	n/a	n/a	n/a	n/a	-1	[0, 0, 0]	-999	PAL1	5	R1365N
82.963	0.0	83294	REC_START	n/a	5	1	WATCH	COTTON	WATCH	COTTON	-1	[0, 0, 0]	-999	PAL1	5	R1365N
82.963	2.204	83294	PROBE_START	n/a	5	1	WATCH	COTTON	WATCH	COTTON	-1	[0, 0, 0]	-999	PAL1	5	R1365N
85.167	1.831	85498	REC_EVENT	2204	5	1	WATCH	COTTON	WATCH	COTTON	-1	[0, 0, 0]	-999	PAL1	5	R1365N
86.998	0.999	87328	PROBE_END	n/a	5	1	WATCH	COTTON	WATCH	COTTON	-1	[0, 0, 0]	-999	PAL1	5	R1365N
87.997	0.012	88327	REC_END	n/a	5	1	WATCH	COTTON	WATCH	COTTON	-1	[0, 0, 0]	-999	PAL1	5	R1365N
88.009	0.271	88339	ORIENT_START	n/a	-999	-999	n/a	n/a	n/a	n/a	-1	[0, 0, 0]	-999	PAL1	5	R1365N
88.28	0.658	88610	ORIENT_END	n/a	-999	-999	n/a	n/a	n/a	n/a	-1	[0, 0, 0]	-999	PAL1	5	R1365N
88.938	0.0	89268	REC_START	n/a	4	2	WAGON	IMAGE	IMAGE	WAGON	-1	[0, 0, 0]	-999	PAL1	5	R1365N
88.938	1.85	89268	PROBE_START	n/a	4	2	WAGON	IMAGE	IMAGE	WAGON	-1	[0, 0, 0]	-999	PAL1	5	R1365N
90.788	0.642	91118	REC_EVENT	1850	4	2	WAGON	IMAGE	IMAGE	WAGON	-1	[0, 0, 0]	-999	PAL1	5	R1365N
91.43	1.535	91760	REC_EVENT	2492	4	2	WAGON	IMAGE	IMAGE	WAGON	-1	[0, 0, 0]	-999	PAL1	5	R1365N
92.965	1.001	93295	PROBE_END	n/a	4	2	WAGON	IMAGE	IMAGE	WAGON	-1	[0, 0, 0]	-999	PAL1	5	R1365N
93.966	0.015	94296	REC_END	n/a	4	2	WAGON	IMAGE	IMAGE	WAGON	-1	[0, 0, 0]	-999	PAL1	5	R1365N
93.981	0.283	94311	ORIENT_START	n/a	-999	-999	n/a	n/a	n/a	n/a	-1	[0, 0, 0]	-999	PAL1	5	R1365N
94.264	0.538	94594	ORIENT_END	n/a	-999	-999	n/a	n/a	n/a	n/a	-1	[0, 0, 0]	-999	PAL1	5	R1365N
94.802	0.0	95132	REC_START	n/a	3	3	FLOOD	BEAM	BEAM	RING	-1	[0, 0, 0]	-999	PAL1	5	R1365N
94.802	2.175	95132	PROBE_START	n/a	3	3	FLOOD	BEAM	BEAM	RING	-1	[0, 0, 0]	-999	PAL1	5	R1365N
96.977	1.856	97307	REC_EVENT	2175	3	3	FLOOD	BEAM	BEAM	RING	-1	[0, 0, 0]	-999	PAL1	5	R1365N
98.833	1.0	99163	PROBE_END	n/a	3	3	FLOOD	n/a	BEAM	RING	-1	[0, 0, 0]	-999	PAL1	5	R1365N
99.833	0.011	100163	REC_END	n/a	3	3	FLOOD	n/a	BEAM	RING	-1	[0, 0, 0]	-999	PAL1	5	R1365N
99.844	0.273	100174	ORIENT_START	n/a	-999	-999	n/a	n/a	n/a	n/a	-1	[0, 0, 0]	-999	PAL1	5	R1365N
100.117	0.586	100447	ORIENT_END	n/a	-999	-999	n/a	n/a	n/a	n/a	-1	[0, 0, 0]	-999	PAL1	5	R1365N
100.703	0.001	101033	REC_START	n/a	2	4	BABY	CAMEL	CAMEL	BABY	-1	[0, 0, 0]	-999	PAL1	5	R1365N
100.704	1.849	101034	PROBE_START	n/a	2	4	BABY	CAMEL	CAMEL	BABY	-1	[0, 0, 0]	-999	PAL1	5	R1365N
102.553	2.181	102883	REC_EVENT	1849	2	4	BABY	CAMEL	CAMEL	BABY	-1	[0, 0, 0]	-999	PAL1	5	R1365N
104.734	1.0	105064	PROBE_END	n/a	2	4	BABY	CAMEL	CAMEL	BABY	-1	[0, 0, 0]	-999	PAL1	5	R1365N
105.734	0.012	106064	REC_END	n/a	2	4	BABY	CAMEL	CAMEL	BABY	-1	[0, 0, 0]	-999	PAL1	5	R1365N
105.746	0.271	106076	ORIENT_START	n/a	-999	-999	n/a	n/a	n/a	n/a	-1	[0, 0, 0]	-999	PAL1	5	R1365N
106.017	0.697	106347	ORIENT_END	n/a	-999	-999	n/a	n/a	n/a	n/a	-1	[0, 0, 0]	-999	PAL1	5	R1365N
106.714	0.0	107044	PROBE_START	n/a	3	3	RING	BEAM	BEAM	RING	-1	[0, 0, 0]	-999	PAL1	5	R1365N
106.714	1.93	107044	REC_START	n/a	3	3	RING	BEAM	BEAM	RING	-1	[0, 0, 0]	-999	PAL1	5	R1365N
108.644	2.108	108974	REC_EVENT	1930	3	3	RING	TONGUE	BEAM	RING	-1	[0, 0, 0]	-999	PAL1	5	R1365N
110.752	1.0	111082	PROBE_END	n/a	3	3	RING	BEAM	BEAM	RING	-1	[0, 0, 0]	-999	PAL1	5	R1365N
111.752	0.013	112082	REC_END	n/a	3	3	RING	BEAM	BEAM	RING	-1	[0, 0, 0]	-999	PAL1	5	R1365N
111.765	0.27	112095	ORIENT_START	n/a	-999	-999	n/a	n/a	n/a	n/a	-1	[0, 0, 0]	-999	PAL1	5	R1365N
112.035	0.547	112365	ORIENT_END	n/a	-999	-999	n/a	n/a	n/a	n/a	-1	[0, 0, 0]	-999	PAL1	5	R1365N
112.582	0.0	112912	REC_START	n/a	6	6	RHINO	CHEST	RHINO	CHEST	-1	[0, 0, 0]	-999	PAL1	5	R1365N
112.582	1.852	112912	PROBE_START	n/a	6	6	RHINO	CHEST	RHINO	CHEST	-1	[0, 0, 0]	-999	PAL1	5	R1365N
114.434	2.184	114764	REC_EVENT	1852	6	6	RHINO	CHEST	RHINO	CHEST	-1	[0, 0, 0]	-999	PAL1	5	R1365N
116.618	1.0	116948	PROBE_END	n/a	6	6	RHINO	CHEST	RHINO	CHEST	-1	[0, 0, 0]	-999	PAL1	5	R1365N
117.618	0.011	117948	REC_END	n/a	6	6	RHINO	CHEST	RHINO	CHEST	-1	[0, 0, 0]	-999	PAL1	5	R1365N
117.629	0.001	117959	RETRIEVAL_END	n/a	-999	-999	n/a	n/a	n/a	n/a	-1	[0, 0, 0]	-999	PAL1	5	R1365N
117.63	3.94	117960	PRACTICE_POST_INSTRUCT_START	n/a	-999	-999	n/a	n/a	n/a	n/a	-1	[0, 0, 0]	-999	PAL1	5	R1365N
121.57	0.0	121899	PRACTICE_POST_INSTRUCT_END	n/a	-999	-999	n/a	n/a	n/a	n/a	-1	[0, 0, 0]	-999	PAL1	5	R1365N
121.57	0.026	121899	TRIAL_END	n/a	-999	-999	n/a	n/a	n/a	n/a	-1	[0, 0, 0]	-999	PAL1	5	R1365N
121.596	0.0	121925	WAITING_START	n/a	-999	-999	n/a	n/a	n/a	n/a	1	[0, 0, 0]	-999	PAL1	5	R1365N
121.596	0.0	121925	TRIAL_START	n/a	-999	-999	n/a	n/a	n/a	n/a	-1	[0, 0, 0]	-999	PAL1	5	R1365N
121.596	1.923	121925	TRIAL	n/a	-999	-999	n/a	n/a	n/a	n/a	1	[0, 0, 0]	-999	PAL1	5	R1365N
123.519	0.001	123848	WAITING_END	n/a	-999	-999	n/a	n/a	n/a	n/a	1	[0, 0, 0]	-999	PAL1	5	R1365N
123.52	10.431	123849	COUNTDOWN_START	n/a	-999	-999	n/a	n/a	n/a	n/a	1	[0, 0, 0]	-999	PAL1	5	R1365N
133.951	0.001	134280	COUNTDOWN_END	n/a	-999	-999	n/a	n/a	n/a	n/a	1	[0, 0, 0]	-999	PAL1	5	R1365N
133.952	0.586	134281	ORIENT_START	n/a	-999	-999	n/a	n/a	n/a	n/a	1	[0, 0, 0]	-999	PAL1	5	R1365N
134.538	0.0	134867	ORIENT_END	n/a	-999	-999	n/a	n/a	n/a	n/a	1	[0, 0, 0]	-999	PAL1	5	R1365N
134.538	1.035	134867	ENCODING_START	n/a	-999	-999	n/a	n/a	n/a	n/a	1	[0, 0, 0]	-999	PAL1	5	R1365N
135.573	4.032	135902	STUDY_PAIR	n/a	1	5	n/a	BED	BED	CAR	1	[0, 0, 0]	-999	PAL1	5	R1365N
139.605	0.742	139934	STUDY_PAIR_OFF	n/a	1	5	n/a	BED	BED	CAR	1	[0, 0, 0]	-999	PAL1	5	R1365N
140.347	4.026	140676	STUDY_PAIR	n/a	2	4	n/a	DIME	DIME	PIE	1	[0, 0, 0]	-999	PAL1	5	R1365N
144.373	0.503	144702	STUDY_PAIR_OFF	n/a	2	4	n/a	DIME	DIME	PIE	1	[0, 0, 0]	-999	PAL1	5	R1365N
144.876	4.032	145205	STUDY_PAIR	n/a	3	1	n/a	n/a	WAND	CLOCK	1	[0, 0, 0]	-999	PAL1	5	R1365N
148.908	0.712	149237	STUDY_PAIR_OFF	n/a	3	1	n/a	n/a	WAND	CLOCK	1	[0, 0, 0]	-999	PAL1	5	R1365N
149.62	4.038	149949	STUDY_PAIR	n/a	4	2	n/a	n/a	WING	PARK	1	[0, 0, 0]	-999	PAL1	5	R1365N
153.658	0.508	153986	STUDY_PAIR_OFF	n/a	4	2	n/a	n/a	WING	PARK	1	[0, 0, 0]	-999	PAL1	5	R1365N
154.166	4.026	154494	STUDY_PAIR	n/a	5	3	n/a	SKUNK	SKUNK	STRAW	1	[0, 0, 0]	-999	PAL1	5	R1365N
158.192	0.529	158520	STUDY_PAIR_OFF	n/a	5	3	n/a	SKUNK	SKUNK	STRAW	1	[0, 0, 0]	-999	PAL1	5	R1365N
158.721	4.039	159049	STUDY_PAIR	n/a	6	6	n/a	GOLD	SUN	GOLD	1	[0, 0, 0]	-999	PAL1	5	R1365N
162.76	0.001	163088	STUDY_PAIR_OFF	n/a	6	6	n/a	GOLD	SUN	GOLD	1	[0, 0, 0]	-999	PAL1	5	R1365N
162.761	0.0	163089	ENCODING_END	n/a	-999	-999	n/a	n/a	n/a	n/a	1	[0, 0, 0]	-999	PAL1	5	R1365N
162.761	0.0	163089	MATH_START	n/a	-999	-999	n/a	n/a	n/a	n/a	1	[0, 0, 0]	-999	PAL1	5	R1365N
162.761	0.016	163089	START	n/a	-999	-999	n/a	n/a	n/a	n/a	1	[-999, -999, -999]	-999	PAL1	5	R1365N
162.777	11.035	163105	PROB	10996	-999	-999	n/a	n/a	n/a	n/a	1	[6, 2, 5]	13	PAL1	5	R1365N
173.812	5.934	174140	PROB	5897	-999	-999	n/a	n/a	n/a	n/a	1	[3, 8, 4]	15	PAL1	5	R1365N
179.746	5.059	180074	PROB	5059	-999	-999	n/a	n/a	n/a	n/a	1	[7, 4, 8]	19	PAL1	5	R1365N
184.805	0.009	185133	STOP	n/a	-999	-999	n/a	n/a	n/a	n/a	1	[-999, -999, -999]	-999	PAL1	5	R1365N
184.814	0.631	185142	MATH_END	n/a	-999	-999	n/a	n/a	n/a	n/a	1	[0, 0, 0]	-999	PAL1	5	R1365N
185.445	0.002	185773	RETRIEVAL_START	n/a	-999	-999	n/a	n/a	n/a	n/a	1	[0, 0, 0]	-999	PAL1	5	R1365N
185.447	0.284	185775	ORIENT_START	n/a	-999	-999	n/a	n/a	n/a	n/a	1	[0, 0, 0]	-999	PAL1	5	R1365N
185.731	0.539	186059	ORIENT_END	n/a	-999	-999	n/a	n/a	n/a	n/a	1	[0, 0, 0]	-999	PAL1	5	R1365N
186.27	0.001	186598	REC_START	n/a	3	1	WAND	n/a	WAND	CLOCK	1	[0, 0, 0]	-999	PAL1	5	R1365N
186.271	4.026	186599	PROBE_START	n/a	3	1	WAND	n/a	WAND	CLOCK	1	[0, 0, 0]	-999	PAL1	5	R1365N
190.297	1.001	190624	PROBE_END	n/a	3	1	WAND	n/a	WAND	CLOCK	1	[0, 0, 0]	-999	PAL1	5	R1365N
191.298	0.012	191625	REC_END	n/a	3	1	WAND	n/a	WAND	CLOCK	1	[0, 0, 0]	-999	PAL1	5	R1365N
191.31	0.271	191637	ORIENT_START	n/a	-999	-999	n/a	n/a	n/a	n/a	1	[0, 0, 0]	-999	PAL1	5	R1365N
191.581	0.541	191908	ORIENT_END	n/a	-999	-999	n/a	n/a	n/a	n/a	1	[0, 0, 0]	-999	PAL1	5	R1365N
192.122	0.149	192449	REC_EVENT	5851	3	1	WAND	<>	WAND	CLOCK	1	[0, 0, 0]	-999	PAL1	5	R1365N
192.271	0.0	192598	REC_START	n/a	4	2	WING	n/a	WING	PARK	1	[0, 0, 0]	-999	PAL1	5	R1365N
192.271	4.027	192598	PROBE_START	n/a	4	2	WING	n/a	WING	PARK	1	[0, 0, 0]	-999	PAL1	5	R1365N
196.298	1.0	196625	PROBE_END	n/a	4	2	WING	n/a	WING	PARK	1	[0, 0, 0]	-999	PAL1	5	R1365N
197.298	0.013	197625	REC_END	n/a	4	2	WING	n/a	WING	PARK	1	[0, 0, 0]	-999	PAL1	5	R1365N
197.311	0.271	197638	ORIENT_START	n/a	-999	-999	n/a	n/a	n/a	n/a	1	[0, 0, 0]	-999	PAL1	5	R1365N
197.582	0.54	197909	ORIENT_END	n/a	-999	-999	n/a	n/a	n/a	n/a	1	[0, 0, 0]	-999	PAL1	5	R1365N
198.122	0.001	198449	REC_START	n/a	5	3	STRAW	SKUNK	SKUNK	STRAW	1	[0, 0, 0]	-999	PAL1	5	R1365N
198.123	0.138	198450	PROBE_START	n/a	5	3	STRAW	SKUNK	SKUNK	STRAW	1	[0, 0, 0]	-999	PAL1	5	R1365N
198.261	1.944	198588	REC_EVENT	5990	4	2	WING	<>	WING	PARK	1	[0, 0, 0]	-999	PAL1	5	R1365N
200.205	1.945	200532	REC_EVENT	2082	5	3	STRAW	SKUNK	SKUNK	STRAW	1	[0, 0, 0]	-999	PAL1	5	R1365N
202.15	1.001	202477	PROBE_END	n/a	5	3	STRAW	n/a	SKUNK	STRAW	1	[0, 0, 0]	-999	PAL1	5	R1365N
203.151	0.012	203478	REC_END	n/a	5	3	STRAW	n/a	SKUNK	STRAW	1	[0, 0, 0]	-999	PAL1	5	R1365N
203.163	0.27	203490	ORIENT_START	n/a	-999	-999	n/a	n/a	n/a	n/a	1	[0, 0, 0]	-999	PAL1	5	R1365N
203.433	0.742	203760	ORIENT_END	n/a	-999	-999	n/a	n/a	n/a	n/a	1	[0, 0, 0]	-999	PAL1	5	R1365N
204.175	0.0	204502	REC_START	n/a	2	4	PIE	DIME	DIME	PIE	1	[0, 0, 0]	-999	PAL1	5	R1365N
204.175	2.111	204502	PROBE_START	n/a	2	4	PIE	DIME	DIME	PIE	1	[0, 0, 0]	-999	PAL1	5	R1365N
206.286	1.914	206613	REC_EVENT	2111	2	4	PIE	DIME	DIME	PIE	1	[0, 0, 0]	-999	PAL1	5	R1365N
208.2	1.0	208527	PROBE_END	n/a	2	4	PIE	n/a	DIME	PIE	1	[0, 0, 0]	-999	PAL1	5	R1365N
209.2	0.006	209527	REC_END	n/a	2	4	PIE	n/a	DIME	PIE	1	[0, 0, 0]	-999	PAL1	5	R1365N
209.206	0.277	209533	ORIENT_START	n/a	-999	-999	n/a	n/a	n/a	n/a	1	[0, 0, 0]	-999	PAL1	5	R1365N
209.483	0.751	209810	ORIENT_END	n/a	-999	-999	n/a	n/a	n/a	n/a	1	[0, 0, 0]	-999	PAL1	5	R1365N
210.234	0.0	210561	REC_START	n/a	1	5	CAR	BED	BED	CAR	1	[0, 0, 0]	-999	PAL1	5	R1365N
210.234	1.972	210561	PROBE_START	n/a	1	5	CAR	BED	BED	CAR	1	[0, 0, 0]	-999	PAL1	5	R1365N
212.206	2.062	212533	REC_EVENT	1972	1	5	CAR	BED	BED	CAR	1	[0, 0, 0]	-999	PAL1	5	R1365N
214.268	0.999	214595	PROBE_END	n/a	1	5	CAR	n/a	BED	CAR	1	[0, 0, 0]	-999	PAL1	5	R1365N
215.267	0.009	215594	REC_END	n/a	1	5	CAR	n/a	BED	CAR	1	[0, 0, 0]	-999	PAL1	5	R1365N
215.276	0.275	215603	ORIENT_START	n/a	-999	-999	n/a	n/a	n/a	n/a	1	[0, 0, 0]	-999	PAL1	5	R1365N
215.551	0.654	215878	ORIENT_END	n/a	-999	-999	n/a	n/a	n/a	n/a	1	[0, 0, 0]	-999	PAL1	5	R1365N
216.205	0.0	216532	REC_START	n/a	6	6	SUN	GOLD	SUN	GOLD	1	[0, 0, 0]	-999	PAL1	5	R1365N
216.205	2.192	216532	PROBE_START	n/a	6	6	SUN	GOLD	SUN	GOLD	1	[0, 0, 0]	-999	PAL1	5	R1365N
218.397	1.838	218724	REC_EVENT	2192	6	6	SUN	GOLD	SUN	GOLD	1	[0, 0, 0]	-999	PAL1	5	R1365N
220.235	1.0	220562	PROBE_END	n/a	6	6	SUN	n/a	SUN	GOLD	1	[0, 0, 0]	-999	PAL1	5	R1365N
221.235	0.013	221562	REC_END	n/a	6	6	SUN	n/a	SUN	GOLD	1	[0, 0, 0]	-999	PAL1	5	R1365N
221.248	0.0	221575	RETRIEVAL_END	n/a	-999	-999	n/a	n/a	n/a	n/a	1	[0, 0, 0]	-999	PAL1	5	R1365N
221.248	0.022	221575	TRIAL_END	n/a	-999	-999	n/a	n/a	n/a	n/a	1	[0, 0, 0]	-999	PAL1	5	R1365N
221.27	0.0	221597	TRIAL_START	n/a	-999	-999	n/a	n/a	n/a	n/a	1	[0, 0, 0]	-999	PAL1	5	R1365N
221.27	0.001	221597	TRIAL	n/a	-999	-999	n/a	n/a	n/a	n/a	2	[0, 0, 0]	-999	PAL1	5	R1365N
221.271	1.215	221598	WAITING_START	n/a	-999	-999	n/a	n/a	n/a	n/a	2	[0, 0, 0]	-999	PAL1	5	R1365N
222.486	0.0	222812	WAITING_END	n/a	-999	-999	n/a	n/a	n/a	n/a	2	[0, 0, 0]	-999	PAL1	5	R1365N
222.486	10.429	222812	COUNTDOWN_START	n/a	-999	-999	n/a	n/a	n/a	n/a	2	[0, 0, 0]	-999	PAL1	5	R1365N
232.915	0.001	233241	COUNTDOWN_END	n/a	-999	-999	n/a	n/a	n/a	n/a	2	[0, 0, 0]	-999	PAL1	5	R1365N
232.916	0.672	233242	ORIENT_START	n/a	-999	-999	n/a	n/a	n/a	n/a	2	[0, 0, 0]	-999	PAL1	5	R1365N
233.588	0.0	233914	ENCODING_START	n/a	-999	-999	n/a	n/a	n/a	n/a	2	[0, 0, 0]	-999	PAL1	5	R1365N
233.588	1.009	233914	ORIENT_END	n/a	-999	-999	n/a	n/a	n/a	n/a	2	[0, 0, 0]	-999	PAL1	5	R1365N
234.597	4.025	234923	STUDY_PAIR	n/a	1	1	n/a	ROOM	SKY	ROOM	2	[0, 0, 0]	-999	PAL1	5	R1365N
238.622	0.745	238948	STUDY_PAIR_OFF	n/a	1	1	n/a	ROOM	SKY	ROOM	2	[0, 0, 0]	-999	PAL1	5	R1365N
239.367	4.039	239693	STUDY_PAIR	n/a	2	2	n/a	PASTE	CLAY	PASTE	2	[0, 0, 0]	-999	PAL1	5	R1365N
243.406	0.675	243732	STUDY_PAIR_OFF	n/a	2	2	n/a	PASTE	CLAY	PASTE	2	[0, 0, 0]	-999	PAL1	5	R1365N
244.081	4.027	244407	STUDY_PAIR	n/a	3	5	n/a	BRICK	BEAN	STONE	2	[0, 0, 0]	-999	PAL1	5	R1365N
248.108	0.721	248434	STUDY_PAIR_OFF	n/a	3	5	n/a	BRICK	BEAN	STONE	2	[0, 0, 0]	-999	PAL1	5	R1365N
248.829	4.029	249155	STUDY_PAIR	n/a	4	6	n/a	HOOK	HOOK	BRICK	2	[0, 0, 0]	-999	PAL1	5	R1365N
252.858	0.742	253184	STUDY_PAIR_OFF	n/a	4	6	n/a	HOOK	HOOK	BRICK	2	[0, 0, 0]	-999	PAL1	5	R1365N
253.6	4.025	253926	STUDY_PAIR	n/a	5	3	n/a	FLAME	VAN	FLAME	2	[0, 0, 0]	-999	PAL1	5	R1365N
257.625	0.679	257950	STUDY_PAIR_OFF	n/a	5	3	n/a	FLAME	VAN	FLAME	2	[0, 0, 0]	-999	PAL1	5	R1365N
258.304	4.038	258629	STUDY_PAIR	n/a	6	4	n/a	WEED	WEED	GLOVE	2	[0, 0, 0]	-999	PAL1	5	R1365N
262.342	0.001	262667	STUDY_PAIR_OFF	n/a	6	4	n/a	WEED	WEED	GLOVE	2	[0, 0, 0]	-999	PAL1	5	R1365N
262.343	0.0	262668	ENCODING_END	n/a	-999	-999	n/a	n/a	n/a	n/a	2	[0, 0, 0]	-999	PAL1	5	R1365N
262.343	0.001	262668	MATH_START	n/a	-999	-999	n/a	n/a	n/a	n/a	2	[0, 0, 0]	-999	PAL1	5	R1365N
262.344	0.015	262669	START	n/a	-999	-999	n/a	n/a	n/a	n/a	2	[-999, -999, -999]	-999	PAL1	5	R1365N
262.359	5.184	262684	PROB	5157	-999	-999	n/a	n/a	n/a	n/a	2	[5, 8, 6]	19	PAL1	5	R1365N
267.543	5.868	267868	PROB	5837	-999	-999	n/a	n/a	n/a	n/a	2	[8, 7, 6]	21	PAL1	5	R1365N
273.411	7.017	273736	PROB	6986	-999	-999	n/a	n/a	n/a	n/a	2	[9, 5, 9]	23	PAL1	5	R1365N
280.428	3.041	280753	PROB	3041	-999	-999	n/a	n/a	n/a	n/a	2	[3, 7, 5]	15	PAL1	5	R1365N
283.469	0.01	283794	STOP	n/a	-999	-999	n/a	n/a	n/a	n/a	2	[-999, -999, -999]	-999	PAL1	5	R1365N
283.479	0.669	283804	MATH_END	n/a	-999	-999	n/a	n/a	n/a	n/a	2	[0, 0, 0]	-999	PAL1	5	R1365N
284.148	0.002	284473	RETRIEVAL_START	n/a	-999	-999	n/a	n/a	n/a	n/a	2	[0, 0, 0]	-999	PAL1	5	R1365N
284.15	0.279	284475	ORIENT_START	n/a	-999	-999	n/a	n/a	n/a	n/a	2	[0, 0, 0]	-999	PAL1	5	R1365N
284.429	0.618	284754	ORIENT_END	n/a	-999	-999	n/a	n/a	n/a	n/a	2	[0, 0, 0]	-999	PAL1	5	R1365N
285.047	0.001	285372	REC_START	n/a	1	1	SKY	ROOM	SKY	ROOM	2	[0, 0, 0]	-999	PAL1	5	R1365N
285.048	2.009	285373	PROBE_START	n/a	1	1	SKY	ROOM	SKY	ROOM	2	[0, 0, 0]	-999	PAL1	5	R1365N
287.057	2.024	287382	REC_EVENT	2009	1	1	SKY	ROOM	SKY	ROOM	2	[0, 0, 0]	-999	PAL1	5	R1365N
289.081	1.001	289406	PROBE_END	n/a	1	1	SKY	n/a	SKY	ROOM	2	[0, 0, 0]	-999	PAL1	5	R1365N
290.082	0.012	290406	REC_END	n/a	1	1	SKY	n/a	SKY	ROOM	2	[0, 0, 0]	-999	PAL1	5	R1365N
290.094	0.27	290418	ORIENT_START	n/a	-999	-999	n/a	n/a	n/a	n/a	2	[0, 0, 0]	-999	PAL1	5	R1365N
290.364	0.54	290688	ORIENT_END	n/a	-999	-999	n/a	n/a	n/a	n/a	2	[0, 0, 0]	-999	PAL1	5	R1365N
290.904	0.001	291228	REC_START	n/a	2	2	CLAY	PASTE	CLAY	PASTE	2	[0, 0, 0]	-999	PAL1	5	R1365N
290.905	2.151	291229	PROBE_START	n/a	2	2	CLAY	PASTE	CLAY	PASTE	2	[0, 0, 0]	-999	PAL1	5	R1365N
293.056	0.102	293380	REC_EVENT	2151	2	2	CLAY	PASTE	CLAY	PASTE	2	[0, 0, 0]	-999	PAL1	5	R1365N
293.158	1.774	293482	REC_EVENT	2253	2	2	CLAY	PASTE	CLAY	PASTE	2	[0, 0, 0]	-999	PAL1	5	R1365N
294.932	1.0	295256	PROBE_END	n/a	2	2	CLAY	n/a	CLAY	PASTE	2	[0, 0, 0]	-999	PAL1	5	R1365N
295.932	0.012	296256	REC_END	n/a	2	2	CLAY	n/a	CLAY	PASTE	2	[0, 0, 0]	-999	PAL1	5	R1365N
295.944	0.271	296268	ORIENT_START	n/a	-999	-999	n/a	n/a	n/a	n/a	2	[0, 0, 0]	-999	PAL1	5	R1365N
296.215	0.543	296539	ORIENT_END	n/a	-999	-999	n/a	n/a	n/a	n/a	2	[0, 0, 0]	-999	PAL1	5	R1365N
296.758	0.0	297082	REC_START	n/a	5	3	VAN	FLAME	VAN	FLAME	2	[0, 0, 0]	-999	PAL1	5	R1365N
296.758	1.846	297082	PROBE_START	n/a	5	3	VAN	FLAME	VAN	FLAME	2	[0, 0, 0]	-999	PAL1	5	R1365N
298.604	2.179	298928	REC_EVENT	1846	5	3	VAN	FLAME	VAN	FLAME	2	[0, 0, 0]	-999	PAL1	5	R1365N
300.783	1.0	301107	PROBE_END	n/a	5	3	VAN	n/a	VAN	FLAME	2	[0, 0, 0]	-999	PAL1	5	R1365N
301.783	0.011	302107	REC_END	n/a	5	3	VAN	n/a	VAN	FLAME	2	[0, 0, 0]	-999	PAL1	5	R1365N
301.794	0.272	302118	ORIENT_START	n/a	-999	-999	n/a	n/a	n/a	n/a	2	[0, 0, 0]	-999	PAL1	5	R1365N
302.066	0.692	302390	ORIENT_END	n/a	-999	-999	n/a	n/a	n/a	n/a	2	[0, 0, 0]	-999	PAL1	5	R1365N
302.758	0.001	303082	REC_START	n/a	6	4	GLOVE	WEED	WEED	GLOVE	2	[0, 0, 0]	-999	PAL1	5	R1365N
302.759	2.996	303083	PROBE_START	n/a	6	4	GLOVE	WEED	WEED	GLOVE	2	[0, 0, 0]	-999	PAL1	5	R1365N
305.755	1.029	306079	REC_EVENT	2996	6	4	GLOVE	WEED	WEED	GLOVE	2	[0, 0, 0]	-999	PAL1	5	R1365N
306.784	1.001	307108	PROBE_END	n/a	6	4	GLOVE	n/a	WEED	GLOVE	2	[0, 0, 0]	-999	PAL1	5	R1365N
307.785	0.012	308109	REC_END	n/a	6	4	GLOVE	n/a	WEED	GLOVE	2	[0, 0, 0]	-999	PAL1	5	R1365N
307.797	0.27	308121	ORIENT_START	n/a	-999	-999	n/a	n/a	n/a	n/a	2	[0, 0, 0]	-999	PAL1	5	R1365N
308.067	0.646	308391	ORIENT_END	n/a	-999	-999	n/a	n/a	n/a	n/a	2	[0, 0, 0]	-999	PAL1	5	R1365N
308.713	0.0	309037	REC_START	n/a	3	5	STONE	BRICK	BEAN	STONE	2	[0, 0, 0]	-999	PAL1	5	R1365N
308.713	2.503	309037	PROBE_START	n/a	3	5	STONE	BRICK	BEAN	STONE	2	[0, 0, 0]	-999	PAL1	5	R1365N
311.216	1.536	311540	REC_EVENT	2503	3	5	STONE	BRICK	BEAN	STONE	2	[0, 0, 0]	-999	PAL1	5	R1365N
312.752	0.999	313076	PROBE_END	n/a	3	5	STONE	n/a	BEAN	STONE	2	[0, 0, 0]	-999	PAL1	5	R1365N
313.751	0.012	314075	REC_END	n/a	3	5	STONE	n/a	BEAN	STONE	2	[0, 0, 0]	-999	PAL1	5	R1365N
313.763	0.272	314087	ORIENT_START	n/a	-999	-999	n/a	n/a	n/a	n/a	2	[0, 0, 0]	-999	PAL1	5	R1365N
314.035	0.529	314359	ORIENT_END	n/a	-999	-999	n/a	n/a	n/a	n/a	2	[0, 0, 0]	-999	PAL1	5	R1365N
314.564	0.0	314888	REC_START	n/a	4	6	BRICK	HOOK	HOOK	BRICK	2	[0, 0, 0]	-999	PAL1	5	R1365N
314.564	2.194	314888	PROBE_START	n/a	4	6	BRICK	HOOK	HOOK	BRICK	2	[0, 0, 0]	-999	PAL1	5	R1365N
316.758	1.843	317082	REC_EVENT	2194	4	6	BRICK	HOOK	HOOK	BRICK	2	[0, 0, 0]	-999	PAL1	5	R1365N
318.601	1.0	318925	PROBE_END	n/a	4	6	BRICK	n/a	HOOK	BRICK	2	[0, 0, 0]	-999	PAL1	5	R1365N
319.601	0.012	319925	REC_END	n/a	4	6	BRICK	n/a	HOOK	BRICK	2	[0, 0, 0]	-999	PAL1	5	R1365N
319.613	0.0	319937	TRIAL_END	n/a	-999	-999	n/a	n/a	n/a	n/a	2	[0, 0, 0]	-999	PAL1	5	R1365N
319.613	0.023	319937	RETRIEVAL_END	n/a	-999	-999	n/a	n/a	n/a	n/a	2	[0, 0, 0]	-999	PAL1	5	R1365N
319.636	0.0	319960	TRIAL_START	n/a	-999	-999	n/a	n/a	n/a	n/a	2	[0, 0, 0]	-999	PAL1	5	R1365N
319.636	0.001	319960	TRIAL	n/a	-999	-999	n/a	n/a	n/a	n/a	3	[0, 0, 0]	-999	PAL1	5	R1365N
319.637	0.681	319961	WAITING_START	n/a	-999	-999	n/a	n/a	n/a	n/a	3	[0, 0, 0]	-999	PAL1	5	R1365N
320.318	0.001	320642	WAITING_END	n/a	-999	-999	n/a	n/a	n/a	n/a	3	[0, 0, 0]	-999	PAL1	5	R1365N
320.319	10.429	320643	COUNTDOWN_START	n/a	-999	-999	n/a	n/a	n/a	n/a	3	[0, 0, 0]	-999	PAL1	5	R1365N
330.748	0.0	331071	COUNTDOWN_END	n/a	-999	-999	n/a	n/a	n/a	n/a	3	[0, 0, 0]	-999	PAL1	5	R1365N
330.748	0.756	331071	ORIENT_START	n/a	-999	-999	n/a	n/a	n/a	n/a	3	[0, 0, 0]	-999	PAL1	5	R1365N
331.504	0.0	331827	ORIENT_END	n/a	-999	-999	n/a	n/a	n/a	n/a	3	[0, 0, 0]	-999	PAL1	5	R1365N
331.504	1.239	331827	ENCODING_START	n/a	-999	-999	n/a	n/a	n/a	n/a	3	[0, 0, 0]	-999	PAL1	5	R1365N
332.743	4.029	333066	STUDY_PAIR	n/a	1	3	n/a	PIT	PIT	BOOT	3	[0, 0, 0]	-999	PAL1	5	R1365N
336.772	0.626	337095	STUDY_PAIR_OFF	n/a	1	3	n/a	PIT	PIT	BOOT	3	[0, 0, 0]	-999	PAL1	5	R1365N
337.398	4.024	337721	STUDY_PAIR	n/a	2	4	n/a	PEN	MULE	PEN	3	[0, 0, 0]	-999	PAL1	5	R1365N
341.422	0.532	341745	STUDY_PAIR_OFF	n/a	2	4	n/a	PEN	MULE	PEN	3	[0, 0, 0]	-999	PAL1	5	R1365N
341.954	4.036	342277	STUDY_PAIR	n/a	3	5	n/a	BOARD	BOARD	BLUSH	3	[0, 0, 0]	-999	PAL1	5	R1365N
345.99	0.745	346313	STUDY_PAIR_OFF	n/a	3	5	n/a	BOARD	BOARD	BLUSH	3	[0, 0, 0]	-999	PAL1	5	R1365N
346.735	4.023	347058	STUDY_PAIR	n/a	4	6	n/a	TRAY	TRAY	APE	3	[0, 0, 0]	-999	PAL1	5	R1365N
350.758	0.574	351081	STUDY_PAIR_OFF	n/a	4	6	n/a	TRAY	TRAY	APE	3	[0, 0, 0]	-999	PAL1	5	R1365N
351.332	4.026	351655	STUDY_PAIR	n/a	5	1	n/a	SALT	DUCK	SALT	3	[0, 0, 0]	-999	PAL1	5	R1365N
355.358	0.505	355681	STUDY_PAIR_OFF	n/a	5	1	n/a	SALT	DUCK	SALT	3	[0, 0, 0]	-999	PAL1	5	R1365N
355.863	4.03	356186	STUDY_PAIR	n/a	6	2	n/a	SPONGE	NEST	SPONGE	3	[0, 0, 0]	-999	PAL1	5	R1365N
359.893	0.0	360215	STUDY_PAIR_OFF	n/a	6	2	n/a	SPONGE	NEST	SPONGE	3	[0, 0, 0]	-999	PAL1	5	R1365N
359.893	0.0	360215	ENCODING_END	n/a	-999	-999	n/a	n/a	n/a	n/a	3	[0, 0, 0]	-999	PAL1	5	R1365N
359.893	0.001	360215	MATH_START	n/a	-999	-999	n/a	n/a	n/a	n/a	3	[0, 0, 0]	-999	PAL1	5	R1365N
359.894	0.015	360216	START	n/a	-999	-999	n/a	n/a	n/a	n/a	3	[-999, -999, -999]	-999	PAL1	5	R1365N
359.909	4.234	360231	PROB	4209	-999	-999	n/a	n/a	n/a	n/a	3	[5, 3, 8]	16	PAL1	5	R1365N
364.143	8.501	364465	PROB	8470	-999	-999	n/a	n/a	n/a	n/a	3	[1, 3, 8]	12	PAL1	5	R1365N
372.644	4.717	372966	PROB	4680	-999	-999	n/a	n/a	n/a	n/a	3	[4, 2, 5]	11	PAL1	5	R1365N
377.361	4.597	377683	PROB	4597	-999	-999	n/a	n/a	n/a	n/a	3	[7, 5, 1]	13	PAL1	5	R1365N
381.958	0.022	382280	STOP	n/a	-999	-999	n/a	n/a	n/a	n/a	3	[-999, -999, -999]	-999	PAL1	5	R1365N
381.98	0.671	382302	MATH_END	n/a	-999	-999	n/a	n/a	n/a	n/a	3	[0, 0, 0]	-999	PAL1	5	R1365N
382.651	0.001	382973	RETRIEVAL_START	n/a	-999	-999	n/a	n/a	n/a	n/a	3	[0, 0, 0]	-999	PAL1	5	R1365N
382.652	0.278	382974	ORIENT_START	n/a	-999	-999	n/a	n/a	n/a	n/a	3	[0, 0, 0]	-999	PAL1	5	R1365N
382.93	0.59	383252	ORIENT_END	n/a	-999	-999	n/a	n/a	n/a	n/a	3	[0, 0, 0]	-999	PAL1	5	R1365N
383.52	0.0	383842	PROBE_START	n/a	5	1	DUCK	SALT	DUCK	SALT	3	[0, 0, 0]	-999	PAL1	5	R1365N
383.52	1.993	383842	REC_START	n/a	5	1	DUCK	SALT	DUCK	SALT	3	[0, 0, 0]	-999	PAL1	5	R1365N
385.513	2.033	385835	REC_EVENT	1993	5	1	DUCK	SALT	DUCK	SALT	3	[0, 0, 0]	-999	PAL1	5	R1365N
387.546	1.0	387868	PROBE_END	n/a	5	1	DUCK	n/a	DUCK	SALT	3	[0, 0, 0]	-999	PAL1	5	R1365N
388.546	0.013	388868	REC_END	n/a	5	1	DUCK	n/a	DUCK	SALT	3	[0, 0, 0]	-999	PAL1	5	R1365N
388.559	0.272	388881	ORIENT_START	n/a	-999	-999	n/a	n/a	n/a	n/a	3	[0, 0, 0]	-999	PAL1	5	R1365N
388.831	0.744	389153	ORIENT_END	n/a	-999	-999	n/a	n/a	n/a	n/a	3	[0, 0, 0]	-999	PAL1	5	R1365N
389.575	0.0	389897	REC_START	n/a	6	2	NEST	SPONGE	NEST	SPONGE	3	[0, 0, 0]	-999	PAL1	5	R1365N
389.575	1.89	389897	PROBE_START	n/a	6	2	NEST	SPONGE	NEST	SPONGE	3	[0, 0, 0]	-999	PAL1	5	R1365N
391.465	2.132	391787	REC_EVENT	1890	6	2	NEST	SPONGE	NEST	SPONGE	3	[0, 0, 0]	-999	PAL1	5	R1365N
393.597	1.0	393918	PROBE_END	n/a	6	2	NEST	n/a	NEST	SPONGE	3	[0, 0, 0]	-999	PAL1	5	R1365N
394.597	0.007	394918	REC_END	n/a	6	2	NEST	n/a	NEST	SPONGE	3	[0, 0, 0]	-999	PAL1	5	R1365N
394.604	0.278	394925	ORIENT_START	n/a	-999	-999	n/a	n/a	n/a	n/a	3	[0, 0, 0]	-999	PAL1	5	R1365N
394.882	0.595	395203	ORIENT_END	n/a	-999	-999	n/a	n/a	n/a	n/a	3	[0, 0, 0]	-999	PAL1	5	R1365N
395.477	0.001	395798	REC_START	n/a	1	3	BOOT	PIT	PIT	BOOT	3	[0, 0, 0]	-999	PAL1	5	R1365N
395.478	2.316	395799	PROBE_START	n/a	1	3	BOOT	PIT	PIT	BOOT	3	[0, 0, 0]	-999	PAL1	5	R1365N
397.794	1.721	398115	REC_EVENT	2316	1	3	BOOT	PIT	PIT	BOOT	3	[0, 0, 0]	-999	PAL1	5	R1365N
399.515	1.0	399836	PROBE_END	n/a	1	3	BOOT	n/a	PIT	BOOT	3	[0, 0, 0]	-999	PAL1	5	R1365N
400.515	0.014	400836	REC_END	n/a	1	3	BOOT	n/a	PIT	BOOT	3	[0, 0, 0]	-999	PAL1	5	R1365N
400.529	0.254	400850	ORIENT_START	n/a	-999	-999	n/a	n/a	n/a	n/a	3	[0, 0, 0]	-999	PAL1	5	R1365N
400.783	0.711	401104	ORIENT_END	n/a	-999	-999	n/a	n/a	n/a	n/a	3	[0, 0, 0]	-999	PAL1	5	R1365N
401.494	0.001	401815	REC_START	n/a	2	4	MULE	PEN	MULE	PEN	3	[0, 0, 0]	-999	PAL1	5	R1365N
401.495	2.177	401816	PROBE_START	n/a	2	4	MULE	PEN	MULE	PEN	3	[0, 0, 0]	-999	PAL1	5	R1365N
403.672	1.861	403993	REC_EVENT	2177	2	4	MULE	PEN	MULE	PEN	3	[0, 0, 0]	-999	PAL1	5	R1365N
405.533	0.999	405854	PROBE_END	n/a	2	4	MULE	n/a	MULE	PEN	3	[0, 0, 0]	-999	PAL1	5	R1365N
406.532	0.014	406853	REC_END	n/a	2	4	MULE	n/a	MULE	PEN	3	[0, 0, 0]	-999	PAL1	5	R1365N
406.546	0.254	406867	ORIENT_START	n/a	-999	-999	n/a	n/a	n/a	n/a	3	[0, 0, 0]	-999	PAL1	5	R1365N
406.8	0.727	407121	ORIENT_END	n/a	-999	-999	n/a	n/a	n/a	n/a	3	[0, 0, 0]	-999	PAL1	5	R1365N
407.527	0.0	407848	REC_START	n/a	3	5	BLUSH	BOARD	BOARD	BLUSH	3	[0, 0, 0]	-999	PAL1	5	R1365N
407.527	2.101	407848	PROBE_START	n/a	3	5	BLUSH	BOARD	BOARD	BLUSH	3	[0, 0, 0]	-999	PAL1	5	R1365N
409.628	1.922	409949	REC_EVENT	2101	3	5	BLUSH	BOARD	BOARD	BLUSH	3	[0, 0, 0]	-999	PAL1	5	R1365N
411.55	1.0	411871	PROBE_END	n/a	3	5	BLUSH	n/a	BOARD	BLUSH	3	[0, 0, 0]	-999	PAL1	5	R1365N
412.55	0.012	412871	REC_END	n/a	3	5	BLUSH	n/a	BOARD	BLUSH	3	[0, 0, 0]	-999	PAL1	5	R1365N
412.562	0.273	412883	ORIENT_START	n/a	-999	-999	n/a	n/a	n/a	n/a	3	[0, 0, 0]	-999	PAL1	5	R1365N
412.835	0.597	413156	ORIENT_END	n/a	-999	-999	n/a	n/a	n/a	n/a	3	[0, 0, 0]	-999	PAL1	5	R1365N
413.432	0.0	413753	REC_START	n/a	4	6	APE	TRAY	TRAY	APE	3	[0, 0, 0]	-999	PAL1	5	R1365N
413.432	1.986	413753	PROBE_START	n/a	4	6	APE	TRAY	TRAY	APE	3	[0, 0, 0]	-999	PAL1	5	R1365N
415.418	2.05	415739	REC_EVENT	1986	4	6	APE	TRAY	TRAY	APE	3	[0, 0, 0]	-999	PAL1	5	R1365N
417.468	1.0	417789	PROBE_END	n/a	4	6	APE	n/a	TRAY	APE	3	[0, 0, 0]	-999	PAL1	5	R1365N
418.468	0.013	418789	REC_END	n/a	4	6	APE	n/a	TRAY	APE	3	[0, 0, 0]	-999	PAL1	5	R1365N
418.481	0.0	418802	RETRIEVAL_END	n/a	-999	-999	n/a	n/a	n/a	n/a	3	[0, 0, 0]	-999	PAL1	5	R1365N
418.481	0.021	418802	TRIAL_END	n/a	-999	-999	n/a	n/a	n/a	n/a	3	[0, 0, 0]	-999	PAL1	5	R1365N
418.502	0.0	418823	TRIAL_START	n/a	-999	-999	n/a	n/a	n/a	n/a	3	[0, 0, 0]	-999	PAL1	5	R1365N
418.502	0.0	418823	TRIAL	n/a	-999	-999	n/a	n/a	n/a	n/a	4	[0, 0, 0]	-999	PAL1	5	R1365N
418.502	1.066	418823	WAITING_START	n/a	-999	-999	n/a	n/a	n/a	n/a	4	[0, 0, 0]	-999	PAL1	5	R1365N
419.568	0.001	419889	WAITING_END	n/a	-999	-999	n/a	n/a	n/a	n/a	4	[0, 0, 0]	-999	PAL1	5	R1365N
419.569	10.428	419890	COUNTDOWN_START	n/a	-999	-999	n/a	n/a	n/a	n/a	4	[0, 0, 0]	-999	PAL1	5	R1365N
429.997	0.0	430317	ORIENT_START	n/a	-999	-999	n/a	n/a	n/a	n/a	4	[0, 0, 0]	-999	PAL1	5	R1365N
429.997	0.606	430317	COUNTDOWN_END	n/a	-999	-999	n/a	n/a	n/a	n/a	4	[0, 0, 0]	-999	PAL1	5	R1365N
430.603	0.001	430923	ORIENT_END	n/a	-999	-999	n/a	n/a	n/a	n/a	4	[0, 0, 0]	-999	PAL1	5	R1365N
430.604	1.178	430924	ENCODING_START	n/a	-999	-999	n/a	n/a	n/a	n/a	4	[0, 0, 0]	-999	PAL1	5	R1365N
431.782	4.04	432102	STUDY_PAIR	n/a	1	3	n/a	HAWK	HAWK	SWORD	4	[0, 0, 0]	-999	PAL1	5	R1365N
435.822	0.629	436142	STUDY_PAIR_OFF	n/a	1	3	n/a	HAWK	HAWK	SWORD	4	[0, 0, 0]	-999	PAL1	5	R1365N
436.451	4.037	436771	STUDY_PAIR	n/a	2	2	n/a	COW	COW	HORN	4	[0, 0, 0]	-999	PAL1	5	R1365N
440.488	0.547	440808	STUDY_PAIR_OFF	n/a	2	2	n/a	COW	COW	HORN	4	[0, 0, 0]	-999	PAL1	5	R1365N
441.035	4.038	441355	STUDY_PAIR	n/a	3	1	n/a	n/a	BARN	STOOL	4	[0, 0, 0]	-999	PAL1	5	R1365N
445.073	0.738	445393	STUDY_PAIR_OFF	n/a	3	1	n/a	n/a	BARN	STOOL	4	[0, 0, 0]	-999	PAL1	5	R1365N
445.811	4.03	446131	STUDY_PAIR	n/a	4	6	n/a	SLIME	BANK	SLIME	4	[0, 0, 0]	-999	PAL1	5	R1365N
449.841	0.657	450161	STUDY_PAIR_OFF	n/a	4	6	n/a	SLIME	BANK	SLIME	4	[0, 0, 0]	-999	PAL1	5	R1365N
450.498	4.026	450818	STUDY_PAIR	n/a	5	5	n/a	n/a	CORD	PURSE	4	[0, 0, 0]	-999	PAL1	5	R1365N
454.524	0.685	454844	STUDY_PAIR_OFF	n/a	5	5	n/a	n/a	CORD	PURSE	4	[0, 0, 0]	-999	PAL1	5	R1365N
455.209	4.032	455529	STUDY_PAIR	n/a	6	4	n/a	DITCH	ELF	DITCH	4	[0, 0, 0]	-999	PAL1	5	R1365N
459.241	0.001	459561	STUDY_PAIR_OFF	n/a	6	4	n/a	DITCH	ELF	DITCH	4	[0, 0, 0]	-999	PAL1	5	R1365N
459.242	0.0	459562	MATH_START	n/a	-999	-999	n/a	n/a	n/a	n/a	4	[0, 0, 0]	-999	PAL1	5	R1365N
459.242	0.0	459562	ENCODING_END	n/a	-999	-999	n/a	n/a	n/a	n/a	4	[0, 0, 0]	-999	PAL1	5	R1365N
459.242	0.016	459562	START	n/a	-999	-999	n/a	n/a	n/a	n/a	4	[-999, -999, -999]	-999	PAL1	5	R1365N
459.258	18.42	459578	PROB	18394	-999	-999	n/a	n/a	n/a	n/a	4	[9, 7, 9]	25	PAL1	5	R1365N
477.678	3.031	477997	PROB	3031	-999	-999	n/a	n/a	n/a	n/a	4	[7, 3, 4]	14	PAL1	5	R1365N
480.709	0.02	481028	STOP	n/a	-999	-999	n/a	n/a	n/a	n/a	4	[-999, -999, -999]	-999	PAL1	5	R1365N
480.729	0.698	481048	MATH_END	n/a	-999	-999	n/a	n/a	n/a	n/a	4	[0, 0, 0]	-999	PAL1	5	R1365N
481.427	0.001	481746	RETRIEVAL_START	n/a	-999	-999	n/a	n/a	n/a	n/a	4	[0, 0, 0]	-999	PAL1	5	R1365N
481.428	0.284	481747	ORIENT_START	n/a	-999	-999	n/a	n/a	n/a	n/a	4	[0, 0, 0]	-999	PAL1	5	R1365N
481.712	0.71	482031	ORIENT_END	n/a	-999	-999	n/a	n/a	n/a	n/a	4	[0, 0, 0]	-999	PAL1	5	R1365N
482.422	0.0	482741	REC_START	n/a	3	1	STOOL	n/a	BARN	STOOL	4	[0, 0, 0]	-999	PAL1	5	R1365N
482.422	4.024	482741	PROBE_START	n/a	3	1	STOOL	n/a	BARN	STOOL	4	[0, 0, 0]	-999	PAL1	5	R1365N
486.446	1.001	486765	PROBE_END	n/a	3	1	STOOL	n/a	BARN	STOOL	4	[0, 0, 0]	-999	PAL1	5	R1365N
487.447	0.012	487766	REC_END	n/a	3	1	STOOL	n/a	BARN	STOOL	4	[0, 0, 0]	-999	PAL1	5	R1365N
487.459	0.271	487778	ORIENT_START	n/a	-999	-999	n/a	n/a	n/a	n/a	4	[0, 0, 0]	-999	PAL1	5	R1365N
487.73	0.592	488049	ORIENT_END	n/a	-999	-999	n/a	n/a	n/a	n/a	4	[0, 0, 0]	-999	PAL1	5	R1365N
488.322	0.0	488641	REC_START	n/a	2	2	HORN	COW	COW	HORN	4	[0, 0, 0]	-999	PAL1	5	R1365N
488.322	0.119	488641	PROBE_START	n/a	2	2	HORN	COW	COW	HORN	4	[0, 0, 0]	-999	PAL1	5	R1365N
488.441	2.479	488760	REC_EVENT	6019	3	1	STOOL	<>	BARN	STOOL	4	[0, 0, 0]	-999	PAL1	5	R1365N
490.92	1.427	491239	REC_EVENT	2598	2	2	HORN	COW	COW	HORN	4	[0, 0, 0]	-999	PAL1	5	R1365N
492.347	1.001	492666	PROBE_END	n/a	2	2	HORN	n/a	COW	HORN	4	[0, 0, 0]	-999	PAL1	5	R1365N
493.348	0.013	493667	REC_END	n/a	2	2	HORN	n/a	COW	HORN	4	[0, 0, 0]	-999	PAL1	5	R1365N
493.361	0.286	493680	ORIENT_START	n/a	-999	-999	n/a	n/a	n/a	n/a	4	[0, 0, 0]	-999	PAL1	5	R1365N
493.647	0.562	493966	ORIENT_END	n/a	-999	-999	n/a	n/a	n/a	n/a	4	[0, 0, 0]	-999	PAL1	5	R1365N
494.209	0.0	494527	REC_START	n/a	1	3	SWORD	HAWK	HAWK	SWORD	4	[0, 0, 0]	-999	PAL1	5	R1365N
494.209	2.254	494527	PROBE_START	n/a	1	3	SWORD	HAWK	HAWK	SWORD	4	[0, 0, 0]	-999	PAL1	5	R1365N
496.463	1.785	496781	REC_EVENT	2254	1	3	SWORD	HAWK	HAWK	SWORD	4	[0, 0, 0]	-999	PAL1	5	R1365N
498.248	1.0	498566	PROBE_END	n/a	1	3	SWORD	n/a	HAWK	SWORD	4	[0, 0, 0]	-999	PAL1	5	R1365N
499.248	0.012	499566	REC_END	n/a	1	3	SWORD	n/a	HAWK	SWORD	4	[0, 0, 0]	-999	PAL1	5	R1365N
499.26	0.271	499578	ORIENT_START	n/a	-999	-999	n/a	n/a	n/a	n/a	4	[0, 0, 0]	-999	PAL1	5	R1365N
499.531	0.751	499849	ORIENT_END	n/a	-999	-999	n/a	n/a	n/a	n/a	4	[0, 0, 0]	-999	PAL1	5	R1365N
500.282	0.0	500600	REC_START	n/a	6	4	ELF	DITCH	ELF	DITCH	4	[0, 0, 0]	-999	PAL1	5	R1365N
500.282	2.018	500600	PROBE_START	n/a	6	4	ELF	DITCH	ELF	DITCH	4	[0, 0, 0]	-999	PAL1	5	R1365N
502.3	2.016	502618	REC_EVENT	2018	6	4	ELF	DITCH	ELF	DITCH	4	[0, 0, 0]	-999	PAL1	5	R1365N
504.316	0.999	504634	PROBE_END	n/a	6	4	ELF	n/a	ELF	DITCH	4	[0, 0, 0]	-999	PAL1	5	R1365N
505.315	0.007	505633	REC_END	n/a	6	4	ELF	n/a	ELF	DITCH	4	[0, 0, 0]	-999	PAL1	5	R1365N
505.322	0.277	505640	ORIENT_START	n/a	-999	-999	n/a	n/a	n/a	n/a	4	[0, 0, 0]	-999	PAL1	5	R1365N
505.599	0.625	505917	ORIENT_END	n/a	-999	-999	n/a	n/a	n/a	n/a	4	[0, 0, 0]	-999	PAL1	5	R1365N
506.224	0.0	506542	REC_START	n/a	5	5	CORD	n/a	CORD	PURSE	4	[0, 0, 0]	-999	PAL1	5	R1365N
506.224	4.026	506542	PROBE_START	n/a	5	5	CORD	n/a	CORD	PURSE	4	[0, 0, 0]	-999	PAL1	5	R1365N
510.25	1.0	510568	PROBE_END	n/a	5	5	CORD	n/a	CORD	PURSE	4	[0, 0, 0]	-999	PAL1	5	R1365N
511.25	0.013	511568	REC_END	n/a	5	5	CORD	n/a	CORD	PURSE	4	[0, 0, 0]	-999	PAL1	5	R1365N
511.263	0.27	511581	ORIENT_START	n/a	-999	-999	n/a	n/a	n/a	n/a	4	[0, 0, 0]	-999	PAL1	5	R1365N
511.533	0.617	511851	ORIENT_END	n/a	-999	-999	n/a	n/a	n/a	n/a	4	[0, 0, 0]	-999	PAL1	5	R1365N
512.15	0.047	512468	REC_EVENT	5926	5	5	CORD	<>	CORD	PURSE	4	[0, 0, 0]	-999	PAL1	5	R1365N
512.197	0.0	512515	REC_START	n/a	4	6	BANK	SLIME	BANK	SLIME	4	[0, 0, 0]	-999	PAL1	5	R1365N
512.197	1.938	512515	PROBE_START	n/a	4	6	BANK	SLIME	BANK	SLIME	4	[0, 0, 0]	-999	PAL1	5	R1365N
514.135	2.099	514453	REC_EVENT	1938	4	6	BANK	SLIME	BANK	SLIME	4	[0, 0, 0]	-999	PAL1	5	R1365N
516.234	1.0	516552	PROBE_END	n/a	4	6	BANK	n/a	BANK	SLIME	4	[0, 0, 0]	-999	PAL1	5	R1365N
517.234	0.013	517552	REC_END	n/a	4	6	BANK	n/a	BANK	SLIME	4	[0, 0, 0]	-999	PAL1	5	R1365N
517.247	0.0	517565	TRIAL_END	n/a	-999	-999	n/a	n/a	n/a	n/a	4	[0, 0, 0]	-999	PAL1	5	R1365N
517.247	0.022	517565	RETRIEVAL_END	n/a	-999	-999	n/a	n/a	n/a	n/a	4	[0, 0, 0]	-999	PAL1	5	R1365N
517.269	0.0	517587	TRIAL_START	n/a	-999	-999	n/a	n/a	n/a	n/a	4	[0, 0, 0]	-999	PAL1	5	R1365N
517.269	0.0	517587	TRIAL	n/a	-999	-999	n/a	n/a	n/a	n/a	5	[0, 0, 0]	-999	PAL1	5	R1365N
517.269	1.116	517587	WAITING_START	n/a	-999	-999	n/a	n/a	n/a	n/a	5	[0, 0, 0]	-999	PAL1	5	R1365N
518.385	0.0	518703	WAITING_END	n/a	-999	-999	n/a	n/a	n/a	n/a	5	[0, 0, 0]	-999	PAL1	5	R1365N
518.385	10.429	518703	COUNTDOWN_START	n/a	-999	-999	n/a	n/a	n/a	n/a	5	[0, 0, 0]	-999	PAL1	5	R1365N
528.814	0.0	529131	COUNTDOWN_END	n/a	-999	-999	n/a	n/a	n/a	n/a	5	[0, 0, 0]	-999	PAL1	5	R1365N
528.814	0.723	529131	ORIENT_START	n/a	-999	-999	n/a	n/a	n/a	n/a	5	[0, 0, 0]	-999	PAL1	5	R1365N
529.537	0.0	529854	ORIENT_END	n/a	-999	-999	n/a	n/a	n/a	n/a	5	[0, 0, 0]	-999	PAL1	5	R1365N
529.537	1.177	529854	ENCODING_START	n/a	-999	-999	n/a	n/a	n/a	n/a	5	[0, 0, 0]	-999	PAL1	5	R1365N
530.714	4.041	531031	STUDY_PAIR	n/a	1	3	n/a	BOWL	BOWL	BOOK	5	[0, 0, 0]	-999	PAL1	5	R1365N
534.755	0.667	535072	STUDY_PAIR_OFF	n/a	1	3	n/a	BOWL	BOWL	BOOK	5	[0, 0, 0]	-999	PAL1	5	R1365N
535.422	4.033	535739	STUDY_PAIR	n/a	2	4	n/a	LEG	CROW	LEG	5	[0, 0, 0]	-999	PAL1	5	R1365N
539.455	0.72	539772	STUDY_PAIR_OFF	n/a	2	4	n/a	LEG	CROW	LEG	5	[0, 0, 0]	-999	PAL1	5	R1365N
540.175	4.03	540492	STUDY_PAIR	n/a	3	1	n/a	HAND	HAND	EAR	5	[0, 0, 0]	-999	PAL1	5	R1365N
544.205	0.713	544522	STUDY_PAIR_OFF	n/a	3	1	n/a	HAND	HAND	EAR	5	[0, 0, 0]	-999	PAL1	5	R1365N
544.918	4.039	545235	STUDY_PAIR	n/a	4	6	n/a	TEA	TEA	FLUTE	5	[0, 0, 0]	-999	PAL1	5	R1365N
548.957	0.683	549274	STUDY_PAIR_OFF	n/a	4	6	n/a	TEA	TEA	FLUTE	5	[0, 0, 0]	-999	PAL1	5	R1365N
549.64	4.034	549957	STUDY_PAIR	n/a	5	5	n/a	HEART	JET	HEART	5	[0, 0, 0]	-999	PAL1	5	R1365N
553.674	0.734	553991	STUDY_PAIR_OFF	n/a	5	5	n/a	HEART	JET	HEART	5	[0, 0, 0]	-999	PAL1	5	R1365N
554.408	4.033	554725	STUDY_PAIR	n/a	6	2	n/a	DUCK	CLIFF	DOCK	5	[0, 0, 0]	-999	PAL1	5	R1365N
558.441	0.001	558758	STUDY_PAIR_OFF	n/a	6	2	n/a	DUCK	CLIFF	DOCK	5	[0, 0, 0]	-999	PAL1	5	R1365N
558.442	0.0	558759	ENCODING_END	n/a	-999	-999	n/a	n/a	n/a	n/a	5	[0, 0, 0]	-999	PAL1	5	R1365N
558.442	0.0	558759	MATH_START	n/a	-999	-999	n/a	n/a	n/a	n/a	5	[0, 0, 0]	-999	PAL1	5	R1365N
558.442	0.016	558759	START	n/a	-999	-999	n/a	n/a	n/a	n/a	5	[-999, -999, -999]	-999	PAL1	5	R1365N
558.458	4.734	558775	PROB	4708	-999	-999	n/a	n/a	n/a	n/a	5	[4, 4, 7]	15	PAL1	5	R1365N
563.192	1.834	563508	PROB	1797	-999	-999	n/a	n/a	n/a	n/a	5	[1, 9, 1]	11	PAL1	5	R1365N
565.026	5.283	565342	PROB	5251	-999	-999	n/a	n/a	n/a	n/a	5	[2, 4, 9]	13	PAL1	5	R1365N
570.309	3.585	570625	PROB	3560	-999	-999	n/a	n/a	n/a	n/a	5	[9, 3, 6]	18	PAL1	5	R1365N
573.894	5.111	574210	PROB	5111	-999	-999	n/a	n/a	n/a	n/a	5	[8, 8, 5]	21	PAL1	5	R1365N
579.005	0.007	579321	STOP	n/a	-999	-999	n/a	n/a	n/a	n/a	5	[-999, -999, -999]	-999	PAL1	5	R1365N
579.012	0.5	579328	MATH_END	n/a	-999	-999	n/a	n/a	n/a	n/a	5	[0, 0, 0]	-999	PAL1	5	R1365N
579.512	0.001	579828	RETRIEVAL_START	n/a	-999	-999	n/a	n/a	n/a	n/a	5	[0, 0, 0]	-999	PAL1	5	R1365N
579.513	0.283	579829	ORIENT_START	n/a	-999	-999	n/a	n/a	n/a	n/a	5	[0, 0, 0]	-999	PAL1	5	R1365N
579.796	0.658	580112	ORIENT_END	n/a	-999	-999	n/a	n/a	n/a	n/a	5	[0, 0, 0]	-999	PAL1	5	R1365N
580.454	0.0	580770	REC_START	n/a	3	1	EAR	HAND	HAND	EAR	5	[0, 0, 0]	-999	PAL1	5	R1365N
580.454	1.966	580770	PROBE_START	n/a	3	1	EAR	HAND	HAND	EAR	5	[0, 0, 0]	-999	PAL1	5	R1365N
582.42	2.059	582736	REC_EVENT	1966	3	1	EAR	HAND	HAND	EAR	5	[0, 0, 0]	-999	PAL1	5	R1365N
584.479	1.0	584795	PROBE_END	n/a	3	1	EAR	n/a	HAND	EAR	5	[0, 0, 0]	-999	PAL1	5	R1365N
585.479	0.013	585795	REC_END	n/a	3	1	EAR	n/a	HAND	EAR	5	[0, 0, 0]	-999	PAL1	5	R1365N
585.492	0.271	585808	ORIENT_START	n/a	-999	-999	n/a	n/a	n/a	n/a	5	[0, 0, 0]	-999	PAL1	5	R1365N
585.763	0.703	586079	ORIENT_END	n/a	-999	-999	n/a	n/a	n/a	n/a	5	[0, 0, 0]	-999	PAL1	5	R1365N
586.466	0.0	586782	REC_START	n/a	6	2	CLIFF	DUCK	CLIFF	DOCK	5	[0, 0, 0]	-999	PAL1	5	R1365N
586.466	2.404	586782	PROBE_START	n/a	6	2	CLIFF	DUCK	CLIFF	DOCK	5	[0, 0, 0]	-999	PAL1	5	R1365N
588.87	1.627	589186	REC_EVENT	2404	6	2	CLIFF	DUCK	CLIFF	DOCK	5	[0, 0, 0]	-999	PAL1	5	R1365N
590.497	1.0	590813	PROBE_END	n/a	6	2	CLIFF	n/a	CLIFF	DOCK	5	[0, 0, 0]	-999	PAL1	5	R1365N
591.497	0.013	591813	REC_END	n/a	6	2	CLIFF	n/a	CLIFF	DOCK	5	[0, 0, 0]	-999	PAL1	5	R1365N
591.51	0.271	591826	ORIENT_START	n/a	-999	-999	n/a	n/a	n/a	n/a	5	[0, 0, 0]	-999	PAL1	5	R1365N
591.781	0.711	592097	ORIENT_END	n/a	-999	-999	n/a	n/a	n/a	n/a	5	[0, 0, 0]	-999	PAL1	5	R1365N
592.492	0.0	592808	REC_START	n/a	1	3	BOOK	BOWL	BOWL	BOOK	5	[0, 0, 0]	-999	PAL1	5	R1365N
592.492	2.081	592808	PROBE_START	n/a	1	3	BOOK	BOWL	BOWL	BOOK	5	[0, 0, 0]	-999	PAL1	5	R1365N
594.573	1.958	594889	REC_EVENT	2081	1	3	BOOK	BOWL	BOWL	BOOK	5	[0, 0, 0]	-999	PAL1	5	R1365N
596.531	1.0	596846	PROBE_END	n/a	1	3	BOOK	n/a	BOWL	BOOK	5	[0, 0, 0]	-999	PAL1	5	R1365N
597.531	0.013	597846	REC_END	n/a	1	3	BOOK	n/a	BOWL	BOOK	5	[0, 0, 0]	-999	PAL1	5	R1365N
597.544	0.271	597859	ORIENT_START	n/a	-999	-999	n/a	n/a	n/a	n/a	5	[0, 0, 0]	-999	PAL1	5	R1365N
597.815	0.515	598130	ORIENT_END	n/a	-999	-999	n/a	n/a	n/a	n/a	5	[0, 0, 0]	-999	PAL1	5	R1365N
598.33	0.0	598645	REC_START	n/a	2	4	CROW	LEG	CROW	LEG	5	[0, 0, 0]	-999	PAL1	5	R1365N
598.33	2.707	598645	PROBE_START	n/a	2	4	CROW	LEG	CROW	LEG	5	[0, 0, 0]	-999	PAL1	5	R1365N
601.037	1.311	601352	REC_EVENT	2707	2	4	CROW	LEG	CROW	LEG	5	[0, 0, 0]	-999	PAL1	5	R1365N
602.348	1.001	602663	PROBE_END	n/a	2	4	CROW	n/a	CROW	LEG	5	[0, 0, 0]	-999	PAL1	5	R1365N
603.349	0.012	603664	REC_END	n/a	2	4	CROW	n/a	CROW	LEG	5	[0, 0, 0]	-999	PAL1	5	R1365N
603.361	0.271	603676	ORIENT_START	n/a	-999	-999	n/a	n/a	n/a	n/a	5	[0, 0, 0]	-999	PAL1	5	R1365N
603.632	0.64	603947	ORIENT_END	n/a	-999	-999	n/a	n/a	n/a	n/a	5	[0, 0, 0]	-999	PAL1	5	R1365N
604.272	0.0	604587	REC_START	n/a	5	5	JET	HEART	JET	HEART	5	[0, 0, 0]	-999	PAL1	5	R1365N
604.272	1.96	604587	PROBE_START	n/a	5	5	JET	HEART	JET	HEART	5	[0, 0, 0]	-999	PAL1	5	R1365N
606.232	2.067	606547	REC_EVENT	1960	5	5	JET	HEART	JET	HEART	5	[0, 0, 0]	-999	PAL1	5	R1365N
608.299	1.0	608614	PROBE_END	n/a	5	5	JET	n/a	JET	HEART	5	[0, 0, 0]	-999	PAL1	5	R1365N
609.299	0.014	609614	REC_END	n/a	5	5	JET	n/a	JET	HEART	5	[0, 0, 0]	-999	PAL1	5	R1365N
609.313	0.27	609628	ORIENT_START	n/a	-999	-999	n/a	n/a	n/a	n/a	5	[0, 0, 0]	-999	PAL1	5	R1365N
609.583	0.608	609898	ORIENT_END	n/a	-999	-999	n/a	n/a	n/a	n/a	5	[0, 0, 0]	-999	PAL1	5	R1365N
610.191	0.0	610506	REC_START	n/a	4	6	FLUTE	TEA	TEA	FLUTE	5	[0, 0, 0]	-999	PAL1	5	R1365N
610.191	1.809	610506	PROBE_START	n/a	4	6	FLUTE	TEA	TEA	FLUTE	5	[0, 0, 0]	-999	PAL1	5	R1365N
612.0	2.217	612315	REC_EVENT	1809	4	6	FLUTE	TEA	TEA	FLUTE	5	[0, 0, 0]	-999	PAL1	5	R1365N
614.217	1.0	614532	PROBE_END	n/a	4	6	FLUTE	n/a	TEA	FLUTE	5	[0, 0, 0]	-999	PAL1	5	R1365N
615.217	0.011	615532	REC_END	n/a	4	6	FLUTE	n/a	TEA	FLUTE	5	[0, 0, 0]	-999	PAL1	5	R1365N
615.228	0.0	615543	RETRIEVAL_END	n/a	-999	-999	n/a	n/a	n/a	n/a	5	[0, 0, 0]	-999	PAL1	5	R1365N
615.228	0.02	615543	TRIAL_END	n/a	-999	-999	n/a	n/a	n/a	n/a	5	[0, 0, 0]	-999	PAL1	5	R1365N
615.248	0.0	615563	TRIAL_START	n/a	-999	-999	n/a	n/a	n/a	n/a	5	[0, 0, 0]	-999	PAL1	5	R1365N
615.248	0.001	615563	TRIAL	n/a	-999	-999	n/a	n/a	n/a	n/a	6	[0, 0, 0]	-999	PAL1	5	R1365N
615.249	1.619	615564	WAITING_START	n/a	-999	-999	n/a	n/a	n/a	n/a	6	[0, 0, 0]	-999	PAL1	5	R1365N
616.868	0.001	617183	WAITING_END	n/a	-999	-999	n/a	n/a	n/a	n/a	6	[0, 0, 0]	-999	PAL1	5	R1365N
616.869	10.428	617184	COUNTDOWN_START	n/a	-999	-999	n/a	n/a	n/a	n/a	6	[0, 0, 0]	-999	PAL1	5	R1365N
627.297	0.001	627612	COUNTDOWN_END	n/a	-999	-999	n/a	n/a	n/a	n/a	6	[0, 0, 0]	-999	PAL1	5	R1365N
627.298	0.722	627613	ORIENT_START	n/a	-999	-999	n/a	n/a	n/a	n/a	6	[0, 0, 0]	-999	PAL1	5	R1365N
628.02	0.001	628335	ORIENT_END	n/a	-999	-999	n/a	n/a	n/a	n/a	6	[0, 0, 0]	-999	PAL1	5	R1365N
628.021	1.121	628336	ENCODING_START	n/a	-999	-999	n/a	n/a	n/a	n/a	6	[0, 0, 0]	-999	PAL1	5	R1365N
629.142	4.028	629457	STUDY_PAIR	n/a	1	1	n/a	TOE	TOE	TRASH	6	[0, 0, 0]	-999	PAL1	5	R1365N
633.17	0.545	633484	STUDY_PAIR_OFF	n/a	1	1	n/a	TOE	TOE	TRASH	6	[0, 0, 0]	-999	PAL1	5	R1365N
633.715	4.04	634029	STUDY_PAIR	n/a	2	6	n/a	POLE	POLE	NOSE	6	[0, 0, 0]	-999	PAL1	5	R1365N
637.755	0.697	638069	STUDY_PAIR_OFF	n/a	2	6	n/a	POLE	POLE	NOSE	6	[0, 0, 0]	-999	PAL1	5	R1365N
638.452	4.036	638766	STUDY_PAIR	n/a	3	3	n/a	n/a	WAVE	STEAK	6	[0, 0, 0]	-999	PAL1	5	R1365N
642.488	0.75	642802	STUDY_PAIR_OFF	n/a	3	3	n/a	n/a	WAVE	STEAK	6	[0, 0, 0]	-999	PAL1	5	R1365N
643.238	4.035	643552	STUDY_PAIR	n/a	4	2	n/a	INK	STAR	INK	6	[0, 0, 0]	-999	PAL1	5	R1365N
647.273	0.62	647587	STUDY_PAIR_OFF	n/a	4	2	n/a	INK	STAR	INK	6	[0, 0, 0]	-999	PAL1	5	R1365N
647.893	4.031	648207	STUDY_PAIR	n/a	5	5	n/a	SLUSH	COUCH	SLUSH	6	[0, 0, 0]	-999	PAL1	5	R1365N
651.924	0.542	652238	STUDY_PAIR_OFF	n/a	5	5	n/a	SLUSH	COUCH	SLUSH	6	[0, 0, 0]	-999	PAL1	5	R1365N
652.466	4.025	652780	STUDY_PAIR	n/a	6	4	n/a	OAR	CHALK	OAR	6	[0, 0, 0]	-999	PAL1	5	R1365N
656.491	0.0	656805	STUDY_PAIR_OFF	n/a	6	4	n/a	OAR	CHALK	OAR	6	[0, 0, 0]	-999	PAL1	5	R1365N
656.491	0.001	656805	ENCODING_END	n/a	-999	-999	n/a	n/a	n/a	n/a	6	[0, 0, 0]	-999	PAL1	5	R1365N
656.492	0.0	656806	MATH_START	n/a	-999	-999	n/a	n/a	n/a	n/a	6	[0, 0, 0]	-999	PAL1	5	R1365N
656.492	0.015	656806	START	n/a	-999	-999	n/a	n/a	n/a	n/a	6	[-999, -999, -999]	-999	PAL1	5	R1365N
656.507	8.885	656821	PROB	8857	-999	-999	n/a	n/a	n/a	n/a	6	[7, 7, 9]	23	PAL1	5	R1365N
665.392	6.635	665705	PROB	6598	-999	-999	n/a	n/a	n/a	n/a	6	[3, 8, 7]	18	PAL1	5	R1365N
672.027	3.934	672340	PROB	3906	-999	-999	n/a	n/a	n/a	n/a	6	[5, 3, 9]	17	PAL1	5	R1365N
675.961	1.715	676274	PROB	1715	-999	-999	n/a	n/a	n/a	n/a	6	[1, 1, 1]	3	PAL1	5	R1365N
677.676	0.018	677989	STOP	n/a	-999	-999	n/a	n/a	n/a	n/a	6	[-999, -999, -999]	-999	PAL1	5	R1365N
677.694	0.653	678007	MATH_END	n/a	-999	-999	n/a	n/a	n/a	n/a	6	[0, 0, 0]	-999	PAL1	5	R1365N
678.347	0.002	678660	RETRIEVAL_START	n/a	-999	-999	n/a	n/a	n/a	n/a	6	[0, 0, 0]	-999	PAL1	5	R1365N
678.349	0.279	678662	ORIENT_START	n/a	-999	-999	n/a	n/a	n/a	n/a	6	[0, 0, 0]	-999	PAL1	5	R1365N
678.628	0.62	678941	ORIENT_END	n/a	-999	-999	n/a	n/a	n/a	n/a	6	[0, 0, 0]	-999	PAL1	5	R1365N
679.248	0.001	679561	REC_START	n/a	1	1	TRASH	TOE	TOE	TRASH	6	[0, 0, 0]	-999	PAL1	5	R1365N
679.249	1.851	679562	PROBE_START	n/a	1	1	TRASH	TOE	TOE	TRASH	6	[0, 0, 0]	-999	PAL1	5	R1365N
681.1	2.178	681413	REC_EVENT	1851	1	1	TRASH	TOE	TOE	TRASH	6	[0, 0, 0]	-999	PAL1	5	R1365N
683.278	1.0	683591	PROBE_END	n/a	1	1	TRASH	n/a	TOE	TRASH	6	[0, 0, 0]	-999	PAL1	5	R1365N
684.278	0.012	684591	REC_END	n/a	1	1	TRASH	n/a	TOE	TRASH	6	[0, 0, 0]	-999	PAL1	5	R1365N
684.29	0.272	684603	ORIENT_START	n/a	-999	-999	n/a	n/a	n/a	n/a	6	[0, 0, 0]	-999	PAL1	5	R1365N
684.562	0.7	684875	ORIENT_END	n/a	-999	-999	n/a	n/a	n/a	n/a	6	[0, 0, 0]	-999	PAL1	5	R1365N
685.262	0.001	685575	REC_START	n/a	4	2	STAR	INK	STAR	INK	6	[0, 0, 0]	-999	PAL1	5	R1365N
685.263	2.029	685576	PROBE_START	n/a	4	2	STAR	INK	STAR	INK	6	[0, 0, 0]	-999	PAL1	5	R1365N
687.292	2.004	687605	REC_EVENT	2029	4	2	STAR	INK	STAR	INK	6	[0, 0, 0]	-999	PAL1	5	R1365N
689.296	1.0	689609	PROBE_END	n/a	4	2	STAR	n/a	STAR	INK	6	[0, 0, 0]	-999	PAL1	5	R1365N
690.296	0.014	690609	REC_END	n/a	4	2	STAR	n/a	STAR	INK	6	[0, 0, 0]	-999	PAL1	5	R1365N
690.31	0.27	690623	ORIENT_START	n/a	-999	-999	n/a	n/a	n/a	n/a	6	[0, 0, 0]	-999	PAL1	5	R1365N
690.58	0.743	690893	ORIENT_END	n/a	-999	-999	n/a	n/a	n/a	n/a	6	[0, 0, 0]	-999	PAL1	5	R1365N
691.323	0.001	691636	REC_START	n/a	3	3	STEAK	n/a	WAVE	STEAK	6	[0, 0, 0]	-999	PAL1	5	R1365N
691.324	4.006	691637	PROBE_START	n/a	3	3	STEAK	n/a	WAVE	STEAK	6	[0, 0, 0]	-999	PAL1	5	R1365N
695.33	1.0	695643	PROBE_END	n/a	3	3	STEAK	n/a	WAVE	STEAK	6	[0, 0, 0]	-999	PAL1	5	R1365N
696.33	0.008	696643	REC_END	n/a	3	3	STEAK	n/a	WAVE	STEAK	6	[0, 0, 0]	-999	PAL1	5	R1365N
696.338	0.276	696651	ORIENT_START	n/a	-999	-999	n/a	n/a	n/a	n/a	6	[0, 0, 0]	-999	PAL1	5	R1365N
696.614	0.567	696927	ORIENT_END	n/a	-999	-999	n/a	n/a	n/a	n/a	6	[0, 0, 0]	-999	PAL1	5	R1365N
697.181	0.0	697494	REC_START	n/a	6	4	CHALK	OAR	CHALK	OAR	6	[0, 0, 0]	-999	PAL1	5	R1365N
697.181	0.168	697494	PROBE_START	n/a	6	4	CHALK	OAR	CHALK	OAR	6	[0, 0, 0]	-999	PAL1	5	R1365N
697.349	1.783	697662	REC_EVENT	6025	3	3	STEAK	<>	WAVE	STEAK	6	[0, 0, 0]	-999	PAL1	5	R1365N
699.132	2.083	699444	REC_EVENT	1951	6	4	CHALK	OAR	CHALK	OAR	6	[0, 0, 0]	-999	PAL1	5	R1365N
701.215	0.999	701527	PROBE_END	n/a	6	4	CHALK	n/a	CHALK	OAR	6	[0, 0, 0]	-999	PAL1	5	R1365N
702.214	0.012	702526	REC_END	n/a	6	4	CHALK	n/a	CHALK	OAR	6	[0, 0, 0]	-999	PAL1	5	R1365N
702.226	0.272	702538	ORIENT_START	n/a	-999	-999	n/a	n/a	n/a	n/a	6	[0, 0, 0]	-999	PAL1	5	R1365N
702.498	0.574	702810	ORIENT_END	n/a	-999	-999	n/a	n/a	n/a	n/a	6	[0, 0, 0]	-999	PAL1	5	R1365N
703.072	0.0	703384	REC_START	n/a	5	5	COUCH	SLUSH	COUCH	SLUSH	6	[0, 0, 0]	-999	PAL1	5	R1365N
703.072	1.933	703384	PROBE_START	n/a	5	5	COUCH	SLUSH	COUCH	SLUSH	6	[0, 0, 0]	-999	PAL1	5	R1365N
705.005	2.095	705317	REC_EVENT	1933	5	5	COUCH	SLUSH	COUCH	SLUSH	6	[0, 0, 0]	-999	PAL1	5	R1365N
707.1	1.0	707412	PROBE_END	n/a	5	5	COUCH	n/a	COUCH	SLUSH	6	[0, 0, 0]	-999	PAL1	5	R1365N
708.1	0.012	708412	REC_END	n/a	5	5	COUCH	n/a	COUCH	SLUSH	6	[0, 0, 0]	-999	PAL1	5	R1365N
708.112	0.271	708424	ORIENT_START	n/a	-999	-999	n/a	n/a	n/a	n/a	6	[0, 0, 0]	-999	PAL1	5	R1365N
708.383	0.523	708695	ORIENT_END	n/a	-999	-999	n/a	n/a	n/a	n/a	6	[0, 0, 0]	-999	PAL1	5	R1365N
708.906	0.0	709218	REC_START	n/a	2	6	NOSE	POLE	POLE	NOSE	6	[0, 0, 0]	-999	PAL1	5	R1365N
708.906	1.806	709218	PROBE_START	n/a	2	6	NOSE	POLE	POLE	NOSE	6	[0, 0, 0]	-999	PAL1	5	R1365N
710.712	2.222	711024	REC_EVENT	1806	2	6	NOSE	POLE	POLE	NOSE	6	[0, 0, 0]	-999	PAL1	5	R1365N
712.934	1.001	713246	PROBE_END	n/a	2	6	NOSE	n/a	POLE	NOSE	6	[0, 0, 0]	-999	PAL1	5	R1365N
713.935	0.011	714247	REC_END	n/a	2	6	NOSE	n/a	POLE	NOSE	6	[0, 0, 0]	-999	PAL1	5	R1365N
713.946	0.0	714258	RETRIEVAL_END	n/a	-999	-999	n/a	n/a	n/a	n/a	6	[0, 0, 0]	-999	PAL1	5	R1365N
713.946	0.051	714258	TRIAL_END	n/a	-999	-999	n/a	n/a	n/a	n/a	6	[0, 0, 0]	-999	PAL1	5	R1365N
713.997	0.001	714309	TRIAL_START	n/a	-999	-999	n/a	n/a	n/a	n/a	6	[0, 0, 0]	-999	PAL1	5	R1365N
713.998	0.0	714310	WAITING_START	n/a	-999	-999	n/a	n/a	n/a	n/a	7	[0, 0, 0]	-999	PAL1	5	R1365N
713.998	0.853	714310	TRIAL	n/a	-999	-999	n/a	n/a	n/a	n/a	7	[0, 0, 0]	-999	PAL1	5	R1365N
714.851	0.001	715163	WAITING_END	n/a	-999	-999	n/a	n/a	n/a	n/a	7	[0, 0, 0]	-999	PAL1	5	R1365N
714.852	10.429	715164	COUNTDOWN_START	n/a	-999	-999	n/a	n/a	n/a	n/a	7	[0, 0, 0]	-999	PAL1	5	R1365N
725.281	0.0	725593	COUNTDOWN_END	n/a	-999	-999	n/a	n/a	n/a	n/a	7	[0, 0, 0]	-999	PAL1	5	R1365N
725.281	0.689	725593	ORIENT_START	n/a	-999	-999	n/a	n/a	n/a	n/a	7	[0, 0, 0]	-999	PAL1	5	R1365N
725.97	0.0	726282	ORIENT_END	n/a	-999	-999	n/a	n/a	n/a	n/a	7	[0, 0, 0]	-999	PAL1	5	R1365N
725.97	1.144	726282	ENCODING_START	n/a	-999	-999	n/a	n/a	n/a	n/a	7	[0, 0, 0]	-999	PAL1	5	R1365N
727.114	4.023	727426	STUDY_PAIR	n/a	1	5	n/a	LAWN	POND	LAWN	7	[0, 0, 0]	-999	PAL1	5	R1365N
731.137	0.633	731449	STUDY_PAIR_OFF	n/a	1	5	n/a	LAWN	POND	LAWN	7	[0, 0, 0]	-999	PAL1	5	R1365N
731.77	4.035	732082	STUDY_PAIR	n/a	2	2	n/a	n/a	SQUARE	SNAKE	7	[0, 0, 0]	-999	PAL1	5	R1365N
735.805	0.662	736116	STUDY_PAIR_OFF	n/a	2	2	n/a	n/a	SQUARE	SNAKE	7	[0, 0, 0]	-999	PAL1	5	R1365N
736.467	4.038	736778	STUDY_PAIR	n/a	3	1	n/a	n/a	THUMB	DART	7	[0, 0, 0]	-999	PAL1	5	R1365N
740.505	0.517	740816	STUDY_PAIR_OFF	n/a	3	1	n/a	n/a	THUMB	DART	7	[0, 0, 0]	-999	PAL1	5	R1365N
741.022	4.034	741333	STUDY_PAIR	n/a	4	6	n/a	PIN	PIN	BRIDGE	7	[0, 0, 0]	-999	PAL1	5	R1365N
745.056	0.687	745367	STUDY_PAIR_OFF	n/a	4	6	n/a	PIN	PIN	BRIDGE	7	[0, 0, 0]	-999	PAL1	5	R1365N
745.743	4.031	746054	STUDY_PAIR	n/a	5	3	n/a	FOX	SPRING	FOX	7	[0, 0, 0]	-999	PAL1	5	R1365N
749.774	0.534	750085	STUDY_PAIR_OFF	n/a	5	3	n/a	FOX	SPRING	FOX	7	[0, 0, 0]	-999	PAL1	5	R1365N
750.308	4.032	750619	STUDY_PAIR	n/a	6	4	n/a	CROWN	GEESE	CROWN	7	[0, 0, 0]	-999	PAL1	5	R1365N
754.34	0.001	754651	STUDY_PAIR_OFF	n/a	6	4	n/a	CROWN	GEESE	CROWN	7	[0, 0, 0]	-999	PAL1	5	R1365N
754.341	0.0	754652	ENCODING_END	n/a	-999	-999	n/a	n/a	n/a	n/a	7	[0, 0, 0]	-999	PAL1	5	R1365N
754.341	0.001	754652	MATH_START	n/a	-999	-999	n/a	n/a	n/a	n/a	7	[0, 0, 0]	-999	PAL1	5	R1365N
754.342	0.015	754653	START	n/a	-999	-999	n/a	n/a	n/a	n/a	7	[-999, -999, -999]	-999	PAL1	5	R1365N
754.357	4.0	754668	PROB	3975	-999	-999	n/a	n/a	n/a	n/a	7	[2, 5, 2]	9	PAL1	5	R1365N
758.357	9.653	758668	PROB	9617	-999	-999	n/a	n/a	n/a	n/a	7	[7, 5, 4]	16	PAL1	5	R1365N
768.01	3.449	768320	PROB	3427	-999	-999	n/a	n/a	n/a	n/a	7	[2, 4, 1]	7	PAL1	5	R1365N
771.459	5.938	771769	PROB	5938	-999	-999	n/a	n/a	n/a	n/a	7	[8, 7, 3]	18	PAL1	5	R1365N
777.397	0.014	777707	STOP	n/a	-999	-999	n/a	n/a	n/a	n/a	7	[-999, -999, -999]	-999	PAL1	5	R1365N
777.411	0.579	777721	MATH_END	n/a	-999	-999	n/a	n/a	n/a	n/a	7	[0, 0, 0]	-999	PAL1	5	R1365N
777.99	0.002	778300	RETRIEVAL_START	n/a	-999	-999	n/a	n/a	n/a	n/a	7	[0, 0, 0]	-999	PAL1	5	R1365N
777.992	0.269	778302	ORIENT_START	n/a	-999	-999	n/a	n/a	n/a	n/a	7	[0, 0, 0]	-999	PAL1	5	R1365N
778.261	0.533	778571	ORIENT_END	n/a	-999	-999	n/a	n/a	n/a	n/a	7	[0, 0, 0]	-999	PAL1	5	R1365N
778.794	0.001	779104	REC_START	n/a	3	1	DART	n/a	THUMB	DART	7	[0, 0, 0]	-999	PAL1	5	R1365N
778.795	4.034	779105	PROBE_START	n/a	3	1	DART	n/a	THUMB	DART	7	[0, 0, 0]	-999	PAL1	5	R1365N
782.829	1.0	783139	PROBE_END	n/a	3	1	DART	n/a	THUMB	DART	7	[0, 0, 0]	-999	PAL1	5	R1365N
783.829	0.011	784139	REC_END	n/a	3	1	DART	n/a	THUMB	DART	7	[0, 0, 0]	-999	PAL1	5	R1365N
783.84	0.273	784150	ORIENT_START	n/a	-999	-999	n/a	n/a	n/a	n/a	7	[0, 0, 0]	-999	PAL1	5	R1365N
784.113	0.521	784423	ORIENT_END	n/a	-999	-999	n/a	n/a	n/a	n/a	7	[0, 0, 0]	-999	PAL1	5	R1365N
784.634	0.024	784944	REC_EVENT	5839	3	1	DART	<>	THUMB	DART	7	[0, 0, 0]	-999	PAL1	5	R1365N
784.658	0.001	784968	REC_START	n/a	2	2	SNAKE	n/a	SQUARE	SNAKE	7	[0, 0, 0]	-999	PAL1	5	R1365N
784.659	4.037	784969	PROBE_START	n/a	2	2	SNAKE	n/a	SQUARE	SNAKE	7	[0, 0, 0]	-999	PAL1	5	R1365N
788.696	1.001	789006	PROBE_END	n/a	2	2	SNAKE	n/a	SQUARE	SNAKE	7	[0, 0, 0]	-999	PAL1	5	R1365N
789.697	0.011	790007	REC_END	n/a	2	2	SNAKE	n/a	SQUARE	SNAKE	7	[0, 0, 0]	-999	PAL1	5	R1365N
789.708	0.272	790018	ORIENT_START	n/a	-999	-999	n/a	n/a	n/a	n/a	7	[0, 0, 0]	-999	PAL1	5	R1365N
789.98	0.506	790290	ORIENT_END	n/a	-999	-999	n/a	n/a	n/a	n/a	7	[0, 0, 0]	-999	PAL1	5	R1365N
790.486	0.001	790796	REC_START	n/a	5	3	SPRING	FOX	SPRING	FOX	7	[0, 0, 0]	-999	PAL1	5	R1365N
790.487	0.029	790797	PROBE_START	n/a	5	3	SPRING	FOX	SPRING	FOX	7	[0, 0, 0]	-999	PAL1	5	R1365N
790.516	1.734	790826	REC_EVENT	5857	2	2	SNAKE	<>	SQUARE	SNAKE	7	[0, 0, 0]	-999	PAL1	5	R1365N
792.25	2.264	792560	REC_EVENT	1763	5	3	SPRING	FOX	SPRING	FOX	7	[0, 0, 0]	-999	PAL1	5	R1365N
794.514	0.999	794824	PROBE_END	n/a	5	3	SPRING	n/a	SPRING	FOX	7	[0, 0, 0]	-999	PAL1	5	R1365N
795.513	0.013	795823	REC_END	n/a	5	3	SPRING	n/a	SPRING	FOX	7	[0, 0, 0]	-999	PAL1	5	R1365N
795.526	0.272	795836	ORIENT_START	n/a	-999	-999	n/a	n/a	n/a	n/a	7	[0, 0, 0]	-999	PAL1	5	R1365N
795.798	0.739	796108	ORIENT_END	n/a	-999	-999	n/a	n/a	n/a	n/a	7	[0, 0, 0]	-999	PAL1	5	R1365N
796.537	0.0	796847	REC_START	n/a	6	4	GEESE	CROWN	GEESE	CROWN	7	[0, 0, 0]	-999	PAL1	5	R1365N
796.537	2.185	796847	PROBE_START	n/a	6	4	GEESE	CROWN	GEESE	CROWN	7	[0, 0, 0]	-999	PAL1	5	R1365N
798.722	1.842	799032	REC_EVENT	2185	6	4	GEESE	CROWN	GEESE	CROWN	7	[0, 0, 0]	-999	PAL1	5	R1365N
800.564	1.001	800873	PROBE_END	n/a	6	4	GEESE	n/a	GEESE	CROWN	7	[0, 0, 0]	-999	PAL1	5	R1365N
801.565	0.007	801874	REC_END	n/a	6	4	GEESE	n/a	GEESE	CROWN	7	[0, 0, 0]	-999	PAL1	5	R1365N
801.572	0.277	801881	ORIENT_START	n/a	-999	-999	n/a	n/a	n/a	n/a	7	[0, 0, 0]	-999	PAL1	5	R1365N
801.849	0.564	802158	ORIENT_END	n/a	-999	-999	n/a	n/a	n/a	n/a	7	[0, 0, 0]	-999	PAL1	5	R1365N
802.413	0.001	802722	REC_START	n/a	1	5	POND	LAWN	POND	LAWN	7	[0, 0, 0]	-999	PAL1	5	R1365N
802.414	2.015	802723	PROBE_START	n/a	1	5	POND	LAWN	POND	LAWN	7	[0, 0, 0]	-999	PAL1	5	R1365N
804.429	2.02	804738	REC_EVENT	2015	1	5	POND	LAWN	POND	LAWN	7	[0, 0, 0]	-999	PAL1	5	R1365N
806.449	1.0	806758	PROBE_END	n/a	1	5	POND	n/a	POND	LAWN	7	[0, 0, 0]	-999	PAL1	5	R1365N
807.449	0.012	807758	REC_END	n/a	1	5	POND	n/a	POND	LAWN	7	[0, 0, 0]	-999	PAL1	5	R1365N
807.461	0.272	807770	ORIENT_START	n/a	-999	-999	n/a	n/a	n/a	n/a	7	[0, 0, 0]	-999	PAL1	5	R1365N
807.733	0.642	808042	ORIENT_END	n/a	-999	-999	n/a	n/a	n/a	n/a	7	[0, 0, 0]	-999	PAL1	5	R1365N
808.375	0.0	808684	PROBE_START	n/a	4	6	BRIDGE	PIN	PIN	BRIDGE	7	[0, 0, 0]	-999	PAL1	5	R1365N
808.375	1.914	808684	REC_START	n/a	4	6	BRIDGE	PIN	PIN	BRIDGE	7	[0, 0, 0]	-999	PAL1	5	R1365N
810.289	2.111	810598	REC_EVENT	1914	4	6	BRIDGE	PIN	PIN	BRIDGE	7	[0, 0, 0]	-999	PAL1	5	R1365N
812.4	1.001	812709	PROBE_END	n/a	4	6	BRIDGE	n/a	PIN	BRIDGE	7	[0, 0, 0]	-999	PAL1	5	R1365N
813.401	0.014	813710	REC_END	n/a	4	6	BRIDGE	n/a	PIN	BRIDGE	7	[0, 0, 0]	-999	PAL1	5	R1365N
813.415	0.0	813724	RETRIEVAL_END	n/a	-999	-999	n/a	n/a	n/a	n/a	7	[0, 0, 0]	-999	PAL1	5	R1365N
813.415	0.021	813724	TRIAL_END	n/a	-999	-999	n/a	n/a	n/a	n/a	7	[0, 0, 0]	-999	PAL1	5	R1365N
813.436	0.0	813745	TRIAL_START	n/a	-999	-999	n/a	n/a	n/a	n/a	7	[0, 0, 0]	-999	PAL1	5	R1365N
813.436	0.0	813745	TRIAL	n/a	-999	-999	n/a	n/a	n/a	n/a	8	[0, 0, 0]	-999	PAL1	5	R1365N
813.436	1.181	813745	WAITING_START	n/a	-999	-999	n/a	n/a	n/a	n/a	8	[0, 0, 0]	-999	PAL1	5	R1365N
814.617	0.0	814926	WAITING_END	n/a	-999	-999	n/a	n/a	n/a	n/a	8	[0, 0, 0]	-999	PAL1	5	R1365N
814.617	10.429	814926	COUNTDOWN_START	n/a	-999	-999	n/a	n/a	n/a	n/a	8	[0, 0, 0]	-999	PAL1	5	R1365N
825.046	0.001	825355	COUNTDOWN_END	n/a	-999	-999	n/a	n/a	n/a	n/a	8	[0, 0, 0]	-999	PAL1	5	R1365N
825.047	0.622	825356	ORIENT_START	n/a	-999	-999	n/a	n/a	n/a	n/a	8	[0, 0, 0]	-999	PAL1	5	R1365N
825.669	0.0	825978	ENCODING_START	n/a	-999	-999	n/a	n/a	n/a	n/a	8	[0, 0, 0]	-999	PAL1	5	R1365N
825.669	1.022	825978	ORIENT_END	n/a	-999	-999	n/a	n/a	n/a	n/a	8	[0, 0, 0]	-999	PAL1	5	R1365N
826.691	4.028	827000	STUDY_PAIR	n/a	1	5	n/a	BOX	ICE	BOX	8	[0, 0, 0]	-999	PAL1	5	R1365N
830.719	0.615	831028	STUDY_PAIR_OFF	n/a	1	5	n/a	BOX	ICE	BOX	8	[0, 0, 0]	-999	PAL1	5	R1365N
831.334	4.036	831643	STUDY_PAIR	n/a	2	4	n/a	MAP	MAP	BREAD	8	[0, 0, 0]	-999	PAL1	5	R1365N
835.37	0.642	835678	STUDY_PAIR_OFF	n/a	2	4	n/a	MAP	MAP	BREAD	8	[0, 0, 0]	-999	PAL1	5	R1365N
836.012	4.027	836320	STUDY_PAIR	n/a	3	3	n/a	n/a	SHEEP	FLEA	8	[0, 0, 0]	-999	PAL1	5	R1365N
840.039	0.547	840347	STUDY_PAIR_OFF	n/a	3	3	n/a	n/a	SHEEP	FLEA	8	[0, 0, 0]	-999	PAL1	5	R1365N
840.586	4.036	840894	STUDY_PAIR	n/a	4	6	n/a	CAVE	DOLL	CAVE	8	[0, 0, 0]	-999	PAL1	5	R1365N
844.622	0.639	844930	STUDY_PAIR_OFF	n/a	4	6	n/a	CAVE	DOLL	CAVE	8	[0, 0, 0]	-999	PAL1	5	R1365N
845.261	4.028	845569	STUDY_PAIR	n/a	5	1	n/a	BEACH	BEACH	JUDGE	8	[0, 0, 0]	-999	PAL1	5	R1365N
849.289	0.624	849597	STUDY_PAIR_OFF	n/a	5	1	n/a	BEACH	BEACH	JUDGE	8	[0, 0, 0]	-999	PAL1	5	R1365N
849.913	4.028	850221	STUDY_PAIR	n/a	6	2	n/a	SEED	CAKE	SEED	8	[0, 0, 0]	-999	PAL1	5	R1365N
853.941	0.001	854249	STUDY_PAIR_OFF	n/a	6	2	n/a	SEED	CAKE	SEED	8	[0, 0, 0]	-999	PAL1	5	R1365N
853.942	0.0	854250	MATH_START	n/a	-999	-999	n/a	n/a	n/a	n/a	8	[0, 0, 0]	-999	PAL1	5	R1365N
853.942	0.0	854250	ENCODING_END	n/a	-999	-999	n/a	n/a	n/a	n/a	8	[0, 0, 0]	-999	PAL1	5	R1365N
853.942	0.015	854250	START	n/a	-999	-999	n/a	n/a	n/a	n/a	8	[-999, -999, -999]	-999	PAL1	5	R1365N
853.957	7.384	854265	PROB	7352	-999	-999	n/a	n/a	n/a	n/a	8	[5, 8, 4]	17	PAL1	5	R1365N
861.341	5.268	861649	PROB	5240	-999	-999	n/a	n/a	n/a	n/a	8	[4, 2, 7]	13	PAL1	5	R1365N
866.609	3.833	866917	PROB	3796	-999	-999	n/a	n/a	n/a	n/a	8	[9, 2, 6]	17	PAL1	5	R1365N
870.442	3.051	870749	PROB	3026	-999	-999	n/a	n/a	n/a	n/a	8	[2, 5, 4]	11	PAL1	5	R1365N
873.493	10.281	873800	PROB	10281	-999	-999	n/a	n/a	n/a	n/a	8	[9, 2, 6]	17	PAL1	5	R1365N
883.774	0.005	884081	STOP	n/a	-999	-999	n/a	n/a	n/a	n/a	8	[-999, -999, -999]	-999	PAL1	5	R1365N
883.779	0.689	884086	MATH_END	n/a	-999	-999	n/a	n/a	n/a	n/a	8	[0, 0, 0]	-999	PAL1	5	R1365N
884.468	0.001	884775	RETRIEVAL_START	n/a	-999	-999	n/a	n/a	n/a	n/a	8	[0, 0, 0]	-999	PAL1	5	R1365N
884.469	0.277	884776	ORIENT_START	n/a	-999	-999	n/a	n/a	n/a	n/a	8	[0, 0, 0]	-999	PAL1	5	R1365N
884.746	0.574	885053	ORIENT_END	n/a	-999	-999	n/a	n/a	n/a	n/a	8	[0, 0, 0]	-999	PAL1	5	R1365N
885.32	0.0	885627	REC_START	n/a	5	1	JUDGE	BEACH	BEACH	JUDGE	8	[0, 0, 0]	-999	PAL1	5	R1365N
885.32	1.982	885627	PROBE_START	n/a	5	1	JUDGE	BEACH	BEACH	JUDGE	8	[0, 0, 0]	-999	PAL1	5	R1365N
887.302	2.044	887609	REC_EVENT	1982	5	1	JUDGE	BEACH	BEACH	JUDGE	8	[0, 0, 0]	-999	PAL1	5	R1365N
889.346	0.999	889653	PROBE_END	n/a	5	1	JUDGE	n/a	BEACH	JUDGE	8	[0, 0, 0]	-999	PAL1	5	R1365N
890.345	0.012	890652	REC_END	n/a	5	1	JUDGE	n/a	BEACH	JUDGE	8	[0, 0, 0]	-999	PAL1	5	R1365N
890.357	0.272	890664	ORIENT_START	n/a	-999	-999	n/a	n/a	n/a	n/a	8	[0, 0, 0]	-999	PAL1	5	R1365N
890.629	0.578	890936	ORIENT_END	n/a	-999	-999	n/a	n/a	n/a	n/a	8	[0, 0, 0]	-999	PAL1	5	R1365N
891.207	0.0	891514	REC_START	n/a	6	2	CAKE	SEED	CAKE	SEED	8	[0, 0, 0]	-999	PAL1	5	R1365N
891.207	1.767	891514	PROBE_START	n/a	6	2	CAKE	SEED	CAKE	SEED	8	[0, 0, 0]	-999	PAL1	5	R1365N
892.974	2.256	893281	REC_EVENT	1767	6	2	CAKE	SEED	CAKE	SEED	8	[0, 0, 0]	-999	PAL1	5	R1365N
895.23	1.001	895537	PROBE_END	n/a	6	2	CAKE	n/a	CAKE	SEED	8	[0, 0, 0]	-999	PAL1	5	R1365N
896.231	0.012	896538	REC_END	n/a	6	2	CAKE	n/a	CAKE	SEED	8	[0, 0, 0]	-999	PAL1	5	R1365N
896.243	0.271	896550	ORIENT_START	n/a	-999	-999	n/a	n/a	n/a	n/a	8	[0, 0, 0]	-999	PAL1	5	R1365N
896.514	0.642	896821	ORIENT_END	n/a	-999	-999	n/a	n/a	n/a	n/a	8	[0, 0, 0]	-999	PAL1	5	R1365N
897.156	0.0	897463	REC_START	n/a	3	3	FLEA	n/a	SHEEP	FLEA	8	[0, 0, 0]	-999	PAL1	5	R1365N
897.156	4.025	897463	PROBE_START	n/a	3	3	FLEA	n/a	SHEEP	FLEA	8	[0, 0, 0]	-999	PAL1	5	R1365N
901.181	1.001	901488	PROBE_END	n/a	3	3	FLEA	n/a	SHEEP	FLEA	8	[0, 0, 0]	-999	PAL1	5	R1365N
902.182	0.011	902489	REC_END	n/a	3	3	FLEA	n/a	SHEEP	FLEA	8	[0, 0, 0]	-999	PAL1	5	R1365N
902.193	0.272	902500	ORIENT_START	n/a	-999	-999	n/a	n/a	n/a	n/a	8	[0, 0, 0]	-999	PAL1	5	R1365N
902.465	0.624	902771	ORIENT_END	n/a	-999	-999	n/a	n/a	n/a	n/a	8	[0, 0, 0]	-999	PAL1	5	R1365N
903.089	0.0	903395	REC_START	n/a	2	4	BREAD	MAP	MAP	BREAD	8	[0, 0, 0]	-999	PAL1	5	R1365N
903.089	0.005	903395	PROBE_START	n/a	2	4	BREAD	MAP	MAP	BREAD	8	[0, 0, 0]	-999	PAL1	5	R1365N
903.094	3.289	903400	REC_EVENT	5938	3	3	FLEA	<>	SHEEP	FLEA	8	[0, 0, 0]	-999	PAL1	5	R1365N
906.383	0.733	906689	REC_EVENT	3294	2	4	BREAD	MAP	MAP	BREAD	8	[0, 0, 0]	-999	PAL1	5	R1365N
907.116	1.0	907422	PROBE_END	n/a	2	4	BREAD	n/a	MAP	BREAD	8	[0, 0, 0]	-999	PAL1	5	R1365N
908.116	0.01	908422	REC_END	n/a	2	4	BREAD	n/a	MAP	BREAD	8	[0, 0, 0]	-999	PAL1	5	R1365N
908.126	0.273	908432	ORIENT_START	n/a	-999	-999	n/a	n/a	n/a	n/a	8	[0, 0, 0]	-999	PAL1	5	R1365N
908.399	0.504	908705	ORIENT_END	n/a	-999	-999	n/a	n/a	n/a	n/a	8	[0, 0, 0]	-999	PAL1	5	R1365N
908.903	0.001	909209	REC_START	n/a	1	5	ICE	BOX	ICE	BOX	8	[0, 0, 0]	-999	PAL1	5	R1365N
908.904	1.851	909210	PROBE_START	n/a	1	5	ICE	BOX	ICE	BOX	8	[0, 0, 0]	-999	PAL1	5	R1365N
910.755	2.179	911061	REC_EVENT	1851	1	5	ICE	BOX	ICE	BOX	8	[0, 0, 0]	-999	PAL1	5	R1365N
912.934	1.0	913240	PROBE_END	n/a	1	5	ICE	n/a	ICE	BOX	8	[0, 0, 0]	-999	PAL1	5	R1365N
913.934	0.013	914240	REC_END	n/a	1	5	ICE	n/a	ICE	BOX	8	[0, 0, 0]	-999	PAL1	5	R1365N
913.947	0.27	914253	ORIENT_START	n/a	-999	-999	n/a	n/a	n/a	n/a	8	[0, 0, 0]	-999	PAL1	5	R1365N
914.217	0.511	914523	ORIENT_END	n/a	-999	-999	n/a	n/a	n/a	n/a	8	[0, 0, 0]	-999	PAL1	5	R1365N
914.728	0.0	915034	REC_START	n/a	4	6	DOLL	CAVE	DOLL	CAVE	8	[0, 0, 0]	-999	PAL1	5	R1365N
914.728	1.78	915034	PROBE_START	n/a	4	6	DOLL	CAVE	DOLL	CAVE	8	[0, 0, 0]	-999	PAL1	5	R1365N
916.508	2.244	916814	REC_EVENT	1780	4	6	DOLL	CAVE	DOLL	CAVE	8	[0, 0, 0]	-999	PAL1	5	R1365N
918.752	0.999	919058	PROBE_END	n/a	4	6	DOLL	n/a	DOLL	CAVE	8	[0, 0, 0]	-999	PAL1	5	R1365N
919.751	0.011	920057	REC_END	n/a	4	6	DOLL	n/a	DOLL	CAVE	8	[0, 0, 0]	-999	PAL1	5	R1365N
919.762	0.001	920068	RETRIEVAL_END	n/a	-999	-999	n/a	n/a	n/a	n/a	8	[0, 0, 0]	-999	PAL1	5	R1365N
919.763	0.021	920069	TRIAL_END	n/a	-999	-999	n/a	n/a	n/a	n/a	8	[0, 0, 0]	-999	PAL1	5	R1365N
919.784	0.0	920090	TRIAL	n/a	-999	-999	n/a	n/a	n/a	n/a	9	[0, 0, 0]	-999	PAL1	5	R1365N
919.784	0.0	920090	WAITING_START	n/a	-999	-999	n/a	n/a	n/a	n/a	9	[0, 0, 0]	-999	PAL1	5	R1365N
919.784	0.75	920090	TRIAL_START	n/a	-999	-999	n/a	n/a	n/a	n/a	8	[0, 0, 0]	-999	PAL1	5	R1365N
920.534	0.001	920840	WAITING_END	n/a	-999	-999	n/a	n/a	n/a	n/a	9	[0, 0, 0]	-999	PAL1	5	R1365N
920.535	10.429	920841	COUNTDOWN_START	n/a	-999	-999	n/a	n/a	n/a	n/a	9	[0, 0, 0]	-999	PAL1	5	R1365N
930.964	0.0	931270	COUNTDOWN_END	n/a	-999	-999	n/a	n/a	n/a	n/a	9	[0, 0, 0]	-999	PAL1	5	R1365N
930.964	0.672	931270	ORIENT_START	n/a	-999	-999	n/a	n/a	n/a	n/a	9	[0, 0, 0]	-999	PAL1	5	R1365N
931.636	0.001	931942	ORIENT_END	n/a	-999	-999	n/a	n/a	n/a	n/a	9	[0, 0, 0]	-999	PAL1	5	R1365N
931.637	1.183	931943	ENCODING_START	n/a	-999	-999	n/a	n/a	n/a	n/a	9	[0, 0, 0]	-999	PAL1	5	R1365N
932.82	4.035	933126	STUDY_PAIR	n/a	1	5	n/a	SLEEVE	SLEEVE	PEAR	9	[0, 0, 0]	-999	PAL1	5	R1365N
936.855	0.553	937160	STUDY_PAIR_OFF	n/a	1	5	n/a	SLEEVE	SLEEVE	PEAR	9	[0, 0, 0]	-999	PAL1	5	R1365N
937.408	4.03	937713	STUDY_PAIR	n/a	2	4	n/a	PANTS	PLANE	PANTS	9	[0, 0, 0]	-999	PAL1	5	R1365N
941.438	0.502	941743	STUDY_PAIR_OFF	n/a	2	4	n/a	PANTS	PLANE	PANTS	9	[0, 0, 0]	-999	PAL1	5	R1365N
941.94	4.033	942245	STUDY_PAIR	n/a	3	1	n/a	n/a	EEL	ARK	9	[0, 0, 0]	-999	PAL1	5	R1365N
945.973	0.622	946278	STUDY_PAIR_OFF	n/a	3	1	n/a	n/a	EEL	ARK	9	[0, 0, 0]	-999	PAL1	5	R1365N
946.595	4.028	946900	STUDY_PAIR	n/a	4	2	n/a	n/a	JAR	CASH	9	[0, 0, 0]	-999	PAL1	5	R1365N
950.623	0.596	950928	STUDY_PAIR_OFF	n/a	4	2	n/a	n/a	JAR	CASH	9	[0, 0, 0]	-999	PAL1	5	R1365N
951.219	4.038	951524	STUDY_PAIR	n/a	5	3	n/a	n/a	ROCK	BAG	9	[0, 0, 0]	-999	PAL1	5	R1365N
955.257	0.615	955562	STUDY_PAIR_OFF	n/a	5	3	n/a	n/a	ROCK	BAG	9	[0, 0, 0]	-999	PAL1	5	R1365N
955.872	4.036	956177	STUDY_PAIR	n/a	6	6	n/a	n/a	TAIL	PIG	9	[0, 0, 0]	-999	PAL1	5	R1365N
959.908	0.001	960213	STUDY_PAIR_OFF	n/a	6	6	n/a	n/a	TAIL	PIG	9	[0, 0, 0]	-999	PAL1	5	R1365N
959.909	0.0	960214	ENCODING_END	n/a	-999	-999	n/a	n/a	n/a	n/a	9	[0, 0, 0]	-999	PAL1	5	R1365N
959.909	0.0	960214	MATH_START	n/a	-999	-999	n/a	n/a	n/a	n/a	9	[0, 0, 0]	-999	PAL1	5	R1365N
959.909	0.016	960214	START	n/a	-999	-999	n/a	n/a	n/a	n/a	9	[-999, -999, -999]	-999	PAL1	5	R1365N
959.925	5.617	960230	PROB	5583	-999	-999	n/a	n/a	n/a	n/a	9	[2, 8, 9]	19	PAL1	5	R1365N
965.542	4.485	965847	PROB	4448	-999	-999	n/a	n/a	n/a	n/a	9	[1, 9, 8]	18	PAL1	5	R1365N
970.027	3.166	970332	PROB	3131	-999	-999	n/a	n/a	n/a	n/a	9	[1, 3, 6]	10	PAL1	5	R1365N
973.193	6.317	973497	PROB	6292	-999	-999	n/a	n/a	n/a	n/a	9	[7, 4, 8]	19	PAL1	5	R1365N
979.51	3.319	979814	PROB	3319	-999	-999	n/a	n/a	n/a	n/a	9	[3, 6, 1]	10	PAL1	5	R1365N
982.829	0.016	983133	STOP	n/a	-999	-999	n/a	n/a	n/a	n/a	9	[-999, -999, -999]	-999	PAL1	5	R1365N
982.845	0.631	983149	MATH_END	n/a	-999	-999	n/a	n/a	n/a	n/a	9	[0, 0, 0]	-999	PAL1	5	R1365N
983.476	0.001	983780	RETRIEVAL_START	n/a	-999	-999	n/a	n/a	n/a	n/a	9	[0, 0, 0]	-999	PAL1	5	R1365N
983.477	0.269	983781	ORIENT_START	n/a	-999	-999	n/a	n/a	n/a	n/a	9	[0, 0, 0]	-999	PAL1	5	R1365N
983.746	0.743	984050	ORIENT_END	n/a	-999	-999	n/a	n/a	n/a	n/a	9	[0, 0, 0]	-999	PAL1	5	R1365N
984.489	0.0	984793	REC_START	n/a	3	1	ARK	n/a	EEL	ARK	9	[0, 0, 0]	-999	PAL1	5	R1365N
984.489	4.023	984793	PROBE_START	n/a	3	1	ARK	n/a	EEL	ARK	9	[0, 0, 0]	-999	PAL1	5	R1365N
988.512	1.001	988816	PROBE_END	n/a	3	1	ARK	n/a	EEL	ARK	9	[0, 0, 0]	-999	PAL1	5	R1365N
989.513	0.007	989817	REC_END	n/a	3	1	ARK	n/a	EEL	ARK	9	[0, 0, 0]	-999	PAL1	5	R1365N
989.52	0.277	989824	ORIENT_START	n/a	-999	-999	n/a	n/a	n/a	n/a	9	[0, 0, 0]	-999	PAL1	5	R1365N
989.797	0.729	990101	ORIENT_END	n/a	-999	-999	n/a	n/a	n/a	n/a	9	[0, 0, 0]	-999	PAL1	5	R1365N
990.526	0.013	990830	REC_EVENT	6037	3	1	ARK	<>	EEL	ARK	9	[0, 0, 0]	-999	PAL1	5	R1365N
990.539	0.0	990843	REC_START	n/a	4	2	CASH	n/a	JAR	CASH	9	[0, 0, 0]	-999	PAL1	5	R1365N
990.539	4.024	990843	PROBE_START	n/a	4	2	CASH	n/a	JAR	CASH	9	[0, 0, 0]	-999	PAL1	5	R1365N
994.563	1.0	994867	PROBE_END	n/a	4	2	CASH	n/a	JAR	CASH	9	[0, 0, 0]	-999	PAL1	5	R1365N
995.563	0.007	995867	REC_END	n/a	4	2	CASH	n/a	JAR	CASH	9	[0, 0, 0]	-999	PAL1	5	R1365N
995.57	0.278	995874	ORIENT_START	n/a	-999	-999	n/a	n/a	n/a	n/a	9	[0, 0, 0]	-999	PAL1	5	R1365N
995.848	0.589	996152	ORIENT_END	n/a	-999	-999	n/a	n/a	n/a	n/a	9	[0, 0, 0]	-999	PAL1	5	R1365N
996.437	0.0	996741	REC_START	n/a	5	3	ROCK	n/a	ROCK	BAG	9	[0, 0, 0]	-999	PAL1	5	R1365N
996.437	0.144	996741	PROBE_START	n/a	5	3	ROCK	n/a	ROCK	BAG	9	[0, 0, 0]	-999	PAL1	5	R1365N
996.581	3.883	996885	REC_EVENT	6042	4	2	CASH	<>	JAR	CASH	9	[0, 0, 0]	-999	PAL1	5	R1365N
1000.464	1.0	1000768	PROBE_END	n/a	5	3	ROCK	n/a	ROCK	BAG	9	[0, 0, 0]	-999	PAL1	5	R1365N
1001.464	0.012	1001768	REC_END	n/a	5	3	ROCK	n/a	ROCK	BAG	9	[0, 0, 0]	-999	PAL1	5	R1365N
1001.476	0.273	1001780	ORIENT_START	n/a	-999	-999	n/a	n/a	n/a	n/a	9	[0, 0, 0]	-999	PAL1	5	R1365N
1001.749	0.556	1002053	ORIENT_END	n/a	-999	-999	n/a	n/a	n/a	n/a	9	[0, 0, 0]	-999	PAL1	5	R1365N
1002.305	0.001	1002609	REC_START	n/a	2	4	PLANE	PANTS	PLANE	PANTS	9	[0, 0, 0]	-999	PAL1	5	R1365N
1002.306	0.028	1002610	PROBE_START	n/a	2	4	PLANE	PANTS	PLANE	PANTS	9	[0, 0, 0]	-999	PAL1	5	R1365N
1002.334	1.985	1002638	REC_EVENT	5897	5	3	ROCK	<>	ROCK	BAG	9	[0, 0, 0]	-999	PAL1	5	R1365N
1004.319	2.013	1004623	REC_EVENT	2013	2	4	PLANE	PANTS	PLANE	PANTS	9	[0, 0, 0]	-999	PAL1	5	R1365N
1006.332	1.0	1006635	PROBE_END	n/a	2	4	PLANE	n/a	PLANE	PANTS	9	[0, 0, 0]	-999	PAL1	5	R1365N
1007.332	0.012	1007635	REC_END	n/a	2	4	PLANE	n/a	PLANE	PANTS	9	[0, 0, 0]	-999	PAL1	5	R1365N
1007.344	0.271	1007647	ORIENT_START	n/a	-999	-999	n/a	n/a	n/a	n/a	9	[0, 0, 0]	-999	PAL1	5	R1365N
1007.615	0.606	1007918	ORIENT_END	n/a	-999	-999	n/a	n/a	n/a	n/a	9	[0, 0, 0]	-999	PAL1	5	R1365N
1008.221	0.001	1008524	REC_START	n/a	1	5	PEAR	SLEEVE	SLEEVE	PEAR	9	[0, 0, 0]	-999	PAL1	5	R1365N
1008.222	1.816	1008525	PROBE_START	n/a	1	5	PEAR	SLEEVE	SLEEVE	PEAR	9	[0, 0, 0]	-999	PAL1	5	R1365N
1010.038	2.211	1010341	REC_EVENT	1816	1	5	PEAR	SLEEVE	SLEEVE	PEAR	9	[0, 0, 0]	-999	PAL1	5	R1365N
1012.249	1.001	1012552	PROBE_END	n/a	1	5	PEAR	n/a	SLEEVE	PEAR	9	[0, 0, 0]	-999	PAL1	5	R1365N
1013.25	0.011	1013553	REC_END	n/a	1	5	PEAR	n/a	SLEEVE	PEAR	9	[0, 0, 0]	-999	PAL1	5	R1365N
1013.261	0.272	1013564	ORIENT_START	n/a	-999	-999	n/a	n/a	n/a	n/a	9	[0, 0, 0]	-999	PAL1	5	R1365N
1013.533	0.671	1013836	ORIENT_END	n/a	-999	-999	n/a	n/a	n/a	n/a	9	[0, 0, 0]	-999	PAL1	5	R1365N
1014.204	0.0	1014507	PROBE_START	n/a	6	6	TAIL	n/a	TAIL	PIG	9	[0, 0, 0]	-999	PAL1	5	R1365N
1014.204	2.018	1014507	REC_START	n/a	6	6	TAIL	n/a	TAIL	PIG	9	[0, 0, 0]	-999	PAL1	5	R1365N
1016.222	2.012	1016525	REC_EVENT	2018	6	6	TAIL	<>	TAIL	PIG	9	[0, 0, 0]	-999	PAL1	5	R1365N
1018.234	1.0	1018537	PROBE_END	n/a	6	6	TAIL	n/a	TAIL	PIG	9	[0, 0, 0]	-999	PAL1	5	R1365N
1019.234	0.013	1019537	REC_END	n/a	6	6	TAIL	n/a	TAIL	PIG	9	[0, 0, 0]	-999	PAL1	5	R1365N
1019.247	0.0	1019550	RETRIEVAL_END	n/a	-999	-999	n/a	n/a	n/a	n/a	9	[0, 0, 0]	-999	PAL1	5	R1365N
1019.247	0.021	1019550	TRIAL_END	n/a	-999	-999	n/a	n/a	n/a	n/a	9	[0, 0, 0]	-999	PAL1	5	R1365N
1019.268	0.0	1019571	TRIAL_START	n/a	-999	-999	n/a	n/a	n/a	n/a	9	[0, 0, 0]	-999	PAL1	5	R1365N
1019.268	0.001	1019571	TRIAL	n/a	-999	-999	n/a	n/a	n/a	n/a	10	[0, 0, 0]	-999	PAL1	5	R1365N
1019.269	0.899	1019572	WAITING_START	n/a	-999	-999	n/a	n/a	n/a	n/a	10	[0, 0, 0]	-999	PAL1	5	R1365N
1020.168	0.0	1020471	WAITING_END	n/a	-999	-999	n/a	n/a	n/a	n/a	10	[0, 0, 0]	-999	PAL1	5	R1365N
1020.168	10.429	1020471	COUNTDOWN_START	n/a	-999	-999	n/a	n/a	n/a	n/a	10	[0, 0, 0]	-999	PAL1	5	R1365N
1030.597	0.0	1030900	COUNTDOWN_END	n/a	-999	-999	n/a	n/a	n/a	n/a	10	[0, 0, 0]	-999	PAL1	5	R1365N
1030.597	0.572	1030900	ORIENT_START	n/a	-999	-999	n/a	n/a	n/a	n/a	10	[0, 0, 0]	-999	PAL1	5	R1365N
1031.169	0.001	1031472	ORIENT_END	n/a	-999	-999	n/a	n/a	n/a	n/a	10	[0, 0, 0]	-999	PAL1	5	R1365N
1031.17	1.196	1031473	ENCODING_START	n/a	-999	-999	n/a	n/a	n/a	n/a	10	[0, 0, 0]	-999	PAL1	5	R1365N
1032.366	4.037	1032669	STUDY_PAIR	n/a	1	1	n/a	n/a	SOUP	ROOT	10	[0, 0, 0]	-999	PAL1	5	R1365N
1036.403	0.618	1036706	STUDY_PAIR_OFF	n/a	1	1	n/a	n/a	SOUP	ROOT	10	[0, 0, 0]	-999	PAL1	5	R1365N
1037.021	4.034	1037324	STUDY_PAIR	n/a	2	2	n/a	MUD	MUD	PALM	10	[0, 0, 0]	-999	PAL1	5	R1365N
1041.055	0.561	1041357	STUDY_PAIR_OFF	n/a	2	2	n/a	MUD	MUD	PALM	10	[0, 0, 0]	-999	PAL1	5	R1365N
1041.616	4.039	1041918	STUDY_PAIR	n/a	3	3	n/a	EGG	EGG	NET	10	[0, 0, 0]	-999	PAL1	5	R1365N
1045.655	0.619	1045957	STUDY_PAIR_OFF	n/a	3	3	n/a	EGG	EGG	NET	10	[0, 0, 0]	-999	PAL1	5	R1365N
1046.274	4.032	1046576	STUDY_PAIR	n/a	4	6	n/a	FORT	CHAIR	FORT	10	[0, 0, 0]	-999	PAL1	5	R1365N
1050.306	0.696	1050608	STUDY_PAIR_OFF	n/a	4	6	n/a	FORT	CHAIR	FORT	10	[0, 0, 0]	-999	PAL1	5	R1365N
1051.002	4.039	1051304	STUDY_PAIR	n/a	5	5	n/a	COIN	ZOO	COIN	10	[0, 0, 0]	-999	PAL1	5	R1365N
1055.041	0.508	1055343	STUDY_PAIR_OFF	n/a	5	5	n/a	COIN	ZOO	COIN	10	[0, 0, 0]	-999	PAL1	5	R1365N
1055.549	4.025	1055851	STUDY_PAIR	n/a	6	4	n/a	FUDGE	VINE	FUDGE	10	[0, 0, 0]	-999	PAL1	5	R1365N
1059.574	0.0	1059876	STUDY_PAIR_OFF	n/a	6	4	n/a	FUDGE	VINE	FUDGE	10	[0, 0, 0]	-999	PAL1	5	R1365N
1059.574	0.0	1059876	ENCODING_END	n/a	-999	-999	n/a	n/a	n/a	n/a	10	[0, 0, 0]	-999	PAL1	5	R1365N
1059.574	0.001	1059876	MATH_START	n/a	-999	-999	n/a	n/a	n/a	n/a	10	[0, 0, 0]	-999	PAL1	5	R1365N
1059.575	0.015	1059877	START	n/a	-999	-999	n/a	n/a	n/a	n/a	10	[-999, -999, -999]	-999	PAL1	5	R1365N
1059.59	9.102	1059892	PROB	9063	-999	-999	n/a	n/a	n/a	n/a	10	[7, 3, 7]	17	PAL1	5	R1365N
1068.692	4.034	1068994	PROB	4009	-999	-999	n/a	n/a	n/a	n/a	10	[8, 1, 9]	18	PAL1	5	R1365N
1072.726	1.684	1073027	PROB	1655	-999	-999	n/a	n/a	n/a	n/a	10	[7, 3, 1]	11	PAL1	5	R1365N
1074.41	5.443	1074711	PROB	5443	-999	-999	n/a	n/a	n/a	n/a	10	[7, 1, 8]	16	PAL1	5	R1365N
1079.853	0.009	1080154	STOP	n/a	-999	-999	n/a	n/a	n/a	n/a	10	[-999, -999, -999]	-999	PAL1	5	R1365N
1079.862	0.681	1080163	MATH_END	n/a	-999	-999	n/a	n/a	n/a	n/a	10	[0, 0, 0]	-999	PAL1	5	R1365N
1080.543	0.002	1080844	RETRIEVAL_START	n/a	-999	-999	n/a	n/a	n/a	n/a	10	[0, 0, 0]	-999	PAL1	5	R1365N
1080.545	0.284	1080846	ORIENT_START	n/a	-999	-999	n/a	n/a	n/a	n/a	10	[0, 0, 0]	-999	PAL1	5	R1365N
1080.829	0.566	1081130	ORIENT_END	n/a	-999	-999	n/a	n/a	n/a	n/a	10	[0, 0, 0]	-999	PAL1	5	R1365N
1081.395	0.0	1081696	REC_START	n/a	1	1	ROOT	n/a	SOUP	ROOT	10	[0, 0, 0]	-999	PAL1	5	R1365N
1081.395	2.169	1081696	PROBE_START	n/a	1	1	ROOT	n/a	SOUP	ROOT	10	[0, 0, 0]	-999	PAL1	5	R1365N
1083.564	1.864	1083865	REC_EVENT	2169	1	1	ROOT	<>	SOUP	ROOT	10	[0, 0, 0]	-999	PAL1	5	R1365N
1085.428	1.0	1085729	PROBE_END	n/a	1	1	ROOT	n/a	SOUP	ROOT	10	[0, 0, 0]	-999	PAL1	5	R1365N
1086.428	0.012	1086729	REC_END	n/a	1	1	ROOT	n/a	SOUP	ROOT	10	[0, 0, 0]	-999	PAL1	5	R1365N
1086.44	0.272	1086741	ORIENT_START	n/a	-999	-999	n/a	n/a	n/a	n/a	10	[0, 0, 0]	-999	PAL1	5	R1365N
1086.712	0.524	1087013	ORIENT_END	n/a	-999	-999	n/a	n/a	n/a	n/a	10	[0, 0, 0]	-999	PAL1	5	R1365N
1087.236	0.0	1087537	REC_START	n/a	2	2	PALM	MUD	MUD	PALM	10	[0, 0, 0]	-999	PAL1	5	R1365N
1087.236	2.564	1087537	PROBE_START	n/a	2	2	PALM	MUD	MUD	PALM	10	[0, 0, 0]	-999	PAL1	5	R1365N
1089.8	1.462	1090101	REC_EVENT	2564	2	2	PALM	MUD	MUD	PALM	10	[0, 0, 0]	-999	PAL1	5	R1365N
1091.262	1.0	1091563	PROBE_END	n/a	2	2	PALM	n/a	MUD	PALM	10	[0, 0, 0]	-999	PAL1	5	R1365N
1092.262	0.011	1092563	REC_END	n/a	2	2	PALM	n/a	MUD	PALM	10	[0, 0, 0]	-999	PAL1	5	R1365N
1092.273	0.273	1092574	ORIENT_START	n/a	-999	-999	n/a	n/a	n/a	n/a	10	[0, 0, 0]	-999	PAL1	5	R1365N
1092.546	0.58	1092847	ORIENT_END	n/a	-999	-999	n/a	n/a	n/a	n/a	10	[0, 0, 0]	-999	PAL1	5	R1365N
1093.126	0.001	1093427	REC_START	n/a	3	3	NET	EGG	EGG	NET	10	[0, 0, 0]	-999	PAL1	5	R1365N
1093.127	1.868	1093428	PROBE_START	n/a	3	3	NET	EGG	EGG	NET	10	[0, 0, 0]	-999	PAL1	5	R1365N
1094.995	2.169	1095296	REC_EVENT	1868	3	3	NET	EGG	EGG	NET	10	[0, 0, 0]	-999	PAL1	5	R1365N
1097.164	1.001	1097465	PROBE_END	n/a	3	3	NET	n/a	EGG	NET	10	[0, 0, 0]	-999	PAL1	5	R1365N
1098.165	0.012	1098466	REC_END	n/a	3	3	NET	n/a	EGG	NET	10	[0, 0, 0]	-999	PAL1	5	R1365N
1098.177	0.27	1098478	ORIENT_START	n/a	-999	-999	n/a	n/a	n/a	n/a	10	[0, 0, 0]	-999	PAL1	5	R1365N
1098.447	0.657	1098748	ORIENT_END	n/a	-999	-999	n/a	n/a	n/a	n/a	10	[0, 0, 0]	-999	PAL1	5	R1365N
1099.104	0.0	1099405	REC_START	n/a	6	4	VINE	FUDGE	VINE	FUDGE	10	[0, 0, 0]	-999	PAL1	5	R1365N
1099.104	2.505	1099405	PROBE_START	n/a	6	4	VINE	FUDGE	VINE	FUDGE	10	[0, 0, 0]	-999	PAL1	5	R1365N
1101.609	0.655	1101910	REC_EVENT	2505	6	4	VINE	<>	VINE	FUDGE	10	[0, 0, 0]	-999	PAL1	5	R1365N
1102.264	0.868	1102565	REC_EVENT	3160	6	4	VINE	FUDGE	VINE	FUDGE	10	[0, 0, 0]	-999	PAL1	5	R1365N
1103.132	1.0	1103433	PROBE_END	n/a	6	4	VINE	n/a	VINE	FUDGE	10	[0, 0, 0]	-999	PAL1	5	R1365N
1104.132	0.013	1104433	REC_END	n/a	6	4	VINE	n/a	VINE	FUDGE	10	[0, 0, 0]	-999	PAL1	5	R1365N
1104.145	0.27	1104446	ORIENT_START	n/a	-999	-999	n/a	n/a	n/a	n/a	10	[0, 0, 0]	-999	PAL1	5	R1365N
1104.415	0.501	1104716	ORIENT_END	n/a	-999	-999	n/a	n/a	n/a	n/a	10	[0, 0, 0]	-999	PAL1	5	R1365N
1104.916	0.0	1105217	PROBE_START	n/a	5	5	ZOO	COIN	ZOO	COIN	10	[0, 0, 0]	-999	PAL1	5	R1365N
1104.916	1.646	1105217	REC_START	n/a	5	5	ZOO	COIN	ZOO	COIN	10	[0, 0, 0]	-999	PAL1	5	R1365N
1106.562	2.388	1106862	REC_EVENT	1646	5	5	ZOO	COIN	ZOO	COIN	10	[0, 0, 0]	-999	PAL1	5	R1365N
1108.95	1.0	1109250	PROBE_END	n/a	5	5	ZOO	n/a	ZOO	COIN	10	[0, 0, 0]	-999	PAL1	5	R1365N
1109.95	0.013	1110250	REC_END	n/a	5	5	ZOO	n/a	ZOO	COIN	10	[0, 0, 0]	-999	PAL1	5	R1365N
1109.963	0.269	1110263	ORIENT_START	n/a	-999	-999	n/a	n/a	n/a	n/a	10	[0, 0, 0]	-999	PAL1	5	R1365N
1110.232	0.604	1110532	ORIENT_END	n/a	-999	-999	n/a	n/a	n/a	n/a	10	[0, 0, 0]	-999	PAL1	5	R1365N
1110.836	0.001	1111136	REC_START	n/a	4	6	CHAIR	FORT	CHAIR	FORT	10	[0, 0, 0]	-999	PAL1	5	R1365N
1110.837	2.128	1111137	PROBE_START	n/a	4	6	CHAIR	FORT	CHAIR	FORT	10	[0, 0, 0]	-999	PAL1	5	R1365N
1112.965	1.902	1113265	REC_EVENT	2128	4	6	CHAIR	FORT	CHAIR	FORT	10	[0, 0, 0]	-999	PAL1	5	R1365N
1114.867	1.001	1115167	PROBE_END	n/a	4	6	CHAIR	n/a	CHAIR	FORT	10	[0, 0, 0]	-999	PAL1	5	R1365N
1115.868	0.012	1116168	REC_END	n/a	4	6	CHAIR	n/a	CHAIR	FORT	10	[0, 0, 0]	-999	PAL1	5	R1365N
1115.88	0.0	1116180	RETRIEVAL_END	n/a	-999	-999	n/a	n/a	n/a	n/a	10	[0, 0, 0]	-999	PAL1	5	R1365N
1115.88	0.023	1116180	TRIAL_END	n/a	-999	-999	n/a	n/a	n/a	n/a	10	[0, 0, 0]	-999	PAL1	5	R1365N
1115.903	0.0	1116203	TRIAL	n/a	-999	-999	n/a	n/a	n/a	n/a	11	[0, 0, 0]	-999	PAL1	5	R1365N
1115.903	0.0	1116203	WAITING_START	n/a	-999	-999	n/a	n/a	n/a	n/a	11	[0, 0, 0]	-999	PAL1	5	R1365N
1115.903	3.581	1116203	TRIAL_START	n/a	-999	-999	n/a	n/a	n/a	n/a	10	[0, 0, 0]	-999	PAL1	5	R1365N
1119.484	0.0	1119784	WAITING_END	n/a	-999	-999	n/a	n/a	n/a	n/a	11	[0, 0, 0]	-999	PAL1	5	R1365N
1119.484	10.429	1119784	COUNTDOWN_START	n/a	-999	-999	n/a	n/a	n/a	n/a	11	[0, 0, 0]	-999	PAL1	5	R1365N
1129.913	0.0	1130213	COUNTDOWN_END	n/a	-999	-999	n/a	n/a	n/a	n/a	11	[0, 0, 0]	-999	PAL1	5	R1365N
1129.913	0.706	1130213	ORIENT_START	n/a	-999	-999	n/a	n/a	n/a	n/a	11	[0, 0, 0]	-999	PAL1	5	R1365N
1130.619	0.001	1130919	ORIENT_END	n/a	-999	-999	n/a	n/a	n/a	n/a	11	[0, 0, 0]	-999	PAL1	5	R1365N
1130.62	1.183	1130920	ENCODING_START	n/a	-999	-999	n/a	n/a	n/a	n/a	11	[0, 0, 0]	-999	PAL1	5	R1365N
1131.803	4.036	1132103	STUDY_PAIR	n/a	1	5	n/a	TOOL	TOOL	OAK	11	[0, 0, 0]	-999	PAL1	5	R1365N
1135.839	0.561	1136139	STUDY_PAIR_OFF	n/a	1	5	n/a	TOOL	TOOL	OAK	11	[0, 0, 0]	-999	PAL1	5	R1365N
1136.4	4.037	1136700	STUDY_PAIR	n/a	2	6	n/a	n/a	MOUTH	STORE	11	[0, 0, 0]	-999	PAL1	5	R1365N
1140.437	0.501	1140737	STUDY_PAIR_OFF	n/a	2	6	n/a	n/a	MOUTH	STORE	11	[0, 0, 0]	-999	PAL1	5	R1365N
1140.938	4.034	1141237	STUDY_PAIR	n/a	3	3	n/a	n/a	FOAM	WALL	11	[0, 0, 0]	-999	PAL1	5	R1365N
1144.972	0.674	1145271	STUDY_PAIR_OFF	n/a	3	3	n/a	n/a	FOAM	WALL	11	[0, 0, 0]	-999	PAL1	5	R1365N
1145.646	4.026	1145945	STUDY_PAIR	n/a	4	4	n/a	n/a	LAKE	DESK	11	[0, 0, 0]	-999	PAL1	5	R1365N
1149.672	0.507	1149971	STUDY_PAIR_OFF	n/a	4	4	n/a	n/a	LAKE	DESK	11	[0, 0, 0]	-999	PAL1	5	R1365N
1150.179	4.027	1150478	STUDY_PAIR	n/a	5	1	n/a	n/a	FLAG	TRAIN	11	[0, 0, 0]	-999	PAL1	5	R1365N
1154.206	0.595	1154505	STUDY_PAIR_OFF	n/a	5	1	n/a	n/a	FLAG	TRAIN	11	[0, 0, 0]	-999	PAL1	5	R1365N
1154.801	4.024	1155100	STUDY_PAIR	n/a	6	2	n/a	n/a	BAND	MAIL	11	[0, 0, 0]	-999	PAL1	5	R1365N
1158.825	0.0	1159124	STUDY_PAIR_OFF	n/a	6	2	n/a	n/a	BAND	MAIL	11	[0, 0, 0]	-999	PAL1	5	R1365N
1158.825	0.0	1159124	ENCODING_END	n/a	-999	-999	n/a	n/a	n/a	n/a	11	[0, 0, 0]	-999	PAL1	5	R1365N
1158.825	0.001	1159124	MATH_START	n/a	-999	-999	n/a	n/a	n/a	n/a	11	[0, 0, 0]	-999	PAL1	5	R1365N
1158.826	0.015	1159125	START	n/a	-999	-999	n/a	n/a	n/a	n/a	11	[-999, -999, -999]	-999	PAL1	5	R1365N
1158.841	7.467	1159140	PROB	7444	-999	-999	n/a	n/a	n/a	n/a	11	[7, 8, 2]	17	PAL1	5	R1365N
1166.308	4.435	1166607	PROB	4400	-999	-999	n/a	n/a	n/a	n/a	11	[2, 6, 8]	16	PAL1	5	R1365N
1170.743	5.517	1171042	PROB	5493	-999	-999	n/a	n/a	n/a	n/a	11	[8, 3, 4]	15	PAL1	5	R1365N
1176.26	7.657	1176558	PROB	7657	-999	-999	n/a	n/a	n/a	n/a	11	[8, 3, 9]	20	PAL1	5	R1365N
1183.917	0.012	1184215	STOP	n/a	-999	-999	n/a	n/a	n/a	n/a	11	[-999, -999, -999]	-999	PAL1	5	R1365N
1183.929	0.502	1184227	MATH_END	n/a	-999	-999	n/a	n/a	n/a	n/a	11	[0, 0, 0]	-999	PAL1	5	R1365N
1184.431	0.002	1184729	RETRIEVAL_START	n/a	-999	-999	n/a	n/a	n/a	n/a	11	[0, 0, 0]	-999	PAL1	5	R1365N
1184.433	0.278	1184731	ORIENT_START	n/a	-999	-999	n/a	n/a	n/a	n/a	11	[0, 0, 0]	-999	PAL1	5	R1365N
1184.711	0.512	1185009	ORIENT_END	n/a	-999	-999	n/a	n/a	n/a	n/a	11	[0, 0, 0]	-999	PAL1	5	R1365N
1185.223	0.0	1185521	REC_START	n/a	5	1	FLAG	n/a	FLAG	TRAIN	11	[0, 0, 0]	-999	PAL1	5	R1365N
1185.223	4.022	1185521	PROBE_START	n/a	5	1	FLAG	n/a	FLAG	TRAIN	11	[0, 0, 0]	-999	PAL1	5	R1365N
1189.245	1.0	1189543	PROBE_END	n/a	5	1	FLAG	n/a	FLAG	TRAIN	11	[0, 0, 0]	-999	PAL1	5	R1365N
1190.245	0.012	1190543	REC_END	n/a	5	1	FLAG	n/a	FLAG	TRAIN	11	[0, 0, 0]	-999	PAL1	5	R1365N
1190.257	0.272	1190555	ORIENT_START	n/a	-999	-999	n/a	n/a	n/a	n/a	11	[0, 0, 0]	-999	PAL1	5	R1365N
1190.529	0.504	1190827	ORIENT_END	n/a	-999	-999	n/a	n/a	n/a	n/a	11	[0, 0, 0]	-999	PAL1	5	R1365N
1191.033	0.202	1191331	REC_EVENT	5810	5	1	FLAG	<>	FLAG	TRAIN	11	[0, 0, 0]	-999	PAL1	5	R1365N
1191.235	0.0	1191533	REC_START	n/a	6	2	BAND	n/a	BAND	MAIL	11	[0, 0, 0]	-999	PAL1	5	R1365N
1191.235	4.028	1191533	PROBE_START	n/a	6	2	BAND	n/a	BAND	MAIL	11	[0, 0, 0]	-999	PAL1	5	R1365N
1195.263	1.001	1195561	PROBE_END	n/a	6	2	BAND	n/a	BAND	MAIL	11	[0, 0, 0]	-999	PAL1	5	R1365N
1196.264	0.012	1196562	REC_END	n/a	6	2	BAND	n/a	BAND	MAIL	11	[0, 0, 0]	-999	PAL1	5	R1365N
1196.276	0.27	1196574	ORIENT_START	n/a	-999	-999	n/a	n/a	n/a	n/a	11	[0, 0, 0]	-999	PAL1	5	R1365N
1196.546	0.697	1196844	ORIENT_END	n/a	-999	-999	n/a	n/a	n/a	n/a	11	[0, 0, 0]	-999	PAL1	5	R1365N
1197.243	0.046	1197541	REC_EVENT	6008	6	2	BAND	<>	BAND	MAIL	11	[0, 0, 0]	-999	PAL1	5	R1365N
1197.289	0.001	1197587	REC_START	n/a	3	3	WALL	n/a	FOAM	WALL	11	[0, 0, 0]	-999	PAL1	5	R1365N
1197.29	4.024	1197588	PROBE_START	n/a	3	3	WALL	n/a	FOAM	WALL	11	[0, 0, 0]	-999	PAL1	5	R1365N
1201.314	1.0	1201612	PROBE_END	n/a	3	3	WALL	n/a	FOAM	WALL	11	[0, 0, 0]	-999	PAL1	5	R1365N
1202.314	0.007	1202612	REC_END	n/a	3	3	WALL	n/a	FOAM	WALL	11	[0, 0, 0]	-999	PAL1	5	R1365N
1202.321	0.276	1202619	ORIENT_START	n/a	-999	-999	n/a	n/a	n/a	n/a	11	[0, 0, 0]	-999	PAL1	5	R1365N
1202.597	0.645	1202895	ORIENT_END	n/a	-999	-999	n/a	n/a	n/a	n/a	11	[0, 0, 0]	-999	PAL1	5	R1365N
1203.242	0.001	1203540	REC_START	n/a	4	4	DESK	n/a	LAKE	DESK	11	[0, 0, 0]	-999	PAL1	5	R1365N
1203.243	0.084	1203541	PROBE_START	n/a	4	4	DESK	n/a	LAKE	DESK	11	[0, 0, 0]	-999	PAL1	5	R1365N
1203.327	3.955	1203625	REC_EVENT	6037	3	3	WALL	<>	FOAM	WALL	11	[0, 0, 0]	-999	PAL1	5	R1365N
1207.282	1.0	1207580	PROBE_END	n/a	4	4	DESK	n/a	LAKE	DESK	11	[0, 0, 0]	-999	PAL1	5	R1365N
1208.282	0.013	1208580	REC_END	n/a	4	4	DESK	n/a	LAKE	DESK	11	[0, 0, 0]	-999	PAL1	5	R1365N
1208.295	0.27	1208593	ORIENT_START	n/a	-999	-999	n/a	n/a	n/a	n/a	11	[0, 0, 0]	-999	PAL1	5	R1365N
1208.565	0.611	1208863	ORIENT_END	n/a	-999	-999	n/a	n/a	n/a	n/a	11	[0, 0, 0]	-999	PAL1	5	R1365N
1209.176	0.0	1209473	REC_START	n/a	1	5	OAK	TOOL	TOOL	OAK	11	[0, 0, 0]	-999	PAL1	5	R1365N
1209.176	0.028	1209473	PROBE_START	n/a	1	5	OAK	TOOL	TOOL	OAK	11	[0, 0, 0]	-999	PAL1	5	R1365N
1209.204	2.69	1209501	REC_EVENT	5961	4	4	DESK	<>	LAKE	DESK	11	[0, 0, 0]	-999	PAL1	5	R1365N
1211.894	1.288	1212191	REC_EVENT	2718	1	5	OAK	TOOL	TOOL	OAK	11	[0, 0, 0]	-999	PAL1	5	R1365N
1213.182	1.0	1213479	PROBE_END	n/a	1	5	OAK	n/a	TOOL	OAK	11	[0, 0, 0]	-999	PAL1	5	R1365N
1214.182	0.013	1214479	REC_END	n/a	1	5	OAK	n/a	TOOL	OAK	11	[0, 0, 0]	-999	PAL1	5	R1365N
1214.195	0.271	1214492	ORIENT_START	n/a	-999	-999	n/a	n/a	n/a	n/a	11	[0, 0, 0]	-999	PAL1	5	R1365N
1214.466	0.545	1214763	ORIENT_END	n/a	-999	-999	n/a	n/a	n/a	n/a	11	[0, 0, 0]	-999	PAL1	5	R1365N
1215.011	0.0	1215308	PROBE_START	n/a	2	6	MOUTH	n/a	MOUTH	STORE	11	[0, 0, 0]	-999	PAL1	5	R1365N
1215.011	4.024	1215308	REC_START	n/a	2	6	MOUTH	n/a	MOUTH	STORE	11	[0, 0, 0]	-999	PAL1	5	R1365N
1219.035	0.999	1219332	PROBE_END	n/a	2	6	MOUTH	n/a	MOUTH	STORE	11	[0, 0, 0]	-999	PAL1	5	R1365N
1220.034	0.012	1220331	REC_END	n/a	2	6	MOUTH	n/a	MOUTH	STORE	11	[0, 0, 0]	-999	PAL1	5	R1365N
1220.046	0.0	1220343	RETRIEVAL_END	n/a	-999	-999	n/a	n/a	n/a	n/a	11	[0, 0, 0]	-999	PAL1	5	R1365N
1220.046	0.021	1220343	TRIAL_END	n/a	-999	-999	n/a	n/a	n/a	n/a	11	[0, 0, 0]	-999	PAL1	5	R1365N
1220.067	0.0	1220364	TRIAL_START	n/a	-999	-999	n/a	n/a	n/a	n/a	11	[0, 0, 0]	-999	PAL1	5	R1365N
1220.067	0.0	1220364	TRIAL	n/a	-999	-999	n/a	n/a	n/a	n/a	12	[0, 0, 0]	-999	PAL1	5	R1365N
1220.067	0.783	1220364	WAITING_START	n/a	-999	-999	n/a	n/a	n/a	n/a	12	[0, 0, 0]	-999	PAL1	5	R1365N
1220.85	2.152	1221147	REC_EVENT	5839	2	6	MOUTH	<>	MOUTH	STORE	11	[0, 0, 0]	-999	PAL1	5	R1365N
1223.002	0.0	1223299	WAITING_END	n/a	-999	-999	n/a	n/a	n/a	n/a	12	[0, 0, 0]	-999	PAL1	5	R1365N
1223.002	10.428	1223299	COUNTDOWN_START	n/a	-999	-999	n/a	n/a	n/a	n/a	12	[0, 0, 0]	-999	PAL1	5	R1365N
1233.43	0.001	1233727	COUNTDOWN_END	n/a	-999	-999	n/a	n/a	n/a	n/a	12	[0, 0, 0]	-999	PAL1	5	R1365N
1233.431	0.673	1233728	ORIENT_START	n/a	-999	-999	n/a	n/a	n/a	n/a	12	[0, 0, 0]	-999	PAL1	5	R1365N
1234.104	0.0	1234401	ENCODING_START	n/a	-999	-999	n/a	n/a	n/a	n/a	12	[0, 0, 0]	-999	PAL1	5	R1365N
1234.104	1.082	1234401	ORIENT_END	n/a	-999	-999	n/a	n/a	n/a	n/a	12	[0, 0, 0]	-999	PAL1	5	R1365N
1235.186	4.034	1235483	STUDY_PAIR	n/a	1	5	n/a	n/a	BROOM	VEST	12	[0, 0, 0]	-999	PAL1	5	R1365N
1239.22	0.536	1239517	STUDY_PAIR_OFF	n/a	1	5	n/a	n/a	BROOM	VEST	12	[0, 0, 0]	-999	PAL1	5	R1365N
1239.756	4.033	1240053	STUDY_PAIR	n/a	2	2	n/a	SEA	SEA	SPEAR	12	[0, 0, 0]	-999	PAL1	5	R1365N
1243.789	0.52	1244085	STUDY_PAIR_OFF	n/a	2	2	n/a	SEA	SEA	SPEAR	12	[0, 0, 0]	-999	PAL1	5	R1365N
1244.309	4.029	1244605	STUDY_PAIR	n/a	3	1	n/a	n/a	BEAR	SHIP	12	[0, 0, 0]	-999	PAL1	5	R1365N
1248.338	0.528	1248634	STUDY_PAIR_OFF	n/a	3	1	n/a	n/a	BEAR	SHIP	12	[0, 0, 0]	-999	PAL1	5	R1365N
1248.866	4.024	1249162	STUDY_PAIR	n/a	4	6	n/a	n/a	STRING	PIPE	12	[0, 0, 0]	-999	PAL1	5	R1365N
1252.89	0.528	1253186	STUDY_PAIR_OFF	n/a	4	6	n/a	n/a	STRING	PIPE	12	[0, 0, 0]	-999	PAL1	5	R1365N
1253.418	4.039	1253714	STUDY_PAIR	n/a	5	3	n/a	n/a	MAZE	PLANT	12	[0, 0, 0]	-999	PAL1	5	R1365N
1257.457	0.645	1257753	STUDY_PAIR_OFF	n/a	5	3	n/a	n/a	MAZE	PLANT	12	[0, 0, 0]	-999	PAL1	5	R1365N
1258.102	4.04	1258398	STUDY_PAIR	n/a	6	4	n/a	n/a	SHELL	ROPE	12	[0, 0, 0]	-999	PAL1	5	R1365N
1262.142	0.0	1262438	ENCODING_END	n/a	-999	-999	n/a	n/a	n/a	n/a	12	[0, 0, 0]	-999	PAL1	5	R1365N
1262.142	0.0	1262438	STUDY_PAIR_OFF	n/a	6	4	n/a	n/a	SHELL	ROPE	12	[0, 0, 0]	-999	PAL1	5	R1365N
1262.142	0.001	1262438	MATH_START	n/a	-999	-999	n/a	n/a	n/a	n/a	12	[0, 0, 0]	-999	PAL1	5	R1365N
1262.143	0.015	1262439	START	n/a	-999	-999	n/a	n/a	n/a	n/a	12	[-999, -999, -999]	-999	PAL1	5	R1365N
1262.158	9.819	1262454	PROB	9783	-999	-999	n/a	n/a	n/a	n/a	12	[7, 9, 7]	23	PAL1	5	R1365N
1271.977	4.299	1272273	PROB	4275	-999	-999	n/a	n/a	n/a	n/a	12	[3, 9, 5]	17	PAL1	5	R1365N
1276.276	3.934	1276572	PROB	3905	-999	-999	n/a	n/a	n/a	n/a	12	[8, 6, 4]	18	PAL1	5	R1365N
1280.21	5.884	1280505	PROB	5884	-999	-999	n/a	n/a	n/a	n/a	12	[8, 3, 8]	19	PAL1	5	R1365N
1286.094	0.018	1286389	STOP	n/a	-999	-999	n/a	n/a	n/a	n/a	12	[-999, -999, -999]	-999	PAL1	5	R1365N
1286.112	0.638	1286407	MATH_END	n/a	-999	-999	n/a	n/a	n/a	n/a	12	[0, 0, 0]	-999	PAL1	5	R1365N
1286.75	0.001	1287045	RETRIEVAL_START	n/a	-999	-999	n/a	n/a	n/a	n/a	12	[0, 0, 0]	-999	PAL1	5	R1365N
1286.751	0.278	1287046	ORIENT_START	n/a	-999	-999	n/a	n/a	n/a	n/a	12	[0, 0, 0]	-999	PAL1	5	R1365N
1287.029	0.502	1287324	ORIENT_END	n/a	-999	-999	n/a	n/a	n/a	n/a	12	[0, 0, 0]	-999	PAL1	5	R1365N
1287.531	0.0	1287826	REC_START	n/a	3	1	SHIP	n/a	BEAR	SHIP	12	[0, 0, 0]	-999	PAL1	5	R1365N
1287.531	4.031	1287826	PROBE_START	n/a	3	1	SHIP	n/a	BEAR	SHIP	12	[0, 0, 0]	-999	PAL1	5	R1365N
1291.562	1.0	1291857	PROBE_END	n/a	3	1	SHIP	n/a	BEAR	SHIP	12	[0, 0, 0]	-999	PAL1	5	R1365N
1292.562	0.012	1292857	REC_END	n/a	3	1	SHIP	n/a	BEAR	SHIP	12	[0, 0, 0]	-999	PAL1	5	R1365N
1292.574	0.273	1292869	ORIENT_START	n/a	-999	-999	n/a	n/a	n/a	n/a	12	[0, 0, 0]	-999	PAL1	5	R1365N
1292.847	0.494	1293142	ORIENT_END	n/a	-999	-999	n/a	n/a	n/a	n/a	12	[0, 0, 0]	-999	PAL1	5	R1365N
1293.341	0.026	1293636	REC_EVENT	5810	3	1	SHIP	<>	BEAR	SHIP	12	[0, 0, 0]	-999	PAL1	5	R1365N
1293.367	0.0	1293662	REC_START	n/a	2	2	SPEAR	SEA	SEA	SPEAR	12	[0, 0, 0]	-999	PAL1	5	R1365N
1293.367	1.686	1293662	PROBE_START	n/a	2	2	SPEAR	SEA	SEA	SPEAR	12	[0, 0, 0]	-999	PAL1	5	R1365N
1295.053	2.344	1295348	REC_EVENT	1686	2	2	SPEAR	SEA	SEA	SPEAR	12	[0, 0, 0]	-999	PAL1	5	R1365N
1297.397	0.999	1297692	PROBE_END	n/a	2	2	SPEAR	n/a	SEA	SPEAR	12	[0, 0, 0]	-999	PAL1	5	R1365N
1298.396	0.013	1298691	REC_END	n/a	2	2	SPEAR	n/a	SEA	SPEAR	12	[0, 0, 0]	-999	PAL1	5	R1365N
1298.409	0.271	1298704	ORIENT_START	n/a	-999	-999	n/a	n/a	n/a	n/a	12	[0, 0, 0]	-999	PAL1	5	R1365N
1298.68	0.676	1298975	ORIENT_END	n/a	-999	-999	n/a	n/a	n/a	n/a	12	[0, 0, 0]	-999	PAL1	5	R1365N
1299.356	0.0	1299651	REC_START	n/a	5	3	MAZE	n/a	MAZE	PLANT	12	[0, 0, 0]	-999	PAL1	5	R1365N
1299.356	4.025	1299651	PROBE_START	n/a	5	3	MAZE	n/a	MAZE	PLANT	12	[0, 0, 0]	-999	PAL1	5	R1365N
1303.381	1.0	1303676	PROBE_END	n/a	5	3	MAZE	n/a	MAZE	PLANT	12	[0, 0, 0]	-999	PAL1	5	R1365N
1304.381	0.014	1304676	REC_END	n/a	5	3	MAZE	n/a	MAZE	PLANT	12	[0, 0, 0]	-999	PAL1	5	R1365N
1304.395	0.286	1304690	ORIENT_START	n/a	-999	-999	n/a	n/a	n/a	n/a	12	[0, 0, 0]	-999	PAL1	5	R1365N
1304.681	0.631	1304976	ORIENT_END	n/a	-999	-999	n/a	n/a	n/a	n/a	12	[0, 0, 0]	-999	PAL1	5	R1365N
1305.312	0.0	1305607	REC_START	n/a	6	4	SHELL	n/a	SHELL	ROPE	12	[0, 0, 0]	-999	PAL1	5	R1365N
1305.312	0.017	1305607	PROBE_START	n/a	6	4	SHELL	n/a	SHELL	ROPE	12	[0, 0, 0]	-999	PAL1	5	R1365N
1305.329	4.019	1305624	REC_EVENT	5973	5	3	MAZE	<>	MAZE	PLANT	12	[0, 0, 0]	-999	PAL1	5	R1365N
1309.348	1.0	1309643	PROBE_END	n/a	6	4	SHELL	n/a	SHELL	ROPE	12	[0, 0, 0]	-999	PAL1	5	R1365N
1310.348	0.013	1310643	REC_END	n/a	6	4	SHELL	n/a	SHELL	ROPE	12	[0, 0, 0]	-999	PAL1	5	R1365N
1310.361	0.271	1310656	ORIENT_START	n/a	-999	-999	n/a	n/a	n/a	n/a	12	[0, 0, 0]	-999	PAL1	5	R1365N
1310.632	0.6	1310927	ORIENT_END	n/a	-999	-999	n/a	n/a	n/a	n/a	12	[0, 0, 0]	-999	PAL1	5	R1365N
1311.232	0.0	1311526	PROBE_START	n/a	1	5	BROOM	n/a	BROOM	VEST	12	[0, 0, 0]	-999	PAL1	5	R1365N
1311.232	0.035	1311526	REC_START	n/a	1	5	BROOM	n/a	BROOM	VEST	12	[0, 0, 0]	-999	PAL1	5	R1365N
1311.267	3.999	1311561	REC_EVENT	5955	6	4	SHELL	<>	SHELL	ROPE	12	[0, 0, 0]	-999	PAL1	5	R1365N
1315.266	1.001	1315560	PROBE_END	n/a	1	5	BROOM	n/a	BROOM	VEST	12	[0, 0, 0]	-999	PAL1	5	R1365N
1316.267	0.013	1316561	REC_END	n/a	1	5	BROOM	n/a	BROOM	VEST	12	[0, 0, 0]	-999	PAL1	5	R1365N
1316.28	0.286	1316574	ORIENT_START	n/a	-999	-999	n/a	n/a	n/a	n/a	12	[0, 0, 0]	-999	PAL1	5	R1365N
1316.566	0.569	1316860	ORIENT_END	n/a	-999	-999	n/a	n/a	n/a	n/a	12	[0, 0, 0]	-999	PAL1	5	R1365N
1317.135	0.125	1317429	REC_EVENT	5903	1	5	BROOM	<>	BROOM	VEST	12	[0, 0, 0]	-999	PAL1	5	R1365N
1317.26	0.001	1317554	REC_START	n/a	4	6	PIPE	n/a	STRING	PIPE	12	[0, 0, 0]	-999	PAL1	5	R1365N
1317.261	4.023	1317555	PROBE_START	n/a	4	6	PIPE	n/a	STRING	PIPE	12	[0, 0, 0]	-999	PAL1	5	R1365N
1321.284	1.0	1321578	PROBE_END	n/a	4	6	PIPE	n/a	STRING	PIPE	12	[0, 0, 0]	-999	PAL1	5	R1365N
1322.284	0.013	1322578	REC_END	n/a	4	6	PIPE	n/a	STRING	PIPE	12	[0, 0, 0]	-999	PAL1	5	R1365N
1322.297	0.001	1322591	RETRIEVAL_END	n/a	-999	-999	n/a	n/a	n/a	n/a	12	[0, 0, 0]	-999	PAL1	5	R1365N
1322.298	0.022	1322592	TRIAL_END	n/a	-999	-999	n/a	n/a	n/a	n/a	12	[0, 0, 0]	-999	PAL1	5	R1365N
1322.32	0.0	1322614	WAITING_START	n/a	-999	-999	n/a	n/a	n/a	n/a	13	[0, 0, 0]	-999	PAL1	5	R1365N
1322.32	0.0	1322614	TRIAL	n/a	-999	-999	n/a	n/a	n/a	n/a	13	[0, 0, 0]	-999	PAL1	5	R1365N
1322.32	0.943	1322614	TRIAL_START	n/a	-999	-999	n/a	n/a	n/a	n/a	12	[0, 0, 0]	-999	PAL1	5	R1365N
1323.263	2820.405	1323557	REC_EVENT	6002	4	6	PIPE	<>	STRING	PIPE	12	[0, 0, 0]	-999	PAL1	5	R1365N
4143.668	5.9	4143879	INSTRUCT_START	n/a	-999	-999	n/a	n/a	n/a	n/a	13	[0, 0, 0]	-999	PAL1	5	R1365N
4149.568	8.885	4149779	INSTRUCT_END	n/a	-999	-999	n/a	n/a	n/a	n/a	13	[0, 0, 0]	-999	PAL1	5	R1365N
4158.453	7.349	4158664	MIC TEST_START	n/a	-999	-999	n/a	n/a	n/a	n/a	13	[0, 0, 0]	-999	PAL1	5	R1365N
4165.802	0.011	4166013	MIC TEST_END	n/a	-999	-999	n/a	n/a	n/a	n/a	13	[0, 0, 0]	-999	PAL1	5	R1365N
4165.813	0.001	4166024	TRIAL_START	n/a	-999	-999	n/a	n/a	n/a	n/a	13	[0, 0, 0]	-999	PAL1	5	R1365N
4165.814	0.0	4166025	TRIAL	n/a	-999	-999	n/a	n/a	n/a	n/a	-1	[0, 0, 0]	-999	PAL1	5	R1365N
4165.814	1.408	4166025	WAITING_START	n/a	-999	-999	n/a	n/a	n/a	n/a	-1	[0, 0, 0]	-999	PAL1	5	R1365N
4167.222	0.0	4167433	WAITING_END	n/a	-999	-999	n/a	n/a	n/a	n/a	-1	[0, 0, 0]	-999	PAL1	5	R1365N
4167.222	10.431	4167433	COUNTDOWN_START	n/a	-999	-999	n/a	n/a	n/a	n/a	-1	[0, 0, 0]	-999	PAL1	5	R1365N
4177.653	0.001	4177863	COUNTDOWN_END	n/a	-999	-999	n/a	n/a	n/a	n/a	-1	[0, 0, 0]	-999	PAL1	5	R1365N
4177.654	0.603	4177864	ORIENT_START	n/a	-999	-999	n/a	n/a	n/a	n/a	-1	[0, 0, 0]	-999	PAL1	5	R1365N
4178.257	0.0	4178467	ENCODING_START	n/a	-999	-999	n/a	n/a	n/a	n/a	-1	[0, 0, 0]	-999	PAL1	5	R1365N
4178.257	1.048	4178467	ORIENT_END	n/a	-999	-999	n/a	n/a	n/a	n/a	-1	[0, 0, 0]	-999	PAL1	5	R1365N
4179.305	4.036	4179515	STUDY_PAIR	n/a	1	5	n/a	TONGUE	FLOOD	TONGUE	-1	[0, 0, 0]	-999	PAL1	5	R1365N
4183.341	0.639	4183551	STUDY_PAIR_OFF	n/a	1	5	n/a	TONGUE	FLOOD	TONGUE	-1	[0, 0, 0]	-999	PAL1	5	R1365N
4183.98	4.028	4184190	STUDY_PAIR	n/a	2	4	n/a	CAMEL	CAMEL	BABY	-1	[0, 0, 0]	-999	PAL1	5	R1365N
4188.008	0.541	4188218	STUDY_PAIR_OFF	n/a	2	4	n/a	CAMEL	CAMEL	BABY	-1	[0, 0, 0]	-999	PAL1	5	R1365N
4188.549	4.026	4188759	STUDY_PAIR	n/a	3	3	n/a	BEAM	BEAM	RING	-1	[0, 0, 0]	-999	PAL1	5	R1365N
4192.575	0.584	4192785	STUDY_PAIR_OFF	n/a	3	3	n/a	BEAM	BEAM	RING	-1	[0, 0, 0]	-999	PAL1	5	R1365N
4193.159	4.034	4193369	STUDY_PAIR	n/a	4	2	n/a	IMAGE	IMAGE	WAGON	-1	[0, 0, 0]	-999	PAL1	5	R1365N
4197.193	0.738	4197403	STUDY_PAIR_OFF	n/a	4	2	n/a	IMAGE	IMAGE	WAGON	-1	[0, 0, 0]	-999	PAL1	5	R1365N
4197.931	4.029	4198141	STUDY_PAIR	n/a	5	1	n/a	COTTON	WATCH	COTTON	-1	[0, 0, 0]	-999	PAL1	5	R1365N
4201.96	0.703	4202170	STUDY_PAIR_OFF	n/a	5	1	n/a	COTTON	WATCH	COTTON	-1	[0, 0, 0]	-999	PAL1	5	R1365N
4202.663	4.031	4202873	STUDY_PAIR	n/a	6	6	n/a	CHEST	RHINO	CHEST	-1	[0, 0, 0]	-999	PAL1	5	R1365N
4206.694	0.0	4206903	STUDY_PAIR_OFF	n/a	6	6	n/a	CHEST	RHINO	CHEST	-1	[0, 0, 0]	-999	PAL1	5	R1365N
4206.694	0.001	4206903	ENCODING_END	n/a	-999	-999	n/a	n/a	n/a	n/a	-1	[0, 0, 0]	-999	PAL1	5	R1365N
4206.695	0.0	4206904	MATH_START	n/a	-999	-999	n/a	n/a	n/a	n/a	-1	[0, 0, 0]	-999	PAL1	5	R1365N
4206.695	0.015	4206904	START	n/a	-999	-999	n/a	n/a	n/a	n/a	13	[-999, -999, -999]	-999	PAL1	5	R1365N
4206.71	6.751	4206919	PROB	6718	-999	-999	n/a	n/a	n/a	n/a	13	[8, 4, 6]	18	PAL1	5	R1365N
4213.461	6.786	4213670	PROB	6760	-999	-999	n/a	n/a	n/a	n/a	13	[8, 5, 6]	19	PAL1	5	R1365N
4220.247	3.017	4220456	PROB	2990	-999	-999	n/a	n/a	n/a	n/a	13	[1, 7, 3]	11	PAL1	5	R1365N
4223.264	3.774	4223473	PROB	3774	-999	-999	n/a	n/a	n/a	n/a	13	[6, 4, 6]	14	PAL1	5	R1365N
4227.038	0.01	4227247	STOP	n/a	-999	-999	n/a	n/a	n/a	n/a	13	[-999, -999, -999]	-999	PAL1	5	R1365N
4227.048	0.633	4227257	MATH_END	n/a	-999	-999	n/a	n/a	n/a	n/a	-1	[0, 0, 0]	-999	PAL1	5	R1365N
4227.681	0.001	4227890	RETRIEVAL_START	n/a	-999	-999	n/a	n/a	n/a	n/a	-1	[0, 0, 0]	-999	PAL1	5	R1365N
4227.682	0.283	4227891	ORIENT_START	n/a	-999	-999	n/a	n/a	n/a	n/a	-1	[0, 0, 0]	-999	PAL1	5	R1365N
4227.965	0.546	4228174	ORIENT_END	n/a	-999	-999	n/a	n/a	n/a	n/a	-1	[0, 0, 0]	-999	PAL1	5	R1365N
4228.511	0.0	4228720	REC_START	n/a	5	1	WATCH	COTTON	WATCH	COTTON	-1	[0, 0, 0]	-999	PAL1	5	R1365N
4228.511	2.204	4228720	PROBE_START	n/a	5	1	WATCH	COTTON	WATCH	COTTON	-1	[0, 0, 0]	-999	PAL1	5	R1365N
4230.715	1.833	4230924	REC_EVENT	2204	5	1	WATCH	COTTON	WATCH	COTTON	-1	[0, 0, 0]	-999	PAL1	5	R1365N
4232.548	1.001	4232757	PROBE_END	n/a	5	1	WATCH	n/a	WATCH	COTTON	-1	[0, 0, 0]	-999	PAL1	5	R1365N
4233.549	0.011	4233758	REC_END	n/a	5	1	WATCH	n/a	WATCH	COTTON	-1	[0, 0, 0]	-999	PAL1	5	R1365N
4233.56	0.273	4233769	ORIENT_START	n/a	-999	-999	n/a	n/a	n/a	n/a	-1	[0, 0, 0]	-999	PAL1	5	R1365N
4233.833	0.526	4234042	ORIENT_END	n/a	-999	-999	n/a	n/a	n/a	n/a	-1	[0, 0, 0]	-999	PAL1	5	R1365N
4234.359	0.0	4234568	REC_START	n/a	4	2	WAGON	IMAGE	IMAGE	WAGON	-1	[0, 0, 0]	-999	PAL1	5	R1365N
4234.359	1.85	4234568	PROBE_START	n/a	4	2	WAGON	IMAGE	IMAGE	WAGON	-1	[0, 0, 0]	-999	PAL1	5	R1365N
4236.209	0.642	4236418	REC_EVENT	1850	4	2	WAGON	IMAGE	IMAGE	WAGON	-1	[0, 0, 0]	-999	PAL1	5	R1365N
4236.851	1.531	4237060	REC_EVENT	2492	4	2	WAGON	IMAGE	IMAGE	WAGON	-1	[0, 0, 0]	-999	PAL1	5	R1365N
4238.382	1.001	4238590	PROBE_END	n/a	4	2	WAGON	n/a	IMAGE	WAGON	-1	[0, 0, 0]	-999	PAL1	5	R1365N
4239.383	0.012	4239591	REC_END	n/a	4	2	WAGON	n/a	IMAGE	WAGON	-1	[0, 0, 0]	-999	PAL1	5	R1365N
4239.395	0.271	4239603	ORIENT_START	n/a	-999	-999	n/a	n/a	n/a	n/a	-1	[0, 0, 0]	-999	PAL1	5	R1365N
4239.666	0.699	4239874	ORIENT_END	n/a	-999	-999	n/a	n/a	n/a	n/a	-1	[0, 0, 0]	-999	PAL1	5	R1365N
4240.365	0.0	4240573	REC_START	n/a	3	3	RING	BEAM	BEAM	RING	-1	[0, 0, 0]	-999	PAL1	5	R1365N
4240.365	2.175	4240573	PROBE_START	n/a	3	3	RING	BEAM	BEAM	RING	-1	[0, 0, 0]	-999	PAL1	5	R1365N
4242.54	1.86	4242748	REC_EVENT	2175	3	3	RING	BEAM	BEAM	RING	-1	[0, 0, 0]	-999	PAL1	5	R1365N
4244.4	1.0	4244608	PROBE_END	n/a	3	3	RING	n/a	BEAM	RING	-1	[0, 0, 0]	-999	PAL1	5	R1365N
4245.4	0.01	4245608	REC_END	n/a	3	3	RING	n/a	BEAM	RING	-1	[0, 0, 0]	-999	PAL1	5	R1365N
4245.41	0.273	4245618	ORIENT_START	n/a	-999	-999	n/a	n/a	n/a	n/a	-1	[0, 0, 0]	-999	PAL1	5	R1365N
4245.683	0.6	4245891	ORIENT_END	n/a	-999	-999	n/a	n/a	n/a	n/a	-1	[0, 0, 0]	-999	PAL1	5	R1365N
4246.283	0.0	4246491	REC_START	n/a	2	4	BABY	CAMEL	CAMEL	BABY	-1	[0, 0, 0]	-999	PAL1	5	R1365N
4246.283	1.849	4246491	PROBE_START	n/a	2	4	BABY	CAMEL	CAMEL	BABY	-1	[0, 0, 0]	-999	PAL1	5	R1365N
4248.132	2.187	4248340	REC_EVENT	1849	2	4	BABY	CAMEL	CAMEL	BABY	-1	[0, 0, 0]	-999	PAL1	5	R1365N
4250.319	1.0	4250527	PROBE_END	n/a	2	4	BABY	n/a	CAMEL	BABY	-1	[0, 0, 0]	-999	PAL1	5	R1365N
4251.319	0.013	4251527	REC_END	n/a	2	4	BABY	n/a	CAMEL	BABY	-1	[0, 0, 0]	-999	PAL1	5	R1365N
4251.332	0.269	4251540	ORIENT_START	n/a	-999	-999	n/a	n/a	n/a	n/a	-1	[0, 0, 0]	-999	PAL1	5	R1365N
4251.601	0.698	4251809	ORIENT_END	n/a	-999	-999	n/a	n/a	n/a	n/a	-1	[0, 0, 0]	-999	PAL1	5	R1365N
4252.299	0.0	4252507	PROBE_START	n/a	1	5	FLOOD	TONGUE	FLOOD	TONGUE	-1	[0, 0, 0]	-999	PAL1	5	R1365N
4252.299	1.93	4252507	REC_START	n/a	1	5	FLOOD	TONGUE	FLOOD	TONGUE	-1	[0, 0, 0]	-999	PAL1	5	R1365N
4254.229	2.107	4254437	REC_EVENT	1930	1	5	FLOOD	TONGUE	FLOOD	TONGUE	-1	[0, 0, 0]	-999	PAL1	5	R1365N
4256.336	1.001	4256544	PROBE_END	n/a	1	5	FLOOD	n/a	FLOOD	TONGUE	-1	[0, 0, 0]	-999	PAL1	5	R1365N
4257.337	0.012	4257545	REC_END	n/a	1	5	FLOOD	n/a	FLOOD	TONGUE	-1	[0, 0, 0]	-999	PAL1	5	R1365N
4257.349	0.287	4257557	ORIENT_START	n/a	-999	-999	n/a	n/a	n/a	n/a	-1	[0, 0, 0]	-999	PAL1	5	R1365N
4257.636	0.71	4257844	ORIENT_END	n/a	-999	-999	n/a	n/a	n/a	n/a	-1	[0, 0, 0]	-999	PAL1	5	R1365N
4258.346	0.001	4258554	REC_START	n/a	6	6	RHINO	CHEST	RHINO	CHEST	-1	[0, 0, 0]	-999	PAL1	5	R1365N
4258.347	1.852	4258555	PROBE_START	n/a	6	6	RHINO	CHEST	RHINO	CHEST	-1	[0, 0, 0]	-999	PAL1	5	R1365N
4260.199	2.187	4260407	REC_EVENT	1852	6	6	RHINO	CHEST	RHINO	CHEST	-1	[0, 0, 0]	-999	PAL1	5	R1365N
4262.386	1.001	4262594	PROBE_END	n/a	6	6	RHINO	n/a	RHINO	CHEST	-1	[0, 0, 0]	-999	PAL1	5	R1365N
4263.387	0.013	4263595	REC_END	n/a	6	6	RHINO	n/a	RHINO	CHEST	-1	[0, 0, 0]	-999	PAL1	5	R1365N
4263.4	0.0	4263608	RETRIEVAL_END	n/a	-999	-999	n/a	n/a	n/a	n/a	-1	[0, 0, 0]	-999	PAL1	5	R1365N
4263.4	4.405	4263608	PRACTICE_POST_INSTRUCT_START	n/a	-999	-999	n/a	n/a	n/a	n/a	-1	[0, 0, 0]	-999	PAL1	5	R1365N
4267.805	0.001	4268013	PRACTICE_POST_INSTRUCT_END	n/a	-999	-999	n/a	n/a	n/a	n/a	-1	[0, 0, 0]	-999	PAL1	5	R1365N
4267.806	0.025	4268014	TRIAL_END	n/a	-999	-999	n/a	n/a	n/a	n/a	-1	[0, 0, 0]	-999	PAL1	5	R1365N
4267.831	0.0	4268039	TRIAL	n/a	-999	-999	n/a	n/a	n/a	n/a	1	[0, 0, 0]	-999	PAL1	5	R1365N
4267.831	0.0	4268039	TRIAL_START	n/a	-999	-999	n/a	n/a	n/a	n/a	-1	[0, 0, 0]	-999	PAL1	5	R1365N
4267.831	0.0	4268039	WAITING_START	n/a	-999	-999	n/a	n/a	n/a	n/a	1	[0, 0, 0]	-999	PAL1	5	R1365N
