onset	duration	sample	trial_type	response_time	stim_file	serialpos	probepos	probe_word	resp_word	study_1	study_2	list	test	answer	experiment	session	subject
0.0	86.033	1076493	SESS_START	n/a	n/a	-999	-999	n/a	n/a	n/a	n/a	-999	[0, 0, 0]	-999	PAL1	1	R1149N
86.033	1.016	1162521	START	n/a	n/a	-999	-999	n/a	n/a	n/a	n/a	-1	[-999, -999, -999]	-999	PAL1	1	R1149N
87.049	4.635	1163537	PROB	4599.0	n/a	-999	-999	n/a	n/a	n/a	n/a	-1	[6, 2, 2]	10	PAL1	1	R1149N
91.684	7.168	1168172	PROB	7148.0	n/a	-999	-999	n/a	n/a	n/a	n/a	-1	[8, 6, 6]	24	PAL1	1	R1149N
98.852	5.133	1175340	PROB	5099.0	n/a	-999	-999	n/a	n/a	n/a	n/a	-1	[1, 3, 8]	12	PAL1	1	R1149N
103.985	9.03	1180472	PROB	9030.0	n/a	-999	-999	n/a	n/a	n/a	n/a	-1	[4, 9, 7]	12	PAL1	1	R1149N
113.015	42.153	1189502	STOP	n/a	n/a	-999	-999	n/a	n/a	n/a	n/a	-1	[-999, -999, -999]	-999	PAL1	1	R1149N
155.168	10.445	1231653	ENCODING_START	n/a	n/a	0	-999	n/a	n/a	n/a	n/a	1	[0, 0, 0]	-999	PAL1	1	R1149N
165.613	0.275	1242097	STUDY_ORIENT	n/a	n/a	1	1	VAN	TANK	TANK	VAN	1	[0, 0, 0]	-999	PAL1	1	R1149N
166.58	4.0	1243064	STUDY_PAIR	n/a	wordpools/wordpool_EN.txt	1	1	VAN	TANK	TANK	VAN	1	[0, 0, 0]	-999	PAL1	1	R1149N
171.614	0.275	1248098	STUDY_ORIENT	n/a	n/a	2	4	PURSE	FRUIT	PURSE	FRUIT	1	[0, 0, 0]	-999	PAL1	1	R1149N
172.448	4.0	1248932	STUDY_PAIR	n/a	wordpools/wordpool_EN.txt	2	4	PURSE	FRUIT	PURSE	FRUIT	1	[0, 0, 0]	-999	PAL1	1	R1149N
177.482	0.275	1253966	STUDY_ORIENT	n/a	n/a	3	5	CUP	n/a	FLEA	CUP	1	[0, 0, 0]	-999	PAL1	1	R1149N
178.432	4.0	1254916	STUDY_PAIR	n/a	wordpools/wordpool_EN.txt	3	5	CUP	n/a	FLEA	CUP	1	[0, 0, 0]	-999	PAL1	1	R1149N
183.466	0.275	1259949	STUDY_ORIENT	n/a	n/a	4	2	HORSE	n/a	STOVE	HORSE	1	[0, 0, 0]	-999	PAL1	1	R1149N
184.4	4.0	1260883	STUDY_PAIR	n/a	wordpools/wordpool_EN.txt	4	2	HORSE	n/a	STOVE	HORSE	1	[0, 0, 0]	-999	PAL1	1	R1149N
189.434	0.275	1265917	STUDY_ORIENT	n/a	n/a	5	3	DRESS	n/a	WOOD	DRESS	1	[0, 0, 0]	-999	PAL1	1	R1149N
190.351	4.0	1266834	STUDY_PAIR	n/a	wordpools/wordpool_EN.txt	5	3	DRESS	n/a	WOOD	DRESS	1	[0, 0, 0]	-999	PAL1	1	R1149N
195.385	0.275	1271868	STUDY_ORIENT	n/a	n/a	6	6	SHARK	n/a	SHARK	SEED	1	[0, 0, 0]	-999	PAL1	1	R1149N
196.385	4.0	1272868	STUDY_PAIR	n/a	wordpools/wordpool_EN.txt	6	6	SHARK	n/a	SHARK	SEED	1	[0, 0, 0]	-999	PAL1	1	R1149N
200.386	1.0	1276869	START	n/a	n/a	-999	-999	n/a	n/a	n/a	n/a	1	[-999, -999, -999]	-999	PAL1	1	R1149N
201.386	0.017	1277869	MATH_START	n/a	n/a	-999	-999	n/a	n/a	n/a	n/a	1	[0, 0, 0]	-999	PAL1	1	R1149N
201.403	5.017	1277886	PROB	4989.0	n/a	-999	-999	n/a	n/a	n/a	n/a	1	[7, 4, 3]	14	PAL1	1	R1149N
206.42	4.868	1282902	PROB	4844.0	n/a	-999	-999	n/a	n/a	n/a	n/a	1	[7, 1, 4]	12	PAL1	1	R1149N
211.288	3.417	1287770	PROB	3384.0	n/a	-999	-999	n/a	n/a	n/a	n/a	1	[7, 4, 7]	18	PAL1	1	R1149N
214.705	3.166	1291187	PROB	3135.0	n/a	-999	-999	n/a	n/a	n/a	n/a	1	[1, 3, 8]	12	PAL1	1	R1149N
217.871	6.601	1294353	PROB	6601.0	n/a	-999	-999	n/a	n/a	n/a	n/a	1	[4, 8, 5]	16	PAL1	1	R1149N
224.472	0.018	1300953	STOP	n/a	n/a	-999	-999	n/a	n/a	n/a	n/a	1	[-999, -999, -999]	-999	PAL1	1	R1149N
224.49	0.0	1300971	MATH_END	n/a	n/a	-999	-999	n/a	n/a	n/a	n/a	1	[0, 0, 0]	-999	PAL1	1	R1149N
224.49	0.017	1300971	TEST_START	n/a	n/a	-999	-999	n/a	n/a	n/a	n/a	1	[0, 0, 0]	-999	PAL1	1	R1149N
224.507	0.275	1300988	TEST_ORIENT	n/a	n/a	1	1	VAN	TANK	TANK	VAN	1	[0, 0, 0]	-999	PAL1	1	R1149N
225.39	4.0	1301871	TEST_PROBE	n/a	wordpools/wordpool_EN.txt	1	1	VAN	TANK	TANK	VAN	1	[0, 0, 0]	-999	PAL1	1	R1149N
225.392	1.234	1301873	REC_START	n/a	n/a	1	-999	n/a	TANK	n/a	n/a	1	[0, 0, 0]	-999	PAL1	1	R1149N
226.626	3.798	1303107	REC_EVENT	1234.0	n/a	1	1	VAN	TANK	TANK	VAN	1	[0, 0, 0]	-999	PAL1	1	R1149N
230.424	0.017	1306905	REC_END	n/a	n/a	1	-999	n/a	n/a	n/a	n/a	1	[0, 0, 0]	-999	PAL1	1	R1149N
230.441	0.275	1306922	TEST_ORIENT	n/a	n/a	4	2	HORSE	n/a	STOVE	HORSE	1	[0, 0, 0]	-999	PAL1	1	R1149N
231.324	4.0	1307805	TEST_PROBE	n/a	wordpools/wordpool_EN.txt	4	2	HORSE	n/a	STOVE	HORSE	1	[0, 0, 0]	-999	PAL1	1	R1149N
231.325	5.008	1307806	REC_START	n/a	n/a	4	-999	n/a	n/a	n/a	n/a	1	[0, 0, 0]	-999	PAL1	1	R1149N
236.333	0.001	1312814	REC_END	n/a	n/a	4	-999	n/a	n/a	n/a	n/a	1	[0, 0, 0]	-999	PAL1	1	R1149N
236.334	0.008	1312815	REC_EVENT	5009.0	n/a	4	2	HORSE	<>	STOVE	HORSE	1	[0, 0, 0]	-999	PAL1	1	R1149N
236.342	0.275	1312823	TEST_ORIENT	n/a	n/a	5	3	DRESS	n/a	WOOD	DRESS	1	[0, 0, 0]	-999	PAL1	1	R1149N
237.142	4.0	1313623	TEST_PROBE	n/a	wordpools/wordpool_EN.txt	5	3	DRESS	n/a	WOOD	DRESS	1	[0, 0, 0]	-999	PAL1	1	R1149N
237.143	5.021	1313624	REC_START	n/a	n/a	5	-999	n/a	n/a	n/a	n/a	1	[0, 0, 0]	-999	PAL1	1	R1149N
242.164	0.0	1318645	REC_EVENT	5021.0	n/a	5	3	DRESS	<>	WOOD	DRESS	1	[0, 0, 0]	-999	PAL1	1	R1149N
242.164	0.012	1318645	REC_END	n/a	n/a	5	-999	n/a	n/a	n/a	n/a	1	[0, 0, 0]	-999	PAL1	1	R1149N
242.176	0.275	1318657	TEST_ORIENT	n/a	n/a	2	4	PURSE	FRUIT	PURSE	FRUIT	1	[0, 0, 0]	-999	PAL1	1	R1149N
243.076	4.0	1319556	TEST_PROBE	n/a	wordpools/wordpool_EN.txt	2	4	PURSE	FRUIT	PURSE	FRUIT	1	[0, 0, 0]	-999	PAL1	1	R1149N
243.077	1.011	1319557	REC_START	n/a	n/a	2	-999	n/a	FRUIT	n/a	n/a	1	[0, 0, 0]	-999	PAL1	1	R1149N
244.088	3.997	1320568	REC_EVENT	1011.0	n/a	2	4	PURSE	FRUIT	PURSE	FRUIT	1	[0, 0, 0]	-999	PAL1	1	R1149N
248.085	0.009	1324565	REC_END	n/a	n/a	2	-999	n/a	n/a	n/a	n/a	1	[0, 0, 0]	-999	PAL1	1	R1149N
248.094	0.275	1324574	TEST_ORIENT	n/a	n/a	3	5	CUP	n/a	FLEA	CUP	1	[0, 0, 0]	-999	PAL1	1	R1149N
248.893	4.0	1325373	TEST_PROBE	n/a	wordpools/wordpool_EN.txt	3	5	CUP	n/a	FLEA	CUP	1	[0, 0, 0]	-999	PAL1	1	R1149N
248.894	5.015	1325374	REC_START	n/a	n/a	3	-999	n/a	n/a	n/a	n/a	1	[0, 0, 0]	-999	PAL1	1	R1149N
253.909	0.001	1330389	REC_EVENT	5015.0	n/a	3	5	CUP	<>	FLEA	CUP	1	[0, 0, 0]	-999	PAL1	1	R1149N
253.91	0.017	1330390	REC_END	n/a	n/a	3	-999	n/a	n/a	n/a	n/a	1	[0, 0, 0]	-999	PAL1	1	R1149N
253.927	0.275	1330407	TEST_ORIENT	n/a	n/a	6	6	SHARK	n/a	SHARK	SEED	1	[0, 0, 0]	-999	PAL1	1	R1149N
254.812	4.0	1331292	TEST_PROBE	n/a	wordpools/wordpool_EN.txt	6	6	SHARK	n/a	SHARK	SEED	1	[0, 0, 0]	-999	PAL1	1	R1149N
254.813	5.024	1331293	REC_START	n/a	n/a	6	-999	n/a	n/a	n/a	n/a	1	[0, 0, 0]	-999	PAL1	1	R1149N
259.837	0.003	1336317	REC_END	n/a	n/a	6	-999	n/a	n/a	n/a	n/a	1	[0, 0, 0]	-999	PAL1	1	R1149N
259.84	2.76	1336320	REC_EVENT	5027.0	n/a	6	6	SHARK	<>	SHARK	SEED	1	[0, 0, 0]	-999	PAL1	1	R1149N
262.6	10.447	1339080	ENCODING_START	n/a	n/a	0	-999	n/a	n/a	n/a	n/a	2	[0, 0, 0]	-999	PAL1	1	R1149N
273.047	0.275	1349526	STUDY_ORIENT	n/a	n/a	1	1	PLATE	STAR	PLATE	STAR	2	[0, 0, 0]	-999	PAL1	1	R1149N
273.897	4.0	1350376	STUDY_PAIR	n/a	wordpools/wordpool_EN.txt	1	1	PLATE	STAR	PLATE	STAR	2	[0, 0, 0]	-999	PAL1	1	R1149N
278.915	0.275	1355394	STUDY_ORIENT	n/a	n/a	2	2	INK	SUN	SUN	INK	2	[0, 0, 0]	-999	PAL1	1	R1149N
279.849	4.0	1356328	STUDY_PAIR	n/a	wordpools/wordpool_EN.txt	2	2	INK	SUN	SUN	INK	2	[0, 0, 0]	-999	PAL1	1	R1149N
284.866	0.275	1361344	STUDY_ORIENT	n/a	n/a	3	3	SALT	n/a	SALT	BRANCH	2	[0, 0, 0]	-999	PAL1	1	R1149N
285.65	4.0	1362128	STUDY_PAIR	n/a	wordpools/wordpool_EN.txt	3	3	SALT	n/a	SALT	BRANCH	2	[0, 0, 0]	-999	PAL1	1	R1149N
290.668	0.275	1367146	STUDY_ORIENT	n/a	n/a	4	4	SINK	n/a	ROOT	SINK	2	[0, 0, 0]	-999	PAL1	1	R1149N
291.551	4.0	1368029	STUDY_PAIR	n/a	wordpools/wordpool_EN.txt	4	4	SINK	n/a	ROOT	SINK	2	[0, 0, 0]	-999	PAL1	1	R1149N
296.569	0.275	1373047	STUDY_ORIENT	n/a	n/a	5	5	FARM	n/a	FARM	BED	2	[0, 0, 0]	-999	PAL1	1	R1149N
297.502	4.0	1373980	STUDY_PAIR	n/a	wordpools/wordpool_EN.txt	5	5	FARM	n/a	FARM	BED	2	[0, 0, 0]	-999	PAL1	1	R1149N
302.52	0.275	1378998	STUDY_ORIENT	n/a	n/a	6	6	NEST	n/a	TOY	NEST	2	[0, 0, 0]	-999	PAL1	1	R1149N
303.403	4.0	1379880	STUDY_PAIR	n/a	wordpools/wordpool_EN.txt	6	6	NEST	n/a	TOY	NEST	2	[0, 0, 0]	-999	PAL1	1	R1149N
307.404	1.0	1383881	START	n/a	n/a	-999	-999	n/a	n/a	n/a	n/a	2	[-999, -999, -999]	-999	PAL1	1	R1149N
308.404	0.017	1384881	MATH_START	n/a	n/a	-999	-999	n/a	n/a	n/a	n/a	2	[0, 0, 0]	-999	PAL1	1	R1149N
308.421	15.019	1384898	PROB	14995.0	n/a	-999	-999	n/a	n/a	n/a	n/a	2	[8, 6, 9]	23	PAL1	1	R1149N
323.44	3.0	1399916	PROB	2976.0	n/a	-999	-999	n/a	n/a	n/a	n/a	2	[3, 1, 2]	6	PAL1	1	R1149N
326.44	7.656	1402916	PROB	7656.0	n/a	-999	-999	n/a	n/a	n/a	n/a	2	[9, 7, 6]	22	PAL1	1	R1149N
334.096	0.012	1410572	STOP	n/a	n/a	-999	-999	n/a	n/a	n/a	n/a	2	[-999, -999, -999]	-999	PAL1	1	R1149N
334.108	0.0	1410584	TEST_START	n/a	n/a	-999	-999	n/a	n/a	n/a	n/a	2	[0, 0, 0]	-999	PAL1	1	R1149N
334.108	0.017	1410584	MATH_END	n/a	n/a	-999	-999	n/a	n/a	n/a	n/a	2	[0, 0, 0]	-999	PAL1	1	R1149N
334.125	0.275	1410601	TEST_ORIENT	n/a	n/a	1	1	PLATE	STAR	PLATE	STAR	2	[0, 0, 0]	-999	PAL1	1	R1149N
335.041	4.0	1411517	TEST_PROBE	n/a	wordpools/wordpool_EN.txt	1	1	PLATE	STAR	PLATE	STAR	2	[0, 0, 0]	-999	PAL1	1	R1149N
335.042	0.952	1411518	REC_START	n/a	n/a	1	-999	n/a	STAR	n/a	n/a	2	[0, 0, 0]	-999	PAL1	1	R1149N
335.994	4.072	1412470	REC_EVENT	952.0	n/a	1	1	PLATE	STAR	PLATE	STAR	2	[0, 0, 0]	-999	PAL1	1	R1149N
340.066	0.01	1416542	REC_END	n/a	n/a	1	-999	n/a	n/a	n/a	n/a	2	[0, 0, 0]	-999	PAL1	1	R1149N
340.076	0.275	1416552	TEST_ORIENT	n/a	n/a	2	2	INK	SUN	SUN	INK	2	[0, 0, 0]	-999	PAL1	1	R1149N
341.009	4.0	1417485	TEST_PROBE	n/a	wordpools/wordpool_EN.txt	2	2	INK	SUN	SUN	INK	2	[0, 0, 0]	-999	PAL1	1	R1149N
341.009	2.563	1417485	REC_START	n/a	n/a	2	-999	n/a	SUN	n/a	n/a	2	[0, 0, 0]	-999	PAL1	1	R1149N
343.572	2.454	1420047	REC_EVENT	2563.0	n/a	2	2	INK	SUN	SUN	INK	2	[0, 0, 0]	-999	PAL1	1	R1149N
346.026	0.017	1422501	REC_END	n/a	n/a	2	-999	n/a	n/a	n/a	n/a	2	[0, 0, 0]	-999	PAL1	1	R1149N
346.043	0.275	1422518	TEST_ORIENT	n/a	n/a	3	3	SALT	n/a	SALT	BRANCH	2	[0, 0, 0]	-999	PAL1	1	R1149N
346.86	4.0	1423335	TEST_PROBE	n/a	wordpools/wordpool_EN.txt	3	3	SALT	n/a	SALT	BRANCH	2	[0, 0, 0]	-999	PAL1	1	R1149N
346.86	5.015	1423335	REC_START	n/a	n/a	3	-999	n/a	n/a	n/a	n/a	2	[0, 0, 0]	-999	PAL1	1	R1149N
351.875	0.002	1428350	REC_EVENT	5015.0	n/a	3	3	SALT	<>	SALT	BRANCH	2	[0, 0, 0]	-999	PAL1	1	R1149N
351.877	0.017	1428352	REC_END	n/a	n/a	3	-999	n/a	n/a	n/a	n/a	2	[0, 0, 0]	-999	PAL1	1	R1149N
351.894	0.275	1428369	TEST_ORIENT	n/a	n/a	4	4	SINK	n/a	ROOT	SINK	2	[0, 0, 0]	-999	PAL1	1	R1149N
352.678	4.0	1429153	TEST_PROBE	n/a	wordpools/wordpool_EN.txt	4	4	SINK	n/a	ROOT	SINK	2	[0, 0, 0]	-999	PAL1	1	R1149N
352.679	5.008	1429154	REC_START	n/a	n/a	4	-999	n/a	n/a	n/a	n/a	2	[0, 0, 0]	-999	PAL1	1	R1149N
357.687	0.001	1434162	REC_END	n/a	n/a	4	-999	n/a	n/a	n/a	n/a	2	[0, 0, 0]	-999	PAL1	1	R1149N
357.688	0.008	1434163	REC_EVENT	5009.0	n/a	4	4	SINK	<>	ROOT	SINK	2	[0, 0, 0]	-999	PAL1	1	R1149N
357.696	0.275	1434171	TEST_ORIENT	n/a	n/a	5	5	FARM	n/a	FARM	BED	2	[0, 0, 0]	-999	PAL1	1	R1149N
358.496	4.0	1434971	TEST_PROBE	n/a	wordpools/wordpool_EN.txt	5	5	FARM	n/a	FARM	BED	2	[0, 0, 0]	-999	PAL1	1	R1149N
358.497	5.024	1434972	REC_START	n/a	n/a	5	-999	n/a	n/a	n/a	n/a	2	[0, 0, 0]	-999	PAL1	1	R1149N
363.521	0.003	1439995	REC_END	n/a	n/a	5	-999	n/a	n/a	n/a	n/a	2	[0, 0, 0]	-999	PAL1	1	R1149N
363.524	0.006	1439998	REC_EVENT	5027.0	n/a	5	5	FARM	<>	FARM	BED	2	[0, 0, 0]	-999	PAL1	1	R1149N
363.53	0.275	1440004	TEST_ORIENT	n/a	n/a	6	6	NEST	n/a	TOY	NEST	2	[0, 0, 0]	-999	PAL1	1	R1149N
364.414	0.0	1440888	REC_START	n/a	n/a	6	-999	n/a	n/a	n/a	n/a	2	[0, 0, 0]	-999	PAL1	1	R1149N
364.414	4.0	1440888	TEST_PROBE	n/a	wordpools/wordpool_EN.txt	6	6	NEST	n/a	TOY	NEST	2	[0, 0, 0]	-999	PAL1	1	R1149N
369.429	0.002	1445903	REC_EVENT	5015.0	n/a	6	6	NEST	<>	TOY	NEST	2	[0, 0, 0]	-999	PAL1	1	R1149N
369.431	2.745	1445905	REC_END	n/a	n/a	6	-999	n/a	n/a	n/a	n/a	2	[0, 0, 0]	-999	PAL1	1	R1149N
372.176	10.441	1448650	ENCODING_START	n/a	n/a	0	-999	n/a	n/a	n/a	n/a	3	[0, 0, 0]	-999	PAL1	1	R1149N
382.617	0.275	1459091	STUDY_ORIENT	n/a	n/a	1	1	SIGN	n/a	SIGN	MILK	3	[0, 0, 0]	-999	PAL1	1	R1149N
383.567	4.0	1460040	STUDY_PAIR	n/a	wordpools/wordpool_EN.txt	1	1	SIGN	n/a	SIGN	MILK	3	[0, 0, 0]	-999	PAL1	1	R1149N
388.601	0.275	1465074	STUDY_ORIENT	n/a	n/a	2	4	DRUM	STING	SHEET	DRUM	3	[0, 0, 0]	-999	PAL1	1	R1149N
389.468	4.0	1465941	STUDY_PAIR	n/a	wordpools/wordpool_EN.txt	2	4	DRUM	STING	SHEET	DRUM	3	[0, 0, 0]	-999	PAL1	1	R1149N
394.502	0.275	1470975	STUDY_ORIENT	n/a	n/a	3	3	NAIL	n/a	SHEEP	NAIL	3	[0, 0, 0]	-999	PAL1	1	R1149N
395.486	4.0	1471959	STUDY_PAIR	n/a	wordpools/wordpool_EN.txt	3	3	NAIL	n/a	SHEEP	NAIL	3	[0, 0, 0]	-999	PAL1	1	R1149N
400.52	0.275	1476993	STUDY_ORIENT	n/a	n/a	4	6	TREE	n/a	TREE	FOOT	3	[0, 0, 0]	-999	PAL1	1	R1149N
401.536	4.0	1478009	STUDY_PAIR	n/a	wordpools/wordpool_EN.txt	4	6	TREE	n/a	TREE	FOOT	3	[0, 0, 0]	-999	PAL1	1	R1149N
406.554	0.275	1483026	STUDY_ORIENT	n/a	n/a	5	5	PIE	SHUT	ROAD	PIE	3	[0, 0, 0]	-999	PAL1	1	R1149N
407.554	4.0	1484026	STUDY_PAIR	n/a	wordpools/wordpool_EN.txt	5	5	PIE	SHUT	ROAD	PIE	3	[0, 0, 0]	-999	PAL1	1	R1149N
412.572	0.275	1489044	STUDY_ORIENT	n/a	n/a	6	2	PIN	n/a	PIN	FUR	3	[0, 0, 0]	-999	PAL1	1	R1149N
413.505	4.0	1489977	STUDY_PAIR	n/a	wordpools/wordpool_EN.txt	6	2	PIN	n/a	PIN	FUR	3	[0, 0, 0]	-999	PAL1	1	R1149N
417.506	1.0	1493978	START	n/a	n/a	-999	-999	n/a	n/a	n/a	n/a	3	[-999, -999, -999]	-999	PAL1	1	R1149N
418.506	0.017	1494978	MATH_START	n/a	n/a	-999	-999	n/a	n/a	n/a	n/a	3	[0, 0, 0]	-999	PAL1	1	R1149N
418.523	11.501	1494995	PROB	11476.0	n/a	-999	-999	n/a	n/a	n/a	n/a	3	[7, 7, 9]	23	PAL1	1	R1149N
430.024	2.618	1506495	PROB	2592.0	n/a	-999	-999	n/a	n/a	n/a	n/a	3	[9, 3, 2]	14	PAL1	1	R1149N
432.642	2.433	1509113	PROB	2405.0	n/a	-999	-999	n/a	n/a	n/a	n/a	3	[9, 1, 9]	19	PAL1	1	R1149N
435.075	2.589	1511546	PROB	2589.0	n/a	-999	-999	n/a	n/a	n/a	n/a	3	[7, 1, 1]	9	PAL1	1	R1149N
437.664	0.012	1514135	STOP	n/a	n/a	-999	-999	n/a	n/a	n/a	n/a	3	[-999, -999, -999]	-999	PAL1	1	R1149N
437.676	0.0	1514147	TEST_START	n/a	n/a	-999	-999	n/a	n/a	n/a	n/a	3	[0, 0, 0]	-999	PAL1	1	R1149N
437.676	0.017	1514147	MATH_END	n/a	n/a	-999	-999	n/a	n/a	n/a	n/a	3	[0, 0, 0]	-999	PAL1	1	R1149N
437.693	0.275	1514164	TEST_ORIENT	n/a	n/a	1	1	SIGN	n/a	SIGN	MILK	3	[0, 0, 0]	-999	PAL1	1	R1149N
438.576	4.0	1515047	TEST_PROBE	n/a	wordpools/wordpool_EN.txt	1	1	SIGN	n/a	SIGN	MILK	3	[0, 0, 0]	-999	PAL1	1	R1149N
438.577	5.015	1515048	REC_START	n/a	n/a	1	-999	n/a	n/a	n/a	n/a	3	[0, 0, 0]	-999	PAL1	1	R1149N
443.592	0.001	1520062	REC_EVENT	5015.0	n/a	1	1	SIGN	<>	SIGN	MILK	3	[0, 0, 0]	-999	PAL1	1	R1149N
443.593	0.017	1520063	REC_END	n/a	n/a	1	-999	n/a	n/a	n/a	n/a	3	[0, 0, 0]	-999	PAL1	1	R1149N
443.61	0.275	1520080	TEST_ORIENT	n/a	n/a	6	2	PIN	n/a	PIN	FUR	3	[0, 0, 0]	-999	PAL1	1	R1149N
444.594	4.0	1521064	TEST_PROBE	n/a	wordpools/wordpool_EN.txt	6	2	PIN	n/a	PIN	FUR	3	[0, 0, 0]	-999	PAL1	1	R1149N
444.594	5.015	1521064	REC_START	n/a	n/a	6	-999	n/a	n/a	n/a	n/a	3	[0, 0, 0]	-999	PAL1	1	R1149N
449.609	0.002	1526079	REC_EVENT	5015.0	n/a	6	2	PIN	<>	PIN	FUR	3	[0, 0, 0]	-999	PAL1	1	R1149N
449.611	0.017	1526081	REC_END	n/a	n/a	6	-999	n/a	n/a	n/a	n/a	3	[0, 0, 0]	-999	PAL1	1	R1149N
449.628	0.275	1526098	TEST_ORIENT	n/a	n/a	3	3	NAIL	n/a	SHEEP	NAIL	3	[0, 0, 0]	-999	PAL1	1	R1149N
450.428	4.0	1526898	TEST_PROBE	n/a	wordpools/wordpool_EN.txt	3	3	NAIL	n/a	SHEEP	NAIL	3	[0, 0, 0]	-999	PAL1	1	R1149N
450.429	4.234	1526899	REC_START	n/a	n/a	3	-999	n/a	n/a	n/a	n/a	3	[0, 0, 0]	-999	PAL1	1	R1149N
454.663	0.782	1531133	REC_EVENT	4234.0	n/a	3	3	NAIL	<>	SHEEP	NAIL	3	[0, 0, 0]	-999	PAL1	1	R1149N
455.445	0.017	1531915	REC_END	n/a	n/a	3	-999	n/a	n/a	n/a	n/a	3	[0, 0, 0]	-999	PAL1	1	R1149N
455.462	0.275	1531932	TEST_ORIENT	n/a	n/a	2	4	DRUM	STING	SHEET	DRUM	3	[0, 0, 0]	-999	PAL1	1	R1149N
456.379	4.0	1532849	TEST_PROBE	n/a	wordpools/wordpool_EN.txt	2	4	DRUM	STING	SHEET	DRUM	3	[0, 0, 0]	-999	PAL1	1	R1149N
456.38	2.234	1532850	REC_START	n/a	n/a	2	-999	n/a	STING	n/a	n/a	3	[0, 0, 0]	-999	PAL1	1	R1149N
458.614	2.774	1535084	REC_EVENT	2234.0	n/a	2	4	DRUM	STING	SHEET	DRUM	3	[0, 0, 0]	-999	PAL1	1	R1149N
461.388	0.009	1537858	REC_END	n/a	n/a	2	-999	n/a	n/a	n/a	n/a	3	[0, 0, 0]	-999	PAL1	1	R1149N
461.397	0.275	1537867	TEST_ORIENT	n/a	n/a	5	5	PIE	SHUT	ROAD	PIE	3	[0, 0, 0]	-999	PAL1	1	R1149N
462.43	4.0	1538900	TEST_PROBE	n/a	wordpools/wordpool_EN.txt	5	5	PIE	SHUT	ROAD	PIE	3	[0, 0, 0]	-999	PAL1	1	R1149N
462.431	2.597	1538901	REC_START	n/a	n/a	5	-999	n/a	SHUT	n/a	n/a	3	[0, 0, 0]	-999	PAL1	1	R1149N
465.028	2.432	1541497	REC_EVENT	2597.0	n/a	5	5	PIE	SHUT	ROAD	PIE	3	[0, 0, 0]	-999	PAL1	1	R1149N
467.46	0.021	1543929	REC_END	n/a	n/a	5	-999	n/a	n/a	n/a	n/a	3	[0, 0, 0]	-999	PAL1	1	R1149N
467.481	0.275	1543950	TEST_ORIENT	n/a	n/a	4	6	TREE	n/a	TREE	FOOT	3	[0, 0, 0]	-999	PAL1	1	R1149N
468.515	0.0	1544984	REC_START	n/a	n/a	4	-999	n/a	n/a	n/a	n/a	3	[0, 0, 0]	-999	PAL1	1	R1149N
468.515	4.0	1544984	TEST_PROBE	n/a	wordpools/wordpool_EN.txt	4	6	TREE	n/a	TREE	FOOT	3	[0, 0, 0]	-999	PAL1	1	R1149N
473.53	0.002	1549999	REC_EVENT	5015.0	n/a	4	6	TREE	<>	TREE	FOOT	3	[0, 0, 0]	-999	PAL1	1	R1149N
473.532	2.564	1550001	REC_END	n/a	n/a	4	-999	n/a	n/a	n/a	n/a	3	[0, 0, 0]	-999	PAL1	1	R1149N
476.096	10.438	1552565	ENCODING_START	n/a	n/a	0	-999	n/a	n/a	n/a	n/a	4	[0, 0, 0]	-999	PAL1	1	R1149N
486.534	0.275	1563002	STUDY_ORIENT	n/a	n/a	1	5	SMILE	SPRING	SMILE	SPRING	4	[0, 0, 0]	-999	PAL1	1	R1149N
487.368	4.0	1563836	STUDY_PAIR	n/a	wordpools/wordpool_EN.txt	1	5	SMILE	SPRING	SMILE	SPRING	4	[0, 0, 0]	-999	PAL1	1	R1149N
492.402	0.275	1568870	STUDY_ORIENT	n/a	n/a	2	4	LIP	n/a	PIPE	LIP	4	[0, 0, 0]	-999	PAL1	1	R1149N
493.202	4.0	1569670	STUDY_PAIR	n/a	wordpools/wordpool_EN.txt	2	4	LIP	n/a	PIPE	LIP	4	[0, 0, 0]	-999	PAL1	1	R1149N
498.236	0.275	1574704	STUDY_ORIENT	n/a	n/a	3	1	FLUTE	ARK	ARK	FLUTE	4	[0, 0, 0]	-999	PAL1	1	R1149N
499.086	4.0	1575554	STUDY_PAIR	n/a	wordpools/wordpool_EN.txt	3	1	FLUTE	ARK	ARK	FLUTE	4	[0, 0, 0]	-999	PAL1	1	R1149N
504.104	0.275	1580571	STUDY_ORIENT	n/a	n/a	4	6	PHONE	n/a	PHONE	VEST	4	[0, 0, 0]	-999	PAL1	1	R1149N
504.936	4.0	1581403	STUDY_PAIR	n/a	wordpools/wordpool_EN.txt	4	6	PHONE	n/a	PHONE	VEST	4	[0, 0, 0]	-999	PAL1	1	R1149N
509.954	0.275	1586421	STUDY_ORIENT	n/a	n/a	5	3	SWORD	n/a	PLANE	SWORD	4	[0, 0, 0]	-999	PAL1	1	R1149N
510.738	4.0	1587205	STUDY_PAIR	n/a	wordpools/wordpool_EN.txt	5	3	SWORD	n/a	PLANE	SWORD	4	[0, 0, 0]	-999	PAL1	1	R1149N
515.756	0.275	1592223	STUDY_ORIENT	n/a	n/a	6	2	PEA	n/a	PEA	BARN	4	[0, 0, 0]	-999	PAL1	1	R1149N
516.556	4.0	1593023	STUDY_PAIR	n/a	wordpools/wordpool_EN.txt	6	2	PEA	n/a	PEA	BARN	4	[0, 0, 0]	-999	PAL1	1	R1149N
520.574	0.999	1597041	START	n/a	n/a	-999	-999	n/a	n/a	n/a	n/a	4	[-999, -999, -999]	-999	PAL1	1	R1149N
521.573	0.017	1598040	MATH_START	n/a	n/a	-999	-999	n/a	n/a	n/a	n/a	4	[0, 0, 0]	-999	PAL1	1	R1149N
521.59	7.168	1598057	PROB	7138.0	n/a	-999	-999	n/a	n/a	n/a	n/a	4	[8, 6, 5]	19	PAL1	1	R1149N
528.758	6.051	1605224	PROB	6026.0	n/a	-999	-999	n/a	n/a	n/a	n/a	4	[4, 6, 8]	18	PAL1	1	R1149N
534.809	4.718	1611275	PROB	4687.0	n/a	-999	-999	n/a	n/a	n/a	n/a	4	[9, 6, 9]	24	PAL1	1	R1149N
539.527	6.257	1615993	PROB	6257.0	n/a	-999	-999	n/a	n/a	n/a	n/a	4	[4, 8, 5]	18	PAL1	1	R1149N
545.784	0.01	1622249	STOP	n/a	n/a	-999	-999	n/a	n/a	n/a	n/a	4	[-999, -999, -999]	-999	PAL1	1	R1149N
545.794	0.0	1622259	TEST_START	n/a	n/a	-999	-999	n/a	n/a	n/a	n/a	4	[0, 0, 0]	-999	PAL1	1	R1149N
545.794	0.017	1622259	MATH_END	n/a	n/a	-999	-999	n/a	n/a	n/a	n/a	4	[0, 0, 0]	-999	PAL1	1	R1149N
545.811	0.275	1622276	TEST_ORIENT	n/a	n/a	3	1	FLUTE	ARK	ARK	FLUTE	4	[0, 0, 0]	-999	PAL1	1	R1149N
546.678	4.0	1623143	TEST_PROBE	n/a	wordpools/wordpool_EN.txt	3	1	FLUTE	ARK	ARK	FLUTE	4	[0, 0, 0]	-999	PAL1	1	R1149N
546.678	3.393	1623143	REC_START	n/a	n/a	3	-999	n/a	ARK	n/a	n/a	4	[0, 0, 0]	-999	PAL1	1	R1149N
550.071	1.624	1626536	REC_EVENT	3393.0	n/a	3	1	FLUTE	ARK	ARK	FLUTE	4	[0, 0, 0]	-999	PAL1	1	R1149N
551.695	0.017	1628160	REC_END	n/a	n/a	3	-999	n/a	n/a	n/a	n/a	4	[0, 0, 0]	-999	PAL1	1	R1149N
551.712	0.275	1628177	TEST_ORIENT	n/a	n/a	6	2	PEA	n/a	PEA	BARN	4	[0, 0, 0]	-999	PAL1	1	R1149N
552.595	4.0	1629060	TEST_PROBE	n/a	wordpools/wordpool_EN.txt	6	2	PEA	n/a	PEA	BARN	4	[0, 0, 0]	-999	PAL1	1	R1149N
552.596	5.008	1629061	REC_START	n/a	n/a	6	-999	n/a	n/a	n/a	n/a	4	[0, 0, 0]	-999	PAL1	1	R1149N
557.604	0.001	1634069	REC_END	n/a	n/a	6	-999	n/a	n/a	n/a	n/a	4	[0, 0, 0]	-999	PAL1	1	R1149N
557.605	0.008	1634070	REC_EVENT	5009.0	n/a	6	2	PEA	<>	PEA	BARN	4	[0, 0, 0]	-999	PAL1	1	R1149N
557.613	0.275	1634078	TEST_ORIENT	n/a	n/a	5	3	SWORD	n/a	PLANE	SWORD	4	[0, 0, 0]	-999	PAL1	1	R1149N
558.446	4.0	1634911	TEST_PROBE	n/a	wordpools/wordpool_EN.txt	5	3	SWORD	n/a	PLANE	SWORD	4	[0, 0, 0]	-999	PAL1	1	R1149N
558.447	5.008	1634912	REC_START	n/a	n/a	5	-999	n/a	n/a	n/a	n/a	4	[0, 0, 0]	-999	PAL1	1	R1149N
563.455	0.001	1639919	REC_END	n/a	n/a	5	-999	n/a	n/a	n/a	n/a	4	[0, 0, 0]	-999	PAL1	1	R1149N
563.456	0.008	1639920	REC_EVENT	5009.0	n/a	5	3	SWORD	<>	PLANE	SWORD	4	[0, 0, 0]	-999	PAL1	1	R1149N
563.464	0.275	1639928	TEST_ORIENT	n/a	n/a	2	4	LIP	n/a	PIPE	LIP	4	[0, 0, 0]	-999	PAL1	1	R1149N
564.347	4.0	1640811	TEST_PROBE	n/a	wordpools/wordpool_EN.txt	2	4	LIP	n/a	PIPE	LIP	4	[0, 0, 0]	-999	PAL1	1	R1149N
564.348	3.125	1640812	REC_START	n/a	n/a	2	-999	n/a	n/a	n/a	n/a	4	[0, 0, 0]	-999	PAL1	1	R1149N
567.473	1.883	1643937	REC_EVENT	3125.0	n/a	2	4	LIP	<>	PIPE	LIP	4	[0, 0, 0]	-999	PAL1	1	R1149N
569.356	0.009	1645820	REC_END	n/a	n/a	2	-999	n/a	n/a	n/a	n/a	4	[0, 0, 0]	-999	PAL1	1	R1149N
569.365	0.275	1645829	TEST_ORIENT	n/a	n/a	1	5	SMILE	SPRING	SMILE	SPRING	4	[0, 0, 0]	-999	PAL1	1	R1149N
570.232	4.0	1646696	TEST_PROBE	n/a	wordpools/wordpool_EN.txt	1	5	SMILE	SPRING	SMILE	SPRING	4	[0, 0, 0]	-999	PAL1	1	R1149N
570.232	0.701	1646696	REC_START	n/a	n/a	1	-999	n/a	SPRING	n/a	n/a	4	[0, 0, 0]	-999	PAL1	1	R1149N
570.933	4.316	1647397	REC_EVENT	701.0	n/a	1	5	SMILE	SPRING	SMILE	SPRING	4	[0, 0, 0]	-999	PAL1	1	R1149N
575.249	0.017	1651713	REC_END	n/a	n/a	1	-999	n/a	n/a	n/a	n/a	4	[0, 0, 0]	-999	PAL1	1	R1149N
575.266	0.275	1651730	TEST_ORIENT	n/a	n/a	4	6	PHONE	n/a	PHONE	VEST	4	[0, 0, 0]	-999	PAL1	1	R1149N
576.099	4.0	1652563	TEST_PROBE	n/a	wordpools/wordpool_EN.txt	4	6	PHONE	n/a	PHONE	VEST	4	[0, 0, 0]	-999	PAL1	1	R1149N
576.1	5.009	1652564	REC_START	n/a	n/a	4	-999	n/a	n/a	n/a	n/a	4	[0, 0, 0]	-999	PAL1	1	R1149N
581.109	0.002	1657573	REC_EVENT	5009.0	n/a	4	6	PHONE	<>	PHONE	VEST	4	[0, 0, 0]	-999	PAL1	1	R1149N
581.111	1.577	1657575	REC_END	n/a	n/a	4	-999	n/a	n/a	n/a	n/a	4	[0, 0, 0]	-999	PAL1	1	R1149N
582.688	10.448	1659151	ENCODING_START	n/a	n/a	0	-999	n/a	n/a	n/a	n/a	5	[0, 0, 0]	-999	PAL1	1	R1149N
593.136	0.275	1669599	STUDY_ORIENT	n/a	n/a	1	5	BEAN	TEAL	BEAN	CASH	5	[0, 0, 0]	-999	PAL1	1	R1149N
593.918	4.0	1670381	STUDY_PAIR	n/a	wordpools/wordpool_EN.txt	1	5	BEAN	TEAL	BEAN	CASH	5	[0, 0, 0]	-999	PAL1	1	R1149N
598.952	0.275	1675415	STUDY_ORIENT	n/a	n/a	2	4	SEAL	CAVE	SEAL	CAVE	5	[0, 0, 0]	-999	PAL1	1	R1149N
599.853	4.0	1676316	STUDY_PAIR	n/a	wordpools/wordpool_EN.txt	2	4	SEAL	CAVE	SEAL	CAVE	5	[0, 0, 0]	-999	PAL1	1	R1149N
604.87	0.275	1681332	STUDY_ORIENT	n/a	n/a	3	1	CORN	TIE	CORN	BRICK	5	[0, 0, 0]	-999	PAL1	1	R1149N
605.638	4.0	1682100	STUDY_PAIR	n/a	wordpools/wordpool_EN.txt	3	1	CORN	TIE	CORN	BRICK	5	[0, 0, 0]	-999	PAL1	1	R1149N
610.672	0.275	1687134	STUDY_ORIENT	n/a	n/a	4	2	MAP	n/a	WEB	MAP	5	[0, 0, 0]	-999	PAL1	1	R1149N
611.622	4.0	1688084	STUDY_PAIR	n/a	wordpools/wordpool_EN.txt	4	2	MAP	n/a	WEB	MAP	5	[0, 0, 0]	-999	PAL1	1	R1149N
616.656	0.275	1693118	STUDY_ORIENT	n/a	n/a	5	3	GRAPE	TIE	GRAPE	TIE	5	[0, 0, 0]	-999	PAL1	1	R1149N
617.49	4.0	1693952	STUDY_PAIR	n/a	wordpools/wordpool_EN.txt	5	3	GRAPE	TIE	GRAPE	TIE	5	[0, 0, 0]	-999	PAL1	1	R1149N
622.524	0.275	1698986	STUDY_ORIENT	n/a	n/a	6	6	WORM	n/a	WORM	MOUSE	5	[0, 0, 0]	-999	PAL1	1	R1149N
623.441	4.0	1699902	STUDY_PAIR	n/a	wordpools/wordpool_EN.txt	6	6	WORM	n/a	WORM	MOUSE	5	[0, 0, 0]	-999	PAL1	1	R1149N
627.459	0.999	1703920	START	n/a	n/a	-999	-999	n/a	n/a	n/a	n/a	5	[-999, -999, -999]	-999	PAL1	1	R1149N
628.458	0.017	1704919	MATH_START	n/a	n/a	-999	-999	n/a	n/a	n/a	n/a	5	[0, 0, 0]	-999	PAL1	1	R1149N
628.475	15.418	1704936	PROB	15396.0	n/a	-999	-999	n/a	n/a	n/a	n/a	5	[6, 5, 7]	18	PAL1	1	R1149N
643.893	2.585	1720353	PROB	2563.0	n/a	-999	-999	n/a	n/a	n/a	n/a	5	[9, 9, 1]	19	PAL1	1	R1149N
646.478	1.81	1722938	PROB	1810.0	n/a	-999	-999	n/a	n/a	n/a	n/a	5	[5, 5, 1]	11	PAL1	1	R1149N
648.288	0.007	1724748	STOP	n/a	n/a	-999	-999	n/a	n/a	n/a	n/a	5	[-999, -999, -999]	-999	PAL1	1	R1149N
648.295	0.0	1724755	MATH_END	n/a	n/a	-999	-999	n/a	n/a	n/a	n/a	5	[0, 0, 0]	-999	PAL1	1	R1149N
648.295	0.017	1724755	TEST_START	n/a	n/a	-999	-999	n/a	n/a	n/a	n/a	5	[0, 0, 0]	-999	PAL1	1	R1149N
648.312	0.275	1724772	TEST_ORIENT	n/a	n/a	3	1	CORN	TIE	CORN	BRICK	5	[0, 0, 0]	-999	PAL1	1	R1149N
649.345	4.0	1725805	TEST_PROBE	n/a	wordpools/wordpool_EN.txt	3	1	CORN	TIE	CORN	BRICK	5	[0, 0, 0]	-999	PAL1	1	R1149N
649.346	4.013	1725806	REC_START	n/a	n/a	3	-999	n/a	TIE	n/a	n/a	5	[0, 0, 0]	-999	PAL1	1	R1149N
653.359	1.012	1729819	REC_EVENT	4013.0	n/a	3	1	CORN	TIE	CORN	BRICK	5	[0, 0, 0]	-999	PAL1	1	R1149N
654.371	0.008	1730831	REC_END	n/a	n/a	3	-999	n/a	n/a	n/a	n/a	5	[0, 0, 0]	-999	PAL1	1	R1149N
654.379	0.275	1730839	TEST_ORIENT	n/a	n/a	4	2	MAP	n/a	WEB	MAP	5	[0, 0, 0]	-999	PAL1	1	R1149N
655.263	0.0	1731723	REC_START	n/a	n/a	4	-999	n/a	n/a	n/a	n/a	5	[0, 0, 0]	-999	PAL1	1	R1149N
655.263	4.0	1731723	TEST_PROBE	n/a	wordpools/wordpool_EN.txt	4	2	MAP	n/a	WEB	MAP	5	[0, 0, 0]	-999	PAL1	1	R1149N
660.278	0.002	1736738	REC_EVENT	5015.0	n/a	4	2	MAP	<>	WEB	MAP	5	[0, 0, 0]	-999	PAL1	1	R1149N
660.28	0.017	1736740	REC_END	n/a	n/a	4	-999	n/a	n/a	n/a	n/a	5	[0, 0, 0]	-999	PAL1	1	R1149N
660.297	0.275	1736757	TEST_ORIENT	n/a	n/a	5	3	GRAPE	TIE	GRAPE	TIE	5	[0, 0, 0]	-999	PAL1	1	R1149N
661.247	4.0	1737707	TEST_PROBE	n/a	wordpools/wordpool_EN.txt	5	3	GRAPE	TIE	GRAPE	TIE	5	[0, 0, 0]	-999	PAL1	1	R1149N
661.248	2.505	1737708	REC_START	n/a	n/a	5	-999	n/a	TIE	n/a	n/a	5	[0, 0, 0]	-999	PAL1	1	R1149N
663.753	0.523	1740212	REC_EVENT	2505.0	n/a	5	3	GRAPE	GRAPE	GRAPE	TIE	5	[0, 0, 0]	-999	PAL1	1	R1149N
664.276	1.988	1740735	REC_EVENT	3028.0	n/a	5	3	GRAPE	TIE	GRAPE	TIE	5	[0, 0, 0]	-999	PAL1	1	R1149N
666.264	0.017	1742723	REC_END	n/a	n/a	5	-999	n/a	n/a	n/a	n/a	5	[0, 0, 0]	-999	PAL1	1	R1149N
666.281	0.275	1742740	TEST_ORIENT	n/a	n/a	2	4	SEAL	CAVE	SEAL	CAVE	5	[0, 0, 0]	-999	PAL1	1	R1149N
667.165	4.0	1743624	TEST_PROBE	n/a	wordpools/wordpool_EN.txt	2	4	SEAL	CAVE	SEAL	CAVE	5	[0, 0, 0]	-999	PAL1	1	R1149N
667.165	2.428	1743624	REC_START	n/a	n/a	2	-999	n/a	CAVE	n/a	n/a	5	[0, 0, 0]	-999	PAL1	1	R1149N
669.593	2.589	1746052	REC_EVENT	2428.0	n/a	2	4	SEAL	CAVE	SEAL	CAVE	5	[0, 0, 0]	-999	PAL1	1	R1149N
672.182	0.017	1748641	REC_END	n/a	n/a	2	-999	n/a	n/a	n/a	n/a	5	[0, 0, 0]	-999	PAL1	1	R1149N
672.199	0.275	1748658	TEST_ORIENT	n/a	n/a	1	5	BEAN	TEAL	BEAN	CASH	5	[0, 0, 0]	-999	PAL1	1	R1149N
673.116	4.0	1749575	TEST_PROBE	n/a	wordpools/wordpool_EN.txt	1	5	BEAN	TEAL	BEAN	CASH	5	[0, 0, 0]	-999	PAL1	1	R1149N
673.116	2.834	1749575	REC_START	n/a	n/a	1	-999	n/a	TEAL	n/a	n/a	5	[0, 0, 0]	-999	PAL1	1	R1149N
675.95	2.183	1752409	REC_EVENT	2834.0	n/a	1	5	BEAN	TEAL	BEAN	CASH	5	[0, 0, 0]	-999	PAL1	1	R1149N
678.133	0.017	1754592	REC_END	n/a	n/a	1	-999	n/a	n/a	n/a	n/a	5	[0, 0, 0]	-999	PAL1	1	R1149N
678.15	0.275	1754609	TEST_ORIENT	n/a	n/a	6	6	WORM	n/a	WORM	MOUSE	5	[0, 0, 0]	-999	PAL1	1	R1149N
679.2	4.0	1755659	TEST_PROBE	n/a	wordpools/wordpool_EN.txt	6	6	WORM	n/a	WORM	MOUSE	5	[0, 0, 0]	-999	PAL1	1	R1149N
679.201	5.008	1755660	REC_START	n/a	n/a	6	-999	n/a	n/a	n/a	n/a	5	[0, 0, 0]	-999	PAL1	1	R1149N
684.209	0.001	1760667	REC_END	n/a	n/a	6	-999	n/a	n/a	n/a	n/a	5	[0, 0, 0]	-999	PAL1	1	R1149N
684.21	1.677	1760668	REC_EVENT	5009.0	n/a	6	6	WORM	<>	WORM	MOUSE	5	[0, 0, 0]	-999	PAL1	1	R1149N
685.887	10.449	1762345	ENCODING_START	n/a	n/a	0	-999	n/a	n/a	n/a	n/a	6	[0, 0, 0]	-999	PAL1	1	R1149N
696.336	0.275	1772794	STUDY_ORIENT	n/a	n/a	1	1	PASTE	n/a	PASTE	SOCK	6	[0, 0, 0]	-999	PAL1	1	R1149N
697.186	4.0	1773644	STUDY_PAIR	n/a	wordpools/wordpool_EN.txt	1	1	PASTE	n/a	PASTE	SOCK	6	[0, 0, 0]	-999	PAL1	1	R1149N
702.204	0.275	1778662	STUDY_ORIENT	n/a	n/a	2	4	LAMP	n/a	YARD	LAMP	6	[0, 0, 0]	-999	PAL1	1	R1149N
703.104	4.0	1779561	STUDY_PAIR	n/a	wordpools/wordpool_EN.txt	2	4	LAMP	n/a	YARD	LAMP	6	[0, 0, 0]	-999	PAL1	1	R1149N
708.138	0.275	1784595	STUDY_ORIENT	n/a	n/a	3	3	MOTH	FOAM	MOTH	STORE	6	[0, 0, 0]	-999	PAL1	1	R1149N
709.037	4.0	1785494	STUDY_PAIR	n/a	wordpools/wordpool_EN.txt	3	3	MOTH	FOAM	MOTH	STORE	6	[0, 0, 0]	-999	PAL1	1	R1149N
714.055	0.275	1790512	STUDY_ORIENT	n/a	n/a	4	6	MAT	n/a	MAT	CHEEK	6	[0, 0, 0]	-999	PAL1	1	R1149N
714.905	4.0	1791362	STUDY_PAIR	n/a	wordpools/wordpool_EN.txt	4	6	MAT	n/a	MAT	CHEEK	6	[0, 0, 0]	-999	PAL1	1	R1149N
719.923	0.275	1796380	STUDY_ORIENT	n/a	n/a	5	5	TRAIN	n/a	TRAIN	GRASS	6	[0, 0, 0]	-999	PAL1	1	R1149N
720.741	4.0	1797198	STUDY_PAIR	n/a	wordpools/wordpool_EN.txt	5	5	TRAIN	n/a	TRAIN	GRASS	6	[0, 0, 0]	-999	PAL1	1	R1149N
725.775	0.275	1802231	STUDY_ORIENT	n/a	n/a	6	2	HOLE	n/a	HOLE	FOAM	6	[0, 0, 0]	-999	PAL1	1	R1149N
726.575	4.0	1803031	STUDY_PAIR	n/a	wordpools/wordpool_EN.txt	6	2	HOLE	n/a	HOLE	FOAM	6	[0, 0, 0]	-999	PAL1	1	R1149N
730.593	0.999	1807049	START	n/a	n/a	-999	-999	n/a	n/a	n/a	n/a	6	[-999, -999, -999]	-999	PAL1	1	R1149N
731.592	0.017	1808048	MATH_START	n/a	n/a	-999	-999	n/a	n/a	n/a	n/a	6	[0, 0, 0]	-999	PAL1	1	R1149N
731.609	11.585	1808065	PROB	11559.0	n/a	-999	-999	n/a	n/a	n/a	n/a	6	[9, 8, 6]	23	PAL1	1	R1149N
743.194	3.034	1819649	PROB	3014.0	n/a	-999	-999	n/a	n/a	n/a	n/a	6	[7, 7, 7]	21	PAL1	1	R1149N
746.228	4.46	1822683	PROB	4460.0	n/a	-999	-999	n/a	n/a	n/a	n/a	6	[3, 7, 3]	13	PAL1	1	R1149N
750.688	0.008	1827143	STOP	n/a	n/a	-999	-999	n/a	n/a	n/a	n/a	6	[-999, -999, -999]	-999	PAL1	1	R1149N
750.696	0.0	1827151	MATH_END	n/a	n/a	-999	-999	n/a	n/a	n/a	n/a	6	[0, 0, 0]	-999	PAL1	1	R1149N
750.696	0.016	1827151	TEST_START	n/a	n/a	-999	-999	n/a	n/a	n/a	n/a	6	[0, 0, 0]	-999	PAL1	1	R1149N
750.712	0.275	1827167	TEST_ORIENT	n/a	n/a	1	1	PASTE	n/a	PASTE	SOCK	6	[0, 0, 0]	-999	PAL1	1	R1149N
751.646	4.0	1828101	TEST_PROBE	n/a	wordpools/wordpool_EN.txt	1	1	PASTE	n/a	PASTE	SOCK	6	[0, 0, 0]	-999	PAL1	1	R1149N
751.646	5.015	1828101	REC_START	n/a	n/a	1	-999	n/a	n/a	n/a	n/a	6	[0, 0, 0]	-999	PAL1	1	R1149N
756.661	0.002	1833116	REC_EVENT	5015.0	n/a	1	1	PASTE	<>	PASTE	SOCK	6	[0, 0, 0]	-999	PAL1	1	R1149N
756.663	0.017	1833118	REC_END	n/a	n/a	1	-999	n/a	n/a	n/a	n/a	6	[0, 0, 0]	-999	PAL1	1	R1149N
756.68	0.275	1833135	TEST_ORIENT	n/a	n/a	6	2	HOLE	n/a	HOLE	FOAM	6	[0, 0, 0]	-999	PAL1	1	R1149N
757.58	4.0	1834035	TEST_PROBE	n/a	wordpools/wordpool_EN.txt	6	2	HOLE	n/a	HOLE	FOAM	6	[0, 0, 0]	-999	PAL1	1	R1149N
757.581	3.885	1834036	REC_START	n/a	n/a	6	-999	n/a	n/a	n/a	n/a	6	[0, 0, 0]	-999	PAL1	1	R1149N
761.466	1.14	1837921	REC_EVENT	3885.0	n/a	6	2	HOLE	<>	HOLE	FOAM	6	[0, 0, 0]	-999	PAL1	1	R1149N
762.606	0.025	1839061	REC_END	n/a	n/a	6	-999	n/a	n/a	n/a	n/a	6	[0, 0, 0]	-999	PAL1	1	R1149N
762.631	0.275	1839086	TEST_ORIENT	n/a	n/a	3	3	MOTH	FOAM	MOTH	STORE	6	[0, 0, 0]	-999	PAL1	1	R1149N
763.448	4.0	1839902	TEST_PROBE	n/a	wordpools/wordpool_EN.txt	3	3	MOTH	FOAM	MOTH	STORE	6	[0, 0, 0]	-999	PAL1	1	R1149N
763.448	1.85	1839902	REC_START	n/a	n/a	3	-999	n/a	FOAM	n/a	n/a	6	[0, 0, 0]	-999	PAL1	1	R1149N
765.298	3.167	1841752	REC_EVENT	1850.0	n/a	3	3	MOTH	FOAM	MOTH	STORE	6	[0, 0, 0]	-999	PAL1	1	R1149N
768.465	0.017	1844919	REC_END	n/a	n/a	3	-999	n/a	n/a	n/a	n/a	6	[0, 0, 0]	-999	PAL1	1	R1149N
768.482	0.275	1844936	TEST_ORIENT	n/a	n/a	2	4	LAMP	n/a	YARD	LAMP	6	[0, 0, 0]	-999	PAL1	1	R1149N
769.432	4.0	1845886	TEST_PROBE	n/a	wordpools/wordpool_EN.txt	2	4	LAMP	n/a	YARD	LAMP	6	[0, 0, 0]	-999	PAL1	1	R1149N
769.433	5.021	1845887	REC_START	n/a	n/a	2	-999	n/a	n/a	n/a	n/a	6	[0, 0, 0]	-999	PAL1	1	R1149N
774.454	0.004	1850908	REC_EVENT	5021.0	n/a	2	4	LAMP	<>	YARD	LAMP	6	[0, 0, 0]	-999	PAL1	1	R1149N
774.458	0.008	1850912	REC_END	n/a	n/a	2	-999	n/a	n/a	n/a	n/a	6	[0, 0, 0]	-999	PAL1	1	R1149N
774.466	0.275	1850920	TEST_ORIENT	n/a	n/a	5	5	TRAIN	n/a	TRAIN	GRASS	6	[0, 0, 0]	-999	PAL1	1	R1149N
775.45	0.0	1851904	REC_START	n/a	n/a	5	-999	n/a	n/a	n/a	n/a	6	[0, 0, 0]	-999	PAL1	1	R1149N
775.45	4.0	1851904	TEST_PROBE	n/a	wordpools/wordpool_EN.txt	5	5	TRAIN	n/a	TRAIN	GRASS	6	[0, 0, 0]	-999	PAL1	1	R1149N
779.2	1.267	1855654	REC_EVENT	3750.0	n/a	5	5	TRAIN	<>	TRAIN	GRASS	6	[0, 0, 0]	-999	PAL1	1	R1149N
780.467	0.017	1856921	REC_END	n/a	n/a	5	-999	n/a	n/a	n/a	n/a	6	[0, 0, 0]	-999	PAL1	1	R1149N
780.484	0.275	1856938	TEST_ORIENT	n/a	n/a	4	6	MAT	n/a	MAT	CHEEK	6	[0, 0, 0]	-999	PAL1	1	R1149N
781.518	4.0	1857972	TEST_PROBE	n/a	wordpools/wordpool_EN.txt	4	6	MAT	n/a	MAT	CHEEK	6	[0, 0, 0]	-999	PAL1	1	R1149N
781.518	4.405	1857972	REC_START	n/a	n/a	4	-999	n/a	n/a	n/a	n/a	6	[0, 0, 0]	-999	PAL1	1	R1149N
785.923	0.612	1862376	REC_EVENT	4405.0	n/a	4	6	MAT	<>	MAT	CHEEK	6	[0, 0, 0]	-999	PAL1	1	R1149N
786.535	1.801	1862988	REC_END	n/a	n/a	4	-999	n/a	n/a	n/a	n/a	6	[0, 0, 0]	-999	PAL1	1	R1149N
788.336	10.451	1864789	ENCODING_START	n/a	n/a	0	-999	n/a	n/a	n/a	n/a	7	[0, 0, 0]	-999	PAL1	1	R1149N
798.787	0.275	1875240	STUDY_ORIENT	n/a	n/a	1	1	ELF	WOOD	ELF	RICE	7	[0, 0, 0]	-999	PAL1	1	R1149N
799.571	4.0	1876024	STUDY_PAIR	n/a	wordpools/wordpool_EN.txt	1	1	ELF	WOOD	ELF	RICE	7	[0, 0, 0]	-999	PAL1	1	R1149N
804.605	0.275	1881057	STUDY_ORIENT	n/a	n/a	2	4	TRUCK	n/a	TRUCK	HOOF	7	[0, 0, 0]	-999	PAL1	1	R1149N
805.472	4.0	1881924	STUDY_PAIR	n/a	wordpools/wordpool_EN.txt	2	4	TRUCK	n/a	TRUCK	HOOF	7	[0, 0, 0]	-999	PAL1	1	R1149N
810.506	0.275	1886958	STUDY_ORIENT	n/a	n/a	3	5	BLOOM	n/a	STEAM	BLOOM	7	[0, 0, 0]	-999	PAL1	1	R1149N
811.456	4.0	1887908	STUDY_PAIR	n/a	wordpools/wordpool_EN.txt	3	5	BLOOM	n/a	STEAM	BLOOM	7	[0, 0, 0]	-999	PAL1	1	R1149N
816.49	0.275	1892942	STUDY_ORIENT	n/a	n/a	4	6	APE	n/a	HORN	APE	7	[0, 0, 0]	-999	PAL1	1	R1149N
817.29	4.0	1893742	STUDY_PAIR	n/a	wordpools/wordpool_EN.txt	4	6	APE	n/a	HORN	APE	7	[0, 0, 0]	-999	PAL1	1	R1149N
822.308	0.275	1898760	STUDY_ORIENT	n/a	n/a	5	3	WHEEL	n/a	WHEEL	TRAY	7	[0, 0, 0]	-999	PAL1	1	R1149N
823.224	4.0	1899675	STUDY_PAIR	n/a	wordpools/wordpool_EN.txt	5	3	WHEEL	n/a	WHEEL	TRAY	7	[0, 0, 0]	-999	PAL1	1	R1149N
828.242	0.275	1904693	STUDY_ORIENT	n/a	n/a	6	2	CROW	COUCH	COUCH	CROW	7	[0, 0, 0]	-999	PAL1	1	R1149N
829.242	4.0	1905693	STUDY_PAIR	n/a	wordpools/wordpool_EN.txt	6	2	CROW	COUCH	COUCH	CROW	7	[0, 0, 0]	-999	PAL1	1	R1149N
833.243	1.0	1909694	START	n/a	n/a	-999	-999	n/a	n/a	n/a	n/a	7	[-999, -999, -999]	-999	PAL1	1	R1149N
834.243	0.017	1910694	MATH_START	n/a	n/a	-999	-999	n/a	n/a	n/a	n/a	7	[0, 0, 0]	-999	PAL1	1	R1149N
834.26	10.751	1910711	PROB	10723.0	n/a	-999	-999	n/a	n/a	n/a	n/a	7	[3, 1, 1]	5	PAL1	1	R1149N
845.011	2.434	1921461	PROB	2413.0	n/a	-999	-999	n/a	n/a	n/a	n/a	7	[8, 2, 1]	11	PAL1	1	R1149N
847.445	3.433	1923895	PROB	3411.0	n/a	-999	-999	n/a	n/a	n/a	n/a	7	[4, 9, 2]	15	PAL1	1	R1149N
850.878	5.185	1927328	PROB	5185.0	n/a	-999	-999	n/a	n/a	n/a	n/a	7	[4, 1, 7]	12	PAL1	1	R1149N
856.063	0.017	1932513	STOP	n/a	n/a	-999	-999	n/a	n/a	n/a	n/a	7	[-999, -999, -999]	-999	PAL1	1	R1149N
856.08	0.0	1932530	MATH_END	n/a	n/a	-999	-999	n/a	n/a	n/a	n/a	7	[0, 0, 0]	-999	PAL1	1	R1149N
856.08	0.017	1932530	TEST_START	n/a	n/a	-999	-999	n/a	n/a	n/a	n/a	7	[0, 0, 0]	-999	PAL1	1	R1149N
856.097	0.275	1932547	TEST_ORIENT	n/a	n/a	1	1	ELF	WOOD	ELF	RICE	7	[0, 0, 0]	-999	PAL1	1	R1149N
857.08	4.0	1933530	TEST_PROBE	n/a	wordpools/wordpool_EN.txt	1	1	ELF	WOOD	ELF	RICE	7	[0, 0, 0]	-999	PAL1	1	R1149N
857.081	2.679	1933531	REC_START	n/a	n/a	1	-999	n/a	WOOD	n/a	n/a	7	[0, 0, 0]	-999	PAL1	1	R1149N
859.76	2.329	1936210	REC_EVENT	2679.0	n/a	1	1	ELF	WOOD	ELF	RICE	7	[0, 0, 0]	-999	PAL1	1	R1149N
862.089	0.009	1938539	REC_END	n/a	n/a	1	-999	n/a	n/a	n/a	n/a	7	[0, 0, 0]	-999	PAL1	1	R1149N
862.098	0.275	1938548	TEST_ORIENT	n/a	n/a	6	2	CROW	COUCH	COUCH	CROW	7	[0, 0, 0]	-999	PAL1	1	R1149N
863.03	4.0	1939479	TEST_PROBE	n/a	wordpools/wordpool_EN.txt	6	2	CROW	COUCH	COUCH	CROW	7	[0, 0, 0]	-999	PAL1	1	R1149N
863.031	2.221	1939480	REC_START	n/a	n/a	6	-999	n/a	COUCH	n/a	n/a	7	[0, 0, 0]	-999	PAL1	1	R1149N
865.252	1.0	1941701	REC_EVENT	2221.0	n/a	6	2	CROW	COUCH	COUCH	CROW	7	[0, 0, 0]	-999	PAL1	1	R1149N
866.252	1.787	1942701	REC_EVENT	3221.0	n/a	6	2	CROW	<>	COUCH	CROW	7	[0, 0, 0]	-999	PAL1	1	R1149N
868.039	0.009	1944488	REC_END	n/a	n/a	6	-999	n/a	n/a	n/a	n/a	7	[0, 0, 0]	-999	PAL1	1	R1149N
868.048	0.275	1944497	TEST_ORIENT	n/a	n/a	5	3	WHEEL	n/a	WHEEL	TRAY	7	[0, 0, 0]	-999	PAL1	1	R1149N
869.082	4.0	1945531	TEST_PROBE	n/a	wordpools/wordpool_EN.txt	5	3	WHEEL	n/a	WHEEL	TRAY	7	[0, 0, 0]	-999	PAL1	1	R1149N
869.083	5.008	1945532	REC_START	n/a	n/a	5	-999	n/a	n/a	n/a	n/a	7	[0, 0, 0]	-999	PAL1	1	R1149N
874.091	0.001	1950540	REC_END	n/a	n/a	5	-999	n/a	n/a	n/a	n/a	7	[0, 0, 0]	-999	PAL1	1	R1149N
874.092	0.008	1950541	REC_EVENT	5009.0	n/a	5	3	WHEEL	<>	WHEEL	TRAY	7	[0, 0, 0]	-999	PAL1	1	R1149N
874.1	0.275	1950549	TEST_ORIENT	n/a	n/a	2	4	TRUCK	n/a	TRUCK	HOOF	7	[0, 0, 0]	-999	PAL1	1	R1149N
875.066	4.0	1951515	TEST_PROBE	n/a	wordpools/wordpool_EN.txt	2	4	TRUCK	n/a	TRUCK	HOOF	7	[0, 0, 0]	-999	PAL1	1	R1149N
875.067	5.015	1951516	REC_START	n/a	n/a	2	-999	n/a	n/a	n/a	n/a	7	[0, 0, 0]	-999	PAL1	1	R1149N
880.082	0.002	1956531	REC_EVENT	5015.0	n/a	2	4	TRUCK	<>	TRUCK	HOOF	7	[0, 0, 0]	-999	PAL1	1	R1149N
880.084	0.017	1956533	REC_END	n/a	n/a	2	-999	n/a	n/a	n/a	n/a	7	[0, 0, 0]	-999	PAL1	1	R1149N
880.101	0.275	1956550	TEST_ORIENT	n/a	n/a	3	5	BLOOM	n/a	STEAM	BLOOM	7	[0, 0, 0]	-999	PAL1	1	R1149N
880.9	0.0	1957349	REC_START	n/a	n/a	3	-999	n/a	n/a	n/a	n/a	7	[0, 0, 0]	-999	PAL1	1	R1149N
880.9	4.0	1957349	TEST_PROBE	n/a	wordpools/wordpool_EN.txt	3	5	BLOOM	n/a	STEAM	BLOOM	7	[0, 0, 0]	-999	PAL1	1	R1149N
885.915	0.002	1962363	REC_EVENT	5015.0	n/a	3	5	BLOOM	<>	STEAM	BLOOM	7	[0, 0, 0]	-999	PAL1	1	R1149N
885.917	0.017	1962365	REC_END	n/a	n/a	3	-999	n/a	n/a	n/a	n/a	7	[0, 0, 0]	-999	PAL1	1	R1149N
885.934	0.275	1962382	TEST_ORIENT	n/a	n/a	4	6	APE	n/a	HORN	APE	7	[0, 0, 0]	-999	PAL1	1	R1149N
886.802	4.0	1963250	TEST_PROBE	n/a	wordpools/wordpool_EN.txt	4	6	APE	n/a	HORN	APE	7	[0, 0, 0]	-999	PAL1	1	R1149N
886.802	5.015	1963250	REC_START	n/a	n/a	4	-999	n/a	n/a	n/a	n/a	7	[0, 0, 0]	-999	PAL1	1	R1149N
891.817	0.002	1968265	REC_EVENT	5015.0	n/a	4	6	APE	<>	HORN	APE	7	[0, 0, 0]	-999	PAL1	1	R1149N
891.819	1.725	1968267	REC_END	n/a	n/a	4	-999	n/a	n/a	n/a	n/a	7	[0, 0, 0]	-999	PAL1	1	R1149N
893.544	10.443	1969992	ENCODING_START	n/a	n/a	0	-999	n/a	n/a	n/a	n/a	8	[0, 0, 0]	-999	PAL1	1	R1149N
903.987	0.275	1980434	STUDY_ORIENT	n/a	n/a	1	1	DUCK	SHOE	SHOE	DUCK	8	[0, 0, 0]	-999	PAL1	1	R1149N
904.971	4.0	1981418	STUDY_PAIR	n/a	wordpools/wordpool_EN.txt	1	1	DUCK	SHOE	SHOE	DUCK	8	[0, 0, 0]	-999	PAL1	1	R1149N
910.005	0.275	1986452	STUDY_ORIENT	n/a	n/a	2	6	WOLF	PALM	WOLF	ICE	8	[0, 0, 0]	-999	PAL1	1	R1149N
910.773	4.0	1987220	STUDY_PAIR	n/a	wordpools/wordpool_EN.txt	2	6	WOLF	PALM	WOLF	ICE	8	[0, 0, 0]	-999	PAL1	1	R1149N
915.807	0.275	1992254	STUDY_ORIENT	n/a	n/a	3	5	COW	n/a	COW	PALM	8	[0, 0, 0]	-999	PAL1	1	R1149N
916.59	4.0	1993037	STUDY_PAIR	n/a	wordpools/wordpool_EN.txt	3	5	COW	n/a	COW	PALM	8	[0, 0, 0]	-999	PAL1	1	R1149N
921.608	0.275	1998055	STUDY_ORIENT	n/a	n/a	4	2	DIME	GOLD	GOLD	DIME	8	[0, 0, 0]	-999	PAL1	1	R1149N
922.558	4.0	1999005	STUDY_PAIR	n/a	wordpools/wordpool_EN.txt	4	2	DIME	GOLD	GOLD	DIME	8	[0, 0, 0]	-999	PAL1	1	R1149N
927.592	0.275	2004038	STUDY_ORIENT	n/a	n/a	5	3	BRUSH	n/a	HILL	BRUSH	8	[0, 0, 0]	-999	PAL1	1	R1149N
928.409	4.0	2004855	STUDY_PAIR	n/a	wordpools/wordpool_EN.txt	5	3	BRUSH	n/a	HILL	BRUSH	8	[0, 0, 0]	-999	PAL1	1	R1149N
933.443	0.275	2009889	STUDY_ORIENT	n/a	n/a	6	4	TEETH	n/a	TEETH	CROWN	8	[0, 0, 0]	-999	PAL1	1	R1149N
934.393	4.0	2010839	STUDY_PAIR	n/a	wordpools/wordpool_EN.txt	6	4	TEETH	n/a	TEETH	CROWN	8	[0, 0, 0]	-999	PAL1	1	R1149N
938.394	1.0	2014840	START	n/a	n/a	-999	-999	n/a	n/a	n/a	n/a	8	[-999, -999, -999]	-999	PAL1	1	R1149N
939.394	0.017	2015840	MATH_START	n/a	n/a	-999	-999	n/a	n/a	n/a	n/a	8	[0, 0, 0]	-999	PAL1	1	R1149N
939.411	8.534	2015857	PROB	8508.0	n/a	-999	-999	n/a	n/a	n/a	n/a	8	[8, 9, 7]	24	PAL1	1	R1149N
947.945	4.1	2024390	PROB	4070.0	n/a	-999	-999	n/a	n/a	n/a	n/a	8	[5, 8, 8]	23	PAL1	1	R1149N
952.045	3.219	2028490	PROB	3195.0	n/a	-999	-999	n/a	n/a	n/a	n/a	8	[6, 3, 3]	12	PAL1	1	R1149N
955.264	10.152	2031709	PROB	10152.0	n/a	-999	-999	n/a	n/a	n/a	n/a	8	[6, 5, 8]	19	PAL1	1	R1149N
965.416	0.016	2041860	STOP	n/a	n/a	-999	-999	n/a	n/a	n/a	n/a	8	[-999, -999, -999]	-999	PAL1	1	R1149N
965.432	0.0	2041876	MATH_END	n/a	n/a	-999	-999	n/a	n/a	n/a	n/a	8	[0, 0, 0]	-999	PAL1	1	R1149N
965.432	0.017	2041876	TEST_START	n/a	n/a	-999	-999	n/a	n/a	n/a	n/a	8	[0, 0, 0]	-999	PAL1	1	R1149N
965.449	0.275	2041893	TEST_ORIENT	n/a	n/a	1	1	DUCK	SHOE	SHOE	DUCK	8	[0, 0, 0]	-999	PAL1	1	R1149N
966.299	0.0	2042743	REC_START	n/a	n/a	1	-999	n/a	SHOE	n/a	n/a	8	[0, 0, 0]	-999	PAL1	1	R1149N
966.299	4.0	2042743	TEST_PROBE	n/a	wordpools/wordpool_EN.txt	1	1	DUCK	SHOE	SHOE	DUCK	8	[0, 0, 0]	-999	PAL1	1	R1149N
967.248	4.068	2043692	REC_EVENT	949.0	n/a	1	1	DUCK	SHOE	SHOE	DUCK	8	[0, 0, 0]	-999	PAL1	1	R1149N
971.316	0.017	2047760	REC_END	n/a	n/a	1	-999	n/a	n/a	n/a	n/a	8	[0, 0, 0]	-999	PAL1	1	R1149N
971.333	0.275	2047777	TEST_ORIENT	n/a	n/a	4	2	DIME	GOLD	GOLD	DIME	8	[0, 0, 0]	-999	PAL1	1	R1149N
972.216	4.0	2048660	TEST_PROBE	n/a	wordpools/wordpool_EN.txt	4	2	DIME	GOLD	GOLD	DIME	8	[0, 0, 0]	-999	PAL1	1	R1149N
972.217	1.212	2048661	REC_START	n/a	n/a	4	-999	n/a	GOLD	n/a	n/a	8	[0, 0, 0]	-999	PAL1	1	R1149N
973.429	3.797	2049873	REC_EVENT	1212.0	n/a	4	2	DIME	GOLD	GOLD	DIME	8	[0, 0, 0]	-999	PAL1	1	R1149N
977.226	0.008	2053670	REC_END	n/a	n/a	4	-999	n/a	n/a	n/a	n/a	8	[0, 0, 0]	-999	PAL1	1	R1149N
977.234	0.275	2053678	TEST_ORIENT	n/a	n/a	5	3	BRUSH	n/a	HILL	BRUSH	8	[0, 0, 0]	-999	PAL1	1	R1149N
978.084	4.0	2054528	TEST_PROBE	n/a	wordpools/wordpool_EN.txt	5	3	BRUSH	n/a	HILL	BRUSH	8	[0, 0, 0]	-999	PAL1	1	R1149N
978.085	5.025	2054529	REC_START	n/a	n/a	5	-999	n/a	n/a	n/a	n/a	8	[0, 0, 0]	-999	PAL1	1	R1149N
983.11	0.002	2059553	REC_END	n/a	n/a	5	-999	n/a	n/a	n/a	n/a	8	[0, 0, 0]	-999	PAL1	1	R1149N
983.112	0.006	2059555	REC_EVENT	5027.0	n/a	5	3	BRUSH	<>	HILL	BRUSH	8	[0, 0, 0]	-999	PAL1	1	R1149N
983.118	0.275	2059561	TEST_ORIENT	n/a	n/a	6	4	TEETH	n/a	TEETH	CROWN	8	[0, 0, 0]	-999	PAL1	1	R1149N
984.034	4.0	2060477	TEST_PROBE	n/a	wordpools/wordpool_EN.txt	6	4	TEETH	n/a	TEETH	CROWN	8	[0, 0, 0]	-999	PAL1	1	R1149N
984.035	5.015	2060478	REC_START	n/a	n/a	6	-999	n/a	n/a	n/a	n/a	8	[0, 0, 0]	-999	PAL1	1	R1149N
989.05	0.001	2065493	REC_EVENT	5015.0	n/a	6	4	TEETH	<>	TEETH	CROWN	8	[0, 0, 0]	-999	PAL1	1	R1149N
989.051	0.018	2065494	REC_END	n/a	n/a	6	-999	n/a	n/a	n/a	n/a	8	[0, 0, 0]	-999	PAL1	1	R1149N
989.069	0.275	2065512	TEST_ORIENT	n/a	n/a	3	5	COW	n/a	COW	PALM	8	[0, 0, 0]	-999	PAL1	1	R1149N
990.035	4.0	2066478	TEST_PROBE	n/a	wordpools/wordpool_EN.txt	3	5	COW	n/a	COW	PALM	8	[0, 0, 0]	-999	PAL1	1	R1149N
990.036	5.031	2066479	REC_START	n/a	n/a	3	-999	n/a	n/a	n/a	n/a	8	[0, 0, 0]	-999	PAL1	1	R1149N
995.067	0.001	2071510	REC_END	n/a	n/a	3	-999	n/a	n/a	n/a	n/a	8	[0, 0, 0]	-999	PAL1	1	R1149N
995.068	0.019	2071511	REC_EVENT	5032.0	n/a	3	5	COW	<>	COW	PALM	8	[0, 0, 0]	-999	PAL1	1	R1149N
995.087	0.275	2071530	TEST_ORIENT	n/a	n/a	2	6	WOLF	PALM	WOLF	ICE	8	[0, 0, 0]	-999	PAL1	1	R1149N
996.07	4.0	2072513	TEST_PROBE	n/a	wordpools/wordpool_EN.txt	2	6	WOLF	PALM	WOLF	ICE	8	[0, 0, 0]	-999	PAL1	1	R1149N
996.071	1.137	2072514	REC_START	n/a	n/a	2	-999	n/a	PALM	n/a	n/a	8	[0, 0, 0]	-999	PAL1	1	R1149N
997.208	3.874	2073651	REC_EVENT	1137.0	n/a	2	6	WOLF	PALM	WOLF	ICE	8	[0, 0, 0]	-999	PAL1	1	R1149N
1001.082	1.718	2077525	REC_END	n/a	n/a	2	-999	n/a	n/a	n/a	n/a	8	[0, 0, 0]	-999	PAL1	1	R1149N
1002.8	10.44	2079242	ENCODING_START	n/a	n/a	0	-999	n/a	n/a	n/a	n/a	9	[0, 0, 0]	-999	PAL1	1	R1149N
1013.24	0.275	2089682	STUDY_ORIENT	n/a	n/a	1	3	JAR	n/a	FLOOR	JAR	9	[0, 0, 0]	-999	PAL1	1	R1149N
1014.124	4.0	2090566	STUDY_PAIR	n/a	wordpools/wordpool_EN.txt	1	3	JAR	n/a	FLOOR	JAR	9	[0, 0, 0]	-999	PAL1	1	R1149N
1019.158	0.275	2095600	STUDY_ORIENT	n/a	n/a	2	2	EAR	n/a	EAR	SOUP	9	[0, 0, 0]	-999	PAL1	1	R1149N
1020.091	4.0	2096533	STUDY_PAIR	n/a	wordpools/wordpool_EN.txt	2	2	EAR	n/a	EAR	SOUP	9	[0, 0, 0]	-999	PAL1	1	R1149N
1025.109	0.275	2101550	STUDY_ORIENT	n/a	n/a	3	5	CAT	SHEEP	CAT	FROG	9	[0, 0, 0]	-999	PAL1	1	R1149N
1025.975	4.0	2102416	STUDY_PAIR	n/a	wordpools/wordpool_EN.txt	3	5	CAT	SHEEP	CAT	FROG	9	[0, 0, 0]	-999	PAL1	1	R1149N
1031.009	0.275	2107450	STUDY_ORIENT	n/a	n/a	4	4	CHALK	n/a	SNOW	CHALK	9	[0, 0, 0]	-999	PAL1	1	R1149N
1031.942	4.0	2108383	STUDY_PAIR	n/a	wordpools/wordpool_EN.txt	4	4	CHALK	n/a	SNOW	CHALK	9	[0, 0, 0]	-999	PAL1	1	R1149N
1036.96	0.275	2113401	STUDY_ORIENT	n/a	n/a	5	1	BEACH	n/a	BEACH	PEACH	9	[0, 0, 0]	-999	PAL1	1	R1149N
1037.96	4.0	2114401	STUDY_PAIR	n/a	wordpools/wordpool_EN.txt	5	1	BEACH	n/a	BEACH	PEACH	9	[0, 0, 0]	-999	PAL1	1	R1149N
1042.994	0.275	2119434	STUDY_ORIENT	n/a	n/a	6	6	BAG	n/a	BIRD	BAG	9	[0, 0, 0]	-999	PAL1	1	R1149N
1043.861	4.0	2120301	STUDY_PAIR	n/a	wordpools/wordpool_EN.txt	6	6	BAG	n/a	BIRD	BAG	9	[0, 0, 0]	-999	PAL1	1	R1149N
1047.879	0.999	2124319	START	n/a	n/a	-999	-999	n/a	n/a	n/a	n/a	9	[-999, -999, -999]	-999	PAL1	1	R1149N
1048.878	0.017	2125318	MATH_START	n/a	n/a	-999	-999	n/a	n/a	n/a	n/a	9	[0, 0, 0]	-999	PAL1	1	R1149N
1048.895	4.702	2125335	PROB	4681.0	n/a	-999	-999	n/a	n/a	n/a	n/a	9	[7, 1, 2]	10	PAL1	1	R1149N
1053.597	3.266	2130037	PROB	3235.0	n/a	-999	-999	n/a	n/a	n/a	n/a	9	[9, 1, 3]	13	PAL1	1	R1149N
1056.863	6.369	2133303	PROB	6329.0	n/a	-999	-999	n/a	n/a	n/a	n/a	9	[8, 9, 3]	20	PAL1	1	R1149N
1063.232	2.85	2139671	PROB	2823.0	n/a	-999	-999	n/a	n/a	n/a	n/a	9	[1, 5, 9]	15	PAL1	1	R1149N
1066.082	10.909	2142521	PROB	10909.0	n/a	-999	-999	n/a	n/a	n/a	n/a	9	[3, 5, 3]	11	PAL1	1	R1149N
1076.991	0.009	2153430	STOP	n/a	n/a	-999	-999	n/a	n/a	n/a	n/a	9	[-999, -999, -999]	-999	PAL1	1	R1149N
1077.0	0.0	2153439	MATH_END	n/a	n/a	-999	-999	n/a	n/a	n/a	n/a	9	[0, 0, 0]	-999	PAL1	1	R1149N
1077.0	0.017	2153439	TEST_START	n/a	n/a	-999	-999	n/a	n/a	n/a	n/a	9	[0, 0, 0]	-999	PAL1	1	R1149N
1077.017	0.275	2153456	TEST_ORIENT	n/a	n/a	5	1	BEACH	n/a	BEACH	PEACH	9	[0, 0, 0]	-999	PAL1	1	R1149N
1078.0	4.0	2154439	TEST_PROBE	n/a	wordpools/wordpool_EN.txt	5	1	BEACH	n/a	BEACH	PEACH	9	[0, 0, 0]	-999	PAL1	1	R1149N
1078.001	3.556	2154440	REC_START	n/a	n/a	5	-999	n/a	n/a	n/a	n/a	9	[0, 0, 0]	-999	PAL1	1	R1149N
1081.557	1.46	2157996	REC_EVENT	3556.0	n/a	5	1	BEACH	<>	BEACH	PEACH	9	[0, 0, 0]	-999	PAL1	1	R1149N
1083.017	0.017	2159455	REC_END	n/a	n/a	5	-999	n/a	n/a	n/a	n/a	9	[0, 0, 0]	-999	PAL1	1	R1149N
1083.034	0.275	2159472	TEST_ORIENT	n/a	n/a	2	2	EAR	n/a	EAR	SOUP	9	[0, 0, 0]	-999	PAL1	1	R1149N
1083.852	4.0	2160290	TEST_PROBE	n/a	wordpools/wordpool_EN.txt	2	2	EAR	n/a	EAR	SOUP	9	[0, 0, 0]	-999	PAL1	1	R1149N
1083.853	5.015	2160291	REC_START	n/a	n/a	2	-999	n/a	n/a	n/a	n/a	9	[0, 0, 0]	-999	PAL1	1	R1149N
1088.868	0.0	2165306	REC_EVENT	5015.0	n/a	2	2	EAR	<>	EAR	SOUP	9	[0, 0, 0]	-999	PAL1	1	R1149N
1088.868	0.017	2165306	REC_END	n/a	n/a	2	-999	n/a	n/a	n/a	n/a	9	[0, 0, 0]	-999	PAL1	1	R1149N
1088.885	0.275	2165323	TEST_ORIENT	n/a	n/a	1	3	JAR	n/a	FLOOR	JAR	9	[0, 0, 0]	-999	PAL1	1	R1149N
1089.902	4.0	2166340	TEST_PROBE	n/a	wordpools/wordpool_EN.txt	1	3	JAR	n/a	FLOOR	JAR	9	[0, 0, 0]	-999	PAL1	1	R1149N
1089.902	4.325	2166340	REC_START	n/a	n/a	1	-999	n/a	n/a	n/a	n/a	9	[0, 0, 0]	-999	PAL1	1	R1149N
1094.227	0.692	2170665	REC_EVENT	4325.0	n/a	1	3	JAR	<>	FLOOR	JAR	9	[0, 0, 0]	-999	PAL1	1	R1149N
1094.919	0.017	2171357	REC_END	n/a	n/a	1	-999	n/a	n/a	n/a	n/a	9	[0, 0, 0]	-999	PAL1	1	R1149N
1094.936	0.275	2171374	TEST_ORIENT	n/a	n/a	4	4	CHALK	n/a	SNOW	CHALK	9	[0, 0, 0]	-999	PAL1	1	R1149N
1095.903	4.0	2172341	TEST_PROBE	n/a	wordpools/wordpool_EN.txt	4	4	CHALK	n/a	SNOW	CHALK	9	[0, 0, 0]	-999	PAL1	1	R1149N
1095.904	5.015	2172342	REC_START	n/a	n/a	4	-999	n/a	n/a	n/a	n/a	9	[0, 0, 0]	-999	PAL1	1	R1149N
1100.919	0.001	2177357	REC_EVENT	5015.0	n/a	4	4	CHALK	<>	SNOW	CHALK	9	[0, 0, 0]	-999	PAL1	1	R1149N
1100.92	0.017	2177358	REC_END	n/a	n/a	4	-999	n/a	n/a	n/a	n/a	9	[0, 0, 0]	-999	PAL1	1	R1149N
1100.937	0.275	2177375	TEST_ORIENT	n/a	n/a	3	5	CAT	SHEEP	CAT	FROG	9	[0, 0, 0]	-999	PAL1	1	R1149N
1101.772	4.0	2178210	TEST_PROBE	n/a	wordpools/wordpool_EN.txt	3	5	CAT	SHEEP	CAT	FROG	9	[0, 0, 0]	-999	PAL1	1	R1149N
1101.772	2.53	2178210	REC_START	n/a	n/a	3	-999	n/a	SHEEP	n/a	n/a	9	[0, 0, 0]	-999	PAL1	1	R1149N
1104.302	2.487	2180739	REC_EVENT	2530.0	n/a	3	5	CAT	SHEEP	CAT	FROG	9	[0, 0, 0]	-999	PAL1	1	R1149N
1106.789	0.017	2183226	REC_END	n/a	n/a	3	-999	n/a	n/a	n/a	n/a	9	[0, 0, 0]	-999	PAL1	1	R1149N
1106.806	0.275	2183243	TEST_ORIENT	n/a	n/a	6	6	BAG	n/a	BIRD	BAG	9	[0, 0, 0]	-999	PAL1	1	R1149N
1107.839	4.0	2184276	TEST_PROBE	n/a	wordpools/wordpool_EN.txt	6	6	BAG	n/a	BIRD	BAG	9	[0, 0, 0]	-999	PAL1	1	R1149N
1107.84	5.003	2184277	REC_START	n/a	n/a	6	-999	n/a	n/a	n/a	n/a	9	[0, 0, 0]	-999	PAL1	1	R1149N
1112.843	0.005	2189280	REC_EVENT	5003.0	n/a	6	6	BAG	<>	BIRD	BAG	9	[0, 0, 0]	-999	PAL1	1	R1149N
1112.848	1.4	2189285	REC_END	n/a	n/a	6	-999	n/a	n/a	n/a	n/a	9	[0, 0, 0]	-999	PAL1	1	R1149N
1114.248	10.444	2190685	ENCODING_START	n/a	n/a	0	-999	n/a	n/a	n/a	n/a	10	[0, 0, 0]	-999	PAL1	1	R1149N
1124.692	0.275	2201128	STUDY_ORIENT	n/a	n/a	1	5	STEM	n/a	STEM	SPONGE	10	[0, 0, 0]	-999	PAL1	1	R1149N
1125.559	4.0	2201995	STUDY_PAIR	n/a	wordpools/wordpool_EN.txt	1	5	STEM	n/a	STEM	SPONGE	10	[0, 0, 0]	-999	PAL1	1	R1149N
1130.593	0.275	2207029	STUDY_ORIENT	n/a	n/a	2	2	SPARK	SPONGE	SPARK	HAT	10	[0, 0, 0]	-999	PAL1	1	R1149N
1131.56	4.0	2207996	STUDY_PAIR	n/a	wordpools/wordpool_EN.txt	2	2	SPARK	SPONGE	SPARK	HAT	10	[0, 0, 0]	-999	PAL1	1	R1149N
1136.594	0.275	2213030	STUDY_ORIENT	n/a	n/a	3	3	MOOSE	HAT	MOOSE	WAVE	10	[0, 0, 0]	-999	PAL1	1	R1149N
1137.595	4.0	2214031	STUDY_PAIR	n/a	wordpools/wordpool_EN.txt	3	3	MOOSE	HAT	MOOSE	WAVE	10	[0, 0, 0]	-999	PAL1	1	R1149N
1142.629	0.275	2219065	STUDY_ORIENT	n/a	n/a	4	4	COIN	n/a	COIN	SLUSH	10	[0, 0, 0]	-999	PAL1	1	R1149N
1143.579	4.0	2220014	STUDY_PAIR	n/a	wordpools/wordpool_EN.txt	4	4	COIN	n/a	COIN	SLUSH	10	[0, 0, 0]	-999	PAL1	1	R1149N
1148.613	0.275	2225048	STUDY_ORIENT	n/a	n/a	5	1	PET	n/a	PET	BAT	10	[0, 0, 0]	-999	PAL1	1	R1149N
1149.48	4.0	2225915	STUDY_PAIR	n/a	wordpools/wordpool_EN.txt	5	1	PET	n/a	PET	BAT	10	[0, 0, 0]	-999	PAL1	1	R1149N
1154.514	0.275	2230949	STUDY_ORIENT	n/a	n/a	6	6	DOCK	n/a	CHIN	DOCK	10	[0, 0, 0]	-999	PAL1	1	R1149N
1155.331	4.0	2231766	STUDY_PAIR	n/a	wordpools/wordpool_EN.txt	6	6	DOCK	n/a	CHIN	DOCK	10	[0, 0, 0]	-999	PAL1	1	R1149N
1159.348	1.0	2235783	START	n/a	n/a	-999	-999	n/a	n/a	n/a	n/a	10	[-999, -999, -999]	-999	PAL1	1	R1149N
1160.348	0.017	2236783	MATH_START	n/a	n/a	-999	-999	n/a	n/a	n/a	n/a	10	[0, 0, 0]	-999	PAL1	1	R1149N
1160.365	6.868	2236800	PROB	6843.0	n/a	-999	-999	n/a	n/a	n/a	n/a	10	[9, 3, 2]	14	PAL1	1	R1149N
1167.233	3.384	2243667	PROB	3359.0	n/a	-999	-999	n/a	n/a	n/a	n/a	10	[1, 7, 1]	9	PAL1	1	R1149N
1170.617	6.383	2247051	PROB	6350.0	n/a	-999	-999	n/a	n/a	n/a	n/a	10	[9, 8, 2]	19	PAL1	1	R1149N
1177.0	5.648	2253434	PROB	5648.0	n/a	-999	-999	n/a	n/a	n/a	n/a	10	[1, 9, 7]	15	PAL1	1	R1149N
1182.648	0.004	2259082	STOP	n/a	n/a	-999	-999	n/a	n/a	n/a	n/a	10	[-999, -999, -999]	-999	PAL1	1	R1149N
1182.652	0.0	2259086	MATH_END	n/a	n/a	-999	-999	n/a	n/a	n/a	n/a	10	[0, 0, 0]	-999	PAL1	1	R1149N
1182.652	0.017	2259086	TEST_START	n/a	n/a	-999	-999	n/a	n/a	n/a	n/a	10	[0, 0, 0]	-999	PAL1	1	R1149N
1182.669	0.275	2259102	TEST_ORIENT	n/a	n/a	5	1	PET	n/a	PET	BAT	10	[0, 0, 0]	-999	PAL1	1	R1149N
1183.552	4.0	2259985	TEST_PROBE	n/a	wordpools/wordpool_EN.txt	5	1	PET	n/a	PET	BAT	10	[0, 0, 0]	-999	PAL1	1	R1149N
1183.553	5.008	2259986	REC_START	n/a	n/a	5	-999	n/a	n/a	n/a	n/a	10	[0, 0, 0]	-999	PAL1	1	R1149N
1188.561	0.001	2264994	REC_END	n/a	n/a	5	-999	n/a	n/a	n/a	n/a	10	[0, 0, 0]	-999	PAL1	1	R1149N
1188.562	0.008	2264995	REC_EVENT	5009.0	n/a	5	1	PET	<>	PET	BAT	10	[0, 0, 0]	-999	PAL1	1	R1149N
1188.57	0.275	2265003	TEST_ORIENT	n/a	n/a	2	2	SPARK	SPONGE	SPARK	HAT	10	[0, 0, 0]	-999	PAL1	1	R1149N
1189.42	4.0	2265853	TEST_PROBE	n/a	wordpools/wordpool_EN.txt	2	2	SPARK	SPONGE	SPARK	HAT	10	[0, 0, 0]	-999	PAL1	1	R1149N
1189.42	2.069	2265853	REC_START	n/a	n/a	2	-999	n/a	SPONGE	n/a	n/a	10	[0, 0, 0]	-999	PAL1	1	R1149N
1191.489	2.948	2267922	REC_EVENT	2069.0	n/a	2	2	SPARK	SPONGE	SPARK	HAT	10	[0, 0, 0]	-999	PAL1	1	R1149N
1194.437	0.017	2270870	REC_END	n/a	n/a	2	-999	n/a	n/a	n/a	n/a	10	[0, 0, 0]	-999	PAL1	1	R1149N
1194.454	0.275	2270887	TEST_ORIENT	n/a	n/a	3	3	MOOSE	HAT	MOOSE	WAVE	10	[0, 0, 0]	-999	PAL1	1	R1149N
1195.321	4.0	2271754	TEST_PROBE	n/a	wordpools/wordpool_EN.txt	3	3	MOOSE	HAT	MOOSE	WAVE	10	[0, 0, 0]	-999	PAL1	1	R1149N
1195.322	3.918	2271755	REC_START	n/a	n/a	3	-999	n/a	HAT	n/a	n/a	10	[0, 0, 0]	-999	PAL1	1	R1149N
1199.24	1.106	2275673	REC_EVENT	3918.0	n/a	3	3	MOOSE	HAT	MOOSE	WAVE	10	[0, 0, 0]	-999	PAL1	1	R1149N
1200.346	0.009	2276779	REC_END	n/a	n/a	3	-999	n/a	n/a	n/a	n/a	10	[0, 0, 0]	-999	PAL1	1	R1149N
1200.355	0.275	2276788	TEST_ORIENT	n/a	n/a	4	4	COIN	n/a	COIN	SLUSH	10	[0, 0, 0]	-999	PAL1	1	R1149N
1201.389	4.0	2277822	TEST_PROBE	n/a	wordpools/wordpool_EN.txt	4	4	COIN	n/a	COIN	SLUSH	10	[0, 0, 0]	-999	PAL1	1	R1149N
1201.389	3.223	2277822	REC_START	n/a	n/a	4	-999	n/a	n/a	n/a	n/a	10	[0, 0, 0]	-999	PAL1	1	R1149N
1204.612	1.794	2281044	REC_EVENT	3223.0	n/a	4	4	COIN	<>	COIN	SLUSH	10	[0, 0, 0]	-999	PAL1	1	R1149N
1206.406	0.017	2282838	REC_END	n/a	n/a	4	-999	n/a	n/a	n/a	n/a	10	[0, 0, 0]	-999	PAL1	1	R1149N
1206.423	0.275	2282855	TEST_ORIENT	n/a	n/a	1	5	STEM	n/a	STEM	SPONGE	10	[0, 0, 0]	-999	PAL1	1	R1149N
1207.24	4.0	2283672	TEST_PROBE	n/a	wordpools/wordpool_EN.txt	1	5	STEM	n/a	STEM	SPONGE	10	[0, 0, 0]	-999	PAL1	1	R1149N
1207.24	1.44	2283672	REC_START	n/a	n/a	1	-999	n/a	n/a	n/a	n/a	10	[0, 0, 0]	-999	PAL1	1	R1149N
1208.68	3.585	2285112	REC_EVENT	1440.0	n/a	1	5	STEM	<>	STEM	SPONGE	10	[0, 0, 0]	-999	PAL1	1	R1149N
1212.265	0.009	2288697	REC_END	n/a	n/a	1	-999	n/a	n/a	n/a	n/a	10	[0, 0, 0]	-999	PAL1	1	R1149N
1212.274	0.275	2288706	TEST_ORIENT	n/a	n/a	6	6	DOCK	n/a	CHIN	DOCK	10	[0, 0, 0]	-999	PAL1	1	R1149N
1213.124	0.0	2289556	REC_START	n/a	n/a	6	-999	n/a	n/a	n/a	n/a	10	[0, 0, 0]	-999	PAL1	1	R1149N
1213.124	4.0	2289556	TEST_PROBE	n/a	wordpools/wordpool_EN.txt	6	6	DOCK	n/a	CHIN	DOCK	10	[0, 0, 0]	-999	PAL1	1	R1149N
1218.141	0.004	2294573	REC_END	n/a	n/a	6	-999	n/a	n/a	n/a	n/a	10	[0, 0, 0]	-999	PAL1	1	R1149N
1218.145	1.527	2294577	REC_EVENT	5021.0	n/a	6	6	DOCK	<>	CHIN	DOCK	10	[0, 0, 0]	-999	PAL1	1	R1149N
1219.672	10.438	2296104	ENCODING_START	n/a	n/a	0	-999	n/a	n/a	n/a	n/a	11	[0, 0, 0]	-999	PAL1	1	R1149N
1230.11	0.275	2306541	STUDY_ORIENT	n/a	n/a	1	1	OWL	n/a	OWL	BOX	11	[0, 0, 0]	-999	PAL1	1	R1149N
1231.094	4.0	2307525	STUDY_PAIR	n/a	wordpools/wordpool_EN.txt	1	1	OWL	n/a	OWL	BOX	11	[0, 0, 0]	-999	PAL1	1	R1149N
1236.128	0.275	2312559	STUDY_ORIENT	n/a	n/a	2	6	FACE	n/a	FACE	STRAW	11	[0, 0, 0]	-999	PAL1	1	R1149N
1237.06	4.0	2313491	STUDY_PAIR	n/a	wordpools/wordpool_EN.txt	2	6	FACE	n/a	FACE	STRAW	11	[0, 0, 0]	-999	PAL1	1	R1149N
1242.079	0.275	2318510	STUDY_ORIENT	n/a	n/a	3	3	JEEP	ARM	ARM	JEEP	11	[0, 0, 0]	-999	PAL1	1	R1149N
1242.878	4.0	2319308	STUDY_PAIR	n/a	wordpools/wordpool_EN.txt	3	3	JEEP	ARM	ARM	JEEP	11	[0, 0, 0]	-999	PAL1	1	R1149N
1247.912	0.275	2324342	STUDY_ORIENT	n/a	n/a	4	2	VASE	n/a	SCHOOL	VASE	11	[0, 0, 0]	-999	PAL1	1	R1149N
1248.83	4.0	2325260	STUDY_PAIR	n/a	wordpools/wordpool_EN.txt	4	2	VASE	n/a	SCHOOL	VASE	11	[0, 0, 0]	-999	PAL1	1	R1149N
1253.863	0.275	2330293	STUDY_ORIENT	n/a	n/a	5	5	JET	n/a	KEY	JET	11	[0, 0, 0]	-999	PAL1	1	R1149N
1254.848	4.0	2331278	STUDY_PAIR	n/a	wordpools/wordpool_EN.txt	5	5	JET	n/a	KEY	JET	11	[0, 0, 0]	-999	PAL1	1	R1149N
1259.881	0.275	2336311	STUDY_ORIENT	n/a	n/a	6	4	KITE	n/a	STICK	KITE	11	[0, 0, 0]	-999	PAL1	1	R1149N
1260.849	4.0	2337279	STUDY_PAIR	n/a	wordpools/wordpool_EN.txt	6	4	KITE	n/a	STICK	KITE	11	[0, 0, 0]	-999	PAL1	1	R1149N
1264.865	1.0	2341294	START	n/a	n/a	-999	-999	n/a	n/a	n/a	n/a	11	[-999, -999, -999]	-999	PAL1	1	R1149N
1265.865	0.017	2342294	MATH_START	n/a	n/a	-999	-999	n/a	n/a	n/a	n/a	11	[0, 0, 0]	-999	PAL1	1	R1149N
1265.882	8.001	2342311	PROB	7974.0	n/a	-999	-999	n/a	n/a	n/a	n/a	11	[5, 5, 6]	16	PAL1	1	R1149N
1273.883	3.869	2350312	PROB	3837.0	n/a	-999	-999	n/a	n/a	n/a	n/a	11	[2, 3, 1]	6	PAL1	1	R1149N
1277.752	2.85	2354181	PROB	2824.0	n/a	-999	-999	n/a	n/a	n/a	n/a	11	[4, 1, 1]	6	PAL1	1	R1149N
1280.602	5.046	2357031	PROB	5046.0	n/a	-999	-999	n/a	n/a	n/a	n/a	11	[3, 2, 7]	12	PAL1	1	R1149N
1285.648	0.005	2362076	STOP	n/a	n/a	-999	-999	n/a	n/a	n/a	n/a	11	[-999, -999, -999]	-999	PAL1	1	R1149N
1285.653	0.0	2362081	TEST_START	n/a	n/a	-999	-999	n/a	n/a	n/a	n/a	11	[0, 0, 0]	-999	PAL1	1	R1149N
1285.653	0.017	2362081	MATH_END	n/a	n/a	-999	-999	n/a	n/a	n/a	n/a	11	[0, 0, 0]	-999	PAL1	1	R1149N
1285.67	0.275	2362098	TEST_ORIENT	n/a	n/a	1	1	OWL	n/a	OWL	BOX	11	[0, 0, 0]	-999	PAL1	1	R1149N
1286.503	4.0	2362931	TEST_PROBE	n/a	wordpools/wordpool_EN.txt	1	1	OWL	n/a	OWL	BOX	11	[0, 0, 0]	-999	PAL1	1	R1149N
1286.503	3.114	2362931	REC_START	n/a	n/a	1	-999	n/a	n/a	n/a	n/a	11	[0, 0, 0]	-999	PAL1	1	R1149N
1289.617	1.903	2366045	REC_EVENT	3114.0	n/a	1	1	OWL	<>	OWL	BOX	11	[0, 0, 0]	-999	PAL1	1	R1149N
1291.52	0.017	2367948	REC_END	n/a	n/a	1	-999	n/a	n/a	n/a	n/a	11	[0, 0, 0]	-999	PAL1	1	R1149N
1291.537	0.275	2367965	TEST_ORIENT	n/a	n/a	4	2	VASE	n/a	SCHOOL	VASE	11	[0, 0, 0]	-999	PAL1	1	R1149N
1292.437	4.0	2368865	TEST_PROBE	n/a	wordpools/wordpool_EN.txt	4	2	VASE	n/a	SCHOOL	VASE	11	[0, 0, 0]	-999	PAL1	1	R1149N
1292.438	2.499	2368866	REC_START	n/a	n/a	4	-999	n/a	n/a	n/a	n/a	11	[0, 0, 0]	-999	PAL1	1	R1149N
1294.937	2.509	2371365	REC_EVENT	2499.0	n/a	4	2	VASE	<>	SCHOOL	VASE	11	[0, 0, 0]	-999	PAL1	1	R1149N
1297.446	0.009	2373874	REC_END	n/a	n/a	4	-999	n/a	n/a	n/a	n/a	11	[0, 0, 0]	-999	PAL1	1	R1149N
1297.455	0.275	2373883	TEST_ORIENT	n/a	n/a	3	3	JEEP	ARM	ARM	JEEP	11	[0, 0, 0]	-999	PAL1	1	R1149N
1298.305	4.0	2374733	TEST_PROBE	n/a	wordpools/wordpool_EN.txt	3	3	JEEP	ARM	ARM	JEEP	11	[0, 0, 0]	-999	PAL1	1	R1149N
1298.305	2.038	2374733	REC_START	n/a	n/a	3	-999	n/a	ARM	n/a	n/a	11	[0, 0, 0]	-999	PAL1	1	R1149N
1300.343	2.979	2376771	REC_EVENT	2038.0	n/a	3	3	JEEP	ARM	ARM	JEEP	11	[0, 0, 0]	-999	PAL1	1	R1149N
1303.322	0.017	2379749	REC_END	n/a	n/a	3	-999	n/a	n/a	n/a	n/a	11	[0, 0, 0]	-999	PAL1	1	R1149N
1303.339	0.275	2379766	TEST_ORIENT	n/a	n/a	6	4	KITE	n/a	STICK	KITE	11	[0, 0, 0]	-999	PAL1	1	R1149N
1304.323	0.0	2380750	REC_START	n/a	n/a	6	-999	n/a	n/a	n/a	n/a	11	[0, 0, 0]	-999	PAL1	1	R1149N
1304.323	4.0	2380750	TEST_PROBE	n/a	wordpools/wordpool_EN.txt	6	4	KITE	n/a	STICK	KITE	11	[0, 0, 0]	-999	PAL1	1	R1149N
1309.338	0.002	2385765	REC_EVENT	5015.0	n/a	6	4	KITE	<>	STICK	KITE	11	[0, 0, 0]	-999	PAL1	1	R1149N
1309.34	0.017	2385767	REC_END	n/a	n/a	6	-999	n/a	n/a	n/a	n/a	11	[0, 0, 0]	-999	PAL1	1	R1149N
1309.357	0.275	2385784	TEST_ORIENT	n/a	n/a	5	5	JET	n/a	KEY	JET	11	[0, 0, 0]	-999	PAL1	1	R1149N
1310.174	4.0	2386601	TEST_PROBE	n/a	wordpools/wordpool_EN.txt	5	5	JET	n/a	KEY	JET	11	[0, 0, 0]	-999	PAL1	1	R1149N
1310.174	5.021	2386601	REC_START	n/a	n/a	5	-999	n/a	n/a	n/a	n/a	11	[0, 0, 0]	-999	PAL1	1	R1149N
1315.195	0.004	2391622	REC_EVENT	5021.0	n/a	5	5	JET	<>	KEY	JET	11	[0, 0, 0]	-999	PAL1	1	R1149N
1315.199	0.009	2391626	REC_END	n/a	n/a	5	-999	n/a	n/a	n/a	n/a	11	[0, 0, 0]	-999	PAL1	1	R1149N
1315.208	0.275	2391635	TEST_ORIENT	n/a	n/a	2	6	FACE	n/a	FACE	STRAW	11	[0, 0, 0]	-999	PAL1	1	R1149N
1316.141	0.0	2392568	REC_START	n/a	n/a	2	-999	n/a	n/a	n/a	n/a	11	[0, 0, 0]	-999	PAL1	1	R1149N
1316.141	4.0	2392568	TEST_PROBE	n/a	wordpools/wordpool_EN.txt	2	6	FACE	n/a	FACE	STRAW	11	[0, 0, 0]	-999	PAL1	1	R1149N
1321.156	0.003	2397583	REC_EVENT	5015.0	n/a	2	6	FACE	<>	FACE	STRAW	11	[0, 0, 0]	-999	PAL1	1	R1149N
1321.159	1.497	2397586	REC_END	n/a	n/a	2	-999	n/a	n/a	n/a	n/a	11	[0, 0, 0]	-999	PAL1	1	R1149N
1322.656	10.438	2399082	ENCODING_START	n/a	n/a	0	-999	n/a	n/a	n/a	n/a	12	[0, 0, 0]	-999	PAL1	1	R1149N
1333.094	0.275	2409520	STUDY_ORIENT	n/a	n/a	1	5	BATH	n/a	STEAK	BATH	12	[0, 0, 0]	-999	PAL1	1	R1149N
1333.876	4.0	2410302	STUDY_PAIR	n/a	wordpools/wordpool_EN.txt	1	5	BATH	n/a	STEAK	BATH	12	[0, 0, 0]	-999	PAL1	1	R1149N
1338.894	0.275	2415320	STUDY_ORIENT	n/a	n/a	2	6	GLASS	n/a	DOG	GLASS	12	[0, 0, 0]	-999	PAL1	1	R1149N
1339.894	4.0	2416320	STUDY_PAIR	n/a	wordpools/wordpool_EN.txt	2	6	GLASS	n/a	DOG	GLASS	12	[0, 0, 0]	-999	PAL1	1	R1149N
1344.912	0.275	2421337	STUDY_ORIENT	n/a	n/a	3	3	CLOCK	GLASS	PANTS	CLOCK	12	[0, 0, 0]	-999	PAL1	1	R1149N
1345.879	4.0	2422304	STUDY_PAIR	n/a	wordpools/wordpool_EN.txt	3	3	CLOCK	GLASS	PANTS	CLOCK	12	[0, 0, 0]	-999	PAL1	1	R1149N
1350.913	0.275	2427338	STUDY_ORIENT	n/a	n/a	4	4	CUBE	n/a	CUBE	HOUSE	12	[0, 0, 0]	-999	PAL1	1	R1149N
1351.764	4.0	2428189	STUDY_PAIR	n/a	wordpools/wordpool_EN.txt	4	4	CUBE	n/a	CUBE	HOUSE	12	[0, 0, 0]	-999	PAL1	1	R1149N
1356.798	0.275	2433223	STUDY_ORIENT	n/a	n/a	5	1	FAN	STICK	SAIL	FAN	12	[0, 0, 0]	-999	PAL1	1	R1149N
1357.665	4.0	2434090	STUDY_PAIR	n/a	wordpools/wordpool_EN.txt	5	1	FAN	STICK	SAIL	FAN	12	[0, 0, 0]	-999	PAL1	1	R1149N
1362.699	0.275	2439123	STUDY_ORIENT	n/a	n/a	6	2	BAND	n/a	STRING	BAND	12	[0, 0, 0]	-999	PAL1	1	R1149N
1363.632	4.0	2440056	STUDY_PAIR	n/a	wordpools/wordpool_EN.txt	6	2	BAND	n/a	STRING	BAND	12	[0, 0, 0]	-999	PAL1	1	R1149N
1367.633	1.0	2444057	START	n/a	n/a	-999	-999	n/a	n/a	n/a	n/a	12	[-999, -999, -999]	-999	PAL1	1	R1149N
1368.633	0.017	2445057	MATH_START	n/a	n/a	-999	-999	n/a	n/a	n/a	n/a	12	[0, 0, 0]	-999	PAL1	1	R1149N
1368.65	3.918	2445074	PROB	3886.0	n/a	-999	-999	n/a	n/a	n/a	n/a	12	[7, 2, 7]	16	PAL1	1	R1149N
1372.568	3.1	2448992	PROB	3080.0	n/a	-999	-999	n/a	n/a	n/a	n/a	12	[8, 3, 8]	19	PAL1	1	R1149N
1375.668	4.067	2452092	PROB	4044.0	n/a	-999	-999	n/a	n/a	n/a	n/a	12	[3, 1, 8]	12	PAL1	1	R1149N
1379.735	8.521	2456159	PROB	8521.0	n/a	-999	-999	n/a	n/a	n/a	n/a	12	[6, 2, 4]	12	PAL1	1	R1149N
1388.256	0.014	2464679	STOP	n/a	n/a	-999	-999	n/a	n/a	n/a	n/a	12	[-999, -999, -999]	-999	PAL1	1	R1149N
1388.27	0.0	2464693	TEST_START	n/a	n/a	-999	-999	n/a	n/a	n/a	n/a	12	[0, 0, 0]	-999	PAL1	1	R1149N
1388.27	0.017	2464693	MATH_END	n/a	n/a	-999	-999	n/a	n/a	n/a	n/a	12	[0, 0, 0]	-999	PAL1	1	R1149N
1388.287	0.275	2464710	TEST_ORIENT	n/a	n/a	5	1	FAN	STICK	SAIL	FAN	12	[0, 0, 0]	-999	PAL1	1	R1149N
1389.237	4.0	2465660	TEST_PROBE	n/a	wordpools/wordpool_EN.txt	5	1	FAN	STICK	SAIL	FAN	12	[0, 0, 0]	-999	PAL1	1	R1149N
1389.238	1.255	2465661	REC_START	n/a	n/a	5	-999	n/a	STICK	n/a	n/a	12	[0, 0, 0]	-999	PAL1	1	R1149N
1390.493	3.761	2466916	REC_EVENT	1255.0	n/a	5	1	FAN	STICK	SAIL	FAN	12	[0, 0, 0]	-999	PAL1	1	R1149N
1394.254	0.017	2470677	REC_END	n/a	n/a	5	-999	n/a	n/a	n/a	n/a	12	[0, 0, 0]	-999	PAL1	1	R1149N
1394.271	0.275	2470694	TEST_ORIENT	n/a	n/a	6	2	BAND	n/a	STRING	BAND	12	[0, 0, 0]	-999	PAL1	1	R1149N
1395.121	4.0	2471544	TEST_PROBE	n/a	wordpools/wordpool_EN.txt	6	2	BAND	n/a	STRING	BAND	12	[0, 0, 0]	-999	PAL1	1	R1149N
1395.123	4.998	2471546	REC_START	n/a	n/a	6	-999	n/a	n/a	n/a	n/a	12	[0, 0, 0]	-999	PAL1	1	R1149N
1400.121	0.001	2476544	REC_EVENT	4998.0	n/a	6	2	BAND	<>	STRING	BAND	12	[0, 0, 0]	-999	PAL1	1	R1149N
1400.122	0.017	2476545	REC_END	n/a	n/a	6	-999	n/a	n/a	n/a	n/a	12	[0, 0, 0]	-999	PAL1	1	R1149N
1400.139	0.275	2476562	TEST_ORIENT	n/a	n/a	3	3	CLOCK	GLASS	PANTS	CLOCK	12	[0, 0, 0]	-999	PAL1	1	R1149N
1400.955	4.0	2477378	TEST_PROBE	n/a	wordpools/wordpool_EN.txt	3	3	CLOCK	GLASS	PANTS	CLOCK	12	[0, 0, 0]	-999	PAL1	1	R1149N
1400.955	3.561	2477378	REC_START	n/a	n/a	3	-999	n/a	GLASS	n/a	n/a	12	[0, 0, 0]	-999	PAL1	1	R1149N
1404.516	1.456	2480938	REC_EVENT	3561.0	n/a	3	3	CLOCK	GLASS	PANTS	CLOCK	12	[0, 0, 0]	-999	PAL1	1	R1149N
1405.972	0.017	2482394	REC_END	n/a	n/a	3	-999	n/a	n/a	n/a	n/a	12	[0, 0, 0]	-999	PAL1	1	R1149N
1405.989	0.275	2482411	TEST_ORIENT	n/a	n/a	4	4	CUBE	n/a	CUBE	HOUSE	12	[0, 0, 0]	-999	PAL1	1	R1149N
1406.989	0.0	2483411	REC_START	n/a	n/a	4	-999	n/a	n/a	n/a	n/a	12	[0, 0, 0]	-999	PAL1	1	R1149N
1406.989	4.0	2483411	TEST_PROBE	n/a	wordpools/wordpool_EN.txt	4	4	CUBE	n/a	CUBE	HOUSE	12	[0, 0, 0]	-999	PAL1	1	R1149N
1412.004	0.002	2488426	REC_EVENT	5015.0	n/a	4	4	CUBE	<>	CUBE	HOUSE	12	[0, 0, 0]	-999	PAL1	1	R1149N
1412.006	0.017	2488428	REC_END	n/a	n/a	4	-999	n/a	n/a	n/a	n/a	12	[0, 0, 0]	-999	PAL1	1	R1149N
1412.023	0.275	2488445	TEST_ORIENT	n/a	n/a	1	5	BATH	n/a	STEAK	BATH	12	[0, 0, 0]	-999	PAL1	1	R1149N
1412.907	4.0	2489329	TEST_PROBE	n/a	wordpools/wordpool_EN.txt	1	5	BATH	n/a	STEAK	BATH	12	[0, 0, 0]	-999	PAL1	1	R1149N
1412.907	5.015	2489329	REC_START	n/a	n/a	1	-999	n/a	n/a	n/a	n/a	12	[0, 0, 0]	-999	PAL1	1	R1149N
1417.922	0.002	2494344	REC_EVENT	5015.0	n/a	1	5	BATH	<>	STEAK	BATH	12	[0, 0, 0]	-999	PAL1	1	R1149N
1417.924	0.017	2494346	REC_END	n/a	n/a	1	-999	n/a	n/a	n/a	n/a	12	[0, 0, 0]	-999	PAL1	1	R1149N
1417.941	0.275	2494363	TEST_ORIENT	n/a	n/a	2	6	GLASS	n/a	DOG	GLASS	12	[0, 0, 0]	-999	PAL1	1	R1149N
1418.858	4.0	2495280	TEST_PROBE	n/a	wordpools/wordpool_EN.txt	2	6	GLASS	n/a	DOG	GLASS	12	[0, 0, 0]	-999	PAL1	1	R1149N
1418.858	3.014	2495280	REC_START	n/a	n/a	2	-999	n/a	n/a	n/a	n/a	12	[0, 0, 0]	-999	PAL1	1	R1149N
1421.872	0.556	2498294	REC_EVENT	3014.0	n/a	2	6	GLASS	<>	DOG	GLASS	12	[0, 0, 0]	-999	PAL1	1	R1149N
1422.428	0.582	2498850	REC_EVENT	3570.0	n/a	2	6	GLASS	<>	DOG	GLASS	12	[0, 0, 0]	-999	PAL1	1	R1149N
1423.01	0.865	2499431	REC_EVENT	4152.0	n/a	2	6	GLASS	<>	DOG	GLASS	12	[0, 0, 0]	-999	PAL1	1	R1149N
1423.875	1.341	2500296	REC_END	n/a	n/a	2	-999	n/a	n/a	n/a	n/a	12	[0, 0, 0]	-999	PAL1	1	R1149N
1425.216	10.446	2501637	ENCODING_START	n/a	n/a	0	-999	n/a	n/a	n/a	n/a	13	[0, 0, 0]	-999	PAL1	1	R1149N
1435.662	0.275	2512083	STUDY_ORIENT	n/a	n/a	1	5	LOCK	n/a	LOCK	DESK	13	[0, 0, 0]	-999	PAL1	1	R1149N
1436.445	4.0	2512866	STUDY_PAIR	n/a	wordpools/wordpool_EN.txt	1	5	LOCK	n/a	LOCK	DESK	13	[0, 0, 0]	-999	PAL1	1	R1149N
1441.463	0.275	2517884	STUDY_ORIENT	n/a	n/a	2	6	SHELL	RAT	RAT	SHELL	13	[0, 0, 0]	-999	PAL1	1	R1149N
1442.329	4.0	2518750	STUDY_PAIR	n/a	wordpools/wordpool_EN.txt	2	6	SHELL	RAT	RAT	SHELL	13	[0, 0, 0]	-999	PAL1	1	R1149N
1447.347	0.275	2523767	STUDY_ORIENT	n/a	n/a	3	1	MOUTH	n/a	CONE	MOUTH	13	[0, 0, 0]	-999	PAL1	1	R1149N
1448.164	4.0	2524584	STUDY_PAIR	n/a	wordpools/wordpool_EN.txt	3	1	MOUTH	n/a	CONE	MOUTH	13	[0, 0, 0]	-999	PAL1	1	R1149N
1453.198	0.275	2529618	STUDY_ORIENT	n/a	n/a	4	4	HEART	WORLD	WORLD	HEART	13	[0, 0, 0]	-999	PAL1	1	R1149N
1454.098	4.0	2530518	STUDY_PAIR	n/a	wordpools/wordpool_EN.txt	4	4	HEART	WORLD	WORLD	HEART	13	[0, 0, 0]	-999	PAL1	1	R1149N
1459.132	0.275	2535552	STUDY_ORIENT	n/a	n/a	5	3	BROOM	n/a	BROOM	BENCH	13	[0, 0, 0]	-999	PAL1	1	R1149N
1460.082	4.0	2536502	STUDY_PAIR	n/a	wordpools/wordpool_EN.txt	5	3	BROOM	n/a	BROOM	BENCH	13	[0, 0, 0]	-999	PAL1	1	R1149N
1465.1	0.275	2541519	STUDY_ORIENT	n/a	n/a	6	2	CALF	n/a	CALF	LEAF	13	[0, 0, 0]	-999	PAL1	1	R1149N
1466.133	4.0	2542552	STUDY_PAIR	n/a	wordpools/wordpool_EN.txt	6	2	CALF	n/a	CALF	LEAF	13	[0, 0, 0]	-999	PAL1	1	R1149N
1470.134	1.0	2546553	START	n/a	n/a	-999	-999	n/a	n/a	n/a	n/a	13	[-999, -999, -999]	-999	PAL1	1	R1149N
1471.134	0.017	2547553	MATH_START	n/a	n/a	-999	-999	n/a	n/a	n/a	n/a	13	[0, 0, 0]	-999	PAL1	1	R1149N
1471.151	4.951	2547570	PROB	4921.0	n/a	-999	-999	n/a	n/a	n/a	n/a	13	[2, 8, 5]	15	PAL1	1	R1149N
1476.102	2.517	2552521	PROB	2482.0	n/a	-999	-999	n/a	n/a	n/a	n/a	13	[4, 6, 1]	11	PAL1	1	R1149N
1478.619	3.0	2555038	PROB	2973.0	n/a	-999	-999	n/a	n/a	n/a	n/a	13	[5, 9, 1]	15	PAL1	1	R1149N
1481.619	6.35	2558038	PROB	6316.0	n/a	-999	-999	n/a	n/a	n/a	n/a	13	[9, 3, 5]	17	PAL1	1	R1149N
1487.969	7.175	2564387	PROB	7175.0	n/a	-999	-999	n/a	n/a	n/a	n/a	13	[8, 4, 5]	17	PAL1	1	R1149N
1495.144	0.011	2571562	STOP	n/a	n/a	-999	-999	n/a	n/a	n/a	n/a	13	[-999, -999, -999]	-999	PAL1	1	R1149N
1495.155	0.0	2571573	MATH_END	n/a	n/a	-999	-999	n/a	n/a	n/a	n/a	13	[0, 0, 0]	-999	PAL1	1	R1149N
1495.155	0.017	2571573	TEST_START	n/a	n/a	-999	-999	n/a	n/a	n/a	n/a	13	[0, 0, 0]	-999	PAL1	1	R1149N
1495.172	0.275	2571590	TEST_ORIENT	n/a	n/a	3	1	MOUTH	n/a	CONE	MOUTH	13	[0, 0, 0]	-999	PAL1	1	R1149N
1496.037	4.0	2572455	TEST_PROBE	n/a	wordpools/wordpool_EN.txt	3	1	MOUTH	n/a	CONE	MOUTH	13	[0, 0, 0]	-999	PAL1	1	R1149N
1496.038	5.008	2572456	REC_START	n/a	n/a	3	-999	n/a	n/a	n/a	n/a	13	[0, 0, 0]	-999	PAL1	1	R1149N
1501.046	0.001	2577464	REC_END	n/a	n/a	3	-999	n/a	n/a	n/a	n/a	13	[0, 0, 0]	-999	PAL1	1	R1149N
1501.047	0.008	2577465	REC_EVENT	5009.0	n/a	3	1	MOUTH	<>	CONE	MOUTH	13	[0, 0, 0]	-999	PAL1	1	R1149N
1501.055	0.275	2577473	TEST_ORIENT	n/a	n/a	6	2	CALF	n/a	CALF	LEAF	13	[0, 0, 0]	-999	PAL1	1	R1149N
1501.888	4.0	2578306	TEST_PROBE	n/a	wordpools/wordpool_EN.txt	6	2	CALF	n/a	CALF	LEAF	13	[0, 0, 0]	-999	PAL1	1	R1149N
1501.889	4.998	2578307	REC_START	n/a	n/a	6	-999	n/a	n/a	n/a	n/a	13	[0, 0, 0]	-999	PAL1	1	R1149N
1506.887	0.002	2583304	REC_EVENT	4998.0	n/a	6	2	CALF	<>	CALF	LEAF	13	[0, 0, 0]	-999	PAL1	1	R1149N
1506.889	0.017	2583306	REC_END	n/a	n/a	6	-999	n/a	n/a	n/a	n/a	13	[0, 0, 0]	-999	PAL1	1	R1149N
1506.906	0.275	2583323	TEST_ORIENT	n/a	n/a	5	3	BROOM	n/a	BROOM	BENCH	13	[0, 0, 0]	-999	PAL1	1	R1149N
1507.757	4.0	2584174	TEST_PROBE	n/a	wordpools/wordpool_EN.txt	5	3	BROOM	n/a	BROOM	BENCH	13	[0, 0, 0]	-999	PAL1	1	R1149N
1507.757	5.015	2584174	REC_START	n/a	n/a	5	-999	n/a	n/a	n/a	n/a	13	[0, 0, 0]	-999	PAL1	1	R1149N
1512.772	0.002	2589189	REC_EVENT	5015.0	n/a	5	3	BROOM	<>	BROOM	BENCH	13	[0, 0, 0]	-999	PAL1	1	R1149N
1512.774	0.017	2589191	REC_END	n/a	n/a	5	-999	n/a	n/a	n/a	n/a	13	[0, 0, 0]	-999	PAL1	1	R1149N
1512.791	0.275	2589208	TEST_ORIENT	n/a	n/a	4	4	HEART	WORLD	WORLD	HEART	13	[0, 0, 0]	-999	PAL1	1	R1149N
1513.675	4.0	2590092	TEST_PROBE	n/a	wordpools/wordpool_EN.txt	4	4	HEART	WORLD	WORLD	HEART	13	[0, 0, 0]	-999	PAL1	1	R1149N
1513.675	1.517	2590092	REC_START	n/a	n/a	4	-999	n/a	WORLD	n/a	n/a	13	[0, 0, 0]	-999	PAL1	1	R1149N
1515.192	3.5	2591609	REC_EVENT	1517.0	n/a	4	4	HEART	WORLD	WORLD	HEART	13	[0, 0, 0]	-999	PAL1	1	R1149N
1518.692	0.017	2595109	REC_END	n/a	n/a	4	-999	n/a	n/a	n/a	n/a	13	[0, 0, 0]	-999	PAL1	1	R1149N
1518.709	0.275	2595126	TEST_ORIENT	n/a	n/a	1	5	LOCK	n/a	LOCK	DESK	13	[0, 0, 0]	-999	PAL1	1	R1149N
1519.642	4.0	2596059	TEST_PROBE	n/a	wordpools/wordpool_EN.txt	1	5	LOCK	n/a	LOCK	DESK	13	[0, 0, 0]	-999	PAL1	1	R1149N
1519.643	5.008	2596060	REC_START	n/a	n/a	1	-999	n/a	n/a	n/a	n/a	13	[0, 0, 0]	-999	PAL1	1	R1149N
1524.651	0.001	2601067	REC_END	n/a	n/a	1	-999	n/a	n/a	n/a	n/a	13	[0, 0, 0]	-999	PAL1	1	R1149N
1524.652	0.008	2601068	REC_EVENT	5009.0	n/a	1	5	LOCK	<>	LOCK	DESK	13	[0, 0, 0]	-999	PAL1	1	R1149N
1524.66	0.275	2601076	TEST_ORIENT	n/a	n/a	2	6	SHELL	RAT	RAT	SHELL	13	[0, 0, 0]	-999	PAL1	1	R1149N
1525.56	4.0	2601976	TEST_PROBE	n/a	wordpools/wordpool_EN.txt	2	6	SHELL	RAT	RAT	SHELL	13	[0, 0, 0]	-999	PAL1	1	R1149N
1525.561	1.081	2601977	REC_START	n/a	n/a	2	-999	n/a	RAT	n/a	n/a	13	[0, 0, 0]	-999	PAL1	1	R1149N
1526.642	3.936	2603058	REC_EVENT	1081.0	n/a	2	6	SHELL	RAT	RAT	SHELL	13	[0, 0, 0]	-999	PAL1	1	R1149N
1530.578	1.429	2606994	REC_END	n/a	n/a	2	-999	n/a	n/a	n/a	n/a	13	[0, 0, 0]	-999	PAL1	1	R1149N
1532.007	10.439	2608423	ENCODING_START	n/a	n/a	0	-999	n/a	n/a	n/a	n/a	14	[0, 0, 0]	-999	PAL1	1	R1149N
1542.446	0.275	2618862	STUDY_ORIENT	n/a	n/a	1	3	JUICE	FOG	JUICE	FOG	14	[0, 0, 0]	-999	PAL1	1	R1149N
1543.413	4.0	2619828	STUDY_PAIR	n/a	wordpools/wordpool_EN.txt	1	3	JUICE	FOG	JUICE	FOG	14	[0, 0, 0]	-999	PAL1	1	R1149N
1548.447	0.275	2624862	STUDY_ORIENT	n/a	n/a	2	2	HAND	n/a	HAND	RAKE	14	[0, 0, 0]	-999	PAL1	1	R1149N
1549.281	4.0	2625696	STUDY_PAIR	n/a	wordpools/wordpool_EN.txt	2	2	HAND	n/a	HAND	RAKE	14	[0, 0, 0]	-999	PAL1	1	R1149N
1554.315	0.275	2630730	STUDY_ORIENT	n/a	n/a	3	5	SNAKE	n/a	GOAT	SNAKE	14	[0, 0, 0]	-999	PAL1	1	R1149N
1555.332	4.0	2631747	STUDY_PAIR	n/a	wordpools/wordpool_EN.txt	3	5	SNAKE	n/a	GOAT	SNAKE	14	[0, 0, 0]	-999	PAL1	1	R1149N
1560.366	0.275	2636781	STUDY_ORIENT	n/a	n/a	4	6	PRINCE	n/a	PRINCE	FISH	14	[0, 0, 0]	-999	PAL1	1	R1149N
1561.333	4.0	2637748	STUDY_PAIR	n/a	wordpools/wordpool_EN.txt	4	6	PRINCE	n/a	PRINCE	FISH	14	[0, 0, 0]	-999	PAL1	1	R1149N
1566.367	0.275	2642781	STUDY_ORIENT	n/a	n/a	5	1	STONE	WING	WING	STONE	14	[0, 0, 0]	-999	PAL1	1	R1149N
1567.334	4.0	2643748	STUDY_PAIR	n/a	wordpools/wordpool_EN.txt	5	1	STONE	WING	WING	STONE	14	[0, 0, 0]	-999	PAL1	1	R1149N
1572.368	0.275	2648782	STUDY_ORIENT	n/a	n/a	6	4	WEED	n/a	BRIDGE	WEED	14	[0, 0, 0]	-999	PAL1	1	R1149N
1573.351	4.0	2649765	STUDY_PAIR	n/a	wordpools/wordpool_EN.txt	6	4	WEED	n/a	BRIDGE	WEED	14	[0, 0, 0]	-999	PAL1	1	R1149N
1577.352	1.0	2653766	START	n/a	n/a	-999	-999	n/a	n/a	n/a	n/a	14	[-999, -999, -999]	-999	PAL1	1	R1149N
1578.352	0.017	2654766	MATH_START	n/a	n/a	-999	-999	n/a	n/a	n/a	n/a	14	[0, 0, 0]	-999	PAL1	1	R1149N
1578.369	6.667	2654783	PROB	6646.0	n/a	-999	-999	n/a	n/a	n/a	n/a	14	[6, 2, 7]	15	PAL1	1	R1149N
1585.036	2.967	2661449	PROB	2947.0	n/a	-999	-999	n/a	n/a	n/a	n/a	14	[7, 6, 1]	14	PAL1	1	R1149N
1588.003	10.573	2664416	PROB	10573.0	n/a	-999	-999	n/a	n/a	n/a	n/a	14	[2, 1, 5]	8	PAL1	1	R1149N
1598.576	0.013	2674989	STOP	n/a	n/a	-999	-999	n/a	n/a	n/a	n/a	14	[-999, -999, -999]	-999	PAL1	1	R1149N
1598.589	0.0	2675002	MATH_END	n/a	n/a	-999	-999	n/a	n/a	n/a	n/a	14	[0, 0, 0]	-999	PAL1	1	R1149N
1598.589	0.017	2675002	TEST_START	n/a	n/a	-999	-999	n/a	n/a	n/a	n/a	14	[0, 0, 0]	-999	PAL1	1	R1149N
1598.606	0.275	2675019	TEST_ORIENT	n/a	n/a	5	1	STONE	WING	WING	STONE	14	[0, 0, 0]	-999	PAL1	1	R1149N
1599.606	4.0	2676019	TEST_PROBE	n/a	wordpools/wordpool_EN.txt	5	1	STONE	WING	WING	STONE	14	[0, 0, 0]	-999	PAL1	1	R1149N
1599.607	1.617	2676020	REC_START	n/a	n/a	5	-999	n/a	WING	n/a	n/a	14	[0, 0, 0]	-999	PAL1	1	R1149N
1601.224	3.407	2677637	REC_EVENT	1617.0	n/a	5	1	STONE	WING	WING	STONE	14	[0, 0, 0]	-999	PAL1	1	R1149N
1604.631	0.009	2681043	REC_END	n/a	n/a	5	-999	n/a	n/a	n/a	n/a	14	[0, 0, 0]	-999	PAL1	1	R1149N
1604.64	0.275	2681052	TEST_ORIENT	n/a	n/a	2	2	HAND	n/a	HAND	RAKE	14	[0, 0, 0]	-999	PAL1	1	R1149N
1605.474	4.0	2681886	TEST_PROBE	n/a	wordpools/wordpool_EN.txt	2	2	HAND	n/a	HAND	RAKE	14	[0, 0, 0]	-999	PAL1	1	R1149N
1605.475	5.021	2681887	REC_START	n/a	n/a	2	-999	n/a	n/a	n/a	n/a	14	[0, 0, 0]	-999	PAL1	1	R1149N
1610.496	0.003	2686908	REC_EVENT	5021.0	n/a	2	2	HAND	<>	HAND	RAKE	14	[0, 0, 0]	-999	PAL1	1	R1149N
1610.499	0.009	2686911	REC_END	n/a	n/a	2	-999	n/a	n/a	n/a	n/a	14	[0, 0, 0]	-999	PAL1	1	R1149N
1610.508	0.275	2686920	TEST_ORIENT	n/a	n/a	1	3	JUICE	FOG	JUICE	FOG	14	[0, 0, 0]	-999	PAL1	1	R1149N
1611.375	4.0	2687787	TEST_PROBE	n/a	wordpools/wordpool_EN.txt	1	3	JUICE	FOG	JUICE	FOG	14	[0, 0, 0]	-999	PAL1	1	R1149N
1611.375	1.393	2687787	REC_START	n/a	n/a	1	-999	n/a	FOG	n/a	n/a	14	[0, 0, 0]	-999	PAL1	1	R1149N
1612.768	3.624	2689180	REC_EVENT	1393.0	n/a	1	3	JUICE	FOG	JUICE	FOG	14	[0, 0, 0]	-999	PAL1	1	R1149N
1616.392	0.017	2692804	REC_END	n/a	n/a	1	-999	n/a	n/a	n/a	n/a	14	[0, 0, 0]	-999	PAL1	1	R1149N
1616.409	0.275	2692821	TEST_ORIENT	n/a	n/a	6	4	WEED	n/a	BRIDGE	WEED	14	[0, 0, 0]	-999	PAL1	1	R1149N
1617.409	4.0	2693821	TEST_PROBE	n/a	wordpools/wordpool_EN.txt	6	4	WEED	n/a	BRIDGE	WEED	14	[0, 0, 0]	-999	PAL1	1	R1149N
1617.41	5.015	2693822	REC_START	n/a	n/a	6	-999	n/a	n/a	n/a	n/a	14	[0, 0, 0]	-999	PAL1	1	R1149N
1622.425	0.001	2698837	REC_EVENT	5015.0	n/a	6	4	WEED	<>	BRIDGE	WEED	14	[0, 0, 0]	-999	PAL1	1	R1149N
1622.426	0.017	2698838	REC_END	n/a	n/a	6	-999	n/a	n/a	n/a	n/a	14	[0, 0, 0]	-999	PAL1	1	R1149N
1622.443	0.275	2698855	TEST_ORIENT	n/a	n/a	3	5	SNAKE	n/a	GOAT	SNAKE	14	[0, 0, 0]	-999	PAL1	1	R1149N
1623.427	4.0	2699838	TEST_PROBE	n/a	wordpools/wordpool_EN.txt	3	5	SNAKE	n/a	GOAT	SNAKE	14	[0, 0, 0]	-999	PAL1	1	R1149N
1623.427	5.017	2699838	REC_START	n/a	n/a	3	-999	n/a	n/a	n/a	n/a	14	[0, 0, 0]	-999	PAL1	1	R1149N
1628.444	0.004	2704855	REC_END	n/a	n/a	3	-999	n/a	n/a	n/a	n/a	14	[0, 0, 0]	-999	PAL1	1	R1149N
1628.448	0.013	2704859	REC_EVENT	5021.0	n/a	3	5	SNAKE	<>	GOAT	SNAKE	14	[0, 0, 0]	-999	PAL1	1	R1149N
1628.461	0.275	2704872	TEST_ORIENT	n/a	n/a	4	6	PRINCE	n/a	PRINCE	FISH	14	[0, 0, 0]	-999	PAL1	1	R1149N
1629.428	4.0	2705839	TEST_PROBE	n/a	wordpools/wordpool_EN.txt	4	6	PRINCE	n/a	PRINCE	FISH	14	[0, 0, 0]	-999	PAL1	1	R1149N
1629.428	5.015	2705839	REC_START	n/a	n/a	4	-999	n/a	n/a	n/a	n/a	14	[0, 0, 0]	-999	PAL1	1	R1149N
1634.443	0.002	2710854	REC_EVENT	5015.0	n/a	4	6	PRINCE	<>	PRINCE	FISH	14	[0, 0, 0]	-999	PAL1	1	R1149N
1634.445	1.787	2710856	REC_END	n/a	n/a	4	-999	n/a	n/a	n/a	n/a	14	[0, 0, 0]	-999	PAL1	1	R1149N
1636.232	10.448	2712643	ENCODING_START	n/a	n/a	0	-999	n/a	n/a	n/a	n/a	15	[0, 0, 0]	-999	PAL1	1	R1149N
1646.68	0.275	2723090	STUDY_ORIENT	n/a	n/a	1	5	BEAK	n/a	TOOTH	BEAK	15	[0, 0, 0]	-999	PAL1	1	R1149N
1647.564	4.0	2723974	STUDY_PAIR	n/a	wordpools/wordpool_EN.txt	1	5	BEAK	n/a	TOOTH	BEAK	15	[0, 0, 0]	-999	PAL1	1	R1149N
1652.598	0.275	2729008	STUDY_ORIENT	n/a	n/a	2	6	ROOM	n/a	ROOM	DOLL	15	[0, 0, 0]	-999	PAL1	1	R1149N
1653.582	4.0	2729992	STUDY_PAIR	n/a	wordpools/wordpool_EN.txt	2	6	ROOM	n/a	ROOM	DOLL	15	[0, 0, 0]	-999	PAL1	1	R1149N
1658.616	0.275	2735026	STUDY_ORIENT	n/a	n/a	3	3	PEN	n/a	PIT	PEN	15	[0, 0, 0]	-999	PAL1	1	R1149N
1659.583	4.0	2735993	STUDY_PAIR	n/a	wordpools/wordpool_EN.txt	3	3	PEN	n/a	PIT	PEN	15	[0, 0, 0]	-999	PAL1	1	R1149N
1664.617	0.275	2741026	STUDY_ORIENT	n/a	n/a	4	2	SHIRT	n/a	PLANT	SHIRT	15	[0, 0, 0]	-999	PAL1	1	R1149N
1665.534	4.0	2741943	STUDY_PAIR	n/a	wordpools/wordpool_EN.txt	4	2	SHIRT	n/a	PLANT	SHIRT	15	[0, 0, 0]	-999	PAL1	1	R1149N
1670.568	0.275	2746977	STUDY_ORIENT	n/a	n/a	5	1	TOE	n/a	MAIL	TOE	15	[0, 0, 0]	-999	PAL1	1	R1149N
1671.568	4.0	2747977	STUDY_PAIR	n/a	wordpools/wordpool_EN.txt	5	1	TOE	n/a	MAIL	TOE	15	[0, 0, 0]	-999	PAL1	1	R1149N
1676.602	0.275	2753011	STUDY_ORIENT	n/a	n/a	6	4	SQUARE	n/a	SQUARE	VINE	15	[0, 0, 0]	-999	PAL1	1	R1149N
1677.452	4.0	2753861	STUDY_PAIR	n/a	wordpools/wordpool_EN.txt	6	4	SQUARE	n/a	SQUARE	VINE	15	[0, 0, 0]	-999	PAL1	1	R1149N
1681.453	1.0	2757862	START	n/a	n/a	-999	-999	n/a	n/a	n/a	n/a	15	[-999, -999, -999]	-999	PAL1	1	R1149N
1682.453	0.017	2758862	MATH_START	n/a	n/a	-999	-999	n/a	n/a	n/a	n/a	15	[0, 0, 0]	-999	PAL1	1	R1149N
1682.47	8.735	2758879	PROB	8714.0	n/a	-999	-999	n/a	n/a	n/a	n/a	15	[9, 8, 4]	21	PAL1	1	R1149N
1691.205	3.55	2767613	PROB	3523.0	n/a	-999	-999	n/a	n/a	n/a	n/a	15	[5, 4, 2]	11	PAL1	1	R1149N
1694.755	4.3	2771163	PROB	4268.0	n/a	-999	-999	n/a	n/a	n/a	n/a	15	[9, 6, 3]	18	PAL1	1	R1149N
1699.055	2.402	2775463	PROB	2369.0	n/a	-999	-999	n/a	n/a	n/a	n/a	15	[4, 2, 2]	8	PAL1	1	R1149N
1701.457	3.574	2777865	PROB	3574.0	n/a	-999	-999	n/a	n/a	n/a	n/a	15	[9, 3, 1]	13	PAL1	1	R1149N
1705.031	0.009	2781438	STOP	n/a	n/a	-999	-999	n/a	n/a	n/a	n/a	15	[-999, -999, -999]	-999	PAL1	1	R1149N
1705.04	0.0	2781447	MATH_END	n/a	n/a	-999	-999	n/a	n/a	n/a	n/a	15	[0, 0, 0]	-999	PAL1	1	R1149N
1705.04	0.016	2781447	TEST_START	n/a	n/a	-999	-999	n/a	n/a	n/a	n/a	15	[0, 0, 0]	-999	PAL1	1	R1149N
1705.056	0.275	2781463	TEST_ORIENT	n/a	n/a	5	1	TOE	n/a	MAIL	TOE	15	[0, 0, 0]	-999	PAL1	1	R1149N
1705.841	4.0	2782248	TEST_PROBE	n/a	wordpools/wordpool_EN.txt	5	1	TOE	n/a	MAIL	TOE	15	[0, 0, 0]	-999	PAL1	1	R1149N
1705.841	5.015	2782248	REC_START	n/a	n/a	5	-999	n/a	n/a	n/a	n/a	15	[0, 0, 0]	-999	PAL1	1	R1149N
1710.856	0.002	2787263	REC_EVENT	5015.0	n/a	5	1	TOE	<>	MAIL	TOE	15	[0, 0, 0]	-999	PAL1	1	R1149N
1710.858	0.016	2787265	REC_END	n/a	n/a	5	-999	n/a	n/a	n/a	n/a	15	[0, 0, 0]	-999	PAL1	1	R1149N
1710.874	0.275	2787281	TEST_ORIENT	n/a	n/a	4	2	SHIRT	n/a	PLANT	SHIRT	15	[0, 0, 0]	-999	PAL1	1	R1149N
1711.742	4.0	2788149	TEST_PROBE	n/a	wordpools/wordpool_EN.txt	4	2	SHIRT	n/a	PLANT	SHIRT	15	[0, 0, 0]	-999	PAL1	1	R1149N
1711.742	5.015	2788149	REC_START	n/a	n/a	4	-999	n/a	n/a	n/a	n/a	15	[0, 0, 0]	-999	PAL1	1	R1149N
1716.757	0.002	2793164	REC_EVENT	5015.0	n/a	4	2	SHIRT	<>	PLANT	SHIRT	15	[0, 0, 0]	-999	PAL1	1	R1149N
1716.759	0.017	2793166	REC_END	n/a	n/a	4	-999	n/a	n/a	n/a	n/a	15	[0, 0, 0]	-999	PAL1	1	R1149N
1716.776	0.275	2793183	TEST_ORIENT	n/a	n/a	3	3	PEN	n/a	PIT	PEN	15	[0, 0, 0]	-999	PAL1	1	R1149N
1717.759	4.0	2794166	TEST_PROBE	n/a	wordpools/wordpool_EN.txt	3	3	PEN	n/a	PIT	PEN	15	[0, 0, 0]	-999	PAL1	1	R1149N
1717.76	2.973	2794167	REC_START	n/a	n/a	3	-999	n/a	n/a	n/a	n/a	15	[0, 0, 0]	-999	PAL1	1	R1149N
1720.733	2.035	2797140	REC_EVENT	2973.0	n/a	3	3	PEN	<>	PIT	PEN	15	[0, 0, 0]	-999	PAL1	1	R1149N
1722.768	0.009	2799174	REC_END	n/a	n/a	3	-999	n/a	n/a	n/a	n/a	15	[0, 0, 0]	-999	PAL1	1	R1149N
1722.777	0.275	2799183	TEST_ORIENT	n/a	n/a	6	4	SQUARE	n/a	SQUARE	VINE	15	[0, 0, 0]	-999	PAL1	1	R1149N
1723.577	4.0	2799983	TEST_PROBE	n/a	wordpools/wordpool_EN.txt	6	4	SQUARE	n/a	SQUARE	VINE	15	[0, 0, 0]	-999	PAL1	1	R1149N
1723.578	5.024	2799984	REC_START	n/a	n/a	6	-999	n/a	n/a	n/a	n/a	15	[0, 0, 0]	-999	PAL1	1	R1149N
1728.602	0.003	2805008	REC_END	n/a	n/a	6	-999	n/a	n/a	n/a	n/a	15	[0, 0, 0]	-999	PAL1	1	R1149N
1728.605	0.006	2805011	REC_EVENT	5027.0	n/a	6	4	SQUARE	<>	SQUARE	VINE	15	[0, 0, 0]	-999	PAL1	1	R1149N
1728.611	0.275	2805017	TEST_ORIENT	n/a	n/a	1	5	BEAK	n/a	TOOTH	BEAK	15	[0, 0, 0]	-999	PAL1	1	R1149N
1729.461	4.0	2805867	TEST_PROBE	n/a	wordpools/wordpool_EN.txt	1	5	BEAK	n/a	TOOTH	BEAK	15	[0, 0, 0]	-999	PAL1	1	R1149N
1729.462	5.009	2805868	REC_START	n/a	n/a	1	-999	n/a	n/a	n/a	n/a	15	[0, 0, 0]	-999	PAL1	1	R1149N
1734.471	0.002	2810877	REC_EVENT	5009.0	n/a	1	5	BEAK	<>	TOOTH	BEAK	15	[0, 0, 0]	-999	PAL1	1	R1149N
1734.473	0.006	2810879	REC_END	n/a	n/a	1	-999	n/a	n/a	n/a	n/a	15	[0, 0, 0]	-999	PAL1	1	R1149N
1734.479	0.275	2810885	TEST_ORIENT	n/a	n/a	2	6	ROOM	n/a	ROOM	DOLL	15	[0, 0, 0]	-999	PAL1	1	R1149N
1735.512	4.0	2811918	TEST_PROBE	n/a	wordpools/wordpool_EN.txt	2	6	ROOM	n/a	ROOM	DOLL	15	[0, 0, 0]	-999	PAL1	1	R1149N
1735.513	5.008	2811919	REC_START	n/a	n/a	2	-999	n/a	n/a	n/a	n/a	15	[0, 0, 0]	-999	PAL1	1	R1149N
1740.521	0.001	2816927	REC_END	n/a	n/a	2	-999	n/a	n/a	n/a	n/a	15	[0, 0, 0]	-999	PAL1	1	R1149N
1740.522	1.918	2816928	REC_EVENT	5009.0	n/a	2	6	ROOM	<>	ROOM	DOLL	15	[0, 0, 0]	-999	PAL1	1	R1149N
1742.44	10.441	2818846	ENCODING_START	n/a	n/a	0	-999	n/a	n/a	n/a	n/a	16	[0, 0, 0]	-999	PAL1	1	R1149N
1752.881	0.275	2829286	STUDY_ORIENT	n/a	n/a	1	3	SEAT	n/a	SEAT	BALL	16	[0, 0, 0]	-999	PAL1	1	R1149N
1753.682	4.0	2830087	STUDY_PAIR	n/a	wordpools/wordpool_EN.txt	1	3	SEAT	n/a	SEAT	BALL	16	[0, 0, 0]	-999	PAL1	1	R1149N
1758.716	0.275	2835121	STUDY_ORIENT	n/a	n/a	2	2	BEAR	n/a	EEL	BEAR	16	[0, 0, 0]	-999	PAL1	1	R1149N
1759.533	4.0	2835938	STUDY_PAIR	n/a	wordpools/wordpool_EN.txt	2	2	BEAR	n/a	EEL	BEAR	16	[0, 0, 0]	-999	PAL1	1	R1149N
1764.567	0.275	2840971	STUDY_ORIENT	n/a	n/a	3	5	ZOO	n/a	ZOO	CAR	16	[0, 0, 0]	-999	PAL1	1	R1149N
1765.551	4.0	2841955	STUDY_PAIR	n/a	wordpools/wordpool_EN.txt	3	5	ZOO	n/a	ZOO	CAR	16	[0, 0, 0]	-999	PAL1	1	R1149N
1770.585	0.275	2846989	STUDY_ORIENT	n/a	n/a	4	4	MULE	n/a	MULE	POND	16	[0, 0, 0]	-999	PAL1	1	R1149N
1771.519	4.0	2847923	STUDY_PAIR	n/a	wordpools/wordpool_EN.txt	4	4	MULE	n/a	MULE	POND	16	[0, 0, 0]	-999	PAL1	1	R1149N
1776.553	0.275	2852957	STUDY_ORIENT	n/a	n/a	5	1	BEE	RAIL	FORT	BEE	16	[0, 0, 0]	-999	PAL1	1	R1149N
1777.369	4.0	2853773	STUDY_PAIR	n/a	wordpools/wordpool_EN.txt	5	1	BEE	RAIL	FORT	BEE	16	[0, 0, 0]	-999	PAL1	1	R1149N
1782.387	0.275	2858791	STUDY_ORIENT	n/a	n/a	6	6	TEA	CHAIR	TEA	CHAIR	16	[0, 0, 0]	-999	PAL1	1	R1149N
1783.287	4.0	2859690	STUDY_PAIR	n/a	wordpools/wordpool_EN.txt	6	6	TEA	CHAIR	TEA	CHAIR	16	[0, 0, 0]	-999	PAL1	1	R1149N
1787.305	0.999	2863708	START	n/a	n/a	-999	-999	n/a	n/a	n/a	n/a	16	[-999, -999, -999]	-999	PAL1	1	R1149N
1788.304	0.017	2864707	MATH_START	n/a	n/a	-999	-999	n/a	n/a	n/a	n/a	16	[0, 0, 0]	-999	PAL1	1	R1149N
1788.321	12.853	2864724	PROB	12831.0	n/a	-999	-999	n/a	n/a	n/a	n/a	16	[6, 5, 8]	19	PAL1	1	R1149N
1801.174	2.467	2877577	PROB	2442.0	n/a	-999	-999	n/a	n/a	n/a	n/a	16	[6, 6, 6]	18	PAL1	1	R1149N
1803.641	7.471	2880043	PROB	7471.0	n/a	-999	-999	n/a	n/a	n/a	n/a	16	[5, 4, 4]	13	PAL1	1	R1149N
1811.112	0.013	2887514	STOP	n/a	n/a	-999	-999	n/a	n/a	n/a	n/a	16	[-999, -999, -999]	-999	PAL1	1	R1149N
1811.125	0.0	2887527	MATH_END	n/a	n/a	-999	-999	n/a	n/a	n/a	n/a	16	[0, 0, 0]	-999	PAL1	1	R1149N
1811.125	0.017	2887527	TEST_START	n/a	n/a	-999	-999	n/a	n/a	n/a	n/a	16	[0, 0, 0]	-999	PAL1	1	R1149N
1811.142	0.275	2887544	TEST_ORIENT	n/a	n/a	5	1	BEE	RAIL	FORT	BEE	16	[0, 0, 0]	-999	PAL1	1	R1149N
1812.008	4.0	2888410	TEST_PROBE	n/a	wordpools/wordpool_EN.txt	5	1	BEE	RAIL	FORT	BEE	16	[0, 0, 0]	-999	PAL1	1	R1149N
1812.008	2.798	2888410	REC_START	n/a	n/a	5	-999	n/a	RAIL	n/a	n/a	16	[0, 0, 0]	-999	PAL1	1	R1149N
1814.806	2.219	2891208	REC_EVENT	2798.0	n/a	5	1	BEE	RAIL	FORT	BEE	16	[0, 0, 0]	-999	PAL1	1	R1149N
1817.025	0.017	2893427	REC_END	n/a	n/a	5	-999	n/a	n/a	n/a	n/a	16	[0, 0, 0]	-999	PAL1	1	R1149N
1817.042	0.275	2893444	TEST_ORIENT	n/a	n/a	2	2	BEAR	n/a	EEL	BEAR	16	[0, 0, 0]	-999	PAL1	1	R1149N
1817.892	4.0	2894294	TEST_PROBE	n/a	wordpools/wordpool_EN.txt	2	2	BEAR	n/a	EEL	BEAR	16	[0, 0, 0]	-999	PAL1	1	R1149N
1817.892	5.015	2894294	REC_START	n/a	n/a	2	-999	n/a	n/a	n/a	n/a	16	[0, 0, 0]	-999	PAL1	1	R1149N
1822.907	0.002	2899308	REC_EVENT	5015.0	n/a	2	2	BEAR	<>	EEL	BEAR	16	[0, 0, 0]	-999	PAL1	1	R1149N
1822.909	0.017	2899310	REC_END	n/a	n/a	2	-999	n/a	n/a	n/a	n/a	16	[0, 0, 0]	-999	PAL1	1	R1149N
1822.926	0.275	2899327	TEST_ORIENT	n/a	n/a	1	3	SEAT	n/a	SEAT	BALL	16	[0, 0, 0]	-999	PAL1	1	R1149N
1823.943	4.0	2900344	TEST_PROBE	n/a	wordpools/wordpool_EN.txt	1	3	SEAT	n/a	SEAT	BALL	16	[0, 0, 0]	-999	PAL1	1	R1149N
1823.943	5.015	2900344	REC_START	n/a	n/a	1	-999	n/a	n/a	n/a	n/a	16	[0, 0, 0]	-999	PAL1	1	R1149N
1828.958	0.005	2905359	REC_EVENT	5015.0	n/a	1	3	SEAT	<>	SEAT	BALL	16	[0, 0, 0]	-999	PAL1	1	R1149N
1828.963	0.014	2905364	REC_END	n/a	n/a	1	-999	n/a	n/a	n/a	n/a	16	[0, 0, 0]	-999	PAL1	1	R1149N
1828.977	0.275	2905378	TEST_ORIENT	n/a	n/a	4	4	MULE	n/a	MULE	POND	16	[0, 0, 0]	-999	PAL1	1	R1149N
1829.994	4.0	2906395	TEST_PROBE	n/a	wordpools/wordpool_EN.txt	4	4	MULE	n/a	MULE	POND	16	[0, 0, 0]	-999	PAL1	1	R1149N
1829.994	5.015	2906395	REC_START	n/a	n/a	4	-999	n/a	n/a	n/a	n/a	16	[0, 0, 0]	-999	PAL1	1	R1149N
1835.009	0.002	2911410	REC_EVENT	5015.0	n/a	4	4	MULE	<>	MULE	POND	16	[0, 0, 0]	-999	PAL1	1	R1149N
1835.011	0.017	2911412	REC_END	n/a	n/a	4	-999	n/a	n/a	n/a	n/a	16	[0, 0, 0]	-999	PAL1	1	R1149N
1835.028	0.275	2911429	TEST_ORIENT	n/a	n/a	3	5	ZOO	n/a	ZOO	CAR	16	[0, 0, 0]	-999	PAL1	1	R1149N
1836.028	4.0	2912429	TEST_PROBE	n/a	wordpools/wordpool_EN.txt	3	5	ZOO	n/a	ZOO	CAR	16	[0, 0, 0]	-999	PAL1	1	R1149N
1836.029	4.48	2912430	REC_START	n/a	n/a	3	-999	n/a	n/a	n/a	n/a	16	[0, 0, 0]	-999	PAL1	1	R1149N
1840.509	0.528	2916910	REC_EVENT	4480.0	n/a	3	5	ZOO	<>	ZOO	CAR	16	[0, 0, 0]	-999	PAL1	1	R1149N
1841.037	0.009	2917438	REC_END	n/a	n/a	3	-999	n/a	n/a	n/a	n/a	16	[0, 0, 0]	-999	PAL1	1	R1149N
1841.046	0.275	2917447	TEST_ORIENT	n/a	n/a	6	6	TEA	CHAIR	TEA	CHAIR	16	[0, 0, 0]	-999	PAL1	1	R1149N
1842.029	4.0	2918430	TEST_PROBE	n/a	wordpools/wordpool_EN.txt	6	6	TEA	CHAIR	TEA	CHAIR	16	[0, 0, 0]	-999	PAL1	1	R1149N
1842.03	2.749	2918431	REC_START	n/a	n/a	6	-999	n/a	CHAIR	n/a	n/a	16	[0, 0, 0]	-999	PAL1	1	R1149N
1844.779	1.229	2921179	REC_EVENT	2749.0	n/a	6	6	TEA	CHAIR	TEA	CHAIR	16	[0, 0, 0]	-999	PAL1	1	R1149N
1846.008	1.03	2922408	REC_EVENT	3978.0	n/a	6	6	TEA	CHAIR	TEA	CHAIR	16	[0, 0, 0]	-999	PAL1	1	R1149N
1847.038	1.522	2923438	REC_END	n/a	n/a	6	-999	n/a	n/a	n/a	n/a	16	[0, 0, 0]	-999	PAL1	1	R1149N
1848.56	10.439	2924960	ENCODING_START	n/a	n/a	0	-999	n/a	n/a	n/a	n/a	17	[0, 0, 0]	-999	PAL1	1	R1149N
1858.999	0.275	2935399	STUDY_ORIENT	n/a	n/a	1	5	BLUSH	n/a	BLUSH	OAK	17	[0, 0, 0]	-999	PAL1	1	R1149N
1859.833	4.0	2936233	STUDY_PAIR	n/a	wordpools/wordpool_EN.txt	1	5	BLUSH	n/a	BLUSH	OAK	17	[0, 0, 0]	-999	PAL1	1	R1149N
1864.851	0.275	2941250	STUDY_ORIENT	n/a	n/a	2	2	HOOK	n/a	TOAST	HOOK	17	[0, 0, 0]	-999	PAL1	1	R1149N
1865.784	4.0	2942183	STUDY_PAIR	n/a	wordpools/wordpool_EN.txt	2	2	HOOK	n/a	TOAST	HOOK	17	[0, 0, 0]	-999	PAL1	1	R1149N
1870.802	0.275	2947201	STUDY_ORIENT	n/a	n/a	3	1	ROCK	FILM	ROCK	TRASH	17	[0, 0, 0]	-999	PAL1	1	R1149N
1871.802	4.0	2948201	STUDY_PAIR	n/a	wordpools/wordpool_EN.txt	3	1	ROCK	FILM	ROCK	TRASH	17	[0, 0, 0]	-999	PAL1	1	R1149N
1876.836	0.275	2953235	STUDY_ORIENT	n/a	n/a	4	6	FUDGE	n/a	FUDGE	SPEAR	17	[0, 0, 0]	-999	PAL1	1	R1149N
1877.736	4.0	2954135	STUDY_PAIR	n/a	wordpools/wordpool_EN.txt	4	6	FUDGE	n/a	FUDGE	SPEAR	17	[0, 0, 0]	-999	PAL1	1	R1149N
1882.754	0.275	2959152	STUDY_ORIENT	n/a	n/a	5	3	NET	n/a	FILM	NET	17	[0, 0, 0]	-999	PAL1	1	R1149N
1883.771	4.0	2960169	STUDY_PAIR	n/a	wordpools/wordpool_EN.txt	5	3	NET	n/a	FILM	NET	17	[0, 0, 0]	-999	PAL1	1	R1149N
1888.805	0.275	2965203	STUDY_ORIENT	n/a	n/a	6	4	DART	n/a	DART	FOOD	17	[0, 0, 0]	-999	PAL1	1	R1149N
1889.705	4.0	2966103	STUDY_PAIR	n/a	wordpools/wordpool_EN.txt	6	4	DART	n/a	DART	FOOD	17	[0, 0, 0]	-999	PAL1	1	R1149N
1893.723	0.999	2970121	START	n/a	n/a	-999	-999	n/a	n/a	n/a	n/a	17	[-999, -999, -999]	-999	PAL1	1	R1149N
1894.722	0.017	2971120	MATH_START	n/a	n/a	-999	-999	n/a	n/a	n/a	n/a	17	[0, 0, 0]	-999	PAL1	1	R1149N
1894.739	15.936	2971137	PROB	15909.0	n/a	-999	-999	n/a	n/a	n/a	n/a	17	[9, 8, 3]	20	PAL1	1	R1149N
1910.675	4.405	2987072	PROB	4405.0	n/a	-999	-999	n/a	n/a	n/a	n/a	17	[2, 5, 8]	15	PAL1	1	R1149N
1915.08	0.013	2991477	STOP	n/a	n/a	-999	-999	n/a	n/a	n/a	n/a	17	[-999, -999, -999]	-999	PAL1	1	R1149N
1915.093	0.0	2991490	MATH_END	n/a	n/a	-999	-999	n/a	n/a	n/a	n/a	17	[0, 0, 0]	-999	PAL1	1	R1149N
1915.093	0.016	2991490	TEST_START	n/a	n/a	-999	-999	n/a	n/a	n/a	n/a	17	[0, 0, 0]	-999	PAL1	1	R1149N
1915.109	0.275	2991506	TEST_ORIENT	n/a	n/a	3	1	ROCK	FILM	ROCK	TRASH	17	[0, 0, 0]	-999	PAL1	1	R1149N
1915.992	0.0	2992389	REC_START	n/a	n/a	3	-999	n/a	FILM	n/a	n/a	17	[0, 0, 0]	-999	PAL1	1	R1149N
1915.992	4.0	2992389	TEST_PROBE	n/a	wordpools/wordpool_EN.txt	3	1	ROCK	FILM	ROCK	TRASH	17	[0, 0, 0]	-999	PAL1	1	R1149N
1918.376	2.633	2994773	REC_EVENT	2384.0	n/a	3	1	ROCK	FILM	ROCK	TRASH	17	[0, 0, 0]	-999	PAL1	1	R1149N
1921.009	0.017	2997406	REC_END	n/a	n/a	3	-999	n/a	n/a	n/a	n/a	17	[0, 0, 0]	-999	PAL1	1	R1149N
1921.026	0.275	2997423	TEST_ORIENT	n/a	n/a	2	2	HOOK	n/a	TOAST	HOOK	17	[0, 0, 0]	-999	PAL1	1	R1149N
1922.043	4.0	2998440	TEST_PROBE	n/a	wordpools/wordpool_EN.txt	2	2	HOOK	n/a	TOAST	HOOK	17	[0, 0, 0]	-999	PAL1	1	R1149N
1922.043	5.015	2998440	REC_START	n/a	n/a	2	-999	n/a	n/a	n/a	n/a	17	[0, 0, 0]	-999	PAL1	1	R1149N
1927.058	0.002	3003454	REC_EVENT	5015.0	n/a	2	2	HOOK	<>	TOAST	HOOK	17	[0, 0, 0]	-999	PAL1	1	R1149N
1927.06	0.018	3003456	REC_END	n/a	n/a	2	-999	n/a	n/a	n/a	n/a	17	[0, 0, 0]	-999	PAL1	1	R1149N
1927.078	0.275	3003474	TEST_ORIENT	n/a	n/a	5	3	NET	n/a	FILM	NET	17	[0, 0, 0]	-999	PAL1	1	R1149N
1927.877	4.0	3004273	TEST_PROBE	n/a	wordpools/wordpool_EN.txt	5	3	NET	n/a	FILM	NET	17	[0, 0, 0]	-999	PAL1	1	R1149N
1927.878	5.008	3004274	REC_START	n/a	n/a	5	-999	n/a	n/a	n/a	n/a	17	[0, 0, 0]	-999	PAL1	1	R1149N
1932.886	0.001	3009282	REC_END	n/a	n/a	5	-999	n/a	n/a	n/a	n/a	17	[0, 0, 0]	-999	PAL1	1	R1149N
1932.887	0.008	3009283	REC_EVENT	5009.0	n/a	5	3	NET	<>	FILM	NET	17	[0, 0, 0]	-999	PAL1	1	R1149N
1932.895	0.275	3009291	TEST_ORIENT	n/a	n/a	6	4	DART	n/a	DART	FOOD	17	[0, 0, 0]	-999	PAL1	1	R1149N
1933.713	4.0	3010109	TEST_PROBE	n/a	wordpools/wordpool_EN.txt	6	4	DART	n/a	DART	FOOD	17	[0, 0, 0]	-999	PAL1	1	R1149N
1933.713	5.015	3010109	REC_START	n/a	n/a	6	-999	n/a	n/a	n/a	n/a	17	[0, 0, 0]	-999	PAL1	1	R1149N
1938.728	0.002	3015124	REC_EVENT	5015.0	n/a	6	4	DART	<>	DART	FOOD	17	[0, 0, 0]	-999	PAL1	1	R1149N
1938.73	0.016	3015126	REC_END	n/a	n/a	6	-999	n/a	n/a	n/a	n/a	17	[0, 0, 0]	-999	PAL1	1	R1149N
1938.746	0.275	3015142	TEST_ORIENT	n/a	n/a	1	5	BLUSH	n/a	BLUSH	OAK	17	[0, 0, 0]	-999	PAL1	1	R1149N
1939.63	4.0	3016026	TEST_PROBE	n/a	wordpools/wordpool_EN.txt	1	5	BLUSH	n/a	BLUSH	OAK	17	[0, 0, 0]	-999	PAL1	1	R1149N
1939.63	1.223	3016026	REC_START	n/a	n/a	1	-999	n/a	n/a	n/a	n/a	17	[0, 0, 0]	-999	PAL1	1	R1149N
1940.853	3.795	3017249	REC_EVENT	1223.0	n/a	1	5	BLUSH	<>	BLUSH	OAK	17	[0, 0, 0]	-999	PAL1	1	R1149N
1944.648	0.016	3021043	REC_END	n/a	n/a	1	-999	n/a	n/a	n/a	n/a	17	[0, 0, 0]	-999	PAL1	1	R1149N
1944.664	0.275	3021059	TEST_ORIENT	n/a	n/a	4	6	FUDGE	n/a	FUDGE	SPEAR	17	[0, 0, 0]	-999	PAL1	1	R1149N
1945.531	4.0	3021926	TEST_PROBE	n/a	wordpools/wordpool_EN.txt	4	6	FUDGE	n/a	FUDGE	SPEAR	17	[0, 0, 0]	-999	PAL1	1	R1149N
1945.532	5.025	3021927	REC_START	n/a	n/a	4	-999	n/a	n/a	n/a	n/a	17	[0, 0, 0]	-999	PAL1	1	R1149N
1950.557	0.002	3026952	REC_END	n/a	n/a	4	-999	n/a	n/a	n/a	n/a	17	[0, 0, 0]	-999	PAL1	1	R1149N
1950.559	1.617	3026954	REC_EVENT	5027.0	n/a	4	6	FUDGE	<>	FUDGE	SPEAR	17	[0, 0, 0]	-999	PAL1	1	R1149N
1952.176	10.441	3028571	ENCODING_START	n/a	n/a	0	-999	n/a	n/a	n/a	n/a	18	[0, 0, 0]	-999	PAL1	1	R1149N
1962.617	0.275	3039012	STUDY_ORIENT	n/a	n/a	1	5	BOY	ROSE	BOY	ROSE	18	[0, 0, 0]	-999	PAL1	1	R1149N
1963.634	4.0	3040028	STUDY_PAIR	n/a	wordpools/wordpool_EN.txt	1	5	BOY	ROSE	BOY	ROSE	18	[0, 0, 0]	-999	PAL1	1	R1149N
1968.652	0.275	3045046	STUDY_ORIENT	n/a	n/a	2	6	THREAD	n/a	NOSE	THREAD	18	[0, 0, 0]	-999	PAL1	1	R1149N
1969.635	4.0	3046029	STUDY_PAIR	n/a	wordpools/wordpool_EN.txt	2	6	THREAD	n/a	NOSE	THREAD	18	[0, 0, 0]	-999	PAL1	1	R1149N
1974.653	0.275	3051047	STUDY_ORIENT	n/a	n/a	3	1	BANK	n/a	BOOK	BANK	18	[0, 0, 0]	-999	PAL1	1	R1149N
1975.503	4.0	3051897	STUDY_PAIR	n/a	wordpools/wordpool_EN.txt	3	1	BANK	n/a	BOOK	BANK	18	[0, 0, 0]	-999	PAL1	1	R1149N
1980.537	0.275	3056931	STUDY_ORIENT	n/a	n/a	4	4	LAWN	n/a	HEN	LAWN	18	[0, 0, 0]	-999	PAL1	1	R1149N
1981.537	4.0	3057931	STUDY_PAIR	n/a	wordpools/wordpool_EN.txt	4	4	LAWN	n/a	HEN	LAWN	18	[0, 0, 0]	-999	PAL1	1	R1149N
1986.555	0.275	3062948	STUDY_ORIENT	n/a	n/a	5	3	CAPE	n/a	EGG	CAPE	18	[0, 0, 0]	-999	PAL1	1	R1149N
1987.455	4.0	3063848	STUDY_PAIR	n/a	wordpools/wordpool_EN.txt	5	3	CAPE	n/a	EGG	CAPE	18	[0, 0, 0]	-999	PAL1	1	R1149N
1992.489	0.275	3068882	STUDY_ORIENT	n/a	n/a	6	2	JAIL	WHALE	WHALE	JAIL	18	[0, 0, 0]	-999	PAL1	1	R1149N
1993.389	4.0	3069782	STUDY_PAIR	n/a	wordpools/wordpool_EN.txt	6	2	JAIL	WHALE	WHALE	JAIL	18	[0, 0, 0]	-999	PAL1	1	R1149N
1997.39	1.0	3073783	START	n/a	n/a	-999	-999	n/a	n/a	n/a	n/a	18	[-999, -999, -999]	-999	PAL1	1	R1149N
1998.39	0.017	3074783	MATH_START	n/a	n/a	-999	-999	n/a	n/a	n/a	n/a	18	[0, 0, 0]	-999	PAL1	1	R1149N
1998.407	14.651	3074800	PROB	14632.0	n/a	-999	-999	n/a	n/a	n/a	n/a	18	[5, 7, 4]	16	PAL1	1	R1149N
2013.058	2.801	3089450	PROB	2782.0	n/a	-999	-999	n/a	n/a	n/a	n/a	18	[4, 4, 4]	12	PAL1	1	R1149N
2015.859	5.645	3092251	PROB	5645.0	n/a	-999	-999	n/a	n/a	n/a	n/a	18	[7, 3, 8]	18	PAL1	1	R1149N
2021.504	0.007	3097896	STOP	n/a	n/a	-999	-999	n/a	n/a	n/a	n/a	18	[-999, -999, -999]	-999	PAL1	1	R1149N
2021.511	0.0	3097903	MATH_END	n/a	n/a	-999	-999	n/a	n/a	n/a	n/a	18	[0, 0, 0]	-999	PAL1	1	R1149N
2021.511	0.016	3097903	TEST_START	n/a	n/a	-999	-999	n/a	n/a	n/a	n/a	18	[0, 0, 0]	-999	PAL1	1	R1149N
2021.527	0.275	3097919	TEST_ORIENT	n/a	n/a	3	1	BANK	n/a	BOOK	BANK	18	[0, 0, 0]	-999	PAL1	1	R1149N
2022.494	4.0	3098886	TEST_PROBE	n/a	wordpools/wordpool_EN.txt	3	1	BANK	n/a	BOOK	BANK	18	[0, 0, 0]	-999	PAL1	1	R1149N
2022.495	5.008	3098887	REC_START	n/a	n/a	3	-999	n/a	n/a	n/a	n/a	18	[0, 0, 0]	-999	PAL1	1	R1149N
2027.503	0.001	3103894	REC_END	n/a	n/a	3	-999	n/a	n/a	n/a	n/a	18	[0, 0, 0]	-999	PAL1	1	R1149N
2027.504	0.008	3103895	REC_EVENT	5009.0	n/a	3	1	BANK	<>	BOOK	BANK	18	[0, 0, 0]	-999	PAL1	1	R1149N
2027.512	0.275	3103903	TEST_ORIENT	n/a	n/a	6	2	JAIL	WHALE	WHALE	JAIL	18	[0, 0, 0]	-999	PAL1	1	R1149N
2028.445	4.0	3104836	TEST_PROBE	n/a	wordpools/wordpool_EN.txt	6	2	JAIL	WHALE	WHALE	JAIL	18	[0, 0, 0]	-999	PAL1	1	R1149N
2028.446	1.419	3104837	REC_START	n/a	n/a	6	-999	n/a	WHALE	n/a	n/a	18	[0, 0, 0]	-999	PAL1	1	R1149N
2029.865	3.589	3106256	REC_EVENT	1419.0	n/a	6	2	JAIL	WHALE	WHALE	JAIL	18	[0, 0, 0]	-999	PAL1	1	R1149N
2033.454	0.009	3109845	REC_END	n/a	n/a	6	-999	n/a	n/a	n/a	n/a	18	[0, 0, 0]	-999	PAL1	1	R1149N
2033.463	0.275	3109854	TEST_ORIENT	n/a	n/a	5	3	CAPE	n/a	EGG	CAPE	18	[0, 0, 0]	-999	PAL1	1	R1149N
2034.446	4.0	3110837	TEST_PROBE	n/a	wordpools/wordpool_EN.txt	5	3	CAPE	n/a	EGG	CAPE	18	[0, 0, 0]	-999	PAL1	1	R1149N
2034.447	5.008	3110838	REC_START	n/a	n/a	5	-999	n/a	n/a	n/a	n/a	18	[0, 0, 0]	-999	PAL1	1	R1149N
2039.455	0.001	3115846	REC_END	n/a	n/a	5	-999	n/a	n/a	n/a	n/a	18	[0, 0, 0]	-999	PAL1	1	R1149N
2039.456	0.008	3115847	REC_EVENT	5009.0	n/a	5	3	CAPE	<>	EGG	CAPE	18	[0, 0, 0]	-999	PAL1	1	R1149N
2039.464	0.275	3115855	TEST_ORIENT	n/a	n/a	4	4	LAWN	n/a	HEN	LAWN	18	[0, 0, 0]	-999	PAL1	1	R1149N
2040.397	4.0	3116788	TEST_PROBE	n/a	wordpools/wordpool_EN.txt	4	4	LAWN	n/a	HEN	LAWN	18	[0, 0, 0]	-999	PAL1	1	R1149N
2040.398	5.008	3116789	REC_START	n/a	n/a	4	-999	n/a	n/a	n/a	n/a	18	[0, 0, 0]	-999	PAL1	1	R1149N
2045.406	0.001	3121796	REC_END	n/a	n/a	4	-999	n/a	n/a	n/a	n/a	18	[0, 0, 0]	-999	PAL1	1	R1149N
2045.407	0.008	3121797	REC_EVENT	5009.0	n/a	4	4	LAWN	<>	HEN	LAWN	18	[0, 0, 0]	-999	PAL1	1	R1149N
2045.415	0.275	3121805	TEST_ORIENT	n/a	n/a	1	5	BOY	ROSE	BOY	ROSE	18	[0, 0, 0]	-999	PAL1	1	R1149N
2046.348	4.0	3122738	TEST_PROBE	n/a	wordpools/wordpool_EN.txt	1	5	BOY	ROSE	BOY	ROSE	18	[0, 0, 0]	-999	PAL1	1	R1149N
2046.349	2.534	3122739	REC_START	n/a	n/a	1	-999	n/a	ROSE	n/a	n/a	18	[0, 0, 0]	-999	PAL1	1	R1149N
2048.883	2.474	3125273	REC_EVENT	2534.0	n/a	1	5	BOY	ROSE	BOY	ROSE	18	[0, 0, 0]	-999	PAL1	1	R1149N
2051.357	0.008	3127747	REC_END	n/a	n/a	1	-999	n/a	n/a	n/a	n/a	18	[0, 0, 0]	-999	PAL1	1	R1149N
2051.365	0.275	3127755	TEST_ORIENT	n/a	n/a	2	6	THREAD	n/a	NOSE	THREAD	18	[0, 0, 0]	-999	PAL1	1	R1149N
2052.216	4.0	3128606	TEST_PROBE	n/a	wordpools/wordpool_EN.txt	2	6	THREAD	n/a	NOSE	THREAD	18	[0, 0, 0]	-999	PAL1	1	R1149N
2052.216	5.015	3128606	REC_START	n/a	n/a	2	-999	n/a	n/a	n/a	n/a	18	[0, 0, 0]	-999	PAL1	1	R1149N
2057.231	0.002	3133621	REC_EVENT	5015.0	n/a	2	6	THREAD	<>	NOSE	THREAD	18	[0, 0, 0]	-999	PAL1	1	R1149N
2057.233	1.255	3133623	REC_END	n/a	n/a	2	-999	n/a	n/a	n/a	n/a	18	[0, 0, 0]	-999	PAL1	1	R1149N
2058.488	10.446	3134878	ENCODING_START	n/a	n/a	0	-999	n/a	n/a	n/a	n/a	19	[0, 0, 0]	-999	PAL1	1	R1149N
2068.934	0.275	3145323	STUDY_ORIENT	n/a	n/a	1	1	ROOF	n/a	SHRIMP	ROOF	19	[0, 0, 0]	-999	PAL1	1	R1149N
2069.819	4.0	3146208	STUDY_PAIR	n/a	wordpools/wordpool_EN.txt	1	1	ROOF	n/a	SHRIMP	ROOF	19	[0, 0, 0]	-999	PAL1	1	R1149N
2074.853	0.275	3151242	STUDY_ORIENT	n/a	n/a	2	6	CLIFF	ROOF	RAIN	CLIFF	19	[0, 0, 0]	-999	PAL1	1	R1149N
2075.886	4.0	3152275	STUDY_PAIR	n/a	wordpools/wordpool_EN.txt	2	6	CLIFF	ROOF	RAIN	CLIFF	19	[0, 0, 0]	-999	PAL1	1	R1149N
2080.92	0.275	3157309	STUDY_ORIENT	n/a	n/a	3	3	JUDGE	n/a	JUDGE	ANT	19	[0, 0, 0]	-999	PAL1	1	R1149N
2081.821	4.0	3158210	STUDY_PAIR	n/a	wordpools/wordpool_EN.txt	3	3	JUDGE	n/a	JUDGE	ANT	19	[0, 0, 0]	-999	PAL1	1	R1149N
2086.855	0.275	3163243	STUDY_ORIENT	n/a	n/a	4	2	TAIL	n/a	LEG	TAIL	19	[0, 0, 0]	-999	PAL1	1	R1149N
2087.839	4.0	3164227	STUDY_PAIR	n/a	wordpools/wordpool_EN.txt	4	2	TAIL	n/a	LEG	TAIL	19	[0, 0, 0]	-999	PAL1	1	R1149N
2092.872	0.275	3169260	STUDY_ORIENT	n/a	n/a	5	5	CHIEF	n/a	DOOR	CHIEF	19	[0, 0, 0]	-999	PAL1	1	R1149N
2093.806	4.0	3170194	STUDY_PAIR	n/a	wordpools/wordpool_EN.txt	5	5	CHIEF	n/a	DOOR	CHIEF	19	[0, 0, 0]	-999	PAL1	1	R1149N
2098.824	0.275	3175212	STUDY_ORIENT	n/a	n/a	6	4	POLE	n/a	POLE	DITCH	19	[0, 0, 0]	-999	PAL1	1	R1149N
2099.691	4.0	3176079	STUDY_PAIR	n/a	wordpools/wordpool_EN.txt	6	4	POLE	n/a	POLE	DITCH	19	[0, 0, 0]	-999	PAL1	1	R1149N
2103.709	0.999	3180096	START	n/a	n/a	-999	-999	n/a	n/a	n/a	n/a	19	[-999, -999, -999]	-999	PAL1	1	R1149N
2104.708	0.017	3181095	MATH_START	n/a	n/a	-999	-999	n/a	n/a	n/a	n/a	19	[0, 0, 0]	-999	PAL1	1	R1149N
2104.725	3.166	3181112	PROB	3138.0	n/a	-999	-999	n/a	n/a	n/a	n/a	19	[8, 9, 1]	18	PAL1	1	R1149N
2107.891	6.802	3184278	PROB	6773.0	n/a	-999	-999	n/a	n/a	n/a	n/a	19	[1, 8, 3]	12	PAL1	1	R1149N
2114.693	8.435	3191080	PROB	8403.0	n/a	-999	-999	n/a	n/a	n/a	n/a	19	[6, 3, 8]	17	PAL1	1	R1149N
2123.128	6.751	3199514	PROB	6751.0	n/a	-999	-999	n/a	n/a	n/a	n/a	19	[9, 8, 8]	25	PAL1	1	R1149N
2129.879	0.016	3206265	STOP	n/a	n/a	-999	-999	n/a	n/a	n/a	n/a	19	[-999, -999, -999]	-999	PAL1	1	R1149N
2129.895	0.0	3206281	MATH_END	n/a	n/a	-999	-999	n/a	n/a	n/a	n/a	19	[0, 0, 0]	-999	PAL1	1	R1149N
2129.895	0.016	3206281	TEST_START	n/a	n/a	-999	-999	n/a	n/a	n/a	n/a	19	[0, 0, 0]	-999	PAL1	1	R1149N
2129.911	0.275	3206297	TEST_ORIENT	n/a	n/a	1	1	ROOF	n/a	SHRIMP	ROOF	19	[0, 0, 0]	-999	PAL1	1	R1149N
2130.812	4.0	3207198	TEST_PROBE	n/a	wordpools/wordpool_EN.txt	1	1	ROOF	n/a	SHRIMP	ROOF	19	[0, 0, 0]	-999	PAL1	1	R1149N
2130.813	5.009	3207199	REC_START	n/a	n/a	1	-999	n/a	n/a	n/a	n/a	19	[0, 0, 0]	-999	PAL1	1	R1149N
2135.822	0.002	3212208	REC_EVENT	5009.0	n/a	1	1	ROOF	<>	SHRIMP	ROOF	19	[0, 0, 0]	-999	PAL1	1	R1149N
2135.824	0.006	3212210	REC_END	n/a	n/a	1	-999	n/a	n/a	n/a	n/a	19	[0, 0, 0]	-999	PAL1	1	R1149N
2135.83	0.275	3212216	TEST_ORIENT	n/a	n/a	4	2	TAIL	n/a	LEG	TAIL	19	[0, 0, 0]	-999	PAL1	1	R1149N
2136.63	4.0	3213016	TEST_PROBE	n/a	wordpools/wordpool_EN.txt	4	2	TAIL	n/a	LEG	TAIL	19	[0, 0, 0]	-999	PAL1	1	R1149N
2136.631	5.015	3213017	REC_START	n/a	n/a	4	-999	n/a	n/a	n/a	n/a	19	[0, 0, 0]	-999	PAL1	1	R1149N
2141.646	0.001	3218032	REC_EVENT	5015.0	n/a	4	2	TAIL	<>	LEG	TAIL	19	[0, 0, 0]	-999	PAL1	1	R1149N
2141.647	0.017	3218033	REC_END	n/a	n/a	4	-999	n/a	n/a	n/a	n/a	19	[0, 0, 0]	-999	PAL1	1	R1149N
2141.664	0.275	3218050	TEST_ORIENT	n/a	n/a	3	3	JUDGE	n/a	JUDGE	ANT	19	[0, 0, 0]	-999	PAL1	1	R1149N
2142.481	4.0	3218867	TEST_PROBE	n/a	wordpools/wordpool_EN.txt	3	3	JUDGE	n/a	JUDGE	ANT	19	[0, 0, 0]	-999	PAL1	1	R1149N
2142.482	5.032	3218868	REC_START	n/a	n/a	3	-999	n/a	n/a	n/a	n/a	19	[0, 0, 0]	-999	PAL1	1	R1149N
2147.514	0.0	3223899	REC_EVENT	5032.0	n/a	3	3	JUDGE	<>	JUDGE	ANT	19	[0, 0, 0]	-999	PAL1	1	R1149N
2147.514	0.018	3223899	REC_END	n/a	n/a	3	-999	n/a	n/a	n/a	n/a	19	[0, 0, 0]	-999	PAL1	1	R1149N
2147.532	0.275	3223917	TEST_ORIENT	n/a	n/a	6	4	POLE	n/a	POLE	DITCH	19	[0, 0, 0]	-999	PAL1	1	R1149N
2148.399	4.0	3224784	TEST_PROBE	n/a	wordpools/wordpool_EN.txt	6	4	POLE	n/a	POLE	DITCH	19	[0, 0, 0]	-999	PAL1	1	R1149N
2148.399	5.015	3224784	REC_START	n/a	n/a	6	-999	n/a	n/a	n/a	n/a	19	[0, 0, 0]	-999	PAL1	1	R1149N
2153.414	0.002	3229799	REC_EVENT	5015.0	n/a	6	4	POLE	<>	POLE	DITCH	19	[0, 0, 0]	-999	PAL1	1	R1149N
