onset	duration	sample	trial_type	response_time	stim_file	serialpos	probepos	probe_word	resp_word	study_1	study_2	list	test	answer	experiment	session	subject
0.0	0.0	16099	INSTRUCT_VIDEO_ON	n/a	n/a	-999	-999	n/a	n/a	n/a	n/a	-999	[0, 0, 0]	-999	PAL1	2	R1278E
0.0	5.374	16099	INSTRUCT_VIDEO_OFF	n/a	n/a	-999	-999	n/a	n/a	n/a	n/a	-999	[0, 0, 0]	-999	PAL1	2	R1278E
5.374	0.0	21473	SESS_START	n/a	n/a	-999	-999	n/a	n/a	n/a	n/a	-999	[0, 0, 0]	-999	PAL1	2	R1278E
5.374	141.203	21473	MIC_TEST	n/a	n/a	-999	-999	n/a	n/a	n/a	n/a	-999	[0, 0, 0]	-999	PAL1	2	R1278E
146.577	17.596	162671	PRACTICE_TRIAL	n/a	n/a	-999	-999	n/a	n/a	n/a	n/a	-1	[0, 0, 0]	-999	PAL1	2	R1278E
164.173	0.005	180266	ENCODING_START	n/a	n/a	-999	-999	n/a	n/a	n/a	n/a	-1	[0, 0, 0]	-999	PAL1	2	R1278E
164.178	0.267	180271	PRACTICE_ORIENT	n/a	n/a	1	3	TONGUE	COTTON	TONGUE	COTTON	-1	[0, 0, 0]	-999	PAL1	2	R1278E
164.445	0.7	180538	PRACTICE_ORIENT_OFF	n/a	n/a	1	3	TONGUE	COTTON	TONGUE	COTTON	-1	[0, 0, 0]	-999	PAL1	2	R1278E
165.145	4.0	181238	PRACTICE_PAIR	n/a	n/a	1	3	TONGUE	COTTON	TONGUE	COTTON	-1	[0, 0, 0]	-999	PAL1	2	R1278E
169.162	1.017	185255	PRACTICE_PAIR_OFF	n/a	n/a	1	3	TONGUE	COTTON	TONGUE	COTTON	-1	[0, 0, 0]	-999	PAL1	2	R1278E
170.179	0.267	186272	PRACTICE_ORIENT	n/a	n/a	2	2	WAGON	n/a	WATCH	WAGON	-1	[0, 0, 0]	-999	PAL1	2	R1278E
170.446	0.616	186539	PRACTICE_ORIENT_OFF	n/a	n/a	2	2	WAGON	n/a	WATCH	WAGON	-1	[0, 0, 0]	-999	PAL1	2	R1278E
171.062	4.0	187155	PRACTICE_PAIR	n/a	n/a	2	2	WAGON	n/a	WATCH	WAGON	-1	[0, 0, 0]	-999	PAL1	2	R1278E
175.08	1.016	191173	PRACTICE_PAIR_OFF	n/a	n/a	2	2	WAGON	n/a	WATCH	WAGON	-1	[0, 0, 0]	-999	PAL1	2	R1278E
176.096	0.267	192189	PRACTICE_ORIENT	n/a	n/a	3	1	BEAM	RHINO	BEAM	RHINO	-1	[0, 0, 0]	-999	PAL1	2	R1278E
176.363	0.7	192456	PRACTICE_ORIENT_OFF	n/a	n/a	3	1	BEAM	RHINO	BEAM	RHINO	-1	[0, 0, 0]	-999	PAL1	2	R1278E
177.063	4.0	193155	PRACTICE_PAIR	n/a	n/a	3	1	BEAM	RHINO	BEAM	RHINO	-1	[0, 0, 0]	-999	PAL1	2	R1278E
181.081	1.017	197173	PRACTICE_PAIR_OFF	n/a	n/a	3	1	BEAM	RHINO	BEAM	RHINO	-1	[0, 0, 0]	-999	PAL1	2	R1278E
182.098	0.266	198190	PRACTICE_ORIENT	n/a	n/a	4	4	ATTIC	CHEST	CHEST	ATTIC	-1	[0, 0, 0]	-999	PAL1	2	R1278E
182.364	0.568	198456	PRACTICE_ORIENT_OFF	n/a	n/a	4	4	ATTIC	CHEST	CHEST	ATTIC	-1	[0, 0, 0]	-999	PAL1	2	R1278E
182.932	4.0	199024	PRACTICE_PAIR	n/a	n/a	4	4	ATTIC	CHEST	CHEST	ATTIC	-1	[0, 0, 0]	-999	PAL1	2	R1278E
186.949	1.017	203041	PRACTICE_PAIR_OFF	n/a	n/a	4	4	ATTIC	CHEST	CHEST	ATTIC	-1	[0, 0, 0]	-999	PAL1	2	R1278E
187.966	0.266	204058	PRACTICE_ORIENT	n/a	n/a	5	5	IRON	CAMEL	IRON	CAMEL	-1	[0, 0, 0]	-999	PAL1	2	R1278E
188.232	0.751	204324	PRACTICE_ORIENT_OFF	n/a	n/a	5	5	IRON	CAMEL	IRON	CAMEL	-1	[0, 0, 0]	-999	PAL1	2	R1278E
188.983	4.0	205075	PRACTICE_PAIR	n/a	n/a	5	5	IRON	CAMEL	IRON	CAMEL	-1	[0, 0, 0]	-999	PAL1	2	R1278E
193.001	1.016	209093	PRACTICE_PAIR_OFF	n/a	n/a	5	5	IRON	CAMEL	IRON	CAMEL	-1	[0, 0, 0]	-999	PAL1	2	R1278E
194.017	0.266	210109	PRACTICE_ORIENT	n/a	n/a	6	6	RING	PASS	FLOOD	RING	-1	[0, 0, 0]	-999	PAL1	2	R1278E
194.283	0.718	210375	PRACTICE_ORIENT_OFF	n/a	n/a	6	6	RING	PASS	FLOOD	RING	-1	[0, 0, 0]	-999	PAL1	2	R1278E
195.001	4.0	211093	PRACTICE_PAIR	n/a	n/a	6	6	RING	PASS	FLOOD	RING	-1	[0, 0, 0]	-999	PAL1	2	R1278E
199.018	1.001	215110	PRACTICE_PAIR_OFF	n/a	n/a	6	6	RING	PASS	FLOOD	RING	-1	[0, 0, 0]	-999	PAL1	2	R1278E
200.019	0.0	216111	ENCODING_END	n/a	n/a	-999	-999	n/a	n/a	n/a	n/a	-1	[0, 0, 0]	-999	PAL1	2	R1278E
200.019	0.0	216111	MATH_START	n/a	n/a	-999	-999	n/a	n/a	n/a	n/a	-1	[0, 0, 0]	-999	PAL1	2	R1278E
200.019	0.016	216111	START	n/a	n/a	-999	-999	n/a	n/a	n/a	n/a	-1	[-999, -999, -999]	-999	PAL1	2	R1278E
200.035	6.584	216127	PROB	6.55	n/a	-999	-999	n/a	n/a	n/a	n/a	-1	[7, 5, 8]	20	PAL1	2	R1278E
206.619	4.484	222710	PROB	4.447	n/a	-999	-999	n/a	n/a	n/a	n/a	-1	[7, 4, 3]	14	PAL1	2	R1278E
211.103	3.901	227194	PROB	3.867	n/a	-999	-999	n/a	n/a	n/a	n/a	-1	[2, 3, 6]	11	PAL1	2	R1278E
215.004	2.183	231095	PROB	2.158	n/a	-999	-999	n/a	n/a	n/a	n/a	-1	[1, 4, 1]	6	PAL1	2	R1278E
217.187	3.174	233278	PROB	3.174	n/a	-999	-999	n/a	n/a	n/a	n/a	-1	[8, 1, 8]	17	PAL1	2	R1278E
220.361	0.01	236452	STOP	n/a	n/a	-999	-999	n/a	n/a	n/a	n/a	-1	[-999, -999, -999]	-999	PAL1	2	R1278E
220.371	0.0	236462	MATH_END	n/a	n/a	-999	-999	n/a	n/a	n/a	n/a	-1	[0, 0, 0]	-999	PAL1	2	R1278E
220.371	0.017	236462	RECALL_START	n/a	n/a	-999	-999	n/a	n/a	n/a	n/a	-1	[0, 0, 0]	-999	PAL1	2	R1278E
220.388	0.266	236479	PRACTICE_RETRIEVAL_ORIENT	n/a	n/a	3	1	BEAM	RHINO	BEAM	RHINO	-1	[0, 0, 0]	-999	PAL1	2	R1278E
220.654	0.6	236745	PRACTICE_RETRIEVAL_ORIENT_OFF	n/a	n/a	3	1	BEAM	RHINO	BEAM	RHINO	-1	[0, 0, 0]	-999	PAL1	2	R1278E
221.254	4.0	237345	PRACTICE_PROBE	n/a	n/a	3	1	BEAM	RHINO	BEAM	RHINO	-1	[0, 0, 0]	-999	PAL1	2	R1278E
221.255	3.254	237346	REC_START	n/a	n/a	3	-999	n/a	RHINO	n/a	n/a	-1	[0, 0, 0]	-999	PAL1	2	R1278E
224.509	0.763	240600	REC_EVENT	3.254	n/a	3	1	BEAM	RHINO	BEAM	RHINO	-1	[0, 0, 0]	-999	PAL1	2	R1278E
225.272	1.0	241363	PROBE_OFF	n/a	n/a	3	-999	n/a	n/a	n/a	n/a	-1	[0, 0, 0]	-999	PAL1	2	R1278E
226.272	0.017	242363	REC_END	n/a	n/a	3	-999	n/a	n/a	n/a	n/a	-1	[0, 0, 0]	-999	PAL1	2	R1278E
226.289	0.266	242380	PRACTICE_RETRIEVAL_ORIENT	n/a	n/a	2	2	WAGON	n/a	WATCH	WAGON	-1	[0, 0, 0]	-999	PAL1	2	R1278E
226.555	0.517	242646	PRACTICE_RETRIEVAL_ORIENT_OFF	n/a	n/a	2	2	WAGON	n/a	WATCH	WAGON	-1	[0, 0, 0]	-999	PAL1	2	R1278E
227.072	4.0	243163	PRACTICE_PROBE	n/a	n/a	2	2	WAGON	n/a	WATCH	WAGON	-1	[0, 0, 0]	-999	PAL1	2	R1278E
227.073	4.016	243164	REC_START	n/a	n/a	2	-999	n/a	n/a	n/a	n/a	-1	[0, 0, 0]	-999	PAL1	2	R1278E
231.089	0.999	247179	PROBE_OFF	n/a	n/a	2	-999	n/a	n/a	n/a	n/a	-1	[0, 0, 0]	-999	PAL1	2	R1278E
232.088	0.001	248178	REC_EVENT	5.015	n/a	2	2	WAGON	<>	WATCH	WAGON	-1	[0, 0, 0]	-999	PAL1	2	R1278E
232.089	0.017	248179	REC_END	n/a	n/a	2	-999	n/a	n/a	n/a	n/a	-1	[0, 0, 0]	-999	PAL1	2	R1278E
232.106	0.267	248196	PRACTICE_RETRIEVAL_ORIENT	n/a	n/a	1	3	TONGUE	COTTON	TONGUE	COTTON	-1	[0, 0, 0]	-999	PAL1	2	R1278E
232.373	0.7	248463	PRACTICE_RETRIEVAL_ORIENT_OFF	n/a	n/a	1	3	TONGUE	COTTON	TONGUE	COTTON	-1	[0, 0, 0]	-999	PAL1	2	R1278E
233.073	4.0	249163	PRACTICE_PROBE	n/a	n/a	1	3	TONGUE	COTTON	TONGUE	COTTON	-1	[0, 0, 0]	-999	PAL1	2	R1278E
233.074	1.045	249164	REC_START	n/a	n/a	1	-999	n/a	COTTON	n/a	n/a	-1	[0, 0, 0]	-999	PAL1	2	R1278E
234.119	2.972	250209	REC_EVENT	1.045	n/a	1	3	TONGUE	COTTON	TONGUE	COTTON	-1	[0, 0, 0]	-999	PAL1	2	R1278E
237.091	1.01	253181	PROBE_OFF	n/a	n/a	1	-999	n/a	n/a	n/a	n/a	-1	[0, 0, 0]	-999	PAL1	2	R1278E
238.101	0.023	254191	REC_END	n/a	n/a	1	-999	n/a	n/a	n/a	n/a	-1	[0, 0, 0]	-999	PAL1	2	R1278E
238.124	0.267	254214	PRACTICE_RETRIEVAL_ORIENT	n/a	n/a	4	4	ATTIC	CHEST	CHEST	ATTIC	-1	[0, 0, 0]	-999	PAL1	2	R1278E
238.391	0.75	254481	PRACTICE_RETRIEVAL_ORIENT_OFF	n/a	n/a	4	4	ATTIC	CHEST	CHEST	ATTIC	-1	[0, 0, 0]	-999	PAL1	2	R1278E
239.141	4.0	255231	PRACTICE_PROBE	n/a	n/a	4	4	ATTIC	CHEST	CHEST	ATTIC	-1	[0, 0, 0]	-999	PAL1	2	R1278E
239.142	0.984	255232	REC_START	n/a	n/a	4	-999	n/a	CHEST	n/a	n/a	-1	[0, 0, 0]	-999	PAL1	2	R1278E
240.126	3.032	256216	REC_EVENT	0.984	n/a	4	4	ATTIC	CHEST	CHEST	ATTIC	-1	[0, 0, 0]	-999	PAL1	2	R1278E
243.158	1.0	259248	PROBE_OFF	n/a	n/a	4	-999	n/a	n/a	n/a	n/a	-1	[0, 0, 0]	-999	PAL1	2	R1278E
244.158	0.017	260248	REC_END	n/a	n/a	4	-999	n/a	n/a	n/a	n/a	-1	[0, 0, 0]	-999	PAL1	2	R1278E
244.175	0.267	260265	PRACTICE_RETRIEVAL_ORIENT	n/a	n/a	5	5	IRON	CAMEL	IRON	CAMEL	-1	[0, 0, 0]	-999	PAL1	2	R1278E
244.442	0.717	260532	PRACTICE_RETRIEVAL_ORIENT_OFF	n/a	n/a	5	5	IRON	CAMEL	IRON	CAMEL	-1	[0, 0, 0]	-999	PAL1	2	R1278E
245.159	4.0	261249	PRACTICE_PROBE	n/a	n/a	5	5	IRON	CAMEL	IRON	CAMEL	-1	[0, 0, 0]	-999	PAL1	2	R1278E
245.159	1.189	261249	REC_START	n/a	n/a	5	-999	n/a	CAMEL	n/a	n/a	-1	[0, 0, 0]	-999	PAL1	2	R1278E
246.348	2.828	262438	REC_EVENT	1.189	n/a	5	5	IRON	CAMEL	IRON	CAMEL	-1	[0, 0, 0]	-999	PAL1	2	R1278E
249.176	1.0	265266	PROBE_OFF	n/a	n/a	5	-999	n/a	n/a	n/a	n/a	-1	[0, 0, 0]	-999	PAL1	2	R1278E
250.176	0.017	266266	REC_END	n/a	n/a	5	-999	n/a	n/a	n/a	n/a	-1	[0, 0, 0]	-999	PAL1	2	R1278E
250.193	0.267	266283	PRACTICE_RETRIEVAL_ORIENT	n/a	n/a	6	6	RING	PASS	FLOOD	RING	-1	[0, 0, 0]	-999	PAL1	2	R1278E
250.46	0.75	266550	PRACTICE_RETRIEVAL_ORIENT_OFF	n/a	n/a	4	6	RING	PASS	FLOOD	RING	-1	[0, 0, 0]	-999	PAL1	2	R1278E
251.21	4.0	267300	PRACTICE_PROBE	n/a	n/a	6	6	RING	PASS	FLOOD	RING	-1	[0, 0, 0]	-999	PAL1	2	R1278E
251.21	2.05	267300	REC_START	n/a	n/a	6	-999	n/a	PASS	n/a	n/a	-1	[0, 0, 0]	-999	PAL1	2	R1278E
253.26	1.967	269349	REC_EVENT	2.05	n/a	6	6	RING	PASS	FLOOD	RING	-1	[0, 0, 0]	-999	PAL1	2	R1278E
255.227	1.0	271316	PROBE_OFF	n/a	n/a	6	-999	n/a	n/a	n/a	n/a	-1	[0, 0, 0]	-999	PAL1	2	R1278E
256.227	0.004	272316	REC_END	n/a	n/a	6	-999	n/a	n/a	n/a	n/a	-1	[0, 0, 0]	-999	PAL1	2	R1278E
256.231	16.349	272320	RECALL_END	n/a	n/a	-999	-999	n/a	n/a	n/a	n/a	-1	[0, 0, 0]	-999	PAL1	2	R1278E
272.58	10.928	288669	TRIAL	n/a	n/a	-999	-999	n/a	n/a	n/a	n/a	1	[0, 0, 0]	-999	PAL1	2	R1278E
283.508	0.007	299596	ENCODING_START	n/a	n/a	-999	-999	n/a	n/a	n/a	n/a	1	[0, 0, 0]	-999	PAL1	2	R1278E
283.515	0.268	299603	STUDY_ORIENT	n/a	n/a	1	1	MULE	n/a	MULE	HAND	1	[0, 0, 0]	-999	PAL1	2	R1278E
283.783	0.632	299871	STUDY_ORIENT_OFF	n/a	n/a	1	1	MULE	n/a	MULE	HAND	1	[0, 0, 0]	-999	PAL1	2	R1278E
284.415	4.0	300503	STUDY_PAIR	n/a	wordpools/wordpool_EN.txt	1	1	MULE	n/a	MULE	HAND	1	[0, 0, 0]	-999	PAL1	2	R1278E
288.433	1.017	304521	PAIR_OFF	n/a	n/a	1	1	MULE	n/a	MULE	HAND	1	[0, 0, 0]	-999	PAL1	2	R1278E
289.45	0.267	305538	STUDY_ORIENT	n/a	n/a	2	4	CASH	CLIFF	CLIFF	CASH	1	[0, 0, 0]	-999	PAL1	2	R1278E
289.717	0.65	305805	STUDY_ORIENT_OFF	n/a	n/a	2	4	CASH	CLIFF	CLIFF	CASH	1	[0, 0, 0]	-999	PAL1	2	R1278E
290.367	4.0	306455	STUDY_PAIR	n/a	wordpools/wordpool_EN.txt	2	4	CASH	CLIFF	CLIFF	CASH	1	[0, 0, 0]	-999	PAL1	2	R1278E
294.384	1.017	310472	PAIR_OFF	n/a	n/a	2	4	CASH	CLIFF	CLIFF	CASH	1	[0, 0, 0]	-999	PAL1	2	R1278E
295.401	0.266	311489	STUDY_ORIENT	n/a	n/a	3	3	DOG	RUG	DOG	RUG	1	[0, 0, 0]	-999	PAL1	2	R1278E
295.667	0.517	311755	STUDY_ORIENT_OFF	n/a	n/a	3	3	DOG	RUG	DOG	RUG	1	[0, 0, 0]	-999	PAL1	2	R1278E
296.184	4.0	312272	STUDY_PAIR	n/a	wordpools/wordpool_EN.txt	3	3	DOG	RUG	DOG	RUG	1	[0, 0, 0]	-999	PAL1	2	R1278E
300.202	1.016	316290	PAIR_OFF	n/a	n/a	3	3	DOG	RUG	DOG	RUG	1	[0, 0, 0]	-999	PAL1	2	R1278E
301.218	0.267	317306	STUDY_ORIENT	n/a	n/a	4	6	FLUTE	ARM	ARM	FLUTE	1	[0, 0, 0]	-999	PAL1	2	R1278E
301.485	0.667	317573	STUDY_ORIENT_OFF	n/a	n/a	4	6	FLUTE	ARM	ARM	FLUTE	1	[0, 0, 0]	-999	PAL1	2	R1278E
302.152	4.0	318240	STUDY_PAIR	n/a	wordpools/wordpool_EN.txt	4	6	FLUTE	ARM	ARM	FLUTE	1	[0, 0, 0]	-999	PAL1	2	R1278E
306.169	1.017	322256	PAIR_OFF	n/a	n/a	4	6	FLUTE	ARM	ARM	FLUTE	1	[0, 0, 0]	-999	PAL1	2	R1278E
307.186	0.267	323273	STUDY_ORIENT	n/a	n/a	5	5	SINK	TREE	SINK	TREE	1	[0, 0, 0]	-999	PAL1	2	R1278E
307.453	0.7	323540	STUDY_ORIENT_OFF	n/a	n/a	5	5	SINK	TREE	SINK	TREE	1	[0, 0, 0]	-999	PAL1	2	R1278E
308.153	4.0	324240	STUDY_PAIR	n/a	wordpools/wordpool_EN.txt	5	5	SINK	TREE	SINK	TREE	1	[0, 0, 0]	-999	PAL1	2	R1278E
312.17	1.017	328257	PAIR_OFF	n/a	n/a	5	5	SINK	TREE	SINK	TREE	1	[0, 0, 0]	-999	PAL1	2	R1278E
313.187	0.267	329274	STUDY_ORIENT	n/a	n/a	6	2	PARK	n/a	STEAK	PARK	1	[0, 0, 0]	-999	PAL1	2	R1278E
313.454	0.65	329541	STUDY_ORIENT_OFF	n/a	n/a	6	2	PARK	n/a	STEAK	PARK	1	[0, 0, 0]	-999	PAL1	2	R1278E
314.104	4.0	330191	STUDY_PAIR	n/a	wordpools/wordpool_EN.txt	6	2	PARK	n/a	STEAK	PARK	1	[0, 0, 0]	-999	PAL1	2	R1278E
318.121	1.001	334208	PAIR_OFF	n/a	n/a	6	2	PARK	n/a	STEAK	PARK	1	[0, 0, 0]	-999	PAL1	2	R1278E
319.122	0.0	335209	ENCODING_END	n/a	n/a	-999	-999	n/a	n/a	n/a	n/a	1	[0, 0, 0]	-999	PAL1	2	R1278E
319.122	0.0	335209	MATH_START	n/a	n/a	-999	-999	n/a	n/a	n/a	n/a	1	[0, 0, 0]	-999	PAL1	2	R1278E
319.122	0.016	335209	START	n/a	n/a	-999	-999	n/a	n/a	n/a	n/a	1	[-999, -999, -999]	-999	PAL1	2	R1278E
319.138	6.569	335225	PROB	6.535	n/a	-999	-999	n/a	n/a	n/a	n/a	1	[6, 4, 5]	15	PAL1	2	R1278E
325.707	3.883	341794	PROB	3.853	n/a	-999	-999	n/a	n/a	n/a	n/a	1	[5, 9, 4]	18	PAL1	2	R1278E
329.59	2.884	345676	PROB	2.858	n/a	-999	-999	n/a	n/a	n/a	n/a	1	[8, 5, 5]	18	PAL1	2	R1278E
332.474	4.218	348560	PROB	4.183	n/a	-999	-999	n/a	n/a	n/a	n/a	1	[3, 9, 4]	16	PAL1	2	R1278E
336.692	2.217	352778	PROB	2.189	n/a	-999	-999	n/a	n/a	n/a	n/a	1	[2, 1, 5]	8	PAL1	2	R1278E
338.909	7.057	354995	PROB	7.057	n/a	-999	-999	n/a	n/a	n/a	n/a	1	[8, 6, 9]	23	PAL1	2	R1278E
345.966	0.011	362052	STOP	n/a	n/a	-999	-999	n/a	n/a	n/a	n/a	1	[-999, -999, -999]	-999	PAL1	2	R1278E
345.977	0.0	362063	RECALL_START	n/a	n/a	-999	-999	n/a	n/a	n/a	n/a	1	[0, 0, 0]	-999	PAL1	2	R1278E
345.977	0.017	362063	MATH_END	n/a	n/a	-999	-999	n/a	n/a	n/a	n/a	1	[0, 0, 0]	-999	PAL1	2	R1278E
345.994	0.266	362080	TEST_ORIENT	n/a	n/a	1	1	MULE	n/a	MULE	HAND	1	[0, 0, 0]	-999	PAL1	2	R1278E
346.26	0.551	362346	RETRIEVAL_ORIENT_OFF	n/a	n/a	-999	-999	n/a	n/a	n/a	n/a	1	[0, 0, 0]	-999	PAL1	2	R1278E
346.811	4.0	362897	TEST_PROBE	n/a	wordpools/wordpool_EN.txt	1	1	MULE	n/a	MULE	HAND	1	[0, 0, 0]	-999	PAL1	2	R1278E
346.811	4.017	362897	REC_START	n/a	n/a	1	-999	n/a	n/a	n/a	n/a	1	[0, 0, 0]	-999	PAL1	2	R1278E
350.828	0.237	366914	PROBE_OFF	n/a	n/a	1	-999	n/a	n/a	n/a	n/a	1	[0, 0, 0]	-999	PAL1	2	R1278E
351.065	0.763	367151	REC_EVENT	4.254	n/a	1	1	MULE	<>	MULE	HAND	1	[0, 0, 0]	-999	PAL1	2	R1278E
351.828	0.017	367914	REC_END	n/a	n/a	1	-999	n/a	n/a	n/a	n/a	1	[0, 0, 0]	-999	PAL1	2	R1278E
351.845	0.266	367931	TEST_ORIENT	n/a	n/a	6	2	PARK	n/a	STEAK	PARK	1	[0, 0, 0]	-999	PAL1	2	R1278E
352.111	0.701	368197	RETRIEVAL_ORIENT_OFF	n/a	n/a	1	-999	n/a	n/a	n/a	n/a	1	[0, 0, 0]	-999	PAL1	2	R1278E
352.812	4.0	368898	TEST_PROBE	n/a	wordpools/wordpool_EN.txt	6	2	PARK	n/a	STEAK	PARK	1	[0, 0, 0]	-999	PAL1	2	R1278E
352.812	4.017	368898	REC_START	n/a	n/a	6	-999	n/a	n/a	n/a	n/a	1	[0, 0, 0]	-999	PAL1	2	R1278E
356.829	0.998	372914	PROBE_OFF	n/a	n/a	6	-999	n/a	n/a	n/a	n/a	1	[0, 0, 0]	-999	PAL1	2	R1278E
357.827	0.002	373912	REC_EVENT	5.015	n/a	6	2	PARK	<>	STEAK	PARK	1	[0, 0, 0]	-999	PAL1	2	R1278E
357.829	0.017	373914	REC_END	n/a	n/a	6	-999	n/a	n/a	n/a	n/a	1	[0, 0, 0]	-999	PAL1	2	R1278E
357.846	0.266	373931	TEST_ORIENT	n/a	n/a	3	3	DOG	RUG	DOG	RUG	1	[0, 0, 0]	-999	PAL1	2	R1278E
358.112	0.651	374197	RETRIEVAL_ORIENT_OFF	n/a	n/a	6	-999	n/a	n/a	n/a	n/a	1	[0, 0, 0]	-999	PAL1	2	R1278E
358.763	4.0	374848	TEST_PROBE	n/a	wordpools/wordpool_EN.txt	3	3	DOG	RUG	DOG	RUG	1	[0, 0, 0]	-999	PAL1	2	R1278E
358.763	2.345	374848	REC_START	n/a	n/a	3	-999	n/a	RUG	n/a	n/a	1	[0, 0, 0]	-999	PAL1	2	R1278E
361.108	1.672	377193	REC_EVENT	2.345	n/a	3	3	DOG	RUG	DOG	RUG	1	[0, 0, 0]	-999	PAL1	2	R1278E
362.78	1.0	378865	PROBE_OFF	n/a	n/a	3	-999	n/a	n/a	n/a	n/a	1	[0, 0, 0]	-999	PAL1	2	R1278E
363.78	0.017	379865	REC_END	n/a	n/a	3	-999	n/a	n/a	n/a	n/a	1	[0, 0, 0]	-999	PAL1	2	R1278E
363.797	0.266	379882	TEST_ORIENT	n/a	n/a	2	4	CASH	CLIFF	CLIFF	CASH	1	[0, 0, 0]	-999	PAL1	2	R1278E
364.063	0.634	380148	RETRIEVAL_ORIENT_OFF	n/a	n/a	3	-999	n/a	n/a	n/a	n/a	1	[0, 0, 0]	-999	PAL1	2	R1278E
364.697	4.0	380782	TEST_PROBE	n/a	wordpools/wordpool_EN.txt	2	4	CASH	CLIFF	CLIFF	CASH	1	[0, 0, 0]	-999	PAL1	2	R1278E
364.698	1.419	380783	REC_START	n/a	n/a	2	-999	n/a	CLIFF	n/a	n/a	1	[0, 0, 0]	-999	PAL1	2	R1278E
366.117	2.597	382202	REC_EVENT	1.419	n/a	2	4	CASH	CLIFF	CLIFF	CASH	1	[0, 0, 0]	-999	PAL1	2	R1278E
368.714	1.001	384799	PROBE_OFF	n/a	n/a	2	-999	n/a	n/a	n/a	n/a	1	[0, 0, 0]	-999	PAL1	2	R1278E
369.715	0.016	385800	REC_END	n/a	n/a	2	-999	n/a	n/a	n/a	n/a	1	[0, 0, 0]	-999	PAL1	2	R1278E
369.731	0.267	385816	TEST_ORIENT	n/a	n/a	5	5	SINK	TREE	SINK	TREE	1	[0, 0, 0]	-999	PAL1	2	R1278E
369.998	0.75	386083	RETRIEVAL_ORIENT_OFF	n/a	n/a	2	-999	n/a	n/a	n/a	n/a	1	[0, 0, 0]	-999	PAL1	2	R1278E
370.748	4.0	386833	TEST_PROBE	n/a	wordpools/wordpool_EN.txt	5	5	SINK	TREE	SINK	TREE	1	[0, 0, 0]	-999	PAL1	2	R1278E
370.749	1.849	386834	REC_START	n/a	n/a	5	-999	n/a	TREE	n/a	n/a	1	[0, 0, 0]	-999	PAL1	2	R1278E
372.598	2.168	388683	REC_EVENT	1.849	n/a	5	5	SINK	TREE	SINK	TREE	1	[0, 0, 0]	-999	PAL1	2	R1278E
374.766	1.0	390851	PROBE_OFF	n/a	n/a	5	-999	n/a	n/a	n/a	n/a	1	[0, 0, 0]	-999	PAL1	2	R1278E
375.766	0.016	391851	REC_END	n/a	n/a	5	-999	n/a	n/a	n/a	n/a	1	[0, 0, 0]	-999	PAL1	2	R1278E
375.782	0.266	391867	TEST_ORIENT	n/a	n/a	4	6	FLUTE	ARM	ARM	FLUTE	1	[0, 0, 0]	-999	PAL1	2	R1278E
376.048	0.55	392133	RETRIEVAL_ORIENT_OFF	n/a	n/a	5	-999	n/a	n/a	n/a	n/a	1	[0, 0, 0]	-999	PAL1	2	R1278E
376.598	4.0	392683	TEST_PROBE	n/a	wordpools/wordpool_EN.txt	4	6	FLUTE	ARM	ARM	FLUTE	1	[0, 0, 0]	-999	PAL1	2	R1278E
376.599	1.574	392684	REC_START	n/a	n/a	4	-999	n/a	ARM	n/a	n/a	1	[0, 0, 0]	-999	PAL1	2	R1278E
378.173	2.443	394258	REC_EVENT	1.574	n/a	4	6	FLUTE	ARM	ARM	FLUTE	1	[0, 0, 0]	-999	PAL1	2	R1278E
380.616	1.01	396700	PROBE_OFF	n/a	n/a	4	-999	n/a	n/a	n/a	n/a	1	[0, 0, 0]	-999	PAL1	2	R1278E
381.626	0.004	397710	REC_END	n/a	n/a	4	-999	n/a	n/a	n/a	n/a	1	[0, 0, 0]	-999	PAL1	2	R1278E
381.63	5.853	397714	RECALL_END	n/a	n/a	-999	-999	n/a	n/a	n/a	n/a	1	[0, 0, 0]	-999	PAL1	2	R1278E
387.483	10.928	403567	TRIAL	n/a	n/a	-999	-999	n/a	n/a	n/a	n/a	2	[0, 0, 0]	-999	PAL1	2	R1278E
398.411	0.008	414495	ENCODING_START	n/a	n/a	-999	-999	n/a	n/a	n/a	n/a	2	[0, 0, 0]	-999	PAL1	2	R1278E
398.419	0.267	414503	STUDY_ORIENT	n/a	n/a	1	3	PIT	BEE	PIT	BEE	2	[0, 0, 0]	-999	PAL1	2	R1278E
398.686	0.616	414770	STUDY_ORIENT_OFF	n/a	n/a	1	3	PIT	BEE	PIT	BEE	2	[0, 0, 0]	-999	PAL1	2	R1278E
399.302	4.0	415386	STUDY_PAIR	n/a	wordpools/wordpool_EN.txt	1	3	PIT	BEE	PIT	BEE	2	[0, 0, 0]	-999	PAL1	2	R1278E
403.32	1.016	419404	PAIR_OFF	n/a	n/a	1	3	PIT	BEE	PIT	BEE	2	[0, 0, 0]	-999	PAL1	2	R1278E
404.336	0.267	420419	STUDY_ORIENT	n/a	n/a	2	4	MOUSE	YARD	MOUSE	YARD	2	[0, 0, 0]	-999	PAL1	2	R1278E
404.603	0.667	420686	STUDY_ORIENT_OFF	n/a	n/a	2	4	MOUSE	YARD	MOUSE	YARD	2	[0, 0, 0]	-999	PAL1	2	R1278E
405.27	4.0	421353	STUDY_PAIR	n/a	wordpools/wordpool_EN.txt	2	4	MOUSE	YARD	MOUSE	YARD	2	[0, 0, 0]	-999	PAL1	2	R1278E
409.287	1.017	425370	PAIR_OFF	n/a	n/a	2	4	MOUSE	YARD	MOUSE	YARD	2	[0, 0, 0]	-999	PAL1	2	R1278E
410.304	0.267	426387	STUDY_ORIENT	n/a	n/a	3	5	VAN	PASS	WOLF	VAN	2	[0, 0, 0]	-999	PAL1	2	R1278E
410.571	0.583	426654	STUDY_ORIENT_OFF	n/a	n/a	3	5	VAN	PASS	WOLF	VAN	2	[0, 0, 0]	-999	PAL1	2	R1278E
411.154	4.0	427237	STUDY_PAIR	n/a	wordpools/wordpool_EN.txt	3	5	VAN	PASS	WOLF	VAN	2	[0, 0, 0]	-999	PAL1	2	R1278E
415.172	1.016	431255	PAIR_OFF	n/a	n/a	3	5	VAN	PASS	WOLF	VAN	2	[0, 0, 0]	-999	PAL1	2	R1278E
416.188	0.267	432271	STUDY_ORIENT	n/a	n/a	4	6	LAKE	PASS	LAKE	CROW	2	[0, 0, 0]	-999	PAL1	2	R1278E
416.455	0.767	432538	STUDY_ORIENT_OFF	n/a	n/a	4	6	LAKE	PASS	LAKE	CROW	2	[0, 0, 0]	-999	PAL1	2	R1278E
417.222	4.0	433305	STUDY_PAIR	n/a	wordpools/wordpool_EN.txt	4	6	LAKE	PASS	LAKE	CROW	2	[0, 0, 0]	-999	PAL1	2	R1278E
421.239	1.017	437322	PAIR_OFF	n/a	n/a	4	6	LAKE	PASS	LAKE	CROW	2	[0, 0, 0]	-999	PAL1	2	R1278E
422.256	0.267	438339	STUDY_ORIENT	n/a	n/a	5	1	KITE	n/a	KITE	STEAM	2	[0, 0, 0]	-999	PAL1	2	R1278E
422.523	0.583	438606	STUDY_ORIENT_OFF	n/a	n/a	5	1	KITE	n/a	KITE	STEAM	2	[0, 0, 0]	-999	PAL1	2	R1278E
423.106	4.0	439189	STUDY_PAIR	n/a	wordpools/wordpool_EN.txt	5	1	KITE	n/a	KITE	STEAM	2	[0, 0, 0]	-999	PAL1	2	R1278E
427.124	1.017	443207	PAIR_OFF	n/a	n/a	5	1	KITE	n/a	KITE	STEAM	2	[0, 0, 0]	-999	PAL1	2	R1278E
428.141	0.266	444224	STUDY_ORIENT	n/a	n/a	6	2	SHOE	SPRING	SHOE	SPRING	2	[0, 0, 0]	-999	PAL1	2	R1278E
428.407	0.634	444490	STUDY_ORIENT_OFF	n/a	n/a	6	2	SHOE	SPRING	SHOE	SPRING	2	[0, 0, 0]	-999	PAL1	2	R1278E
429.041	4.0	445124	STUDY_PAIR	n/a	wordpools/wordpool_EN.txt	6	2	SHOE	SPRING	SHOE	SPRING	2	[0, 0, 0]	-999	PAL1	2	R1278E
433.058	1.0	449140	PAIR_OFF	n/a	n/a	6	2	SHOE	SPRING	SHOE	SPRING	2	[0, 0, 0]	-999	PAL1	2	R1278E
434.058	0.0	450140	ENCODING_END	n/a	n/a	-999	-999	n/a	n/a	n/a	n/a	2	[0, 0, 0]	-999	PAL1	2	R1278E
434.058	0.001	450140	MATH_START	n/a	n/a	-999	-999	n/a	n/a	n/a	n/a	2	[0, 0, 0]	-999	PAL1	2	R1278E
434.059	0.016	450141	START	n/a	n/a	-999	-999	n/a	n/a	n/a	n/a	2	[-999, -999, -999]	-999	PAL1	2	R1278E
434.075	2.267	450157	PROB	2.23	n/a	-999	-999	n/a	n/a	n/a	n/a	2	[1, 5, 2]	8	PAL1	2	R1278E
436.342	5.084	452424	PROB	5.051	n/a	-999	-999	n/a	n/a	n/a	n/a	2	[9, 5, 3]	17	PAL1	2	R1278E
441.426	4.485	457508	PROB	4.448	n/a	-999	-999	n/a	n/a	n/a	n/a	2	[5, 7, 2]	14	PAL1	2	R1278E
445.911	4.901	461993	PROB	4.875	n/a	-999	-999	n/a	n/a	n/a	n/a	2	[4, 6, 4]	14	PAL1	2	R1278E
450.812	4.656	466894	PROB	4.656	n/a	-999	-999	n/a	n/a	n/a	n/a	2	[6, 8, 2]	16	PAL1	2	R1278E
455.468	0.011	471549	STOP	n/a	n/a	-999	-999	n/a	n/a	n/a	n/a	2	[-999, -999, -999]	-999	PAL1	2	R1278E
455.479	0.0	471560	MATH_END	n/a	n/a	-999	-999	n/a	n/a	n/a	n/a	2	[0, 0, 0]	-999	PAL1	2	R1278E
455.479	0.016	471560	RECALL_START	n/a	n/a	-999	-999	n/a	n/a	n/a	n/a	2	[0, 0, 0]	-999	PAL1	2	R1278E
455.495	0.268	471576	TEST_ORIENT	n/a	n/a	5	1	KITE	n/a	KITE	STEAM	2	[0, 0, 0]	-999	PAL1	2	R1278E
455.763	0.599	471844	RETRIEVAL_ORIENT_OFF	n/a	n/a	-999	-999	n/a	n/a	n/a	n/a	2	[0, 0, 0]	-999	PAL1	2	R1278E
456.362	0.0	472443	REC_START	n/a	n/a	5	-999	n/a	n/a	n/a	n/a	2	[0, 0, 0]	-999	PAL1	2	R1278E
456.362	4.0	472443	TEST_PROBE	n/a	wordpools/wordpool_EN.txt	5	1	KITE	n/a	KITE	STEAM	2	[0, 0, 0]	-999	PAL1	2	R1278E
460.38	1.0	476461	PROBE_OFF	n/a	n/a	5	-999	n/a	n/a	n/a	n/a	2	[0, 0, 0]	-999	PAL1	2	R1278E
461.38	0.003	477461	REC_END	n/a	n/a	5	-999	n/a	n/a	n/a	n/a	2	[0, 0, 0]	-999	PAL1	2	R1278E
461.383	0.013	477464	REC_EVENT	5.021	n/a	5	1	KITE	<>	KITE	STEAM	2	[0, 0, 0]	-999	PAL1	2	R1278E
461.396	0.267	477477	TEST_ORIENT	n/a	n/a	6	2	SHOE	SPRING	SHOE	SPRING	2	[0, 0, 0]	-999	PAL1	2	R1278E
461.663	0.65	477744	RETRIEVAL_ORIENT_OFF	n/a	n/a	5	-999	n/a	n/a	n/a	n/a	2	[0, 0, 0]	-999	PAL1	2	R1278E
462.313	4.0	478394	TEST_PROBE	n/a	wordpools/wordpool_EN.txt	6	2	SHOE	SPRING	SHOE	SPRING	2	[0, 0, 0]	-999	PAL1	2	R1278E
462.314	1.359	478395	REC_START	n/a	n/a	6	-999	n/a	SPRING	n/a	n/a	2	[0, 0, 0]	-999	PAL1	2	R1278E
463.673	1.0	479754	REC_EVENT	1.359	n/a	6	2	SHOE	SPRING	SHOE	SPRING	2	[0, 0, 0]	-999	PAL1	2	R1278E
464.673	1.658	480754	REC_EVENT	2.359	n/a	6	2	SHOE	<>	SHOE	SPRING	2	[0, 0, 0]	-999	PAL1	2	R1278E
466.331	1.01	482412	PROBE_OFF	n/a	n/a	6	-999	n/a	n/a	n/a	n/a	2	[0, 0, 0]	-999	PAL1	2	R1278E
467.341	0.023	483422	REC_END	n/a	n/a	6	-999	n/a	n/a	n/a	n/a	2	[0, 0, 0]	-999	PAL1	2	R1278E
467.364	0.267	483445	TEST_ORIENT	n/a	n/a	1	3	PIT	BEE	PIT	BEE	2	[0, 0, 0]	-999	PAL1	2	R1278E
467.631	0.75	483712	RETRIEVAL_ORIENT_OFF	n/a	n/a	6	-999	n/a	n/a	n/a	n/a	2	[0, 0, 0]	-999	PAL1	2	R1278E
468.381	0.0	484462	REC_START	n/a	n/a	1	-999	n/a	BEE	n/a	n/a	2	[0, 0, 0]	-999	PAL1	2	R1278E
468.381	4.0	484462	TEST_PROBE	n/a	wordpools/wordpool_EN.txt	1	3	PIT	BEE	PIT	BEE	2	[0, 0, 0]	-999	PAL1	2	R1278E
469.495	0.255	485576	REC_EVENT	1.114	n/a	1	3	PIT	<>	PIT	BEE	2	[0, 0, 0]	-999	PAL1	2	R1278E
469.75	2.648	485831	REC_EVENT	1.369	n/a	1	3	PIT	BEE	PIT	BEE	2	[0, 0, 0]	-999	PAL1	2	R1278E
472.398	1.001	488479	PROBE_OFF	n/a	n/a	1	-999	n/a	n/a	n/a	n/a	2	[0, 0, 0]	-999	PAL1	2	R1278E
473.399	0.016	489480	REC_END	n/a	n/a	1	-999	n/a	n/a	n/a	n/a	2	[0, 0, 0]	-999	PAL1	2	R1278E
473.415	0.268	489496	TEST_ORIENT	n/a	n/a	2	4	MOUSE	YARD	MOUSE	YARD	2	[0, 0, 0]	-999	PAL1	2	R1278E
473.683	0.715	489764	RETRIEVAL_ORIENT_OFF	n/a	n/a	1	-999	n/a	n/a	n/a	n/a	2	[0, 0, 0]	-999	PAL1	2	R1278E
474.398	4.0	490479	TEST_PROBE	n/a	wordpools/wordpool_EN.txt	2	4	MOUSE	YARD	MOUSE	YARD	2	[0, 0, 0]	-999	PAL1	2	R1278E
474.399	1.184	490480	REC_START	n/a	n/a	2	-999	n/a	YARD	n/a	n/a	2	[0, 0, 0]	-999	PAL1	2	R1278E
475.583	2.833	491664	REC_EVENT	1.184	n/a	2	4	MOUSE	YARD	MOUSE	YARD	2	[0, 0, 0]	-999	PAL1	2	R1278E
478.416	1.0	494497	PROBE_OFF	n/a	n/a	2	-999	n/a	n/a	n/a	n/a	2	[0, 0, 0]	-999	PAL1	2	R1278E
479.416	0.017	495497	REC_END	n/a	n/a	2	-999	n/a	n/a	n/a	n/a	2	[0, 0, 0]	-999	PAL1	2	R1278E
479.433	0.268	495514	TEST_ORIENT	n/a	n/a	3	5	VAN	PASS	WOLF	VAN	2	[0, 0, 0]	-999	PAL1	2	R1278E
479.701	0.599	495781	RETRIEVAL_ORIENT_OFF	n/a	n/a	2	-999	n/a	n/a	n/a	n/a	2	[0, 0, 0]	-999	PAL1	2	R1278E
480.3	0.0	496380	REC_START	n/a	n/a	3	-999	n/a	PASS	n/a	n/a	2	[0, 0, 0]	-999	PAL1	2	R1278E
480.3	4.0	496380	TEST_PROBE	n/a	wordpools/wordpool_EN.txt	3	5	VAN	PASS	WOLF	VAN	2	[0, 0, 0]	-999	PAL1	2	R1278E
483.269	1.048	499349	REC_EVENT	2.969	n/a	3	5	VAN	PASS	WOLF	VAN	2	[0, 0, 0]	-999	PAL1	2	R1278E
484.317	1.0	500397	PROBE_OFF	n/a	n/a	3	-999	n/a	n/a	n/a	n/a	2	[0, 0, 0]	-999	PAL1	2	R1278E
485.317	0.017	501397	REC_END	n/a	n/a	3	-999	n/a	n/a	n/a	n/a	2	[0, 0, 0]	-999	PAL1	2	R1278E
485.334	0.267	501414	TEST_ORIENT	n/a	n/a	4	6	LAKE	PASS	LAKE	CROW	2	[0, 0, 0]	-999	PAL1	2	R1278E
485.601	0.699	501681	RETRIEVAL_ORIENT_OFF	n/a	n/a	3	-999	n/a	n/a	n/a	n/a	2	[0, 0, 0]	-999	PAL1	2	R1278E
486.3	4.0	502380	TEST_PROBE	n/a	wordpools/wordpool_EN.txt	4	6	LAKE	PASS	LAKE	CROW	2	[0, 0, 0]	-999	PAL1	2	R1278E
486.301	3.0	502381	REC_START	n/a	n/a	4	-999	n/a	PASS	n/a	n/a	2	[0, 0, 0]	-999	PAL1	2	R1278E
489.301	1.017	505381	REC_EVENT	3.0	n/a	4	6	LAKE	PASS	LAKE	CROW	2	[0, 0, 0]	-999	PAL1	2	R1278E
490.318	1.0	506398	PROBE_OFF	n/a	n/a	4	-999	n/a	n/a	n/a	n/a	2	[0, 0, 0]	-999	PAL1	2	R1278E
491.318	0.009	507398	REC_END	n/a	n/a	4	-999	n/a	n/a	n/a	n/a	2	[0, 0, 0]	-999	PAL1	2	R1278E
491.327	43.049	507407	RECALL_END	n/a	n/a	-999	-999	n/a	n/a	n/a	n/a	2	[0, 0, 0]	-999	PAL1	2	R1278E
534.376	10.928	550454	TRIAL	n/a	n/a	-999	-999	n/a	n/a	n/a	n/a	3	[0, 0, 0]	-999	PAL1	2	R1278E
545.304	0.007	561382	ENCODING_START	n/a	n/a	-999	-999	n/a	n/a	n/a	n/a	3	[0, 0, 0]	-999	PAL1	2	R1278E
545.311	0.267	561389	STUDY_ORIENT	n/a	n/a	1	5	DOLL	PASS	DOLL	CORD	3	[0, 0, 0]	-999	PAL1	2	R1278E
545.578	0.633	561656	STUDY_ORIENT_OFF	n/a	n/a	1	5	DOLL	PASS	DOLL	CORD	3	[0, 0, 0]	-999	PAL1	2	R1278E
546.211	4.0	562289	STUDY_PAIR	n/a	wordpools/wordpool_EN.txt	1	5	DOLL	PASS	DOLL	CORD	3	[0, 0, 0]	-999	PAL1	2	R1278E
550.229	1.016	566307	PAIR_OFF	n/a	n/a	1	5	DOLL	PASS	DOLL	CORD	3	[0, 0, 0]	-999	PAL1	2	R1278E
551.245	0.267	567323	STUDY_ORIENT	n/a	n/a	2	6	TRASH	SQUARE	SQUARE	TRASH	3	[0, 0, 0]	-999	PAL1	2	R1278E
551.512	0.617	567590	STUDY_ORIENT_OFF	n/a	n/a	2	6	TRASH	SQUARE	SQUARE	TRASH	3	[0, 0, 0]	-999	PAL1	2	R1278E
552.129	4.0	568207	STUDY_PAIR	n/a	wordpools/wordpool_EN.txt	2	6	TRASH	SQUARE	SQUARE	TRASH	3	[0, 0, 0]	-999	PAL1	2	R1278E
556.146	1.017	572223	PAIR_OFF	n/a	n/a	2	6	TRASH	SQUARE	SQUARE	TRASH	3	[0, 0, 0]	-999	PAL1	2	R1278E
557.163	0.267	573240	STUDY_ORIENT	n/a	n/a	3	1	SPARK	SHIRT	SHIRT	SPARK	3	[0, 0, 0]	-999	PAL1	2	R1278E
557.43	0.617	573507	STUDY_ORIENT_OFF	n/a	n/a	3	1	SPARK	SHIRT	SHIRT	SPARK	3	[0, 0, 0]	-999	PAL1	2	R1278E
558.047	4.0	574124	STUDY_PAIR	n/a	wordpools/wordpool_EN.txt	3	1	SPARK	SHIRT	SHIRT	SPARK	3	[0, 0, 0]	-999	PAL1	2	R1278E
562.064	1.017	578141	PAIR_OFF	n/a	n/a	3	1	SPARK	SHIRT	SHIRT	SPARK	3	[0, 0, 0]	-999	PAL1	2	R1278E
563.081	0.267	579158	STUDY_ORIENT	n/a	n/a	4	4	DESK	LOCK	DESK	LOCK	3	[0, 0, 0]	-999	PAL1	2	R1278E
563.348	0.584	579425	STUDY_ORIENT_OFF	n/a	n/a	4	4	DESK	LOCK	DESK	LOCK	3	[0, 0, 0]	-999	PAL1	2	R1278E
563.932	4.0	580009	STUDY_PAIR	n/a	wordpools/wordpool_EN.txt	4	4	DESK	LOCK	DESK	LOCK	3	[0, 0, 0]	-999	PAL1	2	R1278E
567.949	1.017	584026	PAIR_OFF	n/a	n/a	4	4	DESK	LOCK	DESK	LOCK	3	[0, 0, 0]	-999	PAL1	2	R1278E
568.966	0.266	585043	STUDY_ORIENT	n/a	n/a	5	3	DOOR	PASS	JEEP	DOOR	3	[0, 0, 0]	-999	PAL1	2	R1278E
569.232	0.701	585309	STUDY_ORIENT_OFF	n/a	n/a	5	3	DOOR	PASS	JEEP	DOOR	3	[0, 0, 0]	-999	PAL1	2	R1278E
569.933	4.0	586010	STUDY_PAIR	n/a	wordpools/wordpool_EN.txt	5	3	DOOR	PASS	JEEP	DOOR	3	[0, 0, 0]	-999	PAL1	2	R1278E
573.95	1.017	590027	PAIR_OFF	n/a	n/a	5	3	DOOR	PASS	JEEP	DOOR	3	[0, 0, 0]	-999	PAL1	2	R1278E
574.967	0.266	591044	STUDY_ORIENT	n/a	n/a	6	2	HEN	n/a	HEN	SHEEP	3	[0, 0, 0]	-999	PAL1	2	R1278E
575.233	0.568	591310	STUDY_ORIENT_OFF	n/a	n/a	6	2	HEN	n/a	HEN	SHEEP	3	[0, 0, 0]	-999	PAL1	2	R1278E
575.801	4.0	591878	STUDY_PAIR	n/a	wordpools/wordpool_EN.txt	6	2	HEN	n/a	HEN	SHEEP	3	[0, 0, 0]	-999	PAL1	2	R1278E
579.818	1.001	595895	PAIR_OFF	n/a	n/a	6	2	HEN	n/a	HEN	SHEEP	3	[0, 0, 0]	-999	PAL1	2	R1278E
580.819	0.0	596895	ENCODING_END	n/a	n/a	-999	-999	n/a	n/a	n/a	n/a	3	[0, 0, 0]	-999	PAL1	2	R1278E
580.819	0.0	596895	MATH_START	n/a	n/a	-999	-999	n/a	n/a	n/a	n/a	3	[0, 0, 0]	-999	PAL1	2	R1278E
580.819	0.016	596895	START	n/a	n/a	-999	-999	n/a	n/a	n/a	n/a	3	[-999, -999, -999]	-999	PAL1	2	R1278E
580.835	3.633	596911	PROB	3.604	n/a	-999	-999	n/a	n/a	n/a	n/a	3	[6, 3, 1]	10	PAL1	2	R1278E
584.468	4.302	600544	PROB	4.269	n/a	-999	-999	n/a	n/a	n/a	n/a	3	[8, 1, 5]	14	PAL1	2	R1278E
588.77	8.001	604846	PROB	7.969	n/a	-999	-999	n/a	n/a	n/a	n/a	3	[9, 8, 5]	22	PAL1	2	R1278E
596.771	4.001	612847	PROB	3.968	n/a	-999	-999	n/a	n/a	n/a	n/a	3	[9, 1, 5]	15	PAL1	2	R1278E
600.772	1.822	616848	PROB	1.822	n/a	-999	-999	n/a	n/a	n/a	n/a	3	[1, 3, 5]	9	PAL1	2	R1278E
602.594	0.01	618670	STOP	n/a	n/a	-999	-999	n/a	n/a	n/a	n/a	3	[-999, -999, -999]	-999	PAL1	2	R1278E
602.604	0.001	618680	MATH_END	n/a	n/a	-999	-999	n/a	n/a	n/a	n/a	3	[0, 0, 0]	-999	PAL1	2	R1278E
602.605	0.016	618681	RECALL_START	n/a	n/a	-999	-999	n/a	n/a	n/a	n/a	3	[0, 0, 0]	-999	PAL1	2	R1278E
602.621	0.251	618697	TEST_ORIENT	n/a	n/a	3	1	SPARK	SHIRT	SHIRT	SPARK	3	[0, 0, 0]	-999	PAL1	2	R1278E
602.872	0.666	618948	RETRIEVAL_ORIENT_OFF	n/a	n/a	-999	-999	n/a	n/a	n/a	n/a	3	[0, 0, 0]	-999	PAL1	2	R1278E
603.538	4.0	619614	TEST_PROBE	n/a	wordpools/wordpool_EN.txt	3	1	SPARK	SHIRT	SHIRT	SPARK	3	[0, 0, 0]	-999	PAL1	2	R1278E
603.538	1.684	619614	REC_START	n/a	n/a	3	-999	n/a	SHIRT	n/a	n/a	3	[0, 0, 0]	-999	PAL1	2	R1278E
605.222	2.333	621298	REC_EVENT	1.684	n/a	3	1	SPARK	SHIRT	SHIRT	SPARK	3	[0, 0, 0]	-999	PAL1	2	R1278E
607.555	1.0	623630	PROBE_OFF	n/a	n/a	3	-999	n/a	n/a	n/a	n/a	3	[0, 0, 0]	-999	PAL1	2	R1278E
608.555	0.017	624630	REC_END	n/a	n/a	3	-999	n/a	n/a	n/a	n/a	3	[0, 0, 0]	-999	PAL1	2	R1278E
608.572	0.268	624647	TEST_ORIENT	n/a	n/a	6	2	HEN	n/a	HEN	SHEEP	3	[0, 0, 0]	-999	PAL1	2	R1278E
608.84	0.632	624915	RETRIEVAL_ORIENT_OFF	n/a	n/a	3	-999	n/a	n/a	n/a	n/a	3	[0, 0, 0]	-999	PAL1	2	R1278E
609.472	4.0	625547	TEST_PROBE	n/a	wordpools/wordpool_EN.txt	6	2	HEN	n/a	HEN	SHEEP	3	[0, 0, 0]	-999	PAL1	2	R1278E
609.473	1.33	625548	REC_START	n/a	n/a	6	-999	n/a	n/a	n/a	n/a	3	[0, 0, 0]	-999	PAL1	2	R1278E
610.803	1.0	626878	REC_EVENT	1.33	n/a	6	2	HEN	<>	HEN	SHEEP	3	[0, 0, 0]	-999	PAL1	2	R1278E
611.803	1.0	627878	REC_EVENT	2.33	n/a	6	2	HEN	<>	HEN	SHEEP	3	[0, 0, 0]	-999	PAL1	2	R1278E
612.803	0.687	628878	REC_EVENT	3.33	n/a	6	2	HEN	<>	HEN	SHEEP	3	[0, 0, 0]	-999	PAL1	2	R1278E
613.49	0.313	629565	PROBE_OFF	n/a	n/a	6	-999	n/a	n/a	n/a	n/a	3	[0, 0, 0]	-999	PAL1	2	R1278E
613.803	0.687	629878	REC_EVENT	4.33	n/a	6	2	HEN	<>	HEN	SHEEP	3	[0, 0, 0]	-999	PAL1	2	R1278E
614.49	0.016	630565	REC_END	n/a	n/a	6	-999	n/a	n/a	n/a	n/a	3	[0, 0, 0]	-999	PAL1	2	R1278E
614.506	0.251	630581	TEST_ORIENT	n/a	n/a	5	3	DOOR	PASS	JEEP	DOOR	3	[0, 0, 0]	-999	PAL1	2	R1278E
614.757	0.7	630832	RETRIEVAL_ORIENT_OFF	n/a	n/a	6	-999	n/a	n/a	n/a	n/a	3	[0, 0, 0]	-999	PAL1	2	R1278E
615.457	0.0	631532	REC_START	n/a	n/a	5	-999	n/a	PASS	n/a	n/a	3	[0, 0, 0]	-999	PAL1	2	R1278E
615.457	4.0	631532	TEST_PROBE	n/a	wordpools/wordpool_EN.txt	5	3	DOOR	PASS	JEEP	DOOR	3	[0, 0, 0]	-999	PAL1	2	R1278E
617.998	1.476	634073	REC_EVENT	2.541	n/a	5	3	DOOR	<>	JEEP	DOOR	3	[0, 0, 0]	-999	PAL1	2	R1278E
619.474	0.218	635549	PROBE_OFF	n/a	n/a	5	-999	n/a	n/a	n/a	n/a	3	[0, 0, 0]	-999	PAL1	2	R1278E
619.692	0.782	635767	REC_EVENT	4.235	n/a	5	3	DOOR	PASS	JEEP	DOOR	3	[0, 0, 0]	-999	PAL1	2	R1278E
620.474	0.017	636549	REC_END	n/a	n/a	5	-999	n/a	n/a	n/a	n/a	3	[0, 0, 0]	-999	PAL1	2	R1278E
620.491	0.268	636566	TEST_ORIENT	n/a	n/a	4	4	DESK	LOCK	DESK	LOCK	3	[0, 0, 0]	-999	PAL1	2	R1278E
620.759	0.665	636834	RETRIEVAL_ORIENT_OFF	n/a	n/a	5	-999	n/a	n/a	n/a	n/a	3	[0, 0, 0]	-999	PAL1	2	R1278E
621.424	4.0	637499	TEST_PROBE	n/a	wordpools/wordpool_EN.txt	4	4	DESK	LOCK	DESK	LOCK	3	[0, 0, 0]	-999	PAL1	2	R1278E
621.425	1.029	637500	REC_START	n/a	n/a	4	-999	n/a	LOCK	n/a	n/a	3	[0, 0, 0]	-999	PAL1	2	R1278E
622.454	0.436	638529	REC_EVENT	1.029	n/a	4	4	DESK	<>	DESK	LOCK	3	[0, 0, 0]	-999	PAL1	2	R1278E
622.89	2.552	638965	REC_EVENT	1.465	n/a	4	4	DESK	LOCK	DESK	LOCK	3	[0, 0, 0]	-999	PAL1	2	R1278E
625.442	1.01	641517	PROBE_OFF	n/a	n/a	4	-999	n/a	n/a	n/a	n/a	3	[0, 0, 0]	-999	PAL1	2	R1278E
626.452	0.023	642527	REC_END	n/a	n/a	4	-999	n/a	n/a	n/a	n/a	3	[0, 0, 0]	-999	PAL1	2	R1278E
626.475	0.268	642550	TEST_ORIENT	n/a	n/a	1	5	DOLL	PASS	DOLL	CORD	3	[0, 0, 0]	-999	PAL1	2	R1278E
626.743	0.566	642818	RETRIEVAL_ORIENT_OFF	n/a	n/a	4	-999	n/a	n/a	n/a	n/a	3	[0, 0, 0]	-999	PAL1	2	R1278E
627.309	0.0	643384	REC_START	n/a	n/a	1	-999	n/a	PASS	n/a	n/a	3	[0, 0, 0]	-999	PAL1	2	R1278E
627.309	4.0	643384	TEST_PROBE	n/a	wordpools/wordpool_EN.txt	1	5	DOLL	PASS	DOLL	CORD	3	[0, 0, 0]	-999	PAL1	2	R1278E
630.393	0.933	646468	REC_EVENT	3.084	n/a	1	5	DOLL	PASS	DOLL	CORD	3	[0, 0, 0]	-999	PAL1	2	R1278E
631.326	1.001	647400	PROBE_OFF	n/a	n/a	1	-999	n/a	n/a	n/a	n/a	3	[0, 0, 0]	-999	PAL1	2	R1278E
632.327	0.016	648401	REC_END	n/a	n/a	1	-999	n/a	n/a	n/a	n/a	3	[0, 0, 0]	-999	PAL1	2	R1278E
632.343	0.267	648417	TEST_ORIENT	n/a	n/a	2	6	TRASH	SQUARE	SQUARE	TRASH	3	[0, 0, 0]	-999	PAL1	2	R1278E
632.61	0.633	648684	RETRIEVAL_ORIENT_OFF	n/a	n/a	1	-999	n/a	n/a	n/a	n/a	3	[0, 0, 0]	-999	PAL1	2	R1278E
633.243	4.0	649317	TEST_PROBE	n/a	wordpools/wordpool_EN.txt	2	6	TRASH	SQUARE	SQUARE	TRASH	3	[0, 0, 0]	-999	PAL1	2	R1278E
633.244	1.219	649318	REC_START	n/a	n/a	2	-999	n/a	SQUARE	n/a	n/a	3	[0, 0, 0]	-999	PAL1	2	R1278E
634.463	2.797	650537	REC_EVENT	1.219	n/a	2	6	TRASH	SQUARE	SQUARE	TRASH	3	[0, 0, 0]	-999	PAL1	2	R1278E
637.26	1.0	653334	PROBE_OFF	n/a	n/a	2	-999	n/a	n/a	n/a	n/a	3	[0, 0, 0]	-999	PAL1	2	R1278E
638.26	0.01	654334	REC_END	n/a	n/a	2	-999	n/a	n/a	n/a	n/a	3	[0, 0, 0]	-999	PAL1	2	R1278E
638.27	5.341	654344	RECALL_END	n/a	n/a	-999	-999	n/a	n/a	n/a	n/a	3	[0, 0, 0]	-999	PAL1	2	R1278E
643.611	10.928	659685	TRIAL	n/a	n/a	-999	-999	n/a	n/a	n/a	n/a	4	[0, 0, 0]	-999	PAL1	2	R1278E
654.539	0.008	670613	ENCODING_START	n/a	n/a	-999	-999	n/a	n/a	n/a	n/a	4	[0, 0, 0]	-999	PAL1	2	R1278E
654.547	0.267	670621	STUDY_ORIENT	n/a	n/a	1	1	FLAME	n/a	JAR	FLAME	4	[0, 0, 0]	-999	PAL1	2	R1278E
654.814	0.6	670888	STUDY_ORIENT_OFF	n/a	n/a	1	1	FLAME	n/a	JAR	FLAME	4	[0, 0, 0]	-999	PAL1	2	R1278E
655.414	4.0	671488	STUDY_PAIR	n/a	wordpools/wordpool_EN.txt	1	1	FLAME	n/a	JAR	FLAME	4	[0, 0, 0]	-999	PAL1	2	R1278E
659.431	1.017	675504	PAIR_OFF	n/a	n/a	1	1	FLAME	n/a	JAR	FLAME	4	[0, 0, 0]	-999	PAL1	2	R1278E
660.448	0.267	676521	STUDY_ORIENT	n/a	n/a	2	6	CANE	ICE	ICE	CANE	4	[0, 0, 0]	-999	PAL1	2	R1278E
660.715	0.55	676788	STUDY_ORIENT_OFF	n/a	n/a	2	6	CANE	ICE	ICE	CANE	4	[0, 0, 0]	-999	PAL1	2	R1278E
661.265	4.0	677338	STUDY_PAIR	n/a	wordpools/wordpool_EN.txt	2	6	CANE	ICE	ICE	CANE	4	[0, 0, 0]	-999	PAL1	2	R1278E
665.282	1.017	681355	PAIR_OFF	n/a	n/a	2	6	CANE	ICE	ICE	CANE	4	[0, 0, 0]	-999	PAL1	2	R1278E
666.299	0.267	682372	STUDY_ORIENT	n/a	n/a	3	5	BRANCH	BRICK	BRANCH	BRICK	4	[0, 0, 0]	-999	PAL1	2	R1278E
666.566	0.683	682639	STUDY_ORIENT_OFF	n/a	n/a	3	5	BRANCH	BRICK	BRANCH	BRICK	4	[0, 0, 0]	-999	PAL1	2	R1278E
667.249	4.0	683322	STUDY_PAIR	n/a	wordpools/wordpool_EN.txt	3	5	BRANCH	BRICK	BRANCH	BRICK	4	[0, 0, 0]	-999	PAL1	2	R1278E
671.266	1.017	687339	PAIR_OFF	n/a	n/a	3	5	BRANCH	BRICK	BRANCH	BRICK	4	[0, 0, 0]	-999	PAL1	2	R1278E
672.283	0.267	688356	STUDY_ORIENT	n/a	n/a	4	4	TOY	FUR	FUR	TOY	4	[0, 0, 0]	-999	PAL1	2	R1278E
672.55	0.733	688623	STUDY_ORIENT_OFF	n/a	n/a	4	4	TOY	FUR	FUR	TOY	4	[0, 0, 0]	-999	PAL1	2	R1278E
673.283	4.0	689356	STUDY_PAIR	n/a	wordpools/wordpool_EN.txt	4	4	TOY	FUR	FUR	TOY	4	[0, 0, 0]	-999	PAL1	2	R1278E
677.284	1.017	693357	PAIR_OFF	n/a	n/a	4	4	TOY	FUR	FUR	TOY	4	[0, 0, 0]	-999	PAL1	2	R1278E
678.301	0.267	694374	STUDY_ORIENT	n/a	n/a	5	3	TOOL	PASS	TRAY	TOOL	4	[0, 0, 0]	-999	PAL1	2	R1278E
678.568	0.533	694641	STUDY_ORIENT_OFF	n/a	n/a	5	3	TOOL	PASS	TRAY	TOOL	4	[0, 0, 0]	-999	PAL1	2	R1278E
679.101	4.0	695174	STUDY_PAIR	n/a	wordpools/wordpool_EN.txt	5	3	TOOL	PASS	TRAY	TOOL	4	[0, 0, 0]	-999	PAL1	2	R1278E
683.118	1.017	699190	PAIR_OFF	n/a	n/a	5	3	TOOL	PASS	TRAY	TOOL	4	[0, 0, 0]	-999	PAL1	2	R1278E
684.135	0.267	700207	STUDY_ORIENT	n/a	n/a	6	2	CRANE	PRINCE	CRANE	PRINCE	4	[0, 0, 0]	-999	PAL1	2	R1278E
684.402	0.717	700474	STUDY_ORIENT_OFF	n/a	n/a	6	2	CRANE	PRINCE	CRANE	PRINCE	4	[0, 0, 0]	-999	PAL1	2	R1278E
685.119	4.0	701191	STUDY_PAIR	n/a	wordpools/wordpool_EN.txt	6	2	CRANE	PRINCE	CRANE	PRINCE	4	[0, 0, 0]	-999	PAL1	2	R1278E
689.136	1.0	705208	PAIR_OFF	n/a	n/a	6	2	CRANE	PRINCE	CRANE	PRINCE	4	[0, 0, 0]	-999	PAL1	2	R1278E
690.136	0.0	706208	ENCODING_END	n/a	n/a	-999	-999	n/a	n/a	n/a	n/a	4	[0, 0, 0]	-999	PAL1	2	R1278E
690.136	0.001	706208	MATH_START	n/a	n/a	-999	-999	n/a	n/a	n/a	n/a	4	[0, 0, 0]	-999	PAL1	2	R1278E
690.137	0.016	706209	START	n/a	n/a	-999	-999	n/a	n/a	n/a	n/a	4	[-999, -999, -999]	-999	PAL1	2	R1278E
690.153	4.968	706225	PROB	4.934	n/a	-999	-999	n/a	n/a	n/a	n/a	4	[3, 6, 5]	14	PAL1	2	R1278E
695.121	2.417	711193	PROB	2.382	n/a	-999	-999	n/a	n/a	n/a	n/a	4	[1, 5, 2]	8	PAL1	2	R1278E
697.538	5.435	713610	PROB	5.413	n/a	-999	-999	n/a	n/a	n/a	n/a	4	[5, 4, 6]	15	PAL1	2	R1278E
702.973	2.166	719045	PROB	2.129	n/a	-999	-999	n/a	n/a	n/a	n/a	4	[5, 3, 1]	9	PAL1	2	R1278E
705.139	3.4	721211	PROB	3.371	n/a	-999	-999	n/a	n/a	n/a	n/a	4	[5, 8, 5]	18	PAL1	2	R1278E
708.539	4.85	724610	PROB	4.85	n/a	-999	-999	n/a	n/a	n/a	n/a	4	[6, 9, 2]	7	PAL1	2	R1278E
713.389	0.018	729460	STOP	n/a	n/a	-999	-999	n/a	n/a	n/a	n/a	4	[-999, -999, -999]	-999	PAL1	2	R1278E
713.407	0.0	729478	MATH_END	n/a	n/a	-999	-999	n/a	n/a	n/a	n/a	4	[0, 0, 0]	-999	PAL1	2	R1278E
713.407	0.017	729478	RECALL_START	n/a	n/a	-999	-999	n/a	n/a	n/a	n/a	4	[0, 0, 0]	-999	PAL1	2	R1278E
713.424	0.267	729495	TEST_ORIENT	n/a	n/a	1	1	FLAME	n/a	JAR	FLAME	4	[0, 0, 0]	-999	PAL1	2	R1278E
713.691	0.65	729762	RETRIEVAL_ORIENT_OFF	n/a	n/a	-999	-999	n/a	n/a	n/a	n/a	4	[0, 0, 0]	-999	PAL1	2	R1278E
714.341	4.0	730412	TEST_PROBE	n/a	wordpools/wordpool_EN.txt	1	1	FLAME	n/a	JAR	FLAME	4	[0, 0, 0]	-999	PAL1	2	R1278E
714.341	4.017	730412	REC_START	n/a	n/a	1	-999	n/a	n/a	n/a	n/a	4	[0, 0, 0]	-999	PAL1	2	R1278E
718.358	0.998	734429	PROBE_OFF	n/a	n/a	1	-999	n/a	n/a	n/a	n/a	4	[0, 0, 0]	-999	PAL1	2	R1278E
719.356	0.002	735427	REC_EVENT	5.015	n/a	1	1	FLAME	<>	JAR	FLAME	4	[0, 0, 0]	-999	PAL1	2	R1278E
719.358	0.017	735429	REC_END	n/a	n/a	1	-999	n/a	n/a	n/a	n/a	4	[0, 0, 0]	-999	PAL1	2	R1278E
719.375	0.267	735446	TEST_ORIENT	n/a	n/a	6	2	CRANE	PRINCE	CRANE	PRINCE	4	[0, 0, 0]	-999	PAL1	2	R1278E
719.642	0.633	735713	RETRIEVAL_ORIENT_OFF	n/a	n/a	1	-999	n/a	n/a	n/a	n/a	4	[0, 0, 0]	-999	PAL1	2	R1278E
720.275	4.0	736346	TEST_PROBE	n/a	wordpools/wordpool_EN.txt	6	2	CRANE	PRINCE	CRANE	PRINCE	4	[0, 0, 0]	-999	PAL1	2	R1278E
720.276	2.629	736347	REC_START	n/a	n/a	6	-999	n/a	PRINCE	n/a	n/a	4	[0, 0, 0]	-999	PAL1	2	R1278E
722.905	1.387	738976	REC_EVENT	2.629	n/a	6	2	CRANE	PRINCE	CRANE	PRINCE	4	[0, 0, 0]	-999	PAL1	2	R1278E
724.292	1.0	740363	PROBE_OFF	n/a	n/a	6	-999	n/a	n/a	n/a	n/a	4	[0, 0, 0]	-999	PAL1	2	R1278E
725.292	0.017	741363	REC_END	n/a	n/a	6	-999	n/a	n/a	n/a	n/a	4	[0, 0, 0]	-999	PAL1	2	R1278E
725.309	0.267	741380	TEST_ORIENT	n/a	n/a	5	3	TOOL	PASS	TRAY	TOOL	4	[0, 0, 0]	-999	PAL1	2	R1278E
725.576	0.517	741647	RETRIEVAL_ORIENT_OFF	n/a	n/a	6	-999	n/a	n/a	n/a	n/a	4	[0, 0, 0]	-999	PAL1	2	R1278E
726.093	4.0	742164	TEST_PROBE	n/a	wordpools/wordpool_EN.txt	5	3	TOOL	PASS	TRAY	TOOL	4	[0, 0, 0]	-999	PAL1	2	R1278E
726.093	2.424	742164	REC_START	n/a	n/a	5	-999	n/a	PASS	n/a	n/a	4	[0, 0, 0]	-999	PAL1	2	R1278E
728.517	1.593	744588	REC_EVENT	2.424	n/a	5	3	TOOL	PASS	TRAY	TOOL	4	[0, 0, 0]	-999	PAL1	2	R1278E
730.11	1.001	746181	PROBE_OFF	n/a	n/a	5	-999	n/a	n/a	n/a	n/a	4	[0, 0, 0]	-999	PAL1	2	R1278E
731.111	0.016	747182	REC_END	n/a	n/a	5	-999	n/a	n/a	n/a	n/a	4	[0, 0, 0]	-999	PAL1	2	R1278E
731.127	0.267	747198	TEST_ORIENT	n/a	n/a	4	4	TOY	FUR	FUR	TOY	4	[0, 0, 0]	-999	PAL1	2	R1278E
731.394	0.617	747465	RETRIEVAL_ORIENT_OFF	n/a	n/a	5	-999	n/a	n/a	n/a	n/a	4	[0, 0, 0]	-999	PAL1	2	R1278E
732.011	4.0	748082	TEST_PROBE	n/a	wordpools/wordpool_EN.txt	4	4	TOY	FUR	FUR	TOY	4	[0, 0, 0]	-999	PAL1	2	R1278E
732.012	1.614	748083	REC_START	n/a	n/a	4	-999	n/a	FUR	n/a	n/a	4	[0, 0, 0]	-999	PAL1	2	R1278E
733.626	2.403	749696	REC_EVENT	1.614	n/a	4	4	TOY	FUR	FUR	TOY	4	[0, 0, 0]	-999	PAL1	2	R1278E
736.029	1.009	752099	PROBE_OFF	n/a	n/a	4	-999	n/a	n/a	n/a	n/a	4	[0, 0, 0]	-999	PAL1	2	R1278E
737.038	0.023	753108	REC_END	n/a	n/a	4	-999	n/a	n/a	n/a	n/a	4	[0, 0, 0]	-999	PAL1	2	R1278E
737.061	0.267	753131	TEST_ORIENT	n/a	n/a	3	5	BRANCH	BRICK	BRANCH	BRICK	4	[0, 0, 0]	-999	PAL1	2	R1278E
737.328	0.568	753398	RETRIEVAL_ORIENT_OFF	n/a	n/a	4	-999	n/a	n/a	n/a	n/a	4	[0, 0, 0]	-999	PAL1	2	R1278E
737.896	4.0	753966	TEST_PROBE	n/a	wordpools/wordpool_EN.txt	3	5	BRANCH	BRICK	BRANCH	BRICK	4	[0, 0, 0]	-999	PAL1	2	R1278E
737.896	1.709	753966	REC_START	n/a	n/a	3	-999	n/a	BRICK	n/a	n/a	4	[0, 0, 0]	-999	PAL1	2	R1278E
739.605	2.308	755675	REC_EVENT	1.709	n/a	3	5	BRANCH	BRICK	BRANCH	BRICK	4	[0, 0, 0]	-999	PAL1	2	R1278E
741.913	1.0	757983	PROBE_OFF	n/a	n/a	3	-999	n/a	n/a	n/a	n/a	4	[0, 0, 0]	-999	PAL1	2	R1278E
742.913	0.017	758983	REC_END	n/a	n/a	3	-999	n/a	n/a	n/a	n/a	4	[0, 0, 0]	-999	PAL1	2	R1278E
742.93	0.266	759000	TEST_ORIENT	n/a	n/a	2	6	CANE	ICE	ICE	CANE	4	[0, 0, 0]	-999	PAL1	2	R1278E
743.196	0.601	759266	RETRIEVAL_ORIENT_OFF	n/a	n/a	3	-999	n/a	n/a	n/a	n/a	4	[0, 0, 0]	-999	PAL1	2	R1278E
743.797	4.0	759867	TEST_PROBE	n/a	wordpools/wordpool_EN.txt	2	6	CANE	ICE	ICE	CANE	4	[0, 0, 0]	-999	PAL1	2	R1278E
743.797	1.579	759867	REC_START	n/a	n/a	2	-999	n/a	ICE	n/a	n/a	4	[0, 0, 0]	-999	PAL1	2	R1278E
745.376	2.438	761446	REC_EVENT	1.579	n/a	2	6	CANE	ICE	ICE	CANE	4	[0, 0, 0]	-999	PAL1	2	R1278E
747.814	1.001	763884	PROBE_OFF	n/a	n/a	2	-999	n/a	n/a	n/a	n/a	4	[0, 0, 0]	-999	PAL1	2	R1278E
748.815	0.003	764885	REC_END	n/a	n/a	2	-999	n/a	n/a	n/a	n/a	4	[0, 0, 0]	-999	PAL1	2	R1278E
748.818	4.563	764888	RECALL_END	n/a	n/a	-999	-999	n/a	n/a	n/a	n/a	4	[0, 0, 0]	-999	PAL1	2	R1278E
753.381	10.929	769451	TRIAL	n/a	n/a	-999	-999	n/a	n/a	n/a	n/a	5	[0, 0, 0]	-999	PAL1	2	R1278E
764.31	0.006	780379	ENCODING_START	n/a	n/a	-999	-999	n/a	n/a	n/a	n/a	5	[0, 0, 0]	-999	PAL1	2	R1278E
764.316	0.267	780385	STUDY_ORIENT	n/a	n/a	1	5	BOARD	BRUSH	BOARD	BRUSH	5	[0, 0, 0]	-999	PAL1	2	R1278E
764.583	0.733	780652	STUDY_ORIENT_OFF	n/a	n/a	1	5	BOARD	BRUSH	BOARD	BRUSH	5	[0, 0, 0]	-999	PAL1	2	R1278E
765.316	4.0	781385	STUDY_PAIR	n/a	wordpools/wordpool_EN.txt	1	5	BOARD	BRUSH	BOARD	BRUSH	5	[0, 0, 0]	-999	PAL1	2	R1278E
769.334	1.016	785403	PAIR_OFF	n/a	n/a	1	5	BOARD	BRUSH	BOARD	BRUSH	5	[0, 0, 0]	-999	PAL1	2	R1278E
770.35	0.267	786419	STUDY_ORIENT	n/a	n/a	2	4	WALL	PASS	HOOK	WALL	5	[0, 0, 0]	-999	PAL1	2	R1278E
770.617	0.517	786686	STUDY_ORIENT_OFF	n/a	n/a	2	4	WALL	PASS	HOOK	WALL	5	[0, 0, 0]	-999	PAL1	2	R1278E
771.134	4.0	787203	STUDY_PAIR	n/a	wordpools/wordpool_EN.txt	2	4	WALL	PASS	HOOK	WALL	5	[0, 0, 0]	-999	PAL1	2	R1278E
775.151	1.017	791220	PAIR_OFF	n/a	n/a	2	4	WALL	PASS	HOOK	WALL	5	[0, 0, 0]	-999	PAL1	2	R1278E
776.168	0.267	792237	STUDY_ORIENT	n/a	n/a	3	3	CLOUD	PASS	CLOUD	CHAIR	5	[0, 0, 0]	-999	PAL1	2	R1278E
776.435	0.633	792504	STUDY_ORIENT_OFF	n/a	n/a	3	3	CLOUD	PASS	CLOUD	CHAIR	5	[0, 0, 0]	-999	PAL1	2	R1278E
777.068	4.0	793137	STUDY_PAIR	n/a	wordpools/wordpool_EN.txt	3	3	CLOUD	PASS	CLOUD	CHAIR	5	[0, 0, 0]	-999	PAL1	2	R1278E
781.086	1.016	797155	PAIR_OFF	n/a	n/a	3	3	CLOUD	PASS	CLOUD	CHAIR	5	[0, 0, 0]	-999	PAL1	2	R1278E
782.102	0.267	798171	STUDY_ORIENT	n/a	n/a	4	6	HOSE	TOE	TOE	HOSE	5	[0, 0, 0]	-999	PAL1	2	R1278E
782.369	0.551	798438	STUDY_ORIENT_OFF	n/a	n/a	4	6	HOSE	TOE	TOE	HOSE	5	[0, 0, 0]	-999	PAL1	2	R1278E
782.92	4.0	798988	STUDY_PAIR	n/a	wordpools/wordpool_EN.txt	4	6	HOSE	TOE	TOE	HOSE	5	[0, 0, 0]	-999	PAL1	2	R1278E
786.938	1.016	803006	PAIR_OFF	n/a	n/a	4	6	HOSE	TOE	TOE	HOSE	5	[0, 0, 0]	-999	PAL1	2	R1278E
787.954	0.266	804022	STUDY_ORIENT	n/a	n/a	5	1	DEER	PET	PET	DEER	5	[0, 0, 0]	-999	PAL1	2	R1278E
788.22	0.751	804288	STUDY_ORIENT_OFF	n/a	n/a	5	1	DEER	PET	PET	DEER	5	[0, 0, 0]	-999	PAL1	2	R1278E
788.971	4.0	805039	STUDY_PAIR	n/a	wordpools/wordpool_EN.txt	5	1	DEER	PET	PET	DEER	5	[0, 0, 0]	-999	PAL1	2	R1278E
792.989	1.017	809057	PAIR_OFF	n/a	n/a	5	1	DEER	PET	PET	DEER	5	[0, 0, 0]	-999	PAL1	2	R1278E
794.006	0.265	810074	STUDY_ORIENT	n/a	n/a	6	2	BEAN	HORN	HORN	BEAN	5	[0, 0, 0]	-999	PAL1	2	R1278E
794.271	0.585	810339	STUDY_ORIENT_OFF	n/a	n/a	6	2	BEAN	HORN	HORN	BEAN	5	[0, 0, 0]	-999	PAL1	2	R1278E
794.856	4.0	810924	STUDY_PAIR	n/a	wordpools/wordpool_EN.txt	6	2	BEAN	HORN	HORN	BEAN	5	[0, 0, 0]	-999	PAL1	2	R1278E
798.873	1.0	814941	PAIR_OFF	n/a	n/a	6	2	BEAN	HORN	HORN	BEAN	5	[0, 0, 0]	-999	PAL1	2	R1278E
799.873	0.0	815941	ENCODING_END	n/a	n/a	-999	-999	n/a	n/a	n/a	n/a	5	[0, 0, 0]	-999	PAL1	2	R1278E
799.873	0.001	815941	MATH_START	n/a	n/a	-999	-999	n/a	n/a	n/a	n/a	5	[0, 0, 0]	-999	PAL1	2	R1278E
799.874	0.016	815942	START	n/a	n/a	-999	-999	n/a	n/a	n/a	n/a	5	[-999, -999, -999]	-999	PAL1	2	R1278E
799.89	2.733	815958	PROB	2.698	n/a	-999	-999	n/a	n/a	n/a	n/a	5	[7, 1, 1]	9	PAL1	2	R1278E
802.623	8.369	818691	PROB	8.345	n/a	-999	-999	n/a	n/a	n/a	n/a	5	[9, 7, 8]	24	PAL1	2	R1278E
810.992	3.366	827059	PROB	3.343	n/a	-999	-999	n/a	n/a	n/a	n/a	5	[4, 7, 1]	12	PAL1	2	R1278E
814.358	4.585	830425	PROB	4.562	n/a	-999	-999	n/a	n/a	n/a	n/a	5	[2, 7, 8]	17	PAL1	2	R1278E
818.943	4.903	835010	PROB	4.903	n/a	-999	-999	n/a	n/a	n/a	n/a	5	[3, 8, 7]	18	PAL1	2	R1278E
823.846	0.015	839913	STOP	n/a	n/a	-999	-999	n/a	n/a	n/a	n/a	5	[-999, -999, -999]	-999	PAL1	2	R1278E
823.861	0.0	839928	MATH_END	n/a	n/a	-999	-999	n/a	n/a	n/a	n/a	5	[0, 0, 0]	-999	PAL1	2	R1278E
823.861	0.016	839928	RECALL_START	n/a	n/a	-999	-999	n/a	n/a	n/a	n/a	5	[0, 0, 0]	-999	PAL1	2	R1278E
823.877	0.266	839944	TEST_ORIENT	n/a	n/a	5	1	DEER	PET	PET	DEER	5	[0, 0, 0]	-999	PAL1	2	R1278E
824.143	0.568	840210	RETRIEVAL_ORIENT_OFF	n/a	n/a	-999	-999	n/a	n/a	n/a	n/a	5	[0, 0, 0]	-999	PAL1	2	R1278E
824.711	4.0	840778	TEST_PROBE	n/a	wordpools/wordpool_EN.txt	5	1	DEER	PET	PET	DEER	5	[0, 0, 0]	-999	PAL1	2	R1278E
824.712	1.419	840779	REC_START	n/a	n/a	5	-999	n/a	PET	n/a	n/a	5	[0, 0, 0]	-999	PAL1	2	R1278E
826.131	2.597	842198	REC_EVENT	1.419	n/a	5	1	DEER	PET	PET	DEER	5	[0, 0, 0]	-999	PAL1	2	R1278E
828.728	1.0	844795	PROBE_OFF	n/a	n/a	5	-999	n/a	n/a	n/a	n/a	5	[0, 0, 0]	-999	PAL1	2	R1278E
829.728	0.017	845795	REC_END	n/a	n/a	5	-999	n/a	n/a	n/a	n/a	5	[0, 0, 0]	-999	PAL1	2	R1278E
829.745	0.267	845812	TEST_ORIENT	n/a	n/a	6	2	BEAN	HORN	HORN	BEAN	5	[0, 0, 0]	-999	PAL1	2	R1278E
830.012	0.632	846079	RETRIEVAL_ORIENT_OFF	n/a	n/a	5	-999	n/a	n/a	n/a	n/a	5	[0, 0, 0]	-999	PAL1	2	R1278E
830.644	4.0	846711	TEST_PROBE	n/a	wordpools/wordpool_EN.txt	6	2	BEAN	HORN	HORN	BEAN	5	[0, 0, 0]	-999	PAL1	2	R1278E
830.645	1.134	846712	REC_START	n/a	n/a	6	-999	n/a	HORN	n/a	n/a	5	[0, 0, 0]	-999	PAL1	2	R1278E
831.779	2.883	847846	REC_EVENT	1.134	n/a	6	2	BEAN	HORN	HORN	BEAN	5	[0, 0, 0]	-999	PAL1	2	R1278E
834.662	1.0	850728	PROBE_OFF	n/a	n/a	6	-999	n/a	n/a	n/a	n/a	5	[0, 0, 0]	-999	PAL1	2	R1278E
835.662	0.017	851728	REC_END	n/a	n/a	6	-999	n/a	n/a	n/a	n/a	5	[0, 0, 0]	-999	PAL1	2	R1278E
835.679	0.267	851745	TEST_ORIENT	n/a	n/a	3	3	CLOUD	PASS	CLOUD	CHAIR	5	[0, 0, 0]	-999	PAL1	2	R1278E
835.946	0.734	852012	RETRIEVAL_ORIENT_OFF	n/a	n/a	6	-999	n/a	n/a	n/a	n/a	5	[0, 0, 0]	-999	PAL1	2	R1278E
836.68	4.0	852746	TEST_PROBE	n/a	wordpools/wordpool_EN.txt	3	3	CLOUD	PASS	CLOUD	CHAIR	5	[0, 0, 0]	-999	PAL1	2	R1278E
836.68	1.839	852746	REC_START	n/a	n/a	3	-999	n/a	PASS	n/a	n/a	5	[0, 0, 0]	-999	PAL1	2	R1278E
838.519	2.178	854585	REC_EVENT	1.839	n/a	3	3	CLOUD	PASS	CLOUD	CHAIR	5	[0, 0, 0]	-999	PAL1	2	R1278E
840.697	1.001	856763	PROBE_OFF	n/a	n/a	3	-999	n/a	n/a	n/a	n/a	5	[0, 0, 0]	-999	PAL1	2	R1278E
841.698	0.016	857764	REC_END	n/a	n/a	3	-999	n/a	n/a	n/a	n/a	5	[0, 0, 0]	-999	PAL1	2	R1278E
841.714	0.267	857780	TEST_ORIENT	n/a	n/a	2	4	WALL	PASS	HOOK	WALL	5	[0, 0, 0]	-999	PAL1	2	R1278E
841.981	0.7	858047	RETRIEVAL_ORIENT_OFF	n/a	n/a	3	-999	n/a	n/a	n/a	n/a	5	[0, 0, 0]	-999	PAL1	2	R1278E
842.681	0.0	858747	REC_START	n/a	n/a	2	-999	n/a	PASS	n/a	n/a	5	[0, 0, 0]	-999	PAL1	2	R1278E
842.681	4.0	858747	TEST_PROBE	n/a	wordpools/wordpool_EN.txt	2	4	WALL	PASS	HOOK	WALL	5	[0, 0, 0]	-999	PAL1	2	R1278E
844.57	0.47	860636	REC_EVENT	1.889	n/a	2	4	WALL	<>	HOOK	WALL	5	[0, 0, 0]	-999	PAL1	2	R1278E
845.04	1.635	861106	REC_EVENT	2.359	n/a	2	4	WALL	<>	HOOK	WALL	5	[0, 0, 0]	-999	PAL1	2	R1278E
846.675	0.023	862741	REC_EVENT	3.994	n/a	2	4	WALL	PASS	HOOK	WALL	5	[0, 0, 0]	-999	PAL1	2	R1278E
846.698	1.0	862764	PROBE_OFF	n/a	n/a	2	-999	n/a	n/a	n/a	n/a	5	[0, 0, 0]	-999	PAL1	2	R1278E
847.698	0.017	863764	REC_END	n/a	n/a	2	-999	n/a	n/a	n/a	n/a	5	[0, 0, 0]	-999	PAL1	2	R1278E
847.715	0.267	863781	TEST_ORIENT	n/a	n/a	1	5	BOARD	BRUSH	BOARD	BRUSH	5	[0, 0, 0]	-999	PAL1	2	R1278E
847.982	0.75	864048	RETRIEVAL_ORIENT_OFF	n/a	n/a	2	-999	n/a	n/a	n/a	n/a	5	[0, 0, 0]	-999	PAL1	2	R1278E
848.732	4.0	864798	TEST_PROBE	n/a	wordpools/wordpool_EN.txt	1	5	BOARD	BRUSH	BOARD	BRUSH	5	[0, 0, 0]	-999	PAL1	2	R1278E
848.732	2.399	864798	REC_START	n/a	n/a	1	-999	n/a	BRUSH	n/a	n/a	5	[0, 0, 0]	-999	PAL1	2	R1278E
851.131	1.618	867197	REC_EVENT	2.399	n/a	1	5	BOARD	BRUSH	BOARD	BRUSH	5	[0, 0, 0]	-999	PAL1	2	R1278E
852.749	1.001	868815	PROBE_OFF	n/a	n/a	1	-999	n/a	n/a	n/a	n/a	5	[0, 0, 0]	-999	PAL1	2	R1278E
853.75	0.016	869816	REC_END	n/a	n/a	1	-999	n/a	n/a	n/a	n/a	5	[0, 0, 0]	-999	PAL1	2	R1278E
853.766	0.267	869832	TEST_ORIENT	n/a	n/a	4	6	HOSE	TOE	TOE	HOSE	5	[0, 0, 0]	-999	PAL1	2	R1278E
854.033	0.565	870099	RETRIEVAL_ORIENT_OFF	n/a	n/a	1	-999	n/a	n/a	n/a	n/a	5	[0, 0, 0]	-999	PAL1	2	R1278E
854.598	4.0	870664	TEST_PROBE	n/a	wordpools/wordpool_EN.txt	4	6	HOSE	TOE	TOE	HOSE	5	[0, 0, 0]	-999	PAL1	2	R1278E
854.599	0.954	870665	REC_START	n/a	n/a	4	-999	n/a	TOE	n/a	n/a	5	[0, 0, 0]	-999	PAL1	2	R1278E
855.553	3.046	871619	REC_EVENT	0.954	n/a	4	6	HOSE	TOE	TOE	HOSE	5	[0, 0, 0]	-999	PAL1	2	R1278E
858.599	1.0	874664	PROBE_OFF	n/a	n/a	4	-999	n/a	n/a	n/a	n/a	5	[0, 0, 0]	-999	PAL1	2	R1278E
859.599	0.009	875664	REC_END	n/a	n/a	4	-999	n/a	n/a	n/a	n/a	5	[0, 0, 0]	-999	PAL1	2	R1278E
859.608	4.709	875673	RECALL_END	n/a	n/a	-999	-999	n/a	n/a	n/a	n/a	5	[0, 0, 0]	-999	PAL1	2	R1278E
864.317	10.929	880382	TRIAL	n/a	n/a	-999	-999	n/a	n/a	n/a	n/a	6	[0, 0, 0]	-999	PAL1	2	R1278E
875.246	0.006	891311	ENCODING_START	n/a	n/a	-999	-999	n/a	n/a	n/a	n/a	6	[0, 0, 0]	-999	PAL1	2	R1278E
875.252	0.267	891317	STUDY_ORIENT	n/a	n/a	1	3	CHIEF	PASS	RICE	CHIEF	6	[0, 0, 0]	-999	PAL1	2	R1278E
875.519	0.55	891584	STUDY_ORIENT_OFF	n/a	n/a	1	3	CHIEF	PASS	RICE	CHIEF	6	[0, 0, 0]	-999	PAL1	2	R1278E
876.069	4.0	892134	STUDY_PAIR	n/a	wordpools/wordpool_EN.txt	1	3	CHIEF	PASS	RICE	CHIEF	6	[0, 0, 0]	-999	PAL1	2	R1278E
880.086	1.017	896151	PAIR_OFF	n/a	n/a	1	3	CHIEF	PASS	RICE	CHIEF	6	[0, 0, 0]	-999	PAL1	2	R1278E
881.103	0.267	897168	STUDY_ORIENT	n/a	n/a	2	2	TEETH	n/a	TEETH	STORE	6	[0, 0, 0]	-999	PAL1	2	R1278E
881.37	0.634	897435	STUDY_ORIENT_OFF	n/a	n/a	2	2	TEETH	n/a	TEETH	STORE	6	[0, 0, 0]	-999	PAL1	2	R1278E
882.004	4.0	898069	STUDY_PAIR	n/a	wordpools/wordpool_EN.txt	2	2	TEETH	n/a	TEETH	STORE	6	[0, 0, 0]	-999	PAL1	2	R1278E
886.022	1.015	902086	PAIR_OFF	n/a	n/a	2	2	TEETH	n/a	TEETH	STORE	6	[0, 0, 0]	-999	PAL1	2	R1278E
887.037	0.267	903101	STUDY_ORIENT	n/a	n/a	3	5	PASTE	PASS	PASTE	PEACH	6	[0, 0, 0]	-999	PAL1	2	R1278E
887.304	0.651	903368	STUDY_ORIENT_OFF	n/a	n/a	3	5	PASTE	PASS	PASTE	PEACH	6	[0, 0, 0]	-999	PAL1	2	R1278E
887.955	4.0	904019	STUDY_PAIR	n/a	wordpools/wordpool_EN.txt	3	5	PASTE	PASS	PASTE	PEACH	6	[0, 0, 0]	-999	PAL1	2	R1278E
891.973	1.017	908037	PAIR_OFF	n/a	n/a	3	5	PASTE	PASS	PASTE	PEACH	6	[0, 0, 0]	-999	PAL1	2	R1278E
892.99	0.265	909054	STUDY_ORIENT	n/a	n/a	4	4	NAIL	n/a	NAIL	MOLE	6	[0, 0, 0]	-999	PAL1	2	R1278E
893.255	0.601	909319	STUDY_ORIENT_OFF	n/a	n/a	4	4	NAIL	n/a	NAIL	MOLE	6	[0, 0, 0]	-999	PAL1	2	R1278E
893.856	4.0	909920	STUDY_PAIR	n/a	wordpools/wordpool_EN.txt	4	4	NAIL	n/a	NAIL	MOLE	6	[0, 0, 0]	-999	PAL1	2	R1278E
897.874	1.016	913938	PAIR_OFF	n/a	n/a	4	4	NAIL	n/a	NAIL	MOLE	6	[0, 0, 0]	-999	PAL1	2	R1278E
898.89	0.266	914954	STUDY_ORIENT	n/a	n/a	5	1	SHEET	PASS	WORM	SHEET	6	[0, 0, 0]	-999	PAL1	2	R1278E
899.156	0.701	915220	STUDY_ORIENT_OFF	n/a	n/a	5	1	SHEET	PASS	WORM	SHEET	6	[0, 0, 0]	-999	PAL1	2	R1278E
899.857	4.0	915921	STUDY_PAIR	n/a	wordpools/wordpool_EN.txt	5	1	SHEET	PASS	WORM	SHEET	6	[0, 0, 0]	-999	PAL1	2	R1278E
903.875	1.017	919939	PAIR_OFF	n/a	n/a	5	1	SHEET	PASS	WORM	SHEET	6	[0, 0, 0]	-999	PAL1	2	R1278E
904.892	0.265	920956	STUDY_ORIENT	n/a	n/a	6	6	FLEA	LEAF	FLEA	LEAF	6	[0, 0, 0]	-999	PAL1	2	R1278E
905.157	0.685	921221	STUDY_ORIENT_OFF	n/a	n/a	6	6	FLEA	LEAF	FLEA	LEAF	6	[0, 0, 0]	-999	PAL1	2	R1278E
905.842	4.0	921906	STUDY_PAIR	n/a	wordpools/wordpool_EN.txt	6	6	FLEA	LEAF	FLEA	LEAF	6	[0, 0, 0]	-999	PAL1	2	R1278E
909.859	1.001	925922	PAIR_OFF	n/a	n/a	6	6	FLEA	LEAF	FLEA	LEAF	6	[0, 0, 0]	-999	PAL1	2	R1278E
910.86	0.0	926923	ENCODING_END	n/a	n/a	-999	-999	n/a	n/a	n/a	n/a	6	[0, 0, 0]	-999	PAL1	2	R1278E
910.86	0.0	926923	MATH_START	n/a	n/a	-999	-999	n/a	n/a	n/a	n/a	6	[0, 0, 0]	-999	PAL1	2	R1278E
910.86	0.016	926923	START	n/a	n/a	-999	-999	n/a	n/a	n/a	n/a	6	[-999, -999, -999]	-999	PAL1	2	R1278E
910.876	2.666	926939	PROB	2.634	n/a	-999	-999	n/a	n/a	n/a	n/a	6	[5, 2, 5]	12	PAL1	2	R1278E
913.542	5.469	929605	PROB	5.441	n/a	-999	-999	n/a	n/a	n/a	n/a	6	[7, 9, 3]	19	PAL1	2	R1278E
919.011	5.633	935074	PROB	5.599	n/a	-999	-999	n/a	n/a	n/a	n/a	6	[6, 7, 5]	18	PAL1	2	R1278E
924.644	5.984	940707	PROB	5.959	n/a	-999	-999	n/a	n/a	n/a	n/a	6	[5, 7, 6]	18	PAL1	2	R1278E
930.628	2.695	946691	PROB	2.695	n/a	-999	-999	n/a	n/a	n/a	n/a	6	[5, 7, 6]	18	PAL1	2	R1278E
933.323	0.006	949386	STOP	n/a	n/a	-999	-999	n/a	n/a	n/a	n/a	6	[-999, -999, -999]	-999	PAL1	2	R1278E
933.329	0.0	949392	MATH_END	n/a	n/a	-999	-999	n/a	n/a	n/a	n/a	6	[0, 0, 0]	-999	PAL1	2	R1278E
933.329	0.017	949392	RECALL_START	n/a	n/a	-999	-999	n/a	n/a	n/a	n/a	6	[0, 0, 0]	-999	PAL1	2	R1278E
933.346	0.266	949409	TEST_ORIENT	n/a	n/a	5	1	SHEET	PASS	WORM	SHEET	6	[0, 0, 0]	-999	PAL1	2	R1278E
933.612	0.684	949675	RETRIEVAL_ORIENT_OFF	n/a	n/a	-999	-999	n/a	n/a	n/a	n/a	6	[0, 0, 0]	-999	PAL1	2	R1278E
934.296	4.0	950358	TEST_PROBE	n/a	wordpools/wordpool_EN.txt	5	1	SHEET	PASS	WORM	SHEET	6	[0, 0, 0]	-999	PAL1	2	R1278E
934.296	3.29	950358	REC_START	n/a	n/a	5	-999	n/a	PASS	n/a	n/a	6	[0, 0, 0]	-999	PAL1	2	R1278E
937.586	0.475	953648	REC_EVENT	3.29	n/a	5	1	SHEET	<>	WORM	SHEET	6	[0, 0, 0]	-999	PAL1	2	R1278E
938.061	0.252	954123	REC_EVENT	3.765	n/a	5	1	SHEET	PASS	WORM	SHEET	6	[0, 0, 0]	-999	PAL1	2	R1278E
938.313	1.0	954375	PROBE_OFF	n/a	n/a	5	-999	n/a	n/a	n/a	n/a	6	[0, 0, 0]	-999	PAL1	2	R1278E
939.313	0.017	955375	REC_END	n/a	n/a	5	-999	n/a	n/a	n/a	n/a	6	[0, 0, 0]	-999	PAL1	2	R1278E
939.33	0.267	955392	TEST_ORIENT	n/a	n/a	2	2	TEETH	n/a	TEETH	STORE	6	[0, 0, 0]	-999	PAL1	2	R1278E
939.597	0.533	955659	RETRIEVAL_ORIENT_OFF	n/a	n/a	5	-999	n/a	n/a	n/a	n/a	6	[0, 0, 0]	-999	PAL1	2	R1278E
940.13	4.0	956192	TEST_PROBE	n/a	wordpools/wordpool_EN.txt	2	2	TEETH	n/a	TEETH	STORE	6	[0, 0, 0]	-999	PAL1	2	R1278E
940.131	1.784	956193	REC_START	n/a	n/a	2	-999	n/a	n/a	n/a	n/a	6	[0, 0, 0]	-999	PAL1	2	R1278E
941.915	1.305	957977	REC_EVENT	1.784	n/a	2	2	TEETH	<>	TEETH	STORE	6	[0, 0, 0]	-999	PAL1	2	R1278E
943.22	0.635	959282	REC_EVENT	3.089	n/a	2	2	TEETH	<>	TEETH	STORE	6	[0, 0, 0]	-999	PAL1	2	R1278E
943.855	0.292	959917	REC_EVENT	3.724	n/a	2	2	TEETH	<>	TEETH	STORE	6	[0, 0, 0]	-999	PAL1	2	R1278E
944.147	1.0	960209	PROBE_OFF	n/a	n/a	2	-999	n/a	n/a	n/a	n/a	6	[0, 0, 0]	-999	PAL1	2	R1278E
945.147	0.017	961209	REC_END	n/a	n/a	2	-999	n/a	n/a	n/a	n/a	6	[0, 0, 0]	-999	PAL1	2	R1278E
945.164	0.267	961226	TEST_ORIENT	n/a	n/a	1	3	CHIEF	PASS	RICE	CHIEF	6	[0, 0, 0]	-999	PAL1	2	R1278E
945.431	0.75	961493	RETRIEVAL_ORIENT_OFF	n/a	n/a	2	-999	n/a	n/a	n/a	n/a	6	[0, 0, 0]	-999	PAL1	2	R1278E
946.181	4.0	962243	TEST_PROBE	n/a	wordpools/wordpool_EN.txt	1	3	CHIEF	PASS	RICE	CHIEF	6	[0, 0, 0]	-999	PAL1	2	R1278E
946.182	2.759	962244	REC_START	n/a	n/a	1	-999	n/a	PASS	n/a	n/a	6	[0, 0, 0]	-999	PAL1	2	R1278E
948.941	1.258	965003	REC_EVENT	2.759	n/a	1	3	CHIEF	PASS	RICE	CHIEF	6	[0, 0, 0]	-999	PAL1	2	R1278E
950.199	1.01	966261	PROBE_OFF	n/a	n/a	1	-999	n/a	n/a	n/a	n/a	6	[0, 0, 0]	-999	PAL1	2	R1278E
951.209	0.023	967271	REC_END	n/a	n/a	1	-999	n/a	n/a	n/a	n/a	6	[0, 0, 0]	-999	PAL1	2	R1278E
951.232	0.267	967294	TEST_ORIENT	n/a	n/a	4	4	NAIL	n/a	NAIL	MOLE	6	[0, 0, 0]	-999	PAL1	2	R1278E
951.499	0.517	967561	RETRIEVAL_ORIENT_OFF	n/a	n/a	1	-999	n/a	n/a	n/a	n/a	6	[0, 0, 0]	-999	PAL1	2	R1278E
952.016	4.0	968078	TEST_PROBE	n/a	wordpools/wordpool_EN.txt	4	4	NAIL	n/a	NAIL	MOLE	6	[0, 0, 0]	-999	PAL1	2	R1278E
952.017	4.017	968079	REC_START	n/a	n/a	4	-999	n/a	n/a	n/a	n/a	6	[0, 0, 0]	-999	PAL1	2	R1278E
956.034	1.0	972096	PROBE_OFF	n/a	n/a	4	-999	n/a	n/a	n/a	n/a	6	[0, 0, 0]	-999	PAL1	2	R1278E
957.034	0.004	973096	REC_END	n/a	n/a	4	-999	n/a	n/a	n/a	n/a	6	[0, 0, 0]	-999	PAL1	2	R1278E
957.038	0.012	973100	REC_EVENT	5.021	n/a	4	4	NAIL	<>	NAIL	MOLE	6	[0, 0, 0]	-999	PAL1	2	R1278E
957.05	0.266	973112	TEST_ORIENT	n/a	n/a	3	5	PASTE	PASS	PASTE	PEACH	6	[0, 0, 0]	-999	PAL1	2	R1278E
957.316	0.551	973378	RETRIEVAL_ORIENT_OFF	n/a	n/a	4	-999	n/a	n/a	n/a	n/a	6	[0, 0, 0]	-999	PAL1	2	R1278E
957.867	4.0	973929	TEST_PROBE	n/a	wordpools/wordpool_EN.txt	3	5	PASTE	PASS	PASTE	PEACH	6	[0, 0, 0]	-999	PAL1	2	R1278E
957.868	2.704	973930	REC_START	n/a	n/a	3	-999	n/a	PASS	n/a	n/a	6	[0, 0, 0]	-999	PAL1	2	R1278E
960.572	1.313	976633	REC_EVENT	2.704	n/a	3	5	PASTE	PASS	PASTE	PEACH	6	[0, 0, 0]	-999	PAL1	2	R1278E
961.885	1.0	977946	PROBE_OFF	n/a	n/a	3	-999	n/a	n/a	n/a	n/a	6	[0, 0, 0]	-999	PAL1	2	R1278E
962.885	0.017	978946	REC_END	n/a	n/a	3	-999	n/a	n/a	n/a	n/a	6	[0, 0, 0]	-999	PAL1	2	R1278E
962.902	0.265	978963	TEST_ORIENT	n/a	n/a	6	6	FLEA	LEAF	FLEA	LEAF	6	[0, 0, 0]	-999	PAL1	2	R1278E
963.167	0.551	979228	RETRIEVAL_ORIENT_OFF	n/a	n/a	3	-999	n/a	n/a	n/a	n/a	6	[0, 0, 0]	-999	PAL1	2	R1278E
963.718	4.0	979779	TEST_PROBE	n/a	wordpools/wordpool_EN.txt	6	6	FLEA	LEAF	FLEA	LEAF	6	[0, 0, 0]	-999	PAL1	2	R1278E
963.719	2.534	979780	REC_START	n/a	n/a	6	-999	n/a	LEAF	n/a	n/a	6	[0, 0, 0]	-999	PAL1	2	R1278E
966.253	1.483	982314	REC_EVENT	2.534	n/a	6	6	FLEA	LEAF	FLEA	LEAF	6	[0, 0, 0]	-999	PAL1	2	R1278E
967.736	1.0	983797	PROBE_OFF	n/a	n/a	6	-999	n/a	n/a	n/a	n/a	6	[0, 0, 0]	-999	PAL1	2	R1278E
968.736	0.01	984797	REC_END	n/a	n/a	6	-999	n/a	n/a	n/a	n/a	6	[0, 0, 0]	-999	PAL1	2	R1278E
968.746	6.008	984807	RECALL_END	n/a	n/a	-999	-999	n/a	n/a	n/a	n/a	6	[0, 0, 0]	-999	PAL1	2	R1278E
974.754	10.928	990815	TRIAL	n/a	n/a	-999	-999	n/a	n/a	n/a	n/a	7	[0, 0, 0]	-999	PAL1	2	R1278E
985.682	0.007	1001742	ENCODING_START	n/a	n/a	-999	-999	n/a	n/a	n/a	n/a	7	[0, 0, 0]	-999	PAL1	2	R1278E
985.689	0.267	1001749	STUDY_ORIENT	n/a	n/a	1	1	SKI	CROWN	CROWN	SKI	7	[0, 0, 0]	-999	PAL1	2	R1278E
985.956	0.649	1002016	STUDY_ORIENT_OFF	n/a	n/a	1	1	SKI	CROWN	CROWN	SKI	7	[0, 0, 0]	-999	PAL1	2	R1278E
986.605	4.0	1002665	STUDY_PAIR	n/a	wordpools/wordpool_EN.txt	1	1	SKI	CROWN	CROWN	SKI	7	[0, 0, 0]	-999	PAL1	2	R1278E
990.622	1.017	1006682	PAIR_OFF	n/a	n/a	1	1	SKI	CROWN	CROWN	SKI	7	[0, 0, 0]	-999	PAL1	2	R1278E
991.639	0.268	1007699	STUDY_ORIENT	n/a	n/a	2	4	CHALK	BOOT	CHALK	BOOT	7	[0, 0, 0]	-999	PAL1	2	R1278E
991.907	0.767	1007967	STUDY_ORIENT_OFF	n/a	n/a	2	4	CHALK	BOOT	CHALK	BOOT	7	[0, 0, 0]	-999	PAL1	2	R1278E
992.674	4.0	1008734	STUDY_PAIR	n/a	wordpools/wordpool_EN.txt	2	4	CHALK	BOOT	CHALK	BOOT	7	[0, 0, 0]	-999	PAL1	2	R1278E
996.691	1.017	1012751	PAIR_OFF	n/a	n/a	2	4	CHALK	BOOT	CHALK	BOOT	7	[0, 0, 0]	-999	PAL1	2	R1278E
997.708	0.267	1013768	STUDY_ORIENT	n/a	n/a	3	5	STAIR	PASS	SPOON	STAIR	7	[0, 0, 0]	-999	PAL1	2	R1278E
997.975	0.565	1014035	STUDY_ORIENT_OFF	n/a	n/a	3	5	STAIR	PASS	SPOON	STAIR	7	[0, 0, 0]	-999	PAL1	2	R1278E
998.54	4.0	1014600	STUDY_PAIR	n/a	wordpools/wordpool_EN.txt	3	5	STAIR	PASS	SPOON	STAIR	7	[0, 0, 0]	-999	PAL1	2	R1278E
1002.558	1.017	1018618	PAIR_OFF	n/a	n/a	3	5	STAIR	PASS	SPOON	STAIR	7	[0, 0, 0]	-999	PAL1	2	R1278E
1003.575	0.267	1019635	STUDY_ORIENT	n/a	n/a	4	2	BOMB	POND	BOMB	POND	7	[0, 0, 0]	-999	PAL1	2	R1278E
1003.842	0.583	1019902	STUDY_ORIENT_OFF	n/a	n/a	4	2	BOMB	POND	BOMB	POND	7	[0, 0, 0]	-999	PAL1	2	R1278E
1004.425	4.0	1020485	STUDY_PAIR	n/a	wordpools/wordpool_EN.txt	4	2	BOMB	POND	BOMB	POND	7	[0, 0, 0]	-999	PAL1	2	R1278E
1008.442	1.017	1024502	PAIR_OFF	n/a	n/a	4	2	BOMB	POND	BOMB	POND	7	[0, 0, 0]	-999	PAL1	2	R1278E
1009.459	0.268	1025519	STUDY_ORIENT	n/a	n/a	5	3	GATE	PASS	FENCE	GATE	7	[0, 0, 0]	-999	PAL1	2	R1278E
1009.727	0.549	1025787	STUDY_ORIENT_OFF	n/a	n/a	5	3	GATE	PASS	FENCE	GATE	7	[0, 0, 0]	-999	PAL1	2	R1278E
1010.276	4.0	1026335	STUDY_PAIR	n/a	wordpools/wordpool_EN.txt	5	3	GATE	PASS	FENCE	GATE	7	[0, 0, 0]	-999	PAL1	2	R1278E
1014.293	1.017	1030352	PAIR_OFF	n/a	n/a	5	3	GATE	PASS	FENCE	GATE	7	[0, 0, 0]	-999	PAL1	2	R1278E
1015.31	0.267	1031369	STUDY_ORIENT	n/a	n/a	6	6	ROOF	HAT	HAT	ROOF	7	[0, 0, 0]	-999	PAL1	2	R1278E
1015.577	0.75	1031636	STUDY_ORIENT_OFF	n/a	n/a	6	6	ROOF	HAT	HAT	ROOF	7	[0, 0, 0]	-999	PAL1	2	R1278E
1016.327	4.0	1032386	STUDY_PAIR	n/a	wordpools/wordpool_EN.txt	6	6	ROOF	HAT	HAT	ROOF	7	[0, 0, 0]	-999	PAL1	2	R1278E
1020.344	1.0	1036403	PAIR_OFF	n/a	n/a	6	6	ROOF	HAT	HAT	ROOF	7	[0, 0, 0]	-999	PAL1	2	R1278E
1021.344	0.0	1037403	MATH_START	n/a	n/a	-999	-999	n/a	n/a	n/a	n/a	7	[0, 0, 0]	-999	PAL1	2	R1278E
1021.344	0.001	1037403	ENCODING_END	n/a	n/a	-999	-999	n/a	n/a	n/a	n/a	7	[0, 0, 0]	-999	PAL1	2	R1278E
1021.345	0.016	1037404	START	n/a	n/a	-999	-999	n/a	n/a	n/a	n/a	7	[-999, -999, -999]	-999	PAL1	2	R1278E
1021.361	5.319	1037420	PROB	5.294	n/a	-999	-999	n/a	n/a	n/a	n/a	7	[3, 6, 3]	12	PAL1	2	R1278E
1026.68	8.268	1042739	PROB	8.241	n/a	-999	-999	n/a	n/a	n/a	n/a	7	[9, 8, 6]	23	PAL1	2	R1278E
1034.948	4.716	1051007	PROB	4.683	n/a	-999	-999	n/a	n/a	n/a	n/a	7	[9, 2, 9]	20	PAL1	2	R1278E
1039.664	2.471	1055722	PROB	2.471	n/a	-999	-999	n/a	n/a	n/a	n/a	7	[4, 1, 1]	6	PAL1	2	R1278E
1042.135	0.013	1058193	STOP	n/a	n/a	-999	-999	n/a	n/a	n/a	n/a	7	[-999, -999, -999]	-999	PAL1	2	R1278E
1042.148	0.0	1058206	MATH_END	n/a	n/a	-999	-999	n/a	n/a	n/a	n/a	7	[0, 0, 0]	-999	PAL1	2	R1278E
1042.148	0.017	1058206	RECALL_START	n/a	n/a	-999	-999	n/a	n/a	n/a	n/a	7	[0, 0, 0]	-999	PAL1	2	R1278E
1042.165	0.266	1058223	TEST_ORIENT	n/a	n/a	1	1	SKI	CROWN	CROWN	SKI	7	[0, 0, 0]	-999	PAL1	2	R1278E
1042.431	0.518	1058489	RETRIEVAL_ORIENT_OFF	n/a	n/a	-999	-999	n/a	n/a	n/a	n/a	7	[0, 0, 0]	-999	PAL1	2	R1278E
1042.949	4.0	1059007	TEST_PROBE	n/a	wordpools/wordpool_EN.txt	1	1	SKI	CROWN	CROWN	SKI	7	[0, 0, 0]	-999	PAL1	2	R1278E
1042.95	0.019	1059008	REC_START	n/a	n/a	1	-999	n/a	CROWN	n/a	n/a	7	[0, 0, 0]	-999	PAL1	2	R1278E
1042.969	0.535	1059027	REC_EVENT	0.019	n/a	1	1	SKI	<>	CROWN	SKI	7	[0, 0, 0]	-999	PAL1	2	R1278E
1043.504	0.945	1059562	REC_EVENT	0.554	n/a	1	1	SKI	<>	CROWN	SKI	7	[0, 0, 0]	-999	PAL1	2	R1278E
1044.449	2.517	1060507	REC_EVENT	1.499	n/a	1	1	SKI	CROWN	CROWN	SKI	7	[0, 0, 0]	-999	PAL1	2	R1278E
1046.966	1.0	1063024	PROBE_OFF	n/a	n/a	1	-999	n/a	n/a	n/a	n/a	7	[0, 0, 0]	-999	PAL1	2	R1278E
1047.966	0.017	1064024	REC_END	n/a	n/a	1	-999	n/a	n/a	n/a	n/a	7	[0, 0, 0]	-999	PAL1	2	R1278E
1047.983	0.266	1064041	TEST_ORIENT	n/a	n/a	4	2	BOMB	POND	BOMB	POND	7	[0, 0, 0]	-999	PAL1	2	R1278E
1048.249	0.601	1064307	RETRIEVAL_ORIENT_OFF	n/a	n/a	1	-999	n/a	n/a	n/a	n/a	7	[0, 0, 0]	-999	PAL1	2	R1278E
1048.85	4.0	1064908	TEST_PROBE	n/a	wordpools/wordpool_EN.txt	4	2	BOMB	POND	BOMB	POND	7	[0, 0, 0]	-999	PAL1	2	R1278E
1048.851	1.384	1064909	REC_START	n/a	n/a	4	-999	n/a	POND	n/a	n/a	7	[0, 0, 0]	-999	PAL1	2	R1278E
1050.235	2.632	1066293	REC_EVENT	1.384	n/a	4	2	BOMB	POND	BOMB	POND	7	[0, 0, 0]	-999	PAL1	2	R1278E
1052.867	1.001	1068925	PROBE_OFF	n/a	n/a	4	-999	n/a	n/a	n/a	n/a	7	[0, 0, 0]	-999	PAL1	2	R1278E
1053.868	0.016	1069926	REC_END	n/a	n/a	4	-999	n/a	n/a	n/a	n/a	7	[0, 0, 0]	-999	PAL1	2	R1278E
1053.884	0.266	1069942	TEST_ORIENT	n/a	n/a	5	3	GATE	PASS	FENCE	GATE	7	[0, 0, 0]	-999	PAL1	2	R1278E
1054.15	0.735	1070208	RETRIEVAL_ORIENT_OFF	n/a	n/a	4	-999	n/a	n/a	n/a	n/a	7	[0, 0, 0]	-999	PAL1	2	R1278E
1054.885	4.0	1070943	TEST_PROBE	n/a	wordpools/wordpool_EN.txt	5	3	GATE	PASS	FENCE	GATE	7	[0, 0, 0]	-999	PAL1	2	R1278E
1054.885	2.429	1070943	REC_START	n/a	n/a	5	-999	n/a	PASS	n/a	n/a	7	[0, 0, 0]	-999	PAL1	2	R1278E
1057.314	1.588	1073372	REC_EVENT	2.429	n/a	5	3	GATE	PASS	FENCE	GATE	7	[0, 0, 0]	-999	PAL1	2	R1278E
1058.902	1.0	1074960	PROBE_OFF	n/a	n/a	5	-999	n/a	n/a	n/a	n/a	7	[0, 0, 0]	-999	PAL1	2	R1278E
1059.902	0.017	1075960	REC_END	n/a	n/a	5	-999	n/a	n/a	n/a	n/a	7	[0, 0, 0]	-999	PAL1	2	R1278E
1059.919	0.265	1075977	TEST_ORIENT	n/a	n/a	2	4	CHALK	BOOT	CHALK	BOOT	7	[0, 0, 0]	-999	PAL1	2	R1278E
1060.184	0.585	1076242	RETRIEVAL_ORIENT_OFF	n/a	n/a	5	-999	n/a	n/a	n/a	n/a	7	[0, 0, 0]	-999	PAL1	2	R1278E
1060.769	4.0	1076826	TEST_PROBE	n/a	wordpools/wordpool_EN.txt	2	4	CHALK	BOOT	CHALK	BOOT	7	[0, 0, 0]	-999	PAL1	2	R1278E
1060.769	1.729	1076826	REC_START	n/a	n/a	2	-999	n/a	BOOT	n/a	n/a	7	[0, 0, 0]	-999	PAL1	2	R1278E
1062.498	2.288	1078555	REC_EVENT	1.729	n/a	2	4	CHALK	BOOT	CHALK	BOOT	7	[0, 0, 0]	-999	PAL1	2	R1278E
1064.786	1.001	1080843	PROBE_OFF	n/a	n/a	2	-999	n/a	n/a	n/a	n/a	7	[0, 0, 0]	-999	PAL1	2	R1278E
1065.787	0.016	1081844	REC_END	n/a	n/a	2	-999	n/a	n/a	n/a	n/a	7	[0, 0, 0]	-999	PAL1	2	R1278E
1065.803	0.266	1081860	TEST_ORIENT	n/a	n/a	3	5	STAIR	PASS	SPOON	STAIR	7	[0, 0, 0]	-999	PAL1	2	R1278E
1066.069	0.684	1082126	RETRIEVAL_ORIENT_OFF	n/a	n/a	2	-999	n/a	n/a	n/a	n/a	7	[0, 0, 0]	-999	PAL1	2	R1278E
1066.753	4.0	1082810	TEST_PROBE	n/a	wordpools/wordpool_EN.txt	3	5	STAIR	PASS	SPOON	STAIR	7	[0, 0, 0]	-999	PAL1	2	R1278E
1066.754	2.059	1082811	REC_START	n/a	n/a	3	-999	n/a	PASS	n/a	n/a	7	[0, 0, 0]	-999	PAL1	2	R1278E
1068.813	1.958	1084870	REC_EVENT	2.059	n/a	3	5	STAIR	PASS	SPOON	STAIR	7	[0, 0, 0]	-999	PAL1	2	R1278E
1070.771	1.01	1086828	PROBE_OFF	n/a	n/a	3	-999	n/a	n/a	n/a	n/a	7	[0, 0, 0]	-999	PAL1	2	R1278E
1071.781	0.023	1087838	REC_END	n/a	n/a	3	-999	n/a	n/a	n/a	n/a	7	[0, 0, 0]	-999	PAL1	2	R1278E
1071.804	0.266	1087861	TEST_ORIENT	n/a	n/a	6	6	ROOF	HAT	HAT	ROOF	7	[0, 0, 0]	-999	PAL1	2	R1278E
1072.07	0.734	1088127	RETRIEVAL_ORIENT_OFF	n/a	n/a	3	-999	n/a	n/a	n/a	n/a	7	[0, 0, 0]	-999	PAL1	2	R1278E
1072.804	4.0	1088861	TEST_PROBE	n/a	wordpools/wordpool_EN.txt	6	6	ROOF	HAT	HAT	ROOF	7	[0, 0, 0]	-999	PAL1	2	R1278E
1072.805	1.614	1088862	REC_START	n/a	n/a	6	-999	n/a	HAT	n/a	n/a	7	[0, 0, 0]	-999	PAL1	2	R1278E
1074.419	2.403	1090476	REC_EVENT	1.614	n/a	6	6	ROOF	HAT	HAT	ROOF	7	[0, 0, 0]	-999	PAL1	2	R1278E
1076.822	1.0	1092879	PROBE_OFF	n/a	n/a	6	-999	n/a	n/a	n/a	n/a	7	[0, 0, 0]	-999	PAL1	2	R1278E
1077.822	0.009	1093879	REC_END	n/a	n/a	6	-999	n/a	n/a	n/a	n/a	7	[0, 0, 0]	-999	PAL1	2	R1278E
1077.831	5.025	1093888	RECALL_END	n/a	n/a	-999	-999	n/a	n/a	n/a	n/a	7	[0, 0, 0]	-999	PAL1	2	R1278E
1082.856	10.929	1098913	TRIAL	n/a	n/a	-999	-999	n/a	n/a	n/a	n/a	8	[0, 0, 0]	-999	PAL1	2	R1278E
1093.785	0.006	1109841	ENCODING_START	n/a	n/a	-999	-999	n/a	n/a	n/a	n/a	8	[0, 0, 0]	-999	PAL1	2	R1278E
1093.791	0.266	1109847	STUDY_ORIENT	n/a	n/a	1	3	JET	PASS	SNAKE	JET	8	[0, 0, 0]	-999	PAL1	2	R1278E
1094.057	0.768	1110113	STUDY_ORIENT_OFF	n/a	n/a	1	3	JET	PASS	SNAKE	JET	8	[0, 0, 0]	-999	PAL1	2	R1278E
1094.825	4.0	1110881	STUDY_PAIR	n/a	wordpools/wordpool_EN.txt	1	3	JET	PASS	SNAKE	JET	8	[0, 0, 0]	-999	PAL1	2	R1278E
1098.842	1.017	1114898	PAIR_OFF	n/a	n/a	1	3	JET	PASS	SNAKE	JET	8	[0, 0, 0]	-999	PAL1	2	R1278E
1099.859	0.266	1115915	STUDY_ORIENT	n/a	n/a	2	6	CLOTH	PASS	CLOTH	FOOT	8	[0, 0, 0]	-999	PAL1	2	R1278E
1100.125	0.533	1116181	STUDY_ORIENT_OFF	n/a	n/a	2	6	CLOTH	PASS	CLOTH	FOOT	8	[0, 0, 0]	-999	PAL1	2	R1278E
1100.658	4.0	1116714	STUDY_PAIR	n/a	wordpools/wordpool_EN.txt	2	6	CLOTH	PASS	CLOTH	FOOT	8	[0, 0, 0]	-999	PAL1	2	R1278E
1104.677	1.016	1120733	PAIR_OFF	n/a	n/a	2	6	CLOTH	PASS	CLOTH	FOOT	8	[0, 0, 0]	-999	PAL1	2	R1278E
1105.693	0.267	1121749	STUDY_ORIENT	n/a	n/a	3	1	FISH	BREAD	FISH	BREAD	8	[0, 0, 0]	-999	PAL1	2	R1278E
1105.96	0.566	1122016	STUDY_ORIENT_OFF	n/a	n/a	3	1	FISH	BREAD	FISH	BREAD	8	[0, 0, 0]	-999	PAL1	2	R1278E
1106.526	4.0	1122582	STUDY_PAIR	n/a	wordpools/wordpool_EN.txt	3	1	FISH	BREAD	FISH	BREAD	8	[0, 0, 0]	-999	PAL1	2	R1278E
1110.543	1.017	1126599	PAIR_OFF	n/a	n/a	3	1	FISH	BREAD	FISH	BREAD	8	[0, 0, 0]	-999	PAL1	2	R1278E
1111.56	0.268	1127615	STUDY_ORIENT	n/a	n/a	4	2	SEAL	HORSE	HORSE	SEAL	8	[0, 0, 0]	-999	PAL1	2	R1278E
1111.828	0.766	1127883	STUDY_ORIENT_OFF	n/a	n/a	4	2	SEAL	HORSE	HORSE	SEAL	8	[0, 0, 0]	-999	PAL1	2	R1278E
1112.594	4.0	1128649	STUDY_PAIR	n/a	wordpools/wordpool_EN.txt	4	2	SEAL	HORSE	HORSE	SEAL	8	[0, 0, 0]	-999	PAL1	2	R1278E
1116.611	1.017	1132666	PAIR_OFF	n/a	n/a	4	2	SEAL	HORSE	HORSE	SEAL	8	[0, 0, 0]	-999	PAL1	2	R1278E
1117.628	0.267	1133683	STUDY_ORIENT	n/a	n/a	5	5	SWAMP	SAIL	SAIL	SWAMP	8	[0, 0, 0]	-999	PAL1	2	R1278E
1117.895	0.533	1133950	STUDY_ORIENT_OFF	n/a	n/a	5	5	SWAMP	SAIL	SAIL	SWAMP	8	[0, 0, 0]	-999	PAL1	2	R1278E
1118.428	4.0	1134483	STUDY_PAIR	n/a	wordpools/wordpool_EN.txt	5	5	SWAMP	SAIL	SAIL	SWAMP	8	[0, 0, 0]	-999	PAL1	2	R1278E
1122.445	1.017	1138500	PAIR_OFF	n/a	n/a	5	5	SWAMP	SAIL	SAIL	SWAMP	8	[0, 0, 0]	-999	PAL1	2	R1278E
1123.462	0.268	1139517	STUDY_ORIENT	n/a	n/a	6	4	CLOWN	PASS	MUG	CLOWN	8	[0, 0, 0]	-999	PAL1	2	R1278E
1123.73	0.566	1139785	STUDY_ORIENT_OFF	n/a	n/a	6	4	CLOWN	PASS	MUG	CLOWN	8	[0, 0, 0]	-999	PAL1	2	R1278E
1124.296	4.0	1140351	STUDY_PAIR	n/a	wordpools/wordpool_EN.txt	6	4	CLOWN	PASS	MUG	CLOWN	8	[0, 0, 0]	-999	PAL1	2	R1278E
1128.313	1.0	1144368	PAIR_OFF	n/a	n/a	6	4	CLOWN	PASS	MUG	CLOWN	8	[0, 0, 0]	-999	PAL1	2	R1278E
1129.313	0.0	1145368	ENCODING_END	n/a	n/a	-999	-999	n/a	n/a	n/a	n/a	8	[0, 0, 0]	-999	PAL1	2	R1278E
1129.313	0.0	1145368	MATH_START	n/a	n/a	-999	-999	n/a	n/a	n/a	n/a	8	[0, 0, 0]	-999	PAL1	2	R1278E
1129.313	0.017	1145368	START	n/a	n/a	-999	-999	n/a	n/a	n/a	n/a	8	[-999, -999, -999]	-999	PAL1	2	R1278E
1129.33	4.685	1145385	PROB	4.655	n/a	-999	-999	n/a	n/a	n/a	n/a	8	[2, 5, 2]	9	PAL1	2	R1278E
1134.015	3.784	1150070	PROB	3.761	n/a	-999	-999	n/a	n/a	n/a	n/a	8	[6, 3, 6]	15	PAL1	2	R1278E
1137.799	2.901	1153853	PROB	2.874	n/a	-999	-999	n/a	n/a	n/a	n/a	8	[2, 3, 1]	6	PAL1	2	R1278E
1140.7	4.2	1156754	PROB	4.164	n/a	-999	-999	n/a	n/a	n/a	n/a	8	[4, 5, 9]	18	PAL1	2	R1278E
1144.9	3.4	1160954	PROB	3.363	n/a	-999	-999	n/a	n/a	n/a	n/a	8	[1, 3, 6]	10	PAL1	2	R1278E
1148.3	3.124	1164354	PROB	3.124	n/a	-999	-999	n/a	n/a	n/a	n/a	8	[5, 1, 2]	8	PAL1	2	R1278E
1151.424	0.01	1167478	STOP	n/a	n/a	-999	-999	n/a	n/a	n/a	n/a	8	[-999, -999, -999]	-999	PAL1	2	R1278E
1151.434	0.0	1167488	RECALL_START	n/a	n/a	-999	-999	n/a	n/a	n/a	n/a	8	[0, 0, 0]	-999	PAL1	2	R1278E
1151.434	0.016	1167488	MATH_END	n/a	n/a	-999	-999	n/a	n/a	n/a	n/a	8	[0, 0, 0]	-999	PAL1	2	R1278E
1151.45	0.251	1167504	TEST_ORIENT	n/a	n/a	3	1	FISH	BREAD	FISH	BREAD	8	[0, 0, 0]	-999	PAL1	2	R1278E
1151.701	0.7	1167755	RETRIEVAL_ORIENT_OFF	n/a	n/a	-999	-999	n/a	n/a	n/a	n/a	8	[0, 0, 0]	-999	PAL1	2	R1278E
1152.401	4.0	1168455	TEST_PROBE	n/a	wordpools/wordpool_EN.txt	3	1	FISH	BREAD	FISH	BREAD	8	[0, 0, 0]	-999	PAL1	2	R1278E
1152.401	1.579	1168455	REC_START	n/a	n/a	3	-999	n/a	BREAD	n/a	n/a	8	[0, 0, 0]	-999	PAL1	2	R1278E
1153.98	2.438	1170034	REC_EVENT	1.579	n/a	3	1	FISH	BREAD	FISH	BREAD	8	[0, 0, 0]	-999	PAL1	2	R1278E
1156.418	1.01	1172472	PROBE_OFF	n/a	n/a	3	-999	n/a	n/a	n/a	n/a	8	[0, 0, 0]	-999	PAL1	2	R1278E
1157.428	0.023	1173482	REC_END	n/a	n/a	3	-999	n/a	n/a	n/a	n/a	8	[0, 0, 0]	-999	PAL1	2	R1278E
1157.451	0.251	1173505	TEST_ORIENT	n/a	n/a	4	2	SEAL	HORSE	HORSE	SEAL	8	[0, 0, 0]	-999	PAL1	2	R1278E
1157.702	0.516	1173756	RETRIEVAL_ORIENT_OFF	n/a	n/a	3	-999	n/a	n/a	n/a	n/a	8	[0, 0, 0]	-999	PAL1	2	R1278E
1158.218	4.0	1174272	TEST_PROBE	n/a	wordpools/wordpool_EN.txt	4	2	SEAL	HORSE	HORSE	SEAL	8	[0, 0, 0]	-999	PAL1	2	R1278E
1158.219	0.919	1174273	REC_START	n/a	n/a	4	-999	n/a	HORSE	n/a	n/a	8	[0, 0, 0]	-999	PAL1	2	R1278E
1159.138	1.03	1175192	REC_EVENT	0.919	n/a	4	2	SEAL	<>	HORSE	SEAL	8	[0, 0, 0]	-999	PAL1	2	R1278E
1160.168	0.52	1176222	REC_EVENT	1.949	n/a	4	2	SEAL	<>	HORSE	SEAL	8	[0, 0, 0]	-999	PAL1	2	R1278E
1160.688	1.548	1176742	REC_EVENT	2.469	n/a	4	2	SEAL	HORSE	HORSE	SEAL	8	[0, 0, 0]	-999	PAL1	2	R1278E
1162.236	1.0	1178289	PROBE_OFF	n/a	n/a	4	-999	n/a	n/a	n/a	n/a	8	[0, 0, 0]	-999	PAL1	2	R1278E
1163.236	0.016	1179289	REC_END	n/a	n/a	4	-999	n/a	n/a	n/a	n/a	8	[0, 0, 0]	-999	PAL1	2	R1278E
1163.252	0.267	1179305	TEST_ORIENT	n/a	n/a	1	3	JET	PASS	SNAKE	JET	8	[0, 0, 0]	-999	PAL1	2	R1278E
1163.519	0.634	1179572	RETRIEVAL_ORIENT_OFF	n/a	n/a	4	-999	n/a	n/a	n/a	n/a	8	[0, 0, 0]	-999	PAL1	2	R1278E
1164.153	4.0	1180206	TEST_PROBE	n/a	wordpools/wordpool_EN.txt	1	3	JET	PASS	SNAKE	JET	8	[0, 0, 0]	-999	PAL1	2	R1278E
1164.153	1.599	1180206	REC_START	n/a	n/a	1	-999	n/a	PASS	n/a	n/a	8	[0, 0, 0]	-999	PAL1	2	R1278E
1165.752	0.305	1181805	REC_EVENT	1.599	n/a	1	3	JET	<>	SNAKE	JET	8	[0, 0, 0]	-999	PAL1	2	R1278E
1166.057	0.22	1182110	REC_EVENT	1.904	n/a	1	3	JET	<>	SNAKE	JET	8	[0, 0, 0]	-999	PAL1	2	R1278E
1166.277	0.315	1182330	REC_EVENT	2.124	n/a	1	3	JET	<>	SNAKE	JET	8	[0, 0, 0]	-999	PAL1	2	R1278E
1166.592	0.435	1182645	REC_EVENT	2.439	n/a	1	3	JET	<>	SNAKE	JET	8	[0, 0, 0]	-999	PAL1	2	R1278E
1167.027	1.143	1183080	REC_EVENT	2.874	n/a	1	3	JET	PASS	SNAKE	JET	8	[0, 0, 0]	-999	PAL1	2	R1278E
1168.17	1.0	1184223	PROBE_OFF	n/a	n/a	1	-999	n/a	n/a	n/a	n/a	8	[0, 0, 0]	-999	PAL1	2	R1278E
1169.17	0.017	1185223	REC_END	n/a	n/a	1	-999	n/a	n/a	n/a	n/a	8	[0, 0, 0]	-999	PAL1	2	R1278E
1169.187	0.267	1185240	TEST_ORIENT	n/a	n/a	6	4	CLOWN	PASS	MUG	CLOWN	8	[0, 0, 0]	-999	PAL1	2	R1278E
1169.454	0.716	1185507	RETRIEVAL_ORIENT_OFF	n/a	n/a	1	-999	n/a	n/a	n/a	n/a	8	[0, 0, 0]	-999	PAL1	2	R1278E
1170.17	4.0	1186223	TEST_PROBE	n/a	wordpools/wordpool_EN.txt	6	4	CLOWN	PASS	MUG	CLOWN	8	[0, 0, 0]	-999	PAL1	2	R1278E
1170.171	2.759	1186224	REC_START	n/a	n/a	6	-999	n/a	PASS	n/a	n/a	8	[0, 0, 0]	-999	PAL1	2	R1278E
1172.93	1.258	1188983	REC_EVENT	2.759	n/a	6	4	CLOWN	PASS	MUG	CLOWN	8	[0, 0, 0]	-999	PAL1	2	R1278E
1174.188	1.0	1190241	PROBE_OFF	n/a	n/a	6	-999	n/a	n/a	n/a	n/a	8	[0, 0, 0]	-999	PAL1	2	R1278E
1175.188	0.016	1191241	REC_END	n/a	n/a	6	-999	n/a	n/a	n/a	n/a	8	[0, 0, 0]	-999	PAL1	2	R1278E
1175.204	0.267	1191257	TEST_ORIENT	n/a	n/a	5	5	SWAMP	SAIL	SAIL	SWAMP	8	[0, 0, 0]	-999	PAL1	2	R1278E
1175.471	0.717	1191524	RETRIEVAL_ORIENT_OFF	n/a	n/a	6	-999	n/a	n/a	n/a	n/a	8	[0, 0, 0]	-999	PAL1	2	R1278E
1176.188	4.0	1192241	TEST_PROBE	n/a	wordpools/wordpool_EN.txt	5	5	SWAMP	SAIL	SAIL	SWAMP	8	[0, 0, 0]	-999	PAL1	2	R1278E
1176.189	1.999	1192242	REC_START	n/a	n/a	5	-999	n/a	SAIL	n/a	n/a	8	[0, 0, 0]	-999	PAL1	2	R1278E
1178.188	2.017	1194241	REC_EVENT	1.999	n/a	5	5	SWAMP	SAIL	SAIL	SWAMP	8	[0, 0, 0]	-999	PAL1	2	R1278E
1180.205	1.001	1196258	PROBE_OFF	n/a	n/a	5	-999	n/a	n/a	n/a	n/a	8	[0, 0, 0]	-999	PAL1	2	R1278E
1181.206	0.016	1197259	REC_END	n/a	n/a	5	-999	n/a	n/a	n/a	n/a	8	[0, 0, 0]	-999	PAL1	2	R1278E
1181.222	0.267	1197275	TEST_ORIENT	n/a	n/a	2	6	CLOTH	PASS	CLOTH	FOOT	8	[0, 0, 0]	-999	PAL1	2	R1278E
1181.489	0.717	1197542	RETRIEVAL_ORIENT_OFF	n/a	n/a	5	-999	n/a	n/a	n/a	n/a	8	[0, 0, 0]	-999	PAL1	2	R1278E
1182.206	0.0	1198259	REC_START	n/a	n/a	2	-999	n/a	PASS	n/a	n/a	8	[0, 0, 0]	-999	PAL1	2	R1278E
1182.206	4.0	1198259	TEST_PROBE	n/a	wordpools/wordpool_EN.txt	2	6	CLOTH	PASS	CLOTH	FOOT	8	[0, 0, 0]	-999	PAL1	2	R1278E
1184.57	1.653	1200623	REC_EVENT	2.364	n/a	2	6	CLOTH	PASS	CLOTH	FOOT	8	[0, 0, 0]	-999	PAL1	2	R1278E
1186.223	1.0	1202276	PROBE_OFF	n/a	n/a	2	-999	n/a	n/a	n/a	n/a	8	[0, 0, 0]	-999	PAL1	2	R1278E
1187.223	0.009	1203275	REC_END	n/a	n/a	2	-999	n/a	n/a	n/a	n/a	8	[0, 0, 0]	-999	PAL1	2	R1278E
1187.232	41.982	1203284	RECALL_END	n/a	n/a	-999	-999	n/a	n/a	n/a	n/a	8	[0, 0, 0]	-999	PAL1	2	R1278E
1229.214	10.929	1245265	TRIAL	n/a	n/a	-999	-999	n/a	n/a	n/a	n/a	9	[0, 0, 0]	-999	PAL1	2	R1278E
1240.143	0.006	1256193	ENCODING_START	n/a	n/a	-999	-999	n/a	n/a	n/a	n/a	9	[0, 0, 0]	-999	PAL1	2	R1278E
1240.149	0.267	1256199	STUDY_ORIENT	n/a	n/a	1	5	TRAIN	HORSE	MOOSE	TRAIN	9	[0, 0, 0]	-999	PAL1	2	R1278E
1240.416	0.518	1256466	STUDY_ORIENT_OFF	n/a	n/a	1	5	TRAIN	HORSE	MOOSE	TRAIN	9	[0, 0, 0]	-999	PAL1	2	R1278E
1240.934	4.0	1256984	STUDY_PAIR	n/a	wordpools/wordpool_EN.txt	1	5	TRAIN	HORSE	MOOSE	TRAIN	9	[0, 0, 0]	-999	PAL1	2	R1278E
1244.951	1.017	1261001	PAIR_OFF	n/a	n/a	1	5	TRAIN	HORSE	MOOSE	TRAIN	9	[0, 0, 0]	-999	PAL1	2	R1278E
1245.968	0.266	1262018	STUDY_ORIENT	n/a	n/a	2	4	HAWK	PASS	DART	HAWK	9	[0, 0, 0]	-999	PAL1	2	R1278E
1246.234	0.567	1262284	STUDY_ORIENT_OFF	n/a	n/a	2	4	HAWK	PASS	DART	HAWK	9	[0, 0, 0]	-999	PAL1	2	R1278E
1246.801	4.0	1262851	STUDY_PAIR	n/a	wordpools/wordpool_EN.txt	2	4	HAWK	PASS	DART	HAWK	9	[0, 0, 0]	-999	PAL1	2	R1278E
1250.819	1.017	1266869	PAIR_OFF	n/a	n/a	2	4	HAWK	PASS	DART	HAWK	9	[0, 0, 0]	-999	PAL1	2	R1278E
1251.836	0.265	1267886	STUDY_ORIENT	n/a	n/a	3	3	BANK	DIME	DIME	BANK	9	[0, 0, 0]	-999	PAL1	2	R1278E
1252.101	0.568	1268151	STUDY_ORIENT_OFF	n/a	n/a	3	3	BANK	DIME	DIME	BANK	9	[0, 0, 0]	-999	PAL1	2	R1278E
1252.669	4.0	1268719	STUDY_PAIR	n/a	wordpools/wordpool_EN.txt	3	3	BANK	DIME	DIME	BANK	9	[0, 0, 0]	-999	PAL1	2	R1278E
1256.687	1.016	1272737	PAIR_OFF	n/a	n/a	3	3	BANK	DIME	DIME	BANK	9	[0, 0, 0]	-999	PAL1	2	R1278E
1257.703	0.267	1273753	STUDY_ORIENT	n/a	n/a	4	6	NET	PASS	WAND	NET	9	[0, 0, 0]	-999	PAL1	2	R1278E
1257.97	0.532	1274020	STUDY_ORIENT_OFF	n/a	n/a	4	6	NET	PASS	WAND	NET	9	[0, 0, 0]	-999	PAL1	2	R1278E
1258.502	4.0	1274552	STUDY_PAIR	n/a	wordpools/wordpool_EN.txt	4	6	NET	PASS	WAND	NET	9	[0, 0, 0]	-999	PAL1	2	R1278E
1262.503	1.017	1278552	PAIR_OFF	n/a	n/a	4	6	NET	PASS	WAND	NET	9	[0, 0, 0]	-999	PAL1	2	R1278E
1263.52	0.268	1279569	STUDY_ORIENT	n/a	n/a	5	1	APE	PASS	SUIT	APE	9	[0, 0, 0]	-999	PAL1	2	R1278E
1263.788	0.582	1279837	STUDY_ORIENT_OFF	n/a	n/a	5	1	APE	PASS	SUIT	APE	9	[0, 0, 0]	-999	PAL1	2	R1278E
1264.37	4.0	1280419	STUDY_PAIR	n/a	wordpools/wordpool_EN.txt	5	1	APE	PASS	SUIT	APE	9	[0, 0, 0]	-999	PAL1	2	R1278E
1268.387	1.017	1284436	PAIR_OFF	n/a	n/a	5	1	APE	PASS	SUIT	APE	9	[0, 0, 0]	-999	PAL1	2	R1278E
1269.404	0.268	1285453	STUDY_ORIENT	n/a	n/a	6	2	PLANE	RAT	RAT	PLANE	9	[0, 0, 0]	-999	PAL1	2	R1278E
1269.672	0.632	1285721	STUDY_ORIENT_OFF	n/a	n/a	6	2	PLANE	RAT	RAT	PLANE	9	[0, 0, 0]	-999	PAL1	2	R1278E
1270.304	4.0	1286353	STUDY_PAIR	n/a	wordpools/wordpool_EN.txt	6	2	PLANE	RAT	RAT	PLANE	9	[0, 0, 0]	-999	PAL1	2	R1278E
1274.305	1.0	1290354	PAIR_OFF	n/a	n/a	6	2	PLANE	RAT	RAT	PLANE	9	[0, 0, 0]	-999	PAL1	2	R1278E
1275.305	0.0	1291354	ENCODING_END	n/a	n/a	-999	-999	n/a	n/a	n/a	n/a	9	[0, 0, 0]	-999	PAL1	2	R1278E
1275.305	0.0	1291354	MATH_START	n/a	n/a	-999	-999	n/a	n/a	n/a	n/a	9	[0, 0, 0]	-999	PAL1	2	R1278E
1275.305	0.017	1291354	START	n/a	n/a	-999	-999	n/a	n/a	n/a	n/a	9	[-999, -999, -999]	-999	PAL1	2	R1278E
1275.322	3.817	1291371	PROB	3.793	n/a	-999	-999	n/a	n/a	n/a	n/a	9	[2, 7, 3]	12	PAL1	2	R1278E
1279.139	4.536	1295188	PROB	4.504	n/a	-999	-999	n/a	n/a	n/a	n/a	9	[2, 6, 9]	17	PAL1	2	R1278E
1283.675	4.184	1299724	PROB	4.153	n/a	-999	-999	n/a	n/a	n/a	n/a	9	[3, 4, 9]	16	PAL1	2	R1278E
1287.859	3.783	1303907	PROB	3.753	n/a	-999	-999	n/a	n/a	n/a	n/a	9	[6, 8, 8]	22	PAL1	2	R1278E
1291.642	4.425	1307690	PROB	4.425	n/a	-999	-999	n/a	n/a	n/a	n/a	9	[7, 9, 2]	18	PAL1	2	R1278E
1296.067	0.009	1312115	STOP	n/a	n/a	-999	-999	n/a	n/a	n/a	n/a	9	[-999, -999, -999]	-999	PAL1	2	R1278E
1296.076	0.0	1312124	MATH_END	n/a	n/a	-999	-999	n/a	n/a	n/a	n/a	9	[0, 0, 0]	-999	PAL1	2	R1278E
1296.076	0.016	1312124	RECALL_START	n/a	n/a	-999	-999	n/a	n/a	n/a	n/a	9	[0, 0, 0]	-999	PAL1	2	R1278E
1296.092	0.267	1312140	TEST_ORIENT	n/a	n/a	5	1	APE	PASS	SUIT	APE	9	[0, 0, 0]	-999	PAL1	2	R1278E
1296.359	0.668	1312407	RETRIEVAL_ORIENT_OFF	n/a	n/a	-999	-999	n/a	n/a	n/a	n/a	9	[0, 0, 0]	-999	PAL1	2	R1278E
1297.027	4.0	1313075	TEST_PROBE	n/a	wordpools/wordpool_EN.txt	5	1	APE	PASS	SUIT	APE	9	[0, 0, 0]	-999	PAL1	2	R1278E
1297.028	3.459	1313076	REC_START	n/a	n/a	5	-999	n/a	PASS	n/a	n/a	9	[0, 0, 0]	-999	PAL1	2	R1278E
1300.487	0.556	1316535	REC_EVENT	3.459	n/a	5	1	APE	PASS	SUIT	APE	9	[0, 0, 0]	-999	PAL1	2	R1278E
1301.043	1.0	1317091	PROBE_OFF	n/a	n/a	5	-999	n/a	n/a	n/a	n/a	9	[0, 0, 0]	-999	PAL1	2	R1278E
1302.043	0.017	1318091	REC_END	n/a	n/a	5	-999	n/a	n/a	n/a	n/a	9	[0, 0, 0]	-999	PAL1	2	R1278E
1302.06	0.267	1318108	TEST_ORIENT	n/a	n/a	6	2	PLANE	RAT	RAT	PLANE	9	[0, 0, 0]	-999	PAL1	2	R1278E
1302.327	0.534	1318375	RETRIEVAL_ORIENT_OFF	n/a	n/a	5	-999	n/a	n/a	n/a	n/a	9	[0, 0, 0]	-999	PAL1	2	R1278E
1302.861	4.0	1318909	TEST_PROBE	n/a	wordpools/wordpool_EN.txt	6	2	PLANE	RAT	RAT	PLANE	9	[0, 0, 0]	-999	PAL1	2	R1278E
1302.862	1.39	1318910	REC_START	n/a	n/a	6	-999	n/a	RAT	n/a	n/a	9	[0, 0, 0]	-999	PAL1	2	R1278E
1304.252	2.627	1320300	REC_EVENT	1.39	n/a	6	2	PLANE	RAT	RAT	PLANE	9	[0, 0, 0]	-999	PAL1	2	R1278E
1306.879	1.0	1322927	PROBE_OFF	n/a	n/a	6	-999	n/a	n/a	n/a	n/a	9	[0, 0, 0]	-999	PAL1	2	R1278E
1307.879	0.016	1323927	REC_END	n/a	n/a	6	-999	n/a	n/a	n/a	n/a	9	[0, 0, 0]	-999	PAL1	2	R1278E
1307.895	0.266	1323943	TEST_ORIENT	n/a	n/a	3	3	BANK	DIME	DIME	BANK	9	[0, 0, 0]	-999	PAL1	2	R1278E
1308.161	0.518	1324209	RETRIEVAL_ORIENT_OFF	n/a	n/a	6	-999	n/a	n/a	n/a	n/a	9	[0, 0, 0]	-999	PAL1	2	R1278E
1308.679	4.0	1324727	TEST_PROBE	n/a	wordpools/wordpool_EN.txt	3	3	BANK	DIME	DIME	BANK	9	[0, 0, 0]	-999	PAL1	2	R1278E
1308.679	1.329	1324727	REC_START	n/a	n/a	3	-999	n/a	DIME	n/a	n/a	9	[0, 0, 0]	-999	PAL1	2	R1278E
1310.008	2.688	1326056	REC_EVENT	1.329	n/a	3	3	BANK	DIME	DIME	BANK	9	[0, 0, 0]	-999	PAL1	2	R1278E
1312.696	1.001	1328744	PROBE_OFF	n/a	n/a	3	-999	n/a	n/a	n/a	n/a	9	[0, 0, 0]	-999	PAL1	2	R1278E
1313.697	0.016	1329744	REC_END	n/a	n/a	3	-999	n/a	n/a	n/a	n/a	9	[0, 0, 0]	-999	PAL1	2	R1278E
1313.713	0.267	1329760	TEST_ORIENT	n/a	n/a	2	4	HAWK	PASS	DART	HAWK	9	[0, 0, 0]	-999	PAL1	2	R1278E
1313.98	0.666	1330027	RETRIEVAL_ORIENT_OFF	n/a	n/a	3	-999	n/a	n/a	n/a	n/a	9	[0, 0, 0]	-999	PAL1	2	R1278E
1314.646	4.0	1330693	TEST_PROBE	n/a	wordpools/wordpool_EN.txt	2	4	HAWK	PASS	DART	HAWK	9	[0, 0, 0]	-999	PAL1	2	R1278E
1314.646	2.894	1330693	REC_START	n/a	n/a	2	-999	n/a	PASS	n/a	n/a	9	[0, 0, 0]	-999	PAL1	2	R1278E
1317.54	1.123	1333587	REC_EVENT	2.894	n/a	2	4	HAWK	PASS	DART	HAWK	9	[0, 0, 0]	-999	PAL1	2	R1278E
1318.663	1.011	1334710	PROBE_OFF	n/a	n/a	2	-999	n/a	n/a	n/a	n/a	9	[0, 0, 0]	-999	PAL1	2	R1278E
1319.674	0.024	1335721	REC_END	n/a	n/a	2	-999	n/a	n/a	n/a	n/a	9	[0, 0, 0]	-999	PAL1	2	R1278E
1319.698	0.266	1335745	TEST_ORIENT	n/a	n/a	1	5	TRAIN	HORSE	MOOSE	TRAIN	9	[0, 0, 0]	-999	PAL1	2	R1278E
1319.964	0.666	1336011	RETRIEVAL_ORIENT_OFF	n/a	n/a	2	-999	n/a	n/a	n/a	n/a	9	[0, 0, 0]	-999	PAL1	2	R1278E
1320.63	4.0	1336677	TEST_PROBE	n/a	wordpools/wordpool_EN.txt	1	5	TRAIN	HORSE	MOOSE	TRAIN	9	[0, 0, 0]	-999	PAL1	2	R1278E
1320.631	1.67	1336678	REC_START	n/a	n/a	1	-999	n/a	HORSE	n/a	n/a	9	[0, 0, 0]	-999	PAL1	2	R1278E
1322.301	2.346	1338348	REC_EVENT	1.67	n/a	1	5	TRAIN	HORSE	MOOSE	TRAIN	9	[0, 0, 0]	-999	PAL1	2	R1278E
1324.647	1.0	1340694	PROBE_OFF	n/a	n/a	1	-999	n/a	n/a	n/a	n/a	9	[0, 0, 0]	-999	PAL1	2	R1278E
1325.647	0.017	1341694	REC_END	n/a	n/a	1	-999	n/a	n/a	n/a	n/a	9	[0, 0, 0]	-999	PAL1	2	R1278E
1325.664	0.251	1341711	TEST_ORIENT	n/a	n/a	4	6	NET	PASS	WAND	NET	9	[0, 0, 0]	-999	PAL1	2	R1278E
1325.915	0.649	1341962	RETRIEVAL_ORIENT_OFF	n/a	n/a	1	-999	n/a	n/a	n/a	n/a	9	[0, 0, 0]	-999	PAL1	2	R1278E
1326.564	4.0	1342611	TEST_PROBE	n/a	wordpools/wordpool_EN.txt	4	6	NET	PASS	WAND	NET	9	[0, 0, 0]	-999	PAL1	2	R1278E
1326.565	2.779	1342612	REC_START	n/a	n/a	4	-999	n/a	PASS	n/a	n/a	9	[0, 0, 0]	-999	PAL1	2	R1278E
1329.344	1.238	1345391	REC_EVENT	2.779	n/a	4	6	NET	PASS	WAND	NET	9	[0, 0, 0]	-999	PAL1	2	R1278E
1330.582	1.0	1346629	PROBE_OFF	n/a	n/a	4	-999	n/a	n/a	n/a	n/a	9	[0, 0, 0]	-999	PAL1	2	R1278E
1331.582	0.009	1347629	REC_END	n/a	n/a	4	-999	n/a	n/a	n/a	n/a	9	[0, 0, 0]	-999	PAL1	2	R1278E
1331.591	15.094	1347638	RECALL_END	n/a	n/a	-999	-999	n/a	n/a	n/a	n/a	9	[0, 0, 0]	-999	PAL1	2	R1278E
1346.685	10.929	1362731	TRIAL	n/a	n/a	-999	-999	n/a	n/a	n/a	n/a	10	[0, 0, 0]	-999	PAL1	2	R1278E
1357.614	0.006	1373660	ENCODING_START	n/a	n/a	-999	-999	n/a	n/a	n/a	n/a	10	[0, 0, 0]	-999	PAL1	2	R1278E
1357.62	0.268	1373666	STUDY_ORIENT	n/a	n/a	1	1	PLATE	ANT	ANT	PLATE	10	[0, 0, 0]	-999	PAL1	2	R1278E
1357.888	0.549	1373934	STUDY_ORIENT_OFF	n/a	n/a	1	1	PLATE	ANT	ANT	PLATE	10	[0, 0, 0]	-999	PAL1	2	R1278E
1358.437	4.0	1374483	STUDY_PAIR	n/a	wordpools/wordpool_EN.txt	1	1	PLATE	ANT	ANT	PLATE	10	[0, 0, 0]	-999	PAL1	2	R1278E
1362.454	1.017	1378500	PAIR_OFF	n/a	n/a	1	1	PLATE	ANT	ANT	PLATE	10	[0, 0, 0]	-999	PAL1	2	R1278E
1363.471	0.267	1379516	STUDY_ORIENT	n/a	n/a	2	2	STOVE	FOG	STOVE	FOG	10	[0, 0, 0]	-999	PAL1	2	R1278E
1363.738	0.616	1379783	STUDY_ORIENT_OFF	n/a	n/a	2	2	STOVE	FOG	STOVE	FOG	10	[0, 0, 0]	-999	PAL1	2	R1278E
1364.354	4.0	1380399	STUDY_PAIR	n/a	wordpools/wordpool_EN.txt	2	2	STOVE	FOG	STOVE	FOG	10	[0, 0, 0]	-999	PAL1	2	R1278E
1368.372	1.017	1384417	PAIR_OFF	n/a	n/a	2	2	STOVE	FOG	STOVE	FOG	10	[0, 0, 0]	-999	PAL1	2	R1278E
1369.389	0.266	1385434	STUDY_ORIENT	n/a	n/a	3	3	BADGE	LAMB	LAMB	BADGE	10	[0, 0, 0]	-999	PAL1	2	R1278E
1369.655	0.75	1385700	STUDY_ORIENT_OFF	n/a	n/a	3	3	BADGE	LAMB	LAMB	BADGE	10	[0, 0, 0]	-999	PAL1	2	R1278E
1370.405	4.0	1386450	STUDY_PAIR	n/a	wordpools/wordpool_EN.txt	3	3	BADGE	LAMB	LAMB	BADGE	10	[0, 0, 0]	-999	PAL1	2	R1278E
1374.423	1.017	1390468	PAIR_OFF	n/a	n/a	3	3	BADGE	LAMB	LAMB	BADGE	10	[0, 0, 0]	-999	PAL1	2	R1278E
1375.44	0.267	1391485	STUDY_ORIENT	n/a	n/a	4	6	BALL	RAKE	BALL	RAKE	10	[0, 0, 0]	-999	PAL1	2	R1278E
1375.707	0.666	1391752	STUDY_ORIENT_OFF	n/a	n/a	4	6	BALL	RAKE	BALL	RAKE	10	[0, 0, 0]	-999	PAL1	2	R1278E
1376.373	4.0	1392418	STUDY_PAIR	n/a	wordpools/wordpool_EN.txt	4	6	BALL	RAKE	BALL	RAKE	10	[0, 0, 0]	-999	PAL1	2	R1278E
1380.391	1.016	1396436	PAIR_OFF	n/a	n/a	4	6	BALL	RAKE	BALL	RAKE	10	[0, 0, 0]	-999	PAL1	2	R1278E
1381.407	0.268	1397452	STUDY_ORIENT	n/a	n/a	5	5	SLEEVE	PANTS	SLEEVE	PANTS	10	[0, 0, 0]	-999	PAL1	2	R1278E
1381.675	0.632	1397720	STUDY_ORIENT_OFF	n/a	n/a	5	5	SLEEVE	PANTS	SLEEVE	PANTS	10	[0, 0, 0]	-999	PAL1	2	R1278E
1382.307	4.0	1398352	STUDY_PAIR	n/a	wordpools/wordpool_EN.txt	5	5	SLEEVE	PANTS	SLEEVE	PANTS	10	[0, 0, 0]	-999	PAL1	2	R1278E
1386.325	1.017	1402370	PAIR_OFF	n/a	n/a	5	5	SLEEVE	PANTS	SLEEVE	PANTS	10	[0, 0, 0]	-999	PAL1	2	R1278E
1387.342	0.266	1403387	STUDY_ORIENT	n/a	n/a	6	4	JAIL	COIN	JAIL	COIN	10	[0, 0, 0]	-999	PAL1	2	R1278E
1387.608	0.717	1403653	STUDY_ORIENT_OFF	n/a	n/a	6	4	JAIL	COIN	JAIL	COIN	10	[0, 0, 0]	-999	PAL1	2	R1278E
1388.325	4.0	1404370	STUDY_PAIR	n/a	wordpools/wordpool_EN.txt	6	4	JAIL	COIN	JAIL	COIN	10	[0, 0, 0]	-999	PAL1	2	R1278E
1392.343	1.0	1408387	PAIR_OFF	n/a	n/a	6	4	JAIL	COIN	JAIL	COIN	10	[0, 0, 0]	-999	PAL1	2	R1278E
1393.343	0.0	1409387	ENCODING_END	n/a	n/a	-999	-999	n/a	n/a	n/a	n/a	10	[0, 0, 0]	-999	PAL1	2	R1278E
1393.343	0.001	1409387	MATH_START	n/a	n/a	-999	-999	n/a	n/a	n/a	n/a	10	[0, 0, 0]	-999	PAL1	2	R1278E
1393.344	0.015	1409388	START	n/a	n/a	-999	-999	n/a	n/a	n/a	n/a	10	[-999, -999, -999]	-999	PAL1	2	R1278E
1393.359	5.452	1409403	PROB	5.429	n/a	-999	-999	n/a	n/a	n/a	n/a	10	[6, 6, 7]	19	PAL1	2	R1278E
1398.811	4.118	1414855	PROB	4.08	n/a	-999	-999	n/a	n/a	n/a	n/a	10	[8, 5, 2]	15	PAL1	2	R1278E
1402.929	4.767	1418973	PROB	4.73	n/a	-999	-999	n/a	n/a	n/a	n/a	10	[9, 6, 4]	19	PAL1	2	R1278E
1407.696	4.218	1423740	PROB	4.18	n/a	-999	-999	n/a	n/a	n/a	n/a	10	[9, 2, 5]	16	PAL1	2	R1278E
1411.914	3.089	1427958	PROB	3.089	n/a	-999	-999	n/a	n/a	n/a	n/a	10	[3, 7, 7]	17	PAL1	2	R1278E
1415.003	0.011	1431046	STOP	n/a	n/a	-999	-999	n/a	n/a	n/a	n/a	10	[-999, -999, -999]	-999	PAL1	2	R1278E
1415.014	0.0	1431057	RECALL_START	n/a	n/a	-999	-999	n/a	n/a	n/a	n/a	10	[0, 0, 0]	-999	PAL1	2	R1278E
1415.014	0.017	1431057	MATH_END	n/a	n/a	-999	-999	n/a	n/a	n/a	n/a	10	[0, 0, 0]	-999	PAL1	2	R1278E
1415.031	0.266	1431074	TEST_ORIENT	n/a	n/a	1	1	PLATE	ANT	ANT	PLATE	10	[0, 0, 0]	-999	PAL1	2	R1278E
1415.297	0.517	1431340	RETRIEVAL_ORIENT_OFF	n/a	n/a	-999	-999	n/a	n/a	n/a	n/a	10	[0, 0, 0]	-999	PAL1	2	R1278E
1415.814	4.0	1431857	TEST_PROBE	n/a	wordpools/wordpool_EN.txt	1	1	PLATE	ANT	ANT	PLATE	10	[0, 0, 0]	-999	PAL1	2	R1278E
1415.815	1.334	1431858	REC_START	n/a	n/a	1	-999	n/a	ANT	n/a	n/a	10	[0, 0, 0]	-999	PAL1	2	R1278E
1417.149	2.683	1433192	REC_EVENT	1.334	n/a	1	1	PLATE	ANT	ANT	PLATE	10	[0, 0, 0]	-999	PAL1	2	R1278E
1419.832	1.0	1435875	PROBE_OFF	n/a	n/a	1	-999	n/a	n/a	n/a	n/a	10	[0, 0, 0]	-999	PAL1	2	R1278E
1420.832	0.016	1436875	REC_END	n/a	n/a	1	-999	n/a	n/a	n/a	n/a	10	[0, 0, 0]	-999	PAL1	2	R1278E
1420.848	0.266	1436891	TEST_ORIENT	n/a	n/a	2	2	STOVE	FOG	STOVE	FOG	10	[0, 0, 0]	-999	PAL1	2	R1278E
1421.114	0.751	1437157	RETRIEVAL_ORIENT_OFF	n/a	n/a	1	-999	n/a	n/a	n/a	n/a	10	[0, 0, 0]	-999	PAL1	2	R1278E
1421.865	4.0	1437908	TEST_PROBE	n/a	wordpools/wordpool_EN.txt	2	2	STOVE	FOG	STOVE	FOG	10	[0, 0, 0]	-999	PAL1	2	R1278E
1421.866	0.869	1437909	REC_START	n/a	n/a	2	-999	n/a	FOG	n/a	n/a	10	[0, 0, 0]	-999	PAL1	2	R1278E
1422.735	3.148	1438778	REC_EVENT	0.869	n/a	2	2	STOVE	FOG	STOVE	FOG	10	[0, 0, 0]	-999	PAL1	2	R1278E
1425.883	1.01	1441926	PROBE_OFF	n/a	n/a	2	-999	n/a	n/a	n/a	n/a	10	[0, 0, 0]	-999	PAL1	2	R1278E
1426.893	0.007	1442936	REC_END	n/a	n/a	2	-999	n/a	n/a	n/a	n/a	10	[0, 0, 0]	-999	PAL1	2	R1278E
1426.9	0.265	1442943	TEST_ORIENT	n/a	n/a	3	3	BADGE	LAMB	LAMB	BADGE	10	[0, 0, 0]	-999	PAL1	2	R1278E
1427.165	0.751	1443208	RETRIEVAL_ORIENT_OFF	n/a	n/a	2	-999	n/a	n/a	n/a	n/a	10	[0, 0, 0]	-999	PAL1	2	R1278E
1427.916	4.0	1443959	TEST_PROBE	n/a	wordpools/wordpool_EN.txt	3	3	BADGE	LAMB	LAMB	BADGE	10	[0, 0, 0]	-999	PAL1	2	R1278E
1427.917	0.93	1443960	REC_START	n/a	n/a	3	-999	n/a	LAMB	n/a	n/a	10	[0, 0, 0]	-999	PAL1	2	R1278E
1428.847	3.087	1444890	REC_EVENT	0.93	n/a	3	3	BADGE	LAMB	LAMB	BADGE	10	[0, 0, 0]	-999	PAL1	2	R1278E
1431.934	1.0	1447977	PROBE_OFF	n/a	n/a	3	-999	n/a	n/a	n/a	n/a	10	[0, 0, 0]	-999	PAL1	2	R1278E
1432.934	0.017	1448977	REC_END	n/a	n/a	3	-999	n/a	n/a	n/a	n/a	10	[0, 0, 0]	-999	PAL1	2	R1278E
1432.951	0.265	1448994	TEST_ORIENT	n/a	n/a	6	4	JAIL	COIN	JAIL	COIN	10	[0, 0, 0]	-999	PAL1	2	R1278E
1433.216	0.551	1449259	RETRIEVAL_ORIENT_OFF	n/a	n/a	3	-999	n/a	n/a	n/a	n/a	10	[0, 0, 0]	-999	PAL1	2	R1278E
1433.767	4.0	1449810	TEST_PROBE	n/a	wordpools/wordpool_EN.txt	6	4	JAIL	COIN	JAIL	COIN	10	[0, 0, 0]	-999	PAL1	2	R1278E
1433.768	1.424	1449811	REC_START	n/a	n/a	6	-999	n/a	COIN	n/a	n/a	10	[0, 0, 0]	-999	PAL1	2	R1278E
1435.192	2.593	1451235	REC_EVENT	1.424	n/a	6	4	JAIL	COIN	JAIL	COIN	10	[0, 0, 0]	-999	PAL1	2	R1278E
1437.785	1.0	1453828	PROBE_OFF	n/a	n/a	6	-999	n/a	n/a	n/a	n/a	10	[0, 0, 0]	-999	PAL1	2	R1278E
1438.785	0.017	1454828	REC_END	n/a	n/a	6	-999	n/a	n/a	n/a	n/a	10	[0, 0, 0]	-999	PAL1	2	R1278E
1438.802	0.265	1454845	TEST_ORIENT	n/a	n/a	5	5	SLEEVE	PANTS	SLEEVE	PANTS	10	[0, 0, 0]	-999	PAL1	2	R1278E
1439.067	0.651	1455110	RETRIEVAL_ORIENT_OFF	n/a	n/a	6	-999	n/a	n/a	n/a	n/a	10	[0, 0, 0]	-999	PAL1	2	R1278E
1439.718	4.0	1455760	TEST_PROBE	n/a	wordpools/wordpool_EN.txt	5	5	SLEEVE	PANTS	SLEEVE	PANTS	10	[0, 0, 0]	-999	PAL1	2	R1278E
1439.719	0.99	1455761	REC_START	n/a	n/a	5	-999	n/a	PANTS	n/a	n/a	10	[0, 0, 0]	-999	PAL1	2	R1278E
1440.709	3.027	1456751	REC_EVENT	0.99	n/a	5	5	SLEEVE	PANTS	SLEEVE	PANTS	10	[0, 0, 0]	-999	PAL1	2	R1278E
1443.736	1.001	1459778	PROBE_OFF	n/a	n/a	5	-999	n/a	n/a	n/a	n/a	10	[0, 0, 0]	-999	PAL1	2	R1278E
1444.737	0.016	1460779	REC_END	n/a	n/a	5	-999	n/a	n/a	n/a	n/a	10	[0, 0, 0]	-999	PAL1	2	R1278E
1444.753	0.266	1460795	TEST_ORIENT	n/a	n/a	4	6	BALL	RAKE	BALL	RAKE	10	[0, 0, 0]	-999	PAL1	2	R1278E
1445.019	0.533	1461061	RETRIEVAL_ORIENT_OFF	n/a	n/a	5	-999	n/a	n/a	n/a	n/a	10	[0, 0, 0]	-999	PAL1	2	R1278E
1445.552	4.0	1461594	TEST_PROBE	n/a	wordpools/wordpool_EN.txt	4	6	BALL	RAKE	BALL	RAKE	10	[0, 0, 0]	-999	PAL1	2	R1278E
1445.552	1.609	1461594	REC_START	n/a	n/a	4	-999	n/a	RAKE	n/a	n/a	10	[0, 0, 0]	-999	PAL1	2	R1278E
1447.161	2.408	1463203	REC_EVENT	1.609	n/a	4	6	BALL	RAKE	BALL	RAKE	10	[0, 0, 0]	-999	PAL1	2	R1278E
1449.569	1.001	1465611	PROBE_OFF	n/a	n/a	4	-999	n/a	n/a	n/a	n/a	10	[0, 0, 0]	-999	PAL1	2	R1278E
1450.57	0.004	1466612	REC_END	n/a	n/a	4	-999	n/a	n/a	n/a	n/a	10	[0, 0, 0]	-999	PAL1	2	R1278E
1450.574	9.348	1466616	RECALL_END	n/a	n/a	-999	-999	n/a	n/a	n/a	n/a	10	[0, 0, 0]	-999	PAL1	2	R1278E
1459.922	10.929	1475964	TRIAL	n/a	n/a	-999	-999	n/a	n/a	n/a	n/a	11	[0, 0, 0]	-999	PAL1	2	R1278E
1470.851	0.006	1486892	ENCODING_START	n/a	n/a	-999	-999	n/a	n/a	n/a	n/a	11	[0, 0, 0]	-999	PAL1	2	R1278E
1470.857	0.266	1486898	STUDY_ORIENT	n/a	n/a	1	3	STORM	OAK	STORM	OAK	11	[0, 0, 0]	-999	PAL1	2	R1278E
1471.123	0.533	1487164	STUDY_ORIENT_OFF	n/a	n/a	1	3	STORM	OAK	STORM	OAK	11	[0, 0, 0]	-999	PAL1	2	R1278E
1471.656	4.0	1487697	STUDY_PAIR	n/a	wordpools/wordpool_EN.txt	1	3	STORM	OAK	STORM	OAK	11	[0, 0, 0]	-999	PAL1	2	R1278E
1475.675	1.017	1491716	PAIR_OFF	n/a	n/a	1	3	STORM	OAK	STORM	OAK	11	[0, 0, 0]	-999	PAL1	2	R1278E
1476.692	0.266	1492733	STUDY_ORIENT	n/a	n/a	2	2	GOAT	PASS	KEY	GOAT	11	[0, 0, 0]	-999	PAL1	2	R1278E
1476.958	0.532	1492999	STUDY_ORIENT_OFF	n/a	n/a	2	2	GOAT	PASS	KEY	GOAT	11	[0, 0, 0]	-999	PAL1	2	R1278E
1477.49	4.0	1493531	STUDY_PAIR	n/a	wordpools/wordpool_EN.txt	2	2	GOAT	PASS	KEY	GOAT	11	[0, 0, 0]	-999	PAL1	2	R1278E
1481.491	1.017	1497532	PAIR_OFF	n/a	n/a	2	2	GOAT	PASS	KEY	GOAT	11	[0, 0, 0]	-999	PAL1	2	R1278E
1482.508	0.268	1498549	STUDY_ORIENT	n/a	n/a	3	1	LEG	SEAT	SEAT	LEG	11	[0, 0, 0]	-999	PAL1	2	R1278E
1482.776	0.749	1498817	STUDY_ORIENT_OFF	n/a	n/a	3	1	LEG	SEAT	SEAT	LEG	11	[0, 0, 0]	-999	PAL1	2	R1278E
1483.525	4.0	1499566	STUDY_PAIR	n/a	wordpools/wordpool_EN.txt	3	1	LEG	SEAT	SEAT	LEG	11	[0, 0, 0]	-999	PAL1	2	R1278E
1487.543	1.016	1503584	PAIR_OFF	n/a	n/a	3	1	LEG	SEAT	SEAT	LEG	11	[0, 0, 0]	-999	PAL1	2	R1278E
1488.559	0.251	1504600	STUDY_ORIENT	n/a	n/a	4	4	FARM	BOOK	FARM	BOOK	11	[0, 0, 0]	-999	PAL1	2	R1278E
1488.81	0.583	1504851	STUDY_ORIENT_OFF	n/a	n/a	4	4	FARM	BOOK	FARM	BOOK	11	[0, 0, 0]	-999	PAL1	2	R1278E
1489.393	4.0	1505434	STUDY_PAIR	n/a	wordpools/wordpool_EN.txt	4	4	FARM	BOOK	FARM	BOOK	11	[0, 0, 0]	-999	PAL1	2	R1278E
1493.41	1.017	1509450	PAIR_OFF	n/a	n/a	4	4	FARM	BOOK	FARM	BOOK	11	[0, 0, 0]	-999	PAL1	2	R1278E
1494.427	0.251	1510467	STUDY_ORIENT	n/a	n/a	5	5	BIRD	PASS	BIRD	HOOF	11	[0, 0, 0]	-999	PAL1	2	R1278E
1494.678	0.616	1510718	STUDY_ORIENT_OFF	n/a	n/a	5	5	BIRD	PASS	BIRD	HOOF	11	[0, 0, 0]	-999	PAL1	2	R1278E
1495.294	4.0	1511334	STUDY_PAIR	n/a	wordpools/wordpool_EN.txt	5	5	BIRD	PASS	BIRD	HOOF	11	[0, 0, 0]	-999	PAL1	2	R1278E
1499.311	1.017	1515351	PAIR_OFF	n/a	n/a	5	5	BIRD	PASS	BIRD	HOOF	11	[0, 0, 0]	-999	PAL1	2	R1278E
1500.328	0.267	1516368	STUDY_ORIENT	n/a	n/a	6	6	MILK	SEA	MILK	SEA	11	[0, 0, 0]	-999	PAL1	2	R1278E
1500.595	0.767	1516635	STUDY_ORIENT_OFF	n/a	n/a	6	6	MILK	SEA	MILK	SEA	11	[0, 0, 0]	-999	PAL1	2	R1278E
1501.362	4.0	1517402	STUDY_PAIR	n/a	wordpools/wordpool_EN.txt	6	6	MILK	SEA	MILK	SEA	11	[0, 0, 0]	-999	PAL1	2	R1278E
1505.379	1.0	1521419	PAIR_OFF	n/a	n/a	6	6	MILK	SEA	MILK	SEA	11	[0, 0, 0]	-999	PAL1	2	R1278E
1506.379	0.0	1522419	ENCODING_END	n/a	n/a	-999	-999	n/a	n/a	n/a	n/a	11	[0, 0, 0]	-999	PAL1	2	R1278E
1506.379	0.0	1522419	MATH_START	n/a	n/a	-999	-999	n/a	n/a	n/a	n/a	11	[0, 0, 0]	-999	PAL1	2	R1278E
1506.379	0.017	1522419	START	n/a	n/a	-999	-999	n/a	n/a	n/a	n/a	11	[-999, -999, -999]	-999	PAL1	2	R1278E
1506.396	5.352	1522436	PROB	5.32	n/a	-999	-999	n/a	n/a	n/a	n/a	11	[6, 4, 4]	14	PAL1	2	R1278E
1511.748	5.184	1527788	PROB	5.16	n/a	-999	-999	n/a	n/a	n/a	n/a	11	[8, 6, 4]	18	PAL1	2	R1278E
1516.932	2.716	1532971	PROB	2.687	n/a	-999	-999	n/a	n/a	n/a	n/a	11	[2, 2, 7]	11	PAL1	2	R1278E
1519.648	5.335	1535687	PROB	5.305	n/a	-999	-999	n/a	n/a	n/a	n/a	11	[8, 6, 5]	19	PAL1	2	R1278E
1524.983	2.433	1541022	PROB	2.433	n/a	-999	-999	n/a	n/a	n/a	n/a	11	[1, 5, 1]	7	PAL1	2	R1278E
1527.416	0.017	1543455	STOP	n/a	n/a	-999	-999	n/a	n/a	n/a	n/a	11	[-999, -999, -999]	-999	PAL1	2	R1278E
1527.433	0.0	1543472	MATH_END	n/a	n/a	-999	-999	n/a	n/a	n/a	n/a	11	[0, 0, 0]	-999	PAL1	2	R1278E
1527.433	0.017	1543472	RECALL_START	n/a	n/a	-999	-999	n/a	n/a	n/a	n/a	11	[0, 0, 0]	-999	PAL1	2	R1278E
1527.45	0.267	1543489	TEST_ORIENT	n/a	n/a	3	1	LEG	SEAT	SEAT	LEG	11	[0, 0, 0]	-999	PAL1	2	R1278E
1527.717	0.616	1543756	RETRIEVAL_ORIENT_OFF	n/a	n/a	-999	-999	n/a	n/a	n/a	n/a	11	[0, 0, 0]	-999	PAL1	2	R1278E
1528.333	4.0	1544372	TEST_PROBE	n/a	wordpools/wordpool_EN.txt	3	1	LEG	SEAT	SEAT	LEG	11	[0, 0, 0]	-999	PAL1	2	R1278E
1528.334	1.85	1544373	REC_START	n/a	n/a	3	-999	n/a	SEAT	n/a	n/a	11	[0, 0, 0]	-999	PAL1	2	R1278E
1530.184	2.166	1546223	REC_EVENT	1.85	n/a	3	1	LEG	SEAT	SEAT	LEG	11	[0, 0, 0]	-999	PAL1	2	R1278E
1532.35	1.001	1548389	PROBE_OFF	n/a	n/a	3	-999	n/a	n/a	n/a	n/a	11	[0, 0, 0]	-999	PAL1	2	R1278E
1533.351	0.016	1549390	REC_END	n/a	n/a	3	-999	n/a	n/a	n/a	n/a	11	[0, 0, 0]	-999	PAL1	2	R1278E
1533.367	0.267	1549406	TEST_ORIENT	n/a	n/a	2	2	GOAT	PASS	KEY	GOAT	11	[0, 0, 0]	-999	PAL1	2	R1278E
1533.634	0.633	1549673	RETRIEVAL_ORIENT_OFF	n/a	n/a	3	-999	n/a	n/a	n/a	n/a	11	[0, 0, 0]	-999	PAL1	2	R1278E
1534.267	4.0	1550306	TEST_PROBE	n/a	wordpools/wordpool_EN.txt	2	2	GOAT	PASS	KEY	GOAT	11	[0, 0, 0]	-999	PAL1	2	R1278E
1534.268	3.059	1550307	REC_START	n/a	n/a	2	-999	n/a	PASS	n/a	n/a	11	[0, 0, 0]	-999	PAL1	2	R1278E
1537.327	0.505	1553366	REC_EVENT	3.059	n/a	2	2	GOAT	<>	KEY	GOAT	11	[0, 0, 0]	-999	PAL1	2	R1278E
1537.832	0.453	1553871	REC_EVENT	3.564	n/a	2	2	GOAT	PASS	KEY	GOAT	11	[0, 0, 0]	-999	PAL1	2	R1278E
1538.285	1.0	1554324	PROBE_OFF	n/a	n/a	2	-999	n/a	n/a	n/a	n/a	11	[0, 0, 0]	-999	PAL1	2	R1278E
1539.285	0.017	1555324	REC_END	n/a	n/a	2	-999	n/a	n/a	n/a	n/a	11	[0, 0, 0]	-999	PAL1	2	R1278E
1539.302	0.266	1555341	TEST_ORIENT	n/a	n/a	1	3	STORM	OAK	STORM	OAK	11	[0, 0, 0]	-999	PAL1	2	R1278E
1539.568	0.7	1555607	RETRIEVAL_ORIENT_OFF	n/a	n/a	2	-999	n/a	n/a	n/a	n/a	11	[0, 0, 0]	-999	PAL1	2	R1278E
1540.268	4.0	1556306	TEST_PROBE	n/a	wordpools/wordpool_EN.txt	1	3	STORM	OAK	STORM	OAK	11	[0, 0, 0]	-999	PAL1	2	R1278E
1540.269	2.219	1556307	REC_START	n/a	n/a	1	-999	n/a	OAK	n/a	n/a	11	[0, 0, 0]	-999	PAL1	2	R1278E
1542.488	0.16	1558526	REC_EVENT	2.219	n/a	1	3	STORM	<>	STORM	OAK	11	[0, 0, 0]	-999	PAL1	2	R1278E
1542.648	1.638	1558686	REC_EVENT	2.379	n/a	1	3	STORM	OAK	STORM	OAK	11	[0, 0, 0]	-999	PAL1	2	R1278E
1544.286	1.0	1560324	PROBE_OFF	n/a	n/a	1	-999	n/a	n/a	n/a	n/a	11	[0, 0, 0]	-999	PAL1	2	R1278E
1545.286	0.017	1561324	REC_END	n/a	n/a	1	-999	n/a	n/a	n/a	n/a	11	[0, 0, 0]	-999	PAL1	2	R1278E
1545.303	0.266	1561341	TEST_ORIENT	n/a	n/a	4	4	FARM	BOOK	FARM	BOOK	11	[0, 0, 0]	-999	PAL1	2	R1278E
1545.569	0.717	1561607	RETRIEVAL_ORIENT_OFF	n/a	n/a	1	-999	n/a	n/a	n/a	n/a	11	[0, 0, 0]	-999	PAL1	2	R1278E
1546.286	4.0	1562324	TEST_PROBE	n/a	wordpools/wordpool_EN.txt	4	4	FARM	BOOK	FARM	BOOK	11	[0, 0, 0]	-999	PAL1	2	R1278E
1546.287	1.1	1562325	REC_START	n/a	n/a	4	-999	n/a	BOOK	n/a	n/a	11	[0, 0, 0]	-999	PAL1	2	R1278E
1547.387	2.917	1563425	REC_EVENT	1.1	n/a	4	4	FARM	BOOK	FARM	BOOK	11	[0, 0, 0]	-999	PAL1	2	R1278E
1550.304	1.0	1566342	PROBE_OFF	n/a	n/a	4	-999	n/a	n/a	n/a	n/a	11	[0, 0, 0]	-999	PAL1	2	R1278E
1551.304	0.016	1567342	REC_END	n/a	n/a	4	-999	n/a	n/a	n/a	n/a	11	[0, 0, 0]	-999	PAL1	2	R1278E
1551.32	0.267	1567358	TEST_ORIENT	n/a	n/a	5	5	BIRD	PASS	BIRD	HOOF	11	[0, 0, 0]	-999	PAL1	2	R1278E
1551.587	0.584	1567625	RETRIEVAL_ORIENT_OFF	n/a	n/a	4	-999	n/a	n/a	n/a	n/a	11	[0, 0, 0]	-999	PAL1	2	R1278E
1552.171	4.0	1568209	TEST_PROBE	n/a	wordpools/wordpool_EN.txt	5	5	BIRD	PASS	BIRD	HOOF	11	[0, 0, 0]	-999	PAL1	2	R1278E
1552.171	3.279	1568209	REC_START	n/a	n/a	5	-999	n/a	PASS	n/a	n/a	11	[0, 0, 0]	-999	PAL1	2	R1278E
1555.45	0.738	1571488	REC_EVENT	3.279	n/a	5	5	BIRD	PASS	BIRD	HOOF	11	[0, 0, 0]	-999	PAL1	2	R1278E
1556.188	1.0	1572226	PROBE_OFF	n/a	n/a	5	-999	n/a	n/a	n/a	n/a	11	[0, 0, 0]	-999	PAL1	2	R1278E
1557.188	0.017	1573226	REC_END	n/a	n/a	5	-999	n/a	n/a	n/a	n/a	11	[0, 0, 0]	-999	PAL1	2	R1278E
1557.205	0.266	1573243	TEST_ORIENT	n/a	n/a	6	6	MILK	SEA	MILK	SEA	11	[0, 0, 0]	-999	PAL1	2	R1278E
1557.471	0.767	1573509	RETRIEVAL_ORIENT_OFF	n/a	n/a	5	-999	n/a	n/a	n/a	n/a	11	[0, 0, 0]	-999	PAL1	2	R1278E
1558.238	4.0	1574276	TEST_PROBE	n/a	wordpools/wordpool_EN.txt	6	6	MILK	SEA	MILK	SEA	11	[0, 0, 0]	-999	PAL1	2	R1278E
1558.239	0.859	1574277	REC_START	n/a	n/a	6	-999	n/a	SEA	n/a	n/a	11	[0, 0, 0]	-999	PAL1	2	R1278E
1559.098	3.15	1575136	REC_EVENT	0.859	n/a	6	6	MILK	SEA	MILK	SEA	11	[0, 0, 0]	-999	PAL1	2	R1278E
1562.248	0.008	1578286	REC_EVENT	4.009	n/a	6	6	MILK	SEA	MILK	SEA	11	[0, 0, 0]	-999	PAL1	2	R1278E
1562.256	1.0	1578294	PROBE_OFF	n/a	n/a	6	-999	n/a	n/a	n/a	n/a	11	[0, 0, 0]	-999	PAL1	2	R1278E
1563.256	0.01	1579294	REC_END	n/a	n/a	6	-999	n/a	n/a	n/a	n/a	11	[0, 0, 0]	-999	PAL1	2	R1278E
1563.266	6.941	1579304	RECALL_END	n/a	n/a	-999	-999	n/a	n/a	n/a	n/a	11	[0, 0, 0]	-999	PAL1	2	R1278E
1570.207	10.929	1586244	TRIAL	n/a	n/a	-999	-999	n/a	n/a	n/a	n/a	12	[0, 0, 0]	-999	PAL1	2	R1278E
1581.136	0.006	1597173	ENCODING_START	n/a	n/a	-999	-999	n/a	n/a	n/a	n/a	12	[0, 0, 0]	-999	PAL1	2	R1278E
1581.142	0.267	1597179	STUDY_ORIENT	n/a	n/a	1	3	BOAT	SNAIL	SNAIL	BOAT	12	[0, 0, 0]	-999	PAL1	2	R1278E
1581.409	0.584	1597446	STUDY_ORIENT_OFF	n/a	n/a	1	3	BOAT	SNAIL	SNAIL	BOAT	12	[0, 0, 0]	-999	PAL1	2	R1278E
1581.993	4.0	1598030	STUDY_PAIR	n/a	wordpools/wordpool_EN.txt	1	3	BOAT	SNAIL	SNAIL	BOAT	12	[0, 0, 0]	-999	PAL1	2	R1278E
1586.011	1.017	1602048	PAIR_OFF	n/a	n/a	1	3	BOAT	SNAIL	SNAIL	BOAT	12	[0, 0, 0]	-999	PAL1	2	R1278E
1587.028	0.265	1603065	STUDY_ORIENT	n/a	n/a	2	4	SOUP	SHARK	SHARK	SOUP	12	[0, 0, 0]	-999	PAL1	2	R1278E
1587.293	0.601	1603330	STUDY_ORIENT_OFF	n/a	n/a	2	4	SOUP	SHARK	SHARK	SOUP	12	[0, 0, 0]	-999	PAL1	2	R1278E
1587.894	4.0	1603931	STUDY_PAIR	n/a	wordpools/wordpool_EN.txt	2	4	SOUP	SHARK	SHARK	SOUP	12	[0, 0, 0]	-999	PAL1	2	R1278E
1591.895	1.017	1607931	PAIR_OFF	n/a	n/a	2	4	SOUP	SHARK	SHARK	SOUP	12	[0, 0, 0]	-999	PAL1	2	R1278E
