onset	duration	sample	trial_type	response_time	stim_file	serialpos	probepos	probe_word	resp_word	study_1	study_2	list	test	answer	experiment	session	subject
0.0	0.0	-1	INSTRUCT_VIDEO_ON	n/a	n/a	-999	-999	n/a	n/a	n/a	n/a	-999	[0, 0, 0]	-999	PAL1	0	R1196N
0.0	5.634	-1	INSTRUCT_VIDEO_OFF	n/a	n/a	-999	-999	n/a	n/a	n/a	n/a	-999	[0, 0, 0]	-999	PAL1	0	R1196N
5.634	0.0	-1	SESS_START	n/a	n/a	-999	-999	n/a	n/a	n/a	n/a	-999	[0, 0, 0]	-999	PAL1	0	R1196N
5.634	169.742	-1	MIC_TEST	n/a	n/a	-999	-999	n/a	n/a	n/a	n/a	-999	[0, 0, 0]	-999	PAL1	0	R1196N
175.376	14.043	113472	PRACTICE_TRIAL	n/a	n/a	-999	-999	n/a	n/a	n/a	n/a	-1	[0, 0, 0]	-999	PAL1	0	R1196N
189.419	0.006	127515	ENCODING_START	n/a	n/a	-999	-999	n/a	n/a	n/a	n/a	-1	[0, 0, 0]	-999	PAL1	0	R1196N
189.425	0.267	127521	PRACTICE_ORIENT	n/a	n/a	1	3	WATCH	RING	WATCH	RING	-1	[0, 0, 0]	-999	PAL1	0	R1196N
189.692	0.517	127788	PRACTICE_ORIENT_OFF	n/a	n/a	1	3	WATCH	RING	WATCH	RING	-1	[0, 0, 0]	-999	PAL1	0	R1196N
190.209	4.0	128305	PRACTICE_PAIR	n/a	n/a	1	3	WATCH	RING	WATCH	RING	-1	[0, 0, 0]	-999	PAL1	0	R1196N
194.226	1.016	132322	PRACTICE_PAIR_OFF	n/a	n/a	1	3	WATCH	RING	WATCH	RING	-1	[0, 0, 0]	-999	PAL1	0	R1196N
195.242	0.267	133338	PRACTICE_ORIENT	n/a	n/a	2	6	WAGON	FLOOD	FLOOD	WAGON	-1	[0, 0, 0]	-999	PAL1	0	R1196N
195.509	0.684	133605	PRACTICE_ORIENT_OFF	n/a	n/a	2	6	WAGON	FLOOD	FLOOD	WAGON	-1	[0, 0, 0]	-999	PAL1	0	R1196N
196.193	4.0	134289	PRACTICE_PAIR	n/a	n/a	2	6	WAGON	FLOOD	FLOOD	WAGON	-1	[0, 0, 0]	-999	PAL1	0	R1196N
200.211	1.015	138307	PRACTICE_PAIR_OFF	n/a	n/a	2	6	WAGON	FLOOD	FLOOD	WAGON	-1	[0, 0, 0]	-999	PAL1	0	R1196N
201.226	0.267	139322	PRACTICE_ORIENT	n/a	n/a	3	5	COTTON	CHEST	COTTON	CHEST	-1	[0, 0, 0]	-999	PAL1	0	R1196N
201.493	0.668	139589	PRACTICE_ORIENT_OFF	n/a	n/a	3	5	COTTON	CHEST	COTTON	CHEST	-1	[0, 0, 0]	-999	PAL1	0	R1196N
202.161	4.0	140257	PRACTICE_PAIR	n/a	n/a	3	5	COTTON	CHEST	COTTON	CHEST	-1	[0, 0, 0]	-999	PAL1	0	R1196N
206.178	1.017	144274	PRACTICE_PAIR_OFF	n/a	n/a	3	5	COTTON	CHEST	COTTON	CHEST	-1	[0, 0, 0]	-999	PAL1	0	R1196N
207.195	0.266	145291	PRACTICE_ORIENT	n/a	n/a	4	4	RHINO	CAMEL	RHINO	CAMEL	-1	[0, 0, 0]	-999	PAL1	0	R1196N
207.461	0.534	145557	PRACTICE_ORIENT_OFF	n/a	n/a	4	4	RHINO	CAMEL	RHINO	CAMEL	-1	[0, 0, 0]	-999	PAL1	0	R1196N
207.995	4.0	146091	PRACTICE_PAIR	n/a	n/a	4	4	RHINO	CAMEL	RHINO	CAMEL	-1	[0, 0, 0]	-999	PAL1	0	R1196N
212.012	1.017	150108	PRACTICE_PAIR_OFF	n/a	n/a	4	4	RHINO	CAMEL	RHINO	CAMEL	-1	[0, 0, 0]	-999	PAL1	0	R1196N
213.029	0.266	151125	PRACTICE_ORIENT	n/a	n/a	5	1	IRON	BEAN	BEAM	IRON	-1	[0, 0, 0]	-999	PAL1	0	R1196N
213.295	0.701	151391	PRACTICE_ORIENT_OFF	n/a	n/a	5	1	IRON	BEAN	BEAM	IRON	-1	[0, 0, 0]	-999	PAL1	0	R1196N
213.996	4.0	152092	PRACTICE_PAIR	n/a	n/a	5	1	IRON	BEAN	BEAM	IRON	-1	[0, 0, 0]	-999	PAL1	0	R1196N
218.013	1.017	156109	PRACTICE_PAIR_OFF	n/a	n/a	5	1	IRON	BEAN	BEAM	IRON	-1	[0, 0, 0]	-999	PAL1	0	R1196N
219.03	0.266	157126	PRACTICE_ORIENT	n/a	n/a	6	2	TONGUE	ATTIC	ATTIC	TONGUE	-1	[0, 0, 0]	-999	PAL1	0	R1196N
219.296	0.651	157392	PRACTICE_ORIENT_OFF	n/a	n/a	6	2	TONGUE	ATTIC	ATTIC	TONGUE	-1	[0, 0, 0]	-999	PAL1	0	R1196N
219.947	4.0	158043	PRACTICE_PAIR	n/a	n/a	6	2	TONGUE	ATTIC	ATTIC	TONGUE	-1	[0, 0, 0]	-999	PAL1	0	R1196N
223.964	1.001	162060	PRACTICE_PAIR_OFF	n/a	n/a	6	2	TONGUE	ATTIC	ATTIC	TONGUE	-1	[0, 0, 0]	-999	PAL1	0	R1196N
224.965	0.0	163061	ENCODING_END	n/a	n/a	-999	-999	n/a	n/a	n/a	n/a	-1	[0, 0, 0]	-999	PAL1	0	R1196N
224.965	0.0	163061	MATH_START	n/a	n/a	-999	-999	n/a	n/a	n/a	n/a	-1	[0, 0, 0]	-999	PAL1	0	R1196N
224.965	0.016	163061	START	n/a	n/a	-999	-999	n/a	n/a	n/a	n/a	-1	[-999, -999, -999]	-999	PAL1	0	R1196N
224.981	5.616	163077	PROB	5590.0	n/a	-999	-999	n/a	n/a	n/a	n/a	-1	[1, 7, 5]	13	PAL1	0	R1196N
230.597	3.502	168692	PROB	3471.0	n/a	-999	-999	n/a	n/a	n/a	n/a	-1	[2, 1, 7]	10	PAL1	0	R1196N
234.099	2.449	172194	PROB	2424.0	n/a	-999	-999	n/a	n/a	n/a	n/a	-1	[3, 5, 5]	13	PAL1	0	R1196N
236.548	2.817	174643	PROB	2791.0	n/a	-999	-999	n/a	n/a	n/a	n/a	-1	[6, 1, 4]	11	PAL1	0	R1196N
239.365	4.3	177460	PROB	4278.0	n/a	-999	-999	n/a	n/a	n/a	n/a	-1	[6, 8, 6]	20	PAL1	0	R1196N
243.665	4.954	181760	PROB	4954.0	n/a	-999	-999	n/a	n/a	n/a	n/a	-1	[2, 9, 8]	19	PAL1	0	R1196N
248.619	0.014	186714	STOP	n/a	n/a	-999	-999	n/a	n/a	n/a	n/a	-1	[-999, -999, -999]	-999	PAL1	0	R1196N
248.633	0.0	186728	MATH_END	n/a	n/a	-999	-999	n/a	n/a	n/a	n/a	-1	[0, 0, 0]	-999	PAL1	0	R1196N
248.633	0.017	186728	RECALL_START	n/a	n/a	-999	-999	n/a	n/a	n/a	n/a	-1	[0, 0, 0]	-999	PAL1	0	R1196N
248.65	0.267	186745	PRACTICE_RETRIEVAL_ORIENT	n/a	n/a	5	1	IRON	BEAN	BEAM	IRON	-1	[0, 0, 0]	-999	PAL1	0	R1196N
248.917	0.683	187012	PRACTICE_RETRIEVAL_ORIENT_OFF	n/a	n/a	5	1	IRON	BEAN	BEAM	IRON	-1	[0, 0, 0]	-999	PAL1	0	R1196N
249.6	4.0	187695	PRACTICE_PROBE	n/a	n/a	5	1	IRON	BEAN	BEAM	IRON	-1	[0, 0, 0]	-999	PAL1	0	R1196N
249.6	1.285	187695	REC_START	n/a	n/a	5	-999	n/a	BEAN	n/a	n/a	-1	[0, 0, 0]	-999	PAL1	0	R1196N
250.885	2.732	188980	REC_EVENT	1285.0	n/a	5	1	IRON	BEAN	BEAM	IRON	-1	[0, 0, 0]	-999	PAL1	0	R1196N
253.617	1.0	191712	PROBE_OFF	n/a	n/a	5	-999	n/a	n/a	n/a	n/a	-1	[0, 0, 0]	-999	PAL1	0	R1196N
254.617	0.017	192712	REC_END	n/a	n/a	5	-999	n/a	n/a	n/a	n/a	-1	[0, 0, 0]	-999	PAL1	0	R1196N
254.634	0.266	192729	PRACTICE_RETRIEVAL_ORIENT	n/a	n/a	6	2	TONGUE	ATTIC	ATTIC	TONGUE	-1	[0, 0, 0]	-999	PAL1	0	R1196N
254.9	0.567	192995	PRACTICE_RETRIEVAL_ORIENT_OFF	n/a	n/a	6	2	TONGUE	ATTIC	ATTIC	TONGUE	-1	[0, 0, 0]	-999	PAL1	0	R1196N
255.467	4.0	193562	PRACTICE_PROBE	n/a	n/a	6	2	TONGUE	ATTIC	ATTIC	TONGUE	-1	[0, 0, 0]	-999	PAL1	0	R1196N
255.468	0.921	193563	REC_START	n/a	n/a	6	-999	n/a	ATTIC	n/a	n/a	-1	[0, 0, 0]	-999	PAL1	0	R1196N
256.389	3.095	194484	REC_EVENT	921.0	n/a	6	2	TONGUE	ATTIC	ATTIC	TONGUE	-1	[0, 0, 0]	-999	PAL1	0	R1196N
259.484	1.0	197579	PROBE_OFF	n/a	n/a	6	-999	n/a	n/a	n/a	n/a	-1	[0, 0, 0]	-999	PAL1	0	R1196N
260.484	0.017	198579	REC_END	n/a	n/a	6	-999	n/a	n/a	n/a	n/a	-1	[0, 0, 0]	-999	PAL1	0	R1196N
260.501	0.267	198596	PRACTICE_RETRIEVAL_ORIENT	n/a	n/a	1	3	WATCH	RING	WATCH	RING	-1	[0, 0, 0]	-999	PAL1	0	R1196N
260.768	0.567	198863	PRACTICE_RETRIEVAL_ORIENT_OFF	n/a	n/a	1	3	WATCH	RING	WATCH	RING	-1	[0, 0, 0]	-999	PAL1	0	R1196N
261.335	4.0	199430	PRACTICE_PROBE	n/a	n/a	1	3	WATCH	RING	WATCH	RING	-1	[0, 0, 0]	-999	PAL1	0	R1196N
261.335	1.034	199430	REC_START	n/a	n/a	1	-999	n/a	RING	n/a	n/a	-1	[0, 0, 0]	-999	PAL1	0	R1196N
262.369	2.983	200464	REC_EVENT	1034.0	n/a	1	3	WATCH	RING	WATCH	RING	-1	[0, 0, 0]	-999	PAL1	0	R1196N
265.352	1.0	203447	PROBE_OFF	n/a	n/a	1	-999	n/a	n/a	n/a	n/a	-1	[0, 0, 0]	-999	PAL1	0	R1196N
266.352	0.016	204447	REC_END	n/a	n/a	1	-999	n/a	n/a	n/a	n/a	-1	[0, 0, 0]	-999	PAL1	0	R1196N
266.368	0.267	204463	PRACTICE_RETRIEVAL_ORIENT	n/a	n/a	4	4	RHINO	CAMEL	RHINO	CAMEL	-1	[0, 0, 0]	-999	PAL1	0	R1196N
266.635	0.684	204730	PRACTICE_RETRIEVAL_ORIENT_OFF	n/a	n/a	4	4	RHINO	CAMEL	RHINO	CAMEL	-1	[0, 0, 0]	-999	PAL1	0	R1196N
267.319	0.0	205414	REC_START	n/a	n/a	4	-999	n/a	CAMEL	n/a	n/a	-1	[0, 0, 0]	-999	PAL1	0	R1196N
267.319	4.0	205414	PRACTICE_PROBE	n/a	n/a	4	4	RHINO	CAMEL	RHINO	CAMEL	-1	[0, 0, 0]	-999	PAL1	0	R1196N
270.024	1.312	208119	REC_EVENT	2705.0	n/a	4	4	RHINO	CAMEL	RHINO	CAMEL	-1	[0, 0, 0]	-999	PAL1	0	R1196N
271.336	1.0	209431	PROBE_OFF	n/a	n/a	4	-999	n/a	n/a	n/a	n/a	-1	[0, 0, 0]	-999	PAL1	0	R1196N
272.336	0.017	210431	REC_END	n/a	n/a	4	-999	n/a	n/a	n/a	n/a	-1	[0, 0, 0]	-999	PAL1	0	R1196N
272.353	0.266	210448	PRACTICE_RETRIEVAL_ORIENT	n/a	n/a	3	5	COTTON	CHEST	COTTON	CHEST	-1	[0, 0, 0]	-999	PAL1	0	R1196N
272.619	0.617	210714	PRACTICE_RETRIEVAL_ORIENT_OFF	n/a	n/a	3	5	COTTON	CHEST	COTTON	CHEST	-1	[0, 0, 0]	-999	PAL1	0	R1196N
273.236	4.0	211331	PRACTICE_PROBE	n/a	n/a	3	5	COTTON	CHEST	COTTON	CHEST	-1	[0, 0, 0]	-999	PAL1	0	R1196N
273.237	1.035	211332	REC_START	n/a	n/a	3	-999	n/a	CHEST	n/a	n/a	-1	[0, 0, 0]	-999	PAL1	0	R1196N
274.272	2.981	212367	REC_EVENT	1035.0	n/a	3	5	COTTON	CHEST	COTTON	CHEST	-1	[0, 0, 0]	-999	PAL1	0	R1196N
277.253	1.001	215348	PROBE_OFF	n/a	n/a	3	-999	n/a	n/a	n/a	n/a	-1	[0, 0, 0]	-999	PAL1	0	R1196N
278.254	0.016	216349	REC_END	n/a	n/a	3	-999	n/a	n/a	n/a	n/a	-1	[0, 0, 0]	-999	PAL1	0	R1196N
278.27	0.267	216365	PRACTICE_RETRIEVAL_ORIENT	n/a	n/a	2	6	WAGON	FLOOD	FLOOD	WAGON	-1	[0, 0, 0]	-999	PAL1	0	R1196N
278.537	0.568	216632	PRACTICE_RETRIEVAL_ORIENT_OFF	n/a	n/a	6	6	WAGON	FLOOD	FLOOD	WAGON	-1	[0, 0, 0]	-999	PAL1	0	R1196N
279.105	0.0	217200	REC_START	n/a	n/a	2	-999	n/a	FLOOD	n/a	n/a	-1	[0, 0, 0]	-999	PAL1	0	R1196N
279.105	4.0	217200	PRACTICE_PROBE	n/a	n/a	2	6	WAGON	FLOOD	FLOOD	WAGON	-1	[0, 0, 0]	-999	PAL1	0	R1196N
280.361	2.761	218456	REC_EVENT	1256.0	n/a	2	6	WAGON	FLOOD	FLOOD	WAGON	-1	[0, 0, 0]	-999	PAL1	0	R1196N
283.122	1.0	221217	PROBE_OFF	n/a	n/a	2	-999	n/a	n/a	n/a	n/a	-1	[0, 0, 0]	-999	PAL1	0	R1196N
284.122	0.004	222217	REC_END	n/a	n/a	2	-999	n/a	n/a	n/a	n/a	-1	[0, 0, 0]	-999	PAL1	0	R1196N
284.126	15.214	222221	RECALL_END	n/a	n/a	-999	-999	n/a	n/a	n/a	n/a	-1	[0, 0, 0]	-999	PAL1	0	R1196N
299.34	10.928	237435	TRIAL	n/a	n/a	-999	-999	n/a	n/a	n/a	n/a	1	[0, 0, 0]	-999	PAL1	0	R1196N
310.268	0.006	248363	ENCODING_START	n/a	n/a	-999	-999	n/a	n/a	n/a	n/a	1	[0, 0, 0]	-999	PAL1	0	R1196N
310.274	0.267	248369	STUDY_ORIENT	n/a	n/a	1	3	CAVE	POND	CAVE	POND	1	[0, 0, 0]	-999	PAL1	0	R1196N
310.541	0.668	248636	STUDY_ORIENT_OFF	n/a	n/a	1	3	CAVE	POND	CAVE	POND	1	[0, 0, 0]	-999	PAL1	0	R1196N
311.209	4.0	249304	STUDY_PAIR	n/a	wordpools/wordpool_EN.txt	1	3	CAVE	POND	CAVE	POND	1	[0, 0, 0]	-999	PAL1	0	R1196N
315.225	1.017	253320	PAIR_OFF	n/a	n/a	1	3	CAVE	POND	CAVE	POND	1	[0, 0, 0]	-999	PAL1	0	R1196N
316.242	0.267	254337	STUDY_ORIENT	n/a	n/a	2	4	FROG	DOCK	FROG	DOCK	1	[0, 0, 0]	-999	PAL1	0	R1196N
316.509	0.601	254604	STUDY_ORIENT_OFF	n/a	n/a	2	4	FROG	DOCK	FROG	DOCK	1	[0, 0, 0]	-999	PAL1	0	R1196N
317.11	4.0	255205	STUDY_PAIR	n/a	wordpools/wordpool_EN.txt	2	4	FROG	DOCK	FROG	DOCK	1	[0, 0, 0]	-999	PAL1	0	R1196N
321.127	1.017	259222	PAIR_OFF	n/a	n/a	2	4	FROG	DOCK	FROG	DOCK	1	[0, 0, 0]	-999	PAL1	0	R1196N
322.144	0.265	260239	STUDY_ORIENT	n/a	n/a	3	5	COW	DOLL	COW	DOLL	1	[0, 0, 0]	-999	PAL1	0	R1196N
322.409	0.718	260504	STUDY_ORIENT_OFF	n/a	n/a	3	5	COW	DOLL	COW	DOLL	1	[0, 0, 0]	-999	PAL1	0	R1196N
323.127	4.0	261222	STUDY_PAIR	n/a	wordpools/wordpool_EN.txt	3	5	COW	DOLL	COW	DOLL	1	[0, 0, 0]	-999	PAL1	0	R1196N
327.144	1.017	265239	PAIR_OFF	n/a	n/a	3	5	COW	DOLL	COW	DOLL	1	[0, 0, 0]	-999	PAL1	0	R1196N
328.161	0.266	266256	STUDY_ORIENT	n/a	n/a	4	2	CRANE	CLOCK	CRANE	CLOCK	1	[0, 0, 0]	-999	PAL1	0	R1196N
328.427	0.701	266522	STUDY_ORIENT_OFF	n/a	n/a	4	2	CRANE	CLOCK	CRANE	CLOCK	1	[0, 0, 0]	-999	PAL1	0	R1196N
329.128	4.0	267223	STUDY_PAIR	n/a	wordpools/wordpool_EN.txt	4	2	CRANE	CLOCK	CRANE	CLOCK	1	[0, 0, 0]	-999	PAL1	0	R1196N
333.145	1.017	271239	PAIR_OFF	n/a	n/a	4	2	CRANE	CLOCK	CRANE	CLOCK	1	[0, 0, 0]	-999	PAL1	0	R1196N
334.162	0.266	272256	STUDY_ORIENT	n/a	n/a	5	1	ARM	n/a	PET	ARM	1	[0, 0, 0]	-999	PAL1	0	R1196N
334.428	0.651	272522	STUDY_ORIENT_OFF	n/a	n/a	5	1	ARM	n/a	PET	ARM	1	[0, 0, 0]	-999	PAL1	0	R1196N
335.079	4.0	273173	STUDY_PAIR	n/a	wordpools/wordpool_EN.txt	5	1	ARM	n/a	PET	ARM	1	[0, 0, 0]	-999	PAL1	0	R1196N
339.096	1.017	277190	PAIR_OFF	n/a	n/a	5	1	ARM	n/a	PET	ARM	1	[0, 0, 0]	-999	PAL1	0	R1196N
340.113	0.265	278207	STUDY_ORIENT	n/a	n/a	6	6	CUBE	BAG	BAG	CUBE	1	[0, 0, 0]	-999	PAL1	0	R1196N
340.378	0.618	278472	STUDY_ORIENT_OFF	n/a	n/a	6	6	CUBE	BAG	BAG	CUBE	1	[0, 0, 0]	-999	PAL1	0	R1196N
340.996	4.0	279090	STUDY_PAIR	n/a	wordpools/wordpool_EN.txt	6	6	CUBE	BAG	BAG	CUBE	1	[0, 0, 0]	-999	PAL1	0	R1196N
345.013	1.0	283107	PAIR_OFF	n/a	n/a	6	6	CUBE	BAG	BAG	CUBE	1	[0, 0, 0]	-999	PAL1	0	R1196N
346.013	0.0	284107	ENCODING_END	n/a	n/a	-999	-999	n/a	n/a	n/a	n/a	1	[0, 0, 0]	-999	PAL1	0	R1196N
346.013	0.001	284107	MATH_START	n/a	n/a	-999	-999	n/a	n/a	n/a	n/a	1	[0, 0, 0]	-999	PAL1	0	R1196N
346.014	0.016	284108	START	n/a	n/a	-999	-999	n/a	n/a	n/a	n/a	1	[-999, -999, -999]	-999	PAL1	0	R1196N
346.03	10.201	284124	PROB	10171.0	n/a	-999	-999	n/a	n/a	n/a	n/a	1	[5, 4, 3]	12	PAL1	0	R1196N
356.231	3.283	294325	PROB	3248.0	n/a	-999	-999	n/a	n/a	n/a	n/a	1	[1, 3, 5]	9	PAL1	0	R1196N
359.514	4.001	297608	PROB	3964.0	n/a	-999	-999	n/a	n/a	n/a	n/a	1	[1, 4, 9]	14	PAL1	0	R1196N
363.515	3.565	301609	PROB	3565.0	n/a	-999	-999	n/a	n/a	n/a	n/a	1	[3, 4, 4]	11	PAL1	0	R1196N
367.08	0.02	305174	STOP	n/a	n/a	-999	-999	n/a	n/a	n/a	n/a	1	[-999, -999, -999]	-999	PAL1	0	R1196N
367.1	0.0	305194	MATH_END	n/a	n/a	-999	-999	n/a	n/a	n/a	n/a	1	[0, 0, 0]	-999	PAL1	0	R1196N
367.1	0.016	305194	RECALL_START	n/a	n/a	-999	-999	n/a	n/a	n/a	n/a	1	[0, 0, 0]	-999	PAL1	0	R1196N
367.116	0.266	305210	TEST_ORIENT	n/a	n/a	5	1	ARM	n/a	PET	ARM	1	[0, 0, 0]	-999	PAL1	0	R1196N
367.382	0.735	305476	RETRIEVAL_ORIENT_OFF	n/a	n/a	-999	-999	n/a	n/a	n/a	n/a	1	[0, 0, 0]	-999	PAL1	0	R1196N
368.117	4.0	306211	TEST_PROBE	n/a	wordpools/wordpool_EN.txt	5	1	ARM	n/a	PET	ARM	1	[0, 0, 0]	-999	PAL1	0	R1196N
368.117	1.775	306211	REC_START	n/a	n/a	5	-999	n/a	n/a	n/a	n/a	1	[0, 0, 0]	-999	PAL1	0	R1196N
369.892	2.242	307986	REC_EVENT	1775.0	n/a	5	1	ARM	<>	PET	ARM	1	[0, 0, 0]	-999	PAL1	0	R1196N
372.134	1.0	310228	PROBE_OFF	n/a	n/a	5	-999	n/a	n/a	n/a	n/a	1	[0, 0, 0]	-999	PAL1	0	R1196N
373.134	0.016	311228	REC_END	n/a	n/a	5	-999	n/a	n/a	n/a	n/a	1	[0, 0, 0]	-999	PAL1	0	R1196N
373.15	0.266	311244	TEST_ORIENT	n/a	n/a	4	2	CRANE	CLOCK	CRANE	CLOCK	1	[0, 0, 0]	-999	PAL1	0	R1196N
373.416	0.734	311510	RETRIEVAL_ORIENT_OFF	n/a	n/a	5	-999	n/a	n/a	n/a	n/a	1	[0, 0, 0]	-999	PAL1	0	R1196N
374.15	4.0	312244	TEST_PROBE	n/a	wordpools/wordpool_EN.txt	4	2	CRANE	CLOCK	CRANE	CLOCK	1	[0, 0, 0]	-999	PAL1	0	R1196N
374.151	1.167	312245	REC_START	n/a	n/a	4	-999	n/a	CLOCK	n/a	n/a	1	[0, 0, 0]	-999	PAL1	0	R1196N
375.318	2.85	313412	REC_EVENT	1167.0	n/a	4	2	CRANE	CLOCK	CRANE	CLOCK	1	[0, 0, 0]	-999	PAL1	0	R1196N
378.168	1.0	316262	PROBE_OFF	n/a	n/a	4	-999	n/a	n/a	n/a	n/a	1	[0, 0, 0]	-999	PAL1	0	R1196N
379.168	0.017	317262	REC_END	n/a	n/a	4	-999	n/a	n/a	n/a	n/a	1	[0, 0, 0]	-999	PAL1	0	R1196N
379.185	0.265	317279	TEST_ORIENT	n/a	n/a	1	3	CAVE	POND	CAVE	POND	1	[0, 0, 0]	-999	PAL1	0	R1196N
379.45	0.735	317544	RETRIEVAL_ORIENT_OFF	n/a	n/a	4	-999	n/a	n/a	n/a	n/a	1	[0, 0, 0]	-999	PAL1	0	R1196N
380.185	4.0	318279	TEST_PROBE	n/a	wordpools/wordpool_EN.txt	1	3	CAVE	POND	CAVE	POND	1	[0, 0, 0]	-999	PAL1	0	R1196N
380.185	1.393	318279	REC_START	n/a	n/a	1	-999	n/a	POND	n/a	n/a	1	[0, 0, 0]	-999	PAL1	0	R1196N
381.578	1.02	319672	REC_EVENT	1393.0	n/a	1	3	CAVE	<>	CAVE	POND	1	[0, 0, 0]	-999	PAL1	0	R1196N
382.598	1.604	320692	REC_EVENT	2413.0	n/a	1	3	CAVE	POND	CAVE	POND	1	[0, 0, 0]	-999	PAL1	0	R1196N
384.202	1.0	322296	PROBE_OFF	n/a	n/a	1	-999	n/a	n/a	n/a	n/a	1	[0, 0, 0]	-999	PAL1	0	R1196N
385.202	0.017	323296	REC_END	n/a	n/a	1	-999	n/a	n/a	n/a	n/a	1	[0, 0, 0]	-999	PAL1	0	R1196N
385.219	0.265	323313	TEST_ORIENT	n/a	n/a	2	4	FROG	DOCK	FROG	DOCK	1	[0, 0, 0]	-999	PAL1	0	R1196N
385.484	0.552	323578	RETRIEVAL_ORIENT_OFF	n/a	n/a	1	-999	n/a	n/a	n/a	n/a	1	[0, 0, 0]	-999	PAL1	0	R1196N
386.036	4.0	324130	TEST_PROBE	n/a	wordpools/wordpool_EN.txt	2	4	FROG	DOCK	FROG	DOCK	1	[0, 0, 0]	-999	PAL1	0	R1196N
386.036	1.762	324130	REC_START	n/a	n/a	2	-999	n/a	DOCK	n/a	n/a	1	[0, 0, 0]	-999	PAL1	0	R1196N
387.798	2.255	325892	REC_EVENT	1762.0	n/a	2	4	FROG	DOCK	FROG	DOCK	1	[0, 0, 0]	-999	PAL1	0	R1196N
390.053	1.0	328147	PROBE_OFF	n/a	n/a	2	-999	n/a	n/a	n/a	n/a	1	[0, 0, 0]	-999	PAL1	0	R1196N
391.053	0.017	329147	REC_END	n/a	n/a	2	-999	n/a	n/a	n/a	n/a	1	[0, 0, 0]	-999	PAL1	0	R1196N
391.07	0.265	329164	TEST_ORIENT	n/a	n/a	3	5	COW	DOLL	COW	DOLL	1	[0, 0, 0]	-999	PAL1	0	R1196N
391.335	0.601	329429	RETRIEVAL_ORIENT_OFF	n/a	n/a	2	-999	n/a	n/a	n/a	n/a	1	[0, 0, 0]	-999	PAL1	0	R1196N
391.936	4.0	330030	TEST_PROBE	n/a	wordpools/wordpool_EN.txt	3	5	COW	DOLL	COW	DOLL	1	[0, 0, 0]	-999	PAL1	0	R1196N
391.937	3.002	330031	REC_START	n/a	n/a	3	-999	n/a	DOLL	n/a	n/a	1	[0, 0, 0]	-999	PAL1	0	R1196N
394.939	1.015	333033	REC_EVENT	3002.0	n/a	3	5	COW	DOLL	COW	DOLL	1	[0, 0, 0]	-999	PAL1	0	R1196N
395.954	1.01	334048	PROBE_OFF	n/a	n/a	3	-999	n/a	n/a	n/a	n/a	1	[0, 0, 0]	-999	PAL1	0	R1196N
396.964	0.006	335058	REC_END	n/a	n/a	3	-999	n/a	n/a	n/a	n/a	1	[0, 0, 0]	-999	PAL1	0	R1196N
396.97	0.266	335064	TEST_ORIENT	n/a	n/a	6	6	CUBE	BAG	BAG	CUBE	1	[0, 0, 0]	-999	PAL1	0	R1196N
397.236	0.684	335330	RETRIEVAL_ORIENT_OFF	n/a	n/a	3	-999	n/a	n/a	n/a	n/a	1	[0, 0, 0]	-999	PAL1	0	R1196N
397.92	4.0	336014	TEST_PROBE	n/a	wordpools/wordpool_EN.txt	6	6	CUBE	BAG	BAG	CUBE	1	[0, 0, 0]	-999	PAL1	0	R1196N
397.921	1.119	336015	REC_START	n/a	n/a	6	-999	n/a	BAG	n/a	n/a	1	[0, 0, 0]	-999	PAL1	0	R1196N
399.04	2.898	337134	REC_EVENT	1119.0	n/a	6	6	CUBE	BAG	BAG	CUBE	1	[0, 0, 0]	-999	PAL1	0	R1196N
401.938	1.0	340032	PROBE_OFF	n/a	n/a	6	-999	n/a	n/a	n/a	n/a	1	[0, 0, 0]	-999	PAL1	0	R1196N
402.938	0.009	341032	REC_END	n/a	n/a	6	-999	n/a	n/a	n/a	n/a	1	[0, 0, 0]	-999	PAL1	0	R1196N
402.947	10.159	341041	RECALL_END	n/a	n/a	-999	-999	n/a	n/a	n/a	n/a	1	[0, 0, 0]	-999	PAL1	0	R1196N
413.106	10.928	351200	TRIAL	n/a	n/a	-999	-999	n/a	n/a	n/a	n/a	2	[0, 0, 0]	-999	PAL1	0	R1196N
424.034	0.007	362128	ENCODING_START	n/a	n/a	-999	-999	n/a	n/a	n/a	n/a	2	[0, 0, 0]	-999	PAL1	0	R1196N
424.041	0.265	362135	STUDY_ORIENT	n/a	n/a	1	3	GUARD	CLOWN	CLOWN	GUARD	2	[0, 0, 0]	-999	PAL1	0	R1196N
424.306	0.668	362400	STUDY_ORIENT_OFF	n/a	n/a	1	3	GUARD	CLOWN	CLOWN	GUARD	2	[0, 0, 0]	-999	PAL1	0	R1196N
424.974	4.0	363068	STUDY_PAIR	n/a	wordpools/wordpool_EN.txt	1	3	GUARD	CLOWN	CLOWN	GUARD	2	[0, 0, 0]	-999	PAL1	0	R1196N
428.991	1.017	367085	PAIR_OFF	n/a	n/a	1	3	GUARD	CLOWN	CLOWN	GUARD	2	[0, 0, 0]	-999	PAL1	0	R1196N
430.008	0.266	368102	STUDY_ORIENT	n/a	n/a	2	2	SNAKE	BLOOM	BLOOM	SNAKE	2	[0, 0, 0]	-999	PAL1	0	R1196N
430.274	0.668	368368	STUDY_ORIENT_OFF	n/a	n/a	2	2	SNAKE	BLOOM	BLOOM	SNAKE	2	[0, 0, 0]	-999	PAL1	0	R1196N
430.942	4.0	369036	STUDY_PAIR	n/a	wordpools/wordpool_EN.txt	2	2	SNAKE	BLOOM	BLOOM	SNAKE	2	[0, 0, 0]	-999	PAL1	0	R1196N
434.959	1.017	373052	PAIR_OFF	n/a	n/a	2	2	SNAKE	BLOOM	BLOOM	SNAKE	2	[0, 0, 0]	-999	PAL1	0	R1196N
435.976	0.265	374069	STUDY_ORIENT	n/a	n/a	3	5	BANK	MOOSE	BANK	MOOSE	2	[0, 0, 0]	-999	PAL1	0	R1196N
436.241	0.617	374334	STUDY_ORIENT_OFF	n/a	n/a	3	5	BANK	MOOSE	BANK	MOOSE	2	[0, 0, 0]	-999	PAL1	0	R1196N
436.858	4.0	374951	STUDY_PAIR	n/a	wordpools/wordpool_EN.txt	3	5	BANK	MOOSE	BANK	MOOSE	2	[0, 0, 0]	-999	PAL1	0	R1196N
440.875	1.017	378968	PAIR_OFF	n/a	n/a	3	5	BANK	MOOSE	BANK	MOOSE	2	[0, 0, 0]	-999	PAL1	0	R1196N
441.892	0.251	379985	STUDY_ORIENT	n/a	n/a	4	4	LAND	n/a	SAIL	LAND	2	[0, 0, 0]	-999	PAL1	0	R1196N
442.143	0.649	380236	STUDY_ORIENT_OFF	n/a	n/a	4	4	LAND	n/a	SAIL	LAND	2	[0, 0, 0]	-999	PAL1	0	R1196N
442.792	4.0	380885	STUDY_PAIR	n/a	wordpools/wordpool_EN.txt	4	4	LAND	n/a	SAIL	LAND	2	[0, 0, 0]	-999	PAL1	0	R1196N
446.809	1.017	384902	PAIR_OFF	n/a	n/a	4	4	LAND	n/a	SAIL	LAND	2	[0, 0, 0]	-999	PAL1	0	R1196N
447.826	0.268	385919	STUDY_ORIENT	n/a	n/a	5	1	LAWN	n/a	SEAT	LAWN	2	[0, 0, 0]	-999	PAL1	0	R1196N
448.094	0.632	386187	STUDY_ORIENT_OFF	n/a	n/a	5	1	LAWN	n/a	SEAT	LAWN	2	[0, 0, 0]	-999	PAL1	0	R1196N
448.726	4.0	386819	STUDY_PAIR	n/a	wordpools/wordpool_EN.txt	5	1	LAWN	n/a	SEAT	LAWN	2	[0, 0, 0]	-999	PAL1	0	R1196N
452.727	1.017	390820	PAIR_OFF	n/a	n/a	5	1	LAWN	n/a	SEAT	LAWN	2	[0, 0, 0]	-999	PAL1	0	R1196N
453.744	0.267	391837	STUDY_ORIENT	n/a	n/a	6	6	SHIELD	FLAME	FLAME	SHIELD	2	[0, 0, 0]	-999	PAL1	0	R1196N
454.011	0.716	392104	STUDY_ORIENT_OFF	n/a	n/a	6	6	SHIELD	FLAME	FLAME	SHIELD	2	[0, 0, 0]	-999	PAL1	0	R1196N
454.727	4.0	392820	STUDY_PAIR	n/a	wordpools/wordpool_EN.txt	6	6	SHIELD	FLAME	FLAME	SHIELD	2	[0, 0, 0]	-999	PAL1	0	R1196N
458.744	1.001	396837	PAIR_OFF	n/a	n/a	6	6	SHIELD	FLAME	FLAME	SHIELD	2	[0, 0, 0]	-999	PAL1	0	R1196N
459.745	0.0	397838	MATH_START	n/a	n/a	-999	-999	n/a	n/a	n/a	n/a	2	[0, 0, 0]	-999	PAL1	0	R1196N
459.745	0.0	397838	ENCODING_END	n/a	n/a	-999	-999	n/a	n/a	n/a	n/a	2	[0, 0, 0]	-999	PAL1	0	R1196N
459.745	0.016	397838	START	n/a	n/a	-999	-999	n/a	n/a	n/a	n/a	2	[-999, -999, -999]	-999	PAL1	0	R1196N
459.761	4.318	397854	PROB	4283.0	n/a	-999	-999	n/a	n/a	n/a	n/a	2	[1, 7, 7]	15	PAL1	0	R1196N
464.079	5.951	402172	PROB	5925.0	n/a	-999	-999	n/a	n/a	n/a	n/a	2	[9, 4, 6]	19	PAL1	0	R1196N
470.03	6.151	408123	PROB	6126.0	n/a	-999	-999	n/a	n/a	n/a	n/a	2	[3, 6, 5]	14	PAL1	0	R1196N
476.181	5.422	414274	PROB	5422.0	n/a	-999	-999	n/a	n/a	n/a	n/a	2	[9, 6, 7]	22	PAL1	0	R1196N
481.603	0.011	419696	STOP	n/a	n/a	-999	-999	n/a	n/a	n/a	n/a	2	[-999, -999, -999]	-999	PAL1	0	R1196N
481.614	0.001	419707	MATH_END	n/a	n/a	-999	-999	n/a	n/a	n/a	n/a	2	[0, 0, 0]	-999	PAL1	0	R1196N
481.615	0.016	419708	RECALL_START	n/a	n/a	-999	-999	n/a	n/a	n/a	n/a	2	[0, 0, 0]	-999	PAL1	0	R1196N
481.631	0.267	419724	TEST_ORIENT	n/a	n/a	5	1	LAWN	n/a	SEAT	LAWN	2	[0, 0, 0]	-999	PAL1	0	R1196N
481.898	0.749	419991	RETRIEVAL_ORIENT_OFF	n/a	n/a	-999	-999	n/a	n/a	n/a	n/a	2	[0, 0, 0]	-999	PAL1	0	R1196N
482.647	4.0	420740	TEST_PROBE	n/a	wordpools/wordpool_EN.txt	5	1	LAWN	n/a	SEAT	LAWN	2	[0, 0, 0]	-999	PAL1	0	R1196N
482.648	3.728	420741	REC_START	n/a	n/a	5	-999	n/a	n/a	n/a	n/a	2	[0, 0, 0]	-999	PAL1	0	R1196N
486.376	0.272	424469	REC_EVENT	3728.0	n/a	5	1	LAWN	<>	SEAT	LAWN	2	[0, 0, 0]	-999	PAL1	0	R1196N
486.648	1.0	424741	PROBE_OFF	n/a	n/a	5	-999	n/a	n/a	n/a	n/a	2	[0, 0, 0]	-999	PAL1	0	R1196N
487.648	0.017	425741	REC_END	n/a	n/a	5	-999	n/a	n/a	n/a	n/a	2	[0, 0, 0]	-999	PAL1	0	R1196N
487.665	0.268	425758	TEST_ORIENT	n/a	n/a	2	2	SNAKE	BLOOM	BLOOM	SNAKE	2	[0, 0, 0]	-999	PAL1	0	R1196N
487.933	0.699	426026	RETRIEVAL_ORIENT_OFF	n/a	n/a	5	-999	n/a	n/a	n/a	n/a	2	[0, 0, 0]	-999	PAL1	0	R1196N
488.632	4.0	426725	TEST_PROBE	n/a	wordpools/wordpool_EN.txt	2	2	SNAKE	BLOOM	BLOOM	SNAKE	2	[0, 0, 0]	-999	PAL1	0	R1196N
488.632	1.016	426725	REC_START	n/a	n/a	2	-999	n/a	BLOOM	n/a	n/a	2	[0, 0, 0]	-999	PAL1	0	R1196N
489.648	3.001	427741	REC_EVENT	1016.0	n/a	2	2	SNAKE	BLOOM	BLOOM	SNAKE	2	[0, 0, 0]	-999	PAL1	0	R1196N
492.649	1.0	430742	PROBE_OFF	n/a	n/a	2	-999	n/a	n/a	n/a	n/a	2	[0, 0, 0]	-999	PAL1	0	R1196N
493.649	0.017	431742	REC_END	n/a	n/a	2	-999	n/a	n/a	n/a	n/a	2	[0, 0, 0]	-999	PAL1	0	R1196N
493.666	0.267	431759	TEST_ORIENT	n/a	n/a	1	3	GUARD	CLOWN	CLOWN	GUARD	2	[0, 0, 0]	-999	PAL1	0	R1196N
493.933	0.583	432026	RETRIEVAL_ORIENT_OFF	n/a	n/a	2	-999	n/a	n/a	n/a	n/a	2	[0, 0, 0]	-999	PAL1	0	R1196N
494.516	4.0	432609	TEST_PROBE	n/a	wordpools/wordpool_EN.txt	1	3	GUARD	CLOWN	CLOWN	GUARD	2	[0, 0, 0]	-999	PAL1	0	R1196N
494.516	0.93	432609	REC_START	n/a	n/a	1	-999	n/a	CLOWN	n/a	n/a	2	[0, 0, 0]	-999	PAL1	0	R1196N
495.446	3.087	433539	REC_EVENT	930.0	n/a	1	3	GUARD	CLOWN	CLOWN	GUARD	2	[0, 0, 0]	-999	PAL1	0	R1196N
498.533	1.0	436626	PROBE_OFF	n/a	n/a	1	-999	n/a	n/a	n/a	n/a	2	[0, 0, 0]	-999	PAL1	0	R1196N
499.533	0.017	437626	REC_END	n/a	n/a	1	-999	n/a	n/a	n/a	n/a	2	[0, 0, 0]	-999	PAL1	0	R1196N
499.55	0.267	437643	TEST_ORIENT	n/a	n/a	4	4	LAND	n/a	SAIL	LAND	2	[0, 0, 0]	-999	PAL1	0	R1196N
499.817	0.649	437910	RETRIEVAL_ORIENT_OFF	n/a	n/a	1	-999	n/a	n/a	n/a	n/a	2	[0, 0, 0]	-999	PAL1	0	R1196N
500.466	4.0	438559	TEST_PROBE	n/a	wordpools/wordpool_EN.txt	4	4	LAND	n/a	SAIL	LAND	2	[0, 0, 0]	-999	PAL1	0	R1196N
500.467	4.017	438560	REC_START	n/a	n/a	4	-999	n/a	n/a	n/a	n/a	2	[0, 0, 0]	-999	PAL1	0	R1196N
504.484	0.998	442577	PROBE_OFF	n/a	n/a	4	-999	n/a	n/a	n/a	n/a	2	[0, 0, 0]	-999	PAL1	0	R1196N
505.482	0.002	443575	REC_EVENT	5015.0	n/a	4	4	LAND	<>	SAIL	LAND	2	[0, 0, 0]	-999	PAL1	0	R1196N
505.484	0.017	443577	REC_END	n/a	n/a	4	-999	n/a	n/a	n/a	n/a	2	[0, 0, 0]	-999	PAL1	0	R1196N
505.501	0.266	443594	TEST_ORIENT	n/a	n/a	3	5	BANK	MOOSE	BANK	MOOSE	2	[0, 0, 0]	-999	PAL1	0	R1196N
505.767	0.517	443860	RETRIEVAL_ORIENT_OFF	n/a	n/a	4	-999	n/a	n/a	n/a	n/a	2	[0, 0, 0]	-999	PAL1	0	R1196N
506.284	4.0	444377	TEST_PROBE	n/a	wordpools/wordpool_EN.txt	3	5	BANK	MOOSE	BANK	MOOSE	2	[0, 0, 0]	-999	PAL1	0	R1196N
506.285	1.276	444378	REC_START	n/a	n/a	3	-999	n/a	MOOSE	n/a	n/a	2	[0, 0, 0]	-999	PAL1	0	R1196N
507.561	2.74	445654	REC_EVENT	1276.0	n/a	3	5	BANK	MOOSE	BANK	MOOSE	2	[0, 0, 0]	-999	PAL1	0	R1196N
510.301	1.0	448394	PROBE_OFF	n/a	n/a	3	-999	n/a	n/a	n/a	n/a	2	[0, 0, 0]	-999	PAL1	0	R1196N
511.301	0.017	449394	REC_END	n/a	n/a	3	-999	n/a	n/a	n/a	n/a	2	[0, 0, 0]	-999	PAL1	0	R1196N
511.318	0.267	449411	TEST_ORIENT	n/a	n/a	6	6	SHIELD	FLAME	FLAME	SHIELD	2	[0, 0, 0]	-999	PAL1	0	R1196N
511.585	0.584	449678	RETRIEVAL_ORIENT_OFF	n/a	n/a	3	-999	n/a	n/a	n/a	n/a	2	[0, 0, 0]	-999	PAL1	0	R1196N
512.169	4.0	450262	TEST_PROBE	n/a	wordpools/wordpool_EN.txt	6	6	SHIELD	FLAME	FLAME	SHIELD	2	[0, 0, 0]	-999	PAL1	0	R1196N
512.17	0.886	450263	REC_START	n/a	n/a	6	-999	n/a	FLAME	n/a	n/a	2	[0, 0, 0]	-999	PAL1	0	R1196N
513.056	3.13	451149	REC_EVENT	886.0	n/a	6	6	SHIELD	FLAME	FLAME	SHIELD	2	[0, 0, 0]	-999	PAL1	0	R1196N
516.186	1.0	454279	PROBE_OFF	n/a	n/a	6	-999	n/a	n/a	n/a	n/a	2	[0, 0, 0]	-999	PAL1	0	R1196N
517.186	0.009	455279	REC_END	n/a	n/a	6	-999	n/a	n/a	n/a	n/a	2	[0, 0, 0]	-999	PAL1	0	R1196N
517.195	5.558	455288	RECALL_END	n/a	n/a	-999	-999	n/a	n/a	n/a	n/a	2	[0, 0, 0]	-999	PAL1	0	R1196N
522.753	10.928	460846	TRIAL	n/a	n/a	-999	-999	n/a	n/a	n/a	n/a	3	[0, 0, 0]	-999	PAL1	0	R1196N
533.681	0.007	471773	ENCODING_START	n/a	n/a	-999	-999	n/a	n/a	n/a	n/a	3	[0, 0, 0]	-999	PAL1	0	R1196N
533.688	0.267	471780	STUDY_ORIENT	n/a	n/a	1	3	BRUSH	PARK	PARK	BRUSH	3	[0, 0, 0]	-999	PAL1	0	R1196N
533.955	0.65	472047	STUDY_ORIENT_OFF	n/a	n/a	1	3	BRUSH	PARK	PARK	BRUSH	3	[0, 0, 0]	-999	PAL1	0	R1196N
534.605	4.0	472697	STUDY_PAIR	n/a	wordpools/wordpool_EN.txt	1	3	BRUSH	PARK	PARK	BRUSH	3	[0, 0, 0]	-999	PAL1	0	R1196N
538.622	1.017	476714	PAIR_OFF	n/a	n/a	1	3	BRUSH	PARK	PARK	BRUSH	3	[0, 0, 0]	-999	PAL1	0	R1196N
539.639	0.267	477731	STUDY_ORIENT	n/a	n/a	2	2	HAWK	WAND	WAND	HAWK	3	[0, 0, 0]	-999	PAL1	0	R1196N
539.906	0.549	477998	STUDY_ORIENT_OFF	n/a	n/a	2	2	HAWK	WAND	WAND	HAWK	3	[0, 0, 0]	-999	PAL1	0	R1196N
540.455	4.0	478547	STUDY_PAIR	n/a	wordpools/wordpool_EN.txt	2	2	HAWK	WAND	WAND	HAWK	3	[0, 0, 0]	-999	PAL1	0	R1196N
544.473	1.016	482565	PAIR_OFF	n/a	n/a	2	2	HAWK	WAND	WAND	HAWK	3	[0, 0, 0]	-999	PAL1	0	R1196N
545.489	0.267	483581	STUDY_ORIENT	n/a	n/a	3	5	GATE	n/a	MULE	GATE	3	[0, 0, 0]	-999	PAL1	0	R1196N
545.756	0.683	483848	STUDY_ORIENT_OFF	n/a	n/a	3	5	GATE	n/a	MULE	GATE	3	[0, 0, 0]	-999	PAL1	0	R1196N
546.439	4.0	484531	STUDY_PAIR	n/a	wordpools/wordpool_EN.txt	3	5	GATE	n/a	MULE	GATE	3	[0, 0, 0]	-999	PAL1	0	R1196N
550.457	1.017	488549	PAIR_OFF	n/a	n/a	3	5	GATE	n/a	MULE	GATE	3	[0, 0, 0]	-999	PAL1	0	R1196N
551.474	0.266	489566	STUDY_ORIENT	n/a	n/a	4	4	PIE	TENT	PIE	TENT	3	[0, 0, 0]	-999	PAL1	0	R1196N
551.74	0.717	489832	STUDY_ORIENT_OFF	n/a	n/a	4	4	PIE	TENT	PIE	TENT	3	[0, 0, 0]	-999	PAL1	0	R1196N
552.457	4.0	490549	STUDY_PAIR	n/a	wordpools/wordpool_EN.txt	4	4	PIE	TENT	PIE	TENT	3	[0, 0, 0]	-999	PAL1	0	R1196N
556.474	1.017	494566	PAIR_OFF	n/a	n/a	4	4	PIE	TENT	PIE	TENT	3	[0, 0, 0]	-999	PAL1	0	R1196N
557.491	0.267	495583	STUDY_ORIENT	n/a	n/a	5	1	SWAMP	MUG	MUG	SWAMP	3	[0, 0, 0]	-999	PAL1	0	R1196N
557.758	0.683	495850	STUDY_ORIENT_OFF	n/a	n/a	5	1	SWAMP	MUG	MUG	SWAMP	3	[0, 0, 0]	-999	PAL1	0	R1196N
558.441	4.0	496533	STUDY_PAIR	n/a	wordpools/wordpool_EN.txt	5	1	SWAMP	MUG	MUG	SWAMP	3	[0, 0, 0]	-999	PAL1	0	R1196N
562.458	1.017	500550	PAIR_OFF	n/a	n/a	5	1	SWAMP	MUG	MUG	SWAMP	3	[0, 0, 0]	-999	PAL1	0	R1196N
563.475	0.267	501567	STUDY_ORIENT	n/a	n/a	6	6	ROSE	SQUARE	SQUARE	ROSE	3	[0, 0, 0]	-999	PAL1	0	R1196N
563.742	0.683	501834	STUDY_ORIENT_OFF	n/a	n/a	6	6	ROSE	SQUARE	SQUARE	ROSE	3	[0, 0, 0]	-999	PAL1	0	R1196N
564.425	4.0	502517	STUDY_PAIR	n/a	wordpools/wordpool_EN.txt	6	6	ROSE	SQUARE	SQUARE	ROSE	3	[0, 0, 0]	-999	PAL1	0	R1196N
568.442	1.001	506534	PAIR_OFF	n/a	n/a	6	6	ROSE	SQUARE	SQUARE	ROSE	3	[0, 0, 0]	-999	PAL1	0	R1196N
569.443	0.0	507535	MATH_START	n/a	n/a	-999	-999	n/a	n/a	n/a	n/a	3	[0, 0, 0]	-999	PAL1	0	R1196N
569.443	0.0	507535	ENCODING_END	n/a	n/a	-999	-999	n/a	n/a	n/a	n/a	3	[0, 0, 0]	-999	PAL1	0	R1196N
569.443	0.016	507535	START	n/a	n/a	-999	-999	n/a	n/a	n/a	n/a	3	[-999, -999, -999]	-999	PAL1	0	R1196N
569.459	3.417	507551	PROB	3389.0	n/a	-999	-999	n/a	n/a	n/a	n/a	3	[1, 2, 7]	10	PAL1	0	R1196N
572.876	3.268	510968	PROB	3245.0	n/a	-999	-999	n/a	n/a	n/a	n/a	3	[2, 1, 6]	9	PAL1	0	R1196N
576.144	4.6	514236	PROB	4567.0	n/a	-999	-999	n/a	n/a	n/a	n/a	3	[9, 3, 6]	18	PAL1	0	R1196N
580.744	4.151	518836	PROB	4127.0	n/a	-999	-999	n/a	n/a	n/a	n/a	3	[5, 6, 3]	14	PAL1	0	R1196N
584.895	3.134	522987	PROB	3106.0	n/a	-999	-999	n/a	n/a	n/a	n/a	3	[7, 7, 9]	23	PAL1	0	R1196N
588.029	5.226	526121	PROB	5226.0	n/a	-999	-999	n/a	n/a	n/a	n/a	3	[3, 4, 9]	16	PAL1	0	R1196N
593.255	0.007	531347	STOP	n/a	n/a	-999	-999	n/a	n/a	n/a	n/a	3	[-999, -999, -999]	-999	PAL1	0	R1196N
593.262	0.001	531354	MATH_END	n/a	n/a	-999	-999	n/a	n/a	n/a	n/a	3	[0, 0, 0]	-999	PAL1	0	R1196N
593.263	0.016	531355	RECALL_START	n/a	n/a	-999	-999	n/a	n/a	n/a	n/a	3	[0, 0, 0]	-999	PAL1	0	R1196N
593.279	0.267	531371	TEST_ORIENT	n/a	n/a	5	1	SWAMP	MUG	MUG	SWAMP	3	[0, 0, 0]	-999	PAL1	0	R1196N
593.546	0.733	531638	RETRIEVAL_ORIENT_OFF	n/a	n/a	-999	-999	n/a	n/a	n/a	n/a	3	[0, 0, 0]	-999	PAL1	0	R1196N
594.279	4.0	532371	TEST_PROBE	n/a	wordpools/wordpool_EN.txt	5	1	SWAMP	MUG	MUG	SWAMP	3	[0, 0, 0]	-999	PAL1	0	R1196N
594.28	1.134	532372	REC_START	n/a	n/a	5	-999	n/a	MUG	n/a	n/a	3	[0, 0, 0]	-999	PAL1	0	R1196N
595.414	2.882	533506	REC_EVENT	1134.0	n/a	5	1	SWAMP	MUG	MUG	SWAMP	3	[0, 0, 0]	-999	PAL1	0	R1196N
598.296	1.0	536388	PROBE_OFF	n/a	n/a	5	-999	n/a	n/a	n/a	n/a	3	[0, 0, 0]	-999	PAL1	0	R1196N
599.296	0.017	537388	REC_END	n/a	n/a	5	-999	n/a	n/a	n/a	n/a	3	[0, 0, 0]	-999	PAL1	0	R1196N
599.313	0.267	537405	TEST_ORIENT	n/a	n/a	2	2	HAWK	WAND	WAND	HAWK	3	[0, 0, 0]	-999	PAL1	0	R1196N
599.58	0.568	537672	RETRIEVAL_ORIENT_OFF	n/a	n/a	5	-999	n/a	n/a	n/a	n/a	3	[0, 0, 0]	-999	PAL1	0	R1196N
600.148	0.0	538240	REC_START	n/a	n/a	2	-999	n/a	WAND	n/a	n/a	3	[0, 0, 0]	-999	PAL1	0	R1196N
600.148	4.0	538240	TEST_PROBE	n/a	wordpools/wordpool_EN.txt	2	2	HAWK	WAND	WAND	HAWK	3	[0, 0, 0]	-999	PAL1	0	R1196N
601.991	2.174	540083	REC_EVENT	1843.0	n/a	2	2	HAWK	WAND	WAND	HAWK	3	[0, 0, 0]	-999	PAL1	0	R1196N
604.165	1.0	542257	PROBE_OFF	n/a	n/a	2	-999	n/a	n/a	n/a	n/a	3	[0, 0, 0]	-999	PAL1	0	R1196N
605.165	0.017	543257	REC_END	n/a	n/a	2	-999	n/a	n/a	n/a	n/a	3	[0, 0, 0]	-999	PAL1	0	R1196N
605.182	0.265	543274	TEST_ORIENT	n/a	n/a	1	3	BRUSH	PARK	PARK	BRUSH	3	[0, 0, 0]	-999	PAL1	0	R1196N
605.447	0.601	543539	RETRIEVAL_ORIENT_OFF	n/a	n/a	2	-999	n/a	n/a	n/a	n/a	3	[0, 0, 0]	-999	PAL1	0	R1196N
606.048	4.0	544140	TEST_PROBE	n/a	wordpools/wordpool_EN.txt	1	3	BRUSH	PARK	PARK	BRUSH	3	[0, 0, 0]	-999	PAL1	0	R1196N
606.049	2.703	544141	REC_START	n/a	n/a	1	-999	n/a	PARK	n/a	n/a	3	[0, 0, 0]	-999	PAL1	0	R1196N
608.752	1.314	546844	REC_EVENT	2703.0	n/a	1	3	BRUSH	PARK	PARK	BRUSH	3	[0, 0, 0]	-999	PAL1	0	R1196N
610.066	1.0	548158	PROBE_OFF	n/a	n/a	1	-999	n/a	n/a	n/a	n/a	3	[0, 0, 0]	-999	PAL1	0	R1196N
611.066	0.016	549158	REC_END	n/a	n/a	1	-999	n/a	n/a	n/a	n/a	3	[0, 0, 0]	-999	PAL1	0	R1196N
611.082	0.266	549174	TEST_ORIENT	n/a	n/a	4	4	PIE	TENT	PIE	TENT	3	[0, 0, 0]	-999	PAL1	0	R1196N
611.348	0.585	549440	RETRIEVAL_ORIENT_OFF	n/a	n/a	1	-999	n/a	n/a	n/a	n/a	3	[0, 0, 0]	-999	PAL1	0	R1196N
611.933	4.0	550025	TEST_PROBE	n/a	wordpools/wordpool_EN.txt	4	4	PIE	TENT	PIE	TENT	3	[0, 0, 0]	-999	PAL1	0	R1196N
611.933	2.081	550025	REC_START	n/a	n/a	4	-999	n/a	TENT	n/a	n/a	3	[0, 0, 0]	-999	PAL1	0	R1196N
614.014	0.443	552106	REC_EVENT	2081.0	n/a	4	4	PIE	<>	PIE	TENT	3	[0, 0, 0]	-999	PAL1	0	R1196N
614.457	1.493	552549	REC_EVENT	2524.0	n/a	4	4	PIE	TENT	PIE	TENT	3	[0, 0, 0]	-999	PAL1	0	R1196N
615.95	1.0	554042	PROBE_OFF	n/a	n/a	4	-999	n/a	n/a	n/a	n/a	3	[0, 0, 0]	-999	PAL1	0	R1196N
616.95	0.017	555042	REC_END	n/a	n/a	4	-999	n/a	n/a	n/a	n/a	3	[0, 0, 0]	-999	PAL1	0	R1196N
616.967	0.265	555059	TEST_ORIENT	n/a	n/a	3	5	GATE	n/a	MULE	GATE	3	[0, 0, 0]	-999	PAL1	0	R1196N
617.232	0.685	555324	RETRIEVAL_ORIENT_OFF	n/a	n/a	4	-999	n/a	n/a	n/a	n/a	3	[0, 0, 0]	-999	PAL1	0	R1196N
617.917	4.0	556009	TEST_PROBE	n/a	wordpools/wordpool_EN.txt	3	5	GATE	n/a	MULE	GATE	3	[0, 0, 0]	-999	PAL1	0	R1196N
617.917	4.017	556009	REC_START	n/a	n/a	3	-999	n/a	n/a	n/a	n/a	3	[0, 0, 0]	-999	PAL1	0	R1196N
621.934	0.998	560026	PROBE_OFF	n/a	n/a	3	-999	n/a	n/a	n/a	n/a	3	[0, 0, 0]	-999	PAL1	0	R1196N
622.932	0.002	561024	REC_EVENT	5015.0	n/a	3	5	GATE	<>	MULE	GATE	3	[0, 0, 0]	-999	PAL1	0	R1196N
622.934	0.017	561026	REC_END	n/a	n/a	3	-999	n/a	n/a	n/a	n/a	3	[0, 0, 0]	-999	PAL1	0	R1196N
622.951	0.266	561043	TEST_ORIENT	n/a	n/a	6	6	ROSE	SQUARE	SQUARE	ROSE	3	[0, 0, 0]	-999	PAL1	0	R1196N
623.217	0.717	561309	RETRIEVAL_ORIENT_OFF	n/a	n/a	3	-999	n/a	n/a	n/a	n/a	3	[0, 0, 0]	-999	PAL1	0	R1196N
623.934	4.0	562026	TEST_PROBE	n/a	wordpools/wordpool_EN.txt	6	6	ROSE	SQUARE	SQUARE	ROSE	3	[0, 0, 0]	-999	PAL1	0	R1196N
623.935	0.886	562027	REC_START	n/a	n/a	6	-999	n/a	SQUARE	n/a	n/a	3	[0, 0, 0]	-999	PAL1	0	R1196N
624.821	3.13	562913	REC_EVENT	886.0	n/a	6	6	ROSE	SQUARE	SQUARE	ROSE	3	[0, 0, 0]	-999	PAL1	0	R1196N
627.951	1.001	566043	PROBE_OFF	n/a	n/a	6	-999	n/a	n/a	n/a	n/a	3	[0, 0, 0]	-999	PAL1	0	R1196N
628.952	0.009	567044	REC_END	n/a	n/a	6	-999	n/a	n/a	n/a	n/a	3	[0, 0, 0]	-999	PAL1	0	R1196N
628.961	325.683	567053	RECALL_END	n/a	n/a	-999	-999	n/a	n/a	n/a	n/a	3	[0, 0, 0]	-999	PAL1	0	R1196N
954.644	10.929	892732	TRIAL	n/a	n/a	-999	-999	n/a	n/a	n/a	n/a	4	[0, 0, 0]	-999	PAL1	0	R1196N
965.573	0.006	903661	ENCODING_START	n/a	n/a	-999	-999	n/a	n/a	n/a	n/a	4	[0, 0, 0]	-999	PAL1	0	R1196N
965.579	0.267	903667	STUDY_ORIENT	n/a	n/a	1	5	CAPE	PALM	PALM	CAPE	4	[0, 0, 0]	-999	PAL1	0	R1196N
965.846	0.633	903934	STUDY_ORIENT_OFF	n/a	n/a	1	5	CAPE	PALM	PALM	CAPE	4	[0, 0, 0]	-999	PAL1	0	R1196N
966.479	4.0	904567	STUDY_PAIR	n/a	wordpools/wordpool_EN.txt	1	5	CAPE	PALM	PALM	CAPE	4	[0, 0, 0]	-999	PAL1	0	R1196N
970.496	1.017	908584	PAIR_OFF	n/a	n/a	1	5	CAPE	PALM	PALM	CAPE	4	[0, 0, 0]	-999	PAL1	0	R1196N
971.513	0.267	909601	STUDY_ORIENT	n/a	n/a	2	2	BOOK	n/a	BOOK	PIG	4	[0, 0, 0]	-999	PAL1	0	R1196N
971.78	0.7	909868	STUDY_ORIENT_OFF	n/a	n/a	2	2	BOOK	n/a	BOOK	PIG	4	[0, 0, 0]	-999	PAL1	0	R1196N
972.48	4.0	910568	STUDY_PAIR	n/a	wordpools/wordpool_EN.txt	2	2	BOOK	n/a	BOOK	PIG	4	[0, 0, 0]	-999	PAL1	0	R1196N
976.497	1.017	914585	PAIR_OFF	n/a	n/a	2	2	BOOK	n/a	BOOK	PIG	4	[0, 0, 0]	-999	PAL1	0	R1196N
977.514	0.267	915602	STUDY_ORIENT	n/a	n/a	3	3	RUG	RAT	RUG	RAT	4	[0, 0, 0]	-999	PAL1	0	R1196N
977.781	0.566	915869	STUDY_ORIENT_OFF	n/a	n/a	3	3	RUG	RAT	RUG	RAT	4	[0, 0, 0]	-999	PAL1	0	R1196N
978.347	4.0	916435	STUDY_PAIR	n/a	wordpools/wordpool_EN.txt	3	3	RUG	RAT	RUG	RAT	4	[0, 0, 0]	-999	PAL1	0	R1196N
982.365	1.016	920453	PAIR_OFF	n/a	n/a	3	3	RUG	RAT	RUG	RAT	4	[0, 0, 0]	-999	PAL1	0	R1196N
983.381	0.267	921469	STUDY_ORIENT	n/a	n/a	4	6	CHALK	FAN	CHALK	FAN	4	[0, 0, 0]	-999	PAL1	0	R1196N
983.648	0.684	921736	STUDY_ORIENT_OFF	n/a	n/a	4	6	CHALK	FAN	CHALK	FAN	4	[0, 0, 0]	-999	PAL1	0	R1196N
984.332	4.0	922420	STUDY_PAIR	n/a	wordpools/wordpool_EN.txt	4	6	CHALK	FAN	CHALK	FAN	4	[0, 0, 0]	-999	PAL1	0	R1196N
988.349	1.016	926437	PAIR_OFF	n/a	n/a	4	6	CHALK	FAN	CHALK	FAN	4	[0, 0, 0]	-999	PAL1	0	R1196N
989.365	0.267	927453	STUDY_ORIENT	n/a	n/a	5	1	SKY	n/a	SKY	OAK	4	[0, 0, 0]	-999	PAL1	0	R1196N
989.632	0.568	927720	STUDY_ORIENT_OFF	n/a	n/a	5	1	SKY	n/a	SKY	OAK	4	[0, 0, 0]	-999	PAL1	0	R1196N
990.2	4.0	928288	STUDY_PAIR	n/a	wordpools/wordpool_EN.txt	5	1	SKY	n/a	SKY	OAK	4	[0, 0, 0]	-999	PAL1	0	R1196N
994.217	1.016	932305	PAIR_OFF	n/a	n/a	5	1	SKY	n/a	SKY	OAK	4	[0, 0, 0]	-999	PAL1	0	R1196N
995.233	0.267	933321	STUDY_ORIENT	n/a	n/a	6	4	PEA	CAKE	CAKE	PEA	4	[0, 0, 0]	-999	PAL1	0	R1196N
995.5	0.651	933588	STUDY_ORIENT_OFF	n/a	n/a	6	4	PEA	CAKE	CAKE	PEA	4	[0, 0, 0]	-999	PAL1	0	R1196N
996.151	4.0	934239	STUDY_PAIR	n/a	wordpools/wordpool_EN.txt	6	4	PEA	CAKE	CAKE	PEA	4	[0, 0, 0]	-999	PAL1	0	R1196N
1000.168	1.0	938256	PAIR_OFF	n/a	n/a	6	4	PEA	CAKE	CAKE	PEA	4	[0, 0, 0]	-999	PAL1	0	R1196N
1001.168	0.0	939256	ENCODING_END	n/a	n/a	-999	-999	n/a	n/a	n/a	n/a	4	[0, 0, 0]	-999	PAL1	0	R1196N
1001.168	0.001	939256	MATH_START	n/a	n/a	-999	-999	n/a	n/a	n/a	n/a	4	[0, 0, 0]	-999	PAL1	0	R1196N
1001.169	0.016	939257	START	n/a	n/a	-999	-999	n/a	n/a	n/a	n/a	4	[-999, -999, -999]	-999	PAL1	0	R1196N
1001.185	3.784	939273	PROB	3761.0	n/a	-999	-999	n/a	n/a	n/a	n/a	4	[5, 2, 2]	9	PAL1	0	R1196N
1004.969	3.532	943057	PROB	3504.0	n/a	-999	-999	n/a	n/a	n/a	n/a	4	[7, 7, 1]	15	PAL1	0	R1196N
1008.501	5.068	946589	PROB	5035.0	n/a	-999	-999	n/a	n/a	n/a	n/a	4	[3, 8, 5]	16	PAL1	0	R1196N
1013.569	4.134	951657	PROB	4104.0	n/a	-999	-999	n/a	n/a	n/a	n/a	4	[6, 5, 5]	16	PAL1	0	R1196N
1017.703	4.323	955791	PROB	4323.0	n/a	-999	-999	n/a	n/a	n/a	n/a	4	[4, 2, 4]	10	PAL1	0	R1196N
1022.026	0.012	960114	STOP	n/a	n/a	-999	-999	n/a	n/a	n/a	n/a	4	[-999, -999, -999]	-999	PAL1	0	R1196N
1022.038	0.0	960126	RECALL_START	n/a	n/a	-999	-999	n/a	n/a	n/a	n/a	4	[0, 0, 0]	-999	PAL1	0	R1196N
1022.038	0.016	960126	MATH_END	n/a	n/a	-999	-999	n/a	n/a	n/a	n/a	4	[0, 0, 0]	-999	PAL1	0	R1196N
1022.054	0.266	960142	TEST_ORIENT	n/a	n/a	5	1	SKY	n/a	SKY	OAK	4	[0, 0, 0]	-999	PAL1	0	R1196N
1022.32	0.718	960408	RETRIEVAL_ORIENT_OFF	n/a	n/a	-999	-999	n/a	n/a	n/a	n/a	4	[0, 0, 0]	-999	PAL1	0	R1196N
1023.038	4.0	961126	TEST_PROBE	n/a	wordpools/wordpool_EN.txt	5	1	SKY	n/a	SKY	OAK	4	[0, 0, 0]	-999	PAL1	0	R1196N
1023.038	4.017	961126	REC_START	n/a	n/a	5	-999	n/a	n/a	n/a	n/a	4	[0, 0, 0]	-999	PAL1	0	R1196N
1027.055	0.998	965143	PROBE_OFF	n/a	n/a	5	-999	n/a	n/a	n/a	n/a	4	[0, 0, 0]	-999	PAL1	0	R1196N
1028.053	0.002	966141	REC_EVENT	5015.0	n/a	5	1	SKY	<>	SKY	OAK	4	[0, 0, 0]	-999	PAL1	0	R1196N
1028.055	0.017	966143	REC_END	n/a	n/a	5	-999	n/a	n/a	n/a	n/a	4	[0, 0, 0]	-999	PAL1	0	R1196N
1028.072	0.265	966160	TEST_ORIENT	n/a	n/a	2	2	BOOK	n/a	BOOK	PIG	4	[0, 0, 0]	-999	PAL1	0	R1196N
1028.337	0.567	966425	RETRIEVAL_ORIENT_OFF	n/a	n/a	5	-999	n/a	n/a	n/a	n/a	4	[0, 0, 0]	-999	PAL1	0	R1196N
1028.904	4.0	966992	TEST_PROBE	n/a	wordpools/wordpool_EN.txt	2	2	BOOK	n/a	BOOK	PIG	4	[0, 0, 0]	-999	PAL1	0	R1196N
1028.904	4.018	966992	REC_START	n/a	n/a	2	-999	n/a	n/a	n/a	n/a	4	[0, 0, 0]	-999	PAL1	0	R1196N
1032.922	1.0	971010	PROBE_OFF	n/a	n/a	2	-999	n/a	n/a	n/a	n/a	4	[0, 0, 0]	-999	PAL1	0	R1196N
1033.922	0.003	972010	REC_END	n/a	n/a	2	-999	n/a	n/a	n/a	n/a	4	[0, 0, 0]	-999	PAL1	0	R1196N
1033.925	0.014	972013	REC_EVENT	5021.0	n/a	2	2	BOOK	<>	BOOK	PIG	4	[0, 0, 0]	-999	PAL1	0	R1196N
1033.939	0.267	972027	TEST_ORIENT	n/a	n/a	3	3	RUG	RAT	RUG	RAT	4	[0, 0, 0]	-999	PAL1	0	R1196N
1034.206	0.649	972294	RETRIEVAL_ORIENT_OFF	n/a	n/a	2	-999	n/a	n/a	n/a	n/a	4	[0, 0, 0]	-999	PAL1	0	R1196N
1034.855	4.0	972943	TEST_PROBE	n/a	wordpools/wordpool_EN.txt	3	3	RUG	RAT	RUG	RAT	4	[0, 0, 0]	-999	PAL1	0	R1196N
1034.855	1.465	972943	REC_START	n/a	n/a	3	-999	n/a	RAT	n/a	n/a	4	[0, 0, 0]	-999	PAL1	0	R1196N
1036.32	2.552	974407	REC_EVENT	1465.0	n/a	3	3	RUG	RAT	RUG	RAT	4	[0, 0, 0]	-999	PAL1	0	R1196N
1038.872	1.0	976959	PROBE_OFF	n/a	n/a	3	-999	n/a	n/a	n/a	n/a	4	[0, 0, 0]	-999	PAL1	0	R1196N
1039.872	0.017	977959	REC_END	n/a	n/a	3	-999	n/a	n/a	n/a	n/a	4	[0, 0, 0]	-999	PAL1	0	R1196N
1039.889	0.251	977976	TEST_ORIENT	n/a	n/a	6	4	PEA	CAKE	CAKE	PEA	4	[0, 0, 0]	-999	PAL1	0	R1196N
1040.14	0.616	978227	RETRIEVAL_ORIENT_OFF	n/a	n/a	3	-999	n/a	n/a	n/a	n/a	4	[0, 0, 0]	-999	PAL1	0	R1196N
1040.756	4.0	978843	TEST_PROBE	n/a	wordpools/wordpool_EN.txt	6	4	PEA	CAKE	CAKE	PEA	4	[0, 0, 0]	-999	PAL1	0	R1196N
1040.756	1.468	978843	REC_START	n/a	n/a	6	-999	n/a	CAKE	n/a	n/a	4	[0, 0, 0]	-999	PAL1	0	R1196N
1042.224	2.549	980311	REC_EVENT	1468.0	n/a	6	4	PEA	CAKE	CAKE	PEA	4	[0, 0, 0]	-999	PAL1	0	R1196N
1044.773	1.0	982860	PROBE_OFF	n/a	n/a	6	-999	n/a	n/a	n/a	n/a	4	[0, 0, 0]	-999	PAL1	0	R1196N
1045.773	0.017	983860	REC_END	n/a	n/a	6	-999	n/a	n/a	n/a	n/a	4	[0, 0, 0]	-999	PAL1	0	R1196N
1045.79	0.267	983877	TEST_ORIENT	n/a	n/a	1	5	CAPE	PALM	PALM	CAPE	4	[0, 0, 0]	-999	PAL1	0	R1196N
1046.057	0.65	984144	RETRIEVAL_ORIENT_OFF	n/a	n/a	6	-999	n/a	n/a	n/a	n/a	4	[0, 0, 0]	-999	PAL1	0	R1196N
1046.707	4.0	984794	TEST_PROBE	n/a	wordpools/wordpool_EN.txt	1	5	CAPE	PALM	PALM	CAPE	4	[0, 0, 0]	-999	PAL1	0	R1196N
1046.707	1.265	984794	REC_START	n/a	n/a	1	-999	n/a	PALM	n/a	n/a	4	[0, 0, 0]	-999	PAL1	0	R1196N
1047.972	2.752	986059	REC_EVENT	1265.0	n/a	1	5	CAPE	PALM	PALM	CAPE	4	[0, 0, 0]	-999	PAL1	0	R1196N
1050.724	1.0	988811	PROBE_OFF	n/a	n/a	1	-999	n/a	n/a	n/a	n/a	4	[0, 0, 0]	-999	PAL1	0	R1196N
1051.724	0.017	989811	REC_END	n/a	n/a	1	-999	n/a	n/a	n/a	n/a	4	[0, 0, 0]	-999	PAL1	0	R1196N
1051.741	0.267	989828	TEST_ORIENT	n/a	n/a	4	6	CHALK	FAN	CHALK	FAN	4	[0, 0, 0]	-999	PAL1	0	R1196N
1052.008	0.516	990095	RETRIEVAL_ORIENT_OFF	n/a	n/a	1	-999	n/a	n/a	n/a	n/a	4	[0, 0, 0]	-999	PAL1	0	R1196N
1052.524	4.0	990611	TEST_PROBE	n/a	wordpools/wordpool_EN.txt	4	6	CHALK	FAN	CHALK	FAN	4	[0, 0, 0]	-999	PAL1	0	R1196N
1052.524	2.261	990611	REC_START	n/a	n/a	4	-999	n/a	FAN	n/a	n/a	4	[0, 0, 0]	-999	PAL1	0	R1196N
1054.785	1.756	992872	REC_EVENT	2261.0	n/a	4	6	CHALK	FAN	CHALK	FAN	4	[0, 0, 0]	-999	PAL1	0	R1196N
1056.541	1.0	994628	PROBE_OFF	n/a	n/a	4	-999	n/a	n/a	n/a	n/a	4	[0, 0, 0]	-999	PAL1	0	R1196N
1057.541	0.004	995628	REC_END	n/a	n/a	4	-999	n/a	n/a	n/a	n/a	4	[0, 0, 0]	-999	PAL1	0	R1196N
1057.545	7.914	995632	RECALL_END	n/a	n/a	-999	-999	n/a	n/a	n/a	n/a	4	[0, 0, 0]	-999	PAL1	0	R1196N
1065.459	10.928	1003546	TRIAL	n/a	n/a	-999	-999	n/a	n/a	n/a	n/a	5	[0, 0, 0]	-999	PAL1	0	R1196N
1076.387	0.007	1014474	ENCODING_START	n/a	n/a	-999	-999	n/a	n/a	n/a	n/a	5	[0, 0, 0]	-999	PAL1	0	R1196N
1076.394	0.267	1014481	STUDY_ORIENT	n/a	n/a	1	1	DOOR	TEA	DOOR	TEA	5	[0, 0, 0]	-999	PAL1	0	R1196N
1076.661	0.65	1014748	STUDY_ORIENT_OFF	n/a	n/a	1	1	DOOR	TEA	DOOR	TEA	5	[0, 0, 0]	-999	PAL1	0	R1196N
1077.311	4.0	1015398	STUDY_PAIR	n/a	wordpools/wordpool_EN.txt	1	1	DOOR	TEA	DOOR	TEA	5	[0, 0, 0]	-999	PAL1	0	R1196N
1081.328	1.017	1019415	PAIR_OFF	n/a	n/a	1	1	DOOR	TEA	DOOR	TEA	5	[0, 0, 0]	-999	PAL1	0	R1196N
1082.345	0.266	1020432	STUDY_ORIENT	n/a	n/a	2	6	TOAD	FORT	TOAD	FORT	5	[0, 0, 0]	-999	PAL1	0	R1196N
1082.611	0.518	1020698	STUDY_ORIENT_OFF	n/a	n/a	2	6	TOAD	FORT	TOAD	FORT	5	[0, 0, 0]	-999	PAL1	0	R1196N
1083.129	4.0	1021216	STUDY_PAIR	n/a	wordpools/wordpool_EN.txt	2	6	TOAD	FORT	TOAD	FORT	5	[0, 0, 0]	-999	PAL1	0	R1196N
1087.146	1.017	1025233	PAIR_OFF	n/a	n/a	2	6	TOAD	FORT	TOAD	FORT	5	[0, 0, 0]	-999	PAL1	0	R1196N
1088.163	0.266	1026250	STUDY_ORIENT	n/a	n/a	3	5	CANE	LAMP	CANE	LAMP	5	[0, 0, 0]	-999	PAL1	0	R1196N
1088.429	0.651	1026516	STUDY_ORIENT_OFF	n/a	n/a	3	5	CANE	LAMP	CANE	LAMP	5	[0, 0, 0]	-999	PAL1	0	R1196N
1089.08	4.0	1027167	STUDY_PAIR	n/a	wordpools/wordpool_EN.txt	3	5	CANE	LAMP	CANE	LAMP	5	[0, 0, 0]	-999	PAL1	0	R1196N
1093.097	1.017	1031184	PAIR_OFF	n/a	n/a	3	5	CANE	LAMP	CANE	LAMP	5	[0, 0, 0]	-999	PAL1	0	R1196N
1094.114	0.266	1032201	STUDY_ORIENT	n/a	n/a	4	4	BED	n/a	BED	MAP	5	[0, 0, 0]	-999	PAL1	0	R1196N
1094.38	0.584	1032467	STUDY_ORIENT_OFF	n/a	n/a	4	4	BED	n/a	BED	MAP	5	[0, 0, 0]	-999	PAL1	0	R1196N
1094.964	4.0	1033051	STUDY_PAIR	n/a	wordpools/wordpool_EN.txt	4	4	BED	n/a	BED	MAP	5	[0, 0, 0]	-999	PAL1	0	R1196N
1098.981	1.017	1037068	PAIR_OFF	n/a	n/a	4	4	BED	n/a	BED	MAP	5	[0, 0, 0]	-999	PAL1	0	R1196N
1099.998	0.266	1038085	STUDY_ORIENT	n/a	n/a	5	3	EAR	CAT	CAT	EAR	5	[0, 0, 0]	-999	PAL1	0	R1196N
1100.264	0.633	1038351	STUDY_ORIENT_OFF	n/a	n/a	5	3	EAR	CAT	CAT	EAR	5	[0, 0, 0]	-999	PAL1	0	R1196N
1100.897	4.0	1038984	STUDY_PAIR	n/a	wordpools/wordpool_EN.txt	5	3	EAR	CAT	CAT	EAR	5	[0, 0, 0]	-999	PAL1	0	R1196N
1104.915	1.017	1043002	PAIR_OFF	n/a	n/a	5	3	EAR	CAT	CAT	EAR	5	[0, 0, 0]	-999	PAL1	0	R1196N
1105.932	0.267	1044019	STUDY_ORIENT	n/a	n/a	6	2	THUMB	n/a	THUMB	ELF	5	[0, 0, 0]	-999	PAL1	0	R1196N
1106.199	0.649	1044286	STUDY_ORIENT_OFF	n/a	n/a	6	2	THUMB	n/a	THUMB	ELF	5	[0, 0, 0]	-999	PAL1	0	R1196N
1106.848	4.0	1044935	STUDY_PAIR	n/a	wordpools/wordpool_EN.txt	6	2	THUMB	n/a	THUMB	ELF	5	[0, 0, 0]	-999	PAL1	0	R1196N
1110.865	1.001	1048952	PAIR_OFF	n/a	n/a	6	2	THUMB	n/a	THUMB	ELF	5	[0, 0, 0]	-999	PAL1	0	R1196N
1111.866	0.0	1049953	ENCODING_END	n/a	n/a	-999	-999	n/a	n/a	n/a	n/a	5	[0, 0, 0]	-999	PAL1	0	R1196N
1111.866	0.0	1049953	MATH_START	n/a	n/a	-999	-999	n/a	n/a	n/a	n/a	5	[0, 0, 0]	-999	PAL1	0	R1196N
1111.866	0.016	1049953	START	n/a	n/a	-999	-999	n/a	n/a	n/a	n/a	5	[-999, -999, -999]	-999	PAL1	0	R1196N
1111.882	3.235	1049969	PROB	3204.0	n/a	-999	-999	n/a	n/a	n/a	n/a	5	[1, 3, 3]	7	PAL1	0	R1196N
1115.117	3.817	1053204	PROB	3793.0	n/a	-999	-999	n/a	n/a	n/a	n/a	5	[2, 6, 7]	15	PAL1	0	R1196N
1118.934	3.499	1057021	PROB	3471.0	n/a	-999	-999	n/a	n/a	n/a	n/a	5	[2, 3, 2]	7	PAL1	0	R1196N
1122.433	3.752	1060520	PROB	3725.0	n/a	-999	-999	n/a	n/a	n/a	n/a	5	[6, 1, 4]	11	PAL1	0	R1196N
1126.185	7.781	1064272	PROB	7781.0	n/a	-999	-999	n/a	n/a	n/a	n/a	5	[7, 7, 3]	17	PAL1	0	R1196N
1133.966	0.02	1072053	STOP	n/a	n/a	-999	-999	n/a	n/a	n/a	n/a	5	[-999, -999, -999]	-999	PAL1	0	R1196N
1133.986	0.0	1072073	RECALL_START	n/a	n/a	-999	-999	n/a	n/a	n/a	n/a	5	[0, 0, 0]	-999	PAL1	0	R1196N
1133.986	0.017	1072073	MATH_END	n/a	n/a	-999	-999	n/a	n/a	n/a	n/a	5	[0, 0, 0]	-999	PAL1	0	R1196N
1134.003	0.265	1072090	TEST_ORIENT	n/a	n/a	1	1	DOOR	TEA	DOOR	TEA	5	[0, 0, 0]	-999	PAL1	0	R1196N
1134.268	0.634	1072355	RETRIEVAL_ORIENT_OFF	n/a	n/a	-999	-999	n/a	n/a	n/a	n/a	5	[0, 0, 0]	-999	PAL1	0	R1196N
1134.902	4.0	1072989	TEST_PROBE	n/a	wordpools/wordpool_EN.txt	1	1	DOOR	TEA	DOOR	TEA	5	[0, 0, 0]	-999	PAL1	0	R1196N
1134.902	1.749	1072989	REC_START	n/a	n/a	1	-999	n/a	TEA	n/a	n/a	5	[0, 0, 0]	-999	PAL1	0	R1196N
1136.651	2.269	1074738	REC_EVENT	1749.0	n/a	1	1	DOOR	TEA	DOOR	TEA	5	[0, 0, 0]	-999	PAL1	0	R1196N
1138.92	1.0	1077006	PROBE_OFF	n/a	n/a	1	-999	n/a	n/a	n/a	n/a	5	[0, 0, 0]	-999	PAL1	0	R1196N
1139.92	0.017	1078006	REC_END	n/a	n/a	1	-999	n/a	n/a	n/a	n/a	5	[0, 0, 0]	-999	PAL1	0	R1196N
1139.937	0.266	1078023	TEST_ORIENT	n/a	n/a	6	2	THUMB	n/a	THUMB	ELF	5	[0, 0, 0]	-999	PAL1	0	R1196N
1140.203	0.633	1078289	RETRIEVAL_ORIENT_OFF	n/a	n/a	1	-999	n/a	n/a	n/a	n/a	5	[0, 0, 0]	-999	PAL1	0	R1196N
1140.836	4.0	1078922	TEST_PROBE	n/a	wordpools/wordpool_EN.txt	6	2	THUMB	n/a	THUMB	ELF	5	[0, 0, 0]	-999	PAL1	0	R1196N
1140.836	4.017	1078922	REC_START	n/a	n/a	6	-999	n/a	n/a	n/a	n/a	5	[0, 0, 0]	-999	PAL1	0	R1196N
1144.853	0.998	1082939	PROBE_OFF	n/a	n/a	6	-999	n/a	n/a	n/a	n/a	5	[0, 0, 0]	-999	PAL1	0	R1196N
1145.851	0.002	1083937	REC_EVENT	5015.0	n/a	6	2	THUMB	<>	THUMB	ELF	5	[0, 0, 0]	-999	PAL1	0	R1196N
1145.853	0.017	1083939	REC_END	n/a	n/a	6	-999	n/a	n/a	n/a	n/a	5	[0, 0, 0]	-999	PAL1	0	R1196N
1145.87	0.268	1083956	TEST_ORIENT	n/a	n/a	5	3	EAR	CAT	CAT	EAR	5	[0, 0, 0]	-999	PAL1	0	R1196N
1146.138	0.532	1084224	RETRIEVAL_ORIENT_OFF	n/a	n/a	6	-999	n/a	n/a	n/a	n/a	5	[0, 0, 0]	-999	PAL1	0	R1196N
1146.67	4.0	1084756	TEST_PROBE	n/a	wordpools/wordpool_EN.txt	5	3	EAR	CAT	CAT	EAR	5	[0, 0, 0]	-999	PAL1	0	R1196N
1146.67	1.476	1084756	REC_START	n/a	n/a	5	-999	n/a	CAT	n/a	n/a	5	[0, 0, 0]	-999	PAL1	0	R1196N
1148.146	2.541	1086232	REC_EVENT	1476.0	n/a	5	3	EAR	CAT	CAT	EAR	5	[0, 0, 0]	-999	PAL1	0	R1196N
1150.687	1.001	1088773	PROBE_OFF	n/a	n/a	5	-999	n/a	n/a	n/a	n/a	5	[0, 0, 0]	-999	PAL1	0	R1196N
1151.688	0.016	1089774	REC_END	n/a	n/a	5	-999	n/a	n/a	n/a	n/a	5	[0, 0, 0]	-999	PAL1	0	R1196N
1151.704	0.251	1089790	TEST_ORIENT	n/a	n/a	4	4	BED	n/a	BED	MAP	5	[0, 0, 0]	-999	PAL1	0	R1196N
1151.955	0.566	1090041	RETRIEVAL_ORIENT_OFF	n/a	n/a	5	-999	n/a	n/a	n/a	n/a	5	[0, 0, 0]	-999	PAL1	0	R1196N
1152.521	4.0	1090607	TEST_PROBE	n/a	wordpools/wordpool_EN.txt	4	4	BED	n/a	BED	MAP	5	[0, 0, 0]	-999	PAL1	0	R1196N
1152.521	4.017	1090607	REC_START	n/a	n/a	4	-999	n/a	n/a	n/a	n/a	5	[0, 0, 0]	-999	PAL1	0	R1196N
1156.538	0.498	1094624	PROBE_OFF	n/a	n/a	4	-999	n/a	n/a	n/a	n/a	5	[0, 0, 0]	-999	PAL1	0	R1196N
1157.036	0.503	1095122	REC_EVENT	4515.0	n/a	4	4	BED	<>	BED	MAP	5	[0, 0, 0]	-999	PAL1	0	R1196N
1157.539	0.016	1095625	REC_END	n/a	n/a	4	-999	n/a	n/a	n/a	n/a	5	[0, 0, 0]	-999	PAL1	0	R1196N
1157.555	0.266	1095641	TEST_ORIENT	n/a	n/a	3	5	CANE	LAMP	CANE	LAMP	5	[0, 0, 0]	-999	PAL1	0	R1196N
1157.821	0.667	1095907	RETRIEVAL_ORIENT_OFF	n/a	n/a	4	-999	n/a	n/a	n/a	n/a	5	[0, 0, 0]	-999	PAL1	0	R1196N
1158.488	4.0	1096574	TEST_PROBE	n/a	wordpools/wordpool_EN.txt	3	5	CANE	LAMP	CANE	LAMP	5	[0, 0, 0]	-999	PAL1	0	R1196N
1158.489	1.15	1096575	REC_START	n/a	n/a	3	-999	n/a	LAMP	n/a	n/a	5	[0, 0, 0]	-999	PAL1	0	R1196N
1159.639	2.866	1097725	REC_EVENT	1150.0	n/a	3	5	CANE	LAMP	CANE	LAMP	5	[0, 0, 0]	-999	PAL1	0	R1196N
1162.505	1.0	1100591	PROBE_OFF	n/a	n/a	3	-999	n/a	n/a	n/a	n/a	5	[0, 0, 0]	-999	PAL1	0	R1196N
1163.505	0.017	1101591	REC_END	n/a	n/a	3	-999	n/a	n/a	n/a	n/a	5	[0, 0, 0]	-999	PAL1	0	R1196N
1163.522	0.267	1101608	TEST_ORIENT	n/a	n/a	2	6	TOAD	FORT	TOAD	FORT	5	[0, 0, 0]	-999	PAL1	0	R1196N
1163.789	0.55	1101875	RETRIEVAL_ORIENT_OFF	n/a	n/a	3	-999	n/a	n/a	n/a	n/a	5	[0, 0, 0]	-999	PAL1	0	R1196N
1164.339	4.0	1102425	TEST_PROBE	n/a	wordpools/wordpool_EN.txt	2	6	TOAD	FORT	TOAD	FORT	5	[0, 0, 0]	-999	PAL1	0	R1196N
1164.34	1.46	1102426	REC_START	n/a	n/a	2	-999	n/a	FORT	n/a	n/a	5	[0, 0, 0]	-999	PAL1	0	R1196N
1165.8	2.556	1103886	REC_EVENT	1460.0	n/a	2	6	TOAD	FORT	TOAD	FORT	5	[0, 0, 0]	-999	PAL1	0	R1196N
1168.356	1.0	1106442	PROBE_OFF	n/a	n/a	2	-999	n/a	n/a	n/a	n/a	5	[0, 0, 0]	-999	PAL1	0	R1196N
1169.356	0.003	1107442	REC_END	n/a	n/a	2	-999	n/a	n/a	n/a	n/a	5	[0, 0, 0]	-999	PAL1	0	R1196N
1169.359	10.265	1107445	RECALL_END	n/a	n/a	-999	-999	n/a	n/a	n/a	n/a	5	[0, 0, 0]	-999	PAL1	0	R1196N
1179.624	10.929	1117710	TRIAL	n/a	n/a	-999	-999	n/a	n/a	n/a	n/a	6	[0, 0, 0]	-999	PAL1	0	R1196N
1190.553	0.006	1128639	ENCODING_START	n/a	n/a	-999	-999	n/a	n/a	n/a	n/a	6	[0, 0, 0]	-999	PAL1	0	R1196N
1190.559	0.267	1128645	STUDY_ORIENT	n/a	n/a	1	3	BEAN	n/a	BEAN	WEB	6	[0, 0, 0]	-999	PAL1	0	R1196N
1190.826	0.717	1128912	STUDY_ORIENT_OFF	n/a	n/a	1	3	BEAN	n/a	BEAN	WEB	6	[0, 0, 0]	-999	PAL1	0	R1196N
1191.543	4.0	1129629	STUDY_PAIR	n/a	wordpools/wordpool_EN.txt	1	3	BEAN	n/a	BEAN	WEB	6	[0, 0, 0]	-999	PAL1	0	R1196N
1195.56	1.017	1133646	PAIR_OFF	n/a	n/a	1	3	BEAN	n/a	BEAN	WEB	6	[0, 0, 0]	-999	PAL1	0	R1196N
1196.577	0.266	1134663	STUDY_ORIENT	n/a	n/a	2	4	ANT	MOUSE	ANT	MOUSE	6	[0, 0, 0]	-999	PAL1	0	R1196N
1196.843	0.534	1134929	STUDY_ORIENT_OFF	n/a	n/a	2	4	ANT	MOUSE	ANT	MOUSE	6	[0, 0, 0]	-999	PAL1	0	R1196N
1197.377	4.0	1135463	STUDY_PAIR	n/a	wordpools/wordpool_EN.txt	2	4	ANT	MOUSE	ANT	MOUSE	6	[0, 0, 0]	-999	PAL1	0	R1196N
1201.394	1.017	1139480	PAIR_OFF	n/a	n/a	2	4	ANT	MOUSE	ANT	MOUSE	6	[0, 0, 0]	-999	PAL1	0	R1196N
1202.411	0.267	1140497	STUDY_ORIENT	n/a	n/a	3	5	CALF	SPARK	SPARK	CALF	6	[0, 0, 0]	-999	PAL1	0	R1196N
1202.678	0.566	1140764	STUDY_ORIENT_OFF	n/a	n/a	3	5	CALF	SPARK	SPARK	CALF	6	[0, 0, 0]	-999	PAL1	0	R1196N
1203.244	4.0	1141330	STUDY_PAIR	n/a	wordpools/wordpool_EN.txt	3	5	CALF	SPARK	SPARK	CALF	6	[0, 0, 0]	-999	PAL1	0	R1196N
1207.261	1.017	1145347	PAIR_OFF	n/a	n/a	3	5	CALF	SPARK	SPARK	CALF	6	[0, 0, 0]	-999	PAL1	0	R1196N
1208.278	0.267	1146364	STUDY_ORIENT	n/a	n/a	4	6	MAIL	STEAK	STEAK	MAIL	6	[0, 0, 0]	-999	PAL1	0	R1196N
1208.545	0.534	1146631	STUDY_ORIENT_OFF	n/a	n/a	4	6	MAIL	STEAK	STEAK	MAIL	6	[0, 0, 0]	-999	PAL1	0	R1196N
1209.079	4.0	1147165	STUDY_PAIR	n/a	wordpools/wordpool_EN.txt	4	6	MAIL	STEAK	STEAK	MAIL	6	[0, 0, 0]	-999	PAL1	0	R1196N
1213.097	1.016	1151183	PAIR_OFF	n/a	n/a	4	6	MAIL	STEAK	STEAK	MAIL	6	[0, 0, 0]	-999	PAL1	0	R1196N
1214.113	0.266	1152199	STUDY_ORIENT	n/a	n/a	5	1	BUSH	n/a	BUSH	MAZE	6	[0, 0, 0]	-999	PAL1	0	R1196N
1214.379	0.568	1152465	STUDY_ORIENT_OFF	n/a	n/a	5	1	BUSH	n/a	BUSH	MAZE	6	[0, 0, 0]	-999	PAL1	0	R1196N
1214.947	4.0	1153033	STUDY_PAIR	n/a	wordpools/wordpool_EN.txt	5	1	BUSH	n/a	BUSH	MAZE	6	[0, 0, 0]	-999	PAL1	0	R1196N
1218.964	1.017	1157050	PAIR_OFF	n/a	n/a	5	1	BUSH	n/a	BUSH	MAZE	6	[0, 0, 0]	-999	PAL1	0	R1196N
1219.981	0.265	1158067	STUDY_ORIENT	n/a	n/a	6	2	STOOL	BAND	STOOL	BAND	6	[0, 0, 0]	-999	PAL1	0	R1196N
1220.246	0.702	1158332	STUDY_ORIENT_OFF	n/a	n/a	6	2	STOOL	BAND	STOOL	BAND	6	[0, 0, 0]	-999	PAL1	0	R1196N
1220.948	4.0	1159034	STUDY_PAIR	n/a	wordpools/wordpool_EN.txt	6	2	STOOL	BAND	STOOL	BAND	6	[0, 0, 0]	-999	PAL1	0	R1196N
1224.965	1.0	1163051	PAIR_OFF	n/a	n/a	6	2	STOOL	BAND	STOOL	BAND	6	[0, 0, 0]	-999	PAL1	0	R1196N
1225.965	0.0	1164051	ENCODING_END	n/a	n/a	-999	-999	n/a	n/a	n/a	n/a	6	[0, 0, 0]	-999	PAL1	0	R1196N
1225.965	0.001	1164051	MATH_START	n/a	n/a	-999	-999	n/a	n/a	n/a	n/a	6	[0, 0, 0]	-999	PAL1	0	R1196N
1225.966	0.016	1164052	START	n/a	n/a	-999	-999	n/a	n/a	n/a	n/a	6	[-999, -999, -999]	-999	PAL1	0	R1196N
1225.982	6.951	1164068	PROB	6924.0	n/a	-999	-999	n/a	n/a	n/a	n/a	6	[1, 7, 8]	16	PAL1	0	R1196N
1232.933	3.716	1171019	PROB	3692.0	n/a	-999	-999	n/a	n/a	n/a	n/a	6	[6, 2, 4]	12	PAL1	0	R1196N
1236.649	6.034	1174735	PROB	6000.0	n/a	-999	-999	n/a	n/a	n/a	n/a	6	[9, 6, 2]	17	PAL1	0	R1196N
1242.683	3.05	1180768	PROB	3013.0	n/a	-999	-999	n/a	n/a	n/a	n/a	6	[7, 1, 3]	11	PAL1	0	R1196N
1245.733	4.619	1183818	PROB	4619.0	n/a	-999	-999	n/a	n/a	n/a	n/a	6	[9, 4, 1]	14	PAL1	0	R1196N
1250.352	0.015	1188437	STOP	n/a	n/a	-999	-999	n/a	n/a	n/a	n/a	6	[-999, -999, -999]	-999	PAL1	0	R1196N
1250.367	0.0	1188452	MATH_END	n/a	n/a	-999	-999	n/a	n/a	n/a	n/a	6	[0, 0, 0]	-999	PAL1	0	R1196N
1250.367	0.017	1188452	RECALL_START	n/a	n/a	-999	-999	n/a	n/a	n/a	n/a	6	[0, 0, 0]	-999	PAL1	0	R1196N
1250.384	0.267	1188469	TEST_ORIENT	n/a	n/a	5	1	BUSH	n/a	BUSH	MAZE	6	[0, 0, 0]	-999	PAL1	0	R1196N
1250.651	0.733	1188736	RETRIEVAL_ORIENT_OFF	n/a	n/a	-999	-999	n/a	n/a	n/a	n/a	6	[0, 0, 0]	-999	PAL1	0	R1196N
1251.384	4.0	1189469	TEST_PROBE	n/a	wordpools/wordpool_EN.txt	5	1	BUSH	n/a	BUSH	MAZE	6	[0, 0, 0]	-999	PAL1	0	R1196N
1251.384	4.017	1189469	REC_START	n/a	n/a	5	-999	n/a	n/a	n/a	n/a	6	[0, 0, 0]	-999	PAL1	0	R1196N
1255.401	1.0	1193486	PROBE_OFF	n/a	n/a	5	-999	n/a	n/a	n/a	n/a	6	[0, 0, 0]	-999	PAL1	0	R1196N
1256.401	0.004	1194486	REC_END	n/a	n/a	5	-999	n/a	n/a	n/a	n/a	6	[0, 0, 0]	-999	PAL1	0	R1196N
1256.405	0.013	1194490	REC_EVENT	5021.0	n/a	5	1	BUSH	<>	BUSH	MAZE	6	[0, 0, 0]	-999	PAL1	0	R1196N
1256.418	0.267	1194503	TEST_ORIENT	n/a	n/a	6	2	STOOL	BAND	STOOL	BAND	6	[0, 0, 0]	-999	PAL1	0	R1196N
1256.685	0.616	1194770	RETRIEVAL_ORIENT_OFF	n/a	n/a	5	-999	n/a	n/a	n/a	n/a	6	[0, 0, 0]	-999	PAL1	0	R1196N
1257.301	4.0	1195386	TEST_PROBE	n/a	wordpools/wordpool_EN.txt	6	2	STOOL	BAND	STOOL	BAND	6	[0, 0, 0]	-999	PAL1	0	R1196N
1257.302	1.053	1195387	REC_START	n/a	n/a	6	-999	n/a	BAND	n/a	n/a	6	[0, 0, 0]	-999	PAL1	0	R1196N
1258.355	2.947	1196440	REC_EVENT	1053.0	n/a	6	2	STOOL	BAND	STOOL	BAND	6	[0, 0, 0]	-999	PAL1	0	R1196N
1261.302	1.009	1199387	PROBE_OFF	n/a	n/a	6	-999	n/a	n/a	n/a	n/a	6	[0, 0, 0]	-999	PAL1	0	R1196N
1262.311	0.008	1200396	REC_END	n/a	n/a	6	-999	n/a	n/a	n/a	n/a	6	[0, 0, 0]	-999	PAL1	0	R1196N
1262.319	0.267	1200404	TEST_ORIENT	n/a	n/a	1	3	BEAN	n/a	BEAN	WEB	6	[0, 0, 0]	-999	PAL1	0	R1196N
1262.586	0.601	1200671	RETRIEVAL_ORIENT_OFF	n/a	n/a	6	-999	n/a	n/a	n/a	n/a	6	[0, 0, 0]	-999	PAL1	0	R1196N
1263.187	4.0	1201272	TEST_PROBE	n/a	wordpools/wordpool_EN.txt	1	3	BEAN	n/a	BEAN	WEB	6	[0, 0, 0]	-999	PAL1	0	R1196N
1263.187	4.017	1201272	REC_START	n/a	n/a	1	-999	n/a	n/a	n/a	n/a	6	[0, 0, 0]	-999	PAL1	0	R1196N
1267.204	0.998	1205289	PROBE_OFF	n/a	n/a	1	-999	n/a	n/a	n/a	n/a	6	[0, 0, 0]	-999	PAL1	0	R1196N
1268.202	0.002	1206287	REC_EVENT	5015.0	n/a	1	3	BEAN	<>	BEAN	WEB	6	[0, 0, 0]	-999	PAL1	0	R1196N
1268.204	0.017	1206289	REC_END	n/a	n/a	1	-999	n/a	n/a	n/a	n/a	6	[0, 0, 0]	-999	PAL1	0	R1196N
1268.221	0.265	1206306	TEST_ORIENT	n/a	n/a	2	4	ANT	MOUSE	ANT	MOUSE	6	[0, 0, 0]	-999	PAL1	0	R1196N
1268.486	0.535	1206571	RETRIEVAL_ORIENT_OFF	n/a	n/a	1	-999	n/a	n/a	n/a	n/a	6	[0, 0, 0]	-999	PAL1	0	R1196N
1269.021	4.0	1207106	TEST_PROBE	n/a	wordpools/wordpool_EN.txt	2	4	ANT	MOUSE	ANT	MOUSE	6	[0, 0, 0]	-999	PAL1	0	R1196N
1269.021	1.496	1207106	REC_START	n/a	n/a	2	-999	n/a	MOUSE	n/a	n/a	6	[0, 0, 0]	-999	PAL1	0	R1196N
1270.517	2.521	1208602	REC_EVENT	1496.0	n/a	2	4	ANT	MOUSE	ANT	MOUSE	6	[0, 0, 0]	-999	PAL1	0	R1196N
1273.038	1.0	1211123	PROBE_OFF	n/a	n/a	2	-999	n/a	n/a	n/a	n/a	6	[0, 0, 0]	-999	PAL1	0	R1196N
1274.038	0.017	1212123	REC_END	n/a	n/a	2	-999	n/a	n/a	n/a	n/a	6	[0, 0, 0]	-999	PAL1	0	R1196N
1274.055	0.265	1212140	TEST_ORIENT	n/a	n/a	3	5	CALF	SPARK	SPARK	CALF	6	[0, 0, 0]	-999	PAL1	0	R1196N
1274.32	0.618	1212405	RETRIEVAL_ORIENT_OFF	n/a	n/a	2	-999	n/a	n/a	n/a	n/a	6	[0, 0, 0]	-999	PAL1	0	R1196N
1274.938	4.0	1213023	TEST_PROBE	n/a	wordpools/wordpool_EN.txt	3	5	CALF	SPARK	SPARK	CALF	6	[0, 0, 0]	-999	PAL1	0	R1196N
1274.939	1.325	1213024	REC_START	n/a	n/a	3	-999	n/a	SPARK	n/a	n/a	6	[0, 0, 0]	-999	PAL1	0	R1196N
1276.264	2.691	1214349	REC_EVENT	1325.0	n/a	3	5	CALF	SPARK	SPARK	CALF	6	[0, 0, 0]	-999	PAL1	0	R1196N
1278.955	1.0	1217040	PROBE_OFF	n/a	n/a	3	-999	n/a	n/a	n/a	n/a	6	[0, 0, 0]	-999	PAL1	0	R1196N
1279.955	0.017	1218040	REC_END	n/a	n/a	3	-999	n/a	n/a	n/a	n/a	6	[0, 0, 0]	-999	PAL1	0	R1196N
1279.972	0.266	1218057	TEST_ORIENT	n/a	n/a	4	6	MAIL	STEAK	STEAK	MAIL	6	[0, 0, 0]	-999	PAL1	0	R1196N
1280.238	0.734	1218323	RETRIEVAL_ORIENT_OFF	n/a	n/a	3	-999	n/a	n/a	n/a	n/a	6	[0, 0, 0]	-999	PAL1	0	R1196N
1280.972	4.0	1219057	TEST_PROBE	n/a	wordpools/wordpool_EN.txt	4	6	MAIL	STEAK	STEAK	MAIL	6	[0, 0, 0]	-999	PAL1	0	R1196N
1280.973	1.585	1219058	REC_START	n/a	n/a	4	-999	n/a	STEAK	n/a	n/a	6	[0, 0, 0]	-999	PAL1	0	R1196N
1282.558	2.432	1220643	REC_EVENT	1585.0	n/a	4	6	MAIL	STEAK	STEAK	MAIL	6	[0, 0, 0]	-999	PAL1	0	R1196N
1284.99	1.0	1223075	PROBE_OFF	n/a	n/a	4	-999	n/a	n/a	n/a	n/a	6	[0, 0, 0]	-999	PAL1	0	R1196N
1285.99	0.009	1224075	REC_END	n/a	n/a	4	-999	n/a	n/a	n/a	n/a	6	[0, 0, 0]	-999	PAL1	0	R1196N
1285.999	9.691	1224084	RECALL_END	n/a	n/a	-999	-999	n/a	n/a	n/a	n/a	6	[0, 0, 0]	-999	PAL1	0	R1196N
1295.69	10.928	1233775	TRIAL	n/a	n/a	-999	-999	n/a	n/a	n/a	n/a	7	[0, 0, 0]	-999	PAL1	0	R1196N
1306.618	0.007	1244703	ENCODING_START	n/a	n/a	-999	-999	n/a	n/a	n/a	n/a	7	[0, 0, 0]	-999	PAL1	0	R1196N
1306.625	0.267	1244710	STUDY_ORIENT	n/a	n/a	1	1	PEN	n/a	PEN	ROOT	7	[0, 0, 0]	-999	PAL1	0	R1196N
1306.892	0.716	1244977	STUDY_ORIENT_OFF	n/a	n/a	1	1	PEN	n/a	PEN	ROOT	7	[0, 0, 0]	-999	PAL1	0	R1196N
1307.608	4.0	1245693	STUDY_PAIR	n/a	wordpools/wordpool_EN.txt	1	1	PEN	n/a	PEN	ROOT	7	[0, 0, 0]	-999	PAL1	0	R1196N
1311.625	1.017	1249710	PAIR_OFF	n/a	n/a	1	1	PEN	n/a	PEN	ROOT	7	[0, 0, 0]	-999	PAL1	0	R1196N
1312.642	0.268	1250727	STUDY_ORIENT	n/a	n/a	2	4	CLOTH	JET	CLOTH	JET	7	[0, 0, 0]	-999	PAL1	0	R1196N
1312.91	0.749	1250995	STUDY_ORIENT_OFF	n/a	n/a	2	4	CLOTH	JET	CLOTH	JET	7	[0, 0, 0]	-999	PAL1	0	R1196N
1313.659	4.0	1251744	STUDY_PAIR	n/a	wordpools/wordpool_EN.txt	2	4	CLOTH	JET	CLOTH	JET	7	[0, 0, 0]	-999	PAL1	0	R1196N
1317.676	1.017	1255761	PAIR_OFF	n/a	n/a	2	4	CLOTH	JET	CLOTH	JET	7	[0, 0, 0]	-999	PAL1	0	R1196N
1318.693	0.268	1256778	STUDY_ORIENT	n/a	n/a	3	5	MOON	SNOW	SNOW	MOON	7	[0, 0, 0]	-999	PAL1	0	R1196N
1318.961	0.716	1257046	STUDY_ORIENT_OFF	n/a	n/a	3	5	MOON	SNOW	SNOW	MOON	7	[0, 0, 0]	-999	PAL1	0	R1196N
1319.677	4.0	1257762	STUDY_PAIR	n/a	wordpools/wordpool_EN.txt	3	5	MOON	SNOW	SNOW	MOON	7	[0, 0, 0]	-999	PAL1	0	R1196N
1323.694	1.017	1261779	PAIR_OFF	n/a	n/a	3	5	MOON	SNOW	SNOW	MOON	7	[0, 0, 0]	-999	PAL1	0	R1196N
1324.711	0.267	1262796	STUDY_ORIENT	n/a	n/a	4	6	WHALE	SHELL	WHALE	SHELL	7	[0, 0, 0]	-999	PAL1	0	R1196N
1324.978	0.566	1263063	STUDY_ORIENT_OFF	n/a	n/a	4	6	WHALE	SHELL	WHALE	SHELL	7	[0, 0, 0]	-999	PAL1	0	R1196N
1325.544	4.0	1263629	STUDY_PAIR	n/a	wordpools/wordpool_EN.txt	4	6	WHALE	SHELL	WHALE	SHELL	7	[0, 0, 0]	-999	PAL1	0	R1196N
1329.561	1.017	1267646	PAIR_OFF	n/a	n/a	4	6	WHALE	SHELL	WHALE	SHELL	7	[0, 0, 0]	-999	PAL1	0	R1196N
1330.578	0.267	1268663	STUDY_ORIENT	n/a	n/a	5	3	SMILE	AXE	SMILE	AXE	7	[0, 0, 0]	-999	PAL1	0	R1196N
1330.845	0.633	1268930	STUDY_ORIENT_OFF	n/a	n/a	5	3	SMILE	AXE	SMILE	AXE	7	[0, 0, 0]	-999	PAL1	0	R1196N
1331.478	4.0	1269563	STUDY_PAIR	n/a	wordpools/wordpool_EN.txt	5	3	SMILE	AXE	SMILE	AXE	7	[0, 0, 0]	-999	PAL1	0	R1196N
1335.495	1.017	1273580	PAIR_OFF	n/a	n/a	5	3	SMILE	AXE	SMILE	AXE	7	[0, 0, 0]	-999	PAL1	0	R1196N
1336.512	0.267	1274597	STUDY_ORIENT	n/a	n/a	6	2	OAR	n/a	OAR	CONE	7	[0, 0, 0]	-999	PAL1	0	R1196N
1336.779	0.767	1274864	STUDY_ORIENT_OFF	n/a	n/a	6	2	OAR	n/a	OAR	CONE	7	[0, 0, 0]	-999	PAL1	0	R1196N
1337.546	4.0	1275631	STUDY_PAIR	n/a	wordpools/wordpool_EN.txt	6	2	OAR	n/a	OAR	CONE	7	[0, 0, 0]	-999	PAL1	0	R1196N
1341.563	1.0	1279647	PAIR_OFF	n/a	n/a	6	2	OAR	n/a	OAR	CONE	7	[0, 0, 0]	-999	PAL1	0	R1196N
1342.563	0.0	1280647	ENCODING_END	n/a	n/a	-999	-999	n/a	n/a	n/a	n/a	7	[0, 0, 0]	-999	PAL1	0	R1196N
1342.563	0.0	1280647	MATH_START	n/a	n/a	-999	-999	n/a	n/a	n/a	n/a	7	[0, 0, 0]	-999	PAL1	0	R1196N
1342.563	0.017	1280647	START	n/a	n/a	-999	-999	n/a	n/a	n/a	n/a	7	[-999, -999, -999]	-999	PAL1	0	R1196N
1342.58	22.16	1280664	PROB	22160.0	n/a	-999	-999	n/a	n/a	n/a	n/a	7	[7, 8, 8]	23	PAL1	0	R1196N
1364.74	0.009	1302824	STOP	n/a	n/a	-999	-999	n/a	n/a	n/a	n/a	7	[-999, -999, -999]	-999	PAL1	0	R1196N
1364.749	0.0	1302833	MATH_END	n/a	n/a	-999	-999	n/a	n/a	n/a	n/a	7	[0, 0, 0]	-999	PAL1	0	R1196N
1364.749	0.017	1302833	RECALL_START	n/a	n/a	-999	-999	n/a	n/a	n/a	n/a	7	[0, 0, 0]	-999	PAL1	0	R1196N
1364.766	0.268	1302850	TEST_ORIENT	n/a	n/a	1	1	PEN	n/a	PEN	ROOT	7	[0, 0, 0]	-999	PAL1	0	R1196N
1365.034	0.532	1303118	RETRIEVAL_ORIENT_OFF	n/a	n/a	-999	-999	n/a	n/a	n/a	n/a	7	[0, 0, 0]	-999	PAL1	0	R1196N
1365.566	0.0	1303650	REC_START	n/a	n/a	1	-999	n/a	n/a	n/a	n/a	7	[0, 0, 0]	-999	PAL1	0	R1196N
1365.566	4.0	1303650	TEST_PROBE	n/a	wordpools/wordpool_EN.txt	1	1	PEN	n/a	PEN	ROOT	7	[0, 0, 0]	-999	PAL1	0	R1196N
1368.081	1.502	1306165	REC_EVENT	2515.0	n/a	1	1	PEN	<>	PEN	ROOT	7	[0, 0, 0]	-999	PAL1	0	R1196N
1369.583	1.0	1307667	PROBE_OFF	n/a	n/a	1	-999	n/a	n/a	n/a	n/a	7	[0, 0, 0]	-999	PAL1	0	R1196N
1370.583	0.017	1308667	REC_END	n/a	n/a	1	-999	n/a	n/a	n/a	n/a	7	[0, 0, 0]	-999	PAL1	0	R1196N
1370.6	0.267	1308684	TEST_ORIENT	n/a	n/a	6	2	OAR	n/a	OAR	CONE	7	[0, 0, 0]	-999	PAL1	0	R1196N
1370.867	0.617	1308951	RETRIEVAL_ORIENT_OFF	n/a	n/a	1	-999	n/a	n/a	n/a	n/a	7	[0, 0, 0]	-999	PAL1	0	R1196N
1371.484	4.0	1309568	TEST_PROBE	n/a	wordpools/wordpool_EN.txt	6	2	OAR	n/a	OAR	CONE	7	[0, 0, 0]	-999	PAL1	0	R1196N
1371.484	4.017	1309568	REC_START	n/a	n/a	6	-999	n/a	n/a	n/a	n/a	7	[0, 0, 0]	-999	PAL1	0	R1196N
1375.501	1.0	1313585	PROBE_OFF	n/a	n/a	6	-999	n/a	n/a	n/a	n/a	7	[0, 0, 0]	-999	PAL1	0	R1196N
1376.501	0.004	1314585	REC_END	n/a	n/a	6	-999	n/a	n/a	n/a	n/a	7	[0, 0, 0]	-999	PAL1	0	R1196N
1376.505	0.012	1314589	REC_EVENT	5021.0	n/a	6	2	OAR	<>	OAR	CONE	7	[0, 0, 0]	-999	PAL1	0	R1196N
1376.517	0.267	1314601	TEST_ORIENT	n/a	n/a	5	3	SMILE	AXE	SMILE	AXE	7	[0, 0, 0]	-999	PAL1	0	R1196N
1376.784	0.7	1314868	RETRIEVAL_ORIENT_OFF	n/a	n/a	6	-999	n/a	n/a	n/a	n/a	7	[0, 0, 0]	-999	PAL1	0	R1196N
1377.484	0.0	1315568	REC_START	n/a	n/a	5	-999	n/a	AXE	n/a	n/a	7	[0, 0, 0]	-999	PAL1	0	R1196N
1377.484	4.0	1315568	TEST_PROBE	n/a	wordpools/wordpool_EN.txt	5	3	SMILE	AXE	SMILE	AXE	7	[0, 0, 0]	-999	PAL1	0	R1196N
1378.896	2.606	1316980	REC_EVENT	1412.0	n/a	5	3	SMILE	AXE	SMILE	AXE	7	[0, 0, 0]	-999	PAL1	0	R1196N
1381.502	1.0	1319586	PROBE_OFF	n/a	n/a	5	-999	n/a	n/a	n/a	n/a	7	[0, 0, 0]	-999	PAL1	0	R1196N
1382.502	0.016	1320586	REC_END	n/a	n/a	5	-999	n/a	n/a	n/a	n/a	7	[0, 0, 0]	-999	PAL1	0	R1196N
1382.518	0.267	1320602	TEST_ORIENT	n/a	n/a	2	4	CLOTH	JET	CLOTH	JET	7	[0, 0, 0]	-999	PAL1	0	R1196N
1382.785	0.75	1320869	RETRIEVAL_ORIENT_OFF	n/a	n/a	5	-999	n/a	n/a	n/a	n/a	7	[0, 0, 0]	-999	PAL1	0	R1196N
1383.535	4.0	1321619	TEST_PROBE	n/a	wordpools/wordpool_EN.txt	2	4	CLOTH	JET	CLOTH	JET	7	[0, 0, 0]	-999	PAL1	0	R1196N
1383.535	1.834	1321619	REC_START	n/a	n/a	2	-999	n/a	JET	n/a	n/a	7	[0, 0, 0]	-999	PAL1	0	R1196N
1385.369	2.183	1323453	REC_EVENT	1834.0	n/a	2	4	CLOTH	JET	CLOTH	JET	7	[0, 0, 0]	-999	PAL1	0	R1196N
1387.552	1.001	1325636	PROBE_OFF	n/a	n/a	2	-999	n/a	n/a	n/a	n/a	7	[0, 0, 0]	-999	PAL1	0	R1196N
1388.553	0.016	1326637	REC_END	n/a	n/a	2	-999	n/a	n/a	n/a	n/a	7	[0, 0, 0]	-999	PAL1	0	R1196N
1388.569	0.267	1326653	TEST_ORIENT	n/a	n/a	3	5	MOON	SNOW	SNOW	MOON	7	[0, 0, 0]	-999	PAL1	0	R1196N
1388.836	0.567	1326920	RETRIEVAL_ORIENT_OFF	n/a	n/a	2	-999	n/a	n/a	n/a	n/a	7	[0, 0, 0]	-999	PAL1	0	R1196N
1389.403	0.0	1327487	REC_START	n/a	n/a	3	-999	n/a	SNOW	n/a	n/a	7	[0, 0, 0]	-999	PAL1	0	R1196N
1389.403	4.0	1327487	TEST_PROBE	n/a	wordpools/wordpool_EN.txt	3	5	MOON	SNOW	SNOW	MOON	7	[0, 0, 0]	-999	PAL1	0	R1196N
1390.408	3.012	1328492	REC_EVENT	1005.0	n/a	3	5	MOON	SNOW	SNOW	MOON	7	[0, 0, 0]	-999	PAL1	0	R1196N
1393.42	1.0	1331504	PROBE_OFF	n/a	n/a	3	-999	n/a	n/a	n/a	n/a	7	[0, 0, 0]	-999	PAL1	0	R1196N
1394.42	0.016	1332504	REC_END	n/a	n/a	3	-999	n/a	n/a	n/a	n/a	7	[0, 0, 0]	-999	PAL1	0	R1196N
1394.436	0.267	1332520	TEST_ORIENT	n/a	n/a	4	6	WHALE	SHELL	WHALE	SHELL	7	[0, 0, 0]	-999	PAL1	0	R1196N
1394.703	0.518	1332787	RETRIEVAL_ORIENT_OFF	n/a	n/a	3	-999	n/a	n/a	n/a	n/a	7	[0, 0, 0]	-999	PAL1	0	R1196N
1395.221	4.0	1333305	TEST_PROBE	n/a	wordpools/wordpool_EN.txt	4	6	WHALE	SHELL	WHALE	SHELL	7	[0, 0, 0]	-999	PAL1	0	R1196N
1395.221	1.055	1333305	REC_START	n/a	n/a	4	-999	n/a	SHELL	n/a	n/a	7	[0, 0, 0]	-999	PAL1	0	R1196N
1396.276	2.961	1334360	REC_EVENT	1055.0	n/a	4	6	WHALE	SHELL	WHALE	SHELL	7	[0, 0, 0]	-999	PAL1	0	R1196N
1399.237	1.0	1337321	PROBE_OFF	n/a	n/a	4	-999	n/a	n/a	n/a	n/a	7	[0, 0, 0]	-999	PAL1	0	R1196N
1400.237	0.004	1338321	REC_END	n/a	n/a	4	-999	n/a	n/a	n/a	n/a	7	[0, 0, 0]	-999	PAL1	0	R1196N
1400.241	12.581	1338325	RECALL_END	n/a	n/a	-999	-999	n/a	n/a	n/a	n/a	7	[0, 0, 0]	-999	PAL1	0	R1196N
1412.822	10.928	1350906	TRIAL	n/a	n/a	-999	-999	n/a	n/a	n/a	n/a	8	[0, 0, 0]	-999	PAL1	0	R1196N
1423.75	0.007	1361834	ENCODING_START	n/a	n/a	-999	-999	n/a	n/a	n/a	n/a	8	[0, 0, 0]	-999	PAL1	0	R1196N
1423.757	0.268	1361841	STUDY_ORIENT	n/a	n/a	1	3	FUR	n/a	FUDGE	FUR	8	[0, 0, 0]	-999	PAL1	0	R1196N
1424.025	0.599	1362109	STUDY_ORIENT_OFF	n/a	n/a	1	3	FUR	n/a	FUDGE	FUR	8	[0, 0, 0]	-999	PAL1	0	R1196N
1424.624	4.0	1362708	STUDY_PAIR	n/a	wordpools/wordpool_EN.txt	1	3	FUR	n/a	FUDGE	FUR	8	[0, 0, 0]	-999	PAL1	0	R1196N
1428.641	1.017	1366725	PAIR_OFF	n/a	n/a	1	3	FUR	n/a	FUDGE	FUR	8	[0, 0, 0]	-999	PAL1	0	R1196N
1429.658	0.268	1367742	STUDY_ORIENT	n/a	n/a	2	4	CHEEK	WAVE	CHEEK	WAVE	8	[0, 0, 0]	-999	PAL1	0	R1196N
1429.926	0.699	1368010	STUDY_ORIENT_OFF	n/a	n/a	2	4	CHEEK	WAVE	CHEEK	WAVE	8	[0, 0, 0]	-999	PAL1	0	R1196N
1430.625	4.0	1368709	STUDY_PAIR	n/a	wordpools/wordpool_EN.txt	2	4	CHEEK	WAVE	CHEEK	WAVE	8	[0, 0, 0]	-999	PAL1	0	R1196N
1434.642	1.017	1372726	PAIR_OFF	n/a	n/a	2	4	CHEEK	WAVE	CHEEK	WAVE	8	[0, 0, 0]	-999	PAL1	0	R1196N
1435.659	0.267	1373743	STUDY_ORIENT	n/a	n/a	3	1	INK	GLOVE	GLOVE	INK	8	[0, 0, 0]	-999	PAL1	0	R1196N
1435.926	0.683	1374010	STUDY_ORIENT_OFF	n/a	n/a	3	1	INK	GLOVE	GLOVE	INK	8	[0, 0, 0]	-999	PAL1	0	R1196N
1436.609	4.0	1374693	STUDY_PAIR	n/a	wordpools/wordpool_EN.txt	3	1	INK	GLOVE	GLOVE	INK	8	[0, 0, 0]	-999	PAL1	0	R1196N
1440.626	1.017	1378709	PAIR_OFF	n/a	n/a	3	1	INK	GLOVE	GLOVE	INK	8	[0, 0, 0]	-999	PAL1	0	R1196N
1441.643	0.268	1379726	STUDY_ORIENT	n/a	n/a	4	6	CHIEF	STICK	STICK	CHIEF	8	[0, 0, 0]	-999	PAL1	0	R1196N
1441.911	0.699	1379994	STUDY_ORIENT_OFF	n/a	n/a	4	6	CHIEF	STICK	STICK	CHIEF	8	[0, 0, 0]	-999	PAL1	0	R1196N
1442.61	4.0	1380693	STUDY_PAIR	n/a	wordpools/wordpool_EN.txt	4	6	CHIEF	STICK	STICK	CHIEF	8	[0, 0, 0]	-999	PAL1	0	R1196N
1446.627	1.017	1384710	PAIR_OFF	n/a	n/a	4	6	CHIEF	STICK	STICK	CHIEF	8	[0, 0, 0]	-999	PAL1	0	R1196N
1447.644	0.267	1385727	STUDY_ORIENT	n/a	n/a	5	5	RAKE	FOOD	RAKE	FOOD	8	[0, 0, 0]	-999	PAL1	0	R1196N
1447.911	0.649	1385994	STUDY_ORIENT_OFF	n/a	n/a	5	5	RAKE	FOOD	RAKE	FOOD	8	[0, 0, 0]	-999	PAL1	0	R1196N
1448.56	4.0	1386643	STUDY_PAIR	n/a	wordpools/wordpool_EN.txt	5	5	RAKE	FOOD	RAKE	FOOD	8	[0, 0, 0]	-999	PAL1	0	R1196N
1452.578	1.017	1390661	PAIR_OFF	n/a	n/a	5	5	RAKE	FOOD	RAKE	FOOD	8	[0, 0, 0]	-999	PAL1	0	R1196N
1453.595	0.266	1391678	STUDY_ORIENT	n/a	n/a	6	2	TEETH	n/a	TEETH	TRAY	8	[0, 0, 0]	-999	PAL1	0	R1196N
1453.861	0.617	1391944	STUDY_ORIENT_OFF	n/a	n/a	6	2	TEETH	n/a	TEETH	TRAY	8	[0, 0, 0]	-999	PAL1	0	R1196N
1454.478	4.0	1392561	STUDY_PAIR	n/a	wordpools/wordpool_EN.txt	6	2	TEETH	n/a	TEETH	TRAY	8	[0, 0, 0]	-999	PAL1	0	R1196N
1458.495	1.001	1396578	PAIR_OFF	n/a	n/a	6	2	TEETH	n/a	TEETH	TRAY	8	[0, 0, 0]	-999	PAL1	0	R1196N
1459.496	0.0	1397579	ENCODING_END	n/a	n/a	-999	-999	n/a	n/a	n/a	n/a	8	[0, 0, 0]	-999	PAL1	0	R1196N
1459.496	0.0	1397579	MATH_START	n/a	n/a	-999	-999	n/a	n/a	n/a	n/a	8	[0, 0, 0]	-999	PAL1	0	R1196N
1459.496	0.016	1397579	START	n/a	n/a	-999	-999	n/a	n/a	n/a	n/a	8	[-999, -999, -999]	-999	PAL1	0	R1196N
1459.512	4.067	1397595	PROB	4041.0	n/a	-999	-999	n/a	n/a	n/a	n/a	8	[2, 4, 2]	8	PAL1	0	R1196N
1463.579	5.619	1401662	PROB	5591.0	n/a	-999	-999	n/a	n/a	n/a	n/a	8	[9, 5, 6]	20	PAL1	0	R1196N
1469.198	4.649	1407281	PROB	4627.0	n/a	-999	-999	n/a	n/a	n/a	n/a	8	[1, 5, 8]	14	PAL1	0	R1196N
1473.847	3.252	1411930	PROB	3226.0	n/a	-999	-999	n/a	n/a	n/a	n/a	8	[3, 7, 2]	12	PAL1	0	R1196N
1477.099	4.309	1415182	PROB	4309.0	n/a	-999	-999	n/a	n/a	n/a	n/a	8	[7, 4, 7]	18	PAL1	0	R1196N
1481.408	0.007	1419491	STOP	n/a	n/a	-999	-999	n/a	n/a	n/a	n/a	8	[-999, -999, -999]	-999	PAL1	0	R1196N
1481.415	0.0	1419498	MATH_END	n/a	n/a	-999	-999	n/a	n/a	n/a	n/a	8	[0, 0, 0]	-999	PAL1	0	R1196N
1481.415	0.017	1419498	RECALL_START	n/a	n/a	-999	-999	n/a	n/a	n/a	n/a	8	[0, 0, 0]	-999	PAL1	0	R1196N
1481.432	0.266	1419515	TEST_ORIENT	n/a	n/a	3	1	INK	GLOVE	GLOVE	INK	8	[0, 0, 0]	-999	PAL1	0	R1196N
1481.698	0.634	1419781	RETRIEVAL_ORIENT_OFF	n/a	n/a	-999	-999	n/a	n/a	n/a	n/a	8	[0, 0, 0]	-999	PAL1	0	R1196N
1482.332	0.0	1420415	REC_START	n/a	n/a	3	-999	n/a	GLOVE	n/a	n/a	8	[0, 0, 0]	-999	PAL1	0	R1196N
1482.332	4.0	1420415	TEST_PROBE	n/a	wordpools/wordpool_EN.txt	3	1	INK	GLOVE	GLOVE	INK	8	[0, 0, 0]	-999	PAL1	0	R1196N
1484.756	1.593	1422839	REC_EVENT	2424.0	n/a	3	1	INK	GLOVE	GLOVE	INK	8	[0, 0, 0]	-999	PAL1	0	R1196N
1486.349	1.0	1424432	PROBE_OFF	n/a	n/a	3	-999	n/a	n/a	n/a	n/a	8	[0, 0, 0]	-999	PAL1	0	R1196N
1487.349	0.017	1425432	REC_END	n/a	n/a	3	-999	n/a	n/a	n/a	n/a	8	[0, 0, 0]	-999	PAL1	0	R1196N
1487.366	0.266	1425449	TEST_ORIENT	n/a	n/a	6	2	TEETH	n/a	TEETH	TRAY	8	[0, 0, 0]	-999	PAL1	0	R1196N
1487.632	0.634	1425715	RETRIEVAL_ORIENT_OFF	n/a	n/a	3	-999	n/a	n/a	n/a	n/a	8	[0, 0, 0]	-999	PAL1	0	R1196N
1488.266	4.0	1426349	TEST_PROBE	n/a	wordpools/wordpool_EN.txt	6	2	TEETH	n/a	TEETH	TRAY	8	[0, 0, 0]	-999	PAL1	0	R1196N
1488.266	4.017	1426349	REC_START	n/a	n/a	6	-999	n/a	n/a	n/a	n/a	8	[0, 0, 0]	-999	PAL1	0	R1196N
1492.283	1.0	1430366	PROBE_OFF	n/a	n/a	6	-999	n/a	n/a	n/a	n/a	8	[0, 0, 0]	-999	PAL1	0	R1196N
1493.283	0.004	1431366	REC_END	n/a	n/a	6	-999	n/a	n/a	n/a	n/a	8	[0, 0, 0]	-999	PAL1	0	R1196N
1493.287	0.013	1431370	REC_EVENT	5021.0	n/a	6	2	TEETH	<>	TEETH	TRAY	8	[0, 0, 0]	-999	PAL1	0	R1196N
1493.3	0.267	1431383	TEST_ORIENT	n/a	n/a	1	3	FUR	n/a	FUDGE	FUR	8	[0, 0, 0]	-999	PAL1	0	R1196N
1493.567	0.634	1431650	RETRIEVAL_ORIENT_OFF	n/a	n/a	6	-999	n/a	n/a	n/a	n/a	8	[0, 0, 0]	-999	PAL1	0	R1196N
1494.201	0.0	1432284	REC_START	n/a	n/a	1	-999	n/a	n/a	n/a	n/a	8	[0, 0, 0]	-999	PAL1	0	R1196N
1494.201	4.0	1432284	TEST_PROBE	n/a	wordpools/wordpool_EN.txt	1	3	FUR	n/a	FUDGE	FUR	8	[0, 0, 0]	-999	PAL1	0	R1196N
1498.218	0.998	1436301	PROBE_OFF	n/a	n/a	1	-999	n/a	n/a	n/a	n/a	8	[0, 0, 0]	-999	PAL1	0	R1196N
1499.216	0.002	1437299	REC_EVENT	5015.0	n/a	1	3	FUR	<>	FUDGE	FUR	8	[0, 0, 0]	-999	PAL1	0	R1196N
1499.218	0.016	1437301	REC_END	n/a	n/a	1	-999	n/a	n/a	n/a	n/a	8	[0, 0, 0]	-999	PAL1	0	R1196N
1499.234	0.267	1437317	TEST_ORIENT	n/a	n/a	2	4	CHEEK	WAVE	CHEEK	WAVE	8	[0, 0, 0]	-999	PAL1	0	R1196N
1499.501	0.717	1437584	RETRIEVAL_ORIENT_OFF	n/a	n/a	1	-999	n/a	n/a	n/a	n/a	8	[0, 0, 0]	-999	PAL1	0	R1196N
1500.218	4.0	1438301	TEST_PROBE	n/a	wordpools/wordpool_EN.txt	2	4	CHEEK	WAVE	CHEEK	WAVE	8	[0, 0, 0]	-999	PAL1	0	R1196N
1500.219	2.028	1438302	REC_START	n/a	n/a	2	-999	n/a	WAVE	n/a	n/a	8	[0, 0, 0]	-999	PAL1	0	R1196N
1502.247	1.988	1440330	REC_EVENT	2028.0	n/a	2	4	CHEEK	WAVE	CHEEK	WAVE	8	[0, 0, 0]	-999	PAL1	0	R1196N
1504.235	1.0	1442318	PROBE_OFF	n/a	n/a	2	-999	n/a	n/a	n/a	n/a	8	[0, 0, 0]	-999	PAL1	0	R1196N
1505.235	0.017	1443318	REC_END	n/a	n/a	2	-999	n/a	n/a	n/a	n/a	8	[0, 0, 0]	-999	PAL1	0	R1196N
1505.252	0.266	1443335	TEST_ORIENT	n/a	n/a	5	5	RAKE	FOOD	RAKE	FOOD	8	[0, 0, 0]	-999	PAL1	0	R1196N
1505.518	0.535	1443601	RETRIEVAL_ORIENT_OFF	n/a	n/a	2	-999	n/a	n/a	n/a	n/a	8	[0, 0, 0]	-999	PAL1	0	R1196N
1506.053	4.0	1444136	TEST_PROBE	n/a	wordpools/wordpool_EN.txt	5	5	RAKE	FOOD	RAKE	FOOD	8	[0, 0, 0]	-999	PAL1	0	R1196N
1506.053	1.39	1444136	REC_START	n/a	n/a	5	-999	n/a	FOOD	n/a	n/a	8	[0, 0, 0]	-999	PAL1	0	R1196N
1507.443	2.627	1445526	REC_EVENT	1390.0	n/a	5	5	RAKE	FOOD	RAKE	FOOD	8	[0, 0, 0]	-999	PAL1	0	R1196N
1510.07	1.0	1448153	PROBE_OFF	n/a	n/a	5	-999	n/a	n/a	n/a	n/a	8	[0, 0, 0]	-999	PAL1	0	R1196N
1511.07	0.017	1449153	REC_END	n/a	n/a	5	-999	n/a	n/a	n/a	n/a	8	[0, 0, 0]	-999	PAL1	0	R1196N
1511.087	0.265	1449170	TEST_ORIENT	n/a	n/a	4	6	CHIEF	STICK	STICK	CHIEF	8	[0, 0, 0]	-999	PAL1	0	R1196N
1511.352	0.601	1449435	RETRIEVAL_ORIENT_OFF	n/a	n/a	5	-999	n/a	n/a	n/a	n/a	8	[0, 0, 0]	-999	PAL1	0	R1196N
1511.953	4.0	1450036	TEST_PROBE	n/a	wordpools/wordpool_EN.txt	4	6	CHIEF	STICK	STICK	CHIEF	8	[0, 0, 0]	-999	PAL1	0	R1196N
1511.954	3.383	1450037	REC_START	n/a	n/a	4	-999	n/a	STICK	n/a	n/a	8	[0, 0, 0]	-999	PAL1	0	R1196N
1515.337	0.634	1453420	REC_EVENT	3383.0	n/a	4	6	CHIEF	STICK	STICK	CHIEF	8	[0, 0, 0]	-999	PAL1	0	R1196N
1515.971	1.0	1454054	PROBE_OFF	n/a	n/a	4	-999	n/a	n/a	n/a	n/a	8	[0, 0, 0]	-999	PAL1	0	R1196N
1516.971	0.01	1455054	REC_END	n/a	n/a	4	-999	n/a	n/a	n/a	n/a	8	[0, 0, 0]	-999	PAL1	0	R1196N
1516.981	8.607	1455064	RECALL_END	n/a	n/a	-999	-999	n/a	n/a	n/a	n/a	8	[0, 0, 0]	-999	PAL1	0	R1196N
1525.588	10.929	1463671	TRIAL	n/a	n/a	-999	-999	n/a	n/a	n/a	n/a	9	[0, 0, 0]	-999	PAL1	0	R1196N
1536.517	0.005	1474600	ENCODING_START	n/a	n/a	-999	-999	n/a	n/a	n/a	n/a	9	[0, 0, 0]	-999	PAL1	0	R1196N
1536.522	0.267	1474605	STUDY_ORIENT	n/a	n/a	1	1	BOX	BREAD	BREAD	BOX	9	[0, 0, 0]	-999	PAL1	0	R1196N
1536.789	0.65	1474872	STUDY_ORIENT_OFF	n/a	n/a	1	1	BOX	BREAD	BREAD	BOX	9	[0, 0, 0]	-999	PAL1	0	R1196N
1537.439	4.0	1475522	STUDY_PAIR	n/a	wordpools/wordpool_EN.txt	1	1	BOX	BREAD	BREAD	BOX	9	[0, 0, 0]	-999	PAL1	0	R1196N
1541.456	1.017	1479538	PAIR_OFF	n/a	n/a	1	1	BOX	BREAD	BREAD	BOX	9	[0, 0, 0]	-999	PAL1	0	R1196N
1542.473	0.267	1480555	STUDY_ORIENT	n/a	n/a	2	2	CLAY	FACE	CLAY	FACE	9	[0, 0, 0]	-999	PAL1	0	R1196N
1542.74	0.567	1480822	STUDY_ORIENT_OFF	n/a	n/a	2	2	CLAY	FACE	CLAY	FACE	9	[0, 0, 0]	-999	PAL1	0	R1196N
1543.307	4.0	1481389	STUDY_PAIR	n/a	wordpools/wordpool_EN.txt	2	2	CLAY	FACE	CLAY	FACE	9	[0, 0, 0]	-999	PAL1	0	R1196N
1547.324	1.017	1485406	PAIR_OFF	n/a	n/a	2	2	CLAY	FACE	CLAY	FACE	9	[0, 0, 0]	-999	PAL1	0	R1196N
1548.341	0.266	1486423	STUDY_ORIENT	n/a	n/a	3	5	OWL	LIP	LIP	OWL	9	[0, 0, 0]	-999	PAL1	0	R1196N
1548.607	0.568	1486689	STUDY_ORIENT_OFF	n/a	n/a	3	5	OWL	LIP	LIP	OWL	9	[0, 0, 0]	-999	PAL1	0	R1196N
1549.175	4.0	1487257	STUDY_PAIR	n/a	wordpools/wordpool_EN.txt	3	5	OWL	LIP	LIP	OWL	9	[0, 0, 0]	-999	PAL1	0	R1196N
1553.192	1.017	1491274	PAIR_OFF	n/a	n/a	3	5	OWL	LIP	LIP	OWL	9	[0, 0, 0]	-999	PAL1	0	R1196N
1554.209	0.266	1492291	STUDY_ORIENT	n/a	n/a	4	6	BEAR	BOARD	BOARD	BEAR	9	[0, 0, 0]	-999	PAL1	0	R1196N
1554.475	0.75	1492557	STUDY_ORIENT_OFF	n/a	n/a	4	6	BEAR	BOARD	BOARD	BEAR	9	[0, 0, 0]	-999	PAL1	0	R1196N
1555.225	4.0	1493307	STUDY_PAIR	n/a	wordpools/wordpool_EN.txt	4	6	BEAR	BOARD	BOARD	BEAR	9	[0, 0, 0]	-999	PAL1	0	R1196N
1559.225	1.017	1497307	PAIR_OFF	n/a	n/a	4	6	BEAR	BOARD	BOARD	BEAR	9	[0, 0, 0]	-999	PAL1	0	R1196N
1560.242	0.267	1498324	STUDY_ORIENT	n/a	n/a	5	3	STOVE	n/a	SMOKE	STOVE	9	[0, 0, 0]	-999	PAL1	0	R1196N
1560.509	0.618	1498591	STUDY_ORIENT_OFF	n/a	n/a	5	3	STOVE	n/a	SMOKE	STOVE	9	[0, 0, 0]	-999	PAL1	0	R1196N
1561.127	4.0	1499209	STUDY_PAIR	n/a	wordpools/wordpool_EN.txt	5	3	STOVE	n/a	SMOKE	STOVE	9	[0, 0, 0]	-999	PAL1	0	R1196N
1565.144	1.017	1503226	PAIR_OFF	n/a	n/a	5	3	STOVE	n/a	SMOKE	STOVE	9	[0, 0, 0]	-999	PAL1	0	R1196N
1566.161	0.265	1504243	STUDY_ORIENT	n/a	n/a	6	4	BEACH	n/a	BEACH	FRUIT	9	[0, 0, 0]	-999	PAL1	0	R1196N
1566.426	0.535	1504508	STUDY_ORIENT_OFF	n/a	n/a	6	4	BEACH	n/a	BEACH	FRUIT	9	[0, 0, 0]	-999	PAL1	0	R1196N
1566.961	4.0	1505043	STUDY_PAIR	n/a	wordpools/wordpool_EN.txt	6	4	BEACH	n/a	BEACH	FRUIT	9	[0, 0, 0]	-999	PAL1	0	R1196N
1570.978	1.0	1509060	PAIR_OFF	n/a	n/a	6	4	BEACH	n/a	BEACH	FRUIT	9	[0, 0, 0]	-999	PAL1	0	R1196N
1571.978	0.0	1510060	ENCODING_END	n/a	n/a	-999	-999	n/a	n/a	n/a	n/a	9	[0, 0, 0]	-999	PAL1	0	R1196N
1571.978	0.0	1510060	MATH_START	n/a	n/a	-999	-999	n/a	n/a	n/a	n/a	9	[0, 0, 0]	-999	PAL1	0	R1196N
1571.978	0.017	1510060	START	n/a	n/a	-999	-999	n/a	n/a	n/a	n/a	9	[-999, -999, -999]	-999	PAL1	0	R1196N
1571.995	3.649	1510077	PROB	3626.0	n/a	-999	-999	n/a	n/a	n/a	n/a	9	[9, 5, 2]	16	PAL1	0	R1196N
1575.644	4.519	1513726	PROB	4482.0	n/a	-999	-999	n/a	n/a	n/a	n/a	9	[6, 6, 8]	20	PAL1	0	R1196N
1580.163	3.616	1518245	PROB	3594.0	n/a	-999	-999	n/a	n/a	n/a	n/a	9	[3, 8, 3]	14	PAL1	0	R1196N
1583.779	4.301	1521861	PROB	4275.0	n/a	-999	-999	n/a	n/a	n/a	n/a	9	[3, 4, 8]	15	PAL1	0	R1196N
1588.08	3.902	1526162	PROB	3902.0	n/a	-999	-999	n/a	n/a	n/a	n/a	9	[6, 4, 7]	17	PAL1	0	R1196N
1591.982	0.015	1530064	STOP	n/a	n/a	-999	-999	n/a	n/a	n/a	n/a	9	[-999, -999, -999]	-999	PAL1	0	R1196N
1591.997	0.001	1530079	MATH_END	n/a	n/a	-999	-999	n/a	n/a	n/a	n/a	9	[0, 0, 0]	-999	PAL1	0	R1196N
1591.998	0.016	1530080	RECALL_START	n/a	n/a	-999	-999	n/a	n/a	n/a	n/a	9	[0, 0, 0]	-999	PAL1	0	R1196N
1592.014	0.266	1530096	TEST_ORIENT	n/a	n/a	1	1	BOX	BREAD	BREAD	BOX	9	[0, 0, 0]	-999	PAL1	0	R1196N
1592.28	0.583	1530362	RETRIEVAL_ORIENT_OFF	n/a	n/a	-999	-999	n/a	n/a	n/a	n/a	9	[0, 0, 0]	-999	PAL1	0	R1196N
1592.863	4.0	1530945	TEST_PROBE	n/a	wordpools/wordpool_EN.txt	1	1	BOX	BREAD	BREAD	BOX	9	[0, 0, 0]	-999	PAL1	0	R1196N
1592.864	1.535	1530946	REC_START	n/a	n/a	1	-999	n/a	BREAD	n/a	n/a	9	[0, 0, 0]	-999	PAL1	0	R1196N
1594.399	2.481	1532481	REC_EVENT	1535.0	n/a	1	1	BOX	BREAD	BREAD	BOX	9	[0, 0, 0]	-999	PAL1	0	R1196N
1596.88	1.001	1534962	PROBE_OFF	n/a	n/a	1	-999	n/a	n/a	n/a	n/a	9	[0, 0, 0]	-999	PAL1	0	R1196N
1597.881	0.016	1535963	REC_END	n/a	n/a	1	-999	n/a	n/a	n/a	n/a	9	[0, 0, 0]	-999	PAL1	0	R1196N
1597.897	0.268	1535979	TEST_ORIENT	n/a	n/a	2	2	CLAY	FACE	CLAY	FACE	9	[0, 0, 0]	-999	PAL1	0	R1196N
1598.165	0.616	1536247	RETRIEVAL_ORIENT_OFF	n/a	n/a	1	-999	n/a	n/a	n/a	n/a	9	[0, 0, 0]	-999	PAL1	0	R1196N
1598.781	4.0	1536863	TEST_PROBE	n/a	wordpools/wordpool_EN.txt	2	2	CLAY	FACE	CLAY	FACE	9	[0, 0, 0]	-999	PAL1	0	R1196N
1598.781	0.877	1536863	REC_START	n/a	n/a	2	-999	n/a	FACE	n/a	n/a	9	[0, 0, 0]	-999	PAL1	0	R1196N
1599.658	3.14	1537740	REC_EVENT	877.0	n/a	2	2	CLAY	FACE	CLAY	FACE	9	[0, 0, 0]	-999	PAL1	0	R1196N
1602.798	1.0	1540880	PROBE_OFF	n/a	n/a	2	-999	n/a	n/a	n/a	n/a	9	[0, 0, 0]	-999	PAL1	0	R1196N
1603.798	0.017	1541880	REC_END	n/a	n/a	2	-999	n/a	n/a	n/a	n/a	9	[0, 0, 0]	-999	PAL1	0	R1196N
1603.815	0.267	1541897	TEST_ORIENT	n/a	n/a	5	3	STOVE	n/a	SMOKE	STOVE	9	[0, 0, 0]	-999	PAL1	0	R1196N
1604.082	0.616	1542164	RETRIEVAL_ORIENT_OFF	n/a	n/a	2	-999	n/a	n/a	n/a	n/a	9	[0, 0, 0]	-999	PAL1	0	R1196N
1604.698	4.0	1542780	TEST_PROBE	n/a	wordpools/wordpool_EN.txt	5	3	STOVE	n/a	SMOKE	STOVE	9	[0, 0, 0]	-999	PAL1	0	R1196N
1604.699	4.016	1542781	REC_START	n/a	n/a	5	-999	n/a	n/a	n/a	n/a	9	[0, 0, 0]	-999	PAL1	0	R1196N
1608.715	1.001	1546797	PROBE_OFF	n/a	n/a	5	-999	n/a	n/a	n/a	n/a	9	[0, 0, 0]	-999	PAL1	0	R1196N
1609.716	0.004	1547798	REC_END	n/a	n/a	5	-999	n/a	n/a	n/a	n/a	9	[0, 0, 0]	-999	PAL1	0	R1196N
1609.72	0.012	1547802	REC_EVENT	5021.0	n/a	5	3	STOVE	<>	SMOKE	STOVE	9	[0, 0, 0]	-999	PAL1	0	R1196N
1609.732	0.251	1547814	TEST_ORIENT	n/a	n/a	6	4	BEACH	n/a	BEACH	FRUIT	9	[0, 0, 0]	-999	PAL1	0	R1196N
1609.983	0.733	1548065	RETRIEVAL_ORIENT_OFF	n/a	n/a	5	-999	n/a	n/a	n/a	n/a	9	[0, 0, 0]	-999	PAL1	0	R1196N
1610.716	4.0	1548798	TEST_PROBE	n/a	wordpools/wordpool_EN.txt	6	4	BEACH	n/a	BEACH	FRUIT	9	[0, 0, 0]	-999	PAL1	0	R1196N
1610.716	4.017	1548798	REC_START	n/a	n/a	6	-999	n/a	n/a	n/a	n/a	9	[0, 0, 0]	-999	PAL1	0	R1196N
1614.733	0.998	1552815	PROBE_OFF	n/a	n/a	6	-999	n/a	n/a	n/a	n/a	9	[0, 0, 0]	-999	PAL1	0	R1196N
1615.731	0.002	1553813	REC_EVENT	5015.0	n/a	6	4	BEACH	<>	BEACH	FRUIT	9	[0, 0, 0]	-999	PAL1	0	R1196N
1615.733	0.017	1553815	REC_END	n/a	n/a	6	-999	n/a	n/a	n/a	n/a	9	[0, 0, 0]	-999	PAL1	0	R1196N
1615.75	0.267	1553832	TEST_ORIENT	n/a	n/a	3	5	OWL	LIP	LIP	OWL	9	[0, 0, 0]	-999	PAL1	0	R1196N
1616.017	0.716	1554099	RETRIEVAL_ORIENT_OFF	n/a	n/a	6	-999	n/a	n/a	n/a	n/a	9	[0, 0, 0]	-999	PAL1	0	R1196N
1616.733	4.0	1554815	TEST_PROBE	n/a	wordpools/wordpool_EN.txt	3	5	OWL	LIP	LIP	OWL	9	[0, 0, 0]	-999	PAL1	0	R1196N
1616.734	1.428	1554816	REC_START	n/a	n/a	3	-999	n/a	LIP	n/a	n/a	9	[0, 0, 0]	-999	PAL1	0	R1196N
1618.162	2.588	1556244	REC_EVENT	1428.0	n/a	3	5	OWL	LIP	LIP	OWL	9	[0, 0, 0]	-999	PAL1	0	R1196N
1620.75	1.0	1558832	PROBE_OFF	n/a	n/a	3	-999	n/a	n/a	n/a	n/a	9	[0, 0, 0]	-999	PAL1	0	R1196N
1621.75	0.017	1559832	REC_END	n/a	n/a	3	-999	n/a	n/a	n/a	n/a	9	[0, 0, 0]	-999	PAL1	0	R1196N
1621.767	0.268	1559849	TEST_ORIENT	n/a	n/a	4	6	BEAR	BOARD	BOARD	BEAR	9	[0, 0, 0]	-999	PAL1	0	R1196N
1622.035	0.532	1560117	RETRIEVAL_ORIENT_OFF	n/a	n/a	3	-999	n/a	n/a	n/a	n/a	9	[0, 0, 0]	-999	PAL1	0	R1196N
1622.567	4.0	1560649	TEST_PROBE	n/a	wordpools/wordpool_EN.txt	4	6	BEAR	BOARD	BOARD	BEAR	9	[0, 0, 0]	-999	PAL1	0	R1196N
1622.568	1.491	1560650	REC_START	n/a	n/a	4	-999	n/a	BOARD	n/a	n/a	9	[0, 0, 0]	-999	PAL1	0	R1196N
1624.059	2.525	1562141	REC_EVENT	1491.0	n/a	4	6	BEAR	BOARD	BOARD	BEAR	9	[0, 0, 0]	-999	PAL1	0	R1196N
1626.584	1.0	1564666	PROBE_OFF	n/a	n/a	4	-999	n/a	n/a	n/a	n/a	9	[0, 0, 0]	-999	PAL1	0	R1196N
1627.584	0.01	1565666	REC_END	n/a	n/a	4	-999	n/a	n/a	n/a	n/a	9	[0, 0, 0]	-999	PAL1	0	R1196N
1627.594	7.225	1565676	RECALL_END	n/a	n/a	-999	-999	n/a	n/a	n/a	n/a	9	[0, 0, 0]	-999	PAL1	0	R1196N
1634.819	10.928	1572901	TRIAL	n/a	n/a	-999	-999	n/a	n/a	n/a	n/a	10	[0, 0, 0]	-999	PAL1	0	R1196N
1645.747	0.007	1583828	ENCODING_START	n/a	n/a	-999	-999	n/a	n/a	n/a	n/a	10	[0, 0, 0]	-999	PAL1	0	R1196N
1645.754	0.267	1583835	STUDY_ORIENT	n/a	n/a	1	3	APE	FLAG	APE	FLAG	10	[0, 0, 0]	-999	PAL1	0	R1196N
1646.021	0.65	1584102	STUDY_ORIENT_OFF	n/a	n/a	1	3	APE	FLAG	APE	FLAG	10	[0, 0, 0]	-999	PAL1	0	R1196N
1646.671	4.0	1584752	STUDY_PAIR	n/a	wordpools/wordpool_EN.txt	1	3	APE	FLAG	APE	FLAG	10	[0, 0, 0]	-999	PAL1	0	R1196N
1650.688	1.017	1588769	PAIR_OFF	n/a	n/a	1	3	APE	FLAG	APE	FLAG	10	[0, 0, 0]	-999	PAL1	0	R1196N
1651.705	0.267	1589786	STUDY_ORIENT	n/a	n/a	2	4	BALL	n/a	BALL	BOOT	10	[0, 0, 0]	-999	PAL1	0	R1196N
1651.972	0.733	1590053	STUDY_ORIENT_OFF	n/a	n/a	2	4	BALL	n/a	BALL	BOOT	10	[0, 0, 0]	-999	PAL1	0	R1196N
1652.705	4.0	1590786	STUDY_PAIR	n/a	wordpools/wordpool_EN.txt	2	4	BALL	n/a	BALL	BOOT	10	[0, 0, 0]	-999	PAL1	0	R1196N
1656.722	1.017	1594803	PAIR_OFF	n/a	n/a	2	4	BALL	n/a	BALL	BOOT	10	[0, 0, 0]	-999	PAL1	0	R1196N
1657.739	0.267	1595820	STUDY_ORIENT	n/a	n/a	3	1	CORN	PIN	PIN	CORN	10	[0, 0, 0]	-999	PAL1	0	R1196N
1658.006	0.75	1596087	STUDY_ORIENT_OFF	n/a	n/a	3	1	CORN	PIN	PIN	CORN	10	[0, 0, 0]	-999	PAL1	0	R1196N
1658.756	4.0	1596837	STUDY_PAIR	n/a	wordpools/wordpool_EN.txt	3	1	CORN	PIN	PIN	CORN	10	[0, 0, 0]	-999	PAL1	0	R1196N
1662.773	1.016	1600854	PAIR_OFF	n/a	n/a	3	1	CORN	PIN	PIN	CORN	10	[0, 0, 0]	-999	PAL1	0	R1196N
1663.789	0.251	1601870	STUDY_ORIENT	n/a	n/a	4	2	TAIL	HOLE	TAIL	HOLE	10	[0, 0, 0]	-999	PAL1	0	R1196N
1664.04	0.716	1602121	STUDY_ORIENT_OFF	n/a	n/a	4	2	TAIL	HOLE	TAIL	HOLE	10	[0, 0, 0]	-999	PAL1	0	R1196N
1664.756	4.0	1602837	STUDY_PAIR	n/a	wordpools/wordpool_EN.txt	4	2	TAIL	HOLE	TAIL	HOLE	10	[0, 0, 0]	-999	PAL1	0	R1196N
1668.773	1.017	1606854	PAIR_OFF	n/a	n/a	4	2	TAIL	HOLE	TAIL	HOLE	10	[0, 0, 0]	-999	PAL1	0	R1196N
1669.79	0.251	1607871	STUDY_ORIENT	n/a	n/a	5	5	ROPE	SCHOOL	ROPE	SCHOOL	10	[0, 0, 0]	-999	PAL1	0	R1196N
1670.041	0.716	1608122	STUDY_ORIENT_OFF	n/a	n/a	5	5	ROPE	SCHOOL	ROPE	SCHOOL	10	[0, 0, 0]	-999	PAL1	0	R1196N
1670.757	4.0	1608838	STUDY_PAIR	n/a	wordpools/wordpool_EN.txt	5	5	ROPE	SCHOOL	ROPE	SCHOOL	10	[0, 0, 0]	-999	PAL1	0	R1196N
1674.774	1.017	1612855	PAIR_OFF	n/a	n/a	5	5	ROPE	SCHOOL	ROPE	SCHOOL	10	[0, 0, 0]	-999	PAL1	0	R1196N
1675.791	0.251	1613872	STUDY_ORIENT	n/a	n/a	6	6	PASTE	SHIRT	SHIRT	PASTE	10	[0, 0, 0]	-999	PAL1	0	R1196N
1676.042	0.733	1614123	STUDY_ORIENT_OFF	n/a	n/a	6	6	PASTE	SHIRT	SHIRT	PASTE	10	[0, 0, 0]	-999	PAL1	0	R1196N
1676.775	4.0	1614856	STUDY_PAIR	n/a	wordpools/wordpool_EN.txt	6	6	PASTE	SHIRT	SHIRT	PASTE	10	[0, 0, 0]	-999	PAL1	0	R1196N
1680.792	1.0	1618873	PAIR_OFF	n/a	n/a	6	6	PASTE	SHIRT	SHIRT	PASTE	10	[0, 0, 0]	-999	PAL1	0	R1196N
1681.792	0.0	1619873	ENCODING_END	n/a	n/a	-999	-999	n/a	n/a	n/a	n/a	10	[0, 0, 0]	-999	PAL1	0	R1196N
1681.792	0.0	1619873	MATH_START	n/a	n/a	-999	-999	n/a	n/a	n/a	n/a	10	[0, 0, 0]	-999	PAL1	0	R1196N
1681.792	0.017	1619873	START	n/a	n/a	-999	-999	n/a	n/a	n/a	n/a	10	[-999, -999, -999]	-999	PAL1	0	R1196N
1681.809	4.033	1619890	PROB	4009.0	n/a	-999	-999	n/a	n/a	n/a	n/a	10	[1, 8, 9]	18	PAL1	0	R1196N
1685.842	6.735	1623923	PROB	6712.0	n/a	-999	-999	n/a	n/a	n/a	n/a	10	[9, 8, 6]	23	PAL1	0	R1196N
1692.577	3.601	1630658	PROB	3577.0	n/a	-999	-999	n/a	n/a	n/a	n/a	10	[6, 4, 3]	13	PAL1	0	R1196N
1696.178	6.215	1634259	PROB	6215.0	n/a	-999	-999	n/a	n/a	n/a	n/a	10	[9, 9, 9]	27	PAL1	0	R1196N
1702.393	0.018	1640474	STOP	n/a	n/a	-999	-999	n/a	n/a	n/a	n/a	10	[-999, -999, -999]	-999	PAL1	0	R1196N
1702.411	0.001	1640492	MATH_END	n/a	n/a	-999	-999	n/a	n/a	n/a	n/a	10	[0, 0, 0]	-999	PAL1	0	R1196N
1702.412	0.016	1640493	RECALL_START	n/a	n/a	-999	-999	n/a	n/a	n/a	n/a	10	[0, 0, 0]	-999	PAL1	0	R1196N
1702.428	0.267	1640509	TEST_ORIENT	n/a	n/a	3	1	CORN	PIN	PIN	CORN	10	[0, 0, 0]	-999	PAL1	0	R1196N
1702.695	0.65	1640776	RETRIEVAL_ORIENT_OFF	n/a	n/a	-999	-999	n/a	n/a	n/a	n/a	10	[0, 0, 0]	-999	PAL1	0	R1196N
1703.345	4.0	1641426	TEST_PROBE	n/a	wordpools/wordpool_EN.txt	3	1	CORN	PIN	PIN	CORN	10	[0, 0, 0]	-999	PAL1	0	R1196N
1703.345	2.129	1641426	REC_START	n/a	n/a	3	-999	n/a	PIN	n/a	n/a	10	[0, 0, 0]	-999	PAL1	0	R1196N
1705.474	1.888	1643555	REC_EVENT	2129.0	n/a	3	1	CORN	PIN	PIN	CORN	10	[0, 0, 0]	-999	PAL1	0	R1196N
1707.362	1.009	1645443	PROBE_OFF	n/a	n/a	3	-999	n/a	n/a	n/a	n/a	10	[0, 0, 0]	-999	PAL1	0	R1196N
1708.371	0.008	1646452	REC_END	n/a	n/a	3	-999	n/a	n/a	n/a	n/a	10	[0, 0, 0]	-999	PAL1	0	R1196N
1708.379	0.266	1646460	TEST_ORIENT	n/a	n/a	4	2	TAIL	HOLE	TAIL	HOLE	10	[0, 0, 0]	-999	PAL1	0	R1196N
1708.645	0.584	1646726	RETRIEVAL_ORIENT_OFF	n/a	n/a	3	-999	n/a	n/a	n/a	n/a	10	[0, 0, 0]	-999	PAL1	0	R1196N
1709.229	4.0	1647310	TEST_PROBE	n/a	wordpools/wordpool_EN.txt	4	2	TAIL	HOLE	TAIL	HOLE	10	[0, 0, 0]	-999	PAL1	0	R1196N
1709.229	3.134	1647310	REC_START	n/a	n/a	4	-999	n/a	HOLE	n/a	n/a	10	[0, 0, 0]	-999	PAL1	0	R1196N
1712.363	0.883	1650444	REC_EVENT	3134.0	n/a	4	2	TAIL	HOLE	TAIL	HOLE	10	[0, 0, 0]	-999	PAL1	0	R1196N
1713.246	1.0	1651327	PROBE_OFF	n/a	n/a	4	-999	n/a	n/a	n/a	n/a	10	[0, 0, 0]	-999	PAL1	0	R1196N
1714.246	0.017	1652327	REC_END	n/a	n/a	4	-999	n/a	n/a	n/a	n/a	10	[0, 0, 0]	-999	PAL1	0	R1196N
1714.263	0.267	1652344	TEST_ORIENT	n/a	n/a	1	3	APE	FLAG	APE	FLAG	10	[0, 0, 0]	-999	PAL1	0	R1196N
1714.53	0.551	1652611	RETRIEVAL_ORIENT_OFF	n/a	n/a	4	-999	n/a	n/a	n/a	n/a	10	[0, 0, 0]	-999	PAL1	0	R1196N
1715.081	4.0	1653162	TEST_PROBE	n/a	wordpools/wordpool_EN.txt	1	3	APE	FLAG	APE	FLAG	10	[0, 0, 0]	-999	PAL1	0	R1196N
1715.081	1.27	1653162	REC_START	n/a	n/a	1	-999	n/a	FLAG	n/a	n/a	10	[0, 0, 0]	-999	PAL1	0	R1196N
1716.351	2.747	1654432	REC_EVENT	1270.0	n/a	1	3	APE	FLAG	APE	FLAG	10	[0, 0, 0]	-999	PAL1	0	R1196N
1719.098	1.0	1657179	PROBE_OFF	n/a	n/a	1	-999	n/a	n/a	n/a	n/a	10	[0, 0, 0]	-999	PAL1	0	R1196N
1720.098	0.017	1658179	REC_END	n/a	n/a	1	-999	n/a	n/a	n/a	n/a	10	[0, 0, 0]	-999	PAL1	0	R1196N
1720.115	0.265	1658196	TEST_ORIENT	n/a	n/a	2	4	BALL	n/a	BALL	BOOT	10	[0, 0, 0]	-999	PAL1	0	R1196N
1720.38	0.751	1658461	RETRIEVAL_ORIENT_OFF	n/a	n/a	1	-999	n/a	n/a	n/a	n/a	10	[0, 0, 0]	-999	PAL1	0	R1196N
1721.131	4.0	1659212	TEST_PROBE	n/a	wordpools/wordpool_EN.txt	2	4	BALL	n/a	BALL	BOOT	10	[0, 0, 0]	-999	PAL1	0	R1196N
1721.132	4.017	1659213	REC_START	n/a	n/a	2	-999	n/a	n/a	n/a	n/a	10	[0, 0, 0]	-999	PAL1	0	R1196N
1725.149	1.0	1663230	PROBE_OFF	n/a	n/a	2	-999	n/a	n/a	n/a	n/a	10	[0, 0, 0]	-999	PAL1	0	R1196N
1726.149	0.004	1664230	REC_END	n/a	n/a	2	-999	n/a	n/a	n/a	n/a	10	[0, 0, 0]	-999	PAL1	0	R1196N
1726.153	0.013	1664234	REC_EVENT	5021.0	n/a	2	4	BALL	<>	BALL	BOOT	10	[0, 0, 0]	-999	PAL1	0	R1196N
1726.166	0.265	1664247	TEST_ORIENT	n/a	n/a	5	5	ROPE	SCHOOL	ROPE	SCHOOL	10	[0, 0, 0]	-999	PAL1	0	R1196N
1726.431	0.585	1664512	RETRIEVAL_ORIENT_OFF	n/a	n/a	2	-999	n/a	n/a	n/a	n/a	10	[0, 0, 0]	-999	PAL1	0	R1196N
1727.016	4.0	1665097	TEST_PROBE	n/a	wordpools/wordpool_EN.txt	5	5	ROPE	SCHOOL	ROPE	SCHOOL	10	[0, 0, 0]	-999	PAL1	0	R1196N
1727.016	1.302	1665097	REC_START	n/a	n/a	5	-999	n/a	SCHOOL	n/a	n/a	10	[0, 0, 0]	-999	PAL1	0	R1196N
1728.318	2.715	1666399	REC_EVENT	1302.0	n/a	5	5	ROPE	SCHOOL	ROPE	SCHOOL	10	[0, 0, 0]	-999	PAL1	0	R1196N
1731.033	1.0	1669114	PROBE_OFF	n/a	n/a	5	-999	n/a	n/a	n/a	n/a	10	[0, 0, 0]	-999	PAL1	0	R1196N
1732.033	0.017	1670114	REC_END	n/a	n/a	5	-999	n/a	n/a	n/a	n/a	10	[0, 0, 0]	-999	PAL1	0	R1196N
1732.05	0.265	1670131	TEST_ORIENT	n/a	n/a	6	6	PASTE	SHIRT	SHIRT	PASTE	10	[0, 0, 0]	-999	PAL1	0	R1196N
1732.315	0.55	1670396	RETRIEVAL_ORIENT_OFF	n/a	n/a	5	-999	n/a	n/a	n/a	n/a	10	[0, 0, 0]	-999	PAL1	0	R1196N
1732.865	4.0	1670946	TEST_PROBE	n/a	wordpools/wordpool_EN.txt	6	6	PASTE	SHIRT	SHIRT	PASTE	10	[0, 0, 0]	-999	PAL1	0	R1196N
1732.866	1.156	1670947	REC_START	n/a	n/a	6	-999	n/a	SHIRT	n/a	n/a	10	[0, 0, 0]	-999	PAL1	0	R1196N
1734.022	2.861	1672103	REC_EVENT	1156.0	n/a	6	6	PASTE	SHIRT	SHIRT	PASTE	10	[0, 0, 0]	-999	PAL1	0	R1196N
1736.883	1.019	1674964	PROBE_OFF	n/a	n/a	6	-999	n/a	n/a	n/a	n/a	10	[0, 0, 0]	-999	PAL1	0	R1196N
1737.902	0.004	1675983	REC_END	n/a	n/a	6	-999	n/a	n/a	n/a	n/a	10	[0, 0, 0]	-999	PAL1	0	R1196N
1737.906	7.162	1675987	RECALL_END	n/a	n/a	-999	-999	n/a	n/a	n/a	n/a	10	[0, 0, 0]	-999	PAL1	0	R1196N
1745.068	10.929	1683148	TRIAL	n/a	n/a	-999	-999	n/a	n/a	n/a	n/a	11	[0, 0, 0]	-999	PAL1	0	R1196N
1755.997	0.006	1694077	ENCODING_START	n/a	n/a	-999	-999	n/a	n/a	n/a	n/a	11	[0, 0, 0]	-999	PAL1	0	R1196N
1756.003	0.266	1694083	STUDY_ORIENT	n/a	n/a	1	5	ROAD	n/a	KITE	ROAD	11	[0, 0, 0]	-999	PAL1	0	R1196N
1756.269	0.533	1694349	STUDY_ORIENT_OFF	n/a	n/a	1	5	ROAD	n/a	KITE	ROAD	11	[0, 0, 0]	-999	PAL1	0	R1196N
1756.802	4.0	1694882	STUDY_PAIR	n/a	wordpools/wordpool_EN.txt	1	5	ROAD	n/a	KITE	ROAD	11	[0, 0, 0]	-999	PAL1	0	R1196N
1760.819	1.017	1698899	PAIR_OFF	n/a	n/a	1	5	ROAD	n/a	KITE	ROAD	11	[0, 0, 0]	-999	PAL1	0	R1196N
1761.836	0.268	1699916	STUDY_ORIENT	n/a	n/a	2	6	CUP	WEED	CUP	WEED	11	[0, 0, 0]	-999	PAL1	0	R1196N
1762.104	0.582	1700184	STUDY_ORIENT_OFF	n/a	n/a	2	6	CUP	WEED	CUP	WEED	11	[0, 0, 0]	-999	PAL1	0	R1196N
1762.686	4.0	1700766	STUDY_PAIR	n/a	wordpools/wordpool_EN.txt	2	6	CUP	WEED	CUP	WEED	11	[0, 0, 0]	-999	PAL1	0	R1196N
1766.703	1.017	1704783	PAIR_OFF	n/a	n/a	2	6	CUP	WEED	CUP	WEED	11	[0, 0, 0]	-999	PAL1	0	R1196N
1767.72	0.251	1705800	STUDY_ORIENT	n/a	n/a	3	1	NET	n/a	BENCH	NET	11	[0, 0, 0]	-999	PAL1	0	R1196N
1767.971	0.599	1706051	STUDY_ORIENT_OFF	n/a	n/a	3	1	NET	n/a	BENCH	NET	11	[0, 0, 0]	-999	PAL1	0	R1196N
1768.57	4.0	1706650	STUDY_PAIR	n/a	wordpools/wordpool_EN.txt	3	1	NET	n/a	BENCH	NET	11	[0, 0, 0]	-999	PAL1	0	R1196N
1772.587	1.017	1710667	PAIR_OFF	n/a	n/a	3	1	NET	n/a	BENCH	NET	11	[0, 0, 0]	-999	PAL1	0	R1196N
1773.604	0.267	1711684	STUDY_ORIENT	n/a	n/a	4	2	WALL	n/a	WALL	TIE	11	[0, 0, 0]	-999	PAL1	0	R1196N
1773.871	0.6	1711951	STUDY_ORIENT_OFF	n/a	n/a	4	2	WALL	n/a	WALL	TIE	11	[0, 0, 0]	-999	PAL1	0	R1196N
1774.471	4.0	1712551	STUDY_PAIR	n/a	wordpools/wordpool_EN.txt	4	2	WALL	n/a	WALL	TIE	11	[0, 0, 0]	-999	PAL1	0	R1196N
1778.488	1.017	1716568	PAIR_OFF	n/a	n/a	4	2	WALL	n/a	WALL	TIE	11	[0, 0, 0]	-999	PAL1	0	R1196N
1779.505	0.267	1717585	STUDY_ORIENT	n/a	n/a	5	3	NEST	n/a	TOOL	NEST	11	[0, 0, 0]	-999	PAL1	0	R1196N
1779.772	0.533	1717852	STUDY_ORIENT_OFF	n/a	n/a	5	3	NEST	n/a	TOOL	NEST	11	[0, 0, 0]	-999	PAL1	0	R1196N
1780.305	4.0	1718385	STUDY_PAIR	n/a	wordpools/wordpool_EN.txt	5	3	NEST	n/a	TOOL	NEST	11	[0, 0, 0]	-999	PAL1	0	R1196N
1784.322	1.017	1722402	PAIR_OFF	n/a	n/a	5	3	NEST	n/a	TOOL	NEST	11	[0, 0, 0]	-999	PAL1	0	R1196N
1785.339	0.267	1723419	STUDY_ORIENT	n/a	n/a	6	4	HORSE	n/a	SNAIL	HORSE	11	[0, 0, 0]	-999	PAL1	0	R1196N
1785.606	0.584	1723686	STUDY_ORIENT_OFF	n/a	n/a	6	4	HORSE	n/a	SNAIL	HORSE	11	[0, 0, 0]	-999	PAL1	0	R1196N
1786.19	4.0	1724270	STUDY_PAIR	n/a	wordpools/wordpool_EN.txt	6	4	HORSE	n/a	SNAIL	HORSE	11	[0, 0, 0]	-999	PAL1	0	R1196N
1790.207	1.0	1728287	PAIR_OFF	n/a	n/a	6	4	HORSE	n/a	SNAIL	HORSE	11	[0, 0, 0]	-999	PAL1	0	R1196N
1791.207	0.0	1729287	ENCODING_END	n/a	n/a	-999	-999	n/a	n/a	n/a	n/a	11	[0, 0, 0]	-999	PAL1	0	R1196N
1791.207	0.0	1729287	MATH_START	n/a	n/a	-999	-999	n/a	n/a	n/a	n/a	11	[0, 0, 0]	-999	PAL1	0	R1196N
1791.207	0.017	1729287	START	n/a	n/a	-999	-999	n/a	n/a	n/a	n/a	11	[-999, -999, -999]	-999	PAL1	0	R1196N
1791.224	8.334	1729304	PROB	8310.0	n/a	-999	-999	n/a	n/a	n/a	n/a	11	[8, 5, 4]	17	PAL1	0	R1196N
1799.558	4.9	1737638	PROB	4879.0	n/a	-999	-999	n/a	n/a	n/a	n/a	11	[7, 5, 1]	14	PAL1	0	R1196N
1804.458	11.204	1742538	PROB	11204.0	n/a	-999	-999	n/a	n/a	n/a	n/a	11	[9, 6, 9]	24	PAL1	0	R1196N
1815.662	0.015	1753742	STOP	n/a	n/a	-999	-999	n/a	n/a	n/a	n/a	11	[-999, -999, -999]	-999	PAL1	0	R1196N
1815.677	0.0	1753757	MATH_END	n/a	n/a	-999	-999	n/a	n/a	n/a	n/a	11	[0, 0, 0]	-999	PAL1	0	R1196N
1815.677	0.016	1753757	RECALL_START	n/a	n/a	-999	-999	n/a	n/a	n/a	n/a	11	[0, 0, 0]	-999	PAL1	0	R1196N
1815.693	0.268	1753773	TEST_ORIENT	n/a	n/a	3	1	NET	n/a	BENCH	NET	11	[0, 0, 0]	-999	PAL1	0	R1196N
1815.961	0.732	1754041	RETRIEVAL_ORIENT_OFF	n/a	n/a	-999	-999	n/a	n/a	n/a	n/a	11	[0, 0, 0]	-999	PAL1	0	R1196N
1816.693	4.0	1754773	TEST_PROBE	n/a	wordpools/wordpool_EN.txt	3	1	NET	n/a	BENCH	NET	11	[0, 0, 0]	-999	PAL1	0	R1196N
1816.694	4.017	1754774	REC_START	n/a	n/a	3	-999	n/a	n/a	n/a	n/a	11	[0, 0, 0]	-999	PAL1	0	R1196N
1820.711	0.648	1758791	PROBE_OFF	n/a	n/a	3	-999	n/a	n/a	n/a	n/a	11	[0, 0, 0]	-999	PAL1	0	R1196N
1821.359	0.352	1759439	REC_EVENT	4665.0	n/a	3	1	NET	<>	BENCH	NET	11	[0, 0, 0]	-999	PAL1	0	R1196N
1821.711	0.016	1759791	REC_END	n/a	n/a	3	-999	n/a	n/a	n/a	n/a	11	[0, 0, 0]	-999	PAL1	0	R1196N
1821.727	0.251	1759807	TEST_ORIENT	n/a	n/a	4	2	WALL	n/a	WALL	TIE	11	[0, 0, 0]	-999	PAL1	0	R1196N
1821.978	0.516	1760058	RETRIEVAL_ORIENT_OFF	n/a	n/a	3	-999	n/a	n/a	n/a	n/a	11	[0, 0, 0]	-999	PAL1	0	R1196N
1822.494	4.0	1760574	TEST_PROBE	n/a	wordpools/wordpool_EN.txt	4	2	WALL	n/a	WALL	TIE	11	[0, 0, 0]	-999	PAL1	0	R1196N
1822.495	4.016	1760575	REC_START	n/a	n/a	4	-999	n/a	n/a	n/a	n/a	11	[0, 0, 0]	-999	PAL1	0	R1196N
1826.511	0.905	1764591	PROBE_OFF	n/a	n/a	4	-999	n/a	n/a	n/a	n/a	11	[0, 0, 0]	-999	PAL1	0	R1196N
1827.416	0.095	1765496	REC_EVENT	4921.0	n/a	4	2	WALL	<>	WALL	TIE	11	[0, 0, 0]	-999	PAL1	0	R1196N
1827.511	0.017	1765591	REC_END	n/a	n/a	4	-999	n/a	n/a	n/a	n/a	11	[0, 0, 0]	-999	PAL1	0	R1196N
1827.528	0.267	1765608	TEST_ORIENT	n/a	n/a	5	3	NEST	n/a	TOOL	NEST	11	[0, 0, 0]	-999	PAL1	0	R1196N
1827.795	0.633	1765875	RETRIEVAL_ORIENT_OFF	n/a	n/a	4	-999	n/a	n/a	n/a	n/a	11	[0, 0, 0]	-999	PAL1	0	R1196N
1828.428	4.0	1766508	TEST_PROBE	n/a	wordpools/wordpool_EN.txt	5	3	NEST	n/a	TOOL	NEST	11	[0, 0, 0]	-999	PAL1	0	R1196N
1828.429	4.016	1766509	REC_START	n/a	n/a	5	-999	n/a	n/a	n/a	n/a	11	[0, 0, 0]	-999	PAL1	0	R1196N
1832.445	0.949	1770525	PROBE_OFF	n/a	n/a	5	-999	n/a	n/a	n/a	n/a	11	[0, 0, 0]	-999	PAL1	0	R1196N
1833.394	0.051	1771474	REC_EVENT	4965.0	n/a	5	3	NEST	<>	TOOL	NEST	11	[0, 0, 0]	-999	PAL1	0	R1196N
1833.445	0.017	1771525	REC_END	n/a	n/a	5	-999	n/a	n/a	n/a	n/a	11	[0, 0, 0]	-999	PAL1	0	R1196N
1833.462	0.267	1771542	TEST_ORIENT	n/a	n/a	6	4	HORSE	n/a	SNAIL	HORSE	11	[0, 0, 0]	-999	PAL1	0	R1196N
1833.729	0.733	1771809	RETRIEVAL_ORIENT_OFF	n/a	n/a	5	-999	n/a	n/a	n/a	n/a	11	[0, 0, 0]	-999	PAL1	0	R1196N
1834.462	4.0	1772542	TEST_PROBE	n/a	wordpools/wordpool_EN.txt	6	4	HORSE	n/a	SNAIL	HORSE	11	[0, 0, 0]	-999	PAL1	0	R1196N
1834.463	4.017	1772543	REC_START	n/a	n/a	6	-999	n/a	n/a	n/a	n/a	11	[0, 0, 0]	-999	PAL1	0	R1196N
1838.48	0.812	1776560	PROBE_OFF	n/a	n/a	6	-999	n/a	n/a	n/a	n/a	11	[0, 0, 0]	-999	PAL1	0	R1196N
1839.292	0.188	1777372	REC_EVENT	4829.0	n/a	6	4	HORSE	<>	SNAIL	HORSE	11	[0, 0, 0]	-999	PAL1	0	R1196N
1839.48	0.016	1777560	REC_END	n/a	n/a	6	-999	n/a	n/a	n/a	n/a	11	[0, 0, 0]	-999	PAL1	0	R1196N
1839.496	0.267	1777576	TEST_ORIENT	n/a	n/a	1	5	ROAD	n/a	KITE	ROAD	11	[0, 0, 0]	-999	PAL1	0	R1196N
1839.763	0.65	1777843	RETRIEVAL_ORIENT_OFF	n/a	n/a	6	-999	n/a	n/a	n/a	n/a	11	[0, 0, 0]	-999	PAL1	0	R1196N
1840.413	4.0	1778493	TEST_PROBE	n/a	wordpools/wordpool_EN.txt	1	5	ROAD	n/a	KITE	ROAD	11	[0, 0, 0]	-999	PAL1	0	R1196N
1840.414	4.016	1778494	REC_START	n/a	n/a	1	-999	n/a	n/a	n/a	n/a	11	[0, 0, 0]	-999	PAL1	0	R1196N
1844.43	0.883	1782509	PROBE_OFF	n/a	n/a	1	-999	n/a	n/a	n/a	n/a	11	[0, 0, 0]	-999	PAL1	0	R1196N
1845.313	0.117	1783392	REC_EVENT	4899.0	n/a	1	5	ROAD	<>	KITE	ROAD	11	[0, 0, 0]	-999	PAL1	0	R1196N
1845.43	0.017	1783509	REC_END	n/a	n/a	1	-999	n/a	n/a	n/a	n/a	11	[0, 0, 0]	-999	PAL1	0	R1196N
1845.447	0.267	1783526	TEST_ORIENT	n/a	n/a	2	6	CUP	WEED	CUP	WEED	11	[0, 0, 0]	-999	PAL1	0	R1196N
1845.714	0.533	1783793	RETRIEVAL_ORIENT_OFF	n/a	n/a	1	-999	n/a	n/a	n/a	n/a	11	[0, 0, 0]	-999	PAL1	0	R1196N
1846.247	4.0	1784326	TEST_PROBE	n/a	wordpools/wordpool_EN.txt	2	6	CUP	WEED	CUP	WEED	11	[0, 0, 0]	-999	PAL1	0	R1196N
1846.248	2.194	1784327	REC_START	n/a	n/a	2	-999	n/a	WEED	n/a	n/a	11	[0, 0, 0]	-999	PAL1	0	R1196N
1848.442	1.823	1786521	REC_EVENT	2194.0	n/a	2	6	CUP	WEED	CUP	WEED	11	[0, 0, 0]	-999	PAL1	0	R1196N
1850.265	1.0	1788344	PROBE_OFF	n/a	n/a	2	-999	n/a	n/a	n/a	n/a	11	[0, 0, 0]	-999	PAL1	0	R1196N
1851.265	0.003	1789344	REC_END	n/a	n/a	2	-999	n/a	n/a	n/a	n/a	11	[0, 0, 0]	-999	PAL1	0	R1196N
1851.268	28.483	1789347	RECALL_END	n/a	n/a	-999	-999	n/a	n/a	n/a	n/a	11	[0, 0, 0]	-999	PAL1	0	R1196N
1879.751	10.928	1817830	TRIAL	n/a	n/a	-999	-999	n/a	n/a	n/a	n/a	12	[0, 0, 0]	-999	PAL1	0	R1196N
1890.679	0.008	1828758	ENCODING_START	n/a	n/a	-999	-999	n/a	n/a	n/a	n/a	12	[0, 0, 0]	-999	PAL1	0	R1196N
1890.687	0.267	1828766	STUDY_ORIENT	n/a	n/a	1	3	JUDGE	HOUSE	JUDGE	HOUSE	12	[0, 0, 0]	-999	PAL1	0	R1196N
1890.954	0.699	1829033	STUDY_ORIENT_OFF	n/a	n/a	1	3	JUDGE	HOUSE	JUDGE	HOUSE	12	[0, 0, 0]	-999	PAL1	0	R1196N
1891.653	4.0	1829732	STUDY_PAIR	n/a	wordpools/wordpool_EN.txt	1	3	JUDGE	HOUSE	JUDGE	HOUSE	12	[0, 0, 0]	-999	PAL1	0	R1196N
1895.671	1.016	1833750	PAIR_OFF	n/a	n/a	1	3	JUDGE	HOUSE	JUDGE	HOUSE	12	[0, 0, 0]	-999	PAL1	0	R1196N
1896.687	0.268	1834766	STUDY_ORIENT	n/a	n/a	2	4	DUCK	n/a	KEY	DUCK	12	[0, 0, 0]	-999	PAL1	0	R1196N
1896.955	0.516	1835034	STUDY_ORIENT_OFF	n/a	n/a	2	4	DUCK	n/a	KEY	DUCK	12	[0, 0, 0]	-999	PAL1	0	R1196N
1897.471	4.0	1835550	STUDY_PAIR	n/a	wordpools/wordpool_EN.txt	2	4	DUCK	n/a	KEY	DUCK	12	[0, 0, 0]	-999	PAL1	0	R1196N
1901.488	1.017	1839567	PAIR_OFF	n/a	n/a	2	4	DUCK	n/a	KEY	DUCK	12	[0, 0, 0]	-999	PAL1	0	R1196N
1902.505	0.267	1840584	STUDY_ORIENT	n/a	n/a	3	5	SUIT	WOLF	WOLF	SUIT	12	[0, 0, 0]	-999	PAL1	0	R1196N
1902.772	0.533	1840851	STUDY_ORIENT_OFF	n/a	n/a	3	5	SUIT	WOLF	WOLF	SUIT	12	[0, 0, 0]	-999	PAL1	0	R1196N
1903.305	4.0	1841384	STUDY_PAIR	n/a	wordpools/wordpool_EN.txt	3	5	SUIT	WOLF	WOLF	SUIT	12	[0, 0, 0]	-999	PAL1	0	R1196N
1907.322	1.017	1845401	PAIR_OFF	n/a	n/a	3	5	SUIT	WOLF	WOLF	SUIT	12	[0, 0, 0]	-999	PAL1	0	R1196N
1908.339	0.267	1846418	STUDY_ORIENT	n/a	n/a	4	2	PIPE	HEART	PIPE	DART	12	[0, 0, 0]	-999	PAL1	0	R1196N
1908.606	0.65	1846685	STUDY_ORIENT_OFF	n/a	n/a	4	2	PIPE	HEART	PIPE	DART	12	[0, 0, 0]	-999	PAL1	0	R1196N
1909.256	4.0	1847335	STUDY_PAIR	n/a	wordpools/wordpool_EN.txt	4	2	PIPE	HEART	PIPE	DART	12	[0, 0, 0]	-999	PAL1	0	R1196N
1913.273	1.017	1851352	PAIR_OFF	n/a	n/a	4	2	PIPE	HEART	PIPE	DART	12	[0, 0, 0]	-999	PAL1	0	R1196N
1914.29	0.266	1852369	STUDY_ORIENT	n/a	n/a	5	1	BOY	STREET	BOY	STREET	12	[0, 0, 0]	-999	PAL1	0	R1196N
1914.556	0.668	1852635	STUDY_ORIENT_OFF	n/a	n/a	5	1	BOY	STREET	BOY	STREET	12	[0, 0, 0]	-999	PAL1	0	R1196N
1915.224	4.0	1853303	STUDY_PAIR	n/a	wordpools/wordpool_EN.txt	5	1	BOY	STREET	BOY	STREET	12	[0, 0, 0]	-999	PAL1	0	R1196N
1919.241	1.016	1857320	PAIR_OFF	n/a	n/a	5	1	BOY	STREET	BOY	STREET	12	[0, 0, 0]	-999	PAL1	0	R1196N
1920.257	0.267	1858336	STUDY_ORIENT	n/a	n/a	6	6	SHARK	MOUTH	SHARK	MOUTH	12	[0, 0, 0]	-999	PAL1	0	R1196N
1920.524	0.75	1858603	STUDY_ORIENT_OFF	n/a	n/a	6	6	SHARK	MOUTH	SHARK	MOUTH	12	[0, 0, 0]	-999	PAL1	0	R1196N
1921.274	4.0	1859353	STUDY_PAIR	n/a	wordpools/wordpool_EN.txt	6	6	SHARK	MOUTH	SHARK	MOUTH	12	[0, 0, 0]	-999	PAL1	0	R1196N
1925.291	1.0	1863370	PAIR_OFF	n/a	n/a	6	6	SHARK	MOUTH	SHARK	MOUTH	12	[0, 0, 0]	-999	PAL1	0	R1196N
1926.291	0.0	1864370	ENCODING_END	n/a	n/a	-999	-999	n/a	n/a	n/a	n/a	12	[0, 0, 0]	-999	PAL1	0	R1196N
1926.291	0.0	1864370	MATH_START	n/a	n/a	-999	-999	n/a	n/a	n/a	n/a	12	[0, 0, 0]	-999	PAL1	0	R1196N
1926.291	0.017	1864370	START	n/a	n/a	-999	-999	n/a	n/a	n/a	n/a	12	[-999, -999, -999]	-999	PAL1	0	R1196N
1926.308	9.285	1864387	PROB	9262.0	n/a	-999	-999	n/a	n/a	n/a	n/a	12	[9, 9, 7]	25	PAL1	0	R1196N
1935.593	4.1	1873672	PROB	4064.0	n/a	-999	-999	n/a	n/a	n/a	n/a	12	[1, 7, 1]	9	PAL1	0	R1196N
1939.693	4.385	1877772	PROB	4349.0	n/a	-999	-999	n/a	n/a	n/a	n/a	12	[3, 4, 8]	15	PAL1	0	R1196N
1944.078	4.602	1882156	PROB	4602.0	n/a	-999	-999	n/a	n/a	n/a	n/a	12	[8, 4, 5]	17	PAL1	0	R1196N
1948.68	0.014	1886758	STOP	n/a	n/a	-999	-999	n/a	n/a	n/a	n/a	12	[-999, -999, -999]	-999	PAL1	0	R1196N
1948.694	0.001	1886772	MATH_END	n/a	n/a	-999	-999	n/a	n/a	n/a	n/a	12	[0, 0, 0]	-999	PAL1	0	R1196N
