onset	duration	sample	trial_type	response_time	serialpos	probepos	probe_word	resp_word	study_1	study_2	list	test	answer	experiment	session	subject
0.0	59.596	262191	SESS_START	n/a	-999	-999	n/a	n/a	n/a	n/a	-999	[0, 0, 0]	-999	PAL1	0	R1066P
59.596	1.016	291987	START	n/a	-999	-999	n/a	n/a	n/a	n/a	-1	[-999, -999, -999]	-999	PAL1	0	R1066P
60.612	7.768	292495	PROB	7744	-999	-999	n/a	n/a	n/a	n/a	-1	[5, 6, 7]	20	PAL1	0	R1066P
68.38	2.534	296379	PROB	2512	-999	-999	n/a	n/a	n/a	n/a	-1	[6, 7, 3]	16	PAL1	0	R1066P
70.914	2.634	297646	PROB	2602	-999	-999	n/a	n/a	n/a	n/a	-1	[5, 2, 4]	11	PAL1	0	R1066P
73.548	2.483	298963	PROB	2455	-999	-999	n/a	n/a	n/a	n/a	-1	[6, 3, 4]	13	PAL1	0	R1066P
76.031	2.218	300204	PROB	2189	-999	-999	n/a	n/a	n/a	n/a	-1	[7, 3, 6]	16	PAL1	0	R1066P
78.249	3.067	301313	PROB	3067	-999	-999	n/a	n/a	n/a	n/a	-1	[4, 2, 2]	8	PAL1	0	R1066P
81.316	86.783	302847	STOP	n/a	-999	-999	n/a	n/a	n/a	n/a	-1	[-999, -999, -999]	-999	PAL1	0	R1066P
168.099	10.452	346236	ENCODING_START	n/a	0	-999	n/a	n/a	n/a	n/a	1	[0, 0, 0]	-999	PAL1	0	R1066P
178.551	1.001	351462	STUDY_ORIENT	n/a	1	1	SCHOOL	SCHOOL	SCHOOL	BATH	1	[0, 0, 0]	-999	PAL1	0	R1066P
179.552	5.034	351962	STUDY_PAIR	n/a	1	1	SCHOOL	SCHOOL	SCHOOL	BATH	1	[0, 0, 0]	-999	PAL1	0	R1066P
184.586	0.967	354479	STUDY_ORIENT	n/a	2	4	COUCH	COUCH	LAKE	COUCH	1	[0, 0, 0]	-999	PAL1	0	R1066P
185.553	5.034	354963	STUDY_PAIR	n/a	2	4	COUCH	COUCH	LAKE	COUCH	1	[0, 0, 0]	-999	PAL1	0	R1066P
190.587	0.95	357480	STUDY_ORIENT	n/a	3	5	CHEEK	n/a	VAN	CHEEK	1	[0, 0, 0]	-999	PAL1	0	R1066P
191.537	5.018	357954	STUDY_PAIR	n/a	3	5	CHEEK	n/a	VAN	CHEEK	1	[0, 0, 0]	-999	PAL1	0	R1066P
196.555	0.967	360463	STUDY_ORIENT	n/a	4	2	FROG	n/a	FROG	TANK	1	[0, 0, 0]	-999	PAL1	0	R1066P
197.522	5.034	360947	STUDY_PAIR	n/a	4	2	FROG	n/a	FROG	TANK	1	[0, 0, 0]	-999	PAL1	0	R1066P
202.556	0.983	363464	STUDY_ORIENT	n/a	5	3	DOCK	SHIP	DOCK	SHIP	1	[0, 0, 0]	-999	PAL1	0	R1066P
203.539	5.018	363955	STUDY_PAIR	n/a	5	3	DOCK	SHIP	DOCK	SHIP	1	[0, 0, 0]	-999	PAL1	0	R1066P
208.557	0.917	366464	STUDY_ORIENT	n/a	6	6	CLAY	n/a	CLAY	WAND	1	[0, 0, 0]	-999	PAL1	0	R1066P
209.474	4.018	366923	STUDY_PAIR	n/a	6	6	CLAY	n/a	CLAY	WAND	1	[0, 0, 0]	-999	PAL1	0	R1066P
213.492	0.999	368931	START	n/a	-999	-999	n/a	n/a	n/a	n/a	1	[-999, -999, -999]	-999	PAL1	0	R1066P
214.491	0.017	369431	MATH_START	n/a	-999	-999	n/a	n/a	n/a	n/a	1	[0, 0, 0]	-999	PAL1	0	R1066P
214.508	3.368	369439	PROB	3336	-999	-999	n/a	n/a	n/a	n/a	1	[3, 7, 9]	19	PAL1	0	R1066P
217.876	2.517	371123	PROB	2488	-999	-999	n/a	n/a	n/a	n/a	1	[1, 2, 4]	7	PAL1	0	R1066P
220.393	2.534	372382	PROB	2507	-999	-999	n/a	n/a	n/a	n/a	1	[6, 3, 8]	17	PAL1	0	R1066P
222.927	2.333	373649	PROB	2301	-999	-999	n/a	n/a	n/a	n/a	1	[9, 9, 2]	21	PAL1	0	R1066P
225.26	2.351	374815	PROB	2328	-999	-999	n/a	n/a	n/a	n/a	1	[3, 6, 1]	10	PAL1	0	R1066P
227.611	1.817	375991	PROB	1785	-999	-999	n/a	n/a	n/a	n/a	1	[3, 7, 4]	13	PAL1	0	R1066P
229.428	2.749	376899	PROB	2727	-999	-999	n/a	n/a	n/a	n/a	1	[3, 7, 8]	18	PAL1	0	R1066P
232.177	3.547	378273	PROB	3547	-999	-999	n/a	n/a	n/a	n/a	1	[3, 2, 7]	12	PAL1	0	R1066P
235.724	0.005	380047	STOP	n/a	-999	-999	n/a	n/a	n/a	n/a	1	[-999, -999, -999]	-999	PAL1	0	R1066P
235.729	0.0	380049	MATH_END	n/a	-999	-999	n/a	n/a	n/a	n/a	1	[0, 0, 0]	-999	PAL1	0	R1066P
235.729	0.017	380049	TEST_START	n/a	-999	-999	n/a	n/a	n/a	n/a	1	[0, 0, 0]	-999	PAL1	0	R1066P
235.746	0.833	380058	TEST_ORIENT	n/a	1	1	SCHOOL	SCHOOL	SCHOOL	BATH	1	[0, 0, 0]	-999	PAL1	0	R1066P
236.579	0.001	380474	TEST_PROBE	n/a	1	1	SCHOOL	SCHOOL	SCHOOL	BATH	1	[0, 0, 0]	-999	PAL1	0	R1066P
236.58	1.968	380475	REC_START	n/a	1	-999	n/a	SCHOOL	n/a	n/a	1	[0, 0, 0]	-999	PAL1	0	R1066P
238.548	3.041	381459	REC_EVENT	1968	1	1	SCHOOL	SCHOOL	SCHOOL	BATH	1	[0, 0, 0]	-999	PAL1	0	R1066P
241.589	0.008	382979	REC_END	n/a	1	-999	n/a	n/a	n/a	n/a	1	[0, 0, 0]	-999	PAL1	0	R1066P
241.597	0.9	382983	TEST_ORIENT	n/a	4	2	FROG	n/a	FROG	TANK	1	[0, 0, 0]	-999	PAL1	0	R1066P
242.497	0.0	383433	TEST_PROBE	n/a	4	2	FROG	n/a	FROG	TANK	1	[0, 0, 0]	-999	PAL1	0	R1066P
242.497	5.015	383433	REC_START	n/a	4	-999	n/a	n/a	n/a	n/a	1	[0, 0, 0]	-999	PAL1	0	R1066P
247.512	0.003	385941	REC_EVENT	5015	4	2	FROG	<>	FROG	TANK	1	[0, 0, 0]	-999	PAL1	0	R1066P
247.515	0.016	385942	REC_END	n/a	4	-999	n/a	n/a	n/a	n/a	1	[0, 0, 0]	-999	PAL1	0	R1066P
247.531	0.834	385950	TEST_ORIENT	n/a	5	3	DOCK	SHIP	DOCK	SHIP	1	[0, 0, 0]	-999	PAL1	0	R1066P
248.365	0.0	386367	TEST_PROBE	n/a	5	3	DOCK	SHIP	DOCK	SHIP	1	[0, 0, 0]	-999	PAL1	0	R1066P
248.365	1.636	386367	REC_START	n/a	5	-999	n/a	SHIP	n/a	n/a	1	[0, 0, 0]	-999	PAL1	0	R1066P
250.001	1.125	387185	REC_EVENT	1636	5	3	DOCK	DOCK	DOCK	SHIP	1	[0, 0, 0]	-999	PAL1	0	R1066P
251.126	2.256	387747	REC_EVENT	2761	5	3	DOCK	SHIP	DOCK	SHIP	1	[0, 0, 0]	-999	PAL1	0	R1066P
253.382	0.017	388875	REC_END	n/a	5	-999	n/a	n/a	n/a	n/a	1	[0, 0, 0]	-999	PAL1	0	R1066P
253.399	0.9	388884	TEST_ORIENT	n/a	2	4	COUCH	COUCH	LAKE	COUCH	1	[0, 0, 0]	-999	PAL1	0	R1066P
254.299	0.001	389334	TEST_PROBE	n/a	2	4	COUCH	COUCH	LAKE	COUCH	1	[0, 0, 0]	-999	PAL1	0	R1066P
254.3	2.277	389334	REC_START	n/a	2	-999	n/a	COUCH	n/a	n/a	1	[0, 0, 0]	-999	PAL1	0	R1066P
256.577	2.731	390473	REC_EVENT	2277	2	4	COUCH	COUCH	LAKE	COUCH	1	[0, 0, 0]	-999	PAL1	0	R1066P
259.308	0.009	391838	REC_END	n/a	2	-999	n/a	n/a	n/a	n/a	1	[0, 0, 0]	-999	PAL1	0	R1066P
259.317	0.832	391843	TEST_ORIENT	n/a	3	5	CHEEK	n/a	VAN	CHEEK	1	[0, 0, 0]	-999	PAL1	0	R1066P
260.149	0.001	392259	TEST_PROBE	n/a	3	5	CHEEK	n/a	VAN	CHEEK	1	[0, 0, 0]	-999	PAL1	0	R1066P
260.15	5.008	392259	REC_START	n/a	3	-999	n/a	n/a	n/a	n/a	1	[0, 0, 0]	-999	PAL1	0	R1066P
265.158	0.001	394763	REC_END	n/a	3	-999	n/a	n/a	n/a	n/a	1	[0, 0, 0]	-999	PAL1	0	R1066P
265.159	0.008	394764	REC_EVENT	5009	3	5	CHEEK	<>	VAN	CHEEK	1	[0, 0, 0]	-999	PAL1	0	R1066P
265.167	0.884	394768	TEST_ORIENT	n/a	6	6	CLAY	n/a	CLAY	WAND	1	[0, 0, 0]	-999	PAL1	0	R1066P
266.051	0.0	395210	TEST_PROBE	n/a	6	6	CLAY	n/a	CLAY	WAND	1	[0, 0, 0]	-999	PAL1	0	R1066P
266.051	5.015	395210	REC_START	n/a	6	-999	n/a	n/a	n/a	n/a	1	[0, 0, 0]	-999	PAL1	0	R1066P
271.066	0.002	397717	REC_EVENT	5015	6	6	CLAY	<>	CLAY	WAND	1	[0, 0, 0]	-999	PAL1	0	R1066P
271.068	7.704	397718	REC_END	n/a	6	-999	n/a	n/a	n/a	n/a	1	[0, 0, 0]	-999	PAL1	0	R1066P
278.772	10.451	401570	ENCODING_START	n/a	0	-999	n/a	n/a	n/a	n/a	2	[0, 0, 0]	-999	PAL1	0	R1066P
289.223	1.0	406795	STUDY_ORIENT	n/a	1	3	TOE	n/a	TOE	BROOM	2	[0, 0, 0]	-999	PAL1	0	R1066P
290.223	5.034	407295	STUDY_PAIR	n/a	1	3	TOE	n/a	TOE	BROOM	2	[0, 0, 0]	-999	PAL1	0	R1066P
295.257	0.934	409812	STUDY_ORIENT	n/a	2	2	JET	SPEAR	JET	SPEAR	2	[0, 0, 0]	-999	PAL1	0	R1066P
296.191	5.034	410279	STUDY_PAIR	n/a	2	2	JET	SPEAR	JET	SPEAR	2	[0, 0, 0]	-999	PAL1	0	R1066P
301.225	0.899	412796	STUDY_ORIENT	n/a	3	1	MOUTH	CAVE	CAVE	MOUTH	2	[0, 0, 0]	-999	PAL1	0	R1066P
302.124	5.018	413245	STUDY_PAIR	n/a	3	1	MOUTH	CAVE	CAVE	MOUTH	2	[0, 0, 0]	-999	PAL1	0	R1066P
307.142	0.801	415754	STUDY_ORIENT	n/a	4	6	EGG	n/a	EGG	STORM	2	[0, 0, 0]	-999	PAL1	0	R1066P
307.943	5.034	416154	STUDY_PAIR	n/a	4	6	EGG	n/a	EGG	STORM	2	[0, 0, 0]	-999	PAL1	0	R1066P
312.977	0.967	418671	STUDY_ORIENT	n/a	5	5	HEART	n/a	SEA	HEART	2	[0, 0, 0]	-999	PAL1	0	R1066P
313.944	5.018	419155	STUDY_PAIR	n/a	5	5	HEART	n/a	SEA	HEART	2	[0, 0, 0]	-999	PAL1	0	R1066P
318.962	0.933	421664	STUDY_ORIENT	n/a	6	4	BEAR	n/a	DIME	BEAR	2	[0, 0, 0]	-999	PAL1	0	R1066P
319.895	4.001	422130	STUDY_PAIR	n/a	6	4	BEAR	n/a	DIME	BEAR	2	[0, 0, 0]	-999	PAL1	0	R1066P
323.896	1.0	424131	START	n/a	-999	-999	n/a	n/a	n/a	n/a	2	[-999, -999, -999]	-999	PAL1	0	R1066P
324.896	0.017	424631	MATH_START	n/a	-999	-999	n/a	n/a	n/a	n/a	2	[0, 0, 0]	-999	PAL1	0	R1066P
324.913	3.1	424639	PROB	3074	-999	-999	n/a	n/a	n/a	n/a	2	[4, 2, 4]	10	PAL1	0	R1066P
328.013	3.0	426189	PROB	2974	-999	-999	n/a	n/a	n/a	n/a	2	[4, 9, 7]	20	PAL1	0	R1066P
331.013	2.034	427689	PROB	2014	-999	-999	n/a	n/a	n/a	n/a	2	[9, 3, 2]	14	PAL1	0	R1066P
333.047	1.668	428706	PROB	1637	-999	-999	n/a	n/a	n/a	n/a	2	[5, 5, 3]	13	PAL1	0	R1066P
334.715	4.667	429540	PROB	4641	-999	-999	n/a	n/a	n/a	n/a	2	[2, 3, 3]	8	PAL1	0	R1066P
339.382	3.201	431873	PROB	3174	-999	-999	n/a	n/a	n/a	n/a	2	[2, 8, 1]	11	PAL1	0	R1066P
342.583	2.221	433474	PROB	2221	-999	-999	n/a	n/a	n/a	n/a	2	[1, 6, 1]	8	PAL1	0	R1066P
344.804	0.013	434584	STOP	n/a	-999	-999	n/a	n/a	n/a	n/a	2	[-999, -999, -999]	-999	PAL1	0	R1066P
344.817	0.0	434591	MATH_END	n/a	-999	-999	n/a	n/a	n/a	n/a	2	[0, 0, 0]	-999	PAL1	0	R1066P
344.817	0.016	434591	TEST_START	n/a	-999	-999	n/a	n/a	n/a	n/a	2	[0, 0, 0]	-999	PAL1	0	R1066P
344.833	1.001	434599	TEST_ORIENT	n/a	3	1	MOUTH	CAVE	CAVE	MOUTH	2	[0, 0, 0]	-999	PAL1	0	R1066P
345.834	0.0	435099	TEST_PROBE	n/a	3	1	MOUTH	CAVE	CAVE	MOUTH	2	[0, 0, 0]	-999	PAL1	0	R1066P
345.834	2.001	435099	REC_START	n/a	3	-999	n/a	CAVE	n/a	n/a	2	[0, 0, 0]	-999	PAL1	0	R1066P
347.835	3.016	436099	REC_EVENT	2001	3	1	MOUTH	CAVE	CAVE	MOUTH	2	[0, 0, 0]	-999	PAL1	0	R1066P
350.851	0.017	437607	REC_END	n/a	3	-999	n/a	n/a	n/a	n/a	2	[0, 0, 0]	-999	PAL1	0	R1066P
350.868	0.983	437616	TEST_ORIENT	n/a	2	2	JET	SPEAR	JET	SPEAR	2	[0, 0, 0]	-999	PAL1	0	R1066P
351.851	0.001	438107	TEST_PROBE	n/a	2	2	JET	SPEAR	JET	SPEAR	2	[0, 0, 0]	-999	PAL1	0	R1066P
351.852	2.034	438108	REC_START	n/a	2	-999	n/a	SPEAR	n/a	n/a	2	[0, 0, 0]	-999	PAL1	0	R1066P
353.886	1.0	439125	REC_EVENT	2034	2	2	JET	<>	JET	SPEAR	2	[0, 0, 0]	-999	PAL1	0	R1066P
354.886	0.736	439625	REC_EVENT	3034	2	2	JET	<>	JET	SPEAR	2	[0, 0, 0]	-999	PAL1	0	R1066P
355.622	1.239	439993	REC_EVENT	3770	2	2	JET	SPEAR	JET	SPEAR	2	[0, 0, 0]	-999	PAL1	0	R1066P
356.861	0.008	440612	REC_END	n/a	2	-999	n/a	n/a	n/a	n/a	2	[0, 0, 0]	-999	PAL1	0	R1066P
356.869	0.967	440616	TEST_ORIENT	n/a	1	3	TOE	n/a	TOE	BROOM	2	[0, 0, 0]	-999	PAL1	0	R1066P
357.836	0.001	441100	TEST_PROBE	n/a	1	3	TOE	n/a	TOE	BROOM	2	[0, 0, 0]	-999	PAL1	0	R1066P
357.837	5.025	441100	REC_START	n/a	1	-999	n/a	n/a	n/a	n/a	2	[0, 0, 0]	-999	PAL1	0	R1066P
362.862	0.002	443613	REC_END	n/a	1	-999	n/a	n/a	n/a	n/a	2	[0, 0, 0]	-999	PAL1	0	R1066P
362.864	0.006	443614	REC_EVENT	5027	1	3	TOE	<>	TOE	BROOM	2	[0, 0, 0]	-999	PAL1	0	R1066P
362.87	0.817	443617	TEST_ORIENT	n/a	6	4	BEAR	n/a	DIME	BEAR	2	[0, 0, 0]	-999	PAL1	0	R1066P
363.687	0.0	444025	REC_START	n/a	6	-999	n/a	n/a	n/a	n/a	2	[0, 0, 0]	-999	PAL1	0	R1066P
363.687	5.015	444025	TEST_PROBE	n/a	6	4	BEAR	n/a	DIME	BEAR	2	[0, 0, 0]	-999	PAL1	0	R1066P
368.702	0.002	446532	REC_EVENT	5015	6	4	BEAR	<>	DIME	BEAR	2	[0, 0, 0]	-999	PAL1	0	R1066P
368.704	0.017	446533	REC_END	n/a	6	-999	n/a	n/a	n/a	n/a	2	[0, 0, 0]	-999	PAL1	0	R1066P
368.721	0.934	446542	TEST_ORIENT	n/a	5	5	HEART	n/a	SEA	HEART	2	[0, 0, 0]	-999	PAL1	0	R1066P
369.655	0.0	447009	TEST_PROBE	n/a	5	5	HEART	n/a	SEA	HEART	2	[0, 0, 0]	-999	PAL1	0	R1066P
369.655	5.015	447009	REC_START	n/a	5	-999	n/a	n/a	n/a	n/a	2	[0, 0, 0]	-999	PAL1	0	R1066P
374.67	0.002	449516	REC_EVENT	5015	5	5	HEART	<>	SEA	HEART	2	[0, 0, 0]	-999	PAL1	0	R1066P
374.672	0.017	449517	REC_END	n/a	5	-999	n/a	n/a	n/a	n/a	2	[0, 0, 0]	-999	PAL1	0	R1066P
374.689	0.817	449526	TEST_ORIENT	n/a	4	6	EGG	n/a	EGG	STORM	2	[0, 0, 0]	-999	PAL1	0	R1066P
375.506	0.0	449934	TEST_PROBE	n/a	4	6	EGG	n/a	EGG	STORM	2	[0, 0, 0]	-999	PAL1	0	R1066P
375.506	5.015	449934	REC_START	n/a	4	-999	n/a	n/a	n/a	n/a	2	[0, 0, 0]	-999	PAL1	0	R1066P
380.521	0.002	452442	REC_EVENT	5015	4	6	EGG	<>	EGG	STORM	2	[0, 0, 0]	-999	PAL1	0	R1066P
380.523	16.161	452443	REC_END	n/a	4	-999	n/a	n/a	n/a	n/a	2	[0, 0, 0]	-999	PAL1	0	R1066P
396.684	10.444	460523	ENCODING_START	n/a	0	-999	n/a	n/a	n/a	n/a	3	[0, 0, 0]	-999	PAL1	0	R1066P
407.128	0.801	465744	STUDY_ORIENT	n/a	1	3	YARD	n/a	YARD	EAR	3	[0, 0, 0]	-999	PAL1	0	R1066P
407.929	5.034	466145	STUDY_PAIR	n/a	1	3	YARD	n/a	YARD	EAR	3	[0, 0, 0]	-999	PAL1	0	R1066P
412.963	0.784	468662	STUDY_ORIENT	n/a	2	6	CROW	n/a	CROW	KEY	3	[0, 0, 0]	-999	PAL1	0	R1066P
413.747	5.034	469054	STUDY_PAIR	n/a	2	6	CROW	n/a	CROW	KEY	3	[0, 0, 0]	-999	PAL1	0	R1066P
418.781	0.867	471571	STUDY_ORIENT	n/a	3	1	PURSE	n/a	PURSE	VEST	3	[0, 0, 0]	-999	PAL1	0	R1066P
419.648	5.034	472004	STUDY_PAIR	n/a	3	1	PURSE	n/a	PURSE	VEST	3	[0, 0, 0]	-999	PAL1	0	R1066P
424.682	1.0	474521	STUDY_ORIENT	n/a	4	2	APE	APE	APE	STEM	3	[0, 0, 0]	-999	PAL1	0	R1066P
425.682	5.035	475021	STUDY_PAIR	n/a	4	2	APE	APE	APE	STEM	3	[0, 0, 0]	-999	PAL1	0	R1066P
430.717	0.916	477538	STUDY_ORIENT	n/a	5	5	HAWK	LIFT	ANT	HAWK	3	[0, 0, 0]	-999	PAL1	0	R1066P
431.633	5.018	477996	STUDY_PAIR	n/a	5	5	HAWK	LIFT	ANT	HAWK	3	[0, 0, 0]	-999	PAL1	0	R1066P
436.651	0.933	480505	STUDY_ORIENT	n/a	6	4	OAR	BANK	OAR	BANK	3	[0, 0, 0]	-999	PAL1	0	R1066P
437.584	4.001	480972	STUDY_PAIR	n/a	6	4	OAR	BANK	OAR	BANK	3	[0, 0, 0]	-999	PAL1	0	R1066P
441.585	1.0	482972	START	n/a	-999	-999	n/a	n/a	n/a	n/a	3	[-999, -999, -999]	-999	PAL1	0	R1066P
442.585	0.017	483472	MATH_START	n/a	-999	-999	n/a	n/a	n/a	n/a	3	[0, 0, 0]	-999	PAL1	0	R1066P
442.602	3.084	483481	PROB	3058	-999	-999	n/a	n/a	n/a	n/a	3	[2, 3, 3]	8	PAL1	0	R1066P
445.686	2.151	485022	PROB	2126	-999	-999	n/a	n/a	n/a	n/a	3	[1, 6, 2]	9	PAL1	0	R1066P
447.837	2.083	486098	PROB	2063	-999	-999	n/a	n/a	n/a	n/a	3	[6, 9, 5]	20	PAL1	0	R1066P
449.92	2.066	487139	PROB	2036	-999	-999	n/a	n/a	n/a	n/a	3	[2, 7, 5]	14	PAL1	0	R1066P
451.986	2.034	488172	PROB	2001	-999	-999	n/a	n/a	n/a	n/a	3	[8, 5, 8]	21	PAL1	0	R1066P
454.02	2.601	489189	PROB	2576	-999	-999	n/a	n/a	n/a	n/a	3	[7, 2, 9]	18	PAL1	0	R1066P
456.621	2.568	490490	PROB	2542	-999	-999	n/a	n/a	n/a	n/a	3	[2, 9, 7]	18	PAL1	0	R1066P
459.189	1.65	491774	PROB	1623	-999	-999	n/a	n/a	n/a	n/a	3	[3, 5, 1]	9	PAL1	0	R1066P
460.839	2.485	492599	PROB	2485	-999	-999	n/a	n/a	n/a	n/a	3	[6, 9, 7]	22	PAL1	0	R1066P
463.324	0.016	493841	STOP	n/a	-999	-999	n/a	n/a	n/a	n/a	3	[-999, -999, -999]	-999	PAL1	0	R1066P
463.34	0.0	493849	MATH_END	n/a	-999	-999	n/a	n/a	n/a	n/a	3	[0, 0, 0]	-999	PAL1	0	R1066P
463.34	0.016	493849	TEST_START	n/a	-999	-999	n/a	n/a	n/a	n/a	3	[0, 0, 0]	-999	PAL1	0	R1066P
463.356	0.816	493857	TEST_ORIENT	n/a	3	1	PURSE	n/a	PURSE	VEST	3	[0, 0, 0]	-999	PAL1	0	R1066P
464.172	0.0	494265	TEST_PROBE	n/a	3	1	PURSE	n/a	PURSE	VEST	3	[0, 0, 0]	-999	PAL1	0	R1066P
464.172	2.223	494265	REC_START	n/a	3	-999	n/a	n/a	n/a	n/a	3	[0, 0, 0]	-999	PAL1	0	R1066P
466.395	2.795	495376	REC_EVENT	2223	3	1	PURSE	<>	PURSE	VEST	3	[0, 0, 0]	-999	PAL1	0	R1066P
469.19	0.017	496774	REC_END	n/a	3	-999	n/a	n/a	n/a	n/a	3	[0, 0, 0]	-999	PAL1	0	R1066P
469.207	0.816	496782	TEST_ORIENT	n/a	4	2	APE	APE	APE	STEM	3	[0, 0, 0]	-999	PAL1	0	R1066P
470.023	0.001	497190	TEST_PROBE	n/a	4	2	APE	APE	APE	STEM	3	[0, 0, 0]	-999	PAL1	0	R1066P
470.024	1.733	497191	REC_START	n/a	4	-999	n/a	APE	n/a	n/a	3	[0, 0, 0]	-999	PAL1	0	R1066P
471.757	3.293	498057	REC_EVENT	1733	4	2	APE	APE	APE	STEM	3	[0, 0, 0]	-999	PAL1	0	R1066P
475.05	0.007	499704	REC_END	n/a	4	-999	n/a	n/a	n/a	n/a	3	[0, 0, 0]	-999	PAL1	0	R1066P
475.057	0.851	499707	TEST_ORIENT	n/a	1	3	YARD	n/a	YARD	EAR	3	[0, 0, 0]	-999	PAL1	0	R1066P
475.908	0.001	500133	TEST_PROBE	n/a	1	3	YARD	n/a	YARD	EAR	3	[0, 0, 0]	-999	PAL1	0	R1066P
475.909	5.009	500133	REC_START	n/a	1	-999	n/a	n/a	n/a	n/a	3	[0, 0, 0]	-999	PAL1	0	R1066P
480.918	0.0	502638	REC_EVENT	5009	1	3	YARD	<>	YARD	EAR	3	[0, 0, 0]	-999	PAL1	0	R1066P
480.918	0.008	502638	REC_END	n/a	1	-999	n/a	n/a	n/a	n/a	3	[0, 0, 0]	-999	PAL1	0	R1066P
480.926	0.834	502642	TEST_ORIENT	n/a	6	4	OAR	BANK	OAR	BANK	3	[0, 0, 0]	-999	PAL1	0	R1066P
481.76	0.0	503059	TEST_PROBE	n/a	6	4	OAR	BANK	OAR	BANK	3	[0, 0, 0]	-999	PAL1	0	R1066P
481.76	1.903	503059	REC_START	n/a	6	-999	n/a	BANK	n/a	n/a	3	[0, 0, 0]	-999	PAL1	0	R1066P
483.663	0.808	504010	REC_EVENT	1903	6	4	OAR	YARD	OAR	BANK	3	[0, 0, 0]	-999	PAL1	0	R1066P
484.471	2.306	504414	REC_EVENT	2711	6	4	OAR	BANK	OAR	BANK	3	[0, 0, 0]	-999	PAL1	0	R1066P
486.777	0.017	505567	REC_END	n/a	6	-999	n/a	n/a	n/a	n/a	3	[0, 0, 0]	-999	PAL1	0	R1066P
486.794	1.017	505575	TEST_ORIENT	n/a	5	5	HAWK	LIFT	ANT	HAWK	3	[0, 0, 0]	-999	PAL1	0	R1066P
487.811	0.001	506084	TEST_PROBE	n/a	5	5	HAWK	LIFT	ANT	HAWK	3	[0, 0, 0]	-999	PAL1	0	R1066P
487.812	1.507	506084	REC_START	n/a	5	-999	n/a	LIFT	n/a	n/a	3	[0, 0, 0]	-999	PAL1	0	R1066P
489.319	1.091	506838	REC_EVENT	1507	5	5	HAWK	HAWK	ANT	HAWK	3	[0, 0, 0]	-999	PAL1	0	R1066P
490.41	2.428	507383	REC_EVENT	2598	5	5	HAWK	LIFT	ANT	HAWK	3	[0, 0, 0]	-999	PAL1	0	R1066P
492.838	0.007	508597	REC_END	n/a	5	-999	n/a	n/a	n/a	n/a	3	[0, 0, 0]	-999	PAL1	0	R1066P
492.845	0.834	508601	TEST_ORIENT	n/a	2	6	CROW	n/a	CROW	KEY	3	[0, 0, 0]	-999	PAL1	0	R1066P
493.679	0.0	509018	TEST_PROBE	n/a	2	6	CROW	n/a	CROW	KEY	3	[0, 0, 0]	-999	PAL1	0	R1066P
493.679	5.015	509018	REC_START	n/a	2	-999	n/a	n/a	n/a	n/a	3	[0, 0, 0]	-999	PAL1	0	R1066P
498.694	0.002	511525	REC_EVENT	5015	2	6	CROW	<>	CROW	KEY	3	[0, 0, 0]	-999	PAL1	0	R1066P
498.696	51.451	511526	REC_END	n/a	2	-999	n/a	n/a	n/a	n/a	3	[0, 0, 0]	-999	PAL1	0	R1066P
550.147	10.445	537250	ENCODING_START	n/a	0	-999	n/a	n/a	n/a	n/a	4	[0, 0, 0]	-999	PAL1	0	R1066P
560.592	0.983	542473	STUDY_ORIENT	n/a	1	3	RUG	n/a	RUG	BEAK	4	[0, 0, 0]	-999	PAL1	0	R1066P
561.575	5.034	542964	STUDY_PAIR	n/a	1	3	RUG	n/a	RUG	BEAK	4	[0, 0, 0]	-999	PAL1	0	R1066P
566.609	1.0	545481	STUDY_ORIENT	n/a	2	6	BUSH	n/a	BUSH	STONE	4	[0, 0, 0]	-999	PAL1	0	R1066P
567.609	5.018	545981	STUDY_PAIR	n/a	2	6	BUSH	n/a	BUSH	STONE	4	[0, 0, 0]	-999	PAL1	0	R1066P
572.627	0.8	548490	STUDY_ORIENT	n/a	3	1	FOAM	FORT	MOUSE	FOAM	4	[0, 0, 0]	-999	PAL1	0	R1066P
573.427	5.018	548890	STUDY_PAIR	n/a	3	1	FOAM	FORT	MOUSE	FOAM	4	[0, 0, 0]	-999	PAL1	0	R1066P
578.445	1.017	551399	STUDY_ORIENT	n/a	4	4	CORN	n/a	ICE	CORN	4	[0, 0, 0]	-999	PAL1	0	R1066P
579.462	5.034	551907	STUDY_PAIR	n/a	4	4	CORN	n/a	ICE	CORN	4	[0, 0, 0]	-999	PAL1	0	R1066P
584.496	1.017	554424	STUDY_ORIENT	n/a	5	5	CHIEF	n/a	TAIL	CHIEF	4	[0, 0, 0]	-999	PAL1	0	R1066P
585.513	5.034	554932	STUDY_PAIR	n/a	5	5	CHIEF	n/a	TAIL	CHIEF	4	[0, 0, 0]	-999	PAL1	0	R1066P
590.547	0.884	557449	STUDY_ORIENT	n/a	6	2	CLIFF	CLIFF	FILM	CLIFF	4	[0, 0, 0]	-999	PAL1	0	R1066P
591.431	4.018	557891	STUDY_PAIR	n/a	6	2	CLIFF	CLIFF	FILM	CLIFF	4	[0, 0, 0]	-999	PAL1	0	R1066P
595.449	0.999	559900	START	n/a	-999	-999	n/a	n/a	n/a	n/a	4	[-999, -999, -999]	-999	PAL1	0	R1066P
596.448	0.017	560400	MATH_START	n/a	-999	-999	n/a	n/a	n/a	n/a	4	[0, 0, 0]	-999	PAL1	0	R1066P
596.465	3.317	560408	PROB	3299	-999	-999	n/a	n/a	n/a	n/a	4	[8, 8, 4]	20	PAL1	0	R1066P
599.782	4.518	562067	PROB	4494	-999	-999	n/a	n/a	n/a	n/a	4	[1, 7, 6]	14	PAL1	0	R1066P
604.3	2.25	564325	PROB	2216	-999	-999	n/a	n/a	n/a	n/a	4	[8, 1, 4]	13	PAL1	0	R1066P
606.55	1.967	565450	PROB	1934	-999	-999	n/a	n/a	n/a	n/a	4	[1, 6, 9]	16	PAL1	0	R1066P
608.517	3.184	566434	PROB	3159	-999	-999	n/a	n/a	n/a	n/a	4	[1, 5, 7]	12	PAL1	0	R1066P
611.701	1.601	568026	PROB	1575	-999	-999	n/a	n/a	n/a	n/a	4	[6, 6, 1]	13	PAL1	0	R1066P
613.302	2.422	568826	PROB	2422	-999	-999	n/a	n/a	n/a	n/a	4	[2, 2, 6]	10	PAL1	0	R1066P
615.724	0.011	570037	STOP	n/a	-999	-999	n/a	n/a	n/a	n/a	4	[-999, -999, -999]	-999	PAL1	0	R1066P
615.735	0.0	570043	MATH_END	n/a	-999	-999	n/a	n/a	n/a	n/a	4	[0, 0, 0]	-999	PAL1	0	R1066P
615.735	0.017	570043	TEST_START	n/a	-999	-999	n/a	n/a	n/a	n/a	4	[0, 0, 0]	-999	PAL1	0	R1066P
615.752	0.917	570051	TEST_ORIENT	n/a	3	1	FOAM	FORT	MOUSE	FOAM	4	[0, 0, 0]	-999	PAL1	0	R1066P
616.669	0.0	570510	TEST_PROBE	n/a	3	1	FOAM	FORT	MOUSE	FOAM	4	[0, 0, 0]	-999	PAL1	0	R1066P
616.669	1.4	570510	REC_START	n/a	3	-999	n/a	FORT	n/a	n/a	4	[0, 0, 0]	-999	PAL1	0	R1066P
618.069	0.613	571210	REC_EVENT	1400	3	1	FOAM	FOAM	MOUSE	FOAM	4	[0, 0, 0]	-999	PAL1	0	R1066P
618.682	3.004	571516	REC_EVENT	2013	3	1	FOAM	FORT	MOUSE	FOAM	4	[0, 0, 0]	-999	PAL1	0	R1066P
621.686	0.017	573018	REC_END	n/a	3	-999	n/a	n/a	n/a	n/a	4	[0, 0, 0]	-999	PAL1	0	R1066P
621.703	0.884	573026	TEST_ORIENT	n/a	6	2	CLIFF	CLIFF	FILM	CLIFF	4	[0, 0, 0]	-999	PAL1	0	R1066P
622.587	0.0	573468	TEST_PROBE	n/a	6	2	CLIFF	CLIFF	FILM	CLIFF	4	[0, 0, 0]	-999	PAL1	0	R1066P
622.587	1.383	573468	REC_START	n/a	6	-999	n/a	CLIFF	n/a	n/a	4	[0, 0, 0]	-999	PAL1	0	R1066P
623.97	3.634	574160	REC_EVENT	1383	6	2	CLIFF	CLIFF	FILM	CLIFF	4	[0, 0, 0]	-999	PAL1	0	R1066P
627.604	0.017	575977	REC_END	n/a	6	-999	n/a	n/a	n/a	n/a	4	[0, 0, 0]	-999	PAL1	0	R1066P
627.621	0.934	575985	TEST_ORIENT	n/a	1	3	RUG	n/a	RUG	BEAK	4	[0, 0, 0]	-999	PAL1	0	R1066P
628.555	0.0	576452	TEST_PROBE	n/a	1	3	RUG	n/a	RUG	BEAK	4	[0, 0, 0]	-999	PAL1	0	R1066P
628.555	5.015	576452	REC_START	n/a	1	-999	n/a	n/a	n/a	n/a	4	[0, 0, 0]	-999	PAL1	0	R1066P
633.57	0.002	578960	REC_EVENT	5015	1	3	RUG	<>	RUG	BEAK	4	[0, 0, 0]	-999	PAL1	0	R1066P
633.572	0.017	578961	REC_END	n/a	1	-999	n/a	n/a	n/a	n/a	4	[0, 0, 0]	-999	PAL1	0	R1066P
633.589	0.833	578969	TEST_ORIENT	n/a	4	4	CORN	n/a	ICE	CORN	4	[0, 0, 0]	-999	PAL1	0	R1066P
634.422	0.001	579386	TEST_PROBE	n/a	4	4	CORN	n/a	ICE	CORN	4	[0, 0, 0]	-999	PAL1	0	R1066P
634.423	1.742	579386	REC_START	n/a	4	-999	n/a	n/a	n/a	n/a	4	[0, 0, 0]	-999	PAL1	0	R1066P
636.165	3.267	580257	REC_EVENT	1742	4	4	CORN	<>	ICE	CORN	4	[0, 0, 0]	-999	PAL1	0	R1066P
639.432	0.008	581891	REC_END	n/a	4	-999	n/a	n/a	n/a	n/a	4	[0, 0, 0]	-999	PAL1	0	R1066P
639.44	0.85	581895	TEST_ORIENT	n/a	5	5	CHIEF	n/a	TAIL	CHIEF	4	[0, 0, 0]	-999	PAL1	0	R1066P
640.29	0.0	582319	TEST_PROBE	n/a	5	5	CHIEF	n/a	TAIL	CHIEF	4	[0, 0, 0]	-999	PAL1	0	R1066P
640.29	5.015	582319	REC_START	n/a	5	-999	n/a	n/a	n/a	n/a	4	[0, 0, 0]	-999	PAL1	0	R1066P
645.305	0.003	584827	REC_EVENT	5015	5	5	CHIEF	<>	TAIL	CHIEF	4	[0, 0, 0]	-999	PAL1	0	R1066P
645.308	0.017	584828	REC_END	n/a	5	-999	n/a	n/a	n/a	n/a	4	[0, 0, 0]	-999	PAL1	0	R1066P
645.325	0.815	584837	TEST_ORIENT	n/a	2	6	BUSH	n/a	BUSH	STONE	4	[0, 0, 0]	-999	PAL1	0	R1066P
646.14	0.001	585244	TEST_PROBE	n/a	2	6	BUSH	n/a	BUSH	STONE	4	[0, 0, 0]	-999	PAL1	0	R1066P
646.141	1.945	585245	REC_START	n/a	2	-999	n/a	n/a	n/a	n/a	4	[0, 0, 0]	-999	PAL1	0	R1066P
648.086	3.064	586217	REC_EVENT	1945	2	6	BUSH	<>	BUSH	STONE	4	[0, 0, 0]	-999	PAL1	0	R1066P
651.15	48.462	587749	REC_END	n/a	2	-999	n/a	n/a	n/a	n/a	4	[0, 0, 0]	-999	PAL1	0	R1066P
699.612	10.441	611979	ENCODING_START	n/a	0	-999	n/a	n/a	n/a	n/a	5	[0, 0, 0]	-999	PAL1	0	R1066P
710.053	0.983	617199	STUDY_ORIENT	n/a	1	3	WORM	LEG	LEG	WORM	5	[0, 0, 0]	-999	PAL1	0	R1066P
711.036	5.018	617691	STUDY_PAIR	n/a	1	3	WORM	LEG	LEG	WORM	5	[0, 0, 0]	-999	PAL1	0	R1066P
716.054	0.818	620200	STUDY_ORIENT	n/a	2	2	BOARD	RAT	BOARD	RAT	5	[0, 0, 0]	-999	PAL1	0	R1066P
716.872	5.034	620609	STUDY_PAIR	n/a	2	2	BOARD	RAT	BOARD	RAT	5	[0, 0, 0]	-999	PAL1	0	R1066P
721.906	0.8	623125	STUDY_ORIENT	n/a	3	5	LEAF	n/a	HAT	LEAF	5	[0, 0, 0]	-999	PAL1	0	R1066P
722.706	5.034	623525	STUDY_PAIR	n/a	3	5	LEAF	n/a	HAT	LEAF	5	[0, 0, 0]	-999	PAL1	0	R1066P
727.74	0.85	626042	STUDY_ORIENT	n/a	4	4	TIE	n/a	BENCH	TIE	5	[0, 0, 0]	-999	PAL1	0	R1066P
728.59	5.018	626467	STUDY_PAIR	n/a	4	4	TIE	n/a	BENCH	TIE	5	[0, 0, 0]	-999	PAL1	0	R1066P
733.608	0.784	628976	STUDY_ORIENT	n/a	5	1	DUCK	n/a	DUCK	MOON	5	[0, 0, 0]	-999	PAL1	0	R1066P
734.392	5.034	629368	STUDY_PAIR	n/a	5	1	DUCK	n/a	DUCK	MOON	5	[0, 0, 0]	-999	PAL1	0	R1066P
739.426	0.95	631885	STUDY_ORIENT	n/a	6	6	TRAY	n/a	TRAY	WORLD	5	[0, 0, 0]	-999	PAL1	0	R1066P
740.376	4.018	632360	STUDY_PAIR	n/a	6	6	TRAY	n/a	TRAY	WORLD	5	[0, 0, 0]	-999	PAL1	0	R1066P
744.394	0.999	634369	START	n/a	-999	-999	n/a	n/a	n/a	n/a	5	[-999, -999, -999]	-999	PAL1	0	R1066P
745.393	0.017	634868	MATH_START	n/a	-999	-999	n/a	n/a	n/a	n/a	5	[0, 0, 0]	-999	PAL1	0	R1066P
745.41	3.368	634877	PROB	3338	-999	-999	n/a	n/a	n/a	n/a	5	[3, 9, 2]	14	PAL1	0	R1066P
748.778	1.867	636561	PROB	1842	-999	-999	n/a	n/a	n/a	n/a	5	[6, 5, 1]	12	PAL1	0	R1066P
750.645	2.25	637494	PROB	2223	-999	-999	n/a	n/a	n/a	n/a	5	[6, 1, 2]	9	PAL1	0	R1066P
752.895	2.634	638619	PROB	2605	-999	-999	n/a	n/a	n/a	n/a	5	[2, 5, 6]	14	PAL1	0	R1066P
755.529	3.317	639936	PROB	3291	-999	-999	n/a	n/a	n/a	n/a	5	[4, 4, 5]	13	PAL1	0	R1066P
758.846	5.118	641594	PROB	5094	-999	-999	n/a	n/a	n/a	n/a	5	[7, 7, 9]	23	PAL1	0	R1066P
763.964	5.159	644153	PROB	5159	-999	-999	n/a	n/a	n/a	n/a	5	[8, 9, 8]	25	PAL1	0	R1066P
769.123	0.008	646733	STOP	n/a	-999	-999	n/a	n/a	n/a	n/a	5	[-999, -999, -999]	-999	PAL1	0	R1066P
769.131	0.0	646737	MATH_END	n/a	-999	-999	n/a	n/a	n/a	n/a	5	[0, 0, 0]	-999	PAL1	0	R1066P
769.131	0.016	646737	TEST_START	n/a	-999	-999	n/a	n/a	n/a	n/a	5	[0, 0, 0]	-999	PAL1	0	R1066P
769.147	0.917	646745	TEST_ORIENT	n/a	5	1	DUCK	n/a	DUCK	MOON	5	[0, 0, 0]	-999	PAL1	0	R1066P
770.064	0.001	647203	TEST_PROBE	n/a	5	1	DUCK	n/a	DUCK	MOON	5	[0, 0, 0]	-999	PAL1	0	R1066P
770.065	5.008	647204	REC_START	n/a	5	-999	n/a	n/a	n/a	n/a	5	[0, 0, 0]	-999	PAL1	0	R1066P
775.073	0.001	649708	REC_END	n/a	5	-999	n/a	n/a	n/a	n/a	5	[0, 0, 0]	-999	PAL1	0	R1066P
775.074	0.008	649708	REC_EVENT	5009	5	1	DUCK	<>	DUCK	MOON	5	[0, 0, 0]	-999	PAL1	0	R1066P
775.082	0.983	649712	TEST_ORIENT	n/a	2	2	BOARD	RAT	BOARD	RAT	5	[0, 0, 0]	-999	PAL1	0	R1066P
776.065	0.001	650204	TEST_PROBE	n/a	2	2	BOARD	RAT	BOARD	RAT	5	[0, 0, 0]	-999	PAL1	0	R1066P
776.066	0.944	650204	REC_START	n/a	2	-999	n/a	RAT	n/a	n/a	5	[0, 0, 0]	-999	PAL1	0	R1066P
777.01	4.064	650676	REC_EVENT	944	2	2	BOARD	RAT	BOARD	RAT	5	[0, 0, 0]	-999	PAL1	0	R1066P
781.074	0.009	652708	REC_END	n/a	2	-999	n/a	n/a	n/a	n/a	5	[0, 0, 0]	-999	PAL1	0	R1066P
781.083	0.868	652712	TEST_ORIENT	n/a	1	3	WORM	LEG	LEG	WORM	5	[0, 0, 0]	-999	PAL1	0	R1066P
781.951	0.0	653146	TEST_PROBE	n/a	1	3	WORM	LEG	LEG	WORM	5	[0, 0, 0]	-999	PAL1	0	R1066P
781.951	0.863	653146	REC_START	n/a	1	-999	n/a	LEG	n/a	n/a	5	[0, 0, 0]	-999	PAL1	0	R1066P
782.814	4.154	653578	REC_EVENT	863	1	3	WORM	LEG	LEG	WORM	5	[0, 0, 0]	-999	PAL1	0	R1066P
786.968	0.016	655655	REC_END	n/a	1	-999	n/a	n/a	n/a	n/a	5	[0, 0, 0]	-999	PAL1	0	R1066P
786.984	0.901	655663	TEST_ORIENT	n/a	4	4	TIE	n/a	BENCH	TIE	5	[0, 0, 0]	-999	PAL1	0	R1066P
787.885	0.001	656113	TEST_PROBE	n/a	4	4	TIE	n/a	BENCH	TIE	5	[0, 0, 0]	-999	PAL1	0	R1066P
787.886	5.008	656114	REC_START	n/a	4	-999	n/a	n/a	n/a	n/a	5	[0, 0, 0]	-999	PAL1	0	R1066P
792.894	0.001	658618	REC_END	n/a	4	-999	n/a	n/a	n/a	n/a	5	[0, 0, 0]	-999	PAL1	0	R1066P
792.895	0.008	658618	REC_EVENT	5009	4	4	TIE	<>	BENCH	TIE	5	[0, 0, 0]	-999	PAL1	0	R1066P
792.903	0.933	658622	TEST_ORIENT	n/a	3	5	LEAF	n/a	HAT	LEAF	5	[0, 0, 0]	-999	PAL1	0	R1066P
793.836	0.001	659089	TEST_PROBE	n/a	3	5	LEAF	n/a	HAT	LEAF	5	[0, 0, 0]	-999	PAL1	0	R1066P
793.837	5.008	659089	REC_START	n/a	3	-999	n/a	n/a	n/a	n/a	5	[0, 0, 0]	-999	PAL1	0	R1066P
798.845	0.001	661593	REC_END	n/a	3	-999	n/a	n/a	n/a	n/a	5	[0, 0, 0]	-999	PAL1	0	R1066P
798.846	0.008	661593	REC_EVENT	5009	3	5	LEAF	<>	HAT	LEAF	5	[0, 0, 0]	-999	PAL1	0	R1066P
798.854	0.8	661597	TEST_ORIENT	n/a	6	6	TRAY	n/a	TRAY	WORLD	5	[0, 0, 0]	-999	PAL1	0	R1066P
799.654	0.001	661997	TEST_PROBE	n/a	6	6	TRAY	n/a	TRAY	WORLD	5	[0, 0, 0]	-999	PAL1	0	R1066P
799.655	5.008	661998	REC_START	n/a	6	-999	n/a	n/a	n/a	n/a	5	[0, 0, 0]	-999	PAL1	0	R1066P
804.663	0.001	664502	REC_END	n/a	6	-999	n/a	n/a	n/a	n/a	5	[0, 0, 0]	-999	PAL1	0	R1066P
804.664	5.443	664502	REC_EVENT	5009	6	6	TRAY	<>	TRAY	WORLD	5	[0, 0, 0]	-999	PAL1	0	R1066P
810.107	10.451	667224	ENCODING_START	n/a	0	-999	n/a	n/a	n/a	n/a	6	[0, 0, 0]	-999	PAL1	0	R1066P
820.558	0.967	672449	STUDY_ORIENT	n/a	1	5	HOOF	n/a	HOOF	AXE	6	[0, 0, 0]	-999	PAL1	0	R1066P
821.525	5.034	672932	STUDY_PAIR	n/a	1	5	HOOF	n/a	HOOF	AXE	6	[0, 0, 0]	-999	PAL1	0	R1066P
826.559	0.984	675449	STUDY_ORIENT	n/a	2	6	PHONE	PARK	PHONE	PARK	6	[0, 0, 0]	-999	PAL1	0	R1066P
827.543	5.034	675941	STUDY_PAIR	n/a	2	6	PHONE	PARK	PHONE	PARK	6	[0, 0, 0]	-999	PAL1	0	R1066P
832.577	0.95	678458	STUDY_ORIENT	n/a	3	1	BAG	SQUARE	BAG	SQUARE	6	[0, 0, 0]	-999	PAL1	0	R1066P
833.527	5.018	678933	STUDY_PAIR	n/a	3	1	BAG	SQUARE	BAG	SQUARE	6	[0, 0, 0]	-999	PAL1	0	R1066P
838.545	0.85	681442	STUDY_ORIENT	n/a	4	2	STAR	n/a	CLOTH	STAR	6	[0, 0, 0]	-999	PAL1	0	R1066P
839.395	5.018	681867	STUDY_PAIR	n/a	4	2	STAR	n/a	CLOTH	STAR	6	[0, 0, 0]	-999	PAL1	0	R1066P
844.413	1.017	684376	STUDY_ORIENT	n/a	5	3	DRUM	n/a	BAT	DRUM	6	[0, 0, 0]	-999	PAL1	0	R1066P
845.43	5.034	684884	STUDY_PAIR	n/a	5	3	DRUM	n/a	BAT	DRUM	6	[0, 0, 0]	-999	PAL1	0	R1066P
850.464	1.017	687401	STUDY_ORIENT	n/a	6	4	STREET	n/a	PLANE	STREET	6	[0, 0, 0]	-999	PAL1	0	R1066P
851.481	4.018	687910	STUDY_PAIR	n/a	6	4	STREET	n/a	PLANE	STREET	6	[0, 0, 0]	-999	PAL1	0	R1066P
855.499	0.999	689918	START	n/a	-999	-999	n/a	n/a	n/a	n/a	6	[-999, -999, -999]	-999	PAL1	0	R1066P
856.498	0.017	690418	MATH_START	n/a	-999	-999	n/a	n/a	n/a	n/a	6	[0, 0, 0]	-999	PAL1	0	R1066P
856.515	7.051	690426	PROB	7033	-999	-999	n/a	n/a	n/a	n/a	6	[8, 3, 9]	20	PAL1	0	R1066P
863.566	2.984	693952	PROB	2949	-999	-999	n/a	n/a	n/a	n/a	6	[1, 7, 7]	15	PAL1	0	R1066P
866.55	2.6	695444	PROB	2581	-999	-999	n/a	n/a	n/a	n/a	6	[4, 8, 1]	13	PAL1	0	R1066P
869.15	4.768	696744	PROB	4734	-999	-999	n/a	n/a	n/a	n/a	6	[9, 7, 6]	23	PAL1	0	R1066P
873.918	2.245	699128	PROB	2245	-999	-999	n/a	n/a	n/a	n/a	6	[3, 1, 3]	7	PAL1	0	R1066P
876.163	0.005	700250	STOP	n/a	-999	-999	n/a	n/a	n/a	n/a	6	[-999, -999, -999]	-999	PAL1	0	R1066P
876.168	0.0	700252	MATH_END	n/a	-999	-999	n/a	n/a	n/a	n/a	6	[0, 0, 0]	-999	PAL1	0	R1066P
876.168	0.018	700252	TEST_START	n/a	-999	-999	n/a	n/a	n/a	n/a	6	[0, 0, 0]	-999	PAL1	0	R1066P
876.186	0.899	700261	TEST_ORIENT	n/a	3	1	BAG	SQUARE	BAG	SQUARE	6	[0, 0, 0]	-999	PAL1	0	R1066P
877.085	0.0	700711	TEST_PROBE	n/a	3	1	BAG	SQUARE	BAG	SQUARE	6	[0, 0, 0]	-999	PAL1	0	R1066P
877.085	0.603	700711	REC_START	n/a	3	-999	n/a	SQUARE	n/a	n/a	6	[0, 0, 0]	-999	PAL1	0	R1066P
877.688	3.053	701012	REC_EVENT	603	3	1	BAG	COMB	BAG	SQUARE	6	[0, 0, 0]	-999	PAL1	0	R1066P
880.741	1.361	702539	REC_EVENT	3656	3	1	BAG	SQUARE	BAG	SQUARE	6	[0, 0, 0]	-999	PAL1	0	R1066P
882.102	0.017	703219	REC_END	n/a	3	-999	n/a	n/a	n/a	n/a	6	[0, 0, 0]	-999	PAL1	0	R1066P
882.119	0.818	703228	TEST_ORIENT	n/a	4	2	STAR	n/a	CLOTH	STAR	6	[0, 0, 0]	-999	PAL1	0	R1066P
882.937	0.0	703637	TEST_PROBE	n/a	4	2	STAR	n/a	CLOTH	STAR	6	[0, 0, 0]	-999	PAL1	0	R1066P
882.937	5.015	703637	REC_START	n/a	4	-999	n/a	n/a	n/a	n/a	6	[0, 0, 0]	-999	PAL1	0	R1066P
887.952	0.002	706144	REC_EVENT	5015	4	2	STAR	<>	CLOTH	STAR	6	[0, 0, 0]	-999	PAL1	0	R1066P
887.954	0.017	706145	REC_END	n/a	4	-999	n/a	n/a	n/a	n/a	6	[0, 0, 0]	-999	PAL1	0	R1066P
887.971	0.884	706154	TEST_ORIENT	n/a	5	3	DRUM	n/a	BAT	DRUM	6	[0, 0, 0]	-999	PAL1	0	R1066P
888.855	0.0	706596	TEST_PROBE	n/a	5	3	DRUM	n/a	BAT	DRUM	6	[0, 0, 0]	-999	PAL1	0	R1066P
888.855	5.015	706596	REC_START	n/a	5	-999	n/a	n/a	n/a	n/a	6	[0, 0, 0]	-999	PAL1	0	R1066P
893.87	0.002	709103	REC_EVENT	5015	5	3	DRUM	<>	BAT	DRUM	6	[0, 0, 0]	-999	PAL1	0	R1066P
893.872	0.017	709104	REC_END	n/a	5	-999	n/a	n/a	n/a	n/a	6	[0, 0, 0]	-999	PAL1	0	R1066P
893.889	0.967	709113	TEST_ORIENT	n/a	6	4	STREET	n/a	PLANE	STREET	6	[0, 0, 0]	-999	PAL1	0	R1066P
894.856	0.0	709596	TEST_PROBE	n/a	6	4	STREET	n/a	PLANE	STREET	6	[0, 0, 0]	-999	PAL1	0	R1066P
894.856	5.015	709596	REC_START	n/a	6	-999	n/a	n/a	n/a	n/a	6	[0, 0, 0]	-999	PAL1	0	R1066P
899.871	0.002	712103	REC_EVENT	5015	6	4	STREET	<>	PLANE	STREET	6	[0, 0, 0]	-999	PAL1	0	R1066P
899.873	0.017	712104	REC_END	n/a	6	-999	n/a	n/a	n/a	n/a	6	[0, 0, 0]	-999	PAL1	0	R1066P
899.89	0.9	712113	TEST_ORIENT	n/a	1	5	HOOF	n/a	HOOF	AXE	6	[0, 0, 0]	-999	PAL1	0	R1066P
900.79	0.001	712563	TEST_PROBE	n/a	1	5	HOOF	n/a	HOOF	AXE	6	[0, 0, 0]	-999	PAL1	0	R1066P
900.791	5.008	712563	REC_START	n/a	1	-999	n/a	n/a	n/a	n/a	6	[0, 0, 0]	-999	PAL1	0	R1066P
905.799	0.001	715067	REC_END	n/a	1	-999	n/a	n/a	n/a	n/a	6	[0, 0, 0]	-999	PAL1	0	R1066P
905.8	0.008	715068	REC_EVENT	5009	1	5	HOOF	<>	HOOF	AXE	6	[0, 0, 0]	-999	PAL1	0	R1066P
905.808	1.0	715072	TEST_ORIENT	n/a	2	6	PHONE	PARK	PHONE	PARK	6	[0, 0, 0]	-999	PAL1	0	R1066P
906.808	0.0	715572	TEST_PROBE	n/a	2	6	PHONE	PARK	PHONE	PARK	6	[0, 0, 0]	-999	PAL1	0	R1066P
906.808	2.403	715572	REC_START	n/a	2	-999	n/a	PARK	n/a	n/a	6	[0, 0, 0]	-999	PAL1	0	R1066P
909.211	0.769	716773	REC_EVENT	2403	2	6	PHONE	FOAM	PHONE	PARK	6	[0, 0, 0]	-999	PAL1	0	R1066P
909.98	1.846	717158	REC_EVENT	3172	2	6	PHONE	PARK	PHONE	PARK	6	[0, 0, 0]	-999	PAL1	0	R1066P
911.826	9.161	718081	REC_END	n/a	2	-999	n/a	n/a	n/a	n/a	6	[0, 0, 0]	-999	PAL1	0	R1066P
920.987	10.443	722661	ENCODING_START	n/a	0	-999	n/a	n/a	n/a	n/a	7	[0, 0, 0]	-999	PAL1	0	R1066P
931.43	0.9	727882	STUDY_ORIENT	n/a	1	5	WOLF	n/a	SOCK	WOLF	7	[0, 0, 0]	-999	PAL1	0	R1066P
932.33	5.034	728332	STUDY_PAIR	n/a	1	5	WOLF	n/a	SOCK	WOLF	7	[0, 0, 0]	-999	PAL1	0	R1066P
937.364	1.017	730849	STUDY_ORIENT	n/a	2	2	PEAR	n/a	PALM	PEAR	7	[0, 0, 0]	-999	PAL1	0	R1066P
938.381	5.034	731357	STUDY_PAIR	n/a	2	2	PEAR	n/a	PALM	PEAR	7	[0, 0, 0]	-999	PAL1	0	R1066P
943.415	0.8	733874	STUDY_ORIENT	n/a	3	1	TOAD	n/a	TOAD	DOLL	7	[0, 0, 0]	-999	PAL1	0	R1066P
944.215	5.018	734274	STUDY_PAIR	n/a	3	1	TOAD	n/a	TOAD	DOLL	7	[0, 0, 0]	-999	PAL1	0	R1066P
949.233	0.916	736783	STUDY_ORIENT	n/a	4	4	STOVE	n/a	STOVE	FARM	7	[0, 0, 0]	-999	PAL1	0	R1066P
950.149	5.035	737241	STUDY_PAIR	n/a	4	4	STOVE	n/a	STOVE	FARM	7	[0, 0, 0]	-999	PAL1	0	R1066P
955.184	0.883	739758	STUDY_ORIENT	n/a	5	3	PIE	n/a	PIE	SWORD	7	[0, 0, 0]	-999	PAL1	0	R1066P
956.067	5.034	740200	STUDY_PAIR	n/a	5	3	PIE	n/a	PIE	SWORD	7	[0, 0, 0]	-999	PAL1	0	R1066P
961.101	0.883	742717	STUDY_ORIENT	n/a	6	6	SEAT	n/a	SEAT	KITE	7	[0, 0, 0]	-999	PAL1	0	R1066P
961.984	4.002	743158	STUDY_PAIR	n/a	6	6	SEAT	n/a	SEAT	KITE	7	[0, 0, 0]	-999	PAL1	0	R1066P
965.986	0.999	745159	START	n/a	-999	-999	n/a	n/a	n/a	n/a	7	[-999, -999, -999]	-999	PAL1	0	R1066P
966.985	0.017	745659	MATH_START	n/a	-999	-999	n/a	n/a	n/a	n/a	7	[0, 0, 0]	-999	PAL1	0	R1066P
967.002	4.202	745667	PROB	4177	-999	-999	n/a	n/a	n/a	n/a	7	[1, 7, 9]	17	PAL1	0	R1066P
971.204	2.567	747768	PROB	2544	-999	-999	n/a	n/a	n/a	n/a	7	[2, 5, 8]	15	PAL1	0	R1066P
973.771	3.216	749051	PROB	3185	-999	-999	n/a	n/a	n/a	n/a	7	[2, 5, 9]	16	PAL1	0	R1066P
976.987	1.668	750659	PROB	1641	-999	-999	n/a	n/a	n/a	n/a	7	[3, 7, 2]	12	PAL1	0	R1066P
978.655	2.466	751493	PROB	2436	-999	-999	n/a	n/a	n/a	n/a	7	[2, 4, 3]	9	PAL1	0	R1066P
981.121	4.269	752726	PROB	4235	-999	-999	n/a	n/a	n/a	n/a	7	[9, 6, 9]	24	PAL1	0	R1066P
985.39	2.382	754861	PROB	2382	-999	-999	n/a	n/a	n/a	n/a	7	[2, 5, 8]	15	PAL1	0	R1066P
987.772	0.018	756052	STOP	n/a	-999	-999	n/a	n/a	n/a	n/a	7	[-999, -999, -999]	-999	PAL1	0	R1066P
987.79	0.0	756061	MATH_END	n/a	-999	-999	n/a	n/a	n/a	n/a	7	[0, 0, 0]	-999	PAL1	0	R1066P
987.79	0.017	756061	TEST_START	n/a	-999	-999	n/a	n/a	n/a	n/a	7	[0, 0, 0]	-999	PAL1	0	R1066P
987.807	1.0	756069	TEST_ORIENT	n/a	3	1	TOAD	n/a	TOAD	DOLL	7	[0, 0, 0]	-999	PAL1	0	R1066P
988.807	0.001	756569	TEST_PROBE	n/a	3	1	TOAD	n/a	TOAD	DOLL	7	[0, 0, 0]	-999	PAL1	0	R1066P
988.808	4.998	756570	REC_START	n/a	3	-999	n/a	n/a	n/a	n/a	7	[0, 0, 0]	-999	PAL1	0	R1066P
993.806	0.002	759068	REC_EVENT	4998	3	1	TOAD	<>	TOAD	DOLL	7	[0, 0, 0]	-999	PAL1	0	R1066P
993.808	0.017	759069	REC_END	n/a	3	-999	n/a	n/a	n/a	n/a	7	[0, 0, 0]	-999	PAL1	0	R1066P
993.825	0.8	759078	TEST_ORIENT	n/a	2	2	PEAR	n/a	PALM	PEAR	7	[0, 0, 0]	-999	PAL1	0	R1066P
994.625	0.0	759478	TEST_PROBE	n/a	2	2	PEAR	n/a	PALM	PEAR	7	[0, 0, 0]	-999	PAL1	0	R1066P
994.625	5.015	759478	REC_START	n/a	2	-999	n/a	n/a	n/a	n/a	7	[0, 0, 0]	-999	PAL1	0	R1066P
999.64	0.002	761985	REC_EVENT	5015	2	2	PEAR	<>	PALM	PEAR	7	[0, 0, 0]	-999	PAL1	0	R1066P
999.642	0.017	761986	REC_END	n/a	2	-999	n/a	n/a	n/a	n/a	7	[0, 0, 0]	-999	PAL1	0	R1066P
999.659	0.834	761995	TEST_ORIENT	n/a	5	3	PIE	n/a	PIE	SWORD	7	[0, 0, 0]	-999	PAL1	0	R1066P
1000.493	0.0	762412	TEST_PROBE	n/a	5	3	PIE	n/a	PIE	SWORD	7	[0, 0, 0]	-999	PAL1	0	R1066P
1000.493	5.015	762412	REC_START	n/a	5	-999	n/a	n/a	n/a	n/a	7	[0, 0, 0]	-999	PAL1	0	R1066P
1005.508	0.002	764919	REC_EVENT	5015	5	3	PIE	<>	PIE	SWORD	7	[0, 0, 0]	-999	PAL1	0	R1066P
1005.51	0.017	764920	REC_END	n/a	5	-999	n/a	n/a	n/a	n/a	7	[0, 0, 0]	-999	PAL1	0	R1066P
1005.527	0.95	764929	TEST_ORIENT	n/a	4	4	STOVE	n/a	STOVE	FARM	7	[0, 0, 0]	-999	PAL1	0	R1066P
1006.477	0.001	765404	TEST_PROBE	n/a	4	4	STOVE	n/a	STOVE	FARM	7	[0, 0, 0]	-999	PAL1	0	R1066P
1006.478	4.998	765404	REC_START	n/a	4	-999	n/a	n/a	n/a	n/a	7	[0, 0, 0]	-999	PAL1	0	R1066P
1011.476	0.002	767903	REC_EVENT	4998	4	4	STOVE	<>	STOVE	FARM	7	[0, 0, 0]	-999	PAL1	0	R1066P
1011.478	0.017	767904	REC_END	n/a	4	-999	n/a	n/a	n/a	n/a	7	[0, 0, 0]	-999	PAL1	0	R1066P
1011.495	0.867	767912	TEST_ORIENT	n/a	1	5	WOLF	n/a	SOCK	WOLF	7	[0, 0, 0]	-999	PAL1	0	R1066P
1012.362	0.0	768346	REC_START	n/a	1	-999	n/a	n/a	n/a	n/a	7	[0, 0, 0]	-999	PAL1	0	R1066P
1012.362	5.015	768346	TEST_PROBE	n/a	1	5	WOLF	n/a	SOCK	WOLF	7	[0, 0, 0]	-999	PAL1	0	R1066P
1017.377	0.002	770853	REC_EVENT	5015	1	5	WOLF	<>	SOCK	WOLF	7	[0, 0, 0]	-999	PAL1	0	R1066P
1017.379	0.017	770854	REC_END	n/a	1	-999	n/a	n/a	n/a	n/a	7	[0, 0, 0]	-999	PAL1	0	R1066P
1017.396	0.85	770863	TEST_ORIENT	n/a	6	6	SEAT	n/a	SEAT	KITE	7	[0, 0, 0]	-999	PAL1	0	R1066P
1018.246	0.001	771288	TEST_PROBE	n/a	6	6	SEAT	n/a	SEAT	KITE	7	[0, 0, 0]	-999	PAL1	0	R1066P
1018.247	5.009	771288	REC_START	n/a	6	-999	n/a	n/a	n/a	n/a	7	[0, 0, 0]	-999	PAL1	0	R1066P
1023.256	0.0	773793	REC_EVENT	5009	6	6	SEAT	<>	SEAT	KITE	7	[0, 0, 0]	-999	PAL1	0	R1066P
1023.256	20.58	773793	REC_END	n/a	6	-999	n/a	n/a	n/a	n/a	7	[0, 0, 0]	-999	PAL1	0	R1066P
1043.836	10.45	784082	ENCODING_START	n/a	0	-999	n/a	n/a	n/a	n/a	8	[0, 0, 0]	-999	PAL1	0	R1066P
1054.286	0.984	789307	STUDY_ORIENT	n/a	1	3	SALT	n/a	SALT	HEN	8	[0, 0, 0]	-999	PAL1	0	R1066P
1055.27	5.034	789799	STUDY_PAIR	n/a	1	3	SALT	n/a	SALT	HEN	8	[0, 0, 0]	-999	PAL1	0	R1066P
1060.304	0.85	792316	STUDY_ORIENT	n/a	2	2	DITCH	n/a	FOX	DITCH	8	[0, 0, 0]	-999	PAL1	0	R1066P
1061.154	5.035	792741	STUDY_PAIR	n/a	2	2	DITCH	n/a	FOX	DITCH	8	[0, 0, 0]	-999	PAL1	0	R1066P
1066.189	0.783	795258	STUDY_ORIENT	n/a	3	1	FOOD	n/a	FOOD	SHARK	8	[0, 0, 0]	-999	PAL1	0	R1066P
1066.972	5.017	795650	STUDY_PAIR	n/a	3	1	FOOD	n/a	FOOD	SHARK	8	[0, 0, 0]	-999	PAL1	0	R1066P
1071.989	0.818	798158	STUDY_ORIENT	n/a	4	4	TRAIN	n/a	WEED	TRAIN	8	[0, 0, 0]	-999	PAL1	0	R1066P
1072.807	5.034	798567	STUDY_PAIR	n/a	4	4	TRAIN	n/a	WEED	TRAIN	8	[0, 0, 0]	-999	PAL1	0	R1066P
1077.841	0.867	801084	STUDY_ORIENT	n/a	5	5	STOOL	n/a	INK	STOOL	8	[0, 0, 0]	-999	PAL1	0	R1066P
1078.708	5.034	801517	STUDY_PAIR	n/a	5	5	STOOL	n/a	INK	STOOL	8	[0, 0, 0]	-999	PAL1	0	R1066P
1083.742	0.917	804034	STUDY_ORIENT	n/a	6	6	MOLE	BOOK	MOLE	BOOK	8	[0, 0, 0]	-999	PAL1	0	R1066P
1084.659	4.018	804493	STUDY_PAIR	n/a	6	6	MOLE	BOOK	MOLE	BOOK	8	[0, 0, 0]	-999	PAL1	0	R1066P
1088.677	0.999	806502	START	n/a	-999	-999	n/a	n/a	n/a	n/a	8	[-999, -999, -999]	-999	PAL1	0	R1066P
1089.676	0.017	807001	MATH_START	n/a	-999	-999	n/a	n/a	n/a	n/a	8	[0, 0, 0]	-999	PAL1	0	R1066P
1089.693	4.584	807009	PROB	4551	-999	-999	n/a	n/a	n/a	n/a	8	[5, 3, 9]	17	PAL1	0	R1066P
1094.277	2.968	809301	PROB	2935	-999	-999	n/a	n/a	n/a	n/a	8	[6, 8, 6]	20	PAL1	0	R1066P
1097.245	2.5	810785	PROB	2479	-999	-999	n/a	n/a	n/a	n/a	8	[6, 3, 7]	16	PAL1	0	R1066P
1099.745	3.601	812035	PROB	3579	-999	-999	n/a	n/a	n/a	n/a	8	[6, 8, 7]	21	PAL1	0	R1066P
1103.346	1.984	813836	PROB	1962	-999	-999	n/a	n/a	n/a	n/a	8	[5, 8, 5]	18	PAL1	0	R1066P
1105.33	1.517	814828	PROB	1490	-999	-999	n/a	n/a	n/a	n/a	8	[2, 2, 4]	8	PAL1	0	R1066P
1106.847	3.397	815586	PROB	3397	-999	-999	n/a	n/a	n/a	n/a	8	[2, 6, 8]	16	PAL1	0	R1066P
1110.244	0.003	817284	STOP	n/a	-999	-999	n/a	n/a	n/a	n/a	8	[-999, -999, -999]	-999	PAL1	0	R1066P
1110.247	0.0	817286	TEST_START	n/a	-999	-999	n/a	n/a	n/a	n/a	8	[0, 0, 0]	-999	PAL1	0	R1066P
1110.247	0.017	817286	MATH_END	n/a	-999	-999	n/a	n/a	n/a	n/a	8	[0, 0, 0]	-999	PAL1	0	R1066P
1110.264	0.916	817294	TEST_ORIENT	n/a	3	1	FOOD	n/a	FOOD	SHARK	8	[0, 0, 0]	-999	PAL1	0	R1066P
1111.18	0.0	817752	TEST_PROBE	n/a	3	1	FOOD	n/a	FOOD	SHARK	8	[0, 0, 0]	-999	PAL1	0	R1066P
1111.18	5.018	817752	REC_START	n/a	3	-999	n/a	n/a	n/a	n/a	8	[0, 0, 0]	-999	PAL1	0	R1066P
1116.198	0.003	820261	REC_END	n/a	3	-999	n/a	n/a	n/a	n/a	8	[0, 0, 0]	-999	PAL1	0	R1066P
1116.201	0.014	820263	REC_EVENT	5021	3	1	FOOD	<>	FOOD	SHARK	8	[0, 0, 0]	-999	PAL1	0	R1066P
1116.215	0.933	820270	TEST_ORIENT	n/a	2	2	DITCH	n/a	FOX	DITCH	8	[0, 0, 0]	-999	PAL1	0	R1066P
1117.148	0.0	820736	TEST_PROBE	n/a	2	2	DITCH	n/a	FOX	DITCH	8	[0, 0, 0]	-999	PAL1	0	R1066P
1117.148	3.19	820736	REC_START	n/a	2	-999	n/a	n/a	n/a	n/a	8	[0, 0, 0]	-999	PAL1	0	R1066P
1120.338	1.0	822331	REC_EVENT	3190	2	2	DITCH	<>	FOX	DITCH	8	[0, 0, 0]	-999	PAL1	0	R1066P
1121.338	0.827	822831	REC_EVENT	4190	2	2	DITCH	<>	FOX	DITCH	8	[0, 0, 0]	-999	PAL1	0	R1066P
1122.165	0.017	823245	REC_END	n/a	2	-999	n/a	n/a	n/a	n/a	8	[0, 0, 0]	-999	PAL1	0	R1066P
1122.182	0.966	823253	TEST_ORIENT	n/a	1	3	SALT	n/a	SALT	HEN	8	[0, 0, 0]	-999	PAL1	0	R1066P
1123.148	0.001	823736	TEST_PROBE	n/a	1	3	SALT	n/a	SALT	HEN	8	[0, 0, 0]	-999	PAL1	0	R1066P
1123.149	5.0	823737	REC_START	n/a	1	-999	n/a	n/a	n/a	n/a	8	[0, 0, 0]	-999	PAL1	0	R1066P
1128.149	0.003	826237	REC_END	n/a	1	-999	n/a	n/a	n/a	n/a	8	[0, 0, 0]	-999	PAL1	0	R1066P
1128.152	0.014	826238	REC_EVENT	5003	1	3	SALT	<>	SALT	HEN	8	[0, 0, 0]	-999	PAL1	0	R1066P
1128.166	0.917	826245	TEST_ORIENT	n/a	4	4	TRAIN	n/a	WEED	TRAIN	8	[0, 0, 0]	-999	PAL1	0	R1066P
1129.083	0.001	826703	TEST_PROBE	n/a	4	4	TRAIN	n/a	WEED	TRAIN	8	[0, 0, 0]	-999	PAL1	0	R1066P
1129.084	5.003	826704	REC_START	n/a	4	-999	n/a	n/a	n/a	n/a	8	[0, 0, 0]	-999	PAL1	0	R1066P
1134.087	0.005	829205	REC_EVENT	5003	4	4	TRAIN	<>	WEED	TRAIN	8	[0, 0, 0]	-999	PAL1	0	R1066P
1134.092	0.009	829208	REC_END	n/a	4	-999	n/a	n/a	n/a	n/a	8	[0, 0, 0]	-999	PAL1	0	R1066P
1134.101	0.801	829212	TEST_ORIENT	n/a	5	5	STOOL	n/a	INK	STOOL	8	[0, 0, 0]	-999	PAL1	0	R1066P
1134.902	0.001	829613	TEST_PROBE	n/a	5	5	STOOL	n/a	INK	STOOL	8	[0, 0, 0]	-999	PAL1	0	R1066P
1134.903	5.015	829613	REC_START	n/a	5	-999	n/a	n/a	n/a	n/a	8	[0, 0, 0]	-999	PAL1	0	R1066P
1139.918	0.001	832121	REC_EVENT	5015	5	5	STOOL	<>	INK	STOOL	8	[0, 0, 0]	-999	PAL1	0	R1066P
1139.919	0.017	832121	REC_END	n/a	5	-999	n/a	n/a	n/a	n/a	8	[0, 0, 0]	-999	PAL1	0	R1066P
1139.936	0.834	832130	TEST_ORIENT	n/a	6	6	MOLE	BOOK	MOLE	BOOK	8	[0, 0, 0]	-999	PAL1	0	R1066P
1140.77	0.0	832547	TEST_PROBE	n/a	6	6	MOLE	BOOK	MOLE	BOOK	8	[0, 0, 0]	-999	PAL1	0	R1066P
1140.77	1.42	832547	REC_START	n/a	6	-999	n/a	BOOK	n/a	n/a	8	[0, 0, 0]	-999	PAL1	0	R1066P
1142.19	3.597	833257	REC_EVENT	1420	6	6	MOLE	BOOK	MOLE	BOOK	8	[0, 0, 0]	-999	PAL1	0	R1066P
1145.787	3.304	835055	REC_END	n/a	6	-999	n/a	n/a	n/a	n/a	8	[0, 0, 0]	-999	PAL1	0	R1066P
1149.091	10.449	836707	ENCODING_START	n/a	0	-999	n/a	n/a	n/a	n/a	9	[0, 0, 0]	-999	PAL1	0	R1066P
1159.54	0.834	841931	STUDY_ORIENT	n/a	1	5	GRASS	n/a	FISH	GRASS	9	[0, 0, 0]	-999	PAL1	0	R1066P
1160.374	5.034	842348	STUDY_PAIR	n/a	1	5	GRASS	n/a	FISH	GRASS	9	[0, 0, 0]	-999	PAL1	0	R1066P
1165.408	1.0	844865	STUDY_ORIENT	n/a	2	4	CAKE	n/a	PEA	CAKE	9	[0, 0, 0]	-999	PAL1	0	R1066P
1166.408	5.034	845365	STUDY_PAIR	n/a	2	4	CAKE	n/a	PEA	CAKE	9	[0, 0, 0]	-999	PAL1	0	R1066P
1171.442	0.934	847882	STUDY_ORIENT	n/a	3	3	BOWL	PEA	SHEEP	BOWL	9	[0, 0, 0]	-999	PAL1	0	R1066P
1172.376	5.034	848349	STUDY_PAIR	n/a	3	3	BOWL	PEA	SHEEP	BOWL	9	[0, 0, 0]	-999	PAL1	0	R1066P
1177.41	0.933	850866	STUDY_ORIENT	n/a	4	2	BLUSH	n/a	BLUSH	COIN	9	[0, 0, 0]	-999	PAL1	0	R1066P
1178.343	5.018	851332	STUDY_PAIR	n/a	4	2	BLUSH	n/a	BLUSH	COIN	9	[0, 0, 0]	-999	PAL1	0	R1066P
1183.361	0.917	853841	STUDY_ORIENT	n/a	5	1	SKY	n/a	SKY	JEEP	9	[0, 0, 0]	-999	PAL1	0	R1066P
1184.278	5.018	854300	STUDY_PAIR	n/a	5	1	SKY	n/a	SKY	JEEP	9	[0, 0, 0]	-999	PAL1	0	R1066P
1189.296	0.849	856808	STUDY_ORIENT	n/a	6	6	WOOD	MOLE	WOOD	MOTH	9	[0, 0, 0]	-999	PAL1	0	R1066P
1190.145	4.018	857233	STUDY_PAIR	n/a	6	6	WOOD	MOLE	WOOD	MOTH	9	[0, 0, 0]	-999	PAL1	0	R1066P
1194.163	0.999	859242	START	n/a	-999	-999	n/a	n/a	n/a	n/a	9	[-999, -999, -999]	-999	PAL1	0	R1066P
1195.162	0.017	859741	MATH_START	n/a	-999	-999	n/a	n/a	n/a	n/a	9	[0, 0, 0]	-999	PAL1	0	R1066P
1195.179	2.834	859750	PROB	2808	-999	-999	n/a	n/a	n/a	n/a	9	[9, 7, 5]	21	PAL1	0	R1066P
1198.013	1.801	861167	PROB	1775	-999	-999	n/a	n/a	n/a	n/a	9	[9, 1, 7]	17	PAL1	0	R1066P
1199.814	2.684	862067	PROB	2662	-999	-999	n/a	n/a	n/a	n/a	9	[7, 6, 3]	16	PAL1	0	R1066P
1202.498	4.901	863409	PROB	4882	-999	-999	n/a	n/a	n/a	n/a	9	[4, 4, 5]	13	PAL1	0	R1066P
1207.399	3.201	865859	PROB	3173	-999	-999	n/a	n/a	n/a	n/a	9	[5, 6, 4]	15	PAL1	0	R1066P
1210.6	2.367	867460	PROB	2348	-999	-999	n/a	n/a	n/a	n/a	9	[6, 2, 5]	14	PAL1	0	R1066P
1212.967	4.124	868643	PROB	4124	-999	-999	n/a	n/a	n/a	n/a	9	[5, 7, 6]	18	PAL1	0	R1066P
1217.091	0.009	870705	STOP	n/a	-999	-999	n/a	n/a	n/a	n/a	9	[-999, -999, -999]	-999	PAL1	0	R1066P
1217.1	0.0	870710	TEST_START	n/a	-999	-999	n/a	n/a	n/a	n/a	9	[0, 0, 0]	-999	PAL1	0	R1066P
1217.1	0.017	870710	MATH_END	n/a	-999	-999	n/a	n/a	n/a	n/a	9	[0, 0, 0]	-999	PAL1	0	R1066P
1217.117	0.784	870718	TEST_ORIENT	n/a	5	1	SKY	n/a	SKY	JEEP	9	[0, 0, 0]	-999	PAL1	0	R1066P
1217.901	0.001	871110	TEST_PROBE	n/a	5	1	SKY	n/a	SKY	JEEP	9	[0, 0, 0]	-999	PAL1	0	R1066P
1217.902	5.009	871111	REC_START	n/a	5	-999	n/a	n/a	n/a	n/a	9	[0, 0, 0]	-999	PAL1	0	R1066P
1222.911	0.0	873615	REC_EVENT	5009	5	1	SKY	<>	SKY	JEEP	9	[0, 0, 0]	-999	PAL1	0	R1066P
1222.911	0.008	873615	REC_END	n/a	5	-999	n/a	n/a	n/a	n/a	9	[0, 0, 0]	-999	PAL1	0	R1066P
1222.919	0.9	873619	TEST_ORIENT	n/a	4	2	BLUSH	n/a	BLUSH	COIN	9	[0, 0, 0]	-999	PAL1	0	R1066P
1223.819	0.0	874069	TEST_PROBE	n/a	4	2	BLUSH	n/a	BLUSH	COIN	9	[0, 0, 0]	-999	PAL1	0	R1066P
1223.819	5.015	874069	REC_START	n/a	4	-999	n/a	n/a	n/a	n/a	9	[0, 0, 0]	-999	PAL1	0	R1066P
1228.834	0.002	876576	REC_EVENT	5015	4	2	BLUSH	<>	BLUSH	COIN	9	[0, 0, 0]	-999	PAL1	0	R1066P
1228.836	0.017	876577	REC_END	n/a	4	-999	n/a	n/a	n/a	n/a	9	[0, 0, 0]	-999	PAL1	0	R1066P
1228.853	0.901	876586	TEST_ORIENT	n/a	3	3	BOWL	PEA	SHEEP	BOWL	9	[0, 0, 0]	-999	PAL1	0	R1066P
1229.754	0.0	877036	REC_START	n/a	3	-999	n/a	PEA	n/a	n/a	9	[0, 0, 0]	-999	PAL1	0	R1066P
1229.754	4.476	877036	TEST_PROBE	n/a	3	3	BOWL	PEA	SHEEP	BOWL	9	[0, 0, 0]	-999	PAL1	0	R1066P
1234.23	0.541	879274	REC_EVENT	4476	3	3	BOWL	PEA	SHEEP	BOWL	9	[0, 0, 0]	-999	PAL1	0	R1066P
1234.771	0.017	879545	REC_END	n/a	3	-999	n/a	n/a	n/a	n/a	9	[0, 0, 0]	-999	PAL1	0	R1066P
1234.788	0.933	879553	TEST_ORIENT	n/a	2	4	CAKE	n/a	PEA	CAKE	9	[0, 0, 0]	-999	PAL1	0	R1066P
1235.721	0.001	880020	TEST_PROBE	n/a	2	4	CAKE	n/a	PEA	CAKE	9	[0, 0, 0]	-999	PAL1	0	R1066P
1235.722	5.003	880020	REC_START	n/a	2	-999	n/a	n/a	n/a	n/a	9	[0, 0, 0]	-999	PAL1	0	R1066P
1240.725	0.006	882522	REC_EVENT	5003	2	4	CAKE	<>	PEA	CAKE	9	[0, 0, 0]	-999	PAL1	0	R1066P
1240.731	0.008	882525	REC_END	n/a	2	-999	n/a	n/a	n/a	n/a	9	[0, 0, 0]	-999	PAL1	0	R1066P
1240.739	0.867	882529	TEST_ORIENT	n/a	1	5	GRASS	n/a	FISH	GRASS	9	[0, 0, 0]	-999	PAL1	0	R1066P
1241.606	0.0	882962	REC_START	n/a	1	-999	n/a	n/a	n/a	n/a	9	[0, 0, 0]	-999	PAL1	0	R1066P
1241.606	2.437	882962	TEST_PROBE	n/a	1	5	GRASS	n/a	FISH	GRASS	9	[0, 0, 0]	-999	PAL1	0	R1066P
1244.043	1.0	884181	REC_EVENT	2437	1	5	GRASS	<>	FISH	GRASS	9	[0, 0, 0]	-999	PAL1	0	R1066P
1245.043	1.0	884681	REC_EVENT	3437	1	5	GRASS	<>	FISH	GRASS	9	[0, 0, 0]	-999	PAL1	0	R1066P
1246.043	0.58	885180	REC_EVENT	4437	1	5	GRASS	<>	FISH	GRASS	9	[0, 0, 0]	-999	PAL1	0	R1066P
1246.623	0.017	885470	REC_END	n/a	1	-999	n/a	n/a	n/a	n/a	9	[0, 0, 0]	-999	PAL1	0	R1066P
1246.64	0.817	885479	TEST_ORIENT	n/a	6	6	WOOD	MOLE	WOOD	MOTH	9	[0, 0, 0]	-999	PAL1	0	R1066P
1247.457	0.0	885887	TEST_PROBE	n/a	6	6	WOOD	MOLE	WOOD	MOTH	9	[0, 0, 0]	-999	PAL1	0	R1066P
1247.457	2.601	885887	REC_START	n/a	6	-999	n/a	MOLE	n/a	n/a	9	[0, 0, 0]	-999	PAL1	0	R1066P
1250.058	2.416	887188	REC_EVENT	2601	6	6	WOOD	MOLE	WOOD	MOTH	9	[0, 0, 0]	-999	PAL1	0	R1066P
1252.474	13.746	888396	REC_END	n/a	6	-999	n/a	n/a	n/a	n/a	9	[0, 0, 0]	-999	PAL1	0	R1066P
1266.22	10.443	895268	ENCODING_START	n/a	0	-999	n/a	n/a	n/a	n/a	10	[0, 0, 0]	-999	PAL1	0	R1066P
1276.663	1.016	900490	STUDY_ORIENT	n/a	1	1	TRASH	SHIRT	TRASH	SHIRT	10	[0, 0, 0]	-999	PAL1	0	R1066P
1277.679	5.018	900998	STUDY_PAIR	n/a	1	1	TRASH	SHIRT	TRASH	SHIRT	10	[0, 0, 0]	-999	PAL1	0	R1066P
1282.697	1.0	903507	STUDY_ORIENT	n/a	2	4	MAZE	GATE	GATE	MAZE	10	[0, 0, 0]	-999	PAL1	0	R1066P
1283.697	5.018	904007	STUDY_PAIR	n/a	2	4	MAZE	GATE	GATE	MAZE	10	[0, 0, 0]	-999	PAL1	0	R1066P
1288.715	0.817	906515	STUDY_ORIENT	n/a	3	3	CRANE	BREAD	BREAD	CRANE	10	[0, 0, 0]	-999	PAL1	0	R1066P
1289.532	5.034	906924	STUDY_PAIR	n/a	3	3	CRANE	BREAD	BREAD	CRANE	10	[0, 0, 0]	-999	PAL1	0	R1066P
1294.566	0.95	909441	STUDY_ORIENT	n/a	4	2	ROOM	n/a	ROOM	TREE	10	[0, 0, 0]	-999	PAL1	0	R1066P
1295.516	5.018	909916	STUDY_PAIR	n/a	4	2	ROOM	n/a	ROOM	TREE	10	[0, 0, 0]	-999	PAL1	0	R1066P
1300.534	0.916	912425	STUDY_ORIENT	n/a	5	5	SWAMP	n/a	BRANCH	SWAMP	10	[0, 0, 0]	-999	PAL1	0	R1066P
1301.45	5.018	912883	STUDY_PAIR	n/a	5	5	SWAMP	n/a	BRANCH	SWAMP	10	[0, 0, 0]	-999	PAL1	0	R1066P
1306.468	0.8	915391	STUDY_ORIENT	n/a	6	6	PANTS	n/a	PEACH	PANTS	10	[0, 0, 0]	-999	PAL1	0	R1066P
1307.268	4.002	915791	STUDY_PAIR	n/a	6	6	PANTS	n/a	PEACH	PANTS	10	[0, 0, 0]	-999	PAL1	0	R1066P
1311.27	0.999	917792	START	n/a	-999	-999	n/a	n/a	n/a	n/a	10	[-999, -999, -999]	-999	PAL1	0	R1066P
1312.269	0.017	918292	MATH_START	n/a	-999	-999	n/a	n/a	n/a	n/a	10	[0, 0, 0]	-999	PAL1	0	R1066P
1312.286	4.8	918300	PROB	4773	-999	-999	n/a	n/a	n/a	n/a	10	[3, 4, 5]	13	PAL1	0	R1066P
1317.086	1.601	920700	PROB	1582	-999	-999	n/a	n/a	n/a	n/a	10	[2, 1, 1]	4	PAL1	0	R1066P
1318.687	2.534	921501	PROB	2501	-999	-999	n/a	n/a	n/a	n/a	10	[5, 8, 3]	16	PAL1	0	R1066P
1321.221	3.567	922768	PROB	3543	-999	-999	n/a	n/a	n/a	n/a	10	[4, 2, 1]	7	PAL1	0	R1066P
1324.788	3.051	924551	PROB	3032	-999	-999	n/a	n/a	n/a	n/a	10	[4, 8, 8]	20	PAL1	0	R1066P
1327.839	1.567	926076	PROB	1541	-999	-999	n/a	n/a	n/a	n/a	10	[7, 7, 7]	21	PAL1	0	R1066P
1329.406	1.85	926860	PROB	1822	-999	-999	n/a	n/a	n/a	n/a	10	[5, 3, 7]	15	PAL1	0	R1066P
1331.256	3.02	927785	PROB	3020	-999	-999	n/a	n/a	n/a	n/a	10	[6, 7, 4]	17	PAL1	0	R1066P
1334.276	0.014	929295	STOP	n/a	-999	-999	n/a	n/a	n/a	n/a	10	[-999, -999, -999]	-999	PAL1	0	R1066P
1334.29	0.0	929302	MATH_END	n/a	-999	-999	n/a	n/a	n/a	n/a	10	[0, 0, 0]	-999	PAL1	0	R1066P
1334.29	0.017	929302	TEST_START	n/a	-999	-999	n/a	n/a	n/a	n/a	10	[0, 0, 0]	-999	PAL1	0	R1066P
1334.307	0.849	929310	TEST_ORIENT	n/a	1	1	TRASH	SHIRT	TRASH	SHIRT	10	[0, 0, 0]	-999	PAL1	0	R1066P
1335.156	0.001	929735	TEST_PROBE	n/a	1	1	TRASH	SHIRT	TRASH	SHIRT	10	[0, 0, 0]	-999	PAL1	0	R1066P
1335.157	1.298	929735	REC_START	n/a	1	-999	n/a	SHIRT	n/a	n/a	10	[0, 0, 0]	-999	PAL1	0	R1066P
1336.455	0.929	930384	REC_EVENT	1298	1	1	TRASH	TRASH	TRASH	SHIRT	10	[0, 0, 0]	-999	PAL1	0	R1066P
1337.384	2.782	930849	REC_EVENT	2227	1	1	TRASH	SHIRT	TRASH	SHIRT	10	[0, 0, 0]	-999	PAL1	0	R1066P
1340.166	0.008	932240	REC_END	n/a	1	-999	n/a	n/a	n/a	n/a	10	[0, 0, 0]	-999	PAL1	0	R1066P
1340.174	0.883	932244	TEST_ORIENT	n/a	4	2	ROOM	n/a	ROOM	TREE	10	[0, 0, 0]	-999	PAL1	0	R1066P
1341.057	0.001	932685	TEST_PROBE	n/a	4	2	ROOM	n/a	ROOM	TREE	10	[0, 0, 0]	-999	PAL1	0	R1066P
1341.058	5.008	932686	REC_START	n/a	4	-999	n/a	n/a	n/a	n/a	10	[0, 0, 0]	-999	PAL1	0	R1066P
1346.066	0.001	935189	REC_END	n/a	4	-999	n/a	n/a	n/a	n/a	10	[0, 0, 0]	-999	PAL1	0	R1066P
1346.067	0.008	935190	REC_EVENT	5009	4	2	ROOM	<>	ROOM	TREE	10	[0, 0, 0]	-999	PAL1	0	R1066P
1346.075	0.967	935194	TEST_ORIENT	n/a	3	3	CRANE	BREAD	BREAD	CRANE	10	[0, 0, 0]	-999	PAL1	0	R1066P
1347.042	0.0	935677	REC_START	n/a	3	-999	n/a	BREAD	n/a	n/a	10	[0, 0, 0]	-999	PAL1	0	R1066P
1347.042	1.698	935677	TEST_PROBE	n/a	3	3	CRANE	BREAD	BREAD	CRANE	10	[0, 0, 0]	-999	PAL1	0	R1066P
1348.74	0.915	936526	REC_EVENT	1698	3	3	CRANE	CRANE	BREAD	CRANE	10	[0, 0, 0]	-999	PAL1	0	R1066P
1349.655	2.404	936984	REC_EVENT	2613	3	3	CRANE	BREAD	BREAD	CRANE	10	[0, 0, 0]	-999	PAL1	0	R1066P
1352.059	0.017	938186	REC_END	n/a	3	-999	n/a	n/a	n/a	n/a	10	[0, 0, 0]	-999	PAL1	0	R1066P
1352.076	0.901	938194	TEST_ORIENT	n/a	2	4	MAZE	GATE	GATE	MAZE	10	[0, 0, 0]	-999	PAL1	0	R1066P
1352.977	0.0	938645	TEST_PROBE	n/a	2	4	MAZE	GATE	GATE	MAZE	10	[0, 0, 0]	-999	PAL1	0	R1066P
1352.977	1.804	938645	REC_START	n/a	2	-999	n/a	GATE	n/a	n/a	10	[0, 0, 0]	-999	PAL1	0	R1066P
1354.781	2.119	939547	REC_EVENT	1804	2	4	MAZE	MAZE	GATE	MAZE	10	[0, 0, 0]	-999	PAL1	0	R1066P
1356.9	1.094	940606	REC_EVENT	3923	2	4	MAZE	GATE	GATE	MAZE	10	[0, 0, 0]	-999	PAL1	0	R1066P
1357.994	0.016	941153	REC_END	n/a	2	-999	n/a	n/a	n/a	n/a	10	[0, 0, 0]	-999	PAL1	0	R1066P
1358.01	0.918	941161	TEST_ORIENT	n/a	5	5	SWAMP	n/a	BRANCH	SWAMP	10	[0, 0, 0]	-999	PAL1	0	R1066P
1358.928	0.001	941620	TEST_PROBE	n/a	5	5	SWAMP	n/a	BRANCH	SWAMP	10	[0, 0, 0]	-999	PAL1	0	R1066P
1358.929	5.009	941621	REC_START	n/a	5	-999	n/a	n/a	n/a	n/a	10	[0, 0, 0]	-999	PAL1	0	R1066P
1363.938	0.0	944125	REC_EVENT	5009	5	5	SWAMP	<>	BRANCH	SWAMP	10	[0, 0, 0]	-999	PAL1	0	R1066P
1363.938	0.008	944125	REC_END	n/a	5	-999	n/a	n/a	n/a	n/a	10	[0, 0, 0]	-999	PAL1	0	R1066P
1363.946	0.817	944129	TEST_ORIENT	n/a	6	6	PANTS	n/a	PEACH	PANTS	10	[0, 0, 0]	-999	PAL1	0	R1066P
1364.763	0.0	944537	TEST_PROBE	n/a	6	6	PANTS	n/a	PEACH	PANTS	10	[0, 0, 0]	-999	PAL1	0	R1066P
1364.763	5.015	944537	REC_START	n/a	6	-999	n/a	n/a	n/a	n/a	10	[0, 0, 0]	-999	PAL1	0	R1066P
1369.778	0.002	947045	REC_EVENT	5015	6	6	PANTS	<>	PEACH	PANTS	10	[0, 0, 0]	-999	PAL1	0	R1066P
1369.78	12.92	947046	REC_END	n/a	6	-999	n/a	n/a	n/a	n/a	10	[0, 0, 0]	-999	PAL1	0	R1066P
1382.7	10.451	953505	ENCODING_START	n/a	0	-999	n/a	n/a	n/a	n/a	11	[0, 0, 0]	-999	PAL1	0	R1066P
1393.151	0.95	958731	STUDY_ORIENT	n/a	1	3	SPRING	n/a	CART	SPRING	11	[0, 0, 0]	-999	PAL1	0	R1066P
1394.101	5.034	959206	STUDY_PAIR	n/a	1	3	SPRING	n/a	CART	SPRING	11	[0, 0, 0]	-999	PAL1	0	R1066P
1399.135	0.818	961723	STUDY_ORIENT	n/a	2	4	HORSE	WHEEL	HORSE	WHEEL	11	[0, 0, 0]	-999	PAL1	0	R1066P
1399.953	5.033	962132	STUDY_PAIR	n/a	2	4	HORSE	WHEEL	HORSE	WHEEL	11	[0, 0, 0]	-999	PAL1	0	R1066P
1404.986	0.885	964648	STUDY_ORIENT	n/a	3	1	SKUNK	HOLE	SKUNK	HOLE	11	[0, 0, 0]	-999	PAL1	0	R1066P
1405.871	5.034	965090	STUDY_PAIR	n/a	3	1	SKUNK	HOLE	SKUNK	HOLE	11	[0, 0, 0]	-999	PAL1	0	R1066P
1410.905	0.867	967607	STUDY_ORIENT	n/a	4	6	STORE	n/a	TRUCK	STORE	11	[0, 0, 0]	-999	PAL1	0	R1066P
1411.772	5.034	968041	STUDY_PAIR	n/a	4	6	STORE	n/a	TRUCK	STORE	11	[0, 0, 0]	-999	PAL1	0	R1066P
1416.806	0.834	970558	STUDY_ORIENT	n/a	5	5	CORD	n/a	CORD	FOOT	11	[0, 0, 0]	-999	PAL1	0	R1066P
1417.64	5.034	970975	STUDY_PAIR	n/a	5	5	CORD	n/a	CORD	FOOT	11	[0, 0, 0]	-999	PAL1	0	R1066P
1422.674	0.85	973491	STUDY_ORIENT	n/a	6	2	SPOON	n/a	DRESS	SPOON	11	[0, 0, 0]	-999	PAL1	0	R1066P
1423.524	4.002	973916	STUDY_PAIR	n/a	6	2	SPOON	n/a	DRESS	SPOON	11	[0, 0, 0]	-999	PAL1	0	R1066P
1427.526	0.999	975917	START	n/a	-999	-999	n/a	n/a	n/a	n/a	11	[-999, -999, -999]	-999	PAL1	0	R1066P
1428.525	0.017	976417	MATH_START	n/a	-999	-999	n/a	n/a	n/a	n/a	11	[0, 0, 0]	-999	PAL1	0	R1066P
1428.542	3.483	976425	PROB	3461	-999	-999	n/a	n/a	n/a	n/a	11	[5, 4, 4]	13	PAL1	0	R1066P
1432.025	2.951	978167	PROB	2923	-999	-999	n/a	n/a	n/a	n/a	11	[4, 3, 6]	14	PAL1	0	R1066P
1434.976	1.884	979642	PROB	1852	-999	-999	n/a	n/a	n/a	n/a	11	[6, 4, 4]	14	PAL1	0	R1066P
1436.86	2.249	980584	PROB	2231	-999	-999	n/a	n/a	n/a	n/a	11	[7, 7, 2]	16	PAL1	0	R1066P
1439.109	2.402	981709	PROB	2367	-999	-999	n/a	n/a	n/a	n/a	11	[7, 6, 9]	23	PAL1	0	R1066P
1441.511	3.017	982909	PROB	2997	-999	-999	n/a	n/a	n/a	n/a	11	[4, 1, 8]	13	PAL1	0	R1066P
1444.528	2.151	984418	PROB	2116	-999	-999	n/a	n/a	n/a	n/a	11	[9, 9, 5]	23	PAL1	0	R1066P
1446.679	5.125	985493	PROB	5125	-999	-999	n/a	n/a	n/a	n/a	11	[7, 9, 7]	23	PAL1	0	R1066P
1451.804	0.009	988056	STOP	n/a	-999	-999	n/a	n/a	n/a	n/a	11	[-999, -999, -999]	-999	PAL1	0	R1066P
1451.813	0.0	988060	TEST_START	n/a	-999	-999	n/a	n/a	n/a	n/a	11	[0, 0, 0]	-999	PAL1	0	R1066P
1451.813	0.017	988060	MATH_END	n/a	-999	-999	n/a	n/a	n/a	n/a	11	[0, 0, 0]	-999	PAL1	0	R1066P
1451.83	0.8	988069	TEST_ORIENT	n/a	3	1	SKUNK	HOLE	SKUNK	HOLE	11	[0, 0, 0]	-999	PAL1	0	R1066P
1452.63	0.0	988469	TEST_PROBE	n/a	3	1	SKUNK	HOLE	SKUNK	HOLE	11	[0, 0, 0]	-999	PAL1	0	R1066P
1452.63	1.399	988469	REC_START	n/a	3	-999	n/a	HOLE	n/a	n/a	11	[0, 0, 0]	-999	PAL1	0	R1066P
1454.029	1.357	989168	REC_EVENT	1399	3	1	SKUNK	SKUNK	SKUNK	HOLE	11	[0, 0, 0]	-999	PAL1	0	R1066P
1455.386	2.261	989847	REC_EVENT	2756	3	1	SKUNK	HOLE	SKUNK	HOLE	11	[0, 0, 0]	-999	PAL1	0	R1066P
1457.647	0.004	990977	REC_END	n/a	3	-999	n/a	n/a	n/a	n/a	11	[0, 0, 0]	-999	PAL1	0	R1066P
1457.651	0.013	990979	REC_EVENT	5021	3	1	SKUNK	<>	SKUNK	HOLE	11	[0, 0, 0]	-999	PAL1	0	R1066P
1457.664	0.984	990986	TEST_ORIENT	n/a	6	2	SPOON	n/a	DRESS	SPOON	11	[0, 0, 0]	-999	PAL1	0	R1066P
1458.648	0.0	991478	REC_START	n/a	6	-999	n/a	n/a	n/a	n/a	11	[0, 0, 0]	-999	PAL1	0	R1066P
1458.648	1.338	991478	TEST_PROBE	n/a	6	2	SPOON	n/a	DRESS	SPOON	11	[0, 0, 0]	-999	PAL1	0	R1066P
1459.986	3.607	992147	REC_EVENT	1338	6	2	SPOON	<>	DRESS	SPOON	11	[0, 0, 0]	-999	PAL1	0	R1066P
1463.593	0.072	993950	REC_EVENT	4945	6	2	SPOON	<>	DRESS	SPOON	11	[0, 0, 0]	-999	PAL1	0	R1066P
1463.665	0.017	993986	REC_END	n/a	6	-999	n/a	n/a	n/a	n/a	11	[0, 0, 0]	-999	PAL1	0	R1066P
1463.682	0.95	993994	TEST_ORIENT	n/a	1	3	SPRING	n/a	CART	SPRING	11	[0, 0, 0]	-999	PAL1	0	R1066P
1464.632	0.0	994469	TEST_PROBE	n/a	1	3	SPRING	n/a	CART	SPRING	11	[0, 0, 0]	-999	PAL1	0	R1066P
1464.632	1.415	994469	REC_START	n/a	1	-999	n/a	n/a	n/a	n/a	11	[0, 0, 0]	-999	PAL1	0	R1066P
1466.047	1.341	995177	REC_EVENT	1415	1	3	SPRING	<>	CART	SPRING	11	[0, 0, 0]	-999	PAL1	0	R1066P
1467.388	2.261	995847	REC_EVENT	2756	1	3	SPRING	<>	CART	SPRING	11	[0, 0, 0]	-999	PAL1	0	R1066P
1469.649	0.017	996978	REC_END	n/a	1	-999	n/a	n/a	n/a	n/a	11	[0, 0, 0]	-999	PAL1	0	R1066P
1469.666	0.934	996986	TEST_ORIENT	n/a	2	4	HORSE	WHEEL	HORSE	WHEEL	11	[0, 0, 0]	-999	PAL1	0	R1066P
1470.6	0.0	997453	TEST_PROBE	n/a	2	4	HORSE	WHEEL	HORSE	WHEEL	11	[0, 0, 0]	-999	PAL1	0	R1066P
1470.6	1.033	997453	REC_START	n/a	2	-999	n/a	WHEEL	n/a	n/a	11	[0, 0, 0]	-999	PAL1	0	R1066P
1471.633	0.668	997970	REC_EVENT	1033	2	4	HORSE	HORSE	HORSE	WHEEL	11	[0, 0, 0]	-999	PAL1	0	R1066P
1472.301	3.316	998304	REC_EVENT	1701	2	4	HORSE	WHEEL	HORSE	WHEEL	11	[0, 0, 0]	-999	PAL1	0	R1066P
1475.617	0.017	999962	REC_END	n/a	2	-999	n/a	n/a	n/a	n/a	11	[0, 0, 0]	-999	PAL1	0	R1066P
1475.634	0.967	999970	TEST_ORIENT	n/a	5	5	CORD	n/a	CORD	FOOT	11	[0, 0, 0]	-999	PAL1	0	R1066P
1476.601	0.0	1000454	TEST_PROBE	n/a	5	5	CORD	n/a	CORD	FOOT	11	[0, 0, 0]	-999	PAL1	0	R1066P
1476.601	5.015	1000454	REC_START	n/a	5	-999	n/a	n/a	n/a	n/a	11	[0, 0, 0]	-999	PAL1	0	R1066P
1481.616	0.002	1002961	REC_EVENT	5015	5	5	CORD	<>	CORD	FOOT	11	[0, 0, 0]	-999	PAL1	0	R1066P
1481.618	0.017	1002962	REC_END	n/a	5	-999	n/a	n/a	n/a	n/a	11	[0, 0, 0]	-999	PAL1	0	R1066P
1481.635	0.9	1002970	TEST_ORIENT	n/a	4	6	STORE	n/a	TRUCK	STORE	11	[0, 0, 0]	-999	PAL1	0	R1066P
1482.535	0.001	1003420	TEST_PROBE	n/a	4	6	STORE	n/a	TRUCK	STORE	11	[0, 0, 0]	-999	PAL1	0	R1066P
1482.536	5.008	1003421	REC_START	n/a	4	-999	n/a	n/a	n/a	n/a	11	[0, 0, 0]	-999	PAL1	0	R1066P
1487.544	0.001	1005925	REC_END	n/a	4	-999	n/a	n/a	n/a	n/a	11	[0, 0, 0]	-999	PAL1	0	R1066P
1487.545	2.011	1005925	REC_EVENT	5009	4	6	STORE	<>	TRUCK	STORE	11	[0, 0, 0]	-999	PAL1	0	R1066P
1489.556	10.448	1006931	ENCODING_START	n/a	0	-999	n/a	n/a	n/a	n/a	12	[0, 0, 0]	-999	PAL1	0	R1066P
1500.004	0.952	1012154	STUDY_ORIENT	n/a	1	3	GRAPE	n/a	OAK	GRAPE	12	[0, 0, 0]	-999	PAL1	0	R1066P
1500.956	5.033	1012630	STUDY_PAIR	n/a	1	3	GRAPE	n/a	OAK	GRAPE	12	[0, 0, 0]	-999	PAL1	0	R1066P
1505.989	0.951	1015147	STUDY_ORIENT	n/a	2	2	CHAIR	BEE	CHAIR	BEE	12	[0, 0, 0]	-999	PAL1	0	R1066P
1506.94	5.018	1015622	STUDY_PAIR	n/a	2	2	CHAIR	BEE	CHAIR	BEE	12	[0, 0, 0]	-999	PAL1	0	R1066P
1511.958	0.783	1018131	STUDY_ORIENT	n/a	3	1	STAIR	n/a	STAIR	TEA	12	[0, 0, 0]	-999	PAL1	0	R1066P
1512.741	5.018	1018523	STUDY_PAIR	n/a	3	1	STAIR	n/a	STAIR	TEA	12	[0, 0, 0]	-999	PAL1	0	R1066P
1517.759	0.883	1021032	STUDY_ORIENT	n/a	4	6	BRUSH	n/a	FUDGE	BRUSH	12	[0, 0, 0]	-999	PAL1	0	R1066P
1518.642	5.018	1021473	STUDY_PAIR	n/a	4	6	BRUSH	n/a	FUDGE	BRUSH	12	[0, 0, 0]	-999	PAL1	0	R1066P
1523.66	0.85	1023982	STUDY_ORIENT	n/a	5	5	LAWN	n/a	ROOF	LAWN	12	[0, 0, 0]	-999	PAL1	0	R1066P
1524.51	5.018	1024407	STUDY_PAIR	n/a	5	5	LAWN	n/a	ROOF	LAWN	12	[0, 0, 0]	-999	PAL1	0	R1066P
1529.528	0.983	1026916	STUDY_ORIENT	n/a	6	4	RIB	n/a	RIB	WING	12	[0, 0, 0]	-999	PAL1	0	R1066P
1530.511	4.001	1027407	STUDY_PAIR	n/a	6	4	RIB	n/a	RIB	WING	12	[0, 0, 0]	-999	PAL1	0	R1066P
1534.512	1.0	1029408	START	n/a	-999	-999	n/a	n/a	n/a	n/a	12	[-999, -999, -999]	-999	PAL1	0	R1066P
1535.512	0.017	1029908	MATH_START	n/a	-999	-999	n/a	n/a	n/a	n/a	12	[0, 0, 0]	-999	PAL1	0	R1066P
1535.529	4.101	1029916	PROB	4075	-999	-999	n/a	n/a	n/a	n/a	12	[7, 5, 9]	2	PAL1	0	R1066P
1539.63	2.533	1031966	PROB	2501	-999	-999	n/a	n/a	n/a	n/a	12	[2, 6, 3]	11	PAL1	0	R1066P
1542.163	2.017	1033233	PROB	1992	-999	-999	n/a	n/a	n/a	n/a	12	[9, 1, 7]	17	PAL1	0	R1066P
1544.18	2.685	1034241	PROB	2664	-999	-999	n/a	n/a	n/a	n/a	12	[3, 8, 8]	19	PAL1	0	R1066P
1546.865	3.634	1035584	PROB	3603	-999	-999	n/a	n/a	n/a	n/a	12	[3, 3, 1]	7	PAL1	0	R1066P
1550.499	2.017	1037401	PROB	1993	-999	-999	n/a	n/a	n/a	n/a	12	[1, 4, 2]	7	PAL1	0	R1066P
1552.516	2.824	1038409	PROB	2824	-999	-999	n/a	n/a	n/a	n/a	12	[4, 8, 2]	14	PAL1	0	R1066P
1555.34	0.009	1039821	STOP	n/a	-999	-999	n/a	n/a	n/a	n/a	12	[-999, -999, -999]	-999	PAL1	0	R1066P
1555.349	0.0	1039826	MATH_END	n/a	-999	-999	n/a	n/a	n/a	n/a	12	[0, 0, 0]	-999	PAL1	0	R1066P
1555.349	0.017	1039826	TEST_START	n/a	-999	-999	n/a	n/a	n/a	n/a	12	[0, 0, 0]	-999	PAL1	0	R1066P
1555.366	0.816	1039834	TEST_ORIENT	n/a	3	1	STAIR	n/a	STAIR	TEA	12	[0, 0, 0]	-999	PAL1	0	R1066P
1556.182	0.002	1040242	TEST_PROBE	n/a	3	1	STAIR	n/a	STAIR	TEA	12	[0, 0, 0]	-999	PAL1	0	R1066P
1556.184	5.015	1040243	REC_START	n/a	3	-999	n/a	n/a	n/a	n/a	12	[0, 0, 0]	-999	PAL1	0	R1066P
1561.199	0.001	1042750	REC_EVENT	5015	3	1	STAIR	<>	STAIR	TEA	12	[0, 0, 0]	-999	PAL1	0	R1066P
1561.2	0.017	1042751	REC_END	n/a	3	-999	n/a	n/a	n/a	n/a	12	[0, 0, 0]	-999	PAL1	0	R1066P
1561.217	1.017	1042759	TEST_ORIENT	n/a	2	2	CHAIR	BEE	CHAIR	BEE	12	[0, 0, 0]	-999	PAL1	0	R1066P
1562.234	0.0	1043268	TEST_PROBE	n/a	2	2	CHAIR	BEE	CHAIR	BEE	12	[0, 0, 0]	-999	PAL1	0	R1066P
1562.234	1.366	1043268	REC_START	n/a	2	-999	n/a	BEE	n/a	n/a	12	[0, 0, 0]	-999	PAL1	0	R1066P
1563.6	0.987	1043951	REC_EVENT	1366	2	2	CHAIR	CHAIR	CHAIR	BEE	12	[0, 0, 0]	-999	PAL1	0	R1066P
1564.587	2.665	1044444	REC_EVENT	2353	2	2	CHAIR	BEE	CHAIR	BEE	12	[0, 0, 0]	-999	PAL1	0	R1066P
1567.252	0.016	1045777	REC_END	n/a	2	-999	n/a	n/a	n/a	n/a	12	[0, 0, 0]	-999	PAL1	0	R1066P
1567.268	0.85	1045785	TEST_ORIENT	n/a	1	3	GRAPE	n/a	OAK	GRAPE	12	[0, 0, 0]	-999	PAL1	0	R1066P
1568.118	0.0	1046210	TEST_PROBE	n/a	1	3	GRAPE	n/a	OAK	GRAPE	12	[0, 0, 0]	-999	PAL1	0	R1066P
1568.118	5.015	1046210	REC_START	n/a	1	-999	n/a	n/a	n/a	n/a	12	[0, 0, 0]	-999	PAL1	0	R1066P
1573.133	0.002	1048717	REC_EVENT	5015	1	3	GRAPE	<>	OAK	GRAPE	12	[0, 0, 0]	-999	PAL1	0	R1066P
1573.135	0.017	1048718	REC_END	n/a	1	-999	n/a	n/a	n/a	n/a	12	[0, 0, 0]	-999	PAL1	0	R1066P
1573.152	0.884	1048727	TEST_ORIENT	n/a	6	4	RIB	n/a	RIB	WING	12	[0, 0, 0]	-999	PAL1	0	R1066P
1574.036	0.0	1049169	TEST_PROBE	n/a	6	4	RIB	n/a	RIB	WING	12	[0, 0, 0]	-999	PAL1	0	R1066P
1574.036	5.015	1049169	REC_START	n/a	6	-999	n/a	n/a	n/a	n/a	12	[0, 0, 0]	-999	PAL1	0	R1066P
1579.051	0.002	1051676	REC_EVENT	5015	6	4	RIB	<>	RIB	WING	12	[0, 0, 0]	-999	PAL1	0	R1066P
1579.053	0.017	1051677	REC_END	n/a	6	-999	n/a	n/a	n/a	n/a	12	[0, 0, 0]	-999	PAL1	0	R1066P
1579.07	0.983	1051685	TEST_ORIENT	n/a	5	5	LAWN	n/a	ROOF	LAWN	12	[0, 0, 0]	-999	PAL1	0	R1066P
1580.053	0.001	1052177	TEST_PROBE	n/a	5	5	LAWN	n/a	ROOF	LAWN	12	[0, 0, 0]	-999	PAL1	0	R1066P
1580.054	5.008	1052177	REC_START	n/a	5	-999	n/a	n/a	n/a	n/a	12	[0, 0, 0]	-999	PAL1	0	R1066P
1585.062	0.001	1054681	REC_END	n/a	5	-999	n/a	n/a	n/a	n/a	12	[0, 0, 0]	-999	PAL1	0	R1066P
1585.063	0.008	1054682	REC_EVENT	5009	5	5	LAWN	<>	ROOF	LAWN	12	[0, 0, 0]	-999	PAL1	0	R1066P
1585.071	0.967	1054686	TEST_ORIENT	n/a	4	6	BRUSH	n/a	FUDGE	BRUSH	12	[0, 0, 0]	-999	PAL1	0	R1066P
1586.038	0.0	1055169	TEST_PROBE	n/a	4	6	BRUSH	n/a	FUDGE	BRUSH	12	[0, 0, 0]	-999	PAL1	0	R1066P
1586.038	5.015	1055169	REC_START	n/a	4	-999	n/a	n/a	n/a	n/a	12	[0, 0, 0]	-999	PAL1	0	R1066P
1591.053	0.002	1057677	REC_EVENT	5015	4	6	BRUSH	<>	FUDGE	BRUSH	12	[0, 0, 0]	-999	PAL1	0	R1066P
1591.055	4.052	1057678	REC_END	n/a	4	-999	n/a	n/a	n/a	n/a	12	[0, 0, 0]	-999	PAL1	0	R1066P
1595.107	10.452	1059704	ENCODING_START	n/a	0	-999	n/a	n/a	n/a	n/a	13	[0, 0, 0]	-999	PAL1	0	R1066P
1605.559	0.934	1064929	STUDY_ORIENT	n/a	1	3	CAT	n/a	CAPE	CAT	13	[0, 0, 0]	-999	PAL1	0	R1066P
1606.493	5.034	1065396	STUDY_PAIR	n/a	1	3	CAT	n/a	CAPE	CAT	13	[0, 0, 0]	-999	PAL1	0	R1066P
1611.527	1.017	1067913	STUDY_ORIENT	n/a	2	4	WEB	HOOK	WEB	HOOK	13	[0, 0, 0]	-999	PAL1	0	R1066P
1612.544	5.034	1068422	STUDY_PAIR	n/a	2	4	WEB	HOOK	WEB	HOOK	13	[0, 0, 0]	-999	PAL1	0	R1066P
1617.578	0.85	1070938	STUDY_ORIENT	n/a	3	5	SLIME	CAT	SLIME	CHIN	13	[0, 0, 0]	-999	PAL1	0	R1066P
1618.428	5.018	1071363	STUDY_PAIR	n/a	3	5	SLIME	CAT	SLIME	CHIN	13	[0, 0, 0]	-999	PAL1	0	R1066P
1623.446	0.95	1073872	STUDY_ORIENT	n/a	4	6	DART	n/a	DART	ARK	13	[0, 0, 0]	-999	PAL1	0	R1066P
1624.396	5.018	1074347	STUDY_PAIR	n/a	4	6	DART	n/a	DART	ARK	13	[0, 0, 0]	-999	PAL1	0	R1066P
1629.414	0.817	1076856	STUDY_ORIENT	n/a	5	1	GUARD	BEAN	GUARD	BEAN	13	[0, 0, 0]	-999	PAL1	0	R1066P
1630.231	5.034	1077265	STUDY_PAIR	n/a	5	1	GUARD	BEAN	GUARD	BEAN	13	[0, 0, 0]	-999	PAL1	0	R1066P
1635.265	0.95	1079782	STUDY_ORIENT	n/a	6	2	GOLD	n/a	TOOL	GOLD	13	[0, 0, 0]	-999	PAL1	0	R1066P
1636.215	4.018	1080257	STUDY_PAIR	n/a	6	2	GOLD	n/a	TOOL	GOLD	13	[0, 0, 0]	-999	PAL1	0	R1066P
1640.233	0.999	1082265	START	n/a	-999	-999	n/a	n/a	n/a	n/a	13	[-999, -999, -999]	-999	PAL1	0	R1066P
1641.232	0.017	1082765	MATH_START	n/a	-999	-999	n/a	n/a	n/a	n/a	13	[0, 0, 0]	-999	PAL1	0	R1066P
1641.249	3.618	1082773	PROB	3595	-999	-999	n/a	n/a	n/a	n/a	13	[1, 8, 6]	15	PAL1	0	R1066P
1644.867	2.149	1084582	PROB	2120	-999	-999	n/a	n/a	n/a	n/a	13	[4, 6, 4]	14	PAL1	0	R1066P
1647.016	4.151	1085657	PROB	4123	-999	-999	n/a	n/a	n/a	n/a	13	[9, 9, 7]	16	PAL1	0	R1066P
1651.167	2.551	1087732	PROB	2533	-999	-999	n/a	n/a	n/a	n/a	13	[4, 9, 8]	23	PAL1	0	R1066P
1653.718	3.45	1089008	PROB	3429	-999	-999	n/a	n/a	n/a	n/a	13	[9, 7, 4]	20	PAL1	0	R1066P
1657.168	2.452	1090732	PROB	2420	-999	-999	n/a	n/a	n/a	n/a	13	[2, 3, 9]	14	PAL1	0	R1066P
1659.62	2.343	1091958	PROB	2343	-999	-999	n/a	n/a	n/a	n/a	13	[8, 9, 3]	20	PAL1	0	R1066P
1661.963	0.007	1093130	STOP	n/a	-999	-999	n/a	n/a	n/a	n/a	13	[-999, -999, -999]	-999	PAL1	0	R1066P
1661.97	0.0	1093133	MATH_END	n/a	-999	-999	n/a	n/a	n/a	n/a	13	[0, 0, 0]	-999	PAL1	0	R1066P
1661.97	0.016	1093133	TEST_START	n/a	-999	-999	n/a	n/a	n/a	n/a	13	[0, 0, 0]	-999	PAL1	0	R1066P
1661.986	0.867	1093141	TEST_ORIENT	n/a	5	1	GUARD	BEAN	GUARD	BEAN	13	[0, 0, 0]	-999	PAL1	0	R1066P
1662.853	0.001	1093575	TEST_PROBE	n/a	5	1	GUARD	BEAN	GUARD	BEAN	13	[0, 0, 0]	-999	PAL1	0	R1066P
1662.854	1.154	1093575	REC_START	n/a	5	-999	n/a	BEAN	n/a	n/a	13	[0, 0, 0]	-999	PAL1	0	R1066P
1664.008	3.849	1094152	REC_EVENT	1154	5	1	GUARD	BEAN	GUARD	BEAN	13	[0, 0, 0]	-999	PAL1	0	R1066P
1667.857	0.005	1096077	REC_EVENT	5003	5	1	GUARD	<>	GUARD	BEAN	13	[0, 0, 0]	-999	PAL1	0	R1066P
1667.862	0.009	1096079	REC_END	n/a	5	-999	n/a	n/a	n/a	n/a	13	[0, 0, 0]	-999	PAL1	0	R1066P
1667.871	1.017	1096084	TEST_ORIENT	n/a	6	2	GOLD	n/a	TOOL	GOLD	13	[0, 0, 0]	-999	PAL1	0	R1066P
1668.888	0.001	1096592	TEST_PROBE	n/a	6	2	GOLD	n/a	TOOL	GOLD	13	[0, 0, 0]	-999	PAL1	0	R1066P
1668.889	5.015	1096593	REC_START	n/a	6	-999	n/a	n/a	n/a	n/a	13	[0, 0, 0]	-999	PAL1	0	R1066P
1673.904	0.001	1099100	REC_EVENT	5015	6	2	GOLD	<>	TOOL	GOLD	13	[0, 0, 0]	-999	PAL1	0	R1066P
1673.905	0.017	1099101	REC_END	n/a	6	-999	n/a	n/a	n/a	n/a	13	[0, 0, 0]	-999	PAL1	0	R1066P
1673.922	0.884	1099109	TEST_ORIENT	n/a	1	3	CAT	n/a	CAPE	CAT	13	[0, 0, 0]	-999	PAL1	0	R1066P
1674.806	0.0	1099551	TEST_PROBE	n/a	1	3	CAT	n/a	CAPE	CAT	13	[0, 0, 0]	-999	PAL1	0	R1066P
1674.806	5.015	1099551	REC_START	n/a	1	-999	n/a	n/a	n/a	n/a	13	[0, 0, 0]	-999	PAL1	0	R1066P
1679.821	0.002	1102058	REC_EVENT	5015	1	3	CAT	<>	CAPE	CAT	13	[0, 0, 0]	-999	PAL1	0	R1066P
1679.823	0.017	1102059	REC_END	n/a	1	-999	n/a	n/a	n/a	n/a	13	[0, 0, 0]	-999	PAL1	0	R1066P
1679.84	1.0	1102068	TEST_ORIENT	n/a	2	4	WEB	HOOK	WEB	HOOK	13	[0, 0, 0]	-999	PAL1	0	R1066P
1680.84	0.001	1102568	TEST_PROBE	n/a	2	4	WEB	HOOK	WEB	HOOK	13	[0, 0, 0]	-999	PAL1	0	R1066P
1680.841	1.571	1102568	REC_START	n/a	2	-999	n/a	HOOK	n/a	n/a	13	[0, 0, 0]	-999	PAL1	0	R1066P
1682.412	0.389	1103354	REC_EVENT	1571	2	4	WEB	WEB	WEB	HOOK	13	[0, 0, 0]	-999	PAL1	0	R1066P
1682.801	3.049	1103548	REC_EVENT	1960	2	4	WEB	HOOK	WEB	HOOK	13	[0, 0, 0]	-999	PAL1	0	R1066P
1685.85	0.008	1105073	REC_END	n/a	2	-999	n/a	n/a	n/a	n/a	13	[0, 0, 0]	-999	PAL1	0	R1066P
1685.858	0.983	1105077	TEST_ORIENT	n/a	3	5	SLIME	CAT	SLIME	CHIN	13	[0, 0, 0]	-999	PAL1	0	R1066P
1686.841	0.001	1105568	TEST_PROBE	n/a	3	5	SLIME	CAT	SLIME	CHIN	13	[0, 0, 0]	-999	PAL1	0	R1066P
1686.842	1.701	1105569	REC_START	n/a	3	-999	n/a	CAT	n/a	n/a	13	[0, 0, 0]	-999	PAL1	0	R1066P
1688.543	0.683	1106419	REC_EVENT	1701	3	5	SLIME	SLIME	SLIME	CHIN	13	[0, 0, 0]	-999	PAL1	0	R1066P
1689.226	2.625	1106761	REC_EVENT	2384	3	5	SLIME	CAT	SLIME	CHIN	13	[0, 0, 0]	-999	PAL1	0	R1066P
1691.851	0.008	1108073	REC_END	n/a	3	-999	n/a	n/a	n/a	n/a	13	[0, 0, 0]	-999	PAL1	0	R1066P
1691.859	0.817	1108077	TEST_ORIENT	n/a	4	6	DART	n/a	DART	ARK	13	[0, 0, 0]	-999	PAL1	0	R1066P
1692.676	0.0	1108486	TEST_PROBE	n/a	4	6	DART	n/a	DART	ARK	13	[0, 0, 0]	-999	PAL1	0	R1066P
1692.676	5.015	1108486	REC_START	n/a	4	-999	n/a	n/a	n/a	n/a	13	[0, 0, 0]	-999	PAL1	0	R1066P
1697.691	0.002	1110993	REC_EVENT	5015	4	6	DART	<>	DART	ARK	13	[0, 0, 0]	-999	PAL1	0	R1066P
1697.693	7.687	1110994	REC_END	n/a	4	-999	n/a	n/a	n/a	n/a	13	[0, 0, 0]	-999	PAL1	0	R1066P
1705.38	10.45	1114837	ENCODING_START	n/a	0	-999	n/a	n/a	n/a	n/a	14	[0, 0, 0]	-999	PAL1	0	R1066P
1715.83	0.867	1120062	STUDY_ORIENT	n/a	1	1	STRAW	n/a	SMILE	STRAW	14	[0, 0, 0]	-999	PAL1	0	R1066P
1716.697	5.018	1120495	STUDY_PAIR	n/a	1	1	STRAW	n/a	SMILE	STRAW	14	[0, 0, 0]	-999	PAL1	0	R1066P
1721.715	0.9	1123004	STUDY_ORIENT	n/a	2	4	BED	n/a	FLUTE	BED	14	[0, 0, 0]	-999	PAL1	0	R1066P
1722.615	5.034	1123454	STUDY_PAIR	n/a	2	4	BED	n/a	FLUTE	BED	14	[0, 0, 0]	-999	PAL1	0	R1066P
1727.649	0.817	1125971	STUDY_ORIENT	n/a	3	5	DOG	BED	CLOCK	DOG	14	[0, 0, 0]	-999	PAL1	0	R1066P
1728.466	5.018	1126380	STUDY_PAIR	n/a	3	5	DOG	BED	CLOCK	DOG	14	[0, 0, 0]	-999	PAL1	0	R1066P
1733.484	0.917	1128889	STUDY_ORIENT	n/a	4	2	CUBE	n/a	CUBE	HILL	14	[0, 0, 0]	-999	PAL1	0	R1066P
1734.401	5.034	1129347	STUDY_PAIR	n/a	4	2	CUBE	n/a	CUBE	HILL	14	[0, 0, 0]	-999	PAL1	0	R1066P
1739.435	0.95	1131864	STUDY_ORIENT	n/a	5	3	ROCK	ROCK	FOG	ROCK	14	[0, 0, 0]	-999	PAL1	0	R1066P
1740.385	5.018	1132339	STUDY_PAIR	n/a	5	3	ROCK	ROCK	FOG	ROCK	14	[0, 0, 0]	-999	PAL1	0	R1066P
1745.403	0.95	1134848	STUDY_ORIENT	n/a	6	6	BOX	n/a	BOX	STEAM	14	[0, 0, 0]	-999	PAL1	0	R1066P
1746.353	4.018	1135323	STUDY_PAIR	n/a	6	6	BOX	n/a	BOX	STEAM	14	[0, 0, 0]	-999	PAL1	0	R1066P
1750.371	0.999	1137332	START	n/a	-999	-999	n/a	n/a	n/a	n/a	14	[-999, -999, -999]	-999	PAL1	0	R1066P
1751.37	0.017	1137831	MATH_START	n/a	-999	-999	n/a	n/a	n/a	n/a	14	[0, 0, 0]	-999	PAL1	0	R1066P
1751.387	3.018	1137840	PROB	2985	-999	-999	n/a	n/a	n/a	n/a	14	[3, 3, 4]	10	PAL1	0	R1066P
1754.405	1.615	1139348	PROB	1582	-999	-999	n/a	n/a	n/a	n/a	14	[1, 2, 8]	11	PAL1	0	R1066P
1756.02	2.067	1140156	PROB	2047	-999	-999	n/a	n/a	n/a	n/a	14	[1, 9, 4]	14	PAL1	0	R1066P
1758.087	2.202	1141189	PROB	2173	-999	-999	n/a	n/a	n/a	n/a	14	[5, 4, 9]	18	PAL1	0	R1066P
1760.289	2.167	1142290	PROB	2147	-999	-999	n/a	n/a	n/a	n/a	14	[7, 4, 8]	19	PAL1	0	R1066P
1762.456	3.517	1143374	PROB	3484	-999	-999	n/a	n/a	n/a	n/a	14	[9, 4, 4]	17	PAL1	0	R1066P
1765.973	2.367	1145132	PROB	2335	-999	-999	n/a	n/a	n/a	n/a	14	[8, 2, 6]	16	PAL1	0	R1066P
1768.34	2.184	1146316	PROB	2184	-999	-999	n/a	n/a	n/a	n/a	14	[6, 6, 3]	15	PAL1	0	R1066P
1770.524	0.017	1147408	STOP	n/a	-999	-999	n/a	n/a	n/a	n/a	14	[-999, -999, -999]	-999	PAL1	0	R1066P
1770.541	0.0	1147416	MATH_END	n/a	-999	-999	n/a	n/a	n/a	n/a	14	[0, 0, 0]	-999	PAL1	0	R1066P
1770.541	0.017	1147416	TEST_START	n/a	-999	-999	n/a	n/a	n/a	n/a	14	[0, 0, 0]	-999	PAL1	0	R1066P
1770.558	0.966	1147425	TEST_ORIENT	n/a	1	1	STRAW	n/a	SMILE	STRAW	14	[0, 0, 0]	-999	PAL1	0	R1066P
1771.524	0.001	1147908	TEST_PROBE	n/a	1	1	STRAW	n/a	SMILE	STRAW	14	[0, 0, 0]	-999	PAL1	0	R1066P
1771.525	3.33	1147908	REC_START	n/a	1	-999	n/a	n/a	n/a	n/a	14	[0, 0, 0]	-999	PAL1	0	R1066P
1774.855	1.679	1149573	REC_EVENT	3330	1	1	STRAW	<>	SMILE	STRAW	14	[0, 0, 0]	-999	PAL1	0	R1066P
1776.534	0.008	1150412	REC_END	n/a	1	-999	n/a	n/a	n/a	n/a	14	[0, 0, 0]	-999	PAL1	0	R1066P
1776.542	0.867	1150416	TEST_ORIENT	n/a	4	2	CUBE	n/a	CUBE	HILL	14	[0, 0, 0]	-999	PAL1	0	R1066P
1777.409	0.0	1150850	REC_START	n/a	4	-999	n/a	n/a	n/a	n/a	14	[0, 0, 0]	-999	PAL1	0	R1066P
1777.409	5.015	1150850	TEST_PROBE	n/a	4	2	CUBE	n/a	CUBE	HILL	14	[0, 0, 0]	-999	PAL1	0	R1066P
1782.424	0.002	1153357	REC_EVENT	5015	4	2	CUBE	<>	CUBE	HILL	14	[0, 0, 0]	-999	PAL1	0	R1066P
1782.426	0.017	1153358	REC_END	n/a	4	-999	n/a	n/a	n/a	n/a	14	[0, 0, 0]	-999	PAL1	0	R1066P
1782.443	0.8	1153367	TEST_ORIENT	n/a	5	3	ROCK	ROCK	FOG	ROCK	14	[0, 0, 0]	-999	PAL1	0	R1066P
1783.243	0.001	1153767	TEST_PROBE	n/a	5	3	ROCK	ROCK	FOG	ROCK	14	[0, 0, 0]	-999	PAL1	0	R1066P
1783.244	1.455	1153767	REC_START	n/a	5	-999	n/a	ROCK	n/a	n/a	14	[0, 0, 0]	-999	PAL1	0	R1066P
1784.699	1.735	1154495	REC_EVENT	1455	5	3	ROCK	FOG	FOG	ROCK	14	[0, 0, 0]	-999	PAL1	0	R1066P
1786.434	1.819	1155362	REC_EVENT	3190	5	3	ROCK	ROCK	FOG	ROCK	14	[0, 0, 0]	-999	PAL1	0	R1066P
1788.253	0.008	1156272	REC_END	n/a	5	-999	n/a	n/a	n/a	n/a	14	[0, 0, 0]	-999	PAL1	0	R1066P
1788.261	0.849	1156276	TEST_ORIENT	n/a	2	4	BED	n/a	FLUTE	BED	14	[0, 0, 0]	-999	PAL1	0	R1066P
1789.11	0.001	1156700	TEST_PROBE	n/a	2	4	BED	n/a	FLUTE	BED	14	[0, 0, 0]	-999	PAL1	0	R1066P
1789.111	5.003	1156701	REC_START	n/a	2	-999	n/a	n/a	n/a	n/a	14	[0, 0, 0]	-999	PAL1	0	R1066P
1794.114	0.005	1159202	REC_EVENT	5003	2	4	BED	<>	FLUTE	BED	14	[0, 0, 0]	-999	PAL1	0	R1066P
1794.119	0.009	1159204	REC_END	n/a	2	-999	n/a	n/a	n/a	n/a	14	[0, 0, 0]	-999	PAL1	0	R1066P
1794.128	0.966	1159209	TEST_ORIENT	n/a	3	5	DOG	BED	CLOCK	DOG	14	[0, 0, 0]	-999	PAL1	0	R1066P
1795.094	0.001	1159692	TEST_PROBE	n/a	3	5	DOG	BED	CLOCK	DOG	14	[0, 0, 0]	-999	PAL1	0	R1066P
1795.095	1.403	1159692	REC_START	n/a	3	-999	n/a	BED	n/a	n/a	14	[0, 0, 0]	-999	PAL1	0	R1066P
1796.498	0.449	1160394	REC_EVENT	1403	3	5	DOG	<>	CLOCK	DOG	14	[0, 0, 0]	-999	PAL1	0	R1066P
1796.947	0.654	1160618	REC_EVENT	1852	3	5	DOG	FLUTE	CLOCK	DOG	14	[0, 0, 0]	-999	PAL1	0	R1066P
1797.601	0.233	1160945	REC_EVENT	2506	3	5	DOG	<>	CLOCK	DOG	14	[0, 0, 0]	-999	PAL1	0	R1066P
1797.834	0.185	1161062	REC_EVENT	2739	3	5	DOG	<>	CLOCK	DOG	14	[0, 0, 0]	-999	PAL1	0	R1066P
1798.019	2.084	1161154	REC_EVENT	2924	3	5	DOG	BED	CLOCK	DOG	14	[0, 0, 0]	-999	PAL1	0	R1066P
1800.103	0.009	1162196	REC_END	n/a	3	-999	n/a	n/a	n/a	n/a	14	[0, 0, 0]	-999	PAL1	0	R1066P
1800.112	0.867	1162201	TEST_ORIENT	n/a	6	6	BOX	n/a	BOX	STEAM	14	[0, 0, 0]	-999	PAL1	0	R1066P
1800.979	0.0	1162634	REC_START	n/a	6	-999	n/a	n/a	n/a	n/a	14	[0, 0, 0]	-999	PAL1	0	R1066P
1800.979	5.015	1162634	TEST_PROBE	n/a	6	6	BOX	n/a	BOX	STEAM	14	[0, 0, 0]	-999	PAL1	0	R1066P
1805.994	0.002	1165142	REC_EVENT	5015	6	6	BOX	<>	BOX	STEAM	14	[0, 0, 0]	-999	PAL1	0	R1066P
1805.996	2.216	1165143	REC_END	n/a	6	-999	n/a	n/a	n/a	n/a	14	[0, 0, 0]	-999	PAL1	0	R1066P
1808.212	10.438	1166251	ENCODING_START	n/a	0	-999	n/a	n/a	n/a	n/a	15	[0, 0, 0]	-999	PAL1	0	R1066P
1818.65	0.817	1171469	STUDY_ORIENT	n/a	1	5	SHEET	n/a	BOMB	SHEET	15	[0, 0, 0]	-999	PAL1	0	R1066P
1819.467	5.034	1171878	STUDY_PAIR	n/a	1	5	SHEET	n/a	BOMB	SHEET	15	[0, 0, 0]	-999	PAL1	0	R1066P
1824.501	0.967	1174395	STUDY_ORIENT	n/a	2	6	CROWN	CROWN	CROWN	POLE	15	[0, 0, 0]	-999	PAL1	0	R1066P
1825.468	5.018	1174878	STUDY_PAIR	n/a	2	6	CROWN	CROWN	CROWN	POLE	15	[0, 0, 0]	-999	PAL1	0	R1066P
1830.486	0.933	1177387	STUDY_ORIENT	n/a	3	1	FUR	n/a	VASE	FUR	15	[0, 0, 0]	-999	PAL1	0	R1066P
1831.419	5.018	1177854	STUDY_PAIR	n/a	3	1	FUR	n/a	VASE	FUR	15	[0, 0, 0]	-999	PAL1	0	R1066P
1836.437	0.917	1180362	STUDY_ORIENT	n/a	4	2	CONE	n/a	CONE	CAR	15	[0, 0, 0]	-999	PAL1	0	R1066P
1837.354	5.034	1180821	STUDY_PAIR	n/a	4	2	CONE	n/a	CONE	CAR	15	[0, 0, 0]	-999	PAL1	0	R1066P
1842.388	0.85	1183338	STUDY_ORIENT	n/a	5	3	GOAT	n/a	SNAKE	GOAT	15	[0, 0, 0]	-999	PAL1	0	R1066P
1843.238	5.018	1183763	STUDY_PAIR	n/a	5	3	GOAT	n/a	SNAKE	GOAT	15	[0, 0, 0]	-999	PAL1	0	R1066P
1848.256	0.816	1186272	STUDY_ORIENT	n/a	6	4	PEARL	n/a	PEARL	RAKE	15	[0, 0, 0]	-999	PAL1	0	R1066P
1849.072	4.018	1186680	STUDY_PAIR	n/a	6	4	PEARL	n/a	PEARL	RAKE	15	[0, 0, 0]	-999	PAL1	0	R1066P
1853.09	0.999	1188688	START	n/a	-999	-999	n/a	n/a	n/a	n/a	15	[-999, -999, -999]	-999	PAL1	0	R1066P
1854.089	0.017	1189188	MATH_START	n/a	-999	-999	n/a	n/a	n/a	n/a	15	[0, 0, 0]	-999	PAL1	0	R1066P
1854.106	2.535	1189196	PROB	2506	-999	-999	n/a	n/a	n/a	n/a	15	[5, 2, 1]	8	PAL1	0	R1066P
1856.641	1.9	1190464	PROB	1867	-999	-999	n/a	n/a	n/a	n/a	15	[8, 4, 8]	12	PAL1	0	R1066P
1858.541	2.017	1191414	PROB	1983	-999	-999	n/a	n/a	n/a	n/a	15	[7, 5, 2]	14	PAL1	0	R1066P
1860.558	2.367	1192422	PROB	2342	-999	-999	n/a	n/a	n/a	n/a	15	[7, 8, 8]	23	PAL1	0	R1066P
1862.925	2.351	1193606	PROB	2327	-999	-999	n/a	n/a	n/a	n/a	15	[9, 9, 8]	25	PAL1	0	R1066P
1865.276	1.516	1194781	PROB	1488	-999	-999	n/a	n/a	n/a	n/a	15	[6, 4, 2]	12	PAL1	0	R1066P
1866.792	5.919	1195539	PROB	5892	-999	-999	n/a	n/a	n/a	n/a	15	[7, 4, 1]	12	PAL1	0	R1066P
1872.711	3.324	1198498	PROB	3324	-999	-999	n/a	n/a	n/a	n/a	15	[3, 9, 3]	15	PAL1	0	R1066P
1876.035	0.008	1200160	STOP	n/a	-999	-999	n/a	n/a	n/a	n/a	15	[-999, -999, -999]	-999	PAL1	0	R1066P
1876.043	0.0	1200164	MATH_END	n/a	-999	-999	n/a	n/a	n/a	n/a	15	[0, 0, 0]	-999	PAL1	0	R1066P
1876.043	0.017	1200164	TEST_START	n/a	-999	-999	n/a	n/a	n/a	n/a	15	[0, 0, 0]	-999	PAL1	0	R1066P
1876.06	0.835	1200173	TEST_ORIENT	n/a	3	1	FUR	n/a	VASE	FUR	15	[0, 0, 0]	-999	PAL1	0	R1066P
1876.895	0.0	1200590	TEST_PROBE	n/a	3	1	FUR	n/a	VASE	FUR	15	[0, 0, 0]	-999	PAL1	0	R1066P
1876.895	5.015	1200590	REC_START	n/a	3	-999	n/a	n/a	n/a	n/a	15	[0, 0, 0]	-999	PAL1	0	R1066P
1881.91	0.002	1203098	REC_EVENT	5015	3	1	FUR	<>	VASE	FUR	15	[0, 0, 0]	-999	PAL1	0	R1066P
1881.912	0.017	1203099	REC_END	n/a	3	-999	n/a	n/a	n/a	n/a	15	[0, 0, 0]	-999	PAL1	0	R1066P
1881.929	0.984	1203107	TEST_ORIENT	n/a	4	2	CONE	n/a	CONE	CAR	15	[0, 0, 0]	-999	PAL1	0	R1066P
1882.913	0.0	1203599	TEST_PROBE	n/a	4	2	CONE	n/a	CONE	CAR	15	[0, 0, 0]	-999	PAL1	0	R1066P
1882.913	5.015	1203599	REC_START	n/a	4	-999	n/a	n/a	n/a	n/a	15	[0, 0, 0]	-999	PAL1	0	R1066P
1887.928	0.002	1206107	REC_EVENT	5015	4	2	CONE	<>	CONE	CAR	15	[0, 0, 0]	-999	PAL1	0	R1066P
1887.93	0.017	1206108	REC_END	n/a	4	-999	n/a	n/a	n/a	n/a	15	[0, 0, 0]	-999	PAL1	0	R1066P
1887.947	0.817	1206116	TEST_ORIENT	n/a	5	3	GOAT	n/a	SNAKE	GOAT	15	[0, 0, 0]	-999	PAL1	0	R1066P
1888.764	0.0	1206525	TEST_PROBE	n/a	5	3	GOAT	n/a	SNAKE	GOAT	15	[0, 0, 0]	-999	PAL1	0	R1066P
1888.764	5.026	1206525	REC_START	n/a	5	-999	n/a	n/a	n/a	n/a	15	[0, 0, 0]	-999	PAL1	0	R1066P
1893.79	0.001	1209037	REC_END	n/a	5	-999	n/a	n/a	n/a	n/a	15	[0, 0, 0]	-999	PAL1	0	R1066P
1893.791	0.007	1209038	REC_EVENT	5027	5	3	GOAT	<>	SNAKE	GOAT	15	[0, 0, 0]	-999	PAL1	0	R1066P
1893.798	1.017	1209041	TEST_ORIENT	n/a	6	4	PEARL	n/a	PEARL	RAKE	15	[0, 0, 0]	-999	PAL1	0	R1066P
1894.815	0.0	1209550	REC_START	n/a	6	-999	n/a	n/a	n/a	n/a	15	[0, 0, 0]	-999	PAL1	0	R1066P
1894.815	5.015	1209550	TEST_PROBE	n/a	6	4	PEARL	n/a	PEARL	RAKE	15	[0, 0, 0]	-999	PAL1	0	R1066P
1899.83	0.002	1212057	REC_EVENT	5015	6	4	PEARL	<>	PEARL	RAKE	15	[0, 0, 0]	-999	PAL1	0	R1066P
1899.832	0.017	1212058	REC_END	n/a	6	-999	n/a	n/a	n/a	n/a	15	[0, 0, 0]	-999	PAL1	0	R1066P
1899.849	0.934	1212067	TEST_ORIENT	n/a	1	5	SHEET	n/a	BOMB	SHEET	15	[0, 0, 0]	-999	PAL1	0	R1066P
1900.783	0.0	1212534	TEST_PROBE	n/a	1	5	SHEET	n/a	BOMB	SHEET	15	[0, 0, 0]	-999	PAL1	0	R1066P
1900.783	5.015	1212534	REC_START	n/a	1	-999	n/a	n/a	n/a	n/a	15	[0, 0, 0]	-999	PAL1	0	R1066P
1905.798	0.002	1215041	REC_EVENT	5015	1	5	SHEET	<>	BOMB	SHEET	15	[0, 0, 0]	-999	PAL1	0	R1066P
1905.8	0.017	1215042	REC_END	n/a	1	-999	n/a	n/a	n/a	n/a	15	[0, 0, 0]	-999	PAL1	0	R1066P
1905.817	0.867	1215051	TEST_ORIENT	n/a	2	6	CROWN	CROWN	CROWN	POLE	15	[0, 0, 0]	-999	PAL1	0	R1066P
1906.684	0.0	1215484	TEST_PROBE	n/a	2	6	CROWN	CROWN	CROWN	POLE	15	[0, 0, 0]	-999	PAL1	0	R1066P
1906.684	2.372	1215484	REC_START	n/a	2	-999	n/a	CROWN	n/a	n/a	15	[0, 0, 0]	-999	PAL1	0	R1066P
1909.056	2.645	1216670	REC_EVENT	2372	2	6	CROWN	CROWN	CROWN	POLE	15	[0, 0, 0]	-999	PAL1	0	R1066P
1911.701	2.759	1217992	REC_END	n/a	2	-999	n/a	n/a	n/a	n/a	15	[0, 0, 0]	-999	PAL1	0	R1066P
1914.46	10.444	1219372	ENCODING_START	n/a	0	-999	n/a	n/a	n/a	n/a	16	[0, 0, 0]	-999	PAL1	0	R1066P
1924.904	1.0	1224594	STUDY_ORIENT	n/a	1	3	FLEA	BAG	FLEA	JUDGE	16	[0, 0, 0]	-999	PAL1	0	R1066P
1925.904	5.018	1225094	STUDY_PAIR	n/a	1	3	FLEA	BAG	FLEA	JUDGE	16	[0, 0, 0]	-999	PAL1	0	R1066P
1930.922	0.867	1227602	STUDY_ORIENT	n/a	2	4	FRUIT	n/a	FRUIT	CANE	16	[0, 0, 0]	-999	PAL1	0	R1066P
1931.789	5.034	1228036	STUDY_PAIR	n/a	2	4	FRUIT	n/a	FRUIT	CANE	16	[0, 0, 0]	-999	PAL1	0	R1066P
1936.823	0.8	1230553	STUDY_ORIENT	n/a	3	1	BOY	BOY	PASTE	BOY	16	[0, 0, 0]	-999	PAL1	0	R1066P
1937.623	5.034	1230953	STUDY_PAIR	n/a	3	1	BOY	BOY	PASTE	BOY	16	[0, 0, 0]	-999	PAL1	0	R1066P
1942.657	0.884	1233470	STUDY_ORIENT	n/a	4	6	CAGE	n/a	BEACH	CAGE	16	[0, 0, 0]	-999	PAL1	0	R1066P
1943.541	5.034	1233912	STUDY_PAIR	n/a	4	6	CAGE	n/a	BEACH	CAGE	16	[0, 0, 0]	-999	PAL1	0	R1066P
1948.575	0.984	1236429	STUDY_ORIENT	n/a	5	5	SEED	n/a	SHIELD	SEED	16	[0, 0, 0]	-999	PAL1	0	R1066P
1949.559	5.034	1236920	STUDY_PAIR	n/a	5	5	SEED	n/a	SHIELD	SEED	16	[0, 0, 0]	-999	PAL1	0	R1066P
1954.593	0.967	1239437	STUDY_ORIENT	n/a	6	2	JUICE	n/a	FLAG	JUICE	16	[0, 0, 0]	-999	PAL1	0	R1066P
1955.56	4.018	1239921	STUDY_PAIR	n/a	6	2	JUICE	n/a	FLAG	JUICE	16	[0, 0, 0]	-999	PAL1	0	R1066P
1959.578	0.999	1241930	START	n/a	-999	-999	n/a	n/a	n/a	n/a	16	[-999, -999, -999]	-999	PAL1	0	R1066P
1960.577	0.017	1242429	MATH_START	n/a	-999	-999	n/a	n/a	n/a	n/a	16	[0, 0, 0]	-999	PAL1	0	R1066P
1960.594	4.268	1242438	PROB	4234	-999	-999	n/a	n/a	n/a	n/a	16	[9, 5, 8]	24	PAL1	0	R1066P
1964.862	4.183	1244572	PROB	4149	-999	-999	n/a	n/a	n/a	n/a	16	[7, 3, 1]	11	PAL1	0	R1066P
1969.045	2.251	1246663	PROB	2223	-999	-999	n/a	n/a	n/a	n/a	16	[1, 5, 1]	7	PAL1	0	R1066P
1971.296	1.984	1247788	PROB	1956	-999	-999	n/a	n/a	n/a	n/a	16	[2, 8, 3]	13	PAL1	0	R1066P
1973.28	2.017	1248780	PROB	1988	-999	-999	n/a	n/a	n/a	n/a	16	[2, 3, 7]	12	PAL1	0	R1066P
1975.297	2.0	1249789	PROB	1979	-999	-999	n/a	n/a	n/a	n/a	16	[5, 9, 1]	15	PAL1	0	R1066P
1977.297	4.834	1250789	PROB	4834	-999	-999	n/a	n/a	n/a	n/a	16	[5, 9, 7]	21	PAL1	0	R1066P
1982.131	0.016	1253206	STOP	n/a	-999	-999	n/a	n/a	n/a	n/a	16	[-999, -999, -999]	-999	PAL1	0	R1066P
1982.147	0.0	1253214	MATH_END	n/a	-999	-999	n/a	n/a	n/a	n/a	16	[0, 0, 0]	-999	PAL1	0	R1066P
1982.147	0.017	1253214	TEST_START	n/a	-999	-999	n/a	n/a	n/a	n/a	16	[0, 0, 0]	-999	PAL1	0	R1066P
1982.164	0.9	1253222	TEST_ORIENT	n/a	3	1	BOY	BOY	PASTE	BOY	16	[0, 0, 0]	-999	PAL1	0	R1066P
1983.064	0.001	1253672	TEST_PROBE	n/a	3	1	BOY	BOY	PASTE	BOY	16	[0, 0, 0]	-999	PAL1	0	R1066P
1983.065	2.165	1253673	REC_START	n/a	3	-999	n/a	BOY	n/a	n/a	16	[0, 0, 0]	-999	PAL1	0	R1066P
1985.23	2.844	1254755	REC_EVENT	2165	3	1	BOY	BOY	PASTE	BOY	16	[0, 0, 0]	-999	PAL1	0	R1066P
1988.074	0.008	1256177	REC_END	n/a	3	-999	n/a	n/a	n/a	n/a	16	[0, 0, 0]	-999	PAL1	0	R1066P
1988.082	1.017	1256181	TEST_ORIENT	n/a	6	2	JUICE	n/a	FLAG	JUICE	16	[0, 0, 0]	-999	PAL1	0	R1066P
1989.099	0.0	1256689	TEST_PROBE	n/a	6	2	JUICE	n/a	FLAG	JUICE	16	[0, 0, 0]	-999	PAL1	0	R1066P
1989.099	0.656	1256689	REC_START	n/a	6	-999	n/a	n/a	n/a	n/a	16	[0, 0, 0]	-999	PAL1	0	R1066P
1989.755	4.361	1257017	REC_EVENT	656	6	2	JUICE	<>	FLAG	JUICE	16	[0, 0, 0]	-999	PAL1	0	R1066P
1994.116	0.017	1259198	REC_END	n/a	6	-999	n/a	n/a	n/a	n/a	16	[0, 0, 0]	-999	PAL1	0	R1066P
1994.133	0.917	1259206	TEST_ORIENT	n/a	1	3	FLEA	BAG	FLEA	JUDGE	16	[0, 0, 0]	-999	PAL1	0	R1066P
1995.05	0.0	1259665	TEST_PROBE	n/a	1	3	FLEA	BAG	FLEA	JUDGE	16	[0, 0, 0]	-999	PAL1	0	R1066P
1995.05	1.178	1259665	REC_START	n/a	1	-999	n/a	BAG	n/a	n/a	16	[0, 0, 0]	-999	PAL1	0	R1066P
1996.228	1.041	1260254	REC_EVENT	1178	1	3	FLEA	BOY	FLEA	JUDGE	16	[0, 0, 0]	-999	PAL1	0	R1066P
1997.269	2.798	1260774	REC_EVENT	2219	1	3	FLEA	BAG	FLEA	JUDGE	16	[0, 0, 0]	-999	PAL1	0	R1066P
2000.067	0.017	1262173	REC_END	n/a	1	-999	n/a	n/a	n/a	n/a	16	[0, 0, 0]	-999	PAL1	0	R1066P
2000.084	0.984	1262182	TEST_ORIENT	n/a	2	4	FRUIT	n/a	FRUIT	CANE	16	[0, 0, 0]	-999	PAL1	0	R1066P
2001.068	0.0	1262674	REC_START	n/a	2	-999	n/a	n/a	n/a	n/a	16	[0, 0, 0]	-999	PAL1	0	R1066P
2001.068	5.015	1262674	TEST_PROBE	n/a	2	4	FRUIT	n/a	FRUIT	CANE	16	[0, 0, 0]	-999	PAL1	0	R1066P
2006.083	0.002	1265181	REC_EVENT	5015	2	4	FRUIT	<>	FRUIT	CANE	16	[0, 0, 0]	-999	PAL1	0	R1066P
2006.085	0.017	1265182	REC_END	n/a	2	-999	n/a	n/a	n/a	n/a	16	[0, 0, 0]	-999	PAL1	0	R1066P
2006.102	0.95	1265191	TEST_ORIENT	n/a	5	5	SEED	n/a	SHIELD	SEED	16	[0, 0, 0]	-999	PAL1	0	R1066P
2007.052	0.0	1265666	TEST_PROBE	n/a	5	5	SEED	n/a	SHIELD	SEED	16	[0, 0, 0]	-999	PAL1	0	R1066P
2007.052	5.017	1265666	REC_START	n/a	5	-999	n/a	n/a	n/a	n/a	16	[0, 0, 0]	-999	PAL1	0	R1066P
2012.069	0.004	1268174	REC_END	n/a	5	-999	n/a	n/a	n/a	n/a	16	[0, 0, 0]	-999	PAL1	0	R1066P
2012.073	0.013	1268176	REC_EVENT	5021	5	5	SEED	<>	SHIELD	SEED	16	[0, 0, 0]	-999	PAL1	0	R1066P
2012.086	1.017	1268182	TEST_ORIENT	n/a	4	6	CAGE	n/a	BEACH	CAGE	16	[0, 0, 0]	-999	PAL1	0	R1066P
2013.103	0.001	1268691	TEST_PROBE	n/a	4	6	CAGE	n/a	BEACH	CAGE	16	[0, 0, 0]	-999	PAL1	0	R1066P
2013.104	5.008	1268691	REC_START	n/a	4	-999	n/a	n/a	n/a	n/a	16	[0, 0, 0]	-999	PAL1	0	R1066P
2018.112	0.001	1271195	REC_END	n/a	4	-999	n/a	n/a	n/a	n/a	16	[0, 0, 0]	-999	PAL1	0	R1066P
2018.113	0.0	1271196	REC_EVENT	5009	4	6	CAGE	<>	BEACH	CAGE	16	[0, 0, 0]	-999	PAL1	0	R1066P
