onset	duration	sample	trial_type	response_time	serialpos	probepos	probe_word	resp_word	study_1	study_2	list	test	answer	experiment	session	subject
0.0	91.236	74383	SESS_START	n/a	-999	-999	n/a	n/a	n/a	n/a	-999	[0, 0, 0]	-999	PAL1	0	R1042M
91.236	1.016	119997	START	n/a	-999	-999	n/a	n/a	n/a	n/a	-1	[-999, -999, -999]	-999	PAL1	0	R1042M
92.252	4.218	120504	PROB	4185	-999	-999	n/a	n/a	n/a	n/a	-1	[2, 6, 4]	12	PAL1	0	R1042M
96.47	2.7	122613	PROB	2671	-999	-999	n/a	n/a	n/a	n/a	-1	[1, 6, 9]	16	PAL1	0	R1042M
99.17	2.034	123963	PROB	2011	-999	-999	n/a	n/a	n/a	n/a	-1	[2, 2, 8]	12	PAL1	0	R1042M
101.204	2.134	124980	PROB	2113	-999	-999	n/a	n/a	n/a	n/a	-1	[6, 6, 6]	18	PAL1	0	R1042M
103.338	4.367	126047	PROB	4346	-999	-999	n/a	n/a	n/a	n/a	-1	[9, 8, 8]	25	PAL1	0	R1042M
107.705	3.05	128230	PROB	3019	-999	-999	n/a	n/a	n/a	n/a	-1	[2, 6, 7]	15	PAL1	0	R1042M
110.755	2.945	129755	PROB	2945	-999	-999	n/a	n/a	n/a	n/a	-1	[9, 3, 8]	20	PAL1	0	R1042M
113.7	54.761	131227	STOP	n/a	-999	-999	n/a	n/a	n/a	n/a	-1	[-999, -999, -999]	-999	PAL1	0	R1042M
168.461	10.442	158605	ENCODING_START	n/a	0	-999	n/a	n/a	n/a	n/a	1	[0, 0, 0]	-999	PAL1	0	R1042M
178.903	0.917	163826	STUDY_ORIENT	n/a	1	1	STORM	FLUTE	STORM	FLUTE	1	[0, 0, 0]	-999	PAL1	0	R1042M
179.82	5.034	164284	STUDY_PAIR	n/a	1	1	STORM	FLUTE	STORM	FLUTE	1	[0, 0, 0]	-999	PAL1	0	R1042M
184.854	0.916	166801	STUDY_ORIENT	n/a	2	6	ROCK	SNOW	ROCK	SNOW	1	[0, 0, 0]	-999	PAL1	0	R1042M
185.77	5.035	167259	STUDY_PAIR	n/a	2	6	ROCK	SNOW	ROCK	SNOW	1	[0, 0, 0]	-999	PAL1	0	R1042M
190.805	0.933	169776	STUDY_ORIENT	n/a	3	3	PEACH	BRIDGE	PEACH	BRIDGE	1	[0, 0, 0]	-999	PAL1	0	R1042M
191.738	5.034	170242	STUDY_PAIR	n/a	3	3	PEACH	BRIDGE	PEACH	BRIDGE	1	[0, 0, 0]	-999	PAL1	0	R1042M
196.772	0.967	172759	STUDY_ORIENT	n/a	4	2	GOLD	STRAW	STRAW	GOLD	1	[0, 0, 0]	-999	PAL1	0	R1042M
197.739	5.034	173243	STUDY_PAIR	n/a	4	2	GOLD	STRAW	STRAW	GOLD	1	[0, 0, 0]	-999	PAL1	0	R1042M
202.773	1.001	175759	STUDY_ORIENT	n/a	5	5	BANK	DRUM	BANK	DRUM	1	[0, 0, 0]	-999	PAL1	0	R1042M
203.774	5.035	176260	STUDY_PAIR	n/a	5	5	BANK	DRUM	BANK	DRUM	1	[0, 0, 0]	-999	PAL1	0	R1042M
208.809	0.932	178777	STUDY_ORIENT	n/a	6	4	TEETH	SWAMP	TEETH	SWAMP	1	[0, 0, 0]	-999	PAL1	0	R1042M
209.741	4.001	179243	STUDY_PAIR	n/a	6	4	TEETH	SWAMP	TEETH	SWAMP	1	[0, 0, 0]	-999	PAL1	0	R1042M
213.742	1.0	181243	START	n/a	-999	-999	n/a	n/a	n/a	n/a	1	[-999, -999, -999]	-999	PAL1	0	R1042M
214.742	0.017	181743	MATH_START	n/a	-999	-999	n/a	n/a	n/a	n/a	1	[0, 0, 0]	-999	PAL1	0	R1042M
214.759	3.468	181752	PROB	3438	-999	-999	n/a	n/a	n/a	n/a	1	[7, 9, 2]	18	PAL1	0	R1042M
218.227	2.901	183486	PROB	2882	-999	-999	n/a	n/a	n/a	n/a	1	[1, 9, 7]	17	PAL1	0	R1042M
221.128	2.084	184936	PROB	2053	-999	-999	n/a	n/a	n/a	n/a	1	[8, 2, 3]	13	PAL1	0	R1042M
223.212	1.9	185978	PROB	1865	-999	-999	n/a	n/a	n/a	n/a	1	[9, 1, 2]	12	PAL1	0	R1042M
225.112	2.4	186928	PROB	2380	-999	-999	n/a	n/a	n/a	n/a	1	[1, 9, 3]	13	PAL1	0	R1042M
227.512	1.768	188128	PROB	1749	-999	-999	n/a	n/a	n/a	n/a	1	[7, 3, 1]	11	PAL1	0	R1042M
229.28	3.0	189011	PROB	2981	-999	-999	n/a	n/a	n/a	n/a	1	[5, 7, 4]	16	PAL1	0	R1042M
232.28	3.109	190511	PROB	3109	-999	-999	n/a	n/a	n/a	n/a	1	[8, 8, 5]	21	PAL1	0	R1042M
235.389	0.008	192066	STOP	n/a	-999	-999	n/a	n/a	n/a	n/a	1	[-999, -999, -999]	-999	PAL1	0	R1042M
235.397	0.0	192070	MATH_END	n/a	-999	-999	n/a	n/a	n/a	n/a	1	[0, 0, 0]	-999	PAL1	0	R1042M
235.397	0.017	192070	TEST_START	n/a	-999	-999	n/a	n/a	n/a	n/a	1	[0, 0, 0]	-999	PAL1	0	R1042M
235.414	0.934	192078	TEST_ORIENT	n/a	1	1	STORM	FLUTE	STORM	FLUTE	1	[0, 0, 0]	-999	PAL1	0	R1042M
236.348	0.0	192545	TEST_PROBE	n/a	1	1	STORM	FLUTE	STORM	FLUTE	1	[0, 0, 0]	-999	PAL1	0	R1042M
236.348	1.056	192545	REC_START	n/a	1	-999	n/a	FLUTE	n/a	n/a	1	[0, 0, 0]	-999	PAL1	0	R1042M
237.404	3.961	193073	REC_EVENT	1056	1	1	STORM	FLUTE	STORM	FLUTE	1	[0, 0, 0]	-999	PAL1	0	R1042M
241.365	0.017	195053	REC_END	n/a	1	-999	n/a	n/a	n/a	n/a	1	[0, 0, 0]	-999	PAL1	0	R1042M
241.382	0.917	195062	TEST_ORIENT	n/a	4	2	GOLD	STRAW	STRAW	GOLD	1	[0, 0, 0]	-999	PAL1	0	R1042M
242.299	0.0	195520	TEST_PROBE	n/a	4	2	GOLD	STRAW	STRAW	GOLD	1	[0, 0, 0]	-999	PAL1	0	R1042M
242.299	1.019	195520	REC_START	n/a	4	-999	n/a	STRAW	n/a	n/a	1	[0, 0, 0]	-999	PAL1	0	R1042M
243.318	3.998	196030	REC_EVENT	1019	4	2	GOLD	STRAW	STRAW	GOLD	1	[0, 0, 0]	-999	PAL1	0	R1042M
247.316	0.017	198029	REC_END	n/a	4	-999	n/a	n/a	n/a	n/a	1	[0, 0, 0]	-999	PAL1	0	R1042M
247.333	0.9	198037	TEST_ORIENT	n/a	3	3	PEACH	BRIDGE	PEACH	BRIDGE	1	[0, 0, 0]	-999	PAL1	0	R1042M
248.233	0.001	198487	TEST_PROBE	n/a	3	3	PEACH	BRIDGE	PEACH	BRIDGE	1	[0, 0, 0]	-999	PAL1	0	R1042M
248.234	0.973	198487	REC_START	n/a	3	-999	n/a	BRIDGE	n/a	n/a	1	[0, 0, 0]	-999	PAL1	0	R1042M
249.207	4.036	198974	REC_EVENT	973	3	3	PEACH	BRIDGE	PEACH	BRIDGE	1	[0, 0, 0]	-999	PAL1	0	R1042M
253.243	0.008	200992	REC_END	n/a	3	-999	n/a	n/a	n/a	n/a	1	[0, 0, 0]	-999	PAL1	0	R1042M
253.251	0.85	200996	TEST_ORIENT	n/a	6	4	TEETH	SWAMP	TEETH	SWAMP	1	[0, 0, 0]	-999	PAL1	0	R1042M
254.101	0.001	201421	TEST_PROBE	n/a	6	4	TEETH	SWAMP	TEETH	SWAMP	1	[0, 0, 0]	-999	PAL1	0	R1042M
254.102	0.998	201421	REC_START	n/a	6	-999	n/a	SWAMP	n/a	n/a	1	[0, 0, 0]	-999	PAL1	0	R1042M
255.1	4.011	201920	REC_EVENT	998	6	4	TEETH	SWAMP	TEETH	SWAMP	1	[0, 0, 0]	-999	PAL1	0	R1042M
259.111	0.008	203925	REC_END	n/a	6	-999	n/a	n/a	n/a	n/a	1	[0, 0, 0]	-999	PAL1	0	R1042M
259.119	1.0	203929	TEST_ORIENT	n/a	5	5	BANK	DRUM	BANK	DRUM	1	[0, 0, 0]	-999	PAL1	0	R1042M
260.119	0.001	204429	TEST_PROBE	n/a	5	5	BANK	DRUM	BANK	DRUM	1	[0, 0, 0]	-999	PAL1	0	R1042M
260.12	1.252	204430	REC_START	n/a	5	-999	n/a	DRUM	n/a	n/a	1	[0, 0, 0]	-999	PAL1	0	R1042M
261.372	3.756	205056	REC_EVENT	1252	5	5	BANK	DRUM	BANK	DRUM	1	[0, 0, 0]	-999	PAL1	0	R1042M
265.128	0.009	206934	REC_END	n/a	5	-999	n/a	n/a	n/a	n/a	1	[0, 0, 0]	-999	PAL1	0	R1042M
265.137	0.966	206938	TEST_ORIENT	n/a	2	6	ROCK	SNOW	ROCK	SNOW	1	[0, 0, 0]	-999	PAL1	0	R1042M
266.103	0.001	207421	TEST_PROBE	n/a	2	6	ROCK	SNOW	ROCK	SNOW	1	[0, 0, 0]	-999	PAL1	0	R1042M
266.104	0.822	207422	REC_START	n/a	2	-999	n/a	SNOW	n/a	n/a	1	[0, 0, 0]	-999	PAL1	0	R1042M
266.926	4.186	207833	REC_EVENT	822	2	6	ROCK	SNOW	ROCK	SNOW	1	[0, 0, 0]	-999	PAL1	0	R1042M
271.112	21.997	209925	REC_END	n/a	2	-999	n/a	n/a	n/a	n/a	1	[0, 0, 0]	-999	PAL1	0	R1042M
293.109	10.451	220923	ENCODING_START	n/a	0	-999	n/a	n/a	n/a	n/a	2	[0, 0, 0]	-999	PAL1	0	R1042M
303.56	0.835	226148	STUDY_ORIENT	n/a	1	1	SNAIL	TRASH	SNAIL	TRASH	2	[0, 0, 0]	-999	PAL1	0	R1042M
304.395	5.034	226565	STUDY_PAIR	n/a	1	1	SNAIL	TRASH	SNAIL	TRASH	2	[0, 0, 0]	-999	PAL1	0	R1042M
309.429	0.867	229082	STUDY_ORIENT	n/a	2	6	BOWL	SCHOOL	SCHOOL	BOWL	2	[0, 0, 0]	-999	PAL1	0	R1042M
310.296	5.034	229515	STUDY_PAIR	n/a	2	6	BOWL	SCHOOL	SCHOOL	BOWL	2	[0, 0, 0]	-999	PAL1	0	R1042M
315.33	0.817	232032	STUDY_ORIENT	n/a	3	5	PANTS	SKY	SKY	PANTS	2	[0, 0, 0]	-999	PAL1	0	R1042M
316.147	5.034	232440	STUDY_PAIR	n/a	3	5	PANTS	SKY	SKY	PANTS	2	[0, 0, 0]	-999	PAL1	0	R1042M
321.181	1.017	234957	STUDY_ORIENT	n/a	4	2	TOE	EEL	EEL	TOE	2	[0, 0, 0]	-999	PAL1	0	R1042M
322.198	5.018	235466	STUDY_PAIR	n/a	4	2	TOE	EEL	EEL	TOE	2	[0, 0, 0]	-999	PAL1	0	R1042M
327.216	0.933	237974	STUDY_ORIENT	n/a	5	3	COIN	BOOT	BOOT	COIN	2	[0, 0, 0]	-999	PAL1	0	R1042M
328.149	5.018	238441	STUDY_PAIR	n/a	5	3	COIN	BOOT	BOOT	COIN	2	[0, 0, 0]	-999	PAL1	0	R1042M
333.167	1.0	240950	STUDY_ORIENT	n/a	6	4	ROOF	ROOM	ROOM	ROOF	2	[0, 0, 0]	-999	PAL1	0	R1042M
334.167	4.001	241450	STUDY_PAIR	n/a	6	4	ROOF	ROOM	ROOM	ROOF	2	[0, 0, 0]	-999	PAL1	0	R1042M
338.168	1.0	243450	START	n/a	-999	-999	n/a	n/a	n/a	n/a	2	[-999, -999, -999]	-999	PAL1	0	R1042M
339.168	0.017	243950	MATH_START	n/a	-999	-999	n/a	n/a	n/a	n/a	2	[0, 0, 0]	-999	PAL1	0	R1042M
339.185	3.001	243958	PROB	2980	-999	-999	n/a	n/a	n/a	n/a	2	[4, 3, 7]	14	PAL1	0	R1042M
342.186	4.133	245459	PROB	4107	-999	-999	n/a	n/a	n/a	n/a	2	[8, 5, 6]	19	PAL1	0	R1042M
346.319	2.485	247525	PROB	2453	-999	-999	n/a	n/a	n/a	n/a	2	[6, 2, 9]	17	PAL1	0	R1042M
348.804	2.782	248767	PROB	2760	-999	-999	n/a	n/a	n/a	n/a	2	[4, 1, 9]	14	PAL1	0	R1042M
351.586	2.585	250158	PROB	2563	-999	-999	n/a	n/a	n/a	n/a	2	[3, 2, 2]	7	PAL1	0	R1042M
354.171	2.984	251451	PROB	2954	-999	-999	n/a	n/a	n/a	n/a	2	[1, 8, 5]	14	PAL1	0	R1042M
357.155	2.65	252942	PROB	2650	-999	-999	n/a	n/a	n/a	n/a	2	[2, 9, 9]	20	PAL1	0	R1042M
359.805	0.017	254267	STOP	n/a	-999	-999	n/a	n/a	n/a	n/a	2	[-999, -999, -999]	-999	PAL1	0	R1042M
359.822	0.0	254276	TEST_START	n/a	-999	-999	n/a	n/a	n/a	n/a	2	[0, 0, 0]	-999	PAL1	0	R1042M
359.822	0.017	254276	MATH_END	n/a	-999	-999	n/a	n/a	n/a	n/a	2	[0, 0, 0]	-999	PAL1	0	R1042M
359.839	0.899	254284	TEST_ORIENT	n/a	1	1	SNAIL	TRASH	SNAIL	TRASH	2	[0, 0, 0]	-999	PAL1	0	R1042M
360.738	0.001	254734	TEST_PROBE	n/a	1	1	SNAIL	TRASH	SNAIL	TRASH	2	[0, 0, 0]	-999	PAL1	0	R1042M
360.739	1.651	254734	REC_START	n/a	1	-999	n/a	TRASH	n/a	n/a	2	[0, 0, 0]	-999	PAL1	0	R1042M
362.39	3.358	255560	REC_EVENT	1651	1	1	SNAIL	TRASH	SNAIL	TRASH	2	[0, 0, 0]	-999	PAL1	0	R1042M
365.748	0.008	257238	REC_END	n/a	1	-999	n/a	n/a	n/a	n/a	2	[0, 0, 0]	-999	PAL1	0	R1042M
365.756	0.983	257242	TEST_ORIENT	n/a	4	2	TOE	EEL	EEL	TOE	2	[0, 0, 0]	-999	PAL1	0	R1042M
366.739	0.001	257734	TEST_PROBE	n/a	4	2	TOE	EEL	EEL	TOE	2	[0, 0, 0]	-999	PAL1	0	R1042M
366.74	0.881	257734	REC_START	n/a	4	-999	n/a	EEL	n/a	n/a	2	[0, 0, 0]	-999	PAL1	0	R1042M
367.621	4.127	258175	REC_EVENT	881	4	2	TOE	EEL	EEL	TOE	2	[0, 0, 0]	-999	PAL1	0	R1042M
371.748	0.009	260238	REC_END	n/a	4	-999	n/a	n/a	n/a	n/a	2	[0, 0, 0]	-999	PAL1	0	R1042M
371.757	0.917	260243	TEST_ORIENT	n/a	5	3	COIN	BOOT	BOOT	COIN	2	[0, 0, 0]	-999	PAL1	0	R1042M
372.674	0.0	260701	TEST_PROBE	n/a	5	3	COIN	BOOT	BOOT	COIN	2	[0, 0, 0]	-999	PAL1	0	R1042M
372.674	1.459	260701	REC_START	n/a	5	-999	n/a	BOOT	n/a	n/a	2	[0, 0, 0]	-999	PAL1	0	R1042M
374.133	3.558	261431	REC_EVENT	1459	5	3	COIN	BOOT	BOOT	COIN	2	[0, 0, 0]	-999	PAL1	0	R1042M
377.691	0.017	263209	REC_END	n/a	5	-999	n/a	n/a	n/a	n/a	2	[0, 0, 0]	-999	PAL1	0	R1042M
377.708	0.934	263218	TEST_ORIENT	n/a	6	4	ROOF	ROOM	ROOM	ROOF	2	[0, 0, 0]	-999	PAL1	0	R1042M
378.642	0.0	263685	REC_START	n/a	6	-999	n/a	ROOM	n/a	n/a	2	[0, 0, 0]	-999	PAL1	0	R1042M
378.642	1.04	263685	TEST_PROBE	n/a	6	4	ROOF	ROOM	ROOM	ROOF	2	[0, 0, 0]	-999	PAL1	0	R1042M
379.682	3.977	264205	REC_EVENT	1040	6	4	ROOF	ROOM	ROOM	ROOF	2	[0, 0, 0]	-999	PAL1	0	R1042M
383.659	0.017	266193	REC_END	n/a	6	-999	n/a	n/a	n/a	n/a	2	[0, 0, 0]	-999	PAL1	0	R1042M
383.676	0.934	266202	TEST_ORIENT	n/a	3	5	PANTS	SKY	SKY	PANTS	2	[0, 0, 0]	-999	PAL1	0	R1042M
384.61	0.0	266668	TEST_PROBE	n/a	3	5	PANTS	SKY	SKY	PANTS	2	[0, 0, 0]	-999	PAL1	0	R1042M
384.61	1.104	266668	REC_START	n/a	3	-999	n/a	SKY	n/a	n/a	2	[0, 0, 0]	-999	PAL1	0	R1042M
385.714	3.913	267220	REC_EVENT	1104	3	5	PANTS	SKY	SKY	PANTS	2	[0, 0, 0]	-999	PAL1	0	R1042M
389.627	0.017	269177	REC_END	n/a	3	-999	n/a	n/a	n/a	n/a	2	[0, 0, 0]	-999	PAL1	0	R1042M
389.644	0.818	269185	TEST_ORIENT	n/a	2	6	BOWL	SCHOOL	SCHOOL	BOWL	2	[0, 0, 0]	-999	PAL1	0	R1042M
390.462	0.0	269594	REC_START	n/a	2	-999	n/a	SCHOOL	n/a	n/a	2	[0, 0, 0]	-999	PAL1	0	R1042M
390.462	0.893	269594	TEST_PROBE	n/a	2	6	BOWL	SCHOOL	SCHOOL	BOWL	2	[0, 0, 0]	-999	PAL1	0	R1042M
391.355	4.123	270041	REC_EVENT	893	2	6	BOWL	SCHOOL	SCHOOL	BOWL	2	[0, 0, 0]	-999	PAL1	0	R1042M
395.478	7.278	272102	REC_END	n/a	2	-999	n/a	n/a	n/a	n/a	2	[0, 0, 0]	-999	PAL1	0	R1042M
402.756	10.444	275741	ENCODING_START	n/a	0	-999	n/a	n/a	n/a	n/a	3	[0, 0, 0]	-999	PAL1	0	R1042M
413.2	0.867	280962	STUDY_ORIENT	n/a	1	3	HAND	n/a	HAND	DUCK	3	[0, 0, 0]	-999	PAL1	0	R1042M
414.067	5.034	281395	STUDY_PAIR	n/a	1	3	HAND	n/a	HAND	DUCK	3	[0, 0, 0]	-999	PAL1	0	R1042M
419.101	0.933	283912	STUDY_ORIENT	n/a	2	6	WEB	SEAT	WEB	SEAT	3	[0, 0, 0]	-999	PAL1	0	R1042M
420.034	5.018	284379	STUDY_PAIR	n/a	2	6	WEB	SEAT	WEB	SEAT	3	[0, 0, 0]	-999	PAL1	0	R1042M
425.052	0.85	286887	STUDY_ORIENT	n/a	3	5	PEA	STAIR	STAIR	PEA	3	[0, 0, 0]	-999	PAL1	0	R1042M
425.902	5.018	287312	STUDY_PAIR	n/a	3	5	PEA	STAIR	STAIR	PEA	3	[0, 0, 0]	-999	PAL1	0	R1042M
430.92	0.832	289821	STUDY_ORIENT	n/a	4	2	PIE	WORLD	WORLD	PIE	3	[0, 0, 0]	-999	PAL1	0	R1042M
431.752	5.018	290237	STUDY_PAIR	n/a	4	2	PIE	WORLD	WORLD	PIE	3	[0, 0, 0]	-999	PAL1	0	R1042M
436.77	0.8	292746	STUDY_ORIENT	n/a	5	1	BOARD	CAVE	CAVE	BOARD	3	[0, 0, 0]	-999	PAL1	0	R1042M
437.57	5.018	293146	STUDY_PAIR	n/a	5	1	BOARD	CAVE	CAVE	BOARD	3	[0, 0, 0]	-999	PAL1	0	R1042M
442.588	0.768	295655	STUDY_ORIENT	n/a	6	4	RAKE	VASE	VASE	RAKE	3	[0, 0, 0]	-999	PAL1	0	R1042M
443.356	4.018	296038	STUDY_PAIR	n/a	6	4	RAKE	VASE	VASE	RAKE	3	[0, 0, 0]	-999	PAL1	0	R1042M
447.374	0.999	298047	START	n/a	-999	-999	n/a	n/a	n/a	n/a	3	[-999, -999, -999]	-999	PAL1	0	R1042M
448.373	0.017	298547	MATH_START	n/a	-999	-999	n/a	n/a	n/a	n/a	3	[0, 0, 0]	-999	PAL1	0	R1042M
448.39	3.034	298555	PROB	3007	-999	-999	n/a	n/a	n/a	n/a	3	[2, 2, 9]	13	PAL1	0	R1042M
451.424	2.617	300072	PROB	2597	-999	-999	n/a	n/a	n/a	n/a	3	[5, 5, 9]	19	PAL1	0	R1042M
454.041	2.583	301380	PROB	2555	-999	-999	n/a	n/a	n/a	n/a	3	[2, 4, 8]	14	PAL1	0	R1042M
456.624	2.934	302672	PROB	2900	-999	-999	n/a	n/a	n/a	n/a	3	[4, 1, 9]	14	PAL1	0	R1042M
459.558	3.485	304139	PROB	3455	-999	-999	n/a	n/a	n/a	n/a	3	[5, 8, 6]	19	PAL1	0	R1042M
463.043	3.017	305881	PROB	2994	-999	-999	n/a	n/a	n/a	n/a	3	[5, 7, 5]	17	PAL1	0	R1042M
466.06	2.281	307389	PROB	2281	-999	-999	n/a	n/a	n/a	n/a	3	[4, 6, 9]	19	PAL1	0	R1042M
468.341	0.003	308530	STOP	n/a	-999	-999	n/a	n/a	n/a	n/a	3	[-999, -999, -999]	-999	PAL1	0	R1042M
468.344	0.0	308531	TEST_START	n/a	-999	-999	n/a	n/a	n/a	n/a	3	[0, 0, 0]	-999	PAL1	0	R1042M
468.344	0.017	308531	MATH_END	n/a	-999	-999	n/a	n/a	n/a	n/a	3	[0, 0, 0]	-999	PAL1	0	R1042M
468.361	1.017	308540	TEST_ORIENT	n/a	5	1	BOARD	CAVE	CAVE	BOARD	3	[0, 0, 0]	-999	PAL1	0	R1042M
469.378	0.0	309048	TEST_PROBE	n/a	5	1	BOARD	CAVE	CAVE	BOARD	3	[0, 0, 0]	-999	PAL1	0	R1042M
469.378	1.519	309048	REC_START	n/a	5	-999	n/a	CAVE	n/a	n/a	3	[0, 0, 0]	-999	PAL1	0	R1042M
470.897	3.498	309808	REC_EVENT	1519	5	1	BOARD	CAVE	CAVE	BOARD	3	[0, 0, 0]	-999	PAL1	0	R1042M
474.395	0.017	311556	REC_END	n/a	5	-999	n/a	n/a	n/a	n/a	3	[0, 0, 0]	-999	PAL1	0	R1042M
474.412	0.95	311565	TEST_ORIENT	n/a	4	2	PIE	WORLD	WORLD	PIE	3	[0, 0, 0]	-999	PAL1	0	R1042M
475.362	0.001	312040	TEST_PROBE	n/a	4	2	PIE	WORLD	WORLD	PIE	3	[0, 0, 0]	-999	PAL1	0	R1042M
475.363	0.84	312040	REC_START	n/a	4	-999	n/a	WORLD	n/a	n/a	3	[0, 0, 0]	-999	PAL1	0	R1042M
476.203	4.186	312460	REC_EVENT	840	4	2	PIE	WORLD	WORLD	PIE	3	[0, 0, 0]	-999	PAL1	0	R1042M
480.389	0.007	314553	REC_END	n/a	4	-999	n/a	n/a	n/a	n/a	3	[0, 0, 0]	-999	PAL1	0	R1042M
480.396	0.967	314557	TEST_ORIENT	n/a	1	3	HAND	n/a	HAND	DUCK	3	[0, 0, 0]	-999	PAL1	0	R1042M
481.363	0.001	315040	TEST_PROBE	n/a	1	3	HAND	n/a	HAND	DUCK	3	[0, 0, 0]	-999	PAL1	0	R1042M
481.364	0.0	315041	REC_START	n/a	1	-999	n/a	n/a	n/a	n/a	3	[0, 0, 0]	-999	PAL1	0	R1042M
481.364	5.008	315041	REC_EVENT	0	1	3	HAND	<>	HAND	DUCK	3	[0, 0, 0]	-999	PAL1	0	R1042M
486.372	0.009	317544	REC_END	n/a	1	-999	n/a	n/a	n/a	n/a	3	[0, 0, 0]	-999	PAL1	0	R1042M
486.381	0.817	317549	TEST_ORIENT	n/a	6	4	RAKE	VASE	VASE	RAKE	3	[0, 0, 0]	-999	PAL1	0	R1042M
487.198	0.0	317957	REC_START	n/a	6	-999	n/a	VASE	n/a	n/a	3	[0, 0, 0]	-999	PAL1	0	R1042M
487.198	1.016	317957	TEST_PROBE	n/a	6	4	RAKE	VASE	VASE	RAKE	3	[0, 0, 0]	-999	PAL1	0	R1042M
488.214	4.001	318465	REC_EVENT	1016	6	4	RAKE	VASE	VASE	RAKE	3	[0, 0, 0]	-999	PAL1	0	R1042M
492.215	0.017	320465	REC_END	n/a	6	-999	n/a	n/a	n/a	n/a	3	[0, 0, 0]	-999	PAL1	0	R1042M
492.232	0.834	320474	TEST_ORIENT	n/a	3	5	PEA	STAIR	STAIR	PEA	3	[0, 0, 0]	-999	PAL1	0	R1042M
493.066	0.0	320891	TEST_PROBE	n/a	3	5	PEA	STAIR	STAIR	PEA	3	[0, 0, 0]	-999	PAL1	0	R1042M
493.066	1.091	320891	REC_START	n/a	3	-999	n/a	STAIR	n/a	n/a	3	[0, 0, 0]	-999	PAL1	0	R1042M
494.157	3.926	321436	REC_EVENT	1091	3	5	PEA	STAIR	STAIR	PEA	3	[0, 0, 0]	-999	PAL1	0	R1042M
498.083	0.017	323399	REC_END	n/a	3	-999	n/a	n/a	n/a	n/a	3	[0, 0, 0]	-999	PAL1	0	R1042M
498.1	0.8	323408	TEST_ORIENT	n/a	2	6	WEB	SEAT	WEB	SEAT	3	[0, 0, 0]	-999	PAL1	0	R1042M
498.9	0.001	323808	TEST_PROBE	n/a	2	6	WEB	SEAT	WEB	SEAT	3	[0, 0, 0]	-999	PAL1	0	R1042M
498.901	0.951	323808	REC_START	n/a	2	-999	n/a	SEAT	n/a	n/a	3	[0, 0, 0]	-999	PAL1	0	R1042M
499.852	4.057	324284	REC_EVENT	951	2	6	WEB	SEAT	WEB	SEAT	3	[0, 0, 0]	-999	PAL1	0	R1042M
503.909	10.944	326312	REC_END	n/a	2	-999	n/a	n/a	n/a	n/a	3	[0, 0, 0]	-999	PAL1	0	R1042M
514.853	10.452	331783	ENCODING_START	n/a	0	-999	n/a	n/a	n/a	n/a	4	[0, 0, 0]	-999	PAL1	0	R1042M
525.305	0.934	337009	STUDY_ORIENT	n/a	1	5	STICK	PEN	PEN	STICK	4	[0, 0, 0]	-999	PAL1	0	R1042M
526.239	5.034	337476	STUDY_PAIR	n/a	1	5	STICK	PEN	PEN	STICK	4	[0, 0, 0]	-999	PAL1	0	R1042M
531.273	1.034	339992	STUDY_ORIENT	n/a	2	2	COW	MOLE	COW	MOLE	4	[0, 0, 0]	-999	PAL1	0	R1042M
532.307	5.034	340509	STUDY_PAIR	n/a	2	2	COW	MOLE	COW	MOLE	4	[0, 0, 0]	-999	PAL1	0	R1042M
537.341	0.8	343026	STUDY_ORIENT	n/a	3	1	CART	FLAG	CART	FLAG	4	[0, 0, 0]	-999	PAL1	0	R1042M
538.141	5.018	343426	STUDY_PAIR	n/a	3	1	CART	FLAG	CART	FLAG	4	[0, 0, 0]	-999	PAL1	0	R1042M
543.159	0.917	345935	STUDY_ORIENT	n/a	4	4	HOOF	FUDGE	HOOF	FUDGE	4	[0, 0, 0]	-999	PAL1	0	R1042M
544.076	5.034	346393	STUDY_PAIR	n/a	4	4	HOOF	FUDGE	HOOF	FUDGE	4	[0, 0, 0]	-999	PAL1	0	R1042M
549.11	0.85	348910	STUDY_ORIENT	n/a	5	3	HOSE	BED	BED	HOSE	4	[0, 0, 0]	-999	PAL1	0	R1042M
549.96	5.018	349335	STUDY_PAIR	n/a	5	3	HOSE	BED	BED	HOSE	4	[0, 0, 0]	-999	PAL1	0	R1042M
554.978	0.983	351844	STUDY_ORIENT	n/a	6	6	BALL	FENCE	FENCE	BALL	4	[0, 0, 0]	-999	PAL1	0	R1042M
555.961	4.001	352335	STUDY_PAIR	n/a	6	6	BALL	FENCE	FENCE	BALL	4	[0, 0, 0]	-999	PAL1	0	R1042M
559.962	1.0	354336	START	n/a	-999	-999	n/a	n/a	n/a	n/a	4	[-999, -999, -999]	-999	PAL1	0	R1042M
560.962	0.017	354835	MATH_START	n/a	-999	-999	n/a	n/a	n/a	n/a	4	[0, 0, 0]	-999	PAL1	0	R1042M
560.979	3.134	354844	PROB	3114	-999	-999	n/a	n/a	n/a	n/a	4	[8, 1, 1]	10	PAL1	0	R1042M
564.113	4.483	356411	PROB	4459	-999	-999	n/a	n/a	n/a	n/a	4	[7, 2, 4]	13	PAL1	0	R1042M
568.596	3.034	358652	PROB	3000	-999	-999	n/a	n/a	n/a	n/a	4	[2, 3, 8]	13	PAL1	0	R1042M
571.63	4.536	360169	PROB	4511	-999	-999	n/a	n/a	n/a	n/a	4	[6, 8, 9]	24	PAL1	0	R1042M
576.166	3.033	362437	PROB	3015	-999	-999	n/a	n/a	n/a	n/a	4	[9, 3, 9]	21	PAL1	0	R1042M
579.199	2.79	363953	PROB	2790	-999	-999	n/a	n/a	n/a	n/a	4	[5, 6, 3]	14	PAL1	0	R1042M
581.989	0.011	365348	STOP	n/a	-999	-999	n/a	n/a	n/a	n/a	4	[-999, -999, -999]	-999	PAL1	0	R1042M
582.0	0.0	365353	MATH_END	n/a	-999	-999	n/a	n/a	n/a	n/a	4	[0, 0, 0]	-999	PAL1	0	R1042M
582.0	0.017	365353	TEST_START	n/a	-999	-999	n/a	n/a	n/a	n/a	4	[0, 0, 0]	-999	PAL1	0	R1042M
582.017	0.9	365362	TEST_ORIENT	n/a	3	1	CART	FLAG	CART	FLAG	4	[0, 0, 0]	-999	PAL1	0	R1042M
582.917	0.0	365812	TEST_PROBE	n/a	3	1	CART	FLAG	CART	FLAG	4	[0, 0, 0]	-999	PAL1	0	R1042M
582.917	1.169	365812	REC_START	n/a	3	-999	n/a	FLAG	n/a	n/a	4	[0, 0, 0]	-999	PAL1	0	R1042M
584.086	3.848	366396	REC_EVENT	1169	3	1	CART	FLAG	CART	FLAG	4	[0, 0, 0]	-999	PAL1	0	R1042M
587.934	0.017	368320	REC_END	n/a	3	-999	n/a	n/a	n/a	n/a	4	[0, 0, 0]	-999	PAL1	0	R1042M
587.951	0.867	368329	TEST_ORIENT	n/a	2	2	COW	MOLE	COW	MOLE	4	[0, 0, 0]	-999	PAL1	0	R1042M
588.818	0.0	368762	REC_START	n/a	2	-999	n/a	MOLE	n/a	n/a	4	[0, 0, 0]	-999	PAL1	0	R1042M
588.818	1.072	368762	TEST_PROBE	n/a	2	2	COW	MOLE	COW	MOLE	4	[0, 0, 0]	-999	PAL1	0	R1042M
589.89	3.946	369298	REC_EVENT	1072	2	2	COW	MOLE	COW	MOLE	4	[0, 0, 0]	-999	PAL1	0	R1042M
593.836	0.016	371271	REC_END	n/a	2	-999	n/a	n/a	n/a	n/a	4	[0, 0, 0]	-999	PAL1	0	R1042M
593.852	0.883	371279	TEST_ORIENT	n/a	5	3	HOSE	BED	BED	HOSE	4	[0, 0, 0]	-999	PAL1	0	R1042M
594.735	0.0	371720	TEST_PROBE	n/a	5	3	HOSE	BED	BED	HOSE	4	[0, 0, 0]	-999	PAL1	0	R1042M
594.735	1.111	371720	REC_START	n/a	5	-999	n/a	BED	n/a	n/a	4	[0, 0, 0]	-999	PAL1	0	R1042M
595.846	3.906	372276	REC_EVENT	1111	5	3	HOSE	BED	BED	HOSE	4	[0, 0, 0]	-999	PAL1	0	R1042M
599.752	0.017	374228	REC_END	n/a	5	-999	n/a	n/a	n/a	n/a	4	[0, 0, 0]	-999	PAL1	0	R1042M
599.769	0.934	374237	TEST_ORIENT	n/a	4	4	HOOF	FUDGE	HOOF	FUDGE	4	[0, 0, 0]	-999	PAL1	0	R1042M
600.703	0.0	374704	TEST_PROBE	n/a	4	4	HOOF	FUDGE	HOOF	FUDGE	4	[0, 0, 0]	-999	PAL1	0	R1042M
600.703	1.012	374704	REC_START	n/a	4	-999	n/a	FUDGE	n/a	n/a	4	[0, 0, 0]	-999	PAL1	0	R1042M
601.715	4.005	375210	REC_EVENT	1012	4	4	HOOF	FUDGE	HOOF	FUDGE	4	[0, 0, 0]	-999	PAL1	0	R1042M
605.72	0.017	377212	REC_END	n/a	4	-999	n/a	n/a	n/a	n/a	4	[0, 0, 0]	-999	PAL1	0	R1042M
605.737	0.967	377221	TEST_ORIENT	n/a	1	5	STICK	PEN	PEN	STICK	4	[0, 0, 0]	-999	PAL1	0	R1042M
606.704	0.001	377704	TEST_PROBE	n/a	1	5	STICK	PEN	PEN	STICK	4	[0, 0, 0]	-999	PAL1	0	R1042M
606.705	0.914	377705	REC_START	n/a	1	-999	n/a	PEN	n/a	n/a	4	[0, 0, 0]	-999	PAL1	0	R1042M
607.619	4.102	378162	REC_EVENT	914	1	5	STICK	PEN	PEN	STICK	4	[0, 0, 0]	-999	PAL1	0	R1042M
611.721	0.017	380212	REC_END	n/a	1	-999	n/a	n/a	n/a	n/a	4	[0, 0, 0]	-999	PAL1	0	R1042M
611.738	0.934	380221	TEST_ORIENT	n/a	6	6	BALL	FENCE	FENCE	BALL	4	[0, 0, 0]	-999	PAL1	0	R1042M
612.672	0.0	380688	TEST_PROBE	n/a	6	6	BALL	FENCE	FENCE	BALL	4	[0, 0, 0]	-999	PAL1	0	R1042M
612.672	0.831	380688	REC_START	n/a	6	-999	n/a	FENCE	n/a	n/a	4	[0, 0, 0]	-999	PAL1	0	R1042M
613.503	4.186	381103	REC_EVENT	831	6	6	BALL	FENCE	FENCE	BALL	4	[0, 0, 0]	-999	PAL1	0	R1042M
617.689	61.612	383196	REC_END	n/a	6	-999	n/a	n/a	n/a	n/a	4	[0, 0, 0]	-999	PAL1	0	R1042M
679.301	10.453	413999	ENCODING_START	n/a	0	-999	n/a	n/a	n/a	n/a	5	[0, 0, 0]	-999	PAL1	0	R1042M
689.754	0.833	419225	STUDY_ORIENT	n/a	1	5	TANK	CONE	CONE	TANK	5	[0, 0, 0]	-999	PAL1	0	R1042M
690.587	5.018	419641	STUDY_PAIR	n/a	1	5	TANK	CONE	CONE	TANK	5	[0, 0, 0]	-999	PAL1	0	R1042M
695.605	0.867	422150	STUDY_ORIENT	n/a	2	2	CAPE	PIT	CAPE	PIT	5	[0, 0, 0]	-999	PAL1	0	R1042M
696.472	5.018	422584	STUDY_PAIR	n/a	2	2	CAPE	PIT	CAPE	PIT	5	[0, 0, 0]	-999	PAL1	0	R1042M
701.49	0.867	425092	STUDY_ORIENT	n/a	3	3	VEST	DIME	VEST	DIME	5	[0, 0, 0]	-999	PAL1	0	R1042M
702.357	5.018	425526	STUDY_PAIR	n/a	3	3	VEST	DIME	VEST	DIME	5	[0, 0, 0]	-999	PAL1	0	R1042M
707.375	0.967	428034	STUDY_ORIENT	n/a	4	6	RUG	MUD	RUG	MUD	5	[0, 0, 0]	-999	PAL1	0	R1042M
708.342	5.034	428518	STUDY_PAIR	n/a	4	6	RUG	MUD	RUG	MUD	5	[0, 0, 0]	-999	PAL1	0	R1042M
713.376	1.001	431035	STUDY_ORIENT	n/a	5	1	FLEA	CAT	FLEA	CAT	5	[0, 0, 0]	-999	PAL1	0	R1042M
714.377	5.034	431535	STUDY_PAIR	n/a	5	1	FLEA	CAT	FLEA	CAT	5	[0, 0, 0]	-999	PAL1	0	R1042M
719.411	0.8	434052	STUDY_ORIENT	n/a	6	4	SHIRT	OAK	OAK	SHIRT	5	[0, 0, 0]	-999	PAL1	0	R1042M
720.211	4.018	434452	STUDY_PAIR	n/a	6	4	SHIRT	OAK	OAK	SHIRT	5	[0, 0, 0]	-999	PAL1	0	R1042M
724.229	0.999	436461	START	n/a	-999	-999	n/a	n/a	n/a	n/a	5	[-999, -999, -999]	-999	PAL1	0	R1042M
725.228	0.017	436960	MATH_START	n/a	-999	-999	n/a	n/a	n/a	n/a	5	[0, 0, 0]	-999	PAL1	0	R1042M
725.245	3.618	436969	PROB	3584	-999	-999	n/a	n/a	n/a	n/a	5	[3, 2, 9]	14	PAL1	0	R1042M
728.863	2.666	438777	PROB	2645	-999	-999	n/a	n/a	n/a	n/a	5	[9, 5, 6]	20	PAL1	0	R1042M
731.529	7.051	440110	PROB	7027	-999	-999	n/a	n/a	n/a	n/a	5	[9, 9, 7]	25	PAL1	0	R1042M
738.58	3.101	443635	PROB	3072	-999	-999	n/a	n/a	n/a	n/a	5	[6, 1, 3]	10	PAL1	0	R1042M
741.681	2.401	445186	PROB	2380	-999	-999	n/a	n/a	n/a	n/a	5	[3, 3, 8]	14	PAL1	0	R1042M
744.082	3.099	446386	PROB	3099	-999	-999	n/a	n/a	n/a	n/a	5	[8, 6, 8]	22	PAL1	0	R1042M
747.181	0.002	447935	STOP	n/a	-999	-999	n/a	n/a	n/a	n/a	5	[-999, -999, -999]	-999	PAL1	0	R1042M
747.183	0.0	447936	MATH_END	n/a	-999	-999	n/a	n/a	n/a	n/a	5	[0, 0, 0]	-999	PAL1	0	R1042M
747.183	0.017	447936	TEST_START	n/a	-999	-999	n/a	n/a	n/a	n/a	5	[0, 0, 0]	-999	PAL1	0	R1042M
747.2	0.95	447945	TEST_ORIENT	n/a	5	1	FLEA	CAT	FLEA	CAT	5	[0, 0, 0]	-999	PAL1	0	R1042M
748.15	0.0	448420	TEST_PROBE	n/a	5	1	FLEA	CAT	FLEA	CAT	5	[0, 0, 0]	-999	PAL1	0	R1042M
748.15	1.128	448420	REC_START	n/a	5	-999	n/a	CAT	n/a	n/a	5	[0, 0, 0]	-999	PAL1	0	R1042M
749.278	3.889	448984	REC_EVENT	1128	5	1	FLEA	CAT	FLEA	CAT	5	[0, 0, 0]	-999	PAL1	0	R1042M
753.167	0.017	450928	REC_END	n/a	5	-999	n/a	n/a	n/a	n/a	5	[0, 0, 0]	-999	PAL1	0	R1042M
753.184	1.034	450937	TEST_ORIENT	n/a	2	2	CAPE	PIT	CAPE	PIT	5	[0, 0, 0]	-999	PAL1	0	R1042M
754.218	0.0	451454	TEST_PROBE	n/a	2	2	CAPE	PIT	CAPE	PIT	5	[0, 0, 0]	-999	PAL1	0	R1042M
754.218	2.125	451454	REC_START	n/a	2	-999	n/a	PIT	n/a	n/a	5	[0, 0, 0]	-999	PAL1	0	R1042M
756.343	2.892	452516	REC_EVENT	2125	2	2	CAPE	PIT	CAPE	PIT	5	[0, 0, 0]	-999	PAL1	0	R1042M
759.235	0.017	453962	REC_END	n/a	2	-999	n/a	n/a	n/a	n/a	5	[0, 0, 0]	-999	PAL1	0	R1042M
759.252	1.017	453970	TEST_ORIENT	n/a	3	3	VEST	DIME	VEST	DIME	5	[0, 0, 0]	-999	PAL1	0	R1042M
760.269	0.0	454479	TEST_PROBE	n/a	3	3	VEST	DIME	VEST	DIME	5	[0, 0, 0]	-999	PAL1	0	R1042M
760.269	0.896	454479	REC_START	n/a	3	-999	n/a	DIME	n/a	n/a	5	[0, 0, 0]	-999	PAL1	0	R1042M
761.165	4.121	454927	REC_EVENT	896	3	3	VEST	DIME	VEST	DIME	5	[0, 0, 0]	-999	PAL1	0	R1042M
765.286	0.017	456987	REC_END	n/a	3	-999	n/a	n/a	n/a	n/a	5	[0, 0, 0]	-999	PAL1	0	R1042M
765.303	0.9	456996	TEST_ORIENT	n/a	6	4	SHIRT	OAK	OAK	SHIRT	5	[0, 0, 0]	-999	PAL1	0	R1042M
766.203	0.001	457445	TEST_PROBE	n/a	6	4	SHIRT	OAK	OAK	SHIRT	5	[0, 0, 0]	-999	PAL1	0	R1042M
766.204	1.098	457446	REC_START	n/a	6	-999	n/a	OAK	n/a	n/a	5	[0, 0, 0]	-999	PAL1	0	R1042M
767.302	3.91	457995	REC_EVENT	1098	6	4	SHIRT	OAK	OAK	SHIRT	5	[0, 0, 0]	-999	PAL1	0	R1042M
771.212	0.009	459950	REC_END	n/a	6	-999	n/a	n/a	n/a	n/a	5	[0, 0, 0]	-999	PAL1	0	R1042M
771.221	0.884	459954	TEST_ORIENT	n/a	1	5	TANK	CONE	CONE	TANK	5	[0, 0, 0]	-999	PAL1	0	R1042M
772.105	0.001	460396	TEST_PROBE	n/a	1	5	TANK	CONE	CONE	TANK	5	[0, 0, 0]	-999	PAL1	0	R1042M
772.106	1.316	460397	REC_START	n/a	1	-999	n/a	CONE	n/a	n/a	5	[0, 0, 0]	-999	PAL1	0	R1042M
773.422	3.709	461055	REC_EVENT	1316	1	5	TANK	CONE	CONE	TANK	5	[0, 0, 0]	-999	PAL1	0	R1042M
777.131	0.008	462909	REC_END	n/a	1	-999	n/a	n/a	n/a	n/a	5	[0, 0, 0]	-999	PAL1	0	R1042M
777.139	0.95	462913	TEST_ORIENT	n/a	4	6	RUG	MUD	RUG	MUD	5	[0, 0, 0]	-999	PAL1	0	R1042M
778.089	0.001	463388	TEST_PROBE	n/a	4	6	RUG	MUD	RUG	MUD	5	[0, 0, 0]	-999	PAL1	0	R1042M
778.09	0.778	463388	REC_START	n/a	4	-999	n/a	MUD	n/a	n/a	5	[0, 0, 0]	-999	PAL1	0	R1042M
778.868	4.231	463777	REC_EVENT	778	4	6	RUG	MUD	RUG	MUD	5	[0, 0, 0]	-999	PAL1	0	R1042M
783.099	3.066	465893	REC_END	n/a	4	-999	n/a	n/a	n/a	n/a	5	[0, 0, 0]	-999	PAL1	0	R1042M
786.165	10.444	467425	ENCODING_START	n/a	0	-999	n/a	n/a	n/a	n/a	6	[0, 0, 0]	-999	PAL1	0	R1042M
796.609	0.834	472647	STUDY_ORIENT	n/a	1	3	TEA	SHIELD	TEA	SHIELD	6	[0, 0, 0]	-999	PAL1	0	R1042M
797.443	5.018	473064	STUDY_PAIR	n/a	1	3	TEA	SHIELD	TEA	SHIELD	6	[0, 0, 0]	-999	PAL1	0	R1042M
802.461	0.95	475573	STUDY_ORIENT	n/a	2	2	CLOWN	STONE	CLOWN	STONE	6	[0, 0, 0]	-999	PAL1	0	R1042M
803.411	5.034	476048	STUDY_PAIR	n/a	2	2	CLOWN	STONE	CLOWN	STONE	6	[0, 0, 0]	-999	PAL1	0	R1042M
808.445	0.85	478564	STUDY_ORIENT	n/a	3	1	BADGE	TOOL	BADGE	TOOL	6	[0, 0, 0]	-999	PAL1	0	R1042M
809.295	5.018	478989	STUDY_PAIR	n/a	3	1	BADGE	TOOL	BADGE	TOOL	6	[0, 0, 0]	-999	PAL1	0	R1042M
814.313	0.917	481498	STUDY_ORIENT	n/a	4	6	DOOR	LAND	LAND	DOOR	6	[0, 0, 0]	-999	PAL1	0	R1042M
815.23	5.034	481956	STUDY_PAIR	n/a	4	6	DOOR	LAND	LAND	DOOR	6	[0, 0, 0]	-999	PAL1	0	R1042M
820.264	0.834	484473	STUDY_ORIENT	n/a	5	5	ROPE	ELF	ROPE	ELF	6	[0, 0, 0]	-999	PAL1	0	R1042M
821.098	5.034	484890	STUDY_PAIR	n/a	5	5	ROPE	ELF	ROPE	ELF	6	[0, 0, 0]	-999	PAL1	0	R1042M
826.132	0.85	487407	STUDY_ORIENT	n/a	6	4	CANE	LAMP	CANE	LAMP	6	[0, 0, 0]	-999	PAL1	0	R1042M
826.982	4.001	487832	STUDY_PAIR	n/a	6	4	CANE	LAMP	CANE	LAMP	6	[0, 0, 0]	-999	PAL1	0	R1042M
830.983	1.0	489832	START	n/a	-999	-999	n/a	n/a	n/a	n/a	6	[-999, -999, -999]	-999	PAL1	0	R1042M
831.983	0.017	490332	MATH_START	n/a	-999	-999	n/a	n/a	n/a	n/a	6	[0, 0, 0]	-999	PAL1	0	R1042M
832.0	2.3	490341	PROB	2277	-999	-999	n/a	n/a	n/a	n/a	6	[1, 4, 6]	11	PAL1	0	R1042M
834.3	3.484	491490	PROB	3456	-999	-999	n/a	n/a	n/a	n/a	6	[9, 8, 7]	24	PAL1	0	R1042M
837.784	3.068	493232	PROB	3045	-999	-999	n/a	n/a	n/a	n/a	6	[9, 6, 4]	19	PAL1	0	R1042M
840.852	2.484	494766	PROB	2465	-999	-999	n/a	n/a	n/a	n/a	6	[5, 5, 5]	15	PAL1	0	R1042M
843.336	2.416	496008	PROB	2396	-999	-999	n/a	n/a	n/a	n/a	6	[3, 1, 8]	12	PAL1	0	R1042M
845.752	2.568	497216	PROB	2533	-999	-999	n/a	n/a	n/a	n/a	6	[6, 1, 9]	16	PAL1	0	R1042M
848.32	2.233	498500	PROB	2212	-999	-999	n/a	n/a	n/a	n/a	6	[1, 2, 1]	4	PAL1	0	R1042M
850.553	2.916	499616	PROB	2916	-999	-999	n/a	n/a	n/a	n/a	6	[1, 3, 5]	9	PAL1	0	R1042M
853.469	0.002	501074	STOP	n/a	-999	-999	n/a	n/a	n/a	n/a	6	[-999, -999, -999]	-999	PAL1	0	R1042M
853.471	0.0	501075	MATH_END	n/a	-999	-999	n/a	n/a	n/a	n/a	6	[0, 0, 0]	-999	PAL1	0	R1042M
853.471	0.016	501075	TEST_START	n/a	-999	-999	n/a	n/a	n/a	n/a	6	[0, 0, 0]	-999	PAL1	0	R1042M
853.487	0.917	501083	TEST_ORIENT	n/a	3	1	BADGE	TOOL	BADGE	TOOL	6	[0, 0, 0]	-999	PAL1	0	R1042M
854.404	0.001	501541	TEST_PROBE	n/a	3	1	BADGE	TOOL	BADGE	TOOL	6	[0, 0, 0]	-999	PAL1	0	R1042M
854.405	1.147	501542	REC_START	n/a	3	-999	n/a	TOOL	n/a	n/a	6	[0, 0, 0]	-999	PAL1	0	R1042M
855.552	3.861	502115	REC_EVENT	1147	3	1	BADGE	TOOL	BADGE	TOOL	6	[0, 0, 0]	-999	PAL1	0	R1042M
859.413	0.009	504046	REC_END	n/a	3	-999	n/a	n/a	n/a	n/a	6	[0, 0, 0]	-999	PAL1	0	R1042M
859.422	0.8	504050	TEST_ORIENT	n/a	2	2	CLOWN	STONE	CLOWN	STONE	6	[0, 0, 0]	-999	PAL1	0	R1042M
860.222	0.001	504450	TEST_PROBE	n/a	2	2	CLOWN	STONE	CLOWN	STONE	6	[0, 0, 0]	-999	PAL1	0	R1042M
860.223	0.856	504451	REC_START	n/a	2	-999	n/a	STONE	n/a	n/a	6	[0, 0, 0]	-999	PAL1	0	R1042M
861.079	4.152	504879	REC_EVENT	856	2	2	CLOWN	STONE	CLOWN	STONE	6	[0, 0, 0]	-999	PAL1	0	R1042M
865.231	0.009	506954	REC_END	n/a	2	-999	n/a	n/a	n/a	n/a	6	[0, 0, 0]	-999	PAL1	0	R1042M
865.24	0.95	506959	TEST_ORIENT	n/a	1	3	TEA	SHIELD	TEA	SHIELD	6	[0, 0, 0]	-999	PAL1	0	R1042M
866.19	0.001	507434	TEST_PROBE	n/a	1	3	TEA	SHIELD	TEA	SHIELD	6	[0, 0, 0]	-999	PAL1	0	R1042M
866.191	1.012	507434	REC_START	n/a	1	-999	n/a	SHIELD	n/a	n/a	6	[0, 0, 0]	-999	PAL1	0	R1042M
867.203	3.996	507940	REC_EVENT	1012	1	3	TEA	SHIELD	TEA	SHIELD	6	[0, 0, 0]	-999	PAL1	0	R1042M
871.199	0.009	509938	REC_END	n/a	1	-999	n/a	n/a	n/a	n/a	6	[0, 0, 0]	-999	PAL1	0	R1042M
871.208	0.817	509943	TEST_ORIENT	n/a	6	4	CANE	LAMP	CANE	LAMP	6	[0, 0, 0]	-999	PAL1	0	R1042M
872.025	0.0	510351	TEST_PROBE	n/a	6	4	CANE	LAMP	CANE	LAMP	6	[0, 0, 0]	-999	PAL1	0	R1042M
872.025	1.286	510351	REC_START	n/a	6	-999	n/a	LAMP	n/a	n/a	6	[0, 0, 0]	-999	PAL1	0	R1042M
873.311	3.731	510994	REC_EVENT	1286	6	4	CANE	LAMP	CANE	LAMP	6	[0, 0, 0]	-999	PAL1	0	R1042M
877.042	0.017	512859	REC_END	n/a	6	-999	n/a	n/a	n/a	n/a	6	[0, 0, 0]	-999	PAL1	0	R1042M
877.059	0.85	512868	TEST_ORIENT	n/a	5	5	ROPE	ELF	ROPE	ELF	6	[0, 0, 0]	-999	PAL1	0	R1042M
877.909	0.0	513293	REC_START	n/a	5	-999	n/a	ELF	n/a	n/a	6	[0, 0, 0]	-999	PAL1	0	R1042M
877.909	0.903	513293	TEST_PROBE	n/a	5	5	ROPE	ELF	ROPE	ELF	6	[0, 0, 0]	-999	PAL1	0	R1042M
878.812	4.107	513744	REC_EVENT	903	5	5	ROPE	ELF	ROPE	ELF	6	[0, 0, 0]	-999	PAL1	0	R1042M
882.919	0.008	515797	REC_END	n/a	5	-999	n/a	n/a	n/a	n/a	6	[0, 0, 0]	-999	PAL1	0	R1042M
882.927	0.832	515801	TEST_ORIENT	n/a	4	6	DOOR	LAND	LAND	DOOR	6	[0, 0, 0]	-999	PAL1	0	R1042M
883.759	0.001	516217	TEST_PROBE	n/a	4	6	DOOR	LAND	LAND	DOOR	6	[0, 0, 0]	-999	PAL1	0	R1042M
883.76	3.13	516218	REC_START	n/a	4	-999	n/a	LAND	n/a	n/a	6	[0, 0, 0]	-999	PAL1	0	R1042M
886.89	1.878	517783	REC_EVENT	3130	4	6	DOOR	LAND	LAND	DOOR	6	[0, 0, 0]	-999	PAL1	0	R1042M
888.768	77.94	518722	REC_END	n/a	4	-999	n/a	n/a	n/a	n/a	6	[0, 0, 0]	-999	PAL1	0	R1042M
966.708	10.454	557688	ENCODING_START	n/a	0	-999	n/a	n/a	n/a	n/a	7	[0, 0, 0]	-999	PAL1	0	R1042M
977.162	0.8	562914	STUDY_ORIENT	n/a	1	3	FILM	JUDGE	JUDGE	FILM	7	[0, 0, 0]	-999	PAL1	0	R1042M
977.962	5.018	563314	STUDY_PAIR	n/a	1	3	FILM	JUDGE	JUDGE	FILM	7	[0, 0, 0]	-999	PAL1	0	R1042M
982.98	1.0	565823	STUDY_ORIENT	n/a	2	4	CUP	PLATE	CUP	PLATE	7	[0, 0, 0]	-999	PAL1	0	R1042M
983.98	5.018	566323	STUDY_PAIR	n/a	2	4	CUP	PLATE	CUP	PLATE	7	[0, 0, 0]	-999	PAL1	0	R1042M
988.998	0.95	568832	STUDY_ORIENT	n/a	3	5	PRINCE	TIE	TIE	PRINCE	7	[0, 0, 0]	-999	PAL1	0	R1042M
989.948	5.018	569307	STUDY_PAIR	n/a	3	5	PRINCE	TIE	TIE	PRINCE	7	[0, 0, 0]	-999	PAL1	0	R1042M
994.966	0.799	571815	STUDY_ORIENT	n/a	4	6	NAIL	BUSH	NAIL	BUSH	7	[0, 0, 0]	-999	PAL1	0	R1042M
995.765	5.035	572215	STUDY_PAIR	n/a	4	6	NAIL	BUSH	NAIL	BUSH	7	[0, 0, 0]	-999	PAL1	0	R1042M
1000.8	0.833	574732	STUDY_ORIENT	n/a	5	1	SMOKE	CALF	CALF	SMOKE	7	[0, 0, 0]	-999	PAL1	0	R1042M
1001.633	5.034	575148	STUDY_PAIR	n/a	5	1	SMOKE	CALF	CALF	SMOKE	7	[0, 0, 0]	-999	PAL1	0	R1042M
1006.667	0.917	577665	STUDY_ORIENT	n/a	6	2	STORE	BREAD	STORE	BREAD	7	[0, 0, 0]	-999	PAL1	0	R1042M
1007.584	4.001	578124	STUDY_PAIR	n/a	6	2	STORE	BREAD	STORE	BREAD	7	[0, 0, 0]	-999	PAL1	0	R1042M
1011.585	1.0	580124	START	n/a	-999	-999	n/a	n/a	n/a	n/a	7	[-999, -999, -999]	-999	PAL1	0	R1042M
1012.585	0.017	580624	MATH_START	n/a	-999	-999	n/a	n/a	n/a	n/a	7	[0, 0, 0]	-999	PAL1	0	R1042M
1012.602	2.851	580632	PROB	2827	-999	-999	n/a	n/a	n/a	n/a	7	[1, 5, 4]	10	PAL1	0	R1042M
1015.453	3.05	582058	PROB	3031	-999	-999	n/a	n/a	n/a	n/a	7	[6, 4, 4]	14	PAL1	0	R1042M
1018.503	2.735	583583	PROB	2702	-999	-999	n/a	n/a	n/a	n/a	7	[3, 6, 5]	14	PAL1	0	R1042M
1021.238	1.7	584950	PROB	1671	-999	-999	n/a	n/a	n/a	n/a	7	[1, 6, 4]	11	PAL1	0	R1042M
1022.938	3.034	585800	PROB	3011	-999	-999	n/a	n/a	n/a	n/a	7	[7, 5, 4]	16	PAL1	0	R1042M
1025.972	3.117	587317	PROB	3089	-999	-999	n/a	n/a	n/a	n/a	7	[8, 7, 5]	20	PAL1	0	R1042M
1029.089	2.563	588875	PROB	2563	-999	-999	n/a	n/a	n/a	n/a	7	[4, 3, 3]	10	PAL1	0	R1042M
1031.652	0.004	590156	STOP	n/a	-999	-999	n/a	n/a	n/a	n/a	7	[-999, -999, -999]	-999	PAL1	0	R1042M
1031.656	0.0	590158	MATH_END	n/a	-999	-999	n/a	n/a	n/a	n/a	7	[0, 0, 0]	-999	PAL1	0	R1042M
1031.656	0.016	590158	TEST_START	n/a	-999	-999	n/a	n/a	n/a	n/a	7	[0, 0, 0]	-999	PAL1	0	R1042M
1031.672	0.984	590166	TEST_ORIENT	n/a	5	1	SMOKE	CALF	CALF	SMOKE	7	[0, 0, 0]	-999	PAL1	0	R1042M
1032.656	0.0	590658	TEST_PROBE	n/a	5	1	SMOKE	CALF	CALF	SMOKE	7	[0, 0, 0]	-999	PAL1	0	R1042M
1032.656	1.092	590658	REC_START	n/a	5	-999	n/a	CALF	n/a	n/a	7	[0, 0, 0]	-999	PAL1	0	R1042M
1033.748	3.925	591204	REC_EVENT	1092	5	1	SMOKE	CALF	CALF	SMOKE	7	[0, 0, 0]	-999	PAL1	0	R1042M
1037.673	0.017	593167	REC_END	n/a	5	-999	n/a	n/a	n/a	n/a	7	[0, 0, 0]	-999	PAL1	0	R1042M
1037.69	0.834	593175	TEST_ORIENT	n/a	6	2	STORE	BREAD	STORE	BREAD	7	[0, 0, 0]	-999	PAL1	0	R1042M
1038.524	0.0	593592	TEST_PROBE	n/a	6	2	STORE	BREAD	STORE	BREAD	7	[0, 0, 0]	-999	PAL1	0	R1042M
1038.524	0.925	593592	REC_START	n/a	6	-999	n/a	BREAD	n/a	n/a	7	[0, 0, 0]	-999	PAL1	0	R1042M
1039.449	4.092	594054	REC_EVENT	925	6	2	STORE	BREAD	STORE	BREAD	7	[0, 0, 0]	-999	PAL1	0	R1042M
1043.541	0.017	596100	REC_END	n/a	6	-999	n/a	n/a	n/a	n/a	7	[0, 0, 0]	-999	PAL1	0	R1042M
1043.558	0.784	596109	TEST_ORIENT	n/a	1	3	FILM	JUDGE	JUDGE	FILM	7	[0, 0, 0]	-999	PAL1	0	R1042M
1044.342	0.001	596501	TEST_PROBE	n/a	1	3	FILM	JUDGE	JUDGE	FILM	7	[0, 0, 0]	-999	PAL1	0	R1042M
1044.343	1.21	596501	REC_START	n/a	1	-999	n/a	JUDGE	n/a	n/a	7	[0, 0, 0]	-999	PAL1	0	R1042M
1045.553	3.79	597106	REC_EVENT	1210	1	3	FILM	JUDGE	JUDGE	FILM	7	[0, 0, 0]	-999	PAL1	0	R1042M
1049.343	0.017	599001	REC_END	n/a	1	-999	n/a	n/a	n/a	n/a	7	[0, 0, 0]	-999	PAL1	0	R1042M
1049.36	0.817	599009	TEST_ORIENT	n/a	2	4	CUP	PLATE	CUP	PLATE	7	[0, 0, 0]	-999	PAL1	0	R1042M
1050.177	0.0	599418	TEST_PROBE	n/a	2	4	CUP	PLATE	CUP	PLATE	7	[0, 0, 0]	-999	PAL1	0	R1042M
1050.177	0.974	599418	REC_START	n/a	2	-999	n/a	PLATE	n/a	n/a	7	[0, 0, 0]	-999	PAL1	0	R1042M
1051.151	4.043	599905	REC_EVENT	974	2	4	CUP	PLATE	CUP	PLATE	7	[0, 0, 0]	-999	PAL1	0	R1042M
1055.194	0.017	601926	REC_END	n/a	2	-999	n/a	n/a	n/a	n/a	7	[0, 0, 0]	-999	PAL1	0	R1042M
1055.211	1.017	601935	TEST_ORIENT	n/a	3	5	PRINCE	TIE	TIE	PRINCE	7	[0, 0, 0]	-999	PAL1	0	R1042M
1056.228	0.001	602443	TEST_PROBE	n/a	3	5	PRINCE	TIE	TIE	PRINCE	7	[0, 0, 0]	-999	PAL1	0	R1042M
1056.229	0.861	602444	REC_START	n/a	3	-999	n/a	TIE	n/a	n/a	7	[0, 0, 0]	-999	PAL1	0	R1042M
1057.09	4.147	602874	REC_EVENT	861	3	5	PRINCE	TIE	TIE	PRINCE	7	[0, 0, 0]	-999	PAL1	0	R1042M
1061.237	0.009	604947	REC_END	n/a	3	-999	n/a	n/a	n/a	n/a	7	[0, 0, 0]	-999	PAL1	0	R1042M
1061.246	0.967	604952	TEST_ORIENT	n/a	4	6	NAIL	BUSH	NAIL	BUSH	7	[0, 0, 0]	-999	PAL1	0	R1042M
1062.213	0.0	605435	TEST_PROBE	n/a	4	6	NAIL	BUSH	NAIL	BUSH	7	[0, 0, 0]	-999	PAL1	0	R1042M
1062.213	1.027	605435	REC_START	n/a	4	-999	n/a	BUSH	n/a	n/a	7	[0, 0, 0]	-999	PAL1	0	R1042M
1063.24	3.998	605949	REC_EVENT	1027	4	6	NAIL	BUSH	NAIL	BUSH	7	[0, 0, 0]	-999	PAL1	0	R1042M
1067.238	30.326	607948	REC_END	n/a	4	-999	n/a	n/a	n/a	n/a	7	[0, 0, 0]	-999	PAL1	0	R1042M
1097.564	10.441	623109	ENCODING_START	n/a	0	-999	n/a	n/a	n/a	n/a	8	[0, 0, 0]	-999	PAL1	0	R1042M
1108.005	0.917	628329	STUDY_ORIENT	n/a	1	5	APE	VAN	VAN	APE	8	[0, 0, 0]	-999	PAL1	0	R1042M
1108.922	5.034	628787	STUDY_PAIR	n/a	1	5	APE	VAN	VAN	APE	8	[0, 0, 0]	-999	PAL1	0	R1042M
1113.956	0.967	631304	STUDY_ORIENT	n/a	2	6	JAR	LEAF	JAR	LEAF	8	[0, 0, 0]	-999	PAL1	0	R1042M
1114.923	5.018	631788	STUDY_PAIR	n/a	2	6	JAR	LEAF	JAR	LEAF	8	[0, 0, 0]	-999	PAL1	0	R1042M
1119.941	1.017	634296	STUDY_ORIENT	n/a	3	3	DART	NET	DART	NET	8	[0, 0, 0]	-999	PAL1	0	R1042M
1120.958	5.034	634805	STUDY_PAIR	n/a	3	3	DART	NET	DART	NET	8	[0, 0, 0]	-999	PAL1	0	R1042M
1125.992	1.017	637322	STUDY_ORIENT	n/a	4	2	MOOSE	PIPE	PIPE	MOOSE	8	[0, 0, 0]	-999	PAL1	0	R1042M
1127.009	5.034	637830	STUDY_PAIR	n/a	4	2	MOOSE	PIPE	PIPE	MOOSE	8	[0, 0, 0]	-999	PAL1	0	R1042M
1132.043	0.834	640347	STUDY_ORIENT	n/a	5	1	SQUARE	GLOVE	SQUARE	GLOVE	8	[0, 0, 0]	-999	PAL1	0	R1042M
1132.877	5.034	640764	STUDY_PAIR	n/a	5	1	SQUARE	GLOVE	SQUARE	GLOVE	8	[0, 0, 0]	-999	PAL1	0	R1042M
1137.911	0.884	643280	STUDY_ORIENT	n/a	6	4	HEART	BENCH	HEART	BENCH	8	[0, 0, 0]	-999	PAL1	0	R1042M
1138.795	4.018	643722	STUDY_PAIR	n/a	6	4	HEART	BENCH	HEART	BENCH	8	[0, 0, 0]	-999	PAL1	0	R1042M
1142.813	0.999	645731	START	n/a	-999	-999	n/a	n/a	n/a	n/a	8	[-999, -999, -999]	-999	PAL1	0	R1042M
1143.812	0.017	646231	MATH_START	n/a	-999	-999	n/a	n/a	n/a	n/a	8	[0, 0, 0]	-999	PAL1	0	R1042M
1143.829	2.284	646239	PROB	2256	-999	-999	n/a	n/a	n/a	n/a	8	[5, 5, 3]	13	PAL1	0	R1042M
1146.113	3.1	647381	PROB	3076	-999	-999	n/a	n/a	n/a	n/a	8	[8, 6, 4]	18	PAL1	0	R1042M
1149.213	5.251	648931	PROB	5224	-999	-999	n/a	n/a	n/a	n/a	8	[3, 9, 1]	13	PAL1	0	R1042M
1154.464	2.818	651556	PROB	2789	-999	-999	n/a	n/a	n/a	n/a	8	[6, 7, 7]	22	PAL1	0	R1042M
1157.282	2.183	652965	PROB	2155	-999	-999	n/a	n/a	n/a	n/a	8	[4, 3, 8]	15	PAL1	0	R1042M
1159.465	2.868	654056	PROB	2836	-999	-999	n/a	n/a	n/a	n/a	8	[5, 8, 5]	18	PAL1	0	R1042M
1162.333	2.343	655490	PROB	2343	-999	-999	n/a	n/a	n/a	n/a	8	[2, 6, 2]	10	PAL1	0	R1042M
1164.676	0.006	656662	STOP	n/a	-999	-999	n/a	n/a	n/a	n/a	8	[-999, -999, -999]	-999	PAL1	0	R1042M
1164.682	0.0	656665	MATH_END	n/a	-999	-999	n/a	n/a	n/a	n/a	8	[0, 0, 0]	-999	PAL1	0	R1042M
1164.682	0.017	656665	TEST_START	n/a	-999	-999	n/a	n/a	n/a	n/a	8	[0, 0, 0]	-999	PAL1	0	R1042M
1164.699	1.017	656673	TEST_ORIENT	n/a	5	1	SQUARE	GLOVE	SQUARE	GLOVE	8	[0, 0, 0]	-999	PAL1	0	R1042M
1165.716	0.001	657182	TEST_PROBE	n/a	5	1	SQUARE	GLOVE	SQUARE	GLOVE	8	[0, 0, 0]	-999	PAL1	0	R1042M
1165.717	1.18	657182	REC_START	n/a	5	-999	n/a	GLOVE	n/a	n/a	8	[0, 0, 0]	-999	PAL1	0	R1042M
1166.897	3.844	657772	REC_EVENT	1180	5	1	SQUARE	GLOVE	SQUARE	GLOVE	8	[0, 0, 0]	-999	PAL1	0	R1042M
1170.741	0.009	659694	REC_END	n/a	5	-999	n/a	n/a	n/a	n/a	8	[0, 0, 0]	-999	PAL1	0	R1042M
1170.75	0.917	659698	TEST_ORIENT	n/a	4	2	MOOSE	PIPE	PIPE	MOOSE	8	[0, 0, 0]	-999	PAL1	0	R1042M
1171.667	0.0	660157	TEST_PROBE	n/a	4	2	MOOSE	PIPE	PIPE	MOOSE	8	[0, 0, 0]	-999	PAL1	0	R1042M
1171.667	0.915	660157	REC_START	n/a	4	-999	n/a	PIPE	n/a	n/a	8	[0, 0, 0]	-999	PAL1	0	R1042M
1172.582	4.102	660614	REC_EVENT	915	4	2	MOOSE	PIPE	PIPE	MOOSE	8	[0, 0, 0]	-999	PAL1	0	R1042M
1176.684	0.017	662665	REC_END	n/a	4	-999	n/a	n/a	n/a	n/a	8	[0, 0, 0]	-999	PAL1	0	R1042M
1176.701	0.984	662673	TEST_ORIENT	n/a	3	3	DART	NET	DART	NET	8	[0, 0, 0]	-999	PAL1	0	R1042M
1177.685	0.0	663165	REC_START	n/a	3	-999	n/a	NET	n/a	n/a	8	[0, 0, 0]	-999	PAL1	0	R1042M
1177.685	1.006	663165	TEST_PROBE	n/a	3	3	DART	NET	DART	NET	8	[0, 0, 0]	-999	PAL1	0	R1042M
1178.691	4.011	663668	REC_EVENT	1006	3	3	DART	NET	DART	NET	8	[0, 0, 0]	-999	PAL1	0	R1042M
1182.702	0.017	665674	REC_END	n/a	3	-999	n/a	n/a	n/a	n/a	8	[0, 0, 0]	-999	PAL1	0	R1042M
1182.719	0.8	665682	TEST_ORIENT	n/a	6	4	HEART	BENCH	HEART	BENCH	8	[0, 0, 0]	-999	PAL1	0	R1042M
1183.519	0.001	666082	TEST_PROBE	n/a	6	4	HEART	BENCH	HEART	BENCH	8	[0, 0, 0]	-999	PAL1	0	R1042M
1183.52	0.898	666083	REC_START	n/a	6	-999	n/a	BENCH	n/a	n/a	8	[0, 0, 0]	-999	PAL1	0	R1042M
1184.418	4.11	666532	REC_EVENT	898	6	4	HEART	BENCH	HEART	BENCH	8	[0, 0, 0]	-999	PAL1	0	R1042M
1188.528	0.009	668586	REC_END	n/a	6	-999	n/a	n/a	n/a	n/a	8	[0, 0, 0]	-999	PAL1	0	R1042M
1188.537	0.851	668591	TEST_ORIENT	n/a	1	5	APE	VAN	VAN	APE	8	[0, 0, 0]	-999	PAL1	0	R1042M
1189.388	0.0	669016	TEST_PROBE	n/a	1	5	APE	VAN	VAN	APE	8	[0, 0, 0]	-999	PAL1	0	R1042M
1189.388	0.864	669016	REC_START	n/a	1	-999	n/a	VAN	n/a	n/a	8	[0, 0, 0]	-999	PAL1	0	R1042M
1190.252	4.154	669448	REC_EVENT	864	1	5	APE	VAN	VAN	APE	8	[0, 0, 0]	-999	PAL1	0	R1042M
1194.406	0.016	671525	REC_END	n/a	1	-999	n/a	n/a	n/a	n/a	8	[0, 0, 0]	-999	PAL1	0	R1042M
1194.422	0.8	671533	TEST_ORIENT	n/a	2	6	JAR	LEAF	JAR	LEAF	8	[0, 0, 0]	-999	PAL1	0	R1042M
1195.222	0.001	671933	TEST_PROBE	n/a	2	6	JAR	LEAF	JAR	LEAF	8	[0, 0, 0]	-999	PAL1	0	R1042M
1195.223	1.056	671933	REC_START	n/a	2	-999	n/a	LEAF	n/a	n/a	8	[0, 0, 0]	-999	PAL1	0	R1042M
1196.279	3.952	672461	REC_EVENT	1056	2	6	JAR	LEAF	JAR	LEAF	8	[0, 0, 0]	-999	PAL1	0	R1042M
1200.231	6.269	674437	REC_END	n/a	2	-999	n/a	n/a	n/a	n/a	8	[0, 0, 0]	-999	PAL1	0	R1042M
1206.5	10.444	677571	ENCODING_START	n/a	0	-999	n/a	n/a	n/a	n/a	9	[0, 0, 0]	-999	PAL1	0	R1042M
1216.944	0.815	682793	STUDY_ORIENT	n/a	1	5	SHELL	TOOTH	SHELL	TOOTH	9	[0, 0, 0]	-999	PAL1	0	R1042M
1217.759	5.019	683200	STUDY_PAIR	n/a	1	5	SHELL	TOOTH	SHELL	TOOTH	9	[0, 0, 0]	-999	PAL1	0	R1042M
1222.778	0.883	685710	STUDY_ORIENT	n/a	2	4	FUR	HORSE	HORSE	FUR	9	[0, 0, 0]	-999	PAL1	0	R1042M
1223.661	5.034	686151	STUDY_PAIR	n/a	2	4	FUR	HORSE	HORSE	FUR	9	[0, 0, 0]	-999	PAL1	0	R1042M
1228.695	0.867	688668	STUDY_ORIENT	n/a	3	1	FRUIT	STAR	FRUIT	STAR	9	[0, 0, 0]	-999	PAL1	0	R1042M
1229.562	5.034	689101	STUDY_PAIR	n/a	3	1	FRUIT	STAR	FRUIT	STAR	9	[0, 0, 0]	-999	PAL1	0	R1042M
1234.596	0.967	691618	STUDY_ORIENT	n/a	4	2	BEAN	BOY	BEAN	BOY	9	[0, 0, 0]	-999	PAL1	0	R1042M
1235.563	5.034	692101	STUDY_PAIR	n/a	4	2	BEAN	BOY	BEAN	BOY	9	[0, 0, 0]	-999	PAL1	0	R1042M
1240.597	1.001	694618	STUDY_ORIENT	n/a	5	3	BROOM	FARM	FARM	BROOM	9	[0, 0, 0]	-999	PAL1	0	R1042M
1241.598	5.034	695119	STUDY_PAIR	n/a	5	3	BROOM	FARM	FARM	BROOM	9	[0, 0, 0]	-999	PAL1	0	R1042M
1246.632	1.0	697635	STUDY_ORIENT	n/a	6	6	WALL	SHEEP	WALL	SHEEP	9	[0, 0, 0]	-999	PAL1	0	R1042M
1247.632	4.002	698135	STUDY_PAIR	n/a	6	6	WALL	SHEEP	WALL	SHEEP	9	[0, 0, 0]	-999	PAL1	0	R1042M
1251.634	0.999	700136	START	n/a	-999	-999	n/a	n/a	n/a	n/a	9	[-999, -999, -999]	-999	PAL1	0	R1042M
1252.633	0.017	700636	MATH_START	n/a	-999	-999	n/a	n/a	n/a	n/a	9	[0, 0, 0]	-999	PAL1	0	R1042M
1252.65	3.1	700644	PROB	3066	-999	-999	n/a	n/a	n/a	n/a	9	[6, 7, 1]	14	PAL1	0	R1042M
1255.75	5.902	702194	PROB	5870	-999	-999	n/a	n/a	n/a	n/a	9	[8, 4, 7]	19	PAL1	0	R1042M
1261.652	2.834	705145	PROB	2801	-999	-999	n/a	n/a	n/a	n/a	9	[5, 8, 6]	21	PAL1	0	R1042M
1264.486	2.917	706561	PROB	2887	-999	-999	n/a	n/a	n/a	n/a	9	[3, 4, 3]	10	PAL1	0	R1042M
1267.403	2.334	708020	PROB	2305	-999	-999	n/a	n/a	n/a	n/a	9	[8, 4, 3]	15	PAL1	0	R1042M
1269.737	2.668	709187	PROB	2668	-999	-999	n/a	n/a	n/a	n/a	9	[8, 8, 2]	18	PAL1	0	R1042M
1272.405	0.016	710521	STOP	n/a	-999	-999	n/a	n/a	n/a	n/a	9	[-999, -999, -999]	-999	PAL1	0	R1042M
1272.421	0.0	710529	MATH_END	n/a	-999	-999	n/a	n/a	n/a	n/a	9	[0, 0, 0]	-999	PAL1	0	R1042M
1272.421	0.017	710529	TEST_START	n/a	-999	-999	n/a	n/a	n/a	n/a	9	[0, 0, 0]	-999	PAL1	0	R1042M
1272.438	0.867	710537	TEST_ORIENT	n/a	3	1	FRUIT	STAR	FRUIT	STAR	9	[0, 0, 0]	-999	PAL1	0	R1042M
1273.305	0.0	710970	REC_START	n/a	3	-999	n/a	STAR	n/a	n/a	9	[0, 0, 0]	-999	PAL1	0	R1042M
1273.305	0.927	710970	TEST_PROBE	n/a	3	1	FRUIT	STAR	FRUIT	STAR	9	[0, 0, 0]	-999	PAL1	0	R1042M
1274.232	4.09	711434	REC_EVENT	927	3	1	FRUIT	STAR	FRUIT	STAR	9	[0, 0, 0]	-999	PAL1	0	R1042M
1278.322	0.017	713479	REC_END	n/a	3	-999	n/a	n/a	n/a	n/a	9	[0, 0, 0]	-999	PAL1	0	R1042M
1278.339	1.0	713487	TEST_ORIENT	n/a	4	2	BEAN	BOY	BEAN	BOY	9	[0, 0, 0]	-999	PAL1	0	R1042M
1279.339	0.001	713987	TEST_PROBE	n/a	4	2	BEAN	BOY	BEAN	BOY	9	[0, 0, 0]	-999	PAL1	0	R1042M
1279.34	0.848	713988	REC_START	n/a	4	-999	n/a	BOY	n/a	n/a	9	[0, 0, 0]	-999	PAL1	0	R1042M
1280.188	4.161	714412	REC_EVENT	848	4	2	BEAN	BOY	BEAN	BOY	9	[0, 0, 0]	-999	PAL1	0	R1042M
1284.349	0.008	716492	REC_END	n/a	4	-999	n/a	n/a	n/a	n/a	9	[0, 0, 0]	-999	PAL1	0	R1042M
1284.357	0.933	716496	TEST_ORIENT	n/a	5	3	BROOM	FARM	FARM	BROOM	9	[0, 0, 0]	-999	PAL1	0	R1042M
1285.29	0.001	716962	TEST_PROBE	n/a	5	3	BROOM	FARM	FARM	BROOM	9	[0, 0, 0]	-999	PAL1	0	R1042M
1285.291	1.016	716963	REC_START	n/a	5	-999	n/a	FARM	n/a	n/a	9	[0, 0, 0]	-999	PAL1	0	R1042M
1286.307	3.993	717471	REC_EVENT	1016	5	3	BROOM	FARM	FARM	BROOM	9	[0, 0, 0]	-999	PAL1	0	R1042M
1290.3	0.008	719467	REC_END	n/a	5	-999	n/a	n/a	n/a	n/a	9	[0, 0, 0]	-999	PAL1	0	R1042M
1290.308	0.817	719471	TEST_ORIENT	n/a	2	4	FUR	HORSE	HORSE	FUR	9	[0, 0, 0]	-999	PAL1	0	R1042M
1291.125	0.001	719880	TEST_PROBE	n/a	2	4	FUR	HORSE	HORSE	FUR	9	[0, 0, 0]	-999	PAL1	0	R1042M
1291.126	0.911	719880	REC_START	n/a	2	-999	n/a	HORSE	n/a	n/a	9	[0, 0, 0]	-999	PAL1	0	R1042M
1292.037	4.098	720336	REC_EVENT	911	2	4	FUR	HORSE	HORSE	FUR	9	[0, 0, 0]	-999	PAL1	0	R1042M
1296.135	0.008	722384	REC_END	n/a	2	-999	n/a	n/a	n/a	n/a	9	[0, 0, 0]	-999	PAL1	0	R1042M
1296.143	0.967	722388	TEST_ORIENT	n/a	1	5	SHELL	TOOTH	SHELL	TOOTH	9	[0, 0, 0]	-999	PAL1	0	R1042M
1297.11	0.0	722872	TEST_PROBE	n/a	1	5	SHELL	TOOTH	SHELL	TOOTH	9	[0, 0, 0]	-999	PAL1	0	R1042M
1297.11	1.025	722872	REC_START	n/a	1	-999	n/a	TOOTH	n/a	n/a	9	[0, 0, 0]	-999	PAL1	0	R1042M
1298.135	3.992	723384	REC_EVENT	1025	1	5	SHELL	TOOTH	SHELL	TOOTH	9	[0, 0, 0]	-999	PAL1	0	R1042M
1302.127	0.017	725380	REC_END	n/a	1	-999	n/a	n/a	n/a	n/a	9	[0, 0, 0]	-999	PAL1	0	R1042M
1302.144	1.033	725389	TEST_ORIENT	n/a	6	6	WALL	SHEEP	WALL	SHEEP	9	[0, 0, 0]	-999	PAL1	0	R1042M
1303.177	0.001	725905	TEST_PROBE	n/a	6	6	WALL	SHEEP	WALL	SHEEP	9	[0, 0, 0]	-999	PAL1	0	R1042M
1303.178	0.913	725905	REC_START	n/a	6	-999	n/a	SHEEP	n/a	n/a	9	[0, 0, 0]	-999	PAL1	0	R1042M
1304.091	4.096	726362	REC_EVENT	913	6	6	WALL	SHEEP	WALL	SHEEP	9	[0, 0, 0]	-999	PAL1	0	R1042M
1308.187	6.89	728410	REC_END	n/a	6	-999	n/a	n/a	n/a	n/a	9	[0, 0, 0]	-999	PAL1	0	R1042M
1315.077	10.437	731854	ENCODING_START	n/a	0	-999	n/a	n/a	n/a	n/a	10	[0, 0, 0]	-999	PAL1	0	R1042M
1325.514	0.851	737072	STUDY_ORIENT	n/a	1	3	AXE	SHEET	SHEET	AXE	10	[0, 0, 0]	-999	PAL1	0	R1042M
1326.365	5.018	737498	STUDY_PAIR	n/a	1	3	AXE	SHEET	SHEET	AXE	10	[0, 0, 0]	-999	PAL1	0	R1042M
1331.383	0.784	740007	STUDY_ORIENT	n/a	2	2	INK	SLUSH	INK	SLUSH	10	[0, 0, 0]	-999	PAL1	0	R1042M
1332.167	5.034	740398	STUDY_PAIR	n/a	2	2	INK	SLUSH	INK	SLUSH	10	[0, 0, 0]	-999	PAL1	0	R1042M
1337.201	0.817	742915	STUDY_ORIENT	n/a	3	5	SMILE	BAND	BAND	SMILE	10	[0, 0, 0]	-999	PAL1	0	R1042M
1338.018	5.034	743324	STUDY_PAIR	n/a	3	5	SMILE	BAND	BAND	SMILE	10	[0, 0, 0]	-999	PAL1	0	R1042M
1343.052	0.934	745840	STUDY_ORIENT	n/a	4	6	FISH	SWORD	SWORD	FISH	10	[0, 0, 0]	-999	PAL1	0	R1042M
1343.986	5.034	746307	STUDY_PAIR	n/a	4	6	FISH	SWORD	SWORD	FISH	10	[0, 0, 0]	-999	PAL1	0	R1042M
1349.02	0.917	748824	STUDY_ORIENT	n/a	5	1	FOOT	CRANE	CRANE	FOOT	10	[0, 0, 0]	-999	PAL1	0	R1042M
1349.937	5.034	749283	STUDY_PAIR	n/a	5	1	FOOT	CRANE	CRANE	FOOT	10	[0, 0, 0]	-999	PAL1	0	R1042M
1354.971	1.0	751799	STUDY_ORIENT	n/a	6	4	WING	CAKE	CAKE	WING	10	[0, 0, 0]	-999	PAL1	0	R1042M
1355.971	4.001	752299	STUDY_PAIR	n/a	6	4	WING	CAKE	CAKE	WING	10	[0, 0, 0]	-999	PAL1	0	R1042M
1359.972	1.0	754300	START	n/a	-999	-999	n/a	n/a	n/a	n/a	10	[-999, -999, -999]	-999	PAL1	0	R1042M
1360.972	0.017	754800	MATH_START	n/a	-999	-999	n/a	n/a	n/a	n/a	10	[0, 0, 0]	-999	PAL1	0	R1042M
1360.989	2.716	754808	PROB	2695	-999	-999	n/a	n/a	n/a	n/a	10	[1, 2, 5]	8	PAL1	0	R1042M
1363.705	2.635	756166	PROB	2604	-999	-999	n/a	n/a	n/a	n/a	10	[3, 7, 7]	17	PAL1	0	R1042M
1366.34	2.467	757483	PROB	2432	-999	-999	n/a	n/a	n/a	n/a	10	[3, 3, 2]	8	PAL1	0	R1042M
1368.807	2.833	758717	PROB	2805	-999	-999	n/a	n/a	n/a	n/a	10	[2, 9, 3]	14	PAL1	0	R1042M
1371.64	1.768	760133	PROB	1749	-999	-999	n/a	n/a	n/a	n/a	10	[1, 4, 7]	12	PAL1	0	R1042M
1373.408	1.817	761017	PROB	1789	-999	-999	n/a	n/a	n/a	n/a	10	[8, 4, 1]	13	PAL1	0	R1042M
1375.225	2.701	761925	PROB	2668	-999	-999	n/a	n/a	n/a	n/a	10	[9, 4, 7]	20	PAL1	0	R1042M
1377.926	2.159	763276	PROB	2159	-999	-999	n/a	n/a	n/a	n/a	10	[6, 8, 1]	15	PAL1	0	R1042M
1380.085	0.008	764355	STOP	n/a	-999	-999	n/a	n/a	n/a	n/a	10	[-999, -999, -999]	-999	PAL1	0	R1042M
1380.093	0.0	764359	MATH_END	n/a	-999	-999	n/a	n/a	n/a	n/a	10	[0, 0, 0]	-999	PAL1	0	R1042M
1380.093	0.017	764359	TEST_START	n/a	-999	-999	n/a	n/a	n/a	n/a	10	[0, 0, 0]	-999	PAL1	0	R1042M
1380.11	0.816	764368	TEST_ORIENT	n/a	5	1	FOOT	CRANE	CRANE	FOOT	10	[0, 0, 0]	-999	PAL1	0	R1042M
1380.926	0.001	764775	TEST_PROBE	n/a	5	1	FOOT	CRANE	CRANE	FOOT	10	[0, 0, 0]	-999	PAL1	0	R1042M
1380.927	1.259	764776	REC_START	n/a	5	-999	n/a	CRANE	n/a	n/a	10	[0, 0, 0]	-999	PAL1	0	R1042M
1382.186	3.75	765405	REC_EVENT	1259	5	1	FOOT	CRANE	CRANE	FOOT	10	[0, 0, 0]	-999	PAL1	0	R1042M
1385.936	0.008	767280	REC_END	n/a	5	-999	n/a	n/a	n/a	n/a	10	[0, 0, 0]	-999	PAL1	0	R1042M
1385.944	0.867	767284	TEST_ORIENT	n/a	2	2	INK	SLUSH	INK	SLUSH	10	[0, 0, 0]	-999	PAL1	0	R1042M
1386.811	0.0	767718	TEST_PROBE	n/a	2	2	INK	SLUSH	INK	SLUSH	10	[0, 0, 0]	-999	PAL1	0	R1042M
1386.811	0.838	767718	REC_START	n/a	2	-999	n/a	SLUSH	n/a	n/a	10	[0, 0, 0]	-999	PAL1	0	R1042M
1387.649	4.179	768137	REC_EVENT	838	2	2	INK	SLUSH	INK	SLUSH	10	[0, 0, 0]	-999	PAL1	0	R1042M
1391.828	0.017	770226	REC_END	n/a	2	-999	n/a	n/a	n/a	n/a	10	[0, 0, 0]	-999	PAL1	0	R1042M
1391.845	0.95	770234	TEST_ORIENT	n/a	1	3	AXE	SHEET	SHEET	AXE	10	[0, 0, 0]	-999	PAL1	0	R1042M
1392.795	0.001	770709	TEST_PROBE	n/a	1	3	AXE	SHEET	SHEET	AXE	10	[0, 0, 0]	-999	PAL1	0	R1042M
1392.796	0.91	770710	REC_START	n/a	1	-999	n/a	SHEET	n/a	n/a	10	[0, 0, 0]	-999	PAL1	0	R1042M
1393.706	4.098	771165	REC_EVENT	910	1	3	AXE	SHEET	SHEET	AXE	10	[0, 0, 0]	-999	PAL1	0	R1042M
1397.804	0.009	773214	REC_END	n/a	1	-999	n/a	n/a	n/a	n/a	10	[0, 0, 0]	-999	PAL1	0	R1042M
1397.813	1.017	773218	TEST_ORIENT	n/a	6	4	WING	CAKE	CAKE	WING	10	[0, 0, 0]	-999	PAL1	0	R1042M
1398.83	0.0	773727	TEST_PROBE	n/a	6	4	WING	CAKE	CAKE	WING	10	[0, 0, 0]	-999	PAL1	0	R1042M
1398.83	1.754	773727	REC_START	n/a	6	-999	n/a	CAKE	n/a	n/a	10	[0, 0, 0]	-999	PAL1	0	R1042M
1400.584	3.263	774603	REC_EVENT	1754	6	4	WING	CAKE	CAKE	WING	10	[0, 0, 0]	-999	PAL1	0	R1042M
1403.847	0.017	776235	REC_END	n/a	6	-999	n/a	n/a	n/a	n/a	10	[0, 0, 0]	-999	PAL1	0	R1042M
1403.864	0.799	776243	TEST_ORIENT	n/a	3	5	SMILE	BAND	BAND	SMILE	10	[0, 0, 0]	-999	PAL1	0	R1042M
1404.663	0.001	776643	TEST_PROBE	n/a	3	5	SMILE	BAND	BAND	SMILE	10	[0, 0, 0]	-999	PAL1	0	R1042M
1404.664	0.944	776643	REC_START	n/a	3	-999	n/a	BAND	n/a	n/a	10	[0, 0, 0]	-999	PAL1	0	R1042M
1405.608	4.064	777115	REC_EVENT	944	3	5	SMILE	BAND	BAND	SMILE	10	[0, 0, 0]	-999	PAL1	0	R1042M
1409.672	0.009	779147	REC_END	n/a	3	-999	n/a	n/a	n/a	n/a	10	[0, 0, 0]	-999	PAL1	0	R1042M
1409.681	0.833	779152	TEST_ORIENT	n/a	4	6	FISH	SWORD	SWORD	FISH	10	[0, 0, 0]	-999	PAL1	0	R1042M
1410.514	0.001	779568	TEST_PROBE	n/a	4	6	FISH	SWORD	SWORD	FISH	10	[0, 0, 0]	-999	PAL1	0	R1042M
1410.515	0.903	779568	REC_START	n/a	4	-999	n/a	SWORD	n/a	n/a	10	[0, 0, 0]	-999	PAL1	0	R1042M
1411.418	4.105	780020	REC_EVENT	903	4	6	FISH	SWORD	SWORD	FISH	10	[0, 0, 0]	-999	PAL1	0	R1042M
1415.523	1.794	782072	REC_END	n/a	4	-999	n/a	n/a	n/a	n/a	10	[0, 0, 0]	-999	PAL1	0	R1042M
1417.317	10.451	782969	ENCODING_START	n/a	0	-999	n/a	n/a	n/a	n/a	11	[0, 0, 0]	-999	PAL1	0	R1042M
1427.768	0.834	788194	STUDY_ORIENT	n/a	1	5	SHIP	STREET	SHIP	STREET	11	[0, 0, 0]	-999	PAL1	0	R1042M
1428.602	5.034	788611	STUDY_PAIR	n/a	1	5	SHIP	STREET	SHIP	STREET	11	[0, 0, 0]	-999	PAL1	0	R1042M
1433.636	0.95	791128	STUDY_ORIENT	n/a	2	2	SPARK	CASH	SPARK	CASH	11	[0, 0, 0]	-999	PAL1	0	R1042M
1434.586	5.018	791603	STUDY_PAIR	n/a	2	2	SPARK	CASH	SPARK	CASH	11	[0, 0, 0]	-999	PAL1	0	R1042M
1439.604	0.9	794111	STUDY_ORIENT	n/a	3	3	ZOO	DOCK	DOCK	ZOO	11	[0, 0, 0]	-999	PAL1	0	R1042M
1440.504	5.034	794561	STUDY_PAIR	n/a	3	3	ZOO	DOCK	DOCK	ZOO	11	[0, 0, 0]	-999	PAL1	0	R1042M
1445.538	0.818	797078	STUDY_ORIENT	n/a	4	6	JEEP	OWL	OWL	JEEP	11	[0, 0, 0]	-999	PAL1	0	R1042M
1446.356	5.018	797487	STUDY_PAIR	n/a	4	6	JEEP	OWL	OWL	JEEP	11	[0, 0, 0]	-999	PAL1	0	R1042M
1451.374	0.85	799996	STUDY_ORIENT	n/a	5	1	POLE	ICE	POLE	ICE	11	[0, 0, 0]	-999	PAL1	0	R1042M
1452.224	5.034	800421	STUDY_PAIR	n/a	5	1	POLE	ICE	POLE	ICE	11	[0, 0, 0]	-999	PAL1	0	R1042M
1457.258	0.884	802938	STUDY_ORIENT	n/a	6	4	RAIN	PASTE	RAIN	PASTE	11	[0, 0, 0]	-999	PAL1	0	R1042M
1458.142	4.018	803380	STUDY_PAIR	n/a	6	4	RAIN	PASTE	RAIN	PASTE	11	[0, 0, 0]	-999	PAL1	0	R1042M
1462.16	0.999	805388	START	n/a	-999	-999	n/a	n/a	n/a	n/a	11	[-999, -999, -999]	-999	PAL1	0	R1042M
1463.159	0.017	805888	MATH_START	n/a	-999	-999	n/a	n/a	n/a	n/a	11	[0, 0, 0]	-999	PAL1	0	R1042M
1463.176	2.817	805896	PROB	2797	-999	-999	n/a	n/a	n/a	n/a	11	[8, 1, 6]	15	PAL1	0	R1042M
1465.993	3.401	807305	PROB	3372	-999	-999	n/a	n/a	n/a	n/a	11	[5, 7, 4]	16	PAL1	0	R1042M
1469.394	2.784	809005	PROB	2763	-999	-999	n/a	n/a	n/a	n/a	11	[3, 6, 8]	17	PAL1	0	R1042M
1472.178	1.884	810397	PROB	1851	-999	-999	n/a	n/a	n/a	n/a	11	[1, 9, 1]	11	PAL1	0	R1042M
1474.062	2.416	811339	PROB	2391	-999	-999	n/a	n/a	n/a	n/a	11	[3, 9, 9]	2	PAL1	0	R1042M
1476.478	2.535	812547	PROB	2503	-999	-999	n/a	n/a	n/a	n/a	11	[3, 5, 4]	12	PAL1	0	R1042M
1479.013	2.95	813814	PROB	2920	-999	-999	n/a	n/a	n/a	n/a	11	[9, 5, 5]	19	PAL1	0	R1042M
1481.963	2.577	815289	PROB	2577	-999	-999	n/a	n/a	n/a	n/a	11	[5, 1, 8]	14	PAL1	0	R1042M
1484.54	0.006	816577	STOP	n/a	-999	-999	n/a	n/a	n/a	n/a	11	[-999, -999, -999]	-999	PAL1	0	R1042M
1484.546	0.0	816580	TEST_START	n/a	-999	-999	n/a	n/a	n/a	n/a	11	[0, 0, 0]	-999	PAL1	0	R1042M
1484.546	0.017	816580	MATH_END	n/a	-999	-999	n/a	n/a	n/a	n/a	11	[0, 0, 0]	-999	PAL1	0	R1042M
1484.563	0.784	816589	TEST_ORIENT	n/a	5	1	POLE	ICE	POLE	ICE	11	[0, 0, 0]	-999	PAL1	0	R1042M
1485.347	0.001	816981	TEST_PROBE	n/a	5	1	POLE	ICE	POLE	ICE	11	[0, 0, 0]	-999	PAL1	0	R1042M
1485.348	1.513	816981	REC_START	n/a	5	-999	n/a	ICE	n/a	n/a	11	[0, 0, 0]	-999	PAL1	0	R1042M
1486.861	3.495	817738	REC_EVENT	1513	5	1	POLE	ICE	POLE	ICE	11	[0, 0, 0]	-999	PAL1	0	R1042M
1490.356	0.009	819485	REC_END	n/a	5	-999	n/a	n/a	n/a	n/a	11	[0, 0, 0]	-999	PAL1	0	R1042M
1490.365	0.934	819489	TEST_ORIENT	n/a	2	2	SPARK	CASH	SPARK	CASH	11	[0, 0, 0]	-999	PAL1	0	R1042M
1491.299	0.0	819956	TEST_PROBE	n/a	2	2	SPARK	CASH	SPARK	CASH	11	[0, 0, 0]	-999	PAL1	0	R1042M
1491.299	0.913	819956	REC_START	n/a	2	-999	n/a	CASH	n/a	n/a	11	[0, 0, 0]	-999	PAL1	0	R1042M
1492.212	4.104	820413	REC_EVENT	913	2	2	SPARK	CASH	SPARK	CASH	11	[0, 0, 0]	-999	PAL1	0	R1042M
1496.316	0.017	822465	REC_END	n/a	2	-999	n/a	n/a	n/a	n/a	11	[0, 0, 0]	-999	PAL1	0	R1042M
1496.333	0.883	822473	TEST_ORIENT	n/a	3	3	ZOO	DOCK	DOCK	ZOO	11	[0, 0, 0]	-999	PAL1	0	R1042M
1497.216	0.001	822915	TEST_PROBE	n/a	3	3	ZOO	DOCK	DOCK	ZOO	11	[0, 0, 0]	-999	PAL1	0	R1042M
1497.217	1.374	822915	REC_START	n/a	3	-999	n/a	DOCK	n/a	n/a	11	[0, 0, 0]	-999	PAL1	0	R1042M
1498.591	3.634	823602	REC_EVENT	1374	3	3	ZOO	DOCK	DOCK	ZOO	11	[0, 0, 0]	-999	PAL1	0	R1042M
1502.225	0.009	825419	REC_END	n/a	3	-999	n/a	n/a	n/a	n/a	11	[0, 0, 0]	-999	PAL1	0	R1042M
1502.234	0.9	825423	TEST_ORIENT	n/a	6	4	RAIN	PASTE	RAIN	PASTE	11	[0, 0, 0]	-999	PAL1	0	R1042M
1503.134	0.001	825873	TEST_PROBE	n/a	6	4	RAIN	PASTE	RAIN	PASTE	11	[0, 0, 0]	-999	PAL1	0	R1042M
1503.135	1.001	825874	REC_START	n/a	6	-999	n/a	PASTE	n/a	n/a	11	[0, 0, 0]	-999	PAL1	0	R1042M
1504.136	4.007	826374	REC_EVENT	1001	6	4	RAIN	PASTE	RAIN	PASTE	11	[0, 0, 0]	-999	PAL1	0	R1042M
1508.143	0.009	828377	REC_END	n/a	6	-999	n/a	n/a	n/a	n/a	11	[0, 0, 0]	-999	PAL1	0	R1042M
1508.152	0.917	828382	TEST_ORIENT	n/a	1	5	SHIP	STREET	SHIP	STREET	11	[0, 0, 0]	-999	PAL1	0	R1042M
1509.069	0.0	828840	TEST_PROBE	n/a	1	5	SHIP	STREET	SHIP	STREET	11	[0, 0, 0]	-999	PAL1	0	R1042M
1509.069	0.88	828840	REC_START	n/a	1	-999	n/a	STREET	n/a	n/a	11	[0, 0, 0]	-999	PAL1	0	R1042M
1509.949	4.137	829280	REC_EVENT	880	1	5	SHIP	STREET	SHIP	STREET	11	[0, 0, 0]	-999	PAL1	0	R1042M
1514.086	0.017	831349	REC_END	n/a	1	-999	n/a	n/a	n/a	n/a	11	[0, 0, 0]	-999	PAL1	0	R1042M
1514.103	0.867	831357	TEST_ORIENT	n/a	4	6	JEEP	OWL	OWL	JEEP	11	[0, 0, 0]	-999	PAL1	0	R1042M
1514.97	0.0	831791	REC_START	n/a	4	-999	n/a	OWL	n/a	n/a	11	[0, 0, 0]	-999	PAL1	0	R1042M
1514.97	1.437	831791	TEST_PROBE	n/a	4	6	JEEP	OWL	OWL	JEEP	11	[0, 0, 0]	-999	PAL1	0	R1042M
1516.407	3.58	832509	REC_EVENT	1437	4	6	JEEP	OWL	OWL	JEEP	11	[0, 0, 0]	-999	PAL1	0	R1042M
1519.987	7.378	834299	REC_END	n/a	4	-999	n/a	n/a	n/a	n/a	11	[0, 0, 0]	-999	PAL1	0	R1042M
1527.365	10.443	837987	ENCODING_START	n/a	0	-999	n/a	n/a	n/a	n/a	12	[0, 0, 0]	-999	PAL1	0	R1042M
1537.808	0.849	843208	STUDY_ORIENT	n/a	1	1	MOUTH	SEA	MOUTH	SEA	12	[0, 0, 0]	-999	PAL1	0	R1042M
1538.657	5.034	843633	STUDY_PAIR	n/a	1	1	MOUTH	SEA	MOUTH	SEA	12	[0, 0, 0]	-999	PAL1	0	R1042M
1543.691	0.851	846150	STUDY_ORIENT	n/a	2	6	BRANCH	WEED	BRANCH	WEED	12	[0, 0, 0]	-999	PAL1	0	R1042M
1544.542	5.034	846575	STUDY_PAIR	n/a	2	6	BRANCH	WEED	BRANCH	WEED	12	[0, 0, 0]	-999	PAL1	0	R1042M
1549.576	0.851	849092	STUDY_ORIENT	n/a	3	5	SPONGE	OAR	OAR	SPONGE	12	[0, 0, 0]	-999	PAL1	0	R1042M
1550.427	5.034	849517	STUDY_PAIR	n/a	3	5	SPONGE	OAR	OAR	SPONGE	12	[0, 0, 0]	-999	PAL1	0	R1042M
1555.461	0.984	852034	STUDY_ORIENT	n/a	4	4	CHAIR	RICE	RICE	CHAIR	12	[0, 0, 0]	-999	PAL1	0	R1042M
1556.445	5.033	852526	STUDY_PAIR	n/a	4	4	CHAIR	RICE	RICE	CHAIR	12	[0, 0, 0]	-999	PAL1	0	R1042M
1561.478	1.0	855042	STUDY_ORIENT	n/a	5	3	SAIL	WOLF	SAIL	WOLF	12	[0, 0, 0]	-999	PAL1	0	R1042M
1562.478	5.018	855542	STUDY_PAIR	n/a	5	3	SAIL	WOLF	SAIL	WOLF	12	[0, 0, 0]	-999	PAL1	0	R1042M
1567.496	0.918	858051	STUDY_ORIENT	n/a	6	2	WAVE	SKUNK	SKUNK	WAVE	12	[0, 0, 0]	-999	PAL1	0	R1042M
1568.414	4.018	858510	STUDY_PAIR	n/a	6	2	WAVE	SKUNK	SKUNK	WAVE	12	[0, 0, 0]	-999	PAL1	0	R1042M
1572.432	0.999	860519	START	n/a	-999	-999	n/a	n/a	n/a	n/a	12	[-999, -999, -999]	-999	PAL1	0	R1042M
1573.431	0.017	861018	MATH_START	n/a	-999	-999	n/a	n/a	n/a	n/a	12	[0, 0, 0]	-999	PAL1	0	R1042M
1573.448	3.734	861027	PROB	3709	-999	-999	n/a	n/a	n/a	n/a	12	[3, 5, 7]	15	PAL1	0	R1042M
1577.182	1.651	862893	PROB	1623	-999	-999	n/a	n/a	n/a	n/a	12	[1, 7, 3]	11	PAL1	0	R1042M
1578.833	2.283	863719	PROB	2260	-999	-999	n/a	n/a	n/a	n/a	12	[4, 5, 4]	13	PAL1	0	R1042M
1581.116	3.101	864860	PROB	3081	-999	-999	n/a	n/a	n/a	n/a	12	[3, 6, 8]	17	PAL1	0	R1042M
1584.217	2.35	866411	PROB	2323	-999	-999	n/a	n/a	n/a	n/a	12	[7, 1, 8]	16	PAL1	0	R1042M
1586.567	2.618	867585	PROB	2590	-999	-999	n/a	n/a	n/a	n/a	12	[7, 1, 5]	13	PAL1	0	R1042M
1589.185	2.267	868894	PROB	2236	-999	-999	n/a	n/a	n/a	n/a	12	[7, 7, 2]	16	PAL1	0	R1042M
1591.452	2.401	870028	PROB	2401	-999	-999	n/a	n/a	n/a	n/a	12	[9, 1, 8]	18	PAL1	0	R1042M
1593.853	0.016	871228	STOP	n/a	-999	-999	n/a	n/a	n/a	n/a	12	[-999, -999, -999]	-999	PAL1	0	R1042M
1593.869	0.0	871236	TEST_START	n/a	-999	-999	n/a	n/a	n/a	n/a	12	[0, 0, 0]	-999	PAL1	0	R1042M
1593.869	0.017	871236	MATH_END	n/a	-999	-999	n/a	n/a	n/a	n/a	12	[0, 0, 0]	-999	PAL1	0	R1042M
1593.886	0.9	871245	TEST_ORIENT	n/a	1	1	MOUTH	SEA	MOUTH	SEA	12	[0, 0, 0]	-999	PAL1	0	R1042M
1594.786	0.001	871695	TEST_PROBE	n/a	1	1	MOUTH	SEA	MOUTH	SEA	12	[0, 0, 0]	-999	PAL1	0	R1042M
1594.787	1.715	871695	REC_START	n/a	1	-999	n/a	SEA	n/a	n/a	12	[0, 0, 0]	-999	PAL1	0	R1042M
1596.502	3.309	872552	REC_EVENT	1715	1	1	MOUTH	SEA	MOUTH	SEA	12	[0, 0, 0]	-999	PAL1	0	R1042M
1599.811	0.009	874207	REC_END	n/a	1	-999	n/a	n/a	n/a	n/a	12	[0, 0, 0]	-999	PAL1	0	R1042M
1599.82	0.849	874211	TEST_ORIENT	n/a	6	2	WAVE	SKUNK	SKUNK	WAVE	12	[0, 0, 0]	-999	PAL1	0	R1042M
1600.669	0.001	874636	TEST_PROBE	n/a	6	2	WAVE	SKUNK	SKUNK	WAVE	12	[0, 0, 0]	-999	PAL1	0	R1042M
1600.67	0.818	874636	REC_START	n/a	6	-999	n/a	SKUNK	n/a	n/a	12	[0, 0, 0]	-999	PAL1	0	R1042M
1601.488	4.191	875045	REC_EVENT	818	6	2	WAVE	SKUNK	SKUNK	WAVE	12	[0, 0, 0]	-999	PAL1	0	R1042M
1605.679	0.008	877140	REC_END	n/a	6	-999	n/a	n/a	n/a	n/a	12	[0, 0, 0]	-999	PAL1	0	R1042M
1605.687	0.785	877144	TEST_ORIENT	n/a	5	3	SAIL	WOLF	SAIL	WOLF	12	[0, 0, 0]	-999	PAL1	0	R1042M
1606.472	0.0	877537	TEST_PROBE	n/a	5	3	SAIL	WOLF	SAIL	WOLF	12	[0, 0, 0]	-999	PAL1	0	R1042M
1606.472	1.185	877537	REC_START	n/a	5	-999	n/a	WOLF	n/a	n/a	12	[0, 0, 0]	-999	PAL1	0	R1042M
1607.657	3.831	878129	REC_EVENT	1185	5	3	SAIL	WOLF	SAIL	WOLF	12	[0, 0, 0]	-999	PAL1	0	R1042M
1611.488	0.017	880045	REC_END	n/a	5	-999	n/a	n/a	n/a	n/a	12	[0, 0, 0]	-999	PAL1	0	R1042M
1611.505	0.851	880053	TEST_ORIENT	n/a	4	4	CHAIR	RICE	RICE	CHAIR	12	[0, 0, 0]	-999	PAL1	0	R1042M
1612.356	0.001	880479	TEST_PROBE	n/a	4	4	CHAIR	RICE	RICE	CHAIR	12	[0, 0, 0]	-999	PAL1	0	R1042M
1612.357	0.94	880479	REC_START	n/a	4	-999	n/a	RICE	n/a	n/a	12	[0, 0, 0]	-999	PAL1	0	R1042M
1613.297	4.085	880949	REC_EVENT	940	4	4	CHAIR	RICE	RICE	CHAIR	12	[0, 0, 0]	-999	PAL1	0	R1042M
1617.382	0.008	882991	REC_END	n/a	4	-999	n/a	n/a	n/a	n/a	12	[0, 0, 0]	-999	PAL1	0	R1042M
1617.39	0.984	882995	TEST_ORIENT	n/a	3	5	SPONGE	OAR	OAR	SPONGE	12	[0, 0, 0]	-999	PAL1	0	R1042M
1618.374	0.0	883487	TEST_PROBE	n/a	3	5	SPONGE	OAR	OAR	SPONGE	12	[0, 0, 0]	-999	PAL1	0	R1042M
1618.374	1.859	883487	REC_START	n/a	3	-999	n/a	OAR	n/a	n/a	12	[0, 0, 0]	-999	PAL1	0	R1042M
1620.233	3.166	884417	REC_EVENT	1859	3	5	SPONGE	OAR	OAR	SPONGE	12	[0, 0, 0]	-999	PAL1	0	R1042M
1623.399	0.009	886000	REC_END	n/a	3	-999	n/a	n/a	n/a	n/a	12	[0, 0, 0]	-999	PAL1	0	R1042M
1623.408	0.834	886004	TEST_ORIENT	n/a	2	6	BRANCH	WEED	BRANCH	WEED	12	[0, 0, 0]	-999	PAL1	0	R1042M
1624.242	0.0	886421	REC_START	n/a	2	-999	n/a	WEED	n/a	n/a	12	[0, 0, 0]	-999	PAL1	0	R1042M
1624.242	0.95	886421	TEST_PROBE	n/a	2	6	BRANCH	WEED	BRANCH	WEED	12	[0, 0, 0]	-999	PAL1	0	R1042M
1625.192	4.067	886896	REC_EVENT	950	2	6	BRANCH	WEED	BRANCH	WEED	12	[0, 0, 0]	-999	PAL1	0	R1042M
1629.259	30.93	888929	REC_END	n/a	2	-999	n/a	n/a	n/a	n/a	12	[0, 0, 0]	-999	PAL1	0	R1042M
1660.189	10.444	904393	ENCODING_START	n/a	0	-999	n/a	n/a	n/a	n/a	13	[0, 0, 0]	-999	PAL1	0	R1042M
1670.633	0.851	909614	STUDY_ORIENT	n/a	1	5	MOON	TRAY	TRAY	MOON	13	[0, 0, 0]	-999	PAL1	0	R1042M
1671.484	5.034	910040	STUDY_PAIR	n/a	1	5	MOON	TRAY	TRAY	MOON	13	[0, 0, 0]	-999	PAL1	0	R1042M
1676.518	0.801	912556	STUDY_ORIENT	n/a	2	2	STOOL	HORN	HORN	STOOL	13	[0, 0, 0]	-999	PAL1	0	R1042M
1677.319	5.018	912957	STUDY_PAIR	n/a	2	2	STOOL	HORN	HORN	STOOL	13	[0, 0, 0]	-999	PAL1	0	R1042M
1682.337	0.867	915466	STUDY_ORIENT	n/a	3	3	LEG	PHONE	PHONE	LEG	13	[0, 0, 0]	-999	PAL1	0	R1042M
1683.204	5.034	915899	STUDY_PAIR	n/a	3	3	LEG	PHONE	PHONE	LEG	13	[0, 0, 0]	-999	PAL1	0	R1042M
1688.238	0.9	918416	STUDY_ORIENT	n/a	4	6	SOCK	BOMB	BOMB	SOCK	13	[0, 0, 0]	-999	PAL1	0	R1042M
1689.138	5.018	918866	STUDY_PAIR	n/a	4	6	SOCK	BOMB	BOMB	SOCK	13	[0, 0, 0]	-999	PAL1	0	R1042M
1694.156	0.833	921374	STUDY_ORIENT	n/a	5	1	THREAD	MULE	THREAD	MULE	13	[0, 0, 0]	-999	PAL1	0	R1042M
1694.989	5.018	921791	STUDY_PAIR	n/a	5	1	THREAD	MULE	THREAD	MULE	13	[0, 0, 0]	-999	PAL1	0	R1042M
1700.007	0.95	924300	STUDY_ORIENT	n/a	6	4	DEER	BLOOM	DEER	BLOOM	13	[0, 0, 0]	-999	PAL1	0	R1042M
1700.957	4.001	924775	STUDY_PAIR	n/a	6	4	DEER	BLOOM	DEER	BLOOM	13	[0, 0, 0]	-999	PAL1	0	R1042M
1704.958	1.0	926775	START	n/a	-999	-999	n/a	n/a	n/a	n/a	13	[-999, -999, -999]	-999	PAL1	0	R1042M
1705.958	0.017	927275	MATH_START	n/a	-999	-999	n/a	n/a	n/a	n/a	13	[0, 0, 0]	-999	PAL1	0	R1042M
1705.975	3.616	927283	PROB	3589	-999	-999	n/a	n/a	n/a	n/a	13	[2, 7, 5]	14	PAL1	0	R1042M
1709.591	2.418	929091	PROB	2390	-999	-999	n/a	n/a	n/a	n/a	13	[9, 6, 1]	16	PAL1	0	R1042M
1712.009	2.75	930300	PROB	2731	-999	-999	n/a	n/a	n/a	n/a	13	[4, 7, 2]	13	PAL1	0	R1042M
1714.759	2.435	931675	PROB	2414	-999	-999	n/a	n/a	n/a	n/a	13	[9, 9, 4]	22	PAL1	0	R1042M
1717.194	2.566	932892	PROB	2546	-999	-999	n/a	n/a	n/a	n/a	13	[5, 5, 9]	19	PAL1	0	R1042M
1719.76	5.373	934175	PROB	5373	-999	-999	n/a	n/a	n/a	n/a	13	[9, 6, 9]	24	PAL1	0	R1042M
1725.133	0.012	936861	STOP	n/a	-999	-999	n/a	n/a	n/a	n/a	13	[-999, -999, -999]	-999	PAL1	0	R1042M
1725.145	0.0	936867	TEST_START	n/a	-999	-999	n/a	n/a	n/a	n/a	13	[0, 0, 0]	-999	PAL1	0	R1042M
1725.145	0.017	936867	MATH_END	n/a	-999	-999	n/a	n/a	n/a	n/a	13	[0, 0, 0]	-999	PAL1	0	R1042M
1725.162	0.983	936876	TEST_ORIENT	n/a	5	1	THREAD	MULE	THREAD	MULE	13	[0, 0, 0]	-999	PAL1	0	R1042M
1726.145	0.001	937367	TEST_PROBE	n/a	5	1	THREAD	MULE	THREAD	MULE	13	[0, 0, 0]	-999	PAL1	0	R1042M
1726.146	1.202	937368	REC_START	n/a	5	-999	n/a	MULE	n/a	n/a	13	[0, 0, 0]	-999	PAL1	0	R1042M
1727.348	3.798	937969	REC_EVENT	1202	5	1	THREAD	MULE	THREAD	MULE	13	[0, 0, 0]	-999	PAL1	0	R1042M
1731.146	0.017	939868	REC_END	n/a	5	-999	n/a	n/a	n/a	n/a	13	[0, 0, 0]	-999	PAL1	0	R1042M
1731.163	0.817	939876	TEST_ORIENT	n/a	2	2	STOOL	HORN	HORN	STOOL	13	[0, 0, 0]	-999	PAL1	0	R1042M
1731.98	0.0	940285	REC_START	n/a	2	-999	n/a	HORN	n/a	n/a	13	[0, 0, 0]	-999	PAL1	0	R1042M
1731.98	1.209	940285	TEST_PROBE	n/a	2	2	STOOL	HORN	HORN	STOOL	13	[0, 0, 0]	-999	PAL1	0	R1042M
1733.189	3.808	940889	REC_EVENT	1209	2	2	STOOL	HORN	HORN	STOOL	13	[0, 0, 0]	-999	PAL1	0	R1042M
1736.997	0.017	942793	REC_END	n/a	2	-999	n/a	n/a	n/a	n/a	13	[0, 0, 0]	-999	PAL1	0	R1042M
1737.014	0.934	942801	TEST_ORIENT	n/a	3	3	LEG	PHONE	PHONE	LEG	13	[0, 0, 0]	-999	PAL1	0	R1042M
1737.948	0.0	943268	TEST_PROBE	n/a	3	3	LEG	PHONE	PHONE	LEG	13	[0, 0, 0]	-999	PAL1	0	R1042M
1737.948	1.044	943268	REC_START	n/a	3	-999	n/a	PHONE	n/a	n/a	13	[0, 0, 0]	-999	PAL1	0	R1042M
1738.992	3.973	943790	REC_EVENT	1044	3	3	LEG	PHONE	PHONE	LEG	13	[0, 0, 0]	-999	PAL1	0	R1042M
1742.965	0.017	945776	REC_END	n/a	3	-999	n/a	n/a	n/a	n/a	13	[0, 0, 0]	-999	PAL1	0	R1042M
1742.982	1.0	945785	TEST_ORIENT	n/a	6	4	DEER	BLOOM	DEER	BLOOM	13	[0, 0, 0]	-999	PAL1	0	R1042M
1743.982	0.001	946285	TEST_PROBE	n/a	6	4	DEER	BLOOM	DEER	BLOOM	13	[0, 0, 0]	-999	PAL1	0	R1042M
1743.983	2.003	946285	REC_START	n/a	6	-999	n/a	BLOOM	n/a	n/a	13	[0, 0, 0]	-999	PAL1	0	R1042M
1745.986	3.006	947287	REC_EVENT	2003	6	4	DEER	BLOOM	DEER	BLOOM	13	[0, 0, 0]	-999	PAL1	0	R1042M
1748.992	0.008	948790	REC_END	n/a	6	-999	n/a	n/a	n/a	n/a	13	[0, 0, 0]	-999	PAL1	0	R1042M
1749.0	0.9	948794	TEST_ORIENT	n/a	1	5	MOON	TRAY	TRAY	MOON	13	[0, 0, 0]	-999	PAL1	0	R1042M
1749.9	0.001	949244	TEST_PROBE	n/a	1	5	MOON	TRAY	TRAY	MOON	13	[0, 0, 0]	-999	PAL1	0	R1042M
1749.901	1.046	949244	REC_START	n/a	1	-999	n/a	TRAY	n/a	n/a	13	[0, 0, 0]	-999	PAL1	0	R1042M
1750.947	3.962	949767	REC_EVENT	1046	1	5	MOON	TRAY	TRAY	MOON	13	[0, 0, 0]	-999	PAL1	0	R1042M
1754.909	0.009	951748	REC_END	n/a	1	-999	n/a	n/a	n/a	n/a	13	[0, 0, 0]	-999	PAL1	0	R1042M
1754.918	0.867	951752	TEST_ORIENT	n/a	4	6	SOCK	BOMB	BOMB	SOCK	13	[0, 0, 0]	-999	PAL1	0	R1042M
1755.785	0.0	952186	TEST_PROBE	n/a	4	6	SOCK	BOMB	BOMB	SOCK	13	[0, 0, 0]	-999	PAL1	0	R1042M
1755.785	0.975	952186	REC_START	n/a	4	-999	n/a	BOMB	n/a	n/a	13	[0, 0, 0]	-999	PAL1	0	R1042M
1756.76	4.042	952673	REC_EVENT	975	4	6	SOCK	BOMB	BOMB	SOCK	13	[0, 0, 0]	-999	PAL1	0	R1042M
1760.802	5.379	954694	REC_END	n/a	4	-999	n/a	n/a	n/a	n/a	13	[0, 0, 0]	-999	PAL1	0	R1042M
1766.181	10.44	957383	ENCODING_START	n/a	0	-999	n/a	n/a	n/a	n/a	14	[0, 0, 0]	-999	PAL1	0	R1042M
1776.621	0.95	962603	STUDY_ORIENT	n/a	1	1	PIN	SHRIMP	SHRIMP	PIN	14	[0, 0, 0]	-999	PAL1	0	R1042M
1777.571	5.018	963078	STUDY_PAIR	n/a	1	1	PIN	SHRIMP	SHRIMP	PIN	14	[0, 0, 0]	-999	PAL1	0	R1042M
1782.589	0.917	965586	STUDY_ORIENT	n/a	2	6	BEAK	CAGE	CAGE	BEAK	14	[0, 0, 0]	-999	PAL1	0	R1042M
1783.506	5.034	966045	STUDY_PAIR	n/a	2	6	BEAK	CAGE	CAGE	BEAK	14	[0, 0, 0]	-999	PAL1	0	R1042M
1788.54	0.934	968562	STUDY_ORIENT	n/a	3	5	BOAT	RIB	BOAT	RIB	14	[0, 0, 0]	-999	PAL1	0	R1042M
1789.474	5.034	969029	STUDY_PAIR	n/a	3	5	BOAT	RIB	BOAT	RIB	14	[0, 0, 0]	-999	PAL1	0	R1042M
1794.508	0.935	971545	STUDY_ORIENT	n/a	4	2	STEM	CHIEF	CHIEF	STEM	14	[0, 0, 0]	-999	PAL1	0	R1042M
1795.443	5.033	972013	STUDY_PAIR	n/a	4	2	STEM	CHIEF	CHIEF	STEM	14	[0, 0, 0]	-999	PAL1	0	R1042M
1800.476	0.985	974529	STUDY_ORIENT	n/a	5	3	HAT	ARM	ARM	HAT	14	[0, 0, 0]	-999	PAL1	0	R1042M
1801.461	5.033	975021	STUDY_PAIR	n/a	5	3	HAT	ARM	ARM	HAT	14	[0, 0, 0]	-999	PAL1	0	R1042M
1806.494	0.851	977538	STUDY_ORIENT	n/a	6	4	SLEEVE	SPOON	SPOON	SLEEVE	14	[0, 0, 0]	-999	PAL1	0	R1042M
1807.345	4.001	977963	STUDY_PAIR	n/a	6	4	SLEEVE	SPOON	SPOON	SLEEVE	14	[0, 0, 0]	-999	PAL1	0	R1042M
1811.346	1.0	979963	START	n/a	-999	-999	n/a	n/a	n/a	n/a	14	[-999, -999, -999]	-999	PAL1	0	R1042M
1812.346	0.017	980463	MATH_START	n/a	-999	-999	n/a	n/a	n/a	n/a	14	[0, 0, 0]	-999	PAL1	0	R1042M
1812.363	3.65	980472	PROB	3626	-999	-999	n/a	n/a	n/a	n/a	14	[4, 8, 6]	18	PAL1	0	R1042M
1816.013	1.951	982297	PROB	1920	-999	-999	n/a	n/a	n/a	n/a	14	[1, 1, 2]	4	PAL1	0	R1042M
1817.964	2.15	983272	PROB	2121	-999	-999	n/a	n/a	n/a	n/a	14	[1, 5, 5]	11	PAL1	0	R1042M
1820.114	2.234	984347	PROB	2203	-999	-999	n/a	n/a	n/a	n/a	14	[1, 3, 9]	13	PAL1	0	R1042M
1822.348	2.584	985464	PROB	2553	-999	-999	n/a	n/a	n/a	n/a	14	[8, 4, 3]	15	PAL1	0	R1042M
1824.932	2.917	986756	PROB	2897	-999	-999	n/a	n/a	n/a	n/a	14	[7, 6, 2]	15	PAL1	0	R1042M
1827.849	2.351	988214	PROB	2324	-999	-999	n/a	n/a	n/a	n/a	14	[9, 9, 1]	19	PAL1	0	R1042M
1830.2	3.613	989389	PROB	3613	-999	-999	n/a	n/a	n/a	n/a	14	[7, 2, 9]	18	PAL1	0	R1042M
1833.813	0.004	991196	STOP	n/a	-999	-999	n/a	n/a	n/a	n/a	14	[-999, -999, -999]	-999	PAL1	0	R1042M
1833.817	0.0	991198	MATH_END	n/a	-999	-999	n/a	n/a	n/a	n/a	14	[0, 0, 0]	-999	PAL1	0	R1042M
1833.817	0.017	991198	TEST_START	n/a	-999	-999	n/a	n/a	n/a	n/a	14	[0, 0, 0]	-999	PAL1	0	R1042M
1833.834	0.866	991206	TEST_ORIENT	n/a	1	1	PIN	SHRIMP	SHRIMP	PIN	14	[0, 0, 0]	-999	PAL1	0	R1042M
1834.7	0.0	991639	TEST_PROBE	n/a	1	1	PIN	SHRIMP	SHRIMP	PIN	14	[0, 0, 0]	-999	PAL1	0	R1042M
1834.7	1.18	991639	REC_START	n/a	1	-999	n/a	SHRIMP	n/a	n/a	14	[0, 0, 0]	-999	PAL1	0	R1042M
1835.88	3.847	992229	REC_EVENT	1180	1	1	PIN	SHRIMP	SHRIMP	PIN	14	[0, 0, 0]	-999	PAL1	0	R1042M
1839.727	0.024	994153	REC_END	n/a	1	-999	n/a	n/a	n/a	n/a	14	[0, 0, 0]	-999	PAL1	0	R1042M
1839.751	0.816	994165	TEST_ORIENT	n/a	4	2	STEM	CHIEF	CHIEF	STEM	14	[0, 0, 0]	-999	PAL1	0	R1042M
1840.567	0.001	994572	TEST_PROBE	n/a	4	2	STEM	CHIEF	CHIEF	STEM	14	[0, 0, 0]	-999	PAL1	0	R1042M
1840.568	1.259	994573	REC_START	n/a	4	-999	n/a	CHIEF	n/a	n/a	14	[0, 0, 0]	-999	PAL1	0	R1042M
1841.827	3.741	995202	REC_EVENT	1259	4	2	STEM	CHIEF	CHIEF	STEM	14	[0, 0, 0]	-999	PAL1	0	R1042M
1845.568	0.017	997073	REC_END	n/a	4	-999	n/a	n/a	n/a	n/a	14	[0, 0, 0]	-999	PAL1	0	R1042M
1845.585	0.818	997081	TEST_ORIENT	n/a	5	3	HAT	ARM	ARM	HAT	14	[0, 0, 0]	-999	PAL1	0	R1042M
1846.403	0.0	997490	TEST_PROBE	n/a	5	3	HAT	ARM	ARM	HAT	14	[0, 0, 0]	-999	PAL1	0	R1042M
1846.403	1.009	997490	REC_START	n/a	5	-999	n/a	ARM	n/a	n/a	14	[0, 0, 0]	-999	PAL1	0	R1042M
1847.412	4.008	997995	REC_EVENT	1009	5	3	HAT	ARM	ARM	HAT	14	[0, 0, 0]	-999	PAL1	0	R1042M
1851.42	0.017	999998	REC_END	n/a	5	-999	n/a	n/a	n/a	n/a	14	[0, 0, 0]	-999	PAL1	0	R1042M
1851.437	0.934	1000007	TEST_ORIENT	n/a	6	4	SLEEVE	SPOON	SPOON	SLEEVE	14	[0, 0, 0]	-999	PAL1	0	R1042M
1852.371	0.0	1000474	TEST_PROBE	n/a	6	4	SLEEVE	SPOON	SPOON	SLEEVE	14	[0, 0, 0]	-999	PAL1	0	R1042M
1852.371	1.092	1000474	REC_START	n/a	6	-999	n/a	SPOON	n/a	n/a	14	[0, 0, 0]	-999	PAL1	0	R1042M
1853.463	3.925	1001020	REC_EVENT	1092	6	4	SLEEVE	SPOON	SPOON	SLEEVE	14	[0, 0, 0]	-999	PAL1	0	R1042M
1857.388	0.017	1002982	REC_END	n/a	6	-999	n/a	n/a	n/a	n/a	14	[0, 0, 0]	-999	PAL1	0	R1042M
1857.405	0.834	1002991	TEST_ORIENT	n/a	3	5	BOAT	RIB	BOAT	RIB	14	[0, 0, 0]	-999	PAL1	0	R1042M
1858.239	0.0	1003408	TEST_PROBE	n/a	3	5	BOAT	RIB	BOAT	RIB	14	[0, 0, 0]	-999	PAL1	0	R1042M
1858.239	1.188	1003408	REC_START	n/a	3	-999	n/a	RIB	n/a	n/a	14	[0, 0, 0]	-999	PAL1	0	R1042M
1859.427	3.829	1004001	REC_EVENT	1188	3	5	BOAT	RIB	BOAT	RIB	14	[0, 0, 0]	-999	PAL1	0	R1042M
1863.256	0.017	1005916	REC_END	n/a	3	-999	n/a	n/a	n/a	n/a	14	[0, 0, 0]	-999	PAL1	0	R1042M
1863.273	0.883	1005924	TEST_ORIENT	n/a	2	6	BEAK	CAGE	CAGE	BEAK	14	[0, 0, 0]	-999	PAL1	0	R1042M
1864.156	0.001	1006366	TEST_PROBE	n/a	2	6	BEAK	CAGE	CAGE	BEAK	14	[0, 0, 0]	-999	PAL1	0	R1042M
1864.157	1.173	1006366	REC_START	n/a	2	-999	n/a	CAGE	n/a	n/a	14	[0, 0, 0]	-999	PAL1	0	R1042M
1865.33	3.836	1006953	REC_EVENT	1173	2	6	BEAK	CAGE	CAGE	BEAK	14	[0, 0, 0]	-999	PAL1	0	R1042M
1869.166	85.151	1008870	REC_END	n/a	2	-999	n/a	n/a	n/a	n/a	14	[0, 0, 0]	-999	PAL1	0	R1042M
1954.317	10.442	1051442	ENCODING_START	n/a	0	-999	n/a	n/a	n/a	n/a	15	[0, 0, 0]	-999	PAL1	0	R1042M
1964.759	0.867	1056662	STUDY_ORIENT	n/a	1	5	LAKE	BRICK	BRICK	LAKE	15	[0, 0, 0]	-999	PAL1	0	R1042M
1965.626	5.034	1057096	STUDY_PAIR	n/a	1	5	LAKE	BRICK	BRICK	LAKE	15	[0, 0, 0]	-999	PAL1	0	R1042M
1970.66	0.967	1059612	STUDY_ORIENT	n/a	2	6	JAIL	SALT	JAIL	SALT	15	[0, 0, 0]	-999	PAL1	0	R1042M
1971.627	5.034	1060096	STUDY_PAIR	n/a	2	6	JAIL	SALT	JAIL	SALT	15	[0, 0, 0]	-999	PAL1	0	R1042M
1976.661	0.917	1062612	STUDY_ORIENT	n/a	3	3	SEAL	ROSE	ROSE	SEAL	15	[0, 0, 0]	-999	PAL1	0	R1042M
1977.578	5.018	1063071	STUDY_PAIR	n/a	3	3	SEAL	ROSE	ROSE	SEAL	15	[0, 0, 0]	-999	PAL1	0	R1042M
1982.596	0.967	1065580	STUDY_ORIENT	n/a	4	2	TOAD	BOOK	BOOK	TOAD	15	[0, 0, 0]	-999	PAL1	0	R1042M
1983.563	5.034	1066063	STUDY_PAIR	n/a	4	2	TOAD	BOOK	BOOK	TOAD	15	[0, 0, 0]	-999	PAL1	0	R1042M
1988.597	0.933	1068580	STUDY_ORIENT	n/a	5	1	MILK	CORN	CORN	MILK	15	[0, 0, 0]	-999	PAL1	0	R1042M
1989.53	5.018	1069046	STUDY_PAIR	n/a	5	1	MILK	CORN	CORN	MILK	15	[0, 0, 0]	-999	PAL1	0	R1042M
1994.548	0.984	1071555	STUDY_ORIENT	n/a	6	4	CUBE	DOLL	CUBE	DOLL	15	[0, 0, 0]	-999	PAL1	0	R1042M
1995.532	4.018	1072047	STUDY_PAIR	n/a	6	4	CUBE	DOLL	CUBE	DOLL	15	[0, 0, 0]	-999	PAL1	0	R1042M
1999.55	0.999	1074056	START	n/a	-999	-999	n/a	n/a	n/a	n/a	15	[-999, -999, -999]	-999	PAL1	0	R1042M
2000.549	0.017	1074555	MATH_START	n/a	-999	-999	n/a	n/a	n/a	n/a	15	[0, 0, 0]	-999	PAL1	0	R1042M
2000.566	2.702	1074564	PROB	2671	-999	-999	n/a	n/a	n/a	n/a	15	[8, 2, 7]	17	PAL1	0	R1042M
2003.268	2.883	1075915	PROB	2865	-999	-999	n/a	n/a	n/a	n/a	15	[3, 1, 9]	13	PAL1	0	R1042M
2006.151	2.201	1077356	PROB	2182	-999	-999	n/a	n/a	n/a	n/a	15	[6, 3, 2]	11	PAL1	0	R1042M
2008.352	3.434	1078456	PROB	3412	-999	-999	n/a	n/a	n/a	n/a	15	[4, 6, 6]	16	PAL1	0	R1042M
2011.786	2.9	1080173	PROB	2874	-999	-999	n/a	n/a	n/a	n/a	15	[6, 9, 5]	20	PAL1	0	R1042M
2014.686	2.9	1081623	PROB	2870	-999	-999	n/a	n/a	n/a	n/a	15	[9, 5, 7]	21	PAL1	0	R1042M
2017.586	4.539	1083073	PROB	4539	-999	-999	n/a	n/a	n/a	n/a	15	[3, 9, 1]	13	PAL1	0	R1042M
2022.125	0.013	1085342	STOP	n/a	-999	-999	n/a	n/a	n/a	n/a	15	[-999, -999, -999]	-999	PAL1	0	R1042M
2022.138	0.0	1085349	MATH_END	n/a	-999	-999	n/a	n/a	n/a	n/a	15	[0, 0, 0]	-999	PAL1	0	R1042M
2022.138	0.016	1085349	TEST_START	n/a	-999	-999	n/a	n/a	n/a	n/a	15	[0, 0, 0]	-999	PAL1	0	R1042M
2022.154	0.968	1085357	TEST_ORIENT	n/a	5	1	MILK	CORN	CORN	MILK	15	[0, 0, 0]	-999	PAL1	0	R1042M
2023.122	0.0	1085841	TEST_PROBE	n/a	5	1	MILK	CORN	CORN	MILK	15	[0, 0, 0]	-999	PAL1	0	R1042M
2023.122	0.999	1085841	REC_START	n/a	5	-999	n/a	CORN	n/a	n/a	15	[0, 0, 0]	-999	PAL1	0	R1042M
2024.121	4.018	1086340	REC_EVENT	999	5	1	MILK	CORN	CORN	MILK	15	[0, 0, 0]	-999	PAL1	0	R1042M
2028.139	0.017	1088349	REC_END	n/a	5	-999	n/a	n/a	n/a	n/a	15	[0, 0, 0]	-999	PAL1	0	R1042M
2028.156	0.817	1088357	TEST_ORIENT	n/a	4	2	TOAD	BOOK	BOOK	TOAD	15	[0, 0, 0]	-999	PAL1	0	R1042M
2028.973	0.0	1088766	TEST_PROBE	n/a	4	2	TOAD	BOOK	BOOK	TOAD	15	[0, 0, 0]	-999	PAL1	0	R1042M
2028.973	0.874	1088766	REC_START	n/a	4	-999	n/a	BOOK	n/a	n/a	15	[0, 0, 0]	-999	PAL1	0	R1042M
2029.847	4.143	1089203	REC_EVENT	874	4	2	TOAD	BOOK	BOOK	TOAD	15	[0, 0, 0]	-999	PAL1	0	R1042M
2033.99	0.017	1091274	REC_END	n/a	4	-999	n/a	n/a	n/a	n/a	15	[0, 0, 0]	-999	PAL1	0	R1042M
2034.007	1.034	1091283	TEST_ORIENT	n/a	3	3	SEAL	ROSE	ROSE	SEAL	15	[0, 0, 0]	-999	PAL1	0	R1042M
2035.041	0.0	1091800	REC_START	n/a	3	-999	n/a	ROSE	n/a	n/a	15	[0, 0, 0]	-999	PAL1	0	R1042M
2035.041	1.193	1091800	TEST_PROBE	n/a	3	3	SEAL	ROSE	ROSE	SEAL	15	[0, 0, 0]	-999	PAL1	0	R1042M
2036.234	3.824	1092396	REC_EVENT	1193	3	3	SEAL	ROSE	ROSE	SEAL	15	[0, 0, 0]	-999	PAL1	0	R1042M
2040.058	0.017	1094308	REC_END	n/a	3	-999	n/a	n/a	n/a	n/a	15	[0, 0, 0]	-999	PAL1	0	R1042M
2040.075	0.9	1094316	TEST_ORIENT	n/a	6	4	CUBE	DOLL	CUBE	DOLL	15	[0, 0, 0]	-999	PAL1	0	R1042M
2040.975	0.001	1094766	TEST_PROBE	n/a	6	4	CUBE	DOLL	CUBE	DOLL	15	[0, 0, 0]	-999	PAL1	0	R1042M
2040.976	0.829	1094767	REC_START	n/a	6	-999	n/a	DOLL	n/a	n/a	15	[0, 0, 0]	-999	PAL1	0	R1042M
2041.805	4.179	1095181	REC_EVENT	829	6	4	CUBE	DOLL	CUBE	DOLL	15	[0, 0, 0]	-999	PAL1	0	R1042M
2045.984	0.009	1097270	REC_END	n/a	6	-999	n/a	n/a	n/a	n/a	15	[0, 0, 0]	-999	PAL1	0	R1042M
2045.993	1.0	1097275	TEST_ORIENT	n/a	1	5	LAKE	BRICK	BRICK	LAKE	15	[0, 0, 0]	-999	PAL1	0	R1042M
2046.993	0.0	1097775	REC_START	n/a	1	-999	n/a	BRICK	n/a	n/a	15	[0, 0, 0]	-999	PAL1	0	R1042M
2046.993	0.931	1097775	TEST_PROBE	n/a	1	5	LAKE	BRICK	BRICK	LAKE	15	[0, 0, 0]	-999	PAL1	0	R1042M
2047.924	4.086	1098240	REC_EVENT	931	1	5	LAKE	BRICK	BRICK	LAKE	15	[0, 0, 0]	-999	PAL1	0	R1042M
2052.01	0.017	1100283	REC_END	n/a	1	-999	n/a	n/a	n/a	n/a	15	[0, 0, 0]	-999	PAL1	0	R1042M
2052.027	0.851	1100292	TEST_ORIENT	n/a	2	6	JAIL	SALT	JAIL	SALT	15	[0, 0, 0]	-999	PAL1	0	R1042M
2052.878	0.0	1100717	TEST_PROBE	n/a	2	6	JAIL	SALT	JAIL	SALT	15	[0, 0, 0]	-999	PAL1	0	R1042M
2052.878	0.866	1100717	REC_START	n/a	2	-999	n/a	SALT	n/a	n/a	15	[0, 0, 0]	-999	PAL1	0	R1042M
2053.744	4.151	1101150	REC_EVENT	866	2	6	JAIL	SALT	JAIL	SALT	15	[0, 0, 0]	-999	PAL1	0	R1042M
2057.895	14.669	1103225	REC_END	n/a	2	-999	n/a	n/a	n/a	n/a	15	[0, 0, 0]	-999	PAL1	0	R1042M
2072.564	10.453	1110559	ENCODING_START	n/a	0	-999	n/a	n/a	n/a	n/a	16	[0, 0, 0]	-999	PAL1	0	R1042M
2083.017	0.867	1115785	STUDY_ORIENT	n/a	1	5	TOAST	PEARL	TOAST	PEARL	16	[0, 0, 0]	-999	PAL1	0	R1042M
2083.884	5.034	1116219	STUDY_PAIR	n/a	1	5	TOAST	PEARL	TOAST	PEARL	16	[0, 0, 0]	-999	PAL1	0	R1042M
2088.918	0.984	1118735	STUDY_ORIENT	n/a	2	6	PEAR	TRUCK	PEAR	TRUCK	16	[0, 0, 0]	-999	PAL1	0	R1042M
2089.902	5.034	1119227	STUDY_PAIR	n/a	2	6	PEAR	TRUCK	PEAR	TRUCK	16	[0, 0, 0]	-999	PAL1	0	R1042M
2094.936	0.9	1121744	STUDY_ORIENT	n/a	3	3	BRUSH	CHALK	CHALK	BRUSH	16	[0, 0, 0]	-999	PAL1	0	R1042M
2095.836	5.018	1122194	STUDY_PAIR	n/a	3	3	BRUSH	CHALK	CHALK	BRUSH	16	[0, 0, 0]	-999	PAL1	0	R1042M
2100.854	1.0	1124703	STUDY_ORIENT	n/a	4	4	GATE	DESK	DESK	GATE	16	[0, 0, 0]	-999	PAL1	0	R1042M
2101.854	5.034	1125203	STUDY_PAIR	n/a	4	4	GATE	DESK	DESK	GATE	16	[0, 0, 0]	-999	PAL1	0	R1042M
2106.888	0.883	1127719	STUDY_ORIENT	n/a	5	1	WAND	POOL	POOL	WAND	16	[0, 0, 0]	-999	PAL1	0	R1042M
2107.771	5.035	1128161	STUDY_PAIR	n/a	5	1	WAND	POOL	POOL	WAND	16	[0, 0, 0]	-999	PAL1	0	R1042M
2112.806	0.799	1130678	STUDY_ORIENT	n/a	6	2	FOX	MAIL	FOX	MAIL	16	[0, 0, 0]	-999	PAL1	0	R1042M
2113.605	4.001	1131077	STUDY_PAIR	n/a	6	2	FOX	MAIL	FOX	MAIL	16	[0, 0, 0]	-999	PAL1	0	R1042M
2117.606	1.0	1133078	START	n/a	-999	-999	n/a	n/a	n/a	n/a	16	[-999, -999, -999]	-999	PAL1	0	R1042M
2118.606	0.017	1133578	MATH_START	n/a	-999	-999	n/a	n/a	n/a	n/a	16	[0, 0, 0]	-999	PAL1	0	R1042M
2118.623	3.468	1133586	PROB	3438	-999	-999	n/a	n/a	n/a	n/a	16	[1, 9, 8]	18	PAL1	0	R1042M
2122.091	3.383	1135320	PROB	3362	-999	-999	n/a	n/a	n/a	n/a	16	[3, 9, 4]	16	PAL1	0	R1042M
2125.474	2.619	1137011	PROB	2595	-999	-999	n/a	n/a	n/a	n/a	16	[1, 5, 2]	8	PAL1	0	R1042M
2128.093	4.2	1138321	PROB	4176	-999	-999	n/a	n/a	n/a	n/a	16	[7, 4, 9]	20	PAL1	0	R1042M
2132.293	2.367	1140421	PROB	2335	-999	-999	n/a	n/a	n/a	n/a	16	[7, 1, 3]	11	PAL1	0	R1042M
2134.66	2.484	1141604	PROB	2465	-999	-999	n/a	n/a	n/a	n/a	16	[2, 7, 5]	14	PAL1	0	R1042M
2137.144	2.165	1142846	PROB	2165	-999	-999	n/a	n/a	n/a	n/a	16	[9, 5, 7]	21	PAL1	0	R1042M
2139.309	0.002	1143928	STOP	n/a	-999	-999	n/a	n/a	n/a	n/a	16	[-999, -999, -999]	-999	PAL1	0	R1042M
2139.311	0.0	1143929	MATH_END	n/a	-999	-999	n/a	n/a	n/a	n/a	16	[0, 0, 0]	-999	PAL1	0	R1042M
2139.311	0.017	1143929	TEST_START	n/a	-999	-999	n/a	n/a	n/a	n/a	16	[0, 0, 0]	-999	PAL1	0	R1042M
2139.328	0.834	1143938	TEST_ORIENT	n/a	5	1	WAND	POOL	POOL	WAND	16	[0, 0, 0]	-999	PAL1	0	R1042M
2140.162	0.0	1144355	TEST_PROBE	n/a	5	1	WAND	POOL	POOL	WAND	16	[0, 0, 0]	-999	PAL1	0	R1042M
2140.162	0.982	1144355	REC_START	n/a	5	-999	n/a	POOL	n/a	n/a	16	[0, 0, 0]	-999	PAL1	0	R1042M
2141.144	4.035	1144846	REC_EVENT	982	5	1	WAND	POOL	POOL	WAND	16	[0, 0, 0]	-999	PAL1	0	R1042M
2145.179	0.017	1146863	REC_END	n/a	5	-999	n/a	n/a	n/a	n/a	16	[0, 0, 0]	-999	PAL1	0	R1042M
2145.196	0.967	1146871	TEST_ORIENT	n/a	6	2	FOX	MAIL	FOX	MAIL	16	[0, 0, 0]	-999	PAL1	0	R1042M
2146.163	0.0	1147355	TEST_PROBE	n/a	6	2	FOX	MAIL	FOX	MAIL	16	[0, 0, 0]	-999	PAL1	0	R1042M
2146.163	0.87	1147355	REC_START	n/a	6	-999	n/a	MAIL	n/a	n/a	16	[0, 0, 0]	-999	PAL1	0	R1042M
2147.033	4.147	1147790	REC_EVENT	870	6	2	FOX	MAIL	FOX	MAIL	16	[0, 0, 0]	-999	PAL1	0	R1042M
2151.18	0.017	1149863	REC_END	n/a	6	-999	n/a	n/a	n/a	n/a	16	[0, 0, 0]	-999	PAL1	0	R1042M
2151.197	1.0	1149872	TEST_ORIENT	n/a	3	3	BRUSH	CHALK	CHALK	BRUSH	16	[0, 0, 0]	-999	PAL1	0	R1042M
2152.197	0.001	1150372	TEST_PROBE	n/a	3	3	BRUSH	CHALK	CHALK	BRUSH	16	[0, 0, 0]	-999	PAL1	0	R1042M
2152.198	1.57	1150372	REC_START	n/a	3	-999	n/a	CHALK	n/a	n/a	16	[0, 0, 0]	-999	PAL1	0	R1042M
2153.768	3.43	1151157	REC_EVENT	1570	3	3	BRUSH	CHALK	CHALK	BRUSH	16	[0, 0, 0]	-999	PAL1	0	R1042M
2157.198	0.017	1152872	REC_END	n/a	3	-999	n/a	n/a	n/a	n/a	16	[0, 0, 0]	-999	PAL1	0	R1042M
2157.215	0.884	1152880	TEST_ORIENT	n/a	4	4	GATE	DESK	DESK	GATE	16	[0, 0, 0]	-999	PAL1	0	R1042M
2158.099	0.0	1153322	TEST_PROBE	n/a	4	4	GATE	DESK	DESK	GATE	16	[0, 0, 0]	-999	PAL1	0	R1042M
2158.099	1.081	1153322	REC_START	n/a	4	-999	n/a	DESK	n/a	n/a	16	[0, 0, 0]	-999	PAL1	0	R1042M
2159.18	3.936	1153863	REC_EVENT	1081	4	4	GATE	DESK	DESK	GATE	16	[0, 0, 0]	-999	PAL1	0	R1042M
2163.116	0.017	1155830	REC_END	n/a	4	-999	n/a	n/a	n/a	n/a	16	[0, 0, 0]	-999	PAL1	0	R1042M
2163.133	0.834	1155839	TEST_ORIENT	n/a	1	5	TOAST	PEARL	TOAST	PEARL	16	[0, 0, 0]	-999	PAL1	0	R1042M
2163.967	0.0	1156256	TEST_PROBE	n/a	1	5	TOAST	PEARL	TOAST	PEARL	16	[0, 0, 0]	-999	PAL1	0	R1042M
2163.967	1.124	1156256	REC_START	n/a	1	-999	n/a	PEARL	n/a	n/a	16	[0, 0, 0]	-999	PAL1	0	R1042M
2165.091	3.893	1156818	REC_EVENT	1124	1	5	TOAST	PEARL	TOAST	PEARL	16	[0, 0, 0]	-999	PAL1	0	R1042M
2168.984	0.017	1158764	REC_END	n/a	1	-999	n/a	n/a	n/a	n/a	16	[0, 0, 0]	-999	PAL1	0	R1042M
2169.001	0.9	1158773	TEST_ORIENT	n/a	2	6	PEAR	TRUCK	PEAR	TRUCK	16	[0, 0, 0]	-999	PAL1	0	R1042M
2169.901	0.001	1159223	TEST_PROBE	n/a	2	6	PEAR	TRUCK	PEAR	TRUCK	16	[0, 0, 0]	-999	PAL1	0	R1042M
2169.902	0.963	1159223	REC_START	n/a	2	-999	n/a	TRUCK	n/a	n/a	16	[0, 0, 0]	-999	PAL1	0	R1042M
2170.865	4.053	1159705	REC_EVENT	963	2	6	PEAR	TRUCK	PEAR	TRUCK	16	[0, 0, 0]	-999	PAL1	0	R1042M
2174.918	28.239	1161731	REC_END	n/a	2	-999	n/a	n/a	n/a	n/a	16	[0, 0, 0]	-999	PAL1	0	R1042M
2203.157	10.452	1175849	ENCODING_START	n/a	0	-999	n/a	n/a	n/a	n/a	17	[0, 0, 0]	-999	PAL1	0	R1042M
2213.609	0.834	1181074	STUDY_ORIENT	n/a	1	5	STRING	WOOD	STRING	WOOD	17	[0, 0, 0]	-999	PAL1	0	R1042M
2214.443	5.018	1181491	STUDY_PAIR	n/a	1	5	STRING	WOOD	STRING	WOOD	17	[0, 0, 0]	-999	PAL1	0	R1042M
2219.461	0.883	1184000	STUDY_ORIENT	n/a	2	4	GOAT	BLUSH	BLUSH	GOAT	17	[0, 0, 0]	-999	PAL1	0	R1042M
2220.344	5.018	1184442	STUDY_PAIR	n/a	2	4	GOAT	BLUSH	BLUSH	GOAT	17	[0, 0, 0]	-999	PAL1	0	R1042M
2225.362	0.9	1186950	STUDY_ORIENT	n/a	3	3	THUMB	CLOTH	CLOTH	THUMB	17	[0, 0, 0]	-999	PAL1	0	R1042M
2226.262	5.018	1187400	STUDY_PAIR	n/a	3	3	THUMB	CLOTH	CLOTH	THUMB	17	[0, 0, 0]	-999	PAL1	0	R1042M
2231.28	0.967	1189909	STUDY_ORIENT	n/a	4	2	SUN	CLOUD	SUN	CLOUD	17	[0, 0, 0]	-999	PAL1	0	R1042M
2232.247	5.034	1190392	STUDY_PAIR	n/a	4	2	SUN	CLOUD	SUN	CLOUD	17	[0, 0, 0]	-999	PAL1	0	R1042M
2237.281	0.817	1192909	STUDY_ORIENT	n/a	5	1	LAMB	ARK	ARK	LAMB	17	[0, 0, 0]	-999	PAL1	0	R1042M
2238.098	5.034	1193318	STUDY_PAIR	n/a	5	1	LAMB	ARK	ARK	LAMB	17	[0, 0, 0]	-999	PAL1	0	R1042M
2243.132	0.85	1195834	STUDY_ORIENT	n/a	6	6	CAR	LAWN	LAWN	CAR	17	[0, 0, 0]	-999	PAL1	0	R1042M
2243.982	4.001	1196259	STUDY_PAIR	n/a	6	6	CAR	LAWN	LAWN	CAR	17	[0, 0, 0]	-999	PAL1	0	R1042M
2247.983	1.0	1198260	START	n/a	-999	-999	n/a	n/a	n/a	n/a	17	[-999, -999, -999]	-999	PAL1	0	R1042M
2248.983	0.017	1198760	MATH_START	n/a	-999	-999	n/a	n/a	n/a	n/a	17	[0, 0, 0]	-999	PAL1	0	R1042M
2249.0	4.168	1198768	PROB	4141	-999	-999	n/a	n/a	n/a	n/a	17	[8, 9, 7]	24	PAL1	0	R1042M
2253.168	2.349	1200852	PROB	2316	-999	-999	n/a	n/a	n/a	n/a	17	[1, 2, 3]	6	PAL1	0	R1042M
2255.517	2.017	1202026	PROB	1991	-999	-999	n/a	n/a	n/a	n/a	17	[1, 8, 3]	12	PAL1	0	R1042M
2257.534	2.084	1203035	PROB	2062	-999	-999	n/a	n/a	n/a	n/a	17	[7, 6, 1]	14	PAL1	0	R1042M
2259.618	2.485	1204077	PROB	2459	-999	-999	n/a	n/a	n/a	n/a	17	[3, 6, 6]	15	PAL1	0	R1042M
2262.103	3.084	1205319	PROB	3054	-999	-999	n/a	n/a	n/a	n/a	17	[7, 4, 5]	16	PAL1	0	R1042M
2265.187	2.667	1206861	PROB	2634	-999	-999	n/a	n/a	n/a	n/a	17	[7, 3, 6]	16	PAL1	0	R1042M
2267.854	3.367	1208194	PROB	3367	-999	-999	n/a	n/a	n/a	n/a	17	[6, 3, 8]	17	PAL1	0	R1042M
2271.221	0.017	1209877	STOP	n/a	-999	-999	n/a	n/a	n/a	n/a	17	[-999, -999, -999]	-999	PAL1	0	R1042M
2271.238	0.0	1209886	MATH_END	n/a	-999	-999	n/a	n/a	n/a	n/a	17	[0, 0, 0]	-999	PAL1	0	R1042M
2271.238	0.017	1209886	TEST_START	n/a	-999	-999	n/a	n/a	n/a	n/a	17	[0, 0, 0]	-999	PAL1	0	R1042M
2271.255	0.8	1209894	TEST_ORIENT	n/a	5	1	LAMB	ARK	ARK	LAMB	17	[0, 0, 0]	-999	PAL1	0	R1042M
2272.055	0.0	1210294	REC_START	n/a	5	-999	n/a	ARK	n/a	n/a	17	[0, 0, 0]	-999	PAL1	0	R1042M
2272.055	0.89	1210294	TEST_PROBE	n/a	5	1	LAMB	ARK	ARK	LAMB	17	[0, 0, 0]	-999	PAL1	0	R1042M
2272.945	4.127	1210739	REC_EVENT	890	5	1	LAMB	ARK	ARK	LAMB	17	[0, 0, 0]	-999	PAL1	0	R1042M
2277.072	0.017	1212803	REC_END	n/a	5	-999	n/a	n/a	n/a	n/a	17	[0, 0, 0]	-999	PAL1	0	R1042M
2277.089	1.034	1212811	TEST_ORIENT	n/a	4	2	SUN	CLOUD	SUN	CLOUD	17	[0, 0, 0]	-999	PAL1	0	R1042M
2278.123	0.0	1213328	TEST_PROBE	n/a	4	2	SUN	CLOUD	SUN	CLOUD	17	[0, 0, 0]	-999	PAL1	0	R1042M
2278.123	0.917	1213328	REC_START	n/a	4	-999	n/a	CLOUD	n/a	n/a	17	[0, 0, 0]	-999	PAL1	0	R1042M
2279.04	4.1	1213787	REC_EVENT	917	4	2	SUN	CLOUD	SUN	CLOUD	17	[0, 0, 0]	-999	PAL1	0	R1042M
2283.14	0.017	1215836	REC_END	n/a	4	-999	n/a	n/a	n/a	n/a	17	[0, 0, 0]	-999	PAL1	0	R1042M
2283.157	0.867	1215845	TEST_ORIENT	n/a	3	3	THUMB	CLOTH	CLOTH	THUMB	17	[0, 0, 0]	-999	PAL1	0	R1042M
2284.024	0.0	1216278	TEST_PROBE	n/a	3	3	THUMB	CLOTH	CLOTH	THUMB	17	[0, 0, 0]	-999	PAL1	0	R1042M
2284.024	1.116	1216278	REC_START	n/a	3	-999	n/a	CLOTH	n/a	n/a	17	[0, 0, 0]	-999	PAL1	0	R1042M
2285.14	3.901	1216836	REC_EVENT	1116	3	3	THUMB	CLOTH	CLOTH	THUMB	17	[0, 0, 0]	-999	PAL1	0	R1042M
2289.041	0.017	1218787	REC_END	n/a	3	-999	n/a	n/a	n/a	n/a	17	[0, 0, 0]	-999	PAL1	0	R1042M
2289.058	0.95	1218795	TEST_ORIENT	n/a	2	4	GOAT	BLUSH	BLUSH	GOAT	17	[0, 0, 0]	-999	PAL1	0	R1042M
2290.008	0.001	1219270	TEST_PROBE	n/a	2	4	GOAT	BLUSH	BLUSH	GOAT	17	[0, 0, 0]	-999	PAL1	0	R1042M
2290.009	0.895	1219270	REC_START	n/a	2	-999	n/a	BLUSH	n/a	n/a	17	[0, 0, 0]	-999	PAL1	0	R1042M
2290.904	4.114	1219718	REC_EVENT	895	2	4	GOAT	BLUSH	BLUSH	GOAT	17	[0, 0, 0]	-999	PAL1	0	R1042M
2295.018	0.008	1221775	REC_END	n/a	2	-999	n/a	n/a	n/a	n/a	17	[0, 0, 0]	-999	PAL1	0	R1042M
2295.026	0.834	1221779	TEST_ORIENT	n/a	1	5	STRING	WOOD	STRING	WOOD	17	[0, 0, 0]	-999	PAL1	0	R1042M
2295.86	0.0	1222196	TEST_PROBE	n/a	1	5	STRING	WOOD	STRING	WOOD	17	[0, 0, 0]	-999	PAL1	0	R1042M
2295.86	0.879	1222196	REC_START	n/a	1	-999	n/a	WOOD	n/a	n/a	17	[0, 0, 0]	-999	PAL1	0	R1042M
2296.739	4.138	1222635	REC_EVENT	879	1	5	STRING	WOOD	STRING	WOOD	17	[0, 0, 0]	-999	PAL1	0	R1042M
2300.877	0.017	1224704	REC_END	n/a	1	-999	n/a	n/a	n/a	n/a	17	[0, 0, 0]	-999	PAL1	0	R1042M
2300.894	1.0	1224712	TEST_ORIENT	n/a	6	6	CAR	LAWN	LAWN	CAR	17	[0, 0, 0]	-999	PAL1	0	R1042M
2301.894	0.0	1225212	TEST_PROBE	n/a	6	6	CAR	LAWN	LAWN	CAR	17	[0, 0, 0]	-999	PAL1	0	R1042M
2301.894	1.079	1225212	REC_START	n/a	6	-999	n/a	LAWN	n/a	n/a	17	[0, 0, 0]	-999	PAL1	0	R1042M
2302.973	3.939	1225752	REC_EVENT	1079	6	6	CAR	LAWN	LAWN	CAR	17	[0, 0, 0]	-999	PAL1	0	R1042M
2306.912	31.117	1227721	REC_END	n/a	6	-999	n/a	n/a	n/a	n/a	17	[0, 0, 0]	-999	PAL1	0	R1042M
2338.029	10.441	1243278	ENCODING_START	n/a	0	-999	n/a	n/a	n/a	n/a	18	[0, 0, 0]	-999	PAL1	0	R1042M
2348.47	0.784	1248498	STUDY_ORIENT	n/a	1	1	BOX	BEACH	BOX	BEACH	18	[0, 0, 0]	-999	PAL1	0	R1042M
2349.254	5.034	1248890	STUDY_PAIR	n/a	1	1	BOX	BEACH	BOX	BEACH	18	[0, 0, 0]	-999	PAL1	0	R1042M
2354.288	0.9	1251407	STUDY_ORIENT	n/a	2	6	NOSE	CLIFF	CLIFF	NOSE	18	[0, 0, 0]	-999	PAL1	0	R1042M
2355.188	5.034	1251857	STUDY_PAIR	n/a	2	6	NOSE	CLIFF	CLIFF	NOSE	18	[0, 0, 0]	-999	PAL1	0	R1042M
2360.222	0.901	1254373	STUDY_ORIENT	n/a	3	5	POND	GRASS	POND	GRASS	18	[0, 0, 0]	-999	PAL1	0	R1042M
2361.123	5.034	1254824	STUDY_PAIR	n/a	3	5	POND	GRASS	POND	GRASS	18	[0, 0, 0]	-999	PAL1	0	R1042M
2366.157	0.983	1257341	STUDY_ORIENT	n/a	4	4	SHARK	CROW	CROW	SHARK	18	[0, 0, 0]	-999	PAL1	0	R1042M
2367.14	5.018	1257832	STUDY_PAIR	n/a	4	4	SHARK	CROW	CROW	SHARK	18	[0, 0, 0]	-999	PAL1	0	R1042M
2372.158	0.834	1260341	STUDY_ORIENT	n/a	5	3	NEST	EAR	NEST	EAR	18	[0, 0, 0]	-999	PAL1	0	R1042M
2372.992	5.034	1260758	STUDY_PAIR	n/a	5	3	NEST	EAR	NEST	EAR	18	[0, 0, 0]	-999	PAL1	0	R1042M
2378.026	0.933	1263274	STUDY_ORIENT	n/a	6	2	WHALE	CORD	WHALE	CORD	18	[0, 0, 0]	-999	PAL1	0	R1042M
2378.959	4.001	1263741	STUDY_PAIR	n/a	6	2	WHALE	CORD	WHALE	CORD	18	[0, 0, 0]	-999	PAL1	0	R1042M
2382.96	1.0	1265741	START	n/a	-999	-999	n/a	n/a	n/a	n/a	18	[-999, -999, -999]	-999	PAL1	0	R1042M
2383.96	0.017	1266241	MATH_START	n/a	-999	-999	n/a	n/a	n/a	n/a	18	[0, 0, 0]	-999	PAL1	0	R1042M
2383.977	3.151	1266250	PROB	3132	-999	-999	n/a	n/a	n/a	n/a	18	[5, 8, 9]	22	PAL1	0	R1042M
2387.128	2.466	1267825	PROB	2444	-999	-999	n/a	n/a	n/a	n/a	18	[3, 4, 2]	9	PAL1	0	R1042M
2389.594	1.984	1269058	PROB	1962	-999	-999	n/a	n/a	n/a	n/a	18	[1, 2, 9]	12	PAL1	0	R1042M
2391.578	1.784	1270050	PROB	1763	-999	-999	n/a	n/a	n/a	n/a	18	[1, 8, 1]	10	PAL1	0	R1042M
2393.362	3.051	1270942	PROB	3027	-999	-999	n/a	n/a	n/a	n/a	18	[9, 2, 3]	14	PAL1	0	R1042M
2396.413	2.601	1272467	PROB	2576	-999	-999	n/a	n/a	n/a	n/a	18	[8, 5, 5]	18	PAL1	0	R1042M
2399.014	2.15	1273767	PROB	2127	-999	-999	n/a	n/a	n/a	n/a	18	[6, 3, 9]	18	PAL1	0	R1042M
2401.164	3.592	1274842	PROB	3592	-999	-999	n/a	n/a	n/a	n/a	18	[6, 8, 9]	23	PAL1	0	R1042M
2404.756	0.008	1276638	STOP	n/a	-999	-999	n/a	n/a	n/a	n/a	18	[-999, -999, -999]	-999	PAL1	0	R1042M
2404.764	0.0	1276642	MATH_END	n/a	-999	-999	n/a	n/a	n/a	n/a	18	[0, 0, 0]	-999	PAL1	0	R1042M
2404.764	0.017	1276642	TEST_START	n/a	-999	-999	n/a	n/a	n/a	n/a	18	[0, 0, 0]	-999	PAL1	0	R1042M
2404.781	0.983	1276651	TEST_ORIENT	n/a	1	1	BOX	BEACH	BOX	BEACH	18	[0, 0, 0]	-999	PAL1	0	R1042M
2405.764	0.001	1277142	TEST_PROBE	n/a	1	1	BOX	BEACH	BOX	BEACH	18	[0, 0, 0]	-999	PAL1	0	R1042M
2405.765	1.025	1277143	REC_START	n/a	1	-999	n/a	BEACH	n/a	n/a	18	[0, 0, 0]	-999	PAL1	0	R1042M
2406.79	4.0	1277655	REC_EVENT	1025	1	1	BOX	BEACH	BOX	BEACH	18	[0, 0, 0]	-999	PAL1	0	R1042M
2410.79	0.009	1279655	REC_END	n/a	1	-999	n/a	n/a	n/a	n/a	18	[0, 0, 0]	-999	PAL1	0	R1042M
2410.799	1.034	1279659	TEST_ORIENT	n/a	6	2	WHALE	CORD	WHALE	CORD	18	[0, 0, 0]	-999	PAL1	0	R1042M
2411.833	0.0	1280176	TEST_PROBE	n/a	6	2	WHALE	CORD	WHALE	CORD	18	[0, 0, 0]	-999	PAL1	0	R1042M
2411.833	0.904	1280176	REC_START	n/a	6	-999	n/a	CORD	n/a	n/a	18	[0, 0, 0]	-999	PAL1	0	R1042M
2412.737	4.113	1280628	REC_EVENT	904	6	2	WHALE	CORD	WHALE	CORD	18	[0, 0, 0]	-999	PAL1	0	R1042M
2416.85	0.017	1282684	REC_END	n/a	6	-999	n/a	n/a	n/a	n/a	18	[0, 0, 0]	-999	PAL1	0	R1042M
2416.867	0.866	1282693	TEST_ORIENT	n/a	5	3	NEST	EAR	NEST	EAR	18	[0, 0, 0]	-999	PAL1	0	R1042M
2417.733	0.0	1283126	TEST_PROBE	n/a	5	3	NEST	EAR	NEST	EAR	18	[0, 0, 0]	-999	PAL1	0	R1042M
2417.733	0.838	1283126	REC_START	n/a	5	-999	n/a	EAR	n/a	n/a	18	[0, 0, 0]	-999	PAL1	0	R1042M
2418.571	4.179	1283545	REC_EVENT	838	5	3	NEST	EAR	NEST	EAR	18	[0, 0, 0]	-999	PAL1	0	R1042M
2422.75	0.017	1285634	REC_END	n/a	5	-999	n/a	n/a	n/a	n/a	18	[0, 0, 0]	-999	PAL1	0	R1042M
2422.767	0.884	1285643	TEST_ORIENT	n/a	4	4	SHARK	CROW	CROW	SHARK	18	[0, 0, 0]	-999	PAL1	0	R1042M
2423.651	0.0	1286085	TEST_PROBE	n/a	4	4	SHARK	CROW	CROW	SHARK	18	[0, 0, 0]	-999	PAL1	0	R1042M
2423.651	1.405	1286085	REC_START	n/a	4	-999	n/a	CROW	n/a	n/a	18	[0, 0, 0]	-999	PAL1	0	R1042M
2425.056	3.612	1286787	REC_EVENT	1405	4	4	SHARK	CROW	CROW	SHARK	18	[0, 0, 0]	-999	PAL1	0	R1042M
2428.668	0.017	1288593	REC_END	n/a	4	-999	n/a	n/a	n/a	n/a	18	[0, 0, 0]	-999	PAL1	0	R1042M
2428.685	1.0	1288601	TEST_ORIENT	n/a	3	5	POND	GRASS	POND	GRASS	18	[0, 0, 0]	-999	PAL1	0	R1042M
2429.685	0.001	1289101	TEST_PROBE	n/a	3	5	POND	GRASS	POND	GRASS	18	[0, 0, 0]	-999	PAL1	0	R1042M
2429.686	0.857	1289102	REC_START	n/a	3	-999	n/a	GRASS	n/a	n/a	18	[0, 0, 0]	-999	PAL1	0	R1042M
2430.543	4.152	1289530	REC_EVENT	857	3	5	POND	GRASS	POND	GRASS	18	[0, 0, 0]	-999	PAL1	0	R1042M
2434.695	0.008	1291606	REC_END	n/a	3	-999	n/a	n/a	n/a	n/a	18	[0, 0, 0]	-999	PAL1	0	R1042M
2434.703	0.884	1291610	TEST_ORIENT	n/a	2	6	NOSE	CLIFF	CLIFF	NOSE	18	[0, 0, 0]	-999	PAL1	0	R1042M
2435.587	0.0	1292052	TEST_PROBE	n/a	2	6	NOSE	CLIFF	CLIFF	NOSE	18	[0, 0, 0]	-999	PAL1	0	R1042M
2435.587	1.003	1292052	REC_START	n/a	2	-999	n/a	CLIFF	n/a	n/a	18	[0, 0, 0]	-999	PAL1	0	R1042M
2436.59	4.014	1292553	REC_EVENT	1003	2	6	NOSE	CLIFF	CLIFF	NOSE	18	[0, 0, 0]	-999	PAL1	0	R1042M
2440.604	16.257	1294560	REC_END	n/a	2	-999	n/a	n/a	n/a	n/a	18	[0, 0, 0]	-999	PAL1	0	R1042M
2456.861	10.45	1302688	ENCODING_START	n/a	0	-999	n/a	n/a	n/a	n/a	19	[0, 0, 0]	-999	PAL1	0	R1042M
2467.311	0.966	1307912	STUDY_ORIENT	n/a	1	1	SHOE	PIG	PIG	SHOE	19	[0, 0, 0]	-999	PAL1	0	R1042M
2468.277	5.018	1308395	STUDY_PAIR	n/a	1	1	SHOE	PIG	PIG	SHOE	19	[0, 0, 0]	-999	PAL1	0	R1042M
2473.295	0.817	1310904	STUDY_ORIENT	n/a	2	6	VINE	CHIN	VINE	CHIN	19	[0, 0, 0]	-999	PAL1	0	R1042M
2474.112	5.034	1311313	STUDY_PAIR	n/a	2	6	VINE	CHIN	VINE	CHIN	19	[0, 0, 0]	-999	PAL1	0	R1042M
2479.146	0.85	1313829	STUDY_ORIENT	n/a	3	5	LIP	ROAD	ROAD	LIP	19	[0, 0, 0]	-999	PAL1	0	R1042M
2479.996	5.018	1314254	STUDY_PAIR	n/a	3	5	LIP	ROAD	ROAD	LIP	19	[0, 0, 0]	-999	PAL1	0	R1042M
2485.014	0.85	1316763	STUDY_ORIENT	n/a	4	4	STOVE	RAT	STOVE	RAT	19	[0, 0, 0]	-999	PAL1	0	R1042M
2485.864	5.018	1317188	STUDY_PAIR	n/a	4	4	STOVE	RAT	STOVE	RAT	19	[0, 0, 0]	-999	PAL1	0	R1042M
2490.882	0.917	1319697	STUDY_ORIENT	n/a	5	3	PARK	PURSE	PURSE	PARK	19	[0, 0, 0]	-999	PAL1	0	R1042M
2491.799	5.034	1320155	STUDY_PAIR	n/a	5	3	PARK	PURSE	PURSE	PARK	19	[0, 0, 0]	-999	PAL1	0	R1042M
2496.833	0.95	1322672	STUDY_ORIENT	n/a	6	2	LOCK	HAWK	LOCK	HAWK	19	[0, 0, 0]	-999	PAL1	0	R1042M
2497.783	4.001	1323147	STUDY_PAIR	n/a	6	2	LOCK	HAWK	LOCK	HAWK	19	[0, 0, 0]	-999	PAL1	0	R1042M
2501.784	1.0	1325147	START	n/a	-999	-999	n/a	n/a	n/a	n/a	19	[-999, -999, -999]	-999	PAL1	0	R1042M
2502.784	0.017	1325647	MATH_START	n/a	-999	-999	n/a	n/a	n/a	n/a	19	[0, 0, 0]	-999	PAL1	0	R1042M
2502.801	3.484	1325656	PROB	3460	-999	-999	n/a	n/a	n/a	n/a	19	[7, 4, 5]	16	PAL1	0	R1042M
2506.285	3.534	1327397	PROB	3504	-999	-999	n/a	n/a	n/a	n/a	19	[4, 6, 6]	16	PAL1	0	R1042M
2509.819	2.467	1329164	PROB	2442	-999	-999	n/a	n/a	n/a	n/a	19	[7, 6, 7]	20	PAL1	0	R1042M
2512.286	2.001	1330398	PROB	1967	-999	-999	n/a	n/a	n/a	n/a	19	[1, 3, 5]	9	PAL1	0	R1042M
2514.287	2.216	1331398	PROB	2189	-999	-999	n/a	n/a	n/a	n/a	19	[5, 4, 3]	12	PAL1	0	R1042M
2516.503	3.801	1332506	PROB	3782	-999	-999	n/a	n/a	n/a	n/a	19	[9, 4, 5]	18	PAL1	0	R1042M
2520.304	2.989	1334406	PROB	2989	-999	-999	n/a	n/a	n/a	n/a	19	[9, 7, 5]	21	PAL1	0	R1042M
2523.293	0.012	1335901	STOP	n/a	-999	-999	n/a	n/a	n/a	n/a	19	[-999, -999, -999]	-999	PAL1	0	R1042M
2523.305	0.0	1335907	MATH_END	n/a	-999	-999	n/a	n/a	n/a	n/a	19	[0, 0, 0]	-999	PAL1	0	R1042M
2523.305	0.017	1335907	TEST_START	n/a	-999	-999	n/a	n/a	n/a	n/a	19	[0, 0, 0]	-999	PAL1	0	R1042M
2523.322	1.0	1335915	TEST_ORIENT	n/a	1	1	SHOE	PIG	PIG	SHOE	19	[0, 0, 0]	-999	PAL1	0	R1042M
2524.322	0.0	1336415	TEST_PROBE	n/a	1	1	SHOE	PIG	PIG	SHOE	19	[0, 0, 0]	-999	PAL1	0	R1042M
2524.322	0.979	1336415	REC_START	n/a	1	-999	n/a	PIG	n/a	n/a	19	[0, 0, 0]	-999	PAL1	0	R1042M
2525.301	4.038	1336904	REC_EVENT	979	1	1	SHOE	PIG	PIG	SHOE	19	[0, 0, 0]	-999	PAL1	0	R1042M
2529.339	0.017	1338923	REC_END	n/a	1	-999	n/a	n/a	n/a	n/a	19	[0, 0, 0]	-999	PAL1	0	R1042M
2529.356	1.034	1338932	TEST_ORIENT	n/a	6	2	LOCK	HAWK	LOCK	HAWK	19	[0, 0, 0]	-999	PAL1	0	R1042M
2530.39	0.0	1339449	TEST_PROBE	n/a	6	2	LOCK	HAWK	LOCK	HAWK	19	[0, 0, 0]	-999	PAL1	0	R1042M
2530.39	1.295	1339449	REC_START	n/a	6	-999	n/a	HAWK	n/a	n/a	19	[0, 0, 0]	-999	PAL1	0	R1042M
2531.685	3.722	1340096	REC_EVENT	1295	6	2	LOCK	HAWK	LOCK	HAWK	19	[0, 0, 0]	-999	PAL1	0	R1042M
2535.407	0.017	1341957	REC_END	n/a	6	-999	n/a	n/a	n/a	n/a	19	[0, 0, 0]	-999	PAL1	0	R1042M
2535.424	0.833	1341965	TEST_ORIENT	n/a	5	3	PARK	PURSE	PURSE	PARK	19	[0, 0, 0]	-999	PAL1	0	R1042M
2536.257	0.001	1342382	TEST_PROBE	n/a	5	3	PARK	PURSE	PURSE	PARK	19	[0, 0, 0]	-999	PAL1	0	R1042M
2536.258	1.094	1342382	REC_START	n/a	5	-999	n/a	PURSE	n/a	n/a	19	[0, 0, 0]	-999	PAL1	0	R1042M
2537.352	3.914	1342929	REC_EVENT	1094	5	3	PARK	PURSE	PURSE	PARK	19	[0, 0, 0]	-999	PAL1	0	R1042M
2541.266	0.009	1344886	REC_END	n/a	5	-999	n/a	n/a	n/a	n/a	19	[0, 0, 0]	-999	PAL1	0	R1042M
2541.275	0.951	1344891	TEST_ORIENT	n/a	4	4	STOVE	RAT	STOVE	RAT	19	[0, 0, 0]	-999	PAL1	0	R1042M
2542.226	0.0	1345366	TEST_PROBE	n/a	4	4	STOVE	RAT	STOVE	RAT	19	[0, 0, 0]	-999	PAL1	0	R1042M
2542.226	0.922	1345366	REC_START	n/a	4	-999	n/a	RAT	n/a	n/a	19	[0, 0, 0]	-999	PAL1	0	R1042M
2543.148	4.095	1345827	REC_EVENT	922	4	4	STOVE	RAT	STOVE	RAT	19	[0, 0, 0]	-999	PAL1	0	R1042M
2547.243	0.017	1347874	REC_END	n/a	4	-999	n/a	n/a	n/a	n/a	19	[0, 0, 0]	-999	PAL1	0	R1042M
2547.26	0.95	1347883	TEST_ORIENT	n/a	3	5	LIP	ROAD	ROAD	LIP	19	[0, 0, 0]	-999	PAL1	0	R1042M
2548.21	0.001	1348358	TEST_PROBE	n/a	3	5	LIP	ROAD	ROAD	LIP	19	[0, 0, 0]	-999	PAL1	0	R1042M
2548.211	0.796	1348358	REC_START	n/a	3	-999	n/a	ROAD	n/a	n/a	19	[0, 0, 0]	-999	PAL1	0	R1042M
2549.007	4.229	1348756	REC_EVENT	796	3	5	LIP	ROAD	ROAD	LIP	19	[0, 0, 0]	-999	PAL1	0	R1042M
2553.236	0.008	1350870	REC_END	n/a	3	-999	n/a	n/a	n/a	n/a	19	[0, 0, 0]	-999	PAL1	0	R1042M
2553.244	0.917	1350874	TEST_ORIENT	n/a	2	6	VINE	CHIN	VINE	CHIN	19	[0, 0, 0]	-999	PAL1	0	R1042M
2554.161	0.001	1351333	TEST_PROBE	n/a	2	6	VINE	CHIN	VINE	CHIN	19	[0, 0, 0]	-999	PAL1	0	R1042M
2554.162	0.996	1351333	REC_START	n/a	2	-999	n/a	CHIN	n/a	n/a	19	[0, 0, 0]	-999	PAL1	0	R1042M
2555.158	4.012	1351831	REC_EVENT	996	2	6	VINE	CHIN	VINE	CHIN	19	[0, 0, 0]	-999	PAL1	0	R1042M
2559.17	26.955	1353837	REC_END	n/a	2	-999	n/a	n/a	n/a	n/a	19	[0, 0, 0]	-999	PAL1	0	R1042M
2586.125	10.444	1367313	ENCODING_START	n/a	0	-999	n/a	n/a	n/a	n/a	20	[0, 0, 0]	-999	PAL1	0	R1042M
2596.569	0.784	1372535	STUDY_ORIENT	n/a	1	5	MAZE	HOUSE	MAZE	HOUSE	20	[0, 0, 0]	-999	PAL1	0	R1042M
2597.353	5.018	1372927	STUDY_PAIR	n/a	1	5	MAZE	HOUSE	MAZE	HOUSE	20	[0, 0, 0]	-999	PAL1	0	R1042M
2602.371	0.9	1375435	STUDY_ORIENT	n/a	2	2	HOOK	SNAKE	HOOK	SNAKE	20	[0, 0, 0]	-999	PAL1	0	R1042M
2603.271	5.034	1375885	STUDY_PAIR	n/a	2	2	HOOK	SNAKE	HOOK	SNAKE	20	[0, 0, 0]	-999	PAL1	0	R1042M
2608.305	0.901	1378402	STUDY_ORIENT	n/a	3	3	TRAIN	STEAK	TRAIN	STEAK	20	[0, 0, 0]	-999	PAL1	0	R1042M
2609.206	5.034	1378853	STUDY_PAIR	n/a	3	3	TRAIN	STEAK	TRAIN	STEAK	20	[0, 0, 0]	-999	PAL1	0	R1042M
2614.24	0.783	1381369	STUDY_ORIENT	n/a	4	6	FOG	FOOD	FOG	FOOD	20	[0, 0, 0]	-999	PAL1	0	R1042M
2615.023	5.018	1381761	STUDY_PAIR	n/a	4	6	FOG	FOOD	FOG	FOOD	20	[0, 0, 0]	-999	PAL1	0	R1042M
2620.041	0.884	1384270	STUDY_ORIENT	n/a	5	1	ROOT	COUCH	COUCH	ROOT	20	[0, 0, 0]	-999	PAL1	0	R1042M
2620.925	5.034	1384712	STUDY_PAIR	n/a	5	1	ROOT	COUCH	COUCH	ROOT	20	[0, 0, 0]	-999	PAL1	0	R1042M
2625.959	0.933	1387228	STUDY_ORIENT	n/a	6	4	BATH	CROWN	CROWN	BATH	20	[0, 0, 0]	-999	PAL1	0	R1042M
2626.892	4.001	1387695	STUDY_PAIR	n/a	6	4	BATH	CROWN	CROWN	BATH	20	[0, 0, 0]	-999	PAL1	0	R1042M
2630.893	1.0	1389695	START	n/a	-999	-999	n/a	n/a	n/a	n/a	20	[-999, -999, -999]	-999	PAL1	0	R1042M
2631.893	0.017	1390195	MATH_START	n/a	-999	-999	n/a	n/a	n/a	n/a	20	[0, 0, 0]	-999	PAL1	0	R1042M
2631.91	2.484	1390203	PROB	2455	-999	-999	n/a	n/a	n/a	n/a	20	[3, 3, 7]	13	PAL1	0	R1042M
2634.394	3.634	1391445	PROB	3603	-999	-999	n/a	n/a	n/a	n/a	20	[7, 4, 5]	16	PAL1	0	R1042M
2638.028	3.051	1393262	PROB	3017	-999	-999	n/a	n/a	n/a	n/a	20	[9, 9, 2]	20	PAL1	0	R1042M
2641.079	3.0	1394787	PROB	2974	-999	-999	n/a	n/a	n/a	n/a	20	[3, 9, 2]	14	PAL1	0	R1042M
2644.079	2.65	1396287	PROB	2629	-999	-999	n/a	n/a	n/a	n/a	20	[6, 9, 2]	17	PAL1	0	R1042M
2646.729	2.635	1397612	PROB	2612	-999	-999	n/a	n/a	n/a	n/a	20	[2, 7, 3]	12	PAL1	0	R1042M
2649.364	3.057	1398930	PROB	3057	-999	-999	n/a	n/a	n/a	n/a	20	[3, 3, 4]	10	PAL1	0	R1042M
2652.421	0.01	1400458	STOP	n/a	-999	-999	n/a	n/a	n/a	n/a	20	[-999, -999, -999]	-999	PAL1	0	R1042M
2652.431	0.0	1400463	TEST_START	n/a	-999	-999	n/a	n/a	n/a	n/a	20	[0, 0, 0]	-999	PAL1	0	R1042M
2652.431	0.016	1400463	MATH_END	n/a	-999	-999	n/a	n/a	n/a	n/a	20	[0, 0, 0]	-999	PAL1	0	R1042M
2652.447	0.851	1400471	TEST_ORIENT	n/a	5	1	ROOT	COUCH	COUCH	ROOT	20	[0, 0, 0]	-999	PAL1	0	R1042M
2653.298	0.0	1400896	TEST_PROBE	n/a	5	1	ROOT	COUCH	COUCH	ROOT	20	[0, 0, 0]	-999	PAL1	0	R1042M
