onset	duration	sample	trial_type	response_time	stim_file	serialpos	probepos	probe_word	resp_word	study_1	study_2	list	test	answer	experiment	session	subject
0.0	0.0	7213	INSTRUCT_VIDEO_ON	n/a	n/a	-999	-999	n/a	n/a	n/a	n/a	-999	[0, 0, 0]	-999	PAL1	0	R1229M
0.0	5.373	7213	INSTRUCT_VIDEO_OFF	n/a	n/a	-999	-999	n/a	n/a	n/a	n/a	-999	[0, 0, 0]	-999	PAL1	0	R1229M
5.373	0.0	12586	SESS_START	n/a	n/a	-999	-999	n/a	n/a	n/a	n/a	-999	[0, 0, 0]	-999	PAL1	0	R1229M
5.373	202.742	12586	MIC_TEST	n/a	n/a	-999	-999	n/a	n/a	n/a	n/a	-999	[0, 0, 0]	-999	PAL1	0	R1229M
208.115	14.923	215316	PRACTICE_TRIAL	n/a	n/a	-999	-999	n/a	n/a	n/a	n/a	-1	[0, 0, 0]	-999	PAL1	0	R1229M
223.038	0.005	230238	ENCODING_START	n/a	n/a	-999	-999	n/a	n/a	n/a	n/a	-1	[0, 0, 0]	-999	PAL1	0	R1229M
223.043	0.267	230243	PRACTICE_ORIENT	n/a	n/a	1	1	WAGON	RING	RING	WAGON	-1	[0, 0, 0]	-999	PAL1	0	R1229M
223.31	0.534	230510	PRACTICE_ORIENT_OFF	n/a	n/a	1	1	WAGON	RING	RING	WAGON	-1	[0, 0, 0]	-999	PAL1	0	R1229M
223.844	4.017	231044	PRACTICE_PAIR	n/a	n/a	1	1	WAGON	RING	RING	WAGON	-1	[0, 0, 0]	-999	PAL1	0	R1229M
227.861	1.017	235061	PRACTICE_PAIR_OFF	n/a	n/a	1	1	WAGON	RING	RING	WAGON	-1	[0, 0, 0]	-999	PAL1	0	R1229M
228.878	0.266	236078	PRACTICE_ORIENT	n/a	n/a	2	4	CHEST	ATTIC	ATTIC	CHEST	-1	[0, 0, 0]	-999	PAL1	0	R1229M
229.144	0.684	236344	PRACTICE_ORIENT_OFF	n/a	n/a	2	4	CHEST	ATTIC	ATTIC	CHEST	-1	[0, 0, 0]	-999	PAL1	0	R1229M
229.828	4.017	237028	PRACTICE_PAIR	n/a	n/a	2	4	CHEST	ATTIC	ATTIC	CHEST	-1	[0, 0, 0]	-999	PAL1	0	R1229M
233.845	1.017	241044	PRACTICE_PAIR_OFF	n/a	n/a	2	4	CHEST	ATTIC	ATTIC	CHEST	-1	[0, 0, 0]	-999	PAL1	0	R1229M
234.862	0.267	242061	PRACTICE_ORIENT	n/a	n/a	3	3	IRON	COTTON	IRON	CAMEL	-1	[0, 0, 0]	-999	PAL1	0	R1229M
235.129	0.633	242328	PRACTICE_ORIENT_OFF	n/a	n/a	3	3	IRON	COTTON	IRON	CAMEL	-1	[0, 0, 0]	-999	PAL1	0	R1229M
235.762	4.018	242961	PRACTICE_PAIR	n/a	n/a	3	3	IRON	COTTON	IRON	CAMEL	-1	[0, 0, 0]	-999	PAL1	0	R1229M
239.78	1.017	246979	PRACTICE_PAIR_OFF	n/a	n/a	3	3	IRON	COTTON	IRON	CAMEL	-1	[0, 0, 0]	-999	PAL1	0	R1229M
240.797	0.267	247996	PRACTICE_ORIENT	n/a	n/a	4	6	FLOOD	WATCH	FLOOD	WATCH	-1	[0, 0, 0]	-999	PAL1	0	R1229M
241.064	0.699	248263	PRACTICE_ORIENT_OFF	n/a	n/a	4	6	FLOOD	WATCH	FLOOD	WATCH	-1	[0, 0, 0]	-999	PAL1	0	R1229M
241.763	4.018	248962	PRACTICE_PAIR	n/a	n/a	4	6	FLOOD	WATCH	FLOOD	WATCH	-1	[0, 0, 0]	-999	PAL1	0	R1229M
245.781	1.017	252980	PRACTICE_PAIR_OFF	n/a	n/a	4	6	FLOOD	WATCH	FLOOD	WATCH	-1	[0, 0, 0]	-999	PAL1	0	R1229M
246.798	0.267	253997	PRACTICE_ORIENT	n/a	n/a	5	5	BEAM	n/a	COTTON	BEAM	-1	[0, 0, 0]	-999	PAL1	0	R1229M
247.065	0.516	254264	PRACTICE_ORIENT_OFF	n/a	n/a	5	5	BEAM	n/a	COTTON	BEAM	-1	[0, 0, 0]	-999	PAL1	0	R1229M
247.581	4.018	254780	PRACTICE_PAIR	n/a	n/a	5	5	BEAM	n/a	COTTON	BEAM	-1	[0, 0, 0]	-999	PAL1	0	R1229M
251.599	1.017	258797	PRACTICE_PAIR_OFF	n/a	n/a	5	5	BEAM	n/a	COTTON	BEAM	-1	[0, 0, 0]	-999	PAL1	0	R1229M
252.616	0.267	259814	PRACTICE_ORIENT	n/a	n/a	6	2	TONGUE	n/a	TONGUE	RHINO	-1	[0, 0, 0]	-999	PAL1	0	R1229M
252.883	0.534	260081	PRACTICE_ORIENT_OFF	n/a	n/a	6	2	TONGUE	n/a	TONGUE	RHINO	-1	[0, 0, 0]	-999	PAL1	0	R1229M
253.417	4.017	260615	PRACTICE_PAIR	n/a	n/a	6	2	TONGUE	n/a	TONGUE	RHINO	-1	[0, 0, 0]	-999	PAL1	0	R1229M
257.434	1.001	264632	PRACTICE_PAIR_OFF	n/a	n/a	6	2	TONGUE	n/a	TONGUE	RHINO	-1	[0, 0, 0]	-999	PAL1	0	R1229M
258.435	0.0	265633	MATH_START	n/a	n/a	-999	-999	n/a	n/a	n/a	n/a	-1	[0, 0, 0]	-999	PAL1	0	R1229M
258.435	0.0	265633	ENCODING_END	n/a	n/a	-999	-999	n/a	n/a	n/a	n/a	-1	[0, 0, 0]	-999	PAL1	0	R1229M
258.435	0.015	265633	START	n/a	n/a	-999	-999	n/a	n/a	n/a	n/a	-1	[-999, -999, -999]	-999	PAL1	0	R1229M
258.45	7.018	265648	PROB	6990	n/a	-999	-999	n/a	n/a	n/a	n/a	-1	[5, 2, 7]	14	PAL1	0	R1229M
265.468	18.235	272665	PROB	18235	n/a	-999	-999	n/a	n/a	n/a	n/a	-1	[4, 9, 7]	20	PAL1	0	R1229M
283.703	0.019	290899	STOP	n/a	n/a	-999	-999	n/a	n/a	n/a	n/a	-1	[-999, -999, -999]	-999	PAL1	0	R1229M
283.722	0.0	290918	MATH_END	n/a	n/a	-999	-999	n/a	n/a	n/a	n/a	-1	[0, 0, 0]	-999	PAL1	0	R1229M
283.722	0.016	290918	RECALL_START	n/a	n/a	-999	-999	n/a	n/a	n/a	n/a	-1	[0, 0, 0]	-999	PAL1	0	R1229M
283.738	0.267	290934	PRACTICE_RETRIEVAL_ORIENT	n/a	n/a	1	1	WAGON	RING	RING	WAGON	-1	[0, 0, 0]	-999	PAL1	0	R1229M
284.005	0.584	291201	PRACTICE_RETRIEVAL_ORIENT_OFF	n/a	n/a	1	1	WAGON	RING	RING	WAGON	-1	[0, 0, 0]	-999	PAL1	0	R1229M
284.589	0.0	291785	PRACTICE_PROBE	n/a	n/a	1	1	WAGON	RING	RING	WAGON	-1	[0, 0, 0]	-999	PAL1	0	R1229M
284.589	1.849	291785	REC_START	n/a	n/a	1	-999	n/a	RING	n/a	n/a	-1	[0, 0, 0]	-999	PAL1	0	R1229M
286.438	2.168	293634	REC_EVENT	1849	n/a	1	1	WAGON	RING	RING	WAGON	-1	[0, 0, 0]	-999	PAL1	0	R1229M
288.606	1.0	295802	PROBE_OFF	n/a	n/a	1	-999	n/a	n/a	n/a	n/a	-1	[0, 0, 0]	-999	PAL1	0	R1229M
289.606	0.017	296802	REC_END	n/a	n/a	1	-999	n/a	n/a	n/a	n/a	-1	[0, 0, 0]	-999	PAL1	0	R1229M
289.623	0.267	296819	PRACTICE_RETRIEVAL_ORIENT	n/a	n/a	6	2	TONGUE	n/a	TONGUE	RHINO	-1	[0, 0, 0]	-999	PAL1	0	R1229M
289.89	0.616	297086	PRACTICE_RETRIEVAL_ORIENT_OFF	n/a	n/a	6	2	TONGUE	n/a	TONGUE	RHINO	-1	[0, 0, 0]	-999	PAL1	0	R1229M
290.506	0.001	297702	PRACTICE_PROBE	n/a	n/a	6	2	TONGUE	n/a	TONGUE	RHINO	-1	[0, 0, 0]	-999	PAL1	0	R1229M
290.507	1.695	297703	REC_START	n/a	n/a	6	-999	n/a	n/a	n/a	n/a	-1	[0, 0, 0]	-999	PAL1	0	R1229M
292.202	2.322	299398	REC_EVENT	1695	n/a	6	2	TONGUE	<>	TONGUE	RHINO	-1	[0, 0, 0]	-999	PAL1	0	R1229M
294.524	1.0	301720	PROBE_OFF	n/a	n/a	6	-999	n/a	n/a	n/a	n/a	-1	[0, 0, 0]	-999	PAL1	0	R1229M
295.524	0.017	302720	REC_END	n/a	n/a	6	-999	n/a	n/a	n/a	n/a	-1	[0, 0, 0]	-999	PAL1	0	R1229M
295.541	0.266	302737	PRACTICE_RETRIEVAL_ORIENT	n/a	n/a	3	3	IRON	COTTON	IRON	CAMEL	-1	[0, 0, 0]	-999	PAL1	0	R1229M
295.807	0.751	303003	PRACTICE_RETRIEVAL_ORIENT_OFF	n/a	n/a	3	3	IRON	COTTON	IRON	CAMEL	-1	[0, 0, 0]	-999	PAL1	0	R1229M
296.558	0.0	303754	PRACTICE_PROBE	n/a	n/a	3	3	IRON	COTTON	IRON	CAMEL	-1	[0, 0, 0]	-999	PAL1	0	R1229M
296.558	1.29	303754	REC_START	n/a	n/a	3	-999	n/a	COTTON	n/a	n/a	-1	[0, 0, 0]	-999	PAL1	0	R1229M
297.848	2.727	305044	REC_EVENT	1290	n/a	3	3	IRON	COTTON	IRON	CAMEL	-1	[0, 0, 0]	-999	PAL1	0	R1229M
300.575	1.0	307770	PROBE_OFF	n/a	n/a	3	-999	n/a	n/a	n/a	n/a	-1	[0, 0, 0]	-999	PAL1	0	R1229M
301.575	0.017	308770	REC_END	n/a	n/a	3	-999	n/a	n/a	n/a	n/a	-1	[0, 0, 0]	-999	PAL1	0	R1229M
301.592	0.267	308787	PRACTICE_RETRIEVAL_ORIENT	n/a	n/a	2	4	CHEST	ATTIC	ATTIC	CHEST	-1	[0, 0, 0]	-999	PAL1	0	R1229M
301.859	0.65	309054	PRACTICE_RETRIEVAL_ORIENT_OFF	n/a	n/a	2	4	CHEST	ATTIC	ATTIC	CHEST	-1	[0, 0, 0]	-999	PAL1	0	R1229M
302.509	0.0	309704	PRACTICE_PROBE	n/a	n/a	2	4	CHEST	ATTIC	ATTIC	CHEST	-1	[0, 0, 0]	-999	PAL1	0	R1229M
302.509	1.404	309704	REC_START	n/a	n/a	2	-999	n/a	ATTIC	n/a	n/a	-1	[0, 0, 0]	-999	PAL1	0	R1229M
303.913	2.613	311108	REC_EVENT	1404	n/a	2	4	CHEST	ATTIC	ATTIC	CHEST	-1	[0, 0, 0]	-999	PAL1	0	R1229M
306.526	1.0	313721	PROBE_OFF	n/a	n/a	2	-999	n/a	n/a	n/a	n/a	-1	[0, 0, 0]	-999	PAL1	0	R1229M
307.526	0.017	314721	REC_END	n/a	n/a	2	-999	n/a	n/a	n/a	n/a	-1	[0, 0, 0]	-999	PAL1	0	R1229M
307.543	0.267	314738	PRACTICE_RETRIEVAL_ORIENT	n/a	n/a	5	5	BEAM	n/a	COTTON	BEAM	-1	[0, 0, 0]	-999	PAL1	0	R1229M
307.81	0.584	315005	PRACTICE_RETRIEVAL_ORIENT_OFF	n/a	n/a	5	5	BEAM	n/a	COTTON	BEAM	-1	[0, 0, 0]	-999	PAL1	0	R1229M
308.394	0.001	315589	PRACTICE_PROBE	n/a	n/a	5	5	BEAM	n/a	COTTON	BEAM	-1	[0, 0, 0]	-999	PAL1	0	R1229M
308.395	4.0	315590	REC_START	n/a	n/a	5	-999	n/a	n/a	n/a	n/a	-1	[0, 0, 0]	-999	PAL1	0	R1229M
312.395	0.365	319590	PROBE_OFF	n/a	n/a	5	-999	n/a	n/a	n/a	n/a	-1	[0, 0, 0]	-999	PAL1	0	R1229M
312.76	0.635	319955	REC_EVENT	4365	n/a	5	5	BEAM	<>	COTTON	BEAM	-1	[0, 0, 0]	-999	PAL1	0	R1229M
313.395	0.017	320590	REC_END	n/a	n/a	5	-999	n/a	n/a	n/a	n/a	-1	[0, 0, 0]	-999	PAL1	0	R1229M
313.412	0.266	320607	PRACTICE_RETRIEVAL_ORIENT	n/a	n/a	4	6	FLOOD	WATCH	FLOOD	WATCH	-1	[0, 0, 0]	-999	PAL1	0	R1229M
313.678	0.583	320873	PRACTICE_RETRIEVAL_ORIENT_OFF	n/a	n/a	6	6	FLOOD	WATCH	FLOOD	WATCH	-1	[0, 0, 0]	-999	PAL1	0	R1229M
314.261	0.001	321456	PRACTICE_PROBE	n/a	n/a	4	6	FLOOD	WATCH	FLOOD	WATCH	-1	[0, 0, 0]	-999	PAL1	0	R1229M
314.262	1.013	321457	REC_START	n/a	n/a	4	-999	n/a	WATCH	n/a	n/a	-1	[0, 0, 0]	-999	PAL1	0	R1229M
315.275	3.003	322470	REC_EVENT	1013	n/a	4	6	FLOOD	WATCH	FLOOD	WATCH	-1	[0, 0, 0]	-999	PAL1	0	R1229M
318.278	1.0	325472	PROBE_OFF	n/a	n/a	4	-999	n/a	n/a	n/a	n/a	-1	[0, 0, 0]	-999	PAL1	0	R1229M
319.278	0.005	326472	REC_END	n/a	n/a	4	-999	n/a	n/a	n/a	n/a	-1	[0, 0, 0]	-999	PAL1	0	R1229M
319.283	13.815	326477	RECALL_END	n/a	n/a	-999	-999	n/a	n/a	n/a	n/a	-1	[0, 0, 0]	-999	PAL1	0	R1229M
333.098	10.928	340292	TRIAL	n/a	n/a	-999	-999	n/a	n/a	n/a	n/a	1	[0, 0, 0]	-999	PAL1	0	R1229M
344.026	0.007	351219	ENCODING_START	n/a	n/a	-999	-999	n/a	n/a	n/a	n/a	1	[0, 0, 0]	-999	PAL1	0	R1229M
344.033	0.267	351226	STUDY_ORIENT	n/a	n/a	1	3	CART	n/a	STORM	CART	1	[0, 0, 0]	-999	PAL1	0	R1229M
344.3	0.55	351493	STUDY_ORIENT_OFF	n/a	n/a	1	3	CART	n/a	STORM	CART	1	[0, 0, 0]	-999	PAL1	0	R1229M
344.85	4.018	352043	STUDY_PAIR	n/a	wordpools/wordpool_EN.txt	1	3	CART	n/a	STORM	CART	1	[0, 0, 0]	-999	PAL1	0	R1229M
348.868	1.017	356061	PAIR_OFF	n/a	n/a	1	3	CART	n/a	STORM	CART	1	[0, 0, 0]	-999	PAL1	0	R1229M
349.885	0.266	357078	STUDY_ORIENT	n/a	n/a	2	4	TOAST	TEA	TOAST	TEA	1	[0, 0, 0]	-999	PAL1	0	R1229M
350.151	0.534	357344	STUDY_ORIENT_OFF	n/a	n/a	2	4	TOAST	TEA	TOAST	TEA	1	[0, 0, 0]	-999	PAL1	0	R1229M
350.685	4.017	357878	STUDY_PAIR	n/a	wordpools/wordpool_EN.txt	2	4	TOAST	TEA	TOAST	TEA	1	[0, 0, 0]	-999	PAL1	0	R1229M
354.702	1.017	361894	PAIR_OFF	n/a	n/a	2	4	TOAST	TEA	TOAST	TEA	1	[0, 0, 0]	-999	PAL1	0	R1229M
355.719	0.267	362911	STUDY_ORIENT	n/a	n/a	3	1	LIP	n/a	LIP	PHONE	1	[0, 0, 0]	-999	PAL1	0	R1229M
355.986	0.683	363178	STUDY_ORIENT_OFF	n/a	n/a	3	1	LIP	n/a	LIP	PHONE	1	[0, 0, 0]	-999	PAL1	0	R1229M
356.669	4.001	363861	STUDY_PAIR	n/a	wordpools/wordpool_EN.txt	3	1	LIP	n/a	LIP	PHONE	1	[0, 0, 0]	-999	PAL1	0	R1229M
360.67	1.017	367862	PAIR_OFF	n/a	n/a	3	1	LIP	n/a	LIP	PHONE	1	[0, 0, 0]	-999	PAL1	0	R1229M
361.687	0.267	368879	STUDY_ORIENT	n/a	n/a	4	2	COIN	FRUIT	FRUIT	COIN	1	[0, 0, 0]	-999	PAL1	0	R1229M
361.954	0.716	369146	STUDY_ORIENT_OFF	n/a	n/a	4	2	COIN	FRUIT	FRUIT	COIN	1	[0, 0, 0]	-999	PAL1	0	R1229M
362.67	4.001	369862	STUDY_PAIR	n/a	wordpools/wordpool_EN.txt	4	2	COIN	FRUIT	FRUIT	COIN	1	[0, 0, 0]	-999	PAL1	0	R1229M
366.671	1.017	373863	PAIR_OFF	n/a	n/a	4	2	COIN	FRUIT	FRUIT	COIN	1	[0, 0, 0]	-999	PAL1	0	R1229M
367.688	0.267	374880	STUDY_ORIENT	n/a	n/a	5	5	SWAMP	SPRING	SPRING	SWAMP	1	[0, 0, 0]	-999	PAL1	0	R1229M
367.955	0.65	375147	STUDY_ORIENT_OFF	n/a	n/a	5	5	SWAMP	SPRING	SPRING	SWAMP	1	[0, 0, 0]	-999	PAL1	0	R1229M
368.605	4.017	375796	STUDY_PAIR	n/a	wordpools/wordpool_EN.txt	5	5	SWAMP	SPRING	SPRING	SWAMP	1	[0, 0, 0]	-999	PAL1	0	R1229M
372.622	1.017	379813	PAIR_OFF	n/a	n/a	5	5	SWAMP	SPRING	SPRING	SWAMP	1	[0, 0, 0]	-999	PAL1	0	R1229M
373.639	0.267	380830	STUDY_ORIENT	n/a	n/a	6	6	FAN	LIP	FAN	LEAF	1	[0, 0, 0]	-999	PAL1	0	R1229M
373.906	0.7	381097	STUDY_ORIENT_OFF	n/a	n/a	6	6	FAN	LIP	FAN	LEAF	1	[0, 0, 0]	-999	PAL1	0	R1229M
374.606	4.017	381797	STUDY_PAIR	n/a	wordpools/wordpool_EN.txt	6	6	FAN	LIP	FAN	LEAF	1	[0, 0, 0]	-999	PAL1	0	R1229M
378.623	1.0	385814	PAIR_OFF	n/a	n/a	6	6	FAN	LIP	FAN	LEAF	1	[0, 0, 0]	-999	PAL1	0	R1229M
379.623	0.0	386814	ENCODING_END	n/a	n/a	-999	-999	n/a	n/a	n/a	n/a	1	[0, 0, 0]	-999	PAL1	0	R1229M
379.623	0.001	386814	MATH_START	n/a	n/a	-999	-999	n/a	n/a	n/a	n/a	1	[0, 0, 0]	-999	PAL1	0	R1229M
379.624	0.016	386815	START	n/a	n/a	-999	-999	n/a	n/a	n/a	n/a	1	[-999, -999, -999]	-999	PAL1	0	R1229M
379.64	7.402	386831	PROB	7367	n/a	-999	-999	n/a	n/a	n/a	n/a	1	[1, 4, 3]	8	PAL1	0	R1229M
387.042	8.518	394232	PROB	8493	n/a	-999	-999	n/a	n/a	n/a	n/a	1	[3, 6, 9]	18	PAL1	0	R1229M
395.56	9.703	402750	PROB	9703	n/a	-999	-999	n/a	n/a	n/a	n/a	1	[5, 7, 3]	15	PAL1	0	R1229M
405.263	0.016	412452	STOP	n/a	n/a	-999	-999	n/a	n/a	n/a	n/a	1	[-999, -999, -999]	-999	PAL1	0	R1229M
405.279	0.0	412468	MATH_END	n/a	n/a	-999	-999	n/a	n/a	n/a	n/a	1	[0, 0, 0]	-999	PAL1	0	R1229M
405.279	0.016	412468	RECALL_START	n/a	n/a	-999	-999	n/a	n/a	n/a	n/a	1	[0, 0, 0]	-999	PAL1	0	R1229M
405.295	0.267	412484	TEST_ORIENT	n/a	n/a	3	1	LIP	n/a	LIP	PHONE	1	[0, 0, 0]	-999	PAL1	0	R1229M
405.562	0.65	412751	RETRIEVAL_ORIENT_OFF	n/a	n/a	-999	-999	n/a	n/a	n/a	n/a	1	[0, 0, 0]	-999	PAL1	0	R1229M
406.212	0.001	413401	TEST_PROBE	n/a	wordpools/wordpool_EN.txt	3	1	LIP	n/a	LIP	PHONE	1	[0, 0, 0]	-999	PAL1	0	R1229M
406.213	4.017	413402	REC_START	n/a	n/a	3	-999	n/a	n/a	n/a	n/a	1	[0, 0, 0]	-999	PAL1	0	R1229M
410.23	0.766	417419	PROBE_OFF	n/a	n/a	3	-999	n/a	n/a	n/a	n/a	1	[0, 0, 0]	-999	PAL1	0	R1229M
410.996	0.234	418185	REC_EVENT	4783	n/a	3	1	LIP	<>	LIP	PHONE	1	[0, 0, 0]	-999	PAL1	0	R1229M
411.23	0.016	418419	REC_END	n/a	n/a	3	-999	n/a	n/a	n/a	n/a	1	[0, 0, 0]	-999	PAL1	0	R1229M
411.246	0.267	418435	TEST_ORIENT	n/a	n/a	4	2	COIN	FRUIT	FRUIT	COIN	1	[0, 0, 0]	-999	PAL1	0	R1229M
411.513	0.734	418702	RETRIEVAL_ORIENT_OFF	n/a	n/a	3	-999	n/a	n/a	n/a	n/a	1	[0, 0, 0]	-999	PAL1	0	R1229M
412.247	0.0	419436	TEST_PROBE	n/a	wordpools/wordpool_EN.txt	4	2	COIN	FRUIT	FRUIT	COIN	1	[0, 0, 0]	-999	PAL1	0	R1229M
412.247	1.244	419436	REC_START	n/a	n/a	4	-999	n/a	FRUIT	n/a	n/a	1	[0, 0, 0]	-999	PAL1	0	R1229M
413.491	2.773	420680	REC_EVENT	1244	n/a	4	2	COIN	FRUIT	FRUIT	COIN	1	[0, 0, 0]	-999	PAL1	0	R1229M
416.264	1.0	423453	PROBE_OFF	n/a	n/a	4	-999	n/a	n/a	n/a	n/a	1	[0, 0, 0]	-999	PAL1	0	R1229M
417.264	0.017	424453	REC_END	n/a	n/a	4	-999	n/a	n/a	n/a	n/a	1	[0, 0, 0]	-999	PAL1	0	R1229M
417.281	0.267	424470	TEST_ORIENT	n/a	n/a	1	3	CART	n/a	STORM	CART	1	[0, 0, 0]	-999	PAL1	0	R1229M
417.548	0.65	424737	RETRIEVAL_ORIENT_OFF	n/a	n/a	4	-999	n/a	n/a	n/a	n/a	1	[0, 0, 0]	-999	PAL1	0	R1229M
418.198	0.0	425387	TEST_PROBE	n/a	wordpools/wordpool_EN.txt	1	3	CART	n/a	STORM	CART	1	[0, 0, 0]	-999	PAL1	0	R1229M
418.198	2.205	425387	REC_START	n/a	n/a	1	-999	n/a	n/a	n/a	n/a	1	[0, 0, 0]	-999	PAL1	0	R1229M
420.403	1.812	427591	REC_EVENT	2205	n/a	1	3	CART	<>	STORM	CART	1	[0, 0, 0]	-999	PAL1	0	R1229M
422.215	1.001	429403	PROBE_OFF	n/a	n/a	1	-999	n/a	n/a	n/a	n/a	1	[0, 0, 0]	-999	PAL1	0	R1229M
423.216	0.016	430404	REC_END	n/a	n/a	1	-999	n/a	n/a	n/a	n/a	1	[0, 0, 0]	-999	PAL1	0	R1229M
423.232	0.267	430420	TEST_ORIENT	n/a	n/a	2	4	TOAST	TEA	TOAST	TEA	1	[0, 0, 0]	-999	PAL1	0	R1229M
423.499	0.55	430687	RETRIEVAL_ORIENT_OFF	n/a	n/a	1	-999	n/a	n/a	n/a	n/a	1	[0, 0, 0]	-999	PAL1	0	R1229M
424.049	0.0	431237	TEST_PROBE	n/a	wordpools/wordpool_EN.txt	2	4	TOAST	TEA	TOAST	TEA	1	[0, 0, 0]	-999	PAL1	0	R1229M
424.049	1.547	431237	REC_START	n/a	n/a	2	-999	n/a	TEA	n/a	n/a	1	[0, 0, 0]	-999	PAL1	0	R1229M
425.596	2.47	432784	REC_EVENT	1547	n/a	2	4	TOAST	TEA	TOAST	TEA	1	[0, 0, 0]	-999	PAL1	0	R1229M
428.066	1.001	435254	PROBE_OFF	n/a	n/a	2	-999	n/a	n/a	n/a	n/a	1	[0, 0, 0]	-999	PAL1	0	R1229M
429.067	0.016	436255	REC_END	n/a	n/a	2	-999	n/a	n/a	n/a	n/a	1	[0, 0, 0]	-999	PAL1	0	R1229M
429.083	0.267	436271	TEST_ORIENT	n/a	n/a	5	5	SWAMP	SPRING	SPRING	SWAMP	1	[0, 0, 0]	-999	PAL1	0	R1229M
429.35	0.533	436538	RETRIEVAL_ORIENT_OFF	n/a	n/a	2	-999	n/a	n/a	n/a	n/a	1	[0, 0, 0]	-999	PAL1	0	R1229M
429.883	0.001	437071	TEST_PROBE	n/a	wordpools/wordpool_EN.txt	5	5	SWAMP	SPRING	SPRING	SWAMP	1	[0, 0, 0]	-999	PAL1	0	R1229M
429.884	1.364	437072	REC_START	n/a	n/a	5	-999	n/a	SPRING	n/a	n/a	1	[0, 0, 0]	-999	PAL1	0	R1229M
431.248	2.636	438436	REC_EVENT	1364	n/a	5	5	SWAMP	SPRING	SPRING	SWAMP	1	[0, 0, 0]	-999	PAL1	0	R1229M
433.884	1.0	441072	PROBE_OFF	n/a	n/a	5	-999	n/a	n/a	n/a	n/a	1	[0, 0, 0]	-999	PAL1	0	R1229M
434.884	0.017	442072	REC_END	n/a	n/a	5	-999	n/a	n/a	n/a	n/a	1	[0, 0, 0]	-999	PAL1	0	R1229M
434.901	0.267	442089	TEST_ORIENT	n/a	n/a	6	6	FAN	LIP	FAN	LEAF	1	[0, 0, 0]	-999	PAL1	0	R1229M
435.168	0.733	442356	RETRIEVAL_ORIENT_OFF	n/a	n/a	5	-999	n/a	n/a	n/a	n/a	1	[0, 0, 0]	-999	PAL1	0	R1229M
435.901	0.001	443089	TEST_PROBE	n/a	wordpools/wordpool_EN.txt	6	6	FAN	LIP	FAN	LEAF	1	[0, 0, 0]	-999	PAL1	0	R1229M
435.902	1.709	443090	REC_START	n/a	n/a	6	-999	n/a	LIP	n/a	n/a	1	[0, 0, 0]	-999	PAL1	0	R1229M
437.611	2.291	444798	REC_EVENT	1709	n/a	6	6	FAN	LIP	FAN	LEAF	1	[0, 0, 0]	-999	PAL1	0	R1229M
439.902	1.0	447089	PROBE_OFF	n/a	n/a	6	-999	n/a	n/a	n/a	n/a	1	[0, 0, 0]	-999	PAL1	0	R1229M
440.902	0.01	448089	REC_END	n/a	n/a	6	-999	n/a	n/a	n/a	n/a	1	[0, 0, 0]	-999	PAL1	0	R1229M
440.912	7.242	448099	RECALL_END	n/a	n/a	-999	-999	n/a	n/a	n/a	n/a	1	[0, 0, 0]	-999	PAL1	0	R1229M
448.154	10.929	455341	TRIAL	n/a	n/a	-999	-999	n/a	n/a	n/a	n/a	2	[0, 0, 0]	-999	PAL1	0	R1229M
459.083	0.006	466269	ENCODING_START	n/a	n/a	-999	-999	n/a	n/a	n/a	n/a	2	[0, 0, 0]	-999	PAL1	0	R1229M
459.089	0.267	466275	STUDY_ORIENT	n/a	n/a	1	1	BOOK	BOY	BOOK	BOY	2	[0, 0, 0]	-999	PAL1	0	R1229M
459.356	0.733	466542	STUDY_ORIENT_OFF	n/a	n/a	1	1	BOOK	BOY	BOOK	BOY	2	[0, 0, 0]	-999	PAL1	0	R1229M
460.089	4.018	467275	STUDY_PAIR	n/a	wordpools/wordpool_EN.txt	1	1	BOOK	BOY	BOOK	BOY	2	[0, 0, 0]	-999	PAL1	0	R1229M
464.107	1.017	471293	PAIR_OFF	n/a	n/a	1	1	BOOK	BOY	BOOK	BOY	2	[0, 0, 0]	-999	PAL1	0	R1229M
465.124	0.267	472310	STUDY_ORIENT	n/a	n/a	2	6	CHALK	n/a	DRESS	CHALK	2	[0, 0, 0]	-999	PAL1	0	R1229M
465.391	0.583	472577	STUDY_ORIENT_OFF	n/a	n/a	2	6	CHALK	n/a	DRESS	CHALK	2	[0, 0, 0]	-999	PAL1	0	R1229M
465.974	4.017	473160	STUDY_PAIR	n/a	wordpools/wordpool_EN.txt	2	6	CHALK	n/a	DRESS	CHALK	2	[0, 0, 0]	-999	PAL1	0	R1229M
469.991	1.017	477177	PAIR_OFF	n/a	n/a	2	6	CHALK	n/a	DRESS	CHALK	2	[0, 0, 0]	-999	PAL1	0	R1229M
471.008	0.267	478193	STUDY_ORIENT	n/a	n/a	3	3	BREAD	n/a	BREAD	CAVE	2	[0, 0, 0]	-999	PAL1	0	R1229M
471.275	0.633	478460	STUDY_ORIENT_OFF	n/a	n/a	3	3	BREAD	n/a	BREAD	CAVE	2	[0, 0, 0]	-999	PAL1	0	R1229M
471.908	4.018	479093	STUDY_PAIR	n/a	wordpools/wordpool_EN.txt	3	3	BREAD	n/a	BREAD	CAVE	2	[0, 0, 0]	-999	PAL1	0	R1229M
475.926	1.017	483111	PAIR_OFF	n/a	n/a	3	3	BREAD	n/a	BREAD	CAVE	2	[0, 0, 0]	-999	PAL1	0	R1229M
476.943	0.266	484128	STUDY_ORIENT	n/a	n/a	4	4	FLEA	n/a	FLEA	FOOT	2	[0, 0, 0]	-999	PAL1	0	R1229M
477.209	0.734	484394	STUDY_ORIENT_OFF	n/a	n/a	4	4	FLEA	n/a	FLEA	FOOT	2	[0, 0, 0]	-999	PAL1	0	R1229M
477.943	4.017	485128	STUDY_PAIR	n/a	wordpools/wordpool_EN.txt	4	4	FLEA	n/a	FLEA	FOOT	2	[0, 0, 0]	-999	PAL1	0	R1229M
481.96	1.017	489145	PAIR_OFF	n/a	n/a	4	4	FLEA	n/a	FLEA	FOOT	2	[0, 0, 0]	-999	PAL1	0	R1229M
482.977	0.267	490162	STUDY_ORIENT	n/a	n/a	5	5	CRANE	n/a	BOOT	CRANE	2	[0, 0, 0]	-999	PAL1	0	R1229M
483.244	0.6	490429	STUDY_ORIENT_OFF	n/a	n/a	5	5	CRANE	n/a	BOOT	CRANE	2	[0, 0, 0]	-999	PAL1	0	R1229M
483.844	4.017	491029	STUDY_PAIR	n/a	wordpools/wordpool_EN.txt	5	5	CRANE	n/a	BOOT	CRANE	2	[0, 0, 0]	-999	PAL1	0	R1229M
487.861	1.017	495046	PAIR_OFF	n/a	n/a	5	5	CRANE	n/a	BOOT	CRANE	2	[0, 0, 0]	-999	PAL1	0	R1229M
488.878	0.267	496062	STUDY_ORIENT	n/a	n/a	6	2	VASE	n/a	VASE	CLOWN	2	[0, 0, 0]	-999	PAL1	0	R1229M
489.145	0.75	496329	STUDY_ORIENT_OFF	n/a	n/a	6	2	VASE	n/a	VASE	CLOWN	2	[0, 0, 0]	-999	PAL1	0	R1229M
489.895	4.018	497079	STUDY_PAIR	n/a	wordpools/wordpool_EN.txt	6	2	VASE	n/a	VASE	CLOWN	2	[0, 0, 0]	-999	PAL1	0	R1229M
493.913	1.0	501097	PAIR_OFF	n/a	n/a	6	2	VASE	n/a	VASE	CLOWN	2	[0, 0, 0]	-999	PAL1	0	R1229M
494.913	0.0	502097	ENCODING_END	n/a	n/a	-999	-999	n/a	n/a	n/a	n/a	2	[0, 0, 0]	-999	PAL1	0	R1229M
494.913	0.0	502097	MATH_START	n/a	n/a	-999	-999	n/a	n/a	n/a	n/a	2	[0, 0, 0]	-999	PAL1	0	R1229M
494.913	0.016	502097	START	n/a	n/a	-999	-999	n/a	n/a	n/a	n/a	2	[-999, -999, -999]	-999	PAL1	0	R1229M
494.929	6.135	502113	PROB	6101	n/a	-999	-999	n/a	n/a	n/a	n/a	2	[4, 8, 8]	20	PAL1	0	R1229M
501.064	8.702	508248	PROB	8679	n/a	-999	-999	n/a	n/a	n/a	n/a	2	[2, 2, 7]	11	PAL1	0	R1229M
509.766	7.761	516949	PROB	7761	n/a	-999	-999	n/a	n/a	n/a	n/a	2	[8, 6, 3]	17	PAL1	0	R1229M
517.527	0.007	524710	STOP	n/a	n/a	-999	-999	n/a	n/a	n/a	n/a	2	[-999, -999, -999]	-999	PAL1	0	R1229M
517.534	0.0	524717	MATH_END	n/a	n/a	-999	-999	n/a	n/a	n/a	n/a	2	[0, 0, 0]	-999	PAL1	0	R1229M
517.534	0.016	524717	RECALL_START	n/a	n/a	-999	-999	n/a	n/a	n/a	n/a	2	[0, 0, 0]	-999	PAL1	0	R1229M
517.55	0.267	524733	TEST_ORIENT	n/a	n/a	1	1	BOOK	BOY	BOOK	BOY	2	[0, 0, 0]	-999	PAL1	0	R1229M
517.817	0.618	525000	RETRIEVAL_ORIENT_OFF	n/a	n/a	-999	-999	n/a	n/a	n/a	n/a	2	[0, 0, 0]	-999	PAL1	0	R1229M
518.435	0.0	525618	REC_START	n/a	n/a	1	-999	n/a	BOY	n/a	n/a	2	[0, 0, 0]	-999	PAL1	0	R1229M
518.435	1.17	525618	TEST_PROBE	n/a	wordpools/wordpool_EN.txt	1	1	BOOK	BOY	BOOK	BOY	2	[0, 0, 0]	-999	PAL1	0	R1229M
519.605	2.846	526788	REC_EVENT	1170	n/a	1	1	BOOK	BOY	BOOK	BOY	2	[0, 0, 0]	-999	PAL1	0	R1229M
522.451	1.0	529633	PROBE_OFF	n/a	n/a	1	-999	n/a	n/a	n/a	n/a	2	[0, 0, 0]	-999	PAL1	0	R1229M
523.451	0.017	530633	REC_END	n/a	n/a	1	-999	n/a	n/a	n/a	n/a	2	[0, 0, 0]	-999	PAL1	0	R1229M
523.468	0.267	530650	TEST_ORIENT	n/a	n/a	6	2	VASE	n/a	VASE	CLOWN	2	[0, 0, 0]	-999	PAL1	0	R1229M
523.735	0.651	530917	RETRIEVAL_ORIENT_OFF	n/a	n/a	1	-999	n/a	n/a	n/a	n/a	2	[0, 0, 0]	-999	PAL1	0	R1229M
524.386	0.001	531568	TEST_PROBE	n/a	wordpools/wordpool_EN.txt	6	2	VASE	n/a	VASE	CLOWN	2	[0, 0, 0]	-999	PAL1	0	R1229M
524.387	1.509	531569	REC_START	n/a	n/a	6	-999	n/a	n/a	n/a	n/a	2	[0, 0, 0]	-999	PAL1	0	R1229M
525.896	2.508	533078	REC_EVENT	1509	n/a	6	2	VASE	<>	VASE	CLOWN	2	[0, 0, 0]	-999	PAL1	0	R1229M
528.404	1.011	535586	PROBE_OFF	n/a	n/a	6	-999	n/a	n/a	n/a	n/a	2	[0, 0, 0]	-999	PAL1	0	R1229M
529.415	0.022	536597	REC_END	n/a	n/a	6	-999	n/a	n/a	n/a	n/a	2	[0, 0, 0]	-999	PAL1	0	R1229M
529.437	0.266	536619	TEST_ORIENT	n/a	n/a	3	3	BREAD	n/a	BREAD	CAVE	2	[0, 0, 0]	-999	PAL1	0	R1229M
529.703	0.533	536885	RETRIEVAL_ORIENT_OFF	n/a	n/a	6	-999	n/a	n/a	n/a	n/a	2	[0, 0, 0]	-999	PAL1	0	R1229M
530.236	0.001	537418	TEST_PROBE	n/a	wordpools/wordpool_EN.txt	3	3	BREAD	n/a	BREAD	CAVE	2	[0, 0, 0]	-999	PAL1	0	R1229M
530.237	2.414	537419	REC_START	n/a	n/a	3	-999	n/a	n/a	n/a	n/a	2	[0, 0, 0]	-999	PAL1	0	R1229M
532.651	1.603	539833	REC_EVENT	2414	n/a	3	3	BREAD	<>	BREAD	CAVE	2	[0, 0, 0]	-999	PAL1	0	R1229M
534.254	1.0	541436	PROBE_OFF	n/a	n/a	3	-999	n/a	n/a	n/a	n/a	2	[0, 0, 0]	-999	PAL1	0	R1229M
535.254	0.016	542436	REC_END	n/a	n/a	3	-999	n/a	n/a	n/a	n/a	2	[0, 0, 0]	-999	PAL1	0	R1229M
535.27	0.267	542452	TEST_ORIENT	n/a	n/a	4	4	FLEA	n/a	FLEA	FOOT	2	[0, 0, 0]	-999	PAL1	0	R1229M
535.537	0.667	542719	RETRIEVAL_ORIENT_OFF	n/a	n/a	3	-999	n/a	n/a	n/a	n/a	2	[0, 0, 0]	-999	PAL1	0	R1229M
536.204	0.001	543386	TEST_PROBE	n/a	wordpools/wordpool_EN.txt	4	4	FLEA	n/a	FLEA	FOOT	2	[0, 0, 0]	-999	PAL1	0	R1229M
536.205	1.95	543387	REC_START	n/a	n/a	4	-999	n/a	n/a	n/a	n/a	2	[0, 0, 0]	-999	PAL1	0	R1229M
538.155	2.066	545337	REC_EVENT	1950	n/a	4	4	FLEA	<>	FLEA	FOOT	2	[0, 0, 0]	-999	PAL1	0	R1229M
540.221	1.0	547402	PROBE_OFF	n/a	n/a	4	-999	n/a	n/a	n/a	n/a	2	[0, 0, 0]	-999	PAL1	0	R1229M
541.221	0.017	548402	REC_END	n/a	n/a	4	-999	n/a	n/a	n/a	n/a	2	[0, 0, 0]	-999	PAL1	0	R1229M
541.238	0.267	548419	TEST_ORIENT	n/a	n/a	5	5	CRANE	n/a	BOOT	CRANE	2	[0, 0, 0]	-999	PAL1	0	R1229M
541.505	0.6	548686	RETRIEVAL_ORIENT_OFF	n/a	n/a	4	-999	n/a	n/a	n/a	n/a	2	[0, 0, 0]	-999	PAL1	0	R1229M
542.105	0.001	549286	TEST_PROBE	n/a	wordpools/wordpool_EN.txt	5	5	CRANE	n/a	BOOT	CRANE	2	[0, 0, 0]	-999	PAL1	0	R1229M
542.106	1.277	549287	REC_START	n/a	n/a	5	-999	n/a	n/a	n/a	n/a	2	[0, 0, 0]	-999	PAL1	0	R1229M
543.383	2.74	550564	REC_EVENT	1277	n/a	5	5	CRANE	<>	BOOT	CRANE	2	[0, 0, 0]	-999	PAL1	0	R1229M
546.123	1.0	553304	PROBE_OFF	n/a	n/a	5	-999	n/a	n/a	n/a	n/a	2	[0, 0, 0]	-999	PAL1	0	R1229M
547.123	0.016	554304	REC_END	n/a	n/a	5	-999	n/a	n/a	n/a	n/a	2	[0, 0, 0]	-999	PAL1	0	R1229M
547.139	0.268	554320	TEST_ORIENT	n/a	n/a	2	6	CHALK	n/a	DRESS	CHALK	2	[0, 0, 0]	-999	PAL1	0	R1229M
547.407	0.566	554588	RETRIEVAL_ORIENT_OFF	n/a	n/a	5	-999	n/a	n/a	n/a	n/a	2	[0, 0, 0]	-999	PAL1	0	R1229M
547.973	0.001	555154	TEST_PROBE	n/a	wordpools/wordpool_EN.txt	2	6	CHALK	n/a	DRESS	CHALK	2	[0, 0, 0]	-999	PAL1	0	R1229M
547.974	2.229	555155	REC_START	n/a	n/a	2	-999	n/a	n/a	n/a	n/a	2	[0, 0, 0]	-999	PAL1	0	R1229M
550.203	1.787	557384	REC_EVENT	2229	n/a	2	6	CHALK	<>	DRESS	CHALK	2	[0, 0, 0]	-999	PAL1	0	R1229M
551.99	1.0	559171	PROBE_OFF	n/a	n/a	2	-999	n/a	n/a	n/a	n/a	2	[0, 0, 0]	-999	PAL1	0	R1229M
552.99	0.012	560171	REC_END	n/a	n/a	2	-999	n/a	n/a	n/a	n/a	2	[0, 0, 0]	-999	PAL1	0	R1229M
553.002	13.108	560183	RECALL_END	n/a	n/a	-999	-999	n/a	n/a	n/a	n/a	2	[0, 0, 0]	-999	PAL1	0	R1229M
566.11	10.929	573290	TRIAL	n/a	n/a	-999	-999	n/a	n/a	n/a	n/a	3	[0, 0, 0]	-999	PAL1	0	R1229M
577.039	0.006	584218	ENCODING_START	n/a	n/a	-999	-999	n/a	n/a	n/a	n/a	3	[0, 0, 0]	-999	PAL1	0	R1229M
577.045	0.267	584224	STUDY_ORIENT	n/a	n/a	1	1	YARD	n/a	YARD	BADGE	3	[0, 0, 0]	-999	PAL1	0	R1229M
577.312	0.533	584491	STUDY_ORIENT_OFF	n/a	n/a	1	1	YARD	n/a	YARD	BADGE	3	[0, 0, 0]	-999	PAL1	0	R1229M
577.845	4.001	585024	STUDY_PAIR	n/a	wordpools/wordpool_EN.txt	1	1	YARD	n/a	YARD	BADGE	3	[0, 0, 0]	-999	PAL1	0	R1229M
581.846	1.017	589025	PAIR_OFF	n/a	n/a	1	1	YARD	n/a	YARD	BADGE	3	[0, 0, 0]	-999	PAL1	0	R1229M
582.863	0.267	590042	STUDY_ORIENT	n/a	n/a	2	4	SLIME	SLIME	CANE	SLIME	3	[0, 0, 0]	-999	PAL1	0	R1229M
583.13	0.767	590309	STUDY_ORIENT_OFF	n/a	n/a	2	4	SLIME	SLIME	CANE	SLIME	3	[0, 0, 0]	-999	PAL1	0	R1229M
583.897	4.017	591076	STUDY_PAIR	n/a	wordpools/wordpool_EN.txt	2	4	SLIME	SLIME	CANE	SLIME	3	[0, 0, 0]	-999	PAL1	0	R1229M
587.914	1.017	595093	PAIR_OFF	n/a	n/a	2	4	SLIME	SLIME	CANE	SLIME	3	[0, 0, 0]	-999	PAL1	0	R1229M
588.931	0.267	596110	STUDY_ORIENT	n/a	n/a	3	3	RAIN	FOG	FOG	RAIN	3	[0, 0, 0]	-999	PAL1	0	R1229M
589.198	0.683	596377	STUDY_ORIENT_OFF	n/a	n/a	3	3	RAIN	FOG	FOG	RAIN	3	[0, 0, 0]	-999	PAL1	0	R1229M
589.881	4.018	597060	STUDY_PAIR	n/a	wordpools/wordpool_EN.txt	3	3	RAIN	FOG	FOG	RAIN	3	[0, 0, 0]	-999	PAL1	0	R1229M
593.899	1.016	601077	PAIR_OFF	n/a	n/a	3	3	RAIN	FOG	FOG	RAIN	3	[0, 0, 0]	-999	PAL1	0	R1229M
594.915	0.267	602093	STUDY_ORIENT	n/a	n/a	4	6	BARN	JUDGE	JUDGE	BARN	3	[0, 0, 0]	-999	PAL1	0	R1229M
595.182	0.617	602360	STUDY_ORIENT_OFF	n/a	n/a	4	6	BARN	JUDGE	JUDGE	BARN	3	[0, 0, 0]	-999	PAL1	0	R1229M
595.799	4.017	602977	STUDY_PAIR	n/a	wordpools/wordpool_EN.txt	4	6	BARN	JUDGE	JUDGE	BARN	3	[0, 0, 0]	-999	PAL1	0	R1229M
599.816	1.017	606994	PAIR_OFF	n/a	n/a	4	6	BARN	JUDGE	JUDGE	BARN	3	[0, 0, 0]	-999	PAL1	0	R1229M
600.833	0.267	608011	STUDY_ORIENT	n/a	n/a	5	5	POOL	n/a	PEACH	POOL	3	[0, 0, 0]	-999	PAL1	0	R1229M
601.1	0.734	608278	STUDY_ORIENT_OFF	n/a	n/a	5	5	POOL	n/a	PEACH	POOL	3	[0, 0, 0]	-999	PAL1	0	R1229M
601.834	4.017	609012	STUDY_PAIR	n/a	wordpools/wordpool_EN.txt	5	5	POOL	n/a	PEACH	POOL	3	[0, 0, 0]	-999	PAL1	0	R1229M
605.851	1.017	613029	PAIR_OFF	n/a	n/a	5	5	POOL	n/a	PEACH	POOL	3	[0, 0, 0]	-999	PAL1	0	R1229M
606.868	0.266	614046	STUDY_ORIENT	n/a	n/a	6	2	PIT	n/a	PIT	CLOUD	3	[0, 0, 0]	-999	PAL1	0	R1229M
607.134	0.617	614312	STUDY_ORIENT_OFF	n/a	n/a	6	2	PIT	n/a	PIT	CLOUD	3	[0, 0, 0]	-999	PAL1	0	R1229M
607.751	4.018	614929	STUDY_PAIR	n/a	wordpools/wordpool_EN.txt	6	2	PIT	n/a	PIT	CLOUD	3	[0, 0, 0]	-999	PAL1	0	R1229M
611.769	1.0	618946	PAIR_OFF	n/a	n/a	6	2	PIT	n/a	PIT	CLOUD	3	[0, 0, 0]	-999	PAL1	0	R1229M
612.769	0.0	619946	MATH_START	n/a	n/a	-999	-999	n/a	n/a	n/a	n/a	3	[0, 0, 0]	-999	PAL1	0	R1229M
612.769	0.0	619946	ENCODING_END	n/a	n/a	-999	-999	n/a	n/a	n/a	n/a	3	[0, 0, 0]	-999	PAL1	0	R1229M
612.769	0.017	619946	START	n/a	n/a	-999	-999	n/a	n/a	n/a	n/a	3	[-999, -999, -999]	-999	PAL1	0	R1229M
612.786	5.901	619963	PROB	5868	n/a	-999	-999	n/a	n/a	n/a	n/a	3	[8, 7, 1]	16	PAL1	0	R1229M
618.687	4.951	625864	PROB	4928	n/a	-999	-999	n/a	n/a	n/a	n/a	3	[4, 6, 7]	17	PAL1	0	R1229M
623.638	6.234	630815	PROB	6201	n/a	-999	-999	n/a	n/a	n/a	n/a	3	[4, 5, 2]	11	PAL1	0	R1229M
629.872	3.528	637048	PROB	3528	n/a	-999	-999	n/a	n/a	n/a	n/a	3	[1, 5, 1]	7	PAL1	0	R1229M
633.4	0.007	640576	STOP	n/a	n/a	-999	-999	n/a	n/a	n/a	n/a	3	[-999, -999, -999]	-999	PAL1	0	R1229M
633.407	0.0	640583	MATH_END	n/a	n/a	-999	-999	n/a	n/a	n/a	n/a	3	[0, 0, 0]	-999	PAL1	0	R1229M
633.407	0.017	640583	RECALL_START	n/a	n/a	-999	-999	n/a	n/a	n/a	n/a	3	[0, 0, 0]	-999	PAL1	0	R1229M
633.424	0.266	640600	TEST_ORIENT	n/a	n/a	1	1	YARD	n/a	YARD	BADGE	3	[0, 0, 0]	-999	PAL1	0	R1229M
633.69	0.633	640866	RETRIEVAL_ORIENT_OFF	n/a	n/a	-999	-999	n/a	n/a	n/a	n/a	3	[0, 0, 0]	-999	PAL1	0	R1229M
634.323	0.001	641499	TEST_PROBE	n/a	wordpools/wordpool_EN.txt	1	1	YARD	n/a	YARD	BADGE	3	[0, 0, 0]	-999	PAL1	0	R1229M
634.324	2.623	641500	REC_START	n/a	n/a	1	-999	n/a	n/a	n/a	n/a	3	[0, 0, 0]	-999	PAL1	0	R1229M
636.947	1.393	644123	REC_EVENT	2623	n/a	1	1	YARD	<>	YARD	BADGE	3	[0, 0, 0]	-999	PAL1	0	R1229M
638.34	1.001	645516	PROBE_OFF	n/a	n/a	1	-999	n/a	n/a	n/a	n/a	3	[0, 0, 0]	-999	PAL1	0	R1229M
639.341	0.016	646517	REC_END	n/a	n/a	1	-999	n/a	n/a	n/a	n/a	3	[0, 0, 0]	-999	PAL1	0	R1229M
639.357	0.267	646533	TEST_ORIENT	n/a	n/a	6	2	PIT	n/a	PIT	CLOUD	3	[0, 0, 0]	-999	PAL1	0	R1229M
639.624	0.6	646800	RETRIEVAL_ORIENT_OFF	n/a	n/a	1	-999	n/a	n/a	n/a	n/a	3	[0, 0, 0]	-999	PAL1	0	R1229M
640.224	0.001	647400	TEST_PROBE	n/a	wordpools/wordpool_EN.txt	6	2	PIT	n/a	PIT	CLOUD	3	[0, 0, 0]	-999	PAL1	0	R1229M
640.225	1.555	647401	REC_START	n/a	n/a	6	-999	n/a	n/a	n/a	n/a	3	[0, 0, 0]	-999	PAL1	0	R1229M
641.78	2.462	648956	REC_EVENT	1555	n/a	6	2	PIT	<>	PIT	CLOUD	3	[0, 0, 0]	-999	PAL1	0	R1229M
644.242	1.001	651417	PROBE_OFF	n/a	n/a	6	-999	n/a	n/a	n/a	n/a	3	[0, 0, 0]	-999	PAL1	0	R1229M
645.243	0.015	652418	REC_END	n/a	n/a	6	-999	n/a	n/a	n/a	n/a	3	[0, 0, 0]	-999	PAL1	0	R1229M
645.258	0.267	652433	TEST_ORIENT	n/a	n/a	3	3	RAIN	FOG	FOG	RAIN	3	[0, 0, 0]	-999	PAL1	0	R1229M
645.525	0.55	652700	RETRIEVAL_ORIENT_OFF	n/a	n/a	6	-999	n/a	n/a	n/a	n/a	3	[0, 0, 0]	-999	PAL1	0	R1229M
646.075	0.001	653250	TEST_PROBE	n/a	wordpools/wordpool_EN.txt	3	3	RAIN	FOG	FOG	RAIN	3	[0, 0, 0]	-999	PAL1	0	R1229M
646.076	0.88	653251	REC_START	n/a	n/a	3	-999	n/a	FOG	n/a	n/a	3	[0, 0, 0]	-999	PAL1	0	R1229M
646.956	3.137	654131	REC_EVENT	880	n/a	3	3	RAIN	FOG	FOG	RAIN	3	[0, 0, 0]	-999	PAL1	0	R1229M
650.093	1.0	657268	PROBE_OFF	n/a	n/a	3	-999	n/a	n/a	n/a	n/a	3	[0, 0, 0]	-999	PAL1	0	R1229M
651.093	0.017	658268	REC_END	n/a	n/a	3	-999	n/a	n/a	n/a	n/a	3	[0, 0, 0]	-999	PAL1	0	R1229M
651.11	0.267	658285	TEST_ORIENT	n/a	n/a	2	4	SLIME	SLIME	CANE	SLIME	3	[0, 0, 0]	-999	PAL1	0	R1229M
651.377	0.649	658552	RETRIEVAL_ORIENT_OFF	n/a	n/a	3	-999	n/a	n/a	n/a	n/a	3	[0, 0, 0]	-999	PAL1	0	R1229M
652.026	0.001	659201	TEST_PROBE	n/a	wordpools/wordpool_EN.txt	2	4	SLIME	SLIME	CANE	SLIME	3	[0, 0, 0]	-999	PAL1	0	R1229M
652.027	2.023	659202	REC_START	n/a	n/a	2	-999	n/a	SLIME	n/a	n/a	3	[0, 0, 0]	-999	PAL1	0	R1229M
654.05	1.994	661225	REC_EVENT	2023	n/a	2	4	SLIME	SLIME	CANE	SLIME	3	[0, 0, 0]	-999	PAL1	0	R1229M
656.044	1.0	663219	PROBE_OFF	n/a	n/a	2	-999	n/a	n/a	n/a	n/a	3	[0, 0, 0]	-999	PAL1	0	R1229M
657.044	0.017	664219	REC_END	n/a	n/a	2	-999	n/a	n/a	n/a	n/a	3	[0, 0, 0]	-999	PAL1	0	R1229M
657.061	0.266	664236	TEST_ORIENT	n/a	n/a	5	5	POOL	n/a	PEACH	POOL	3	[0, 0, 0]	-999	PAL1	0	R1229M
657.327	0.701	664502	RETRIEVAL_ORIENT_OFF	n/a	n/a	2	-999	n/a	n/a	n/a	n/a	3	[0, 0, 0]	-999	PAL1	0	R1229M
658.028	0.0	665203	TEST_PROBE	n/a	wordpools/wordpool_EN.txt	5	5	POOL	n/a	PEACH	POOL	3	[0, 0, 0]	-999	PAL1	0	R1229M
658.028	2.229	665203	REC_START	n/a	n/a	5	-999	n/a	n/a	n/a	n/a	3	[0, 0, 0]	-999	PAL1	0	R1229M
660.257	1.788	667431	REC_EVENT	2229	n/a	5	5	POOL	<>	PEACH	POOL	3	[0, 0, 0]	-999	PAL1	0	R1229M
662.045	1.0	669219	PROBE_OFF	n/a	n/a	5	-999	n/a	n/a	n/a	n/a	3	[0, 0, 0]	-999	PAL1	0	R1229M
663.045	0.017	670219	REC_END	n/a	n/a	5	-999	n/a	n/a	n/a	n/a	3	[0, 0, 0]	-999	PAL1	0	R1229M
663.062	0.267	670236	TEST_ORIENT	n/a	n/a	4	6	BARN	JUDGE	JUDGE	BARN	3	[0, 0, 0]	-999	PAL1	0	R1229M
663.329	0.75	670503	RETRIEVAL_ORIENT_OFF	n/a	n/a	5	-999	n/a	n/a	n/a	n/a	3	[0, 0, 0]	-999	PAL1	0	R1229M
664.079	0.0	671253	TEST_PROBE	n/a	wordpools/wordpool_EN.txt	4	6	BARN	JUDGE	JUDGE	BARN	3	[0, 0, 0]	-999	PAL1	0	R1229M
664.079	2.806	671253	REC_START	n/a	n/a	4	-999	n/a	JUDGE	n/a	n/a	3	[0, 0, 0]	-999	PAL1	0	R1229M
666.885	1.211	674059	REC_EVENT	2806	n/a	4	6	BARN	JUDGE	JUDGE	BARN	3	[0, 0, 0]	-999	PAL1	0	R1229M
668.096	1.0	675270	PROBE_OFF	n/a	n/a	4	-999	n/a	n/a	n/a	n/a	3	[0, 0, 0]	-999	PAL1	0	R1229M
669.096	0.01	676270	REC_END	n/a	n/a	4	-999	n/a	n/a	n/a	n/a	3	[0, 0, 0]	-999	PAL1	0	R1229M
669.106	34.764	676280	RECALL_END	n/a	n/a	-999	-999	n/a	n/a	n/a	n/a	3	[0, 0, 0]	-999	PAL1	0	R1229M
703.87	10.929	711042	TRIAL	n/a	n/a	-999	-999	n/a	n/a	n/a	n/a	4	[0, 0, 0]	-999	PAL1	0	R1229M
714.799	0.006	721970	ENCODING_START	n/a	n/a	-999	-999	n/a	n/a	n/a	n/a	4	[0, 0, 0]	-999	PAL1	0	R1229M
714.805	0.267	721976	STUDY_ORIENT	n/a	n/a	1	5	CHAIR	n/a	CHAIR	PIE	4	[0, 0, 0]	-999	PAL1	0	R1229M
715.072	0.633	722243	STUDY_ORIENT_OFF	n/a	n/a	1	5	CHAIR	n/a	CHAIR	PIE	4	[0, 0, 0]	-999	PAL1	0	R1229M
715.705	4.018	722876	STUDY_PAIR	n/a	wordpools/wordpool_EN.txt	1	5	CHAIR	n/a	CHAIR	PIE	4	[0, 0, 0]	-999	PAL1	0	R1229M
719.723	1.017	726894	PAIR_OFF	n/a	n/a	1	5	CHAIR	n/a	CHAIR	PIE	4	[0, 0, 0]	-999	PAL1	0	R1229M
720.74	0.266	727911	STUDY_ORIENT	n/a	n/a	2	6	SLUSH	n/a	EGG	SLUSH	4	[0, 0, 0]	-999	PAL1	0	R1229M
721.006	0.617	728177	STUDY_ORIENT_OFF	n/a	n/a	2	6	SLUSH	n/a	EGG	SLUSH	4	[0, 0, 0]	-999	PAL1	0	R1229M
721.623	4.018	728794	STUDY_PAIR	n/a	wordpools/wordpool_EN.txt	2	6	SLUSH	n/a	EGG	SLUSH	4	[0, 0, 0]	-999	PAL1	0	R1229M
725.641	1.017	732812	PAIR_OFF	n/a	n/a	2	6	SLUSH	n/a	EGG	SLUSH	4	[0, 0, 0]	-999	PAL1	0	R1229M
726.658	0.266	733829	STUDY_ORIENT	n/a	n/a	3	3	MAP	APE	APE	MAP	4	[0, 0, 0]	-999	PAL1	0	R1229M
726.924	0.534	734095	STUDY_ORIENT_OFF	n/a	n/a	3	3	MAP	APE	APE	MAP	4	[0, 0, 0]	-999	PAL1	0	R1229M
727.458	4.017	734629	STUDY_PAIR	n/a	wordpools/wordpool_EN.txt	3	3	MAP	APE	APE	MAP	4	[0, 0, 0]	-999	PAL1	0	R1229M
731.475	1.017	738645	PAIR_OFF	n/a	n/a	3	3	MAP	APE	APE	MAP	4	[0, 0, 0]	-999	PAL1	0	R1229M
732.492	0.267	739662	STUDY_ORIENT	n/a	n/a	4	2	BEAR	n/a	STRAW	BEAR	4	[0, 0, 0]	-999	PAL1	0	R1229M
732.759	0.684	739929	STUDY_ORIENT_OFF	n/a	n/a	4	2	BEAR	n/a	STRAW	BEAR	4	[0, 0, 0]	-999	PAL1	0	R1229M
733.443	4.017	740613	STUDY_PAIR	n/a	wordpools/wordpool_EN.txt	4	2	BEAR	n/a	STRAW	BEAR	4	[0, 0, 0]	-999	PAL1	0	R1229M
737.46	1.017	744630	PAIR_OFF	n/a	n/a	4	2	BEAR	n/a	STRAW	BEAR	4	[0, 0, 0]	-999	PAL1	0	R1229M
738.477	0.266	745647	STUDY_ORIENT	n/a	n/a	5	1	RAT	n/a	FILM	RAT	4	[0, 0, 0]	-999	PAL1	0	R1229M
738.743	0.517	745913	STUDY_ORIENT_OFF	n/a	n/a	5	1	RAT	n/a	FILM	RAT	4	[0, 0, 0]	-999	PAL1	0	R1229M
739.26	4.017	746430	STUDY_PAIR	n/a	wordpools/wordpool_EN.txt	5	1	RAT	n/a	FILM	RAT	4	[0, 0, 0]	-999	PAL1	0	R1229M
743.277	1.017	750447	PAIR_OFF	n/a	n/a	5	1	RAT	n/a	FILM	RAT	4	[0, 0, 0]	-999	PAL1	0	R1229M
744.294	0.267	751464	STUDY_ORIENT	n/a	n/a	6	4	HOUSE	LOCK	LOCK	HOUSE	4	[0, 0, 0]	-999	PAL1	0	R1229M
744.561	0.7	751731	STUDY_ORIENT_OFF	n/a	n/a	6	4	HOUSE	LOCK	LOCK	HOUSE	4	[0, 0, 0]	-999	PAL1	0	R1229M
745.261	4.018	752430	STUDY_PAIR	n/a	wordpools/wordpool_EN.txt	6	4	HOUSE	LOCK	LOCK	HOUSE	4	[0, 0, 0]	-999	PAL1	0	R1229M
749.279	1.001	756448	PAIR_OFF	n/a	n/a	6	4	HOUSE	LOCK	LOCK	HOUSE	4	[0, 0, 0]	-999	PAL1	0	R1229M
750.28	0.0	757449	ENCODING_END	n/a	n/a	-999	-999	n/a	n/a	n/a	n/a	4	[0, 0, 0]	-999	PAL1	0	R1229M
750.28	0.0	757449	MATH_START	n/a	n/a	-999	-999	n/a	n/a	n/a	n/a	4	[0, 0, 0]	-999	PAL1	0	R1229M
750.28	0.015	757449	START	n/a	n/a	-999	-999	n/a	n/a	n/a	n/a	4	[-999, -999, -999]	-999	PAL1	0	R1229M
750.295	6.568	757464	PROB	6535	n/a	-999	-999	n/a	n/a	n/a	n/a	4	[5, 1, 4]	10	PAL1	0	R1229M
756.863	9.002	764032	PROB	8968	n/a	-999	-999	n/a	n/a	n/a	n/a	4	[3, 5, 6]	14	PAL1	0	R1229M
765.865	6.39	773033	PROB	6390	n/a	-999	-999	n/a	n/a	n/a	n/a	4	[3, 6, 7]	16	PAL1	0	R1229M
772.255	0.011	779423	STOP	n/a	n/a	-999	-999	n/a	n/a	n/a	n/a	4	[-999, -999, -999]	-999	PAL1	0	R1229M
772.266	0.001	779434	MATH_END	n/a	n/a	-999	-999	n/a	n/a	n/a	n/a	4	[0, 0, 0]	-999	PAL1	0	R1229M
772.267	0.016	779435	RECALL_START	n/a	n/a	-999	-999	n/a	n/a	n/a	n/a	4	[0, 0, 0]	-999	PAL1	0	R1229M
772.283	0.267	779451	TEST_ORIENT	n/a	n/a	5	1	RAT	n/a	FILM	RAT	4	[0, 0, 0]	-999	PAL1	0	R1229M
772.55	0.517	779718	RETRIEVAL_ORIENT_OFF	n/a	n/a	-999	-999	n/a	n/a	n/a	n/a	4	[0, 0, 0]	-999	PAL1	0	R1229M
773.067	0.0	780235	TEST_PROBE	n/a	wordpools/wordpool_EN.txt	5	1	RAT	n/a	FILM	RAT	4	[0, 0, 0]	-999	PAL1	0	R1229M
773.067	1.555	780235	REC_START	n/a	n/a	5	-999	n/a	n/a	n/a	n/a	4	[0, 0, 0]	-999	PAL1	0	R1229M
774.622	2.462	781790	REC_EVENT	1555	n/a	5	1	RAT	<>	FILM	RAT	4	[0, 0, 0]	-999	PAL1	0	R1229M
777.084	1.0	784252	PROBE_OFF	n/a	n/a	5	-999	n/a	n/a	n/a	n/a	4	[0, 0, 0]	-999	PAL1	0	R1229M
778.084	0.017	785252	REC_END	n/a	n/a	5	-999	n/a	n/a	n/a	n/a	4	[0, 0, 0]	-999	PAL1	0	R1229M
778.101	0.267	785269	TEST_ORIENT	n/a	n/a	4	2	BEAR	n/a	STRAW	BEAR	4	[0, 0, 0]	-999	PAL1	0	R1229M
778.368	0.533	785536	RETRIEVAL_ORIENT_OFF	n/a	n/a	5	-999	n/a	n/a	n/a	n/a	4	[0, 0, 0]	-999	PAL1	0	R1229M
778.901	0.0	786069	TEST_PROBE	n/a	wordpools/wordpool_EN.txt	4	2	BEAR	n/a	STRAW	BEAR	4	[0, 0, 0]	-999	PAL1	0	R1229M
778.901	1.532	786069	REC_START	n/a	n/a	4	-999	n/a	n/a	n/a	n/a	4	[0, 0, 0]	-999	PAL1	0	R1229M
780.433	2.485	787600	REC_EVENT	1532	n/a	4	2	BEAR	<>	STRAW	BEAR	4	[0, 0, 0]	-999	PAL1	0	R1229M
782.918	1.0	790085	PROBE_OFF	n/a	n/a	4	-999	n/a	n/a	n/a	n/a	4	[0, 0, 0]	-999	PAL1	0	R1229M
783.918	0.017	791085	REC_END	n/a	n/a	4	-999	n/a	n/a	n/a	n/a	4	[0, 0, 0]	-999	PAL1	0	R1229M
783.935	0.267	791102	TEST_ORIENT	n/a	n/a	3	3	MAP	APE	APE	MAP	4	[0, 0, 0]	-999	PAL1	0	R1229M
784.202	0.583	791369	RETRIEVAL_ORIENT_OFF	n/a	n/a	4	-999	n/a	n/a	n/a	n/a	4	[0, 0, 0]	-999	PAL1	0	R1229M
784.785	0.001	791952	TEST_PROBE	n/a	wordpools/wordpool_EN.txt	3	3	MAP	APE	APE	MAP	4	[0, 0, 0]	-999	PAL1	0	R1229M
784.786	1.992	791953	REC_START	n/a	n/a	3	-999	n/a	APE	n/a	n/a	4	[0, 0, 0]	-999	PAL1	0	R1229M
786.778	2.025	793945	REC_EVENT	1992	n/a	3	3	MAP	APE	APE	MAP	4	[0, 0, 0]	-999	PAL1	0	R1229M
788.803	1.0	795970	PROBE_OFF	n/a	n/a	3	-999	n/a	n/a	n/a	n/a	4	[0, 0, 0]	-999	PAL1	0	R1229M
789.803	0.017	796970	REC_END	n/a	n/a	3	-999	n/a	n/a	n/a	n/a	4	[0, 0, 0]	-999	PAL1	0	R1229M
789.82	0.266	796987	TEST_ORIENT	n/a	n/a	6	4	HOUSE	LOCK	LOCK	HOUSE	4	[0, 0, 0]	-999	PAL1	0	R1229M
790.086	0.517	797253	RETRIEVAL_ORIENT_OFF	n/a	n/a	3	-999	n/a	n/a	n/a	n/a	4	[0, 0, 0]	-999	PAL1	0	R1229M
790.603	0.001	797770	TEST_PROBE	n/a	wordpools/wordpool_EN.txt	6	4	HOUSE	LOCK	LOCK	HOUSE	4	[0, 0, 0]	-999	PAL1	0	R1229M
790.604	0.869	797771	REC_START	n/a	n/a	6	-999	n/a	LOCK	n/a	n/a	4	[0, 0, 0]	-999	PAL1	0	R1229M
791.473	3.148	798640	REC_EVENT	869	n/a	6	4	HOUSE	LOCK	LOCK	HOUSE	4	[0, 0, 0]	-999	PAL1	0	R1229M
794.621	1.0	801788	PROBE_OFF	n/a	n/a	6	-999	n/a	n/a	n/a	n/a	4	[0, 0, 0]	-999	PAL1	0	R1229M
795.621	0.017	802788	REC_END	n/a	n/a	6	-999	n/a	n/a	n/a	n/a	4	[0, 0, 0]	-999	PAL1	0	R1229M
795.638	0.266	802805	TEST_ORIENT	n/a	n/a	1	5	CHAIR	n/a	CHAIR	PIE	4	[0, 0, 0]	-999	PAL1	0	R1229M
795.904	0.717	803071	RETRIEVAL_ORIENT_OFF	n/a	n/a	6	-999	n/a	n/a	n/a	n/a	4	[0, 0, 0]	-999	PAL1	0	R1229M
796.621	0.001	803787	TEST_PROBE	n/a	wordpools/wordpool_EN.txt	1	5	CHAIR	n/a	CHAIR	PIE	4	[0, 0, 0]	-999	PAL1	0	R1229M
796.622	2.345	803788	REC_START	n/a	n/a	1	-999	n/a	n/a	n/a	n/a	4	[0, 0, 0]	-999	PAL1	0	R1229M
798.967	1.671	806133	REC_EVENT	2345	n/a	1	5	CHAIR	<>	CHAIR	PIE	4	[0, 0, 0]	-999	PAL1	0	R1229M
800.638	1.0	807804	PROBE_OFF	n/a	n/a	1	-999	n/a	n/a	n/a	n/a	4	[0, 0, 0]	-999	PAL1	0	R1229M
801.638	0.017	808804	REC_END	n/a	n/a	1	-999	n/a	n/a	n/a	n/a	4	[0, 0, 0]	-999	PAL1	0	R1229M
801.655	0.267	808821	TEST_ORIENT	n/a	n/a	2	6	SLUSH	n/a	EGG	SLUSH	4	[0, 0, 0]	-999	PAL1	0	R1229M
801.922	0.634	809088	RETRIEVAL_ORIENT_OFF	n/a	n/a	1	-999	n/a	n/a	n/a	n/a	4	[0, 0, 0]	-999	PAL1	0	R1229M
802.556	0.0	809722	TEST_PROBE	n/a	wordpools/wordpool_EN.txt	2	6	SLUSH	n/a	EGG	SLUSH	4	[0, 0, 0]	-999	PAL1	0	R1229M
802.556	3.738	809722	REC_START	n/a	n/a	2	-999	n/a	n/a	n/a	n/a	4	[0, 0, 0]	-999	PAL1	0	R1229M
806.294	0.279	813460	REC_EVENT	3738	n/a	2	6	SLUSH	<>	EGG	SLUSH	4	[0, 0, 0]	-999	PAL1	0	R1229M
806.573	1.0	813739	PROBE_OFF	n/a	n/a	2	-999	n/a	n/a	n/a	n/a	4	[0, 0, 0]	-999	PAL1	0	R1229M
807.573	0.011	814739	REC_END	n/a	n/a	2	-999	n/a	n/a	n/a	n/a	4	[0, 0, 0]	-999	PAL1	0	R1229M
807.584	9.441	814750	RECALL_END	n/a	n/a	-999	-999	n/a	n/a	n/a	n/a	4	[0, 0, 0]	-999	PAL1	0	R1229M
817.025	10.928	824190	TRIAL	n/a	n/a	-999	-999	n/a	n/a	n/a	n/a	5	[0, 0, 0]	-999	PAL1	0	R1229M
827.953	0.007	835118	ENCODING_START	n/a	n/a	-999	-999	n/a	n/a	n/a	n/a	5	[0, 0, 0]	-999	PAL1	0	R1229M
827.96	0.267	835125	STUDY_ORIENT	n/a	n/a	1	5	GEESE	n/a	GEESE	PEN	5	[0, 0, 0]	-999	PAL1	0	R1229M
828.227	0.7	835392	STUDY_ORIENT_OFF	n/a	n/a	1	5	GEESE	n/a	GEESE	PEN	5	[0, 0, 0]	-999	PAL1	0	R1229M
828.927	4.018	836092	STUDY_PAIR	n/a	wordpools/wordpool_EN.txt	1	5	GEESE	n/a	GEESE	PEN	5	[0, 0, 0]	-999	PAL1	0	R1229M
832.945	1.017	840109	PAIR_OFF	n/a	n/a	1	5	GEESE	n/a	GEESE	PEN	5	[0, 0, 0]	-999	PAL1	0	R1229M
833.962	0.266	841126	STUDY_ORIENT	n/a	n/a	2	6	ROAD	n/a	ROAD	SUIT	5	[0, 0, 0]	-999	PAL1	0	R1229M
834.228	0.617	841392	STUDY_ORIENT_OFF	n/a	n/a	2	6	ROAD	n/a	ROAD	SUIT	5	[0, 0, 0]	-999	PAL1	0	R1229M
834.845	4.018	842009	STUDY_PAIR	n/a	wordpools/wordpool_EN.txt	2	6	ROAD	n/a	ROAD	SUIT	5	[0, 0, 0]	-999	PAL1	0	R1229M
838.863	1.016	846027	PAIR_OFF	n/a	n/a	2	6	ROAD	n/a	ROAD	SUIT	5	[0, 0, 0]	-999	PAL1	0	R1229M
839.879	0.267	847043	STUDY_ORIENT	n/a	n/a	3	1	HILL	n/a	HILL	GLOVE	5	[0, 0, 0]	-999	PAL1	0	R1229M
840.146	0.617	847310	STUDY_ORIENT_OFF	n/a	n/a	3	1	HILL	n/a	HILL	GLOVE	5	[0, 0, 0]	-999	PAL1	0	R1229M
840.763	4.017	847927	STUDY_PAIR	n/a	wordpools/wordpool_EN.txt	3	1	HILL	n/a	HILL	GLOVE	5	[0, 0, 0]	-999	PAL1	0	R1229M
844.78	1.017	851944	PAIR_OFF	n/a	n/a	3	1	HILL	n/a	HILL	GLOVE	5	[0, 0, 0]	-999	PAL1	0	R1229M
845.797	0.267	852961	STUDY_ORIENT	n/a	n/a	4	4	FOX	n/a	CONE	FOX	5	[0, 0, 0]	-999	PAL1	0	R1229M
846.064	0.6	853228	STUDY_ORIENT_OFF	n/a	n/a	4	4	FOX	n/a	CONE	FOX	5	[0, 0, 0]	-999	PAL1	0	R1229M
846.664	4.017	853828	STUDY_PAIR	n/a	wordpools/wordpool_EN.txt	4	4	FOX	n/a	CONE	FOX	5	[0, 0, 0]	-999	PAL1	0	R1229M
850.681	1.017	857844	PAIR_OFF	n/a	n/a	4	4	FOX	n/a	CONE	FOX	5	[0, 0, 0]	-999	PAL1	0	R1229M
851.698	0.267	858861	STUDY_ORIENT	n/a	n/a	5	3	ROOF	n/a	ELF	ROOF	5	[0, 0, 0]	-999	PAL1	0	R1229M
851.965	0.667	859128	STUDY_ORIENT_OFF	n/a	n/a	5	3	ROOF	n/a	ELF	ROOF	5	[0, 0, 0]	-999	PAL1	0	R1229M
852.632	4.017	859795	STUDY_PAIR	n/a	wordpools/wordpool_EN.txt	5	3	ROOF	n/a	ELF	ROOF	5	[0, 0, 0]	-999	PAL1	0	R1229M
856.649	1.017	863812	PAIR_OFF	n/a	n/a	5	3	ROOF	n/a	ELF	ROOF	5	[0, 0, 0]	-999	PAL1	0	R1229M
857.666	0.267	864829	STUDY_ORIENT	n/a	n/a	6	2	GOLD	n/a	GOLD	LAND	5	[0, 0, 0]	-999	PAL1	0	R1229M
857.933	0.55	865096	STUDY_ORIENT_OFF	n/a	n/a	6	2	GOLD	n/a	GOLD	LAND	5	[0, 0, 0]	-999	PAL1	0	R1229M
858.483	4.018	865646	STUDY_PAIR	n/a	wordpools/wordpool_EN.txt	6	2	GOLD	n/a	GOLD	LAND	5	[0, 0, 0]	-999	PAL1	0	R1229M
862.501	1.0	869664	PAIR_OFF	n/a	n/a	6	2	GOLD	n/a	GOLD	LAND	5	[0, 0, 0]	-999	PAL1	0	R1229M
863.501	0.0	870664	ENCODING_END	n/a	n/a	-999	-999	n/a	n/a	n/a	n/a	5	[0, 0, 0]	-999	PAL1	0	R1229M
863.501	0.001	870664	MATH_START	n/a	n/a	-999	-999	n/a	n/a	n/a	n/a	5	[0, 0, 0]	-999	PAL1	0	R1229M
863.502	0.015	870665	START	n/a	n/a	-999	-999	n/a	n/a	n/a	n/a	5	[-999, -999, -999]	-999	PAL1	0	R1229M
863.517	6.552	870680	PROB	6529	n/a	-999	-999	n/a	n/a	n/a	n/a	5	[8, 8, 3]	19	PAL1	0	R1229M
870.069	7.268	877231	PROB	7242	n/a	-999	-999	n/a	n/a	n/a	n/a	5	[5, 3, 4]	12	PAL1	0	R1229M
877.337	6.902	884499	PROB	6902	n/a	-999	-999	n/a	n/a	n/a	n/a	5	[8, 8, 9]	25	PAL1	0	R1229M
884.239	0.016	891400	STOP	n/a	n/a	-999	-999	n/a	n/a	n/a	n/a	5	[-999, -999, -999]	-999	PAL1	0	R1229M
884.255	0.0	891416	MATH_END	n/a	n/a	-999	-999	n/a	n/a	n/a	n/a	5	[0, 0, 0]	-999	PAL1	0	R1229M
884.255	0.016	891416	RECALL_START	n/a	n/a	-999	-999	n/a	n/a	n/a	n/a	5	[0, 0, 0]	-999	PAL1	0	R1229M
884.271	0.267	891432	TEST_ORIENT	n/a	n/a	3	1	HILL	n/a	HILL	GLOVE	5	[0, 0, 0]	-999	PAL1	0	R1229M
884.538	0.617	891699	RETRIEVAL_ORIENT_OFF	n/a	n/a	-999	-999	n/a	n/a	n/a	n/a	5	[0, 0, 0]	-999	PAL1	0	R1229M
885.155	0.001	892316	TEST_PROBE	n/a	wordpools/wordpool_EN.txt	3	1	HILL	n/a	HILL	GLOVE	5	[0, 0, 0]	-999	PAL1	0	R1229M
885.156	3.622	892317	REC_START	n/a	n/a	3	-999	n/a	n/a	n/a	n/a	5	[0, 0, 0]	-999	PAL1	0	R1229M
888.778	0.394	895939	REC_EVENT	3622	n/a	3	1	HILL	<>	HILL	GLOVE	5	[0, 0, 0]	-999	PAL1	0	R1229M
889.172	1.0	896333	PROBE_OFF	n/a	n/a	3	-999	n/a	n/a	n/a	n/a	5	[0, 0, 0]	-999	PAL1	0	R1229M
890.172	0.017	897333	REC_END	n/a	n/a	3	-999	n/a	n/a	n/a	n/a	5	[0, 0, 0]	-999	PAL1	0	R1229M
890.189	0.267	897350	TEST_ORIENT	n/a	n/a	6	2	GOLD	n/a	GOLD	LAND	5	[0, 0, 0]	-999	PAL1	0	R1229M
890.456	0.75	897617	RETRIEVAL_ORIENT_OFF	n/a	n/a	3	-999	n/a	n/a	n/a	n/a	5	[0, 0, 0]	-999	PAL1	0	R1229M
891.206	0.0	898367	TEST_PROBE	n/a	wordpools/wordpool_EN.txt	6	2	GOLD	n/a	GOLD	LAND	5	[0, 0, 0]	-999	PAL1	0	R1229M
891.206	1.555	898367	REC_START	n/a	n/a	6	-999	n/a	n/a	n/a	n/a	5	[0, 0, 0]	-999	PAL1	0	R1229M
892.761	2.462	899922	REC_EVENT	1555	n/a	6	2	GOLD	<>	GOLD	LAND	5	[0, 0, 0]	-999	PAL1	0	R1229M
895.223	1.0	902384	PROBE_OFF	n/a	n/a	6	-999	n/a	n/a	n/a	n/a	5	[0, 0, 0]	-999	PAL1	0	R1229M
896.223	0.017	903384	REC_END	n/a	n/a	6	-999	n/a	n/a	n/a	n/a	5	[0, 0, 0]	-999	PAL1	0	R1229M
896.24	0.267	903401	TEST_ORIENT	n/a	n/a	5	3	ROOF	n/a	ELF	ROOF	5	[0, 0, 0]	-999	PAL1	0	R1229M
896.507	0.734	903668	RETRIEVAL_ORIENT_OFF	n/a	n/a	6	-999	n/a	n/a	n/a	n/a	5	[0, 0, 0]	-999	PAL1	0	R1229M
897.241	0.0	904402	TEST_PROBE	n/a	wordpools/wordpool_EN.txt	5	3	ROOF	n/a	ELF	ROOF	5	[0, 0, 0]	-999	PAL1	0	R1229M
897.241	2.368	904402	REC_START	n/a	n/a	5	-999	n/a	n/a	n/a	n/a	5	[0, 0, 0]	-999	PAL1	0	R1229M
899.609	1.649	906769	REC_EVENT	2368	n/a	5	3	ROOF	<>	ELF	ROOF	5	[0, 0, 0]	-999	PAL1	0	R1229M
901.258	1.001	908418	PROBE_OFF	n/a	n/a	5	-999	n/a	n/a	n/a	n/a	5	[0, 0, 0]	-999	PAL1	0	R1229M
902.259	0.016	909419	REC_END	n/a	n/a	5	-999	n/a	n/a	n/a	n/a	5	[0, 0, 0]	-999	PAL1	0	R1229M
902.275	0.267	909435	TEST_ORIENT	n/a	n/a	4	4	FOX	n/a	CONE	FOX	5	[0, 0, 0]	-999	PAL1	0	R1229M
902.542	0.65	909702	RETRIEVAL_ORIENT_OFF	n/a	n/a	5	-999	n/a	n/a	n/a	n/a	5	[0, 0, 0]	-999	PAL1	0	R1229M
903.192	0.0	910352	TEST_PROBE	n/a	wordpools/wordpool_EN.txt	4	4	FOX	n/a	CONE	FOX	5	[0, 0, 0]	-999	PAL1	0	R1229M
903.192	3.784	910352	REC_START	n/a	n/a	4	-999	n/a	n/a	n/a	n/a	5	[0, 0, 0]	-999	PAL1	0	R1229M
906.976	0.233	914136	REC_EVENT	3784	n/a	4	4	FOX	<>	CONE	FOX	5	[0, 0, 0]	-999	PAL1	0	R1229M
907.209	1.0	914369	PROBE_OFF	n/a	n/a	4	-999	n/a	n/a	n/a	n/a	5	[0, 0, 0]	-999	PAL1	0	R1229M
908.209	0.017	915369	REC_END	n/a	n/a	4	-999	n/a	n/a	n/a	n/a	5	[0, 0, 0]	-999	PAL1	0	R1229M
908.226	0.267	915386	TEST_ORIENT	n/a	n/a	1	5	GEESE	n/a	GEESE	PEN	5	[0, 0, 0]	-999	PAL1	0	R1229M
908.493	0.533	915653	RETRIEVAL_ORIENT_OFF	n/a	n/a	4	-999	n/a	n/a	n/a	n/a	5	[0, 0, 0]	-999	PAL1	0	R1229M
909.026	0.001	916186	TEST_PROBE	n/a	wordpools/wordpool_EN.txt	1	5	GEESE	n/a	GEESE	PEN	5	[0, 0, 0]	-999	PAL1	0	R1229M
909.027	0.766	916187	REC_START	n/a	n/a	1	-999	n/a	n/a	n/a	n/a	5	[0, 0, 0]	-999	PAL1	0	R1229M
909.793	3.251	916953	REC_EVENT	766	n/a	1	5	GEESE	<>	GEESE	PEN	5	[0, 0, 0]	-999	PAL1	0	R1229M
913.044	1.0	920204	PROBE_OFF	n/a	n/a	1	-999	n/a	n/a	n/a	n/a	5	[0, 0, 0]	-999	PAL1	0	R1229M
914.044	0.017	921204	REC_END	n/a	n/a	1	-999	n/a	n/a	n/a	n/a	5	[0, 0, 0]	-999	PAL1	0	R1229M
914.061	0.266	921221	TEST_ORIENT	n/a	n/a	2	6	ROAD	n/a	ROAD	SUIT	5	[0, 0, 0]	-999	PAL1	0	R1229M
914.327	0.684	921487	RETRIEVAL_ORIENT_OFF	n/a	n/a	1	-999	n/a	n/a	n/a	n/a	5	[0, 0, 0]	-999	PAL1	0	R1229M
915.011	0.0	922171	TEST_PROBE	n/a	wordpools/wordpool_EN.txt	2	6	ROAD	n/a	ROAD	SUIT	5	[0, 0, 0]	-999	PAL1	0	R1229M
915.011	1.068	922171	REC_START	n/a	n/a	2	-999	n/a	n/a	n/a	n/a	5	[0, 0, 0]	-999	PAL1	0	R1229M
916.079	2.949	923239	REC_EVENT	1068	n/a	2	6	ROAD	<>	ROAD	SUIT	5	[0, 0, 0]	-999	PAL1	0	R1229M
919.028	1.0	926187	PROBE_OFF	n/a	n/a	2	-999	n/a	n/a	n/a	n/a	5	[0, 0, 0]	-999	PAL1	0	R1229M
920.028	0.006	927187	REC_END	n/a	n/a	2	-999	n/a	n/a	n/a	n/a	5	[0, 0, 0]	-999	PAL1	0	R1229M
920.034	50.888	927193	RECALL_END	n/a	n/a	-999	-999	n/a	n/a	n/a	n/a	5	[0, 0, 0]	-999	PAL1	0	R1229M
970.922	10.929	978078	TRIAL	n/a	n/a	-999	-999	n/a	n/a	n/a	n/a	6	[0, 0, 0]	-999	PAL1	0	R1229M
981.851	0.006	989007	ENCODING_START	n/a	n/a	-999	-999	n/a	n/a	n/a	n/a	6	[0, 0, 0]	-999	PAL1	0	R1229M
981.857	0.267	989013	STUDY_ORIENT	n/a	n/a	1	5	TREE	n/a	FOAM	TREE	6	[0, 0, 0]	-999	PAL1	0	R1229M
982.124	0.533	989280	STUDY_ORIENT_OFF	n/a	n/a	1	5	TREE	n/a	FOAM	TREE	6	[0, 0, 0]	-999	PAL1	0	R1229M
982.657	4.018	989813	STUDY_PAIR	n/a	wordpools/wordpool_EN.txt	1	5	TREE	n/a	FOAM	TREE	6	[0, 0, 0]	-999	PAL1	0	R1229M
986.675	1.016	993830	PAIR_OFF	n/a	n/a	1	5	TREE	n/a	FOAM	TREE	6	[0, 0, 0]	-999	PAL1	0	R1229M
987.691	0.267	994846	STUDY_ORIENT	n/a	n/a	2	2	SEAT	n/a	HOOK	SEAT	6	[0, 0, 0]	-999	PAL1	0	R1229M
987.958	0.517	995113	STUDY_ORIENT_OFF	n/a	n/a	2	2	SEAT	n/a	HOOK	SEAT	6	[0, 0, 0]	-999	PAL1	0	R1229M
988.475	4.017	995630	STUDY_PAIR	n/a	wordpools/wordpool_EN.txt	2	2	SEAT	n/a	HOOK	SEAT	6	[0, 0, 0]	-999	PAL1	0	R1229M
992.492	1.017	999647	PAIR_OFF	n/a	n/a	2	2	SEAT	n/a	HOOK	SEAT	6	[0, 0, 0]	-999	PAL1	0	R1229M
993.509	0.267	1000664	STUDY_ORIENT	n/a	n/a	3	1	WHEEL	BUSH	BUSH	WHEEL	6	[0, 0, 0]	-999	PAL1	0	R1229M
993.776	0.634	1000931	STUDY_ORIENT_OFF	n/a	n/a	3	1	WHEEL	BUSH	BUSH	WHEEL	6	[0, 0, 0]	-999	PAL1	0	R1229M
994.41	4.018	1001565	STUDY_PAIR	n/a	wordpools/wordpool_EN.txt	3	1	WHEEL	BUSH	BUSH	WHEEL	6	[0, 0, 0]	-999	PAL1	0	R1229M
998.428	1.017	1005583	PAIR_OFF	n/a	n/a	3	1	WHEEL	BUSH	BUSH	WHEEL	6	[0, 0, 0]	-999	PAL1	0	R1229M
999.445	0.265	1006600	STUDY_ORIENT	n/a	n/a	4	4	BALL	CHEEK	BALL	DOOR	6	[0, 0, 0]	-999	PAL1	0	R1229M
999.71	0.718	1006865	STUDY_ORIENT_OFF	n/a	n/a	4	4	BALL	CHEEK	BALL	DOOR	6	[0, 0, 0]	-999	PAL1	0	R1229M
1000.428	4.017	1007583	STUDY_PAIR	n/a	wordpools/wordpool_EN.txt	4	4	BALL	CHEEK	BALL	DOOR	6	[0, 0, 0]	-999	PAL1	0	R1229M
1004.445	1.017	1011599	PAIR_OFF	n/a	n/a	4	4	BALL	CHEEK	BALL	DOOR	6	[0, 0, 0]	-999	PAL1	0	R1229M
1005.462	0.266	1012616	STUDY_ORIENT	n/a	n/a	5	3	CHEEK	n/a	CHEEK	TRAIN	6	[0, 0, 0]	-999	PAL1	0	R1229M
1005.728	0.634	1012882	STUDY_ORIENT_OFF	n/a	n/a	5	3	CHEEK	n/a	CHEEK	TRAIN	6	[0, 0, 0]	-999	PAL1	0	R1229M
1006.362	4.018	1013516	STUDY_PAIR	n/a	wordpools/wordpool_EN.txt	5	3	CHEEK	n/a	CHEEK	TRAIN	6	[0, 0, 0]	-999	PAL1	0	R1229M
1010.38	1.017	1017534	PAIR_OFF	n/a	n/a	5	3	CHEEK	n/a	CHEEK	TRAIN	6	[0, 0, 0]	-999	PAL1	0	R1229M
1011.397	0.266	1018551	STUDY_ORIENT	n/a	n/a	6	6	FUDGE	n/a	FUDGE	MAZE	6	[0, 0, 0]	-999	PAL1	0	R1229M
1011.663	0.683	1018817	STUDY_ORIENT_OFF	n/a	n/a	6	6	FUDGE	n/a	FUDGE	MAZE	6	[0, 0, 0]	-999	PAL1	0	R1229M
1012.346	4.018	1019500	STUDY_PAIR	n/a	wordpools/wordpool_EN.txt	6	6	FUDGE	n/a	FUDGE	MAZE	6	[0, 0, 0]	-999	PAL1	0	R1229M
1016.364	1.001	1023518	PAIR_OFF	n/a	n/a	6	6	FUDGE	n/a	FUDGE	MAZE	6	[0, 0, 0]	-999	PAL1	0	R1229M
1017.365	0.0	1024519	ENCODING_END	n/a	n/a	-999	-999	n/a	n/a	n/a	n/a	6	[0, 0, 0]	-999	PAL1	0	R1229M
1017.365	0.0	1024519	MATH_START	n/a	n/a	-999	-999	n/a	n/a	n/a	n/a	6	[0, 0, 0]	-999	PAL1	0	R1229M
1017.365	0.016	1024519	START	n/a	n/a	-999	-999	n/a	n/a	n/a	n/a	6	[-999, -999, -999]	-999	PAL1	0	R1229M
1017.381	5.084	1024535	PROB	5051	n/a	-999	-999	n/a	n/a	n/a	n/a	6	[2, 3, 4]	9	PAL1	0	R1229M
1022.465	7.851	1029618	PROB	7822	n/a	-999	-999	n/a	n/a	n/a	n/a	6	[2, 3, 9]	14	PAL1	0	R1229M
1030.316	4.685	1037469	PROB	4658	n/a	-999	-999	n/a	n/a	n/a	n/a	6	[4, 1, 7]	12	PAL1	0	R1229M
1035.001	5.094	1042154	PROB	5094	n/a	-999	-999	n/a	n/a	n/a	n/a	6	[1, 7, 9]	17	PAL1	0	R1229M
1040.095	0.007	1047247	STOP	n/a	n/a	-999	-999	n/a	n/a	n/a	n/a	6	[-999, -999, -999]	-999	PAL1	0	R1229M
1040.102	0.0	1047254	MATH_END	n/a	n/a	-999	-999	n/a	n/a	n/a	n/a	6	[0, 0, 0]	-999	PAL1	0	R1229M
1040.102	0.016	1047254	RECALL_START	n/a	n/a	-999	-999	n/a	n/a	n/a	n/a	6	[0, 0, 0]	-999	PAL1	0	R1229M
1040.118	0.268	1047270	TEST_ORIENT	n/a	n/a	3	1	WHEEL	BUSH	BUSH	WHEEL	6	[0, 0, 0]	-999	PAL1	0	R1229M
1040.386	0.599	1047538	RETRIEVAL_ORIENT_OFF	n/a	n/a	-999	-999	n/a	n/a	n/a	n/a	6	[0, 0, 0]	-999	PAL1	0	R1229M
1040.985	0.001	1048137	TEST_PROBE	n/a	wordpools/wordpool_EN.txt	3	1	WHEEL	BUSH	BUSH	WHEEL	6	[0, 0, 0]	-999	PAL1	0	R1229M
1040.986	3.55	1048138	REC_START	n/a	n/a	3	-999	n/a	BUSH	n/a	n/a	6	[0, 0, 0]	-999	PAL1	0	R1229M
1044.536	0.467	1051688	REC_EVENT	3550	n/a	3	1	WHEEL	BUSH	BUSH	WHEEL	6	[0, 0, 0]	-999	PAL1	0	R1229M
1045.003	1.011	1052155	PROBE_OFF	n/a	n/a	3	-999	n/a	n/a	n/a	n/a	6	[0, 0, 0]	-999	PAL1	0	R1229M
1046.014	0.022	1053166	REC_END	n/a	n/a	3	-999	n/a	n/a	n/a	n/a	6	[0, 0, 0]	-999	PAL1	0	R1229M
1046.036	0.267	1053188	TEST_ORIENT	n/a	n/a	2	2	SEAT	n/a	HOOK	SEAT	6	[0, 0, 0]	-999	PAL1	0	R1229M
1046.303	0.517	1053455	RETRIEVAL_ORIENT_OFF	n/a	n/a	3	-999	n/a	n/a	n/a	n/a	6	[0, 0, 0]	-999	PAL1	0	R1229M
1046.82	0.0	1053972	TEST_PROBE	n/a	wordpools/wordpool_EN.txt	2	2	SEAT	n/a	HOOK	SEAT	6	[0, 0, 0]	-999	PAL1	0	R1229M
1046.82	4.017	1053972	REC_START	n/a	n/a	2	-999	n/a	n/a	n/a	n/a	6	[0, 0, 0]	-999	PAL1	0	R1229M
1050.837	0.301	1057989	PROBE_OFF	n/a	n/a	2	-999	n/a	n/a	n/a	n/a	6	[0, 0, 0]	-999	PAL1	0	R1229M
1051.138	0.699	1058290	REC_EVENT	4318	n/a	2	2	SEAT	<>	HOOK	SEAT	6	[0, 0, 0]	-999	PAL1	0	R1229M
1051.837	0.017	1058989	REC_END	n/a	n/a	2	-999	n/a	n/a	n/a	n/a	6	[0, 0, 0]	-999	PAL1	0	R1229M
1051.854	0.267	1059006	TEST_ORIENT	n/a	n/a	5	3	CHEEK	n/a	CHEEK	TRAIN	6	[0, 0, 0]	-999	PAL1	0	R1229M
1052.121	0.566	1059273	RETRIEVAL_ORIENT_OFF	n/a	n/a	2	-999	n/a	n/a	n/a	n/a	6	[0, 0, 0]	-999	PAL1	0	R1229M
1052.687	0.001	1059839	TEST_PROBE	n/a	wordpools/wordpool_EN.txt	5	3	CHEEK	n/a	CHEEK	TRAIN	6	[0, 0, 0]	-999	PAL1	0	R1229M
1052.688	4.017	1059840	REC_START	n/a	n/a	5	-999	n/a	n/a	n/a	n/a	6	[0, 0, 0]	-999	PAL1	0	R1229M
1056.705	0.696	1063856	PROBE_OFF	n/a	n/a	5	-999	n/a	n/a	n/a	n/a	6	[0, 0, 0]	-999	PAL1	0	R1229M
1057.401	0.304	1064552	REC_EVENT	4713	n/a	5	3	CHEEK	<>	CHEEK	TRAIN	6	[0, 0, 0]	-999	PAL1	0	R1229M
1057.705	0.016	1064856	REC_END	n/a	n/a	5	-999	n/a	n/a	n/a	n/a	6	[0, 0, 0]	-999	PAL1	0	R1229M
1057.721	0.267	1064872	TEST_ORIENT	n/a	n/a	4	4	BALL	CHEEK	BALL	DOOR	6	[0, 0, 0]	-999	PAL1	0	R1229M
1057.988	0.584	1065139	RETRIEVAL_ORIENT_OFF	n/a	n/a	5	-999	n/a	n/a	n/a	n/a	6	[0, 0, 0]	-999	PAL1	0	R1229M
1058.572	0.0	1065723	TEST_PROBE	n/a	wordpools/wordpool_EN.txt	4	4	BALL	CHEEK	BALL	DOOR	6	[0, 0, 0]	-999	PAL1	0	R1229M
1058.572	2.947	1065723	REC_START	n/a	n/a	4	-999	n/a	CHEEK	n/a	n/a	6	[0, 0, 0]	-999	PAL1	0	R1229M
1061.519	0.929	1068670	REC_EVENT	2947	n/a	4	4	BALL	CHEEK	BALL	DOOR	6	[0, 0, 0]	-999	PAL1	0	R1229M
1062.448	0.141	1069599	REC_EVENT	3876	n/a	4	4	BALL	<>	BALL	DOOR	6	[0, 0, 0]	-999	PAL1	0	R1229M
1062.589	1.0	1069740	PROBE_OFF	n/a	n/a	4	-999	n/a	n/a	n/a	n/a	6	[0, 0, 0]	-999	PAL1	0	R1229M
1063.589	0.017	1070740	REC_END	n/a	n/a	4	-999	n/a	n/a	n/a	n/a	6	[0, 0, 0]	-999	PAL1	0	R1229M
1063.606	0.267	1070757	TEST_ORIENT	n/a	n/a	1	5	TREE	n/a	FOAM	TREE	6	[0, 0, 0]	-999	PAL1	0	R1229M
1063.873	0.733	1071024	RETRIEVAL_ORIENT_OFF	n/a	n/a	4	-999	n/a	n/a	n/a	n/a	6	[0, 0, 0]	-999	PAL1	0	R1229M
1064.606	0.002	1071757	TEST_PROBE	n/a	wordpools/wordpool_EN.txt	1	5	TREE	n/a	FOAM	TREE	6	[0, 0, 0]	-999	PAL1	0	R1229M
1064.608	4.016	1071759	REC_START	n/a	n/a	1	-999	n/a	n/a	n/a	n/a	6	[0, 0, 0]	-999	PAL1	0	R1229M
1068.624	0.465	1075775	PROBE_OFF	n/a	n/a	1	-999	n/a	n/a	n/a	n/a	6	[0, 0, 0]	-999	PAL1	0	R1229M
1069.089	0.535	1076240	REC_EVENT	4481	n/a	1	5	TREE	<>	FOAM	TREE	6	[0, 0, 0]	-999	PAL1	0	R1229M
1069.624	0.017	1076775	REC_END	n/a	n/a	1	-999	n/a	n/a	n/a	n/a	6	[0, 0, 0]	-999	PAL1	0	R1229M
1069.641	0.266	1076792	TEST_ORIENT	n/a	n/a	6	6	FUDGE	n/a	FUDGE	MAZE	6	[0, 0, 0]	-999	PAL1	0	R1229M
1069.907	0.684	1077058	RETRIEVAL_ORIENT_OFF	n/a	n/a	1	-999	n/a	n/a	n/a	n/a	6	[0, 0, 0]	-999	PAL1	0	R1229M
1070.591	0.0	1077742	REC_START	n/a	n/a	6	-999	n/a	n/a	n/a	n/a	6	[0, 0, 0]	-999	PAL1	0	R1229M
1070.591	3.459	1077742	TEST_PROBE	n/a	wordpools/wordpool_EN.txt	6	6	FUDGE	n/a	FUDGE	MAZE	6	[0, 0, 0]	-999	PAL1	0	R1229M
1074.05	0.558	1081200	REC_EVENT	3459	n/a	6	6	FUDGE	<>	FUDGE	MAZE	6	[0, 0, 0]	-999	PAL1	0	R1229M
1074.608	1.001	1081758	PROBE_OFF	n/a	n/a	6	-999	n/a	n/a	n/a	n/a	6	[0, 0, 0]	-999	PAL1	0	R1229M
1075.609	0.01	1082759	REC_END	n/a	n/a	6	-999	n/a	n/a	n/a	n/a	6	[0, 0, 0]	-999	PAL1	0	R1229M
1075.619	54.0	1082769	RECALL_END	n/a	n/a	-999	-999	n/a	n/a	n/a	n/a	6	[0, 0, 0]	-999	PAL1	0	R1229M
1129.619	10.929	1136766	TRIAL	n/a	n/a	-999	-999	n/a	n/a	n/a	n/a	7	[0, 0, 0]	-999	PAL1	0	R1229M
1140.548	0.006	1147694	ENCODING_START	n/a	n/a	-999	-999	n/a	n/a	n/a	n/a	7	[0, 0, 0]	-999	PAL1	0	R1229M
1140.554	0.267	1147700	STUDY_ORIENT	n/a	n/a	1	5	CHIN	n/a	FLOOR	CHIN	7	[0, 0, 0]	-999	PAL1	0	R1229M
1140.821	0.75	1147967	STUDY_ORIENT_OFF	n/a	n/a	1	5	CHIN	n/a	FLOOR	CHIN	7	[0, 0, 0]	-999	PAL1	0	R1229M
1141.571	4.018	1148717	STUDY_PAIR	n/a	wordpools/wordpool_EN.txt	1	5	CHIN	n/a	FLOOR	CHIN	7	[0, 0, 0]	-999	PAL1	0	R1229M
1145.589	1.016	1152735	PAIR_OFF	n/a	n/a	1	5	CHIN	n/a	FLOOR	CHIN	7	[0, 0, 0]	-999	PAL1	0	R1229M
1146.605	0.267	1153751	STUDY_ORIENT	n/a	n/a	2	6	PEAR	n/a	PEAR	RIB	7	[0, 0, 0]	-999	PAL1	0	R1229M
1146.872	0.535	1154018	STUDY_ORIENT_OFF	n/a	n/a	2	6	PEAR	n/a	PEAR	RIB	7	[0, 0, 0]	-999	PAL1	0	R1229M
1147.407	4.017	1154553	STUDY_PAIR	n/a	wordpools/wordpool_EN.txt	2	6	PEAR	n/a	PEAR	RIB	7	[0, 0, 0]	-999	PAL1	0	R1229M
1151.424	1.017	1158570	PAIR_OFF	n/a	n/a	2	6	PEAR	n/a	PEAR	RIB	7	[0, 0, 0]	-999	PAL1	0	R1229M
1152.441	0.266	1159587	STUDY_ORIENT	n/a	n/a	3	1	INK	n/a	INK	SHIELD	7	[0, 0, 0]	-999	PAL1	0	R1229M
1152.707	0.718	1159853	STUDY_ORIENT_OFF	n/a	n/a	3	1	INK	n/a	INK	SHIELD	7	[0, 0, 0]	-999	PAL1	0	R1229M
1153.425	4.017	1160571	STUDY_PAIR	n/a	wordpools/wordpool_EN.txt	3	1	INK	n/a	INK	SHIELD	7	[0, 0, 0]	-999	PAL1	0	R1229M
1157.442	1.016	1164587	PAIR_OFF	n/a	n/a	3	1	INK	n/a	INK	SHIELD	7	[0, 0, 0]	-999	PAL1	0	R1229M
1158.458	0.267	1165603	STUDY_ORIENT	n/a	n/a	4	4	BOAT	n/a	BOAT	SEED	7	[0, 0, 0]	-999	PAL1	0	R1229M
1158.725	0.633	1165870	STUDY_ORIENT_OFF	n/a	n/a	4	4	BOAT	n/a	BOAT	SEED	7	[0, 0, 0]	-999	PAL1	0	R1229M
1159.358	4.018	1166503	STUDY_PAIR	n/a	wordpools/wordpool_EN.txt	4	4	BOAT	n/a	BOAT	SEED	7	[0, 0, 0]	-999	PAL1	0	R1229M
1163.376	1.017	1170521	PAIR_OFF	n/a	n/a	4	4	BOAT	n/a	BOAT	SEED	7	[0, 0, 0]	-999	PAL1	0	R1229M
1164.393	0.266	1171538	STUDY_ORIENT	n/a	n/a	5	3	GUARD	INK	PIN	GUARD	7	[0, 0, 0]	-999	PAL1	0	R1229M
1164.659	0.667	1171804	STUDY_ORIENT_OFF	n/a	n/a	5	3	GUARD	INK	PIN	GUARD	7	[0, 0, 0]	-999	PAL1	0	R1229M
1165.326	4.017	1172471	STUDY_PAIR	n/a	wordpools/wordpool_EN.txt	5	3	GUARD	INK	PIN	GUARD	7	[0, 0, 0]	-999	PAL1	0	R1229M
1169.343	1.017	1176488	PAIR_OFF	n/a	n/a	5	3	GUARD	INK	PIN	GUARD	7	[0, 0, 0]	-999	PAL1	0	R1229M
1170.36	0.267	1177505	STUDY_ORIENT	n/a	n/a	6	2	BEACH	MILK	BEACH	MILK	7	[0, 0, 0]	-999	PAL1	0	R1229M
1170.627	0.768	1177772	STUDY_ORIENT_OFF	n/a	n/a	6	2	BEACH	MILK	BEACH	MILK	7	[0, 0, 0]	-999	PAL1	0	R1229M
1171.395	4.017	1178540	STUDY_PAIR	n/a	wordpools/wordpool_EN.txt	6	2	BEACH	MILK	BEACH	MILK	7	[0, 0, 0]	-999	PAL1	0	R1229M
1175.412	1.001	1182556	PAIR_OFF	n/a	n/a	6	2	BEACH	MILK	BEACH	MILK	7	[0, 0, 0]	-999	PAL1	0	R1229M
1176.413	0.0	1183557	MATH_START	n/a	n/a	-999	-999	n/a	n/a	n/a	n/a	7	[0, 0, 0]	-999	PAL1	0	R1229M
1176.413	0.0	1183557	ENCODING_END	n/a	n/a	-999	-999	n/a	n/a	n/a	n/a	7	[0, 0, 0]	-999	PAL1	0	R1229M
1176.413	0.016	1183557	START	n/a	n/a	-999	-999	n/a	n/a	n/a	n/a	7	[-999, -999, -999]	-999	PAL1	0	R1229M
1176.429	7.35	1183573	PROB	7322	n/a	-999	-999	n/a	n/a	n/a	n/a	7	[6, 7, 2]	15	PAL1	0	R1229M
1183.779	12.995	1190923	PROB	12995	n/a	-999	-999	n/a	n/a	n/a	n/a	7	[2, 5, 9]	16	PAL1	0	R1229M
1196.774	0.008	1203917	STOP	n/a	n/a	-999	-999	n/a	n/a	n/a	n/a	7	[-999, -999, -999]	-999	PAL1	0	R1229M
1196.782	0.0	1203925	MATH_END	n/a	n/a	-999	-999	n/a	n/a	n/a	n/a	7	[0, 0, 0]	-999	PAL1	0	R1229M
1196.782	0.017	1203925	RECALL_START	n/a	n/a	-999	-999	n/a	n/a	n/a	n/a	7	[0, 0, 0]	-999	PAL1	0	R1229M
1196.799	0.266	1203942	TEST_ORIENT	n/a	n/a	3	1	INK	n/a	INK	SHIELD	7	[0, 0, 0]	-999	PAL1	0	R1229M
1197.065	0.534	1204208	RETRIEVAL_ORIENT_OFF	n/a	n/a	-999	-999	n/a	n/a	n/a	n/a	7	[0, 0, 0]	-999	PAL1	0	R1229M
1197.599	0.0	1204742	TEST_PROBE	n/a	wordpools/wordpool_EN.txt	3	1	INK	n/a	INK	SHIELD	7	[0, 0, 0]	-999	PAL1	0	R1229M
1197.599	4.017	1204742	REC_START	n/a	n/a	3	-999	n/a	n/a	n/a	n/a	7	[0, 0, 0]	-999	PAL1	0	R1229M
1201.616	0.0	1208759	REC_EVENT	4017	n/a	3	1	INK	<>	INK	SHIELD	7	[0, 0, 0]	-999	PAL1	0	R1229M
1201.616	1.0	1208759	PROBE_OFF	n/a	n/a	3	-999	n/a	n/a	n/a	n/a	7	[0, 0, 0]	-999	PAL1	0	R1229M
1202.616	0.017	1209759	REC_END	n/a	n/a	3	-999	n/a	n/a	n/a	n/a	7	[0, 0, 0]	-999	PAL1	0	R1229M
1202.633	0.267	1209776	TEST_ORIENT	n/a	n/a	6	2	BEACH	MILK	BEACH	MILK	7	[0, 0, 0]	-999	PAL1	0	R1229M
1202.9	0.567	1210043	RETRIEVAL_ORIENT_OFF	n/a	n/a	3	-999	n/a	n/a	n/a	n/a	7	[0, 0, 0]	-999	PAL1	0	R1229M
1203.467	0.0	1210610	TEST_PROBE	n/a	wordpools/wordpool_EN.txt	6	2	BEACH	MILK	BEACH	MILK	7	[0, 0, 0]	-999	PAL1	0	R1229M
1203.467	3.168	1210610	REC_START	n/a	n/a	6	-999	n/a	MILK	n/a	n/a	7	[0, 0, 0]	-999	PAL1	0	R1229M
1206.635	0.849	1213778	REC_EVENT	3168	n/a	6	2	BEACH	MILK	BEACH	MILK	7	[0, 0, 0]	-999	PAL1	0	R1229M
1207.484	1.0	1214627	PROBE_OFF	n/a	n/a	6	-999	n/a	n/a	n/a	n/a	7	[0, 0, 0]	-999	PAL1	0	R1229M
1208.484	0.017	1215626	REC_END	n/a	n/a	6	-999	n/a	n/a	n/a	n/a	7	[0, 0, 0]	-999	PAL1	0	R1229M
1208.501	0.267	1215643	TEST_ORIENT	n/a	n/a	5	3	GUARD	INK	PIN	GUARD	7	[0, 0, 0]	-999	PAL1	0	R1229M
1208.768	0.75	1215910	RETRIEVAL_ORIENT_OFF	n/a	n/a	6	-999	n/a	n/a	n/a	n/a	7	[0, 0, 0]	-999	PAL1	0	R1229M
1209.518	0.0	1216660	REC_START	n/a	n/a	5	-999	n/a	INK	n/a	n/a	7	[0, 0, 0]	-999	PAL1	0	R1229M
1209.518	1.461	1216660	TEST_PROBE	n/a	wordpools/wordpool_EN.txt	5	3	GUARD	INK	PIN	GUARD	7	[0, 0, 0]	-999	PAL1	0	R1229M
1210.979	2.556	1218121	REC_EVENT	1461	n/a	5	3	GUARD	INK	PIN	GUARD	7	[0, 0, 0]	-999	PAL1	0	R1229M
1213.535	1.0	1220677	PROBE_OFF	n/a	n/a	5	-999	n/a	n/a	n/a	n/a	7	[0, 0, 0]	-999	PAL1	0	R1229M
1214.535	0.017	1221677	REC_END	n/a	n/a	5	-999	n/a	n/a	n/a	n/a	7	[0, 0, 0]	-999	PAL1	0	R1229M
1214.552	0.267	1221694	TEST_ORIENT	n/a	n/a	4	4	BOAT	n/a	BOAT	SEED	7	[0, 0, 0]	-999	PAL1	0	R1229M
1214.819	0.7	1221961	RETRIEVAL_ORIENT_OFF	n/a	n/a	5	-999	n/a	n/a	n/a	n/a	7	[0, 0, 0]	-999	PAL1	0	R1229M
1215.519	0.0	1222661	TEST_PROBE	n/a	wordpools/wordpool_EN.txt	4	4	BOAT	n/a	BOAT	SEED	7	[0, 0, 0]	-999	PAL1	0	R1229M
1215.519	4.017	1222661	REC_START	n/a	n/a	4	-999	n/a	n/a	n/a	n/a	7	[0, 0, 0]	-999	PAL1	0	R1229M
1219.536	0.998	1226678	PROBE_OFF	n/a	n/a	4	-999	n/a	n/a	n/a	n/a	7	[0, 0, 0]	-999	PAL1	0	R1229M
1220.534	0.002	1227676	REC_EVENT	5015	n/a	4	4	BOAT	<>	BOAT	SEED	7	[0, 0, 0]	-999	PAL1	0	R1229M
1220.536	0.017	1227678	REC_END	n/a	n/a	4	-999	n/a	n/a	n/a	n/a	7	[0, 0, 0]	-999	PAL1	0	R1229M
1220.553	0.267	1227695	TEST_ORIENT	n/a	n/a	1	5	CHIN	n/a	FLOOR	CHIN	7	[0, 0, 0]	-999	PAL1	0	R1229M
1220.82	0.683	1227962	RETRIEVAL_ORIENT_OFF	n/a	n/a	4	-999	n/a	n/a	n/a	n/a	7	[0, 0, 0]	-999	PAL1	0	R1229M
1221.503	0.001	1228645	TEST_PROBE	n/a	wordpools/wordpool_EN.txt	1	5	CHIN	n/a	FLOOR	CHIN	7	[0, 0, 0]	-999	PAL1	0	R1229M
1221.504	4.017	1228646	REC_START	n/a	n/a	1	-999	n/a	n/a	n/a	n/a	7	[0, 0, 0]	-999	PAL1	0	R1229M
1225.521	0.557	1232662	PROBE_OFF	n/a	n/a	1	-999	n/a	n/a	n/a	n/a	7	[0, 0, 0]	-999	PAL1	0	R1229M
1226.078	0.443	1233219	REC_EVENT	4574	n/a	1	5	CHIN	<>	FLOOR	CHIN	7	[0, 0, 0]	-999	PAL1	0	R1229M
1226.521	0.017	1233662	REC_END	n/a	n/a	1	-999	n/a	n/a	n/a	n/a	7	[0, 0, 0]	-999	PAL1	0	R1229M
1226.538	0.266	1233679	TEST_ORIENT	n/a	n/a	2	6	PEAR	n/a	PEAR	RIB	7	[0, 0, 0]	-999	PAL1	0	R1229M
1226.804	0.701	1233945	RETRIEVAL_ORIENT_OFF	n/a	n/a	1	-999	n/a	n/a	n/a	n/a	7	[0, 0, 0]	-999	PAL1	0	R1229M
1227.505	0.0	1234646	TEST_PROBE	n/a	wordpools/wordpool_EN.txt	2	6	PEAR	n/a	PEAR	RIB	7	[0, 0, 0]	-999	PAL1	0	R1229M
1227.505	4.017	1234646	REC_START	n/a	n/a	2	-999	n/a	n/a	n/a	n/a	7	[0, 0, 0]	-999	PAL1	0	R1229M
1231.522	0.557	1238663	PROBE_OFF	n/a	n/a	2	-999	n/a	n/a	n/a	n/a	7	[0, 0, 0]	-999	PAL1	0	R1229M
1232.079	0.443	1239220	REC_EVENT	4574	n/a	2	6	PEAR	<>	PEAR	RIB	7	[0, 0, 0]	-999	PAL1	0	R1229M
1232.522	0.004	1239663	REC_END	n/a	n/a	2	-999	n/a	n/a	n/a	n/a	7	[0, 0, 0]	-999	PAL1	0	R1229M
1232.526	83.229	1239667	RECALL_END	n/a	n/a	-999	-999	n/a	n/a	n/a	n/a	7	[0, 0, 0]	-999	PAL1	0	R1229M
1315.755	10.928	1322891	TRIAL	n/a	n/a	-999	-999	n/a	n/a	n/a	n/a	8	[0, 0, 0]	-999	PAL1	0	R1229M
1326.683	0.007	1333819	ENCODING_START	n/a	n/a	-999	-999	n/a	n/a	n/a	n/a	8	[0, 0, 0]	-999	PAL1	0	R1229M
1326.69	0.267	1333826	STUDY_ORIENT	n/a	n/a	1	1	BIRD	n/a	BIRD	FROG	8	[0, 0, 0]	-999	PAL1	0	R1229M
1326.957	0.75	1334093	STUDY_ORIENT_OFF	n/a	n/a	1	1	BIRD	n/a	BIRD	FROG	8	[0, 0, 0]	-999	PAL1	0	R1229M
1327.707	4.018	1334842	STUDY_PAIR	n/a	wordpools/wordpool_EN.txt	1	1	BIRD	n/a	BIRD	FROG	8	[0, 0, 0]	-999	PAL1	0	R1229M
1331.725	1.017	1338860	PAIR_OFF	n/a	n/a	1	1	BIRD	n/a	BIRD	FROG	8	[0, 0, 0]	-999	PAL1	0	R1229M
1332.742	0.266	1339877	STUDY_ORIENT	n/a	n/a	2	2	HEN	n/a	HEN	VAN	8	[0, 0, 0]	-999	PAL1	0	R1229M
1333.008	0.534	1340143	STUDY_ORIENT_OFF	n/a	n/a	2	2	HEN	n/a	HEN	VAN	8	[0, 0, 0]	-999	PAL1	0	R1229M
1333.542	4.017	1340677	STUDY_PAIR	n/a	wordpools/wordpool_EN.txt	2	2	HEN	n/a	HEN	VAN	8	[0, 0, 0]	-999	PAL1	0	R1229M
1337.559	1.017	1344694	PAIR_OFF	n/a	n/a	2	2	HEN	n/a	HEN	VAN	8	[0, 0, 0]	-999	PAL1	0	R1229M
1338.576	0.267	1345711	STUDY_ORIENT	n/a	n/a	3	5	THREAD	n/a	THREAD	DOLL	8	[0, 0, 0]	-999	PAL1	0	R1229M
1338.843	0.733	1345978	STUDY_ORIENT_OFF	n/a	n/a	3	5	THREAD	n/a	THREAD	DOLL	8	[0, 0, 0]	-999	PAL1	0	R1229M
1339.576	4.018	1346711	STUDY_PAIR	n/a	wordpools/wordpool_EN.txt	3	5	THREAD	n/a	THREAD	DOLL	8	[0, 0, 0]	-999	PAL1	0	R1229M
1343.594	1.017	1350729	PAIR_OFF	n/a	n/a	3	5	THREAD	n/a	THREAD	DOLL	8	[0, 0, 0]	-999	PAL1	0	R1229M
1344.611	0.266	1351746	STUDY_ORIENT	n/a	n/a	4	6	HAND	n/a	HAND	BRANCH	8	[0, 0, 0]	-999	PAL1	0	R1229M
1344.877	0.634	1352011	STUDY_ORIENT_OFF	n/a	n/a	4	6	HAND	n/a	HAND	BRANCH	8	[0, 0, 0]	-999	PAL1	0	R1229M
1345.511	4.017	1352645	STUDY_PAIR	n/a	wordpools/wordpool_EN.txt	4	6	HAND	n/a	HAND	BRANCH	8	[0, 0, 0]	-999	PAL1	0	R1229M
1349.528	1.017	1356662	PAIR_OFF	n/a	n/a	4	6	HAND	n/a	HAND	BRANCH	8	[0, 0, 0]	-999	PAL1	0	R1229M
1350.545	0.267	1357679	STUDY_ORIENT	n/a	n/a	5	3	ROOM	PIPE	ROOM	PIPE	8	[0, 0, 0]	-999	PAL1	0	R1229M
1350.812	0.75	1357946	STUDY_ORIENT_OFF	n/a	n/a	5	3	ROOM	PIPE	ROOM	PIPE	8	[0, 0, 0]	-999	PAL1	0	R1229M
1351.562	4.017	1358696	STUDY_PAIR	n/a	wordpools/wordpool_EN.txt	5	3	ROOM	PIPE	ROOM	PIPE	8	[0, 0, 0]	-999	PAL1	0	R1229M
1355.579	1.017	1362713	PAIR_OFF	n/a	n/a	5	3	ROOM	PIPE	ROOM	PIPE	8	[0, 0, 0]	-999	PAL1	0	R1229M
1356.596	0.267	1363730	STUDY_ORIENT	n/a	n/a	6	4	MAIL	n/a	MAIL	MAT	8	[0, 0, 0]	-999	PAL1	0	R1229M
1356.863	0.733	1363997	STUDY_ORIENT_OFF	n/a	n/a	6	4	MAIL	n/a	MAIL	MAT	8	[0, 0, 0]	-999	PAL1	0	R1229M
1357.596	4.018	1364730	STUDY_PAIR	n/a	wordpools/wordpool_EN.txt	6	4	MAIL	n/a	MAIL	MAT	8	[0, 0, 0]	-999	PAL1	0	R1229M
1361.614	1.0	1368748	PAIR_OFF	n/a	n/a	6	4	MAIL	n/a	MAIL	MAT	8	[0, 0, 0]	-999	PAL1	0	R1229M
1362.614	0.0	1369747	ENCODING_END	n/a	n/a	-999	-999	n/a	n/a	n/a	n/a	8	[0, 0, 0]	-999	PAL1	0	R1229M
1362.614	0.001	1369747	MATH_START	n/a	n/a	-999	-999	n/a	n/a	n/a	n/a	8	[0, 0, 0]	-999	PAL1	0	R1229M
1362.615	0.016	1369748	START	n/a	n/a	-999	-999	n/a	n/a	n/a	n/a	8	[-999, -999, -999]	-999	PAL1	0	R1229M
1362.631	7.802	1369764	PROB	7769	n/a	-999	-999	n/a	n/a	n/a	n/a	8	[2, 6, 7]	15	PAL1	0	R1229M
1370.433	4.483	1377566	PROB	4446	n/a	-999	-999	n/a	n/a	n/a	n/a	8	[5, 3, 2]	10	PAL1	0	R1229M
1374.916	4.851	1382049	PROB	4818	n/a	-999	-999	n/a	n/a	n/a	n/a	8	[4, 8, 4]	16	PAL1	0	R1229M
1379.767	3.855	1386899	PROB	3855	n/a	-999	-999	n/a	n/a	n/a	n/a	8	[3, 1, 3]	7	PAL1	0	R1229M
1383.622	0.013	1390754	STOP	n/a	n/a	-999	-999	n/a	n/a	n/a	n/a	8	[-999, -999, -999]	-999	PAL1	0	R1229M
1383.635	0.0	1390767	MATH_END	n/a	n/a	-999	-999	n/a	n/a	n/a	n/a	8	[0, 0, 0]	-999	PAL1	0	R1229M
1383.635	0.016	1390767	RECALL_START	n/a	n/a	-999	-999	n/a	n/a	n/a	n/a	8	[0, 0, 0]	-999	PAL1	0	R1229M
1383.651	0.267	1390783	TEST_ORIENT	n/a	n/a	1	1	BIRD	n/a	BIRD	FROG	8	[0, 0, 0]	-999	PAL1	0	R1229M
1383.918	0.55	1391050	RETRIEVAL_ORIENT_OFF	n/a	n/a	-999	-999	n/a	n/a	n/a	n/a	8	[0, 0, 0]	-999	PAL1	0	R1229M
1384.468	0.001	1391600	TEST_PROBE	n/a	wordpools/wordpool_EN.txt	1	1	BIRD	n/a	BIRD	FROG	8	[0, 0, 0]	-999	PAL1	0	R1229M
1384.469	3.506	1391601	REC_START	n/a	n/a	1	-999	n/a	n/a	n/a	n/a	8	[0, 0, 0]	-999	PAL1	0	R1229M
1387.975	0.494	1395107	REC_EVENT	3506	n/a	1	1	BIRD	<>	BIRD	FROG	8	[0, 0, 0]	-999	PAL1	0	R1229M
1388.469	1.001	1395601	PROBE_OFF	n/a	n/a	1	-999	n/a	n/a	n/a	n/a	8	[0, 0, 0]	-999	PAL1	0	R1229M
1389.47	0.016	1396602	REC_END	n/a	n/a	1	-999	n/a	n/a	n/a	n/a	8	[0, 0, 0]	-999	PAL1	0	R1229M
1389.486	0.267	1396618	TEST_ORIENT	n/a	n/a	2	2	HEN	n/a	HEN	VAN	8	[0, 0, 0]	-999	PAL1	0	R1229M
1389.753	0.55	1396885	RETRIEVAL_ORIENT_OFF	n/a	n/a	1	-999	n/a	n/a	n/a	n/a	8	[0, 0, 0]	-999	PAL1	0	R1229M
1390.303	0.0	1397435	TEST_PROBE	n/a	wordpools/wordpool_EN.txt	2	2	HEN	n/a	HEN	VAN	8	[0, 0, 0]	-999	PAL1	0	R1229M
1390.303	4.017	1397435	REC_START	n/a	n/a	2	-999	n/a	n/a	n/a	n/a	8	[0, 0, 0]	-999	PAL1	0	R1229M
1394.32	0.301	1401452	PROBE_OFF	n/a	n/a	2	-999	n/a	n/a	n/a	n/a	8	[0, 0, 0]	-999	PAL1	0	R1229M
1394.621	0.699	1401753	REC_EVENT	4318	n/a	2	2	HEN	<>	HEN	VAN	8	[0, 0, 0]	-999	PAL1	0	R1229M
1395.32	0.017	1402452	REC_END	n/a	n/a	2	-999	n/a	n/a	n/a	n/a	8	[0, 0, 0]	-999	PAL1	0	R1229M
1395.337	0.267	1402469	TEST_ORIENT	n/a	n/a	5	3	ROOM	PIPE	ROOM	PIPE	8	[0, 0, 0]	-999	PAL1	0	R1229M
1395.604	0.617	1402736	RETRIEVAL_ORIENT_OFF	n/a	n/a	2	-999	n/a	n/a	n/a	n/a	8	[0, 0, 0]	-999	PAL1	0	R1229M
1396.221	0.0	1403353	TEST_PROBE	n/a	wordpools/wordpool_EN.txt	5	3	ROOM	PIPE	ROOM	PIPE	8	[0, 0, 0]	-999	PAL1	0	R1229M
1396.221	2.056	1403353	REC_START	n/a	n/a	5	-999	n/a	PIPE	n/a	n/a	8	[0, 0, 0]	-999	PAL1	0	R1229M
1398.277	1.961	1405408	REC_EVENT	2056	n/a	5	3	ROOM	PIPE	ROOM	PIPE	8	[0, 0, 0]	-999	PAL1	0	R1229M
1400.238	1.0	1407369	PROBE_OFF	n/a	n/a	5	-999	n/a	n/a	n/a	n/a	8	[0, 0, 0]	-999	PAL1	0	R1229M
1401.238	0.017	1408369	REC_END	n/a	n/a	5	-999	n/a	n/a	n/a	n/a	8	[0, 0, 0]	-999	PAL1	0	R1229M
1401.255	0.267	1408386	TEST_ORIENT	n/a	n/a	6	4	MAIL	n/a	MAIL	MAT	8	[0, 0, 0]	-999	PAL1	0	R1229M
1401.522	0.65	1408653	RETRIEVAL_ORIENT_OFF	n/a	n/a	5	-999	n/a	n/a	n/a	n/a	8	[0, 0, 0]	-999	PAL1	0	R1229M
1402.172	0.0	1409303	TEST_PROBE	n/a	wordpools/wordpool_EN.txt	6	4	MAIL	n/a	MAIL	MAT	8	[0, 0, 0]	-999	PAL1	0	R1229M
1402.172	1.369	1409303	REC_START	n/a	n/a	6	-999	n/a	n/a	n/a	n/a	8	[0, 0, 0]	-999	PAL1	0	R1229M
1403.541	2.648	1410672	REC_EVENT	1369	n/a	6	4	MAIL	<>	MAIL	MAT	8	[0, 0, 0]	-999	PAL1	0	R1229M
1406.189	1.0	1413320	PROBE_OFF	n/a	n/a	6	-999	n/a	n/a	n/a	n/a	8	[0, 0, 0]	-999	PAL1	0	R1229M
1407.189	0.017	1414320	REC_END	n/a	n/a	6	-999	n/a	n/a	n/a	n/a	8	[0, 0, 0]	-999	PAL1	0	R1229M
1407.206	0.267	1414337	TEST_ORIENT	n/a	n/a	3	5	THREAD	n/a	THREAD	DOLL	8	[0, 0, 0]	-999	PAL1	0	R1229M
1407.473	0.617	1414604	RETRIEVAL_ORIENT_OFF	n/a	n/a	6	-999	n/a	n/a	n/a	n/a	8	[0, 0, 0]	-999	PAL1	0	R1229M
1408.09	0.0	1415221	TEST_PROBE	n/a	wordpools/wordpool_EN.txt	3	5	THREAD	n/a	THREAD	DOLL	8	[0, 0, 0]	-999	PAL1	0	R1229M
1408.09	1.695	1415221	REC_START	n/a	n/a	3	-999	n/a	n/a	n/a	n/a	8	[0, 0, 0]	-999	PAL1	0	R1229M
1409.785	2.322	1416916	REC_EVENT	1695	n/a	3	5	THREAD	<>	THREAD	DOLL	8	[0, 0, 0]	-999	PAL1	0	R1229M
1412.107	1.0	1419238	PROBE_OFF	n/a	n/a	3	-999	n/a	n/a	n/a	n/a	8	[0, 0, 0]	-999	PAL1	0	R1229M
1413.107	0.017	1420238	REC_END	n/a	n/a	3	-999	n/a	n/a	n/a	n/a	8	[0, 0, 0]	-999	PAL1	0	R1229M
1413.124	0.268	1420255	TEST_ORIENT	n/a	n/a	4	6	HAND	n/a	HAND	BRANCH	8	[0, 0, 0]	-999	PAL1	0	R1229M
1413.392	0.565	1420522	RETRIEVAL_ORIENT_OFF	n/a	n/a	3	-999	n/a	n/a	n/a	n/a	8	[0, 0, 0]	-999	PAL1	0	R1229M
1413.957	0.001	1421087	TEST_PROBE	n/a	wordpools/wordpool_EN.txt	4	6	HAND	n/a	HAND	BRANCH	8	[0, 0, 0]	-999	PAL1	0	R1229M
1413.958	3.831	1421088	REC_START	n/a	n/a	4	-999	n/a	n/a	n/a	n/a	8	[0, 0, 0]	-999	PAL1	0	R1229M
1417.789	0.186	1424919	REC_EVENT	3831	n/a	4	6	HAND	<>	HAND	BRANCH	8	[0, 0, 0]	-999	PAL1	0	R1229M
1417.975	1.0	1425105	PROBE_OFF	n/a	n/a	4	-999	n/a	n/a	n/a	n/a	8	[0, 0, 0]	-999	PAL1	0	R1229M
1418.975	0.006	1426105	REC_END	n/a	n/a	4	-999	n/a	n/a	n/a	n/a	8	[0, 0, 0]	-999	PAL1	0	R1229M
1418.981	29.666	1426111	RECALL_END	n/a	n/a	-999	-999	n/a	n/a	n/a	n/a	8	[0, 0, 0]	-999	PAL1	0	R1229M
1448.647	10.928	1455775	TRIAL	n/a	n/a	-999	-999	n/a	n/a	n/a	n/a	9	[0, 0, 0]	-999	PAL1	0	R1229M
1459.575	0.008	1466703	ENCODING_START	n/a	n/a	-999	-999	n/a	n/a	n/a	n/a	9	[0, 0, 0]	-999	PAL1	0	R1229M
1459.583	0.267	1466711	STUDY_ORIENT	n/a	n/a	1	5	SLEEVE	n/a	STOVE	SLEEVE	9	[0, 0, 0]	-999	PAL1	0	R1229M
1459.85	0.733	1466978	STUDY_ORIENT_OFF	n/a	n/a	1	5	SLEEVE	n/a	STOVE	SLEEVE	9	[0, 0, 0]	-999	PAL1	0	R1229M
1460.583	4.017	1467711	STUDY_PAIR	n/a	wordpools/wordpool_EN.txt	1	5	SLEEVE	n/a	STOVE	SLEEVE	9	[0, 0, 0]	-999	PAL1	0	R1229M
1464.6	1.017	1471728	PAIR_OFF	n/a	n/a	1	5	SLEEVE	n/a	STOVE	SLEEVE	9	[0, 0, 0]	-999	PAL1	0	R1229M
1465.617	0.267	1472744	STUDY_ORIENT	n/a	n/a	2	4	LAMB	n/a	BRIDGE	LAMB	9	[0, 0, 0]	-999	PAL1	0	R1229M
1465.884	0.75	1473011	STUDY_ORIENT_OFF	n/a	n/a	2	4	LAMB	n/a	BRIDGE	LAMB	9	[0, 0, 0]	-999	PAL1	0	R1229M
1466.634	4.018	1473761	STUDY_PAIR	n/a	wordpools/wordpool_EN.txt	2	4	LAMB	n/a	BRIDGE	LAMB	9	[0, 0, 0]	-999	PAL1	0	R1229M
1470.652	1.017	1477779	PAIR_OFF	n/a	n/a	2	4	LAMB	n/a	BRIDGE	LAMB	9	[0, 0, 0]	-999	PAL1	0	R1229M
1471.669	0.266	1478796	STUDY_ORIENT	n/a	n/a	3	1	ROOT	n/a	FLAME	ROOT	9	[0, 0, 0]	-999	PAL1	0	R1229M
1471.935	0.717	1479062	STUDY_ORIENT_OFF	n/a	n/a	3	1	ROOT	n/a	FLAME	ROOT	9	[0, 0, 0]	-999	PAL1	0	R1229M
1472.652	4.018	1479779	STUDY_PAIR	n/a	wordpools/wordpool_EN.txt	3	1	ROOT	n/a	FLAME	ROOT	9	[0, 0, 0]	-999	PAL1	0	R1229M
1476.67	1.016	1483797	PAIR_OFF	n/a	n/a	3	1	ROOT	n/a	FLAME	ROOT	9	[0, 0, 0]	-999	PAL1	0	R1229M
1477.686	0.267	1484813	STUDY_ORIENT	n/a	n/a	4	2	CASH	STORE	CASH	STORE	9	[0, 0, 0]	-999	PAL1	0	R1229M
1477.953	0.767	1485080	STUDY_ORIENT_OFF	n/a	n/a	4	2	CASH	STORE	CASH	STORE	9	[0, 0, 0]	-999	PAL1	0	R1229M
1478.72	4.017	1485847	STUDY_PAIR	n/a	wordpools/wordpool_EN.txt	4	2	CASH	STORE	CASH	STORE	9	[0, 0, 0]	-999	PAL1	0	R1229M
1482.737	1.017	1489863	PAIR_OFF	n/a	n/a	4	2	CASH	STORE	CASH	STORE	9	[0, 0, 0]	-999	PAL1	0	R1229M
1483.754	0.267	1490880	STUDY_ORIENT	n/a	n/a	5	3	DEER	n/a	SNAIL	DEER	9	[0, 0, 0]	-999	PAL1	0	R1229M
1484.021	0.733	1491147	STUDY_ORIENT_OFF	n/a	n/a	5	3	DEER	n/a	SNAIL	DEER	9	[0, 0, 0]	-999	PAL1	0	R1229M
1484.754	4.018	1491880	STUDY_PAIR	n/a	wordpools/wordpool_EN.txt	5	3	DEER	n/a	SNAIL	DEER	9	[0, 0, 0]	-999	PAL1	0	R1229M
1488.772	1.017	1495898	PAIR_OFF	n/a	n/a	5	3	DEER	n/a	SNAIL	DEER	9	[0, 0, 0]	-999	PAL1	0	R1229M
1489.789	0.266	1496915	STUDY_ORIENT	n/a	n/a	6	6	SMILE	n/a	WEB	SMILE	9	[0, 0, 0]	-999	PAL1	0	R1229M
1490.055	0.567	1497181	STUDY_ORIENT_OFF	n/a	n/a	6	6	SMILE	n/a	WEB	SMILE	9	[0, 0, 0]	-999	PAL1	0	R1229M
1490.622	4.001	1497748	STUDY_PAIR	n/a	wordpools/wordpool_EN.txt	6	6	SMILE	n/a	WEB	SMILE	9	[0, 0, 0]	-999	PAL1	0	R1229M
1494.623	1.001	1501749	PAIR_OFF	n/a	n/a	6	6	SMILE	n/a	WEB	SMILE	9	[0, 0, 0]	-999	PAL1	0	R1229M
1495.624	0.0	1502750	ENCODING_END	n/a	n/a	-999	-999	n/a	n/a	n/a	n/a	9	[0, 0, 0]	-999	PAL1	0	R1229M
1495.624	0.0	1502750	MATH_START	n/a	n/a	-999	-999	n/a	n/a	n/a	n/a	9	[0, 0, 0]	-999	PAL1	0	R1229M
1495.624	0.016	1502750	START	n/a	n/a	-999	-999	n/a	n/a	n/a	n/a	9	[-999, -999, -999]	-999	PAL1	0	R1229M
1495.64	8.736	1502766	PROB	8703	n/a	-999	-999	n/a	n/a	n/a	n/a	9	[6, 3, 4]	11	PAL1	0	R1229M
1504.376	15.215	1511501	PROB	15215	n/a	-999	-999	n/a	n/a	n/a	n/a	9	[7, 4, 8]	19	PAL1	0	R1229M
1519.591	0.02	1526715	STOP	n/a	n/a	-999	-999	n/a	n/a	n/a	n/a	9	[-999, -999, -999]	-999	PAL1	0	R1229M
1519.611	0.001	1526735	MATH_END	n/a	n/a	-999	-999	n/a	n/a	n/a	n/a	9	[0, 0, 0]	-999	PAL1	0	R1229M
1519.612	0.016	1526736	RECALL_START	n/a	n/a	-999	-999	n/a	n/a	n/a	n/a	9	[0, 0, 0]	-999	PAL1	0	R1229M
1519.628	0.267	1526752	TEST_ORIENT	n/a	n/a	3	1	ROOT	n/a	FLAME	ROOT	9	[0, 0, 0]	-999	PAL1	0	R1229M
1519.895	0.7	1527019	RETRIEVAL_ORIENT_OFF	n/a	n/a	-999	-999	n/a	n/a	n/a	n/a	9	[0, 0, 0]	-999	PAL1	0	R1229M
1520.595	0.001	1527719	TEST_PROBE	n/a	wordpools/wordpool_EN.txt	3	1	ROOT	n/a	FLAME	ROOT	9	[0, 0, 0]	-999	PAL1	0	R1229M
1520.596	4.016	1527720	REC_START	n/a	n/a	3	-999	n/a	n/a	n/a	n/a	9	[0, 0, 0]	-999	PAL1	0	R1229M
1524.612	0.999	1531736	PROBE_OFF	n/a	n/a	3	-999	n/a	n/a	n/a	n/a	9	[0, 0, 0]	-999	PAL1	0	R1229M
1525.611	0.001	1532735	REC_EVENT	5015	n/a	3	1	ROOT	<>	FLAME	ROOT	9	[0, 0, 0]	-999	PAL1	0	R1229M
1525.612	0.017	1532736	REC_END	n/a	n/a	3	-999	n/a	n/a	n/a	n/a	9	[0, 0, 0]	-999	PAL1	0	R1229M
1525.629	0.267	1532753	TEST_ORIENT	n/a	n/a	4	2	CASH	STORE	CASH	STORE	9	[0, 0, 0]	-999	PAL1	0	R1229M
1525.896	0.617	1533020	RETRIEVAL_ORIENT_OFF	n/a	n/a	3	-999	n/a	n/a	n/a	n/a	9	[0, 0, 0]	-999	PAL1	0	R1229M
1526.513	0.0	1533637	TEST_PROBE	n/a	wordpools/wordpool_EN.txt	4	2	CASH	STORE	CASH	STORE	9	[0, 0, 0]	-999	PAL1	0	R1229M
1526.513	1.351	1533637	REC_START	n/a	n/a	4	-999	n/a	STORE	n/a	n/a	9	[0, 0, 0]	-999	PAL1	0	R1229M
1527.864	2.666	1534988	REC_EVENT	1351	n/a	4	2	CASH	STORE	CASH	STORE	9	[0, 0, 0]	-999	PAL1	0	R1229M
1530.53	1.0	1537654	PROBE_OFF	n/a	n/a	4	-999	n/a	n/a	n/a	n/a	9	[0, 0, 0]	-999	PAL1	0	R1229M
1531.53	0.017	1538654	REC_END	n/a	n/a	4	-999	n/a	n/a	n/a	n/a	9	[0, 0, 0]	-999	PAL1	0	R1229M
1531.547	0.266	1538671	TEST_ORIENT	n/a	n/a	5	3	DEER	n/a	SNAIL	DEER	9	[0, 0, 0]	-999	PAL1	0	R1229M
1531.813	0.602	1538937	RETRIEVAL_ORIENT_OFF	n/a	n/a	4	-999	n/a	n/a	n/a	n/a	9	[0, 0, 0]	-999	PAL1	0	R1229M
1532.415	0.0	1539539	TEST_PROBE	n/a	wordpools/wordpool_EN.txt	5	3	DEER	n/a	SNAIL	DEER	9	[0, 0, 0]	-999	PAL1	0	R1229M
1532.415	1.996	1539539	REC_START	n/a	n/a	5	-999	n/a	n/a	n/a	n/a	9	[0, 0, 0]	-999	PAL1	0	R1229M
1534.411	2.021	1541534	REC_EVENT	1996	n/a	5	3	DEER	<>	SNAIL	DEER	9	[0, 0, 0]	-999	PAL1	0	R1229M
1536.432	1.0	1543555	PROBE_OFF	n/a	n/a	5	-999	n/a	n/a	n/a	n/a	9	[0, 0, 0]	-999	PAL1	0	R1229M
1537.432	0.016	1544555	REC_END	n/a	n/a	5	-999	n/a	n/a	n/a	n/a	9	[0, 0, 0]	-999	PAL1	0	R1229M
1537.448	0.267	1544571	TEST_ORIENT	n/a	n/a	2	4	LAMB	n/a	BRIDGE	LAMB	9	[0, 0, 0]	-999	PAL1	0	R1229M
1537.715	0.75	1544838	RETRIEVAL_ORIENT_OFF	n/a	n/a	5	-999	n/a	n/a	n/a	n/a	9	[0, 0, 0]	-999	PAL1	0	R1229M
1538.465	0.0	1545588	TEST_PROBE	n/a	wordpools/wordpool_EN.txt	2	4	LAMB	n/a	BRIDGE	LAMB	9	[0, 0, 0]	-999	PAL1	0	R1229M
1538.465	0.673	1545588	REC_START	n/a	n/a	2	-999	n/a	n/a	n/a	n/a	9	[0, 0, 0]	-999	PAL1	0	R1229M
1539.138	3.344	1546261	REC_EVENT	673	n/a	2	4	LAMB	<>	BRIDGE	LAMB	9	[0, 0, 0]	-999	PAL1	0	R1229M
1542.482	1.001	1549605	PROBE_OFF	n/a	n/a	2	-999	n/a	n/a	n/a	n/a	9	[0, 0, 0]	-999	PAL1	0	R1229M
1543.483	0.016	1550606	REC_END	n/a	n/a	2	-999	n/a	n/a	n/a	n/a	9	[0, 0, 0]	-999	PAL1	0	R1229M
1543.499	0.267	1550622	TEST_ORIENT	n/a	n/a	1	5	SLEEVE	n/a	STOVE	SLEEVE	9	[0, 0, 0]	-999	PAL1	0	R1229M
1543.766	0.767	1550889	RETRIEVAL_ORIENT_OFF	n/a	n/a	2	-999	n/a	n/a	n/a	n/a	9	[0, 0, 0]	-999	PAL1	0	R1229M
1544.533	0.0	1551656	TEST_PROBE	n/a	wordpools/wordpool_EN.txt	1	5	SLEEVE	n/a	STOVE	SLEEVE	9	[0, 0, 0]	-999	PAL1	0	R1229M
1544.533	3.575	1551656	REC_START	n/a	n/a	1	-999	n/a	n/a	n/a	n/a	9	[0, 0, 0]	-999	PAL1	0	R1229M
1548.108	0.442	1555231	REC_EVENT	3575	n/a	1	5	SLEEVE	<>	STOVE	SLEEVE	9	[0, 0, 0]	-999	PAL1	0	R1229M
1548.55	1.0	1555673	PROBE_OFF	n/a	n/a	1	-999	n/a	n/a	n/a	n/a	9	[0, 0, 0]	-999	PAL1	0	R1229M
1549.55	0.017	1556673	REC_END	n/a	n/a	1	-999	n/a	n/a	n/a	n/a	9	[0, 0, 0]	-999	PAL1	0	R1229M
1549.567	0.267	1556690	TEST_ORIENT	n/a	n/a	6	6	SMILE	n/a	WEB	SMILE	9	[0, 0, 0]	-999	PAL1	0	R1229M
1549.834	0.567	1556957	RETRIEVAL_ORIENT_OFF	n/a	n/a	1	-999	n/a	n/a	n/a	n/a	9	[0, 0, 0]	-999	PAL1	0	R1229M
1550.401	0.002	1557524	TEST_PROBE	n/a	wordpools/wordpool_EN.txt	6	6	SMILE	n/a	WEB	SMILE	9	[0, 0, 0]	-999	PAL1	0	R1229M
1550.403	1.114	1557526	REC_START	n/a	n/a	6	-999	n/a	n/a	n/a	n/a	9	[0, 0, 0]	-999	PAL1	0	R1229M
1551.517	2.902	1558639	REC_EVENT	1114	n/a	6	6	SMILE	<>	WEB	SMILE	9	[0, 0, 0]	-999	PAL1	0	R1229M
1554.419	1.011	1561541	PROBE_OFF	n/a	n/a	6	-999	n/a	n/a	n/a	n/a	9	[0, 0, 0]	-999	PAL1	0	R1229M
1555.43	0.004	1562552	REC_END	n/a	n/a	6	-999	n/a	n/a	n/a	n/a	9	[0, 0, 0]	-999	PAL1	0	R1229M
1555.434	12.186	1562556	RECALL_END	n/a	n/a	-999	-999	n/a	n/a	n/a	n/a	9	[0, 0, 0]	-999	PAL1	0	R1229M
1567.62	10.929	1574741	TRIAL	n/a	n/a	-999	-999	n/a	n/a	n/a	n/a	10	[0, 0, 0]	-999	PAL1	0	R1229M
1578.549	0.007	1585670	ENCODING_START	n/a	n/a	-999	-999	n/a	n/a	n/a	n/a	10	[0, 0, 0]	-999	PAL1	0	R1229M
1578.556	0.267	1585677	STUDY_ORIENT	n/a	n/a	1	1	SPEAR	n/a	TENT	SPEAR	10	[0, 0, 0]	-999	PAL1	0	R1229M
1578.823	0.666	1585944	STUDY_ORIENT_OFF	n/a	n/a	1	1	SPEAR	n/a	TENT	SPEAR	10	[0, 0, 0]	-999	PAL1	0	R1229M
1579.489	4.018	1586610	STUDY_PAIR	n/a	wordpools/wordpool_EN.txt	1	1	SPEAR	n/a	TENT	SPEAR	10	[0, 0, 0]	-999	PAL1	0	R1229M
1583.507	1.017	1590628	PAIR_OFF	n/a	n/a	1	1	SPEAR	n/a	TENT	SPEAR	10	[0, 0, 0]	-999	PAL1	0	R1229M
1584.524	0.266	1591645	STUDY_ORIENT	n/a	n/a	2	4	BOX	NET	BOX	NET	10	[0, 0, 0]	-999	PAL1	0	R1229M
1584.79	0.585	1591910	STUDY_ORIENT_OFF	n/a	n/a	2	4	BOX	NET	BOX	NET	10	[0, 0, 0]	-999	PAL1	0	R1229M
1585.375	4.017	1592495	STUDY_PAIR	n/a	wordpools/wordpool_EN.txt	2	4	BOX	NET	BOX	NET	10	[0, 0, 0]	-999	PAL1	0	R1229M
1589.392	1.017	1596512	PAIR_OFF	n/a	n/a	2	4	BOX	NET	BOX	NET	10	[0, 0, 0]	-999	PAL1	0	R1229M
1590.409	0.266	1597529	STUDY_ORIENT	n/a	n/a	3	5	STOOL	n/a	STOOL	TRASH	10	[0, 0, 0]	-999	PAL1	0	R1229M
1590.675	0.734	1597795	STUDY_ORIENT_OFF	n/a	n/a	3	5	STOOL	n/a	STOOL	TRASH	10	[0, 0, 0]	-999	PAL1	0	R1229M
1591.409	4.018	1598529	STUDY_PAIR	n/a	wordpools/wordpool_EN.txt	3	5	STOOL	n/a	STOOL	TRASH	10	[0, 0, 0]	-999	PAL1	0	R1229M
1595.427	1.017	1602547	PAIR_OFF	n/a	n/a	3	5	STOOL	n/a	STOOL	TRASH	10	[0, 0, 0]	-999	PAL1	0	R1229M
1596.444	0.265	1603564	STUDY_ORIENT	n/a	n/a	4	6	WAVE	n/a	WAVE	SUN	10	[0, 0, 0]	-999	PAL1	0	R1229M
1596.709	0.601	1603829	STUDY_ORIENT_OFF	n/a	n/a	4	6	WAVE	n/a	WAVE	SUN	10	[0, 0, 0]	-999	PAL1	0	R1229M
1597.31	4.017	1604430	STUDY_PAIR	n/a	wordpools/wordpool_EN.txt	4	6	WAVE	n/a	WAVE	SUN	10	[0, 0, 0]	-999	PAL1	0	R1229M
1601.327	1.017	1608447	PAIR_OFF	n/a	n/a	4	6	WAVE	n/a	WAVE	SUN	10	[0, 0, 0]	-999	PAL1	0	R1229M
1602.344	0.267	1609463	STUDY_ORIENT	n/a	n/a	5	3	GLASS	n/a	GLASS	JUICE	10	[0, 0, 0]	-999	PAL1	0	R1229M
1602.611	0.533	1609730	STUDY_ORIENT_OFF	n/a	n/a	5	3	GLASS	n/a	GLASS	JUICE	10	[0, 0, 0]	-999	PAL1	0	R1229M
1603.144	4.017	1610263	STUDY_PAIR	n/a	wordpools/wordpool_EN.txt	5	3	GLASS	n/a	GLASS	JUICE	10	[0, 0, 0]	-999	PAL1	0	R1229M
1607.161	1.017	1614280	PAIR_OFF	n/a	n/a	5	3	GLASS	n/a	GLASS	JUICE	10	[0, 0, 0]	-999	PAL1	0	R1229M
1608.178	0.267	1615297	STUDY_ORIENT	n/a	n/a	6	2	HORN	n/a	FOOD	HORN	10	[0, 0, 0]	-999	PAL1	0	R1229M
1608.445	0.767	1615564	STUDY_ORIENT_OFF	n/a	n/a	6	2	HORN	n/a	FOOD	HORN	10	[0, 0, 0]	-999	PAL1	0	R1229M
1609.212	4.017	1616331	STUDY_PAIR	n/a	wordpools/wordpool_EN.txt	6	2	HORN	n/a	FOOD	HORN	10	[0, 0, 0]	-999	PAL1	0	R1229M
1613.229	1.0	1620348	PAIR_OFF	n/a	n/a	6	2	HORN	n/a	FOOD	HORN	10	[0, 0, 0]	-999	PAL1	0	R1229M
1614.229	0.0	1621348	MATH_START	n/a	n/a	-999	-999	n/a	n/a	n/a	n/a	10	[0, 0, 0]	-999	PAL1	0	R1229M
1614.229	0.0	1621348	ENCODING_END	n/a	n/a	-999	-999	n/a	n/a	n/a	n/a	10	[0, 0, 0]	-999	PAL1	0	R1229M
1614.229	0.017	1621348	START	n/a	n/a	-999	-999	n/a	n/a	n/a	n/a	10	[-999, -999, -999]	-999	PAL1	0	R1229M
1614.246	31.224	1621365	PROB	31224	n/a	-999	-999	n/a	n/a	n/a	n/a	10	[9, 5, 8]	23	PAL1	0	R1229M
1645.47	0.016	1652587	STOP	n/a	n/a	-999	-999	n/a	n/a	n/a	n/a	10	[-999, -999, -999]	-999	PAL1	0	R1229M
1645.486	0.0	1652603	MATH_END	n/a	n/a	-999	-999	n/a	n/a	n/a	n/a	10	[0, 0, 0]	-999	PAL1	0	R1229M
1645.486	0.016	1652603	RECALL_START	n/a	n/a	-999	-999	n/a	n/a	n/a	n/a	10	[0, 0, 0]	-999	PAL1	0	R1229M
1645.502	0.267	1652619	TEST_ORIENT	n/a	n/a	1	1	SPEAR	n/a	TENT	SPEAR	10	[0, 0, 0]	-999	PAL1	0	R1229M
1645.769	0.634	1652886	RETRIEVAL_ORIENT_OFF	n/a	n/a	-999	-999	n/a	n/a	n/a	n/a	10	[0, 0, 0]	-999	PAL1	0	R1229M
1646.403	0.001	1653520	TEST_PROBE	n/a	wordpools/wordpool_EN.txt	1	1	SPEAR	n/a	TENT	SPEAR	10	[0, 0, 0]	-999	PAL1	0	R1229M
1646.404	4.017	1653521	REC_START	n/a	n/a	1	-999	n/a	n/a	n/a	n/a	10	[0, 0, 0]	-999	PAL1	0	R1229M
1650.421	0.046	1657538	PROBE_OFF	n/a	n/a	1	-999	n/a	n/a	n/a	n/a	10	[0, 0, 0]	-999	PAL1	0	R1229M
1650.467	0.954	1657584	REC_EVENT	4063	n/a	1	1	SPEAR	<>	TENT	SPEAR	10	[0, 0, 0]	-999	PAL1	0	R1229M
1651.421	0.017	1658538	REC_END	n/a	n/a	1	-999	n/a	n/a	n/a	n/a	10	[0, 0, 0]	-999	PAL1	0	R1229M
1651.438	0.265	1658555	TEST_ORIENT	n/a	n/a	6	2	HORN	n/a	FOOD	HORN	10	[0, 0, 0]	-999	PAL1	0	R1229M
1651.703	0.601	1658820	RETRIEVAL_ORIENT_OFF	n/a	n/a	1	-999	n/a	n/a	n/a	n/a	10	[0, 0, 0]	-999	PAL1	0	R1229M
1652.304	0.0	1659421	TEST_PROBE	n/a	wordpools/wordpool_EN.txt	6	2	HORN	n/a	FOOD	HORN	10	[0, 0, 0]	-999	PAL1	0	R1229M
1652.304	4.017	1659421	REC_START	n/a	n/a	6	-999	n/a	n/a	n/a	n/a	10	[0, 0, 0]	-999	PAL1	0	R1229M
1656.321	0.116	1663437	PROBE_OFF	n/a	n/a	6	-999	n/a	n/a	n/a	n/a	10	[0, 0, 0]	-999	PAL1	0	R1229M
1656.437	0.895	1663553	REC_EVENT	4133	n/a	6	2	HORN	<>	FOOD	HORN	10	[0, 0, 0]	-999	PAL1	0	R1229M
1657.332	0.022	1664448	REC_END	n/a	n/a	6	-999	n/a	n/a	n/a	n/a	10	[0, 0, 0]	-999	PAL1	0	R1229M
1657.354	0.267	1664470	TEST_ORIENT	n/a	n/a	5	3	GLASS	n/a	GLASS	JUICE	10	[0, 0, 0]	-999	PAL1	0	R1229M
1657.621	0.584	1664737	RETRIEVAL_ORIENT_OFF	n/a	n/a	6	-999	n/a	n/a	n/a	n/a	10	[0, 0, 0]	-999	PAL1	0	R1229M
1658.205	0.0	1665321	REC_START	n/a	n/a	5	-999	n/a	n/a	n/a	n/a	10	[0, 0, 0]	-999	PAL1	0	R1229M
1658.205	0.766	1665321	TEST_PROBE	n/a	wordpools/wordpool_EN.txt	5	3	GLASS	n/a	GLASS	JUICE	10	[0, 0, 0]	-999	PAL1	0	R1229M
1658.971	3.251	1666087	REC_EVENT	766	n/a	5	3	GLASS	<>	GLASS	JUICE	10	[0, 0, 0]	-999	PAL1	0	R1229M
1662.222	1.0	1669338	PROBE_OFF	n/a	n/a	5	-999	n/a	n/a	n/a	n/a	10	[0, 0, 0]	-999	PAL1	0	R1229M
1663.222	0.017	1670338	REC_END	n/a	n/a	5	-999	n/a	n/a	n/a	n/a	10	[0, 0, 0]	-999	PAL1	0	R1229M
1663.239	0.267	1670355	TEST_ORIENT	n/a	n/a	2	4	BOX	NET	BOX	NET	10	[0, 0, 0]	-999	PAL1	0	R1229M
1663.506	0.733	1670622	RETRIEVAL_ORIENT_OFF	n/a	n/a	5	-999	n/a	n/a	n/a	n/a	10	[0, 0, 0]	-999	PAL1	0	R1229M
1664.239	0.001	1671355	TEST_PROBE	n/a	wordpools/wordpool_EN.txt	2	4	BOX	NET	BOX	NET	10	[0, 0, 0]	-999	PAL1	0	R1229M
1664.24	1.898	1671356	REC_START	n/a	n/a	2	-999	n/a	NET	n/a	n/a	10	[0, 0, 0]	-999	PAL1	0	R1229M
1666.138	2.119	1673254	REC_EVENT	1898	n/a	2	4	BOX	NET	BOX	NET	10	[0, 0, 0]	-999	PAL1	0	R1229M
1668.257	1.0	1675373	PROBE_OFF	n/a	n/a	2	-999	n/a	n/a	n/a	n/a	10	[0, 0, 0]	-999	PAL1	0	R1229M
1669.257	0.016	1676373	REC_END	n/a	n/a	2	-999	n/a	n/a	n/a	n/a	10	[0, 0, 0]	-999	PAL1	0	R1229M
1669.273	0.267	1676389	TEST_ORIENT	n/a	n/a	3	5	STOOL	n/a	STOOL	TRASH	10	[0, 0, 0]	-999	PAL1	0	R1229M
1669.54	0.584	1676656	RETRIEVAL_ORIENT_OFF	n/a	n/a	2	-999	n/a	n/a	n/a	n/a	10	[0, 0, 0]	-999	PAL1	0	R1229M
1670.124	0.0	1677240	TEST_PROBE	n/a	wordpools/wordpool_EN.txt	3	5	STOOL	n/a	STOOL	TRASH	10	[0, 0, 0]	-999	PAL1	0	R1229M
1670.124	2.345	1677240	REC_START	n/a	n/a	3	-999	n/a	n/a	n/a	n/a	10	[0, 0, 0]	-999	PAL1	0	R1229M
1672.469	1.672	1679584	REC_EVENT	2345	n/a	3	5	STOOL	<>	STOOL	TRASH	10	[0, 0, 0]	-999	PAL1	0	R1229M
1674.141	1.0	1681256	PROBE_OFF	n/a	n/a	3	-999	n/a	n/a	n/a	n/a	10	[0, 0, 0]	-999	PAL1	0	R1229M
1675.141	0.017	1682256	REC_END	n/a	n/a	3	-999	n/a	n/a	n/a	n/a	10	[0, 0, 0]	-999	PAL1	0	R1229M
1675.158	0.268	1682273	TEST_ORIENT	n/a	n/a	4	6	WAVE	n/a	WAVE	SUN	10	[0, 0, 0]	-999	PAL1	0	R1229M
1675.426	0.649	1682541	RETRIEVAL_ORIENT_OFF	n/a	n/a	3	-999	n/a	n/a	n/a	n/a	10	[0, 0, 0]	-999	PAL1	0	R1229M
1676.075	0.0	1683190	TEST_PROBE	n/a	wordpools/wordpool_EN.txt	4	6	WAVE	n/a	WAVE	SUN	10	[0, 0, 0]	-999	PAL1	0	R1229M
1676.075	2.298	1683190	REC_START	n/a	n/a	4	-999	n/a	n/a	n/a	n/a	10	[0, 0, 0]	-999	PAL1	0	R1229M
1678.373	1.719	1685488	REC_EVENT	2298	n/a	4	6	WAVE	<>	WAVE	SUN	10	[0, 0, 0]	-999	PAL1	0	R1229M
1680.092	1.0	1687207	PROBE_OFF	n/a	n/a	4	-999	n/a	n/a	n/a	n/a	10	[0, 0, 0]	-999	PAL1	0	R1229M
1681.092	0.005	1688207	REC_END	n/a	n/a	4	-999	n/a	n/a	n/a	n/a	10	[0, 0, 0]	-999	PAL1	0	R1229M
1681.097	23.0	1688212	RECALL_END	n/a	n/a	-999	-999	n/a	n/a	n/a	n/a	10	[0, 0, 0]	-999	PAL1	0	R1229M
1704.097	10.928	1711211	TRIAL	n/a	n/a	-999	-999	n/a	n/a	n/a	n/a	11	[0, 0, 0]	-999	PAL1	0	R1229M
1715.025	0.007	1722138	ENCODING_START	n/a	n/a	-999	-999	n/a	n/a	n/a	n/a	11	[0, 0, 0]	-999	PAL1	0	R1229M
1715.032	0.267	1722145	STUDY_ORIENT	n/a	n/a	1	1	BEE	ROSE	BEE	ROSE	11	[0, 0, 0]	-999	PAL1	0	R1229M
1715.299	0.533	1722412	STUDY_ORIENT_OFF	n/a	n/a	1	1	BEE	ROSE	BEE	ROSE	11	[0, 0, 0]	-999	PAL1	0	R1229M
1715.832	4.018	1722945	STUDY_PAIR	n/a	wordpools/wordpool_EN.txt	1	1	BEE	ROSE	BEE	ROSE	11	[0, 0, 0]	-999	PAL1	0	R1229M
1719.85	1.017	1726963	PAIR_OFF	n/a	n/a	1	1	BEE	ROSE	BEE	ROSE	11	[0, 0, 0]	-999	PAL1	0	R1229M
1720.867	0.267	1727980	STUDY_ORIENT	n/a	n/a	2	4	TRUCK	HOLE	TRUCK	HOLE	11	[0, 0, 0]	-999	PAL1	0	R1229M
1721.134	0.633	1728247	STUDY_ORIENT_OFF	n/a	n/a	2	4	TRUCK	HOLE	TRUCK	HOLE	11	[0, 0, 0]	-999	PAL1	0	R1229M
1721.767	4.017	1728880	STUDY_PAIR	n/a	wordpools/wordpool_EN.txt	2	4	TRUCK	HOLE	TRUCK	HOLE	11	[0, 0, 0]	-999	PAL1	0	R1229M
1725.784	1.017	1732896	PAIR_OFF	n/a	n/a	2	4	TRUCK	HOLE	TRUCK	HOLE	11	[0, 0, 0]	-999	PAL1	0	R1229M
1726.801	0.267	1733913	STUDY_ORIENT	n/a	n/a	3	5	ICE	n/a	OAK	ICE	11	[0, 0, 0]	-999	PAL1	0	R1229M
1727.068	0.75	1734180	STUDY_ORIENT_OFF	n/a	n/a	3	5	ICE	n/a	OAK	ICE	11	[0, 0, 0]	-999	PAL1	0	R1229M
1727.818	4.001	1734930	STUDY_PAIR	n/a	wordpools/wordpool_EN.txt	3	5	ICE	n/a	OAK	ICE	11	[0, 0, 0]	-999	PAL1	0	R1229M
1731.819	1.017	1738931	PAIR_OFF	n/a	n/a	3	5	ICE	n/a	OAK	ICE	11	[0, 0, 0]	-999	PAL1	0	R1229M
1732.836	0.267	1739948	STUDY_ORIENT	n/a	n/a	4	6	SOAP	n/a	CHIEF	SOAP	11	[0, 0, 0]	-999	PAL1	0	R1229M
1733.103	0.516	1740215	STUDY_ORIENT_OFF	n/a	n/a	4	6	SOAP	n/a	CHIEF	SOAP	11	[0, 0, 0]	-999	PAL1	0	R1229M
1733.619	4.018	1740731	STUDY_PAIR	n/a	wordpools/wordpool_EN.txt	4	6	SOAP	n/a	CHIEF	SOAP	11	[0, 0, 0]	-999	PAL1	0	R1229M
1737.637	1.017	1744749	PAIR_OFF	n/a	n/a	4	6	SOAP	n/a	CHIEF	SOAP	11	[0, 0, 0]	-999	PAL1	0	R1229M
1738.654	0.266	1745766	STUDY_ORIENT	n/a	n/a	5	3	LAKE	n/a	SEA	LAKE	11	[0, 0, 0]	-999	PAL1	0	R1229M
1738.92	0.734	1746032	STUDY_ORIENT_OFF	n/a	n/a	5	3	LAKE	n/a	SEA	LAKE	11	[0, 0, 0]	-999	PAL1	0	R1229M
1739.654	4.017	1746765	STUDY_PAIR	n/a	wordpools/wordpool_EN.txt	5	3	LAKE	n/a	SEA	LAKE	11	[0, 0, 0]	-999	PAL1	0	R1229M
1743.671	1.017	1750782	PAIR_OFF	n/a	n/a	5	3	LAKE	n/a	SEA	LAKE	11	[0, 0, 0]	-999	PAL1	0	R1229M
1744.688	0.267	1751799	STUDY_ORIENT	n/a	n/a	6	2	OAR	n/a	OAR	FORK	11	[0, 0, 0]	-999	PAL1	0	R1229M
1744.955	0.6	1752066	STUDY_ORIENT_OFF	n/a	n/a	6	2	OAR	n/a	OAR	FORK	11	[0, 0, 0]	-999	PAL1	0	R1229M
1745.555	4.017	1752666	STUDY_PAIR	n/a	wordpools/wordpool_EN.txt	6	2	OAR	n/a	OAR	FORK	11	[0, 0, 0]	-999	PAL1	0	R1229M
1749.572	1.0	1756683	PAIR_OFF	n/a	n/a	6	2	OAR	n/a	OAR	FORK	11	[0, 0, 0]	-999	PAL1	0	R1229M
1750.572	0.0	1757683	ENCODING_END	n/a	n/a	-999	-999	n/a	n/a	n/a	n/a	11	[0, 0, 0]	-999	PAL1	0	R1229M
1750.572	0.001	1757683	MATH_START	n/a	n/a	-999	-999	n/a	n/a	n/a	n/a	11	[0, 0, 0]	-999	PAL1	0	R1229M
1750.573	0.016	1757684	START	n/a	n/a	-999	-999	n/a	n/a	n/a	n/a	11	[-999, -999, -999]	-999	PAL1	0	R1229M
1750.589	9.035	1757700	PROB	9002	n/a	-999	-999	n/a	n/a	n/a	n/a	11	[2, 9, 8]	19	PAL1	0	R1229M
1759.624	6.235	1766734	PROB	6198	n/a	-999	-999	n/a	n/a	n/a	n/a	11	[3, 8, 5]	16	PAL1	0	R1229M
1765.859	17.604	1772969	PROB	17604	n/a	-999	-999	n/a	n/a	n/a	n/a	11	[7, 9, 7]	23	PAL1	0	R1229M
1783.463	0.016	1790572	STOP	n/a	n/a	-999	-999	n/a	n/a	n/a	n/a	11	[-999, -999, -999]	-999	PAL1	0	R1229M
1783.479	0.0	1790588	MATH_END	n/a	n/a	-999	-999	n/a	n/a	n/a	n/a	11	[0, 0, 0]	-999	PAL1	0	R1229M
1783.479	0.017	1790588	RECALL_START	n/a	n/a	-999	-999	n/a	n/a	n/a	n/a	11	[0, 0, 0]	-999	PAL1	0	R1229M
1783.496	0.266	1790605	TEST_ORIENT	n/a	n/a	1	1	BEE	ROSE	BEE	ROSE	11	[0, 0, 0]	-999	PAL1	0	R1229M
1783.762	0.734	1790871	RETRIEVAL_ORIENT_OFF	n/a	n/a	-999	-999	n/a	n/a	n/a	n/a	11	[0, 0, 0]	-999	PAL1	0	R1229M
1784.496	0.004	1791605	TEST_PROBE	n/a	wordpools/wordpool_EN.txt	1	1	BEE	ROSE	BEE	ROSE	11	[0, 0, 0]	-999	PAL1	0	R1229M
1784.5	2.099	1791609	REC_START	n/a	n/a	1	-999	n/a	ROSE	n/a	n/a	11	[0, 0, 0]	-999	PAL1	0	R1229M
1786.599	1.914	1793708	REC_EVENT	2099	n/a	1	1	BEE	ROSE	BEE	ROSE	11	[0, 0, 0]	-999	PAL1	0	R1229M
1788.513	1.0	1795622	PROBE_OFF	n/a	n/a	1	-999	n/a	n/a	n/a	n/a	11	[0, 0, 0]	-999	PAL1	0	R1229M
1789.513	0.017	1796622	REC_END	n/a	n/a	1	-999	n/a	n/a	n/a	n/a	11	[0, 0, 0]	-999	PAL1	0	R1229M
1789.53	0.267	1796639	TEST_ORIENT	n/a	n/a	6	2	OAR	n/a	OAR	FORK	11	[0, 0, 0]	-999	PAL1	0	R1229M
1789.797	0.55	1796906	RETRIEVAL_ORIENT_OFF	n/a	n/a	1	-999	n/a	n/a	n/a	n/a	11	[0, 0, 0]	-999	PAL1	0	R1229M
1790.347	0.001	1797456	TEST_PROBE	n/a	wordpools/wordpool_EN.txt	6	2	OAR	n/a	OAR	FORK	11	[0, 0, 0]	-999	PAL1	0	R1229M
1790.348	1.95	1797457	REC_START	n/a	n/a	6	-999	n/a	n/a	n/a	n/a	11	[0, 0, 0]	-999	PAL1	0	R1229M
1792.298	2.066	1799406	REC_EVENT	1950	n/a	6	2	OAR	<>	OAR	FORK	11	[0, 0, 0]	-999	PAL1	0	R1229M
1794.364	1.0	1801472	PROBE_OFF	n/a	n/a	6	-999	n/a	n/a	n/a	n/a	11	[0, 0, 0]	-999	PAL1	0	R1229M
1795.364	0.018	1802472	REC_END	n/a	n/a	6	-999	n/a	n/a	n/a	n/a	11	[0, 0, 0]	-999	PAL1	0	R1229M
1795.382	0.266	1802490	TEST_ORIENT	n/a	n/a	5	3	LAKE	n/a	SEA	LAKE	11	[0, 0, 0]	-999	PAL1	0	R1229M
1795.648	0.683	1802756	RETRIEVAL_ORIENT_OFF	n/a	n/a	6	-999	n/a	n/a	n/a	n/a	11	[0, 0, 0]	-999	PAL1	0	R1229M
1796.331	0.001	1803439	TEST_PROBE	n/a	wordpools/wordpool_EN.txt	5	3	LAKE	n/a	SEA	LAKE	11	[0, 0, 0]	-999	PAL1	0	R1229M
1796.332	1.787	1803440	REC_START	n/a	n/a	5	-999	n/a	n/a	n/a	n/a	11	[0, 0, 0]	-999	PAL1	0	R1229M
1798.119	2.23	1805227	REC_EVENT	1787	n/a	5	3	LAKE	<>	SEA	LAKE	11	[0, 0, 0]	-999	PAL1	0	R1229M
1800.349	1.0	1807457	PROBE_OFF	n/a	n/a	5	-999	n/a	n/a	n/a	n/a	11	[0, 0, 0]	-999	PAL1	0	R1229M
1801.349	0.017	1808457	REC_END	n/a	n/a	5	-999	n/a	n/a	n/a	n/a	11	[0, 0, 0]	-999	PAL1	0	R1229M
1801.366	0.267	1808474	TEST_ORIENT	n/a	n/a	2	4	TRUCK	HOLE	TRUCK	HOLE	11	[0, 0, 0]	-999	PAL1	0	R1229M
1801.633	0.533	1808741	RETRIEVAL_ORIENT_OFF	n/a	n/a	5	-999	n/a	n/a	n/a	n/a	11	[0, 0, 0]	-999	PAL1	0	R1229M
1802.166	0.001	1809274	TEST_PROBE	n/a	wordpools/wordpool_EN.txt	2	4	TRUCK	HOLE	TRUCK	HOLE	11	[0, 0, 0]	-999	PAL1	0	R1229M
1802.167	1.172	1809275	REC_START	n/a	n/a	2	-999	n/a	HOLE	n/a	n/a	11	[0, 0, 0]	-999	PAL1	0	R1229M
1803.339	2.844	1810447	REC_EVENT	1172	n/a	2	4	TRUCK	HOLE	TRUCK	HOLE	11	[0, 0, 0]	-999	PAL1	0	R1229M
1806.183	1.0	1813291	PROBE_OFF	n/a	n/a	2	-999	n/a	n/a	n/a	n/a	11	[0, 0, 0]	-999	PAL1	0	R1229M
1807.183	0.017	1814291	REC_END	n/a	n/a	2	-999	n/a	n/a	n/a	n/a	11	[0, 0, 0]	-999	PAL1	0	R1229M
1807.2	0.267	1814308	TEST_ORIENT	n/a	n/a	3	5	ICE	n/a	OAK	ICE	11	[0, 0, 0]	-999	PAL1	0	R1229M
1807.467	0.567	1814575	RETRIEVAL_ORIENT_OFF	n/a	n/a	2	-999	n/a	n/a	n/a	n/a	11	[0, 0, 0]	-999	PAL1	0	R1229M
1808.034	0.0	1815141	TEST_PROBE	n/a	wordpools/wordpool_EN.txt	3	5	ICE	n/a	OAK	ICE	11	[0, 0, 0]	-999	PAL1	0	R1229M
1808.034	3.018	1815141	REC_START	n/a	n/a	3	-999	n/a	n/a	n/a	n/a	11	[0, 0, 0]	-999	PAL1	0	R1229M
1811.052	0.999	1818159	REC_EVENT	3018	n/a	3	5	ICE	<>	OAK	ICE	11	[0, 0, 0]	-999	PAL1	0	R1229M
1812.051	1.0	1819158	PROBE_OFF	n/a	n/a	3	-999	n/a	n/a	n/a	n/a	11	[0, 0, 0]	-999	PAL1	0	R1229M
1813.051	0.017	1820158	REC_END	n/a	n/a	3	-999	n/a	n/a	n/a	n/a	11	[0, 0, 0]	-999	PAL1	0	R1229M
1813.068	0.267	1820175	TEST_ORIENT	n/a	n/a	4	6	SOAP	n/a	CHIEF	SOAP	11	[0, 0, 0]	-999	PAL1	0	R1229M
1813.335	0.65	1820442	RETRIEVAL_ORIENT_OFF	n/a	n/a	3	-999	n/a	n/a	n/a	n/a	11	[0, 0, 0]	-999	PAL1	0	R1229M
1813.985	0.0	1821092	TEST_PROBE	n/a	wordpools/wordpool_EN.txt	4	6	SOAP	n/a	CHIEF	SOAP	11	[0, 0, 0]	-999	PAL1	0	R1229M
1813.985	1.439	1821092	REC_START	n/a	n/a	4	-999	n/a	n/a	n/a	n/a	11	[0, 0, 0]	-999	PAL1	0	R1229M
1815.424	2.578	1822531	REC_EVENT	1439	n/a	4	6	SOAP	<>	CHIEF	SOAP	11	[0, 0, 0]	-999	PAL1	0	R1229M
1818.002	1.0	1825109	PROBE_OFF	n/a	n/a	4	-999	n/a	n/a	n/a	n/a	11	[0, 0, 0]	-999	PAL1	0	R1229M
1819.002	0.005	1826109	REC_END	n/a	n/a	4	-999	n/a	n/a	n/a	n/a	11	[0, 0, 0]	-999	PAL1	0	R1229M
1819.007	8.881	1826114	RECALL_END	n/a	n/a	-999	-999	n/a	n/a	n/a	n/a	11	[0, 0, 0]	-999	PAL1	0	R1229M
1827.888	10.928	1834994	TRIAL	n/a	n/a	-999	-999	n/a	n/a	n/a	n/a	12	[0, 0, 0]	-999	PAL1	0	R1229M
1838.816	0.007	1845922	ENCODING_START	n/a	n/a	-999	-999	n/a	n/a	n/a	n/a	12	[0, 0, 0]	-999	PAL1	0	R1229M
1838.823	0.267	1845929	STUDY_ORIENT	n/a	n/a	1	1	KEY	n/a	KEY	SHRIMP	12	[0, 0, 0]	-999	PAL1	0	R1229M
1839.09	0.567	1846196	STUDY_ORIENT_OFF	n/a	n/a	1	1	KEY	n/a	KEY	SHRIMP	12	[0, 0, 0]	-999	PAL1	0	R1229M
1839.657	4.017	1846763	STUDY_PAIR	n/a	wordpools/wordpool_EN.txt	1	1	KEY	n/a	KEY	SHRIMP	12	[0, 0, 0]	-999	PAL1	0	R1229M
1843.674	1.017	1850779	PAIR_OFF	n/a	n/a	1	1	KEY	n/a	KEY	SHRIMP	12	[0, 0, 0]	-999	PAL1	0	R1229M
1844.691	0.266	1851796	STUDY_ORIENT	n/a	n/a	2	2	SKUNK	n/a	SKUNK	SPOON	12	[0, 0, 0]	-999	PAL1	0	R1229M
1844.957	0.567	1852062	STUDY_ORIENT_OFF	n/a	n/a	2	2	SKUNK	n/a	SKUNK	SPOON	12	[0, 0, 0]	-999	PAL1	0	R1229M
1845.524	4.001	1852629	STUDY_PAIR	n/a	wordpools/wordpool_EN.txt	2	2	SKUNK	n/a	SKUNK	SPOON	12	[0, 0, 0]	-999	PAL1	0	R1229M
1849.525	1.017	1856630	PAIR_OFF	n/a	n/a	2	2	SKUNK	n/a	SKUNK	SPOON	12	[0, 0, 0]	-999	PAL1	0	R1229M
1850.542	0.267	1857647	STUDY_ORIENT	n/a	n/a	3	5	JAIL	n/a	JAIL	CAR	12	[0, 0, 0]	-999	PAL1	0	R1229M
1850.809	0.516	1857914	STUDY_ORIENT_OFF	n/a	n/a	3	5	JAIL	n/a	JAIL	CAR	12	[0, 0, 0]	-999	PAL1	0	R1229M
1851.325	4.001	1858430	STUDY_PAIR	n/a	wordpools/wordpool_EN.txt	3	5	JAIL	n/a	JAIL	CAR	12	[0, 0, 0]	-999	PAL1	0	R1229M
1855.326	1.017	1862431	PAIR_OFF	n/a	n/a	3	5	JAIL	n/a	JAIL	CAR	12	[0, 0, 0]	-999	PAL1	0	R1229M
1856.343	0.267	1863448	STUDY_ORIENT	n/a	n/a	4	6	WOLF	n/a	SEAL	WOLF	12	[0, 0, 0]	-999	PAL1	0	R1229M
1856.61	0.633	1863715	STUDY_ORIENT_OFF	n/a	n/a	4	6	WOLF	n/a	SEAL	WOLF	12	[0, 0, 0]	-999	PAL1	0	R1229M
1857.243	4.018	1864348	STUDY_PAIR	n/a	wordpools/wordpool_EN.txt	4	6	WOLF	n/a	SEAL	WOLF	12	[0, 0, 0]	-999	PAL1	0	R1229M
1861.261	1.017	1868365	PAIR_OFF	n/a	n/a	4	6	WOLF	n/a	SEAL	WOLF	12	[0, 0, 0]	-999	PAL1	0	R1229M
1862.278	0.266	1869382	STUDY_ORIENT	n/a	n/a	5	3	PURSE	n/a	PURSE	PARK	12	[0, 0, 0]	-999	PAL1	0	R1229M
1862.544	0.684	1869648	STUDY_ORIENT_OFF	n/a	n/a	5	3	PURSE	n/a	PURSE	PARK	12	[0, 0, 0]	-999	PAL1	0	R1229M
1863.228	4.017	1870332	STUDY_PAIR	n/a	wordpools/wordpool_EN.txt	5	3	PURSE	n/a	PURSE	PARK	12	[0, 0, 0]	-999	PAL1	0	R1229M
1867.245	1.017	1874349	PAIR_OFF	n/a	n/a	5	3	PURSE	n/a	PURSE	PARK	12	[0, 0, 0]	-999	PAL1	0	R1229M
1868.262	0.267	1875366	STUDY_ORIENT	n/a	n/a	6	4	PLATE	n/a	PLATE	JEEP	12	[0, 0, 0]	-999	PAL1	0	R1229M
1868.529	0.6	1875633	STUDY_ORIENT_OFF	n/a	n/a	6	4	PLATE	n/a	PLATE	JEEP	12	[0, 0, 0]	-999	PAL1	0	R1229M
1869.129	4.017	1876233	STUDY_PAIR	n/a	wordpools/wordpool_EN.txt	6	4	PLATE	n/a	PLATE	JEEP	12	[0, 0, 0]	-999	PAL1	0	R1229M
1873.146	1.0	1880250	PAIR_OFF	n/a	n/a	6	4	PLATE	n/a	PLATE	JEEP	12	[0, 0, 0]	-999	PAL1	0	R1229M
1874.146	0.0	1881250	ENCODING_END	n/a	n/a	-999	-999	n/a	n/a	n/a	n/a	12	[0, 0, 0]	-999	PAL1	0	R1229M
1874.146	0.0	1881250	MATH_START	n/a	n/a	-999	-999	n/a	n/a	n/a	n/a	12	[0, 0, 0]	-999	PAL1	0	R1229M
1874.146	0.017	1881250	START	n/a	n/a	-999	-999	n/a	n/a	n/a	n/a	12	[-999, -999, -999]	-999	PAL1	0	R1229M
1874.163	9.719	1881267	PROB	9692	n/a	-999	-999	n/a	n/a	n/a	n/a	12	[4, 2, 9]	15	PAL1	0	R1229M
1883.882	4.034	1890985	PROB	3996	n/a	-999	-999	n/a	n/a	n/a	n/a	12	[1, 5, 5]	11	PAL1	0	R1229M
1887.916	3.884	1895019	PROB	3850	n/a	-999	-999	n/a	n/a	n/a	n/a	12	[3, 1, 2]	6	PAL1	0	R1229M
1891.8	6.511	1898903	PROB	6511	n/a	-999	-999	n/a	n/a	n/a	n/a	12	[4, 2, 5]	11	PAL1	0	R1229M
1898.311	0.007	1905413	STOP	n/a	n/a	-999	-999	n/a	n/a	n/a	n/a	12	[-999, -999, -999]	-999	PAL1	0	R1229M
1898.318	0.0	1905420	MATH_END	n/a	n/a	-999	-999	n/a	n/a	n/a	n/a	12	[0, 0, 0]	-999	PAL1	0	R1229M
1898.318	0.017	1905420	RECALL_START	n/a	n/a	-999	-999	n/a	n/a	n/a	n/a	12	[0, 0, 0]	-999	PAL1	0	R1229M
1898.335	0.266	1905437	TEST_ORIENT	n/a	n/a	1	1	KEY	n/a	KEY	SHRIMP	12	[0, 0, 0]	-999	PAL1	0	R1229M
1898.601	0.65	1905703	RETRIEVAL_ORIENT_OFF	n/a	n/a	-999	-999	n/a	n/a	n/a	n/a	12	[0, 0, 0]	-999	PAL1	0	R1229M
1899.251	0.001	1906353	TEST_PROBE	n/a	wordpools/wordpool_EN.txt	1	1	KEY	n/a	KEY	SHRIMP	12	[0, 0, 0]	-999	PAL1	0	R1229M
1899.252	1.602	1906354	REC_START	n/a	n/a	1	-999	n/a	n/a	n/a	n/a	12	[0, 0, 0]	-999	PAL1	0	R1229M
1900.854	2.415	1907956	REC_EVENT	1602	n/a	1	1	KEY	<>	KEY	SHRIMP	12	[0, 0, 0]	-999	PAL1	0	R1229M
1903.269	1.013	1910371	PROBE_OFF	n/a	n/a	1	-999	n/a	n/a	n/a	n/a	12	[0, 0, 0]	-999	PAL1	0	R1229M
1904.282	0.02	1911384	REC_END	n/a	n/a	1	-999	n/a	n/a	n/a	n/a	12	[0, 0, 0]	-999	PAL1	0	R1229M
1904.302	0.267	1911404	TEST_ORIENT	n/a	n/a	2	2	SKUNK	n/a	SKUNK	SPOON	12	[0, 0, 0]	-999	PAL1	0	R1229M
1904.569	0.517	1911671	RETRIEVAL_ORIENT_OFF	n/a	n/a	1	-999	n/a	n/a	n/a	n/a	12	[0, 0, 0]	-999	PAL1	0	R1229M
1905.086	0.001	1912188	TEST_PROBE	n/a	wordpools/wordpool_EN.txt	2	2	SKUNK	n/a	SKUNK	SPOON	12	[0, 0, 0]	-999	PAL1	0	R1229M
1905.087	0.51	1912189	REC_START	n/a	n/a	2	-999	n/a	n/a	n/a	n/a	12	[0, 0, 0]	-999	PAL1	0	R1229M
1905.597	3.506	1912699	REC_EVENT	510	n/a	2	2	SKUNK	<>	SKUNK	SPOON	12	[0, 0, 0]	-999	PAL1	0	R1229M
1909.103	1.0	1916205	PROBE_OFF	n/a	n/a	2	-999	n/a	n/a	n/a	n/a	12	[0, 0, 0]	-999	PAL1	0	R1229M
1910.103	0.017	1917205	REC_END	n/a	n/a	2	-999	n/a	n/a	n/a	n/a	12	[0, 0, 0]	-999	PAL1	0	R1229M
1910.12	0.268	1917222	TEST_ORIENT	n/a	n/a	5	3	PURSE	n/a	PURSE	PARK	12	[0, 0, 0]	-999	PAL1	0	R1229M
1910.388	0.566	1917489	RETRIEVAL_ORIENT_OFF	n/a	n/a	2	-999	n/a	n/a	n/a	n/a	12	[0, 0, 0]	-999	PAL1	0	R1229M
1910.954	0.0	1918055	TEST_PROBE	n/a	wordpools/wordpool_EN.txt	5	3	PURSE	n/a	PURSE	PARK	12	[0, 0, 0]	-999	PAL1	0	R1229M
1910.954	0.441	1918055	REC_START	n/a	n/a	5	-999	n/a	n/a	n/a	n/a	12	[0, 0, 0]	-999	PAL1	0	R1229M
1911.395	3.576	1918496	REC_EVENT	441	n/a	5	3	PURSE	<>	PURSE	PARK	12	[0, 0, 0]	-999	PAL1	0	R1229M
1914.971	1.001	1922072	PROBE_OFF	n/a	n/a	5	-999	n/a	n/a	n/a	n/a	12	[0, 0, 0]	-999	PAL1	0	R1229M
1915.972	0.016	1923073	REC_END	n/a	n/a	5	-999	n/a	n/a	n/a	n/a	12	[0, 0, 0]	-999	PAL1	0	R1229M
