onset	duration	sample	trial_type	response_time	stim_file	serialpos	probepos	probe_word	resp_word	study_1	study_2	list	test	answer	experiment	session	subject
0.0	75.069	15444	SESS_START	n/a	n/a	-999	-999	n/a	n/a	n/a	n/a	-999	[0, 0, 0]	-999	PAL1	2	R1212P
75.069	1.017	92311	START	n/a	n/a	-999	-999	n/a	n/a	n/a	n/a	-1	[-999, -999, -999]	-999	PAL1	2	R1212P
76.086	4.618	93353	PROB	4597.0	n/a	-999	-999	n/a	n/a	n/a	n/a	-1	[8, 3, 8]	19	PAL1	2	R1212P
80.704	2.767	98081	PROB	2740.0	n/a	-999	-999	n/a	n/a	n/a	n/a	-1	[5, 4, 2]	11	PAL1	2	R1212P
83.471	1.817	100914	PROB	1796.0	n/a	-999	-999	n/a	n/a	n/a	n/a	-1	[1, 6, 4]	11	PAL1	2	R1212P
85.288	2.817	102775	PROB	2787.0	n/a	-999	-999	n/a	n/a	n/a	n/a	-1	[5, 8, 9]	23	PAL1	2	R1212P
88.105	5.651	105659	PROB	5618.0	n/a	-999	-999	n/a	n/a	n/a	n/a	-1	[6, 7, 6]	19	PAL1	2	R1212P
93.756	2.471	111446	PROB	2471.0	n/a	-999	-999	n/a	n/a	n/a	n/a	-1	[8, 8, 5]	21	PAL1	2	R1212P
96.227	39.808	113976	STOP	n/a	n/a	-999	-999	n/a	n/a	n/a	n/a	-1	[-999, -999, -999]	-999	PAL1	2	R1212P
136.035	10.448	154738	ENCODING_START	n/a	n/a	0	-999	n/a	n/a	n/a	n/a	1	[0, 0, 0]	-999	PAL1	2	R1212P
146.483	0.275	165436	STUDY_ORIENT	n/a	n/a	1	3	SCHOOL	GLASS	GLASS	SCHOOL	1	[0, 0, 0]	-999	PAL1	2	R1212P
147.451	4.0	166427	STUDY_PAIR	n/a	wordpools/wordpool_EN.txt	1	3	SCHOOL	GLASS	GLASS	SCHOOL	1	[0, 0, 0]	-999	PAL1	2	R1212P
152.484	0.275	171581	STUDY_ORIENT	n/a	n/a	2	4	FLUTE	STREET	FLUTE	STREET	1	[0, 0, 0]	-999	PAL1	2	R1212P
153.402	4.0	172520	STUDY_PAIR	n/a	wordpools/wordpool_EN.txt	2	4	FLUTE	STREET	FLUTE	STREET	1	[0, 0, 0]	-999	PAL1	2	R1212P
158.436	0.275	177675	STUDY_ORIENT	n/a	n/a	3	5	LAWN	STRAW	LAWN	STRAW	1	[0, 0, 0]	-999	PAL1	2	R1212P
159.285	4.0	178544	STUDY_PAIR	n/a	wordpools/wordpool_EN.txt	3	5	LAWN	STRAW	LAWN	STRAW	1	[0, 0, 0]	-999	PAL1	2	R1212P
164.303	0.275	183683	STUDY_ORIENT	n/a	n/a	4	6	PURSE	ARM	ARM	PURSE	1	[0, 0, 0]	-999	PAL1	2	R1212P
165.186	4.0	184587	STUDY_PAIR	n/a	wordpools/wordpool_EN.txt	4	6	PURSE	ARM	ARM	PURSE	1	[0, 0, 0]	-999	PAL1	2	R1212P
170.204	0.275	189725	STUDY_ORIENT	n/a	n/a	5	1	JAR	WORLD	JAR	WORLD	1	[0, 0, 0]	-999	PAL1	2	R1212P
171.021	4.0	190562	STUDY_PAIR	n/a	wordpools/wordpool_EN.txt	5	1	JAR	WORLD	JAR	WORLD	1	[0, 0, 0]	-999	PAL1	2	R1212P
176.055	0.275	195716	STUDY_ORIENT	n/a	n/a	6	2	ANT	n/a	STORE	ANT	1	[0, 0, 0]	-999	PAL1	2	R1212P
176.989	4.0	196672	STUDY_PAIR	n/a	wordpools/wordpool_EN.txt	6	2	ANT	n/a	STORE	ANT	1	[0, 0, 0]	-999	PAL1	2	R1212P
181.007	0.999	200787	START	n/a	n/a	-999	-999	n/a	n/a	n/a	n/a	1	[-999, -999, -999]	-999	PAL1	2	R1212P
182.006	0.017	201810	MATH_START	n/a	n/a	-999	-999	n/a	n/a	n/a	n/a	1	[0, 0, 0]	-999	PAL1	2	R1212P
182.023	4.718	201827	PROB	4684.0	n/a	-999	-999	n/a	n/a	n/a	n/a	1	[6, 3, 8]	17	PAL1	2	R1212P
186.741	2.55	206658	PROB	2526.0	n/a	-999	-999	n/a	n/a	n/a	n/a	1	[9, 2, 8]	19	PAL1	2	R1212P
189.291	10.502	209269	PROB	10480.0	n/a	-999	-999	n/a	n/a	n/a	n/a	1	[5, 8, 1]	14	PAL1	2	R1212P
199.793	3.114	220023	PROB	3114.0	n/a	-999	-999	n/a	n/a	n/a	n/a	1	[4, 2, 8]	14	PAL1	2	R1212P
202.907	0.003	223211	STOP	n/a	n/a	-999	-999	n/a	n/a	n/a	n/a	1	[-999, -999, -999]	-999	PAL1	2	R1212P
202.91	0.0	223214	MATH_END	n/a	n/a	-999	-999	n/a	n/a	n/a	n/a	1	[0, 0, 0]	-999	PAL1	2	R1212P
202.91	0.017	223214	TEST_START	n/a	n/a	-999	-999	n/a	n/a	n/a	n/a	1	[0, 0, 0]	-999	PAL1	2	R1212P
202.927	0.275	223232	TEST_ORIENT	n/a	n/a	5	1	JAR	WORLD	JAR	WORLD	1	[0, 0, 0]	-999	PAL1	2	R1212P
203.827	4.0	224153	TEST_PROBE	n/a	wordpools/wordpool_EN.txt	5	1	JAR	WORLD	JAR	WORLD	1	[0, 0, 0]	-999	PAL1	2	R1212P
203.829	2.518	224155	REC_START	n/a	n/a	5	-999	n/a	WORLD	n/a	n/a	1	[0, 0, 0]	-999	PAL1	2	R1212P
206.347	2.481	226734	REC_EVENT	2518.0	n/a	5	1	JAR	WORLD	JAR	WORLD	1	[0, 0, 0]	-999	PAL1	2	R1212P
208.828	0.017	229274	REC_END	n/a	n/a	5	-999	n/a	n/a	n/a	n/a	1	[0, 0, 0]	-999	PAL1	2	R1212P
208.845	0.275	229292	TEST_ORIENT	n/a	n/a	6	2	ANT	n/a	STORE	ANT	1	[0, 0, 0]	-999	PAL1	2	R1212P
209.762	4.0	230230	TEST_PROBE	n/a	wordpools/wordpool_EN.txt	6	2	ANT	n/a	STORE	ANT	1	[0, 0, 0]	-999	PAL1	2	R1212P
209.762	2.98	230230	REC_START	n/a	n/a	6	-999	n/a	n/a	n/a	n/a	1	[0, 0, 0]	-999	PAL1	2	R1212P
212.742	2.037	233282	REC_EVENT	2980.0	n/a	6	2	ANT	<>	STORE	ANT	1	[0, 0, 0]	-999	PAL1	2	R1212P
214.779	0.017	235368	REC_END	n/a	n/a	6	-999	n/a	n/a	n/a	n/a	1	[0, 0, 0]	-999	PAL1	2	R1212P
214.796	0.275	235385	TEST_ORIENT	n/a	n/a	1	3	SCHOOL	GLASS	GLASS	SCHOOL	1	[0, 0, 0]	-999	PAL1	2	R1212P
215.729	4.0	236340	TEST_PROBE	n/a	wordpools/wordpool_EN.txt	1	3	SCHOOL	GLASS	GLASS	SCHOOL	1	[0, 0, 0]	-999	PAL1	2	R1212P
215.73	1.276	236341	REC_START	n/a	n/a	1	-999	n/a	GLASS	n/a	n/a	1	[0, 0, 0]	-999	PAL1	2	R1212P
217.006	3.732	237648	REC_EVENT	1276.0	n/a	1	3	SCHOOL	GLASS	GLASS	SCHOOL	1	[0, 0, 0]	-999	PAL1	2	R1212P
220.738	0.009	241469	REC_END	n/a	n/a	1	-999	n/a	n/a	n/a	n/a	1	[0, 0, 0]	-999	PAL1	2	R1212P
220.747	0.275	241479	TEST_ORIENT	n/a	n/a	2	4	FLUTE	STREET	FLUTE	STREET	1	[0, 0, 0]	-999	PAL1	2	R1212P
221.747	4.0	242503	TEST_PROBE	n/a	wordpools/wordpool_EN.txt	2	4	FLUTE	STREET	FLUTE	STREET	1	[0, 0, 0]	-999	PAL1	2	R1212P
221.748	0.98	242504	REC_START	n/a	n/a	2	-999	n/a	STREET	n/a	n/a	1	[0, 0, 0]	-999	PAL1	2	R1212P
222.728	4.029	243507	REC_EVENT	980.0	n/a	2	4	FLUTE	STREET	FLUTE	STREET	1	[0, 0, 0]	-999	PAL1	2	R1212P
226.757	0.008	247633	REC_END	n/a	n/a	2	-999	n/a	n/a	n/a	n/a	1	[0, 0, 0]	-999	PAL1	2	R1212P
226.765	0.275	247641	TEST_ORIENT	n/a	n/a	3	5	LAWN	STRAW	LAWN	STRAW	1	[0, 0, 0]	-999	PAL1	2	R1212P
227.782	4.0	248682	TEST_PROBE	n/a	wordpools/wordpool_EN.txt	3	5	LAWN	STRAW	LAWN	STRAW	1	[0, 0, 0]	-999	PAL1	2	R1212P
227.782	1.266	248682	REC_START	n/a	n/a	3	-999	n/a	STRAW	n/a	n/a	1	[0, 0, 0]	-999	PAL1	2	R1212P
229.048	3.751	249978	REC_EVENT	1266.0	n/a	3	5	LAWN	STRAW	LAWN	STRAW	1	[0, 0, 0]	-999	PAL1	2	R1212P
232.799	0.017	253819	REC_END	n/a	n/a	3	-999	n/a	n/a	n/a	n/a	1	[0, 0, 0]	-999	PAL1	2	R1212P
232.816	0.275	253837	TEST_ORIENT	n/a	n/a	4	6	PURSE	ARM	ARM	PURSE	1	[0, 0, 0]	-999	PAL1	2	R1212P
233.733	0.0	254776	REC_START	n/a	n/a	4	-999	n/a	ARM	n/a	n/a	1	[0, 0, 0]	-999	PAL1	2	R1212P
233.733	4.0	254776	TEST_PROBE	n/a	wordpools/wordpool_EN.txt	4	6	PURSE	ARM	ARM	PURSE	1	[0, 0, 0]	-999	PAL1	2	R1212P
234.61	4.14	255674	REC_EVENT	877.0	n/a	4	6	PURSE	ARM	ARM	PURSE	1	[0, 0, 0]	-999	PAL1	2	R1212P
238.75	1.437	259913	REC_END	n/a	n/a	4	-999	n/a	n/a	n/a	n/a	1	[0, 0, 0]	-999	PAL1	2	R1212P
240.187	10.449	261384	ENCODING_START	n/a	n/a	0	-999	n/a	n/a	n/a	n/a	2	[0, 0, 0]	-999	PAL1	2	R1212P
250.636	0.275	272084	STUDY_ORIENT	n/a	n/a	1	5	SEA	PLANE	PLANE	SEA	2	[0, 0, 0]	-999	PAL1	2	R1212P
251.437	4.0	272904	STUDY_PAIR	n/a	wordpools/wordpool_EN.txt	1	5	SEA	PLANE	PLANE	SEA	2	[0, 0, 0]	-999	PAL1	2	R1212P
256.455	0.275	278042	STUDY_ORIENT	n/a	n/a	2	4	TANK	TEA	TANK	TEA	2	[0, 0, 0]	-999	PAL1	2	R1212P
257.287	4.0	278894	STUDY_PAIR	n/a	wordpools/wordpool_EN.txt	2	4	TANK	TEA	TANK	TEA	2	[0, 0, 0]	-999	PAL1	2	R1212P
262.305	0.275	284032	STUDY_ORIENT	n/a	n/a	3	3	PEA	n/a	PEA	CAGE	2	[0, 0, 0]	-999	PAL1	2	R1212P
263.139	4.0	284886	STUDY_PAIR	n/a	wordpools/wordpool_EN.txt	3	3	PEA	n/a	PEA	CAGE	2	[0, 0, 0]	-999	PAL1	2	R1212P
268.173	0.275	290041	STUDY_ORIENT	n/a	n/a	4	2	GOLD	GUARD	GUARD	GOLD	2	[0, 0, 0]	-999	PAL1	2	R1212P
269.106	4.0	290996	STUDY_PAIR	n/a	wordpools/wordpool_EN.txt	4	2	GOLD	GUARD	GUARD	GOLD	2	[0, 0, 0]	-999	PAL1	2	R1212P
274.124	0.275	296134	STUDY_ORIENT	n/a	n/a	5	1	SPOON	TOOL	TOOL	SPOON	2	[0, 0, 0]	-999	PAL1	2	R1212P
274.958	4.0	296988	STUDY_PAIR	n/a	wordpools/wordpool_EN.txt	5	1	SPOON	TOOL	TOOL	SPOON	2	[0, 0, 0]	-999	PAL1	2	R1212P
279.992	0.275	302143	STUDY_ORIENT	n/a	n/a	6	6	MAIL	n/a	MAIL	BRANCH	2	[0, 0, 0]	-999	PAL1	2	R1212P
280.992	4.0	303167	STUDY_PAIR	n/a	wordpools/wordpool_EN.txt	6	6	MAIL	n/a	MAIL	BRANCH	2	[0, 0, 0]	-999	PAL1	2	R1212P
285.01	1.0	307281	START	n/a	n/a	-999	-999	n/a	n/a	n/a	n/a	2	[-999, -999, -999]	-999	PAL1	2	R1212P
286.01	0.016	308305	MATH_START	n/a	n/a	-999	-999	n/a	n/a	n/a	n/a	2	[0, 0, 0]	-999	PAL1	2	R1212P
286.026	2.851	308321	PROB	2825.0	n/a	-999	-999	n/a	n/a	n/a	n/a	2	[5, 2, 2]	9	PAL1	2	R1212P
288.877	2.75	311240	PROB	2726.0	n/a	-999	-999	n/a	n/a	n/a	n/a	2	[5, 4, 1]	10	PAL1	2	R1212P
291.627	1.901	314056	PROB	1880.0	n/a	-999	-999	n/a	n/a	n/a	n/a	2	[5, 5, 3]	13	PAL1	2	R1212P
293.528	2.45	316003	PROB	2419.0	n/a	-999	-999	n/a	n/a	n/a	n/a	2	[8, 9, 3]	20	PAL1	2	R1212P
295.978	2.167	318512	PROB	2137.0	n/a	-999	-999	n/a	n/a	n/a	n/a	2	[3, 2, 8]	13	PAL1	2	R1212P
298.145	2.751	320730	PROB	2730.0	n/a	-999	-999	n/a	n/a	n/a	n/a	2	[6, 9, 9]	24	PAL1	2	R1212P
300.896	5.827	323547	PROB	5827.0	n/a	-999	-999	n/a	n/a	n/a	n/a	2	[7, 8, 9]	24	PAL1	2	R1212P
306.723	0.007	329514	STOP	n/a	n/a	-999	-999	n/a	n/a	n/a	n/a	2	[-999, -999, -999]	-999	PAL1	2	R1212P
306.73	0.0	329521	TEST_START	n/a	n/a	-999	-999	n/a	n/a	n/a	n/a	2	[0, 0, 0]	-999	PAL1	2	R1212P
306.73	0.017	329521	MATH_END	n/a	n/a	-999	-999	n/a	n/a	n/a	n/a	2	[0, 0, 0]	-999	PAL1	2	R1212P
306.747	0.275	329539	TEST_ORIENT	n/a	n/a	5	1	SPOON	TOOL	TOOL	SPOON	2	[0, 0, 0]	-999	PAL1	2	R1212P
307.68	4.0	330494	TEST_PROBE	n/a	wordpools/wordpool_EN.txt	5	1	SPOON	TOOL	TOOL	SPOON	2	[0, 0, 0]	-999	PAL1	2	R1212P
307.682	1.5	330496	REC_START	n/a	n/a	5	-999	n/a	TOOL	n/a	n/a	2	[0, 0, 0]	-999	PAL1	2	R1212P
309.182	3.511	332032	REC_EVENT	1500.0	n/a	5	1	SPOON	TOOL	TOOL	SPOON	2	[0, 0, 0]	-999	PAL1	2	R1212P
312.693	0.022	335627	REC_END	n/a	n/a	5	-999	n/a	n/a	n/a	n/a	2	[0, 0, 0]	-999	PAL1	2	R1212P
312.715	0.275	335649	TEST_ORIENT	n/a	n/a	4	2	GOLD	GUARD	GUARD	GOLD	2	[0, 0, 0]	-999	PAL1	2	R1212P
313.682	4.0	336640	TEST_PROBE	n/a	wordpools/wordpool_EN.txt	4	2	GOLD	GUARD	GUARD	GOLD	2	[0, 0, 0]	-999	PAL1	2	R1212P
313.682	1.121	336640	REC_START	n/a	n/a	4	-999	n/a	GUARD	n/a	n/a	2	[0, 0, 0]	-999	PAL1	2	R1212P
314.803	3.896	337787	REC_EVENT	1121.0	n/a	4	2	GOLD	GUARD	GUARD	GOLD	2	[0, 0, 0]	-999	PAL1	2	R1212P
318.699	0.017	341777	REC_END	n/a	n/a	4	-999	n/a	n/a	n/a	n/a	2	[0, 0, 0]	-999	PAL1	2	R1212P
318.716	0.275	341794	TEST_ORIENT	n/a	n/a	3	3	PEA	n/a	PEA	CAGE	2	[0, 0, 0]	-999	PAL1	2	R1212P
319.516	4.0	342613	TEST_PROBE	n/a	wordpools/wordpool_EN.txt	3	3	PEA	n/a	PEA	CAGE	2	[0, 0, 0]	-999	PAL1	2	R1212P
319.517	3.368	342614	REC_START	n/a	n/a	3	-999	n/a	n/a	n/a	n/a	2	[0, 0, 0]	-999	PAL1	2	R1212P
322.885	1.648	346063	REC_EVENT	3368.0	n/a	3	3	PEA	<>	PEA	CAGE	2	[0, 0, 0]	-999	PAL1	2	R1212P
324.533	0.017	347751	REC_END	n/a	n/a	3	-999	n/a	n/a	n/a	n/a	2	[0, 0, 0]	-999	PAL1	2	R1212P
324.55	0.275	347768	TEST_ORIENT	n/a	n/a	2	4	TANK	TEA	TANK	TEA	2	[0, 0, 0]	-999	PAL1	2	R1212P
325.534	4.0	348776	TEST_PROBE	n/a	wordpools/wordpool_EN.txt	2	4	TANK	TEA	TANK	TEA	2	[0, 0, 0]	-999	PAL1	2	R1212P
325.535	1.196	348777	REC_START	n/a	n/a	2	-999	n/a	TEA	n/a	n/a	2	[0, 0, 0]	-999	PAL1	2	R1212P
326.731	3.828	350001	REC_EVENT	1196.0	n/a	2	4	TANK	TEA	TANK	TEA	2	[0, 0, 0]	-999	PAL1	2	R1212P
330.559	0.009	353921	REC_END	n/a	n/a	2	-999	n/a	n/a	n/a	n/a	2	[0, 0, 0]	-999	PAL1	2	R1212P
330.568	0.275	353930	TEST_ORIENT	n/a	n/a	1	5	SEA	PLANE	PLANE	SEA	2	[0, 0, 0]	-999	PAL1	2	R1212P
331.369	4.0	354750	TEST_PROBE	n/a	wordpools/wordpool_EN.txt	1	5	SEA	PLANE	PLANE	SEA	2	[0, 0, 0]	-999	PAL1	2	R1212P
331.37	1.947	354751	REC_START	n/a	n/a	1	-999	n/a	PLANE	n/a	n/a	2	[0, 0, 0]	-999	PAL1	2	R1212P
333.317	3.061	356745	REC_EVENT	1947.0	n/a	1	5	SEA	PLANE	PLANE	SEA	2	[0, 0, 0]	-999	PAL1	2	R1212P
336.378	0.009	359879	REC_END	n/a	n/a	1	-999	n/a	n/a	n/a	n/a	2	[0, 0, 0]	-999	PAL1	2	R1212P
336.387	0.275	359888	TEST_ORIENT	n/a	n/a	6	6	MAIL	n/a	MAIL	BRANCH	2	[0, 0, 0]	-999	PAL1	2	R1212P
337.186	4.0	360707	TEST_PROBE	n/a	wordpools/wordpool_EN.txt	6	6	MAIL	n/a	MAIL	BRANCH	2	[0, 0, 0]	-999	PAL1	2	R1212P
337.187	5.009	360708	REC_START	n/a	n/a	6	-999	n/a	n/a	n/a	n/a	2	[0, 0, 0]	-999	PAL1	2	R1212P
342.196	0.0	365837	REC_EVENT	5009.0	n/a	6	6	MAIL	<>	MAIL	BRANCH	2	[0, 0, 0]	-999	PAL1	2	R1212P
342.196	3.031	365837	REC_END	n/a	n/a	6	-999	n/a	n/a	n/a	n/a	2	[0, 0, 0]	-999	PAL1	2	R1212P
345.227	10.446	368940	ENCODING_START	n/a	n/a	0	-999	n/a	n/a	n/a	n/a	3	[0, 0, 0]	-999	PAL1	2	R1212P
355.673	0.275	379636	STUDY_ORIENT	n/a	n/a	1	3	HOOF	n/a	HOOF	BRICK	3	[0, 0, 0]	-999	PAL1	2	R1212P
356.69	4.0	380678	STUDY_PAIR	n/a	wordpools/wordpool_EN.txt	1	3	HOOF	n/a	HOOF	BRICK	3	[0, 0, 0]	-999	PAL1	2	R1212P
361.724	0.275	385832	STUDY_ORIENT	n/a	n/a	2	4	GOAT	TRAY	TRAY	GOAT	3	[0, 0, 0]	-999	PAL1	2	R1212P
362.624	4.0	386754	STUDY_PAIR	n/a	wordpools/wordpool_EN.txt	2	4	GOAT	TRAY	TRAY	GOAT	3	[0, 0, 0]	-999	PAL1	2	R1212P
367.642	0.275	391892	STUDY_ORIENT	n/a	n/a	3	1	CAR	n/a	BUSH	CAR	3	[0, 0, 0]	-999	PAL1	2	R1212P
368.659	4.0	392933	STUDY_PAIR	n/a	wordpools/wordpool_EN.txt	3	1	CAR	n/a	BUSH	CAR	3	[0, 0, 0]	-999	PAL1	2	R1212P
373.693	0.275	398088	STUDY_ORIENT	n/a	n/a	4	2	FLEA	n/a	NAIL	FLEA	3	[0, 0, 0]	-999	PAL1	2	R1212P
374.477	4.0	398891	STUDY_PAIR	n/a	wordpools/wordpool_EN.txt	4	2	FLEA	n/a	NAIL	FLEA	3	[0, 0, 0]	-999	PAL1	2	R1212P
379.511	0.275	404045	STUDY_ORIENT	n/a	n/a	5	5	PIG	n/a	PIG	FLOOR	3	[0, 0, 0]	-999	PAL1	2	R1212P
380.446	4.0	405003	STUDY_PAIR	n/a	wordpools/wordpool_EN.txt	5	5	PIG	n/a	PIG	FLOOR	3	[0, 0, 0]	-999	PAL1	2	R1212P
385.479	0.275	410156	STUDY_ORIENT	n/a	n/a	6	6	POOL	FUR	FUR	POOL	3	[0, 0, 0]	-999	PAL1	2	R1212P
386.496	4.0	411198	STUDY_PAIR	n/a	wordpools/wordpool_EN.txt	6	6	POOL	FUR	FUR	POOL	3	[0, 0, 0]	-999	PAL1	2	R1212P
390.514	0.999	415312	START	n/a	n/a	-999	-999	n/a	n/a	n/a	n/a	3	[-999, -999, -999]	-999	PAL1	2	R1212P
391.513	0.017	416335	MATH_START	n/a	n/a	-999	-999	n/a	n/a	n/a	n/a	3	[0, 0, 0]	-999	PAL1	2	R1212P
391.53	4.667	416352	PROB	4633.0	n/a	-999	-999	n/a	n/a	n/a	n/a	3	[9, 7, 9]	25	PAL1	2	R1212P
396.197	2.968	421131	PROB	2934.0	n/a	-999	-999	n/a	n/a	n/a	n/a	3	[2, 3, 6]	11	PAL1	2	R1212P
399.165	1.533	424170	PROB	1502.0	n/a	-999	-999	n/a	n/a	n/a	n/a	3	[1, 7, 3]	11	PAL1	2	R1212P
400.698	3.468	425740	PROB	3433.0	n/a	-999	-999	n/a	n/a	n/a	n/a	3	[6, 8, 1]	15	PAL1	2	R1212P
404.166	3.517	429291	PROB	3485.0	n/a	-999	-999	n/a	n/a	n/a	n/a	3	[3, 4, 2]	9	PAL1	2	R1212P
407.683	5.104	432892	PROB	5104.0	n/a	-999	-999	n/a	n/a	n/a	n/a	3	[7, 2, 5]	15	PAL1	2	R1212P
412.787	0.014	438118	STOP	n/a	n/a	-999	-999	n/a	n/a	n/a	n/a	3	[-999, -999, -999]	-999	PAL1	2	R1212P
412.801	0.0	438133	TEST_START	n/a	n/a	-999	-999	n/a	n/a	n/a	n/a	3	[0, 0, 0]	-999	PAL1	2	R1212P
412.801	0.016	438133	MATH_END	n/a	n/a	-999	-999	n/a	n/a	n/a	n/a	3	[0, 0, 0]	-999	PAL1	2	R1212P
412.817	0.275	438149	TEST_ORIENT	n/a	n/a	3	1	CAR	n/a	BUSH	CAR	3	[0, 0, 0]	-999	PAL1	2	R1212P
413.851	4.0	439208	TEST_PROBE	n/a	wordpools/wordpool_EN.txt	3	1	CAR	n/a	BUSH	CAR	3	[0, 0, 0]	-999	PAL1	2	R1212P
413.852	3.859	439209	REC_START	n/a	n/a	3	-999	n/a	n/a	n/a	n/a	3	[0, 0, 0]	-999	PAL1	2	R1212P
417.711	1.157	443160	REC_EVENT	3859.0	n/a	3	1	CAR	<>	BUSH	CAR	3	[0, 0, 0]	-999	PAL1	2	R1212P
418.868	0.017	444345	REC_END	n/a	n/a	3	-999	n/a	n/a	n/a	n/a	3	[0, 0, 0]	-999	PAL1	2	R1212P
418.885	0.275	444363	TEST_ORIENT	n/a	n/a	4	2	FLEA	n/a	NAIL	FLEA	3	[0, 0, 0]	-999	PAL1	2	R1212P
419.735	4.0	445233	TEST_PROBE	n/a	wordpools/wordpool_EN.txt	4	2	FLEA	n/a	NAIL	FLEA	3	[0, 0, 0]	-999	PAL1	2	R1212P
419.736	5.008	445234	REC_START	n/a	n/a	4	-999	n/a	n/a	n/a	n/a	3	[0, 0, 0]	-999	PAL1	2	R1212P
424.744	0.001	450362	REC_END	n/a	n/a	4	-999	n/a	n/a	n/a	n/a	3	[0, 0, 0]	-999	PAL1	2	R1212P
424.745	0.008	450363	REC_EVENT	5009.0	n/a	4	2	FLEA	<>	NAIL	FLEA	3	[0, 0, 0]	-999	PAL1	2	R1212P
424.753	0.275	450371	TEST_ORIENT	n/a	n/a	1	3	HOOF	n/a	HOOF	BRICK	3	[0, 0, 0]	-999	PAL1	2	R1212P
425.62	4.0	451259	TEST_PROBE	n/a	wordpools/wordpool_EN.txt	1	3	HOOF	n/a	HOOF	BRICK	3	[0, 0, 0]	-999	PAL1	2	R1212P
425.62	5.015	451259	REC_START	n/a	n/a	1	-999	n/a	n/a	n/a	n/a	3	[0, 0, 0]	-999	PAL1	2	R1212P
430.635	0.002	456394	REC_EVENT	5015.0	n/a	1	3	HOOF	<>	HOOF	BRICK	3	[0, 0, 0]	-999	PAL1	2	R1212P
430.637	0.017	456396	REC_END	n/a	n/a	1	-999	n/a	n/a	n/a	n/a	3	[0, 0, 0]	-999	PAL1	2	R1212P
430.654	0.275	456413	TEST_ORIENT	n/a	n/a	2	4	GOAT	TRAY	TRAY	GOAT	3	[0, 0, 0]	-999	PAL1	2	R1212P
431.521	0.0	457301	REC_START	n/a	n/a	2	-999	n/a	TRAY	n/a	n/a	3	[0, 0, 0]	-999	PAL1	2	R1212P
431.521	4.0	457301	TEST_PROBE	n/a	wordpools/wordpool_EN.txt	2	4	GOAT	TRAY	TRAY	GOAT	3	[0, 0, 0]	-999	PAL1	2	R1212P
432.918	3.62	458732	REC_EVENT	1397.0	n/a	2	4	GOAT	TRAY	TRAY	GOAT	3	[0, 0, 0]	-999	PAL1	2	R1212P
436.538	0.017	462438	REC_END	n/a	n/a	2	-999	n/a	n/a	n/a	n/a	3	[0, 0, 0]	-999	PAL1	2	R1212P
436.555	0.275	462456	TEST_ORIENT	n/a	n/a	5	5	PIG	n/a	PIG	FLOOR	3	[0, 0, 0]	-999	PAL1	2	R1212P
437.44	4.0	463362	TEST_PROBE	n/a	wordpools/wordpool_EN.txt	5	5	PIG	n/a	PIG	FLOOR	3	[0, 0, 0]	-999	PAL1	2	R1212P
437.44	5.015	463362	REC_START	n/a	n/a	5	-999	n/a	n/a	n/a	n/a	3	[0, 0, 0]	-999	PAL1	2	R1212P
442.455	0.001	468497	REC_EVENT	5015.0	n/a	5	5	PIG	<>	PIG	FLOOR	3	[0, 0, 0]	-999	PAL1	2	R1212P
442.456	0.017	468498	REC_END	n/a	n/a	5	-999	n/a	n/a	n/a	n/a	3	[0, 0, 0]	-999	PAL1	2	R1212P
442.473	0.275	468516	TEST_ORIENT	n/a	n/a	6	6	POOL	FUR	FUR	POOL	3	[0, 0, 0]	-999	PAL1	2	R1212P
443.324	4.0	469387	TEST_PROBE	n/a	wordpools/wordpool_EN.txt	6	6	POOL	FUR	FUR	POOL	3	[0, 0, 0]	-999	PAL1	2	R1212P
443.325	1.289	469388	REC_START	n/a	n/a	6	-999	n/a	FUR	n/a	n/a	3	[0, 0, 0]	-999	PAL1	2	R1212P
444.614	3.719	470708	REC_EVENT	1289.0	n/a	6	6	POOL	FUR	FUR	POOL	3	[0, 0, 0]	-999	PAL1	2	R1212P
448.333	3.71	474516	REC_END	n/a	n/a	6	-999	n/a	n/a	n/a	n/a	3	[0, 0, 0]	-999	PAL1	2	R1212P
452.043	10.451	478315	ENCODING_START	n/a	n/a	0	-999	n/a	n/a	n/a	n/a	4	[0, 0, 0]	-999	PAL1	2	R1212P
462.494	0.275	489016	STUDY_ORIENT	n/a	n/a	1	3	CASH	SQUARE	CASH	SQUARE	4	[0, 0, 0]	-999	PAL1	2	R1212P
463.378	4.0	489921	STUDY_PAIR	n/a	wordpools/wordpool_EN.txt	1	3	CASH	SQUARE	CASH	SQUARE	4	[0, 0, 0]	-999	PAL1	2	R1212P
468.412	0.275	495076	STUDY_ORIENT	n/a	n/a	2	4	WEED	BOARD	WEED	BOARD	4	[0, 0, 0]	-999	PAL1	2	R1212P
469.362	4.0	496049	STUDY_PAIR	n/a	wordpools/wordpool_EN.txt	2	4	WEED	BOARD	WEED	BOARD	4	[0, 0, 0]	-999	PAL1	2	R1212P
474.38	0.275	501187	STUDY_ORIENT	n/a	n/a	3	1	NOSE	n/a	NOSE	CUP	4	[0, 0, 0]	-999	PAL1	2	R1212P
475.196	4.0	502022	STUDY_PAIR	n/a	wordpools/wordpool_EN.txt	3	1	NOSE	n/a	NOSE	CUP	4	[0, 0, 0]	-999	PAL1	2	R1212P
480.23	0.275	507177	STUDY_ORIENT	n/a	n/a	4	2	ARK	n/a	ARK	BLUSH	4	[0, 0, 0]	-999	PAL1	2	R1212P
481.197	4.0	508167	STUDY_PAIR	n/a	wordpools/wordpool_EN.txt	4	2	ARK	n/a	ARK	BLUSH	4	[0, 0, 0]	-999	PAL1	2	R1212P
486.215	0.275	513305	STUDY_ORIENT	n/a	n/a	5	5	ROOF	n/a	CAKE	ROOF	4	[0, 0, 0]	-999	PAL1	2	R1212P
487.082	4.0	514193	STUDY_PAIR	n/a	wordpools/wordpool_EN.txt	5	5	ROOF	n/a	CAKE	ROOF	4	[0, 0, 0]	-999	PAL1	2	R1212P
492.116	0.275	519348	STUDY_ORIENT	n/a	n/a	6	6	NEST	n/a	DEER	NEST	4	[0, 0, 0]	-999	PAL1	2	R1212P
493.066	4.0	520320	STUDY_PAIR	n/a	wordpools/wordpool_EN.txt	6	6	NEST	n/a	DEER	NEST	4	[0, 0, 0]	-999	PAL1	2	R1212P
497.084	1.0	524435	START	n/a	n/a	-999	-999	n/a	n/a	n/a	n/a	4	[-999, -999, -999]	-999	PAL1	2	R1212P
498.084	0.016	525459	MATH_START	n/a	n/a	-999	-999	n/a	n/a	n/a	n/a	4	[0, 0, 0]	-999	PAL1	2	R1212P
498.1	3.252	525475	PROB	3224.0	n/a	-999	-999	n/a	n/a	n/a	n/a	4	[8, 2, 7]	17	PAL1	2	R1212P
501.352	2.316	528805	PROB	2283.0	n/a	-999	-999	n/a	n/a	n/a	n/a	4	[6, 4, 4]	14	PAL1	2	R1212P
503.668	4.484	531176	PROB	4455.0	n/a	-999	-999	n/a	n/a	n/a	n/a	4	[2, 3, 5]	10	PAL1	2	R1212P
508.152	3.968	535768	PROB	3939.0	n/a	-999	-999	n/a	n/a	n/a	n/a	4	[9, 3, 7]	19	PAL1	2	R1212P
512.12	2.218	539831	PROB	2196.0	n/a	-999	-999	n/a	n/a	n/a	n/a	4	[8, 5, 5]	18	PAL1	2	R1212P
514.338	2.929	542102	PROB	2929.0	n/a	-999	-999	n/a	n/a	n/a	n/a	4	[2, 4, 1]	7	PAL1	2	R1212P
517.267	0.003	545101	STOP	n/a	n/a	-999	-999	n/a	n/a	n/a	n/a	4	[-999, -999, -999]	-999	PAL1	2	R1212P
517.27	0.0	545104	MATH_END	n/a	n/a	-999	-999	n/a	n/a	n/a	n/a	4	[0, 0, 0]	-999	PAL1	2	R1212P
517.27	0.017	545104	TEST_START	n/a	n/a	-999	-999	n/a	n/a	n/a	n/a	4	[0, 0, 0]	-999	PAL1	2	R1212P
517.287	0.275	545122	TEST_ORIENT	n/a	n/a	3	1	NOSE	n/a	NOSE	CUP	4	[0, 0, 0]	-999	PAL1	2	R1212P
518.138	4.0	545993	TEST_PROBE	n/a	wordpools/wordpool_EN.txt	3	1	NOSE	n/a	NOSE	CUP	4	[0, 0, 0]	-999	PAL1	2	R1212P
518.138	3.92	545993	REC_START	n/a	n/a	3	-999	n/a	n/a	n/a	n/a	4	[0, 0, 0]	-999	PAL1	2	R1212P
522.058	1.097	550007	REC_EVENT	3920.0	n/a	3	1	NOSE	<>	NOSE	CUP	4	[0, 0, 0]	-999	PAL1	2	R1212P
523.155	0.017	551130	REC_END	n/a	n/a	3	-999	n/a	n/a	n/a	n/a	4	[0, 0, 0]	-999	PAL1	2	R1212P
523.172	0.275	551147	TEST_ORIENT	n/a	n/a	4	2	ARK	n/a	ARK	BLUSH	4	[0, 0, 0]	-999	PAL1	2	R1212P
523.972	0.0	551967	REC_START	n/a	n/a	4	-999	n/a	n/a	n/a	n/a	4	[0, 0, 0]	-999	PAL1	2	R1212P
523.972	4.0	551967	TEST_PROBE	n/a	wordpools/wordpool_EN.txt	4	2	ARK	n/a	ARK	BLUSH	4	[0, 0, 0]	-999	PAL1	2	R1212P
527.476	1.513	555555	REC_EVENT	3504.0	n/a	4	2	ARK	<>	ARK	BLUSH	4	[0, 0, 0]	-999	PAL1	2	R1212P
528.989	0.017	557104	REC_END	n/a	n/a	4	-999	n/a	n/a	n/a	n/a	4	[0, 0, 0]	-999	PAL1	2	R1212P
529.006	0.275	557121	TEST_ORIENT	n/a	n/a	1	3	CASH	SQUARE	CASH	SQUARE	4	[0, 0, 0]	-999	PAL1	2	R1212P
529.906	4.0	558043	TEST_PROBE	n/a	wordpools/wordpool_EN.txt	1	3	CASH	SQUARE	CASH	SQUARE	4	[0, 0, 0]	-999	PAL1	2	R1212P
529.907	1.725	558044	REC_START	n/a	n/a	1	-999	n/a	SQUARE	n/a	n/a	4	[0, 0, 0]	-999	PAL1	2	R1212P
531.632	3.283	559810	REC_EVENT	1725.0	n/a	1	3	CASH	SQUARE	CASH	SQUARE	4	[0, 0, 0]	-999	PAL1	2	R1212P
534.915	0.009	563172	REC_END	n/a	n/a	1	-999	n/a	n/a	n/a	n/a	4	[0, 0, 0]	-999	PAL1	2	R1212P
534.924	0.275	563181	TEST_ORIENT	n/a	n/a	2	4	WEED	BOARD	WEED	BOARD	4	[0, 0, 0]	-999	PAL1	2	R1212P
535.941	4.0	564222	TEST_PROBE	n/a	wordpools/wordpool_EN.txt	2	4	WEED	BOARD	WEED	BOARD	4	[0, 0, 0]	-999	PAL1	2	R1212P
535.942	1.833	564223	REC_START	n/a	n/a	2	-999	n/a	BOARD	n/a	n/a	4	[0, 0, 0]	-999	PAL1	2	R1212P
537.775	3.183	566100	REC_EVENT	1833.0	n/a	2	4	WEED	BOARD	WEED	BOARD	4	[0, 0, 0]	-999	PAL1	2	R1212P
540.958	0.017	569359	REC_END	n/a	n/a	2	-999	n/a	n/a	n/a	n/a	4	[0, 0, 0]	-999	PAL1	2	R1212P
540.975	0.275	569377	TEST_ORIENT	n/a	n/a	5	5	ROOF	n/a	CAKE	ROOF	4	[0, 0, 0]	-999	PAL1	2	R1212P
542.009	4.0	570436	TEST_PROBE	n/a	wordpools/wordpool_EN.txt	5	5	ROOF	n/a	CAKE	ROOF	4	[0, 0, 0]	-999	PAL1	2	R1212P
542.009	2.594	570436	REC_START	n/a	n/a	5	-999	n/a	n/a	n/a	n/a	4	[0, 0, 0]	-999	PAL1	2	R1212P
544.603	2.423	573092	REC_EVENT	2594.0	n/a	5	5	ROOF	<>	CAKE	ROOF	4	[0, 0, 0]	-999	PAL1	2	R1212P
547.026	0.017	575573	REC_END	n/a	n/a	5	-999	n/a	n/a	n/a	n/a	4	[0, 0, 0]	-999	PAL1	2	R1212P
547.043	0.275	575590	TEST_ORIENT	n/a	n/a	6	6	NEST	n/a	DEER	NEST	4	[0, 0, 0]	-999	PAL1	2	R1212P
548.027	4.0	576598	TEST_PROBE	n/a	wordpools/wordpool_EN.txt	6	6	NEST	n/a	DEER	NEST	4	[0, 0, 0]	-999	PAL1	2	R1212P
548.027	2.405	576598	REC_START	n/a	n/a	6	-999	n/a	n/a	n/a	n/a	4	[0, 0, 0]	-999	PAL1	2	R1212P
550.432	2.612	579060	REC_EVENT	2405.0	n/a	6	6	NEST	<>	DEER	NEST	4	[0, 0, 0]	-999	PAL1	2	R1212P
553.044	88.4	581735	REC_END	n/a	n/a	6	-999	n/a	n/a	n/a	n/a	4	[0, 0, 0]	-999	PAL1	2	R1212P
641.444	10.453	672252	ENCODING_START	n/a	n/a	0	-999	n/a	n/a	n/a	n/a	5	[0, 0, 0]	-999	PAL1	2	R1212P
651.897	0.275	682956	STUDY_ORIENT	n/a	n/a	1	5	SINK	n/a	MOOSE	SINK	5	[0, 0, 0]	-999	PAL1	2	R1212P
652.713	4.0	683791	STUDY_PAIR	n/a	wordpools/wordpool_EN.txt	1	5	SINK	n/a	MOOSE	SINK	5	[0, 0, 0]	-999	PAL1	2	R1212P
657.731	0.275	688930	STUDY_ORIENT	n/a	n/a	2	6	RICE	BOMB	RICE	BOMB	5	[0, 0, 0]	-999	PAL1	2	R1212P
658.698	4.0	689920	STUDY_PAIR	n/a	wordpools/wordpool_EN.txt	2	6	RICE	BOMB	RICE	BOMB	5	[0, 0, 0]	-999	PAL1	2	R1212P
663.732	0.275	695074	STUDY_ORIENT	n/a	n/a	3	1	FACE	n/a	FACE	EEL	5	[0, 0, 0]	-999	PAL1	2	R1212P
664.666	4.0	696031	STUDY_PAIR	n/a	wordpools/wordpool_EN.txt	3	1	FACE	n/a	FACE	EEL	5	[0, 0, 0]	-999	PAL1	2	R1212P
669.7	0.275	701185	STUDY_ORIENT	n/a	n/a	4	4	COUCH	MUD	MUD	COUCH	5	[0, 0, 0]	-999	PAL1	2	R1212P
670.583	4.0	702089	STUDY_PAIR	n/a	wordpools/wordpool_EN.txt	4	4	COUCH	MUD	MUD	COUCH	5	[0, 0, 0]	-999	PAL1	2	R1212P
675.601	0.275	707228	STUDY_ORIENT	n/a	n/a	5	3	APE	EEG	APE	EGG	5	[0, 0, 0]	-999	PAL1	2	R1212P
676.485	4.0	708133	STUDY_PAIR	n/a	wordpools/wordpool_EN.txt	5	3	APE	EEG	APE	EGG	5	[0, 0, 0]	-999	PAL1	2	R1212P
681.519	0.275	713287	STUDY_ORIENT	n/a	n/a	6	2	THREAD	n/a	CUBE	THREAD	5	[0, 0, 0]	-999	PAL1	2	R1212P
682.453	4.0	714244	STUDY_PAIR	n/a	wordpools/wordpool_EN.txt	6	2	THREAD	n/a	CUBE	THREAD	5	[0, 0, 0]	-999	PAL1	2	R1212P
686.454	1.0	718341	START	n/a	n/a	-999	-999	n/a	n/a	n/a	n/a	5	[-999, -999, -999]	-999	PAL1	2	R1212P
687.454	0.016	719364	MATH_START	n/a	n/a	-999	-999	n/a	n/a	n/a	n/a	5	[0, 0, 0]	-999	PAL1	2	R1212P
687.47	4.051	719381	PROB	4029.0	n/a	-999	-999	n/a	n/a	n/a	n/a	5	[9, 2, 6]	17	PAL1	2	R1212P
691.521	3.534	723529	PROB	3514.0	n/a	-999	-999	n/a	n/a	n/a	n/a	5	[4, 4, 3]	11	PAL1	2	R1212P
695.055	3.767	727148	PROB	3740.0	n/a	-999	-999	n/a	n/a	n/a	n/a	5	[5, 9, 2]	16	PAL1	2	R1212P
698.822	3.484	731005	PROB	3453.0	n/a	-999	-999	n/a	n/a	n/a	n/a	5	[5, 4, 6]	15	PAL1	2	R1212P
702.306	3.351	734572	PROB	3321.0	n/a	-999	-999	n/a	n/a	n/a	n/a	5	[3, 7, 8]	18	PAL1	2	R1212P
705.657	2.739	738003	PROB	2739.0	n/a	-999	-999	n/a	n/a	n/a	n/a	5	[4, 9, 3]	16	PAL1	2	R1212P
708.396	0.012	740808	STOP	n/a	n/a	-999	-999	n/a	n/a	n/a	n/a	5	[-999, -999, -999]	-999	PAL1	2	R1212P
708.408	0.0	740820	MATH_END	n/a	n/a	-999	-999	n/a	n/a	n/a	n/a	5	[0, 0, 0]	-999	PAL1	2	R1212P
708.408	0.017	740820	TEST_START	n/a	n/a	-999	-999	n/a	n/a	n/a	n/a	5	[0, 0, 0]	-999	PAL1	2	R1212P
708.425	0.275	740838	TEST_ORIENT	n/a	n/a	3	1	FACE	n/a	FACE	EEL	5	[0, 0, 0]	-999	PAL1	2	R1212P
709.375	4.0	741811	TEST_PROBE	n/a	wordpools/wordpool_EN.txt	3	1	FACE	n/a	FACE	EEL	5	[0, 0, 0]	-999	PAL1	2	R1212P
709.375	4.121	741811	REC_START	n/a	n/a	3	-999	n/a	n/a	n/a	n/a	5	[0, 0, 0]	-999	PAL1	2	R1212P
713.496	0.897	746030	REC_EVENT	4121.0	n/a	3	1	FACE	<>	FACE	EEL	5	[0, 0, 0]	-999	PAL1	2	R1212P
714.393	0.017	746949	REC_END	n/a	n/a	3	-999	n/a	n/a	n/a	n/a	5	[0, 0, 0]	-999	PAL1	2	R1212P
714.41	0.275	746966	TEST_ORIENT	n/a	n/a	6	2	THREAD	n/a	CUBE	THREAD	5	[0, 0, 0]	-999	PAL1	2	R1212P
715.275	4.0	747852	TEST_PROBE	n/a	wordpools/wordpool_EN.txt	6	2	THREAD	n/a	CUBE	THREAD	5	[0, 0, 0]	-999	PAL1	2	R1212P
715.276	5.009	747853	REC_START	n/a	n/a	6	-999	n/a	n/a	n/a	n/a	5	[0, 0, 0]	-999	PAL1	2	R1212P
720.285	0.0	752982	REC_EVENT	5009.0	n/a	6	2	THREAD	<>	CUBE	THREAD	5	[0, 0, 0]	-999	PAL1	2	R1212P
720.285	0.008	752982	REC_END	n/a	n/a	6	-999	n/a	n/a	n/a	n/a	5	[0, 0, 0]	-999	PAL1	2	R1212P
720.293	0.275	752990	TEST_ORIENT	n/a	n/a	5	3	APE	EEG	APE	EGG	5	[0, 0, 0]	-999	PAL1	2	R1212P
721.127	4.0	753844	TEST_PROBE	n/a	wordpools/wordpool_EN.txt	5	3	APE	EEG	APE	EGG	5	[0, 0, 0]	-999	PAL1	2	R1212P
721.127	1.122	753844	REC_START	n/a	n/a	5	-999	n/a	EEG	n/a	n/a	5	[0, 0, 0]	-999	PAL1	2	R1212P
722.249	3.895	754993	REC_EVENT	1122.0	n/a	5	3	APE	EEG	APE	EGG	5	[0, 0, 0]	-999	PAL1	2	R1212P
726.144	0.017	758981	REC_END	n/a	n/a	5	-999	n/a	n/a	n/a	n/a	5	[0, 0, 0]	-999	PAL1	2	R1212P
726.161	0.275	758999	TEST_ORIENT	n/a	n/a	4	4	COUCH	MUD	MUD	COUCH	5	[0, 0, 0]	-999	PAL1	2	R1212P
727.094	4.0	759954	TEST_PROBE	n/a	wordpools/wordpool_EN.txt	4	4	COUCH	MUD	MUD	COUCH	5	[0, 0, 0]	-999	PAL1	2	R1212P
727.095	0.99	759955	REC_START	n/a	n/a	4	-999	n/a	MUD	n/a	n/a	5	[0, 0, 0]	-999	PAL1	2	R1212P
728.085	4.018	760969	REC_EVENT	990.0	n/a	4	4	COUCH	MUD	MUD	COUCH	5	[0, 0, 0]	-999	PAL1	2	R1212P
732.103	0.009	765083	REC_END	n/a	n/a	4	-999	n/a	n/a	n/a	n/a	5	[0, 0, 0]	-999	PAL1	2	R1212P
732.112	0.275	765092	TEST_ORIENT	n/a	n/a	1	5	SINK	n/a	MOOSE	SINK	5	[0, 0, 0]	-999	PAL1	2	R1212P
733.045	4.0	766047	TEST_PROBE	n/a	wordpools/wordpool_EN.txt	1	5	SINK	n/a	MOOSE	SINK	5	[0, 0, 0]	-999	PAL1	2	R1212P
733.046	4.998	766049	REC_START	n/a	n/a	1	-999	n/a	n/a	n/a	n/a	5	[0, 0, 0]	-999	PAL1	2	R1212P
738.044	0.002	771166	REC_EVENT	4998.0	n/a	1	5	SINK	<>	MOOSE	SINK	5	[0, 0, 0]	-999	PAL1	2	R1212P
738.046	0.017	771168	REC_END	n/a	n/a	1	-999	n/a	n/a	n/a	n/a	5	[0, 0, 0]	-999	PAL1	2	R1212P
738.063	0.275	771186	TEST_ORIENT	n/a	n/a	2	6	RICE	BOMB	RICE	BOMB	5	[0, 0, 0]	-999	PAL1	2	R1212P
738.963	4.0	772107	TEST_PROBE	n/a	wordpools/wordpool_EN.txt	2	6	RICE	BOMB	RICE	BOMB	5	[0, 0, 0]	-999	PAL1	2	R1212P
738.964	1.073	772108	REC_START	n/a	n/a	2	-999	n/a	BOMB	n/a	n/a	5	[0, 0, 0]	-999	PAL1	2	R1212P
740.037	3.935	773207	REC_EVENT	1073.0	n/a	2	6	RICE	BOMB	RICE	BOMB	5	[0, 0, 0]	-999	PAL1	2	R1212P
743.972	1.519	777236	REC_END	n/a	n/a	2	-999	n/a	n/a	n/a	n/a	5	[0, 0, 0]	-999	PAL1	2	R1212P
745.491	10.442	778792	ENCODING_START	n/a	n/a	0	-999	n/a	n/a	n/a	n/a	6	[0, 0, 0]	-999	PAL1	2	R1212P
755.933	0.275	789484	STUDY_ORIENT	n/a	n/a	1	1	KITE	BLOOM	BLOOM	KITE	6	[0, 0, 0]	-999	PAL1	2	R1212P
756.8	4.0	790371	STUDY_PAIR	n/a	wordpools/wordpool_EN.txt	1	1	KITE	BLOOM	BLOOM	KITE	6	[0, 0, 0]	-999	PAL1	2	R1212P
761.834	0.275	795526	STUDY_ORIENT	n/a	n/a	2	6	VASE	n/a	STONE	VASE	6	[0, 0, 0]	-999	PAL1	2	R1212P
762.768	4.0	796482	STUDY_PAIR	n/a	wordpools/wordpool_EN.txt	2	6	VASE	n/a	STONE	VASE	6	[0, 0, 0]	-999	PAL1	2	R1212P
767.802	0.275	801637	STUDY_ORIENT	n/a	n/a	3	3	CLOTH	n/a	CALF	CLOTH	6	[0, 0, 0]	-999	PAL1	2	R1212P
768.619	4.0	802474	STUDY_PAIR	n/a	wordpools/wordpool_EN.txt	3	3	CLOTH	n/a	CALF	CLOTH	6	[0, 0, 0]	-999	PAL1	2	R1212P
773.653	0.275	807628	STUDY_ORIENT	n/a	n/a	4	2	ROPE	n/a	HEART	ROPE	6	[0, 0, 0]	-999	PAL1	2	R1212P
774.47	4.0	808465	STUDY_PAIR	n/a	wordpools/wordpool_EN.txt	4	2	ROPE	n/a	HEART	ROPE	6	[0, 0, 0]	-999	PAL1	2	R1212P
779.488	0.275	813603	STUDY_ORIENT	n/a	n/a	5	5	WOLF	n/a	SHRIMP	WOLF	6	[0, 0, 0]	-999	PAL1	2	R1212P
780.439	4.0	814577	STUDY_PAIR	n/a	wordpools/wordpool_EN.txt	5	5	WOLF	n/a	SHRIMP	WOLF	6	[0, 0, 0]	-999	PAL1	2	R1212P
785.455	0.275	819713	STUDY_ORIENT	n/a	n/a	6	4	AXE	CAKE	AXE	LAKE	6	[0, 0, 0]	-999	PAL1	2	R1212P
786.39	4.0	820670	STUDY_PAIR	n/a	wordpools/wordpool_EN.txt	6	4	AXE	CAKE	AXE	LAKE	6	[0, 0, 0]	-999	PAL1	2	R1212P
790.408	0.999	824784	START	n/a	n/a	-999	-999	n/a	n/a	n/a	n/a	6	[-999, -999, -999]	-999	PAL1	2	R1212P
791.407	0.017	825807	MATH_START	n/a	n/a	-999	-999	n/a	n/a	n/a	n/a	6	[0, 0, 0]	-999	PAL1	2	R1212P
791.424	2.901	825825	PROB	2867.0	n/a	-999	-999	n/a	n/a	n/a	n/a	6	[3, 5, 2]	10	PAL1	2	R1212P
794.325	5.167	828795	PROB	5142.0	n/a	-999	-999	n/a	n/a	n/a	n/a	6	[3, 9, 6]	18	PAL1	2	R1212P
799.492	3.6	834086	PROB	3567.0	n/a	-999	-999	n/a	n/a	n/a	n/a	6	[7, 1, 7]	15	PAL1	2	R1212P
803.092	4.751	837772	PROB	4719.0	n/a	-999	-999	n/a	n/a	n/a	n/a	6	[1, 2, 5]	8	PAL1	2	R1212P
807.843	2.569	842637	PROB	2569.0	n/a	-999	-999	n/a	n/a	n/a	n/a	6	[5, 6, 1]	12	PAL1	2	R1212P
810.412	0.016	845268	STOP	n/a	n/a	-999	-999	n/a	n/a	n/a	n/a	6	[-999, -999, -999]	-999	PAL1	2	R1212P
810.428	0.0	845284	MATH_END	n/a	n/a	-999	-999	n/a	n/a	n/a	n/a	6	[0, 0, 0]	-999	PAL1	2	R1212P
810.428	0.016	845284	TEST_START	n/a	n/a	-999	-999	n/a	n/a	n/a	n/a	6	[0, 0, 0]	-999	PAL1	2	R1212P
810.444	0.275	845300	TEST_ORIENT	n/a	n/a	1	1	KITE	BLOOM	BLOOM	KITE	6	[0, 0, 0]	-999	PAL1	2	R1212P
811.261	4.0	846137	TEST_PROBE	n/a	wordpools/wordpool_EN.txt	1	1	KITE	BLOOM	BLOOM	KITE	6	[0, 0, 0]	-999	PAL1	2	R1212P
811.261	2.842	846137	REC_START	n/a	n/a	1	-999	n/a	BLOOM	n/a	n/a	6	[0, 0, 0]	-999	PAL1	2	R1212P
814.103	2.175	849047	REC_EVENT	2842.0	n/a	1	1	KITE	BLOOM	BLOOM	KITE	6	[0, 0, 0]	-999	PAL1	2	R1212P
816.278	0.017	851274	REC_END	n/a	n/a	1	-999	n/a	n/a	n/a	n/a	6	[0, 0, 0]	-999	PAL1	2	R1212P
816.295	0.275	851292	TEST_ORIENT	n/a	n/a	4	2	ROPE	n/a	HEART	ROPE	6	[0, 0, 0]	-999	PAL1	2	R1212P
817.095	4.0	852111	TEST_PROBE	n/a	wordpools/wordpool_EN.txt	4	2	ROPE	n/a	HEART	ROPE	6	[0, 0, 0]	-999	PAL1	2	R1212P
817.095	5.015	852111	REC_START	n/a	n/a	4	-999	n/a	n/a	n/a	n/a	6	[0, 0, 0]	-999	PAL1	2	R1212P
822.11	0.002	857246	REC_EVENT	5015.0	n/a	4	2	ROPE	<>	HEART	ROPE	6	[0, 0, 0]	-999	PAL1	2	R1212P
822.112	0.017	857248	REC_END	n/a	n/a	4	-999	n/a	n/a	n/a	n/a	6	[0, 0, 0]	-999	PAL1	2	R1212P
822.129	0.275	857265	TEST_ORIENT	n/a	n/a	3	3	CLOTH	n/a	CALF	CLOTH	6	[0, 0, 0]	-999	PAL1	2	R1212P
822.913	4.0	858068	TEST_PROBE	n/a	wordpools/wordpool_EN.txt	3	3	CLOTH	n/a	CALF	CLOTH	6	[0, 0, 0]	-999	PAL1	2	R1212P
822.913	1.53	858068	REC_START	n/a	n/a	3	-999	n/a	n/a	n/a	n/a	6	[0, 0, 0]	-999	PAL1	2	R1212P
824.443	3.487	859635	REC_EVENT	1530.0	n/a	3	3	CLOTH	<>	CALF	CLOTH	6	[0, 0, 0]	-999	PAL1	2	R1212P
827.93	0.017	863205	REC_END	n/a	n/a	3	-999	n/a	n/a	n/a	n/a	6	[0, 0, 0]	-999	PAL1	2	R1212P
827.947	0.275	863223	TEST_ORIENT	n/a	n/a	6	4	AXE	CAKE	AXE	LAKE	6	[0, 0, 0]	-999	PAL1	2	R1212P
828.747	4.0	864042	TEST_PROBE	n/a	wordpools/wordpool_EN.txt	6	4	AXE	CAKE	AXE	LAKE	6	[0, 0, 0]	-999	PAL1	2	R1212P
828.748	1.66	864043	REC_START	n/a	n/a	6	-999	n/a	CAKE	n/a	n/a	6	[0, 0, 0]	-999	PAL1	2	R1212P
830.408	3.348	865743	REC_EVENT	1660.0	n/a	6	4	AXE	CAKE	AXE	LAKE	6	[0, 0, 0]	-999	PAL1	2	R1212P
833.756	0.009	869171	REC_END	n/a	n/a	6	-999	n/a	n/a	n/a	n/a	6	[0, 0, 0]	-999	PAL1	2	R1212P
833.765	0.275	869180	TEST_ORIENT	n/a	n/a	5	5	WOLF	n/a	SHRIMP	WOLF	6	[0, 0, 0]	-999	PAL1	2	R1212P
834.598	4.0	870033	TEST_PROBE	n/a	wordpools/wordpool_EN.txt	5	5	WOLF	n/a	SHRIMP	WOLF	6	[0, 0, 0]	-999	PAL1	2	R1212P
834.599	5.008	870034	REC_START	n/a	n/a	5	-999	n/a	n/a	n/a	n/a	6	[0, 0, 0]	-999	PAL1	2	R1212P
839.607	0.001	875162	REC_END	n/a	n/a	5	-999	n/a	n/a	n/a	n/a	6	[0, 0, 0]	-999	PAL1	2	R1212P
839.608	0.008	875163	REC_EVENT	5009.0	n/a	5	5	WOLF	<>	SHRIMP	WOLF	6	[0, 0, 0]	-999	PAL1	2	R1212P
839.616	0.275	875171	TEST_ORIENT	n/a	n/a	2	6	VASE	n/a	STONE	VASE	6	[0, 0, 0]	-999	PAL1	2	R1212P
840.483	4.0	876059	TEST_PROBE	n/a	wordpools/wordpool_EN.txt	2	6	VASE	n/a	STONE	VASE	6	[0, 0, 0]	-999	PAL1	2	R1212P
840.483	5.015	876059	REC_START	n/a	n/a	2	-999	n/a	n/a	n/a	n/a	6	[0, 0, 0]	-999	PAL1	2	R1212P
845.498	0.002	881194	REC_EVENT	5015.0	n/a	2	6	VASE	<>	STONE	VASE	6	[0, 0, 0]	-999	PAL1	2	R1212P
845.5	4.735	881196	REC_END	n/a	n/a	2	-999	n/a	n/a	n/a	n/a	6	[0, 0, 0]	-999	PAL1	2	R1212P
850.235	10.452	886044	ENCODING_START	n/a	n/a	0	-999	n/a	n/a	n/a	n/a	7	[0, 0, 0]	-999	PAL1	2	R1212P
860.687	0.275	896747	STUDY_ORIENT	n/a	n/a	1	1	PARK	JEEP	JEEP	PARK	7	[0, 0, 0]	-999	PAL1	2	R1212P
861.52	4.0	897600	STUDY_PAIR	n/a	wordpools/wordpool_EN.txt	1	1	PARK	JEEP	JEEP	PARK	7	[0, 0, 0]	-999	PAL1	2	R1212P
866.538	0.275	902738	STUDY_ORIENT	n/a	n/a	2	4	LAMB	SLIME	LAMB	SLIME	7	[0, 0, 0]	-999	PAL1	2	R1212P
867.339	4.0	903558	STUDY_PAIR	n/a	wordpools/wordpool_EN.txt	2	4	LAMB	SLIME	LAMB	SLIME	7	[0, 0, 0]	-999	PAL1	2	R1212P
872.373	0.275	908713	STUDY_ORIENT	n/a	n/a	3	3	SHARK	SNOW	SNOW	SHARK	7	[0, 0, 0]	-999	PAL1	2	R1212P
873.34	4.0	909703	STUDY_PAIR	n/a	wordpools/wordpool_EN.txt	3	3	SHARK	SNOW	SNOW	SHARK	7	[0, 0, 0]	-999	PAL1	2	R1212P
878.374	0.275	914857	STUDY_ORIENT	n/a	n/a	4	6	ROOM	BAG	BAG	ROOM	7	[0, 0, 0]	-999	PAL1	2	R1212P
879.29	4.0	915795	STUDY_PAIR	n/a	wordpools/wordpool_EN.txt	4	6	ROOM	BAG	BAG	ROOM	7	[0, 0, 0]	-999	PAL1	2	R1212P
884.309	0.275	920935	STUDY_ORIENT	n/a	n/a	5	5	SHELL	n/a	FOOT	SHELL	7	[0, 0, 0]	-999	PAL1	2	R1212P
885.241	4.0	921889	STUDY_PAIR	n/a	wordpools/wordpool_EN.txt	5	5	SHELL	n/a	FOOT	SHELL	7	[0, 0, 0]	-999	PAL1	2	R1212P
890.259	0.275	927027	STUDY_ORIENT	n/a	n/a	6	2	COIN	WING	WING	COIN	7	[0, 0, 0]	-999	PAL1	2	R1212P
891.076	4.0	927864	STUDY_PAIR	n/a	wordpools/wordpool_EN.txt	6	2	COIN	WING	WING	COIN	7	[0, 0, 0]	-999	PAL1	2	R1212P
895.094	0.999	931978	START	n/a	n/a	-999	-999	n/a	n/a	n/a	n/a	7	[-999, -999, -999]	-999	PAL1	2	R1212P
896.093	0.017	933001	MATH_START	n/a	n/a	-999	-999	n/a	n/a	n/a	n/a	7	[0, 0, 0]	-999	PAL1	2	R1212P
896.11	2.667	933018	PROB	2637.0	n/a	-999	-999	n/a	n/a	n/a	n/a	7	[1, 8, 8]	17	PAL1	2	R1212P
898.777	3.218	935749	PROB	3186.0	n/a	-999	-999	n/a	n/a	n/a	n/a	7	[6, 4, 3]	13	PAL1	2	R1212P
901.995	2.117	939044	PROB	2088.0	n/a	-999	-999	n/a	n/a	n/a	n/a	7	[7, 7, 2]	15	PAL1	2	R1212P
904.112	3.95	941212	PROB	3923.0	n/a	-999	-999	n/a	n/a	n/a	n/a	7	[7, 3, 9]	19	PAL1	2	R1212P
908.062	4.302	945257	PROB	4270.0	n/a	-999	-999	n/a	n/a	n/a	n/a	7	[3, 9, 2]	14	PAL1	2	R1212P
912.364	4.119	949662	PROB	4119.0	n/a	-999	-999	n/a	n/a	n/a	n/a	7	[5, 8, 3]	16	PAL1	2	R1212P
916.483	0.014	953879	STOP	n/a	n/a	-999	-999	n/a	n/a	n/a	n/a	7	[-999, -999, -999]	-999	PAL1	2	R1212P
916.497	0.0	953894	MATH_END	n/a	n/a	-999	-999	n/a	n/a	n/a	n/a	7	[0, 0, 0]	-999	PAL1	2	R1212P
916.497	0.017	953894	TEST_START	n/a	n/a	-999	-999	n/a	n/a	n/a	n/a	7	[0, 0, 0]	-999	PAL1	2	R1212P
916.514	0.275	953911	TEST_ORIENT	n/a	n/a	1	1	PARK	JEEP	JEEP	PARK	7	[0, 0, 0]	-999	PAL1	2	R1212P
917.548	4.0	954970	TEST_PROBE	n/a	wordpools/wordpool_EN.txt	1	1	PARK	JEEP	JEEP	PARK	7	[0, 0, 0]	-999	PAL1	2	R1212P
917.548	1.654	954970	REC_START	n/a	n/a	1	-999	n/a	JEEP	n/a	n/a	7	[0, 0, 0]	-999	PAL1	2	R1212P
919.202	3.363	956663	REC_EVENT	1654.0	n/a	1	1	PARK	JEEP	JEEP	PARK	7	[0, 0, 0]	-999	PAL1	2	R1212P
922.565	0.017	960107	REC_END	n/a	n/a	1	-999	n/a	n/a	n/a	n/a	7	[0, 0, 0]	-999	PAL1	2	R1212P
922.582	0.275	960124	TEST_ORIENT	n/a	n/a	6	2	COIN	WING	WING	COIN	7	[0, 0, 0]	-999	PAL1	2	R1212P
923.515	4.0	961080	TEST_PROBE	n/a	wordpools/wordpool_EN.txt	6	2	COIN	WING	WING	COIN	7	[0, 0, 0]	-999	PAL1	2	R1212P
923.516	1.942	961081	REC_START	n/a	n/a	6	-999	n/a	WING	n/a	n/a	7	[0, 0, 0]	-999	PAL1	2	R1212P
925.458	3.066	963069	REC_EVENT	1942.0	n/a	6	2	COIN	WING	WING	COIN	7	[0, 0, 0]	-999	PAL1	2	R1212P
928.524	0.009	966209	REC_END	n/a	n/a	6	-999	n/a	n/a	n/a	n/a	7	[0, 0, 0]	-999	PAL1	2	R1212P
928.533	0.275	966218	TEST_ORIENT	n/a	n/a	3	3	SHARK	SNOW	SNOW	SHARK	7	[0, 0, 0]	-999	PAL1	2	R1212P
929.434	4.0	967141	TEST_PROBE	n/a	wordpools/wordpool_EN.txt	3	3	SHARK	SNOW	SNOW	SHARK	7	[0, 0, 0]	-999	PAL1	2	R1212P
929.435	1.254	967142	REC_START	n/a	n/a	3	-999	n/a	SNOW	n/a	n/a	7	[0, 0, 0]	-999	PAL1	2	R1212P
930.689	3.755	968426	REC_EVENT	1254.0	n/a	3	3	SHARK	SNOW	SNOW	SHARK	7	[0, 0, 0]	-999	PAL1	2	R1212P
934.444	0.008	972271	REC_END	n/a	n/a	3	-999	n/a	n/a	n/a	n/a	7	[0, 0, 0]	-999	PAL1	2	R1212P
934.452	0.275	972279	TEST_ORIENT	n/a	n/a	2	4	LAMB	SLIME	LAMB	SLIME	7	[0, 0, 0]	-999	PAL1	2	R1212P
935.335	4.0	973183	TEST_PROBE	n/a	wordpools/wordpool_EN.txt	2	4	LAMB	SLIME	LAMB	SLIME	7	[0, 0, 0]	-999	PAL1	2	R1212P
935.335	1.68	973183	REC_START	n/a	n/a	2	-999	n/a	SLIME	n/a	n/a	7	[0, 0, 0]	-999	PAL1	2	R1212P
937.015	3.338	974903	REC_EVENT	1680.0	n/a	2	4	LAMB	SLIME	LAMB	SLIME	7	[0, 0, 0]	-999	PAL1	2	R1212P
940.353	0.017	978321	REC_END	n/a	n/a	2	-999	n/a	n/a	n/a	n/a	7	[0, 0, 0]	-999	PAL1	2	R1212P
940.37	0.275	978338	TEST_ORIENT	n/a	n/a	5	5	SHELL	n/a	FOOT	SHELL	7	[0, 0, 0]	-999	PAL1	2	R1212P
941.353	0.0	979345	REC_START	n/a	n/a	5	-999	n/a	n/a	n/a	n/a	7	[0, 0, 0]	-999	PAL1	2	R1212P
941.353	4.0	979345	TEST_PROBE	n/a	wordpools/wordpool_EN.txt	5	5	SHELL	n/a	FOOT	SHELL	7	[0, 0, 0]	-999	PAL1	2	R1212P
944.43	1.941	982496	REC_EVENT	3077.0	n/a	5	5	SHELL	<>	FOOT	SHELL	7	[0, 0, 0]	-999	PAL1	2	R1212P
946.371	0.016	984483	REC_END	n/a	n/a	5	-999	n/a	n/a	n/a	n/a	7	[0, 0, 0]	-999	PAL1	2	R1212P
946.387	0.275	984500	TEST_ORIENT	n/a	n/a	4	6	ROOM	BAG	BAG	ROOM	7	[0, 0, 0]	-999	PAL1	2	R1212P
947.388	4.0	985525	TEST_PROBE	n/a	wordpools/wordpool_EN.txt	4	6	ROOM	BAG	BAG	ROOM	7	[0, 0, 0]	-999	PAL1	2	R1212P
947.388	2.442	985525	REC_START	n/a	n/a	4	-999	n/a	BAG	n/a	n/a	7	[0, 0, 0]	-999	PAL1	2	R1212P
949.83	2.575	988025	REC_EVENT	2442.0	n/a	4	6	ROOM	BAG	BAG	ROOM	7	[0, 0, 0]	-999	PAL1	2	R1212P
952.405	1.478	990662	REC_END	n/a	n/a	4	-999	n/a	n/a	n/a	n/a	7	[0, 0, 0]	-999	PAL1	2	R1212P
953.883	10.441	992175	ENCODING_START	n/a	n/a	0	-999	n/a	n/a	n/a	n/a	8	[0, 0, 0]	-999	PAL1	2	R1212P
964.324	0.275	1002866	STUDY_ORIENT	n/a	n/a	1	3	SAIL	SALT	SAIL	PASTE	8	[0, 0, 0]	-999	PAL1	2	R1212P
965.157	4.0	1003719	STUDY_PAIR	n/a	wordpools/wordpool_EN.txt	1	3	SAIL	SALT	SAIL	PASTE	8	[0, 0, 0]	-999	PAL1	2	R1212P
970.191	0.275	1008874	STUDY_ORIENT	n/a	n/a	2	4	SALT	n/a	ROSE	SALT	8	[0, 0, 0]	-999	PAL1	2	R1212P
971.158	4.0	1009864	STUDY_PAIR	n/a	wordpools/wordpool_EN.txt	2	4	SALT	n/a	ROSE	SALT	8	[0, 0, 0]	-999	PAL1	2	R1212P
976.192	0.275	1015018	STUDY_ORIENT	n/a	n/a	3	5	ROOT	n/a	ROOT	STRING	8	[0, 0, 0]	-999	PAL1	2	R1212P
976.976	4.0	1015821	STUDY_PAIR	n/a	wordpools/wordpool_EN.txt	3	5	ROOT	n/a	ROOT	STRING	8	[0, 0, 0]	-999	PAL1	2	R1212P
982.01	0.275	1020976	STUDY_ORIENT	n/a	n/a	4	2	MAT	n/a	MAT	PEN	8	[0, 0, 0]	-999	PAL1	2	R1212P
982.993	4.0	1021982	STUDY_PAIR	n/a	wordpools/wordpool_EN.txt	4	2	MAT	n/a	MAT	PEN	8	[0, 0, 0]	-999	PAL1	2	R1212P
988.011	0.275	1027121	STUDY_ORIENT	n/a	n/a	5	1	BOX	n/a	BOX	RUG	8	[0, 0, 0]	-999	PAL1	2	R1212P
989.028	4.0	1028162	STUDY_PAIR	n/a	wordpools/wordpool_EN.txt	5	1	BOX	n/a	BOX	RUG	8	[0, 0, 0]	-999	PAL1	2	R1212P
994.062	0.275	1033317	STUDY_ORIENT	n/a	n/a	6	6	FUDGE	n/a	HEN	FUDGE	8	[0, 0, 0]	-999	PAL1	2	R1212P
994.996	4.0	1034273	STUDY_PAIR	n/a	wordpools/wordpool_EN.txt	6	6	FUDGE	n/a	HEN	FUDGE	8	[0, 0, 0]	-999	PAL1	2	R1212P
999.014	0.999	1038387	START	n/a	n/a	-999	-999	n/a	n/a	n/a	n/a	8	[-999, -999, -999]	-999	PAL1	2	R1212P
1000.013	0.017	1039410	MATH_START	n/a	n/a	-999	-999	n/a	n/a	n/a	n/a	8	[0, 0, 0]	-999	PAL1	2	R1212P
1000.03	2.751	1039427	PROB	2725.0	n/a	-999	-999	n/a	n/a	n/a	n/a	8	[8, 1, 2]	11	PAL1	2	R1212P
1002.781	2.083	1042244	PROB	2054.0	n/a	-999	-999	n/a	n/a	n/a	n/a	8	[8, 1, 1]	10	PAL1	2	R1212P
1004.864	2.535	1044377	PROB	2516.0	n/a	-999	-999	n/a	n/a	n/a	n/a	8	[5, 1, 7]	13	PAL1	2	R1212P
1007.399	1.666	1046973	PROB	1644.0	n/a	-999	-999	n/a	n/a	n/a	n/a	8	[1, 6, 6]	13	PAL1	2	R1212P
1009.065	2.717	1048679	PROB	2682.0	n/a	-999	-999	n/a	n/a	n/a	n/a	8	[8, 1, 1]	10	PAL1	2	R1212P
1011.782	2.834	1051461	PROB	2813.0	n/a	-999	-999	n/a	n/a	n/a	n/a	8	[9, 7, 4]	20	PAL1	2	R1212P
1014.616	2.284	1054363	PROB	2259.0	n/a	-999	-999	n/a	n/a	n/a	n/a	8	[5, 2, 8]	15	PAL1	2	R1212P
1016.9	4.799	1056702	PROB	4799.0	n/a	-999	-999	n/a	n/a	n/a	n/a	8	[7, 4, 2]	13	PAL1	2	R1212P
1021.699	0.019	1061616	STOP	n/a	n/a	-999	-999	n/a	n/a	n/a	n/a	8	[-999, -999, -999]	-999	PAL1	2	R1212P
1021.718	0.0	1061635	MATH_END	n/a	n/a	-999	-999	n/a	n/a	n/a	n/a	8	[0, 0, 0]	-999	PAL1	2	R1212P
1021.718	0.016	1061635	TEST_START	n/a	n/a	-999	-999	n/a	n/a	n/a	n/a	8	[0, 0, 0]	-999	PAL1	2	R1212P
1021.734	0.275	1061651	TEST_ORIENT	n/a	n/a	5	1	BOX	n/a	BOX	RUG	8	[0, 0, 0]	-999	PAL1	2	R1212P
1022.534	4.0	1062471	TEST_PROBE	n/a	wordpools/wordpool_EN.txt	5	1	BOX	n/a	BOX	RUG	8	[0, 0, 0]	-999	PAL1	2	R1212P
1022.535	3.572	1062472	REC_START	n/a	n/a	5	-999	n/a	n/a	n/a	n/a	8	[0, 0, 0]	-999	PAL1	2	R1212P
1026.107	1.437	1066129	REC_EVENT	3572.0	n/a	5	1	BOX	<>	BOX	RUG	8	[0, 0, 0]	-999	PAL1	2	R1212P
1027.544	0.008	1067601	REC_END	n/a	n/a	5	-999	n/a	n/a	n/a	n/a	8	[0, 0, 0]	-999	PAL1	2	R1212P
1027.552	0.275	1067609	TEST_ORIENT	n/a	n/a	4	2	MAT	n/a	MAT	PEN	8	[0, 0, 0]	-999	PAL1	2	R1212P
1028.453	4.0	1068531	TEST_PROBE	n/a	wordpools/wordpool_EN.txt	4	2	MAT	n/a	MAT	PEN	8	[0, 0, 0]	-999	PAL1	2	R1212P
1028.453	3.63	1068531	REC_START	n/a	n/a	4	-999	n/a	n/a	n/a	n/a	8	[0, 0, 0]	-999	PAL1	2	R1212P
1032.083	1.387	1072248	REC_EVENT	3630.0	n/a	4	2	MAT	<>	MAT	PEN	8	[0, 0, 0]	-999	PAL1	2	R1212P
1033.47	0.017	1073668	REC_END	n/a	n/a	4	-999	n/a	n/a	n/a	n/a	8	[0, 0, 0]	-999	PAL1	2	R1212P
1033.487	0.275	1073686	TEST_ORIENT	n/a	n/a	1	3	SAIL	SALT	SAIL	PASTE	8	[0, 0, 0]	-999	PAL1	2	R1212P
1034.321	0.0	1074540	REC_START	n/a	n/a	1	-999	n/a	SALT	n/a	n/a	8	[0, 0, 0]	-999	PAL1	2	R1212P
1034.321	4.0	1074540	TEST_PROBE	n/a	wordpools/wordpool_EN.txt	1	3	SAIL	SALT	SAIL	PASTE	8	[0, 0, 0]	-999	PAL1	2	R1212P
1035.36	3.978	1075604	REC_EVENT	1039.0	n/a	1	3	SAIL	SALT	SAIL	PASTE	8	[0, 0, 0]	-999	PAL1	2	R1212P
1039.338	0.017	1079677	REC_END	n/a	n/a	1	-999	n/a	n/a	n/a	n/a	8	[0, 0, 0]	-999	PAL1	2	R1212P
1039.355	0.275	1079694	TEST_ORIENT	n/a	n/a	2	4	SALT	n/a	ROSE	SALT	8	[0, 0, 0]	-999	PAL1	2	R1212P
1040.188	4.0	1080547	TEST_PROBE	n/a	wordpools/wordpool_EN.txt	2	4	SALT	n/a	ROSE	SALT	8	[0, 0, 0]	-999	PAL1	2	R1212P
1040.188	5.015	1080547	REC_START	n/a	n/a	2	-999	n/a	n/a	n/a	n/a	8	[0, 0, 0]	-999	PAL1	2	R1212P
1045.203	0.002	1085682	REC_EVENT	5015.0	n/a	2	4	SALT	<>	ROSE	SALT	8	[0, 0, 0]	-999	PAL1	2	R1212P
1045.205	0.017	1085685	REC_END	n/a	n/a	2	-999	n/a	n/a	n/a	n/a	8	[0, 0, 0]	-999	PAL1	2	R1212P
1045.222	0.275	1085702	TEST_ORIENT	n/a	n/a	3	5	ROOT	n/a	ROOT	STRING	8	[0, 0, 0]	-999	PAL1	2	R1212P
1046.206	4.0	1086710	TEST_PROBE	n/a	wordpools/wordpool_EN.txt	3	5	ROOT	n/a	ROOT	STRING	8	[0, 0, 0]	-999	PAL1	2	R1212P
1046.206	5.015	1086710	REC_START	n/a	n/a	3	-999	n/a	n/a	n/a	n/a	8	[0, 0, 0]	-999	PAL1	2	R1212P
1051.221	0.002	1091845	REC_EVENT	5015.0	n/a	3	5	ROOT	<>	ROOT	STRING	8	[0, 0, 0]	-999	PAL1	2	R1212P
1051.223	0.017	1091847	REC_END	n/a	n/a	3	-999	n/a	n/a	n/a	n/a	8	[0, 0, 0]	-999	PAL1	2	R1212P
1051.24	0.275	1091864	TEST_ORIENT	n/a	n/a	6	6	FUDGE	n/a	HEN	FUDGE	8	[0, 0, 0]	-999	PAL1	2	R1212P
1052.073	4.0	1092717	TEST_PROBE	n/a	wordpools/wordpool_EN.txt	6	6	FUDGE	n/a	HEN	FUDGE	8	[0, 0, 0]	-999	PAL1	2	R1212P
1052.074	4.998	1092718	REC_START	n/a	n/a	6	-999	n/a	n/a	n/a	n/a	8	[0, 0, 0]	-999	PAL1	2	R1212P
1057.072	0.002	1097836	REC_EVENT	4998.0	n/a	6	6	FUDGE	<>	HEN	FUDGE	8	[0, 0, 0]	-999	PAL1	2	R1212P
1057.074	2.777	1097838	REC_END	n/a	n/a	6	-999	n/a	n/a	n/a	n/a	8	[0, 0, 0]	-999	PAL1	2	R1212P
1059.851	10.442	1100681	ENCODING_START	n/a	n/a	0	-999	n/a	n/a	n/a	n/a	9	[0, 0, 0]	-999	PAL1	2	R1212P
1070.293	0.275	1111373	STUDY_ORIENT	n/a	n/a	1	3	JUDGE	BOOK	JUDGE	BOOK	9	[0, 0, 0]	-999	PAL1	2	R1212P
1071.244	4.0	1112347	STUDY_PAIR	n/a	wordpools/wordpool_EN.txt	1	3	JUDGE	BOOK	JUDGE	BOOK	9	[0, 0, 0]	-999	PAL1	2	R1212P
1076.278	0.275	1117502	STUDY_ORIENT	n/a	n/a	2	2	STICK	n/a	STICK	WAVE	9	[0, 0, 0]	-999	PAL1	2	R1212P
1077.112	4.0	1118356	STUDY_PAIR	n/a	wordpools/wordpool_EN.txt	2	2	STICK	n/a	STICK	WAVE	9	[0, 0, 0]	-999	PAL1	2	R1212P
1082.146	0.275	1123510	STUDY_ORIENT	n/a	n/a	3	5	RAIN	MAP	MAP	RAIN	9	[0, 0, 0]	-999	PAL1	2	R1212P
1083.146	4.0	1124534	STUDY_PAIR	n/a	wordpools/wordpool_EN.txt	3	5	RAIN	MAP	MAP	RAIN	9	[0, 0, 0]	-999	PAL1	2	R1212P
1088.18	0.275	1129689	STUDY_ORIENT	n/a	n/a	4	4	FISH	n/a	FISH	TOOTH	9	[0, 0, 0]	-999	PAL1	2	R1212P
1089.097	4.0	1130628	STUDY_PAIR	n/a	wordpools/wordpool_EN.txt	4	4	FISH	n/a	FISH	TOOTH	9	[0, 0, 0]	-999	PAL1	2	R1212P
1094.115	0.275	1135766	STUDY_ORIENT	n/a	n/a	5	1	OAK	TOOTH	OAK	TOAD	9	[0, 0, 0]	-999	PAL1	2	R1212P
1095.015	4.0	1136688	STUDY_PAIR	n/a	wordpools/wordpool_EN.txt	5	1	OAK	TOOTH	OAK	TOAD	9	[0, 0, 0]	-999	PAL1	2	R1212P
1100.049	0.275	1141842	STUDY_ORIENT	n/a	n/a	6	6	NET	n/a	HOLE	NET	9	[0, 0, 0]	-999	PAL1	2	R1212P
1101.033	4.0	1142850	STUDY_PAIR	n/a	wordpools/wordpool_EN.txt	6	6	NET	n/a	HOLE	NET	9	[0, 0, 0]	-999	PAL1	2	R1212P
1105.051	0.999	1146964	START	n/a	n/a	-999	-999	n/a	n/a	n/a	n/a	9	[-999, -999, -999]	-999	PAL1	2	R1212P
1106.05	0.017	1147987	MATH_START	n/a	n/a	-999	-999	n/a	n/a	n/a	n/a	9	[0, 0, 0]	-999	PAL1	2	R1212P
1106.067	4.285	1148004	PROB	4265.0	n/a	-999	-999	n/a	n/a	n/a	n/a	9	[7, 9, 2]	18	PAL1	2	R1212P
1110.352	3.2	1152392	PROB	3171.0	n/a	-999	-999	n/a	n/a	n/a	n/a	9	[1, 8, 9]	18	PAL1	2	R1212P
1113.552	4.717	1155669	PROB	4691.0	n/a	-999	-999	n/a	n/a	n/a	n/a	9	[5, 9, 6]	20	PAL1	2	R1212P
1118.269	3.784	1160499	PROB	3750.0	n/a	-999	-999	n/a	n/a	n/a	n/a	9	[6, 7, 5]	18	PAL1	2	R1212P
1122.053	3.598	1164373	PROB	3598.0	n/a	-999	-999	n/a	n/a	n/a	n/a	9	[9, 6, 5]	20	PAL1	2	R1212P
1125.651	0.003	1168057	STOP	n/a	n/a	-999	-999	n/a	n/a	n/a	n/a	9	[-999, -999, -999]	-999	PAL1	2	R1212P
1125.654	0.0	1168061	MATH_END	n/a	n/a	-999	-999	n/a	n/a	n/a	n/a	9	[0, 0, 0]	-999	PAL1	2	R1212P
1125.654	0.017	1168061	TEST_START	n/a	n/a	-999	-999	n/a	n/a	n/a	n/a	9	[0, 0, 0]	-999	PAL1	2	R1212P
1125.671	0.275	1168078	TEST_ORIENT	n/a	n/a	5	1	OAK	TOOTH	OAK	TOAD	9	[0, 0, 0]	-999	PAL1	2	R1212P
1126.571	0.0	1168999	REC_START	n/a	n/a	5	-999	n/a	TOOTH	n/a	n/a	9	[0, 0, 0]	-999	PAL1	2	R1212P
1126.571	4.0	1168999	TEST_PROBE	n/a	wordpools/wordpool_EN.txt	5	1	OAK	TOOTH	OAK	TOAD	9	[0, 0, 0]	-999	PAL1	2	R1212P
1128.022	3.566	1170485	REC_EVENT	1451.0	n/a	5	1	OAK	TOOTH	OAK	TOAD	9	[0, 0, 0]	-999	PAL1	2	R1212P
1131.588	0.017	1174137	REC_END	n/a	n/a	5	-999	n/a	n/a	n/a	n/a	9	[0, 0, 0]	-999	PAL1	2	R1212P
1131.605	0.275	1174154	TEST_ORIENT	n/a	n/a	2	2	STICK	n/a	STICK	WAVE	9	[0, 0, 0]	-999	PAL1	2	R1212P
1132.522	4.0	1175093	TEST_PROBE	n/a	wordpools/wordpool_EN.txt	2	2	STICK	n/a	STICK	WAVE	9	[0, 0, 0]	-999	PAL1	2	R1212P
1132.523	3.877	1175094	REC_START	n/a	n/a	2	-999	n/a	n/a	n/a	n/a	9	[0, 0, 0]	-999	PAL1	2	R1212P
1136.4	1.132	1179064	REC_EVENT	3877.0	n/a	2	2	STICK	<>	STICK	WAVE	9	[0, 0, 0]	-999	PAL1	2	R1212P
1137.532	0.008	1180223	REC_END	n/a	n/a	2	-999	n/a	n/a	n/a	n/a	9	[0, 0, 0]	-999	PAL1	2	R1212P
1137.54	0.275	1180231	TEST_ORIENT	n/a	n/a	1	3	JUDGE	BOOK	JUDGE	BOOK	9	[0, 0, 0]	-999	PAL1	2	R1212P
1138.391	4.0	1181103	TEST_PROBE	n/a	wordpools/wordpool_EN.txt	1	3	JUDGE	BOOK	JUDGE	BOOK	9	[0, 0, 0]	-999	PAL1	2	R1212P
1138.391	1.505	1181103	REC_START	n/a	n/a	1	-999	n/a	BOOK	n/a	n/a	9	[0, 0, 0]	-999	PAL1	2	R1212P
1139.896	3.512	1182644	REC_EVENT	1505.0	n/a	1	3	JUDGE	BOOK	JUDGE	BOOK	9	[0, 0, 0]	-999	PAL1	2	R1212P
1143.408	0.017	1186240	REC_END	n/a	n/a	1	-999	n/a	n/a	n/a	n/a	9	[0, 0, 0]	-999	PAL1	2	R1212P
1143.425	0.275	1186257	TEST_ORIENT	n/a	n/a	4	4	FISH	n/a	FISH	TOOTH	9	[0, 0, 0]	-999	PAL1	2	R1212P
1144.241	4.0	1187093	TEST_PROBE	n/a	wordpools/wordpool_EN.txt	4	4	FISH	n/a	FISH	TOOTH	9	[0, 0, 0]	-999	PAL1	2	R1212P
1144.241	5.015	1187093	REC_START	n/a	n/a	4	-999	n/a	n/a	n/a	n/a	9	[0, 0, 0]	-999	PAL1	2	R1212P
1149.256	0.002	1192228	REC_EVENT	5015.0	n/a	4	4	FISH	<>	FISH	TOOTH	9	[0, 0, 0]	-999	PAL1	2	R1212P
1149.258	0.017	1192230	REC_END	n/a	n/a	4	-999	n/a	n/a	n/a	n/a	9	[0, 0, 0]	-999	PAL1	2	R1212P
1149.275	0.275	1192247	TEST_ORIENT	n/a	n/a	3	5	RAIN	MAP	MAP	RAIN	9	[0, 0, 0]	-999	PAL1	2	R1212P
1150.31	4.0	1193307	TEST_PROBE	n/a	wordpools/wordpool_EN.txt	3	5	RAIN	MAP	MAP	RAIN	9	[0, 0, 0]	-999	PAL1	2	R1212P
1150.31	1.53	1193307	REC_START	n/a	n/a	3	-999	n/a	MAP	n/a	n/a	9	[0, 0, 0]	-999	PAL1	2	R1212P
1151.84	3.487	1194874	REC_EVENT	1530.0	n/a	3	5	RAIN	MAP	MAP	RAIN	9	[0, 0, 0]	-999	PAL1	2	R1212P
1155.327	0.017	1198444	REC_END	n/a	n/a	3	-999	n/a	n/a	n/a	n/a	9	[0, 0, 0]	-999	PAL1	2	R1212P
1155.344	0.275	1198462	TEST_ORIENT	n/a	n/a	6	6	NET	n/a	HOLE	NET	9	[0, 0, 0]	-999	PAL1	2	R1212P
1156.293	4.0	1199433	TEST_PROBE	n/a	wordpools/wordpool_EN.txt	6	6	NET	n/a	HOLE	NET	9	[0, 0, 0]	-999	PAL1	2	R1212P
1156.294	5.009	1199434	REC_START	n/a	n/a	6	-999	n/a	n/a	n/a	n/a	9	[0, 0, 0]	-999	PAL1	2	R1212P
1161.303	0.0	1204563	REC_END	n/a	n/a	6	-999	n/a	n/a	n/a	n/a	9	[0, 0, 0]	-999	PAL1	2	R1212P
1161.303	44.276	1204563	REC_EVENT	5009.0	n/a	6	6	NET	<>	HOLE	NET	9	[0, 0, 0]	-999	PAL1	2	R1212P
1205.579	10.442	1249900	ENCODING_START	n/a	n/a	0	-999	n/a	n/a	n/a	n/a	10	[0, 0, 0]	-999	PAL1	2	R1212P
1216.021	0.275	1260592	STUDY_ORIENT	n/a	n/a	1	5	CART	n/a	TOY	CART	10	[0, 0, 0]	-999	PAL1	2	R1212P
1216.838	4.0	1261429	STUDY_PAIR	n/a	wordpools/wordpool_EN.txt	1	5	CART	n/a	TOY	CART	10	[0, 0, 0]	-999	PAL1	2	R1212P
1221.856	0.275	1266567	STUDY_ORIENT	n/a	n/a	2	6	COW	n/a	SKI	COW	10	[0, 0, 0]	-999	PAL1	2	R1212P
1222.656	4.0	1267386	STUDY_PAIR	n/a	wordpools/wordpool_EN.txt	2	6	COW	n/a	SKI	COW	10	[0, 0, 0]	-999	PAL1	2	R1212P
1227.674	0.275	1272524	STUDY_ORIENT	n/a	n/a	3	1	SWORD	n/a	WORM	SWORD	10	[0, 0, 0]	-999	PAL1	2	R1212P
1228.457	4.0	1273326	STUDY_PAIR	n/a	wordpools/wordpool_EN.txt	3	1	SWORD	n/a	WORM	SWORD	10	[0, 0, 0]	-999	PAL1	2	R1212P
1233.475	0.275	1278464	STUDY_ORIENT	n/a	n/a	4	2	STOOL	n/a	CLOUD	STOOL	10	[0, 0, 0]	-999	PAL1	2	R1212P
1234.475	4.0	1279488	STUDY_PAIR	n/a	wordpools/wordpool_EN.txt	4	2	STOOL	n/a	CLOUD	STOOL	10	[0, 0, 0]	-999	PAL1	2	R1212P
1239.509	0.275	1284643	STUDY_ORIENT	n/a	n/a	5	3	MOUSE	n/a	BEAR	MOUSE	10	[0, 0, 0]	-999	PAL1	2	R1212P
1240.327	4.0	1285480	STUDY_PAIR	n/a	wordpools/wordpool_EN.txt	5	3	MOUSE	n/a	BEAR	MOUSE	10	[0, 0, 0]	-999	PAL1	2	R1212P
1245.345	0.275	1290618	STUDY_ORIENT	n/a	n/a	6	4	SMILE	n/a	STEM	SMILE	10	[0, 0, 0]	-999	PAL1	2	R1212P
1246.277	4.0	1291573	STUDY_PAIR	n/a	wordpools/wordpool_EN.txt	6	4	SMILE	n/a	STEM	SMILE	10	[0, 0, 0]	-999	PAL1	2	R1212P
1250.278	1.0	1295670	START	n/a	n/a	-999	-999	n/a	n/a	n/a	n/a	10	[-999, -999, -999]	-999	PAL1	2	R1212P
1251.278	0.017	1296694	MATH_START	n/a	n/a	-999	-999	n/a	n/a	n/a	n/a	10	[0, 0, 0]	-999	PAL1	2	R1212P
1251.295	3.517	1296711	PROB	3492.0	n/a	-999	-999	n/a	n/a	n/a	n/a	10	[4, 4, 3]	11	PAL1	2	R1212P
1254.812	2.384	1300312	PROB	2351.0	n/a	-999	-999	n/a	n/a	n/a	n/a	10	[1, 3, 3]	7	PAL1	2	R1212P
1257.196	3.851	1302753	PROB	3831.0	n/a	-999	-999	n/a	n/a	n/a	n/a	10	[3, 6, 9]	18	PAL1	2	R1212P
1261.047	2.45	1306697	PROB	2428.0	n/a	-999	-999	n/a	n/a	n/a	n/a	10	[1, 8, 9]	18	PAL1	2	R1212P
1263.497	4.919	1309205	PROB	4891.0	n/a	-999	-999	n/a	n/a	n/a	n/a	10	[5, 9, 7]	21	PAL1	2	R1212P
1268.416	5.619	1314242	PROB	5619.0	n/a	-999	-999	n/a	n/a	n/a	n/a	10	[4, 6, 6]	16	PAL1	2	R1212P
1274.035	0.014	1319996	STOP	n/a	n/a	-999	-999	n/a	n/a	n/a	n/a	10	[-999, -999, -999]	-999	PAL1	2	R1212P
1274.049	0.0	1320010	MATH_END	n/a	n/a	-999	-999	n/a	n/a	n/a	n/a	10	[0, 0, 0]	-999	PAL1	2	R1212P
1274.049	0.017	1320010	TEST_START	n/a	n/a	-999	-999	n/a	n/a	n/a	n/a	10	[0, 0, 0]	-999	PAL1	2	R1212P
1274.066	0.275	1320027	TEST_ORIENT	n/a	n/a	3	1	SWORD	n/a	WORM	SWORD	10	[0, 0, 0]	-999	PAL1	2	R1212P
1274.949	4.0	1320932	TEST_PROBE	n/a	wordpools/wordpool_EN.txt	3	1	SWORD	n/a	WORM	SWORD	10	[0, 0, 0]	-999	PAL1	2	R1212P
1274.95	5.009	1320933	REC_START	n/a	n/a	3	-999	n/a	n/a	n/a	n/a	10	[0, 0, 0]	-999	PAL1	2	R1212P
1279.959	0.0	1326062	REC_EVENT	5009.0	n/a	3	1	SWORD	<>	WORM	SWORD	10	[0, 0, 0]	-999	PAL1	2	R1212P
1279.959	0.008	1326062	REC_END	n/a	n/a	3	-999	n/a	n/a	n/a	n/a	10	[0, 0, 0]	-999	PAL1	2	R1212P
1279.967	0.275	1326070	TEST_ORIENT	n/a	n/a	4	2	STOOL	n/a	CLOUD	STOOL	10	[0, 0, 0]	-999	PAL1	2	R1212P
1280.901	4.0	1327026	TEST_PROBE	n/a	wordpools/wordpool_EN.txt	4	2	STOOL	n/a	CLOUD	STOOL	10	[0, 0, 0]	-999	PAL1	2	R1212P
1280.901	5.021	1327026	REC_START	n/a	n/a	4	-999	n/a	n/a	n/a	n/a	10	[0, 0, 0]	-999	PAL1	2	R1212P
1285.922	0.004	1332167	REC_EVENT	5021.0	n/a	4	2	STOOL	<>	CLOUD	STOOL	10	[0, 0, 0]	-999	PAL1	2	R1212P
1285.926	0.009	1332171	REC_END	n/a	n/a	4	-999	n/a	n/a	n/a	n/a	10	[0, 0, 0]	-999	PAL1	2	R1212P
1285.935	0.275	1332181	TEST_ORIENT	n/a	n/a	5	3	MOUSE	n/a	BEAR	MOUSE	10	[0, 0, 0]	-999	PAL1	2	R1212P
1286.735	4.0	1333000	TEST_PROBE	n/a	wordpools/wordpool_EN.txt	5	3	MOUSE	n/a	BEAR	MOUSE	10	[0, 0, 0]	-999	PAL1	2	R1212P
1286.736	1.601	1333001	REC_START	n/a	n/a	5	-999	n/a	n/a	n/a	n/a	10	[0, 0, 0]	-999	PAL1	2	R1212P
1288.337	3.407	1334640	REC_EVENT	1601.0	n/a	5	3	MOUSE	<>	BEAR	MOUSE	10	[0, 0, 0]	-999	PAL1	2	R1212P
1291.744	0.009	1338129	REC_END	n/a	n/a	5	-999	n/a	n/a	n/a	n/a	10	[0, 0, 0]	-999	PAL1	2	R1212P
1291.753	0.275	1338138	TEST_ORIENT	n/a	n/a	6	4	SMILE	n/a	STEM	SMILE	10	[0, 0, 0]	-999	PAL1	2	R1212P
1292.703	4.0	1339111	TEST_PROBE	n/a	wordpools/wordpool_EN.txt	6	4	SMILE	n/a	STEM	SMILE	10	[0, 0, 0]	-999	PAL1	2	R1212P
1292.703	2.968	1339111	REC_START	n/a	n/a	6	-999	n/a	n/a	n/a	n/a	10	[0, 0, 0]	-999	PAL1	2	R1212P
1295.671	2.049	1342150	REC_EVENT	2968.0	n/a	6	4	SMILE	<>	STEM	SMILE	10	[0, 0, 0]	-999	PAL1	2	R1212P
1297.72	0.017	1344248	REC_END	n/a	n/a	6	-999	n/a	n/a	n/a	n/a	10	[0, 0, 0]	-999	PAL1	2	R1212P
1297.737	0.275	1344265	TEST_ORIENT	n/a	n/a	1	5	CART	n/a	TOY	CART	10	[0, 0, 0]	-999	PAL1	2	R1212P
1298.537	4.0	1345085	TEST_PROBE	n/a	wordpools/wordpool_EN.txt	1	5	CART	n/a	TOY	CART	10	[0, 0, 0]	-999	PAL1	2	R1212P
1298.538	5.009	1345086	REC_START	n/a	n/a	1	-999	n/a	n/a	n/a	n/a	10	[0, 0, 0]	-999	PAL1	2	R1212P
1303.547	0.001	1350215	REC_EVENT	5009.0	n/a	1	5	CART	<>	TOY	CART	10	[0, 0, 0]	-999	PAL1	2	R1212P
1303.548	0.007	1350216	REC_END	n/a	n/a	1	-999	n/a	n/a	n/a	n/a	10	[0, 0, 0]	-999	PAL1	2	R1212P
1303.555	0.275	1350223	TEST_ORIENT	n/a	n/a	2	6	COW	n/a	SKI	COW	10	[0, 0, 0]	-999	PAL1	2	R1212P
1304.423	4.0	1351112	TEST_PROBE	n/a	wordpools/wordpool_EN.txt	2	6	COW	n/a	SKI	COW	10	[0, 0, 0]	-999	PAL1	2	R1212P
1304.424	5.021	1351113	REC_START	n/a	n/a	2	-999	n/a	n/a	n/a	n/a	10	[0, 0, 0]	-999	PAL1	2	R1212P
1309.445	0.003	1356254	REC_EVENT	5021.0	n/a	2	6	COW	<>	SKI	COW	10	[0, 0, 0]	-999	PAL1	2	R1212P
1309.448	55.363	1356257	REC_END	n/a	n/a	2	-999	n/a	n/a	n/a	n/a	10	[0, 0, 0]	-999	PAL1	2	R1212P
1364.811	10.441	1412946	ENCODING_START	n/a	n/a	0	-999	n/a	n/a	n/a	n/a	11	[0, 0, 0]	-999	PAL1	2	R1212P
1375.252	0.275	1423637	STUDY_ORIENT	n/a	n/a	1	1	EAR	RAKE	RAKE	EAR	11	[0, 0, 0]	-999	PAL1	2	R1212P
1376.086	4.0	1424491	STUDY_PAIR	n/a	wordpools/wordpool_EN.txt	1	1	EAR	RAKE	RAKE	EAR	11	[0, 0, 0]	-999	PAL1	2	R1212P
1381.12	0.275	1429646	STUDY_ORIENT	n/a	n/a	2	4	SMOKE	n/a	BAND	SMOKE	11	[0, 0, 0]	-999	PAL1	2	R1212P
1382.054	4.0	1430602	STUDY_PAIR	n/a	wordpools/wordpool_EN.txt	2	4	SMOKE	n/a	BAND	SMOKE	11	[0, 0, 0]	-999	PAL1	2	R1212P
1387.088	0.275	1435757	STUDY_ORIENT	n/a	n/a	3	5	FOOD	n/a	FOOD	SPEAR	11	[0, 0, 0]	-999	PAL1	2	R1212P
1387.938	4.0	1436627	STUDY_PAIR	n/a	wordpools/wordpool_EN.txt	3	5	FOOD	n/a	FOOD	SPEAR	11	[0, 0, 0]	-999	PAL1	2	R1212P
1392.972	0.275	1441781	STUDY_ORIENT	n/a	n/a	4	6	PEARL	n/a	THUMB	PEARL	11	[0, 0, 0]	-999	PAL1	2	R1212P
1393.972	4.0	1442805	STUDY_PAIR	n/a	wordpools/wordpool_EN.txt	4	6	PEARL	n/a	THUMB	PEARL	11	[0, 0, 0]	-999	PAL1	2	R1212P
1398.99	0.275	1447944	STUDY_ORIENT	n/a	n/a	5	3	CAPE	GATE	GATE	CAPE	11	[0, 0, 0]	-999	PAL1	2	R1212P
1399.79	4.0	1448763	STUDY_PAIR	n/a	wordpools/wordpool_EN.txt	5	3	CAPE	GATE	GATE	CAPE	11	[0, 0, 0]	-999	PAL1	2	R1212P
1404.808	0.275	1453901	STUDY_ORIENT	n/a	n/a	6	2	SLEEVE	WHALE	WHALE	SLEEVE	11	[0, 0, 0]	-999	PAL1	2	R1212P
1405.625	4.0	1454738	STUDY_PAIR	n/a	wordpools/wordpool_EN.txt	6	2	SLEEVE	WHALE	WHALE	SLEEVE	11	[0, 0, 0]	-999	PAL1	2	R1212P
1409.643	0.999	1458852	START	n/a	n/a	-999	-999	n/a	n/a	n/a	n/a	11	[-999, -999, -999]	-999	PAL1	2	R1212P
1410.642	0.017	1459875	MATH_START	n/a	n/a	-999	-999	n/a	n/a	n/a	n/a	11	[0, 0, 0]	-999	PAL1	2	R1212P
1410.659	3.785	1459892	PROB	3761.0	n/a	-999	-999	n/a	n/a	n/a	n/a	11	[8, 3, 4]	15	PAL1	2	R1212P
1414.444	4.868	1463768	PROB	4847.0	n/a	-999	-999	n/a	n/a	n/a	n/a	11	[6, 9, 7]	22	PAL1	2	R1212P
1419.312	3.067	1468752	PROB	3044.0	n/a	-999	-999	n/a	n/a	n/a	n/a	11	[9, 1, 8]	18	PAL1	2	R1212P
1422.379	2.699	1471893	PROB	2680.0	n/a	-999	-999	n/a	n/a	n/a	n/a	11	[2, 7, 1]	10	PAL1	2	R1212P
1425.078	3.068	1474657	PROB	3045.0	n/a	-999	-999	n/a	n/a	n/a	n/a	11	[7, 2, 4]	13	PAL1	2	R1212P
1428.146	3.833	1477798	PROB	3833.0	n/a	-999	-999	n/a	n/a	n/a	n/a	11	[3, 8, 5]	16	PAL1	2	R1212P
1431.979	0.017	1481723	STOP	n/a	n/a	-999	-999	n/a	n/a	n/a	n/a	11	[-999, -999, -999]	-999	PAL1	2	R1212P
1431.996	0.0	1481740	TEST_START	n/a	n/a	-999	-999	n/a	n/a	n/a	n/a	11	[0, 0, 0]	-999	PAL1	2	R1212P
1431.996	0.017	1481740	MATH_END	n/a	n/a	-999	-999	n/a	n/a	n/a	n/a	11	[0, 0, 0]	-999	PAL1	2	R1212P
1432.013	0.275	1481758	TEST_ORIENT	n/a	n/a	1	1	EAR	RAKE	RAKE	EAR	11	[0, 0, 0]	-999	PAL1	2	R1212P
1432.88	4.0	1482645	TEST_PROBE	n/a	wordpools/wordpool_EN.txt	1	1	EAR	RAKE	RAKE	EAR	11	[0, 0, 0]	-999	PAL1	2	R1212P
1432.88	1.571	1482645	REC_START	n/a	n/a	1	-999	n/a	RAKE	n/a	n/a	11	[0, 0, 0]	-999	PAL1	2	R1212P
1434.451	3.446	1484254	REC_EVENT	1571.0	n/a	1	1	EAR	RAKE	RAKE	EAR	11	[0, 0, 0]	-999	PAL1	2	R1212P
1437.897	0.017	1487783	REC_END	n/a	n/a	1	-999	n/a	n/a	n/a	n/a	11	[0, 0, 0]	-999	PAL1	2	R1212P
1437.914	0.275	1487800	TEST_ORIENT	n/a	n/a	6	2	SLEEVE	WHALE	WHALE	SLEEVE	11	[0, 0, 0]	-999	PAL1	2	R1212P
1438.764	4.0	1488670	TEST_PROBE	n/a	wordpools/wordpool_EN.txt	6	2	SLEEVE	WHALE	WHALE	SLEEVE	11	[0, 0, 0]	-999	PAL1	2	R1212P
1438.765	1.057	1488671	REC_START	n/a	n/a	6	-999	n/a	WHALE	n/a	n/a	11	[0, 0, 0]	-999	PAL1	2	R1212P
1439.822	3.943	1489754	REC_EVENT	1057.0	n/a	6	2	SLEEVE	WHALE	WHALE	SLEEVE	11	[0, 0, 0]	-999	PAL1	2	R1212P
1443.765	0.017	1493791	REC_END	n/a	n/a	6	-999	n/a	n/a	n/a	n/a	11	[0, 0, 0]	-999	PAL1	2	R1212P
1443.782	0.275	1493809	TEST_ORIENT	n/a	n/a	5	3	CAPE	GATE	GATE	CAPE	11	[0, 0, 0]	-999	PAL1	2	R1212P
1444.599	4.0	1494645	TEST_PROBE	n/a	wordpools/wordpool_EN.txt	5	3	CAPE	GATE	GATE	CAPE	11	[0, 0, 0]	-999	PAL1	2	R1212P
1444.599	1.299	1494645	REC_START	n/a	n/a	5	-999	n/a	GATE	n/a	n/a	11	[0, 0, 0]	-999	PAL1	2	R1212P
1445.898	3.718	1495975	REC_EVENT	1299.0	n/a	5	3	CAPE	GATE	GATE	CAPE	11	[0, 0, 0]	-999	PAL1	2	R1212P
1449.616	0.017	1499782	REC_END	n/a	n/a	5	-999	n/a	n/a	n/a	n/a	11	[0, 0, 0]	-999	PAL1	2	R1212P
1449.633	0.275	1499800	TEST_ORIENT	n/a	n/a	2	4	SMOKE	n/a	BAND	SMOKE	11	[0, 0, 0]	-999	PAL1	2	R1212P
1450.517	0.0	1500705	REC_START	n/a	n/a	2	-999	n/a	n/a	n/a	n/a	11	[0, 0, 0]	-999	PAL1	2	R1212P
1450.517	4.0	1500705	TEST_PROBE	n/a	wordpools/wordpool_EN.txt	2	4	SMOKE	n/a	BAND	SMOKE	11	[0, 0, 0]	-999	PAL1	2	R1212P
1453.468	2.076	1503727	REC_EVENT	2951.0	n/a	2	4	SMOKE	<>	BAND	SMOKE	11	[0, 0, 0]	-999	PAL1	2	R1212P
1455.544	0.007	1505852	REC_END	n/a	n/a	2	-999	n/a	n/a	n/a	n/a	11	[0, 0, 0]	-999	PAL1	2	R1212P
1455.551	0.275	1505859	TEST_ORIENT	n/a	n/a	3	5	FOOD	n/a	FOOD	SPEAR	11	[0, 0, 0]	-999	PAL1	2	R1212P
1456.452	4.0	1506782	TEST_PROBE	n/a	wordpools/wordpool_EN.txt	3	5	FOOD	n/a	FOOD	SPEAR	11	[0, 0, 0]	-999	PAL1	2	R1212P
1456.453	2.25	1506783	REC_START	n/a	n/a	3	-999	n/a	n/a	n/a	n/a	11	[0, 0, 0]	-999	PAL1	2	R1212P
1458.703	2.765	1509087	REC_EVENT	2250.0	n/a	3	5	FOOD	<>	FOOD	SPEAR	11	[0, 0, 0]	-999	PAL1	2	R1212P
1461.468	0.017	1511918	REC_END	n/a	n/a	3	-999	n/a	n/a	n/a	n/a	11	[0, 0, 0]	-999	PAL1	2	R1212P
1461.485	0.275	1511936	TEST_ORIENT	n/a	n/a	4	6	PEARL	n/a	THUMB	PEARL	11	[0, 0, 0]	-999	PAL1	2	R1212P
1462.37	4.0	1512842	TEST_PROBE	n/a	wordpools/wordpool_EN.txt	4	6	PEARL	n/a	THUMB	PEARL	11	[0, 0, 0]	-999	PAL1	2	R1212P
1462.371	5.026	1512843	REC_START	n/a	n/a	4	-999	n/a	n/a	n/a	n/a	11	[0, 0, 0]	-999	PAL1	2	R1212P
1467.397	0.001	1517989	REC_END	n/a	n/a	4	-999	n/a	n/a	n/a	n/a	11	[0, 0, 0]	-999	PAL1	2	R1212P
1467.398	2.197	1517990	REC_EVENT	5027.0	n/a	4	6	PEARL	<>	THUMB	PEARL	11	[0, 0, 0]	-999	PAL1	2	R1212P
1469.595	10.444	1520240	ENCODING_START	n/a	n/a	0	-999	n/a	n/a	n/a	n/a	12	[0, 0, 0]	-999	PAL1	2	R1212P
1480.039	0.275	1530934	STUDY_ORIENT	n/a	n/a	1	5	BED	n/a	BED	SIGN	12	[0, 0, 0]	-999	PAL1	2	R1212P
1480.906	4.0	1531822	STUDY_PAIR	n/a	wordpools/wordpool_EN.txt	1	5	BED	n/a	BED	SIGN	12	[0, 0, 0]	-999	PAL1	2	R1212P
1485.94	0.275	1536976	STUDY_ORIENT	n/a	n/a	2	4	MOUTH	n/a	CORD	MOUTH	12	[0, 0, 0]	-999	PAL1	2	R1212P
1486.724	4.0	1537779	STUDY_PAIR	n/a	wordpools/wordpool_EN.txt	2	4	MOUTH	n/a	CORD	MOUTH	12	[0, 0, 0]	-999	PAL1	2	R1212P
1491.758	0.275	1542934	STUDY_ORIENT	n/a	n/a	3	1	TRASH	CROW	CROW	TRASH	12	[0, 0, 0]	-999	PAL1	2	R1212P
1492.775	4.0	1543975	STUDY_PAIR	n/a	wordpools/wordpool_EN.txt	3	1	TRASH	CROW	CROW	TRASH	12	[0, 0, 0]	-999	PAL1	2	R1212P
1497.809	0.275	1549130	STUDY_ORIENT	n/a	n/a	4	2	DOLL	LIP	DOLL	LIP	12	[0, 0, 0]	-999	PAL1	2	R1212P
1498.809	4.0	1550154	STUDY_PAIR	n/a	wordpools/wordpool_EN.txt	4	2	DOLL	LIP	DOLL	LIP	12	[0, 0, 0]	-999	PAL1	2	R1212P
1503.827	0.275	1555292	STUDY_ORIENT	n/a	n/a	5	3	FOX	n/a	FOX	MOON	12	[0, 0, 0]	-999	PAL1	2	R1212P
1504.844	4.0	1556333	STUDY_PAIR	n/a	wordpools/wordpool_EN.txt	5	3	FOX	n/a	FOX	MOON	12	[0, 0, 0]	-999	PAL1	2	R1212P
1509.878	0.275	1561488	STUDY_ORIENT	n/a	n/a	6	6	DOG	n/a	SUIT	DOG	12	[0, 0, 0]	-999	PAL1	2	R1212P
1510.845	4.0	1562478	STUDY_PAIR	n/a	wordpools/wordpool_EN.txt	6	6	DOG	n/a	SUIT	DOG	12	[0, 0, 0]	-999	PAL1	2	R1212P
1514.863	0.999	1566592	START	n/a	n/a	-999	-999	n/a	n/a	n/a	n/a	12	[-999, -999, -999]	-999	PAL1	2	R1212P
1515.862	0.017	1567615	MATH_START	n/a	n/a	-999	-999	n/a	n/a	n/a	n/a	12	[0, 0, 0]	-999	PAL1	2	R1212P
1515.879	4.718	1567632	PROB	4692.0	n/a	-999	-999	n/a	n/a	n/a	n/a	12	[7, 3, 2]	12	PAL1	2	R1212P
1520.597	5.284	1572463	PROB	5254.0	n/a	-999	-999	n/a	n/a	n/a	n/a	12	[6, 6, 8]	16	PAL1	2	R1212P
1525.881	7.968	1577874	PROB	7946.0	n/a	-999	-999	n/a	n/a	n/a	n/a	12	[1, 3, 6]	10	PAL1	2	R1212P
1533.849	2.706	1586033	PROB	2706.0	n/a	-999	-999	n/a	n/a	n/a	n/a	12	[7, 4, 3]	14	PAL1	2	R1212P
1536.555	0.011	1588804	STOP	n/a	n/a	-999	-999	n/a	n/a	n/a	n/a	12	[-999, -999, -999]	-999	PAL1	2	R1212P
1536.566	0.0	1588815	TEST_START	n/a	n/a	-999	-999	n/a	n/a	n/a	n/a	12	[0, 0, 0]	-999	PAL1	2	R1212P
1536.566	0.017	1588815	MATH_END	n/a	n/a	-999	-999	n/a	n/a	n/a	n/a	12	[0, 0, 0]	-999	PAL1	2	R1212P
1536.583	0.275	1588832	TEST_ORIENT	n/a	n/a	3	1	TRASH	CROW	CROW	TRASH	12	[0, 0, 0]	-999	PAL1	2	R1212P
1537.6	4.0	1589874	TEST_PROBE	n/a	wordpools/wordpool_EN.txt	3	1	TRASH	CROW	CROW	TRASH	12	[0, 0, 0]	-999	PAL1	2	R1212P
1537.6	1.656	1589874	REC_START	n/a	n/a	3	-999	n/a	CROW	n/a	n/a	12	[0, 0, 0]	-999	PAL1	2	R1212P
1539.256	3.361	1591569	REC_EVENT	1656.0	n/a	3	1	TRASH	CROW	CROW	TRASH	12	[0, 0, 0]	-999	PAL1	2	R1212P
1542.617	0.017	1595011	REC_END	n/a	n/a	3	-999	n/a	n/a	n/a	n/a	12	[0, 0, 0]	-999	PAL1	2	R1212P
1542.634	0.275	1595028	TEST_ORIENT	n/a	n/a	4	2	DOLL	LIP	DOLL	LIP	12	[0, 0, 0]	-999	PAL1	2	R1212P
1543.452	4.0	1595866	TEST_PROBE	n/a	wordpools/wordpool_EN.txt	4	2	DOLL	LIP	DOLL	LIP	12	[0, 0, 0]	-999	PAL1	2	R1212P
1543.453	1.976	1595867	REC_START	n/a	n/a	4	-999	n/a	LIP	n/a	n/a	12	[0, 0, 0]	-999	PAL1	2	R1212P
1545.429	3.039	1597890	REC_EVENT	1976.0	n/a	4	2	DOLL	LIP	DOLL	LIP	12	[0, 0, 0]	-999	PAL1	2	R1212P
1548.468	0.017	1601002	REC_END	n/a	n/a	4	-999	n/a	n/a	n/a	n/a	12	[0, 0, 0]	-999	PAL1	2	R1212P
1548.485	0.275	1601019	TEST_ORIENT	n/a	n/a	5	3	FOX	n/a	FOX	MOON	12	[0, 0, 0]	-999	PAL1	2	R1212P
1549.469	4.0	1602027	TEST_PROBE	n/a	wordpools/wordpool_EN.txt	5	3	FOX	n/a	FOX	MOON	12	[0, 0, 0]	-999	PAL1	2	R1212P
1549.469	5.015	1602027	REC_START	n/a	n/a	5	-999	n/a	n/a	n/a	n/a	12	[0, 0, 0]	-999	PAL1	2	R1212P
1554.484	0.002	1607162	REC_EVENT	5015.0	n/a	5	3	FOX	<>	FOX	MOON	12	[0, 0, 0]	-999	PAL1	2	R1212P
1554.486	0.017	1607164	REC_END	n/a	n/a	5	-999	n/a	n/a	n/a	n/a	12	[0, 0, 0]	-999	PAL1	2	R1212P
1554.503	0.275	1607182	TEST_ORIENT	n/a	n/a	2	4	MOUTH	n/a	CORD	MOUTH	12	[0, 0, 0]	-999	PAL1	2	R1212P
1555.454	4.0	1608155	TEST_PROBE	n/a	wordpools/wordpool_EN.txt	2	4	MOUTH	n/a	CORD	MOUTH	12	[0, 0, 0]	-999	PAL1	2	R1212P
1555.455	5.009	1608156	REC_START	n/a	n/a	2	-999	n/a	n/a	n/a	n/a	12	[0, 0, 0]	-999	PAL1	2	R1212P
1560.464	0.0	1613285	REC_EVENT	5009.0	n/a	2	4	MOUTH	<>	CORD	MOUTH	12	[0, 0, 0]	-999	PAL1	2	R1212P
1560.464	0.007	1613285	REC_END	n/a	n/a	2	-999	n/a	n/a	n/a	n/a	12	[0, 0, 0]	-999	PAL1	2	R1212P
1560.471	0.275	1613293	TEST_ORIENT	n/a	n/a	1	5	BED	n/a	BED	SIGN	12	[0, 0, 0]	-999	PAL1	2	R1212P
1561.439	4.0	1614284	TEST_PROBE	n/a	wordpools/wordpool_EN.txt	1	5	BED	n/a	BED	SIGN	12	[0, 0, 0]	-999	PAL1	2	R1212P
1561.439	5.009	1614284	REC_START	n/a	n/a	1	-999	n/a	n/a	n/a	n/a	12	[0, 0, 0]	-999	PAL1	2	R1212P
1566.448	0.007	1619413	REC_EVENT	5009.0	n/a	1	5	BED	<>	BED	SIGN	12	[0, 0, 0]	-999	PAL1	2	R1212P
1566.455	0.017	1619420	REC_END	n/a	n/a	1	-999	n/a	n/a	n/a	n/a	12	[0, 0, 0]	-999	PAL1	2	R1212P
1566.472	0.275	1619437	TEST_ORIENT	n/a	n/a	6	6	DOG	n/a	SUIT	DOG	12	[0, 0, 0]	-999	PAL1	2	R1212P
1567.39	4.0	1620377	TEST_PROBE	n/a	wordpools/wordpool_EN.txt	6	6	DOG	n/a	SUIT	DOG	12	[0, 0, 0]	-999	PAL1	2	R1212P
1567.39	5.015	1620377	REC_START	n/a	n/a	6	-999	n/a	n/a	n/a	n/a	12	[0, 0, 0]	-999	PAL1	2	R1212P
1572.405	0.002	1625512	REC_EVENT	5015.0	n/a	6	6	DOG	<>	SUIT	DOG	12	[0, 0, 0]	-999	PAL1	2	R1212P
1572.407	1.716	1625514	REC_END	n/a	n/a	6	-999	n/a	n/a	n/a	n/a	12	[0, 0, 0]	-999	PAL1	2	R1212P
1574.123	10.453	1627272	ENCODING_START	n/a	n/a	0	-999	n/a	n/a	n/a	n/a	13	[0, 0, 0]	-999	PAL1	2	R1212P
1584.576	0.275	1637975	STUDY_ORIENT	n/a	n/a	1	5	HORSE	POLE	POLE	HORSE	13	[0, 0, 0]	-999	PAL1	2	R1212P
1585.476	4.0	1638896	STUDY_PAIR	n/a	wordpools/wordpool_EN.txt	1	5	HORSE	POLE	POLE	HORSE	13	[0, 0, 0]	-999	PAL1	2	R1212P
1590.51	0.275	1644051	STUDY_ORIENT	n/a	n/a	2	2	DESK	n/a	BOY	DESK	13	[0, 0, 0]	-999	PAL1	2	R1212P
1591.51	4.0	1645075	STUDY_PAIR	n/a	wordpools/wordpool_EN.txt	2	2	DESK	n/a	BOY	DESK	13	[0, 0, 0]	-999	PAL1	2	R1212P
1596.528	0.275	1650213	STUDY_ORIENT	n/a	n/a	3	1	BANK	n/a	FARM	BANK	13	[0, 0, 0]	-999	PAL1	2	R1212P
1597.329	4.0	1651033	STUDY_PAIR	n/a	wordpools/wordpool_EN.txt	3	1	BANK	n/a	FARM	BANK	13	[0, 0, 0]	-999	PAL1	2	R1212P
1602.347	0.275	1656172	STUDY_ORIENT	n/a	n/a	4	4	CANE	n/a	SKUNK	CANE	13	[0, 0, 0]	-999	PAL1	2	R1212P
1603.162	4.0	1657006	STUDY_PAIR	n/a	wordpools/wordpool_EN.txt	4	4	CANE	n/a	SKUNK	CANE	13	[0, 0, 0]	-999	PAL1	2	R1212P
1608.18	0.275	1662144	STUDY_ORIENT	n/a	n/a	5	3	KEY	n/a	CLOCK	KEY	13	[0, 0, 0]	-999	PAL1	2	R1212P
1609.164	4.0	1663152	STUDY_PAIR	n/a	wordpools/wordpool_EN.txt	5	3	KEY	n/a	CLOCK	KEY	13	[0, 0, 0]	-999	PAL1	2	R1212P
1614.198	0.275	1668306	STUDY_ORIENT	n/a	n/a	6	6	OAR	n/a	BREAD	OAR	13	[0, 0, 0]	-999	PAL1	2	R1212P
1615.015	4.0	1669143	STUDY_PAIR	n/a	wordpools/wordpool_EN.txt	6	6	OAR	n/a	BREAD	OAR	13	[0, 0, 0]	-999	PAL1	2	R1212P
1619.033	0.999	1673257	START	n/a	n/a	-999	-999	n/a	n/a	n/a	n/a	13	[-999, -999, -999]	-999	PAL1	2	R1212P
1620.032	0.017	1674280	MATH_START	n/a	n/a	-999	-999	n/a	n/a	n/a	n/a	13	[0, 0, 0]	-999	PAL1	2	R1212P
1620.049	4.751	1674298	PROB	4722.0	n/a	-999	-999	n/a	n/a	n/a	n/a	13	[9, 9, 8]	26	PAL1	2	R1212P
1624.8	2.934	1679162	PROB	2907.0	n/a	-999	-999	n/a	n/a	n/a	n/a	13	[8, 1, 8]	17	PAL1	2	R1212P
1627.734	4.534	1682167	PROB	4509.0	n/a	-999	-999	n/a	n/a	n/a	n/a	13	[3, 9, 5]	17	PAL1	2	R1212P
1632.268	2.634	1686809	PROB	2599.0	n/a	-999	-999	n/a	n/a	n/a	n/a	13	[5, 2, 6]	6	PAL1	2	R1212P
1634.902	4.189	1689506	PROB	4189.0	n/a	-999	-999	n/a	n/a	n/a	n/a	13	[1, 4, 3]	8	PAL1	2	R1212P
1639.091	0.012	1693796	STOP	n/a	n/a	-999	-999	n/a	n/a	n/a	n/a	13	[-999, -999, -999]	-999	PAL1	2	R1212P
1639.103	0.0	1693808	MATH_END	n/a	n/a	-999	-999	n/a	n/a	n/a	n/a	13	[0, 0, 0]	-999	PAL1	2	R1212P
1639.103	0.016	1693808	TEST_START	n/a	n/a	-999	-999	n/a	n/a	n/a	n/a	13	[0, 0, 0]	-999	PAL1	2	R1212P
1639.119	0.275	1693824	TEST_ORIENT	n/a	n/a	3	1	BANK	n/a	FARM	BANK	13	[0, 0, 0]	-999	PAL1	2	R1212P
1640.053	4.0	1694781	TEST_PROBE	n/a	wordpools/wordpool_EN.txt	3	1	BANK	n/a	FARM	BANK	13	[0, 0, 0]	-999	PAL1	2	R1212P
1640.054	5.015	1694782	REC_START	n/a	n/a	3	-999	n/a	n/a	n/a	n/a	13	[0, 0, 0]	-999	PAL1	2	R1212P
1645.069	0.001	1699917	REC_EVENT	5015.0	n/a	3	1	BANK	<>	FARM	BANK	13	[0, 0, 0]	-999	PAL1	2	R1212P
1645.07	0.017	1699918	REC_END	n/a	n/a	3	-999	n/a	n/a	n/a	n/a	13	[0, 0, 0]	-999	PAL1	2	R1212P
1645.087	0.275	1699935	TEST_ORIENT	n/a	n/a	2	2	DESK	n/a	BOY	DESK	13	[0, 0, 0]	-999	PAL1	2	R1212P
1645.871	0.0	1700738	REC_START	n/a	n/a	2	-999	n/a	n/a	n/a	n/a	13	[0, 0, 0]	-999	PAL1	2	R1212P
1645.871	4.0	1700738	TEST_PROBE	n/a	wordpools/wordpool_EN.txt	2	2	DESK	n/a	BOY	DESK	13	[0, 0, 0]	-999	PAL1	2	R1212P
1650.888	0.004	1705875	REC_END	n/a	n/a	2	-999	n/a	n/a	n/a	n/a	13	[0, 0, 0]	-999	PAL1	2	R1212P
1650.892	0.013	1705879	REC_EVENT	5021.0	n/a	2	2	DESK	<>	BOY	DESK	13	[0, 0, 0]	-999	PAL1	2	R1212P
1650.905	0.275	1705893	TEST_ORIENT	n/a	n/a	5	3	KEY	n/a	CLOCK	KEY	13	[0, 0, 0]	-999	PAL1	2	R1212P
1651.939	4.0	1706951	TEST_PROBE	n/a	wordpools/wordpool_EN.txt	5	3	KEY	n/a	CLOCK	KEY	13	[0, 0, 0]	-999	PAL1	2	R1212P
1651.939	5.015	1706951	REC_START	n/a	n/a	5	-999	n/a	n/a	n/a	n/a	13	[0, 0, 0]	-999	PAL1	2	R1212P
1656.954	0.002	1712087	REC_EVENT	5015.0	n/a	5	3	KEY	<>	CLOCK	KEY	13	[0, 0, 0]	-999	PAL1	2	R1212P
1656.956	0.017	1712089	REC_END	n/a	n/a	5	-999	n/a	n/a	n/a	n/a	13	[0, 0, 0]	-999	PAL1	2	R1212P
1656.973	0.275	1712106	TEST_ORIENT	n/a	n/a	4	4	CANE	n/a	SKUNK	CANE	13	[0, 0, 0]	-999	PAL1	2	R1212P
1657.956	4.0	1713113	TEST_PROBE	n/a	wordpools/wordpool_EN.txt	4	4	CANE	n/a	SKUNK	CANE	13	[0, 0, 0]	-999	PAL1	2	R1212P
1657.957	5.009	1713114	REC_START	n/a	n/a	4	-999	n/a	n/a	n/a	n/a	13	[0, 0, 0]	-999	PAL1	2	R1212P
1662.966	0.001	1718243	REC_EVENT	5009.0	n/a	4	4	CANE	<>	SKUNK	CANE	13	[0, 0, 0]	-999	PAL1	2	R1212P
1662.967	0.007	1718244	REC_END	n/a	n/a	4	-999	n/a	n/a	n/a	n/a	13	[0, 0, 0]	-999	PAL1	2	R1212P
1662.974	0.275	1718251	TEST_ORIENT	n/a	n/a	1	5	HORSE	POLE	POLE	HORSE	13	[0, 0, 0]	-999	PAL1	2	R1212P
1663.907	4.0	1719206	TEST_PROBE	n/a	wordpools/wordpool_EN.txt	1	5	HORSE	POLE	POLE	HORSE	13	[0, 0, 0]	-999	PAL1	2	R1212P
1663.908	2.515	1719207	REC_START	n/a	n/a	1	-999	n/a	POLE	n/a	n/a	13	[0, 0, 0]	-999	PAL1	2	R1212P
1666.423	2.495	1721782	REC_EVENT	2515.0	n/a	1	5	HORSE	POLE	POLE	HORSE	13	[0, 0, 0]	-999	PAL1	2	R1212P
1668.918	0.007	1724337	REC_END	n/a	n/a	1	-999	n/a	n/a	n/a	n/a	13	[0, 0, 0]	-999	PAL1	2	R1212P
1668.925	0.275	1724344	TEST_ORIENT	n/a	n/a	6	6	OAR	n/a	BREAD	OAR	13	[0, 0, 0]	-999	PAL1	2	R1212P
1669.959	4.0	1725403	TEST_PROBE	n/a	wordpools/wordpool_EN.txt	6	6	OAR	n/a	BREAD	OAR	13	[0, 0, 0]	-999	PAL1	2	R1212P
1669.959	5.015	1725403	REC_START	n/a	n/a	6	-999	n/a	n/a	n/a	n/a	13	[0, 0, 0]	-999	PAL1	2	R1212P
1674.974	0.002	1730538	REC_EVENT	5015.0	n/a	6	6	OAR	<>	BREAD	OAR	13	[0, 0, 0]	-999	PAL1	2	R1212P
1674.976	1.483	1730540	REC_END	n/a	n/a	6	-999	n/a	n/a	n/a	n/a	13	[0, 0, 0]	-999	PAL1	2	R1212P
1676.459	10.453	1732059	ENCODING_START	n/a	n/a	0	-999	n/a	n/a	n/a	n/a	14	[0, 0, 0]	-999	PAL1	2	R1212P
1686.912	0.275	1742762	STUDY_ORIENT	n/a	n/a	1	1	ROAD	n/a	ROAD	HAND	14	[0, 0, 0]	-999	PAL1	2	R1212P
1687.895	4.0	1743769	STUDY_PAIR	n/a	wordpools/wordpool_EN.txt	1	1	ROAD	n/a	ROAD	HAND	14	[0, 0, 0]	-999	PAL1	2	R1212P
1692.913	0.275	1748907	STUDY_ORIENT	n/a	n/a	2	6	MOTH	n/a	FOAM	MOTH	14	[0, 0, 0]	-999	PAL1	2	R1212P
1693.93	4.0	1749948	STUDY_PAIR	n/a	wordpools/wordpool_EN.txt	2	6	MOTH	n/a	FOAM	MOTH	14	[0, 0, 0]	-999	PAL1	2	R1212P
1698.964	0.275	1755103	STUDY_ORIENT	n/a	n/a	3	5	SHIELD	HOOK	HOOK	SHIELD	14	[0, 0, 0]	-999	PAL1	2	R1212P
1699.814	4.0	1755973	STUDY_PAIR	n/a	wordpools/wordpool_EN.txt	3	5	SHIELD	HOOK	HOOK	SHIELD	14	[0, 0, 0]	-999	PAL1	2	R1212P
1704.832	0.275	1761111	STUDY_ORIENT	n/a	n/a	4	2	PIN	n/a	CORN	PIN	14	[0, 0, 0]	-999	PAL1	2	R1212P
1705.732	4.0	1762033	STUDY_PAIR	n/a	wordpools/wordpool_EN.txt	4	2	PIN	n/a	CORN	PIN	14	[0, 0, 0]	-999	PAL1	2	R1212P
1710.75	0.275	1767171	STUDY_ORIENT	n/a	n/a	5	3	SKY	n/a	SKY	FORT	14	[0, 0, 0]	-999	PAL1	2	R1212P
1711.683	4.0	1768126	STUDY_PAIR	n/a	wordpools/wordpool_EN.txt	5	3	SKY	n/a	SKY	FORT	14	[0, 0, 0]	-999	PAL1	2	R1212P
1716.701	0.275	1773265	STUDY_ORIENT	n/a	n/a	6	4	FORK	FOG	FORK	FOG	14	[0, 0, 0]	-999	PAL1	2	R1212P
1717.701	4.0	1774289	STUDY_PAIR	n/a	wordpools/wordpool_EN.txt	6	4	FORK	FOG	FORK	FOG	14	[0, 0, 0]	-999	PAL1	2	R1212P
1721.702	1.0	1778385	START	n/a	n/a	-999	-999	n/a	n/a	n/a	n/a	14	[-999, -999, -999]	-999	PAL1	2	R1212P
1722.702	0.017	1779409	MATH_START	n/a	n/a	-999	-999	n/a	n/a	n/a	n/a	14	[0, 0, 0]	-999	PAL1	2	R1212P
1722.719	5.351	1779427	PROB	5324.0	n/a	-999	-999	n/a	n/a	n/a	n/a	14	[2, 7, 1]	10	PAL1	2	R1212P
1728.07	3.385	1784906	PROB	3358.0	n/a	-999	-999	n/a	n/a	n/a	n/a	14	[5, 2, 8]	15	PAL1	2	R1212P
1731.455	4.5	1788372	PROB	4476.0	n/a	-999	-999	n/a	n/a	n/a	n/a	14	[5, 2, 3]	10	PAL1	2	R1212P
1735.955	5.184	1792980	PROB	5160.0	n/a	-999	-999	n/a	n/a	n/a	n/a	14	[8, 1, 5]	14	PAL1	2	R1212P
1741.139	4.744	1798288	PROB	4744.0	n/a	-999	-999	n/a	n/a	n/a	n/a	14	[5, 6, 1]	12	PAL1	2	R1212P
1745.883	0.007	1803146	STOP	n/a	n/a	-999	-999	n/a	n/a	n/a	n/a	14	[-999, -999, -999]	-999	PAL1	2	R1212P
1745.89	0.0	1803153	MATH_END	n/a	n/a	-999	-999	n/a	n/a	n/a	n/a	14	[0, 0, 0]	-999	PAL1	2	R1212P
1745.89	0.017	1803153	TEST_START	n/a	n/a	-999	-999	n/a	n/a	n/a	n/a	14	[0, 0, 0]	-999	PAL1	2	R1212P
1745.907	0.275	1803170	TEST_ORIENT	n/a	n/a	1	1	ROAD	n/a	ROAD	HAND	14	[0, 0, 0]	-999	PAL1	2	R1212P
1746.707	4.0	1803989	TEST_PROBE	n/a	wordpools/wordpool_EN.txt	1	1	ROAD	n/a	ROAD	HAND	14	[0, 0, 0]	-999	PAL1	2	R1212P
1746.707	5.015	1803989	REC_START	n/a	n/a	1	-999	n/a	n/a	n/a	n/a	14	[0, 0, 0]	-999	PAL1	2	R1212P
1751.722	0.002	1809124	REC_EVENT	5015.0	n/a	1	1	ROAD	<>	ROAD	HAND	14	[0, 0, 0]	-999	PAL1	2	R1212P
1751.724	0.017	1809127	REC_END	n/a	n/a	1	-999	n/a	n/a	n/a	n/a	14	[0, 0, 0]	-999	PAL1	2	R1212P
1751.741	0.275	1809144	TEST_ORIENT	n/a	n/a	4	2	PIN	n/a	CORN	PIN	14	[0, 0, 0]	-999	PAL1	2	R1212P
1752.625	4.0	1810049	TEST_PROBE	n/a	wordpools/wordpool_EN.txt	4	2	PIN	n/a	CORN	PIN	14	[0, 0, 0]	-999	PAL1	2	R1212P
1752.625	5.017	1810049	REC_START	n/a	n/a	4	-999	n/a	n/a	n/a	n/a	14	[0, 0, 0]	-999	PAL1	2	R1212P
1757.642	0.004	1815186	REC_END	n/a	n/a	4	-999	n/a	n/a	n/a	n/a	14	[0, 0, 0]	-999	PAL1	2	R1212P
1757.646	0.013	1815190	REC_EVENT	5021.0	n/a	4	2	PIN	<>	CORN	PIN	14	[0, 0, 0]	-999	PAL1	2	R1212P
1757.659	0.275	1815204	TEST_ORIENT	n/a	n/a	5	3	SKY	n/a	SKY	FORT	14	[0, 0, 0]	-999	PAL1	2	R1212P
1758.526	4.0	1816091	TEST_PROBE	n/a	wordpools/wordpool_EN.txt	5	3	SKY	n/a	SKY	FORT	14	[0, 0, 0]	-999	PAL1	2	R1212P
1758.526	5.015	1816091	REC_START	n/a	n/a	5	-999	n/a	n/a	n/a	n/a	14	[0, 0, 0]	-999	PAL1	2	R1212P
1763.541	0.002	1821227	REC_EVENT	5015.0	n/a	5	3	SKY	<>	SKY	FORT	14	[0, 0, 0]	-999	PAL1	2	R1212P
1763.543	0.017	1821229	REC_END	n/a	n/a	5	-999	n/a	n/a	n/a	n/a	14	[0, 0, 0]	-999	PAL1	2	R1212P
1763.56	0.275	1821246	TEST_ORIENT	n/a	n/a	6	4	FORK	FOG	FORK	FOG	14	[0, 0, 0]	-999	PAL1	2	R1212P
1764.51	4.0	1822219	TEST_PROBE	n/a	wordpools/wordpool_EN.txt	6	4	FORK	FOG	FORK	FOG	14	[0, 0, 0]	-999	PAL1	2	R1212P
1764.511	2.954	1822220	REC_START	n/a	n/a	6	-999	n/a	FOG	n/a	n/a	14	[0, 0, 0]	-999	PAL1	2	R1212P
1767.465	2.046	1825245	REC_EVENT	2954.0	n/a	6	4	FORK	FOG	FORK	FOG	14	[0, 0, 0]	-999	PAL1	2	R1212P
1769.511	0.017	1827340	REC_END	n/a	n/a	6	-999	n/a	n/a	n/a	n/a	14	[0, 0, 0]	-999	PAL1	2	R1212P
1769.528	0.275	1827357	TEST_ORIENT	n/a	n/a	3	5	SHIELD	HOOK	HOOK	SHIELD	14	[0, 0, 0]	-999	PAL1	2	R1212P
1770.429	4.0	1828280	TEST_PROBE	n/a	wordpools/wordpool_EN.txt	3	5	SHIELD	HOOK	HOOK	SHIELD	14	[0, 0, 0]	-999	PAL1	2	R1212P
1770.43	2.3	1828281	REC_START	n/a	n/a	3	-999	n/a	HOOK	n/a	n/a	14	[0, 0, 0]	-999	PAL1	2	R1212P
1772.73	0.43	1830636	REC_EVENT	2300.0	n/a	3	5	SHIELD	HOOK	HOOK	SHIELD	14	[0, 0, 0]	-999	PAL1	2	R1212P
1773.16	2.286	1831076	REC_EVENT	2730.0	n/a	3	5	SHIELD	HOOK	HOOK	SHIELD	14	[0, 0, 0]	-999	PAL1	2	R1212P
1775.446	0.016	1833417	REC_END	n/a	n/a	3	-999	n/a	n/a	n/a	n/a	14	[0, 0, 0]	-999	PAL1	2	R1212P
1775.462	0.275	1833433	TEST_ORIENT	n/a	n/a	2	6	MOTH	n/a	FOAM	MOTH	14	[0, 0, 0]	-999	PAL1	2	R1212P
1776.313	4.0	1834305	TEST_PROBE	n/a	wordpools/wordpool_EN.txt	2	6	MOTH	n/a	FOAM	MOTH	14	[0, 0, 0]	-999	PAL1	2	R1212P
1776.314	5.009	1834306	REC_START	n/a	n/a	2	-999	n/a	n/a	n/a	n/a	14	[0, 0, 0]	-999	PAL1	2	R1212P
1781.323	0.001	1839435	REC_EVENT	5009.0	n/a	2	6	MOTH	<>	FOAM	MOTH	14	[0, 0, 0]	-999	PAL1	2	R1212P
1781.324	1.423	1839436	REC_END	n/a	n/a	2	-999	n/a	n/a	n/a	n/a	14	[0, 0, 0]	-999	PAL1	2	R1212P
1782.747	10.452	1840893	ENCODING_START	n/a	n/a	0	-999	n/a	n/a	n/a	n/a	15	[0, 0, 0]	-999	PAL1	2	R1212P
1793.199	0.275	1851595	STUDY_ORIENT	n/a	n/a	1	3	LAMP	n/a	CRANE	LAMP	15	[0, 0, 0]	-999	PAL1	2	R1212P
1793.982	4.0	1852397	STUDY_PAIR	n/a	wordpools/wordpool_EN.txt	1	3	LAMP	n/a	CRANE	LAMP	15	[0, 0, 0]	-999	PAL1	2	R1212P
1799.0	0.275	1857535	STUDY_ORIENT	n/a	n/a	2	6	YARD	LAND	YARD	LAND	15	[0, 0, 0]	-999	PAL1	2	R1212P
1799.984	4.0	1858542	STUDY_PAIR	n/a	wordpools/wordpool_EN.txt	2	6	YARD	LAND	YARD	LAND	15	[0, 0, 0]	-999	PAL1	2	R1212P
1805.018	0.275	1863697	STUDY_ORIENT	n/a	n/a	3	5	STEAK	FLAME	STEAK	FLAME	15	[0, 0, 0]	-999	PAL1	2	R1212P
1806.001	4.0	1864704	STUDY_PAIR	n/a	wordpools/wordpool_EN.txt	3	5	STEAK	FLAME	STEAK	FLAME	15	[0, 0, 0]	-999	PAL1	2	R1212P
1811.019	0.275	1869842	STUDY_ORIENT	n/a	n/a	4	4	DOCK	SHIP	SHIP	DOCK	15	[0, 0, 0]	-999	PAL1	2	R1212P
1811.986	4.0	1870832	STUDY_PAIR	n/a	wordpools/wordpool_EN.txt	4	4	DOCK	SHIP	SHIP	DOCK	15	[0, 0, 0]	-999	PAL1	2	R1212P
1817.02	0.275	1875987	STUDY_ORIENT	n/a	n/a	5	1	JET	BALL	BALL	JET	15	[0, 0, 0]	-999	PAL1	2	R1212P
1817.837	4.0	1876823	STUDY_PAIR	n/a	wordpools/wordpool_EN.txt	5	1	JET	BALL	BALL	JET	15	[0, 0, 0]	-999	PAL1	2	R1212P
1822.855	0.275	1881961	STUDY_ORIENT	n/a	n/a	6	2	FENCE	n/a	BIRD	FENCE	15	[0, 0, 0]	-999	PAL1	2	R1212P
1823.672	4.0	1882798	STUDY_PAIR	n/a	wordpools/wordpool_EN.txt	6	2	FENCE	n/a	BIRD	FENCE	15	[0, 0, 0]	-999	PAL1	2	R1212P
1827.69	0.999	1886912	START	n/a	n/a	-999	-999	n/a	n/a	n/a	n/a	15	[-999, -999, -999]	-999	PAL1	2	R1212P
1828.689	0.017	1887935	MATH_START	n/a	n/a	-999	-999	n/a	n/a	n/a	n/a	15	[0, 0, 0]	-999	PAL1	2	R1212P
1828.706	4.834	1887952	PROB	4801.0	n/a	-999	-999	n/a	n/a	n/a	n/a	15	[6, 2, 9]	17	PAL1	2	R1212P
1833.54	3.902	1892902	PROB	3872.0	n/a	-999	-999	n/a	n/a	n/a	n/a	15	[6, 6, 5]	17	PAL1	2	R1212P
1837.442	4.066	1896898	PROB	4041.0	n/a	-999	-999	n/a	n/a	n/a	n/a	15	[8, 6, 1]	15	PAL1	2	R1212P
1841.508	3.184	1901061	PROB	3151.0	n/a	-999	-999	n/a	n/a	n/a	n/a	15	[6, 4, 2]	12	PAL1	2	R1212P
1844.692	3.303	1904321	PROB	3303.0	n/a	-999	-999	n/a	n/a	n/a	n/a	15	[9, 3, 9]	21	PAL1	2	R1212P
1847.995	0.015	1907703	STOP	n/a	n/a	-999	-999	n/a	n/a	n/a	n/a	15	[-999, -999, -999]	-999	PAL1	2	R1212P
1848.01	0.0	1907719	MATH_END	n/a	n/a	-999	-999	n/a	n/a	n/a	n/a	15	[0, 0, 0]	-999	PAL1	2	R1212P
1848.01	0.016	1907719	TEST_START	n/a	n/a	-999	-999	n/a	n/a	n/a	n/a	15	[0, 0, 0]	-999	PAL1	2	R1212P
1848.026	0.275	1907735	TEST_ORIENT	n/a	n/a	5	1	JET	BALL	BALL	JET	15	[0, 0, 0]	-999	PAL1	2	R1212P
1849.06	4.0	1908794	TEST_PROBE	n/a	wordpools/wordpool_EN.txt	5	1	JET	BALL	BALL	JET	15	[0, 0, 0]	-999	PAL1	2	R1212P
1849.06	1.918	1908794	REC_START	n/a	n/a	5	-999	n/a	BALL	n/a	n/a	15	[0, 0, 0]	-999	PAL1	2	R1212P
1850.978	3.099	1910758	REC_EVENT	1918.0	n/a	5	1	JET	BALL	BALL	JET	15	[0, 0, 0]	-999	PAL1	2	R1212P
1854.077	0.017	1913931	REC_END	n/a	n/a	5	-999	n/a	n/a	n/a	n/a	15	[0, 0, 0]	-999	PAL1	2	R1212P
1854.094	0.275	1913949	TEST_ORIENT	n/a	n/a	6	2	FENCE	n/a	BIRD	FENCE	15	[0, 0, 0]	-999	PAL1	2	R1212P
1854.994	4.0	1914870	TEST_PROBE	n/a	wordpools/wordpool_EN.txt	6	2	FENCE	n/a	BIRD	FENCE	15	[0, 0, 0]	-999	PAL1	2	R1212P
1854.995	5.009	1914871	REC_START	n/a	n/a	6	-999	n/a	n/a	n/a	n/a	15	[0, 0, 0]	-999	PAL1	2	R1212P
1860.004	0.001	1920000	REC_EVENT	5009.0	n/a	6	2	FENCE	<>	BIRD	FENCE	15	[0, 0, 0]	-999	PAL1	2	R1212P
1860.005	0.023	1920001	REC_END	n/a	n/a	6	-999	n/a	n/a	n/a	n/a	15	[0, 0, 0]	-999	PAL1	2	R1212P
1860.028	0.275	1920025	TEST_ORIENT	n/a	n/a	1	3	LAMP	n/a	CRANE	LAMP	15	[0, 0, 0]	-999	PAL1	2	R1212P
1860.945	4.0	1920964	TEST_PROBE	n/a	wordpools/wordpool_EN.txt	1	3	LAMP	n/a	CRANE	LAMP	15	[0, 0, 0]	-999	PAL1	2	R1212P
1860.946	5.0	1920965	REC_START	n/a	n/a	1	-999	n/a	n/a	n/a	n/a	15	[0, 0, 0]	-999	PAL1	2	R1212P
1865.946	0.003	1926084	REC_END	n/a	n/a	1	-999	n/a	n/a	n/a	n/a	15	[0, 0, 0]	-999	PAL1	2	R1212P
1865.949	0.014	1926088	REC_EVENT	5003.0	n/a	1	3	LAMP	<>	CRANE	LAMP	15	[0, 0, 0]	-999	PAL1	2	R1212P
1865.963	0.275	1926102	TEST_ORIENT	n/a	n/a	4	4	DOCK	SHIP	SHIP	DOCK	15	[0, 0, 0]	-999	PAL1	2	R1212P
1866.78	4.0	1926938	TEST_PROBE	n/a	wordpools/wordpool_EN.txt	4	4	DOCK	SHIP	SHIP	DOCK	15	[0, 0, 0]	-999	PAL1	2	R1212P
1866.78	1.36	1926938	REC_START	n/a	n/a	4	-999	n/a	SHIP	n/a	n/a	15	[0, 0, 0]	-999	PAL1	2	R1212P
1868.14	3.657	1928331	REC_EVENT	1360.0	n/a	4	4	DOCK	SHIP	SHIP	DOCK	15	[0, 0, 0]	-999	PAL1	2	R1212P
1871.797	0.017	1932076	REC_END	n/a	n/a	4	-999	n/a	n/a	n/a	n/a	15	[0, 0, 0]	-999	PAL1	2	R1212P
1871.814	0.275	1932093	TEST_ORIENT	n/a	n/a	3	5	STEAK	FLAME	STEAK	FLAME	15	[0, 0, 0]	-999	PAL1	2	R1212P
1872.814	4.0	1933117	TEST_PROBE	n/a	wordpools/wordpool_EN.txt	3	5	STEAK	FLAME	STEAK	FLAME	15	[0, 0, 0]	-999	PAL1	2	R1212P
1872.815	2.274	1933118	REC_START	n/a	n/a	3	-999	n/a	FLAME	n/a	n/a	15	[0, 0, 0]	-999	PAL1	2	R1212P
1875.089	2.736	1935446	REC_EVENT	2274.0	n/a	3	5	STEAK	FLAME	STEAK	FLAME	15	[0, 0, 0]	-999	PAL1	2	R1212P
1877.825	0.024	1938248	REC_END	n/a	n/a	3	-999	n/a	n/a	n/a	n/a	15	[0, 0, 0]	-999	PAL1	2	R1212P
1877.849	0.275	1938273	TEST_ORIENT	n/a	n/a	2	6	YARD	LAND	YARD	LAND	15	[0, 0, 0]	-999	PAL1	2	R1212P
1878.699	4.0	1939143	TEST_PROBE	n/a	wordpools/wordpool_EN.txt	2	6	YARD	LAND	YARD	LAND	15	[0, 0, 0]	-999	PAL1	2	R1212P
1878.699	2.309	1939143	REC_START	n/a	n/a	2	-999	n/a	LAND	n/a	n/a	15	[0, 0, 0]	-999	PAL1	2	R1212P
1881.008	2.708	1941507	REC_EVENT	2309.0	n/a	2	6	YARD	LAND	YARD	LAND	15	[0, 0, 0]	-999	PAL1	2	R1212P
1883.716	1.271	1944280	REC_END	n/a	n/a	2	-999	n/a	n/a	n/a	n/a	15	[0, 0, 0]	-999	PAL1	2	R1212P
1884.987	10.449	1945582	ENCODING_START	n/a	n/a	0	-999	n/a	n/a	n/a	n/a	16	[0, 0, 0]	-999	PAL1	2	R1212P
1895.436	0.275	1956281	STUDY_ORIENT	n/a	n/a	1	5	LOCK	FILM	LOCK	CONE	16	[0, 0, 0]	-999	PAL1	2	R1212P
1896.269	4.0	1957134	STUDY_PAIR	n/a	wordpools/wordpool_EN.txt	1	5	LOCK	FILM	LOCK	CONE	16	[0, 0, 0]	-999	PAL1	2	R1212P
1901.303	0.275	1962288	STUDY_ORIENT	n/a	n/a	2	6	SPRING	n/a	SPRING	TIE	16	[0, 0, 0]	-999	PAL1	2	R1212P
1902.27	4.0	1963279	STUDY_PAIR	n/a	wordpools/wordpool_EN.txt	2	6	SPRING	n/a	SPRING	TIE	16	[0, 0, 0]	-999	PAL1	2	R1212P
1907.304	0.275	1968433	STUDY_ORIENT	n/a	n/a	3	1	PET	n/a	PET	PRINCE	16	[0, 0, 0]	-999	PAL1	2	R1212P
1908.188	4.0	1969338	STUDY_PAIR	n/a	wordpools/wordpool_EN.txt	3	1	PET	n/a	PET	PRINCE	16	[0, 0, 0]	-999	PAL1	2	R1212P
1913.222	0.275	1974493	STUDY_ORIENT	n/a	n/a	4	4	BRUSH	n/a	BRUSH	ZOO	16	[0, 0, 0]	-999	PAL1	2	R1212P
1914.089	4.0	1975381	STUDY_PAIR	n/a	wordpools/wordpool_EN.txt	4	4	BRUSH	n/a	BRUSH	ZOO	16	[0, 0, 0]	-999	PAL1	2	R1212P
1919.123	0.275	1980535	STUDY_ORIENT	n/a	n/a	5	3	SHEET	n/a	GEESE	SHEET	16	[0, 0, 0]	-999	PAL1	2	R1212P
1920.123	4.0	1981559	STUDY_PAIR	n/a	wordpools/wordpool_EN.txt	5	3	SHEET	n/a	GEESE	SHEET	16	[0, 0, 0]	-999	PAL1	2	R1212P
1925.141	0.275	1986697	STUDY_ORIENT	n/a	n/a	6	2	FILM	n/a	FILM	VEST	16	[0, 0, 0]	-999	PAL1	2	R1212P
1926.058	4.0	1987636	STUDY_PAIR	n/a	wordpools/wordpool_EN.txt	6	2	FILM	n/a	FILM	VEST	16	[0, 0, 0]	-999	PAL1	2	R1212P
1930.076	0.999	1991751	START	n/a	n/a	-999	-999	n/a	n/a	n/a	n/a	16	[-999, -999, -999]	-999	PAL1	2	R1212P
1931.075	0.017	1992773	MATH_START	n/a	n/a	-999	-999	n/a	n/a	n/a	n/a	16	[0, 0, 0]	-999	PAL1	2	R1212P
1931.092	4.501	1992791	PROB	4471.0	n/a	-999	-999	n/a	n/a	n/a	n/a	16	[1, 9, 8]	18	PAL1	2	R1212P
1935.593	6.101	1997400	PROB	6066.0	n/a	-999	-999	n/a	n/a	n/a	n/a	16	[1, 8, 9]	18	PAL1	2	R1212P
1941.694	3.568	2003647	PROB	3533.0	n/a	-999	-999	n/a	n/a	n/a	n/a	16	[4, 8, 2]	14	PAL1	2	R1212P
1945.262	2.7	2007300	PROB	2669.0	n/a	-999	-999	n/a	n/a	n/a	n/a	16	[6, 5, 3]	14	PAL1	2	R1212P
1947.962	5.177	2010065	PROB	5177.0	n/a	-999	-999	n/a	n/a	n/a	n/a	16	[7, 6, 8]	21	PAL1	2	R1212P
1953.139	0.007	2015366	STOP	n/a	n/a	-999	-999	n/a	n/a	n/a	n/a	16	[-999, -999, -999]	-999	PAL1	2	R1212P
1953.146	0.0	2015373	MATH_END	n/a	n/a	-999	-999	n/a	n/a	n/a	n/a	16	[0, 0, 0]	-999	PAL1	2	R1212P
1953.146	0.017	2015373	TEST_START	n/a	n/a	-999	-999	n/a	n/a	n/a	n/a	16	[0, 0, 0]	-999	PAL1	2	R1212P
1953.163	0.275	2015391	TEST_ORIENT	n/a	n/a	3	1	PET	n/a	PET	PRINCE	16	[0, 0, 0]	-999	PAL1	2	R1212P
1953.997	0.0	2016245	REC_START	n/a	n/a	3	-999	n/a	n/a	n/a	n/a	16	[0, 0, 0]	-999	PAL1	2	R1212P
1953.997	4.0	2016245	TEST_PROBE	n/a	wordpools/wordpool_EN.txt	3	1	PET	n/a	PET	PRINCE	16	[0, 0, 0]	-999	PAL1	2	R1212P
1959.012	0.002	2021380	REC_EVENT	5015.0	n/a	3	1	PET	<>	PET	PRINCE	16	[0, 0, 0]	-999	PAL1	2	R1212P
1959.014	0.017	2021382	REC_END	n/a	n/a	3	-999	n/a	n/a	n/a	n/a	16	[0, 0, 0]	-999	PAL1	2	R1212P
1959.031	0.275	2021399	TEST_ORIENT	n/a	n/a	6	2	FILM	n/a	FILM	VEST	16	[0, 0, 0]	-999	PAL1	2	R1212P
1959.898	4.0	2022287	TEST_PROBE	n/a	wordpools/wordpool_EN.txt	6	2	FILM	n/a	FILM	VEST	16	[0, 0, 0]	-999	PAL1	2	R1212P
1959.898	2.091	2022287	REC_START	n/a	n/a	6	-999	n/a	n/a	n/a	n/a	16	[0, 0, 0]	-999	PAL1	2	R1212P
1961.989	2.926	2024428	REC_EVENT	2091.0	n/a	6	2	FILM	<>	FILM	VEST	16	[0, 0, 0]	-999	PAL1	2	R1212P
1964.915	0.017	2027424	REC_END	n/a	n/a	6	-999	n/a	n/a	n/a	n/a	16	[0, 0, 0]	-999	PAL1	2	R1212P
1964.932	0.275	2027441	TEST_ORIENT	n/a	n/a	5	3	SHEET	n/a	GEESE	SHEET	16	[0, 0, 0]	-999	PAL1	2	R1212P
1965.949	4.0	2028483	TEST_PROBE	n/a	wordpools/wordpool_EN.txt	5	3	SHEET	n/a	GEESE	SHEET	16	[0, 0, 0]	-999	PAL1	2	R1212P
1965.95	0.642	2028484	REC_START	n/a	n/a	5	-999	n/a	n/a	n/a	n/a	16	[0, 0, 0]	-999	PAL1	2	R1212P
1966.592	4.385	2029141	REC_EVENT	642.0	n/a	5	3	SHEET	<>	GEESE	SHEET	16	[0, 0, 0]	-999	PAL1	2	R1212P
1970.977	0.023	2033631	REC_END	n/a	n/a	5	-999	n/a	n/a	n/a	n/a	16	[0, 0, 0]	-999	PAL1	2	R1212P
1971.0	0.275	2033655	TEST_ORIENT	n/a	n/a	4	4	BRUSH	n/a	BRUSH	ZOO	16	[0, 0, 0]	-999	PAL1	2	R1212P
1971.95	4.0	2034628	TEST_PROBE	n/a	wordpools/wordpool_EN.txt	4	4	BRUSH	n/a	BRUSH	ZOO	16	[0, 0, 0]	-999	PAL1	2	R1212P
1971.951	5.015	2034629	REC_START	n/a	n/a	4	-999	n/a	n/a	n/a	n/a	16	[0, 0, 0]	-999	PAL1	2	R1212P
1976.966	0.001	2039764	REC_EVENT	5015.0	n/a	4	4	BRUSH	<>	BRUSH	ZOO	16	[0, 0, 0]	-999	PAL1	2	R1212P
1976.967	0.017	2039765	REC_END	n/a	n/a	4	-999	n/a	n/a	n/a	n/a	16	[0, 0, 0]	-999	PAL1	2	R1212P
1976.984	0.275	2039782	TEST_ORIENT	n/a	n/a	1	5	LOCK	FILM	LOCK	CONE	16	[0, 0, 0]	-999	PAL1	2	R1212P
1978.001	4.0	2040823	TEST_PROBE	n/a	wordpools/wordpool_EN.txt	1	5	LOCK	FILM	LOCK	CONE	16	[0, 0, 0]	-999	PAL1	2	R1212P
1978.002	3.048	2040825	REC_START	n/a	n/a	1	-999	n/a	FILM	n/a	n/a	16	[0, 0, 0]	-999	PAL1	2	R1212P
1981.05	1.962	2043946	REC_EVENT	3048.0	n/a	1	5	LOCK	FILM	LOCK	CONE	16	[0, 0, 0]	-999	PAL1	2	R1212P
1983.012	0.023	2045955	REC_END	n/a	n/a	1	-999	n/a	n/a	n/a	n/a	16	[0, 0, 0]	-999	PAL1	2	R1212P
1983.035	0.275	2045978	TEST_ORIENT	n/a	n/a	2	6	SPRING	n/a	SPRING	TIE	16	[0, 0, 0]	-999	PAL1	2	R1212P
1983.969	4.0	2046934	TEST_PROBE	n/a	wordpools/wordpool_EN.txt	2	6	SPRING	n/a	SPRING	TIE	16	[0, 0, 0]	-999	PAL1	2	R1212P
1983.97	5.015	2046935	REC_START	n/a	n/a	2	-999	n/a	n/a	n/a	n/a	16	[0, 0, 0]	-999	PAL1	2	R1212P
1988.985	0.001	2052071	REC_EVENT	5015.0	n/a	2	6	SPRING	<>	SPRING	TIE	16	[0, 0, 0]	-999	PAL1	2	R1212P
1988.986	2.45	2052072	REC_END	n/a	n/a	2	-999	n/a	n/a	n/a	n/a	16	[0, 0, 0]	-999	PAL1	2	R1212P
1991.436	10.453	2054580	ENCODING_START	n/a	n/a	0	-999	n/a	n/a	n/a	n/a	17	[0, 0, 0]	-999	PAL1	2	R1212P
2001.889	0.275	2065284	STUDY_ORIENT	n/a	n/a	1	1	WALL	n/a	PHONE	WALL	17	[0, 0, 0]	-999	PAL1	2	R1212P
2002.756	4.0	2066171	STUDY_PAIR	n/a	wordpools/wordpool_EN.txt	1	1	WALL	n/a	PHONE	WALL	17	[0, 0, 0]	-999	PAL1	2	R1212P
2007.79	0.275	2071326	STUDY_ORIENT	n/a	n/a	2	4	SEAL	n/a	SEAL	HOSE	17	[0, 0, 0]	-999	PAL1	2	R1212P
2008.574	4.0	2072129	STUDY_PAIR	n/a	wordpools/wordpool_EN.txt	2	4	SEAL	n/a	SEAL	HOSE	17	[0, 0, 0]	-999	PAL1	2	R1212P
2013.608	0.275	2077283	STUDY_ORIENT	n/a	n/a	3	3	ICE	n/a	ICE	MILK	17	[0, 0, 0]	-999	PAL1	2	R1212P
2014.508	4.0	2078205	STUDY_PAIR	n/a	wordpools/wordpool_EN.txt	3	3	ICE	n/a	ICE	MILK	17	[0, 0, 0]	-999	PAL1	2	R1212P
2019.526	0.275	2083343	STUDY_ORIENT	n/a	n/a	4	2	JUICE	JAR	JUICE	STAIR	17	[0, 0, 0]	-999	PAL1	2	R1212P
2020.36	4.0	2084197	STUDY_PAIR	n/a	wordpools/wordpool_EN.txt	4	2	JUICE	JAR	JUICE	STAIR	17	[0, 0, 0]	-999	PAL1	2	R1212P
2025.378	0.275	2089335	STUDY_ORIENT	n/a	n/a	5	5	RIB	n/a	WHEEL	RIB	17	[0, 0, 0]	-999	PAL1	2	R1212P
2026.227	4.0	2090205	STUDY_PAIR	n/a	wordpools/wordpool_EN.txt	5	5	RIB	n/a	WHEEL	RIB	17	[0, 0, 0]	-999	PAL1	2	R1212P
2031.245	0.275	2095343	STUDY_ORIENT	n/a	n/a	6	6	HAT	n/a	HAT	STORM	17	[0, 0, 0]	-999	PAL1	2	R1212P
2032.112	4.0	2096231	STUDY_PAIR	n/a	wordpools/wordpool_EN.txt	6	6	HAT	n/a	HAT	STORM	17	[0, 0, 0]	-999	PAL1	2	R1212P
2036.13	0.999	2100345	START	n/a	n/a	-999	-999	n/a	n/a	n/a	n/a	17	[-999, -999, -999]	-999	PAL1	2	R1212P
2037.129	0.017	2101368	MATH_START	n/a	n/a	-999	-999	n/a	n/a	n/a	n/a	17	[0, 0, 0]	-999	PAL1	2	R1212P
2037.146	4.067	2101385	PROB	4033.0	n/a	-999	-999	n/a	n/a	n/a	n/a	17	[1, 9, 1]	11	PAL1	2	R1212P
2041.213	3.034	2105550	PROB	3006.0	n/a	-999	-999	n/a	n/a	n/a	n/a	17	[9, 7, 4]	20	PAL1	2	R1212P
2044.247	3.384	2108656	PROB	3347.0	n/a	-999	-999	n/a	n/a	n/a	n/a	17	[8, 5, 5]	18	PAL1	2	R1212P
2047.631	2.735	2112121	PROB	2709.0	n/a	-999	-999	n/a	n/a	n/a	n/a	17	[3, 6, 3]	12	PAL1	2	R1212P
2050.366	4.5	2114922	PROB	4477.0	n/a	-999	-999	n/a	n/a	n/a	n/a	17	[3, 9, 5]	17	PAL1	2	R1212P
2054.866	5.897	2119530	PROB	5897.0	n/a	-999	-999	n/a	n/a	n/a	n/a	17	[7, 9, 4]	20	PAL1	2	R1212P
2060.763	0.004	2125568	STOP	n/a	n/a	-999	-999	n/a	n/a	n/a	n/a	17	[-999, -999, -999]	-999	PAL1	2	R1212P
2060.767	0.0	2125572	MATH_END	n/a	n/a	-999	-999	n/a	n/a	n/a	n/a	17	[0, 0, 0]	-999	PAL1	2	R1212P
2060.767	0.017	2125572	TEST_START	n/a	n/a	-999	-999	n/a	n/a	n/a	n/a	17	[0, 0, 0]	-999	PAL1	2	R1212P
2060.784	0.275	2125589	TEST_ORIENT	n/a	n/a	1	1	WALL	n/a	PHONE	WALL	17	[0, 0, 0]	-999	PAL1	2	R1212P
2061.734	4.0	2126562	TEST_PROBE	n/a	wordpools/wordpool_EN.txt	1	1	WALL	n/a	PHONE	WALL	17	[0, 0, 0]	-999	PAL1	2	R1212P
2061.735	5.015	2126563	REC_START	n/a	n/a	1	-999	n/a	n/a	n/a	n/a	17	[0, 0, 0]	-999	PAL1	2	R1212P
2066.75	0.001	2131698	REC_EVENT	5015.0	n/a	1	1	WALL	<>	PHONE	WALL	17	[0, 0, 0]	-999	PAL1	2	R1212P
2066.751	0.017	2131699	REC_END	n/a	n/a	1	-999	n/a	n/a	n/a	n/a	17	[0, 0, 0]	-999	PAL1	2	R1212P
2066.768	0.275	2131717	TEST_ORIENT	n/a	n/a	4	2	JUICE	JAR	JUICE	STAIR	17	[0, 0, 0]	-999	PAL1	2	R1212P
2067.685	4.0	2132656	TEST_PROBE	n/a	wordpools/wordpool_EN.txt	4	2	JUICE	JAR	JUICE	STAIR	17	[0, 0, 0]	-999	PAL1	2	R1212P
2067.686	3.17	2132657	REC_START	n/a	n/a	4	-999	n/a	JAR	n/a	n/a	17	[0, 0, 0]	-999	PAL1	2	R1212P
2070.856	1.857	2135903	REC_EVENT	3170.0	n/a	4	2	JUICE	JAR	JUICE	STAIR	17	[0, 0, 0]	-999	PAL1	2	R1212P
2072.713	0.023	2137804	REC_END	n/a	n/a	4	-999	n/a	n/a	n/a	n/a	17	[0, 0, 0]	-999	PAL1	2	R1212P
2072.736	0.275	2137828	TEST_ORIENT	n/a	n/a	3	3	ICE	n/a	ICE	MILK	17	[0, 0, 0]	-999	PAL1	2	R1212P
2073.753	4.0	2138869	TEST_PROBE	n/a	wordpools/wordpool_EN.txt	3	3	ICE	n/a	ICE	MILK	17	[0, 0, 0]	-999	PAL1	2	R1212P
2073.753	2.649	2138869	REC_START	n/a	n/a	3	-999	n/a	n/a	n/a	n/a	17	[0, 0, 0]	-999	PAL1	2	R1212P
2076.402	1.0	2141581	REC_EVENT	2649.0	n/a	3	3	ICE	<>	ICE	MILK	17	[0, 0, 0]	-999	PAL1	2	R1212P
2077.402	1.368	2142605	REC_EVENT	3649.0	n/a	3	3	ICE	<>	ICE	MILK	17	[0, 0, 0]	-999	PAL1	2	R1212P
2078.77	0.017	2144006	REC_END	n/a	n/a	3	-999	n/a	n/a	n/a	n/a	17	[0, 0, 0]	-999	PAL1	2	R1212P
2078.787	0.275	2144024	TEST_ORIENT	n/a	n/a	2	4	SEAL	n/a	SEAL	HOSE	17	[0, 0, 0]	-999	PAL1	2	R1212P
2079.671	4.0	2144929	TEST_PROBE	n/a	wordpools/wordpool_EN.txt	2	4	SEAL	n/a	SEAL	HOSE	17	[0, 0, 0]	-999	PAL1	2	R1212P
2079.671	5.015	2144929	REC_START	n/a	n/a	2	-999	n/a	n/a	n/a	n/a	17	[0, 0, 0]	-999	PAL1	2	R1212P
2084.686	0.002	2150064	REC_EVENT	5015.0	n/a	2	4	SEAL	<>	SEAL	HOSE	17	[0, 0, 0]	-999	PAL1	2	R1212P
2084.688	0.017	2150066	REC_END	n/a	n/a	2	-999	n/a	n/a	n/a	n/a	17	[0, 0, 0]	-999	PAL1	2	R1212P
2084.705	0.275	2150083	TEST_ORIENT	n/a	n/a	5	5	RIB	n/a	WHEEL	RIB	17	[0, 0, 0]	-999	PAL1	2	R1212P
2085.688	4.0	2151090	TEST_PROBE	n/a	wordpools/wordpool_EN.txt	5	5	RIB	n/a	WHEEL	RIB	17	[0, 0, 0]	-999	PAL1	2	R1212P
2085.689	3.138	2151091	REC_START	n/a	n/a	5	-999	n/a	n/a	n/a	n/a	17	[0, 0, 0]	-999	PAL1	2	R1212P
2088.827	1.872	2154304	REC_EVENT	3138.0	n/a	5	5	RIB	<>	WHEEL	RIB	17	[0, 0, 0]	-999	PAL1	2	R1212P
2090.699	0.007	2156221	REC_END	n/a	n/a	5	-999	n/a	n/a	n/a	n/a	17	[0, 0, 0]	-999	PAL1	2	R1212P
2090.706	0.275	2156228	TEST_ORIENT	n/a	n/a	6	6	HAT	n/a	HAT	STORM	17	[0, 0, 0]	-999	PAL1	2	R1212P
2091.606	4.0	2157150	TEST_PROBE	n/a	wordpools/wordpool_EN.txt	6	6	HAT	n/a	HAT	STORM	17	[0, 0, 0]	-999	PAL1	2	R1212P
2091.607	5.009	2157151	REC_START	n/a	n/a	6	-999	n/a	n/a	n/a	n/a	17	[0, 0, 0]	-999	PAL1	2	R1212P
2096.616	0.001	2162280	REC_EVENT	5009.0	n/a	6	6	HAT	<>	HAT	STORM	17	[0, 0, 0]	-999	PAL1	2	R1212P
2096.617	1.882	2162281	REC_END	n/a	n/a	6	-999	n/a	n/a	n/a	n/a	17	[0, 0, 0]	-999	PAL1	2	R1212P
2098.499	10.444	2164208	ENCODING_START	n/a	n/a	0	-999	n/a	n/a	n/a	n/a	18	[0, 0, 0]	-999	PAL1	2	R1212P
2108.943	0.275	2174902	STUDY_ORIENT	n/a	n/a	1	3	BARN	YARD	BARN	WAND	18	[0, 0, 0]	-999	PAL1	2	R1212P
2109.843	4.0	2175823	STUDY_PAIR	n/a	wordpools/wordpool_EN.txt	1	3	BARN	YARD	BARN	WAND	18	[0, 0, 0]	-999	PAL1	2	R1212P
2114.861	0.275	2180962	STUDY_ORIENT	n/a	n/a	2	4	GLOVE	n/a	GLOVE	SPONGE	18	[0, 0, 0]	-999	PAL1	2	R1212P
2115.861	4.0	2181986	STUDY_PAIR	n/a	wordpools/wordpool_EN.txt	2	4	GLOVE	n/a	GLOVE	SPONGE	18	[0, 0, 0]	-999	PAL1	2	R1212P
2120.895	0.275	2187140	STUDY_ORIENT	n/a	n/a	3	1	TOE	DART	DART	TOE	18	[0, 0, 0]	-999	PAL1	2	R1212P
2121.862	4.0	2188130	STUDY_PAIR	n/a	wordpools/wordpool_EN.txt	3	1	TOE	DART	DART	TOE	18	[0, 0, 0]	-999	PAL1	2	R1212P
2126.88	0.275	2193269	STUDY_ORIENT	n/a	n/a	4	6	CAVE	n/a	CAVE	SUN	18	[0, 0, 0]	-999	PAL1	2	R1212P
2127.78	4.0	2194190	STUDY_PAIR	n/a	wordpools/wordpool_EN.txt	4	6	CAVE	n/a	CAVE	SUN	18	[0, 0, 0]	-999	PAL1	2	R1212P
2132.814	0.275	2199345	STUDY_ORIENT	n/a	n/a	5	5	LEAF	n/a	LEAF	CLAY	18	[0, 0, 0]	-999	PAL1	2	R1212P
2133.798	4.0	2200352	STUDY_PAIR	n/a	wordpools/wordpool_EN.txt	5	5	LEAF	n/a	LEAF	CLAY	18	[0, 0, 0]	-999	PAL1	2	R1212P
2138.832	0.275	2205507	STUDY_ORIENT	n/a	n/a	6	2	BENCH	n/a	BENCH	TREE	18	[0, 0, 0]	-999	PAL1	2	R1212P
2139.766	4.0	2206463	STUDY_PAIR	n/a	wordpools/wordpool_EN.txt	6	2	BENCH	n/a	BENCH	TREE	18	[0, 0, 0]	-999	PAL1	2	R1212P
2143.784	0.999	2210577	START	n/a	n/a	-999	-999	n/a	n/a	n/a	n/a	18	[-999, -999, -999]	-999	PAL1	2	R1212P
2144.783	0.017	2211600	MATH_START	n/a	n/a	-999	-999	n/a	n/a	n/a	n/a	18	[0, 0, 0]	-999	PAL1	2	R1212P
2144.8	4.618	2211618	PROB	4596.0	n/a	-999	-999	n/a	n/a	n/a	n/a	18	[1, 9, 4]	14	PAL1	2	R1212P
2149.418	4.284	2216346	PROB	4257.0	n/a	-999	-999	n/a	n/a	n/a	n/a	18	[8, 3, 5]	16	PAL1	2	R1212P
2153.702	3.735	2220733	PROB	3710.0	n/a	-999	-999	n/a	n/a	n/a	n/a	18	[7, 6, 8]	21	PAL1	2	R1212P
2157.437	2.666	2224557	PROB	2638.0	n/a	-999	-999	n/a	n/a	n/a	n/a	18	[8, 3, 7]	18	PAL1	2	R1212P
2160.103	3.401	2227287	PROB	3372.0	n/a	-999	-999	n/a	n/a	n/a	n/a	18	[5, 4, 3]	12	PAL1	2	R1212P
2163.504	2.699	2230770	PROB	2699.0	n/a	-999	-999	n/a	n/a	n/a	n/a	18	[7, 3, 4]	14	PAL1	2	R1212P
2166.203	0.018	2233533	STOP	n/a	n/a	-999	-999	n/a	n/a	n/a	n/a	18	[-999, -999, -999]	-999	PAL1	2	R1212P
2166.221	0.0	2233552	TEST_START	n/a	n/a	-999	-999	n/a	n/a	n/a	n/a	18	[0, 0, 0]	-999	PAL1	2	R1212P
2166.221	0.016	2233552	MATH_END	n/a	n/a	-999	-999	n/a	n/a	n/a	n/a	18	[0, 0, 0]	-999	PAL1	2	R1212P
2166.237	0.275	2233568	TEST_ORIENT	n/a	n/a	3	1	TOE	DART	DART	TOE	18	[0, 0, 0]	-999	PAL1	2	R1212P
2167.154	4.0	2234507	TEST_PROBE	n/a	wordpools/wordpool_EN.txt	3	1	TOE	DART	DART	TOE	18	[0, 0, 0]	-999	PAL1	2	R1212P
2167.155	1.876	2234508	REC_START	n/a	n/a	3	-999	n/a	DART	n/a	n/a	18	[0, 0, 0]	-999	PAL1	2	R1212P
2169.031	3.134	2236429	REC_EVENT	1876.0	n/a	3	1	TOE	DART	DART	TOE	18	[0, 0, 0]	-999	PAL1	2	R1212P
2172.165	0.023	2239638	REC_END	n/a	n/a	3	-999	n/a	n/a	n/a	n/a	18	[0, 0, 0]	-999	PAL1	2	R1212P
2172.188	0.275	2239662	TEST_ORIENT	n/a	n/a	6	2	BENCH	n/a	BENCH	TREE	18	[0, 0, 0]	-999	PAL1	2	R1212P
2172.989	0.0	2240482	REC_START	n/a	n/a	6	-999	n/a	n/a	n/a	n/a	18	[0, 0, 0]	-999	PAL1	2	R1212P
2172.989	4.0	2240482	TEST_PROBE	n/a	wordpools/wordpool_EN.txt	6	2	BENCH	n/a	BENCH	TREE	18	[0, 0, 0]	-999	PAL1	2	R1212P
2178.016	0.0	2245629	REC_END	n/a	n/a	6	-999	n/a	n/a	n/a	n/a	18	[0, 0, 0]	-999	PAL1	2	R1212P
2178.016	0.024	2245629	REC_EVENT	5027.0	n/a	6	2	BENCH	<>	BENCH	TREE	18	[0, 0, 0]	-999	PAL1	2	R1212P
2178.04	0.275	2245654	TEST_ORIENT	n/a	n/a	1	3	BARN	YARD	BARN	WAND	18	[0, 0, 0]	-999	PAL1	2	R1212P
2179.073	4.0	2246712	TEST_PROBE	n/a	wordpools/wordpool_EN.txt	1	3	BARN	YARD	BARN	WAND	18	[0, 0, 0]	-999	PAL1	2	R1212P
2179.074	3.898	2246713	REC_START	n/a	n/a	1	-999	n/a	YARD	n/a	n/a	18	[0, 0, 0]	-999	PAL1	2	R1212P
2182.972	1.113	2250704	REC_EVENT	3898.0	n/a	1	3	BARN	YARD	BARN	WAND	18	[0, 0, 0]	-999	PAL1	2	R1212P
2184.085	0.022	2251844	REC_END	n/a	n/a	1	-999	n/a	n/a	n/a	n/a	18	[0, 0, 0]	-999	PAL1	2	R1212P
2184.107	0.275	2251866	TEST_ORIENT	n/a	n/a	2	4	GLOVE	n/a	GLOVE	SPONGE	18	[0, 0, 0]	-999	PAL1	2	R1212P
2184.974	4.0	2252754	TEST_PROBE	n/a	wordpools/wordpool_EN.txt	2	4	GLOVE	n/a	GLOVE	SPONGE	18	[0, 0, 0]	-999	PAL1	2	R1212P
2184.975	5.0	2252755	REC_START	n/a	n/a	2	-999	n/a	n/a	n/a	n/a	18	[0, 0, 0]	-999	PAL1	2	R1212P
2189.975	0.003	2257875	REC_END	n/a	n/a	2	-999	n/a	n/a	n/a	n/a	18	[0, 0, 0]	-999	PAL1	2	R1212P
2189.978	0.014	2257878	REC_EVENT	5003.0	n/a	2	4	GLOVE	<>	GLOVE	SPONGE	18	[0, 0, 0]	-999	PAL1	2	R1212P
2189.992	0.275	2257892	TEST_ORIENT	n/a	n/a	5	5	LEAF	n/a	LEAF	CLAY	18	[0, 0, 0]	-999	PAL1	2	R1212P
2191.025	4.0	2258950	TEST_PROBE	n/a	wordpools/wordpool_EN.txt	5	5	LEAF	n/a	LEAF	CLAY	18	[0, 0, 0]	-999	PAL1	2	R1212P
2191.026	5.009	2258951	REC_START	n/a	n/a	5	-999	n/a	n/a	n/a	n/a	18	[0, 0, 0]	-999	PAL1	2	R1212P
2196.035	0.001	2264080	REC_EVENT	5009.0	n/a	5	5	LEAF	<>	LEAF	CLAY	18	[0, 0, 0]	-999	PAL1	2	R1212P
2196.036	0.024	2264081	REC_END	n/a	n/a	5	-999	n/a	n/a	n/a	n/a	18	[0, 0, 0]	-999	PAL1	2	R1212P
2196.06	0.275	2264106	TEST_ORIENT	n/a	n/a	4	6	CAVE	n/a	CAVE	SUN	18	[0, 0, 0]	-999	PAL1	2	R1212P
2197.077	0.0	2265147	REC_START	n/a	n/a	4	-999	n/a	n/a	n/a	n/a	18	[0, 0, 0]	-999	PAL1	2	R1212P
2197.077	4.0	2265147	TEST_PROBE	n/a	wordpools/wordpool_EN.txt	4	6	CAVE	n/a	CAVE	SUN	18	[0, 0, 0]	-999	PAL1	2	R1212P
2202.104	0.0	2270294	REC_EVENT	5027.0	n/a	4	6	CAVE	<>	CAVE	SUN	18	[0, 0, 0]	-999	PAL1	2	R1212P
2202.104	1.755	2270294	REC_END	n/a	n/a	4	-999	n/a	n/a	n/a	n/a	18	[0, 0, 0]	-999	PAL1	2	R1212P
2203.859	10.438	2272091	ENCODING_START	n/a	n/a	0	-999	n/a	n/a	n/a	n/a	19	[0, 0, 0]	-999	PAL1	2	R1212P
2214.297	0.275	2282779	STUDY_ORIENT	n/a	n/a	1	1	WEB	n/a	WEB	DRESS	19	[0, 0, 0]	-999	PAL1	2	R1212P
2215.163	4.0	2283666	STUDY_PAIR	n/a	wordpools/wordpool_EN.txt	1	1	WEB	n/a	WEB	DRESS	19	[0, 0, 0]	-999	PAL1	2	R1212P
2220.181	0.275	2288804	STUDY_ORIENT	n/a	n/a	2	4	PLATE	n/a	PLATE	CHEEK	19	[0, 0, 0]	-999	PAL1	2	R1212P
2221.165	4.0	2289812	STUDY_PAIR	n/a	wordpools/wordpool_EN.txt	2	4	PLATE	n/a	PLATE	CHEEK	19	[0, 0, 0]	-999	PAL1	2	R1212P
2226.199	0.275	2294966	STUDY_ORIENT	n/a	n/a	3	3	RAT	n/a	RAT	BATH	19	[0, 0, 0]	-999	PAL1	2	R1212P
2226.982	4.0	2295768	STUDY_PAIR	n/a	wordpools/wordpool_EN.txt	3	3	RAT	n/a	RAT	BATH	19	[0, 0, 0]	-999	PAL1	2	R1212P
2232.0	0.275	2300906	STUDY_ORIENT	n/a	n/a	4	2	TAIL	n/a	STAR	TAIL	19	[0, 0, 0]	-999	PAL1	2	R1212P
2232.867	4.0	2301794	STUDY_PAIR	n/a	wordpools/wordpool_EN.txt	4	2	TAIL	n/a	STAR	TAIL	19	[0, 0, 0]	-999	PAL1	2	R1212P
2237.901	0.275	2306949	STUDY_ORIENT	n/a	n/a	5	5	HORN	n/a	HAWK	HORN	19	[0, 0, 0]	-999	PAL1	2	R1212P
2238.768	4.0	2307837	STUDY_PAIR	n/a	wordpools/wordpool_EN.txt	5	5	HORN	n/a	HAWK	HORN	19	[0, 0, 0]	-999	PAL1	2	R1212P
2243.802	0.275	2312991	STUDY_ORIENT	n/a	n/a	6	6	SWAMP	TAIL	LEG	SWAMP	19	[0, 0, 0]	-999	PAL1	2	R1212P
2244.769	4.0	2313981	STUDY_PAIR	n/a	wordpools/wordpool_EN.txt	6	6	SWAMP	TAIL	LEG	SWAMP	19	[0, 0, 0]	-999	PAL1	2	R1212P
2248.771	0.999	2318079	START	n/a	n/a	-999	-999	n/a	n/a	n/a	n/a	19	[-999, -999, -999]	-999	PAL1	2	R1212P
