onset	duration	sample	trial_type	response_time	stim_file	serialpos	probepos	probe_word	resp_word	study_1	study_2	list	test	answer	experiment	session	subject
0.0	245.371	-1	INSTRUCT_START	n/a	n/a	-999	-999	n/a	n/a	n/a	n/a	-999	[0, 0, 0]	-999	PAL1	1	R1392N
245.371	13.902	1958	INSTRUCT_START	n/a	n/a	-999	-999	n/a	n/a	n/a	n/a	-999	[0, 0, 0]	-999	PAL1	1	R1392N
259.273	2.918	15859	INSTRUCT_END	n/a	n/a	-999	-999	n/a	n/a	n/a	n/a	-999	[0, 0, 0]	-999	PAL1	1	R1392N
262.191	9.352	18777	MIC TEST_START	n/a	n/a	-999	-999	n/a	n/a	n/a	n/a	-999	[0, 0, 0]	-999	PAL1	1	R1392N
271.543	0.011	28129	MIC TEST_END	n/a	n/a	-999	-999	n/a	n/a	n/a	n/a	-999	[0, 0, 0]	-999	PAL1	1	R1392N
271.554	0.001	28140	TRIAL_START	n/a	n/a	-999	-999	n/a	n/a	n/a	n/a	-999	[0, 0, 0]	-999	PAL1	1	R1392N
271.555	0.0	28141	TRIAL	n/a	n/a	-999	-999	n/a	n/a	n/a	n/a	-1	[0, 0, 0]	-999	PAL1	1	R1392N
271.555	1.537	28141	WAITING_START	n/a	n/a	-999	-999	n/a	n/a	n/a	n/a	-1	[0, 0, 0]	-999	PAL1	1	R1392N
273.092	0.001	29678	WAITING_END	n/a	n/a	-999	-999	n/a	n/a	n/a	n/a	-1	[0, 0, 0]	-999	PAL1	1	R1392N
273.093	10.0	29679	COUNTDOWN_START	n/a	n/a	-999	-999	n/a	n/a	n/a	n/a	-1	[0, 0, 0]	-999	PAL1	1	R1392N
283.523	0.0	40108	COUNTDOWN_END	n/a	n/a	-999	-999	n/a	n/a	n/a	n/a	-1	[0, 0, 0]	-999	PAL1	1	R1392N
283.523	0.522	40108	ORIENT_START	n/a	n/a	-999	-999	n/a	n/a	n/a	n/a	-1	[0, 0, 0]	-999	PAL1	1	R1392N
284.045	0.001	40630	ORIENT_END	n/a	n/a	-999	-999	n/a	n/a	n/a	n/a	-1	[0, 0, 0]	-999	PAL1	1	R1392N
284.046	1.011	40631	ENCODING_START	n/a	n/a	-999	-999	n/a	n/a	n/a	n/a	-1	[0, 0, 0]	-999	PAL1	1	R1392N
285.057	4.0	41642	STUDY_PAIR	n/a	n/a	1	5	n/a	CAMEL	RHINO	CAMEL	-1	[0, 0, 0]	-999	PAL1	1	R1392N
289.095	0.718	45680	STUDY_PAIR_OFF	n/a	n/a	1	5	n/a	CAMEL	RHINO	CAMEL	-1	[0, 0, 0]	-999	PAL1	1	R1392N
289.813	4.0	46398	STUDY_PAIR	n/a	n/a	2	2	n/a	BEAN	WATCH	BEAM	-1	[0, 0, 0]	-999	PAL1	1	R1392N
293.846	0.564	50431	STUDY_PAIR_OFF	n/a	n/a	2	2	n/a	BEAN	WATCH	BEAM	-1	[0, 0, 0]	-999	PAL1	1	R1392N
294.41	4.0	50995	STUDY_PAIR	n/a	n/a	3	3	n/a	n/a	RING	IMAGE	-1	[0, 0, 0]	-999	PAL1	1	R1392N
298.447	0.679	55032	STUDY_PAIR_OFF	n/a	n/a	3	3	n/a	n/a	RING	IMAGE	-1	[0, 0, 0]	-999	PAL1	1	R1392N
299.126	4.0	55711	STUDY_PAIR	n/a	n/a	4	4	n/a	n/a	FLOOD	CHEST	-1	[0, 0, 0]	-999	PAL1	1	R1392N
303.164	0.634	59749	STUDY_PAIR_OFF	n/a	n/a	4	4	n/a	n/a	FLOOD	CHEST	-1	[0, 0, 0]	-999	PAL1	1	R1392N
303.798	4.0	60383	STUDY_PAIR	n/a	n/a	5	1	n/a	n/a	BABY	COTTON	-1	[0, 0, 0]	-999	PAL1	1	R1392N
307.831	0.62	64415	STUDY_PAIR_OFF	n/a	n/a	5	1	n/a	n/a	BABY	COTTON	-1	[0, 0, 0]	-999	PAL1	1	R1392N
308.451	4.0	65035	STUDY_PAIR	n/a	n/a	6	6	n/a	n/a	TONGUE	WAGON	-1	[0, 0, 0]	-999	PAL1	1	R1392N
312.482	0.001	69066	STUDY_PAIR_OFF	n/a	n/a	6	6	n/a	n/a	TONGUE	WAGON	-1	[0, 0, 0]	-999	PAL1	1	R1392N
312.483	0.0	69067	ENCODING_END	n/a	n/a	-999	-999	n/a	n/a	n/a	n/a	-1	[0, 0, 0]	-999	PAL1	1	R1392N
312.483	0.0	69067	MATH_START	n/a	n/a	-999	-999	n/a	n/a	n/a	n/a	-1	[0, 0, 0]	-999	PAL1	1	R1392N
312.483	0.015	69067	START	n/a	n/a	-999	-999	n/a	n/a	n/a	n/a	-1	[-999, -999, -999]	-999	PAL1	1	R1392N
312.498	6.251	69082	PROB	6.224	n/a	-999	-999	n/a	n/a	n/a	n/a	-1	[3, 2, 1]	6	PAL1	1	R1392N
318.749	2.384	75333	PROB	2.35	n/a	-999	-999	n/a	n/a	n/a	n/a	-1	[5, 7, 8]	30	PAL1	1	R1392N
321.133	3.418	77717	PROB	3.389	n/a	-999	-999	n/a	n/a	n/a	n/a	-1	[2, 5, 6]	13	PAL1	1	R1392N
324.551	2.467	81135	PROB	2.435	n/a	-999	-999	n/a	n/a	n/a	n/a	-1	[8, 6, 1]	15	PAL1	1	R1392N
327.018	2.683	83602	PROB	2.657	n/a	-999	-999	n/a	n/a	n/a	n/a	-1	[3, 8, 7]	18	PAL1	1	R1392N
329.701	2.167	86285	PROB	2.134	n/a	-999	-999	n/a	n/a	n/a	n/a	-1	[6, 7, 6]	19	PAL1	1	R1392N
331.868	2.532	88452	PROB	2.532	n/a	-999	-999	n/a	n/a	n/a	n/a	-1	[6, 9, 4]	19	PAL1	1	R1392N
334.4	0.019	90983	STOP	n/a	n/a	-999	-999	n/a	n/a	n/a	n/a	-1	[-999, -999, -999]	-999	PAL1	1	R1392N
334.419	0.579	91002	MATH_END	n/a	n/a	-999	-999	n/a	n/a	n/a	n/a	-1	[0, 0, 0]	-999	PAL1	1	R1392N
334.998	0.003	91581	RETRIEVAL_START	n/a	n/a	-999	-999	n/a	n/a	n/a	n/a	-1	[0, 0, 0]	-999	PAL1	1	R1392N
335.001	0.284	91584	ORIENT_START	n/a	n/a	-999	-999	n/a	n/a	n/a	n/a	-1	[0, 0, 0]	-999	PAL1	1	R1392N
335.285	0.616	91868	ORIENT_END	n/a	n/a	-999	-999	n/a	n/a	n/a	n/a	-1	[0, 0, 0]	-999	PAL1	1	R1392N
335.901	0.001	92484	REC_START	n/a	n/a	5	1	BABY	n/a	BABY	COTTON	-1	[0, 0, 0]	-999	PAL1	1	R1392N
335.902	4.0	92485	PROBE_START	n/a	n/a	5	1	BABY	n/a	BABY	COTTON	-1	[0, 0, 0]	-999	PAL1	1	R1392N
339.937	0.999	96520	PROBE_END	n/a	n/a	5	1	BABY	n/a	BABY	COTTON	-1	[0, 0, 0]	-999	PAL1	1	R1392N
340.936	0.011	97519	REC_END	n/a	n/a	5	1	BABY	n/a	BABY	COTTON	-1	[0, 0, 0]	-999	PAL1	1	R1392N
340.947	0.272	97530	ORIENT_START	n/a	n/a	-999	-999	n/a	n/a	n/a	n/a	-1	[0, 0, 0]	-999	PAL1	1	R1392N
341.219	0.583	97802	ORIENT_END	n/a	n/a	-999	-999	n/a	n/a	n/a	n/a	-1	[0, 0, 0]	-999	PAL1	1	R1392N
341.802	0.116	98385	REC_EVENT	5.9	n/a	5	1	BABY	<>	BABY	COTTON	-1	[0, 0, 0]	-999	PAL1	1	R1392N
341.918	4.0	98501	PROBE_START	n/a	n/a	2	2	BEAM	BEAN	WATCH	BEAM	-1	[0, 0, 0]	-999	PAL1	1	R1392N
341.918	2.251	98501	REC_START	n/a	n/a	2	2	BEAM	BEAN	WATCH	BEAM	-1	[0, 0, 0]	-999	PAL1	1	R1392N
344.169	0.535	100752	REC_EVENT	2.251	n/a	2	2	BEAM	WASH	WATCH	BEAM	-1	[0, 0, 0]	-999	PAL1	1	R1392N
344.704	1.25	101287	REC_EVENT	2.786	n/a	2	2	BEAM	BEAN	WATCH	BEAM	-1	[0, 0, 0]	-999	PAL1	1	R1392N
345.954	1.0	102537	PROBE_END	n/a	n/a	2	2	BEAM	n/a	WATCH	BEAM	-1	[0, 0, 0]	-999	PAL1	1	R1392N
346.954	0.013	103537	REC_END	n/a	n/a	2	2	BEAM	n/a	WATCH	BEAM	-1	[0, 0, 0]	-999	PAL1	1	R1392N
346.967	0.27	103550	ORIENT_START	n/a	n/a	-999	-999	n/a	n/a	n/a	n/a	-1	[0, 0, 0]	-999	PAL1	1	R1392N
347.237	0.539	103820	ORIENT_END	n/a	n/a	-999	-999	n/a	n/a	n/a	n/a	-1	[0, 0, 0]	-999	PAL1	1	R1392N
347.776	0.001	104359	REC_START	n/a	n/a	3	3	RING	n/a	RING	IMAGE	-1	[0, 0, 0]	-999	PAL1	1	R1392N
347.777	4.0	104360	PROBE_START	n/a	n/a	3	3	RING	n/a	RING	IMAGE	-1	[0, 0, 0]	-999	PAL1	1	R1392N
351.805	1.0	108388	PROBE_END	n/a	n/a	3	3	RING	n/a	RING	IMAGE	-1	[0, 0, 0]	-999	PAL1	1	R1392N
352.805	0.011	109388	REC_END	n/a	n/a	3	3	RING	n/a	RING	IMAGE	-1	[0, 0, 0]	-999	PAL1	1	R1392N
352.816	0.273	109399	ORIENT_START	n/a	n/a	-999	-999	n/a	n/a	n/a	n/a	-1	[0, 0, 0]	-999	PAL1	1	R1392N
353.089	0.474	109672	ORIENT_END	n/a	n/a	-999	-999	n/a	n/a	n/a	n/a	-1	[0, 0, 0]	-999	PAL1	1	R1392N
353.563	0.042	110146	REC_EVENT	5.786	n/a	3	3	RING	<>	RING	IMAGE	-1	[0, 0, 0]	-999	PAL1	1	R1392N
353.605	0.0	110188	REC_START	n/a	n/a	4	4	CHEST	n/a	FLOOD	CHEST	-1	[0, 0, 0]	-999	PAL1	1	R1392N
353.605	4.0	110188	PROBE_START	n/a	n/a	4	4	CHEST	n/a	FLOOD	CHEST	-1	[0, 0, 0]	-999	PAL1	1	R1392N
357.64	0.999	114223	PROBE_END	n/a	n/a	4	4	CHEST	n/a	FLOOD	CHEST	-1	[0, 0, 0]	-999	PAL1	1	R1392N
358.639	0.011	115222	REC_END	n/a	n/a	4	4	CHEST	n/a	FLOOD	CHEST	-1	[0, 0, 0]	-999	PAL1	1	R1392N
358.65	0.273	115233	ORIENT_START	n/a	n/a	-999	-999	n/a	n/a	n/a	n/a	-1	[0, 0, 0]	-999	PAL1	1	R1392N
358.923	0.454	115506	ORIENT_END	n/a	n/a	-999	-999	n/a	n/a	n/a	n/a	-1	[0, 0, 0]	-999	PAL1	1	R1392N
359.377	0.202	115960	REC_EVENT	5.772	n/a	4	4	CHEST	<>	FLOOD	CHEST	-1	[0, 0, 0]	-999	PAL1	1	R1392N
359.579	0.0	116162	REC_START	n/a	n/a	1	5	RHINO	CAMEL	RHINO	CAMEL	-1	[0, 0, 0]	-999	PAL1	1	R1392N
359.579	4.0	116162	PROBE_START	n/a	n/a	1	5	RHINO	CAMEL	RHINO	CAMEL	-1	[0, 0, 0]	-999	PAL1	1	R1392N
361.184	0.697	117766	REC_EVENT	1.605	n/a	1	5	RHINO	RHINO	RHINO	CAMEL	-1	[0, 0, 0]	-999	PAL1	1	R1392N
361.881	1.726	118463	REC_EVENT	2.302	n/a	1	5	RHINO	CAMEL	RHINO	CAMEL	-1	[0, 0, 0]	-999	PAL1	1	R1392N
363.607	1.0	120189	PROBE_END	n/a	n/a	1	5	RHINO	n/a	RHINO	CAMEL	-1	[0, 0, 0]	-999	PAL1	1	R1392N
364.607	0.012	121189	REC_END	n/a	n/a	1	5	RHINO	n/a	RHINO	CAMEL	-1	[0, 0, 0]	-999	PAL1	1	R1392N
364.619	0.272	121201	ORIENT_START	n/a	n/a	-999	-999	n/a	n/a	n/a	n/a	-1	[0, 0, 0]	-999	PAL1	1	R1392N
364.891	0.723	121473	ORIENT_END	n/a	n/a	-999	-999	n/a	n/a	n/a	n/a	-1	[0, 0, 0]	-999	PAL1	1	R1392N
365.614	0.001	122196	REC_START	n/a	n/a	6	6	WAGON	n/a	TONGUE	WAGON	-1	[0, 0, 0]	-999	PAL1	1	R1392N
365.615	4.0	122197	PROBE_START	n/a	n/a	6	6	WAGON	n/a	TONGUE	WAGON	-1	[0, 0, 0]	-999	PAL1	1	R1392N
369.642	1.0	126224	PROBE_END	n/a	n/a	6	6	WAGON	n/a	TONGUE	WAGON	-1	[0, 0, 0]	-999	PAL1	1	R1392N
370.642	0.01	127224	REC_END	n/a	n/a	6	6	WAGON	n/a	TONGUE	WAGON	-1	[0, 0, 0]	-999	PAL1	1	R1392N
370.652	0.0	127234	RETRIEVAL_END	n/a	n/a	-999	-999	n/a	n/a	n/a	n/a	-1	[0, 0, 0]	-999	PAL1	1	R1392N
370.652	0.983	127234	PRACTICE_POST_INSTRUCT_START	n/a	n/a	-999	-999	n/a	n/a	n/a	n/a	-1	[0, 0, 0]	-999	PAL1	1	R1392N
371.635	3.724	128217	REC_EVENT	6.02	n/a	6	6	WAGON	<>	TONGUE	WAGON	-1	[0, 0, 0]	-999	PAL1	1	R1392N
375.359	0.0	131941	PRACTICE_POST_INSTRUCT_END	n/a	n/a	-999	-999	n/a	n/a	n/a	n/a	-1	[0, 0, 0]	-999	PAL1	1	R1392N
375.359	0.024	131941	TRIAL_END	n/a	n/a	-999	-999	n/a	n/a	n/a	n/a	-1	[0, 0, 0]	-999	PAL1	1	R1392N
375.383	0.0	131965	TRIAL	n/a	n/a	-999	-999	n/a	n/a	n/a	n/a	1	[0, 0, 0]	-999	PAL1	1	R1392N
375.383	0.001	131965	TRIAL_START	n/a	n/a	-999	-999	n/a	n/a	n/a	n/a	-1	[0, 0, 0]	-999	PAL1	1	R1392N
375.384	3.776	131966	WAITING_START	n/a	n/a	-999	-999	n/a	n/a	n/a	n/a	1	[0, 0, 0]	-999	PAL1	1	R1392N
379.16	10.0	135742	COUNTDOWN_START	n/a	n/a	-999	-999	n/a	n/a	n/a	n/a	1	[0, 0, 0]	-999	PAL1	1	R1392N
379.16	10.43	135742	WAITING_END	n/a	n/a	-999	-999	n/a	n/a	n/a	n/a	1	[0, 0, 0]	-999	PAL1	1	R1392N
389.59	0.0	146171	COUNTDOWN_END	n/a	n/a	-999	-999	n/a	n/a	n/a	n/a	1	[0, 0, 0]	-999	PAL1	1	R1392N
389.59	0.771	146171	ORIENT_START	n/a	n/a	-999	-999	n/a	n/a	n/a	n/a	1	[0, 0, 0]	-999	PAL1	1	R1392N
390.361	0.001	146942	ORIENT_END	n/a	n/a	-999	-999	n/a	n/a	n/a	n/a	1	[0, 0, 0]	-999	PAL1	1	R1392N
390.362	1.091	146943	ENCODING_START	n/a	n/a	-999	-999	n/a	n/a	n/a	n/a	1	[0, 0, 0]	-999	PAL1	1	R1392N
391.453	4.0	148034	STUDY_PAIR	n/a	wordpools/wordpool_EN.txt	1	3	n/a	INK	BOOK	INK	1	[0, 0, 0]	-999	PAL1	1	R1392N
395.479	0.671	152060	STUDY_PAIR_OFF	n/a	n/a	1	3	n/a	INK	BOOK	INK	1	[0, 0, 0]	-999	PAL1	1	R1392N
396.15	4.0	152731	STUDY_PAIR	n/a	wordpools/wordpool_EN.txt	2	4	n/a	STRING	MAT	EEL	1	[0, 0, 0]	-999	PAL1	1	R1392N
400.163	0.502	156744	STUDY_PAIR_OFF	n/a	n/a	2	4	n/a	STRING	MAT	EEL	1	[0, 0, 0]	-999	PAL1	1	R1392N
400.665	4.0	157246	STUDY_PAIR	n/a	wordpools/wordpool_EN.txt	3	1	n/a	STRING	BIRD	STRING	1	[0, 0, 0]	-999	PAL1	1	R1392N
404.697	0.721	161278	STUDY_PAIR_OFF	n/a	n/a	3	1	n/a	STRING	BIRD	STRING	1	[0, 0, 0]	-999	PAL1	1	R1392N
405.418	4.0	161999	STUDY_PAIR	n/a	wordpools/wordpool_EN.txt	4	6	n/a	n/a	MOUSE	PIE	1	[0, 0, 0]	-999	PAL1	1	R1392N
409.448	0.601	166029	STUDY_PAIR_OFF	n/a	n/a	4	6	n/a	n/a	MOUSE	PIE	1	[0, 0, 0]	-999	PAL1	1	R1392N
410.049	4.0	166630	STUDY_PAIR	n/a	wordpools/wordpool_EN.txt	5	5	n/a	MOON	BATH	MOON	1	[0, 0, 0]	-999	PAL1	1	R1392N
414.082	0.728	170663	STUDY_PAIR_OFF	n/a	n/a	5	5	n/a	MOON	BATH	MOON	1	[0, 0, 0]	-999	PAL1	1	R1392N
414.81	4.0	171391	STUDY_PAIR	n/a	wordpools/wordpool_EN.txt	6	2	n/a	n/a	SNAIL	SPARK	1	[0, 0, 0]	-999	PAL1	1	R1392N
418.85	0.0	175430	STUDY_PAIR_OFF	n/a	n/a	6	2	n/a	n/a	SNAIL	SPARK	1	[0, 0, 0]	-999	PAL1	1	R1392N
418.85	0.0	175430	ENCODING_END	n/a	n/a	-999	-999	n/a	n/a	n/a	n/a	1	[0, 0, 0]	-999	PAL1	1	R1392N
418.85	0.001	175430	MATH_START	n/a	n/a	-999	-999	n/a	n/a	n/a	n/a	1	[0, 0, 0]	-999	PAL1	1	R1392N
418.851	0.015	175431	START	n/a	n/a	-999	-999	n/a	n/a	n/a	n/a	1	[-999, -999, -999]	-999	PAL1	1	R1392N
418.866	7.268	175446	PROB	7.232	n/a	-999	-999	n/a	n/a	n/a	n/a	1	[6, 5, 9]	20	PAL1	1	R1392N
426.134	2.199	182714	PROB	2.172	n/a	-999	-999	n/a	n/a	n/a	n/a	1	[6, 4, 3]	13	PAL1	1	R1392N
428.333	2.185	184913	PROB	2.15	n/a	-999	-999	n/a	n/a	n/a	n/a	1	[8, 9, 4]	21	PAL1	1	R1392N
430.518	2.067	187098	PROB	2.037	n/a	-999	-999	n/a	n/a	n/a	n/a	1	[3, 4, 3]	10	PAL1	1	R1392N
432.585	2.25	189165	PROB	2.225	n/a	-999	-999	n/a	n/a	n/a	n/a	1	[2, 1, 2]	5	PAL1	1	R1392N
434.835	5.831	191415	PROB	5.831	n/a	-999	-999	n/a	n/a	n/a	n/a	1	[6, 8, 4]	18	PAL1	1	R1392N
440.666	0.021	197246	STOP	n/a	n/a	-999	-999	n/a	n/a	n/a	n/a	1	[-999, -999, -999]	-999	PAL1	1	R1392N
440.687	0.644	197267	MATH_END	n/a	n/a	-999	-999	n/a	n/a	n/a	n/a	1	[0, 0, 0]	-999	PAL1	1	R1392N
441.331	0.002	197911	RETRIEVAL_START	n/a	n/a	-999	-999	n/a	n/a	n/a	n/a	1	[0, 0, 0]	-999	PAL1	1	R1392N
441.333	0.287	197913	ORIENT_START	n/a	n/a	-999	-999	n/a	n/a	n/a	n/a	1	[0, 0, 0]	-999	PAL1	1	R1392N
441.62	0.634	198200	ORIENT_END	n/a	n/a	-999	-999	n/a	n/a	n/a	n/a	1	[0, 0, 0]	-999	PAL1	1	R1392N
442.254	0.001	198834	REC_START	n/a	n/a	3	1	STRING	STRING	BIRD	STRING	1	[0, 0, 0]	-999	PAL1	1	R1392N
442.255	4.0	198835	PROBE_START	n/a	wordpools/wordpool_EN.txt	3	1	STRING	STRING	BIRD	STRING	1	[0, 0, 0]	-999	PAL1	1	R1392N
445.117	0.269	201696	REC_EVENT	2.862	n/a	3	1	STRING	MAT	BIRD	STRING	1	[0, 0, 0]	-999	PAL1	1	R1392N
445.386	0.901	201965	REC_EVENT	3.131	n/a	3	1	STRING	STRING	BIRD	STRING	1	[0, 0, 0]	-999	PAL1	1	R1392N
446.287	1.0	202866	PROBE_END	n/a	n/a	3	1	STRING	n/a	BIRD	STRING	1	[0, 0, 0]	-999	PAL1	1	R1392N
447.287	0.012	203866	REC_END	n/a	n/a	3	1	STRING	n/a	BIRD	STRING	1	[0, 0, 0]	-999	PAL1	1	R1392N
447.299	0.272	203878	ORIENT_START	n/a	n/a	-999	-999	n/a	n/a	n/a	n/a	1	[0, 0, 0]	-999	PAL1	1	R1392N
447.571	0.654	204150	ORIENT_END	n/a	n/a	-999	-999	n/a	n/a	n/a	n/a	1	[0, 0, 0]	-999	PAL1	1	R1392N
448.225	0.0	204804	REC_START	n/a	n/a	6	2	SNAIL	n/a	SNAIL	SPARK	1	[0, 0, 0]	-999	PAL1	1	R1392N
448.225	4.0	204804	PROBE_START	n/a	wordpools/wordpool_EN.txt	6	2	SNAIL	n/a	SNAIL	SPARK	1	[0, 0, 0]	-999	PAL1	1	R1392N
452.254	1.001	208833	PROBE_END	n/a	n/a	6	2	SNAIL	n/a	SNAIL	SPARK	1	[0, 0, 0]	-999	PAL1	1	R1392N
453.255	0.011	209834	REC_END	n/a	n/a	6	2	SNAIL	n/a	SNAIL	SPARK	1	[0, 0, 0]	-999	PAL1	1	R1392N
453.266	0.273	209845	ORIENT_START	n/a	n/a	-999	-999	n/a	n/a	n/a	n/a	1	[0, 0, 0]	-999	PAL1	1	R1392N
453.539	0.591	210118	ORIENT_END	n/a	n/a	-999	-999	n/a	n/a	n/a	n/a	1	[0, 0, 0]	-999	PAL1	1	R1392N
454.13	0.077	210709	REC_EVENT	5.905	n/a	6	2	SNAIL	<>	SNAIL	SPARK	1	[0, 0, 0]	-999	PAL1	1	R1392N
454.207	0.0	210786	REC_START	n/a	n/a	1	3	BOOK	INK	BOOK	INK	1	[0, 0, 0]	-999	PAL1	1	R1392N
454.207	4.0	210786	PROBE_START	n/a	wordpools/wordpool_EN.txt	1	3	BOOK	INK	BOOK	INK	1	[0, 0, 0]	-999	PAL1	1	R1392N
456.039	0.557	212618	REC_EVENT	1.832	n/a	1	3	BOOK	BOOK	BOOK	INK	1	[0, 0, 0]	-999	PAL1	1	R1392N
456.596	1.642	213175	REC_EVENT	2.389	n/a	1	3	BOOK	INK	BOOK	INK	1	[0, 0, 0]	-999	PAL1	1	R1392N
458.238	1.0	214817	PROBE_END	n/a	n/a	1	3	BOOK	n/a	BOOK	INK	1	[0, 0, 0]	-999	PAL1	1	R1392N
459.238	0.013	215817	REC_END	n/a	n/a	1	3	BOOK	n/a	BOOK	INK	1	[0, 0, 0]	-999	PAL1	1	R1392N
459.251	0.272	215830	ORIENT_START	n/a	n/a	-999	-999	n/a	n/a	n/a	n/a	1	[0, 0, 0]	-999	PAL1	1	R1392N
459.523	0.55	216102	ORIENT_END	n/a	n/a	-999	-999	n/a	n/a	n/a	n/a	1	[0, 0, 0]	-999	PAL1	1	R1392N
460.073	0.0	216652	REC_START	n/a	n/a	2	4	MAT	STRING	MAT	EEL	1	[0, 0, 0]	-999	PAL1	1	R1392N
460.073	4.0	216652	PROBE_START	n/a	wordpools/wordpool_EN.txt	2	4	MAT	STRING	MAT	EEL	1	[0, 0, 0]	-999	PAL1	1	R1392N
463.062	0.325	219641	REC_EVENT	2.989	n/a	2	4	MAT	MAT	MAT	EEL	1	[0, 0, 0]	-999	PAL1	1	R1392N
463.387	0.72	219966	REC_EVENT	3.314	n/a	2	4	MAT	STRING	MAT	EEL	1	[0, 0, 0]	-999	PAL1	1	R1392N
464.107	1.0	220686	PROBE_END	n/a	n/a	2	4	MAT	n/a	MAT	EEL	1	[0, 0, 0]	-999	PAL1	1	R1392N
465.107	0.01	221686	REC_END	n/a	n/a	2	4	MAT	n/a	MAT	EEL	1	[0, 0, 0]	-999	PAL1	1	R1392N
465.117	0.274	221696	ORIENT_START	n/a	n/a	-999	-999	n/a	n/a	n/a	n/a	1	[0, 0, 0]	-999	PAL1	1	R1392N
465.391	0.637	221970	ORIENT_END	n/a	n/a	-999	-999	n/a	n/a	n/a	n/a	1	[0, 0, 0]	-999	PAL1	1	R1392N
466.028	0.0	222607	REC_START	n/a	n/a	5	5	MOON	MOON	BATH	MOON	1	[0, 0, 0]	-999	PAL1	1	R1392N
466.028	4.0	222607	PROBE_START	n/a	wordpools/wordpool_EN.txt	5	5	MOON	MOON	BATH	MOON	1	[0, 0, 0]	-999	PAL1	1	R1392N
470.058	0.328	226636	PROBE_END	n/a	n/a	5	5	MOON	n/a	BATH	MOON	1	[0, 0, 0]	-999	PAL1	1	R1392N
470.386	0.672	226964	REC_EVENT	4.358	n/a	5	5	MOON	MOON	BATH	MOON	1	[0, 0, 0]	-999	PAL1	1	R1392N
471.058	0.011	227636	REC_END	n/a	n/a	5	5	MOON	n/a	BATH	MOON	1	[0, 0, 0]	-999	PAL1	1	R1392N
471.069	0.272	227647	ORIENT_START	n/a	n/a	-999	-999	n/a	n/a	n/a	n/a	1	[0, 0, 0]	-999	PAL1	1	R1392N
471.341	0.628	227919	ORIENT_END	n/a	n/a	-999	-999	n/a	n/a	n/a	n/a	1	[0, 0, 0]	-999	PAL1	1	R1392N
471.969	0.001	228547	REC_START	n/a	n/a	4	6	PIE	n/a	MOUSE	PIE	1	[0, 0, 0]	-999	PAL1	1	R1392N
471.97	4.0	228548	PROBE_START	n/a	wordpools/wordpool_EN.txt	4	6	PIE	n/a	MOUSE	PIE	1	[0, 0, 0]	-999	PAL1	1	R1392N
475.993	0.999	232571	PROBE_END	n/a	n/a	4	6	PIE	n/a	MOUSE	PIE	1	[0, 0, 0]	-999	PAL1	1	R1392N
476.992	0.011	233570	REC_END	n/a	n/a	4	6	PIE	n/a	MOUSE	PIE	1	[0, 0, 0]	-999	PAL1	1	R1392N
477.003	0.0	233581	RETRIEVAL_END	n/a	n/a	-999	-999	n/a	n/a	n/a	n/a	1	[0, 0, 0]	-999	PAL1	1	R1392N
477.003	0.023	233581	TRIAL_END	n/a	n/a	-999	-999	n/a	n/a	n/a	n/a	1	[0, 0, 0]	-999	PAL1	1	R1392N
477.026	0.0	233604	TRIAL_START	n/a	n/a	-999	-999	n/a	n/a	n/a	n/a	1	[0, 0, 0]	-999	PAL1	1	R1392N
477.026	0.0	233604	TRIAL	n/a	n/a	-999	-999	n/a	n/a	n/a	n/a	2	[0, 0, 0]	-999	PAL1	1	R1392N
477.026	0.831	233604	WAITING_START	n/a	n/a	-999	-999	n/a	n/a	n/a	n/a	2	[0, 0, 0]	-999	PAL1	1	R1392N
477.857	1.069	234435	REC_EVENT	5.887	n/a	4	6	PIE	<>	MOUSE	PIE	1	[0, 0, 0]	-999	PAL1	1	R1392N
478.926	0.001	235504	WAITING_END	n/a	n/a	-999	-999	n/a	n/a	n/a	n/a	2	[0, 0, 0]	-999	PAL1	1	R1392N
478.927	10.0	235505	COUNTDOWN_START	n/a	n/a	-999	-999	n/a	n/a	n/a	n/a	2	[0, 0, 0]	-999	PAL1	1	R1392N
489.356	0.001	245934	COUNTDOWN_END	n/a	n/a	-999	-999	n/a	n/a	n/a	n/a	2	[0, 0, 0]	-999	PAL1	1	R1392N
489.357	0.571	245935	ORIENT_START	n/a	n/a	-999	-999	n/a	n/a	n/a	n/a	2	[0, 0, 0]	-999	PAL1	1	R1392N
489.928	0.001	246506	ORIENT_END	n/a	n/a	-999	-999	n/a	n/a	n/a	n/a	2	[0, 0, 0]	-999	PAL1	1	R1392N
489.929	1.04	246507	ENCODING_START	n/a	n/a	-999	-999	n/a	n/a	n/a	n/a	2	[0, 0, 0]	-999	PAL1	1	R1392N
490.969	4.0	247547	STUDY_PAIR	n/a	wordpools/wordpool_EN.txt	1	5	n/a	n/a	BEAR	CONE	2	[0, 0, 0]	-999	PAL1	1	R1392N
494.996	0.729	251574	STUDY_PAIR_OFF	n/a	n/a	1	5	n/a	n/a	BEAR	CONE	2	[0, 0, 0]	-999	PAL1	1	R1392N
495.725	4.0	252303	STUDY_PAIR	n/a	wordpools/wordpool_EN.txt	2	4	n/a	n/a	HOUSE	GOLD	2	[0, 0, 0]	-999	PAL1	1	R1392N
499.763	0.524	256340	STUDY_PAIR_OFF	n/a	n/a	2	4	n/a	n/a	HOUSE	GOLD	2	[0, 0, 0]	-999	PAL1	1	R1392N
500.287	4.0	256864	STUDY_PAIR	n/a	wordpools/wordpool_EN.txt	3	3	n/a	n/a	DRESS	BEE	2	[0, 0, 0]	-999	PAL1	1	R1392N
504.313	0.602	260890	STUDY_PAIR_OFF	n/a	n/a	3	3	n/a	n/a	DRESS	BEE	2	[0, 0, 0]	-999	PAL1	1	R1392N
504.915	4.0	261492	STUDY_PAIR	n/a	wordpools/wordpool_EN.txt	4	2	n/a	STONE	STORE	TOAST	2	[0, 0, 0]	-999	PAL1	1	R1392N
508.948	0.607	265525	STUDY_PAIR_OFF	n/a	n/a	4	2	n/a	STONE	STORE	TOAST	2	[0, 0, 0]	-999	PAL1	1	R1392N
509.555	4.0	266132	STUDY_PAIR	n/a	wordpools/wordpool_EN.txt	5	1	n/a	n/a	YARD	BEAK	2	[0, 0, 0]	-999	PAL1	1	R1392N
513.582	0.723	270159	STUDY_PAIR_OFF	n/a	n/a	5	1	n/a	n/a	YARD	BEAK	2	[0, 0, 0]	-999	PAL1	1	R1392N
514.305	4.0	270882	STUDY_PAIR	n/a	wordpools/wordpool_EN.txt	6	6	n/a	FOX	STONE	FOX	2	[0, 0, 0]	-999	PAL1	1	R1392N
518.332	0.001	274909	STUDY_PAIR_OFF	n/a	n/a	6	6	n/a	FOX	STONE	FOX	2	[0, 0, 0]	-999	PAL1	1	R1392N
518.333	0.0	274910	ENCODING_END	n/a	n/a	-999	-999	n/a	n/a	n/a	n/a	2	[0, 0, 0]	-999	PAL1	1	R1392N
518.333	0.0	274910	MATH_START	n/a	n/a	-999	-999	n/a	n/a	n/a	n/a	2	[0, 0, 0]	-999	PAL1	1	R1392N
518.333	0.015	274910	START	n/a	n/a	-999	-999	n/a	n/a	n/a	n/a	2	[-999, -999, -999]	-999	PAL1	1	R1392N
518.348	4.219	274925	PROB	4.183	n/a	-999	-999	n/a	n/a	n/a	n/a	2	[9, 2, 4]	15	PAL1	1	R1392N
522.567	2.749	279144	PROB	2.722	n/a	-999	-999	n/a	n/a	n/a	n/a	2	[6, 6, 9]	21	PAL1	1	R1392N
525.316	5.001	281892	PROB	4.958	n/a	-999	-999	n/a	n/a	n/a	n/a	2	[1, 6, 1]	8	PAL1	1	R1392N
530.317	2.568	286893	PROB	2.541	n/a	-999	-999	n/a	n/a	n/a	n/a	2	[4, 9, 3]	16	PAL1	1	R1392N
532.885	1.867	289461	PROB	1.829	n/a	-999	-999	n/a	n/a	n/a	n/a	2	[8, 1, 3]	12	PAL1	1	R1392N
534.752	2.634	291328	PROB	2.602	n/a	-999	-999	n/a	n/a	n/a	n/a	2	[4, 5, 4]	13	PAL1	1	R1392N
537.386	1.952	293962	PROB	1.952	n/a	-999	-999	n/a	n/a	n/a	n/a	2	[8, 7, 1]	16	PAL1	1	R1392N
539.338	0.014	295914	STOP	n/a	n/a	-999	-999	n/a	n/a	n/a	n/a	2	[-999, -999, -999]	-999	PAL1	1	R1392N
539.352	0.678	295928	MATH_END	n/a	n/a	-999	-999	n/a	n/a	n/a	n/a	2	[0, 0, 0]	-999	PAL1	1	R1392N
540.03	0.001	296606	RETRIEVAL_START	n/a	n/a	-999	-999	n/a	n/a	n/a	n/a	2	[0, 0, 0]	-999	PAL1	1	R1392N
540.031	0.271	296607	ORIENT_START	n/a	n/a	-999	-999	n/a	n/a	n/a	n/a	2	[0, 0, 0]	-999	PAL1	1	R1392N
540.302	0.611	296878	ORIENT_END	n/a	n/a	-999	-999	n/a	n/a	n/a	n/a	2	[0, 0, 0]	-999	PAL1	1	R1392N
540.913	4.0	297489	PROBE_START	n/a	wordpools/wordpool_EN.txt	5	1	BEAK	n/a	YARD	BEAK	2	[0, 0, 0]	-999	PAL1	1	R1392N
540.913	4.024	297489	REC_START	n/a	n/a	5	1	BEAK	n/a	YARD	BEAK	2	[0, 0, 0]	-999	PAL1	1	R1392N
544.937	1.0	301513	PROBE_END	n/a	n/a	5	1	BEAK	n/a	YARD	BEAK	2	[0, 0, 0]	-999	PAL1	1	R1392N
545.937	0.011	302513	REC_END	n/a	n/a	5	1	BEAK	n/a	YARD	BEAK	2	[0, 0, 0]	-999	PAL1	1	R1392N
545.948	0.272	302524	ORIENT_START	n/a	n/a	-999	-999	n/a	n/a	n/a	n/a	2	[0, 0, 0]	-999	PAL1	1	R1392N
546.22	0.567	302796	ORIENT_END	n/a	n/a	-999	-999	n/a	n/a	n/a	n/a	2	[0, 0, 0]	-999	PAL1	1	R1392N
546.787	0.044	303363	REC_EVENT	5.874	n/a	5	1	BEAK	<>	YARD	BEAK	2	[0, 0, 0]	-999	PAL1	1	R1392N
546.831	0.0	303407	REC_START	n/a	n/a	4	2	STORE	STONE	STORE	TOAST	2	[0, 0, 0]	-999	PAL1	1	R1392N
546.831	4.0	303407	PROBE_START	n/a	wordpools/wordpool_EN.txt	4	2	STORE	STONE	STORE	TOAST	2	[0, 0, 0]	-999	PAL1	1	R1392N
549.259	0.977	305835	REC_EVENT	2.428	n/a	4	2	STORE	STORE	STORE	TOAST	2	[0, 0, 0]	-999	PAL1	1	R1392N
550.236	0.619	306812	REC_EVENT	3.405	n/a	4	2	STORE	STONE	STORE	TOAST	2	[0, 0, 0]	-999	PAL1	1	R1392N
550.855	1.0	307431	PROBE_END	n/a	n/a	4	2	STORE	n/a	STORE	TOAST	2	[0, 0, 0]	-999	PAL1	1	R1392N
551.855	0.011	308430	REC_END	n/a	n/a	4	2	STORE	n/a	STORE	TOAST	2	[0, 0, 0]	-999	PAL1	1	R1392N
551.866	0.273	308441	ORIENT_START	n/a	n/a	-999	-999	n/a	n/a	n/a	n/a	2	[0, 0, 0]	-999	PAL1	1	R1392N
552.139	0.609	308714	ORIENT_END	n/a	n/a	-999	-999	n/a	n/a	n/a	n/a	2	[0, 0, 0]	-999	PAL1	1	R1392N
552.748	0.0	309323	REC_START	n/a	n/a	3	3	BEE	n/a	DRESS	BEE	2	[0, 0, 0]	-999	PAL1	1	R1392N
552.748	4.0	309323	PROBE_START	n/a	wordpools/wordpool_EN.txt	3	3	BEE	n/a	DRESS	BEE	2	[0, 0, 0]	-999	PAL1	1	R1392N
556.773	0.999	313348	PROBE_END	n/a	n/a	3	3	BEE	n/a	DRESS	BEE	2	[0, 0, 0]	-999	PAL1	1	R1392N
557.772	0.011	314347	REC_END	n/a	n/a	3	3	BEE	n/a	DRESS	BEE	2	[0, 0, 0]	-999	PAL1	1	R1392N
557.783	0.273	314358	ORIENT_START	n/a	n/a	-999	-999	n/a	n/a	n/a	n/a	2	[0, 0, 0]	-999	PAL1	1	R1392N
558.056	0.512	314631	ORIENT_END	n/a	n/a	-999	-999	n/a	n/a	n/a	n/a	2	[0, 0, 0]	-999	PAL1	1	R1392N
558.568	0.225	315143	REC_EVENT	5.82	n/a	3	3	BEE	<>	DRESS	BEE	2	[0, 0, 0]	-999	PAL1	1	R1392N
558.793	0.001	315368	REC_START	n/a	n/a	2	4	GOLD	n/a	HOUSE	GOLD	2	[0, 0, 0]	-999	PAL1	1	R1392N
558.794	4.0	315369	PROBE_START	n/a	wordpools/wordpool_EN.txt	2	4	GOLD	n/a	HOUSE	GOLD	2	[0, 0, 0]	-999	PAL1	1	R1392N
562.823	1.0	319398	PROBE_END	n/a	n/a	2	4	GOLD	n/a	HOUSE	GOLD	2	[0, 0, 0]	-999	PAL1	1	R1392N
563.823	0.007	320398	REC_END	n/a	n/a	2	4	GOLD	n/a	HOUSE	GOLD	2	[0, 0, 0]	-999	PAL1	1	R1392N
563.83	0.277	320405	ORIENT_START	n/a	n/a	-999	-999	n/a	n/a	n/a	n/a	2	[0, 0, 0]	-999	PAL1	1	R1392N
564.107	0.714	320682	ORIENT_END	n/a	n/a	-999	-999	n/a	n/a	n/a	n/a	2	[0, 0, 0]	-999	PAL1	1	R1392N
564.821	0.028	321396	REC_EVENT	6.027	n/a	2	4	GOLD	<>	HOUSE	GOLD	2	[0, 0, 0]	-999	PAL1	1	R1392N
564.849	0.001	321424	REC_START	n/a	n/a	1	5	BEAR	n/a	BEAR	CONE	2	[0, 0, 0]	-999	PAL1	1	R1392N
564.85	4.0	321425	PROBE_START	n/a	wordpools/wordpool_EN.txt	1	5	BEAR	n/a	BEAR	CONE	2	[0, 0, 0]	-999	PAL1	1	R1392N
568.874	1.0	325449	PROBE_END	n/a	n/a	1	5	BEAR	n/a	BEAR	CONE	2	[0, 0, 0]	-999	PAL1	1	R1392N
569.874	0.007	326449	REC_END	n/a	n/a	1	5	BEAR	n/a	BEAR	CONE	2	[0, 0, 0]	-999	PAL1	1	R1392N
569.881	0.277	326456	ORIENT_START	n/a	n/a	-999	-999	n/a	n/a	n/a	n/a	2	[0, 0, 0]	-999	PAL1	1	R1392N
570.158	0.603	326733	ORIENT_END	n/a	n/a	-999	-999	n/a	n/a	n/a	n/a	2	[0, 0, 0]	-999	PAL1	1	R1392N
570.761	0.002	327336	REC_START	n/a	n/a	6	6	STONE	FOX	STONE	FOX	2	[0, 0, 0]	-999	PAL1	1	R1392N
570.763	4.0	327338	PROBE_START	n/a	wordpools/wordpool_EN.txt	6	6	STONE	FOX	STONE	FOX	2	[0, 0, 0]	-999	PAL1	1	R1392N
570.842	2.006	327417	REC_EVENT	5.992	n/a	1	5	BEAR	<>	BEAR	CONE	2	[0, 0, 0]	-999	PAL1	1	R1392N
572.848	0.511	329423	REC_EVENT	2.085	n/a	6	6	STONE	STONE	STONE	FOX	2	[0, 0, 0]	-999	PAL1	1	R1392N
573.359	1.433	329934	REC_EVENT	2.596	n/a	6	6	STONE	FOX	STONE	FOX	2	[0, 0, 0]	-999	PAL1	1	R1392N
574.792	1.0	331367	PROBE_END	n/a	n/a	6	6	STONE	n/a	STONE	FOX	2	[0, 0, 0]	-999	PAL1	1	R1392N
575.792	0.012	332367	REC_END	n/a	n/a	6	6	STONE	n/a	STONE	FOX	2	[0, 0, 0]	-999	PAL1	1	R1392N
575.804	0.0	332379	RETRIEVAL_END	n/a	n/a	-999	-999	n/a	n/a	n/a	n/a	2	[0, 0, 0]	-999	PAL1	1	R1392N
575.804	0.021	332379	TRIAL_END	n/a	n/a	-999	-999	n/a	n/a	n/a	n/a	2	[0, 0, 0]	-999	PAL1	1	R1392N
575.825	0.0	332400	TRIAL	n/a	n/a	-999	-999	n/a	n/a	n/a	n/a	3	[0, 0, 0]	-999	PAL1	1	R1392N
575.825	0.0	332400	WAITING_START	n/a	n/a	-999	-999	n/a	n/a	n/a	n/a	3	[0, 0, 0]	-999	PAL1	1	R1392N
575.825	2.735	332400	TRIAL_START	n/a	n/a	-999	-999	n/a	n/a	n/a	n/a	2	[0, 0, 0]	-999	PAL1	1	R1392N
578.56	0.0	335135	WAITING_END	n/a	n/a	-999	-999	n/a	n/a	n/a	n/a	3	[0, 0, 0]	-999	PAL1	1	R1392N
578.56	10.0	335135	COUNTDOWN_START	n/a	n/a	-999	-999	n/a	n/a	n/a	n/a	3	[0, 0, 0]	-999	PAL1	1	R1392N
588.989	0.0	345563	COUNTDOWN_END	n/a	n/a	-999	-999	n/a	n/a	n/a	n/a	3	[0, 0, 0]	-999	PAL1	1	R1392N
588.989	0.723	345563	ORIENT_START	n/a	n/a	-999	-999	n/a	n/a	n/a	n/a	3	[0, 0, 0]	-999	PAL1	1	R1392N
589.712	0.0	346286	ORIENT_END	n/a	n/a	-999	-999	n/a	n/a	n/a	n/a	3	[0, 0, 0]	-999	PAL1	1	R1392N
589.712	1.078	346286	ENCODING_START	n/a	n/a	-999	-999	n/a	n/a	n/a	n/a	3	[0, 0, 0]	-999	PAL1	1	R1392N
590.79	4.0	347364	STUDY_PAIR	n/a	wordpools/wordpool_EN.txt	1	5	n/a	SLAVE	CLAY	SLUSH	3	[0, 0, 0]	-999	PAL1	1	R1392N
594.829	0.636	351403	STUDY_PAIR_OFF	n/a	n/a	1	5	n/a	SLAVE	CLAY	SLUSH	3	[0, 0, 0]	-999	PAL1	1	R1392N
595.465	4.0	352039	STUDY_PAIR	n/a	wordpools/wordpool_EN.txt	2	6	n/a	n/a	LIP	CASH	3	[0, 0, 0]	-999	PAL1	1	R1392N
599.496	0.576	356070	STUDY_PAIR_OFF	n/a	n/a	2	6	n/a	n/a	LIP	CASH	3	[0, 0, 0]	-999	PAL1	1	R1392N
600.072	4.0	356646	STUDY_PAIR	n/a	wordpools/wordpool_EN.txt	3	1	n/a	STONE	STOVE	FLAME	3	[0, 0, 0]	-999	PAL1	1	R1392N
604.114	0.667	360688	STUDY_PAIR_OFF	n/a	n/a	3	1	n/a	STONE	STOVE	FLAME	3	[0, 0, 0]	-999	PAL1	1	R1392N
604.781	4.0	361355	STUDY_PAIR	n/a	wordpools/wordpool_EN.txt	4	2	n/a	n/a	SEAL	TEETH	3	[0, 0, 0]	-999	PAL1	1	R1392N
608.815	0.733	365388	STUDY_PAIR_OFF	n/a	n/a	4	2	n/a	n/a	SEAL	TEETH	3	[0, 0, 0]	-999	PAL1	1	R1392N
609.548	4.0	366121	STUDY_PAIR	n/a	wordpools/wordpool_EN.txt	5	3	n/a	n/a	LAWN	BOARD	3	[0, 0, 0]	-999	PAL1	1	R1392N
613.582	0.627	370155	STUDY_PAIR_OFF	n/a	n/a	5	3	n/a	n/a	LAWN	BOARD	3	[0, 0, 0]	-999	PAL1	1	R1392N
614.209	4.0	370782	STUDY_PAIR	n/a	wordpools/wordpool_EN.txt	6	4	n/a	NET	PALM	NET	3	[0, 0, 0]	-999	PAL1	1	R1392N
618.232	0.0	374805	ENCODING_END	n/a	n/a	-999	-999	n/a	n/a	n/a	n/a	3	[0, 0, 0]	-999	PAL1	1	R1392N
618.232	0.001	374805	STUDY_PAIR_OFF	n/a	n/a	6	4	n/a	NET	PALM	NET	3	[0, 0, 0]	-999	PAL1	1	R1392N
618.233	0.0	374806	MATH_START	n/a	n/a	-999	-999	n/a	n/a	n/a	n/a	3	[0, 0, 0]	-999	PAL1	1	R1392N
618.233	0.015	374806	START	n/a	n/a	-999	-999	n/a	n/a	n/a	n/a	3	[-999, -999, -999]	-999	PAL1	1	R1392N
618.248	4.001	374821	PROB	3.97	n/a	-999	-999	n/a	n/a	n/a	n/a	3	[8, 8, 7]	23	PAL1	1	R1392N
622.249	1.868	378822	PROB	1.842	n/a	-999	-999	n/a	n/a	n/a	n/a	3	[1, 8, 6]	15	PAL1	1	R1392N
624.117	2.067	380690	PROB	2.03	n/a	-999	-999	n/a	n/a	n/a	n/a	3	[9, 3, 5]	17	PAL1	1	R1392N
626.184	2.049	382757	PROB	2.019	n/a	-999	-999	n/a	n/a	n/a	n/a	3	[6, 8, 4]	18	PAL1	1	R1392N
628.233	3.169	384806	PROB	3.129	n/a	-999	-999	n/a	n/a	n/a	n/a	3	[8, 6, 9]	23	PAL1	1	R1392N
631.402	1.882	387975	PROB	1.855	n/a	-999	-999	n/a	n/a	n/a	n/a	3	[1, 4, 6]	11	PAL1	1	R1392N
633.284	1.751	389856	PROB	1.726	n/a	-999	-999	n/a	n/a	n/a	n/a	3	[9, 2, 3]	14	PAL1	1	R1392N
635.035	1.917	391607	PROB	1.887	n/a	-999	-999	n/a	n/a	n/a	n/a	3	[7, 8, 7]	22	PAL1	1	R1392N
636.952	2.305	393524	PROB	2.305	n/a	-999	-999	n/a	n/a	n/a	n/a	3	[6, 9, 3]	18	PAL1	1	R1392N
639.257	0.011	395829	STOP	n/a	n/a	-999	-999	n/a	n/a	n/a	n/a	3	[-999, -999, -999]	-999	PAL1	1	R1392N
639.268	0.559	395840	MATH_END	n/a	n/a	-999	-999	n/a	n/a	n/a	n/a	3	[0, 0, 0]	-999	PAL1	1	R1392N
639.827	0.001	396399	RETRIEVAL_START	n/a	n/a	-999	-999	n/a	n/a	n/a	n/a	3	[0, 0, 0]	-999	PAL1	1	R1392N
639.828	0.275	396400	ORIENT_START	n/a	n/a	-999	-999	n/a	n/a	n/a	n/a	3	[0, 0, 0]	-999	PAL1	1	R1392N
640.103	0.551	396675	ORIENT_END	n/a	n/a	-999	-999	n/a	n/a	n/a	n/a	3	[0, 0, 0]	-999	PAL1	1	R1392N
640.654	0.001	397226	REC_START	n/a	n/a	3	1	STOVE	STONE	STOVE	FLAME	3	[0, 0, 0]	-999	PAL1	1	R1392N
640.655	4.0	397227	PROBE_START	n/a	wordpools/wordpool_EN.txt	3	1	STOVE	STONE	STOVE	FLAME	3	[0, 0, 0]	-999	PAL1	1	R1392N
643.487	0.441	400059	REC_EVENT	2.832	n/a	3	1	STOVE	STOVE	STOVE	FLAME	3	[0, 0, 0]	-999	PAL1	1	R1392N
643.928	0.759	400500	REC_EVENT	3.273	n/a	3	1	STOVE	STONE	STOVE	FLAME	3	[0, 0, 0]	-999	PAL1	1	R1392N
644.687	1.001	401259	PROBE_END	n/a	n/a	3	1	STOVE	n/a	STOVE	FLAME	3	[0, 0, 0]	-999	PAL1	1	R1392N
645.688	0.012	402260	REC_END	n/a	n/a	3	1	STOVE	n/a	STOVE	FLAME	3	[0, 0, 0]	-999	PAL1	1	R1392N
645.7	0.271	402272	ORIENT_START	n/a	n/a	-999	-999	n/a	n/a	n/a	n/a	3	[0, 0, 0]	-999	PAL1	1	R1392N
645.971	0.678	402543	ORIENT_END	n/a	n/a	-999	-999	n/a	n/a	n/a	n/a	3	[0, 0, 0]	-999	PAL1	1	R1392N
646.649	0.0	403221	REC_START	n/a	n/a	4	2	TEETH	n/a	SEAL	TEETH	3	[0, 0, 0]	-999	PAL1	1	R1392N
646.649	4.0	403221	PROBE_START	n/a	wordpools/wordpool_EN.txt	4	2	TEETH	n/a	SEAL	TEETH	3	[0, 0, 0]	-999	PAL1	1	R1392N
650.688	1.0	407260	PROBE_END	n/a	n/a	4	2	TEETH	n/a	SEAL	TEETH	3	[0, 0, 0]	-999	PAL1	1	R1392N
651.688	0.011	408260	REC_END	n/a	n/a	4	2	TEETH	n/a	SEAL	TEETH	3	[0, 0, 0]	-999	PAL1	1	R1392N
651.699	0.273	408271	ORIENT_START	n/a	n/a	-999	-999	n/a	n/a	n/a	n/a	3	[0, 0, 0]	-999	PAL1	1	R1392N
651.972	0.61	408544	ORIENT_END	n/a	n/a	-999	-999	n/a	n/a	n/a	n/a	3	[0, 0, 0]	-999	PAL1	1	R1392N
652.582	0.0	409154	REC_START	n/a	n/a	5	3	BOARD	n/a	LAWN	BOARD	3	[0, 0, 0]	-999	PAL1	1	R1392N
652.582	4.0	409154	PROBE_START	n/a	wordpools/wordpool_EN.txt	5	3	BOARD	n/a	LAWN	BOARD	3	[0, 0, 0]	-999	PAL1	1	R1392N
652.629	3.977	409201	REC_EVENT	5.98	n/a	4	2	TEETH	<>	SEAL	TEETH	3	[0, 0, 0]	-999	PAL1	1	R1392N
656.606	1.0	413178	PROBE_END	n/a	n/a	5	3	BOARD	n/a	LAWN	BOARD	3	[0, 0, 0]	-999	PAL1	1	R1392N
657.606	0.012	414178	REC_END	n/a	n/a	5	3	BOARD	n/a	LAWN	BOARD	3	[0, 0, 0]	-999	PAL1	1	R1392N
657.618	0.271	414190	ORIENT_START	n/a	n/a	-999	-999	n/a	n/a	n/a	n/a	3	[0, 0, 0]	-999	PAL1	1	R1392N
657.889	0.512	414461	ORIENT_END	n/a	n/a	-999	-999	n/a	n/a	n/a	n/a	3	[0, 0, 0]	-999	PAL1	1	R1392N
658.401	0.001	414973	REC_START	n/a	n/a	6	4	PALM	NET	PALM	NET	3	[0, 0, 0]	-999	PAL1	1	R1392N
658.402	4.0	414974	PROBE_START	n/a	wordpools/wordpool_EN.txt	6	4	PALM	NET	PALM	NET	3	[0, 0, 0]	-999	PAL1	1	R1392N
658.486	1.452	415058	REC_EVENT	5.904	n/a	5	3	BOARD	<>	LAWN	BOARD	3	[0, 0, 0]	-999	PAL1	1	R1392N
659.938	0.406	416510	REC_EVENT	1.536	n/a	6	4	PALM	PALM	PALM	NET	3	[0, 0, 0]	-999	PAL1	1	R1392N
660.344	2.096	416915	REC_EVENT	1.942	n/a	6	4	PALM	NET	PALM	NET	3	[0, 0, 0]	-999	PAL1	1	R1392N
662.44	1.0	419011	PROBE_END	n/a	n/a	6	4	PALM	n/a	PALM	NET	3	[0, 0, 0]	-999	PAL1	1	R1392N
663.44	0.012	420011	REC_END	n/a	n/a	6	4	PALM	n/a	PALM	NET	3	[0, 0, 0]	-999	PAL1	1	R1392N
663.452	0.272	420023	ORIENT_START	n/a	n/a	-999	-999	n/a	n/a	n/a	n/a	3	[0, 0, 0]	-999	PAL1	1	R1392N
663.724	0.697	420295	ORIENT_END	n/a	n/a	-999	-999	n/a	n/a	n/a	n/a	3	[0, 0, 0]	-999	PAL1	1	R1392N
664.421	0.0	420992	REC_START	n/a	n/a	1	5	CLAY	SLAVE	CLAY	SLUSH	3	[0, 0, 0]	-999	PAL1	1	R1392N
664.421	4.0	420992	PROBE_START	n/a	wordpools/wordpool_EN.txt	1	5	CLAY	SLAVE	CLAY	SLUSH	3	[0, 0, 0]	-999	PAL1	1	R1392N
667.953	0.344	424524	REC_EVENT	3.532	n/a	1	5	CLAY	CLAY	CLAY	SLUSH	3	[0, 0, 0]	-999	PAL1	1	R1392N
668.297	0.161	424868	REC_EVENT	3.876	n/a	1	5	CLAY	SLAVE	CLAY	SLUSH	3	[0, 0, 0]	-999	PAL1	1	R1392N
668.458	1.0	425029	PROBE_END	n/a	n/a	1	5	CLAY	n/a	CLAY	SLUSH	3	[0, 0, 0]	-999	PAL1	1	R1392N
669.458	0.013	426029	REC_END	n/a	n/a	1	5	CLAY	n/a	CLAY	SLUSH	3	[0, 0, 0]	-999	PAL1	1	R1392N
669.471	0.27	426042	ORIENT_START	n/a	n/a	-999	-999	n/a	n/a	n/a	n/a	3	[0, 0, 0]	-999	PAL1	1	R1392N
669.741	0.65	426312	ORIENT_END	n/a	n/a	-999	-999	n/a	n/a	n/a	n/a	3	[0, 0, 0]	-999	PAL1	1	R1392N
670.391	0.001	426962	REC_START	n/a	n/a	2	6	CASH	n/a	LIP	CASH	3	[0, 0, 0]	-999	PAL1	1	R1392N
670.392	4.0	426963	PROBE_START	n/a	wordpools/wordpool_EN.txt	2	6	CASH	n/a	LIP	CASH	3	[0, 0, 0]	-999	PAL1	1	R1392N
674.425	1.001	430996	PROBE_END	n/a	n/a	2	6	CASH	n/a	LIP	CASH	3	[0, 0, 0]	-999	PAL1	1	R1392N
675.426	0.011	431997	REC_END	n/a	n/a	2	6	CASH	n/a	LIP	CASH	3	[0, 0, 0]	-999	PAL1	1	R1392N
675.437	0.001	432008	RETRIEVAL_END	n/a	n/a	-999	-999	n/a	n/a	n/a	n/a	3	[0, 0, 0]	-999	PAL1	1	R1392N
675.438	0.022	432009	TRIAL_END	n/a	n/a	-999	-999	n/a	n/a	n/a	n/a	3	[0, 0, 0]	-999	PAL1	1	R1392N
675.46	0.0	432031	TRIAL_START	n/a	n/a	-999	-999	n/a	n/a	n/a	n/a	3	[0, 0, 0]	-999	PAL1	1	R1392N
675.46	0.0	432031	TRIAL	n/a	n/a	-999	-999	n/a	n/a	n/a	n/a	4	[0, 0, 0]	-999	PAL1	1	R1392N
675.46	0.837	432031	WAITING_START	n/a	n/a	-999	-999	n/a	n/a	n/a	n/a	4	[0, 0, 0]	-999	PAL1	1	R1392N
676.297	2.463	432868	REC_EVENT	5.905	n/a	2	6	CASH	<>	LIP	CASH	3	[0, 0, 0]	-999	PAL1	1	R1392N
678.76	0.0	435331	WAITING_END	n/a	n/a	-999	-999	n/a	n/a	n/a	n/a	4	[0, 0, 0]	-999	PAL1	1	R1392N
678.76	10.0	435331	COUNTDOWN_START	n/a	n/a	-999	-999	n/a	n/a	n/a	n/a	4	[0, 0, 0]	-999	PAL1	1	R1392N
689.189	0.0	445759	COUNTDOWN_END	n/a	n/a	-999	-999	n/a	n/a	n/a	n/a	4	[0, 0, 0]	-999	PAL1	1	R1392N
689.189	0.706	445759	ORIENT_START	n/a	n/a	-999	-999	n/a	n/a	n/a	n/a	4	[0, 0, 0]	-999	PAL1	1	R1392N
689.895	0.0	446465	ENCODING_START	n/a	n/a	-999	-999	n/a	n/a	n/a	n/a	4	[0, 0, 0]	-999	PAL1	1	R1392N
689.895	1.024	446465	ORIENT_END	n/a	n/a	-999	-999	n/a	n/a	n/a	n/a	4	[0, 0, 0]	-999	PAL1	1	R1392N
690.919	4.0	447489	STUDY_PAIR	n/a	wordpools/wordpool_EN.txt	1	3	n/a	TRAY	WOOD	TRAY	4	[0, 0, 0]	-999	PAL1	1	R1392N
694.945	0.592	451515	STUDY_PAIR_OFF	n/a	n/a	1	3	n/a	TRAY	WOOD	TRAY	4	[0, 0, 0]	-999	PAL1	1	R1392N
695.537	4.0	452107	STUDY_PAIR	n/a	wordpools/wordpool_EN.txt	2	6	n/a	n/a	STICK	HEN	4	[0, 0, 0]	-999	PAL1	1	R1392N
699.563	0.659	456133	STUDY_PAIR_OFF	n/a	n/a	2	6	n/a	n/a	STICK	HEN	4	[0, 0, 0]	-999	PAL1	1	R1392N
700.222	4.0	456792	STUDY_PAIR	n/a	wordpools/wordpool_EN.txt	3	5	n/a	LAMP	ELF	LAMP	4	[0, 0, 0]	-999	PAL1	1	R1392N
704.246	0.588	460816	STUDY_PAIR_OFF	n/a	n/a	3	5	n/a	LAMP	ELF	LAMP	4	[0, 0, 0]	-999	PAL1	1	R1392N
704.834	4.0	461404	STUDY_PAIR	n/a	wordpools/wordpool_EN.txt	4	2	n/a	n/a	MAZE	DIME	4	[0, 0, 0]	-999	PAL1	1	R1392N
708.864	0.556	465434	STUDY_PAIR_OFF	n/a	n/a	4	2	n/a	n/a	MAZE	DIME	4	[0, 0, 0]	-999	PAL1	1	R1392N
709.42	4.0	465990	STUDY_PAIR	n/a	wordpools/wordpool_EN.txt	5	1	n/a	n/a	CRANE	BEACH	4	[0, 0, 0]	-999	PAL1	1	R1392N
713.449	0.56	470019	STUDY_PAIR_OFF	n/a	n/a	5	1	n/a	n/a	CRANE	BEACH	4	[0, 0, 0]	-999	PAL1	1	R1392N
714.009	4.0	470579	STUDY_PAIR	n/a	wordpools/wordpool_EN.txt	6	4	n/a	BOMB	SALT	BOMB	4	[0, 0, 0]	-999	PAL1	1	R1392N
718.033	0.0	474602	STUDY_PAIR_OFF	n/a	n/a	6	4	n/a	BOMB	SALT	BOMB	4	[0, 0, 0]	-999	PAL1	1	R1392N
718.033	0.001	474602	ENCODING_END	n/a	n/a	-999	-999	n/a	n/a	n/a	n/a	4	[0, 0, 0]	-999	PAL1	1	R1392N
718.034	0.0	-1	MATH_START	n/a	n/a	-999	-999	n/a	n/a	n/a	n/a	4	[0, 0, 0]	-999	PAL1	1	R1392N
718.034	0.015	-1	START	n/a	n/a	-999	-999	n/a	n/a	n/a	n/a	4	[-999, -999, -999]	-999	PAL1	1	R1392N
718.049	6.051	-1	PROB	6.025	n/a	-999	-999	n/a	n/a	n/a	n/a	4	[9, 3, 5]	17	PAL1	1	R1392N
724.1	1.884	-1	PROB	1.855	n/a	-999	-999	n/a	n/a	n/a	n/a	4	[3, 7, 4]	14	PAL1	1	R1392N
725.984	2.65	-1	PROB	2.618	n/a	-999	-999	n/a	n/a	n/a	n/a	4	[3, 6, 6]	15	PAL1	1	R1392N
728.634	1.95	-1	PROB	1.921	n/a	-999	-999	n/a	n/a	n/a	n/a	4	[3, 3, 9]	15	PAL1	1	R1392N
730.584	1.75	-1	PROB	1.713	n/a	-999	-999	n/a	n/a	n/a	n/a	4	[1, 6, 1]	8	PAL1	1	R1392N
732.334	2.585	-1	PROB	2.549	n/a	-999	-999	n/a	n/a	n/a	n/a	4	[7, 8, 8]	23	PAL1	1	R1392N
734.919	1.883	-1	PROB	1.851	n/a	-999	-999	n/a	n/a	n/a	n/a	4	[9, 1, 8]	18	PAL1	1	R1392N
736.802	2.153	-1	PROB	2.153	n/a	-999	-999	n/a	n/a	n/a	n/a	4	[3, 1, 2]	6	PAL1	1	R1392N
738.955	0.014	-1	STOP	n/a	n/a	-999	-999	n/a	n/a	n/a	n/a	4	[-999, -999, -999]	-999	PAL1	1	R1392N
738.969	0.565	-1	MATH_END	n/a	n/a	-999	-999	n/a	n/a	n/a	n/a	4	[0, 0, 0]	-999	PAL1	1	R1392N
739.534	0.001	-1	RETRIEVAL_START	n/a	n/a	-999	-999	n/a	n/a	n/a	n/a	4	[0, 0, 0]	-999	PAL1	1	R1392N
739.535	0.285	-1	ORIENT_START	n/a	n/a	-999	-999	n/a	n/a	n/a	n/a	4	[0, 0, 0]	-999	PAL1	1	R1392N
739.82	0.689	-1	ORIENT_END	n/a	n/a	-999	-999	n/a	n/a	n/a	n/a	4	[0, 0, 0]	-999	PAL1	1	R1392N
740.509	0.001	-1	REC_START	n/a	n/a	5	1	CRANE	n/a	CRANE	BEACH	4	[0, 0, 0]	-999	PAL1	1	R1392N
740.51	4.0	-1	PROBE_START	n/a	wordpools/wordpool_EN.txt	5	1	CRANE	n/a	CRANE	BEACH	4	[0, 0, 0]	-999	PAL1	1	R1392N
746.415	480.271	-1	REC_EVENT	5.905	n/a	5	1	CRANE	<>	CRANE	BEACH	4	[0, 0, 0]	-999	PAL1	1	R1392N
1226.686	5.899	1666	INSTRUCT_START	n/a	n/a	-999	-999	n/a	n/a	n/a	n/a	4	[0, 0, 0]	-999	PAL1	1	R1392N
1232.585	1.117	7564	INSTRUCT_END	n/a	n/a	-999	-999	n/a	n/a	n/a	n/a	4	[0, 0, 0]	-999	PAL1	1	R1392N
1233.702	6.738	8681	MIC TEST_START	n/a	n/a	-999	-999	n/a	n/a	n/a	n/a	4	[0, 0, 0]	-999	PAL1	1	R1392N
1240.44	0.014	15419	MIC TEST_END	n/a	n/a	-999	-999	n/a	n/a	n/a	n/a	4	[0, 0, 0]	-999	PAL1	1	R1392N
1240.454	0.0	15433	TRIAL_START	n/a	n/a	-999	-999	n/a	n/a	n/a	n/a	4	[0, 0, 0]	-999	PAL1	1	R1392N
1240.454	0.0	15433	TRIAL	n/a	n/a	-999	-999	n/a	n/a	n/a	n/a	4	[0, 0, 0]	-999	PAL1	1	R1392N
1240.454	2.698	15433	WAITING_START	n/a	n/a	-999	-999	n/a	n/a	n/a	n/a	4	[0, 0, 0]	-999	PAL1	1	R1392N
1243.152	0.001	18131	WAITING_END	n/a	n/a	-999	-999	n/a	n/a	n/a	n/a	4	[0, 0, 0]	-999	PAL1	1	R1392N
1243.153	10.0	18132	COUNTDOWN_START	n/a	n/a	-999	-999	n/a	n/a	n/a	n/a	4	[0, 0, 0]	-999	PAL1	1	R1392N
1253.583	0.0	28562	COUNTDOWN_END	n/a	n/a	-999	-999	n/a	n/a	n/a	n/a	4	[0, 0, 0]	-999	PAL1	1	R1392N
1253.583	0.571	28562	ORIENT_START	n/a	n/a	-999	-999	n/a	n/a	n/a	n/a	4	[0, 0, 0]	-999	PAL1	1	R1392N
1254.154	0.0	29133	ENCODING_START	n/a	n/a	-999	-999	n/a	n/a	n/a	n/a	4	[0, 0, 0]	-999	PAL1	1	R1392N
1254.154	1.207	29133	ORIENT_END	n/a	n/a	-999	-999	n/a	n/a	n/a	n/a	4	[0, 0, 0]	-999	PAL1	1	R1392N
1255.361	4.0	30340	STUDY_PAIR	n/a	wordpools/wordpool_EN.txt	1	3	n/a	TRAY	WOOD	TRAY	4	[0, 0, 0]	-999	PAL1	1	R1392N
1259.389	0.656	34367	STUDY_PAIR_OFF	n/a	n/a	1	3	n/a	TRAY	WOOD	TRAY	4	[0, 0, 0]	-999	PAL1	1	R1392N
1260.045	4.0	35023	STUDY_PAIR	n/a	wordpools/wordpool_EN.txt	2	6	n/a	n/a	STICK	HEN	4	[0, 0, 0]	-999	PAL1	1	R1392N
1264.073	0.538	39051	STUDY_PAIR_OFF	n/a	n/a	2	6	n/a	n/a	STICK	HEN	4	[0, 0, 0]	-999	PAL1	1	R1392N
1264.611	4.0	39589	STUDY_PAIR	n/a	wordpools/wordpool_EN.txt	3	5	n/a	LAMP	ELF	LAMP	4	[0, 0, 0]	-999	PAL1	1	R1392N
1268.64	0.656	43618	STUDY_PAIR_OFF	n/a	n/a	3	5	n/a	LAMP	ELF	LAMP	4	[0, 0, 0]	-999	PAL1	1	R1392N
1269.296	4.0	44274	STUDY_PAIR	n/a	wordpools/wordpool_EN.txt	4	2	n/a	n/a	MAZE	DIME	4	[0, 0, 0]	-999	PAL1	1	R1392N
1273.324	0.719	48302	STUDY_PAIR_OFF	n/a	n/a	4	2	n/a	n/a	MAZE	DIME	4	[0, 0, 0]	-999	PAL1	1	R1392N
1274.043	4.0	49021	STUDY_PAIR	n/a	wordpools/wordpool_EN.txt	5	1	n/a	n/a	CRANE	BEACH	4	[0, 0, 0]	-999	PAL1	1	R1392N
1278.075	0.603	53053	STUDY_PAIR_OFF	n/a	n/a	5	1	n/a	n/a	CRANE	BEACH	4	[0, 0, 0]	-999	PAL1	1	R1392N
1278.678	4.0	53656	STUDY_PAIR	n/a	wordpools/wordpool_EN.txt	6	4	n/a	BOMB	SALT	BOMB	4	[0, 0, 0]	-999	PAL1	1	R1392N
1282.71	0.0	57688	STUDY_PAIR_OFF	n/a	n/a	6	4	n/a	BOMB	SALT	BOMB	4	[0, 0, 0]	-999	PAL1	1	R1392N
1282.71	0.0	57688	ENCODING_END	n/a	n/a	-999	-999	n/a	n/a	n/a	n/a	4	[0, 0, 0]	-999	PAL1	1	R1392N
1282.71	0.001	57688	MATH_START	n/a	n/a	-999	-999	n/a	n/a	n/a	n/a	4	[0, 0, 0]	-999	PAL1	1	R1392N
1282.711	0.015	57689	START	n/a	n/a	-999	-999	n/a	n/a	n/a	n/a	5	[-999, -999, -999]	-999	PAL1	1	R1392N
1282.726	5.034	57704	PROB	5.005	n/a	-999	-999	n/a	n/a	n/a	n/a	5	[1, 3, 2]	5	PAL1	1	R1392N
1287.76	5.483	62737	PROB	5.458	n/a	-999	-999	n/a	n/a	n/a	n/a	5	[7, 9, 1]	17	PAL1	1	R1392N
1293.243	8.803	68220	PROB	8.775	n/a	-999	-999	n/a	n/a	n/a	n/a	5	[8, 4, 2]	14	PAL1	1	R1392N
1302.046	3.861	77023	PROB	3.861	n/a	-999	-999	n/a	n/a	n/a	n/a	5	[5, 3, 8]	16	PAL1	1	R1392N
1305.907	0.006	80884	STOP	n/a	n/a	-999	-999	n/a	n/a	n/a	n/a	5	[-999, -999, -999]	-999	PAL1	1	R1392N
1305.913	0.63	80890	MATH_END	n/a	n/a	-999	-999	n/a	n/a	n/a	n/a	4	[0, 0, 0]	-999	PAL1	1	R1392N
1306.543	0.001	81520	RETRIEVAL_START	n/a	n/a	-999	-999	n/a	n/a	n/a	n/a	4	[0, 0, 0]	-999	PAL1	1	R1392N
1306.544	0.286	81521	ORIENT_START	n/a	n/a	-999	-999	n/a	n/a	n/a	n/a	4	[0, 0, 0]	-999	PAL1	1	R1392N
1306.83	0.637	81807	ORIENT_END	n/a	n/a	-999	-999	n/a	n/a	n/a	n/a	4	[0, 0, 0]	-999	PAL1	1	R1392N
1307.467	4.0	82444	PROBE_START	n/a	wordpools/wordpool_EN.txt	5	1	CRANE	n/a	CRANE	BEACH	4	[0, 0, 0]	-999	PAL1	1	R1392N
1307.467	4.031	82444	REC_START	n/a	n/a	5	1	CRANE	n/a	CRANE	BEACH	4	[0, 0, 0]	-999	PAL1	1	R1392N
1311.498	1.0	86475	PROBE_END	n/a	n/a	5	1	CRANE	n/a	CRANE	BEACH	4	[0, 0, 0]	-999	PAL1	1	R1392N
1312.498	0.012	87475	REC_END	n/a	n/a	5	1	CRANE	n/a	CRANE	BEACH	4	[0, 0, 0]	-999	PAL1	1	R1392N
1312.51	0.271	87487	ORIENT_START	n/a	n/a	-999	-999	n/a	n/a	n/a	n/a	4	[0, 0, 0]	-999	PAL1	1	R1392N
1312.781	0.576	87758	ORIENT_END	n/a	n/a	-999	-999	n/a	n/a	n/a	n/a	4	[0, 0, 0]	-999	PAL1	1	R1392N
1313.357	0.0	88334	REC_START	n/a	n/a	4	2	DIME	n/a	MAZE	DIME	4	[0, 0, 0]	-999	PAL1	1	R1392N
1313.357	4.0	88334	PROBE_START	n/a	wordpools/wordpool_EN.txt	4	2	DIME	n/a	MAZE	DIME	4	[0, 0, 0]	-999	PAL1	1	R1392N
1313.372	4.01	88349	REC_EVENT	5.905	n/a	5	1	CRANE	<>	CRANE	BEACH	4	[0, 0, 0]	-999	PAL1	1	R1392N
1317.382	1.001	92358	PROBE_END	n/a	n/a	4	2	DIME	n/a	MAZE	DIME	4	[0, 0, 0]	-999	PAL1	1	R1392N
1318.383	0.012	93359	REC_END	n/a	n/a	4	2	DIME	n/a	MAZE	DIME	4	[0, 0, 0]	-999	PAL1	1	R1392N
1318.395	0.27	93371	ORIENT_START	n/a	n/a	-999	-999	n/a	n/a	n/a	n/a	4	[0, 0, 0]	-999	PAL1	1	R1392N
1318.665	0.516	93641	ORIENT_END	n/a	n/a	-999	-999	n/a	n/a	n/a	n/a	4	[0, 0, 0]	-999	PAL1	1	R1392N
1319.181	0.021	94157	REC_EVENT	5.824	n/a	4	2	DIME	<>	MAZE	DIME	4	[0, 0, 0]	-999	PAL1	1	R1392N
1319.202	0.0	94178	REC_START	n/a	n/a	1	3	WOOD	TRAY	WOOD	TRAY	4	[0, 0, 0]	-999	PAL1	1	R1392N
1319.202	4.0	94178	PROBE_START	n/a	wordpools/wordpool_EN.txt	1	3	WOOD	TRAY	WOOD	TRAY	4	[0, 0, 0]	-999	PAL1	1	R1392N
1321.129	2.103	96105	REC_EVENT	1.927	n/a	1	3	WOOD	TRAY	WOOD	TRAY	4	[0, 0, 0]	-999	PAL1	1	R1392N
1323.232	1.0	98208	PROBE_END	n/a	n/a	1	3	WOOD	n/a	WOOD	TRAY	4	[0, 0, 0]	-999	PAL1	1	R1392N
1324.232	0.011	99208	REC_END	n/a	n/a	1	3	WOOD	n/a	WOOD	TRAY	4	[0, 0, 0]	-999	PAL1	1	R1392N
1324.243	0.273	99219	ORIENT_START	n/a	n/a	-999	-999	n/a	n/a	n/a	n/a	4	[0, 0, 0]	-999	PAL1	1	R1392N
1324.516	0.602	99492	ORIENT_END	n/a	n/a	-999	-999	n/a	n/a	n/a	n/a	4	[0, 0, 0]	-999	PAL1	1	R1392N
1325.118	0.0	100094	REC_START	n/a	n/a	6	4	BOMB	BOMB	SALT	BOMB	4	[0, 0, 0]	-999	PAL1	1	R1392N
1325.118	4.0	100094	PROBE_START	n/a	wordpools/wordpool_EN.txt	6	4	BOMB	BOMB	SALT	BOMB	4	[0, 0, 0]	-999	PAL1	1	R1392N
1328.075	0.859	103051	REC_EVENT	2.957	n/a	6	4	BOMB	SALT	SALT	BOMB	4	[0, 0, 0]	-999	PAL1	1	R1392N
1328.934	0.216	103910	REC_EVENT	3.816	n/a	6	4	BOMB	BOMB	SALT	BOMB	4	[0, 0, 0]	-999	PAL1	1	R1392N
1329.15	1.0	104126	PROBE_END	n/a	n/a	6	4	BOMB	n/a	SALT	BOMB	4	[0, 0, 0]	-999	PAL1	1	R1392N
1330.15	0.013	105126	REC_END	n/a	n/a	6	4	BOMB	n/a	SALT	BOMB	4	[0, 0, 0]	-999	PAL1	1	R1392N
1330.163	0.271	105139	ORIENT_START	n/a	n/a	-999	-999	n/a	n/a	n/a	n/a	4	[0, 0, 0]	-999	PAL1	1	R1392N
1330.434	0.515	105410	ORIENT_END	n/a	n/a	-999	-999	n/a	n/a	n/a	n/a	4	[0, 0, 0]	-999	PAL1	1	R1392N
1330.949	0.001	105925	REC_START	n/a	n/a	3	5	LAMP	LAMP	ELF	LAMP	4	[0, 0, 0]	-999	PAL1	1	R1392N
1330.95	4.0	105926	PROBE_START	n/a	wordpools/wordpool_EN.txt	3	5	LAMP	LAMP	ELF	LAMP	4	[0, 0, 0]	-999	PAL1	1	R1392N
1334.432	0.553	109408	REC_EVENT	3.482	n/a	3	5	LAMP	STICK	ELF	LAMP	4	[0, 0, 0]	-999	PAL1	1	R1392N
1334.985	0.236	109961	PROBE_END	n/a	n/a	3	5	LAMP	n/a	ELF	LAMP	4	[0, 0, 0]	-999	PAL1	1	R1392N
1335.221	0.764	110197	REC_EVENT	4.271	n/a	3	5	LAMP	LAMP	ELF	LAMP	4	[0, 0, 0]	-999	PAL1	1	R1392N
1335.985	0.012	110961	REC_END	n/a	n/a	3	5	LAMP	n/a	ELF	LAMP	4	[0, 0, 0]	-999	PAL1	1	R1392N
1335.997	0.27	110973	ORIENT_START	n/a	n/a	-999	-999	n/a	n/a	n/a	n/a	4	[0, 0, 0]	-999	PAL1	1	R1392N
1336.267	0.661	111243	ORIENT_END	n/a	n/a	-999	-999	n/a	n/a	n/a	n/a	4	[0, 0, 0]	-999	PAL1	1	R1392N
1336.928	0.001	111904	REC_START	n/a	n/a	2	6	STICK	n/a	STICK	HEN	4	[0, 0, 0]	-999	PAL1	1	R1392N
1336.929	4.0	111905	PROBE_START	n/a	wordpools/wordpool_EN.txt	2	6	STICK	n/a	STICK	HEN	4	[0, 0, 0]	-999	PAL1	1	R1392N
1339.414	1.538	114390	REC_EVENT	2.485	n/a	2	6	STICK	<>	STICK	HEN	4	[0, 0, 0]	-999	PAL1	1	R1392N
1340.952	1.0	115928	PROBE_END	n/a	n/a	2	6	STICK	n/a	STICK	HEN	4	[0, 0, 0]	-999	PAL1	1	R1392N
1341.952	0.012	116928	REC_END	n/a	n/a	2	6	STICK	n/a	STICK	HEN	4	[0, 0, 0]	-999	PAL1	1	R1392N
1341.964	0.0	116940	RETRIEVAL_END	n/a	n/a	-999	-999	n/a	n/a	n/a	n/a	4	[0, 0, 0]	-999	PAL1	1	R1392N
1341.964	0.02	116940	TRIAL_END	n/a	n/a	-999	-999	n/a	n/a	n/a	n/a	4	[0, 0, 0]	-999	PAL1	1	R1392N
1341.984	0.0	116960	WAITING_START	n/a	n/a	-999	-999	n/a	n/a	n/a	n/a	5	[0, 0, 0]	-999	PAL1	1	R1392N
1341.984	0.0	116960	TRIAL	n/a	n/a	-999	-999	n/a	n/a	n/a	n/a	5	[0, 0, 0]	-999	PAL1	1	R1392N
1341.984	0.85	116960	TRIAL_START	n/a	n/a	-999	-999	n/a	n/a	n/a	n/a	4	[0, 0, 0]	-999	PAL1	1	R1392N
1342.834	0.969	117810	REC_EVENT	5.905	n/a	2	6	STICK	<>	STICK	HEN	4	[0, 0, 0]	-999	PAL1	1	R1392N
1343.803	0.001	118779	WAITING_END	n/a	n/a	-999	-999	n/a	n/a	n/a	n/a	5	[0, 0, 0]	-999	PAL1	1	R1392N
1343.804	10.0	118780	COUNTDOWN_START	n/a	n/a	-999	-999	n/a	n/a	n/a	n/a	5	[0, 0, 0]	-999	PAL1	1	R1392N
1354.233	0.001	129208	COUNTDOWN_END	n/a	n/a	-999	-999	n/a	n/a	n/a	n/a	5	[0, 0, 0]	-999	PAL1	1	R1392N
1354.234	0.754	129209	ORIENT_START	n/a	n/a	-999	-999	n/a	n/a	n/a	n/a	5	[0, 0, 0]	-999	PAL1	1	R1392N
1354.988	0.001	129963	ORIENT_END	n/a	n/a	-999	-999	n/a	n/a	n/a	n/a	5	[0, 0, 0]	-999	PAL1	1	R1392N
1354.989	1.035	129964	ENCODING_START	n/a	n/a	-999	-999	n/a	n/a	n/a	n/a	5	[0, 0, 0]	-999	PAL1	1	R1392N
1356.024	4.0	130999	STUDY_PAIR	n/a	wordpools/wordpool_EN.txt	1	1	n/a	n/a	MILK	CUBE	5	[0, 0, 0]	-999	PAL1	1	R1392N
1360.056	0.648	135031	STUDY_PAIR_OFF	n/a	n/a	1	1	n/a	n/a	MILK	CUBE	5	[0, 0, 0]	-999	PAL1	1	R1392N
1360.704	4.0	135679	STUDY_PAIR	n/a	wordpools/wordpool_EN.txt	2	2	n/a	HAND	VASE	SIGN	5	[0, 0, 0]	-999	PAL1	1	R1392N
1364.74	0.513	139715	STUDY_PAIR_OFF	n/a	n/a	2	2	n/a	HAND	VASE	SIGN	5	[0, 0, 0]	-999	PAL1	1	R1392N
1365.253	4.0	140228	STUDY_PAIR	n/a	wordpools/wordpool_EN.txt	3	5	n/a	n/a	PURSE	CAVE	5	[0, 0, 0]	-999	PAL1	1	R1392N
1369.29	0.514	144265	STUDY_PAIR_OFF	n/a	n/a	3	5	n/a	n/a	PURSE	CAVE	5	[0, 0, 0]	-999	PAL1	1	R1392N
1369.804	4.0	144779	STUDY_PAIR	n/a	wordpools/wordpool_EN.txt	4	6	n/a	n/a	DRUM	TRAIN	5	[0, 0, 0]	-999	PAL1	1	R1392N
1373.841	0.523	148816	STUDY_PAIR_OFF	n/a	n/a	4	6	n/a	n/a	DRUM	TRAIN	5	[0, 0, 0]	-999	PAL1	1	R1392N
1374.364	4.0	149338	STUDY_PAIR	n/a	wordpools/wordpool_EN.txt	5	3	n/a	STOOL	TRUCK	CAPE	5	[0, 0, 0]	-999	PAL1	1	R1392N
1378.392	0.534	153366	STUDY_PAIR_OFF	n/a	n/a	5	3	n/a	STOOL	TRUCK	CAPE	5	[0, 0, 0]	-999	PAL1	1	R1392N
1378.926	4.0	153900	STUDY_PAIR	n/a	wordpools/wordpool_EN.txt	6	4	n/a	HAND	PIT	STOOL	5	[0, 0, 0]	-999	PAL1	1	R1392N
1382.959	0.001	157933	STUDY_PAIR_OFF	n/a	n/a	6	4	n/a	HAND	PIT	STOOL	5	[0, 0, 0]	-999	PAL1	1	R1392N
1382.96	0.0	157934	MATH_START	n/a	n/a	-999	-999	n/a	n/a	n/a	n/a	5	[0, 0, 0]	-999	PAL1	1	R1392N
1382.96	0.001	157934	ENCODING_END	n/a	n/a	-999	-999	n/a	n/a	n/a	n/a	5	[0, 0, 0]	-999	PAL1	1	R1392N
1382.961	0.015	157935	START	n/a	n/a	-999	-999	n/a	n/a	n/a	n/a	6	[-999, -999, -999]	-999	PAL1	1	R1392N
1382.976	5.784	157950	PROB	5.754	n/a	-999	-999	n/a	n/a	n/a	n/a	6	[2, 5, 9]	26	PAL1	1	R1392N
1388.76	5.084	163734	PROB	5.059	n/a	-999	-999	n/a	n/a	n/a	n/a	6	[4, 3, 3]	10	PAL1	1	R1392N
1393.844	2.034	168818	PROB	2.007	n/a	-999	-999	n/a	n/a	n/a	n/a	6	[8, 4, 9]	21	PAL1	1	R1392N
1395.878	3.45	170852	PROB	3.412	n/a	-999	-999	n/a	n/a	n/a	n/a	6	[8, 6, 5]	19	PAL1	1	R1392N
1399.328	4.091	174302	PROB	4.091	n/a	-999	-999	n/a	n/a	n/a	n/a	6	[5, 6, 6]	17	PAL1	1	R1392N
1403.419	0.011	178392	STOP	n/a	n/a	-999	-999	n/a	n/a	n/a	n/a	6	[-999, -999, -999]	-999	PAL1	1	R1392N
1403.43	0.552	178403	MATH_END	n/a	n/a	-999	-999	n/a	n/a	n/a	n/a	5	[0, 0, 0]	-999	PAL1	1	R1392N
1403.982	0.001	178955	RETRIEVAL_START	n/a	n/a	-999	-999	n/a	n/a	n/a	n/a	5	[0, 0, 0]	-999	PAL1	1	R1392N
1403.983	0.279	178956	ORIENT_START	n/a	n/a	-999	-999	n/a	n/a	n/a	n/a	5	[0, 0, 0]	-999	PAL1	1	R1392N
1404.262	0.698	179235	ORIENT_END	n/a	n/a	-999	-999	n/a	n/a	n/a	n/a	5	[0, 0, 0]	-999	PAL1	1	R1392N
1404.96	0.001	179933	REC_START	n/a	n/a	1	1	CUBE	n/a	MILK	CUBE	5	[0, 0, 0]	-999	PAL1	1	R1392N
1404.961	4.0	179934	PROBE_START	n/a	wordpools/wordpool_EN.txt	1	1	CUBE	n/a	MILK	CUBE	5	[0, 0, 0]	-999	PAL1	1	R1392N
1408.997	1.001	183970	PROBE_END	n/a	n/a	1	1	CUBE	n/a	MILK	CUBE	5	[0, 0, 0]	-999	PAL1	1	R1392N
1409.998	0.013	184971	REC_END	n/a	n/a	1	1	CUBE	n/a	MILK	CUBE	5	[0, 0, 0]	-999	PAL1	1	R1392N
1410.011	0.269	184984	ORIENT_START	n/a	n/a	-999	-999	n/a	n/a	n/a	n/a	5	[0, 0, 0]	-999	PAL1	1	R1392N
1410.28	0.644	185253	ORIENT_END	n/a	n/a	-999	-999	n/a	n/a	n/a	n/a	5	[0, 0, 0]	-999	PAL1	1	R1392N
1410.924	0.069	185897	REC_EVENT	5.963	n/a	1	1	CUBE	<>	MILK	CUBE	5	[0, 0, 0]	-999	PAL1	1	R1392N
1410.993	0.0	185966	REC_START	n/a	n/a	2	2	SIGN	HAND	VASE	SIGN	5	[0, 0, 0]	-999	PAL1	1	R1392N
1410.993	4.0	185966	PROBE_START	n/a	wordpools/wordpool_EN.txt	2	2	SIGN	HAND	VASE	SIGN	5	[0, 0, 0]	-999	PAL1	1	R1392N
1414.818	0.214	189791	REC_EVENT	3.825	n/a	2	2	SIGN	SIGN	VASE	SIGN	5	[0, 0, 0]	-999	PAL1	1	R1392N
1415.032	0.37	190005	PROBE_END	n/a	n/a	2	2	SIGN	n/a	VASE	SIGN	5	[0, 0, 0]	-999	PAL1	1	R1392N
1415.402	0.63	190375	REC_EVENT	4.409	n/a	2	2	SIGN	HAND	VASE	SIGN	5	[0, 0, 0]	-999	PAL1	1	R1392N
1416.032	0.013	191005	REC_END	n/a	n/a	2	2	SIGN	n/a	VASE	SIGN	5	[0, 0, 0]	-999	PAL1	1	R1392N
1416.045	0.269	191018	ORIENT_START	n/a	n/a	-999	-999	n/a	n/a	n/a	n/a	5	[0, 0, 0]	-999	PAL1	1	R1392N
1416.314	0.501	191287	ORIENT_END	n/a	n/a	-999	-999	n/a	n/a	n/a	n/a	5	[0, 0, 0]	-999	PAL1	1	R1392N
1416.815	0.001	191788	REC_START	n/a	n/a	5	3	TRUCK	STOOL	TRUCK	CAPE	5	[0, 0, 0]	-999	PAL1	1	R1392N
1416.816	4.0	191789	PROBE_START	n/a	wordpools/wordpool_EN.txt	5	3	TRUCK	STOOL	TRUCK	CAPE	5	[0, 0, 0]	-999	PAL1	1	R1392N
1418.901	1.948	193874	REC_EVENT	2.085	n/a	5	3	TRUCK	STOOL	TRUCK	CAPE	5	[0, 0, 0]	-999	PAL1	1	R1392N
1420.849	1.0	195822	PROBE_END	n/a	n/a	5	3	TRUCK	n/a	TRUCK	CAPE	5	[0, 0, 0]	-999	PAL1	1	R1392N
1421.849	0.012	196822	REC_END	n/a	n/a	5	3	TRUCK	n/a	TRUCK	CAPE	5	[0, 0, 0]	-999	PAL1	1	R1392N
1421.861	0.271	196834	ORIENT_START	n/a	n/a	-999	-999	n/a	n/a	n/a	n/a	5	[0, 0, 0]	-999	PAL1	1	R1392N
1422.132	0.739	197105	ORIENT_END	n/a	n/a	-999	-999	n/a	n/a	n/a	n/a	5	[0, 0, 0]	-999	PAL1	1	R1392N
1422.871	0.001	197844	REC_START	n/a	n/a	6	4	STOOL	HAND	PIT	STOOL	5	[0, 0, 0]	-999	PAL1	1	R1392N
1422.872	4.0	197845	PROBE_START	n/a	wordpools/wordpool_EN.txt	6	4	STOOL	HAND	PIT	STOOL	5	[0, 0, 0]	-999	PAL1	1	R1392N
1425.88	0.415	200853	REC_EVENT	3.008	n/a	6	4	STOOL	PIT	PIT	STOOL	5	[0, 0, 0]	-999	PAL1	1	R1392N
1426.295	0.605	201268	REC_EVENT	3.423	n/a	6	4	STOOL	TRUCK	PIT	STOOL	5	[0, 0, 0]	-999	PAL1	1	R1392N
1426.9	0.068	201873	PROBE_END	n/a	n/a	6	4	STOOL	n/a	PIT	STOOL	5	[0, 0, 0]	-999	PAL1	1	R1392N
1426.968	0.547	201941	REC_EVENT	4.096	n/a	6	4	STOOL	STOOL	PIT	STOOL	5	[0, 0, 0]	-999	PAL1	1	R1392N
1427.515	0.386	202488	REC_EVENT	4.643	n/a	6	4	STOOL	HAND	PIT	STOOL	5	[0, 0, 0]	-999	PAL1	1	R1392N
1427.901	0.006	202874	REC_END	n/a	n/a	6	4	STOOL	n/a	PIT	STOOL	5	[0, 0, 0]	-999	PAL1	1	R1392N
1427.907	0.276	202880	ORIENT_START	n/a	n/a	-999	-999	n/a	n/a	n/a	n/a	5	[0, 0, 0]	-999	PAL1	1	R1392N
1428.183	0.628	203156	ORIENT_END	n/a	n/a	-999	-999	n/a	n/a	n/a	n/a	5	[0, 0, 0]	-999	PAL1	1	R1392N
1428.811	0.001	203784	REC_START	n/a	n/a	3	5	PURSE	n/a	PURSE	CAVE	5	[0, 0, 0]	-999	PAL1	1	R1392N
1428.812	4.0	203785	PROBE_START	n/a	wordpools/wordpool_EN.txt	3	5	PURSE	n/a	PURSE	CAVE	5	[0, 0, 0]	-999	PAL1	1	R1392N
1432.851	1.0	207823	PROBE_END	n/a	n/a	3	5	PURSE	n/a	PURSE	CAVE	5	[0, 0, 0]	-999	PAL1	1	R1392N
1433.851	0.013	208823	REC_END	n/a	n/a	3	5	PURSE	n/a	PURSE	CAVE	5	[0, 0, 0]	-999	PAL1	1	R1392N
1433.864	0.27	208836	ORIENT_START	n/a	n/a	-999	-999	n/a	n/a	n/a	n/a	5	[0, 0, 0]	-999	PAL1	1	R1392N
1434.134	0.617	209106	ORIENT_END	n/a	n/a	-999	-999	n/a	n/a	n/a	n/a	5	[0, 0, 0]	-999	PAL1	1	R1392N
1434.751	0.013	209723	REC_EVENT	5.939	n/a	3	5	PURSE	<>	PURSE	CAVE	5	[0, 0, 0]	-999	PAL1	1	R1392N
1434.764	0.001	209736	REC_START	n/a	n/a	4	6	DRUM	n/a	DRUM	TRAIN	5	[0, 0, 0]	-999	PAL1	1	R1392N
1434.765	4.0	209737	PROBE_START	n/a	wordpools/wordpool_EN.txt	4	6	DRUM	n/a	DRUM	TRAIN	5	[0, 0, 0]	-999	PAL1	1	R1392N
1438.802	1.001	213774	PROBE_END	n/a	n/a	4	6	DRUM	n/a	DRUM	TRAIN	5	[0, 0, 0]	-999	PAL1	1	R1392N
1439.803	0.013	214775	REC_END	n/a	n/a	4	6	DRUM	n/a	DRUM	TRAIN	5	[0, 0, 0]	-999	PAL1	1	R1392N
1439.816	0.0	214788	TRIAL_END	n/a	n/a	-999	-999	n/a	n/a	n/a	n/a	5	[0, 0, 0]	-999	PAL1	1	R1392N
1439.816	0.021	214788	RETRIEVAL_END	n/a	n/a	-999	-999	n/a	n/a	n/a	n/a	5	[0, 0, 0]	-999	PAL1	1	R1392N
1439.837	0.001	214809	TRIAL_START	n/a	n/a	-999	-999	n/a	n/a	n/a	n/a	5	[0, 0, 0]	-999	PAL1	1	R1392N
1439.838	0.0	214810	TRIAL	n/a	n/a	-999	-999	n/a	n/a	n/a	n/a	6	[0, 0, 0]	-999	PAL1	1	R1392N
1439.838	0.814	214810	WAITING_START	n/a	n/a	-999	-999	n/a	n/a	n/a	n/a	6	[0, 0, 0]	-999	PAL1	1	R1392N
1440.652	2.217	215624	REC_EVENT	5.887	n/a	4	6	DRUM	<>	DRUM	TRAIN	5	[0, 0, 0]	-999	PAL1	1	R1392N
1442.869	0.001	217841	WAITING_END	n/a	n/a	-999	-999	n/a	n/a	n/a	n/a	6	[0, 0, 0]	-999	PAL1	1	R1392N
1442.87	10.0	217842	COUNTDOWN_START	n/a	n/a	-999	-999	n/a	n/a	n/a	n/a	6	[0, 0, 0]	-999	PAL1	1	R1392N
1453.299	0.001	228271	COUNTDOWN_END	n/a	n/a	-999	-999	n/a	n/a	n/a	n/a	6	[0, 0, 0]	-999	PAL1	1	R1392N
1453.3	0.688	228272	ORIENT_START	n/a	n/a	-999	-999	n/a	n/a	n/a	n/a	6	[0, 0, 0]	-999	PAL1	1	R1392N
1453.988	0.001	228960	ORIENT_END	n/a	n/a	-999	-999	n/a	n/a	n/a	n/a	6	[0, 0, 0]	-999	PAL1	1	R1392N
1453.989	1.25	228961	ENCODING_START	n/a	n/a	-999	-999	n/a	n/a	n/a	n/a	6	[0, 0, 0]	-999	PAL1	1	R1392N
1455.239	4.0	230211	STUDY_PAIR	n/a	wordpools/wordpool_EN.txt	1	5	n/a	n/a	ARK	JUDGE	6	[0, 0, 0]	-999	PAL1	1	R1392N
1459.271	0.516	234243	STUDY_PAIR_OFF	n/a	n/a	1	5	n/a	n/a	ARK	JUDGE	6	[0, 0, 0]	-999	PAL1	1	R1392N
1459.787	4.0	234759	STUDY_PAIR	n/a	wordpools/wordpool_EN.txt	2	4	n/a	n/a	WEB	JAIL	6	[0, 0, 0]	-999	PAL1	1	R1392N
1463.823	0.683	238794	STUDY_PAIR_OFF	n/a	n/a	2	4	n/a	n/a	WEB	JAIL	6	[0, 0, 0]	-999	PAL1	1	R1392N
1464.506	4.0	239477	STUDY_PAIR	n/a	wordpools/wordpool_EN.txt	3	3	n/a	n/a	GRASS	MAP	6	[0, 0, 0]	-999	PAL1	1	R1392N
1468.54	0.748	243511	STUDY_PAIR_OFF	n/a	n/a	3	3	n/a	n/a	GRASS	MAP	6	[0, 0, 0]	-999	PAL1	1	R1392N
1469.288	4.0	244259	STUDY_PAIR	n/a	wordpools/wordpool_EN.txt	4	6	n/a	n/a	COW	PEAR	6	[0, 0, 0]	-999	PAL1	1	R1392N
1473.324	0.648	248295	STUDY_PAIR_OFF	n/a	n/a	4	6	n/a	n/a	COW	PEAR	6	[0, 0, 0]	-999	PAL1	1	R1392N
1473.972	4.0	248943	STUDY_PAIR	n/a	wordpools/wordpool_EN.txt	5	1	n/a	n/a	KITE	SWAMP	6	[0, 0, 0]	-999	PAL1	1	R1392N
1478.009	0.632	252980	STUDY_PAIR_OFF	n/a	n/a	5	1	n/a	n/a	KITE	SWAMP	6	[0, 0, 0]	-999	PAL1	1	R1392N
1478.641	4.0	253612	STUDY_PAIR	n/a	wordpools/wordpool_EN.txt	6	2	n/a	n/a	TENT	WALL	6	[0, 0, 0]	-999	PAL1	1	R1392N
1482.676	0.0	257647	STUDY_PAIR_OFF	n/a	n/a	6	2	n/a	n/a	TENT	WALL	6	[0, 0, 0]	-999	PAL1	1	R1392N
1482.676	0.001	257647	ENCODING_END	n/a	n/a	-999	-999	n/a	n/a	n/a	n/a	6	[0, 0, 0]	-999	PAL1	1	R1392N
1482.677	0.0	257648	MATH_START	n/a	n/a	-999	-999	n/a	n/a	n/a	n/a	6	[0, 0, 0]	-999	PAL1	1	R1392N
1482.677	0.015	257648	START	n/a	n/a	-999	-999	n/a	n/a	n/a	n/a	7	[-999, -999, -999]	-999	PAL1	1	R1392N
1482.692	6.368	257663	PROB	6.335	n/a	-999	-999	n/a	n/a	n/a	n/a	7	[4, 1, 7]	12	PAL1	1	R1392N
1489.06	2.233	264031	PROB	2.206	n/a	-999	-999	n/a	n/a	n/a	n/a	7	[1, 5, 7]	13	PAL1	1	R1392N
1491.293	3.318	266263	PROB	3.285	n/a	-999	-999	n/a	n/a	n/a	n/a	7	[1, 3, 5]	9	PAL1	1	R1392N
1494.611	2.666	269581	PROB	2.638	n/a	-999	-999	n/a	n/a	n/a	n/a	7	[8, 9, 1]	18	PAL1	1	R1392N
1497.277	2.984	272247	PROB	2.957	n/a	-999	-999	n/a	n/a	n/a	n/a	7	[7, 5, 6]	18	PAL1	1	R1392N
1500.261	2.168	275231	PROB	2.134	n/a	-999	-999	n/a	n/a	n/a	n/a	7	[7, 3, 2]	12	PAL1	1	R1392N
1502.429	2.422	277399	PROB	2.422	n/a	-999	-999	n/a	n/a	n/a	n/a	7	[1, 7, 1]	9	PAL1	1	R1392N
1504.851	0.012	279821	STOP	n/a	n/a	-999	-999	n/a	n/a	n/a	n/a	7	[-999, -999, -999]	-999	PAL1	1	R1392N
1504.863	0.514	279833	MATH_END	n/a	n/a	-999	-999	n/a	n/a	n/a	n/a	6	[0, 0, 0]	-999	PAL1	1	R1392N
1505.377	0.001	280347	RETRIEVAL_START	n/a	n/a	-999	-999	n/a	n/a	n/a	n/a	6	[0, 0, 0]	-999	PAL1	1	R1392N
1505.378	0.285	280348	ORIENT_START	n/a	n/a	-999	-999	n/a	n/a	n/a	n/a	6	[0, 0, 0]	-999	PAL1	1	R1392N
1505.663	0.64	280633	ORIENT_END	n/a	n/a	-999	-999	n/a	n/a	n/a	n/a	6	[0, 0, 0]	-999	PAL1	1	R1392N
1506.303	0.0	281273	REC_START	n/a	n/a	5	1	SWAMP	n/a	KITE	SWAMP	6	[0, 0, 0]	-999	PAL1	1	R1392N
1506.303	4.0	281273	PROBE_START	n/a	wordpools/wordpool_EN.txt	5	1	SWAMP	n/a	KITE	SWAMP	6	[0, 0, 0]	-999	PAL1	1	R1392N
1510.33	0.999	285300	PROBE_END	n/a	n/a	5	1	SWAMP	n/a	KITE	SWAMP	6	[0, 0, 0]	-999	PAL1	1	R1392N
1511.329	0.013	286299	REC_END	n/a	n/a	5	1	SWAMP	n/a	KITE	SWAMP	6	[0, 0, 0]	-999	PAL1	1	R1392N
1511.342	0.272	286312	ORIENT_START	n/a	n/a	-999	-999	n/a	n/a	n/a	n/a	6	[0, 0, 0]	-999	PAL1	1	R1392N
1511.614	0.57	286584	ORIENT_END	n/a	n/a	-999	-999	n/a	n/a	n/a	n/a	6	[0, 0, 0]	-999	PAL1	1	R1392N
1512.184	0.001	287154	REC_START	n/a	n/a	6	2	TENT	n/a	TENT	WALL	6	[0, 0, 0]	-999	PAL1	1	R1392N
1512.185	4.0	287155	PROBE_START	n/a	wordpools/wordpool_EN.txt	6	2	TENT	n/a	TENT	WALL	6	[0, 0, 0]	-999	PAL1	1	R1392N
1512.24	3.974	287210	REC_EVENT	5.937	n/a	5	1	SWAMP	<>	KITE	SWAMP	6	[0, 0, 0]	-999	PAL1	1	R1392N
1516.214	1.001	291184	PROBE_END	n/a	n/a	6	2	TENT	n/a	TENT	WALL	6	[0, 0, 0]	-999	PAL1	1	R1392N
1517.215	0.011	292185	REC_END	n/a	n/a	6	2	TENT	n/a	TENT	WALL	6	[0, 0, 0]	-999	PAL1	1	R1392N
1517.226	0.273	292196	ORIENT_START	n/a	n/a	-999	-999	n/a	n/a	n/a	n/a	6	[0, 0, 0]	-999	PAL1	1	R1392N
1517.499	0.51	292469	ORIENT_END	n/a	n/a	-999	-999	n/a	n/a	n/a	n/a	6	[0, 0, 0]	-999	PAL1	1	R1392N
1518.009	0.102	292979	REC_EVENT	5.824	n/a	6	2	TENT	<>	TENT	WALL	6	[0, 0, 0]	-999	PAL1	1	R1392N
1518.111	0.0	293081	REC_START	n/a	n/a	3	3	GRASS	n/a	GRASS	MAP	6	[0, 0, 0]	-999	PAL1	1	R1392N
1518.111	4.0	293081	PROBE_START	n/a	wordpools/wordpool_EN.txt	3	3	GRASS	n/a	GRASS	MAP	6	[0, 0, 0]	-999	PAL1	1	R1392N
1522.148	1.001	297117	PROBE_END	n/a	n/a	3	3	GRASS	n/a	GRASS	MAP	6	[0, 0, 0]	-999	PAL1	1	R1392N
1523.149	0.012	298118	REC_END	n/a	n/a	3	3	GRASS	n/a	GRASS	MAP	6	[0, 0, 0]	-999	PAL1	1	R1392N
1523.161	0.272	298130	ORIENT_START	n/a	n/a	-999	-999	n/a	n/a	n/a	n/a	6	[0, 0, 0]	-999	PAL1	1	R1392N
1523.433	0.546	298402	ORIENT_END	n/a	n/a	-999	-999	n/a	n/a	n/a	n/a	6	[0, 0, 0]	-999	PAL1	1	R1392N
1523.979	0.028	298948	REC_EVENT	5.868	n/a	3	3	GRASS	<>	GRASS	MAP	6	[0, 0, 0]	-999	PAL1	1	R1392N
1524.007	0.001	298976	REC_START	n/a	n/a	2	4	JAIL	n/a	WEB	JAIL	6	[0, 0, 0]	-999	PAL1	1	R1392N
1524.008	4.0	298977	PROBE_START	n/a	wordpools/wordpool_EN.txt	2	4	JAIL	n/a	WEB	JAIL	6	[0, 0, 0]	-999	PAL1	1	R1392N
1528.034	0.999	303003	PROBE_END	n/a	n/a	2	4	JAIL	n/a	WEB	JAIL	6	[0, 0, 0]	-999	PAL1	1	R1392N
1529.033	0.013	304002	REC_END	n/a	n/a	2	4	JAIL	n/a	WEB	JAIL	6	[0, 0, 0]	-999	PAL1	1	R1392N
1529.046	0.27	304015	ORIENT_START	n/a	n/a	-999	-999	n/a	n/a	n/a	n/a	6	[0, 0, 0]	-999	PAL1	1	R1392N
1529.316	0.475	304285	ORIENT_END	n/a	n/a	-999	-999	n/a	n/a	n/a	n/a	6	[0, 0, 0]	-999	PAL1	1	R1392N
1529.791	0.206	304760	REC_EVENT	5.783	n/a	2	4	JAIL	<>	WEB	JAIL	6	[0, 0, 0]	-999	PAL1	1	R1392N
1529.997	4.0	304966	PROBE_START	n/a	wordpools/wordpool_EN.txt	1	5	JUDGE	n/a	ARK	JUDGE	6	[0, 0, 0]	-999	PAL1	1	R1392N
1529.997	4.038	304966	REC_START	n/a	n/a	1	5	JUDGE	n/a	ARK	JUDGE	6	[0, 0, 0]	-999	PAL1	1	R1392N
1534.035	0.999	309004	PROBE_END	n/a	n/a	1	5	JUDGE	n/a	ARK	JUDGE	6	[0, 0, 0]	-999	PAL1	1	R1392N
1535.034	0.013	310003	REC_END	n/a	n/a	1	5	JUDGE	n/a	ARK	JUDGE	6	[0, 0, 0]	-999	PAL1	1	R1392N
1535.047	0.27	310016	ORIENT_START	n/a	n/a	-999	-999	n/a	n/a	n/a	n/a	6	[0, 0, 0]	-999	PAL1	1	R1392N
1535.317	0.615	310286	ORIENT_END	n/a	n/a	-999	-999	n/a	n/a	n/a	n/a	6	[0, 0, 0]	-999	PAL1	1	R1392N
1535.932	0.129	310901	REC_EVENT	5.935	n/a	1	5	JUDGE	<>	ARK	JUDGE	6	[0, 0, 0]	-999	PAL1	1	R1392N
1536.061	0.0	311030	REC_START	n/a	n/a	4	6	COW	n/a	COW	PEAR	6	[0, 0, 0]	-999	PAL1	1	R1392N
1536.061	4.0	311030	PROBE_START	n/a	wordpools/wordpool_EN.txt	4	6	COW	n/a	COW	PEAR	6	[0, 0, 0]	-999	PAL1	1	R1392N
1540.086	0.999	315055	PROBE_END	n/a	n/a	4	6	COW	n/a	COW	PEAR	6	[0, 0, 0]	-999	PAL1	1	R1392N
1541.085	0.006	316054	REC_END	n/a	n/a	4	6	COW	n/a	COW	PEAR	6	[0, 0, 0]	-999	PAL1	1	R1392N
1541.091	0.0	316060	RETRIEVAL_END	n/a	n/a	-999	-999	n/a	n/a	n/a	n/a	6	[0, 0, 0]	-999	PAL1	1	R1392N
1541.091	0.02	316060	TRIAL_END	n/a	n/a	-999	-999	n/a	n/a	n/a	n/a	6	[0, 0, 0]	-999	PAL1	1	R1392N
1541.111	0.001	316080	TRIAL_START	n/a	n/a	-999	-999	n/a	n/a	n/a	n/a	6	[0, 0, 0]	-999	PAL1	1	R1392N
1541.112	0.0	316081	TRIAL	n/a	n/a	-999	-999	n/a	n/a	n/a	n/a	7	[0, 0, 0]	-999	PAL1	1	R1392N
1541.112	0.836	316081	WAITING_START	n/a	n/a	-999	-999	n/a	n/a	n/a	n/a	7	[0, 0, 0]	-999	PAL1	1	R1392N
1541.948	5.672	316917	REC_EVENT	5.887	n/a	4	6	COW	<>	COW	PEAR	6	[0, 0, 0]	-999	PAL1	1	R1392N
1547.62	0.001	322588	WAITING_END	n/a	n/a	-999	-999	n/a	n/a	n/a	n/a	7	[0, 0, 0]	-999	PAL1	1	R1392N
1547.621	10.0	322589	COUNTDOWN_START	n/a	n/a	-999	-999	n/a	n/a	n/a	n/a	7	[0, 0, 0]	-999	PAL1	1	R1392N
1558.049	0.001	333017	COUNTDOWN_END	n/a	n/a	-999	-999	n/a	n/a	n/a	n/a	7	[0, 0, 0]	-999	PAL1	1	R1392N
1558.05	0.689	333018	ORIENT_START	n/a	n/a	-999	-999	n/a	n/a	n/a	n/a	7	[0, 0, 0]	-999	PAL1	1	R1392N
1558.739	0.0	333707	ORIENT_END	n/a	n/a	-999	-999	n/a	n/a	n/a	n/a	7	[0, 0, 0]	-999	PAL1	1	R1392N
1558.739	1.126	333707	ENCODING_START	n/a	n/a	-999	-999	n/a	n/a	n/a	n/a	7	[0, 0, 0]	-999	PAL1	1	R1392N
1559.865	4.0	334833	STUDY_PAIR	n/a	wordpools/wordpool_EN.txt	1	1	n/a	LAKE	FILM	LAKE	7	[0, 0, 0]	-999	PAL1	1	R1392N
1563.89	0.704	338858	STUDY_PAIR_OFF	n/a	n/a	1	1	n/a	LAKE	FILM	LAKE	7	[0, 0, 0]	-999	PAL1	1	R1392N
1564.594	4.0	339562	STUDY_PAIR	n/a	wordpools/wordpool_EN.txt	2	6	n/a	HAT	BADGE	HAT	7	[0, 0, 0]	-999	PAL1	1	R1392N
1568.624	0.553	343592	STUDY_PAIR_OFF	n/a	n/a	2	6	n/a	HAT	BADGE	HAT	7	[0, 0, 0]	-999	PAL1	1	R1392N
1569.177	4.0	344145	STUDY_PAIR	n/a	wordpools/wordpool_EN.txt	3	5	n/a	n/a	FOOD	SOAP	7	[0, 0, 0]	-999	PAL1	1	R1392N
1573.207	0.632	348175	STUDY_PAIR_OFF	n/a	n/a	3	5	n/a	n/a	FOOD	SOAP	7	[0, 0, 0]	-999	PAL1	1	R1392N
1573.839	4.0	348807	STUDY_PAIR	n/a	wordpools/wordpool_EN.txt	4	2	n/a	n/a	CORD	FENCE	7	[0, 0, 0]	-999	PAL1	1	R1392N
1577.875	0.686	352842	STUDY_PAIR_OFF	n/a	n/a	4	2	n/a	n/a	CORD	FENCE	7	[0, 0, 0]	-999	PAL1	1	R1392N
1578.561	4.0	353528	STUDY_PAIR	n/a	wordpools/wordpool_EN.txt	5	3	n/a	BAT	PARK	TREE	7	[0, 0, 0]	-999	PAL1	1	R1392N
1582.593	0.739	357560	STUDY_PAIR_OFF	n/a	n/a	5	3	n/a	BAT	PARK	TREE	7	[0, 0, 0]	-999	PAL1	1	R1392N
1583.332	4.0	358299	STUDY_PAIR	n/a	wordpools/wordpool_EN.txt	6	4	n/a	FLUTE	BAT	FLUTE	7	[0, 0, 0]	-999	PAL1	1	R1392N
1587.359	0.001	362326	STUDY_PAIR_OFF	n/a	n/a	6	4	n/a	FLUTE	BAT	FLUTE	7	[0, 0, 0]	-999	PAL1	1	R1392N
1587.36	0.0	362327	ENCODING_END	n/a	n/a	-999	-999	n/a	n/a	n/a	n/a	7	[0, 0, 0]	-999	PAL1	1	R1392N
1587.36	0.0	362327	MATH_START	n/a	n/a	-999	-999	n/a	n/a	n/a	n/a	7	[0, 0, 0]	-999	PAL1	1	R1392N
1587.36	0.016	362327	START	n/a	n/a	-999	-999	n/a	n/a	n/a	n/a	8	[-999, -999, -999]	-999	PAL1	1	R1392N
1587.376	5.651	362343	PROB	5.626	n/a	-999	-999	n/a	n/a	n/a	n/a	8	[7, 4, 9]	30	PAL1	1	R1392N
1593.027	4.468	367994	PROB	4.431	n/a	-999	-999	n/a	n/a	n/a	n/a	8	[9, 9, 5]	23	PAL1	1	R1392N
1597.495	2.017	372462	PROB	1.979	n/a	-999	-999	n/a	n/a	n/a	n/a	8	[7, 7, 7]	21	PAL1	1	R1392N
1599.512	2.55	374479	PROB	2.514	n/a	-999	-999	n/a	n/a	n/a	n/a	8	[5, 2, 5]	12	PAL1	1	R1392N
1602.062	3.334	377029	PROB	3.308	n/a	-999	-999	n/a	n/a	n/a	n/a	8	[1, 8, 5]	14	PAL1	1	R1392N
1605.396	2.311	380362	PROB	2.311	n/a	-999	-999	n/a	n/a	n/a	n/a	8	[2, 6, 1]	9	PAL1	1	R1392N
1607.707	0.006	382673	STOP	n/a	n/a	-999	-999	n/a	n/a	n/a	n/a	8	[-999, -999, -999]	-999	PAL1	1	R1392N
1607.713	0.612	382679	MATH_END	n/a	n/a	-999	-999	n/a	n/a	n/a	n/a	7	[0, 0, 0]	-999	PAL1	1	R1392N
1608.325	0.001	383291	RETRIEVAL_START	n/a	n/a	-999	-999	n/a	n/a	n/a	n/a	7	[0, 0, 0]	-999	PAL1	1	R1392N
1608.326	0.288	383292	ORIENT_START	n/a	n/a	-999	-999	n/a	n/a	n/a	n/a	7	[0, 0, 0]	-999	PAL1	1	R1392N
1608.614	0.55	383580	ORIENT_END	n/a	n/a	-999	-999	n/a	n/a	n/a	n/a	7	[0, 0, 0]	-999	PAL1	1	R1392N
1609.164	0.0	384130	REC_START	n/a	n/a	1	1	LAKE	LAKE	FILM	LAKE	7	[0, 0, 0]	-999	PAL1	1	R1392N
1609.164	4.0	384130	PROBE_START	n/a	wordpools/wordpool_EN.txt	1	1	LAKE	LAKE	FILM	LAKE	7	[0, 0, 0]	-999	PAL1	1	R1392N
1610.673	0.604	385639	REC_EVENT	1.509	n/a	1	1	LAKE	FILM	FILM	LAKE	7	[0, 0, 0]	-999	PAL1	1	R1392N
1611.277	1.92	386243	REC_EVENT	2.113	n/a	1	1	LAKE	LAKE	FILM	LAKE	7	[0, 0, 0]	-999	PAL1	1	R1392N
1613.197	1.0	388163	PROBE_END	n/a	n/a	1	1	LAKE	n/a	FILM	LAKE	7	[0, 0, 0]	-999	PAL1	1	R1392N
1614.197	0.011	389163	REC_END	n/a	n/a	1	1	LAKE	n/a	FILM	LAKE	7	[0, 0, 0]	-999	PAL1	1	R1392N
1614.208	0.256	389174	ORIENT_START	n/a	n/a	-999	-999	n/a	n/a	n/a	n/a	7	[0, 0, 0]	-999	PAL1	1	R1392N
1614.464	0.755	389430	ORIENT_END	n/a	n/a	-999	-999	n/a	n/a	n/a	n/a	7	[0, 0, 0]	-999	PAL1	1	R1392N
1615.219	4.0	390185	PROBE_START	n/a	wordpools/wordpool_EN.txt	4	2	CORD	n/a	CORD	FENCE	7	[0, 0, 0]	-999	PAL1	1	R1392N
1615.219	2.786	390185	REC_START	n/a	n/a	4	2	CORD	n/a	CORD	FENCE	7	[0, 0, 0]	-999	PAL1	1	R1392N
1618.005	1.243	392971	REC_EVENT	2.786	n/a	4	2	CORD	<>	CORD	FENCE	7	[0, 0, 0]	-999	PAL1	1	R1392N
1619.248	1.0	394214	PROBE_END	n/a	n/a	4	2	CORD	n/a	CORD	FENCE	7	[0, 0, 0]	-999	PAL1	1	R1392N
1620.248	0.008	395214	REC_END	n/a	n/a	4	2	CORD	n/a	CORD	FENCE	7	[0, 0, 0]	-999	PAL1	1	R1392N
1620.256	0.259	395222	ORIENT_START	n/a	n/a	-999	-999	n/a	n/a	n/a	n/a	7	[0, 0, 0]	-999	PAL1	1	R1392N
1620.515	0.64	395481	ORIENT_END	n/a	n/a	-999	-999	n/a	n/a	n/a	n/a	7	[0, 0, 0]	-999	PAL1	1	R1392N
1621.155	4.0	396121	PROBE_START	n/a	wordpools/wordpool_EN.txt	5	3	PARK	BAT	PARK	TREE	7	[0, 0, 0]	-999	PAL1	1	R1392N
1621.155	0.023	396121	REC_START	n/a	n/a	5	3	PARK	BAT	PARK	TREE	7	[0, 0, 0]	-999	PAL1	1	R1392N
1621.178	2.866	396144	REC_EVENT	5.959	n/a	4	2	CORD	<>	CORD	FENCE	7	[0, 0, 0]	-999	PAL1	1	R1392N
1624.044	0.395	399010	REC_EVENT	2.889	n/a	5	3	PARK	PARK	PARK	TREE	7	[0, 0, 0]	-999	PAL1	1	R1392N
1624.439	0.726	399405	REC_EVENT	3.284	n/a	5	3	PARK	BAT	PARK	TREE	7	[0, 0, 0]	-999	PAL1	1	R1392N
1625.165	1.0	400131	PROBE_END	n/a	n/a	5	3	PARK	n/a	PARK	TREE	7	[0, 0, 0]	-999	PAL1	1	R1392N
1626.165	0.012	401131	REC_END	n/a	n/a	5	3	PARK	n/a	PARK	TREE	7	[0, 0, 0]	-999	PAL1	1	R1392N
1626.177	0.273	401143	ORIENT_START	n/a	n/a	-999	-999	n/a	n/a	n/a	n/a	7	[0, 0, 0]	-999	PAL1	1	R1392N
1626.45	0.598	401416	ORIENT_END	n/a	n/a	-999	-999	n/a	n/a	n/a	n/a	7	[0, 0, 0]	-999	PAL1	1	R1392N
1627.048	0.0	402014	REC_START	n/a	n/a	6	4	FLUTE	FLUTE	BAT	FLUTE	7	[0, 0, 0]	-999	PAL1	1	R1392N
1627.048	4.0	402014	PROBE_START	n/a	wordpools/wordpool_EN.txt	6	4	FLUTE	FLUTE	BAT	FLUTE	7	[0, 0, 0]	-999	PAL1	1	R1392N
1628.68	0.511	403646	REC_EVENT	1.632	n/a	6	4	FLUTE	BAT	BAT	FLUTE	7	[0, 0, 0]	-999	PAL1	1	R1392N
1629.191	1.671	404157	REC_EVENT	2.143	n/a	6	4	FLUTE	FLUTE	BAT	FLUTE	7	[0, 0, 0]	-999	PAL1	1	R1392N
1630.862	0.222	405828	REC_EVENT	3.814	n/a	6	4	FLUTE	<>	BAT	FLUTE	7	[0, 0, 0]	-999	PAL1	1	R1392N
1631.084	1.0	406050	PROBE_END	n/a	n/a	6	4	FLUTE	n/a	BAT	FLUTE	7	[0, 0, 0]	-999	PAL1	1	R1392N
1632.084	0.013	407050	REC_END	n/a	n/a	6	4	FLUTE	n/a	BAT	FLUTE	7	[0, 0, 0]	-999	PAL1	1	R1392N
1632.097	0.27	407063	ORIENT_START	n/a	n/a	-999	-999	n/a	n/a	n/a	n/a	7	[0, 0, 0]	-999	PAL1	1	R1392N
1632.367	0.645	407333	ORIENT_END	n/a	n/a	-999	-999	n/a	n/a	n/a	n/a	7	[0, 0, 0]	-999	PAL1	1	R1392N
1633.012	0.0	407978	REC_START	n/a	n/a	3	5	SOAP	n/a	FOOD	SOAP	7	[0, 0, 0]	-999	PAL1	1	R1392N
1633.012	4.0	407978	PROBE_START	n/a	wordpools/wordpool_EN.txt	3	5	SOAP	n/a	FOOD	SOAP	7	[0, 0, 0]	-999	PAL1	1	R1392N
1637.035	1.0	412000	PROBE_END	n/a	n/a	3	5	SOAP	n/a	FOOD	SOAP	7	[0, 0, 0]	-999	PAL1	1	R1392N
1638.035	0.012	413000	REC_END	n/a	n/a	3	5	SOAP	n/a	FOOD	SOAP	7	[0, 0, 0]	-999	PAL1	1	R1392N
1638.047	0.271	413012	ORIENT_START	n/a	n/a	-999	-999	n/a	n/a	n/a	n/a	7	[0, 0, 0]	-999	PAL1	1	R1392N
1638.318	0.615	413283	ORIENT_END	n/a	n/a	-999	-999	n/a	n/a	n/a	n/a	7	[0, 0, 0]	-999	PAL1	1	R1392N
1638.933	0.051	413898	REC_EVENT	5.921	n/a	3	5	SOAP	<>	FOOD	SOAP	7	[0, 0, 0]	-999	PAL1	1	R1392N
1638.984	0.0	413949	REC_START	n/a	n/a	2	6	BADGE	HAT	BADGE	HAT	7	[0, 0, 0]	-999	PAL1	1	R1392N
1638.984	4.0	413949	PROBE_START	n/a	wordpools/wordpool_EN.txt	2	6	BADGE	HAT	BADGE	HAT	7	[0, 0, 0]	-999	PAL1	1	R1392N
1642.344	0.554	417309	REC_EVENT	3.36	n/a	2	6	BADGE	BADGE	BADGE	HAT	7	[0, 0, 0]	-999	PAL1	1	R1392N
1642.898	0.121	417863	REC_EVENT	3.914	n/a	2	6	BADGE	HAT	BADGE	HAT	7	[0, 0, 0]	-999	PAL1	1	R1392N
1643.019	1.001	417984	PROBE_END	n/a	n/a	2	6	BADGE	n/a	BADGE	HAT	7	[0, 0, 0]	-999	PAL1	1	R1392N
1644.02	0.011	418985	REC_END	n/a	n/a	2	6	BADGE	n/a	BADGE	HAT	7	[0, 0, 0]	-999	PAL1	1	R1392N
1644.031	0.001	418996	RETRIEVAL_END	n/a	n/a	-999	-999	n/a	n/a	n/a	n/a	7	[0, 0, 0]	-999	PAL1	1	R1392N
1644.032	0.019	418997	TRIAL_END	n/a	n/a	-999	-999	n/a	n/a	n/a	n/a	7	[0, 0, 0]	-999	PAL1	1	R1392N
1644.051	0.001	419016	TRIAL_START	n/a	n/a	-999	-999	n/a	n/a	n/a	n/a	7	[0, 0, 0]	-999	PAL1	1	R1392N
1644.052	0.0	419017	TRIAL	n/a	n/a	-999	-999	n/a	n/a	n/a	n/a	8	[0, 0, 0]	-999	PAL1	1	R1392N
1644.052	7.619	419017	WAITING_START	n/a	n/a	-999	-999	n/a	n/a	n/a	n/a	8	[0, 0, 0]	-999	PAL1	1	R1392N
1651.671	0.0	426636	WAITING_END	n/a	n/a	-999	-999	n/a	n/a	n/a	n/a	8	[0, 0, 0]	-999	PAL1	1	R1392N
1651.671	10.0	426636	COUNTDOWN_START	n/a	n/a	-999	-999	n/a	n/a	n/a	n/a	8	[0, 0, 0]	-999	PAL1	1	R1392N
1662.101	0.0	437066	COUNTDOWN_END	n/a	n/a	-999	-999	n/a	n/a	n/a	n/a	8	[0, 0, 0]	-999	PAL1	1	R1392N
1662.101	0.588	437066	ORIENT_START	n/a	n/a	-999	-999	n/a	n/a	n/a	n/a	8	[0, 0, 0]	-999	PAL1	1	R1392N
1662.689	0.001	437654	ORIENT_END	n/a	n/a	-999	-999	n/a	n/a	n/a	n/a	8	[0, 0, 0]	-999	PAL1	1	R1392N
1662.69	1.105	437655	ENCODING_START	n/a	n/a	-999	-999	n/a	n/a	n/a	n/a	8	[0, 0, 0]	-999	PAL1	1	R1392N
1663.795	4.0	438759	STUDY_PAIR	n/a	wordpools/wordpool_EN.txt	1	5	n/a	SHOE	GEESE	SHOE	8	[0, 0, 0]	-999	PAL1	1	R1392N
1667.823	0.547	442787	STUDY_PAIR_OFF	n/a	n/a	1	5	n/a	SHOE	GEESE	SHOE	8	[0, 0, 0]	-999	PAL1	1	R1392N
1668.37	4.0	443334	STUDY_PAIR	n/a	wordpools/wordpool_EN.txt	2	4	n/a	n/a	RICE	WAVE	8	[0, 0, 0]	-999	PAL1	1	R1392N
1672.408	0.664	447372	STUDY_PAIR_OFF	n/a	n/a	2	4	n/a	n/a	RICE	WAVE	8	[0, 0, 0]	-999	PAL1	1	R1392N
1673.072	4.0	448036	STUDY_PAIR	n/a	wordpools/wordpool_EN.txt	3	1	n/a	n/a	BROOM	VEST	8	[0, 0, 0]	-999	PAL1	1	R1392N
1677.108	0.713	452072	STUDY_PAIR_OFF	n/a	n/a	3	1	n/a	n/a	BROOM	VEST	8	[0, 0, 0]	-999	PAL1	1	R1392N
1677.821	4.0	452785	STUDY_PAIR	n/a	wordpools/wordpool_EN.txt	4	2	n/a	n/a	CAR	SHEET	8	[0, 0, 0]	-999	PAL1	1	R1392N
1681.859	0.718	456823	STUDY_PAIR_OFF	n/a	n/a	4	2	n/a	n/a	CAR	SHEET	8	[0, 0, 0]	-999	PAL1	1	R1392N
1682.577	4.0	457541	STUDY_PAIR	n/a	wordpools/wordpool_EN.txt	5	3	n/a	n/a	TOOL	HAND	8	[0, 0, 0]	-999	PAL1	1	R1392N
1686.61	0.633	461574	STUDY_PAIR_OFF	n/a	n/a	5	3	n/a	n/a	TOOL	HAND	8	[0, 0, 0]	-999	PAL1	1	R1392N
1687.243	4.0	462207	STUDY_PAIR	n/a	wordpools/wordpool_EN.txt	6	6	n/a	n/a	HILL	CORN	8	[0, 0, 0]	-999	PAL1	1	R1392N
1691.276	0.001	466240	STUDY_PAIR_OFF	n/a	n/a	6	6	n/a	n/a	HILL	CORN	8	[0, 0, 0]	-999	PAL1	1	R1392N
1691.277	0.0	466241	ENCODING_END	n/a	n/a	-999	-999	n/a	n/a	n/a	n/a	8	[0, 0, 0]	-999	PAL1	1	R1392N
1691.277	0.001	466241	MATH_START	n/a	n/a	-999	-999	n/a	n/a	n/a	n/a	8	[0, 0, 0]	-999	PAL1	1	R1392N
1691.278	0.015	466242	START	n/a	n/a	-999	-999	n/a	n/a	n/a	n/a	9	[-999, -999, -999]	-999	PAL1	1	R1392N
1691.293	4.401	466257	PROB	4.365	n/a	-999	-999	n/a	n/a	n/a	n/a	9	[8, 7, 9]	24	PAL1	1	R1392N
1695.694	2.434	470657	PROB	2.397	n/a	-999	-999	n/a	n/a	n/a	n/a	9	[5, 6, 5]	16	PAL1	1	R1392N
1698.128	1.817	473091	PROB	1.778	n/a	-999	-999	n/a	n/a	n/a	n/a	9	[4, 4, 4]	12	PAL1	1	R1392N
1699.945	2.067	474908	PROB	2.034	n/a	-999	-999	n/a	n/a	n/a	n/a	9	[4, 1, 9]	14	PAL1	1	R1392N
1702.012	2.001	476975	PROB	1.974	n/a	-999	-999	n/a	n/a	n/a	n/a	9	[7, 6, 9]	22	PAL1	1	R1392N
1704.013	2.517	478976	PROB	2.494	n/a	-999	-999	n/a	n/a	n/a	n/a	9	[9, 5, 6]	20	PAL1	1	R1392N
1706.53	1.9	481493	PROB	1.865	n/a	-999	-999	n/a	n/a	n/a	n/a	9	[1, 7, 8]	16	PAL1	1	R1392N
1708.43	2.134	483393	PROB	2.109	n/a	-999	-999	n/a	n/a	n/a	n/a	9	[7, 7, 8]	22	PAL1	1	R1392N
1710.564	2.959	485527	PROB	2.959	n/a	-999	-999	n/a	n/a	n/a	n/a	9	[6, 1, 5]	22	PAL1	1	R1392N
1713.523	0.008	488486	STOP	n/a	n/a	-999	-999	n/a	n/a	n/a	n/a	9	[-999, -999, -999]	-999	PAL1	1	R1392N
1713.531	0.646	488494	MATH_END	n/a	n/a	-999	-999	n/a	n/a	n/a	n/a	8	[0, 0, 0]	-999	PAL1	1	R1392N
1714.177	0.002	489140	RETRIEVAL_START	n/a	n/a	-999	-999	n/a	n/a	n/a	n/a	8	[0, 0, 0]	-999	PAL1	1	R1392N
1714.179	0.285	489142	ORIENT_START	n/a	n/a	-999	-999	n/a	n/a	n/a	n/a	8	[0, 0, 0]	-999	PAL1	1	R1392N
1714.464	0.658	489427	ORIENT_END	n/a	n/a	-999	-999	n/a	n/a	n/a	n/a	8	[0, 0, 0]	-999	PAL1	1	R1392N
1715.122	0.0	490085	REC_START	n/a	n/a	3	1	VEST	n/a	BROOM	VEST	8	[0, 0, 0]	-999	PAL1	1	R1392N
1715.122	4.0	490085	PROBE_START	n/a	wordpools/wordpool_EN.txt	3	1	VEST	n/a	BROOM	VEST	8	[0, 0, 0]	-999	PAL1	1	R1392N
1719.148	1.0	494111	PROBE_END	n/a	n/a	3	1	VEST	n/a	BROOM	VEST	8	[0, 0, 0]	-999	PAL1	1	R1392N
1720.148	0.013	495111	REC_END	n/a	n/a	3	1	VEST	n/a	BROOM	VEST	8	[0, 0, 0]	-999	PAL1	1	R1392N
1720.161	0.271	495124	ORIENT_START	n/a	n/a	-999	-999	n/a	n/a	n/a	n/a	8	[0, 0, 0]	-999	PAL1	1	R1392N
1720.432	0.586	495395	ORIENT_END	n/a	n/a	-999	-999	n/a	n/a	n/a	n/a	8	[0, 0, 0]	-999	PAL1	1	R1392N
1721.018	0.001	495980	REC_START	n/a	n/a	4	2	CAR	n/a	CAR	SHEET	8	[0, 0, 0]	-999	PAL1	1	R1392N
1721.019	4.0	495981	PROBE_START	n/a	wordpools/wordpool_EN.txt	4	2	CAR	n/a	CAR	SHEET	8	[0, 0, 0]	-999	PAL1	1	R1392N
1721.082	3.968	496044	REC_EVENT	5.96	n/a	3	1	VEST	<>	BROOM	VEST	8	[0, 0, 0]	-999	PAL1	1	R1392N
1725.05	1.0	500012	PROBE_END	n/a	n/a	4	2	CAR	n/a	CAR	SHEET	8	[0, 0, 0]	-999	PAL1	1	R1392N
1726.05	0.012	501012	REC_END	n/a	n/a	4	2	CAR	n/a	CAR	SHEET	8	[0, 0, 0]	-999	PAL1	1	R1392N
1726.062	0.27	501024	ORIENT_START	n/a	n/a	-999	-999	n/a	n/a	n/a	n/a	8	[0, 0, 0]	-999	PAL1	1	R1392N
1726.332	0.529	501294	ORIENT_END	n/a	n/a	-999	-999	n/a	n/a	n/a	n/a	8	[0, 0, 0]	-999	PAL1	1	R1392N
1726.861	0.067	501823	REC_EVENT	5.842	n/a	4	2	CAR	<>	CAR	SHEET	8	[0, 0, 0]	-999	PAL1	1	R1392N
1726.928	4.0	501890	PROBE_START	n/a	wordpools/wordpool_EN.txt	5	3	TOOL	n/a	TOOL	HAND	8	[0, 0, 0]	-999	PAL1	1	R1392N
1726.928	4.023	501890	REC_START	n/a	n/a	5	3	TOOL	n/a	TOOL	HAND	8	[0, 0, 0]	-999	PAL1	1	R1392N
1730.951	1.0	505913	PROBE_END	n/a	n/a	5	3	TOOL	n/a	TOOL	HAND	8	[0, 0, 0]	-999	PAL1	1	R1392N
1731.951	0.012	506913	REC_END	n/a	n/a	5	3	TOOL	n/a	TOOL	HAND	8	[0, 0, 0]	-999	PAL1	1	R1392N
1731.963	0.27	506925	ORIENT_START	n/a	n/a	-999	-999	n/a	n/a	n/a	n/a	8	[0, 0, 0]	-999	PAL1	1	R1392N
1732.233	0.564	507195	ORIENT_END	n/a	n/a	-999	-999	n/a	n/a	n/a	n/a	8	[0, 0, 0]	-999	PAL1	1	R1392N
1732.797	0.157	507759	REC_EVENT	5.869	n/a	5	3	TOOL	<>	TOOL	HAND	8	[0, 0, 0]	-999	PAL1	1	R1392N
1732.954	0.0	507916	REC_START	n/a	n/a	2	4	WAVE	n/a	RICE	WAVE	8	[0, 0, 0]	-999	PAL1	1	R1392N
1732.954	4.0	507916	PROBE_START	n/a	wordpools/wordpool_EN.txt	2	4	WAVE	n/a	RICE	WAVE	8	[0, 0, 0]	-999	PAL1	1	R1392N
1736.985	1.001	511947	PROBE_END	n/a	n/a	2	4	WAVE	n/a	RICE	WAVE	8	[0, 0, 0]	-999	PAL1	1	R1392N
1737.986	0.011	512948	REC_END	n/a	n/a	2	4	WAVE	n/a	RICE	WAVE	8	[0, 0, 0]	-999	PAL1	1	R1392N
1737.997	0.271	512959	ORIENT_START	n/a	n/a	-999	-999	n/a	n/a	n/a	n/a	8	[0, 0, 0]	-999	PAL1	1	R1392N
1738.268	0.571	513230	ORIENT_END	n/a	n/a	-999	-999	n/a	n/a	n/a	n/a	8	[0, 0, 0]	-999	PAL1	1	R1392N
1738.839	0.0	513801	REC_START	n/a	n/a	1	5	GEESE	SHOE	GEESE	SHOE	8	[0, 0, 0]	-999	PAL1	1	R1392N
1738.839	4.0	513801	PROBE_START	n/a	wordpools/wordpool_EN.txt	1	5	GEESE	SHOE	GEESE	SHOE	8	[0, 0, 0]	-999	PAL1	1	R1392N
1738.929	1.791	513891	REC_EVENT	5.975	n/a	2	4	WAVE	<>	RICE	WAVE	8	[0, 0, 0]	-999	PAL1	1	R1392N
1740.72	0.74	515682	REC_EVENT	1.881	n/a	1	5	GEESE	GEESE	GEESE	SHOE	8	[0, 0, 0]	-999	PAL1	1	R1392N
1741.46	1.409	516422	REC_EVENT	2.621	n/a	1	5	GEESE	SHOE	GEESE	SHOE	8	[0, 0, 0]	-999	PAL1	1	R1392N
1742.869	1.001	517831	PROBE_END	n/a	n/a	1	5	GEESE	n/a	GEESE	SHOE	8	[0, 0, 0]	-999	PAL1	1	R1392N
1743.87	0.011	518832	REC_END	n/a	n/a	1	5	GEESE	n/a	GEESE	SHOE	8	[0, 0, 0]	-999	PAL1	1	R1392N
1743.881	0.271	518843	ORIENT_START	n/a	n/a	-999	-999	n/a	n/a	n/a	n/a	8	[0, 0, 0]	-999	PAL1	1	R1392N
1744.152	0.66	519114	ORIENT_END	n/a	n/a	-999	-999	n/a	n/a	n/a	n/a	8	[0, 0, 0]	-999	PAL1	1	R1392N
1744.812	0.0	519774	REC_START	n/a	n/a	6	6	CORN	n/a	HILL	CORN	8	[0, 0, 0]	-999	PAL1	1	R1392N
1744.812	4.0	519774	PROBE_START	n/a	wordpools/wordpool_EN.txt	6	6	CORN	n/a	HILL	CORN	8	[0, 0, 0]	-999	PAL1	1	R1392N
1748.837	1.0	523799	PROBE_END	n/a	n/a	6	6	CORN	n/a	HILL	CORN	8	[0, 0, 0]	-999	PAL1	1	R1392N
1749.837	0.012	524798	REC_END	n/a	n/a	6	6	CORN	n/a	HILL	CORN	8	[0, 0, 0]	-999	PAL1	1	R1392N
1749.849	0.001	524810	RETRIEVAL_END	n/a	n/a	-999	-999	n/a	n/a	n/a	n/a	8	[0, 0, 0]	-999	PAL1	1	R1392N
1749.85	0.022	524811	TRIAL_END	n/a	n/a	-999	-999	n/a	n/a	n/a	n/a	8	[0, 0, 0]	-999	PAL1	1	R1392N
1749.872	0.0	524833	WAITING_START	n/a	n/a	-999	-999	n/a	n/a	n/a	n/a	9	[0, 0, 0]	-999	PAL1	1	R1392N
1749.872	0.0	524833	TRIAL_START	n/a	n/a	-999	-999	n/a	n/a	n/a	n/a	8	[0, 0, 0]	-999	PAL1	1	R1392N
1749.872	0.845	524833	TRIAL	n/a	n/a	-999	-999	n/a	n/a	n/a	n/a	9	[0, 0, 0]	-999	PAL1	1	R1392N
1750.717	25.291	525678	REC_EVENT	5.905	n/a	6	6	CORN	<>	HILL	CORN	8	[0, 0, 0]	-999	PAL1	1	R1392N
1776.008	0.001	550969	WAITING_END	n/a	n/a	-999	-999	n/a	n/a	n/a	n/a	9	[0, 0, 0]	-999	PAL1	1	R1392N
1776.009	10.0	550970	COUNTDOWN_START	n/a	n/a	-999	-999	n/a	n/a	n/a	n/a	9	[0, 0, 0]	-999	PAL1	1	R1392N
1786.438	0.0	561398	ORIENT_START	n/a	n/a	-999	-999	n/a	n/a	n/a	n/a	9	[0, 0, 0]	-999	PAL1	1	R1392N
1786.438	0.672	561398	COUNTDOWN_END	n/a	n/a	-999	-999	n/a	n/a	n/a	n/a	9	[0, 0, 0]	-999	PAL1	1	R1392N
1787.11	0.0	562070	ORIENT_END	n/a	n/a	-999	-999	n/a	n/a	n/a	n/a	9	[0, 0, 0]	-999	PAL1	1	R1392N
1787.11	1.158	562070	ENCODING_START	n/a	n/a	-999	-999	n/a	n/a	n/a	n/a	9	[0, 0, 0]	-999	PAL1	1	R1392N
1788.268	4.0	563228	STUDY_PAIR	n/a	wordpools/wordpool_EN.txt	1	3	n/a	n/a	FOAM	OAK	9	[0, 0, 0]	-999	PAL1	1	R1392N
1792.293	0.714	567253	STUDY_PAIR_OFF	n/a	n/a	1	3	n/a	n/a	FOAM	OAK	9	[0, 0, 0]	-999	PAL1	1	R1392N
1793.007	4.0	567967	STUDY_PAIR	n/a	wordpools/wordpool_EN.txt	2	2	n/a	n/a	PEN	SHELL	9	[0, 0, 0]	-999	PAL1	1	R1392N
1797.045	0.587	572005	STUDY_PAIR_OFF	n/a	n/a	2	2	n/a	n/a	PEN	SHELL	9	[0, 0, 0]	-999	PAL1	1	R1392N
1797.632	4.0	572592	STUDY_PAIR	n/a	wordpools/wordpool_EN.txt	3	5	n/a	n/a	TOOTH	BOWL	9	[0, 0, 0]	-999	PAL1	1	R1392N
1801.662	0.74	576622	STUDY_PAIR_OFF	n/a	n/a	3	5	n/a	n/a	TOOTH	BOWL	9	[0, 0, 0]	-999	PAL1	1	R1392N
1802.402	4.0	577362	STUDY_PAIR	n/a	wordpools/wordpool_EN.txt	4	4	n/a	SHIP	FACE	SHIP	9	[0, 0, 0]	-999	PAL1	1	R1392N
1806.43	0.706	581390	STUDY_PAIR_OFF	n/a	n/a	4	4	n/a	SHIP	FACE	SHIP	9	[0, 0, 0]	-999	PAL1	1	R1392N
1807.136	4.0	582096	STUDY_PAIR	n/a	wordpools/wordpool_EN.txt	5	1	n/a	SKUNK	BREAD	SKUNK	9	[0, 0, 0]	-999	PAL1	1	R1392N
1811.146	0.655	586105	STUDY_PAIR_OFF	n/a	n/a	5	1	n/a	SKUNK	BREAD	SKUNK	9	[0, 0, 0]	-999	PAL1	1	R1392N
1811.801	4.0	586760	STUDY_PAIR	n/a	wordpools/wordpool_EN.txt	6	6	n/a	n/a	PIPE	JEEP	9	[0, 0, 0]	-999	PAL1	1	R1392N
1815.831	0.001	590790	STUDY_PAIR_OFF	n/a	n/a	6	6	n/a	n/a	PIPE	JEEP	9	[0, 0, 0]	-999	PAL1	1	R1392N
1815.832	0.0	590791	ENCODING_END	n/a	n/a	-999	-999	n/a	n/a	n/a	n/a	9	[0, 0, 0]	-999	PAL1	1	R1392N
1815.832	0.0	590791	MATH_START	n/a	n/a	-999	-999	n/a	n/a	n/a	n/a	9	[0, 0, 0]	-999	PAL1	1	R1392N
1815.832	0.016	590791	START	n/a	n/a	-999	-999	n/a	n/a	n/a	n/a	10	[-999, -999, -999]	-999	PAL1	1	R1392N
1815.848	3.567	590807	PROB	3.531	n/a	-999	-999	n/a	n/a	n/a	n/a	10	[9, 9, 1]	19	PAL1	1	R1392N
1819.415	2.65	594374	PROB	2.62	n/a	-999	-999	n/a	n/a	n/a	n/a	10	[6, 7, 5]	18	PAL1	1	R1392N
1822.065	2.501	597024	PROB	2.466	n/a	-999	-999	n/a	n/a	n/a	n/a	10	[9, 6, 8]	23	PAL1	1	R1392N
1824.566	2.067	599525	PROB	2.037	n/a	-999	-999	n/a	n/a	n/a	n/a	10	[4, 1, 5]	10	PAL1	1	R1392N
1826.633	2.384	601592	PROB	2.346	n/a	-999	-999	n/a	n/a	n/a	n/a	10	[8, 4, 1]	13	PAL1	1	R1392N
1829.017	1.75	603976	PROB	1.713	n/a	-999	-999	n/a	n/a	n/a	n/a	10	[9, 3, 8]	20	PAL1	1	R1392N
1830.767	2.283	605726	PROB	2.259	n/a	-999	-999	n/a	n/a	n/a	n/a	10	[3, 1, 5]	9	PAL1	1	R1392N
1833.05	6.065	608009	PROB	6.065	n/a	-999	-999	n/a	n/a	n/a	n/a	10	[7, 4, 8]	19	PAL1	1	R1392N
1839.115	0.019	614073	STOP	n/a	n/a	-999	-999	n/a	n/a	n/a	n/a	10	[-999, -999, -999]	-999	PAL1	1	R1392N
1839.134	0.621	614092	MATH_END	n/a	n/a	-999	-999	n/a	n/a	n/a	n/a	9	[0, 0, 0]	-999	PAL1	1	R1392N
1839.755	0.001	614713	RETRIEVAL_START	n/a	n/a	-999	-999	n/a	n/a	n/a	n/a	9	[0, 0, 0]	-999	PAL1	1	R1392N
1839.756	0.279	614714	ORIENT_START	n/a	n/a	-999	-999	n/a	n/a	n/a	n/a	9	[0, 0, 0]	-999	PAL1	1	R1392N
1840.035	0.615	614993	ORIENT_END	n/a	n/a	-999	-999	n/a	n/a	n/a	n/a	9	[0, 0, 0]	-999	PAL1	1	R1392N
1840.65	4.0	615608	PROBE_START	n/a	wordpools/wordpool_EN.txt	5	1	BREAD	SKUNK	BREAD	SKUNK	9	[0, 0, 0]	-999	PAL1	1	R1392N
1840.65	2.353	615608	REC_START	n/a	n/a	5	1	BREAD	SKUNK	BREAD	SKUNK	9	[0, 0, 0]	-999	PAL1	1	R1392N
1843.003	0.267	617961	REC_EVENT	2.353	n/a	5	1	BREAD	BREAD	BREAD	SKUNK	9	[0, 0, 0]	-999	PAL1	1	R1392N
1843.27	1.416	618228	REC_EVENT	2.62	n/a	5	1	BREAD	SKUNK	BREAD	SKUNK	9	[0, 0, 0]	-999	PAL1	1	R1392N
1844.686	1.001	619644	PROBE_END	n/a	n/a	5	1	BREAD	n/a	BREAD	SKUNK	9	[0, 0, 0]	-999	PAL1	1	R1392N
1845.687	0.012	620645	REC_END	n/a	n/a	5	1	BREAD	n/a	BREAD	SKUNK	9	[0, 0, 0]	-999	PAL1	1	R1392N
1845.699	0.271	620657	ORIENT_START	n/a	n/a	-999	-999	n/a	n/a	n/a	n/a	9	[0, 0, 0]	-999	PAL1	1	R1392N
1845.97	0.681	620928	ORIENT_END	n/a	n/a	-999	-999	n/a	n/a	n/a	n/a	9	[0, 0, 0]	-999	PAL1	1	R1392N
1846.651	0.0	621609	REC_START	n/a	n/a	2	2	PEN	n/a	PEN	SHELL	9	[0, 0, 0]	-999	PAL1	1	R1392N
1846.651	4.0	621609	PROBE_START	n/a	wordpools/wordpool_EN.txt	2	2	PEN	n/a	PEN	SHELL	9	[0, 0, 0]	-999	PAL1	1	R1392N
1850.687	1.0	625645	PROBE_END	n/a	n/a	2	2	PEN	n/a	PEN	SHELL	9	[0, 0, 0]	-999	PAL1	1	R1392N
1851.687	0.013	626645	REC_END	n/a	n/a	2	2	PEN	n/a	PEN	SHELL	9	[0, 0, 0]	-999	PAL1	1	R1392N
1851.7	0.271	626658	ORIENT_START	n/a	n/a	-999	-999	n/a	n/a	n/a	n/a	9	[0, 0, 0]	-999	PAL1	1	R1392N
1851.971	0.566	626929	ORIENT_END	n/a	n/a	-999	-999	n/a	n/a	n/a	n/a	9	[0, 0, 0]	-999	PAL1	1	R1392N
1852.537	0.0	627495	REC_START	n/a	n/a	1	3	OAK	n/a	FOAM	OAK	9	[0, 0, 0]	-999	PAL1	1	R1392N
1852.537	4.0	627495	PROBE_START	n/a	wordpools/wordpool_EN.txt	1	3	OAK	n/a	FOAM	OAK	9	[0, 0, 0]	-999	PAL1	1	R1392N
1852.591	3.98	627549	REC_EVENT	5.94	n/a	2	2	PEN	<>	PEN	SHELL	9	[0, 0, 0]	-999	PAL1	1	R1392N
1856.571	1.001	631529	PROBE_END	n/a	n/a	1	3	OAK	n/a	FOAM	OAK	9	[0, 0, 0]	-999	PAL1	1	R1392N
1857.572	0.012	632530	REC_END	n/a	n/a	1	3	OAK	n/a	FOAM	OAK	9	[0, 0, 0]	-999	PAL1	1	R1392N
1857.584	0.271	632542	ORIENT_START	n/a	n/a	-999	-999	n/a	n/a	n/a	n/a	9	[0, 0, 0]	-999	PAL1	1	R1392N
1857.855	0.5	632813	ORIENT_END	n/a	n/a	-999	-999	n/a	n/a	n/a	n/a	9	[0, 0, 0]	-999	PAL1	1	R1392N
1858.355	0.141	633313	REC_EVENT	5.818	n/a	1	3	OAK	<>	FOAM	OAK	9	[0, 0, 0]	-999	PAL1	1	R1392N
1858.496	4.0	633454	PROBE_START	n/a	wordpools/wordpool_EN.txt	4	4	SHIP	SHIP	FACE	SHIP	9	[0, 0, 0]	-999	PAL1	1	R1392N
1858.496	0.134	633454	REC_START	n/a	n/a	4	4	SHIP	SHIP	FACE	SHIP	9	[0, 0, 0]	-999	PAL1	1	R1392N
1858.63	0.298	633588	REC_EVENT	0.134	n/a	4	4	SHIP	OAK	FACE	SHIP	9	[0, 0, 0]	-999	PAL1	1	R1392N
1858.928	3.594	633886	REC_EVENT	0.432	n/a	4	4	SHIP	TREE	FACE	SHIP	9	[0, 0, 0]	-999	PAL1	1	R1392N
1862.522	1.001	637480	PROBE_END	n/a	n/a	4	4	SHIP	n/a	FACE	SHIP	9	[0, 0, 0]	-999	PAL1	1	R1392N
1863.523	0.013	638481	REC_END	n/a	n/a	4	4	SHIP	n/a	FACE	SHIP	9	[0, 0, 0]	-999	PAL1	1	R1392N
1863.536	0.27	638494	ORIENT_START	n/a	n/a	-999	-999	n/a	n/a	n/a	n/a	9	[0, 0, 0]	-999	PAL1	1	R1392N
1863.806	0.163	638764	ORIENT_END	n/a	n/a	-999	-999	n/a	n/a	n/a	n/a	9	[0, 0, 0]	-999	PAL1	1	R1392N
1863.969	0.355	638927	REC_EVENT	5.473	n/a	4	4	SHIP	SHIP	FACE	SHIP	9	[0, 0, 0]	-999	PAL1	1	R1392N
1864.324	4.0	639282	PROBE_START	n/a	wordpools/wordpool_EN.txt	3	5	TOOTH	n/a	TOOTH	BOWL	9	[0, 0, 0]	-999	PAL1	1	R1392N
1864.324	0.25	639282	REC_START	n/a	n/a	3	5	TOOTH	n/a	TOOTH	BOWL	9	[0, 0, 0]	-999	PAL1	1	R1392N
1864.574	3.782	639532	REC_EVENT	0.25	n/a	3	5	TOOTH	<>	TOOTH	BOWL	9	[0, 0, 0]	-999	PAL1	1	R1392N
1868.356	0.999	643313	PROBE_END	n/a	n/a	3	5	TOOTH	n/a	TOOTH	BOWL	9	[0, 0, 0]	-999	PAL1	1	R1392N
1869.355	0.011	644312	REC_END	n/a	n/a	3	5	TOOTH	n/a	TOOTH	BOWL	9	[0, 0, 0]	-999	PAL1	1	R1392N
1869.366	0.257	644323	ORIENT_START	n/a	n/a	-999	-999	n/a	n/a	n/a	n/a	9	[0, 0, 0]	-999	PAL1	1	R1392N
1869.623	0.657	644580	ORIENT_END	n/a	n/a	-999	-999	n/a	n/a	n/a	n/a	9	[0, 0, 0]	-999	PAL1	1	R1392N
1870.28	0.0	645237	REC_START	n/a	n/a	6	6	JEEP	n/a	PIPE	JEEP	9	[0, 0, 0]	-999	PAL1	1	R1392N
1870.28	4.0	645237	PROBE_START	n/a	wordpools/wordpool_EN.txt	6	6	JEEP	n/a	PIPE	JEEP	9	[0, 0, 0]	-999	PAL1	1	R1392N
1873.833	0.473	648790	REC_EVENT	3.553	n/a	6	6	JEEP	<>	PIPE	JEEP	9	[0, 0, 0]	-999	PAL1	1	R1392N
1874.306	1.0	649263	PROBE_END	n/a	n/a	6	6	JEEP	n/a	PIPE	JEEP	9	[0, 0, 0]	-999	PAL1	1	R1392N
1875.306	0.011	650263	REC_END	n/a	n/a	6	6	JEEP	n/a	PIPE	JEEP	9	[0, 0, 0]	-999	PAL1	1	R1392N
1875.317	0.0	650274	TRIAL_END	n/a	n/a	-999	-999	n/a	n/a	n/a	n/a	9	[0, 0, 0]	-999	PAL1	1	R1392N
1875.317	0.02	650274	RETRIEVAL_END	n/a	n/a	-999	-999	n/a	n/a	n/a	n/a	9	[0, 0, 0]	-999	PAL1	1	R1392N
1875.337	0.0	650294	TRIAL_START	n/a	n/a	-999	-999	n/a	n/a	n/a	n/a	9	[0, 0, 0]	-999	PAL1	1	R1392N
1875.337	0.0	650294	TRIAL	n/a	n/a	-999	-999	n/a	n/a	n/a	n/a	10	[0, 0, 0]	-999	PAL1	1	R1392N
1875.337	4.772	650294	WAITING_START	n/a	n/a	-999	-999	n/a	n/a	n/a	n/a	10	[0, 0, 0]	-999	PAL1	1	R1392N
1880.109	0.0	655066	WAITING_END	n/a	n/a	-999	-999	n/a	n/a	n/a	n/a	10	[0, 0, 0]	-999	PAL1	1	R1392N
1880.109	10.0	655066	COUNTDOWN_START	n/a	n/a	-999	-999	n/a	n/a	n/a	n/a	10	[0, 0, 0]	-999	PAL1	1	R1392N
1890.538	0.0	665495	COUNTDOWN_END	n/a	n/a	-999	-999	n/a	n/a	n/a	n/a	10	[0, 0, 0]	-999	PAL1	1	R1392N
1890.538	0.622	665495	ORIENT_START	n/a	n/a	-999	-999	n/a	n/a	n/a	n/a	10	[0, 0, 0]	-999	PAL1	1	R1392N
1891.16	0.0	666117	ORIENT_END	n/a	n/a	-999	-999	n/a	n/a	n/a	n/a	10	[0, 0, 0]	-999	PAL1	1	R1392N
1891.16	1.026	666117	ENCODING_START	n/a	n/a	-999	-999	n/a	n/a	n/a	n/a	10	[0, 0, 0]	-999	PAL1	1	R1392N
1892.186	4.0	667143	STUDY_PAIR	n/a	wordpools/wordpool_EN.txt	1	3	n/a	PRINCE	BRICK	PRINCE	10	[0, 0, 0]	-999	PAL1	1	R1392N
1896.227	0.7	671183	STUDY_PAIR_OFF	n/a	n/a	1	3	n/a	PRINCE	BRICK	PRINCE	10	[0, 0, 0]	-999	PAL1	1	R1392N
1896.927	4.0	671883	STUDY_PAIR	n/a	wordpools/wordpool_EN.txt	2	2	n/a	FOAM	PHONE	SMILE	10	[0, 0, 0]	-999	PAL1	1	R1392N
1900.962	0.643	675918	STUDY_PAIR_OFF	n/a	n/a	2	2	n/a	FOAM	PHONE	SMILE	10	[0, 0, 0]	-999	PAL1	1	R1392N
1901.605	4.0	676561	STUDY_PAIR	n/a	wordpools/wordpool_EN.txt	3	1	n/a	SMILE	MAIL	STEAM	10	[0, 0, 0]	-999	PAL1	1	R1392N
1905.63	0.734	680586	STUDY_PAIR_OFF	n/a	n/a	3	1	n/a	SMILE	MAIL	STEAM	10	[0, 0, 0]	-999	PAL1	1	R1392N
1906.364	4.0	681320	STUDY_PAIR	n/a	wordpools/wordpool_EN.txt	4	6	n/a	SWAMP	HAWK	CHEEK	10	[0, 0, 0]	-999	PAL1	1	R1392N
1910.397	0.696	685353	STUDY_PAIR_OFF	n/a	n/a	4	6	n/a	SWAMP	HAWK	CHEEK	10	[0, 0, 0]	-999	PAL1	1	R1392N
1911.093	4.0	686049	STUDY_PAIR	n/a	wordpools/wordpool_EN.txt	5	5	n/a	n/a	SHIELD	OAR	10	[0, 0, 0]	-999	PAL1	1	R1392N
1915.13	0.626	690086	STUDY_PAIR_OFF	n/a	n/a	5	5	n/a	n/a	SHIELD	OAR	10	[0, 0, 0]	-999	PAL1	1	R1392N
1915.756	4.0	690712	STUDY_PAIR	n/a	wordpools/wordpool_EN.txt	6	4	n/a	SMILE	FOOT	RAIN	10	[0, 0, 0]	-999	PAL1	1	R1392N
1919.782	0.0	694738	ENCODING_END	n/a	n/a	-999	-999	n/a	n/a	n/a	n/a	10	[0, 0, 0]	-999	PAL1	1	R1392N
1919.782	0.001	694738	STUDY_PAIR_OFF	n/a	n/a	6	4	n/a	SMILE	FOOT	RAIN	10	[0, 0, 0]	-999	PAL1	1	R1392N
1919.783	0.0	694739	MATH_START	n/a	n/a	-999	-999	n/a	n/a	n/a	n/a	10	[0, 0, 0]	-999	PAL1	1	R1392N
1919.783	0.015	694739	START	n/a	n/a	-999	-999	n/a	n/a	n/a	n/a	11	[-999, -999, -999]	-999	PAL1	1	R1392N
1919.798	3.918	694754	PROB	3.885	n/a	-999	-999	n/a	n/a	n/a	n/a	11	[8, 2, 5]	15	PAL1	1	R1392N
1923.716	2.25	698671	PROB	2.223	n/a	-999	-999	n/a	n/a	n/a	n/a	11	[4, 7, 3]	14	PAL1	1	R1392N
1925.966	3.35	700921	PROB	3.323	n/a	-999	-999	n/a	n/a	n/a	n/a	11	[9, 6, 5]	20	PAL1	1	R1392N
1929.316	2.184	704271	PROB	2.158	n/a	-999	-999	n/a	n/a	n/a	n/a	11	[5, 5, 7]	17	PAL1	1	R1392N
1931.5	2.017	706455	PROB	1.991	n/a	-999	-999	n/a	n/a	n/a	n/a	11	[9, 4, 5]	18	PAL1	1	R1392N
1933.517	2.184	708472	PROB	2.15	n/a	-999	-999	n/a	n/a	n/a	n/a	11	[8, 7, 6]	21	PAL1	1	R1392N
1935.701	1.767	710656	PROB	1.734	n/a	-999	-999	n/a	n/a	n/a	n/a	11	[5, 1, 3]	9	PAL1	1	R1392N
1937.468	2.623	712423	PROB	2.623	n/a	-999	-999	n/a	n/a	n/a	n/a	11	[1, 7, 2]	10	PAL1	1	R1392N
1940.091	0.011	715046	STOP	n/a	n/a	-999	-999	n/a	n/a	n/a	n/a	11	[-999, -999, -999]	-999	PAL1	1	R1392N
1940.102	0.667	715057	MATH_END	n/a	n/a	-999	-999	n/a	n/a	n/a	n/a	10	[0, 0, 0]	-999	PAL1	1	R1392N
1940.769	0.002	715724	RETRIEVAL_START	n/a	n/a	-999	-999	n/a	n/a	n/a	n/a	10	[0, 0, 0]	-999	PAL1	1	R1392N
1940.771	0.281	715726	ORIENT_START	n/a	n/a	-999	-999	n/a	n/a	n/a	n/a	10	[0, 0, 0]	-999	PAL1	1	R1392N
1941.052	0.595	716007	ORIENT_END	n/a	n/a	-999	-999	n/a	n/a	n/a	n/a	10	[0, 0, 0]	-999	PAL1	1	R1392N
1941.647	0.0	716602	REC_START	n/a	n/a	3	1	STEAM	SMILE	MAIL	STEAM	10	[0, 0, 0]	-999	PAL1	1	R1392N
1941.647	4.0	716602	PROBE_START	n/a	wordpools/wordpool_EN.txt	3	1	STEAM	SMILE	MAIL	STEAM	10	[0, 0, 0]	-999	PAL1	1	R1392N
1944.464	0.511	719419	REC_EVENT	2.817	n/a	3	1	STEAM	STEAM	MAIL	STEAM	10	[0, 0, 0]	-999	PAL1	1	R1392N
1944.975	0.711	719930	REC_EVENT	3.328	n/a	3	1	STEAM	SMILE	MAIL	STEAM	10	[0, 0, 0]	-999	PAL1	1	R1392N
1945.686	1.001	720641	PROBE_END	n/a	n/a	3	1	STEAM	n/a	MAIL	STEAM	10	[0, 0, 0]	-999	PAL1	1	R1392N
1946.687	0.012	721642	REC_END	n/a	n/a	3	1	STEAM	n/a	MAIL	STEAM	10	[0, 0, 0]	-999	PAL1	1	R1392N
1946.699	0.271	721654	ORIENT_START	n/a	n/a	-999	-999	n/a	n/a	n/a	n/a	10	[0, 0, 0]	-999	PAL1	1	R1392N
1946.97	0.509	721925	ORIENT_END	n/a	n/a	-999	-999	n/a	n/a	n/a	n/a	10	[0, 0, 0]	-999	PAL1	1	R1392N
1947.479	0.0	722434	REC_START	n/a	n/a	2	2	PHONE	FOAM	PHONE	SMILE	10	[0, 0, 0]	-999	PAL1	1	R1392N
1947.479	4.0	722434	PROBE_START	n/a	wordpools/wordpool_EN.txt	2	2	PHONE	FOAM	PHONE	SMILE	10	[0, 0, 0]	-999	PAL1	1	R1392N
1951.234	0.27	726189	REC_EVENT	3.755	n/a	2	2	PHONE	<>	PHONE	SMILE	10	[0, 0, 0]	-999	PAL1	1	R1392N
1951.504	0.984	726459	PROBE_END	n/a	n/a	2	2	PHONE	n/a	PHONE	SMILE	10	[0, 0, 0]	-999	PAL1	1	R1392N
1952.488	0.016	727442	REC_EVENT	5.009	n/a	2	2	PHONE	FOAM	PHONE	SMILE	10	[0, 0, 0]	-999	PAL1	1	R1392N
1952.504	0.012	727458	REC_END	n/a	n/a	2	2	PHONE	n/a	PHONE	SMILE	10	[0, 0, 0]	-999	PAL1	1	R1392N
1952.516	0.271	727470	ORIENT_START	n/a	n/a	-999	-999	n/a	n/a	n/a	n/a	10	[0, 0, 0]	-999	PAL1	1	R1392N
1952.787	0.571	727741	ORIENT_END	n/a	n/a	-999	-999	n/a	n/a	n/a	n/a	10	[0, 0, 0]	-999	PAL1	1	R1392N
1953.358	0.0	728312	REC_START	n/a	n/a	1	3	PRINCE	PRINCE	BRICK	PRINCE	10	[0, 0, 0]	-999	PAL1	1	R1392N
1953.358	4.0	728312	PROBE_START	n/a	wordpools/wordpool_EN.txt	1	3	PRINCE	PRINCE	BRICK	PRINCE	10	[0, 0, 0]	-999	PAL1	1	R1392N
1953.665	3.723	728619	REC_EVENT	0.307	n/a	1	3	PRINCE	SICK	BRICK	PRINCE	10	[0, 0, 0]	-999	PAL1	1	R1392N
1957.388	0.53	732342	PROBE_END	n/a	n/a	1	3	PRINCE	n/a	BRICK	PRINCE	10	[0, 0, 0]	-999	PAL1	1	R1392N
1957.918	0.47	732872	REC_EVENT	4.56	n/a	1	3	PRINCE	SICK	BRICK	PRINCE	10	[0, 0, 0]	-999	PAL1	1	R1392N
1958.388	0.013	733342	REC_END	n/a	n/a	1	3	PRINCE	n/a	BRICK	PRINCE	10	[0, 0, 0]	-999	PAL1	1	R1392N
1958.401	0.071	733355	ORIENT_START	n/a	n/a	-999	-999	n/a	n/a	n/a	n/a	10	[0, 0, 0]	-999	PAL1	1	R1392N
1958.472	0.2	733426	REC_EVENT	5.114	n/a	1	3	PRINCE	PRINCE	BRICK	PRINCE	10	[0, 0, 0]	-999	PAL1	1	R1392N
1958.672	0.714	733626	ORIENT_END	n/a	n/a	-999	-999	n/a	n/a	n/a	n/a	10	[0, 0, 0]	-999	PAL1	1	R1392N
1959.386	0.001	734340	REC_START	n/a	n/a	6	4	FOOT	SMILE	FOOT	RAIN	10	[0, 0, 0]	-999	PAL1	1	R1392N
1959.387	4.0	734341	PROBE_START	n/a	wordpools/wordpool_EN.txt	6	4	FOOT	SMILE	FOOT	RAIN	10	[0, 0, 0]	-999	PAL1	1	R1392N
1961.687	0.581	736641	REC_EVENT	2.3	n/a	6	4	FOOT	FOOT	FOOT	RAIN	10	[0, 0, 0]	-999	PAL1	1	R1392N
1962.268	1.154	737222	REC_EVENT	2.881	n/a	6	4	FOOT	SMILE	FOOT	RAIN	10	[0, 0, 0]	-999	PAL1	1	R1392N
1963.422	1.0	738376	PROBE_END	n/a	n/a	6	4	FOOT	n/a	FOOT	RAIN	10	[0, 0, 0]	-999	PAL1	1	R1392N
1964.422	0.013	739376	REC_END	n/a	n/a	6	4	FOOT	n/a	FOOT	RAIN	10	[0, 0, 0]	-999	PAL1	1	R1392N
1964.435	0.271	739389	ORIENT_START	n/a	n/a	-999	-999	n/a	n/a	n/a	n/a	10	[0, 0, 0]	-999	PAL1	1	R1392N
1964.706	0.66	739660	ORIENT_END	n/a	n/a	-999	-999	n/a	n/a	n/a	n/a	10	[0, 0, 0]	-999	PAL1	1	R1392N
1965.366	0.0	740320	REC_START	n/a	n/a	5	5	SHIELD	n/a	SHIELD	OAR	10	[0, 0, 0]	-999	PAL1	1	R1392N
1965.366	4.0	740320	PROBE_START	n/a	wordpools/wordpool_EN.txt	5	5	SHIELD	n/a	SHIELD	OAR	10	[0, 0, 0]	-999	PAL1	1	R1392N
1969.372	1.0	744326	PROBE_END	n/a	n/a	5	5	SHIELD	n/a	SHIELD	OAR	10	[0, 0, 0]	-999	PAL1	1	R1392N
1970.372	0.014	745326	REC_END	n/a	n/a	5	5	SHIELD	n/a	SHIELD	OAR	10	[0, 0, 0]	-999	PAL1	1	R1392N
1970.386	0.271	745340	ORIENT_START	n/a	n/a	-999	-999	n/a	n/a	n/a	n/a	10	[0, 0, 0]	-999	PAL1	1	R1392N
1970.657	0.554	745611	ORIENT_END	n/a	n/a	-999	-999	n/a	n/a	n/a	n/a	10	[0, 0, 0]	-999	PAL1	1	R1392N
1971.211	0.064	746165	REC_EVENT	5.845	n/a	5	5	SHIELD	<>	SHIELD	OAR	10	[0, 0, 0]	-999	PAL1	1	R1392N
1971.275	0.0	746229	REC_START	n/a	n/a	4	6	CHEEK	SWAMP	HAWK	CHEEK	10	[0, 0, 0]	-999	PAL1	1	R1392N
1971.275	4.0	746229	PROBE_START	n/a	wordpools/wordpool_EN.txt	4	6	CHEEK	SWAMP	HAWK	CHEEK	10	[0, 0, 0]	-999	PAL1	1	R1392N
1972.118	0.391	747072	REC_EVENT	0.843	n/a	4	6	CHEEK	SEAL	HAWK	CHEEK	10	[0, 0, 0]	-999	PAL1	1	R1392N
1972.509	2.798	747463	REC_EVENT	1.234	n/a	4	6	CHEEK	SWAMP	HAWK	CHEEK	10	[0, 0, 0]	-999	PAL1	1	R1392N
1975.307	1.0	750261	PROBE_END	n/a	n/a	4	6	CHEEK	n/a	HAWK	CHEEK	10	[0, 0, 0]	-999	PAL1	1	R1392N
1976.307	0.013	751261	REC_END	n/a	n/a	4	6	CHEEK	n/a	HAWK	CHEEK	10	[0, 0, 0]	-999	PAL1	1	R1392N
1976.32	0.0	751274	RETRIEVAL_END	n/a	n/a	-999	-999	n/a	n/a	n/a	n/a	10	[0, 0, 0]	-999	PAL1	1	R1392N
1976.32	0.024	751274	TRIAL_END	n/a	n/a	-999	-999	n/a	n/a	n/a	n/a	10	[0, 0, 0]	-999	PAL1	1	R1392N
1976.344	0.0	751298	TRIAL_START	n/a	n/a	-999	-999	n/a	n/a	n/a	n/a	10	[0, 0, 0]	-999	PAL1	1	R1392N
1976.344	0.0	751298	TRIAL	n/a	n/a	-999	-999	n/a	n/a	n/a	n/a	11	[0, 0, 0]	-999	PAL1	1	R1392N
1976.344	6.382	751298	WAITING_START	n/a	n/a	-999	-999	n/a	n/a	n/a	n/a	11	[0, 0, 0]	-999	PAL1	1	R1392N
1982.726	0.0	757679	WAITING_END	n/a	n/a	-999	-999	n/a	n/a	n/a	n/a	11	[0, 0, 0]	-999	PAL1	1	R1392N
1982.726	10.0	757679	COUNTDOWN_START	n/a	n/a	-999	-999	n/a	n/a	n/a	n/a	11	[0, 0, 0]	-999	PAL1	1	R1392N
1993.155	0.0	768108	COUNTDOWN_END	n/a	n/a	-999	-999	n/a	n/a	n/a	n/a	11	[0, 0, 0]	-999	PAL1	1	R1392N
1993.155	0.623	768108	ORIENT_START	n/a	n/a	-999	-999	n/a	n/a	n/a	n/a	11	[0, 0, 0]	-999	PAL1	1	R1392N
1993.778	0.0	768731	ENCODING_START	n/a	n/a	-999	-999	n/a	n/a	n/a	n/a	11	[0, 0, 0]	-999	PAL1	1	R1392N
1993.778	1.07	768731	ORIENT_END	n/a	n/a	-999	-999	n/a	n/a	n/a	n/a	11	[0, 0, 0]	-999	PAL1	1	R1392N
1994.848	4.0	769801	STUDY_PAIR	n/a	wordpools/wordpool_EN.txt	1	3	n/a	SEAT	CLOTH	SEAT	11	[0, 0, 0]	-999	PAL1	1	R1392N
1998.878	0.535	773831	STUDY_PAIR_OFF	n/a	n/a	1	3	n/a	SEAT	CLOTH	SEAT	11	[0, 0, 0]	-999	PAL1	1	R1392N
1999.413	4.0	774366	STUDY_PAIR	n/a	wordpools/wordpool_EN.txt	2	2	n/a	n/a	THREAD	HOOF	11	[0, 0, 0]	-999	PAL1	1	R1392N
2003.446	0.547	778399	STUDY_PAIR_OFF	n/a	n/a	2	2	n/a	n/a	THREAD	HOOF	11	[0, 0, 0]	-999	PAL1	1	R1392N
2003.993	4.0	778946	STUDY_PAIR	n/a	wordpools/wordpool_EN.txt	3	5	n/a	MOON	SQUARE	ROOM	11	[0, 0, 0]	-999	PAL1	1	R1392N
2008.03	0.653	782983	STUDY_PAIR_OFF	n/a	n/a	3	5	n/a	MOON	SQUARE	ROOM	11	[0, 0, 0]	-999	PAL1	1	R1392N
2008.683	4.0	783636	STUDY_PAIR	n/a	wordpools/wordpool_EN.txt	4	4	n/a	n/a	DITCH	FROG	11	[0, 0, 0]	-999	PAL1	1	R1392N
2012.714	0.587	787666	STUDY_PAIR_OFF	n/a	n/a	4	4	n/a	n/a	DITCH	FROG	11	[0, 0, 0]	-999	PAL1	1	R1392N
2013.301	4.0	788253	STUDY_PAIR	n/a	wordpools/wordpool_EN.txt	5	1	n/a	n/a	HEART	CLOUD	11	[0, 0, 0]	-999	PAL1	1	R1392N
2017.33	0.527	792282	STUDY_PAIR_OFF	n/a	n/a	5	1	n/a	n/a	HEART	CLOUD	11	[0, 0, 0]	-999	PAL1	1	R1392N
2017.857	4.0	792809	STUDY_PAIR	n/a	wordpools/wordpool_EN.txt	6	6	n/a	TREE	MULE	PLANT	11	[0, 0, 0]	-999	PAL1	1	R1392N
2021.882	0.001	796834	STUDY_PAIR_OFF	n/a	n/a	6	6	n/a	TREE	MULE	PLANT	11	[0, 0, 0]	-999	PAL1	1	R1392N
2021.883	0.0	796835	ENCODING_END	n/a	n/a	-999	-999	n/a	n/a	n/a	n/a	11	[0, 0, 0]	-999	PAL1	1	R1392N
2021.883	0.0	796835	MATH_START	n/a	n/a	-999	-999	n/a	n/a	n/a	n/a	11	[0, 0, 0]	-999	PAL1	1	R1392N
2021.883	0.016	796835	START	n/a	n/a	-999	-999	n/a	n/a	n/a	n/a	12	[-999, -999, -999]	-999	PAL1	1	R1392N
2021.899	4.5	796851	PROB	4.471	n/a	-999	-999	n/a	n/a	n/a	n/a	12	[4, 7, 2]	13	PAL1	1	R1392N
2026.399	2.966	801351	PROB	2.938	n/a	-999	-999	n/a	n/a	n/a	n/a	12	[5, 3, 7]	15	PAL1	1	R1392N
2029.365	2.302	804317	PROB	2.27	n/a	-999	-999	n/a	n/a	n/a	n/a	12	[4, 6, 3]	13	PAL1	1	R1392N
2031.667	2.167	806619	PROB	2.128	n/a	-999	-999	n/a	n/a	n/a	n/a	12	[1, 3, 9]	13	PAL1	1	R1392N
2033.834	3.234	808786	PROB	3.209	n/a	-999	-999	n/a	n/a	n/a	n/a	12	[2, 9, 3]	14	PAL1	1	R1392N
2037.068	3.133	812020	PROB	3.11	n/a	-999	-999	n/a	n/a	n/a	n/a	12	[4, 7, 9]	20	PAL1	1	R1392N
2040.201	1.857	815152	PROB	1.857	n/a	-999	-999	n/a	n/a	n/a	n/a	12	[1, 8, 4]	13	PAL1	1	R1392N
2042.058	0.011	817009	STOP	n/a	n/a	-999	-999	n/a	n/a	n/a	n/a	12	[-999, -999, -999]	-999	PAL1	1	R1392N
2042.069	0.694	817020	MATH_END	n/a	n/a	-999	-999	n/a	n/a	n/a	n/a	11	[0, 0, 0]	-999	PAL1	1	R1392N
2042.763	0.001	817714	RETRIEVAL_START	n/a	n/a	-999	-999	n/a	n/a	n/a	n/a	11	[0, 0, 0]	-999	PAL1	1	R1392N
2042.764	0.272	817715	ORIENT_START	n/a	n/a	-999	-999	n/a	n/a	n/a	n/a	11	[0, 0, 0]	-999	PAL1	1	R1392N
2043.036	0.613	817987	ORIENT_END	n/a	n/a	-999	-999	n/a	n/a	n/a	n/a	11	[0, 0, 0]	-999	PAL1	1	R1392N
2043.649	0.001	818600	REC_START	n/a	n/a	5	1	HEART	n/a	HEART	CLOUD	11	[0, 0, 0]	-999	PAL1	1	R1392N
2043.65	4.0	818601	PROBE_START	n/a	wordpools/wordpool_EN.txt	5	1	HEART	n/a	HEART	CLOUD	11	[0, 0, 0]	-999	PAL1	1	R1392N
2047.686	1.0	822637	PROBE_END	n/a	n/a	5	1	HEART	n/a	HEART	CLOUD	11	[0, 0, 0]	-999	PAL1	1	R1392N
2048.686	0.013	823637	REC_END	n/a	n/a	5	1	HEART	n/a	HEART	CLOUD	11	[0, 0, 0]	-999	PAL1	1	R1392N
2048.699	0.271	823650	ORIENT_START	n/a	n/a	-999	-999	n/a	n/a	n/a	n/a	11	[0, 0, 0]	-999	PAL1	1	R1392N
2048.97	0.506	823921	ORIENT_END	n/a	n/a	-999	-999	n/a	n/a	n/a	n/a	11	[0, 0, 0]	-999	PAL1	1	R1392N
2049.476	0.207	824427	REC_EVENT	5.826	n/a	5	1	HEART	<>	HEART	CLOUD	11	[0, 0, 0]	-999	PAL1	1	R1392N
2049.683	0.0	824634	REC_START	n/a	n/a	2	2	HOOF	n/a	THREAD	HOOF	11	[0, 0, 0]	-999	PAL1	1	R1392N
2049.683	4.0	824634	PROBE_START	n/a	wordpools/wordpool_EN.txt	2	2	HOOF	n/a	THREAD	HOOF	11	[0, 0, 0]	-999	PAL1	1	R1392N
2053.721	0.999	828672	PROBE_END	n/a	n/a	2	2	HOOF	n/a	THREAD	HOOF	11	[0, 0, 0]	-999	PAL1	1	R1392N
2054.72	0.012	829671	REC_END	n/a	n/a	2	2	HOOF	n/a	THREAD	HOOF	11	[0, 0, 0]	-999	PAL1	1	R1392N
2054.732	0.272	829683	ORIENT_START	n/a	n/a	-999	-999	n/a	n/a	n/a	n/a	11	[0, 0, 0]	-999	PAL1	1	R1392N
2055.004	0.548	829955	ORIENT_END	n/a	n/a	-999	-999	n/a	n/a	n/a	n/a	11	[0, 0, 0]	-999	PAL1	1	R1392N
2055.552	0.001	830503	REC_START	n/a	n/a	1	3	CLOTH	SEAT	CLOTH	SEAT	11	[0, 0, 0]	-999	PAL1	1	R1392N
2055.553	4.0	830504	PROBE_START	n/a	wordpools/wordpool_EN.txt	1	3	CLOTH	SEAT	CLOTH	SEAT	11	[0, 0, 0]	-999	PAL1	1	R1392N
2055.696	1.432	830647	REC_EVENT	6.013	n/a	2	2	HOOF	<>	THREAD	HOOF	11	[0, 0, 0]	-999	PAL1	1	R1392N
2057.128	0.46	832079	REC_EVENT	1.575	n/a	1	3	CLOTH	CLOTH	CLOTH	SEAT	11	[0, 0, 0]	-999	PAL1	1	R1392N
2057.588	2.0	832539	REC_EVENT	2.035	n/a	1	3	CLOTH	SEAT	CLOTH	SEAT	11	[0, 0, 0]	-999	PAL1	1	R1392N
2059.588	1.0	834539	PROBE_END	n/a	n/a	1	3	CLOTH	n/a	CLOTH	SEAT	11	[0, 0, 0]	-999	PAL1	1	R1392N
2060.588	0.011	835539	REC_END	n/a	n/a	1	3	CLOTH	n/a	CLOTH	SEAT	11	[0, 0, 0]	-999	PAL1	1	R1392N
2060.599	0.273	835550	ORIENT_START	n/a	n/a	-999	-999	n/a	n/a	n/a	n/a	11	[0, 0, 0]	-999	PAL1	1	R1392N
2060.872	0.71	835823	ORIENT_END	n/a	n/a	-999	-999	n/a	n/a	n/a	n/a	11	[0, 0, 0]	-999	PAL1	1	R1392N
2061.582	0.001	836533	REC_START	n/a	n/a	4	4	FROG	n/a	DITCH	FROG	11	[0, 0, 0]	-999	PAL1	1	R1392N
2061.583	4.0	836534	PROBE_START	n/a	wordpools/wordpool_EN.txt	4	4	FROG	n/a	DITCH	FROG	11	[0, 0, 0]	-999	PAL1	1	R1392N
2065.589	0.104	840540	PROBE_END	n/a	n/a	4	4	FROG	n/a	DITCH	FROG	11	[0, 0, 0]	-999	PAL1	1	R1392N
2065.693	0.896	840644	REC_EVENT	4.11	n/a	4	4	FROG	<>	DITCH	FROG	11	[0, 0, 0]	-999	PAL1	1	R1392N
2066.589	0.01	841540	REC_END	n/a	n/a	4	4	FROG	n/a	DITCH	FROG	11	[0, 0, 0]	-999	PAL1	1	R1392N
2066.599	0.274	841550	ORIENT_START	n/a	n/a	-999	-999	n/a	n/a	n/a	n/a	11	[0, 0, 0]	-999	PAL1	1	R1392N
2066.873	0.664	841824	ORIENT_END	n/a	n/a	-999	-999	n/a	n/a	n/a	n/a	11	[0, 0, 0]	-999	PAL1	1	R1392N
2067.537	0.0	842487	REC_START	n/a	n/a	3	5	SQUARE	MOON	SQUARE	ROOM	11	[0, 0, 0]	-999	PAL1	1	R1392N
2067.537	4.0	842487	PROBE_START	n/a	wordpools/wordpool_EN.txt	3	5	SQUARE	MOON	SQUARE	ROOM	11	[0, 0, 0]	-999	PAL1	1	R1392N
