onset	duration	sample	trial_type	response_time	stim_file	serialpos	probepos	probe_word	resp_word	study_1	study_2	list	test	answer	experiment	session	subject
0.0	0.0	1248061	INSTRUCT_VIDEO_ON	n/a	n/a	-999	-999	n/a	n/a	n/a	n/a	-999	[0, 0, 0]	-999	PAL1	1	R1230J
0.0	5.576	1248061	INSTRUCT_VIDEO_OFF	n/a	n/a	-999	-999	n/a	n/a	n/a	n/a	-999	[0, 0, 0]	-999	PAL1	1	R1230J
5.576	0.0	1253637	SESS_START	n/a	n/a	-999	-999	n/a	n/a	n/a	n/a	-999	[0, 0, 0]	-999	PAL1	1	R1230J
5.576	202.053	1253637	MIC_TEST	n/a	n/a	-999	-999	n/a	n/a	n/a	n/a	-999	[0, 0, 0]	-999	PAL1	1	R1230J
207.629	14.295	1455689	PRACTICE_TRIAL	n/a	n/a	-999	-999	n/a	n/a	n/a	n/a	-1	[0, 0, 0]	-999	PAL1	1	R1230J
221.924	0.007	1469984	ENCODING_START	n/a	n/a	-999	-999	n/a	n/a	n/a	n/a	-1	[0, 0, 0]	-999	PAL1	1	R1230J
221.931	0.266	1469991	PRACTICE_ORIENT	n/a	n/a	1	3	WAGON	ATTIC	WAGON	CHEST	-1	[0, 0, 0]	-999	PAL1	1	R1230J
222.197	0.75	1470257	PRACTICE_ORIENT_OFF	n/a	n/a	1	3	WAGON	ATTIC	WAGON	CHEST	-1	[0, 0, 0]	-999	PAL1	1	R1230J
222.947	4.0	1471007	PRACTICE_PAIR	n/a	n/a	1	3	WAGON	ATTIC	WAGON	CHEST	-1	[0, 0, 0]	-999	PAL1	1	R1230J
226.964	1.017	1475024	PRACTICE_PAIR_OFF	n/a	n/a	1	3	WAGON	ATTIC	WAGON	CHEST	-1	[0, 0, 0]	-999	PAL1	1	R1230J
227.981	0.266	1476041	PRACTICE_ORIENT	n/a	n/a	2	4	TONGUE	CAMEL	TONGUE	CAMEL	-1	[0, 0, 0]	-999	PAL1	1	R1230J
228.247	0.734	1476307	PRACTICE_ORIENT_OFF	n/a	n/a	2	4	TONGUE	CAMEL	TONGUE	CAMEL	-1	[0, 0, 0]	-999	PAL1	1	R1230J
228.981	4.0	1477041	PRACTICE_PAIR	n/a	n/a	2	4	TONGUE	CAMEL	TONGUE	CAMEL	-1	[0, 0, 0]	-999	PAL1	1	R1230J
232.998	1.017	1481058	PRACTICE_PAIR_OFF	n/a	n/a	2	4	TONGUE	CAMEL	TONGUE	CAMEL	-1	[0, 0, 0]	-999	PAL1	1	R1230J
234.015	0.266	1482075	PRACTICE_ORIENT	n/a	n/a	3	5	RHINO	n/a	RHINO	FLOOD	-1	[0, 0, 0]	-999	PAL1	1	R1230J
234.281	0.652	1482341	PRACTICE_ORIENT_OFF	n/a	n/a	3	5	RHINO	n/a	RHINO	FLOOD	-1	[0, 0, 0]	-999	PAL1	1	R1230J
234.933	4.0	1482993	PRACTICE_PAIR	n/a	n/a	3	5	RHINO	n/a	RHINO	FLOOD	-1	[0, 0, 0]	-999	PAL1	1	R1230J
238.949	1.017	1487009	PRACTICE_PAIR_OFF	n/a	n/a	3	5	RHINO	n/a	RHINO	FLOOD	-1	[0, 0, 0]	-999	PAL1	1	R1230J
239.966	0.266	1488026	PRACTICE_ORIENT	n/a	n/a	4	2	WATCH	n/a	ATTIC	WATCH	-1	[0, 0, 0]	-999	PAL1	1	R1230J
240.232	0.634	1488292	PRACTICE_ORIENT_OFF	n/a	n/a	4	2	WATCH	n/a	ATTIC	WATCH	-1	[0, 0, 0]	-999	PAL1	1	R1230J
240.866	4.0	1488926	PRACTICE_PAIR	n/a	n/a	4	2	WATCH	n/a	ATTIC	WATCH	-1	[0, 0, 0]	-999	PAL1	1	R1230J
244.883	1.017	1492943	PRACTICE_PAIR_OFF	n/a	n/a	4	2	WATCH	n/a	ATTIC	WATCH	-1	[0, 0, 0]	-999	PAL1	1	R1230J
245.9	0.267	1493960	PRACTICE_ORIENT	n/a	n/a	5	1	IRON	RING	RING	IRON	-1	[0, 0, 0]	-999	PAL1	1	R1230J
246.167	0.683	1494227	PRACTICE_ORIENT_OFF	n/a	n/a	5	1	IRON	RING	RING	IRON	-1	[0, 0, 0]	-999	PAL1	1	R1230J
246.85	4.0	1494910	PRACTICE_PAIR	n/a	n/a	5	1	IRON	RING	RING	IRON	-1	[0, 0, 0]	-999	PAL1	1	R1230J
250.868	1.016	1498928	PRACTICE_PAIR_OFF	n/a	n/a	5	1	IRON	RING	RING	IRON	-1	[0, 0, 0]	-999	PAL1	1	R1230J
251.884	0.267	1499944	PRACTICE_ORIENT	n/a	n/a	6	6	COTTON	n/a	BEAM	COTTON	-1	[0, 0, 0]	-999	PAL1	1	R1230J
252.151	0.75	1500211	PRACTICE_ORIENT_OFF	n/a	n/a	6	6	COTTON	n/a	BEAM	COTTON	-1	[0, 0, 0]	-999	PAL1	1	R1230J
252.901	4.0	1500961	PRACTICE_PAIR	n/a	n/a	6	6	COTTON	n/a	BEAM	COTTON	-1	[0, 0, 0]	-999	PAL1	1	R1230J
256.919	1.0	1504979	PRACTICE_PAIR_OFF	n/a	n/a	6	6	COTTON	n/a	BEAM	COTTON	-1	[0, 0, 0]	-999	PAL1	1	R1230J
257.919	0.0	1505979	ENCODING_END	n/a	n/a	-999	-999	n/a	n/a	n/a	n/a	-1	[0, 0, 0]	-999	PAL1	1	R1230J
257.919	0.001	1505979	MATH_START	n/a	n/a	-999	-999	n/a	n/a	n/a	n/a	-1	[0, 0, 0]	-999	PAL1	1	R1230J
257.92	0.016	1505980	START	n/a	n/a	-999	-999	n/a	n/a	n/a	n/a	-1	[-999, -999, -999]	-999	PAL1	1	R1230J
257.936	7.6	1505996	PROB	7567.0	n/a	-999	-999	n/a	n/a	n/a	n/a	-1	[5, 3, 9]	17	PAL1	1	R1230J
265.536	3.517	1513596	PROB	3487.0	n/a	-999	-999	n/a	n/a	n/a	n/a	-1	[6, 5, 8]	19	PAL1	1	R1230J
269.053	2.934	1517113	PROB	2897.0	n/a	-999	-999	n/a	n/a	n/a	n/a	-1	[9, 5, 1]	15	PAL1	1	R1230J
271.987	7.763	1520047	PROB	7763.0	n/a	-999	-999	n/a	n/a	n/a	n/a	-1	[5, 1, 7]	13	PAL1	1	R1230J
279.75	0.021	1527810	STOP	n/a	n/a	-999	-999	n/a	n/a	n/a	n/a	-1	[-999, -999, -999]	-999	PAL1	1	R1230J
279.771	0.001	1527831	MATH_END	n/a	n/a	-999	-999	n/a	n/a	n/a	n/a	-1	[0, 0, 0]	-999	PAL1	1	R1230J
279.772	0.016	1527832	RECALL_START	n/a	n/a	-999	-999	n/a	n/a	n/a	n/a	-1	[0, 0, 0]	-999	PAL1	1	R1230J
279.788	0.267	1527848	PRACTICE_RETRIEVAL_ORIENT	n/a	n/a	5	1	IRON	RING	RING	IRON	-1	[0, 0, 0]	-999	PAL1	1	R1230J
280.055	0.583	1528115	PRACTICE_RETRIEVAL_ORIENT_OFF	n/a	n/a	5	1	IRON	RING	RING	IRON	-1	[0, 0, 0]	-999	PAL1	1	R1230J
280.638	4.0	1528698	PRACTICE_PROBE	n/a	n/a	5	1	IRON	RING	RING	IRON	-1	[0, 0, 0]	-999	PAL1	1	R1230J
280.639	2.959	1528699	REC_START	n/a	n/a	5	-999	n/a	RING	n/a	n/a	-1	[0, 0, 0]	-999	PAL1	1	R1230J
283.598	1.057	1531658	REC_EVENT	2959.0	n/a	5	1	IRON	RING	RING	IRON	-1	[0, 0, 0]	-999	PAL1	1	R1230J
284.655	1.0	1532715	PROBE_OFF	n/a	n/a	5	-999	n/a	n/a	n/a	n/a	-1	[0, 0, 0]	-999	PAL1	1	R1230J
285.655	0.017	1533715	REC_END	n/a	n/a	5	-999	n/a	n/a	n/a	n/a	-1	[0, 0, 0]	-999	PAL1	1	R1230J
285.672	0.268	1533732	PRACTICE_RETRIEVAL_ORIENT	n/a	n/a	4	2	WATCH	n/a	ATTIC	WATCH	-1	[0, 0, 0]	-999	PAL1	1	R1230J
285.94	0.565	1534000	PRACTICE_RETRIEVAL_ORIENT_OFF	n/a	n/a	4	2	WATCH	n/a	ATTIC	WATCH	-1	[0, 0, 0]	-999	PAL1	1	R1230J
286.505	4.0	1534565	PRACTICE_PROBE	n/a	n/a	4	2	WATCH	n/a	ATTIC	WATCH	-1	[0, 0, 0]	-999	PAL1	1	R1230J
286.506	2.515	1534566	REC_START	n/a	n/a	4	-999	n/a	n/a	n/a	n/a	-1	[0, 0, 0]	-999	PAL1	1	R1230J
289.021	1.502	1537081	REC_EVENT	2515.0	n/a	4	2	WATCH	<>	ATTIC	WATCH	-1	[0, 0, 0]	-999	PAL1	1	R1230J
290.523	1.0	1538583	PROBE_OFF	n/a	n/a	4	-999	n/a	n/a	n/a	n/a	-1	[0, 0, 0]	-999	PAL1	1	R1230J
291.523	0.016	1539583	REC_END	n/a	n/a	4	-999	n/a	n/a	n/a	n/a	-1	[0, 0, 0]	-999	PAL1	1	R1230J
291.539	0.267	1539599	PRACTICE_RETRIEVAL_ORIENT	n/a	n/a	1	3	WAGON	ATTIC	WAGON	CHEST	-1	[0, 0, 0]	-999	PAL1	1	R1230J
291.806	0.75	1539866	PRACTICE_RETRIEVAL_ORIENT_OFF	n/a	n/a	1	3	WAGON	ATTIC	WAGON	CHEST	-1	[0, 0, 0]	-999	PAL1	1	R1230J
292.556	4.0	1540616	PRACTICE_PROBE	n/a	n/a	1	3	WAGON	ATTIC	WAGON	CHEST	-1	[0, 0, 0]	-999	PAL1	1	R1230J
292.557	0.937	1540617	REC_START	n/a	n/a	1	-999	n/a	ATTIC	n/a	n/a	-1	[0, 0, 0]	-999	PAL1	1	R1230J
293.494	3.079	1541554	REC_EVENT	937.0	n/a	1	3	WAGON	ATTIC	WAGON	CHEST	-1	[0, 0, 0]	-999	PAL1	1	R1230J
296.573	1.001	1544633	PROBE_OFF	n/a	n/a	1	-999	n/a	n/a	n/a	n/a	-1	[0, 0, 0]	-999	PAL1	1	R1230J
297.574	0.016	1545634	REC_END	n/a	n/a	1	-999	n/a	n/a	n/a	n/a	-1	[0, 0, 0]	-999	PAL1	1	R1230J
297.59	0.267	1545650	PRACTICE_RETRIEVAL_ORIENT	n/a	n/a	2	4	TONGUE	CAMEL	TONGUE	CAMEL	-1	[0, 0, 0]	-999	PAL1	1	R1230J
297.857	0.65	1545917	PRACTICE_RETRIEVAL_ORIENT_OFF	n/a	n/a	2	4	TONGUE	CAMEL	TONGUE	CAMEL	-1	[0, 0, 0]	-999	PAL1	1	R1230J
298.507	4.0	1546567	PRACTICE_PROBE	n/a	n/a	2	4	TONGUE	CAMEL	TONGUE	CAMEL	-1	[0, 0, 0]	-999	PAL1	1	R1230J
298.507	1.522	1546567	REC_START	n/a	n/a	2	-999	n/a	CAMEL	n/a	n/a	-1	[0, 0, 0]	-999	PAL1	1	R1230J
300.029	2.495	1548089	REC_EVENT	1522.0	n/a	2	4	TONGUE	CAMEL	TONGUE	CAMEL	-1	[0, 0, 0]	-999	PAL1	1	R1230J
302.524	1.0	1550584	PROBE_OFF	n/a	n/a	2	-999	n/a	n/a	n/a	n/a	-1	[0, 0, 0]	-999	PAL1	1	R1230J
303.524	0.017	1551584	REC_END	n/a	n/a	2	-999	n/a	n/a	n/a	n/a	-1	[0, 0, 0]	-999	PAL1	1	R1230J
303.541	0.267	1551601	PRACTICE_RETRIEVAL_ORIENT	n/a	n/a	3	5	RHINO	n/a	RHINO	FLOOD	-1	[0, 0, 0]	-999	PAL1	1	R1230J
303.808	0.683	1551868	PRACTICE_RETRIEVAL_ORIENT_OFF	n/a	n/a	3	5	RHINO	n/a	RHINO	FLOOD	-1	[0, 0, 0]	-999	PAL1	1	R1230J
304.491	4.0	1552551	PRACTICE_PROBE	n/a	n/a	3	5	RHINO	n/a	RHINO	FLOOD	-1	[0, 0, 0]	-999	PAL1	1	R1230J
304.492	1.702	1552552	REC_START	n/a	n/a	3	-999	n/a	n/a	n/a	n/a	-1	[0, 0, 0]	-999	PAL1	1	R1230J
306.194	2.315	1554254	REC_EVENT	1702.0	n/a	3	5	RHINO	<>	RHINO	FLOOD	-1	[0, 0, 0]	-999	PAL1	1	R1230J
308.509	1.0	1556569	PROBE_OFF	n/a	n/a	3	-999	n/a	n/a	n/a	n/a	-1	[0, 0, 0]	-999	PAL1	1	R1230J
309.509	0.017	1557569	REC_END	n/a	n/a	3	-999	n/a	n/a	n/a	n/a	-1	[0, 0, 0]	-999	PAL1	1	R1230J
309.526	0.266	1557586	PRACTICE_RETRIEVAL_ORIENT	n/a	n/a	6	6	COTTON	n/a	BEAM	COTTON	-1	[0, 0, 0]	-999	PAL1	1	R1230J
309.792	0.6	1557852	PRACTICE_RETRIEVAL_ORIENT_OFF	n/a	n/a	4	6	COTTON	n/a	BEAM	COTTON	-1	[0, 0, 0]	-999	PAL1	1	R1230J
310.392	4.0	1558452	PRACTICE_PROBE	n/a	n/a	6	6	COTTON	n/a	BEAM	COTTON	-1	[0, 0, 0]	-999	PAL1	1	R1230J
310.393	4.016	1558453	REC_START	n/a	n/a	6	-999	n/a	n/a	n/a	n/a	-1	[0, 0, 0]	-999	PAL1	1	R1230J
314.409	0.999	1562469	PROBE_OFF	n/a	n/a	6	-999	n/a	n/a	n/a	n/a	-1	[0, 0, 0]	-999	PAL1	1	R1230J
315.408	0.001	1563468	REC_EVENT	5015.0	n/a	6	6	COTTON	<>	BEAM	COTTON	-1	[0, 0, 0]	-999	PAL1	1	R1230J
315.409	0.011	1563469	REC_END	n/a	n/a	6	-999	n/a	n/a	n/a	n/a	-1	[0, 0, 0]	-999	PAL1	1	R1230J
315.42	5.707	1563480	RECALL_END	n/a	n/a	-999	-999	n/a	n/a	n/a	n/a	-1	[0, 0, 0]	-999	PAL1	1	R1230J
321.127	10.929	1569187	TRIAL	n/a	n/a	-999	-999	n/a	n/a	n/a	n/a	1	[0, 0, 0]	-999	PAL1	1	R1230J
332.056	0.006	1580115	ENCODING_START	n/a	n/a	-999	-999	n/a	n/a	n/a	n/a	1	[0, 0, 0]	-999	PAL1	1	R1230J
332.062	0.267	1580121	STUDY_ORIENT	n/a	n/a	1	1	ROOT	CAMEL	SHOE	ROOT	1	[0, 0, 0]	-999	PAL1	1	R1230J
332.329	0.55	1580388	STUDY_ORIENT_OFF	n/a	n/a	1	1	ROOT	CAMEL	SHOE	ROOT	1	[0, 0, 0]	-999	PAL1	1	R1230J
332.879	4.0	1580938	STUDY_PAIR	n/a	wordpools/wordpool_EN.txt	1	1	ROOT	CAMEL	SHOE	ROOT	1	[0, 0, 0]	-999	PAL1	1	R1230J
336.896	1.017	1584955	PAIR_OFF	n/a	n/a	1	1	ROOT	CAMEL	SHOE	ROOT	1	[0, 0, 0]	-999	PAL1	1	R1230J
337.913	0.266	1585972	STUDY_ORIENT	n/a	n/a	2	4	OAR	n/a	OAR	SKUNK	1	[0, 0, 0]	-999	PAL1	1	R1230J
338.179	0.567	1586238	STUDY_ORIENT_OFF	n/a	n/a	2	4	OAR	n/a	OAR	SKUNK	1	[0, 0, 0]	-999	PAL1	1	R1230J
338.746	4.0	1586805	STUDY_PAIR	n/a	wordpools/wordpool_EN.txt	2	4	OAR	n/a	OAR	SKUNK	1	[0, 0, 0]	-999	PAL1	1	R1230J
342.763	1.017	1590822	PAIR_OFF	n/a	n/a	2	4	OAR	n/a	OAR	SKUNK	1	[0, 0, 0]	-999	PAL1	1	R1230J
343.78	0.266	1591839	STUDY_ORIENT	n/a	n/a	3	5	SHRIMP	n/a	SHRIMP	CAVE	1	[0, 0, 0]	-999	PAL1	1	R1230J
344.046	0.751	1592105	STUDY_ORIENT_OFF	n/a	n/a	3	5	SHRIMP	n/a	SHRIMP	CAVE	1	[0, 0, 0]	-999	PAL1	1	R1230J
344.797	4.0	1592856	STUDY_PAIR	n/a	wordpools/wordpool_EN.txt	3	5	SHRIMP	n/a	SHRIMP	CAVE	1	[0, 0, 0]	-999	PAL1	1	R1230J
348.814	1.017	1596873	PAIR_OFF	n/a	n/a	3	5	SHRIMP	n/a	SHRIMP	CAVE	1	[0, 0, 0]	-999	PAL1	1	R1230J
349.831	0.266	1597890	STUDY_ORIENT	n/a	n/a	4	2	FOX	n/a	FOX	BROOM	1	[0, 0, 0]	-999	PAL1	1	R1230J
350.097	0.584	1598156	STUDY_ORIENT_OFF	n/a	n/a	4	2	FOX	n/a	FOX	BROOM	1	[0, 0, 0]	-999	PAL1	1	R1230J
350.681	4.0	1598740	STUDY_PAIR	n/a	wordpools/wordpool_EN.txt	4	2	FOX	n/a	FOX	BROOM	1	[0, 0, 0]	-999	PAL1	1	R1230J
354.698	1.017	1602757	PAIR_OFF	n/a	n/a	4	2	FOX	n/a	FOX	BROOM	1	[0, 0, 0]	-999	PAL1	1	R1230J
355.715	0.266	1603774	STUDY_ORIENT	n/a	n/a	5	3	ROPE	n/a	ROPE	FUDGE	1	[0, 0, 0]	-999	PAL1	1	R1230J
355.981	0.667	1604040	STUDY_ORIENT_OFF	n/a	n/a	5	3	ROPE	n/a	ROPE	FUDGE	1	[0, 0, 0]	-999	PAL1	1	R1230J
356.648	4.0	1604707	STUDY_PAIR	n/a	wordpools/wordpool_EN.txt	5	3	ROPE	n/a	ROPE	FUDGE	1	[0, 0, 0]	-999	PAL1	1	R1230J
360.665	1.017	1608724	PAIR_OFF	n/a	n/a	5	3	ROPE	n/a	ROPE	FUDGE	1	[0, 0, 0]	-999	PAL1	1	R1230J
361.682	0.251	1609741	STUDY_ORIENT	n/a	n/a	6	6	FLAG	n/a	FLAG	FOOT	1	[0, 0, 0]	-999	PAL1	1	R1230J
361.933	0.683	1609992	STUDY_ORIENT_OFF	n/a	n/a	6	6	FLAG	n/a	FLAG	FOOT	1	[0, 0, 0]	-999	PAL1	1	R1230J
362.616	4.0	1610675	STUDY_PAIR	n/a	wordpools/wordpool_EN.txt	6	6	FLAG	n/a	FLAG	FOOT	1	[0, 0, 0]	-999	PAL1	1	R1230J
366.633	1.0	1614692	PAIR_OFF	n/a	n/a	6	6	FLAG	n/a	FLAG	FOOT	1	[0, 0, 0]	-999	PAL1	1	R1230J
367.633	0.0	1615692	ENCODING_END	n/a	n/a	-999	-999	n/a	n/a	n/a	n/a	1	[0, 0, 0]	-999	PAL1	1	R1230J
367.633	0.001	1615692	MATH_START	n/a	n/a	-999	-999	n/a	n/a	n/a	n/a	1	[0, 0, 0]	-999	PAL1	1	R1230J
367.634	0.016	1615693	START	n/a	n/a	-999	-999	n/a	n/a	n/a	n/a	1	[-999, -999, -999]	-999	PAL1	1	R1230J
367.65	3.367	1615709	PROB	3346.0	n/a	-999	-999	n/a	n/a	n/a	n/a	1	[8, 6, 4]	18	PAL1	1	R1230J
371.017	3.217	1619076	PROB	3186.0	n/a	-999	-999	n/a	n/a	n/a	n/a	1	[7, 1, 2]	10	PAL1	1	R1230J
374.234	4.167	1622293	PROB	4130.0	n/a	-999	-999	n/a	n/a	n/a	n/a	1	[6, 1, 2]	9	PAL1	1	R1230J
378.401	3.051	1626460	PROB	3026.0	n/a	-999	-999	n/a	n/a	n/a	n/a	1	[9, 8, 2]	19	PAL1	1	R1230J
381.452	3.783	1629511	PROB	3752.0	n/a	-999	-999	n/a	n/a	n/a	n/a	1	[5, 6, 1]	12	PAL1	1	R1230J
385.235	2.351	1633294	PROB	2313.0	n/a	-999	-999	n/a	n/a	n/a	n/a	1	[1, 4, 5]	10	PAL1	1	R1230J
387.586	3.512	1635645	PROB	3512.0	n/a	-999	-999	n/a	n/a	n/a	n/a	1	[7, 9, 8]	24	PAL1	1	R1230J
391.098	0.005	1639157	STOP	n/a	n/a	-999	-999	n/a	n/a	n/a	n/a	1	[-999, -999, -999]	-999	PAL1	1	R1230J
391.103	0.0	1639162	MATH_END	n/a	n/a	-999	-999	n/a	n/a	n/a	n/a	1	[0, 0, 0]	-999	PAL1	1	R1230J
391.103	0.017	1639162	RECALL_START	n/a	n/a	-999	-999	n/a	n/a	n/a	n/a	1	[0, 0, 0]	-999	PAL1	1	R1230J
391.12	0.266	1639179	TEST_ORIENT	n/a	n/a	1	1	ROOT	CAMEL	SHOE	ROOT	1	[0, 0, 0]	-999	PAL1	1	R1230J
391.386	0.634	1639445	RETRIEVAL_ORIENT_OFF	n/a	n/a	-999	-999	n/a	n/a	n/a	n/a	1	[0, 0, 0]	-999	PAL1	1	R1230J
392.02	4.0	1640079	TEST_PROBE	n/a	wordpools/wordpool_EN.txt	1	1	ROOT	CAMEL	SHOE	ROOT	1	[0, 0, 0]	-999	PAL1	1	R1230J
392.02	2.787	1640079	REC_START	n/a	n/a	1	-999	n/a	CAMEL	n/a	n/a	1	[0, 0, 0]	-999	PAL1	1	R1230J
394.807	1.23	1642866	REC_EVENT	2787.0	n/a	1	1	ROOT	CAMEL	SHOE	ROOT	1	[0, 0, 0]	-999	PAL1	1	R1230J
396.037	1.0	1644096	PROBE_OFF	n/a	n/a	1	-999	n/a	n/a	n/a	n/a	1	[0, 0, 0]	-999	PAL1	1	R1230J
397.037	0.017	1645096	REC_END	n/a	n/a	1	-999	n/a	n/a	n/a	n/a	1	[0, 0, 0]	-999	PAL1	1	R1230J
397.054	0.266	1645113	TEST_ORIENT	n/a	n/a	4	2	FOX	n/a	FOX	BROOM	1	[0, 0, 0]	-999	PAL1	1	R1230J
397.32	0.567	1645379	RETRIEVAL_ORIENT_OFF	n/a	n/a	1	-999	n/a	n/a	n/a	n/a	1	[0, 0, 0]	-999	PAL1	1	R1230J
397.887	4.0	1645946	TEST_PROBE	n/a	wordpools/wordpool_EN.txt	4	2	FOX	n/a	FOX	BROOM	1	[0, 0, 0]	-999	PAL1	1	R1230J
397.888	4.017	1645947	REC_START	n/a	n/a	4	-999	n/a	n/a	n/a	n/a	1	[0, 0, 0]	-999	PAL1	1	R1230J
401.905	1.01	1649964	PROBE_OFF	n/a	n/a	4	-999	n/a	n/a	n/a	n/a	1	[0, 0, 0]	-999	PAL1	1	R1230J
402.915	0.003	1650974	REC_EVENT	5027.0	n/a	4	2	FOX	<>	FOX	BROOM	1	[0, 0, 0]	-999	PAL1	1	R1230J
402.918	0.021	1650977	REC_END	n/a	n/a	4	-999	n/a	n/a	n/a	n/a	1	[0, 0, 0]	-999	PAL1	1	R1230J
402.939	0.265	1650998	TEST_ORIENT	n/a	n/a	5	3	ROPE	n/a	ROPE	FUDGE	1	[0, 0, 0]	-999	PAL1	1	R1230J
403.204	0.751	1651263	RETRIEVAL_ORIENT_OFF	n/a	n/a	4	-999	n/a	n/a	n/a	n/a	1	[0, 0, 0]	-999	PAL1	1	R1230J
403.955	4.0	1652014	TEST_PROBE	n/a	wordpools/wordpool_EN.txt	5	3	ROPE	n/a	ROPE	FUDGE	1	[0, 0, 0]	-999	PAL1	1	R1230J
403.955	4.017	1652014	REC_START	n/a	n/a	5	-999	n/a	n/a	n/a	n/a	1	[0, 0, 0]	-999	PAL1	1	R1230J
407.972	0.998	1656031	PROBE_OFF	n/a	n/a	5	-999	n/a	n/a	n/a	n/a	1	[0, 0, 0]	-999	PAL1	1	R1230J
408.97	0.002	1657029	REC_EVENT	5015.0	n/a	5	3	ROPE	<>	ROPE	FUDGE	1	[0, 0, 0]	-999	PAL1	1	R1230J
408.972	0.017	1657031	REC_END	n/a	n/a	5	-999	n/a	n/a	n/a	n/a	1	[0, 0, 0]	-999	PAL1	1	R1230J
408.989	0.266	1657048	TEST_ORIENT	n/a	n/a	2	4	OAR	n/a	OAR	SKUNK	1	[0, 0, 0]	-999	PAL1	1	R1230J
409.255	0.685	1657314	RETRIEVAL_ORIENT_OFF	n/a	n/a	5	-999	n/a	n/a	n/a	n/a	1	[0, 0, 0]	-999	PAL1	1	R1230J
409.94	4.0	1657999	TEST_PROBE	n/a	wordpools/wordpool_EN.txt	2	4	OAR	n/a	OAR	SKUNK	1	[0, 0, 0]	-999	PAL1	1	R1230J
409.941	4.015	1658000	REC_START	n/a	n/a	2	-999	n/a	n/a	n/a	n/a	1	[0, 0, 0]	-999	PAL1	1	R1230J
413.956	1.0	1662015	PROBE_OFF	n/a	n/a	2	-999	n/a	n/a	n/a	n/a	1	[0, 0, 0]	-999	PAL1	1	R1230J
414.956	0.0	1663015	REC_EVENT	5015.0	n/a	2	4	OAR	<>	OAR	SKUNK	1	[0, 0, 0]	-999	PAL1	1	R1230J
414.956	0.017	1663015	REC_END	n/a	n/a	2	-999	n/a	n/a	n/a	n/a	1	[0, 0, 0]	-999	PAL1	1	R1230J
414.973	0.266	1663032	TEST_ORIENT	n/a	n/a	3	5	SHRIMP	n/a	SHRIMP	CAVE	1	[0, 0, 0]	-999	PAL1	1	R1230J
415.239	0.767	1663298	RETRIEVAL_ORIENT_OFF	n/a	n/a	2	-999	n/a	n/a	n/a	n/a	1	[0, 0, 0]	-999	PAL1	1	R1230J
416.006	4.0	1664065	TEST_PROBE	n/a	wordpools/wordpool_EN.txt	3	5	SHRIMP	n/a	SHRIMP	CAVE	1	[0, 0, 0]	-999	PAL1	1	R1230J
416.007	4.016	1664066	REC_START	n/a	n/a	3	-999	n/a	n/a	n/a	n/a	1	[0, 0, 0]	-999	PAL1	1	R1230J
420.023	0.999	1668082	PROBE_OFF	n/a	n/a	3	-999	n/a	n/a	n/a	n/a	1	[0, 0, 0]	-999	PAL1	1	R1230J
421.022	0.001	1669081	REC_EVENT	5015.0	n/a	3	5	SHRIMP	<>	SHRIMP	CAVE	1	[0, 0, 0]	-999	PAL1	1	R1230J
421.023	0.017	1669082	REC_END	n/a	n/a	3	-999	n/a	n/a	n/a	n/a	1	[0, 0, 0]	-999	PAL1	1	R1230J
421.04	0.267	1669099	TEST_ORIENT	n/a	n/a	6	6	FLAG	n/a	FLAG	FOOT	1	[0, 0, 0]	-999	PAL1	1	R1230J
421.307	0.601	1669366	RETRIEVAL_ORIENT_OFF	n/a	n/a	3	-999	n/a	n/a	n/a	n/a	1	[0, 0, 0]	-999	PAL1	1	R1230J
421.908	4.0	1669967	TEST_PROBE	n/a	wordpools/wordpool_EN.txt	6	6	FLAG	n/a	FLAG	FOOT	1	[0, 0, 0]	-999	PAL1	1	R1230J
421.909	4.016	1669968	REC_START	n/a	n/a	6	-999	n/a	n/a	n/a	n/a	1	[0, 0, 0]	-999	PAL1	1	R1230J
425.925	0.999	1673984	PROBE_OFF	n/a	n/a	6	-999	n/a	n/a	n/a	n/a	1	[0, 0, 0]	-999	PAL1	1	R1230J
426.924	0.002	1674983	REC_EVENT	5015.0	n/a	6	6	FLAG	<>	FLAG	FOOT	1	[0, 0, 0]	-999	PAL1	1	R1230J
426.926	0.011	1674985	REC_END	n/a	n/a	6	-999	n/a	n/a	n/a	n/a	1	[0, 0, 0]	-999	PAL1	1	R1230J
426.937	3.973	1674996	RECALL_END	n/a	n/a	-999	-999	n/a	n/a	n/a	n/a	1	[0, 0, 0]	-999	PAL1	1	R1230J
430.91	10.928	1678969	TRIAL	n/a	n/a	-999	-999	n/a	n/a	n/a	n/a	2	[0, 0, 0]	-999	PAL1	1	R1230J
441.838	0.005	1689897	ENCODING_START	n/a	n/a	-999	-999	n/a	n/a	n/a	n/a	2	[0, 0, 0]	-999	PAL1	1	R1230J
441.843	0.267	1689902	STUDY_ORIENT	n/a	n/a	1	5	WHEEL	WAGON	WHEEL	WORLD	2	[0, 0, 0]	-999	PAL1	1	R1230J
442.11	0.667	1690169	STUDY_ORIENT_OFF	n/a	n/a	1	5	WHEEL	WAGON	WHEEL	WORLD	2	[0, 0, 0]	-999	PAL1	1	R1230J
442.777	4.0	1690836	STUDY_PAIR	n/a	wordpools/wordpool_EN.txt	1	5	WHEEL	WAGON	WHEEL	WORLD	2	[0, 0, 0]	-999	PAL1	1	R1230J
446.794	1.017	1694853	PAIR_OFF	n/a	n/a	1	5	WHEEL	WAGON	WHEEL	WORLD	2	[0, 0, 0]	-999	PAL1	1	R1230J
447.811	0.266	1695870	STUDY_ORIENT	n/a	n/a	2	6	SHEET	n/a	STORE	SHEET	2	[0, 0, 0]	-999	PAL1	1	R1230J
448.077	0.667	1696136	STUDY_ORIENT_OFF	n/a	n/a	2	6	SHEET	n/a	STORE	SHEET	2	[0, 0, 0]	-999	PAL1	1	R1230J
448.744	4.0	1696803	STUDY_PAIR	n/a	wordpools/wordpool_EN.txt	2	6	SHEET	n/a	STORE	SHEET	2	[0, 0, 0]	-999	PAL1	1	R1230J
452.762	1.016	1700821	PAIR_OFF	n/a	n/a	2	6	SHEET	n/a	STORE	SHEET	2	[0, 0, 0]	-999	PAL1	1	R1230J
453.778	0.267	1701837	STUDY_ORIENT	n/a	n/a	3	1	PURSE	n/a	PIG	PURSE	2	[0, 0, 0]	-999	PAL1	1	R1230J
454.045	0.666	1702104	STUDY_ORIENT_OFF	n/a	n/a	3	1	PURSE	n/a	PIG	PURSE	2	[0, 0, 0]	-999	PAL1	1	R1230J
454.711	4.0	1702770	STUDY_PAIR	n/a	wordpools/wordpool_EN.txt	3	1	PURSE	n/a	PIG	PURSE	2	[0, 0, 0]	-999	PAL1	1	R1230J
458.729	1.017	1706788	PAIR_OFF	n/a	n/a	3	1	PURSE	n/a	PIG	PURSE	2	[0, 0, 0]	-999	PAL1	1	R1230J
459.746	0.266	1707805	STUDY_ORIENT	n/a	n/a	4	2	FLOOR	n/a	FLOOR	KITE	2	[0, 0, 0]	-999	PAL1	1	R1230J
460.012	0.517	1708071	STUDY_ORIENT_OFF	n/a	n/a	4	2	FLOOR	n/a	FLOOR	KITE	2	[0, 0, 0]	-999	PAL1	1	R1230J
460.529	4.0	1708588	STUDY_PAIR	n/a	wordpools/wordpool_EN.txt	4	2	FLOOR	n/a	FLOOR	KITE	2	[0, 0, 0]	-999	PAL1	1	R1230J
464.546	1.017	1712605	PAIR_OFF	n/a	n/a	4	2	FLOOR	n/a	FLOOR	KITE	2	[0, 0, 0]	-999	PAL1	1	R1230J
465.563	0.267	1713622	STUDY_ORIENT	n/a	n/a	5	3	BARN	n/a	BARN	FRUIT	2	[0, 0, 0]	-999	PAL1	1	R1230J
465.83	0.683	1713889	STUDY_ORIENT_OFF	n/a	n/a	5	3	BARN	n/a	BARN	FRUIT	2	[0, 0, 0]	-999	PAL1	1	R1230J
466.513	4.0	1714572	STUDY_PAIR	n/a	wordpools/wordpool_EN.txt	5	3	BARN	n/a	BARN	FRUIT	2	[0, 0, 0]	-999	PAL1	1	R1230J
470.53	1.017	1718589	PAIR_OFF	n/a	n/a	5	3	BARN	n/a	BARN	FRUIT	2	[0, 0, 0]	-999	PAL1	1	R1230J
471.547	0.267	1719606	STUDY_ORIENT	n/a	n/a	6	4	TAIL	n/a	BOX	TAIL	2	[0, 0, 0]	-999	PAL1	1	R1230J
471.814	0.633	1719873	STUDY_ORIENT_OFF	n/a	n/a	6	4	TAIL	n/a	BOX	TAIL	2	[0, 0, 0]	-999	PAL1	1	R1230J
472.447	4.0	1720506	STUDY_PAIR	n/a	wordpools/wordpool_EN.txt	6	4	TAIL	n/a	BOX	TAIL	2	[0, 0, 0]	-999	PAL1	1	R1230J
476.464	1.001	1724523	PAIR_OFF	n/a	n/a	6	4	TAIL	n/a	BOX	TAIL	2	[0, 0, 0]	-999	PAL1	1	R1230J
477.465	0.0	1725524	ENCODING_END	n/a	n/a	-999	-999	n/a	n/a	n/a	n/a	2	[0, 0, 0]	-999	PAL1	1	R1230J
477.465	0.0	1725524	MATH_START	n/a	n/a	-999	-999	n/a	n/a	n/a	n/a	2	[0, 0, 0]	-999	PAL1	1	R1230J
477.465	0.016	1725524	START	n/a	n/a	-999	-999	n/a	n/a	n/a	n/a	2	[-999, -999, -999]	-999	PAL1	1	R1230J
477.481	3.834	1725540	PROB	3798.0	n/a	-999	-999	n/a	n/a	n/a	n/a	2	[8, 1, 4]	13	PAL1	1	R1230J
481.315	8.668	1729374	PROB	8645.0	n/a	-999	-999	n/a	n/a	n/a	n/a	2	[9, 6, 6]	21	PAL1	1	R1230J
489.983	3.334	1738042	PROB	3297.0	n/a	-999	-999	n/a	n/a	n/a	n/a	2	[5, 1, 9]	15	PAL1	1	R1230J
493.317	4.62	1741376	PROB	4620.0	n/a	-999	-999	n/a	n/a	n/a	n/a	2	[7, 8, 9]	24	PAL1	1	R1230J
497.937	0.014	1745996	STOP	n/a	n/a	-999	-999	n/a	n/a	n/a	n/a	2	[-999, -999, -999]	-999	PAL1	1	R1230J
497.951	0.0	1746010	MATH_END	n/a	n/a	-999	-999	n/a	n/a	n/a	n/a	2	[0, 0, 0]	-999	PAL1	1	R1230J
497.951	0.017	1746010	RECALL_START	n/a	n/a	-999	-999	n/a	n/a	n/a	n/a	2	[0, 0, 0]	-999	PAL1	1	R1230J
497.968	0.266	1746027	TEST_ORIENT	n/a	n/a	3	1	PURSE	n/a	PIG	PURSE	2	[0, 0, 0]	-999	PAL1	1	R1230J
498.234	0.584	1746293	RETRIEVAL_ORIENT_OFF	n/a	n/a	-999	-999	n/a	n/a	n/a	n/a	2	[0, 0, 0]	-999	PAL1	1	R1230J
498.818	0.0	1746877	REC_START	n/a	n/a	3	-999	n/a	n/a	n/a	n/a	2	[0, 0, 0]	-999	PAL1	1	R1230J
498.818	4.0	1746877	TEST_PROBE	n/a	wordpools/wordpool_EN.txt	3	1	PURSE	n/a	PIG	PURSE	2	[0, 0, 0]	-999	PAL1	1	R1230J
502.835	0.998	1750894	PROBE_OFF	n/a	n/a	3	-999	n/a	n/a	n/a	n/a	2	[0, 0, 0]	-999	PAL1	1	R1230J
503.833	0.002	1751892	REC_EVENT	5015.0	n/a	3	1	PURSE	<>	PIG	PURSE	2	[0, 0, 0]	-999	PAL1	1	R1230J
503.835	0.016	1751894	REC_END	n/a	n/a	3	-999	n/a	n/a	n/a	n/a	2	[0, 0, 0]	-999	PAL1	1	R1230J
503.851	0.267	1751910	TEST_ORIENT	n/a	n/a	4	2	FLOOR	n/a	FLOOR	KITE	2	[0, 0, 0]	-999	PAL1	1	R1230J
504.118	0.667	1752177	RETRIEVAL_ORIENT_OFF	n/a	n/a	3	-999	n/a	n/a	n/a	n/a	2	[0, 0, 0]	-999	PAL1	1	R1230J
504.785	4.0	1752844	TEST_PROBE	n/a	wordpools/wordpool_EN.txt	4	2	FLOOR	n/a	FLOOR	KITE	2	[0, 0, 0]	-999	PAL1	1	R1230J
504.785	4.017	1752844	REC_START	n/a	n/a	4	-999	n/a	n/a	n/a	n/a	2	[0, 0, 0]	-999	PAL1	1	R1230J
508.802	0.998	1756861	PROBE_OFF	n/a	n/a	4	-999	n/a	n/a	n/a	n/a	2	[0, 0, 0]	-999	PAL1	1	R1230J
509.8	0.002	1757859	REC_EVENT	5015.0	n/a	4	2	FLOOR	<>	FLOOR	KITE	2	[0, 0, 0]	-999	PAL1	1	R1230J
509.802	0.017	1757861	REC_END	n/a	n/a	4	-999	n/a	n/a	n/a	n/a	2	[0, 0, 0]	-999	PAL1	1	R1230J
509.819	0.267	1757878	TEST_ORIENT	n/a	n/a	5	3	BARN	n/a	BARN	FRUIT	2	[0, 0, 0]	-999	PAL1	1	R1230J
510.086	0.75	1758145	RETRIEVAL_ORIENT_OFF	n/a	n/a	4	-999	n/a	n/a	n/a	n/a	2	[0, 0, 0]	-999	PAL1	1	R1230J
510.836	4.0	1758895	TEST_PROBE	n/a	wordpools/wordpool_EN.txt	5	3	BARN	n/a	BARN	FRUIT	2	[0, 0, 0]	-999	PAL1	1	R1230J
510.837	4.016	1758896	REC_START	n/a	n/a	5	-999	n/a	n/a	n/a	n/a	2	[0, 0, 0]	-999	PAL1	1	R1230J
514.853	0.999	1762912	PROBE_OFF	n/a	n/a	5	-999	n/a	n/a	n/a	n/a	2	[0, 0, 0]	-999	PAL1	1	R1230J
515.852	0.001	1763911	REC_EVENT	5015.0	n/a	5	3	BARN	<>	BARN	FRUIT	2	[0, 0, 0]	-999	PAL1	1	R1230J
515.853	0.017	1763912	REC_END	n/a	n/a	5	-999	n/a	n/a	n/a	n/a	2	[0, 0, 0]	-999	PAL1	1	R1230J
515.87	0.266	1763929	TEST_ORIENT	n/a	n/a	6	4	TAIL	n/a	BOX	TAIL	2	[0, 0, 0]	-999	PAL1	1	R1230J
516.136	0.534	1764195	RETRIEVAL_ORIENT_OFF	n/a	n/a	5	-999	n/a	n/a	n/a	n/a	2	[0, 0, 0]	-999	PAL1	1	R1230J
516.67	4.0	1764729	TEST_PROBE	n/a	wordpools/wordpool_EN.txt	6	4	TAIL	n/a	BOX	TAIL	2	[0, 0, 0]	-999	PAL1	1	R1230J
516.67	4.017	1764729	REC_START	n/a	n/a	6	-999	n/a	n/a	n/a	n/a	2	[0, 0, 0]	-999	PAL1	1	R1230J
520.687	0.998	1768746	PROBE_OFF	n/a	n/a	6	-999	n/a	n/a	n/a	n/a	2	[0, 0, 0]	-999	PAL1	1	R1230J
521.685	0.002	1769744	REC_EVENT	5015.0	n/a	6	4	TAIL	<>	BOX	TAIL	2	[0, 0, 0]	-999	PAL1	1	R1230J
521.687	0.017	1769746	REC_END	n/a	n/a	6	-999	n/a	n/a	n/a	n/a	2	[0, 0, 0]	-999	PAL1	1	R1230J
521.704	0.267	1769763	TEST_ORIENT	n/a	n/a	1	5	WHEEL	WAGON	WHEEL	WORLD	2	[0, 0, 0]	-999	PAL1	1	R1230J
521.971	0.533	1770030	RETRIEVAL_ORIENT_OFF	n/a	n/a	6	-999	n/a	n/a	n/a	n/a	2	[0, 0, 0]	-999	PAL1	1	R1230J
522.504	4.0	1770563	TEST_PROBE	n/a	wordpools/wordpool_EN.txt	1	5	WHEEL	WAGON	WHEEL	WORLD	2	[0, 0, 0]	-999	PAL1	1	R1230J
522.505	1.505	1770564	REC_START	n/a	n/a	1	-999	n/a	WAGON	n/a	n/a	2	[0, 0, 0]	-999	PAL1	1	R1230J
524.01	2.511	1772069	REC_EVENT	1505.0	n/a	1	5	WHEEL	WAGON	WHEEL	WORLD	2	[0, 0, 0]	-999	PAL1	1	R1230J
526.521	1.0	1774580	PROBE_OFF	n/a	n/a	1	-999	n/a	n/a	n/a	n/a	2	[0, 0, 0]	-999	PAL1	1	R1230J
527.521	0.017	1775580	REC_END	n/a	n/a	1	-999	n/a	n/a	n/a	n/a	2	[0, 0, 0]	-999	PAL1	1	R1230J
527.538	0.267	1775597	TEST_ORIENT	n/a	n/a	2	6	SHEET	n/a	STORE	SHEET	2	[0, 0, 0]	-999	PAL1	1	R1230J
527.805	0.583	1775864	RETRIEVAL_ORIENT_OFF	n/a	n/a	1	-999	n/a	n/a	n/a	n/a	2	[0, 0, 0]	-999	PAL1	1	R1230J
528.388	4.0	1776447	TEST_PROBE	n/a	wordpools/wordpool_EN.txt	2	6	SHEET	n/a	STORE	SHEET	2	[0, 0, 0]	-999	PAL1	1	R1230J
528.388	4.017	1776447	REC_START	n/a	n/a	2	-999	n/a	n/a	n/a	n/a	2	[0, 0, 0]	-999	PAL1	1	R1230J
532.405	1.001	1780464	PROBE_OFF	n/a	n/a	2	-999	n/a	n/a	n/a	n/a	2	[0, 0, 0]	-999	PAL1	1	R1230J
533.406	0.003	1781465	REC_END	n/a	n/a	2	-999	n/a	n/a	n/a	n/a	2	[0, 0, 0]	-999	PAL1	1	R1230J
533.409	0.001	1781468	REC_EVENT	5021.0	n/a	2	6	SHEET	<>	STORE	SHEET	2	[0, 0, 0]	-999	PAL1	1	R1230J
533.41	3.979	1781469	RECALL_END	n/a	n/a	-999	-999	n/a	n/a	n/a	n/a	2	[0, 0, 0]	-999	PAL1	1	R1230J
537.389	10.929	1785448	TRIAL	n/a	n/a	-999	-999	n/a	n/a	n/a	n/a	3	[0, 0, 0]	-999	PAL1	1	R1230J
548.318	0.006	1796377	ENCODING_START	n/a	n/a	-999	-999	n/a	n/a	n/a	n/a	3	[0, 0, 0]	-999	PAL1	1	R1230J
548.324	0.267	1796383	STUDY_ORIENT	n/a	n/a	1	1	BAG	n/a	BAG	DESK	3	[0, 0, 0]	-999	PAL1	1	R1230J
548.591	0.534	1796650	STUDY_ORIENT_OFF	n/a	n/a	1	1	BAG	n/a	BAG	DESK	3	[0, 0, 0]	-999	PAL1	1	R1230J
549.125	4.0	1797184	STUDY_PAIR	n/a	wordpools/wordpool_EN.txt	1	1	BAG	n/a	BAG	DESK	3	[0, 0, 0]	-999	PAL1	1	R1230J
553.142	1.016	1801200	PAIR_OFF	n/a	n/a	1	1	BAG	n/a	BAG	DESK	3	[0, 0, 0]	-999	PAL1	1	R1230J
554.158	0.267	1802216	STUDY_ORIENT	n/a	n/a	2	4	TRUCK	n/a	TENT	TRUCK	3	[0, 0, 0]	-999	PAL1	1	R1230J
554.425	0.667	1802483	STUDY_ORIENT_OFF	n/a	n/a	2	4	TRUCK	n/a	TENT	TRUCK	3	[0, 0, 0]	-999	PAL1	1	R1230J
555.092	4.0	1803150	STUDY_PAIR	n/a	wordpools/wordpool_EN.txt	2	4	TRUCK	n/a	TENT	TRUCK	3	[0, 0, 0]	-999	PAL1	1	R1230J
559.109	1.017	1807167	PAIR_OFF	n/a	n/a	2	4	TRUCK	n/a	TENT	TRUCK	3	[0, 0, 0]	-999	PAL1	1	R1230J
560.126	0.267	1808184	STUDY_ORIENT	n/a	n/a	3	3	TOAD	n/a	TOAD	ROSE	3	[0, 0, 0]	-999	PAL1	1	R1230J
560.393	0.616	1808451	STUDY_ORIENT_OFF	n/a	n/a	3	3	TOAD	n/a	TOAD	ROSE	3	[0, 0, 0]	-999	PAL1	1	R1230J
561.009	4.0	1809067	STUDY_PAIR	n/a	wordpools/wordpool_EN.txt	3	3	TOAD	n/a	TOAD	ROSE	3	[0, 0, 0]	-999	PAL1	1	R1230J
565.026	1.017	1813084	PAIR_OFF	n/a	n/a	3	3	TOAD	n/a	TOAD	ROSE	3	[0, 0, 0]	-999	PAL1	1	R1230J
566.043	0.267	1814101	STUDY_ORIENT	n/a	n/a	4	6	SEAL	n/a	SEAL	TEETH	3	[0, 0, 0]	-999	PAL1	1	R1230J
566.31	0.733	1814368	STUDY_ORIENT_OFF	n/a	n/a	4	6	SEAL	n/a	SEAL	TEETH	3	[0, 0, 0]	-999	PAL1	1	R1230J
567.043	4.0	1815101	STUDY_PAIR	n/a	wordpools/wordpool_EN.txt	4	6	SEAL	n/a	SEAL	TEETH	3	[0, 0, 0]	-999	PAL1	1	R1230J
571.061	1.017	1819119	PAIR_OFF	n/a	n/a	4	6	SEAL	n/a	SEAL	TEETH	3	[0, 0, 0]	-999	PAL1	1	R1230J
572.078	0.266	1820136	STUDY_ORIENT	n/a	n/a	5	5	WAVE	n/a	WAVE	HOUSE	3	[0, 0, 0]	-999	PAL1	1	R1230J
572.344	0.568	1820402	STUDY_ORIENT_OFF	n/a	n/a	5	5	WAVE	n/a	WAVE	HOUSE	3	[0, 0, 0]	-999	PAL1	1	R1230J
572.912	4.0	1820970	STUDY_PAIR	n/a	wordpools/wordpool_EN.txt	5	5	WAVE	n/a	WAVE	HOUSE	3	[0, 0, 0]	-999	PAL1	1	R1230J
576.929	1.017	1824987	PAIR_OFF	n/a	n/a	5	5	WAVE	n/a	WAVE	HOUSE	3	[0, 0, 0]	-999	PAL1	1	R1230J
577.946	0.266	1826004	STUDY_ORIENT	n/a	n/a	6	2	BRUSH	n/a	MUD	BRUSH	3	[0, 0, 0]	-999	PAL1	1	R1230J
578.212	0.717	1826270	STUDY_ORIENT_OFF	n/a	n/a	6	2	BRUSH	n/a	MUD	BRUSH	3	[0, 0, 0]	-999	PAL1	1	R1230J
578.929	4.0	1826987	STUDY_PAIR	n/a	wordpools/wordpool_EN.txt	6	2	BRUSH	n/a	MUD	BRUSH	3	[0, 0, 0]	-999	PAL1	1	R1230J
582.946	1.0	1831004	PAIR_OFF	n/a	n/a	6	2	BRUSH	n/a	MUD	BRUSH	3	[0, 0, 0]	-999	PAL1	1	R1230J
583.946	0.0	1832004	ENCODING_END	n/a	n/a	-999	-999	n/a	n/a	n/a	n/a	3	[0, 0, 0]	-999	PAL1	1	R1230J
583.946	0.0	1832004	MATH_START	n/a	n/a	-999	-999	n/a	n/a	n/a	n/a	3	[0, 0, 0]	-999	PAL1	1	R1230J
583.946	0.016	1832004	START	n/a	n/a	-999	-999	n/a	n/a	n/a	n/a	3	[-999, -999, -999]	-999	PAL1	1	R1230J
583.962	2.717	1832020	PROB	2690.0	n/a	-999	-999	n/a	n/a	n/a	n/a	3	[1, 7, 6]	14	PAL1	1	R1230J
586.679	2.401	1834737	PROB	2373.0	n/a	-999	-999	n/a	n/a	n/a	n/a	3	[3, 4, 3]	10	PAL1	1	R1230J
589.08	3.667	1837138	PROB	3635.0	n/a	-999	-999	n/a	n/a	n/a	n/a	3	[8, 7, 4]	19	PAL1	1	R1230J
592.747	2.083	1840805	PROB	2048.0	n/a	-999	-999	n/a	n/a	n/a	n/a	3	[5, 5, 6]	16	PAL1	1	R1230J
594.83	3.334	1842888	PROB	3309.0	n/a	-999	-999	n/a	n/a	n/a	n/a	3	[8, 7, 2]	17	PAL1	1	R1230J
598.164	3.884	1846222	PROB	3856.0	n/a	-999	-999	n/a	n/a	n/a	n/a	3	[6, 8, 4]	18	PAL1	1	R1230J
602.048	3.892	1850106	PROB	3892.0	n/a	-999	-999	n/a	n/a	n/a	n/a	3	[3, 5, 6]	14	PAL1	1	R1230J
605.94	0.009	1853998	STOP	n/a	n/a	-999	-999	n/a	n/a	n/a	n/a	3	[-999, -999, -999]	-999	PAL1	1	R1230J
605.949	0.0	1854007	MATH_END	n/a	n/a	-999	-999	n/a	n/a	n/a	n/a	3	[0, 0, 0]	-999	PAL1	1	R1230J
605.949	0.016	1854007	RECALL_START	n/a	n/a	-999	-999	n/a	n/a	n/a	n/a	3	[0, 0, 0]	-999	PAL1	1	R1230J
605.965	0.267	1854023	TEST_ORIENT	n/a	n/a	1	1	BAG	n/a	BAG	DESK	3	[0, 0, 0]	-999	PAL1	1	R1230J
606.232	0.65	1854290	RETRIEVAL_ORIENT_OFF	n/a	n/a	-999	-999	n/a	n/a	n/a	n/a	3	[0, 0, 0]	-999	PAL1	1	R1230J
606.882	4.0	1854940	TEST_PROBE	n/a	wordpools/wordpool_EN.txt	1	1	BAG	n/a	BAG	DESK	3	[0, 0, 0]	-999	PAL1	1	R1230J
606.883	4.017	1854941	REC_START	n/a	n/a	1	-999	n/a	n/a	n/a	n/a	3	[0, 0, 0]	-999	PAL1	1	R1230J
610.9	0.998	1858958	PROBE_OFF	n/a	n/a	1	-999	n/a	n/a	n/a	n/a	3	[0, 0, 0]	-999	PAL1	1	R1230J
611.898	0.002	1859956	REC_EVENT	5015.0	n/a	1	1	BAG	<>	BAG	DESK	3	[0, 0, 0]	-999	PAL1	1	R1230J
611.9	0.018	1859958	REC_END	n/a	n/a	1	-999	n/a	n/a	n/a	n/a	3	[0, 0, 0]	-999	PAL1	1	R1230J
611.918	0.265	1859976	TEST_ORIENT	n/a	n/a	6	2	BRUSH	n/a	MUD	BRUSH	3	[0, 0, 0]	-999	PAL1	1	R1230J
612.183	0.65	1860241	RETRIEVAL_ORIENT_OFF	n/a	n/a	1	-999	n/a	n/a	n/a	n/a	3	[0, 0, 0]	-999	PAL1	1	R1230J
612.833	4.0	1860891	TEST_PROBE	n/a	wordpools/wordpool_EN.txt	6	2	BRUSH	n/a	MUD	BRUSH	3	[0, 0, 0]	-999	PAL1	1	R1230J
612.834	4.016	1860892	REC_START	n/a	n/a	6	-999	n/a	n/a	n/a	n/a	3	[0, 0, 0]	-999	PAL1	1	R1230J
616.85	0.999	1864908	PROBE_OFF	n/a	n/a	6	-999	n/a	n/a	n/a	n/a	3	[0, 0, 0]	-999	PAL1	1	R1230J
617.849	0.001	1865907	REC_EVENT	5015.0	n/a	6	2	BRUSH	<>	MUD	BRUSH	3	[0, 0, 0]	-999	PAL1	1	R1230J
617.85	0.017	1865908	REC_END	n/a	n/a	6	-999	n/a	n/a	n/a	n/a	3	[0, 0, 0]	-999	PAL1	1	R1230J
617.867	0.267	1865925	TEST_ORIENT	n/a	n/a	3	3	TOAD	n/a	TOAD	ROSE	3	[0, 0, 0]	-999	PAL1	1	R1230J
618.134	0.55	1866192	RETRIEVAL_ORIENT_OFF	n/a	n/a	6	-999	n/a	n/a	n/a	n/a	3	[0, 0, 0]	-999	PAL1	1	R1230J
618.684	0.0	1866742	REC_START	n/a	n/a	3	-999	n/a	n/a	n/a	n/a	3	[0, 0, 0]	-999	PAL1	1	R1230J
618.684	4.0	1866742	TEST_PROBE	n/a	wordpools/wordpool_EN.txt	3	3	TOAD	n/a	TOAD	ROSE	3	[0, 0, 0]	-999	PAL1	1	R1230J
622.701	0.998	1870759	PROBE_OFF	n/a	n/a	3	-999	n/a	n/a	n/a	n/a	3	[0, 0, 0]	-999	PAL1	1	R1230J
623.699	0.002	1871757	REC_EVENT	5015.0	n/a	3	3	TOAD	<>	TOAD	ROSE	3	[0, 0, 0]	-999	PAL1	1	R1230J
623.701	0.017	1871759	REC_END	n/a	n/a	3	-999	n/a	n/a	n/a	n/a	3	[0, 0, 0]	-999	PAL1	1	R1230J
623.718	0.266	1871776	TEST_ORIENT	n/a	n/a	2	4	TRUCK	n/a	TENT	TRUCK	3	[0, 0, 0]	-999	PAL1	1	R1230J
623.984	0.65	1872042	RETRIEVAL_ORIENT_OFF	n/a	n/a	3	-999	n/a	n/a	n/a	n/a	3	[0, 0, 0]	-999	PAL1	1	R1230J
624.634	4.0	1872692	TEST_PROBE	n/a	wordpools/wordpool_EN.txt	2	4	TRUCK	n/a	TENT	TRUCK	3	[0, 0, 0]	-999	PAL1	1	R1230J
624.635	4.0	1872693	REC_START	n/a	n/a	2	-999	n/a	n/a	n/a	n/a	3	[0, 0, 0]	-999	PAL1	1	R1230J
628.635	0.998	1876693	PROBE_OFF	n/a	n/a	2	-999	n/a	n/a	n/a	n/a	3	[0, 0, 0]	-999	PAL1	1	R1230J
629.633	0.002	1877691	REC_EVENT	4998.0	n/a	2	4	TRUCK	<>	TENT	TRUCK	3	[0, 0, 0]	-999	PAL1	1	R1230J
629.635	0.017	1877693	REC_END	n/a	n/a	2	-999	n/a	n/a	n/a	n/a	3	[0, 0, 0]	-999	PAL1	1	R1230J
629.652	0.268	1877710	TEST_ORIENT	n/a	n/a	5	5	WAVE	n/a	WAVE	HOUSE	3	[0, 0, 0]	-999	PAL1	1	R1230J
629.92	0.649	1877978	RETRIEVAL_ORIENT_OFF	n/a	n/a	2	-999	n/a	n/a	n/a	n/a	3	[0, 0, 0]	-999	PAL1	1	R1230J
630.569	0.0	1878627	REC_START	n/a	n/a	5	-999	n/a	n/a	n/a	n/a	3	[0, 0, 0]	-999	PAL1	1	R1230J
630.569	4.0	1878627	TEST_PROBE	n/a	wordpools/wordpool_EN.txt	5	5	WAVE	n/a	WAVE	HOUSE	3	[0, 0, 0]	-999	PAL1	1	R1230J
634.586	0.998	1882644	PROBE_OFF	n/a	n/a	5	-999	n/a	n/a	n/a	n/a	3	[0, 0, 0]	-999	PAL1	1	R1230J
635.584	0.002	1883642	REC_EVENT	5015.0	n/a	5	5	WAVE	<>	WAVE	HOUSE	3	[0, 0, 0]	-999	PAL1	1	R1230J
635.586	0.016	1883644	REC_END	n/a	n/a	5	-999	n/a	n/a	n/a	n/a	3	[0, 0, 0]	-999	PAL1	1	R1230J
635.602	0.267	1883660	TEST_ORIENT	n/a	n/a	4	6	SEAL	n/a	SEAL	TEETH	3	[0, 0, 0]	-999	PAL1	1	R1230J
635.869	0.534	1883927	RETRIEVAL_ORIENT_OFF	n/a	n/a	5	-999	n/a	n/a	n/a	n/a	3	[0, 0, 0]	-999	PAL1	1	R1230J
636.403	4.0	1884461	TEST_PROBE	n/a	wordpools/wordpool_EN.txt	4	6	SEAL	n/a	SEAL	TEETH	3	[0, 0, 0]	-999	PAL1	1	R1230J
636.404	4.016	1884462	REC_START	n/a	n/a	4	-999	n/a	n/a	n/a	n/a	3	[0, 0, 0]	-999	PAL1	1	R1230J
640.42	0.999	1888478	PROBE_OFF	n/a	n/a	4	-999	n/a	n/a	n/a	n/a	3	[0, 0, 0]	-999	PAL1	1	R1230J
641.419	0.002	1889477	REC_EVENT	5015.0	n/a	4	6	SEAL	<>	SEAL	TEETH	3	[0, 0, 0]	-999	PAL1	1	R1230J
641.421	0.01	1889479	REC_END	n/a	n/a	4	-999	n/a	n/a	n/a	n/a	3	[0, 0, 0]	-999	PAL1	1	R1230J
641.431	3.906	1889489	RECALL_END	n/a	n/a	-999	-999	n/a	n/a	n/a	n/a	3	[0, 0, 0]	-999	PAL1	1	R1230J
645.337	10.928	1893395	TRIAL	n/a	n/a	-999	-999	n/a	n/a	n/a	n/a	4	[0, 0, 0]	-999	PAL1	1	R1230J
656.265	0.007	1904323	ENCODING_START	n/a	n/a	-999	-999	n/a	n/a	n/a	n/a	4	[0, 0, 0]	-999	PAL1	1	R1230J
656.272	0.267	1904330	STUDY_ORIENT	n/a	n/a	1	1	TRAIN	n/a	CUBE	TRAIN	4	[0, 0, 0]	-999	PAL1	1	R1230J
656.539	0.65	1904597	STUDY_ORIENT_OFF	n/a	n/a	1	1	TRAIN	n/a	CUBE	TRAIN	4	[0, 0, 0]	-999	PAL1	1	R1230J
657.189	4.0	1905247	STUDY_PAIR	n/a	wordpools/wordpool_EN.txt	1	1	TRAIN	n/a	CUBE	TRAIN	4	[0, 0, 0]	-999	PAL1	1	R1230J
661.206	1.017	1909264	PAIR_OFF	n/a	n/a	1	1	TRAIN	n/a	CUBE	TRAIN	4	[0, 0, 0]	-999	PAL1	1	R1230J
662.223	0.267	1910281	STUDY_ORIENT	n/a	n/a	2	6	VAN	n/a	VAN	PIT	4	[0, 0, 0]	-999	PAL1	1	R1230J
662.49	0.7	1910548	STUDY_ORIENT_OFF	n/a	n/a	2	6	VAN	n/a	VAN	PIT	4	[0, 0, 0]	-999	PAL1	1	R1230J
663.19	4.0	1911248	STUDY_PAIR	n/a	wordpools/wordpool_EN.txt	2	6	VAN	n/a	VAN	PIT	4	[0, 0, 0]	-999	PAL1	1	R1230J
667.207	1.017	1915265	PAIR_OFF	n/a	n/a	2	6	VAN	n/a	VAN	PIT	4	[0, 0, 0]	-999	PAL1	1	R1230J
668.224	0.267	1916282	STUDY_ORIENT	n/a	n/a	3	3	STRAW	n/a	DOCK	STRAW	4	[0, 0, 0]	-999	PAL1	1	R1230J
668.491	0.7	1916549	STUDY_ORIENT_OFF	n/a	n/a	3	3	STRAW	n/a	DOCK	STRAW	4	[0, 0, 0]	-999	PAL1	1	R1230J
669.191	4.0	1917249	STUDY_PAIR	n/a	wordpools/wordpool_EN.txt	3	3	STRAW	n/a	DOCK	STRAW	4	[0, 0, 0]	-999	PAL1	1	R1230J
673.208	1.017	1921266	PAIR_OFF	n/a	n/a	3	3	STRAW	n/a	DOCK	STRAW	4	[0, 0, 0]	-999	PAL1	1	R1230J
674.225	0.266	1922283	STUDY_ORIENT	n/a	n/a	4	4	OAK	n/a	BRANCH	OAK	4	[0, 0, 0]	-999	PAL1	1	R1230J
674.491	0.65	1922549	STUDY_ORIENT_OFF	n/a	n/a	4	4	OAK	n/a	BRANCH	OAK	4	[0, 0, 0]	-999	PAL1	1	R1230J
675.141	4.0	1923199	STUDY_PAIR	n/a	wordpools/wordpool_EN.txt	4	4	OAK	n/a	BRANCH	OAK	4	[0, 0, 0]	-999	PAL1	1	R1230J
679.142	1.017	1927200	PAIR_OFF	n/a	n/a	4	4	OAK	n/a	BRANCH	OAK	4	[0, 0, 0]	-999	PAL1	1	R1230J
680.159	0.267	1928217	STUDY_ORIENT	n/a	n/a	5	5	CLOTH	n/a	LAWN	CLOTH	4	[0, 0, 0]	-999	PAL1	1	R1230J
680.426	0.6	1928484	STUDY_ORIENT_OFF	n/a	n/a	5	5	CLOTH	n/a	LAWN	CLOTH	4	[0, 0, 0]	-999	PAL1	1	R1230J
681.026	4.0	1929084	STUDY_PAIR	n/a	wordpools/wordpool_EN.txt	5	5	CLOTH	n/a	LAWN	CLOTH	4	[0, 0, 0]	-999	PAL1	1	R1230J
685.043	1.017	1933101	PAIR_OFF	n/a	n/a	5	5	CLOTH	n/a	LAWN	CLOTH	4	[0, 0, 0]	-999	PAL1	1	R1230J
686.06	0.266	1934118	STUDY_ORIENT	n/a	n/a	6	2	FORT	n/a	LOCK	FORT	4	[0, 0, 0]	-999	PAL1	1	R1230J
686.326	0.534	1934384	STUDY_ORIENT_OFF	n/a	n/a	6	2	FORT	n/a	LOCK	FORT	4	[0, 0, 0]	-999	PAL1	1	R1230J
686.86	4.0	1934918	STUDY_PAIR	n/a	wordpools/wordpool_EN.txt	6	2	FORT	n/a	LOCK	FORT	4	[0, 0, 0]	-999	PAL1	1	R1230J
690.877	1.0	1938935	PAIR_OFF	n/a	n/a	6	2	FORT	n/a	LOCK	FORT	4	[0, 0, 0]	-999	PAL1	1	R1230J
691.877	0.0	1939935	ENCODING_END	n/a	n/a	-999	-999	n/a	n/a	n/a	n/a	4	[0, 0, 0]	-999	PAL1	1	R1230J
691.877	0.0	1939935	MATH_START	n/a	n/a	-999	-999	n/a	n/a	n/a	n/a	4	[0, 0, 0]	-999	PAL1	1	R1230J
691.877	0.017	1939935	START	n/a	n/a	-999	-999	n/a	n/a	n/a	n/a	4	[-999, -999, -999]	-999	PAL1	1	R1230J
691.894	3.883	1939952	PROB	3858.0	n/a	-999	-999	n/a	n/a	n/a	n/a	4	[3, 3, 2]	8	PAL1	1	R1230J
695.777	1.984	1943835	PROB	1959.0	n/a	-999	-999	n/a	n/a	n/a	n/a	4	[5, 1, 1]	7	PAL1	1	R1230J
697.761	3.467	1945819	PROB	3439.0	n/a	-999	-999	n/a	n/a	n/a	n/a	4	[5, 8, 7]	20	PAL1	1	R1230J
701.228	3.584	1949286	PROB	3548.0	n/a	-999	-999	n/a	n/a	n/a	n/a	4	[4, 9, 7]	20	PAL1	1	R1230J
704.812	2.534	1952870	PROB	2500.0	n/a	-999	-999	n/a	n/a	n/a	n/a	4	[2, 3, 8]	13	PAL1	1	R1230J
707.346	3.867	1955404	PROB	3830.0	n/a	-999	-999	n/a	n/a	n/a	n/a	4	[2, 7, 2]	11	PAL1	1	R1230J
711.213	3.594	1959271	PROB	3594.0	n/a	-999	-999	n/a	n/a	n/a	n/a	4	[5, 8, 1]	14	PAL1	1	R1230J
714.807	0.006	1962865	STOP	n/a	n/a	-999	-999	n/a	n/a	n/a	n/a	4	[-999, -999, -999]	-999	PAL1	1	R1230J
714.813	0.0	1962871	MATH_END	n/a	n/a	-999	-999	n/a	n/a	n/a	n/a	4	[0, 0, 0]	-999	PAL1	1	R1230J
714.813	0.017	1962871	RECALL_START	n/a	n/a	-999	-999	n/a	n/a	n/a	n/a	4	[0, 0, 0]	-999	PAL1	1	R1230J
714.83	0.267	1962888	TEST_ORIENT	n/a	n/a	1	1	TRAIN	n/a	CUBE	TRAIN	4	[0, 0, 0]	-999	PAL1	1	R1230J
715.097	0.583	1963155	RETRIEVAL_ORIENT_OFF	n/a	n/a	-999	-999	n/a	n/a	n/a	n/a	4	[0, 0, 0]	-999	PAL1	1	R1230J
715.68	4.0	1963738	TEST_PROBE	n/a	wordpools/wordpool_EN.txt	1	1	TRAIN	n/a	CUBE	TRAIN	4	[0, 0, 0]	-999	PAL1	1	R1230J
715.681	4.016	1963739	REC_START	n/a	n/a	1	-999	n/a	n/a	n/a	n/a	4	[0, 0, 0]	-999	PAL1	1	R1230J
719.697	1.0	1967755	PROBE_OFF	n/a	n/a	1	-999	n/a	n/a	n/a	n/a	4	[0, 0, 0]	-999	PAL1	1	R1230J
720.697	0.005	1968755	REC_END	n/a	n/a	1	-999	n/a	n/a	n/a	n/a	4	[0, 0, 0]	-999	PAL1	1	R1230J
720.702	0.012	1968760	REC_EVENT	5021.0	n/a	1	1	TRAIN	<>	CUBE	TRAIN	4	[0, 0, 0]	-999	PAL1	1	R1230J
720.714	0.267	1968772	TEST_ORIENT	n/a	n/a	6	2	FORT	n/a	LOCK	FORT	4	[0, 0, 0]	-999	PAL1	1	R1230J
720.981	0.633	1969039	RETRIEVAL_ORIENT_OFF	n/a	n/a	1	-999	n/a	n/a	n/a	n/a	4	[0, 0, 0]	-999	PAL1	1	R1230J
721.614	4.0	1969672	TEST_PROBE	n/a	wordpools/wordpool_EN.txt	6	2	FORT	n/a	LOCK	FORT	4	[0, 0, 0]	-999	PAL1	1	R1230J
721.615	4.017	1969673	REC_START	n/a	n/a	6	-999	n/a	n/a	n/a	n/a	4	[0, 0, 0]	-999	PAL1	1	R1230J
725.632	0.998	1973690	PROBE_OFF	n/a	n/a	6	-999	n/a	n/a	n/a	n/a	4	[0, 0, 0]	-999	PAL1	1	R1230J
726.63	0.003	1974688	REC_EVENT	5015.0	n/a	6	2	FORT	<>	LOCK	FORT	4	[0, 0, 0]	-999	PAL1	1	R1230J
726.633	0.015	1974691	REC_END	n/a	n/a	6	-999	n/a	n/a	n/a	n/a	4	[0, 0, 0]	-999	PAL1	1	R1230J
726.648	0.268	1974706	TEST_ORIENT	n/a	n/a	3	3	STRAW	n/a	DOCK	STRAW	4	[0, 0, 0]	-999	PAL1	1	R1230J
726.916	0.766	1974974	RETRIEVAL_ORIENT_OFF	n/a	n/a	6	-999	n/a	n/a	n/a	n/a	4	[0, 0, 0]	-999	PAL1	1	R1230J
727.682	4.0	1975740	TEST_PROBE	n/a	wordpools/wordpool_EN.txt	3	3	STRAW	n/a	DOCK	STRAW	4	[0, 0, 0]	-999	PAL1	1	R1230J
727.683	4.016	1975741	REC_START	n/a	n/a	3	-999	n/a	n/a	n/a	n/a	4	[0, 0, 0]	-999	PAL1	1	R1230J
731.699	0.999	1979757	PROBE_OFF	n/a	n/a	3	-999	n/a	n/a	n/a	n/a	4	[0, 0, 0]	-999	PAL1	1	R1230J
732.698	0.001	1980756	REC_EVENT	5015.0	n/a	3	3	STRAW	<>	DOCK	STRAW	4	[0, 0, 0]	-999	PAL1	1	R1230J
732.699	0.017	1980757	REC_END	n/a	n/a	3	-999	n/a	n/a	n/a	n/a	4	[0, 0, 0]	-999	PAL1	1	R1230J
732.716	0.267	1980774	TEST_ORIENT	n/a	n/a	4	4	OAK	n/a	BRANCH	OAK	4	[0, 0, 0]	-999	PAL1	1	R1230J
732.983	0.699	1981041	RETRIEVAL_ORIENT_OFF	n/a	n/a	3	-999	n/a	n/a	n/a	n/a	4	[0, 0, 0]	-999	PAL1	1	R1230J
733.682	4.0	1981740	TEST_PROBE	n/a	wordpools/wordpool_EN.txt	4	4	OAK	n/a	BRANCH	OAK	4	[0, 0, 0]	-999	PAL1	1	R1230J
733.683	4.017	1981741	REC_START	n/a	n/a	4	-999	n/a	n/a	n/a	n/a	4	[0, 0, 0]	-999	PAL1	1	R1230J
737.7	0.998	1985758	PROBE_OFF	n/a	n/a	4	-999	n/a	n/a	n/a	n/a	4	[0, 0, 0]	-999	PAL1	1	R1230J
738.698	0.002	1986756	REC_EVENT	5015.0	n/a	4	4	OAK	<>	BRANCH	OAK	4	[0, 0, 0]	-999	PAL1	1	R1230J
738.7	0.017	1986758	REC_END	n/a	n/a	4	-999	n/a	n/a	n/a	n/a	4	[0, 0, 0]	-999	PAL1	1	R1230J
738.717	0.266	1986775	TEST_ORIENT	n/a	n/a	5	5	CLOTH	n/a	LAWN	CLOTH	4	[0, 0, 0]	-999	PAL1	1	R1230J
738.983	0.651	1987041	RETRIEVAL_ORIENT_OFF	n/a	n/a	4	-999	n/a	n/a	n/a	n/a	4	[0, 0, 0]	-999	PAL1	1	R1230J
739.634	4.0	1987692	TEST_PROBE	n/a	wordpools/wordpool_EN.txt	5	5	CLOTH	n/a	LAWN	CLOTH	4	[0, 0, 0]	-999	PAL1	1	R1230J
739.634	4.016	1987692	REC_START	n/a	n/a	5	-999	n/a	n/a	n/a	n/a	4	[0, 0, 0]	-999	PAL1	1	R1230J
743.65	0.999	1991708	PROBE_OFF	n/a	n/a	5	-999	n/a	n/a	n/a	n/a	4	[0, 0, 0]	-999	PAL1	1	R1230J
744.649	0.001	1992707	REC_EVENT	5015.0	n/a	5	5	CLOTH	<>	LAWN	CLOTH	4	[0, 0, 0]	-999	PAL1	1	R1230J
744.65	0.017	1992708	REC_END	n/a	n/a	5	-999	n/a	n/a	n/a	n/a	4	[0, 0, 0]	-999	PAL1	1	R1230J
744.667	0.268	1992725	TEST_ORIENT	n/a	n/a	2	6	VAN	n/a	VAN	PIT	4	[0, 0, 0]	-999	PAL1	1	R1230J
744.935	0.749	1992993	RETRIEVAL_ORIENT_OFF	n/a	n/a	5	-999	n/a	n/a	n/a	n/a	4	[0, 0, 0]	-999	PAL1	1	R1230J
745.684	4.0	1993742	TEST_PROBE	n/a	wordpools/wordpool_EN.txt	2	6	VAN	n/a	VAN	PIT	4	[0, 0, 0]	-999	PAL1	1	R1230J
745.685	4.016	1993743	REC_START	n/a	n/a	2	-999	n/a	n/a	n/a	n/a	4	[0, 0, 0]	-999	PAL1	1	R1230J
749.701	0.999	1997759	PROBE_OFF	n/a	n/a	2	-999	n/a	n/a	n/a	n/a	4	[0, 0, 0]	-999	PAL1	1	R1230J
750.7	0.001	1998758	REC_EVENT	5015.0	n/a	2	6	VAN	<>	VAN	PIT	4	[0, 0, 0]	-999	PAL1	1	R1230J
750.701	0.011	1998759	REC_END	n/a	n/a	2	-999	n/a	n/a	n/a	n/a	4	[0, 0, 0]	-999	PAL1	1	R1230J
750.712	4.273	1998770	RECALL_END	n/a	n/a	-999	-999	n/a	n/a	n/a	n/a	4	[0, 0, 0]	-999	PAL1	1	R1230J
754.985	10.929	2003043	TRIAL	n/a	n/a	-999	-999	n/a	n/a	n/a	n/a	5	[0, 0, 0]	-999	PAL1	1	R1230J
765.914	0.007	2013972	ENCODING_START	n/a	n/a	-999	-999	n/a	n/a	n/a	n/a	5	[0, 0, 0]	-999	PAL1	1	R1230J
765.921	0.266	2013979	STUDY_ORIENT	n/a	n/a	1	3	STOOL	n/a	HOLE	STOOL	5	[0, 0, 0]	-999	PAL1	1	R1230J
766.187	0.734	2014245	STUDY_ORIENT_OFF	n/a	n/a	1	3	STOOL	n/a	HOLE	STOOL	5	[0, 0, 0]	-999	PAL1	1	R1230J
766.921	4.0	2014979	STUDY_PAIR	n/a	wordpools/wordpool_EN.txt	1	3	STOOL	n/a	HOLE	STOOL	5	[0, 0, 0]	-999	PAL1	1	R1230J
770.939	1.015	2018997	PAIR_OFF	n/a	n/a	1	3	STOOL	n/a	HOLE	STOOL	5	[0, 0, 0]	-999	PAL1	1	R1230J
771.954	0.267	2020011	STUDY_ORIENT	n/a	n/a	2	2	PET	n/a	PET	DOLL	5	[0, 0, 0]	-999	PAL1	1	R1230J
772.221	0.617	2020278	STUDY_ORIENT_OFF	n/a	n/a	2	2	PET	n/a	PET	DOLL	5	[0, 0, 0]	-999	PAL1	1	R1230J
772.838	4.0	2020895	STUDY_PAIR	n/a	wordpools/wordpool_EN.txt	2	2	PET	n/a	PET	DOLL	5	[0, 0, 0]	-999	PAL1	1	R1230J
776.855	1.017	2024912	PAIR_OFF	n/a	n/a	2	2	PET	n/a	PET	DOLL	5	[0, 0, 0]	-999	PAL1	1	R1230J
777.872	0.266	2025929	STUDY_ORIENT	n/a	n/a	3	1	ROOM	n/a	ROOM	SHEEP	5	[0, 0, 0]	-999	PAL1	1	R1230J
778.138	0.667	2026195	STUDY_ORIENT_OFF	n/a	n/a	3	1	ROOM	n/a	ROOM	SHEEP	5	[0, 0, 0]	-999	PAL1	1	R1230J
778.805	4.0	2026862	STUDY_PAIR	n/a	wordpools/wordpool_EN.txt	3	1	ROOM	n/a	ROOM	SHEEP	5	[0, 0, 0]	-999	PAL1	1	R1230J
782.822	1.017	2030879	PAIR_OFF	n/a	n/a	3	1	ROOM	n/a	ROOM	SHEEP	5	[0, 0, 0]	-999	PAL1	1	R1230J
783.839	0.267	2031896	STUDY_ORIENT	n/a	n/a	4	6	MOOSE	n/a	STAR	MOOSE	5	[0, 0, 0]	-999	PAL1	1	R1230J
784.106	0.667	2032163	STUDY_ORIENT_OFF	n/a	n/a	4	6	MOOSE	n/a	STAR	MOOSE	5	[0, 0, 0]	-999	PAL1	1	R1230J
784.773	4.0	2032830	STUDY_PAIR	n/a	wordpools/wordpool_EN.txt	4	6	MOOSE	n/a	STAR	MOOSE	5	[0, 0, 0]	-999	PAL1	1	R1230J
788.79	1.017	2036847	PAIR_OFF	n/a	n/a	4	6	MOOSE	n/a	STAR	MOOSE	5	[0, 0, 0]	-999	PAL1	1	R1230J
789.807	0.267	2037864	STUDY_ORIENT	n/a	n/a	5	5	EGG	n/a	MAIL	EGG	5	[0, 0, 0]	-999	PAL1	1	R1230J
790.074	0.767	2038131	STUDY_ORIENT_OFF	n/a	n/a	5	5	EGG	n/a	MAIL	EGG	5	[0, 0, 0]	-999	PAL1	1	R1230J
790.841	4.0	2038898	STUDY_PAIR	n/a	wordpools/wordpool_EN.txt	5	5	EGG	n/a	MAIL	EGG	5	[0, 0, 0]	-999	PAL1	1	R1230J
794.857	1.017	2042914	PAIR_OFF	n/a	n/a	5	5	EGG	n/a	MAIL	EGG	5	[0, 0, 0]	-999	PAL1	1	R1230J
795.874	0.267	2043931	STUDY_ORIENT	n/a	n/a	6	4	RIB	n/a	THREAD	RIB	5	[0, 0, 0]	-999	PAL1	1	R1230J
796.141	0.768	2044198	STUDY_ORIENT_OFF	n/a	n/a	6	4	RIB	n/a	THREAD	RIB	5	[0, 0, 0]	-999	PAL1	1	R1230J
796.909	4.0	2044966	STUDY_PAIR	n/a	wordpools/wordpool_EN.txt	6	4	RIB	n/a	THREAD	RIB	5	[0, 0, 0]	-999	PAL1	1	R1230J
800.926	1.0	2048983	PAIR_OFF	n/a	n/a	6	4	RIB	n/a	THREAD	RIB	5	[0, 0, 0]	-999	PAL1	1	R1230J
801.926	0.0	2049983	ENCODING_END	n/a	n/a	-999	-999	n/a	n/a	n/a	n/a	5	[0, 0, 0]	-999	PAL1	1	R1230J
801.926	0.0	2049983	MATH_START	n/a	n/a	-999	-999	n/a	n/a	n/a	n/a	5	[0, 0, 0]	-999	PAL1	1	R1230J
801.926	0.017	2049983	START	n/a	n/a	-999	-999	n/a	n/a	n/a	n/a	5	[-999, -999, -999]	-999	PAL1	1	R1230J
801.943	4.499	2050000	PROB	4478.0	n/a	-999	-999	n/a	n/a	n/a	n/a	5	[9, 4, 7]	20	PAL1	1	R1230J
806.442	2.502	2054499	PROB	2468.0	n/a	-999	-999	n/a	n/a	n/a	n/a	5	[5, 3, 5]	13	PAL1	1	R1230J
808.944	2.866	2057001	PROB	2845.0	n/a	-999	-999	n/a	n/a	n/a	n/a	5	[4, 1, 8]	13	PAL1	1	R1230J
811.81	4.65	2059867	PROB	4618.0	n/a	-999	-999	n/a	n/a	n/a	n/a	5	[6, 5, 4]	15	PAL1	1	R1230J
816.46	3.101	2064517	PROB	3064.0	n/a	-999	-999	n/a	n/a	n/a	n/a	5	[8, 6, 2]	16	PAL1	1	R1230J
819.561	5.979	2067618	PROB	5979.0	n/a	-999	-999	n/a	n/a	n/a	n/a	5	[2, 6, 8]	16	PAL1	1	R1230J
825.54	0.021	2073597	STOP	n/a	n/a	-999	-999	n/a	n/a	n/a	n/a	5	[-999, -999, -999]	-999	PAL1	1	R1230J
825.561	0.001	2073618	MATH_END	n/a	n/a	-999	-999	n/a	n/a	n/a	n/a	5	[0, 0, 0]	-999	PAL1	1	R1230J
825.562	0.016	2073619	RECALL_START	n/a	n/a	-999	-999	n/a	n/a	n/a	n/a	5	[0, 0, 0]	-999	PAL1	1	R1230J
825.578	0.267	2073635	TEST_ORIENT	n/a	n/a	3	1	ROOM	n/a	ROOM	SHEEP	5	[0, 0, 0]	-999	PAL1	1	R1230J
825.845	0.683	2073902	RETRIEVAL_ORIENT_OFF	n/a	n/a	-999	-999	n/a	n/a	n/a	n/a	5	[0, 0, 0]	-999	PAL1	1	R1230J
826.528	4.0	2074585	TEST_PROBE	n/a	wordpools/wordpool_EN.txt	3	1	ROOM	n/a	ROOM	SHEEP	5	[0, 0, 0]	-999	PAL1	1	R1230J
826.529	4.017	2074586	REC_START	n/a	n/a	3	-999	n/a	n/a	n/a	n/a	5	[0, 0, 0]	-999	PAL1	1	R1230J
830.546	1.0	2078603	PROBE_OFF	n/a	n/a	3	-999	n/a	n/a	n/a	n/a	5	[0, 0, 0]	-999	PAL1	1	R1230J
831.546	0.004	2079603	REC_END	n/a	n/a	3	-999	n/a	n/a	n/a	n/a	5	[0, 0, 0]	-999	PAL1	1	R1230J
831.55	0.012	2079607	REC_EVENT	5021.0	n/a	3	1	ROOM	<>	ROOM	SHEEP	5	[0, 0, 0]	-999	PAL1	1	R1230J
831.562	0.267	2079619	TEST_ORIENT	n/a	n/a	2	2	PET	n/a	PET	DOLL	5	[0, 0, 0]	-999	PAL1	1	R1230J
831.829	0.667	2079886	RETRIEVAL_ORIENT_OFF	n/a	n/a	3	-999	n/a	n/a	n/a	n/a	5	[0, 0, 0]	-999	PAL1	1	R1230J
832.496	4.0	2080553	TEST_PROBE	n/a	wordpools/wordpool_EN.txt	2	2	PET	n/a	PET	DOLL	5	[0, 0, 0]	-999	PAL1	1	R1230J
832.497	4.016	2080554	REC_START	n/a	n/a	2	-999	n/a	n/a	n/a	n/a	5	[0, 0, 0]	-999	PAL1	1	R1230J
836.513	1.0	2084570	PROBE_OFF	n/a	n/a	2	-999	n/a	n/a	n/a	n/a	5	[0, 0, 0]	-999	PAL1	1	R1230J
837.513	0.005	2085570	REC_END	n/a	n/a	2	-999	n/a	n/a	n/a	n/a	5	[0, 0, 0]	-999	PAL1	1	R1230J
837.518	0.012	2085575	REC_EVENT	5021.0	n/a	2	2	PET	<>	PET	DOLL	5	[0, 0, 0]	-999	PAL1	1	R1230J
837.53	0.266	2085587	TEST_ORIENT	n/a	n/a	1	3	STOOL	n/a	HOLE	STOOL	5	[0, 0, 0]	-999	PAL1	1	R1230J
837.796	0.567	2085853	RETRIEVAL_ORIENT_OFF	n/a	n/a	2	-999	n/a	n/a	n/a	n/a	5	[0, 0, 0]	-999	PAL1	1	R1230J
838.363	4.0	2086420	TEST_PROBE	n/a	wordpools/wordpool_EN.txt	1	3	STOOL	n/a	HOLE	STOOL	5	[0, 0, 0]	-999	PAL1	1	R1230J
838.364	4.016	2086421	REC_START	n/a	n/a	1	-999	n/a	n/a	n/a	n/a	5	[0, 0, 0]	-999	PAL1	1	R1230J
842.38	0.999	2090437	PROBE_OFF	n/a	n/a	1	-999	n/a	n/a	n/a	n/a	5	[0, 0, 0]	-999	PAL1	1	R1230J
843.379	0.001	2091436	REC_EVENT	5015.0	n/a	1	3	STOOL	<>	HOLE	STOOL	5	[0, 0, 0]	-999	PAL1	1	R1230J
843.38	0.017	2091437	REC_END	n/a	n/a	1	-999	n/a	n/a	n/a	n/a	5	[0, 0, 0]	-999	PAL1	1	R1230J
843.397	0.267	2091454	TEST_ORIENT	n/a	n/a	6	4	RIB	n/a	THREAD	RIB	5	[0, 0, 0]	-999	PAL1	1	R1230J
843.664	0.55	2091721	RETRIEVAL_ORIENT_OFF	n/a	n/a	1	-999	n/a	n/a	n/a	n/a	5	[0, 0, 0]	-999	PAL1	1	R1230J
844.214	4.0	2092271	TEST_PROBE	n/a	wordpools/wordpool_EN.txt	6	4	RIB	n/a	THREAD	RIB	5	[0, 0, 0]	-999	PAL1	1	R1230J
844.215	4.017	2092272	REC_START	n/a	n/a	6	-999	n/a	n/a	n/a	n/a	5	[0, 0, 0]	-999	PAL1	1	R1230J
848.232	1.01	2096289	PROBE_OFF	n/a	n/a	6	-999	n/a	n/a	n/a	n/a	5	[0, 0, 0]	-999	PAL1	1	R1230J
849.242	0.001	2097299	REC_EVENT	5027.0	n/a	6	4	RIB	<>	THREAD	RIB	5	[0, 0, 0]	-999	PAL1	1	R1230J
849.243	0.022	2097300	REC_END	n/a	n/a	6	-999	n/a	n/a	n/a	n/a	5	[0, 0, 0]	-999	PAL1	1	R1230J
849.265	0.267	2097322	TEST_ORIENT	n/a	n/a	5	5	EGG	n/a	MAIL	EGG	5	[0, 0, 0]	-999	PAL1	1	R1230J
849.532	0.6	2097589	RETRIEVAL_ORIENT_OFF	n/a	n/a	6	-999	n/a	n/a	n/a	n/a	5	[0, 0, 0]	-999	PAL1	1	R1230J
850.132	4.0	2098189	TEST_PROBE	n/a	wordpools/wordpool_EN.txt	5	5	EGG	n/a	MAIL	EGG	5	[0, 0, 0]	-999	PAL1	1	R1230J
850.133	4.016	2098190	REC_START	n/a	n/a	5	-999	n/a	n/a	n/a	n/a	5	[0, 0, 0]	-999	PAL1	1	R1230J
854.149	1.01	2102206	PROBE_OFF	n/a	n/a	5	-999	n/a	n/a	n/a	n/a	5	[0, 0, 0]	-999	PAL1	1	R1230J
855.159	0.001	2103216	REC_END	n/a	n/a	5	-999	n/a	n/a	n/a	n/a	5	[0, 0, 0]	-999	PAL1	1	R1230J
855.16	0.005	2103217	REC_EVENT	5027.0	n/a	5	5	EGG	<>	MAIL	EGG	5	[0, 0, 0]	-999	PAL1	1	R1230J
855.165	0.251	2103222	TEST_ORIENT	n/a	n/a	4	6	MOOSE	n/a	STAR	MOOSE	5	[0, 0, 0]	-999	PAL1	1	R1230J
855.416	0.733	2103473	RETRIEVAL_ORIENT_OFF	n/a	n/a	5	-999	n/a	n/a	n/a	n/a	5	[0, 0, 0]	-999	PAL1	1	R1230J
856.149	4.0	2104206	TEST_PROBE	n/a	wordpools/wordpool_EN.txt	4	6	MOOSE	n/a	STAR	MOOSE	5	[0, 0, 0]	-999	PAL1	1	R1230J
856.15	4.016	2104207	REC_START	n/a	n/a	4	-999	n/a	n/a	n/a	n/a	5	[0, 0, 0]	-999	PAL1	1	R1230J
860.166	0.999	2108223	PROBE_OFF	n/a	n/a	4	-999	n/a	n/a	n/a	n/a	5	[0, 0, 0]	-999	PAL1	1	R1230J
861.165	0.001	2109222	REC_EVENT	5015.0	n/a	4	6	MOOSE	<>	STAR	MOOSE	5	[0, 0, 0]	-999	PAL1	1	R1230J
861.166	0.01	2109223	REC_END	n/a	n/a	4	-999	n/a	n/a	n/a	n/a	5	[0, 0, 0]	-999	PAL1	1	R1230J
861.176	4.191	2109233	RECALL_END	n/a	n/a	-999	-999	n/a	n/a	n/a	n/a	5	[0, 0, 0]	-999	PAL1	1	R1230J
865.367	10.928	2113424	TRIAL	n/a	n/a	-999	-999	n/a	n/a	n/a	n/a	6	[0, 0, 0]	-999	PAL1	1	R1230J
876.295	0.007	2124352	ENCODING_START	n/a	n/a	-999	-999	n/a	n/a	n/a	n/a	6	[0, 0, 0]	-999	PAL1	1	R1230J
876.302	0.266	2124359	STUDY_ORIENT	n/a	n/a	1	1	NAIL	n/a	BADGE	NAIL	6	[0, 0, 0]	-999	PAL1	1	R1230J
876.568	0.717	2124625	STUDY_ORIENT_OFF	n/a	n/a	1	1	NAIL	n/a	BADGE	NAIL	6	[0, 0, 0]	-999	PAL1	1	R1230J
877.285	4.0	2125342	STUDY_PAIR	n/a	wordpools/wordpool_EN.txt	1	1	NAIL	n/a	BADGE	NAIL	6	[0, 0, 0]	-999	PAL1	1	R1230J
881.303	1.016	2129360	PAIR_OFF	n/a	n/a	1	1	NAIL	n/a	BADGE	NAIL	6	[0, 0, 0]	-999	PAL1	1	R1230J
882.319	0.267	2130376	STUDY_ORIENT	n/a	n/a	2	4	SLEEVE	n/a	SLEEVE	CHIN	6	[0, 0, 0]	-999	PAL1	1	R1230J
882.586	0.55	2130643	STUDY_ORIENT_OFF	n/a	n/a	2	4	SLEEVE	n/a	SLEEVE	CHIN	6	[0, 0, 0]	-999	PAL1	1	R1230J
883.136	4.0	2131193	STUDY_PAIR	n/a	wordpools/wordpool_EN.txt	2	4	SLEEVE	n/a	SLEEVE	CHIN	6	[0, 0, 0]	-999	PAL1	1	R1230J
887.153	1.017	2135210	PAIR_OFF	n/a	n/a	2	4	SLEEVE	n/a	SLEEVE	CHIN	6	[0, 0, 0]	-999	PAL1	1	R1230J
888.17	0.267	2136227	STUDY_ORIENT	n/a	n/a	3	5	BOWL	n/a	SNAKE	BOWL	6	[0, 0, 0]	-999	PAL1	1	R1230J
888.437	0.683	2136494	STUDY_ORIENT_OFF	n/a	n/a	3	5	BOWL	n/a	SNAKE	BOWL	6	[0, 0, 0]	-999	PAL1	1	R1230J
889.12	4.0	2137177	STUDY_PAIR	n/a	wordpools/wordpool_EN.txt	3	5	BOWL	n/a	SNAKE	BOWL	6	[0, 0, 0]	-999	PAL1	1	R1230J
893.137	1.017	2141194	PAIR_OFF	n/a	n/a	3	5	BOWL	n/a	SNAKE	BOWL	6	[0, 0, 0]	-999	PAL1	1	R1230J
894.154	0.267	2142211	STUDY_ORIENT	n/a	n/a	4	2	SPOON	n/a	SPOON	CANE	6	[0, 0, 0]	-999	PAL1	1	R1230J
894.421	0.65	2142478	STUDY_ORIENT_OFF	n/a	n/a	4	2	SPOON	n/a	SPOON	CANE	6	[0, 0, 0]	-999	PAL1	1	R1230J
895.071	4.0	2143128	STUDY_PAIR	n/a	wordpools/wordpool_EN.txt	4	2	SPOON	n/a	SPOON	CANE	6	[0, 0, 0]	-999	PAL1	1	R1230J
899.088	1.017	2147145	PAIR_OFF	n/a	n/a	4	2	SPOON	n/a	SPOON	CANE	6	[0, 0, 0]	-999	PAL1	1	R1230J
900.105	0.266	2148162	STUDY_ORIENT	n/a	n/a	5	3	PEN	n/a	POLE	PEN	6	[0, 0, 0]	-999	PAL1	1	R1230J
900.371	0.552	2148428	STUDY_ORIENT_OFF	n/a	n/a	5	3	PEN	n/a	POLE	PEN	6	[0, 0, 0]	-999	PAL1	1	R1230J
900.923	4.0	2148980	STUDY_PAIR	n/a	wordpools/wordpool_EN.txt	5	3	PEN	n/a	POLE	PEN	6	[0, 0, 0]	-999	PAL1	1	R1230J
904.94	1.015	2152997	PAIR_OFF	n/a	n/a	5	3	PEN	n/a	POLE	PEN	6	[0, 0, 0]	-999	PAL1	1	R1230J
905.955	0.267	2154012	STUDY_ORIENT	n/a	n/a	6	6	ROOF	n/a	BED	ROOF	6	[0, 0, 0]	-999	PAL1	1	R1230J
906.222	0.584	2154279	STUDY_ORIENT_OFF	n/a	n/a	6	6	ROOF	n/a	BED	ROOF	6	[0, 0, 0]	-999	PAL1	1	R1230J
906.806	4.0	2154863	STUDY_PAIR	n/a	wordpools/wordpool_EN.txt	6	6	ROOF	n/a	BED	ROOF	6	[0, 0, 0]	-999	PAL1	1	R1230J
910.823	1.001	2158880	PAIR_OFF	n/a	n/a	6	6	ROOF	n/a	BED	ROOF	6	[0, 0, 0]	-999	PAL1	1	R1230J
911.824	0.0	2159881	MATH_START	n/a	n/a	-999	-999	n/a	n/a	n/a	n/a	6	[0, 0, 0]	-999	PAL1	1	R1230J
911.824	0.0	2159881	ENCODING_END	n/a	n/a	-999	-999	n/a	n/a	n/a	n/a	6	[0, 0, 0]	-999	PAL1	1	R1230J
911.824	0.016	2159881	START	n/a	n/a	-999	-999	n/a	n/a	n/a	n/a	6	[-999, -999, -999]	-999	PAL1	1	R1230J
911.84	3.65	2159897	PROB	3624.0	n/a	-999	-999	n/a	n/a	n/a	n/a	6	[4, 7, 6]	17	PAL1	1	R1230J
915.49	3.084	2163547	PROB	3046.0	n/a	-999	-999	n/a	n/a	n/a	n/a	6	[6, 4, 4]	14	PAL1	1	R1230J
918.574	3.684	2166631	PROB	3651.0	n/a	-999	-999	n/a	n/a	n/a	n/a	6	[6, 6, 2]	14	PAL1	1	R1230J
922.258	3.167	2170315	PROB	3142.0	n/a	-999	-999	n/a	n/a	n/a	n/a	6	[4, 6, 9]	19	PAL1	1	R1230J
925.425	3.834	2173482	PROB	3807.0	n/a	-999	-999	n/a	n/a	n/a	n/a	6	[5, 7, 2]	14	PAL1	1	R1230J
929.259	2.773	2177316	PROB	2773.0	n/a	-999	-999	n/a	n/a	n/a	n/a	6	[8, 5, 4]	17	PAL1	1	R1230J
932.032	0.011	2180089	STOP	n/a	n/a	-999	-999	n/a	n/a	n/a	n/a	6	[-999, -999, -999]	-999	PAL1	1	R1230J
932.043	0.0	2180100	MATH_END	n/a	n/a	-999	-999	n/a	n/a	n/a	n/a	6	[0, 0, 0]	-999	PAL1	1	R1230J
932.043	0.016	2180100	RECALL_START	n/a	n/a	-999	-999	n/a	n/a	n/a	n/a	6	[0, 0, 0]	-999	PAL1	1	R1230J
932.059	0.267	2180116	TEST_ORIENT	n/a	n/a	1	1	NAIL	n/a	BADGE	NAIL	6	[0, 0, 0]	-999	PAL1	1	R1230J
932.326	0.683	2180383	RETRIEVAL_ORIENT_OFF	n/a	n/a	-999	-999	n/a	n/a	n/a	n/a	6	[0, 0, 0]	-999	PAL1	1	R1230J
933.009	4.0	2181066	TEST_PROBE	n/a	wordpools/wordpool_EN.txt	1	1	NAIL	n/a	BADGE	NAIL	6	[0, 0, 0]	-999	PAL1	1	R1230J
933.01	4.016	2181067	REC_START	n/a	n/a	1	-999	n/a	n/a	n/a	n/a	6	[0, 0, 0]	-999	PAL1	1	R1230J
937.026	0.999	2185083	PROBE_OFF	n/a	n/a	1	-999	n/a	n/a	n/a	n/a	6	[0, 0, 0]	-999	PAL1	1	R1230J
938.025	0.001	2186082	REC_EVENT	5015.0	n/a	1	1	NAIL	<>	BADGE	NAIL	6	[0, 0, 0]	-999	PAL1	1	R1230J
938.026	0.017	2186083	REC_END	n/a	n/a	1	-999	n/a	n/a	n/a	n/a	6	[0, 0, 0]	-999	PAL1	1	R1230J
938.043	0.267	2186100	TEST_ORIENT	n/a	n/a	4	2	SPOON	n/a	SPOON	CANE	6	[0, 0, 0]	-999	PAL1	1	R1230J
938.31	0.533	2186367	RETRIEVAL_ORIENT_OFF	n/a	n/a	1	-999	n/a	n/a	n/a	n/a	6	[0, 0, 0]	-999	PAL1	1	R1230J
938.843	4.0	2186900	TEST_PROBE	n/a	wordpools/wordpool_EN.txt	4	2	SPOON	n/a	SPOON	CANE	6	[0, 0, 0]	-999	PAL1	1	R1230J
938.844	4.017	2186901	REC_START	n/a	n/a	4	-999	n/a	n/a	n/a	n/a	6	[0, 0, 0]	-999	PAL1	1	R1230J
942.861	0.998	2190918	PROBE_OFF	n/a	n/a	4	-999	n/a	n/a	n/a	n/a	6	[0, 0, 0]	-999	PAL1	1	R1230J
943.859	0.002	2191916	REC_EVENT	5015.0	n/a	4	2	SPOON	<>	SPOON	CANE	6	[0, 0, 0]	-999	PAL1	1	R1230J
943.861	0.016	2191918	REC_END	n/a	n/a	4	-999	n/a	n/a	n/a	n/a	6	[0, 0, 0]	-999	PAL1	1	R1230J
943.877	0.267	2191934	TEST_ORIENT	n/a	n/a	5	3	PEN	n/a	POLE	PEN	6	[0, 0, 0]	-999	PAL1	1	R1230J
944.144	0.75	2192201	RETRIEVAL_ORIENT_OFF	n/a	n/a	4	-999	n/a	n/a	n/a	n/a	6	[0, 0, 0]	-999	PAL1	1	R1230J
944.894	4.0	2192951	TEST_PROBE	n/a	wordpools/wordpool_EN.txt	5	3	PEN	n/a	POLE	PEN	6	[0, 0, 0]	-999	PAL1	1	R1230J
944.895	4.017	2192952	REC_START	n/a	n/a	5	-999	n/a	n/a	n/a	n/a	6	[0, 0, 0]	-999	PAL1	1	R1230J
948.912	0.998	2196969	PROBE_OFF	n/a	n/a	5	-999	n/a	n/a	n/a	n/a	6	[0, 0, 0]	-999	PAL1	1	R1230J
949.91	0.003	2197967	REC_EVENT	5015.0	n/a	5	3	PEN	<>	POLE	PEN	6	[0, 0, 0]	-999	PAL1	1	R1230J
949.913	0.016	2197970	REC_END	n/a	n/a	5	-999	n/a	n/a	n/a	n/a	6	[0, 0, 0]	-999	PAL1	1	R1230J
949.929	0.266	2197986	TEST_ORIENT	n/a	n/a	2	4	SLEEVE	n/a	SLEEVE	CHIN	6	[0, 0, 0]	-999	PAL1	1	R1230J
950.195	0.65	2198252	RETRIEVAL_ORIENT_OFF	n/a	n/a	5	-999	n/a	n/a	n/a	n/a	6	[0, 0, 0]	-999	PAL1	1	R1230J
950.845	4.0	2198902	TEST_PROBE	n/a	wordpools/wordpool_EN.txt	2	4	SLEEVE	n/a	SLEEVE	CHIN	6	[0, 0, 0]	-999	PAL1	1	R1230J
950.845	4.017	2198902	REC_START	n/a	n/a	2	-999	n/a	n/a	n/a	n/a	6	[0, 0, 0]	-999	PAL1	1	R1230J
954.862	0.998	2202919	PROBE_OFF	n/a	n/a	2	-999	n/a	n/a	n/a	n/a	6	[0, 0, 0]	-999	PAL1	1	R1230J
955.86	0.002	2203917	REC_EVENT	5015.0	n/a	2	4	SLEEVE	<>	SLEEVE	CHIN	6	[0, 0, 0]	-999	PAL1	1	R1230J
955.862	0.017	2203919	REC_END	n/a	n/a	2	-999	n/a	n/a	n/a	n/a	6	[0, 0, 0]	-999	PAL1	1	R1230J
955.879	0.266	2203936	TEST_ORIENT	n/a	n/a	3	5	BOWL	n/a	SNAKE	BOWL	6	[0, 0, 0]	-999	PAL1	1	R1230J
956.145	0.75	2204202	RETRIEVAL_ORIENT_OFF	n/a	n/a	2	-999	n/a	n/a	n/a	n/a	6	[0, 0, 0]	-999	PAL1	1	R1230J
956.895	4.0	2204952	TEST_PROBE	n/a	wordpools/wordpool_EN.txt	3	5	BOWL	n/a	SNAKE	BOWL	6	[0, 0, 0]	-999	PAL1	1	R1230J
956.896	4.018	2204953	REC_START	n/a	n/a	3	-999	n/a	n/a	n/a	n/a	6	[0, 0, 0]	-999	PAL1	1	R1230J
960.914	0.997	2208971	PROBE_OFF	n/a	n/a	3	-999	n/a	n/a	n/a	n/a	6	[0, 0, 0]	-999	PAL1	1	R1230J
961.911	0.003	2209968	REC_EVENT	5015.0	n/a	3	5	BOWL	<>	SNAKE	BOWL	6	[0, 0, 0]	-999	PAL1	1	R1230J
961.914	0.017	2209971	REC_END	n/a	n/a	3	-999	n/a	n/a	n/a	n/a	6	[0, 0, 0]	-999	PAL1	1	R1230J
961.931	0.265	2209988	TEST_ORIENT	n/a	n/a	6	6	ROOF	n/a	BED	ROOF	6	[0, 0, 0]	-999	PAL1	1	R1230J
962.196	0.718	2210253	RETRIEVAL_ORIENT_OFF	n/a	n/a	3	-999	n/a	n/a	n/a	n/a	6	[0, 0, 0]	-999	PAL1	1	R1230J
962.914	4.0	2210971	TEST_PROBE	n/a	wordpools/wordpool_EN.txt	6	6	ROOF	n/a	BED	ROOF	6	[0, 0, 0]	-999	PAL1	1	R1230J
962.915	4.016	2210972	REC_START	n/a	n/a	6	-999	n/a	n/a	n/a	n/a	6	[0, 0, 0]	-999	PAL1	1	R1230J
966.931	0.999	2214988	PROBE_OFF	n/a	n/a	6	-999	n/a	n/a	n/a	n/a	6	[0, 0, 0]	-999	PAL1	1	R1230J
967.93	0.001	2215987	REC_EVENT	5015.0	n/a	6	6	ROOF	<>	BED	ROOF	6	[0, 0, 0]	-999	PAL1	1	R1230J
967.931	0.011	2215988	REC_END	n/a	n/a	6	-999	n/a	n/a	n/a	n/a	6	[0, 0, 0]	-999	PAL1	1	R1230J
967.942	4.523	2215999	RECALL_END	n/a	n/a	-999	-999	n/a	n/a	n/a	n/a	6	[0, 0, 0]	-999	PAL1	1	R1230J
972.465	10.929	2220522	TRIAL	n/a	n/a	-999	-999	n/a	n/a	n/a	n/a	7	[0, 0, 0]	-999	PAL1	1	R1230J
983.394	0.005	2231451	ENCODING_START	n/a	n/a	-999	-999	n/a	n/a	n/a	n/a	7	[0, 0, 0]	-999	PAL1	1	R1230J
983.399	0.267	2231456	STUDY_ORIENT	n/a	n/a	1	1	STEM	n/a	LAMB	STEM	7	[0, 0, 0]	-999	PAL1	1	R1230J
983.666	0.617	2231723	STUDY_ORIENT_OFF	n/a	n/a	1	1	STEM	n/a	LAMB	STEM	7	[0, 0, 0]	-999	PAL1	1	R1230J
984.283	4.0	2232340	STUDY_PAIR	n/a	wordpools/wordpool_EN.txt	1	1	STEM	n/a	LAMB	STEM	7	[0, 0, 0]	-999	PAL1	1	R1230J
988.3	1.017	2236357	PAIR_OFF	n/a	n/a	1	1	STEM	n/a	LAMB	STEM	7	[0, 0, 0]	-999	PAL1	1	R1230J
989.317	0.266	2237374	STUDY_ORIENT	n/a	n/a	2	4	COIN	n/a	BREAD	COIN	7	[0, 0, 0]	-999	PAL1	1	R1230J
989.583	0.701	2237640	STUDY_ORIENT_OFF	n/a	n/a	2	4	COIN	n/a	BREAD	COIN	7	[0, 0, 0]	-999	PAL1	1	R1230J
990.284	4.0	2238341	STUDY_PAIR	n/a	wordpools/wordpool_EN.txt	2	4	COIN	n/a	BREAD	COIN	7	[0, 0, 0]	-999	PAL1	1	R1230J
994.301	1.016	2242357	PAIR_OFF	n/a	n/a	2	4	COIN	n/a	BREAD	COIN	7	[0, 0, 0]	-999	PAL1	1	R1230J
995.317	0.267	2243373	STUDY_ORIENT	n/a	n/a	3	5	MAZE	n/a	CAKE	MAZE	7	[0, 0, 0]	-999	PAL1	1	R1230J
995.584	0.65	2243640	STUDY_ORIENT_OFF	n/a	n/a	3	5	MAZE	n/a	CAKE	MAZE	7	[0, 0, 0]	-999	PAL1	1	R1230J
996.234	4.0	2244290	STUDY_PAIR	n/a	wordpools/wordpool_EN.txt	3	5	MAZE	n/a	CAKE	MAZE	7	[0, 0, 0]	-999	PAL1	1	R1230J
1000.252	1.016	2248308	PAIR_OFF	n/a	n/a	3	5	MAZE	n/a	CAKE	MAZE	7	[0, 0, 0]	-999	PAL1	1	R1230J
1001.268	0.267	2249324	STUDY_ORIENT	n/a	n/a	4	2	BEAK	n/a	FROG	BEAK	7	[0, 0, 0]	-999	PAL1	1	R1230J
1001.535	0.65	2249591	STUDY_ORIENT_OFF	n/a	n/a	4	2	BEAK	n/a	FROG	BEAK	7	[0, 0, 0]	-999	PAL1	1	R1230J
1002.185	4.0	2250241	STUDY_PAIR	n/a	wordpools/wordpool_EN.txt	4	2	BEAK	n/a	FROG	BEAK	7	[0, 0, 0]	-999	PAL1	1	R1230J
1006.202	1.017	2254258	PAIR_OFF	n/a	n/a	4	2	BEAK	n/a	FROG	BEAK	7	[0, 0, 0]	-999	PAL1	1	R1230J
1007.219	0.267	2255275	STUDY_ORIENT	n/a	n/a	5	3	EAR	n/a	NET	EAR	7	[0, 0, 0]	-999	PAL1	1	R1230J
1007.486	0.566	2255542	STUDY_ORIENT_OFF	n/a	n/a	5	3	EAR	n/a	NET	EAR	7	[0, 0, 0]	-999	PAL1	1	R1230J
1008.052	4.0	2256108	STUDY_PAIR	n/a	wordpools/wordpool_EN.txt	5	3	EAR	n/a	NET	EAR	7	[0, 0, 0]	-999	PAL1	1	R1230J
1012.07	1.017	2260126	PAIR_OFF	n/a	n/a	5	3	EAR	n/a	NET	EAR	7	[0, 0, 0]	-999	PAL1	1	R1230J
1013.087	0.266	2261143	STUDY_ORIENT	n/a	n/a	6	6	SKY	n/a	SKY	WEED	7	[0, 0, 0]	-999	PAL1	1	R1230J
1013.353	0.75	2261409	STUDY_ORIENT_OFF	n/a	n/a	6	6	SKY	n/a	SKY	WEED	7	[0, 0, 0]	-999	PAL1	1	R1230J
1014.103	4.0	2262159	STUDY_PAIR	n/a	wordpools/wordpool_EN.txt	6	6	SKY	n/a	SKY	WEED	7	[0, 0, 0]	-999	PAL1	1	R1230J
1018.12	1.0	2266176	PAIR_OFF	n/a	n/a	6	6	SKY	n/a	SKY	WEED	7	[0, 0, 0]	-999	PAL1	1	R1230J
1019.12	0.0	2267176	ENCODING_END	n/a	n/a	-999	-999	n/a	n/a	n/a	n/a	7	[0, 0, 0]	-999	PAL1	1	R1230J
1019.12	0.0	2267176	MATH_START	n/a	n/a	-999	-999	n/a	n/a	n/a	n/a	7	[0, 0, 0]	-999	PAL1	1	R1230J
1019.12	0.017	2267176	START	n/a	n/a	-999	-999	n/a	n/a	n/a	n/a	7	[-999, -999, -999]	-999	PAL1	1	R1230J
1019.137	3.384	2267193	PROB	3356.0	n/a	-999	-999	n/a	n/a	n/a	n/a	7	[8, 7, 3]	18	PAL1	1	R1230J
1022.521	3.084	2270577	PROB	3059.0	n/a	-999	-999	n/a	n/a	n/a	n/a	7	[9, 9, 1]	19	PAL1	1	R1230J
1025.605	2.433	2273661	PROB	2407.0	n/a	-999	-999	n/a	n/a	n/a	n/a	7	[1, 2, 7]	10	PAL1	1	R1230J
1028.038	2.601	2276094	PROB	2566.0	n/a	-999	-999	n/a	n/a	n/a	n/a	7	[2, 4, 4]	10	PAL1	1	R1230J
1030.639	3.767	2278695	PROB	3741.0	n/a	-999	-999	n/a	n/a	n/a	n/a	7	[6, 2, 4]	12	PAL1	1	R1230J
1034.406	2.8	2282462	PROB	2774.0	n/a	-999	-999	n/a	n/a	n/a	n/a	7	[4, 9, 3]	16	PAL1	1	R1230J
1037.206	2.677	2285262	PROB	2677.0	n/a	-999	-999	n/a	n/a	n/a	n/a	7	[6, 5, 2]	13	PAL1	1	R1230J
1039.883	0.007	2287939	STOP	n/a	n/a	-999	-999	n/a	n/a	n/a	n/a	7	[-999, -999, -999]	-999	PAL1	1	R1230J
1039.89	0.0	2287946	MATH_END	n/a	n/a	-999	-999	n/a	n/a	n/a	n/a	7	[0, 0, 0]	-999	PAL1	1	R1230J
1039.89	0.018	2287946	RECALL_START	n/a	n/a	-999	-999	n/a	n/a	n/a	n/a	7	[0, 0, 0]	-999	PAL1	1	R1230J
1039.908	0.265	2287964	TEST_ORIENT	n/a	n/a	1	1	STEM	n/a	LAMB	STEM	7	[0, 0, 0]	-999	PAL1	1	R1230J
1040.173	0.667	2288229	RETRIEVAL_ORIENT_OFF	n/a	n/a	-999	-999	n/a	n/a	n/a	n/a	7	[0, 0, 0]	-999	PAL1	1	R1230J
1040.84	4.0	2288896	TEST_PROBE	n/a	wordpools/wordpool_EN.txt	1	1	STEM	n/a	LAMB	STEM	7	[0, 0, 0]	-999	PAL1	1	R1230J
1040.841	4.016	2288897	REC_START	n/a	n/a	1	-999	n/a	n/a	n/a	n/a	7	[0, 0, 0]	-999	PAL1	1	R1230J
1044.857	1.0	2292913	PROBE_OFF	n/a	n/a	1	-999	n/a	n/a	n/a	n/a	7	[0, 0, 0]	-999	PAL1	1	R1230J
1045.857	0.005	2293913	REC_END	n/a	n/a	1	-999	n/a	n/a	n/a	n/a	7	[0, 0, 0]	-999	PAL1	1	R1230J
1045.862	0.012	2293918	REC_EVENT	5021.0	n/a	1	1	STEM	<>	LAMB	STEM	7	[0, 0, 0]	-999	PAL1	1	R1230J
1045.874	0.267	2293930	TEST_ORIENT	n/a	n/a	4	2	BEAK	n/a	FROG	BEAK	7	[0, 0, 0]	-999	PAL1	1	R1230J
1046.141	0.616	2294197	RETRIEVAL_ORIENT_OFF	n/a	n/a	1	-999	n/a	n/a	n/a	n/a	7	[0, 0, 0]	-999	PAL1	1	R1230J
1046.757	4.0	2294813	TEST_PROBE	n/a	wordpools/wordpool_EN.txt	4	2	BEAK	n/a	FROG	BEAK	7	[0, 0, 0]	-999	PAL1	1	R1230J
1046.758	4.017	2294814	REC_START	n/a	n/a	4	-999	n/a	n/a	n/a	n/a	7	[0, 0, 0]	-999	PAL1	1	R1230J
1050.775	0.998	2298831	PROBE_OFF	n/a	n/a	4	-999	n/a	n/a	n/a	n/a	7	[0, 0, 0]	-999	PAL1	1	R1230J
1051.773	0.002	2299829	REC_EVENT	5015.0	n/a	4	2	BEAK	<>	FROG	BEAK	7	[0, 0, 0]	-999	PAL1	1	R1230J
1051.775	0.017	2299831	REC_END	n/a	n/a	4	-999	n/a	n/a	n/a	n/a	7	[0, 0, 0]	-999	PAL1	1	R1230J
1051.792	0.266	2299848	TEST_ORIENT	n/a	n/a	5	3	EAR	n/a	NET	EAR	7	[0, 0, 0]	-999	PAL1	1	R1230J
1052.058	0.734	2300114	RETRIEVAL_ORIENT_OFF	n/a	n/a	4	-999	n/a	n/a	n/a	n/a	7	[0, 0, 0]	-999	PAL1	1	R1230J
1052.792	4.0	2300848	TEST_PROBE	n/a	wordpools/wordpool_EN.txt	5	3	EAR	n/a	NET	EAR	7	[0, 0, 0]	-999	PAL1	1	R1230J
1052.792	4.017	2300848	REC_START	n/a	n/a	5	-999	n/a	n/a	n/a	n/a	7	[0, 0, 0]	-999	PAL1	1	R1230J
1056.809	0.998	2304865	PROBE_OFF	n/a	n/a	5	-999	n/a	n/a	n/a	n/a	7	[0, 0, 0]	-999	PAL1	1	R1230J
1057.807	0.002	2305863	REC_EVENT	5015.0	n/a	5	3	EAR	<>	NET	EAR	7	[0, 0, 0]	-999	PAL1	1	R1230J
1057.809	0.016	2305865	REC_END	n/a	n/a	5	-999	n/a	n/a	n/a	n/a	7	[0, 0, 0]	-999	PAL1	1	R1230J
1057.825	0.267	2305881	TEST_ORIENT	n/a	n/a	2	4	COIN	n/a	BREAD	COIN	7	[0, 0, 0]	-999	PAL1	1	R1230J
1058.092	0.6	2306148	RETRIEVAL_ORIENT_OFF	n/a	n/a	5	-999	n/a	n/a	n/a	n/a	7	[0, 0, 0]	-999	PAL1	1	R1230J
1058.692	4.0	2306748	TEST_PROBE	n/a	wordpools/wordpool_EN.txt	2	4	COIN	n/a	BREAD	COIN	7	[0, 0, 0]	-999	PAL1	1	R1230J
1058.693	4.017	2306749	REC_START	n/a	n/a	2	-999	n/a	n/a	n/a	n/a	7	[0, 0, 0]	-999	PAL1	1	R1230J
1062.71	0.998	2310766	PROBE_OFF	n/a	n/a	2	-999	n/a	n/a	n/a	n/a	7	[0, 0, 0]	-999	PAL1	1	R1230J
1063.708	0.002	2311764	REC_EVENT	5015.0	n/a	2	4	COIN	<>	BREAD	COIN	7	[0, 0, 0]	-999	PAL1	1	R1230J
1063.71	0.016	2311766	REC_END	n/a	n/a	2	-999	n/a	n/a	n/a	n/a	7	[0, 0, 0]	-999	PAL1	1	R1230J
1063.726	0.267	2311782	TEST_ORIENT	n/a	n/a	3	5	MAZE	n/a	CAKE	MAZE	7	[0, 0, 0]	-999	PAL1	1	R1230J
1063.993	0.55	2312049	RETRIEVAL_ORIENT_OFF	n/a	n/a	2	-999	n/a	n/a	n/a	n/a	7	[0, 0, 0]	-999	PAL1	1	R1230J
1064.543	4.0	2312599	TEST_PROBE	n/a	wordpools/wordpool_EN.txt	3	5	MAZE	n/a	CAKE	MAZE	7	[0, 0, 0]	-999	PAL1	1	R1230J
1064.544	4.016	2312600	REC_START	n/a	n/a	3	-999	n/a	n/a	n/a	n/a	7	[0, 0, 0]	-999	PAL1	1	R1230J
1068.56	0.999	2316616	PROBE_OFF	n/a	n/a	3	-999	n/a	n/a	n/a	n/a	7	[0, 0, 0]	-999	PAL1	1	R1230J
1069.559	0.001	2317615	REC_EVENT	5015.0	n/a	3	5	MAZE	<>	CAKE	MAZE	7	[0, 0, 0]	-999	PAL1	1	R1230J
1069.56	0.017	2317616	REC_END	n/a	n/a	3	-999	n/a	n/a	n/a	n/a	7	[0, 0, 0]	-999	PAL1	1	R1230J
1069.577	0.267	2317633	TEST_ORIENT	n/a	n/a	6	6	SKY	n/a	SKY	WEED	7	[0, 0, 0]	-999	PAL1	1	R1230J
1069.844	0.55	2317900	RETRIEVAL_ORIENT_OFF	n/a	n/a	3	-999	n/a	n/a	n/a	n/a	7	[0, 0, 0]	-999	PAL1	1	R1230J
1070.394	0.0	2318450	REC_START	n/a	n/a	6	-999	n/a	n/a	n/a	n/a	7	[0, 0, 0]	-999	PAL1	1	R1230J
1070.394	4.0	2318450	TEST_PROBE	n/a	wordpools/wordpool_EN.txt	6	6	SKY	n/a	SKY	WEED	7	[0, 0, 0]	-999	PAL1	1	R1230J
1074.411	0.998	2322467	PROBE_OFF	n/a	n/a	6	-999	n/a	n/a	n/a	n/a	7	[0, 0, 0]	-999	PAL1	1	R1230J
1075.409	0.002	2323465	REC_EVENT	5015.0	n/a	6	6	SKY	<>	SKY	WEED	7	[0, 0, 0]	-999	PAL1	1	R1230J
1075.411	0.005	2323467	REC_END	n/a	n/a	6	-999	n/a	n/a	n/a	n/a	7	[0, 0, 0]	-999	PAL1	1	R1230J
1075.416	8.646	2323472	RECALL_END	n/a	n/a	-999	-999	n/a	n/a	n/a	n/a	7	[0, 0, 0]	-999	PAL1	1	R1230J
1084.062	10.929	2332118	TRIAL	n/a	n/a	-999	-999	n/a	n/a	n/a	n/a	8	[0, 0, 0]	-999	PAL1	1	R1230J
1094.991	0.006	2343047	ENCODING_START	n/a	n/a	-999	-999	n/a	n/a	n/a	n/a	8	[0, 0, 0]	-999	PAL1	1	R1230J
1094.997	0.267	2343053	STUDY_ORIENT	n/a	n/a	1	1	BALL	n/a	BALL	HORSE	8	[0, 0, 0]	-999	PAL1	1	R1230J
1095.264	0.55	2343320	STUDY_ORIENT_OFF	n/a	n/a	1	1	BALL	n/a	BALL	HORSE	8	[0, 0, 0]	-999	PAL1	1	R1230J
1095.814	4.0	2343870	STUDY_PAIR	n/a	wordpools/wordpool_EN.txt	1	1	BALL	n/a	BALL	HORSE	8	[0, 0, 0]	-999	PAL1	1	R1230J
1099.831	1.017	2347887	PAIR_OFF	n/a	n/a	1	1	BALL	n/a	BALL	HORSE	8	[0, 0, 0]	-999	PAL1	1	R1230J
1100.848	0.267	2348904	STUDY_ORIENT	n/a	n/a	2	6	SWORD	n/a	SWORD	POND	8	[0, 0, 0]	-999	PAL1	1	R1230J
1101.115	0.533	2349171	STUDY_ORIENT_OFF	n/a	n/a	2	6	SWORD	n/a	SWORD	POND	8	[0, 0, 0]	-999	PAL1	1	R1230J
1101.648	4.0	2349704	STUDY_PAIR	n/a	wordpools/wordpool_EN.txt	2	6	SWORD	n/a	SWORD	POND	8	[0, 0, 0]	-999	PAL1	1	R1230J
1105.665	1.017	2353721	PAIR_OFF	n/a	n/a	2	6	SWORD	n/a	SWORD	POND	8	[0, 0, 0]	-999	PAL1	1	R1230J
1106.682	0.267	2354738	STUDY_ORIENT	n/a	n/a	3	3	ARM	n/a	ARM	CRANE	8	[0, 0, 0]	-999	PAL1	1	R1230J
1106.949	0.7	2355005	STUDY_ORIENT_OFF	n/a	n/a	3	3	ARM	n/a	ARM	CRANE	8	[0, 0, 0]	-999	PAL1	1	R1230J
1107.649	4.0	2355705	STUDY_PAIR	n/a	wordpools/wordpool_EN.txt	3	3	ARM	n/a	ARM	CRANE	8	[0, 0, 0]	-999	PAL1	1	R1230J
1111.666	1.017	2359722	PAIR_OFF	n/a	n/a	3	3	ARM	n/a	ARM	CRANE	8	[0, 0, 0]	-999	PAL1	1	R1230J
1112.683	0.267	2360739	STUDY_ORIENT	n/a	n/a	4	4	CLOUD	n/a	SPRING	CLOUD	8	[0, 0, 0]	-999	PAL1	1	R1230J
1112.95	0.666	2361006	STUDY_ORIENT_OFF	n/a	n/a	4	4	CLOUD	n/a	SPRING	CLOUD	8	[0, 0, 0]	-999	PAL1	1	R1230J
1113.616	4.0	2361672	STUDY_PAIR	n/a	wordpools/wordpool_EN.txt	4	4	CLOUD	n/a	SPRING	CLOUD	8	[0, 0, 0]	-999	PAL1	1	R1230J
1117.634	1.016	2365690	PAIR_OFF	n/a	n/a	4	4	CLOUD	n/a	SPRING	CLOUD	8	[0, 0, 0]	-999	PAL1	1	R1230J
1118.65	0.268	2366706	STUDY_ORIENT	n/a	n/a	5	5	FILM	n/a	SPONGE	FILM	8	[0, 0, 0]	-999	PAL1	1	R1230J
1118.918	0.599	2366974	STUDY_ORIENT_OFF	n/a	n/a	5	5	FILM	n/a	SPONGE	FILM	8	[0, 0, 0]	-999	PAL1	1	R1230J
1119.517	4.0	2367573	STUDY_PAIR	n/a	wordpools/wordpool_EN.txt	5	5	FILM	n/a	SPONGE	FILM	8	[0, 0, 0]	-999	PAL1	1	R1230J
1123.534	1.017	2371590	PAIR_OFF	n/a	n/a	5	5	FILM	n/a	SPONGE	FILM	8	[0, 0, 0]	-999	PAL1	1	R1230J
1124.551	0.267	2372607	STUDY_ORIENT	n/a	n/a	6	2	GATE	n/a	BENCH	GATE	8	[0, 0, 0]	-999	PAL1	1	R1230J
1124.818	0.55	2372874	STUDY_ORIENT_OFF	n/a	n/a	6	2	GATE	n/a	BENCH	GATE	8	[0, 0, 0]	-999	PAL1	1	R1230J
1125.368	4.0	2373424	STUDY_PAIR	n/a	wordpools/wordpool_EN.txt	6	2	GATE	n/a	BENCH	GATE	8	[0, 0, 0]	-999	PAL1	1	R1230J
1129.385	1.001	2377441	PAIR_OFF	n/a	n/a	6	2	GATE	n/a	BENCH	GATE	8	[0, 0, 0]	-999	PAL1	1	R1230J
1130.386	0.0	2378442	ENCODING_END	n/a	n/a	-999	-999	n/a	n/a	n/a	n/a	8	[0, 0, 0]	-999	PAL1	1	R1230J
1130.386	0.0	2378442	MATH_START	n/a	n/a	-999	-999	n/a	n/a	n/a	n/a	8	[0, 0, 0]	-999	PAL1	1	R1230J
1130.386	0.016	2378442	START	n/a	n/a	-999	-999	n/a	n/a	n/a	n/a	8	[-999, -999, -999]	-999	PAL1	1	R1230J
1130.402	4.883	2378458	PROB	4846.0	n/a	-999	-999	n/a	n/a	n/a	n/a	8	[7, 4, 3]	14	PAL1	1	R1230J
1135.285	2.734	2383341	PROB	2707.0	n/a	-999	-999	n/a	n/a	n/a	n/a	8	[4, 8, 3]	15	PAL1	1	R1230J
1138.019	4.601	2386075	PROB	4574.0	n/a	-999	-999	n/a	n/a	n/a	n/a	8	[6, 1, 7]	13	PAL1	1	R1230J
1142.62	7.552	2390676	PROB	7517.0	n/a	-999	-999	n/a	n/a	n/a	n/a	8	[4, 5, 8]	19	PAL1	1	R1230J
1150.172	2.932	2398228	PROB	2932.0	n/a	-999	-999	n/a	n/a	n/a	n/a	8	[1, 4, 3]	8	PAL1	1	R1230J
1153.104	0.018	2401160	STOP	n/a	n/a	-999	-999	n/a	n/a	n/a	n/a	8	[-999, -999, -999]	-999	PAL1	1	R1230J
1153.122	0.0	2401178	MATH_END	n/a	n/a	-999	-999	n/a	n/a	n/a	n/a	8	[0, 0, 0]	-999	PAL1	1	R1230J
1153.122	0.016	2401178	RECALL_START	n/a	n/a	-999	-999	n/a	n/a	n/a	n/a	8	[0, 0, 0]	-999	PAL1	1	R1230J
1153.138	0.267	2401194	TEST_ORIENT	n/a	n/a	1	1	BALL	n/a	BALL	HORSE	8	[0, 0, 0]	-999	PAL1	1	R1230J
1153.405	0.717	2401461	RETRIEVAL_ORIENT_OFF	n/a	n/a	-999	-999	n/a	n/a	n/a	n/a	8	[0, 0, 0]	-999	PAL1	1	R1230J
1154.122	4.0	2402178	TEST_PROBE	n/a	wordpools/wordpool_EN.txt	1	1	BALL	n/a	BALL	HORSE	8	[0, 0, 0]	-999	PAL1	1	R1230J
1154.123	4.016	2402179	REC_START	n/a	n/a	1	-999	n/a	n/a	n/a	n/a	8	[0, 0, 0]	-999	PAL1	1	R1230J
1158.139	0.999	2406195	PROBE_OFF	n/a	n/a	1	-999	n/a	n/a	n/a	n/a	8	[0, 0, 0]	-999	PAL1	1	R1230J
1159.138	0.001	2407194	REC_EVENT	5015.0	n/a	1	1	BALL	<>	BALL	HORSE	8	[0, 0, 0]	-999	PAL1	1	R1230J
1159.139	0.017	2407195	REC_END	n/a	n/a	1	-999	n/a	n/a	n/a	n/a	8	[0, 0, 0]	-999	PAL1	1	R1230J
1159.156	0.267	2407212	TEST_ORIENT	n/a	n/a	6	2	GATE	n/a	BENCH	GATE	8	[0, 0, 0]	-999	PAL1	1	R1230J
1159.423	0.6	2407479	RETRIEVAL_ORIENT_OFF	n/a	n/a	1	-999	n/a	n/a	n/a	n/a	8	[0, 0, 0]	-999	PAL1	1	R1230J
1160.023	4.0	2408079	TEST_PROBE	n/a	wordpools/wordpool_EN.txt	6	2	GATE	n/a	BENCH	GATE	8	[0, 0, 0]	-999	PAL1	1	R1230J
1160.023	4.017	2408079	REC_START	n/a	n/a	6	-999	n/a	n/a	n/a	n/a	8	[0, 0, 0]	-999	PAL1	1	R1230J
1164.04	0.998	2412096	PROBE_OFF	n/a	n/a	6	-999	n/a	n/a	n/a	n/a	8	[0, 0, 0]	-999	PAL1	1	R1230J
1165.038	0.003	2413094	REC_EVENT	5015.0	n/a	6	2	GATE	<>	BENCH	GATE	8	[0, 0, 0]	-999	PAL1	1	R1230J
1165.041	0.016	2413097	REC_END	n/a	n/a	6	-999	n/a	n/a	n/a	n/a	8	[0, 0, 0]	-999	PAL1	1	R1230J
1165.057	0.266	2413113	TEST_ORIENT	n/a	n/a	3	3	ARM	n/a	ARM	CRANE	8	[0, 0, 0]	-999	PAL1	1	R1230J
1165.323	0.585	2413379	RETRIEVAL_ORIENT_OFF	n/a	n/a	6	-999	n/a	n/a	n/a	n/a	8	[0, 0, 0]	-999	PAL1	1	R1230J
1165.908	4.0	2413964	TEST_PROBE	n/a	wordpools/wordpool_EN.txt	3	3	ARM	n/a	ARM	CRANE	8	[0, 0, 0]	-999	PAL1	1	R1230J
1165.908	4.017	2413964	REC_START	n/a	n/a	3	-999	n/a	n/a	n/a	n/a	8	[0, 0, 0]	-999	PAL1	1	R1230J
1169.925	0.998	2417981	PROBE_OFF	n/a	n/a	3	-999	n/a	n/a	n/a	n/a	8	[0, 0, 0]	-999	PAL1	1	R1230J
1170.923	0.002	2418979	REC_EVENT	5015.0	n/a	3	3	ARM	<>	ARM	CRANE	8	[0, 0, 0]	-999	PAL1	1	R1230J
1170.925	0.017	2418981	REC_END	n/a	n/a	3	-999	n/a	n/a	n/a	n/a	8	[0, 0, 0]	-999	PAL1	1	R1230J
1170.942	0.266	2418998	TEST_ORIENT	n/a	n/a	4	4	CLOUD	n/a	SPRING	CLOUD	8	[0, 0, 0]	-999	PAL1	1	R1230J
1171.208	0.717	2419264	RETRIEVAL_ORIENT_OFF	n/a	n/a	3	-999	n/a	n/a	n/a	n/a	8	[0, 0, 0]	-999	PAL1	1	R1230J
1171.925	4.0	2419981	TEST_PROBE	n/a	wordpools/wordpool_EN.txt	4	4	CLOUD	n/a	SPRING	CLOUD	8	[0, 0, 0]	-999	PAL1	1	R1230J
1171.926	4.016	2419982	REC_START	n/a	n/a	4	-999	n/a	n/a	n/a	n/a	8	[0, 0, 0]	-999	PAL1	1	R1230J
1175.942	1.001	2423998	PROBE_OFF	n/a	n/a	4	-999	n/a	n/a	n/a	n/a	8	[0, 0, 0]	-999	PAL1	1	R1230J
1176.943	0.004	2424999	REC_END	n/a	n/a	4	-999	n/a	n/a	n/a	n/a	8	[0, 0, 0]	-999	PAL1	1	R1230J
1176.947	0.011	2425003	REC_EVENT	5021.0	n/a	4	4	CLOUD	<>	SPRING	CLOUD	8	[0, 0, 0]	-999	PAL1	1	R1230J
1176.958	0.267	2425014	TEST_ORIENT	n/a	n/a	5	5	FILM	n/a	SPONGE	FILM	8	[0, 0, 0]	-999	PAL1	1	R1230J
1177.225	0.65	2425281	RETRIEVAL_ORIENT_OFF	n/a	n/a	4	-999	n/a	n/a	n/a	n/a	8	[0, 0, 0]	-999	PAL1	1	R1230J
1177.875	4.0	2425931	TEST_PROBE	n/a	wordpools/wordpool_EN.txt	5	5	FILM	n/a	SPONGE	FILM	8	[0, 0, 0]	-999	PAL1	1	R1230J
1177.876	4.016	2425932	REC_START	n/a	n/a	5	-999	n/a	n/a	n/a	n/a	8	[0, 0, 0]	-999	PAL1	1	R1230J
1181.892	0.999	2429948	PROBE_OFF	n/a	n/a	5	-999	n/a	n/a	n/a	n/a	8	[0, 0, 0]	-999	PAL1	1	R1230J
1182.891	0.001	2430947	REC_EVENT	5015.0	n/a	5	5	FILM	<>	SPONGE	FILM	8	[0, 0, 0]	-999	PAL1	1	R1230J
1182.892	0.018	2430948	REC_END	n/a	n/a	5	-999	n/a	n/a	n/a	n/a	8	[0, 0, 0]	-999	PAL1	1	R1230J
1182.91	0.266	2430966	TEST_ORIENT	n/a	n/a	2	6	SWORD	n/a	SWORD	POND	8	[0, 0, 0]	-999	PAL1	1	R1230J
1183.176	0.65	2431232	RETRIEVAL_ORIENT_OFF	n/a	n/a	5	-999	n/a	n/a	n/a	n/a	8	[0, 0, 0]	-999	PAL1	1	R1230J
1183.826	4.0	2431882	TEST_PROBE	n/a	wordpools/wordpool_EN.txt	2	6	SWORD	n/a	SWORD	POND	8	[0, 0, 0]	-999	PAL1	1	R1230J
1183.826	4.017	2431882	REC_START	n/a	n/a	2	-999	n/a	n/a	n/a	n/a	8	[0, 0, 0]	-999	PAL1	1	R1230J
1187.843	0.998	2435899	PROBE_OFF	n/a	n/a	2	-999	n/a	n/a	n/a	n/a	8	[0, 0, 0]	-999	PAL1	1	R1230J
1188.841	0.002	2436897	REC_EVENT	5015.0	n/a	2	6	SWORD	<>	SWORD	POND	8	[0, 0, 0]	-999	PAL1	1	R1230J
1188.843	0.005	2436899	REC_END	n/a	n/a	2	-999	n/a	n/a	n/a	n/a	8	[0, 0, 0]	-999	PAL1	1	R1230J
1188.848	4.479	2436904	RECALL_END	n/a	n/a	-999	-999	n/a	n/a	n/a	n/a	8	[0, 0, 0]	-999	PAL1	1	R1230J
1193.327	10.928	2441383	TRIAL	n/a	n/a	-999	-999	n/a	n/a	n/a	n/a	9	[0, 0, 0]	-999	PAL1	1	R1230J
1204.255	0.007	2452311	ENCODING_START	n/a	n/a	-999	-999	n/a	n/a	n/a	n/a	9	[0, 0, 0]	-999	PAL1	1	R1230J
1204.262	0.267	2452318	STUDY_ORIENT	n/a	n/a	1	3	CROW	n/a	CROW	RAT	9	[0, 0, 0]	-999	PAL1	1	R1230J
1204.529	0.616	2452585	STUDY_ORIENT_OFF	n/a	n/a	1	3	CROW	n/a	CROW	RAT	9	[0, 0, 0]	-999	PAL1	1	R1230J
1205.145	4.0	2453201	STUDY_PAIR	n/a	wordpools/wordpool_EN.txt	1	3	CROW	n/a	CROW	RAT	9	[0, 0, 0]	-999	PAL1	1	R1230J
1209.146	1.017	2457202	PAIR_OFF	n/a	n/a	1	3	CROW	n/a	CROW	RAT	9	[0, 0, 0]	-999	PAL1	1	R1230J
1210.163	0.267	2458219	STUDY_ORIENT	n/a	n/a	2	6	GEESE	n/a	GEESE	JUICE	9	[0, 0, 0]	-999	PAL1	1	R1230J
1210.43	0.55	2458486	STUDY_ORIENT_OFF	n/a	n/a	2	6	GEESE	n/a	GEESE	JUICE	9	[0, 0, 0]	-999	PAL1	1	R1230J
1210.98	4.0	2459035	STUDY_PAIR	n/a	wordpools/wordpool_EN.txt	2	6	GEESE	n/a	GEESE	JUICE	9	[0, 0, 0]	-999	PAL1	1	R1230J
1214.997	1.017	2463052	PAIR_OFF	n/a	n/a	2	6	GEESE	n/a	GEESE	JUICE	9	[0, 0, 0]	-999	PAL1	1	R1230J
1216.014	0.266	2464069	STUDY_ORIENT	n/a	n/a	3	5	MILK	n/a	MILK	WOOD	9	[0, 0, 0]	-999	PAL1	1	R1230J
1216.28	0.534	2464335	STUDY_ORIENT_OFF	n/a	n/a	3	5	MILK	n/a	MILK	WOOD	9	[0, 0, 0]	-999	PAL1	1	R1230J
1216.814	4.0	2464869	STUDY_PAIR	n/a	wordpools/wordpool_EN.txt	3	5	MILK	n/a	MILK	WOOD	9	[0, 0, 0]	-999	PAL1	1	R1230J
1220.831	1.017	2468886	PAIR_OFF	n/a	n/a	3	5	MILK	n/a	MILK	WOOD	9	[0, 0, 0]	-999	PAL1	1	R1230J
1221.848	0.267	2469903	STUDY_ORIENT	n/a	n/a	4	2	ELF	n/a	ELF	PEA	9	[0, 0, 0]	-999	PAL1	1	R1230J
1222.115	0.666	2470170	STUDY_ORIENT_OFF	n/a	n/a	4	2	ELF	n/a	ELF	PEA	9	[0, 0, 0]	-999	PAL1	1	R1230J
1222.781	4.0	2470836	STUDY_PAIR	n/a	wordpools/wordpool_EN.txt	4	2	ELF	n/a	ELF	PEA	9	[0, 0, 0]	-999	PAL1	1	R1230J
1226.798	1.017	2474853	PAIR_OFF	n/a	n/a	4	2	ELF	n/a	ELF	PEA	9	[0, 0, 0]	-999	PAL1	1	R1230J
1227.815	0.267	2475870	STUDY_ORIENT	n/a	n/a	5	1	JAIL	n/a	JAIL	PHONE	9	[0, 0, 0]	-999	PAL1	1	R1230J
1228.082	0.7	2476137	STUDY_ORIENT_OFF	n/a	n/a	5	1	JAIL	n/a	JAIL	PHONE	9	[0, 0, 0]	-999	PAL1	1	R1230J
1228.782	4.0	2476837	STUDY_PAIR	n/a	wordpools/wordpool_EN.txt	5	1	JAIL	n/a	JAIL	PHONE	9	[0, 0, 0]	-999	PAL1	1	R1230J
1232.799	1.017	2480854	PAIR_OFF	n/a	n/a	5	1	JAIL	n/a	JAIL	PHONE	9	[0, 0, 0]	-999	PAL1	1	R1230J
1233.816	0.266	2481871	STUDY_ORIENT	n/a	n/a	6	4	PLATE	n/a	TRAY	PLATE	9	[0, 0, 0]	-999	PAL1	1	R1230J
1234.082	0.534	2482137	STUDY_ORIENT_OFF	n/a	n/a	6	4	PLATE	n/a	TRAY	PLATE	9	[0, 0, 0]	-999	PAL1	1	R1230J
1234.616	4.0	2482671	STUDY_PAIR	n/a	wordpools/wordpool_EN.txt	6	4	PLATE	n/a	TRAY	PLATE	9	[0, 0, 0]	-999	PAL1	1	R1230J
1238.633	1.0	2486688	PAIR_OFF	n/a	n/a	6	4	PLATE	n/a	TRAY	PLATE	9	[0, 0, 0]	-999	PAL1	1	R1230J
1239.633	0.0	2487688	ENCODING_END	n/a	n/a	-999	-999	n/a	n/a	n/a	n/a	9	[0, 0, 0]	-999	PAL1	1	R1230J
1239.633	0.001	2487688	MATH_START	n/a	n/a	-999	-999	n/a	n/a	n/a	n/a	9	[0, 0, 0]	-999	PAL1	1	R1230J
1239.634	0.016	2487689	START	n/a	n/a	-999	-999	n/a	n/a	n/a	n/a	9	[-999, -999, -999]	-999	PAL1	1	R1230J
1239.65	3.351	2487705	PROB	3315.0	n/a	-999	-999	n/a	n/a	n/a	n/a	9	[3, 4, 3]	10	PAL1	1	R1230J
1243.001	1.983	2491056	PROB	1947.0	n/a	-999	-999	n/a	n/a	n/a	n/a	9	[3, 3, 3]	9	PAL1	1	R1230J
1244.984	3.467	2493039	PROB	3444.0	n/a	-999	-999	n/a	n/a	n/a	n/a	9	[6, 2, 7]	15	PAL1	1	R1230J
1248.451	3.084	2496506	PROB	3058.0	n/a	-999	-999	n/a	n/a	n/a	n/a	9	[2, 7, 4]	13	PAL1	1	R1230J
1251.535	4.55	2499590	PROB	4517.0	n/a	-999	-999	n/a	n/a	n/a	n/a	9	[8, 2, 6]	16	PAL1	1	R1230J
1256.085	2.684	2504140	PROB	2656.0	n/a	-999	-999	n/a	n/a	n/a	n/a	9	[5, 4, 1]	10	PAL1	1	R1230J
1258.769	2.963	2506824	PROB	2963.0	n/a	-999	-999	n/a	n/a	n/a	n/a	9	[7, 3, 5]	15	PAL1	1	R1230J
1261.732	0.021	2509787	STOP	n/a	n/a	-999	-999	n/a	n/a	n/a	n/a	9	[-999, -999, -999]	-999	PAL1	1	R1230J
1261.753	0.0	2509808	MATH_END	n/a	n/a	-999	-999	n/a	n/a	n/a	n/a	9	[0, 0, 0]	-999	PAL1	1	R1230J
1261.753	0.017	2509808	RECALL_START	n/a	n/a	-999	-999	n/a	n/a	n/a	n/a	9	[0, 0, 0]	-999	PAL1	1	R1230J
1261.77	0.266	2509825	TEST_ORIENT	n/a	n/a	5	1	JAIL	n/a	JAIL	PHONE	9	[0, 0, 0]	-999	PAL1	1	R1230J
1262.036	0.55	2510091	RETRIEVAL_ORIENT_OFF	n/a	n/a	-999	-999	n/a	n/a	n/a	n/a	9	[0, 0, 0]	-999	PAL1	1	R1230J
1262.586	4.0	2510641	TEST_PROBE	n/a	wordpools/wordpool_EN.txt	5	1	JAIL	n/a	JAIL	PHONE	9	[0, 0, 0]	-999	PAL1	1	R1230J
1262.587	3.79	2510642	REC_START	n/a	n/a	5	-999	n/a	n/a	n/a	n/a	9	[0, 0, 0]	-999	PAL1	1	R1230J
1266.377	0.227	2514432	REC_EVENT	3790.0	n/a	5	1	JAIL	<>	JAIL	PHONE	9	[0, 0, 0]	-999	PAL1	1	R1230J
1266.604	1.001	2514659	PROBE_OFF	n/a	n/a	5	-999	n/a	n/a	n/a	n/a	9	[0, 0, 0]	-999	PAL1	1	R1230J
1267.605	0.016	2515660	REC_END	n/a	n/a	5	-999	n/a	n/a	n/a	n/a	9	[0, 0, 0]	-999	PAL1	1	R1230J
1267.621	0.266	2515676	TEST_ORIENT	n/a	n/a	4	2	ELF	n/a	ELF	PEA	9	[0, 0, 0]	-999	PAL1	1	R1230J
1267.887	0.667	2515942	RETRIEVAL_ORIENT_OFF	n/a	n/a	5	-999	n/a	n/a	n/a	n/a	9	[0, 0, 0]	-999	PAL1	1	R1230J
1268.554	4.0	2516609	TEST_PROBE	n/a	wordpools/wordpool_EN.txt	4	2	ELF	n/a	ELF	PEA	9	[0, 0, 0]	-999	PAL1	1	R1230J
1268.555	3.04	2516610	REC_START	n/a	n/a	4	-999	n/a	n/a	n/a	n/a	9	[0, 0, 0]	-999	PAL1	1	R1230J
1271.595	0.976	2519650	REC_EVENT	3040.0	n/a	4	2	ELF	<>	ELF	PEA	9	[0, 0, 0]	-999	PAL1	1	R1230J
1272.571	1.001	2520626	PROBE_OFF	n/a	n/a	4	-999	n/a	n/a	n/a	n/a	9	[0, 0, 0]	-999	PAL1	1	R1230J
1273.572	0.016	2521627	REC_END	n/a	n/a	4	-999	n/a	n/a	n/a	n/a	9	[0, 0, 0]	-999	PAL1	1	R1230J
1273.588	0.267	2521643	TEST_ORIENT	n/a	n/a	1	3	CROW	n/a	CROW	RAT	9	[0, 0, 0]	-999	PAL1	1	R1230J
1273.855	0.6	2521910	RETRIEVAL_ORIENT_OFF	n/a	n/a	4	-999	n/a	n/a	n/a	n/a	9	[0, 0, 0]	-999	PAL1	1	R1230J
1274.455	4.0	2522510	TEST_PROBE	n/a	wordpools/wordpool_EN.txt	1	3	CROW	n/a	CROW	RAT	9	[0, 0, 0]	-999	PAL1	1	R1230J
1274.455	4.017	2522510	REC_START	n/a	n/a	1	-999	n/a	n/a	n/a	n/a	9	[0, 0, 0]	-999	PAL1	1	R1230J
1278.472	0.998	2526527	PROBE_OFF	n/a	n/a	1	-999	n/a	n/a	n/a	n/a	9	[0, 0, 0]	-999	PAL1	1	R1230J
1279.47	0.003	2527525	REC_EVENT	5015.0	n/a	1	3	CROW	<>	CROW	RAT	9	[0, 0, 0]	-999	PAL1	1	R1230J
1279.473	0.016	2527528	REC_END	n/a	n/a	1	-999	n/a	n/a	n/a	n/a	9	[0, 0, 0]	-999	PAL1	1	R1230J
1279.489	0.267	2527544	TEST_ORIENT	n/a	n/a	6	4	PLATE	n/a	TRAY	PLATE	9	[0, 0, 0]	-999	PAL1	1	R1230J
1279.756	0.583	2527811	RETRIEVAL_ORIENT_OFF	n/a	n/a	1	-999	n/a	n/a	n/a	n/a	9	[0, 0, 0]	-999	PAL1	1	R1230J
1280.339	4.0	2528394	TEST_PROBE	n/a	wordpools/wordpool_EN.txt	6	4	PLATE	n/a	TRAY	PLATE	9	[0, 0, 0]	-999	PAL1	1	R1230J
1280.34	4.016	2528395	REC_START	n/a	n/a	6	-999	n/a	n/a	n/a	n/a	9	[0, 0, 0]	-999	PAL1	1	R1230J
1284.356	0.999	2532411	PROBE_OFF	n/a	n/a	6	-999	n/a	n/a	n/a	n/a	9	[0, 0, 0]	-999	PAL1	1	R1230J
1285.355	0.001	2533410	REC_EVENT	5015.0	n/a	6	4	PLATE	<>	TRAY	PLATE	9	[0, 0, 0]	-999	PAL1	1	R1230J
1285.356	0.017	2533411	REC_END	n/a	n/a	6	-999	n/a	n/a	n/a	n/a	9	[0, 0, 0]	-999	PAL1	1	R1230J
1285.373	0.266	2533428	TEST_ORIENT	n/a	n/a	3	5	MILK	n/a	MILK	WOOD	9	[0, 0, 0]	-999	PAL1	1	R1230J
1285.639	0.584	2533694	RETRIEVAL_ORIENT_OFF	n/a	n/a	6	-999	n/a	n/a	n/a	n/a	9	[0, 0, 0]	-999	PAL1	1	R1230J
1286.223	4.0	2534278	TEST_PROBE	n/a	wordpools/wordpool_EN.txt	3	5	MILK	n/a	MILK	WOOD	9	[0, 0, 0]	-999	PAL1	1	R1230J
1286.224	4.016	2534279	REC_START	n/a	n/a	3	-999	n/a	n/a	n/a	n/a	9	[0, 0, 0]	-999	PAL1	1	R1230J
1290.24	0.999	2538295	PROBE_OFF	n/a	n/a	3	-999	n/a	n/a	n/a	n/a	9	[0, 0, 0]	-999	PAL1	1	R1230J
1291.239	0.001	2539294	REC_EVENT	5015.0	n/a	3	5	MILK	<>	MILK	WOOD	9	[0, 0, 0]	-999	PAL1	1	R1230J
1291.24	0.017	2539295	REC_END	n/a	n/a	3	-999	n/a	n/a	n/a	n/a	9	[0, 0, 0]	-999	PAL1	1	R1230J
1291.257	0.267	2539312	TEST_ORIENT	n/a	n/a	2	6	GEESE	n/a	GEESE	JUICE	9	[0, 0, 0]	-999	PAL1	1	R1230J
1291.524	0.516	2539579	RETRIEVAL_ORIENT_OFF	n/a	n/a	3	-999	n/a	n/a	n/a	n/a	9	[0, 0, 0]	-999	PAL1	1	R1230J
1292.04	4.0	2540095	TEST_PROBE	n/a	wordpools/wordpool_EN.txt	2	6	GEESE	n/a	GEESE	JUICE	9	[0, 0, 0]	-999	PAL1	1	R1230J
1292.041	4.017	2540096	REC_START	n/a	n/a	2	-999	n/a	n/a	n/a	n/a	9	[0, 0, 0]	-999	PAL1	1	R1230J
1296.058	0.998	2544113	PROBE_OFF	n/a	n/a	2	-999	n/a	n/a	n/a	n/a	9	[0, 0, 0]	-999	PAL1	1	R1230J
1297.056	0.002	2545111	REC_EVENT	5015.0	n/a	2	6	GEESE	<>	GEESE	JUICE	9	[0, 0, 0]	-999	PAL1	1	R1230J
1297.058	0.011	2545113	REC_END	n/a	n/a	2	-999	n/a	n/a	n/a	n/a	9	[0, 0, 0]	-999	PAL1	1	R1230J
1297.069	5.156	2545124	RECALL_END	n/a	n/a	-999	-999	n/a	n/a	n/a	n/a	9	[0, 0, 0]	-999	PAL1	1	R1230J
1302.225	10.928	2550280	TRIAL	n/a	n/a	-999	-999	n/a	n/a	n/a	n/a	10	[0, 0, 0]	-999	PAL1	1	R1230J
1313.153	0.007	2561208	ENCODING_START	n/a	n/a	-999	-999	n/a	n/a	n/a	n/a	10	[0, 0, 0]	-999	PAL1	1	R1230J
1313.16	0.266	2561215	STUDY_ORIENT	n/a	n/a	1	3	BAT	n/a	BAT	SEAT	10	[0, 0, 0]	-999	PAL1	1	R1230J
1313.426	0.667	2561481	STUDY_ORIENT_OFF	n/a	n/a	1	3	BAT	n/a	BAT	SEAT	10	[0, 0, 0]	-999	PAL1	1	R1230J
1314.093	4.0	2562148	STUDY_PAIR	n/a	wordpools/wordpool_EN.txt	1	3	BAT	n/a	BAT	SEAT	10	[0, 0, 0]	-999	PAL1	1	R1230J
1318.111	1.016	2566166	PAIR_OFF	n/a	n/a	1	3	BAT	n/a	BAT	SEAT	10	[0, 0, 0]	-999	PAL1	1	R1230J
1319.127	0.267	2567182	STUDY_ORIENT	n/a	n/a	2	6	SMOKE	n/a	BLUSH	SMOKE	10	[0, 0, 0]	-999	PAL1	1	R1230J
1319.394	0.667	2567449	STUDY_ORIENT_OFF	n/a	n/a	2	6	SMOKE	n/a	BLUSH	SMOKE	10	[0, 0, 0]	-999	PAL1	1	R1230J
1320.061	4.0	2568116	STUDY_PAIR	n/a	wordpools/wordpool_EN.txt	2	6	SMOKE	n/a	BLUSH	SMOKE	10	[0, 0, 0]	-999	PAL1	1	R1230J
1324.078	1.017	2572133	PAIR_OFF	n/a	n/a	2	6	SMOKE	n/a	BLUSH	SMOKE	10	[0, 0, 0]	-999	PAL1	1	R1230J
1325.095	0.267	2573150	STUDY_ORIENT	n/a	n/a	3	1	VASE	n/a	FLAME	VASE	10	[0, 0, 0]	-999	PAL1	1	R1230J
1325.362	0.683	2573417	STUDY_ORIENT_OFF	n/a	n/a	3	1	VASE	n/a	FLAME	VASE	10	[0, 0, 0]	-999	PAL1	1	R1230J
1326.045	4.0	2574100	STUDY_PAIR	n/a	wordpools/wordpool_EN.txt	3	1	VASE	n/a	FLAME	VASE	10	[0, 0, 0]	-999	PAL1	1	R1230J
1330.062	1.017	2578117	PAIR_OFF	n/a	n/a	3	1	VASE	n/a	FLAME	VASE	10	[0, 0, 0]	-999	PAL1	1	R1230J
1331.079	0.267	2579134	STUDY_ORIENT	n/a	n/a	4	4	FARM	n/a	FARM	BLOOM	10	[0, 0, 0]	-999	PAL1	1	R1230J
1331.346	0.617	2579401	STUDY_ORIENT_OFF	n/a	n/a	4	4	FARM	n/a	FARM	BLOOM	10	[0, 0, 0]	-999	PAL1	1	R1230J
1331.963	4.0	2580018	STUDY_PAIR	n/a	wordpools/wordpool_EN.txt	4	4	FARM	n/a	FARM	BLOOM	10	[0, 0, 0]	-999	PAL1	1	R1230J
1335.98	1.017	2584035	PAIR_OFF	n/a	n/a	4	4	FARM	n/a	FARM	BLOOM	10	[0, 0, 0]	-999	PAL1	1	R1230J
1336.997	0.266	2585052	STUDY_ORIENT	n/a	n/a	5	5	PLANE	n/a	SOCK	PLANE	10	[0, 0, 0]	-999	PAL1	1	R1230J
1337.263	0.534	2585318	STUDY_ORIENT_OFF	n/a	n/a	5	5	PLANE	n/a	SOCK	PLANE	10	[0, 0, 0]	-999	PAL1	1	R1230J
1337.797	4.0	2585852	STUDY_PAIR	n/a	wordpools/wordpool_EN.txt	5	5	PLANE	n/a	SOCK	PLANE	10	[0, 0, 0]	-999	PAL1	1	R1230J
1341.814	1.017	2589869	PAIR_OFF	n/a	n/a	5	5	PLANE	n/a	SOCK	PLANE	10	[0, 0, 0]	-999	PAL1	1	R1230J
1342.831	0.267	2590886	STUDY_ORIENT	n/a	n/a	6	2	LEAF	n/a	LEAF	TEA	10	[0, 0, 0]	-999	PAL1	1	R1230J
1343.098	0.649	2591153	STUDY_ORIENT_OFF	n/a	n/a	6	2	LEAF	n/a	LEAF	TEA	10	[0, 0, 0]	-999	PAL1	1	R1230J
1343.747	4.0	2591802	STUDY_PAIR	n/a	wordpools/wordpool_EN.txt	6	2	LEAF	n/a	LEAF	TEA	10	[0, 0, 0]	-999	PAL1	1	R1230J
1347.765	1.0	2595820	PAIR_OFF	n/a	n/a	6	2	LEAF	n/a	LEAF	TEA	10	[0, 0, 0]	-999	PAL1	1	R1230J
1348.765	0.0	2596820	ENCODING_END	n/a	n/a	-999	-999	n/a	n/a	n/a	n/a	10	[0, 0, 0]	-999	PAL1	1	R1230J
1348.765	0.0	2596820	MATH_START	n/a	n/a	-999	-999	n/a	n/a	n/a	n/a	10	[0, 0, 0]	-999	PAL1	1	R1230J
1348.765	0.017	2596820	START	n/a	n/a	-999	-999	n/a	n/a	n/a	n/a	10	[-999, -999, -999]	-999	PAL1	1	R1230J
1348.782	4.084	2596837	PROB	4059.0	n/a	-999	-999	n/a	n/a	n/a	n/a	10	[5, 2, 9]	16	PAL1	1	R1230J
1352.866	2.35	2600921	PROB	2327.0	n/a	-999	-999	n/a	n/a	n/a	n/a	10	[4, 6, 2]	12	PAL1	1	R1230J
1355.216	3.617	2603271	PROB	3585.0	n/a	-999	-999	n/a	n/a	n/a	n/a	10	[8, 7, 9]	23	PAL1	1	R1230J
1358.833	1.85	2606888	PROB	1824.0	n/a	-999	-999	n/a	n/a	n/a	n/a	10	[5, 1, 5]	11	PAL1	1	R1230J
1360.683	3.8	2608738	PROB	3765.0	n/a	-999	-999	n/a	n/a	n/a	n/a	10	[7, 1, 4]	12	PAL1	1	R1230J
1364.483	4.318	2612538	PROB	4318.0	n/a	-999	-999	n/a	n/a	n/a	n/a	10	[9, 8, 8]	25	PAL1	1	R1230J
1368.801	0.016	2616856	STOP	n/a	n/a	-999	-999	n/a	n/a	n/a	n/a	10	[-999, -999, -999]	-999	PAL1	1	R1230J
1368.817	0.001	2616872	MATH_END	n/a	n/a	-999	-999	n/a	n/a	n/a	n/a	10	[0, 0, 0]	-999	PAL1	1	R1230J
1368.818	0.016	2616873	RECALL_START	n/a	n/a	-999	-999	n/a	n/a	n/a	n/a	10	[0, 0, 0]	-999	PAL1	1	R1230J
1368.834	0.267	2616889	TEST_ORIENT	n/a	n/a	3	1	VASE	n/a	FLAME	VASE	10	[0, 0, 0]	-999	PAL1	1	R1230J
1369.101	0.567	2617156	RETRIEVAL_ORIENT_OFF	n/a	n/a	-999	-999	n/a	n/a	n/a	n/a	10	[0, 0, 0]	-999	PAL1	1	R1230J
1369.668	4.0	2617723	TEST_PROBE	n/a	wordpools/wordpool_EN.txt	3	1	VASE	n/a	FLAME	VASE	10	[0, 0, 0]	-999	PAL1	1	R1230J
1369.668	4.017	2617723	REC_START	n/a	n/a	3	-999	n/a	n/a	n/a	n/a	10	[0, 0, 0]	-999	PAL1	1	R1230J
1373.685	0.998	2621740	PROBE_OFF	n/a	n/a	3	-999	n/a	n/a	n/a	n/a	10	[0, 0, 0]	-999	PAL1	1	R1230J
1374.683	0.002	2622738	REC_EVENT	5015.0	n/a	3	1	VASE	<>	FLAME	VASE	10	[0, 0, 0]	-999	PAL1	1	R1230J
1374.685	0.016	2622740	REC_END	n/a	n/a	3	-999	n/a	n/a	n/a	n/a	10	[0, 0, 0]	-999	PAL1	1	R1230J
1374.701	0.267	2622756	TEST_ORIENT	n/a	n/a	6	2	LEAF	n/a	LEAF	TEA	10	[0, 0, 0]	-999	PAL1	1	R1230J
1374.968	0.75	2623023	RETRIEVAL_ORIENT_OFF	n/a	n/a	3	-999	n/a	n/a	n/a	n/a	10	[0, 0, 0]	-999	PAL1	1	R1230J
1375.718	4.0	2623773	TEST_PROBE	n/a	wordpools/wordpool_EN.txt	6	2	LEAF	n/a	LEAF	TEA	10	[0, 0, 0]	-999	PAL1	1	R1230J
1375.719	4.016	2623774	REC_START	n/a	n/a	6	-999	n/a	n/a	n/a	n/a	10	[0, 0, 0]	-999	PAL1	1	R1230J
1379.735	0.999	2627790	PROBE_OFF	n/a	n/a	6	-999	n/a	n/a	n/a	n/a	10	[0, 0, 0]	-999	PAL1	1	R1230J
1380.734	0.001	2628789	REC_EVENT	5015.0	n/a	6	2	LEAF	<>	LEAF	TEA	10	[0, 0, 0]	-999	PAL1	1	R1230J
1380.735	0.017	2628790	REC_END	n/a	n/a	6	-999	n/a	n/a	n/a	n/a	10	[0, 0, 0]	-999	PAL1	1	R1230J
1380.752	0.267	2628807	TEST_ORIENT	n/a	n/a	1	3	BAT	n/a	BAT	SEAT	10	[0, 0, 0]	-999	PAL1	1	R1230J
1381.019	0.75	2629074	RETRIEVAL_ORIENT_OFF	n/a	n/a	6	-999	n/a	n/a	n/a	n/a	10	[0, 0, 0]	-999	PAL1	1	R1230J
1381.769	4.0	2629824	TEST_PROBE	n/a	wordpools/wordpool_EN.txt	1	3	BAT	n/a	BAT	SEAT	10	[0, 0, 0]	-999	PAL1	1	R1230J
1381.77	4.017	2629825	REC_START	n/a	n/a	1	-999	n/a	n/a	n/a	n/a	10	[0, 0, 0]	-999	PAL1	1	R1230J
1385.787	0.998	2633842	PROBE_OFF	n/a	n/a	1	-999	n/a	n/a	n/a	n/a	10	[0, 0, 0]	-999	PAL1	1	R1230J
1386.785	0.002	2634840	REC_EVENT	5015.0	n/a	1	3	BAT	<>	BAT	SEAT	10	[0, 0, 0]	-999	PAL1	1	R1230J
1386.787	0.016	2634842	REC_END	n/a	n/a	1	-999	n/a	n/a	n/a	n/a	10	[0, 0, 0]	-999	PAL1	1	R1230J
1386.803	0.267	2634858	TEST_ORIENT	n/a	n/a	4	4	FARM	n/a	FARM	BLOOM	10	[0, 0, 0]	-999	PAL1	1	R1230J
1387.07	0.75	2635125	RETRIEVAL_ORIENT_OFF	n/a	n/a	1	-999	n/a	n/a	n/a	n/a	10	[0, 0, 0]	-999	PAL1	1	R1230J
1387.82	4.0	2635875	TEST_PROBE	n/a	wordpools/wordpool_EN.txt	4	4	FARM	n/a	FARM	BLOOM	10	[0, 0, 0]	-999	PAL1	1	R1230J
1387.821	4.017	2635876	REC_START	n/a	n/a	4	-999	n/a	n/a	n/a	n/a	10	[0, 0, 0]	-999	PAL1	1	R1230J
1391.838	0.998	2639893	PROBE_OFF	n/a	n/a	4	-999	n/a	n/a	n/a	n/a	10	[0, 0, 0]	-999	PAL1	1	R1230J
1392.836	0.002	2640891	REC_EVENT	5015.0	n/a	4	4	FARM	<>	FARM	BLOOM	10	[0, 0, 0]	-999	PAL1	1	R1230J
1392.838	0.016	2640893	REC_END	n/a	n/a	4	-999	n/a	n/a	n/a	n/a	10	[0, 0, 0]	-999	PAL1	1	R1230J
1392.854	0.267	2640909	TEST_ORIENT	n/a	n/a	5	5	PLANE	n/a	SOCK	PLANE	10	[0, 0, 0]	-999	PAL1	1	R1230J
1393.121	0.583	2641176	RETRIEVAL_ORIENT_OFF	n/a	n/a	4	-999	n/a	n/a	n/a	n/a	10	[0, 0, 0]	-999	PAL1	1	R1230J
1393.704	4.0	2641759	TEST_PROBE	n/a	wordpools/wordpool_EN.txt	5	5	PLANE	n/a	SOCK	PLANE	10	[0, 0, 0]	-999	PAL1	1	R1230J
1393.705	4.016	2641760	REC_START	n/a	n/a	5	-999	n/a	n/a	n/a	n/a	10	[0, 0, 0]	-999	PAL1	1	R1230J
1397.721	0.999	2645776	PROBE_OFF	n/a	n/a	5	-999	n/a	n/a	n/a	n/a	10	[0, 0, 0]	-999	PAL1	1	R1230J
1398.72	0.002	2646775	REC_EVENT	5015.0	n/a	5	5	PLANE	<>	SOCK	PLANE	10	[0, 0, 0]	-999	PAL1	1	R1230J
1398.722	0.016	2646777	REC_END	n/a	n/a	5	-999	n/a	n/a	n/a	n/a	10	[0, 0, 0]	-999	PAL1	1	R1230J
1398.738	0.267	2646793	TEST_ORIENT	n/a	n/a	2	6	SMOKE	n/a	BLUSH	SMOKE	10	[0, 0, 0]	-999	PAL1	1	R1230J
1399.005	0.584	2647060	RETRIEVAL_ORIENT_OFF	n/a	n/a	5	-999	n/a	n/a	n/a	n/a	10	[0, 0, 0]	-999	PAL1	1	R1230J
1399.589	4.0	2647644	TEST_PROBE	n/a	wordpools/wordpool_EN.txt	2	6	SMOKE	n/a	BLUSH	SMOKE	10	[0, 0, 0]	-999	PAL1	1	R1230J
1399.589	4.016	2647644	REC_START	n/a	n/a	2	-999	n/a	n/a	n/a	n/a	10	[0, 0, 0]	-999	PAL1	1	R1230J
1403.605	0.999	2651660	PROBE_OFF	n/a	n/a	2	-999	n/a	n/a	n/a	n/a	10	[0, 0, 0]	-999	PAL1	1	R1230J
1404.604	0.001	2652659	REC_EVENT	5015.0	n/a	2	6	SMOKE	<>	BLUSH	SMOKE	10	[0, 0, 0]	-999	PAL1	1	R1230J
1404.605	0.004	2652660	REC_END	n/a	n/a	2	-999	n/a	n/a	n/a	n/a	10	[0, 0, 0]	-999	PAL1	1	R1230J
1404.609	61.455	2652664	RECALL_END	n/a	n/a	-999	-999	n/a	n/a	n/a	n/a	10	[0, 0, 0]	-999	PAL1	1	R1230J
1466.064	10.929	2714118	TRIAL	n/a	n/a	-999	-999	n/a	n/a	n/a	n/a	11	[0, 0, 0]	-999	PAL1	1	R1230J
1476.993	0.006	2725047	ENCODING_START	n/a	n/a	-999	-999	n/a	n/a	n/a	n/a	11	[0, 0, 0]	-999	PAL1	1	R1230J
1476.999	0.266	2725053	STUDY_ORIENT	n/a	n/a	1	5	LAKE	n/a	GLASS	LAKE	11	[0, 0, 0]	-999	PAL1	1	R1230J
1477.265	0.55	2725319	STUDY_ORIENT_OFF	n/a	n/a	1	5	LAKE	n/a	GLASS	LAKE	11	[0, 0, 0]	-999	PAL1	1	R1230J
1477.815	4.0	2725869	STUDY_PAIR	n/a	wordpools/wordpool_EN.txt	1	5	LAKE	n/a	GLASS	LAKE	11	[0, 0, 0]	-999	PAL1	1	R1230J
1481.816	1.017	2729870	PAIR_OFF	n/a	n/a	1	5	LAKE	n/a	GLASS	LAKE	11	[0, 0, 0]	-999	PAL1	1	R1230J
1482.833	0.267	2730887	STUDY_ORIENT	n/a	n/a	2	4	WALL	n/a	GOLD	WALL	11	[0, 0, 0]	-999	PAL1	1	R1230J
1483.1	0.549	2731154	STUDY_ORIENT_OFF	n/a	n/a	2	4	WALL	n/a	GOLD	WALL	11	[0, 0, 0]	-999	PAL1	1	R1230J
1483.649	4.0	2731703	STUDY_PAIR	n/a	wordpools/wordpool_EN.txt	2	4	WALL	n/a	GOLD	WALL	11	[0, 0, 0]	-999	PAL1	1	R1230J
1487.667	1.017	2735721	PAIR_OFF	n/a	n/a	2	4	WALL	n/a	GOLD	WALL	11	[0, 0, 0]	-999	PAL1	1	R1230J
1488.684	0.266	2736738	STUDY_ORIENT	n/a	n/a	3	3	KEY	n/a	MOON	KEY	11	[0, 0, 0]	-999	PAL1	1	R1230J
1488.95	0.684	2737004	STUDY_ORIENT_OFF	n/a	n/a	3	3	KEY	n/a	MOON	KEY	11	[0, 0, 0]	-999	PAL1	1	R1230J
1489.634	4.0	2737688	STUDY_PAIR	n/a	wordpools/wordpool_EN.txt	3	3	KEY	n/a	MOON	KEY	11	[0, 0, 0]	-999	PAL1	1	R1230J
1493.651	1.017	2741705	PAIR_OFF	n/a	n/a	3	3	KEY	n/a	MOON	KEY	11	[0, 0, 0]	-999	PAL1	1	R1230J
1494.668	0.267	2742722	STUDY_ORIENT	n/a	n/a	4	6	HORN	n/a	CUP	HORN	11	[0, 0, 0]	-999	PAL1	1	R1230J
1494.935	0.649	2742989	STUDY_ORIENT_OFF	n/a	n/a	4	6	HORN	n/a	CUP	HORN	11	[0, 0, 0]	-999	PAL1	1	R1230J
1495.584	4.0	2743638	STUDY_PAIR	n/a	wordpools/wordpool_EN.txt	4	6	HORN	n/a	CUP	HORN	11	[0, 0, 0]	-999	PAL1	1	R1230J
1499.602	1.017	2747656	PAIR_OFF	n/a	n/a	4	6	HORN	n/a	CUP	HORN	11	[0, 0, 0]	-999	PAL1	1	R1230J
1500.619	0.266	2748673	STUDY_ORIENT	n/a	n/a	5	1	JEEP	n/a	JEEP	DART	11	[0, 0, 0]	-999	PAL1	1	R1230J
1500.885	0.617	2748939	STUDY_ORIENT_OFF	n/a	n/a	5	1	JEEP	n/a	JEEP	DART	11	[0, 0, 0]	-999	PAL1	1	R1230J
1501.502	4.0	2749556	STUDY_PAIR	n/a	wordpools/wordpool_EN.txt	5	1	JEEP	n/a	JEEP	DART	11	[0, 0, 0]	-999	PAL1	1	R1230J
1505.519	1.017	2753573	PAIR_OFF	n/a	n/a	5	1	JEEP	n/a	JEEP	DART	11	[0, 0, 0]	-999	PAL1	1	R1230J
1506.536	0.267	2754590	STUDY_ORIENT	n/a	n/a	6	2	SHIP	n/a	SHIP	ROAD	11	[0, 0, 0]	-999	PAL1	1	R1230J
1506.803	0.633	2754857	STUDY_ORIENT_OFF	n/a	n/a	6	2	SHIP	n/a	SHIP	ROAD	11	[0, 0, 0]	-999	PAL1	1	R1230J
1507.436	4.0	2755490	STUDY_PAIR	n/a	wordpools/wordpool_EN.txt	6	2	SHIP	n/a	SHIP	ROAD	11	[0, 0, 0]	-999	PAL1	1	R1230J
1511.454	1.0	2759508	PAIR_OFF	n/a	n/a	6	2	SHIP	n/a	SHIP	ROAD	11	[0, 0, 0]	-999	PAL1	1	R1230J
1512.454	0.0	2760508	ENCODING_END	n/a	n/a	-999	-999	n/a	n/a	n/a	n/a	11	[0, 0, 0]	-999	PAL1	1	R1230J
1512.454	0.0	2760508	MATH_START	n/a	n/a	-999	-999	n/a	n/a	n/a	n/a	11	[0, 0, 0]	-999	PAL1	1	R1230J
1512.454	0.016	2760508	START	n/a	n/a	-999	-999	n/a	n/a	n/a	n/a	11	[-999, -999, -999]	-999	PAL1	1	R1230J
1512.47	72.739	2760524	PROB	72739.0	n/a	-999	-999	n/a	n/a	n/a	n/a	11	[2, 1, 6]	9	PAL1	1	R1230J
1585.209	0.021	2833263	STOP	n/a	n/a	-999	-999	n/a	n/a	n/a	n/a	11	[-999, -999, -999]	-999	PAL1	1	R1230J
1585.23	0.0	2833284	MATH_END	n/a	n/a	-999	-999	n/a	n/a	n/a	n/a	11	[0, 0, 0]	-999	PAL1	1	R1230J
1585.23	0.017	2833284	RECALL_START	n/a	n/a	-999	-999	n/a	n/a	n/a	n/a	11	[0, 0, 0]	-999	PAL1	1	R1230J
1585.247	0.266	2833301	TEST_ORIENT	n/a	n/a	5	1	JEEP	n/a	JEEP	DART	11	[0, 0, 0]	-999	PAL1	1	R1230J
1585.513	0.517	2833567	RETRIEVAL_ORIENT_OFF	n/a	n/a	-999	-999	n/a	n/a	n/a	n/a	11	[0, 0, 0]	-999	PAL1	1	R1230J
1586.03	4.0	2834084	TEST_PROBE	n/a	wordpools/wordpool_EN.txt	5	1	JEEP	n/a	JEEP	DART	11	[0, 0, 0]	-999	PAL1	1	R1230J
1586.031	0.765	2834085	REC_START	n/a	n/a	5	-999	n/a	n/a	n/a	n/a	11	[0, 0, 0]	-999	PAL1	1	R1230J
1586.796	1.026	2834850	REC_EVENT	765.0	n/a	5	1	JEEP	<>	JEEP	DART	11	[0, 0, 0]	-999	PAL1	1	R1230J
1587.822	2.225	2835876	REC_EVENT	1791.0	n/a	5	1	JEEP	<>	JEEP	DART	11	[0, 0, 0]	-999	PAL1	1	R1230J
1590.047	1.0	2838101	PROBE_OFF	n/a	n/a	5	-999	n/a	n/a	n/a	n/a	11	[0, 0, 0]	-999	PAL1	1	R1230J
1591.047	0.017	2839101	REC_END	n/a	n/a	5	-999	n/a	n/a	n/a	n/a	11	[0, 0, 0]	-999	PAL1	1	R1230J
1591.064	0.267	2839118	TEST_ORIENT	n/a	n/a	6	2	SHIP	n/a	SHIP	ROAD	11	[0, 0, 0]	-999	PAL1	1	R1230J
1591.331	0.584	2839385	RETRIEVAL_ORIENT_OFF	n/a	n/a	5	-999	n/a	n/a	n/a	n/a	11	[0, 0, 0]	-999	PAL1	1	R1230J
1591.915	4.0	2839969	TEST_PROBE	n/a	wordpools/wordpool_EN.txt	6	2	SHIP	n/a	SHIP	ROAD	11	[0, 0, 0]	-999	PAL1	1	R1230J
1591.916	4.016	2839970	REC_START	n/a	n/a	6	-999	n/a	n/a	n/a	n/a	11	[0, 0, 0]	-999	PAL1	1	R1230J
1595.932	0.999	2843986	PROBE_OFF	n/a	n/a	6	-999	n/a	n/a	n/a	n/a	11	[0, 0, 0]	-999	PAL1	1	R1230J
1596.931	0.001	2844985	REC_EVENT	5015.0	n/a	6	2	SHIP	<>	SHIP	ROAD	11	[0, 0, 0]	-999	PAL1	1	R1230J
1596.932	0.016	2844986	REC_END	n/a	n/a	6	-999	n/a	n/a	n/a	n/a	11	[0, 0, 0]	-999	PAL1	1	R1230J
1596.948	0.267	2845002	TEST_ORIENT	n/a	n/a	3	3	KEY	n/a	MOON	KEY	11	[0, 0, 0]	-999	PAL1	1	R1230J
1597.215	0.683	2845269	RETRIEVAL_ORIENT_OFF	n/a	n/a	6	-999	n/a	n/a	n/a	n/a	11	[0, 0, 0]	-999	PAL1	1	R1230J
1597.898	4.0	2845952	TEST_PROBE	n/a	wordpools/wordpool_EN.txt	3	3	KEY	n/a	MOON	KEY	11	[0, 0, 0]	-999	PAL1	1	R1230J
1597.899	0.197	2845953	REC_START	n/a	n/a	3	-999	n/a	n/a	n/a	n/a	11	[0, 0, 0]	-999	PAL1	1	R1230J
1598.096	3.821	2846150	REC_EVENT	197.0	n/a	3	3	KEY	<>	MOON	KEY	11	[0, 0, 0]	-999	PAL1	1	R1230J
1601.917	1.0	2849971	PROBE_OFF	n/a	n/a	3	-999	n/a	n/a	n/a	n/a	11	[0, 0, 0]	-999	PAL1	1	R1230J
1602.917	0.017	2850971	REC_END	n/a	n/a	3	-999	n/a	n/a	n/a	n/a	11	[0, 0, 0]	-999	PAL1	1	R1230J
1602.934	0.265	2850988	TEST_ORIENT	n/a	n/a	2	4	WALL	n/a	GOLD	WALL	11	[0, 0, 0]	-999	PAL1	1	R1230J
1603.199	0.667	2851253	RETRIEVAL_ORIENT_OFF	n/a	n/a	3	-999	n/a	n/a	n/a	n/a	11	[0, 0, 0]	-999	PAL1	1	R1230J
1603.866	4.0	2851920	TEST_PROBE	n/a	wordpools/wordpool_EN.txt	2	4	WALL	n/a	GOLD	WALL	11	[0, 0, 0]	-999	PAL1	1	R1230J
1603.866	4.017	2851920	REC_START	n/a	n/a	2	-999	n/a	n/a	n/a	n/a	11	[0, 0, 0]	-999	PAL1	1	R1230J
1607.883	0.998	2855937	PROBE_OFF	n/a	n/a	2	-999	n/a	n/a	n/a	n/a	11	[0, 0, 0]	-999	PAL1	1	R1230J
1608.881	0.002	2856935	REC_EVENT	5015.0	n/a	2	4	WALL	<>	GOLD	WALL	11	[0, 0, 0]	-999	PAL1	1	R1230J
1608.883	0.017	2856937	REC_END	n/a	n/a	2	-999	n/a	n/a	n/a	n/a	11	[0, 0, 0]	-999	PAL1	1	R1230J
1608.9	0.267	2856954	TEST_ORIENT	n/a	n/a	1	5	LAKE	n/a	GLASS	LAKE	11	[0, 0, 0]	-999	PAL1	1	R1230J
1609.167	0.65	2857221	RETRIEVAL_ORIENT_OFF	n/a	n/a	2	-999	n/a	n/a	n/a	n/a	11	[0, 0, 0]	-999	PAL1	1	R1230J
1609.817	4.0	2857871	TEST_PROBE	n/a	wordpools/wordpool_EN.txt	1	5	LAKE	n/a	GLASS	LAKE	11	[0, 0, 0]	-999	PAL1	1	R1230J
1609.817	4.017	2857871	REC_START	n/a	n/a	1	-999	n/a	n/a	n/a	n/a	11	[0, 0, 0]	-999	PAL1	1	R1230J
1613.834	0.998	2861888	PROBE_OFF	n/a	n/a	1	-999	n/a	n/a	n/a	n/a	11	[0, 0, 0]	-999	PAL1	1	R1230J
1614.832	0.002	2862886	REC_EVENT	5015.0	n/a	1	5	LAKE	<>	GLASS	LAKE	11	[0, 0, 0]	-999	PAL1	1	R1230J
1614.834	0.016	2862888	REC_END	n/a	n/a	1	-999	n/a	n/a	n/a	n/a	11	[0, 0, 0]	-999	PAL1	1	R1230J
1614.85	0.267	2862904	TEST_ORIENT	n/a	n/a	4	6	HORN	n/a	CUP	HORN	11	[0, 0, 0]	-999	PAL1	1	R1230J
1615.117	0.584	2863171	RETRIEVAL_ORIENT_OFF	n/a	n/a	1	-999	n/a	n/a	n/a	n/a	11	[0, 0, 0]	-999	PAL1	1	R1230J
1615.701	4.0	2863755	TEST_PROBE	n/a	wordpools/wordpool_EN.txt	4	6	HORN	n/a	CUP	HORN	11	[0, 0, 0]	-999	PAL1	1	R1230J
1615.701	4.017	2863755	REC_START	n/a	n/a	4	-999	n/a	n/a	n/a	n/a	11	[0, 0, 0]	-999	PAL1	1	R1230J
1619.718	0.998	2867772	PROBE_OFF	n/a	n/a	4	-999	n/a	n/a	n/a	n/a	11	[0, 0, 0]	-999	PAL1	1	R1230J
1620.716	0.002	2868770	REC_EVENT	5015.0	n/a	4	6	HORN	<>	CUP	HORN	11	[0, 0, 0]	-999	PAL1	1	R1230J
1620.718	0.004	2868772	REC_END	n/a	n/a	4	-999	n/a	n/a	n/a	n/a	11	[0, 0, 0]	-999	PAL1	1	R1230J
1620.722	8.531	2868776	RECALL_END	n/a	n/a	-999	-999	n/a	n/a	n/a	n/a	11	[0, 0, 0]	-999	PAL1	1	R1230J
1629.253	10.929	2877307	TRIAL	n/a	n/a	-999	-999	n/a	n/a	n/a	n/a	12	[0, 0, 0]	-999	PAL1	1	R1230J
1640.182	0.006	2888236	ENCODING_START	n/a	n/a	-999	-999	n/a	n/a	n/a	n/a	12	[0, 0, 0]	-999	PAL1	1	R1230J
1640.188	0.266	2888242	STUDY_ORIENT	n/a	n/a	1	-999	n/a	n/a	TIE	RUG	12	[0, 0, 0]	-999	PAL1	1	R1230J
1640.454	0.55	2888508	STUDY_ORIENT_OFF	n/a	n/a	1	-999	n/a	n/a	n/a	n/a	12	[0, 0, 0]	-999	PAL1	1	R1230J
1641.004	4.0	2889058	STUDY_PAIR	n/a	wordpools/wordpool_EN.txt	1	-999	n/a	n/a	TIE	RUG	12	[0, 0, 0]	-999	PAL1	1	R1230J
1645.021	1.017	2893075	PAIR_OFF	n/a	n/a	1	-999	n/a	n/a	n/a	n/a	12	[0, 0, 0]	-999	PAL1	1	R1230J
1646.038	0.267	2894092	STUDY_ORIENT	n/a	n/a	2	-999	n/a	n/a	STAIR	CHALK	12	[0, 0, 0]	-999	PAL1	1	R1230J
1646.305	0.618	2894359	STUDY_ORIENT_OFF	n/a	n/a	2	-999	n/a	n/a	n/a	n/a	12	[0, 0, 0]	-999	PAL1	1	R1230J
1646.923	4.0	2894977	STUDY_PAIR	n/a	wordpools/wordpool_EN.txt	2	-999	n/a	n/a	STAIR	CHALK	12	[0, 0, 0]	-999	PAL1	1	R1230J
1650.94	1.016	2898993	PAIR_OFF	n/a	n/a	2	-999	n/a	n/a	n/a	n/a	12	[0, 0, 0]	-999	PAL1	1	R1230J
1651.956	0.267	2900009	STUDY_ORIENT	n/a	n/a	3	-999	n/a	n/a	FOG	WING	12	[0, 0, 0]	-999	PAL1	1	R1230J
1652.223	0.684	2900276	STUDY_ORIENT_OFF	n/a	n/a	3	-999	n/a	n/a	n/a	n/a	12	[0, 0, 0]	-999	PAL1	1	R1230J
1652.907	4.0	2900960	STUDY_PAIR	n/a	wordpools/wordpool_EN.txt	3	-999	n/a	n/a	FOG	WING	12	[0, 0, 0]	-999	PAL1	1	R1230J
1656.924	1.017	2904977	PAIR_OFF	n/a	n/a	3	-999	n/a	n/a	n/a	n/a	12	[0, 0, 0]	-999	PAL1	1	R1230J
1657.941	0.266	2905994	STUDY_ORIENT	n/a	n/a	4	-999	n/a	n/a	HAND	FACE	12	[0, 0, 0]	-999	PAL1	1	R1230J
1658.207	0.549	2906260	STUDY_ORIENT_OFF	n/a	n/a	4	-999	n/a	n/a	n/a	n/a	12	[0, 0, 0]	-999	PAL1	1	R1230J
1658.756	4.0	2906809	STUDY_PAIR	n/a	wordpools/wordpool_EN.txt	4	-999	n/a	n/a	HAND	FACE	12	[0, 0, 0]	-999	PAL1	1	R1230J
1662.757	1.017	2910810	PAIR_OFF	n/a	n/a	4	-999	n/a	n/a	n/a	n/a	12	[0, 0, 0]	-999	PAL1	1	R1230J
1663.774	0.266	2911827	STUDY_ORIENT	n/a	n/a	5	-999	n/a	n/a	OWL	STICK	12	[0, 0, 0]	-999	PAL1	1	R1230J
1664.04	0.651	2912093	STUDY_ORIENT_OFF	n/a	n/a	5	-999	n/a	n/a	n/a	n/a	12	[0, 0, 0]	-999	PAL1	1	R1230J
1664.691	4.0	2912744	STUDY_PAIR	n/a	wordpools/wordpool_EN.txt	5	-999	n/a	n/a	OWL	STICK	12	[0, 0, 0]	-999	PAL1	1	R1230J
1668.708	1.017	2916761	PAIR_OFF	n/a	n/a	5	-999	n/a	n/a	n/a	n/a	12	[0, 0, 0]	-999	PAL1	1	R1230J
1669.725	0.266	2917778	STUDY_ORIENT	n/a	n/a	6	-999	n/a	n/a	ICE	AXE	12	[0, 0, 0]	-999	PAL1	1	R1230J
1669.991	0.667	2918044	STUDY_ORIENT_OFF	n/a	n/a	6	-999	n/a	n/a	n/a	n/a	12	[0, 0, 0]	-999	PAL1	1	R1230J
