onset	duration	sample	trial_type	response_time	stim_file	serialpos	probepos	probe_word	resp_word	study_1	study_2	list	test	answer	experiment	session	subject
0.0	101.364	389774	SESS_START	n/a	n/a	-999	-999	n/a	n/a	n/a	n/a	-999	[0, 0, 0]	-999	PAL1	0	R1097N
101.364	0.414	491089	START	n/a	n/a	-999	-999	n/a	n/a	n/a	n/a	-1	[-999, -999, -999]	-999	PAL1	0	R1097N
101.778	5.998	491503	PROB	5994	n/a	-999	-999	n/a	n/a	n/a	n/a	-1	[8, 1, 1]	10	PAL1	0	R1097N
107.776	7.107	497498	PROB	7103	n/a	-999	-999	n/a	n/a	n/a	n/a	-1	[8, 1, 6]	14	PAL1	0	R1097N
114.883	21.189	504602	PROB	21189	n/a	-999	-999	n/a	n/a	n/a	n/a	-1	[7, 9, 8]	24	PAL1	0	R1097N
136.072	28.476	525781	STOP	n/a	n/a	-999	-999	n/a	n/a	n/a	n/a	-1	[-999, -999, -999]	-999	PAL1	0	R1097N
164.548	0.004	554243	ENCODING_START	n/a	n/a	0	-999	n/a	n/a	n/a	n/a	1	[0, 0, 0]	-999	PAL1	0	R1097N
164.552	0.816	554247	STUDY_ORIENT	n/a	n/a	1	3	FACE	n/a	PALM	FACE	1	[0, 0, 0]	-999	PAL1	0	R1097N
165.368	5.001	555063	STUDY_PAIR	n/a	wordpools/wordpool_EN.txt	1	3	FACE	n/a	PALM	FACE	1	[0, 0, 0]	-999	PAL1	0	R1097N
170.369	0.846	560062	STUDY_ORIENT	n/a	n/a	2	6	TRAY	PASS	CONE	TRAY	1	[0, 0, 0]	-999	PAL1	0	R1097N
171.215	5.001	560907	STUDY_PAIR	n/a	wordpools/wordpool_EN.txt	2	6	TRAY	PASS	CONE	TRAY	1	[0, 0, 0]	-999	PAL1	0	R1097N
176.216	0.878	565906	STUDY_ORIENT	n/a	n/a	3	1	SHIP	n/a	LAMP	SHIP	1	[0, 0, 0]	-999	PAL1	0	R1097N
177.094	5.001	566783	STUDY_PAIR	n/a	wordpools/wordpool_EN.txt	3	1	SHIP	n/a	LAMP	SHIP	1	[0, 0, 0]	-999	PAL1	0	R1097N
182.095	0.954	571782	STUDY_ORIENT	n/a	n/a	4	2	CLOWN	SHIP	CART	CLOWN	1	[0, 0, 0]	-999	PAL1	0	R1097N
183.049	5.0	572736	STUDY_PAIR	n/a	wordpools/wordpool_EN.txt	4	2	CLOWN	SHIP	CART	CLOWN	1	[0, 0, 0]	-999	PAL1	0	R1097N
188.049	0.942	577733	STUDY_ORIENT	n/a	n/a	5	5	DOLL	PASS	DOLL	TRAIN	1	[0, 0, 0]	-999	PAL1	0	R1097N
188.991	5.0	578675	STUDY_PAIR	n/a	wordpools/wordpool_EN.txt	5	5	DOLL	PASS	DOLL	TRAIN	1	[0, 0, 0]	-999	PAL1	0	R1097N
193.991	0.878	583672	STUDY_ORIENT	n/a	n/a	6	4	BOX	PASS	SHRIMP	BOX	1	[0, 0, 0]	-999	PAL1	0	R1097N
194.869	4.001	584550	STUDY_PAIR	n/a	wordpools/wordpool_EN.txt	6	4	BOX	PASS	SHRIMP	BOX	1	[0, 0, 0]	-999	PAL1	0	R1097N
198.87	0.999	588549	START	n/a	n/a	-999	-999	n/a	n/a	n/a	n/a	1	[-999, -999, -999]	-999	PAL1	0	R1097N
199.869	0.001	589548	MATH_START	n/a	n/a	-999	-999	n/a	n/a	n/a	n/a	1	[0, 0, 0]	-999	PAL1	0	R1097N
199.87	10.743	589549	PROB	10738	n/a	-999	-999	n/a	n/a	n/a	n/a	1	[6, 2, 8]	16	PAL1	0	R1097N
210.613	7.652	600287	PROB	7647	n/a	-999	-999	n/a	n/a	n/a	n/a	1	[4, 2, 5]	11	PAL1	0	R1097N
218.265	6.094	607935	PROB	6094	n/a	-999	-999	n/a	n/a	n/a	n/a	1	[2, 9, 7]	18	PAL1	0	R1097N
224.359	0.001	614026	STOP	n/a	n/a	-999	-999	n/a	n/a	n/a	n/a	1	[-999, -999, -999]	-999	PAL1	0	R1097N
224.36	0.0	614027	MATH_END	n/a	n/a	-999	-999	n/a	n/a	n/a	n/a	1	[0, 0, 0]	-999	PAL1	0	R1097N
224.36	0.002	614027	TEST_START	n/a	n/a	-999	-999	n/a	n/a	n/a	n/a	1	[0, 0, 0]	-999	PAL1	0	R1097N
224.362	0.915	614029	TEST_ORIENT	n/a	n/a	3	1	SHIP	n/a	LAMP	SHIP	1	[0, 0, 0]	-999	PAL1	0	R1097N
225.277	0.341	614944	TEST_PROBE	n/a	wordpools/wordpool_EN.txt	3	1	SHIP	n/a	LAMP	SHIP	1	[0, 0, 0]	-999	PAL1	0	R1097N
225.618	2.211	615284	REC_START	n/a	n/a	3	-999	n/a	n/a	n/a	n/a	1	[0, 0, 0]	-999	PAL1	0	R1097N
227.829	2.448	617494	REC_EVENT	2211	n/a	3	1	SHIP	<>	LAMP	SHIP	1	[0, 0, 0]	-999	PAL1	0	R1097N
230.277	0.016	619941	REC_END	n/a	n/a	3	-999	n/a	n/a	n/a	n/a	1	[0, 0, 0]	-999	PAL1	0	R1097N
230.293	0.79	619957	TEST_ORIENT	n/a	n/a	4	2	CLOWN	SHIP	CART	CLOWN	1	[0, 0, 0]	-999	PAL1	0	R1097N
231.083	0.002	620747	TEST_PROBE	n/a	wordpools/wordpool_EN.txt	4	2	CLOWN	SHIP	CART	CLOWN	1	[0, 0, 0]	-999	PAL1	0	R1097N
231.085	2.792	620749	REC_START	n/a	n/a	4	-999	n/a	SHIP	n/a	n/a	1	[0, 0, 0]	-999	PAL1	0	R1097N
233.877	1.0	623540	REC_EVENT	2792	n/a	4	2	CLOWN	SHIP	CART	CLOWN	1	[0, 0, 0]	-999	PAL1	0	R1097N
234.877	1.206	624539	REC_EVENT	3792	n/a	4	2	CLOWN	<>	CART	CLOWN	1	[0, 0, 0]	-999	PAL1	0	R1097N
236.083	0.018	625745	REC_END	n/a	n/a	4	-999	n/a	n/a	n/a	n/a	1	[0, 0, 0]	-999	PAL1	0	R1097N
236.101	0.956	625762	TEST_ORIENT	n/a	n/a	1	3	FACE	n/a	PALM	FACE	1	[0, 0, 0]	-999	PAL1	0	R1097N
237.057	0.001	626718	TEST_PROBE	n/a	wordpools/wordpool_EN.txt	1	3	FACE	n/a	PALM	FACE	1	[0, 0, 0]	-999	PAL1	0	R1097N
237.058	1.7	626719	REC_START	n/a	n/a	1	-999	n/a	n/a	n/a	n/a	1	[0, 0, 0]	-999	PAL1	0	R1097N
238.758	1.0	628418	REC_EVENT	1700	n/a	1	3	FACE	<>	PALM	FACE	1	[0, 0, 0]	-999	PAL1	0	R1097N
239.758	1.0	629418	REC_EVENT	2700	n/a	1	3	FACE	<>	PALM	FACE	1	[0, 0, 0]	-999	PAL1	0	R1097N
240.758	1.299	630417	REC_EVENT	3700	n/a	1	3	FACE	<>	PALM	FACE	1	[0, 0, 0]	-999	PAL1	0	R1097N
242.057	0.017	631716	REC_END	n/a	n/a	1	-999	n/a	n/a	n/a	n/a	1	[0, 0, 0]	-999	PAL1	0	R1097N
242.074	0.968	631733	TEST_ORIENT	n/a	n/a	6	4	BOX	PASS	SHRIMP	BOX	1	[0, 0, 0]	-999	PAL1	0	R1097N
243.042	0.001	632700	TEST_PROBE	n/a	wordpools/wordpool_EN.txt	6	4	BOX	PASS	SHRIMP	BOX	1	[0, 0, 0]	-999	PAL1	0	R1097N
243.043	3.604	632701	REC_START	n/a	n/a	6	-999	n/a	PASS	n/a	n/a	1	[0, 0, 0]	-999	PAL1	0	R1097N
246.647	1.395	636303	REC_EVENT	3604	n/a	6	4	BOX	PASS	SHRIMP	BOX	1	[0, 0, 0]	-999	PAL1	0	R1097N
248.042	0.017	637698	REC_END	n/a	n/a	6	-999	n/a	n/a	n/a	n/a	1	[0, 0, 0]	-999	PAL1	0	R1097N
248.059	0.811	637715	TEST_ORIENT	n/a	n/a	5	5	DOLL	PASS	DOLL	TRAIN	1	[0, 0, 0]	-999	PAL1	0	R1097N
248.87	0.001	638525	TEST_PROBE	n/a	wordpools/wordpool_EN.txt	5	5	DOLL	PASS	DOLL	TRAIN	1	[0, 0, 0]	-999	PAL1	0	R1097N
248.871	2.348	638526	REC_START	n/a	n/a	5	-999	n/a	PASS	n/a	n/a	1	[0, 0, 0]	-999	PAL1	0	R1097N
251.219	2.651	640873	REC_EVENT	2348	n/a	5	5	DOLL	PASS	DOLL	TRAIN	1	[0, 0, 0]	-999	PAL1	0	R1097N
253.87	0.017	643523	REC_END	n/a	n/a	5	-999	n/a	n/a	n/a	n/a	1	[0, 0, 0]	-999	PAL1	0	R1097N
253.887	0.979	643540	TEST_ORIENT	n/a	n/a	2	6	TRAY	PASS	CONE	TRAY	1	[0, 0, 0]	-999	PAL1	0	R1097N
254.866	0.002	644519	TEST_PROBE	n/a	wordpools/wordpool_EN.txt	2	6	TRAY	PASS	CONE	TRAY	1	[0, 0, 0]	-999	PAL1	0	R1097N
254.868	2.958	644521	REC_START	n/a	n/a	2	-999	n/a	PASS	n/a	n/a	1	[0, 0, 0]	-999	PAL1	0	R1097N
257.826	2.04	647477	REC_EVENT	2958	n/a	2	6	TRAY	PASS	CONE	TRAY	1	[0, 0, 0]	-999	PAL1	0	R1097N
259.866	0.025	649516	REC_END	n/a	n/a	2	-999	n/a	n/a	n/a	n/a	1	[0, 0, 0]	-999	PAL1	0	R1097N
259.891	28.807	649541	FORCED_BREAK	n/a	n/a	2	-999	n/a	n/a	n/a	n/a	1	[0, 0, 0]	-999	PAL1	0	R1097N
288.698	0.003	678335	ENCODING_START	n/a	n/a	0	-999	n/a	n/a	n/a	n/a	2	[0, 0, 0]	-999	PAL1	0	R1097N
288.701	0.916	678338	STUDY_ORIENT	n/a	n/a	1	3	BATH	NET	BATH	NET	2	[0, 0, 0]	-999	PAL1	0	R1097N
289.617	5.001	679253	STUDY_PAIR	n/a	wordpools/wordpool_EN.txt	1	3	BATH	NET	BATH	NET	2	[0, 0, 0]	-999	PAL1	0	R1097N
294.618	0.943	684252	STUDY_ORIENT	n/a	n/a	2	2	MOOSE	n/a	MOOSE	KITE	2	[0, 0, 0]	-999	PAL1	0	R1097N
295.561	5.0	685194	STUDY_PAIR	n/a	wordpools/wordpool_EN.txt	2	2	MOOSE	n/a	MOOSE	KITE	2	[0, 0, 0]	-999	PAL1	0	R1097N
300.561	0.938	690192	STUDY_ORIENT	n/a	n/a	3	5	CHIN	n/a	OAK	CHIN	2	[0, 0, 0]	-999	PAL1	0	R1097N
301.499	5.001	691129	STUDY_PAIR	n/a	wordpools/wordpool_EN.txt	3	5	CHIN	n/a	OAK	CHIN	2	[0, 0, 0]	-999	PAL1	0	R1097N
306.5	0.851	696128	STUDY_ORIENT	n/a	n/a	4	4	SUIT	n/a	SUIT	FLEA	2	[0, 0, 0]	-999	PAL1	0	R1097N
307.351	5.001	696979	STUDY_PAIR	n/a	wordpools/wordpool_EN.txt	4	4	SUIT	n/a	SUIT	FLEA	2	[0, 0, 0]	-999	PAL1	0	R1097N
312.352	0.799	701977	STUDY_ORIENT	n/a	n/a	5	1	PEAR	n/a	PEAR	SLUSH	2	[0, 0, 0]	-999	PAL1	0	R1097N
313.151	5.001	702776	STUDY_PAIR	n/a	wordpools/wordpool_EN.txt	5	1	PEAR	n/a	PEAR	SLUSH	2	[0, 0, 0]	-999	PAL1	0	R1097N
318.152	0.795	707775	STUDY_ORIENT	n/a	n/a	6	6	CAPE	BALL	CAPE	BALL	2	[0, 0, 0]	-999	PAL1	0	R1097N
318.947	4.001	708569	STUDY_PAIR	n/a	wordpools/wordpool_EN.txt	6	6	CAPE	BALL	CAPE	BALL	2	[0, 0, 0]	-999	PAL1	0	R1097N
322.948	0.999	712568	START	n/a	n/a	-999	-999	n/a	n/a	n/a	n/a	2	[-999, -999, -999]	-999	PAL1	0	R1097N
323.947	0.001	713567	MATH_START	n/a	n/a	-999	-999	n/a	n/a	n/a	n/a	2	[0, 0, 0]	-999	PAL1	0	R1097N
323.948	6.052	713568	PROB	6047	n/a	-999	-999	n/a	n/a	n/a	n/a	2	[2, 1, 8]	11	PAL1	0	R1097N
330.0	5.65	719617	PROB	5646	n/a	-999	-999	n/a	n/a	n/a	n/a	2	[4, 5, 1]	10	PAL1	0	R1097N
335.65	4.954	725264	PROB	4950	n/a	-999	-999	n/a	n/a	n/a	n/a	2	[9, 1, 2]	12	PAL1	0	R1097N
340.604	6.784	730216	PROB	6784	n/a	-999	-999	n/a	n/a	n/a	n/a	2	[1, 6, 2]	9	PAL1	0	R1097N
347.388	0.001	736997	STOP	n/a	n/a	-999	-999	n/a	n/a	n/a	n/a	2	[-999, -999, -999]	-999	PAL1	0	R1097N
347.389	0.0	736998	MATH_END	n/a	n/a	-999	-999	n/a	n/a	n/a	n/a	2	[0, 0, 0]	-999	PAL1	0	R1097N
347.389	0.002	736998	TEST_START	n/a	n/a	-999	-999	n/a	n/a	n/a	n/a	2	[0, 0, 0]	-999	PAL1	0	R1097N
347.391	0.992	737000	TEST_ORIENT	n/a	n/a	5	1	PEAR	n/a	PEAR	SLUSH	2	[0, 0, 0]	-999	PAL1	0	R1097N
348.383	0.001	737991	TEST_PROBE	n/a	wordpools/wordpool_EN.txt	5	1	PEAR	n/a	PEAR	SLUSH	2	[0, 0, 0]	-999	PAL1	0	R1097N
348.384	4.992	737992	REC_START	n/a	n/a	5	-999	n/a	n/a	n/a	n/a	2	[0, 0, 0]	-999	PAL1	0	R1097N
353.376	0.007	742982	REC_EVENT	4992	n/a	5	1	PEAR	<>	PEAR	SLUSH	2	[0, 0, 0]	-999	PAL1	0	R1097N
353.383	0.018	742989	REC_END	n/a	n/a	5	-999	n/a	n/a	n/a	n/a	2	[0, 0, 0]	-999	PAL1	0	R1097N
353.401	0.911	743007	TEST_ORIENT	n/a	n/a	2	2	MOOSE	n/a	MOOSE	KITE	2	[0, 0, 0]	-999	PAL1	0	R1097N
354.312	0.001	743917	TEST_PROBE	n/a	wordpools/wordpool_EN.txt	2	2	MOOSE	n/a	MOOSE	KITE	2	[0, 0, 0]	-999	PAL1	0	R1097N
354.313	4.992	743918	REC_START	n/a	n/a	2	-999	n/a	n/a	n/a	n/a	2	[0, 0, 0]	-999	PAL1	0	R1097N
359.305	0.007	748908	REC_EVENT	4992	n/a	2	2	MOOSE	<>	MOOSE	KITE	2	[0, 0, 0]	-999	PAL1	0	R1097N
359.312	0.018	748915	REC_END	n/a	n/a	2	-999	n/a	n/a	n/a	n/a	2	[0, 0, 0]	-999	PAL1	0	R1097N
359.33	0.917	748933	TEST_ORIENT	n/a	n/a	1	3	BATH	NET	BATH	NET	2	[0, 0, 0]	-999	PAL1	0	R1097N
360.247	0.002	749850	TEST_PROBE	n/a	wordpools/wordpool_EN.txt	1	3	BATH	NET	BATH	NET	2	[0, 0, 0]	-999	PAL1	0	R1097N
360.249	1.589	749852	REC_START	n/a	n/a	1	-999	n/a	NET	n/a	n/a	2	[0, 0, 0]	-999	PAL1	0	R1097N
361.838	3.409	751440	REC_EVENT	1589	n/a	1	3	BATH	NET	BATH	NET	2	[0, 0, 0]	-999	PAL1	0	R1097N
365.247	0.018	754847	REC_END	n/a	n/a	1	-999	n/a	n/a	n/a	n/a	2	[0, 0, 0]	-999	PAL1	0	R1097N
365.265	0.848	754865	TEST_ORIENT	n/a	n/a	4	4	SUIT	n/a	SUIT	FLEA	2	[0, 0, 0]	-999	PAL1	0	R1097N
366.113	0.001	755713	TEST_PROBE	n/a	wordpools/wordpool_EN.txt	4	4	SUIT	n/a	SUIT	FLEA	2	[0, 0, 0]	-999	PAL1	0	R1097N
366.114	4.992	755714	REC_START	n/a	n/a	4	-999	n/a	n/a	n/a	n/a	2	[0, 0, 0]	-999	PAL1	0	R1097N
371.106	0.007	760703	REC_EVENT	4992	n/a	4	4	SUIT	<>	SUIT	FLEA	2	[0, 0, 0]	-999	PAL1	0	R1097N
371.113	0.018	760710	REC_END	n/a	n/a	4	-999	n/a	n/a	n/a	n/a	2	[0, 0, 0]	-999	PAL1	0	R1097N
371.131	0.941	760728	TEST_ORIENT	n/a	n/a	3	5	CHIN	n/a	OAK	CHIN	2	[0, 0, 0]	-999	PAL1	0	R1097N
372.072	0.001	761669	TEST_PROBE	n/a	wordpools/wordpool_EN.txt	3	5	CHIN	n/a	OAK	CHIN	2	[0, 0, 0]	-999	PAL1	0	R1097N
372.073	4.998	761670	REC_START	n/a	n/a	3	-999	n/a	n/a	n/a	n/a	2	[0, 0, 0]	-999	PAL1	0	R1097N
377.071	0.001	766666	REC_EVENT	4998	n/a	3	5	CHIN	<>	OAK	CHIN	2	[0, 0, 0]	-999	PAL1	0	R1097N
377.072	0.018	766667	REC_END	n/a	n/a	3	-999	n/a	n/a	n/a	n/a	2	[0, 0, 0]	-999	PAL1	0	R1097N
377.09	0.761	766685	TEST_ORIENT	n/a	n/a	6	6	CAPE	BALL	CAPE	BALL	2	[0, 0, 0]	-999	PAL1	0	R1097N
377.851	0.001	767445	TEST_PROBE	n/a	wordpools/wordpool_EN.txt	6	6	CAPE	BALL	CAPE	BALL	2	[0, 0, 0]	-999	PAL1	0	R1097N
377.852	1.286	767446	REC_START	n/a	n/a	6	-999	n/a	BALL	n/a	n/a	2	[0, 0, 0]	-999	PAL1	0	R1097N
379.138	3.713	768732	REC_EVENT	1286	n/a	6	6	CAPE	BALL	CAPE	BALL	2	[0, 0, 0]	-999	PAL1	0	R1097N
382.851	0.026	772443	REC_END	n/a	n/a	6	-999	n/a	n/a	n/a	n/a	2	[0, 0, 0]	-999	PAL1	0	R1097N
382.877	14.283	772469	FORCED_BREAK	n/a	n/a	6	-999	n/a	n/a	n/a	n/a	2	[0, 0, 0]	-999	PAL1	0	R1097N
397.16	0.004	786745	ENCODING_START	n/a	n/a	0	-999	n/a	n/a	n/a	n/a	3	[0, 0, 0]	-999	PAL1	0	R1097N
397.164	0.984	786749	STUDY_ORIENT	n/a	n/a	1	3	BRICK	n/a	SPONGE	BRICK	3	[0, 0, 0]	-999	PAL1	0	R1097N
398.148	5.001	787733	STUDY_PAIR	n/a	wordpools/wordpool_EN.txt	1	3	BRICK	n/a	SPONGE	BRICK	3	[0, 0, 0]	-999	PAL1	0	R1097N
403.149	0.919	792731	STUDY_ORIENT	n/a	n/a	2	2	HAWK	n/a	HAWK	STAIR	3	[0, 0, 0]	-999	PAL1	0	R1097N
404.068	5.001	793650	STUDY_PAIR	n/a	wordpools/wordpool_EN.txt	2	2	HAWK	n/a	HAWK	STAIR	3	[0, 0, 0]	-999	PAL1	0	R1097N
409.069	0.868	798648	STUDY_ORIENT	n/a	n/a	3	5	BRUSH	BED	PURSE	BRUSH	3	[0, 0, 0]	-999	PAL1	0	R1097N
409.937	5.0	799516	STUDY_PAIR	n/a	wordpools/wordpool_EN.txt	3	5	BRUSH	BED	PURSE	BRUSH	3	[0, 0, 0]	-999	PAL1	0	R1097N
414.937	0.837	804514	STUDY_ORIENT	n/a	n/a	4	4	CLIFF	n/a	SMILE	CLIFF	3	[0, 0, 0]	-999	PAL1	0	R1097N
415.774	5.0	805350	STUDY_PAIR	n/a	wordpools/wordpool_EN.txt	4	4	CLIFF	n/a	SMILE	CLIFF	3	[0, 0, 0]	-999	PAL1	0	R1097N
420.774	0.864	810348	STUDY_ORIENT	n/a	n/a	5	1	ELF	TOOL	TOOL	ELF	3	[0, 0, 0]	-999	PAL1	0	R1097N
421.638	5.0	811211	STUDY_PAIR	n/a	wordpools/wordpool_EN.txt	5	1	ELF	TOOL	TOOL	ELF	3	[0, 0, 0]	-999	PAL1	0	R1097N
426.638	0.758	816209	STUDY_ORIENT	n/a	n/a	6	6	MOUTH	MOUTH	BED	MOUTH	3	[0, 0, 0]	-999	PAL1	0	R1097N
427.396	4.001	816967	STUDY_PAIR	n/a	wordpools/wordpool_EN.txt	6	6	MOUTH	MOUTH	BED	MOUTH	3	[0, 0, 0]	-999	PAL1	0	R1097N
431.397	0.999	820966	START	n/a	n/a	-999	-999	n/a	n/a	n/a	n/a	3	[-999, -999, -999]	-999	PAL1	0	R1097N
432.396	0.001	821964	MATH_START	n/a	n/a	-999	-999	n/a	n/a	n/a	n/a	3	[0, 0, 0]	-999	PAL1	0	R1097N
432.397	8.875	821965	PROB	8871	n/a	-999	-999	n/a	n/a	n/a	n/a	3	[2, 8, 9]	19	PAL1	0	R1097N
441.272	4.329	830836	PROB	4325	n/a	-999	-999	n/a	n/a	n/a	n/a	3	[4, 5, 4]	13	PAL1	0	R1097N
445.601	3.482	835163	PROB	3477	n/a	-999	-999	n/a	n/a	n/a	n/a	3	[9, 1, 6]	16	PAL1	0	R1097N
449.083	3.126	838643	PROB	3126	n/a	-999	-999	n/a	n/a	n/a	n/a	3	[2, 2, 8]	12	PAL1	0	R1097N
452.209	0.001	841768	STOP	n/a	n/a	-999	-999	n/a	n/a	n/a	n/a	3	[-999, -999, -999]	-999	PAL1	0	R1097N
452.21	0.0	841769	MATH_END	n/a	n/a	-999	-999	n/a	n/a	n/a	n/a	3	[0, 0, 0]	-999	PAL1	0	R1097N
452.21	0.002	841769	TEST_START	n/a	n/a	-999	-999	n/a	n/a	n/a	n/a	3	[0, 0, 0]	-999	PAL1	0	R1097N
452.212	0.992	841771	TEST_ORIENT	n/a	n/a	5	1	ELF	TOOL	TOOL	ELF	3	[0, 0, 0]	-999	PAL1	0	R1097N
453.204	0.002	842762	TEST_PROBE	n/a	wordpools/wordpool_EN.txt	5	1	ELF	TOOL	TOOL	ELF	3	[0, 0, 0]	-999	PAL1	0	R1097N
453.206	1.468	842764	REC_START	n/a	n/a	5	-999	n/a	TOOL	n/a	n/a	3	[0, 0, 0]	-999	PAL1	0	R1097N
454.674	3.53	844232	REC_EVENT	1468	n/a	5	1	ELF	TOOL	TOOL	ELF	3	[0, 0, 0]	-999	PAL1	0	R1097N
458.204	0.018	847760	REC_END	n/a	n/a	5	-999	n/a	n/a	n/a	n/a	3	[0, 0, 0]	-999	PAL1	0	R1097N
458.222	0.867	847778	TEST_ORIENT	n/a	n/a	2	2	HAWK	n/a	HAWK	STAIR	3	[0, 0, 0]	-999	PAL1	0	R1097N
459.089	0.001	848645	TEST_PROBE	n/a	wordpools/wordpool_EN.txt	2	2	HAWK	n/a	HAWK	STAIR	3	[0, 0, 0]	-999	PAL1	0	R1097N
459.09	4.998	848646	REC_START	n/a	n/a	2	-999	n/a	n/a	n/a	n/a	3	[0, 0, 0]	-999	PAL1	0	R1097N
464.088	0.001	853641	REC_EVENT	4998	n/a	2	2	HAWK	<>	HAWK	STAIR	3	[0, 0, 0]	-999	PAL1	0	R1097N
464.089	0.018	853642	REC_END	n/a	n/a	2	-999	n/a	n/a	n/a	n/a	3	[0, 0, 0]	-999	PAL1	0	R1097N
464.107	0.825	853660	TEST_ORIENT	n/a	n/a	1	3	BRICK	n/a	SPONGE	BRICK	3	[0, 0, 0]	-999	PAL1	0	R1097N
464.932	0.001	854485	TEST_PROBE	n/a	wordpools/wordpool_EN.txt	1	3	BRICK	n/a	SPONGE	BRICK	3	[0, 0, 0]	-999	PAL1	0	R1097N
464.933	4.998	854486	REC_START	n/a	n/a	1	-999	n/a	n/a	n/a	n/a	3	[0, 0, 0]	-999	PAL1	0	R1097N
469.931	0.001	859482	REC_EVENT	4998	n/a	1	3	BRICK	<>	SPONGE	BRICK	3	[0, 0, 0]	-999	PAL1	0	R1097N
469.932	0.018	859483	REC_END	n/a	n/a	1	-999	n/a	n/a	n/a	n/a	3	[0, 0, 0]	-999	PAL1	0	R1097N
469.95	0.863	859501	TEST_ORIENT	n/a	n/a	4	4	CLIFF	n/a	SMILE	CLIFF	3	[0, 0, 0]	-999	PAL1	0	R1097N
470.813	0.001	860363	TEST_PROBE	n/a	wordpools/wordpool_EN.txt	4	4	CLIFF	n/a	SMILE	CLIFF	3	[0, 0, 0]	-999	PAL1	0	R1097N
470.814	4.998	860364	REC_START	n/a	n/a	4	-999	n/a	n/a	n/a	n/a	3	[0, 0, 0]	-999	PAL1	0	R1097N
475.812	0.001	865360	REC_EVENT	4998	n/a	4	4	CLIFF	<>	SMILE	CLIFF	3	[0, 0, 0]	-999	PAL1	0	R1097N
475.813	0.018	865361	REC_END	n/a	n/a	4	-999	n/a	n/a	n/a	n/a	3	[0, 0, 0]	-999	PAL1	0	R1097N
475.831	0.973	865379	TEST_ORIENT	n/a	n/a	3	5	BRUSH	BED	PURSE	BRUSH	3	[0, 0, 0]	-999	PAL1	0	R1097N
476.804	0.001	866351	TEST_PROBE	n/a	wordpools/wordpool_EN.txt	3	5	BRUSH	BED	PURSE	BRUSH	3	[0, 0, 0]	-999	PAL1	0	R1097N
476.805	4.055	866352	REC_START	n/a	n/a	3	-999	n/a	BED	n/a	n/a	3	[0, 0, 0]	-999	PAL1	0	R1097N
480.86	0.944	870405	REC_EVENT	4055	n/a	3	5	BRUSH	BED	PURSE	BRUSH	3	[0, 0, 0]	-999	PAL1	0	R1097N
481.804	0.018	871349	REC_END	n/a	n/a	3	-999	n/a	n/a	n/a	n/a	3	[0, 0, 0]	-999	PAL1	0	R1097N
481.822	0.994	871367	TEST_ORIENT	n/a	n/a	6	6	MOUTH	MOUTH	BED	MOUTH	3	[0, 0, 0]	-999	PAL1	0	R1097N
482.816	0.001	872360	TEST_PROBE	n/a	wordpools/wordpool_EN.txt	6	6	MOUTH	MOUTH	BED	MOUTH	3	[0, 0, 0]	-999	PAL1	0	R1097N
482.817	4.114	872361	REC_START	n/a	n/a	6	-999	n/a	MOUTH	n/a	n/a	3	[0, 0, 0]	-999	PAL1	0	R1097N
486.931	0.885	876473	REC_EVENT	4114	n/a	6	6	MOUTH	MOUTH	BED	MOUTH	3	[0, 0, 0]	-999	PAL1	0	R1097N
487.816	0.027	877358	REC_END	n/a	n/a	6	-999	n/a	n/a	n/a	n/a	3	[0, 0, 0]	-999	PAL1	0	R1097N
487.843	16.723	877385	FORCED_BREAK	n/a	n/a	6	-999	n/a	n/a	n/a	n/a	3	[0, 0, 0]	-999	PAL1	0	R1097N
504.566	0.004	894100	ENCODING_START	n/a	n/a	0	-999	n/a	n/a	n/a	n/a	4	[0, 0, 0]	-999	PAL1	0	R1097N
504.57	0.977	894104	STUDY_ORIENT	n/a	n/a	1	3	SPRING	ROOM	SPRING	ROOM	4	[0, 0, 0]	-999	PAL1	0	R1097N
505.547	5.001	895081	STUDY_PAIR	n/a	wordpools/wordpool_EN.txt	1	3	SPRING	ROOM	SPRING	ROOM	4	[0, 0, 0]	-999	PAL1	0	R1097N
510.548	0.886	900079	STUDY_ORIENT	n/a	n/a	2	4	CHIEF	n/a	BREAD	CHIEF	4	[0, 0, 0]	-999	PAL1	0	R1097N
511.434	5.001	900965	STUDY_PAIR	n/a	wordpools/wordpool_EN.txt	2	4	CHIEF	n/a	BREAD	CHIEF	4	[0, 0, 0]	-999	PAL1	0	R1097N
516.435	0.8	905963	STUDY_ORIENT	n/a	n/a	3	1	COW	CROW	COW	CROW	4	[0, 0, 0]	-999	PAL1	0	R1097N
517.235	5.001	906763	STUDY_PAIR	n/a	wordpools/wordpool_EN.txt	3	1	COW	CROW	COW	CROW	4	[0, 0, 0]	-999	PAL1	0	R1097N
522.236	0.797	911762	STUDY_ORIENT	n/a	n/a	4	6	VASE	n/a	STEAM	VASE	4	[0, 0, 0]	-999	PAL1	0	R1097N
523.033	5.0	912558	STUDY_PAIR	n/a	wordpools/wordpool_EN.txt	4	6	VASE	n/a	STEAM	VASE	4	[0, 0, 0]	-999	PAL1	0	R1097N
528.033	0.853	917556	STUDY_ORIENT	n/a	n/a	5	5	WALL	INK	WALL	INK	4	[0, 0, 0]	-999	PAL1	0	R1097N
528.886	5.0	918409	STUDY_PAIR	n/a	wordpools/wordpool_EN.txt	5	5	WALL	INK	WALL	INK	4	[0, 0, 0]	-999	PAL1	0	R1097N
533.886	0.793	923406	STUDY_ORIENT	n/a	n/a	6	2	FOAM	n/a	FOAM	DOG	4	[0, 0, 0]	-999	PAL1	0	R1097N
534.679	4.001	924199	STUDY_PAIR	n/a	wordpools/wordpool_EN.txt	6	2	FOAM	n/a	FOAM	DOG	4	[0, 0, 0]	-999	PAL1	0	R1097N
538.68	0.999	928198	START	n/a	n/a	-999	-999	n/a	n/a	n/a	n/a	4	[-999, -999, -999]	-999	PAL1	0	R1097N
539.679	0.001	929196	MATH_START	n/a	n/a	-999	-999	n/a	n/a	n/a	n/a	4	[0, 0, 0]	-999	PAL1	0	R1097N
539.68	9.511	929197	PROB	9506	n/a	-999	-999	n/a	n/a	n/a	n/a	4	[9, 5, 9]	23	PAL1	0	R1097N
549.191	4.697	938704	PROB	4693	n/a	-999	-999	n/a	n/a	n/a	n/a	4	[2, 2, 7]	11	PAL1	0	R1097N
553.888	4.018	943399	PROB	4013	n/a	-999	-999	n/a	n/a	n/a	n/a	4	[4, 6, 6]	16	PAL1	0	R1097N
557.906	2.989	947415	PROB	2989	n/a	-999	-999	n/a	n/a	n/a	n/a	4	[2, 6, 4]	12	PAL1	0	R1097N
560.895	0.001	950402	STOP	n/a	n/a	-999	-999	n/a	n/a	n/a	n/a	4	[-999, -999, -999]	-999	PAL1	0	R1097N
560.896	0.0	950403	MATH_END	n/a	n/a	-999	-999	n/a	n/a	n/a	n/a	4	[0, 0, 0]	-999	PAL1	0	R1097N
560.896	0.002	950403	TEST_START	n/a	n/a	-999	-999	n/a	n/a	n/a	n/a	4	[0, 0, 0]	-999	PAL1	0	R1097N
560.898	0.806	950405	TEST_ORIENT	n/a	n/a	3	1	COW	CROW	COW	CROW	4	[0, 0, 0]	-999	PAL1	0	R1097N
561.704	0.001	951211	TEST_PROBE	n/a	wordpools/wordpool_EN.txt	3	1	COW	CROW	COW	CROW	4	[0, 0, 0]	-999	PAL1	0	R1097N
561.705	2.65	951212	REC_START	n/a	n/a	3	-999	n/a	CROW	n/a	n/a	4	[0, 0, 0]	-999	PAL1	0	R1097N
564.355	2.349	953861	REC_EVENT	2650	n/a	3	1	COW	CROW	COW	CROW	4	[0, 0, 0]	-999	PAL1	0	R1097N
566.704	0.018	956209	REC_END	n/a	n/a	3	-999	n/a	n/a	n/a	n/a	4	[0, 0, 0]	-999	PAL1	0	R1097N
566.722	0.829	956227	TEST_ORIENT	n/a	n/a	6	2	FOAM	n/a	FOAM	DOG	4	[0, 0, 0]	-999	PAL1	0	R1097N
567.551	0.001	957055	TEST_PROBE	n/a	wordpools/wordpool_EN.txt	6	2	FOAM	n/a	FOAM	DOG	4	[0, 0, 0]	-999	PAL1	0	R1097N
567.552	4.992	957056	REC_START	n/a	n/a	6	-999	n/a	n/a	n/a	n/a	4	[0, 0, 0]	-999	PAL1	0	R1097N
572.544	0.007	962046	REC_EVENT	4992	n/a	6	2	FOAM	<>	FOAM	DOG	4	[0, 0, 0]	-999	PAL1	0	R1097N
572.551	0.018	962053	REC_END	n/a	n/a	6	-999	n/a	n/a	n/a	n/a	4	[0, 0, 0]	-999	PAL1	0	R1097N
572.569	0.966	962071	TEST_ORIENT	n/a	n/a	1	3	SPRING	ROOM	SPRING	ROOM	4	[0, 0, 0]	-999	PAL1	0	R1097N
573.535	0.001	963036	TEST_PROBE	n/a	wordpools/wordpool_EN.txt	1	3	SPRING	ROOM	SPRING	ROOM	4	[0, 0, 0]	-999	PAL1	0	R1097N
573.536	2.382	963037	REC_START	n/a	n/a	1	-999	n/a	ROOM	n/a	n/a	4	[0, 0, 0]	-999	PAL1	0	R1097N
575.918	2.617	965418	REC_EVENT	2382	n/a	1	3	SPRING	ROOM	SPRING	ROOM	4	[0, 0, 0]	-999	PAL1	0	R1097N
578.535	0.018	968034	REC_END	n/a	n/a	1	-999	n/a	n/a	n/a	n/a	4	[0, 0, 0]	-999	PAL1	0	R1097N
578.553	0.91	968052	TEST_ORIENT	n/a	n/a	2	4	CHIEF	n/a	BREAD	CHIEF	4	[0, 0, 0]	-999	PAL1	0	R1097N
579.463	0.001	968962	TEST_PROBE	n/a	wordpools/wordpool_EN.txt	2	4	CHIEF	n/a	BREAD	CHIEF	4	[0, 0, 0]	-999	PAL1	0	R1097N
579.464	4.998	968963	REC_START	n/a	n/a	2	-999	n/a	n/a	n/a	n/a	4	[0, 0, 0]	-999	PAL1	0	R1097N
584.462	0.001	973958	REC_EVENT	4998	n/a	2	4	CHIEF	<>	BREAD	CHIEF	4	[0, 0, 0]	-999	PAL1	0	R1097N
584.463	0.018	973959	REC_END	n/a	n/a	2	-999	n/a	n/a	n/a	n/a	4	[0, 0, 0]	-999	PAL1	0	R1097N
584.481	0.935	973977	TEST_ORIENT	n/a	n/a	5	5	WALL	INK	WALL	INK	4	[0, 0, 0]	-999	PAL1	0	R1097N
585.416	0.001	974912	TEST_PROBE	n/a	wordpools/wordpool_EN.txt	5	5	WALL	INK	WALL	INK	4	[0, 0, 0]	-999	PAL1	0	R1097N
585.417	1.108	974913	REC_START	n/a	n/a	5	-999	n/a	INK	n/a	n/a	4	[0, 0, 0]	-999	PAL1	0	R1097N
586.525	3.891	976020	REC_EVENT	1108	n/a	5	5	WALL	INK	WALL	INK	4	[0, 0, 0]	-999	PAL1	0	R1097N
590.416	0.018	979909	REC_END	n/a	n/a	5	-999	n/a	n/a	n/a	n/a	4	[0, 0, 0]	-999	PAL1	0	R1097N
590.434	0.823	979927	TEST_ORIENT	n/a	n/a	4	6	VASE	n/a	STEAM	VASE	4	[0, 0, 0]	-999	PAL1	0	R1097N
591.257	0.001	980750	TEST_PROBE	n/a	wordpools/wordpool_EN.txt	4	6	VASE	n/a	STEAM	VASE	4	[0, 0, 0]	-999	PAL1	0	R1097N
591.258	4.998	980751	REC_START	n/a	n/a	4	-999	n/a	n/a	n/a	n/a	4	[0, 0, 0]	-999	PAL1	0	R1097N
596.256	0.001	985747	REC_EVENT	4998	n/a	4	6	VASE	<>	STEAM	VASE	4	[0, 0, 0]	-999	PAL1	0	R1097N
596.257	0.026	985748	REC_END	n/a	n/a	4	-999	n/a	n/a	n/a	n/a	4	[0, 0, 0]	-999	PAL1	0	R1097N
596.283	14.441	985774	FORCED_BREAK	n/a	n/a	4	-999	n/a	n/a	n/a	n/a	4	[0, 0, 0]	-999	PAL1	0	R1097N
610.724	0.004	1000208	ENCODING_START	n/a	n/a	0	-999	n/a	n/a	n/a	n/a	5	[0, 0, 0]	-999	PAL1	0	R1097N
610.728	0.771	1000212	STUDY_ORIENT	n/a	n/a	1	5	WORM	n/a	BOWL	WORM	5	[0, 0, 0]	-999	PAL1	0	R1097N
611.499	5.001	1000982	STUDY_PAIR	n/a	wordpools/wordpool_EN.txt	1	5	WORM	n/a	BOWL	WORM	5	[0, 0, 0]	-999	PAL1	0	R1097N
616.5	0.783	1005981	STUDY_ORIENT	n/a	n/a	2	6	MUD	ROPE	STRING	MUD	5	[0, 0, 0]	-999	PAL1	0	R1097N
617.283	5.0	1006764	STUDY_PAIR	n/a	wordpools/wordpool_EN.txt	2	6	MUD	ROPE	STRING	MUD	5	[0, 0, 0]	-999	PAL1	0	R1097N
622.283	0.94	1011761	STUDY_ORIENT	n/a	n/a	3	3	SEED	SEA	SEA	SEED	5	[0, 0, 0]	-999	PAL1	0	R1097N
623.223	5.0	1012701	STUDY_PAIR	n/a	wordpools/wordpool_EN.txt	3	3	SEED	SEA	SEA	SEED	5	[0, 0, 0]	-999	PAL1	0	R1097N
628.223	0.931	1017698	STUDY_ORIENT	n/a	n/a	4	2	SOCK	CASH	WAND	SOCK	5	[0, 0, 0]	-999	PAL1	0	R1097N
629.154	5.001	1018629	STUDY_PAIR	n/a	wordpools/wordpool_EN.txt	4	2	SOCK	CASH	WAND	SOCK	5	[0, 0, 0]	-999	PAL1	0	R1097N
634.155	0.89	1023628	STUDY_ORIENT	n/a	n/a	5	1	BUSH	BLOOM	BUSH	BLOOM	5	[0, 0, 0]	-999	PAL1	0	R1097N
635.045	5.001	1024517	STUDY_PAIR	n/a	wordpools/wordpool_EN.txt	5	1	BUSH	BLOOM	BUSH	BLOOM	5	[0, 0, 0]	-999	PAL1	0	R1097N
640.046	0.899	1029516	STUDY_ORIENT	n/a	n/a	6	4	CASH	SOAP	SOAP	CASH	5	[0, 0, 0]	-999	PAL1	0	R1097N
640.945	4.001	1030414	STUDY_PAIR	n/a	wordpools/wordpool_EN.txt	6	4	CASH	SOAP	SOAP	CASH	5	[0, 0, 0]	-999	PAL1	0	R1097N
644.946	0.999	1034414	START	n/a	n/a	-999	-999	n/a	n/a	n/a	n/a	5	[-999, -999, -999]	-999	PAL1	0	R1097N
645.945	0.001	1035412	MATH_START	n/a	n/a	-999	-999	n/a	n/a	n/a	n/a	5	[0, 0, 0]	-999	PAL1	0	R1097N
645.946	9.426	1035413	PROB	9422	n/a	-999	-999	n/a	n/a	n/a	n/a	5	[8, 7, 3]	18	PAL1	0	R1097N
655.372	9.099	1044835	PROB	9095	n/a	-999	-999	n/a	n/a	n/a	n/a	5	[4, 9, 6]	19	PAL1	0	R1097N
664.471	5.711	1053929	PROB	5711	n/a	-999	-999	n/a	n/a	n/a	n/a	5	[9, 7, 2]	18	PAL1	0	R1097N
670.182	0.002	1059638	STOP	n/a	n/a	-999	-999	n/a	n/a	n/a	n/a	5	[-999, -999, -999]	-999	PAL1	0	R1097N
670.184	0.0	1059640	MATH_END	n/a	n/a	-999	-999	n/a	n/a	n/a	n/a	5	[0, 0, 0]	-999	PAL1	0	R1097N
670.184	0.002	1059640	TEST_START	n/a	n/a	-999	-999	n/a	n/a	n/a	n/a	5	[0, 0, 0]	-999	PAL1	0	R1097N
670.186	0.931	1059642	TEST_ORIENT	n/a	n/a	5	1	BUSH	BLOOM	BUSH	BLOOM	5	[0, 0, 0]	-999	PAL1	0	R1097N
671.117	0.001	1060572	TEST_PROBE	n/a	wordpools/wordpool_EN.txt	5	1	BUSH	BLOOM	BUSH	BLOOM	5	[0, 0, 0]	-999	PAL1	0	R1097N
671.118	1.258	1060573	REC_START	n/a	n/a	5	-999	n/a	BLOOM	n/a	n/a	5	[0, 0, 0]	-999	PAL1	0	R1097N
672.376	3.741	1061831	REC_EVENT	1258	n/a	5	1	BUSH	BLOOM	BUSH	BLOOM	5	[0, 0, 0]	-999	PAL1	0	R1097N
676.117	0.018	1065570	REC_END	n/a	n/a	5	-999	n/a	n/a	n/a	n/a	5	[0, 0, 0]	-999	PAL1	0	R1097N
676.135	0.784	1065588	TEST_ORIENT	n/a	n/a	4	2	SOCK	CASH	WAND	SOCK	5	[0, 0, 0]	-999	PAL1	0	R1097N
676.919	0.001	1066371	TEST_PROBE	n/a	wordpools/wordpool_EN.txt	4	2	SOCK	CASH	WAND	SOCK	5	[0, 0, 0]	-999	PAL1	0	R1097N
676.92	1.14	1066372	REC_START	n/a	n/a	4	-999	n/a	CASH	n/a	n/a	5	[0, 0, 0]	-999	PAL1	0	R1097N
678.06	1.658	1067512	REC_EVENT	1140	n/a	4	2	SOCK	CASH	WAND	SOCK	5	[0, 0, 0]	-999	PAL1	0	R1097N
679.718	2.201	1069169	REC_EVENT	2798	n/a	4	2	SOCK	<>	WAND	SOCK	5	[0, 0, 0]	-999	PAL1	0	R1097N
681.919	0.018	1071369	REC_END	n/a	n/a	4	-999	n/a	n/a	n/a	n/a	5	[0, 0, 0]	-999	PAL1	0	R1097N
681.937	0.762	1071387	TEST_ORIENT	n/a	n/a	3	3	SEED	SEA	SEA	SEED	5	[0, 0, 0]	-999	PAL1	0	R1097N
682.699	0.001	1072149	TEST_PROBE	n/a	wordpools/wordpool_EN.txt	3	3	SEED	SEA	SEA	SEED	5	[0, 0, 0]	-999	PAL1	0	R1097N
682.7	2.633	1072150	REC_START	n/a	n/a	3	-999	n/a	SEA	n/a	n/a	5	[0, 0, 0]	-999	PAL1	0	R1097N
685.333	2.366	1074781	REC_EVENT	2633	n/a	3	3	SEED	SEA	SEA	SEED	5	[0, 0, 0]	-999	PAL1	0	R1097N
687.699	0.019	1077146	REC_END	n/a	n/a	3	-999	n/a	n/a	n/a	n/a	5	[0, 0, 0]	-999	PAL1	0	R1097N
687.718	0.864	1077165	TEST_ORIENT	n/a	n/a	6	4	CASH	SOAP	SOAP	CASH	5	[0, 0, 0]	-999	PAL1	0	R1097N
688.582	0.001	1078029	TEST_PROBE	n/a	wordpools/wordpool_EN.txt	6	4	CASH	SOAP	SOAP	CASH	5	[0, 0, 0]	-999	PAL1	0	R1097N
688.583	1.795	1078030	REC_START	n/a	n/a	6	-999	n/a	SOAP	n/a	n/a	5	[0, 0, 0]	-999	PAL1	0	R1097N
690.378	0.972	1079824	REC_EVENT	1795	n/a	6	4	CASH	CASH	SOAP	CASH	5	[0, 0, 0]	-999	PAL1	0	R1097N
691.35	2.232	1080796	REC_EVENT	2767	n/a	6	4	CASH	SOAP	SOAP	CASH	5	[0, 0, 0]	-999	PAL1	0	R1097N
693.582	0.018	1083026	REC_END	n/a	n/a	6	-999	n/a	n/a	n/a	n/a	5	[0, 0, 0]	-999	PAL1	0	R1097N
693.6	0.943	1083044	TEST_ORIENT	n/a	n/a	1	5	WORM	n/a	BOWL	WORM	5	[0, 0, 0]	-999	PAL1	0	R1097N
694.543	0.002	1083987	TEST_PROBE	n/a	wordpools/wordpool_EN.txt	1	5	WORM	n/a	BOWL	WORM	5	[0, 0, 0]	-999	PAL1	0	R1097N
694.545	1.802	1083989	REC_START	n/a	n/a	1	-999	n/a	n/a	n/a	n/a	5	[0, 0, 0]	-999	PAL1	0	R1097N
696.347	2.445	1085790	REC_EVENT	1802	n/a	1	5	WORM	<>	BOWL	WORM	5	[0, 0, 0]	-999	PAL1	0	R1097N
698.792	0.751	1088234	REC_EVENT	4247	n/a	1	5	WORM	<>	BOWL	WORM	5	[0, 0, 0]	-999	PAL1	0	R1097N
699.543	0.018	1088985	REC_END	n/a	n/a	1	-999	n/a	n/a	n/a	n/a	5	[0, 0, 0]	-999	PAL1	0	R1097N
699.561	0.779	1089003	TEST_ORIENT	n/a	n/a	2	6	MUD	ROPE	STRING	MUD	5	[0, 0, 0]	-999	PAL1	0	R1097N
700.34	0.001	1089781	TEST_PROBE	n/a	wordpools/wordpool_EN.txt	2	6	MUD	ROPE	STRING	MUD	5	[0, 0, 0]	-999	PAL1	0	R1097N
700.341	1.7	1089782	REC_START	n/a	n/a	2	-999	n/a	ROPE	n/a	n/a	5	[0, 0, 0]	-999	PAL1	0	R1097N
702.041	0.537	1091481	REC_EVENT	1700	n/a	2	6	MUD	MUD	STRING	MUD	5	[0, 0, 0]	-999	PAL1	0	R1097N
702.578	1.478	1092018	REC_EVENT	2237	n/a	2	6	MUD	<>	STRING	MUD	5	[0, 0, 0]	-999	PAL1	0	R1097N
704.056	1.284	1093495	REC_EVENT	3715	n/a	2	6	MUD	ROPE	STRING	MUD	5	[0, 0, 0]	-999	PAL1	0	R1097N
705.34	0.026	1094779	REC_END	n/a	n/a	2	-999	n/a	n/a	n/a	n/a	5	[0, 0, 0]	-999	PAL1	0	R1097N
705.366	20.672	1094805	FORCED_BREAK	n/a	n/a	2	-999	n/a	n/a	n/a	n/a	5	[0, 0, 0]	-999	PAL1	0	R1097N
726.038	0.003	1115467	ENCODING_START	n/a	n/a	0	-999	n/a	n/a	n/a	n/a	6	[0, 0, 0]	-999	PAL1	0	R1097N
726.041	0.76	1115470	STUDY_ORIENT	n/a	n/a	1	3	SALT	n/a	MAP	SALT	6	[0, 0, 0]	-999	PAL1	0	R1097N
726.801	5.001	1116230	STUDY_PAIR	n/a	wordpools/wordpool_EN.txt	1	3	SALT	n/a	MAP	SALT	6	[0, 0, 0]	-999	PAL1	0	R1097N
731.802	0.849	1121228	STUDY_ORIENT	n/a	n/a	2	2	PEACH	n/a	PEACH	LAMB	6	[0, 0, 0]	-999	PAL1	0	R1097N
732.651	5.0	1122077	STUDY_PAIR	n/a	wordpools/wordpool_EN.txt	2	2	PEACH	n/a	PEACH	LAMB	6	[0, 0, 0]	-999	PAL1	0	R1097N
737.651	0.937	1127075	STUDY_ORIENT	n/a	n/a	3	1	PEARL	TOAST	PEARL	TOAST	6	[0, 0, 0]	-999	PAL1	0	R1097N
738.588	5.0	1128011	STUDY_PAIR	n/a	wordpools/wordpool_EN.txt	3	1	PEARL	TOAST	PEARL	TOAST	6	[0, 0, 0]	-999	PAL1	0	R1097N
743.588	0.812	1133009	STUDY_ORIENT	n/a	n/a	4	6	TOY	PARK	TOY	PARK	6	[0, 0, 0]	-999	PAL1	0	R1097N
744.4	5.0	1133820	STUDY_PAIR	n/a	wordpools/wordpool_EN.txt	4	6	TOY	PARK	TOY	PARK	6	[0, 0, 0]	-999	PAL1	0	R1097N
749.4	0.867	1138818	STUDY_ORIENT	n/a	n/a	5	5	NAIL	n/a	NAIL	VINE	6	[0, 0, 0]	-999	PAL1	0	R1097N
750.267	5.0	1139685	STUDY_PAIR	n/a	wordpools/wordpool_EN.txt	5	5	NAIL	n/a	NAIL	VINE	6	[0, 0, 0]	-999	PAL1	0	R1097N
755.267	0.936	1144682	STUDY_ORIENT	n/a	n/a	6	4	FROG	n/a	FROG	ROPE	6	[0, 0, 0]	-999	PAL1	0	R1097N
756.203	4.001	1145618	STUDY_PAIR	n/a	wordpools/wordpool_EN.txt	6	4	FROG	n/a	FROG	ROPE	6	[0, 0, 0]	-999	PAL1	0	R1097N
760.204	0.999	1149617	START	n/a	n/a	-999	-999	n/a	n/a	n/a	n/a	6	[-999, -999, -999]	-999	PAL1	0	R1097N
761.203	0.001	1150615	MATH_START	n/a	n/a	-999	-999	n/a	n/a	n/a	n/a	6	[0, 0, 0]	-999	PAL1	0	R1097N
761.204	5.72	1150616	PROB	5715	n/a	-999	-999	n/a	n/a	n/a	n/a	6	[1, 5, 8]	14	PAL1	0	R1097N
766.924	5.53	1156334	PROB	5525	n/a	-999	-999	n/a	n/a	n/a	n/a	6	[6, 4, 9]	19	PAL1	0	R1097N
772.454	4.883	1161861	PROB	4878	n/a	-999	-999	n/a	n/a	n/a	n/a	6	[3, 2, 5]	10	PAL1	0	R1097N
777.337	5.589	1166742	PROB	5589	n/a	-999	-999	n/a	n/a	n/a	n/a	6	[6, 9, 4]	19	PAL1	0	R1097N
782.926	0.002	1172328	STOP	n/a	n/a	-999	-999	n/a	n/a	n/a	n/a	6	[-999, -999, -999]	-999	PAL1	0	R1097N
782.928	0.0	1172330	TEST_START	n/a	n/a	-999	-999	n/a	n/a	n/a	n/a	6	[0, 0, 0]	-999	PAL1	0	R1097N
782.928	0.002	1172330	MATH_END	n/a	n/a	-999	-999	n/a	n/a	n/a	n/a	6	[0, 0, 0]	-999	PAL1	0	R1097N
782.93	0.801	1172332	TEST_ORIENT	n/a	n/a	3	1	PEARL	TOAST	PEARL	TOAST	6	[0, 0, 0]	-999	PAL1	0	R1097N
783.731	0.001	1173133	TEST_PROBE	n/a	wordpools/wordpool_EN.txt	3	1	PEARL	TOAST	PEARL	TOAST	6	[0, 0, 0]	-999	PAL1	0	R1097N
783.732	3.299	1173134	REC_START	n/a	n/a	3	-999	n/a	TOAST	n/a	n/a	6	[0, 0, 0]	-999	PAL1	0	R1097N
787.031	0.907	1176431	REC_EVENT	3299	n/a	3	1	PEARL	FROG	PEARL	TOAST	6	[0, 0, 0]	-999	PAL1	0	R1097N
787.938	0.793	1177338	REC_EVENT	4206	n/a	3	1	PEARL	TOAST	PEARL	TOAST	6	[0, 0, 0]	-999	PAL1	0	R1097N
788.731	0.018	1178130	REC_END	n/a	n/a	3	-999	n/a	n/a	n/a	n/a	6	[0, 0, 0]	-999	PAL1	0	R1097N
788.749	0.834	1178148	TEST_ORIENT	n/a	n/a	2	2	PEACH	n/a	PEACH	LAMB	6	[0, 0, 0]	-999	PAL1	0	R1097N
789.583	0.001	1178982	TEST_PROBE	n/a	wordpools/wordpool_EN.txt	2	2	PEACH	n/a	PEACH	LAMB	6	[0, 0, 0]	-999	PAL1	0	R1097N
789.584	4.992	1178983	REC_START	n/a	n/a	2	-999	n/a	n/a	n/a	n/a	6	[0, 0, 0]	-999	PAL1	0	R1097N
794.576	0.007	1183973	REC_EVENT	4992	n/a	2	2	PEACH	<>	PEACH	LAMB	6	[0, 0, 0]	-999	PAL1	0	R1097N
794.583	0.018	1183980	REC_END	n/a	n/a	2	-999	n/a	n/a	n/a	n/a	6	[0, 0, 0]	-999	PAL1	0	R1097N
794.601	0.899	1183998	TEST_ORIENT	n/a	n/a	1	3	SALT	n/a	MAP	SALT	6	[0, 0, 0]	-999	PAL1	0	R1097N
795.5	0.001	1184896	TEST_PROBE	n/a	wordpools/wordpool_EN.txt	1	3	SALT	n/a	MAP	SALT	6	[0, 0, 0]	-999	PAL1	0	R1097N
795.501	4.992	1184897	REC_START	n/a	n/a	1	-999	n/a	n/a	n/a	n/a	6	[0, 0, 0]	-999	PAL1	0	R1097N
800.493	0.007	1189887	REC_EVENT	4992	n/a	1	3	SALT	<>	MAP	SALT	6	[0, 0, 0]	-999	PAL1	0	R1097N
800.5	0.018	1189894	REC_END	n/a	n/a	1	-999	n/a	n/a	n/a	n/a	6	[0, 0, 0]	-999	PAL1	0	R1097N
800.518	0.943	1189912	TEST_ORIENT	n/a	n/a	6	4	FROG	n/a	FROG	ROPE	6	[0, 0, 0]	-999	PAL1	0	R1097N
801.461	0.001	1190854	TEST_PROBE	n/a	wordpools/wordpool_EN.txt	6	4	FROG	n/a	FROG	ROPE	6	[0, 0, 0]	-999	PAL1	0	R1097N
801.462	4.998	1190855	REC_START	n/a	n/a	6	-999	n/a	n/a	n/a	n/a	6	[0, 0, 0]	-999	PAL1	0	R1097N
806.46	0.001	1195851	REC_EVENT	4998	n/a	6	4	FROG	<>	FROG	ROPE	6	[0, 0, 0]	-999	PAL1	0	R1097N
806.461	0.019	1195852	REC_END	n/a	n/a	6	-999	n/a	n/a	n/a	n/a	6	[0, 0, 0]	-999	PAL1	0	R1097N
806.48	0.768	1195871	TEST_ORIENT	n/a	n/a	5	5	NAIL	n/a	NAIL	VINE	6	[0, 0, 0]	-999	PAL1	0	R1097N
807.248	0.001	1196639	TEST_PROBE	n/a	wordpools/wordpool_EN.txt	5	5	NAIL	n/a	NAIL	VINE	6	[0, 0, 0]	-999	PAL1	0	R1097N
807.249	2.938	1196640	REC_START	n/a	n/a	5	-999	n/a	n/a	n/a	n/a	6	[0, 0, 0]	-999	PAL1	0	R1097N
810.187	2.061	1199576	REC_EVENT	2938	n/a	5	5	NAIL	<>	NAIL	VINE	6	[0, 0, 0]	-999	PAL1	0	R1097N
812.248	0.018	1201636	REC_END	n/a	n/a	5	-999	n/a	n/a	n/a	n/a	6	[0, 0, 0]	-999	PAL1	0	R1097N
812.266	0.908	1201654	TEST_ORIENT	n/a	n/a	4	6	TOY	PARK	TOY	PARK	6	[0, 0, 0]	-999	PAL1	0	R1097N
813.174	0.002	1202562	TEST_PROBE	n/a	wordpools/wordpool_EN.txt	4	6	TOY	PARK	TOY	PARK	6	[0, 0, 0]	-999	PAL1	0	R1097N
813.176	1.833	1202564	REC_START	n/a	n/a	4	-999	n/a	PARK	n/a	n/a	6	[0, 0, 0]	-999	PAL1	0	R1097N
815.009	0.618	1204396	REC_EVENT	1833	n/a	4	6	TOY	TOY	TOY	PARK	6	[0, 0, 0]	-999	PAL1	0	R1097N
815.627	2.547	1205014	REC_EVENT	2451	n/a	4	6	TOY	PARK	TOY	PARK	6	[0, 0, 0]	-999	PAL1	0	R1097N
818.174	0.026	1207559	REC_END	n/a	n/a	4	-999	n/a	n/a	n/a	n/a	6	[0, 0, 0]	-999	PAL1	0	R1097N
818.2	18.637	1207585	FORCED_BREAK	n/a	n/a	4	-999	n/a	n/a	n/a	n/a	6	[0, 0, 0]	-999	PAL1	0	R1097N
836.837	0.004	1226213	ENCODING_START	n/a	n/a	0	-999	n/a	n/a	n/a	n/a	7	[0, 0, 0]	-999	PAL1	0	R1097N
836.841	0.831	1226217	STUDY_ORIENT	n/a	n/a	1	3	FOOD	FORK	FORK	FOOD	7	[0, 0, 0]	-999	PAL1	0	R1097N
837.672	5.001	1227048	STUDY_PAIR	n/a	wordpools/wordpool_EN.txt	1	3	FOOD	FORK	FORK	FOOD	7	[0, 0, 0]	-999	PAL1	0	R1097N
842.673	0.928	1232047	STUDY_ORIENT	n/a	n/a	2	2	CUP	FORK	CUP	YARD	7	[0, 0, 0]	-999	PAL1	0	R1097N
843.601	5.001	1232974	STUDY_PAIR	n/a	wordpools/wordpool_EN.txt	2	2	CUP	FORK	CUP	YARD	7	[0, 0, 0]	-999	PAL1	0	R1097N
848.602	0.991	1237973	STUDY_ORIENT	n/a	n/a	3	5	STORM	n/a	STORM	THUMB	7	[0, 0, 0]	-999	PAL1	0	R1097N
849.593	5.001	1238963	STUDY_PAIR	n/a	wordpools/wordpool_EN.txt	3	5	STORM	n/a	STORM	THUMB	7	[0, 0, 0]	-999	PAL1	0	R1097N
854.594	0.998	1243962	STUDY_ORIENT	n/a	n/a	4	6	BRANCH	n/a	HOOF	BRANCH	7	[0, 0, 0]	-999	PAL1	0	R1097N
855.592	5.001	1244960	STUDY_PAIR	n/a	wordpools/wordpool_EN.txt	4	6	BRANCH	n/a	HOOF	BRANCH	7	[0, 0, 0]	-999	PAL1	0	R1097N
860.593	0.802	1249958	STUDY_ORIENT	n/a	n/a	5	1	FARM	n/a	CORD	FARM	7	[0, 0, 0]	-999	PAL1	0	R1097N
861.395	5.0	1250760	STUDY_PAIR	n/a	wordpools/wordpool_EN.txt	5	1	FARM	n/a	CORD	FARM	7	[0, 0, 0]	-999	PAL1	0	R1097N
866.395	0.873	1255757	STUDY_ORIENT	n/a	n/a	6	4	PIPE	n/a	BROOM	PIPE	7	[0, 0, 0]	-999	PAL1	0	R1097N
867.268	4.001	1256630	STUDY_PAIR	n/a	wordpools/wordpool_EN.txt	6	4	PIPE	n/a	BROOM	PIPE	7	[0, 0, 0]	-999	PAL1	0	R1097N
871.269	0.999	1260629	START	n/a	n/a	-999	-999	n/a	n/a	n/a	n/a	7	[-999, -999, -999]	-999	PAL1	0	R1097N
872.268	0.001	1261628	MATH_START	n/a	n/a	-999	-999	n/a	n/a	n/a	n/a	7	[0, 0, 0]	-999	PAL1	0	R1097N
872.269	8.423	1261629	PROB	8419	n/a	-999	-999	n/a	n/a	n/a	n/a	7	[9, 9, 8]	26	PAL1	0	R1097N
880.692	7.685	1270048	PROB	7680	n/a	-999	-999	n/a	n/a	n/a	n/a	7	[8, 9, 6]	23	PAL1	0	R1097N
888.377	7.622	1277729	PROB	7622	n/a	-999	-999	n/a	n/a	n/a	n/a	7	[2, 5, 2]	9	PAL1	0	R1097N
895.999	0.001	1285347	STOP	n/a	n/a	-999	-999	n/a	n/a	n/a	n/a	7	[-999, -999, -999]	-999	PAL1	0	R1097N
896.0	0.0	1285348	MATH_END	n/a	n/a	-999	-999	n/a	n/a	n/a	n/a	7	[0, 0, 0]	-999	PAL1	0	R1097N
896.0	0.002	1285348	TEST_START	n/a	n/a	-999	-999	n/a	n/a	n/a	n/a	7	[0, 0, 0]	-999	PAL1	0	R1097N
896.002	0.949	1285350	TEST_ORIENT	n/a	n/a	5	1	FARM	n/a	CORD	FARM	7	[0, 0, 0]	-999	PAL1	0	R1097N
896.951	0.001	1286299	TEST_PROBE	n/a	wordpools/wordpool_EN.txt	5	1	FARM	n/a	CORD	FARM	7	[0, 0, 0]	-999	PAL1	0	R1097N
896.952	4.992	1286300	REC_START	n/a	n/a	5	-999	n/a	n/a	n/a	n/a	7	[0, 0, 0]	-999	PAL1	0	R1097N
901.944	0.007	1291290	REC_EVENT	4992	n/a	5	1	FARM	<>	CORD	FARM	7	[0, 0, 0]	-999	PAL1	0	R1097N
901.951	0.018	1291297	REC_END	n/a	n/a	5	-999	n/a	n/a	n/a	n/a	7	[0, 0, 0]	-999	PAL1	0	R1097N
901.969	0.999	1291315	TEST_ORIENT	n/a	n/a	2	2	CUP	FORK	CUP	YARD	7	[0, 0, 0]	-999	PAL1	0	R1097N
902.968	0.001	1292313	TEST_PROBE	n/a	wordpools/wordpool_EN.txt	2	2	CUP	FORK	CUP	YARD	7	[0, 0, 0]	-999	PAL1	0	R1097N
902.969	4.639	1292314	REC_START	n/a	n/a	2	-999	n/a	FORK	n/a	n/a	7	[0, 0, 0]	-999	PAL1	0	R1097N
907.608	0.36	1296951	REC_EVENT	4639	n/a	2	2	CUP	FORK	CUP	YARD	7	[0, 0, 0]	-999	PAL1	0	R1097N
907.968	0.018	1297311	REC_END	n/a	n/a	2	-999	n/a	n/a	n/a	n/a	7	[0, 0, 0]	-999	PAL1	0	R1097N
907.986	0.961	1297329	TEST_ORIENT	n/a	n/a	1	3	FOOD	FORK	FORK	FOOD	7	[0, 0, 0]	-999	PAL1	0	R1097N
908.947	0.001	1298289	TEST_PROBE	n/a	wordpools/wordpool_EN.txt	1	3	FOOD	FORK	FORK	FOOD	7	[0, 0, 0]	-999	PAL1	0	R1097N
908.948	2.652	1298290	REC_START	n/a	n/a	1	-999	n/a	FORK	n/a	n/a	7	[0, 0, 0]	-999	PAL1	0	R1097N
911.6	2.347	1300941	REC_EVENT	2652	n/a	1	3	FOOD	FORK	FORK	FOOD	7	[0, 0, 0]	-999	PAL1	0	R1097N
913.947	0.018	1303287	REC_END	n/a	n/a	1	-999	n/a	n/a	n/a	n/a	7	[0, 0, 0]	-999	PAL1	0	R1097N
913.965	0.994	1303305	TEST_ORIENT	n/a	n/a	6	4	PIPE	n/a	BROOM	PIPE	7	[0, 0, 0]	-999	PAL1	0	R1097N
914.959	0.001	1304298	TEST_PROBE	n/a	wordpools/wordpool_EN.txt	6	4	PIPE	n/a	BROOM	PIPE	7	[0, 0, 0]	-999	PAL1	0	R1097N
914.96	4.998	1304299	REC_START	n/a	n/a	6	-999	n/a	n/a	n/a	n/a	7	[0, 0, 0]	-999	PAL1	0	R1097N
919.958	0.001	1309295	REC_EVENT	4998	n/a	6	4	PIPE	<>	BROOM	PIPE	7	[0, 0, 0]	-999	PAL1	0	R1097N
919.959	0.018	1309296	REC_END	n/a	n/a	6	-999	n/a	n/a	n/a	n/a	7	[0, 0, 0]	-999	PAL1	0	R1097N
919.977	0.874	1309314	TEST_ORIENT	n/a	n/a	3	5	STORM	n/a	STORM	THUMB	7	[0, 0, 0]	-999	PAL1	0	R1097N
920.851	0.001	1310188	TEST_PROBE	n/a	wordpools/wordpool_EN.txt	3	5	STORM	n/a	STORM	THUMB	7	[0, 0, 0]	-999	PAL1	0	R1097N
920.852	4.998	1310189	REC_START	n/a	n/a	3	-999	n/a	n/a	n/a	n/a	7	[0, 0, 0]	-999	PAL1	0	R1097N
925.85	0.001	1315184	REC_EVENT	4998	n/a	3	5	STORM	<>	STORM	THUMB	7	[0, 0, 0]	-999	PAL1	0	R1097N
925.851	0.018	1315185	REC_END	n/a	n/a	3	-999	n/a	n/a	n/a	n/a	7	[0, 0, 0]	-999	PAL1	0	R1097N
925.869	0.946	1315203	TEST_ORIENT	n/a	n/a	4	6	BRANCH	n/a	HOOF	BRANCH	7	[0, 0, 0]	-999	PAL1	0	R1097N
926.815	0.001	1316149	TEST_PROBE	n/a	wordpools/wordpool_EN.txt	4	6	BRANCH	n/a	HOOF	BRANCH	7	[0, 0, 0]	-999	PAL1	0	R1097N
926.816	4.998	1316150	REC_START	n/a	n/a	4	-999	n/a	n/a	n/a	n/a	7	[0, 0, 0]	-999	PAL1	0	R1097N
931.814	0.001	1321145	REC_EVENT	4998	n/a	4	6	BRANCH	<>	HOOF	BRANCH	7	[0, 0, 0]	-999	PAL1	0	R1097N
931.815	0.027	1321146	REC_END	n/a	n/a	4	-999	n/a	n/a	n/a	n/a	7	[0, 0, 0]	-999	PAL1	0	R1097N
931.842	24.503	1321173	FORCED_BREAK	n/a	n/a	4	-999	n/a	n/a	n/a	n/a	7	[0, 0, 0]	-999	PAL1	0	R1097N
956.345	0.004	1345665	ENCODING_START	n/a	n/a	0	-999	n/a	n/a	n/a	n/a	8	[0, 0, 0]	-999	PAL1	0	R1097N
956.349	0.984	1345669	STUDY_ORIENT	n/a	n/a	1	1	BOOT	CLAY	PLANE	BOOT	8	[0, 0, 0]	-999	PAL1	0	R1097N
957.333	5.0	1346652	STUDY_PAIR	n/a	wordpools/wordpool_EN.txt	1	1	BOOT	CLAY	PLANE	BOOT	8	[0, 0, 0]	-999	PAL1	0	R1097N
962.333	0.877	1351650	STUDY_ORIENT	n/a	n/a	2	2	BEACH	n/a	BEACH	FORT	8	[0, 0, 0]	-999	PAL1	0	R1097N
963.21	5.001	1352527	STUDY_PAIR	n/a	wordpools/wordpool_EN.txt	2	2	BEACH	n/a	BEACH	FORT	8	[0, 0, 0]	-999	PAL1	0	R1097N
968.211	0.857	1357525	STUDY_ORIENT	n/a	n/a	3	3	SEAT	n/a	SEAT	PANTS	8	[0, 0, 0]	-999	PAL1	0	R1097N
969.068	5.001	1358382	STUDY_PAIR	n/a	wordpools/wordpool_EN.txt	3	3	SEAT	n/a	SEAT	PANTS	8	[0, 0, 0]	-999	PAL1	0	R1097N
974.069	0.918	1363380	STUDY_ORIENT	n/a	n/a	4	4	CLAY	n/a	CLAY	VAN	8	[0, 0, 0]	-999	PAL1	0	R1097N
974.987	5.001	1364298	STUDY_PAIR	n/a	wordpools/wordpool_EN.txt	4	4	CLAY	n/a	CLAY	VAN	8	[0, 0, 0]	-999	PAL1	0	R1097N
979.988	0.915	1369297	STUDY_ORIENT	n/a	n/a	5	5	CAVE	CAVE	MAIL	CAVE	8	[0, 0, 0]	-999	PAL1	0	R1097N
980.903	5.001	1370211	STUDY_PAIR	n/a	wordpools/wordpool_EN.txt	5	5	CAVE	CAVE	MAIL	CAVE	8	[0, 0, 0]	-999	PAL1	0	R1097N
985.904	0.889	1375210	STUDY_ORIENT	n/a	n/a	6	6	WING	n/a	FLUTE	WING	8	[0, 0, 0]	-999	PAL1	0	R1097N
986.793	4.001	1376098	STUDY_PAIR	n/a	wordpools/wordpool_EN.txt	6	6	WING	n/a	FLUTE	WING	8	[0, 0, 0]	-999	PAL1	0	R1097N
990.794	0.999	1380097	START	n/a	n/a	-999	-999	n/a	n/a	n/a	n/a	8	[-999, -999, -999]	-999	PAL1	0	R1097N
991.793	0.001	1381096	MATH_START	n/a	n/a	-999	-999	n/a	n/a	n/a	n/a	8	[0, 0, 0]	-999	PAL1	0	R1097N
991.794	5.589	1381097	PROB	5585	n/a	-999	-999	n/a	n/a	n/a	n/a	8	[2, 3, 1]	6	PAL1	0	R1097N
997.383	6.219	1386683	PROB	6214	n/a	-999	-999	n/a	n/a	n/a	n/a	8	[4, 2, 3]	9	PAL1	0	R1097N
1003.602	7.719	1392899	PROB	7719	n/a	-999	-999	n/a	n/a	n/a	n/a	8	[5, 4, 8]	17	PAL1	0	R1097N
1011.321	0.002	1400615	STOP	n/a	n/a	-999	-999	n/a	n/a	n/a	n/a	8	[-999, -999, -999]	-999	PAL1	0	R1097N
1011.323	0.0	1400617	MATH_END	n/a	n/a	-999	-999	n/a	n/a	n/a	n/a	8	[0, 0, 0]	-999	PAL1	0	R1097N
1011.323	0.002	1400617	TEST_START	n/a	n/a	-999	-999	n/a	n/a	n/a	n/a	8	[0, 0, 0]	-999	PAL1	0	R1097N
1011.325	1.001	1400619	TEST_ORIENT	n/a	n/a	1	1	BOOT	CLAY	PLANE	BOOT	8	[0, 0, 0]	-999	PAL1	0	R1097N
1012.326	0.001	1401619	TEST_PROBE	n/a	wordpools/wordpool_EN.txt	1	1	BOOT	CLAY	PLANE	BOOT	8	[0, 0, 0]	-999	PAL1	0	R1097N
1012.327	1.361	1401620	REC_START	n/a	n/a	1	-999	n/a	CLAY	n/a	n/a	8	[0, 0, 0]	-999	PAL1	0	R1097N
1013.688	3.638	1402981	REC_EVENT	1361	n/a	1	1	BOOT	CLAY	PLANE	BOOT	8	[0, 0, 0]	-999	PAL1	0	R1097N
1017.326	0.018	1406617	REC_END	n/a	n/a	1	-999	n/a	n/a	n/a	n/a	8	[0, 0, 0]	-999	PAL1	0	R1097N
1017.344	0.921	1406635	TEST_ORIENT	n/a	n/a	2	2	BEACH	n/a	BEACH	FORT	8	[0, 0, 0]	-999	PAL1	0	R1097N
1018.265	0.001	1407555	TEST_PROBE	n/a	wordpools/wordpool_EN.txt	2	2	BEACH	n/a	BEACH	FORT	8	[0, 0, 0]	-999	PAL1	0	R1097N
1018.266	4.992	1407556	REC_START	n/a	n/a	2	-999	n/a	n/a	n/a	n/a	8	[0, 0, 0]	-999	PAL1	0	R1097N
1023.258	0.007	1412546	REC_EVENT	4992	n/a	2	2	BEACH	<>	BEACH	FORT	8	[0, 0, 0]	-999	PAL1	0	R1097N
1023.265	0.018	1412553	REC_END	n/a	n/a	2	-999	n/a	n/a	n/a	n/a	8	[0, 0, 0]	-999	PAL1	0	R1097N
1023.283	0.838	1412571	TEST_ORIENT	n/a	n/a	3	3	SEAT	n/a	SEAT	PANTS	8	[0, 0, 0]	-999	PAL1	0	R1097N
1024.121	0.001	1413409	TEST_PROBE	n/a	wordpools/wordpool_EN.txt	3	3	SEAT	n/a	SEAT	PANTS	8	[0, 0, 0]	-999	PAL1	0	R1097N
1024.122	4.998	1413410	REC_START	n/a	n/a	3	-999	n/a	n/a	n/a	n/a	8	[0, 0, 0]	-999	PAL1	0	R1097N
1029.12	0.001	1418405	REC_EVENT	4998	n/a	3	3	SEAT	<>	SEAT	PANTS	8	[0, 0, 0]	-999	PAL1	0	R1097N
1029.121	0.018	1418406	REC_END	n/a	n/a	3	-999	n/a	n/a	n/a	n/a	8	[0, 0, 0]	-999	PAL1	0	R1097N
1029.139	0.764	1418424	TEST_ORIENT	n/a	n/a	4	4	CLAY	n/a	CLAY	VAN	8	[0, 0, 0]	-999	PAL1	0	R1097N
1029.903	0.001	1419188	TEST_PROBE	n/a	wordpools/wordpool_EN.txt	4	4	CLAY	n/a	CLAY	VAN	8	[0, 0, 0]	-999	PAL1	0	R1097N
1029.904	4.992	1419189	REC_START	n/a	n/a	4	-999	n/a	n/a	n/a	n/a	8	[0, 0, 0]	-999	PAL1	0	R1097N
1034.896	0.007	1424179	REC_EVENT	4992	n/a	4	4	CLAY	<>	CLAY	VAN	8	[0, 0, 0]	-999	PAL1	0	R1097N
1034.903	0.018	1424186	REC_END	n/a	n/a	4	-999	n/a	n/a	n/a	n/a	8	[0, 0, 0]	-999	PAL1	0	R1097N
1034.921	0.77	1424203	TEST_ORIENT	n/a	n/a	5	5	CAVE	CAVE	MAIL	CAVE	8	[0, 0, 0]	-999	PAL1	0	R1097N
1035.691	0.001	1424973	TEST_PROBE	n/a	wordpools/wordpool_EN.txt	5	5	CAVE	CAVE	MAIL	CAVE	8	[0, 0, 0]	-999	PAL1	0	R1097N
1035.692	1.471	1424974	REC_START	n/a	n/a	5	-999	n/a	CAVE	n/a	n/a	8	[0, 0, 0]	-999	PAL1	0	R1097N
1037.163	3.528	1426444	REC_EVENT	1471	n/a	5	5	CAVE	CAVE	MAIL	CAVE	8	[0, 0, 0]	-999	PAL1	0	R1097N
1040.691	0.018	1429971	REC_END	n/a	n/a	5	-999	n/a	n/a	n/a	n/a	8	[0, 0, 0]	-999	PAL1	0	R1097N
1040.709	0.885	1429989	TEST_ORIENT	n/a	n/a	6	6	WING	n/a	FLUTE	WING	8	[0, 0, 0]	-999	PAL1	0	R1097N
1041.594	0.001	1430873	TEST_PROBE	n/a	wordpools/wordpool_EN.txt	6	6	WING	n/a	FLUTE	WING	8	[0, 0, 0]	-999	PAL1	0	R1097N
1041.595	4.998	1430874	REC_START	n/a	n/a	6	-999	n/a	n/a	n/a	n/a	8	[0, 0, 0]	-999	PAL1	0	R1097N
1046.593	0.001	1435870	REC_EVENT	4998	n/a	6	6	WING	<>	FLUTE	WING	8	[0, 0, 0]	-999	PAL1	0	R1097N
1046.594	0.027	1435871	REC_END	n/a	n/a	6	-999	n/a	n/a	n/a	n/a	8	[0, 0, 0]	-999	PAL1	0	R1097N
1046.621	14.409	1435898	FORCED_BREAK	n/a	n/a	6	-999	n/a	n/a	n/a	n/a	8	[0, 0, 0]	-999	PAL1	0	R1097N
1061.03	0.003	1450300	ENCODING_START	n/a	n/a	0	-999	n/a	n/a	n/a	n/a	9	[0, 0, 0]	-999	PAL1	0	R1097N
1061.033	0.975	1450303	STUDY_ORIENT	n/a	n/a	1	3	LAND	BOMB	LAND	BOMB	9	[0, 0, 0]	-999	PAL1	0	R1097N
1062.008	5.0	1451278	STUDY_PAIR	n/a	wordpools/wordpool_EN.txt	1	3	LAND	BOMB	LAND	BOMB	9	[0, 0, 0]	-999	PAL1	0	R1097N
1067.008	0.965	1456275	STUDY_ORIENT	n/a	n/a	2	2	LEAF	n/a	HEN	LEAF	9	[0, 0, 0]	-999	PAL1	0	R1097N
1067.973	5.001	1457240	STUDY_PAIR	n/a	wordpools/wordpool_EN.txt	2	2	LEAF	n/a	HEN	LEAF	9	[0, 0, 0]	-999	PAL1	0	R1097N
1072.974	0.957	1462238	STUDY_ORIENT	n/a	n/a	3	5	JAIL	n/a	JAIL	PASTE	9	[0, 0, 0]	-999	PAL1	0	R1097N
1073.931	5.0	1463195	STUDY_PAIR	n/a	wordpools/wordpool_EN.txt	3	5	JAIL	n/a	JAIL	PASTE	9	[0, 0, 0]	-999	PAL1	0	R1097N
1078.931	0.774	1468193	STUDY_ORIENT	n/a	n/a	4	6	FOX	SEAL	FOX	SEAL	9	[0, 0, 0]	-999	PAL1	0	R1097N
1079.705	5.0	1468966	STUDY_PAIR	n/a	wordpools/wordpool_EN.txt	4	6	FOX	SEAL	FOX	SEAL	9	[0, 0, 0]	-999	PAL1	0	R1097N
1084.705	0.951	1473964	STUDY_ORIENT	n/a	n/a	5	1	RIB	CAGE	RIB	CAGE	9	[0, 0, 0]	-999	PAL1	0	R1097N
1085.656	5.0	1474914	STUDY_PAIR	n/a	wordpools/wordpool_EN.txt	5	1	RIB	CAGE	RIB	CAGE	9	[0, 0, 0]	-999	PAL1	0	R1097N
1090.656	0.778	1479912	STUDY_ORIENT	n/a	n/a	6	4	DEER	LEG	DEER	LEG	9	[0, 0, 0]	-999	PAL1	0	R1097N
1091.434	4.001	1480690	STUDY_PAIR	n/a	wordpools/wordpool_EN.txt	6	4	DEER	LEG	DEER	LEG	9	[0, 0, 0]	-999	PAL1	0	R1097N
1095.435	0.999	1484689	START	n/a	n/a	-999	-999	n/a	n/a	n/a	n/a	9	[-999, -999, -999]	-999	PAL1	0	R1097N
1096.434	0.001	1485687	MATH_START	n/a	n/a	-999	-999	n/a	n/a	n/a	n/a	9	[0, 0, 0]	-999	PAL1	0	R1097N
1096.435	7.994	1485688	PROB	7989	n/a	-999	-999	n/a	n/a	n/a	n/a	9	[7, 7, 3]	17	PAL1	0	R1097N
1104.429	7.507	1493679	PROB	7503	n/a	-999	-999	n/a	n/a	n/a	n/a	9	[6, 9, 3]	18	PAL1	0	R1097N
1111.936	4.509	1501182	PROB	4509	n/a	-999	-999	n/a	n/a	n/a	n/a	9	[3, 7, 9]	9	PAL1	0	R1097N
1116.445	0.002	1505689	STOP	n/a	n/a	-999	-999	n/a	n/a	n/a	n/a	9	[-999, -999, -999]	-999	PAL1	0	R1097N
1116.447	0.0	1505691	MATH_END	n/a	n/a	-999	-999	n/a	n/a	n/a	n/a	9	[0, 0, 0]	-999	PAL1	0	R1097N
1116.447	0.002	1505691	TEST_START	n/a	n/a	-999	-999	n/a	n/a	n/a	n/a	9	[0, 0, 0]	-999	PAL1	0	R1097N
1116.449	0.898	1505693	TEST_ORIENT	n/a	n/a	5	1	RIB	CAGE	RIB	CAGE	9	[0, 0, 0]	-999	PAL1	0	R1097N
1117.347	0.002	1506590	TEST_PROBE	n/a	wordpools/wordpool_EN.txt	5	1	RIB	CAGE	RIB	CAGE	9	[0, 0, 0]	-999	PAL1	0	R1097N
1117.349	3.578	1506592	REC_START	n/a	n/a	5	-999	n/a	CAGE	n/a	n/a	9	[0, 0, 0]	-999	PAL1	0	R1097N
1120.927	1.42	1510169	REC_EVENT	3578	n/a	5	1	RIB	CAGE	RIB	CAGE	9	[0, 0, 0]	-999	PAL1	0	R1097N
1122.347	0.017	1511588	REC_END	n/a	n/a	5	-999	n/a	n/a	n/a	n/a	9	[0, 0, 0]	-999	PAL1	0	R1097N
1122.364	0.953	1511605	TEST_ORIENT	n/a	n/a	2	2	LEAF	n/a	HEN	LEAF	9	[0, 0, 0]	-999	PAL1	0	R1097N
1123.317	0.001	1512558	TEST_PROBE	n/a	wordpools/wordpool_EN.txt	2	2	LEAF	n/a	HEN	LEAF	9	[0, 0, 0]	-999	PAL1	0	R1097N
1123.318	4.992	1512559	REC_START	n/a	n/a	2	-999	n/a	n/a	n/a	n/a	9	[0, 0, 0]	-999	PAL1	0	R1097N
1128.31	0.007	1517548	REC_EVENT	4992	n/a	2	2	LEAF	<>	HEN	LEAF	9	[0, 0, 0]	-999	PAL1	0	R1097N
1128.317	0.017	1517555	REC_END	n/a	n/a	2	-999	n/a	n/a	n/a	n/a	9	[0, 0, 0]	-999	PAL1	0	R1097N
1128.334	0.797	1517572	TEST_ORIENT	n/a	n/a	1	3	LAND	BOMB	LAND	BOMB	9	[0, 0, 0]	-999	PAL1	0	R1097N
1129.131	0.002	1518369	TEST_PROBE	n/a	wordpools/wordpool_EN.txt	1	3	LAND	BOMB	LAND	BOMB	9	[0, 0, 0]	-999	PAL1	0	R1097N
1129.133	1.489	1518371	REC_START	n/a	n/a	1	-999	n/a	BOMB	n/a	n/a	9	[0, 0, 0]	-999	PAL1	0	R1097N
1130.622	3.509	1519859	REC_EVENT	1489	n/a	1	3	LAND	BOMB	LAND	BOMB	9	[0, 0, 0]	-999	PAL1	0	R1097N
1134.131	0.017	1523366	REC_END	n/a	n/a	1	-999	n/a	n/a	n/a	n/a	9	[0, 0, 0]	-999	PAL1	0	R1097N
1134.148	0.968	1523383	TEST_ORIENT	n/a	n/a	6	4	DEER	LEG	DEER	LEG	9	[0, 0, 0]	-999	PAL1	0	R1097N
1135.116	0.001	1524351	TEST_PROBE	n/a	wordpools/wordpool_EN.txt	6	4	DEER	LEG	DEER	LEG	9	[0, 0, 0]	-999	PAL1	0	R1097N
1135.117	2.04	1524352	REC_START	n/a	n/a	6	-999	n/a	LEG	n/a	n/a	9	[0, 0, 0]	-999	PAL1	0	R1097N
1137.157	2.959	1526391	REC_EVENT	2040	n/a	6	4	DEER	LEG	DEER	LEG	9	[0, 0, 0]	-999	PAL1	0	R1097N
1140.116	0.017	1529349	REC_END	n/a	n/a	6	-999	n/a	n/a	n/a	n/a	9	[0, 0, 0]	-999	PAL1	0	R1097N
1140.133	0.92	1529366	TEST_ORIENT	n/a	n/a	3	5	JAIL	n/a	JAIL	PASTE	9	[0, 0, 0]	-999	PAL1	0	R1097N
1141.053	0.002	1530285	TEST_PROBE	n/a	wordpools/wordpool_EN.txt	3	5	JAIL	n/a	JAIL	PASTE	9	[0, 0, 0]	-999	PAL1	0	R1097N
1141.055	4.998	1530287	REC_START	n/a	n/a	3	-999	n/a	n/a	n/a	n/a	9	[0, 0, 0]	-999	PAL1	0	R1097N
1146.053	0.0	1535283	REC_END	n/a	n/a	3	-999	n/a	n/a	n/a	n/a	9	[0, 0, 0]	-999	PAL1	0	R1097N
1146.053	0.017	1535283	REC_EVENT	4998	n/a	3	5	JAIL	<>	JAIL	PASTE	9	[0, 0, 0]	-999	PAL1	0	R1097N
1146.07	0.871	1535300	TEST_ORIENT	n/a	n/a	4	6	FOX	SEAL	FOX	SEAL	9	[0, 0, 0]	-999	PAL1	0	R1097N
1146.941	0.001	1536170	TEST_PROBE	n/a	wordpools/wordpool_EN.txt	4	6	FOX	SEAL	FOX	SEAL	9	[0, 0, 0]	-999	PAL1	0	R1097N
1146.942	1.947	1536171	REC_START	n/a	n/a	4	-999	n/a	SEAL	n/a	n/a	9	[0, 0, 0]	-999	PAL1	0	R1097N
1148.889	3.052	1538117	REC_EVENT	1947	n/a	4	6	FOX	SEAL	FOX	SEAL	9	[0, 0, 0]	-999	PAL1	0	R1097N
1151.941	0.025	1541168	REC_END	n/a	n/a	4	-999	n/a	n/a	n/a	n/a	9	[0, 0, 0]	-999	PAL1	0	R1097N
1151.966	50.692	1541193	FORCED_BREAK	n/a	n/a	4	-999	n/a	n/a	n/a	n/a	9	[0, 0, 0]	-999	PAL1	0	R1097N
1202.658	0.004	1591861	ENCODING_START	n/a	n/a	0	-999	n/a	n/a	n/a	n/a	10	[0, 0, 0]	-999	PAL1	0	R1097N
1202.662	0.9	1591865	STUDY_ORIENT	n/a	n/a	1	5	THREAD	n/a	ARM	THREAD	10	[0, 0, 0]	-999	PAL1	0	R1097N
1203.562	5.001	1592764	STUDY_PAIR	n/a	wordpools/wordpool_EN.txt	1	5	THREAD	n/a	ARM	THREAD	10	[0, 0, 0]	-999	PAL1	0	R1097N
1208.563	0.859	1597763	STUDY_ORIENT	n/a	n/a	2	2	BEE	HOOK	BEE	HOOK	10	[0, 0, 0]	-999	PAL1	0	R1097N
1209.422	5.001	1598622	STUDY_PAIR	n/a	wordpools/wordpool_EN.txt	2	2	BEE	HOOK	BEE	HOOK	10	[0, 0, 0]	-999	PAL1	0	R1097N
1214.423	0.82	1603620	STUDY_ORIENT	n/a	n/a	3	1	CORN	n/a	CORN	MILK	10	[0, 0, 0]	-999	PAL1	0	R1097N
1215.243	5.001	1604440	STUDY_PAIR	n/a	wordpools/wordpool_EN.txt	3	1	CORN	n/a	CORN	MILK	10	[0, 0, 0]	-999	PAL1	0	R1097N
1220.244	0.873	1609439	STUDY_ORIENT	n/a	n/a	4	6	SQUARE	n/a	STEAK	SQUARE	10	[0, 0, 0]	-999	PAL1	0	R1097N
1221.117	5.001	1610311	STUDY_PAIR	n/a	wordpools/wordpool_EN.txt	4	6	SQUARE	n/a	STEAK	SQUARE	10	[0, 0, 0]	-999	PAL1	0	R1097N
1226.118	0.96	1615310	STUDY_ORIENT	n/a	n/a	5	3	DESK	WAVE	DESK	WAVE	10	[0, 0, 0]	-999	PAL1	0	R1097N
1227.078	5.001	1616269	STUDY_PAIR	n/a	wordpools/wordpool_EN.txt	5	3	DESK	WAVE	DESK	WAVE	10	[0, 0, 0]	-999	PAL1	0	R1097N
1232.079	0.753	1621268	STUDY_ORIENT	n/a	n/a	6	4	MOLE	MOUSE	MOUSE	MOLE	10	[0, 0, 0]	-999	PAL1	0	R1097N
1232.832	4.001	1622021	STUDY_PAIR	n/a	wordpools/wordpool_EN.txt	6	4	MOLE	MOUSE	MOUSE	MOLE	10	[0, 0, 0]	-999	PAL1	0	R1097N
1236.833	0.999	1626020	START	n/a	n/a	-999	-999	n/a	n/a	n/a	n/a	10	[-999, -999, -999]	-999	PAL1	0	R1097N
1237.832	0.001	1627018	MATH_START	n/a	n/a	-999	-999	n/a	n/a	n/a	n/a	10	[0, 0, 0]	-999	PAL1	0	R1097N
1237.833	10.057	1627019	PROB	10053	n/a	-999	-999	n/a	n/a	n/a	n/a	10	[5, 9, 9]	23	PAL1	0	R1097N
1247.89	3.938	1637071	PROB	3933	n/a	-999	-999	n/a	n/a	n/a	n/a	10	[1, 7, 5]	13	PAL1	0	R1097N
1251.828	6.383	1641008	PROB	6383	n/a	-999	-999	n/a	n/a	n/a	n/a	10	[5, 9, 3]	17	PAL1	0	R1097N
1258.211	0.002	1647388	STOP	n/a	n/a	-999	-999	n/a	n/a	n/a	n/a	10	[-999, -999, -999]	-999	PAL1	0	R1097N
1258.213	0.0	1647390	MATH_END	n/a	n/a	-999	-999	n/a	n/a	n/a	n/a	10	[0, 0, 0]	-999	PAL1	0	R1097N
1258.213	0.002	1647390	TEST_START	n/a	n/a	-999	-999	n/a	n/a	n/a	n/a	10	[0, 0, 0]	-999	PAL1	0	R1097N
1258.215	0.855	1647392	TEST_ORIENT	n/a	n/a	3	1	CORN	n/a	CORN	MILK	10	[0, 0, 0]	-999	PAL1	0	R1097N
1259.07	0.003	1648246	TEST_PROBE	n/a	wordpools/wordpool_EN.txt	3	1	CORN	n/a	CORN	MILK	10	[0, 0, 0]	-999	PAL1	0	R1097N
1259.073	4.992	1648249	REC_START	n/a	n/a	3	-999	n/a	n/a	n/a	n/a	10	[0, 0, 0]	-999	PAL1	0	R1097N
1264.065	0.005	1653239	REC_EVENT	4992	n/a	3	1	CORN	<>	CORN	MILK	10	[0, 0, 0]	-999	PAL1	0	R1097N
1264.07	0.018	1653244	REC_END	n/a	n/a	3	-999	n/a	n/a	n/a	n/a	10	[0, 0, 0]	-999	PAL1	0	R1097N
1264.088	0.929	1653262	TEST_ORIENT	n/a	n/a	2	2	BEE	HOOK	BEE	HOOK	10	[0, 0, 0]	-999	PAL1	0	R1097N
1265.017	0.001	1654190	TEST_PROBE	n/a	wordpools/wordpool_EN.txt	2	2	BEE	HOOK	BEE	HOOK	10	[0, 0, 0]	-999	PAL1	0	R1097N
1265.018	1.849	1654191	REC_START	n/a	n/a	2	-999	n/a	HOOK	n/a	n/a	10	[0, 0, 0]	-999	PAL1	0	R1097N
1266.867	3.15	1656039	REC_EVENT	1849	n/a	2	2	BEE	HOOK	BEE	HOOK	10	[0, 0, 0]	-999	PAL1	0	R1097N
1270.017	0.018	1659188	REC_END	n/a	n/a	2	-999	n/a	n/a	n/a	n/a	10	[0, 0, 0]	-999	PAL1	0	R1097N
1270.035	0.798	1659206	TEST_ORIENT	n/a	n/a	5	3	DESK	WAVE	DESK	WAVE	10	[0, 0, 0]	-999	PAL1	0	R1097N
1270.833	0.001	1660004	TEST_PROBE	n/a	wordpools/wordpool_EN.txt	5	3	DESK	WAVE	DESK	WAVE	10	[0, 0, 0]	-999	PAL1	0	R1097N
1270.834	1.477	1660005	REC_START	n/a	n/a	5	-999	n/a	WAVE	n/a	n/a	10	[0, 0, 0]	-999	PAL1	0	R1097N
1272.311	3.522	1661481	REC_EVENT	1477	n/a	5	3	DESK	WAVE	DESK	WAVE	10	[0, 0, 0]	-999	PAL1	0	R1097N
1275.833	0.018	1665001	REC_END	n/a	n/a	5	-999	n/a	n/a	n/a	n/a	10	[0, 0, 0]	-999	PAL1	0	R1097N
1275.851	0.818	1665019	TEST_ORIENT	n/a	n/a	6	4	MOLE	MOUSE	MOUSE	MOLE	10	[0, 0, 0]	-999	PAL1	0	R1097N
1276.669	0.001	1665837	TEST_PROBE	n/a	wordpools/wordpool_EN.txt	6	4	MOLE	MOUSE	MOUSE	MOLE	10	[0, 0, 0]	-999	PAL1	0	R1097N
1276.67	1.032	1665838	REC_START	n/a	n/a	6	-999	n/a	MOUSE	n/a	n/a	10	[0, 0, 0]	-999	PAL1	0	R1097N
1277.702	3.967	1666869	REC_EVENT	1032	n/a	6	4	MOLE	MOUSE	MOUSE	MOLE	10	[0, 0, 0]	-999	PAL1	0	R1097N
1281.669	0.018	1670834	REC_END	n/a	n/a	6	-999	n/a	n/a	n/a	n/a	10	[0, 0, 0]	-999	PAL1	0	R1097N
1281.687	0.979	1670852	TEST_ORIENT	n/a	n/a	1	5	THREAD	n/a	ARM	THREAD	10	[0, 0, 0]	-999	PAL1	0	R1097N
1282.666	0.001	1671831	TEST_PROBE	n/a	wordpools/wordpool_EN.txt	1	5	THREAD	n/a	ARM	THREAD	10	[0, 0, 0]	-999	PAL1	0	R1097N
1282.667	4.998	1671832	REC_START	n/a	n/a	1	-999	n/a	n/a	n/a	n/a	10	[0, 0, 0]	-999	PAL1	0	R1097N
1287.665	0.001	1676828	REC_EVENT	4998	n/a	1	5	THREAD	<>	ARM	THREAD	10	[0, 0, 0]	-999	PAL1	0	R1097N
1287.666	0.018	1676829	REC_END	n/a	n/a	1	-999	n/a	n/a	n/a	n/a	10	[0, 0, 0]	-999	PAL1	0	R1097N
1287.684	0.847	1676847	TEST_ORIENT	n/a	n/a	4	6	SQUARE	n/a	STEAK	SQUARE	10	[0, 0, 0]	-999	PAL1	0	R1097N
1288.531	0.001	1677693	TEST_PROBE	n/a	wordpools/wordpool_EN.txt	4	6	SQUARE	n/a	STEAK	SQUARE	10	[0, 0, 0]	-999	PAL1	0	R1097N
1288.532	1.597	1677694	REC_START	n/a	n/a	4	-999	n/a	n/a	n/a	n/a	10	[0, 0, 0]	-999	PAL1	0	R1097N
1290.129	3.402	1679290	REC_EVENT	1597	n/a	4	6	SQUARE	<>	STEAK	SQUARE	10	[0, 0, 0]	-999	PAL1	0	R1097N
1293.531	0.026	1682691	REC_END	n/a	n/a	4	-999	n/a	n/a	n/a	n/a	10	[0, 0, 0]	-999	PAL1	0	R1097N
1293.557	13.946	1682717	FORCED_BREAK	n/a	n/a	4	-999	n/a	n/a	n/a	n/a	10	[0, 0, 0]	-999	PAL1	0	R1097N
1307.503	0.004	1696656	ENCODING_START	n/a	n/a	0	-999	n/a	n/a	n/a	n/a	11	[0, 0, 0]	-999	PAL1	0	R1097N
1307.507	0.903	1696660	STUDY_ORIENT	n/a	n/a	1	3	ROOT	n/a	ROOT	JET	11	[0, 0, 0]	-999	PAL1	0	R1097N
1308.41	5.006	1697563	STUDY_PAIR	n/a	wordpools/wordpool_EN.txt	1	3	ROOT	n/a	ROOT	JET	11	[0, 0, 0]	-999	PAL1	0	R1097N
1313.416	0.921	1702566	STUDY_ORIENT	n/a	n/a	2	2	PEN	n/a	PEN	GUARD	11	[0, 0, 0]	-999	PAL1	0	R1097N
1314.337	5.001	1703487	STUDY_PAIR	n/a	wordpools/wordpool_EN.txt	2	2	PEN	n/a	PEN	GUARD	11	[0, 0, 0]	-999	PAL1	0	R1097N
1319.338	0.755	1708486	STUDY_ORIENT	n/a	n/a	3	5	BARN	n/a	BARN	BLUSH	11	[0, 0, 0]	-999	PAL1	0	R1097N
1320.093	5.001	1709240	STUDY_PAIR	n/a	wordpools/wordpool_EN.txt	3	5	BARN	n/a	BARN	BLUSH	11	[0, 0, 0]	-999	PAL1	0	R1097N
1325.094	0.795	1714239	STUDY_ORIENT	n/a	n/a	4	4	POLE	n/a	VEST	POLE	11	[0, 0, 0]	-999	PAL1	0	R1097N
1325.889	5.001	1715033	STUDY_PAIR	n/a	wordpools/wordpool_EN.txt	4	4	POLE	n/a	VEST	POLE	11	[0, 0, 0]	-999	PAL1	0	R1097N
1330.89	0.915	1720032	STUDY_ORIENT	n/a	n/a	5	1	HORSE	n/a	HORSE	RICE	11	[0, 0, 0]	-999	PAL1	0	R1097N
1331.805	5.001	1720947	STUDY_PAIR	n/a	wordpools/wordpool_EN.txt	5	1	HORSE	n/a	HORSE	RICE	11	[0, 0, 0]	-999	PAL1	0	R1097N
1336.806	0.768	1725945	STUDY_ORIENT	n/a	n/a	6	6	PRINCE	TEA	TEA	PRINCE	11	[0, 0, 0]	-999	PAL1	0	R1097N
1337.574	4.001	1726713	STUDY_PAIR	n/a	wordpools/wordpool_EN.txt	6	6	PRINCE	TEA	TEA	PRINCE	11	[0, 0, 0]	-999	PAL1	0	R1097N
1341.575	0.999	1730712	START	n/a	n/a	-999	-999	n/a	n/a	n/a	n/a	11	[-999, -999, -999]	-999	PAL1	0	R1097N
1342.574	0.001	1731711	MATH_START	n/a	n/a	-999	-999	n/a	n/a	n/a	n/a	11	[0, 0, 0]	-999	PAL1	0	R1097N
1342.575	7.383	1731712	PROB	7379	n/a	-999	-999	n/a	n/a	n/a	n/a	11	[2, 4, 2]	8	PAL1	0	R1097N
1349.958	15.602	1739091	PROB	15602	n/a	-999	-999	n/a	n/a	n/a	n/a	11	[8, 7, 9]	24	PAL1	0	R1097N
1365.56	0.002	1754686	STOP	n/a	n/a	-999	-999	n/a	n/a	n/a	n/a	11	[-999, -999, -999]	-999	PAL1	0	R1097N
1365.562	0.0	1754688	MATH_END	n/a	n/a	-999	-999	n/a	n/a	n/a	n/a	11	[0, 0, 0]	-999	PAL1	0	R1097N
1365.562	0.002	1754688	TEST_START	n/a	n/a	-999	-999	n/a	n/a	n/a	n/a	11	[0, 0, 0]	-999	PAL1	0	R1097N
1365.564	0.958	1754690	TEST_ORIENT	n/a	n/a	5	1	HORSE	n/a	HORSE	RICE	11	[0, 0, 0]	-999	PAL1	0	R1097N
1366.522	0.001	1755647	TEST_PROBE	n/a	wordpools/wordpool_EN.txt	5	1	HORSE	n/a	HORSE	RICE	11	[0, 0, 0]	-999	PAL1	0	R1097N
1366.523	4.992	1755648	REC_START	n/a	n/a	5	-999	n/a	n/a	n/a	n/a	11	[0, 0, 0]	-999	PAL1	0	R1097N
1371.515	0.007	1760638	REC_EVENT	4992	n/a	5	1	HORSE	<>	HORSE	RICE	11	[0, 0, 0]	-999	PAL1	0	R1097N
1371.522	0.019	1760645	REC_END	n/a	n/a	5	-999	n/a	n/a	n/a	n/a	11	[0, 0, 0]	-999	PAL1	0	R1097N
1371.541	0.991	1760664	TEST_ORIENT	n/a	n/a	2	2	PEN	n/a	PEN	GUARD	11	[0, 0, 0]	-999	PAL1	0	R1097N
1372.532	0.001	1761654	TEST_PROBE	n/a	wordpools/wordpool_EN.txt	2	2	PEN	n/a	PEN	GUARD	11	[0, 0, 0]	-999	PAL1	0	R1097N
1372.533	4.992	1761655	REC_START	n/a	n/a	2	-999	n/a	n/a	n/a	n/a	11	[0, 0, 0]	-999	PAL1	0	R1097N
1377.525	0.007	1766645	REC_EVENT	4992	n/a	2	2	PEN	<>	PEN	GUARD	11	[0, 0, 0]	-999	PAL1	0	R1097N
1377.532	0.018	1766652	REC_END	n/a	n/a	2	-999	n/a	n/a	n/a	n/a	11	[0, 0, 0]	-999	PAL1	0	R1097N
1377.55	0.881	1766670	TEST_ORIENT	n/a	n/a	1	3	ROOT	n/a	ROOT	JET	11	[0, 0, 0]	-999	PAL1	0	R1097N
1378.431	0.002	1767551	TEST_PROBE	n/a	wordpools/wordpool_EN.txt	1	3	ROOT	n/a	ROOT	JET	11	[0, 0, 0]	-999	PAL1	0	R1097N
1378.433	4.998	1767553	REC_START	n/a	n/a	1	-999	n/a	n/a	n/a	n/a	11	[0, 0, 0]	-999	PAL1	0	R1097N
1383.431	0.0	1772548	REC_END	n/a	n/a	1	-999	n/a	n/a	n/a	n/a	11	[0, 0, 0]	-999	PAL1	0	R1097N
1383.431	0.018	1772548	REC_EVENT	4998	n/a	1	3	ROOT	<>	ROOT	JET	11	[0, 0, 0]	-999	PAL1	0	R1097N
1383.449	0.784	1772566	TEST_ORIENT	n/a	n/a	4	4	POLE	n/a	VEST	POLE	11	[0, 0, 0]	-999	PAL1	0	R1097N
1384.233	0.002	1773350	TEST_PROBE	n/a	wordpools/wordpool_EN.txt	4	4	POLE	n/a	VEST	POLE	11	[0, 0, 0]	-999	PAL1	0	R1097N
1384.235	4.998	1773352	REC_START	n/a	n/a	4	-999	n/a	n/a	n/a	n/a	11	[0, 0, 0]	-999	PAL1	0	R1097N
1389.233	0.0	1778347	REC_EVENT	4998	n/a	4	4	POLE	<>	VEST	POLE	11	[0, 0, 0]	-999	PAL1	0	R1097N
1389.233	0.019	1778347	REC_END	n/a	n/a	4	-999	n/a	n/a	n/a	n/a	11	[0, 0, 0]	-999	PAL1	0	R1097N
1389.252	0.927	1778366	TEST_ORIENT	n/a	n/a	3	5	BARN	n/a	BARN	BLUSH	11	[0, 0, 0]	-999	PAL1	0	R1097N
1390.179	0.0	1779293	REC_START	n/a	n/a	3	-999	n/a	n/a	n/a	n/a	11	[0, 0, 0]	-999	PAL1	0	R1097N
1390.179	5.015	1779293	TEST_PROBE	n/a	wordpools/wordpool_EN.txt	3	5	BARN	n/a	BARN	BLUSH	11	[0, 0, 0]	-999	PAL1	0	R1097N
1395.194	0.002	1784306	REC_EVENT	5015	n/a	3	5	BARN	<>	BARN	BLUSH	11	[0, 0, 0]	-999	PAL1	0	R1097N
1395.196	0.012	1784308	REC_END	n/a	n/a	3	-999	n/a	n/a	n/a	n/a	11	[0, 0, 0]	-999	PAL1	0	R1097N
1395.208	0.768	1784320	TEST_ORIENT	n/a	n/a	6	6	PRINCE	TEA	TEA	PRINCE	11	[0, 0, 0]	-999	PAL1	0	R1097N
1395.976	0.001	1785087	TEST_PROBE	n/a	wordpools/wordpool_EN.txt	6	6	PRINCE	TEA	TEA	PRINCE	11	[0, 0, 0]	-999	PAL1	0	R1097N
1395.977	1.33	1785088	REC_START	n/a	n/a	6	-999	n/a	TEA	n/a	n/a	11	[0, 0, 0]	-999	PAL1	0	R1097N
1397.307	3.669	1786418	REC_EVENT	1330	n/a	6	6	PRINCE	TEA	TEA	PRINCE	11	[0, 0, 0]	-999	PAL1	0	R1097N
1400.976	0.026	1790085	REC_END	n/a	n/a	6	-999	n/a	n/a	n/a	n/a	11	[0, 0, 0]	-999	PAL1	0	R1097N
1401.002	12.779	1790111	FORCED_BREAK	n/a	n/a	6	-999	n/a	n/a	n/a	n/a	11	[0, 0, 0]	-999	PAL1	0	R1097N
1413.781	0.003	1802884	ENCODING_START	n/a	n/a	0	-999	n/a	n/a	n/a	n/a	12	[0, 0, 0]	-999	PAL1	0	R1097N
1413.784	0.902	1802887	STUDY_ORIENT	n/a	n/a	1	5	GRAPE	SUN	SUN	GRAPE	12	[0, 0, 0]	-999	PAL1	0	R1097N
1414.686	5.001	1803788	STUDY_PAIR	n/a	wordpools/wordpool_EN.txt	1	5	GRAPE	SUN	SUN	GRAPE	12	[0, 0, 0]	-999	PAL1	0	R1097N
1419.687	0.837	1808787	STUDY_ORIENT	n/a	n/a	2	2	SWORD	CAR	CAR	SWORD	12	[0, 0, 0]	-999	PAL1	0	R1097N
1420.524	5.001	1809624	STUDY_PAIR	n/a	wordpools/wordpool_EN.txt	2	2	SWORD	CAR	CAR	SWORD	12	[0, 0, 0]	-999	PAL1	0	R1097N
1425.525	0.798	1814622	STUDY_ORIENT	n/a	n/a	3	1	SHARK	n/a	FENCE	SHARK	12	[0, 0, 0]	-999	PAL1	0	R1097N
1426.323	5.001	1815420	STUDY_PAIR	n/a	wordpools/wordpool_EN.txt	3	1	SHARK	n/a	FENCE	SHARK	12	[0, 0, 0]	-999	PAL1	0	R1097N
1431.324	0.918	1820418	STUDY_ORIENT	n/a	n/a	4	4	SHOE	PLATE	SHOE	PLATE	12	[0, 0, 0]	-999	PAL1	0	R1097N
1432.242	5.0	1821336	STUDY_PAIR	n/a	wordpools/wordpool_EN.txt	4	4	SHOE	PLATE	SHOE	PLATE	12	[0, 0, 0]	-999	PAL1	0	R1097N
1437.242	0.826	1826334	STUDY_ORIENT	n/a	n/a	5	3	BRIDGE	STAR	BRIDGE	STAR	12	[0, 0, 0]	-999	PAL1	0	R1097N
1438.068	5.001	1827159	STUDY_PAIR	n/a	wordpools/wordpool_EN.txt	5	3	BRIDGE	STAR	BRIDGE	STAR	12	[0, 0, 0]	-999	PAL1	0	R1097N
1443.069	0.898	1832158	STUDY_ORIENT	n/a	n/a	6	6	HOSE	ROAD	ROAD	HOSE	12	[0, 0, 0]	-999	PAL1	0	R1097N
1443.967	4.001	1833055	STUDY_PAIR	n/a	wordpools/wordpool_EN.txt	6	6	HOSE	ROAD	ROAD	HOSE	12	[0, 0, 0]	-999	PAL1	0	R1097N
1447.968	0.999	1837055	START	n/a	n/a	-999	-999	n/a	n/a	n/a	n/a	12	[-999, -999, -999]	-999	PAL1	0	R1097N
1448.967	0.001	1838053	MATH_START	n/a	n/a	-999	-999	n/a	n/a	n/a	n/a	12	[0, 0, 0]	-999	PAL1	0	R1097N
1448.968	6.179	1838054	PROB	6175	n/a	-999	-999	n/a	n/a	n/a	n/a	12	[7, 2, 7]	14	PAL1	0	R1097N
1455.147	8.812	1844230	PROB	8808	n/a	-999	-999	n/a	n/a	n/a	n/a	12	[6, 1, 5]	12	PAL1	0	R1097N
1463.959	3.882	1853038	PROB	3877	n/a	-999	-999	n/a	n/a	n/a	n/a	12	[2, 7, 3]	12	PAL1	0	R1097N
1467.841	4.085	1856918	PROB	4085	n/a	-999	-999	n/a	n/a	n/a	n/a	12	[1, 1, 3]	5	PAL1	0	R1097N
1471.926	0.001	1861001	STOP	n/a	n/a	-999	-999	n/a	n/a	n/a	n/a	12	[-999, -999, -999]	-999	PAL1	0	R1097N
1471.927	0.0	1861002	MATH_END	n/a	n/a	-999	-999	n/a	n/a	n/a	n/a	12	[0, 0, 0]	-999	PAL1	0	R1097N
1471.927	0.002	1861002	TEST_START	n/a	n/a	-999	-999	n/a	n/a	n/a	n/a	12	[0, 0, 0]	-999	PAL1	0	R1097N
1471.929	0.776	1861004	TEST_ORIENT	n/a	n/a	3	1	SHARK	n/a	FENCE	SHARK	12	[0, 0, 0]	-999	PAL1	0	R1097N
1472.705	0.001	1861780	TEST_PROBE	n/a	wordpools/wordpool_EN.txt	3	1	SHARK	n/a	FENCE	SHARK	12	[0, 0, 0]	-999	PAL1	0	R1097N
1472.706	4.998	1861781	REC_START	n/a	n/a	3	-999	n/a	n/a	n/a	n/a	12	[0, 0, 0]	-999	PAL1	0	R1097N
1477.704	0.001	1866776	REC_EVENT	4998	n/a	3	1	SHARK	<>	FENCE	SHARK	12	[0, 0, 0]	-999	PAL1	0	R1097N
1477.705	0.018	1866777	REC_END	n/a	n/a	3	-999	n/a	n/a	n/a	n/a	12	[0, 0, 0]	-999	PAL1	0	R1097N
1477.723	0.798	1866795	TEST_ORIENT	n/a	n/a	2	2	SWORD	CAR	CAR	SWORD	12	[0, 0, 0]	-999	PAL1	0	R1097N
1478.521	0.001	1867593	TEST_PROBE	n/a	wordpools/wordpool_EN.txt	2	2	SWORD	CAR	CAR	SWORD	12	[0, 0, 0]	-999	PAL1	0	R1097N
1478.522	2.014	1867594	REC_START	n/a	n/a	2	-999	n/a	CAR	n/a	n/a	12	[0, 0, 0]	-999	PAL1	0	R1097N
1480.536	0.87	1869607	REC_EVENT	2014	n/a	2	2	SWORD	<>	CAR	SWORD	12	[0, 0, 0]	-999	PAL1	0	R1097N
1481.406	2.115	1870477	REC_EVENT	2884	n/a	2	2	SWORD	CAR	CAR	SWORD	12	[0, 0, 0]	-999	PAL1	0	R1097N
1483.521	0.018	1872591	REC_END	n/a	n/a	2	-999	n/a	n/a	n/a	n/a	12	[0, 0, 0]	-999	PAL1	0	R1097N
1483.539	1.001	1872609	TEST_ORIENT	n/a	n/a	5	3	BRIDGE	STAR	BRIDGE	STAR	12	[0, 0, 0]	-999	PAL1	0	R1097N
1484.54	0.001	1873609	TEST_PROBE	n/a	wordpools/wordpool_EN.txt	5	3	BRIDGE	STAR	BRIDGE	STAR	12	[0, 0, 0]	-999	PAL1	0	R1097N
1484.541	1.726	1873610	REC_START	n/a	n/a	5	-999	n/a	STAR	n/a	n/a	12	[0, 0, 0]	-999	PAL1	0	R1097N
1486.267	0.552	1875335	REC_EVENT	1726	n/a	5	3	BRIDGE	<>	BRIDGE	STAR	12	[0, 0, 0]	-999	PAL1	0	R1097N
1486.819	2.721	1875887	REC_EVENT	2278	n/a	5	3	BRIDGE	STAR	BRIDGE	STAR	12	[0, 0, 0]	-999	PAL1	0	R1097N
1489.54	0.017	1878607	REC_END	n/a	n/a	5	-999	n/a	n/a	n/a	n/a	12	[0, 0, 0]	-999	PAL1	0	R1097N
1489.557	0.825	1878624	TEST_ORIENT	n/a	n/a	4	4	SHOE	PLATE	SHOE	PLATE	12	[0, 0, 0]	-999	PAL1	0	R1097N
1490.382	0.0	1879448	TEST_PROBE	n/a	wordpools/wordpool_EN.txt	4	4	SHOE	PLATE	SHOE	PLATE	12	[0, 0, 0]	-999	PAL1	0	R1097N
1490.382	1.119	1879448	REC_START	n/a	n/a	4	-999	n/a	PLATE	n/a	n/a	12	[0, 0, 0]	-999	PAL1	0	R1097N
1491.501	1.738	1880567	REC_EVENT	1119	n/a	4	4	SHOE	<>	SHOE	PLATE	12	[0, 0, 0]	-999	PAL1	0	R1097N
1493.239	2.16	1882304	REC_EVENT	2857	n/a	4	4	SHOE	PLATE	SHOE	PLATE	12	[0, 0, 0]	-999	PAL1	0	R1097N
1495.399	0.016	1884463	REC_END	n/a	n/a	4	-999	n/a	n/a	n/a	n/a	12	[0, 0, 0]	-999	PAL1	0	R1097N
1495.415	0.902	1884479	TEST_ORIENT	n/a	n/a	1	5	GRAPE	SUN	SUN	GRAPE	12	[0, 0, 0]	-999	PAL1	0	R1097N
1496.317	0.001	1885381	TEST_PROBE	n/a	wordpools/wordpool_EN.txt	1	5	GRAPE	SUN	SUN	GRAPE	12	[0, 0, 0]	-999	PAL1	0	R1097N
1496.318	1.165	1885382	REC_START	n/a	n/a	1	-999	n/a	SUN	n/a	n/a	12	[0, 0, 0]	-999	PAL1	0	R1097N
1497.483	0.464	1886546	REC_EVENT	1165	n/a	1	5	GRAPE	GRAPE	SUN	GRAPE	12	[0, 0, 0]	-999	PAL1	0	R1097N
1497.947	3.37	1887010	REC_EVENT	1629	n/a	1	5	GRAPE	SUN	SUN	GRAPE	12	[0, 0, 0]	-999	PAL1	0	R1097N
1501.317	0.017	1890378	REC_END	n/a	n/a	1	-999	n/a	n/a	n/a	n/a	12	[0, 0, 0]	-999	PAL1	0	R1097N
1501.334	0.884	1890395	TEST_ORIENT	n/a	n/a	6	6	HOSE	ROAD	ROAD	HOSE	12	[0, 0, 0]	-999	PAL1	0	R1097N
1502.218	0.001	1891279	TEST_PROBE	n/a	wordpools/wordpool_EN.txt	6	6	HOSE	ROAD	ROAD	HOSE	12	[0, 0, 0]	-999	PAL1	0	R1097N
1502.219	1.454	1891280	REC_START	n/a	n/a	6	-999	n/a	ROAD	n/a	n/a	12	[0, 0, 0]	-999	PAL1	0	R1097N
1503.673	3.545	1892733	REC_EVENT	1454	n/a	6	6	HOSE	ROAD	ROAD	HOSE	12	[0, 0, 0]	-999	PAL1	0	R1097N
1507.218	0.026	1896276	REC_END	n/a	n/a	6	-999	n/a	n/a	n/a	n/a	12	[0, 0, 0]	-999	PAL1	0	R1097N
1507.244	16.097	1896302	FORCED_BREAK	n/a	n/a	6	-999	n/a	n/a	n/a	n/a	12	[0, 0, 0]	-999	PAL1	0	R1097N
1523.341	0.004	1912392	ENCODING_START	n/a	n/a	0	-999	n/a	n/a	n/a	n/a	13	[0, 0, 0]	-999	PAL1	0	R1097N
1523.345	0.876	1912396	STUDY_ORIENT	n/a	n/a	1	5	SCHOOL	GLASS	GLASS	SCHOOL	13	[0, 0, 0]	-999	PAL1	0	R1097N
1524.221	5.001	1913271	STUDY_PAIR	n/a	wordpools/wordpool_EN.txt	1	5	SCHOOL	GLASS	GLASS	SCHOOL	13	[0, 0, 0]	-999	PAL1	0	R1097N
1529.222	0.905	1918270	STUDY_ORIENT	n/a	n/a	2	4	GOAT	n/a	GOAT	COUCH	13	[0, 0, 0]	-999	PAL1	0	R1097N
1530.127	5.0	1919175	STUDY_PAIR	n/a	wordpools/wordpool_EN.txt	2	4	GOAT	n/a	GOAT	COUCH	13	[0, 0, 0]	-999	PAL1	0	R1097N
1535.127	0.766	1924172	STUDY_ORIENT	n/a	n/a	3	1	TANK	n/a	KEY	TANK	13	[0, 0, 0]	-999	PAL1	0	R1097N
1535.893	5.001	1924938	STUDY_PAIR	n/a	wordpools/wordpool_EN.txt	3	1	TANK	n/a	KEY	TANK	13	[0, 0, 0]	-999	PAL1	0	R1097N
1540.894	0.924	1929936	STUDY_ORIENT	n/a	n/a	4	6	EAR	KEY	EAR	SPOON	13	[0, 0, 0]	-999	PAL1	0	R1097N
1541.818	5.001	1930860	STUDY_PAIR	n/a	wordpools/wordpool_EN.txt	4	6	EAR	KEY	EAR	SPOON	13	[0, 0, 0]	-999	PAL1	0	R1097N
1546.819	0.906	1935859	STUDY_ORIENT	n/a	n/a	5	3	BEAR	n/a	BEAR	WHALE	13	[0, 0, 0]	-999	PAL1	0	R1097N
1547.725	5.001	1936764	STUDY_PAIR	n/a	wordpools/wordpool_EN.txt	5	3	BEAR	n/a	BEAR	WHALE	13	[0, 0, 0]	-999	PAL1	0	R1097N
1552.726	0.854	1941763	STUDY_ORIENT	n/a	n/a	6	2	LOCK	LOCK	STOOL	LOCK	13	[0, 0, 0]	-999	PAL1	0	R1097N
1553.58	4.001	1942616	STUDY_PAIR	n/a	wordpools/wordpool_EN.txt	6	2	LOCK	LOCK	STOOL	LOCK	13	[0, 0, 0]	-999	PAL1	0	R1097N
1557.581	0.999	1946616	START	n/a	n/a	-999	-999	n/a	n/a	n/a	n/a	13	[-999, -999, -999]	-999	PAL1	0	R1097N
1558.58	0.001	1947614	MATH_START	n/a	n/a	-999	-999	n/a	n/a	n/a	n/a	13	[0, 0, 0]	-999	PAL1	0	R1097N
1558.581	4.718	1947615	PROB	4714	n/a	-999	-999	n/a	n/a	n/a	n/a	13	[1, 3, 1]	5	PAL1	0	R1097N
1563.299	9.491	1952331	PROB	9486	n/a	-999	-999	n/a	n/a	n/a	n/a	13	[6, 8, 3]	17	PAL1	0	R1097N
1572.79	6.575	1961817	PROB	6575	n/a	-999	-999	n/a	n/a	n/a	n/a	13	[1, 2, 4]	7	PAL1	0	R1097N
1579.365	0.002	1968389	STOP	n/a	n/a	-999	-999	n/a	n/a	n/a	n/a	13	[-999, -999, -999]	-999	PAL1	0	R1097N
1579.367	0.0	1968391	MATH_END	n/a	n/a	-999	-999	n/a	n/a	n/a	n/a	13	[0, 0, 0]	-999	PAL1	0	R1097N
1579.367	0.002	1968391	TEST_START	n/a	n/a	-999	-999	n/a	n/a	n/a	n/a	13	[0, 0, 0]	-999	PAL1	0	R1097N
1579.369	0.869	1968393	TEST_ORIENT	n/a	n/a	3	1	TANK	n/a	KEY	TANK	13	[0, 0, 0]	-999	PAL1	0	R1097N
1580.238	0.001	1969262	TEST_PROBE	n/a	wordpools/wordpool_EN.txt	3	1	TANK	n/a	KEY	TANK	13	[0, 0, 0]	-999	PAL1	0	R1097N
1580.239	4.992	1969263	REC_START	n/a	n/a	3	-999	n/a	n/a	n/a	n/a	13	[0, 0, 0]	-999	PAL1	0	R1097N
1585.231	0.007	1974252	REC_EVENT	4992	n/a	3	1	TANK	<>	KEY	TANK	13	[0, 0, 0]	-999	PAL1	0	R1097N
1585.238	0.018	1974259	REC_END	n/a	n/a	3	-999	n/a	n/a	n/a	n/a	13	[0, 0, 0]	-999	PAL1	0	R1097N
1585.256	0.898	1974277	TEST_ORIENT	n/a	n/a	6	2	LOCK	LOCK	STOOL	LOCK	13	[0, 0, 0]	-999	PAL1	0	R1097N
1586.154	0.001	1975175	TEST_PROBE	n/a	wordpools/wordpool_EN.txt	6	2	LOCK	LOCK	STOOL	LOCK	13	[0, 0, 0]	-999	PAL1	0	R1097N
1586.155	2.348	1975176	REC_START	n/a	n/a	6	-999	n/a	LOCK	n/a	n/a	13	[0, 0, 0]	-999	PAL1	0	R1097N
1588.503	2.651	1977523	REC_EVENT	2348	n/a	6	2	LOCK	LOCK	STOOL	LOCK	13	[0, 0, 0]	-999	PAL1	0	R1097N
1591.154	0.019	1980173	REC_END	n/a	n/a	6	-999	n/a	n/a	n/a	n/a	13	[0, 0, 0]	-999	PAL1	0	R1097N
1591.173	0.918	1980192	TEST_ORIENT	n/a	n/a	5	3	BEAR	n/a	BEAR	WHALE	13	[0, 0, 0]	-999	PAL1	0	R1097N
1592.091	0.001	1981109	TEST_PROBE	n/a	wordpools/wordpool_EN.txt	5	3	BEAR	n/a	BEAR	WHALE	13	[0, 0, 0]	-999	PAL1	0	R1097N
1592.092	4.992	1981110	REC_START	n/a	n/a	5	-999	n/a	n/a	n/a	n/a	13	[0, 0, 0]	-999	PAL1	0	R1097N
1597.084	0.007	1986100	REC_EVENT	4992	n/a	5	3	BEAR	<>	BEAR	WHALE	13	[0, 0, 0]	-999	PAL1	0	R1097N
1597.091	0.019	1986107	REC_END	n/a	n/a	5	-999	n/a	n/a	n/a	n/a	13	[0, 0, 0]	-999	PAL1	0	R1097N
1597.11	0.806	1986126	TEST_ORIENT	n/a	n/a	2	4	GOAT	n/a	GOAT	COUCH	13	[0, 0, 0]	-999	PAL1	0	R1097N
1597.916	0.001	1986931	TEST_PROBE	n/a	wordpools/wordpool_EN.txt	2	4	GOAT	n/a	GOAT	COUCH	13	[0, 0, 0]	-999	PAL1	0	R1097N
1597.917	4.998	1986932	REC_START	n/a	n/a	2	-999	n/a	n/a	n/a	n/a	13	[0, 0, 0]	-999	PAL1	0	R1097N
1602.915	0.001	1991928	REC_EVENT	4998	n/a	2	4	GOAT	<>	GOAT	COUCH	13	[0, 0, 0]	-999	PAL1	0	R1097N
1602.916	0.018	1991929	REC_END	n/a	n/a	2	-999	n/a	n/a	n/a	n/a	13	[0, 0, 0]	-999	PAL1	0	R1097N
1602.934	0.96	1991947	TEST_ORIENT	n/a	n/a	1	5	SCHOOL	GLASS	GLASS	SCHOOL	13	[0, 0, 0]	-999	PAL1	0	R1097N
1603.894	0.001	1992907	TEST_PROBE	n/a	wordpools/wordpool_EN.txt	1	5	SCHOOL	GLASS	GLASS	SCHOOL	13	[0, 0, 0]	-999	PAL1	0	R1097N
1603.895	1.442	1992908	REC_START	n/a	n/a	1	-999	n/a	GLASS	n/a	n/a	13	[0, 0, 0]	-999	PAL1	0	R1097N
1605.337	3.557	1994349	REC_EVENT	1442	n/a	1	5	SCHOOL	GLASS	GLASS	SCHOOL	13	[0, 0, 0]	-999	PAL1	0	R1097N
1608.894	0.018	1997904	REC_END	n/a	n/a	1	-999	n/a	n/a	n/a	n/a	13	[0, 0, 0]	-999	PAL1	0	R1097N
1608.912	0.997	1997922	TEST_ORIENT	n/a	n/a	4	6	EAR	KEY	EAR	SPOON	13	[0, 0, 0]	-999	PAL1	0	R1097N
1609.909	0.001	1998919	TEST_PROBE	n/a	wordpools/wordpool_EN.txt	4	6	EAR	KEY	EAR	SPOON	13	[0, 0, 0]	-999	PAL1	0	R1097N
1609.91	1.44	1998920	REC_START	n/a	n/a	4	-999	n/a	KEY	n/a	n/a	13	[0, 0, 0]	-999	PAL1	0	R1097N
1611.35	3.559	2000359	REC_EVENT	1440	n/a	4	6	EAR	KEY	EAR	SPOON	13	[0, 0, 0]	-999	PAL1	0	R1097N
1614.909	0.026	2003916	REC_END	n/a	n/a	4	-999	n/a	n/a	n/a	n/a	13	[0, 0, 0]	-999	PAL1	0	R1097N
1614.935	16.421	2003942	FORCED_BREAK	n/a	n/a	4	-999	n/a	n/a	n/a	n/a	13	[0, 0, 0]	-999	PAL1	0	R1097N
1631.356	0.003	2020356	ENCODING_START	n/a	n/a	0	-999	n/a	n/a	n/a	n/a	14	[0, 0, 0]	-999	PAL1	0	R1097N
1631.359	0.988	2020359	STUDY_ORIENT	n/a	n/a	1	5	SAIL	n/a	DART	SAIL	14	[0, 0, 0]	-999	PAL1	0	R1097N
1632.347	5.001	2021346	STUDY_PAIR	n/a	wordpools/wordpool_EN.txt	1	5	SAIL	n/a	DART	SAIL	14	[0, 0, 0]	-999	PAL1	0	R1097N
1637.348	0.835	2026345	STUDY_ORIENT	n/a	n/a	2	4	TOOTH	FLAME	TOOTH	FLAME	14	[0, 0, 0]	-999	PAL1	0	R1097N
1638.183	5.001	2027179	STUDY_PAIR	n/a	wordpools/wordpool_EN.txt	2	4	TOOTH	FLAME	TOOTH	FLAME	14	[0, 0, 0]	-999	PAL1	0	R1097N
1643.184	0.87	2032178	STUDY_ORIENT	n/a	n/a	3	3	HEART	n/a	WEED	HEART	14	[0, 0, 0]	-999	PAL1	0	R1097N
1644.054	5.0	2033047	STUDY_PAIR	n/a	wordpools/wordpool_EN.txt	3	3	HEART	n/a	WEED	HEART	14	[0, 0, 0]	-999	PAL1	0	R1097N
1649.054	0.976	2038045	STUDY_ORIENT	n/a	n/a	4	6	SLIME	n/a	PLANT	SLIME	14	[0, 0, 0]	-999	PAL1	0	R1097N
1650.03	5.001	2039021	STUDY_PAIR	n/a	wordpools/wordpool_EN.txt	4	6	SLIME	n/a	PLANT	SLIME	14	[0, 0, 0]	-999	PAL1	0	R1097N
1655.031	0.879	2044019	STUDY_ORIENT	n/a	n/a	5	1	SLEEVE	n/a	SLEEVE	FISH	14	[0, 0, 0]	-999	PAL1	0	R1097N
1655.91	5.001	2044898	STUDY_PAIR	n/a	wordpools/wordpool_EN.txt	5	1	SLEEVE	n/a	SLEEVE	FISH	14	[0, 0, 0]	-999	PAL1	0	R1097N
1660.911	0.811	2049896	STUDY_ORIENT	n/a	n/a	6	2	BAND	ROSE	ROSE	BAND	14	[0, 0, 0]	-999	PAL1	0	R1097N
1661.722	4.001	2050707	STUDY_PAIR	n/a	wordpools/wordpool_EN.txt	6	2	BAND	ROSE	ROSE	BAND	14	[0, 0, 0]	-999	PAL1	0	R1097N
1665.723	0.999	2054706	START	n/a	n/a	-999	-999	n/a	n/a	n/a	n/a	14	[-999, -999, -999]	-999	PAL1	0	R1097N
1666.722	0.001	2055705	MATH_START	n/a	n/a	-999	-999	n/a	n/a	n/a	n/a	14	[0, 0, 0]	-999	PAL1	0	R1097N
1666.723	6.527	2055706	PROB	6523	n/a	-999	-999	n/a	n/a	n/a	n/a	14	[6, 6, 2]	14	PAL1	0	R1097N
1673.25	5.497	2062230	PROB	5493	n/a	-999	-999	n/a	n/a	n/a	n/a	14	[2, 1, 7]	10	PAL1	0	R1097N
1678.747	10.594	2067724	PROB	10594	n/a	-999	-999	n/a	n/a	n/a	n/a	14	[5, 7, 6]	18	PAL1	0	R1097N
1689.341	0.001	2078313	STOP	n/a	n/a	-999	-999	n/a	n/a	n/a	n/a	14	[-999, -999, -999]	-999	PAL1	0	R1097N
1689.342	0.0	2078314	MATH_END	n/a	n/a	-999	-999	n/a	n/a	n/a	n/a	14	[0, 0, 0]	-999	PAL1	0	R1097N
1689.342	0.002	2078314	TEST_START	n/a	n/a	-999	-999	n/a	n/a	n/a	n/a	14	[0, 0, 0]	-999	PAL1	0	R1097N
1689.344	0.795	2078316	TEST_ORIENT	n/a	n/a	5	1	SLEEVE	n/a	SLEEVE	FISH	14	[0, 0, 0]	-999	PAL1	0	R1097N
1690.139	0.001	2079111	TEST_PROBE	n/a	wordpools/wordpool_EN.txt	5	1	SLEEVE	n/a	SLEEVE	FISH	14	[0, 0, 0]	-999	PAL1	0	R1097N
1690.14	4.998	2079112	REC_START	n/a	n/a	5	-999	n/a	n/a	n/a	n/a	14	[0, 0, 0]	-999	PAL1	0	R1097N
1695.138	0.001	2084107	REC_EVENT	4998	n/a	5	1	SLEEVE	<>	SLEEVE	FISH	14	[0, 0, 0]	-999	PAL1	0	R1097N
1695.139	0.018	2084108	REC_END	n/a	n/a	5	-999	n/a	n/a	n/a	n/a	14	[0, 0, 0]	-999	PAL1	0	R1097N
1695.157	0.764	2084126	TEST_ORIENT	n/a	n/a	6	2	BAND	ROSE	ROSE	BAND	14	[0, 0, 0]	-999	PAL1	0	R1097N
1695.921	0.001	2084890	TEST_PROBE	n/a	wordpools/wordpool_EN.txt	6	2	BAND	ROSE	ROSE	BAND	14	[0, 0, 0]	-999	PAL1	0	R1097N
1695.922	1.064	2084891	REC_START	n/a	n/a	6	-999	n/a	ROSE	n/a	n/a	14	[0, 0, 0]	-999	PAL1	0	R1097N
1696.986	3.935	2085954	REC_EVENT	1064	n/a	6	2	BAND	ROSE	ROSE	BAND	14	[0, 0, 0]	-999	PAL1	0	R1097N
1700.921	0.018	2089888	REC_END	n/a	n/a	6	-999	n/a	n/a	n/a	n/a	14	[0, 0, 0]	-999	PAL1	0	R1097N
1700.939	0.78	2089906	TEST_ORIENT	n/a	n/a	3	3	HEART	n/a	WEED	HEART	14	[0, 0, 0]	-999	PAL1	0	R1097N
1701.719	0.001	2090685	TEST_PROBE	n/a	wordpools/wordpool_EN.txt	3	3	HEART	n/a	WEED	HEART	14	[0, 0, 0]	-999	PAL1	0	R1097N
1701.72	4.998	2090686	REC_START	n/a	n/a	3	-999	n/a	n/a	n/a	n/a	14	[0, 0, 0]	-999	PAL1	0	R1097N
1706.718	0.001	2095682	REC_EVENT	4998	n/a	3	3	HEART	<>	WEED	HEART	14	[0, 0, 0]	-999	PAL1	0	R1097N
1706.719	0.018	2095683	REC_END	n/a	n/a	3	-999	n/a	n/a	n/a	n/a	14	[0, 0, 0]	-999	PAL1	0	R1097N
1706.737	0.859	2095701	TEST_ORIENT	n/a	n/a	2	4	TOOTH	FLAME	TOOTH	FLAME	14	[0, 0, 0]	-999	PAL1	0	R1097N
1707.596	0.001	2096559	TEST_PROBE	n/a	wordpools/wordpool_EN.txt	2	4	TOOTH	FLAME	TOOTH	FLAME	14	[0, 0, 0]	-999	PAL1	0	R1097N
1707.597	2.591	2096560	REC_START	n/a	n/a	2	-999	n/a	FLAME	n/a	n/a	14	[0, 0, 0]	-999	PAL1	0	R1097N
1710.188	2.408	2099150	REC_EVENT	2591	n/a	2	4	TOOTH	FLAME	TOOTH	FLAME	14	[0, 0, 0]	-999	PAL1	0	R1097N
1712.596	0.018	2101557	REC_END	n/a	n/a	2	-999	n/a	n/a	n/a	n/a	14	[0, 0, 0]	-999	PAL1	0	R1097N
1712.614	0.833	2101575	TEST_ORIENT	n/a	n/a	1	5	SAIL	n/a	DART	SAIL	14	[0, 0, 0]	-999	PAL1	0	R1097N
1713.447	0.001	2102408	TEST_PROBE	n/a	wordpools/wordpool_EN.txt	1	5	SAIL	n/a	DART	SAIL	14	[0, 0, 0]	-999	PAL1	0	R1097N
1713.448	4.998	2102409	REC_START	n/a	n/a	1	-999	n/a	n/a	n/a	n/a	14	[0, 0, 0]	-999	PAL1	0	R1097N
1718.446	0.001	2107404	REC_EVENT	4998	n/a	1	5	SAIL	<>	DART	SAIL	14	[0, 0, 0]	-999	PAL1	0	R1097N
1718.447	0.018	2107405	REC_END	n/a	n/a	1	-999	n/a	n/a	n/a	n/a	14	[0, 0, 0]	-999	PAL1	0	R1097N
1718.465	0.861	2107423	TEST_ORIENT	n/a	n/a	4	6	SLIME	n/a	PLANT	SLIME	14	[0, 0, 0]	-999	PAL1	0	R1097N
1719.326	0.001	2108284	TEST_PROBE	n/a	wordpools/wordpool_EN.txt	4	6	SLIME	n/a	PLANT	SLIME	14	[0, 0, 0]	-999	PAL1	0	R1097N
1719.327	4.998	2108285	REC_START	n/a	n/a	4	-999	n/a	n/a	n/a	n/a	14	[0, 0, 0]	-999	PAL1	0	R1097N
1724.325	0.001	2113280	REC_EVENT	4998	n/a	4	6	SLIME	<>	PLANT	SLIME	14	[0, 0, 0]	-999	PAL1	0	R1097N
1724.326	0.027	2113281	REC_END	n/a	n/a	4	-999	n/a	n/a	n/a	n/a	14	[0, 0, 0]	-999	PAL1	0	R1097N
1724.353	13.865	2113308	FORCED_BREAK	n/a	n/a	4	-999	n/a	n/a	n/a	n/a	14	[0, 0, 0]	-999	PAL1	0	R1097N
1738.218	0.003	2127167	ENCODING_START	n/a	n/a	0	-999	n/a	n/a	n/a	n/a	15	[0, 0, 0]	-999	PAL1	0	R1097N
1738.221	0.752	2127170	STUDY_ORIENT	n/a	n/a	1	5	STOVE	n/a	OAR	STOVE	15	[0, 0, 0]	-999	PAL1	0	R1097N
1738.973	5.001	2127921	STUDY_PAIR	n/a	wordpools/wordpool_EN.txt	1	5	STOVE	n/a	OAR	STOVE	15	[0, 0, 0]	-999	PAL1	0	R1097N
1743.974	0.824	2132920	STUDY_ORIENT	n/a	n/a	2	6	LIP	n/a	FOOT	LIP	15	[0, 0, 0]	-999	PAL1	0	R1097N
1744.798	5.001	2133744	STUDY_PAIR	n/a	wordpools/wordpool_EN.txt	2	6	LIP	n/a	FOOT	LIP	15	[0, 0, 0]	-999	PAL1	0	R1097N
1749.799	0.879	2138742	STUDY_ORIENT	n/a	n/a	3	1	OWL	STICK	OWL	STICK	15	[0, 0, 0]	-999	PAL1	0	R1097N
1750.678	5.001	2139621	STUDY_PAIR	n/a	wordpools/wordpool_EN.txt	3	1	OWL	STICK	OWL	STICK	15	[0, 0, 0]	-999	PAL1	0	R1097N
1755.679	0.762	2144620	STUDY_ORIENT	n/a	n/a	4	2	CLOCK	GRASS	CLOCK	GRASS	15	[0, 0, 0]	-999	PAL1	0	R1097N
1756.441	5.001	2145381	STUDY_PAIR	n/a	wordpools/wordpool_EN.txt	4	2	CLOCK	GRASS	CLOCK	GRASS	15	[0, 0, 0]	-999	PAL1	0	R1097N
1761.442	0.934	2150380	STUDY_ORIENT	n/a	n/a	5	3	PIN	n/a	FAN	PIN	15	[0, 0, 0]	-999	PAL1	0	R1097N
1762.376	5.001	2151313	STUDY_PAIR	n/a	wordpools/wordpool_EN.txt	5	3	PIN	n/a	FAN	PIN	15	[0, 0, 0]	-999	PAL1	0	R1097N
1767.377	0.908	2156312	STUDY_ORIENT	n/a	n/a	6	4	TAIL	n/a	CANE	TAIL	15	[0, 0, 0]	-999	PAL1	0	R1097N
1768.285	4.001	2157220	STUDY_PAIR	n/a	wordpools/wordpool_EN.txt	6	4	TAIL	n/a	CANE	TAIL	15	[0, 0, 0]	-999	PAL1	0	R1097N
1772.286	0.999	2161219	START	n/a	n/a	-999	-999	n/a	n/a	n/a	n/a	15	[-999, -999, -999]	-999	PAL1	0	R1097N
1773.285	0.001	2162217	MATH_START	n/a	n/a	-999	-999	n/a	n/a	n/a	n/a	15	[0, 0, 0]	-999	PAL1	0	R1097N
1773.286	6.217	2162218	PROB	6212	n/a	-999	-999	n/a	n/a	n/a	n/a	15	[1, 7, 1]	9	PAL1	0	R1097N
1779.503	5.684	2168432	PROB	5679	n/a	-999	-999	n/a	n/a	n/a	n/a	15	[8, 2, 9]	19	PAL1	0	R1097N
1785.187	6.09	2174114	PROB	6086	n/a	-999	-999	n/a	n/a	n/a	n/a	15	[6, 4, 4]	14	PAL1	0	R1097N
1791.277	4.14	2180201	PROB	4140	n/a	-999	-999	n/a	n/a	n/a	n/a	15	[1, 1, 9]	11	PAL1	0	R1097N
1795.417	0.002	2184339	STOP	n/a	n/a	-999	-999	n/a	n/a	n/a	n/a	15	[-999, -999, -999]	-999	PAL1	0	R1097N
1795.419	0.0	2184341	TEST_START	n/a	n/a	-999	-999	n/a	n/a	n/a	n/a	15	[0, 0, 0]	-999	PAL1	0	R1097N
1795.419	0.002	2184341	MATH_END	n/a	n/a	-999	-999	n/a	n/a	n/a	n/a	15	[0, 0, 0]	-999	PAL1	0	R1097N
1795.421	0.951	2184343	TEST_ORIENT	n/a	n/a	3	1	OWL	STICK	OWL	STICK	15	[0, 0, 0]	-999	PAL1	0	R1097N
1796.372	0.001	2185293	TEST_PROBE	n/a	wordpools/wordpool_EN.txt	3	1	OWL	STICK	OWL	STICK	15	[0, 0, 0]	-999	PAL1	0	R1097N
1796.373	2.263	2185294	REC_START	n/a	n/a	3	-999	n/a	STICK	n/a	n/a	15	[0, 0, 0]	-999	PAL1	0	R1097N
1798.636	0.525	2187556	REC_EVENT	2263	n/a	3	1	OWL	OWL	OWL	STICK	15	[0, 0, 0]	-999	PAL1	0	R1097N
1799.161	1.0	2188081	REC_EVENT	2788	n/a	3	1	OWL	STICK	OWL	STICK	15	[0, 0, 0]	-999	PAL1	0	R1097N
1800.161	1.211	2189080	REC_EVENT	3788	n/a	3	1	OWL	<>	OWL	STICK	15	[0, 0, 0]	-999	PAL1	0	R1097N
1801.372	0.018	2190291	REC_END	n/a	n/a	3	-999	n/a	n/a	n/a	n/a	15	[0, 0, 0]	-999	PAL1	0	R1097N
1801.39	0.834	2190309	TEST_ORIENT	n/a	n/a	4	2	CLOCK	GRASS	CLOCK	GRASS	15	[0, 0, 0]	-999	PAL1	0	R1097N
1802.224	0.001	2191142	TEST_PROBE	n/a	wordpools/wordpool_EN.txt	4	2	CLOCK	GRASS	CLOCK	GRASS	15	[0, 0, 0]	-999	PAL1	0	R1097N
1802.225	1.42	2191143	REC_START	n/a	n/a	4	-999	n/a	GRASS	n/a	n/a	15	[0, 0, 0]	-999	PAL1	0	R1097N
1803.645	0.451	2192563	REC_EVENT	1420	n/a	4	2	CLOCK	CLOCK	CLOCK	GRASS	15	[0, 0, 0]	-999	PAL1	0	R1097N
1804.096	0.295	2193014	REC_EVENT	1871	n/a	4	2	CLOCK	<>	CLOCK	GRASS	15	[0, 0, 0]	-999	PAL1	0	R1097N
1804.391	2.833	2193308	REC_EVENT	2166	n/a	4	2	CLOCK	GRASS	CLOCK	GRASS	15	[0, 0, 0]	-999	PAL1	0	R1097N
1807.224	0.018	2196140	REC_END	n/a	n/a	4	-999	n/a	n/a	n/a	n/a	15	[0, 0, 0]	-999	PAL1	0	R1097N
1807.242	0.817	2196158	TEST_ORIENT	n/a	n/a	5	3	PIN	n/a	FAN	PIN	15	[0, 0, 0]	-999	PAL1	0	R1097N
1808.059	0.001	2196975	TEST_PROBE	n/a	wordpools/wordpool_EN.txt	5	3	PIN	n/a	FAN	PIN	15	[0, 0, 0]	-999	PAL1	0	R1097N
1808.06	4.992	2196976	REC_START	n/a	n/a	5	-999	n/a	n/a	n/a	n/a	15	[0, 0, 0]	-999	PAL1	0	R1097N
1813.052	0.007	2201965	REC_EVENT	4992	n/a	5	3	PIN	<>	FAN	PIN	15	[0, 0, 0]	-999	PAL1	0	R1097N
1813.059	0.018	2201972	REC_END	n/a	n/a	5	-999	n/a	n/a	n/a	n/a	15	[0, 0, 0]	-999	PAL1	0	R1097N
1813.077	0.978	2201990	TEST_ORIENT	n/a	n/a	6	4	TAIL	n/a	CANE	TAIL	15	[0, 0, 0]	-999	PAL1	0	R1097N
1814.055	0.0	2202968	TEST_PROBE	n/a	wordpools/wordpool_EN.txt	6	4	TAIL	n/a	CANE	TAIL	15	[0, 0, 0]	-999	PAL1	0	R1097N
1814.055	5.015	2202968	REC_START	n/a	n/a	6	-999	n/a	n/a	n/a	n/a	15	[0, 0, 0]	-999	PAL1	0	R1097N
1819.07	0.002	2207980	REC_EVENT	5015	n/a	6	4	TAIL	<>	CANE	TAIL	15	[0, 0, 0]	-999	PAL1	0	R1097N
1819.072	0.012	2207982	REC_END	n/a	n/a	6	-999	n/a	n/a	n/a	n/a	15	[0, 0, 0]	-999	PAL1	0	R1097N
1819.084	0.948	2207994	TEST_ORIENT	n/a	n/a	1	5	STOVE	n/a	OAR	STOVE	15	[0, 0, 0]	-999	PAL1	0	R1097N
1820.032	0.001	2208942	TEST_PROBE	n/a	wordpools/wordpool_EN.txt	1	5	STOVE	n/a	OAR	STOVE	15	[0, 0, 0]	-999	PAL1	0	R1097N
1820.033	4.998	2208943	REC_START	n/a	n/a	1	-999	n/a	n/a	n/a	n/a	15	[0, 0, 0]	-999	PAL1	0	R1097N
1825.031	0.001	2213939	REC_EVENT	4998	n/a	1	5	STOVE	<>	OAR	STOVE	15	[0, 0, 0]	-999	PAL1	0	R1097N
1825.032	0.02	2213940	REC_END	n/a	n/a	1	-999	n/a	n/a	n/a	n/a	15	[0, 0, 0]	-999	PAL1	0	R1097N
1825.052	0.854	2213960	TEST_ORIENT	n/a	n/a	2	6	LIP	n/a	FOOT	LIP	15	[0, 0, 0]	-999	PAL1	0	R1097N
1825.906	0.002	2214813	TEST_PROBE	n/a	wordpools/wordpool_EN.txt	2	6	LIP	n/a	FOOT	LIP	15	[0, 0, 0]	-999	PAL1	0	R1097N
1825.908	4.992	2214815	REC_START	n/a	n/a	2	-999	n/a	n/a	n/a	n/a	15	[0, 0, 0]	-999	PAL1	0	R1097N
1830.9	0.006	2219805	REC_EVENT	4992	n/a	2	6	LIP	<>	FOOT	LIP	15	[0, 0, 0]	-999	PAL1	0	R1097N
1830.906	0.027	2219811	REC_END	n/a	n/a	2	-999	n/a	n/a	n/a	n/a	15	[0, 0, 0]	-999	PAL1	0	R1097N
1830.933	12.721	2219838	FORCED_BREAK	n/a	n/a	2	-999	n/a	n/a	n/a	n/a	15	[0, 0, 0]	-999	PAL1	0	R1097N
1843.654	0.004	2232553	ENCODING_START	n/a	n/a	0	-999	n/a	n/a	n/a	n/a	16	[0, 0, 0]	-999	PAL1	0	R1097N
1843.658	0.847	2232557	STUDY_ORIENT	n/a	n/a	1	1	AXE	PIG	PIG	AXE	16	[0, 0, 0]	-999	PAL1	0	R1097N
1844.505	5.0	2233403	STUDY_PAIR	n/a	wordpools/wordpool_EN.txt	1	1	AXE	PIG	PIG	AXE	16	[0, 0, 0]	-999	PAL1	0	R1097N
1849.505	0.978	2238401	STUDY_ORIENT	n/a	n/a	2	6	MOTH	n/a	DITCH	MOTH	16	[0, 0, 0]	-999	PAL1	0	R1097N
1850.483	5.001	2239379	STUDY_PAIR	n/a	wordpools/wordpool_EN.txt	2	6	MOTH	n/a	DITCH	MOTH	16	[0, 0, 0]	-999	PAL1	0	R1097N
1855.484	0.821	2244377	STUDY_ORIENT	n/a	n/a	3	3	RAIN	BIRD	BIRD	RAIN	16	[0, 0, 0]	-999	PAL1	0	R1097N
1856.305	5.001	2245198	STUDY_PAIR	n/a	wordpools/wordpool_EN.txt	3	3	RAIN	BIRD	BIRD	RAIN	16	[0, 0, 0]	-999	PAL1	0	R1097N
1861.306	0.863	2250196	STUDY_ORIENT	n/a	n/a	4	4	MAZE	n/a	CROWN	MAZE	16	[0, 0, 0]	-999	PAL1	0	R1097N
1862.169	5.001	2251059	STUDY_PAIR	n/a	wordpools/wordpool_EN.txt	4	4	MAZE	n/a	CROWN	MAZE	16	[0, 0, 0]	-999	PAL1	0	R1097N
1867.17	0.802	2256058	STUDY_ORIENT	n/a	n/a	5	5	CUBE	n/a	SOUP	CUBE	16	[0, 0, 0]	-999	PAL1	0	R1097N
1867.972	5.0	2256859	STUDY_PAIR	n/a	wordpools/wordpool_EN.txt	5	5	CUBE	n/a	SOUP	CUBE	16	[0, 0, 0]	-999	PAL1	0	R1097N
1872.972	0.754	2261857	STUDY_ORIENT	n/a	n/a	6	2	SHEEP	WOLF	SHEEP	WOLF	16	[0, 0, 0]	-999	PAL1	0	R1097N
1873.726	4.001	2262611	STUDY_PAIR	n/a	wordpools/wordpool_EN.txt	6	2	SHEEP	WOLF	SHEEP	WOLF	16	[0, 0, 0]	-999	PAL1	0	R1097N
1877.727	0.999	2266610	START	n/a	n/a	-999	-999	n/a	n/a	n/a	n/a	16	[-999, -999, -999]	-999	PAL1	0	R1097N
1878.726	0.001	2267608	MATH_START	n/a	n/a	-999	-999	n/a	n/a	n/a	n/a	16	[0, 0, 0]	-999	PAL1	0	R1097N
1878.727	10.071	2267609	PROB	10066	n/a	-999	-999	n/a	n/a	n/a	n/a	16	[1, 6, 8]	15	PAL1	0	R1097N
1888.798	6.883	2277675	PROB	6877	n/a	-999	-999	n/a	n/a	n/a	n/a	16	[6, 3, 5]	14	PAL1	0	R1097N
1895.681	5.607	2284555	PROB	5607	n/a	-999	-999	n/a	n/a	n/a	n/a	16	[1, 3, 8]	12	PAL1	0	R1097N
1901.288	0.001	2290159	STOP	n/a	n/a	-999	-999	n/a	n/a	n/a	n/a	16	[-999, -999, -999]	-999	PAL1	0	R1097N
1901.289	0.0	2290160	MATH_END	n/a	n/a	-999	-999	n/a	n/a	n/a	n/a	16	[0, 0, 0]	-999	PAL1	0	R1097N
1901.289	0.002	2290160	TEST_START	n/a	n/a	-999	-999	n/a	n/a	n/a	n/a	16	[0, 0, 0]	-999	PAL1	0	R1097N
1901.291	0.981	2290162	TEST_ORIENT	n/a	n/a	1	1	AXE	PIG	PIG	AXE	16	[0, 0, 0]	-999	PAL1	0	R1097N
1902.272	0.002	2291143	TEST_PROBE	n/a	wordpools/wordpool_EN.txt	1	1	AXE	PIG	PIG	AXE	16	[0, 0, 0]	-999	PAL1	0	R1097N
1902.274	1.814	2291145	REC_START	n/a	n/a	1	-999	n/a	PIG	n/a	n/a	16	[0, 0, 0]	-999	PAL1	0	R1097N
1904.088	3.184	2292958	REC_EVENT	1814	n/a	1	1	AXE	PIG	PIG	AXE	16	[0, 0, 0]	-999	PAL1	0	R1097N
1907.272	0.018	2296141	REC_END	n/a	n/a	1	-999	n/a	n/a	n/a	n/a	16	[0, 0, 0]	-999	PAL1	0	R1097N
1907.29	0.926	2296159	TEST_ORIENT	n/a	n/a	6	2	SHEEP	WOLF	SHEEP	WOLF	16	[0, 0, 0]	-999	PAL1	0	R1097N
1908.216	0.001	2297084	TEST_PROBE	n/a	wordpools/wordpool_EN.txt	6	2	SHEEP	WOLF	SHEEP	WOLF	16	[0, 0, 0]	-999	PAL1	0	R1097N
1908.217	1.068	2297085	REC_START	n/a	n/a	6	-999	n/a	WOLF	n/a	n/a	16	[0, 0, 0]	-999	PAL1	0	R1097N
1909.285	3.931	2298153	REC_EVENT	1068	n/a	6	2	SHEEP	WOLF	SHEEP	WOLF	16	[0, 0, 0]	-999	PAL1	0	R1097N
1913.216	0.018	2302082	REC_END	n/a	n/a	6	-999	n/a	n/a	n/a	n/a	16	[0, 0, 0]	-999	PAL1	0	R1097N
1913.234	0.805	2302100	TEST_ORIENT	n/a	n/a	3	3	RAIN	BIRD	BIRD	RAIN	16	[0, 0, 0]	-999	PAL1	0	R1097N
1914.039	0.001	2302904	TEST_PROBE	n/a	wordpools/wordpool_EN.txt	3	3	RAIN	BIRD	BIRD	RAIN	16	[0, 0, 0]	-999	PAL1	0	R1097N
1914.04	2.298	2302905	REC_START	n/a	n/a	3	-999	n/a	BIRD	n/a	n/a	16	[0, 0, 0]	-999	PAL1	0	R1097N
1916.338	2.701	2305202	REC_EVENT	2298	n/a	3	3	RAIN	BIRD	BIRD	RAIN	16	[0, 0, 0]	-999	PAL1	0	R1097N
1919.039	0.018	2307902	REC_END	n/a	n/a	3	-999	n/a	n/a	n/a	n/a	16	[0, 0, 0]	-999	PAL1	0	R1097N
1919.057	0.802	2307920	TEST_ORIENT	n/a	n/a	4	4	MAZE	n/a	CROWN	MAZE	16	[0, 0, 0]	-999	PAL1	0	R1097N
1919.859	0.002	2308722	TEST_PROBE	n/a	wordpools/wordpool_EN.txt	4	4	MAZE	n/a	CROWN	MAZE	16	[0, 0, 0]	-999	PAL1	0	R1097N
1919.861	4.992	2308724	REC_START	n/a	n/a	4	-999	n/a	n/a	n/a	n/a	16	[0, 0, 0]	-999	PAL1	0	R1097N
1924.853	0.006	2313713	REC_EVENT	4992	n/a	4	4	MAZE	<>	CROWN	MAZE	16	[0, 0, 0]	-999	PAL1	0	R1097N
1924.859	0.018	2313719	REC_END	n/a	n/a	4	-999	n/a	n/a	n/a	n/a	16	[0, 0, 0]	-999	PAL1	0	R1097N
1924.877	0.946	2313737	TEST_ORIENT	n/a	n/a	5	5	CUBE	n/a	SOUP	CUBE	16	[0, 0, 0]	-999	PAL1	0	R1097N
1925.823	0.001	2314683	TEST_PROBE	n/a	wordpools/wordpool_EN.txt	5	5	CUBE	n/a	SOUP	CUBE	16	[0, 0, 0]	-999	PAL1	0	R1097N
1925.824	4.992	2314684	REC_START	n/a	n/a	5	-999	n/a	n/a	n/a	n/a	16	[0, 0, 0]	-999	PAL1	0	R1097N
1930.816	0.007	2319673	REC_EVENT	4992	n/a	5	5	CUBE	<>	SOUP	CUBE	16	[0, 0, 0]	-999	PAL1	0	R1097N
1930.823	0.018	2319680	REC_END	n/a	n/a	5	-999	n/a	n/a	n/a	n/a	16	[0, 0, 0]	-999	PAL1	0	R1097N
1930.841	0.848	2319698	TEST_ORIENT	n/a	n/a	2	6	MOTH	n/a	DITCH	MOTH	16	[0, 0, 0]	-999	PAL1	0	R1097N
1931.689	0.001	2320546	TEST_PROBE	n/a	wordpools/wordpool_EN.txt	2	6	MOTH	n/a	DITCH	MOTH	16	[0, 0, 0]	-999	PAL1	0	R1097N
1931.69	4.992	2320547	REC_START	n/a	n/a	2	-999	n/a	n/a	n/a	n/a	16	[0, 0, 0]	-999	PAL1	0	R1097N
1936.682	0.007	2325537	REC_EVENT	4992	n/a	2	6	MOTH	<>	DITCH	MOTH	16	[0, 0, 0]	-999	PAL1	0	R1097N
1936.689	0.027	2325544	REC_END	n/a	n/a	2	-999	n/a	n/a	n/a	n/a	16	[0, 0, 0]	-999	PAL1	0	R1097N
1936.716	15.32	2325571	FORCED_BREAK	n/a	n/a	2	-999	n/a	n/a	n/a	n/a	16	[0, 0, 0]	-999	PAL1	0	R1097N
1952.036	0.004	2340883	ENCODING_START	n/a	n/a	0	-999	n/a	n/a	n/a	n/a	17	[0, 0, 0]	-999	PAL1	0	R1097N
1952.04	0.871	2340887	STUDY_ORIENT	n/a	n/a	1	1	MUG	WORLD	WORLD	MUG	17	[0, 0, 0]	-999	PAL1	0	R1097N
1952.911	5.006	2341758	STUDY_PAIR	n/a	wordpools/wordpool_EN.txt	1	1	MUG	WORLD	WORLD	MUG	17	[0, 0, 0]	-999	PAL1	0	R1097N
1957.917	0.849	2346762	STUDY_ORIENT	n/a	n/a	2	6	DRUM	n/a	DRUM	SPEAR	17	[0, 0, 0]	-999	PAL1	0	R1097N
1958.766	5.001	2347610	STUDY_PAIR	n/a	wordpools/wordpool_EN.txt	2	6	DRUM	n/a	DRUM	SPEAR	17	[0, 0, 0]	-999	PAL1	0	R1097N
1963.767	0.862	2352609	STUDY_ORIENT	n/a	n/a	3	3	TIE	n/a	POOL	TIE	17	[0, 0, 0]	-999	PAL1	0	R1097N
1964.629	5.012	2353470	STUDY_PAIR	n/a	wordpools/wordpool_EN.txt	3	3	TIE	n/a	POOL	TIE	17	[0, 0, 0]	-999	PAL1	0	R1097N
1969.641	0.767	2358480	STUDY_ORIENT	n/a	n/a	4	2	WEB	n/a	WEB	MAT	17	[0, 0, 0]	-999	PAL1	0	R1097N
1970.408	5.001	2359247	STUDY_PAIR	n/a	wordpools/wordpool_EN.txt	4	2	WEB	n/a	WEB	MAT	17	[0, 0, 0]	-999	PAL1	0	R1097N
1975.409	0.97	2364245	STUDY_ORIENT	n/a	n/a	5	5	DRESS	n/a	DRESS	RAKE	17	[0, 0, 0]	-999	PAL1	0	R1097N
1976.379	5.0	2365215	STUDY_PAIR	n/a	wordpools/wordpool_EN.txt	5	5	DRESS	n/a	DRESS	RAKE	17	[0, 0, 0]	-999	PAL1	0	R1097N
1981.379	0.935	2370212	STUDY_ORIENT	n/a	n/a	6	4	APE	ARK	ARK	APE	17	[0, 0, 0]	-999	PAL1	0	R1097N
1982.314	4.001	2371147	STUDY_PAIR	n/a	wordpools/wordpool_EN.txt	6	4	APE	ARK	ARK	APE	17	[0, 0, 0]	-999	PAL1	0	R1097N
1986.315	0.999	2375146	START	n/a	n/a	-999	-999	n/a	n/a	n/a	n/a	17	[-999, -999, -999]	-999	PAL1	0	R1097N
1987.314	0.001	2376145	MATH_START	n/a	n/a	-999	-999	n/a	n/a	n/a	n/a	17	[0, 0, 0]	-999	PAL1	0	R1097N
1987.315	6.897	2376146	PROB	6893	n/a	-999	-999	n/a	n/a	n/a	n/a	17	[3, 4, 1]	8	PAL1	0	R1097N
1994.212	5.786	2383039	PROB	5781	n/a	-999	-999	n/a	n/a	n/a	n/a	17	[8, 2, 9]	19	PAL1	0	R1097N
1999.998	8.567	2388823	PROB	8567	n/a	-999	-999	n/a	n/a	n/a	n/a	17	[5, 7, 1]	13	PAL1	0	R1097N
2008.565	0.001	2397386	STOP	n/a	n/a	-999	-999	n/a	n/a	n/a	n/a	17	[-999, -999, -999]	-999	PAL1	0	R1097N
2008.566	0.0	2397387	MATH_END	n/a	n/a	-999	-999	n/a	n/a	n/a	n/a	17	[0, 0, 0]	-999	PAL1	0	R1097N
2008.566	0.002	2397387	TEST_START	n/a	n/a	-999	-999	n/a	n/a	n/a	n/a	17	[0, 0, 0]	-999	PAL1	0	R1097N
2008.568	0.828	2397389	TEST_ORIENT	n/a	n/a	1	1	MUG	WORLD	WORLD	MUG	17	[0, 0, 0]	-999	PAL1	0	R1097N
2009.396	0.001	2398216	TEST_PROBE	n/a	wordpools/wordpool_EN.txt	1	1	MUG	WORLD	WORLD	MUG	17	[0, 0, 0]	-999	PAL1	0	R1097N
2009.397	1.447	2398217	REC_START	n/a	n/a	1	-999	n/a	WORLD	n/a	n/a	17	[0, 0, 0]	-999	PAL1	0	R1097N
2010.844	3.552	2399663	REC_EVENT	1447	n/a	1	1	MUG	WORLD	WORLD	MUG	17	[0, 0, 0]	-999	PAL1	0	R1097N
2014.396	0.017	2403214	REC_END	n/a	n/a	1	-999	n/a	n/a	n/a	n/a	17	[0, 0, 0]	-999	PAL1	0	R1097N
2014.413	0.962	2403231	TEST_ORIENT	n/a	n/a	4	2	WEB	n/a	WEB	MAT	17	[0, 0, 0]	-999	PAL1	0	R1097N
2015.375	0.001	2404192	TEST_PROBE	n/a	wordpools/wordpool_EN.txt	4	2	WEB	n/a	WEB	MAT	17	[0, 0, 0]	-999	PAL1	0	R1097N
2015.376	4.998	2404193	REC_START	n/a	n/a	4	-999	n/a	n/a	n/a	n/a	17	[0, 0, 0]	-999	PAL1	0	R1097N
2020.374	0.001	2409189	REC_EVENT	4998	n/a	4	2	WEB	<>	WEB	MAT	17	[0, 0, 0]	-999	PAL1	0	R1097N
2020.375	0.018	2409190	REC_END	n/a	n/a	4	-999	n/a	n/a	n/a	n/a	17	[0, 0, 0]	-999	PAL1	0	R1097N
2020.393	0.939	2409208	TEST_ORIENT	n/a	n/a	3	3	TIE	n/a	POOL	TIE	17	[0, 0, 0]	-999	PAL1	0	R1097N
2021.332	0.001	2410146	TEST_PROBE	n/a	wordpools/wordpool_EN.txt	3	3	TIE	n/a	POOL	TIE	17	[0, 0, 0]	-999	PAL1	0	R1097N
2021.333	4.998	2410147	REC_START	n/a	n/a	3	-999	n/a	n/a	n/a	n/a	17	[0, 0, 0]	-999	PAL1	0	R1097N
2026.331	0.001	2415143	REC_EVENT	4998	n/a	3	3	TIE	<>	POOL	TIE	17	[0, 0, 0]	-999	PAL1	0	R1097N
2026.332	0.018	2415144	REC_END	n/a	n/a	3	-999	n/a	n/a	n/a	n/a	17	[0, 0, 0]	-999	PAL1	0	R1097N
2026.35	0.86	2415162	TEST_ORIENT	n/a	n/a	6	4	APE	ARK	ARK	APE	17	[0, 0, 0]	-999	PAL1	0	R1097N
2027.21	0.001	2416022	TEST_PROBE	n/a	wordpools/wordpool_EN.txt	6	4	APE	ARK	ARK	APE	17	[0, 0, 0]	-999	PAL1	0	R1097N
2027.211	1.0	2416023	REC_START	n/a	n/a	6	-999	n/a	ARK	n/a	n/a	17	[0, 0, 0]	-999	PAL1	0	R1097N
2028.211	3.999	2417022	REC_EVENT	1000	n/a	6	4	APE	ARK	ARK	APE	17	[0, 0, 0]	-999	PAL1	0	R1097N
2032.21	0.018	2421019	REC_END	n/a	n/a	6	-999	n/a	n/a	n/a	n/a	17	[0, 0, 0]	-999	PAL1	0	R1097N
2032.228	0.772	2421037	TEST_ORIENT	n/a	n/a	5	5	DRESS	n/a	DRESS	RAKE	17	[0, 0, 0]	-999	PAL1	0	R1097N
2033.0	0.001	2421809	TEST_PROBE	n/a	wordpools/wordpool_EN.txt	5	5	DRESS	n/a	DRESS	RAKE	17	[0, 0, 0]	-999	PAL1	0	R1097N
2033.001	4.992	2421810	REC_START	n/a	n/a	5	-999	n/a	n/a	n/a	n/a	17	[0, 0, 0]	-999	PAL1	0	R1097N
2037.993	0.007	2426800	REC_EVENT	4992	n/a	5	5	DRESS	<>	DRESS	RAKE	17	[0, 0, 0]	-999	PAL1	0	R1097N
2038.0	0.018	2426807	REC_END	n/a	n/a	5	-999	n/a	n/a	n/a	n/a	17	[0, 0, 0]	-999	PAL1	0	R1097N
2038.018	0.857	2426825	TEST_ORIENT	n/a	n/a	2	6	DRUM	n/a	DRUM	SPEAR	17	[0, 0, 0]	-999	PAL1	0	R1097N
2038.875	0.001	2427681	TEST_PROBE	n/a	wordpools/wordpool_EN.txt	2	6	DRUM	n/a	DRUM	SPEAR	17	[0, 0, 0]	-999	PAL1	0	R1097N
2038.876	4.998	2427682	REC_START	n/a	n/a	2	-999	n/a	n/a	n/a	n/a	17	[0, 0, 0]	-999	PAL1	0	R1097N
2043.874	0.001	2432678	REC_EVENT	4998	n/a	2	6	DRUM	<>	DRUM	SPEAR	17	[0, 0, 0]	-999	PAL1	0	R1097N
2043.875	0.026	2432679	REC_END	n/a	n/a	2	-999	n/a	n/a	n/a	n/a	17	[0, 0, 0]	-999	PAL1	0	R1097N
2043.901	16.95	2432705	FORCED_BREAK	n/a	n/a	2	-999	n/a	n/a	n/a	n/a	17	[0, 0, 0]	-999	PAL1	0	R1097N
2060.851	0.004	2449647	ENCODING_START	n/a	n/a	0	-999	n/a	n/a	n/a	n/a	18	[0, 0, 0]	-999	PAL1	0	R1097N
2060.855	0.885	2449651	STUDY_ORIENT	n/a	n/a	1	3	CLOUD	n/a	TOAD	CLOUD	18	[0, 0, 0]	-999	PAL1	0	R1097N
2061.74	5.001	2450535	STUDY_PAIR	n/a	wordpools/wordpool_EN.txt	1	3	CLOUD	n/a	TOAD	CLOUD	18	[0, 0, 0]	-999	PAL1	0	R1097N
2066.741	0.941	2455534	STUDY_ORIENT	n/a	n/a	2	4	TRUCK	TRASH	TRASH	TRUCK	18	[0, 0, 0]	-999	PAL1	0	R1097N
2067.682	5.001	2456475	STUDY_PAIR	n/a	wordpools/wordpool_EN.txt	2	4	TRUCK	TRASH	TRASH	TRUCK	18	[0, 0, 0]	-999	PAL1	0	R1097N
2072.683	0.979	2461473	STUDY_ORIENT	n/a	n/a	3	5	CAT	n/a	CAT	JUDGE	18	[0, 0, 0]	-999	PAL1	0	R1097N
2073.662	5.001	2462452	STUDY_PAIR	n/a	wordpools/wordpool_EN.txt	3	5	CAT	n/a	CAT	JUDGE	18	[0, 0, 0]	-999	PAL1	0	R1097N
2078.663	0.757	2467450	STUDY_ORIENT	n/a	n/a	4	6	EEL	n/a	EEL	HOLE	18	[0, 0, 0]	-999	PAL1	0	R1097N
2079.42	5.0	2468207	STUDY_PAIR	n/a	wordpools/wordpool_EN.txt	4	6	EEL	n/a	EEL	HOLE	18	[0, 0, 0]	-999	PAL1	0	R1097N
2084.42	0.891	2473205	STUDY_ORIENT	n/a	n/a	5	1	JUICE	n/a	JUICE	BAG	18	[0, 0, 0]	-999	PAL1	0	R1097N
2085.311	5.001	2474095	STUDY_PAIR	n/a	wordpools/wordpool_EN.txt	5	1	JUICE	n/a	JUICE	BAG	18	[0, 0, 0]	-999	PAL1	0	R1097N
2090.312	0.95	2479094	STUDY_ORIENT	n/a	n/a	6	2	ROOF	n/a	ROOF	BAT	18	[0, 0, 0]	-999	PAL1	0	R1097N
2091.262	4.001	2480043	STUDY_PAIR	n/a	wordpools/wordpool_EN.txt	6	2	ROOF	n/a	ROOF	BAT	18	[0, 0, 0]	-999	PAL1	0	R1097N
2095.263	0.999	2484042	START	n/a	n/a	-999	-999	n/a	n/a	n/a	n/a	18	[-999, -999, -999]	-999	PAL1	0	R1097N
2096.262	0.001	2485041	MATH_START	n/a	n/a	-999	-999	n/a	n/a	n/a	n/a	18	[0, 0, 0]	-999	PAL1	0	R1097N
2096.263	9.957	2485042	PROB	9953	n/a	-999	-999	n/a	n/a	n/a	n/a	18	[8, 6, 1]	15	PAL1	0	R1097N
2106.22	8.571	2494994	PROB	8567	n/a	-999	-999	n/a	n/a	n/a	n/a	18	[4, 9, 5]	18	PAL1	0	R1097N
2114.791	5.543	2503561	PROB	5543	n/a	-999	-999	n/a	n/a	n/a	n/a	18	[7, 2, 4]	13	PAL1	0	R1097N
2120.334	0.002	2509102	STOP	n/a	n/a	-999	-999	n/a	n/a	n/a	n/a	18	[-999, -999, -999]	-999	PAL1	0	R1097N
2120.336	0.0	2509104	MATH_END	n/a	n/a	-999	-999	n/a	n/a	n/a	n/a	18	[0, 0, 0]	-999	PAL1	0	R1097N
2120.336	0.002	2509104	TEST_START	n/a	n/a	-999	-999	n/a	n/a	n/a	n/a	18	[0, 0, 0]	-999	PAL1	0	R1097N
2120.338	0.837	2509106	TEST_ORIENT	n/a	n/a	5	1	JUICE	n/a	JUICE	BAG	18	[0, 0, 0]	-999	PAL1	0	R1097N
2121.175	0.001	2509942	TEST_PROBE	n/a	wordpools/wordpool_EN.txt	5	1	JUICE	n/a	JUICE	BAG	18	[0, 0, 0]	-999	PAL1	0	R1097N
2121.176	4.998	2509943	REC_START	n/a	n/a	5	-999	n/a	n/a	n/a	n/a	18	[0, 0, 0]	-999	PAL1	0	R1097N
2126.174	0.001	2514939	REC_EVENT	4998	n/a	5	1	JUICE	<>	JUICE	BAG	18	[0, 0, 0]	-999	PAL1	0	R1097N
2126.175	0.018	2514940	REC_END	n/a	n/a	5	-999	n/a	n/a	n/a	n/a	18	[0, 0, 0]	-999	PAL1	0	R1097N
2126.193	0.989	2514958	TEST_ORIENT	n/a	n/a	6	2	ROOF	n/a	ROOF	BAT	18	[0, 0, 0]	-999	PAL1	0	R1097N
2127.182	0.001	2515946	TEST_PROBE	n/a	wordpools/wordpool_EN.txt	6	2	ROOF	n/a	ROOF	BAT	18	[0, 0, 0]	-999	PAL1	0	R1097N
2127.183	4.998	2515947	REC_START	n/a	n/a	6	-999	n/a	n/a	n/a	n/a	18	[0, 0, 0]	-999	PAL1	0	R1097N
2132.181	0.001	2520943	REC_EVENT	4998	n/a	6	2	ROOF	<>	ROOF	BAT	18	[0, 0, 0]	-999	PAL1	0	R1097N
2132.182	0.018	2520944	REC_END	n/a	n/a	6	-999	n/a	n/a	n/a	n/a	18	[0, 0, 0]	-999	PAL1	0	R1097N
2132.2	0.886	2520962	TEST_ORIENT	n/a	n/a	1	3	CLOUD	n/a	TOAD	CLOUD	18	[0, 0, 0]	-999	PAL1	0	R1097N
2133.086	0.001	2521847	TEST_PROBE	n/a	wordpools/wordpool_EN.txt	1	3	CLOUD	n/a	TOAD	CLOUD	18	[0, 0, 0]	-999	PAL1	0	R1097N
2133.087	4.992	2521848	REC_START	n/a	n/a	1	-999	n/a	n/a	n/a	n/a	18	[0, 0, 0]	-999	PAL1	0	R1097N
2138.079	0.007	2526838	REC_EVENT	4992	n/a	1	3	CLOUD	<>	TOAD	CLOUD	18	[0, 0, 0]	-999	PAL1	0	R1097N
2138.086	0.018	2526845	REC_END	n/a	n/a	1	-999	n/a	n/a	n/a	n/a	18	[0, 0, 0]	-999	PAL1	0	R1097N
2138.104	0.934	2526863	TEST_ORIENT	n/a	n/a	2	4	TRUCK	TRASH	TRASH	TRUCK	18	[0, 0, 0]	-999	PAL1	0	R1097N
2139.038	0.001	2527797	TEST_PROBE	n/a	wordpools/wordpool_EN.txt	2	4	TRUCK	TRASH	TRASH	TRUCK	18	[0, 0, 0]	-999	PAL1	0	R1097N
2139.039	4.083	2527798	REC_START	n/a	n/a	2	-999	n/a	TRASH	n/a	n/a	18	[0, 0, 0]	-999	PAL1	0	R1097N
2143.122	0.916	2531879	REC_EVENT	4083	n/a	2	4	TRUCK	TRASH	TRASH	TRUCK	18	[0, 0, 0]	-999	PAL1	0	R1097N
2144.038	0.018	2532794	REC_END	n/a	n/a	2	-999	n/a	n/a	n/a	n/a	18	[0, 0, 0]	-999	PAL1	0	R1097N
2144.056	0.969	2532812	TEST_ORIENT	n/a	n/a	3	5	CAT	n/a	CAT	JUDGE	18	[0, 0, 0]	-999	PAL1	0	R1097N
2145.025	0.001	2533781	TEST_PROBE	n/a	wordpools/wordpool_EN.txt	3	5	CAT	n/a	CAT	JUDGE	18	[0, 0, 0]	-999	PAL1	0	R1097N
2145.026	4.998	2533782	REC_START	n/a	n/a	3	-999	n/a	n/a	n/a	n/a	18	[0, 0, 0]	-999	PAL1	0	R1097N
2150.024	0.001	2538777	REC_EVENT	4998	n/a	3	5	CAT	<>	CAT	JUDGE	18	[0, 0, 0]	-999	PAL1	0	R1097N
2150.025	0.017	2538778	REC_END	n/a	n/a	3	-999	n/a	n/a	n/a	n/a	18	[0, 0, 0]	-999	PAL1	0	R1097N
2150.042	0.799	2538795	TEST_ORIENT	n/a	n/a	4	6	EEL	n/a	EEL	HOLE	18	[0, 0, 0]	-999	PAL1	0	R1097N
2150.841	0.002	2539594	TEST_PROBE	n/a	wordpools/wordpool_EN.txt	4	6	EEL	n/a	EEL	HOLE	18	[0, 0, 0]	-999	PAL1	0	R1097N
2150.843	5.021	2539596	REC_START	n/a	n/a	4	-999	n/a	n/a	n/a	n/a	18	[0, 0, 0]	-999	PAL1	0	R1097N
2155.864	0.0	2544615	REC_EVENT	5021	n/a	4	6	EEL	<>	EEL	HOLE	18	[0, 0, 0]	-999	PAL1	0	R1097N
2155.864	0.025	2544615	REC_END	n/a	n/a	4	-999	n/a	n/a	n/a	n/a	18	[0, 0, 0]	-999	PAL1	0	R1097N
2155.889	36.571	2544640	FORCED_BREAK	n/a	n/a	4	-999	n/a	n/a	n/a	n/a	18	[0, 0, 0]	-999	PAL1	0	R1097N
2192.46	0.004	2581193	ENCODING_START	n/a	n/a	0	-999	n/a	n/a	n/a	n/a	19	[0, 0, 0]	-999	PAL1	0	R1097N
2192.464	0.777	2581197	STUDY_ORIENT	n/a	n/a	1	5	GLOVE	DOOR	DOOR	GLOVE	19	[0, 0, 0]	-999	PAL1	0	R1097N
2193.241	5.001	2581974	STUDY_PAIR	n/a	wordpools/wordpool_EN.txt	1	5	GLOVE	DOOR	DOOR	GLOVE	19	[0, 0, 0]	-999	PAL1	0	R1097N
2198.242	0.764	2586973	STUDY_ORIENT	n/a	n/a	2	6	BADGE	n/a	BADGE	HAND	19	[0, 0, 0]	-999	PAL1	0	R1097N
2199.006	5.001	2587736	STUDY_PAIR	n/a	wordpools/wordpool_EN.txt	2	6	BADGE	n/a	BADGE	HAND	19	[0, 0, 0]	-999	PAL1	0	R1097N
2204.007	0.842	2592735	STUDY_ORIENT	n/a	n/a	3	3	BEAK	n/a	BEAK	BOARD	19	[0, 0, 0]	-999	PAL1	0	R1097N
2204.849	5.0	2593576	STUDY_PAIR	n/a	wordpools/wordpool_EN.txt	3	3	BEAK	n/a	BEAK	BOARD	19	[0, 0, 0]	-999	PAL1	0	R1097N
2209.849	0.999	2598574	STUDY_ORIENT	n/a	n/a	4	2	MULE	n/a	MULE	BEAN	19	[0, 0, 0]	-999	PAL1	0	R1097N
2210.848	5.001	2599573	STUDY_PAIR	n/a	wordpools/wordpool_EN.txt	4	2	MULE	n/a	MULE	BEAN	19	[0, 0, 0]	-999	PAL1	0	R1097N
2215.849	0.751	2604571	STUDY_ORIENT	n/a	n/a	5	1	NOSE	n/a	HORN	NOSE	19	[0, 0, 0]	-999	PAL1	0	R1097N
2216.6	5.001	2605322	STUDY_PAIR	n/a	wordpools/wordpool_EN.txt	5	1	NOSE	n/a	HORN	NOSE	19	[0, 0, 0]	-999	PAL1	0	R1097N
2221.601	0.808	2610320	STUDY_ORIENT	n/a	n/a	6	4	WOOD	FRUIT	FRUIT	WOOD	19	[0, 0, 0]	-999	PAL1	0	R1097N
2222.409	4.001	2611128	STUDY_PAIR	n/a	wordpools/wordpool_EN.txt	6	4	WOOD	FRUIT	FRUIT	WOOD	19	[0, 0, 0]	-999	PAL1	0	R1097N
2226.41	0.999	2615127	START	n/a	n/a	-999	-999	n/a	n/a	n/a	n/a	19	[-999, -999, -999]	-999	PAL1	0	R1097N
2227.409	0.001	2616126	MATH_START	n/a	n/a	-999	-999	n/a	n/a	n/a	n/a	19	[0, 0, 0]	-999	PAL1	0	R1097N
2227.41	11.042	2616127	PROB	11038	n/a	-999	-999	n/a	n/a	n/a	n/a	19	[3, 4, 8]	15	PAL1	0	R1097N
2238.452	7.315	2627163	PROB	7311	n/a	-999	-999	n/a	n/a	n/a	n/a	19	[8, 4, 2]	14	PAL1	0	R1097N
2245.767	5.415	2634475	PROB	5415	n/a	-999	-999	n/a	n/a	n/a	n/a	19	[6, 7, 3]	16	PAL1	0	R1097N
2251.182	0.002	2639887	STOP	n/a	n/a	-999	-999	n/a	n/a	n/a	n/a	19	[-999, -999, -999]	-999	PAL1	0	R1097N
2251.184	0.0	2639889	MATH_END	n/a	n/a	-999	-999	n/a	n/a	n/a	n/a	19	[0, 0, 0]	-999	PAL1	0	R1097N
