onset	duration	sample	trial_type	response_time	stim_file	serialpos	probepos	probe_word	resp_word	study_1	study_2	list	test	answer	experiment	session	subject
0.0	68.492	14875	SESS_START	n/a	n/a	-999	-999	n/a	n/a	n/a	n/a	-999	[0, 0, 0]	-999	PAL1	0	R1086M
68.492	1.017	49119	START	n/a	n/a	-999	-999	n/a	n/a	n/a	n/a	-1	[-999, -999, -999]	-999	PAL1	0	R1086M
69.509	4.784	49627	PROB	4.75	n/a	-999	-999	n/a	n/a	n/a	n/a	-1	[5, 8, 1]	14	PAL1	0	R1086M
74.293	3.4	52019	PROB	3.365	n/a	-999	-999	n/a	n/a	n/a	n/a	-1	[3, 6, 6]	15	PAL1	0	R1086M
77.693	3.768	53719	PROB	3.734	n/a	-999	-999	n/a	n/a	n/a	n/a	-1	[9, 8, 9]	27	PAL1	0	R1086M
81.461	4.618	55603	PROB	4.59	n/a	-999	-999	n/a	n/a	n/a	n/a	-1	[9, 1, 3]	13	PAL1	0	R1086M
86.079	3.436	57912	PROB	3.436	n/a	-999	-999	n/a	n/a	n/a	n/a	-1	[9, 4, 2]	15	PAL1	0	R1086M
89.515	44.263	59629	STOP	n/a	n/a	-999	-999	n/a	n/a	n/a	n/a	-1	[-999, -999, -999]	-999	PAL1	0	R1086M
133.778	10.446	81759	ENCODING_START	n/a	n/a	0	-999	n/a	n/a	n/a	n/a	1	[0, 0, 0]	-999	PAL1	0	R1086M
144.224	0.275	86982	STUDY_ORIENT	n/a	n/a	1	3	GRASS	GLASS	GLASS	GRASS	1	[0, 0, 0]	-999	PAL1	0	R1086M
145.14	4.0	87440	STUDY_PAIR	n/a	wordpools/wordpool_EN.txt	1	3	GRASS	GLASS	GLASS	GRASS	1	[0, 0, 0]	-999	PAL1	0	R1086M
150.158	0.275	89949	STUDY_ORIENT	n/a	n/a	2	6	SHARK	n/a	SHARK	BRANCH	1	[0, 0, 0]	-999	PAL1	0	R1086M
151.042	4.0	90391	STUDY_PAIR	n/a	wordpools/wordpool_EN.txt	2	6	SHARK	n/a	SHARK	BRANCH	1	[0, 0, 0]	-999	PAL1	0	R1086M
156.076	0.275	92908	STUDY_ORIENT	n/a	n/a	3	1	BALL	n/a	FARM	BALL	1	[0, 0, 0]	-999	PAL1	0	R1086M
156.976	4.0	93358	STUDY_PAIR	n/a	wordpools/wordpool_EN.txt	3	1	BALL	n/a	FARM	BALL	1	[0, 0, 0]	-999	PAL1	0	R1086M
161.994	0.275	95866	STUDY_ORIENT	n/a	n/a	4	4	MAT	MAT	MAT	FUR	1	[0, 0, 0]	-999	PAL1	0	R1086M
162.877	4.0	96308	STUDY_PAIR	n/a	wordpools/wordpool_EN.txt	4	4	MAT	MAT	MAT	FUR	1	[0, 0, 0]	-999	PAL1	0	R1086M
167.895	0.275	98817	STUDY_ORIENT	n/a	n/a	5	5	ARM	ELBOW	ARM	ELF	1	[0, 0, 0]	-999	PAL1	0	R1086M
168.727	4.0	99233	STUDY_PAIR	n/a	wordpools/wordpool_EN.txt	5	5	ARM	ELBOW	ARM	ELF	1	[0, 0, 0]	-999	PAL1	0	R1086M
173.745	0.275	101742	STUDY_ORIENT	n/a	n/a	6	2	PARK	n/a	PARK	WOOD	1	[0, 0, 0]	-999	PAL1	0	R1086M
174.578	4.0	102158	STUDY_PAIR	n/a	wordpools/wordpool_EN.txt	6	2	PARK	n/a	PARK	WOOD	1	[0, 0, 0]	-999	PAL1	0	R1086M
178.58	0.999	104159	START	n/a	n/a	-999	-999	n/a	n/a	n/a	n/a	1	[-999, -999, -999]	-999	PAL1	0	R1086M
179.579	0.017	104658	MATH_START	n/a	n/a	-999	-999	n/a	n/a	n/a	n/a	1	[0, 0, 0]	-999	PAL1	0	R1086M
179.596	5.569	104667	PROB	5.535	n/a	-999	-999	n/a	n/a	n/a	n/a	1	[1, 4, 1]	6	PAL1	0	R1086M
185.165	2.499	107451	PROB	2.469	n/a	-999	-999	n/a	n/a	n/a	n/a	1	[5, 1, 5]	11	PAL1	0	R1086M
187.664	3.968	108701	PROB	3.938	n/a	-999	-999	n/a	n/a	n/a	n/a	1	[8, 4, 4]	16	PAL1	0	R1086M
191.632	3.602	110684	PROB	3.579	n/a	-999	-999	n/a	n/a	n/a	n/a	1	[6, 6, 4]	16	PAL1	0	R1086M
195.234	3.616	112485	PROB	3.616	n/a	-999	-999	n/a	n/a	n/a	n/a	1	[4, 3, 5]	12	PAL1	0	R1086M
198.85	0.018	114293	STOP	n/a	n/a	-999	-999	n/a	n/a	n/a	n/a	1	[-999, -999, -999]	-999	PAL1	0	R1086M
198.868	0.0	114302	TEST_START	n/a	n/a	-999	-999	n/a	n/a	n/a	n/a	1	[0, 0, 0]	-999	PAL1	0	R1086M
198.868	0.016	114302	MATH_END	n/a	n/a	-999	-999	n/a	n/a	n/a	n/a	1	[0, 0, 0]	-999	PAL1	0	R1086M
198.884	0.275	114310	TEST_ORIENT	n/a	n/a	3	1	BALL	n/a	FARM	BALL	1	[0, 0, 0]	-999	PAL1	0	R1086M
199.85	4.0	114793	TEST_PROBE	n/a	wordpools/wordpool_EN.txt	3	1	BALL	n/a	FARM	BALL	1	[0, 0, 0]	-999	PAL1	0	R1086M
199.851	0.2	114794	REC_START	n/a	n/a	3	-999	n/a	n/a	n/a	n/a	1	[0, 0, 0]	-999	PAL1	0	R1086M
200.051	4.812	114894	REC_EVENT	0.2	n/a	3	1	BALL	<>	FARM	BALL	1	[0, 0, 0]	-999	PAL1	0	R1086M
204.863	0.022	117300	REC_END	n/a	n/a	3	-999	n/a	n/a	n/a	n/a	1	[0, 0, 0]	-999	PAL1	0	R1086M
204.885	0.275	117311	TEST_ORIENT	n/a	n/a	6	2	PARK	n/a	PARK	WOOD	1	[0, 0, 0]	-999	PAL1	0	R1086M
205.835	0.0	117785	REC_START	n/a	n/a	6	-999	n/a	n/a	n/a	n/a	1	[0, 0, 0]	-999	PAL1	0	R1086M
205.835	4.0	117785	TEST_PROBE	n/a	wordpools/wordpool_EN.txt	6	2	PARK	n/a	PARK	WOOD	1	[0, 0, 0]	-999	PAL1	0	R1086M
205.835	5.029	117785	REC_EVENT	0.0	n/a	6	2	PARK	<>	PARK	WOOD	1	[0, 0, 0]	-999	PAL1	0	R1086M
210.864	0.023	120300	REC_END	n/a	n/a	6	-999	n/a	n/a	n/a	n/a	1	[0, 0, 0]	-999	PAL1	0	R1086M
210.887	0.275	120311	TEST_ORIENT	n/a	n/a	1	3	GRASS	GLASS	GLASS	GRASS	1	[0, 0, 0]	-999	PAL1	0	R1086M
211.786	4.0	120761	TEST_PROBE	n/a	wordpools/wordpool_EN.txt	1	3	GRASS	GLASS	GLASS	GRASS	1	[0, 0, 0]	-999	PAL1	0	R1086M
211.786	4.185	120761	REC_START	n/a	n/a	1	-999	n/a	GLASS	n/a	n/a	1	[0, 0, 0]	-999	PAL1	0	R1086M
215.971	0.832	122853	REC_EVENT	4.185	n/a	1	3	GRASS	GLASS	GLASS	GRASS	1	[0, 0, 0]	-999	PAL1	0	R1086M
216.803	0.017	123269	REC_END	n/a	n/a	1	-999	n/a	n/a	n/a	n/a	1	[0, 0, 0]	-999	PAL1	0	R1086M
216.82	0.275	123278	TEST_ORIENT	n/a	n/a	4	4	MAT	MAT	MAT	FUR	1	[0, 0, 0]	-999	PAL1	0	R1086M
217.62	4.0	123678	TEST_PROBE	n/a	wordpools/wordpool_EN.txt	4	4	MAT	MAT	MAT	FUR	1	[0, 0, 0]	-999	PAL1	0	R1086M
217.621	0.52	123678	REC_START	n/a	n/a	4	-999	n/a	MAT	n/a	n/a	1	[0, 0, 0]	-999	PAL1	0	R1086M
218.141	0.855	123938	REC_EVENT	0.52	n/a	4	4	MAT	<>	MAT	FUR	1	[0, 0, 0]	-999	PAL1	0	R1086M
218.996	3.637	124366	REC_EVENT	1.375	n/a	4	4	MAT	MAT	MAT	FUR	1	[0, 0, 0]	-999	PAL1	0	R1086M
222.633	0.022	126184	REC_END	n/a	n/a	4	-999	n/a	n/a	n/a	n/a	1	[0, 0, 0]	-999	PAL1	0	R1086M
222.655	0.275	126195	TEST_ORIENT	n/a	n/a	5	5	ARM	ELBOW	ARM	ELF	1	[0, 0, 0]	-999	PAL1	0	R1086M
223.655	4.0	126695	TEST_PROBE	n/a	wordpools/wordpool_EN.txt	5	5	ARM	ELBOW	ARM	ELF	1	[0, 0, 0]	-999	PAL1	0	R1086M
223.655	1.6	126695	REC_START	n/a	n/a	5	-999	n/a	ELBOW	n/a	n/a	1	[0, 0, 0]	-999	PAL1	0	R1086M
225.255	3.417	127495	REC_EVENT	1.6	n/a	5	5	ARM	ELBOW	ARM	ELF	1	[0, 0, 0]	-999	PAL1	0	R1086M
228.672	0.017	129203	REC_END	n/a	n/a	5	-999	n/a	n/a	n/a	n/a	1	[0, 0, 0]	-999	PAL1	0	R1086M
228.689	0.275	129212	TEST_ORIENT	n/a	n/a	2	6	SHARK	n/a	SHARK	BRANCH	1	[0, 0, 0]	-999	PAL1	0	R1086M
229.623	4.0	129679	TEST_PROBE	n/a	wordpools/wordpool_EN.txt	2	6	SHARK	n/a	SHARK	BRANCH	1	[0, 0, 0]	-999	PAL1	0	R1086M
229.623	1.444	129679	REC_START	n/a	n/a	2	-999	n/a	n/a	n/a	n/a	1	[0, 0, 0]	-999	PAL1	0	R1086M
231.067	3.573	130401	REC_EVENT	1.444	n/a	2	6	SHARK	<>	SHARK	BRANCH	1	[0, 0, 0]	-999	PAL1	0	R1086M
234.64	25.299	132187	REC_END	n/a	n/a	2	-999	n/a	n/a	n/a	n/a	1	[0, 0, 0]	-999	PAL1	0	R1086M
259.939	10.443	144836	ENCODING_START	n/a	n/a	0	-999	n/a	n/a	n/a	n/a	2	[0, 0, 0]	-999	PAL1	0	R1086M
270.382	0.275	150057	STUDY_ORIENT	n/a	n/a	1	5	VINE	n/a	VINE	SEAT	2	[0, 0, 0]	-999	PAL1	0	R1086M
271.399	4.0	150565	STUDY_PAIR	n/a	wordpools/wordpool_EN.txt	1	5	VINE	n/a	VINE	SEAT	2	[0, 0, 0]	-999	PAL1	0	R1086M
276.433	0.275	153082	STUDY_ORIENT	n/a	n/a	2	2	PIE	VEST	VEST	PIE	2	[0, 0, 0]	-999	PAL1	0	R1086M
277.35	4.0	153541	STUDY_PAIR	n/a	wordpools/wordpool_EN.txt	2	2	PIE	VEST	VEST	PIE	2	[0, 0, 0]	-999	PAL1	0	R1086M
282.384	0.275	156057	STUDY_ORIENT	n/a	n/a	3	1	DOOR	n/a	APE	DOOR	2	[0, 0, 0]	-999	PAL1	0	R1086M
283.267	4.0	156499	STUDY_PAIR	n/a	wordpools/wordpool_EN.txt	3	1	DOOR	n/a	APE	DOOR	2	[0, 0, 0]	-999	PAL1	0	R1086M
288.285	0.275	159008	STUDY_ORIENT	n/a	n/a	4	6	DESK	n/a	DESK	TRAIN	2	[0, 0, 0]	-999	PAL1	0	R1086M
289.235	4.0	159483	STUDY_PAIR	n/a	wordpools/wordpool_EN.txt	4	6	DESK	n/a	DESK	TRAIN	2	[0, 0, 0]	-999	PAL1	0	R1086M
294.253	0.275	161991	STUDY_ORIENT	n/a	n/a	5	3	FENCE	n/a	WORLD	FENCE	2	[0, 0, 0]	-999	PAL1	0	R1086M
295.22	4.0	162475	STUDY_PAIR	n/a	wordpools/wordpool_EN.txt	5	3	FENCE	n/a	WORLD	FENCE	2	[0, 0, 0]	-999	PAL1	0	R1086M
300.254	0.275	164992	STUDY_ORIENT	n/a	n/a	6	4	VAN	n/a	PEN	VAN	2	[0, 0, 0]	-999	PAL1	0	R1086M
301.221	4.0	165475	STUDY_PAIR	n/a	wordpools/wordpool_EN.txt	6	4	VAN	n/a	PEN	VAN	2	[0, 0, 0]	-999	PAL1	0	R1086M
305.222	1.0	167476	START	n/a	n/a	-999	-999	n/a	n/a	n/a	n/a	2	[-999, -999, -999]	-999	PAL1	0	R1086M
306.222	0.017	167976	MATH_START	n/a	n/a	-999	-999	n/a	n/a	n/a	n/a	2	[0, 0, 0]	-999	PAL1	0	R1086M
306.239	3.684	167984	PROB	3.652	n/a	-999	-999	n/a	n/a	n/a	n/a	2	[8, 5, 9]	22	PAL1	0	R1086M
309.923	3.85	169826	PROB	3.815	n/a	-999	-999	n/a	n/a	n/a	n/a	2	[1, 5, 9]	15	PAL1	0	R1086M
313.773	3.601	171751	PROB	3.574	n/a	-999	-999	n/a	n/a	n/a	n/a	2	[5, 7, 1]	13	PAL1	0	R1086M
317.374	3.718	173551	PROB	3.685	n/a	-999	-999	n/a	n/a	n/a	n/a	2	[3, 4, 3]	10	PAL1	0	R1086M
321.092	4.702	175410	PROB	4.702	n/a	-999	-999	n/a	n/a	n/a	n/a	2	[1, 3, 6]	10	PAL1	0	R1086M
325.794	0.014	177761	STOP	n/a	n/a	-999	-999	n/a	n/a	n/a	n/a	2	[-999, -999, -999]	-999	PAL1	0	R1086M
325.808	0.0	177768	MATH_END	n/a	n/a	-999	-999	n/a	n/a	n/a	n/a	2	[0, 0, 0]	-999	PAL1	0	R1086M
325.808	0.017	177768	TEST_START	n/a	n/a	-999	-999	n/a	n/a	n/a	n/a	2	[0, 0, 0]	-999	PAL1	0	R1086M
325.825	0.275	177776	TEST_ORIENT	n/a	n/a	3	1	DOOR	n/a	APE	DOOR	2	[0, 0, 0]	-999	PAL1	0	R1086M
326.758	4.0	178243	TEST_PROBE	n/a	wordpools/wordpool_EN.txt	3	1	DOOR	n/a	APE	DOOR	2	[0, 0, 0]	-999	PAL1	0	R1086M
326.759	0.0	178243	REC_START	n/a	n/a	3	-999	n/a	n/a	n/a	n/a	2	[0, 0, 0]	-999	PAL1	0	R1086M
326.759	5.011	178243	REC_EVENT	0.0	n/a	3	1	DOOR	<>	APE	DOOR	2	[0, 0, 0]	-999	PAL1	0	R1086M
331.77	0.023	180749	REC_END	n/a	n/a	3	-999	n/a	n/a	n/a	n/a	2	[0, 0, 0]	-999	PAL1	0	R1086M
331.793	0.275	180760	TEST_ORIENT	n/a	n/a	2	2	PIE	VEST	VEST	PIE	2	[0, 0, 0]	-999	PAL1	0	R1086M
332.626	4.0	181177	TEST_PROBE	n/a	wordpools/wordpool_EN.txt	2	2	PIE	VEST	VEST	PIE	2	[0, 0, 0]	-999	PAL1	0	R1086M
332.627	1.485	181177	REC_START	n/a	n/a	2	-999	n/a	VEST	n/a	n/a	2	[0, 0, 0]	-999	PAL1	0	R1086M
334.112	3.526	181920	REC_EVENT	1.485	n/a	2	2	PIE	VEST	VEST	PIE	2	[0, 0, 0]	-999	PAL1	0	R1086M
337.638	0.023	183682	REC_END	n/a	n/a	2	-999	n/a	n/a	n/a	n/a	2	[0, 0, 0]	-999	PAL1	0	R1086M
337.661	0.275	183694	TEST_ORIENT	n/a	n/a	5	3	FENCE	n/a	WORLD	FENCE	2	[0, 0, 0]	-999	PAL1	0	R1086M
338.644	4.0	184185	TEST_PROBE	n/a	wordpools/wordpool_EN.txt	5	3	FENCE	n/a	WORLD	FENCE	2	[0, 0, 0]	-999	PAL1	0	R1086M
338.645	0.0	184186	REC_EVENT	0.0	n/a	5	3	FENCE	<>	WORLD	FENCE	2	[0, 0, 0]	-999	PAL1	0	R1086M
338.645	5.027	184186	REC_START	n/a	n/a	5	-999	n/a	n/a	n/a	n/a	2	[0, 0, 0]	-999	PAL1	0	R1086M
343.672	0.023	186699	REC_END	n/a	n/a	5	-999	n/a	n/a	n/a	n/a	2	[0, 0, 0]	-999	PAL1	0	R1086M
343.695	0.275	186711	TEST_ORIENT	n/a	n/a	6	4	VAN	n/a	PEN	VAN	2	[0, 0, 0]	-999	PAL1	0	R1086M
344.579	4.0	187153	TEST_PROBE	n/a	wordpools/wordpool_EN.txt	6	4	VAN	n/a	PEN	VAN	2	[0, 0, 0]	-999	PAL1	0	R1086M
344.579	0.0	187153	REC_START	n/a	n/a	6	-999	n/a	n/a	n/a	n/a	2	[0, 0, 0]	-999	PAL1	0	R1086M
344.579	5.028	187153	REC_EVENT	0.0	n/a	6	4	VAN	<>	PEN	VAN	2	[0, 0, 0]	-999	PAL1	0	R1086M
349.607	0.023	189667	REC_END	n/a	n/a	6	-999	n/a	n/a	n/a	n/a	2	[0, 0, 0]	-999	PAL1	0	R1086M
349.63	0.275	189678	TEST_ORIENT	n/a	n/a	1	5	VINE	n/a	VINE	SEAT	2	[0, 0, 0]	-999	PAL1	0	R1086M
350.53	0.0	190128	REC_EVENT	0.0	n/a	1	5	VINE	<>	VINE	SEAT	2	[0, 0, 0]	-999	PAL1	0	R1086M
350.53	4.0	190128	TEST_PROBE	n/a	wordpools/wordpool_EN.txt	1	5	VINE	n/a	VINE	SEAT	2	[0, 0, 0]	-999	PAL1	0	R1086M
350.53	5.017	190128	REC_START	n/a	n/a	1	-999	n/a	n/a	n/a	n/a	2	[0, 0, 0]	-999	PAL1	0	R1086M
355.547	0.017	192636	REC_END	n/a	n/a	1	-999	n/a	n/a	n/a	n/a	2	[0, 0, 0]	-999	PAL1	0	R1086M
355.564	0.275	192645	TEST_ORIENT	n/a	n/a	4	6	DESK	n/a	DESK	TRAIN	2	[0, 0, 0]	-999	PAL1	0	R1086M
356.548	4.0	193137	TEST_PROBE	n/a	wordpools/wordpool_EN.txt	4	6	DESK	n/a	DESK	TRAIN	2	[0, 0, 0]	-999	PAL1	0	R1086M
356.548	5.015	193137	REC_START	n/a	n/a	4	-999	n/a	n/a	n/a	n/a	2	[0, 0, 0]	-999	PAL1	0	R1086M
361.563	0.002	195644	REC_EVENT	5.015	n/a	4	6	DESK	<>	DESK	TRAIN	2	[0, 0, 0]	-999	PAL1	0	R1086M
361.565	15.79	195645	REC_END	n/a	n/a	4	-999	n/a	n/a	n/a	n/a	2	[0, 0, 0]	-999	PAL1	0	R1086M
377.355	10.449	203540	ENCODING_START	n/a	n/a	0	-999	n/a	n/a	n/a	n/a	3	[0, 0, 0]	-999	PAL1	0	R1086M
387.804	0.275	208764	STUDY_ORIENT	n/a	n/a	1	3	CAPE	n/a	OAK	CAPE	3	[0, 0, 0]	-999	PAL1	0	R1086M
388.804	4.0	209264	STUDY_PAIR	n/a	wordpools/wordpool_EN.txt	1	3	CAPE	n/a	OAK	CAPE	3	[0, 0, 0]	-999	PAL1	0	R1086M
393.838	0.275	211781	STUDY_ORIENT	n/a	n/a	2	2	HOSE	n/a	HOSE	SLEEVE	3	[0, 0, 0]	-999	PAL1	0	R1086M
394.622	4.0	212172	STUDY_PAIR	n/a	wordpools/wordpool_EN.txt	2	2	HOSE	n/a	HOSE	SLEEVE	3	[0, 0, 0]	-999	PAL1	0	R1086M
399.656	0.275	214689	STUDY_ORIENT	n/a	n/a	3	5	BATH	NAIL	BATH	NAIL	3	[0, 0, 0]	-999	PAL1	0	R1086M
400.59	4.0	215156	STUDY_PAIR	n/a	wordpools/wordpool_EN.txt	3	5	BATH	NAIL	BATH	NAIL	3	[0, 0, 0]	-999	PAL1	0	R1086M
405.624	0.275	217673	STUDY_ORIENT	n/a	n/a	4	6	TOOL	n/a	TOOL	JUICE	3	[0, 0, 0]	-999	PAL1	0	R1086M
406.557	4.0	218140	STUDY_PAIR	n/a	wordpools/wordpool_EN.txt	4	6	TOOL	n/a	TOOL	JUICE	3	[0, 0, 0]	-999	PAL1	0	R1086M
411.575	0.275	220648	STUDY_ORIENT	n/a	n/a	5	1	LAMB	n/a	BAG	LAMB	3	[0, 0, 0]	-999	PAL1	0	R1086M
412.575	4.0	221148	STUDY_PAIR	n/a	wordpools/wordpool_EN.txt	5	1	LAMB	n/a	BAG	LAMB	3	[0, 0, 0]	-999	PAL1	0	R1086M
417.593	0.275	223657	STUDY_ORIENT	n/a	n/a	6	4	MILK	n/a	BOOT	MILK	3	[0, 0, 0]	-999	PAL1	0	R1086M
418.61	4.0	224166	STUDY_PAIR	n/a	wordpools/wordpool_EN.txt	6	4	MILK	n/a	BOOT	MILK	3	[0, 0, 0]	-999	PAL1	0	R1086M
422.628	0.999	226175	START	n/a	n/a	-999	-999	n/a	n/a	n/a	n/a	3	[-999, -999, -999]	-999	PAL1	0	R1086M
423.627	0.017	226674	MATH_START	n/a	n/a	-999	-999	n/a	n/a	n/a	n/a	3	[0, 0, 0]	-999	PAL1	0	R1086M
423.644	3.335	226682	PROB	3.311	n/a	-999	-999	n/a	n/a	n/a	n/a	3	[3, 2, 1]	6	PAL1	0	R1086M
426.979	3.351	228350	PROB	3.328	n/a	-999	-999	n/a	n/a	n/a	n/a	3	[6, 8, 1]	15	PAL1	0	R1086M
430.33	2.75	230025	PROB	2.721	n/a	-999	-999	n/a	n/a	n/a	n/a	3	[2, 3, 4]	9	PAL1	0	R1086M
433.08	4.118	231400	PROB	4.083	n/a	-999	-999	n/a	n/a	n/a	n/a	3	[7, 4, 5]	16	PAL1	0	R1086M
437.198	3.633	233459	PROB	3.612	n/a	-999	-999	n/a	n/a	n/a	n/a	3	[1, 8, 5]	14	PAL1	0	R1086M
440.831	5.156	235275	PROB	5.156	n/a	-999	-999	n/a	n/a	n/a	n/a	3	[8, 6, 7]	21	PAL1	0	R1086M
445.987	0.013	237853	STOP	n/a	n/a	-999	-999	n/a	n/a	n/a	n/a	3	[-999, -999, -999]	-999	PAL1	0	R1086M
446.0	0.0	237860	MATH_END	n/a	n/a	-999	-999	n/a	n/a	n/a	n/a	3	[0, 0, 0]	-999	PAL1	0	R1086M
446.0	0.016	237860	TEST_START	n/a	n/a	-999	-999	n/a	n/a	n/a	n/a	3	[0, 0, 0]	-999	PAL1	0	R1086M
446.016	0.275	237868	TEST_ORIENT	n/a	n/a	5	1	LAMB	n/a	BAG	LAMB	3	[0, 0, 0]	-999	PAL1	0	R1086M
446.866	4.0	238293	TEST_PROBE	n/a	wordpools/wordpool_EN.txt	5	1	LAMB	n/a	BAG	LAMB	3	[0, 0, 0]	-999	PAL1	0	R1086M
446.867	5.009	238293	REC_START	n/a	n/a	5	-999	n/a	n/a	n/a	n/a	3	[0, 0, 0]	-999	PAL1	0	R1086M
451.876	0.002	240798	REC_EVENT	5.009	n/a	5	1	LAMB	<>	BAG	LAMB	3	[0, 0, 0]	-999	PAL1	0	R1086M
451.878	0.023	240799	REC_END	n/a	n/a	5	-999	n/a	n/a	n/a	n/a	3	[0, 0, 0]	-999	PAL1	0	R1086M
451.901	0.275	240810	TEST_ORIENT	n/a	n/a	2	2	HOSE	n/a	HOSE	SLEEVE	3	[0, 0, 0]	-999	PAL1	0	R1086M
452.783	4.0	241251	TEST_PROBE	n/a	wordpools/wordpool_EN.txt	2	2	HOSE	n/a	HOSE	SLEEVE	3	[0, 0, 0]	-999	PAL1	0	R1086M
452.784	4.998	241251	REC_START	n/a	n/a	2	-999	n/a	n/a	n/a	n/a	3	[0, 0, 0]	-999	PAL1	0	R1086M
457.782	0.002	243750	REC_EVENT	4.998	n/a	2	2	HOSE	<>	HOSE	SLEEVE	3	[0, 0, 0]	-999	PAL1	0	R1086M
457.784	0.017	243751	REC_END	n/a	n/a	2	-999	n/a	n/a	n/a	n/a	3	[0, 0, 0]	-999	PAL1	0	R1086M
457.801	0.275	243760	TEST_ORIENT	n/a	n/a	1	3	CAPE	n/a	OAK	CAPE	3	[0, 0, 0]	-999	PAL1	0	R1086M
458.701	4.0	244210	TEST_PROBE	n/a	wordpools/wordpool_EN.txt	1	3	CAPE	n/a	OAK	CAPE	3	[0, 0, 0]	-999	PAL1	0	R1086M
458.701	5.015	244210	REC_START	n/a	n/a	1	-999	n/a	n/a	n/a	n/a	3	[0, 0, 0]	-999	PAL1	0	R1086M
463.716	0.002	246717	REC_EVENT	5.015	n/a	1	3	CAPE	<>	OAK	CAPE	3	[0, 0, 0]	-999	PAL1	0	R1086M
463.718	0.017	246718	REC_END	n/a	n/a	1	-999	n/a	n/a	n/a	n/a	3	[0, 0, 0]	-999	PAL1	0	R1086M
463.735	0.275	246727	TEST_ORIENT	n/a	n/a	6	4	MILK	n/a	BOOT	MILK	3	[0, 0, 0]	-999	PAL1	0	R1086M
464.535	4.0	247127	TEST_PROBE	n/a	wordpools/wordpool_EN.txt	6	4	MILK	n/a	BOOT	MILK	3	[0, 0, 0]	-999	PAL1	0	R1086M
464.536	5.009	247127	REC_START	n/a	n/a	6	-999	n/a	n/a	n/a	n/a	3	[0, 0, 0]	-999	PAL1	0	R1086M
469.545	0.001	249631	REC_EVENT	5.009	n/a	6	4	MILK	<>	BOOT	MILK	3	[0, 0, 0]	-999	PAL1	0	R1086M
469.546	0.024	249632	REC_END	n/a	n/a	6	-999	n/a	n/a	n/a	n/a	3	[0, 0, 0]	-999	PAL1	0	R1086M
469.57	0.275	249644	TEST_ORIENT	n/a	n/a	3	5	BATH	NAIL	BATH	NAIL	3	[0, 0, 0]	-999	PAL1	0	R1086M
470.537	4.0	250127	TEST_PROBE	n/a	wordpools/wordpool_EN.txt	3	5	BATH	NAIL	BATH	NAIL	3	[0, 0, 0]	-999	PAL1	0	R1086M
470.537	1.46	250127	REC_START	n/a	n/a	3	-999	n/a	NAIL	n/a	n/a	3	[0, 0, 0]	-999	PAL1	0	R1086M
471.997	3.557	250857	REC_EVENT	1.46	n/a	3	5	BATH	NAIL	BATH	NAIL	3	[0, 0, 0]	-999	PAL1	0	R1086M
475.554	0.017	252636	REC_END	n/a	n/a	3	-999	n/a	n/a	n/a	n/a	3	[0, 0, 0]	-999	PAL1	0	R1086M
475.571	0.275	252644	TEST_ORIENT	n/a	n/a	4	6	TOOL	n/a	TOOL	JUICE	3	[0, 0, 0]	-999	PAL1	0	R1086M
476.554	4.0	253136	TEST_PROBE	n/a	wordpools/wordpool_EN.txt	4	6	TOOL	n/a	TOOL	JUICE	3	[0, 0, 0]	-999	PAL1	0	R1086M
476.555	5.009	253136	REC_START	n/a	n/a	4	-999	n/a	n/a	n/a	n/a	3	[0, 0, 0]	-999	PAL1	0	R1086M
481.564	0.002	255641	REC_EVENT	5.009	n/a	4	6	TOOL	<>	TOOL	JUICE	3	[0, 0, 0]	-999	PAL1	0	R1086M
481.566	4.076	255642	REC_END	n/a	n/a	4	-999	n/a	n/a	n/a	n/a	3	[0, 0, 0]	-999	PAL1	0	R1086M
485.642	10.451	257679	ENCODING_START	n/a	n/a	0	-999	n/a	n/a	n/a	n/a	4	[0, 0, 0]	-999	PAL1	0	R1086M
496.093	0.275	262905	STUDY_ORIENT	n/a	n/a	1	5	GUARD	n/a	GUARD	CLOTH	4	[0, 0, 0]	-999	PAL1	0	R1086M
496.993	4.0	263354	STUDY_PAIR	n/a	wordpools/wordpool_EN.txt	1	5	GUARD	n/a	GUARD	CLOTH	4	[0, 0, 0]	-999	PAL1	0	R1086M
502.027	0.275	265871	STUDY_ORIENT	n/a	n/a	2	2	JET	n/a	HOLE	JET	4	[0, 0, 0]	-999	PAL1	0	R1086M
502.977	4.0	266346	STUDY_PAIR	n/a	wordpools/wordpool_EN.txt	2	2	JET	n/a	HOLE	JET	4	[0, 0, 0]	-999	PAL1	0	R1086M
507.995	0.275	268855	STUDY_ORIENT	n/a	n/a	3	3	BENCH	MOON	BENCH	MOON	4	[0, 0, 0]	-999	PAL1	0	R1086M
508.879	4.0	269297	STUDY_PAIR	n/a	wordpools/wordpool_EN.txt	3	3	BENCH	MOON	BENCH	MOON	4	[0, 0, 0]	-999	PAL1	0	R1086M
513.913	0.275	271814	STUDY_ORIENT	n/a	n/a	4	4	DOCK	JOIN	DOCK	COIN	4	[0, 0, 0]	-999	PAL1	0	R1086M
514.88	4.0	272297	STUDY_PAIR	n/a	wordpools/wordpool_EN.txt	4	4	DOCK	JOIN	DOCK	COIN	4	[0, 0, 0]	-999	PAL1	0	R1086M
519.914	0.275	274814	STUDY_ORIENT	n/a	n/a	5	1	GEESE	n/a	WHALE	GEESE	4	[0, 0, 0]	-999	PAL1	0	R1086M
520.763	4.0	275239	STUDY_PAIR	n/a	wordpools/wordpool_EN.txt	5	1	GEESE	n/a	WHALE	GEESE	4	[0, 0, 0]	-999	PAL1	0	R1086M
525.781	0.275	277747	STUDY_ORIENT	n/a	n/a	6	6	BARN	n/a	BARN	SPONGE	4	[0, 0, 0]	-999	PAL1	0	R1086M
526.648	4.0	278181	STUDY_PAIR	n/a	wordpools/wordpool_EN.txt	6	6	BARN	n/a	BARN	SPONGE	4	[0, 0, 0]	-999	PAL1	0	R1086M
530.666	0.999	280190	START	n/a	n/a	-999	-999	n/a	n/a	n/a	n/a	4	[-999, -999, -999]	-999	PAL1	0	R1086M
531.665	0.017	280689	MATH_START	n/a	n/a	-999	-999	n/a	n/a	n/a	n/a	4	[0, 0, 0]	-999	PAL1	0	R1086M
531.682	3.001	280698	PROB	2.968	n/a	-999	-999	n/a	n/a	n/a	n/a	4	[1, 2, 4]	7	PAL1	0	R1086M
534.683	3.167	282198	PROB	3.135	n/a	-999	-999	n/a	n/a	n/a	n/a	4	[8, 8, 9]	27	PAL1	0	R1086M
537.85	3.967	283782	PROB	3.936	n/a	-999	-999	n/a	n/a	n/a	n/a	4	[2, 8, 6]	16	PAL1	0	R1086M
541.817	2.635	285765	PROB	2.61	n/a	-999	-999	n/a	n/a	n/a	n/a	4	[4, 4, 3]	11	PAL1	0	R1086M
544.452	4.501	287082	PROB	4.479	n/a	-999	-999	n/a	n/a	n/a	n/a	4	[4, 5, 6]	15	PAL1	0	R1086M
548.953	4.298	289333	PROB	4.298	n/a	-999	-999	n/a	n/a	n/a	n/a	4	[6, 9, 7]	22	PAL1	0	R1086M
553.251	0.003	291482	STOP	n/a	n/a	-999	-999	n/a	n/a	n/a	n/a	4	[-999, -999, -999]	-999	PAL1	0	R1086M
553.254	0.0	291483	TEST_START	n/a	n/a	-999	-999	n/a	n/a	n/a	n/a	4	[0, 0, 0]	-999	PAL1	0	R1086M
553.254	0.016	291483	MATH_END	n/a	n/a	-999	-999	n/a	n/a	n/a	n/a	4	[0, 0, 0]	-999	PAL1	0	R1086M
553.27	0.275	291491	TEST_ORIENT	n/a	n/a	5	1	GEESE	n/a	WHALE	GEESE	4	[0, 0, 0]	-999	PAL1	0	R1086M
554.254	4.0	291983	TEST_PROBE	n/a	wordpools/wordpool_EN.txt	5	1	GEESE	n/a	WHALE	GEESE	4	[0, 0, 0]	-999	PAL1	0	R1086M
554.255	5.015	291984	REC_START	n/a	n/a	5	-999	n/a	n/a	n/a	n/a	4	[0, 0, 0]	-999	PAL1	0	R1086M
559.27	0.001	294491	REC_EVENT	5.015	n/a	5	1	GEESE	<>	WHALE	GEESE	4	[0, 0, 0]	-999	PAL1	0	R1086M
559.271	0.017	294491	REC_END	n/a	n/a	5	-999	n/a	n/a	n/a	n/a	4	[0, 0, 0]	-999	PAL1	0	R1086M
559.288	0.275	294500	TEST_ORIENT	n/a	n/a	2	2	JET	n/a	HOLE	JET	4	[0, 0, 0]	-999	PAL1	0	R1086M
560.122	0.0	294917	REC_START	n/a	n/a	2	-999	n/a	n/a	n/a	n/a	4	[0, 0, 0]	-999	PAL1	0	R1086M
560.122	4.0	294917	TEST_PROBE	n/a	wordpools/wordpool_EN.txt	2	2	JET	n/a	HOLE	JET	4	[0, 0, 0]	-999	PAL1	0	R1086M
565.137	0.002	297424	REC_EVENT	5.015	n/a	2	2	JET	<>	HOLE	JET	4	[0, 0, 0]	-999	PAL1	0	R1086M
565.139	0.017	297425	REC_END	n/a	n/a	2	-999	n/a	n/a	n/a	n/a	4	[0, 0, 0]	-999	PAL1	0	R1086M
565.156	0.275	297434	TEST_ORIENT	n/a	n/a	3	3	BENCH	MOON	BENCH	MOON	4	[0, 0, 0]	-999	PAL1	0	R1086M
566.14	4.0	297926	TEST_PROBE	n/a	wordpools/wordpool_EN.txt	3	3	BENCH	MOON	BENCH	MOON	4	[0, 0, 0]	-999	PAL1	0	R1086M
566.14	0.76	297926	REC_START	n/a	n/a	3	-999	n/a	MOON	n/a	n/a	4	[0, 0, 0]	-999	PAL1	0	R1086M
566.9	4.257	298306	REC_EVENT	0.76	n/a	3	3	BENCH	MOON	BENCH	MOON	4	[0, 0, 0]	-999	PAL1	0	R1086M
571.157	0.017	300434	REC_END	n/a	n/a	3	-999	n/a	n/a	n/a	n/a	4	[0, 0, 0]	-999	PAL1	0	R1086M
571.174	0.275	300442	TEST_ORIENT	n/a	n/a	4	4	DOCK	JOIN	DOCK	COIN	4	[0, 0, 0]	-999	PAL1	0	R1086M
572.041	0.0	300876	REC_START	n/a	n/a	4	-999	n/a	JOIN	n/a	n/a	4	[0, 0, 0]	-999	PAL1	0	R1086M
572.041	4.0	300876	TEST_PROBE	n/a	wordpools/wordpool_EN.txt	4	4	DOCK	JOIN	DOCK	COIN	4	[0, 0, 0]	-999	PAL1	0	R1086M
574.656	1.236	302183	REC_EVENT	2.615	n/a	4	4	DOCK	JOIN	DOCK	COIN	4	[0, 0, 0]	-999	PAL1	0	R1086M
575.892	1.166	302801	REC_EVENT	3.851	n/a	4	4	DOCK	<>	DOCK	COIN	4	[0, 0, 0]	-999	PAL1	0	R1086M
577.058	0.017	303384	REC_END	n/a	n/a	4	-999	n/a	n/a	n/a	n/a	4	[0, 0, 0]	-999	PAL1	0	R1086M
577.075	0.275	303393	TEST_ORIENT	n/a	n/a	1	5	GUARD	n/a	GUARD	CLOTH	4	[0, 0, 0]	-999	PAL1	0	R1086M
578.059	4.0	303885	TEST_PROBE	n/a	wordpools/wordpool_EN.txt	1	5	GUARD	n/a	GUARD	CLOTH	4	[0, 0, 0]	-999	PAL1	0	R1086M
578.059	5.015	303885	REC_START	n/a	n/a	1	-999	n/a	n/a	n/a	n/a	4	[0, 0, 0]	-999	PAL1	0	R1086M
583.074	0.002	306392	REC_EVENT	5.015	n/a	1	5	GUARD	<>	GUARD	CLOTH	4	[0, 0, 0]	-999	PAL1	0	R1086M
583.076	0.017	306393	REC_END	n/a	n/a	1	-999	n/a	n/a	n/a	n/a	4	[0, 0, 0]	-999	PAL1	0	R1086M
583.093	0.275	306402	TEST_ORIENT	n/a	n/a	6	6	BARN	n/a	BARN	SPONGE	4	[0, 0, 0]	-999	PAL1	0	R1086M
583.96	4.0	306835	TEST_PROBE	n/a	wordpools/wordpool_EN.txt	6	6	BARN	n/a	BARN	SPONGE	4	[0, 0, 0]	-999	PAL1	0	R1086M
583.96	5.032	306835	REC_START	n/a	n/a	6	-999	n/a	n/a	n/a	n/a	4	[0, 0, 0]	-999	PAL1	0	R1086M
588.992	0.006	309351	REC_EVENT	5.032	n/a	6	6	BARN	<>	BARN	SPONGE	4	[0, 0, 0]	-999	PAL1	0	R1086M
588.998	4.461	309354	REC_END	n/a	n/a	6	-999	n/a	n/a	n/a	n/a	4	[0, 0, 0]	-999	PAL1	0	R1086M
593.459	10.438	311584	ENCODING_START	n/a	n/a	0	-999	n/a	n/a	n/a	n/a	5	[0, 0, 0]	-999	PAL1	0	R1086M
603.897	0.275	316803	STUDY_ORIENT	n/a	n/a	1	1	SQUARE	TREE	SQUARE	TREE	5	[0, 0, 0]	-999	PAL1	0	R1086M
604.78	4.0	317244	STUDY_PAIR	n/a	wordpools/wordpool_EN.txt	1	1	SQUARE	TREE	SQUARE	TREE	5	[0, 0, 0]	-999	PAL1	0	R1086M
609.814	0.275	319761	STUDY_ORIENT	n/a	n/a	2	4	PURSE	DUCK	PURSE	DUCK	5	[0, 0, 0]	-999	PAL1	0	R1086M
610.831	4.0	320270	STUDY_PAIR	n/a	wordpools/wordpool_EN.txt	2	4	PURSE	DUCK	PURSE	DUCK	5	[0, 0, 0]	-999	PAL1	0	R1086M
615.866	0.275	322787	STUDY_ORIENT	n/a	n/a	3	3	FILM	n/a	FILM	SHEET	5	[0, 0, 0]	-999	PAL1	0	R1086M
616.682	4.0	323195	STUDY_PAIR	n/a	wordpools/wordpool_EN.txt	3	3	FILM	n/a	FILM	SHEET	5	[0, 0, 0]	-999	PAL1	0	R1086M
621.716	0.275	325712	STUDY_ORIENT	n/a	n/a	4	6	CART	n/a	CART	ICE	5	[0, 0, 0]	-999	PAL1	0	R1086M
622.716	4.0	326212	STUDY_PAIR	n/a	wordpools/wordpool_EN.txt	4	6	CART	n/a	CART	ICE	5	[0, 0, 0]	-999	PAL1	0	R1086M
627.734	0.275	328720	STUDY_ORIENT	n/a	n/a	5	5	STEM	n/a	STEM	LAMP	5	[0, 0, 0]	-999	PAL1	0	R1086M
628.534	4.0	329120	STUDY_PAIR	n/a	wordpools/wordpool_EN.txt	5	5	STEM	n/a	STEM	LAMP	5	[0, 0, 0]	-999	PAL1	0	R1086M
633.552	0.275	331629	STUDY_ORIENT	n/a	n/a	6	2	FORT	n/a	FORT	BIRD	5	[0, 0, 0]	-999	PAL1	0	R1086M
634.37	4.0	332038	STUDY_PAIR	n/a	wordpools/wordpool_EN.txt	6	2	FORT	n/a	FORT	BIRD	5	[0, 0, 0]	-999	PAL1	0	R1086M
638.388	0.999	334047	START	n/a	n/a	-999	-999	n/a	n/a	n/a	n/a	5	[-999, -999, -999]	-999	PAL1	0	R1086M
639.387	0.017	334547	MATH_START	n/a	n/a	-999	-999	n/a	n/a	n/a	n/a	5	[0, 0, 0]	-999	PAL1	0	R1086M
639.404	2.617	334555	PROB	2.591	n/a	-999	-999	n/a	n/a	n/a	n/a	5	[3, 1, 1]	5	PAL1	0	R1086M
642.021	3.218	335864	PROB	3.19	n/a	-999	-999	n/a	n/a	n/a	n/a	5	[1, 7, 7]	15	PAL1	0	R1086M
645.239	4.316	337472	PROB	4.284	n/a	-999	-999	n/a	n/a	n/a	n/a	5	[9, 1, 9]	19	PAL1	0	R1086M
649.555	3.452	339630	PROB	3.416	n/a	-999	-999	n/a	n/a	n/a	n/a	5	[6, 8, 2]	16	PAL1	0	R1086M
653.007	2.4	341356	PROB	2.38	n/a	-999	-999	n/a	n/a	n/a	n/a	5	[5, 5, 2]	12	PAL1	0	R1086M
655.407	2.751	342556	PROB	2.724	n/a	-999	-999	n/a	n/a	n/a	n/a	5	[1, 2, 9]	12	PAL1	0	R1086M
658.158	2.957	343931	PROB	2.957	n/a	-999	-999	n/a	n/a	n/a	n/a	5	[6, 2, 7]	13	PAL1	0	R1086M
661.115	0.01	345410	STOP	n/a	n/a	-999	-999	n/a	n/a	n/a	n/a	5	[-999, -999, -999]	-999	PAL1	0	R1086M
661.125	0.0	345415	MATH_END	n/a	n/a	-999	-999	n/a	n/a	n/a	n/a	5	[0, 0, 0]	-999	PAL1	0	R1086M
661.125	0.017	345415	TEST_START	n/a	n/a	-999	-999	n/a	n/a	n/a	n/a	5	[0, 0, 0]	-999	PAL1	0	R1086M
661.142	0.275	345423	TEST_ORIENT	n/a	n/a	1	1	SQUARE	TREE	SQUARE	TREE	5	[0, 0, 0]	-999	PAL1	0	R1086M
662.092	4.0	345898	TEST_PROBE	n/a	wordpools/wordpool_EN.txt	1	1	SQUARE	TREE	SQUARE	TREE	5	[0, 0, 0]	-999	PAL1	0	R1086M
662.092	1.032	345898	REC_START	n/a	n/a	1	-999	n/a	TREE	n/a	n/a	5	[0, 0, 0]	-999	PAL1	0	R1086M
663.124	3.985	346414	REC_EVENT	1.032	n/a	1	1	SQUARE	TREE	SQUARE	TREE	5	[0, 0, 0]	-999	PAL1	0	R1086M
667.109	0.017	348407	REC_END	n/a	n/a	1	-999	n/a	n/a	n/a	n/a	5	[0, 0, 0]	-999	PAL1	0	R1086M
667.126	0.275	348415	TEST_ORIENT	n/a	n/a	6	2	FORT	n/a	FORT	BIRD	5	[0, 0, 0]	-999	PAL1	0	R1086M
667.943	4.0	348824	TEST_PROBE	n/a	wordpools/wordpool_EN.txt	6	2	FORT	n/a	FORT	BIRD	5	[0, 0, 0]	-999	PAL1	0	R1086M
667.944	5.015	348824	REC_START	n/a	n/a	6	-999	n/a	n/a	n/a	n/a	5	[0, 0, 0]	-999	PAL1	0	R1086M
672.959	0.001	351331	REC_EVENT	5.015	n/a	6	2	FORT	<>	FORT	BIRD	5	[0, 0, 0]	-999	PAL1	0	R1086M
672.96	0.017	351332	REC_END	n/a	n/a	6	-999	n/a	n/a	n/a	n/a	5	[0, 0, 0]	-999	PAL1	0	R1086M
672.977	0.275	351340	TEST_ORIENT	n/a	n/a	3	3	FILM	n/a	FILM	SHEET	5	[0, 0, 0]	-999	PAL1	0	R1086M
673.81	4.0	351757	TEST_PROBE	n/a	wordpools/wordpool_EN.txt	3	3	FILM	n/a	FILM	SHEET	5	[0, 0, 0]	-999	PAL1	0	R1086M
673.81	5.015	351757	REC_START	n/a	n/a	3	-999	n/a	n/a	n/a	n/a	5	[0, 0, 0]	-999	PAL1	0	R1086M
678.825	0.002	354264	REC_EVENT	5.015	n/a	3	3	FILM	<>	FILM	SHEET	5	[0, 0, 0]	-999	PAL1	0	R1086M
678.827	0.017	354265	REC_END	n/a	n/a	3	-999	n/a	n/a	n/a	n/a	5	[0, 0, 0]	-999	PAL1	0	R1086M
678.844	0.275	354274	TEST_ORIENT	n/a	n/a	2	4	PURSE	DUCK	PURSE	DUCK	5	[0, 0, 0]	-999	PAL1	0	R1086M
679.728	4.0	354716	TEST_PROBE	n/a	wordpools/wordpool_EN.txt	2	4	PURSE	DUCK	PURSE	DUCK	5	[0, 0, 0]	-999	PAL1	0	R1086M
679.729	0.824	354716	REC_START	n/a	n/a	2	-999	n/a	DUCK	n/a	n/a	5	[0, 0, 0]	-999	PAL1	0	R1086M
680.553	4.203	355128	REC_EVENT	0.824	n/a	2	4	PURSE	DUCK	PURSE	DUCK	5	[0, 0, 0]	-999	PAL1	0	R1086M
684.756	0.023	357230	REC_END	n/a	n/a	2	-999	n/a	n/a	n/a	n/a	5	[0, 0, 0]	-999	PAL1	0	R1086M
684.779	0.275	357241	TEST_ORIENT	n/a	n/a	5	5	STEM	n/a	STEM	LAMP	5	[0, 0, 0]	-999	PAL1	0	R1086M
685.629	0.0	357666	REC_START	n/a	n/a	5	-999	n/a	n/a	n/a	n/a	5	[0, 0, 0]	-999	PAL1	0	R1086M
685.629	4.0	357666	TEST_PROBE	n/a	wordpools/wordpool_EN.txt	5	5	STEM	n/a	STEM	LAMP	5	[0, 0, 0]	-999	PAL1	0	R1086M
690.644	0.002	360173	REC_EVENT	5.015	n/a	5	5	STEM	<>	STEM	LAMP	5	[0, 0, 0]	-999	PAL1	0	R1086M
690.646	0.017	360174	REC_END	n/a	n/a	5	-999	n/a	n/a	n/a	n/a	5	[0, 0, 0]	-999	PAL1	0	R1086M
690.663	0.275	360183	TEST_ORIENT	n/a	n/a	4	6	CART	n/a	CART	ICE	5	[0, 0, 0]	-999	PAL1	0	R1086M
691.464	4.0	360583	TEST_PROBE	n/a	wordpools/wordpool_EN.txt	4	6	CART	n/a	CART	ICE	5	[0, 0, 0]	-999	PAL1	0	R1086M
691.465	5.009	360584	REC_START	n/a	n/a	4	-999	n/a	n/a	n/a	n/a	5	[0, 0, 0]	-999	PAL1	0	R1086M
696.474	0.001	363088	REC_EVENT	5.009	n/a	4	6	CART	<>	CART	ICE	5	[0, 0, 0]	-999	PAL1	0	R1086M
696.475	3.8	363089	REC_END	n/a	n/a	4	-999	n/a	n/a	n/a	n/a	5	[0, 0, 0]	-999	PAL1	0	R1086M
700.275	10.442	364989	ENCODING_START	n/a	n/a	0	-999	n/a	n/a	n/a	n/a	6	[0, 0, 0]	-999	PAL1	0	R1086M
710.717	0.275	370209	STUDY_ORIENT	n/a	n/a	1	5	BOY	FORK	BOY	FORK	6	[0, 0, 0]	-999	PAL1	0	R1086M
711.502	4.0	370602	STUDY_PAIR	n/a	wordpools/wordpool_EN.txt	1	5	BOY	FORK	BOY	FORK	6	[0, 0, 0]	-999	PAL1	0	R1086M
716.535	0.275	373118	STUDY_ORIENT	n/a	n/a	2	4	SOUP	STICK	STICK	SOUP	6	[0, 0, 0]	-999	PAL1	0	R1086M
717.552	4.0	373626	STUDY_PAIR	n/a	wordpools/wordpool_EN.txt	2	4	SOUP	STICK	STICK	SOUP	6	[0, 0, 0]	-999	PAL1	0	R1086M
722.586	0.275	376143	STUDY_ORIENT	n/a	n/a	3	1	MAP	n/a	WING	MAP	6	[0, 0, 0]	-999	PAL1	0	R1086M
723.603	4.0	376652	STUDY_PAIR	n/a	wordpools/wordpool_EN.txt	3	1	MAP	n/a	WING	MAP	6	[0, 0, 0]	-999	PAL1	0	R1086M
728.637	0.275	379169	STUDY_ORIENT	n/a	n/a	4	2	SPOON	n/a	SPOON	EAR	6	[0, 0, 0]	-999	PAL1	0	R1086M
729.455	4.0	379578	STUDY_PAIR	n/a	wordpools/wordpool_EN.txt	4	2	SPOON	n/a	SPOON	EAR	6	[0, 0, 0]	-999	PAL1	0	R1086M
734.473	0.275	382086	STUDY_ORIENT	n/a	n/a	5	3	STONE	n/a	STONE	BROOM	6	[0, 0, 0]	-999	PAL1	0	R1086M
735.406	4.0	382553	STUDY_PAIR	n/a	wordpools/wordpool_EN.txt	5	3	STONE	n/a	STONE	BROOM	6	[0, 0, 0]	-999	PAL1	0	R1086M
740.424	0.275	385062	STUDY_ORIENT	n/a	n/a	6	6	FROG	MAP	FROG	LEG	6	[0, 0, 0]	-999	PAL1	0	R1086M
741.424	4.0	385562	STUDY_PAIR	n/a	wordpools/wordpool_EN.txt	6	6	FROG	MAP	FROG	LEG	6	[0, 0, 0]	-999	PAL1	0	R1086M
745.425	1.0	387562	START	n/a	n/a	-999	-999	n/a	n/a	n/a	n/a	6	[-999, -999, -999]	-999	PAL1	0	R1086M
746.425	0.017	388062	MATH_START	n/a	n/a	-999	-999	n/a	n/a	n/a	n/a	6	[0, 0, 0]	-999	PAL1	0	R1086M
746.442	3.751	388070	PROB	3.729	n/a	-999	-999	n/a	n/a	n/a	n/a	6	[5, 1, 8]	15	PAL1	0	R1086M
750.193	7.483	389946	PROB	7.449	n/a	-999	-999	n/a	n/a	n/a	n/a	6	[4, 7, 6]	17	PAL1	0	R1086M
757.676	2.901	393687	PROB	2.87	n/a	-999	-999	n/a	n/a	n/a	n/a	6	[1, 8, 1]	10	PAL1	0	R1086M
760.577	2.935	395137	PROB	2.906	n/a	-999	-999	n/a	n/a	n/a	n/a	6	[2, 3, 6]	11	PAL1	0	R1086M
763.512	4.507	396605	PROB	4.507	n/a	-999	-999	n/a	n/a	n/a	n/a	6	[9, 3, 6]	18	PAL1	0	R1086M
768.019	0.01	398858	STOP	n/a	n/a	-999	-999	n/a	n/a	n/a	n/a	6	[-999, -999, -999]	-999	PAL1	0	R1086M
768.029	0.0	398863	MATH_END	n/a	n/a	-999	-999	n/a	n/a	n/a	n/a	6	[0, 0, 0]	-999	PAL1	0	R1086M
768.029	0.017	398863	TEST_START	n/a	n/a	-999	-999	n/a	n/a	n/a	n/a	6	[0, 0, 0]	-999	PAL1	0	R1086M
768.046	0.275	398872	TEST_ORIENT	n/a	n/a	3	1	MAP	n/a	WING	MAP	6	[0, 0, 0]	-999	PAL1	0	R1086M
769.03	4.0	399364	TEST_PROBE	n/a	wordpools/wordpool_EN.txt	3	1	MAP	n/a	WING	MAP	6	[0, 0, 0]	-999	PAL1	0	R1086M
769.03	5.015	399364	REC_START	n/a	n/a	3	-999	n/a	n/a	n/a	n/a	6	[0, 0, 0]	-999	PAL1	0	R1086M
774.045	0.002	401871	REC_EVENT	5.015	n/a	3	1	MAP	<>	WING	MAP	6	[0, 0, 0]	-999	PAL1	0	R1086M
774.047	0.017	401872	REC_END	n/a	n/a	3	-999	n/a	n/a	n/a	n/a	6	[0, 0, 0]	-999	PAL1	0	R1086M
774.064	0.275	401880	TEST_ORIENT	n/a	n/a	4	2	SPOON	n/a	SPOON	EAR	6	[0, 0, 0]	-999	PAL1	0	R1086M
775.097	4.0	402397	TEST_PROBE	n/a	wordpools/wordpool_EN.txt	4	2	SPOON	n/a	SPOON	EAR	6	[0, 0, 0]	-999	PAL1	0	R1086M
775.098	5.009	402397	REC_START	n/a	n/a	4	-999	n/a	n/a	n/a	n/a	6	[0, 0, 0]	-999	PAL1	0	R1086M
780.107	0.002	404902	REC_EVENT	5.009	n/a	4	2	SPOON	<>	SPOON	EAR	6	[0, 0, 0]	-999	PAL1	0	R1086M
780.109	0.023	404903	REC_END	n/a	n/a	4	-999	n/a	n/a	n/a	n/a	6	[0, 0, 0]	-999	PAL1	0	R1086M
780.132	0.275	404914	TEST_ORIENT	n/a	n/a	5	3	STONE	n/a	STONE	BROOM	6	[0, 0, 0]	-999	PAL1	0	R1086M
781.015	4.0	405356	TEST_PROBE	n/a	wordpools/wordpool_EN.txt	5	3	STONE	n/a	STONE	BROOM	6	[0, 0, 0]	-999	PAL1	0	R1086M
781.016	5.009	405356	REC_START	n/a	n/a	5	-999	n/a	n/a	n/a	n/a	6	[0, 0, 0]	-999	PAL1	0	R1086M
786.025	0.002	407861	REC_EVENT	5.009	n/a	5	3	STONE	<>	STONE	BROOM	6	[0, 0, 0]	-999	PAL1	0	R1086M
786.027	0.023	407862	REC_END	n/a	n/a	5	-999	n/a	n/a	n/a	n/a	6	[0, 0, 0]	-999	PAL1	0	R1086M
786.05	0.275	407873	TEST_ORIENT	n/a	n/a	2	4	SOUP	STICK	STICK	SOUP	6	[0, 0, 0]	-999	PAL1	0	R1086M
786.95	4.0	408323	TEST_PROBE	n/a	wordpools/wordpool_EN.txt	2	4	SOUP	STICK	STICK	SOUP	6	[0, 0, 0]	-999	PAL1	0	R1086M
786.95	1.335	408323	REC_START	n/a	n/a	2	-999	n/a	STICK	n/a	n/a	6	[0, 0, 0]	-999	PAL1	0	R1086M
788.285	3.682	408990	REC_EVENT	1.335	n/a	2	4	SOUP	STICK	STICK	SOUP	6	[0, 0, 0]	-999	PAL1	0	R1086M
791.967	0.017	410831	REC_END	n/a	n/a	2	-999	n/a	n/a	n/a	n/a	6	[0, 0, 0]	-999	PAL1	0	R1086M
791.984	0.275	410840	TEST_ORIENT	n/a	n/a	1	5	BOY	FORK	BOY	FORK	6	[0, 0, 0]	-999	PAL1	0	R1086M
792.8	4.0	411248	TEST_PROBE	n/a	wordpools/wordpool_EN.txt	1	5	BOY	FORK	BOY	FORK	6	[0, 0, 0]	-999	PAL1	0	R1086M
792.8	1.028	411248	REC_START	n/a	n/a	1	-999	n/a	FORK	n/a	n/a	6	[0, 0, 0]	-999	PAL1	0	R1086M
793.828	3.989	411762	REC_EVENT	1.028	n/a	1	5	BOY	FORK	BOY	FORK	6	[0, 0, 0]	-999	PAL1	0	R1086M
797.817	0.017	413756	REC_END	n/a	n/a	1	-999	n/a	n/a	n/a	n/a	6	[0, 0, 0]	-999	PAL1	0	R1086M
797.834	0.275	413765	TEST_ORIENT	n/a	n/a	6	6	FROG	MAP	FROG	LEG	6	[0, 0, 0]	-999	PAL1	0	R1086M
798.818	4.0	414257	TEST_PROBE	n/a	wordpools/wordpool_EN.txt	6	6	FROG	MAP	FROG	LEG	6	[0, 0, 0]	-999	PAL1	0	R1086M
798.818	5.017	414257	REC_START	n/a	n/a	6	-999	n/a	MAP	n/a	n/a	6	[0, 0, 0]	-999	PAL1	0	R1086M
803.835	0.004	416765	REC_END	n/a	n/a	6	-999	n/a	n/a	n/a	n/a	6	[0, 0, 0]	-999	PAL1	0	R1086M
803.839	14.124	416767	REC_EVENT	5.021	n/a	6	6	FROG	MAP	FROG	LEG	6	[0, 0, 0]	-999	PAL1	0	R1086M
817.963	10.445	423828	ENCODING_START	n/a	n/a	0	-999	n/a	n/a	n/a	n/a	7	[0, 0, 0]	-999	PAL1	0	R1086M
828.408	0.275	429051	STUDY_ORIENT	n/a	n/a	1	1	WAND	CAR	WAND	CAR	7	[0, 0, 0]	-999	PAL1	0	R1086M
829.375	4.0	429534	STUDY_PAIR	n/a	wordpools/wordpool_EN.txt	1	1	WAND	CAR	WAND	CAR	7	[0, 0, 0]	-999	PAL1	0	R1086M
834.409	0.275	432051	STUDY_ORIENT	n/a	n/a	2	6	TRASH	n/a	POLE	TRASH	7	[0, 0, 0]	-999	PAL1	0	R1086M
835.209	4.0	432451	STUDY_PAIR	n/a	wordpools/wordpool_EN.txt	2	6	TRASH	n/a	POLE	TRASH	7	[0, 0, 0]	-999	PAL1	0	R1086M
840.227	0.275	434960	STUDY_ORIENT	n/a	n/a	3	3	DART	n/a	CALF	DART	7	[0, 0, 0]	-999	PAL1	0	R1086M
841.01	4.0	435351	STUDY_PAIR	n/a	wordpools/wordpool_EN.txt	3	3	DART	n/a	CALF	DART	7	[0, 0, 0]	-999	PAL1	0	R1086M
846.028	0.275	437860	STUDY_ORIENT	n/a	n/a	4	2	EEL	n/a	ANT	EEL	7	[0, 0, 0]	-999	PAL1	0	R1086M
846.895	4.0	438293	STUDY_PAIR	n/a	wordpools/wordpool_EN.txt	4	2	EEL	n/a	ANT	EEL	7	[0, 0, 0]	-999	PAL1	0	R1086M
851.929	0.275	440810	STUDY_ORIENT	n/a	n/a	5	5	ROPE	n/a	MAIL	ROPE	7	[0, 0, 0]	-999	PAL1	0	R1086M
852.946	4.0	441319	STUDY_PAIR	n/a	wordpools/wordpool_EN.txt	5	5	ROPE	n/a	MAIL	ROPE	7	[0, 0, 0]	-999	PAL1	0	R1086M
857.98	0.275	443836	STUDY_ORIENT	n/a	n/a	6	4	THUMB	THUMB	THUMB	GATE	7	[0, 0, 0]	-999	PAL1	0	R1086M
858.864	4.0	444278	STUDY_PAIR	n/a	wordpools/wordpool_EN.txt	6	4	THUMB	THUMB	THUMB	GATE	7	[0, 0, 0]	-999	PAL1	0	R1086M
862.882	0.999	446286	START	n/a	n/a	-999	-999	n/a	n/a	n/a	n/a	7	[-999, -999, -999]	-999	PAL1	0	R1086M
863.881	0.017	446786	MATH_START	n/a	n/a	-999	-999	n/a	n/a	n/a	n/a	7	[0, 0, 0]	-999	PAL1	0	R1086M
863.898	4.601	446794	PROB	4.569	n/a	-999	-999	n/a	n/a	n/a	n/a	7	[3, 8, 6]	17	PAL1	0	R1086M
868.499	3.701	449095	PROB	3.68	n/a	-999	-999	n/a	n/a	n/a	n/a	7	[6, 7, 7]	20	PAL1	0	R1086M
872.2	2.633	450945	PROB	2.61	n/a	-999	-999	n/a	n/a	n/a	n/a	7	[4, 3, 2]	9	PAL1	0	R1086M
874.833	2.268	452262	PROB	2.234	n/a	-999	-999	n/a	n/a	n/a	n/a	7	[3, 5, 1]	9	PAL1	0	R1086M
877.101	5.051	453395	PROB	5.03	n/a	-999	-999	n/a	n/a	n/a	n/a	7	[5, 8, 9]	22	PAL1	0	R1086M
882.152	3.755	455921	PROB	3.755	n/a	-999	-999	n/a	n/a	n/a	n/a	7	[2, 7, 9]	18	PAL1	0	R1086M
885.907	0.012	457798	STOP	n/a	n/a	-999	-999	n/a	n/a	n/a	n/a	7	[-999, -999, -999]	-999	PAL1	0	R1086M
885.919	0.0	457804	TEST_START	n/a	n/a	-999	-999	n/a	n/a	n/a	n/a	7	[0, 0, 0]	-999	PAL1	0	R1086M
885.919	0.017	457804	MATH_END	n/a	n/a	-999	-999	n/a	n/a	n/a	n/a	7	[0, 0, 0]	-999	PAL1	0	R1086M
885.936	0.275	457813	TEST_ORIENT	n/a	n/a	1	1	WAND	CAR	WAND	CAR	7	[0, 0, 0]	-999	PAL1	0	R1086M
886.903	4.0	458296	TEST_PROBE	n/a	wordpools/wordpool_EN.txt	1	1	WAND	CAR	WAND	CAR	7	[0, 0, 0]	-999	PAL1	0	R1086M
886.904	2.095	458297	REC_START	n/a	n/a	1	-999	n/a	CAR	n/a	n/a	7	[0, 0, 0]	-999	PAL1	0	R1086M
888.999	0.651	459344	REC_EVENT	2.095	n/a	1	1	WAND	WAND	WAND	CAR	7	[0, 0, 0]	-999	PAL1	0	R1086M
889.65	2.282	459670	REC_EVENT	2.746	n/a	1	1	WAND	CAR	WAND	CAR	7	[0, 0, 0]	-999	PAL1	0	R1086M
891.932	0.022	460810	REC_END	n/a	n/a	1	-999	n/a	n/a	n/a	n/a	7	[0, 0, 0]	-999	PAL1	0	R1086M
891.954	0.275	460821	TEST_ORIENT	n/a	n/a	4	2	EEL	n/a	ANT	EEL	7	[0, 0, 0]	-999	PAL1	0	R1086M
892.904	4.0	461296	TEST_PROBE	n/a	wordpools/wordpool_EN.txt	4	2	EEL	n/a	ANT	EEL	7	[0, 0, 0]	-999	PAL1	0	R1086M
892.905	5.027	461297	REC_START	n/a	n/a	4	-999	n/a	n/a	n/a	n/a	7	[0, 0, 0]	-999	PAL1	0	R1086M
897.932	0.0	463810	REC_EVENT	5.027	n/a	4	2	EEL	<>	ANT	EEL	7	[0, 0, 0]	-999	PAL1	0	R1086M
897.932	0.023	463810	REC_END	n/a	n/a	4	-999	n/a	n/a	n/a	n/a	7	[0, 0, 0]	-999	PAL1	0	R1086M
897.955	0.275	463822	TEST_ORIENT	n/a	n/a	3	3	DART	n/a	CALF	DART	7	[0, 0, 0]	-999	PAL1	0	R1086M
898.888	4.0	464288	TEST_PROBE	n/a	wordpools/wordpool_EN.txt	3	3	DART	n/a	CALF	DART	7	[0, 0, 0]	-999	PAL1	0	R1086M
898.889	5.009	464289	REC_START	n/a	n/a	3	-999	n/a	n/a	n/a	n/a	7	[0, 0, 0]	-999	PAL1	0	R1086M
903.898	0.002	466793	REC_EVENT	5.009	n/a	3	3	DART	<>	CALF	DART	7	[0, 0, 0]	-999	PAL1	0	R1086M
903.9	0.023	466794	REC_END	n/a	n/a	3	-999	n/a	n/a	n/a	n/a	7	[0, 0, 0]	-999	PAL1	0	R1086M
903.923	0.275	466806	TEST_ORIENT	n/a	n/a	6	4	THUMB	THUMB	THUMB	GATE	7	[0, 0, 0]	-999	PAL1	0	R1086M
904.822	4.0	467255	TEST_PROBE	n/a	wordpools/wordpool_EN.txt	6	4	THUMB	THUMB	THUMB	GATE	7	[0, 0, 0]	-999	PAL1	0	R1086M
904.823	3.683	467255	REC_START	n/a	n/a	6	-999	n/a	THUMB	n/a	n/a	7	[0, 0, 0]	-999	PAL1	0	R1086M
908.506	0.642	469097	REC_EVENT	3.683	n/a	6	4	THUMB	POLE	THUMB	GATE	7	[0, 0, 0]	-999	PAL1	0	R1086M
909.148	0.691	469418	REC_EVENT	4.325	n/a	6	4	THUMB	THUMB	THUMB	GATE	7	[0, 0, 0]	-999	PAL1	0	R1086M
909.839	0.017	469763	REC_END	n/a	n/a	6	-999	n/a	n/a	n/a	n/a	7	[0, 0, 0]	-999	PAL1	0	R1086M
909.856	0.275	469772	TEST_ORIENT	n/a	n/a	5	5	ROPE	n/a	MAIL	ROPE	7	[0, 0, 0]	-999	PAL1	0	R1086M
910.706	4.0	470197	TEST_PROBE	n/a	wordpools/wordpool_EN.txt	5	5	ROPE	n/a	MAIL	ROPE	7	[0, 0, 0]	-999	PAL1	0	R1086M
910.707	4.998	470197	REC_START	n/a	n/a	5	-999	n/a	n/a	n/a	n/a	7	[0, 0, 0]	-999	PAL1	0	R1086M
915.705	0.002	472696	REC_EVENT	4.998	n/a	5	5	ROPE	<>	MAIL	ROPE	7	[0, 0, 0]	-999	PAL1	0	R1086M
915.707	0.017	472697	REC_END	n/a	n/a	5	-999	n/a	n/a	n/a	n/a	7	[0, 0, 0]	-999	PAL1	0	R1086M
915.724	0.275	472706	TEST_ORIENT	n/a	n/a	2	6	TRASH	n/a	POLE	TRASH	7	[0, 0, 0]	-999	PAL1	0	R1086M
916.541	4.0	473114	TEST_PROBE	n/a	wordpools/wordpool_EN.txt	2	6	TRASH	n/a	POLE	TRASH	7	[0, 0, 0]	-999	PAL1	0	R1086M
916.542	5.027	473115	REC_START	n/a	n/a	2	-999	n/a	n/a	n/a	n/a	7	[0, 0, 0]	-999	PAL1	0	R1086M
921.569	0.0	475628	REC_EVENT	5.027	n/a	2	6	TRASH	<>	POLE	TRASH	7	[0, 0, 0]	-999	PAL1	0	R1086M
921.569	13.209	475628	REC_END	n/a	n/a	2	-999	n/a	n/a	n/a	n/a	7	[0, 0, 0]	-999	PAL1	0	R1086M
934.778	10.453	482232	ENCODING_START	n/a	n/a	0	-999	n/a	n/a	n/a	n/a	8	[0, 0, 0]	-999	PAL1	0	R1086M
945.231	0.275	487458	STUDY_ORIENT	n/a	n/a	1	3	BOARD	BRICK	BRICK	BOARD	8	[0, 0, 0]	-999	PAL1	0	R1086M
946.181	4.0	487933	STUDY_PAIR	n/a	wordpools/wordpool_EN.txt	1	3	BOARD	BRICK	BRICK	BOARD	8	[0, 0, 0]	-999	PAL1	0	R1086M
951.215	0.275	490450	STUDY_ORIENT	n/a	n/a	2	6	CUBE	CARK	CANE	CUBE	8	[0, 0, 0]	-999	PAL1	0	R1086M
952.216	4.0	490950	STUDY_PAIR	n/a	wordpools/wordpool_EN.txt	2	6	CUBE	CARK	CANE	CUBE	8	[0, 0, 0]	-999	PAL1	0	R1086M
957.25	0.275	493467	STUDY_ORIENT	n/a	n/a	3	1	HILL	n/a	HILL	FLEA	8	[0, 0, 0]	-999	PAL1	0	R1086M
958.067	4.0	493876	STUDY_PAIR	n/a	wordpools/wordpool_EN.txt	3	1	HILL	n/a	HILL	FLEA	8	[0, 0, 0]	-999	PAL1	0	R1086M
963.101	0.275	496392	STUDY_ORIENT	n/a	n/a	4	2	WEB	n/a	BEAR	WEB	8	[0, 0, 0]	-999	PAL1	0	R1086M
964.101	4.0	496892	STUDY_PAIR	n/a	wordpools/wordpool_EN.txt	4	2	WEB	n/a	BEAR	WEB	8	[0, 0, 0]	-999	PAL1	0	R1086M
969.119	0.275	499401	STUDY_ORIENT	n/a	n/a	5	5	SKI	MAP	HAT	SKI	8	[0, 0, 0]	-999	PAL1	0	R1086M
969.986	4.0	499835	STUDY_PAIR	n/a	wordpools/wordpool_EN.txt	5	5	SKI	MAP	HAT	SKI	8	[0, 0, 0]	-999	PAL1	0	R1086M
975.02	0.275	502352	STUDY_ORIENT	n/a	n/a	6	4	COUCH	CALL	TOOTH	COUCH	8	[0, 0, 0]	-999	PAL1	0	R1086M
976.004	4.0	502844	STUDY_PAIR	n/a	wordpools/wordpool_EN.txt	6	4	COUCH	CALL	TOOTH	COUCH	8	[0, 0, 0]	-999	PAL1	0	R1086M
980.022	0.999	504852	START	n/a	n/a	-999	-999	n/a	n/a	n/a	n/a	8	[-999, -999, -999]	-999	PAL1	0	R1086M
981.021	0.017	505352	MATH_START	n/a	n/a	-999	-999	n/a	n/a	n/a	n/a	8	[0, 0, 0]	-999	PAL1	0	R1086M
981.038	3.017	505360	PROB	2.997	n/a	-999	-999	n/a	n/a	n/a	n/a	8	[8, 3, 1]	12	PAL1	0	R1086M
984.055	4.151	506869	PROB	4.124	n/a	-999	-999	n/a	n/a	n/a	n/a	8	[8, 5, 3]	16	PAL1	0	R1086M
988.206	3.884	508944	PROB	3.861	n/a	-999	-999	n/a	n/a	n/a	n/a	8	[5, 9, 6]	20	PAL1	0	R1086M
992.09	3.951	510886	PROB	3.921	n/a	-999	-999	n/a	n/a	n/a	n/a	8	[5, 6, 2]	13	PAL1	0	R1086M
996.041	4.442	512861	PROB	4.442	n/a	-999	-999	n/a	n/a	n/a	n/a	8	[7, 4, 5]	16	PAL1	0	R1086M
1000.483	0.009	515082	STOP	n/a	n/a	-999	-999	n/a	n/a	n/a	n/a	8	[-999, -999, -999]	-999	PAL1	0	R1086M
1000.492	0.0	515087	MATH_END	n/a	n/a	-999	-999	n/a	n/a	n/a	n/a	8	[0, 0, 0]	-999	PAL1	0	R1086M
1000.492	0.016	515087	TEST_START	n/a	n/a	-999	-999	n/a	n/a	n/a	n/a	8	[0, 0, 0]	-999	PAL1	0	R1086M
1000.508	0.275	515095	TEST_ORIENT	n/a	n/a	3	1	HILL	n/a	HILL	FLEA	8	[0, 0, 0]	-999	PAL1	0	R1086M
1001.475	4.0	515578	TEST_PROBE	n/a	wordpools/wordpool_EN.txt	3	1	HILL	n/a	HILL	FLEA	8	[0, 0, 0]	-999	PAL1	0	R1086M
1001.476	5.013	515579	REC_START	n/a	n/a	3	-999	n/a	n/a	n/a	n/a	8	[0, 0, 0]	-999	PAL1	0	R1086M
1006.489	0.002	518085	REC_END	n/a	n/a	3	-999	n/a	n/a	n/a	n/a	8	[0, 0, 0]	-999	PAL1	0	R1086M
1006.491	0.019	518086	REC_EVENT	5.015	n/a	3	1	HILL	<>	HILL	FLEA	8	[0, 0, 0]	-999	PAL1	0	R1086M
1006.51	0.275	518095	TEST_ORIENT	n/a	n/a	4	2	WEB	n/a	BEAR	WEB	8	[0, 0, 0]	-999	PAL1	0	R1086M
1007.443	4.0	518562	TEST_PROBE	n/a	wordpools/wordpool_EN.txt	4	2	WEB	n/a	BEAR	WEB	8	[0, 0, 0]	-999	PAL1	0	R1086M
1007.444	5.03	518562	REC_START	n/a	n/a	4	-999	n/a	n/a	n/a	n/a	8	[0, 0, 0]	-999	PAL1	0	R1086M
1012.474	0.002	521077	REC_END	n/a	n/a	4	-999	n/a	n/a	n/a	n/a	8	[0, 0, 0]	-999	PAL1	0	R1086M
1012.476	0.018	521078	REC_EVENT	5.032	n/a	4	2	WEB	<>	BEAR	WEB	8	[0, 0, 0]	-999	PAL1	0	R1086M
1012.494	0.275	521087	TEST_ORIENT	n/a	n/a	1	3	BOARD	BRICK	BRICK	BOARD	8	[0, 0, 0]	-999	PAL1	0	R1086M
1013.428	4.0	521554	TEST_PROBE	n/a	wordpools/wordpool_EN.txt	1	3	BOARD	BRICK	BRICK	BOARD	8	[0, 0, 0]	-999	PAL1	0	R1086M
1013.428	0.837	521554	REC_START	n/a	n/a	1	-999	n/a	BRICK	n/a	n/a	8	[0, 0, 0]	-999	PAL1	0	R1086M
1014.265	4.193	521973	REC_EVENT	0.837	n/a	1	3	BOARD	BRICK	BRICK	BOARD	8	[0, 0, 0]	-999	PAL1	0	R1086M
1018.458	0.021	524069	REC_END	n/a	n/a	1	-999	n/a	n/a	n/a	n/a	8	[0, 0, 0]	-999	PAL1	0	R1086M
1018.479	0.275	524080	TEST_ORIENT	n/a	n/a	6	4	COUCH	CALL	TOOTH	COUCH	8	[0, 0, 0]	-999	PAL1	0	R1086M
1019.429	4.0	524555	TEST_PROBE	n/a	wordpools/wordpool_EN.txt	6	4	COUCH	CALL	TOOTH	COUCH	8	[0, 0, 0]	-999	PAL1	0	R1086M
1019.429	2.972	524555	REC_START	n/a	n/a	6	-999	n/a	CALL	n/a	n/a	8	[0, 0, 0]	-999	PAL1	0	R1086M
1022.401	2.045	526040	REC_EVENT	2.972	n/a	6	4	COUCH	CALL	TOOTH	COUCH	8	[0, 0, 0]	-999	PAL1	0	R1086M
1024.446	0.017	527063	REC_END	n/a	n/a	6	-999	n/a	n/a	n/a	n/a	8	[0, 0, 0]	-999	PAL1	0	R1086M
1024.463	0.275	527071	TEST_ORIENT	n/a	n/a	5	5	SKI	MAP	HAT	SKI	8	[0, 0, 0]	-999	PAL1	0	R1086M
1025.363	4.0	527521	TEST_PROBE	n/a	wordpools/wordpool_EN.txt	5	5	SKI	MAP	HAT	SKI	8	[0, 0, 0]	-999	PAL1	0	R1086M
1025.364	2.499	527522	REC_START	n/a	n/a	5	-999	n/a	MAP	n/a	n/a	8	[0, 0, 0]	-999	PAL1	0	R1086M
1027.863	2.514	528771	REC_EVENT	2.499	n/a	5	5	SKI	MAP	HAT	SKI	8	[0, 0, 0]	-999	PAL1	0	R1086M
1030.377	0.021	530028	REC_END	n/a	n/a	5	-999	n/a	n/a	n/a	n/a	8	[0, 0, 0]	-999	PAL1	0	R1086M
1030.398	0.275	530039	TEST_ORIENT	n/a	n/a	2	6	CUBE	CARK	CANE	CUBE	8	[0, 0, 0]	-999	PAL1	0	R1086M
1031.331	4.0	530505	TEST_PROBE	n/a	wordpools/wordpool_EN.txt	2	6	CUBE	CARK	CANE	CUBE	8	[0, 0, 0]	-999	PAL1	0	R1086M
1031.332	2.666	530506	REC_START	n/a	n/a	2	-999	n/a	CARK	n/a	n/a	8	[0, 0, 0]	-999	PAL1	0	R1086M
1033.998	2.347	531839	REC_EVENT	2.666	n/a	2	6	CUBE	CARK	CANE	CUBE	8	[0, 0, 0]	-999	PAL1	0	R1086M
1036.345	4.026	533012	REC_END	n/a	n/a	2	-999	n/a	n/a	n/a	n/a	8	[0, 0, 0]	-999	PAL1	0	R1086M
1040.371	10.446	535025	ENCODING_START	n/a	n/a	0	-999	n/a	n/a	n/a	n/a	9	[0, 0, 0]	-999	PAL1	0	R1086M
1050.817	0.275	540247	STUDY_ORIENT	n/a	n/a	1	1	SCHOOL	n/a	TENT	SCHOOL	9	[0, 0, 0]	-999	PAL1	0	R1086M
1051.668	4.0	540673	STUDY_PAIR	n/a	wordpools/wordpool_EN.txt	1	1	SCHOOL	n/a	TENT	SCHOOL	9	[0, 0, 0]	-999	PAL1	0	R1086M
1056.702	0.275	543190	STUDY_ORIENT	n/a	n/a	2	4	PET	PIT	PET	PIT	9	[0, 0, 0]	-999	PAL1	0	R1086M
1057.569	4.0	543623	STUDY_PAIR	n/a	wordpools/wordpool_EN.txt	2	4	PET	PIT	PET	PIT	9	[0, 0, 0]	-999	PAL1	0	R1086M
1062.603	0.275	546140	STUDY_ORIENT	n/a	n/a	3	3	CRANE	CRONE	CRANE	FLUTE	9	[0, 0, 0]	-999	PAL1	0	R1086M
1063.537	4.0	546607	STUDY_PAIR	n/a	wordpools/wordpool_EN.txt	3	3	CRANE	CRONE	CRANE	FLUTE	9	[0, 0, 0]	-999	PAL1	0	R1086M
1068.571	0.275	549124	STUDY_ORIENT	n/a	n/a	4	6	JUDGE	n/a	JUDGE	SPARK	9	[0, 0, 0]	-999	PAL1	0	R1086M
1069.522	4.0	549599	STUDY_PAIR	n/a	wordpools/wordpool_EN.txt	4	6	JUDGE	n/a	JUDGE	SPARK	9	[0, 0, 0]	-999	PAL1	0	R1086M
1074.555	0.275	552116	STUDY_ORIENT	n/a	n/a	5	5	OAR	OAK	OAR	CLIFF	9	[0, 0, 0]	-999	PAL1	0	R1086M
1075.44	4.0	552558	STUDY_PAIR	n/a	wordpools/wordpool_EN.txt	5	5	OAR	OAK	OAR	CLIFF	9	[0, 0, 0]	-999	PAL1	0	R1086M
1080.474	0.275	555075	STUDY_ORIENT	n/a	n/a	6	2	HOUSE	n/a	BEAN	HOUSE	9	[0, 0, 0]	-999	PAL1	0	R1086M
1081.324	4.0	555500	STUDY_PAIR	n/a	wordpools/wordpool_EN.txt	6	2	HOUSE	n/a	BEAN	HOUSE	9	[0, 0, 0]	-999	PAL1	0	R1086M
1085.325	1.0	557500	START	n/a	n/a	-999	-999	n/a	n/a	n/a	n/a	9	[-999, -999, -999]	-999	PAL1	0	R1086M
1086.325	0.017	558000	MATH_START	n/a	n/a	-999	-999	n/a	n/a	n/a	n/a	9	[0, 0, 0]	-999	PAL1	0	R1086M
1086.342	3.551	558009	PROB	3.516	n/a	-999	-999	n/a	n/a	n/a	n/a	9	[6, 5, 2]	13	PAL1	0	R1086M
1089.893	5.167	559784	PROB	5.134	n/a	-999	-999	n/a	n/a	n/a	n/a	9	[8, 2, 6]	16	PAL1	0	R1086M
1095.06	2.516	562367	PROB	2.486	n/a	-999	-999	n/a	n/a	n/a	n/a	9	[5, 6, 1]	12	PAL1	0	R1086M
1097.576	3.936	563625	PROB	3.907	n/a	-999	-999	n/a	n/a	n/a	n/a	9	[1, 9, 2]	12	PAL1	0	R1086M
1101.512	4.411	565593	PROB	4.411	n/a	-999	-999	n/a	n/a	n/a	n/a	9	[9, 8, 3]	20	PAL1	0	R1086M
1105.923	0.006	567799	STOP	n/a	n/a	-999	-999	n/a	n/a	n/a	n/a	9	[-999, -999, -999]	-999	PAL1	0	R1086M
1105.929	0.0	567802	MATH_END	n/a	n/a	-999	-999	n/a	n/a	n/a	n/a	9	[0, 0, 0]	-999	PAL1	0	R1086M
1105.929	0.017	567802	TEST_START	n/a	n/a	-999	-999	n/a	n/a	n/a	n/a	9	[0, 0, 0]	-999	PAL1	0	R1086M
1105.946	0.275	567810	TEST_ORIENT	n/a	n/a	1	1	SCHOOL	n/a	TENT	SCHOOL	9	[0, 0, 0]	-999	PAL1	0	R1086M
1106.762	4.0	568218	TEST_PROBE	n/a	wordpools/wordpool_EN.txt	1	1	SCHOOL	n/a	TENT	SCHOOL	9	[0, 0, 0]	-999	PAL1	0	R1086M
1106.762	5.015	568218	REC_START	n/a	n/a	1	-999	n/a	n/a	n/a	n/a	9	[0, 0, 0]	-999	PAL1	0	R1086M
1111.777	0.002	570725	REC_EVENT	5.015	n/a	1	1	SCHOOL	<>	TENT	SCHOOL	9	[0, 0, 0]	-999	PAL1	0	R1086M
1111.779	0.017	570726	REC_END	n/a	n/a	1	-999	n/a	n/a	n/a	n/a	9	[0, 0, 0]	-999	PAL1	0	R1086M
1111.796	0.275	570735	TEST_ORIENT	n/a	n/a	6	2	HOUSE	n/a	BEAN	HOUSE	9	[0, 0, 0]	-999	PAL1	0	R1086M
1112.78	4.0	571227	TEST_PROBE	n/a	wordpools/wordpool_EN.txt	6	2	HOUSE	n/a	BEAN	HOUSE	9	[0, 0, 0]	-999	PAL1	0	R1086M
1112.78	5.015	571227	REC_START	n/a	n/a	6	-999	n/a	n/a	n/a	n/a	9	[0, 0, 0]	-999	PAL1	0	R1086M
1117.795	0.002	573734	REC_EVENT	5.015	n/a	6	2	HOUSE	<>	BEAN	HOUSE	9	[0, 0, 0]	-999	PAL1	0	R1086M
1117.797	0.017	573735	REC_END	n/a	n/a	6	-999	n/a	n/a	n/a	n/a	9	[0, 0, 0]	-999	PAL1	0	R1086M
1117.814	0.275	573744	TEST_ORIENT	n/a	n/a	3	3	CRANE	CRONE	CRANE	FLUTE	9	[0, 0, 0]	-999	PAL1	0	R1086M
1118.781	4.0	574227	TEST_PROBE	n/a	wordpools/wordpool_EN.txt	3	3	CRANE	CRONE	CRANE	FLUTE	9	[0, 0, 0]	-999	PAL1	0	R1086M
1118.781	0.894	574227	REC_START	n/a	n/a	3	-999	n/a	CRONE	n/a	n/a	9	[0, 0, 0]	-999	PAL1	0	R1086M
1119.675	4.123	574674	REC_EVENT	0.894	n/a	3	3	CRANE	CRONE	CRANE	FLUTE	9	[0, 0, 0]	-999	PAL1	0	R1086M
1123.798	0.017	576735	REC_END	n/a	n/a	3	-999	n/a	n/a	n/a	n/a	9	[0, 0, 0]	-999	PAL1	0	R1086M
1123.815	0.275	576744	TEST_ORIENT	n/a	n/a	2	4	PET	PIT	PET	PIT	9	[0, 0, 0]	-999	PAL1	0	R1086M
1124.848	4.0	577260	TEST_PROBE	n/a	wordpools/wordpool_EN.txt	2	4	PET	PIT	PET	PIT	9	[0, 0, 0]	-999	PAL1	0	R1086M
1124.849	1.013	577261	REC_START	n/a	n/a	2	-999	n/a	PIT	n/a	n/a	9	[0, 0, 0]	-999	PAL1	0	R1086M
1125.862	0.528	577767	REC_EVENT	1.013	n/a	2	4	PET	PET	PET	PIT	9	[0, 0, 0]	-999	PAL1	0	R1086M
1126.39	3.473	578031	REC_EVENT	1.541	n/a	2	4	PET	PIT	PET	PIT	9	[0, 0, 0]	-999	PAL1	0	R1086M
1129.863	0.021	579768	REC_END	n/a	n/a	2	-999	n/a	n/a	n/a	n/a	9	[0, 0, 0]	-999	PAL1	0	R1086M
1129.884	0.275	579778	TEST_ORIENT	n/a	n/a	5	5	OAR	OAK	OAR	CLIFF	9	[0, 0, 0]	-999	PAL1	0	R1086M
1130.683	4.0	580178	TEST_PROBE	n/a	wordpools/wordpool_EN.txt	5	5	OAR	OAK	OAR	CLIFF	9	[0, 0, 0]	-999	PAL1	0	R1086M
1130.684	3.445	580178	REC_START	n/a	n/a	5	-999	n/a	OAK	n/a	n/a	9	[0, 0, 0]	-999	PAL1	0	R1086M
1134.129	1.571	581901	REC_EVENT	3.445	n/a	5	5	OAR	OAK	OAR	CLIFF	9	[0, 0, 0]	-999	PAL1	0	R1086M
1135.7	0.034	582686	REC_END	n/a	n/a	5	-999	n/a	n/a	n/a	n/a	9	[0, 0, 0]	-999	PAL1	0	R1086M
1135.734	0.275	582703	TEST_ORIENT	n/a	n/a	4	6	JUDGE	n/a	JUDGE	SPARK	9	[0, 0, 0]	-999	PAL1	0	R1086M
1136.551	0.0	583112	REC_START	n/a	n/a	4	-999	n/a	n/a	n/a	n/a	9	[0, 0, 0]	-999	PAL1	0	R1086M
1136.551	4.0	583112	TEST_PROBE	n/a	wordpools/wordpool_EN.txt	4	6	JUDGE	n/a	JUDGE	SPARK	9	[0, 0, 0]	-999	PAL1	0	R1086M
1141.566	0.002	585619	REC_EVENT	5.015	n/a	4	6	JUDGE	<>	JUDGE	SPARK	9	[0, 0, 0]	-999	PAL1	0	R1086M
1141.568	3.05	585620	REC_END	n/a	n/a	4	-999	n/a	n/a	n/a	n/a	9	[0, 0, 0]	-999	PAL1	0	R1086M
1144.618	10.454	587145	ENCODING_START	n/a	n/a	0	-999	n/a	n/a	n/a	n/a	10	[0, 0, 0]	-999	PAL1	0	R1086M
1155.072	0.275	592371	STUDY_ORIENT	n/a	n/a	1	1	HOOF	HORN	HORN	HOOF	10	[0, 0, 0]	-999	PAL1	0	R1086M
1156.022	4.0	592846	STUDY_PAIR	n/a	wordpools/wordpool_EN.txt	1	1	HOOF	HORN	HORN	HOOF	10	[0, 0, 0]	-999	PAL1	0	R1086M
1161.04	0.275	595355	STUDY_ORIENT	n/a	n/a	2	4	SWORD	n/a	SWORD	ROOF	10	[0, 0, 0]	-999	PAL1	0	R1086M
1161.873	4.0	595772	STUDY_PAIR	n/a	wordpools/wordpool_EN.txt	2	4	SWORD	n/a	SWORD	ROOF	10	[0, 0, 0]	-999	PAL1	0	R1086M
1166.891	0.275	598280	STUDY_ORIENT	n/a	n/a	3	3	ROCK	n/a	ROCK	SLIME	10	[0, 0, 0]	-999	PAL1	0	R1086M
1167.757	4.0	598713	STUDY_PAIR	n/a	wordpools/wordpool_EN.txt	3	3	ROCK	n/a	ROCK	SLIME	10	[0, 0, 0]	-999	PAL1	0	R1086M
1172.791	0.275	601230	STUDY_ORIENT	n/a	n/a	4	6	SHRIMP	n/a	SHRIMP	PLANT	10	[0, 0, 0]	-999	PAL1	0	R1086M
1173.608	4.0	601639	STUDY_PAIR	n/a	wordpools/wordpool_EN.txt	4	6	SHRIMP	n/a	SHRIMP	PLANT	10	[0, 0, 0]	-999	PAL1	0	R1086M
1178.626	0.275	604148	STUDY_ORIENT	n/a	n/a	5	5	ROSE	n/a	JEEP	ROSE	10	[0, 0, 0]	-999	PAL1	0	R1086M
1179.609	4.0	604639	STUDY_PAIR	n/a	wordpools/wordpool_EN.txt	5	5	ROSE	n/a	JEEP	ROSE	10	[0, 0, 0]	-999	PAL1	0	R1086M
1184.627	0.275	607148	STUDY_ORIENT	n/a	n/a	6	2	STORM	n/a	STORM	SHIELD	10	[0, 0, 0]	-999	PAL1	0	R1086M
1185.627	4.0	607648	STUDY_PAIR	n/a	wordpools/wordpool_EN.txt	6	2	STORM	n/a	STORM	SHIELD	10	[0, 0, 0]	-999	PAL1	0	R1086M
1189.629	0.999	609649	START	n/a	n/a	-999	-999	n/a	n/a	n/a	n/a	10	[-999, -999, -999]	-999	PAL1	0	R1086M
1190.628	0.017	610148	MATH_START	n/a	n/a	-999	-999	n/a	n/a	n/a	n/a	10	[0, 0, 0]	-999	PAL1	0	R1086M
1190.645	2.984	610157	PROB	2.949	n/a	-999	-999	n/a	n/a	n/a	n/a	10	[1, 1, 7]	9	PAL1	0	R1086M
1193.629	3.785	611649	PROB	3.758	n/a	-999	-999	n/a	n/a	n/a	n/a	10	[8, 7, 7]	22	PAL1	0	R1086M
1197.414	4.051	613541	PROB	4.029	n/a	-999	-999	n/a	n/a	n/a	n/a	10	[9, 6, 4]	19	PAL1	0	R1086M
1201.465	3.767	615566	PROB	3.738	n/a	-999	-999	n/a	n/a	n/a	n/a	10	[9, 5, 8]	22	PAL1	0	R1086M
1205.232	3.634	617450	PROB	3.61	n/a	-999	-999	n/a	n/a	n/a	n/a	10	[5, 7, 4]	16	PAL1	0	R1086M
1208.866	3.137	619267	PROB	3.137	n/a	-999	-999	n/a	n/a	n/a	n/a	10	[5, 1, 1]	7	PAL1	0	R1086M
1212.003	0.014	620835	STOP	n/a	n/a	-999	-999	n/a	n/a	n/a	n/a	10	[-999, -999, -999]	-999	PAL1	0	R1086M
1212.017	0.0	620842	TEST_START	n/a	n/a	-999	-999	n/a	n/a	n/a	n/a	10	[0, 0, 0]	-999	PAL1	0	R1086M
1212.017	0.016	620842	MATH_END	n/a	n/a	-999	-999	n/a	n/a	n/a	n/a	10	[0, 0, 0]	-999	PAL1	0	R1086M
1212.033	0.275	620850	TEST_ORIENT	n/a	n/a	1	1	HOOF	HORN	HORN	HOOF	10	[0, 0, 0]	-999	PAL1	0	R1086M
1213.034	4.0	621350	TEST_PROBE	n/a	wordpools/wordpool_EN.txt	1	1	HOOF	HORN	HORN	HOOF	10	[0, 0, 0]	-999	PAL1	0	R1086M
1213.034	3.229	621350	REC_START	n/a	n/a	1	-999	n/a	HORN	n/a	n/a	10	[0, 0, 0]	-999	PAL1	0	R1086M
1216.263	1.788	622965	REC_EVENT	3.229	n/a	1	1	HOOF	HORN	HORN	HOOF	10	[0, 0, 0]	-999	PAL1	0	R1086M
1218.051	0.017	623859	REC_END	n/a	n/a	1	-999	n/a	n/a	n/a	n/a	10	[0, 0, 0]	-999	PAL1	0	R1086M
1218.068	0.275	623867	TEST_ORIENT	n/a	n/a	6	2	STORM	n/a	STORM	SHIELD	10	[0, 0, 0]	-999	PAL1	0	R1086M
1218.901	4.0	624284	TEST_PROBE	n/a	wordpools/wordpool_EN.txt	6	2	STORM	n/a	STORM	SHIELD	10	[0, 0, 0]	-999	PAL1	0	R1086M
1218.902	5.014	624284	REC_START	n/a	n/a	6	-999	n/a	n/a	n/a	n/a	10	[0, 0, 0]	-999	PAL1	0	R1086M
1223.916	0.001	626791	REC_END	n/a	n/a	6	-999	n/a	n/a	n/a	n/a	10	[0, 0, 0]	-999	PAL1	0	R1086M
1223.917	0.019	626792	REC_EVENT	5.015	n/a	6	2	STORM	<>	STORM	SHIELD	10	[0, 0, 0]	-999	PAL1	0	R1086M
1223.936	0.275	626801	TEST_ORIENT	n/a	n/a	3	3	ROCK	n/a	ROCK	SLIME	10	[0, 0, 0]	-999	PAL1	0	R1086M
1224.835	4.0	627251	TEST_PROBE	n/a	wordpools/wordpool_EN.txt	3	3	ROCK	n/a	ROCK	SLIME	10	[0, 0, 0]	-999	PAL1	0	R1086M
1224.835	5.015	627251	REC_START	n/a	n/a	3	-999	n/a	n/a	n/a	n/a	10	[0, 0, 0]	-999	PAL1	0	R1086M
1229.85	0.002	629758	REC_EVENT	5.015	n/a	3	3	ROCK	<>	ROCK	SLIME	10	[0, 0, 0]	-999	PAL1	0	R1086M
1229.852	0.018	629759	REC_END	n/a	n/a	3	-999	n/a	n/a	n/a	n/a	10	[0, 0, 0]	-999	PAL1	0	R1086M
1229.87	0.275	629768	TEST_ORIENT	n/a	n/a	2	4	SWORD	n/a	SWORD	ROOF	10	[0, 0, 0]	-999	PAL1	0	R1086M
1230.836	4.0	630251	TEST_PROBE	n/a	wordpools/wordpool_EN.txt	2	4	SWORD	n/a	SWORD	ROOF	10	[0, 0, 0]	-999	PAL1	0	R1086M
1230.836	5.015	630251	REC_START	n/a	n/a	2	-999	n/a	n/a	n/a	n/a	10	[0, 0, 0]	-999	PAL1	0	R1086M
1235.851	0.002	632758	REC_EVENT	5.015	n/a	2	4	SWORD	<>	SWORD	ROOF	10	[0, 0, 0]	-999	PAL1	0	R1086M
1235.853	0.018	632759	REC_END	n/a	n/a	2	-999	n/a	n/a	n/a	n/a	10	[0, 0, 0]	-999	PAL1	0	R1086M
1235.871	0.275	632768	TEST_ORIENT	n/a	n/a	5	5	ROSE	n/a	JEEP	ROSE	10	[0, 0, 0]	-999	PAL1	0	R1086M
1236.704	4.0	633185	TEST_PROBE	n/a	wordpools/wordpool_EN.txt	5	5	ROSE	n/a	JEEP	ROSE	10	[0, 0, 0]	-999	PAL1	0	R1086M
1236.704	5.015	633185	REC_START	n/a	n/a	5	-999	n/a	n/a	n/a	n/a	10	[0, 0, 0]	-999	PAL1	0	R1086M
1241.719	0.002	635692	REC_EVENT	5.015	n/a	5	5	ROSE	<>	JEEP	ROSE	10	[0, 0, 0]	-999	PAL1	0	R1086M
1241.721	0.017	635693	REC_END	n/a	n/a	5	-999	n/a	n/a	n/a	n/a	10	[0, 0, 0]	-999	PAL1	0	R1086M
1241.738	0.275	635701	TEST_ORIENT	n/a	n/a	4	6	SHRIMP	n/a	SHRIMP	PLANT	10	[0, 0, 0]	-999	PAL1	0	R1086M
1242.672	4.0	636168	TEST_PROBE	n/a	wordpools/wordpool_EN.txt	4	6	SHRIMP	n/a	SHRIMP	PLANT	10	[0, 0, 0]	-999	PAL1	0	R1086M
1242.672	5.015	636168	REC_START	n/a	n/a	4	-999	n/a	n/a	n/a	n/a	10	[0, 0, 0]	-999	PAL1	0	R1086M
1247.687	0.002	638676	REC_EVENT	5.015	n/a	4	6	SHRIMP	<>	SHRIMP	PLANT	10	[0, 0, 0]	-999	PAL1	0	R1086M
1247.689	2.354	638677	REC_END	n/a	n/a	4	-999	n/a	n/a	n/a	n/a	10	[0, 0, 0]	-999	PAL1	0	R1086M
1250.043	10.45	639854	ENCODING_START	n/a	n/a	0	-999	n/a	n/a	n/a	n/a	11	[0, 0, 0]	-999	PAL1	0	R1086M
1260.493	0.275	645078	STUDY_ORIENT	n/a	n/a	1	3	HORSE	SWAMP	SWAMP	HORSE	11	[0, 0, 0]	-999	PAL1	0	R1086M
1261.41	4.0	645537	STUDY_PAIR	n/a	wordpools/wordpool_EN.txt	1	3	HORSE	SWAMP	SWAMP	HORSE	11	[0, 0, 0]	-999	PAL1	0	R1086M
1266.444	0.275	648054	STUDY_ORIENT	n/a	n/a	2	4	TRAY	RICE	RICE	TRAY	11	[0, 0, 0]	-999	PAL1	0	R1086M
1267.427	4.0	648545	STUDY_PAIR	n/a	wordpools/wordpool_EN.txt	2	4	TRAY	RICE	RICE	TRAY	11	[0, 0, 0]	-999	PAL1	0	R1086M
1272.445	0.275	651054	STUDY_ORIENT	n/a	n/a	3	1	SHEEP	n/a	SHOE	SHEEP	11	[0, 0, 0]	-999	PAL1	0	R1086M
1273.345	4.0	651504	STUDY_PAIR	n/a	wordpools/wordpool_EN.txt	3	1	SHEEP	n/a	SHOE	SHEEP	11	[0, 0, 0]	-999	PAL1	0	R1086M
1278.363	0.275	654013	STUDY_ORIENT	n/a	n/a	4	2	TOE	n/a	TOE	BEAK	11	[0, 0, 0]	-999	PAL1	0	R1086M
1279.347	4.0	654505	STUDY_PAIR	n/a	wordpools/wordpool_EN.txt	4	2	TOE	n/a	TOE	BEAK	11	[0, 0, 0]	-999	PAL1	0	R1086M
1284.381	0.275	657021	STUDY_ORIENT	n/a	n/a	5	5	HAWK	n/a	HAWK	SNAKE	11	[0, 0, 0]	-999	PAL1	0	R1086M
1285.248	4.0	657455	STUDY_PAIR	n/a	wordpools/wordpool_EN.txt	5	5	HAWK	n/a	HAWK	SNAKE	11	[0, 0, 0]	-999	PAL1	0	R1086M
1290.282	0.275	659972	STUDY_ORIENT	n/a	n/a	6	6	BANK	n/a	BANK	TEA	11	[0, 0, 0]	-999	PAL1	0	R1086M
1291.116	4.0	660389	STUDY_PAIR	n/a	wordpools/wordpool_EN.txt	6	6	BANK	n/a	BANK	TEA	11	[0, 0, 0]	-999	PAL1	0	R1086M
1295.134	0.999	662398	START	n/a	n/a	-999	-999	n/a	n/a	n/a	n/a	11	[-999, -999, -999]	-999	PAL1	0	R1086M
1296.133	0.017	662897	MATH_START	n/a	n/a	-999	-999	n/a	n/a	n/a	n/a	11	[0, 0, 0]	-999	PAL1	0	R1086M
1296.15	6.001	662906	PROB	5.965	n/a	-999	-999	n/a	n/a	n/a	n/a	11	[9, 3, 6]	18	PAL1	0	R1086M
1302.151	4.368	665906	PROB	4.34	n/a	-999	-999	n/a	n/a	n/a	n/a	11	[9, 7, 4]	20	PAL1	0	R1086M
1306.519	5.316	668090	PROB	5.291	n/a	-999	-999	n/a	n/a	n/a	n/a	11	[9, 4, 7]	20	PAL1	0	R1086M
1311.835	3.951	670748	PROB	3.951	n/a	-999	-999	n/a	n/a	n/a	n/a	11	[3, 5, 7]	15	PAL1	0	R1086M
1315.786	0.017	672723	STOP	n/a	n/a	-999	-999	n/a	n/a	n/a	n/a	11	[-999, -999, -999]	-999	PAL1	0	R1086M
1315.803	0.0	672731	MATH_END	n/a	n/a	-999	-999	n/a	n/a	n/a	n/a	11	[0, 0, 0]	-999	PAL1	0	R1086M
1315.803	0.016	672731	TEST_START	n/a	n/a	-999	-999	n/a	n/a	n/a	n/a	11	[0, 0, 0]	-999	PAL1	0	R1086M
1315.819	0.275	672739	TEST_ORIENT	n/a	n/a	3	1	SHEEP	n/a	SHOE	SHEEP	11	[0, 0, 0]	-999	PAL1	0	R1086M
1316.786	4.0	673223	TEST_PROBE	n/a	wordpools/wordpool_EN.txt	3	1	SHEEP	n/a	SHOE	SHEEP	11	[0, 0, 0]	-999	PAL1	0	R1086M
1316.787	0.182	673223	REC_START	n/a	n/a	3	-999	n/a	n/a	n/a	n/a	11	[0, 0, 0]	-999	PAL1	0	R1086M
1316.969	4.818	673314	REC_EVENT	0.182	n/a	3	1	SHEEP	<>	SHOE	SHEEP	11	[0, 0, 0]	-999	PAL1	0	R1086M
1321.787	0.017	675723	REC_END	n/a	n/a	3	-999	n/a	n/a	n/a	n/a	11	[0, 0, 0]	-999	PAL1	0	R1086M
1321.804	0.275	675732	TEST_ORIENT	n/a	n/a	4	2	TOE	n/a	TOE	BEAK	11	[0, 0, 0]	-999	PAL1	0	R1086M
1322.721	4.0	676190	TEST_PROBE	n/a	wordpools/wordpool_EN.txt	4	2	TOE	n/a	TOE	BEAK	11	[0, 0, 0]	-999	PAL1	0	R1086M
1322.721	5.015	676190	REC_START	n/a	n/a	4	-999	n/a	n/a	n/a	n/a	11	[0, 0, 0]	-999	PAL1	0	R1086M
1327.736	0.002	678697	REC_EVENT	5.015	n/a	4	2	TOE	<>	TOE	BEAK	11	[0, 0, 0]	-999	PAL1	0	R1086M
1327.738	0.017	678698	REC_END	n/a	n/a	4	-999	n/a	n/a	n/a	n/a	11	[0, 0, 0]	-999	PAL1	0	R1086M
1327.755	0.275	678707	TEST_ORIENT	n/a	n/a	1	3	HORSE	SWAMP	SWAMP	HORSE	11	[0, 0, 0]	-999	PAL1	0	R1086M
1328.572	4.0	679115	TEST_PROBE	n/a	wordpools/wordpool_EN.txt	1	3	HORSE	SWAMP	SWAMP	HORSE	11	[0, 0, 0]	-999	PAL1	0	R1086M
1328.572	0.837	679115	REC_START	n/a	n/a	1	-999	n/a	SWAMP	n/a	n/a	11	[0, 0, 0]	-999	PAL1	0	R1086M
1329.409	4.187	679534	REC_EVENT	0.837	n/a	1	3	HORSE	SWAMP	SWAMP	HORSE	11	[0, 0, 0]	-999	PAL1	0	R1086M
1333.596	0.011	681627	REC_END	n/a	n/a	1	-999	n/a	n/a	n/a	n/a	11	[0, 0, 0]	-999	PAL1	0	R1086M
1333.607	0.275	681633	TEST_ORIENT	n/a	n/a	2	4	TRAY	RICE	RICE	TRAY	11	[0, 0, 0]	-999	PAL1	0	R1086M
1334.64	4.0	682149	TEST_PROBE	n/a	wordpools/wordpool_EN.txt	2	4	TRAY	RICE	RICE	TRAY	11	[0, 0, 0]	-999	PAL1	0	R1086M
1334.64	0.829	682149	REC_START	n/a	n/a	2	-999	n/a	RICE	n/a	n/a	11	[0, 0, 0]	-999	PAL1	0	R1086M
1335.469	4.201	682564	REC_EVENT	0.829	n/a	2	4	TRAY	RICE	RICE	TRAY	11	[0, 0, 0]	-999	PAL1	0	R1086M
1339.67	0.021	684664	REC_END	n/a	n/a	2	-999	n/a	n/a	n/a	n/a	11	[0, 0, 0]	-999	PAL1	0	R1086M
1339.691	0.275	684675	TEST_ORIENT	n/a	n/a	5	5	HAWK	n/a	HAWK	SNAKE	11	[0, 0, 0]	-999	PAL1	0	R1086M
1340.674	4.0	685166	TEST_PROBE	n/a	wordpools/wordpool_EN.txt	5	5	HAWK	n/a	HAWK	SNAKE	11	[0, 0, 0]	-999	PAL1	0	R1086M
1340.675	1.996	685167	REC_START	n/a	n/a	5	-999	n/a	n/a	n/a	n/a	11	[0, 0, 0]	-999	PAL1	0	R1086M
1342.671	3.017	686164	REC_EVENT	1.996	n/a	5	5	HAWK	<>	HAWK	SNAKE	11	[0, 0, 0]	-999	PAL1	0	R1086M
1345.688	0.021	687673	REC_END	n/a	n/a	5	-999	n/a	n/a	n/a	n/a	11	[0, 0, 0]	-999	PAL1	0	R1086M
1345.709	0.275	687683	TEST_ORIENT	n/a	n/a	6	6	BANK	n/a	BANK	TEA	11	[0, 0, 0]	-999	PAL1	0	R1086M
1346.742	4.0	688200	TEST_PROBE	n/a	wordpools/wordpool_EN.txt	6	6	BANK	n/a	BANK	TEA	11	[0, 0, 0]	-999	PAL1	0	R1086M
1346.743	0.0	688200	REC_START	n/a	n/a	6	-999	n/a	n/a	n/a	n/a	11	[0, 0, 0]	-999	PAL1	0	R1086M
1346.743	5.013	688200	REC_EVENT	0.0	n/a	6	6	BANK	<>	BANK	TEA	11	[0, 0, 0]	-999	PAL1	0	R1086M
1351.756	2.551	690707	REC_END	n/a	n/a	6	-999	n/a	n/a	n/a	n/a	11	[0, 0, 0]	-999	PAL1	0	R1086M
1354.307	10.439	691982	ENCODING_START	n/a	n/a	0	-999	n/a	n/a	n/a	n/a	12	[0, 0, 0]	-999	PAL1	0	R1086M
1364.746	0.275	697201	STUDY_ORIENT	n/a	n/a	1	5	SHIP	n/a	GRAPE	SHIP	12	[0, 0, 0]	-999	PAL1	0	R1086M
1365.546	4.0	697601	STUDY_PAIR	n/a	wordpools/wordpool_EN.txt	1	5	SHIP	n/a	GRAPE	SHIP	12	[0, 0, 0]	-999	PAL1	0	R1086M
1370.58	0.275	700118	STUDY_ORIENT	n/a	n/a	2	2	WEED	SMOKE	GOAT	WEED	12	[0, 0, 0]	-999	PAL1	0	R1086M
1371.431	4.0	700543	STUDY_PAIR	n/a	wordpools/wordpool_EN.txt	2	2	WEED	SMOKE	GOAT	WEED	12	[0, 0, 0]	-999	PAL1	0	R1086M
1376.449	0.275	703052	STUDY_ORIENT	n/a	n/a	3	1	PIN	n/a	PIN	WALL	12	[0, 0, 0]	-999	PAL1	0	R1086M
1377.449	4.0	703552	STUDY_PAIR	n/a	wordpools/wordpool_EN.txt	3	1	PIN	n/a	PIN	WALL	12	[0, 0, 0]	-999	PAL1	0	R1086M
1382.467	0.275	706061	STUDY_ORIENT	n/a	n/a	4	4	GOLD	n/a	CAT	GOLD	12	[0, 0, 0]	-999	PAL1	0	R1086M
1383.35	4.0	706503	STUDY_PAIR	n/a	wordpools/wordpool_EN.txt	4	4	GOLD	n/a	CAT	GOLD	12	[0, 0, 0]	-999	PAL1	0	R1086M
1388.368	0.275	709011	STUDY_ORIENT	n/a	n/a	5	3	FOG	n/a	MOLE	FOG	12	[0, 0, 0]	-999	PAL1	0	R1086M
1389.335	4.0	709495	STUDY_PAIR	n/a	wordpools/wordpool_EN.txt	5	3	FOG	n/a	MOLE	FOG	12	[0, 0, 0]	-999	PAL1	0	R1086M
1394.369	0.275	712012	STUDY_ORIENT	n/a	n/a	6	6	POOL	n/a	BREAD	POOL	12	[0, 0, 0]	-999	PAL1	0	R1086M
1395.236	4.0	712445	STUDY_PAIR	n/a	wordpools/wordpool_EN.txt	6	6	POOL	n/a	BREAD	POOL	12	[0, 0, 0]	-999	PAL1	0	R1086M
1399.254	1.0	714454	START	n/a	n/a	-999	-999	n/a	n/a	n/a	n/a	12	[-999, -999, -999]	-999	PAL1	0	R1086M
1400.254	0.016	714954	MATH_START	n/a	n/a	-999	-999	n/a	n/a	n/a	n/a	12	[0, 0, 0]	-999	PAL1	0	R1086M
1400.27	3.317	714962	PROB	3.292	n/a	-999	-999	n/a	n/a	n/a	n/a	12	[1, 2, 7]	10	PAL1	0	R1086M
1403.587	3.601	716620	PROB	3.576	n/a	-999	-999	n/a	n/a	n/a	n/a	12	[1, 9, 3]	13	PAL1	0	R1086M
1407.188	3.318	718421	PROB	3.287	n/a	-999	-999	n/a	n/a	n/a	n/a	12	[8, 8, 5]	21	PAL1	0	R1086M
1410.506	3.684	720080	PROB	3.649	n/a	-999	-999	n/a	n/a	n/a	n/a	12	[9, 2, 2]	13	PAL1	0	R1086M
1414.19	3.734	721922	PROB	3.701	n/a	-999	-999	n/a	n/a	n/a	n/a	12	[9, 1, 8]	18	PAL1	0	R1086M
1417.924	4.263	723788	PROB	4.263	n/a	-999	-999	n/a	n/a	n/a	n/a	12	[8, 2, 4]	16	PAL1	0	R1086M
1422.187	0.004	725920	STOP	n/a	n/a	-999	-999	n/a	n/a	n/a	n/a	12	[-999, -999, -999]	-999	PAL1	0	R1086M
1422.191	0.0	725922	MATH_END	n/a	n/a	-999	-999	n/a	n/a	n/a	n/a	12	[0, 0, 0]	-999	PAL1	0	R1086M
1422.191	0.017	725922	TEST_START	n/a	n/a	-999	-999	n/a	n/a	n/a	n/a	12	[0, 0, 0]	-999	PAL1	0	R1086M
1422.208	0.275	725930	TEST_ORIENT	n/a	n/a	3	1	PIN	n/a	PIN	WALL	12	[0, 0, 0]	-999	PAL1	0	R1086M
1423.025	4.0	726339	TEST_PROBE	n/a	wordpools/wordpool_EN.txt	3	1	PIN	n/a	PIN	WALL	12	[0, 0, 0]	-999	PAL1	0	R1086M
1423.025	0.0	726339	REC_START	n/a	n/a	3	-999	n/a	n/a	n/a	n/a	12	[0, 0, 0]	-999	PAL1	0	R1086M
1423.025	5.017	726339	REC_EVENT	0.0	n/a	3	1	PIN	<>	PIN	WALL	12	[0, 0, 0]	-999	PAL1	0	R1086M
1428.042	0.017	728847	REC_END	n/a	n/a	3	-999	n/a	n/a	n/a	n/a	12	[0, 0, 0]	-999	PAL1	0	R1086M
1428.059	0.275	728856	TEST_ORIENT	n/a	n/a	2	2	WEED	SMOKE	GOAT	WEED	12	[0, 0, 0]	-999	PAL1	0	R1086M
1428.893	4.0	729273	TEST_PROBE	n/a	wordpools/wordpool_EN.txt	2	2	WEED	SMOKE	GOAT	WEED	12	[0, 0, 0]	-999	PAL1	0	R1086M
1428.893	1.541	729273	REC_START	n/a	n/a	2	-999	n/a	SMOKE	n/a	n/a	12	[0, 0, 0]	-999	PAL1	0	R1086M
1430.434	3.476	730043	REC_EVENT	1.541	n/a	2	2	WEED	SMOKE	GOAT	WEED	12	[0, 0, 0]	-999	PAL1	0	R1086M
1433.91	0.017	731781	REC_END	n/a	n/a	2	-999	n/a	n/a	n/a	n/a	12	[0, 0, 0]	-999	PAL1	0	R1086M
1433.927	0.275	731789	TEST_ORIENT	n/a	n/a	5	3	FOG	n/a	MOLE	FOG	12	[0, 0, 0]	-999	PAL1	0	R1086M
1434.743	4.0	732197	TEST_PROBE	n/a	wordpools/wordpool_EN.txt	5	3	FOG	n/a	MOLE	FOG	12	[0, 0, 0]	-999	PAL1	0	R1086M
1434.743	0.0	732197	REC_START	n/a	n/a	5	-999	n/a	n/a	n/a	n/a	12	[0, 0, 0]	-999	PAL1	0	R1086M
1434.743	5.017	732197	REC_EVENT	0.0	n/a	5	3	FOG	<>	MOLE	FOG	12	[0, 0, 0]	-999	PAL1	0	R1086M
1439.76	0.017	734706	REC_END	n/a	n/a	5	-999	n/a	n/a	n/a	n/a	12	[0, 0, 0]	-999	PAL1	0	R1086M
1439.777	0.275	734714	TEST_ORIENT	n/a	n/a	4	4	GOLD	n/a	CAT	GOLD	12	[0, 0, 0]	-999	PAL1	0	R1086M
1440.744	4.0	735198	TEST_PROBE	n/a	wordpools/wordpool_EN.txt	4	4	GOLD	n/a	CAT	GOLD	12	[0, 0, 0]	-999	PAL1	0	R1086M
1440.745	0.0	735198	REC_EVENT	0.0	n/a	4	4	GOLD	<>	CAT	GOLD	12	[0, 0, 0]	-999	PAL1	0	R1086M
1440.745	5.016	735198	REC_START	n/a	n/a	4	-999	n/a	n/a	n/a	n/a	12	[0, 0, 0]	-999	PAL1	0	R1086M
1445.761	0.017	737706	REC_END	n/a	n/a	4	-999	n/a	n/a	n/a	n/a	12	[0, 0, 0]	-999	PAL1	0	R1086M
1445.778	0.275	737714	TEST_ORIENT	n/a	n/a	1	5	SHIP	n/a	GRAPE	SHIP	12	[0, 0, 0]	-999	PAL1	0	R1086M
1446.712	4.0	738181	TEST_PROBE	n/a	wordpools/wordpool_EN.txt	1	5	SHIP	n/a	GRAPE	SHIP	12	[0, 0, 0]	-999	PAL1	0	R1086M
1446.712	0.0	738181	REC_START	n/a	n/a	1	-999	n/a	n/a	n/a	n/a	12	[0, 0, 0]	-999	PAL1	0	R1086M
1446.712	5.017	738181	REC_EVENT	0.0	n/a	1	5	SHIP	<>	GRAPE	SHIP	12	[0, 0, 0]	-999	PAL1	0	R1086M
1451.729	0.017	740690	REC_END	n/a	n/a	1	-999	n/a	n/a	n/a	n/a	12	[0, 0, 0]	-999	PAL1	0	R1086M
1451.746	0.275	740698	TEST_ORIENT	n/a	n/a	6	6	POOL	n/a	BREAD	POOL	12	[0, 0, 0]	-999	PAL1	0	R1086M
1452.713	4.0	741182	TEST_PROBE	n/a	wordpools/wordpool_EN.txt	6	6	POOL	n/a	BREAD	POOL	12	[0, 0, 0]	-999	PAL1	0	R1086M
1452.714	0.0	741182	REC_EVENT	0.0	n/a	6	6	POOL	<>	BREAD	POOL	12	[0, 0, 0]	-999	PAL1	0	R1086M
1452.714	5.016	741182	REC_START	n/a	n/a	6	-999	n/a	n/a	n/a	n/a	12	[0, 0, 0]	-999	PAL1	0	R1086M
1457.73	0.0	743690	REC_END	n/a	n/a	6	-999	n/a	n/a	n/a	n/a	12	[0, 0, 0]	-999	PAL1	0	R1086M
