onset	duration	sample	trial_type	response_time	stim_file	serialpos	probepos	probe_word	resp_word	study_1	study_2	list	test	answer	experiment	session	subject
0.0	58.935	435528	SESS_START	n/a	n/a	-999	-999	n/a	n/a	n/a	n/a	-999	[0, 0, 0]	-999	PAL1	3	R1118N
58.935	1.014	494460	START	n/a	n/a	-999	-999	n/a	n/a	n/a	n/a	-1	[-999, -999, -999]	-999	PAL1	3	R1118N
59.949	7.819	495474	PROB	7791	n/a	-999	-999	n/a	n/a	n/a	n/a	-1	[3, 6, 8]	17	PAL1	3	R1118N
67.768	2.783	503293	PROB	2755	n/a	-999	-999	n/a	n/a	n/a	n/a	-1	[5, 2, 5]	12	PAL1	3	R1118N
70.551	5.601	506076	PROB	5572	n/a	-999	-999	n/a	n/a	n/a	n/a	-1	[7, 8, 6]	17	PAL1	3	R1118N
76.152	2.618	511677	PROB	2596	n/a	-999	-999	n/a	n/a	n/a	n/a	-1	[4, 1, 2]	7	PAL1	3	R1118N
78.77	4.713	514295	PROB	4713	n/a	-999	-999	n/a	n/a	n/a	n/a	-1	[3, 3, 7]	17	PAL1	3	R1118N
83.483	35.843	519008	STOP	n/a	n/a	-999	-999	n/a	n/a	n/a	n/a	-1	[-999, -999, -999]	-999	PAL1	3	R1118N
119.326	33.149	554849	FEEDBACK_SHOW_ALL_PAIRS	n/a	n/a	-999	-999	n/a	n/a	n/a	n/a	-999	[0, 0, 0]	-999	PAL1	3	R1118N
152.475	10.442	587997	ENCODING_START	n/a	n/a	0	-999	n/a	n/a	n/a	n/a	1	[0, 0, 0]	-999	PAL1	3	R1118N
162.917	0.934	598439	STUDY_ORIENT	n/a	n/a	1	1	WEED	CART	SIGN	WEED	1	[0, 0, 0]	-999	PAL1	3	R1118N
163.851	5.034	599373	STUDY_PAIR	n/a	wordpools/wordpool_EN.txt	1	1	WEED	CART	SIGN	WEED	1	[0, 0, 0]	-999	PAL1	3	R1118N
168.885	0.884	604406	STUDY_ORIENT	n/a	n/a	2	4	STOVE	IRON	STOVE	JUICE	1	[0, 0, 0]	-999	PAL1	3	R1118N
169.769	5.034	605290	STUDY_PAIR	n/a	wordpools/wordpool_EN.txt	2	4	STOVE	IRON	STOVE	JUICE	1	[0, 0, 0]	-999	PAL1	3	R1118N
174.803	0.933	610324	STUDY_ORIENT	n/a	n/a	3	5	FLEA	MOUTH	FLEA	HAND	1	[0, 0, 0]	-999	PAL1	3	R1118N
175.736	5.018	611257	STUDY_PAIR	n/a	wordpools/wordpool_EN.txt	3	5	FLEA	MOUTH	FLEA	HAND	1	[0, 0, 0]	-999	PAL1	3	R1118N
180.754	0.949	616275	STUDY_ORIENT	n/a	n/a	4	6	STAIR	IRON	STAIR	MOUTH	1	[0, 0, 0]	-999	PAL1	3	R1118N
181.703	5.035	617224	STUDY_PAIR	n/a	wordpools/wordpool_EN.txt	4	6	STAIR	IRON	STAIR	MOUTH	1	[0, 0, 0]	-999	PAL1	3	R1118N
186.738	0.949	622259	STUDY_ORIENT	n/a	n/a	5	3	FROG	MOUTH	CART	FROG	1	[0, 0, 0]	-999	PAL1	3	R1118N
187.687	5.018	623208	STUDY_PAIR	n/a	wordpools/wordpool_EN.txt	5	3	FROG	MOUTH	CART	FROG	1	[0, 0, 0]	-999	PAL1	3	R1118N
192.705	0.817	628225	STUDY_ORIENT	n/a	n/a	6	2	PHONE	WAGON	PHONE	PARK	1	[0, 0, 0]	-999	PAL1	3	R1118N
193.522	4.017	629042	STUDY_PAIR	n/a	wordpools/wordpool_EN.txt	6	2	PHONE	WAGON	PHONE	PARK	1	[0, 0, 0]	-999	PAL1	3	R1118N
197.539	1.0	633059	START	n/a	n/a	-999	-999	n/a	n/a	n/a	n/a	1	[-999, -999, -999]	-999	PAL1	3	R1118N
198.539	0.017	634059	MATH_START	n/a	n/a	-999	-999	n/a	n/a	n/a	n/a	1	[0, 0, 0]	-999	PAL1	3	R1118N
198.556	16.337	634076	PROB	16304	n/a	-999	-999	n/a	n/a	n/a	n/a	1	[9, 8, 7]	25	PAL1	3	R1118N
214.893	4.278	650413	PROB	4278	n/a	-999	-999	n/a	n/a	n/a	n/a	1	[3, 1, 9]	14	PAL1	3	R1118N
219.171	0.005	654690	STOP	n/a	n/a	-999	-999	n/a	n/a	n/a	n/a	1	[-999, -999, -999]	-999	PAL1	3	R1118N
219.176	0.0	654695	TEST_START	n/a	n/a	-999	-999	n/a	n/a	n/a	n/a	1	[0, 0, 0]	-999	PAL1	3	R1118N
219.176	0.017	654695	MATH_END	n/a	n/a	-999	-999	n/a	n/a	n/a	n/a	1	[0, 0, 0]	-999	PAL1	3	R1118N
219.193	0.916	654712	TEST_ORIENT	n/a	n/a	1	1	WEED	CART	SIGN	WEED	1	[0, 0, 0]	-999	PAL1	3	R1118N
220.109	0.001	655628	TEST_PROBE	n/a	wordpools/wordpool_EN.txt	1	1	WEED	CART	SIGN	WEED	1	[0, 0, 0]	-999	PAL1	3	R1118N
220.11	4.553	655629	REC_START	n/a	n/a	1	-999	n/a	CART	n/a	n/a	1	[0, 0, 0]	-999	PAL1	3	R1118N
224.663	0.455	660182	REC_EVENT	4553	n/a	1	1	WEED	CART	SIGN	WEED	1	[0, 0, 0]	-999	PAL1	3	R1118N
225.118	0.009	660637	REC_END	n/a	n/a	1	-999	n/a	n/a	n/a	n/a	1	[0, 0, 0]	-999	PAL1	3	R1118N
225.127	0.883	660646	TEST_ORIENT	n/a	n/a	6	2	PHONE	WAGON	PHONE	PARK	1	[0, 0, 0]	-999	PAL1	3	R1118N
226.01	0.001	661529	TEST_PROBE	n/a	wordpools/wordpool_EN.txt	6	2	PHONE	WAGON	PHONE	PARK	1	[0, 0, 0]	-999	PAL1	3	R1118N
226.011	3.415	661530	REC_START	n/a	n/a	6	-999	n/a	WAGON	n/a	n/a	1	[0, 0, 0]	-999	PAL1	3	R1118N
229.426	1.585	664945	REC_EVENT	3415	n/a	6	2	PHONE	WAGON	PHONE	PARK	1	[0, 0, 0]	-999	PAL1	3	R1118N
231.011	0.017	666530	REC_END	n/a	n/a	6	-999	n/a	n/a	n/a	n/a	1	[0, 0, 0]	-999	PAL1	3	R1118N
231.028	0.884	666547	TEST_ORIENT	n/a	n/a	5	3	FROG	MOUTH	CART	FROG	1	[0, 0, 0]	-999	PAL1	3	R1118N
231.912	0.001	667431	TEST_PROBE	n/a	wordpools/wordpool_EN.txt	5	3	FROG	MOUTH	CART	FROG	1	[0, 0, 0]	-999	PAL1	3	R1118N
231.913	2.868	667432	REC_START	n/a	n/a	5	-999	n/a	MOUTH	n/a	n/a	1	[0, 0, 0]	-999	PAL1	3	R1118N
234.781	2.14	670300	REC_EVENT	2868	n/a	5	3	FROG	MOUTH	CART	FROG	1	[0, 0, 0]	-999	PAL1	3	R1118N
236.921	0.009	672440	REC_END	n/a	n/a	5	-999	n/a	n/a	n/a	n/a	1	[0, 0, 0]	-999	PAL1	3	R1118N
236.93	0.833	672449	TEST_ORIENT	n/a	n/a	2	4	STOVE	IRON	STOVE	JUICE	1	[0, 0, 0]	-999	PAL1	3	R1118N
237.763	0.001	673282	TEST_PROBE	n/a	wordpools/wordpool_EN.txt	2	4	STOVE	IRON	STOVE	JUICE	1	[0, 0, 0]	-999	PAL1	3	R1118N
237.764	3.735	673283	REC_START	n/a	n/a	2	-999	n/a	IRON	n/a	n/a	1	[0, 0, 0]	-999	PAL1	3	R1118N
241.499	1.273	677018	REC_EVENT	3735	n/a	2	4	STOVE	IRON	STOVE	JUICE	1	[0, 0, 0]	-999	PAL1	3	R1118N
242.772	0.009	678291	REC_END	n/a	n/a	2	-999	n/a	n/a	n/a	n/a	1	[0, 0, 0]	-999	PAL1	3	R1118N
242.781	0.967	678300	TEST_ORIENT	n/a	n/a	3	5	FLEA	MOUTH	FLEA	HAND	1	[0, 0, 0]	-999	PAL1	3	R1118N
243.748	0.0	679267	TEST_PROBE	n/a	wordpools/wordpool_EN.txt	3	5	FLEA	MOUTH	FLEA	HAND	1	[0, 0, 0]	-999	PAL1	3	R1118N
243.748	3.971	679267	REC_START	n/a	n/a	3	-999	n/a	MOUTH	n/a	n/a	1	[0, 0, 0]	-999	PAL1	3	R1118N
247.719	1.046	683237	REC_EVENT	3971	n/a	3	5	FLEA	MOUTH	FLEA	HAND	1	[0, 0, 0]	-999	PAL1	3	R1118N
248.765	0.017	684283	REC_END	n/a	n/a	3	-999	n/a	n/a	n/a	n/a	1	[0, 0, 0]	-999	PAL1	3	R1118N
248.782	0.866	684300	TEST_ORIENT	n/a	n/a	4	6	STAIR	IRON	STAIR	MOUTH	1	[0, 0, 0]	-999	PAL1	3	R1118N
249.648	0.0	685166	REC_START	n/a	n/a	4	-999	n/a	IRON	n/a	n/a	1	[0, 0, 0]	-999	PAL1	3	R1118N
249.648	3.304	685166	TEST_PROBE	n/a	wordpools/wordpool_EN.txt	4	6	STAIR	IRON	STAIR	MOUTH	1	[0, 0, 0]	-999	PAL1	3	R1118N
252.952	1.713	688470	REC_EVENT	3304	n/a	4	6	STAIR	IRON	STAIR	MOUTH	1	[0, 0, 0]	-999	PAL1	3	R1118N
254.665	0.034	690183	REC_END	n/a	n/a	4	-999	n/a	n/a	n/a	n/a	1	[0, 0, 0]	-999	PAL1	3	R1118N
254.699	10.057	690217	FEEDBACK_SHOW_ALL_PAIRS	n/a	n/a	4	-999	n/a	n/a	n/a	n/a	1	[0, 0, 0]	-999	PAL1	3	R1118N
264.756	10.446	700274	ENCODING_START	n/a	n/a	0	-999	n/a	n/a	n/a	n/a	2	[0, 0, 0]	-999	PAL1	3	R1118N
275.202	0.883	710719	STUDY_ORIENT	n/a	n/a	1	1	DART	TICK	DART	KITE	2	[0, 0, 0]	-999	PAL1	3	R1118N
276.085	5.018	711602	STUDY_PAIR	n/a	wordpools/wordpool_EN.txt	1	1	DART	TICK	DART	KITE	2	[0, 0, 0]	-999	PAL1	3	R1118N
281.103	0.85	716620	STUDY_ORIENT	n/a	n/a	2	6	TRAIN	n/a	STICK	TRAIN	2	[0, 0, 0]	-999	PAL1	3	R1118N
281.953	5.034	717470	STUDY_PAIR	n/a	wordpools/wordpool_EN.txt	2	6	TRAIN	n/a	STICK	TRAIN	2	[0, 0, 0]	-999	PAL1	3	R1118N
286.987	0.868	722504	STUDY_ORIENT	n/a	n/a	3	3	SPARK	DART	SPARK	JAIL	2	[0, 0, 0]	-999	PAL1	3	R1118N
287.855	5.034	723372	STUDY_PAIR	n/a	wordpools/wordpool_EN.txt	3	3	SPARK	DART	SPARK	JAIL	2	[0, 0, 0]	-999	PAL1	3	R1118N
292.889	0.934	728406	STUDY_ORIENT	n/a	n/a	4	4	WALL	FLEA	SLUSH	WALL	2	[0, 0, 0]	-999	PAL1	3	R1118N
293.823	5.034	729340	STUDY_PAIR	n/a	wordpools/wordpool_EN.txt	4	4	WALL	FLEA	SLUSH	WALL	2	[0, 0, 0]	-999	PAL1	3	R1118N
298.857	0.884	734374	STUDY_ORIENT	n/a	n/a	5	5	SKI	n/a	SWAMP	SKI	2	[0, 0, 0]	-999	PAL1	3	R1118N
299.741	5.034	735257	STUDY_PAIR	n/a	wordpools/wordpool_EN.txt	5	5	SKI	n/a	SWAMP	SKI	2	[0, 0, 0]	-999	PAL1	3	R1118N
304.775	0.915	740291	STUDY_ORIENT	n/a	n/a	6	2	TREE	MOUTH	STORM	TREE	2	[0, 0, 0]	-999	PAL1	3	R1118N
305.69	4.001	741206	STUDY_PAIR	n/a	wordpools/wordpool_EN.txt	6	2	TREE	MOUTH	STORM	TREE	2	[0, 0, 0]	-999	PAL1	3	R1118N
309.691	1.0	745207	START	n/a	n/a	-999	-999	n/a	n/a	n/a	n/a	2	[-999, -999, -999]	-999	PAL1	3	R1118N
310.691	0.017	746207	MATH_START	n/a	n/a	-999	-999	n/a	n/a	n/a	n/a	2	[0, 0, 0]	-999	PAL1	3	R1118N
310.708	5.202	746224	PROB	5168	n/a	-999	-999	n/a	n/a	n/a	n/a	2	[8, 4, 1]	13	PAL1	3	R1118N
315.91	4.901	751426	PROB	4870	n/a	-999	-999	n/a	n/a	n/a	n/a	2	[6, 3, 5]	14	PAL1	3	R1118N
320.811	4.466	756327	PROB	4432	n/a	-999	-999	n/a	n/a	n/a	n/a	2	[7, 3, 9]	19	PAL1	3	R1118N
325.277	2.951	760793	PROB	2926	n/a	-999	-999	n/a	n/a	n/a	n/a	2	[9, 4, 6]	19	PAL1	3	R1118N
328.228	5.568	763743	PROB	5568	n/a	-999	-999	n/a	n/a	n/a	n/a	2	[5, 9, 4]	18	PAL1	3	R1118N
333.796	0.017	769311	STOP	n/a	n/a	-999	-999	n/a	n/a	n/a	n/a	2	[-999, -999, -999]	-999	PAL1	3	R1118N
333.813	0.0	769328	MATH_END	n/a	n/a	-999	-999	n/a	n/a	n/a	n/a	2	[0, 0, 0]	-999	PAL1	3	R1118N
333.813	0.017	769328	TEST_START	n/a	n/a	-999	-999	n/a	n/a	n/a	n/a	2	[0, 0, 0]	-999	PAL1	3	R1118N
333.83	0.899	769345	TEST_ORIENT	n/a	n/a	1	1	DART	TICK	DART	KITE	2	[0, 0, 0]	-999	PAL1	3	R1118N
334.729	0.001	770244	TEST_PROBE	n/a	wordpools/wordpool_EN.txt	1	1	DART	TICK	DART	KITE	2	[0, 0, 0]	-999	PAL1	3	R1118N
334.73	3.939	770245	REC_START	n/a	n/a	1	-999	n/a	TICK	n/a	n/a	2	[0, 0, 0]	-999	PAL1	3	R1118N
338.669	1.061	774184	REC_EVENT	3939	n/a	1	1	DART	TICK	DART	KITE	2	[0, 0, 0]	-999	PAL1	3	R1118N
339.73	0.017	775245	REC_END	n/a	n/a	1	-999	n/a	n/a	n/a	n/a	2	[0, 0, 0]	-999	PAL1	3	R1118N
339.747	1.0	775262	TEST_ORIENT	n/a	n/a	6	2	TREE	MOUTH	STORM	TREE	2	[0, 0, 0]	-999	PAL1	3	R1118N
340.747	0.001	776262	TEST_PROBE	n/a	wordpools/wordpool_EN.txt	6	2	TREE	MOUTH	STORM	TREE	2	[0, 0, 0]	-999	PAL1	3	R1118N
340.748	2.358	776263	REC_START	n/a	n/a	6	-999	n/a	MOUTH	n/a	n/a	2	[0, 0, 0]	-999	PAL1	3	R1118N
343.106	2.65	778621	REC_EVENT	2358	n/a	6	2	TREE	MOUTH	STORM	TREE	2	[0, 0, 0]	-999	PAL1	3	R1118N
345.756	0.009	781271	REC_END	n/a	n/a	6	-999	n/a	n/a	n/a	n/a	2	[0, 0, 0]	-999	PAL1	3	R1118N
345.765	0.849	781280	TEST_ORIENT	n/a	n/a	3	3	SPARK	DART	SPARK	JAIL	2	[0, 0, 0]	-999	PAL1	3	R1118N
346.614	0.001	782129	TEST_PROBE	n/a	wordpools/wordpool_EN.txt	3	3	SPARK	DART	SPARK	JAIL	2	[0, 0, 0]	-999	PAL1	3	R1118N
346.615	3.55	782130	REC_START	n/a	n/a	3	-999	n/a	DART	n/a	n/a	2	[0, 0, 0]	-999	PAL1	3	R1118N
350.165	1.466	785680	REC_EVENT	3550	n/a	3	3	SPARK	DART	SPARK	JAIL	2	[0, 0, 0]	-999	PAL1	3	R1118N
351.631	0.017	787146	REC_END	n/a	n/a	3	-999	n/a	n/a	n/a	n/a	2	[0, 0, 0]	-999	PAL1	3	R1118N
351.648	0.9	787163	TEST_ORIENT	n/a	n/a	4	4	WALL	FLEA	SLUSH	WALL	2	[0, 0, 0]	-999	PAL1	3	R1118N
352.548	0.001	788063	TEST_PROBE	n/a	wordpools/wordpool_EN.txt	4	4	WALL	FLEA	SLUSH	WALL	2	[0, 0, 0]	-999	PAL1	3	R1118N
352.549	1.876	788064	REC_START	n/a	n/a	4	-999	n/a	FLEA	n/a	n/a	2	[0, 0, 0]	-999	PAL1	3	R1118N
354.425	3.131	789939	REC_EVENT	1876	n/a	4	4	WALL	FLEA	SLUSH	WALL	2	[0, 0, 0]	-999	PAL1	3	R1118N
357.556	0.01	793070	REC_END	n/a	n/a	4	-999	n/a	n/a	n/a	n/a	2	[0, 0, 0]	-999	PAL1	3	R1118N
357.566	1.0	793080	TEST_ORIENT	n/a	n/a	5	5	SKI	n/a	SWAMP	SKI	2	[0, 0, 0]	-999	PAL1	3	R1118N
358.566	0.001	794080	TEST_PROBE	n/a	wordpools/wordpool_EN.txt	5	5	SKI	n/a	SWAMP	SKI	2	[0, 0, 0]	-999	PAL1	3	R1118N
358.567	5.015	794081	REC_START	n/a	n/a	5	-999	n/a	n/a	n/a	n/a	2	[0, 0, 0]	-999	PAL1	3	R1118N
363.582	0.001	799096	REC_EVENT	5015	n/a	5	5	SKI	<>	SWAMP	SKI	2	[0, 0, 0]	-999	PAL1	3	R1118N
363.583	0.017	799097	REC_END	n/a	n/a	5	-999	n/a	n/a	n/a	n/a	2	[0, 0, 0]	-999	PAL1	3	R1118N
363.6	0.85	799114	TEST_ORIENT	n/a	n/a	2	6	TRAIN	n/a	STICK	TRAIN	2	[0, 0, 0]	-999	PAL1	3	R1118N
364.45	0.001	799964	TEST_PROBE	n/a	wordpools/wordpool_EN.txt	2	6	TRAIN	n/a	STICK	TRAIN	2	[0, 0, 0]	-999	PAL1	3	R1118N
364.451	3.22	799965	REC_START	n/a	n/a	2	-999	n/a	n/a	n/a	n/a	2	[0, 0, 0]	-999	PAL1	3	R1118N
367.671	1.788	803185	REC_EVENT	3220	n/a	2	6	TRAIN	<>	STICK	TRAIN	2	[0, 0, 0]	-999	PAL1	3	R1118N
369.459	0.026	804973	REC_END	n/a	n/a	2	-999	n/a	n/a	n/a	n/a	2	[0, 0, 0]	-999	PAL1	3	R1118N
369.485	10.598	804999	FEEDBACK_SHOW_ALL_PAIRS	n/a	n/a	2	-999	n/a	n/a	n/a	n/a	2	[0, 0, 0]	-999	PAL1	3	R1118N
380.083	10.439	815596	ENCODING_START	n/a	n/a	0	-999	n/a	n/a	n/a	n/a	3	[0, 0, 0]	-999	PAL1	3	R1118N
390.522	1.0	826035	STUDY_ORIENT	n/a	n/a	1	5	PIPE	SHEEP	PIPE	SHELL	3	[0, 0, 0]	-999	PAL1	3	R1118N
391.522	5.034	827035	STUDY_PAIR	n/a	wordpools/wordpool_EN.txt	1	5	PIPE	SHEEP	PIPE	SHELL	3	[0, 0, 0]	-999	PAL1	3	R1118N
396.556	0.933	832069	STUDY_ORIENT	n/a	n/a	2	2	NOSE	SAIL	NOSE	SAIL	3	[0, 0, 0]	-999	PAL1	3	R1118N
397.489	5.018	833002	STUDY_PAIR	n/a	wordpools/wordpool_EN.txt	2	2	NOSE	SAIL	NOSE	SAIL	3	[0, 0, 0]	-999	PAL1	3	R1118N
402.507	0.85	838020	STUDY_ORIENT	n/a	n/a	3	1	BENCH	CHALK	BENCH	CHALK	3	[0, 0, 0]	-999	PAL1	3	R1118N
403.357	5.034	838870	STUDY_PAIR	n/a	wordpools/wordpool_EN.txt	3	1	BENCH	CHALK	BENCH	CHALK	3	[0, 0, 0]	-999	PAL1	3	R1118N
408.391	0.8	843903	STUDY_ORIENT	n/a	n/a	4	6	CAGE	NOSE	JUDGE	CAGE	3	[0, 0, 0]	-999	PAL1	3	R1118N
409.191	5.018	844703	STUDY_PAIR	n/a	wordpools/wordpool_EN.txt	4	6	CAGE	NOSE	JUDGE	CAGE	3	[0, 0, 0]	-999	PAL1	3	R1118N
414.209	0.8	849721	STUDY_ORIENT	n/a	n/a	5	3	SWORD	SHEEP	SWORD	SHEEP	3	[0, 0, 0]	-999	PAL1	3	R1118N
415.009	5.034	850521	STUDY_PAIR	n/a	wordpools/wordpool_EN.txt	5	3	SWORD	SHEEP	SWORD	SHEEP	3	[0, 0, 0]	-999	PAL1	3	R1118N
420.043	0.9	855555	STUDY_ORIENT	n/a	n/a	6	4	GOLD	DUCK	GOLD	DUCK	3	[0, 0, 0]	-999	PAL1	3	R1118N
420.943	4.001	856455	STUDY_PAIR	n/a	wordpools/wordpool_EN.txt	6	4	GOLD	DUCK	GOLD	DUCK	3	[0, 0, 0]	-999	PAL1	3	R1118N
424.944	1.0	860456	START	n/a	n/a	-999	-999	n/a	n/a	n/a	n/a	3	[-999, -999, -999]	-999	PAL1	3	R1118N
425.944	0.017	861456	MATH_START	n/a	n/a	-999	-999	n/a	n/a	n/a	n/a	3	[0, 0, 0]	-999	PAL1	3	R1118N
425.961	9.218	861473	PROB	9186	n/a	-999	-999	n/a	n/a	n/a	n/a	3	[4, 9, 2]	14	PAL1	3	R1118N
435.179	8.035	870690	PROB	8008	n/a	-999	-999	n/a	n/a	n/a	n/a	3	[5, 1, 8]	15	PAL1	3	R1118N
443.214	2.093	878725	PROB	2093	n/a	-999	-999	n/a	n/a	n/a	n/a	3	[7, 1, 3]	11	PAL1	3	R1118N
445.307	0.007	880818	STOP	n/a	n/a	-999	-999	n/a	n/a	n/a	n/a	3	[-999, -999, -999]	-999	PAL1	3	R1118N
445.314	0.0	880825	MATH_END	n/a	n/a	-999	-999	n/a	n/a	n/a	n/a	3	[0, 0, 0]	-999	PAL1	3	R1118N
445.314	0.017	880825	TEST_START	n/a	n/a	-999	-999	n/a	n/a	n/a	n/a	3	[0, 0, 0]	-999	PAL1	3	R1118N
445.331	0.883	880842	TEST_ORIENT	n/a	n/a	3	1	BENCH	CHALK	BENCH	CHALK	3	[0, 0, 0]	-999	PAL1	3	R1118N
446.214	0.001	881725	TEST_PROBE	n/a	wordpools/wordpool_EN.txt	3	1	BENCH	CHALK	BENCH	CHALK	3	[0, 0, 0]	-999	PAL1	3	R1118N
446.215	1.686	881726	REC_START	n/a	n/a	3	-999	n/a	CHALK	n/a	n/a	3	[0, 0, 0]	-999	PAL1	3	R1118N
447.901	3.322	883412	REC_EVENT	1686	n/a	3	1	BENCH	CHALK	BENCH	CHALK	3	[0, 0, 0]	-999	PAL1	3	R1118N
451.223	0.009	886734	REC_END	n/a	n/a	3	-999	n/a	n/a	n/a	n/a	3	[0, 0, 0]	-999	PAL1	3	R1118N
451.232	0.816	886743	TEST_ORIENT	n/a	n/a	2	2	NOSE	SAIL	NOSE	SAIL	3	[0, 0, 0]	-999	PAL1	3	R1118N
452.048	0.001	887559	TEST_PROBE	n/a	wordpools/wordpool_EN.txt	2	2	NOSE	SAIL	NOSE	SAIL	3	[0, 0, 0]	-999	PAL1	3	R1118N
452.049	1.216	887560	REC_START	n/a	n/a	2	-999	n/a	SAIL	n/a	n/a	3	[0, 0, 0]	-999	PAL1	3	R1118N
453.265	3.792	888776	REC_EVENT	1216	n/a	2	2	NOSE	SAIL	NOSE	SAIL	3	[0, 0, 0]	-999	PAL1	3	R1118N
457.057	0.009	892568	REC_END	n/a	n/a	2	-999	n/a	n/a	n/a	n/a	3	[0, 0, 0]	-999	PAL1	3	R1118N
457.066	0.851	892577	TEST_ORIENT	n/a	n/a	5	3	SWORD	SHEEP	SWORD	SHEEP	3	[0, 0, 0]	-999	PAL1	3	R1118N
457.917	0.001	893428	TEST_PROBE	n/a	wordpools/wordpool_EN.txt	5	3	SWORD	SHEEP	SWORD	SHEEP	3	[0, 0, 0]	-999	PAL1	3	R1118N
457.918	2.897	893429	REC_START	n/a	n/a	5	-999	n/a	SHEEP	n/a	n/a	3	[0, 0, 0]	-999	PAL1	3	R1118N
460.815	2.11	896325	REC_EVENT	2897	n/a	5	3	SWORD	SHEEP	SWORD	SHEEP	3	[0, 0, 0]	-999	PAL1	3	R1118N
462.925	0.01	898435	REC_END	n/a	n/a	5	-999	n/a	n/a	n/a	n/a	3	[0, 0, 0]	-999	PAL1	3	R1118N
462.935	0.833	898445	TEST_ORIENT	n/a	n/a	6	4	GOLD	DUCK	GOLD	DUCK	3	[0, 0, 0]	-999	PAL1	3	R1118N
463.768	0.001	899278	TEST_PROBE	n/a	wordpools/wordpool_EN.txt	6	4	GOLD	DUCK	GOLD	DUCK	3	[0, 0, 0]	-999	PAL1	3	R1118N
463.769	1.402	899279	REC_START	n/a	n/a	6	-999	n/a	DUCK	n/a	n/a	3	[0, 0, 0]	-999	PAL1	3	R1118N
465.171	3.622	900681	REC_EVENT	1402	n/a	6	4	GOLD	DUCK	GOLD	DUCK	3	[0, 0, 0]	-999	PAL1	3	R1118N
468.793	0.009	904303	REC_END	n/a	n/a	6	-999	n/a	n/a	n/a	n/a	3	[0, 0, 0]	-999	PAL1	3	R1118N
468.802	0.9	904312	TEST_ORIENT	n/a	n/a	1	5	PIPE	SHEEP	PIPE	SHELL	3	[0, 0, 0]	-999	PAL1	3	R1118N
469.702	0.0	905212	TEST_PROBE	n/a	wordpools/wordpool_EN.txt	1	5	PIPE	SHEEP	PIPE	SHELL	3	[0, 0, 0]	-999	PAL1	3	R1118N
469.702	2.922	905212	REC_START	n/a	n/a	1	-999	n/a	SHEEP	n/a	n/a	3	[0, 0, 0]	-999	PAL1	3	R1118N
472.624	2.096	908134	REC_EVENT	2922	n/a	1	5	PIPE	SHEEP	PIPE	SHELL	3	[0, 0, 0]	-999	PAL1	3	R1118N
474.72	0.017	910230	REC_END	n/a	n/a	1	-999	n/a	n/a	n/a	n/a	3	[0, 0, 0]	-999	PAL1	3	R1118N
474.737	0.932	910247	TEST_ORIENT	n/a	n/a	4	6	CAGE	NOSE	JUDGE	CAGE	3	[0, 0, 0]	-999	PAL1	3	R1118N
475.669	0.001	911179	TEST_PROBE	n/a	wordpools/wordpool_EN.txt	4	6	CAGE	NOSE	JUDGE	CAGE	3	[0, 0, 0]	-999	PAL1	3	R1118N
475.67	3.086	911180	REC_START	n/a	n/a	4	-999	n/a	NOSE	n/a	n/a	3	[0, 0, 0]	-999	PAL1	3	R1118N
478.756	1.921	914266	REC_EVENT	3086	n/a	4	6	CAGE	NOSE	JUDGE	CAGE	3	[0, 0, 0]	-999	PAL1	3	R1118N
480.677	0.026	916187	REC_END	n/a	n/a	4	-999	n/a	n/a	n/a	n/a	3	[0, 0, 0]	-999	PAL1	3	R1118N
480.703	14.252	916213	FEEDBACK_SHOW_ALL_PAIRS	n/a	n/a	4	-999	n/a	n/a	n/a	n/a	3	[0, 0, 0]	-999	PAL1	3	R1118N
494.955	10.453	930464	ENCODING_START	n/a	n/a	0	-999	n/a	n/a	n/a	n/a	4	[0, 0, 0]	-999	PAL1	3	R1118N
505.408	0.85	940917	STUDY_ORIENT	n/a	n/a	1	5	BOAT	DOCK	FLAME	BOAT	4	[0, 0, 0]	-999	PAL1	3	R1118N
506.258	5.034	941767	STUDY_PAIR	n/a	wordpools/wordpool_EN.txt	1	5	BOAT	DOCK	FLAME	BOAT	4	[0, 0, 0]	-999	PAL1	3	R1118N
511.292	0.9	946801	STUDY_ORIENT	n/a	n/a	2	2	WING	SAIL	WING	STOOL	4	[0, 0, 0]	-999	PAL1	3	R1118N
512.192	5.034	947701	STUDY_PAIR	n/a	wordpools/wordpool_EN.txt	2	2	WING	SAIL	WING	STOOL	4	[0, 0, 0]	-999	PAL1	3	R1118N
517.226	0.834	952734	STUDY_ORIENT	n/a	n/a	3	1	CRANE	MOON	RICE	CRANE	4	[0, 0, 0]	-999	PAL1	3	R1118N
518.06	5.034	953568	STUDY_PAIR	n/a	wordpools/wordpool_EN.txt	3	1	CRANE	MOON	RICE	CRANE	4	[0, 0, 0]	-999	PAL1	3	R1118N
523.094	0.917	958602	STUDY_ORIENT	n/a	n/a	4	6	FARM	n/a	MUG	FARM	4	[0, 0, 0]	-999	PAL1	3	R1118N
524.011	5.034	959519	STUDY_PAIR	n/a	wordpools/wordpool_EN.txt	4	6	FARM	n/a	MUG	FARM	4	[0, 0, 0]	-999	PAL1	3	R1118N
529.045	1.017	964553	STUDY_ORIENT	n/a	n/a	5	3	DRESS	BARN	DRESS	CHEEK	4	[0, 0, 0]	-999	PAL1	3	R1118N
530.062	5.034	965570	STUDY_PAIR	n/a	wordpools/wordpool_EN.txt	5	3	DRESS	BARN	DRESS	CHEEK	4	[0, 0, 0]	-999	PAL1	3	R1118N
535.096	0.834	970604	STUDY_ORIENT	n/a	n/a	6	4	MOON	FLAME	MOON	BOY	4	[0, 0, 0]	-999	PAL1	3	R1118N
535.93	4.001	971438	STUDY_PAIR	n/a	wordpools/wordpool_EN.txt	6	4	MOON	FLAME	MOON	BOY	4	[0, 0, 0]	-999	PAL1	3	R1118N
539.931	1.0	975439	START	n/a	n/a	-999	-999	n/a	n/a	n/a	n/a	4	[-999, -999, -999]	-999	PAL1	3	R1118N
540.931	0.016	976438	MATH_START	n/a	n/a	-999	-999	n/a	n/a	n/a	n/a	4	[0, 0, 0]	-999	PAL1	3	R1118N
540.947	5.935	976454	PROB	5905	n/a	-999	-999	n/a	n/a	n/a	n/a	4	[1, 8, 4]	13	PAL1	3	R1118N
546.882	3.934	982389	PROB	3906	n/a	-999	-999	n/a	n/a	n/a	n/a	4	[9, 6, 3]	18	PAL1	3	R1118N
550.816	6.467	986323	PROB	6435	n/a	-999	-999	n/a	n/a	n/a	n/a	4	[7, 2, 4]	13	PAL1	3	R1118N
557.283	3.617	992790	PROB	3617	n/a	-999	-999	n/a	n/a	n/a	n/a	4	[8, 5, 3]	16	PAL1	3	R1118N
560.9	0.018	996407	STOP	n/a	n/a	-999	-999	n/a	n/a	n/a	n/a	4	[-999, -999, -999]	-999	PAL1	3	R1118N
560.918	0.0	996425	MATH_END	n/a	n/a	-999	-999	n/a	n/a	n/a	n/a	4	[0, 0, 0]	-999	PAL1	3	R1118N
560.918	0.017	996425	TEST_START	n/a	n/a	-999	-999	n/a	n/a	n/a	n/a	4	[0, 0, 0]	-999	PAL1	3	R1118N
560.935	0.95	996442	TEST_ORIENT	n/a	n/a	3	1	CRANE	MOON	RICE	CRANE	4	[0, 0, 0]	-999	PAL1	3	R1118N
561.885	0.0	997392	TEST_PROBE	n/a	wordpools/wordpool_EN.txt	3	1	CRANE	MOON	RICE	CRANE	4	[0, 0, 0]	-999	PAL1	3	R1118N
561.885	3.682	997392	REC_START	n/a	n/a	3	-999	n/a	MOON	n/a	n/a	4	[0, 0, 0]	-999	PAL1	3	R1118N
565.567	1.335	1001074	REC_EVENT	3682	n/a	3	1	CRANE	MOON	RICE	CRANE	4	[0, 0, 0]	-999	PAL1	3	R1118N
566.902	0.017	1002409	REC_END	n/a	n/a	3	-999	n/a	n/a	n/a	n/a	4	[0, 0, 0]	-999	PAL1	3	R1118N
566.919	1.016	1002426	TEST_ORIENT	n/a	n/a	2	2	WING	SAIL	WING	STOOL	4	[0, 0, 0]	-999	PAL1	3	R1118N
567.935	0.0	1003441	TEST_PROBE	n/a	wordpools/wordpool_EN.txt	2	2	WING	SAIL	WING	STOOL	4	[0, 0, 0]	-999	PAL1	3	R1118N
567.935	2.768	1003441	REC_START	n/a	n/a	2	-999	n/a	SAIL	n/a	n/a	4	[0, 0, 0]	-999	PAL1	3	R1118N
570.703	2.249	1006209	REC_EVENT	2768	n/a	2	2	WING	SAIL	WING	STOOL	4	[0, 0, 0]	-999	PAL1	3	R1118N
572.952	0.017	1008458	REC_END	n/a	n/a	2	-999	n/a	n/a	n/a	n/a	4	[0, 0, 0]	-999	PAL1	3	R1118N
572.969	0.868	1008475	TEST_ORIENT	n/a	n/a	5	3	DRESS	BARN	DRESS	CHEEK	4	[0, 0, 0]	-999	PAL1	3	R1118N
573.837	0.0	1009343	TEST_PROBE	n/a	wordpools/wordpool_EN.txt	5	3	DRESS	BARN	DRESS	CHEEK	4	[0, 0, 0]	-999	PAL1	3	R1118N
573.837	2.916	1009343	REC_START	n/a	n/a	5	-999	n/a	BARN	n/a	n/a	4	[0, 0, 0]	-999	PAL1	3	R1118N
576.753	2.101	1012259	REC_EVENT	2916	n/a	5	3	DRESS	BARN	DRESS	CHEEK	4	[0, 0, 0]	-999	PAL1	3	R1118N
578.854	0.017	1014360	REC_END	n/a	n/a	5	-999	n/a	n/a	n/a	n/a	4	[0, 0, 0]	-999	PAL1	3	R1118N
578.871	0.816	1014377	TEST_ORIENT	n/a	n/a	6	4	MOON	FLAME	MOON	BOY	4	[0, 0, 0]	-999	PAL1	3	R1118N
579.687	0.0	1015193	TEST_PROBE	n/a	wordpools/wordpool_EN.txt	6	4	MOON	FLAME	MOON	BOY	4	[0, 0, 0]	-999	PAL1	3	R1118N
579.687	2.515	1015193	REC_START	n/a	n/a	6	-999	n/a	FLAME	n/a	n/a	4	[0, 0, 0]	-999	PAL1	3	R1118N
582.202	2.502	1017708	REC_EVENT	2515	n/a	6	4	MOON	FLAME	MOON	BOY	4	[0, 0, 0]	-999	PAL1	3	R1118N
584.704	0.018	1020210	REC_END	n/a	n/a	6	-999	n/a	n/a	n/a	n/a	4	[0, 0, 0]	-999	PAL1	3	R1118N
584.722	1.034	1020228	TEST_ORIENT	n/a	n/a	1	5	BOAT	DOCK	FLAME	BOAT	4	[0, 0, 0]	-999	PAL1	3	R1118N
585.756	0.0	1021262	TEST_PROBE	n/a	wordpools/wordpool_EN.txt	1	5	BOAT	DOCK	FLAME	BOAT	4	[0, 0, 0]	-999	PAL1	3	R1118N
585.756	3.503	1021262	REC_START	n/a	n/a	1	-999	n/a	DOCK	n/a	n/a	4	[0, 0, 0]	-999	PAL1	3	R1118N
589.259	1.514	1024765	REC_EVENT	3503	n/a	1	5	BOAT	DOCK	FLAME	BOAT	4	[0, 0, 0]	-999	PAL1	3	R1118N
590.773	0.017	1026279	REC_END	n/a	n/a	1	-999	n/a	n/a	n/a	n/a	4	[0, 0, 0]	-999	PAL1	3	R1118N
590.79	0.899	1026296	TEST_ORIENT	n/a	n/a	4	6	FARM	n/a	MUG	FARM	4	[0, 0, 0]	-999	PAL1	3	R1118N
591.689	0.0	1027195	TEST_PROBE	n/a	wordpools/wordpool_EN.txt	4	6	FARM	n/a	MUG	FARM	4	[0, 0, 0]	-999	PAL1	3	R1118N
591.689	3.228	1027195	REC_START	n/a	n/a	4	-999	n/a	n/a	n/a	n/a	4	[0, 0, 0]	-999	PAL1	3	R1118N
594.917	1.789	1030422	REC_EVENT	3228	n/a	4	6	FARM	<>	MUG	FARM	4	[0, 0, 0]	-999	PAL1	3	R1118N
596.706	0.035	1032211	REC_END	n/a	n/a	4	-999	n/a	n/a	n/a	n/a	4	[0, 0, 0]	-999	PAL1	3	R1118N
596.741	9.614	1032246	FEEDBACK_SHOW_ALL_PAIRS	n/a	n/a	4	-999	n/a	n/a	n/a	n/a	4	[0, 0, 0]	-999	PAL1	3	R1118N
606.355	10.439	1041860	ENCODING_START	n/a	n/a	0	-999	n/a	n/a	n/a	n/a	5	[0, 0, 0]	-999	PAL1	3	R1118N
616.794	1.0	1052299	STUDY_ORIENT	n/a	n/a	1	1	GUARD	BRUSH	BRUSH	GUARD	5	[0, 0, 0]	-999	PAL1	3	R1118N
617.794	5.018	1053299	STUDY_PAIR	n/a	wordpools/wordpool_EN.txt	1	1	GUARD	BRUSH	BRUSH	GUARD	5	[0, 0, 0]	-999	PAL1	3	R1118N
622.812	0.933	1058316	STUDY_ORIENT	n/a	n/a	2	6	ROPE	n/a	ROPE	PEN	5	[0, 0, 0]	-999	PAL1	3	R1118N
623.745	5.018	1059249	STUDY_PAIR	n/a	wordpools/wordpool_EN.txt	2	6	ROPE	n/a	ROPE	PEN	5	[0, 0, 0]	-999	PAL1	3	R1118N
628.763	0.816	1064267	STUDY_ORIENT	n/a	n/a	3	5	THUMB	n/a	CAVE	THUMB	5	[0, 0, 0]	-999	PAL1	3	R1118N
629.579	5.034	1065083	STUDY_PAIR	n/a	wordpools/wordpool_EN.txt	3	5	THUMB	n/a	CAVE	THUMB	5	[0, 0, 0]	-999	PAL1	3	R1118N
634.613	0.8	1070117	STUDY_ORIENT	n/a	n/a	4	4	PEARL	GUARD	EEL	PEARL	5	[0, 0, 0]	-999	PAL1	3	R1118N
635.413	5.034	1070917	STUDY_PAIR	n/a	wordpools/wordpool_EN.txt	4	4	PEARL	GUARD	EEL	PEARL	5	[0, 0, 0]	-999	PAL1	3	R1118N
640.447	0.85	1075951	STUDY_ORIENT	n/a	n/a	5	3	MAP	FAN	FAN	MAP	5	[0, 0, 0]	-999	PAL1	3	R1118N
641.297	5.018	1076801	STUDY_PAIR	n/a	wordpools/wordpool_EN.txt	5	3	MAP	FAN	FAN	MAP	5	[0, 0, 0]	-999	PAL1	3	R1118N
646.315	0.85	1081819	STUDY_ORIENT	n/a	n/a	6	2	MILK	SAIL	MILK	TENT	5	[0, 0, 0]	-999	PAL1	3	R1118N
647.165	4.018	1082669	STUDY_PAIR	n/a	wordpools/wordpool_EN.txt	6	2	MILK	SAIL	MILK	TENT	5	[0, 0, 0]	-999	PAL1	3	R1118N
651.183	0.999	1086686	START	n/a	n/a	-999	-999	n/a	n/a	n/a	n/a	5	[-999, -999, -999]	-999	PAL1	3	R1118N
652.182	0.017	1087685	MATH_START	n/a	n/a	-999	-999	n/a	n/a	n/a	n/a	5	[0, 0, 0]	-999	PAL1	3	R1118N
652.199	5.602	1087702	PROB	5573	n/a	-999	-999	n/a	n/a	n/a	n/a	5	[3, 5, 6]	14	PAL1	3	R1118N
657.801	6.433	1093304	PROB	6410	n/a	-999	-999	n/a	n/a	n/a	n/a	5	[2, 5, 8]	15	PAL1	3	R1118N
664.234	4.669	1099737	PROB	4634	n/a	-999	-999	n/a	n/a	n/a	n/a	5	[6, 1, 8]	17	PAL1	3	R1118N
668.903	2.283	1104406	PROB	2260	n/a	-999	-999	n/a	n/a	n/a	n/a	5	[4, 1, 5]	10	PAL1	3	R1118N
671.186	4.441	1106689	PROB	4441	n/a	-999	-999	n/a	n/a	n/a	n/a	5	[3, 4, 4]	11	PAL1	3	R1118N
675.627	0.009	1111129	STOP	n/a	n/a	-999	-999	n/a	n/a	n/a	n/a	5	[-999, -999, -999]	-999	PAL1	3	R1118N
675.636	0.0	1111138	MATH_END	n/a	n/a	-999	-999	n/a	n/a	n/a	n/a	5	[0, 0, 0]	-999	PAL1	3	R1118N
675.636	0.017	1111138	TEST_START	n/a	n/a	-999	-999	n/a	n/a	n/a	n/a	5	[0, 0, 0]	-999	PAL1	3	R1118N
675.653	0.967	1111155	TEST_ORIENT	n/a	n/a	1	1	GUARD	BRUSH	BRUSH	GUARD	5	[0, 0, 0]	-999	PAL1	3	R1118N
676.62	0.001	1112122	TEST_PROBE	n/a	wordpools/wordpool_EN.txt	1	1	GUARD	BRUSH	BRUSH	GUARD	5	[0, 0, 0]	-999	PAL1	3	R1118N
676.621	1.494	1112123	REC_START	n/a	n/a	1	-999	n/a	BRUSH	n/a	n/a	5	[0, 0, 0]	-999	PAL1	3	R1118N
678.115	3.531	1113617	REC_EVENT	1494	n/a	1	1	GUARD	BRUSH	BRUSH	GUARD	5	[0, 0, 0]	-999	PAL1	3	R1118N
681.646	0.008	1117148	REC_END	n/a	n/a	1	-999	n/a	n/a	n/a	n/a	5	[0, 0, 0]	-999	PAL1	3	R1118N
681.654	1.0	1117156	TEST_ORIENT	n/a	n/a	6	2	MILK	SAIL	MILK	TENT	5	[0, 0, 0]	-999	PAL1	3	R1118N
682.654	0.001	1118156	TEST_PROBE	n/a	wordpools/wordpool_EN.txt	6	2	MILK	SAIL	MILK	TENT	5	[0, 0, 0]	-999	PAL1	3	R1118N
682.655	2.742	1118157	REC_START	n/a	n/a	6	-999	n/a	SAIL	n/a	n/a	5	[0, 0, 0]	-999	PAL1	3	R1118N
685.397	2.267	1120899	REC_EVENT	2742	n/a	6	2	MILK	SAIL	MILK	TENT	5	[0, 0, 0]	-999	PAL1	3	R1118N
687.664	0.008	1123166	REC_END	n/a	n/a	6	-999	n/a	n/a	n/a	n/a	5	[0, 0, 0]	-999	PAL1	3	R1118N
687.672	0.85	1123174	TEST_ORIENT	n/a	n/a	5	3	MAP	FAN	FAN	MAP	5	[0, 0, 0]	-999	PAL1	3	R1118N
688.522	0.0	1124024	TEST_PROBE	n/a	wordpools/wordpool_EN.txt	5	3	MAP	FAN	FAN	MAP	5	[0, 0, 0]	-999	PAL1	3	R1118N
688.522	1.965	1124024	REC_START	n/a	n/a	5	-999	n/a	FAN	n/a	n/a	5	[0, 0, 0]	-999	PAL1	3	R1118N
690.487	3.052	1125989	REC_EVENT	1965	n/a	5	3	MAP	FAN	FAN	MAP	5	[0, 0, 0]	-999	PAL1	3	R1118N
693.539	0.017	1129041	REC_END	n/a	n/a	5	-999	n/a	n/a	n/a	n/a	5	[0, 0, 0]	-999	PAL1	3	R1118N
693.556	0.85	1129058	TEST_ORIENT	n/a	n/a	4	4	PEARL	GUARD	EEL	PEARL	5	[0, 0, 0]	-999	PAL1	3	R1118N
694.406	0.001	1129908	TEST_PROBE	n/a	wordpools/wordpool_EN.txt	4	4	PEARL	GUARD	EEL	PEARL	5	[0, 0, 0]	-999	PAL1	3	R1118N
694.407	3.369	1129909	REC_START	n/a	n/a	4	-999	n/a	GUARD	n/a	n/a	5	[0, 0, 0]	-999	PAL1	3	R1118N
697.776	1.631	1133278	REC_EVENT	3369	n/a	4	4	PEARL	GUARD	EEL	PEARL	5	[0, 0, 0]	-999	PAL1	3	R1118N
699.407	0.017	1134909	REC_END	n/a	n/a	4	-999	n/a	n/a	n/a	n/a	5	[0, 0, 0]	-999	PAL1	3	R1118N
699.424	0.9	1134926	TEST_ORIENT	n/a	n/a	3	5	THUMB	n/a	CAVE	THUMB	5	[0, 0, 0]	-999	PAL1	3	R1118N
700.324	0.0	1135826	REC_START	n/a	n/a	3	-999	n/a	n/a	n/a	n/a	5	[0, 0, 0]	-999	PAL1	3	R1118N
700.324	2.096	1135826	TEST_PROBE	n/a	wordpools/wordpool_EN.txt	3	5	THUMB	n/a	CAVE	THUMB	5	[0, 0, 0]	-999	PAL1	3	R1118N
702.42	2.921	1137921	REC_EVENT	2096	n/a	3	5	THUMB	<>	CAVE	THUMB	5	[0, 0, 0]	-999	PAL1	3	R1118N
705.341	0.017	1140842	REC_END	n/a	n/a	3	-999	n/a	n/a	n/a	n/a	5	[0, 0, 0]	-999	PAL1	3	R1118N
705.358	0.934	1140859	TEST_ORIENT	n/a	n/a	2	6	ROPE	n/a	ROPE	PEN	5	[0, 0, 0]	-999	PAL1	3	R1118N
706.292	0.0	1141793	TEST_PROBE	n/a	wordpools/wordpool_EN.txt	2	6	ROPE	n/a	ROPE	PEN	5	[0, 0, 0]	-999	PAL1	3	R1118N
706.292	2.963	1141793	REC_START	n/a	n/a	2	-999	n/a	n/a	n/a	n/a	5	[0, 0, 0]	-999	PAL1	3	R1118N
709.255	2.063	1144756	REC_EVENT	2963	n/a	2	6	ROPE	<>	ROPE	PEN	5	[0, 0, 0]	-999	PAL1	3	R1118N
711.318	0.024	1146819	REC_END	n/a	n/a	2	-999	n/a	n/a	n/a	n/a	5	[0, 0, 0]	-999	PAL1	3	R1118N
711.342	9.829	1146843	FEEDBACK_SHOW_ALL_PAIRS	n/a	n/a	2	-999	n/a	n/a	n/a	n/a	5	[0, 0, 0]	-999	PAL1	3	R1118N
721.171	10.442	1156672	ENCODING_START	n/a	n/a	0	-999	n/a	n/a	n/a	n/a	6	[0, 0, 0]	-999	PAL1	3	R1118N
731.613	0.916	1167113	STUDY_ORIENT	n/a	n/a	1	5	BROOM	FLEA	BROOM	STRAW	6	[0, 0, 0]	-999	PAL1	3	R1118N
732.529	5.018	1168029	STUDY_PAIR	n/a	wordpools/wordpool_EN.txt	1	5	BROOM	FLEA	BROOM	STRAW	6	[0, 0, 0]	-999	PAL1	3	R1118N
737.547	1.0	1173047	STUDY_ORIENT	n/a	n/a	2	2	AXE	RICE	AXE	ROOT	6	[0, 0, 0]	-999	PAL1	3	R1118N
738.547	5.034	1174047	STUDY_PAIR	n/a	wordpools/wordpool_EN.txt	2	2	AXE	RICE	AXE	ROOT	6	[0, 0, 0]	-999	PAL1	3	R1118N
743.581	0.95	1179081	STUDY_ORIENT	n/a	n/a	3	3	TOOTH	EYE	TOOTH	PIE	6	[0, 0, 0]	-999	PAL1	3	R1118N
744.531	5.018	1180031	STUDY_PAIR	n/a	wordpools/wordpool_EN.txt	3	3	TOOTH	EYE	TOOTH	PIE	6	[0, 0, 0]	-999	PAL1	3	R1118N
749.549	0.85	1185049	STUDY_ORIENT	n/a	n/a	4	4	SALT	FOOD	SALT	FOOD	6	[0, 0, 0]	-999	PAL1	3	R1118N
750.399	5.034	1185899	STUDY_PAIR	n/a	wordpools/wordpool_EN.txt	4	4	SALT	FOOD	SALT	FOOD	6	[0, 0, 0]	-999	PAL1	3	R1118N
755.433	0.817	1190932	STUDY_ORIENT	n/a	n/a	5	1	CLAY	FOOT	PET	CLAY	6	[0, 0, 0]	-999	PAL1	3	R1118N
756.25	5.034	1191749	STUDY_PAIR	n/a	wordpools/wordpool_EN.txt	5	1	CLAY	FOOT	PET	CLAY	6	[0, 0, 0]	-999	PAL1	3	R1118N
761.284	0.867	1196783	STUDY_ORIENT	n/a	n/a	6	6	TOE	SHOE	PLATE	TOE	6	[0, 0, 0]	-999	PAL1	3	R1118N
762.151	4.018	1197650	STUDY_PAIR	n/a	wordpools/wordpool_EN.txt	6	6	TOE	SHOE	PLATE	TOE	6	[0, 0, 0]	-999	PAL1	3	R1118N
766.169	0.999	1201668	START	n/a	n/a	-999	-999	n/a	n/a	n/a	n/a	6	[-999, -999, -999]	-999	PAL1	3	R1118N
767.168	0.017	1202667	MATH_START	n/a	n/a	-999	-999	n/a	n/a	n/a	n/a	6	[0, 0, 0]	-999	PAL1	3	R1118N
767.185	2.517	1202684	PROB	2482	n/a	-999	-999	n/a	n/a	n/a	n/a	6	[6, 1, 7]	14	PAL1	3	R1118N
769.702	2.301	1205201	PROB	2277	n/a	-999	-999	n/a	n/a	n/a	n/a	6	[2, 7, 3]	12	PAL1	3	R1118N
772.003	2.667	1207502	PROB	2632	n/a	-999	-999	n/a	n/a	n/a	n/a	6	[9, 6, 4]	19	PAL1	3	R1118N
774.67	3.218	1210169	PROB	3190	n/a	-999	-999	n/a	n/a	n/a	n/a	6	[3, 4, 3]	10	PAL1	3	R1118N
777.888	7.233	1213387	PROB	7211	n/a	-999	-999	n/a	n/a	n/a	n/a	6	[2, 4, 7]	15	PAL1	3	R1118N
785.121	2.042	1220619	PROB	2042	n/a	-999	-999	n/a	n/a	n/a	n/a	6	[1, 7, 2]	10	PAL1	3	R1118N
787.163	0.009	1222661	STOP	n/a	n/a	-999	-999	n/a	n/a	n/a	n/a	6	[-999, -999, -999]	-999	PAL1	3	R1118N
787.172	0.0	1222670	MATH_END	n/a	n/a	-999	-999	n/a	n/a	n/a	n/a	6	[0, 0, 0]	-999	PAL1	3	R1118N
787.172	0.017	1222670	TEST_START	n/a	n/a	-999	-999	n/a	n/a	n/a	n/a	6	[0, 0, 0]	-999	PAL1	3	R1118N
787.189	0.916	1222687	TEST_ORIENT	n/a	n/a	5	1	CLAY	FOOT	PET	CLAY	6	[0, 0, 0]	-999	PAL1	3	R1118N
788.105	0.001	1223603	TEST_PROBE	n/a	wordpools/wordpool_EN.txt	5	1	CLAY	FOOT	PET	CLAY	6	[0, 0, 0]	-999	PAL1	3	R1118N
788.106	3.223	1223604	REC_START	n/a	n/a	5	-999	n/a	FOOT	n/a	n/a	6	[0, 0, 0]	-999	PAL1	3	R1118N
791.329	1.786	1226827	REC_EVENT	3223	n/a	5	1	CLAY	FOOT	PET	CLAY	6	[0, 0, 0]	-999	PAL1	3	R1118N
793.115	0.008	1228613	REC_END	n/a	n/a	5	-999	n/a	n/a	n/a	n/a	6	[0, 0, 0]	-999	PAL1	3	R1118N
793.123	0.85	1228621	TEST_ORIENT	n/a	n/a	2	2	AXE	RICE	AXE	ROOT	6	[0, 0, 0]	-999	PAL1	3	R1118N
793.973	0.0	1229471	TEST_PROBE	n/a	wordpools/wordpool_EN.txt	2	2	AXE	RICE	AXE	ROOT	6	[0, 0, 0]	-999	PAL1	3	R1118N
793.973	3.948	1229471	REC_START	n/a	n/a	2	-999	n/a	RICE	n/a	n/a	6	[0, 0, 0]	-999	PAL1	3	R1118N
797.921	1.069	1233419	REC_EVENT	3948	n/a	2	2	AXE	RICE	AXE	ROOT	6	[0, 0, 0]	-999	PAL1	3	R1118N
798.99	0.017	1234488	REC_END	n/a	n/a	2	-999	n/a	n/a	n/a	n/a	6	[0, 0, 0]	-999	PAL1	3	R1118N
799.007	0.918	1234505	TEST_ORIENT	n/a	n/a	3	3	TOOTH	EYE	TOOTH	PIE	6	[0, 0, 0]	-999	PAL1	3	R1118N
799.925	0.001	1235423	TEST_PROBE	n/a	wordpools/wordpool_EN.txt	3	3	TOOTH	EYE	TOOTH	PIE	6	[0, 0, 0]	-999	PAL1	3	R1118N
799.926	1.663	1235424	REC_START	n/a	n/a	3	-999	n/a	EYE	n/a	n/a	6	[0, 0, 0]	-999	PAL1	3	R1118N
801.589	3.352	1237087	REC_EVENT	1663	n/a	3	3	TOOTH	EYE	TOOTH	PIE	6	[0, 0, 0]	-999	PAL1	3	R1118N
804.941	0.017	1240439	REC_END	n/a	n/a	3	-999	n/a	n/a	n/a	n/a	6	[0, 0, 0]	-999	PAL1	3	R1118N
804.958	1.034	1240456	TEST_ORIENT	n/a	n/a	4	4	SALT	FOOD	SALT	FOOD	6	[0, 0, 0]	-999	PAL1	3	R1118N
805.992	0.0	1241490	TEST_PROBE	n/a	wordpools/wordpool_EN.txt	4	4	SALT	FOOD	SALT	FOOD	6	[0, 0, 0]	-999	PAL1	3	R1118N
805.992	1.769	1241490	REC_START	n/a	n/a	4	-999	n/a	FOOD	n/a	n/a	6	[0, 0, 0]	-999	PAL1	3	R1118N
807.761	3.248	1243259	REC_EVENT	1769	n/a	4	4	SALT	FOOD	SALT	FOOD	6	[0, 0, 0]	-999	PAL1	3	R1118N
811.009	0.017	1246506	REC_END	n/a	n/a	4	-999	n/a	n/a	n/a	n/a	6	[0, 0, 0]	-999	PAL1	3	R1118N
811.026	0.868	1246523	TEST_ORIENT	n/a	n/a	1	5	BROOM	FLEA	BROOM	STRAW	6	[0, 0, 0]	-999	PAL1	3	R1118N
811.894	0.0	1247391	REC_START	n/a	n/a	1	-999	n/a	FLEA	n/a	n/a	6	[0, 0, 0]	-999	PAL1	3	R1118N
811.894	2.035	1247391	TEST_PROBE	n/a	wordpools/wordpool_EN.txt	1	5	BROOM	FLEA	BROOM	STRAW	6	[0, 0, 0]	-999	PAL1	3	R1118N
813.929	2.982	1249426	REC_EVENT	2035	n/a	1	5	BROOM	FLEA	BROOM	STRAW	6	[0, 0, 0]	-999	PAL1	3	R1118N
816.911	0.017	1252408	REC_END	n/a	n/a	1	-999	n/a	n/a	n/a	n/a	6	[0, 0, 0]	-999	PAL1	3	R1118N
816.928	0.933	1252425	TEST_ORIENT	n/a	n/a	6	6	TOE	SHOE	PLATE	TOE	6	[0, 0, 0]	-999	PAL1	3	R1118N
817.861	0.001	1253358	TEST_PROBE	n/a	wordpools/wordpool_EN.txt	6	6	TOE	SHOE	PLATE	TOE	6	[0, 0, 0]	-999	PAL1	3	R1118N
817.862	4.003	1253359	REC_START	n/a	n/a	6	-999	n/a	SHOE	n/a	n/a	6	[0, 0, 0]	-999	PAL1	3	R1118N
821.865	1.006	1257362	REC_EVENT	4003	n/a	6	6	TOE	SHOE	PLATE	TOE	6	[0, 0, 0]	-999	PAL1	3	R1118N
822.871	0.025	1258368	REC_END	n/a	n/a	6	-999	n/a	n/a	n/a	n/a	6	[0, 0, 0]	-999	PAL1	3	R1118N
822.896	9.667	1258393	FEEDBACK_SHOW_ALL_PAIRS	n/a	n/a	6	-999	n/a	n/a	n/a	n/a	6	[0, 0, 0]	-999	PAL1	3	R1118N
832.563	10.452	1268060	ENCODING_START	n/a	n/a	0	-999	n/a	n/a	n/a	n/a	7	[0, 0, 0]	-999	PAL1	3	R1118N
843.015	0.817	1278511	STUDY_ORIENT	n/a	n/a	1	3	KEY	TERM	JET	KEY	7	[0, 0, 0]	-999	PAL1	3	R1118N
843.832	5.018	1279328	STUDY_PAIR	n/a	wordpools/wordpool_EN.txt	1	3	KEY	TERM	JET	KEY	7	[0, 0, 0]	-999	PAL1	3	R1118N
848.85	0.967	1284346	STUDY_ORIENT	n/a	n/a	2	2	CLIFF	n/a	CLIFF	VINE	7	[0, 0, 0]	-999	PAL1	3	R1118N
849.817	5.034	1285313	STUDY_PAIR	n/a	wordpools/wordpool_EN.txt	2	2	CLIFF	n/a	CLIFF	VINE	7	[0, 0, 0]	-999	PAL1	3	R1118N
854.851	0.934	1290347	STUDY_ORIENT	n/a	n/a	3	5	RAIN	OAR	RAIN	OAR	7	[0, 0, 0]	-999	PAL1	3	R1118N
855.785	5.034	1291281	STUDY_PAIR	n/a	wordpools/wordpool_EN.txt	3	5	RAIN	OAR	RAIN	OAR	7	[0, 0, 0]	-999	PAL1	3	R1118N
860.819	0.916	1296315	STUDY_ORIENT	n/a	n/a	4	6	TOAST	CORN	CORN	TOAST	7	[0, 0, 0]	-999	PAL1	3	R1118N
861.735	5.018	1297231	STUDY_PAIR	n/a	wordpools/wordpool_EN.txt	4	6	TOAST	CORN	CORN	TOAST	7	[0, 0, 0]	-999	PAL1	3	R1118N
866.753	0.916	1302248	STUDY_ORIENT	n/a	n/a	5	1	STEM	FOOT	STEM	INK	7	[0, 0, 0]	-999	PAL1	3	R1118N
867.669	5.034	1303164	STUDY_PAIR	n/a	wordpools/wordpool_EN.txt	5	1	STEM	FOOT	STEM	INK	7	[0, 0, 0]	-999	PAL1	3	R1118N
872.703	0.983	1308198	STUDY_ORIENT	n/a	n/a	6	4	TOOL	BIRD	TOOL	BIRD	7	[0, 0, 0]	-999	PAL1	3	R1118N
873.686	4.001	1309181	STUDY_PAIR	n/a	wordpools/wordpool_EN.txt	6	4	TOOL	BIRD	TOOL	BIRD	7	[0, 0, 0]	-999	PAL1	3	R1118N
877.687	1.0	1313182	START	n/a	n/a	-999	-999	n/a	n/a	n/a	n/a	7	[-999, -999, -999]	-999	PAL1	3	R1118N
878.687	0.017	1314182	MATH_START	n/a	n/a	-999	-999	n/a	n/a	n/a	n/a	7	[0, 0, 0]	-999	PAL1	3	R1118N
878.704	4.684	1314199	PROB	4659	n/a	-999	-999	n/a	n/a	n/a	n/a	7	[8, 8, 7]	23	PAL1	3	R1118N
883.388	2.717	1318883	PROB	2687	n/a	-999	-999	n/a	n/a	n/a	n/a	7	[5, 5, 6]	16	PAL1	3	R1118N
886.105	3.234	1321600	PROB	3210	n/a	-999	-999	n/a	n/a	n/a	n/a	7	[5, 2, 2]	9	PAL1	3	R1118N
889.339	3.167	1324834	PROB	3136	n/a	-999	-999	n/a	n/a	n/a	n/a	7	[9, 9, 3]	21	PAL1	3	R1118N
892.506	4.584	1328000	PROB	4561	n/a	-999	-999	n/a	n/a	n/a	n/a	7	[8, 1, 9]	18	PAL1	3	R1118N
897.09	4.417	1332584	PROB	4417	n/a	-999	-999	n/a	n/a	n/a	n/a	7	[4, 2, 3]	9	PAL1	3	R1118N
901.507	0.018	1337001	STOP	n/a	n/a	-999	-999	n/a	n/a	n/a	n/a	7	[-999, -999, -999]	-999	PAL1	3	R1118N
901.525	0.0	1337019	MATH_END	n/a	n/a	-999	-999	n/a	n/a	n/a	n/a	7	[0, 0, 0]	-999	PAL1	3	R1118N
901.525	0.016	1337019	TEST_START	n/a	n/a	-999	-999	n/a	n/a	n/a	n/a	7	[0, 0, 0]	-999	PAL1	3	R1118N
901.541	0.984	1337035	TEST_ORIENT	n/a	n/a	5	1	STEM	FOOT	STEM	INK	7	[0, 0, 0]	-999	PAL1	3	R1118N
902.525	0.0	1338019	REC_START	n/a	n/a	5	-999	n/a	FOOT	n/a	n/a	7	[0, 0, 0]	-999	PAL1	3	R1118N
902.525	3.601	1338019	TEST_PROBE	n/a	wordpools/wordpool_EN.txt	5	1	STEM	FOOT	STEM	INK	7	[0, 0, 0]	-999	PAL1	3	R1118N
906.126	1.42	1341620	REC_EVENT	3601	n/a	5	1	STEM	FOOT	STEM	INK	7	[0, 0, 0]	-999	PAL1	3	R1118N
907.546	0.013	1343040	REC_END	n/a	n/a	5	-999	n/a	n/a	n/a	n/a	7	[0, 0, 0]	-999	PAL1	3	R1118N
907.559	0.917	1343053	TEST_ORIENT	n/a	n/a	2	2	CLIFF	n/a	CLIFF	VINE	7	[0, 0, 0]	-999	PAL1	3	R1118N
908.476	0.0	1343970	TEST_PROBE	n/a	wordpools/wordpool_EN.txt	2	2	CLIFF	n/a	CLIFF	VINE	7	[0, 0, 0]	-999	PAL1	3	R1118N
908.476	3.208	1343970	REC_START	n/a	n/a	2	-999	n/a	n/a	n/a	n/a	7	[0, 0, 0]	-999	PAL1	3	R1118N
911.684	1.809	1347178	REC_EVENT	3208	n/a	2	2	CLIFF	<>	CLIFF	VINE	7	[0, 0, 0]	-999	PAL1	3	R1118N
913.493	0.017	1348987	REC_END	n/a	n/a	2	-999	n/a	n/a	n/a	n/a	7	[0, 0, 0]	-999	PAL1	3	R1118N
913.51	0.9	1349004	TEST_ORIENT	n/a	n/a	1	3	KEY	TERM	JET	KEY	7	[0, 0, 0]	-999	PAL1	3	R1118N
914.41	0.001	1349904	TEST_PROBE	n/a	wordpools/wordpool_EN.txt	1	3	KEY	TERM	JET	KEY	7	[0, 0, 0]	-999	PAL1	3	R1118N
914.411	1.923	1349905	REC_START	n/a	n/a	1	-999	n/a	TERM	n/a	n/a	7	[0, 0, 0]	-999	PAL1	3	R1118N
916.334	3.093	1351827	REC_EVENT	1923	n/a	1	3	KEY	TERM	JET	KEY	7	[0, 0, 0]	-999	PAL1	3	R1118N
919.427	0.017	1354920	REC_END	n/a	n/a	1	-999	n/a	n/a	n/a	n/a	7	[0, 0, 0]	-999	PAL1	3	R1118N
919.444	0.967	1354937	TEST_ORIENT	n/a	n/a	6	4	TOOL	BIRD	TOOL	BIRD	7	[0, 0, 0]	-999	PAL1	3	R1118N
920.411	0.001	1355904	TEST_PROBE	n/a	wordpools/wordpool_EN.txt	6	4	TOOL	BIRD	TOOL	BIRD	7	[0, 0, 0]	-999	PAL1	3	R1118N
920.412	1.413	1355905	REC_START	n/a	n/a	6	-999	n/a	BIRD	n/a	n/a	7	[0, 0, 0]	-999	PAL1	3	R1118N
921.825	3.603	1357318	REC_EVENT	1413	n/a	6	4	TOOL	BIRD	TOOL	BIRD	7	[0, 0, 0]	-999	PAL1	3	R1118N
925.428	0.017	1360921	REC_END	n/a	n/a	6	-999	n/a	n/a	n/a	n/a	7	[0, 0, 0]	-999	PAL1	3	R1118N
925.445	0.95	1360938	TEST_ORIENT	n/a	n/a	3	5	RAIN	OAR	RAIN	OAR	7	[0, 0, 0]	-999	PAL1	3	R1118N
926.395	0.001	1361888	TEST_PROBE	n/a	wordpools/wordpool_EN.txt	3	5	RAIN	OAR	RAIN	OAR	7	[0, 0, 0]	-999	PAL1	3	R1118N
926.396	1.69	1361889	REC_START	n/a	n/a	3	-999	n/a	OAR	n/a	n/a	7	[0, 0, 0]	-999	PAL1	3	R1118N
928.086	3.319	1363579	REC_EVENT	1690	n/a	3	5	RAIN	OAR	RAIN	OAR	7	[0, 0, 0]	-999	PAL1	3	R1118N
931.405	0.008	1366898	REC_END	n/a	n/a	3	-999	n/a	n/a	n/a	n/a	7	[0, 0, 0]	-999	PAL1	3	R1118N
931.413	0.8	1366906	TEST_ORIENT	n/a	n/a	4	6	TOAST	CORN	CORN	TOAST	7	[0, 0, 0]	-999	PAL1	3	R1118N
932.213	0.001	1367706	TEST_PROBE	n/a	wordpools/wordpool_EN.txt	4	6	TOAST	CORN	CORN	TOAST	7	[0, 0, 0]	-999	PAL1	3	R1118N
932.214	1.652	1367707	REC_START	n/a	n/a	4	-999	n/a	CORN	n/a	n/a	7	[0, 0, 0]	-999	PAL1	3	R1118N
933.866	3.364	1369359	REC_EVENT	1652	n/a	4	6	TOAST	CORN	CORN	TOAST	7	[0, 0, 0]	-999	PAL1	3	R1118N
937.23	0.034	1372723	REC_END	n/a	n/a	4	-999	n/a	n/a	n/a	n/a	7	[0, 0, 0]	-999	PAL1	3	R1118N
937.264	9.883	1372757	FEEDBACK_SHOW_ALL_PAIRS	n/a	n/a	4	-999	n/a	n/a	n/a	n/a	7	[0, 0, 0]	-999	PAL1	3	R1118N
947.147	10.454	1382639	ENCODING_START	n/a	n/a	0	-999	n/a	n/a	n/a	n/a	8	[0, 0, 0]	-999	PAL1	3	R1118N
957.601	1.016	1393093	STUDY_ORIENT	n/a	n/a	1	1	BRICK	HOSE	HOSE	BRICK	8	[0, 0, 0]	-999	PAL1	3	R1118N
958.617	5.018	1394109	STUDY_PAIR	n/a	wordpools/wordpool_EN.txt	1	1	BRICK	HOSE	HOSE	BRICK	8	[0, 0, 0]	-999	PAL1	3	R1118N
963.635	0.767	1399127	STUDY_ORIENT	n/a	n/a	2	2	TOY	ROPE	BEACH	TOY	8	[0, 0, 0]	-999	PAL1	3	R1118N
964.402	5.034	1399894	STUDY_PAIR	n/a	wordpools/wordpool_EN.txt	2	2	TOY	ROPE	BEACH	TOY	8	[0, 0, 0]	-999	PAL1	3	R1118N
969.436	0.9	1404928	STUDY_ORIENT	n/a	n/a	3	5	APE	MUD	APE	MUD	8	[0, 0, 0]	-999	PAL1	3	R1118N
970.336	5.018	1405827	STUDY_PAIR	n/a	wordpools/wordpool_EN.txt	3	5	APE	MUD	APE	MUD	8	[0, 0, 0]	-999	PAL1	3	R1118N
975.354	0.783	1410845	STUDY_ORIENT	n/a	n/a	4	4	SHIP	MOUSE	BAG	SHIP	8	[0, 0, 0]	-999	PAL1	3	R1118N
976.137	5.018	1411628	STUDY_PAIR	n/a	wordpools/wordpool_EN.txt	4	4	SHIP	MOUSE	BAG	SHIP	8	[0, 0, 0]	-999	PAL1	3	R1118N
981.155	0.817	1416646	STUDY_ORIENT	n/a	n/a	5	3	SEAL	SKY	SEAL	GATE	8	[0, 0, 0]	-999	PAL1	3	R1118N
981.972	5.034	1417463	STUDY_PAIR	n/a	wordpools/wordpool_EN.txt	5	3	SEAL	SKY	SEAL	GATE	8	[0, 0, 0]	-999	PAL1	3	R1118N
987.006	0.834	1422497	STUDY_ORIENT	n/a	n/a	6	6	CLOUD	MOUSE	CLOUD	MOUSE	8	[0, 0, 0]	-999	PAL1	3	R1118N
987.84	4.019	1423331	STUDY_PAIR	n/a	wordpools/wordpool_EN.txt	6	6	CLOUD	MOUSE	CLOUD	MOUSE	8	[0, 0, 0]	-999	PAL1	3	R1118N
991.859	0.999	1427350	START	n/a	n/a	-999	-999	n/a	n/a	n/a	n/a	8	[-999, -999, -999]	-999	PAL1	3	R1118N
992.858	0.016	1428349	MATH_START	n/a	n/a	-999	-999	n/a	n/a	n/a	n/a	8	[0, 0, 0]	-999	PAL1	3	R1118N
992.874	4.817	1428365	PROB	4785	n/a	-999	-999	n/a	n/a	n/a	n/a	8	[1, 4, 9]	14	PAL1	3	R1118N
997.691	8.236	1433181	PROB	8209	n/a	-999	-999	n/a	n/a	n/a	n/a	8	[7, 5, 1]	13	PAL1	3	R1118N
1005.927	3.499	1441417	PROB	3476	n/a	-999	-999	n/a	n/a	n/a	n/a	8	[6, 3, 1]	10	PAL1	3	R1118N
1009.426	9.913	1444916	PROB	9913	n/a	-999	-999	n/a	n/a	n/a	n/a	8	[9, 5, 7]	18	PAL1	3	R1118N
1019.339	0.006	1454829	STOP	n/a	n/a	-999	-999	n/a	n/a	n/a	n/a	8	[-999, -999, -999]	-999	PAL1	3	R1118N
1019.345	0.0	1454835	MATH_END	n/a	n/a	-999	-999	n/a	n/a	n/a	n/a	8	[0, 0, 0]	-999	PAL1	3	R1118N
1019.345	0.016	1454835	TEST_START	n/a	n/a	-999	-999	n/a	n/a	n/a	n/a	8	[0, 0, 0]	-999	PAL1	3	R1118N
1019.361	0.984	1454851	TEST_ORIENT	n/a	n/a	1	1	BRICK	HOSE	HOSE	BRICK	8	[0, 0, 0]	-999	PAL1	3	R1118N
1020.345	0.0	1455835	TEST_PROBE	n/a	wordpools/wordpool_EN.txt	1	1	BRICK	HOSE	HOSE	BRICK	8	[0, 0, 0]	-999	PAL1	3	R1118N
1020.345	2.9	1455835	REC_START	n/a	n/a	1	-999	n/a	HOSE	n/a	n/a	8	[0, 0, 0]	-999	PAL1	3	R1118N
1023.245	2.117	1458735	REC_EVENT	2900	n/a	1	1	BRICK	HOSE	HOSE	BRICK	8	[0, 0, 0]	-999	PAL1	3	R1118N
1025.362	0.017	1460851	REC_END	n/a	n/a	1	-999	n/a	n/a	n/a	n/a	8	[0, 0, 0]	-999	PAL1	3	R1118N
1025.379	0.9	1460868	TEST_ORIENT	n/a	n/a	2	2	TOY	ROPE	BEACH	TOY	8	[0, 0, 0]	-999	PAL1	3	R1118N
1026.279	0.0	1461768	TEST_PROBE	n/a	wordpools/wordpool_EN.txt	2	2	TOY	ROPE	BEACH	TOY	8	[0, 0, 0]	-999	PAL1	3	R1118N
1026.279	1.964	1461768	REC_START	n/a	n/a	2	-999	n/a	ROPE	n/a	n/a	8	[0, 0, 0]	-999	PAL1	3	R1118N
1028.243	3.053	1463732	REC_EVENT	1964	n/a	2	2	TOY	ROPE	BEACH	TOY	8	[0, 0, 0]	-999	PAL1	3	R1118N
1031.296	0.017	1466785	REC_END	n/a	n/a	2	-999	n/a	n/a	n/a	n/a	8	[0, 0, 0]	-999	PAL1	3	R1118N
1031.313	0.817	1466802	TEST_ORIENT	n/a	n/a	5	3	SEAL	SKY	SEAL	GATE	8	[0, 0, 0]	-999	PAL1	3	R1118N
1032.13	0.0	1467619	TEST_PROBE	n/a	wordpools/wordpool_EN.txt	5	3	SEAL	SKY	SEAL	GATE	8	[0, 0, 0]	-999	PAL1	3	R1118N
1032.13	2.295	1467619	REC_START	n/a	n/a	5	-999	n/a	SKY	n/a	n/a	8	[0, 0, 0]	-999	PAL1	3	R1118N
1034.425	2.722	1469914	REC_EVENT	2295	n/a	5	3	SEAL	SKY	SEAL	GATE	8	[0, 0, 0]	-999	PAL1	3	R1118N
1037.147	0.017	1472636	REC_END	n/a	n/a	5	-999	n/a	n/a	n/a	n/a	8	[0, 0, 0]	-999	PAL1	3	R1118N
1037.164	0.817	1472653	TEST_ORIENT	n/a	n/a	4	4	SHIP	MOUSE	BAG	SHIP	8	[0, 0, 0]	-999	PAL1	3	R1118N
1037.981	0.001	1473470	TEST_PROBE	n/a	wordpools/wordpool_EN.txt	4	4	SHIP	MOUSE	BAG	SHIP	8	[0, 0, 0]	-999	PAL1	3	R1118N
1037.982	3.619	1473471	REC_START	n/a	n/a	4	-999	n/a	MOUSE	n/a	n/a	8	[0, 0, 0]	-999	PAL1	3	R1118N
1041.601	1.406	1477090	REC_EVENT	3619	n/a	4	4	SHIP	MOUSE	BAG	SHIP	8	[0, 0, 0]	-999	PAL1	3	R1118N
1043.007	0.008	1478496	REC_END	n/a	n/a	4	-999	n/a	n/a	n/a	n/a	8	[0, 0, 0]	-999	PAL1	3	R1118N
1043.015	0.934	1478504	TEST_ORIENT	n/a	n/a	3	5	APE	MUD	APE	MUD	8	[0, 0, 0]	-999	PAL1	3	R1118N
1043.949	0.0	1479438	TEST_PROBE	n/a	wordpools/wordpool_EN.txt	3	5	APE	MUD	APE	MUD	8	[0, 0, 0]	-999	PAL1	3	R1118N
1043.949	1.947	1479438	REC_START	n/a	n/a	3	-999	n/a	MUD	n/a	n/a	8	[0, 0, 0]	-999	PAL1	3	R1118N
1045.896	3.07	1481385	REC_EVENT	1947	n/a	3	5	APE	MUD	APE	MUD	8	[0, 0, 0]	-999	PAL1	3	R1118N
1048.966	0.017	1484455	REC_END	n/a	n/a	3	-999	n/a	n/a	n/a	n/a	8	[0, 0, 0]	-999	PAL1	3	R1118N
1048.983	0.934	1484472	TEST_ORIENT	n/a	n/a	6	6	CLOUD	MOUSE	CLOUD	MOUSE	8	[0, 0, 0]	-999	PAL1	3	R1118N
1049.917	0.001	1485406	TEST_PROBE	n/a	wordpools/wordpool_EN.txt	6	6	CLOUD	MOUSE	CLOUD	MOUSE	8	[0, 0, 0]	-999	PAL1	3	R1118N
1049.918	2.545	1485407	REC_START	n/a	n/a	6	-999	n/a	MOUSE	n/a	n/a	8	[0, 0, 0]	-999	PAL1	3	R1118N
1052.463	2.464	1487951	REC_EVENT	2545	n/a	6	6	CLOUD	MOUSE	CLOUD	MOUSE	8	[0, 0, 0]	-999	PAL1	3	R1118N
1054.927	0.023	1490415	REC_END	n/a	n/a	6	-999	n/a	n/a	n/a	n/a	8	[0, 0, 0]	-999	PAL1	3	R1118N
1054.95	10.397	1490438	FEEDBACK_SHOW_ALL_PAIRS	n/a	n/a	6	-999	n/a	n/a	n/a	n/a	8	[0, 0, 0]	-999	PAL1	3	R1118N
1065.347	10.441	1500835	ENCODING_START	n/a	n/a	0	-999	n/a	n/a	n/a	n/a	9	[0, 0, 0]	-999	PAL1	3	R1118N
1075.788	0.866	1511276	STUDY_ORIENT	n/a	n/a	1	3	RIB	FILM	FILM	RIB	9	[0, 0, 0]	-999	PAL1	3	R1118N
1076.654	5.018	1512142	STUDY_PAIR	n/a	wordpools/wordpool_EN.txt	1	3	RIB	FILM	FILM	RIB	9	[0, 0, 0]	-999	PAL1	3	R1118N
1081.672	0.783	1517159	STUDY_ORIENT	n/a	n/a	2	4	SPRING	SPARK	STREET	SPRING	9	[0, 0, 0]	-999	PAL1	3	R1118N
1082.455	5.034	1517942	STUDY_PAIR	n/a	wordpools/wordpool_EN.txt	2	4	SPRING	SPARK	STREET	SPRING	9	[0, 0, 0]	-999	PAL1	3	R1118N
1087.489	0.834	1522976	STUDY_ORIENT	n/a	n/a	3	1	ARK	MOUSE	TRUCK	ARK	9	[0, 0, 0]	-999	PAL1	3	R1118N
1088.323	5.034	1523810	STUDY_PAIR	n/a	wordpools/wordpool_EN.txt	3	1	ARK	MOUSE	TRUCK	ARK	9	[0, 0, 0]	-999	PAL1	3	R1118N
1093.357	0.833	1528844	STUDY_ORIENT	n/a	n/a	4	2	MOLE	SKY	MOLE	FUDGE	9	[0, 0, 0]	-999	PAL1	3	R1118N
1094.19	5.018	1529677	STUDY_PAIR	n/a	wordpools/wordpool_EN.txt	4	2	MOLE	SKY	MOLE	FUDGE	9	[0, 0, 0]	-999	PAL1	3	R1118N
1099.208	1.017	1534695	STUDY_ORIENT	n/a	n/a	5	5	CHIN	n/a	CHAIR	CHIN	9	[0, 0, 0]	-999	PAL1	3	R1118N
1100.225	5.034	1535712	STUDY_PAIR	n/a	wordpools/wordpool_EN.txt	5	5	CHIN	n/a	CHAIR	CHIN	9	[0, 0, 0]	-999	PAL1	3	R1118N
1105.259	0.783	1540745	STUDY_ORIENT	n/a	n/a	6	6	FLUTE	FLUTE	SKUNK	FLUTE	9	[0, 0, 0]	-999	PAL1	3	R1118N
1106.042	4.001	1541528	STUDY_PAIR	n/a	wordpools/wordpool_EN.txt	6	6	FLUTE	FLUTE	SKUNK	FLUTE	9	[0, 0, 0]	-999	PAL1	3	R1118N
1110.043	1.0	1545529	START	n/a	n/a	-999	-999	n/a	n/a	n/a	n/a	9	[-999, -999, -999]	-999	PAL1	3	R1118N
1111.043	0.017	1546529	MATH_START	n/a	n/a	-999	-999	n/a	n/a	n/a	n/a	9	[0, 0, 0]	-999	PAL1	3	R1118N
1111.06	2.434	1546546	PROB	2407	n/a	-999	-999	n/a	n/a	n/a	n/a	9	[2, 8, 1]	11	PAL1	3	R1118N
1113.494	4.15	1548980	PROB	4117	n/a	-999	-999	n/a	n/a	n/a	n/a	9	[1, 4, 7]	12	PAL1	3	R1118N
1117.644	3.252	1553130	PROB	3232	n/a	-999	-999	n/a	n/a	n/a	n/a	9	[2, 7, 2]	11	PAL1	3	R1118N
1120.896	11.012	1556382	PROB	11012	n/a	-999	-999	n/a	n/a	n/a	n/a	9	[9, 6, 8]	15	PAL1	3	R1118N
1131.908	0.007	1567393	STOP	n/a	n/a	-999	-999	n/a	n/a	n/a	n/a	9	[-999, -999, -999]	-999	PAL1	3	R1118N
1131.915	0.0	1567400	TEST_START	n/a	n/a	-999	-999	n/a	n/a	n/a	n/a	9	[0, 0, 0]	-999	PAL1	3	R1118N
1131.915	0.016	1567400	MATH_END	n/a	n/a	-999	-999	n/a	n/a	n/a	n/a	9	[0, 0, 0]	-999	PAL1	3	R1118N
1131.931	0.834	1567416	TEST_ORIENT	n/a	n/a	3	1	ARK	MOUSE	TRUCK	ARK	9	[0, 0, 0]	-999	PAL1	3	R1118N
1132.765	0.001	1568250	TEST_PROBE	n/a	wordpools/wordpool_EN.txt	3	1	ARK	MOUSE	TRUCK	ARK	9	[0, 0, 0]	-999	PAL1	3	R1118N
1132.766	1.933	1568251	REC_START	n/a	n/a	3	-999	n/a	MOUSE	n/a	n/a	9	[0, 0, 0]	-999	PAL1	3	R1118N
1134.699	3.092	1570184	REC_EVENT	1933	n/a	3	1	ARK	MOUSE	TRUCK	ARK	9	[0, 0, 0]	-999	PAL1	3	R1118N
1137.791	0.008	1573276	REC_END	n/a	n/a	3	-999	n/a	n/a	n/a	n/a	9	[0, 0, 0]	-999	PAL1	3	R1118N
1137.799	1.033	1573284	TEST_ORIENT	n/a	n/a	4	2	MOLE	SKY	MOLE	FUDGE	9	[0, 0, 0]	-999	PAL1	3	R1118N
1138.832	0.001	1574317	TEST_PROBE	n/a	wordpools/wordpool_EN.txt	4	2	MOLE	SKY	MOLE	FUDGE	9	[0, 0, 0]	-999	PAL1	3	R1118N
1138.833	2.761	1574318	REC_START	n/a	n/a	4	-999	n/a	SKY	n/a	n/a	9	[0, 0, 0]	-999	PAL1	3	R1118N
1141.594	2.239	1577079	REC_EVENT	2761	n/a	4	2	MOLE	SKY	MOLE	FUDGE	9	[0, 0, 0]	-999	PAL1	3	R1118N
1143.833	0.017	1579318	REC_END	n/a	n/a	4	-999	n/a	n/a	n/a	n/a	9	[0, 0, 0]	-999	PAL1	3	R1118N
1143.85	0.967	1579335	TEST_ORIENT	n/a	n/a	1	3	RIB	FILM	FILM	RIB	9	[0, 0, 0]	-999	PAL1	3	R1118N
1144.817	0.0	1580302	TEST_PROBE	n/a	wordpools/wordpool_EN.txt	1	3	RIB	FILM	FILM	RIB	9	[0, 0, 0]	-999	PAL1	3	R1118N
1144.817	2.05	1580302	REC_START	n/a	n/a	1	-999	n/a	FILM	n/a	n/a	9	[0, 0, 0]	-999	PAL1	3	R1118N
1146.867	2.967	1582352	REC_EVENT	2050	n/a	1	3	RIB	FILM	FILM	RIB	9	[0, 0, 0]	-999	PAL1	3	R1118N
1149.834	0.017	1585319	REC_END	n/a	n/a	1	-999	n/a	n/a	n/a	n/a	9	[0, 0, 0]	-999	PAL1	3	R1118N
1149.851	0.967	1585336	TEST_ORIENT	n/a	n/a	2	4	SPRING	SPARK	STREET	SPRING	9	[0, 0, 0]	-999	PAL1	3	R1118N
1150.818	0.0	1586303	REC_START	n/a	n/a	2	-999	n/a	SPARK	n/a	n/a	9	[0, 0, 0]	-999	PAL1	3	R1118N
1150.818	2.427	1586303	TEST_PROBE	n/a	wordpools/wordpool_EN.txt	2	4	SPRING	SPARK	STREET	SPRING	9	[0, 0, 0]	-999	PAL1	3	R1118N
1153.245	2.59	1588730	REC_EVENT	2427	n/a	2	4	SPRING	SPARK	STREET	SPRING	9	[0, 0, 0]	-999	PAL1	3	R1118N
1155.835	0.017	1591320	REC_END	n/a	n/a	2	-999	n/a	n/a	n/a	n/a	9	[0, 0, 0]	-999	PAL1	3	R1118N
1155.852	0.95	1591337	TEST_ORIENT	n/a	n/a	5	5	CHIN	n/a	CHAIR	CHIN	9	[0, 0, 0]	-999	PAL1	3	R1118N
1156.802	0.001	1592287	TEST_PROBE	n/a	wordpools/wordpool_EN.txt	5	5	CHIN	n/a	CHAIR	CHIN	9	[0, 0, 0]	-999	PAL1	3	R1118N
1156.803	5.015	1592288	REC_START	n/a	n/a	5	-999	n/a	n/a	n/a	n/a	9	[0, 0, 0]	-999	PAL1	3	R1118N
1161.818	0.001	1597302	REC_EVENT	5015	n/a	5	5	CHIN	<>	CHAIR	CHIN	9	[0, 0, 0]	-999	PAL1	3	R1118N
1161.819	0.017	1597303	REC_END	n/a	n/a	5	-999	n/a	n/a	n/a	n/a	9	[0, 0, 0]	-999	PAL1	3	R1118N
1161.836	1.017	1597320	TEST_ORIENT	n/a	n/a	6	6	FLUTE	FLUTE	SKUNK	FLUTE	9	[0, 0, 0]	-999	PAL1	3	R1118N
1162.853	0.001	1598337	TEST_PROBE	n/a	wordpools/wordpool_EN.txt	6	6	FLUTE	FLUTE	SKUNK	FLUTE	9	[0, 0, 0]	-999	PAL1	3	R1118N
1162.854	4.239	1598338	REC_START	n/a	n/a	6	-999	n/a	FLUTE	n/a	n/a	9	[0, 0, 0]	-999	PAL1	3	R1118N
1167.093	0.77	1602577	REC_EVENT	4239	n/a	6	6	FLUTE	FLUTE	SKUNK	FLUTE	9	[0, 0, 0]	-999	PAL1	3	R1118N
1167.863	0.024	1603347	REC_END	n/a	n/a	6	-999	n/a	n/a	n/a	n/a	9	[0, 0, 0]	-999	PAL1	3	R1118N
1167.887	9.564	1603371	FEEDBACK_SHOW_ALL_PAIRS	n/a	n/a	6	-999	n/a	n/a	n/a	n/a	9	[0, 0, 0]	-999	PAL1	3	R1118N
1177.451	10.44	1612935	ENCODING_START	n/a	n/a	0	-999	n/a	n/a	n/a	n/a	10	[0, 0, 0]	-999	PAL1	3	R1118N
1187.891	0.85	1623374	STUDY_ORIENT	n/a	n/a	1	5	SEA	SALT	PANTS	SEA	10	[0, 0, 0]	-999	PAL1	3	R1118N
1188.741	5.034	1624224	STUDY_PAIR	n/a	wordpools/wordpool_EN.txt	1	5	SEA	SALT	PANTS	SEA	10	[0, 0, 0]	-999	PAL1	3	R1118N
1193.775	0.883	1629258	STUDY_ORIENT	n/a	n/a	2	2	PEAR	SKY	PEAR	FOG	10	[0, 0, 0]	-999	PAL1	3	R1118N
1194.658	5.034	1630141	STUDY_PAIR	n/a	wordpools/wordpool_EN.txt	2	2	PEAR	SKY	PEAR	FOG	10	[0, 0, 0]	-999	PAL1	3	R1118N
1199.692	0.9	1635175	STUDY_ORIENT	n/a	n/a	3	3	MAIL	FLEA	OAK	MAIL	10	[0, 0, 0]	-999	PAL1	3	R1118N
1200.592	5.034	1636075	STUDY_PAIR	n/a	wordpools/wordpool_EN.txt	3	3	MAIL	FLEA	OAK	MAIL	10	[0, 0, 0]	-999	PAL1	3	R1118N
1205.626	0.95	1641109	STUDY_ORIENT	n/a	n/a	4	6	WHALE	n/a	WHALE	HILL	10	[0, 0, 0]	-999	PAL1	3	R1118N
1206.576	5.018	1642059	STUDY_PAIR	n/a	wordpools/wordpool_EN.txt	4	6	WHALE	n/a	WHALE	HILL	10	[0, 0, 0]	-999	PAL1	3	R1118N
1211.594	0.85	1647076	STUDY_ORIENT	n/a	n/a	5	1	CLOCK	n/a	CLOCK	BREAD	10	[0, 0, 0]	-999	PAL1	3	R1118N
1212.444	5.034	1647926	STUDY_PAIR	n/a	wordpools/wordpool_EN.txt	5	1	CLOCK	n/a	CLOCK	BREAD	10	[0, 0, 0]	-999	PAL1	3	R1118N
1217.478	0.917	1652960	STUDY_ORIENT	n/a	n/a	6	4	WORM	MAZE	WORM	FORT	10	[0, 0, 0]	-999	PAL1	3	R1118N
1218.395	4.018	1653877	STUDY_PAIR	n/a	wordpools/wordpool_EN.txt	6	4	WORM	MAZE	WORM	FORT	10	[0, 0, 0]	-999	PAL1	3	R1118N
1222.413	0.999	1657895	START	n/a	n/a	-999	-999	n/a	n/a	n/a	n/a	10	[-999, -999, -999]	-999	PAL1	3	R1118N
1223.412	0.017	1658894	MATH_START	n/a	n/a	-999	-999	n/a	n/a	n/a	n/a	10	[0, 0, 0]	-999	PAL1	3	R1118N
1223.429	3.385	1658911	PROB	3351	n/a	-999	-999	n/a	n/a	n/a	n/a	10	[3, 9, 9]	21	PAL1	3	R1118N
1226.814	6.75	1662296	PROB	6725	n/a	-999	-999	n/a	n/a	n/a	n/a	10	[3, 8, 6]	19	PAL1	3	R1118N
1233.564	6.319	1669046	PROB	6296	n/a	-999	-999	n/a	n/a	n/a	n/a	10	[6, 6, 9]	21	PAL1	3	R1118N
1239.883	5.033	1675364	PROB	5033	n/a	-999	-999	n/a	n/a	n/a	n/a	10	[2, 5, 6]	13	PAL1	3	R1118N
1244.916	0.018	1680397	STOP	n/a	n/a	-999	-999	n/a	n/a	n/a	n/a	10	[-999, -999, -999]	-999	PAL1	3	R1118N
1244.934	0.0	1680415	TEST_START	n/a	n/a	-999	-999	n/a	n/a	n/a	n/a	10	[0, 0, 0]	-999	PAL1	3	R1118N
1244.934	0.015	1680415	MATH_END	n/a	n/a	-999	-999	n/a	n/a	n/a	n/a	10	[0, 0, 0]	-999	PAL1	3	R1118N
1244.949	0.801	1680430	TEST_ORIENT	n/a	n/a	5	1	CLOCK	n/a	CLOCK	BREAD	10	[0, 0, 0]	-999	PAL1	3	R1118N
1245.75	0.001	1681231	TEST_PROBE	n/a	wordpools/wordpool_EN.txt	5	1	CLOCK	n/a	CLOCK	BREAD	10	[0, 0, 0]	-999	PAL1	3	R1118N
1245.751	1.573	1681232	REC_START	n/a	n/a	5	-999	n/a	n/a	n/a	n/a	10	[0, 0, 0]	-999	PAL1	3	R1118N
1247.324	3.436	1682805	REC_EVENT	1573	n/a	5	1	CLOCK	<>	CLOCK	BREAD	10	[0, 0, 0]	-999	PAL1	3	R1118N
1250.76	0.008	1686241	REC_END	n/a	n/a	5	-999	n/a	n/a	n/a	n/a	10	[0, 0, 0]	-999	PAL1	3	R1118N
1250.768	1.033	1686249	TEST_ORIENT	n/a	n/a	2	2	PEAR	SKY	PEAR	FOG	10	[0, 0, 0]	-999	PAL1	3	R1118N
1251.801	0.001	1687282	TEST_PROBE	n/a	wordpools/wordpool_EN.txt	2	2	PEAR	SKY	PEAR	FOG	10	[0, 0, 0]	-999	PAL1	3	R1118N
1251.802	2.021	1687283	REC_START	n/a	n/a	2	-999	n/a	SKY	n/a	n/a	10	[0, 0, 0]	-999	PAL1	3	R1118N
1253.823	2.988	1689304	REC_EVENT	2021	n/a	2	2	PEAR	SKY	PEAR	FOG	10	[0, 0, 0]	-999	PAL1	3	R1118N
1256.811	0.008	1692292	REC_END	n/a	n/a	2	-999	n/a	n/a	n/a	n/a	10	[0, 0, 0]	-999	PAL1	3	R1118N
1256.819	0.866	1692300	TEST_ORIENT	n/a	n/a	3	3	MAIL	FLEA	OAK	MAIL	10	[0, 0, 0]	-999	PAL1	3	R1118N
1257.685	0.0	1693166	TEST_PROBE	n/a	wordpools/wordpool_EN.txt	3	3	MAIL	FLEA	OAK	MAIL	10	[0, 0, 0]	-999	PAL1	3	R1118N
1257.685	2.305	1693166	REC_START	n/a	n/a	3	-999	n/a	FLEA	n/a	n/a	10	[0, 0, 0]	-999	PAL1	3	R1118N
1259.99	2.712	1695471	REC_EVENT	2305	n/a	3	3	MAIL	FLEA	OAK	MAIL	10	[0, 0, 0]	-999	PAL1	3	R1118N
1262.702	0.018	1698183	REC_END	n/a	n/a	3	-999	n/a	n/a	n/a	n/a	10	[0, 0, 0]	-999	PAL1	3	R1118N
1262.72	0.849	1698201	TEST_ORIENT	n/a	n/a	6	4	WORM	MAZE	WORM	FORT	10	[0, 0, 0]	-999	PAL1	3	R1118N
1263.569	0.001	1699050	TEST_PROBE	n/a	wordpools/wordpool_EN.txt	6	4	WORM	MAZE	WORM	FORT	10	[0, 0, 0]	-999	PAL1	3	R1118N
1263.57	3.094	1699051	REC_START	n/a	n/a	6	-999	n/a	MAZE	n/a	n/a	10	[0, 0, 0]	-999	PAL1	3	R1118N
1266.664	1.922	1702144	REC_EVENT	3094	n/a	6	4	WORM	MAZE	WORM	FORT	10	[0, 0, 0]	-999	PAL1	3	R1118N
1268.586	0.017	1704066	REC_END	n/a	n/a	6	-999	n/a	n/a	n/a	n/a	10	[0, 0, 0]	-999	PAL1	3	R1118N
1268.603	1.001	1704083	TEST_ORIENT	n/a	n/a	1	5	SEA	SALT	PANTS	SEA	10	[0, 0, 0]	-999	PAL1	3	R1118N
1269.604	0.0	1705084	TEST_PROBE	n/a	wordpools/wordpool_EN.txt	1	5	SEA	SALT	PANTS	SEA	10	[0, 0, 0]	-999	PAL1	3	R1118N
1269.604	3.561	1705084	REC_START	n/a	n/a	1	-999	n/a	SALT	n/a	n/a	10	[0, 0, 0]	-999	PAL1	3	R1118N
1273.165	1.456	1708645	REC_EVENT	3561	n/a	1	5	SEA	SALT	PANTS	SEA	10	[0, 0, 0]	-999	PAL1	3	R1118N
1274.621	0.017	1710101	REC_END	n/a	n/a	1	-999	n/a	n/a	n/a	n/a	10	[0, 0, 0]	-999	PAL1	3	R1118N
1274.638	1.017	1710118	TEST_ORIENT	n/a	n/a	4	6	WHALE	n/a	WHALE	HILL	10	[0, 0, 0]	-999	PAL1	3	R1118N
1275.655	0.0	1711135	TEST_PROBE	n/a	wordpools/wordpool_EN.txt	4	6	WHALE	n/a	WHALE	HILL	10	[0, 0, 0]	-999	PAL1	3	R1118N
1275.655	2.79	1711135	REC_START	n/a	n/a	4	-999	n/a	n/a	n/a	n/a	10	[0, 0, 0]	-999	PAL1	3	R1118N
1278.445	2.236	1713925	REC_EVENT	2790	n/a	4	6	WHALE	<>	WHALE	HILL	10	[0, 0, 0]	-999	PAL1	3	R1118N
1280.681	0.024	1716161	REC_END	n/a	n/a	4	-999	n/a	n/a	n/a	n/a	10	[0, 0, 0]	-999	PAL1	3	R1118N
1280.705	9.578	1716185	FEEDBACK_SHOW_ALL_PAIRS	n/a	n/a	4	-999	n/a	n/a	n/a	n/a	10	[0, 0, 0]	-999	PAL1	3	R1118N
1290.283	10.443	1725763	ENCODING_START	n/a	n/a	0	-999	n/a	n/a	n/a	n/a	11	[0, 0, 0]	-999	PAL1	3	R1118N
1300.726	0.983	1736205	STUDY_ORIENT	n/a	n/a	1	5	WEB	SPY	LAMB	WEB	11	[0, 0, 0]	-999	PAL1	3	R1118N
1301.709	5.035	1737188	STUDY_PAIR	n/a	wordpools/wordpool_EN.txt	1	5	WEB	SPY	LAMB	WEB	11	[0, 0, 0]	-999	PAL1	3	R1118N
1306.744	0.984	1742223	STUDY_ORIENT	n/a	n/a	2	2	CLOTH	SPINE	SUIT	CLOTH	11	[0, 0, 0]	-999	PAL1	3	R1118N
1307.728	5.034	1743207	STUDY_PAIR	n/a	wordpools/wordpool_EN.txt	2	2	CLOTH	SPINE	SUIT	CLOTH	11	[0, 0, 0]	-999	PAL1	3	R1118N
1312.762	0.866	1748241	STUDY_ORIENT	n/a	n/a	3	3	LOCK	PLANE	WOLF	LOCK	11	[0, 0, 0]	-999	PAL1	3	R1118N
1313.628	5.034	1749107	STUDY_PAIR	n/a	wordpools/wordpool_EN.txt	3	3	LOCK	PLANE	WOLF	LOCK	11	[0, 0, 0]	-999	PAL1	3	R1118N
1318.662	0.833	1754140	STUDY_ORIENT	n/a	n/a	4	6	GEESE	BARN	TRAY	GEESE	11	[0, 0, 0]	-999	PAL1	3	R1118N
1319.495	5.018	1754973	STUDY_PAIR	n/a	wordpools/wordpool_EN.txt	4	6	GEESE	BARN	TRAY	GEESE	11	[0, 0, 0]	-999	PAL1	3	R1118N
1324.513	0.983	1759991	STUDY_ORIENT	n/a	n/a	5	1	LEAF	HAT	LEAF	HAT	11	[0, 0, 0]	-999	PAL1	3	R1118N
1325.496	5.018	1760974	STUDY_PAIR	n/a	wordpools/wordpool_EN.txt	5	1	LEAF	HAT	LEAF	HAT	11	[0, 0, 0]	-999	PAL1	3	R1118N
1330.514	0.783	1765992	STUDY_ORIENT	n/a	n/a	6	4	MOOSE	FINE	PLANE	MOOSE	11	[0, 0, 0]	-999	PAL1	3	R1118N
1331.297	4.001	1766775	STUDY_PAIR	n/a	wordpools/wordpool_EN.txt	6	4	MOOSE	FINE	PLANE	MOOSE	11	[0, 0, 0]	-999	PAL1	3	R1118N
1335.298	1.0	1770776	START	n/a	n/a	-999	-999	n/a	n/a	n/a	n/a	11	[-999, -999, -999]	-999	PAL1	3	R1118N
1336.298	0.017	1771776	MATH_START	n/a	n/a	-999	-999	n/a	n/a	n/a	n/a	11	[0, 0, 0]	-999	PAL1	3	R1118N
1336.315	2.383	1771793	PROB	2352	n/a	-999	-999	n/a	n/a	n/a	n/a	11	[2, 2, 1]	5	PAL1	3	R1118N
1338.698	12.719	1774176	PROB	12697	n/a	-999	-999	n/a	n/a	n/a	n/a	11	[6, 9, 7]	23	PAL1	3	R1118N
1351.417	2.251	1786894	PROB	2218	n/a	-999	-999	n/a	n/a	n/a	n/a	11	[1, 5, 6]	12	PAL1	3	R1118N
1353.668	5.319	1789145	PROB	5319	n/a	-999	-999	n/a	n/a	n/a	n/a	11	[6, 7, 7]	20	PAL1	3	R1118N
1358.987	0.015	1794464	STOP	n/a	n/a	-999	-999	n/a	n/a	n/a	n/a	11	[-999, -999, -999]	-999	PAL1	3	R1118N
1359.002	0.0	1794479	MATH_END	n/a	n/a	-999	-999	n/a	n/a	n/a	n/a	11	[0, 0, 0]	-999	PAL1	3	R1118N
1359.002	0.017	1794479	TEST_START	n/a	n/a	-999	-999	n/a	n/a	n/a	n/a	11	[0, 0, 0]	-999	PAL1	3	R1118N
1359.019	0.983	1794496	TEST_ORIENT	n/a	n/a	5	1	LEAF	HAT	LEAF	HAT	11	[0, 0, 0]	-999	PAL1	3	R1118N
1360.002	0.0	1795479	TEST_PROBE	n/a	wordpools/wordpool_EN.txt	5	1	LEAF	HAT	LEAF	HAT	11	[0, 0, 0]	-999	PAL1	3	R1118N
1360.002	1.668	1795479	REC_START	n/a	n/a	5	-999	n/a	HAT	n/a	n/a	11	[0, 0, 0]	-999	PAL1	3	R1118N
1361.67	3.349	1797147	REC_EVENT	1668	n/a	5	1	LEAF	HAT	LEAF	HAT	11	[0, 0, 0]	-999	PAL1	3	R1118N
1365.019	0.017	1800496	REC_END	n/a	n/a	5	-999	n/a	n/a	n/a	n/a	11	[0, 0, 0]	-999	PAL1	3	R1118N
1365.036	0.885	1800513	TEST_ORIENT	n/a	n/a	2	2	CLOTH	SPINE	SUIT	CLOTH	11	[0, 0, 0]	-999	PAL1	3	R1118N
1365.921	0.0	1801398	REC_START	n/a	n/a	2	-999	n/a	SPINE	n/a	n/a	11	[0, 0, 0]	-999	PAL1	3	R1118N
1365.921	3.034	1801398	TEST_PROBE	n/a	wordpools/wordpool_EN.txt	2	2	CLOTH	SPINE	SUIT	CLOTH	11	[0, 0, 0]	-999	PAL1	3	R1118N
1368.955	1.982	1804432	REC_EVENT	3034	n/a	2	2	CLOTH	SPINE	SUIT	CLOTH	11	[0, 0, 0]	-999	PAL1	3	R1118N
1370.937	0.017	1806414	REC_END	n/a	n/a	2	-999	n/a	n/a	n/a	n/a	11	[0, 0, 0]	-999	PAL1	3	R1118N
1370.954	0.968	1806431	TEST_ORIENT	n/a	n/a	3	3	LOCK	PLANE	WOLF	LOCK	11	[0, 0, 0]	-999	PAL1	3	R1118N
1371.922	0.0	1807399	TEST_PROBE	n/a	wordpools/wordpool_EN.txt	3	3	LOCK	PLANE	WOLF	LOCK	11	[0, 0, 0]	-999	PAL1	3	R1118N
1371.922	2.995	1807399	REC_START	n/a	n/a	3	-999	n/a	PLANE	n/a	n/a	11	[0, 0, 0]	-999	PAL1	3	R1118N
1374.917	2.021	1810393	REC_EVENT	2995	n/a	3	3	LOCK	PLANE	WOLF	LOCK	11	[0, 0, 0]	-999	PAL1	3	R1118N
1376.938	0.017	1812414	REC_END	n/a	n/a	3	-999	n/a	n/a	n/a	n/a	11	[0, 0, 0]	-999	PAL1	3	R1118N
1376.955	0.835	1812431	TEST_ORIENT	n/a	n/a	6	4	MOOSE	FINE	PLANE	MOOSE	11	[0, 0, 0]	-999	PAL1	3	R1118N
1377.79	0.0	1813266	REC_START	n/a	n/a	6	-999	n/a	FINE	n/a	n/a	11	[0, 0, 0]	-999	PAL1	3	R1118N
1377.79	2.927	1813266	TEST_PROBE	n/a	wordpools/wordpool_EN.txt	6	4	MOOSE	FINE	PLANE	MOOSE	11	[0, 0, 0]	-999	PAL1	3	R1118N
1380.717	2.099	1816193	REC_EVENT	2927	n/a	6	4	MOOSE	FINE	PLANE	MOOSE	11	[0, 0, 0]	-999	PAL1	3	R1118N
1382.816	0.008	1818292	REC_END	n/a	n/a	6	-999	n/a	n/a	n/a	n/a	11	[0, 0, 0]	-999	PAL1	3	R1118N
1382.824	0.866	1818300	TEST_ORIENT	n/a	n/a	1	5	WEB	SPY	LAMB	WEB	11	[0, 0, 0]	-999	PAL1	3	R1118N
1383.69	0.0	1819166	TEST_PROBE	n/a	wordpools/wordpool_EN.txt	1	5	WEB	SPY	LAMB	WEB	11	[0, 0, 0]	-999	PAL1	3	R1118N
1383.69	3.865	1819166	REC_START	n/a	n/a	1	-999	n/a	SPY	n/a	n/a	11	[0, 0, 0]	-999	PAL1	3	R1118N
1387.555	1.161	1823031	REC_EVENT	3865	n/a	1	5	WEB	SPY	LAMB	WEB	11	[0, 0, 0]	-999	PAL1	3	R1118N
1388.716	0.008	1824192	REC_END	n/a	n/a	1	-999	n/a	n/a	n/a	n/a	11	[0, 0, 0]	-999	PAL1	3	R1118N
1388.724	0.983	1824200	TEST_ORIENT	n/a	n/a	4	6	GEESE	BARN	TRAY	GEESE	11	[0, 0, 0]	-999	PAL1	3	R1118N
1389.707	0.001	1825183	TEST_PROBE	n/a	wordpools/wordpool_EN.txt	4	6	GEESE	BARN	TRAY	GEESE	11	[0, 0, 0]	-999	PAL1	3	R1118N
1389.708	3.444	1825184	REC_START	n/a	n/a	4	-999	n/a	BARN	n/a	n/a	11	[0, 0, 0]	-999	PAL1	3	R1118N
1393.152	1.583	1828628	REC_EVENT	3444	n/a	4	6	GEESE	BARN	TRAY	GEESE	11	[0, 0, 0]	-999	PAL1	3	R1118N
1394.735	0.024	1830211	REC_END	n/a	n/a	4	-999	n/a	n/a	n/a	n/a	11	[0, 0, 0]	-999	PAL1	3	R1118N
1394.759	10.5	1830235	FEEDBACK_SHOW_ALL_PAIRS	n/a	n/a	4	-999	n/a	n/a	n/a	n/a	11	[0, 0, 0]	-999	PAL1	3	R1118N
1405.259	10.453	1840734	ENCODING_START	n/a	n/a	0	-999	n/a	n/a	n/a	n/a	12	[0, 0, 0]	-999	PAL1	3	R1118N
1415.712	0.883	1851187	STUDY_ORIENT	n/a	n/a	1	3	BAND	SKY	SMOKE	BAND	12	[0, 0, 0]	-999	PAL1	3	R1118N
1416.595	5.034	1852070	STUDY_PAIR	n/a	wordpools/wordpool_EN.txt	1	3	BAND	SKY	SMOKE	BAND	12	[0, 0, 0]	-999	PAL1	3	R1118N
1421.629	0.967	1857104	STUDY_ORIENT	n/a	n/a	2	4	SHARK	LAND	FOOT	SHARK	12	[0, 0, 0]	-999	PAL1	3	R1118N
1422.596	5.034	1858071	STUDY_PAIR	n/a	wordpools/wordpool_EN.txt	2	4	SHARK	LAND	FOOT	SHARK	12	[0, 0, 0]	-999	PAL1	3	R1118N
1427.63	0.884	1863104	STUDY_ORIENT	n/a	n/a	3	1	VAN	TOAD	BEE	VAN	12	[0, 0, 0]	-999	PAL1	3	R1118N
1428.514	5.034	1863988	STUDY_PAIR	n/a	wordpools/wordpool_EN.txt	3	1	VAN	TOAD	BEE	VAN	12	[0, 0, 0]	-999	PAL1	3	R1118N
1433.548	0.933	1869022	STUDY_ORIENT	n/a	n/a	4	2	LAND	HOSE	LAND	SHOE	12	[0, 0, 0]	-999	PAL1	3	R1118N
1434.481	5.018	1869955	STUDY_PAIR	n/a	wordpools/wordpool_EN.txt	4	2	LAND	HOSE	LAND	SHOE	12	[0, 0, 0]	-999	PAL1	3	R1118N
1439.499	0.917	1874973	STUDY_ORIENT	n/a	n/a	5	5	CORD	HOSE	DOG	CORD	12	[0, 0, 0]	-999	PAL1	3	R1118N
1440.416	5.034	1875890	STUDY_PAIR	n/a	wordpools/wordpool_EN.txt	5	5	CORD	HOSE	DOG	CORD	12	[0, 0, 0]	-999	PAL1	3	R1118N
1445.45	0.883	1880924	STUDY_ORIENT	n/a	n/a	6	6	TOAD	BOOK	BOOK	TOAD	12	[0, 0, 0]	-999	PAL1	3	R1118N
1446.333	4.001	1881807	STUDY_PAIR	n/a	wordpools/wordpool_EN.txt	6	6	TOAD	BOOK	BOOK	TOAD	12	[0, 0, 0]	-999	PAL1	3	R1118N
1450.334	1.0	1885808	START	n/a	n/a	-999	-999	n/a	n/a	n/a	n/a	12	[-999, -999, -999]	-999	PAL1	3	R1118N
1451.334	0.017	1886808	MATH_START	n/a	n/a	-999	-999	n/a	n/a	n/a	n/a	12	[0, 0, 0]	-999	PAL1	3	R1118N
1451.351	3.917	1886825	PROB	3884	n/a	-999	-999	n/a	n/a	n/a	n/a	12	[2, 7, 9]	18	PAL1	3	R1118N
1455.268	2.817	1890741	PROB	2791	n/a	-999	-999	n/a	n/a	n/a	n/a	12	[7, 2, 9]	18	PAL1	3	R1118N
1458.085	3.835	1893558	PROB	3815	n/a	-999	-999	n/a	n/a	n/a	n/a	12	[5, 1, 9]	15	PAL1	3	R1118N
1461.92	4.617	1897393	PROB	4587	n/a	-999	-999	n/a	n/a	n/a	n/a	12	[4, 8, 1]	13	PAL1	3	R1118N
1466.537	4.834	1902010	PROB	4834	n/a	-999	-999	n/a	n/a	n/a	n/a	12	[9, 5, 2]	16	PAL1	3	R1118N
1471.371	0.017	1906844	STOP	n/a	n/a	-999	-999	n/a	n/a	n/a	n/a	12	[-999, -999, -999]	-999	PAL1	3	R1118N
1471.388	0.0	1906861	MATH_END	n/a	n/a	-999	-999	n/a	n/a	n/a	n/a	12	[0, 0, 0]	-999	PAL1	3	R1118N
1471.388	0.016	1906861	TEST_START	n/a	n/a	-999	-999	n/a	n/a	n/a	n/a	12	[0, 0, 0]	-999	PAL1	3	R1118N
1471.404	0.95	1906877	TEST_ORIENT	n/a	n/a	3	1	VAN	TOAD	BEE	VAN	12	[0, 0, 0]	-999	PAL1	3	R1118N
1472.354	0.001	1907827	TEST_PROBE	n/a	wordpools/wordpool_EN.txt	3	1	VAN	TOAD	BEE	VAN	12	[0, 0, 0]	-999	PAL1	3	R1118N
1472.355	2.924	1907828	REC_START	n/a	n/a	3	-999	n/a	TOAD	n/a	n/a	12	[0, 0, 0]	-999	PAL1	3	R1118N
1475.279	2.085	1910752	REC_EVENT	2924	n/a	3	1	VAN	TOAD	BEE	VAN	12	[0, 0, 0]	-999	PAL1	3	R1118N
1477.364	0.008	1912837	REC_END	n/a	n/a	3	-999	n/a	n/a	n/a	n/a	12	[0, 0, 0]	-999	PAL1	3	R1118N
1477.372	0.967	1912845	TEST_ORIENT	n/a	n/a	4	2	LAND	HOSE	LAND	SHOE	12	[0, 0, 0]	-999	PAL1	3	R1118N
1478.339	0.001	1913812	TEST_PROBE	n/a	wordpools/wordpool_EN.txt	4	2	LAND	HOSE	LAND	SHOE	12	[0, 0, 0]	-999	PAL1	3	R1118N
1478.34	3.059	1913813	REC_START	n/a	n/a	4	-999	n/a	HOSE	n/a	n/a	12	[0, 0, 0]	-999	PAL1	3	R1118N
1481.399	1.966	1916871	REC_EVENT	3059	n/a	4	2	LAND	HOSE	LAND	SHOE	12	[0, 0, 0]	-999	PAL1	3	R1118N
1483.365	0.008	1918837	REC_END	n/a	n/a	4	-999	n/a	n/a	n/a	n/a	12	[0, 0, 0]	-999	PAL1	3	R1118N
1483.373	0.8	1918845	TEST_ORIENT	n/a	n/a	1	3	BAND	SKY	SMOKE	BAND	12	[0, 0, 0]	-999	PAL1	3	R1118N
1484.173	0.001	1919645	TEST_PROBE	n/a	wordpools/wordpool_EN.txt	1	3	BAND	SKY	SMOKE	BAND	12	[0, 0, 0]	-999	PAL1	3	R1118N
1484.174	2.979	1919646	REC_START	n/a	n/a	1	-999	n/a	SKY	n/a	n/a	12	[0, 0, 0]	-999	PAL1	3	R1118N
1487.153	2.03	1922625	REC_EVENT	2979	n/a	1	3	BAND	SKY	SMOKE	BAND	12	[0, 0, 0]	-999	PAL1	3	R1118N
1489.183	0.007	1924655	REC_END	n/a	n/a	1	-999	n/a	n/a	n/a	n/a	12	[0, 0, 0]	-999	PAL1	3	R1118N
1489.19	0.984	1924662	TEST_ORIENT	n/a	n/a	2	4	SHARK	LAND	FOOT	SHARK	12	[0, 0, 0]	-999	PAL1	3	R1118N
1490.174	0.001	1925646	TEST_PROBE	n/a	wordpools/wordpool_EN.txt	2	4	SHARK	LAND	FOOT	SHARK	12	[0, 0, 0]	-999	PAL1	3	R1118N
1490.175	3.19	1925647	REC_START	n/a	n/a	2	-999	n/a	LAND	n/a	n/a	12	[0, 0, 0]	-999	PAL1	3	R1118N
1493.365	1.819	1928837	REC_EVENT	3190	n/a	2	4	SHARK	LAND	FOOT	SHARK	12	[0, 0, 0]	-999	PAL1	3	R1118N
1495.184	0.007	1930656	REC_END	n/a	n/a	2	-999	n/a	n/a	n/a	n/a	12	[0, 0, 0]	-999	PAL1	3	R1118N
1495.191	0.884	1930663	TEST_ORIENT	n/a	n/a	5	5	CORD	HOSE	DOG	CORD	12	[0, 0, 0]	-999	PAL1	3	R1118N
1496.075	0.001	1931547	TEST_PROBE	n/a	wordpools/wordpool_EN.txt	5	5	CORD	HOSE	DOG	CORD	12	[0, 0, 0]	-999	PAL1	3	R1118N
1496.076	3.861	1931548	REC_START	n/a	n/a	5	-999	n/a	HOSE	n/a	n/a	12	[0, 0, 0]	-999	PAL1	3	R1118N
1499.937	1.148	1935409	REC_EVENT	3861	n/a	5	5	CORD	HOSE	DOG	CORD	12	[0, 0, 0]	-999	PAL1	3	R1118N
1501.085	0.007	1936557	REC_END	n/a	n/a	5	-999	n/a	n/a	n/a	n/a	12	[0, 0, 0]	-999	PAL1	3	R1118N
1501.092	1.001	1936564	TEST_ORIENT	n/a	n/a	6	6	TOAD	BOOK	BOOK	TOAD	12	[0, 0, 0]	-999	PAL1	3	R1118N
1502.093	0.001	1937565	TEST_PROBE	n/a	wordpools/wordpool_EN.txt	6	6	TOAD	BOOK	BOOK	TOAD	12	[0, 0, 0]	-999	PAL1	3	R1118N
1502.094	2.317	1937566	REC_START	n/a	n/a	6	-999	n/a	BOOK	n/a	n/a	12	[0, 0, 0]	-999	PAL1	3	R1118N
1504.411	2.699	1939883	REC_EVENT	2317	n/a	6	6	TOAD	BOOK	BOOK	TOAD	12	[0, 0, 0]	-999	PAL1	3	R1118N
1507.11	0.034	1942581	REC_END	n/a	n/a	6	-999	n/a	n/a	n/a	n/a	12	[0, 0, 0]	-999	PAL1	3	R1118N
1507.144	9.652	1942615	FEEDBACK_SHOW_ALL_PAIRS	n/a	n/a	6	-999	n/a	n/a	n/a	n/a	12	[0, 0, 0]	-999	PAL1	3	R1118N
1516.796	10.451	1952267	ENCODING_START	n/a	n/a	0	-999	n/a	n/a	n/a	n/a	13	[0, 0, 0]	-999	PAL1	3	R1118N
1527.247	0.834	1962718	STUDY_ORIENT	n/a	n/a	1	1	SNAKE	BOAT	LIP	SNAKE	13	[0, 0, 0]	-999	PAL1	3	R1118N
1528.081	5.034	1963552	STUDY_PAIR	n/a	wordpools/wordpool_EN.txt	1	1	SNAKE	BOAT	LIP	SNAKE	13	[0, 0, 0]	-999	PAL1	3	R1118N
1533.115	1.0	1968585	STUDY_ORIENT	n/a	n/a	2	2	CANE	SKY	CUBE	CANE	13	[0, 0, 0]	-999	PAL1	3	R1118N
1534.115	5.034	1969585	STUDY_PAIR	n/a	wordpools/wordpool_EN.txt	2	2	CANE	SKY	CUBE	CANE	13	[0, 0, 0]	-999	PAL1	3	R1118N
1539.149	0.884	1974619	STUDY_ORIENT	n/a	n/a	3	5	DOCK	BOAT	ROCK	DOCK	13	[0, 0, 0]	-999	PAL1	3	R1118N
1540.033	5.034	1975503	STUDY_PAIR	n/a	wordpools/wordpool_EN.txt	3	5	DOCK	BOAT	ROCK	DOCK	13	[0, 0, 0]	-999	PAL1	3	R1118N
1545.067	0.817	1980537	STUDY_ORIENT	n/a	n/a	4	6	SOUP	GRAPE	SOUP	RAKE	13	[0, 0, 0]	-999	PAL1	3	R1118N
1545.884	5.018	1981354	STUDY_PAIR	n/a	wordpools/wordpool_EN.txt	4	6	SOUP	GRAPE	SOUP	RAKE	13	[0, 0, 0]	-999	PAL1	3	R1118N
1550.902	0.95	1986372	STUDY_ORIENT	n/a	n/a	5	3	GRAPE	CAPE	CAPE	GRAPE	13	[0, 0, 0]	-999	PAL1	3	R1118N
1551.852	5.018	1987322	STUDY_PAIR	n/a	wordpools/wordpool_EN.txt	5	3	GRAPE	CAPE	CAPE	GRAPE	13	[0, 0, 0]	-999	PAL1	3	R1118N
1556.87	0.95	1992340	STUDY_ORIENT	n/a	n/a	6	4	ZOO	n/a	ZOO	BOOT	13	[0, 0, 0]	-999	PAL1	3	R1118N
1557.82	4.018	1993290	STUDY_PAIR	n/a	wordpools/wordpool_EN.txt	6	4	ZOO	n/a	ZOO	BOOT	13	[0, 0, 0]	-999	PAL1	3	R1118N
1561.838	0.999	1997307	START	n/a	n/a	-999	-999	n/a	n/a	n/a	n/a	13	[-999, -999, -999]	-999	PAL1	3	R1118N
1562.837	0.017	1998306	MATH_START	n/a	n/a	-999	-999	n/a	n/a	n/a	n/a	13	[0, 0, 0]	-999	PAL1	3	R1118N
1562.854	2.6	1998323	PROB	2565	n/a	-999	-999	n/a	n/a	n/a	n/a	13	[6, 1, 6]	13	PAL1	3	R1118N
1565.454	2.368	2000923	PROB	2334	n/a	-999	-999	n/a	n/a	n/a	n/a	13	[4, 5, 5]	14	PAL1	3	R1118N
1567.822	8.617	2003291	PROB	8597	n/a	-999	-999	n/a	n/a	n/a	n/a	13	[7, 9, 7]	23	PAL1	3	R1118N
1576.439	7.764	2011908	PROB	7764	n/a	-999	-999	n/a	n/a	n/a	n/a	13	[9, 8, 8]	23	PAL1	3	R1118N
1584.203	0.004	2019672	STOP	n/a	n/a	-999	-999	n/a	n/a	n/a	n/a	13	[-999, -999, -999]	-999	PAL1	3	R1118N
1584.207	0.0	2019676	MATH_END	n/a	n/a	-999	-999	n/a	n/a	n/a	n/a	13	[0, 0, 0]	-999	PAL1	3	R1118N
1584.207	0.016	2019676	TEST_START	n/a	n/a	-999	-999	n/a	n/a	n/a	n/a	13	[0, 0, 0]	-999	PAL1	3	R1118N
1584.223	0.801	2019692	TEST_ORIENT	n/a	n/a	1	1	SNAKE	BOAT	LIP	SNAKE	13	[0, 0, 0]	-999	PAL1	3	R1118N
1585.024	0.0	2020493	TEST_PROBE	n/a	wordpools/wordpool_EN.txt	1	1	SNAKE	BOAT	LIP	SNAKE	13	[0, 0, 0]	-999	PAL1	3	R1118N
1585.024	2.926	2020493	REC_START	n/a	n/a	1	-999	n/a	BOAT	n/a	n/a	13	[0, 0, 0]	-999	PAL1	3	R1118N
1587.95	2.091	2023418	REC_EVENT	2926	n/a	1	1	SNAKE	BOAT	LIP	SNAKE	13	[0, 0, 0]	-999	PAL1	3	R1118N
1590.041	0.017	2025509	REC_END	n/a	n/a	1	-999	n/a	n/a	n/a	n/a	13	[0, 0, 0]	-999	PAL1	3	R1118N
1590.058	0.966	2025526	TEST_ORIENT	n/a	n/a	2	2	CANE	SKY	CUBE	CANE	13	[0, 0, 0]	-999	PAL1	3	R1118N
1591.024	0.001	2026492	TEST_PROBE	n/a	wordpools/wordpool_EN.txt	2	2	CANE	SKY	CUBE	CANE	13	[0, 0, 0]	-999	PAL1	3	R1118N
1591.025	1.973	2026493	REC_START	n/a	n/a	2	-999	n/a	SKY	n/a	n/a	13	[0, 0, 0]	-999	PAL1	3	R1118N
1592.998	3.036	2028466	REC_EVENT	1973	n/a	2	2	CANE	SKY	CUBE	CANE	13	[0, 0, 0]	-999	PAL1	3	R1118N
1596.034	0.008	2031502	REC_END	n/a	n/a	2	-999	n/a	n/a	n/a	n/a	13	[0, 0, 0]	-999	PAL1	3	R1118N
1596.042	1.0	2031510	TEST_ORIENT	n/a	n/a	5	3	GRAPE	CAPE	CAPE	GRAPE	13	[0, 0, 0]	-999	PAL1	3	R1118N
1597.042	0.001	2032510	TEST_PROBE	n/a	wordpools/wordpool_EN.txt	5	3	GRAPE	CAPE	CAPE	GRAPE	13	[0, 0, 0]	-999	PAL1	3	R1118N
1597.043	1.321	2032511	REC_START	n/a	n/a	5	-999	n/a	CAPE	n/a	n/a	13	[0, 0, 0]	-999	PAL1	3	R1118N
1598.364	3.689	2033832	REC_EVENT	1321	n/a	5	3	GRAPE	CAPE	CAPE	GRAPE	13	[0, 0, 0]	-999	PAL1	3	R1118N
1602.053	0.007	2037521	REC_END	n/a	n/a	5	-999	n/a	n/a	n/a	n/a	13	[0, 0, 0]	-999	PAL1	3	R1118N
1602.06	0.9	2037528	TEST_ORIENT	n/a	n/a	6	4	ZOO	n/a	ZOO	BOOT	13	[0, 0, 0]	-999	PAL1	3	R1118N
1602.96	0.0	2038428	TEST_PROBE	n/a	wordpools/wordpool_EN.txt	6	4	ZOO	n/a	ZOO	BOOT	13	[0, 0, 0]	-999	PAL1	3	R1118N
1602.96	3.299	2038428	REC_START	n/a	n/a	6	-999	n/a	n/a	n/a	n/a	13	[0, 0, 0]	-999	PAL1	3	R1118N
1606.259	1.718	2041727	REC_EVENT	3299	n/a	6	4	ZOO	<>	ZOO	BOOT	13	[0, 0, 0]	-999	PAL1	3	R1118N
1607.977	0.017	2043445	REC_END	n/a	n/a	6	-999	n/a	n/a	n/a	n/a	13	[0, 0, 0]	-999	PAL1	3	R1118N
1607.994	0.95	2043462	TEST_ORIENT	n/a	n/a	3	5	DOCK	BOAT	ROCK	DOCK	13	[0, 0, 0]	-999	PAL1	3	R1118N
1608.944	0.001	2044412	TEST_PROBE	n/a	wordpools/wordpool_EN.txt	3	5	DOCK	BOAT	ROCK	DOCK	13	[0, 0, 0]	-999	PAL1	3	R1118N
1608.945	2.594	2044413	REC_START	n/a	n/a	3	-999	n/a	BOAT	n/a	n/a	13	[0, 0, 0]	-999	PAL1	3	R1118N
1611.539	2.416	2047007	REC_EVENT	2594	n/a	3	5	DOCK	BOAT	ROCK	DOCK	13	[0, 0, 0]	-999	PAL1	3	R1118N
1613.955	0.007	2049422	REC_END	n/a	n/a	3	-999	n/a	n/a	n/a	n/a	13	[0, 0, 0]	-999	PAL1	3	R1118N
1613.962	0.983	2049429	TEST_ORIENT	n/a	n/a	4	6	SOUP	GRAPE	SOUP	RAKE	13	[0, 0, 0]	-999	PAL1	3	R1118N
1614.945	0.001	2050412	TEST_PROBE	n/a	wordpools/wordpool_EN.txt	4	6	SOUP	GRAPE	SOUP	RAKE	13	[0, 0, 0]	-999	PAL1	3	R1118N
1614.946	2.547	2050413	REC_START	n/a	n/a	4	-999	n/a	GRAPE	n/a	n/a	13	[0, 0, 0]	-999	PAL1	3	R1118N
1617.493	2.462	2052960	REC_EVENT	2547	n/a	4	6	SOUP	GRAPE	SOUP	RAKE	13	[0, 0, 0]	-999	PAL1	3	R1118N
1619.955	0.024	2055422	REC_END	n/a	n/a	4	-999	n/a	n/a	n/a	n/a	13	[0, 0, 0]	-999	PAL1	3	R1118N
1619.979	9.696	2055446	FEEDBACK_SHOW_ALL_PAIRS	n/a	n/a	4	-999	n/a	n/a	n/a	n/a	13	[0, 0, 0]	-999	PAL1	3	R1118N
1629.675	10.441	2065142	ENCODING_START	n/a	n/a	0	-999	n/a	n/a	n/a	n/a	14	[0, 0, 0]	-999	PAL1	3	R1118N
1640.116	0.834	2075583	STUDY_ORIENT	n/a	n/a	1	1	TAIL	FLAG	TAIL	BOMB	14	[0, 0, 0]	-999	PAL1	3	R1118N
1640.95	5.034	2076416	STUDY_PAIR	n/a	wordpools/wordpool_EN.txt	1	1	TAIL	FLAG	TAIL	BOMB	14	[0, 0, 0]	-999	PAL1	3	R1118N
1645.984	0.818	2081450	STUDY_ORIENT	n/a	n/a	2	2	FLAG	TOUCH	FLAG	POOL	14	[0, 0, 0]	-999	PAL1	3	R1118N
1646.802	5.034	2082268	STUDY_PAIR	n/a	wordpools/wordpool_EN.txt	2	2	FLAG	TOUCH	FLAG	POOL	14	[0, 0, 0]	-999	PAL1	3	R1118N
1651.836	0.882	2087302	STUDY_ORIENT	n/a	n/a	3	5	LAWN	HOLE	LAWN	HOLE	14	[0, 0, 0]	-999	PAL1	3	R1118N
1652.718	5.019	2088184	STUDY_PAIR	n/a	wordpools/wordpool_EN.txt	3	5	LAWN	HOLE	LAWN	HOLE	14	[0, 0, 0]	-999	PAL1	3	R1118N
1657.737	0.866	2093203	STUDY_ORIENT	n/a	n/a	4	6	VEST	SNAKE	VEST	DEER	14	[0, 0, 0]	-999	PAL1	3	R1118N
1658.603	5.034	2094069	STUDY_PAIR	n/a	wordpools/wordpool_EN.txt	4	6	VEST	SNAKE	VEST	DEER	14	[0, 0, 0]	-999	PAL1	3	R1118N
1663.637	1.0	2099103	STUDY_ORIENT	n/a	n/a	5	3	CAKE	SKY	HORN	CAKE	14	[0, 0, 0]	-999	PAL1	3	R1118N
1664.637	5.034	2100103	STUDY_PAIR	n/a	wordpools/wordpool_EN.txt	5	3	CAKE	SKY	HORN	CAKE	14	[0, 0, 0]	-999	PAL1	3	R1118N
1669.671	0.884	2105136	STUDY_ORIENT	n/a	n/a	6	4	EAR	RICE	SNOW	EAR	14	[0, 0, 0]	-999	PAL1	3	R1118N
1670.555	4.017	2106020	STUDY_PAIR	n/a	wordpools/wordpool_EN.txt	6	4	EAR	RICE	SNOW	EAR	14	[0, 0, 0]	-999	PAL1	3	R1118N
1674.572	1.0	2110037	START	n/a	n/a	-999	-999	n/a	n/a	n/a	n/a	14	[-999, -999, -999]	-999	PAL1	3	R1118N
1675.572	0.017	2111037	MATH_START	n/a	n/a	-999	-999	n/a	n/a	n/a	n/a	14	[0, 0, 0]	-999	PAL1	3	R1118N
1675.589	7.252	2111054	PROB	7223	n/a	-999	-999	n/a	n/a	n/a	n/a	14	[6, 4, 9]	19	PAL1	3	R1118N
1682.841	2.633	2118306	PROB	2602	n/a	-999	-999	n/a	n/a	n/a	n/a	14	[7, 5, 2]	14	PAL1	3	R1118N
1685.474	5.534	2120939	PROB	5513	n/a	-999	-999	n/a	n/a	n/a	n/a	14	[5, 6, 6]	17	PAL1	3	R1118N
1691.008	2.351	2126473	PROB	2323	n/a	-999	-999	n/a	n/a	n/a	n/a	14	[8, 1, 2]	11	PAL1	3	R1118N
1693.359	2.052	2128824	PROB	2052	n/a	-999	-999	n/a	n/a	n/a	n/a	14	[5, 3, 1]	8	PAL1	3	R1118N
1695.411	0.015	2130875	STOP	n/a	n/a	-999	-999	n/a	n/a	n/a	n/a	14	[-999, -999, -999]	-999	PAL1	3	R1118N
1695.426	0.0	2130890	MATH_END	n/a	n/a	-999	-999	n/a	n/a	n/a	n/a	14	[0, 0, 0]	-999	PAL1	3	R1118N
1695.426	0.016	2130890	TEST_START	n/a	n/a	-999	-999	n/a	n/a	n/a	n/a	14	[0, 0, 0]	-999	PAL1	3	R1118N
1695.442	0.934	2130906	TEST_ORIENT	n/a	n/a	1	1	TAIL	FLAG	TAIL	BOMB	14	[0, 0, 0]	-999	PAL1	3	R1118N
1696.376	0.001	2131840	TEST_PROBE	n/a	wordpools/wordpool_EN.txt	1	1	TAIL	FLAG	TAIL	BOMB	14	[0, 0, 0]	-999	PAL1	3	R1118N
1696.377	3.188	2131841	REC_START	n/a	n/a	1	-999	n/a	FLAG	n/a	n/a	14	[0, 0, 0]	-999	PAL1	3	R1118N
1699.565	1.837	2135029	REC_EVENT	3188	n/a	1	1	TAIL	FLAG	TAIL	BOMB	14	[0, 0, 0]	-999	PAL1	3	R1118N
1701.402	0.008	2136866	REC_END	n/a	n/a	1	-999	n/a	n/a	n/a	n/a	14	[0, 0, 0]	-999	PAL1	3	R1118N
1701.41	0.967	2136874	TEST_ORIENT	n/a	n/a	2	2	FLAG	TOUCH	FLAG	POOL	14	[0, 0, 0]	-999	PAL1	3	R1118N
1702.377	0.0	2137841	TEST_PROBE	n/a	wordpools/wordpool_EN.txt	2	2	FLAG	TOUCH	FLAG	POOL	14	[0, 0, 0]	-999	PAL1	3	R1118N
1702.377	2.436	2137841	REC_START	n/a	n/a	2	-999	n/a	TOUCH	n/a	n/a	14	[0, 0, 0]	-999	PAL1	3	R1118N
1704.813	2.581	2140277	REC_EVENT	2436	n/a	2	2	FLAG	TOUCH	FLAG	POOL	14	[0, 0, 0]	-999	PAL1	3	R1118N
1707.394	0.017	2142858	REC_END	n/a	n/a	2	-999	n/a	n/a	n/a	n/a	14	[0, 0, 0]	-999	PAL1	3	R1118N
1707.411	0.917	2142875	TEST_ORIENT	n/a	n/a	5	3	CAKE	SKY	HORN	CAKE	14	[0, 0, 0]	-999	PAL1	3	R1118N
1708.328	0.0	2143792	TEST_PROBE	n/a	wordpools/wordpool_EN.txt	5	3	CAKE	SKY	HORN	CAKE	14	[0, 0, 0]	-999	PAL1	3	R1118N
1708.328	2.59	2143792	REC_START	n/a	n/a	5	-999	n/a	SKY	n/a	n/a	14	[0, 0, 0]	-999	PAL1	3	R1118N
1710.918	2.427	2146382	REC_EVENT	2590	n/a	5	3	CAKE	SKY	HORN	CAKE	14	[0, 0, 0]	-999	PAL1	3	R1118N
1713.345	0.017	2148809	REC_END	n/a	n/a	5	-999	n/a	n/a	n/a	n/a	14	[0, 0, 0]	-999	PAL1	3	R1118N
1713.362	0.967	2148826	TEST_ORIENT	n/a	n/a	6	4	EAR	RICE	SNOW	EAR	14	[0, 0, 0]	-999	PAL1	3	R1118N
1714.329	0.0	2149793	TEST_PROBE	n/a	wordpools/wordpool_EN.txt	6	4	EAR	RICE	SNOW	EAR	14	[0, 0, 0]	-999	PAL1	3	R1118N
1714.329	2.981	2149793	REC_START	n/a	n/a	6	-999	n/a	RICE	n/a	n/a	14	[0, 0, 0]	-999	PAL1	3	R1118N
1717.31	2.036	2152774	REC_EVENT	2981	n/a	6	4	EAR	RICE	SNOW	EAR	14	[0, 0, 0]	-999	PAL1	3	R1118N
1719.346	0.017	2154810	REC_END	n/a	n/a	6	-999	n/a	n/a	n/a	n/a	14	[0, 0, 0]	-999	PAL1	3	R1118N
1719.363	1.0	2154827	TEST_ORIENT	n/a	n/a	3	5	LAWN	HOLE	LAWN	HOLE	14	[0, 0, 0]	-999	PAL1	3	R1118N
1720.363	0.001	2155827	TEST_PROBE	n/a	wordpools/wordpool_EN.txt	3	5	LAWN	HOLE	LAWN	HOLE	14	[0, 0, 0]	-999	PAL1	3	R1118N
1720.364	1.962	2155828	REC_START	n/a	n/a	3	-999	n/a	HOLE	n/a	n/a	14	[0, 0, 0]	-999	PAL1	3	R1118N
1722.326	3.063	2157789	REC_EVENT	1962	n/a	3	5	LAWN	HOLE	LAWN	HOLE	14	[0, 0, 0]	-999	PAL1	3	R1118N
1725.389	0.008	2160852	REC_END	n/a	n/a	3	-999	n/a	n/a	n/a	n/a	14	[0, 0, 0]	-999	PAL1	3	R1118N
1725.397	0.9	2160860	TEST_ORIENT	n/a	n/a	4	6	VEST	SNAKE	VEST	DEER	14	[0, 0, 0]	-999	PAL1	3	R1118N
1726.297	0.001	2161760	TEST_PROBE	n/a	wordpools/wordpool_EN.txt	4	6	VEST	SNAKE	VEST	DEER	14	[0, 0, 0]	-999	PAL1	3	R1118N
1726.298	1.959	2161761	REC_START	n/a	n/a	4	-999	n/a	SNAKE	n/a	n/a	14	[0, 0, 0]	-999	PAL1	3	R1118N
1728.257	3.05	2163720	REC_EVENT	1959	n/a	4	6	VEST	SNAKE	VEST	DEER	14	[0, 0, 0]	-999	PAL1	3	R1118N
1731.307	0.024	2166770	REC_END	n/a	n/a	4	-999	n/a	n/a	n/a	n/a	14	[0, 0, 0]	-999	PAL1	3	R1118N
1731.331	9.992	2166794	FEEDBACK_SHOW_ALL_PAIRS	n/a	n/a	4	-999	n/a	n/a	n/a	n/a	14	[0, 0, 0]	-999	PAL1	3	R1118N
1741.323	10.446	2176786	ENCODING_START	n/a	n/a	0	-999	n/a	n/a	n/a	n/a	15	[0, 0, 0]	-999	PAL1	3	R1118N
1751.769	0.833	2187231	STUDY_ORIENT	n/a	n/a	1	5	TEA	STEAM	CONE	TEA	15	[0, 0, 0]	-999	PAL1	3	R1118N
1752.602	5.034	2188064	STUDY_PAIR	n/a	wordpools/wordpool_EN.txt	1	5	TEA	STEAM	CONE	TEA	15	[0, 0, 0]	-999	PAL1	3	R1118N
1757.636	0.95	2193098	STUDY_ORIENT	n/a	n/a	2	2	FISH	BLOOM	SHIRT	FISH	15	[0, 0, 0]	-999	PAL1	3	R1118N
1758.586	5.018	2194048	STUDY_PAIR	n/a	wordpools/wordpool_EN.txt	2	2	FISH	BLOOM	SHIRT	FISH	15	[0, 0, 0]	-999	PAL1	3	R1118N
1763.604	1.0	2199066	STUDY_ORIENT	n/a	n/a	3	3	PEA	SMALL	PEA	CHIEF	15	[0, 0, 0]	-999	PAL1	3	R1118N
1764.604	5.034	2200066	STUDY_PAIR	n/a	wordpools/wordpool_EN.txt	3	3	PEA	SMALL	PEA	CHIEF	15	[0, 0, 0]	-999	PAL1	3	R1118N
1769.638	1.0	2205100	STUDY_ORIENT	n/a	n/a	4	4	BADGE	FISH	PEACH	BADGE	15	[0, 0, 0]	-999	PAL1	3	R1118N
1770.638	5.018	2206100	STUDY_PAIR	n/a	wordpools/wordpool_EN.txt	4	4	BADGE	FISH	PEACH	BADGE	15	[0, 0, 0]	-999	PAL1	3	R1118N
1775.656	0.95	2211117	STUDY_ORIENT	n/a	n/a	5	1	TIE	STEAM	TIE	STEAM	15	[0, 0, 0]	-999	PAL1	3	R1118N
1776.606	5.034	2212067	STUDY_PAIR	n/a	wordpools/wordpool_EN.txt	5	1	TIE	STEAM	TIE	STEAM	15	[0, 0, 0]	-999	PAL1	3	R1118N
1781.64	0.85	2217101	STUDY_ORIENT	n/a	n/a	6	6	BLOOM	ROSE	STORE	BLOOM	15	[0, 0, 0]	-999	PAL1	3	R1118N
1782.49	4.002	2217951	STUDY_PAIR	n/a	wordpools/wordpool_EN.txt	6	6	BLOOM	ROSE	STORE	BLOOM	15	[0, 0, 0]	-999	PAL1	3	R1118N
1786.492	0.999	2221953	START	n/a	n/a	-999	-999	n/a	n/a	n/a	n/a	15	[-999, -999, -999]	-999	PAL1	3	R1118N
1787.491	0.017	2222952	MATH_START	n/a	n/a	-999	-999	n/a	n/a	n/a	n/a	15	[0, 0, 0]	-999	PAL1	3	R1118N
1787.508	5.867	2222969	PROB	5847	n/a	-999	-999	n/a	n/a	n/a	n/a	15	[7, 8, 7]	22	PAL1	3	R1118N
1793.375	2.851	2228836	PROB	2820	n/a	-999	-999	n/a	n/a	n/a	n/a	15	[2, 7, 7]	16	PAL1	3	R1118N
1796.226	3.618	2231687	PROB	3594	n/a	-999	-999	n/a	n/a	n/a	n/a	15	[7, 4, 3]	14	PAL1	3	R1118N
1799.844	2.783	2235305	PROB	2751	n/a	-999	-999	n/a	n/a	n/a	n/a	15	[2, 8, 4]	14	PAL1	3	R1118N
1802.627	2.285	2238087	PROB	2265	n/a	-999	-999	n/a	n/a	n/a	n/a	15	[1, 2, 5]	8	PAL1	3	R1118N
1804.912	7.411	2240372	PROB	7411	n/a	-999	-999	n/a	n/a	n/a	n/a	15	[7, 4, 9]	20	PAL1	3	R1118N
1812.323	0.006	2247783	STOP	n/a	n/a	-999	-999	n/a	n/a	n/a	n/a	15	[-999, -999, -999]	-999	PAL1	3	R1118N
1812.329	0.0	2247789	MATH_END	n/a	n/a	-999	-999	n/a	n/a	n/a	n/a	15	[0, 0, 0]	-999	PAL1	3	R1118N
1812.329	0.016	2247789	TEST_START	n/a	n/a	-999	-999	n/a	n/a	n/a	n/a	15	[0, 0, 0]	-999	PAL1	3	R1118N
1812.345	0.8	2247805	TEST_ORIENT	n/a	n/a	5	1	TIE	STEAM	TIE	STEAM	15	[0, 0, 0]	-999	PAL1	3	R1118N
1813.145	0.001	2248605	TEST_PROBE	n/a	wordpools/wordpool_EN.txt	5	1	TIE	STEAM	TIE	STEAM	15	[0, 0, 0]	-999	PAL1	3	R1118N
1813.146	1.472	2248606	REC_START	n/a	n/a	5	-999	n/a	STEAM	n/a	n/a	15	[0, 0, 0]	-999	PAL1	3	R1118N
1814.618	3.537	2250078	REC_EVENT	1472	n/a	5	1	TIE	STEAM	TIE	STEAM	15	[0, 0, 0]	-999	PAL1	3	R1118N
1818.155	0.008	2253615	REC_END	n/a	n/a	5	-999	n/a	n/a	n/a	n/a	15	[0, 0, 0]	-999	PAL1	3	R1118N
1818.163	0.867	2253623	TEST_ORIENT	n/a	n/a	2	2	FISH	BLOOM	SHIRT	FISH	15	[0, 0, 0]	-999	PAL1	3	R1118N
1819.03	0.0	2254490	TEST_PROBE	n/a	wordpools/wordpool_EN.txt	2	2	FISH	BLOOM	SHIRT	FISH	15	[0, 0, 0]	-999	PAL1	3	R1118N
1819.03	2.658	2254490	REC_START	n/a	n/a	2	-999	n/a	BLOOM	n/a	n/a	15	[0, 0, 0]	-999	PAL1	3	R1118N
1821.688	2.359	2257148	REC_EVENT	2658	n/a	2	2	FISH	BLOOM	SHIRT	FISH	15	[0, 0, 0]	-999	PAL1	3	R1118N
1824.047	0.017	2259507	REC_END	n/a	n/a	2	-999	n/a	n/a	n/a	n/a	15	[0, 0, 0]	-999	PAL1	3	R1118N
1824.064	0.9	2259524	TEST_ORIENT	n/a	n/a	3	3	PEA	SMALL	PEA	CHIEF	15	[0, 0, 0]	-999	PAL1	3	R1118N
1824.964	0.001	2260424	TEST_PROBE	n/a	wordpools/wordpool_EN.txt	3	3	PEA	SMALL	PEA	CHIEF	15	[0, 0, 0]	-999	PAL1	3	R1118N
1824.965	2.73	2260425	REC_START	n/a	n/a	3	-999	n/a	SMALL	n/a	n/a	15	[0, 0, 0]	-999	PAL1	3	R1118N
1827.695	2.286	2263155	REC_EVENT	2730	n/a	3	3	PEA	SMALL	PEA	CHIEF	15	[0, 0, 0]	-999	PAL1	3	R1118N
1829.981	0.017	2265440	REC_END	n/a	n/a	3	-999	n/a	n/a	n/a	n/a	15	[0, 0, 0]	-999	PAL1	3	R1118N
1829.998	1.017	2265457	TEST_ORIENT	n/a	n/a	4	4	BADGE	FISH	PEACH	BADGE	15	[0, 0, 0]	-999	PAL1	3	R1118N
1831.015	0.001	2266474	TEST_PROBE	n/a	wordpools/wordpool_EN.txt	4	4	BADGE	FISH	PEACH	BADGE	15	[0, 0, 0]	-999	PAL1	3	R1118N
1831.016	2.293	2266475	REC_START	n/a	n/a	4	-999	n/a	FISH	n/a	n/a	15	[0, 0, 0]	-999	PAL1	3	R1118N
1833.309	2.723	2268768	REC_EVENT	2293	n/a	4	4	BADGE	FISH	PEACH	BADGE	15	[0, 0, 0]	-999	PAL1	3	R1118N
1836.032	0.017	2271491	REC_END	n/a	n/a	4	-999	n/a	n/a	n/a	n/a	15	[0, 0, 0]	-999	PAL1	3	R1118N
1836.049	0.835	2271508	TEST_ORIENT	n/a	n/a	1	5	TEA	STEAM	CONE	TEA	15	[0, 0, 0]	-999	PAL1	3	R1118N
1836.884	0.0	2272343	REC_START	n/a	n/a	1	-999	n/a	STEAM	n/a	n/a	15	[0, 0, 0]	-999	PAL1	3	R1118N
1836.884	2.828	2272343	TEST_PROBE	n/a	wordpools/wordpool_EN.txt	1	5	TEA	STEAM	CONE	TEA	15	[0, 0, 0]	-999	PAL1	3	R1118N
1839.712	2.189	2275171	REC_EVENT	2828	n/a	1	5	TEA	STEAM	CONE	TEA	15	[0, 0, 0]	-999	PAL1	3	R1118N
1841.901	0.017	2277360	REC_END	n/a	n/a	1	-999	n/a	n/a	n/a	n/a	15	[0, 0, 0]	-999	PAL1	3	R1118N
1841.918	0.983	2277377	TEST_ORIENT	n/a	n/a	6	6	BLOOM	ROSE	STORE	BLOOM	15	[0, 0, 0]	-999	PAL1	3	R1118N
1842.901	0.001	2278360	TEST_PROBE	n/a	wordpools/wordpool_EN.txt	6	6	BLOOM	ROSE	STORE	BLOOM	15	[0, 0, 0]	-999	PAL1	3	R1118N
1842.902	1.887	2278361	REC_START	n/a	n/a	6	-999	n/a	ROSE	n/a	n/a	15	[0, 0, 0]	-999	PAL1	3	R1118N
1844.789	3.122	2280248	REC_EVENT	1887	n/a	6	6	BLOOM	ROSE	STORE	BLOOM	15	[0, 0, 0]	-999	PAL1	3	R1118N
1847.911	0.024	2283370	REC_END	n/a	n/a	6	-999	n/a	n/a	n/a	n/a	15	[0, 0, 0]	-999	PAL1	3	R1118N
1847.935	9.797	2283394	FEEDBACK_SHOW_ALL_PAIRS	n/a	n/a	6	-999	n/a	n/a	n/a	n/a	15	[0, 0, 0]	-999	PAL1	3	R1118N
1857.732	10.439	2293190	ENCODING_START	n/a	n/a	0	-999	n/a	n/a	n/a	n/a	16	[0, 0, 0]	-999	PAL1	3	R1118N
1868.171	0.851	2303629	STUDY_ORIENT	n/a	n/a	1	5	STONE	SKY	STONE	NEST	16	[0, 0, 0]	-999	PAL1	3	R1118N
1869.022	5.034	2304480	STUDY_PAIR	n/a	wordpools/wordpool_EN.txt	1	5	STONE	SKY	STONE	NEST	16	[0, 0, 0]	-999	PAL1	3	R1118N
1874.056	0.983	2309514	STUDY_ORIENT	n/a	n/a	2	4	STEAK	SPEAR	SPONGE	STEAK	16	[0, 0, 0]	-999	PAL1	3	R1118N
1875.039	5.018	2310497	STUDY_PAIR	n/a	wordpools/wordpool_EN.txt	2	4	STEAK	SPEAR	SPONGE	STEAK	16	[0, 0, 0]	-999	PAL1	3	R1118N
1880.057	0.851	2315515	STUDY_ORIENT	n/a	n/a	3	3	SHRIMP	SKY	SHRIMP	JAR	16	[0, 0, 0]	-999	PAL1	3	R1118N
1880.908	5.033	2316366	STUDY_PAIR	n/a	wordpools/wordpool_EN.txt	3	3	SHRIMP	SKY	SHRIMP	JAR	16	[0, 0, 0]	-999	PAL1	3	R1118N
1885.941	0.785	2321398	STUDY_ORIENT	n/a	n/a	4	2	BEAK	PIN	PIN	BEAK	16	[0, 0, 0]	-999	PAL1	3	R1118N
1886.726	5.034	2322183	STUDY_PAIR	n/a	wordpools/wordpool_EN.txt	4	2	BEAK	PIN	PIN	BEAK	16	[0, 0, 0]	-999	PAL1	3	R1118N
1891.76	0.916	2327217	STUDY_ORIENT	n/a	n/a	5	1	SPEAR	FISH	GLOVE	SPEAR	16	[0, 0, 0]	-999	PAL1	3	R1118N
1892.676	5.034	2328133	STUDY_PAIR	n/a	wordpools/wordpool_EN.txt	5	1	SPEAR	FISH	GLOVE	SPEAR	16	[0, 0, 0]	-999	PAL1	3	R1118N
1897.71	0.867	2333167	STUDY_ORIENT	n/a	n/a	6	6	BATH	n/a	BATH	ANT	16	[0, 0, 0]	-999	PAL1	3	R1118N
1898.577	4.018	2334034	STUDY_PAIR	n/a	wordpools/wordpool_EN.txt	6	6	BATH	n/a	BATH	ANT	16	[0, 0, 0]	-999	PAL1	3	R1118N
1902.595	0.999	2338052	START	n/a	n/a	-999	-999	n/a	n/a	n/a	n/a	16	[-999, -999, -999]	-999	PAL1	3	R1118N
1903.594	0.017	2339051	MATH_START	n/a	n/a	-999	-999	n/a	n/a	n/a	n/a	16	[0, 0, 0]	-999	PAL1	3	R1118N
1903.611	12.618	2339068	PROB	12584	n/a	-999	-999	n/a	n/a	n/a	n/a	16	[4, 8, 7]	19	PAL1	3	R1118N
1916.229	6.068	2351685	PROB	6038	n/a	-999	-999	n/a	n/a	n/a	n/a	16	[4, 8, 5]	17	PAL1	3	R1118N
1922.297	5.074	2357753	PROB	5074	n/a	-999	-999	n/a	n/a	n/a	n/a	16	[3, 1, 8]	12	PAL1	3	R1118N
1927.371	0.01	2362827	STOP	n/a	n/a	-999	-999	n/a	n/a	n/a	n/a	16	[-999, -999, -999]	-999	PAL1	3	R1118N
1927.381	0.0	2362837	MATH_END	n/a	n/a	-999	-999	n/a	n/a	n/a	n/a	16	[0, 0, 0]	-999	PAL1	3	R1118N
1927.381	0.017	2362837	TEST_START	n/a	n/a	-999	-999	n/a	n/a	n/a	n/a	16	[0, 0, 0]	-999	PAL1	3	R1118N
1927.398	0.984	2362854	TEST_ORIENT	n/a	n/a	5	1	SPEAR	FISH	GLOVE	SPEAR	16	[0, 0, 0]	-999	PAL1	3	R1118N
1928.382	0.0	2363838	TEST_PROBE	n/a	wordpools/wordpool_EN.txt	5	1	SPEAR	FISH	GLOVE	SPEAR	16	[0, 0, 0]	-999	PAL1	3	R1118N
1928.382	1.716	2363838	REC_START	n/a	n/a	5	-999	n/a	FISH	n/a	n/a	16	[0, 0, 0]	-999	PAL1	3	R1118N
1930.098	3.301	2365554	REC_EVENT	1716	n/a	5	1	SPEAR	FISH	GLOVE	SPEAR	16	[0, 0, 0]	-999	PAL1	3	R1118N
1933.399	0.017	2368855	REC_END	n/a	n/a	5	-999	n/a	n/a	n/a	n/a	16	[0, 0, 0]	-999	PAL1	3	R1118N
1933.416	0.867	2368872	TEST_ORIENT	n/a	n/a	4	2	BEAK	PIN	PIN	BEAK	16	[0, 0, 0]	-999	PAL1	3	R1118N
1934.283	0.0	2369739	TEST_PROBE	n/a	wordpools/wordpool_EN.txt	4	2	BEAK	PIN	PIN	BEAK	16	[0, 0, 0]	-999	PAL1	3	R1118N
1934.283	1.418	2369739	REC_START	n/a	n/a	4	-999	n/a	PIN	n/a	n/a	16	[0, 0, 0]	-999	PAL1	3	R1118N
1935.701	3.599	2371156	REC_EVENT	1418	n/a	4	2	BEAK	PIN	PIN	BEAK	16	[0, 0, 0]	-999	PAL1	3	R1118N
1939.3	0.017	2374755	REC_END	n/a	n/a	4	-999	n/a	n/a	n/a	n/a	16	[0, 0, 0]	-999	PAL1	3	R1118N
1939.317	0.866	2374772	TEST_ORIENT	n/a	n/a	3	3	SHRIMP	SKY	SHRIMP	JAR	16	[0, 0, 0]	-999	PAL1	3	R1118N
1940.183	0.001	2375638	TEST_PROBE	n/a	wordpools/wordpool_EN.txt	3	3	SHRIMP	SKY	SHRIMP	JAR	16	[0, 0, 0]	-999	PAL1	3	R1118N
1940.184	1.706	2375639	REC_START	n/a	n/a	3	-999	n/a	SKY	n/a	n/a	16	[0, 0, 0]	-999	PAL1	3	R1118N
1941.89	3.303	2377345	REC_EVENT	1706	n/a	3	3	SHRIMP	SKY	SHRIMP	JAR	16	[0, 0, 0]	-999	PAL1	3	R1118N
1945.193	0.008	2380648	REC_END	n/a	n/a	3	-999	n/a	n/a	n/a	n/a	16	[0, 0, 0]	-999	PAL1	3	R1118N
1945.201	1.0	2380656	TEST_ORIENT	n/a	n/a	2	4	STEAK	SPEAR	SPONGE	STEAK	16	[0, 0, 0]	-999	PAL1	3	R1118N
1946.201	0.001	2381656	TEST_PROBE	n/a	wordpools/wordpool_EN.txt	2	4	STEAK	SPEAR	SPONGE	STEAK	16	[0, 0, 0]	-999	PAL1	3	R1118N
1946.202	2.118	2381657	REC_START	n/a	n/a	2	-999	n/a	SPEAR	n/a	n/a	16	[0, 0, 0]	-999	PAL1	3	R1118N
1948.32	2.891	2383775	REC_EVENT	2118	n/a	2	4	STEAK	SPEAR	SPONGE	STEAK	16	[0, 0, 0]	-999	PAL1	3	R1118N
1951.211	0.007	2386666	REC_END	n/a	n/a	2	-999	n/a	n/a	n/a	n/a	16	[0, 0, 0]	-999	PAL1	3	R1118N
1951.218	0.784	2386673	TEST_ORIENT	n/a	n/a	1	5	STONE	SKY	STONE	NEST	16	[0, 0, 0]	-999	PAL1	3	R1118N
1952.002	0.001	2387457	TEST_PROBE	n/a	wordpools/wordpool_EN.txt	1	5	STONE	SKY	STONE	NEST	16	[0, 0, 0]	-999	PAL1	3	R1118N
1952.003	3.604	2387458	REC_START	n/a	n/a	1	-999	n/a	SKY	n/a	n/a	16	[0, 0, 0]	-999	PAL1	3	R1118N
1955.607	1.405	2391062	REC_EVENT	3604	n/a	1	5	STONE	SKY	STONE	NEST	16	[0, 0, 0]	-999	PAL1	3	R1118N
1957.012	0.007	2392467	REC_END	n/a	n/a	1	-999	n/a	n/a	n/a	n/a	16	[0, 0, 0]	-999	PAL1	3	R1118N
1957.019	0.968	2392474	TEST_ORIENT	n/a	n/a	6	6	BATH	n/a	BATH	ANT	16	[0, 0, 0]	-999	PAL1	3	R1118N
1957.987	0.0	2393442	TEST_PROBE	n/a	wordpools/wordpool_EN.txt	6	6	BATH	n/a	BATH	ANT	16	[0, 0, 0]	-999	PAL1	3	R1118N
1957.987	2.497	2393442	REC_START	n/a	n/a	6	-999	n/a	n/a	n/a	n/a	16	[0, 0, 0]	-999	PAL1	3	R1118N
1960.484	2.52	2395939	REC_EVENT	2497	n/a	6	6	BATH	<>	BATH	ANT	16	[0, 0, 0]	-999	PAL1	3	R1118N
1963.004	0.034	2398458	REC_END	n/a	n/a	6	-999	n/a	n/a	n/a	n/a	16	[0, 0, 0]	-999	PAL1	3	R1118N
1963.038	10.237	2398492	FEEDBACK_SHOW_ALL_PAIRS	n/a	n/a	6	-999	n/a	n/a	n/a	n/a	16	[0, 0, 0]	-999	PAL1	3	R1118N
1973.275	10.45	2408729	ENCODING_START	n/a	n/a	0	-999	n/a	n/a	n/a	n/a	17	[0, 0, 0]	-999	PAL1	3	R1118N
1983.725	0.899	2419179	STUDY_ORIENT	n/a	n/a	1	1	PURSE	SKY	BEAR	PURSE	17	[0, 0, 0]	-999	PAL1	3	R1118N
1984.624	5.018	2420078	STUDY_PAIR	n/a	wordpools/wordpool_EN.txt	1	1	PURSE	SKY	BEAR	PURSE	17	[0, 0, 0]	-999	PAL1	3	R1118N
1989.642	0.8	2425095	STUDY_ORIENT	n/a	n/a	2	2	BLUSH	n/a	BLUSH	WHEEL	17	[0, 0, 0]	-999	PAL1	3	R1118N
1990.442	5.034	2425895	STUDY_PAIR	n/a	wordpools/wordpool_EN.txt	2	2	BLUSH	n/a	BLUSH	WHEEL	17	[0, 0, 0]	-999	PAL1	3	R1118N
1995.476	0.8	2430929	STUDY_ORIENT	n/a	n/a	3	3	CUP	ANT	CUP	MULE	17	[0, 0, 0]	-999	PAL1	3	R1118N
1996.276	5.018	2431729	STUDY_PAIR	n/a	wordpools/wordpool_EN.txt	3	3	CUP	ANT	CUP	MULE	17	[0, 0, 0]	-999	PAL1	3	R1118N
2001.294	0.933	2436747	STUDY_ORIENT	n/a	n/a	4	4	NAIL	SKY	NAIL	COUCH	17	[0, 0, 0]	-999	PAL1	3	R1118N
2002.227	5.018	2437680	STUDY_PAIR	n/a	wordpools/wordpool_EN.txt	4	4	NAIL	SKY	NAIL	COUCH	17	[0, 0, 0]	-999	PAL1	3	R1118N
2007.245	0.917	2442698	STUDY_ORIENT	n/a	n/a	5	5	PIT	n/a	ROSE	PIT	17	[0, 0, 0]	-999	PAL1	3	R1118N
2008.162	5.034	2443615	STUDY_PAIR	n/a	wordpools/wordpool_EN.txt	5	5	PIT	n/a	ROSE	PIT	17	[0, 0, 0]	-999	PAL1	3	R1118N
2013.196	0.833	2448649	STUDY_ORIENT	n/a	n/a	6	6	DESK	n/a	DESK	SLIME	17	[0, 0, 0]	-999	PAL1	3	R1118N
2014.029	4.001	2449482	STUDY_PAIR	n/a	wordpools/wordpool_EN.txt	6	6	DESK	n/a	DESK	SLIME	17	[0, 0, 0]	-999	PAL1	3	R1118N
2018.03	1.0	2453482	START	n/a	n/a	-999	-999	n/a	n/a	n/a	n/a	17	[-999, -999, -999]	-999	PAL1	3	R1118N
2019.03	0.017	2454482	MATH_START	n/a	n/a	-999	-999	n/a	n/a	n/a	n/a	17	[0, 0, 0]	-999	PAL1	3	R1118N
2019.047	5.367	2454499	PROB	5348	n/a	-999	-999	n/a	n/a	n/a	n/a	17	[5, 7, 1]	13	PAL1	3	R1118N
2024.414	1.884	2459866	PROB	1853	n/a	-999	-999	n/a	n/a	n/a	n/a	17	[3, 3, 3]	9	PAL1	3	R1118N
2026.298	2.084	2461750	PROB	2065	n/a	-999	-999	n/a	n/a	n/a	n/a	17	[6, 2, 4]	10	PAL1	3	R1118N
2028.382	3.8	2463834	PROB	3773	n/a	-999	-999	n/a	n/a	n/a	n/a	17	[2, 2, 3]	7	PAL1	3	R1118N
2032.182	4.418	2467634	PROB	4397	n/a	-999	-999	n/a	n/a	n/a	n/a	17	[4, 4, 9]	17	PAL1	3	R1118N
2036.6	9.083	2472052	PROB	9083	n/a	-999	-999	n/a	n/a	n/a	n/a	17	[6, 7, 8]	21	PAL1	3	R1118N
2045.683	0.018	2481134	STOP	n/a	n/a	-999	-999	n/a	n/a	n/a	n/a	17	[-999, -999, -999]	-999	PAL1	3	R1118N
2045.701	0.0	2481152	MATH_END	n/a	n/a	-999	-999	n/a	n/a	n/a	n/a	17	[0, 0, 0]	-999	PAL1	3	R1118N
2045.701	0.017	2481152	TEST_START	n/a	n/a	-999	-999	n/a	n/a	n/a	n/a	17	[0, 0, 0]	-999	PAL1	3	R1118N
2045.718	1.0	2481169	TEST_ORIENT	n/a	n/a	1	1	PURSE	SKY	BEAR	PURSE	17	[0, 0, 0]	-999	PAL1	3	R1118N
2046.718	0.002	2482169	TEST_PROBE	n/a	wordpools/wordpool_EN.txt	1	1	PURSE	SKY	BEAR	PURSE	17	[0, 0, 0]	-999	PAL1	3	R1118N
2046.72	2.266	2482171	REC_START	n/a	n/a	1	-999	n/a	SKY	n/a	n/a	17	[0, 0, 0]	-999	PAL1	3	R1118N
2048.986	2.744	2484437	REC_EVENT	2266	n/a	1	1	PURSE	SKY	BEAR	PURSE	17	[0, 0, 0]	-999	PAL1	3	R1118N
2051.73	0.006	2487181	REC_END	n/a	n/a	1	-999	n/a	n/a	n/a	n/a	17	[0, 0, 0]	-999	PAL1	3	R1118N
2051.736	0.967	2487187	TEST_ORIENT	n/a	n/a	2	2	BLUSH	n/a	BLUSH	WHEEL	17	[0, 0, 0]	-999	PAL1	3	R1118N
2052.703	0.0	2488154	TEST_PROBE	n/a	wordpools/wordpool_EN.txt	2	2	BLUSH	n/a	BLUSH	WHEEL	17	[0, 0, 0]	-999	PAL1	3	R1118N
2052.703	1.873	2488154	REC_START	n/a	n/a	2	-999	n/a	n/a	n/a	n/a	17	[0, 0, 0]	-999	PAL1	3	R1118N
2054.576	3.145	2490027	REC_EVENT	1873	n/a	2	2	BLUSH	<>	BLUSH	WHEEL	17	[0, 0, 0]	-999	PAL1	3	R1118N
2057.721	0.017	2493172	REC_END	n/a	n/a	2	-999	n/a	n/a	n/a	n/a	17	[0, 0, 0]	-999	PAL1	3	R1118N
2057.738	0.983	2493189	TEST_ORIENT	n/a	n/a	3	3	CUP	ANT	CUP	MULE	17	[0, 0, 0]	-999	PAL1	3	R1118N
2058.721	0.001	2494172	TEST_PROBE	n/a	wordpools/wordpool_EN.txt	3	3	CUP	ANT	CUP	MULE	17	[0, 0, 0]	-999	PAL1	3	R1118N
2058.722	2.09	2494173	REC_START	n/a	n/a	3	-999	n/a	ANT	n/a	n/a	17	[0, 0, 0]	-999	PAL1	3	R1118N
2060.812	2.92	2496263	REC_EVENT	2090	n/a	3	3	CUP	ANT	CUP	MULE	17	[0, 0, 0]	-999	PAL1	3	R1118N
2063.732	0.007	2499183	REC_END	n/a	n/a	3	-999	n/a	n/a	n/a	n/a	17	[0, 0, 0]	-999	PAL1	3	R1118N
2063.739	0.899	2499190	TEST_ORIENT	n/a	n/a	4	4	NAIL	SKY	NAIL	COUCH	17	[0, 0, 0]	-999	PAL1	3	R1118N
2064.638	0.0	2500089	TEST_PROBE	n/a	wordpools/wordpool_EN.txt	4	4	NAIL	SKY	NAIL	COUCH	17	[0, 0, 0]	-999	PAL1	3	R1118N
2064.638	1.943	2500089	REC_START	n/a	n/a	4	-999	n/a	SKY	n/a	n/a	17	[0, 0, 0]	-999	PAL1	3	R1118N
2066.581	3.074	2502032	REC_EVENT	1943	n/a	4	4	NAIL	SKY	NAIL	COUCH	17	[0, 0, 0]	-999	PAL1	3	R1118N
2069.655	0.017	2505105	REC_END	n/a	n/a	4	-999	n/a	n/a	n/a	n/a	17	[0, 0, 0]	-999	PAL1	3	R1118N
2069.672	0.984	2505122	TEST_ORIENT	n/a	n/a	5	5	PIT	n/a	ROSE	PIT	17	[0, 0, 0]	-999	PAL1	3	R1118N
2070.656	0.0	2506106	TEST_PROBE	n/a	wordpools/wordpool_EN.txt	5	5	PIT	n/a	ROSE	PIT	17	[0, 0, 0]	-999	PAL1	3	R1118N
2070.656	2.519	2506106	REC_START	n/a	n/a	5	-999	n/a	n/a	n/a	n/a	17	[0, 0, 0]	-999	PAL1	3	R1118N
2073.175	2.502	2508625	REC_EVENT	2519	n/a	5	5	PIT	<>	ROSE	PIT	17	[0, 0, 0]	-999	PAL1	3	R1118N
2075.677	0.013	2511127	REC_END	n/a	n/a	5	-999	n/a	n/a	n/a	n/a	17	[0, 0, 0]	-999	PAL1	3	R1118N
2075.69	0.883	2511140	TEST_ORIENT	n/a	n/a	6	6	DESK	n/a	DESK	SLIME	17	[0, 0, 0]	-999	PAL1	3	R1118N
2076.573	0.0	2512023	TEST_PROBE	n/a	wordpools/wordpool_EN.txt	6	6	DESK	n/a	DESK	SLIME	17	[0, 0, 0]	-999	PAL1	3	R1118N
2076.573	2.416	2512023	REC_START	n/a	n/a	6	-999	n/a	n/a	n/a	n/a	17	[0, 0, 0]	-999	PAL1	3	R1118N
2078.989	2.602	2514439	REC_EVENT	2416	n/a	6	6	DESK	<>	DESK	SLIME	17	[0, 0, 0]	-999	PAL1	3	R1118N
2081.591	0.033	2517041	REC_END	n/a	n/a	6	-999	n/a	n/a	n/a	n/a	17	[0, 0, 0]	-999	PAL1	3	R1118N
2081.624	9.627	2517074	FEEDBACK_SHOW_ALL_PAIRS	n/a	n/a	6	-999	n/a	n/a	n/a	n/a	17	[0, 0, 0]	-999	PAL1	3	R1118N
2091.251	10.443	2526701	ENCODING_START	n/a	n/a	0	-999	n/a	n/a	n/a	n/a	18	[0, 0, 0]	-999	PAL1	3	R1118N
2101.694	0.967	2537143	STUDY_ORIENT	n/a	n/a	1	5	HOOF	HORSE	HOOF	ROOM	18	[0, 0, 0]	-999	PAL1	3	R1118N
2102.661	5.034	2538110	STUDY_PAIR	n/a	wordpools/wordpool_EN.txt	1	5	HOOF	HORSE	HOOF	ROOM	18	[0, 0, 0]	-999	PAL1	3	R1118N
2107.695	0.867	2543144	STUDY_ORIENT	n/a	n/a	2	6	WOOD	BADGE	SLEEVE	WOOD	18	[0, 0, 0]	-999	PAL1	3	R1118N
2108.562	5.034	2544011	STUDY_PAIR	n/a	wordpools/wordpool_EN.txt	2	6	WOOD	BADGE	SLEEVE	WOOD	18	[0, 0, 0]	-999	PAL1	3	R1118N
2113.596	0.784	2549045	STUDY_ORIENT	n/a	n/a	3	1	FOX	SKY	FOX	PALM	18	[0, 0, 0]	-999	PAL1	3	R1118N
2114.38	5.034	2549829	STUDY_PAIR	n/a	wordpools/wordpool_EN.txt	3	1	FOX	SKY	FOX	PALM	18	[0, 0, 0]	-999	PAL1	3	R1118N
2119.414	0.817	2554863	STUDY_ORIENT	n/a	n/a	4	4	EGG	n/a	EGG	DITCH	18	[0, 0, 0]	-999	PAL1	3	R1118N
2120.231	5.034	2555680	STUDY_PAIR	n/a	wordpools/wordpool_EN.txt	4	4	EGG	n/a	EGG	DITCH	18	[0, 0, 0]	-999	PAL1	3	R1118N
2125.265	1.0	2560713	STUDY_ORIENT	n/a	n/a	5	3	SHIELD	GOAT	SHIELD	PLANT	18	[0, 0, 0]	-999	PAL1	3	R1118N
2126.265	5.034	2561713	STUDY_PAIR	n/a	wordpools/wordpool_EN.txt	5	3	SHIELD	GOAT	SHIELD	PLANT	18	[0, 0, 0]	-999	PAL1	3	R1118N
2131.299	0.967	2566747	STUDY_ORIENT	n/a	n/a	6	2	NET	n/a	GOAT	NET	18	[0, 0, 0]	-999	PAL1	3	R1118N
2132.266	4.018	2567714	STUDY_PAIR	n/a	wordpools/wordpool_EN.txt	6	2	NET	n/a	GOAT	NET	18	[0, 0, 0]	-999	PAL1	3	R1118N
2136.284	0.999	2571732	START	n/a	n/a	-999	-999	n/a	n/a	n/a	n/a	18	[-999, -999, -999]	-999	PAL1	3	R1118N
2137.283	0.017	2572731	MATH_START	n/a	n/a	-999	-999	n/a	n/a	n/a	n/a	18	[0, 0, 0]	-999	PAL1	3	R1118N
2137.3	2.552	2572748	PROB	2528	n/a	-999	-999	n/a	n/a	n/a	n/a	18	[1, 5, 5]	11	PAL1	3	R1118N
2139.852	3.849	2575300	PROB	3815	n/a	-999	-999	n/a	n/a	n/a	n/a	18	[5, 2, 2]	9	PAL1	3	R1118N
2143.701	2.651	2579149	PROB	2622	n/a	-999	-999	n/a	n/a	n/a	n/a	18	[2, 6, 1]	9	PAL1	3	R1118N
2146.352	2.283	2581800	PROB	2259	n/a	-999	-999	n/a	n/a	n/a	n/a	18	[1, 8, 2]	11	PAL1	3	R1118N
2148.635	8.161	2584083	PROB	8161	n/a	-999	-999	n/a	n/a	n/a	n/a	18	[7, 5, 6]	17	PAL1	3	R1118N
2156.796	0.008	2592243	STOP	n/a	n/a	-999	-999	n/a	n/a	n/a	n/a	18	[-999, -999, -999]	-999	PAL1	3	R1118N
2156.804	0.0	2592251	MATH_END	n/a	n/a	-999	-999	n/a	n/a	n/a	n/a	18	[0, 0, 0]	-999	PAL1	3	R1118N
2156.804	0.017	2592251	TEST_START	n/a	n/a	-999	-999	n/a	n/a	n/a	n/a	18	[0, 0, 0]	-999	PAL1	3	R1118N
2156.821	0.9	2592268	TEST_ORIENT	n/a	n/a	3	1	FOX	SKY	FOX	PALM	18	[0, 0, 0]	-999	PAL1	3	R1118N
2157.721	0.001	2593168	TEST_PROBE	n/a	wordpools/wordpool_EN.txt	3	1	FOX	SKY	FOX	PALM	18	[0, 0, 0]	-999	PAL1	3	R1118N
2157.722	2.117	2593169	REC_START	n/a	n/a	3	-999	n/a	SKY	n/a	n/a	18	[0, 0, 0]	-999	PAL1	3	R1118N
2159.839	2.892	2595286	REC_EVENT	2117	n/a	3	1	FOX	SKY	FOX	PALM	18	[0, 0, 0]	-999	PAL1	3	R1118N
2162.731	0.008	2598178	REC_END	n/a	n/a	3	-999	n/a	n/a	n/a	n/a	18	[0, 0, 0]	-999	PAL1	3	R1118N
2162.739	0.916	2598186	TEST_ORIENT	n/a	n/a	6	2	NET	n/a	GOAT	NET	18	[0, 0, 0]	-999	PAL1	3	R1118N
2163.655	0.0	2599102	TEST_PROBE	n/a	wordpools/wordpool_EN.txt	6	2	NET	n/a	GOAT	NET	18	[0, 0, 0]	-999	PAL1	3	R1118N
2163.655	1.724	2599102	REC_START	n/a	n/a	6	-999	n/a	n/a	n/a	n/a	18	[0, 0, 0]	-999	PAL1	3	R1118N
2165.379	3.293	2600826	REC_EVENT	1724	n/a	6	2	NET	<>	GOAT	NET	18	[0, 0, 0]	-999	PAL1	3	R1118N
2168.672	0.017	2604119	REC_END	n/a	n/a	6	-999	n/a	n/a	n/a	n/a	18	[0, 0, 0]	-999	PAL1	3	R1118N
2168.689	0.9	2604136	TEST_ORIENT	n/a	n/a	5	3	SHIELD	GOAT	SHIELD	PLANT	18	[0, 0, 0]	-999	PAL1	3	R1118N
2169.589	0.001	2605036	TEST_PROBE	n/a	wordpools/wordpool_EN.txt	5	3	SHIELD	GOAT	SHIELD	PLANT	18	[0, 0, 0]	-999	PAL1	3	R1118N
2169.59	3.321	2605037	REC_START	n/a	n/a	5	-999	n/a	GOAT	n/a	n/a	18	[0, 0, 0]	-999	PAL1	3	R1118N
2172.911	1.704	2608358	REC_EVENT	3321	n/a	5	3	SHIELD	GOAT	SHIELD	PLANT	18	[0, 0, 0]	-999	PAL1	3	R1118N
2174.615	0.008	2610062	REC_END	n/a	n/a	5	-999	n/a	n/a	n/a	n/a	18	[0, 0, 0]	-999	PAL1	3	R1118N
2174.623	0.95	2610070	TEST_ORIENT	n/a	n/a	4	4	EGG	n/a	EGG	DITCH	18	[0, 0, 0]	-999	PAL1	3	R1118N
2175.573	0.001	2611020	TEST_PROBE	n/a	wordpools/wordpool_EN.txt	4	4	EGG	n/a	EGG	DITCH	18	[0, 0, 0]	-999	PAL1	3	R1118N
2175.574	3.902	2611021	REC_START	n/a	n/a	4	-999	n/a	n/a	n/a	n/a	18	[0, 0, 0]	-999	PAL1	3	R1118N
2179.476	1.107	2614922	REC_EVENT	3902	n/a	4	4	EGG	<>	EGG	DITCH	18	[0, 0, 0]	-999	PAL1	3	R1118N
2180.583	0.008	2616029	REC_END	n/a	n/a	4	-999	n/a	n/a	n/a	n/a	18	[0, 0, 0]	-999	PAL1	3	R1118N
2180.591	0.95	2616037	TEST_ORIENT	n/a	n/a	1	5	HOOF	HORSE	HOOF	ROOM	18	[0, 0, 0]	-999	PAL1	3	R1118N
2181.541	0.0	2616987	TEST_PROBE	n/a	wordpools/wordpool_EN.txt	1	5	HOOF	HORSE	HOOF	ROOM	18	[0, 0, 0]	-999	PAL1	3	R1118N
2181.541	2.604	2616987	REC_START	n/a	n/a	1	-999	n/a	HORSE	n/a	n/a	18	[0, 0, 0]	-999	PAL1	3	R1118N
2184.145	2.413	2619591	REC_EVENT	2604	n/a	1	5	HOOF	HORSE	HOOF	ROOM	18	[0, 0, 0]	-999	PAL1	3	R1118N
2186.558	0.017	2622004	REC_END	n/a	n/a	1	-999	n/a	n/a	n/a	n/a	18	[0, 0, 0]	-999	PAL1	3	R1118N
2186.575	0.834	2622021	TEST_ORIENT	n/a	n/a	2	6	WOOD	BADGE	SLEEVE	WOOD	18	[0, 0, 0]	-999	PAL1	3	R1118N
2187.409	0.0	2622855	TEST_PROBE	n/a	wordpools/wordpool_EN.txt	2	6	WOOD	BADGE	SLEEVE	WOOD	18	[0, 0, 0]	-999	PAL1	3	R1118N
2187.409	2.497	2622855	REC_START	n/a	n/a	2	-999	n/a	BADGE	n/a	n/a	18	[0, 0, 0]	-999	PAL1	3	R1118N
2189.906	2.52	2625352	REC_EVENT	2497	n/a	2	6	WOOD	BADGE	SLEEVE	WOOD	18	[0, 0, 0]	-999	PAL1	3	R1118N
2192.426	0.034	2627872	REC_END	n/a	n/a	2	-999	n/a	n/a	n/a	n/a	18	[0, 0, 0]	-999	PAL1	3	R1118N
2192.46	9.695	2627906	FEEDBACK_SHOW_ALL_PAIRS	n/a	n/a	2	-999	n/a	n/a	n/a	n/a	18	[0, 0, 0]	-999	PAL1	3	R1118N
2202.155	10.441	2637601	ENCODING_START	n/a	n/a	0	-999	n/a	n/a	n/a	n/a	19	[0, 0, 0]	-999	PAL1	3	R1118N
2212.596	0.9	2648041	STUDY_ORIENT	n/a	n/a	1	5	BAT	BADGE	BAT	OWL	19	[0, 0, 0]	-999	PAL1	3	R1118N
2213.496	5.018	2648941	STUDY_PAIR	n/a	wordpools/wordpool_EN.txt	1	5	BAT	BADGE	BAT	OWL	19	[0, 0, 0]	-999	PAL1	3	R1118N
2218.514	0.933	2653959	STUDY_ORIENT	n/a	n/a	2	6	BEAN	SMALL	BEAN	HORSE	19	[0, 0, 0]	-999	PAL1	3	R1118N
2219.447	5.018	2654892	STUDY_PAIR	n/a	wordpools/wordpool_EN.txt	2	6	BEAN	SMALL	BEAN	HORSE	19	[0, 0, 0]	-999	PAL1	3	R1118N
2224.465	0.9	2659910	STUDY_ORIENT	n/a	n/a	3	3	BOARD	WOOD	BOWL	BOARD	19	[0, 0, 0]	-999	PAL1	3	R1118N
2225.365	5.034	2660810	STUDY_PAIR	n/a	wordpools/wordpool_EN.txt	3	3	BOARD	WOOD	BOWL	BOARD	19	[0, 0, 0]	-999	PAL1	3	R1118N
2230.399	1.017	2665843	STUDY_ORIENT	n/a	n/a	4	4	SINK	SUN	SINK	SUN	19	[0, 0, 0]	-999	PAL1	3	R1118N
2231.416	5.034	2666860	STUDY_PAIR	n/a	wordpools/wordpool_EN.txt	4	4	SINK	SUN	SINK	SUN	19	[0, 0, 0]	-999	PAL1	3	R1118N
2236.45	0.784	2671894	STUDY_ORIENT	n/a	n/a	5	1	BRIDGE	SKY	BRIDGE	ELF	19	[0, 0, 0]	-999	PAL1	3	R1118N
